trials.thisRepN,trials.thisTrialN,trials.thisN,trials.thisIndex,trials.ran,Colourcodes,participant,session,date,expName,psychopyVersion,OS,frameRate,study_id,trials_4.thisRepN,trials_4.thisTrialN,trials_4.thisN,trials_4.thisIndex,trials_4.ran,StimulusPos,key_resp.keys,key_resp.rt,key_resp_2.keys,key_resp_2.rt,key_resp_15.keys,key_resp_15.rt,key_resp_17.keys,key_resp_17.rt,key_resp_9.keys,key_resp_9.rt,key_resp_10.keys,key_resp_10.rt,Circle1_col,Ecc,Circle2_col,similarity,response_time,mouse_5.x,mouse_5.y,mouse_5.leftButton,mouse_5.midButton,mouse_5.rightButton,mouse_5.clicked_name,mouse_10.x,mouse_10.y,mouse_10.leftButton,mouse_10.midButton,mouse_10.rightButton,mouse_10.clicked_name,mouse_7.x,mouse_7.y,mouse_7.leftButton,mouse_7.midButton,mouse_7.rightButton,catchnumberprac,mouse_6.x,mouse_6.y,mouse_6.leftButton,mouse_6.midButton,mouse_6.rightButton,duringprac.thisRepN,duringprac.thisTrialN,duringprac.thisN,duringprac.thisIndex,duringprac.ran,mouse_7.clicked_name,catchprac,mouse_6.clicked_name,key_resp_22.keys,key_resp_22.rt,Circle1_colour,Circle2_colour,mouse.x,mouse.y,mouse.leftButton,mouse.midButton,mouse.rightButton,mouse.clicked_name,mouse_2.x,mouse_2.y,mouse_2.leftButton,mouse_2.midButton,mouse_2.rightButton,mouse_2.clicked_name,mouse_3.x,mouse_3.y,mouse_3.leftButton,mouse_3.midButton,mouse_3.rightButton,catchresponse,catchnumber,response_time_catch,Catch,mouse_11.x,mouse_11.y,mouse_11.leftButton,mouse_11.midButton,mouse_11.rightButton,trials_2.thisRepN,trials_2.thisTrialN,trials_2.thisN,trials_2.thisIndex,trials_2.ran,Colourpair,Temporder,mouse_3.clicked_name,mouse_11.clicked_name,trials_3.thisRepN,trials_3.thisTrialN,trials_3.thisN,trials_3.thisIndex,trials_3.ran,key_resp_instr_Ishi.keys,key_resp_instr_Ishi.rt,Ishi_trial_keyresp.keys,Ishi_textbox.text,Ishi_mouse.x,Ishi_mouse.y,Ishi_mouse.leftButton,Ishi_mouse.midButton,Ishi_mouse.rightButton,Ishi_mouse.clicked_name,Ishi_loop.thisRepN,Ishi_loop.thisTrialN,Ishi_loop.thisN,Ishi_loop.thisIndex,Ishi_loop.ran,imageaddress,textbox.text,mouse_4.x,mouse_4.y,mouse_4.leftButton,mouse_4.midButton,mouse_4.rightButton,mouse_4.clicked_name,textbox_2.text,mouse_8.x,mouse_8.y,mouse_8.leftButton,mouse_8.midButton,mouse_8.rightButton,mouse_8.clicked_name,textbox_3.text,mouse_9.x,mouse_9.y,mouse_9.leftButton,mouse_9.midButton,mouse_9.rightButton,mouse_9.clicked_name,textbox_4.text,mouse_12.x,mouse_12.y,mouse_12.leftButton,mouse_12.midButton,mouse_12.rightButton,mouse_12.clicked_name,textbox_5.text,mouse_13.x,mouse_13.y,mouse_13.leftButton,mouse_13.midButton,mouse_13.rightButton,mouse_13.clicked_name,textbox_6.text,mouse_14.x,mouse_14.y,mouse_14.leftButton,mouse_14.midButton,mouse_14.rightButton,mouse_14.clicked_name,textbox_7.text,mouse_15.x,mouse_15.y,mouse_15.leftButton,mouse_15.midButton,mouse_15.rightButton,mouse_15.clicked_name
0,0,0,11,1,,615025cfceb970fd5d487a5d,62c53a773c3942f0dbd9d0fd,2022-07-06_09h42.25.438,Colour_Asymmetry_Pilot,2022.1.3,Win32,59.93407252,62c50e9c1127f2cd403a315f,,,,,,,,,,,,,,,,,,,,,,,,,,,,,,,,,,,,,,,,,,,,,,,,,,,,,,,,,,,,,,,,,,,,,,,,,,,,,,,,,,,,,,,,,,,,,,,,,,,,,,,,,,,,,,,,,,,,,,,,,,,,,,,,,,,,,,,,,,,,,,,,,,,,,,,,,,,,,,,,,,,
0,1,1,32,1,,615025cfceb970fd5d487a5d,62c53a773c3942f0dbd9d0fd,2022-07-06_09h42.25.438,Colour_Asymmetry_Pilot,2022.1.3,Win32,59.93407252,62c50e9c1127f2cd403a315f,,,,,,,,,,,,,,,,,,,,,,,,,,,,,,,,,,,,,,,,,,,,,,,,,,,,,,,,,,,,,,,,,,,,,,,,,,,,,,,,,,,,,,,,,,,,,,,,,,,,,,,,,,,,,,,,,,,,,,,,,,,,,,,,,,,,,,,,,,,,,,,,,,,,,,,,,,,,,,,,,,,
0,2,2,59,1,,615025cfceb970fd5d487a5d,62c53a773c3942f0dbd9d0fd,2022-07-06_09h42.25.438,Colour_Asymmetry_Pilot,2022.1.3,Win32,59.93407252,62c50e9c1127f2cd403a315f,,,,,,,,,,,,,,,,,,,,,,,,,,,,,,,,,,,,,,,,,,,,,,,,,,,,,,,,,,,,,,,,,,,,,,,,,,,,,,,,,,,,,,,,,,,,,,,,,,,,,,,,,,,,,,,,,,,,,,,,,,,,,,,,,,,,,,,,,,,,,,,,,,,,,,,,,,,,,,,,,,,
0,3,3,81,1,,615025cfceb970fd5d487a5d,62c53a773c3942f0dbd9d0fd,2022-07-06_09h42.25.438,Colour_Asymmetry_Pilot,2022.1.3,Win32,59.93407252,62c50e9c1127f2cd403a315f,,,,,,,,,,,,,,,,,,,,,,,,,,,,,,,,,,,,,,,,,,,,,,,,,,,,,,,,,,,,,,,,,,,,,,,,,,,,,,,,,,,,,,,,,,,,,,,,,,,,,,,,,,,,,,,,,,,,,,,,,,,,,,,,,,,,,,,,,,,,,,,,,,,,,,,,,,,,,,,,,,,
0,4,4,51,1,,615025cfceb970fd5d487a5d,62c53a773c3942f0dbd9d0fd,2022-07-06_09h42.25.438,Colour_Asymmetry_Pilot,2022.1.3,Win32,59.93407252,62c50e9c1127f2cd403a315f,,,,,,,,,,,,,,,,,,,,,,,,,,,,,,,,,,,,,,,,,,,,,,,,,,,,,,,,,,,,,,,,,,,,,,,,,,,,,,,,,,,,,,,,,,,,,,,,,,,,,,,,,,,,,,,,,,,,,,,,,,,,,,,,,,,,,,,,,,,,,,,,,,,,,,,,,,,,,,,,,,,
0,5,5,71,1,,615025cfceb970fd5d487a5d,62c53a773c3942f0dbd9d0fd,2022-07-06_09h42.25.438,Colour_Asymmetry_Pilot,2022.1.3,Win32,59.93407252,62c50e9c1127f2cd403a315f,,,,,,,,,,,,,,,,,,,,,,,,,,,,,,,,,,,,,,,,,,,,,,,,,,,,,,,,,,,,,,,,,,,,,,,,,,,,,,,,,,,,,,,,,,,,,,,,,,,,,,,,,,,,,,,,,,,,,,,,,,,,,,,,,,,,,,,,,,,,,,,,,,,,,,,,,,,,,,,,,,,
0,6,6,69,1,,615025cfceb970fd5d487a5d,62c53a773c3942f0dbd9d0fd,2022-07-06_09h42.25.438,Colour_Asymmetry_Pilot,2022.1.3,Win32,59.93407252,62c50e9c1127f2cd403a315f,,,,,,,,,,,,,,,,,,,,,,,,,,,,,,,,,,,,,,,,,,,,,,,,,,,,,,,,,,,,,,,,,,,,,,,,,,,,,,,,,,,,,,,,,,,,,,,,,,,,,,,,,,,,,,,,,,,,,,,,,,,,,,,,,,,,,,,,,,,,,,,,,,,,,,,,,,,,,,,,,,,
0,7,7,82,1,,615025cfceb970fd5d487a5d,62c53a773c3942f0dbd9d0fd,2022-07-06_09h42.25.438,Colour_Asymmetry_Pilot,2022.1.3,Win32,59.93407252,62c50e9c1127f2cd403a315f,,,,,,,,,,,,,,,,,,,,,,,,,,,,,,,,,,,,,,,,,,,,,,,,,,,,,,,,,,,,,,,,,,,,,,,,,,,,,,,,,,,,,,,,,,,,,,,,,,,,,,,,,,,,,,,,,,,,,,,,,,,,,,,,,,,,,,,,,,,,,,,,,,,,,,,,,,,,,,,,,,,
0,8,8,37,1,,615025cfceb970fd5d487a5d,62c53a773c3942f0dbd9d0fd,2022-07-06_09h42.25.438,Colour_Asymmetry_Pilot,2022.1.3,Win32,59.93407252,62c50e9c1127f2cd403a315f,,,,,,,,,,,,,,,,,,,,,,,,,,,,,,,,,,,,,,,,,,,,,,,,,,,,,,,,,,,,,,,,,,,,,,,,,,,,,,,,,,,,,,,,,,,,,,,,,,,,,,,,,,,,,,,,,,,,,,,,,,,,,,,,,,,,,,,,,,,,,,,,,,,,,,,,,,,,,,,,,,,
0,9,9,15,1,,615025cfceb970fd5d487a5d,62c53a773c3942f0dbd9d0fd,2022-07-06_09h42.25.438,Colour_Asymmetry_Pilot,2022.1.3,Win32,59.93407252,62c50e9c1127f2cd403a315f,,,,,,,,,,,,,,,,,,,,,,,,,,,,,,,,,,,,,,,,,,,,,,,,,,,,,,,,,,,,,,,,,,,,,,,,,,,,,,,,,,,,,,,,,,,,,,,,,,,,,,,,,,,,,,,,,,,,,,,,,,,,,,,,,,,,,,,,,,,,,,,,,,,,,,,,,,,,,,,,,,,
0,10,10,0,1,,615025cfceb970fd5d487a5d,62c53a773c3942f0dbd9d0fd,2022-07-06_09h42.25.438,Colour_Asymmetry_Pilot,2022.1.3,Win32,59.93407252,62c50e9c1127f2cd403a315f,,,,,,,,,,,,,,,,,,,,,,,,,,,,,,,,,,,,,,,,,,,,,,,,,,,,,,,,,,,,,,,,,,,,,,,,,,,,,,,,,,,,,,,,,,,,,,,,,,,,,,,,,,,,,,,,,,,,,,,,,,,,,,,,,,,,,,,,,,,,,,,,,,,,,,,,,,,,,,,,,,,
0,11,11,24,1,,615025cfceb970fd5d487a5d,62c53a773c3942f0dbd9d0fd,2022-07-06_09h42.25.438,Colour_Asymmetry_Pilot,2022.1.3,Win32,59.93407252,62c50e9c1127f2cd403a315f,,,,,,,,,,,,,,,,,,,,,,,,,,,,,,,,,,,,,,,,,,,,,,,,,,,,,,,,,,,,,,,,,,,,,,,,,,,,,,,,,,,,,,,,,,,,,,,,,,,,,,,,,,,,,,,,,,,,,,,,,,,,,,,,,,,,,,,,,,,,,,,,,,,,,,,,,,,,,,,,,,,
0,12,12,2,1,,615025cfceb970fd5d487a5d,62c53a773c3942f0dbd9d0fd,2022-07-06_09h42.25.438,Colour_Asymmetry_Pilot,2022.1.3,Win32,59.93407252,62c50e9c1127f2cd403a315f,,,,,,,,,,,,,,,,,,,,,,,,,,,,,,,,,,,,,,,,,,,,,,,,,,,,,,,,,,,,,,,,,,,,,,,,,,,,,,,,,,,,,,,,,,,,,,,,,,,,,,,,,,,,,,,,,,,,,,,,,,,,,,,,,,,,,,,,,,,,,,,,,,,,,,,,,,,,,,,,,,,
0,13,13,20,1,,615025cfceb970fd5d487a5d,62c53a773c3942f0dbd9d0fd,2022-07-06_09h42.25.438,Colour_Asymmetry_Pilot,2022.1.3,Win32,59.93407252,62c50e9c1127f2cd403a315f,,,,,,,,,,,,,,,,,,,,,,,,,,,,,,,,,,,,,,,,,,,,,,,,,,,,,,,,,,,,,,,,,,,,,,,,,,,,,,,,,,,,,,,,,,,,,,,,,,,,,,,,,,,,,,,,,,,,,,,,,,,,,,,,,,,,,,,,,,,,,,,,,,,,,,,,,,,,,,,,,,,
0,14,14,87,1,,615025cfceb970fd5d487a5d,62c53a773c3942f0dbd9d0fd,2022-07-06_09h42.25.438,Colour_Asymmetry_Pilot,2022.1.3,Win32,59.93407252,62c50e9c1127f2cd403a315f,,,,,,,,,,,,,,,,,,,,,,,,,,,,,,,,,,,,,,,,,,,,,,,,,,,,,,,,,,,,,,,,,,,,,,,,,,,,,,,,,,,,,,,,,,,,,,,,,,,,,,,,,,,,,,,,,,,,,,,,,,,,,,,,,,,,,,,,,,,,,,,,,,,,,,,,,,,,,,,,,,,
0,15,15,90,1,,615025cfceb970fd5d487a5d,62c53a773c3942f0dbd9d0fd,2022-07-06_09h42.25.438,Colour_Asymmetry_Pilot,2022.1.3,Win32,59.93407252,62c50e9c1127f2cd403a315f,,,,,,,,,,,,,,,,,,,,,,,,,,,,,,,,,,,,,,,,,,,,,,,,,,,,,,,,,,,,,,,,,,,,,,,,,,,,,,,,,,,,,,,,,,,,,,,,,,,,,,,,,,,,,,,,,,,,,,,,,,,,,,,,,,,,,,,,,,,,,,,,,,,,,,,,,,,,,,,,,,,
0,16,16,66,1,,615025cfceb970fd5d487a5d,62c53a773c3942f0dbd9d0fd,2022-07-06_09h42.25.438,Colour_Asymmetry_Pilot,2022.1.3,Win32,59.93407252,62c50e9c1127f2cd403a315f,,,,,,,,,,,,,,,,,,,,,,,,,,,,,,,,,,,,,,,,,,,,,,,,,,,,,,,,,,,,,,,,,,,,,,,,,,,,,,,,,,,,,,,,,,,,,,,,,,,,,,,,,,,,,,,,,,,,,,,,,,,,,,,,,,,,,,,,,,,,,,,,,,,,,,,,,,,,,,,,,,,
0,17,17,34,1,,615025cfceb970fd5d487a5d,62c53a773c3942f0dbd9d0fd,2022-07-06_09h42.25.438,Colour_Asymmetry_Pilot,2022.1.3,Win32,59.93407252,62c50e9c1127f2cd403a315f,,,,,,,,,,,,,,,,,,,,,,,,,,,,,,,,,,,,,,,,,,,,,,,,,,,,,,,,,,,,,,,,,,,,,,,,,,,,,,,,,,,,,,,,,,,,,,,,,,,,,,,,,,,,,,,,,,,,,,,,,,,,,,,,,,,,,,,,,,,,,,,,,,,,,,,,,,,,,,,,,,,
0,18,18,29,1,,615025cfceb970fd5d487a5d,62c53a773c3942f0dbd9d0fd,2022-07-06_09h42.25.438,Colour_Asymmetry_Pilot,2022.1.3,Win32,59.93407252,62c50e9c1127f2cd403a315f,,,,,,,,,,,,,,,,,,,,,,,,,,,,,,,,,,,,,,,,,,,,,,,,,,,,,,,,,,,,,,,,,,,,,,,,,,,,,,,,,,,,,,,,,,,,,,,,,,,,,,,,,,,,,,,,,,,,,,,,,,,,,,,,,,,,,,,,,,,,,,,,,,,,,,,,,,,,,,,,,,,
0,19,19,4,1,,615025cfceb970fd5d487a5d,62c53a773c3942f0dbd9d0fd,2022-07-06_09h42.25.438,Colour_Asymmetry_Pilot,2022.1.3,Win32,59.93407252,62c50e9c1127f2cd403a315f,,,,,,,,,,,,,,,,,,,,,,,,,,,,,,,,,,,,,,,,,,,,,,,,,,,,,,,,,,,,,,,,,,,,,,,,,,,,,,,,,,,,,,,,,,,,,,,,,,,,,,,,,,,,,,,,,,,,,,,,,,,,,,,,,,,,,,,,,,,,,,,,,,,,,,,,,,,,,,,,,,,
0,20,20,41,1,,615025cfceb970fd5d487a5d,62c53a773c3942f0dbd9d0fd,2022-07-06_09h42.25.438,Colour_Asymmetry_Pilot,2022.1.3,Win32,59.93407252,62c50e9c1127f2cd403a315f,,,,,,,,,,,,,,,,,,,,,,,,,,,,,,,,,,,,,,,,,,,,,,,,,,,,,,,,,,,,,,,,,,,,,,,,,,,,,,,,,,,,,,,,,,,,,,,,,,,,,,,,,,,,,,,,,,,,,,,,,,,,,,,,,,,,,,,,,,,,,,,,,,,,,,,,,,,,,,,,,,,
0,21,21,60,1,,615025cfceb970fd5d487a5d,62c53a773c3942f0dbd9d0fd,2022-07-06_09h42.25.438,Colour_Asymmetry_Pilot,2022.1.3,Win32,59.93407252,62c50e9c1127f2cd403a315f,,,,,,,,,,,,,,,,,,,,,,,,,,,,,,,,,,,,,,,,,,,,,,,,,,,,,,,,,,,,,,,,,,,,,,,,,,,,,,,,,,,,,,,,,,,,,,,,,,,,,,,,,,,,,,,,,,,,,,,,,,,,,,,,,,,,,,,,,,,,,,,,,,,,,,,,,,,,,,,,,,,
0,22,22,7,1,,615025cfceb970fd5d487a5d,62c53a773c3942f0dbd9d0fd,2022-07-06_09h42.25.438,Colour_Asymmetry_Pilot,2022.1.3,Win32,59.93407252,62c50e9c1127f2cd403a315f,,,,,,,,,,,,,,,,,,,,,,,,,,,,,,,,,,,,,,,,,,,,,,,,,,,,,,,,,,,,,,,,,,,,,,,,,,,,,,,,,,,,,,,,,,,,,,,,,,,,,,,,,,,,,,,,,,,,,,,,,,,,,,,,,,,,,,,,,,,,,,,,,,,,,,,,,,,,,,,,,,,
0,23,23,57,1,,615025cfceb970fd5d487a5d,62c53a773c3942f0dbd9d0fd,2022-07-06_09h42.25.438,Colour_Asymmetry_Pilot,2022.1.3,Win32,59.93407252,62c50e9c1127f2cd403a315f,,,,,,,,,,,,,,,,,,,,,,,,,,,,,,,,,,,,,,,,,,,,,,,,,,,,,,,,,,,,,,,,,,,,,,,,,,,,,,,,,,,,,,,,,,,,,,,,,,,,,,,,,,,,,,,,,,,,,,,,,,,,,,,,,,,,,,,,,,,,,,,,,,,,,,,,,,,,,,,,,,,
0,24,24,92,1,,615025cfceb970fd5d487a5d,62c53a773c3942f0dbd9d0fd,2022-07-06_09h42.25.438,Colour_Asymmetry_Pilot,2022.1.3,Win32,59.93407252,62c50e9c1127f2cd403a315f,,,,,,,,,,,,,,,,,,,,,,,,,,,,,,,,,,,,,,,,,,,,,,,,,,,,,,,,,,,,,,,,,,,,,,,,,,,,,,,,,,,,,,,,,,,,,,,,,,,,,,,,,,,,,,,,,,,,,,,,,,,,,,,,,,,,,,,,,,,,,,,,,,,,,,,,,,,,,,,,,,,
0,25,25,35,1,,615025cfceb970fd5d487a5d,62c53a773c3942f0dbd9d0fd,2022-07-06_09h42.25.438,Colour_Asymmetry_Pilot,2022.1.3,Win32,59.93407252,62c50e9c1127f2cd403a315f,,,,,,,,,,,,,,,,,,,,,,,,,,,,,,,,,,,,,,,,,,,,,,,,,,,,,,,,,,,,,,,,,,,,,,,,,,,,,,,,,,,,,,,,,,,,,,,,,,,,,,,,,,,,,,,,,,,,,,,,,,,,,,,,,,,,,,,,,,,,,,,,,,,,,,,,,,,,,,,,,,,
0,26,26,18,1,,615025cfceb970fd5d487a5d,62c53a773c3942f0dbd9d0fd,2022-07-06_09h42.25.438,Colour_Asymmetry_Pilot,2022.1.3,Win32,59.93407252,62c50e9c1127f2cd403a315f,,,,,,,,,,,,,,,,,,,,,,,,,,,,,,,,,,,,,,,,,,,,,,,,,,,,,,,,,,,,,,,,,,,,,,,,,,,,,,,,,,,,,,,,,,,,,,,,,,,,,,,,,,,,,,,,,,,,,,,,,,,,,,,,,,,,,,,,,,,,,,,,,,,,,,,,,,,,,,,,,,,
0,27,27,13,1,,615025cfceb970fd5d487a5d,62c53a773c3942f0dbd9d0fd,2022-07-06_09h42.25.438,Colour_Asymmetry_Pilot,2022.1.3,Win32,59.93407252,62c50e9c1127f2cd403a315f,,,,,,,,,,,,,,,,,,,,,,,,,,,,,,,,,,,,,,,,,,,,,,,,,,,,,,,,,,,,,,,,,,,,,,,,,,,,,,,,,,,,,,,,,,,,,,,,,,,,,,,,,,,,,,,,,,,,,,,,,,,,,,,,,,,,,,,,,,,,,,,,,,,,,,,,,,,,,,,,,,,
0,28,28,30,1,,615025cfceb970fd5d487a5d,62c53a773c3942f0dbd9d0fd,2022-07-06_09h42.25.438,Colour_Asymmetry_Pilot,2022.1.3,Win32,59.93407252,62c50e9c1127f2cd403a315f,,,,,,,,,,,,,,,,,,,,,,,,,,,,,,,,,,,,,,,,,,,,,,,,,,,,,,,,,,,,,,,,,,,,,,,,,,,,,,,,,,,,,,,,,,,,,,,,,,,,,,,,,,,,,,,,,,,,,,,,,,,,,,,,,,,,,,,,,,,,,,,,,,,,,,,,,,,,,,,,,,,
0,29,29,26,1,,615025cfceb970fd5d487a5d,62c53a773c3942f0dbd9d0fd,2022-07-06_09h42.25.438,Colour_Asymmetry_Pilot,2022.1.3,Win32,59.93407252,62c50e9c1127f2cd403a315f,,,,,,,,,,,,,,,,,,,,,,,,,,,,,,,,,,,,,,,,,,,,,,,,,,,,,,,,,,,,,,,,,,,,,,,,,,,,,,,,,,,,,,,,,,,,,,,,,,,,,,,,,,,,,,,,,,,,,,,,,,,,,,,,,,,,,,,,,,,,,,,,,,,,,,,,,,,,,,,,,,,
0,30,30,67,1,,615025cfceb970fd5d487a5d,62c53a773c3942f0dbd9d0fd,2022-07-06_09h42.25.438,Colour_Asymmetry_Pilot,2022.1.3,Win32,59.93407252,62c50e9c1127f2cd403a315f,,,,,,,,,,,,,,,,,,,,,,,,,,,,,,,,,,,,,,,,,,,,,,,,,,,,,,,,,,,,,,,,,,,,,,,,,,,,,,,,,,,,,,,,,,,,,,,,,,,,,,,,,,,,,,,,,,,,,,,,,,,,,,,,,,,,,,,,,,,,,,,,,,,,,,,,,,,,,,,,,,,
0,31,31,77,1,,615025cfceb970fd5d487a5d,62c53a773c3942f0dbd9d0fd,2022-07-06_09h42.25.438,Colour_Asymmetry_Pilot,2022.1.3,Win32,59.93407252,62c50e9c1127f2cd403a315f,,,,,,,,,,,,,,,,,,,,,,,,,,,,,,,,,,,,,,,,,,,,,,,,,,,,,,,,,,,,,,,,,,,,,,,,,,,,,,,,,,,,,,,,,,,,,,,,,,,,,,,,,,,,,,,,,,,,,,,,,,,,,,,,,,,,,,,,,,,,,,,,,,,,,,,,,,,,,,,,,,,
0,32,32,31,1,,615025cfceb970fd5d487a5d,62c53a773c3942f0dbd9d0fd,2022-07-06_09h42.25.438,Colour_Asymmetry_Pilot,2022.1.3,Win32,59.93407252,62c50e9c1127f2cd403a315f,,,,,,,,,,,,,,,,,,,,,,,,,,,,,,,,,,,,,,,,,,,,,,,,,,,,,,,,,,,,,,,,,,,,,,,,,,,,,,,,,,,,,,,,,,,,,,,,,,,,,,,,,,,,,,,,,,,,,,,,,,,,,,,,,,,,,,,,,,,,,,,,,,,,,,,,,,,,,,,,,,,
0,33,33,63,1,,615025cfceb970fd5d487a5d,62c53a773c3942f0dbd9d0fd,2022-07-06_09h42.25.438,Colour_Asymmetry_Pilot,2022.1.3,Win32,59.93407252,62c50e9c1127f2cd403a315f,,,,,,,,,,,,,,,,,,,,,,,,,,,,,,,,,,,,,,,,,,,,,,,,,,,,,,,,,,,,,,,,,,,,,,,,,,,,,,,,,,,,,,,,,,,,,,,,,,,,,,,,,,,,,,,,,,,,,,,,,,,,,,,,,,,,,,,,,,,,,,,,,,,,,,,,,,,,,,,,,,,
0,34,34,68,1,,615025cfceb970fd5d487a5d,62c53a773c3942f0dbd9d0fd,2022-07-06_09h42.25.438,Colour_Asymmetry_Pilot,2022.1.3,Win32,59.93407252,62c50e9c1127f2cd403a315f,,,,,,,,,,,,,,,,,,,,,,,,,,,,,,,,,,,,,,,,,,,,,,,,,,,,,,,,,,,,,,,,,,,,,,,,,,,,,,,,,,,,,,,,,,,,,,,,,,,,,,,,,,,,,,,,,,,,,,,,,,,,,,,,,,,,,,,,,,,,,,,,,,,,,,,,,,,,,,,,,,,
0,35,35,56,1,,615025cfceb970fd5d487a5d,62c53a773c3942f0dbd9d0fd,2022-07-06_09h42.25.438,Colour_Asymmetry_Pilot,2022.1.3,Win32,59.93407252,62c50e9c1127f2cd403a315f,,,,,,,,,,,,,,,,,,,,,,,,,,,,,,,,,,,,,,,,,,,,,,,,,,,,,,,,,,,,,,,,,,,,,,,,,,,,,,,,,,,,,,,,,,,,,,,,,,,,,,,,,,,,,,,,,,,,,,,,,,,,,,,,,,,,,,,,,,,,,,,,,,,,,,,,,,,,,,,,,,,
0,36,36,54,1,,615025cfceb970fd5d487a5d,62c53a773c3942f0dbd9d0fd,2022-07-06_09h42.25.438,Colour_Asymmetry_Pilot,2022.1.3,Win32,59.93407252,62c50e9c1127f2cd403a315f,,,,,,,,,,,,,,,,,,,,,,,,,,,,,,,,,,,,,,,,,,,,,,,,,,,,,,,,,,,,,,,,,,,,,,,,,,,,,,,,,,,,,,,,,,,,,,,,,,,,,,,,,,,,,,,,,,,,,,,,,,,,,,,,,,,,,,,,,,,,,,,,,,,,,,,,,,,,,,,,,,,
0,37,37,58,1,,615025cfceb970fd5d487a5d,62c53a773c3942f0dbd9d0fd,2022-07-06_09h42.25.438,Colour_Asymmetry_Pilot,2022.1.3,Win32,59.93407252,62c50e9c1127f2cd403a315f,,,,,,,,,,,,,,,,,,,,,,,,,,,,,,,,,,,,,,,,,,,,,,,,,,,,,,,,,,,,,,,,,,,,,,,,,,,,,,,,,,,,,,,,,,,,,,,,,,,,,,,,,,,,,,,,,,,,,,,,,,,,,,,,,,,,,,,,,,,,,,,,,,,,,,,,,,,,,,,,,,,
0,38,38,48,1,,615025cfceb970fd5d487a5d,62c53a773c3942f0dbd9d0fd,2022-07-06_09h42.25.438,Colour_Asymmetry_Pilot,2022.1.3,Win32,59.93407252,62c50e9c1127f2cd403a315f,,,,,,,,,,,,,,,,,,,,,,,,,,,,,,,,,,,,,,,,,,,,,,,,,,,,,,,,,,,,,,,,,,,,,,,,,,,,,,,,,,,,,,,,,,,,,,,,,,,,,,,,,,,,,,,,,,,,,,,,,,,,,,,,,,,,,,,,,,,,,,,,,,,,,,,,,,,,,,,,,,,
0,39,39,85,1,,615025cfceb970fd5d487a5d,62c53a773c3942f0dbd9d0fd,2022-07-06_09h42.25.438,Colour_Asymmetry_Pilot,2022.1.3,Win32,59.93407252,62c50e9c1127f2cd403a315f,,,,,,,,,,,,,,,,,,,,,,,,,,,,,,,,,,,,,,,,,,,,,,,,,,,,,,,,,,,,,,,,,,,,,,,,,,,,,,,,,,,,,,,,,,,,,,,,,,,,,,,,,,,,,,,,,,,,,,,,,,,,,,,,,,,,,,,,,,,,,,,,,,,,,,,,,,,,,,,,,,,
0,40,40,74,1,,615025cfceb970fd5d487a5d,62c53a773c3942f0dbd9d0fd,2022-07-06_09h42.25.438,Colour_Asymmetry_Pilot,2022.1.3,Win32,59.93407252,62c50e9c1127f2cd403a315f,,,,,,,,,,,,,,,,,,,,,,,,,,,,,,,,,,,,,,,,,,,,,,,,,,,,,,,,,,,,,,,,,,,,,,,,,,,,,,,,,,,,,,,,,,,,,,,,,,,,,,,,,,,,,,,,,,,,,,,,,,,,,,,,,,,,,,,,,,,,,,,,,,,,,,,,,,,,,,,,,,,
0,41,41,17,1,,615025cfceb970fd5d487a5d,62c53a773c3942f0dbd9d0fd,2022-07-06_09h42.25.438,Colour_Asymmetry_Pilot,2022.1.3,Win32,59.93407252,62c50e9c1127f2cd403a315f,,,,,,,,,,,,,,,,,,,,,,,,,,,,,,,,,,,,,,,,,,,,,,,,,,,,,,,,,,,,,,,,,,,,,,,,,,,,,,,,,,,,,,,,,,,,,,,,,,,,,,,,,,,,,,,,,,,,,,,,,,,,,,,,,,,,,,,,,,,,,,,,,,,,,,,,,,,,,,,,,,,
0,42,42,50,1,,615025cfceb970fd5d487a5d,62c53a773c3942f0dbd9d0fd,2022-07-06_09h42.25.438,Colour_Asymmetry_Pilot,2022.1.3,Win32,59.93407252,62c50e9c1127f2cd403a315f,,,,,,,,,,,,,,,,,,,,,,,,,,,,,,,,,,,,,,,,,,,,,,,,,,,,,,,,,,,,,,,,,,,,,,,,,,,,,,,,,,,,,,,,,,,,,,,,,,,,,,,,,,,,,,,,,,,,,,,,,,,,,,,,,,,,,,,,,,,,,,,,,,,,,,,,,,,,,,,,,,,
0,43,43,16,1,,615025cfceb970fd5d487a5d,62c53a773c3942f0dbd9d0fd,2022-07-06_09h42.25.438,Colour_Asymmetry_Pilot,2022.1.3,Win32,59.93407252,62c50e9c1127f2cd403a315f,,,,,,,,,,,,,,,,,,,,,,,,,,,,,,,,,,,,,,,,,,,,,,,,,,,,,,,,,,,,,,,,,,,,,,,,,,,,,,,,,,,,,,,,,,,,,,,,,,,,,,,,,,,,,,,,,,,,,,,,,,,,,,,,,,,,,,,,,,,,,,,,,,,,,,,,,,,,,,,,,,,
0,44,44,8,1,,615025cfceb970fd5d487a5d,62c53a773c3942f0dbd9d0fd,2022-07-06_09h42.25.438,Colour_Asymmetry_Pilot,2022.1.3,Win32,59.93407252,62c50e9c1127f2cd403a315f,,,,,,,,,,,,,,,,,,,,,,,,,,,,,,,,,,,,,,,,,,,,,,,,,,,,,,,,,,,,,,,,,,,,,,,,,,,,,,,,,,,,,,,,,,,,,,,,,,,,,,,,,,,,,,,,,,,,,,,,,,,,,,,,,,,,,,,,,,,,,,,,,,,,,,,,,,,,,,,,,,,
0,45,45,53,1,,615025cfceb970fd5d487a5d,62c53a773c3942f0dbd9d0fd,2022-07-06_09h42.25.438,Colour_Asymmetry_Pilot,2022.1.3,Win32,59.93407252,62c50e9c1127f2cd403a315f,,,,,,,,,,,,,,,,,,,,,,,,,,,,,,,,,,,,,,,,,,,,,,,,,,,,,,,,,,,,,,,,,,,,,,,,,,,,,,,,,,,,,,,,,,,,,,,,,,,,,,,,,,,,,,,,,,,,,,,,,,,,,,,,,,,,,,,,,,,,,,,,,,,,,,,,,,,,,,,,,,,
0,46,46,80,1,,615025cfceb970fd5d487a5d,62c53a773c3942f0dbd9d0fd,2022-07-06_09h42.25.438,Colour_Asymmetry_Pilot,2022.1.3,Win32,59.93407252,62c50e9c1127f2cd403a315f,,,,,,,,,,,,,,,,,,,,,,,,,,,,,,,,,,,,,,,,,,,,,,,,,,,,,,,,,,,,,,,,,,,,,,,,,,,,,,,,,,,,,,,,,,,,,,,,,,,,,,,,,,,,,,,,,,,,,,,,,,,,,,,,,,,,,,,,,,,,,,,,,,,,,,,,,,,,,,,,,,,
0,47,47,33,1,,615025cfceb970fd5d487a5d,62c53a773c3942f0dbd9d0fd,2022-07-06_09h42.25.438,Colour_Asymmetry_Pilot,2022.1.3,Win32,59.93407252,62c50e9c1127f2cd403a315f,,,,,,,,,,,,,,,,,,,,,,,,,,,,,,,,,,,,,,,,,,,,,,,,,,,,,,,,,,,,,,,,,,,,,,,,,,,,,,,,,,,,,,,,,,,,,,,,,,,,,,,,,,,,,,,,,,,,,,,,,,,,,,,,,,,,,,,,,,,,,,,,,,,,,,,,,,,,,,,,,,,
0,48,48,70,1,,615025cfceb970fd5d487a5d,62c53a773c3942f0dbd9d0fd,2022-07-06_09h42.25.438,Colour_Asymmetry_Pilot,2022.1.3,Win32,59.93407252,62c50e9c1127f2cd403a315f,,,,,,,,,,,,,,,,,,,,,,,,,,,,,,,,,,,,,,,,,,,,,,,,,,,,,,,,,,,,,,,,,,,,,,,,,,,,,,,,,,,,,,,,,,,,,,,,,,,,,,,,,,,,,,,,,,,,,,,,,,,,,,,,,,,,,,,,,,,,,,,,,,,,,,,,,,,,,,,,,,,
0,49,49,10,1,,615025cfceb970fd5d487a5d,62c53a773c3942f0dbd9d0fd,2022-07-06_09h42.25.438,Colour_Asymmetry_Pilot,2022.1.3,Win32,59.93407252,62c50e9c1127f2cd403a315f,,,,,,,,,,,,,,,,,,,,,,,,,,,,,,,,,,,,,,,,,,,,,,,,,,,,,,,,,,,,,,,,,,,,,,,,,,,,,,,,,,,,,,,,,,,,,,,,,,,,,,,,,,,,,,,,,,,,,,,,,,,,,,,,,,,,,,,,,,,,,,,,,,,,,,,,,,,,,,,,,,,
0,50,50,47,1,,615025cfceb970fd5d487a5d,62c53a773c3942f0dbd9d0fd,2022-07-06_09h42.25.438,Colour_Asymmetry_Pilot,2022.1.3,Win32,59.93407252,62c50e9c1127f2cd403a315f,,,,,,,,,,,,,,,,,,,,,,,,,,,,,,,,,,,,,,,,,,,,,,,,,,,,,,,,,,,,,,,,,,,,,,,,,,,,,,,,,,,,,,,,,,,,,,,,,,,,,,,,,,,,,,,,,,,,,,,,,,,,,,,,,,,,,,,,,,,,,,,,,,,,,,,,,,,,,,,,,,,
0,51,51,36,1,,615025cfceb970fd5d487a5d,62c53a773c3942f0dbd9d0fd,2022-07-06_09h42.25.438,Colour_Asymmetry_Pilot,2022.1.3,Win32,59.93407252,62c50e9c1127f2cd403a315f,,,,,,,,,,,,,,,,,,,,,,,,,,,,,,,,,,,,,,,,,,,,,,,,,,,,,,,,,,,,,,,,,,,,,,,,,,,,,,,,,,,,,,,,,,,,,,,,,,,,,,,,,,,,,,,,,,,,,,,,,,,,,,,,,,,,,,,,,,,,,,,,,,,,,,,,,,,,,,,,,,,
0,52,52,61,1,,615025cfceb970fd5d487a5d,62c53a773c3942f0dbd9d0fd,2022-07-06_09h42.25.438,Colour_Asymmetry_Pilot,2022.1.3,Win32,59.93407252,62c50e9c1127f2cd403a315f,,,,,,,,,,,,,,,,,,,,,,,,,,,,,,,,,,,,,,,,,,,,,,,,,,,,,,,,,,,,,,,,,,,,,,,,,,,,,,,,,,,,,,,,,,,,,,,,,,,,,,,,,,,,,,,,,,,,,,,,,,,,,,,,,,,,,,,,,,,,,,,,,,,,,,,,,,,,,,,,,,,
0,53,53,14,1,,615025cfceb970fd5d487a5d,62c53a773c3942f0dbd9d0fd,2022-07-06_09h42.25.438,Colour_Asymmetry_Pilot,2022.1.3,Win32,59.93407252,62c50e9c1127f2cd403a315f,,,,,,,,,,,,,,,,,,,,,,,,,,,,,,,,,,,,,,,,,,,,,,,,,,,,,,,,,,,,,,,,,,,,,,,,,,,,,,,,,,,,,,,,,,,,,,,,,,,,,,,,,,,,,,,,,,,,,,,,,,,,,,,,,,,,,,,,,,,,,,,,,,,,,,,,,,,,,,,,,,,
0,54,54,52,1,,615025cfceb970fd5d487a5d,62c53a773c3942f0dbd9d0fd,2022-07-06_09h42.25.438,Colour_Asymmetry_Pilot,2022.1.3,Win32,59.93407252,62c50e9c1127f2cd403a315f,,,,,,,,,,,,,,,,,,,,,,,,,,,,,,,,,,,,,,,,,,,,,,,,,,,,,,,,,,,,,,,,,,,,,,,,,,,,,,,,,,,,,,,,,,,,,,,,,,,,,,,,,,,,,,,,,,,,,,,,,,,,,,,,,,,,,,,,,,,,,,,,,,,,,,,,,,,,,,,,,,,
0,55,55,79,1,,615025cfceb970fd5d487a5d,62c53a773c3942f0dbd9d0fd,2022-07-06_09h42.25.438,Colour_Asymmetry_Pilot,2022.1.3,Win32,59.93407252,62c50e9c1127f2cd403a315f,,,,,,,,,,,,,,,,,,,,,,,,,,,,,,,,,,,,,,,,,,,,,,,,,,,,,,,,,,,,,,,,,,,,,,,,,,,,,,,,,,,,,,,,,,,,,,,,,,,,,,,,,,,,,,,,,,,,,,,,,,,,,,,,,,,,,,,,,,,,,,,,,,,,,,,,,,,,,,,,,,,
0,56,56,44,1,,615025cfceb970fd5d487a5d,62c53a773c3942f0dbd9d0fd,2022-07-06_09h42.25.438,Colour_Asymmetry_Pilot,2022.1.3,Win32,59.93407252,62c50e9c1127f2cd403a315f,,,,,,,,,,,,,,,,,,,,,,,,,,,,,,,,,,,,,,,,,,,,,,,,,,,,,,,,,,,,,,,,,,,,,,,,,,,,,,,,,,,,,,,,,,,,,,,,,,,,,,,,,,,,,,,,,,,,,,,,,,,,,,,,,,,,,,,,,,,,,,,,,,,,,,,,,,,,,,,,,,,
0,57,57,88,1,,615025cfceb970fd5d487a5d,62c53a773c3942f0dbd9d0fd,2022-07-06_09h42.25.438,Colour_Asymmetry_Pilot,2022.1.3,Win32,59.93407252,62c50e9c1127f2cd403a315f,,,,,,,,,,,,,,,,,,,,,,,,,,,,,,,,,,,,,,,,,,,,,,,,,,,,,,,,,,,,,,,,,,,,,,,,,,,,,,,,,,,,,,,,,,,,,,,,,,,,,,,,,,,,,,,,,,,,,,,,,,,,,,,,,,,,,,,,,,,,,,,,,,,,,,,,,,,,,,,,,,,
0,58,58,84,1,,615025cfceb970fd5d487a5d,62c53a773c3942f0dbd9d0fd,2022-07-06_09h42.25.438,Colour_Asymmetry_Pilot,2022.1.3,Win32,59.93407252,62c50e9c1127f2cd403a315f,,,,,,,,,,,,,,,,,,,,,,,,,,,,,,,,,,,,,,,,,,,,,,,,,,,,,,,,,,,,,,,,,,,,,,,,,,,,,,,,,,,,,,,,,,,,,,,,,,,,,,,,,,,,,,,,,,,,,,,,,,,,,,,,,,,,,,,,,,,,,,,,,,,,,,,,,,,,,,,,,,,
0,59,59,55,1,,615025cfceb970fd5d487a5d,62c53a773c3942f0dbd9d0fd,2022-07-06_09h42.25.438,Colour_Asymmetry_Pilot,2022.1.3,Win32,59.93407252,62c50e9c1127f2cd403a315f,,,,,,,,,,,,,,,,,,,,,,,,,,,,,,,,,,,,,,,,,,,,,,,,,,,,,,,,,,,,,,,,,,,,,,,,,,,,,,,,,,,,,,,,,,,,,,,,,,,,,,,,,,,,,,,,,,,,,,,,,,,,,,,,,,,,,,,,,,,,,,,,,,,,,,,,,,,,,,,,,,,
0,60,60,46,1,,615025cfceb970fd5d487a5d,62c53a773c3942f0dbd9d0fd,2022-07-06_09h42.25.438,Colour_Asymmetry_Pilot,2022.1.3,Win32,59.93407252,62c50e9c1127f2cd403a315f,,,,,,,,,,,,,,,,,,,,,,,,,,,,,,,,,,,,,,,,,,,,,,,,,,,,,,,,,,,,,,,,,,,,,,,,,,,,,,,,,,,,,,,,,,,,,,,,,,,,,,,,,,,,,,,,,,,,,,,,,,,,,,,,,,,,,,,,,,,,,,,,,,,,,,,,,,,,,,,,,,,
0,61,61,22,1,,615025cfceb970fd5d487a5d,62c53a773c3942f0dbd9d0fd,2022-07-06_09h42.25.438,Colour_Asymmetry_Pilot,2022.1.3,Win32,59.93407252,62c50e9c1127f2cd403a315f,,,,,,,,,,,,,,,,,,,,,,,,,,,,,,,,,,,,,,,,,,,,,,,,,,,,,,,,,,,,,,,,,,,,,,,,,,,,,,,,,,,,,,,,,,,,,,,,,,,,,,,,,,,,,,,,,,,,,,,,,,,,,,,,,,,,,,,,,,,,,,,,,,,,,,,,,,,,,,,,,,,
0,62,62,73,1,,615025cfceb970fd5d487a5d,62c53a773c3942f0dbd9d0fd,2022-07-06_09h42.25.438,Colour_Asymmetry_Pilot,2022.1.3,Win32,59.93407252,62c50e9c1127f2cd403a315f,,,,,,,,,,,,,,,,,,,,,,,,,,,,,,,,,,,,,,,,,,,,,,,,,,,,,,,,,,,,,,,,,,,,,,,,,,,,,,,,,,,,,,,,,,,,,,,,,,,,,,,,,,,,,,,,,,,,,,,,,,,,,,,,,,,,,,,,,,,,,,,,,,,,,,,,,,,,,,,,,,,
0,63,63,23,1,,615025cfceb970fd5d487a5d,62c53a773c3942f0dbd9d0fd,2022-07-06_09h42.25.438,Colour_Asymmetry_Pilot,2022.1.3,Win32,59.93407252,62c50e9c1127f2cd403a315f,,,,,,,,,,,,,,,,,,,,,,,,,,,,,,,,,,,,,,,,,,,,,,,,,,,,,,,,,,,,,,,,,,,,,,,,,,,,,,,,,,,,,,,,,,,,,,,,,,,,,,,,,,,,,,,,,,,,,,,,,,,,,,,,,,,,,,,,,,,,,,,,,,,,,,,,,,,,,,,,,,,
0,64,64,62,1,,615025cfceb970fd5d487a5d,62c53a773c3942f0dbd9d0fd,2022-07-06_09h42.25.438,Colour_Asymmetry_Pilot,2022.1.3,Win32,59.93407252,62c50e9c1127f2cd403a315f,,,,,,,,,,,,,,,,,,,,,,,,,,,,,,,,,,,,,,,,,,,,,,,,,,,,,,,,,,,,,,,,,,,,,,,,,,,,,,,,,,,,,,,,,,,,,,,,,,,,,,,,,,,,,,,,,,,,,,,,,,,,,,,,,,,,,,,,,,,,,,,,,,,,,,,,,,,,,,,,,,,
0,65,65,78,1,,615025cfceb970fd5d487a5d,62c53a773c3942f0dbd9d0fd,2022-07-06_09h42.25.438,Colour_Asymmetry_Pilot,2022.1.3,Win32,59.93407252,62c50e9c1127f2cd403a315f,,,,,,,,,,,,,,,,,,,,,,,,,,,,,,,,,,,,,,,,,,,,,,,,,,,,,,,,,,,,,,,,,,,,,,,,,,,,,,,,,,,,,,,,,,,,,,,,,,,,,,,,,,,,,,,,,,,,,,,,,,,,,,,,,,,,,,,,,,,,,,,,,,,,,,,,,,,,,,,,,,,
0,66,66,76,1,,615025cfceb970fd5d487a5d,62c53a773c3942f0dbd9d0fd,2022-07-06_09h42.25.438,Colour_Asymmetry_Pilot,2022.1.3,Win32,59.93407252,62c50e9c1127f2cd403a315f,,,,,,,,,,,,,,,,,,,,,,,,,,,,,,,,,,,,,,,,,,,,,,,,,,,,,,,,,,,,,,,,,,,,,,,,,,,,,,,,,,,,,,,,,,,,,,,,,,,,,,,,,,,,,,,,,,,,,,,,,,,,,,,,,,,,,,,,,,,,,,,,,,,,,,,,,,,,,,,,,,,
0,67,67,75,1,,615025cfceb970fd5d487a5d,62c53a773c3942f0dbd9d0fd,2022-07-06_09h42.25.438,Colour_Asymmetry_Pilot,2022.1.3,Win32,59.93407252,62c50e9c1127f2cd403a315f,,,,,,,,,,,,,,,,,,,,,,,,,,,,,,,,,,,,,,,,,,,,,,,,,,,,,,,,,,,,,,,,,,,,,,,,,,,,,,,,,,,,,,,,,,,,,,,,,,,,,,,,,,,,,,,,,,,,,,,,,,,,,,,,,,,,,,,,,,,,,,,,,,,,,,,,,,,,,,,,,,,
0,68,68,65,1,,615025cfceb970fd5d487a5d,62c53a773c3942f0dbd9d0fd,2022-07-06_09h42.25.438,Colour_Asymmetry_Pilot,2022.1.3,Win32,59.93407252,62c50e9c1127f2cd403a315f,,,,,,,,,,,,,,,,,,,,,,,,,,,,,,,,,,,,,,,,,,,,,,,,,,,,,,,,,,,,,,,,,,,,,,,,,,,,,,,,,,,,,,,,,,,,,,,,,,,,,,,,,,,,,,,,,,,,,,,,,,,,,,,,,,,,,,,,,,,,,,,,,,,,,,,,,,,,,,,,,,,
0,69,69,25,1,,615025cfceb970fd5d487a5d,62c53a773c3942f0dbd9d0fd,2022-07-06_09h42.25.438,Colour_Asymmetry_Pilot,2022.1.3,Win32,59.93407252,62c50e9c1127f2cd403a315f,,,,,,,,,,,,,,,,,,,,,,,,,,,,,,,,,,,,,,,,,,,,,,,,,,,,,,,,,,,,,,,,,,,,,,,,,,,,,,,,,,,,,,,,,,,,,,,,,,,,,,,,,,,,,,,,,,,,,,,,,,,,,,,,,,,,,,,,,,,,,,,,,,,,,,,,,,,,,,,,,,,
0,70,70,45,1,,615025cfceb970fd5d487a5d,62c53a773c3942f0dbd9d0fd,2022-07-06_09h42.25.438,Colour_Asymmetry_Pilot,2022.1.3,Win32,59.93407252,62c50e9c1127f2cd403a315f,,,,,,,,,,,,,,,,,,,,,,,,,,,,,,,,,,,,,,,,,,,,,,,,,,,,,,,,,,,,,,,,,,,,,,,,,,,,,,,,,,,,,,,,,,,,,,,,,,,,,,,,,,,,,,,,,,,,,,,,,,,,,,,,,,,,,,,,,,,,,,,,,,,,,,,,,,,,,,,,,,,
0,71,71,86,1,,615025cfceb970fd5d487a5d,62c53a773c3942f0dbd9d0fd,2022-07-06_09h42.25.438,Colour_Asymmetry_Pilot,2022.1.3,Win32,59.93407252,62c50e9c1127f2cd403a315f,,,,,,,,,,,,,,,,,,,,,,,,,,,,,,,,,,,,,,,,,,,,,,,,,,,,,,,,,,,,,,,,,,,,,,,,,,,,,,,,,,,,,,,,,,,,,,,,,,,,,,,,,,,,,,,,,,,,,,,,,,,,,,,,,,,,,,,,,,,,,,,,,,,,,,,,,,,,,,,,,,,
0,72,72,42,1,,615025cfceb970fd5d487a5d,62c53a773c3942f0dbd9d0fd,2022-07-06_09h42.25.438,Colour_Asymmetry_Pilot,2022.1.3,Win32,59.93407252,62c50e9c1127f2cd403a315f,,,,,,,,,,,,,,,,,,,,,,,,,,,,,,,,,,,,,,,,,,,,,,,,,,,,,,,,,,,,,,,,,,,,,,,,,,,,,,,,,,,,,,,,,,,,,,,,,,,,,,,,,,,,,,,,,,,,,,,,,,,,,,,,,,,,,,,,,,,,,,,,,,,,,,,,,,,,,,,,,,,
0,73,73,3,1,,615025cfceb970fd5d487a5d,62c53a773c3942f0dbd9d0fd,2022-07-06_09h42.25.438,Colour_Asymmetry_Pilot,2022.1.3,Win32,59.93407252,62c50e9c1127f2cd403a315f,,,,,,,,,,,,,,,,,,,,,,,,,,,,,,,,,,,,,,,,,,,,,,,,,,,,,,,,,,,,,,,,,,,,,,,,,,,,,,,,,,,,,,,,,,,,,,,,,,,,,,,,,,,,,,,,,,,,,,,,,,,,,,,,,,,,,,,,,,,,,,,,,,,,,,,,,,,,,,,,,,,
0,74,74,49,1,,615025cfceb970fd5d487a5d,62c53a773c3942f0dbd9d0fd,2022-07-06_09h42.25.438,Colour_Asymmetry_Pilot,2022.1.3,Win32,59.93407252,62c50e9c1127f2cd403a315f,,,,,,,,,,,,,,,,,,,,,,,,,,,,,,,,,,,,,,,,,,,,,,,,,,,,,,,,,,,,,,,,,,,,,,,,,,,,,,,,,,,,,,,,,,,,,,,,,,,,,,,,,,,,,,,,,,,,,,,,,,,,,,,,,,,,,,,,,,,,,,,,,,,,,,,,,,,,,,,,,,,
0,75,75,1,1,,615025cfceb970fd5d487a5d,62c53a773c3942f0dbd9d0fd,2022-07-06_09h42.25.438,Colour_Asymmetry_Pilot,2022.1.3,Win32,59.93407252,62c50e9c1127f2cd403a315f,,,,,,,,,,,,,,,,,,,,,,,,,,,,,,,,,,,,,,,,,,,,,,,,,,,,,,,,,,,,,,,,,,,,,,,,,,,,,,,,,,,,,,,,,,,,,,,,,,,,,,,,,,,,,,,,,,,,,,,,,,,,,,,,,,,,,,,,,,,,,,,,,,,,,,,,,,,,,,,,,,,
0,76,76,72,1,,615025cfceb970fd5d487a5d,62c53a773c3942f0dbd9d0fd,2022-07-06_09h42.25.438,Colour_Asymmetry_Pilot,2022.1.3,Win32,59.93407252,62c50e9c1127f2cd403a315f,,,,,,,,,,,,,,,,,,,,,,,,,,,,,,,,,,,,,,,,,,,,,,,,,,,,,,,,,,,,,,,,,,,,,,,,,,,,,,,,,,,,,,,,,,,,,,,,,,,,,,,,,,,,,,,,,,,,,,,,,,,,,,,,,,,,,,,,,,,,,,,,,,,,,,,,,,,,,,,,,,,
0,77,77,39,1,,615025cfceb970fd5d487a5d,62c53a773c3942f0dbd9d0fd,2022-07-06_09h42.25.438,Colour_Asymmetry_Pilot,2022.1.3,Win32,59.93407252,62c50e9c1127f2cd403a315f,,,,,,,,,,,,,,,,,,,,,,,,,,,,,,,,,,,,,,,,,,,,,,,,,,,,,,,,,,,,,,,,,,,,,,,,,,,,,,,,,,,,,,,,,,,,,,,,,,,,,,,,,,,,,,,,,,,,,,,,,,,,,,,,,,,,,,,,,,,,,,,,,,,,,,,,,,,,,,,,,,,
0,78,78,12,1,,615025cfceb970fd5d487a5d,62c53a773c3942f0dbd9d0fd,2022-07-06_09h42.25.438,Colour_Asymmetry_Pilot,2022.1.3,Win32,59.93407252,62c50e9c1127f2cd403a315f,,,,,,,,,,,,,,,,,,,,,,,,,,,,,,,,,,,,,,,,,,,,,,,,,,,,,,,,,,,,,,,,,,,,,,,,,,,,,,,,,,,,,,,,,,,,,,,,,,,,,,,,,,,,,,,,,,,,,,,,,,,,,,,,,,,,,,,,,,,,,,,,,,,,,,,,,,,,,,,,,,,
0,79,79,5,1,,615025cfceb970fd5d487a5d,62c53a773c3942f0dbd9d0fd,2022-07-06_09h42.25.438,Colour_Asymmetry_Pilot,2022.1.3,Win32,59.93407252,62c50e9c1127f2cd403a315f,,,,,,,,,,,,,,,,,,,,,,,,,,,,,,,,,,,,,,,,,,,,,,,,,,,,,,,,,,,,,,,,,,,,,,,,,,,,,,,,,,,,,,,,,,,,,,,,,,,,,,,,,,,,,,,,,,,,,,,,,,,,,,,,,,,,,,,,,,,,,,,,,,,,,,,,,,,,,,,,,,,
0,80,80,43,1,,615025cfceb970fd5d487a5d,62c53a773c3942f0dbd9d0fd,2022-07-06_09h42.25.438,Colour_Asymmetry_Pilot,2022.1.3,Win32,59.93407252,62c50e9c1127f2cd403a315f,,,,,,,,,,,,,,,,,,,,,,,,,,,,,,,,,,,,,,,,,,,,,,,,,,,,,,,,,,,,,,,,,,,,,,,,,,,,,,,,,,,,,,,,,,,,,,,,,,,,,,,,,,,,,,,,,,,,,,,,,,,,,,,,,,,,,,,,,,,,,,,,,,,,,,,,,,,,,,,,,,,
0,81,81,9,1,,615025cfceb970fd5d487a5d,62c53a773c3942f0dbd9d0fd,2022-07-06_09h42.25.438,Colour_Asymmetry_Pilot,2022.1.3,Win32,59.93407252,62c50e9c1127f2cd403a315f,,,,,,,,,,,,,,,,,,,,,,,,,,,,,,,,,,,,,,,,,,,,,,,,,,,,,,,,,,,,,,,,,,,,,,,,,,,,,,,,,,,,,,,,,,,,,,,,,,,,,,,,,,,,,,,,,,,,,,,,,,,,,,,,,,,,,,,,,,,,,,,,,,,,,,,,,,,,,,,,,,,
0,82,82,38,1,,615025cfceb970fd5d487a5d,62c53a773c3942f0dbd9d0fd,2022-07-06_09h42.25.438,Colour_Asymmetry_Pilot,2022.1.3,Win32,59.93407252,62c50e9c1127f2cd403a315f,,,,,,,,,,,,,,,,,,,,,,,,,,,,,,,,,,,,,,,,,,,,,,,,,,,,,,,,,,,,,,,,,,,,,,,,,,,,,,,,,,,,,,,,,,,,,,,,,,,,,,,,,,,,,,,,,,,,,,,,,,,,,,,,,,,,,,,,,,,,,,,,,,,,,,,,,,,,,,,,,,,
0,83,83,21,1,,615025cfceb970fd5d487a5d,62c53a773c3942f0dbd9d0fd,2022-07-06_09h42.25.438,Colour_Asymmetry_Pilot,2022.1.3,Win32,59.93407252,62c50e9c1127f2cd403a315f,,,,,,,,,,,,,,,,,,,,,,,,,,,,,,,,,,,,,,,,,,,,,,,,,,,,,,,,,,,,,,,,,,,,,,,,,,,,,,,,,,,,,,,,,,,,,,,,,,,,,,,,,,,,,,,,,,,,,,,,,,,,,,,,,,,,,,,,,,,,,,,,,,,,,,,,,,,,,,,,,,,
0,84,84,89,1,,615025cfceb970fd5d487a5d,62c53a773c3942f0dbd9d0fd,2022-07-06_09h42.25.438,Colour_Asymmetry_Pilot,2022.1.3,Win32,59.93407252,62c50e9c1127f2cd403a315f,,,,,,,,,,,,,,,,,,,,,,,,,,,,,,,,,,,,,,,,,,,,,,,,,,,,,,,,,,,,,,,,,,,,,,,,,,,,,,,,,,,,,,,,,,,,,,,,,,,,,,,,,,,,,,,,,,,,,,,,,,,,,,,,,,,,,,,,,,,,,,,,,,,,,,,,,,,,,,,,,,,
0,85,85,83,1,,615025cfceb970fd5d487a5d,62c53a773c3942f0dbd9d0fd,2022-07-06_09h42.25.438,Colour_Asymmetry_Pilot,2022.1.3,Win32,59.93407252,62c50e9c1127f2cd403a315f,,,,,,,,,,,,,,,,,,,,,,,,,,,,,,,,,,,,,,,,,,,,,,,,,,,,,,,,,,,,,,,,,,,,,,,,,,,,,,,,,,,,,,,,,,,,,,,,,,,,,,,,,,,,,,,,,,,,,,,,,,,,,,,,,,,,,,,,,,,,,,,,,,,,,,,,,,,,,,,,,,,
0,86,86,64,1,,615025cfceb970fd5d487a5d,62c53a773c3942f0dbd9d0fd,2022-07-06_09h42.25.438,Colour_Asymmetry_Pilot,2022.1.3,Win32,59.93407252,62c50e9c1127f2cd403a315f,,,,,,,,,,,,,,,,,,,,,,,,,,,,,,,,,,,,,,,,,,,,,,,,,,,,,,,,,,,,,,,,,,,,,,,,,,,,,,,,,,,,,,,,,,,,,,,,,,,,,,,,,,,,,,,,,,,,,,,,,,,,,,,,,,,,,,,,,,,,,,,,,,,,,,,,,,,,,,,,,,,
0,87,87,6,1,,615025cfceb970fd5d487a5d,62c53a773c3942f0dbd9d0fd,2022-07-06_09h42.25.438,Colour_Asymmetry_Pilot,2022.1.3,Win32,59.93407252,62c50e9c1127f2cd403a315f,,,,,,,,,,,,,,,,,,,,,,,,,,,,,,,,,,,,,,,,,,,,,,,,,,,,,,,,,,,,,,,,,,,,,,,,,,,,,,,,,,,,,,,,,,,,,,,,,,,,,,,,,,,,,,,,,,,,,,,,,,,,,,,,,,,,,,,,,,,,,,,,,,,,,,,,,,,,,,,,,,,
0,88,88,40,1,,615025cfceb970fd5d487a5d,62c53a773c3942f0dbd9d0fd,2022-07-06_09h42.25.438,Colour_Asymmetry_Pilot,2022.1.3,Win32,59.93407252,62c50e9c1127f2cd403a315f,,,,,,,,,,,,,,,,,,,,,,,,,,,,,,,,,,,,,,,,,,,,,,,,,,,,,,,,,,,,,,,,,,,,,,,,,,,,,,,,,,,,,,,,,,,,,,,,,,,,,,,,,,,,,,,,,,,,,,,,,,,,,,,,,,,,,,,,,,,,,,,,,,,,,,,,,,,,,,,,,,,
0,89,89,28,1,,615025cfceb970fd5d487a5d,62c53a773c3942f0dbd9d0fd,2022-07-06_09h42.25.438,Colour_Asymmetry_Pilot,2022.1.3,Win32,59.93407252,62c50e9c1127f2cd403a315f,,,,,,,,,,,,,,,,,,,,,,,,,,,,,,,,,,,,,,,,,,,,,,,,,,,,,,,,,,,,,,,,,,,,,,,,,,,,,,,,,,,,,,,,,,,,,,,,,,,,,,,,,,,,,,,,,,,,,,,,,,,,,,,,,,,,,,,,,,,,,,,,,,,,,,,,,,,,,,,,,,,
0,90,90,91,1,,615025cfceb970fd5d487a5d,62c53a773c3942f0dbd9d0fd,2022-07-06_09h42.25.438,Colour_Asymmetry_Pilot,2022.1.3,Win32,59.93407252,62c50e9c1127f2cd403a315f,,,,,,,,,,,,,,,,,,,,,,,,,,,,,,,,,,,,,,,,,,,,,,,,,,,,,,,,,,,,,,,,,,,,,,,,,,,,,,,,,,,,,,,,,,,,,,,,,,,,,,,,,,,,,,,,,,,,,,,,,,,,,,,,,,,,,,,,,,,,,,,,,,,,,,,,,,,,,,,,,,,
0,91,91,27,1,,615025cfceb970fd5d487a5d,62c53a773c3942f0dbd9d0fd,2022-07-06_09h42.25.438,Colour_Asymmetry_Pilot,2022.1.3,Win32,59.93407252,62c50e9c1127f2cd403a315f,,,,,,,,,,,,,,,,,,,,,,,,,,,,,,,,,,,,,,,,,,,,,,,,,,,,,,,,,,,,,,,,,,,,,,,,,,,,,,,,,,,,,,,,,,,,,,,,,,,,,,,,,,,,,,,,,,,,,,,,,,,,,,,,,,,,,,,,,,,,,,,,,,,,,,,,,,,,,,,,,,,
0,92,92,19,1,,615025cfceb970fd5d487a5d,62c53a773c3942f0dbd9d0fd,2022-07-06_09h42.25.438,Colour_Asymmetry_Pilot,2022.1.3,Win32,59.93407252,62c50e9c1127f2cd403a315f,,,,,,,,,,,,,,,,,,,,,,,,,,,,,,,,,,,,,,,,,,,,,,,,,,,,,,,,,,,,,,,,,,,,,,,,,,,,,,,,,,,,,,,,,,,,,,,,,,,,,,,,,,,,,,,,,,,,,,,,,,,,,,,,,,,,,,,,,,,,,,,,,,,,,,,,,,,,,,,,,,,
,,,,,,615025cfceb970fd5d487a5d,62c53a773c3942f0dbd9d0fd,2022-07-06_09h42.25.438,Colour_Asymmetry_Pilot,2022.1.3,Win32,59.93407252,62c50e9c1127f2cd403a315f,0,0,0,148,1,threeone,,,,,,,,,,,,,,,,,,,,,,,,,,,,,,,,,,,,,,,,,,,,,,,,,,,,,,,,,,,,,,,,,,,,,,,,,,,,,,,,,,,,,,,,,,,,,,,,,,,,,,,,,,,,,,,,,,,,,,,,,,,,,,,,,,,,,,,,,,,,,,,,,,,,,,,,,,,,,
,,,,,,615025cfceb970fd5d487a5d,62c53a773c3942f0dbd9d0fd,2022-07-06_09h42.25.438,Colour_Asymmetry_Pilot,2022.1.3,Win32,59.93407252,62c50e9c1127f2cd403a315f,0,1,1,121,1,onethree,,,,,,,,,,,,,,,,,,,,,,,,,,,,,,,,,,,,,,,,,,,,,,,,,,,,,,,,,,,,,,,,,,,,,,,,,,,,,,,,,,,,,,,,,,,,,,,,,,,,,,,,,,,,,,,,,,,,,,,,,,,,,,,,,,,,,,,,,,,,,,,,,,,,,,,,,,,,,
,,,,,,615025cfceb970fd5d487a5d,62c53a773c3942f0dbd9d0fd,2022-07-06_09h42.25.438,Colour_Asymmetry_Pilot,2022.1.3,Win32,59.93407252,62c50e9c1127f2cd403a315f,0,2,2,149,1,threefour,,,,,,,,,,,,,,,,,,,,,,,,,,,,,,,,,,,,,,,,,,,,,,,,,,,,,,,,,,,,,,,,,,,,,,,,,,,,,,,,,,,,,,,,,,,,,,,,,,,,,,,,,,,,,,,,,,,,,,,,,,,,,,,,,,,,,,,,,,,,,,,,,,,,,,,,,,,,,
,,,,,,615025cfceb970fd5d487a5d,62c53a773c3942f0dbd9d0fd,2022-07-06_09h42.25.438,Colour_Asymmetry_Pilot,2022.1.3,Win32,59.93407252,62c50e9c1127f2cd403a315f,0,3,3,62,1,fourtwo,,,,,,,,,,,,,,,,,,,,,,,,,,,,,,,,,,,,,,,,,,,,,,,,,,,,,,,,,,,,,,,,,,,,,,,,,,,,,,,,,,,,,,,,,,,,,,,,,,,,,,,,,,,,,,,,,,,,,,,,,,,,,,,,,,,,,,,,,,,,,,,,,,,,,,,,,,,,,
,,,,,,615025cfceb970fd5d487a5d,62c53a773c3942f0dbd9d0fd,2022-07-06_09h42.25.438,Colour_Asymmetry_Pilot,2022.1.3,Win32,59.93407252,62c50e9c1127f2cd403a315f,0,4,4,134,1,fourtwo,,,,,,,,,,,,,,,,,,,,,,,,,,,,,,,,,,,,,,,,,,,,,,,,,,,,,,,,,,,,,,,,,,,,,,,,,,,,,,,,,,,,,,,,,,,,,,,,,,,,,,,,,,,,,,,,,,,,,,,,,,,,,,,,,,,,,,,,,,,,,,,,,,,,,,,,,,,,,
,,,,,,615025cfceb970fd5d487a5d,62c53a773c3942f0dbd9d0fd,2022-07-06_09h42.25.438,Colour_Asymmetry_Pilot,2022.1.3,Win32,59.93407252,62c50e9c1127f2cd403a315f,0,5,5,64,1,onetwo,,,,,,,,,,,,,,,,,,,,,,,,,,,,,,,,,,,,,,,,,,,,,,,,,,,,,,,,,,,,,,,,,,,,,,,,,,,,,,,,,,,,,,,,,,,,,,,,,,,,,,,,,,,,,,,,,,,,,,,,,,,,,,,,,,,,,,,,,,,,,,,,,,,,,,,,,,,,,
,,,,,,615025cfceb970fd5d487a5d,62c53a773c3942f0dbd9d0fd,2022-07-06_09h42.25.438,Colour_Asymmetry_Pilot,2022.1.3,Win32,59.93407252,62c50e9c1127f2cd403a315f,0,6,6,0,1,onetwo,,,,,,,,,,,,,,,,,,,,,,,,,,,,,,,,,,,,,,,,,,,,,,,,,,,,,,,,,,,,,,,,,,,,,,,,,,,,,,,,,,,,,,,,,,,,,,,,,,,,,,,,,,,,,,,,,,,,,,,,,,,,,,,,,,,,,,,,,,,,,,,,,,,,,,,,,,,,,
,,,,,,615025cfceb970fd5d487a5d,62c53a773c3942f0dbd9d0fd,2022-07-06_09h42.25.438,Colour_Asymmetry_Pilot,2022.1.3,Win32,59.93407252,62c50e9c1127f2cd403a315f,0,7,7,75,1,twofour,,,,,,,,,,,,,,,,,,,,,,,,,,,,,,,,,,,,,,,,,,,,,,,,,,,,,,,,,,,,,,,,,,,,,,,,,,,,,,,,,,,,,,,,,,,,,,,,,,,,,,,,,,,,,,,,,,,,,,,,,,,,,,,,,,,,,,,,,,,,,,,,,,,,,,,,,,,,,
,,,,,,615025cfceb970fd5d487a5d,62c53a773c3942f0dbd9d0fd,2022-07-06_09h42.25.438,Colour_Asymmetry_Pilot,2022.1.3,Win32,59.93407252,62c50e9c1127f2cd403a315f,0,8,8,27,1,twofour,,,,,,,,,,,,,,,,,,,,,,,,,,,,,,,,,,,,,,,,,,,,,,,,,,,,,,,,,,,,,,,,,,,,,,,,,,,,,,,,,,,,,,,,,,,,,,,,,,,,,,,,,,,,,,,,,,,,,,,,,,,,,,,,,,,,,,,,,,,,,,,,,,,,,,,,,,,,,
,,,,,,615025cfceb970fd5d487a5d,62c53a773c3942f0dbd9d0fd,2022-07-06_09h42.25.438,Colour_Asymmetry_Pilot,2022.1.3,Win32,59.93407252,62c50e9c1127f2cd403a315f,0,9,9,35,1,twofour,,,,,,,,,,,,,,,,,,,,,,,,,,,,,,,,,,,,,,,,,,,,,,,,,,,,,,,,,,,,,,,,,,,,,,,,,,,,,,,,,,,,,,,,,,,,,,,,,,,,,,,,,,,,,,,,,,,,,,,,,,,,,,,,,,,,,,,,,,,,,,,,,,,,,,,,,,,,,
,,,,,,615025cfceb970fd5d487a5d,62c53a773c3942f0dbd9d0fd,2022-07-06_09h42.25.438,Colour_Asymmetry_Pilot,2022.1.3,Win32,59.93407252,62c50e9c1127f2cd403a315f,0,10,10,14,1,fourtwo,,,,,,,,,,,,,,,,,,,,,,,,,,,,,,,,,,,,,,,,,,,,,,,,,,,,,,,,,,,,,,,,,,,,,,,,,,,,,,,,,,,,,,,,,,,,,,,,,,,,,,,,,,,,,,,,,,,,,,,,,,,,,,,,,,,,,,,,,,,,,,,,,,,,,,,,,,,,,
,,,,,,615025cfceb970fd5d487a5d,62c53a773c3942f0dbd9d0fd,2022-07-06_09h42.25.438,Colour_Asymmetry_Pilot,2022.1.3,Win32,59.93407252,62c50e9c1127f2cd403a315f,0,11,11,79,1,fourthree,,,,,,,,,,,,,,,,,,,,,,,,,,,,,,,,,,,,,,,,,,,,,,,,,,,,,,,,,,,,,,,,,,,,,,,,,,,,,,,,,,,,,,,,,,,,,,,,,,,,,,,,,,,,,,,,,,,,,,,,,,,,,,,,,,,,,,,,,,,,,,,,,,,,,,,,,,,,,
,,,,,,615025cfceb970fd5d487a5d,62c53a773c3942f0dbd9d0fd,2022-07-06_09h42.25.438,Colour_Asymmetry_Pilot,2022.1.3,Win32,59.93407252,62c50e9c1127f2cd403a315f,0,12,12,101,1,threefour,,,,,,,,,,,,,,,,,,,,,,,,,,,,,,,,,,,,,,,,,,,,,,,,,,,,,,,,,,,,,,,,,,,,,,,,,,,,,,,,,,,,,,,,,,,,,,,,,,,,,,,,,,,,,,,,,,,,,,,,,,,,,,,,,,,,,,,,,,,,,,,,,,,,,,,,,,,,,
,,,,,,615025cfceb970fd5d487a5d,62c53a773c3942f0dbd9d0fd,2022-07-06_09h42.25.438,Colour_Asymmetry_Pilot,2022.1.3,Win32,59.93407252,62c50e9c1127f2cd403a315f,0,13,13,21,1,threefour,,,,,,,,,,,,,,,,,,,,,,,,,,,,,,,,,,,,,,,,,,,,,,,,,,,,,,,,,,,,,,,,,,,,,,,,,,,,,,,,,,,,,,,,,,,,,,,,,,,,,,,,,,,,,,,,,,,,,,,,,,,,,,,,,,,,,,,,,,,,,,,,,,,,,,,,,,,,,
,,,,,,615025cfceb970fd5d487a5d,62c53a773c3942f0dbd9d0fd,2022-07-06_09h42.25.438,Colour_Asymmetry_Pilot,2022.1.3,Win32,59.93407252,62c50e9c1127f2cd403a315f,0,14,14,31,1,fourthree,,,,,,,,,,,,,,,,,,,,,,,,,,,,,,,,,,,,,,,,,,,,,,,,,,,,,,,,,,,,,,,,,,,,,,,,,,,,,,,,,,,,,,,,,,,,,,,,,,,,,,,,,,,,,,,,,,,,,,,,,,,,,,,,,,,,,,,,,,,,,,,,,,,,,,,,,,,,,
,,,,,,615025cfceb970fd5d487a5d,62c53a773c3942f0dbd9d0fd,2022-07-06_09h42.25.438,Colour_Asymmetry_Pilot,2022.1.3,Win32,59.93407252,62c50e9c1127f2cd403a315f,0,15,15,66,1,twoone,,,,,,,,,,,,,,,,,,,,,,,,,,,,,,,,,,,,,,,,,,,,,,,,,,,,,,,,,,,,,,,,,,,,,,,,,,,,,,,,,,,,,,,,,,,,,,,,,,,,,,,,,,,,,,,,,,,,,,,,,,,,,,,,,,,,,,,,,,,,,,,,,,,,,,,,,,,,,
,,,,,,615025cfceb970fd5d487a5d,62c53a773c3942f0dbd9d0fd,2022-07-06_09h42.25.438,Colour_Asymmetry_Pilot,2022.1.3,Win32,59.93407252,62c50e9c1127f2cd403a315f,0,16,16,53,1,threefour,,,,,,,,,,,,,,,,,,,,,,,,,,,,,,,,,,,,,,,,,,,,,,,,,,,,,,,,,,,,,,,,,,,,,,,,,,,,,,,,,,,,,,,,,,,,,,,,,,,,,,,,,,,,,,,,,,,,,,,,,,,,,,,,,,,,,,,,,,,,,,,,,,,,,,,,,,,,,
,,,,,,615025cfceb970fd5d487a5d,62c53a773c3942f0dbd9d0fd,2022-07-06_09h42.25.438,Colour_Asymmetry_Pilot,2022.1.3,Win32,59.93407252,62c50e9c1127f2cd403a315f,0,17,17,4,1,threeone,,,,,,,,,,,,,,,,,,,,,,,,,,,,,,,,,,,,,,,,,,,,,,,,,,,,,,,,,,,,,,,,,,,,,,,,,,,,,,,,,,,,,,,,,,,,,,,,,,,,,,,,,,,,,,,,,,,,,,,,,,,,,,,,,,,,,,,,,,,,,,,,,,,,,,,,,,,,,
,,,,,,615025cfceb970fd5d487a5d,62c53a773c3942f0dbd9d0fd,2022-07-06_09h42.25.438,Colour_Asymmetry_Pilot,2022.1.3,Win32,59.93407252,62c50e9c1127f2cd403a315f,0,18,18,145,1,onethree,,,,,,,,,,,,,,,,,,,,,,,,,,,,,,,,,,,,,,,,,,,,,,,,,,,,,,,,,,,,,,,,,,,,,,,,,,,,,,,,,,,,,,,,,,,,,,,,,,,,,,,,,,,,,,,,,,,,,,,,,,,,,,,,,,,,,,,,,,,,,,,,,,,,,,,,,,,,,
,,,,,,615025cfceb970fd5d487a5d,62c53a773c3942f0dbd9d0fd,2022-07-06_09h42.25.438,Colour_Asymmetry_Pilot,2022.1.3,Win32,59.93407252,62c50e9c1127f2cd403a315f,0,19,19,95,1,fourthree,,,,,,,,,,,,,,,,,,,,,,,,,,,,,,,,,,,,,,,,,,,,,,,,,,,,,,,,,,,,,,,,,,,,,,,,,,,,,,,,,,,,,,,,,,,,,,,,,,,,,,,,,,,,,,,,,,,,,,,,,,,,,,,,,,,,,,,,,,,,,,,,,,,,,,,,,,,,,
,,,,,,615025cfceb970fd5d487a5d,62c53a773c3942f0dbd9d0fd,2022-07-06_09h42.25.438,Colour_Asymmetry_Pilot,2022.1.3,Win32,59.93407252,62c50e9c1127f2cd403a315f,0,20,20,126,1,fourtwo,,,,,,,,,,,,,,,,,,,,,,,,,,,,,,,,,,,,,,,,,,,,,,,,,,,,,,,,,,,,,,,,,,,,,,,,,,,,,,,,,,,,,,,,,,,,,,,,,,,,,,,,,,,,,,,,,,,,,,,,,,,,,,,,,,,,,,,,,,,,,,,,,,,,,,,,,,,,,
,,,,,,615025cfceb970fd5d487a5d,62c53a773c3942f0dbd9d0fd,2022-07-06_09h42.25.438,Colour_Asymmetry_Pilot,2022.1.3,Win32,59.93407252,62c50e9c1127f2cd403a315f,0,21,21,120,1,onetwo,,,,,,,,,,,,,,,,,,,,,,,,,,,,,,,,,,,,,,,,,,,,,,,,,,,,,,,,,,,,,,,,,,,,,,,,,,,,,,,,,,,,,,,,,,,,,,,,,,,,,,,,,,,,,,,,,,,,,,,,,,,,,,,,,,,,,,,,,,,,,,,,,,,,,,,,,,,,,
,,,,,,615025cfceb970fd5d487a5d,62c53a773c3942f0dbd9d0fd,2022-07-06_09h42.25.438,Colour_Asymmetry_Pilot,2022.1.3,Win32,59.93407252,62c50e9c1127f2cd403a315f,0,22,22,50,1,twoone,,,,,,,,,,,,,,,,,,,,,,,,,,,,,,,,,,,,,,,,,,,,,,,,,,,,,,,,,,,,,,,,,,,,,,,,,,,,,,,,,,,,,,,,,,,,,,,,,,,,,,,,,,,,,,,,,,,,,,,,,,,,,,,,,,,,,,,,,,,,,,,,,,,,,,,,,,,,,
,,,,,,615025cfceb970fd5d487a5d,62c53a773c3942f0dbd9d0fd,2022-07-06_09h42.25.438,Colour_Asymmetry_Pilot,2022.1.3,Win32,59.93407252,62c50e9c1127f2cd403a315f,0,23,23,151,1,fourthree,,,,,,,,,,,,,,,,,,,,,,,,,,,,,,,,,,,,,,,,,,,,,,,,,,,,,,,,,,,,,,,,,,,,,,,,,,,,,,,,,,,,,,,,,,,,,,,,,,,,,,,,,,,,,,,,,,,,,,,,,,,,,,,,,,,,,,,,,,,,,,,,,,,,,,,,,,,,,
,,,,,,615025cfceb970fd5d487a5d,62c53a773c3942f0dbd9d0fd,2022-07-06_09h42.25.438,Colour_Asymmetry_Pilot,2022.1.3,Win32,59.93407252,62c50e9c1127f2cd403a315f,0,24,24,32,1,onetwo,,,,,,,,,,,,,,,,,,,,,,,,,,,,,,,,,,,,,,,,,,,,,,,,,,,,,,,,,,,,,,,,,,,,,,,,,,,,,,,,,,,,,,,,,,,,,,,,,,,,,,,,,,,,,,,,,,,,,,,,,,,,,,,,,,,,,,,,,,,,,,,,,,,,,,,,,,,,,
,,,,,,615025cfceb970fd5d487a5d,62c53a773c3942f0dbd9d0fd,2022-07-06_09h42.25.438,Colour_Asymmetry_Pilot,2022.1.3,Win32,59.93407252,62c50e9c1127f2cd403a315f,0,25,25,118,1,fourtwo,,,,,,,,,,,,,,,,,,,,,,,,,,,,,,,,,,,,,,,,,,,,,,,,,,,,,,,,,,,,,,,,,,,,,,,,,,,,,,,,,,,,,,,,,,,,,,,,,,,,,,,,,,,,,,,,,,,,,,,,,,,,,,,,,,,,,,,,,,,,,,,,,,,,,,,,,,,,,
,,,,,,615025cfceb970fd5d487a5d,62c53a773c3942f0dbd9d0fd,2022-07-06_09h42.25.438,Colour_Asymmetry_Pilot,2022.1.3,Win32,59.93407252,62c50e9c1127f2cd403a315f,0,26,26,48,1,onetwo,,,,,,,,,,,,,,,,,,,,,,,,,,,,,,,,,,,,,,,,,,,,,,,,,,,,,,,,,,,,,,,,,,,,,,,,,,,,,,,,,,,,,,,,,,,,,,,,,,,,,,,,,,,,,,,,,,,,,,,,,,,,,,,,,,,,,,,,,,,,,,,,,,,,,,,,,,,,,
,,,,,,615025cfceb970fd5d487a5d,62c53a773c3942f0dbd9d0fd,2022-07-06_09h42.25.438,Colour_Asymmetry_Pilot,2022.1.3,Win32,59.93407252,62c50e9c1127f2cd403a315f,0,27,27,105,1,onethree,,,,,,,,,,,,,,,,,,,,,,,,,,,,,,,,,,,,,,,,,,,,,,,,,,,,,,,,,,,,,,,,,,,,,,,,,,,,,,,,,,,,,,,,,,,,,,,,,,,,,,,,,,,,,,,,,,,,,,,,,,,,,,,,,,,,,,,,,,,,,,,,,,,,,,,,,,,,,
,,,,,,615025cfceb970fd5d487a5d,62c53a773c3942f0dbd9d0fd,2022-07-06_09h42.25.438,Colour_Asymmetry_Pilot,2022.1.3,Win32,59.93407252,62c50e9c1127f2cd403a315f,0,28,28,124,1,threeone,,,,,,,,,,,,,,,,,,,,,,,,,,,,,,,,,,,,,,,,,,,,,,,,,,,,,,,,,,,,,,,,,,,,,,,,,,,,,,,,,,,,,,,,,,,,,,,,,,,,,,,,,,,,,,,,,,,,,,,,,,,,,,,,,,,,,,,,,,,,,,,,,,,,,,,,,,,,,
,,,,,,615025cfceb970fd5d487a5d,62c53a773c3942f0dbd9d0fd,2022-07-06_09h42.25.438,Colour_Asymmetry_Pilot,2022.1.3,Win32,59.93407252,62c50e9c1127f2cd403a315f,0,29,29,29,1,threefour,,,,,,,,,,,,,,,,,,,,,,,,,,,,,,,,,,,,,,,,,,,,,,,,,,,,,,,,,,,,,,,,,,,,,,,,,,,,,,,,,,,,,,,,,,,,,,,,,,,,,,,,,,,,,,,,,,,,,,,,,,,,,,,,,,,,,,,,,,,,,,,,,,,,,,,,,,,,,
,,,,,,615025cfceb970fd5d487a5d,62c53a773c3942f0dbd9d0fd,2022-07-06_09h42.25.438,Colour_Asymmetry_Pilot,2022.1.3,Win32,59.93407252,62c50e9c1127f2cd403a315f,0,30,30,72,1,onetwo,,,,,,,,,,,,,,,,,,,,,,,,,,,,,,,,,,,,,,,,,,,,,,,,,,,,,,,,,,,,,,,,,,,,,,,,,,,,,,,,,,,,,,,,,,,,,,,,,,,,,,,,,,,,,,,,,,,,,,,,,,,,,,,,,,,,,,,,,,,,,,,,,,,,,,,,,,,,,
,,,,,,615025cfceb970fd5d487a5d,62c53a773c3942f0dbd9d0fd,2022-07-06_09h42.25.438,Colour_Asymmetry_Pilot,2022.1.3,Win32,59.93407252,62c50e9c1127f2cd403a315f,0,31,31,51,1,twofour,,,,,,,,,,,,,,,,,,,,,,,,,,,,,,,,,,,,,,,,,,,,,,,,,,,,,,,,,,,,,,,,,,,,,,,,,,,,,,,,,,,,,,,,,,,,,,,,,,,,,,,,,,,,,,,,,,,,,,,,,,,,,,,,,,,,,,,,,,,,,,,,,,,,,,,,,,,,,
,,,,,,615025cfceb970fd5d487a5d,62c53a773c3942f0dbd9d0fd,2022-07-06_09h42.25.438,Colour_Asymmetry_Pilot,2022.1.3,Win32,59.93407252,62c50e9c1127f2cd403a315f,0,32,32,65,1,onethree,,,,,,,,,,,,,,,,,,,,,,,,,,,,,,,,,,,,,,,,,,,,,,,,,,,,,,,,,,,,,,,,,,,,,,,,,,,,,,,,,,,,,,,,,,,,,,,,,,,,,,,,,,,,,,,,,,,,,,,,,,,,,,,,,,,,,,,,,,,,,,,,,,,,,,,,,,,,,
,,,,,,615025cfceb970fd5d487a5d,62c53a773c3942f0dbd9d0fd,2022-07-06_09h42.25.438,Colour_Asymmetry_Pilot,2022.1.3,Win32,59.93407252,62c50e9c1127f2cd403a315f,0,33,33,141,1,threefour,,,,,,,,,,,,,,,,,,,,,,,,,,,,,,,,,,,,,,,,,,,,,,,,,,,,,,,,,,,,,,,,,,,,,,,,,,,,,,,,,,,,,,,,,,,,,,,,,,,,,,,,,,,,,,,,,,,,,,,,,,,,,,,,,,,,,,,,,,,,,,,,,,,,,,,,,,,,,
,,,,,,615025cfceb970fd5d487a5d,62c53a773c3942f0dbd9d0fd,2022-07-06_09h42.25.438,Colour_Asymmetry_Pilot,2022.1.3,Win32,59.93407252,62c50e9c1127f2cd403a315f,0,34,34,88,1,onetwo,,,,,,,,,,,,,,,,,,,,,,,,,,,,,,,,,,,,,,,,,,,,,,,,,,,,,,,,,,,,,,,,,,,,,,,,,,,,,,,,,,,,,,,,,,,,,,,,,,,,,,,,,,,,,,,,,,,,,,,,,,,,,,,,,,,,,,,,,,,,,,,,,,,,,,,,,,,,,
,,,,,,615025cfceb970fd5d487a5d,62c53a773c3942f0dbd9d0fd,2022-07-06_09h42.25.438,Colour_Asymmetry_Pilot,2022.1.3,Win32,59.93407252,62c50e9c1127f2cd403a315f,0,35,35,91,1,twofour,,,,,,,,,,,,,,,,,,,,,,,,,,,,,,,,,,,,,,,,,,,,,,,,,,,,,,,,,,,,,,,,,,,,,,,,,,,,,,,,,,,,,,,,,,,,,,,,,,,,,,,,,,,,,,,,,,,,,,,,,,,,,,,,,,,,,,,,,,,,,,,,,,,,,,,,,,,,,
,,,,,,615025cfceb970fd5d487a5d,62c53a773c3942f0dbd9d0fd,2022-07-06_09h42.25.438,Colour_Asymmetry_Pilot,2022.1.3,Win32,59.93407252,62c50e9c1127f2cd403a315f,0,36,36,68,1,threeone,,,,,,,,,,,,,,,,,,,,,,,,,,,,,,,,,,,,,,,,,,,,,,,,,,,,,,,,,,,,,,,,,,,,,,,,,,,,,,,,,,,,,,,,,,,,,,,,,,,,,,,,,,,,,,,,,,,,,,,,,,,,,,,,,,,,,,,,,,,,,,,,,,,,,,,,,,,,,
,,,,,,615025cfceb970fd5d487a5d,62c53a773c3942f0dbd9d0fd,2022-07-06_09h42.25.438,Colour_Asymmetry_Pilot,2022.1.3,Win32,59.93407252,62c50e9c1127f2cd403a315f,0,37,37,117,1,threefour,,,,,,,,,,,,,,,,,,,,,,,,,,,,,,,,,,,,,,,,,,,,,,,,,,,,,,,,,,,,,,,,,,,,,,,,,,,,,,,,,,,,,,,,,,,,,,,,,,,,,,,,,,,,,,,,,,,,,,,,,,,,,,,,,,,,,,,,,,,,,,,,,,,,,,,,,,,,,
,,,,,,615025cfceb970fd5d487a5d,62c53a773c3942f0dbd9d0fd,2022-07-06_09h42.25.438,Colour_Asymmetry_Pilot,2022.1.3,Win32,59.93407252,62c50e9c1127f2cd403a315f,0,38,38,1,1,onethree,,,,,,,,,,,,,,,,,,,,,,,,,,,,,,,,,,,,,,,,,,,,,,,,,,,,,,,,,,,,,,,,,,,,,,,,,,,,,,,,,,,,,,,,,,,,,,,,,,,,,,,,,,,,,,,,,,,,,,,,,,,,,,,,,,,,,,,,,,,,,,,,,,,,,,,,,,,,,
,,,,,,615025cfceb970fd5d487a5d,62c53a773c3942f0dbd9d0fd,2022-07-06_09h42.25.438,Colour_Asymmetry_Pilot,2022.1.3,Win32,59.93407252,62c50e9c1127f2cd403a315f,0,39,39,52,1,threeone,,,,,,,,,,,,,,,,,,,,,,,,,,,,,,,,,,,,,,,,,,,,,,,,,,,,,,,,,,,,,,,,,,,,,,,,,,,,,,,,,,,,,,,,,,,,,,,,,,,,,,,,,,,,,,,,,,,,,,,,,,,,,,,,,,,,,,,,,,,,,,,,,,,,,,,,,,,,,
,,,,,,615025cfceb970fd5d487a5d,62c53a773c3942f0dbd9d0fd,2022-07-06_09h42.25.438,Colour_Asymmetry_Pilot,2022.1.3,Win32,59.93407252,62c50e9c1127f2cd403a315f,0,40,40,139,1,twofour,,,,,,,,,,,,,,,,,,,,,,,,,,,,,,,,,,,,,,,,,,,,,,,,,,,,,,,,,,,,,,,,,,,,,,,,,,,,,,,,,,,,,,,,,,,,,,,,,,,,,,,,,,,,,,,,,,,,,,,,,,,,,,,,,,,,,,,,,,,,,,,,,,,,,,,,,,,,,
,,,,,,615025cfceb970fd5d487a5d,62c53a773c3942f0dbd9d0fd,2022-07-06_09h42.25.438,Colour_Asymmetry_Pilot,2022.1.3,Win32,59.93407252,62c50e9c1127f2cd403a315f,0,41,41,142,1,fourtwo,,,,,,,,,,,,,,,,,,,,,,,,,,,,,,,,,,,,,,,,,,,,,,,,,,,,,,,,,,,,,,,,,,,,,,,,,,,,,,,,,,,,,,,,,,,,,,,,,,,,,,,,,,,,,,,,,,,,,,,,,,,,,,,,,,,,,,,,,,,,,,,,,,,,,,,,,,,,,
,,,,,,615025cfceb970fd5d487a5d,62c53a773c3942f0dbd9d0fd,2022-07-06_09h42.25.438,Colour_Asymmetry_Pilot,2022.1.3,Win32,59.93407252,62c50e9c1127f2cd403a315f,0,42,42,130,1,twoone,,,,,,,,,,,,,,,,,,,,,,,,,,,,,,,,,,,,,,,,,,,,,,,,,,,,,,,,,,,,,,,,,,,,,,,,,,,,,,,,,,,,,,,,,,,,,,,,,,,,,,,,,,,,,,,,,,,,,,,,,,,,,,,,,,,,,,,,,,,,,,,,,,,,,,,,,,,,,
,,,,,,615025cfceb970fd5d487a5d,62c53a773c3942f0dbd9d0fd,2022-07-06_09h42.25.438,Colour_Asymmetry_Pilot,2022.1.3,Win32,59.93407252,62c50e9c1127f2cd403a315f,0,43,43,119,1,fourthree,,,,,,,,,,,,,,,,,,,,,,,,,,,,,,,,,,,,,,,,,,,,,,,,,,,,,,,,,,,,,,,,,,,,,,,,,,,,,,,,,,,,,,,,,,,,,,,,,,,,,,,,,,,,,,,,,,,,,,,,,,,,,,,,,,,,,,,,,,,,,,,,,,,,,,,,,,,,,
,,,,,,615025cfceb970fd5d487a5d,62c53a773c3942f0dbd9d0fd,2022-07-06_09h42.25.438,Colour_Asymmetry_Pilot,2022.1.3,Win32,59.93407252,62c50e9c1127f2cd403a315f,0,44,44,157,1,threefour,,,,,,,,,,,,,,,,,,,,,,,,,,,,,,,,,,,,,,,,,,,,,,,,,,,,,,,,,,,,,,,,,,,,,,,,,,,,,,,,,,,,,,,,,,,,,,,,,,,,,,,,,,,,,,,,,,,,,,,,,,,,,,,,,,,,,,,,,,,,,,,,,,,,,,,,,,,,,
,,,,,,615025cfceb970fd5d487a5d,62c53a773c3942f0dbd9d0fd,2022-07-06_09h42.25.438,Colour_Asymmetry_Pilot,2022.1.3,Win32,59.93407252,62c50e9c1127f2cd403a315f,0,45,45,112,1,onetwo,,,,,,,,,,,,,,,,,,,,,,,,,,,,,,,,,,,,,,,,,,,,,,,,,,,,,,,,,,,,,,,,,,,,,,,,,,,,,,,,,,,,,,,,,,,,,,,,,,,,,,,,,,,,,,,,,,,,,,,,,,,,,,,,,,,,,,,,,,,,,,,,,,,,,,,,,,,,,
,,,,,,615025cfceb970fd5d487a5d,62c53a773c3942f0dbd9d0fd,2022-07-06_09h42.25.438,Colour_Asymmetry_Pilot,2022.1.3,Win32,59.93407252,62c50e9c1127f2cd403a315f,0,46,46,99,1,twofour,,,,,,,,,,,,,,,,,,,,,,,,,,,,,,,,,,,,,,,,,,,,,,,,,,,,,,,,,,,,,,,,,,,,,,,,,,,,,,,,,,,,,,,,,,,,,,,,,,,,,,,,,,,,,,,,,,,,,,,,,,,,,,,,,,,,,,,,,,,,,,,,,,,,,,,,,,,,,
,,,,,,615025cfceb970fd5d487a5d,62c53a773c3942f0dbd9d0fd,2022-07-06_09h42.25.438,Colour_Asymmetry_Pilot,2022.1.3,Win32,59.93407252,62c50e9c1127f2cd403a315f,0,47,47,28,1,threeone,,,,,,,,,,,,,,,,,,,,,,,,,,,,,,,,,,,,,,,,,,,,,,,,,,,,,,,,,,,,,,,,,,,,,,,,,,,,,,,,,,,,,,,,,,,,,,,,,,,,,,,,,,,,,,,,,,,,,,,,,,,,,,,,,,,,,,,,,,,,,,,,,,,,,,,,,,,,,
,,,,,,615025cfceb970fd5d487a5d,62c53a773c3942f0dbd9d0fd,2022-07-06_09h42.25.438,Colour_Asymmetry_Pilot,2022.1.3,Win32,59.93407252,62c50e9c1127f2cd403a315f,0,48,48,146,1,twoone,,,,,,,,,,,,,,,,,,,,,,,,,,,,,,,,,,,,,,,,,,,,,,,,,,,,,,,,,,,,,,,,,,,,,,,,,,,,,,,,,,,,,,,,,,,,,,,,,,,,,,,,,,,,,,,,,,,,,,,,,,,,,,,,,,,,,,,,,,,,,,,,,,,,,,,,,,,,,
,,,,,,615025cfceb970fd5d487a5d,62c53a773c3942f0dbd9d0fd,2022-07-06_09h42.25.438,Colour_Asymmetry_Pilot,2022.1.3,Win32,59.93407252,62c50e9c1127f2cd403a315f,0,49,49,102,1,fourtwo,,,,,,,,,,,,,,,,,,,,,,,,,,,,,,,,,,,,,,,,,,,,,,,,,,,,,,,,,,,,,,,,,,,,,,,,,,,,,,,,,,,,,,,,,,,,,,,,,,,,,,,,,,,,,,,,,,,,,,,,,,,,,,,,,,,,,,,,,,,,,,,,,,,,,,,,,,,,,
,,,,,,615025cfceb970fd5d487a5d,62c53a773c3942f0dbd9d0fd,2022-07-06_09h42.25.438,Colour_Asymmetry_Pilot,2022.1.3,Win32,59.93407252,62c50e9c1127f2cd403a315f,0,50,50,76,1,threeone,,,,,,,,,,,,,,,,,,,,,,,,,,,,,,,,,,,,,,,,,,,,,,,,,,,,,,,,,,,,,,,,,,,,,,,,,,,,,,,,,,,,,,,,,,,,,,,,,,,,,,,,,,,,,,,,,,,,,,,,,,,,,,,,,,,,,,,,,,,,,,,,,,,,,,,,,,,,,
,,,,,,615025cfceb970fd5d487a5d,62c53a773c3942f0dbd9d0fd,2022-07-06_09h42.25.438,Colour_Asymmetry_Pilot,2022.1.3,Win32,59.93407252,62c50e9c1127f2cd403a315f,0,51,51,147,1,twofour,,,,,,,,,,,,,,,,,,,,,,,,,,,,,,,,,,,,,,,,,,,,,,,,,,,,,,,,,,,,,,,,,,,,,,,,,,,,,,,,,,,,,,,,,,,,,,,,,,,,,,,,,,,,,,,,,,,,,,,,,,,,,,,,,,,,,,,,,,,,,,,,,,,,,,,,,,,,,
,,,,,,615025cfceb970fd5d487a5d,62c53a773c3942f0dbd9d0fd,2022-07-06_09h42.25.438,Colour_Asymmetry_Pilot,2022.1.3,Win32,59.93407252,62c50e9c1127f2cd403a315f,0,52,52,137,1,onethree,,,,,,,,,,,,,,,,,,,,,,,,,,,,,,,,,,,,,,,,,,,,,,,,,,,,,,,,,,,,,,,,,,,,,,,,,,,,,,,,,,,,,,,,,,,,,,,,,,,,,,,,,,,,,,,,,,,,,,,,,,,,,,,,,,,,,,,,,,,,,,,,,,,,,,,,,,,,,
,,,,,,615025cfceb970fd5d487a5d,62c53a773c3942f0dbd9d0fd,2022-07-06_09h42.25.438,Colour_Asymmetry_Pilot,2022.1.3,Win32,59.93407252,62c50e9c1127f2cd403a315f,0,53,53,160,1,onetwo,,,,,,,,,,,,,,,,,,,,,,,,,,,,,,,,,,,,,,,,,,,,,,,,,,,,,,,,,,,,,,,,,,,,,,,,,,,,,,,,,,,,,,,,,,,,,,,,,,,,,,,,,,,,,,,,,,,,,,,,,,,,,,,,,,,,,,,,,,,,,,,,,,,,,,,,,,,,,
,,,,,,615025cfceb970fd5d487a5d,62c53a773c3942f0dbd9d0fd,2022-07-06_09h42.25.438,Colour_Asymmetry_Pilot,2022.1.3,Win32,59.93407252,62c50e9c1127f2cd403a315f,0,54,54,61,1,threefour,,,,,,,,,,,,,,,,,,,,,,,,,,,,,,,,,,,,,,,,,,,,,,,,,,,,,,,,,,,,,,,,,,,,,,,,,,,,,,,,,,,,,,,,,,,,,,,,,,,,,,,,,,,,,,,,,,,,,,,,,,,,,,,,,,,,,,,,,,,,,,,,,,,,,,,,,,,,,
,,,,,,615025cfceb970fd5d487a5d,62c53a773c3942f0dbd9d0fd,2022-07-06_09h42.25.438,Colour_Asymmetry_Pilot,2022.1.3,Win32,59.93407252,62c50e9c1127f2cd403a315f,0,55,55,19,1,twofour,,,,,,,,,,,,,,,,,,,,,,,,,,,,,,,,,,,,,,,,,,,,,,,,,,,,,,,,,,,,,,,,,,,,,,,,,,,,,,,,,,,,,,,,,,,,,,,,,,,,,,,,,,,,,,,,,,,,,,,,,,,,,,,,,,,,,,,,,,,,,,,,,,,,,,,,,,,,,
,,,,,,615025cfceb970fd5d487a5d,62c53a773c3942f0dbd9d0fd,2022-07-06_09h42.25.438,Colour_Asymmetry_Pilot,2022.1.3,Win32,59.93407252,62c50e9c1127f2cd403a315f,0,56,56,116,1,threeone,,,,,,,,,,,,,,,,,,,,,,,,,,,,,,,,,,,,,,,,,,,,,,,,,,,,,,,,,,,,,,,,,,,,,,,,,,,,,,,,,,,,,,,,,,,,,,,,,,,,,,,,,,,,,,,,,,,,,,,,,,,,,,,,,,,,,,,,,,,,,,,,,,,,,,,,,,,,,
,,,,,,615025cfceb970fd5d487a5d,62c53a773c3942f0dbd9d0fd,2022-07-06_09h42.25.438,Colour_Asymmetry_Pilot,2022.1.3,Win32,59.93407252,62c50e9c1127f2cd403a315f,0,57,57,18,1,twoone,,,,,,,,,,,,,,,,,,,,,,,,,,,,,,,,,,,,,,,,,,,,,,,,,,,,,,,,,,,,,,,,,,,,,,,,,,,,,,,,,,,,,,,,,,,,,,,,,,,,,,,,,,,,,,,,,,,,,,,,,,,,,,,,,,,,,,,,,,,,,,,,,,,,,,,,,,,,,
,,,,,,615025cfceb970fd5d487a5d,62c53a773c3942f0dbd9d0fd,2022-07-06_09h42.25.438,Colour_Asymmetry_Pilot,2022.1.3,Win32,59.93407252,62c50e9c1127f2cd403a315f,0,58,58,71,1,fourthree,,,,,,,,,,,,,,,,,,,,,,,,,,,,,,,,,,,,,,,,,,,,,,,,,,,,,,,,,,,,,,,,,,,,,,,,,,,,,,,,,,,,,,,,,,,,,,,,,,,,,,,,,,,,,,,,,,,,,,,,,,,,,,,,,,,,,,,,,,,,,,,,,,,,,,,,,,,,,
,,,,,,615025cfceb970fd5d487a5d,62c53a773c3942f0dbd9d0fd,2022-07-06_09h42.25.438,Colour_Asymmetry_Pilot,2022.1.3,Win32,59.93407252,62c50e9c1127f2cd403a315f,0,59,59,150,1,fourtwo,,,,,,,,,,,,,,,,,,,,,,,,,,,,,,,,,,,,,,,,,,,,,,,,,,,,,,,,,,,,,,,,,,,,,,,,,,,,,,,,,,,,,,,,,,,,,,,,,,,,,,,,,,,,,,,,,,,,,,,,,,,,,,,,,,,,,,,,,,,,,,,,,,,,,,,,,,,,,
,,,,,,615025cfceb970fd5d487a5d,62c53a773c3942f0dbd9d0fd,2022-07-06_09h42.25.438,Colour_Asymmetry_Pilot,2022.1.3,Win32,59.93407252,62c50e9c1127f2cd403a315f,0,60,60,54,1,fourtwo,,,,,,,,,,,,,,,,,,,,,,,,,,,,,,,,,,,,,,,,,,,,,,,,,,,,,,,,,,,,,,,,,,,,,,,,,,,,,,,,,,,,,,,,,,,,,,,,,,,,,,,,,,,,,,,,,,,,,,,,,,,,,,,,,,,,,,,,,,,,,,,,,,,,,,,,,,,,,
,,,,,,615025cfceb970fd5d487a5d,62c53a773c3942f0dbd9d0fd,2022-07-06_09h42.25.438,Colour_Asymmetry_Pilot,2022.1.3,Win32,59.93407252,62c50e9c1127f2cd403a315f,0,61,61,36,1,threeone,,,,,,,,,,,,,,,,,,,,,,,,,,,,,,,,,,,,,,,,,,,,,,,,,,,,,,,,,,,,,,,,,,,,,,,,,,,,,,,,,,,,,,,,,,,,,,,,,,,,,,,,,,,,,,,,,,,,,,,,,,,,,,,,,,,,,,,,,,,,,,,,,,,,,,,,,,,,,
,,,,,,615025cfceb970fd5d487a5d,62c53a773c3942f0dbd9d0fd,2022-07-06_09h42.25.438,Colour_Asymmetry_Pilot,2022.1.3,Win32,59.93407252,62c50e9c1127f2cd403a315f,0,62,62,108,1,threeone,,,,,,,,,,,,,,,,,,,,,,,,,,,,,,,,,,,,,,,,,,,,,,,,,,,,,,,,,,,,,,,,,,,,,,,,,,,,,,,,,,,,,,,,,,,,,,,,,,,,,,,,,,,,,,,,,,,,,,,,,,,,,,,,,,,,,,,,,,,,,,,,,,,,,,,,,,,,,
,,,,,,615025cfceb970fd5d487a5d,62c53a773c3942f0dbd9d0fd,2022-07-06_09h42.25.438,Colour_Asymmetry_Pilot,2022.1.3,Win32,59.93407252,62c50e9c1127f2cd403a315f,0,63,63,159,1,fourthree,,,,,,,,,,,,,,,,,,,,,,,,,,,,,,,,,,,,,,,,,,,,,,,,,,,,,,,,,,,,,,,,,,,,,,,,,,,,,,,,,,,,,,,,,,,,,,,,,,,,,,,,,,,,,,,,,,,,,,,,,,,,,,,,,,,,,,,,,,,,,,,,,,,,,,,,,,,,,
,,,,,,615025cfceb970fd5d487a5d,62c53a773c3942f0dbd9d0fd,2022-07-06_09h42.25.438,Colour_Asymmetry_Pilot,2022.1.3,Win32,59.93407252,62c50e9c1127f2cd403a315f,0,64,64,44,1,threeone,,,,,,,,,,,,,,,,,,,,,,,,,,,,,,,,,,,,,,,,,,,,,,,,,,,,,,,,,,,,,,,,,,,,,,,,,,,,,,,,,,,,,,,,,,,,,,,,,,,,,,,,,,,,,,,,,,,,,,,,,,,,,,,,,,,,,,,,,,,,,,,,,,,,,,,,,,,,,
,,,,,,615025cfceb970fd5d487a5d,62c53a773c3942f0dbd9d0fd,2022-07-06_09h42.25.438,Colour_Asymmetry_Pilot,2022.1.3,Win32,59.93407252,62c50e9c1127f2cd403a315f,0,65,65,6,1,fourtwo,,,,,,,,,,,,,,,,,,,,,,,,,,,,,,,,,,,,,,,,,,,,,,,,,,,,,,,,,,,,,,,,,,,,,,,,,,,,,,,,,,,,,,,,,,,,,,,,,,,,,,,,,,,,,,,,,,,,,,,,,,,,,,,,,,,,,,,,,,,,,,,,,,,,,,,,,,,,,
,,,,,,615025cfceb970fd5d487a5d,62c53a773c3942f0dbd9d0fd,2022-07-06_09h42.25.438,Colour_Asymmetry_Pilot,2022.1.3,Win32,59.93407252,62c50e9c1127f2cd403a315f,0,66,66,55,1,fourthree,,,,,,,,,,,,,,,,,,,,,,,,,,,,,,,,,,,,,,,,,,,,,,,,,,,,,,,,,,,,,,,,,,,,,,,,,,,,,,,,,,,,,,,,,,,,,,,,,,,,,,,,,,,,,,,,,,,,,,,,,,,,,,,,,,,,,,,,,,,,,,,,,,,,,,,,,,,,,
,,,,,,615025cfceb970fd5d487a5d,62c53a773c3942f0dbd9d0fd,2022-07-06_09h42.25.438,Colour_Asymmetry_Pilot,2022.1.3,Win32,59.93407252,62c50e9c1127f2cd403a315f,0,67,67,133,1,threefour,,,,,,,,,,,,,,,,,,,,,,,,,,,,,,,,,,,,,,,,,,,,,,,,,,,,,,,,,,,,,,,,,,,,,,,,,,,,,,,,,,,,,,,,,,,,,,,,,,,,,,,,,,,,,,,,,,,,,,,,,,,,,,,,,,,,,,,,,,,,,,,,,,,,,,,,,,,,,
,,,,,,615025cfceb970fd5d487a5d,62c53a773c3942f0dbd9d0fd,2022-07-06_09h42.25.438,Colour_Asymmetry_Pilot,2022.1.3,Win32,59.93407252,62c50e9c1127f2cd403a315f,0,68,68,136,1,onetwo,,,,,,,,,,,,,,,,,,,,,,,,,,,,,,,,,,,,,,,,,,,,,,,,,,,,,,,,,,,,,,,,,,,,,,,,,,,,,,,,,,,,,,,,,,,,,,,,,,,,,,,,,,,,,,,,,,,,,,,,,,,,,,,,,,,,,,,,,,,,,,,,,,,,,,,,,,,,,
,,,,,,615025cfceb970fd5d487a5d,62c53a773c3942f0dbd9d0fd,2022-07-06_09h42.25.438,Colour_Asymmetry_Pilot,2022.1.3,Win32,59.93407252,62c50e9c1127f2cd403a315f,0,69,69,123,1,twofour,,,,,,,,,,,,,,,,,,,,,,,,,,,,,,,,,,,,,,,,,,,,,,,,,,,,,,,,,,,,,,,,,,,,,,,,,,,,,,,,,,,,,,,,,,,,,,,,,,,,,,,,,,,,,,,,,,,,,,,,,,,,,,,,,,,,,,,,,,,,,,,,,,,,,,,,,,,,,
,,,,,,615025cfceb970fd5d487a5d,62c53a773c3942f0dbd9d0fd,2022-07-06_09h42.25.438,Colour_Asymmetry_Pilot,2022.1.3,Win32,59.93407252,62c50e9c1127f2cd403a315f,0,70,70,2,1,twoone,,,,,,,,,,,,,,,,,,,,,,,,,,,,,,,,,,,,,,,,,,,,,,,,,,,,,,,,,,,,,,,,,,,,,,,,,,,,,,,,,,,,,,,,,,,,,,,,,,,,,,,,,,,,,,,,,,,,,,,,,,,,,,,,,,,,,,,,,,,,,,,,,,,,,,,,,,,,,
,,,,,,615025cfceb970fd5d487a5d,62c53a773c3942f0dbd9d0fd,2022-07-06_09h42.25.438,Colour_Asymmetry_Pilot,2022.1.3,Win32,59.93407252,62c50e9c1127f2cd403a315f,0,71,71,128,1,onetwo,,,,,,,,,,,,,,,,,,,,,,,,,,,,,,,,,,,,,,,,,,,,,,,,,,,,,,,,,,,,,,,,,,,,,,,,,,,,,,,,,,,,,,,,,,,,,,,,,,,,,,,,,,,,,,,,,,,,,,,,,,,,,,,,,,,,,,,,,,,,,,,,,,,,,,,,,,,,,
,,,,,,615025cfceb970fd5d487a5d,62c53a773c3942f0dbd9d0fd,2022-07-06_09h42.25.438,Colour_Asymmetry_Pilot,2022.1.3,Win32,59.93407252,62c50e9c1127f2cd403a315f,0,72,72,23,1,fourthree,,,,,,,,,,,,,,,,,,,,,,,,,,,,,,,,,,,,,,,,,,,,,,,,,,,,,,,,,,,,,,,,,,,,,,,,,,,,,,,,,,,,,,,,,,,,,,,,,,,,,,,,,,,,,,,,,,,,,,,,,,,,,,,,,,,,,,,,,,,,,,,,,,,,,,,,,,,,,
,,,,,,615025cfceb970fd5d487a5d,62c53a773c3942f0dbd9d0fd,2022-07-06_09h42.25.438,Colour_Asymmetry_Pilot,2022.1.3,Win32,59.93407252,62c50e9c1127f2cd403a315f,0,73,73,67,1,twofour,,,,,,,,,,,,,,,,,,,,,,,,,,,,,,,,,,,,,,,,,,,,,,,,,,,,,,,,,,,,,,,,,,,,,,,,,,,,,,,,,,,,,,,,,,,,,,,,,,,,,,,,,,,,,,,,,,,,,,,,,,,,,,,,,,,,,,,,,,,,,,,,,,,,,,,,,,,,,
,,,,,,615025cfceb970fd5d487a5d,62c53a773c3942f0dbd9d0fd,2022-07-06_09h42.25.438,Colour_Asymmetry_Pilot,2022.1.3,Win32,59.93407252,62c50e9c1127f2cd403a315f,0,74,74,40,1,onetwo,,,,,,,,,,,,,,,,,,,,,,,,,,,,,,,,,,,,,,,,,,,,,,,,,,,,,,,,,,,,,,,,,,,,,,,,,,,,,,,,,,,,,,,,,,,,,,,,,,,,,,,,,,,,,,,,,,,,,,,,,,,,,,,,,,,,,,,,,,,,,,,,,,,,,,,,,,,,,
,,,,,,615025cfceb970fd5d487a5d,62c53a773c3942f0dbd9d0fd,2022-07-06_09h42.25.438,Colour_Asymmetry_Pilot,2022.1.3,Win32,59.93407252,62c50e9c1127f2cd403a315f,0,75,75,97,1,onethree,,,,,,,,,,,,,,,,,,,,,,,,,,,,,,,,,,,,,,,,,,,,,,,,,,,,,,,,,,,,,,,,,,,,,,,,,,,,,,,,,,,,,,,,,,,,,,,,,,,,,,,,,,,,,,,,,,,,,,,,,,,,,,,,,,,,,,,,,,,,,,,,,,,,,,,,,,,,,
,,,,,,615025cfceb970fd5d487a5d,62c53a773c3942f0dbd9d0fd,2022-07-06_09h42.25.438,Colour_Asymmetry_Pilot,2022.1.3,Win32,59.93407252,62c50e9c1127f2cd403a315f,0,76,76,42,1,twoone,,,,,,,,,,,,,,,,,,,,,,,,,,,,,,,,,,,,,,,,,,,,,,,,,,,,,,,,,,,,,,,,,,,,,,,,,,,,,,,,,,,,,,,,,,,,,,,,,,,,,,,,,,,,,,,,,,,,,,,,,,,,,,,,,,,,,,,,,,,,,,,,,,,,,,,,,,,,,
,,,,,,615025cfceb970fd5d487a5d,62c53a773c3942f0dbd9d0fd,2022-07-06_09h42.25.438,Colour_Asymmetry_Pilot,2022.1.3,Win32,59.93407252,62c50e9c1127f2cd403a315f,0,77,77,46,1,fourtwo,,,,,,,,,,,,,,,,,,,,,,,,,,,,,,,,,,,,,,,,,,,,,,,,,,,,,,,,,,,,,,,,,,,,,,,,,,,,,,,,,,,,,,,,,,,,,,,,,,,,,,,,,,,,,,,,,,,,,,,,,,,,,,,,,,,,,,,,,,,,,,,,,,,,,,,,,,,,,
,,,,,,615025cfceb970fd5d487a5d,62c53a773c3942f0dbd9d0fd,2022-07-06_09h42.25.438,Colour_Asymmetry_Pilot,2022.1.3,Win32,59.93407252,62c50e9c1127f2cd403a315f,0,78,78,15,1,fourthree,,,,,,,,,,,,,,,,,,,,,,,,,,,,,,,,,,,,,,,,,,,,,,,,,,,,,,,,,,,,,,,,,,,,,,,,,,,,,,,,,,,,,,,,,,,,,,,,,,,,,,,,,,,,,,,,,,,,,,,,,,,,,,,,,,,,,,,,,,,,,,,,,,,,,,,,,,,,,
,,,,,,615025cfceb970fd5d487a5d,62c53a773c3942f0dbd9d0fd,2022-07-06_09h42.25.438,Colour_Asymmetry_Pilot,2022.1.3,Win32,59.93407252,62c50e9c1127f2cd403a315f,0,79,79,125,1,threefour,,,,,,,,,,,,,,,,,,,,,,,,,,,,,,,,,,,,,,,,,,,,,,,,,,,,,,,,,,,,,,,,,,,,,,,,,,,,,,,,,,,,,,,,,,,,,,,,,,,,,,,,,,,,,,,,,,,,,,,,,,,,,,,,,,,,,,,,,,,,,,,,,,,,,,,,,,,,,
,,,,,,615025cfceb970fd5d487a5d,62c53a773c3942f0dbd9d0fd,2022-07-06_09h42.25.438,Colour_Asymmetry_Pilot,2022.1.3,Win32,59.93407252,62c50e9c1127f2cd403a315f,0,80,80,57,1,onethree,,,,,,,,,,,,,,,,,,,,,,,,,,,,,,,,,,,,,,,,,,,,,,,,,,,,,,,,,,,,,,,,,,,,,,,,,,,,,,,,,,,,,,,,,,,,,,,,,,,,,,,,,,,,,,,,,,,,,,,,,,,,,,,,,,,,,,,,,,,,,,,,,,,,,,,,,,,,,
,,,,,,615025cfceb970fd5d487a5d,62c53a773c3942f0dbd9d0fd,2022-07-06_09h42.25.438,Colour_Asymmetry_Pilot,2022.1.3,Win32,59.93407252,62c50e9c1127f2cd403a315f,0,81,81,69,1,threefour,,,,,,,,,,,,,,,,,,,,,,,,,,,,,,,,,,,,,,,,,,,,,,,,,,,,,,,,,,,,,,,,,,,,,,,,,,,,,,,,,,,,,,,,,,,,,,,,,,,,,,,,,,,,,,,,,,,,,,,,,,,,,,,,,,,,,,,,,,,,,,,,,,,,,,,,,,,,,
,,,,,,615025cfceb970fd5d487a5d,62c53a773c3942f0dbd9d0fd,2022-07-06_09h42.25.438,Colour_Asymmetry_Pilot,2022.1.3,Win32,59.93407252,62c50e9c1127f2cd403a315f,0,82,82,84,1,threeone,,,,,,,,,,,,,,,,,,,,,,,,,,,,,,,,,,,,,,,,,,,,,,,,,,,,,,,,,,,,,,,,,,,,,,,,,,,,,,,,,,,,,,,,,,,,,,,,,,,,,,,,,,,,,,,,,,,,,,,,,,,,,,,,,,,,,,,,,,,,,,,,,,,,,,,,,,,,,
,,,,,,615025cfceb970fd5d487a5d,62c53a773c3942f0dbd9d0fd,2022-07-06_09h42.25.438,Colour_Asymmetry_Pilot,2022.1.3,Win32,59.93407252,62c50e9c1127f2cd403a315f,0,83,83,78,1,fourtwo,,,,,,,,,,,,,,,,,,,,,,,,,,,,,,,,,,,,,,,,,,,,,,,,,,,,,,,,,,,,,,,,,,,,,,,,,,,,,,,,,,,,,,,,,,,,,,,,,,,,,,,,,,,,,,,,,,,,,,,,,,,,,,,,,,,,,,,,,,,,,,,,,,,,,,,,,,,,,
,,,,,,615025cfceb970fd5d487a5d,62c53a773c3942f0dbd9d0fd,2022-07-06_09h42.25.438,Colour_Asymmetry_Pilot,2022.1.3,Win32,59.93407252,62c50e9c1127f2cd403a315f,0,84,84,7,1,fourthree,,,,,,,,,,,,,,,,,,,,,,,,,,,,,,,,,,,,,,,,,,,,,,,,,,,,,,,,,,,,,,,,,,,,,,,,,,,,,,,,,,,,,,,,,,,,,,,,,,,,,,,,,,,,,,,,,,,,,,,,,,,,,,,,,,,,,,,,,,,,,,,,,,,,,,,,,,,,,
,,,,,,615025cfceb970fd5d487a5d,62c53a773c3942f0dbd9d0fd,2022-07-06_09h42.25.438,Colour_Asymmetry_Pilot,2022.1.3,Win32,59.93407252,62c50e9c1127f2cd403a315f,0,85,85,135,1,fourthree,,,,,,,,,,,,,,,,,,,,,,,,,,,,,,,,,,,,,,,,,,,,,,,,,,,,,,,,,,,,,,,,,,,,,,,,,,,,,,,,,,,,,,,,,,,,,,,,,,,,,,,,,,,,,,,,,,,,,,,,,,,,,,,,,,,,,,,,,,,,,,,,,,,,,,,,,,,,,
,,,,,,615025cfceb970fd5d487a5d,62c53a773c3942f0dbd9d0fd,2022-07-06_09h42.25.438,Colour_Asymmetry_Pilot,2022.1.3,Win32,59.93407252,62c50e9c1127f2cd403a315f,0,86,86,111,1,fourthree,,,,,,,,,,,,,,,,,,,,,,,,,,,,,,,,,,,,,,,,,,,,,,,,,,,,,,,,,,,,,,,,,,,,,,,,,,,,,,,,,,,,,,,,,,,,,,,,,,,,,,,,,,,,,,,,,,,,,,,,,,,,,,,,,,,,,,,,,,,,,,,,,,,,,,,,,,,,,
,,,,,,615025cfceb970fd5d487a5d,62c53a773c3942f0dbd9d0fd,2022-07-06_09h42.25.438,Colour_Asymmetry_Pilot,2022.1.3,Win32,59.93407252,62c50e9c1127f2cd403a315f,0,87,87,10,1,twoone,,,,,,,,,,,,,,,,,,,,,,,,,,,,,,,,,,,,,,,,,,,,,,,,,,,,,,,,,,,,,,,,,,,,,,,,,,,,,,,,,,,,,,,,,,,,,,,,,,,,,,,,,,,,,,,,,,,,,,,,,,,,,,,,,,,,,,,,,,,,,,,,,,,,,,,,,,,,,
,,,,,,615025cfceb970fd5d487a5d,62c53a773c3942f0dbd9d0fd,2022-07-06_09h42.25.438,Colour_Asymmetry_Pilot,2022.1.3,Win32,59.93407252,62c50e9c1127f2cd403a315f,0,88,88,25,1,onethree,,,,,,,,,,,,,,,,,,,,,,,,,,,,,,,,,,,,,,,,,,,,,,,,,,,,,,,,,,,,,,,,,,,,,,,,,,,,,,,,,,,,,,,,,,,,,,,,,,,,,,,,,,,,,,,,,,,,,,,,,,,,,,,,,,,,,,,,,,,,,,,,,,,,,,,,,,,,,
,,,,,,615025cfceb970fd5d487a5d,62c53a773c3942f0dbd9d0fd,2022-07-06_09h42.25.438,Colour_Asymmetry_Pilot,2022.1.3,Win32,59.93407252,62c50e9c1127f2cd403a315f,0,89,89,8,1,onetwo,,,,,,,,,,,,,,,,,,,,,,,,,,,,,,,,,,,,,,,,,,,,,,,,,,,,,,,,,,,,,,,,,,,,,,,,,,,,,,,,,,,,,,,,,,,,,,,,,,,,,,,,,,,,,,,,,,,,,,,,,,,,,,,,,,,,,,,,,,,,,,,,,,,,,,,,,,,,,
,,,,,,615025cfceb970fd5d487a5d,62c53a773c3942f0dbd9d0fd,2022-07-06_09h42.25.438,Colour_Asymmetry_Pilot,2022.1.3,Win32,59.93407252,62c50e9c1127f2cd403a315f,0,90,90,82,1,twoone,,,,,,,,,,,,,,,,,,,,,,,,,,,,,,,,,,,,,,,,,,,,,,,,,,,,,,,,,,,,,,,,,,,,,,,,,,,,,,,,,,,,,,,,,,,,,,,,,,,,,,,,,,,,,,,,,,,,,,,,,,,,,,,,,,,,,,,,,,,,,,,,,,,,,,,,,,,,,
,,,,,,615025cfceb970fd5d487a5d,62c53a773c3942f0dbd9d0fd,2022-07-06_09h42.25.438,Colour_Asymmetry_Pilot,2022.1.3,Win32,59.93407252,62c50e9c1127f2cd403a315f,0,91,91,114,1,twoone,,,,,,,,,,,,,,,,,,,,,,,,,,,,,,,,,,,,,,,,,,,,,,,,,,,,,,,,,,,,,,,,,,,,,,,,,,,,,,,,,,,,,,,,,,,,,,,,,,,,,,,,,,,,,,,,,,,,,,,,,,,,,,,,,,,,,,,,,,,,,,,,,,,,,,,,,,,,,
,,,,,,615025cfceb970fd5d487a5d,62c53a773c3942f0dbd9d0fd,2022-07-06_09h42.25.438,Colour_Asymmetry_Pilot,2022.1.3,Win32,59.93407252,62c50e9c1127f2cd403a315f,0,92,92,127,1,fourthree,,,,,,,,,,,,,,,,,,,,,,,,,,,,,,,,,,,,,,,,,,,,,,,,,,,,,,,,,,,,,,,,,,,,,,,,,,,,,,,,,,,,,,,,,,,,,,,,,,,,,,,,,,,,,,,,,,,,,,,,,,,,,,,,,,,,,,,,,,,,,,,,,,,,,,,,,,,,,
,,,,,,615025cfceb970fd5d487a5d,62c53a773c3942f0dbd9d0fd,2022-07-06_09h42.25.438,Colour_Asymmetry_Pilot,2022.1.3,Win32,59.93407252,62c50e9c1127f2cd403a315f,0,93,93,110,1,fourtwo,,,,,,,,,,,,,,,,,,,,,,,,,,,,,,,,,,,,,,,,,,,,,,,,,,,,,,,,,,,,,,,,,,,,,,,,,,,,,,,,,,,,,,,,,,,,,,,,,,,,,,,,,,,,,,,,,,,,,,,,,,,,,,,,,,,,,,,,,,,,,,,,,,,,,,,,,,,,,
,,,,,,615025cfceb970fd5d487a5d,62c53a773c3942f0dbd9d0fd,2022-07-06_09h42.25.438,Colour_Asymmetry_Pilot,2022.1.3,Win32,59.93407252,62c50e9c1127f2cd403a315f,0,94,94,20,1,threeone,,,,,,,,,,,,,,,,,,,,,,,,,,,,,,,,,,,,,,,,,,,,,,,,,,,,,,,,,,,,,,,,,,,,,,,,,,,,,,,,,,,,,,,,,,,,,,,,,,,,,,,,,,,,,,,,,,,,,,,,,,,,,,,,,,,,,,,,,,,,,,,,,,,,,,,,,,,,,
,,,,,,615025cfceb970fd5d487a5d,62c53a773c3942f0dbd9d0fd,2022-07-06_09h42.25.438,Colour_Asymmetry_Pilot,2022.1.3,Win32,59.93407252,62c50e9c1127f2cd403a315f,0,95,95,143,1,fourthree,,,,,,,,,,,,,,,,,,,,,,,,,,,,,,,,,,,,,,,,,,,,,,,,,,,,,,,,,,,,,,,,,,,,,,,,,,,,,,,,,,,,,,,,,,,,,,,,,,,,,,,,,,,,,,,,,,,,,,,,,,,,,,,,,,,,,,,,,,,,,,,,,,,,,,,,,,,,,
,,,,,,615025cfceb970fd5d487a5d,62c53a773c3942f0dbd9d0fd,2022-07-06_09h42.25.438,Colour_Asymmetry_Pilot,2022.1.3,Win32,59.93407252,62c50e9c1127f2cd403a315f,0,96,96,34,1,twoone,,,,,,,,,,,,,,,,,,,,,,,,,,,,,,,,,,,,,,,,,,,,,,,,,,,,,,,,,,,,,,,,,,,,,,,,,,,,,,,,,,,,,,,,,,,,,,,,,,,,,,,,,,,,,,,,,,,,,,,,,,,,,,,,,,,,,,,,,,,,,,,,,,,,,,,,,,,,,
,,,,,,615025cfceb970fd5d487a5d,62c53a773c3942f0dbd9d0fd,2022-07-06_09h42.25.438,Colour_Asymmetry_Pilot,2022.1.3,Win32,59.93407252,62c50e9c1127f2cd403a315f,0,97,97,87,1,fourthree,,,,,,,,,,,,,,,,,,,,,,,,,,,,,,,,,,,,,,,,,,,,,,,,,,,,,,,,,,,,,,,,,,,,,,,,,,,,,,,,,,,,,,,,,,,,,,,,,,,,,,,,,,,,,,,,,,,,,,,,,,,,,,,,,,,,,,,,,,,,,,,,,,,,,,,,,,,,,
,,,,,,615025cfceb970fd5d487a5d,62c53a773c3942f0dbd9d0fd,2022-07-06_09h42.25.438,Colour_Asymmetry_Pilot,2022.1.3,Win32,59.93407252,62c50e9c1127f2cd403a315f,0,98,98,107,1,twofour,,,,,,,,,,,,,,,,,,,,,,,,,,,,,,,,,,,,,,,,,,,,,,,,,,,,,,,,,,,,,,,,,,,,,,,,,,,,,,,,,,,,,,,,,,,,,,,,,,,,,,,,,,,,,,,,,,,,,,,,,,,,,,,,,,,,,,,,,,,,,,,,,,,,,,,,,,,,,
,,,,,,615025cfceb970fd5d487a5d,62c53a773c3942f0dbd9d0fd,2022-07-06_09h42.25.438,Colour_Asymmetry_Pilot,2022.1.3,Win32,59.93407252,62c50e9c1127f2cd403a315f,0,99,99,93,1,threefour,,,,,,,,,,,,,,,,,,,,,,,,,,,,,,,,,,,,,,,,,,,,,,,,,,,,,,,,,,,,,,,,,,,,,,,,,,,,,,,,,,,,,,,,,,,,,,,,,,,,,,,,,,,,,,,,,,,,,,,,,,,,,,,,,,,,,,,,,,,,,,,,,,,,,,,,,,,,,
,,,,,,615025cfceb970fd5d487a5d,62c53a773c3942f0dbd9d0fd,2022-07-06_09h42.25.438,Colour_Asymmetry_Pilot,2022.1.3,Win32,59.93407252,62c50e9c1127f2cd403a315f,0,100,100,12,1,threeone,,,,,,,,,,,,,,,,,,,,,,,,,,,,,,,,,,,,,,,,,,,,,,,,,,,,,,,,,,,,,,,,,,,,,,,,,,,,,,,,,,,,,,,,,,,,,,,,,,,,,,,,,,,,,,,,,,,,,,,,,,,,,,,,,,,,,,,,,,,,,,,,,,,,,,,,,,,,,
,,,,,,615025cfceb970fd5d487a5d,62c53a773c3942f0dbd9d0fd,2022-07-06_09h42.25.438,Colour_Asymmetry_Pilot,2022.1.3,Win32,59.93407252,62c50e9c1127f2cd403a315f,0,101,101,122,1,twoone,,,,,,,,,,,,,,,,,,,,,,,,,,,,,,,,,,,,,,,,,,,,,,,,,,,,,,,,,,,,,,,,,,,,,,,,,,,,,,,,,,,,,,,,,,,,,,,,,,,,,,,,,,,,,,,,,,,,,,,,,,,,,,,,,,,,,,,,,,,,,,,,,,,,,,,,,,,,,
,,,,,,615025cfceb970fd5d487a5d,62c53a773c3942f0dbd9d0fd,2022-07-06_09h42.25.438,Colour_Asymmetry_Pilot,2022.1.3,Win32,59.93407252,62c50e9c1127f2cd403a315f,0,102,102,33,1,onethree,,,,,,,,,,,,,,,,,,,,,,,,,,,,,,,,,,,,,,,,,,,,,,,,,,,,,,,,,,,,,,,,,,,,,,,,,,,,,,,,,,,,,,,,,,,,,,,,,,,,,,,,,,,,,,,,,,,,,,,,,,,,,,,,,,,,,,,,,,,,,,,,,,,,,,,,,,,,,
,,,,,,615025cfceb970fd5d487a5d,62c53a773c3942f0dbd9d0fd,2022-07-06_09h42.25.438,Colour_Asymmetry_Pilot,2022.1.3,Win32,59.93407252,62c50e9c1127f2cd403a315f,0,103,103,16,1,onetwo,,,,,,,,,,,,,,,,,,,,,,,,,,,,,,,,,,,,,,,,,,,,,,,,,,,,,,,,,,,,,,,,,,,,,,,,,,,,,,,,,,,,,,,,,,,,,,,,,,,,,,,,,,,,,,,,,,,,,,,,,,,,,,,,,,,,,,,,,,,,,,,,,,,,,,,,,,,,,
,,,,,,615025cfceb970fd5d487a5d,62c53a773c3942f0dbd9d0fd,2022-07-06_09h42.25.438,Colour_Asymmetry_Pilot,2022.1.3,Win32,59.93407252,62c50e9c1127f2cd403a315f,0,104,104,156,1,threeone,,,,,,,,,,,,,,,,,,,,,,,,,,,,,,,,,,,,,,,,,,,,,,,,,,,,,,,,,,,,,,,,,,,,,,,,,,,,,,,,,,,,,,,,,,,,,,,,,,,,,,,,,,,,,,,,,,,,,,,,,,,,,,,,,,,,,,,,,,,,,,,,,,,,,,,,,,,,,
,,,,,,615025cfceb970fd5d487a5d,62c53a773c3942f0dbd9d0fd,2022-07-06_09h42.25.438,Colour_Asymmetry_Pilot,2022.1.3,Win32,59.93407252,62c50e9c1127f2cd403a315f,0,105,105,22,1,fourtwo,,,,,,,,,,,,,,,,,,,,,,,,,,,,,,,,,,,,,,,,,,,,,,,,,,,,,,,,,,,,,,,,,,,,,,,,,,,,,,,,,,,,,,,,,,,,,,,,,,,,,,,,,,,,,,,,,,,,,,,,,,,,,,,,,,,,,,,,,,,,,,,,,,,,,,,,,,,,,
,,,,,,615025cfceb970fd5d487a5d,62c53a773c3942f0dbd9d0fd,2022-07-06_09h42.25.438,Colour_Asymmetry_Pilot,2022.1.3,Win32,59.93407252,62c50e9c1127f2cd403a315f,0,106,106,106,1,twoone,,,,,,,,,,,,,,,,,,,,,,,,,,,,,,,,,,,,,,,,,,,,,,,,,,,,,,,,,,,,,,,,,,,,,,,,,,,,,,,,,,,,,,,,,,,,,,,,,,,,,,,,,,,,,,,,,,,,,,,,,,,,,,,,,,,,,,,,,,,,,,,,,,,,,,,,,,,,,
,,,,,,615025cfceb970fd5d487a5d,62c53a773c3942f0dbd9d0fd,2022-07-06_09h42.25.438,Colour_Asymmetry_Pilot,2022.1.3,Win32,59.93407252,62c50e9c1127f2cd403a315f,0,107,107,5,1,threefour,,,,,,,,,,,,,,,,,,,,,,,,,,,,,,,,,,,,,,,,,,,,,,,,,,,,,,,,,,,,,,,,,,,,,,,,,,,,,,,,,,,,,,,,,,,,,,,,,,,,,,,,,,,,,,,,,,,,,,,,,,,,,,,,,,,,,,,,,,,,,,,,,,,,,,,,,,,,,
,,,,,,615025cfceb970fd5d487a5d,62c53a773c3942f0dbd9d0fd,2022-07-06_09h42.25.438,Colour_Asymmetry_Pilot,2022.1.3,Win32,59.93407252,62c50e9c1127f2cd403a315f,0,108,108,60,1,threeone,,,,,,,,,,,,,,,,,,,,,,,,,,,,,,,,,,,,,,,,,,,,,,,,,,,,,,,,,,,,,,,,,,,,,,,,,,,,,,,,,,,,,,,,,,,,,,,,,,,,,,,,,,,,,,,,,,,,,,,,,,,,,,,,,,,,,,,,,,,,,,,,,,,,,,,,,,,,,
,,,,,,615025cfceb970fd5d487a5d,62c53a773c3942f0dbd9d0fd,2022-07-06_09h42.25.438,Colour_Asymmetry_Pilot,2022.1.3,Win32,59.93407252,62c50e9c1127f2cd403a315f,0,109,109,152,1,onetwo,,,,,,,,,,,,,,,,,,,,,,,,,,,,,,,,,,,,,,,,,,,,,,,,,,,,,,,,,,,,,,,,,,,,,,,,,,,,,,,,,,,,,,,,,,,,,,,,,,,,,,,,,,,,,,,,,,,,,,,,,,,,,,,,,,,,,,,,,,,,,,,,,,,,,,,,,,,,,
,,,,,,615025cfceb970fd5d487a5d,62c53a773c3942f0dbd9d0fd,2022-07-06_09h42.25.438,Colour_Asymmetry_Pilot,2022.1.3,Win32,59.93407252,62c50e9c1127f2cd403a315f,0,110,110,26,1,twoone,,,,,,,,,,,,,,,,,,,,,,,,,,,,,,,,,,,,,,,,,,,,,,,,,,,,,,,,,,,,,,,,,,,,,,,,,,,,,,,,,,,,,,,,,,,,,,,,,,,,,,,,,,,,,,,,,,,,,,,,,,,,,,,,,,,,,,,,,,,,,,,,,,,,,,,,,,,,,
,,,,,,615025cfceb970fd5d487a5d,62c53a773c3942f0dbd9d0fd,2022-07-06_09h42.25.438,Colour_Asymmetry_Pilot,2022.1.3,Win32,59.93407252,62c50e9c1127f2cd403a315f,0,111,111,43,1,twofour,,,,,,,,,,,,,,,,,,,,,,,,,,,,,,,,,,,,,,,,,,,,,,,,,,,,,,,,,,,,,,,,,,,,,,,,,,,,,,,,,,,,,,,,,,,,,,,,,,,,,,,,,,,,,,,,,,,,,,,,,,,,,,,,,,,,,,,,,,,,,,,,,,,,,,,,,,,,,
,,,,,,615025cfceb970fd5d487a5d,62c53a773c3942f0dbd9d0fd,2022-07-06_09h42.25.438,Colour_Asymmetry_Pilot,2022.1.3,Win32,59.93407252,62c50e9c1127f2cd403a315f,0,112,112,89,1,onethree,,,,,,,,,,,,,,,,,,,,,,,,,,,,,,,,,,,,,,,,,,,,,,,,,,,,,,,,,,,,,,,,,,,,,,,,,,,,,,,,,,,,,,,,,,,,,,,,,,,,,,,,,,,,,,,,,,,,,,,,,,,,,,,,,,,,,,,,,,,,,,,,,,,,,,,,,,,,,
,,,,,,615025cfceb970fd5d487a5d,62c53a773c3942f0dbd9d0fd,2022-07-06_09h42.25.438,Colour_Asymmetry_Pilot,2022.1.3,Win32,59.93407252,62c50e9c1127f2cd403a315f,0,113,113,30,1,fourtwo,,,,,,,,,,,,,,,,,,,,,,,,,,,,,,,,,,,,,,,,,,,,,,,,,,,,,,,,,,,,,,,,,,,,,,,,,,,,,,,,,,,,,,,,,,,,,,,,,,,,,,,,,,,,,,,,,,,,,,,,,,,,,,,,,,,,,,,,,,,,,,,,,,,,,,,,,,,,,
,,,,,,615025cfceb970fd5d487a5d,62c53a773c3942f0dbd9d0fd,2022-07-06_09h42.25.438,Colour_Asymmetry_Pilot,2022.1.3,Win32,59.93407252,62c50e9c1127f2cd403a315f,0,114,114,85,1,threefour,,,,,,,,,,,,,,,,,,,,,,,,,,,,,,,,,,,,,,,,,,,,,,,,,,,,,,,,,,,,,,,,,,,,,,,,,,,,,,,,,,,,,,,,,,,,,,,,,,,,,,,,,,,,,,,,,,,,,,,,,,,,,,,,,,,,,,,,,,,,,,,,,,,,,,,,,,,,,
,,,,,,615025cfceb970fd5d487a5d,62c53a773c3942f0dbd9d0fd,2022-07-06_09h42.25.438,Colour_Asymmetry_Pilot,2022.1.3,Win32,59.93407252,62c50e9c1127f2cd403a315f,0,115,115,45,1,threefour,,,,,,,,,,,,,,,,,,,,,,,,,,,,,,,,,,,,,,,,,,,,,,,,,,,,,,,,,,,,,,,,,,,,,,,,,,,,,,,,,,,,,,,,,,,,,,,,,,,,,,,,,,,,,,,,,,,,,,,,,,,,,,,,,,,,,,,,,,,,,,,,,,,,,,,,,,,,,
,,,,,,615025cfceb970fd5d487a5d,62c53a773c3942f0dbd9d0fd,2022-07-06_09h42.25.438,Colour_Asymmetry_Pilot,2022.1.3,Win32,59.93407252,62c50e9c1127f2cd403a315f,0,116,116,131,1,twofour,,,,,,,,,,,,,,,,,,,,,,,,,,,,,,,,,,,,,,,,,,,,,,,,,,,,,,,,,,,,,,,,,,,,,,,,,,,,,,,,,,,,,,,,,,,,,,,,,,,,,,,,,,,,,,,,,,,,,,,,,,,,,,,,,,,,,,,,,,,,,,,,,,,,,,,,,,,,,
,,,,,,615025cfceb970fd5d487a5d,62c53a773c3942f0dbd9d0fd,2022-07-06_09h42.25.438,Colour_Asymmetry_Pilot,2022.1.3,Win32,59.93407252,62c50e9c1127f2cd403a315f,0,117,117,39,1,fourthree,,,,,,,,,,,,,,,,,,,,,,,,,,,,,,,,,,,,,,,,,,,,,,,,,,,,,,,,,,,,,,,,,,,,,,,,,,,,,,,,,,,,,,,,,,,,,,,,,,,,,,,,,,,,,,,,,,,,,,,,,,,,,,,,,,,,,,,,,,,,,,,,,,,,,,,,,,,,,
,,,,,,615025cfceb970fd5d487a5d,62c53a773c3942f0dbd9d0fd,2022-07-06_09h42.25.438,Colour_Asymmetry_Pilot,2022.1.3,Win32,59.93407252,62c50e9c1127f2cd403a315f,0,118,118,155,1,twofour,,,,,,,,,,,,,,,,,,,,,,,,,,,,,,,,,,,,,,,,,,,,,,,,,,,,,,,,,,,,,,,,,,,,,,,,,,,,,,,,,,,,,,,,,,,,,,,,,,,,,,,,,,,,,,,,,,,,,,,,,,,,,,,,,,,,,,,,,,,,,,,,,,,,,,,,,,,,,
,,,,,,615025cfceb970fd5d487a5d,62c53a773c3942f0dbd9d0fd,2022-07-06_09h42.25.438,Colour_Asymmetry_Pilot,2022.1.3,Win32,59.93407252,62c50e9c1127f2cd403a315f,0,119,119,104,1,onetwo,,,,,,,,,,,,,,,,,,,,,,,,,,,,,,,,,,,,,,,,,,,,,,,,,,,,,,,,,,,,,,,,,,,,,,,,,,,,,,,,,,,,,,,,,,,,,,,,,,,,,,,,,,,,,,,,,,,,,,,,,,,,,,,,,,,,,,,,,,,,,,,,,,,,,,,,,,,,,
,,,,,,615025cfceb970fd5d487a5d,62c53a773c3942f0dbd9d0fd,2022-07-06_09h42.25.438,Colour_Asymmetry_Pilot,2022.1.3,Win32,59.93407252,62c50e9c1127f2cd403a315f,0,120,120,81,1,onethree,,,,,,,,,,,,,,,,,,,,,,,,,,,,,,,,,,,,,,,,,,,,,,,,,,,,,,,,,,,,,,,,,,,,,,,,,,,,,,,,,,,,,,,,,,,,,,,,,,,,,,,,,,,,,,,,,,,,,,,,,,,,,,,,,,,,,,,,,,,,,,,,,,,,,,,,,,,,,
,,,,,,615025cfceb970fd5d487a5d,62c53a773c3942f0dbd9d0fd,2022-07-06_09h42.25.438,Colour_Asymmetry_Pilot,2022.1.3,Win32,59.93407252,62c50e9c1127f2cd403a315f,0,121,121,13,1,threefour,,,,,,,,,,,,,,,,,,,,,,,,,,,,,,,,,,,,,,,,,,,,,,,,,,,,,,,,,,,,,,,,,,,,,,,,,,,,,,,,,,,,,,,,,,,,,,,,,,,,,,,,,,,,,,,,,,,,,,,,,,,,,,,,,,,,,,,,,,,,,,,,,,,,,,,,,,,,,
,,,,,,615025cfceb970fd5d487a5d,62c53a773c3942f0dbd9d0fd,2022-07-06_09h42.25.438,Colour_Asymmetry_Pilot,2022.1.3,Win32,59.93407252,62c50e9c1127f2cd403a315f,0,122,122,70,1,fourtwo,,,,,,,,,,,,,,,,,,,,,,,,,,,,,,,,,,,,,,,,,,,,,,,,,,,,,,,,,,,,,,,,,,,,,,,,,,,,,,,,,,,,,,,,,,,,,,,,,,,,,,,,,,,,,,,,,,,,,,,,,,,,,,,,,,,,,,,,,,,,,,,,,,,,,,,,,,,,,
,,,,,,615025cfceb970fd5d487a5d,62c53a773c3942f0dbd9d0fd,2022-07-06_09h42.25.438,Colour_Asymmetry_Pilot,2022.1.3,Win32,59.93407252,62c50e9c1127f2cd403a315f,0,123,123,132,1,threeone,,,,,,,,,,,,,,,,,,,,,,,,,,,,,,,,,,,,,,,,,,,,,,,,,,,,,,,,,,,,,,,,,,,,,,,,,,,,,,,,,,,,,,,,,,,,,,,,,,,,,,,,,,,,,,,,,,,,,,,,,,,,,,,,,,,,,,,,,,,,,,,,,,,,,,,,,,,,,
,,,,,,615025cfceb970fd5d487a5d,62c53a773c3942f0dbd9d0fd,2022-07-06_09h42.25.438,Colour_Asymmetry_Pilot,2022.1.3,Win32,59.93407252,62c50e9c1127f2cd403a315f,0,124,124,113,1,onethree,,,,,,,,,,,,,,,,,,,,,,,,,,,,,,,,,,,,,,,,,,,,,,,,,,,,,,,,,,,,,,,,,,,,,,,,,,,,,,,,,,,,,,,,,,,,,,,,,,,,,,,,,,,,,,,,,,,,,,,,,,,,,,,,,,,,,,,,,,,,,,,,,,,,,,,,,,,,,
,,,,,,615025cfceb970fd5d487a5d,62c53a773c3942f0dbd9d0fd,2022-07-06_09h42.25.438,Colour_Asymmetry_Pilot,2022.1.3,Win32,59.93407252,62c50e9c1127f2cd403a315f,0,125,125,83,1,twofour,,,,,,,,,,,,,,,,,,,,,,,,,,,,,,,,,,,,,,,,,,,,,,,,,,,,,,,,,,,,,,,,,,,,,,,,,,,,,,,,,,,,,,,,,,,,,,,,,,,,,,,,,,,,,,,,,,,,,,,,,,,,,,,,,,,,,,,,,,,,,,,,,,,,,,,,,,,,,
,,,,,,615025cfceb970fd5d487a5d,62c53a773c3942f0dbd9d0fd,2022-07-06_09h42.25.438,Colour_Asymmetry_Pilot,2022.1.3,Win32,59.93407252,62c50e9c1127f2cd403a315f,0,126,126,17,1,onethree,,,,,,,,,,,,,,,,,,,,,,,,,,,,,,,,,,,,,,,,,,,,,,,,,,,,,,,,,,,,,,,,,,,,,,,,,,,,,,,,,,,,,,,,,,,,,,,,,,,,,,,,,,,,,,,,,,,,,,,,,,,,,,,,,,,,,,,,,,,,,,,,,,,,,,,,,,,,,
,,,,,,615025cfceb970fd5d487a5d,62c53a773c3942f0dbd9d0fd,2022-07-06_09h42.25.438,Colour_Asymmetry_Pilot,2022.1.3,Win32,59.93407252,62c50e9c1127f2cd403a315f,0,127,127,38,1,fourtwo,,,,,,,,,,,,,,,,,,,,,,,,,,,,,,,,,,,,,,,,,,,,,,,,,,,,,,,,,,,,,,,,,,,,,,,,,,,,,,,,,,,,,,,,,,,,,,,,,,,,,,,,,,,,,,,,,,,,,,,,,,,,,,,,,,,,,,,,,,,,,,,,,,,,,,,,,,,,,
,,,,,,615025cfceb970fd5d487a5d,62c53a773c3942f0dbd9d0fd,2022-07-06_09h42.25.438,Colour_Asymmetry_Pilot,2022.1.3,Win32,59.93407252,62c50e9c1127f2cd403a315f,0,128,128,47,1,fourthree,,,,,,,,,,,,,,,,,,,,,,,,,,,,,,,,,,,,,,,,,,,,,,,,,,,,,,,,,,,,,,,,,,,,,,,,,,,,,,,,,,,,,,,,,,,,,,,,,,,,,,,,,,,,,,,,,,,,,,,,,,,,,,,,,,,,,,,,,,,,,,,,,,,,,,,,,,,,,
,,,,,,615025cfceb970fd5d487a5d,62c53a773c3942f0dbd9d0fd,2022-07-06_09h42.25.438,Colour_Asymmetry_Pilot,2022.1.3,Win32,59.93407252,62c50e9c1127f2cd403a315f,0,129,129,63,1,fourthree,,,,,,,,,,,,,,,,,,,,,,,,,,,,,,,,,,,,,,,,,,,,,,,,,,,,,,,,,,,,,,,,,,,,,,,,,,,,,,,,,,,,,,,,,,,,,,,,,,,,,,,,,,,,,,,,,,,,,,,,,,,,,,,,,,,,,,,,,,,,,,,,,,,,,,,,,,,,,
,,,,,,615025cfceb970fd5d487a5d,62c53a773c3942f0dbd9d0fd,2022-07-06_09h42.25.438,Colour_Asymmetry_Pilot,2022.1.3,Win32,59.93407252,62c50e9c1127f2cd403a315f,0,130,130,80,1,onetwo,,,,,,,,,,,,,,,,,,,,,,,,,,,,,,,,,,,,,,,,,,,,,,,,,,,,,,,,,,,,,,,,,,,,,,,,,,,,,,,,,,,,,,,,,,,,,,,,,,,,,,,,,,,,,,,,,,,,,,,,,,,,,,,,,,,,,,,,,,,,,,,,,,,,,,,,,,,,,
,,,,,,615025cfceb970fd5d487a5d,62c53a773c3942f0dbd9d0fd,2022-07-06_09h42.25.438,Colour_Asymmetry_Pilot,2022.1.3,Win32,59.93407252,62c50e9c1127f2cd403a315f,0,131,131,161,1,onethree,,,,,,,,,,,,,,,,,,,,,,,,,,,,,,,,,,,,,,,,,,,,,,,,,,,,,,,,,,,,,,,,,,,,,,,,,,,,,,,,,,,,,,,,,,,,,,,,,,,,,,,,,,,,,,,,,,,,,,,,,,,,,,,,,,,,,,,,,,,,,,,,,,,,,,,,,,,,,
,,,,,,615025cfceb970fd5d487a5d,62c53a773c3942f0dbd9d0fd,2022-07-06_09h42.25.438,Colour_Asymmetry_Pilot,2022.1.3,Win32,59.93407252,62c50e9c1127f2cd403a315f,0,132,132,103,1,fourthree,,,,,,,,,,,,,,,,,,,,,,,,,,,,,,,,,,,,,,,,,,,,,,,,,,,,,,,,,,,,,,,,,,,,,,,,,,,,,,,,,,,,,,,,,,,,,,,,,,,,,,,,,,,,,,,,,,,,,,,,,,,,,,,,,,,,,,,,,,,,,,,,,,,,,,,,,,,,,
,,,,,,615025cfceb970fd5d487a5d,62c53a773c3942f0dbd9d0fd,2022-07-06_09h42.25.438,Colour_Asymmetry_Pilot,2022.1.3,Win32,59.93407252,62c50e9c1127f2cd403a315f,0,133,133,59,1,twofour,,,,,,,,,,,,,,,,,,,,,,,,,,,,,,,,,,,,,,,,,,,,,,,,,,,,,,,,,,,,,,,,,,,,,,,,,,,,,,,,,,,,,,,,,,,,,,,,,,,,,,,,,,,,,,,,,,,,,,,,,,,,,,,,,,,,,,,,,,,,,,,,,,,,,,,,,,,,,
,,,,,,615025cfceb970fd5d487a5d,62c53a773c3942f0dbd9d0fd,2022-07-06_09h42.25.438,Colour_Asymmetry_Pilot,2022.1.3,Win32,59.93407252,62c50e9c1127f2cd403a315f,0,134,134,153,1,onethree,,,,,,,,,,,,,,,,,,,,,,,,,,,,,,,,,,,,,,,,,,,,,,,,,,,,,,,,,,,,,,,,,,,,,,,,,,,,,,,,,,,,,,,,,,,,,,,,,,,,,,,,,,,,,,,,,,,,,,,,,,,,,,,,,,,,,,,,,,,,,,,,,,,,,,,,,,,,,
,,,,,,615025cfceb970fd5d487a5d,62c53a773c3942f0dbd9d0fd,2022-07-06_09h42.25.438,Colour_Asymmetry_Pilot,2022.1.3,Win32,59.93407252,62c50e9c1127f2cd403a315f,0,135,135,56,1,onetwo,,,,,,,,,,,,,,,,,,,,,,,,,,,,,,,,,,,,,,,,,,,,,,,,,,,,,,,,,,,,,,,,,,,,,,,,,,,,,,,,,,,,,,,,,,,,,,,,,,,,,,,,,,,,,,,,,,,,,,,,,,,,,,,,,,,,,,,,,,,,,,,,,,,,,,,,,,,,,
,,,,,,615025cfceb970fd5d487a5d,62c53a773c3942f0dbd9d0fd,2022-07-06_09h42.25.438,Colour_Asymmetry_Pilot,2022.1.3,Win32,59.93407252,62c50e9c1127f2cd403a315f,0,136,136,100,1,threeone,,,,,,,,,,,,,,,,,,,,,,,,,,,,,,,,,,,,,,,,,,,,,,,,,,,,,,,,,,,,,,,,,,,,,,,,,,,,,,,,,,,,,,,,,,,,,,,,,,,,,,,,,,,,,,,,,,,,,,,,,,,,,,,,,,,,,,,,,,,,,,,,,,,,,,,,,,,,,
,,,,,,615025cfceb970fd5d487a5d,62c53a773c3942f0dbd9d0fd,2022-07-06_09h42.25.438,Colour_Asymmetry_Pilot,2022.1.3,Win32,59.93407252,62c50e9c1127f2cd403a315f,0,137,137,24,1,onetwo,,,,,,,,,,,,,,,,,,,,,,,,,,,,,,,,,,,,,,,,,,,,,,,,,,,,,,,,,,,,,,,,,,,,,,,,,,,,,,,,,,,,,,,,,,,,,,,,,,,,,,,,,,,,,,,,,,,,,,,,,,,,,,,,,,,,,,,,,,,,,,,,,,,,,,,,,,,,,
,,,,,,615025cfceb970fd5d487a5d,62c53a773c3942f0dbd9d0fd,2022-07-06_09h42.25.438,Colour_Asymmetry_Pilot,2022.1.3,Win32,59.93407252,62c50e9c1127f2cd403a315f,0,138,138,129,1,onethree,,,,,,,,,,,,,,,,,,,,,,,,,,,,,,,,,,,,,,,,,,,,,,,,,,,,,,,,,,,,,,,,,,,,,,,,,,,,,,,,,,,,,,,,,,,,,,,,,,,,,,,,,,,,,,,,,,,,,,,,,,,,,,,,,,,,,,,,,,,,,,,,,,,,,,,,,,,,,
,,,,,,615025cfceb970fd5d487a5d,62c53a773c3942f0dbd9d0fd,2022-07-06_09h42.25.438,Colour_Asymmetry_Pilot,2022.1.3,Win32,59.93407252,62c50e9c1127f2cd403a315f,0,139,139,96,1,onetwo,,,,,,,,,,,,,,,,,,,,,,,,,,,,,,,,,,,,,,,,,,,,,,,,,,,,,,,,,,,,,,,,,,,,,,,,,,,,,,,,,,,,,,,,,,,,,,,,,,,,,,,,,,,,,,,,,,,,,,,,,,,,,,,,,,,,,,,,,,,,,,,,,,,,,,,,,,,,,
,,,,,,615025cfceb970fd5d487a5d,62c53a773c3942f0dbd9d0fd,2022-07-06_09h42.25.438,Colour_Asymmetry_Pilot,2022.1.3,Win32,59.93407252,62c50e9c1127f2cd403a315f,0,140,140,49,1,onethree,,,,,,,,,,,,,,,,,,,,,,,,,,,,,,,,,,,,,,,,,,,,,,,,,,,,,,,,,,,,,,,,,,,,,,,,,,,,,,,,,,,,,,,,,,,,,,,,,,,,,,,,,,,,,,,,,,,,,,,,,,,,,,,,,,,,,,,,,,,,,,,,,,,,,,,,,,,,,
,,,,,,615025cfceb970fd5d487a5d,62c53a773c3942f0dbd9d0fd,2022-07-06_09h42.25.438,Colour_Asymmetry_Pilot,2022.1.3,Win32,59.93407252,62c50e9c1127f2cd403a315f,0,141,141,86,1,fourtwo,,,,,,,,,,,,,,,,,,,,,,,,,,,,,,,,,,,,,,,,,,,,,,,,,,,,,,,,,,,,,,,,,,,,,,,,,,,,,,,,,,,,,,,,,,,,,,,,,,,,,,,,,,,,,,,,,,,,,,,,,,,,,,,,,,,,,,,,,,,,,,,,,,,,,,,,,,,,,
,,,,,,615025cfceb970fd5d487a5d,62c53a773c3942f0dbd9d0fd,2022-07-06_09h42.25.438,Colour_Asymmetry_Pilot,2022.1.3,Win32,59.93407252,62c50e9c1127f2cd403a315f,0,142,142,37,1,threefour,,,,,,,,,,,,,,,,,,,,,,,,,,,,,,,,,,,,,,,,,,,,,,,,,,,,,,,,,,,,,,,,,,,,,,,,,,,,,,,,,,,,,,,,,,,,,,,,,,,,,,,,,,,,,,,,,,,,,,,,,,,,,,,,,,,,,,,,,,,,,,,,,,,,,,,,,,,,,
,,,,,,615025cfceb970fd5d487a5d,62c53a773c3942f0dbd9d0fd,2022-07-06_09h42.25.438,Colour_Asymmetry_Pilot,2022.1.3,Win32,59.93407252,62c50e9c1127f2cd403a315f,0,143,143,140,1,threeone,,,,,,,,,,,,,,,,,,,,,,,,,,,,,,,,,,,,,,,,,,,,,,,,,,,,,,,,,,,,,,,,,,,,,,,,,,,,,,,,,,,,,,,,,,,,,,,,,,,,,,,,,,,,,,,,,,,,,,,,,,,,,,,,,,,,,,,,,,,,,,,,,,,,,,,,,,,,,
,,,,,,615025cfceb970fd5d487a5d,62c53a773c3942f0dbd9d0fd,2022-07-06_09h42.25.438,Colour_Asymmetry_Pilot,2022.1.3,Win32,59.93407252,62c50e9c1127f2cd403a315f,0,144,144,158,1,fourtwo,,,,,,,,,,,,,,,,,,,,,,,,,,,,,,,,,,,,,,,,,,,,,,,,,,,,,,,,,,,,,,,,,,,,,,,,,,,,,,,,,,,,,,,,,,,,,,,,,,,,,,,,,,,,,,,,,,,,,,,,,,,,,,,,,,,,,,,,,,,,,,,,,,,,,,,,,,,,,
,,,,,,615025cfceb970fd5d487a5d,62c53a773c3942f0dbd9d0fd,2022-07-06_09h42.25.438,Colour_Asymmetry_Pilot,2022.1.3,Win32,59.93407252,62c50e9c1127f2cd403a315f,0,145,145,73,1,onethree,,,,,,,,,,,,,,,,,,,,,,,,,,,,,,,,,,,,,,,,,,,,,,,,,,,,,,,,,,,,,,,,,,,,,,,,,,,,,,,,,,,,,,,,,,,,,,,,,,,,,,,,,,,,,,,,,,,,,,,,,,,,,,,,,,,,,,,,,,,,,,,,,,,,,,,,,,,,,
,,,,,,615025cfceb970fd5d487a5d,62c53a773c3942f0dbd9d0fd,2022-07-06_09h42.25.438,Colour_Asymmetry_Pilot,2022.1.3,Win32,59.93407252,62c50e9c1127f2cd403a315f,0,146,146,3,1,twofour,,,,,,,,,,,,,,,,,,,,,,,,,,,,,,,,,,,,,,,,,,,,,,,,,,,,,,,,,,,,,,,,,,,,,,,,,,,,,,,,,,,,,,,,,,,,,,,,,,,,,,,,,,,,,,,,,,,,,,,,,,,,,,,,,,,,,,,,,,,,,,,,,,,,,,,,,,,,,
,,,,,,615025cfceb970fd5d487a5d,62c53a773c3942f0dbd9d0fd,2022-07-06_09h42.25.438,Colour_Asymmetry_Pilot,2022.1.3,Win32,59.93407252,62c50e9c1127f2cd403a315f,0,147,147,154,1,twoone,,,,,,,,,,,,,,,,,,,,,,,,,,,,,,,,,,,,,,,,,,,,,,,,,,,,,,,,,,,,,,,,,,,,,,,,,,,,,,,,,,,,,,,,,,,,,,,,,,,,,,,,,,,,,,,,,,,,,,,,,,,,,,,,,,,,,,,,,,,,,,,,,,,,,,,,,,,,,
,,,,,,615025cfceb970fd5d487a5d,62c53a773c3942f0dbd9d0fd,2022-07-06_09h42.25.438,Colour_Asymmetry_Pilot,2022.1.3,Win32,59.93407252,62c50e9c1127f2cd403a315f,0,148,148,98,1,twoone,,,,,,,,,,,,,,,,,,,,,,,,,,,,,,,,,,,,,,,,,,,,,,,,,,,,,,,,,,,,,,,,,,,,,,,,,,,,,,,,,,,,,,,,,,,,,,,,,,,,,,,,,,,,,,,,,,,,,,,,,,,,,,,,,,,,,,,,,,,,,,,,,,,,,,,,,,,,,
,,,,,,615025cfceb970fd5d487a5d,62c53a773c3942f0dbd9d0fd,2022-07-06_09h42.25.438,Colour_Asymmetry_Pilot,2022.1.3,Win32,59.93407252,62c50e9c1127f2cd403a315f,0,149,149,92,1,threeone,,,,,,,,,,,,,,,,,,,,,,,,,,,,,,,,,,,,,,,,,,,,,,,,,,,,,,,,,,,,,,,,,,,,,,,,,,,,,,,,,,,,,,,,,,,,,,,,,,,,,,,,,,,,,,,,,,,,,,,,,,,,,,,,,,,,,,,,,,,,,,,,,,,,,,,,,,,,,
,,,,,,615025cfceb970fd5d487a5d,62c53a773c3942f0dbd9d0fd,2022-07-06_09h42.25.438,Colour_Asymmetry_Pilot,2022.1.3,Win32,59.93407252,62c50e9c1127f2cd403a315f,0,150,150,74,1,twoone,,,,,,,,,,,,,,,,,,,,,,,,,,,,,,,,,,,,,,,,,,,,,,,,,,,,,,,,,,,,,,,,,,,,,,,,,,,,,,,,,,,,,,,,,,,,,,,,,,,,,,,,,,,,,,,,,,,,,,,,,,,,,,,,,,,,,,,,,,,,,,,,,,,,,,,,,,,,,
,,,,,,615025cfceb970fd5d487a5d,62c53a773c3942f0dbd9d0fd,2022-07-06_09h42.25.438,Colour_Asymmetry_Pilot,2022.1.3,Win32,59.93407252,62c50e9c1127f2cd403a315f,0,151,151,94,1,fourtwo,,,,,,,,,,,,,,,,,,,,,,,,,,,,,,,,,,,,,,,,,,,,,,,,,,,,,,,,,,,,,,,,,,,,,,,,,,,,,,,,,,,,,,,,,,,,,,,,,,,,,,,,,,,,,,,,,,,,,,,,,,,,,,,,,,,,,,,,,,,,,,,,,,,,,,,,,,,,,
,,,,,,615025cfceb970fd5d487a5d,62c53a773c3942f0dbd9d0fd,2022-07-06_09h42.25.438,Colour_Asymmetry_Pilot,2022.1.3,Win32,59.93407252,62c50e9c1127f2cd403a315f,0,152,152,109,1,threefour,,,,,,,,,,,,,,,,,,,,,,,,,,,,,,,,,,,,,,,,,,,,,,,,,,,,,,,,,,,,,,,,,,,,,,,,,,,,,,,,,,,,,,,,,,,,,,,,,,,,,,,,,,,,,,,,,,,,,,,,,,,,,,,,,,,,,,,,,,,,,,,,,,,,,,,,,,,,,
,,,,,,615025cfceb970fd5d487a5d,62c53a773c3942f0dbd9d0fd,2022-07-06_09h42.25.438,Colour_Asymmetry_Pilot,2022.1.3,Win32,59.93407252,62c50e9c1127f2cd403a315f,0,153,153,138,1,twoone,,,,,,,,,,,,,,,,,,,,,,,,,,,,,,,,,,,,,,,,,,,,,,,,,,,,,,,,,,,,,,,,,,,,,,,,,,,,,,,,,,,,,,,,,,,,,,,,,,,,,,,,,,,,,,,,,,,,,,,,,,,,,,,,,,,,,,,,,,,,,,,,,,,,,,,,,,,,,
,,,,,,615025cfceb970fd5d487a5d,62c53a773c3942f0dbd9d0fd,2022-07-06_09h42.25.438,Colour_Asymmetry_Pilot,2022.1.3,Win32,59.93407252,62c50e9c1127f2cd403a315f,0,154,154,11,1,twofour,,,,,,,,,,,,,,,,,,,,,,,,,,,,,,,,,,,,,,,,,,,,,,,,,,,,,,,,,,,,,,,,,,,,,,,,,,,,,,,,,,,,,,,,,,,,,,,,,,,,,,,,,,,,,,,,,,,,,,,,,,,,,,,,,,,,,,,,,,,,,,,,,,,,,,,,,,,,,
,,,,,,615025cfceb970fd5d487a5d,62c53a773c3942f0dbd9d0fd,2022-07-06_09h42.25.438,Colour_Asymmetry_Pilot,2022.1.3,Win32,59.93407252,62c50e9c1127f2cd403a315f,0,155,155,58,1,twoone,,,,,,,,,,,,,,,,,,,,,,,,,,,,,,,,,,,,,,,,,,,,,,,,,,,,,,,,,,,,,,,,,,,,,,,,,,,,,,,,,,,,,,,,,,,,,,,,,,,,,,,,,,,,,,,,,,,,,,,,,,,,,,,,,,,,,,,,,,,,,,,,,,,,,,,,,,,,,
,,,,,,615025cfceb970fd5d487a5d,62c53a773c3942f0dbd9d0fd,2022-07-06_09h42.25.438,Colour_Asymmetry_Pilot,2022.1.3,Win32,59.93407252,62c50e9c1127f2cd403a315f,0,156,156,41,1,onethree,,,,,,,,,,,,,,,,,,,,,,,,,,,,,,,,,,,,,,,,,,,,,,,,,,,,,,,,,,,,,,,,,,,,,,,,,,,,,,,,,,,,,,,,,,,,,,,,,,,,,,,,,,,,,,,,,,,,,,,,,,,,,,,,,,,,,,,,,,,,,,,,,,,,,,,,,,,,,
,,,,,,615025cfceb970fd5d487a5d,62c53a773c3942f0dbd9d0fd,2022-07-06_09h42.25.438,Colour_Asymmetry_Pilot,2022.1.3,Win32,59.93407252,62c50e9c1127f2cd403a315f,0,157,157,90,1,twoone,,,,,,,,,,,,,,,,,,,,,,,,,,,,,,,,,,,,,,,,,,,,,,,,,,,,,,,,,,,,,,,,,,,,,,,,,,,,,,,,,,,,,,,,,,,,,,,,,,,,,,,,,,,,,,,,,,,,,,,,,,,,,,,,,,,,,,,,,,,,,,,,,,,,,,,,,,,,,
,,,,,,615025cfceb970fd5d487a5d,62c53a773c3942f0dbd9d0fd,2022-07-06_09h42.25.438,Colour_Asymmetry_Pilot,2022.1.3,Win32,59.93407252,62c50e9c1127f2cd403a315f,0,158,158,115,1,twofour,,,,,,,,,,,,,,,,,,,,,,,,,,,,,,,,,,,,,,,,,,,,,,,,,,,,,,,,,,,,,,,,,,,,,,,,,,,,,,,,,,,,,,,,,,,,,,,,,,,,,,,,,,,,,,,,,,,,,,,,,,,,,,,,,,,,,,,,,,,,,,,,,,,,,,,,,,,,,
,,,,,,615025cfceb970fd5d487a5d,62c53a773c3942f0dbd9d0fd,2022-07-06_09h42.25.438,Colour_Asymmetry_Pilot,2022.1.3,Win32,59.93407252,62c50e9c1127f2cd403a315f,0,159,159,77,1,threefour,,,,,,,,,,,,,,,,,,,,,,,,,,,,,,,,,,,,,,,,,,,,,,,,,,,,,,,,,,,,,,,,,,,,,,,,,,,,,,,,,,,,,,,,,,,,,,,,,,,,,,,,,,,,,,,,,,,,,,,,,,,,,,,,,,,,,,,,,,,,,,,,,,,,,,,,,,,,,
,,,,,,615025cfceb970fd5d487a5d,62c53a773c3942f0dbd9d0fd,2022-07-06_09h42.25.438,Colour_Asymmetry_Pilot,2022.1.3,Win32,59.93407252,62c50e9c1127f2cd403a315f,0,160,160,144,1,onetwo,,,,,,,,,,,,,,,,,,,,,,,,,,,,,,,,,,,,,,,,,,,,,,,,,,,,,,,,,,,,,,,,,,,,,,,,,,,,,,,,,,,,,,,,,,,,,,,,,,,,,,,,,,,,,,,,,,,,,,,,,,,,,,,,,,,,,,,,,,,,,,,,,,,,,,,,,,,,,
,,,,,,615025cfceb970fd5d487a5d,62c53a773c3942f0dbd9d0fd,2022-07-06_09h42.25.438,Colour_Asymmetry_Pilot,2022.1.3,Win32,59.93407252,62c50e9c1127f2cd403a315f,0,161,161,9,1,onethree,,,,,,,,,,,,,,,,,,,,,,,,,,,,,,,,,,,,,,,,,,,,,,,,,,,,,,,,,,,,,,,,,,,,,,,,,,,,,,,,,,,,,,,,,,,,,,,,,,,,,,,,,,,,,,,,,,,,,,,,,,,,,,,,,,,,,,,,,,,,,,,,,,,,,,,,,,,,,
,,,,,,615025cfceb970fd5d487a5d,62c53a773c3942f0dbd9d0fd,2022-07-06_09h42.25.438,Colour_Asymmetry_Pilot,2022.1.3,Win32,59.93407252,62c50e9c1127f2cd403a315f,,,,,,,space,3.1501,space,2.5244,space,30.817,space,20.7442,space,3.5474,space,5.1031,"[0.5528,0.7409999999999999,-0.71]",threefour,"[0.9372,0.9450000000000001,0.8980000000000001]",-4,5.2346,-36,93,1,0,0,response7disk_5,0,-3,1,0,0,rectangle_8,0,-3,1,0,0,4,0,-3,1,0,0,0,0,0,0,1,,,,,,,,,,,,,,,,,,,,,,,,,,,,,,,,,,,,,,,,,,,,,,,,,,,,,,,,,,,,,,,,,,,,,,,,,,,,,,,,,,,,,,,,,,,,,,,,,,,,,,,,,,,,,,,,
,,,,,,615025cfceb970fd5d487a5d,62c53a773c3942f0dbd9d0fd,2022-07-06_09h42.25.438,Colour_Asymmetry_Pilot,2022.1.3,Win32,59.93407252,62c50e9c1127f2cd403a315f,,,,,,,,,,,,,,,,,,,"[0.40379999999999994,0.09000000000000008,0.44300000000000006]",fourtwo,"[-0.9216,-0.5529999999999999,-0.3962]",-4,2.0004,-49,82,1,0,0,response7disk_5,11,5,1,0,0,rectangle_8,41,74,1,0,0,4,-1,2,1,0,0,1,0,1,0,1,response1disk_7,7,rectangle_4,,,,,,,,,,,,,,,,,,,,,,,,,,,,,,,,,,,,,,,,,,,,,,,,,,,,,,,,,,,,,,,,,,,,,,,,,,,,,,,,,,,,,,,,,,,,,,,,,,,,,,,,,,,,,
,,,,,,615025cfceb970fd5d487a5d,62c53a773c3942f0dbd9d0fd,2022-07-06_09h42.25.438,Colour_Asymmetry_Pilot,2022.1.3,Win32,59.93407252,62c50e9c1127f2cd403a315f,,,,,,,,,,,,,,,,,,,"[0.0351999999999999,0.41159999999999997,0.0038000000000000256]",fourthree,"[0.9213999999999998,0.6391999999999998,-0.9922]",-4,1.2515,-23,88,1,0,0,response7disk_5,0,3,1,0,0,rectangle_8,0,3,1,0,0,4,0,3,1,0,0,2,0,2,0,1,,,,,,,,,,,,,,,,,,,,,,,,,,,,,,,,,,,,,,,,,,,,,,,,,,,,,,,,,,,,,,,,,,,,,,,,,,,,,,,,,,,,,,,,,,,,,,,,,,,,,,,,,,,,,,,,
,,,,,,615025cfceb970fd5d487a5d,62c53a773c3942f0dbd9d0fd,2022-07-06_09h42.25.438,Colour_Asymmetry_Pilot,2022.1.3,Win32,59.93407252,62c50e9c1127f2cd403a315f,,,,,,,,,,,,,,,,,,,"[0.5449999999999999,-0.31000000000000005,-0.0354000000000001]",twoone,"[-0.9688,-0.7412000000000001,-0.4902000000000001]",-4,1.0334,-41,89,1,0,0,response7disk_5,13,10,1,0,0,rectangle_8,30,79,1,0,0,4,-10,3,1,0,0,3,0,3,0,1,response1disk_7,7,rectangle_4,,,,,,,,,,,,,,,,,,,,,,,,,,,,,,,,,,,,,,,,,,,,,,,,,,,,,,,,,,,,,,,,,,,,,,,,,,,,,,,,,,,,,,,,,,,,,,,,,,,,,,,,,,,,,
,,,,,,615025cfceb970fd5d487a5d,62c53a773c3942f0dbd9d0fd,2022-07-06_09h42.25.438,Colour_Asymmetry_Pilot,2022.1.3,Win32,59.93407252,62c50e9c1127f2cd403a315f,,,,,,,,,,,,,,,,,,,"[0.3568,-0.20799999999999996,-0.9844]",threeone,"[0.6625999999999999,0.4980000000000002,-0.357]",-3,3.0393,-65,37,1,0,0,response7disk_5,8,9,1,0,0,rectangle_8,8,9,1,0,0,4,8,9,1,0,0,4,0,4,0,1,,,,,,,,,,,,,,,,,,,,,,,,,,,,,,,,,,,,,,,,,,,,,,,,,,,,,,,,,,,,,,,,,,,,,,,,,,,,,,,,,,,,,,,,,,,,,,,,,,,,,,,,,,,,,,,,
,,,,,,615025cfceb970fd5d487a5d,62c53a773c3942f0dbd9d0fd,2022-07-06_09h42.25.438,Colour_Asymmetry_Pilot,2022.1.3,Win32,59.93407252,62c50e9c1127f2cd403a315f,,,,,,,,,,,,,,,,,,,"[-0.34920000000000007,-0.702,-0.5216]",threeone,"[-0.011800000000000033,-0.906,-0.45100000000000007]",4,1.3679,18,58,1,0,0,response1disk_5,-13,2,1,0,0,rectangle_8,-13,2,1,0,0,4,-13,2,1,0,0,5,0,5,0,1,,,,,,,,,,,,,,,,,,,,,,,,,,,,,,,,,,,,,,,,,,,,,,,,,,,,,,,,,,,,,,,,,,,,,,,,,,,,,,,,,,,,,,,,,,,,,,,,,,,,,,,,,,,,,,,,
,,,,,,615025cfceb970fd5d487a5d,62c53a773c3942f0dbd9d0fd,2022-07-06_09h42.25.438,Colour_Asymmetry_Pilot,2022.1.3,Win32,59.93407252,62c50e9c1127f2cd403a315f,,,,,,,,,,,,,,,,,,,"[0.8115999999999999,-0.0040000000000000036,-0.09819999999999995]",onetwo,"[-0.6,0.16860000000000008,0.44300000000000006]",-4,0.9992,-41,78,1,0,0,response7disk_5,-1,6,1,0,0,rectangle_8,-1,6,1,0,0,4,-1,6,1,0,0,6,0,6,0,1,,,,,,,,,,,,,,,,,,,,,,,,,,,,,,,,,,,,,,,,,,,,,,,,,,,,,,,,,,,,,,,,,,,,,,,,,,,,,,,,,,,,,,,,,,,,,,,,,,,,,,,,,,,,,,,,
,,,,,,615025cfceb970fd5d487a5d,62c53a773c3942f0dbd9d0fd,2022-07-06_09h42.25.438,Colour_Asymmetry_Pilot,2022.1.3,Win32,59.93407252,62c50e9c1127f2cd403a315f,,,,,,,,,,,,,,,,,,,,threeone,,-4,0.9515,,,,,,,,,,,,,,,,,,,,,,,,,,,,,,,,space,4.3443,"[-0.20799999999999996,-0.655,-0.01980000000000004]","[0.0351999999999999,0.41159999999999997,0.0038000000000000256]",-28,101,1,0,0,response7disk,7,6,1,0,0,rectangle,7,6,1,0,0,,3,0.0042,0,7,6,1,0,0,0,0,0,119,1,38,second,,,,,,,,,,,,,,,,,,,,,,,,,,,,,,,,,,,,,,,,,,,,,,,,,,,,,,,,,,,,,,,,,,,,,,,,
,,,,,,615025cfceb970fd5d487a5d,62c53a773c3942f0dbd9d0fd,2022-07-06_09h42.25.438,Colour_Asymmetry_Pilot,2022.1.3,Win32,59.93407252,62c50e9c1127f2cd403a315f,,,,,,,,,,,,,,,,,,,,onethree,,-4,0.3996,,,,,,,,,,,,,,,,,,,,,,,,,,,,,,,,,,"[0.05879999999999996,0.2784,0.5841999999999998]","[-0.07459999999999989,0.12139999999999995,-0.9922]",-53,82,1,0,0,response7disk,-15,5,1,0,0,rectangle,-15,5,1,0,0,,3,0.0007,0,-15,5,1,0,0,0,1,1,135,1,54,second,,,,,,,,,,,,,,,,,,,,,,,,,,,,,,,,,,,,,,,,,,,,,,,,,,,,,,,,,,,,,,,,,,,,,,,,
,,,,,,615025cfceb970fd5d487a5d,62c53a773c3942f0dbd9d0fd,2022-07-06_09h42.25.438,Colour_Asymmetry_Pilot,2022.1.3,Win32,59.93407252,62c50e9c1127f2cd403a315f,,,,,,,,,,,,,,,,,,,,threefour,,-4,0.45,,,,,,,,,,,,,,,,,,,,,,,,,,,,,,,,,,"[-0.9138,-0.5296000000000001,-0.5529999999999999]","[0.3881999999999999,-0.23939999999999995,-0.05040000000000011]",-28,78,1,0,0,response7disk,5,8,1,0,0,rectangle,5,8,1,0,0,,2,0.0027,0,5,8,1,0,0,0,2,2,56,1,56,first,,,,,,,,,,,,,,,,,,,,,,,,,,,,,,,,,,,,,,,,,,,,,,,,,,,,,,,,,,,,,,,,,,,,,,,,
,,,,,,615025cfceb970fd5d487a5d,62c53a773c3942f0dbd9d0fd,2022-07-06_09h42.25.438,Colour_Asymmetry_Pilot,2022.1.3,Win32,59.93407252,62c50e9c1127f2cd403a315f,,,,,,,,,,,,,,,,,,,,fourtwo,,-4,0.4854,,,,,,,,,,,,,,,,,,,,,,,,,,,,,,,,,,"[0.7646000000000002,0.07440000000000002,0.2704]","[-0.9688,-0.4902000000000001,-0.12159999999999993]",-20,92,1,0,0,response7disk,0,7,1,0,0,rectangle,0,7,1,0,0,,1,0.005,0,0,7,1,0,0,0,3,3,67,1,67,first,,,,,,,,,,,,,,,,,,,,,,,,,,,,,,,,,,,,,,,,,,,,,,,,,,,,,,,,,,,,,,,,,,,,,,,,
,,,,,,615025cfceb970fd5d487a5d,62c53a773c3942f0dbd9d0fd,2022-07-06_09h42.25.438,Colour_Asymmetry_Pilot,2022.1.3,Win32,59.93407252,62c50e9c1127f2cd403a315f,,,,,,,,,,,,,,,,,,,,fourtwo,,4,0.4667,,,,,,,,,,,,,,,,,,,,,,,,,,,,,,,,,,"[0.3568,-0.20799999999999996,-0.9844]","[0.3568,-0.20799999999999996,-0.9844]",38,89,1,0,0,response1disk,6,4,1,0,0,rectangle,6,4,1,0,0,,1,0.0013,0,6,4,1,0,0,0,4,4,143,1,62,second,,,,,,,,,,,,,,,,,,,,,,,,,,,,,,,,,,,,,,,,,,,,,,,,,,,,,,,,,,,,,,,,,,,,,,,,
,,,,,,615025cfceb970fd5d487a5d,62c53a773c3942f0dbd9d0fd,2022-07-06_09h42.25.438,Colour_Asymmetry_Pilot,2022.1.3,Win32,59.93407252,62c50e9c1127f2cd403a315f,,,,,,,,,,,,,,,,,,,,onetwo,,-4,0.4831,,,,,,,,,,,,,,,,,,,,,,,,,,,,,,,,,,"[-0.24719999999999998,-0.0354000000000001,0.3175999999999999]","[0.30180000000000007,-0.7884,-0.9844]",-31,77,1,0,0,response7disk,-4,4,1,0,0,rectangle,-4,4,1,0,0,,2,0.0017,0,-4,4,1,0,0,0,5,5,150,1,69,second,,,,,,,,,,,,,,,,,,,,,,,,,,,,,,,,,,,,,,,,,,,,,,,,,,,,,,,,,,,,,,,,,,,,,,,,
,,,,,,615025cfceb970fd5d487a5d,62c53a773c3942f0dbd9d0fd,2022-07-06_09h42.25.438,Colour_Asymmetry_Pilot,2022.1.3,Win32,59.93407252,62c50e9c1127f2cd403a315f,,,,,,,,,,,,,,,,,,,,onetwo,,-4,0.4811,,,,,,,,,,,,,,,,,,,,,,,,,,,,,,,,,,"[0.04299999999999993,0.16060000000000008,-0.6628000000000001]","[-0.2942,-0.24719999999999998,-0.357]",-36,75,1,0,0,response7disk,-15,2,1,0,0,rectangle,-15,2,1,0,0,,3,0.0021,0,-15,2,1,0,0,0,6,6,103,1,22,second,,,,,,,,,,,,,,,,,,,,,,,,,,,,,,,,,,,,,,,,,,,,,,,,,,,,,,,,,,,,,,,,,,,,,,,,
,,,,,,615025cfceb970fd5d487a5d,62c53a773c3942f0dbd9d0fd,2022-07-06_09h42.25.438,Colour_Asymmetry_Pilot,2022.1.3,Win32,59.93407252,62c50e9c1127f2cd403a315f,,,,,,,,,,,,,,,,,,,,twofour,,-4,0.5164,,,,,,,,,,,,,,,,,,,,,,,,,,,,,,,,,,"[-0.5922000000000001,-0.7492000000000001,-0.5296000000000001]","[0.3568,-0.20799999999999996,-0.9844]",-35,78,1,0,0,response7disk,-9,1,1,0,0,rectangle,-9,1,1,0,0,,2,0.0021,0,-9,1,1,0,0,0,7,7,115,1,34,second,,,,,,,,,,,,,,,,,,,,,,,,,,,,,,,,,,,,,,,,,,,,,,,,,,,,,,,,,,,,,,,,,,,,,,,,
,,,,,,615025cfceb970fd5d487a5d,62c53a773c3942f0dbd9d0fd,2022-07-06_09h42.25.438,Colour_Asymmetry_Pilot,2022.1.3,Win32,59.93407252,62c50e9c1127f2cd403a315f,,,,,,,,,,,,,,,,,,,,twofour,,-3,1.033,,,,,,,,,,,,,,,,,,,,,,,,,,,,,,,,,,"[0.9763999999999999,0.8588,-0.05900000000000005]","[0.796,0.2156,-0.27859999999999996]",-79,31,1,0,0,response7disk,0,9,1,0,0,rectangle,0,9,1,0,0,,3,0.0024,0,0,9,1,0,0,0,8,8,46,1,46,first,,,,,,,,,,,,,,,,,,,,,,,,,,,,,,,,,,,,,,,,,,,,,,,,,,,,,,,,,,,,,,,,,,,,,,,,
,,,,,,615025cfceb970fd5d487a5d,62c53a773c3942f0dbd9d0fd,2022-07-06_09h42.25.438,Colour_Asymmetry_Pilot,2022.1.3,Win32,59.93407252,62c50e9c1127f2cd403a315f,,,,,,,,,,,,,,,,,,,,twofour,,-4,0.45,,,,,,,,,,,,,,,,,,,,,,,,,,,,,,,,,,"[0.8115999999999999,-0.0040000000000000036,-0.09819999999999995]","[0.09799999999999986,-0.24719999999999998,0.15280000000000005]",-30,74,1,0,0,response7disk,-9,2,1,0,0,rectangle,-9,2,1,0,0,,3,0.0004,0,-9,2,1,0,0,0,9,9,33,1,33,first,,,,,,,,,,,,,,,,,,,,,,,,,,,,,,,,,,,,,,,,,,,,,,,,,,,,,,,,,,,,,,,,,,,,,,,,
,,,,,,615025cfceb970fd5d487a5d,62c53a773c3942f0dbd9d0fd,2022-07-06_09h42.25.438,Colour_Asymmetry_Pilot,2022.1.3,Win32,59.93407252,62c50e9c1127f2cd403a315f,,,,,,,,,,,,,,,,,,,,fourtwo,,-4,0.4009,,,,,,,,,,,,,,,,,,,,,,,,,,,,,,,,,,"[0.796,0.2156,-0.27859999999999996]","[-0.5922000000000001,-0.7492000000000001,-0.5296000000000001]",-36,64,1,0,0,response7disk,-15,4,1,0,0,rectangle,-15,4,1,0,0,,3,0.0003,0,-15,4,1,0,0,0,10,10,158,1,77,second,,,,,,,,,,,,,,,,,,,,,,,,,,,,,,,,,,,,,,,,,,,,,,,,,,,,,,,,,,,,,,,,,,,,,,,,
,,,,,,615025cfceb970fd5d487a5d,62c53a773c3942f0dbd9d0fd,2022-07-06_09h42.25.438,Colour_Asymmetry_Pilot,2022.1.3,Win32,59.93407252,62c50e9c1127f2cd403a315f,,,,,,,,,,,,,,,,,,,,fourthree,,-4,0.3334,,,,,,,,,,,,,,,,,,,,,,,,,,,,,,,,,,"[-0.7412000000000001,-0.08239999999999992,-0.6864]","[0.5528,0.7409999999999999,-0.71]",-30,56,1,0,0,response7disk,-12,3,1,0,0,rectangle,44,-92,1,0,0,1,1,3.115,1,-15,8,1,0,0,0,11,11,11,1,11,first,response3disk_3,rectangle,,,,,,,,,,,,,,,,,,,,,,,,,,,,,,,,,,,,,,,,,,,,,,,,,,,,,,,,,,,,,,,,,,,,,,
,,,,,,615025cfceb970fd5d487a5d,62c53a773c3942f0dbd9d0fd,2022-07-06_09h42.25.438,Colour_Asymmetry_Pilot,2022.1.3,Win32,59.93407252,62c50e9c1127f2cd403a315f,,,,,,,,,,,,,,,,,,,,threefour,,-3,0.7999,,,,,,,,,,,,,,,,,,,,,,,,,,,,,,,,,,"[-0.8198,-0.5138,-0.7492000000000001]","[-0.17659999999999998,0.3253999999999999,0.19999999999999996]",-64,25,1,0,0,response7disk,4,-3,1,0,0,rectangle,4,-3,1,0,0,1,2,0.0027,0,4,-3,1,0,0,0,12,12,31,1,31,first,,,,,,,,,,,,,,,,,,,,,,,,,,,,,,,,,,,,,,,,,,,,,,,,,,,,,,,,,,,,,,,,,,,,,,,,
,,,,,,615025cfceb970fd5d487a5d,62c53a773c3942f0dbd9d0fd,2022-07-06_09h42.25.438,Colour_Asymmetry_Pilot,2022.1.3,Win32,59.93407252,62c50e9c1127f2cd403a315f,,,,,,,,,,,,,,,,,,,,threefour,,-4,0.6308,,,,,,,,,,,,,,,,,,,,,,,,,,,,,,,,,,"[1,0.12939999999999996,-1]","[-0.20799999999999996,-0.655,-0.01980000000000004]",-45,75,1,0,0,response7disk,3,-7,1,0,0,rectangle,3,-7,1,0,0,1,2,0.0017,0,3,-7,1,0,0,0,13,13,29,1,29,first,,,,,,,,,,,,,,,,,,,,,,,,,,,,,,,,,,,,,,,,,,,,,,,,,,,,,,,,,,,,,,,,,,,,,,,,
,,,,,,615025cfceb970fd5d487a5d,62c53a773c3942f0dbd9d0fd,2022-07-06_09h42.25.438,Colour_Asymmetry_Pilot,2022.1.3,Win32,59.93407252,62c50e9c1127f2cd403a315f,,,,,,,,,,,,,,,,,,,,fourthree,,-4,12.8162,,,,,,,,,,,,,,,,,,,,,,,,,,,,,,,,,,"[0.34099999999999997,0.5841999999999998,-0.9844]","[0.11359999999999992,0.6312,0.5213999999999999]",-37,68,1,0,0,response7disk,3,0,1,0,0,rectangle,3,0,1,0,0,1,3,0.0033,0,3,0,1,0,0,0,14,14,73,1,73,first,,,,,,,,,,,,,,,,,,,,,,,,,,,,,,,,,,,,,,,,,,,,,,,,,,,,,,,,,,,,,,,,,,,,,,,,
,,,,,,615025cfceb970fd5d487a5d,62c53a773c3942f0dbd9d0fd,2022-07-06_09h42.25.438,Colour_Asymmetry_Pilot,2022.1.3,Win32,59.93407252,62c50e9c1127f2cd403a315f,,,,,,,,,,,,,,,,,,,,twoone,,-4,0.3829,,,,,,,,,,,,,,,,,,,,,,,,,,,,,,,,,,"[-0.20799999999999996,-0.655,-0.01980000000000004]","[0.9686000000000001,0.3802000000000001,0.19999999999999996]",-53,97,1,0,0,response7disk,5,5,1,0,0,rectangle,5,5,1,0,0,1,1,0.0026,0,5,5,1,0,0,0,15,15,145,1,64,second,,,,,,,,,,,,,,,,,,,,,,,,,,,,,,,,,,,,,,,,,,,,,,,,,,,,,,,,,,,,,,,,,,,,,,,,
,,,,,,615025cfceb970fd5d487a5d,62c53a773c3942f0dbd9d0fd,2022-07-06_09h42.25.438,Colour_Asymmetry_Pilot,2022.1.3,Win32,59.93407252,62c50e9c1127f2cd403a315f,,,,,,,,,,,,,,,,,,,,threefour,,-2,2.7996,,,,,,,,,,,,,,,,,,,,,,,,,,,,,,,,,,"[-0.20799999999999996,-0.655,-0.01980000000000004]","[-0.38039999999999996,-0.4276,-0.1452]",-64,-33,1,0,0,response5disk,10,7,1,0,0,rectangle,10,7,1,0,0,1,1,0.0005,0,10,7,1,0,0,0,16,16,105,1,24,second,,,,,,,,,,,,,,,,,,,,,,,,,,,,,,,,,,,,,,,,,,,,,,,,,,,,,,,,,,,,,,,,,,,,,,,,
