trials.thisRepN,trials.thisTrialN,trials.thisN,trials.thisIndex,trials.ran,Colourcodes,participant,session,date,expName,psychopyVersion,OS,frameRate,study_id,trials_4.thisRepN,trials_4.thisTrialN,trials_4.thisN,trials_4.thisIndex,trials_4.ran,StimulusPos,key_resp.keys,key_resp.rt,key_resp_2.keys,key_resp_2.rt,key_resp_15.keys,key_resp_15.rt,key_resp_17.keys,key_resp_17.rt,key_resp_9.keys,key_resp_9.rt,key_resp_10.keys,key_resp_10.rt,Circle1_col,Ecc,Circle2_col,similarity,response_time,mouse_5.x,mouse_5.y,mouse_5.leftButton,mouse_5.midButton,mouse_5.rightButton,mouse_5.clicked_name,mouse_10.x,mouse_10.y,mouse_10.leftButton,mouse_10.midButton,mouse_10.rightButton,mouse_10.clicked_name,mouse_7.x,mouse_7.y,mouse_7.leftButton,mouse_7.midButton,mouse_7.rightButton,mouse_7.clicked_name,catchprac,catchnumberprac,mouse_6.x,mouse_6.y,mouse_6.leftButton,mouse_6.midButton,mouse_6.rightButton,mouse_6.clicked_name,duringprac.thisRepN,duringprac.thisTrialN,duringprac.thisN,duringprac.thisIndex,duringprac.ran,key_resp_22.keys,key_resp_22.rt,Circle1_colour,Circle2_colour,mouse.x,mouse.y,mouse.leftButton,mouse.midButton,mouse.rightButton,mouse.clicked_name,mouse_2.x,mouse_2.y,mouse_2.leftButton,mouse_2.midButton,mouse_2.rightButton,mouse_2.clicked_name,mouse_3.x,mouse_3.y,mouse_3.leftButton,mouse_3.midButton,mouse_3.rightButton,catchresponse,catchnumber,response_time_catch,Catch,mouse_11.x,mouse_11.y,mouse_11.leftButton,mouse_11.midButton,mouse_11.rightButton,trials_2.thisRepN,trials_2.thisTrialN,trials_2.thisN,trials_2.thisIndex,trials_2.ran,Colourpair,Temporder,mouse_3.clicked_name,mouse_11.clicked_name,trials_3.thisRepN,trials_3.thisTrialN,trials_3.thisN,trials_3.thisIndex,trials_3.ran,key_resp_instr_Ishi.keys,key_resp_instr_Ishi.rt,Ishi_trial_keyresp.keys,Ishi_textbox.text,Ishi_mouse.x,Ishi_mouse.y,Ishi_mouse.leftButton,Ishi_mouse.midButton,Ishi_mouse.rightButton,Ishi_mouse.clicked_name,Ishi_loop.thisRepN,Ishi_loop.thisTrialN,Ishi_loop.thisN,Ishi_loop.thisIndex,Ishi_loop.ran,imageaddress,textbox.text,mouse_4.x,mouse_4.y,mouse_4.leftButton,mouse_4.midButton,mouse_4.rightButton,mouse_4.clicked_name,textbox_2.text,mouse_8.x,mouse_8.y,mouse_8.leftButton,mouse_8.midButton,mouse_8.rightButton,mouse_8.clicked_name,textbox_3.text,mouse_9.x,mouse_9.y,mouse_9.leftButton,mouse_9.midButton,mouse_9.rightButton,mouse_9.clicked_name,textbox_4.text,mouse_12.x,mouse_12.y,mouse_12.leftButton,mouse_12.midButton,mouse_12.rightButton,mouse_12.clicked_name,textbox_5.text,mouse_13.x,mouse_13.y,mouse_13.leftButton,mouse_13.midButton,mouse_13.rightButton,mouse_13.clicked_name,textbox_6.text,mouse_14.x,mouse_14.y,mouse_14.leftButton,mouse_14.midButton,mouse_14.rightButton,mouse_14.clicked_name,textbox_7.text,mouse_15.x,mouse_15.y,mouse_15.leftButton,mouse_15.midButton,mouse_15.rightButton,mouse_15.clicked_name
0,0,0,45,1,,608ddb1cc919e2385b9868f6,62c53aa445a7cef4ce9fa9ac,2022-07-06_08h33.32.495,Colour_Asymmetry_Pilot,2022.1.3,Win32,60.05645307,62c50e9c1127f2cd403a315f,,,,,,,,,,,,,,,,,,,,,,,,,,,,,,,,,,,,,,,,,,,,,,,,,,,,,,,,,,,,,,,,,,,,,,,,,,,,,,,,,,,,,,,,,,,,,,,,,,,,,,,,,,,,,,,,,,,,,,,,,,,,,,,,,,,,,,,,,,,,,,,,,,,,,,,,,,,,,,,,,,,
0,1,1,55,1,,608ddb1cc919e2385b9868f6,62c53aa445a7cef4ce9fa9ac,2022-07-06_08h33.32.495,Colour_Asymmetry_Pilot,2022.1.3,Win32,60.05645307,62c50e9c1127f2cd403a315f,,,,,,,,,,,,,,,,,,,,,,,,,,,,,,,,,,,,,,,,,,,,,,,,,,,,,,,,,,,,,,,,,,,,,,,,,,,,,,,,,,,,,,,,,,,,,,,,,,,,,,,,,,,,,,,,,,,,,,,,,,,,,,,,,,,,,,,,,,,,,,,,,,,,,,,,,,,,,,,,,,,
0,2,2,8,1,,608ddb1cc919e2385b9868f6,62c53aa445a7cef4ce9fa9ac,2022-07-06_08h33.32.495,Colour_Asymmetry_Pilot,2022.1.3,Win32,60.05645307,62c50e9c1127f2cd403a315f,,,,,,,,,,,,,,,,,,,,,,,,,,,,,,,,,,,,,,,,,,,,,,,,,,,,,,,,,,,,,,,,,,,,,,,,,,,,,,,,,,,,,,,,,,,,,,,,,,,,,,,,,,,,,,,,,,,,,,,,,,,,,,,,,,,,,,,,,,,,,,,,,,,,,,,,,,,,,,,,,,,
0,3,3,52,1,,608ddb1cc919e2385b9868f6,62c53aa445a7cef4ce9fa9ac,2022-07-06_08h33.32.495,Colour_Asymmetry_Pilot,2022.1.3,Win32,60.05645307,62c50e9c1127f2cd403a315f,,,,,,,,,,,,,,,,,,,,,,,,,,,,,,,,,,,,,,,,,,,,,,,,,,,,,,,,,,,,,,,,,,,,,,,,,,,,,,,,,,,,,,,,,,,,,,,,,,,,,,,,,,,,,,,,,,,,,,,,,,,,,,,,,,,,,,,,,,,,,,,,,,,,,,,,,,,,,,,,,,,
0,4,4,89,1,,608ddb1cc919e2385b9868f6,62c53aa445a7cef4ce9fa9ac,2022-07-06_08h33.32.495,Colour_Asymmetry_Pilot,2022.1.3,Win32,60.05645307,62c50e9c1127f2cd403a315f,,,,,,,,,,,,,,,,,,,,,,,,,,,,,,,,,,,,,,,,,,,,,,,,,,,,,,,,,,,,,,,,,,,,,,,,,,,,,,,,,,,,,,,,,,,,,,,,,,,,,,,,,,,,,,,,,,,,,,,,,,,,,,,,,,,,,,,,,,,,,,,,,,,,,,,,,,,,,,,,,,,
0,5,5,68,1,,608ddb1cc919e2385b9868f6,62c53aa445a7cef4ce9fa9ac,2022-07-06_08h33.32.495,Colour_Asymmetry_Pilot,2022.1.3,Win32,60.05645307,62c50e9c1127f2cd403a315f,,,,,,,,,,,,,,,,,,,,,,,,,,,,,,,,,,,,,,,,,,,,,,,,,,,,,,,,,,,,,,,,,,,,,,,,,,,,,,,,,,,,,,,,,,,,,,,,,,,,,,,,,,,,,,,,,,,,,,,,,,,,,,,,,,,,,,,,,,,,,,,,,,,,,,,,,,,,,,,,,,,
0,6,6,74,1,,608ddb1cc919e2385b9868f6,62c53aa445a7cef4ce9fa9ac,2022-07-06_08h33.32.495,Colour_Asymmetry_Pilot,2022.1.3,Win32,60.05645307,62c50e9c1127f2cd403a315f,,,,,,,,,,,,,,,,,,,,,,,,,,,,,,,,,,,,,,,,,,,,,,,,,,,,,,,,,,,,,,,,,,,,,,,,,,,,,,,,,,,,,,,,,,,,,,,,,,,,,,,,,,,,,,,,,,,,,,,,,,,,,,,,,,,,,,,,,,,,,,,,,,,,,,,,,,,,,,,,,,,
0,7,7,91,1,,608ddb1cc919e2385b9868f6,62c53aa445a7cef4ce9fa9ac,2022-07-06_08h33.32.495,Colour_Asymmetry_Pilot,2022.1.3,Win32,60.05645307,62c50e9c1127f2cd403a315f,,,,,,,,,,,,,,,,,,,,,,,,,,,,,,,,,,,,,,,,,,,,,,,,,,,,,,,,,,,,,,,,,,,,,,,,,,,,,,,,,,,,,,,,,,,,,,,,,,,,,,,,,,,,,,,,,,,,,,,,,,,,,,,,,,,,,,,,,,,,,,,,,,,,,,,,,,,,,,,,,,,
0,8,8,25,1,,608ddb1cc919e2385b9868f6,62c53aa445a7cef4ce9fa9ac,2022-07-06_08h33.32.495,Colour_Asymmetry_Pilot,2022.1.3,Win32,60.05645307,62c50e9c1127f2cd403a315f,,,,,,,,,,,,,,,,,,,,,,,,,,,,,,,,,,,,,,,,,,,,,,,,,,,,,,,,,,,,,,,,,,,,,,,,,,,,,,,,,,,,,,,,,,,,,,,,,,,,,,,,,,,,,,,,,,,,,,,,,,,,,,,,,,,,,,,,,,,,,,,,,,,,,,,,,,,,,,,,,,,
0,9,9,21,1,,608ddb1cc919e2385b9868f6,62c53aa445a7cef4ce9fa9ac,2022-07-06_08h33.32.495,Colour_Asymmetry_Pilot,2022.1.3,Win32,60.05645307,62c50e9c1127f2cd403a315f,,,,,,,,,,,,,,,,,,,,,,,,,,,,,,,,,,,,,,,,,,,,,,,,,,,,,,,,,,,,,,,,,,,,,,,,,,,,,,,,,,,,,,,,,,,,,,,,,,,,,,,,,,,,,,,,,,,,,,,,,,,,,,,,,,,,,,,,,,,,,,,,,,,,,,,,,,,,,,,,,,,
0,10,10,83,1,,608ddb1cc919e2385b9868f6,62c53aa445a7cef4ce9fa9ac,2022-07-06_08h33.32.495,Colour_Asymmetry_Pilot,2022.1.3,Win32,60.05645307,62c50e9c1127f2cd403a315f,,,,,,,,,,,,,,,,,,,,,,,,,,,,,,,,,,,,,,,,,,,,,,,,,,,,,,,,,,,,,,,,,,,,,,,,,,,,,,,,,,,,,,,,,,,,,,,,,,,,,,,,,,,,,,,,,,,,,,,,,,,,,,,,,,,,,,,,,,,,,,,,,,,,,,,,,,,,,,,,,,,
0,11,11,90,1,,608ddb1cc919e2385b9868f6,62c53aa445a7cef4ce9fa9ac,2022-07-06_08h33.32.495,Colour_Asymmetry_Pilot,2022.1.3,Win32,60.05645307,62c50e9c1127f2cd403a315f,,,,,,,,,,,,,,,,,,,,,,,,,,,,,,,,,,,,,,,,,,,,,,,,,,,,,,,,,,,,,,,,,,,,,,,,,,,,,,,,,,,,,,,,,,,,,,,,,,,,,,,,,,,,,,,,,,,,,,,,,,,,,,,,,,,,,,,,,,,,,,,,,,,,,,,,,,,,,,,,,,,
0,12,12,70,1,,608ddb1cc919e2385b9868f6,62c53aa445a7cef4ce9fa9ac,2022-07-06_08h33.32.495,Colour_Asymmetry_Pilot,2022.1.3,Win32,60.05645307,62c50e9c1127f2cd403a315f,,,,,,,,,,,,,,,,,,,,,,,,,,,,,,,,,,,,,,,,,,,,,,,,,,,,,,,,,,,,,,,,,,,,,,,,,,,,,,,,,,,,,,,,,,,,,,,,,,,,,,,,,,,,,,,,,,,,,,,,,,,,,,,,,,,,,,,,,,,,,,,,,,,,,,,,,,,,,,,,,,,
0,13,13,32,1,,608ddb1cc919e2385b9868f6,62c53aa445a7cef4ce9fa9ac,2022-07-06_08h33.32.495,Colour_Asymmetry_Pilot,2022.1.3,Win32,60.05645307,62c50e9c1127f2cd403a315f,,,,,,,,,,,,,,,,,,,,,,,,,,,,,,,,,,,,,,,,,,,,,,,,,,,,,,,,,,,,,,,,,,,,,,,,,,,,,,,,,,,,,,,,,,,,,,,,,,,,,,,,,,,,,,,,,,,,,,,,,,,,,,,,,,,,,,,,,,,,,,,,,,,,,,,,,,,,,,,,,,,
0,14,14,15,1,,608ddb1cc919e2385b9868f6,62c53aa445a7cef4ce9fa9ac,2022-07-06_08h33.32.495,Colour_Asymmetry_Pilot,2022.1.3,Win32,60.05645307,62c50e9c1127f2cd403a315f,,,,,,,,,,,,,,,,,,,,,,,,,,,,,,,,,,,,,,,,,,,,,,,,,,,,,,,,,,,,,,,,,,,,,,,,,,,,,,,,,,,,,,,,,,,,,,,,,,,,,,,,,,,,,,,,,,,,,,,,,,,,,,,,,,,,,,,,,,,,,,,,,,,,,,,,,,,,,,,,,,,
0,15,15,75,1,,608ddb1cc919e2385b9868f6,62c53aa445a7cef4ce9fa9ac,2022-07-06_08h33.32.495,Colour_Asymmetry_Pilot,2022.1.3,Win32,60.05645307,62c50e9c1127f2cd403a315f,,,,,,,,,,,,,,,,,,,,,,,,,,,,,,,,,,,,,,,,,,,,,,,,,,,,,,,,,,,,,,,,,,,,,,,,,,,,,,,,,,,,,,,,,,,,,,,,,,,,,,,,,,,,,,,,,,,,,,,,,,,,,,,,,,,,,,,,,,,,,,,,,,,,,,,,,,,,,,,,,,,
0,16,16,49,1,,608ddb1cc919e2385b9868f6,62c53aa445a7cef4ce9fa9ac,2022-07-06_08h33.32.495,Colour_Asymmetry_Pilot,2022.1.3,Win32,60.05645307,62c50e9c1127f2cd403a315f,,,,,,,,,,,,,,,,,,,,,,,,,,,,,,,,,,,,,,,,,,,,,,,,,,,,,,,,,,,,,,,,,,,,,,,,,,,,,,,,,,,,,,,,,,,,,,,,,,,,,,,,,,,,,,,,,,,,,,,,,,,,,,,,,,,,,,,,,,,,,,,,,,,,,,,,,,,,,,,,,,,
0,17,17,17,1,,608ddb1cc919e2385b9868f6,62c53aa445a7cef4ce9fa9ac,2022-07-06_08h33.32.495,Colour_Asymmetry_Pilot,2022.1.3,Win32,60.05645307,62c50e9c1127f2cd403a315f,,,,,,,,,,,,,,,,,,,,,,,,,,,,,,,,,,,,,,,,,,,,,,,,,,,,,,,,,,,,,,,,,,,,,,,,,,,,,,,,,,,,,,,,,,,,,,,,,,,,,,,,,,,,,,,,,,,,,,,,,,,,,,,,,,,,,,,,,,,,,,,,,,,,,,,,,,,,,,,,,,,
0,18,18,29,1,,608ddb1cc919e2385b9868f6,62c53aa445a7cef4ce9fa9ac,2022-07-06_08h33.32.495,Colour_Asymmetry_Pilot,2022.1.3,Win32,60.05645307,62c50e9c1127f2cd403a315f,,,,,,,,,,,,,,,,,,,,,,,,,,,,,,,,,,,,,,,,,,,,,,,,,,,,,,,,,,,,,,,,,,,,,,,,,,,,,,,,,,,,,,,,,,,,,,,,,,,,,,,,,,,,,,,,,,,,,,,,,,,,,,,,,,,,,,,,,,,,,,,,,,,,,,,,,,,,,,,,,,,
0,19,19,19,1,,608ddb1cc919e2385b9868f6,62c53aa445a7cef4ce9fa9ac,2022-07-06_08h33.32.495,Colour_Asymmetry_Pilot,2022.1.3,Win32,60.05645307,62c50e9c1127f2cd403a315f,,,,,,,,,,,,,,,,,,,,,,,,,,,,,,,,,,,,,,,,,,,,,,,,,,,,,,,,,,,,,,,,,,,,,,,,,,,,,,,,,,,,,,,,,,,,,,,,,,,,,,,,,,,,,,,,,,,,,,,,,,,,,,,,,,,,,,,,,,,,,,,,,,,,,,,,,,,,,,,,,,,
0,20,20,0,1,,608ddb1cc919e2385b9868f6,62c53aa445a7cef4ce9fa9ac,2022-07-06_08h33.32.495,Colour_Asymmetry_Pilot,2022.1.3,Win32,60.05645307,62c50e9c1127f2cd403a315f,,,,,,,,,,,,,,,,,,,,,,,,,,,,,,,,,,,,,,,,,,,,,,,,,,,,,,,,,,,,,,,,,,,,,,,,,,,,,,,,,,,,,,,,,,,,,,,,,,,,,,,,,,,,,,,,,,,,,,,,,,,,,,,,,,,,,,,,,,,,,,,,,,,,,,,,,,,,,,,,,,,
0,21,21,80,1,,608ddb1cc919e2385b9868f6,62c53aa445a7cef4ce9fa9ac,2022-07-06_08h33.32.495,Colour_Asymmetry_Pilot,2022.1.3,Win32,60.05645307,62c50e9c1127f2cd403a315f,,,,,,,,,,,,,,,,,,,,,,,,,,,,,,,,,,,,,,,,,,,,,,,,,,,,,,,,,,,,,,,,,,,,,,,,,,,,,,,,,,,,,,,,,,,,,,,,,,,,,,,,,,,,,,,,,,,,,,,,,,,,,,,,,,,,,,,,,,,,,,,,,,,,,,,,,,,,,,,,,,,
0,22,22,92,1,,608ddb1cc919e2385b9868f6,62c53aa445a7cef4ce9fa9ac,2022-07-06_08h33.32.495,Colour_Asymmetry_Pilot,2022.1.3,Win32,60.05645307,62c50e9c1127f2cd403a315f,,,,,,,,,,,,,,,,,,,,,,,,,,,,,,,,,,,,,,,,,,,,,,,,,,,,,,,,,,,,,,,,,,,,,,,,,,,,,,,,,,,,,,,,,,,,,,,,,,,,,,,,,,,,,,,,,,,,,,,,,,,,,,,,,,,,,,,,,,,,,,,,,,,,,,,,,,,,,,,,,,,
0,23,23,14,1,,608ddb1cc919e2385b9868f6,62c53aa445a7cef4ce9fa9ac,2022-07-06_08h33.32.495,Colour_Asymmetry_Pilot,2022.1.3,Win32,60.05645307,62c50e9c1127f2cd403a315f,,,,,,,,,,,,,,,,,,,,,,,,,,,,,,,,,,,,,,,,,,,,,,,,,,,,,,,,,,,,,,,,,,,,,,,,,,,,,,,,,,,,,,,,,,,,,,,,,,,,,,,,,,,,,,,,,,,,,,,,,,,,,,,,,,,,,,,,,,,,,,,,,,,,,,,,,,,,,,,,,,,
0,24,24,39,1,,608ddb1cc919e2385b9868f6,62c53aa445a7cef4ce9fa9ac,2022-07-06_08h33.32.495,Colour_Asymmetry_Pilot,2022.1.3,Win32,60.05645307,62c50e9c1127f2cd403a315f,,,,,,,,,,,,,,,,,,,,,,,,,,,,,,,,,,,,,,,,,,,,,,,,,,,,,,,,,,,,,,,,,,,,,,,,,,,,,,,,,,,,,,,,,,,,,,,,,,,,,,,,,,,,,,,,,,,,,,,,,,,,,,,,,,,,,,,,,,,,,,,,,,,,,,,,,,,,,,,,,,,
0,25,25,81,1,,608ddb1cc919e2385b9868f6,62c53aa445a7cef4ce9fa9ac,2022-07-06_08h33.32.495,Colour_Asymmetry_Pilot,2022.1.3,Win32,60.05645307,62c50e9c1127f2cd403a315f,,,,,,,,,,,,,,,,,,,,,,,,,,,,,,,,,,,,,,,,,,,,,,,,,,,,,,,,,,,,,,,,,,,,,,,,,,,,,,,,,,,,,,,,,,,,,,,,,,,,,,,,,,,,,,,,,,,,,,,,,,,,,,,,,,,,,,,,,,,,,,,,,,,,,,,,,,,,,,,,,,,
0,26,26,60,1,,608ddb1cc919e2385b9868f6,62c53aa445a7cef4ce9fa9ac,2022-07-06_08h33.32.495,Colour_Asymmetry_Pilot,2022.1.3,Win32,60.05645307,62c50e9c1127f2cd403a315f,,,,,,,,,,,,,,,,,,,,,,,,,,,,,,,,,,,,,,,,,,,,,,,,,,,,,,,,,,,,,,,,,,,,,,,,,,,,,,,,,,,,,,,,,,,,,,,,,,,,,,,,,,,,,,,,,,,,,,,,,,,,,,,,,,,,,,,,,,,,,,,,,,,,,,,,,,,,,,,,,,,
0,27,27,46,1,,608ddb1cc919e2385b9868f6,62c53aa445a7cef4ce9fa9ac,2022-07-06_08h33.32.495,Colour_Asymmetry_Pilot,2022.1.3,Win32,60.05645307,62c50e9c1127f2cd403a315f,,,,,,,,,,,,,,,,,,,,,,,,,,,,,,,,,,,,,,,,,,,,,,,,,,,,,,,,,,,,,,,,,,,,,,,,,,,,,,,,,,,,,,,,,,,,,,,,,,,,,,,,,,,,,,,,,,,,,,,,,,,,,,,,,,,,,,,,,,,,,,,,,,,,,,,,,,,,,,,,,,,
0,28,28,61,1,,608ddb1cc919e2385b9868f6,62c53aa445a7cef4ce9fa9ac,2022-07-06_08h33.32.495,Colour_Asymmetry_Pilot,2022.1.3,Win32,60.05645307,62c50e9c1127f2cd403a315f,,,,,,,,,,,,,,,,,,,,,,,,,,,,,,,,,,,,,,,,,,,,,,,,,,,,,,,,,,,,,,,,,,,,,,,,,,,,,,,,,,,,,,,,,,,,,,,,,,,,,,,,,,,,,,,,,,,,,,,,,,,,,,,,,,,,,,,,,,,,,,,,,,,,,,,,,,,,,,,,,,,
0,29,29,35,1,,608ddb1cc919e2385b9868f6,62c53aa445a7cef4ce9fa9ac,2022-07-06_08h33.32.495,Colour_Asymmetry_Pilot,2022.1.3,Win32,60.05645307,62c50e9c1127f2cd403a315f,,,,,,,,,,,,,,,,,,,,,,,,,,,,,,,,,,,,,,,,,,,,,,,,,,,,,,,,,,,,,,,,,,,,,,,,,,,,,,,,,,,,,,,,,,,,,,,,,,,,,,,,,,,,,,,,,,,,,,,,,,,,,,,,,,,,,,,,,,,,,,,,,,,,,,,,,,,,,,,,,,,
0,30,30,54,1,,608ddb1cc919e2385b9868f6,62c53aa445a7cef4ce9fa9ac,2022-07-06_08h33.32.495,Colour_Asymmetry_Pilot,2022.1.3,Win32,60.05645307,62c50e9c1127f2cd403a315f,,,,,,,,,,,,,,,,,,,,,,,,,,,,,,,,,,,,,,,,,,,,,,,,,,,,,,,,,,,,,,,,,,,,,,,,,,,,,,,,,,,,,,,,,,,,,,,,,,,,,,,,,,,,,,,,,,,,,,,,,,,,,,,,,,,,,,,,,,,,,,,,,,,,,,,,,,,,,,,,,,,
0,31,31,18,1,,608ddb1cc919e2385b9868f6,62c53aa445a7cef4ce9fa9ac,2022-07-06_08h33.32.495,Colour_Asymmetry_Pilot,2022.1.3,Win32,60.05645307,62c50e9c1127f2cd403a315f,,,,,,,,,,,,,,,,,,,,,,,,,,,,,,,,,,,,,,,,,,,,,,,,,,,,,,,,,,,,,,,,,,,,,,,,,,,,,,,,,,,,,,,,,,,,,,,,,,,,,,,,,,,,,,,,,,,,,,,,,,,,,,,,,,,,,,,,,,,,,,,,,,,,,,,,,,,,,,,,,,,
0,32,32,22,1,,608ddb1cc919e2385b9868f6,62c53aa445a7cef4ce9fa9ac,2022-07-06_08h33.32.495,Colour_Asymmetry_Pilot,2022.1.3,Win32,60.05645307,62c50e9c1127f2cd403a315f,,,,,,,,,,,,,,,,,,,,,,,,,,,,,,,,,,,,,,,,,,,,,,,,,,,,,,,,,,,,,,,,,,,,,,,,,,,,,,,,,,,,,,,,,,,,,,,,,,,,,,,,,,,,,,,,,,,,,,,,,,,,,,,,,,,,,,,,,,,,,,,,,,,,,,,,,,,,,,,,,,,
0,33,33,50,1,,608ddb1cc919e2385b9868f6,62c53aa445a7cef4ce9fa9ac,2022-07-06_08h33.32.495,Colour_Asymmetry_Pilot,2022.1.3,Win32,60.05645307,62c50e9c1127f2cd403a315f,,,,,,,,,,,,,,,,,,,,,,,,,,,,,,,,,,,,,,,,,,,,,,,,,,,,,,,,,,,,,,,,,,,,,,,,,,,,,,,,,,,,,,,,,,,,,,,,,,,,,,,,,,,,,,,,,,,,,,,,,,,,,,,,,,,,,,,,,,,,,,,,,,,,,,,,,,,,,,,,,,,
0,34,34,37,1,,608ddb1cc919e2385b9868f6,62c53aa445a7cef4ce9fa9ac,2022-07-06_08h33.32.495,Colour_Asymmetry_Pilot,2022.1.3,Win32,60.05645307,62c50e9c1127f2cd403a315f,,,,,,,,,,,,,,,,,,,,,,,,,,,,,,,,,,,,,,,,,,,,,,,,,,,,,,,,,,,,,,,,,,,,,,,,,,,,,,,,,,,,,,,,,,,,,,,,,,,,,,,,,,,,,,,,,,,,,,,,,,,,,,,,,,,,,,,,,,,,,,,,,,,,,,,,,,,,,,,,,,,
0,35,35,10,1,,608ddb1cc919e2385b9868f6,62c53aa445a7cef4ce9fa9ac,2022-07-06_08h33.32.495,Colour_Asymmetry_Pilot,2022.1.3,Win32,60.05645307,62c50e9c1127f2cd403a315f,,,,,,,,,,,,,,,,,,,,,,,,,,,,,,,,,,,,,,,,,,,,,,,,,,,,,,,,,,,,,,,,,,,,,,,,,,,,,,,,,,,,,,,,,,,,,,,,,,,,,,,,,,,,,,,,,,,,,,,,,,,,,,,,,,,,,,,,,,,,,,,,,,,,,,,,,,,,,,,,,,,
0,36,36,48,1,,608ddb1cc919e2385b9868f6,62c53aa445a7cef4ce9fa9ac,2022-07-06_08h33.32.495,Colour_Asymmetry_Pilot,2022.1.3,Win32,60.05645307,62c50e9c1127f2cd403a315f,,,,,,,,,,,,,,,,,,,,,,,,,,,,,,,,,,,,,,,,,,,,,,,,,,,,,,,,,,,,,,,,,,,,,,,,,,,,,,,,,,,,,,,,,,,,,,,,,,,,,,,,,,,,,,,,,,,,,,,,,,,,,,,,,,,,,,,,,,,,,,,,,,,,,,,,,,,,,,,,,,,
0,37,37,41,1,,608ddb1cc919e2385b9868f6,62c53aa445a7cef4ce9fa9ac,2022-07-06_08h33.32.495,Colour_Asymmetry_Pilot,2022.1.3,Win32,60.05645307,62c50e9c1127f2cd403a315f,,,,,,,,,,,,,,,,,,,,,,,,,,,,,,,,,,,,,,,,,,,,,,,,,,,,,,,,,,,,,,,,,,,,,,,,,,,,,,,,,,,,,,,,,,,,,,,,,,,,,,,,,,,,,,,,,,,,,,,,,,,,,,,,,,,,,,,,,,,,,,,,,,,,,,,,,,,,,,,,,,,
0,38,38,59,1,,608ddb1cc919e2385b9868f6,62c53aa445a7cef4ce9fa9ac,2022-07-06_08h33.32.495,Colour_Asymmetry_Pilot,2022.1.3,Win32,60.05645307,62c50e9c1127f2cd403a315f,,,,,,,,,,,,,,,,,,,,,,,,,,,,,,,,,,,,,,,,,,,,,,,,,,,,,,,,,,,,,,,,,,,,,,,,,,,,,,,,,,,,,,,,,,,,,,,,,,,,,,,,,,,,,,,,,,,,,,,,,,,,,,,,,,,,,,,,,,,,,,,,,,,,,,,,,,,,,,,,,,,
0,39,39,77,1,,608ddb1cc919e2385b9868f6,62c53aa445a7cef4ce9fa9ac,2022-07-06_08h33.32.495,Colour_Asymmetry_Pilot,2022.1.3,Win32,60.05645307,62c50e9c1127f2cd403a315f,,,,,,,,,,,,,,,,,,,,,,,,,,,,,,,,,,,,,,,,,,,,,,,,,,,,,,,,,,,,,,,,,,,,,,,,,,,,,,,,,,,,,,,,,,,,,,,,,,,,,,,,,,,,,,,,,,,,,,,,,,,,,,,,,,,,,,,,,,,,,,,,,,,,,,,,,,,,,,,,,,,
0,40,40,13,1,,608ddb1cc919e2385b9868f6,62c53aa445a7cef4ce9fa9ac,2022-07-06_08h33.32.495,Colour_Asymmetry_Pilot,2022.1.3,Win32,60.05645307,62c50e9c1127f2cd403a315f,,,,,,,,,,,,,,,,,,,,,,,,,,,,,,,,,,,,,,,,,,,,,,,,,,,,,,,,,,,,,,,,,,,,,,,,,,,,,,,,,,,,,,,,,,,,,,,,,,,,,,,,,,,,,,,,,,,,,,,,,,,,,,,,,,,,,,,,,,,,,,,,,,,,,,,,,,,,,,,,,,,
0,41,41,62,1,,608ddb1cc919e2385b9868f6,62c53aa445a7cef4ce9fa9ac,2022-07-06_08h33.32.495,Colour_Asymmetry_Pilot,2022.1.3,Win32,60.05645307,62c50e9c1127f2cd403a315f,,,,,,,,,,,,,,,,,,,,,,,,,,,,,,,,,,,,,,,,,,,,,,,,,,,,,,,,,,,,,,,,,,,,,,,,,,,,,,,,,,,,,,,,,,,,,,,,,,,,,,,,,,,,,,,,,,,,,,,,,,,,,,,,,,,,,,,,,,,,,,,,,,,,,,,,,,,,,,,,,,,
0,42,42,26,1,,608ddb1cc919e2385b9868f6,62c53aa445a7cef4ce9fa9ac,2022-07-06_08h33.32.495,Colour_Asymmetry_Pilot,2022.1.3,Win32,60.05645307,62c50e9c1127f2cd403a315f,,,,,,,,,,,,,,,,,,,,,,,,,,,,,,,,,,,,,,,,,,,,,,,,,,,,,,,,,,,,,,,,,,,,,,,,,,,,,,,,,,,,,,,,,,,,,,,,,,,,,,,,,,,,,,,,,,,,,,,,,,,,,,,,,,,,,,,,,,,,,,,,,,,,,,,,,,,,,,,,,,,
0,43,43,30,1,,608ddb1cc919e2385b9868f6,62c53aa445a7cef4ce9fa9ac,2022-07-06_08h33.32.495,Colour_Asymmetry_Pilot,2022.1.3,Win32,60.05645307,62c50e9c1127f2cd403a315f,,,,,,,,,,,,,,,,,,,,,,,,,,,,,,,,,,,,,,,,,,,,,,,,,,,,,,,,,,,,,,,,,,,,,,,,,,,,,,,,,,,,,,,,,,,,,,,,,,,,,,,,,,,,,,,,,,,,,,,,,,,,,,,,,,,,,,,,,,,,,,,,,,,,,,,,,,,,,,,,,,,
0,44,44,27,1,,608ddb1cc919e2385b9868f6,62c53aa445a7cef4ce9fa9ac,2022-07-06_08h33.32.495,Colour_Asymmetry_Pilot,2022.1.3,Win32,60.05645307,62c50e9c1127f2cd403a315f,,,,,,,,,,,,,,,,,,,,,,,,,,,,,,,,,,,,,,,,,,,,,,,,,,,,,,,,,,,,,,,,,,,,,,,,,,,,,,,,,,,,,,,,,,,,,,,,,,,,,,,,,,,,,,,,,,,,,,,,,,,,,,,,,,,,,,,,,,,,,,,,,,,,,,,,,,,,,,,,,,,
0,45,45,40,1,,608ddb1cc919e2385b9868f6,62c53aa445a7cef4ce9fa9ac,2022-07-06_08h33.32.495,Colour_Asymmetry_Pilot,2022.1.3,Win32,60.05645307,62c50e9c1127f2cd403a315f,,,,,,,,,,,,,,,,,,,,,,,,,,,,,,,,,,,,,,,,,,,,,,,,,,,,,,,,,,,,,,,,,,,,,,,,,,,,,,,,,,,,,,,,,,,,,,,,,,,,,,,,,,,,,,,,,,,,,,,,,,,,,,,,,,,,,,,,,,,,,,,,,,,,,,,,,,,,,,,,,,,
0,46,46,4,1,,608ddb1cc919e2385b9868f6,62c53aa445a7cef4ce9fa9ac,2022-07-06_08h33.32.495,Colour_Asymmetry_Pilot,2022.1.3,Win32,60.05645307,62c50e9c1127f2cd403a315f,,,,,,,,,,,,,,,,,,,,,,,,,,,,,,,,,,,,,,,,,,,,,,,,,,,,,,,,,,,,,,,,,,,,,,,,,,,,,,,,,,,,,,,,,,,,,,,,,,,,,,,,,,,,,,,,,,,,,,,,,,,,,,,,,,,,,,,,,,,,,,,,,,,,,,,,,,,,,,,,,,,
0,47,47,7,1,,608ddb1cc919e2385b9868f6,62c53aa445a7cef4ce9fa9ac,2022-07-06_08h33.32.495,Colour_Asymmetry_Pilot,2022.1.3,Win32,60.05645307,62c50e9c1127f2cd403a315f,,,,,,,,,,,,,,,,,,,,,,,,,,,,,,,,,,,,,,,,,,,,,,,,,,,,,,,,,,,,,,,,,,,,,,,,,,,,,,,,,,,,,,,,,,,,,,,,,,,,,,,,,,,,,,,,,,,,,,,,,,,,,,,,,,,,,,,,,,,,,,,,,,,,,,,,,,,,,,,,,,,
0,48,48,58,1,,608ddb1cc919e2385b9868f6,62c53aa445a7cef4ce9fa9ac,2022-07-06_08h33.32.495,Colour_Asymmetry_Pilot,2022.1.3,Win32,60.05645307,62c50e9c1127f2cd403a315f,,,,,,,,,,,,,,,,,,,,,,,,,,,,,,,,,,,,,,,,,,,,,,,,,,,,,,,,,,,,,,,,,,,,,,,,,,,,,,,,,,,,,,,,,,,,,,,,,,,,,,,,,,,,,,,,,,,,,,,,,,,,,,,,,,,,,,,,,,,,,,,,,,,,,,,,,,,,,,,,,,,
0,49,49,34,1,,608ddb1cc919e2385b9868f6,62c53aa445a7cef4ce9fa9ac,2022-07-06_08h33.32.495,Colour_Asymmetry_Pilot,2022.1.3,Win32,60.05645307,62c50e9c1127f2cd403a315f,,,,,,,,,,,,,,,,,,,,,,,,,,,,,,,,,,,,,,,,,,,,,,,,,,,,,,,,,,,,,,,,,,,,,,,,,,,,,,,,,,,,,,,,,,,,,,,,,,,,,,,,,,,,,,,,,,,,,,,,,,,,,,,,,,,,,,,,,,,,,,,,,,,,,,,,,,,,,,,,,,,
0,50,50,42,1,,608ddb1cc919e2385b9868f6,62c53aa445a7cef4ce9fa9ac,2022-07-06_08h33.32.495,Colour_Asymmetry_Pilot,2022.1.3,Win32,60.05645307,62c50e9c1127f2cd403a315f,,,,,,,,,,,,,,,,,,,,,,,,,,,,,,,,,,,,,,,,,,,,,,,,,,,,,,,,,,,,,,,,,,,,,,,,,,,,,,,,,,,,,,,,,,,,,,,,,,,,,,,,,,,,,,,,,,,,,,,,,,,,,,,,,,,,,,,,,,,,,,,,,,,,,,,,,,,,,,,,,,,
0,51,51,9,1,,608ddb1cc919e2385b9868f6,62c53aa445a7cef4ce9fa9ac,2022-07-06_08h33.32.495,Colour_Asymmetry_Pilot,2022.1.3,Win32,60.05645307,62c50e9c1127f2cd403a315f,,,,,,,,,,,,,,,,,,,,,,,,,,,,,,,,,,,,,,,,,,,,,,,,,,,,,,,,,,,,,,,,,,,,,,,,,,,,,,,,,,,,,,,,,,,,,,,,,,,,,,,,,,,,,,,,,,,,,,,,,,,,,,,,,,,,,,,,,,,,,,,,,,,,,,,,,,,,,,,,,,,
0,52,52,88,1,,608ddb1cc919e2385b9868f6,62c53aa445a7cef4ce9fa9ac,2022-07-06_08h33.32.495,Colour_Asymmetry_Pilot,2022.1.3,Win32,60.05645307,62c50e9c1127f2cd403a315f,,,,,,,,,,,,,,,,,,,,,,,,,,,,,,,,,,,,,,,,,,,,,,,,,,,,,,,,,,,,,,,,,,,,,,,,,,,,,,,,,,,,,,,,,,,,,,,,,,,,,,,,,,,,,,,,,,,,,,,,,,,,,,,,,,,,,,,,,,,,,,,,,,,,,,,,,,,,,,,,,,,
0,53,53,38,1,,608ddb1cc919e2385b9868f6,62c53aa445a7cef4ce9fa9ac,2022-07-06_08h33.32.495,Colour_Asymmetry_Pilot,2022.1.3,Win32,60.05645307,62c50e9c1127f2cd403a315f,,,,,,,,,,,,,,,,,,,,,,,,,,,,,,,,,,,,,,,,,,,,,,,,,,,,,,,,,,,,,,,,,,,,,,,,,,,,,,,,,,,,,,,,,,,,,,,,,,,,,,,,,,,,,,,,,,,,,,,,,,,,,,,,,,,,,,,,,,,,,,,,,,,,,,,,,,,,,,,,,,,
0,54,54,69,1,,608ddb1cc919e2385b9868f6,62c53aa445a7cef4ce9fa9ac,2022-07-06_08h33.32.495,Colour_Asymmetry_Pilot,2022.1.3,Win32,60.05645307,62c50e9c1127f2cd403a315f,,,,,,,,,,,,,,,,,,,,,,,,,,,,,,,,,,,,,,,,,,,,,,,,,,,,,,,,,,,,,,,,,,,,,,,,,,,,,,,,,,,,,,,,,,,,,,,,,,,,,,,,,,,,,,,,,,,,,,,,,,,,,,,,,,,,,,,,,,,,,,,,,,,,,,,,,,,,,,,,,,,
0,55,55,78,1,,608ddb1cc919e2385b9868f6,62c53aa445a7cef4ce9fa9ac,2022-07-06_08h33.32.495,Colour_Asymmetry_Pilot,2022.1.3,Win32,60.05645307,62c50e9c1127f2cd403a315f,,,,,,,,,,,,,,,,,,,,,,,,,,,,,,,,,,,,,,,,,,,,,,,,,,,,,,,,,,,,,,,,,,,,,,,,,,,,,,,,,,,,,,,,,,,,,,,,,,,,,,,,,,,,,,,,,,,,,,,,,,,,,,,,,,,,,,,,,,,,,,,,,,,,,,,,,,,,,,,,,,,
0,56,56,63,1,,608ddb1cc919e2385b9868f6,62c53aa445a7cef4ce9fa9ac,2022-07-06_08h33.32.495,Colour_Asymmetry_Pilot,2022.1.3,Win32,60.05645307,62c50e9c1127f2cd403a315f,,,,,,,,,,,,,,,,,,,,,,,,,,,,,,,,,,,,,,,,,,,,,,,,,,,,,,,,,,,,,,,,,,,,,,,,,,,,,,,,,,,,,,,,,,,,,,,,,,,,,,,,,,,,,,,,,,,,,,,,,,,,,,,,,,,,,,,,,,,,,,,,,,,,,,,,,,,,,,,,,,,
0,57,57,56,1,,608ddb1cc919e2385b9868f6,62c53aa445a7cef4ce9fa9ac,2022-07-06_08h33.32.495,Colour_Asymmetry_Pilot,2022.1.3,Win32,60.05645307,62c50e9c1127f2cd403a315f,,,,,,,,,,,,,,,,,,,,,,,,,,,,,,,,,,,,,,,,,,,,,,,,,,,,,,,,,,,,,,,,,,,,,,,,,,,,,,,,,,,,,,,,,,,,,,,,,,,,,,,,,,,,,,,,,,,,,,,,,,,,,,,,,,,,,,,,,,,,,,,,,,,,,,,,,,,,,,,,,,,
0,58,58,71,1,,608ddb1cc919e2385b9868f6,62c53aa445a7cef4ce9fa9ac,2022-07-06_08h33.32.495,Colour_Asymmetry_Pilot,2022.1.3,Win32,60.05645307,62c50e9c1127f2cd403a315f,,,,,,,,,,,,,,,,,,,,,,,,,,,,,,,,,,,,,,,,,,,,,,,,,,,,,,,,,,,,,,,,,,,,,,,,,,,,,,,,,,,,,,,,,,,,,,,,,,,,,,,,,,,,,,,,,,,,,,,,,,,,,,,,,,,,,,,,,,,,,,,,,,,,,,,,,,,,,,,,,,,
0,59,59,66,1,,608ddb1cc919e2385b9868f6,62c53aa445a7cef4ce9fa9ac,2022-07-06_08h33.32.495,Colour_Asymmetry_Pilot,2022.1.3,Win32,60.05645307,62c50e9c1127f2cd403a315f,,,,,,,,,,,,,,,,,,,,,,,,,,,,,,,,,,,,,,,,,,,,,,,,,,,,,,,,,,,,,,,,,,,,,,,,,,,,,,,,,,,,,,,,,,,,,,,,,,,,,,,,,,,,,,,,,,,,,,,,,,,,,,,,,,,,,,,,,,,,,,,,,,,,,,,,,,,,,,,,,,,
0,60,60,2,1,,608ddb1cc919e2385b9868f6,62c53aa445a7cef4ce9fa9ac,2022-07-06_08h33.32.495,Colour_Asymmetry_Pilot,2022.1.3,Win32,60.05645307,62c50e9c1127f2cd403a315f,,,,,,,,,,,,,,,,,,,,,,,,,,,,,,,,,,,,,,,,,,,,,,,,,,,,,,,,,,,,,,,,,,,,,,,,,,,,,,,,,,,,,,,,,,,,,,,,,,,,,,,,,,,,,,,,,,,,,,,,,,,,,,,,,,,,,,,,,,,,,,,,,,,,,,,,,,,,,,,,,,,
0,61,61,33,1,,608ddb1cc919e2385b9868f6,62c53aa445a7cef4ce9fa9ac,2022-07-06_08h33.32.495,Colour_Asymmetry_Pilot,2022.1.3,Win32,60.05645307,62c50e9c1127f2cd403a315f,,,,,,,,,,,,,,,,,,,,,,,,,,,,,,,,,,,,,,,,,,,,,,,,,,,,,,,,,,,,,,,,,,,,,,,,,,,,,,,,,,,,,,,,,,,,,,,,,,,,,,,,,,,,,,,,,,,,,,,,,,,,,,,,,,,,,,,,,,,,,,,,,,,,,,,,,,,,,,,,,,,
0,62,62,64,1,,608ddb1cc919e2385b9868f6,62c53aa445a7cef4ce9fa9ac,2022-07-06_08h33.32.495,Colour_Asymmetry_Pilot,2022.1.3,Win32,60.05645307,62c50e9c1127f2cd403a315f,,,,,,,,,,,,,,,,,,,,,,,,,,,,,,,,,,,,,,,,,,,,,,,,,,,,,,,,,,,,,,,,,,,,,,,,,,,,,,,,,,,,,,,,,,,,,,,,,,,,,,,,,,,,,,,,,,,,,,,,,,,,,,,,,,,,,,,,,,,,,,,,,,,,,,,,,,,,,,,,,,,
0,63,63,65,1,,608ddb1cc919e2385b9868f6,62c53aa445a7cef4ce9fa9ac,2022-07-06_08h33.32.495,Colour_Asymmetry_Pilot,2022.1.3,Win32,60.05645307,62c50e9c1127f2cd403a315f,,,,,,,,,,,,,,,,,,,,,,,,,,,,,,,,,,,,,,,,,,,,,,,,,,,,,,,,,,,,,,,,,,,,,,,,,,,,,,,,,,,,,,,,,,,,,,,,,,,,,,,,,,,,,,,,,,,,,,,,,,,,,,,,,,,,,,,,,,,,,,,,,,,,,,,,,,,,,,,,,,,
0,64,64,86,1,,608ddb1cc919e2385b9868f6,62c53aa445a7cef4ce9fa9ac,2022-07-06_08h33.32.495,Colour_Asymmetry_Pilot,2022.1.3,Win32,60.05645307,62c50e9c1127f2cd403a315f,,,,,,,,,,,,,,,,,,,,,,,,,,,,,,,,,,,,,,,,,,,,,,,,,,,,,,,,,,,,,,,,,,,,,,,,,,,,,,,,,,,,,,,,,,,,,,,,,,,,,,,,,,,,,,,,,,,,,,,,,,,,,,,,,,,,,,,,,,,,,,,,,,,,,,,,,,,,,,,,,,,
0,65,65,12,1,,608ddb1cc919e2385b9868f6,62c53aa445a7cef4ce9fa9ac,2022-07-06_08h33.32.495,Colour_Asymmetry_Pilot,2022.1.3,Win32,60.05645307,62c50e9c1127f2cd403a315f,,,,,,,,,,,,,,,,,,,,,,,,,,,,,,,,,,,,,,,,,,,,,,,,,,,,,,,,,,,,,,,,,,,,,,,,,,,,,,,,,,,,,,,,,,,,,,,,,,,,,,,,,,,,,,,,,,,,,,,,,,,,,,,,,,,,,,,,,,,,,,,,,,,,,,,,,,,,,,,,,,,
0,66,66,20,1,,608ddb1cc919e2385b9868f6,62c53aa445a7cef4ce9fa9ac,2022-07-06_08h33.32.495,Colour_Asymmetry_Pilot,2022.1.3,Win32,60.05645307,62c50e9c1127f2cd403a315f,,,,,,,,,,,,,,,,,,,,,,,,,,,,,,,,,,,,,,,,,,,,,,,,,,,,,,,,,,,,,,,,,,,,,,,,,,,,,,,,,,,,,,,,,,,,,,,,,,,,,,,,,,,,,,,,,,,,,,,,,,,,,,,,,,,,,,,,,,,,,,,,,,,,,,,,,,,,,,,,,,,
0,67,67,85,1,,608ddb1cc919e2385b9868f6,62c53aa445a7cef4ce9fa9ac,2022-07-06_08h33.32.495,Colour_Asymmetry_Pilot,2022.1.3,Win32,60.05645307,62c50e9c1127f2cd403a315f,,,,,,,,,,,,,,,,,,,,,,,,,,,,,,,,,,,,,,,,,,,,,,,,,,,,,,,,,,,,,,,,,,,,,,,,,,,,,,,,,,,,,,,,,,,,,,,,,,,,,,,,,,,,,,,,,,,,,,,,,,,,,,,,,,,,,,,,,,,,,,,,,,,,,,,,,,,,,,,,,,,
0,68,68,6,1,,608ddb1cc919e2385b9868f6,62c53aa445a7cef4ce9fa9ac,2022-07-06_08h33.32.495,Colour_Asymmetry_Pilot,2022.1.3,Win32,60.05645307,62c50e9c1127f2cd403a315f,,,,,,,,,,,,,,,,,,,,,,,,,,,,,,,,,,,,,,,,,,,,,,,,,,,,,,,,,,,,,,,,,,,,,,,,,,,,,,,,,,,,,,,,,,,,,,,,,,,,,,,,,,,,,,,,,,,,,,,,,,,,,,,,,,,,,,,,,,,,,,,,,,,,,,,,,,,,,,,,,,,
0,69,69,51,1,,608ddb1cc919e2385b9868f6,62c53aa445a7cef4ce9fa9ac,2022-07-06_08h33.32.495,Colour_Asymmetry_Pilot,2022.1.3,Win32,60.05645307,62c50e9c1127f2cd403a315f,,,,,,,,,,,,,,,,,,,,,,,,,,,,,,,,,,,,,,,,,,,,,,,,,,,,,,,,,,,,,,,,,,,,,,,,,,,,,,,,,,,,,,,,,,,,,,,,,,,,,,,,,,,,,,,,,,,,,,,,,,,,,,,,,,,,,,,,,,,,,,,,,,,,,,,,,,,,,,,,,,,
0,70,70,87,1,,608ddb1cc919e2385b9868f6,62c53aa445a7cef4ce9fa9ac,2022-07-06_08h33.32.495,Colour_Asymmetry_Pilot,2022.1.3,Win32,60.05645307,62c50e9c1127f2cd403a315f,,,,,,,,,,,,,,,,,,,,,,,,,,,,,,,,,,,,,,,,,,,,,,,,,,,,,,,,,,,,,,,,,,,,,,,,,,,,,,,,,,,,,,,,,,,,,,,,,,,,,,,,,,,,,,,,,,,,,,,,,,,,,,,,,,,,,,,,,,,,,,,,,,,,,,,,,,,,,,,,,,,
0,71,71,3,1,,608ddb1cc919e2385b9868f6,62c53aa445a7cef4ce9fa9ac,2022-07-06_08h33.32.495,Colour_Asymmetry_Pilot,2022.1.3,Win32,60.05645307,62c50e9c1127f2cd403a315f,,,,,,,,,,,,,,,,,,,,,,,,,,,,,,,,,,,,,,,,,,,,,,,,,,,,,,,,,,,,,,,,,,,,,,,,,,,,,,,,,,,,,,,,,,,,,,,,,,,,,,,,,,,,,,,,,,,,,,,,,,,,,,,,,,,,,,,,,,,,,,,,,,,,,,,,,,,,,,,,,,,
0,72,72,79,1,,608ddb1cc919e2385b9868f6,62c53aa445a7cef4ce9fa9ac,2022-07-06_08h33.32.495,Colour_Asymmetry_Pilot,2022.1.3,Win32,60.05645307,62c50e9c1127f2cd403a315f,,,,,,,,,,,,,,,,,,,,,,,,,,,,,,,,,,,,,,,,,,,,,,,,,,,,,,,,,,,,,,,,,,,,,,,,,,,,,,,,,,,,,,,,,,,,,,,,,,,,,,,,,,,,,,,,,,,,,,,,,,,,,,,,,,,,,,,,,,,,,,,,,,,,,,,,,,,,,,,,,,,
0,73,73,23,1,,608ddb1cc919e2385b9868f6,62c53aa445a7cef4ce9fa9ac,2022-07-06_08h33.32.495,Colour_Asymmetry_Pilot,2022.1.3,Win32,60.05645307,62c50e9c1127f2cd403a315f,,,,,,,,,,,,,,,,,,,,,,,,,,,,,,,,,,,,,,,,,,,,,,,,,,,,,,,,,,,,,,,,,,,,,,,,,,,,,,,,,,,,,,,,,,,,,,,,,,,,,,,,,,,,,,,,,,,,,,,,,,,,,,,,,,,,,,,,,,,,,,,,,,,,,,,,,,,,,,,,,,,
0,74,74,72,1,,608ddb1cc919e2385b9868f6,62c53aa445a7cef4ce9fa9ac,2022-07-06_08h33.32.495,Colour_Asymmetry_Pilot,2022.1.3,Win32,60.05645307,62c50e9c1127f2cd403a315f,,,,,,,,,,,,,,,,,,,,,,,,,,,,,,,,,,,,,,,,,,,,,,,,,,,,,,,,,,,,,,,,,,,,,,,,,,,,,,,,,,,,,,,,,,,,,,,,,,,,,,,,,,,,,,,,,,,,,,,,,,,,,,,,,,,,,,,,,,,,,,,,,,,,,,,,,,,,,,,,,,,
0,75,75,57,1,,608ddb1cc919e2385b9868f6,62c53aa445a7cef4ce9fa9ac,2022-07-06_08h33.32.495,Colour_Asymmetry_Pilot,2022.1.3,Win32,60.05645307,62c50e9c1127f2cd403a315f,,,,,,,,,,,,,,,,,,,,,,,,,,,,,,,,,,,,,,,,,,,,,,,,,,,,,,,,,,,,,,,,,,,,,,,,,,,,,,,,,,,,,,,,,,,,,,,,,,,,,,,,,,,,,,,,,,,,,,,,,,,,,,,,,,,,,,,,,,,,,,,,,,,,,,,,,,,,,,,,,,,
0,76,76,24,1,,608ddb1cc919e2385b9868f6,62c53aa445a7cef4ce9fa9ac,2022-07-06_08h33.32.495,Colour_Asymmetry_Pilot,2022.1.3,Win32,60.05645307,62c50e9c1127f2cd403a315f,,,,,,,,,,,,,,,,,,,,,,,,,,,,,,,,,,,,,,,,,,,,,,,,,,,,,,,,,,,,,,,,,,,,,,,,,,,,,,,,,,,,,,,,,,,,,,,,,,,,,,,,,,,,,,,,,,,,,,,,,,,,,,,,,,,,,,,,,,,,,,,,,,,,,,,,,,,,,,,,,,,
0,77,77,16,1,,608ddb1cc919e2385b9868f6,62c53aa445a7cef4ce9fa9ac,2022-07-06_08h33.32.495,Colour_Asymmetry_Pilot,2022.1.3,Win32,60.05645307,62c50e9c1127f2cd403a315f,,,,,,,,,,,,,,,,,,,,,,,,,,,,,,,,,,,,,,,,,,,,,,,,,,,,,,,,,,,,,,,,,,,,,,,,,,,,,,,,,,,,,,,,,,,,,,,,,,,,,,,,,,,,,,,,,,,,,,,,,,,,,,,,,,,,,,,,,,,,,,,,,,,,,,,,,,,,,,,,,,,
0,78,78,67,1,,608ddb1cc919e2385b9868f6,62c53aa445a7cef4ce9fa9ac,2022-07-06_08h33.32.495,Colour_Asymmetry_Pilot,2022.1.3,Win32,60.05645307,62c50e9c1127f2cd403a315f,,,,,,,,,,,,,,,,,,,,,,,,,,,,,,,,,,,,,,,,,,,,,,,,,,,,,,,,,,,,,,,,,,,,,,,,,,,,,,,,,,,,,,,,,,,,,,,,,,,,,,,,,,,,,,,,,,,,,,,,,,,,,,,,,,,,,,,,,,,,,,,,,,,,,,,,,,,,,,,,,,,
0,79,79,1,1,,608ddb1cc919e2385b9868f6,62c53aa445a7cef4ce9fa9ac,2022-07-06_08h33.32.495,Colour_Asymmetry_Pilot,2022.1.3,Win32,60.05645307,62c50e9c1127f2cd403a315f,,,,,,,,,,,,,,,,,,,,,,,,,,,,,,,,,,,,,,,,,,,,,,,,,,,,,,,,,,,,,,,,,,,,,,,,,,,,,,,,,,,,,,,,,,,,,,,,,,,,,,,,,,,,,,,,,,,,,,,,,,,,,,,,,,,,,,,,,,,,,,,,,,,,,,,,,,,,,,,,,,,
0,80,80,82,1,,608ddb1cc919e2385b9868f6,62c53aa445a7cef4ce9fa9ac,2022-07-06_08h33.32.495,Colour_Asymmetry_Pilot,2022.1.3,Win32,60.05645307,62c50e9c1127f2cd403a315f,,,,,,,,,,,,,,,,,,,,,,,,,,,,,,,,,,,,,,,,,,,,,,,,,,,,,,,,,,,,,,,,,,,,,,,,,,,,,,,,,,,,,,,,,,,,,,,,,,,,,,,,,,,,,,,,,,,,,,,,,,,,,,,,,,,,,,,,,,,,,,,,,,,,,,,,,,,,,,,,,,,
0,81,81,36,1,,608ddb1cc919e2385b9868f6,62c53aa445a7cef4ce9fa9ac,2022-07-06_08h33.32.495,Colour_Asymmetry_Pilot,2022.1.3,Win32,60.05645307,62c50e9c1127f2cd403a315f,,,,,,,,,,,,,,,,,,,,,,,,,,,,,,,,,,,,,,,,,,,,,,,,,,,,,,,,,,,,,,,,,,,,,,,,,,,,,,,,,,,,,,,,,,,,,,,,,,,,,,,,,,,,,,,,,,,,,,,,,,,,,,,,,,,,,,,,,,,,,,,,,,,,,,,,,,,,,,,,,,,
0,82,82,31,1,,608ddb1cc919e2385b9868f6,62c53aa445a7cef4ce9fa9ac,2022-07-06_08h33.32.495,Colour_Asymmetry_Pilot,2022.1.3,Win32,60.05645307,62c50e9c1127f2cd403a315f,,,,,,,,,,,,,,,,,,,,,,,,,,,,,,,,,,,,,,,,,,,,,,,,,,,,,,,,,,,,,,,,,,,,,,,,,,,,,,,,,,,,,,,,,,,,,,,,,,,,,,,,,,,,,,,,,,,,,,,,,,,,,,,,,,,,,,,,,,,,,,,,,,,,,,,,,,,,,,,,,,,
0,83,83,11,1,,608ddb1cc919e2385b9868f6,62c53aa445a7cef4ce9fa9ac,2022-07-06_08h33.32.495,Colour_Asymmetry_Pilot,2022.1.3,Win32,60.05645307,62c50e9c1127f2cd403a315f,,,,,,,,,,,,,,,,,,,,,,,,,,,,,,,,,,,,,,,,,,,,,,,,,,,,,,,,,,,,,,,,,,,,,,,,,,,,,,,,,,,,,,,,,,,,,,,,,,,,,,,,,,,,,,,,,,,,,,,,,,,,,,,,,,,,,,,,,,,,,,,,,,,,,,,,,,,,,,,,,,,
0,84,84,47,1,,608ddb1cc919e2385b9868f6,62c53aa445a7cef4ce9fa9ac,2022-07-06_08h33.32.495,Colour_Asymmetry_Pilot,2022.1.3,Win32,60.05645307,62c50e9c1127f2cd403a315f,,,,,,,,,,,,,,,,,,,,,,,,,,,,,,,,,,,,,,,,,,,,,,,,,,,,,,,,,,,,,,,,,,,,,,,,,,,,,,,,,,,,,,,,,,,,,,,,,,,,,,,,,,,,,,,,,,,,,,,,,,,,,,,,,,,,,,,,,,,,,,,,,,,,,,,,,,,,,,,,,,,
0,85,85,44,1,,608ddb1cc919e2385b9868f6,62c53aa445a7cef4ce9fa9ac,2022-07-06_08h33.32.495,Colour_Asymmetry_Pilot,2022.1.3,Win32,60.05645307,62c50e9c1127f2cd403a315f,,,,,,,,,,,,,,,,,,,,,,,,,,,,,,,,,,,,,,,,,,,,,,,,,,,,,,,,,,,,,,,,,,,,,,,,,,,,,,,,,,,,,,,,,,,,,,,,,,,,,,,,,,,,,,,,,,,,,,,,,,,,,,,,,,,,,,,,,,,,,,,,,,,,,,,,,,,,,,,,,,,
0,86,86,53,1,,608ddb1cc919e2385b9868f6,62c53aa445a7cef4ce9fa9ac,2022-07-06_08h33.32.495,Colour_Asymmetry_Pilot,2022.1.3,Win32,60.05645307,62c50e9c1127f2cd403a315f,,,,,,,,,,,,,,,,,,,,,,,,,,,,,,,,,,,,,,,,,,,,,,,,,,,,,,,,,,,,,,,,,,,,,,,,,,,,,,,,,,,,,,,,,,,,,,,,,,,,,,,,,,,,,,,,,,,,,,,,,,,,,,,,,,,,,,,,,,,,,,,,,,,,,,,,,,,,,,,,,,,
0,87,87,5,1,,608ddb1cc919e2385b9868f6,62c53aa445a7cef4ce9fa9ac,2022-07-06_08h33.32.495,Colour_Asymmetry_Pilot,2022.1.3,Win32,60.05645307,62c50e9c1127f2cd403a315f,,,,,,,,,,,,,,,,,,,,,,,,,,,,,,,,,,,,,,,,,,,,,,,,,,,,,,,,,,,,,,,,,,,,,,,,,,,,,,,,,,,,,,,,,,,,,,,,,,,,,,,,,,,,,,,,,,,,,,,,,,,,,,,,,,,,,,,,,,,,,,,,,,,,,,,,,,,,,,,,,,,
0,88,88,84,1,,608ddb1cc919e2385b9868f6,62c53aa445a7cef4ce9fa9ac,2022-07-06_08h33.32.495,Colour_Asymmetry_Pilot,2022.1.3,Win32,60.05645307,62c50e9c1127f2cd403a315f,,,,,,,,,,,,,,,,,,,,,,,,,,,,,,,,,,,,,,,,,,,,,,,,,,,,,,,,,,,,,,,,,,,,,,,,,,,,,,,,,,,,,,,,,,,,,,,,,,,,,,,,,,,,,,,,,,,,,,,,,,,,,,,,,,,,,,,,,,,,,,,,,,,,,,,,,,,,,,,,,,,
0,89,89,28,1,,608ddb1cc919e2385b9868f6,62c53aa445a7cef4ce9fa9ac,2022-07-06_08h33.32.495,Colour_Asymmetry_Pilot,2022.1.3,Win32,60.05645307,62c50e9c1127f2cd403a315f,,,,,,,,,,,,,,,,,,,,,,,,,,,,,,,,,,,,,,,,,,,,,,,,,,,,,,,,,,,,,,,,,,,,,,,,,,,,,,,,,,,,,,,,,,,,,,,,,,,,,,,,,,,,,,,,,,,,,,,,,,,,,,,,,,,,,,,,,,,,,,,,,,,,,,,,,,,,,,,,,,,
0,90,90,73,1,,608ddb1cc919e2385b9868f6,62c53aa445a7cef4ce9fa9ac,2022-07-06_08h33.32.495,Colour_Asymmetry_Pilot,2022.1.3,Win32,60.05645307,62c50e9c1127f2cd403a315f,,,,,,,,,,,,,,,,,,,,,,,,,,,,,,,,,,,,,,,,,,,,,,,,,,,,,,,,,,,,,,,,,,,,,,,,,,,,,,,,,,,,,,,,,,,,,,,,,,,,,,,,,,,,,,,,,,,,,,,,,,,,,,,,,,,,,,,,,,,,,,,,,,,,,,,,,,,,,,,,,,,
0,91,91,43,1,,608ddb1cc919e2385b9868f6,62c53aa445a7cef4ce9fa9ac,2022-07-06_08h33.32.495,Colour_Asymmetry_Pilot,2022.1.3,Win32,60.05645307,62c50e9c1127f2cd403a315f,,,,,,,,,,,,,,,,,,,,,,,,,,,,,,,,,,,,,,,,,,,,,,,,,,,,,,,,,,,,,,,,,,,,,,,,,,,,,,,,,,,,,,,,,,,,,,,,,,,,,,,,,,,,,,,,,,,,,,,,,,,,,,,,,,,,,,,,,,,,,,,,,,,,,,,,,,,,,,,,,,,
0,92,92,76,1,,608ddb1cc919e2385b9868f6,62c53aa445a7cef4ce9fa9ac,2022-07-06_08h33.32.495,Colour_Asymmetry_Pilot,2022.1.3,Win32,60.05645307,62c50e9c1127f2cd403a315f,,,,,,,,,,,,,,,,,,,,,,,,,,,,,,,,,,,,,,,,,,,,,,,,,,,,,,,,,,,,,,,,,,,,,,,,,,,,,,,,,,,,,,,,,,,,,,,,,,,,,,,,,,,,,,,,,,,,,,,,,,,,,,,,,,,,,,,,,,,,,,,,,,,,,,,,,,,,,,,,,,,
,,,,,,608ddb1cc919e2385b9868f6,62c53aa445a7cef4ce9fa9ac,2022-07-06_08h33.32.495,Colour_Asymmetry_Pilot,2022.1.3,Win32,60.05645307,62c50e9c1127f2cd403a315f,0,0,0,146,1,twoone,,,,,,,,,,,,,,,,,,,,,,,,,,,,,,,,,,,,,,,,,,,,,,,,,,,,,,,,,,,,,,,,,,,,,,,,,,,,,,,,,,,,,,,,,,,,,,,,,,,,,,,,,,,,,,,,,,,,,,,,,,,,,,,,,,,,,,,,,,,,,,,,,,,,,,,,,,,,,
,,,,,,608ddb1cc919e2385b9868f6,62c53aa445a7cef4ce9fa9ac,2022-07-06_08h33.32.495,Colour_Asymmetry_Pilot,2022.1.3,Win32,60.05645307,62c50e9c1127f2cd403a315f,0,1,1,30,1,fourtwo,,,,,,,,,,,,,,,,,,,,,,,,,,,,,,,,,,,,,,,,,,,,,,,,,,,,,,,,,,,,,,,,,,,,,,,,,,,,,,,,,,,,,,,,,,,,,,,,,,,,,,,,,,,,,,,,,,,,,,,,,,,,,,,,,,,,,,,,,,,,,,,,,,,,,,,,,,,,,
,,,,,,608ddb1cc919e2385b9868f6,62c53aa445a7cef4ce9fa9ac,2022-07-06_08h33.32.495,Colour_Asymmetry_Pilot,2022.1.3,Win32,60.05645307,62c50e9c1127f2cd403a315f,0,2,2,6,1,fourtwo,,,,,,,,,,,,,,,,,,,,,,,,,,,,,,,,,,,,,,,,,,,,,,,,,,,,,,,,,,,,,,,,,,,,,,,,,,,,,,,,,,,,,,,,,,,,,,,,,,,,,,,,,,,,,,,,,,,,,,,,,,,,,,,,,,,,,,,,,,,,,,,,,,,,,,,,,,,,,
,,,,,,608ddb1cc919e2385b9868f6,62c53aa445a7cef4ce9fa9ac,2022-07-06_08h33.32.495,Colour_Asymmetry_Pilot,2022.1.3,Win32,60.05645307,62c50e9c1127f2cd403a315f,0,3,3,42,1,twoone,,,,,,,,,,,,,,,,,,,,,,,,,,,,,,,,,,,,,,,,,,,,,,,,,,,,,,,,,,,,,,,,,,,,,,,,,,,,,,,,,,,,,,,,,,,,,,,,,,,,,,,,,,,,,,,,,,,,,,,,,,,,,,,,,,,,,,,,,,,,,,,,,,,,,,,,,,,,,
,,,,,,608ddb1cc919e2385b9868f6,62c53aa445a7cef4ce9fa9ac,2022-07-06_08h33.32.495,Colour_Asymmetry_Pilot,2022.1.3,Win32,60.05645307,62c50e9c1127f2cd403a315f,0,4,4,130,1,twoone,,,,,,,,,,,,,,,,,,,,,,,,,,,,,,,,,,,,,,,,,,,,,,,,,,,,,,,,,,,,,,,,,,,,,,,,,,,,,,,,,,,,,,,,,,,,,,,,,,,,,,,,,,,,,,,,,,,,,,,,,,,,,,,,,,,,,,,,,,,,,,,,,,,,,,,,,,,,,
,,,,,,608ddb1cc919e2385b9868f6,62c53aa445a7cef4ce9fa9ac,2022-07-06_08h33.32.495,Colour_Asymmetry_Pilot,2022.1.3,Win32,60.05645307,62c50e9c1127f2cd403a315f,0,5,5,148,1,threeone,,,,,,,,,,,,,,,,,,,,,,,,,,,,,,,,,,,,,,,,,,,,,,,,,,,,,,,,,,,,,,,,,,,,,,,,,,,,,,,,,,,,,,,,,,,,,,,,,,,,,,,,,,,,,,,,,,,,,,,,,,,,,,,,,,,,,,,,,,,,,,,,,,,,,,,,,,,,,
,,,,,,608ddb1cc919e2385b9868f6,62c53aa445a7cef4ce9fa9ac,2022-07-06_08h33.32.495,Colour_Asymmetry_Pilot,2022.1.3,Win32,60.05645307,62c50e9c1127f2cd403a315f,0,6,6,137,1,onethree,,,,,,,,,,,,,,,,,,,,,,,,,,,,,,,,,,,,,,,,,,,,,,,,,,,,,,,,,,,,,,,,,,,,,,,,,,,,,,,,,,,,,,,,,,,,,,,,,,,,,,,,,,,,,,,,,,,,,,,,,,,,,,,,,,,,,,,,,,,,,,,,,,,,,,,,,,,,,
,,,,,,608ddb1cc919e2385b9868f6,62c53aa445a7cef4ce9fa9ac,2022-07-06_08h33.32.495,Colour_Asymmetry_Pilot,2022.1.3,Win32,60.05645307,62c50e9c1127f2cd403a315f,0,7,7,86,1,fourtwo,,,,,,,,,,,,,,,,,,,,,,,,,,,,,,,,,,,,,,,,,,,,,,,,,,,,,,,,,,,,,,,,,,,,,,,,,,,,,,,,,,,,,,,,,,,,,,,,,,,,,,,,,,,,,,,,,,,,,,,,,,,,,,,,,,,,,,,,,,,,,,,,,,,,,,,,,,,,,
,,,,,,608ddb1cc919e2385b9868f6,62c53aa445a7cef4ce9fa9ac,2022-07-06_08h33.32.495,Colour_Asymmetry_Pilot,2022.1.3,Win32,60.05645307,62c50e9c1127f2cd403a315f,0,8,8,147,1,twofour,,,,,,,,,,,,,,,,,,,,,,,,,,,,,,,,,,,,,,,,,,,,,,,,,,,,,,,,,,,,,,,,,,,,,,,,,,,,,,,,,,,,,,,,,,,,,,,,,,,,,,,,,,,,,,,,,,,,,,,,,,,,,,,,,,,,,,,,,,,,,,,,,,,,,,,,,,,,,
,,,,,,608ddb1cc919e2385b9868f6,62c53aa445a7cef4ce9fa9ac,2022-07-06_08h33.32.495,Colour_Asymmetry_Pilot,2022.1.3,Win32,60.05645307,62c50e9c1127f2cd403a315f,0,9,9,33,1,onethree,,,,,,,,,,,,,,,,,,,,,,,,,,,,,,,,,,,,,,,,,,,,,,,,,,,,,,,,,,,,,,,,,,,,,,,,,,,,,,,,,,,,,,,,,,,,,,,,,,,,,,,,,,,,,,,,,,,,,,,,,,,,,,,,,,,,,,,,,,,,,,,,,,,,,,,,,,,,,
,,,,,,608ddb1cc919e2385b9868f6,62c53aa445a7cef4ce9fa9ac,2022-07-06_08h33.32.495,Colour_Asymmetry_Pilot,2022.1.3,Win32,60.05645307,62c50e9c1127f2cd403a315f,0,10,10,43,1,twofour,,,,,,,,,,,,,,,,,,,,,,,,,,,,,,,,,,,,,,,,,,,,,,,,,,,,,,,,,,,,,,,,,,,,,,,,,,,,,,,,,,,,,,,,,,,,,,,,,,,,,,,,,,,,,,,,,,,,,,,,,,,,,,,,,,,,,,,,,,,,,,,,,,,,,,,,,,,,,
,,,,,,608ddb1cc919e2385b9868f6,62c53aa445a7cef4ce9fa9ac,2022-07-06_08h33.32.495,Colour_Asymmetry_Pilot,2022.1.3,Win32,60.05645307,62c50e9c1127f2cd403a315f,0,11,11,75,1,twofour,,,,,,,,,,,,,,,,,,,,,,,,,,,,,,,,,,,,,,,,,,,,,,,,,,,,,,,,,,,,,,,,,,,,,,,,,,,,,,,,,,,,,,,,,,,,,,,,,,,,,,,,,,,,,,,,,,,,,,,,,,,,,,,,,,,,,,,,,,,,,,,,,,,,,,,,,,,,,
,,,,,,608ddb1cc919e2385b9868f6,62c53aa445a7cef4ce9fa9ac,2022-07-06_08h33.32.495,Colour_Asymmetry_Pilot,2022.1.3,Win32,60.05645307,62c50e9c1127f2cd403a315f,0,12,12,110,1,fourtwo,,,,,,,,,,,,,,,,,,,,,,,,,,,,,,,,,,,,,,,,,,,,,,,,,,,,,,,,,,,,,,,,,,,,,,,,,,,,,,,,,,,,,,,,,,,,,,,,,,,,,,,,,,,,,,,,,,,,,,,,,,,,,,,,,,,,,,,,,,,,,,,,,,,,,,,,,,,,,
,,,,,,608ddb1cc919e2385b9868f6,62c53aa445a7cef4ce9fa9ac,2022-07-06_08h33.32.495,Colour_Asymmetry_Pilot,2022.1.3,Win32,60.05645307,62c50e9c1127f2cd403a315f,0,13,13,87,1,fourthree,,,,,,,,,,,,,,,,,,,,,,,,,,,,,,,,,,,,,,,,,,,,,,,,,,,,,,,,,,,,,,,,,,,,,,,,,,,,,,,,,,,,,,,,,,,,,,,,,,,,,,,,,,,,,,,,,,,,,,,,,,,,,,,,,,,,,,,,,,,,,,,,,,,,,,,,,,,,,
,,,,,,608ddb1cc919e2385b9868f6,62c53aa445a7cef4ce9fa9ac,2022-07-06_08h33.32.495,Colour_Asymmetry_Pilot,2022.1.3,Win32,60.05645307,62c50e9c1127f2cd403a315f,0,14,14,90,1,twoone,,,,,,,,,,,,,,,,,,,,,,,,,,,,,,,,,,,,,,,,,,,,,,,,,,,,,,,,,,,,,,,,,,,,,,,,,,,,,,,,,,,,,,,,,,,,,,,,,,,,,,,,,,,,,,,,,,,,,,,,,,,,,,,,,,,,,,,,,,,,,,,,,,,,,,,,,,,,,
,,,,,,608ddb1cc919e2385b9868f6,62c53aa445a7cef4ce9fa9ac,2022-07-06_08h33.32.495,Colour_Asymmetry_Pilot,2022.1.3,Win32,60.05645307,62c50e9c1127f2cd403a315f,0,15,15,50,1,twoone,,,,,,,,,,,,,,,,,,,,,,,,,,,,,,,,,,,,,,,,,,,,,,,,,,,,,,,,,,,,,,,,,,,,,,,,,,,,,,,,,,,,,,,,,,,,,,,,,,,,,,,,,,,,,,,,,,,,,,,,,,,,,,,,,,,,,,,,,,,,,,,,,,,,,,,,,,,,,
,,,,,,608ddb1cc919e2385b9868f6,62c53aa445a7cef4ce9fa9ac,2022-07-06_08h33.32.495,Colour_Asymmetry_Pilot,2022.1.3,Win32,60.05645307,62c50e9c1127f2cd403a315f,0,16,16,7,1,fourthree,,,,,,,,,,,,,,,,,,,,,,,,,,,,,,,,,,,,,,,,,,,,,,,,,,,,,,,,,,,,,,,,,,,,,,,,,,,,,,,,,,,,,,,,,,,,,,,,,,,,,,,,,,,,,,,,,,,,,,,,,,,,,,,,,,,,,,,,,,,,,,,,,,,,,,,,,,,,,
,,,,,,608ddb1cc919e2385b9868f6,62c53aa445a7cef4ce9fa9ac,2022-07-06_08h33.32.495,Colour_Asymmetry_Pilot,2022.1.3,Win32,60.05645307,62c50e9c1127f2cd403a315f,0,17,17,23,1,fourthree,,,,,,,,,,,,,,,,,,,,,,,,,,,,,,,,,,,,,,,,,,,,,,,,,,,,,,,,,,,,,,,,,,,,,,,,,,,,,,,,,,,,,,,,,,,,,,,,,,,,,,,,,,,,,,,,,,,,,,,,,,,,,,,,,,,,,,,,,,,,,,,,,,,,,,,,,,,,,
,,,,,,608ddb1cc919e2385b9868f6,62c53aa445a7cef4ce9fa9ac,2022-07-06_08h33.32.495,Colour_Asymmetry_Pilot,2022.1.3,Win32,60.05645307,62c50e9c1127f2cd403a315f,0,18,18,66,1,twoone,,,,,,,,,,,,,,,,,,,,,,,,,,,,,,,,,,,,,,,,,,,,,,,,,,,,,,,,,,,,,,,,,,,,,,,,,,,,,,,,,,,,,,,,,,,,,,,,,,,,,,,,,,,,,,,,,,,,,,,,,,,,,,,,,,,,,,,,,,,,,,,,,,,,,,,,,,,,,
,,,,,,608ddb1cc919e2385b9868f6,62c53aa445a7cef4ce9fa9ac,2022-07-06_08h33.32.495,Colour_Asymmetry_Pilot,2022.1.3,Win32,60.05645307,62c50e9c1127f2cd403a315f,0,19,19,123,1,twofour,,,,,,,,,,,,,,,,,,,,,,,,,,,,,,,,,,,,,,,,,,,,,,,,,,,,,,,,,,,,,,,,,,,,,,,,,,,,,,,,,,,,,,,,,,,,,,,,,,,,,,,,,,,,,,,,,,,,,,,,,,,,,,,,,,,,,,,,,,,,,,,,,,,,,,,,,,,,,
,,,,,,608ddb1cc919e2385b9868f6,62c53aa445a7cef4ce9fa9ac,2022-07-06_08h33.32.495,Colour_Asymmetry_Pilot,2022.1.3,Win32,60.05645307,62c50e9c1127f2cd403a315f,0,20,20,95,1,fourthree,,,,,,,,,,,,,,,,,,,,,,,,,,,,,,,,,,,,,,,,,,,,,,,,,,,,,,,,,,,,,,,,,,,,,,,,,,,,,,,,,,,,,,,,,,,,,,,,,,,,,,,,,,,,,,,,,,,,,,,,,,,,,,,,,,,,,,,,,,,,,,,,,,,,,,,,,,,,,
,,,,,,608ddb1cc919e2385b9868f6,62c53aa445a7cef4ce9fa9ac,2022-07-06_08h33.32.495,Colour_Asymmetry_Pilot,2022.1.3,Win32,60.05645307,62c50e9c1127f2cd403a315f,0,21,21,133,1,threefour,,,,,,,,,,,,,,,,,,,,,,,,,,,,,,,,,,,,,,,,,,,,,,,,,,,,,,,,,,,,,,,,,,,,,,,,,,,,,,,,,,,,,,,,,,,,,,,,,,,,,,,,,,,,,,,,,,,,,,,,,,,,,,,,,,,,,,,,,,,,,,,,,,,,,,,,,,,,,
,,,,,,608ddb1cc919e2385b9868f6,62c53aa445a7cef4ce9fa9ac,2022-07-06_08h33.32.495,Colour_Asymmetry_Pilot,2022.1.3,Win32,60.05645307,62c50e9c1127f2cd403a315f,0,22,22,40,1,onetwo,,,,,,,,,,,,,,,,,,,,,,,,,,,,,,,,,,,,,,,,,,,,,,,,,,,,,,,,,,,,,,,,,,,,,,,,,,,,,,,,,,,,,,,,,,,,,,,,,,,,,,,,,,,,,,,,,,,,,,,,,,,,,,,,,,,,,,,,,,,,,,,,,,,,,,,,,,,,,
,,,,,,608ddb1cc919e2385b9868f6,62c53aa445a7cef4ce9fa9ac,2022-07-06_08h33.32.495,Colour_Asymmetry_Pilot,2022.1.3,Win32,60.05645307,62c50e9c1127f2cd403a315f,0,23,23,8,1,onetwo,,,,,,,,,,,,,,,,,,,,,,,,,,,,,,,,,,,,,,,,,,,,,,,,,,,,,,,,,,,,,,,,,,,,,,,,,,,,,,,,,,,,,,,,,,,,,,,,,,,,,,,,,,,,,,,,,,,,,,,,,,,,,,,,,,,,,,,,,,,,,,,,,,,,,,,,,,,,,
,,,,,,608ddb1cc919e2385b9868f6,62c53aa445a7cef4ce9fa9ac,2022-07-06_08h33.32.495,Colour_Asymmetry_Pilot,2022.1.3,Win32,60.05645307,62c50e9c1127f2cd403a315f,0,24,24,61,1,threefour,,,,,,,,,,,,,,,,,,,,,,,,,,,,,,,,,,,,,,,,,,,,,,,,,,,,,,,,,,,,,,,,,,,,,,,,,,,,,,,,,,,,,,,,,,,,,,,,,,,,,,,,,,,,,,,,,,,,,,,,,,,,,,,,,,,,,,,,,,,,,,,,,,,,,,,,,,,,,
,,,,,,608ddb1cc919e2385b9868f6,62c53aa445a7cef4ce9fa9ac,2022-07-06_08h33.32.495,Colour_Asymmetry_Pilot,2022.1.3,Win32,60.05645307,62c50e9c1127f2cd403a315f,0,25,25,38,1,fourtwo,,,,,,,,,,,,,,,,,,,,,,,,,,,,,,,,,,,,,,,,,,,,,,,,,,,,,,,,,,,,,,,,,,,,,,,,,,,,,,,,,,,,,,,,,,,,,,,,,,,,,,,,,,,,,,,,,,,,,,,,,,,,,,,,,,,,,,,,,,,,,,,,,,,,,,,,,,,,,
,,,,,,608ddb1cc919e2385b9868f6,62c53aa445a7cef4ce9fa9ac,2022-07-06_08h33.32.495,Colour_Asymmetry_Pilot,2022.1.3,Win32,60.05645307,62c50e9c1127f2cd403a315f,0,26,26,36,1,threeone,,,,,,,,,,,,,,,,,,,,,,,,,,,,,,,,,,,,,,,,,,,,,,,,,,,,,,,,,,,,,,,,,,,,,,,,,,,,,,,,,,,,,,,,,,,,,,,,,,,,,,,,,,,,,,,,,,,,,,,,,,,,,,,,,,,,,,,,,,,,,,,,,,,,,,,,,,,,,
,,,,,,608ddb1cc919e2385b9868f6,62c53aa445a7cef4ce9fa9ac,2022-07-06_08h33.32.495,Colour_Asymmetry_Pilot,2022.1.3,Win32,60.05645307,62c50e9c1127f2cd403a315f,0,27,27,35,1,twofour,,,,,,,,,,,,,,,,,,,,,,,,,,,,,,,,,,,,,,,,,,,,,,,,,,,,,,,,,,,,,,,,,,,,,,,,,,,,,,,,,,,,,,,,,,,,,,,,,,,,,,,,,,,,,,,,,,,,,,,,,,,,,,,,,,,,,,,,,,,,,,,,,,,,,,,,,,,,,
,,,,,,608ddb1cc919e2385b9868f6,62c53aa445a7cef4ce9fa9ac,2022-07-06_08h33.32.495,Colour_Asymmetry_Pilot,2022.1.3,Win32,60.05645307,62c50e9c1127f2cd403a315f,0,28,28,161,1,onethree,,,,,,,,,,,,,,,,,,,,,,,,,,,,,,,,,,,,,,,,,,,,,,,,,,,,,,,,,,,,,,,,,,,,,,,,,,,,,,,,,,,,,,,,,,,,,,,,,,,,,,,,,,,,,,,,,,,,,,,,,,,,,,,,,,,,,,,,,,,,,,,,,,,,,,,,,,,,,
,,,,,,608ddb1cc919e2385b9868f6,62c53aa445a7cef4ce9fa9ac,2022-07-06_08h33.32.495,Colour_Asymmetry_Pilot,2022.1.3,Win32,60.05645307,62c50e9c1127f2cd403a315f,0,29,29,153,1,onethree,,,,,,,,,,,,,,,,,,,,,,,,,,,,,,,,,,,,,,,,,,,,,,,,,,,,,,,,,,,,,,,,,,,,,,,,,,,,,,,,,,,,,,,,,,,,,,,,,,,,,,,,,,,,,,,,,,,,,,,,,,,,,,,,,,,,,,,,,,,,,,,,,,,,,,,,,,,,,
,,,,,,608ddb1cc919e2385b9868f6,62c53aa445a7cef4ce9fa9ac,2022-07-06_08h33.32.495,Colour_Asymmetry_Pilot,2022.1.3,Win32,60.05645307,62c50e9c1127f2cd403a315f,0,30,30,44,1,threeone,,,,,,,,,,,,,,,,,,,,,,,,,,,,,,,,,,,,,,,,,,,,,,,,,,,,,,,,,,,,,,,,,,,,,,,,,,,,,,,,,,,,,,,,,,,,,,,,,,,,,,,,,,,,,,,,,,,,,,,,,,,,,,,,,,,,,,,,,,,,,,,,,,,,,,,,,,,,,
,,,,,,608ddb1cc919e2385b9868f6,62c53aa445a7cef4ce9fa9ac,2022-07-06_08h33.32.495,Colour_Asymmetry_Pilot,2022.1.3,Win32,60.05645307,62c50e9c1127f2cd403a315f,0,31,31,128,1,onetwo,,,,,,,,,,,,,,,,,,,,,,,,,,,,,,,,,,,,,,,,,,,,,,,,,,,,,,,,,,,,,,,,,,,,,,,,,,,,,,,,,,,,,,,,,,,,,,,,,,,,,,,,,,,,,,,,,,,,,,,,,,,,,,,,,,,,,,,,,,,,,,,,,,,,,,,,,,,,,
,,,,,,608ddb1cc919e2385b9868f6,62c53aa445a7cef4ce9fa9ac,2022-07-06_08h33.32.495,Colour_Asymmetry_Pilot,2022.1.3,Win32,60.05645307,62c50e9c1127f2cd403a315f,0,32,32,81,1,onethree,,,,,,,,,,,,,,,,,,,,,,,,,,,,,,,,,,,,,,,,,,,,,,,,,,,,,,,,,,,,,,,,,,,,,,,,,,,,,,,,,,,,,,,,,,,,,,,,,,,,,,,,,,,,,,,,,,,,,,,,,,,,,,,,,,,,,,,,,,,,,,,,,,,,,,,,,,,,,
,,,,,,608ddb1cc919e2385b9868f6,62c53aa445a7cef4ce9fa9ac,2022-07-06_08h33.32.495,Colour_Asymmetry_Pilot,2022.1.3,Win32,60.05645307,62c50e9c1127f2cd403a315f,0,33,33,5,1,threefour,,,,,,,,,,,,,,,,,,,,,,,,,,,,,,,,,,,,,,,,,,,,,,,,,,,,,,,,,,,,,,,,,,,,,,,,,,,,,,,,,,,,,,,,,,,,,,,,,,,,,,,,,,,,,,,,,,,,,,,,,,,,,,,,,,,,,,,,,,,,,,,,,,,,,,,,,,,,,
,,,,,,608ddb1cc919e2385b9868f6,62c53aa445a7cef4ce9fa9ac,2022-07-06_08h33.32.495,Colour_Asymmetry_Pilot,2022.1.3,Win32,60.05645307,62c50e9c1127f2cd403a315f,0,34,34,0,1,onetwo,,,,,,,,,,,,,,,,,,,,,,,,,,,,,,,,,,,,,,,,,,,,,,,,,,,,,,,,,,,,,,,,,,,,,,,,,,,,,,,,,,,,,,,,,,,,,,,,,,,,,,,,,,,,,,,,,,,,,,,,,,,,,,,,,,,,,,,,,,,,,,,,,,,,,,,,,,,,,
,,,,,,608ddb1cc919e2385b9868f6,62c53aa445a7cef4ce9fa9ac,2022-07-06_08h33.32.495,Colour_Asymmetry_Pilot,2022.1.3,Win32,60.05645307,62c50e9c1127f2cd403a315f,0,35,35,140,1,threeone,,,,,,,,,,,,,,,,,,,,,,,,,,,,,,,,,,,,,,,,,,,,,,,,,,,,,,,,,,,,,,,,,,,,,,,,,,,,,,,,,,,,,,,,,,,,,,,,,,,,,,,,,,,,,,,,,,,,,,,,,,,,,,,,,,,,,,,,,,,,,,,,,,,,,,,,,,,,,
,,,,,,608ddb1cc919e2385b9868f6,62c53aa445a7cef4ce9fa9ac,2022-07-06_08h33.32.495,Colour_Asymmetry_Pilot,2022.1.3,Win32,60.05645307,62c50e9c1127f2cd403a315f,0,36,36,10,1,twoone,,,,,,,,,,,,,,,,,,,,,,,,,,,,,,,,,,,,,,,,,,,,,,,,,,,,,,,,,,,,,,,,,,,,,,,,,,,,,,,,,,,,,,,,,,,,,,,,,,,,,,,,,,,,,,,,,,,,,,,,,,,,,,,,,,,,,,,,,,,,,,,,,,,,,,,,,,,,,
,,,,,,608ddb1cc919e2385b9868f6,62c53aa445a7cef4ce9fa9ac,2022-07-06_08h33.32.495,Colour_Asymmetry_Pilot,2022.1.3,Win32,60.05645307,62c50e9c1127f2cd403a315f,0,37,37,142,1,fourtwo,,,,,,,,,,,,,,,,,,,,,,,,,,,,,,,,,,,,,,,,,,,,,,,,,,,,,,,,,,,,,,,,,,,,,,,,,,,,,,,,,,,,,,,,,,,,,,,,,,,,,,,,,,,,,,,,,,,,,,,,,,,,,,,,,,,,,,,,,,,,,,,,,,,,,,,,,,,,,
,,,,,,608ddb1cc919e2385b9868f6,62c53aa445a7cef4ce9fa9ac,2022-07-06_08h33.32.495,Colour_Asymmetry_Pilot,2022.1.3,Win32,60.05645307,62c50e9c1127f2cd403a315f,0,38,38,25,1,onethree,,,,,,,,,,,,,,,,,,,,,,,,,,,,,,,,,,,,,,,,,,,,,,,,,,,,,,,,,,,,,,,,,,,,,,,,,,,,,,,,,,,,,,,,,,,,,,,,,,,,,,,,,,,,,,,,,,,,,,,,,,,,,,,,,,,,,,,,,,,,,,,,,,,,,,,,,,,,,
,,,,,,608ddb1cc919e2385b9868f6,62c53aa445a7cef4ce9fa9ac,2022-07-06_08h33.32.495,Colour_Asymmetry_Pilot,2022.1.3,Win32,60.05645307,62c50e9c1127f2cd403a315f,0,39,39,2,1,twoone,,,,,,,,,,,,,,,,,,,,,,,,,,,,,,,,,,,,,,,,,,,,,,,,,,,,,,,,,,,,,,,,,,,,,,,,,,,,,,,,,,,,,,,,,,,,,,,,,,,,,,,,,,,,,,,,,,,,,,,,,,,,,,,,,,,,,,,,,,,,,,,,,,,,,,,,,,,,,
,,,,,,608ddb1cc919e2385b9868f6,62c53aa445a7cef4ce9fa9ac,2022-07-06_08h33.32.495,Colour_Asymmetry_Pilot,2022.1.3,Win32,60.05645307,62c50e9c1127f2cd403a315f,0,40,40,48,1,onetwo,,,,,,,,,,,,,,,,,,,,,,,,,,,,,,,,,,,,,,,,,,,,,,,,,,,,,,,,,,,,,,,,,,,,,,,,,,,,,,,,,,,,,,,,,,,,,,,,,,,,,,,,,,,,,,,,,,,,,,,,,,,,,,,,,,,,,,,,,,,,,,,,,,,,,,,,,,,,,
,,,,,,608ddb1cc919e2385b9868f6,62c53aa445a7cef4ce9fa9ac,2022-07-06_08h33.32.495,Colour_Asymmetry_Pilot,2022.1.3,Win32,60.05645307,62c50e9c1127f2cd403a315f,0,41,41,70,1,fourtwo,,,,,,,,,,,,,,,,,,,,,,,,,,,,,,,,,,,,,,,,,,,,,,,,,,,,,,,,,,,,,,,,,,,,,,,,,,,,,,,,,,,,,,,,,,,,,,,,,,,,,,,,,,,,,,,,,,,,,,,,,,,,,,,,,,,,,,,,,,,,,,,,,,,,,,,,,,,,,
,,,,,,608ddb1cc919e2385b9868f6,62c53aa445a7cef4ce9fa9ac,2022-07-06_08h33.32.495,Colour_Asymmetry_Pilot,2022.1.3,Win32,60.05645307,62c50e9c1127f2cd403a315f,0,42,42,85,1,threefour,,,,,,,,,,,,,,,,,,,,,,,,,,,,,,,,,,,,,,,,,,,,,,,,,,,,,,,,,,,,,,,,,,,,,,,,,,,,,,,,,,,,,,,,,,,,,,,,,,,,,,,,,,,,,,,,,,,,,,,,,,,,,,,,,,,,,,,,,,,,,,,,,,,,,,,,,,,,,
,,,,,,608ddb1cc919e2385b9868f6,62c53aa445a7cef4ce9fa9ac,2022-07-06_08h33.32.495,Colour_Asymmetry_Pilot,2022.1.3,Win32,60.05645307,62c50e9c1127f2cd403a315f,0,43,43,54,1,fourtwo,,,,,,,,,,,,,,,,,,,,,,,,,,,,,,,,,,,,,,,,,,,,,,,,,,,,,,,,,,,,,,,,,,,,,,,,,,,,,,,,,,,,,,,,,,,,,,,,,,,,,,,,,,,,,,,,,,,,,,,,,,,,,,,,,,,,,,,,,,,,,,,,,,,,,,,,,,,,,
,,,,,,608ddb1cc919e2385b9868f6,62c53aa445a7cef4ce9fa9ac,2022-07-06_08h33.32.495,Colour_Asymmetry_Pilot,2022.1.3,Win32,60.05645307,62c50e9c1127f2cd403a315f,0,44,44,135,1,fourthree,,,,,,,,,,,,,,,,,,,,,,,,,,,,,,,,,,,,,,,,,,,,,,,,,,,,,,,,,,,,,,,,,,,,,,,,,,,,,,,,,,,,,,,,,,,,,,,,,,,,,,,,,,,,,,,,,,,,,,,,,,,,,,,,,,,,,,,,,,,,,,,,,,,,,,,,,,,,,
,,,,,,608ddb1cc919e2385b9868f6,62c53aa445a7cef4ce9fa9ac,2022-07-06_08h33.32.495,Colour_Asymmetry_Pilot,2022.1.3,Win32,60.05645307,62c50e9c1127f2cd403a315f,0,45,45,11,1,twofour,,,,,,,,,,,,,,,,,,,,,,,,,,,,,,,,,,,,,,,,,,,,,,,,,,,,,,,,,,,,,,,,,,,,,,,,,,,,,,,,,,,,,,,,,,,,,,,,,,,,,,,,,,,,,,,,,,,,,,,,,,,,,,,,,,,,,,,,,,,,,,,,,,,,,,,,,,,,,
,,,,,,608ddb1cc919e2385b9868f6,62c53aa445a7cef4ce9fa9ac,2022-07-06_08h33.32.495,Colour_Asymmetry_Pilot,2022.1.3,Win32,60.05645307,62c50e9c1127f2cd403a315f,0,46,46,104,1,onetwo,,,,,,,,,,,,,,,,,,,,,,,,,,,,,,,,,,,,,,,,,,,,,,,,,,,,,,,,,,,,,,,,,,,,,,,,,,,,,,,,,,,,,,,,,,,,,,,,,,,,,,,,,,,,,,,,,,,,,,,,,,,,,,,,,,,,,,,,,,,,,,,,,,,,,,,,,,,,,
,,,,,,608ddb1cc919e2385b9868f6,62c53aa445a7cef4ce9fa9ac,2022-07-06_08h33.32.495,Colour_Asymmetry_Pilot,2022.1.3,Win32,60.05645307,62c50e9c1127f2cd403a315f,0,47,47,124,1,threeone,,,,,,,,,,,,,,,,,,,,,,,,,,,,,,,,,,,,,,,,,,,,,,,,,,,,,,,,,,,,,,,,,,,,,,,,,,,,,,,,,,,,,,,,,,,,,,,,,,,,,,,,,,,,,,,,,,,,,,,,,,,,,,,,,,,,,,,,,,,,,,,,,,,,,,,,,,,,,
,,,,,,608ddb1cc919e2385b9868f6,62c53aa445a7cef4ce9fa9ac,2022-07-06_08h33.32.495,Colour_Asymmetry_Pilot,2022.1.3,Win32,60.05645307,62c50e9c1127f2cd403a315f,0,48,48,92,1,threeone,,,,,,,,,,,,,,,,,,,,,,,,,,,,,,,,,,,,,,,,,,,,,,,,,,,,,,,,,,,,,,,,,,,,,,,,,,,,,,,,,,,,,,,,,,,,,,,,,,,,,,,,,,,,,,,,,,,,,,,,,,,,,,,,,,,,,,,,,,,,,,,,,,,,,,,,,,,,,
,,,,,,608ddb1cc919e2385b9868f6,62c53aa445a7cef4ce9fa9ac,2022-07-06_08h33.32.495,Colour_Asymmetry_Pilot,2022.1.3,Win32,60.05645307,62c50e9c1127f2cd403a315f,0,49,49,103,1,fourthree,,,,,,,,,,,,,,,,,,,,,,,,,,,,,,,,,,,,,,,,,,,,,,,,,,,,,,,,,,,,,,,,,,,,,,,,,,,,,,,,,,,,,,,,,,,,,,,,,,,,,,,,,,,,,,,,,,,,,,,,,,,,,,,,,,,,,,,,,,,,,,,,,,,,,,,,,,,,,
,,,,,,608ddb1cc919e2385b9868f6,62c53aa445a7cef4ce9fa9ac,2022-07-06_08h33.32.495,Colour_Asymmetry_Pilot,2022.1.3,Win32,60.05645307,62c50e9c1127f2cd403a315f,0,50,50,119,1,fourthree,,,,,,,,,,,,,,,,,,,,,,,,,,,,,,,,,,,,,,,,,,,,,,,,,,,,,,,,,,,,,,,,,,,,,,,,,,,,,,,,,,,,,,,,,,,,,,,,,,,,,,,,,,,,,,,,,,,,,,,,,,,,,,,,,,,,,,,,,,,,,,,,,,,,,,,,,,,,,
,,,,,,608ddb1cc919e2385b9868f6,62c53aa445a7cef4ce9fa9ac,2022-07-06_08h33.32.495,Colour_Asymmetry_Pilot,2022.1.3,Win32,60.05645307,62c50e9c1127f2cd403a315f,0,51,51,63,1,fourthree,,,,,,,,,,,,,,,,,,,,,,,,,,,,,,,,,,,,,,,,,,,,,,,,,,,,,,,,,,,,,,,,,,,,,,,,,,,,,,,,,,,,,,,,,,,,,,,,,,,,,,,,,,,,,,,,,,,,,,,,,,,,,,,,,,,,,,,,,,,,,,,,,,,,,,,,,,,,,
,,,,,,608ddb1cc919e2385b9868f6,62c53aa445a7cef4ce9fa9ac,2022-07-06_08h33.32.495,Colour_Asymmetry_Pilot,2022.1.3,Win32,60.05645307,62c50e9c1127f2cd403a315f,0,52,52,159,1,fourthree,,,,,,,,,,,,,,,,,,,,,,,,,,,,,,,,,,,,,,,,,,,,,,,,,,,,,,,,,,,,,,,,,,,,,,,,,,,,,,,,,,,,,,,,,,,,,,,,,,,,,,,,,,,,,,,,,,,,,,,,,,,,,,,,,,,,,,,,,,,,,,,,,,,,,,,,,,,,,
,,,,,,608ddb1cc919e2385b9868f6,62c53aa445a7cef4ce9fa9ac,2022-07-06_08h33.32.495,Colour_Asymmetry_Pilot,2022.1.3,Win32,60.05645307,62c50e9c1127f2cd403a315f,0,53,53,67,1,twofour,,,,,,,,,,,,,,,,,,,,,,,,,,,,,,,,,,,,,,,,,,,,,,,,,,,,,,,,,,,,,,,,,,,,,,,,,,,,,,,,,,,,,,,,,,,,,,,,,,,,,,,,,,,,,,,,,,,,,,,,,,,,,,,,,,,,,,,,,,,,,,,,,,,,,,,,,,,,,
,,,,,,608ddb1cc919e2385b9868f6,62c53aa445a7cef4ce9fa9ac,2022-07-06_08h33.32.495,Colour_Asymmetry_Pilot,2022.1.3,Win32,60.05645307,62c50e9c1127f2cd403a315f,0,54,54,59,1,twofour,,,,,,,,,,,,,,,,,,,,,,,,,,,,,,,,,,,,,,,,,,,,,,,,,,,,,,,,,,,,,,,,,,,,,,,,,,,,,,,,,,,,,,,,,,,,,,,,,,,,,,,,,,,,,,,,,,,,,,,,,,,,,,,,,,,,,,,,,,,,,,,,,,,,,,,,,,,,,
,,,,,,608ddb1cc919e2385b9868f6,62c53aa445a7cef4ce9fa9ac,2022-07-06_08h33.32.495,Colour_Asymmetry_Pilot,2022.1.3,Win32,60.05645307,62c50e9c1127f2cd403a315f,0,55,55,132,1,threeone,,,,,,,,,,,,,,,,,,,,,,,,,,,,,,,,,,,,,,,,,,,,,,,,,,,,,,,,,,,,,,,,,,,,,,,,,,,,,,,,,,,,,,,,,,,,,,,,,,,,,,,,,,,,,,,,,,,,,,,,,,,,,,,,,,,,,,,,,,,,,,,,,,,,,,,,,,,,,
,,,,,,608ddb1cc919e2385b9868f6,62c53aa445a7cef4ce9fa9ac,2022-07-06_08h33.32.495,Colour_Asymmetry_Pilot,2022.1.3,Win32,60.05645307,62c50e9c1127f2cd403a315f,0,56,56,96,1,onetwo,,,,,,,,,,,,,,,,,,,,,,,,,,,,,,,,,,,,,,,,,,,,,,,,,,,,,,,,,,,,,,,,,,,,,,,,,,,,,,,,,,,,,,,,,,,,,,,,,,,,,,,,,,,,,,,,,,,,,,,,,,,,,,,,,,,,,,,,,,,,,,,,,,,,,,,,,,,,,
,,,,,,608ddb1cc919e2385b9868f6,62c53aa445a7cef4ce9fa9ac,2022-07-06_08h33.32.495,Colour_Asymmetry_Pilot,2022.1.3,Win32,60.05645307,62c50e9c1127f2cd403a315f,0,57,57,13,1,threefour,,,,,,,,,,,,,,,,,,,,,,,,,,,,,,,,,,,,,,,,,,,,,,,,,,,,,,,,,,,,,,,,,,,,,,,,,,,,,,,,,,,,,,,,,,,,,,,,,,,,,,,,,,,,,,,,,,,,,,,,,,,,,,,,,,,,,,,,,,,,,,,,,,,,,,,,,,,,,
,,,,,,608ddb1cc919e2385b9868f6,62c53aa445a7cef4ce9fa9ac,2022-07-06_08h33.32.495,Colour_Asymmetry_Pilot,2022.1.3,Win32,60.05645307,62c50e9c1127f2cd403a315f,0,58,58,82,1,twoone,,,,,,,,,,,,,,,,,,,,,,,,,,,,,,,,,,,,,,,,,,,,,,,,,,,,,,,,,,,,,,,,,,,,,,,,,,,,,,,,,,,,,,,,,,,,,,,,,,,,,,,,,,,,,,,,,,,,,,,,,,,,,,,,,,,,,,,,,,,,,,,,,,,,,,,,,,,,,
,,,,,,608ddb1cc919e2385b9868f6,62c53aa445a7cef4ce9fa9ac,2022-07-06_08h33.32.495,Colour_Asymmetry_Pilot,2022.1.3,Win32,60.05645307,62c50e9c1127f2cd403a315f,0,59,59,53,1,threefour,,,,,,,,,,,,,,,,,,,,,,,,,,,,,,,,,,,,,,,,,,,,,,,,,,,,,,,,,,,,,,,,,,,,,,,,,,,,,,,,,,,,,,,,,,,,,,,,,,,,,,,,,,,,,,,,,,,,,,,,,,,,,,,,,,,,,,,,,,,,,,,,,,,,,,,,,,,,,
,,,,,,608ddb1cc919e2385b9868f6,62c53aa445a7cef4ce9fa9ac,2022-07-06_08h33.32.495,Colour_Asymmetry_Pilot,2022.1.3,Win32,60.05645307,62c50e9c1127f2cd403a315f,0,60,60,9,1,onethree,,,,,,,,,,,,,,,,,,,,,,,,,,,,,,,,,,,,,,,,,,,,,,,,,,,,,,,,,,,,,,,,,,,,,,,,,,,,,,,,,,,,,,,,,,,,,,,,,,,,,,,,,,,,,,,,,,,,,,,,,,,,,,,,,,,,,,,,,,,,,,,,,,,,,,,,,,,,,
,,,,,,608ddb1cc919e2385b9868f6,62c53aa445a7cef4ce9fa9ac,2022-07-06_08h33.32.495,Colour_Asymmetry_Pilot,2022.1.3,Win32,60.05645307,62c50e9c1127f2cd403a315f,0,61,61,93,1,threefour,,,,,,,,,,,,,,,,,,,,,,,,,,,,,,,,,,,,,,,,,,,,,,,,,,,,,,,,,,,,,,,,,,,,,,,,,,,,,,,,,,,,,,,,,,,,,,,,,,,,,,,,,,,,,,,,,,,,,,,,,,,,,,,,,,,,,,,,,,,,,,,,,,,,,,,,,,,,,
,,,,,,608ddb1cc919e2385b9868f6,62c53aa445a7cef4ce9fa9ac,2022-07-06_08h33.32.495,Colour_Asymmetry_Pilot,2022.1.3,Win32,60.05645307,62c50e9c1127f2cd403a315f,0,62,62,21,1,threefour,,,,,,,,,,,,,,,,,,,,,,,,,,,,,,,,,,,,,,,,,,,,,,,,,,,,,,,,,,,,,,,,,,,,,,,,,,,,,,,,,,,,,,,,,,,,,,,,,,,,,,,,,,,,,,,,,,,,,,,,,,,,,,,,,,,,,,,,,,,,,,,,,,,,,,,,,,,,,
,,,,,,608ddb1cc919e2385b9868f6,62c53aa445a7cef4ce9fa9ac,2022-07-06_08h33.32.495,Colour_Asymmetry_Pilot,2022.1.3,Win32,60.05645307,62c50e9c1127f2cd403a315f,0,63,63,78,1,fourtwo,,,,,,,,,,,,,,,,,,,,,,,,,,,,,,,,,,,,,,,,,,,,,,,,,,,,,,,,,,,,,,,,,,,,,,,,,,,,,,,,,,,,,,,,,,,,,,,,,,,,,,,,,,,,,,,,,,,,,,,,,,,,,,,,,,,,,,,,,,,,,,,,,,,,,,,,,,,,,
,,,,,,608ddb1cc919e2385b9868f6,62c53aa445a7cef4ce9fa9ac,2022-07-06_08h33.32.495,Colour_Asymmetry_Pilot,2022.1.3,Win32,60.05645307,62c50e9c1127f2cd403a315f,0,64,64,72,1,onetwo,,,,,,,,,,,,,,,,,,,,,,,,,,,,,,,,,,,,,,,,,,,,,,,,,,,,,,,,,,,,,,,,,,,,,,,,,,,,,,,,,,,,,,,,,,,,,,,,,,,,,,,,,,,,,,,,,,,,,,,,,,,,,,,,,,,,,,,,,,,,,,,,,,,,,,,,,,,,,
,,,,,,608ddb1cc919e2385b9868f6,62c53aa445a7cef4ce9fa9ac,2022-07-06_08h33.32.495,Colour_Asymmetry_Pilot,2022.1.3,Win32,60.05645307,62c50e9c1127f2cd403a315f,0,65,65,134,1,fourtwo,,,,,,,,,,,,,,,,,,,,,,,,,,,,,,,,,,,,,,,,,,,,,,,,,,,,,,,,,,,,,,,,,,,,,,,,,,,,,,,,,,,,,,,,,,,,,,,,,,,,,,,,,,,,,,,,,,,,,,,,,,,,,,,,,,,,,,,,,,,,,,,,,,,,,,,,,,,,,
,,,,,,608ddb1cc919e2385b9868f6,62c53aa445a7cef4ce9fa9ac,2022-07-06_08h33.32.495,Colour_Asymmetry_Pilot,2022.1.3,Win32,60.05645307,62c50e9c1127f2cd403a315f,0,66,66,65,1,onethree,,,,,,,,,,,,,,,,,,,,,,,,,,,,,,,,,,,,,,,,,,,,,,,,,,,,,,,,,,,,,,,,,,,,,,,,,,,,,,,,,,,,,,,,,,,,,,,,,,,,,,,,,,,,,,,,,,,,,,,,,,,,,,,,,,,,,,,,,,,,,,,,,,,,,,,,,,,,,
,,,,,,608ddb1cc919e2385b9868f6,62c53aa445a7cef4ce9fa9ac,2022-07-06_08h33.32.495,Colour_Asymmetry_Pilot,2022.1.3,Win32,60.05645307,62c50e9c1127f2cd403a315f,0,67,67,3,1,twofour,,,,,,,,,,,,,,,,,,,,,,,,,,,,,,,,,,,,,,,,,,,,,,,,,,,,,,,,,,,,,,,,,,,,,,,,,,,,,,,,,,,,,,,,,,,,,,,,,,,,,,,,,,,,,,,,,,,,,,,,,,,,,,,,,,,,,,,,,,,,,,,,,,,,,,,,,,,,,
,,,,,,608ddb1cc919e2385b9868f6,62c53aa445a7cef4ce9fa9ac,2022-07-06_08h33.32.495,Colour_Asymmetry_Pilot,2022.1.3,Win32,60.05645307,62c50e9c1127f2cd403a315f,0,68,68,101,1,threefour,,,,,,,,,,,,,,,,,,,,,,,,,,,,,,,,,,,,,,,,,,,,,,,,,,,,,,,,,,,,,,,,,,,,,,,,,,,,,,,,,,,,,,,,,,,,,,,,,,,,,,,,,,,,,,,,,,,,,,,,,,,,,,,,,,,,,,,,,,,,,,,,,,,,,,,,,,,,,
,,,,,,608ddb1cc919e2385b9868f6,62c53aa445a7cef4ce9fa9ac,2022-07-06_08h33.32.495,Colour_Asymmetry_Pilot,2022.1.3,Win32,60.05645307,62c50e9c1127f2cd403a315f,0,69,69,131,1,twofour,,,,,,,,,,,,,,,,,,,,,,,,,,,,,,,,,,,,,,,,,,,,,,,,,,,,,,,,,,,,,,,,,,,,,,,,,,,,,,,,,,,,,,,,,,,,,,,,,,,,,,,,,,,,,,,,,,,,,,,,,,,,,,,,,,,,,,,,,,,,,,,,,,,,,,,,,,,,,
,,,,,,608ddb1cc919e2385b9868f6,62c53aa445a7cef4ce9fa9ac,2022-07-06_08h33.32.495,Colour_Asymmetry_Pilot,2022.1.3,Win32,60.05645307,62c50e9c1127f2cd403a315f,0,70,70,73,1,onethree,,,,,,,,,,,,,,,,,,,,,,,,,,,,,,,,,,,,,,,,,,,,,,,,,,,,,,,,,,,,,,,,,,,,,,,,,,,,,,,,,,,,,,,,,,,,,,,,,,,,,,,,,,,,,,,,,,,,,,,,,,,,,,,,,,,,,,,,,,,,,,,,,,,,,,,,,,,,,
,,,,,,608ddb1cc919e2385b9868f6,62c53aa445a7cef4ce9fa9ac,2022-07-06_08h33.32.495,Colour_Asymmetry_Pilot,2022.1.3,Win32,60.05645307,62c50e9c1127f2cd403a315f,0,71,71,32,1,onetwo,,,,,,,,,,,,,,,,,,,,,,,,,,,,,,,,,,,,,,,,,,,,,,,,,,,,,,,,,,,,,,,,,,,,,,,,,,,,,,,,,,,,,,,,,,,,,,,,,,,,,,,,,,,,,,,,,,,,,,,,,,,,,,,,,,,,,,,,,,,,,,,,,,,,,,,,,,,,,
,,,,,,608ddb1cc919e2385b9868f6,62c53aa445a7cef4ce9fa9ac,2022-07-06_08h33.32.495,Colour_Asymmetry_Pilot,2022.1.3,Win32,60.05645307,62c50e9c1127f2cd403a315f,0,72,72,129,1,onethree,,,,,,,,,,,,,,,,,,,,,,,,,,,,,,,,,,,,,,,,,,,,,,,,,,,,,,,,,,,,,,,,,,,,,,,,,,,,,,,,,,,,,,,,,,,,,,,,,,,,,,,,,,,,,,,,,,,,,,,,,,,,,,,,,,,,,,,,,,,,,,,,,,,,,,,,,,,,,
,,,,,,608ddb1cc919e2385b9868f6,62c53aa445a7cef4ce9fa9ac,2022-07-06_08h33.32.495,Colour_Asymmetry_Pilot,2022.1.3,Win32,60.05645307,62c50e9c1127f2cd403a315f,0,73,73,52,1,threeone,,,,,,,,,,,,,,,,,,,,,,,,,,,,,,,,,,,,,,,,,,,,,,,,,,,,,,,,,,,,,,,,,,,,,,,,,,,,,,,,,,,,,,,,,,,,,,,,,,,,,,,,,,,,,,,,,,,,,,,,,,,,,,,,,,,,,,,,,,,,,,,,,,,,,,,,,,,,,
,,,,,,608ddb1cc919e2385b9868f6,62c53aa445a7cef4ce9fa9ac,2022-07-06_08h33.32.495,Colour_Asymmetry_Pilot,2022.1.3,Win32,60.05645307,62c50e9c1127f2cd403a315f,0,74,74,94,1,fourtwo,,,,,,,,,,,,,,,,,,,,,,,,,,,,,,,,,,,,,,,,,,,,,,,,,,,,,,,,,,,,,,,,,,,,,,,,,,,,,,,,,,,,,,,,,,,,,,,,,,,,,,,,,,,,,,,,,,,,,,,,,,,,,,,,,,,,,,,,,,,,,,,,,,,,,,,,,,,,,
,,,,,,608ddb1cc919e2385b9868f6,62c53aa445a7cef4ce9fa9ac,2022-07-06_08h33.32.495,Colour_Asymmetry_Pilot,2022.1.3,Win32,60.05645307,62c50e9c1127f2cd403a315f,0,75,75,4,1,threeone,,,,,,,,,,,,,,,,,,,,,,,,,,,,,,,,,,,,,,,,,,,,,,,,,,,,,,,,,,,,,,,,,,,,,,,,,,,,,,,,,,,,,,,,,,,,,,,,,,,,,,,,,,,,,,,,,,,,,,,,,,,,,,,,,,,,,,,,,,,,,,,,,,,,,,,,,,,,,
,,,,,,608ddb1cc919e2385b9868f6,62c53aa445a7cef4ce9fa9ac,2022-07-06_08h33.32.495,Colour_Asymmetry_Pilot,2022.1.3,Win32,60.05645307,62c50e9c1127f2cd403a315f,0,76,76,122,1,twoone,,,,,,,,,,,,,,,,,,,,,,,,,,,,,,,,,,,,,,,,,,,,,,,,,,,,,,,,,,,,,,,,,,,,,,,,,,,,,,,,,,,,,,,,,,,,,,,,,,,,,,,,,,,,,,,,,,,,,,,,,,,,,,,,,,,,,,,,,,,,,,,,,,,,,,,,,,,,,
,,,,,,608ddb1cc919e2385b9868f6,62c53aa445a7cef4ce9fa9ac,2022-07-06_08h33.32.495,Colour_Asymmetry_Pilot,2022.1.3,Win32,60.05645307,62c50e9c1127f2cd403a315f,0,77,77,17,1,onethree,,,,,,,,,,,,,,,,,,,,,,,,,,,,,,,,,,,,,,,,,,,,,,,,,,,,,,,,,,,,,,,,,,,,,,,,,,,,,,,,,,,,,,,,,,,,,,,,,,,,,,,,,,,,,,,,,,,,,,,,,,,,,,,,,,,,,,,,,,,,,,,,,,,,,,,,,,,,,
,,,,,,608ddb1cc919e2385b9868f6,62c53aa445a7cef4ce9fa9ac,2022-07-06_08h33.32.495,Colour_Asymmetry_Pilot,2022.1.3,Win32,60.05645307,62c50e9c1127f2cd403a315f,0,78,78,141,1,threefour,,,,,,,,,,,,,,,,,,,,,,,,,,,,,,,,,,,,,,,,,,,,,,,,,,,,,,,,,,,,,,,,,,,,,,,,,,,,,,,,,,,,,,,,,,,,,,,,,,,,,,,,,,,,,,,,,,,,,,,,,,,,,,,,,,,,,,,,,,,,,,,,,,,,,,,,,,,,,
,,,,,,608ddb1cc919e2385b9868f6,62c53aa445a7cef4ce9fa9ac,2022-07-06_08h33.32.495,Colour_Asymmetry_Pilot,2022.1.3,Win32,60.05645307,62c50e9c1127f2cd403a315f,0,79,79,62,1,fourtwo,,,,,,,,,,,,,,,,,,,,,,,,,,,,,,,,,,,,,,,,,,,,,,,,,,,,,,,,,,,,,,,,,,,,,,,,,,,,,,,,,,,,,,,,,,,,,,,,,,,,,,,,,,,,,,,,,,,,,,,,,,,,,,,,,,,,,,,,,,,,,,,,,,,,,,,,,,,,,
,,,,,,608ddb1cc919e2385b9868f6,62c53aa445a7cef4ce9fa9ac,2022-07-06_08h33.32.495,Colour_Asymmetry_Pilot,2022.1.3,Win32,60.05645307,62c50e9c1127f2cd403a315f,0,80,80,100,1,threeone,,,,,,,,,,,,,,,,,,,,,,,,,,,,,,,,,,,,,,,,,,,,,,,,,,,,,,,,,,,,,,,,,,,,,,,,,,,,,,,,,,,,,,,,,,,,,,,,,,,,,,,,,,,,,,,,,,,,,,,,,,,,,,,,,,,,,,,,,,,,,,,,,,,,,,,,,,,,,
,,,,,,608ddb1cc919e2385b9868f6,62c53aa445a7cef4ce9fa9ac,2022-07-06_08h33.32.495,Colour_Asymmetry_Pilot,2022.1.3,Win32,60.05645307,62c50e9c1127f2cd403a315f,0,81,81,56,1,onetwo,,,,,,,,,,,,,,,,,,,,,,,,,,,,,,,,,,,,,,,,,,,,,,,,,,,,,,,,,,,,,,,,,,,,,,,,,,,,,,,,,,,,,,,,,,,,,,,,,,,,,,,,,,,,,,,,,,,,,,,,,,,,,,,,,,,,,,,,,,,,,,,,,,,,,,,,,,,,,
,,,,,,608ddb1cc919e2385b9868f6,62c53aa445a7cef4ce9fa9ac,2022-07-06_08h33.32.495,Colour_Asymmetry_Pilot,2022.1.3,Win32,60.05645307,62c50e9c1127f2cd403a315f,0,82,82,116,1,threeone,,,,,,,,,,,,,,,,,,,,,,,,,,,,,,,,,,,,,,,,,,,,,,,,,,,,,,,,,,,,,,,,,,,,,,,,,,,,,,,,,,,,,,,,,,,,,,,,,,,,,,,,,,,,,,,,,,,,,,,,,,,,,,,,,,,,,,,,,,,,,,,,,,,,,,,,,,,,,
,,,,,,608ddb1cc919e2385b9868f6,62c53aa445a7cef4ce9fa9ac,2022-07-06_08h33.32.495,Colour_Asymmetry_Pilot,2022.1.3,Win32,60.05645307,62c50e9c1127f2cd403a315f,0,83,83,37,1,threefour,,,,,,,,,,,,,,,,,,,,,,,,,,,,,,,,,,,,,,,,,,,,,,,,,,,,,,,,,,,,,,,,,,,,,,,,,,,,,,,,,,,,,,,,,,,,,,,,,,,,,,,,,,,,,,,,,,,,,,,,,,,,,,,,,,,,,,,,,,,,,,,,,,,,,,,,,,,,,
,,,,,,608ddb1cc919e2385b9868f6,62c53aa445a7cef4ce9fa9ac,2022-07-06_08h33.32.495,Colour_Asymmetry_Pilot,2022.1.3,Win32,60.05645307,62c50e9c1127f2cd403a315f,0,84,84,39,1,fourthree,,,,,,,,,,,,,,,,,,,,,,,,,,,,,,,,,,,,,,,,,,,,,,,,,,,,,,,,,,,,,,,,,,,,,,,,,,,,,,,,,,,,,,,,,,,,,,,,,,,,,,,,,,,,,,,,,,,,,,,,,,,,,,,,,,,,,,,,,,,,,,,,,,,,,,,,,,,,,
,,,,,,608ddb1cc919e2385b9868f6,62c53aa445a7cef4ce9fa9ac,2022-07-06_08h33.32.495,Colour_Asymmetry_Pilot,2022.1.3,Win32,60.05645307,62c50e9c1127f2cd403a315f,0,85,85,45,1,threefour,,,,,,,,,,,,,,,,,,,,,,,,,,,,,,,,,,,,,,,,,,,,,,,,,,,,,,,,,,,,,,,,,,,,,,,,,,,,,,,,,,,,,,,,,,,,,,,,,,,,,,,,,,,,,,,,,,,,,,,,,,,,,,,,,,,,,,,,,,,,,,,,,,,,,,,,,,,,,
,,,,,,608ddb1cc919e2385b9868f6,62c53aa445a7cef4ce9fa9ac,2022-07-06_08h33.32.495,Colour_Asymmetry_Pilot,2022.1.3,Win32,60.05645307,62c50e9c1127f2cd403a315f,0,86,86,22,1,fourtwo,,,,,,,,,,,,,,,,,,,,,,,,,,,,,,,,,,,,,,,,,,,,,,,,,,,,,,,,,,,,,,,,,,,,,,,,,,,,,,,,,,,,,,,,,,,,,,,,,,,,,,,,,,,,,,,,,,,,,,,,,,,,,,,,,,,,,,,,,,,,,,,,,,,,,,,,,,,,,
,,,,,,608ddb1cc919e2385b9868f6,62c53aa445a7cef4ce9fa9ac,2022-07-06_08h33.32.495,Colour_Asymmetry_Pilot,2022.1.3,Win32,60.05645307,62c50e9c1127f2cd403a315f,0,87,87,121,1,onethree,,,,,,,,,,,,,,,,,,,,,,,,,,,,,,,,,,,,,,,,,,,,,,,,,,,,,,,,,,,,,,,,,,,,,,,,,,,,,,,,,,,,,,,,,,,,,,,,,,,,,,,,,,,,,,,,,,,,,,,,,,,,,,,,,,,,,,,,,,,,,,,,,,,,,,,,,,,,,
,,,,,,608ddb1cc919e2385b9868f6,62c53aa445a7cef4ce9fa9ac,2022-07-06_08h33.32.495,Colour_Asymmetry_Pilot,2022.1.3,Win32,60.05645307,62c50e9c1127f2cd403a315f,0,88,88,139,1,twofour,,,,,,,,,,,,,,,,,,,,,,,,,,,,,,,,,,,,,,,,,,,,,,,,,,,,,,,,,,,,,,,,,,,,,,,,,,,,,,,,,,,,,,,,,,,,,,,,,,,,,,,,,,,,,,,,,,,,,,,,,,,,,,,,,,,,,,,,,,,,,,,,,,,,,,,,,,,,,
,,,,,,608ddb1cc919e2385b9868f6,62c53aa445a7cef4ce9fa9ac,2022-07-06_08h33.32.495,Colour_Asymmetry_Pilot,2022.1.3,Win32,60.05645307,62c50e9c1127f2cd403a315f,0,89,89,84,1,threeone,,,,,,,,,,,,,,,,,,,,,,,,,,,,,,,,,,,,,,,,,,,,,,,,,,,,,,,,,,,,,,,,,,,,,,,,,,,,,,,,,,,,,,,,,,,,,,,,,,,,,,,,,,,,,,,,,,,,,,,,,,,,,,,,,,,,,,,,,,,,,,,,,,,,,,,,,,,,,
,,,,,,608ddb1cc919e2385b9868f6,62c53aa445a7cef4ce9fa9ac,2022-07-06_08h33.32.495,Colour_Asymmetry_Pilot,2022.1.3,Win32,60.05645307,62c50e9c1127f2cd403a315f,0,90,90,55,1,fourthree,,,,,,,,,,,,,,,,,,,,,,,,,,,,,,,,,,,,,,,,,,,,,,,,,,,,,,,,,,,,,,,,,,,,,,,,,,,,,,,,,,,,,,,,,,,,,,,,,,,,,,,,,,,,,,,,,,,,,,,,,,,,,,,,,,,,,,,,,,,,,,,,,,,,,,,,,,,,,
,,,,,,608ddb1cc919e2385b9868f6,62c53aa445a7cef4ce9fa9ac,2022-07-06_08h33.32.495,Colour_Asymmetry_Pilot,2022.1.3,Win32,60.05645307,62c50e9c1127f2cd403a315f,0,91,91,18,1,twoone,,,,,,,,,,,,,,,,,,,,,,,,,,,,,,,,,,,,,,,,,,,,,,,,,,,,,,,,,,,,,,,,,,,,,,,,,,,,,,,,,,,,,,,,,,,,,,,,,,,,,,,,,,,,,,,,,,,,,,,,,,,,,,,,,,,,,,,,,,,,,,,,,,,,,,,,,,,,,
,,,,,,608ddb1cc919e2385b9868f6,62c53aa445a7cef4ce9fa9ac,2022-07-06_08h33.32.495,Colour_Asymmetry_Pilot,2022.1.3,Win32,60.05645307,62c50e9c1127f2cd403a315f,0,92,92,144,1,onetwo,,,,,,,,,,,,,,,,,,,,,,,,,,,,,,,,,,,,,,,,,,,,,,,,,,,,,,,,,,,,,,,,,,,,,,,,,,,,,,,,,,,,,,,,,,,,,,,,,,,,,,,,,,,,,,,,,,,,,,,,,,,,,,,,,,,,,,,,,,,,,,,,,,,,,,,,,,,,,
,,,,,,608ddb1cc919e2385b9868f6,62c53aa445a7cef4ce9fa9ac,2022-07-06_08h33.32.495,Colour_Asymmetry_Pilot,2022.1.3,Win32,60.05645307,62c50e9c1127f2cd403a315f,0,93,93,107,1,twofour,,,,,,,,,,,,,,,,,,,,,,,,,,,,,,,,,,,,,,,,,,,,,,,,,,,,,,,,,,,,,,,,,,,,,,,,,,,,,,,,,,,,,,,,,,,,,,,,,,,,,,,,,,,,,,,,,,,,,,,,,,,,,,,,,,,,,,,,,,,,,,,,,,,,,,,,,,,,,
,,,,,,608ddb1cc919e2385b9868f6,62c53aa445a7cef4ce9fa9ac,2022-07-06_08h33.32.495,Colour_Asymmetry_Pilot,2022.1.3,Win32,60.05645307,62c50e9c1127f2cd403a315f,0,94,94,109,1,threefour,,,,,,,,,,,,,,,,,,,,,,,,,,,,,,,,,,,,,,,,,,,,,,,,,,,,,,,,,,,,,,,,,,,,,,,,,,,,,,,,,,,,,,,,,,,,,,,,,,,,,,,,,,,,,,,,,,,,,,,,,,,,,,,,,,,,,,,,,,,,,,,,,,,,,,,,,,,,,
,,,,,,608ddb1cc919e2385b9868f6,62c53aa445a7cef4ce9fa9ac,2022-07-06_08h33.32.495,Colour_Asymmetry_Pilot,2022.1.3,Win32,60.05645307,62c50e9c1127f2cd403a315f,0,95,95,28,1,threeone,,,,,,,,,,,,,,,,,,,,,,,,,,,,,,,,,,,,,,,,,,,,,,,,,,,,,,,,,,,,,,,,,,,,,,,,,,,,,,,,,,,,,,,,,,,,,,,,,,,,,,,,,,,,,,,,,,,,,,,,,,,,,,,,,,,,,,,,,,,,,,,,,,,,,,,,,,,,,
,,,,,,608ddb1cc919e2385b9868f6,62c53aa445a7cef4ce9fa9ac,2022-07-06_08h33.32.495,Colour_Asymmetry_Pilot,2022.1.3,Win32,60.05645307,62c50e9c1127f2cd403a315f,0,96,96,157,1,threefour,,,,,,,,,,,,,,,,,,,,,,,,,,,,,,,,,,,,,,,,,,,,,,,,,,,,,,,,,,,,,,,,,,,,,,,,,,,,,,,,,,,,,,,,,,,,,,,,,,,,,,,,,,,,,,,,,,,,,,,,,,,,,,,,,,,,,,,,,,,,,,,,,,,,,,,,,,,,,
,,,,,,608ddb1cc919e2385b9868f6,62c53aa445a7cef4ce9fa9ac,2022-07-06_08h33.32.495,Colour_Asymmetry_Pilot,2022.1.3,Win32,60.05645307,62c50e9c1127f2cd403a315f,0,97,97,57,1,onethree,,,,,,,,,,,,,,,,,,,,,,,,,,,,,,,,,,,,,,,,,,,,,,,,,,,,,,,,,,,,,,,,,,,,,,,,,,,,,,,,,,,,,,,,,,,,,,,,,,,,,,,,,,,,,,,,,,,,,,,,,,,,,,,,,,,,,,,,,,,,,,,,,,,,,,,,,,,,,
,,,,,,608ddb1cc919e2385b9868f6,62c53aa445a7cef4ce9fa9ac,2022-07-06_08h33.32.495,Colour_Asymmetry_Pilot,2022.1.3,Win32,60.05645307,62c50e9c1127f2cd403a315f,0,98,98,76,1,threeone,,,,,,,,,,,,,,,,,,,,,,,,,,,,,,,,,,,,,,,,,,,,,,,,,,,,,,,,,,,,,,,,,,,,,,,,,,,,,,,,,,,,,,,,,,,,,,,,,,,,,,,,,,,,,,,,,,,,,,,,,,,,,,,,,,,,,,,,,,,,,,,,,,,,,,,,,,,,,
,,,,,,608ddb1cc919e2385b9868f6,62c53aa445a7cef4ce9fa9ac,2022-07-06_08h33.32.495,Colour_Asymmetry_Pilot,2022.1.3,Win32,60.05645307,62c50e9c1127f2cd403a315f,0,99,99,106,1,twoone,,,,,,,,,,,,,,,,,,,,,,,,,,,,,,,,,,,,,,,,,,,,,,,,,,,,,,,,,,,,,,,,,,,,,,,,,,,,,,,,,,,,,,,,,,,,,,,,,,,,,,,,,,,,,,,,,,,,,,,,,,,,,,,,,,,,,,,,,,,,,,,,,,,,,,,,,,,,,
,,,,,,608ddb1cc919e2385b9868f6,62c53aa445a7cef4ce9fa9ac,2022-07-06_08h33.32.495,Colour_Asymmetry_Pilot,2022.1.3,Win32,60.05645307,62c50e9c1127f2cd403a315f,0,100,100,47,1,fourthree,,,,,,,,,,,,,,,,,,,,,,,,,,,,,,,,,,,,,,,,,,,,,,,,,,,,,,,,,,,,,,,,,,,,,,,,,,,,,,,,,,,,,,,,,,,,,,,,,,,,,,,,,,,,,,,,,,,,,,,,,,,,,,,,,,,,,,,,,,,,,,,,,,,,,,,,,,,,,
,,,,,,608ddb1cc919e2385b9868f6,62c53aa445a7cef4ce9fa9ac,2022-07-06_08h33.32.495,Colour_Asymmetry_Pilot,2022.1.3,Win32,60.05645307,62c50e9c1127f2cd403a315f,0,101,101,15,1,fourthree,,,,,,,,,,,,,,,,,,,,,,,,,,,,,,,,,,,,,,,,,,,,,,,,,,,,,,,,,,,,,,,,,,,,,,,,,,,,,,,,,,,,,,,,,,,,,,,,,,,,,,,,,,,,,,,,,,,,,,,,,,,,,,,,,,,,,,,,,,,,,,,,,,,,,,,,,,,,,
,,,,,,608ddb1cc919e2385b9868f6,62c53aa445a7cef4ce9fa9ac,2022-07-06_08h33.32.495,Colour_Asymmetry_Pilot,2022.1.3,Win32,60.05645307,62c50e9c1127f2cd403a315f,0,102,102,136,1,onetwo,,,,,,,,,,,,,,,,,,,,,,,,,,,,,,,,,,,,,,,,,,,,,,,,,,,,,,,,,,,,,,,,,,,,,,,,,,,,,,,,,,,,,,,,,,,,,,,,,,,,,,,,,,,,,,,,,,,,,,,,,,,,,,,,,,,,,,,,,,,,,,,,,,,,,,,,,,,,,
,,,,,,608ddb1cc919e2385b9868f6,62c53aa445a7cef4ce9fa9ac,2022-07-06_08h33.32.495,Colour_Asymmetry_Pilot,2022.1.3,Win32,60.05645307,62c50e9c1127f2cd403a315f,0,103,103,41,1,onethree,,,,,,,,,,,,,,,,,,,,,,,,,,,,,,,,,,,,,,,,,,,,,,,,,,,,,,,,,,,,,,,,,,,,,,,,,,,,,,,,,,,,,,,,,,,,,,,,,,,,,,,,,,,,,,,,,,,,,,,,,,,,,,,,,,,,,,,,,,,,,,,,,,,,,,,,,,,,,
,,,,,,608ddb1cc919e2385b9868f6,62c53aa445a7cef4ce9fa9ac,2022-07-06_08h33.32.495,Colour_Asymmetry_Pilot,2022.1.3,Win32,60.05645307,62c50e9c1127f2cd403a315f,0,104,104,112,1,onetwo,,,,,,,,,,,,,,,,,,,,,,,,,,,,,,,,,,,,,,,,,,,,,,,,,,,,,,,,,,,,,,,,,,,,,,,,,,,,,,,,,,,,,,,,,,,,,,,,,,,,,,,,,,,,,,,,,,,,,,,,,,,,,,,,,,,,,,,,,,,,,,,,,,,,,,,,,,,,,
,,,,,,608ddb1cc919e2385b9868f6,62c53aa445a7cef4ce9fa9ac,2022-07-06_08h33.32.495,Colour_Asymmetry_Pilot,2022.1.3,Win32,60.05645307,62c50e9c1127f2cd403a315f,0,105,105,113,1,onethree,,,,,,,,,,,,,,,,,,,,,,,,,,,,,,,,,,,,,,,,,,,,,,,,,,,,,,,,,,,,,,,,,,,,,,,,,,,,,,,,,,,,,,,,,,,,,,,,,,,,,,,,,,,,,,,,,,,,,,,,,,,,,,,,,,,,,,,,,,,,,,,,,,,,,,,,,,,,,
,,,,,,608ddb1cc919e2385b9868f6,62c53aa445a7cef4ce9fa9ac,2022-07-06_08h33.32.495,Colour_Asymmetry_Pilot,2022.1.3,Win32,60.05645307,62c50e9c1127f2cd403a315f,0,106,106,108,1,threeone,,,,,,,,,,,,,,,,,,,,,,,,,,,,,,,,,,,,,,,,,,,,,,,,,,,,,,,,,,,,,,,,,,,,,,,,,,,,,,,,,,,,,,,,,,,,,,,,,,,,,,,,,,,,,,,,,,,,,,,,,,,,,,,,,,,,,,,,,,,,,,,,,,,,,,,,,,,,,
,,,,,,608ddb1cc919e2385b9868f6,62c53aa445a7cef4ce9fa9ac,2022-07-06_08h33.32.495,Colour_Asymmetry_Pilot,2022.1.3,Win32,60.05645307,62c50e9c1127f2cd403a315f,0,107,107,19,1,twofour,,,,,,,,,,,,,,,,,,,,,,,,,,,,,,,,,,,,,,,,,,,,,,,,,,,,,,,,,,,,,,,,,,,,,,,,,,,,,,,,,,,,,,,,,,,,,,,,,,,,,,,,,,,,,,,,,,,,,,,,,,,,,,,,,,,,,,,,,,,,,,,,,,,,,,,,,,,,,
,,,,,,608ddb1cc919e2385b9868f6,62c53aa445a7cef4ce9fa9ac,2022-07-06_08h33.32.495,Colour_Asymmetry_Pilot,2022.1.3,Win32,60.05645307,62c50e9c1127f2cd403a315f,0,108,108,125,1,threefour,,,,,,,,,,,,,,,,,,,,,,,,,,,,,,,,,,,,,,,,,,,,,,,,,,,,,,,,,,,,,,,,,,,,,,,,,,,,,,,,,,,,,,,,,,,,,,,,,,,,,,,,,,,,,,,,,,,,,,,,,,,,,,,,,,,,,,,,,,,,,,,,,,,,,,,,,,,,,
,,,,,,608ddb1cc919e2385b9868f6,62c53aa445a7cef4ce9fa9ac,2022-07-06_08h33.32.495,Colour_Asymmetry_Pilot,2022.1.3,Win32,60.05645307,62c50e9c1127f2cd403a315f,0,109,109,149,1,threefour,,,,,,,,,,,,,,,,,,,,,,,,,,,,,,,,,,,,,,,,,,,,,,,,,,,,,,,,,,,,,,,,,,,,,,,,,,,,,,,,,,,,,,,,,,,,,,,,,,,,,,,,,,,,,,,,,,,,,,,,,,,,,,,,,,,,,,,,,,,,,,,,,,,,,,,,,,,,,
,,,,,,608ddb1cc919e2385b9868f6,62c53aa445a7cef4ce9fa9ac,2022-07-06_08h33.32.495,Colour_Asymmetry_Pilot,2022.1.3,Win32,60.05645307,62c50e9c1127f2cd403a315f,0,110,110,80,1,onetwo,,,,,,,,,,,,,,,,,,,,,,,,,,,,,,,,,,,,,,,,,,,,,,,,,,,,,,,,,,,,,,,,,,,,,,,,,,,,,,,,,,,,,,,,,,,,,,,,,,,,,,,,,,,,,,,,,,,,,,,,,,,,,,,,,,,,,,,,,,,,,,,,,,,,,,,,,,,,,
,,,,,,608ddb1cc919e2385b9868f6,62c53aa445a7cef4ce9fa9ac,2022-07-06_08h33.32.495,Colour_Asymmetry_Pilot,2022.1.3,Win32,60.05645307,62c50e9c1127f2cd403a315f,0,111,111,152,1,onetwo,,,,,,,,,,,,,,,,,,,,,,,,,,,,,,,,,,,,,,,,,,,,,,,,,,,,,,,,,,,,,,,,,,,,,,,,,,,,,,,,,,,,,,,,,,,,,,,,,,,,,,,,,,,,,,,,,,,,,,,,,,,,,,,,,,,,,,,,,,,,,,,,,,,,,,,,,,,,,
,,,,,,608ddb1cc919e2385b9868f6,62c53aa445a7cef4ce9fa9ac,2022-07-06_08h33.32.495,Colour_Asymmetry_Pilot,2022.1.3,Win32,60.05645307,62c50e9c1127f2cd403a315f,0,112,112,34,1,twoone,,,,,,,,,,,,,,,,,,,,,,,,,,,,,,,,,,,,,,,,,,,,,,,,,,,,,,,,,,,,,,,,,,,,,,,,,,,,,,,,,,,,,,,,,,,,,,,,,,,,,,,,,,,,,,,,,,,,,,,,,,,,,,,,,,,,,,,,,,,,,,,,,,,,,,,,,,,,,
,,,,,,608ddb1cc919e2385b9868f6,62c53aa445a7cef4ce9fa9ac,2022-07-06_08h33.32.495,Colour_Asymmetry_Pilot,2022.1.3,Win32,60.05645307,62c50e9c1127f2cd403a315f,0,113,113,138,1,twoone,,,,,,,,,,,,,,,,,,,,,,,,,,,,,,,,,,,,,,,,,,,,,,,,,,,,,,,,,,,,,,,,,,,,,,,,,,,,,,,,,,,,,,,,,,,,,,,,,,,,,,,,,,,,,,,,,,,,,,,,,,,,,,,,,,,,,,,,,,,,,,,,,,,,,,,,,,,,,
,,,,,,608ddb1cc919e2385b9868f6,62c53aa445a7cef4ce9fa9ac,2022-07-06_08h33.32.495,Colour_Asymmetry_Pilot,2022.1.3,Win32,60.05645307,62c50e9c1127f2cd403a315f,0,114,114,24,1,onetwo,,,,,,,,,,,,,,,,,,,,,,,,,,,,,,,,,,,,,,,,,,,,,,,,,,,,,,,,,,,,,,,,,,,,,,,,,,,,,,,,,,,,,,,,,,,,,,,,,,,,,,,,,,,,,,,,,,,,,,,,,,,,,,,,,,,,,,,,,,,,,,,,,,,,,,,,,,,,,
,,,,,,608ddb1cc919e2385b9868f6,62c53aa445a7cef4ce9fa9ac,2022-07-06_08h33.32.495,Colour_Asymmetry_Pilot,2022.1.3,Win32,60.05645307,62c50e9c1127f2cd403a315f,0,115,115,69,1,threefour,,,,,,,,,,,,,,,,,,,,,,,,,,,,,,,,,,,,,,,,,,,,,,,,,,,,,,,,,,,,,,,,,,,,,,,,,,,,,,,,,,,,,,,,,,,,,,,,,,,,,,,,,,,,,,,,,,,,,,,,,,,,,,,,,,,,,,,,,,,,,,,,,,,,,,,,,,,,,
,,,,,,608ddb1cc919e2385b9868f6,62c53aa445a7cef4ce9fa9ac,2022-07-06_08h33.32.495,Colour_Asymmetry_Pilot,2022.1.3,Win32,60.05645307,62c50e9c1127f2cd403a315f,0,116,116,58,1,twoone,,,,,,,,,,,,,,,,,,,,,,,,,,,,,,,,,,,,,,,,,,,,,,,,,,,,,,,,,,,,,,,,,,,,,,,,,,,,,,,,,,,,,,,,,,,,,,,,,,,,,,,,,,,,,,,,,,,,,,,,,,,,,,,,,,,,,,,,,,,,,,,,,,,,,,,,,,,,,
,,,,,,608ddb1cc919e2385b9868f6,62c53aa445a7cef4ce9fa9ac,2022-07-06_08h33.32.495,Colour_Asymmetry_Pilot,2022.1.3,Win32,60.05645307,62c50e9c1127f2cd403a315f,0,117,117,51,1,twofour,,,,,,,,,,,,,,,,,,,,,,,,,,,,,,,,,,,,,,,,,,,,,,,,,,,,,,,,,,,,,,,,,,,,,,,,,,,,,,,,,,,,,,,,,,,,,,,,,,,,,,,,,,,,,,,,,,,,,,,,,,,,,,,,,,,,,,,,,,,,,,,,,,,,,,,,,,,,,
,,,,,,608ddb1cc919e2385b9868f6,62c53aa445a7cef4ce9fa9ac,2022-07-06_08h33.32.495,Colour_Asymmetry_Pilot,2022.1.3,Win32,60.05645307,62c50e9c1127f2cd403a315f,0,118,118,77,1,threefour,,,,,,,,,,,,,,,,,,,,,,,,,,,,,,,,,,,,,,,,,,,,,,,,,,,,,,,,,,,,,,,,,,,,,,,,,,,,,,,,,,,,,,,,,,,,,,,,,,,,,,,,,,,,,,,,,,,,,,,,,,,,,,,,,,,,,,,,,,,,,,,,,,,,,,,,,,,,,
,,,,,,608ddb1cc919e2385b9868f6,62c53aa445a7cef4ce9fa9ac,2022-07-06_08h33.32.495,Colour_Asymmetry_Pilot,2022.1.3,Win32,60.05645307,62c50e9c1127f2cd403a315f,0,119,119,60,1,threeone,,,,,,,,,,,,,,,,,,,,,,,,,,,,,,,,,,,,,,,,,,,,,,,,,,,,,,,,,,,,,,,,,,,,,,,,,,,,,,,,,,,,,,,,,,,,,,,,,,,,,,,,,,,,,,,,,,,,,,,,,,,,,,,,,,,,,,,,,,,,,,,,,,,,,,,,,,,,,
,,,,,,608ddb1cc919e2385b9868f6,62c53aa445a7cef4ce9fa9ac,2022-07-06_08h33.32.495,Colour_Asymmetry_Pilot,2022.1.3,Win32,60.05645307,62c50e9c1127f2cd403a315f,0,120,120,117,1,threefour,,,,,,,,,,,,,,,,,,,,,,,,,,,,,,,,,,,,,,,,,,,,,,,,,,,,,,,,,,,,,,,,,,,,,,,,,,,,,,,,,,,,,,,,,,,,,,,,,,,,,,,,,,,,,,,,,,,,,,,,,,,,,,,,,,,,,,,,,,,,,,,,,,,,,,,,,,,,,
,,,,,,608ddb1cc919e2385b9868f6,62c53aa445a7cef4ce9fa9ac,2022-07-06_08h33.32.495,Colour_Asymmetry_Pilot,2022.1.3,Win32,60.05645307,62c50e9c1127f2cd403a315f,0,121,121,114,1,twoone,,,,,,,,,,,,,,,,,,,,,,,,,,,,,,,,,,,,,,,,,,,,,,,,,,,,,,,,,,,,,,,,,,,,,,,,,,,,,,,,,,,,,,,,,,,,,,,,,,,,,,,,,,,,,,,,,,,,,,,,,,,,,,,,,,,,,,,,,,,,,,,,,,,,,,,,,,,,,
,,,,,,608ddb1cc919e2385b9868f6,62c53aa445a7cef4ce9fa9ac,2022-07-06_08h33.32.495,Colour_Asymmetry_Pilot,2022.1.3,Win32,60.05645307,62c50e9c1127f2cd403a315f,0,122,122,27,1,twofour,,,,,,,,,,,,,,,,,,,,,,,,,,,,,,,,,,,,,,,,,,,,,,,,,,,,,,,,,,,,,,,,,,,,,,,,,,,,,,,,,,,,,,,,,,,,,,,,,,,,,,,,,,,,,,,,,,,,,,,,,,,,,,,,,,,,,,,,,,,,,,,,,,,,,,,,,,,,,
,,,,,,608ddb1cc919e2385b9868f6,62c53aa445a7cef4ce9fa9ac,2022-07-06_08h33.32.495,Colour_Asymmetry_Pilot,2022.1.3,Win32,60.05645307,62c50e9c1127f2cd403a315f,0,123,123,120,1,onetwo,,,,,,,,,,,,,,,,,,,,,,,,,,,,,,,,,,,,,,,,,,,,,,,,,,,,,,,,,,,,,,,,,,,,,,,,,,,,,,,,,,,,,,,,,,,,,,,,,,,,,,,,,,,,,,,,,,,,,,,,,,,,,,,,,,,,,,,,,,,,,,,,,,,,,,,,,,,,,
,,,,,,608ddb1cc919e2385b9868f6,62c53aa445a7cef4ce9fa9ac,2022-07-06_08h33.32.495,Colour_Asymmetry_Pilot,2022.1.3,Win32,60.05645307,62c50e9c1127f2cd403a315f,0,124,124,105,1,onethree,,,,,,,,,,,,,,,,,,,,,,,,,,,,,,,,,,,,,,,,,,,,,,,,,,,,,,,,,,,,,,,,,,,,,,,,,,,,,,,,,,,,,,,,,,,,,,,,,,,,,,,,,,,,,,,,,,,,,,,,,,,,,,,,,,,,,,,,,,,,,,,,,,,,,,,,,,,,,
,,,,,,608ddb1cc919e2385b9868f6,62c53aa445a7cef4ce9fa9ac,2022-07-06_08h33.32.495,Colour_Asymmetry_Pilot,2022.1.3,Win32,60.05645307,62c50e9c1127f2cd403a315f,0,125,125,99,1,twofour,,,,,,,,,,,,,,,,,,,,,,,,,,,,,,,,,,,,,,,,,,,,,,,,,,,,,,,,,,,,,,,,,,,,,,,,,,,,,,,,,,,,,,,,,,,,,,,,,,,,,,,,,,,,,,,,,,,,,,,,,,,,,,,,,,,,,,,,,,,,,,,,,,,,,,,,,,,,,
,,,,,,608ddb1cc919e2385b9868f6,62c53aa445a7cef4ce9fa9ac,2022-07-06_08h33.32.495,Colour_Asymmetry_Pilot,2022.1.3,Win32,60.05645307,62c50e9c1127f2cd403a315f,0,126,126,118,1,fourtwo,,,,,,,,,,,,,,,,,,,,,,,,,,,,,,,,,,,,,,,,,,,,,,,,,,,,,,,,,,,,,,,,,,,,,,,,,,,,,,,,,,,,,,,,,,,,,,,,,,,,,,,,,,,,,,,,,,,,,,,,,,,,,,,,,,,,,,,,,,,,,,,,,,,,,,,,,,,,,
,,,,,,608ddb1cc919e2385b9868f6,62c53aa445a7cef4ce9fa9ac,2022-07-06_08h33.32.495,Colour_Asymmetry_Pilot,2022.1.3,Win32,60.05645307,62c50e9c1127f2cd403a315f,0,127,127,151,1,fourthree,,,,,,,,,,,,,,,,,,,,,,,,,,,,,,,,,,,,,,,,,,,,,,,,,,,,,,,,,,,,,,,,,,,,,,,,,,,,,,,,,,,,,,,,,,,,,,,,,,,,,,,,,,,,,,,,,,,,,,,,,,,,,,,,,,,,,,,,,,,,,,,,,,,,,,,,,,,,,
,,,,,,608ddb1cc919e2385b9868f6,62c53aa445a7cef4ce9fa9ac,2022-07-06_08h33.32.495,Colour_Asymmetry_Pilot,2022.1.3,Win32,60.05645307,62c50e9c1127f2cd403a315f,0,128,128,46,1,fourtwo,,,,,,,,,,,,,,,,,,,,,,,,,,,,,,,,,,,,,,,,,,,,,,,,,,,,,,,,,,,,,,,,,,,,,,,,,,,,,,,,,,,,,,,,,,,,,,,,,,,,,,,,,,,,,,,,,,,,,,,,,,,,,,,,,,,,,,,,,,,,,,,,,,,,,,,,,,,,,
,,,,,,608ddb1cc919e2385b9868f6,62c53aa445a7cef4ce9fa9ac,2022-07-06_08h33.32.495,Colour_Asymmetry_Pilot,2022.1.3,Win32,60.05645307,62c50e9c1127f2cd403a315f,0,129,129,89,1,onethree,,,,,,,,,,,,,,,,,,,,,,,,,,,,,,,,,,,,,,,,,,,,,,,,,,,,,,,,,,,,,,,,,,,,,,,,,,,,,,,,,,,,,,,,,,,,,,,,,,,,,,,,,,,,,,,,,,,,,,,,,,,,,,,,,,,,,,,,,,,,,,,,,,,,,,,,,,,,,
,,,,,,608ddb1cc919e2385b9868f6,62c53aa445a7cef4ce9fa9ac,2022-07-06_08h33.32.495,Colour_Asymmetry_Pilot,2022.1.3,Win32,60.05645307,62c50e9c1127f2cd403a315f,0,130,130,150,1,fourtwo,,,,,,,,,,,,,,,,,,,,,,,,,,,,,,,,,,,,,,,,,,,,,,,,,,,,,,,,,,,,,,,,,,,,,,,,,,,,,,,,,,,,,,,,,,,,,,,,,,,,,,,,,,,,,,,,,,,,,,,,,,,,,,,,,,,,,,,,,,,,,,,,,,,,,,,,,,,,,
,,,,,,608ddb1cc919e2385b9868f6,62c53aa445a7cef4ce9fa9ac,2022-07-06_08h33.32.495,Colour_Asymmetry_Pilot,2022.1.3,Win32,60.05645307,62c50e9c1127f2cd403a315f,0,131,131,102,1,fourtwo,,,,,,,,,,,,,,,,,,,,,,,,,,,,,,,,,,,,,,,,,,,,,,,,,,,,,,,,,,,,,,,,,,,,,,,,,,,,,,,,,,,,,,,,,,,,,,,,,,,,,,,,,,,,,,,,,,,,,,,,,,,,,,,,,,,,,,,,,,,,,,,,,,,,,,,,,,,,,
,,,,,,608ddb1cc919e2385b9868f6,62c53aa445a7cef4ce9fa9ac,2022-07-06_08h33.32.495,Colour_Asymmetry_Pilot,2022.1.3,Win32,60.05645307,62c50e9c1127f2cd403a315f,0,132,132,14,1,fourtwo,,,,,,,,,,,,,,,,,,,,,,,,,,,,,,,,,,,,,,,,,,,,,,,,,,,,,,,,,,,,,,,,,,,,,,,,,,,,,,,,,,,,,,,,,,,,,,,,,,,,,,,,,,,,,,,,,,,,,,,,,,,,,,,,,,,,,,,,,,,,,,,,,,,,,,,,,,,,,
,,,,,,608ddb1cc919e2385b9868f6,62c53aa445a7cef4ce9fa9ac,2022-07-06_08h33.32.495,Colour_Asymmetry_Pilot,2022.1.3,Win32,60.05645307,62c50e9c1127f2cd403a315f,0,133,133,127,1,fourthree,,,,,,,,,,,,,,,,,,,,,,,,,,,,,,,,,,,,,,,,,,,,,,,,,,,,,,,,,,,,,,,,,,,,,,,,,,,,,,,,,,,,,,,,,,,,,,,,,,,,,,,,,,,,,,,,,,,,,,,,,,,,,,,,,,,,,,,,,,,,,,,,,,,,,,,,,,,,,
,,,,,,608ddb1cc919e2385b9868f6,62c53aa445a7cef4ce9fa9ac,2022-07-06_08h33.32.495,Colour_Asymmetry_Pilot,2022.1.3,Win32,60.05645307,62c50e9c1127f2cd403a315f,0,134,134,154,1,twoone,,,,,,,,,,,,,,,,,,,,,,,,,,,,,,,,,,,,,,,,,,,,,,,,,,,,,,,,,,,,,,,,,,,,,,,,,,,,,,,,,,,,,,,,,,,,,,,,,,,,,,,,,,,,,,,,,,,,,,,,,,,,,,,,,,,,,,,,,,,,,,,,,,,,,,,,,,,,,
,,,,,,608ddb1cc919e2385b9868f6,62c53aa445a7cef4ce9fa9ac,2022-07-06_08h33.32.495,Colour_Asymmetry_Pilot,2022.1.3,Win32,60.05645307,62c50e9c1127f2cd403a315f,0,135,135,158,1,fourtwo,,,,,,,,,,,,,,,,,,,,,,,,,,,,,,,,,,,,,,,,,,,,,,,,,,,,,,,,,,,,,,,,,,,,,,,,,,,,,,,,,,,,,,,,,,,,,,,,,,,,,,,,,,,,,,,,,,,,,,,,,,,,,,,,,,,,,,,,,,,,,,,,,,,,,,,,,,,,,
,,,,,,608ddb1cc919e2385b9868f6,62c53aa445a7cef4ce9fa9ac,2022-07-06_08h33.32.495,Colour_Asymmetry_Pilot,2022.1.3,Win32,60.05645307,62c50e9c1127f2cd403a315f,0,136,136,160,1,onetwo,,,,,,,,,,,,,,,,,,,,,,,,,,,,,,,,,,,,,,,,,,,,,,,,,,,,,,,,,,,,,,,,,,,,,,,,,,,,,,,,,,,,,,,,,,,,,,,,,,,,,,,,,,,,,,,,,,,,,,,,,,,,,,,,,,,,,,,,,,,,,,,,,,,,,,,,,,,,,
,,,,,,608ddb1cc919e2385b9868f6,62c53aa445a7cef4ce9fa9ac,2022-07-06_08h33.32.495,Colour_Asymmetry_Pilot,2022.1.3,Win32,60.05645307,62c50e9c1127f2cd403a315f,0,137,137,145,1,onethree,,,,,,,,,,,,,,,,,,,,,,,,,,,,,,,,,,,,,,,,,,,,,,,,,,,,,,,,,,,,,,,,,,,,,,,,,,,,,,,,,,,,,,,,,,,,,,,,,,,,,,,,,,,,,,,,,,,,,,,,,,,,,,,,,,,,,,,,,,,,,,,,,,,,,,,,,,,,,
,,,,,,608ddb1cc919e2385b9868f6,62c53aa445a7cef4ce9fa9ac,2022-07-06_08h33.32.495,Colour_Asymmetry_Pilot,2022.1.3,Win32,60.05645307,62c50e9c1127f2cd403a315f,0,138,138,26,1,twoone,,,,,,,,,,,,,,,,,,,,,,,,,,,,,,,,,,,,,,,,,,,,,,,,,,,,,,,,,,,,,,,,,,,,,,,,,,,,,,,,,,,,,,,,,,,,,,,,,,,,,,,,,,,,,,,,,,,,,,,,,,,,,,,,,,,,,,,,,,,,,,,,,,,,,,,,,,,,,
,,,,,,608ddb1cc919e2385b9868f6,62c53aa445a7cef4ce9fa9ac,2022-07-06_08h33.32.495,Colour_Asymmetry_Pilot,2022.1.3,Win32,60.05645307,62c50e9c1127f2cd403a315f,0,139,139,68,1,threeone,,,,,,,,,,,,,,,,,,,,,,,,,,,,,,,,,,,,,,,,,,,,,,,,,,,,,,,,,,,,,,,,,,,,,,,,,,,,,,,,,,,,,,,,,,,,,,,,,,,,,,,,,,,,,,,,,,,,,,,,,,,,,,,,,,,,,,,,,,,,,,,,,,,,,,,,,,,,,
,,,,,,608ddb1cc919e2385b9868f6,62c53aa445a7cef4ce9fa9ac,2022-07-06_08h33.32.495,Colour_Asymmetry_Pilot,2022.1.3,Win32,60.05645307,62c50e9c1127f2cd403a315f,0,140,140,83,1,twofour,,,,,,,,,,,,,,,,,,,,,,,,,,,,,,,,,,,,,,,,,,,,,,,,,,,,,,,,,,,,,,,,,,,,,,,,,,,,,,,,,,,,,,,,,,,,,,,,,,,,,,,,,,,,,,,,,,,,,,,,,,,,,,,,,,,,,,,,,,,,,,,,,,,,,,,,,,,,,
,,,,,,608ddb1cc919e2385b9868f6,62c53aa445a7cef4ce9fa9ac,2022-07-06_08h33.32.495,Colour_Asymmetry_Pilot,2022.1.3,Win32,60.05645307,62c50e9c1127f2cd403a315f,0,141,141,74,1,twoone,,,,,,,,,,,,,,,,,,,,,,,,,,,,,,,,,,,,,,,,,,,,,,,,,,,,,,,,,,,,,,,,,,,,,,,,,,,,,,,,,,,,,,,,,,,,,,,,,,,,,,,,,,,,,,,,,,,,,,,,,,,,,,,,,,,,,,,,,,,,,,,,,,,,,,,,,,,,,
,,,,,,608ddb1cc919e2385b9868f6,62c53aa445a7cef4ce9fa9ac,2022-07-06_08h33.32.495,Colour_Asymmetry_Pilot,2022.1.3,Win32,60.05645307,62c50e9c1127f2cd403a315f,0,142,142,156,1,threeone,,,,,,,,,,,,,,,,,,,,,,,,,,,,,,,,,,,,,,,,,,,,,,,,,,,,,,,,,,,,,,,,,,,,,,,,,,,,,,,,,,,,,,,,,,,,,,,,,,,,,,,,,,,,,,,,,,,,,,,,,,,,,,,,,,,,,,,,,,,,,,,,,,,,,,,,,,,,,
,,,,,,608ddb1cc919e2385b9868f6,62c53aa445a7cef4ce9fa9ac,2022-07-06_08h33.32.495,Colour_Asymmetry_Pilot,2022.1.3,Win32,60.05645307,62c50e9c1127f2cd403a315f,0,143,143,97,1,onethree,,,,,,,,,,,,,,,,,,,,,,,,,,,,,,,,,,,,,,,,,,,,,,,,,,,,,,,,,,,,,,,,,,,,,,,,,,,,,,,,,,,,,,,,,,,,,,,,,,,,,,,,,,,,,,,,,,,,,,,,,,,,,,,,,,,,,,,,,,,,,,,,,,,,,,,,,,,,,
,,,,,,608ddb1cc919e2385b9868f6,62c53aa445a7cef4ce9fa9ac,2022-07-06_08h33.32.495,Colour_Asymmetry_Pilot,2022.1.3,Win32,60.05645307,62c50e9c1127f2cd403a315f,0,144,144,98,1,twoone,,,,,,,,,,,,,,,,,,,,,,,,,,,,,,,,,,,,,,,,,,,,,,,,,,,,,,,,,,,,,,,,,,,,,,,,,,,,,,,,,,,,,,,,,,,,,,,,,,,,,,,,,,,,,,,,,,,,,,,,,,,,,,,,,,,,,,,,,,,,,,,,,,,,,,,,,,,,,
,,,,,,608ddb1cc919e2385b9868f6,62c53aa445a7cef4ce9fa9ac,2022-07-06_08h33.32.495,Colour_Asymmetry_Pilot,2022.1.3,Win32,60.05645307,62c50e9c1127f2cd403a315f,0,145,145,111,1,fourthree,,,,,,,,,,,,,,,,,,,,,,,,,,,,,,,,,,,,,,,,,,,,,,,,,,,,,,,,,,,,,,,,,,,,,,,,,,,,,,,,,,,,,,,,,,,,,,,,,,,,,,,,,,,,,,,,,,,,,,,,,,,,,,,,,,,,,,,,,,,,,,,,,,,,,,,,,,,,,
,,,,,,608ddb1cc919e2385b9868f6,62c53aa445a7cef4ce9fa9ac,2022-07-06_08h33.32.495,Colour_Asymmetry_Pilot,2022.1.3,Win32,60.05645307,62c50e9c1127f2cd403a315f,0,146,146,29,1,threefour,,,,,,,,,,,,,,,,,,,,,,,,,,,,,,,,,,,,,,,,,,,,,,,,,,,,,,,,,,,,,,,,,,,,,,,,,,,,,,,,,,,,,,,,,,,,,,,,,,,,,,,,,,,,,,,,,,,,,,,,,,,,,,,,,,,,,,,,,,,,,,,,,,,,,,,,,,,,,
,,,,,,608ddb1cc919e2385b9868f6,62c53aa445a7cef4ce9fa9ac,2022-07-06_08h33.32.495,Colour_Asymmetry_Pilot,2022.1.3,Win32,60.05645307,62c50e9c1127f2cd403a315f,0,147,147,155,1,twofour,,,,,,,,,,,,,,,,,,,,,,,,,,,,,,,,,,,,,,,,,,,,,,,,,,,,,,,,,,,,,,,,,,,,,,,,,,,,,,,,,,,,,,,,,,,,,,,,,,,,,,,,,,,,,,,,,,,,,,,,,,,,,,,,,,,,,,,,,,,,,,,,,,,,,,,,,,,,,
,,,,,,608ddb1cc919e2385b9868f6,62c53aa445a7cef4ce9fa9ac,2022-07-06_08h33.32.495,Colour_Asymmetry_Pilot,2022.1.3,Win32,60.05645307,62c50e9c1127f2cd403a315f,0,148,148,1,1,onethree,,,,,,,,,,,,,,,,,,,,,,,,,,,,,,,,,,,,,,,,,,,,,,,,,,,,,,,,,,,,,,,,,,,,,,,,,,,,,,,,,,,,,,,,,,,,,,,,,,,,,,,,,,,,,,,,,,,,,,,,,,,,,,,,,,,,,,,,,,,,,,,,,,,,,,,,,,,,,
,,,,,,608ddb1cc919e2385b9868f6,62c53aa445a7cef4ce9fa9ac,2022-07-06_08h33.32.495,Colour_Asymmetry_Pilot,2022.1.3,Win32,60.05645307,62c50e9c1127f2cd403a315f,0,149,149,126,1,fourtwo,,,,,,,,,,,,,,,,,,,,,,,,,,,,,,,,,,,,,,,,,,,,,,,,,,,,,,,,,,,,,,,,,,,,,,,,,,,,,,,,,,,,,,,,,,,,,,,,,,,,,,,,,,,,,,,,,,,,,,,,,,,,,,,,,,,,,,,,,,,,,,,,,,,,,,,,,,,,,
,,,,,,608ddb1cc919e2385b9868f6,62c53aa445a7cef4ce9fa9ac,2022-07-06_08h33.32.495,Colour_Asymmetry_Pilot,2022.1.3,Win32,60.05645307,62c50e9c1127f2cd403a315f,0,150,150,71,1,fourthree,,,,,,,,,,,,,,,,,,,,,,,,,,,,,,,,,,,,,,,,,,,,,,,,,,,,,,,,,,,,,,,,,,,,,,,,,,,,,,,,,,,,,,,,,,,,,,,,,,,,,,,,,,,,,,,,,,,,,,,,,,,,,,,,,,,,,,,,,,,,,,,,,,,,,,,,,,,,,
,,,,,,608ddb1cc919e2385b9868f6,62c53aa445a7cef4ce9fa9ac,2022-07-06_08h33.32.495,Colour_Asymmetry_Pilot,2022.1.3,Win32,60.05645307,62c50e9c1127f2cd403a315f,0,151,151,49,1,onethree,,,,,,,,,,,,,,,,,,,,,,,,,,,,,,,,,,,,,,,,,,,,,,,,,,,,,,,,,,,,,,,,,,,,,,,,,,,,,,,,,,,,,,,,,,,,,,,,,,,,,,,,,,,,,,,,,,,,,,,,,,,,,,,,,,,,,,,,,,,,,,,,,,,,,,,,,,,,,
,,,,,,608ddb1cc919e2385b9868f6,62c53aa445a7cef4ce9fa9ac,2022-07-06_08h33.32.495,Colour_Asymmetry_Pilot,2022.1.3,Win32,60.05645307,62c50e9c1127f2cd403a315f,0,152,152,88,1,onetwo,,,,,,,,,,,,,,,,,,,,,,,,,,,,,,,,,,,,,,,,,,,,,,,,,,,,,,,,,,,,,,,,,,,,,,,,,,,,,,,,,,,,,,,,,,,,,,,,,,,,,,,,,,,,,,,,,,,,,,,,,,,,,,,,,,,,,,,,,,,,,,,,,,,,,,,,,,,,,
,,,,,,608ddb1cc919e2385b9868f6,62c53aa445a7cef4ce9fa9ac,2022-07-06_08h33.32.495,Colour_Asymmetry_Pilot,2022.1.3,Win32,60.05645307,62c50e9c1127f2cd403a315f,0,153,153,20,1,threeone,,,,,,,,,,,,,,,,,,,,,,,,,,,,,,,,,,,,,,,,,,,,,,,,,,,,,,,,,,,,,,,,,,,,,,,,,,,,,,,,,,,,,,,,,,,,,,,,,,,,,,,,,,,,,,,,,,,,,,,,,,,,,,,,,,,,,,,,,,,,,,,,,,,,,,,,,,,,,
,,,,,,608ddb1cc919e2385b9868f6,62c53aa445a7cef4ce9fa9ac,2022-07-06_08h33.32.495,Colour_Asymmetry_Pilot,2022.1.3,Win32,60.05645307,62c50e9c1127f2cd403a315f,0,154,154,12,1,threeone,,,,,,,,,,,,,,,,,,,,,,,,,,,,,,,,,,,,,,,,,,,,,,,,,,,,,,,,,,,,,,,,,,,,,,,,,,,,,,,,,,,,,,,,,,,,,,,,,,,,,,,,,,,,,,,,,,,,,,,,,,,,,,,,,,,,,,,,,,,,,,,,,,,,,,,,,,,,,
,,,,,,608ddb1cc919e2385b9868f6,62c53aa445a7cef4ce9fa9ac,2022-07-06_08h33.32.495,Colour_Asymmetry_Pilot,2022.1.3,Win32,60.05645307,62c50e9c1127f2cd403a315f,0,155,155,79,1,fourthree,,,,,,,,,,,,,,,,,,,,,,,,,,,,,,,,,,,,,,,,,,,,,,,,,,,,,,,,,,,,,,,,,,,,,,,,,,,,,,,,,,,,,,,,,,,,,,,,,,,,,,,,,,,,,,,,,,,,,,,,,,,,,,,,,,,,,,,,,,,,,,,,,,,,,,,,,,,,,
,,,,,,608ddb1cc919e2385b9868f6,62c53aa445a7cef4ce9fa9ac,2022-07-06_08h33.32.495,Colour_Asymmetry_Pilot,2022.1.3,Win32,60.05645307,62c50e9c1127f2cd403a315f,0,156,156,115,1,twofour,,,,,,,,,,,,,,,,,,,,,,,,,,,,,,,,,,,,,,,,,,,,,,,,,,,,,,,,,,,,,,,,,,,,,,,,,,,,,,,,,,,,,,,,,,,,,,,,,,,,,,,,,,,,,,,,,,,,,,,,,,,,,,,,,,,,,,,,,,,,,,,,,,,,,,,,,,,,,
,,,,,,608ddb1cc919e2385b9868f6,62c53aa445a7cef4ce9fa9ac,2022-07-06_08h33.32.495,Colour_Asymmetry_Pilot,2022.1.3,Win32,60.05645307,62c50e9c1127f2cd403a315f,0,157,157,143,1,fourthree,,,,,,,,,,,,,,,,,,,,,,,,,,,,,,,,,,,,,,,,,,,,,,,,,,,,,,,,,,,,,,,,,,,,,,,,,,,,,,,,,,,,,,,,,,,,,,,,,,,,,,,,,,,,,,,,,,,,,,,,,,,,,,,,,,,,,,,,,,,,,,,,,,,,,,,,,,,,,
,,,,,,608ddb1cc919e2385b9868f6,62c53aa445a7cef4ce9fa9ac,2022-07-06_08h33.32.495,Colour_Asymmetry_Pilot,2022.1.3,Win32,60.05645307,62c50e9c1127f2cd403a315f,0,158,158,64,1,onetwo,,,,,,,,,,,,,,,,,,,,,,,,,,,,,,,,,,,,,,,,,,,,,,,,,,,,,,,,,,,,,,,,,,,,,,,,,,,,,,,,,,,,,,,,,,,,,,,,,,,,,,,,,,,,,,,,,,,,,,,,,,,,,,,,,,,,,,,,,,,,,,,,,,,,,,,,,,,,,
,,,,,,608ddb1cc919e2385b9868f6,62c53aa445a7cef4ce9fa9ac,2022-07-06_08h33.32.495,Colour_Asymmetry_Pilot,2022.1.3,Win32,60.05645307,62c50e9c1127f2cd403a315f,0,159,159,91,1,twofour,,,,,,,,,,,,,,,,,,,,,,,,,,,,,,,,,,,,,,,,,,,,,,,,,,,,,,,,,,,,,,,,,,,,,,,,,,,,,,,,,,,,,,,,,,,,,,,,,,,,,,,,,,,,,,,,,,,,,,,,,,,,,,,,,,,,,,,,,,,,,,,,,,,,,,,,,,,,,
,,,,,,608ddb1cc919e2385b9868f6,62c53aa445a7cef4ce9fa9ac,2022-07-06_08h33.32.495,Colour_Asymmetry_Pilot,2022.1.3,Win32,60.05645307,62c50e9c1127f2cd403a315f,0,160,160,31,1,fourthree,,,,,,,,,,,,,,,,,,,,,,,,,,,,,,,,,,,,,,,,,,,,,,,,,,,,,,,,,,,,,,,,,,,,,,,,,,,,,,,,,,,,,,,,,,,,,,,,,,,,,,,,,,,,,,,,,,,,,,,,,,,,,,,,,,,,,,,,,,,,,,,,,,,,,,,,,,,,,
,,,,,,608ddb1cc919e2385b9868f6,62c53aa445a7cef4ce9fa9ac,2022-07-06_08h33.32.495,Colour_Asymmetry_Pilot,2022.1.3,Win32,60.05645307,62c50e9c1127f2cd403a315f,0,161,161,16,1,onetwo,,,,,,,,,,,,,,,,,,,,,,,,,,,,,,,,,,,,,,,,,,,,,,,,,,,,,,,,,,,,,,,,,,,,,,,,,,,,,,,,,,,,,,,,,,,,,,,,,,,,,,,,,,,,,,,,,,,,,,,,,,,,,,,,,,,,,,,,,,,,,,,,,,,,,,,,,,,,,
,,,,,,608ddb1cc919e2385b9868f6,62c53aa445a7cef4ce9fa9ac,2022-07-06_08h33.32.495,Colour_Asymmetry_Pilot,2022.1.3,Win32,60.05645307,62c50e9c1127f2cd403a315f,,,,,,,space,3.9782,space,12.8579,space,18.3585,space,62.5973,space,2.401,space,5.9217,"[-0.2942,-0.24719999999999998,-0.357]",onetwo,"[0.22340000000000004,-0.9296,-0.7884]",4,2.5156,58.40002441,95.19998169,1,0,0,response1disk_5,-0.799987793,-1.600006104,1,0,0,rectangle_8,48,110.3999939,1,0,0,response1disk_7,7,4,-9.599975586,-4.800018311,1,0,0,rectangle_4,0,0,0,0,1,,,,,,,,,,,,,,,,,,,,,,,,,,,,,,,,,,,,,,,,,,,,,,,,,,,,,,,,,,,,,,,,,,,,,,,,,,,,,,,,,,,,,,,,,,,,,,,,,,,,,,,,,,,,,
,,,,,,608ddb1cc919e2385b9868f6,62c53aa445a7cef4ce9fa9ac,2022-07-06_08h33.32.495,Colour_Asymmetry_Pilot,2022.1.3,Win32,60.05645307,62c50e9c1127f2cd403a315f,,,,,,,,,,,,,,,,,,,"[0.7018,0.7176,0.6155999999999999]",onetwo,"[-0.9766,-0.6472,0.07440000000000002]",-4,1.9962,-60.79998779,106.3999939,1,0,0,response7disk_5,-9.599975586,0.799987793,1,0,0,rectangle_8,-9.599975586,0.799987793,1,0,0,,,4,-9.599975586,0.799987793,1,0,0,,1,0,1,0,1,,,,,,,,,,,,,,,,,,,,,,,,,,,,,,,,,,,,,,,,,,,,,,,,,,,,,,,,,,,,,,,,,,,,,,,,,,,,,,,,,,,,,,,,,,,,,,,,,,,,,,,,,,,,,
,,,,,,608ddb1cc919e2385b9868f6,62c53aa445a7cef4ce9fa9ac,2022-07-06_08h33.32.495,Colour_Asymmetry_Pilot,2022.1.3,Win32,60.05645307,62c50e9c1127f2cd403a315f,,,,,,,,,,,,,,,,,,,"[0.7018,0.7176,0.6155999999999999]",threeone,"[-0.48240000000000005,0.3175999999999999,0.2156]",-3,4.0483,-76,36.79998779,1,0,0,response7disk_5,7.200012207,0,1,0,0,rectangle_8,7.200012207,0,1,0,0,,,4,7.200012207,0,1,0,0,,2,0,2,0,1,,,,,,,,,,,,,,,,,,,,,,,,,,,,,,,,,,,,,,,,,,,,,,,,,,,,,,,,,,,,,,,,,,,,,,,,,,,,,,,,,,,,,,,,,,,,,,,,,,,,,,,,,,,,,
,,,,,,608ddb1cc919e2385b9868f6,62c53aa445a7cef4ce9fa9ac,2022-07-06_08h33.32.495,Colour_Asymmetry_Pilot,2022.1.3,Win32,60.05645307,62c50e9c1127f2cd403a315f,,,,,,,,,,,,,,,,,,,"[0.9686000000000001,0.5763999999999998,0.11359999999999992]",onethree,"[0.7018,0.7802,-0.16079999999999994]",3,4.0152,89.60003662,47.19998169,1,0,0,response1disk_5,-3.200012207,-2.399993896,1,0,0,rectangle_8,-3.200012207,-2.399993896,1,0,0,,,4,-3.200012207,-2.399993896,1,0,0,,3,0,3,0,1,,,,,,,,,,,,,,,,,,,,,,,,,,,,,,,,,,,,,,,,,,,,,,,,,,,,,,,,,,,,,,,,,,,,,,,,,,,,,,,,,,,,,,,,,,,,,,,,,,,,,,,,,,,,,
,,,,,,608ddb1cc919e2385b9868f6,62c53aa445a7cef4ce9fa9ac,2022-07-06_08h33.32.495,Colour_Asymmetry_Pilot,2022.1.3,Win32,60.05645307,62c50e9c1127f2cd403a315f,,,,,,,,,,,,,,,,,,,"[0.7018,0.7176,0.6155999999999999]",twoone,"[-0.9296,-0.12959999999999994,-0.043199999999999905]",-4,4.9465,-29.59997559,111.1999817,1,0,0,response7disk_5,-1.599975586,-0.800018311,1,0,0,rectangle_8,44.79998779,105.6000061,1,0,0,response1disk_7,7,4,-2.399963379,2.399993896,1,0,0,rectangle_4,4,0,4,0,1,,,,,,,,,,,,,,,,,,,,,,,,,,,,,,,,,,,,,,,,,,,,,,,,,,,,,,,,,,,,,,,,,,,,,,,,,,,,,,,,,,,,,,,,,,,,,,,,,,,,,,,,,,,,,
,,,,,,608ddb1cc919e2385b9868f6,62c53aa445a7cef4ce9fa9ac,2022-07-06_08h33.32.495,Colour_Asymmetry_Pilot,2022.1.3,Win32,60.05645307,62c50e9c1127f2cd403a315f,,,,,,,,,,,,,,,,,,,"[-0.8198,-0.5138,-0.7492000000000001]",twoone,"[-0.8198,-0.5138,-0.7492000000000001]",4,1.3648,44.79998779,105.6000061,1,0,0,response1disk_5,-3.200012207,-1.600006104,1,0,0,rectangle_8,-3.200012207,-1.600006104,1,0,0,,,4,-3.200012207,-1.600006104,1,0,0,,5,0,5,0,1,,,,,,,,,,,,,,,,,,,,,,,,,,,,,,,,,,,,,,,,,,,,,,,,,,,,,,,,,,,,,,,,,,,,,,,,,,,,,,,,,,,,,,,,,,,,,,,,,,,,,,,,,,,,,
,,,,,,608ddb1cc919e2385b9868f6,62c53aa445a7cef4ce9fa9ac,2022-07-06_08h33.32.495,Colour_Asymmetry_Pilot,2022.1.3,Win32,60.05645307,62c50e9c1127f2cd403a315f,,,,,,,,,,,,,,,,,,,"[0.37240000000000006,0.4980000000000002,-0.2864]",onethree,"[-0.4668,-0.8746,-0.2942]",-4,1.7482,-45.59997559,99.19998169,1,0,0,response7disk_5,-4,-1.600006104,1,0,0,rectangle_8,-4,-1.600006104,1,0,0,,,4,-4,-1.600006104,1,0,0,,6,0,6,0,1,,,,,,,,,,,,,,,,,,,,,,,,,,,,,,,,,,,,,,,,,,,,,,,,,,,,,,,,,,,,,,,,,,,,,,,,,,,,,,,,,,,,,,,,,,,,,,,,,,,,,,,,,,,,,
,,,,,,608ddb1cc919e2385b9868f6,62c53aa445a7cef4ce9fa9ac,2022-07-06_08h33.32.495,Colour_Asymmetry_Pilot,2022.1.3,Win32,60.05645307,62c50e9c1127f2cd403a315f,,,,,,,,,,,,,,,,,,,,twoone,,-3,4.6156,,,,,,,,,,,,,,,,,,,,,,,,,,,,,,,,space,11.9717,"[0.9686000000000001,0.3802000000000001,0.19999999999999996]","[0.9213999999999998,0.6391999999999998,-0.9922]",-97.59997559,39.19998169,1,0,0,response7disk,-4.799987793,-0.800018311,1,0,0,rectangle,-4.799987793,-0.800018311,1,0,0,,3,0.0039,0,-4.799987793,-0.800018311,1,0,0,0,0,0,31,1,31,first,,,,,,,,,,,,,,,,,,,,,,,,,,,,,,,,,,,,,,,,,,,,,,,,,,,,,,,,,,,,,,,,,,,,,,,,
,,,,,,608ddb1cc919e2385b9868f6,62c53aa445a7cef4ce9fa9ac,2022-07-06_08h33.32.495,Colour_Asymmetry_Pilot,2022.1.3,Win32,60.05645307,62c50e9c1127f2cd403a315f,,,,,,,,,,,,,,,,,,,,fourtwo,,-4,3.2643,,,,,,,,,,,,,,,,,,,,,,,,,,,,,,,,,,"[-0.48240000000000005,0.3175999999999999,0.2156]","[0.7018,0.7176,0.6155999999999999]",-58.39996338,89.6000061,1,0,0,response7disk,-14.39996338,-8,1,0,0,rectangle,-14.39996338,-8,1,0,0,,2,0.0022,0,-14.39996338,-8,1,0,0,0,1,1,110,1,29,second,,,,,,,,,,,,,,,,,,,,,,,,,,,,,,,,,,,,,,,,,,,,,,,,,,,,,,,,,,,,,,,,,,,,,,,,
,,,,,,608ddb1cc919e2385b9868f6,62c53aa445a7cef4ce9fa9ac,2022-07-06_08h33.32.495,Colour_Asymmetry_Pilot,2022.1.3,Win32,60.05645307,62c50e9c1127f2cd403a315f,,,,,,,,,,,,,,,,,,,,fourtwo,,-2,4.3962,,,,,,,,,,,,,,,,,,,,,,,,,,,,,,,,,,"[0.22340000000000004,-0.9296,-0.7884]","[0.12939999999999996,-0.2864,0.3253999999999999]",-83.20001221,-39.20001221,1,0,0,response5disk,-10.39996338,5.600006104,1,0,0,rectangle,-10.39996338,5.600006104,1,0,0,,3,0.0022,0,-10.39996338,5.600006104,1,0,0,0,2,2,39,1,39,first,,,,,,,,,,,,,,,,,,,,,,,,,,,,,,,,,,,,,,,,,,,,,,,,,,,,,,,,,,,,,,,,,,,,,,,,
,,,,,,608ddb1cc919e2385b9868f6,62c53aa445a7cef4ce9fa9ac,2022-07-06_08h33.32.495,Colour_Asymmetry_Pilot,2022.1.3,Win32,60.05645307,62c50e9c1127f2cd403a315f,,,,,,,,,,,,,,,,,,,,twoone,,4,1.6986,,,,,,,,,,,,,,,,,,,,,,,,,,,,,,,,,,"[-0.4982,-0.2942,-0.0354000000000001]","[-0.4982,-0.2942,-0.0354000000000001]",47.20001221,109.6000061,1,0,0,response1disk,7.200012207,-2.399993896,1,0,0,rectangle,7.200012207,-2.399993896,1,0,0,,2,0.002,0,7.200012207,-2.399993896,1,0,0,0,3,3,20,1,20,first,,,,,,,,,,,,,,,,,,,,,,,,,,,,,,,,,,,,,,,,,,,,,,,,,,,,,,,,,,,,,,,,,,,,,,,,
,,,,,,608ddb1cc919e2385b9868f6,62c53aa445a7cef4ce9fa9ac,2022-07-06_08h33.32.495,Colour_Asymmetry_Pilot,2022.1.3,Win32,60.05645307,62c50e9c1127f2cd403a315f,,,,,,,,,,,,,,,,,,,,twoone,,-3,1.9142,,,,,,,,,,,,,,,,,,,,,,,,,,,,,,,,,,"[-0.34920000000000007,-0.702,-0.5216]","[-0.9138,-0.5296000000000001,-0.5529999999999999]",-97.59997559,41.6000061,1,0,0,response7disk,-0.799987793,-8.800018311,1,0,0,rectangle,-0.799987793,-8.800018311,1,0,0,,3,0.0032,0,-0.799987793,-8.800018311,1,0,0,0,4,4,14,1,14,first,,,,,,,,,,,,,,,,,,,,,,,,,,,,,,,,,,,,,,,,,,,,,,,,,,,,,,,,,,,,,,,,,,,,,,,,
,,,,,,608ddb1cc919e2385b9868f6,62c53aa445a7cef4ce9fa9ac,2022-07-06_08h33.32.495,Colour_Asymmetry_Pilot,2022.1.3,Win32,60.05645307,62c50e9c1127f2cd403a315f,,,,,,,,,,,,,,,,,,,,threeone,,-3,1.8333,,,,,,,,,,,,,,,,,,,,,,,,,,,,,,,,,,"[0.11359999999999992,0.6312,0.5213999999999999]","[0.9213999999999998,0.6391999999999998,-0.9922]",-99.20001221,35.19998169,1,0,0,response7disk,0,-1.600006104,1,0,0,rectangle,0,-1.600006104,1,0,0,,3,0.0005,0,0,-1.600006104,1,0,0,0,5,5,153,1,72,second,,,,,,,,,,,,,,,,,,,,,,,,,,,,,,,,,,,,,,,,,,,,,,,,,,,,,,,,,,,,,,,,,,,,,,,,
,,,,,,608ddb1cc919e2385b9868f6,62c53aa445a7cef4ce9fa9ac,2022-07-06_08h33.32.495,Colour_Asymmetry_Pilot,2022.1.3,Win32,60.05645307,62c50e9c1127f2cd403a315f,,,,,,,,,,,,,,,,,,,,onethree,,-4,1.0616,,,,,,,,,,,,,,,,,,,,,,,,,,,,,,,,,,"[0.23920000000000008,0.2704,0.16060000000000008]","[0.34099999999999997,0.12939999999999996,-0.9766]",-52.79998779,80.79998779,1,0,0,response7disk,-14.39996338,-4,1,0,0,rectangle,-14.39996338,-4,1,0,0,,2,0.0023,0,-14.39996338,-4,1,0,0,0,6,6,109,1,28,second,,,,,,,,,,,,,,,,,,,,,,,,,,,,,,,,,,,,,,,,,,,,,,,,,,,,,,,,,,,,,,,,,,,,,,,,
,,,,,,608ddb1cc919e2385b9868f6,62c53aa445a7cef4ce9fa9ac,2022-07-06_08h33.32.495,Colour_Asymmetry_Pilot,2022.1.3,Win32,60.05645307,62c50e9c1127f2cd403a315f,,,,,,,,,,,,,,,,,,,,fourtwo,,2,2.7614,,,,,,,,,,,,,,,,,,,,,,,,,,,,,,,,,,"[-0.8198,-0.5138,-0.7492000000000001]","[-0.5688,-0.08239999999999992,-0.1844]",88.79998779,-41.6000061,1,0,0,response3disk,-4,-6.399993896,1,0,0,rectangle,-4,-6.399993896,1,0,0,,3,0.0025,0,-4,-6.399993896,1,0,0,0,7,7,13,1,13,first,,,,,,,,,,,,,,,,,,,,,,,,,,,,,,,,,,,,,,,,,,,,,,,,,,,,,,,,,,,,,,,,,,,,,,,,
,,,,,,608ddb1cc919e2385b9868f6,62c53aa445a7cef4ce9fa9ac,2022-07-06_08h33.32.495,Colour_Asymmetry_Pilot,2022.1.3,Win32,60.05645307,62c50e9c1127f2cd403a315f,,,,,,,,,,,,,,,,,,,,twofour,,2,3.0614,,,,,,,,,,,,,,,,,,,,,,,,,,,,,,,,,,"[0.40379999999999994,0.09000000000000008,0.44300000000000006]","[-0.10599999999999998,-0.10599999999999998,0.5841999999999998]",103.2000122,-44,1,0,0,response3disk,-4.799987793,-0.800018311,1,0,0,rectangle,-4.799987793,-0.800018311,1,0,0,,3,0.0008,0,-4.799987793,-0.800018311,1,0,0,0,8,8,114,1,33,second,,,,,,,,,,,,,,,,,,,,,,,,,,,,,,,,,,,,,,,,,,,,,,,,,,,,,,,,,,,,,,,,,,,,,,,,
,,,,,,608ddb1cc919e2385b9868f6,62c53aa445a7cef4ce9fa9ac,2022-07-06_08h33.32.495,Colour_Asymmetry_Pilot,2022.1.3,Win32,60.05645307,62c50e9c1127f2cd403a315f,,,,,,,,,,,,,,,,,,,,onethree,,-4,1.2327,,,,,,,,,,,,,,,,,,,,,,,,,,,,,,,,,,"[-0.4982,-0.2942,-0.0354000000000001]","[-0.2942,-0.7648,-0.7492000000000001]",-57.59997559,95.19998169,1,0,0,response7disk,-11.20001221,-2.399993896,1,0,0,rectangle,-11.20001221,-2.399993896,1,0,0,,3,0.0005,0,-11.20001221,-2.399993896,1,0,0,0,9,9,154,1,73,second,,,,,,,,,,,,,,,,,,,,,,,,,,,,,,,,,,,,,,,,,,,,,,,,,,,,,,,,,,,,,,,,,,,,,,,,
,,,,,,608ddb1cc919e2385b9868f6,62c53aa445a7cef4ce9fa9ac,2022-07-06_08h33.32.495,Colour_Asymmetry_Pilot,2022.1.3,Win32,60.05645307,62c50e9c1127f2cd403a315f,,,,,,,,,,,,,,,,,,,,twofour,,4,1.8155,,,,,,,,,,,,,,,,,,,,,,,,,,,,,,,,,,"[-0.6235999999999999,-0.6786,-0.08239999999999992]","[-0.6942,-0.7648,-0.12959999999999994]",68.79998779,102.3999939,1,0,0,response1disk,4.799987793,-9.600006104,1,0,0,rectangle,4.799987793,-9.600006104,1,0,0,,1,0.0024,0,4.799987793,-9.600006104,1,0,0,0,10,10,67,1,67,first,,,,,,,,,,,,,,,,,,,,,,,,,,,,,,,,,,,,,,,,,,,,,,,,,,,,,,,,,,,,,,,,,,,,,,,,
,,,,,,608ddb1cc919e2385b9868f6,62c53aa445a7cef4ce9fa9ac,2022-07-06_08h33.32.495,Colour_Asymmetry_Pilot,2022.1.3,Win32,60.05645307,62c50e9c1127f2cd403a315f,,,,,,,,,,,,,,,,,,,,twofour,,-4,0.8328,,,,,,,,,,,,,,,,,,,,,,,,,,,,,,,,,,"[-0.2942,-0.7648,-0.7492000000000001]","[0.19199999999999995,0.18419999999999992,0.5136000000000001]",-31.20001221,75.19998169,1,0,0,response7disk,-4.799987793,-9.600006104,1,0,0,rectangle,-4.799987793,-9.600006104,1,0,0,,1,0.0007,0,-4.799987793,-9.600006104,1,0,0,0,11,11,57,1,57,first,,,,,,,,,,,,,,,,,,,,,,,,,,,,,,,,,,,,,,,,,,,,,,,,,,,,,,,,,,,,,,,,,,,,,,,,
,,,,,,608ddb1cc919e2385b9868f6,62c53aa445a7cef4ce9fa9ac,2022-07-06_08h33.32.495,Colour_Asymmetry_Pilot,2022.1.3,Win32,60.05645307,62c50e9c1127f2cd403a315f,,,,,,,,,,,,,,,,,,,,fourtwo,,-3,1.0794,,,,,,,,,,,,,,,,,,,,,,,,,,,,,,,,,,"[0.2862,0.7802,0.3568]","[0.40379999999999994,0.09000000000000008,0.44300000000000006]",-78.39996338,40.79998779,1,0,0,response7disk,-12.79998779,7.199981689,1,0,0,rectangle,-12.79998779,7.199981689,1,0,0,,2,0.0022,0,-12.79998779,7.199981689,1,0,0,0,12,12,158,1,77,second,,,,,,,,,,,,,,,,,,,,,,,,,,,,,,,,,,,,,,,,,,,,,,,,,,,,,,,,,,,,,,,,,,,,,,,,
,,,,,,608ddb1cc919e2385b9868f6,62c53aa445a7cef4ce9fa9ac,2022-07-06_08h33.32.495,Colour_Asymmetry_Pilot,2022.1.3,Win32,60.05645307,62c50e9c1127f2cd403a315f,,,,,,,,,,,,,,,,,,,,fourthree,,-4,1.9135,,,,,,,,,,,,,,,,,,,,,,,,,,,,,,,,,,"[0.6625999999999999,0.4980000000000002,-0.357]","[0.7646000000000002,0.07440000000000002,0.2704]",-39.20001221,115.1999817,1,0,0,response7disk,5.600036621,0,1,0,0,rectangle,5.600036621,0,1,0,0,,3,0.0027,0,5.600036621,0,1,0,0,0,13,13,146,1,65,second,,,,,,,,,,,,,,,,,,,,,,,,,,,,,,,,,,,,,,,,,,,,,,,,,,,,,,,,,,,,,,,,,,,,,,,,
,,,,,,608ddb1cc919e2385b9868f6,62c53aa445a7cef4ce9fa9ac,2022-07-06_08h33.32.495,Colour_Asymmetry_Pilot,2022.1.3,Win32,60.05645307,62c50e9c1127f2cd403a315f,,,,,,,,,,,,,,,,,,,,twoone,,-4,0.8506,,,,,,,,,,,,,,,,,,,,,,,,,,,,,,,,,,"[0.40379999999999994,0.09000000000000008,0.44300000000000006]","[0.2862,0.7802,0.3568]",-42.39996338,89.6000061,1,0,0,response7disk,5.600036621,8.799987793,1,0,0,rectangle,5.600036621,8.799987793,1,0,0,,2,0.0024,0,5.600036621,8.799987793,1,0,0,0,14,14,77,1,77,first,,,,,,,,,,,,,,,,,,,,,,,,,,,,,,,,,,,,,,,,,,,,,,,,,,,,,,,,,,,,,,,,,,,,,,,,
