trials.thisRepN,trials.thisTrialN,trials.thisN,trials.thisIndex,trials.ran,Colourcodes,participant,session,date,expName,psychopyVersion,OS,frameRate,study_id,trials_4.thisRepN,trials_4.thisTrialN,trials_4.thisN,trials_4.thisIndex,trials_4.ran,StimulusPos,key_resp.keys,key_resp.rt,key_resp_2.keys,key_resp_2.rt,key_resp_15.keys,key_resp_15.rt,key_resp_17.keys,key_resp_17.rt,key_resp_9.keys,key_resp_9.rt,key_resp_10.keys,key_resp_10.rt,Circle1_col,Ecc,Circle2_col,similarity,response_time,mouse_5.x,mouse_5.y,mouse_5.leftButton,mouse_5.midButton,mouse_5.rightButton,mouse_5.clicked_name,mouse_10.x,mouse_10.y,mouse_10.leftButton,mouse_10.midButton,mouse_10.rightButton,mouse_10.clicked_name,mouse_7.x,mouse_7.y,mouse_7.leftButton,mouse_7.midButton,mouse_7.rightButton,catchnumberprac,mouse_6.x,mouse_6.y,mouse_6.leftButton,mouse_6.midButton,mouse_6.rightButton,duringprac.thisRepN,duringprac.thisTrialN,duringprac.thisN,duringprac.thisIndex,duringprac.ran,mouse_7.clicked_name,catchprac,mouse_6.clicked_name,key_resp_22.keys,key_resp_22.rt,Circle1_colour,Circle2_colour,mouse.x,mouse.y,mouse.leftButton,mouse.midButton,mouse.rightButton,mouse.clicked_name,mouse_2.x,mouse_2.y,mouse_2.leftButton,mouse_2.midButton,mouse_2.rightButton,mouse_2.clicked_name,mouse_3.x,mouse_3.y,mouse_3.leftButton,mouse_3.midButton,mouse_3.rightButton,catchresponse,catchnumber,response_time_catch,Catch,mouse_11.x,mouse_11.y,mouse_11.leftButton,mouse_11.midButton,mouse_11.rightButton,trials_2.thisRepN,trials_2.thisTrialN,trials_2.thisN,trials_2.thisIndex,trials_2.ran,Colourpair,Temporder,mouse_3.clicked_name,mouse_11.clicked_name,trials_3.thisRepN,trials_3.thisTrialN,trials_3.thisN,trials_3.thisIndex,trials_3.ran,key_resp_instr_Ishi.keys,key_resp_instr_Ishi.rt,Ishi_trial_keyresp.keys,Ishi_textbox.text,Ishi_mouse.x,Ishi_mouse.y,Ishi_mouse.leftButton,Ishi_mouse.midButton,Ishi_mouse.rightButton,Ishi_mouse.clicked_name,Ishi_loop.thisRepN,Ishi_loop.thisTrialN,Ishi_loop.thisN,Ishi_loop.thisIndex,Ishi_loop.ran,imageaddress,textbox.text,mouse_4.x,mouse_4.y,mouse_4.leftButton,mouse_4.midButton,mouse_4.rightButton,mouse_4.clicked_name,textbox_2.text,mouse_8.x,mouse_8.y,mouse_8.leftButton,mouse_8.midButton,mouse_8.rightButton,mouse_8.clicked_name,textbox_3.text,mouse_9.x,mouse_9.y,mouse_9.leftButton,mouse_9.midButton,mouse_9.rightButton,mouse_9.clicked_name,textbox_4.text,mouse_12.x,mouse_12.y,mouse_12.leftButton,mouse_12.midButton,mouse_12.rightButton,mouse_12.clicked_name,textbox_5.text,mouse_13.x,mouse_13.y,mouse_13.leftButton,mouse_13.midButton,mouse_13.rightButton,mouse_13.clicked_name,textbox_6.text,mouse_14.x,mouse_14.y,mouse_14.leftButton,mouse_14.midButton,mouse_14.rightButton,mouse_14.clicked_name,textbox_7.text,mouse_15.x,mouse_15.y,mouse_15.leftButton,mouse_15.midButton,mouse_15.rightButton,mouse_15.clicked_name
0,0,0,52,1,,61544ec77d9db5f95283802e,62c53a48ac5d8d31fb792f65,2022-07-06_09h36.36.388,Colour_Asymmetry_Pilot,2022.1.3,Win32,59.74072525,62c50e9c1127f2cd403a315f,,,,,,,,,,,,,,,,,,,,,,,,,,,,,,,,,,,,,,,,,,,,,,,,,,,,,,,,,,,,,,,,,,,,,,,,,,,,,,,,,,,,,,,,,,,,,,,,,,,,,,,,,,,,,,,,,,,,,,,,,,,,,,,,,,,,,,,,,,,,,,,,,,,,,,,,,,,,,,,,,,,
0,1,1,60,1,,61544ec77d9db5f95283802e,62c53a48ac5d8d31fb792f65,2022-07-06_09h36.36.388,Colour_Asymmetry_Pilot,2022.1.3,Win32,59.74072525,62c50e9c1127f2cd403a315f,,,,,,,,,,,,,,,,,,,,,,,,,,,,,,,,,,,,,,,,,,,,,,,,,,,,,,,,,,,,,,,,,,,,,,,,,,,,,,,,,,,,,,,,,,,,,,,,,,,,,,,,,,,,,,,,,,,,,,,,,,,,,,,,,,,,,,,,,,,,,,,,,,,,,,,,,,,,,,,,,,,
0,2,2,28,1,,61544ec77d9db5f95283802e,62c53a48ac5d8d31fb792f65,2022-07-06_09h36.36.388,Colour_Asymmetry_Pilot,2022.1.3,Win32,59.74072525,62c50e9c1127f2cd403a315f,,,,,,,,,,,,,,,,,,,,,,,,,,,,,,,,,,,,,,,,,,,,,,,,,,,,,,,,,,,,,,,,,,,,,,,,,,,,,,,,,,,,,,,,,,,,,,,,,,,,,,,,,,,,,,,,,,,,,,,,,,,,,,,,,,,,,,,,,,,,,,,,,,,,,,,,,,,,,,,,,,,
0,3,3,21,1,,61544ec77d9db5f95283802e,62c53a48ac5d8d31fb792f65,2022-07-06_09h36.36.388,Colour_Asymmetry_Pilot,2022.1.3,Win32,59.74072525,62c50e9c1127f2cd403a315f,,,,,,,,,,,,,,,,,,,,,,,,,,,,,,,,,,,,,,,,,,,,,,,,,,,,,,,,,,,,,,,,,,,,,,,,,,,,,,,,,,,,,,,,,,,,,,,,,,,,,,,,,,,,,,,,,,,,,,,,,,,,,,,,,,,,,,,,,,,,,,,,,,,,,,,,,,,,,,,,,,,
0,4,4,30,1,,61544ec77d9db5f95283802e,62c53a48ac5d8d31fb792f65,2022-07-06_09h36.36.388,Colour_Asymmetry_Pilot,2022.1.3,Win32,59.74072525,62c50e9c1127f2cd403a315f,,,,,,,,,,,,,,,,,,,,,,,,,,,,,,,,,,,,,,,,,,,,,,,,,,,,,,,,,,,,,,,,,,,,,,,,,,,,,,,,,,,,,,,,,,,,,,,,,,,,,,,,,,,,,,,,,,,,,,,,,,,,,,,,,,,,,,,,,,,,,,,,,,,,,,,,,,,,,,,,,,,
0,5,5,32,1,,61544ec77d9db5f95283802e,62c53a48ac5d8d31fb792f65,2022-07-06_09h36.36.388,Colour_Asymmetry_Pilot,2022.1.3,Win32,59.74072525,62c50e9c1127f2cd403a315f,,,,,,,,,,,,,,,,,,,,,,,,,,,,,,,,,,,,,,,,,,,,,,,,,,,,,,,,,,,,,,,,,,,,,,,,,,,,,,,,,,,,,,,,,,,,,,,,,,,,,,,,,,,,,,,,,,,,,,,,,,,,,,,,,,,,,,,,,,,,,,,,,,,,,,,,,,,,,,,,,,,
0,6,6,14,1,,61544ec77d9db5f95283802e,62c53a48ac5d8d31fb792f65,2022-07-06_09h36.36.388,Colour_Asymmetry_Pilot,2022.1.3,Win32,59.74072525,62c50e9c1127f2cd403a315f,,,,,,,,,,,,,,,,,,,,,,,,,,,,,,,,,,,,,,,,,,,,,,,,,,,,,,,,,,,,,,,,,,,,,,,,,,,,,,,,,,,,,,,,,,,,,,,,,,,,,,,,,,,,,,,,,,,,,,,,,,,,,,,,,,,,,,,,,,,,,,,,,,,,,,,,,,,,,,,,,,,
0,7,7,74,1,,61544ec77d9db5f95283802e,62c53a48ac5d8d31fb792f65,2022-07-06_09h36.36.388,Colour_Asymmetry_Pilot,2022.1.3,Win32,59.74072525,62c50e9c1127f2cd403a315f,,,,,,,,,,,,,,,,,,,,,,,,,,,,,,,,,,,,,,,,,,,,,,,,,,,,,,,,,,,,,,,,,,,,,,,,,,,,,,,,,,,,,,,,,,,,,,,,,,,,,,,,,,,,,,,,,,,,,,,,,,,,,,,,,,,,,,,,,,,,,,,,,,,,,,,,,,,,,,,,,,,
0,8,8,70,1,,61544ec77d9db5f95283802e,62c53a48ac5d8d31fb792f65,2022-07-06_09h36.36.388,Colour_Asymmetry_Pilot,2022.1.3,Win32,59.74072525,62c50e9c1127f2cd403a315f,,,,,,,,,,,,,,,,,,,,,,,,,,,,,,,,,,,,,,,,,,,,,,,,,,,,,,,,,,,,,,,,,,,,,,,,,,,,,,,,,,,,,,,,,,,,,,,,,,,,,,,,,,,,,,,,,,,,,,,,,,,,,,,,,,,,,,,,,,,,,,,,,,,,,,,,,,,,,,,,,,,
0,9,9,8,1,,61544ec77d9db5f95283802e,62c53a48ac5d8d31fb792f65,2022-07-06_09h36.36.388,Colour_Asymmetry_Pilot,2022.1.3,Win32,59.74072525,62c50e9c1127f2cd403a315f,,,,,,,,,,,,,,,,,,,,,,,,,,,,,,,,,,,,,,,,,,,,,,,,,,,,,,,,,,,,,,,,,,,,,,,,,,,,,,,,,,,,,,,,,,,,,,,,,,,,,,,,,,,,,,,,,,,,,,,,,,,,,,,,,,,,,,,,,,,,,,,,,,,,,,,,,,,,,,,,,,,
0,10,10,47,1,,61544ec77d9db5f95283802e,62c53a48ac5d8d31fb792f65,2022-07-06_09h36.36.388,Colour_Asymmetry_Pilot,2022.1.3,Win32,59.74072525,62c50e9c1127f2cd403a315f,,,,,,,,,,,,,,,,,,,,,,,,,,,,,,,,,,,,,,,,,,,,,,,,,,,,,,,,,,,,,,,,,,,,,,,,,,,,,,,,,,,,,,,,,,,,,,,,,,,,,,,,,,,,,,,,,,,,,,,,,,,,,,,,,,,,,,,,,,,,,,,,,,,,,,,,,,,,,,,,,,,
0,11,11,73,1,,61544ec77d9db5f95283802e,62c53a48ac5d8d31fb792f65,2022-07-06_09h36.36.388,Colour_Asymmetry_Pilot,2022.1.3,Win32,59.74072525,62c50e9c1127f2cd403a315f,,,,,,,,,,,,,,,,,,,,,,,,,,,,,,,,,,,,,,,,,,,,,,,,,,,,,,,,,,,,,,,,,,,,,,,,,,,,,,,,,,,,,,,,,,,,,,,,,,,,,,,,,,,,,,,,,,,,,,,,,,,,,,,,,,,,,,,,,,,,,,,,,,,,,,,,,,,,,,,,,,,
0,12,12,59,1,,61544ec77d9db5f95283802e,62c53a48ac5d8d31fb792f65,2022-07-06_09h36.36.388,Colour_Asymmetry_Pilot,2022.1.3,Win32,59.74072525,62c50e9c1127f2cd403a315f,,,,,,,,,,,,,,,,,,,,,,,,,,,,,,,,,,,,,,,,,,,,,,,,,,,,,,,,,,,,,,,,,,,,,,,,,,,,,,,,,,,,,,,,,,,,,,,,,,,,,,,,,,,,,,,,,,,,,,,,,,,,,,,,,,,,,,,,,,,,,,,,,,,,,,,,,,,,,,,,,,,
0,13,13,82,1,,61544ec77d9db5f95283802e,62c53a48ac5d8d31fb792f65,2022-07-06_09h36.36.388,Colour_Asymmetry_Pilot,2022.1.3,Win32,59.74072525,62c50e9c1127f2cd403a315f,,,,,,,,,,,,,,,,,,,,,,,,,,,,,,,,,,,,,,,,,,,,,,,,,,,,,,,,,,,,,,,,,,,,,,,,,,,,,,,,,,,,,,,,,,,,,,,,,,,,,,,,,,,,,,,,,,,,,,,,,,,,,,,,,,,,,,,,,,,,,,,,,,,,,,,,,,,,,,,,,,,
0,14,14,54,1,,61544ec77d9db5f95283802e,62c53a48ac5d8d31fb792f65,2022-07-06_09h36.36.388,Colour_Asymmetry_Pilot,2022.1.3,Win32,59.74072525,62c50e9c1127f2cd403a315f,,,,,,,,,,,,,,,,,,,,,,,,,,,,,,,,,,,,,,,,,,,,,,,,,,,,,,,,,,,,,,,,,,,,,,,,,,,,,,,,,,,,,,,,,,,,,,,,,,,,,,,,,,,,,,,,,,,,,,,,,,,,,,,,,,,,,,,,,,,,,,,,,,,,,,,,,,,,,,,,,,,
0,15,15,76,1,,61544ec77d9db5f95283802e,62c53a48ac5d8d31fb792f65,2022-07-06_09h36.36.388,Colour_Asymmetry_Pilot,2022.1.3,Win32,59.74072525,62c50e9c1127f2cd403a315f,,,,,,,,,,,,,,,,,,,,,,,,,,,,,,,,,,,,,,,,,,,,,,,,,,,,,,,,,,,,,,,,,,,,,,,,,,,,,,,,,,,,,,,,,,,,,,,,,,,,,,,,,,,,,,,,,,,,,,,,,,,,,,,,,,,,,,,,,,,,,,,,,,,,,,,,,,,,,,,,,,,
0,16,16,65,1,,61544ec77d9db5f95283802e,62c53a48ac5d8d31fb792f65,2022-07-06_09h36.36.388,Colour_Asymmetry_Pilot,2022.1.3,Win32,59.74072525,62c50e9c1127f2cd403a315f,,,,,,,,,,,,,,,,,,,,,,,,,,,,,,,,,,,,,,,,,,,,,,,,,,,,,,,,,,,,,,,,,,,,,,,,,,,,,,,,,,,,,,,,,,,,,,,,,,,,,,,,,,,,,,,,,,,,,,,,,,,,,,,,,,,,,,,,,,,,,,,,,,,,,,,,,,,,,,,,,,,
0,17,17,11,1,,61544ec77d9db5f95283802e,62c53a48ac5d8d31fb792f65,2022-07-06_09h36.36.388,Colour_Asymmetry_Pilot,2022.1.3,Win32,59.74072525,62c50e9c1127f2cd403a315f,,,,,,,,,,,,,,,,,,,,,,,,,,,,,,,,,,,,,,,,,,,,,,,,,,,,,,,,,,,,,,,,,,,,,,,,,,,,,,,,,,,,,,,,,,,,,,,,,,,,,,,,,,,,,,,,,,,,,,,,,,,,,,,,,,,,,,,,,,,,,,,,,,,,,,,,,,,,,,,,,,,
0,18,18,66,1,,61544ec77d9db5f95283802e,62c53a48ac5d8d31fb792f65,2022-07-06_09h36.36.388,Colour_Asymmetry_Pilot,2022.1.3,Win32,59.74072525,62c50e9c1127f2cd403a315f,,,,,,,,,,,,,,,,,,,,,,,,,,,,,,,,,,,,,,,,,,,,,,,,,,,,,,,,,,,,,,,,,,,,,,,,,,,,,,,,,,,,,,,,,,,,,,,,,,,,,,,,,,,,,,,,,,,,,,,,,,,,,,,,,,,,,,,,,,,,,,,,,,,,,,,,,,,,,,,,,,,
0,19,19,23,1,,61544ec77d9db5f95283802e,62c53a48ac5d8d31fb792f65,2022-07-06_09h36.36.388,Colour_Asymmetry_Pilot,2022.1.3,Win32,59.74072525,62c50e9c1127f2cd403a315f,,,,,,,,,,,,,,,,,,,,,,,,,,,,,,,,,,,,,,,,,,,,,,,,,,,,,,,,,,,,,,,,,,,,,,,,,,,,,,,,,,,,,,,,,,,,,,,,,,,,,,,,,,,,,,,,,,,,,,,,,,,,,,,,,,,,,,,,,,,,,,,,,,,,,,,,,,,,,,,,,,,
0,20,20,64,1,,61544ec77d9db5f95283802e,62c53a48ac5d8d31fb792f65,2022-07-06_09h36.36.388,Colour_Asymmetry_Pilot,2022.1.3,Win32,59.74072525,62c50e9c1127f2cd403a315f,,,,,,,,,,,,,,,,,,,,,,,,,,,,,,,,,,,,,,,,,,,,,,,,,,,,,,,,,,,,,,,,,,,,,,,,,,,,,,,,,,,,,,,,,,,,,,,,,,,,,,,,,,,,,,,,,,,,,,,,,,,,,,,,,,,,,,,,,,,,,,,,,,,,,,,,,,,,,,,,,,,
0,21,21,75,1,,61544ec77d9db5f95283802e,62c53a48ac5d8d31fb792f65,2022-07-06_09h36.36.388,Colour_Asymmetry_Pilot,2022.1.3,Win32,59.74072525,62c50e9c1127f2cd403a315f,,,,,,,,,,,,,,,,,,,,,,,,,,,,,,,,,,,,,,,,,,,,,,,,,,,,,,,,,,,,,,,,,,,,,,,,,,,,,,,,,,,,,,,,,,,,,,,,,,,,,,,,,,,,,,,,,,,,,,,,,,,,,,,,,,,,,,,,,,,,,,,,,,,,,,,,,,,,,,,,,,,
0,22,22,71,1,,61544ec77d9db5f95283802e,62c53a48ac5d8d31fb792f65,2022-07-06_09h36.36.388,Colour_Asymmetry_Pilot,2022.1.3,Win32,59.74072525,62c50e9c1127f2cd403a315f,,,,,,,,,,,,,,,,,,,,,,,,,,,,,,,,,,,,,,,,,,,,,,,,,,,,,,,,,,,,,,,,,,,,,,,,,,,,,,,,,,,,,,,,,,,,,,,,,,,,,,,,,,,,,,,,,,,,,,,,,,,,,,,,,,,,,,,,,,,,,,,,,,,,,,,,,,,,,,,,,,,
0,23,23,25,1,,61544ec77d9db5f95283802e,62c53a48ac5d8d31fb792f65,2022-07-06_09h36.36.388,Colour_Asymmetry_Pilot,2022.1.3,Win32,59.74072525,62c50e9c1127f2cd403a315f,,,,,,,,,,,,,,,,,,,,,,,,,,,,,,,,,,,,,,,,,,,,,,,,,,,,,,,,,,,,,,,,,,,,,,,,,,,,,,,,,,,,,,,,,,,,,,,,,,,,,,,,,,,,,,,,,,,,,,,,,,,,,,,,,,,,,,,,,,,,,,,,,,,,,,,,,,,,,,,,,,,
0,24,24,50,1,,61544ec77d9db5f95283802e,62c53a48ac5d8d31fb792f65,2022-07-06_09h36.36.388,Colour_Asymmetry_Pilot,2022.1.3,Win32,59.74072525,62c50e9c1127f2cd403a315f,,,,,,,,,,,,,,,,,,,,,,,,,,,,,,,,,,,,,,,,,,,,,,,,,,,,,,,,,,,,,,,,,,,,,,,,,,,,,,,,,,,,,,,,,,,,,,,,,,,,,,,,,,,,,,,,,,,,,,,,,,,,,,,,,,,,,,,,,,,,,,,,,,,,,,,,,,,,,,,,,,,
0,25,25,57,1,,61544ec77d9db5f95283802e,62c53a48ac5d8d31fb792f65,2022-07-06_09h36.36.388,Colour_Asymmetry_Pilot,2022.1.3,Win32,59.74072525,62c50e9c1127f2cd403a315f,,,,,,,,,,,,,,,,,,,,,,,,,,,,,,,,,,,,,,,,,,,,,,,,,,,,,,,,,,,,,,,,,,,,,,,,,,,,,,,,,,,,,,,,,,,,,,,,,,,,,,,,,,,,,,,,,,,,,,,,,,,,,,,,,,,,,,,,,,,,,,,,,,,,,,,,,,,,,,,,,,,
0,26,26,29,1,,61544ec77d9db5f95283802e,62c53a48ac5d8d31fb792f65,2022-07-06_09h36.36.388,Colour_Asymmetry_Pilot,2022.1.3,Win32,59.74072525,62c50e9c1127f2cd403a315f,,,,,,,,,,,,,,,,,,,,,,,,,,,,,,,,,,,,,,,,,,,,,,,,,,,,,,,,,,,,,,,,,,,,,,,,,,,,,,,,,,,,,,,,,,,,,,,,,,,,,,,,,,,,,,,,,,,,,,,,,,,,,,,,,,,,,,,,,,,,,,,,,,,,,,,,,,,,,,,,,,,
0,27,27,27,1,,61544ec77d9db5f95283802e,62c53a48ac5d8d31fb792f65,2022-07-06_09h36.36.388,Colour_Asymmetry_Pilot,2022.1.3,Win32,59.74072525,62c50e9c1127f2cd403a315f,,,,,,,,,,,,,,,,,,,,,,,,,,,,,,,,,,,,,,,,,,,,,,,,,,,,,,,,,,,,,,,,,,,,,,,,,,,,,,,,,,,,,,,,,,,,,,,,,,,,,,,,,,,,,,,,,,,,,,,,,,,,,,,,,,,,,,,,,,,,,,,,,,,,,,,,,,,,,,,,,,,
0,28,28,5,1,,61544ec77d9db5f95283802e,62c53a48ac5d8d31fb792f65,2022-07-06_09h36.36.388,Colour_Asymmetry_Pilot,2022.1.3,Win32,59.74072525,62c50e9c1127f2cd403a315f,,,,,,,,,,,,,,,,,,,,,,,,,,,,,,,,,,,,,,,,,,,,,,,,,,,,,,,,,,,,,,,,,,,,,,,,,,,,,,,,,,,,,,,,,,,,,,,,,,,,,,,,,,,,,,,,,,,,,,,,,,,,,,,,,,,,,,,,,,,,,,,,,,,,,,,,,,,,,,,,,,,
0,29,29,35,1,,61544ec77d9db5f95283802e,62c53a48ac5d8d31fb792f65,2022-07-06_09h36.36.388,Colour_Asymmetry_Pilot,2022.1.3,Win32,59.74072525,62c50e9c1127f2cd403a315f,,,,,,,,,,,,,,,,,,,,,,,,,,,,,,,,,,,,,,,,,,,,,,,,,,,,,,,,,,,,,,,,,,,,,,,,,,,,,,,,,,,,,,,,,,,,,,,,,,,,,,,,,,,,,,,,,,,,,,,,,,,,,,,,,,,,,,,,,,,,,,,,,,,,,,,,,,,,,,,,,,,
0,30,30,2,1,,61544ec77d9db5f95283802e,62c53a48ac5d8d31fb792f65,2022-07-06_09h36.36.388,Colour_Asymmetry_Pilot,2022.1.3,Win32,59.74072525,62c50e9c1127f2cd403a315f,,,,,,,,,,,,,,,,,,,,,,,,,,,,,,,,,,,,,,,,,,,,,,,,,,,,,,,,,,,,,,,,,,,,,,,,,,,,,,,,,,,,,,,,,,,,,,,,,,,,,,,,,,,,,,,,,,,,,,,,,,,,,,,,,,,,,,,,,,,,,,,,,,,,,,,,,,,,,,,,,,,
0,31,31,83,1,,61544ec77d9db5f95283802e,62c53a48ac5d8d31fb792f65,2022-07-06_09h36.36.388,Colour_Asymmetry_Pilot,2022.1.3,Win32,59.74072525,62c50e9c1127f2cd403a315f,,,,,,,,,,,,,,,,,,,,,,,,,,,,,,,,,,,,,,,,,,,,,,,,,,,,,,,,,,,,,,,,,,,,,,,,,,,,,,,,,,,,,,,,,,,,,,,,,,,,,,,,,,,,,,,,,,,,,,,,,,,,,,,,,,,,,,,,,,,,,,,,,,,,,,,,,,,,,,,,,,,
0,32,32,84,1,,61544ec77d9db5f95283802e,62c53a48ac5d8d31fb792f65,2022-07-06_09h36.36.388,Colour_Asymmetry_Pilot,2022.1.3,Win32,59.74072525,62c50e9c1127f2cd403a315f,,,,,,,,,,,,,,,,,,,,,,,,,,,,,,,,,,,,,,,,,,,,,,,,,,,,,,,,,,,,,,,,,,,,,,,,,,,,,,,,,,,,,,,,,,,,,,,,,,,,,,,,,,,,,,,,,,,,,,,,,,,,,,,,,,,,,,,,,,,,,,,,,,,,,,,,,,,,,,,,,,,
0,33,33,0,1,,61544ec77d9db5f95283802e,62c53a48ac5d8d31fb792f65,2022-07-06_09h36.36.388,Colour_Asymmetry_Pilot,2022.1.3,Win32,59.74072525,62c50e9c1127f2cd403a315f,,,,,,,,,,,,,,,,,,,,,,,,,,,,,,,,,,,,,,,,,,,,,,,,,,,,,,,,,,,,,,,,,,,,,,,,,,,,,,,,,,,,,,,,,,,,,,,,,,,,,,,,,,,,,,,,,,,,,,,,,,,,,,,,,,,,,,,,,,,,,,,,,,,,,,,,,,,,,,,,,,,
0,34,34,24,1,,61544ec77d9db5f95283802e,62c53a48ac5d8d31fb792f65,2022-07-06_09h36.36.388,Colour_Asymmetry_Pilot,2022.1.3,Win32,59.74072525,62c50e9c1127f2cd403a315f,,,,,,,,,,,,,,,,,,,,,,,,,,,,,,,,,,,,,,,,,,,,,,,,,,,,,,,,,,,,,,,,,,,,,,,,,,,,,,,,,,,,,,,,,,,,,,,,,,,,,,,,,,,,,,,,,,,,,,,,,,,,,,,,,,,,,,,,,,,,,,,,,,,,,,,,,,,,,,,,,,,
0,35,35,37,1,,61544ec77d9db5f95283802e,62c53a48ac5d8d31fb792f65,2022-07-06_09h36.36.388,Colour_Asymmetry_Pilot,2022.1.3,Win32,59.74072525,62c50e9c1127f2cd403a315f,,,,,,,,,,,,,,,,,,,,,,,,,,,,,,,,,,,,,,,,,,,,,,,,,,,,,,,,,,,,,,,,,,,,,,,,,,,,,,,,,,,,,,,,,,,,,,,,,,,,,,,,,,,,,,,,,,,,,,,,,,,,,,,,,,,,,,,,,,,,,,,,,,,,,,,,,,,,,,,,,,,
0,36,36,10,1,,61544ec77d9db5f95283802e,62c53a48ac5d8d31fb792f65,2022-07-06_09h36.36.388,Colour_Asymmetry_Pilot,2022.1.3,Win32,59.74072525,62c50e9c1127f2cd403a315f,,,,,,,,,,,,,,,,,,,,,,,,,,,,,,,,,,,,,,,,,,,,,,,,,,,,,,,,,,,,,,,,,,,,,,,,,,,,,,,,,,,,,,,,,,,,,,,,,,,,,,,,,,,,,,,,,,,,,,,,,,,,,,,,,,,,,,,,,,,,,,,,,,,,,,,,,,,,,,,,,,,
0,37,37,4,1,,61544ec77d9db5f95283802e,62c53a48ac5d8d31fb792f65,2022-07-06_09h36.36.388,Colour_Asymmetry_Pilot,2022.1.3,Win32,59.74072525,62c50e9c1127f2cd403a315f,,,,,,,,,,,,,,,,,,,,,,,,,,,,,,,,,,,,,,,,,,,,,,,,,,,,,,,,,,,,,,,,,,,,,,,,,,,,,,,,,,,,,,,,,,,,,,,,,,,,,,,,,,,,,,,,,,,,,,,,,,,,,,,,,,,,,,,,,,,,,,,,,,,,,,,,,,,,,,,,,,,
0,38,38,77,1,,61544ec77d9db5f95283802e,62c53a48ac5d8d31fb792f65,2022-07-06_09h36.36.388,Colour_Asymmetry_Pilot,2022.1.3,Win32,59.74072525,62c50e9c1127f2cd403a315f,,,,,,,,,,,,,,,,,,,,,,,,,,,,,,,,,,,,,,,,,,,,,,,,,,,,,,,,,,,,,,,,,,,,,,,,,,,,,,,,,,,,,,,,,,,,,,,,,,,,,,,,,,,,,,,,,,,,,,,,,,,,,,,,,,,,,,,,,,,,,,,,,,,,,,,,,,,,,,,,,,,
0,39,39,13,1,,61544ec77d9db5f95283802e,62c53a48ac5d8d31fb792f65,2022-07-06_09h36.36.388,Colour_Asymmetry_Pilot,2022.1.3,Win32,59.74072525,62c50e9c1127f2cd403a315f,,,,,,,,,,,,,,,,,,,,,,,,,,,,,,,,,,,,,,,,,,,,,,,,,,,,,,,,,,,,,,,,,,,,,,,,,,,,,,,,,,,,,,,,,,,,,,,,,,,,,,,,,,,,,,,,,,,,,,,,,,,,,,,,,,,,,,,,,,,,,,,,,,,,,,,,,,,,,,,,,,,
0,40,40,33,1,,61544ec77d9db5f95283802e,62c53a48ac5d8d31fb792f65,2022-07-06_09h36.36.388,Colour_Asymmetry_Pilot,2022.1.3,Win32,59.74072525,62c50e9c1127f2cd403a315f,,,,,,,,,,,,,,,,,,,,,,,,,,,,,,,,,,,,,,,,,,,,,,,,,,,,,,,,,,,,,,,,,,,,,,,,,,,,,,,,,,,,,,,,,,,,,,,,,,,,,,,,,,,,,,,,,,,,,,,,,,,,,,,,,,,,,,,,,,,,,,,,,,,,,,,,,,,,,,,,,,,
0,41,41,49,1,,61544ec77d9db5f95283802e,62c53a48ac5d8d31fb792f65,2022-07-06_09h36.36.388,Colour_Asymmetry_Pilot,2022.1.3,Win32,59.74072525,62c50e9c1127f2cd403a315f,,,,,,,,,,,,,,,,,,,,,,,,,,,,,,,,,,,,,,,,,,,,,,,,,,,,,,,,,,,,,,,,,,,,,,,,,,,,,,,,,,,,,,,,,,,,,,,,,,,,,,,,,,,,,,,,,,,,,,,,,,,,,,,,,,,,,,,,,,,,,,,,,,,,,,,,,,,,,,,,,,,
0,42,42,55,1,,61544ec77d9db5f95283802e,62c53a48ac5d8d31fb792f65,2022-07-06_09h36.36.388,Colour_Asymmetry_Pilot,2022.1.3,Win32,59.74072525,62c50e9c1127f2cd403a315f,,,,,,,,,,,,,,,,,,,,,,,,,,,,,,,,,,,,,,,,,,,,,,,,,,,,,,,,,,,,,,,,,,,,,,,,,,,,,,,,,,,,,,,,,,,,,,,,,,,,,,,,,,,,,,,,,,,,,,,,,,,,,,,,,,,,,,,,,,,,,,,,,,,,,,,,,,,,,,,,,,,
0,43,43,62,1,,61544ec77d9db5f95283802e,62c53a48ac5d8d31fb792f65,2022-07-06_09h36.36.388,Colour_Asymmetry_Pilot,2022.1.3,Win32,59.74072525,62c50e9c1127f2cd403a315f,,,,,,,,,,,,,,,,,,,,,,,,,,,,,,,,,,,,,,,,,,,,,,,,,,,,,,,,,,,,,,,,,,,,,,,,,,,,,,,,,,,,,,,,,,,,,,,,,,,,,,,,,,,,,,,,,,,,,,,,,,,,,,,,,,,,,,,,,,,,,,,,,,,,,,,,,,,,,,,,,,,
0,44,44,79,1,,61544ec77d9db5f95283802e,62c53a48ac5d8d31fb792f65,2022-07-06_09h36.36.388,Colour_Asymmetry_Pilot,2022.1.3,Win32,59.74072525,62c50e9c1127f2cd403a315f,,,,,,,,,,,,,,,,,,,,,,,,,,,,,,,,,,,,,,,,,,,,,,,,,,,,,,,,,,,,,,,,,,,,,,,,,,,,,,,,,,,,,,,,,,,,,,,,,,,,,,,,,,,,,,,,,,,,,,,,,,,,,,,,,,,,,,,,,,,,,,,,,,,,,,,,,,,,,,,,,,,
0,45,45,85,1,,61544ec77d9db5f95283802e,62c53a48ac5d8d31fb792f65,2022-07-06_09h36.36.388,Colour_Asymmetry_Pilot,2022.1.3,Win32,59.74072525,62c50e9c1127f2cd403a315f,,,,,,,,,,,,,,,,,,,,,,,,,,,,,,,,,,,,,,,,,,,,,,,,,,,,,,,,,,,,,,,,,,,,,,,,,,,,,,,,,,,,,,,,,,,,,,,,,,,,,,,,,,,,,,,,,,,,,,,,,,,,,,,,,,,,,,,,,,,,,,,,,,,,,,,,,,,,,,,,,,,
0,46,46,7,1,,61544ec77d9db5f95283802e,62c53a48ac5d8d31fb792f65,2022-07-06_09h36.36.388,Colour_Asymmetry_Pilot,2022.1.3,Win32,59.74072525,62c50e9c1127f2cd403a315f,,,,,,,,,,,,,,,,,,,,,,,,,,,,,,,,,,,,,,,,,,,,,,,,,,,,,,,,,,,,,,,,,,,,,,,,,,,,,,,,,,,,,,,,,,,,,,,,,,,,,,,,,,,,,,,,,,,,,,,,,,,,,,,,,,,,,,,,,,,,,,,,,,,,,,,,,,,,,,,,,,,
0,47,47,20,1,,61544ec77d9db5f95283802e,62c53a48ac5d8d31fb792f65,2022-07-06_09h36.36.388,Colour_Asymmetry_Pilot,2022.1.3,Win32,59.74072525,62c50e9c1127f2cd403a315f,,,,,,,,,,,,,,,,,,,,,,,,,,,,,,,,,,,,,,,,,,,,,,,,,,,,,,,,,,,,,,,,,,,,,,,,,,,,,,,,,,,,,,,,,,,,,,,,,,,,,,,,,,,,,,,,,,,,,,,,,,,,,,,,,,,,,,,,,,,,,,,,,,,,,,,,,,,,,,,,,,,
0,48,48,51,1,,61544ec77d9db5f95283802e,62c53a48ac5d8d31fb792f65,2022-07-06_09h36.36.388,Colour_Asymmetry_Pilot,2022.1.3,Win32,59.74072525,62c50e9c1127f2cd403a315f,,,,,,,,,,,,,,,,,,,,,,,,,,,,,,,,,,,,,,,,,,,,,,,,,,,,,,,,,,,,,,,,,,,,,,,,,,,,,,,,,,,,,,,,,,,,,,,,,,,,,,,,,,,,,,,,,,,,,,,,,,,,,,,,,,,,,,,,,,,,,,,,,,,,,,,,,,,,,,,,,,,
0,49,49,39,1,,61544ec77d9db5f95283802e,62c53a48ac5d8d31fb792f65,2022-07-06_09h36.36.388,Colour_Asymmetry_Pilot,2022.1.3,Win32,59.74072525,62c50e9c1127f2cd403a315f,,,,,,,,,,,,,,,,,,,,,,,,,,,,,,,,,,,,,,,,,,,,,,,,,,,,,,,,,,,,,,,,,,,,,,,,,,,,,,,,,,,,,,,,,,,,,,,,,,,,,,,,,,,,,,,,,,,,,,,,,,,,,,,,,,,,,,,,,,,,,,,,,,,,,,,,,,,,,,,,,,,
0,50,50,72,1,,61544ec77d9db5f95283802e,62c53a48ac5d8d31fb792f65,2022-07-06_09h36.36.388,Colour_Asymmetry_Pilot,2022.1.3,Win32,59.74072525,62c50e9c1127f2cd403a315f,,,,,,,,,,,,,,,,,,,,,,,,,,,,,,,,,,,,,,,,,,,,,,,,,,,,,,,,,,,,,,,,,,,,,,,,,,,,,,,,,,,,,,,,,,,,,,,,,,,,,,,,,,,,,,,,,,,,,,,,,,,,,,,,,,,,,,,,,,,,,,,,,,,,,,,,,,,,,,,,,,,
0,51,51,31,1,,61544ec77d9db5f95283802e,62c53a48ac5d8d31fb792f65,2022-07-06_09h36.36.388,Colour_Asymmetry_Pilot,2022.1.3,Win32,59.74072525,62c50e9c1127f2cd403a315f,,,,,,,,,,,,,,,,,,,,,,,,,,,,,,,,,,,,,,,,,,,,,,,,,,,,,,,,,,,,,,,,,,,,,,,,,,,,,,,,,,,,,,,,,,,,,,,,,,,,,,,,,,,,,,,,,,,,,,,,,,,,,,,,,,,,,,,,,,,,,,,,,,,,,,,,,,,,,,,,,,,
0,52,52,92,1,,61544ec77d9db5f95283802e,62c53a48ac5d8d31fb792f65,2022-07-06_09h36.36.388,Colour_Asymmetry_Pilot,2022.1.3,Win32,59.74072525,62c50e9c1127f2cd403a315f,,,,,,,,,,,,,,,,,,,,,,,,,,,,,,,,,,,,,,,,,,,,,,,,,,,,,,,,,,,,,,,,,,,,,,,,,,,,,,,,,,,,,,,,,,,,,,,,,,,,,,,,,,,,,,,,,,,,,,,,,,,,,,,,,,,,,,,,,,,,,,,,,,,,,,,,,,,,,,,,,,,
0,53,53,16,1,,61544ec77d9db5f95283802e,62c53a48ac5d8d31fb792f65,2022-07-06_09h36.36.388,Colour_Asymmetry_Pilot,2022.1.3,Win32,59.74072525,62c50e9c1127f2cd403a315f,,,,,,,,,,,,,,,,,,,,,,,,,,,,,,,,,,,,,,,,,,,,,,,,,,,,,,,,,,,,,,,,,,,,,,,,,,,,,,,,,,,,,,,,,,,,,,,,,,,,,,,,,,,,,,,,,,,,,,,,,,,,,,,,,,,,,,,,,,,,,,,,,,,,,,,,,,,,,,,,,,,
0,54,54,42,1,,61544ec77d9db5f95283802e,62c53a48ac5d8d31fb792f65,2022-07-06_09h36.36.388,Colour_Asymmetry_Pilot,2022.1.3,Win32,59.74072525,62c50e9c1127f2cd403a315f,,,,,,,,,,,,,,,,,,,,,,,,,,,,,,,,,,,,,,,,,,,,,,,,,,,,,,,,,,,,,,,,,,,,,,,,,,,,,,,,,,,,,,,,,,,,,,,,,,,,,,,,,,,,,,,,,,,,,,,,,,,,,,,,,,,,,,,,,,,,,,,,,,,,,,,,,,,,,,,,,,,
0,55,55,88,1,,61544ec77d9db5f95283802e,62c53a48ac5d8d31fb792f65,2022-07-06_09h36.36.388,Colour_Asymmetry_Pilot,2022.1.3,Win32,59.74072525,62c50e9c1127f2cd403a315f,,,,,,,,,,,,,,,,,,,,,,,,,,,,,,,,,,,,,,,,,,,,,,,,,,,,,,,,,,,,,,,,,,,,,,,,,,,,,,,,,,,,,,,,,,,,,,,,,,,,,,,,,,,,,,,,,,,,,,,,,,,,,,,,,,,,,,,,,,,,,,,,,,,,,,,,,,,,,,,,,,,
0,56,56,34,1,,61544ec77d9db5f95283802e,62c53a48ac5d8d31fb792f65,2022-07-06_09h36.36.388,Colour_Asymmetry_Pilot,2022.1.3,Win32,59.74072525,62c50e9c1127f2cd403a315f,,,,,,,,,,,,,,,,,,,,,,,,,,,,,,,,,,,,,,,,,,,,,,,,,,,,,,,,,,,,,,,,,,,,,,,,,,,,,,,,,,,,,,,,,,,,,,,,,,,,,,,,,,,,,,,,,,,,,,,,,,,,,,,,,,,,,,,,,,,,,,,,,,,,,,,,,,,,,,,,,,,
0,57,57,12,1,,61544ec77d9db5f95283802e,62c53a48ac5d8d31fb792f65,2022-07-06_09h36.36.388,Colour_Asymmetry_Pilot,2022.1.3,Win32,59.74072525,62c50e9c1127f2cd403a315f,,,,,,,,,,,,,,,,,,,,,,,,,,,,,,,,,,,,,,,,,,,,,,,,,,,,,,,,,,,,,,,,,,,,,,,,,,,,,,,,,,,,,,,,,,,,,,,,,,,,,,,,,,,,,,,,,,,,,,,,,,,,,,,,,,,,,,,,,,,,,,,,,,,,,,,,,,,,,,,,,,,
0,58,58,38,1,,61544ec77d9db5f95283802e,62c53a48ac5d8d31fb792f65,2022-07-06_09h36.36.388,Colour_Asymmetry_Pilot,2022.1.3,Win32,59.74072525,62c50e9c1127f2cd403a315f,,,,,,,,,,,,,,,,,,,,,,,,,,,,,,,,,,,,,,,,,,,,,,,,,,,,,,,,,,,,,,,,,,,,,,,,,,,,,,,,,,,,,,,,,,,,,,,,,,,,,,,,,,,,,,,,,,,,,,,,,,,,,,,,,,,,,,,,,,,,,,,,,,,,,,,,,,,,,,,,,,,
0,59,59,46,1,,61544ec77d9db5f95283802e,62c53a48ac5d8d31fb792f65,2022-07-06_09h36.36.388,Colour_Asymmetry_Pilot,2022.1.3,Win32,59.74072525,62c50e9c1127f2cd403a315f,,,,,,,,,,,,,,,,,,,,,,,,,,,,,,,,,,,,,,,,,,,,,,,,,,,,,,,,,,,,,,,,,,,,,,,,,,,,,,,,,,,,,,,,,,,,,,,,,,,,,,,,,,,,,,,,,,,,,,,,,,,,,,,,,,,,,,,,,,,,,,,,,,,,,,,,,,,,,,,,,,,
0,60,60,90,1,,61544ec77d9db5f95283802e,62c53a48ac5d8d31fb792f65,2022-07-06_09h36.36.388,Colour_Asymmetry_Pilot,2022.1.3,Win32,59.74072525,62c50e9c1127f2cd403a315f,,,,,,,,,,,,,,,,,,,,,,,,,,,,,,,,,,,,,,,,,,,,,,,,,,,,,,,,,,,,,,,,,,,,,,,,,,,,,,,,,,,,,,,,,,,,,,,,,,,,,,,,,,,,,,,,,,,,,,,,,,,,,,,,,,,,,,,,,,,,,,,,,,,,,,,,,,,,,,,,,,,
0,61,61,48,1,,61544ec77d9db5f95283802e,62c53a48ac5d8d31fb792f65,2022-07-06_09h36.36.388,Colour_Asymmetry_Pilot,2022.1.3,Win32,59.74072525,62c50e9c1127f2cd403a315f,,,,,,,,,,,,,,,,,,,,,,,,,,,,,,,,,,,,,,,,,,,,,,,,,,,,,,,,,,,,,,,,,,,,,,,,,,,,,,,,,,,,,,,,,,,,,,,,,,,,,,,,,,,,,,,,,,,,,,,,,,,,,,,,,,,,,,,,,,,,,,,,,,,,,,,,,,,,,,,,,,,
0,62,62,45,1,,61544ec77d9db5f95283802e,62c53a48ac5d8d31fb792f65,2022-07-06_09h36.36.388,Colour_Asymmetry_Pilot,2022.1.3,Win32,59.74072525,62c50e9c1127f2cd403a315f,,,,,,,,,,,,,,,,,,,,,,,,,,,,,,,,,,,,,,,,,,,,,,,,,,,,,,,,,,,,,,,,,,,,,,,,,,,,,,,,,,,,,,,,,,,,,,,,,,,,,,,,,,,,,,,,,,,,,,,,,,,,,,,,,,,,,,,,,,,,,,,,,,,,,,,,,,,,,,,,,,,
0,63,63,80,1,,61544ec77d9db5f95283802e,62c53a48ac5d8d31fb792f65,2022-07-06_09h36.36.388,Colour_Asymmetry_Pilot,2022.1.3,Win32,59.74072525,62c50e9c1127f2cd403a315f,,,,,,,,,,,,,,,,,,,,,,,,,,,,,,,,,,,,,,,,,,,,,,,,,,,,,,,,,,,,,,,,,,,,,,,,,,,,,,,,,,,,,,,,,,,,,,,,,,,,,,,,,,,,,,,,,,,,,,,,,,,,,,,,,,,,,,,,,,,,,,,,,,,,,,,,,,,,,,,,,,,
0,64,64,53,1,,61544ec77d9db5f95283802e,62c53a48ac5d8d31fb792f65,2022-07-06_09h36.36.388,Colour_Asymmetry_Pilot,2022.1.3,Win32,59.74072525,62c50e9c1127f2cd403a315f,,,,,,,,,,,,,,,,,,,,,,,,,,,,,,,,,,,,,,,,,,,,,,,,,,,,,,,,,,,,,,,,,,,,,,,,,,,,,,,,,,,,,,,,,,,,,,,,,,,,,,,,,,,,,,,,,,,,,,,,,,,,,,,,,,,,,,,,,,,,,,,,,,,,,,,,,,,,,,,,,,,
0,65,65,44,1,,61544ec77d9db5f95283802e,62c53a48ac5d8d31fb792f65,2022-07-06_09h36.36.388,Colour_Asymmetry_Pilot,2022.1.3,Win32,59.74072525,62c50e9c1127f2cd403a315f,,,,,,,,,,,,,,,,,,,,,,,,,,,,,,,,,,,,,,,,,,,,,,,,,,,,,,,,,,,,,,,,,,,,,,,,,,,,,,,,,,,,,,,,,,,,,,,,,,,,,,,,,,,,,,,,,,,,,,,,,,,,,,,,,,,,,,,,,,,,,,,,,,,,,,,,,,,,,,,,,,,
0,66,66,18,1,,61544ec77d9db5f95283802e,62c53a48ac5d8d31fb792f65,2022-07-06_09h36.36.388,Colour_Asymmetry_Pilot,2022.1.3,Win32,59.74072525,62c50e9c1127f2cd403a315f,,,,,,,,,,,,,,,,,,,,,,,,,,,,,,,,,,,,,,,,,,,,,,,,,,,,,,,,,,,,,,,,,,,,,,,,,,,,,,,,,,,,,,,,,,,,,,,,,,,,,,,,,,,,,,,,,,,,,,,,,,,,,,,,,,,,,,,,,,,,,,,,,,,,,,,,,,,,,,,,,,,
0,67,67,58,1,,61544ec77d9db5f95283802e,62c53a48ac5d8d31fb792f65,2022-07-06_09h36.36.388,Colour_Asymmetry_Pilot,2022.1.3,Win32,59.74072525,62c50e9c1127f2cd403a315f,,,,,,,,,,,,,,,,,,,,,,,,,,,,,,,,,,,,,,,,,,,,,,,,,,,,,,,,,,,,,,,,,,,,,,,,,,,,,,,,,,,,,,,,,,,,,,,,,,,,,,,,,,,,,,,,,,,,,,,,,,,,,,,,,,,,,,,,,,,,,,,,,,,,,,,,,,,,,,,,,,,
0,68,68,61,1,,61544ec77d9db5f95283802e,62c53a48ac5d8d31fb792f65,2022-07-06_09h36.36.388,Colour_Asymmetry_Pilot,2022.1.3,Win32,59.74072525,62c50e9c1127f2cd403a315f,,,,,,,,,,,,,,,,,,,,,,,,,,,,,,,,,,,,,,,,,,,,,,,,,,,,,,,,,,,,,,,,,,,,,,,,,,,,,,,,,,,,,,,,,,,,,,,,,,,,,,,,,,,,,,,,,,,,,,,,,,,,,,,,,,,,,,,,,,,,,,,,,,,,,,,,,,,,,,,,,,,
0,69,69,36,1,,61544ec77d9db5f95283802e,62c53a48ac5d8d31fb792f65,2022-07-06_09h36.36.388,Colour_Asymmetry_Pilot,2022.1.3,Win32,59.74072525,62c50e9c1127f2cd403a315f,,,,,,,,,,,,,,,,,,,,,,,,,,,,,,,,,,,,,,,,,,,,,,,,,,,,,,,,,,,,,,,,,,,,,,,,,,,,,,,,,,,,,,,,,,,,,,,,,,,,,,,,,,,,,,,,,,,,,,,,,,,,,,,,,,,,,,,,,,,,,,,,,,,,,,,,,,,,,,,,,,,
0,70,70,43,1,,61544ec77d9db5f95283802e,62c53a48ac5d8d31fb792f65,2022-07-06_09h36.36.388,Colour_Asymmetry_Pilot,2022.1.3,Win32,59.74072525,62c50e9c1127f2cd403a315f,,,,,,,,,,,,,,,,,,,,,,,,,,,,,,,,,,,,,,,,,,,,,,,,,,,,,,,,,,,,,,,,,,,,,,,,,,,,,,,,,,,,,,,,,,,,,,,,,,,,,,,,,,,,,,,,,,,,,,,,,,,,,,,,,,,,,,,,,,,,,,,,,,,,,,,,,,,,,,,,,,,
0,71,71,67,1,,61544ec77d9db5f95283802e,62c53a48ac5d8d31fb792f65,2022-07-06_09h36.36.388,Colour_Asymmetry_Pilot,2022.1.3,Win32,59.74072525,62c50e9c1127f2cd403a315f,,,,,,,,,,,,,,,,,,,,,,,,,,,,,,,,,,,,,,,,,,,,,,,,,,,,,,,,,,,,,,,,,,,,,,,,,,,,,,,,,,,,,,,,,,,,,,,,,,,,,,,,,,,,,,,,,,,,,,,,,,,,,,,,,,,,,,,,,,,,,,,,,,,,,,,,,,,,,,,,,,,
0,72,72,86,1,,61544ec77d9db5f95283802e,62c53a48ac5d8d31fb792f65,2022-07-06_09h36.36.388,Colour_Asymmetry_Pilot,2022.1.3,Win32,59.74072525,62c50e9c1127f2cd403a315f,,,,,,,,,,,,,,,,,,,,,,,,,,,,,,,,,,,,,,,,,,,,,,,,,,,,,,,,,,,,,,,,,,,,,,,,,,,,,,,,,,,,,,,,,,,,,,,,,,,,,,,,,,,,,,,,,,,,,,,,,,,,,,,,,,,,,,,,,,,,,,,,,,,,,,,,,,,,,,,,,,,
0,73,73,1,1,,61544ec77d9db5f95283802e,62c53a48ac5d8d31fb792f65,2022-07-06_09h36.36.388,Colour_Asymmetry_Pilot,2022.1.3,Win32,59.74072525,62c50e9c1127f2cd403a315f,,,,,,,,,,,,,,,,,,,,,,,,,,,,,,,,,,,,,,,,,,,,,,,,,,,,,,,,,,,,,,,,,,,,,,,,,,,,,,,,,,,,,,,,,,,,,,,,,,,,,,,,,,,,,,,,,,,,,,,,,,,,,,,,,,,,,,,,,,,,,,,,,,,,,,,,,,,,,,,,,,,
0,74,74,41,1,,61544ec77d9db5f95283802e,62c53a48ac5d8d31fb792f65,2022-07-06_09h36.36.388,Colour_Asymmetry_Pilot,2022.1.3,Win32,59.74072525,62c50e9c1127f2cd403a315f,,,,,,,,,,,,,,,,,,,,,,,,,,,,,,,,,,,,,,,,,,,,,,,,,,,,,,,,,,,,,,,,,,,,,,,,,,,,,,,,,,,,,,,,,,,,,,,,,,,,,,,,,,,,,,,,,,,,,,,,,,,,,,,,,,,,,,,,,,,,,,,,,,,,,,,,,,,,,,,,,,,
0,75,75,91,1,,61544ec77d9db5f95283802e,62c53a48ac5d8d31fb792f65,2022-07-06_09h36.36.388,Colour_Asymmetry_Pilot,2022.1.3,Win32,59.74072525,62c50e9c1127f2cd403a315f,,,,,,,,,,,,,,,,,,,,,,,,,,,,,,,,,,,,,,,,,,,,,,,,,,,,,,,,,,,,,,,,,,,,,,,,,,,,,,,,,,,,,,,,,,,,,,,,,,,,,,,,,,,,,,,,,,,,,,,,,,,,,,,,,,,,,,,,,,,,,,,,,,,,,,,,,,,,,,,,,,,
0,76,76,22,1,,61544ec77d9db5f95283802e,62c53a48ac5d8d31fb792f65,2022-07-06_09h36.36.388,Colour_Asymmetry_Pilot,2022.1.3,Win32,59.74072525,62c50e9c1127f2cd403a315f,,,,,,,,,,,,,,,,,,,,,,,,,,,,,,,,,,,,,,,,,,,,,,,,,,,,,,,,,,,,,,,,,,,,,,,,,,,,,,,,,,,,,,,,,,,,,,,,,,,,,,,,,,,,,,,,,,,,,,,,,,,,,,,,,,,,,,,,,,,,,,,,,,,,,,,,,,,,,,,,,,,
0,77,77,89,1,,61544ec77d9db5f95283802e,62c53a48ac5d8d31fb792f65,2022-07-06_09h36.36.388,Colour_Asymmetry_Pilot,2022.1.3,Win32,59.74072525,62c50e9c1127f2cd403a315f,,,,,,,,,,,,,,,,,,,,,,,,,,,,,,,,,,,,,,,,,,,,,,,,,,,,,,,,,,,,,,,,,,,,,,,,,,,,,,,,,,,,,,,,,,,,,,,,,,,,,,,,,,,,,,,,,,,,,,,,,,,,,,,,,,,,,,,,,,,,,,,,,,,,,,,,,,,,,,,,,,,
0,78,78,19,1,,61544ec77d9db5f95283802e,62c53a48ac5d8d31fb792f65,2022-07-06_09h36.36.388,Colour_Asymmetry_Pilot,2022.1.3,Win32,59.74072525,62c50e9c1127f2cd403a315f,,,,,,,,,,,,,,,,,,,,,,,,,,,,,,,,,,,,,,,,,,,,,,,,,,,,,,,,,,,,,,,,,,,,,,,,,,,,,,,,,,,,,,,,,,,,,,,,,,,,,,,,,,,,,,,,,,,,,,,,,,,,,,,,,,,,,,,,,,,,,,,,,,,,,,,,,,,,,,,,,,,
0,79,79,15,1,,61544ec77d9db5f95283802e,62c53a48ac5d8d31fb792f65,2022-07-06_09h36.36.388,Colour_Asymmetry_Pilot,2022.1.3,Win32,59.74072525,62c50e9c1127f2cd403a315f,,,,,,,,,,,,,,,,,,,,,,,,,,,,,,,,,,,,,,,,,,,,,,,,,,,,,,,,,,,,,,,,,,,,,,,,,,,,,,,,,,,,,,,,,,,,,,,,,,,,,,,,,,,,,,,,,,,,,,,,,,,,,,,,,,,,,,,,,,,,,,,,,,,,,,,,,,,,,,,,,,,
0,80,80,9,1,,61544ec77d9db5f95283802e,62c53a48ac5d8d31fb792f65,2022-07-06_09h36.36.388,Colour_Asymmetry_Pilot,2022.1.3,Win32,59.74072525,62c50e9c1127f2cd403a315f,,,,,,,,,,,,,,,,,,,,,,,,,,,,,,,,,,,,,,,,,,,,,,,,,,,,,,,,,,,,,,,,,,,,,,,,,,,,,,,,,,,,,,,,,,,,,,,,,,,,,,,,,,,,,,,,,,,,,,,,,,,,,,,,,,,,,,,,,,,,,,,,,,,,,,,,,,,,,,,,,,,
0,81,81,63,1,,61544ec77d9db5f95283802e,62c53a48ac5d8d31fb792f65,2022-07-06_09h36.36.388,Colour_Asymmetry_Pilot,2022.1.3,Win32,59.74072525,62c50e9c1127f2cd403a315f,,,,,,,,,,,,,,,,,,,,,,,,,,,,,,,,,,,,,,,,,,,,,,,,,,,,,,,,,,,,,,,,,,,,,,,,,,,,,,,,,,,,,,,,,,,,,,,,,,,,,,,,,,,,,,,,,,,,,,,,,,,,,,,,,,,,,,,,,,,,,,,,,,,,,,,,,,,,,,,,,,,
0,82,82,81,1,,61544ec77d9db5f95283802e,62c53a48ac5d8d31fb792f65,2022-07-06_09h36.36.388,Colour_Asymmetry_Pilot,2022.1.3,Win32,59.74072525,62c50e9c1127f2cd403a315f,,,,,,,,,,,,,,,,,,,,,,,,,,,,,,,,,,,,,,,,,,,,,,,,,,,,,,,,,,,,,,,,,,,,,,,,,,,,,,,,,,,,,,,,,,,,,,,,,,,,,,,,,,,,,,,,,,,,,,,,,,,,,,,,,,,,,,,,,,,,,,,,,,,,,,,,,,,,,,,,,,,
0,83,83,78,1,,61544ec77d9db5f95283802e,62c53a48ac5d8d31fb792f65,2022-07-06_09h36.36.388,Colour_Asymmetry_Pilot,2022.1.3,Win32,59.74072525,62c50e9c1127f2cd403a315f,,,,,,,,,,,,,,,,,,,,,,,,,,,,,,,,,,,,,,,,,,,,,,,,,,,,,,,,,,,,,,,,,,,,,,,,,,,,,,,,,,,,,,,,,,,,,,,,,,,,,,,,,,,,,,,,,,,,,,,,,,,,,,,,,,,,,,,,,,,,,,,,,,,,,,,,,,,,,,,,,,,
0,84,84,68,1,,61544ec77d9db5f95283802e,62c53a48ac5d8d31fb792f65,2022-07-06_09h36.36.388,Colour_Asymmetry_Pilot,2022.1.3,Win32,59.74072525,62c50e9c1127f2cd403a315f,,,,,,,,,,,,,,,,,,,,,,,,,,,,,,,,,,,,,,,,,,,,,,,,,,,,,,,,,,,,,,,,,,,,,,,,,,,,,,,,,,,,,,,,,,,,,,,,,,,,,,,,,,,,,,,,,,,,,,,,,,,,,,,,,,,,,,,,,,,,,,,,,,,,,,,,,,,,,,,,,,,
0,85,85,17,1,,61544ec77d9db5f95283802e,62c53a48ac5d8d31fb792f65,2022-07-06_09h36.36.388,Colour_Asymmetry_Pilot,2022.1.3,Win32,59.74072525,62c50e9c1127f2cd403a315f,,,,,,,,,,,,,,,,,,,,,,,,,,,,,,,,,,,,,,,,,,,,,,,,,,,,,,,,,,,,,,,,,,,,,,,,,,,,,,,,,,,,,,,,,,,,,,,,,,,,,,,,,,,,,,,,,,,,,,,,,,,,,,,,,,,,,,,,,,,,,,,,,,,,,,,,,,,,,,,,,,,
0,86,86,40,1,,61544ec77d9db5f95283802e,62c53a48ac5d8d31fb792f65,2022-07-06_09h36.36.388,Colour_Asymmetry_Pilot,2022.1.3,Win32,59.74072525,62c50e9c1127f2cd403a315f,,,,,,,,,,,,,,,,,,,,,,,,,,,,,,,,,,,,,,,,,,,,,,,,,,,,,,,,,,,,,,,,,,,,,,,,,,,,,,,,,,,,,,,,,,,,,,,,,,,,,,,,,,,,,,,,,,,,,,,,,,,,,,,,,,,,,,,,,,,,,,,,,,,,,,,,,,,,,,,,,,,
0,87,87,26,1,,61544ec77d9db5f95283802e,62c53a48ac5d8d31fb792f65,2022-07-06_09h36.36.388,Colour_Asymmetry_Pilot,2022.1.3,Win32,59.74072525,62c50e9c1127f2cd403a315f,,,,,,,,,,,,,,,,,,,,,,,,,,,,,,,,,,,,,,,,,,,,,,,,,,,,,,,,,,,,,,,,,,,,,,,,,,,,,,,,,,,,,,,,,,,,,,,,,,,,,,,,,,,,,,,,,,,,,,,,,,,,,,,,,,,,,,,,,,,,,,,,,,,,,,,,,,,,,,,,,,,
0,88,88,6,1,,61544ec77d9db5f95283802e,62c53a48ac5d8d31fb792f65,2022-07-06_09h36.36.388,Colour_Asymmetry_Pilot,2022.1.3,Win32,59.74072525,62c50e9c1127f2cd403a315f,,,,,,,,,,,,,,,,,,,,,,,,,,,,,,,,,,,,,,,,,,,,,,,,,,,,,,,,,,,,,,,,,,,,,,,,,,,,,,,,,,,,,,,,,,,,,,,,,,,,,,,,,,,,,,,,,,,,,,,,,,,,,,,,,,,,,,,,,,,,,,,,,,,,,,,,,,,,,,,,,,,
0,89,89,69,1,,61544ec77d9db5f95283802e,62c53a48ac5d8d31fb792f65,2022-07-06_09h36.36.388,Colour_Asymmetry_Pilot,2022.1.3,Win32,59.74072525,62c50e9c1127f2cd403a315f,,,,,,,,,,,,,,,,,,,,,,,,,,,,,,,,,,,,,,,,,,,,,,,,,,,,,,,,,,,,,,,,,,,,,,,,,,,,,,,,,,,,,,,,,,,,,,,,,,,,,,,,,,,,,,,,,,,,,,,,,,,,,,,,,,,,,,,,,,,,,,,,,,,,,,,,,,,,,,,,,,,
0,90,90,87,1,,61544ec77d9db5f95283802e,62c53a48ac5d8d31fb792f65,2022-07-06_09h36.36.388,Colour_Asymmetry_Pilot,2022.1.3,Win32,59.74072525,62c50e9c1127f2cd403a315f,,,,,,,,,,,,,,,,,,,,,,,,,,,,,,,,,,,,,,,,,,,,,,,,,,,,,,,,,,,,,,,,,,,,,,,,,,,,,,,,,,,,,,,,,,,,,,,,,,,,,,,,,,,,,,,,,,,,,,,,,,,,,,,,,,,,,,,,,,,,,,,,,,,,,,,,,,,,,,,,,,,
0,91,91,3,1,,61544ec77d9db5f95283802e,62c53a48ac5d8d31fb792f65,2022-07-06_09h36.36.388,Colour_Asymmetry_Pilot,2022.1.3,Win32,59.74072525,62c50e9c1127f2cd403a315f,,,,,,,,,,,,,,,,,,,,,,,,,,,,,,,,,,,,,,,,,,,,,,,,,,,,,,,,,,,,,,,,,,,,,,,,,,,,,,,,,,,,,,,,,,,,,,,,,,,,,,,,,,,,,,,,,,,,,,,,,,,,,,,,,,,,,,,,,,,,,,,,,,,,,,,,,,,,,,,,,,,
0,92,92,56,1,,61544ec77d9db5f95283802e,62c53a48ac5d8d31fb792f65,2022-07-06_09h36.36.388,Colour_Asymmetry_Pilot,2022.1.3,Win32,59.74072525,62c50e9c1127f2cd403a315f,,,,,,,,,,,,,,,,,,,,,,,,,,,,,,,,,,,,,,,,,,,,,,,,,,,,,,,,,,,,,,,,,,,,,,,,,,,,,,,,,,,,,,,,,,,,,,,,,,,,,,,,,,,,,,,,,,,,,,,,,,,,,,,,,,,,,,,,,,,,,,,,,,,,,,,,,,,,,,,,,,,
,,,,,,61544ec77d9db5f95283802e,62c53a48ac5d8d31fb792f65,2022-07-06_09h36.36.388,Colour_Asymmetry_Pilot,2022.1.3,Win32,59.74072525,62c50e9c1127f2cd403a315f,0,0,0,76,1,threeone,,,,,,,,,,,,,,,,,,,,,,,,,,,,,,,,,,,,,,,,,,,,,,,,,,,,,,,,,,,,,,,,,,,,,,,,,,,,,,,,,,,,,,,,,,,,,,,,,,,,,,,,,,,,,,,,,,,,,,,,,,,,,,,,,,,,,,,,,,,,,,,,,,,,,,,,,,,,,
,,,,,,61544ec77d9db5f95283802e,62c53a48ac5d8d31fb792f65,2022-07-06_09h36.36.388,Colour_Asymmetry_Pilot,2022.1.3,Win32,59.74072525,62c50e9c1127f2cd403a315f,0,1,1,35,1,twofour,,,,,,,,,,,,,,,,,,,,,,,,,,,,,,,,,,,,,,,,,,,,,,,,,,,,,,,,,,,,,,,,,,,,,,,,,,,,,,,,,,,,,,,,,,,,,,,,,,,,,,,,,,,,,,,,,,,,,,,,,,,,,,,,,,,,,,,,,,,,,,,,,,,,,,,,,,,,,
,,,,,,61544ec77d9db5f95283802e,62c53a48ac5d8d31fb792f65,2022-07-06_09h36.36.388,Colour_Asymmetry_Pilot,2022.1.3,Win32,59.74072525,62c50e9c1127f2cd403a315f,0,2,2,130,1,twoone,,,,,,,,,,,,,,,,,,,,,,,,,,,,,,,,,,,,,,,,,,,,,,,,,,,,,,,,,,,,,,,,,,,,,,,,,,,,,,,,,,,,,,,,,,,,,,,,,,,,,,,,,,,,,,,,,,,,,,,,,,,,,,,,,,,,,,,,,,,,,,,,,,,,,,,,,,,,,
,,,,,,61544ec77d9db5f95283802e,62c53a48ac5d8d31fb792f65,2022-07-06_09h36.36.388,Colour_Asymmetry_Pilot,2022.1.3,Win32,59.74072525,62c50e9c1127f2cd403a315f,0,3,3,156,1,threeone,,,,,,,,,,,,,,,,,,,,,,,,,,,,,,,,,,,,,,,,,,,,,,,,,,,,,,,,,,,,,,,,,,,,,,,,,,,,,,,,,,,,,,,,,,,,,,,,,,,,,,,,,,,,,,,,,,,,,,,,,,,,,,,,,,,,,,,,,,,,,,,,,,,,,,,,,,,,,
,,,,,,61544ec77d9db5f95283802e,62c53a48ac5d8d31fb792f65,2022-07-06_09h36.36.388,Colour_Asymmetry_Pilot,2022.1.3,Win32,59.74072525,62c50e9c1127f2cd403a315f,0,4,4,109,1,threefour,,,,,,,,,,,,,,,,,,,,,,,,,,,,,,,,,,,,,,,,,,,,,,,,,,,,,,,,,,,,,,,,,,,,,,,,,,,,,,,,,,,,,,,,,,,,,,,,,,,,,,,,,,,,,,,,,,,,,,,,,,,,,,,,,,,,,,,,,,,,,,,,,,,,,,,,,,,,,
,,,,,,61544ec77d9db5f95283802e,62c53a48ac5d8d31fb792f65,2022-07-06_09h36.36.388,Colour_Asymmetry_Pilot,2022.1.3,Win32,59.74072525,62c50e9c1127f2cd403a315f,0,5,5,67,1,twofour,,,,,,,,,,,,,,,,,,,,,,,,,,,,,,,,,,,,,,,,,,,,,,,,,,,,,,,,,,,,,,,,,,,,,,,,,,,,,,,,,,,,,,,,,,,,,,,,,,,,,,,,,,,,,,,,,,,,,,,,,,,,,,,,,,,,,,,,,,,,,,,,,,,,,,,,,,,,,
,,,,,,61544ec77d9db5f95283802e,62c53a48ac5d8d31fb792f65,2022-07-06_09h36.36.388,Colour_Asymmetry_Pilot,2022.1.3,Win32,59.74072525,62c50e9c1127f2cd403a315f,0,6,6,62,1,fourtwo,,,,,,,,,,,,,,,,,,,,,,,,,,,,,,,,,,,,,,,,,,,,,,,,,,,,,,,,,,,,,,,,,,,,,,,,,,,,,,,,,,,,,,,,,,,,,,,,,,,,,,,,,,,,,,,,,,,,,,,,,,,,,,,,,,,,,,,,,,,,,,,,,,,,,,,,,,,,,
,,,,,,61544ec77d9db5f95283802e,62c53a48ac5d8d31fb792f65,2022-07-06_09h36.36.388,Colour_Asymmetry_Pilot,2022.1.3,Win32,59.74072525,62c50e9c1127f2cd403a315f,0,7,7,144,1,onetwo,,,,,,,,,,,,,,,,,,,,,,,,,,,,,,,,,,,,,,,,,,,,,,,,,,,,,,,,,,,,,,,,,,,,,,,,,,,,,,,,,,,,,,,,,,,,,,,,,,,,,,,,,,,,,,,,,,,,,,,,,,,,,,,,,,,,,,,,,,,,,,,,,,,,,,,,,,,,,
,,,,,,61544ec77d9db5f95283802e,62c53a48ac5d8d31fb792f65,2022-07-06_09h36.36.388,Colour_Asymmetry_Pilot,2022.1.3,Win32,59.74072525,62c50e9c1127f2cd403a315f,0,8,8,40,1,onetwo,,,,,,,,,,,,,,,,,,,,,,,,,,,,,,,,,,,,,,,,,,,,,,,,,,,,,,,,,,,,,,,,,,,,,,,,,,,,,,,,,,,,,,,,,,,,,,,,,,,,,,,,,,,,,,,,,,,,,,,,,,,,,,,,,,,,,,,,,,,,,,,,,,,,,,,,,,,,,
,,,,,,61544ec77d9db5f95283802e,62c53a48ac5d8d31fb792f65,2022-07-06_09h36.36.388,Colour_Asymmetry_Pilot,2022.1.3,Win32,59.74072525,62c50e9c1127f2cd403a315f,0,9,9,138,1,twoone,,,,,,,,,,,,,,,,,,,,,,,,,,,,,,,,,,,,,,,,,,,,,,,,,,,,,,,,,,,,,,,,,,,,,,,,,,,,,,,,,,,,,,,,,,,,,,,,,,,,,,,,,,,,,,,,,,,,,,,,,,,,,,,,,,,,,,,,,,,,,,,,,,,,,,,,,,,,,
,,,,,,61544ec77d9db5f95283802e,62c53a48ac5d8d31fb792f65,2022-07-06_09h36.36.388,Colour_Asymmetry_Pilot,2022.1.3,Win32,59.74072525,62c50e9c1127f2cd403a315f,0,10,10,27,1,twofour,,,,,,,,,,,,,,,,,,,,,,,,,,,,,,,,,,,,,,,,,,,,,,,,,,,,,,,,,,,,,,,,,,,,,,,,,,,,,,,,,,,,,,,,,,,,,,,,,,,,,,,,,,,,,,,,,,,,,,,,,,,,,,,,,,,,,,,,,,,,,,,,,,,,,,,,,,,,,
,,,,,,61544ec77d9db5f95283802e,62c53a48ac5d8d31fb792f65,2022-07-06_09h36.36.388,Colour_Asymmetry_Pilot,2022.1.3,Win32,59.74072525,62c50e9c1127f2cd403a315f,0,11,11,86,1,fourtwo,,,,,,,,,,,,,,,,,,,,,,,,,,,,,,,,,,,,,,,,,,,,,,,,,,,,,,,,,,,,,,,,,,,,,,,,,,,,,,,,,,,,,,,,,,,,,,,,,,,,,,,,,,,,,,,,,,,,,,,,,,,,,,,,,,,,,,,,,,,,,,,,,,,,,,,,,,,,,
,,,,,,61544ec77d9db5f95283802e,62c53a48ac5d8d31fb792f65,2022-07-06_09h36.36.388,Colour_Asymmetry_Pilot,2022.1.3,Win32,59.74072525,62c50e9c1127f2cd403a315f,0,12,12,31,1,fourthree,,,,,,,,,,,,,,,,,,,,,,,,,,,,,,,,,,,,,,,,,,,,,,,,,,,,,,,,,,,,,,,,,,,,,,,,,,,,,,,,,,,,,,,,,,,,,,,,,,,,,,,,,,,,,,,,,,,,,,,,,,,,,,,,,,,,,,,,,,,,,,,,,,,,,,,,,,,,,
,,,,,,61544ec77d9db5f95283802e,62c53a48ac5d8d31fb792f65,2022-07-06_09h36.36.388,Colour_Asymmetry_Pilot,2022.1.3,Win32,59.74072525,62c50e9c1127f2cd403a315f,0,13,13,106,1,twoone,,,,,,,,,,,,,,,,,,,,,,,,,,,,,,,,,,,,,,,,,,,,,,,,,,,,,,,,,,,,,,,,,,,,,,,,,,,,,,,,,,,,,,,,,,,,,,,,,,,,,,,,,,,,,,,,,,,,,,,,,,,,,,,,,,,,,,,,,,,,,,,,,,,,,,,,,,,,,
,,,,,,61544ec77d9db5f95283802e,62c53a48ac5d8d31fb792f65,2022-07-06_09h36.36.388,Colour_Asymmetry_Pilot,2022.1.3,Win32,59.74072525,62c50e9c1127f2cd403a315f,0,14,14,13,1,threefour,,,,,,,,,,,,,,,,,,,,,,,,,,,,,,,,,,,,,,,,,,,,,,,,,,,,,,,,,,,,,,,,,,,,,,,,,,,,,,,,,,,,,,,,,,,,,,,,,,,,,,,,,,,,,,,,,,,,,,,,,,,,,,,,,,,,,,,,,,,,,,,,,,,,,,,,,,,,,
,,,,,,61544ec77d9db5f95283802e,62c53a48ac5d8d31fb792f65,2022-07-06_09h36.36.388,Colour_Asymmetry_Pilot,2022.1.3,Win32,59.74072525,62c50e9c1127f2cd403a315f,0,15,15,97,1,onethree,,,,,,,,,,,,,,,,,,,,,,,,,,,,,,,,,,,,,,,,,,,,,,,,,,,,,,,,,,,,,,,,,,,,,,,,,,,,,,,,,,,,,,,,,,,,,,,,,,,,,,,,,,,,,,,,,,,,,,,,,,,,,,,,,,,,,,,,,,,,,,,,,,,,,,,,,,,,,
,,,,,,61544ec77d9db5f95283802e,62c53a48ac5d8d31fb792f65,2022-07-06_09h36.36.388,Colour_Asymmetry_Pilot,2022.1.3,Win32,59.74072525,62c50e9c1127f2cd403a315f,0,16,16,42,1,twoone,,,,,,,,,,,,,,,,,,,,,,,,,,,,,,,,,,,,,,,,,,,,,,,,,,,,,,,,,,,,,,,,,,,,,,,,,,,,,,,,,,,,,,,,,,,,,,,,,,,,,,,,,,,,,,,,,,,,,,,,,,,,,,,,,,,,,,,,,,,,,,,,,,,,,,,,,,,,,
,,,,,,61544ec77d9db5f95283802e,62c53a48ac5d8d31fb792f65,2022-07-06_09h36.36.388,Colour_Asymmetry_Pilot,2022.1.3,Win32,59.74072525,62c50e9c1127f2cd403a315f,0,17,17,78,1,fourtwo,,,,,,,,,,,,,,,,,,,,,,,,,,,,,,,,,,,,,,,,,,,,,,,,,,,,,,,,,,,,,,,,,,,,,,,,,,,,,,,,,,,,,,,,,,,,,,,,,,,,,,,,,,,,,,,,,,,,,,,,,,,,,,,,,,,,,,,,,,,,,,,,,,,,,,,,,,,,,
,,,,,,61544ec77d9db5f95283802e,62c53a48ac5d8d31fb792f65,2022-07-06_09h36.36.388,Colour_Asymmetry_Pilot,2022.1.3,Win32,59.74072525,62c50e9c1127f2cd403a315f,0,18,18,50,1,twoone,,,,,,,,,,,,,,,,,,,,,,,,,,,,,,,,,,,,,,,,,,,,,,,,,,,,,,,,,,,,,,,,,,,,,,,,,,,,,,,,,,,,,,,,,,,,,,,,,,,,,,,,,,,,,,,,,,,,,,,,,,,,,,,,,,,,,,,,,,,,,,,,,,,,,,,,,,,,,
,,,,,,61544ec77d9db5f95283802e,62c53a48ac5d8d31fb792f65,2022-07-06_09h36.36.388,Colour_Asymmetry_Pilot,2022.1.3,Win32,59.74072525,62c50e9c1127f2cd403a315f,0,19,19,98,1,twoone,,,,,,,,,,,,,,,,,,,,,,,,,,,,,,,,,,,,,,,,,,,,,,,,,,,,,,,,,,,,,,,,,,,,,,,,,,,,,,,,,,,,,,,,,,,,,,,,,,,,,,,,,,,,,,,,,,,,,,,,,,,,,,,,,,,,,,,,,,,,,,,,,,,,,,,,,,,,,
,,,,,,61544ec77d9db5f95283802e,62c53a48ac5d8d31fb792f65,2022-07-06_09h36.36.388,Colour_Asymmetry_Pilot,2022.1.3,Win32,59.74072525,62c50e9c1127f2cd403a315f,0,20,20,21,1,threefour,,,,,,,,,,,,,,,,,,,,,,,,,,,,,,,,,,,,,,,,,,,,,,,,,,,,,,,,,,,,,,,,,,,,,,,,,,,,,,,,,,,,,,,,,,,,,,,,,,,,,,,,,,,,,,,,,,,,,,,,,,,,,,,,,,,,,,,,,,,,,,,,,,,,,,,,,,,,,
,,,,,,61544ec77d9db5f95283802e,62c53a48ac5d8d31fb792f65,2022-07-06_09h36.36.388,Colour_Asymmetry_Pilot,2022.1.3,Win32,59.74072525,62c50e9c1127f2cd403a315f,0,21,21,49,1,onethree,,,,,,,,,,,,,,,,,,,,,,,,,,,,,,,,,,,,,,,,,,,,,,,,,,,,,,,,,,,,,,,,,,,,,,,,,,,,,,,,,,,,,,,,,,,,,,,,,,,,,,,,,,,,,,,,,,,,,,,,,,,,,,,,,,,,,,,,,,,,,,,,,,,,,,,,,,,,,
,,,,,,61544ec77d9db5f95283802e,62c53a48ac5d8d31fb792f65,2022-07-06_09h36.36.388,Colour_Asymmetry_Pilot,2022.1.3,Win32,59.74072525,62c50e9c1127f2cd403a315f,0,22,22,153,1,onethree,,,,,,,,,,,,,,,,,,,,,,,,,,,,,,,,,,,,,,,,,,,,,,,,,,,,,,,,,,,,,,,,,,,,,,,,,,,,,,,,,,,,,,,,,,,,,,,,,,,,,,,,,,,,,,,,,,,,,,,,,,,,,,,,,,,,,,,,,,,,,,,,,,,,,,,,,,,,,
,,,,,,61544ec77d9db5f95283802e,62c53a48ac5d8d31fb792f65,2022-07-06_09h36.36.388,Colour_Asymmetry_Pilot,2022.1.3,Win32,59.74072525,62c50e9c1127f2cd403a315f,0,23,23,161,1,onethree,,,,,,,,,,,,,,,,,,,,,,,,,,,,,,,,,,,,,,,,,,,,,,,,,,,,,,,,,,,,,,,,,,,,,,,,,,,,,,,,,,,,,,,,,,,,,,,,,,,,,,,,,,,,,,,,,,,,,,,,,,,,,,,,,,,,,,,,,,,,,,,,,,,,,,,,,,,,,
,,,,,,61544ec77d9db5f95283802e,62c53a48ac5d8d31fb792f65,2022-07-06_09h36.36.388,Colour_Asymmetry_Pilot,2022.1.3,Win32,59.74072525,62c50e9c1127f2cd403a315f,0,24,24,113,1,onethree,,,,,,,,,,,,,,,,,,,,,,,,,,,,,,,,,,,,,,,,,,,,,,,,,,,,,,,,,,,,,,,,,,,,,,,,,,,,,,,,,,,,,,,,,,,,,,,,,,,,,,,,,,,,,,,,,,,,,,,,,,,,,,,,,,,,,,,,,,,,,,,,,,,,,,,,,,,,,
,,,,,,61544ec77d9db5f95283802e,62c53a48ac5d8d31fb792f65,2022-07-06_09h36.36.388,Colour_Asymmetry_Pilot,2022.1.3,Win32,59.74072525,62c50e9c1127f2cd403a315f,0,25,25,73,1,onethree,,,,,,,,,,,,,,,,,,,,,,,,,,,,,,,,,,,,,,,,,,,,,,,,,,,,,,,,,,,,,,,,,,,,,,,,,,,,,,,,,,,,,,,,,,,,,,,,,,,,,,,,,,,,,,,,,,,,,,,,,,,,,,,,,,,,,,,,,,,,,,,,,,,,,,,,,,,,,
,,,,,,61544ec77d9db5f95283802e,62c53a48ac5d8d31fb792f65,2022-07-06_09h36.36.388,Colour_Asymmetry_Pilot,2022.1.3,Win32,59.74072525,62c50e9c1127f2cd403a315f,0,26,26,48,1,onetwo,,,,,,,,,,,,,,,,,,,,,,,,,,,,,,,,,,,,,,,,,,,,,,,,,,,,,,,,,,,,,,,,,,,,,,,,,,,,,,,,,,,,,,,,,,,,,,,,,,,,,,,,,,,,,,,,,,,,,,,,,,,,,,,,,,,,,,,,,,,,,,,,,,,,,,,,,,,,,
,,,,,,61544ec77d9db5f95283802e,62c53a48ac5d8d31fb792f65,2022-07-06_09h36.36.388,Colour_Asymmetry_Pilot,2022.1.3,Win32,59.74072525,62c50e9c1127f2cd403a315f,0,27,27,84,1,threeone,,,,,,,,,,,,,,,,,,,,,,,,,,,,,,,,,,,,,,,,,,,,,,,,,,,,,,,,,,,,,,,,,,,,,,,,,,,,,,,,,,,,,,,,,,,,,,,,,,,,,,,,,,,,,,,,,,,,,,,,,,,,,,,,,,,,,,,,,,,,,,,,,,,,,,,,,,,,,
,,,,,,61544ec77d9db5f95283802e,62c53a48ac5d8d31fb792f65,2022-07-06_09h36.36.388,Colour_Asymmetry_Pilot,2022.1.3,Win32,59.74072525,62c50e9c1127f2cd403a315f,0,28,28,58,1,twoone,,,,,,,,,,,,,,,,,,,,,,,,,,,,,,,,,,,,,,,,,,,,,,,,,,,,,,,,,,,,,,,,,,,,,,,,,,,,,,,,,,,,,,,,,,,,,,,,,,,,,,,,,,,,,,,,,,,,,,,,,,,,,,,,,,,,,,,,,,,,,,,,,,,,,,,,,,,,,
,,,,,,61544ec77d9db5f95283802e,62c53a48ac5d8d31fb792f65,2022-07-06_09h36.36.388,Colour_Asymmetry_Pilot,2022.1.3,Win32,59.74072525,62c50e9c1127f2cd403a315f,0,29,29,75,1,twofour,,,,,,,,,,,,,,,,,,,,,,,,,,,,,,,,,,,,,,,,,,,,,,,,,,,,,,,,,,,,,,,,,,,,,,,,,,,,,,,,,,,,,,,,,,,,,,,,,,,,,,,,,,,,,,,,,,,,,,,,,,,,,,,,,,,,,,,,,,,,,,,,,,,,,,,,,,,,,
,,,,,,61544ec77d9db5f95283802e,62c53a48ac5d8d31fb792f65,2022-07-06_09h36.36.388,Colour_Asymmetry_Pilot,2022.1.3,Win32,59.74072525,62c50e9c1127f2cd403a315f,0,30,30,110,1,fourtwo,,,,,,,,,,,,,,,,,,,,,,,,,,,,,,,,,,,,,,,,,,,,,,,,,,,,,,,,,,,,,,,,,,,,,,,,,,,,,,,,,,,,,,,,,,,,,,,,,,,,,,,,,,,,,,,,,,,,,,,,,,,,,,,,,,,,,,,,,,,,,,,,,,,,,,,,,,,,,
,,,,,,61544ec77d9db5f95283802e,62c53a48ac5d8d31fb792f65,2022-07-06_09h36.36.388,Colour_Asymmetry_Pilot,2022.1.3,Win32,59.74072525,62c50e9c1127f2cd403a315f,0,31,31,47,1,fourthree,,,,,,,,,,,,,,,,,,,,,,,,,,,,,,,,,,,,,,,,,,,,,,,,,,,,,,,,,,,,,,,,,,,,,,,,,,,,,,,,,,,,,,,,,,,,,,,,,,,,,,,,,,,,,,,,,,,,,,,,,,,,,,,,,,,,,,,,,,,,,,,,,,,,,,,,,,,,,
,,,,,,61544ec77d9db5f95283802e,62c53a48ac5d8d31fb792f65,2022-07-06_09h36.36.388,Colour_Asymmetry_Pilot,2022.1.3,Win32,59.74072525,62c50e9c1127f2cd403a315f,0,32,32,72,1,onetwo,,,,,,,,,,,,,,,,,,,,,,,,,,,,,,,,,,,,,,,,,,,,,,,,,,,,,,,,,,,,,,,,,,,,,,,,,,,,,,,,,,,,,,,,,,,,,,,,,,,,,,,,,,,,,,,,,,,,,,,,,,,,,,,,,,,,,,,,,,,,,,,,,,,,,,,,,,,,,
,,,,,,61544ec77d9db5f95283802e,62c53a48ac5d8d31fb792f65,2022-07-06_09h36.36.388,Colour_Asymmetry_Pilot,2022.1.3,Win32,59.74072525,62c50e9c1127f2cd403a315f,0,33,33,152,1,onetwo,,,,,,,,,,,,,,,,,,,,,,,,,,,,,,,,,,,,,,,,,,,,,,,,,,,,,,,,,,,,,,,,,,,,,,,,,,,,,,,,,,,,,,,,,,,,,,,,,,,,,,,,,,,,,,,,,,,,,,,,,,,,,,,,,,,,,,,,,,,,,,,,,,,,,,,,,,,,,
,,,,,,61544ec77d9db5f95283802e,62c53a48ac5d8d31fb792f65,2022-07-06_09h36.36.388,Colour_Asymmetry_Pilot,2022.1.3,Win32,59.74072525,62c50e9c1127f2cd403a315f,0,34,34,24,1,onetwo,,,,,,,,,,,,,,,,,,,,,,,,,,,,,,,,,,,,,,,,,,,,,,,,,,,,,,,,,,,,,,,,,,,,,,,,,,,,,,,,,,,,,,,,,,,,,,,,,,,,,,,,,,,,,,,,,,,,,,,,,,,,,,,,,,,,,,,,,,,,,,,,,,,,,,,,,,,,,
,,,,,,61544ec77d9db5f95283802e,62c53a48ac5d8d31fb792f65,2022-07-06_09h36.36.388,Colour_Asymmetry_Pilot,2022.1.3,Win32,59.74072525,62c50e9c1127f2cd403a315f,0,35,35,57,1,onethree,,,,,,,,,,,,,,,,,,,,,,,,,,,,,,,,,,,,,,,,,,,,,,,,,,,,,,,,,,,,,,,,,,,,,,,,,,,,,,,,,,,,,,,,,,,,,,,,,,,,,,,,,,,,,,,,,,,,,,,,,,,,,,,,,,,,,,,,,,,,,,,,,,,,,,,,,,,,,
,,,,,,61544ec77d9db5f95283802e,62c53a48ac5d8d31fb792f65,2022-07-06_09h36.36.388,Colour_Asymmetry_Pilot,2022.1.3,Win32,59.74072525,62c50e9c1127f2cd403a315f,0,36,36,116,1,threeone,,,,,,,,,,,,,,,,,,,,,,,,,,,,,,,,,,,,,,,,,,,,,,,,,,,,,,,,,,,,,,,,,,,,,,,,,,,,,,,,,,,,,,,,,,,,,,,,,,,,,,,,,,,,,,,,,,,,,,,,,,,,,,,,,,,,,,,,,,,,,,,,,,,,,,,,,,,,,
,,,,,,61544ec77d9db5f95283802e,62c53a48ac5d8d31fb792f65,2022-07-06_09h36.36.388,Colour_Asymmetry_Pilot,2022.1.3,Win32,59.74072525,62c50e9c1127f2cd403a315f,0,37,37,69,1,threefour,,,,,,,,,,,,,,,,,,,,,,,,,,,,,,,,,,,,,,,,,,,,,,,,,,,,,,,,,,,,,,,,,,,,,,,,,,,,,,,,,,,,,,,,,,,,,,,,,,,,,,,,,,,,,,,,,,,,,,,,,,,,,,,,,,,,,,,,,,,,,,,,,,,,,,,,,,,,,
,,,,,,61544ec77d9db5f95283802e,62c53a48ac5d8d31fb792f65,2022-07-06_09h36.36.388,Colour_Asymmetry_Pilot,2022.1.3,Win32,59.74072525,62c50e9c1127f2cd403a315f,0,38,38,66,1,twoone,,,,,,,,,,,,,,,,,,,,,,,,,,,,,,,,,,,,,,,,,,,,,,,,,,,,,,,,,,,,,,,,,,,,,,,,,,,,,,,,,,,,,,,,,,,,,,,,,,,,,,,,,,,,,,,,,,,,,,,,,,,,,,,,,,,,,,,,,,,,,,,,,,,,,,,,,,,,,
,,,,,,61544ec77d9db5f95283802e,62c53a48ac5d8d31fb792f65,2022-07-06_09h36.36.388,Colour_Asymmetry_Pilot,2022.1.3,Win32,59.74072525,62c50e9c1127f2cd403a315f,0,39,39,3,1,twofour,,,,,,,,,,,,,,,,,,,,,,,,,,,,,,,,,,,,,,,,,,,,,,,,,,,,,,,,,,,,,,,,,,,,,,,,,,,,,,,,,,,,,,,,,,,,,,,,,,,,,,,,,,,,,,,,,,,,,,,,,,,,,,,,,,,,,,,,,,,,,,,,,,,,,,,,,,,,,
,,,,,,61544ec77d9db5f95283802e,62c53a48ac5d8d31fb792f65,2022-07-06_09h36.36.388,Colour_Asymmetry_Pilot,2022.1.3,Win32,59.74072525,62c50e9c1127f2cd403a315f,0,40,40,115,1,twofour,,,,,,,,,,,,,,,,,,,,,,,,,,,,,,,,,,,,,,,,,,,,,,,,,,,,,,,,,,,,,,,,,,,,,,,,,,,,,,,,,,,,,,,,,,,,,,,,,,,,,,,,,,,,,,,,,,,,,,,,,,,,,,,,,,,,,,,,,,,,,,,,,,,,,,,,,,,,,
,,,,,,61544ec77d9db5f95283802e,62c53a48ac5d8d31fb792f65,2022-07-06_09h36.36.388,Colour_Asymmetry_Pilot,2022.1.3,Win32,59.74072525,62c50e9c1127f2cd403a315f,0,41,41,74,1,twoone,,,,,,,,,,,,,,,,,,,,,,,,,,,,,,,,,,,,,,,,,,,,,,,,,,,,,,,,,,,,,,,,,,,,,,,,,,,,,,,,,,,,,,,,,,,,,,,,,,,,,,,,,,,,,,,,,,,,,,,,,,,,,,,,,,,,,,,,,,,,,,,,,,,,,,,,,,,,,
,,,,,,61544ec77d9db5f95283802e,62c53a48ac5d8d31fb792f65,2022-07-06_09h36.36.388,Colour_Asymmetry_Pilot,2022.1.3,Win32,59.74072525,62c50e9c1127f2cd403a315f,0,42,42,12,1,threeone,,,,,,,,,,,,,,,,,,,,,,,,,,,,,,,,,,,,,,,,,,,,,,,,,,,,,,,,,,,,,,,,,,,,,,,,,,,,,,,,,,,,,,,,,,,,,,,,,,,,,,,,,,,,,,,,,,,,,,,,,,,,,,,,,,,,,,,,,,,,,,,,,,,,,,,,,,,,,
,,,,,,61544ec77d9db5f95283802e,62c53a48ac5d8d31fb792f65,2022-07-06_09h36.36.388,Colour_Asymmetry_Pilot,2022.1.3,Win32,59.74072525,62c50e9c1127f2cd403a315f,0,43,43,68,1,threeone,,,,,,,,,,,,,,,,,,,,,,,,,,,,,,,,,,,,,,,,,,,,,,,,,,,,,,,,,,,,,,,,,,,,,,,,,,,,,,,,,,,,,,,,,,,,,,,,,,,,,,,,,,,,,,,,,,,,,,,,,,,,,,,,,,,,,,,,,,,,,,,,,,,,,,,,,,,,,
,,,,,,61544ec77d9db5f95283802e,62c53a48ac5d8d31fb792f65,2022-07-06_09h36.36.388,Colour_Asymmetry_Pilot,2022.1.3,Win32,59.74072525,62c50e9c1127f2cd403a315f,0,44,44,32,1,onetwo,,,,,,,,,,,,,,,,,,,,,,,,,,,,,,,,,,,,,,,,,,,,,,,,,,,,,,,,,,,,,,,,,,,,,,,,,,,,,,,,,,,,,,,,,,,,,,,,,,,,,,,,,,,,,,,,,,,,,,,,,,,,,,,,,,,,,,,,,,,,,,,,,,,,,,,,,,,,,
,,,,,,61544ec77d9db5f95283802e,62c53a48ac5d8d31fb792f65,2022-07-06_09h36.36.388,Colour_Asymmetry_Pilot,2022.1.3,Win32,59.74072525,62c50e9c1127f2cd403a315f,0,45,45,132,1,threeone,,,,,,,,,,,,,,,,,,,,,,,,,,,,,,,,,,,,,,,,,,,,,,,,,,,,,,,,,,,,,,,,,,,,,,,,,,,,,,,,,,,,,,,,,,,,,,,,,,,,,,,,,,,,,,,,,,,,,,,,,,,,,,,,,,,,,,,,,,,,,,,,,,,,,,,,,,,,,
,,,,,,61544ec77d9db5f95283802e,62c53a48ac5d8d31fb792f65,2022-07-06_09h36.36.388,Colour_Asymmetry_Pilot,2022.1.3,Win32,59.74072525,62c50e9c1127f2cd403a315f,0,46,46,36,1,threeone,,,,,,,,,,,,,,,,,,,,,,,,,,,,,,,,,,,,,,,,,,,,,,,,,,,,,,,,,,,,,,,,,,,,,,,,,,,,,,,,,,,,,,,,,,,,,,,,,,,,,,,,,,,,,,,,,,,,,,,,,,,,,,,,,,,,,,,,,,,,,,,,,,,,,,,,,,,,,
,,,,,,61544ec77d9db5f95283802e,62c53a48ac5d8d31fb792f65,2022-07-06_09h36.36.388,Colour_Asymmetry_Pilot,2022.1.3,Win32,59.74072525,62c50e9c1127f2cd403a315f,0,47,47,26,1,twoone,,,,,,,,,,,,,,,,,,,,,,,,,,,,,,,,,,,,,,,,,,,,,,,,,,,,,,,,,,,,,,,,,,,,,,,,,,,,,,,,,,,,,,,,,,,,,,,,,,,,,,,,,,,,,,,,,,,,,,,,,,,,,,,,,,,,,,,,,,,,,,,,,,,,,,,,,,,,,
,,,,,,61544ec77d9db5f95283802e,62c53a48ac5d8d31fb792f65,2022-07-06_09h36.36.388,Colour_Asymmetry_Pilot,2022.1.3,Win32,59.74072525,62c50e9c1127f2cd403a315f,0,48,48,148,1,threeone,,,,,,,,,,,,,,,,,,,,,,,,,,,,,,,,,,,,,,,,,,,,,,,,,,,,,,,,,,,,,,,,,,,,,,,,,,,,,,,,,,,,,,,,,,,,,,,,,,,,,,,,,,,,,,,,,,,,,,,,,,,,,,,,,,,,,,,,,,,,,,,,,,,,,,,,,,,,,
,,,,,,61544ec77d9db5f95283802e,62c53a48ac5d8d31fb792f65,2022-07-06_09h36.36.388,Colour_Asymmetry_Pilot,2022.1.3,Win32,59.74072525,62c50e9c1127f2cd403a315f,0,49,49,15,1,fourthree,,,,,,,,,,,,,,,,,,,,,,,,,,,,,,,,,,,,,,,,,,,,,,,,,,,,,,,,,,,,,,,,,,,,,,,,,,,,,,,,,,,,,,,,,,,,,,,,,,,,,,,,,,,,,,,,,,,,,,,,,,,,,,,,,,,,,,,,,,,,,,,,,,,,,,,,,,,,,
,,,,,,61544ec77d9db5f95283802e,62c53a48ac5d8d31fb792f65,2022-07-06_09h36.36.388,Colour_Asymmetry_Pilot,2022.1.3,Win32,59.74072525,62c50e9c1127f2cd403a315f,0,50,50,17,1,onethree,,,,,,,,,,,,,,,,,,,,,,,,,,,,,,,,,,,,,,,,,,,,,,,,,,,,,,,,,,,,,,,,,,,,,,,,,,,,,,,,,,,,,,,,,,,,,,,,,,,,,,,,,,,,,,,,,,,,,,,,,,,,,,,,,,,,,,,,,,,,,,,,,,,,,,,,,,,,,
,,,,,,61544ec77d9db5f95283802e,62c53a48ac5d8d31fb792f65,2022-07-06_09h36.36.388,Colour_Asymmetry_Pilot,2022.1.3,Win32,59.74072525,62c50e9c1127f2cd403a315f,0,51,51,53,1,threefour,,,,,,,,,,,,,,,,,,,,,,,,,,,,,,,,,,,,,,,,,,,,,,,,,,,,,,,,,,,,,,,,,,,,,,,,,,,,,,,,,,,,,,,,,,,,,,,,,,,,,,,,,,,,,,,,,,,,,,,,,,,,,,,,,,,,,,,,,,,,,,,,,,,,,,,,,,,,,
,,,,,,61544ec77d9db5f95283802e,62c53a48ac5d8d31fb792f65,2022-07-06_09h36.36.388,Colour_Asymmetry_Pilot,2022.1.3,Win32,59.74072525,62c50e9c1127f2cd403a315f,0,52,52,143,1,fourthree,,,,,,,,,,,,,,,,,,,,,,,,,,,,,,,,,,,,,,,,,,,,,,,,,,,,,,,,,,,,,,,,,,,,,,,,,,,,,,,,,,,,,,,,,,,,,,,,,,,,,,,,,,,,,,,,,,,,,,,,,,,,,,,,,,,,,,,,,,,,,,,,,,,,,,,,,,,,,
,,,,,,61544ec77d9db5f95283802e,62c53a48ac5d8d31fb792f65,2022-07-06_09h36.36.388,Colour_Asymmetry_Pilot,2022.1.3,Win32,59.74072525,62c50e9c1127f2cd403a315f,0,53,53,91,1,twofour,,,,,,,,,,,,,,,,,,,,,,,,,,,,,,,,,,,,,,,,,,,,,,,,,,,,,,,,,,,,,,,,,,,,,,,,,,,,,,,,,,,,,,,,,,,,,,,,,,,,,,,,,,,,,,,,,,,,,,,,,,,,,,,,,,,,,,,,,,,,,,,,,,,,,,,,,,,,,
,,,,,,61544ec77d9db5f95283802e,62c53a48ac5d8d31fb792f65,2022-07-06_09h36.36.388,Colour_Asymmetry_Pilot,2022.1.3,Win32,59.74072525,62c50e9c1127f2cd403a315f,0,54,54,118,1,fourtwo,,,,,,,,,,,,,,,,,,,,,,,,,,,,,,,,,,,,,,,,,,,,,,,,,,,,,,,,,,,,,,,,,,,,,,,,,,,,,,,,,,,,,,,,,,,,,,,,,,,,,,,,,,,,,,,,,,,,,,,,,,,,,,,,,,,,,,,,,,,,,,,,,,,,,,,,,,,,,
,,,,,,61544ec77d9db5f95283802e,62c53a48ac5d8d31fb792f65,2022-07-06_09h36.36.388,Colour_Asymmetry_Pilot,2022.1.3,Win32,59.74072525,62c50e9c1127f2cd403a315f,0,55,55,105,1,onethree,,,,,,,,,,,,,,,,,,,,,,,,,,,,,,,,,,,,,,,,,,,,,,,,,,,,,,,,,,,,,,,,,,,,,,,,,,,,,,,,,,,,,,,,,,,,,,,,,,,,,,,,,,,,,,,,,,,,,,,,,,,,,,,,,,,,,,,,,,,,,,,,,,,,,,,,,,,,,
,,,,,,61544ec77d9db5f95283802e,62c53a48ac5d8d31fb792f65,2022-07-06_09h36.36.388,Colour_Asymmetry_Pilot,2022.1.3,Win32,59.74072525,62c50e9c1127f2cd403a315f,0,56,56,82,1,twoone,,,,,,,,,,,,,,,,,,,,,,,,,,,,,,,,,,,,,,,,,,,,,,,,,,,,,,,,,,,,,,,,,,,,,,,,,,,,,,,,,,,,,,,,,,,,,,,,,,,,,,,,,,,,,,,,,,,,,,,,,,,,,,,,,,,,,,,,,,,,,,,,,,,,,,,,,,,,,
,,,,,,61544ec77d9db5f95283802e,62c53a48ac5d8d31fb792f65,2022-07-06_09h36.36.388,Colour_Asymmetry_Pilot,2022.1.3,Win32,59.74072525,62c50e9c1127f2cd403a315f,0,57,57,158,1,fourtwo,,,,,,,,,,,,,,,,,,,,,,,,,,,,,,,,,,,,,,,,,,,,,,,,,,,,,,,,,,,,,,,,,,,,,,,,,,,,,,,,,,,,,,,,,,,,,,,,,,,,,,,,,,,,,,,,,,,,,,,,,,,,,,,,,,,,,,,,,,,,,,,,,,,,,,,,,,,,,
,,,,,,61544ec77d9db5f95283802e,62c53a48ac5d8d31fb792f65,2022-07-06_09h36.36.388,Colour_Asymmetry_Pilot,2022.1.3,Win32,59.74072525,62c50e9c1127f2cd403a315f,0,58,58,157,1,threefour,,,,,,,,,,,,,,,,,,,,,,,,,,,,,,,,,,,,,,,,,,,,,,,,,,,,,,,,,,,,,,,,,,,,,,,,,,,,,,,,,,,,,,,,,,,,,,,,,,,,,,,,,,,,,,,,,,,,,,,,,,,,,,,,,,,,,,,,,,,,,,,,,,,,,,,,,,,,,
,,,,,,61544ec77d9db5f95283802e,62c53a48ac5d8d31fb792f65,2022-07-06_09h36.36.388,Colour_Asymmetry_Pilot,2022.1.3,Win32,59.74072525,62c50e9c1127f2cd403a315f,0,59,59,124,1,threeone,,,,,,,,,,,,,,,,,,,,,,,,,,,,,,,,,,,,,,,,,,,,,,,,,,,,,,,,,,,,,,,,,,,,,,,,,,,,,,,,,,,,,,,,,,,,,,,,,,,,,,,,,,,,,,,,,,,,,,,,,,,,,,,,,,,,,,,,,,,,,,,,,,,,,,,,,,,,,
,,,,,,61544ec77d9db5f95283802e,62c53a48ac5d8d31fb792f65,2022-07-06_09h36.36.388,Colour_Asymmetry_Pilot,2022.1.3,Win32,59.74072525,62c50e9c1127f2cd403a315f,0,60,60,5,1,threefour,,,,,,,,,,,,,,,,,,,,,,,,,,,,,,,,,,,,,,,,,,,,,,,,,,,,,,,,,,,,,,,,,,,,,,,,,,,,,,,,,,,,,,,,,,,,,,,,,,,,,,,,,,,,,,,,,,,,,,,,,,,,,,,,,,,,,,,,,,,,,,,,,,,,,,,,,,,,,
,,,,,,61544ec77d9db5f95283802e,62c53a48ac5d8d31fb792f65,2022-07-06_09h36.36.388,Colour_Asymmetry_Pilot,2022.1.3,Win32,59.74072525,62c50e9c1127f2cd403a315f,0,61,61,83,1,twofour,,,,,,,,,,,,,,,,,,,,,,,,,,,,,,,,,,,,,,,,,,,,,,,,,,,,,,,,,,,,,,,,,,,,,,,,,,,,,,,,,,,,,,,,,,,,,,,,,,,,,,,,,,,,,,,,,,,,,,,,,,,,,,,,,,,,,,,,,,,,,,,,,,,,,,,,,,,,,
,,,,,,61544ec77d9db5f95283802e,62c53a48ac5d8d31fb792f65,2022-07-06_09h36.36.388,Colour_Asymmetry_Pilot,2022.1.3,Win32,59.74072525,62c50e9c1127f2cd403a315f,0,62,62,14,1,fourtwo,,,,,,,,,,,,,,,,,,,,,,,,,,,,,,,,,,,,,,,,,,,,,,,,,,,,,,,,,,,,,,,,,,,,,,,,,,,,,,,,,,,,,,,,,,,,,,,,,,,,,,,,,,,,,,,,,,,,,,,,,,,,,,,,,,,,,,,,,,,,,,,,,,,,,,,,,,,,,
,,,,,,61544ec77d9db5f95283802e,62c53a48ac5d8d31fb792f65,2022-07-06_09h36.36.388,Colour_Asymmetry_Pilot,2022.1.3,Win32,59.74072525,62c50e9c1127f2cd403a315f,0,63,63,77,1,threefour,,,,,,,,,,,,,,,,,,,,,,,,,,,,,,,,,,,,,,,,,,,,,,,,,,,,,,,,,,,,,,,,,,,,,,,,,,,,,,,,,,,,,,,,,,,,,,,,,,,,,,,,,,,,,,,,,,,,,,,,,,,,,,,,,,,,,,,,,,,,,,,,,,,,,,,,,,,,,
,,,,,,61544ec77d9db5f95283802e,62c53a48ac5d8d31fb792f65,2022-07-06_09h36.36.388,Colour_Asymmetry_Pilot,2022.1.3,Win32,59.74072525,62c50e9c1127f2cd403a315f,0,64,64,94,1,fourtwo,,,,,,,,,,,,,,,,,,,,,,,,,,,,,,,,,,,,,,,,,,,,,,,,,,,,,,,,,,,,,,,,,,,,,,,,,,,,,,,,,,,,,,,,,,,,,,,,,,,,,,,,,,,,,,,,,,,,,,,,,,,,,,,,,,,,,,,,,,,,,,,,,,,,,,,,,,,,,
,,,,,,61544ec77d9db5f95283802e,62c53a48ac5d8d31fb792f65,2022-07-06_09h36.36.388,Colour_Asymmetry_Pilot,2022.1.3,Win32,59.74072525,62c50e9c1127f2cd403a315f,0,65,65,79,1,fourthree,,,,,,,,,,,,,,,,,,,,,,,,,,,,,,,,,,,,,,,,,,,,,,,,,,,,,,,,,,,,,,,,,,,,,,,,,,,,,,,,,,,,,,,,,,,,,,,,,,,,,,,,,,,,,,,,,,,,,,,,,,,,,,,,,,,,,,,,,,,,,,,,,,,,,,,,,,,,,
,,,,,,61544ec77d9db5f95283802e,62c53a48ac5d8d31fb792f65,2022-07-06_09h36.36.388,Colour_Asymmetry_Pilot,2022.1.3,Win32,59.74072525,62c50e9c1127f2cd403a315f,0,66,66,85,1,threefour,,,,,,,,,,,,,,,,,,,,,,,,,,,,,,,,,,,,,,,,,,,,,,,,,,,,,,,,,,,,,,,,,,,,,,,,,,,,,,,,,,,,,,,,,,,,,,,,,,,,,,,,,,,,,,,,,,,,,,,,,,,,,,,,,,,,,,,,,,,,,,,,,,,,,,,,,,,,,
,,,,,,61544ec77d9db5f95283802e,62c53a48ac5d8d31fb792f65,2022-07-06_09h36.36.388,Colour_Asymmetry_Pilot,2022.1.3,Win32,59.74072525,62c50e9c1127f2cd403a315f,0,67,67,107,1,twofour,,,,,,,,,,,,,,,,,,,,,,,,,,,,,,,,,,,,,,,,,,,,,,,,,,,,,,,,,,,,,,,,,,,,,,,,,,,,,,,,,,,,,,,,,,,,,,,,,,,,,,,,,,,,,,,,,,,,,,,,,,,,,,,,,,,,,,,,,,,,,,,,,,,,,,,,,,,,,
,,,,,,61544ec77d9db5f95283802e,62c53a48ac5d8d31fb792f65,2022-07-06_09h36.36.388,Colour_Asymmetry_Pilot,2022.1.3,Win32,59.74072525,62c50e9c1127f2cd403a315f,0,68,68,96,1,onetwo,,,,,,,,,,,,,,,,,,,,,,,,,,,,,,,,,,,,,,,,,,,,,,,,,,,,,,,,,,,,,,,,,,,,,,,,,,,,,,,,,,,,,,,,,,,,,,,,,,,,,,,,,,,,,,,,,,,,,,,,,,,,,,,,,,,,,,,,,,,,,,,,,,,,,,,,,,,,,
,,,,,,61544ec77d9db5f95283802e,62c53a48ac5d8d31fb792f65,2022-07-06_09h36.36.388,Colour_Asymmetry_Pilot,2022.1.3,Win32,59.74072525,62c50e9c1127f2cd403a315f,0,69,69,19,1,twofour,,,,,,,,,,,,,,,,,,,,,,,,,,,,,,,,,,,,,,,,,,,,,,,,,,,,,,,,,,,,,,,,,,,,,,,,,,,,,,,,,,,,,,,,,,,,,,,,,,,,,,,,,,,,,,,,,,,,,,,,,,,,,,,,,,,,,,,,,,,,,,,,,,,,,,,,,,,,,
,,,,,,61544ec77d9db5f95283802e,62c53a48ac5d8d31fb792f65,2022-07-06_09h36.36.388,Colour_Asymmetry_Pilot,2022.1.3,Win32,59.74072525,62c50e9c1127f2cd403a315f,0,70,70,64,1,onetwo,,,,,,,,,,,,,,,,,,,,,,,,,,,,,,,,,,,,,,,,,,,,,,,,,,,,,,,,,,,,,,,,,,,,,,,,,,,,,,,,,,,,,,,,,,,,,,,,,,,,,,,,,,,,,,,,,,,,,,,,,,,,,,,,,,,,,,,,,,,,,,,,,,,,,,,,,,,,,
,,,,,,61544ec77d9db5f95283802e,62c53a48ac5d8d31fb792f65,2022-07-06_09h36.36.388,Colour_Asymmetry_Pilot,2022.1.3,Win32,59.74072525,62c50e9c1127f2cd403a315f,0,71,71,108,1,threeone,,,,,,,,,,,,,,,,,,,,,,,,,,,,,,,,,,,,,,,,,,,,,,,,,,,,,,,,,,,,,,,,,,,,,,,,,,,,,,,,,,,,,,,,,,,,,,,,,,,,,,,,,,,,,,,,,,,,,,,,,,,,,,,,,,,,,,,,,,,,,,,,,,,,,,,,,,,,,
,,,,,,61544ec77d9db5f95283802e,62c53a48ac5d8d31fb792f65,2022-07-06_09h36.36.388,Colour_Asymmetry_Pilot,2022.1.3,Win32,59.74072525,62c50e9c1127f2cd403a315f,0,72,72,121,1,onethree,,,,,,,,,,,,,,,,,,,,,,,,,,,,,,,,,,,,,,,,,,,,,,,,,,,,,,,,,,,,,,,,,,,,,,,,,,,,,,,,,,,,,,,,,,,,,,,,,,,,,,,,,,,,,,,,,,,,,,,,,,,,,,,,,,,,,,,,,,,,,,,,,,,,,,,,,,,,,
,,,,,,61544ec77d9db5f95283802e,62c53a48ac5d8d31fb792f65,2022-07-06_09h36.36.388,Colour_Asymmetry_Pilot,2022.1.3,Win32,59.74072525,62c50e9c1127f2cd403a315f,0,73,73,37,1,threefour,,,,,,,,,,,,,,,,,,,,,,,,,,,,,,,,,,,,,,,,,,,,,,,,,,,,,,,,,,,,,,,,,,,,,,,,,,,,,,,,,,,,,,,,,,,,,,,,,,,,,,,,,,,,,,,,,,,,,,,,,,,,,,,,,,,,,,,,,,,,,,,,,,,,,,,,,,,,,
,,,,,,61544ec77d9db5f95283802e,62c53a48ac5d8d31fb792f65,2022-07-06_09h36.36.388,Colour_Asymmetry_Pilot,2022.1.3,Win32,59.74072525,62c50e9c1127f2cd403a315f,0,74,74,56,1,onetwo,,,,,,,,,,,,,,,,,,,,,,,,,,,,,,,,,,,,,,,,,,,,,,,,,,,,,,,,,,,,,,,,,,,,,,,,,,,,,,,,,,,,,,,,,,,,,,,,,,,,,,,,,,,,,,,,,,,,,,,,,,,,,,,,,,,,,,,,,,,,,,,,,,,,,,,,,,,,,
,,,,,,61544ec77d9db5f95283802e,62c53a48ac5d8d31fb792f65,2022-07-06_09h36.36.388,Colour_Asymmetry_Pilot,2022.1.3,Win32,59.74072525,62c50e9c1127f2cd403a315f,0,75,75,123,1,twofour,,,,,,,,,,,,,,,,,,,,,,,,,,,,,,,,,,,,,,,,,,,,,,,,,,,,,,,,,,,,,,,,,,,,,,,,,,,,,,,,,,,,,,,,,,,,,,,,,,,,,,,,,,,,,,,,,,,,,,,,,,,,,,,,,,,,,,,,,,,,,,,,,,,,,,,,,,,,,
,,,,,,61544ec77d9db5f95283802e,62c53a48ac5d8d31fb792f65,2022-07-06_09h36.36.388,Colour_Asymmetry_Pilot,2022.1.3,Win32,59.74072525,62c50e9c1127f2cd403a315f,0,76,76,101,1,threefour,,,,,,,,,,,,,,,,,,,,,,,,,,,,,,,,,,,,,,,,,,,,,,,,,,,,,,,,,,,,,,,,,,,,,,,,,,,,,,,,,,,,,,,,,,,,,,,,,,,,,,,,,,,,,,,,,,,,,,,,,,,,,,,,,,,,,,,,,,,,,,,,,,,,,,,,,,,,,
,,,,,,61544ec77d9db5f95283802e,62c53a48ac5d8d31fb792f65,2022-07-06_09h36.36.388,Colour_Asymmetry_Pilot,2022.1.3,Win32,59.74072525,62c50e9c1127f2cd403a315f,0,77,77,95,1,fourthree,,,,,,,,,,,,,,,,,,,,,,,,,,,,,,,,,,,,,,,,,,,,,,,,,,,,,,,,,,,,,,,,,,,,,,,,,,,,,,,,,,,,,,,,,,,,,,,,,,,,,,,,,,,,,,,,,,,,,,,,,,,,,,,,,,,,,,,,,,,,,,,,,,,,,,,,,,,,,
,,,,,,61544ec77d9db5f95283802e,62c53a48ac5d8d31fb792f65,2022-07-06_09h36.36.388,Colour_Asymmetry_Pilot,2022.1.3,Win32,59.74072525,62c50e9c1127f2cd403a315f,0,78,78,142,1,fourtwo,,,,,,,,,,,,,,,,,,,,,,,,,,,,,,,,,,,,,,,,,,,,,,,,,,,,,,,,,,,,,,,,,,,,,,,,,,,,,,,,,,,,,,,,,,,,,,,,,,,,,,,,,,,,,,,,,,,,,,,,,,,,,,,,,,,,,,,,,,,,,,,,,,,,,,,,,,,,,
,,,,,,61544ec77d9db5f95283802e,62c53a48ac5d8d31fb792f65,2022-07-06_09h36.36.388,Colour_Asymmetry_Pilot,2022.1.3,Win32,59.74072525,62c50e9c1127f2cd403a315f,0,79,79,137,1,onethree,,,,,,,,,,,,,,,,,,,,,,,,,,,,,,,,,,,,,,,,,,,,,,,,,,,,,,,,,,,,,,,,,,,,,,,,,,,,,,,,,,,,,,,,,,,,,,,,,,,,,,,,,,,,,,,,,,,,,,,,,,,,,,,,,,,,,,,,,,,,,,,,,,,,,,,,,,,,,
,,,,,,61544ec77d9db5f95283802e,62c53a48ac5d8d31fb792f65,2022-07-06_09h36.36.388,Colour_Asymmetry_Pilot,2022.1.3,Win32,59.74072525,62c50e9c1127f2cd403a315f,0,80,80,0,1,onetwo,,,,,,,,,,,,,,,,,,,,,,,,,,,,,,,,,,,,,,,,,,,,,,,,,,,,,,,,,,,,,,,,,,,,,,,,,,,,,,,,,,,,,,,,,,,,,,,,,,,,,,,,,,,,,,,,,,,,,,,,,,,,,,,,,,,,,,,,,,,,,,,,,,,,,,,,,,,,,
,,,,,,61544ec77d9db5f95283802e,62c53a48ac5d8d31fb792f65,2022-07-06_09h36.36.388,Colour_Asymmetry_Pilot,2022.1.3,Win32,59.74072525,62c50e9c1127f2cd403a315f,0,81,81,141,1,threefour,,,,,,,,,,,,,,,,,,,,,,,,,,,,,,,,,,,,,,,,,,,,,,,,,,,,,,,,,,,,,,,,,,,,,,,,,,,,,,,,,,,,,,,,,,,,,,,,,,,,,,,,,,,,,,,,,,,,,,,,,,,,,,,,,,,,,,,,,,,,,,,,,,,,,,,,,,,,,
,,,,,,61544ec77d9db5f95283802e,62c53a48ac5d8d31fb792f65,2022-07-06_09h36.36.388,Colour_Asymmetry_Pilot,2022.1.3,Win32,59.74072525,62c50e9c1127f2cd403a315f,0,82,82,54,1,fourtwo,,,,,,,,,,,,,,,,,,,,,,,,,,,,,,,,,,,,,,,,,,,,,,,,,,,,,,,,,,,,,,,,,,,,,,,,,,,,,,,,,,,,,,,,,,,,,,,,,,,,,,,,,,,,,,,,,,,,,,,,,,,,,,,,,,,,,,,,,,,,,,,,,,,,,,,,,,,,,
,,,,,,61544ec77d9db5f95283802e,62c53a48ac5d8d31fb792f65,2022-07-06_09h36.36.388,Colour_Asymmetry_Pilot,2022.1.3,Win32,59.74072525,62c50e9c1127f2cd403a315f,0,83,83,70,1,fourtwo,,,,,,,,,,,,,,,,,,,,,,,,,,,,,,,,,,,,,,,,,,,,,,,,,,,,,,,,,,,,,,,,,,,,,,,,,,,,,,,,,,,,,,,,,,,,,,,,,,,,,,,,,,,,,,,,,,,,,,,,,,,,,,,,,,,,,,,,,,,,,,,,,,,,,,,,,,,,,
,,,,,,61544ec77d9db5f95283802e,62c53a48ac5d8d31fb792f65,2022-07-06_09h36.36.388,Colour_Asymmetry_Pilot,2022.1.3,Win32,59.74072525,62c50e9c1127f2cd403a315f,0,84,84,61,1,threefour,,,,,,,,,,,,,,,,,,,,,,,,,,,,,,,,,,,,,,,,,,,,,,,,,,,,,,,,,,,,,,,,,,,,,,,,,,,,,,,,,,,,,,,,,,,,,,,,,,,,,,,,,,,,,,,,,,,,,,,,,,,,,,,,,,,,,,,,,,,,,,,,,,,,,,,,,,,,,
,,,,,,61544ec77d9db5f95283802e,62c53a48ac5d8d31fb792f65,2022-07-06_09h36.36.388,Colour_Asymmetry_Pilot,2022.1.3,Win32,59.74072525,62c50e9c1127f2cd403a315f,0,85,85,46,1,fourtwo,,,,,,,,,,,,,,,,,,,,,,,,,,,,,,,,,,,,,,,,,,,,,,,,,,,,,,,,,,,,,,,,,,,,,,,,,,,,,,,,,,,,,,,,,,,,,,,,,,,,,,,,,,,,,,,,,,,,,,,,,,,,,,,,,,,,,,,,,,,,,,,,,,,,,,,,,,,,,
,,,,,,61544ec77d9db5f95283802e,62c53a48ac5d8d31fb792f65,2022-07-06_09h36.36.388,Colour_Asymmetry_Pilot,2022.1.3,Win32,59.74072525,62c50e9c1127f2cd403a315f,0,86,86,92,1,threeone,,,,,,,,,,,,,,,,,,,,,,,,,,,,,,,,,,,,,,,,,,,,,,,,,,,,,,,,,,,,,,,,,,,,,,,,,,,,,,,,,,,,,,,,,,,,,,,,,,,,,,,,,,,,,,,,,,,,,,,,,,,,,,,,,,,,,,,,,,,,,,,,,,,,,,,,,,,,,
,,,,,,61544ec77d9db5f95283802e,62c53a48ac5d8d31fb792f65,2022-07-06_09h36.36.388,Colour_Asymmetry_Pilot,2022.1.3,Win32,59.74072525,62c50e9c1127f2cd403a315f,0,87,87,151,1,fourthree,,,,,,,,,,,,,,,,,,,,,,,,,,,,,,,,,,,,,,,,,,,,,,,,,,,,,,,,,,,,,,,,,,,,,,,,,,,,,,,,,,,,,,,,,,,,,,,,,,,,,,,,,,,,,,,,,,,,,,,,,,,,,,,,,,,,,,,,,,,,,,,,,,,,,,,,,,,,,
,,,,,,61544ec77d9db5f95283802e,62c53a48ac5d8d31fb792f65,2022-07-06_09h36.36.388,Colour_Asymmetry_Pilot,2022.1.3,Win32,59.74072525,62c50e9c1127f2cd403a315f,0,88,88,129,1,onethree,,,,,,,,,,,,,,,,,,,,,,,,,,,,,,,,,,,,,,,,,,,,,,,,,,,,,,,,,,,,,,,,,,,,,,,,,,,,,,,,,,,,,,,,,,,,,,,,,,,,,,,,,,,,,,,,,,,,,,,,,,,,,,,,,,,,,,,,,,,,,,,,,,,,,,,,,,,,,
,,,,,,61544ec77d9db5f95283802e,62c53a48ac5d8d31fb792f65,2022-07-06_09h36.36.388,Colour_Asymmetry_Pilot,2022.1.3,Win32,59.74072525,62c50e9c1127f2cd403a315f,0,89,89,41,1,onethree,,,,,,,,,,,,,,,,,,,,,,,,,,,,,,,,,,,,,,,,,,,,,,,,,,,,,,,,,,,,,,,,,,,,,,,,,,,,,,,,,,,,,,,,,,,,,,,,,,,,,,,,,,,,,,,,,,,,,,,,,,,,,,,,,,,,,,,,,,,,,,,,,,,,,,,,,,,,,
,,,,,,61544ec77d9db5f95283802e,62c53a48ac5d8d31fb792f65,2022-07-06_09h36.36.388,Colour_Asymmetry_Pilot,2022.1.3,Win32,59.74072525,62c50e9c1127f2cd403a315f,0,90,90,22,1,fourtwo,,,,,,,,,,,,,,,,,,,,,,,,,,,,,,,,,,,,,,,,,,,,,,,,,,,,,,,,,,,,,,,,,,,,,,,,,,,,,,,,,,,,,,,,,,,,,,,,,,,,,,,,,,,,,,,,,,,,,,,,,,,,,,,,,,,,,,,,,,,,,,,,,,,,,,,,,,,,,
,,,,,,61544ec77d9db5f95283802e,62c53a48ac5d8d31fb792f65,2022-07-06_09h36.36.388,Colour_Asymmetry_Pilot,2022.1.3,Win32,59.74072525,62c50e9c1127f2cd403a315f,0,91,91,51,1,twofour,,,,,,,,,,,,,,,,,,,,,,,,,,,,,,,,,,,,,,,,,,,,,,,,,,,,,,,,,,,,,,,,,,,,,,,,,,,,,,,,,,,,,,,,,,,,,,,,,,,,,,,,,,,,,,,,,,,,,,,,,,,,,,,,,,,,,,,,,,,,,,,,,,,,,,,,,,,,,
,,,,,,61544ec77d9db5f95283802e,62c53a48ac5d8d31fb792f65,2022-07-06_09h36.36.388,Colour_Asymmetry_Pilot,2022.1.3,Win32,59.74072525,62c50e9c1127f2cd403a315f,0,92,92,112,1,onetwo,,,,,,,,,,,,,,,,,,,,,,,,,,,,,,,,,,,,,,,,,,,,,,,,,,,,,,,,,,,,,,,,,,,,,,,,,,,,,,,,,,,,,,,,,,,,,,,,,,,,,,,,,,,,,,,,,,,,,,,,,,,,,,,,,,,,,,,,,,,,,,,,,,,,,,,,,,,,,
,,,,,,61544ec77d9db5f95283802e,62c53a48ac5d8d31fb792f65,2022-07-06_09h36.36.388,Colour_Asymmetry_Pilot,2022.1.3,Win32,59.74072525,62c50e9c1127f2cd403a315f,0,93,93,139,1,twofour,,,,,,,,,,,,,,,,,,,,,,,,,,,,,,,,,,,,,,,,,,,,,,,,,,,,,,,,,,,,,,,,,,,,,,,,,,,,,,,,,,,,,,,,,,,,,,,,,,,,,,,,,,,,,,,,,,,,,,,,,,,,,,,,,,,,,,,,,,,,,,,,,,,,,,,,,,,,,
,,,,,,61544ec77d9db5f95283802e,62c53a48ac5d8d31fb792f65,2022-07-06_09h36.36.388,Colour_Asymmetry_Pilot,2022.1.3,Win32,59.74072525,62c50e9c1127f2cd403a315f,0,94,94,104,1,onetwo,,,,,,,,,,,,,,,,,,,,,,,,,,,,,,,,,,,,,,,,,,,,,,,,,,,,,,,,,,,,,,,,,,,,,,,,,,,,,,,,,,,,,,,,,,,,,,,,,,,,,,,,,,,,,,,,,,,,,,,,,,,,,,,,,,,,,,,,,,,,,,,,,,,,,,,,,,,,,
,,,,,,61544ec77d9db5f95283802e,62c53a48ac5d8d31fb792f65,2022-07-06_09h36.36.388,Colour_Asymmetry_Pilot,2022.1.3,Win32,59.74072525,62c50e9c1127f2cd403a315f,0,95,95,127,1,fourthree,,,,,,,,,,,,,,,,,,,,,,,,,,,,,,,,,,,,,,,,,,,,,,,,,,,,,,,,,,,,,,,,,,,,,,,,,,,,,,,,,,,,,,,,,,,,,,,,,,,,,,,,,,,,,,,,,,,,,,,,,,,,,,,,,,,,,,,,,,,,,,,,,,,,,,,,,,,,,
,,,,,,61544ec77d9db5f95283802e,62c53a48ac5d8d31fb792f65,2022-07-06_09h36.36.388,Colour_Asymmetry_Pilot,2022.1.3,Win32,59.74072525,62c50e9c1127f2cd403a315f,0,96,96,39,1,fourthree,,,,,,,,,,,,,,,,,,,,,,,,,,,,,,,,,,,,,,,,,,,,,,,,,,,,,,,,,,,,,,,,,,,,,,,,,,,,,,,,,,,,,,,,,,,,,,,,,,,,,,,,,,,,,,,,,,,,,,,,,,,,,,,,,,,,,,,,,,,,,,,,,,,,,,,,,,,,,
,,,,,,61544ec77d9db5f95283802e,62c53a48ac5d8d31fb792f65,2022-07-06_09h36.36.388,Colour_Asymmetry_Pilot,2022.1.3,Win32,59.74072525,62c50e9c1127f2cd403a315f,0,97,97,99,1,twofour,,,,,,,,,,,,,,,,,,,,,,,,,,,,,,,,,,,,,,,,,,,,,,,,,,,,,,,,,,,,,,,,,,,,,,,,,,,,,,,,,,,,,,,,,,,,,,,,,,,,,,,,,,,,,,,,,,,,,,,,,,,,,,,,,,,,,,,,,,,,,,,,,,,,,,,,,,,,,
,,,,,,61544ec77d9db5f95283802e,62c53a48ac5d8d31fb792f65,2022-07-06_09h36.36.388,Colour_Asymmetry_Pilot,2022.1.3,Win32,59.74072525,62c50e9c1127f2cd403a315f,0,98,98,125,1,threefour,,,,,,,,,,,,,,,,,,,,,,,,,,,,,,,,,,,,,,,,,,,,,,,,,,,,,,,,,,,,,,,,,,,,,,,,,,,,,,,,,,,,,,,,,,,,,,,,,,,,,,,,,,,,,,,,,,,,,,,,,,,,,,,,,,,,,,,,,,,,,,,,,,,,,,,,,,,,,
,,,,,,61544ec77d9db5f95283802e,62c53a48ac5d8d31fb792f65,2022-07-06_09h36.36.388,Colour_Asymmetry_Pilot,2022.1.3,Win32,59.74072525,62c50e9c1127f2cd403a315f,0,99,99,154,1,twoone,,,,,,,,,,,,,,,,,,,,,,,,,,,,,,,,,,,,,,,,,,,,,,,,,,,,,,,,,,,,,,,,,,,,,,,,,,,,,,,,,,,,,,,,,,,,,,,,,,,,,,,,,,,,,,,,,,,,,,,,,,,,,,,,,,,,,,,,,,,,,,,,,,,,,,,,,,,,,
,,,,,,61544ec77d9db5f95283802e,62c53a48ac5d8d31fb792f65,2022-07-06_09h36.36.388,Colour_Asymmetry_Pilot,2022.1.3,Win32,59.74072525,62c50e9c1127f2cd403a315f,0,100,100,155,1,twofour,,,,,,,,,,,,,,,,,,,,,,,,,,,,,,,,,,,,,,,,,,,,,,,,,,,,,,,,,,,,,,,,,,,,,,,,,,,,,,,,,,,,,,,,,,,,,,,,,,,,,,,,,,,,,,,,,,,,,,,,,,,,,,,,,,,,,,,,,,,,,,,,,,,,,,,,,,,,,
,,,,,,61544ec77d9db5f95283802e,62c53a48ac5d8d31fb792f65,2022-07-06_09h36.36.388,Colour_Asymmetry_Pilot,2022.1.3,Win32,59.74072525,62c50e9c1127f2cd403a315f,0,101,101,159,1,fourthree,,,,,,,,,,,,,,,,,,,,,,,,,,,,,,,,,,,,,,,,,,,,,,,,,,,,,,,,,,,,,,,,,,,,,,,,,,,,,,,,,,,,,,,,,,,,,,,,,,,,,,,,,,,,,,,,,,,,,,,,,,,,,,,,,,,,,,,,,,,,,,,,,,,,,,,,,,,,,
,,,,,,61544ec77d9db5f95283802e,62c53a48ac5d8d31fb792f65,2022-07-06_09h36.36.388,Colour_Asymmetry_Pilot,2022.1.3,Win32,59.74072525,62c50e9c1127f2cd403a315f,0,102,102,119,1,fourthree,,,,,,,,,,,,,,,,,,,,,,,,,,,,,,,,,,,,,,,,,,,,,,,,,,,,,,,,,,,,,,,,,,,,,,,,,,,,,,,,,,,,,,,,,,,,,,,,,,,,,,,,,,,,,,,,,,,,,,,,,,,,,,,,,,,,,,,,,,,,,,,,,,,,,,,,,,,,,
,,,,,,61544ec77d9db5f95283802e,62c53a48ac5d8d31fb792f65,2022-07-06_09h36.36.388,Colour_Asymmetry_Pilot,2022.1.3,Win32,59.74072525,62c50e9c1127f2cd403a315f,0,103,103,59,1,twofour,,,,,,,,,,,,,,,,,,,,,,,,,,,,,,,,,,,,,,,,,,,,,,,,,,,,,,,,,,,,,,,,,,,,,,,,,,,,,,,,,,,,,,,,,,,,,,,,,,,,,,,,,,,,,,,,,,,,,,,,,,,,,,,,,,,,,,,,,,,,,,,,,,,,,,,,,,,,,
,,,,,,61544ec77d9db5f95283802e,62c53a48ac5d8d31fb792f65,2022-07-06_09h36.36.388,Colour_Asymmetry_Pilot,2022.1.3,Win32,59.74072525,62c50e9c1127f2cd403a315f,0,104,104,44,1,threeone,,,,,,,,,,,,,,,,,,,,,,,,,,,,,,,,,,,,,,,,,,,,,,,,,,,,,,,,,,,,,,,,,,,,,,,,,,,,,,,,,,,,,,,,,,,,,,,,,,,,,,,,,,,,,,,,,,,,,,,,,,,,,,,,,,,,,,,,,,,,,,,,,,,,,,,,,,,,,
,,,,,,61544ec77d9db5f95283802e,62c53a48ac5d8d31fb792f65,2022-07-06_09h36.36.388,Colour_Asymmetry_Pilot,2022.1.3,Win32,59.74072525,62c50e9c1127f2cd403a315f,0,105,105,114,1,twoone,,,,,,,,,,,,,,,,,,,,,,,,,,,,,,,,,,,,,,,,,,,,,,,,,,,,,,,,,,,,,,,,,,,,,,,,,,,,,,,,,,,,,,,,,,,,,,,,,,,,,,,,,,,,,,,,,,,,,,,,,,,,,,,,,,,,,,,,,,,,,,,,,,,,,,,,,,,,,
,,,,,,61544ec77d9db5f95283802e,62c53a48ac5d8d31fb792f65,2022-07-06_09h36.36.388,Colour_Asymmetry_Pilot,2022.1.3,Win32,59.74072525,62c50e9c1127f2cd403a315f,0,106,106,80,1,onetwo,,,,,,,,,,,,,,,,,,,,,,,,,,,,,,,,,,,,,,,,,,,,,,,,,,,,,,,,,,,,,,,,,,,,,,,,,,,,,,,,,,,,,,,,,,,,,,,,,,,,,,,,,,,,,,,,,,,,,,,,,,,,,,,,,,,,,,,,,,,,,,,,,,,,,,,,,,,,,
,,,,,,61544ec77d9db5f95283802e,62c53a48ac5d8d31fb792f65,2022-07-06_09h36.36.388,Colour_Asymmetry_Pilot,2022.1.3,Win32,59.74072525,62c50e9c1127f2cd403a315f,0,107,107,81,1,onethree,,,,,,,,,,,,,,,,,,,,,,,,,,,,,,,,,,,,,,,,,,,,,,,,,,,,,,,,,,,,,,,,,,,,,,,,,,,,,,,,,,,,,,,,,,,,,,,,,,,,,,,,,,,,,,,,,,,,,,,,,,,,,,,,,,,,,,,,,,,,,,,,,,,,,,,,,,,,,
,,,,,,61544ec77d9db5f95283802e,62c53a48ac5d8d31fb792f65,2022-07-06_09h36.36.388,Colour_Asymmetry_Pilot,2022.1.3,Win32,59.74072525,62c50e9c1127f2cd403a315f,0,108,108,150,1,fourtwo,,,,,,,,,,,,,,,,,,,,,,,,,,,,,,,,,,,,,,,,,,,,,,,,,,,,,,,,,,,,,,,,,,,,,,,,,,,,,,,,,,,,,,,,,,,,,,,,,,,,,,,,,,,,,,,,,,,,,,,,,,,,,,,,,,,,,,,,,,,,,,,,,,,,,,,,,,,,,
,,,,,,61544ec77d9db5f95283802e,62c53a48ac5d8d31fb792f65,2022-07-06_09h36.36.388,Colour_Asymmetry_Pilot,2022.1.3,Win32,59.74072525,62c50e9c1127f2cd403a315f,0,109,109,131,1,twofour,,,,,,,,,,,,,,,,,,,,,,,,,,,,,,,,,,,,,,,,,,,,,,,,,,,,,,,,,,,,,,,,,,,,,,,,,,,,,,,,,,,,,,,,,,,,,,,,,,,,,,,,,,,,,,,,,,,,,,,,,,,,,,,,,,,,,,,,,,,,,,,,,,,,,,,,,,,,,
,,,,,,61544ec77d9db5f95283802e,62c53a48ac5d8d31fb792f65,2022-07-06_09h36.36.388,Colour_Asymmetry_Pilot,2022.1.3,Win32,59.74072525,62c50e9c1127f2cd403a315f,0,110,110,45,1,threefour,,,,,,,,,,,,,,,,,,,,,,,,,,,,,,,,,,,,,,,,,,,,,,,,,,,,,,,,,,,,,,,,,,,,,,,,,,,,,,,,,,,,,,,,,,,,,,,,,,,,,,,,,,,,,,,,,,,,,,,,,,,,,,,,,,,,,,,,,,,,,,,,,,,,,,,,,,,,,
,,,,,,61544ec77d9db5f95283802e,62c53a48ac5d8d31fb792f65,2022-07-06_09h36.36.388,Colour_Asymmetry_Pilot,2022.1.3,Win32,59.74072525,62c50e9c1127f2cd403a315f,0,111,111,136,1,onetwo,,,,,,,,,,,,,,,,,,,,,,,,,,,,,,,,,,,,,,,,,,,,,,,,,,,,,,,,,,,,,,,,,,,,,,,,,,,,,,,,,,,,,,,,,,,,,,,,,,,,,,,,,,,,,,,,,,,,,,,,,,,,,,,,,,,,,,,,,,,,,,,,,,,,,,,,,,,,,
,,,,,,61544ec77d9db5f95283802e,62c53a48ac5d8d31fb792f65,2022-07-06_09h36.36.388,Colour_Asymmetry_Pilot,2022.1.3,Win32,59.74072525,62c50e9c1127f2cd403a315f,0,112,112,23,1,fourthree,,,,,,,,,,,,,,,,,,,,,,,,,,,,,,,,,,,,,,,,,,,,,,,,,,,,,,,,,,,,,,,,,,,,,,,,,,,,,,,,,,,,,,,,,,,,,,,,,,,,,,,,,,,,,,,,,,,,,,,,,,,,,,,,,,,,,,,,,,,,,,,,,,,,,,,,,,,,,
,,,,,,61544ec77d9db5f95283802e,62c53a48ac5d8d31fb792f65,2022-07-06_09h36.36.388,Colour_Asymmetry_Pilot,2022.1.3,Win32,59.74072525,62c50e9c1127f2cd403a315f,0,113,113,7,1,fourthree,,,,,,,,,,,,,,,,,,,,,,,,,,,,,,,,,,,,,,,,,,,,,,,,,,,,,,,,,,,,,,,,,,,,,,,,,,,,,,,,,,,,,,,,,,,,,,,,,,,,,,,,,,,,,,,,,,,,,,,,,,,,,,,,,,,,,,,,,,,,,,,,,,,,,,,,,,,,,
,,,,,,61544ec77d9db5f95283802e,62c53a48ac5d8d31fb792f65,2022-07-06_09h36.36.388,Colour_Asymmetry_Pilot,2022.1.3,Win32,59.74072525,62c50e9c1127f2cd403a315f,0,114,114,117,1,threefour,,,,,,,,,,,,,,,,,,,,,,,,,,,,,,,,,,,,,,,,,,,,,,,,,,,,,,,,,,,,,,,,,,,,,,,,,,,,,,,,,,,,,,,,,,,,,,,,,,,,,,,,,,,,,,,,,,,,,,,,,,,,,,,,,,,,,,,,,,,,,,,,,,,,,,,,,,,,,
,,,,,,61544ec77d9db5f95283802e,62c53a48ac5d8d31fb792f65,2022-07-06_09h36.36.388,Colour_Asymmetry_Pilot,2022.1.3,Win32,59.74072525,62c50e9c1127f2cd403a315f,0,115,115,103,1,fourthree,,,,,,,,,,,,,,,,,,,,,,,,,,,,,,,,,,,,,,,,,,,,,,,,,,,,,,,,,,,,,,,,,,,,,,,,,,,,,,,,,,,,,,,,,,,,,,,,,,,,,,,,,,,,,,,,,,,,,,,,,,,,,,,,,,,,,,,,,,,,,,,,,,,,,,,,,,,,,
,,,,,,61544ec77d9db5f95283802e,62c53a48ac5d8d31fb792f65,2022-07-06_09h36.36.388,Colour_Asymmetry_Pilot,2022.1.3,Win32,59.74072525,62c50e9c1127f2cd403a315f,0,116,116,147,1,twofour,,,,,,,,,,,,,,,,,,,,,,,,,,,,,,,,,,,,,,,,,,,,,,,,,,,,,,,,,,,,,,,,,,,,,,,,,,,,,,,,,,,,,,,,,,,,,,,,,,,,,,,,,,,,,,,,,,,,,,,,,,,,,,,,,,,,,,,,,,,,,,,,,,,,,,,,,,,,,
,,,,,,61544ec77d9db5f95283802e,62c53a48ac5d8d31fb792f65,2022-07-06_09h36.36.388,Colour_Asymmetry_Pilot,2022.1.3,Win32,59.74072525,62c50e9c1127f2cd403a315f,0,117,117,28,1,threeone,,,,,,,,,,,,,,,,,,,,,,,,,,,,,,,,,,,,,,,,,,,,,,,,,,,,,,,,,,,,,,,,,,,,,,,,,,,,,,,,,,,,,,,,,,,,,,,,,,,,,,,,,,,,,,,,,,,,,,,,,,,,,,,,,,,,,,,,,,,,,,,,,,,,,,,,,,,,,
,,,,,,61544ec77d9db5f95283802e,62c53a48ac5d8d31fb792f65,2022-07-06_09h36.36.388,Colour_Asymmetry_Pilot,2022.1.3,Win32,59.74072525,62c50e9c1127f2cd403a315f,0,118,118,11,1,twofour,,,,,,,,,,,,,,,,,,,,,,,,,,,,,,,,,,,,,,,,,,,,,,,,,,,,,,,,,,,,,,,,,,,,,,,,,,,,,,,,,,,,,,,,,,,,,,,,,,,,,,,,,,,,,,,,,,,,,,,,,,,,,,,,,,,,,,,,,,,,,,,,,,,,,,,,,,,,,
,,,,,,61544ec77d9db5f95283802e,62c53a48ac5d8d31fb792f65,2022-07-06_09h36.36.388,Colour_Asymmetry_Pilot,2022.1.3,Win32,59.74072525,62c50e9c1127f2cd403a315f,0,119,119,128,1,onetwo,,,,,,,,,,,,,,,,,,,,,,,,,,,,,,,,,,,,,,,,,,,,,,,,,,,,,,,,,,,,,,,,,,,,,,,,,,,,,,,,,,,,,,,,,,,,,,,,,,,,,,,,,,,,,,,,,,,,,,,,,,,,,,,,,,,,,,,,,,,,,,,,,,,,,,,,,,,,,
,,,,,,61544ec77d9db5f95283802e,62c53a48ac5d8d31fb792f65,2022-07-06_09h36.36.388,Colour_Asymmetry_Pilot,2022.1.3,Win32,59.74072525,62c50e9c1127f2cd403a315f,0,120,120,6,1,fourtwo,,,,,,,,,,,,,,,,,,,,,,,,,,,,,,,,,,,,,,,,,,,,,,,,,,,,,,,,,,,,,,,,,,,,,,,,,,,,,,,,,,,,,,,,,,,,,,,,,,,,,,,,,,,,,,,,,,,,,,,,,,,,,,,,,,,,,,,,,,,,,,,,,,,,,,,,,,,,,
,,,,,,61544ec77d9db5f95283802e,62c53a48ac5d8d31fb792f65,2022-07-06_09h36.36.388,Colour_Asymmetry_Pilot,2022.1.3,Win32,59.74072525,62c50e9c1127f2cd403a315f,0,121,121,25,1,onethree,,,,,,,,,,,,,,,,,,,,,,,,,,,,,,,,,,,,,,,,,,,,,,,,,,,,,,,,,,,,,,,,,,,,,,,,,,,,,,,,,,,,,,,,,,,,,,,,,,,,,,,,,,,,,,,,,,,,,,,,,,,,,,,,,,,,,,,,,,,,,,,,,,,,,,,,,,,,,
,,,,,,61544ec77d9db5f95283802e,62c53a48ac5d8d31fb792f65,2022-07-06_09h36.36.388,Colour_Asymmetry_Pilot,2022.1.3,Win32,59.74072525,62c50e9c1127f2cd403a315f,0,122,122,100,1,threeone,,,,,,,,,,,,,,,,,,,,,,,,,,,,,,,,,,,,,,,,,,,,,,,,,,,,,,,,,,,,,,,,,,,,,,,,,,,,,,,,,,,,,,,,,,,,,,,,,,,,,,,,,,,,,,,,,,,,,,,,,,,,,,,,,,,,,,,,,,,,,,,,,,,,,,,,,,,,,
,,,,,,61544ec77d9db5f95283802e,62c53a48ac5d8d31fb792f65,2022-07-06_09h36.36.388,Colour_Asymmetry_Pilot,2022.1.3,Win32,59.74072525,62c50e9c1127f2cd403a315f,0,123,123,65,1,onethree,,,,,,,,,,,,,,,,,,,,,,,,,,,,,,,,,,,,,,,,,,,,,,,,,,,,,,,,,,,,,,,,,,,,,,,,,,,,,,,,,,,,,,,,,,,,,,,,,,,,,,,,,,,,,,,,,,,,,,,,,,,,,,,,,,,,,,,,,,,,,,,,,,,,,,,,,,,,,
,,,,,,61544ec77d9db5f95283802e,62c53a48ac5d8d31fb792f65,2022-07-06_09h36.36.388,Colour_Asymmetry_Pilot,2022.1.3,Win32,59.74072525,62c50e9c1127f2cd403a315f,0,124,124,149,1,threefour,,,,,,,,,,,,,,,,,,,,,,,,,,,,,,,,,,,,,,,,,,,,,,,,,,,,,,,,,,,,,,,,,,,,,,,,,,,,,,,,,,,,,,,,,,,,,,,,,,,,,,,,,,,,,,,,,,,,,,,,,,,,,,,,,,,,,,,,,,,,,,,,,,,,,,,,,,,,,
,,,,,,61544ec77d9db5f95283802e,62c53a48ac5d8d31fb792f65,2022-07-06_09h36.36.388,Colour_Asymmetry_Pilot,2022.1.3,Win32,59.74072525,62c50e9c1127f2cd403a315f,0,125,125,145,1,onethree,,,,,,,,,,,,,,,,,,,,,,,,,,,,,,,,,,,,,,,,,,,,,,,,,,,,,,,,,,,,,,,,,,,,,,,,,,,,,,,,,,,,,,,,,,,,,,,,,,,,,,,,,,,,,,,,,,,,,,,,,,,,,,,,,,,,,,,,,,,,,,,,,,,,,,,,,,,,,
,,,,,,61544ec77d9db5f95283802e,62c53a48ac5d8d31fb792f65,2022-07-06_09h36.36.388,Colour_Asymmetry_Pilot,2022.1.3,Win32,59.74072525,62c50e9c1127f2cd403a315f,0,126,126,140,1,threeone,,,,,,,,,,,,,,,,,,,,,,,,,,,,,,,,,,,,,,,,,,,,,,,,,,,,,,,,,,,,,,,,,,,,,,,,,,,,,,,,,,,,,,,,,,,,,,,,,,,,,,,,,,,,,,,,,,,,,,,,,,,,,,,,,,,,,,,,,,,,,,,,,,,,,,,,,,,,,
,,,,,,61544ec77d9db5f95283802e,62c53a48ac5d8d31fb792f65,2022-07-06_09h36.36.388,Colour_Asymmetry_Pilot,2022.1.3,Win32,59.74072525,62c50e9c1127f2cd403a315f,0,127,127,60,1,threeone,,,,,,,,,,,,,,,,,,,,,,,,,,,,,,,,,,,,,,,,,,,,,,,,,,,,,,,,,,,,,,,,,,,,,,,,,,,,,,,,,,,,,,,,,,,,,,,,,,,,,,,,,,,,,,,,,,,,,,,,,,,,,,,,,,,,,,,,,,,,,,,,,,,,,,,,,,,,,
,,,,,,61544ec77d9db5f95283802e,62c53a48ac5d8d31fb792f65,2022-07-06_09h36.36.388,Colour_Asymmetry_Pilot,2022.1.3,Win32,59.74072525,62c50e9c1127f2cd403a315f,0,128,128,120,1,onetwo,,,,,,,,,,,,,,,,,,,,,,,,,,,,,,,,,,,,,,,,,,,,,,,,,,,,,,,,,,,,,,,,,,,,,,,,,,,,,,,,,,,,,,,,,,,,,,,,,,,,,,,,,,,,,,,,,,,,,,,,,,,,,,,,,,,,,,,,,,,,,,,,,,,,,,,,,,,,,
,,,,,,61544ec77d9db5f95283802e,62c53a48ac5d8d31fb792f65,2022-07-06_09h36.36.388,Colour_Asymmetry_Pilot,2022.1.3,Win32,59.74072525,62c50e9c1127f2cd403a315f,0,129,129,1,1,onethree,,,,,,,,,,,,,,,,,,,,,,,,,,,,,,,,,,,,,,,,,,,,,,,,,,,,,,,,,,,,,,,,,,,,,,,,,,,,,,,,,,,,,,,,,,,,,,,,,,,,,,,,,,,,,,,,,,,,,,,,,,,,,,,,,,,,,,,,,,,,,,,,,,,,,,,,,,,,,
,,,,,,61544ec77d9db5f95283802e,62c53a48ac5d8d31fb792f65,2022-07-06_09h36.36.388,Colour_Asymmetry_Pilot,2022.1.3,Win32,59.74072525,62c50e9c1127f2cd403a315f,0,130,130,8,1,onetwo,,,,,,,,,,,,,,,,,,,,,,,,,,,,,,,,,,,,,,,,,,,,,,,,,,,,,,,,,,,,,,,,,,,,,,,,,,,,,,,,,,,,,,,,,,,,,,,,,,,,,,,,,,,,,,,,,,,,,,,,,,,,,,,,,,,,,,,,,,,,,,,,,,,,,,,,,,,,,
,,,,,,61544ec77d9db5f95283802e,62c53a48ac5d8d31fb792f65,2022-07-06_09h36.36.388,Colour_Asymmetry_Pilot,2022.1.3,Win32,59.74072525,62c50e9c1127f2cd403a315f,0,131,131,122,1,twoone,,,,,,,,,,,,,,,,,,,,,,,,,,,,,,,,,,,,,,,,,,,,,,,,,,,,,,,,,,,,,,,,,,,,,,,,,,,,,,,,,,,,,,,,,,,,,,,,,,,,,,,,,,,,,,,,,,,,,,,,,,,,,,,,,,,,,,,,,,,,,,,,,,,,,,,,,,,,,
,,,,,,61544ec77d9db5f95283802e,62c53a48ac5d8d31fb792f65,2022-07-06_09h36.36.388,Colour_Asymmetry_Pilot,2022.1.3,Win32,59.74072525,62c50e9c1127f2cd403a315f,0,132,132,63,1,fourthree,,,,,,,,,,,,,,,,,,,,,,,,,,,,,,,,,,,,,,,,,,,,,,,,,,,,,,,,,,,,,,,,,,,,,,,,,,,,,,,,,,,,,,,,,,,,,,,,,,,,,,,,,,,,,,,,,,,,,,,,,,,,,,,,,,,,,,,,,,,,,,,,,,,,,,,,,,,,,
,,,,,,61544ec77d9db5f95283802e,62c53a48ac5d8d31fb792f65,2022-07-06_09h36.36.388,Colour_Asymmetry_Pilot,2022.1.3,Win32,59.74072525,62c50e9c1127f2cd403a315f,0,133,133,33,1,onethree,,,,,,,,,,,,,,,,,,,,,,,,,,,,,,,,,,,,,,,,,,,,,,,,,,,,,,,,,,,,,,,,,,,,,,,,,,,,,,,,,,,,,,,,,,,,,,,,,,,,,,,,,,,,,,,,,,,,,,,,,,,,,,,,,,,,,,,,,,,,,,,,,,,,,,,,,,,,,
,,,,,,61544ec77d9db5f95283802e,62c53a48ac5d8d31fb792f65,2022-07-06_09h36.36.388,Colour_Asymmetry_Pilot,2022.1.3,Win32,59.74072525,62c50e9c1127f2cd403a315f,0,134,134,52,1,threeone,,,,,,,,,,,,,,,,,,,,,,,,,,,,,,,,,,,,,,,,,,,,,,,,,,,,,,,,,,,,,,,,,,,,,,,,,,,,,,,,,,,,,,,,,,,,,,,,,,,,,,,,,,,,,,,,,,,,,,,,,,,,,,,,,,,,,,,,,,,,,,,,,,,,,,,,,,,,,
,,,,,,61544ec77d9db5f95283802e,62c53a48ac5d8d31fb792f65,2022-07-06_09h36.36.388,Colour_Asymmetry_Pilot,2022.1.3,Win32,59.74072525,62c50e9c1127f2cd403a315f,0,135,135,30,1,fourtwo,,,,,,,,,,,,,,,,,,,,,,,,,,,,,,,,,,,,,,,,,,,,,,,,,,,,,,,,,,,,,,,,,,,,,,,,,,,,,,,,,,,,,,,,,,,,,,,,,,,,,,,,,,,,,,,,,,,,,,,,,,,,,,,,,,,,,,,,,,,,,,,,,,,,,,,,,,,,,
,,,,,,61544ec77d9db5f95283802e,62c53a48ac5d8d31fb792f65,2022-07-06_09h36.36.388,Colour_Asymmetry_Pilot,2022.1.3,Win32,59.74072525,62c50e9c1127f2cd403a315f,0,136,136,38,1,fourtwo,,,,,,,,,,,,,,,,,,,,,,,,,,,,,,,,,,,,,,,,,,,,,,,,,,,,,,,,,,,,,,,,,,,,,,,,,,,,,,,,,,,,,,,,,,,,,,,,,,,,,,,,,,,,,,,,,,,,,,,,,,,,,,,,,,,,,,,,,,,,,,,,,,,,,,,,,,,,,
,,,,,,61544ec77d9db5f95283802e,62c53a48ac5d8d31fb792f65,2022-07-06_09h36.36.388,Colour_Asymmetry_Pilot,2022.1.3,Win32,59.74072525,62c50e9c1127f2cd403a315f,0,137,137,2,1,twoone,,,,,,,,,,,,,,,,,,,,,,,,,,,,,,,,,,,,,,,,,,,,,,,,,,,,,,,,,,,,,,,,,,,,,,,,,,,,,,,,,,,,,,,,,,,,,,,,,,,,,,,,,,,,,,,,,,,,,,,,,,,,,,,,,,,,,,,,,,,,,,,,,,,,,,,,,,,,,
,,,,,,61544ec77d9db5f95283802e,62c53a48ac5d8d31fb792f65,2022-07-06_09h36.36.388,Colour_Asymmetry_Pilot,2022.1.3,Win32,59.74072525,62c50e9c1127f2cd403a315f,0,138,138,90,1,twoone,,,,,,,,,,,,,,,,,,,,,,,,,,,,,,,,,,,,,,,,,,,,,,,,,,,,,,,,,,,,,,,,,,,,,,,,,,,,,,,,,,,,,,,,,,,,,,,,,,,,,,,,,,,,,,,,,,,,,,,,,,,,,,,,,,,,,,,,,,,,,,,,,,,,,,,,,,,,,
,,,,,,61544ec77d9db5f95283802e,62c53a48ac5d8d31fb792f65,2022-07-06_09h36.36.388,Colour_Asymmetry_Pilot,2022.1.3,Win32,59.74072525,62c50e9c1127f2cd403a315f,0,139,139,20,1,threeone,,,,,,,,,,,,,,,,,,,,,,,,,,,,,,,,,,,,,,,,,,,,,,,,,,,,,,,,,,,,,,,,,,,,,,,,,,,,,,,,,,,,,,,,,,,,,,,,,,,,,,,,,,,,,,,,,,,,,,,,,,,,,,,,,,,,,,,,,,,,,,,,,,,,,,,,,,,,,
,,,,,,61544ec77d9db5f95283802e,62c53a48ac5d8d31fb792f65,2022-07-06_09h36.36.388,Colour_Asymmetry_Pilot,2022.1.3,Win32,59.74072525,62c50e9c1127f2cd403a315f,0,140,140,43,1,twofour,,,,,,,,,,,,,,,,,,,,,,,,,,,,,,,,,,,,,,,,,,,,,,,,,,,,,,,,,,,,,,,,,,,,,,,,,,,,,,,,,,,,,,,,,,,,,,,,,,,,,,,,,,,,,,,,,,,,,,,,,,,,,,,,,,,,,,,,,,,,,,,,,,,,,,,,,,,,,
,,,,,,61544ec77d9db5f95283802e,62c53a48ac5d8d31fb792f65,2022-07-06_09h36.36.388,Colour_Asymmetry_Pilot,2022.1.3,Win32,59.74072525,62c50e9c1127f2cd403a315f,0,141,141,89,1,onethree,,,,,,,,,,,,,,,,,,,,,,,,,,,,,,,,,,,,,,,,,,,,,,,,,,,,,,,,,,,,,,,,,,,,,,,,,,,,,,,,,,,,,,,,,,,,,,,,,,,,,,,,,,,,,,,,,,,,,,,,,,,,,,,,,,,,,,,,,,,,,,,,,,,,,,,,,,,,,
,,,,,,61544ec77d9db5f95283802e,62c53a48ac5d8d31fb792f65,2022-07-06_09h36.36.388,Colour_Asymmetry_Pilot,2022.1.3,Win32,59.74072525,62c50e9c1127f2cd403a315f,0,142,142,10,1,twoone,,,,,,,,,,,,,,,,,,,,,,,,,,,,,,,,,,,,,,,,,,,,,,,,,,,,,,,,,,,,,,,,,,,,,,,,,,,,,,,,,,,,,,,,,,,,,,,,,,,,,,,,,,,,,,,,,,,,,,,,,,,,,,,,,,,,,,,,,,,,,,,,,,,,,,,,,,,,,
,,,,,,61544ec77d9db5f95283802e,62c53a48ac5d8d31fb792f65,2022-07-06_09h36.36.388,Colour_Asymmetry_Pilot,2022.1.3,Win32,59.74072525,62c50e9c1127f2cd403a315f,0,143,143,160,1,onetwo,,,,,,,,,,,,,,,,,,,,,,,,,,,,,,,,,,,,,,,,,,,,,,,,,,,,,,,,,,,,,,,,,,,,,,,,,,,,,,,,,,,,,,,,,,,,,,,,,,,,,,,,,,,,,,,,,,,,,,,,,,,,,,,,,,,,,,,,,,,,,,,,,,,,,,,,,,,,,
,,,,,,61544ec77d9db5f95283802e,62c53a48ac5d8d31fb792f65,2022-07-06_09h36.36.388,Colour_Asymmetry_Pilot,2022.1.3,Win32,59.74072525,62c50e9c1127f2cd403a315f,0,144,144,135,1,fourthree,,,,,,,,,,,,,,,,,,,,,,,,,,,,,,,,,,,,,,,,,,,,,,,,,,,,,,,,,,,,,,,,,,,,,,,,,,,,,,,,,,,,,,,,,,,,,,,,,,,,,,,,,,,,,,,,,,,,,,,,,,,,,,,,,,,,,,,,,,,,,,,,,,,,,,,,,,,,,
,,,,,,61544ec77d9db5f95283802e,62c53a48ac5d8d31fb792f65,2022-07-06_09h36.36.388,Colour_Asymmetry_Pilot,2022.1.3,Win32,59.74072525,62c50e9c1127f2cd403a315f,0,145,145,93,1,threefour,,,,,,,,,,,,,,,,,,,,,,,,,,,,,,,,,,,,,,,,,,,,,,,,,,,,,,,,,,,,,,,,,,,,,,,,,,,,,,,,,,,,,,,,,,,,,,,,,,,,,,,,,,,,,,,,,,,,,,,,,,,,,,,,,,,,,,,,,,,,,,,,,,,,,,,,,,,,,
,,,,,,61544ec77d9db5f95283802e,62c53a48ac5d8d31fb792f65,2022-07-06_09h36.36.388,Colour_Asymmetry_Pilot,2022.1.3,Win32,59.74072525,62c50e9c1127f2cd403a315f,0,146,146,126,1,fourtwo,,,,,,,,,,,,,,,,,,,,,,,,,,,,,,,,,,,,,,,,,,,,,,,,,,,,,,,,,,,,,,,,,,,,,,,,,,,,,,,,,,,,,,,,,,,,,,,,,,,,,,,,,,,,,,,,,,,,,,,,,,,,,,,,,,,,,,,,,,,,,,,,,,,,,,,,,,,,,
,,,,,,61544ec77d9db5f95283802e,62c53a48ac5d8d31fb792f65,2022-07-06_09h36.36.388,Colour_Asymmetry_Pilot,2022.1.3,Win32,59.74072525,62c50e9c1127f2cd403a315f,0,147,147,16,1,onetwo,,,,,,,,,,,,,,,,,,,,,,,,,,,,,,,,,,,,,,,,,,,,,,,,,,,,,,,,,,,,,,,,,,,,,,,,,,,,,,,,,,,,,,,,,,,,,,,,,,,,,,,,,,,,,,,,,,,,,,,,,,,,,,,,,,,,,,,,,,,,,,,,,,,,,,,,,,,,,
,,,,,,61544ec77d9db5f95283802e,62c53a48ac5d8d31fb792f65,2022-07-06_09h36.36.388,Colour_Asymmetry_Pilot,2022.1.3,Win32,59.74072525,62c50e9c1127f2cd403a315f,0,148,148,111,1,fourthree,,,,,,,,,,,,,,,,,,,,,,,,,,,,,,,,,,,,,,,,,,,,,,,,,,,,,,,,,,,,,,,,,,,,,,,,,,,,,,,,,,,,,,,,,,,,,,,,,,,,,,,,,,,,,,,,,,,,,,,,,,,,,,,,,,,,,,,,,,,,,,,,,,,,,,,,,,,,,
,,,,,,61544ec77d9db5f95283802e,62c53a48ac5d8d31fb792f65,2022-07-06_09h36.36.388,Colour_Asymmetry_Pilot,2022.1.3,Win32,59.74072525,62c50e9c1127f2cd403a315f,0,149,149,71,1,fourthree,,,,,,,,,,,,,,,,,,,,,,,,,,,,,,,,,,,,,,,,,,,,,,,,,,,,,,,,,,,,,,,,,,,,,,,,,,,,,,,,,,,,,,,,,,,,,,,,,,,,,,,,,,,,,,,,,,,,,,,,,,,,,,,,,,,,,,,,,,,,,,,,,,,,,,,,,,,,,
,,,,,,61544ec77d9db5f95283802e,62c53a48ac5d8d31fb792f65,2022-07-06_09h36.36.388,Colour_Asymmetry_Pilot,2022.1.3,Win32,59.74072525,62c50e9c1127f2cd403a315f,0,150,150,102,1,fourtwo,,,,,,,,,,,,,,,,,,,,,,,,,,,,,,,,,,,,,,,,,,,,,,,,,,,,,,,,,,,,,,,,,,,,,,,,,,,,,,,,,,,,,,,,,,,,,,,,,,,,,,,,,,,,,,,,,,,,,,,,,,,,,,,,,,,,,,,,,,,,,,,,,,,,,,,,,,,,,
,,,,,,61544ec77d9db5f95283802e,62c53a48ac5d8d31fb792f65,2022-07-06_09h36.36.388,Colour_Asymmetry_Pilot,2022.1.3,Win32,59.74072525,62c50e9c1127f2cd403a315f,0,151,151,88,1,onetwo,,,,,,,,,,,,,,,,,,,,,,,,,,,,,,,,,,,,,,,,,,,,,,,,,,,,,,,,,,,,,,,,,,,,,,,,,,,,,,,,,,,,,,,,,,,,,,,,,,,,,,,,,,,,,,,,,,,,,,,,,,,,,,,,,,,,,,,,,,,,,,,,,,,,,,,,,,,,,
,,,,,,61544ec77d9db5f95283802e,62c53a48ac5d8d31fb792f65,2022-07-06_09h36.36.388,Colour_Asymmetry_Pilot,2022.1.3,Win32,59.74072525,62c50e9c1127f2cd403a315f,0,152,152,134,1,fourtwo,,,,,,,,,,,,,,,,,,,,,,,,,,,,,,,,,,,,,,,,,,,,,,,,,,,,,,,,,,,,,,,,,,,,,,,,,,,,,,,,,,,,,,,,,,,,,,,,,,,,,,,,,,,,,,,,,,,,,,,,,,,,,,,,,,,,,,,,,,,,,,,,,,,,,,,,,,,,,
,,,,,,61544ec77d9db5f95283802e,62c53a48ac5d8d31fb792f65,2022-07-06_09h36.36.388,Colour_Asymmetry_Pilot,2022.1.3,Win32,59.74072525,62c50e9c1127f2cd403a315f,0,153,153,34,1,twoone,,,,,,,,,,,,,,,,,,,,,,,,,,,,,,,,,,,,,,,,,,,,,,,,,,,,,,,,,,,,,,,,,,,,,,,,,,,,,,,,,,,,,,,,,,,,,,,,,,,,,,,,,,,,,,,,,,,,,,,,,,,,,,,,,,,,,,,,,,,,,,,,,,,,,,,,,,,,,
,,,,,,61544ec77d9db5f95283802e,62c53a48ac5d8d31fb792f65,2022-07-06_09h36.36.388,Colour_Asymmetry_Pilot,2022.1.3,Win32,59.74072525,62c50e9c1127f2cd403a315f,0,154,154,29,1,threefour,,,,,,,,,,,,,,,,,,,,,,,,,,,,,,,,,,,,,,,,,,,,,,,,,,,,,,,,,,,,,,,,,,,,,,,,,,,,,,,,,,,,,,,,,,,,,,,,,,,,,,,,,,,,,,,,,,,,,,,,,,,,,,,,,,,,,,,,,,,,,,,,,,,,,,,,,,,,,
,,,,,,61544ec77d9db5f95283802e,62c53a48ac5d8d31fb792f65,2022-07-06_09h36.36.388,Colour_Asymmetry_Pilot,2022.1.3,Win32,59.74072525,62c50e9c1127f2cd403a315f,0,155,155,146,1,twoone,,,,,,,,,,,,,,,,,,,,,,,,,,,,,,,,,,,,,,,,,,,,,,,,,,,,,,,,,,,,,,,,,,,,,,,,,,,,,,,,,,,,,,,,,,,,,,,,,,,,,,,,,,,,,,,,,,,,,,,,,,,,,,,,,,,,,,,,,,,,,,,,,,,,,,,,,,,,,
,,,,,,61544ec77d9db5f95283802e,62c53a48ac5d8d31fb792f65,2022-07-06_09h36.36.388,Colour_Asymmetry_Pilot,2022.1.3,Win32,59.74072525,62c50e9c1127f2cd403a315f,0,156,156,4,1,threeone,,,,,,,,,,,,,,,,,,,,,,,,,,,,,,,,,,,,,,,,,,,,,,,,,,,,,,,,,,,,,,,,,,,,,,,,,,,,,,,,,,,,,,,,,,,,,,,,,,,,,,,,,,,,,,,,,,,,,,,,,,,,,,,,,,,,,,,,,,,,,,,,,,,,,,,,,,,,,
,,,,,,61544ec77d9db5f95283802e,62c53a48ac5d8d31fb792f65,2022-07-06_09h36.36.388,Colour_Asymmetry_Pilot,2022.1.3,Win32,59.74072525,62c50e9c1127f2cd403a315f,0,157,157,9,1,onethree,,,,,,,,,,,,,,,,,,,,,,,,,,,,,,,,,,,,,,,,,,,,,,,,,,,,,,,,,,,,,,,,,,,,,,,,,,,,,,,,,,,,,,,,,,,,,,,,,,,,,,,,,,,,,,,,,,,,,,,,,,,,,,,,,,,,,,,,,,,,,,,,,,,,,,,,,,,,,
,,,,,,61544ec77d9db5f95283802e,62c53a48ac5d8d31fb792f65,2022-07-06_09h36.36.388,Colour_Asymmetry_Pilot,2022.1.3,Win32,59.74072525,62c50e9c1127f2cd403a315f,0,158,158,18,1,twoone,,,,,,,,,,,,,,,,,,,,,,,,,,,,,,,,,,,,,,,,,,,,,,,,,,,,,,,,,,,,,,,,,,,,,,,,,,,,,,,,,,,,,,,,,,,,,,,,,,,,,,,,,,,,,,,,,,,,,,,,,,,,,,,,,,,,,,,,,,,,,,,,,,,,,,,,,,,,,
,,,,,,61544ec77d9db5f95283802e,62c53a48ac5d8d31fb792f65,2022-07-06_09h36.36.388,Colour_Asymmetry_Pilot,2022.1.3,Win32,59.74072525,62c50e9c1127f2cd403a315f,0,159,159,133,1,threefour,,,,,,,,,,,,,,,,,,,,,,,,,,,,,,,,,,,,,,,,,,,,,,,,,,,,,,,,,,,,,,,,,,,,,,,,,,,,,,,,,,,,,,,,,,,,,,,,,,,,,,,,,,,,,,,,,,,,,,,,,,,,,,,,,,,,,,,,,,,,,,,,,,,,,,,,,,,,,
,,,,,,61544ec77d9db5f95283802e,62c53a48ac5d8d31fb792f65,2022-07-06_09h36.36.388,Colour_Asymmetry_Pilot,2022.1.3,Win32,59.74072525,62c50e9c1127f2cd403a315f,0,160,160,55,1,fourthree,,,,,,,,,,,,,,,,,,,,,,,,,,,,,,,,,,,,,,,,,,,,,,,,,,,,,,,,,,,,,,,,,,,,,,,,,,,,,,,,,,,,,,,,,,,,,,,,,,,,,,,,,,,,,,,,,,,,,,,,,,,,,,,,,,,,,,,,,,,,,,,,,,,,,,,,,,,,,
,,,,,,61544ec77d9db5f95283802e,62c53a48ac5d8d31fb792f65,2022-07-06_09h36.36.388,Colour_Asymmetry_Pilot,2022.1.3,Win32,59.74072525,62c50e9c1127f2cd403a315f,0,161,161,87,1,fourthree,,,,,,,,,,,,,,,,,,,,,,,,,,,,,,,,,,,,,,,,,,,,,,,,,,,,,,,,,,,,,,,,,,,,,,,,,,,,,,,,,,,,,,,,,,,,,,,,,,,,,,,,,,,,,,,,,,,,,,,,,,,,,,,,,,,,,,,,,,,,,,,,,,,,,,,,,,,,,
,,,,,,61544ec77d9db5f95283802e,62c53a48ac5d8d31fb792f65,2022-07-06_09h36.36.388,Colour_Asymmetry_Pilot,2022.1.3,Win32,59.74072525,62c50e9c1127f2cd403a315f,,,,,,,space,1.4469,space,42.0033,space,55.0601,space,12.2294,space,2.7359,space,4.332,"[0.9686000000000001,0.3802000000000001,0.19999999999999996]",fourtwo,"[0.9213999999999998,0.6391999999999998,-0.9922]",3,4.9318,66,30,1,0,0,response1disk_5,3,1,1,0,0,rectangle_8,3,1,1,0,0,2,3,1,1,0,0,0,0,0,0,1,,,,,,,,,,,,,,,,,,,,,,,,,,,,,,,,,,,,,,,,,,,,,,,,,,,,,,,,,,,,,,,,,,,,,,,,,,,,,,,,,,,,,,,,,,,,,,,,,,,,,,,,,,,,,,,,
,,,,,,61544ec77d9db5f95283802e,62c53a48ac5d8d31fb792f65,2022-07-06_09h36.36.388,Colour_Asymmetry_Pilot,2022.1.3,Win32,59.74072525,62c50e9c1127f2cd403a315f,,,,,,,,,,,,,,,,,,,"[-0.8118,-0.8198,-0.5452]",twoone,"[0.7018,0.7176,0.6155999999999999]",-4,2.2147,-27,61,1,0,0,response7disk_5,2,2,1,0,0,rectangle_8,2,2,1,0,0,2,2,2,1,0,0,1,0,1,0,1,,,,,,,,,,,,,,,,,,,,,,,,,,,,,,,,,,,,,,,,,,,,,,,,,,,,,,,,,,,,,,,,,,,,,,,,,,,,,,,,,,,,,,,,,,,,,,,,,,,,,,,,,,,,,,,,
,,,,,,61544ec77d9db5f95283802e,62c53a48ac5d8d31fb792f65,2022-07-06_09h36.36.388,Colour_Asymmetry_Pilot,2022.1.3,Win32,59.74072525,62c50e9c1127f2cd403a315f,,,,,,,,,,,,,,,,,,,"[-0.9688,-0.38039999999999996,-0.41979999999999995]",twofour,"[-0.34920000000000007,-0.702,-0.5216]",-1,2.374,-36,-78,1,0,0,response5disk_5,3,2,1,0,0,rectangle_8,3,2,1,0,0,2,3,2,1,0,0,2,0,2,0,1,,,,,,,,,,,,,,,,,,,,,,,,,,,,,,,,,,,,,,,,,,,,,,,,,,,,,,,,,,,,,,,,,,,,,,,,,,,,,,,,,,,,,,,,,,,,,,,,,,,,,,,,,,,,,,,,
,,,,,,61544ec77d9db5f95283802e,62c53a48ac5d8d31fb792f65,2022-07-06_09h36.36.388,Colour_Asymmetry_Pilot,2022.1.3,Win32,59.74072525,62c50e9c1127f2cd403a315f,,,,,,,,,,,,,,,,,,,"[0.7018,0.7176,0.6155999999999999]",threeone,"[0.23920000000000008,0.2704,0.16060000000000008]",2,2.1662,83,-51,1,0,0,response3disk_5,-9,-6,1,0,0,rectangle_8,70,-38,1,0,0,2,0,-5,1,0,0,3,0,3,0,1,response3disk_7,5,rectangle_4,,,,,,,,,,,,,,,,,,,,,,,,,,,,,,,,,,,,,,,,,,,,,,,,,,,,,,,,,,,,,,,,,,,,,,,,,,,,,,,,,,,,,,,,,,,,,,,,,,,,,,,,,,,,,
,,,,,,61544ec77d9db5f95283802e,62c53a48ac5d8d31fb792f65,2022-07-06_09h36.36.388,Colour_Asymmetry_Pilot,2022.1.3,Win32,59.74072525,62c50e9c1127f2cd403a315f,,,,,,,,,,,,,,,,,,,"[-0.6,0.16860000000000008,0.44300000000000006]",fourthree,"[0.3881999999999999,-0.23939999999999995,-0.05040000000000011]",-3,1.5597,-78,29,1,0,0,response7disk_5,12,2,1,0,0,rectangle_8,12,2,1,0,0,2,12,2,1,0,0,4,0,4,0,1,,,,,,,,,,,,,,,,,,,,,,,,,,,,,,,,,,,,,,,,,,,,,,,,,,,,,,,,,,,,,,,,,,,,,,,,,,,,,,,,,,,,,,,,,,,,,,,,,,,,,,,,,,,,,,,,
,,,,,,61544ec77d9db5f95283802e,62c53a48ac5d8d31fb792f65,2022-07-06_09h36.36.388,Colour_Asymmetry_Pilot,2022.1.3,Win32,59.74072525,62c50e9c1127f2cd403a315f,,,,,,,,,,,,,,,,,,,"[-0.9688,-0.4902000000000001,-0.12159999999999993]",onethree,"[-0.24719999999999998,0.5213999999999999,-0.12959999999999994]",-2,1.5669,-43,-30,1,0,0,response5disk_5,9,-5,1,0,0,rectangle_8,9,-5,1,0,0,2,9,-5,1,0,0,5,0,5,0,1,,,,,,,,,,,,,,,,,,,,,,,,,,,,,,,,,,,,,,,,,,,,,,,,,,,,,,,,,,,,,,,,,,,,,,,,,,,,,,,,,,,,,,,,,,,,,,,,,,,,,,,,,,,,,,,,
,,,,,,61544ec77d9db5f95283802e,62c53a48ac5d8d31fb792f65,2022-07-06_09h36.36.388,Colour_Asymmetry_Pilot,2022.1.3,Win32,59.74072525,62c50e9c1127f2cd403a315f,,,,,,,,,,,,,,,,,,,"[0.5528,0.7409999999999999,-0.71]",twoone,"[0.9763999999999999,0.30979999999999985,-0.6786]",2,1.55,80,-37,1,0,0,response3disk_5,-14,2,1,0,0,rectangle_8,-14,2,1,0,0,2,-14,2,1,0,0,6,0,6,0,1,,,,,,,,,,,,,,,,,,,,,,,,,,,,,,,,,,,,,,,,,,,,,,,,,,,,,,,,,,,,,,,,,,,,,,,,,,,,,,,,,,,,,,,,,,,,,,,,,,,,,,,,,,,,,,,,
,,,,,,61544ec77d9db5f95283802e,62c53a48ac5d8d31fb792f65,2022-07-06_09h36.36.388,Colour_Asymmetry_Pilot,2022.1.3,Win32,59.74072525,62c50e9c1127f2cd403a315f,,,,,,,,,,,,,,,,,,,,threeone,,-2,3.5053,,,,,,,,,,,,,,,,,,,,,,,,,,,,,,,,space,3.671,"[-0.4746,-0.0354000000000001,0.5449999999999999]","[0.6547999999999998,-0.043199999999999905,-0.011800000000000033]",-62,-25,1,0,0,response5disk,-3,4,1,0,0,rectangle,-3,4,1,0,0,,2,0.003,0,-3,4,1,0,0,0,0,0,150,1,69,second,,,,,,,,,,,,,,,,,,,,,,,,,,,,,,,,,,,,,,,,,,,,,,,,,,,,,,,,,,,,,,,,,,,,,,,,
,,,,,,61544ec77d9db5f95283802e,62c53a48ac5d8d31fb792f65,2022-07-06_09h36.36.388,Colour_Asymmetry_Pilot,2022.1.3,Win32,59.74072525,62c50e9c1127f2cd403a315f,,,,,,,,,,,,,,,,,,,,twofour,,-2,0.9842,,,,,,,,,,,,,,,,,,,,,,,,,,,,,,,,,,"[0.7176,-0.906,-0.6864]","[0.9763999999999999,0.8588,-0.05900000000000005]",-54,-28,1,0,0,response5disk,5,-4,1,0,0,rectangle,5,-4,1,0,0,,1,0.0009,0,5,-4,1,0,0,0,1,1,28,1,28,first,,,,,,,,,,,,,,,,,,,,,,,,,,,,,,,,,,,,,,,,,,,,,,,,,,,,,,,,,,,,,,,,,,,,,,,,
,,,,,,61544ec77d9db5f95283802e,62c53a48ac5d8d31fb792f65,2022-07-06_09h36.36.388,Colour_Asymmetry_Pilot,2022.1.3,Win32,59.74072525,62c50e9c1127f2cd403a315f,,,,,,,,,,,,,,,,,,,,twoone,,-4,0.7258,,,,,,,,,,,,,,,,,,,,,,,,,,,,,,,,,,"[-0.07459999999999989,0.12139999999999995,-0.9922]","[-0.6235999999999999,-0.6786,-0.08239999999999992]",-34,51,1,0,0,response7disk,-1,-2,1,0,0,rectangle,-1,-2,1,0,0,,2,0.0009,0,-1,-2,1,0,0,0,2,2,146,1,65,second,,,,,,,,,,,,,,,,,,,,,,,,,,,,,,,,,,,,,,,,,,,,,,,,,,,,,,,,,,,,,,,,,,,,,,,,
,,,,,,61544ec77d9db5f95283802e,62c53a48ac5d8d31fb792f65,2022-07-06_09h36.36.388,Colour_Asymmetry_Pilot,2022.1.3,Win32,59.74072525,62c50e9c1127f2cd403a315f,,,,,,,,,,,,,,,,,,,,threeone,,1,0.892,,,,,,,,,,,,,,,,,,,,,,,,,,,,,,,,,,"[-0.9766,-0.6472,0.07440000000000002]","[-0.26280000000000003,-0.2158,-0.3256]",39,-85,1,0,0,response3disk,-4,0,1,0,0,rectangle,-4,0,1,0,0,,2,0.0003,0,-4,0,1,0,0,0,3,3,13,1,13,first,,,,,,,,,,,,,,,,,,,,,,,,,,,,,,,,,,,,,,,,,,,,,,,,,,,,,,,,,,,,,,,,,,,,,,,,
,,,,,,61544ec77d9db5f95283802e,62c53a48ac5d8d31fb792f65,2022-07-06_09h36.36.388,Colour_Asymmetry_Pilot,2022.1.3,Win32,59.74072525,62c50e9c1127f2cd403a315f,,,,,,,,,,,,,,,,,,,,threefour,,3,1.0424,,,,,,,,,,,,,,,,,,,,,,,,,,,,,,,,,,"[-0.9766,-0.34920000000000007,0.2156]","[-0.20799999999999996,-0.655,-0.01980000000000004]",77,24,1,0,0,response1disk,-6,-3,1,0,0,rectangle,-6,-3,1,0,0,,2,0.0004,0,-6,-3,1,0,0,0,4,4,52,1,52,first,,,,,,,,,,,,,,,,,,,,,,,,,,,,,,,,,,,,,,,,,,,,,,,,,,,,,,,,,,,,,,,,,,,,,,,,
,,,,,,61544ec77d9db5f95283802e,62c53a48ac5d8d31fb792f65,2022-07-06_09h36.36.388,Colour_Asymmetry_Pilot,2022.1.3,Win32,59.74072525,62c50e9c1127f2cd403a315f,,,,,,,,,,,,,,,,,,,,twofour,,3,1.2001,,,,,,,,,,,,,,,,,,,,,,,,,,,,,,,,,,"[0.23120000000000007,-0.7726,-0.34120000000000006]","[0.8115999999999999,-0.0040000000000000036,-0.09819999999999995]",79,38,1,0,0,response1disk,-4,5,1,0,0,rectangle,-4,5,1,0,0,,1,0.0011,0,-4,5,1,0,0,0,5,5,127,1,46,second,,,,,,,,,,,,,,,,,,,,,,,,,,,,,,,,,,,,,,,,,,,,,,,,,,,,,,,,,,,,,,,,,,,,,,,,
,,,,,,61544ec77d9db5f95283802e,62c53a48ac5d8d31fb792f65,2022-07-06_09h36.36.388,Colour_Asymmetry_Pilot,2022.1.3,Win32,59.74072525,62c50e9c1127f2cd403a315f,,,,,,,,,,,,,,,,,,,,fourtwo,,4,0.6085,,,,,,,,,,,,,,,,,,,,,,,,,,,,,,,,,,"[-0.2942,-0.7648,-0.7492000000000001]","[-0.5922000000000001,-0.7492000000000001,-0.5296000000000001]",31,70,1,0,0,response1disk,1,1,1,0,0,rectangle,1,1,1,0,0,,1,0.0003,0,1,1,1,0,0,0,6,6,105,1,24,second,,,,,,,,,,,,,,,,,,,,,,,,,,,,,,,,,,,,,,,,,,,,,,,,,,,,,,,,,,,,,,,,,,,,,,,,
,,,,,,61544ec77d9db5f95283802e,62c53a48ac5d8d31fb792f65,2022-07-06_09h36.36.388,Colour_Asymmetry_Pilot,2022.1.3,Win32,59.74072525,62c50e9c1127f2cd403a315f,,,,,,,,,,,,,,,,,,,,onetwo,,-2,0.777,,,,,,,,,,,,,,,,,,,,,,,,,,,,,,,,,,"[-0.24719999999999998,-0.0354000000000001,0.3175999999999999]","[0.0351999999999999,0.41159999999999997,0.0038000000000000256]",-56,-31,1,0,0,response5disk,7,-2,1,0,0,rectangle,7,-2,1,0,0,,3,0.0009,0,7,-2,1,0,0,0,7,7,124,1,43,second,,,,,,,,,,,,,,,,,,,,,,,,,,,,,,,,,,,,,,,,,,,,,,,,,,,,,,,,,,,,,,,,,,,,,,,,
,,,,,,61544ec77d9db5f95283802e,62c53a48ac5d8d31fb792f65,2022-07-06_09h36.36.388,Colour_Asymmetry_Pilot,2022.1.3,Win32,59.74072525,62c50e9c1127f2cd403a315f,,,,,,,,,,,,,,,,,,,,onetwo,,-3,0.758,,,,,,,,,,,,,,,,,,,,,,,,,,,,,,,,,,"[-0.9766,-0.34920000000000007,0.2156]","[0.5449999999999999,-0.31000000000000005,-0.0354000000000001]",-74,32,1,0,0,response7disk,-2,1,1,0,0,rectangle,-2,1,1,0,0,,2,0.0008,0,-2,1,1,0,0,0,8,8,132,1,51,second,,,,,,,,,,,,,,,,,,,,,,,,,,,,,,,,,,,,,,,,,,,,,,,,,,,,,,,,,,,,,,,,,,,,,,,,
,,,,,,61544ec77d9db5f95283802e,62c53a48ac5d8d31fb792f65,2022-07-06_09h36.36.388,Colour_Asymmetry_Pilot,2022.1.3,Win32,59.74072525,62c50e9c1127f2cd403a315f,,,,,,,,,,,,,,,,,,,,twoone,,-4,0.7363,,,,,,,,,,,,,,,,,,,,,,,,,,,,,,,,,,"[-0.34920000000000007,-0.702,-0.5216]","[0.2862,0.7802,0.3568]",-32,61,1,0,0,response7disk,-5,-1,1,0,0,rectangle,-5,-1,1,0,0,,2,0.0004,0,-5,-1,1,0,0,0,9,9,138,1,57,second,,,,,,,,,,,,,,,,,,,,,,,,,,,,,,,,,,,,,,,,,,,,,,,,,,,,,,,,,,,,,,,,,,,,,,,,
,,,,,,61544ec77d9db5f95283802e,62c53a48ac5d8d31fb792f65,2022-07-06_09h36.36.388,Colour_Asymmetry_Pilot,2022.1.3,Win32,59.74072525,62c50e9c1127f2cd403a315f,,,,,,,,,,,,,,,,,,,,twofour,,1,1.0211,,,,,,,,,,,,,,,,,,,,,,,,,,,,,,,,,,"[-0.5688,-0.08239999999999992,-0.1844]","[-0.9844,-0.9688,-0.9922]",55,-91,1,0,0,response3disk,-5,-4,1,0,0,rectangle,-5,-4,1,0,0,,2,0.0002,0,-5,-4,1,0,0,0,10,10,27,1,27,first,,,,,,,,,,,,,,,,,,,,,,,,,,,,,,,,,,,,,,,,,,,,,,,,,,,,,,,,,,,,,,,,,,,,,,,,
,,,,,,61544ec77d9db5f95283802e,62c53a48ac5d8d31fb792f65,2022-07-06_09h36.36.388,Colour_Asymmetry_Pilot,2022.1.3,Win32,59.74072525,62c50e9c1127f2cd403a315f,,,,,,,,,,,,,,,,,,,,fourtwo,,-1,1.1407,,,,,,,,,,,,,,,,,,,,,,,,,,,,,,,,,,"[0.23920000000000008,0.2704,0.16060000000000008]","[-0.9688,-0.38039999999999996,-0.41979999999999995]",-33,-78,1,0,0,response5disk,4,14,1,0,0,rectangle,4,14,1,0,0,,3,0.0025,0,4,14,1,0,0,0,11,11,143,1,62,second,,,,,,,,,,,,,,,,,,,,,,,,,,,,,,,,,,,,,,,,,,,,,,,,,,,,,,,,,,,,,,,,,,,,,,,,
,,,,,,61544ec77d9db5f95283802e,62c53a48ac5d8d31fb792f65,2022-07-06_09h36.36.388,Colour_Asymmetry_Pilot,2022.1.3,Win32,59.74072525,62c50e9c1127f2cd403a315f,,,,,,,,,,,,,,,,,,,,fourthree,,-3,0.8728,,,,,,,,,,,,,,,,,,,,,,,,,,,,,,,,,,"[0.7176,-0.906,-0.6864]","[0.37240000000000006,0.4980000000000002,-0.2864]",-68,18,1,0,0,response7disk,-2,-7,1,0,0,rectangle,-2,-7,1,0,0,,1,0.0014,0,-2,-7,1,0,0,0,12,12,157,1,76,second,,,,,,,,,,,,,,,,,,,,,,,,,,,,,,,,,,,,,,,,,,,,,,,,,,,,,,,,,,,,,,,,,,,,,,,,
,,,,,,61544ec77d9db5f95283802e,62c53a48ac5d8d31fb792f65,2022-07-06_09h36.36.388,Colour_Asymmetry_Pilot,2022.1.3,Win32,59.74072525,62c50e9c1127f2cd403a315f,,,,,,,,,,,,,,,,,,,,twoone,,-1,1.7738,,,,,,,,,,,,,,,,,,,,,,,,,,,,,,,,,,"[-0.8982,-0.37259999999999993,0.2784]","[-0.26280000000000003,-0.2158,-0.3256]",-25,-92,1,0,0,response5disk,-9,1,1,0,0,rectangle,-9,1,1,0,0,,3,0.0012,0,-9,1,1,0,0,0,13,13,40,1,40,first,,,,,,,,,,,,,,,,,,,,,,,,,,,,,,,,,,,,,,,,,,,,,,,,,,,,,,,,,,,,,,,,,,,,,,,,
,,,,,,61544ec77d9db5f95283802e,62c53a48ac5d8d31fb792f65,2022-07-06_09h36.36.388,Colour_Asymmetry_Pilot,2022.1.3,Win32,59.74072525,62c50e9c1127f2cd403a315f,,,,,,,,,,,,,,,,,,,,threefour,,3,0.8445,,,,,,,,,,,,,,,,,,,,,,,,,,,,,,,,,,"[0.9763999999999999,0.8588,-0.05900000000000005]","[0.9763999999999999,-0.1137999999999999,-0.6314]",84,63,1,0,0,response1disk,-10,-2,1,0,0,rectangle,-10,-2,1,0,0,,3,0.0002,0,-10,-2,1,0,0,0,14,14,42,1,42,first,,,,,,,,,,,,,,,,,,,,,,,,,,,,,,,,,,,,,,,,,,,,,,,,,,,,,,,,,,,,,,,,,,,,,,,,
,,,,,,61544ec77d9db5f95283802e,62c53a48ac5d8d31fb792f65,2022-07-06_09h36.36.388,Colour_Asymmetry_Pilot,2022.1.3,Win32,59.74072525,62c50e9c1127f2cd403a315f,,,,,,,,,,,,,,,,,,,,onethree,,4,0.5707,,,,,,,,,,,,,,,,,,,,,,,,,,,,,,,,,,"[0.37240000000000006,-0.050999999999999934,-0.5216]","[-0.17659999999999998,-0.2864,-0.8354]",36,74,1,0,0,response1disk,3,-4,1,0,0,rectangle,95,30,1,0,0,3,3,2.9592,1,-9,-4,1,0,0,0,15,15,159,1,78,second,response1disk_3,rectangle,,,,,,,,,,,,,,,,,,,,,,,,,,,,,,,,,,,,,,,,,,,,,,,,,,,,,,,,,,,,,,,,,,,,,,
,,,,,,61544ec77d9db5f95283802e,62c53a48ac5d8d31fb792f65,2022-07-06_09h36.36.388,Colour_Asymmetry_Pilot,2022.1.3,Win32,59.74072525,62c50e9c1127f2cd403a315f,,,,,,,,,,,,,,,,,,,,twoone,,1,0.864,,,,,,,,,,,,,,,,,,,,,,,,,,,,,,,,,,"[-0.9216,-0.5529999999999999,-0.3962]","[-0.09019999999999995,0.44300000000000006,0.5371999999999999]",62,-100,1,0,0,response3disk,0,2,1,0,0,rectangle,0,2,1,0,0,3,1,0.0009,0,0,2,1,0,0,0,16,16,31,1,31,first,,,,,,,,,,,,,,,,,,,,,,,,,,,,,,,,,,,,,,,,,,,,,,,,,,,,,,,,,,,,,,,,,,,,,,,,
,,,,,,61544ec77d9db5f95283802e,62c53a48ac5d8d31fb792f65,2022-07-06_09h36.36.388,Colour_Asymmetry_Pilot,2022.1.3,Win32,59.74072525,62c50e9c1127f2cd403a315f,,,,,,,,,,,,,,,,,,,,fourtwo,,3,0.6622,,,,,,,,,,,,,,,,,,,,,,,,,,,,,,,,,,"[0.3802000000000001,0.19199999999999995,-0.6394]","[0.9763999999999999,0.8588,-0.05900000000000005]",73,36,1,0,0,response1disk,1,-5,1,0,0,rectangle,1,-5,1,0,0,3,1,0.0003,0,1,-5,1,0,0,0,17,17,10,1,10,first,,,,,,,,,,,,,,,,,,,,,,,,,,,,,,,,,,,,,,,,,,,,,,,,,,,,,,,,,,,,,,,,,,,,,,,,
