trials.thisRepN,trials.thisTrialN,trials.thisN,trials.thisIndex,trials.ran,Colourcodes,participant,session,date,expName,psychopyVersion,OS,frameRate,study_id,trials_4.thisRepN,trials_4.thisTrialN,trials_4.thisN,trials_4.thisIndex,trials_4.ran,StimulusPos,key_resp.keys,key_resp.rt,key_resp_2.keys,key_resp_2.rt,key_resp_15.keys,key_resp_15.rt,key_resp_17.keys,key_resp_17.rt,key_resp_9.keys,key_resp_9.rt,key_resp_10.keys,key_resp_10.rt,Circle1_col,Ecc,Circle2_col,similarity,response_time,mouse_5.x,mouse_5.y,mouse_5.leftButton,mouse_5.midButton,mouse_5.rightButton,mouse_5.clicked_name,mouse_10.x,mouse_10.y,mouse_10.leftButton,mouse_10.midButton,mouse_10.rightButton,mouse_10.clicked_name,mouse_7.x,mouse_7.y,mouse_7.leftButton,mouse_7.midButton,mouse_7.rightButton,catchnumberprac,mouse_6.x,mouse_6.y,mouse_6.leftButton,mouse_6.midButton,mouse_6.rightButton,duringprac.thisRepN,duringprac.thisTrialN,duringprac.thisN,duringprac.thisIndex,duringprac.ran,key_resp_22.keys,key_resp_22.rt,Circle1_colour,Circle2_colour,mouse.x,mouse.y,mouse.leftButton,mouse.midButton,mouse.rightButton,mouse.clicked_name,mouse_2.x,mouse_2.y,mouse_2.leftButton,mouse_2.midButton,mouse_2.rightButton,mouse_2.clicked_name,mouse_3.x,mouse_3.y,mouse_3.leftButton,mouse_3.midButton,mouse_3.rightButton,catchresponse,catchnumber,response_time_catch,Catch,mouse_11.x,mouse_11.y,mouse_11.leftButton,mouse_11.midButton,mouse_11.rightButton,trials_2.thisRepN,trials_2.thisTrialN,trials_2.thisN,trials_2.thisIndex,trials_2.ran,Colourpair,Temporder,mouse_3.clicked_name,mouse_11.clicked_name,trials_3.thisRepN,trials_3.thisTrialN,trials_3.thisN,trials_3.thisIndex,trials_3.ran,key_resp_instr_Ishi.keys,key_resp_instr_Ishi.rt,Ishi_trial_keyresp.keys,Ishi_textbox.text,Ishi_mouse.x,Ishi_mouse.y,Ishi_mouse.leftButton,Ishi_mouse.midButton,Ishi_mouse.rightButton,Ishi_mouse.clicked_name,Ishi_loop.thisRepN,Ishi_loop.thisTrialN,Ishi_loop.thisN,Ishi_loop.thisIndex,Ishi_loop.ran,imageaddress,textbox.text,mouse_4.x,mouse_4.y,mouse_4.leftButton,mouse_4.midButton,mouse_4.rightButton,mouse_4.clicked_name,textbox_2.text,mouse_8.x,mouse_8.y,mouse_8.leftButton,mouse_8.midButton,mouse_8.rightButton,mouse_8.clicked_name,textbox_3.text,mouse_9.x,mouse_9.y,mouse_9.leftButton,mouse_9.midButton,mouse_9.rightButton,mouse_9.clicked_name,textbox_4.text,mouse_12.x,mouse_12.y,mouse_12.leftButton,mouse_12.midButton,mouse_12.rightButton,mouse_12.clicked_name,textbox_5.text,mouse_13.x,mouse_13.y,mouse_13.leftButton,mouse_13.midButton,mouse_13.rightButton,mouse_13.clicked_name,textbox_6.text,mouse_14.x,mouse_14.y,mouse_14.leftButton,mouse_14.midButton,mouse_14.rightButton,mouse_14.clicked_name,textbox_7.text,mouse_15.x,mouse_15.y,mouse_15.leftButton,mouse_15.midButton,mouse_15.rightButton,mouse_15.clicked_name
0,0,0,23,1,,603f6e643234e512fc197ae1,62c5561defbf919e4800deff,2022-07-06_11h56.59.305,Colour_Asymmetry_Pilot,2022.1.3,Win32,58.32604258,62c50e9c1127f2cd403a315f,,,,,,,,,,,,,,,,,,,,,,,,,,,,,,,,,,,,,,,,,,,,,,,,,,,,,,,,,,,,,,,,,,,,,,,,,,,,,,,,,,,,,,,,,,,,,,,,,,,,,,,,,,,,,,,,,,,,,,,,,,,,,,,,,,,,,,,,,,,,,,,,,,,,,,,,,,,,,,,,
0,1,1,4,1,,603f6e643234e512fc197ae1,62c5561defbf919e4800deff,2022-07-06_11h56.59.305,Colour_Asymmetry_Pilot,2022.1.3,Win32,58.32604258,62c50e9c1127f2cd403a315f,,,,,,,,,,,,,,,,,,,,,,,,,,,,,,,,,,,,,,,,,,,,,,,,,,,,,,,,,,,,,,,,,,,,,,,,,,,,,,,,,,,,,,,,,,,,,,,,,,,,,,,,,,,,,,,,,,,,,,,,,,,,,,,,,,,,,,,,,,,,,,,,,,,,,,,,,,,,,,,,
0,2,2,53,1,,603f6e643234e512fc197ae1,62c5561defbf919e4800deff,2022-07-06_11h56.59.305,Colour_Asymmetry_Pilot,2022.1.3,Win32,58.32604258,62c50e9c1127f2cd403a315f,,,,,,,,,,,,,,,,,,,,,,,,,,,,,,,,,,,,,,,,,,,,,,,,,,,,,,,,,,,,,,,,,,,,,,,,,,,,,,,,,,,,,,,,,,,,,,,,,,,,,,,,,,,,,,,,,,,,,,,,,,,,,,,,,,,,,,,,,,,,,,,,,,,,,,,,,,,,,,,,
0,3,3,43,1,,603f6e643234e512fc197ae1,62c5561defbf919e4800deff,2022-07-06_11h56.59.305,Colour_Asymmetry_Pilot,2022.1.3,Win32,58.32604258,62c50e9c1127f2cd403a315f,,,,,,,,,,,,,,,,,,,,,,,,,,,,,,,,,,,,,,,,,,,,,,,,,,,,,,,,,,,,,,,,,,,,,,,,,,,,,,,,,,,,,,,,,,,,,,,,,,,,,,,,,,,,,,,,,,,,,,,,,,,,,,,,,,,,,,,,,,,,,,,,,,,,,,,,,,,,,,,,
0,4,4,90,1,,603f6e643234e512fc197ae1,62c5561defbf919e4800deff,2022-07-06_11h56.59.305,Colour_Asymmetry_Pilot,2022.1.3,Win32,58.32604258,62c50e9c1127f2cd403a315f,,,,,,,,,,,,,,,,,,,,,,,,,,,,,,,,,,,,,,,,,,,,,,,,,,,,,,,,,,,,,,,,,,,,,,,,,,,,,,,,,,,,,,,,,,,,,,,,,,,,,,,,,,,,,,,,,,,,,,,,,,,,,,,,,,,,,,,,,,,,,,,,,,,,,,,,,,,,,,,,
0,5,5,62,1,,603f6e643234e512fc197ae1,62c5561defbf919e4800deff,2022-07-06_11h56.59.305,Colour_Asymmetry_Pilot,2022.1.3,Win32,58.32604258,62c50e9c1127f2cd403a315f,,,,,,,,,,,,,,,,,,,,,,,,,,,,,,,,,,,,,,,,,,,,,,,,,,,,,,,,,,,,,,,,,,,,,,,,,,,,,,,,,,,,,,,,,,,,,,,,,,,,,,,,,,,,,,,,,,,,,,,,,,,,,,,,,,,,,,,,,,,,,,,,,,,,,,,,,,,,,,,,
0,6,6,24,1,,603f6e643234e512fc197ae1,62c5561defbf919e4800deff,2022-07-06_11h56.59.305,Colour_Asymmetry_Pilot,2022.1.3,Win32,58.32604258,62c50e9c1127f2cd403a315f,,,,,,,,,,,,,,,,,,,,,,,,,,,,,,,,,,,,,,,,,,,,,,,,,,,,,,,,,,,,,,,,,,,,,,,,,,,,,,,,,,,,,,,,,,,,,,,,,,,,,,,,,,,,,,,,,,,,,,,,,,,,,,,,,,,,,,,,,,,,,,,,,,,,,,,,,,,,,,,,
0,7,7,8,1,,603f6e643234e512fc197ae1,62c5561defbf919e4800deff,2022-07-06_11h56.59.305,Colour_Asymmetry_Pilot,2022.1.3,Win32,58.32604258,62c50e9c1127f2cd403a315f,,,,,,,,,,,,,,,,,,,,,,,,,,,,,,,,,,,,,,,,,,,,,,,,,,,,,,,,,,,,,,,,,,,,,,,,,,,,,,,,,,,,,,,,,,,,,,,,,,,,,,,,,,,,,,,,,,,,,,,,,,,,,,,,,,,,,,,,,,,,,,,,,,,,,,,,,,,,,,,,
0,8,8,71,1,,603f6e643234e512fc197ae1,62c5561defbf919e4800deff,2022-07-06_11h56.59.305,Colour_Asymmetry_Pilot,2022.1.3,Win32,58.32604258,62c50e9c1127f2cd403a315f,,,,,,,,,,,,,,,,,,,,,,,,,,,,,,,,,,,,,,,,,,,,,,,,,,,,,,,,,,,,,,,,,,,,,,,,,,,,,,,,,,,,,,,,,,,,,,,,,,,,,,,,,,,,,,,,,,,,,,,,,,,,,,,,,,,,,,,,,,,,,,,,,,,,,,,,,,,,,,,,
0,9,9,91,1,,603f6e643234e512fc197ae1,62c5561defbf919e4800deff,2022-07-06_11h56.59.305,Colour_Asymmetry_Pilot,2022.1.3,Win32,58.32604258,62c50e9c1127f2cd403a315f,,,,,,,,,,,,,,,,,,,,,,,,,,,,,,,,,,,,,,,,,,,,,,,,,,,,,,,,,,,,,,,,,,,,,,,,,,,,,,,,,,,,,,,,,,,,,,,,,,,,,,,,,,,,,,,,,,,,,,,,,,,,,,,,,,,,,,,,,,,,,,,,,,,,,,,,,,,,,,,,
0,10,10,68,1,,603f6e643234e512fc197ae1,62c5561defbf919e4800deff,2022-07-06_11h56.59.305,Colour_Asymmetry_Pilot,2022.1.3,Win32,58.32604258,62c50e9c1127f2cd403a315f,,,,,,,,,,,,,,,,,,,,,,,,,,,,,,,,,,,,,,,,,,,,,,,,,,,,,,,,,,,,,,,,,,,,,,,,,,,,,,,,,,,,,,,,,,,,,,,,,,,,,,,,,,,,,,,,,,,,,,,,,,,,,,,,,,,,,,,,,,,,,,,,,,,,,,,,,,,,,,,,
0,11,11,76,1,,603f6e643234e512fc197ae1,62c5561defbf919e4800deff,2022-07-06_11h56.59.305,Colour_Asymmetry_Pilot,2022.1.3,Win32,58.32604258,62c50e9c1127f2cd403a315f,,,,,,,,,,,,,,,,,,,,,,,,,,,,,,,,,,,,,,,,,,,,,,,,,,,,,,,,,,,,,,,,,,,,,,,,,,,,,,,,,,,,,,,,,,,,,,,,,,,,,,,,,,,,,,,,,,,,,,,,,,,,,,,,,,,,,,,,,,,,,,,,,,,,,,,,,,,,,,,,
0,12,12,92,1,,603f6e643234e512fc197ae1,62c5561defbf919e4800deff,2022-07-06_11h56.59.305,Colour_Asymmetry_Pilot,2022.1.3,Win32,58.32604258,62c50e9c1127f2cd403a315f,,,,,,,,,,,,,,,,,,,,,,,,,,,,,,,,,,,,,,,,,,,,,,,,,,,,,,,,,,,,,,,,,,,,,,,,,,,,,,,,,,,,,,,,,,,,,,,,,,,,,,,,,,,,,,,,,,,,,,,,,,,,,,,,,,,,,,,,,,,,,,,,,,,,,,,,,,,,,,,,
0,13,13,0,1,,603f6e643234e512fc197ae1,62c5561defbf919e4800deff,2022-07-06_11h56.59.305,Colour_Asymmetry_Pilot,2022.1.3,Win32,58.32604258,62c50e9c1127f2cd403a315f,,,,,,,,,,,,,,,,,,,,,,,,,,,,,,,,,,,,,,,,,,,,,,,,,,,,,,,,,,,,,,,,,,,,,,,,,,,,,,,,,,,,,,,,,,,,,,,,,,,,,,,,,,,,,,,,,,,,,,,,,,,,,,,,,,,,,,,,,,,,,,,,,,,,,,,,,,,,,,,,
0,14,14,20,1,,603f6e643234e512fc197ae1,62c5561defbf919e4800deff,2022-07-06_11h56.59.305,Colour_Asymmetry_Pilot,2022.1.3,Win32,58.32604258,62c50e9c1127f2cd403a315f,,,,,,,,,,,,,,,,,,,,,,,,,,,,,,,,,,,,,,,,,,,,,,,,,,,,,,,,,,,,,,,,,,,,,,,,,,,,,,,,,,,,,,,,,,,,,,,,,,,,,,,,,,,,,,,,,,,,,,,,,,,,,,,,,,,,,,,,,,,,,,,,,,,,,,,,,,,,,,,,
0,15,15,81,1,,603f6e643234e512fc197ae1,62c5561defbf919e4800deff,2022-07-06_11h56.59.305,Colour_Asymmetry_Pilot,2022.1.3,Win32,58.32604258,62c50e9c1127f2cd403a315f,,,,,,,,,,,,,,,,,,,,,,,,,,,,,,,,,,,,,,,,,,,,,,,,,,,,,,,,,,,,,,,,,,,,,,,,,,,,,,,,,,,,,,,,,,,,,,,,,,,,,,,,,,,,,,,,,,,,,,,,,,,,,,,,,,,,,,,,,,,,,,,,,,,,,,,,,,,,,,,,
0,16,16,49,1,,603f6e643234e512fc197ae1,62c5561defbf919e4800deff,2022-07-06_11h56.59.305,Colour_Asymmetry_Pilot,2022.1.3,Win32,58.32604258,62c50e9c1127f2cd403a315f,,,,,,,,,,,,,,,,,,,,,,,,,,,,,,,,,,,,,,,,,,,,,,,,,,,,,,,,,,,,,,,,,,,,,,,,,,,,,,,,,,,,,,,,,,,,,,,,,,,,,,,,,,,,,,,,,,,,,,,,,,,,,,,,,,,,,,,,,,,,,,,,,,,,,,,,,,,,,,,,
0,17,17,55,1,,603f6e643234e512fc197ae1,62c5561defbf919e4800deff,2022-07-06_11h56.59.305,Colour_Asymmetry_Pilot,2022.1.3,Win32,58.32604258,62c50e9c1127f2cd403a315f,,,,,,,,,,,,,,,,,,,,,,,,,,,,,,,,,,,,,,,,,,,,,,,,,,,,,,,,,,,,,,,,,,,,,,,,,,,,,,,,,,,,,,,,,,,,,,,,,,,,,,,,,,,,,,,,,,,,,,,,,,,,,,,,,,,,,,,,,,,,,,,,,,,,,,,,,,,,,,,,
0,18,18,80,1,,603f6e643234e512fc197ae1,62c5561defbf919e4800deff,2022-07-06_11h56.59.305,Colour_Asymmetry_Pilot,2022.1.3,Win32,58.32604258,62c50e9c1127f2cd403a315f,,,,,,,,,,,,,,,,,,,,,,,,,,,,,,,,,,,,,,,,,,,,,,,,,,,,,,,,,,,,,,,,,,,,,,,,,,,,,,,,,,,,,,,,,,,,,,,,,,,,,,,,,,,,,,,,,,,,,,,,,,,,,,,,,,,,,,,,,,,,,,,,,,,,,,,,,,,,,,,,
0,19,19,78,1,,603f6e643234e512fc197ae1,62c5561defbf919e4800deff,2022-07-06_11h56.59.305,Colour_Asymmetry_Pilot,2022.1.3,Win32,58.32604258,62c50e9c1127f2cd403a315f,,,,,,,,,,,,,,,,,,,,,,,,,,,,,,,,,,,,,,,,,,,,,,,,,,,,,,,,,,,,,,,,,,,,,,,,,,,,,,,,,,,,,,,,,,,,,,,,,,,,,,,,,,,,,,,,,,,,,,,,,,,,,,,,,,,,,,,,,,,,,,,,,,,,,,,,,,,,,,,,
0,20,20,59,1,,603f6e643234e512fc197ae1,62c5561defbf919e4800deff,2022-07-06_11h56.59.305,Colour_Asymmetry_Pilot,2022.1.3,Win32,58.32604258,62c50e9c1127f2cd403a315f,,,,,,,,,,,,,,,,,,,,,,,,,,,,,,,,,,,,,,,,,,,,,,,,,,,,,,,,,,,,,,,,,,,,,,,,,,,,,,,,,,,,,,,,,,,,,,,,,,,,,,,,,,,,,,,,,,,,,,,,,,,,,,,,,,,,,,,,,,,,,,,,,,,,,,,,,,,,,,,,
0,21,21,60,1,,603f6e643234e512fc197ae1,62c5561defbf919e4800deff,2022-07-06_11h56.59.305,Colour_Asymmetry_Pilot,2022.1.3,Win32,58.32604258,62c50e9c1127f2cd403a315f,,,,,,,,,,,,,,,,,,,,,,,,,,,,,,,,,,,,,,,,,,,,,,,,,,,,,,,,,,,,,,,,,,,,,,,,,,,,,,,,,,,,,,,,,,,,,,,,,,,,,,,,,,,,,,,,,,,,,,,,,,,,,,,,,,,,,,,,,,,,,,,,,,,,,,,,,,,,,,,,
0,22,22,40,1,,603f6e643234e512fc197ae1,62c5561defbf919e4800deff,2022-07-06_11h56.59.305,Colour_Asymmetry_Pilot,2022.1.3,Win32,58.32604258,62c50e9c1127f2cd403a315f,,,,,,,,,,,,,,,,,,,,,,,,,,,,,,,,,,,,,,,,,,,,,,,,,,,,,,,,,,,,,,,,,,,,,,,,,,,,,,,,,,,,,,,,,,,,,,,,,,,,,,,,,,,,,,,,,,,,,,,,,,,,,,,,,,,,,,,,,,,,,,,,,,,,,,,,,,,,,,,,
0,23,23,63,1,,603f6e643234e512fc197ae1,62c5561defbf919e4800deff,2022-07-06_11h56.59.305,Colour_Asymmetry_Pilot,2022.1.3,Win32,58.32604258,62c50e9c1127f2cd403a315f,,,,,,,,,,,,,,,,,,,,,,,,,,,,,,,,,,,,,,,,,,,,,,,,,,,,,,,,,,,,,,,,,,,,,,,,,,,,,,,,,,,,,,,,,,,,,,,,,,,,,,,,,,,,,,,,,,,,,,,,,,,,,,,,,,,,,,,,,,,,,,,,,,,,,,,,,,,,,,,,
0,24,24,34,1,,603f6e643234e512fc197ae1,62c5561defbf919e4800deff,2022-07-06_11h56.59.305,Colour_Asymmetry_Pilot,2022.1.3,Win32,58.32604258,62c50e9c1127f2cd403a315f,,,,,,,,,,,,,,,,,,,,,,,,,,,,,,,,,,,,,,,,,,,,,,,,,,,,,,,,,,,,,,,,,,,,,,,,,,,,,,,,,,,,,,,,,,,,,,,,,,,,,,,,,,,,,,,,,,,,,,,,,,,,,,,,,,,,,,,,,,,,,,,,,,,,,,,,,,,,,,,,
0,25,25,5,1,,603f6e643234e512fc197ae1,62c5561defbf919e4800deff,2022-07-06_11h56.59.305,Colour_Asymmetry_Pilot,2022.1.3,Win32,58.32604258,62c50e9c1127f2cd403a315f,,,,,,,,,,,,,,,,,,,,,,,,,,,,,,,,,,,,,,,,,,,,,,,,,,,,,,,,,,,,,,,,,,,,,,,,,,,,,,,,,,,,,,,,,,,,,,,,,,,,,,,,,,,,,,,,,,,,,,,,,,,,,,,,,,,,,,,,,,,,,,,,,,,,,,,,,,,,,,,,
0,26,26,58,1,,603f6e643234e512fc197ae1,62c5561defbf919e4800deff,2022-07-06_11h56.59.305,Colour_Asymmetry_Pilot,2022.1.3,Win32,58.32604258,62c50e9c1127f2cd403a315f,,,,,,,,,,,,,,,,,,,,,,,,,,,,,,,,,,,,,,,,,,,,,,,,,,,,,,,,,,,,,,,,,,,,,,,,,,,,,,,,,,,,,,,,,,,,,,,,,,,,,,,,,,,,,,,,,,,,,,,,,,,,,,,,,,,,,,,,,,,,,,,,,,,,,,,,,,,,,,,,
0,27,27,75,1,,603f6e643234e512fc197ae1,62c5561defbf919e4800deff,2022-07-06_11h56.59.305,Colour_Asymmetry_Pilot,2022.1.3,Win32,58.32604258,62c50e9c1127f2cd403a315f,,,,,,,,,,,,,,,,,,,,,,,,,,,,,,,,,,,,,,,,,,,,,,,,,,,,,,,,,,,,,,,,,,,,,,,,,,,,,,,,,,,,,,,,,,,,,,,,,,,,,,,,,,,,,,,,,,,,,,,,,,,,,,,,,,,,,,,,,,,,,,,,,,,,,,,,,,,,,,,,
0,28,28,61,1,,603f6e643234e512fc197ae1,62c5561defbf919e4800deff,2022-07-06_11h56.59.305,Colour_Asymmetry_Pilot,2022.1.3,Win32,58.32604258,62c50e9c1127f2cd403a315f,,,,,,,,,,,,,,,,,,,,,,,,,,,,,,,,,,,,,,,,,,,,,,,,,,,,,,,,,,,,,,,,,,,,,,,,,,,,,,,,,,,,,,,,,,,,,,,,,,,,,,,,,,,,,,,,,,,,,,,,,,,,,,,,,,,,,,,,,,,,,,,,,,,,,,,,,,,,,,,,
0,29,29,67,1,,603f6e643234e512fc197ae1,62c5561defbf919e4800deff,2022-07-06_11h56.59.305,Colour_Asymmetry_Pilot,2022.1.3,Win32,58.32604258,62c50e9c1127f2cd403a315f,,,,,,,,,,,,,,,,,,,,,,,,,,,,,,,,,,,,,,,,,,,,,,,,,,,,,,,,,,,,,,,,,,,,,,,,,,,,,,,,,,,,,,,,,,,,,,,,,,,,,,,,,,,,,,,,,,,,,,,,,,,,,,,,,,,,,,,,,,,,,,,,,,,,,,,,,,,,,,,,
0,30,30,30,1,,603f6e643234e512fc197ae1,62c5561defbf919e4800deff,2022-07-06_11h56.59.305,Colour_Asymmetry_Pilot,2022.1.3,Win32,58.32604258,62c50e9c1127f2cd403a315f,,,,,,,,,,,,,,,,,,,,,,,,,,,,,,,,,,,,,,,,,,,,,,,,,,,,,,,,,,,,,,,,,,,,,,,,,,,,,,,,,,,,,,,,,,,,,,,,,,,,,,,,,,,,,,,,,,,,,,,,,,,,,,,,,,,,,,,,,,,,,,,,,,,,,,,,,,,,,,,,
0,31,31,37,1,,603f6e643234e512fc197ae1,62c5561defbf919e4800deff,2022-07-06_11h56.59.305,Colour_Asymmetry_Pilot,2022.1.3,Win32,58.32604258,62c50e9c1127f2cd403a315f,,,,,,,,,,,,,,,,,,,,,,,,,,,,,,,,,,,,,,,,,,,,,,,,,,,,,,,,,,,,,,,,,,,,,,,,,,,,,,,,,,,,,,,,,,,,,,,,,,,,,,,,,,,,,,,,,,,,,,,,,,,,,,,,,,,,,,,,,,,,,,,,,,,,,,,,,,,,,,,,
0,32,32,18,1,,603f6e643234e512fc197ae1,62c5561defbf919e4800deff,2022-07-06_11h56.59.305,Colour_Asymmetry_Pilot,2022.1.3,Win32,58.32604258,62c50e9c1127f2cd403a315f,,,,,,,,,,,,,,,,,,,,,,,,,,,,,,,,,,,,,,,,,,,,,,,,,,,,,,,,,,,,,,,,,,,,,,,,,,,,,,,,,,,,,,,,,,,,,,,,,,,,,,,,,,,,,,,,,,,,,,,,,,,,,,,,,,,,,,,,,,,,,,,,,,,,,,,,,,,,,,,,
0,33,33,41,1,,603f6e643234e512fc197ae1,62c5561defbf919e4800deff,2022-07-06_11h56.59.305,Colour_Asymmetry_Pilot,2022.1.3,Win32,58.32604258,62c50e9c1127f2cd403a315f,,,,,,,,,,,,,,,,,,,,,,,,,,,,,,,,,,,,,,,,,,,,,,,,,,,,,,,,,,,,,,,,,,,,,,,,,,,,,,,,,,,,,,,,,,,,,,,,,,,,,,,,,,,,,,,,,,,,,,,,,,,,,,,,,,,,,,,,,,,,,,,,,,,,,,,,,,,,,,,,
0,34,34,85,1,,603f6e643234e512fc197ae1,62c5561defbf919e4800deff,2022-07-06_11h56.59.305,Colour_Asymmetry_Pilot,2022.1.3,Win32,58.32604258,62c50e9c1127f2cd403a315f,,,,,,,,,,,,,,,,,,,,,,,,,,,,,,,,,,,,,,,,,,,,,,,,,,,,,,,,,,,,,,,,,,,,,,,,,,,,,,,,,,,,,,,,,,,,,,,,,,,,,,,,,,,,,,,,,,,,,,,,,,,,,,,,,,,,,,,,,,,,,,,,,,,,,,,,,,,,,,,,
0,35,35,9,1,,603f6e643234e512fc197ae1,62c5561defbf919e4800deff,2022-07-06_11h56.59.305,Colour_Asymmetry_Pilot,2022.1.3,Win32,58.32604258,62c50e9c1127f2cd403a315f,,,,,,,,,,,,,,,,,,,,,,,,,,,,,,,,,,,,,,,,,,,,,,,,,,,,,,,,,,,,,,,,,,,,,,,,,,,,,,,,,,,,,,,,,,,,,,,,,,,,,,,,,,,,,,,,,,,,,,,,,,,,,,,,,,,,,,,,,,,,,,,,,,,,,,,,,,,,,,,,
0,36,36,46,1,,603f6e643234e512fc197ae1,62c5561defbf919e4800deff,2022-07-06_11h56.59.305,Colour_Asymmetry_Pilot,2022.1.3,Win32,58.32604258,62c50e9c1127f2cd403a315f,,,,,,,,,,,,,,,,,,,,,,,,,,,,,,,,,,,,,,,,,,,,,,,,,,,,,,,,,,,,,,,,,,,,,,,,,,,,,,,,,,,,,,,,,,,,,,,,,,,,,,,,,,,,,,,,,,,,,,,,,,,,,,,,,,,,,,,,,,,,,,,,,,,,,,,,,,,,,,,,
0,37,37,27,1,,603f6e643234e512fc197ae1,62c5561defbf919e4800deff,2022-07-06_11h56.59.305,Colour_Asymmetry_Pilot,2022.1.3,Win32,58.32604258,62c50e9c1127f2cd403a315f,,,,,,,,,,,,,,,,,,,,,,,,,,,,,,,,,,,,,,,,,,,,,,,,,,,,,,,,,,,,,,,,,,,,,,,,,,,,,,,,,,,,,,,,,,,,,,,,,,,,,,,,,,,,,,,,,,,,,,,,,,,,,,,,,,,,,,,,,,,,,,,,,,,,,,,,,,,,,,,,
0,38,38,74,1,,603f6e643234e512fc197ae1,62c5561defbf919e4800deff,2022-07-06_11h56.59.305,Colour_Asymmetry_Pilot,2022.1.3,Win32,58.32604258,62c50e9c1127f2cd403a315f,,,,,,,,,,,,,,,,,,,,,,,,,,,,,,,,,,,,,,,,,,,,,,,,,,,,,,,,,,,,,,,,,,,,,,,,,,,,,,,,,,,,,,,,,,,,,,,,,,,,,,,,,,,,,,,,,,,,,,,,,,,,,,,,,,,,,,,,,,,,,,,,,,,,,,,,,,,,,,,,
0,39,39,13,1,,603f6e643234e512fc197ae1,62c5561defbf919e4800deff,2022-07-06_11h56.59.305,Colour_Asymmetry_Pilot,2022.1.3,Win32,58.32604258,62c50e9c1127f2cd403a315f,,,,,,,,,,,,,,,,,,,,,,,,,,,,,,,,,,,,,,,,,,,,,,,,,,,,,,,,,,,,,,,,,,,,,,,,,,,,,,,,,,,,,,,,,,,,,,,,,,,,,,,,,,,,,,,,,,,,,,,,,,,,,,,,,,,,,,,,,,,,,,,,,,,,,,,,,,,,,,,,
0,40,40,51,1,,603f6e643234e512fc197ae1,62c5561defbf919e4800deff,2022-07-06_11h56.59.305,Colour_Asymmetry_Pilot,2022.1.3,Win32,58.32604258,62c50e9c1127f2cd403a315f,,,,,,,,,,,,,,,,,,,,,,,,,,,,,,,,,,,,,,,,,,,,,,,,,,,,,,,,,,,,,,,,,,,,,,,,,,,,,,,,,,,,,,,,,,,,,,,,,,,,,,,,,,,,,,,,,,,,,,,,,,,,,,,,,,,,,,,,,,,,,,,,,,,,,,,,,,,,,,,,
0,41,41,77,1,,603f6e643234e512fc197ae1,62c5561defbf919e4800deff,2022-07-06_11h56.59.305,Colour_Asymmetry_Pilot,2022.1.3,Win32,58.32604258,62c50e9c1127f2cd403a315f,,,,,,,,,,,,,,,,,,,,,,,,,,,,,,,,,,,,,,,,,,,,,,,,,,,,,,,,,,,,,,,,,,,,,,,,,,,,,,,,,,,,,,,,,,,,,,,,,,,,,,,,,,,,,,,,,,,,,,,,,,,,,,,,,,,,,,,,,,,,,,,,,,,,,,,,,,,,,,,,
0,42,42,28,1,,603f6e643234e512fc197ae1,62c5561defbf919e4800deff,2022-07-06_11h56.59.305,Colour_Asymmetry_Pilot,2022.1.3,Win32,58.32604258,62c50e9c1127f2cd403a315f,,,,,,,,,,,,,,,,,,,,,,,,,,,,,,,,,,,,,,,,,,,,,,,,,,,,,,,,,,,,,,,,,,,,,,,,,,,,,,,,,,,,,,,,,,,,,,,,,,,,,,,,,,,,,,,,,,,,,,,,,,,,,,,,,,,,,,,,,,,,,,,,,,,,,,,,,,,,,,,,
0,43,43,82,1,,603f6e643234e512fc197ae1,62c5561defbf919e4800deff,2022-07-06_11h56.59.305,Colour_Asymmetry_Pilot,2022.1.3,Win32,58.32604258,62c50e9c1127f2cd403a315f,,,,,,,,,,,,,,,,,,,,,,,,,,,,,,,,,,,,,,,,,,,,,,,,,,,,,,,,,,,,,,,,,,,,,,,,,,,,,,,,,,,,,,,,,,,,,,,,,,,,,,,,,,,,,,,,,,,,,,,,,,,,,,,,,,,,,,,,,,,,,,,,,,,,,,,,,,,,,,,,
0,44,44,88,1,,603f6e643234e512fc197ae1,62c5561defbf919e4800deff,2022-07-06_11h56.59.305,Colour_Asymmetry_Pilot,2022.1.3,Win32,58.32604258,62c50e9c1127f2cd403a315f,,,,,,,,,,,,,,,,,,,,,,,,,,,,,,,,,,,,,,,,,,,,,,,,,,,,,,,,,,,,,,,,,,,,,,,,,,,,,,,,,,,,,,,,,,,,,,,,,,,,,,,,,,,,,,,,,,,,,,,,,,,,,,,,,,,,,,,,,,,,,,,,,,,,,,,,,,,,,,,,
0,45,45,11,1,,603f6e643234e512fc197ae1,62c5561defbf919e4800deff,2022-07-06_11h56.59.305,Colour_Asymmetry_Pilot,2022.1.3,Win32,58.32604258,62c50e9c1127f2cd403a315f,,,,,,,,,,,,,,,,,,,,,,,,,,,,,,,,,,,,,,,,,,,,,,,,,,,,,,,,,,,,,,,,,,,,,,,,,,,,,,,,,,,,,,,,,,,,,,,,,,,,,,,,,,,,,,,,,,,,,,,,,,,,,,,,,,,,,,,,,,,,,,,,,,,,,,,,,,,,,,,,
0,46,46,16,1,,603f6e643234e512fc197ae1,62c5561defbf919e4800deff,2022-07-06_11h56.59.305,Colour_Asymmetry_Pilot,2022.1.3,Win32,58.32604258,62c50e9c1127f2cd403a315f,,,,,,,,,,,,,,,,,,,,,,,,,,,,,,,,,,,,,,,,,,,,,,,,,,,,,,,,,,,,,,,,,,,,,,,,,,,,,,,,,,,,,,,,,,,,,,,,,,,,,,,,,,,,,,,,,,,,,,,,,,,,,,,,,,,,,,,,,,,,,,,,,,,,,,,,,,,,,,,,
0,47,47,72,1,,603f6e643234e512fc197ae1,62c5561defbf919e4800deff,2022-07-06_11h56.59.305,Colour_Asymmetry_Pilot,2022.1.3,Win32,58.32604258,62c50e9c1127f2cd403a315f,,,,,,,,,,,,,,,,,,,,,,,,,,,,,,,,,,,,,,,,,,,,,,,,,,,,,,,,,,,,,,,,,,,,,,,,,,,,,,,,,,,,,,,,,,,,,,,,,,,,,,,,,,,,,,,,,,,,,,,,,,,,,,,,,,,,,,,,,,,,,,,,,,,,,,,,,,,,,,,,
0,48,48,42,1,,603f6e643234e512fc197ae1,62c5561defbf919e4800deff,2022-07-06_11h56.59.305,Colour_Asymmetry_Pilot,2022.1.3,Win32,58.32604258,62c50e9c1127f2cd403a315f,,,,,,,,,,,,,,,,,,,,,,,,,,,,,,,,,,,,,,,,,,,,,,,,,,,,,,,,,,,,,,,,,,,,,,,,,,,,,,,,,,,,,,,,,,,,,,,,,,,,,,,,,,,,,,,,,,,,,,,,,,,,,,,,,,,,,,,,,,,,,,,,,,,,,,,,,,,,,,,,
0,49,49,83,1,,603f6e643234e512fc197ae1,62c5561defbf919e4800deff,2022-07-06_11h56.59.305,Colour_Asymmetry_Pilot,2022.1.3,Win32,58.32604258,62c50e9c1127f2cd403a315f,,,,,,,,,,,,,,,,,,,,,,,,,,,,,,,,,,,,,,,,,,,,,,,,,,,,,,,,,,,,,,,,,,,,,,,,,,,,,,,,,,,,,,,,,,,,,,,,,,,,,,,,,,,,,,,,,,,,,,,,,,,,,,,,,,,,,,,,,,,,,,,,,,,,,,,,,,,,,,,,
0,50,50,12,1,,603f6e643234e512fc197ae1,62c5561defbf919e4800deff,2022-07-06_11h56.59.305,Colour_Asymmetry_Pilot,2022.1.3,Win32,58.32604258,62c50e9c1127f2cd403a315f,,,,,,,,,,,,,,,,,,,,,,,,,,,,,,,,,,,,,,,,,,,,,,,,,,,,,,,,,,,,,,,,,,,,,,,,,,,,,,,,,,,,,,,,,,,,,,,,,,,,,,,,,,,,,,,,,,,,,,,,,,,,,,,,,,,,,,,,,,,,,,,,,,,,,,,,,,,,,,,,
0,51,51,47,1,,603f6e643234e512fc197ae1,62c5561defbf919e4800deff,2022-07-06_11h56.59.305,Colour_Asymmetry_Pilot,2022.1.3,Win32,58.32604258,62c50e9c1127f2cd403a315f,,,,,,,,,,,,,,,,,,,,,,,,,,,,,,,,,,,,,,,,,,,,,,,,,,,,,,,,,,,,,,,,,,,,,,,,,,,,,,,,,,,,,,,,,,,,,,,,,,,,,,,,,,,,,,,,,,,,,,,,,,,,,,,,,,,,,,,,,,,,,,,,,,,,,,,,,,,,,,,,
0,52,52,38,1,,603f6e643234e512fc197ae1,62c5561defbf919e4800deff,2022-07-06_11h56.59.305,Colour_Asymmetry_Pilot,2022.1.3,Win32,58.32604258,62c50e9c1127f2cd403a315f,,,,,,,,,,,,,,,,,,,,,,,,,,,,,,,,,,,,,,,,,,,,,,,,,,,,,,,,,,,,,,,,,,,,,,,,,,,,,,,,,,,,,,,,,,,,,,,,,,,,,,,,,,,,,,,,,,,,,,,,,,,,,,,,,,,,,,,,,,,,,,,,,,,,,,,,,,,,,,,,
0,53,53,48,1,,603f6e643234e512fc197ae1,62c5561defbf919e4800deff,2022-07-06_11h56.59.305,Colour_Asymmetry_Pilot,2022.1.3,Win32,58.32604258,62c50e9c1127f2cd403a315f,,,,,,,,,,,,,,,,,,,,,,,,,,,,,,,,,,,,,,,,,,,,,,,,,,,,,,,,,,,,,,,,,,,,,,,,,,,,,,,,,,,,,,,,,,,,,,,,,,,,,,,,,,,,,,,,,,,,,,,,,,,,,,,,,,,,,,,,,,,,,,,,,,,,,,,,,,,,,,,,
0,54,54,14,1,,603f6e643234e512fc197ae1,62c5561defbf919e4800deff,2022-07-06_11h56.59.305,Colour_Asymmetry_Pilot,2022.1.3,Win32,58.32604258,62c50e9c1127f2cd403a315f,,,,,,,,,,,,,,,,,,,,,,,,,,,,,,,,,,,,,,,,,,,,,,,,,,,,,,,,,,,,,,,,,,,,,,,,,,,,,,,,,,,,,,,,,,,,,,,,,,,,,,,,,,,,,,,,,,,,,,,,,,,,,,,,,,,,,,,,,,,,,,,,,,,,,,,,,,,,,,,,
0,55,55,84,1,,603f6e643234e512fc197ae1,62c5561defbf919e4800deff,2022-07-06_11h56.59.305,Colour_Asymmetry_Pilot,2022.1.3,Win32,58.32604258,62c50e9c1127f2cd403a315f,,,,,,,,,,,,,,,,,,,,,,,,,,,,,,,,,,,,,,,,,,,,,,,,,,,,,,,,,,,,,,,,,,,,,,,,,,,,,,,,,,,,,,,,,,,,,,,,,,,,,,,,,,,,,,,,,,,,,,,,,,,,,,,,,,,,,,,,,,,,,,,,,,,,,,,,,,,,,,,,
0,56,56,44,1,,603f6e643234e512fc197ae1,62c5561defbf919e4800deff,2022-07-06_11h56.59.305,Colour_Asymmetry_Pilot,2022.1.3,Win32,58.32604258,62c50e9c1127f2cd403a315f,,,,,,,,,,,,,,,,,,,,,,,,,,,,,,,,,,,,,,,,,,,,,,,,,,,,,,,,,,,,,,,,,,,,,,,,,,,,,,,,,,,,,,,,,,,,,,,,,,,,,,,,,,,,,,,,,,,,,,,,,,,,,,,,,,,,,,,,,,,,,,,,,,,,,,,,,,,,,,,,
0,57,57,29,1,,603f6e643234e512fc197ae1,62c5561defbf919e4800deff,2022-07-06_11h56.59.305,Colour_Asymmetry_Pilot,2022.1.3,Win32,58.32604258,62c50e9c1127f2cd403a315f,,,,,,,,,,,,,,,,,,,,,,,,,,,,,,,,,,,,,,,,,,,,,,,,,,,,,,,,,,,,,,,,,,,,,,,,,,,,,,,,,,,,,,,,,,,,,,,,,,,,,,,,,,,,,,,,,,,,,,,,,,,,,,,,,,,,,,,,,,,,,,,,,,,,,,,,,,,,,,,,
0,58,58,35,1,,603f6e643234e512fc197ae1,62c5561defbf919e4800deff,2022-07-06_11h56.59.305,Colour_Asymmetry_Pilot,2022.1.3,Win32,58.32604258,62c50e9c1127f2cd403a315f,,,,,,,,,,,,,,,,,,,,,,,,,,,,,,,,,,,,,,,,,,,,,,,,,,,,,,,,,,,,,,,,,,,,,,,,,,,,,,,,,,,,,,,,,,,,,,,,,,,,,,,,,,,,,,,,,,,,,,,,,,,,,,,,,,,,,,,,,,,,,,,,,,,,,,,,,,,,,,,,
0,59,59,87,1,,603f6e643234e512fc197ae1,62c5561defbf919e4800deff,2022-07-06_11h56.59.305,Colour_Asymmetry_Pilot,2022.1.3,Win32,58.32604258,62c50e9c1127f2cd403a315f,,,,,,,,,,,,,,,,,,,,,,,,,,,,,,,,,,,,,,,,,,,,,,,,,,,,,,,,,,,,,,,,,,,,,,,,,,,,,,,,,,,,,,,,,,,,,,,,,,,,,,,,,,,,,,,,,,,,,,,,,,,,,,,,,,,,,,,,,,,,,,,,,,,,,,,,,,,,,,,,
0,60,60,69,1,,603f6e643234e512fc197ae1,62c5561defbf919e4800deff,2022-07-06_11h56.59.305,Colour_Asymmetry_Pilot,2022.1.3,Win32,58.32604258,62c50e9c1127f2cd403a315f,,,,,,,,,,,,,,,,,,,,,,,,,,,,,,,,,,,,,,,,,,,,,,,,,,,,,,,,,,,,,,,,,,,,,,,,,,,,,,,,,,,,,,,,,,,,,,,,,,,,,,,,,,,,,,,,,,,,,,,,,,,,,,,,,,,,,,,,,,,,,,,,,,,,,,,,,,,,,,,,
0,61,61,6,1,,603f6e643234e512fc197ae1,62c5561defbf919e4800deff,2022-07-06_11h56.59.305,Colour_Asymmetry_Pilot,2022.1.3,Win32,58.32604258,62c50e9c1127f2cd403a315f,,,,,,,,,,,,,,,,,,,,,,,,,,,,,,,,,,,,,,,,,,,,,,,,,,,,,,,,,,,,,,,,,,,,,,,,,,,,,,,,,,,,,,,,,,,,,,,,,,,,,,,,,,,,,,,,,,,,,,,,,,,,,,,,,,,,,,,,,,,,,,,,,,,,,,,,,,,,,,,,
0,62,62,7,1,,603f6e643234e512fc197ae1,62c5561defbf919e4800deff,2022-07-06_11h56.59.305,Colour_Asymmetry_Pilot,2022.1.3,Win32,58.32604258,62c50e9c1127f2cd403a315f,,,,,,,,,,,,,,,,,,,,,,,,,,,,,,,,,,,,,,,,,,,,,,,,,,,,,,,,,,,,,,,,,,,,,,,,,,,,,,,,,,,,,,,,,,,,,,,,,,,,,,,,,,,,,,,,,,,,,,,,,,,,,,,,,,,,,,,,,,,,,,,,,,,,,,,,,,,,,,,,
0,63,63,39,1,,603f6e643234e512fc197ae1,62c5561defbf919e4800deff,2022-07-06_11h56.59.305,Colour_Asymmetry_Pilot,2022.1.3,Win32,58.32604258,62c50e9c1127f2cd403a315f,,,,,,,,,,,,,,,,,,,,,,,,,,,,,,,,,,,,,,,,,,,,,,,,,,,,,,,,,,,,,,,,,,,,,,,,,,,,,,,,,,,,,,,,,,,,,,,,,,,,,,,,,,,,,,,,,,,,,,,,,,,,,,,,,,,,,,,,,,,,,,,,,,,,,,,,,,,,,,,,
0,64,64,26,1,,603f6e643234e512fc197ae1,62c5561defbf919e4800deff,2022-07-06_11h56.59.305,Colour_Asymmetry_Pilot,2022.1.3,Win32,58.32604258,62c50e9c1127f2cd403a315f,,,,,,,,,,,,,,,,,,,,,,,,,,,,,,,,,,,,,,,,,,,,,,,,,,,,,,,,,,,,,,,,,,,,,,,,,,,,,,,,,,,,,,,,,,,,,,,,,,,,,,,,,,,,,,,,,,,,,,,,,,,,,,,,,,,,,,,,,,,,,,,,,,,,,,,,,,,,,,,,
0,65,65,73,1,,603f6e643234e512fc197ae1,62c5561defbf919e4800deff,2022-07-06_11h56.59.305,Colour_Asymmetry_Pilot,2022.1.3,Win32,58.32604258,62c50e9c1127f2cd403a315f,,,,,,,,,,,,,,,,,,,,,,,,,,,,,,,,,,,,,,,,,,,,,,,,,,,,,,,,,,,,,,,,,,,,,,,,,,,,,,,,,,,,,,,,,,,,,,,,,,,,,,,,,,,,,,,,,,,,,,,,,,,,,,,,,,,,,,,,,,,,,,,,,,,,,,,,,,,,,,,,
0,66,66,17,1,,603f6e643234e512fc197ae1,62c5561defbf919e4800deff,2022-07-06_11h56.59.305,Colour_Asymmetry_Pilot,2022.1.3,Win32,58.32604258,62c50e9c1127f2cd403a315f,,,,,,,,,,,,,,,,,,,,,,,,,,,,,,,,,,,,,,,,,,,,,,,,,,,,,,,,,,,,,,,,,,,,,,,,,,,,,,,,,,,,,,,,,,,,,,,,,,,,,,,,,,,,,,,,,,,,,,,,,,,,,,,,,,,,,,,,,,,,,,,,,,,,,,,,,,,,,,,,
0,67,67,66,1,,603f6e643234e512fc197ae1,62c5561defbf919e4800deff,2022-07-06_11h56.59.305,Colour_Asymmetry_Pilot,2022.1.3,Win32,58.32604258,62c50e9c1127f2cd403a315f,,,,,,,,,,,,,,,,,,,,,,,,,,,,,,,,,,,,,,,,,,,,,,,,,,,,,,,,,,,,,,,,,,,,,,,,,,,,,,,,,,,,,,,,,,,,,,,,,,,,,,,,,,,,,,,,,,,,,,,,,,,,,,,,,,,,,,,,,,,,,,,,,,,,,,,,,,,,,,,,
0,68,68,79,1,,603f6e643234e512fc197ae1,62c5561defbf919e4800deff,2022-07-06_11h56.59.305,Colour_Asymmetry_Pilot,2022.1.3,Win32,58.32604258,62c50e9c1127f2cd403a315f,,,,,,,,,,,,,,,,,,,,,,,,,,,,,,,,,,,,,,,,,,,,,,,,,,,,,,,,,,,,,,,,,,,,,,,,,,,,,,,,,,,,,,,,,,,,,,,,,,,,,,,,,,,,,,,,,,,,,,,,,,,,,,,,,,,,,,,,,,,,,,,,,,,,,,,,,,,,,,,,
0,69,69,32,1,,603f6e643234e512fc197ae1,62c5561defbf919e4800deff,2022-07-06_11h56.59.305,Colour_Asymmetry_Pilot,2022.1.3,Win32,58.32604258,62c50e9c1127f2cd403a315f,,,,,,,,,,,,,,,,,,,,,,,,,,,,,,,,,,,,,,,,,,,,,,,,,,,,,,,,,,,,,,,,,,,,,,,,,,,,,,,,,,,,,,,,,,,,,,,,,,,,,,,,,,,,,,,,,,,,,,,,,,,,,,,,,,,,,,,,,,,,,,,,,,,,,,,,,,,,,,,,
0,70,70,50,1,,603f6e643234e512fc197ae1,62c5561defbf919e4800deff,2022-07-06_11h56.59.305,Colour_Asymmetry_Pilot,2022.1.3,Win32,58.32604258,62c50e9c1127f2cd403a315f,,,,,,,,,,,,,,,,,,,,,,,,,,,,,,,,,,,,,,,,,,,,,,,,,,,,,,,,,,,,,,,,,,,,,,,,,,,,,,,,,,,,,,,,,,,,,,,,,,,,,,,,,,,,,,,,,,,,,,,,,,,,,,,,,,,,,,,,,,,,,,,,,,,,,,,,,,,,,,,,
0,71,71,31,1,,603f6e643234e512fc197ae1,62c5561defbf919e4800deff,2022-07-06_11h56.59.305,Colour_Asymmetry_Pilot,2022.1.3,Win32,58.32604258,62c50e9c1127f2cd403a315f,,,,,,,,,,,,,,,,,,,,,,,,,,,,,,,,,,,,,,,,,,,,,,,,,,,,,,,,,,,,,,,,,,,,,,,,,,,,,,,,,,,,,,,,,,,,,,,,,,,,,,,,,,,,,,,,,,,,,,,,,,,,,,,,,,,,,,,,,,,,,,,,,,,,,,,,,,,,,,,,
0,72,72,3,1,,603f6e643234e512fc197ae1,62c5561defbf919e4800deff,2022-07-06_11h56.59.305,Colour_Asymmetry_Pilot,2022.1.3,Win32,58.32604258,62c50e9c1127f2cd403a315f,,,,,,,,,,,,,,,,,,,,,,,,,,,,,,,,,,,,,,,,,,,,,,,,,,,,,,,,,,,,,,,,,,,,,,,,,,,,,,,,,,,,,,,,,,,,,,,,,,,,,,,,,,,,,,,,,,,,,,,,,,,,,,,,,,,,,,,,,,,,,,,,,,,,,,,,,,,,,,,,
0,73,73,36,1,,603f6e643234e512fc197ae1,62c5561defbf919e4800deff,2022-07-06_11h56.59.305,Colour_Asymmetry_Pilot,2022.1.3,Win32,58.32604258,62c50e9c1127f2cd403a315f,,,,,,,,,,,,,,,,,,,,,,,,,,,,,,,,,,,,,,,,,,,,,,,,,,,,,,,,,,,,,,,,,,,,,,,,,,,,,,,,,,,,,,,,,,,,,,,,,,,,,,,,,,,,,,,,,,,,,,,,,,,,,,,,,,,,,,,,,,,,,,,,,,,,,,,,,,,,,,,,
0,74,74,57,1,,603f6e643234e512fc197ae1,62c5561defbf919e4800deff,2022-07-06_11h56.59.305,Colour_Asymmetry_Pilot,2022.1.3,Win32,58.32604258,62c50e9c1127f2cd403a315f,,,,,,,,,,,,,,,,,,,,,,,,,,,,,,,,,,,,,,,,,,,,,,,,,,,,,,,,,,,,,,,,,,,,,,,,,,,,,,,,,,,,,,,,,,,,,,,,,,,,,,,,,,,,,,,,,,,,,,,,,,,,,,,,,,,,,,,,,,,,,,,,,,,,,,,,,,,,,,,,
0,75,75,54,1,,603f6e643234e512fc197ae1,62c5561defbf919e4800deff,2022-07-06_11h56.59.305,Colour_Asymmetry_Pilot,2022.1.3,Win32,58.32604258,62c50e9c1127f2cd403a315f,,,,,,,,,,,,,,,,,,,,,,,,,,,,,,,,,,,,,,,,,,,,,,,,,,,,,,,,,,,,,,,,,,,,,,,,,,,,,,,,,,,,,,,,,,,,,,,,,,,,,,,,,,,,,,,,,,,,,,,,,,,,,,,,,,,,,,,,,,,,,,,,,,,,,,,,,,,,,,,,
0,76,76,52,1,,603f6e643234e512fc197ae1,62c5561defbf919e4800deff,2022-07-06_11h56.59.305,Colour_Asymmetry_Pilot,2022.1.3,Win32,58.32604258,62c50e9c1127f2cd403a315f,,,,,,,,,,,,,,,,,,,,,,,,,,,,,,,,,,,,,,,,,,,,,,,,,,,,,,,,,,,,,,,,,,,,,,,,,,,,,,,,,,,,,,,,,,,,,,,,,,,,,,,,,,,,,,,,,,,,,,,,,,,,,,,,,,,,,,,,,,,,,,,,,,,,,,,,,,,,,,,,
0,77,77,89,1,,603f6e643234e512fc197ae1,62c5561defbf919e4800deff,2022-07-06_11h56.59.305,Colour_Asymmetry_Pilot,2022.1.3,Win32,58.32604258,62c50e9c1127f2cd403a315f,,,,,,,,,,,,,,,,,,,,,,,,,,,,,,,,,,,,,,,,,,,,,,,,,,,,,,,,,,,,,,,,,,,,,,,,,,,,,,,,,,,,,,,,,,,,,,,,,,,,,,,,,,,,,,,,,,,,,,,,,,,,,,,,,,,,,,,,,,,,,,,,,,,,,,,,,,,,,,,,
0,78,78,2,1,,603f6e643234e512fc197ae1,62c5561defbf919e4800deff,2022-07-06_11h56.59.305,Colour_Asymmetry_Pilot,2022.1.3,Win32,58.32604258,62c50e9c1127f2cd403a315f,,,,,,,,,,,,,,,,,,,,,,,,,,,,,,,,,,,,,,,,,,,,,,,,,,,,,,,,,,,,,,,,,,,,,,,,,,,,,,,,,,,,,,,,,,,,,,,,,,,,,,,,,,,,,,,,,,,,,,,,,,,,,,,,,,,,,,,,,,,,,,,,,,,,,,,,,,,,,,,,
0,79,79,64,1,,603f6e643234e512fc197ae1,62c5561defbf919e4800deff,2022-07-06_11h56.59.305,Colour_Asymmetry_Pilot,2022.1.3,Win32,58.32604258,62c50e9c1127f2cd403a315f,,,,,,,,,,,,,,,,,,,,,,,,,,,,,,,,,,,,,,,,,,,,,,,,,,,,,,,,,,,,,,,,,,,,,,,,,,,,,,,,,,,,,,,,,,,,,,,,,,,,,,,,,,,,,,,,,,,,,,,,,,,,,,,,,,,,,,,,,,,,,,,,,,,,,,,,,,,,,,,,
0,80,80,56,1,,603f6e643234e512fc197ae1,62c5561defbf919e4800deff,2022-07-06_11h56.59.305,Colour_Asymmetry_Pilot,2022.1.3,Win32,58.32604258,62c50e9c1127f2cd403a315f,,,,,,,,,,,,,,,,,,,,,,,,,,,,,,,,,,,,,,,,,,,,,,,,,,,,,,,,,,,,,,,,,,,,,,,,,,,,,,,,,,,,,,,,,,,,,,,,,,,,,,,,,,,,,,,,,,,,,,,,,,,,,,,,,,,,,,,,,,,,,,,,,,,,,,,,,,,,,,,,
0,81,81,10,1,,603f6e643234e512fc197ae1,62c5561defbf919e4800deff,2022-07-06_11h56.59.305,Colour_Asymmetry_Pilot,2022.1.3,Win32,58.32604258,62c50e9c1127f2cd403a315f,,,,,,,,,,,,,,,,,,,,,,,,,,,,,,,,,,,,,,,,,,,,,,,,,,,,,,,,,,,,,,,,,,,,,,,,,,,,,,,,,,,,,,,,,,,,,,,,,,,,,,,,,,,,,,,,,,,,,,,,,,,,,,,,,,,,,,,,,,,,,,,,,,,,,,,,,,,,,,,,
0,82,82,45,1,,603f6e643234e512fc197ae1,62c5561defbf919e4800deff,2022-07-06_11h56.59.305,Colour_Asymmetry_Pilot,2022.1.3,Win32,58.32604258,62c50e9c1127f2cd403a315f,,,,,,,,,,,,,,,,,,,,,,,,,,,,,,,,,,,,,,,,,,,,,,,,,,,,,,,,,,,,,,,,,,,,,,,,,,,,,,,,,,,,,,,,,,,,,,,,,,,,,,,,,,,,,,,,,,,,,,,,,,,,,,,,,,,,,,,,,,,,,,,,,,,,,,,,,,,,,,,,
0,83,83,15,1,,603f6e643234e512fc197ae1,62c5561defbf919e4800deff,2022-07-06_11h56.59.305,Colour_Asymmetry_Pilot,2022.1.3,Win32,58.32604258,62c50e9c1127f2cd403a315f,,,,,,,,,,,,,,,,,,,,,,,,,,,,,,,,,,,,,,,,,,,,,,,,,,,,,,,,,,,,,,,,,,,,,,,,,,,,,,,,,,,,,,,,,,,,,,,,,,,,,,,,,,,,,,,,,,,,,,,,,,,,,,,,,,,,,,,,,,,,,,,,,,,,,,,,,,,,,,,,
0,84,84,19,1,,603f6e643234e512fc197ae1,62c5561defbf919e4800deff,2022-07-06_11h56.59.305,Colour_Asymmetry_Pilot,2022.1.3,Win32,58.32604258,62c50e9c1127f2cd403a315f,,,,,,,,,,,,,,,,,,,,,,,,,,,,,,,,,,,,,,,,,,,,,,,,,,,,,,,,,,,,,,,,,,,,,,,,,,,,,,,,,,,,,,,,,,,,,,,,,,,,,,,,,,,,,,,,,,,,,,,,,,,,,,,,,,,,,,,,,,,,,,,,,,,,,,,,,,,,,,,,
0,85,85,70,1,,603f6e643234e512fc197ae1,62c5561defbf919e4800deff,2022-07-06_11h56.59.305,Colour_Asymmetry_Pilot,2022.1.3,Win32,58.32604258,62c50e9c1127f2cd403a315f,,,,,,,,,,,,,,,,,,,,,,,,,,,,,,,,,,,,,,,,,,,,,,,,,,,,,,,,,,,,,,,,,,,,,,,,,,,,,,,,,,,,,,,,,,,,,,,,,,,,,,,,,,,,,,,,,,,,,,,,,,,,,,,,,,,,,,,,,,,,,,,,,,,,,,,,,,,,,,,,
0,86,86,21,1,,603f6e643234e512fc197ae1,62c5561defbf919e4800deff,2022-07-06_11h56.59.305,Colour_Asymmetry_Pilot,2022.1.3,Win32,58.32604258,62c50e9c1127f2cd403a315f,,,,,,,,,,,,,,,,,,,,,,,,,,,,,,,,,,,,,,,,,,,,,,,,,,,,,,,,,,,,,,,,,,,,,,,,,,,,,,,,,,,,,,,,,,,,,,,,,,,,,,,,,,,,,,,,,,,,,,,,,,,,,,,,,,,,,,,,,,,,,,,,,,,,,,,,,,,,,,,,
0,87,87,86,1,,603f6e643234e512fc197ae1,62c5561defbf919e4800deff,2022-07-06_11h56.59.305,Colour_Asymmetry_Pilot,2022.1.3,Win32,58.32604258,62c50e9c1127f2cd403a315f,,,,,,,,,,,,,,,,,,,,,,,,,,,,,,,,,,,,,,,,,,,,,,,,,,,,,,,,,,,,,,,,,,,,,,,,,,,,,,,,,,,,,,,,,,,,,,,,,,,,,,,,,,,,,,,,,,,,,,,,,,,,,,,,,,,,,,,,,,,,,,,,,,,,,,,,,,,,,,,,
0,88,88,1,1,,603f6e643234e512fc197ae1,62c5561defbf919e4800deff,2022-07-06_11h56.59.305,Colour_Asymmetry_Pilot,2022.1.3,Win32,58.32604258,62c50e9c1127f2cd403a315f,,,,,,,,,,,,,,,,,,,,,,,,,,,,,,,,,,,,,,,,,,,,,,,,,,,,,,,,,,,,,,,,,,,,,,,,,,,,,,,,,,,,,,,,,,,,,,,,,,,,,,,,,,,,,,,,,,,,,,,,,,,,,,,,,,,,,,,,,,,,,,,,,,,,,,,,,,,,,,,,
0,89,89,33,1,,603f6e643234e512fc197ae1,62c5561defbf919e4800deff,2022-07-06_11h56.59.305,Colour_Asymmetry_Pilot,2022.1.3,Win32,58.32604258,62c50e9c1127f2cd403a315f,,,,,,,,,,,,,,,,,,,,,,,,,,,,,,,,,,,,,,,,,,,,,,,,,,,,,,,,,,,,,,,,,,,,,,,,,,,,,,,,,,,,,,,,,,,,,,,,,,,,,,,,,,,,,,,,,,,,,,,,,,,,,,,,,,,,,,,,,,,,,,,,,,,,,,,,,,,,,,,,
0,90,90,65,1,,603f6e643234e512fc197ae1,62c5561defbf919e4800deff,2022-07-06_11h56.59.305,Colour_Asymmetry_Pilot,2022.1.3,Win32,58.32604258,62c50e9c1127f2cd403a315f,,,,,,,,,,,,,,,,,,,,,,,,,,,,,,,,,,,,,,,,,,,,,,,,,,,,,,,,,,,,,,,,,,,,,,,,,,,,,,,,,,,,,,,,,,,,,,,,,,,,,,,,,,,,,,,,,,,,,,,,,,,,,,,,,,,,,,,,,,,,,,,,,,,,,,,,,,,,,,,,
0,91,91,25,1,,603f6e643234e512fc197ae1,62c5561defbf919e4800deff,2022-07-06_11h56.59.305,Colour_Asymmetry_Pilot,2022.1.3,Win32,58.32604258,62c50e9c1127f2cd403a315f,,,,,,,,,,,,,,,,,,,,,,,,,,,,,,,,,,,,,,,,,,,,,,,,,,,,,,,,,,,,,,,,,,,,,,,,,,,,,,,,,,,,,,,,,,,,,,,,,,,,,,,,,,,,,,,,,,,,,,,,,,,,,,,,,,,,,,,,,,,,,,,,,,,,,,,,,,,,,,,,
0,92,92,22,1,,603f6e643234e512fc197ae1,62c5561defbf919e4800deff,2022-07-06_11h56.59.305,Colour_Asymmetry_Pilot,2022.1.3,Win32,58.32604258,62c50e9c1127f2cd403a315f,,,,,,,,,,,,,,,,,,,,,,,,,,,,,,,,,,,,,,,,,,,,,,,,,,,,,,,,,,,,,,,,,,,,,,,,,,,,,,,,,,,,,,,,,,,,,,,,,,,,,,,,,,,,,,,,,,,,,,,,,,,,,,,,,,,,,,,,,,,,,,,,,,,,,,,,,,,,,,,,
,,,,,,603f6e643234e512fc197ae1,62c5561defbf919e4800deff,2022-07-06_11h56.59.305,Colour_Asymmetry_Pilot,2022.1.3,Win32,58.32604258,62c50e9c1127f2cd403a315f,0,0,0,82,1,twoone,,,,,,,,,,,,,,,,,,,,,,,,,,,,,,,,,,,,,,,,,,,,,,,,,,,,,,,,,,,,,,,,,,,,,,,,,,,,,,,,,,,,,,,,,,,,,,,,,,,,,,,,,,,,,,,,,,,,,,,,,,,,,,,,,,,,,,,,,,,,,,,,,,,,,,,,,,
,,,,,,603f6e643234e512fc197ae1,62c5561defbf919e4800deff,2022-07-06_11h56.59.305,Colour_Asymmetry_Pilot,2022.1.3,Win32,58.32604258,62c50e9c1127f2cd403a315f,0,1,1,54,1,fourtwo,,,,,,,,,,,,,,,,,,,,,,,,,,,,,,,,,,,,,,,,,,,,,,,,,,,,,,,,,,,,,,,,,,,,,,,,,,,,,,,,,,,,,,,,,,,,,,,,,,,,,,,,,,,,,,,,,,,,,,,,,,,,,,,,,,,,,,,,,,,,,,,,,,,,,,,,,,
,,,,,,603f6e643234e512fc197ae1,62c5561defbf919e4800deff,2022-07-06_11h56.59.305,Colour_Asymmetry_Pilot,2022.1.3,Win32,58.32604258,62c50e9c1127f2cd403a315f,0,2,2,104,1,onetwo,,,,,,,,,,,,,,,,,,,,,,,,,,,,,,,,,,,,,,,,,,,,,,,,,,,,,,,,,,,,,,,,,,,,,,,,,,,,,,,,,,,,,,,,,,,,,,,,,,,,,,,,,,,,,,,,,,,,,,,,,,,,,,,,,,,,,,,,,,,,,,,,,,,,,,,,,,
,,,,,,603f6e643234e512fc197ae1,62c5561defbf919e4800deff,2022-07-06_11h56.59.305,Colour_Asymmetry_Pilot,2022.1.3,Win32,58.32604258,62c50e9c1127f2cd403a315f,0,3,3,22,1,fourtwo,,,,,,,,,,,,,,,,,,,,,,,,,,,,,,,,,,,,,,,,,,,,,,,,,,,,,,,,,,,,,,,,,,,,,,,,,,,,,,,,,,,,,,,,,,,,,,,,,,,,,,,,,,,,,,,,,,,,,,,,,,,,,,,,,,,,,,,,,,,,,,,,,,,,,,,,,,
,,,,,,603f6e643234e512fc197ae1,62c5561defbf919e4800deff,2022-07-06_11h56.59.305,Colour_Asymmetry_Pilot,2022.1.3,Win32,58.32604258,62c50e9c1127f2cd403a315f,0,4,4,98,1,twoone,,,,,,,,,,,,,,,,,,,,,,,,,,,,,,,,,,,,,,,,,,,,,,,,,,,,,,,,,,,,,,,,,,,,,,,,,,,,,,,,,,,,,,,,,,,,,,,,,,,,,,,,,,,,,,,,,,,,,,,,,,,,,,,,,,,,,,,,,,,,,,,,,,,,,,,,,,
,,,,,,603f6e643234e512fc197ae1,62c5561defbf919e4800deff,2022-07-06_11h56.59.305,Colour_Asymmetry_Pilot,2022.1.3,Win32,58.32604258,62c50e9c1127f2cd403a315f,0,5,5,127,1,fourthree,,,,,,,,,,,,,,,,,,,,,,,,,,,,,,,,,,,,,,,,,,,,,,,,,,,,,,,,,,,,,,,,,,,,,,,,,,,,,,,,,,,,,,,,,,,,,,,,,,,,,,,,,,,,,,,,,,,,,,,,,,,,,,,,,,,,,,,,,,,,,,,,,,,,,,,,,,
,,,,,,603f6e643234e512fc197ae1,62c5561defbf919e4800deff,2022-07-06_11h56.59.305,Colour_Asymmetry_Pilot,2022.1.3,Win32,58.32604258,62c50e9c1127f2cd403a315f,0,6,6,78,1,fourtwo,,,,,,,,,,,,,,,,,,,,,,,,,,,,,,,,,,,,,,,,,,,,,,,,,,,,,,,,,,,,,,,,,,,,,,,,,,,,,,,,,,,,,,,,,,,,,,,,,,,,,,,,,,,,,,,,,,,,,,,,,,,,,,,,,,,,,,,,,,,,,,,,,,,,,,,,,,
,,,,,,603f6e643234e512fc197ae1,62c5561defbf919e4800deff,2022-07-06_11h56.59.305,Colour_Asymmetry_Pilot,2022.1.3,Win32,58.32604258,62c50e9c1127f2cd403a315f,0,7,7,145,1,onethree,,,,,,,,,,,,,,,,,,,,,,,,,,,,,,,,,,,,,,,,,,,,,,,,,,,,,,,,,,,,,,,,,,,,,,,,,,,,,,,,,,,,,,,,,,,,,,,,,,,,,,,,,,,,,,,,,,,,,,,,,,,,,,,,,,,,,,,,,,,,,,,,,,,,,,,,,,
,,,,,,603f6e643234e512fc197ae1,62c5561defbf919e4800deff,2022-07-06_11h56.59.305,Colour_Asymmetry_Pilot,2022.1.3,Win32,58.32604258,62c50e9c1127f2cd403a315f,0,8,8,34,1,twoone,,,,,,,,,,,,,,,,,,,,,,,,,,,,,,,,,,,,,,,,,,,,,,,,,,,,,,,,,,,,,,,,,,,,,,,,,,,,,,,,,,,,,,,,,,,,,,,,,,,,,,,,,,,,,,,,,,,,,,,,,,,,,,,,,,,,,,,,,,,,,,,,,,,,,,,,,,
,,,,,,603f6e643234e512fc197ae1,62c5561defbf919e4800deff,2022-07-06_11h56.59.305,Colour_Asymmetry_Pilot,2022.1.3,Win32,58.32604258,62c50e9c1127f2cd403a315f,0,9,9,38,1,fourtwo,,,,,,,,,,,,,,,,,,,,,,,,,,,,,,,,,,,,,,,,,,,,,,,,,,,,,,,,,,,,,,,,,,,,,,,,,,,,,,,,,,,,,,,,,,,,,,,,,,,,,,,,,,,,,,,,,,,,,,,,,,,,,,,,,,,,,,,,,,,,,,,,,,,,,,,,,,
,,,,,,603f6e643234e512fc197ae1,62c5561defbf919e4800deff,2022-07-06_11h56.59.305,Colour_Asymmetry_Pilot,2022.1.3,Win32,58.32604258,62c50e9c1127f2cd403a315f,0,10,10,27,1,twofour,,,,,,,,,,,,,,,,,,,,,,,,,,,,,,,,,,,,,,,,,,,,,,,,,,,,,,,,,,,,,,,,,,,,,,,,,,,,,,,,,,,,,,,,,,,,,,,,,,,,,,,,,,,,,,,,,,,,,,,,,,,,,,,,,,,,,,,,,,,,,,,,,,,,,,,,,,
,,,,,,603f6e643234e512fc197ae1,62c5561defbf919e4800deff,2022-07-06_11h56.59.305,Colour_Asymmetry_Pilot,2022.1.3,Win32,58.32604258,62c50e9c1127f2cd403a315f,0,11,11,150,1,fourtwo,,,,,,,,,,,,,,,,,,,,,,,,,,,,,,,,,,,,,,,,,,,,,,,,,,,,,,,,,,,,,,,,,,,,,,,,,,,,,,,,,,,,,,,,,,,,,,,,,,,,,,,,,,,,,,,,,,,,,,,,,,,,,,,,,,,,,,,,,,,,,,,,,,,,,,,,,,
,,,,,,603f6e643234e512fc197ae1,62c5561defbf919e4800deff,2022-07-06_11h56.59.305,Colour_Asymmetry_Pilot,2022.1.3,Win32,58.32604258,62c50e9c1127f2cd403a315f,0,12,12,51,1,twofour,,,,,,,,,,,,,,,,,,,,,,,,,,,,,,,,,,,,,,,,,,,,,,,,,,,,,,,,,,,,,,,,,,,,,,,,,,,,,,,,,,,,,,,,,,,,,,,,,,,,,,,,,,,,,,,,,,,,,,,,,,,,,,,,,,,,,,,,,,,,,,,,,,,,,,,,,,
,,,,,,603f6e643234e512fc197ae1,62c5561defbf919e4800deff,2022-07-06_11h56.59.305,Colour_Asymmetry_Pilot,2022.1.3,Win32,58.32604258,62c50e9c1127f2cd403a315f,0,13,13,13,1,threefour,,,,,,,,,,,,,,,,,,,,,,,,,,,,,,,,,,,,,,,,,,,,,,,,,,,,,,,,,,,,,,,,,,,,,,,,,,,,,,,,,,,,,,,,,,,,,,,,,,,,,,,,,,,,,,,,,,,,,,,,,,,,,,,,,,,,,,,,,,,,,,,,,,,,,,,,,,
,,,,,,603f6e643234e512fc197ae1,62c5561defbf919e4800deff,2022-07-06_11h56.59.305,Colour_Asymmetry_Pilot,2022.1.3,Win32,58.32604258,62c50e9c1127f2cd403a315f,0,14,14,140,1,threeone,,,,,,,,,,,,,,,,,,,,,,,,,,,,,,,,,,,,,,,,,,,,,,,,,,,,,,,,,,,,,,,,,,,,,,,,,,,,,,,,,,,,,,,,,,,,,,,,,,,,,,,,,,,,,,,,,,,,,,,,,,,,,,,,,,,,,,,,,,,,,,,,,,,,,,,,,,
,,,,,,603f6e643234e512fc197ae1,62c5561defbf919e4800deff,2022-07-06_11h56.59.305,Colour_Asymmetry_Pilot,2022.1.3,Win32,58.32604258,62c50e9c1127f2cd403a315f,0,15,15,11,1,twofour,,,,,,,,,,,,,,,,,,,,,,,,,,,,,,,,,,,,,,,,,,,,,,,,,,,,,,,,,,,,,,,,,,,,,,,,,,,,,,,,,,,,,,,,,,,,,,,,,,,,,,,,,,,,,,,,,,,,,,,,,,,,,,,,,,,,,,,,,,,,,,,,,,,,,,,,,,
,,,,,,603f6e643234e512fc197ae1,62c5561defbf919e4800deff,2022-07-06_11h56.59.305,Colour_Asymmetry_Pilot,2022.1.3,Win32,58.32604258,62c50e9c1127f2cd403a315f,0,16,16,65,1,onethree,,,,,,,,,,,,,,,,,,,,,,,,,,,,,,,,,,,,,,,,,,,,,,,,,,,,,,,,,,,,,,,,,,,,,,,,,,,,,,,,,,,,,,,,,,,,,,,,,,,,,,,,,,,,,,,,,,,,,,,,,,,,,,,,,,,,,,,,,,,,,,,,,,,,,,,,,,
,,,,,,603f6e643234e512fc197ae1,62c5561defbf919e4800deff,2022-07-06_11h56.59.305,Colour_Asymmetry_Pilot,2022.1.3,Win32,58.32604258,62c50e9c1127f2cd403a315f,0,17,17,67,1,twofour,,,,,,,,,,,,,,,,,,,,,,,,,,,,,,,,,,,,,,,,,,,,,,,,,,,,,,,,,,,,,,,,,,,,,,,,,,,,,,,,,,,,,,,,,,,,,,,,,,,,,,,,,,,,,,,,,,,,,,,,,,,,,,,,,,,,,,,,,,,,,,,,,,,,,,,,,,
,,,,,,603f6e643234e512fc197ae1,62c5561defbf919e4800deff,2022-07-06_11h56.59.305,Colour_Asymmetry_Pilot,2022.1.3,Win32,58.32604258,62c50e9c1127f2cd403a315f,0,18,18,43,1,twofour,,,,,,,,,,,,,,,,,,,,,,,,,,,,,,,,,,,,,,,,,,,,,,,,,,,,,,,,,,,,,,,,,,,,,,,,,,,,,,,,,,,,,,,,,,,,,,,,,,,,,,,,,,,,,,,,,,,,,,,,,,,,,,,,,,,,,,,,,,,,,,,,,,,,,,,,,,
,,,,,,603f6e643234e512fc197ae1,62c5561defbf919e4800deff,2022-07-06_11h56.59.305,Colour_Asymmetry_Pilot,2022.1.3,Win32,58.32604258,62c50e9c1127f2cd403a315f,0,19,19,100,1,threeone,,,,,,,,,,,,,,,,,,,,,,,,,,,,,,,,,,,,,,,,,,,,,,,,,,,,,,,,,,,,,,,,,,,,,,,,,,,,,,,,,,,,,,,,,,,,,,,,,,,,,,,,,,,,,,,,,,,,,,,,,,,,,,,,,,,,,,,,,,,,,,,,,,,,,,,,,,
,,,,,,603f6e643234e512fc197ae1,62c5561defbf919e4800deff,2022-07-06_11h56.59.305,Colour_Asymmetry_Pilot,2022.1.3,Win32,58.32604258,62c50e9c1127f2cd403a315f,0,20,20,31,1,fourthree,,,,,,,,,,,,,,,,,,,,,,,,,,,,,,,,,,,,,,,,,,,,,,,,,,,,,,,,,,,,,,,,,,,,,,,,,,,,,,,,,,,,,,,,,,,,,,,,,,,,,,,,,,,,,,,,,,,,,,,,,,,,,,,,,,,,,,,,,,,,,,,,,,,,,,,,,,
,,,,,,603f6e643234e512fc197ae1,62c5561defbf919e4800deff,2022-07-06_11h56.59.305,Colour_Asymmetry_Pilot,2022.1.3,Win32,58.32604258,62c50e9c1127f2cd403a315f,0,21,21,144,1,onetwo,,,,,,,,,,,,,,,,,,,,,,,,,,,,,,,,,,,,,,,,,,,,,,,,,,,,,,,,,,,,,,,,,,,,,,,,,,,,,,,,,,,,,,,,,,,,,,,,,,,,,,,,,,,,,,,,,,,,,,,,,,,,,,,,,,,,,,,,,,,,,,,,,,,,,,,,,,
,,,,,,603f6e643234e512fc197ae1,62c5561defbf919e4800deff,2022-07-06_11h56.59.305,Colour_Asymmetry_Pilot,2022.1.3,Win32,58.32604258,62c50e9c1127f2cd403a315f,0,22,22,156,1,threeone,,,,,,,,,,,,,,,,,,,,,,,,,,,,,,,,,,,,,,,,,,,,,,,,,,,,,,,,,,,,,,,,,,,,,,,,,,,,,,,,,,,,,,,,,,,,,,,,,,,,,,,,,,,,,,,,,,,,,,,,,,,,,,,,,,,,,,,,,,,,,,,,,,,,,,,,,,
,,,,,,603f6e643234e512fc197ae1,62c5561defbf919e4800deff,2022-07-06_11h56.59.305,Colour_Asymmetry_Pilot,2022.1.3,Win32,58.32604258,62c50e9c1127f2cd403a315f,0,23,23,128,1,onetwo,,,,,,,,,,,,,,,,,,,,,,,,,,,,,,,,,,,,,,,,,,,,,,,,,,,,,,,,,,,,,,,,,,,,,,,,,,,,,,,,,,,,,,,,,,,,,,,,,,,,,,,,,,,,,,,,,,,,,,,,,,,,,,,,,,,,,,,,,,,,,,,,,,,,,,,,,,
,,,,,,603f6e643234e512fc197ae1,62c5561defbf919e4800deff,2022-07-06_11h56.59.305,Colour_Asymmetry_Pilot,2022.1.3,Win32,58.32604258,62c50e9c1127f2cd403a315f,0,24,24,77,1,threefour,,,,,,,,,,,,,,,,,,,,,,,,,,,,,,,,,,,,,,,,,,,,,,,,,,,,,,,,,,,,,,,,,,,,,,,,,,,,,,,,,,,,,,,,,,,,,,,,,,,,,,,,,,,,,,,,,,,,,,,,,,,,,,,,,,,,,,,,,,,,,,,,,,,,,,,,,,
,,,,,,603f6e643234e512fc197ae1,62c5561defbf919e4800deff,2022-07-06_11h56.59.305,Colour_Asymmetry_Pilot,2022.1.3,Win32,58.32604258,62c50e9c1127f2cd403a315f,0,25,25,16,1,onetwo,,,,,,,,,,,,,,,,,,,,,,,,,,,,,,,,,,,,,,,,,,,,,,,,,,,,,,,,,,,,,,,,,,,,,,,,,,,,,,,,,,,,,,,,,,,,,,,,,,,,,,,,,,,,,,,,,,,,,,,,,,,,,,,,,,,,,,,,,,,,,,,,,,,,,,,,,,
,,,,,,603f6e643234e512fc197ae1,62c5561defbf919e4800deff,2022-07-06_11h56.59.305,Colour_Asymmetry_Pilot,2022.1.3,Win32,58.32604258,62c50e9c1127f2cd403a315f,0,26,26,79,1,fourthree,,,,,,,,,,,,,,,,,,,,,,,,,,,,,,,,,,,,,,,,,,,,,,,,,,,,,,,,,,,,,,,,,,,,,,,,,,,,,,,,,,,,,,,,,,,,,,,,,,,,,,,,,,,,,,,,,,,,,,,,,,,,,,,,,,,,,,,,,,,,,,,,,,,,,,,,,,
,,,,,,603f6e643234e512fc197ae1,62c5561defbf919e4800deff,2022-07-06_11h56.59.305,Colour_Asymmetry_Pilot,2022.1.3,Win32,58.32604258,62c50e9c1127f2cd403a315f,0,27,27,62,1,fourtwo,,,,,,,,,,,,,,,,,,,,,,,,,,,,,,,,,,,,,,,,,,,,,,,,,,,,,,,,,,,,,,,,,,,,,,,,,,,,,,,,,,,,,,,,,,,,,,,,,,,,,,,,,,,,,,,,,,,,,,,,,,,,,,,,,,,,,,,,,,,,,,,,,,,,,,,,,,
,,,,,,603f6e643234e512fc197ae1,62c5561defbf919e4800deff,2022-07-06_11h56.59.305,Colour_Asymmetry_Pilot,2022.1.3,Win32,58.32604258,62c50e9c1127f2cd403a315f,0,28,28,159,1,fourthree,,,,,,,,,,,,,,,,,,,,,,,,,,,,,,,,,,,,,,,,,,,,,,,,,,,,,,,,,,,,,,,,,,,,,,,,,,,,,,,,,,,,,,,,,,,,,,,,,,,,,,,,,,,,,,,,,,,,,,,,,,,,,,,,,,,,,,,,,,,,,,,,,,,,,,,,,,
,,,,,,603f6e643234e512fc197ae1,62c5561defbf919e4800deff,2022-07-06_11h56.59.305,Colour_Asymmetry_Pilot,2022.1.3,Win32,58.32604258,62c50e9c1127f2cd403a315f,0,29,29,142,1,fourtwo,,,,,,,,,,,,,,,,,,,,,,,,,,,,,,,,,,,,,,,,,,,,,,,,,,,,,,,,,,,,,,,,,,,,,,,,,,,,,,,,,,,,,,,,,,,,,,,,,,,,,,,,,,,,,,,,,,,,,,,,,,,,,,,,,,,,,,,,,,,,,,,,,,,,,,,,,,
,,,,,,603f6e643234e512fc197ae1,62c5561defbf919e4800deff,2022-07-06_11h56.59.305,Colour_Asymmetry_Pilot,2022.1.3,Win32,58.32604258,62c50e9c1127f2cd403a315f,0,30,30,129,1,onethree,,,,,,,,,,,,,,,,,,,,,,,,,,,,,,,,,,,,,,,,,,,,,,,,,,,,,,,,,,,,,,,,,,,,,,,,,,,,,,,,,,,,,,,,,,,,,,,,,,,,,,,,,,,,,,,,,,,,,,,,,,,,,,,,,,,,,,,,,,,,,,,,,,,,,,,,,,
,,,,,,603f6e643234e512fc197ae1,62c5561defbf919e4800deff,2022-07-06_11h56.59.305,Colour_Asymmetry_Pilot,2022.1.3,Win32,58.32604258,62c50e9c1127f2cd403a315f,0,31,31,8,1,onetwo,,,,,,,,,,,,,,,,,,,,,,,,,,,,,,,,,,,,,,,,,,,,,,,,,,,,,,,,,,,,,,,,,,,,,,,,,,,,,,,,,,,,,,,,,,,,,,,,,,,,,,,,,,,,,,,,,,,,,,,,,,,,,,,,,,,,,,,,,,,,,,,,,,,,,,,,,,
,,,,,,603f6e643234e512fc197ae1,62c5561defbf919e4800deff,2022-07-06_11h56.59.305,Colour_Asymmetry_Pilot,2022.1.3,Win32,58.32604258,62c50e9c1127f2cd403a315f,0,32,32,36,1,threeone,,,,,,,,,,,,,,,,,,,,,,,,,,,,,,,,,,,,,,,,,,,,,,,,,,,,,,,,,,,,,,,,,,,,,,,,,,,,,,,,,,,,,,,,,,,,,,,,,,,,,,,,,,,,,,,,,,,,,,,,,,,,,,,,,,,,,,,,,,,,,,,,,,,,,,,,,,
,,,,,,603f6e643234e512fc197ae1,62c5561defbf919e4800deff,2022-07-06_11h56.59.305,Colour_Asymmetry_Pilot,2022.1.3,Win32,58.32604258,62c50e9c1127f2cd403a315f,0,33,33,111,1,fourthree,,,,,,,,,,,,,,,,,,,,,,,,,,,,,,,,,,,,,,,,,,,,,,,,,,,,,,,,,,,,,,,,,,,,,,,,,,,,,,,,,,,,,,,,,,,,,,,,,,,,,,,,,,,,,,,,,,,,,,,,,,,,,,,,,,,,,,,,,,,,,,,,,,,,,,,,,,
,,,,,,603f6e643234e512fc197ae1,62c5561defbf919e4800deff,2022-07-06_11h56.59.305,Colour_Asymmetry_Pilot,2022.1.3,Win32,58.32604258,62c50e9c1127f2cd403a315f,0,34,34,88,1,onetwo,,,,,,,,,,,,,,,,,,,,,,,,,,,,,,,,,,,,,,,,,,,,,,,,,,,,,,,,,,,,,,,,,,,,,,,,,,,,,,,,,,,,,,,,,,,,,,,,,,,,,,,,,,,,,,,,,,,,,,,,,,,,,,,,,,,,,,,,,,,,,,,,,,,,,,,,,,
,,,,,,603f6e643234e512fc197ae1,62c5561defbf919e4800deff,2022-07-06_11h56.59.305,Colour_Asymmetry_Pilot,2022.1.3,Win32,58.32604258,62c50e9c1127f2cd403a315f,0,35,35,0,1,onetwo,,,,,,,,,,,,,,,,,,,,,,,,,,,,,,,,,,,,,,,,,,,,,,,,,,,,,,,,,,,,,,,,,,,,,,,,,,,,,,,,,,,,,,,,,,,,,,,,,,,,,,,,,,,,,,,,,,,,,,,,,,,,,,,,,,,,,,,,,,,,,,,,,,,,,,,,,,
,,,,,,603f6e643234e512fc197ae1,62c5561defbf919e4800deff,2022-07-06_11h56.59.305,Colour_Asymmetry_Pilot,2022.1.3,Win32,58.32604258,62c50e9c1127f2cd403a315f,0,36,36,161,1,onethree,,,,,,,,,,,,,,,,,,,,,,,,,,,,,,,,,,,,,,,,,,,,,,,,,,,,,,,,,,,,,,,,,,,,,,,,,,,,,,,,,,,,,,,,,,,,,,,,,,,,,,,,,,,,,,,,,,,,,,,,,,,,,,,,,,,,,,,,,,,,,,,,,,,,,,,,,,
,,,,,,603f6e643234e512fc197ae1,62c5561defbf919e4800deff,2022-07-06_11h56.59.305,Colour_Asymmetry_Pilot,2022.1.3,Win32,58.32604258,62c50e9c1127f2cd403a315f,0,37,37,124,1,threeone,,,,,,,,,,,,,,,,,,,,,,,,,,,,,,,,,,,,,,,,,,,,,,,,,,,,,,,,,,,,,,,,,,,,,,,,,,,,,,,,,,,,,,,,,,,,,,,,,,,,,,,,,,,,,,,,,,,,,,,,,,,,,,,,,,,,,,,,,,,,,,,,,,,,,,,,,,
,,,,,,603f6e643234e512fc197ae1,62c5561defbf919e4800deff,2022-07-06_11h56.59.305,Colour_Asymmetry_Pilot,2022.1.3,Win32,58.32604258,62c50e9c1127f2cd403a315f,0,38,38,119,1,fourthree,,,,,,,,,,,,,,,,,,,,,,,,,,,,,,,,,,,,,,,,,,,,,,,,,,,,,,,,,,,,,,,,,,,,,,,,,,,,,,,,,,,,,,,,,,,,,,,,,,,,,,,,,,,,,,,,,,,,,,,,,,,,,,,,,,,,,,,,,,,,,,,,,,,,,,,,,,
,,,,,,603f6e643234e512fc197ae1,62c5561defbf919e4800deff,2022-07-06_11h56.59.305,Colour_Asymmetry_Pilot,2022.1.3,Win32,58.32604258,62c50e9c1127f2cd403a315f,0,39,39,45,1,threefour,,,,,,,,,,,,,,,,,,,,,,,,,,,,,,,,,,,,,,,,,,,,,,,,,,,,,,,,,,,,,,,,,,,,,,,,,,,,,,,,,,,,,,,,,,,,,,,,,,,,,,,,,,,,,,,,,,,,,,,,,,,,,,,,,,,,,,,,,,,,,,,,,,,,,,,,,,
,,,,,,603f6e643234e512fc197ae1,62c5561defbf919e4800deff,2022-07-06_11h56.59.305,Colour_Asymmetry_Pilot,2022.1.3,Win32,58.32604258,62c50e9c1127f2cd403a315f,0,40,40,23,1,fourthree,,,,,,,,,,,,,,,,,,,,,,,,,,,,,,,,,,,,,,,,,,,,,,,,,,,,,,,,,,,,,,,,,,,,,,,,,,,,,,,,,,,,,,,,,,,,,,,,,,,,,,,,,,,,,,,,,,,,,,,,,,,,,,,,,,,,,,,,,,,,,,,,,,,,,,,,,,
,,,,,,603f6e643234e512fc197ae1,62c5561defbf919e4800deff,2022-07-06_11h56.59.305,Colour_Asymmetry_Pilot,2022.1.3,Win32,58.32604258,62c50e9c1127f2cd403a315f,0,41,41,47,1,fourthree,,,,,,,,,,,,,,,,,,,,,,,,,,,,,,,,,,,,,,,,,,,,,,,,,,,,,,,,,,,,,,,,,,,,,,,,,,,,,,,,,,,,,,,,,,,,,,,,,,,,,,,,,,,,,,,,,,,,,,,,,,,,,,,,,,,,,,,,,,,,,,,,,,,,,,,,,,
,,,,,,603f6e643234e512fc197ae1,62c5561defbf919e4800deff,2022-07-06_11h56.59.305,Colour_Asymmetry_Pilot,2022.1.3,Win32,58.32604258,62c50e9c1127f2cd403a315f,0,42,42,102,1,fourtwo,,,,,,,,,,,,,,,,,,,,,,,,,,,,,,,,,,,,,,,,,,,,,,,,,,,,,,,,,,,,,,,,,,,,,,,,,,,,,,,,,,,,,,,,,,,,,,,,,,,,,,,,,,,,,,,,,,,,,,,,,,,,,,,,,,,,,,,,,,,,,,,,,,,,,,,,,,
,,,,,,603f6e643234e512fc197ae1,62c5561defbf919e4800deff,2022-07-06_11h56.59.305,Colour_Asymmetry_Pilot,2022.1.3,Win32,58.32604258,62c50e9c1127f2cd403a315f,0,43,43,41,1,onethree,,,,,,,,,,,,,,,,,,,,,,,,,,,,,,,,,,,,,,,,,,,,,,,,,,,,,,,,,,,,,,,,,,,,,,,,,,,,,,,,,,,,,,,,,,,,,,,,,,,,,,,,,,,,,,,,,,,,,,,,,,,,,,,,,,,,,,,,,,,,,,,,,,,,,,,,,,
,,,,,,603f6e643234e512fc197ae1,62c5561defbf919e4800deff,2022-07-06_11h56.59.305,Colour_Asymmetry_Pilot,2022.1.3,Win32,58.32604258,62c50e9c1127f2cd403a315f,0,44,44,12,1,threeone,,,,,,,,,,,,,,,,,,,,,,,,,,,,,,,,,,,,,,,,,,,,,,,,,,,,,,,,,,,,,,,,,,,,,,,,,,,,,,,,,,,,,,,,,,,,,,,,,,,,,,,,,,,,,,,,,,,,,,,,,,,,,,,,,,,,,,,,,,,,,,,,,,,,,,,,,,
,,,,,,603f6e643234e512fc197ae1,62c5561defbf919e4800deff,2022-07-06_11h56.59.305,Colour_Asymmetry_Pilot,2022.1.3,Win32,58.32604258,62c50e9c1127f2cd403a315f,0,45,45,63,1,fourthree,,,,,,,,,,,,,,,,,,,,,,,,,,,,,,,,,,,,,,,,,,,,,,,,,,,,,,,,,,,,,,,,,,,,,,,,,,,,,,,,,,,,,,,,,,,,,,,,,,,,,,,,,,,,,,,,,,,,,,,,,,,,,,,,,,,,,,,,,,,,,,,,,,,,,,,,,,
,,,,,,603f6e643234e512fc197ae1,62c5561defbf919e4800deff,2022-07-06_11h56.59.305,Colour_Asymmetry_Pilot,2022.1.3,Win32,58.32604258,62c50e9c1127f2cd403a315f,0,46,46,40,1,onetwo,,,,,,,,,,,,,,,,,,,,,,,,,,,,,,,,,,,,,,,,,,,,,,,,,,,,,,,,,,,,,,,,,,,,,,,,,,,,,,,,,,,,,,,,,,,,,,,,,,,,,,,,,,,,,,,,,,,,,,,,,,,,,,,,,,,,,,,,,,,,,,,,,,,,,,,,,,
,,,,,,603f6e643234e512fc197ae1,62c5561defbf919e4800deff,2022-07-06_11h56.59.305,Colour_Asymmetry_Pilot,2022.1.3,Win32,58.32604258,62c50e9c1127f2cd403a315f,0,47,47,151,1,fourthree,,,,,,,,,,,,,,,,,,,,,,,,,,,,,,,,,,,,,,,,,,,,,,,,,,,,,,,,,,,,,,,,,,,,,,,,,,,,,,,,,,,,,,,,,,,,,,,,,,,,,,,,,,,,,,,,,,,,,,,,,,,,,,,,,,,,,,,,,,,,,,,,,,,,,,,,,,
,,,,,,603f6e643234e512fc197ae1,62c5561defbf919e4800deff,2022-07-06_11h56.59.305,Colour_Asymmetry_Pilot,2022.1.3,Win32,58.32604258,62c50e9c1127f2cd403a315f,0,48,48,28,1,threeone,,,,,,,,,,,,,,,,,,,,,,,,,,,,,,,,,,,,,,,,,,,,,,,,,,,,,,,,,,,,,,,,,,,,,,,,,,,,,,,,,,,,,,,,,,,,,,,,,,,,,,,,,,,,,,,,,,,,,,,,,,,,,,,,,,,,,,,,,,,,,,,,,,,,,,,,,,
,,,,,,603f6e643234e512fc197ae1,62c5561defbf919e4800deff,2022-07-06_11h56.59.305,Colour_Asymmetry_Pilot,2022.1.3,Win32,58.32604258,62c50e9c1127f2cd403a315f,0,49,49,46,1,fourtwo,,,,,,,,,,,,,,,,,,,,,,,,,,,,,,,,,,,,,,,,,,,,,,,,,,,,,,,,,,,,,,,,,,,,,,,,,,,,,,,,,,,,,,,,,,,,,,,,,,,,,,,,,,,,,,,,,,,,,,,,,,,,,,,,,,,,,,,,,,,,,,,,,,,,,,,,,,
,,,,,,603f6e643234e512fc197ae1,62c5561defbf919e4800deff,2022-07-06_11h56.59.305,Colour_Asymmetry_Pilot,2022.1.3,Win32,58.32604258,62c50e9c1127f2cd403a315f,0,50,50,99,1,twofour,,,,,,,,,,,,,,,,,,,,,,,,,,,,,,,,,,,,,,,,,,,,,,,,,,,,,,,,,,,,,,,,,,,,,,,,,,,,,,,,,,,,,,,,,,,,,,,,,,,,,,,,,,,,,,,,,,,,,,,,,,,,,,,,,,,,,,,,,,,,,,,,,,,,,,,,,,
,,,,,,603f6e643234e512fc197ae1,62c5561defbf919e4800deff,2022-07-06_11h56.59.305,Colour_Asymmetry_Pilot,2022.1.3,Win32,58.32604258,62c50e9c1127f2cd403a315f,0,51,51,116,1,threeone,,,,,,,,,,,,,,,,,,,,,,,,,,,,,,,,,,,,,,,,,,,,,,,,,,,,,,,,,,,,,,,,,,,,,,,,,,,,,,,,,,,,,,,,,,,,,,,,,,,,,,,,,,,,,,,,,,,,,,,,,,,,,,,,,,,,,,,,,,,,,,,,,,,,,,,,,,
,,,,,,603f6e643234e512fc197ae1,62c5561defbf919e4800deff,2022-07-06_11h56.59.305,Colour_Asymmetry_Pilot,2022.1.3,Win32,58.32604258,62c50e9c1127f2cd403a315f,0,52,52,160,1,onetwo,,,,,,,,,,,,,,,,,,,,,,,,,,,,,,,,,,,,,,,,,,,,,,,,,,,,,,,,,,,,,,,,,,,,,,,,,,,,,,,,,,,,,,,,,,,,,,,,,,,,,,,,,,,,,,,,,,,,,,,,,,,,,,,,,,,,,,,,,,,,,,,,,,,,,,,,,,
,,,,,,603f6e643234e512fc197ae1,62c5561defbf919e4800deff,2022-07-06_11h56.59.305,Colour_Asymmetry_Pilot,2022.1.3,Win32,58.32604258,62c50e9c1127f2cd403a315f,0,53,53,117,1,threefour,,,,,,,,,,,,,,,,,,,,,,,,,,,,,,,,,,,,,,,,,,,,,,,,,,,,,,,,,,,,,,,,,,,,,,,,,,,,,,,,,,,,,,,,,,,,,,,,,,,,,,,,,,,,,,,,,,,,,,,,,,,,,,,,,,,,,,,,,,,,,,,,,,,,,,,,,,
,,,,,,603f6e643234e512fc197ae1,62c5561defbf919e4800deff,2022-07-06_11h56.59.305,Colour_Asymmetry_Pilot,2022.1.3,Win32,58.32604258,62c50e9c1127f2cd403a315f,0,54,54,87,1,fourthree,,,,,,,,,,,,,,,,,,,,,,,,,,,,,,,,,,,,,,,,,,,,,,,,,,,,,,,,,,,,,,,,,,,,,,,,,,,,,,,,,,,,,,,,,,,,,,,,,,,,,,,,,,,,,,,,,,,,,,,,,,,,,,,,,,,,,,,,,,,,,,,,,,,,,,,,,,
,,,,,,603f6e643234e512fc197ae1,62c5561defbf919e4800deff,2022-07-06_11h56.59.305,Colour_Asymmetry_Pilot,2022.1.3,Win32,58.32604258,62c50e9c1127f2cd403a315f,0,55,55,153,1,onethree,,,,,,,,,,,,,,,,,,,,,,,,,,,,,,,,,,,,,,,,,,,,,,,,,,,,,,,,,,,,,,,,,,,,,,,,,,,,,,,,,,,,,,,,,,,,,,,,,,,,,,,,,,,,,,,,,,,,,,,,,,,,,,,,,,,,,,,,,,,,,,,,,,,,,,,,,,
,,,,,,603f6e643234e512fc197ae1,62c5561defbf919e4800deff,2022-07-06_11h56.59.305,Colour_Asymmetry_Pilot,2022.1.3,Win32,58.32604258,62c50e9c1127f2cd403a315f,0,56,56,85,1,threefour,,,,,,,,,,,,,,,,,,,,,,,,,,,,,,,,,,,,,,,,,,,,,,,,,,,,,,,,,,,,,,,,,,,,,,,,,,,,,,,,,,,,,,,,,,,,,,,,,,,,,,,,,,,,,,,,,,,,,,,,,,,,,,,,,,,,,,,,,,,,,,,,,,,,,,,,,,
,,,,,,603f6e643234e512fc197ae1,62c5561defbf919e4800deff,2022-07-06_11h56.59.305,Colour_Asymmetry_Pilot,2022.1.3,Win32,58.32604258,62c50e9c1127f2cd403a315f,0,57,57,42,1,twoone,,,,,,,,,,,,,,,,,,,,,,,,,,,,,,,,,,,,,,,,,,,,,,,,,,,,,,,,,,,,,,,,,,,,,,,,,,,,,,,,,,,,,,,,,,,,,,,,,,,,,,,,,,,,,,,,,,,,,,,,,,,,,,,,,,,,,,,,,,,,,,,,,,,,,,,,,,
,,,,,,603f6e643234e512fc197ae1,62c5561defbf919e4800deff,2022-07-06_11h56.59.305,Colour_Asymmetry_Pilot,2022.1.3,Win32,58.32604258,62c50e9c1127f2cd403a315f,0,58,58,94,1,fourtwo,,,,,,,,,,,,,,,,,,,,,,,,,,,,,,,,,,,,,,,,,,,,,,,,,,,,,,,,,,,,,,,,,,,,,,,,,,,,,,,,,,,,,,,,,,,,,,,,,,,,,,,,,,,,,,,,,,,,,,,,,,,,,,,,,,,,,,,,,,,,,,,,,,,,,,,,,,
,,,,,,603f6e643234e512fc197ae1,62c5561defbf919e4800deff,2022-07-06_11h56.59.305,Colour_Asymmetry_Pilot,2022.1.3,Win32,58.32604258,62c50e9c1127f2cd403a315f,0,59,59,53,1,threefour,,,,,,,,,,,,,,,,,,,,,,,,,,,,,,,,,,,,,,,,,,,,,,,,,,,,,,,,,,,,,,,,,,,,,,,,,,,,,,,,,,,,,,,,,,,,,,,,,,,,,,,,,,,,,,,,,,,,,,,,,,,,,,,,,,,,,,,,,,,,,,,,,,,,,,,,,,
,,,,,,603f6e643234e512fc197ae1,62c5561defbf919e4800deff,2022-07-06_11h56.59.305,Colour_Asymmetry_Pilot,2022.1.3,Win32,58.32604258,62c50e9c1127f2cd403a315f,0,60,60,64,1,onetwo,,,,,,,,,,,,,,,,,,,,,,,,,,,,,,,,,,,,,,,,,,,,,,,,,,,,,,,,,,,,,,,,,,,,,,,,,,,,,,,,,,,,,,,,,,,,,,,,,,,,,,,,,,,,,,,,,,,,,,,,,,,,,,,,,,,,,,,,,,,,,,,,,,,,,,,,,,
,,,,,,603f6e643234e512fc197ae1,62c5561defbf919e4800deff,2022-07-06_11h56.59.305,Colour_Asymmetry_Pilot,2022.1.3,Win32,58.32604258,62c50e9c1127f2cd403a315f,0,61,61,106,1,twoone,,,,,,,,,,,,,,,,,,,,,,,,,,,,,,,,,,,,,,,,,,,,,,,,,,,,,,,,,,,,,,,,,,,,,,,,,,,,,,,,,,,,,,,,,,,,,,,,,,,,,,,,,,,,,,,,,,,,,,,,,,,,,,,,,,,,,,,,,,,,,,,,,,,,,,,,,,
,,,,,,603f6e643234e512fc197ae1,62c5561defbf919e4800deff,2022-07-06_11h56.59.305,Colour_Asymmetry_Pilot,2022.1.3,Win32,58.32604258,62c50e9c1127f2cd403a315f,0,62,62,86,1,fourtwo,,,,,,,,,,,,,,,,,,,,,,,,,,,,,,,,,,,,,,,,,,,,,,,,,,,,,,,,,,,,,,,,,,,,,,,,,,,,,,,,,,,,,,,,,,,,,,,,,,,,,,,,,,,,,,,,,,,,,,,,,,,,,,,,,,,,,,,,,,,,,,,,,,,,,,,,,,
,,,,,,603f6e643234e512fc197ae1,62c5561defbf919e4800deff,2022-07-06_11h56.59.305,Colour_Asymmetry_Pilot,2022.1.3,Win32,58.32604258,62c50e9c1127f2cd403a315f,0,63,63,29,1,threefour,,,,,,,,,,,,,,,,,,,,,,,,,,,,,,,,,,,,,,,,,,,,,,,,,,,,,,,,,,,,,,,,,,,,,,,,,,,,,,,,,,,,,,,,,,,,,,,,,,,,,,,,,,,,,,,,,,,,,,,,,,,,,,,,,,,,,,,,,,,,,,,,,,,,,,,,,,
,,,,,,603f6e643234e512fc197ae1,62c5561defbf919e4800deff,2022-07-06_11h56.59.305,Colour_Asymmetry_Pilot,2022.1.3,Win32,58.32604258,62c50e9c1127f2cd403a315f,0,64,64,139,1,twofour,,,,,,,,,,,,,,,,,,,,,,,,,,,,,,,,,,,,,,,,,,,,,,,,,,,,,,,,,,,,,,,,,,,,,,,,,,,,,,,,,,,,,,,,,,,,,,,,,,,,,,,,,,,,,,,,,,,,,,,,,,,,,,,,,,,,,,,,,,,,,,,,,,,,,,,,,,
,,,,,,603f6e643234e512fc197ae1,62c5561defbf919e4800deff,2022-07-06_11h56.59.305,Colour_Asymmetry_Pilot,2022.1.3,Win32,58.32604258,62c50e9c1127f2cd403a315f,0,65,65,75,1,twofour,,,,,,,,,,,,,,,,,,,,,,,,,,,,,,,,,,,,,,,,,,,,,,,,,,,,,,,,,,,,,,,,,,,,,,,,,,,,,,,,,,,,,,,,,,,,,,,,,,,,,,,,,,,,,,,,,,,,,,,,,,,,,,,,,,,,,,,,,,,,,,,,,,,,,,,,,,
,,,,,,603f6e643234e512fc197ae1,62c5561defbf919e4800deff,2022-07-06_11h56.59.305,Colour_Asymmetry_Pilot,2022.1.3,Win32,58.32604258,62c50e9c1127f2cd403a315f,0,66,66,50,1,twoone,,,,,,,,,,,,,,,,,,,,,,,,,,,,,,,,,,,,,,,,,,,,,,,,,,,,,,,,,,,,,,,,,,,,,,,,,,,,,,,,,,,,,,,,,,,,,,,,,,,,,,,,,,,,,,,,,,,,,,,,,,,,,,,,,,,,,,,,,,,,,,,,,,,,,,,,,,
,,,,,,603f6e643234e512fc197ae1,62c5561defbf919e4800deff,2022-07-06_11h56.59.305,Colour_Asymmetry_Pilot,2022.1.3,Win32,58.32604258,62c50e9c1127f2cd403a315f,0,67,67,26,1,twoone,,,,,,,,,,,,,,,,,,,,,,,,,,,,,,,,,,,,,,,,,,,,,,,,,,,,,,,,,,,,,,,,,,,,,,,,,,,,,,,,,,,,,,,,,,,,,,,,,,,,,,,,,,,,,,,,,,,,,,,,,,,,,,,,,,,,,,,,,,,,,,,,,,,,,,,,,,
,,,,,,603f6e643234e512fc197ae1,62c5561defbf919e4800deff,2022-07-06_11h56.59.305,Colour_Asymmetry_Pilot,2022.1.3,Win32,58.32604258,62c50e9c1127f2cd403a315f,0,68,68,93,1,threefour,,,,,,,,,,,,,,,,,,,,,,,,,,,,,,,,,,,,,,,,,,,,,,,,,,,,,,,,,,,,,,,,,,,,,,,,,,,,,,,,,,,,,,,,,,,,,,,,,,,,,,,,,,,,,,,,,,,,,,,,,,,,,,,,,,,,,,,,,,,,,,,,,,,,,,,,,,
,,,,,,603f6e643234e512fc197ae1,62c5561defbf919e4800deff,2022-07-06_11h56.59.305,Colour_Asymmetry_Pilot,2022.1.3,Win32,58.32604258,62c50e9c1127f2cd403a315f,0,69,69,103,1,fourthree,,,,,,,,,,,,,,,,,,,,,,,,,,,,,,,,,,,,,,,,,,,,,,,,,,,,,,,,,,,,,,,,,,,,,,,,,,,,,,,,,,,,,,,,,,,,,,,,,,,,,,,,,,,,,,,,,,,,,,,,,,,,,,,,,,,,,,,,,,,,,,,,,,,,,,,,,,
,,,,,,603f6e643234e512fc197ae1,62c5561defbf919e4800deff,2022-07-06_11h56.59.305,Colour_Asymmetry_Pilot,2022.1.3,Win32,58.32604258,62c50e9c1127f2cd403a315f,0,70,70,30,1,fourtwo,,,,,,,,,,,,,,,,,,,,,,,,,,,,,,,,,,,,,,,,,,,,,,,,,,,,,,,,,,,,,,,,,,,,,,,,,,,,,,,,,,,,,,,,,,,,,,,,,,,,,,,,,,,,,,,,,,,,,,,,,,,,,,,,,,,,,,,,,,,,,,,,,,,,,,,,,,
,,,,,,603f6e643234e512fc197ae1,62c5561defbf919e4800deff,2022-07-06_11h56.59.305,Colour_Asymmetry_Pilot,2022.1.3,Win32,58.32604258,62c50e9c1127f2cd403a315f,0,71,71,120,1,onetwo,,,,,,,,,,,,,,,,,,,,,,,,,,,,,,,,,,,,,,,,,,,,,,,,,,,,,,,,,,,,,,,,,,,,,,,,,,,,,,,,,,,,,,,,,,,,,,,,,,,,,,,,,,,,,,,,,,,,,,,,,,,,,,,,,,,,,,,,,,,,,,,,,,,,,,,,,,
,,,,,,603f6e643234e512fc197ae1,62c5561defbf919e4800deff,2022-07-06_11h56.59.305,Colour_Asymmetry_Pilot,2022.1.3,Win32,58.32604258,62c50e9c1127f2cd403a315f,0,72,72,60,1,threeone,,,,,,,,,,,,,,,,,,,,,,,,,,,,,,,,,,,,,,,,,,,,,,,,,,,,,,,,,,,,,,,,,,,,,,,,,,,,,,,,,,,,,,,,,,,,,,,,,,,,,,,,,,,,,,,,,,,,,,,,,,,,,,,,,,,,,,,,,,,,,,,,,,,,,,,,,,
,,,,,,603f6e643234e512fc197ae1,62c5561defbf919e4800deff,2022-07-06_11h56.59.305,Colour_Asymmetry_Pilot,2022.1.3,Win32,58.32604258,62c50e9c1127f2cd403a315f,0,73,73,84,1,threeone,,,,,,,,,,,,,,,,,,,,,,,,,,,,,,,,,,,,,,,,,,,,,,,,,,,,,,,,,,,,,,,,,,,,,,,,,,,,,,,,,,,,,,,,,,,,,,,,,,,,,,,,,,,,,,,,,,,,,,,,,,,,,,,,,,,,,,,,,,,,,,,,,,,,,,,,,,
,,,,,,603f6e643234e512fc197ae1,62c5561defbf919e4800deff,2022-07-06_11h56.59.305,Colour_Asymmetry_Pilot,2022.1.3,Win32,58.32604258,62c50e9c1127f2cd403a315f,0,74,74,141,1,threefour,,,,,,,,,,,,,,,,,,,,,,,,,,,,,,,,,,,,,,,,,,,,,,,,,,,,,,,,,,,,,,,,,,,,,,,,,,,,,,,,,,,,,,,,,,,,,,,,,,,,,,,,,,,,,,,,,,,,,,,,,,,,,,,,,,,,,,,,,,,,,,,,,,,,,,,,,,
,,,,,,603f6e643234e512fc197ae1,62c5561defbf919e4800deff,2022-07-06_11h56.59.305,Colour_Asymmetry_Pilot,2022.1.3,Win32,58.32604258,62c50e9c1127f2cd403a315f,0,75,75,1,1,onethree,,,,,,,,,,,,,,,,,,,,,,,,,,,,,,,,,,,,,,,,,,,,,,,,,,,,,,,,,,,,,,,,,,,,,,,,,,,,,,,,,,,,,,,,,,,,,,,,,,,,,,,,,,,,,,,,,,,,,,,,,,,,,,,,,,,,,,,,,,,,,,,,,,,,,,,,,,
,,,,,,603f6e643234e512fc197ae1,62c5561defbf919e4800deff,2022-07-06_11h56.59.305,Colour_Asymmetry_Pilot,2022.1.3,Win32,58.32604258,62c50e9c1127f2cd403a315f,0,76,76,135,1,fourthree,,,,,,,,,,,,,,,,,,,,,,,,,,,,,,,,,,,,,,,,,,,,,,,,,,,,,,,,,,,,,,,,,,,,,,,,,,,,,,,,,,,,,,,,,,,,,,,,,,,,,,,,,,,,,,,,,,,,,,,,,,,,,,,,,,,,,,,,,,,,,,,,,,,,,,,,,,
,,,,,,603f6e643234e512fc197ae1,62c5561defbf919e4800deff,2022-07-06_11h56.59.305,Colour_Asymmetry_Pilot,2022.1.3,Win32,58.32604258,62c50e9c1127f2cd403a315f,0,77,77,148,1,threeone,,,,,,,,,,,,,,,,,,,,,,,,,,,,,,,,,,,,,,,,,,,,,,,,,,,,,,,,,,,,,,,,,,,,,,,,,,,,,,,,,,,,,,,,,,,,,,,,,,,,,,,,,,,,,,,,,,,,,,,,,,,,,,,,,,,,,,,,,,,,,,,,,,,,,,,,,,
,,,,,,603f6e643234e512fc197ae1,62c5561defbf919e4800deff,2022-07-06_11h56.59.305,Colour_Asymmetry_Pilot,2022.1.3,Win32,58.32604258,62c50e9c1127f2cd403a315f,0,78,78,89,1,onethree,,,,,,,,,,,,,,,,,,,,,,,,,,,,,,,,,,,,,,,,,,,,,,,,,,,,,,,,,,,,,,,,,,,,,,,,,,,,,,,,,,,,,,,,,,,,,,,,,,,,,,,,,,,,,,,,,,,,,,,,,,,,,,,,,,,,,,,,,,,,,,,,,,,,,,,,,,
,,,,,,603f6e643234e512fc197ae1,62c5561defbf919e4800deff,2022-07-06_11h56.59.305,Colour_Asymmetry_Pilot,2022.1.3,Win32,58.32604258,62c50e9c1127f2cd403a315f,0,79,79,154,1,twoone,,,,,,,,,,,,,,,,,,,,,,,,,,,,,,,,,,,,,,,,,,,,,,,,,,,,,,,,,,,,,,,,,,,,,,,,,,,,,,,,,,,,,,,,,,,,,,,,,,,,,,,,,,,,,,,,,,,,,,,,,,,,,,,,,,,,,,,,,,,,,,,,,,,,,,,,,,
,,,,,,603f6e643234e512fc197ae1,62c5561defbf919e4800deff,2022-07-06_11h56.59.305,Colour_Asymmetry_Pilot,2022.1.3,Win32,58.32604258,62c50e9c1127f2cd403a315f,0,80,80,80,1,onetwo,,,,,,,,,,,,,,,,,,,,,,,,,,,,,,,,,,,,,,,,,,,,,,,,,,,,,,,,,,,,,,,,,,,,,,,,,,,,,,,,,,,,,,,,,,,,,,,,,,,,,,,,,,,,,,,,,,,,,,,,,,,,,,,,,,,,,,,,,,,,,,,,,,,,,,,,,,
,,,,,,603f6e643234e512fc197ae1,62c5561defbf919e4800deff,2022-07-06_11h56.59.305,Colour_Asymmetry_Pilot,2022.1.3,Win32,58.32604258,62c50e9c1127f2cd403a315f,0,81,81,55,1,fourthree,,,,,,,,,,,,,,,,,,,,,,,,,,,,,,,,,,,,,,,,,,,,,,,,,,,,,,,,,,,,,,,,,,,,,,,,,,,,,,,,,,,,,,,,,,,,,,,,,,,,,,,,,,,,,,,,,,,,,,,,,,,,,,,,,,,,,,,,,,,,,,,,,,,,,,,,,,
,,,,,,603f6e643234e512fc197ae1,62c5561defbf919e4800deff,2022-07-06_11h56.59.305,Colour_Asymmetry_Pilot,2022.1.3,Win32,58.32604258,62c50e9c1127f2cd403a315f,0,82,82,115,1,twofour,,,,,,,,,,,,,,,,,,,,,,,,,,,,,,,,,,,,,,,,,,,,,,,,,,,,,,,,,,,,,,,,,,,,,,,,,,,,,,,,,,,,,,,,,,,,,,,,,,,,,,,,,,,,,,,,,,,,,,,,,,,,,,,,,,,,,,,,,,,,,,,,,,,,,,,,,,
,,,,,,603f6e643234e512fc197ae1,62c5561defbf919e4800deff,2022-07-06_11h56.59.305,Colour_Asymmetry_Pilot,2022.1.3,Win32,58.32604258,62c50e9c1127f2cd403a315f,0,83,83,20,1,threeone,,,,,,,,,,,,,,,,,,,,,,,,,,,,,,,,,,,,,,,,,,,,,,,,,,,,,,,,,,,,,,,,,,,,,,,,,,,,,,,,,,,,,,,,,,,,,,,,,,,,,,,,,,,,,,,,,,,,,,,,,,,,,,,,,,,,,,,,,,,,,,,,,,,,,,,,,,
,,,,,,603f6e643234e512fc197ae1,62c5561defbf919e4800deff,2022-07-06_11h56.59.305,Colour_Asymmetry_Pilot,2022.1.3,Win32,58.32604258,62c50e9c1127f2cd403a315f,0,84,84,126,1,fourtwo,,,,,,,,,,,,,,,,,,,,,,,,,,,,,,,,,,,,,,,,,,,,,,,,,,,,,,,,,,,,,,,,,,,,,,,,,,,,,,,,,,,,,,,,,,,,,,,,,,,,,,,,,,,,,,,,,,,,,,,,,,,,,,,,,,,,,,,,,,,,,,,,,,,,,,,,,,
,,,,,,603f6e643234e512fc197ae1,62c5561defbf919e4800deff,2022-07-06_11h56.59.305,Colour_Asymmetry_Pilot,2022.1.3,Win32,58.32604258,62c50e9c1127f2cd403a315f,0,85,85,56,1,onetwo,,,,,,,,,,,,,,,,,,,,,,,,,,,,,,,,,,,,,,,,,,,,,,,,,,,,,,,,,,,,,,,,,,,,,,,,,,,,,,,,,,,,,,,,,,,,,,,,,,,,,,,,,,,,,,,,,,,,,,,,,,,,,,,,,,,,,,,,,,,,,,,,,,,,,,,,,,
,,,,,,603f6e643234e512fc197ae1,62c5561defbf919e4800deff,2022-07-06_11h56.59.305,Colour_Asymmetry_Pilot,2022.1.3,Win32,58.32604258,62c50e9c1127f2cd403a315f,0,86,86,18,1,twoone,,,,,,,,,,,,,,,,,,,,,,,,,,,,,,,,,,,,,,,,,,,,,,,,,,,,,,,,,,,,,,,,,,,,,,,,,,,,,,,,,,,,,,,,,,,,,,,,,,,,,,,,,,,,,,,,,,,,,,,,,,,,,,,,,,,,,,,,,,,,,,,,,,,,,,,,,,
,,,,,,603f6e643234e512fc197ae1,62c5561defbf919e4800deff,2022-07-06_11h56.59.305,Colour_Asymmetry_Pilot,2022.1.3,Win32,58.32604258,62c50e9c1127f2cd403a315f,0,87,87,48,1,onetwo,,,,,,,,,,,,,,,,,,,,,,,,,,,,,,,,,,,,,,,,,,,,,,,,,,,,,,,,,,,,,,,,,,,,,,,,,,,,,,,,,,,,,,,,,,,,,,,,,,,,,,,,,,,,,,,,,,,,,,,,,,,,,,,,,,,,,,,,,,,,,,,,,,,,,,,,,,
,,,,,,603f6e643234e512fc197ae1,62c5561defbf919e4800deff,2022-07-06_11h56.59.305,Colour_Asymmetry_Pilot,2022.1.3,Win32,58.32604258,62c50e9c1127f2cd403a315f,0,88,88,72,1,onetwo,,,,,,,,,,,,,,,,,,,,,,,,,,,,,,,,,,,,,,,,,,,,,,,,,,,,,,,,,,,,,,,,,,,,,,,,,,,,,,,,,,,,,,,,,,,,,,,,,,,,,,,,,,,,,,,,,,,,,,,,,,,,,,,,,,,,,,,,,,,,,,,,,,,,,,,,,,
,,,,,,603f6e643234e512fc197ae1,62c5561defbf919e4800deff,2022-07-06_11h56.59.305,Colour_Asymmetry_Pilot,2022.1.3,Win32,58.32604258,62c50e9c1127f2cd403a315f,0,89,89,19,1,twofour,,,,,,,,,,,,,,,,,,,,,,,,,,,,,,,,,,,,,,,,,,,,,,,,,,,,,,,,,,,,,,,,,,,,,,,,,,,,,,,,,,,,,,,,,,,,,,,,,,,,,,,,,,,,,,,,,,,,,,,,,,,,,,,,,,,,,,,,,,,,,,,,,,,,,,,,,,
,,,,,,603f6e643234e512fc197ae1,62c5561defbf919e4800deff,2022-07-06_11h56.59.305,Colour_Asymmetry_Pilot,2022.1.3,Win32,58.32604258,62c50e9c1127f2cd403a315f,0,90,90,2,1,twoone,,,,,,,,,,,,,,,,,,,,,,,,,,,,,,,,,,,,,,,,,,,,,,,,,,,,,,,,,,,,,,,,,,,,,,,,,,,,,,,,,,,,,,,,,,,,,,,,,,,,,,,,,,,,,,,,,,,,,,,,,,,,,,,,,,,,,,,,,,,,,,,,,,,,,,,,,,
,,,,,,603f6e643234e512fc197ae1,62c5561defbf919e4800deff,2022-07-06_11h56.59.305,Colour_Asymmetry_Pilot,2022.1.3,Win32,58.32604258,62c50e9c1127f2cd403a315f,0,91,91,5,1,threefour,,,,,,,,,,,,,,,,,,,,,,,,,,,,,,,,,,,,,,,,,,,,,,,,,,,,,,,,,,,,,,,,,,,,,,,,,,,,,,,,,,,,,,,,,,,,,,,,,,,,,,,,,,,,,,,,,,,,,,,,,,,,,,,,,,,,,,,,,,,,,,,,,,,,,,,,,,
,,,,,,603f6e643234e512fc197ae1,62c5561defbf919e4800deff,2022-07-06_11h56.59.305,Colour_Asymmetry_Pilot,2022.1.3,Win32,58.32604258,62c50e9c1127f2cd403a315f,0,92,92,152,1,onetwo,,,,,,,,,,,,,,,,,,,,,,,,,,,,,,,,,,,,,,,,,,,,,,,,,,,,,,,,,,,,,,,,,,,,,,,,,,,,,,,,,,,,,,,,,,,,,,,,,,,,,,,,,,,,,,,,,,,,,,,,,,,,,,,,,,,,,,,,,,,,,,,,,,,,,,,,,,
,,,,,,603f6e643234e512fc197ae1,62c5561defbf919e4800deff,2022-07-06_11h56.59.305,Colour_Asymmetry_Pilot,2022.1.3,Win32,58.32604258,62c50e9c1127f2cd403a315f,0,93,93,121,1,onethree,,,,,,,,,,,,,,,,,,,,,,,,,,,,,,,,,,,,,,,,,,,,,,,,,,,,,,,,,,,,,,,,,,,,,,,,,,,,,,,,,,,,,,,,,,,,,,,,,,,,,,,,,,,,,,,,,,,,,,,,,,,,,,,,,,,,,,,,,,,,,,,,,,,,,,,,,,
,,,,,,603f6e643234e512fc197ae1,62c5561defbf919e4800deff,2022-07-06_11h56.59.305,Colour_Asymmetry_Pilot,2022.1.3,Win32,58.32604258,62c50e9c1127f2cd403a315f,0,94,94,108,1,threeone,,,,,,,,,,,,,,,,,,,,,,,,,,,,,,,,,,,,,,,,,,,,,,,,,,,,,,,,,,,,,,,,,,,,,,,,,,,,,,,,,,,,,,,,,,,,,,,,,,,,,,,,,,,,,,,,,,,,,,,,,,,,,,,,,,,,,,,,,,,,,,,,,,,,,,,,,,
,,,,,,603f6e643234e512fc197ae1,62c5561defbf919e4800deff,2022-07-06_11h56.59.305,Colour_Asymmetry_Pilot,2022.1.3,Win32,58.32604258,62c50e9c1127f2cd403a315f,0,95,95,138,1,twoone,,,,,,,,,,,,,,,,,,,,,,,,,,,,,,,,,,,,,,,,,,,,,,,,,,,,,,,,,,,,,,,,,,,,,,,,,,,,,,,,,,,,,,,,,,,,,,,,,,,,,,,,,,,,,,,,,,,,,,,,,,,,,,,,,,,,,,,,,,,,,,,,,,,,,,,,,,
,,,,,,603f6e643234e512fc197ae1,62c5561defbf919e4800deff,2022-07-06_11h56.59.305,Colour_Asymmetry_Pilot,2022.1.3,Win32,58.32604258,62c50e9c1127f2cd403a315f,0,96,96,134,1,fourtwo,,,,,,,,,,,,,,,,,,,,,,,,,,,,,,,,,,,,,,,,,,,,,,,,,,,,,,,,,,,,,,,,,,,,,,,,,,,,,,,,,,,,,,,,,,,,,,,,,,,,,,,,,,,,,,,,,,,,,,,,,,,,,,,,,,,,,,,,,,,,,,,,,,,,,,,,,,
,,,,,,603f6e643234e512fc197ae1,62c5561defbf919e4800deff,2022-07-06_11h56.59.305,Colour_Asymmetry_Pilot,2022.1.3,Win32,58.32604258,62c50e9c1127f2cd403a315f,0,97,97,3,1,twofour,,,,,,,,,,,,,,,,,,,,,,,,,,,,,,,,,,,,,,,,,,,,,,,,,,,,,,,,,,,,,,,,,,,,,,,,,,,,,,,,,,,,,,,,,,,,,,,,,,,,,,,,,,,,,,,,,,,,,,,,,,,,,,,,,,,,,,,,,,,,,,,,,,,,,,,,,,
,,,,,,603f6e643234e512fc197ae1,62c5561defbf919e4800deff,2022-07-06_11h56.59.305,Colour_Asymmetry_Pilot,2022.1.3,Win32,58.32604258,62c50e9c1127f2cd403a315f,0,98,98,137,1,onethree,,,,,,,,,,,,,,,,,,,,,,,,,,,,,,,,,,,,,,,,,,,,,,,,,,,,,,,,,,,,,,,,,,,,,,,,,,,,,,,,,,,,,,,,,,,,,,,,,,,,,,,,,,,,,,,,,,,,,,,,,,,,,,,,,,,,,,,,,,,,,,,,,,,,,,,,,,
,,,,,,603f6e643234e512fc197ae1,62c5561defbf919e4800deff,2022-07-06_11h56.59.305,Colour_Asymmetry_Pilot,2022.1.3,Win32,58.32604258,62c50e9c1127f2cd403a315f,0,99,99,69,1,threefour,,,,,,,,,,,,,,,,,,,,,,,,,,,,,,,,,,,,,,,,,,,,,,,,,,,,,,,,,,,,,,,,,,,,,,,,,,,,,,,,,,,,,,,,,,,,,,,,,,,,,,,,,,,,,,,,,,,,,,,,,,,,,,,,,,,,,,,,,,,,,,,,,,,,,,,,,,
,,,,,,603f6e643234e512fc197ae1,62c5561defbf919e4800deff,2022-07-06_11h56.59.305,Colour_Asymmetry_Pilot,2022.1.3,Win32,58.32604258,62c50e9c1127f2cd403a315f,0,100,100,24,1,onetwo,,,,,,,,,,,,,,,,,,,,,,,,,,,,,,,,,,,,,,,,,,,,,,,,,,,,,,,,,,,,,,,,,,,,,,,,,,,,,,,,,,,,,,,,,,,,,,,,,,,,,,,,,,,,,,,,,,,,,,,,,,,,,,,,,,,,,,,,,,,,,,,,,,,,,,,,,,
,,,,,,603f6e643234e512fc197ae1,62c5561defbf919e4800deff,2022-07-06_11h56.59.305,Colour_Asymmetry_Pilot,2022.1.3,Win32,58.32604258,62c50e9c1127f2cd403a315f,0,101,101,113,1,onethree,,,,,,,,,,,,,,,,,,,,,,,,,,,,,,,,,,,,,,,,,,,,,,,,,,,,,,,,,,,,,,,,,,,,,,,,,,,,,,,,,,,,,,,,,,,,,,,,,,,,,,,,,,,,,,,,,,,,,,,,,,,,,,,,,,,,,,,,,,,,,,,,,,,,,,,,,,
,,,,,,603f6e643234e512fc197ae1,62c5561defbf919e4800deff,2022-07-06_11h56.59.305,Colour_Asymmetry_Pilot,2022.1.3,Win32,58.32604258,62c50e9c1127f2cd403a315f,0,102,102,158,1,fourtwo,,,,,,,,,,,,,,,,,,,,,,,,,,,,,,,,,,,,,,,,,,,,,,,,,,,,,,,,,,,,,,,,,,,,,,,,,,,,,,,,,,,,,,,,,,,,,,,,,,,,,,,,,,,,,,,,,,,,,,,,,,,,,,,,,,,,,,,,,,,,,,,,,,,,,,,,,,
,,,,,,603f6e643234e512fc197ae1,62c5561defbf919e4800deff,2022-07-06_11h56.59.305,Colour_Asymmetry_Pilot,2022.1.3,Win32,58.32604258,62c50e9c1127f2cd403a315f,0,103,103,9,1,onethree,,,,,,,,,,,,,,,,,,,,,,,,,,,,,,,,,,,,,,,,,,,,,,,,,,,,,,,,,,,,,,,,,,,,,,,,,,,,,,,,,,,,,,,,,,,,,,,,,,,,,,,,,,,,,,,,,,,,,,,,,,,,,,,,,,,,,,,,,,,,,,,,,,,,,,,,,,
,,,,,,603f6e643234e512fc197ae1,62c5561defbf919e4800deff,2022-07-06_11h56.59.305,Colour_Asymmetry_Pilot,2022.1.3,Win32,58.32604258,62c50e9c1127f2cd403a315f,0,104,104,33,1,onethree,,,,,,,,,,,,,,,,,,,,,,,,,,,,,,,,,,,,,,,,,,,,,,,,,,,,,,,,,,,,,,,,,,,,,,,,,,,,,,,,,,,,,,,,,,,,,,,,,,,,,,,,,,,,,,,,,,,,,,,,,,,,,,,,,,,,,,,,,,,,,,,,,,,,,,,,,,
,,,,,,603f6e643234e512fc197ae1,62c5561defbf919e4800deff,2022-07-06_11h56.59.305,Colour_Asymmetry_Pilot,2022.1.3,Win32,58.32604258,62c50e9c1127f2cd403a315f,0,105,105,123,1,twofour,,,,,,,,,,,,,,,,,,,,,,,,,,,,,,,,,,,,,,,,,,,,,,,,,,,,,,,,,,,,,,,,,,,,,,,,,,,,,,,,,,,,,,,,,,,,,,,,,,,,,,,,,,,,,,,,,,,,,,,,,,,,,,,,,,,,,,,,,,,,,,,,,,,,,,,,,,
,,,,,,603f6e643234e512fc197ae1,62c5561defbf919e4800deff,2022-07-06_11h56.59.305,Colour_Asymmetry_Pilot,2022.1.3,Win32,58.32604258,62c50e9c1127f2cd403a315f,0,106,106,17,1,onethree,,,,,,,,,,,,,,,,,,,,,,,,,,,,,,,,,,,,,,,,,,,,,,,,,,,,,,,,,,,,,,,,,,,,,,,,,,,,,,,,,,,,,,,,,,,,,,,,,,,,,,,,,,,,,,,,,,,,,,,,,,,,,,,,,,,,,,,,,,,,,,,,,,,,,,,,,,
,,,,,,603f6e643234e512fc197ae1,62c5561defbf919e4800deff,2022-07-06_11h56.59.305,Colour_Asymmetry_Pilot,2022.1.3,Win32,58.32604258,62c50e9c1127f2cd403a315f,0,107,107,125,1,threefour,,,,,,,,,,,,,,,,,,,,,,,,,,,,,,,,,,,,,,,,,,,,,,,,,,,,,,,,,,,,,,,,,,,,,,,,,,,,,,,,,,,,,,,,,,,,,,,,,,,,,,,,,,,,,,,,,,,,,,,,,,,,,,,,,,,,,,,,,,,,,,,,,,,,,,,,,,
,,,,,,603f6e643234e512fc197ae1,62c5561defbf919e4800deff,2022-07-06_11h56.59.305,Colour_Asymmetry_Pilot,2022.1.3,Win32,58.32604258,62c50e9c1127f2cd403a315f,0,108,108,76,1,threeone,,,,,,,,,,,,,,,,,,,,,,,,,,,,,,,,,,,,,,,,,,,,,,,,,,,,,,,,,,,,,,,,,,,,,,,,,,,,,,,,,,,,,,,,,,,,,,,,,,,,,,,,,,,,,,,,,,,,,,,,,,,,,,,,,,,,,,,,,,,,,,,,,,,,,,,,,,
,,,,,,603f6e643234e512fc197ae1,62c5561defbf919e4800deff,2022-07-06_11h56.59.305,Colour_Asymmetry_Pilot,2022.1.3,Win32,58.32604258,62c50e9c1127f2cd403a315f,0,109,109,52,1,threeone,,,,,,,,,,,,,,,,,,,,,,,,,,,,,,,,,,,,,,,,,,,,,,,,,,,,,,,,,,,,,,,,,,,,,,,,,,,,,,,,,,,,,,,,,,,,,,,,,,,,,,,,,,,,,,,,,,,,,,,,,,,,,,,,,,,,,,,,,,,,,,,,,,,,,,,,,,
,,,,,,603f6e643234e512fc197ae1,62c5561defbf919e4800deff,2022-07-06_11h56.59.305,Colour_Asymmetry_Pilot,2022.1.3,Win32,58.32604258,62c50e9c1127f2cd403a315f,0,110,110,130,1,twoone,,,,,,,,,,,,,,,,,,,,,,,,,,,,,,,,,,,,,,,,,,,,,,,,,,,,,,,,,,,,,,,,,,,,,,,,,,,,,,,,,,,,,,,,,,,,,,,,,,,,,,,,,,,,,,,,,,,,,,,,,,,,,,,,,,,,,,,,,,,,,,,,,,,,,,,,,,
,,,,,,603f6e643234e512fc197ae1,62c5561defbf919e4800deff,2022-07-06_11h56.59.305,Colour_Asymmetry_Pilot,2022.1.3,Win32,58.32604258,62c50e9c1127f2cd403a315f,0,111,111,32,1,onetwo,,,,,,,,,,,,,,,,,,,,,,,,,,,,,,,,,,,,,,,,,,,,,,,,,,,,,,,,,,,,,,,,,,,,,,,,,,,,,,,,,,,,,,,,,,,,,,,,,,,,,,,,,,,,,,,,,,,,,,,,,,,,,,,,,,,,,,,,,,,,,,,,,,,,,,,,,,
,,,,,,603f6e643234e512fc197ae1,62c5561defbf919e4800deff,2022-07-06_11h56.59.305,Colour_Asymmetry_Pilot,2022.1.3,Win32,58.32604258,62c50e9c1127f2cd403a315f,0,112,112,112,1,onetwo,,,,,,,,,,,,,,,,,,,,,,,,,,,,,,,,,,,,,,,,,,,,,,,,,,,,,,,,,,,,,,,,,,,,,,,,,,,,,,,,,,,,,,,,,,,,,,,,,,,,,,,,,,,,,,,,,,,,,,,,,,,,,,,,,,,,,,,,,,,,,,,,,,,,,,,,,,
,,,,,,603f6e643234e512fc197ae1,62c5561defbf919e4800deff,2022-07-06_11h56.59.305,Colour_Asymmetry_Pilot,2022.1.3,Win32,58.32604258,62c50e9c1127f2cd403a315f,0,113,113,37,1,threefour,,,,,,,,,,,,,,,,,,,,,,,,,,,,,,,,,,,,,,,,,,,,,,,,,,,,,,,,,,,,,,,,,,,,,,,,,,,,,,,,,,,,,,,,,,,,,,,,,,,,,,,,,,,,,,,,,,,,,,,,,,,,,,,,,,,,,,,,,,,,,,,,,,,,,,,,,,
,,,,,,603f6e643234e512fc197ae1,62c5561defbf919e4800deff,2022-07-06_11h56.59.305,Colour_Asymmetry_Pilot,2022.1.3,Win32,58.32604258,62c50e9c1127f2cd403a315f,0,114,114,71,1,fourthree,,,,,,,,,,,,,,,,,,,,,,,,,,,,,,,,,,,,,,,,,,,,,,,,,,,,,,,,,,,,,,,,,,,,,,,,,,,,,,,,,,,,,,,,,,,,,,,,,,,,,,,,,,,,,,,,,,,,,,,,,,,,,,,,,,,,,,,,,,,,,,,,,,,,,,,,,,
,,,,,,603f6e643234e512fc197ae1,62c5561defbf919e4800deff,2022-07-06_11h56.59.305,Colour_Asymmetry_Pilot,2022.1.3,Win32,58.32604258,62c50e9c1127f2cd403a315f,0,115,115,58,1,twoone,,,,,,,,,,,,,,,,,,,,,,,,,,,,,,,,,,,,,,,,,,,,,,,,,,,,,,,,,,,,,,,,,,,,,,,,,,,,,,,,,,,,,,,,,,,,,,,,,,,,,,,,,,,,,,,,,,,,,,,,,,,,,,,,,,,,,,,,,,,,,,,,,,,,,,,,,,
,,,,,,603f6e643234e512fc197ae1,62c5561defbf919e4800deff,2022-07-06_11h56.59.305,Colour_Asymmetry_Pilot,2022.1.3,Win32,58.32604258,62c50e9c1127f2cd403a315f,0,116,116,131,1,twofour,,,,,,,,,,,,,,,,,,,,,,,,,,,,,,,,,,,,,,,,,,,,,,,,,,,,,,,,,,,,,,,,,,,,,,,,,,,,,,,,,,,,,,,,,,,,,,,,,,,,,,,,,,,,,,,,,,,,,,,,,,,,,,,,,,,,,,,,,,,,,,,,,,,,,,,,,,
,,,,,,603f6e643234e512fc197ae1,62c5561defbf919e4800deff,2022-07-06_11h56.59.305,Colour_Asymmetry_Pilot,2022.1.3,Win32,58.32604258,62c50e9c1127f2cd403a315f,0,117,117,147,1,twofour,,,,,,,,,,,,,,,,,,,,,,,,,,,,,,,,,,,,,,,,,,,,,,,,,,,,,,,,,,,,,,,,,,,,,,,,,,,,,,,,,,,,,,,,,,,,,,,,,,,,,,,,,,,,,,,,,,,,,,,,,,,,,,,,,,,,,,,,,,,,,,,,,,,,,,,,,,
,,,,,,603f6e643234e512fc197ae1,62c5561defbf919e4800deff,2022-07-06_11h56.59.305,Colour_Asymmetry_Pilot,2022.1.3,Win32,58.32604258,62c50e9c1127f2cd403a315f,0,118,118,90,1,twoone,,,,,,,,,,,,,,,,,,,,,,,,,,,,,,,,,,,,,,,,,,,,,,,,,,,,,,,,,,,,,,,,,,,,,,,,,,,,,,,,,,,,,,,,,,,,,,,,,,,,,,,,,,,,,,,,,,,,,,,,,,,,,,,,,,,,,,,,,,,,,,,,,,,,,,,,,,
,,,,,,603f6e643234e512fc197ae1,62c5561defbf919e4800deff,2022-07-06_11h56.59.305,Colour_Asymmetry_Pilot,2022.1.3,Win32,58.32604258,62c50e9c1127f2cd403a315f,0,119,119,25,1,onethree,,,,,,,,,,,,,,,,,,,,,,,,,,,,,,,,,,,,,,,,,,,,,,,,,,,,,,,,,,,,,,,,,,,,,,,,,,,,,,,,,,,,,,,,,,,,,,,,,,,,,,,,,,,,,,,,,,,,,,,,,,,,,,,,,,,,,,,,,,,,,,,,,,,,,,,,,,
,,,,,,603f6e643234e512fc197ae1,62c5561defbf919e4800deff,2022-07-06_11h56.59.305,Colour_Asymmetry_Pilot,2022.1.3,Win32,58.32604258,62c50e9c1127f2cd403a315f,0,120,120,107,1,twofour,,,,,,,,,,,,,,,,,,,,,,,,,,,,,,,,,,,,,,,,,,,,,,,,,,,,,,,,,,,,,,,,,,,,,,,,,,,,,,,,,,,,,,,,,,,,,,,,,,,,,,,,,,,,,,,,,,,,,,,,,,,,,,,,,,,,,,,,,,,,,,,,,,,,,,,,,,
,,,,,,603f6e643234e512fc197ae1,62c5561defbf919e4800deff,2022-07-06_11h56.59.305,Colour_Asymmetry_Pilot,2022.1.3,Win32,58.32604258,62c50e9c1127f2cd403a315f,0,121,121,59,1,twofour,,,,,,,,,,,,,,,,,,,,,,,,,,,,,,,,,,,,,,,,,,,,,,,,,,,,,,,,,,,,,,,,,,,,,,,,,,,,,,,,,,,,,,,,,,,,,,,,,,,,,,,,,,,,,,,,,,,,,,,,,,,,,,,,,,,,,,,,,,,,,,,,,,,,,,,,,,
,,,,,,603f6e643234e512fc197ae1,62c5561defbf919e4800deff,2022-07-06_11h56.59.305,Colour_Asymmetry_Pilot,2022.1.3,Win32,58.32604258,62c50e9c1127f2cd403a315f,0,122,122,81,1,onethree,,,,,,,,,,,,,,,,,,,,,,,,,,,,,,,,,,,,,,,,,,,,,,,,,,,,,,,,,,,,,,,,,,,,,,,,,,,,,,,,,,,,,,,,,,,,,,,,,,,,,,,,,,,,,,,,,,,,,,,,,,,,,,,,,,,,,,,,,,,,,,,,,,,,,,,,,,
,,,,,,603f6e643234e512fc197ae1,62c5561defbf919e4800deff,2022-07-06_11h56.59.305,Colour_Asymmetry_Pilot,2022.1.3,Win32,58.32604258,62c50e9c1127f2cd403a315f,0,123,123,155,1,twofour,,,,,,,,,,,,,,,,,,,,,,,,,,,,,,,,,,,,,,,,,,,,,,,,,,,,,,,,,,,,,,,,,,,,,,,,,,,,,,,,,,,,,,,,,,,,,,,,,,,,,,,,,,,,,,,,,,,,,,,,,,,,,,,,,,,,,,,,,,,,,,,,,,,,,,,,,,
,,,,,,603f6e643234e512fc197ae1,62c5561defbf919e4800deff,2022-07-06_11h56.59.305,Colour_Asymmetry_Pilot,2022.1.3,Win32,58.32604258,62c50e9c1127f2cd403a315f,0,124,124,14,1,fourtwo,,,,,,,,,,,,,,,,,,,,,,,,,,,,,,,,,,,,,,,,,,,,,,,,,,,,,,,,,,,,,,,,,,,,,,,,,,,,,,,,,,,,,,,,,,,,,,,,,,,,,,,,,,,,,,,,,,,,,,,,,,,,,,,,,,,,,,,,,,,,,,,,,,,,,,,,,,
,,,,,,603f6e643234e512fc197ae1,62c5561defbf919e4800deff,2022-07-06_11h56.59.305,Colour_Asymmetry_Pilot,2022.1.3,Win32,58.32604258,62c50e9c1127f2cd403a315f,0,125,125,118,1,fourtwo,,,,,,,,,,,,,,,,,,,,,,,,,,,,,,,,,,,,,,,,,,,,,,,,,,,,,,,,,,,,,,,,,,,,,,,,,,,,,,,,,,,,,,,,,,,,,,,,,,,,,,,,,,,,,,,,,,,,,,,,,,,,,,,,,,,,,,,,,,,,,,,,,,,,,,,,,,
,,,,,,603f6e643234e512fc197ae1,62c5561defbf919e4800deff,2022-07-06_11h56.59.305,Colour_Asymmetry_Pilot,2022.1.3,Win32,58.32604258,62c50e9c1127f2cd403a315f,0,126,126,132,1,threeone,,,,,,,,,,,,,,,,,,,,,,,,,,,,,,,,,,,,,,,,,,,,,,,,,,,,,,,,,,,,,,,,,,,,,,,,,,,,,,,,,,,,,,,,,,,,,,,,,,,,,,,,,,,,,,,,,,,,,,,,,,,,,,,,,,,,,,,,,,,,,,,,,,,,,,,,,,
,,,,,,603f6e643234e512fc197ae1,62c5561defbf919e4800deff,2022-07-06_11h56.59.305,Colour_Asymmetry_Pilot,2022.1.3,Win32,58.32604258,62c50e9c1127f2cd403a315f,0,127,127,110,1,fourtwo,,,,,,,,,,,,,,,,,,,,,,,,,,,,,,,,,,,,,,,,,,,,,,,,,,,,,,,,,,,,,,,,,,,,,,,,,,,,,,,,,,,,,,,,,,,,,,,,,,,,,,,,,,,,,,,,,,,,,,,,,,,,,,,,,,,,,,,,,,,,,,,,,,,,,,,,,,
,,,,,,603f6e643234e512fc197ae1,62c5561defbf919e4800deff,2022-07-06_11h56.59.305,Colour_Asymmetry_Pilot,2022.1.3,Win32,58.32604258,62c50e9c1127f2cd403a315f,0,128,128,96,1,onetwo,,,,,,,,,,,,,,,,,,,,,,,,,,,,,,,,,,,,,,,,,,,,,,,,,,,,,,,,,,,,,,,,,,,,,,,,,,,,,,,,,,,,,,,,,,,,,,,,,,,,,,,,,,,,,,,,,,,,,,,,,,,,,,,,,,,,,,,,,,,,,,,,,,,,,,,,,,
,,,,,,603f6e643234e512fc197ae1,62c5561defbf919e4800deff,2022-07-06_11h56.59.305,Colour_Asymmetry_Pilot,2022.1.3,Win32,58.32604258,62c50e9c1127f2cd403a315f,0,129,129,97,1,onethree,,,,,,,,,,,,,,,,,,,,,,,,,,,,,,,,,,,,,,,,,,,,,,,,,,,,,,,,,,,,,,,,,,,,,,,,,,,,,,,,,,,,,,,,,,,,,,,,,,,,,,,,,,,,,,,,,,,,,,,,,,,,,,,,,,,,,,,,,,,,,,,,,,,,,,,,,,
,,,,,,603f6e643234e512fc197ae1,62c5561defbf919e4800deff,2022-07-06_11h56.59.305,Colour_Asymmetry_Pilot,2022.1.3,Win32,58.32604258,62c50e9c1127f2cd403a315f,0,130,130,136,1,onetwo,,,,,,,,,,,,,,,,,,,,,,,,,,,,,,,,,,,,,,,,,,,,,,,,,,,,,,,,,,,,,,,,,,,,,,,,,,,,,,,,,,,,,,,,,,,,,,,,,,,,,,,,,,,,,,,,,,,,,,,,,,,,,,,,,,,,,,,,,,,,,,,,,,,,,,,,,,
,,,,,,603f6e643234e512fc197ae1,62c5561defbf919e4800deff,2022-07-06_11h56.59.305,Colour_Asymmetry_Pilot,2022.1.3,Win32,58.32604258,62c50e9c1127f2cd403a315f,0,131,131,83,1,twofour,,,,,,,,,,,,,,,,,,,,,,,,,,,,,,,,,,,,,,,,,,,,,,,,,,,,,,,,,,,,,,,,,,,,,,,,,,,,,,,,,,,,,,,,,,,,,,,,,,,,,,,,,,,,,,,,,,,,,,,,,,,,,,,,,,,,,,,,,,,,,,,,,,,,,,,,,,
,,,,,,603f6e643234e512fc197ae1,62c5561defbf919e4800deff,2022-07-06_11h56.59.305,Colour_Asymmetry_Pilot,2022.1.3,Win32,58.32604258,62c50e9c1127f2cd403a315f,0,132,132,149,1,threefour,,,,,,,,,,,,,,,,,,,,,,,,,,,,,,,,,,,,,,,,,,,,,,,,,,,,,,,,,,,,,,,,,,,,,,,,,,,,,,,,,,,,,,,,,,,,,,,,,,,,,,,,,,,,,,,,,,,,,,,,,,,,,,,,,,,,,,,,,,,,,,,,,,,,,,,,,,
,,,,,,603f6e643234e512fc197ae1,62c5561defbf919e4800deff,2022-07-06_11h56.59.305,Colour_Asymmetry_Pilot,2022.1.3,Win32,58.32604258,62c50e9c1127f2cd403a315f,0,133,133,49,1,onethree,,,,,,,,,,,,,,,,,,,,,,,,,,,,,,,,,,,,,,,,,,,,,,,,,,,,,,,,,,,,,,,,,,,,,,,,,,,,,,,,,,,,,,,,,,,,,,,,,,,,,,,,,,,,,,,,,,,,,,,,,,,,,,,,,,,,,,,,,,,,,,,,,,,,,,,,,,
,,,,,,603f6e643234e512fc197ae1,62c5561defbf919e4800deff,2022-07-06_11h56.59.305,Colour_Asymmetry_Pilot,2022.1.3,Win32,58.32604258,62c50e9c1127f2cd403a315f,0,134,134,15,1,fourthree,,,,,,,,,,,,,,,,,,,,,,,,,,,,,,,,,,,,,,,,,,,,,,,,,,,,,,,,,,,,,,,,,,,,,,,,,,,,,,,,,,,,,,,,,,,,,,,,,,,,,,,,,,,,,,,,,,,,,,,,,,,,,,,,,,,,,,,,,,,,,,,,,,,,,,,,,,
,,,,,,603f6e643234e512fc197ae1,62c5561defbf919e4800deff,2022-07-06_11h56.59.305,Colour_Asymmetry_Pilot,2022.1.3,Win32,58.32604258,62c50e9c1127f2cd403a315f,0,135,135,68,1,threeone,,,,,,,,,,,,,,,,,,,,,,,,,,,,,,,,,,,,,,,,,,,,,,,,,,,,,,,,,,,,,,,,,,,,,,,,,,,,,,,,,,,,,,,,,,,,,,,,,,,,,,,,,,,,,,,,,,,,,,,,,,,,,,,,,,,,,,,,,,,,,,,,,,,,,,,,,,
,,,,,,603f6e643234e512fc197ae1,62c5561defbf919e4800deff,2022-07-06_11h56.59.305,Colour_Asymmetry_Pilot,2022.1.3,Win32,58.32604258,62c50e9c1127f2cd403a315f,0,136,136,95,1,fourthree,,,,,,,,,,,,,,,,,,,,,,,,,,,,,,,,,,,,,,,,,,,,,,,,,,,,,,,,,,,,,,,,,,,,,,,,,,,,,,,,,,,,,,,,,,,,,,,,,,,,,,,,,,,,,,,,,,,,,,,,,,,,,,,,,,,,,,,,,,,,,,,,,,,,,,,,,,
,,,,,,603f6e643234e512fc197ae1,62c5561defbf919e4800deff,2022-07-06_11h56.59.305,Colour_Asymmetry_Pilot,2022.1.3,Win32,58.32604258,62c50e9c1127f2cd403a315f,0,137,137,61,1,threefour,,,,,,,,,,,,,,,,,,,,,,,,,,,,,,,,,,,,,,,,,,,,,,,,,,,,,,,,,,,,,,,,,,,,,,,,,,,,,,,,,,,,,,,,,,,,,,,,,,,,,,,,,,,,,,,,,,,,,,,,,,,,,,,,,,,,,,,,,,,,,,,,,,,,,,,,,,
,,,,,,603f6e643234e512fc197ae1,62c5561defbf919e4800deff,2022-07-06_11h56.59.305,Colour_Asymmetry_Pilot,2022.1.3,Win32,58.32604258,62c50e9c1127f2cd403a315f,0,138,138,7,1,fourthree,,,,,,,,,,,,,,,,,,,,,,,,,,,,,,,,,,,,,,,,,,,,,,,,,,,,,,,,,,,,,,,,,,,,,,,,,,,,,,,,,,,,,,,,,,,,,,,,,,,,,,,,,,,,,,,,,,,,,,,,,,,,,,,,,,,,,,,,,,,,,,,,,,,,,,,,,,
,,,,,,603f6e643234e512fc197ae1,62c5561defbf919e4800deff,2022-07-06_11h56.59.305,Colour_Asymmetry_Pilot,2022.1.3,Win32,58.32604258,62c50e9c1127f2cd403a315f,0,139,139,92,1,threeone,,,,,,,,,,,,,,,,,,,,,,,,,,,,,,,,,,,,,,,,,,,,,,,,,,,,,,,,,,,,,,,,,,,,,,,,,,,,,,,,,,,,,,,,,,,,,,,,,,,,,,,,,,,,,,,,,,,,,,,,,,,,,,,,,,,,,,,,,,,,,,,,,,,,,,,,,,
,,,,,,603f6e643234e512fc197ae1,62c5561defbf919e4800deff,2022-07-06_11h56.59.305,Colour_Asymmetry_Pilot,2022.1.3,Win32,58.32604258,62c50e9c1127f2cd403a315f,0,140,140,157,1,threefour,,,,,,,,,,,,,,,,,,,,,,,,,,,,,,,,,,,,,,,,,,,,,,,,,,,,,,,,,,,,,,,,,,,,,,,,,,,,,,,,,,,,,,,,,,,,,,,,,,,,,,,,,,,,,,,,,,,,,,,,,,,,,,,,,,,,,,,,,,,,,,,,,,,,,,,,,,
,,,,,,603f6e643234e512fc197ae1,62c5561defbf919e4800deff,2022-07-06_11h56.59.305,Colour_Asymmetry_Pilot,2022.1.3,Win32,58.32604258,62c50e9c1127f2cd403a315f,0,141,141,133,1,threefour,,,,,,,,,,,,,,,,,,,,,,,,,,,,,,,,,,,,,,,,,,,,,,,,,,,,,,,,,,,,,,,,,,,,,,,,,,,,,,,,,,,,,,,,,,,,,,,,,,,,,,,,,,,,,,,,,,,,,,,,,,,,,,,,,,,,,,,,,,,,,,,,,,,,,,,,,,
,,,,,,603f6e643234e512fc197ae1,62c5561defbf919e4800deff,2022-07-06_11h56.59.305,Colour_Asymmetry_Pilot,2022.1.3,Win32,58.32604258,62c50e9c1127f2cd403a315f,0,142,142,91,1,twofour,,,,,,,,,,,,,,,,,,,,,,,,,,,,,,,,,,,,,,,,,,,,,,,,,,,,,,,,,,,,,,,,,,,,,,,,,,,,,,,,,,,,,,,,,,,,,,,,,,,,,,,,,,,,,,,,,,,,,,,,,,,,,,,,,,,,,,,,,,,,,,,,,,,,,,,,,,
,,,,,,603f6e643234e512fc197ae1,62c5561defbf919e4800deff,2022-07-06_11h56.59.305,Colour_Asymmetry_Pilot,2022.1.3,Win32,58.32604258,62c50e9c1127f2cd403a315f,0,143,143,101,1,threefour,,,,,,,,,,,,,,,,,,,,,,,,,,,,,,,,,,,,,,,,,,,,,,,,,,,,,,,,,,,,,,,,,,,,,,,,,,,,,,,,,,,,,,,,,,,,,,,,,,,,,,,,,,,,,,,,,,,,,,,,,,,,,,,,,,,,,,,,,,,,,,,,,,,,,,,,,,
,,,,,,603f6e643234e512fc197ae1,62c5561defbf919e4800deff,2022-07-06_11h56.59.305,Colour_Asymmetry_Pilot,2022.1.3,Win32,58.32604258,62c50e9c1127f2cd403a315f,0,144,144,122,1,twoone,,,,,,,,,,,,,,,,,,,,,,,,,,,,,,,,,,,,,,,,,,,,,,,,,,,,,,,,,,,,,,,,,,,,,,,,,,,,,,,,,,,,,,,,,,,,,,,,,,,,,,,,,,,,,,,,,,,,,,,,,,,,,,,,,,,,,,,,,,,,,,,,,,,,,,,,,,
,,,,,,603f6e643234e512fc197ae1,62c5561defbf919e4800deff,2022-07-06_11h56.59.305,Colour_Asymmetry_Pilot,2022.1.3,Win32,58.32604258,62c50e9c1127f2cd403a315f,0,145,145,66,1,twoone,,,,,,,,,,,,,,,,,,,,,,,,,,,,,,,,,,,,,,,,,,,,,,,,,,,,,,,,,,,,,,,,,,,,,,,,,,,,,,,,,,,,,,,,,,,,,,,,,,,,,,,,,,,,,,,,,,,,,,,,,,,,,,,,,,,,,,,,,,,,,,,,,,,,,,,,,,
,,,,,,603f6e643234e512fc197ae1,62c5561defbf919e4800deff,2022-07-06_11h56.59.305,Colour_Asymmetry_Pilot,2022.1.3,Win32,58.32604258,62c50e9c1127f2cd403a315f,0,146,146,74,1,twoone,,,,,,,,,,,,,,,,,,,,,,,,,,,,,,,,,,,,,,,,,,,,,,,,,,,,,,,,,,,,,,,,,,,,,,,,,,,,,,,,,,,,,,,,,,,,,,,,,,,,,,,,,,,,,,,,,,,,,,,,,,,,,,,,,,,,,,,,,,,,,,,,,,,,,,,,,,
,,,,,,603f6e643234e512fc197ae1,62c5561defbf919e4800deff,2022-07-06_11h56.59.305,Colour_Asymmetry_Pilot,2022.1.3,Win32,58.32604258,62c50e9c1127f2cd403a315f,0,147,147,143,1,fourthree,,,,,,,,,,,,,,,,,,,,,,,,,,,,,,,,,,,,,,,,,,,,,,,,,,,,,,,,,,,,,,,,,,,,,,,,,,,,,,,,,,,,,,,,,,,,,,,,,,,,,,,,,,,,,,,,,,,,,,,,,,,,,,,,,,,,,,,,,,,,,,,,,,,,,,,,,,
,,,,,,603f6e643234e512fc197ae1,62c5561defbf919e4800deff,2022-07-06_11h56.59.305,Colour_Asymmetry_Pilot,2022.1.3,Win32,58.32604258,62c50e9c1127f2cd403a315f,0,148,148,35,1,twofour,,,,,,,,,,,,,,,,,,,,,,,,,,,,,,,,,,,,,,,,,,,,,,,,,,,,,,,,,,,,,,,,,,,,,,,,,,,,,,,,,,,,,,,,,,,,,,,,,,,,,,,,,,,,,,,,,,,,,,,,,,,,,,,,,,,,,,,,,,,,,,,,,,,,,,,,,,
,,,,,,603f6e643234e512fc197ae1,62c5561defbf919e4800deff,2022-07-06_11h56.59.305,Colour_Asymmetry_Pilot,2022.1.3,Win32,58.32604258,62c50e9c1127f2cd403a315f,0,149,149,21,1,threefour,,,,,,,,,,,,,,,,,,,,,,,,,,,,,,,,,,,,,,,,,,,,,,,,,,,,,,,,,,,,,,,,,,,,,,,,,,,,,,,,,,,,,,,,,,,,,,,,,,,,,,,,,,,,,,,,,,,,,,,,,,,,,,,,,,,,,,,,,,,,,,,,,,,,,,,,,,
,,,,,,603f6e643234e512fc197ae1,62c5561defbf919e4800deff,2022-07-06_11h56.59.305,Colour_Asymmetry_Pilot,2022.1.3,Win32,58.32604258,62c50e9c1127f2cd403a315f,0,150,150,57,1,onethree,,,,,,,,,,,,,,,,,,,,,,,,,,,,,,,,,,,,,,,,,,,,,,,,,,,,,,,,,,,,,,,,,,,,,,,,,,,,,,,,,,,,,,,,,,,,,,,,,,,,,,,,,,,,,,,,,,,,,,,,,,,,,,,,,,,,,,,,,,,,,,,,,,,,,,,,,,
,,,,,,603f6e643234e512fc197ae1,62c5561defbf919e4800deff,2022-07-06_11h56.59.305,Colour_Asymmetry_Pilot,2022.1.3,Win32,58.32604258,62c50e9c1127f2cd403a315f,0,151,151,109,1,threefour,,,,,,,,,,,,,,,,,,,,,,,,,,,,,,,,,,,,,,,,,,,,,,,,,,,,,,,,,,,,,,,,,,,,,,,,,,,,,,,,,,,,,,,,,,,,,,,,,,,,,,,,,,,,,,,,,,,,,,,,,,,,,,,,,,,,,,,,,,,,,,,,,,,,,,,,,,
,,,,,,603f6e643234e512fc197ae1,62c5561defbf919e4800deff,2022-07-06_11h56.59.305,Colour_Asymmetry_Pilot,2022.1.3,Win32,58.32604258,62c50e9c1127f2cd403a315f,0,152,152,114,1,twoone,,,,,,,,,,,,,,,,,,,,,,,,,,,,,,,,,,,,,,,,,,,,,,,,,,,,,,,,,,,,,,,,,,,,,,,,,,,,,,,,,,,,,,,,,,,,,,,,,,,,,,,,,,,,,,,,,,,,,,,,,,,,,,,,,,,,,,,,,,,,,,,,,,,,,,,,,,
,,,,,,603f6e643234e512fc197ae1,62c5561defbf919e4800deff,2022-07-06_11h56.59.305,Colour_Asymmetry_Pilot,2022.1.3,Win32,58.32604258,62c50e9c1127f2cd403a315f,0,153,153,39,1,fourthree,,,,,,,,,,,,,,,,,,,,,,,,,,,,,,,,,,,,,,,,,,,,,,,,,,,,,,,,,,,,,,,,,,,,,,,,,,,,,,,,,,,,,,,,,,,,,,,,,,,,,,,,,,,,,,,,,,,,,,,,,,,,,,,,,,,,,,,,,,,,,,,,,,,,,,,,,,
,,,,,,603f6e643234e512fc197ae1,62c5561defbf919e4800deff,2022-07-06_11h56.59.305,Colour_Asymmetry_Pilot,2022.1.3,Win32,58.32604258,62c50e9c1127f2cd403a315f,0,154,154,105,1,onethree,,,,,,,,,,,,,,,,,,,,,,,,,,,,,,,,,,,,,,,,,,,,,,,,,,,,,,,,,,,,,,,,,,,,,,,,,,,,,,,,,,,,,,,,,,,,,,,,,,,,,,,,,,,,,,,,,,,,,,,,,,,,,,,,,,,,,,,,,,,,,,,,,,,,,,,,,,
,,,,,,603f6e643234e512fc197ae1,62c5561defbf919e4800deff,2022-07-06_11h56.59.305,Colour_Asymmetry_Pilot,2022.1.3,Win32,58.32604258,62c50e9c1127f2cd403a315f,0,155,155,146,1,twoone,,,,,,,,,,,,,,,,,,,,,,,,,,,,,,,,,,,,,,,,,,,,,,,,,,,,,,,,,,,,,,,,,,,,,,,,,,,,,,,,,,,,,,,,,,,,,,,,,,,,,,,,,,,,,,,,,,,,,,,,,,,,,,,,,,,,,,,,,,,,,,,,,,,,,,,,,,
,,,,,,603f6e643234e512fc197ae1,62c5561defbf919e4800deff,2022-07-06_11h56.59.305,Colour_Asymmetry_Pilot,2022.1.3,Win32,58.32604258,62c50e9c1127f2cd403a315f,0,156,156,70,1,fourtwo,,,,,,,,,,,,,,,,,,,,,,,,,,,,,,,,,,,,,,,,,,,,,,,,,,,,,,,,,,,,,,,,,,,,,,,,,,,,,,,,,,,,,,,,,,,,,,,,,,,,,,,,,,,,,,,,,,,,,,,,,,,,,,,,,,,,,,,,,,,,,,,,,,,,,,,,,,
,,,,,,603f6e643234e512fc197ae1,62c5561defbf919e4800deff,2022-07-06_11h56.59.305,Colour_Asymmetry_Pilot,2022.1.3,Win32,58.32604258,62c50e9c1127f2cd403a315f,0,157,157,4,1,threeone,,,,,,,,,,,,,,,,,,,,,,,,,,,,,,,,,,,,,,,,,,,,,,,,,,,,,,,,,,,,,,,,,,,,,,,,,,,,,,,,,,,,,,,,,,,,,,,,,,,,,,,,,,,,,,,,,,,,,,,,,,,,,,,,,,,,,,,,,,,,,,,,,,,,,,,,,,
,,,,,,603f6e643234e512fc197ae1,62c5561defbf919e4800deff,2022-07-06_11h56.59.305,Colour_Asymmetry_Pilot,2022.1.3,Win32,58.32604258,62c50e9c1127f2cd403a315f,0,158,158,6,1,fourtwo,,,,,,,,,,,,,,,,,,,,,,,,,,,,,,,,,,,,,,,,,,,,,,,,,,,,,,,,,,,,,,,,,,,,,,,,,,,,,,,,,,,,,,,,,,,,,,,,,,,,,,,,,,,,,,,,,,,,,,,,,,,,,,,,,,,,,,,,,,,,,,,,,,,,,,,,,,
,,,,,,603f6e643234e512fc197ae1,62c5561defbf919e4800deff,2022-07-06_11h56.59.305,Colour_Asymmetry_Pilot,2022.1.3,Win32,58.32604258,62c50e9c1127f2cd403a315f,0,159,159,10,1,twoone,,,,,,,,,,,,,,,,,,,,,,,,,,,,,,,,,,,,,,,,,,,,,,,,,,,,,,,,,,,,,,,,,,,,,,,,,,,,,,,,,,,,,,,,,,,,,,,,,,,,,,,,,,,,,,,,,,,,,,,,,,,,,,,,,,,,,,,,,,,,,,,,,,,,,,,,,,
,,,,,,603f6e643234e512fc197ae1,62c5561defbf919e4800deff,2022-07-06_11h56.59.305,Colour_Asymmetry_Pilot,2022.1.3,Win32,58.32604258,62c50e9c1127f2cd403a315f,0,160,160,44,1,threeone,,,,,,,,,,,,,,,,,,,,,,,,,,,,,,,,,,,,,,,,,,,,,,,,,,,,,,,,,,,,,,,,,,,,,,,,,,,,,,,,,,,,,,,,,,,,,,,,,,,,,,,,,,,,,,,,,,,,,,,,,,,,,,,,,,,,,,,,,,,,,,,,,,,,,,,,,,
,,,,,,603f6e643234e512fc197ae1,62c5561defbf919e4800deff,2022-07-06_11h56.59.305,Colour_Asymmetry_Pilot,2022.1.3,Win32,58.32604258,62c50e9c1127f2cd403a315f,0,161,161,73,1,onethree,,,,,,,,,,,,,,,,,,,,,,,,,,,,,,,,,,,,,,,,,,,,,,,,,,,,,,,,,,,,,,,,,,,,,,,,,,,,,,,,,,,,,,,,,,,,,,,,,,,,,,,,,,,,,,,,,,,,,,,,,,,,,,,,,,,,,,,,,,,,,,,,,,,,,,,,,,
,,,,,,603f6e643234e512fc197ae1,62c5561defbf919e4800deff,2022-07-06_11h56.59.305,Colour_Asymmetry_Pilot,2022.1.3,Win32,58.32604258,62c50e9c1127f2cd403a315f,,,,,,,space,1.0297,space,5.6654,space,21.0508,space,9.0827,space,1.4186,space,2.6013,"[-0.6706000000000001,-0.6157999999999999,-0.6786]",fourtwo,"[0.05879999999999996,0.2784,0.5841999999999998]",-4,3.2167,-27,77,1,0,0,response7disk_5,4,0,1,0,0,rectangle_8,4,0,1,0,0,3,4,0,1,0,0,0,0,0,0,1,,,,,,,,,,,,,,,,,,,,,,,,,,,,,,,,,,,,,,,,,,,,,,,,,,,,,,,,,,,,,,,,,,,,,,,,,,,,,,,,,,,,,,,,,,,,,,,,,,,,,,,,,,,,,
,,,,,,603f6e643234e512fc197ae1,62c5561defbf919e4800deff,2022-07-06_11h56.59.305,Colour_Asymmetry_Pilot,2022.1.3,Win32,58.32604258,62c50e9c1127f2cd403a315f,,,,,,,,,,,,,,,,,,,"[0.2784,-0.31000000000000005,-0.5452]",twoone,"[0.9372,0.9450000000000001,0.8980000000000001]",-4,4.1669,-41,59,1,0,0,response7disk_5,-5,3,1,0,0,rectangle_8,-5,3,1,0,0,3,-5,3,1,0,0,1,0,1,0,1,,,,,,,,,,,,,,,,,,,,,,,,,,,,,,,,,,,,,,,,,,,,,,,,,,,,,,,,,,,,,,,,,,,,,,,,,,,,,,,,,,,,,,,,,,,,,,,,,,,,,,,,,,,,,
,,,,,,603f6e643234e512fc197ae1,62c5561defbf919e4800deff,2022-07-06_11h56.59.305,Colour_Asymmetry_Pilot,2022.1.3,Win32,58.32604258,62c50e9c1127f2cd403a315f,,,,,,,,,,,,,,,,,,,"[0.37240000000000006,-0.050999999999999934,-0.5216]",fourthree,"[1,0.12939999999999996,-1]",1,4.5663,28,-61,1,0,0,response3disk_5,-3,-3,1,0,0,rectangle_8,-3,-3,1,0,0,3,-3,-3,1,0,0,2,0,2,0,1,,,,,,,,,,,,,,,,,,,,,,,,,,,,,,,,,,,,,,,,,,,,,,,,,,,,,,,,,,,,,,,,,,,,,,,,,,,,,,,,,,,,,,,,,,,,,,,,,,,,,,,,,,,,,
,,,,,,603f6e643234e512fc197ae1,62c5561defbf919e4800deff,2022-07-06_11h56.59.305,Colour_Asymmetry_Pilot,2022.1.3,Win32,58.32604258,62c50e9c1127f2cd403a315f,,,,,,,,,,,,,,,,,,,"[-0.07459999999999989,0.12139999999999995,-0.9922]",twofour,"[0.9686000000000001,0.3802000000000001,0.19999999999999996]",-4,1.1665,-21,53,1,0,0,response7disk_5,4,-4,1,0,0,rectangle_8,4,-4,1,0,0,3,4,-4,1,0,0,3,0,3,0,1,,,,,,,,,,,,,,,,,,,,,,,,,,,,,,,,,,,,,,,,,,,,,,,,,,,,,,,,,,,,,,,,,,,,,,,,,,,,,,,,,,,,,,,,,,,,,,,,,,,,,,,,,,,,,
,,,,,,603f6e643234e512fc197ae1,62c5561defbf919e4800deff,2022-07-06_11h56.59.305,Colour_Asymmetry_Pilot,2022.1.3,Win32,58.32604258,62c50e9c1127f2cd403a315f,,,,,,,,,,,,,,,,,,,"[0.23920000000000008,0.2704,0.16060000000000008]",onethree,"[0.9686000000000001,0.5763999999999998,0.11359999999999992]",-1,1.8505,-38,-59,1,0,0,response5disk_5,2,-5,1,0,0,rectangle_8,2,-5,1,0,0,3,2,-5,1,0,0,4,0,4,0,1,,,,,,,,,,,,,,,,,,,,,,,,,,,,,,,,,,,,,,,,,,,,,,,,,,,,,,,,,,,,,,,,,,,,,,,,,,,,,,,,,,,,,,,,,,,,,,,,,,,,,,,,,,,,,
,,,,,,603f6e643234e512fc197ae1,62c5561defbf919e4800deff,2022-07-06_11h56.59.305,Colour_Asymmetry_Pilot,2022.1.3,Win32,58.32604258,62c50e9c1127f2cd403a315f,,,,,,,,,,,,,,,,,,,"[-0.07459999999999989,0.12139999999999995,-0.9922]",twoone,"[-0.4902000000000001,0.2704,-0.45899999999999996]",1,2.3669,19,-59,1,0,0,response3disk_5,-9,4,1,0,0,rectangle_8,-9,4,1,0,0,3,-9,4,1,0,0,5,0,5,0,1,,,,,,,,,,,,,,,,,,,,,,,,,,,,,,,,,,,,,,,,,,,,,,,,,,,,,,,,,,,,,,,,,,,,,,,,,,,,,,,,,,,,,,,,,,,,,,,,,,,,,,,,,,,,,
,,,,,,603f6e643234e512fc197ae1,62c5561defbf919e4800deff,2022-07-06_11h56.59.305,Colour_Asymmetry_Pilot,2022.1.3,Win32,58.32604258,62c50e9c1127f2cd403a315f,,,,,,,,,,,,,,,,,,,"[0.12939999999999996,-0.2864,0.3253999999999999]",fourthree,"[0.3881999999999999,-0.23939999999999995,-0.05040000000000011]",-1,2.2166,-22,-76,1,0,0,response5disk_5,-8,0,1,0,0,rectangle_8,-8,0,1,0,0,3,-8,0,1,0,0,6,0,6,0,1,,,,,,,,,,,,,,,,,,,,,,,,,,,,,,,,,,,,,,,,,,,,,,,,,,,,,,,,,,,,,,,,,,,,,,,,,,,,,,,,,,,,,,,,,,,,,,,,,,,,,,,,,,,,,
,,,,,,603f6e643234e512fc197ae1,62c5561defbf919e4800deff,2022-07-06_11h56.59.305,Colour_Asymmetry_Pilot,2022.1.3,Win32,58.32604258,62c50e9c1127f2cd403a315f,,,,,,,,,,,,,,,,,,,,twoone,,-4,0.9331,,,,,,,,,,,,,,,,,,,,,,,,,,,,,space,3.2854,"[0.6625999999999999,0.4980000000000002,-0.357]","[0.12939999999999996,-0.2864,0.3253999999999999]",-28,65,1,0,0,response7disk,2,0,1,0,0,rectangle,2,0,1,0,0,,3,0.0015,0,2,0,1,0,0,0,0,0,113,1,32,second,,,,,,,,,,,,,,,,,,,,,,,,,,,,,,,,,,,,,,,,,,,,,,,,,,,,,,,,,,,,,,,,,,,,,,,,
,,,,,,603f6e643234e512fc197ae1,62c5561defbf919e4800deff,2022-07-06_11h56.59.305,Colour_Asymmetry_Pilot,2022.1.3,Win32,58.32604258,62c50e9c1127f2cd403a315f,,,,,,,,,,,,,,,,,,,,fourtwo,,-4,0.5664,,,,,,,,,,,,,,,,,,,,,,,,,,,,,,,"[0.23920000000000008,0.2704,0.16060000000000008]","[-0.6706000000000001,-0.6157999999999999,-0.6786]",-37,65,1,0,0,response7disk,-6,-3,1,0,0,rectangle,-6,-3,1,0,0,,1,0.0011,0,-6,-3,1,0,0,0,1,1,19,1,19,first,,,,,,,,,,,,,,,,,,,,,,,,,,,,,,,,,,,,,,,,,,,,,,,,,,,,,,,,,,,,,,,,,,,,,,,,
,,,,,,603f6e643234e512fc197ae1,62c5561defbf919e4800deff,2022-07-06_11h56.59.305,Colour_Asymmetry_Pilot,2022.1.3,Win32,58.32604258,62c50e9c1127f2cd403a315f,,,,,,,,,,,,,,,,,,,,onetwo,,-4,0.9667,,,,,,,,,,,,,,,,,,,,,,,,,,,,,,,"[0.9686000000000001,0.3802000000000001,0.19999999999999996]","[-0.4902000000000001,0.2704,-0.45899999999999996]",-37,67,1,0,0,response7disk,-3,4,1,0,0,rectangle,-3,4,1,0,0,,2,0.0016,0,-3,4,1,0,0,0,2,2,112,1,31,second,,,,,,,,,,,,,,,,,,,,,,,,,,,,,,,,,,,,,,,,,,,,,,,,,,,,,,,,,,,,,,,,,,,,,,,,
,,,,,,603f6e643234e512fc197ae1,62c5561defbf919e4800deff,2022-07-06_11h56.59.305,Colour_Asymmetry_Pilot,2022.1.3,Win32,58.32604258,62c50e9c1127f2cd403a315f,,,,,,,,,,,,,,,,,,,,fourtwo,,1,1.6,,,,,,,,,,,,,,,,,,,,,,,,,,,,,,,"[0.4196,0.4665999999999999,0.3568]","[0.0351999999999999,0.41159999999999997,0.0038000000000000256]",33,-65,1,0,0,response3disk,11,-6,1,0,0,rectangle,11,-6,1,0,0,,1,0.0007,0,11,-6,1,0,0,0,3,3,83,1,2,second,,,,,,,,,,,,,,,,,,,,,,,,,,,,,,,,,,,,,,,,,,,,,,,,,,,,,,,,,,,,,,,,,,,,,,,,
,,,,,,603f6e643234e512fc197ae1,62c5561defbf919e4800deff,2022-07-06_11h56.59.305,Colour_Asymmetry_Pilot,2022.1.3,Win32,58.32604258,62c50e9c1127f2cd403a315f,,,,,,,,,,,,,,,,,,,,twoone,,-4,2.9009,,,,,,,,,,,,,,,,,,,,,,,,,,,,,,,"[0.5528,0.7409999999999999,-0.71]","[0.8115999999999999,-0.0040000000000000036,-0.09819999999999995]",-21,69,1,0,0,response7disk,-11,9,1,0,0,rectangle,-11,9,1,0,0,,3,0.0007,0,-11,9,1,0,0,0,4,4,118,1,37,second,,,,,,,,,,,,,,,,,,,,,,,,,,,,,,,,,,,,,,,,,,,,,,,,,,,,,,,,,,,,,,,,,,,,,,,,
,,,,,,603f6e643234e512fc197ae1,62c5561defbf919e4800deff,2022-07-06_11h56.59.305,Colour_Asymmetry_Pilot,2022.1.3,Win32,58.32604258,62c50e9c1127f2cd403a315f,,,,,,,,,,,,,,,,,,,,fourthree,,-4,0.6003,,,,,,,,,,,,,,,,,,,,,,,,,,,,,,,"[-0.8982,-0.37259999999999993,0.2784]","[-0.17659999999999998,-0.2864,-0.8354]",-23,59,1,0,0,response7disk,5,-7,1,0,0,rectangle,5,-7,1,0,0,,1,0.0007,0,5,-7,1,0,0,0,5,5,140,1,59,second,,,,,,,,,,,,,,,,,,,,,,,,,,,,,,,,,,,,,,,,,,,,,,,,,,,,,,,,,,,,,,,,,,,,,,,,
,,,,,,603f6e643234e512fc197ae1,62c5561defbf919e4800deff,2022-07-06_11h56.59.305,Colour_Asymmetry_Pilot,2022.1.3,Win32,58.32604258,62c50e9c1127f2cd403a315f,,,,,,,,,,,,,,,,,,,,fourtwo,,-4,0.5504,,,,,,,,,,,,,,,,,,,,,,,,,,,,,,,"[-0.2942,-0.7648,-0.7492000000000001]","[0.7018,0.7176,0.6155999999999999]",-30,61,1,0,0,response7disk,0,0,1,0,0,rectangle,0,0,1,0,0,,2,0.0007,0,0,0,1,0,0,0,6,6,62,1,62,first,,,,,,,,,,,,,,,,,,,,,,,,,,,,,,,,,,,,,,,,,,,,,,,,,,,,,,,,,,,,,,,,,,,,,,,,
,,,,,,603f6e643234e512fc197ae1,62c5561defbf919e4800deff,2022-07-06_11h56.59.305,Colour_Asymmetry_Pilot,2022.1.3,Win32,58.32604258,62c50e9c1127f2cd403a315f,,,,,,,,,,,,,,,,,,,,onethree,,-1,1.1502,,,,,,,,,,,,,,,,,,,,,,,,,,,,,,,"[0.23120000000000007,-0.7726,-0.34120000000000006]","[-0.10599999999999998,-0.15300000000000002,0.15280000000000005]",-29,-66,1,0,0,response5disk,-5,-4,1,0,0,rectangle,-5,-4,1,0,0,,1,0.0016,0,-5,-4,1,0,0,0,7,7,39,1,39,first,,,,,,,,,,,,,,,,,,,,,,,,,,,,,,,,,,,,,,,,,,,,,,,,,,,,,,,,,,,,,,,,,,,,,,,,
,,,,,,603f6e643234e512fc197ae1,62c5561defbf919e4800deff,2022-07-06_11h56.59.305,Colour_Asymmetry_Pilot,2022.1.3,Win32,58.32604258,62c50e9c1127f2cd403a315f,,,,,,,,,,,,,,,,,,,,twoone,,1,3.0997,,,,,,,,,,,,,,,,,,,,,,,,,,,,,,,"[-0.9766,-0.34920000000000007,0.2156]","[0.11359999999999992,0.6312,0.5213999999999999]",33,-66,1,0,0,response3disk,0,-2,1,0,0,rectangle,0,-2,1,0,0,,2,0.0007,0,0,-2,1,0,0,0,8,8,129,1,48,second,,,,,,,,,,,,,,,,,,,,,,,,,,,,,,,,,,,,,,,,,,,,,,,,,,,,,,,,,,,,,,,,,,,,,,,,
,,,,,,603f6e643234e512fc197ae1,62c5561defbf919e4800deff,2022-07-06_11h56.59.305,Colour_Asymmetry_Pilot,2022.1.3,Win32,58.32604258,62c50e9c1127f2cd403a315f,,,,,,,,,,,,,,,,,,,,fourtwo,,-4,0.5839,,,,,,,,,,,,,,,,,,,,,,,,,,,,,,,"[0.9686000000000001,0.3802000000000001,0.19999999999999996]","[-0.2942,-0.24719999999999998,-0.357]",-27,68,1,0,0,response7disk,-3,4,1,0,0,rectangle,-3,4,1,0,0,,2,0.0003,0,-3,4,1,0,0,0,9,9,101,1,20,second,,,,,,,,,,,,,,,,,,,,,,,,,,,,,,,,,,,,,,,,,,,,,,,,,,,,,,,,,,,,,,,,,,,,,,,,
,,,,,,603f6e643234e512fc197ae1,62c5561defbf919e4800deff,2022-07-06_11h56.59.305,Colour_Asymmetry_Pilot,2022.1.3,Win32,58.32604258,62c50e9c1127f2cd403a315f,,,,,,,,,,,,,,,,,,,,twofour,,2,2.4834,,,,,,,,,,,,,,,,,,,,,,,,,,,,,,,"[-0.6706000000000001,-0.6157999999999999,-0.6786]","[-0.8198,-0.5138,-0.7492000000000001]",63,-24,1,0,0,response3disk,5,5,1,0,0,rectangle,5,5,1,0,0,,1,0.0007,0,5,5,1,0,0,0,10,10,26,1,26,first,,,,,,,,,,,,,,,,,,,,,,,,,,,,,,,,,,,,,,,,,,,,,,,,,,,,,,,,,,,,,,,,,,,,,,,,
,,,,,,603f6e643234e512fc197ae1,62c5561defbf919e4800deff,2022-07-06_11h56.59.305,Colour_Asymmetry_Pilot,2022.1.3,Win32,58.32604258,62c50e9c1127f2cd403a315f,,,,,,,,,,,,,,,,,,,,fourtwo,,-4,0.3504,,,,,,,,,,,,,,,,,,,,,,,,,,,,,,,"[-0.2942,-0.7648,-0.7492000000000001]","[-0.4902000000000001,0.2704,-0.45899999999999996]",-25,75,1,0,0,response7disk,-1,-3,1,0,0,rectangle,-1,-3,1,0,0,,2,0.0006,0,-1,-3,1,0,0,0,11,11,27,1,27,first,,,,,,,,,,,,,,,,,,,,,,,,,,,,,,,,,,,,,,,,,,,,,,,,,,,,,,,,,,,,,,,,,,,,,,,,
,,,,,,603f6e643234e512fc197ae1,62c5561defbf919e4800deff,2022-07-06_11h56.59.305,Colour_Asymmetry_Pilot,2022.1.3,Win32,58.32604258,62c50e9c1127f2cd403a315f,,,,,,,,,,,,,,,,,,,,twofour,,-2,0.9165,,,,,,,,,,,,,,,,,,,,,,,,,,,,,,,"[-0.45899999999999996,-0.3256,-0.9374]","[-0.9688,-0.7412000000000001,-0.4902000000000001]",-60,-23,1,0,0,response5disk,0,10,1,0,0,rectangle,0,10,1,0,0,,1,0.0015,0,0,10,1,0,0,0,12,12,125,1,44,second,,,,,,,,,,,,,,,,,,,,,,,,,,,,,,,,,,,,,,,,,,,,,,,,,,,,,,,,,,,,,,,,,,,,,,,,
,,,,,,603f6e643234e512fc197ae1,62c5561defbf919e4800deff,2022-07-06_11h56.59.305,Colour_Asymmetry_Pilot,2022.1.3,Win32,58.32604258,62c50e9c1127f2cd403a315f,,,,,,,,,,,,,,,,,,,,threefour,,-2,0.6834,,,,,,,,,,,,,,,,,,,,,,,,,,,,,,,"[-0.24719999999999998,0.5213999999999999,-0.12959999999999994]","[-0.6,0.16860000000000008,0.44300000000000006]",-42,-27,1,0,0,response5disk,0,7,1,0,0,rectangle,0,7,1,0,0,,3,0.0007,0,0,7,1,0,0,0,13,13,91,1,10,second,,,,,,,,,,,,,,,,,,,,,,,,,,,,,,,,,,,,,,,,,,,,,,,,,,,,,,,,,,,,,,,,,,,,,,,,
,,,,,,603f6e643234e512fc197ae1,62c5561defbf919e4800deff,2022-07-06_11h56.59.305,Colour_Asymmetry_Pilot,2022.1.3,Win32,58.32604258,62c50e9c1127f2cd403a315f,,,,,,,,,,,,,,,,,,,,threeone,,-4,4.416,,,,,,,,,,,,,,,,,,,,,,,,,,,,,,,"[0.7646000000000002,0.07440000000000002,0.2704]","[0.18419999999999992,-0.4276,-0.404]",-32,65,1,0,0,response7disk,-14,10,1,0,0,rectangle,-14,10,1,0,0,,2,0.0007,0,-14,10,1,0,0,0,14,14,131,1,50,second,,,,,,,,,,,,,,,,,,,,,,,,,,,,,,,,,,,,,,,,,,,,,,,,,,,,,,,,,,,,,,,,,,,,,,,,
,,,,,,603f6e643234e512fc197ae1,62c5561defbf919e4800deff,2022-07-06_11h56.59.305,Colour_Asymmetry_Pilot,2022.1.3,Win32,58.32604258,62c50e9c1127f2cd403a315f,,,,,,,,,,,,,,,,,,,,twofour,,-4,1.6499,,,,,,,,,,,,,,,,,,,,,,,,,,,,,,,"[-0.34920000000000007,-0.702,-0.5216]","[-0.2942,-0.24719999999999998,-0.357]",-40,87,1,0,0,response7disk,-11,1,1,0,0,rectangle,-11,1,1,0,0,,1,0.0008,0,-11,1,1,0,0,0,15,15,158,1,77,second,,,,,,,,,,,,,,,,,,,,,,,,,,,,,,,,,,,,,,,,,,,,,,,,,,,,,,,,,,,,,,,,,,,,,,,,
,,,,,,603f6e643234e512fc197ae1,62c5561defbf919e4800deff,2022-07-06_11h56.59.305,Colour_Asymmetry_Pilot,2022.1.3,Win32,58.32604258,62c50e9c1127f2cd403a315f,,,,,,,,,,,,,,,,,,,,onethree,,-3,0.933,,,,,,,,,,,,,,,,,,,,,,,,,,,,,,,"[-0.050999999999999934,-0.6706000000000001,-0.804]","[-0.4668,-0.8746,-0.2942]",-48,19,1,0,0,response7disk,-3,-5,1,0,0,rectangle,-3,-5,1,0,0,,2,0.0006,0,-3,-5,1,0,0,0,16,16,116,1,35,second,,,,,,,,,,,,,,,,,,,,,,,,,,,,,,,,,,,,,,,,,,,,,,,,,,,,,,,,,,,,,,,,,,,,,,,,
,,,,,,603f6e643234e512fc197ae1,62c5561defbf919e4800deff,2022-07-06_11h56.59.305,Colour_Asymmetry_Pilot,2022.1.3,Win32,58.32604258,62c50e9c1127f2cd403a315f,,,,,,,,,,,,,,,,,,,,twofour,,-3,0.5665,,,,,,,,,,,,,,,,,,,,,,,,,,,,,,,"[-0.4668,-0.8746,-0.2942]","[-0.050999999999999934,-0.6706000000000001,-0.804]",-57,27,1,0,0,response7disk,-5,-3,1,0,0,rectangle,-5,-3,1,0,0,,2,0.0002,0,-5,-3,1,0,0,0,17,17,35,1,35,first,,,,,,,,,,,,,,,,,,,,,,,,,,,,,,,,,,,,,,,,,,,,,,,,,,,,,,,,,,,,,,,,,,,,,,,,
,,,,,,603f6e643234e512fc197ae1,62c5561defbf919e4800deff,2022-07-06_11h56.59.305,Colour_Asymmetry_Pilot,2022.1.3,Win32,58.32604258,62c50e9c1127f2cd403a315f,,,,,,,,,,,,,,,,,,,,twofour,,-4,0.5671,,,,,,,,,,,,,,,,,,,,,,,,,,,,,,,"[0.7802,-0.23140000000000005,-0.20799999999999996]","[0.9763999999999999,0.8588,-0.05900000000000005]",-26,62,1,0,0,response7disk,-4,5,1,0,0,rectangle,-4,5,1,0,0,,2,0.0002,0,-4,5,1,0,0,0,18,18,56,1,56,first,,,,,,,,,,,,,,,,,,,,,,,,,,,,,,,,,,,,,,,,,,,,,,,,,,,,,,,,,,,,,,,,,,,,,,,,
,,,,,,603f6e643234e512fc197ae1,62c5561defbf919e4800deff,2022-07-06_11h56.59.305,Colour_Asymmetry_Pilot,2022.1.3,Win32,58.32604258,62c50e9c1127f2cd403a315f,,,,,,,,,,,,,,,,,,,,threeone,,-4,0.584,,,,,,,,,,,,,,,,,,,,,,,,,,,,,,,"[-0.9688,-0.7412000000000001,-0.4902000000000001]","[-0.45899999999999996,-0.3256,-0.9374]",-18,57,1,0,0,response7disk,-3,10,1,0,0,rectangle,-3,10,1,0,0,,2,0.0001,0,-3,10,1,0,0,0,19,19,44,1,44,first,,,,,,,,,,,,,,,,,,,,,,,,,,,,,,,,,,,,,,,,,,,,,,,,,,,,,,,,,,,,,,,,,,,,,,,,
