trials.thisRepN,trials.thisTrialN,trials.thisN,trials.thisIndex,trials.ran,Colourcodes,participant,session,date,expName,psychopyVersion,OS,frameRate,study_id,trials_4.thisRepN,trials_4.thisTrialN,trials_4.thisN,trials_4.thisIndex,trials_4.ran,StimulusPos,key_resp.keys,key_resp.rt,key_resp_2.keys,key_resp_2.rt,key_resp_15.keys,key_resp_15.rt,key_resp_17.keys,key_resp_17.rt,key_resp_9.keys,key_resp_9.rt,key_resp_10.keys,key_resp_10.rt,Circle1_col,Ecc,Circle2_col,similarity,response_time,mouse_5.x,mouse_5.y,mouse_5.leftButton,mouse_5.midButton,mouse_5.rightButton,mouse_5.clicked_name,mouse_10.x,mouse_10.y,mouse_10.leftButton,mouse_10.midButton,mouse_10.rightButton,mouse_10.clicked_name,mouse_7.x,mouse_7.y,mouse_7.leftButton,mouse_7.midButton,mouse_7.rightButton,catchnumberprac,mouse_6.x,mouse_6.y,mouse_6.leftButton,mouse_6.midButton,mouse_6.rightButton,duringprac.thisRepN,duringprac.thisTrialN,duringprac.thisN,duringprac.thisIndex,duringprac.ran,mouse_7.clicked_name,catchprac,mouse_6.clicked_name,key_resp_22.keys,key_resp_22.rt,Circle1_colour,Circle2_colour,mouse.x,mouse.y,mouse.leftButton,mouse.midButton,mouse.rightButton,mouse.clicked_name,mouse_2.x,mouse_2.y,mouse_2.leftButton,mouse_2.midButton,mouse_2.rightButton,mouse_2.clicked_name,mouse_3.x,mouse_3.y,mouse_3.leftButton,mouse_3.midButton,mouse_3.rightButton,mouse_3.clicked_name,catchresponse,catchnumber,response_time_catch,Catch,mouse_11.x,mouse_11.y,mouse_11.leftButton,mouse_11.midButton,mouse_11.rightButton,mouse_11.clicked_name,trials_2.thisRepN,trials_2.thisTrialN,trials_2.thisN,trials_2.thisIndex,trials_2.ran,Colourpair,Temporder,trials_3.thisRepN,trials_3.thisTrialN,trials_3.thisN,trials_3.thisIndex,trials_3.ran,key_resp_instr_Ishi.keys,key_resp_instr_Ishi.rt,Ishi_trial_keyresp.keys,Ishi_textbox.text,Ishi_mouse.x,Ishi_mouse.y,Ishi_mouse.leftButton,Ishi_mouse.midButton,Ishi_mouse.rightButton,Ishi_mouse.clicked_name,Ishi_loop.thisRepN,Ishi_loop.thisTrialN,Ishi_loop.thisN,Ishi_loop.thisIndex,Ishi_loop.ran,imageaddress,textbox.text,mouse_4.x,mouse_4.y,mouse_4.leftButton,mouse_4.midButton,mouse_4.rightButton,mouse_4.clicked_name,textbox_2.text,mouse_8.x,mouse_8.y,mouse_8.leftButton,mouse_8.midButton,mouse_8.rightButton,mouse_8.clicked_name,textbox_3.text,mouse_9.x,mouse_9.y,mouse_9.leftButton,mouse_9.midButton,mouse_9.rightButton,mouse_9.clicked_name,textbox_4.text,mouse_12.x,mouse_12.y,mouse_12.leftButton,mouse_12.midButton,mouse_12.rightButton,mouse_12.clicked_name,textbox_5.text,mouse_13.x,mouse_13.y,mouse_13.leftButton,mouse_13.midButton,mouse_13.rightButton,mouse_13.clicked_name,textbox_6.text,mouse_14.x,mouse_14.y,mouse_14.leftButton,mouse_14.midButton,mouse_14.rightButton,mouse_14.clicked_name,textbox_7.text,mouse_15.x,mouse_15.y,mouse_15.leftButton,mouse_15.midButton,mouse_15.rightButton,mouse_15.clicked_name
0,0,0,58,1,,60b644e05d894519db62a451,62c538b4b7d37a19065d9650,2022-07-06_09h25.15.978,Colour_Asymmetry_Pilot,2022.1.3,Win32,60.01680471,62c50e9c1127f2cd403a315f,,,,,,,,,,,,,,,,,,,,,,,,,,,,,,,,,,,,,,,,,,,,,,,,,,,,,,,,,,,,,,,,,,,,,,,,,,,,,,,,,,,,,,,,,,,,,,,,,,,,,,,,,,,,,,,,,,,,,,,,,,,,,,,,,,,,,,,,,,,,,,,,,,,,,,,,,,,,,,,,,,,
0,1,1,76,1,,60b644e05d894519db62a451,62c538b4b7d37a19065d9650,2022-07-06_09h25.15.978,Colour_Asymmetry_Pilot,2022.1.3,Win32,60.01680471,62c50e9c1127f2cd403a315f,,,,,,,,,,,,,,,,,,,,,,,,,,,,,,,,,,,,,,,,,,,,,,,,,,,,,,,,,,,,,,,,,,,,,,,,,,,,,,,,,,,,,,,,,,,,,,,,,,,,,,,,,,,,,,,,,,,,,,,,,,,,,,,,,,,,,,,,,,,,,,,,,,,,,,,,,,,,,,,,,,,
0,2,2,29,1,,60b644e05d894519db62a451,62c538b4b7d37a19065d9650,2022-07-06_09h25.15.978,Colour_Asymmetry_Pilot,2022.1.3,Win32,60.01680471,62c50e9c1127f2cd403a315f,,,,,,,,,,,,,,,,,,,,,,,,,,,,,,,,,,,,,,,,,,,,,,,,,,,,,,,,,,,,,,,,,,,,,,,,,,,,,,,,,,,,,,,,,,,,,,,,,,,,,,,,,,,,,,,,,,,,,,,,,,,,,,,,,,,,,,,,,,,,,,,,,,,,,,,,,,,,,,,,,,,
0,3,3,57,1,,60b644e05d894519db62a451,62c538b4b7d37a19065d9650,2022-07-06_09h25.15.978,Colour_Asymmetry_Pilot,2022.1.3,Win32,60.01680471,62c50e9c1127f2cd403a315f,,,,,,,,,,,,,,,,,,,,,,,,,,,,,,,,,,,,,,,,,,,,,,,,,,,,,,,,,,,,,,,,,,,,,,,,,,,,,,,,,,,,,,,,,,,,,,,,,,,,,,,,,,,,,,,,,,,,,,,,,,,,,,,,,,,,,,,,,,,,,,,,,,,,,,,,,,,,,,,,,,,
0,4,4,10,1,,60b644e05d894519db62a451,62c538b4b7d37a19065d9650,2022-07-06_09h25.15.978,Colour_Asymmetry_Pilot,2022.1.3,Win32,60.01680471,62c50e9c1127f2cd403a315f,,,,,,,,,,,,,,,,,,,,,,,,,,,,,,,,,,,,,,,,,,,,,,,,,,,,,,,,,,,,,,,,,,,,,,,,,,,,,,,,,,,,,,,,,,,,,,,,,,,,,,,,,,,,,,,,,,,,,,,,,,,,,,,,,,,,,,,,,,,,,,,,,,,,,,,,,,,,,,,,,,,
0,5,5,81,1,,60b644e05d894519db62a451,62c538b4b7d37a19065d9650,2022-07-06_09h25.15.978,Colour_Asymmetry_Pilot,2022.1.3,Win32,60.01680471,62c50e9c1127f2cd403a315f,,,,,,,,,,,,,,,,,,,,,,,,,,,,,,,,,,,,,,,,,,,,,,,,,,,,,,,,,,,,,,,,,,,,,,,,,,,,,,,,,,,,,,,,,,,,,,,,,,,,,,,,,,,,,,,,,,,,,,,,,,,,,,,,,,,,,,,,,,,,,,,,,,,,,,,,,,,,,,,,,,,
0,6,6,73,1,,60b644e05d894519db62a451,62c538b4b7d37a19065d9650,2022-07-06_09h25.15.978,Colour_Asymmetry_Pilot,2022.1.3,Win32,60.01680471,62c50e9c1127f2cd403a315f,,,,,,,,,,,,,,,,,,,,,,,,,,,,,,,,,,,,,,,,,,,,,,,,,,,,,,,,,,,,,,,,,,,,,,,,,,,,,,,,,,,,,,,,,,,,,,,,,,,,,,,,,,,,,,,,,,,,,,,,,,,,,,,,,,,,,,,,,,,,,,,,,,,,,,,,,,,,,,,,,,,
0,7,7,30,1,,60b644e05d894519db62a451,62c538b4b7d37a19065d9650,2022-07-06_09h25.15.978,Colour_Asymmetry_Pilot,2022.1.3,Win32,60.01680471,62c50e9c1127f2cd403a315f,,,,,,,,,,,,,,,,,,,,,,,,,,,,,,,,,,,,,,,,,,,,,,,,,,,,,,,,,,,,,,,,,,,,,,,,,,,,,,,,,,,,,,,,,,,,,,,,,,,,,,,,,,,,,,,,,,,,,,,,,,,,,,,,,,,,,,,,,,,,,,,,,,,,,,,,,,,,,,,,,,,
0,8,8,19,1,,60b644e05d894519db62a451,62c538b4b7d37a19065d9650,2022-07-06_09h25.15.978,Colour_Asymmetry_Pilot,2022.1.3,Win32,60.01680471,62c50e9c1127f2cd403a315f,,,,,,,,,,,,,,,,,,,,,,,,,,,,,,,,,,,,,,,,,,,,,,,,,,,,,,,,,,,,,,,,,,,,,,,,,,,,,,,,,,,,,,,,,,,,,,,,,,,,,,,,,,,,,,,,,,,,,,,,,,,,,,,,,,,,,,,,,,,,,,,,,,,,,,,,,,,,,,,,,,,
0,9,9,52,1,,60b644e05d894519db62a451,62c538b4b7d37a19065d9650,2022-07-06_09h25.15.978,Colour_Asymmetry_Pilot,2022.1.3,Win32,60.01680471,62c50e9c1127f2cd403a315f,,,,,,,,,,,,,,,,,,,,,,,,,,,,,,,,,,,,,,,,,,,,,,,,,,,,,,,,,,,,,,,,,,,,,,,,,,,,,,,,,,,,,,,,,,,,,,,,,,,,,,,,,,,,,,,,,,,,,,,,,,,,,,,,,,,,,,,,,,,,,,,,,,,,,,,,,,,,,,,,,,,
0,10,10,61,1,,60b644e05d894519db62a451,62c538b4b7d37a19065d9650,2022-07-06_09h25.15.978,Colour_Asymmetry_Pilot,2022.1.3,Win32,60.01680471,62c50e9c1127f2cd403a315f,,,,,,,,,,,,,,,,,,,,,,,,,,,,,,,,,,,,,,,,,,,,,,,,,,,,,,,,,,,,,,,,,,,,,,,,,,,,,,,,,,,,,,,,,,,,,,,,,,,,,,,,,,,,,,,,,,,,,,,,,,,,,,,,,,,,,,,,,,,,,,,,,,,,,,,,,,,,,,,,,,,
0,11,11,9,1,,60b644e05d894519db62a451,62c538b4b7d37a19065d9650,2022-07-06_09h25.15.978,Colour_Asymmetry_Pilot,2022.1.3,Win32,60.01680471,62c50e9c1127f2cd403a315f,,,,,,,,,,,,,,,,,,,,,,,,,,,,,,,,,,,,,,,,,,,,,,,,,,,,,,,,,,,,,,,,,,,,,,,,,,,,,,,,,,,,,,,,,,,,,,,,,,,,,,,,,,,,,,,,,,,,,,,,,,,,,,,,,,,,,,,,,,,,,,,,,,,,,,,,,,,,,,,,,,,
0,12,12,23,1,,60b644e05d894519db62a451,62c538b4b7d37a19065d9650,2022-07-06_09h25.15.978,Colour_Asymmetry_Pilot,2022.1.3,Win32,60.01680471,62c50e9c1127f2cd403a315f,,,,,,,,,,,,,,,,,,,,,,,,,,,,,,,,,,,,,,,,,,,,,,,,,,,,,,,,,,,,,,,,,,,,,,,,,,,,,,,,,,,,,,,,,,,,,,,,,,,,,,,,,,,,,,,,,,,,,,,,,,,,,,,,,,,,,,,,,,,,,,,,,,,,,,,,,,,,,,,,,,,
0,13,13,86,1,,60b644e05d894519db62a451,62c538b4b7d37a19065d9650,2022-07-06_09h25.15.978,Colour_Asymmetry_Pilot,2022.1.3,Win32,60.01680471,62c50e9c1127f2cd403a315f,,,,,,,,,,,,,,,,,,,,,,,,,,,,,,,,,,,,,,,,,,,,,,,,,,,,,,,,,,,,,,,,,,,,,,,,,,,,,,,,,,,,,,,,,,,,,,,,,,,,,,,,,,,,,,,,,,,,,,,,,,,,,,,,,,,,,,,,,,,,,,,,,,,,,,,,,,,,,,,,,,,
0,14,14,38,1,,60b644e05d894519db62a451,62c538b4b7d37a19065d9650,2022-07-06_09h25.15.978,Colour_Asymmetry_Pilot,2022.1.3,Win32,60.01680471,62c50e9c1127f2cd403a315f,,,,,,,,,,,,,,,,,,,,,,,,,,,,,,,,,,,,,,,,,,,,,,,,,,,,,,,,,,,,,,,,,,,,,,,,,,,,,,,,,,,,,,,,,,,,,,,,,,,,,,,,,,,,,,,,,,,,,,,,,,,,,,,,,,,,,,,,,,,,,,,,,,,,,,,,,,,,,,,,,,,
0,15,15,56,1,,60b644e05d894519db62a451,62c538b4b7d37a19065d9650,2022-07-06_09h25.15.978,Colour_Asymmetry_Pilot,2022.1.3,Win32,60.01680471,62c50e9c1127f2cd403a315f,,,,,,,,,,,,,,,,,,,,,,,,,,,,,,,,,,,,,,,,,,,,,,,,,,,,,,,,,,,,,,,,,,,,,,,,,,,,,,,,,,,,,,,,,,,,,,,,,,,,,,,,,,,,,,,,,,,,,,,,,,,,,,,,,,,,,,,,,,,,,,,,,,,,,,,,,,,,,,,,,,,
0,16,16,82,1,,60b644e05d894519db62a451,62c538b4b7d37a19065d9650,2022-07-06_09h25.15.978,Colour_Asymmetry_Pilot,2022.1.3,Win32,60.01680471,62c50e9c1127f2cd403a315f,,,,,,,,,,,,,,,,,,,,,,,,,,,,,,,,,,,,,,,,,,,,,,,,,,,,,,,,,,,,,,,,,,,,,,,,,,,,,,,,,,,,,,,,,,,,,,,,,,,,,,,,,,,,,,,,,,,,,,,,,,,,,,,,,,,,,,,,,,,,,,,,,,,,,,,,,,,,,,,,,,,
0,17,17,0,1,,60b644e05d894519db62a451,62c538b4b7d37a19065d9650,2022-07-06_09h25.15.978,Colour_Asymmetry_Pilot,2022.1.3,Win32,60.01680471,62c50e9c1127f2cd403a315f,,,,,,,,,,,,,,,,,,,,,,,,,,,,,,,,,,,,,,,,,,,,,,,,,,,,,,,,,,,,,,,,,,,,,,,,,,,,,,,,,,,,,,,,,,,,,,,,,,,,,,,,,,,,,,,,,,,,,,,,,,,,,,,,,,,,,,,,,,,,,,,,,,,,,,,,,,,,,,,,,,,
0,18,18,84,1,,60b644e05d894519db62a451,62c538b4b7d37a19065d9650,2022-07-06_09h25.15.978,Colour_Asymmetry_Pilot,2022.1.3,Win32,60.01680471,62c50e9c1127f2cd403a315f,,,,,,,,,,,,,,,,,,,,,,,,,,,,,,,,,,,,,,,,,,,,,,,,,,,,,,,,,,,,,,,,,,,,,,,,,,,,,,,,,,,,,,,,,,,,,,,,,,,,,,,,,,,,,,,,,,,,,,,,,,,,,,,,,,,,,,,,,,,,,,,,,,,,,,,,,,,,,,,,,,,
0,19,19,54,1,,60b644e05d894519db62a451,62c538b4b7d37a19065d9650,2022-07-06_09h25.15.978,Colour_Asymmetry_Pilot,2022.1.3,Win32,60.01680471,62c50e9c1127f2cd403a315f,,,,,,,,,,,,,,,,,,,,,,,,,,,,,,,,,,,,,,,,,,,,,,,,,,,,,,,,,,,,,,,,,,,,,,,,,,,,,,,,,,,,,,,,,,,,,,,,,,,,,,,,,,,,,,,,,,,,,,,,,,,,,,,,,,,,,,,,,,,,,,,,,,,,,,,,,,,,,,,,,,,
0,20,20,83,1,,60b644e05d894519db62a451,62c538b4b7d37a19065d9650,2022-07-06_09h25.15.978,Colour_Asymmetry_Pilot,2022.1.3,Win32,60.01680471,62c50e9c1127f2cd403a315f,,,,,,,,,,,,,,,,,,,,,,,,,,,,,,,,,,,,,,,,,,,,,,,,,,,,,,,,,,,,,,,,,,,,,,,,,,,,,,,,,,,,,,,,,,,,,,,,,,,,,,,,,,,,,,,,,,,,,,,,,,,,,,,,,,,,,,,,,,,,,,,,,,,,,,,,,,,,,,,,,,,
0,21,21,6,1,,60b644e05d894519db62a451,62c538b4b7d37a19065d9650,2022-07-06_09h25.15.978,Colour_Asymmetry_Pilot,2022.1.3,Win32,60.01680471,62c50e9c1127f2cd403a315f,,,,,,,,,,,,,,,,,,,,,,,,,,,,,,,,,,,,,,,,,,,,,,,,,,,,,,,,,,,,,,,,,,,,,,,,,,,,,,,,,,,,,,,,,,,,,,,,,,,,,,,,,,,,,,,,,,,,,,,,,,,,,,,,,,,,,,,,,,,,,,,,,,,,,,,,,,,,,,,,,,,
0,22,22,48,1,,60b644e05d894519db62a451,62c538b4b7d37a19065d9650,2022-07-06_09h25.15.978,Colour_Asymmetry_Pilot,2022.1.3,Win32,60.01680471,62c50e9c1127f2cd403a315f,,,,,,,,,,,,,,,,,,,,,,,,,,,,,,,,,,,,,,,,,,,,,,,,,,,,,,,,,,,,,,,,,,,,,,,,,,,,,,,,,,,,,,,,,,,,,,,,,,,,,,,,,,,,,,,,,,,,,,,,,,,,,,,,,,,,,,,,,,,,,,,,,,,,,,,,,,,,,,,,,,,
0,23,23,34,1,,60b644e05d894519db62a451,62c538b4b7d37a19065d9650,2022-07-06_09h25.15.978,Colour_Asymmetry_Pilot,2022.1.3,Win32,60.01680471,62c50e9c1127f2cd403a315f,,,,,,,,,,,,,,,,,,,,,,,,,,,,,,,,,,,,,,,,,,,,,,,,,,,,,,,,,,,,,,,,,,,,,,,,,,,,,,,,,,,,,,,,,,,,,,,,,,,,,,,,,,,,,,,,,,,,,,,,,,,,,,,,,,,,,,,,,,,,,,,,,,,,,,,,,,,,,,,,,,,
0,24,24,88,1,,60b644e05d894519db62a451,62c538b4b7d37a19065d9650,2022-07-06_09h25.15.978,Colour_Asymmetry_Pilot,2022.1.3,Win32,60.01680471,62c50e9c1127f2cd403a315f,,,,,,,,,,,,,,,,,,,,,,,,,,,,,,,,,,,,,,,,,,,,,,,,,,,,,,,,,,,,,,,,,,,,,,,,,,,,,,,,,,,,,,,,,,,,,,,,,,,,,,,,,,,,,,,,,,,,,,,,,,,,,,,,,,,,,,,,,,,,,,,,,,,,,,,,,,,,,,,,,,,
0,25,25,72,1,,60b644e05d894519db62a451,62c538b4b7d37a19065d9650,2022-07-06_09h25.15.978,Colour_Asymmetry_Pilot,2022.1.3,Win32,60.01680471,62c50e9c1127f2cd403a315f,,,,,,,,,,,,,,,,,,,,,,,,,,,,,,,,,,,,,,,,,,,,,,,,,,,,,,,,,,,,,,,,,,,,,,,,,,,,,,,,,,,,,,,,,,,,,,,,,,,,,,,,,,,,,,,,,,,,,,,,,,,,,,,,,,,,,,,,,,,,,,,,,,,,,,,,,,,,,,,,,,,
0,26,26,62,1,,60b644e05d894519db62a451,62c538b4b7d37a19065d9650,2022-07-06_09h25.15.978,Colour_Asymmetry_Pilot,2022.1.3,Win32,60.01680471,62c50e9c1127f2cd403a315f,,,,,,,,,,,,,,,,,,,,,,,,,,,,,,,,,,,,,,,,,,,,,,,,,,,,,,,,,,,,,,,,,,,,,,,,,,,,,,,,,,,,,,,,,,,,,,,,,,,,,,,,,,,,,,,,,,,,,,,,,,,,,,,,,,,,,,,,,,,,,,,,,,,,,,,,,,,,,,,,,,,
0,27,27,21,1,,60b644e05d894519db62a451,62c538b4b7d37a19065d9650,2022-07-06_09h25.15.978,Colour_Asymmetry_Pilot,2022.1.3,Win32,60.01680471,62c50e9c1127f2cd403a315f,,,,,,,,,,,,,,,,,,,,,,,,,,,,,,,,,,,,,,,,,,,,,,,,,,,,,,,,,,,,,,,,,,,,,,,,,,,,,,,,,,,,,,,,,,,,,,,,,,,,,,,,,,,,,,,,,,,,,,,,,,,,,,,,,,,,,,,,,,,,,,,,,,,,,,,,,,,,,,,,,,,
0,28,28,7,1,,60b644e05d894519db62a451,62c538b4b7d37a19065d9650,2022-07-06_09h25.15.978,Colour_Asymmetry_Pilot,2022.1.3,Win32,60.01680471,62c50e9c1127f2cd403a315f,,,,,,,,,,,,,,,,,,,,,,,,,,,,,,,,,,,,,,,,,,,,,,,,,,,,,,,,,,,,,,,,,,,,,,,,,,,,,,,,,,,,,,,,,,,,,,,,,,,,,,,,,,,,,,,,,,,,,,,,,,,,,,,,,,,,,,,,,,,,,,,,,,,,,,,,,,,,,,,,,,,
0,29,29,74,1,,60b644e05d894519db62a451,62c538b4b7d37a19065d9650,2022-07-06_09h25.15.978,Colour_Asymmetry_Pilot,2022.1.3,Win32,60.01680471,62c50e9c1127f2cd403a315f,,,,,,,,,,,,,,,,,,,,,,,,,,,,,,,,,,,,,,,,,,,,,,,,,,,,,,,,,,,,,,,,,,,,,,,,,,,,,,,,,,,,,,,,,,,,,,,,,,,,,,,,,,,,,,,,,,,,,,,,,,,,,,,,,,,,,,,,,,,,,,,,,,,,,,,,,,,,,,,,,,,
0,30,30,11,1,,60b644e05d894519db62a451,62c538b4b7d37a19065d9650,2022-07-06_09h25.15.978,Colour_Asymmetry_Pilot,2022.1.3,Win32,60.01680471,62c50e9c1127f2cd403a315f,,,,,,,,,,,,,,,,,,,,,,,,,,,,,,,,,,,,,,,,,,,,,,,,,,,,,,,,,,,,,,,,,,,,,,,,,,,,,,,,,,,,,,,,,,,,,,,,,,,,,,,,,,,,,,,,,,,,,,,,,,,,,,,,,,,,,,,,,,,,,,,,,,,,,,,,,,,,,,,,,,,
0,31,31,22,1,,60b644e05d894519db62a451,62c538b4b7d37a19065d9650,2022-07-06_09h25.15.978,Colour_Asymmetry_Pilot,2022.1.3,Win32,60.01680471,62c50e9c1127f2cd403a315f,,,,,,,,,,,,,,,,,,,,,,,,,,,,,,,,,,,,,,,,,,,,,,,,,,,,,,,,,,,,,,,,,,,,,,,,,,,,,,,,,,,,,,,,,,,,,,,,,,,,,,,,,,,,,,,,,,,,,,,,,,,,,,,,,,,,,,,,,,,,,,,,,,,,,,,,,,,,,,,,,,,
0,32,32,90,1,,60b644e05d894519db62a451,62c538b4b7d37a19065d9650,2022-07-06_09h25.15.978,Colour_Asymmetry_Pilot,2022.1.3,Win32,60.01680471,62c50e9c1127f2cd403a315f,,,,,,,,,,,,,,,,,,,,,,,,,,,,,,,,,,,,,,,,,,,,,,,,,,,,,,,,,,,,,,,,,,,,,,,,,,,,,,,,,,,,,,,,,,,,,,,,,,,,,,,,,,,,,,,,,,,,,,,,,,,,,,,,,,,,,,,,,,,,,,,,,,,,,,,,,,,,,,,,,,,
0,33,33,67,1,,60b644e05d894519db62a451,62c538b4b7d37a19065d9650,2022-07-06_09h25.15.978,Colour_Asymmetry_Pilot,2022.1.3,Win32,60.01680471,62c50e9c1127f2cd403a315f,,,,,,,,,,,,,,,,,,,,,,,,,,,,,,,,,,,,,,,,,,,,,,,,,,,,,,,,,,,,,,,,,,,,,,,,,,,,,,,,,,,,,,,,,,,,,,,,,,,,,,,,,,,,,,,,,,,,,,,,,,,,,,,,,,,,,,,,,,,,,,,,,,,,,,,,,,,,,,,,,,,
0,34,34,64,1,,60b644e05d894519db62a451,62c538b4b7d37a19065d9650,2022-07-06_09h25.15.978,Colour_Asymmetry_Pilot,2022.1.3,Win32,60.01680471,62c50e9c1127f2cd403a315f,,,,,,,,,,,,,,,,,,,,,,,,,,,,,,,,,,,,,,,,,,,,,,,,,,,,,,,,,,,,,,,,,,,,,,,,,,,,,,,,,,,,,,,,,,,,,,,,,,,,,,,,,,,,,,,,,,,,,,,,,,,,,,,,,,,,,,,,,,,,,,,,,,,,,,,,,,,,,,,,,,,
0,35,35,59,1,,60b644e05d894519db62a451,62c538b4b7d37a19065d9650,2022-07-06_09h25.15.978,Colour_Asymmetry_Pilot,2022.1.3,Win32,60.01680471,62c50e9c1127f2cd403a315f,,,,,,,,,,,,,,,,,,,,,,,,,,,,,,,,,,,,,,,,,,,,,,,,,,,,,,,,,,,,,,,,,,,,,,,,,,,,,,,,,,,,,,,,,,,,,,,,,,,,,,,,,,,,,,,,,,,,,,,,,,,,,,,,,,,,,,,,,,,,,,,,,,,,,,,,,,,,,,,,,,,
0,36,36,65,1,,60b644e05d894519db62a451,62c538b4b7d37a19065d9650,2022-07-06_09h25.15.978,Colour_Asymmetry_Pilot,2022.1.3,Win32,60.01680471,62c50e9c1127f2cd403a315f,,,,,,,,,,,,,,,,,,,,,,,,,,,,,,,,,,,,,,,,,,,,,,,,,,,,,,,,,,,,,,,,,,,,,,,,,,,,,,,,,,,,,,,,,,,,,,,,,,,,,,,,,,,,,,,,,,,,,,,,,,,,,,,,,,,,,,,,,,,,,,,,,,,,,,,,,,,,,,,,,,,
0,37,37,69,1,,60b644e05d894519db62a451,62c538b4b7d37a19065d9650,2022-07-06_09h25.15.978,Colour_Asymmetry_Pilot,2022.1.3,Win32,60.01680471,62c50e9c1127f2cd403a315f,,,,,,,,,,,,,,,,,,,,,,,,,,,,,,,,,,,,,,,,,,,,,,,,,,,,,,,,,,,,,,,,,,,,,,,,,,,,,,,,,,,,,,,,,,,,,,,,,,,,,,,,,,,,,,,,,,,,,,,,,,,,,,,,,,,,,,,,,,,,,,,,,,,,,,,,,,,,,,,,,,,
0,38,38,49,1,,60b644e05d894519db62a451,62c538b4b7d37a19065d9650,2022-07-06_09h25.15.978,Colour_Asymmetry_Pilot,2022.1.3,Win32,60.01680471,62c50e9c1127f2cd403a315f,,,,,,,,,,,,,,,,,,,,,,,,,,,,,,,,,,,,,,,,,,,,,,,,,,,,,,,,,,,,,,,,,,,,,,,,,,,,,,,,,,,,,,,,,,,,,,,,,,,,,,,,,,,,,,,,,,,,,,,,,,,,,,,,,,,,,,,,,,,,,,,,,,,,,,,,,,,,,,,,,,,
0,39,39,16,1,,60b644e05d894519db62a451,62c538b4b7d37a19065d9650,2022-07-06_09h25.15.978,Colour_Asymmetry_Pilot,2022.1.3,Win32,60.01680471,62c50e9c1127f2cd403a315f,,,,,,,,,,,,,,,,,,,,,,,,,,,,,,,,,,,,,,,,,,,,,,,,,,,,,,,,,,,,,,,,,,,,,,,,,,,,,,,,,,,,,,,,,,,,,,,,,,,,,,,,,,,,,,,,,,,,,,,,,,,,,,,,,,,,,,,,,,,,,,,,,,,,,,,,,,,,,,,,,,,
0,40,40,20,1,,60b644e05d894519db62a451,62c538b4b7d37a19065d9650,2022-07-06_09h25.15.978,Colour_Asymmetry_Pilot,2022.1.3,Win32,60.01680471,62c50e9c1127f2cd403a315f,,,,,,,,,,,,,,,,,,,,,,,,,,,,,,,,,,,,,,,,,,,,,,,,,,,,,,,,,,,,,,,,,,,,,,,,,,,,,,,,,,,,,,,,,,,,,,,,,,,,,,,,,,,,,,,,,,,,,,,,,,,,,,,,,,,,,,,,,,,,,,,,,,,,,,,,,,,,,,,,,,,
0,41,41,92,1,,60b644e05d894519db62a451,62c538b4b7d37a19065d9650,2022-07-06_09h25.15.978,Colour_Asymmetry_Pilot,2022.1.3,Win32,60.01680471,62c50e9c1127f2cd403a315f,,,,,,,,,,,,,,,,,,,,,,,,,,,,,,,,,,,,,,,,,,,,,,,,,,,,,,,,,,,,,,,,,,,,,,,,,,,,,,,,,,,,,,,,,,,,,,,,,,,,,,,,,,,,,,,,,,,,,,,,,,,,,,,,,,,,,,,,,,,,,,,,,,,,,,,,,,,,,,,,,,,
0,42,42,45,1,,60b644e05d894519db62a451,62c538b4b7d37a19065d9650,2022-07-06_09h25.15.978,Colour_Asymmetry_Pilot,2022.1.3,Win32,60.01680471,62c50e9c1127f2cd403a315f,,,,,,,,,,,,,,,,,,,,,,,,,,,,,,,,,,,,,,,,,,,,,,,,,,,,,,,,,,,,,,,,,,,,,,,,,,,,,,,,,,,,,,,,,,,,,,,,,,,,,,,,,,,,,,,,,,,,,,,,,,,,,,,,,,,,,,,,,,,,,,,,,,,,,,,,,,,,,,,,,,,
0,43,43,66,1,,60b644e05d894519db62a451,62c538b4b7d37a19065d9650,2022-07-06_09h25.15.978,Colour_Asymmetry_Pilot,2022.1.3,Win32,60.01680471,62c50e9c1127f2cd403a315f,,,,,,,,,,,,,,,,,,,,,,,,,,,,,,,,,,,,,,,,,,,,,,,,,,,,,,,,,,,,,,,,,,,,,,,,,,,,,,,,,,,,,,,,,,,,,,,,,,,,,,,,,,,,,,,,,,,,,,,,,,,,,,,,,,,,,,,,,,,,,,,,,,,,,,,,,,,,,,,,,,,
0,44,44,41,1,,60b644e05d894519db62a451,62c538b4b7d37a19065d9650,2022-07-06_09h25.15.978,Colour_Asymmetry_Pilot,2022.1.3,Win32,60.01680471,62c50e9c1127f2cd403a315f,,,,,,,,,,,,,,,,,,,,,,,,,,,,,,,,,,,,,,,,,,,,,,,,,,,,,,,,,,,,,,,,,,,,,,,,,,,,,,,,,,,,,,,,,,,,,,,,,,,,,,,,,,,,,,,,,,,,,,,,,,,,,,,,,,,,,,,,,,,,,,,,,,,,,,,,,,,,,,,,,,,
0,45,45,13,1,,60b644e05d894519db62a451,62c538b4b7d37a19065d9650,2022-07-06_09h25.15.978,Colour_Asymmetry_Pilot,2022.1.3,Win32,60.01680471,62c50e9c1127f2cd403a315f,,,,,,,,,,,,,,,,,,,,,,,,,,,,,,,,,,,,,,,,,,,,,,,,,,,,,,,,,,,,,,,,,,,,,,,,,,,,,,,,,,,,,,,,,,,,,,,,,,,,,,,,,,,,,,,,,,,,,,,,,,,,,,,,,,,,,,,,,,,,,,,,,,,,,,,,,,,,,,,,,,,
0,46,46,47,1,,60b644e05d894519db62a451,62c538b4b7d37a19065d9650,2022-07-06_09h25.15.978,Colour_Asymmetry_Pilot,2022.1.3,Win32,60.01680471,62c50e9c1127f2cd403a315f,,,,,,,,,,,,,,,,,,,,,,,,,,,,,,,,,,,,,,,,,,,,,,,,,,,,,,,,,,,,,,,,,,,,,,,,,,,,,,,,,,,,,,,,,,,,,,,,,,,,,,,,,,,,,,,,,,,,,,,,,,,,,,,,,,,,,,,,,,,,,,,,,,,,,,,,,,,,,,,,,,,
0,47,47,55,1,,60b644e05d894519db62a451,62c538b4b7d37a19065d9650,2022-07-06_09h25.15.978,Colour_Asymmetry_Pilot,2022.1.3,Win32,60.01680471,62c50e9c1127f2cd403a315f,,,,,,,,,,,,,,,,,,,,,,,,,,,,,,,,,,,,,,,,,,,,,,,,,,,,,,,,,,,,,,,,,,,,,,,,,,,,,,,,,,,,,,,,,,,,,,,,,,,,,,,,,,,,,,,,,,,,,,,,,,,,,,,,,,,,,,,,,,,,,,,,,,,,,,,,,,,,,,,,,,,
0,48,48,4,1,,60b644e05d894519db62a451,62c538b4b7d37a19065d9650,2022-07-06_09h25.15.978,Colour_Asymmetry_Pilot,2022.1.3,Win32,60.01680471,62c50e9c1127f2cd403a315f,,,,,,,,,,,,,,,,,,,,,,,,,,,,,,,,,,,,,,,,,,,,,,,,,,,,,,,,,,,,,,,,,,,,,,,,,,,,,,,,,,,,,,,,,,,,,,,,,,,,,,,,,,,,,,,,,,,,,,,,,,,,,,,,,,,,,,,,,,,,,,,,,,,,,,,,,,,,,,,,,,,
0,49,49,60,1,,60b644e05d894519db62a451,62c538b4b7d37a19065d9650,2022-07-06_09h25.15.978,Colour_Asymmetry_Pilot,2022.1.3,Win32,60.01680471,62c50e9c1127f2cd403a315f,,,,,,,,,,,,,,,,,,,,,,,,,,,,,,,,,,,,,,,,,,,,,,,,,,,,,,,,,,,,,,,,,,,,,,,,,,,,,,,,,,,,,,,,,,,,,,,,,,,,,,,,,,,,,,,,,,,,,,,,,,,,,,,,,,,,,,,,,,,,,,,,,,,,,,,,,,,,,,,,,,,
0,50,50,68,1,,60b644e05d894519db62a451,62c538b4b7d37a19065d9650,2022-07-06_09h25.15.978,Colour_Asymmetry_Pilot,2022.1.3,Win32,60.01680471,62c50e9c1127f2cd403a315f,,,,,,,,,,,,,,,,,,,,,,,,,,,,,,,,,,,,,,,,,,,,,,,,,,,,,,,,,,,,,,,,,,,,,,,,,,,,,,,,,,,,,,,,,,,,,,,,,,,,,,,,,,,,,,,,,,,,,,,,,,,,,,,,,,,,,,,,,,,,,,,,,,,,,,,,,,,,,,,,,,,
0,51,51,79,1,,60b644e05d894519db62a451,62c538b4b7d37a19065d9650,2022-07-06_09h25.15.978,Colour_Asymmetry_Pilot,2022.1.3,Win32,60.01680471,62c50e9c1127f2cd403a315f,,,,,,,,,,,,,,,,,,,,,,,,,,,,,,,,,,,,,,,,,,,,,,,,,,,,,,,,,,,,,,,,,,,,,,,,,,,,,,,,,,,,,,,,,,,,,,,,,,,,,,,,,,,,,,,,,,,,,,,,,,,,,,,,,,,,,,,,,,,,,,,,,,,,,,,,,,,,,,,,,,,
0,52,52,18,1,,60b644e05d894519db62a451,62c538b4b7d37a19065d9650,2022-07-06_09h25.15.978,Colour_Asymmetry_Pilot,2022.1.3,Win32,60.01680471,62c50e9c1127f2cd403a315f,,,,,,,,,,,,,,,,,,,,,,,,,,,,,,,,,,,,,,,,,,,,,,,,,,,,,,,,,,,,,,,,,,,,,,,,,,,,,,,,,,,,,,,,,,,,,,,,,,,,,,,,,,,,,,,,,,,,,,,,,,,,,,,,,,,,,,,,,,,,,,,,,,,,,,,,,,,,,,,,,,,
0,53,53,70,1,,60b644e05d894519db62a451,62c538b4b7d37a19065d9650,2022-07-06_09h25.15.978,Colour_Asymmetry_Pilot,2022.1.3,Win32,60.01680471,62c50e9c1127f2cd403a315f,,,,,,,,,,,,,,,,,,,,,,,,,,,,,,,,,,,,,,,,,,,,,,,,,,,,,,,,,,,,,,,,,,,,,,,,,,,,,,,,,,,,,,,,,,,,,,,,,,,,,,,,,,,,,,,,,,,,,,,,,,,,,,,,,,,,,,,,,,,,,,,,,,,,,,,,,,,,,,,,,,,
0,54,54,28,1,,60b644e05d894519db62a451,62c538b4b7d37a19065d9650,2022-07-06_09h25.15.978,Colour_Asymmetry_Pilot,2022.1.3,Win32,60.01680471,62c50e9c1127f2cd403a315f,,,,,,,,,,,,,,,,,,,,,,,,,,,,,,,,,,,,,,,,,,,,,,,,,,,,,,,,,,,,,,,,,,,,,,,,,,,,,,,,,,,,,,,,,,,,,,,,,,,,,,,,,,,,,,,,,,,,,,,,,,,,,,,,,,,,,,,,,,,,,,,,,,,,,,,,,,,,,,,,,,,
0,55,55,12,1,,60b644e05d894519db62a451,62c538b4b7d37a19065d9650,2022-07-06_09h25.15.978,Colour_Asymmetry_Pilot,2022.1.3,Win32,60.01680471,62c50e9c1127f2cd403a315f,,,,,,,,,,,,,,,,,,,,,,,,,,,,,,,,,,,,,,,,,,,,,,,,,,,,,,,,,,,,,,,,,,,,,,,,,,,,,,,,,,,,,,,,,,,,,,,,,,,,,,,,,,,,,,,,,,,,,,,,,,,,,,,,,,,,,,,,,,,,,,,,,,,,,,,,,,,,,,,,,,,
0,56,56,77,1,,60b644e05d894519db62a451,62c538b4b7d37a19065d9650,2022-07-06_09h25.15.978,Colour_Asymmetry_Pilot,2022.1.3,Win32,60.01680471,62c50e9c1127f2cd403a315f,,,,,,,,,,,,,,,,,,,,,,,,,,,,,,,,,,,,,,,,,,,,,,,,,,,,,,,,,,,,,,,,,,,,,,,,,,,,,,,,,,,,,,,,,,,,,,,,,,,,,,,,,,,,,,,,,,,,,,,,,,,,,,,,,,,,,,,,,,,,,,,,,,,,,,,,,,,,,,,,,,,
0,57,57,87,1,,60b644e05d894519db62a451,62c538b4b7d37a19065d9650,2022-07-06_09h25.15.978,Colour_Asymmetry_Pilot,2022.1.3,Win32,60.01680471,62c50e9c1127f2cd403a315f,,,,,,,,,,,,,,,,,,,,,,,,,,,,,,,,,,,,,,,,,,,,,,,,,,,,,,,,,,,,,,,,,,,,,,,,,,,,,,,,,,,,,,,,,,,,,,,,,,,,,,,,,,,,,,,,,,,,,,,,,,,,,,,,,,,,,,,,,,,,,,,,,,,,,,,,,,,,,,,,,,,
0,58,58,91,1,,60b644e05d894519db62a451,62c538b4b7d37a19065d9650,2022-07-06_09h25.15.978,Colour_Asymmetry_Pilot,2022.1.3,Win32,60.01680471,62c50e9c1127f2cd403a315f,,,,,,,,,,,,,,,,,,,,,,,,,,,,,,,,,,,,,,,,,,,,,,,,,,,,,,,,,,,,,,,,,,,,,,,,,,,,,,,,,,,,,,,,,,,,,,,,,,,,,,,,,,,,,,,,,,,,,,,,,,,,,,,,,,,,,,,,,,,,,,,,,,,,,,,,,,,,,,,,,,,
0,59,59,2,1,,60b644e05d894519db62a451,62c538b4b7d37a19065d9650,2022-07-06_09h25.15.978,Colour_Asymmetry_Pilot,2022.1.3,Win32,60.01680471,62c50e9c1127f2cd403a315f,,,,,,,,,,,,,,,,,,,,,,,,,,,,,,,,,,,,,,,,,,,,,,,,,,,,,,,,,,,,,,,,,,,,,,,,,,,,,,,,,,,,,,,,,,,,,,,,,,,,,,,,,,,,,,,,,,,,,,,,,,,,,,,,,,,,,,,,,,,,,,,,,,,,,,,,,,,,,,,,,,,
0,60,60,46,1,,60b644e05d894519db62a451,62c538b4b7d37a19065d9650,2022-07-06_09h25.15.978,Colour_Asymmetry_Pilot,2022.1.3,Win32,60.01680471,62c50e9c1127f2cd403a315f,,,,,,,,,,,,,,,,,,,,,,,,,,,,,,,,,,,,,,,,,,,,,,,,,,,,,,,,,,,,,,,,,,,,,,,,,,,,,,,,,,,,,,,,,,,,,,,,,,,,,,,,,,,,,,,,,,,,,,,,,,,,,,,,,,,,,,,,,,,,,,,,,,,,,,,,,,,,,,,,,,,
0,61,61,26,1,,60b644e05d894519db62a451,62c538b4b7d37a19065d9650,2022-07-06_09h25.15.978,Colour_Asymmetry_Pilot,2022.1.3,Win32,60.01680471,62c50e9c1127f2cd403a315f,,,,,,,,,,,,,,,,,,,,,,,,,,,,,,,,,,,,,,,,,,,,,,,,,,,,,,,,,,,,,,,,,,,,,,,,,,,,,,,,,,,,,,,,,,,,,,,,,,,,,,,,,,,,,,,,,,,,,,,,,,,,,,,,,,,,,,,,,,,,,,,,,,,,,,,,,,,,,,,,,,,
0,62,62,85,1,,60b644e05d894519db62a451,62c538b4b7d37a19065d9650,2022-07-06_09h25.15.978,Colour_Asymmetry_Pilot,2022.1.3,Win32,60.01680471,62c50e9c1127f2cd403a315f,,,,,,,,,,,,,,,,,,,,,,,,,,,,,,,,,,,,,,,,,,,,,,,,,,,,,,,,,,,,,,,,,,,,,,,,,,,,,,,,,,,,,,,,,,,,,,,,,,,,,,,,,,,,,,,,,,,,,,,,,,,,,,,,,,,,,,,,,,,,,,,,,,,,,,,,,,,,,,,,,,,
0,63,63,25,1,,60b644e05d894519db62a451,62c538b4b7d37a19065d9650,2022-07-06_09h25.15.978,Colour_Asymmetry_Pilot,2022.1.3,Win32,60.01680471,62c50e9c1127f2cd403a315f,,,,,,,,,,,,,,,,,,,,,,,,,,,,,,,,,,,,,,,,,,,,,,,,,,,,,,,,,,,,,,,,,,,,,,,,,,,,,,,,,,,,,,,,,,,,,,,,,,,,,,,,,,,,,,,,,,,,,,,,,,,,,,,,,,,,,,,,,,,,,,,,,,,,,,,,,,,,,,,,,,,
0,64,64,33,1,,60b644e05d894519db62a451,62c538b4b7d37a19065d9650,2022-07-06_09h25.15.978,Colour_Asymmetry_Pilot,2022.1.3,Win32,60.01680471,62c50e9c1127f2cd403a315f,,,,,,,,,,,,,,,,,,,,,,,,,,,,,,,,,,,,,,,,,,,,,,,,,,,,,,,,,,,,,,,,,,,,,,,,,,,,,,,,,,,,,,,,,,,,,,,,,,,,,,,,,,,,,,,,,,,,,,,,,,,,,,,,,,,,,,,,,,,,,,,,,,,,,,,,,,,,,,,,,,,
0,65,65,5,1,,60b644e05d894519db62a451,62c538b4b7d37a19065d9650,2022-07-06_09h25.15.978,Colour_Asymmetry_Pilot,2022.1.3,Win32,60.01680471,62c50e9c1127f2cd403a315f,,,,,,,,,,,,,,,,,,,,,,,,,,,,,,,,,,,,,,,,,,,,,,,,,,,,,,,,,,,,,,,,,,,,,,,,,,,,,,,,,,,,,,,,,,,,,,,,,,,,,,,,,,,,,,,,,,,,,,,,,,,,,,,,,,,,,,,,,,,,,,,,,,,,,,,,,,,,,,,,,,,
0,66,66,36,1,,60b644e05d894519db62a451,62c538b4b7d37a19065d9650,2022-07-06_09h25.15.978,Colour_Asymmetry_Pilot,2022.1.3,Win32,60.01680471,62c50e9c1127f2cd403a315f,,,,,,,,,,,,,,,,,,,,,,,,,,,,,,,,,,,,,,,,,,,,,,,,,,,,,,,,,,,,,,,,,,,,,,,,,,,,,,,,,,,,,,,,,,,,,,,,,,,,,,,,,,,,,,,,,,,,,,,,,,,,,,,,,,,,,,,,,,,,,,,,,,,,,,,,,,,,,,,,,,,
0,67,67,37,1,,60b644e05d894519db62a451,62c538b4b7d37a19065d9650,2022-07-06_09h25.15.978,Colour_Asymmetry_Pilot,2022.1.3,Win32,60.01680471,62c50e9c1127f2cd403a315f,,,,,,,,,,,,,,,,,,,,,,,,,,,,,,,,,,,,,,,,,,,,,,,,,,,,,,,,,,,,,,,,,,,,,,,,,,,,,,,,,,,,,,,,,,,,,,,,,,,,,,,,,,,,,,,,,,,,,,,,,,,,,,,,,,,,,,,,,,,,,,,,,,,,,,,,,,,,,,,,,,,
0,68,68,24,1,,60b644e05d894519db62a451,62c538b4b7d37a19065d9650,2022-07-06_09h25.15.978,Colour_Asymmetry_Pilot,2022.1.3,Win32,60.01680471,62c50e9c1127f2cd403a315f,,,,,,,,,,,,,,,,,,,,,,,,,,,,,,,,,,,,,,,,,,,,,,,,,,,,,,,,,,,,,,,,,,,,,,,,,,,,,,,,,,,,,,,,,,,,,,,,,,,,,,,,,,,,,,,,,,,,,,,,,,,,,,,,,,,,,,,,,,,,,,,,,,,,,,,,,,,,,,,,,,,
0,69,69,42,1,,60b644e05d894519db62a451,62c538b4b7d37a19065d9650,2022-07-06_09h25.15.978,Colour_Asymmetry_Pilot,2022.1.3,Win32,60.01680471,62c50e9c1127f2cd403a315f,,,,,,,,,,,,,,,,,,,,,,,,,,,,,,,,,,,,,,,,,,,,,,,,,,,,,,,,,,,,,,,,,,,,,,,,,,,,,,,,,,,,,,,,,,,,,,,,,,,,,,,,,,,,,,,,,,,,,,,,,,,,,,,,,,,,,,,,,,,,,,,,,,,,,,,,,,,,,,,,,,,
0,70,70,31,1,,60b644e05d894519db62a451,62c538b4b7d37a19065d9650,2022-07-06_09h25.15.978,Colour_Asymmetry_Pilot,2022.1.3,Win32,60.01680471,62c50e9c1127f2cd403a315f,,,,,,,,,,,,,,,,,,,,,,,,,,,,,,,,,,,,,,,,,,,,,,,,,,,,,,,,,,,,,,,,,,,,,,,,,,,,,,,,,,,,,,,,,,,,,,,,,,,,,,,,,,,,,,,,,,,,,,,,,,,,,,,,,,,,,,,,,,,,,,,,,,,,,,,,,,,,,,,,,,,
0,71,71,27,1,,60b644e05d894519db62a451,62c538b4b7d37a19065d9650,2022-07-06_09h25.15.978,Colour_Asymmetry_Pilot,2022.1.3,Win32,60.01680471,62c50e9c1127f2cd403a315f,,,,,,,,,,,,,,,,,,,,,,,,,,,,,,,,,,,,,,,,,,,,,,,,,,,,,,,,,,,,,,,,,,,,,,,,,,,,,,,,,,,,,,,,,,,,,,,,,,,,,,,,,,,,,,,,,,,,,,,,,,,,,,,,,,,,,,,,,,,,,,,,,,,,,,,,,,,,,,,,,,,
0,72,72,51,1,,60b644e05d894519db62a451,62c538b4b7d37a19065d9650,2022-07-06_09h25.15.978,Colour_Asymmetry_Pilot,2022.1.3,Win32,60.01680471,62c50e9c1127f2cd403a315f,,,,,,,,,,,,,,,,,,,,,,,,,,,,,,,,,,,,,,,,,,,,,,,,,,,,,,,,,,,,,,,,,,,,,,,,,,,,,,,,,,,,,,,,,,,,,,,,,,,,,,,,,,,,,,,,,,,,,,,,,,,,,,,,,,,,,,,,,,,,,,,,,,,,,,,,,,,,,,,,,,,
0,73,73,35,1,,60b644e05d894519db62a451,62c538b4b7d37a19065d9650,2022-07-06_09h25.15.978,Colour_Asymmetry_Pilot,2022.1.3,Win32,60.01680471,62c50e9c1127f2cd403a315f,,,,,,,,,,,,,,,,,,,,,,,,,,,,,,,,,,,,,,,,,,,,,,,,,,,,,,,,,,,,,,,,,,,,,,,,,,,,,,,,,,,,,,,,,,,,,,,,,,,,,,,,,,,,,,,,,,,,,,,,,,,,,,,,,,,,,,,,,,,,,,,,,,,,,,,,,,,,,,,,,,,
0,74,74,3,1,,60b644e05d894519db62a451,62c538b4b7d37a19065d9650,2022-07-06_09h25.15.978,Colour_Asymmetry_Pilot,2022.1.3,Win32,60.01680471,62c50e9c1127f2cd403a315f,,,,,,,,,,,,,,,,,,,,,,,,,,,,,,,,,,,,,,,,,,,,,,,,,,,,,,,,,,,,,,,,,,,,,,,,,,,,,,,,,,,,,,,,,,,,,,,,,,,,,,,,,,,,,,,,,,,,,,,,,,,,,,,,,,,,,,,,,,,,,,,,,,,,,,,,,,,,,,,,,,,
0,75,75,39,1,,60b644e05d894519db62a451,62c538b4b7d37a19065d9650,2022-07-06_09h25.15.978,Colour_Asymmetry_Pilot,2022.1.3,Win32,60.01680471,62c50e9c1127f2cd403a315f,,,,,,,,,,,,,,,,,,,,,,,,,,,,,,,,,,,,,,,,,,,,,,,,,,,,,,,,,,,,,,,,,,,,,,,,,,,,,,,,,,,,,,,,,,,,,,,,,,,,,,,,,,,,,,,,,,,,,,,,,,,,,,,,,,,,,,,,,,,,,,,,,,,,,,,,,,,,,,,,,,,
0,76,76,80,1,,60b644e05d894519db62a451,62c538b4b7d37a19065d9650,2022-07-06_09h25.15.978,Colour_Asymmetry_Pilot,2022.1.3,Win32,60.01680471,62c50e9c1127f2cd403a315f,,,,,,,,,,,,,,,,,,,,,,,,,,,,,,,,,,,,,,,,,,,,,,,,,,,,,,,,,,,,,,,,,,,,,,,,,,,,,,,,,,,,,,,,,,,,,,,,,,,,,,,,,,,,,,,,,,,,,,,,,,,,,,,,,,,,,,,,,,,,,,,,,,,,,,,,,,,,,,,,,,,
0,77,77,63,1,,60b644e05d894519db62a451,62c538b4b7d37a19065d9650,2022-07-06_09h25.15.978,Colour_Asymmetry_Pilot,2022.1.3,Win32,60.01680471,62c50e9c1127f2cd403a315f,,,,,,,,,,,,,,,,,,,,,,,,,,,,,,,,,,,,,,,,,,,,,,,,,,,,,,,,,,,,,,,,,,,,,,,,,,,,,,,,,,,,,,,,,,,,,,,,,,,,,,,,,,,,,,,,,,,,,,,,,,,,,,,,,,,,,,,,,,,,,,,,,,,,,,,,,,,,,,,,,,,
0,78,78,50,1,,60b644e05d894519db62a451,62c538b4b7d37a19065d9650,2022-07-06_09h25.15.978,Colour_Asymmetry_Pilot,2022.1.3,Win32,60.01680471,62c50e9c1127f2cd403a315f,,,,,,,,,,,,,,,,,,,,,,,,,,,,,,,,,,,,,,,,,,,,,,,,,,,,,,,,,,,,,,,,,,,,,,,,,,,,,,,,,,,,,,,,,,,,,,,,,,,,,,,,,,,,,,,,,,,,,,,,,,,,,,,,,,,,,,,,,,,,,,,,,,,,,,,,,,,,,,,,,,,
0,79,79,78,1,,60b644e05d894519db62a451,62c538b4b7d37a19065d9650,2022-07-06_09h25.15.978,Colour_Asymmetry_Pilot,2022.1.3,Win32,60.01680471,62c50e9c1127f2cd403a315f,,,,,,,,,,,,,,,,,,,,,,,,,,,,,,,,,,,,,,,,,,,,,,,,,,,,,,,,,,,,,,,,,,,,,,,,,,,,,,,,,,,,,,,,,,,,,,,,,,,,,,,,,,,,,,,,,,,,,,,,,,,,,,,,,,,,,,,,,,,,,,,,,,,,,,,,,,,,,,,,,,,
0,80,80,8,1,,60b644e05d894519db62a451,62c538b4b7d37a19065d9650,2022-07-06_09h25.15.978,Colour_Asymmetry_Pilot,2022.1.3,Win32,60.01680471,62c50e9c1127f2cd403a315f,,,,,,,,,,,,,,,,,,,,,,,,,,,,,,,,,,,,,,,,,,,,,,,,,,,,,,,,,,,,,,,,,,,,,,,,,,,,,,,,,,,,,,,,,,,,,,,,,,,,,,,,,,,,,,,,,,,,,,,,,,,,,,,,,,,,,,,,,,,,,,,,,,,,,,,,,,,,,,,,,,,
0,81,81,89,1,,60b644e05d894519db62a451,62c538b4b7d37a19065d9650,2022-07-06_09h25.15.978,Colour_Asymmetry_Pilot,2022.1.3,Win32,60.01680471,62c50e9c1127f2cd403a315f,,,,,,,,,,,,,,,,,,,,,,,,,,,,,,,,,,,,,,,,,,,,,,,,,,,,,,,,,,,,,,,,,,,,,,,,,,,,,,,,,,,,,,,,,,,,,,,,,,,,,,,,,,,,,,,,,,,,,,,,,,,,,,,,,,,,,,,,,,,,,,,,,,,,,,,,,,,,,,,,,,,
0,82,82,44,1,,60b644e05d894519db62a451,62c538b4b7d37a19065d9650,2022-07-06_09h25.15.978,Colour_Asymmetry_Pilot,2022.1.3,Win32,60.01680471,62c50e9c1127f2cd403a315f,,,,,,,,,,,,,,,,,,,,,,,,,,,,,,,,,,,,,,,,,,,,,,,,,,,,,,,,,,,,,,,,,,,,,,,,,,,,,,,,,,,,,,,,,,,,,,,,,,,,,,,,,,,,,,,,,,,,,,,,,,,,,,,,,,,,,,,,,,,,,,,,,,,,,,,,,,,,,,,,,,,
0,83,83,15,1,,60b644e05d894519db62a451,62c538b4b7d37a19065d9650,2022-07-06_09h25.15.978,Colour_Asymmetry_Pilot,2022.1.3,Win32,60.01680471,62c50e9c1127f2cd403a315f,,,,,,,,,,,,,,,,,,,,,,,,,,,,,,,,,,,,,,,,,,,,,,,,,,,,,,,,,,,,,,,,,,,,,,,,,,,,,,,,,,,,,,,,,,,,,,,,,,,,,,,,,,,,,,,,,,,,,,,,,,,,,,,,,,,,,,,,,,,,,,,,,,,,,,,,,,,,,,,,,,,
0,84,84,17,1,,60b644e05d894519db62a451,62c538b4b7d37a19065d9650,2022-07-06_09h25.15.978,Colour_Asymmetry_Pilot,2022.1.3,Win32,60.01680471,62c50e9c1127f2cd403a315f,,,,,,,,,,,,,,,,,,,,,,,,,,,,,,,,,,,,,,,,,,,,,,,,,,,,,,,,,,,,,,,,,,,,,,,,,,,,,,,,,,,,,,,,,,,,,,,,,,,,,,,,,,,,,,,,,,,,,,,,,,,,,,,,,,,,,,,,,,,,,,,,,,,,,,,,,,,,,,,,,,,
0,85,85,53,1,,60b644e05d894519db62a451,62c538b4b7d37a19065d9650,2022-07-06_09h25.15.978,Colour_Asymmetry_Pilot,2022.1.3,Win32,60.01680471,62c50e9c1127f2cd403a315f,,,,,,,,,,,,,,,,,,,,,,,,,,,,,,,,,,,,,,,,,,,,,,,,,,,,,,,,,,,,,,,,,,,,,,,,,,,,,,,,,,,,,,,,,,,,,,,,,,,,,,,,,,,,,,,,,,,,,,,,,,,,,,,,,,,,,,,,,,,,,,,,,,,,,,,,,,,,,,,,,,,
0,86,86,32,1,,60b644e05d894519db62a451,62c538b4b7d37a19065d9650,2022-07-06_09h25.15.978,Colour_Asymmetry_Pilot,2022.1.3,Win32,60.01680471,62c50e9c1127f2cd403a315f,,,,,,,,,,,,,,,,,,,,,,,,,,,,,,,,,,,,,,,,,,,,,,,,,,,,,,,,,,,,,,,,,,,,,,,,,,,,,,,,,,,,,,,,,,,,,,,,,,,,,,,,,,,,,,,,,,,,,,,,,,,,,,,,,,,,,,,,,,,,,,,,,,,,,,,,,,,,,,,,,,,
0,87,87,14,1,,60b644e05d894519db62a451,62c538b4b7d37a19065d9650,2022-07-06_09h25.15.978,Colour_Asymmetry_Pilot,2022.1.3,Win32,60.01680471,62c50e9c1127f2cd403a315f,,,,,,,,,,,,,,,,,,,,,,,,,,,,,,,,,,,,,,,,,,,,,,,,,,,,,,,,,,,,,,,,,,,,,,,,,,,,,,,,,,,,,,,,,,,,,,,,,,,,,,,,,,,,,,,,,,,,,,,,,,,,,,,,,,,,,,,,,,,,,,,,,,,,,,,,,,,,,,,,,,,
0,88,88,75,1,,60b644e05d894519db62a451,62c538b4b7d37a19065d9650,2022-07-06_09h25.15.978,Colour_Asymmetry_Pilot,2022.1.3,Win32,60.01680471,62c50e9c1127f2cd403a315f,,,,,,,,,,,,,,,,,,,,,,,,,,,,,,,,,,,,,,,,,,,,,,,,,,,,,,,,,,,,,,,,,,,,,,,,,,,,,,,,,,,,,,,,,,,,,,,,,,,,,,,,,,,,,,,,,,,,,,,,,,,,,,,,,,,,,,,,,,,,,,,,,,,,,,,,,,,,,,,,,,,
0,89,89,1,1,,60b644e05d894519db62a451,62c538b4b7d37a19065d9650,2022-07-06_09h25.15.978,Colour_Asymmetry_Pilot,2022.1.3,Win32,60.01680471,62c50e9c1127f2cd403a315f,,,,,,,,,,,,,,,,,,,,,,,,,,,,,,,,,,,,,,,,,,,,,,,,,,,,,,,,,,,,,,,,,,,,,,,,,,,,,,,,,,,,,,,,,,,,,,,,,,,,,,,,,,,,,,,,,,,,,,,,,,,,,,,,,,,,,,,,,,,,,,,,,,,,,,,,,,,,,,,,,,,
0,90,90,40,1,,60b644e05d894519db62a451,62c538b4b7d37a19065d9650,2022-07-06_09h25.15.978,Colour_Asymmetry_Pilot,2022.1.3,Win32,60.01680471,62c50e9c1127f2cd403a315f,,,,,,,,,,,,,,,,,,,,,,,,,,,,,,,,,,,,,,,,,,,,,,,,,,,,,,,,,,,,,,,,,,,,,,,,,,,,,,,,,,,,,,,,,,,,,,,,,,,,,,,,,,,,,,,,,,,,,,,,,,,,,,,,,,,,,,,,,,,,,,,,,,,,,,,,,,,,,,,,,,,
0,91,91,71,1,,60b644e05d894519db62a451,62c538b4b7d37a19065d9650,2022-07-06_09h25.15.978,Colour_Asymmetry_Pilot,2022.1.3,Win32,60.01680471,62c50e9c1127f2cd403a315f,,,,,,,,,,,,,,,,,,,,,,,,,,,,,,,,,,,,,,,,,,,,,,,,,,,,,,,,,,,,,,,,,,,,,,,,,,,,,,,,,,,,,,,,,,,,,,,,,,,,,,,,,,,,,,,,,,,,,,,,,,,,,,,,,,,,,,,,,,,,,,,,,,,,,,,,,,,,,,,,,,,
0,92,92,43,1,,60b644e05d894519db62a451,62c538b4b7d37a19065d9650,2022-07-06_09h25.15.978,Colour_Asymmetry_Pilot,2022.1.3,Win32,60.01680471,62c50e9c1127f2cd403a315f,,,,,,,,,,,,,,,,,,,,,,,,,,,,,,,,,,,,,,,,,,,,,,,,,,,,,,,,,,,,,,,,,,,,,,,,,,,,,,,,,,,,,,,,,,,,,,,,,,,,,,,,,,,,,,,,,,,,,,,,,,,,,,,,,,,,,,,,,,,,,,,,,,,,,,,,,,,,,,,,,,,
,,,,,,60b644e05d894519db62a451,62c538b4b7d37a19065d9650,2022-07-06_09h25.15.978,Colour_Asymmetry_Pilot,2022.1.3,Win32,60.01680471,62c50e9c1127f2cd403a315f,0,0,0,84,1,threeone,,,,,,,,,,,,,,,,,,,,,,,,,,,,,,,,,,,,,,,,,,,,,,,,,,,,,,,,,,,,,,,,,,,,,,,,,,,,,,,,,,,,,,,,,,,,,,,,,,,,,,,,,,,,,,,,,,,,,,,,,,,,,,,,,,,,,,,,,,,,,,,,,,,,,,,,,,,,,
,,,,,,60b644e05d894519db62a451,62c538b4b7d37a19065d9650,2022-07-06_09h25.15.978,Colour_Asymmetry_Pilot,2022.1.3,Win32,60.01680471,62c50e9c1127f2cd403a315f,0,1,1,47,1,fourthree,,,,,,,,,,,,,,,,,,,,,,,,,,,,,,,,,,,,,,,,,,,,,,,,,,,,,,,,,,,,,,,,,,,,,,,,,,,,,,,,,,,,,,,,,,,,,,,,,,,,,,,,,,,,,,,,,,,,,,,,,,,,,,,,,,,,,,,,,,,,,,,,,,,,,,,,,,,,,
,,,,,,60b644e05d894519db62a451,62c538b4b7d37a19065d9650,2022-07-06_09h25.15.978,Colour_Asymmetry_Pilot,2022.1.3,Win32,60.01680471,62c50e9c1127f2cd403a315f,0,2,2,52,1,threeone,,,,,,,,,,,,,,,,,,,,,,,,,,,,,,,,,,,,,,,,,,,,,,,,,,,,,,,,,,,,,,,,,,,,,,,,,,,,,,,,,,,,,,,,,,,,,,,,,,,,,,,,,,,,,,,,,,,,,,,,,,,,,,,,,,,,,,,,,,,,,,,,,,,,,,,,,,,,,
,,,,,,60b644e05d894519db62a451,62c538b4b7d37a19065d9650,2022-07-06_09h25.15.978,Colour_Asymmetry_Pilot,2022.1.3,Win32,60.01680471,62c50e9c1127f2cd403a315f,0,3,3,18,1,twoone,,,,,,,,,,,,,,,,,,,,,,,,,,,,,,,,,,,,,,,,,,,,,,,,,,,,,,,,,,,,,,,,,,,,,,,,,,,,,,,,,,,,,,,,,,,,,,,,,,,,,,,,,,,,,,,,,,,,,,,,,,,,,,,,,,,,,,,,,,,,,,,,,,,,,,,,,,,,,
,,,,,,60b644e05d894519db62a451,62c538b4b7d37a19065d9650,2022-07-06_09h25.15.978,Colour_Asymmetry_Pilot,2022.1.3,Win32,60.01680471,62c50e9c1127f2cd403a315f,0,4,4,127,1,fourthree,,,,,,,,,,,,,,,,,,,,,,,,,,,,,,,,,,,,,,,,,,,,,,,,,,,,,,,,,,,,,,,,,,,,,,,,,,,,,,,,,,,,,,,,,,,,,,,,,,,,,,,,,,,,,,,,,,,,,,,,,,,,,,,,,,,,,,,,,,,,,,,,,,,,,,,,,,,,,
,,,,,,60b644e05d894519db62a451,62c538b4b7d37a19065d9650,2022-07-06_09h25.15.978,Colour_Asymmetry_Pilot,2022.1.3,Win32,60.01680471,62c50e9c1127f2cd403a315f,0,5,5,115,1,twofour,,,,,,,,,,,,,,,,,,,,,,,,,,,,,,,,,,,,,,,,,,,,,,,,,,,,,,,,,,,,,,,,,,,,,,,,,,,,,,,,,,,,,,,,,,,,,,,,,,,,,,,,,,,,,,,,,,,,,,,,,,,,,,,,,,,,,,,,,,,,,,,,,,,,,,,,,,,,,
,,,,,,60b644e05d894519db62a451,62c538b4b7d37a19065d9650,2022-07-06_09h25.15.978,Colour_Asymmetry_Pilot,2022.1.3,Win32,60.01680471,62c50e9c1127f2cd403a315f,0,6,6,152,1,onetwo,,,,,,,,,,,,,,,,,,,,,,,,,,,,,,,,,,,,,,,,,,,,,,,,,,,,,,,,,,,,,,,,,,,,,,,,,,,,,,,,,,,,,,,,,,,,,,,,,,,,,,,,,,,,,,,,,,,,,,,,,,,,,,,,,,,,,,,,,,,,,,,,,,,,,,,,,,,,,
,,,,,,60b644e05d894519db62a451,62c538b4b7d37a19065d9650,2022-07-06_09h25.15.978,Colour_Asymmetry_Pilot,2022.1.3,Win32,60.01680471,62c50e9c1127f2cd403a315f,0,7,7,91,1,twofour,,,,,,,,,,,,,,,,,,,,,,,,,,,,,,,,,,,,,,,,,,,,,,,,,,,,,,,,,,,,,,,,,,,,,,,,,,,,,,,,,,,,,,,,,,,,,,,,,,,,,,,,,,,,,,,,,,,,,,,,,,,,,,,,,,,,,,,,,,,,,,,,,,,,,,,,,,,,,
,,,,,,60b644e05d894519db62a451,62c538b4b7d37a19065d9650,2022-07-06_09h25.15.978,Colour_Asymmetry_Pilot,2022.1.3,Win32,60.01680471,62c50e9c1127f2cd403a315f,0,8,8,50,1,twoone,,,,,,,,,,,,,,,,,,,,,,,,,,,,,,,,,,,,,,,,,,,,,,,,,,,,,,,,,,,,,,,,,,,,,,,,,,,,,,,,,,,,,,,,,,,,,,,,,,,,,,,,,,,,,,,,,,,,,,,,,,,,,,,,,,,,,,,,,,,,,,,,,,,,,,,,,,,,,
,,,,,,60b644e05d894519db62a451,62c538b4b7d37a19065d9650,2022-07-06_09h25.15.978,Colour_Asymmetry_Pilot,2022.1.3,Win32,60.01680471,62c50e9c1127f2cd403a315f,0,9,9,51,1,twofour,,,,,,,,,,,,,,,,,,,,,,,,,,,,,,,,,,,,,,,,,,,,,,,,,,,,,,,,,,,,,,,,,,,,,,,,,,,,,,,,,,,,,,,,,,,,,,,,,,,,,,,,,,,,,,,,,,,,,,,,,,,,,,,,,,,,,,,,,,,,,,,,,,,,,,,,,,,,,
,,,,,,60b644e05d894519db62a451,62c538b4b7d37a19065d9650,2022-07-06_09h25.15.978,Colour_Asymmetry_Pilot,2022.1.3,Win32,60.01680471,62c50e9c1127f2cd403a315f,0,10,10,134,1,fourtwo,,,,,,,,,,,,,,,,,,,,,,,,,,,,,,,,,,,,,,,,,,,,,,,,,,,,,,,,,,,,,,,,,,,,,,,,,,,,,,,,,,,,,,,,,,,,,,,,,,,,,,,,,,,,,,,,,,,,,,,,,,,,,,,,,,,,,,,,,,,,,,,,,,,,,,,,,,,,,
,,,,,,60b644e05d894519db62a451,62c538b4b7d37a19065d9650,2022-07-06_09h25.15.978,Colour_Asymmetry_Pilot,2022.1.3,Win32,60.01680471,62c50e9c1127f2cd403a315f,0,11,11,153,1,onethree,,,,,,,,,,,,,,,,,,,,,,,,,,,,,,,,,,,,,,,,,,,,,,,,,,,,,,,,,,,,,,,,,,,,,,,,,,,,,,,,,,,,,,,,,,,,,,,,,,,,,,,,,,,,,,,,,,,,,,,,,,,,,,,,,,,,,,,,,,,,,,,,,,,,,,,,,,,,,
,,,,,,60b644e05d894519db62a451,62c538b4b7d37a19065d9650,2022-07-06_09h25.15.978,Colour_Asymmetry_Pilot,2022.1.3,Win32,60.01680471,62c50e9c1127f2cd403a315f,0,12,12,120,1,onetwo,,,,,,,,,,,,,,,,,,,,,,,,,,,,,,,,,,,,,,,,,,,,,,,,,,,,,,,,,,,,,,,,,,,,,,,,,,,,,,,,,,,,,,,,,,,,,,,,,,,,,,,,,,,,,,,,,,,,,,,,,,,,,,,,,,,,,,,,,,,,,,,,,,,,,,,,,,,,,
,,,,,,60b644e05d894519db62a451,62c538b4b7d37a19065d9650,2022-07-06_09h25.15.978,Colour_Asymmetry_Pilot,2022.1.3,Win32,60.01680471,62c50e9c1127f2cd403a315f,0,13,13,56,1,onetwo,,,,,,,,,,,,,,,,,,,,,,,,,,,,,,,,,,,,,,,,,,,,,,,,,,,,,,,,,,,,,,,,,,,,,,,,,,,,,,,,,,,,,,,,,,,,,,,,,,,,,,,,,,,,,,,,,,,,,,,,,,,,,,,,,,,,,,,,,,,,,,,,,,,,,,,,,,,,,
,,,,,,60b644e05d894519db62a451,62c538b4b7d37a19065d9650,2022-07-06_09h25.15.978,Colour_Asymmetry_Pilot,2022.1.3,Win32,60.01680471,62c50e9c1127f2cd403a315f,0,14,14,9,1,onethree,,,,,,,,,,,,,,,,,,,,,,,,,,,,,,,,,,,,,,,,,,,,,,,,,,,,,,,,,,,,,,,,,,,,,,,,,,,,,,,,,,,,,,,,,,,,,,,,,,,,,,,,,,,,,,,,,,,,,,,,,,,,,,,,,,,,,,,,,,,,,,,,,,,,,,,,,,,,,
,,,,,,60b644e05d894519db62a451,62c538b4b7d37a19065d9650,2022-07-06_09h25.15.978,Colour_Asymmetry_Pilot,2022.1.3,Win32,60.01680471,62c50e9c1127f2cd403a315f,0,15,15,44,1,threeone,,,,,,,,,,,,,,,,,,,,,,,,,,,,,,,,,,,,,,,,,,,,,,,,,,,,,,,,,,,,,,,,,,,,,,,,,,,,,,,,,,,,,,,,,,,,,,,,,,,,,,,,,,,,,,,,,,,,,,,,,,,,,,,,,,,,,,,,,,,,,,,,,,,,,,,,,,,,,
,,,,,,60b644e05d894519db62a451,62c538b4b7d37a19065d9650,2022-07-06_09h25.15.978,Colour_Asymmetry_Pilot,2022.1.3,Win32,60.01680471,62c50e9c1127f2cd403a315f,0,16,16,133,1,threefour,,,,,,,,,,,,,,,,,,,,,,,,,,,,,,,,,,,,,,,,,,,,,,,,,,,,,,,,,,,,,,,,,,,,,,,,,,,,,,,,,,,,,,,,,,,,,,,,,,,,,,,,,,,,,,,,,,,,,,,,,,,,,,,,,,,,,,,,,,,,,,,,,,,,,,,,,,,,,
,,,,,,60b644e05d894519db62a451,62c538b4b7d37a19065d9650,2022-07-06_09h25.15.978,Colour_Asymmetry_Pilot,2022.1.3,Win32,60.01680471,62c50e9c1127f2cd403a315f,0,17,17,139,1,twofour,,,,,,,,,,,,,,,,,,,,,,,,,,,,,,,,,,,,,,,,,,,,,,,,,,,,,,,,,,,,,,,,,,,,,,,,,,,,,,,,,,,,,,,,,,,,,,,,,,,,,,,,,,,,,,,,,,,,,,,,,,,,,,,,,,,,,,,,,,,,,,,,,,,,,,,,,,,,,
,,,,,,60b644e05d894519db62a451,62c538b4b7d37a19065d9650,2022-07-06_09h25.15.978,Colour_Asymmetry_Pilot,2022.1.3,Win32,60.01680471,62c50e9c1127f2cd403a315f,0,18,18,36,1,threeone,,,,,,,,,,,,,,,,,,,,,,,,,,,,,,,,,,,,,,,,,,,,,,,,,,,,,,,,,,,,,,,,,,,,,,,,,,,,,,,,,,,,,,,,,,,,,,,,,,,,,,,,,,,,,,,,,,,,,,,,,,,,,,,,,,,,,,,,,,,,,,,,,,,,,,,,,,,,,
,,,,,,60b644e05d894519db62a451,62c538b4b7d37a19065d9650,2022-07-06_09h25.15.978,Colour_Asymmetry_Pilot,2022.1.3,Win32,60.01680471,62c50e9c1127f2cd403a315f,0,19,19,41,1,onethree,,,,,,,,,,,,,,,,,,,,,,,,,,,,,,,,,,,,,,,,,,,,,,,,,,,,,,,,,,,,,,,,,,,,,,,,,,,,,,,,,,,,,,,,,,,,,,,,,,,,,,,,,,,,,,,,,,,,,,,,,,,,,,,,,,,,,,,,,,,,,,,,,,,,,,,,,,,,,
,,,,,,60b644e05d894519db62a451,62c538b4b7d37a19065d9650,2022-07-06_09h25.15.978,Colour_Asymmetry_Pilot,2022.1.3,Win32,60.01680471,62c50e9c1127f2cd403a315f,0,20,20,6,1,fourtwo,,,,,,,,,,,,,,,,,,,,,,,,,,,,,,,,,,,,,,,,,,,,,,,,,,,,,,,,,,,,,,,,,,,,,,,,,,,,,,,,,,,,,,,,,,,,,,,,,,,,,,,,,,,,,,,,,,,,,,,,,,,,,,,,,,,,,,,,,,,,,,,,,,,,,,,,,,,,,
,,,,,,60b644e05d894519db62a451,62c538b4b7d37a19065d9650,2022-07-06_09h25.15.978,Colour_Asymmetry_Pilot,2022.1.3,Win32,60.01680471,62c50e9c1127f2cd403a315f,0,21,21,20,1,threeone,,,,,,,,,,,,,,,,,,,,,,,,,,,,,,,,,,,,,,,,,,,,,,,,,,,,,,,,,,,,,,,,,,,,,,,,,,,,,,,,,,,,,,,,,,,,,,,,,,,,,,,,,,,,,,,,,,,,,,,,,,,,,,,,,,,,,,,,,,,,,,,,,,,,,,,,,,,,,
,,,,,,60b644e05d894519db62a451,62c538b4b7d37a19065d9650,2022-07-06_09h25.15.978,Colour_Asymmetry_Pilot,2022.1.3,Win32,60.01680471,62c50e9c1127f2cd403a315f,0,22,22,19,1,twofour,,,,,,,,,,,,,,,,,,,,,,,,,,,,,,,,,,,,,,,,,,,,,,,,,,,,,,,,,,,,,,,,,,,,,,,,,,,,,,,,,,,,,,,,,,,,,,,,,,,,,,,,,,,,,,,,,,,,,,,,,,,,,,,,,,,,,,,,,,,,,,,,,,,,,,,,,,,,,
,,,,,,60b644e05d894519db62a451,62c538b4b7d37a19065d9650,2022-07-06_09h25.15.978,Colour_Asymmetry_Pilot,2022.1.3,Win32,60.01680471,62c50e9c1127f2cd403a315f,0,23,23,68,1,threeone,,,,,,,,,,,,,,,,,,,,,,,,,,,,,,,,,,,,,,,,,,,,,,,,,,,,,,,,,,,,,,,,,,,,,,,,,,,,,,,,,,,,,,,,,,,,,,,,,,,,,,,,,,,,,,,,,,,,,,,,,,,,,,,,,,,,,,,,,,,,,,,,,,,,,,,,,,,,,
,,,,,,60b644e05d894519db62a451,62c538b4b7d37a19065d9650,2022-07-06_09h25.15.978,Colour_Asymmetry_Pilot,2022.1.3,Win32,60.01680471,62c50e9c1127f2cd403a315f,0,24,24,74,1,twoone,,,,,,,,,,,,,,,,,,,,,,,,,,,,,,,,,,,,,,,,,,,,,,,,,,,,,,,,,,,,,,,,,,,,,,,,,,,,,,,,,,,,,,,,,,,,,,,,,,,,,,,,,,,,,,,,,,,,,,,,,,,,,,,,,,,,,,,,,,,,,,,,,,,,,,,,,,,,,
,,,,,,60b644e05d894519db62a451,62c538b4b7d37a19065d9650,2022-07-06_09h25.15.978,Colour_Asymmetry_Pilot,2022.1.3,Win32,60.01680471,62c50e9c1127f2cd403a315f,0,25,25,27,1,twofour,,,,,,,,,,,,,,,,,,,,,,,,,,,,,,,,,,,,,,,,,,,,,,,,,,,,,,,,,,,,,,,,,,,,,,,,,,,,,,,,,,,,,,,,,,,,,,,,,,,,,,,,,,,,,,,,,,,,,,,,,,,,,,,,,,,,,,,,,,,,,,,,,,,,,,,,,,,,,
,,,,,,60b644e05d894519db62a451,62c538b4b7d37a19065d9650,2022-07-06_09h25.15.978,Colour_Asymmetry_Pilot,2022.1.3,Win32,60.01680471,62c50e9c1127f2cd403a315f,0,26,26,138,1,twoone,,,,,,,,,,,,,,,,,,,,,,,,,,,,,,,,,,,,,,,,,,,,,,,,,,,,,,,,,,,,,,,,,,,,,,,,,,,,,,,,,,,,,,,,,,,,,,,,,,,,,,,,,,,,,,,,,,,,,,,,,,,,,,,,,,,,,,,,,,,,,,,,,,,,,,,,,,,,,
,,,,,,60b644e05d894519db62a451,62c538b4b7d37a19065d9650,2022-07-06_09h25.15.978,Colour_Asymmetry_Pilot,2022.1.3,Win32,60.01680471,62c50e9c1127f2cd403a315f,0,27,27,34,1,twoone,,,,,,,,,,,,,,,,,,,,,,,,,,,,,,,,,,,,,,,,,,,,,,,,,,,,,,,,,,,,,,,,,,,,,,,,,,,,,,,,,,,,,,,,,,,,,,,,,,,,,,,,,,,,,,,,,,,,,,,,,,,,,,,,,,,,,,,,,,,,,,,,,,,,,,,,,,,,,
,,,,,,60b644e05d894519db62a451,62c538b4b7d37a19065d9650,2022-07-06_09h25.15.978,Colour_Asymmetry_Pilot,2022.1.3,Win32,60.01680471,62c50e9c1127f2cd403a315f,0,28,28,21,1,threefour,,,,,,,,,,,,,,,,,,,,,,,,,,,,,,,,,,,,,,,,,,,,,,,,,,,,,,,,,,,,,,,,,,,,,,,,,,,,,,,,,,,,,,,,,,,,,,,,,,,,,,,,,,,,,,,,,,,,,,,,,,,,,,,,,,,,,,,,,,,,,,,,,,,,,,,,,,,,,
,,,,,,60b644e05d894519db62a451,62c538b4b7d37a19065d9650,2022-07-06_09h25.15.978,Colour_Asymmetry_Pilot,2022.1.3,Win32,60.01680471,62c50e9c1127f2cd403a315f,0,29,29,148,1,threeone,,,,,,,,,,,,,,,,,,,,,,,,,,,,,,,,,,,,,,,,,,,,,,,,,,,,,,,,,,,,,,,,,,,,,,,,,,,,,,,,,,,,,,,,,,,,,,,,,,,,,,,,,,,,,,,,,,,,,,,,,,,,,,,,,,,,,,,,,,,,,,,,,,,,,,,,,,,,,
,,,,,,60b644e05d894519db62a451,62c538b4b7d37a19065d9650,2022-07-06_09h25.15.978,Colour_Asymmetry_Pilot,2022.1.3,Win32,60.01680471,62c50e9c1127f2cd403a315f,0,30,30,158,1,fourtwo,,,,,,,,,,,,,,,,,,,,,,,,,,,,,,,,,,,,,,,,,,,,,,,,,,,,,,,,,,,,,,,,,,,,,,,,,,,,,,,,,,,,,,,,,,,,,,,,,,,,,,,,,,,,,,,,,,,,,,,,,,,,,,,,,,,,,,,,,,,,,,,,,,,,,,,,,,,,,
,,,,,,60b644e05d894519db62a451,62c538b4b7d37a19065d9650,2022-07-06_09h25.15.978,Colour_Asymmetry_Pilot,2022.1.3,Win32,60.01680471,62c50e9c1127f2cd403a315f,0,31,31,92,1,threeone,,,,,,,,,,,,,,,,,,,,,,,,,,,,,,,,,,,,,,,,,,,,,,,,,,,,,,,,,,,,,,,,,,,,,,,,,,,,,,,,,,,,,,,,,,,,,,,,,,,,,,,,,,,,,,,,,,,,,,,,,,,,,,,,,,,,,,,,,,,,,,,,,,,,,,,,,,,,,
,,,,,,60b644e05d894519db62a451,62c538b4b7d37a19065d9650,2022-07-06_09h25.15.978,Colour_Asymmetry_Pilot,2022.1.3,Win32,60.01680471,62c50e9c1127f2cd403a315f,0,32,32,24,1,onetwo,,,,,,,,,,,,,,,,,,,,,,,,,,,,,,,,,,,,,,,,,,,,,,,,,,,,,,,,,,,,,,,,,,,,,,,,,,,,,,,,,,,,,,,,,,,,,,,,,,,,,,,,,,,,,,,,,,,,,,,,,,,,,,,,,,,,,,,,,,,,,,,,,,,,,,,,,,,,,
,,,,,,60b644e05d894519db62a451,62c538b4b7d37a19065d9650,2022-07-06_09h25.15.978,Colour_Asymmetry_Pilot,2022.1.3,Win32,60.01680471,62c50e9c1127f2cd403a315f,0,33,33,48,1,onetwo,,,,,,,,,,,,,,,,,,,,,,,,,,,,,,,,,,,,,,,,,,,,,,,,,,,,,,,,,,,,,,,,,,,,,,,,,,,,,,,,,,,,,,,,,,,,,,,,,,,,,,,,,,,,,,,,,,,,,,,,,,,,,,,,,,,,,,,,,,,,,,,,,,,,,,,,,,,,,
,,,,,,60b644e05d894519db62a451,62c538b4b7d37a19065d9650,2022-07-06_09h25.15.978,Colour_Asymmetry_Pilot,2022.1.3,Win32,60.01680471,62c50e9c1127f2cd403a315f,0,34,34,156,1,threeone,,,,,,,,,,,,,,,,,,,,,,,,,,,,,,,,,,,,,,,,,,,,,,,,,,,,,,,,,,,,,,,,,,,,,,,,,,,,,,,,,,,,,,,,,,,,,,,,,,,,,,,,,,,,,,,,,,,,,,,,,,,,,,,,,,,,,,,,,,,,,,,,,,,,,,,,,,,,,
,,,,,,60b644e05d894519db62a451,62c538b4b7d37a19065d9650,2022-07-06_09h25.15.978,Colour_Asymmetry_Pilot,2022.1.3,Win32,60.01680471,62c50e9c1127f2cd403a315f,0,35,35,73,1,onethree,,,,,,,,,,,,,,,,,,,,,,,,,,,,,,,,,,,,,,,,,,,,,,,,,,,,,,,,,,,,,,,,,,,,,,,,,,,,,,,,,,,,,,,,,,,,,,,,,,,,,,,,,,,,,,,,,,,,,,,,,,,,,,,,,,,,,,,,,,,,,,,,,,,,,,,,,,,,,
,,,,,,60b644e05d894519db62a451,62c538b4b7d37a19065d9650,2022-07-06_09h25.15.978,Colour_Asymmetry_Pilot,2022.1.3,Win32,60.01680471,62c50e9c1127f2cd403a315f,0,36,36,66,1,twoone,,,,,,,,,,,,,,,,,,,,,,,,,,,,,,,,,,,,,,,,,,,,,,,,,,,,,,,,,,,,,,,,,,,,,,,,,,,,,,,,,,,,,,,,,,,,,,,,,,,,,,,,,,,,,,,,,,,,,,,,,,,,,,,,,,,,,,,,,,,,,,,,,,,,,,,,,,,,,
,,,,,,60b644e05d894519db62a451,62c538b4b7d37a19065d9650,2022-07-06_09h25.15.978,Colour_Asymmetry_Pilot,2022.1.3,Win32,60.01680471,62c50e9c1127f2cd403a315f,0,37,37,94,1,fourtwo,,,,,,,,,,,,,,,,,,,,,,,,,,,,,,,,,,,,,,,,,,,,,,,,,,,,,,,,,,,,,,,,,,,,,,,,,,,,,,,,,,,,,,,,,,,,,,,,,,,,,,,,,,,,,,,,,,,,,,,,,,,,,,,,,,,,,,,,,,,,,,,,,,,,,,,,,,,,,
,,,,,,60b644e05d894519db62a451,62c538b4b7d37a19065d9650,2022-07-06_09h25.15.978,Colour_Asymmetry_Pilot,2022.1.3,Win32,60.01680471,62c50e9c1127f2cd403a315f,0,38,38,69,1,threefour,,,,,,,,,,,,,,,,,,,,,,,,,,,,,,,,,,,,,,,,,,,,,,,,,,,,,,,,,,,,,,,,,,,,,,,,,,,,,,,,,,,,,,,,,,,,,,,,,,,,,,,,,,,,,,,,,,,,,,,,,,,,,,,,,,,,,,,,,,,,,,,,,,,,,,,,,,,,,
,,,,,,60b644e05d894519db62a451,62c538b4b7d37a19065d9650,2022-07-06_09h25.15.978,Colour_Asymmetry_Pilot,2022.1.3,Win32,60.01680471,62c50e9c1127f2cd403a315f,0,39,39,14,1,fourtwo,,,,,,,,,,,,,,,,,,,,,,,,,,,,,,,,,,,,,,,,,,,,,,,,,,,,,,,,,,,,,,,,,,,,,,,,,,,,,,,,,,,,,,,,,,,,,,,,,,,,,,,,,,,,,,,,,,,,,,,,,,,,,,,,,,,,,,,,,,,,,,,,,,,,,,,,,,,,,
,,,,,,60b644e05d894519db62a451,62c538b4b7d37a19065d9650,2022-07-06_09h25.15.978,Colour_Asymmetry_Pilot,2022.1.3,Win32,60.01680471,62c50e9c1127f2cd403a315f,0,40,40,113,1,onethree,,,,,,,,,,,,,,,,,,,,,,,,,,,,,,,,,,,,,,,,,,,,,,,,,,,,,,,,,,,,,,,,,,,,,,,,,,,,,,,,,,,,,,,,,,,,,,,,,,,,,,,,,,,,,,,,,,,,,,,,,,,,,,,,,,,,,,,,,,,,,,,,,,,,,,,,,,,,,
,,,,,,60b644e05d894519db62a451,62c538b4b7d37a19065d9650,2022-07-06_09h25.15.978,Colour_Asymmetry_Pilot,2022.1.3,Win32,60.01680471,62c50e9c1127f2cd403a315f,0,41,41,46,1,fourtwo,,,,,,,,,,,,,,,,,,,,,,,,,,,,,,,,,,,,,,,,,,,,,,,,,,,,,,,,,,,,,,,,,,,,,,,,,,,,,,,,,,,,,,,,,,,,,,,,,,,,,,,,,,,,,,,,,,,,,,,,,,,,,,,,,,,,,,,,,,,,,,,,,,,,,,,,,,,,,
,,,,,,60b644e05d894519db62a451,62c538b4b7d37a19065d9650,2022-07-06_09h25.15.978,Colour_Asymmetry_Pilot,2022.1.3,Win32,60.01680471,62c50e9c1127f2cd403a315f,0,42,42,37,1,threefour,,,,,,,,,,,,,,,,,,,,,,,,,,,,,,,,,,,,,,,,,,,,,,,,,,,,,,,,,,,,,,,,,,,,,,,,,,,,,,,,,,,,,,,,,,,,,,,,,,,,,,,,,,,,,,,,,,,,,,,,,,,,,,,,,,,,,,,,,,,,,,,,,,,,,,,,,,,,,
,,,,,,60b644e05d894519db62a451,62c538b4b7d37a19065d9650,2022-07-06_09h25.15.978,Colour_Asymmetry_Pilot,2022.1.3,Win32,60.01680471,62c50e9c1127f2cd403a315f,0,43,43,70,1,fourtwo,,,,,,,,,,,,,,,,,,,,,,,,,,,,,,,,,,,,,,,,,,,,,,,,,,,,,,,,,,,,,,,,,,,,,,,,,,,,,,,,,,,,,,,,,,,,,,,,,,,,,,,,,,,,,,,,,,,,,,,,,,,,,,,,,,,,,,,,,,,,,,,,,,,,,,,,,,,,,
,,,,,,60b644e05d894519db62a451,62c538b4b7d37a19065d9650,2022-07-06_09h25.15.978,Colour_Asymmetry_Pilot,2022.1.3,Win32,60.01680471,62c50e9c1127f2cd403a315f,0,44,44,63,1,fourthree,,,,,,,,,,,,,,,,,,,,,,,,,,,,,,,,,,,,,,,,,,,,,,,,,,,,,,,,,,,,,,,,,,,,,,,,,,,,,,,,,,,,,,,,,,,,,,,,,,,,,,,,,,,,,,,,,,,,,,,,,,,,,,,,,,,,,,,,,,,,,,,,,,,,,,,,,,,,,
,,,,,,60b644e05d894519db62a451,62c538b4b7d37a19065d9650,2022-07-06_09h25.15.978,Colour_Asymmetry_Pilot,2022.1.3,Win32,60.01680471,62c50e9c1127f2cd403a315f,0,45,45,125,1,threefour,,,,,,,,,,,,,,,,,,,,,,,,,,,,,,,,,,,,,,,,,,,,,,,,,,,,,,,,,,,,,,,,,,,,,,,,,,,,,,,,,,,,,,,,,,,,,,,,,,,,,,,,,,,,,,,,,,,,,,,,,,,,,,,,,,,,,,,,,,,,,,,,,,,,,,,,,,,,,
,,,,,,60b644e05d894519db62a451,62c538b4b7d37a19065d9650,2022-07-06_09h25.15.978,Colour_Asymmetry_Pilot,2022.1.3,Win32,60.01680471,62c50e9c1127f2cd403a315f,0,46,46,58,1,twoone,,,,,,,,,,,,,,,,,,,,,,,,,,,,,,,,,,,,,,,,,,,,,,,,,,,,,,,,,,,,,,,,,,,,,,,,,,,,,,,,,,,,,,,,,,,,,,,,,,,,,,,,,,,,,,,,,,,,,,,,,,,,,,,,,,,,,,,,,,,,,,,,,,,,,,,,,,,,,
,,,,,,60b644e05d894519db62a451,62c538b4b7d37a19065d9650,2022-07-06_09h25.15.978,Colour_Asymmetry_Pilot,2022.1.3,Win32,60.01680471,62c50e9c1127f2cd403a315f,0,47,47,105,1,onethree,,,,,,,,,,,,,,,,,,,,,,,,,,,,,,,,,,,,,,,,,,,,,,,,,,,,,,,,,,,,,,,,,,,,,,,,,,,,,,,,,,,,,,,,,,,,,,,,,,,,,,,,,,,,,,,,,,,,,,,,,,,,,,,,,,,,,,,,,,,,,,,,,,,,,,,,,,,,,
,,,,,,60b644e05d894519db62a451,62c538b4b7d37a19065d9650,2022-07-06_09h25.15.978,Colour_Asymmetry_Pilot,2022.1.3,Win32,60.01680471,62c50e9c1127f2cd403a315f,0,48,48,137,1,onethree,,,,,,,,,,,,,,,,,,,,,,,,,,,,,,,,,,,,,,,,,,,,,,,,,,,,,,,,,,,,,,,,,,,,,,,,,,,,,,,,,,,,,,,,,,,,,,,,,,,,,,,,,,,,,,,,,,,,,,,,,,,,,,,,,,,,,,,,,,,,,,,,,,,,,,,,,,,,,
,,,,,,60b644e05d894519db62a451,62c538b4b7d37a19065d9650,2022-07-06_09h25.15.978,Colour_Asymmetry_Pilot,2022.1.3,Win32,60.01680471,62c50e9c1127f2cd403a315f,0,49,49,136,1,onetwo,,,,,,,,,,,,,,,,,,,,,,,,,,,,,,,,,,,,,,,,,,,,,,,,,,,,,,,,,,,,,,,,,,,,,,,,,,,,,,,,,,,,,,,,,,,,,,,,,,,,,,,,,,,,,,,,,,,,,,,,,,,,,,,,,,,,,,,,,,,,,,,,,,,,,,,,,,,,,
,,,,,,60b644e05d894519db62a451,62c538b4b7d37a19065d9650,2022-07-06_09h25.15.978,Colour_Asymmetry_Pilot,2022.1.3,Win32,60.01680471,62c50e9c1127f2cd403a315f,0,50,50,160,1,onetwo,,,,,,,,,,,,,,,,,,,,,,,,,,,,,,,,,,,,,,,,,,,,,,,,,,,,,,,,,,,,,,,,,,,,,,,,,,,,,,,,,,,,,,,,,,,,,,,,,,,,,,,,,,,,,,,,,,,,,,,,,,,,,,,,,,,,,,,,,,,,,,,,,,,,,,,,,,,,,
,,,,,,60b644e05d894519db62a451,62c538b4b7d37a19065d9650,2022-07-06_09h25.15.978,Colour_Asymmetry_Pilot,2022.1.3,Win32,60.01680471,62c50e9c1127f2cd403a315f,0,51,51,23,1,fourthree,,,,,,,,,,,,,,,,,,,,,,,,,,,,,,,,,,,,,,,,,,,,,,,,,,,,,,,,,,,,,,,,,,,,,,,,,,,,,,,,,,,,,,,,,,,,,,,,,,,,,,,,,,,,,,,,,,,,,,,,,,,,,,,,,,,,,,,,,,,,,,,,,,,,,,,,,,,,,
,,,,,,60b644e05d894519db62a451,62c538b4b7d37a19065d9650,2022-07-06_09h25.15.978,Colour_Asymmetry_Pilot,2022.1.3,Win32,60.01680471,62c50e9c1127f2cd403a315f,0,52,52,147,1,twofour,,,,,,,,,,,,,,,,,,,,,,,,,,,,,,,,,,,,,,,,,,,,,,,,,,,,,,,,,,,,,,,,,,,,,,,,,,,,,,,,,,,,,,,,,,,,,,,,,,,,,,,,,,,,,,,,,,,,,,,,,,,,,,,,,,,,,,,,,,,,,,,,,,,,,,,,,,,,,
,,,,,,60b644e05d894519db62a451,62c538b4b7d37a19065d9650,2022-07-06_09h25.15.978,Colour_Asymmetry_Pilot,2022.1.3,Win32,60.01680471,62c50e9c1127f2cd403a315f,0,53,53,13,1,threefour,,,,,,,,,,,,,,,,,,,,,,,,,,,,,,,,,,,,,,,,,,,,,,,,,,,,,,,,,,,,,,,,,,,,,,,,,,,,,,,,,,,,,,,,,,,,,,,,,,,,,,,,,,,,,,,,,,,,,,,,,,,,,,,,,,,,,,,,,,,,,,,,,,,,,,,,,,,,,
,,,,,,60b644e05d894519db62a451,62c538b4b7d37a19065d9650,2022-07-06_09h25.15.978,Colour_Asymmetry_Pilot,2022.1.3,Win32,60.01680471,62c50e9c1127f2cd403a315f,0,54,54,111,1,fourthree,,,,,,,,,,,,,,,,,,,,,,,,,,,,,,,,,,,,,,,,,,,,,,,,,,,,,,,,,,,,,,,,,,,,,,,,,,,,,,,,,,,,,,,,,,,,,,,,,,,,,,,,,,,,,,,,,,,,,,,,,,,,,,,,,,,,,,,,,,,,,,,,,,,,,,,,,,,,,
,,,,,,60b644e05d894519db62a451,62c538b4b7d37a19065d9650,2022-07-06_09h25.15.978,Colour_Asymmetry_Pilot,2022.1.3,Win32,60.01680471,62c50e9c1127f2cd403a315f,0,55,55,149,1,threefour,,,,,,,,,,,,,,,,,,,,,,,,,,,,,,,,,,,,,,,,,,,,,,,,,,,,,,,,,,,,,,,,,,,,,,,,,,,,,,,,,,,,,,,,,,,,,,,,,,,,,,,,,,,,,,,,,,,,,,,,,,,,,,,,,,,,,,,,,,,,,,,,,,,,,,,,,,,,,
,,,,,,60b644e05d894519db62a451,62c538b4b7d37a19065d9650,2022-07-06_09h25.15.978,Colour_Asymmetry_Pilot,2022.1.3,Win32,60.01680471,62c50e9c1127f2cd403a315f,0,56,56,108,1,threeone,,,,,,,,,,,,,,,,,,,,,,,,,,,,,,,,,,,,,,,,,,,,,,,,,,,,,,,,,,,,,,,,,,,,,,,,,,,,,,,,,,,,,,,,,,,,,,,,,,,,,,,,,,,,,,,,,,,,,,,,,,,,,,,,,,,,,,,,,,,,,,,,,,,,,,,,,,,,,
,,,,,,60b644e05d894519db62a451,62c538b4b7d37a19065d9650,2022-07-06_09h25.15.978,Colour_Asymmetry_Pilot,2022.1.3,Win32,60.01680471,62c50e9c1127f2cd403a315f,0,57,57,43,1,twofour,,,,,,,,,,,,,,,,,,,,,,,,,,,,,,,,,,,,,,,,,,,,,,,,,,,,,,,,,,,,,,,,,,,,,,,,,,,,,,,,,,,,,,,,,,,,,,,,,,,,,,,,,,,,,,,,,,,,,,,,,,,,,,,,,,,,,,,,,,,,,,,,,,,,,,,,,,,,,
,,,,,,60b644e05d894519db62a451,62c538b4b7d37a19065d9650,2022-07-06_09h25.15.978,Colour_Asymmetry_Pilot,2022.1.3,Win32,60.01680471,62c50e9c1127f2cd403a315f,0,58,58,81,1,onethree,,,,,,,,,,,,,,,,,,,,,,,,,,,,,,,,,,,,,,,,,,,,,,,,,,,,,,,,,,,,,,,,,,,,,,,,,,,,,,,,,,,,,,,,,,,,,,,,,,,,,,,,,,,,,,,,,,,,,,,,,,,,,,,,,,,,,,,,,,,,,,,,,,,,,,,,,,,,,
,,,,,,60b644e05d894519db62a451,62c538b4b7d37a19065d9650,2022-07-06_09h25.15.978,Colour_Asymmetry_Pilot,2022.1.3,Win32,60.01680471,62c50e9c1127f2cd403a315f,0,59,59,121,1,onethree,,,,,,,,,,,,,,,,,,,,,,,,,,,,,,,,,,,,,,,,,,,,,,,,,,,,,,,,,,,,,,,,,,,,,,,,,,,,,,,,,,,,,,,,,,,,,,,,,,,,,,,,,,,,,,,,,,,,,,,,,,,,,,,,,,,,,,,,,,,,,,,,,,,,,,,,,,,,,
,,,,,,60b644e05d894519db62a451,62c538b4b7d37a19065d9650,2022-07-06_09h25.15.978,Colour_Asymmetry_Pilot,2022.1.3,Win32,60.01680471,62c50e9c1127f2cd403a315f,0,60,60,8,1,onetwo,,,,,,,,,,,,,,,,,,,,,,,,,,,,,,,,,,,,,,,,,,,,,,,,,,,,,,,,,,,,,,,,,,,,,,,,,,,,,,,,,,,,,,,,,,,,,,,,,,,,,,,,,,,,,,,,,,,,,,,,,,,,,,,,,,,,,,,,,,,,,,,,,,,,,,,,,,,,,
,,,,,,60b644e05d894519db62a451,62c538b4b7d37a19065d9650,2022-07-06_09h25.15.978,Colour_Asymmetry_Pilot,2022.1.3,Win32,60.01680471,62c50e9c1127f2cd403a315f,0,61,61,2,1,twoone,,,,,,,,,,,,,,,,,,,,,,,,,,,,,,,,,,,,,,,,,,,,,,,,,,,,,,,,,,,,,,,,,,,,,,,,,,,,,,,,,,,,,,,,,,,,,,,,,,,,,,,,,,,,,,,,,,,,,,,,,,,,,,,,,,,,,,,,,,,,,,,,,,,,,,,,,,,,,
,,,,,,60b644e05d894519db62a451,62c538b4b7d37a19065d9650,2022-07-06_09h25.15.978,Colour_Asymmetry_Pilot,2022.1.3,Win32,60.01680471,62c50e9c1127f2cd403a315f,0,62,62,143,1,fourthree,,,,,,,,,,,,,,,,,,,,,,,,,,,,,,,,,,,,,,,,,,,,,,,,,,,,,,,,,,,,,,,,,,,,,,,,,,,,,,,,,,,,,,,,,,,,,,,,,,,,,,,,,,,,,,,,,,,,,,,,,,,,,,,,,,,,,,,,,,,,,,,,,,,,,,,,,,,,,
,,,,,,60b644e05d894519db62a451,62c538b4b7d37a19065d9650,2022-07-06_09h25.15.978,Colour_Asymmetry_Pilot,2022.1.3,Win32,60.01680471,62c50e9c1127f2cd403a315f,0,63,63,117,1,threefour,,,,,,,,,,,,,,,,,,,,,,,,,,,,,,,,,,,,,,,,,,,,,,,,,,,,,,,,,,,,,,,,,,,,,,,,,,,,,,,,,,,,,,,,,,,,,,,,,,,,,,,,,,,,,,,,,,,,,,,,,,,,,,,,,,,,,,,,,,,,,,,,,,,,,,,,,,,,,
,,,,,,60b644e05d894519db62a451,62c538b4b7d37a19065d9650,2022-07-06_09h25.15.978,Colour_Asymmetry_Pilot,2022.1.3,Win32,60.01680471,62c50e9c1127f2cd403a315f,0,64,64,116,1,threeone,,,,,,,,,,,,,,,,,,,,,,,,,,,,,,,,,,,,,,,,,,,,,,,,,,,,,,,,,,,,,,,,,,,,,,,,,,,,,,,,,,,,,,,,,,,,,,,,,,,,,,,,,,,,,,,,,,,,,,,,,,,,,,,,,,,,,,,,,,,,,,,,,,,,,,,,,,,,,
,,,,,,60b644e05d894519db62a451,62c538b4b7d37a19065d9650,2022-07-06_09h25.15.978,Colour_Asymmetry_Pilot,2022.1.3,Win32,60.01680471,62c50e9c1127f2cd403a315f,0,65,65,79,1,fourthree,,,,,,,,,,,,,,,,,,,,,,,,,,,,,,,,,,,,,,,,,,,,,,,,,,,,,,,,,,,,,,,,,,,,,,,,,,,,,,,,,,,,,,,,,,,,,,,,,,,,,,,,,,,,,,,,,,,,,,,,,,,,,,,,,,,,,,,,,,,,,,,,,,,,,,,,,,,,,
,,,,,,60b644e05d894519db62a451,62c538b4b7d37a19065d9650,2022-07-06_09h25.15.978,Colour_Asymmetry_Pilot,2022.1.3,Win32,60.01680471,62c50e9c1127f2cd403a315f,0,66,66,104,1,onetwo,,,,,,,,,,,,,,,,,,,,,,,,,,,,,,,,,,,,,,,,,,,,,,,,,,,,,,,,,,,,,,,,,,,,,,,,,,,,,,,,,,,,,,,,,,,,,,,,,,,,,,,,,,,,,,,,,,,,,,,,,,,,,,,,,,,,,,,,,,,,,,,,,,,,,,,,,,,,,
,,,,,,60b644e05d894519db62a451,62c538b4b7d37a19065d9650,2022-07-06_09h25.15.978,Colour_Asymmetry_Pilot,2022.1.3,Win32,60.01680471,62c50e9c1127f2cd403a315f,0,67,67,123,1,twofour,,,,,,,,,,,,,,,,,,,,,,,,,,,,,,,,,,,,,,,,,,,,,,,,,,,,,,,,,,,,,,,,,,,,,,,,,,,,,,,,,,,,,,,,,,,,,,,,,,,,,,,,,,,,,,,,,,,,,,,,,,,,,,,,,,,,,,,,,,,,,,,,,,,,,,,,,,,,,
,,,,,,60b644e05d894519db62a451,62c538b4b7d37a19065d9650,2022-07-06_09h25.15.978,Colour_Asymmetry_Pilot,2022.1.3,Win32,60.01680471,62c50e9c1127f2cd403a315f,0,68,68,97,1,onethree,,,,,,,,,,,,,,,,,,,,,,,,,,,,,,,,,,,,,,,,,,,,,,,,,,,,,,,,,,,,,,,,,,,,,,,,,,,,,,,,,,,,,,,,,,,,,,,,,,,,,,,,,,,,,,,,,,,,,,,,,,,,,,,,,,,,,,,,,,,,,,,,,,,,,,,,,,,,,
,,,,,,60b644e05d894519db62a451,62c538b4b7d37a19065d9650,2022-07-06_09h25.15.978,Colour_Asymmetry_Pilot,2022.1.3,Win32,60.01680471,62c50e9c1127f2cd403a315f,0,69,69,3,1,twofour,,,,,,,,,,,,,,,,,,,,,,,,,,,,,,,,,,,,,,,,,,,,,,,,,,,,,,,,,,,,,,,,,,,,,,,,,,,,,,,,,,,,,,,,,,,,,,,,,,,,,,,,,,,,,,,,,,,,,,,,,,,,,,,,,,,,,,,,,,,,,,,,,,,,,,,,,,,,,
,,,,,,60b644e05d894519db62a451,62c538b4b7d37a19065d9650,2022-07-06_09h25.15.978,Colour_Asymmetry_Pilot,2022.1.3,Win32,60.01680471,62c50e9c1127f2cd403a315f,0,70,70,82,1,twoone,,,,,,,,,,,,,,,,,,,,,,,,,,,,,,,,,,,,,,,,,,,,,,,,,,,,,,,,,,,,,,,,,,,,,,,,,,,,,,,,,,,,,,,,,,,,,,,,,,,,,,,,,,,,,,,,,,,,,,,,,,,,,,,,,,,,,,,,,,,,,,,,,,,,,,,,,,,,,
,,,,,,60b644e05d894519db62a451,62c538b4b7d37a19065d9650,2022-07-06_09h25.15.978,Colour_Asymmetry_Pilot,2022.1.3,Win32,60.01680471,62c50e9c1127f2cd403a315f,0,71,71,65,1,onethree,,,,,,,,,,,,,,,,,,,,,,,,,,,,,,,,,,,,,,,,,,,,,,,,,,,,,,,,,,,,,,,,,,,,,,,,,,,,,,,,,,,,,,,,,,,,,,,,,,,,,,,,,,,,,,,,,,,,,,,,,,,,,,,,,,,,,,,,,,,,,,,,,,,,,,,,,,,,,
,,,,,,60b644e05d894519db62a451,62c538b4b7d37a19065d9650,2022-07-06_09h25.15.978,Colour_Asymmetry_Pilot,2022.1.3,Win32,60.01680471,62c50e9c1127f2cd403a315f,0,72,72,100,1,threeone,,,,,,,,,,,,,,,,,,,,,,,,,,,,,,,,,,,,,,,,,,,,,,,,,,,,,,,,,,,,,,,,,,,,,,,,,,,,,,,,,,,,,,,,,,,,,,,,,,,,,,,,,,,,,,,,,,,,,,,,,,,,,,,,,,,,,,,,,,,,,,,,,,,,,,,,,,,,,
,,,,,,60b644e05d894519db62a451,62c538b4b7d37a19065d9650,2022-07-06_09h25.15.978,Colour_Asymmetry_Pilot,2022.1.3,Win32,60.01680471,62c50e9c1127f2cd403a315f,0,73,73,124,1,threeone,,,,,,,,,,,,,,,,,,,,,,,,,,,,,,,,,,,,,,,,,,,,,,,,,,,,,,,,,,,,,,,,,,,,,,,,,,,,,,,,,,,,,,,,,,,,,,,,,,,,,,,,,,,,,,,,,,,,,,,,,,,,,,,,,,,,,,,,,,,,,,,,,,,,,,,,,,,,,
,,,,,,60b644e05d894519db62a451,62c538b4b7d37a19065d9650,2022-07-06_09h25.15.978,Colour_Asymmetry_Pilot,2022.1.3,Win32,60.01680471,62c50e9c1127f2cd403a315f,0,74,74,126,1,fourtwo,,,,,,,,,,,,,,,,,,,,,,,,,,,,,,,,,,,,,,,,,,,,,,,,,,,,,,,,,,,,,,,,,,,,,,,,,,,,,,,,,,,,,,,,,,,,,,,,,,,,,,,,,,,,,,,,,,,,,,,,,,,,,,,,,,,,,,,,,,,,,,,,,,,,,,,,,,,,,
,,,,,,60b644e05d894519db62a451,62c538b4b7d37a19065d9650,2022-07-06_09h25.15.978,Colour_Asymmetry_Pilot,2022.1.3,Win32,60.01680471,62c50e9c1127f2cd403a315f,0,75,75,39,1,fourthree,,,,,,,,,,,,,,,,,,,,,,,,,,,,,,,,,,,,,,,,,,,,,,,,,,,,,,,,,,,,,,,,,,,,,,,,,,,,,,,,,,,,,,,,,,,,,,,,,,,,,,,,,,,,,,,,,,,,,,,,,,,,,,,,,,,,,,,,,,,,,,,,,,,,,,,,,,,,,
,,,,,,60b644e05d894519db62a451,62c538b4b7d37a19065d9650,2022-07-06_09h25.15.978,Colour_Asymmetry_Pilot,2022.1.3,Win32,60.01680471,62c50e9c1127f2cd403a315f,0,76,76,26,1,twoone,,,,,,,,,,,,,,,,,,,,,,,,,,,,,,,,,,,,,,,,,,,,,,,,,,,,,,,,,,,,,,,,,,,,,,,,,,,,,,,,,,,,,,,,,,,,,,,,,,,,,,,,,,,,,,,,,,,,,,,,,,,,,,,,,,,,,,,,,,,,,,,,,,,,,,,,,,,,,
,,,,,,60b644e05d894519db62a451,62c538b4b7d37a19065d9650,2022-07-06_09h25.15.978,Colour_Asymmetry_Pilot,2022.1.3,Win32,60.01680471,62c50e9c1127f2cd403a315f,0,77,77,28,1,threeone,,,,,,,,,,,,,,,,,,,,,,,,,,,,,,,,,,,,,,,,,,,,,,,,,,,,,,,,,,,,,,,,,,,,,,,,,,,,,,,,,,,,,,,,,,,,,,,,,,,,,,,,,,,,,,,,,,,,,,,,,,,,,,,,,,,,,,,,,,,,,,,,,,,,,,,,,,,,,
,,,,,,60b644e05d894519db62a451,62c538b4b7d37a19065d9650,2022-07-06_09h25.15.978,Colour_Asymmetry_Pilot,2022.1.3,Win32,60.01680471,62c50e9c1127f2cd403a315f,0,78,78,155,1,twofour,,,,,,,,,,,,,,,,,,,,,,,,,,,,,,,,,,,,,,,,,,,,,,,,,,,,,,,,,,,,,,,,,,,,,,,,,,,,,,,,,,,,,,,,,,,,,,,,,,,,,,,,,,,,,,,,,,,,,,,,,,,,,,,,,,,,,,,,,,,,,,,,,,,,,,,,,,,,,
,,,,,,60b644e05d894519db62a451,62c538b4b7d37a19065d9650,2022-07-06_09h25.15.978,Colour_Asymmetry_Pilot,2022.1.3,Win32,60.01680471,62c50e9c1127f2cd403a315f,0,79,79,161,1,onethree,,,,,,,,,,,,,,,,,,,,,,,,,,,,,,,,,,,,,,,,,,,,,,,,,,,,,,,,,,,,,,,,,,,,,,,,,,,,,,,,,,,,,,,,,,,,,,,,,,,,,,,,,,,,,,,,,,,,,,,,,,,,,,,,,,,,,,,,,,,,,,,,,,,,,,,,,,,,,
,,,,,,60b644e05d894519db62a451,62c538b4b7d37a19065d9650,2022-07-06_09h25.15.978,Colour_Asymmetry_Pilot,2022.1.3,Win32,60.01680471,62c50e9c1127f2cd403a315f,0,80,80,98,1,twoone,,,,,,,,,,,,,,,,,,,,,,,,,,,,,,,,,,,,,,,,,,,,,,,,,,,,,,,,,,,,,,,,,,,,,,,,,,,,,,,,,,,,,,,,,,,,,,,,,,,,,,,,,,,,,,,,,,,,,,,,,,,,,,,,,,,,,,,,,,,,,,,,,,,,,,,,,,,,,
,,,,,,60b644e05d894519db62a451,62c538b4b7d37a19065d9650,2022-07-06_09h25.15.978,Colour_Asymmetry_Pilot,2022.1.3,Win32,60.01680471,62c50e9c1127f2cd403a315f,0,81,81,71,1,fourthree,,,,,,,,,,,,,,,,,,,,,,,,,,,,,,,,,,,,,,,,,,,,,,,,,,,,,,,,,,,,,,,,,,,,,,,,,,,,,,,,,,,,,,,,,,,,,,,,,,,,,,,,,,,,,,,,,,,,,,,,,,,,,,,,,,,,,,,,,,,,,,,,,,,,,,,,,,,,,
,,,,,,60b644e05d894519db62a451,62c538b4b7d37a19065d9650,2022-07-06_09h25.15.978,Colour_Asymmetry_Pilot,2022.1.3,Win32,60.01680471,62c50e9c1127f2cd403a315f,0,82,82,122,1,twoone,,,,,,,,,,,,,,,,,,,,,,,,,,,,,,,,,,,,,,,,,,,,,,,,,,,,,,,,,,,,,,,,,,,,,,,,,,,,,,,,,,,,,,,,,,,,,,,,,,,,,,,,,,,,,,,,,,,,,,,,,,,,,,,,,,,,,,,,,,,,,,,,,,,,,,,,,,,,,
,,,,,,60b644e05d894519db62a451,62c538b4b7d37a19065d9650,2022-07-06_09h25.15.978,Colour_Asymmetry_Pilot,2022.1.3,Win32,60.01680471,62c50e9c1127f2cd403a315f,0,83,83,61,1,threefour,,,,,,,,,,,,,,,,,,,,,,,,,,,,,,,,,,,,,,,,,,,,,,,,,,,,,,,,,,,,,,,,,,,,,,,,,,,,,,,,,,,,,,,,,,,,,,,,,,,,,,,,,,,,,,,,,,,,,,,,,,,,,,,,,,,,,,,,,,,,,,,,,,,,,,,,,,,,,
,,,,,,60b644e05d894519db62a451,62c538b4b7d37a19065d9650,2022-07-06_09h25.15.978,Colour_Asymmetry_Pilot,2022.1.3,Win32,60.01680471,62c50e9c1127f2cd403a315f,0,84,84,25,1,onethree,,,,,,,,,,,,,,,,,,,,,,,,,,,,,,,,,,,,,,,,,,,,,,,,,,,,,,,,,,,,,,,,,,,,,,,,,,,,,,,,,,,,,,,,,,,,,,,,,,,,,,,,,,,,,,,,,,,,,,,,,,,,,,,,,,,,,,,,,,,,,,,,,,,,,,,,,,,,,
,,,,,,60b644e05d894519db62a451,62c538b4b7d37a19065d9650,2022-07-06_09h25.15.978,Colour_Asymmetry_Pilot,2022.1.3,Win32,60.01680471,62c50e9c1127f2cd403a315f,0,85,85,75,1,twofour,,,,,,,,,,,,,,,,,,,,,,,,,,,,,,,,,,,,,,,,,,,,,,,,,,,,,,,,,,,,,,,,,,,,,,,,,,,,,,,,,,,,,,,,,,,,,,,,,,,,,,,,,,,,,,,,,,,,,,,,,,,,,,,,,,,,,,,,,,,,,,,,,,,,,,,,,,,,,
,,,,,,60b644e05d894519db62a451,62c538b4b7d37a19065d9650,2022-07-06_09h25.15.978,Colour_Asymmetry_Pilot,2022.1.3,Win32,60.01680471,62c50e9c1127f2cd403a315f,0,86,86,142,1,fourtwo,,,,,,,,,,,,,,,,,,,,,,,,,,,,,,,,,,,,,,,,,,,,,,,,,,,,,,,,,,,,,,,,,,,,,,,,,,,,,,,,,,,,,,,,,,,,,,,,,,,,,,,,,,,,,,,,,,,,,,,,,,,,,,,,,,,,,,,,,,,,,,,,,,,,,,,,,,,,,
,,,,,,60b644e05d894519db62a451,62c538b4b7d37a19065d9650,2022-07-06_09h25.15.978,Colour_Asymmetry_Pilot,2022.1.3,Win32,60.01680471,62c50e9c1127f2cd403a315f,0,87,87,55,1,fourthree,,,,,,,,,,,,,,,,,,,,,,,,,,,,,,,,,,,,,,,,,,,,,,,,,,,,,,,,,,,,,,,,,,,,,,,,,,,,,,,,,,,,,,,,,,,,,,,,,,,,,,,,,,,,,,,,,,,,,,,,,,,,,,,,,,,,,,,,,,,,,,,,,,,,,,,,,,,,,
,,,,,,60b644e05d894519db62a451,62c538b4b7d37a19065d9650,2022-07-06_09h25.15.978,Colour_Asymmetry_Pilot,2022.1.3,Win32,60.01680471,62c50e9c1127f2cd403a315f,0,88,88,114,1,twoone,,,,,,,,,,,,,,,,,,,,,,,,,,,,,,,,,,,,,,,,,,,,,,,,,,,,,,,,,,,,,,,,,,,,,,,,,,,,,,,,,,,,,,,,,,,,,,,,,,,,,,,,,,,,,,,,,,,,,,,,,,,,,,,,,,,,,,,,,,,,,,,,,,,,,,,,,,,,,
,,,,,,60b644e05d894519db62a451,62c538b4b7d37a19065d9650,2022-07-06_09h25.15.978,Colour_Asymmetry_Pilot,2022.1.3,Win32,60.01680471,62c50e9c1127f2cd403a315f,0,89,89,17,1,onethree,,,,,,,,,,,,,,,,,,,,,,,,,,,,,,,,,,,,,,,,,,,,,,,,,,,,,,,,,,,,,,,,,,,,,,,,,,,,,,,,,,,,,,,,,,,,,,,,,,,,,,,,,,,,,,,,,,,,,,,,,,,,,,,,,,,,,,,,,,,,,,,,,,,,,,,,,,,,,
,,,,,,60b644e05d894519db62a451,62c538b4b7d37a19065d9650,2022-07-06_09h25.15.978,Colour_Asymmetry_Pilot,2022.1.3,Win32,60.01680471,62c50e9c1127f2cd403a315f,0,90,90,22,1,fourtwo,,,,,,,,,,,,,,,,,,,,,,,,,,,,,,,,,,,,,,,,,,,,,,,,,,,,,,,,,,,,,,,,,,,,,,,,,,,,,,,,,,,,,,,,,,,,,,,,,,,,,,,,,,,,,,,,,,,,,,,,,,,,,,,,,,,,,,,,,,,,,,,,,,,,,,,,,,,,,
,,,,,,60b644e05d894519db62a451,62c538b4b7d37a19065d9650,2022-07-06_09h25.15.978,Colour_Asymmetry_Pilot,2022.1.3,Win32,60.01680471,62c50e9c1127f2cd403a315f,0,91,91,77,1,threefour,,,,,,,,,,,,,,,,,,,,,,,,,,,,,,,,,,,,,,,,,,,,,,,,,,,,,,,,,,,,,,,,,,,,,,,,,,,,,,,,,,,,,,,,,,,,,,,,,,,,,,,,,,,,,,,,,,,,,,,,,,,,,,,,,,,,,,,,,,,,,,,,,,,,,,,,,,,,,
,,,,,,60b644e05d894519db62a451,62c538b4b7d37a19065d9650,2022-07-06_09h25.15.978,Colour_Asymmetry_Pilot,2022.1.3,Win32,60.01680471,62c50e9c1127f2cd403a315f,0,92,92,87,1,fourthree,,,,,,,,,,,,,,,,,,,,,,,,,,,,,,,,,,,,,,,,,,,,,,,,,,,,,,,,,,,,,,,,,,,,,,,,,,,,,,,,,,,,,,,,,,,,,,,,,,,,,,,,,,,,,,,,,,,,,,,,,,,,,,,,,,,,,,,,,,,,,,,,,,,,,,,,,,,,,
,,,,,,60b644e05d894519db62a451,62c538b4b7d37a19065d9650,2022-07-06_09h25.15.978,Colour_Asymmetry_Pilot,2022.1.3,Win32,60.01680471,62c50e9c1127f2cd403a315f,0,93,93,62,1,fourtwo,,,,,,,,,,,,,,,,,,,,,,,,,,,,,,,,,,,,,,,,,,,,,,,,,,,,,,,,,,,,,,,,,,,,,,,,,,,,,,,,,,,,,,,,,,,,,,,,,,,,,,,,,,,,,,,,,,,,,,,,,,,,,,,,,,,,,,,,,,,,,,,,,,,,,,,,,,,,,
,,,,,,60b644e05d894519db62a451,62c538b4b7d37a19065d9650,2022-07-06_09h25.15.978,Colour_Asymmetry_Pilot,2022.1.3,Win32,60.01680471,62c50e9c1127f2cd403a315f,0,94,94,106,1,twoone,,,,,,,,,,,,,,,,,,,,,,,,,,,,,,,,,,,,,,,,,,,,,,,,,,,,,,,,,,,,,,,,,,,,,,,,,,,,,,,,,,,,,,,,,,,,,,,,,,,,,,,,,,,,,,,,,,,,,,,,,,,,,,,,,,,,,,,,,,,,,,,,,,,,,,,,,,,,,
,,,,,,60b644e05d894519db62a451,62c538b4b7d37a19065d9650,2022-07-06_09h25.15.978,Colour_Asymmetry_Pilot,2022.1.3,Win32,60.01680471,62c50e9c1127f2cd403a315f,0,95,95,118,1,fourtwo,,,,,,,,,,,,,,,,,,,,,,,,,,,,,,,,,,,,,,,,,,,,,,,,,,,,,,,,,,,,,,,,,,,,,,,,,,,,,,,,,,,,,,,,,,,,,,,,,,,,,,,,,,,,,,,,,,,,,,,,,,,,,,,,,,,,,,,,,,,,,,,,,,,,,,,,,,,,,
,,,,,,60b644e05d894519db62a451,62c538b4b7d37a19065d9650,2022-07-06_09h25.15.978,Colour_Asymmetry_Pilot,2022.1.3,Win32,60.01680471,62c50e9c1127f2cd403a315f,0,96,96,159,1,fourthree,,,,,,,,,,,,,,,,,,,,,,,,,,,,,,,,,,,,,,,,,,,,,,,,,,,,,,,,,,,,,,,,,,,,,,,,,,,,,,,,,,,,,,,,,,,,,,,,,,,,,,,,,,,,,,,,,,,,,,,,,,,,,,,,,,,,,,,,,,,,,,,,,,,,,,,,,,,,,
,,,,,,60b644e05d894519db62a451,62c538b4b7d37a19065d9650,2022-07-06_09h25.15.978,Colour_Asymmetry_Pilot,2022.1.3,Win32,60.01680471,62c50e9c1127f2cd403a315f,0,97,97,1,1,onethree,,,,,,,,,,,,,,,,,,,,,,,,,,,,,,,,,,,,,,,,,,,,,,,,,,,,,,,,,,,,,,,,,,,,,,,,,,,,,,,,,,,,,,,,,,,,,,,,,,,,,,,,,,,,,,,,,,,,,,,,,,,,,,,,,,,,,,,,,,,,,,,,,,,,,,,,,,,,,
,,,,,,60b644e05d894519db62a451,62c538b4b7d37a19065d9650,2022-07-06_09h25.15.978,Colour_Asymmetry_Pilot,2022.1.3,Win32,60.01680471,62c50e9c1127f2cd403a315f,0,98,98,15,1,fourthree,,,,,,,,,,,,,,,,,,,,,,,,,,,,,,,,,,,,,,,,,,,,,,,,,,,,,,,,,,,,,,,,,,,,,,,,,,,,,,,,,,,,,,,,,,,,,,,,,,,,,,,,,,,,,,,,,,,,,,,,,,,,,,,,,,,,,,,,,,,,,,,,,,,,,,,,,,,,,
,,,,,,60b644e05d894519db62a451,62c538b4b7d37a19065d9650,2022-07-06_09h25.15.978,Colour_Asymmetry_Pilot,2022.1.3,Win32,60.01680471,62c50e9c1127f2cd403a315f,0,99,99,96,1,onetwo,,,,,,,,,,,,,,,,,,,,,,,,,,,,,,,,,,,,,,,,,,,,,,,,,,,,,,,,,,,,,,,,,,,,,,,,,,,,,,,,,,,,,,,,,,,,,,,,,,,,,,,,,,,,,,,,,,,,,,,,,,,,,,,,,,,,,,,,,,,,,,,,,,,,,,,,,,,,,
,,,,,,60b644e05d894519db62a451,62c538b4b7d37a19065d9650,2022-07-06_09h25.15.978,Colour_Asymmetry_Pilot,2022.1.3,Win32,60.01680471,62c50e9c1127f2cd403a315f,0,100,100,90,1,twoone,,,,,,,,,,,,,,,,,,,,,,,,,,,,,,,,,,,,,,,,,,,,,,,,,,,,,,,,,,,,,,,,,,,,,,,,,,,,,,,,,,,,,,,,,,,,,,,,,,,,,,,,,,,,,,,,,,,,,,,,,,,,,,,,,,,,,,,,,,,,,,,,,,,,,,,,,,,,,
,,,,,,60b644e05d894519db62a451,62c538b4b7d37a19065d9650,2022-07-06_09h25.15.978,Colour_Asymmetry_Pilot,2022.1.3,Win32,60.01680471,62c50e9c1127f2cd403a315f,0,101,101,64,1,onetwo,,,,,,,,,,,,,,,,,,,,,,,,,,,,,,,,,,,,,,,,,,,,,,,,,,,,,,,,,,,,,,,,,,,,,,,,,,,,,,,,,,,,,,,,,,,,,,,,,,,,,,,,,,,,,,,,,,,,,,,,,,,,,,,,,,,,,,,,,,,,,,,,,,,,,,,,,,,,,
,,,,,,60b644e05d894519db62a451,62c538b4b7d37a19065d9650,2022-07-06_09h25.15.978,Colour_Asymmetry_Pilot,2022.1.3,Win32,60.01680471,62c50e9c1127f2cd403a315f,0,102,102,11,1,twofour,,,,,,,,,,,,,,,,,,,,,,,,,,,,,,,,,,,,,,,,,,,,,,,,,,,,,,,,,,,,,,,,,,,,,,,,,,,,,,,,,,,,,,,,,,,,,,,,,,,,,,,,,,,,,,,,,,,,,,,,,,,,,,,,,,,,,,,,,,,,,,,,,,,,,,,,,,,,,
,,,,,,60b644e05d894519db62a451,62c538b4b7d37a19065d9650,2022-07-06_09h25.15.978,Colour_Asymmetry_Pilot,2022.1.3,Win32,60.01680471,62c50e9c1127f2cd403a315f,0,103,103,89,1,onethree,,,,,,,,,,,,,,,,,,,,,,,,,,,,,,,,,,,,,,,,,,,,,,,,,,,,,,,,,,,,,,,,,,,,,,,,,,,,,,,,,,,,,,,,,,,,,,,,,,,,,,,,,,,,,,,,,,,,,,,,,,,,,,,,,,,,,,,,,,,,,,,,,,,,,,,,,,,,,
,,,,,,60b644e05d894519db62a451,62c538b4b7d37a19065d9650,2022-07-06_09h25.15.978,Colour_Asymmetry_Pilot,2022.1.3,Win32,60.01680471,62c50e9c1127f2cd403a315f,0,104,104,112,1,onetwo,,,,,,,,,,,,,,,,,,,,,,,,,,,,,,,,,,,,,,,,,,,,,,,,,,,,,,,,,,,,,,,,,,,,,,,,,,,,,,,,,,,,,,,,,,,,,,,,,,,,,,,,,,,,,,,,,,,,,,,,,,,,,,,,,,,,,,,,,,,,,,,,,,,,,,,,,,,,,
,,,,,,60b644e05d894519db62a451,62c538b4b7d37a19065d9650,2022-07-06_09h25.15.978,Colour_Asymmetry_Pilot,2022.1.3,Win32,60.01680471,62c50e9c1127f2cd403a315f,0,105,105,102,1,fourtwo,,,,,,,,,,,,,,,,,,,,,,,,,,,,,,,,,,,,,,,,,,,,,,,,,,,,,,,,,,,,,,,,,,,,,,,,,,,,,,,,,,,,,,,,,,,,,,,,,,,,,,,,,,,,,,,,,,,,,,,,,,,,,,,,,,,,,,,,,,,,,,,,,,,,,,,,,,,,,
,,,,,,60b644e05d894519db62a451,62c538b4b7d37a19065d9650,2022-07-06_09h25.15.978,Colour_Asymmetry_Pilot,2022.1.3,Win32,60.01680471,62c50e9c1127f2cd403a315f,0,106,106,101,1,threefour,,,,,,,,,,,,,,,,,,,,,,,,,,,,,,,,,,,,,,,,,,,,,,,,,,,,,,,,,,,,,,,,,,,,,,,,,,,,,,,,,,,,,,,,,,,,,,,,,,,,,,,,,,,,,,,,,,,,,,,,,,,,,,,,,,,,,,,,,,,,,,,,,,,,,,,,,,,,,
,,,,,,60b644e05d894519db62a451,62c538b4b7d37a19065d9650,2022-07-06_09h25.15.978,Colour_Asymmetry_Pilot,2022.1.3,Win32,60.01680471,62c50e9c1127f2cd403a315f,0,107,107,119,1,fourthree,,,,,,,,,,,,,,,,,,,,,,,,,,,,,,,,,,,,,,,,,,,,,,,,,,,,,,,,,,,,,,,,,,,,,,,,,,,,,,,,,,,,,,,,,,,,,,,,,,,,,,,,,,,,,,,,,,,,,,,,,,,,,,,,,,,,,,,,,,,,,,,,,,,,,,,,,,,,,
,,,,,,60b644e05d894519db62a451,62c538b4b7d37a19065d9650,2022-07-06_09h25.15.978,Colour_Asymmetry_Pilot,2022.1.3,Win32,60.01680471,62c50e9c1127f2cd403a315f,0,108,108,130,1,twoone,,,,,,,,,,,,,,,,,,,,,,,,,,,,,,,,,,,,,,,,,,,,,,,,,,,,,,,,,,,,,,,,,,,,,,,,,,,,,,,,,,,,,,,,,,,,,,,,,,,,,,,,,,,,,,,,,,,,,,,,,,,,,,,,,,,,,,,,,,,,,,,,,,,,,,,,,,,,,
,,,,,,60b644e05d894519db62a451,62c538b4b7d37a19065d9650,2022-07-06_09h25.15.978,Colour_Asymmetry_Pilot,2022.1.3,Win32,60.01680471,62c50e9c1127f2cd403a315f,0,109,109,29,1,threefour,,,,,,,,,,,,,,,,,,,,,,,,,,,,,,,,,,,,,,,,,,,,,,,,,,,,,,,,,,,,,,,,,,,,,,,,,,,,,,,,,,,,,,,,,,,,,,,,,,,,,,,,,,,,,,,,,,,,,,,,,,,,,,,,,,,,,,,,,,,,,,,,,,,,,,,,,,,,,
,,,,,,60b644e05d894519db62a451,62c538b4b7d37a19065d9650,2022-07-06_09h25.15.978,Colour_Asymmetry_Pilot,2022.1.3,Win32,60.01680471,62c50e9c1127f2cd403a315f,0,110,110,12,1,threeone,,,,,,,,,,,,,,,,,,,,,,,,,,,,,,,,,,,,,,,,,,,,,,,,,,,,,,,,,,,,,,,,,,,,,,,,,,,,,,,,,,,,,,,,,,,,,,,,,,,,,,,,,,,,,,,,,,,,,,,,,,,,,,,,,,,,,,,,,,,,,,,,,,,,,,,,,,,,,
,,,,,,60b644e05d894519db62a451,62c538b4b7d37a19065d9650,2022-07-06_09h25.15.978,Colour_Asymmetry_Pilot,2022.1.3,Win32,60.01680471,62c50e9c1127f2cd403a315f,0,111,111,131,1,twofour,,,,,,,,,,,,,,,,,,,,,,,,,,,,,,,,,,,,,,,,,,,,,,,,,,,,,,,,,,,,,,,,,,,,,,,,,,,,,,,,,,,,,,,,,,,,,,,,,,,,,,,,,,,,,,,,,,,,,,,,,,,,,,,,,,,,,,,,,,,,,,,,,,,,,,,,,,,,,
,,,,,,60b644e05d894519db62a451,62c538b4b7d37a19065d9650,2022-07-06_09h25.15.978,Colour_Asymmetry_Pilot,2022.1.3,Win32,60.01680471,62c50e9c1127f2cd403a315f,0,112,112,53,1,threefour,,,,,,,,,,,,,,,,,,,,,,,,,,,,,,,,,,,,,,,,,,,,,,,,,,,,,,,,,,,,,,,,,,,,,,,,,,,,,,,,,,,,,,,,,,,,,,,,,,,,,,,,,,,,,,,,,,,,,,,,,,,,,,,,,,,,,,,,,,,,,,,,,,,,,,,,,,,,,
,,,,,,60b644e05d894519db62a451,62c538b4b7d37a19065d9650,2022-07-06_09h25.15.978,Colour_Asymmetry_Pilot,2022.1.3,Win32,60.01680471,62c50e9c1127f2cd403a315f,0,113,113,10,1,twoone,,,,,,,,,,,,,,,,,,,,,,,,,,,,,,,,,,,,,,,,,,,,,,,,,,,,,,,,,,,,,,,,,,,,,,,,,,,,,,,,,,,,,,,,,,,,,,,,,,,,,,,,,,,,,,,,,,,,,,,,,,,,,,,,,,,,,,,,,,,,,,,,,,,,,,,,,,,,,
,,,,,,60b644e05d894519db62a451,62c538b4b7d37a19065d9650,2022-07-06_09h25.15.978,Colour_Asymmetry_Pilot,2022.1.3,Win32,60.01680471,62c50e9c1127f2cd403a315f,0,114,114,76,1,threeone,,,,,,,,,,,,,,,,,,,,,,,,,,,,,,,,,,,,,,,,,,,,,,,,,,,,,,,,,,,,,,,,,,,,,,,,,,,,,,,,,,,,,,,,,,,,,,,,,,,,,,,,,,,,,,,,,,,,,,,,,,,,,,,,,,,,,,,,,,,,,,,,,,,,,,,,,,,,,
,,,,,,60b644e05d894519db62a451,62c538b4b7d37a19065d9650,2022-07-06_09h25.15.978,Colour_Asymmetry_Pilot,2022.1.3,Win32,60.01680471,62c50e9c1127f2cd403a315f,0,115,115,42,1,twoone,,,,,,,,,,,,,,,,,,,,,,,,,,,,,,,,,,,,,,,,,,,,,,,,,,,,,,,,,,,,,,,,,,,,,,,,,,,,,,,,,,,,,,,,,,,,,,,,,,,,,,,,,,,,,,,,,,,,,,,,,,,,,,,,,,,,,,,,,,,,,,,,,,,,,,,,,,,,,
,,,,,,60b644e05d894519db62a451,62c538b4b7d37a19065d9650,2022-07-06_09h25.15.978,Colour_Asymmetry_Pilot,2022.1.3,Win32,60.01680471,62c50e9c1127f2cd403a315f,0,116,116,157,1,threefour,,,,,,,,,,,,,,,,,,,,,,,,,,,,,,,,,,,,,,,,,,,,,,,,,,,,,,,,,,,,,,,,,,,,,,,,,,,,,,,,,,,,,,,,,,,,,,,,,,,,,,,,,,,,,,,,,,,,,,,,,,,,,,,,,,,,,,,,,,,,,,,,,,,,,,,,,,,,,
,,,,,,60b644e05d894519db62a451,62c538b4b7d37a19065d9650,2022-07-06_09h25.15.978,Colour_Asymmetry_Pilot,2022.1.3,Win32,60.01680471,62c50e9c1127f2cd403a315f,0,117,117,146,1,twoone,,,,,,,,,,,,,,,,,,,,,,,,,,,,,,,,,,,,,,,,,,,,,,,,,,,,,,,,,,,,,,,,,,,,,,,,,,,,,,,,,,,,,,,,,,,,,,,,,,,,,,,,,,,,,,,,,,,,,,,,,,,,,,,,,,,,,,,,,,,,,,,,,,,,,,,,,,,,,
,,,,,,60b644e05d894519db62a451,62c538b4b7d37a19065d9650,2022-07-06_09h25.15.978,Colour_Asymmetry_Pilot,2022.1.3,Win32,60.01680471,62c50e9c1127f2cd403a315f,0,118,118,145,1,onethree,,,,,,,,,,,,,,,,,,,,,,,,,,,,,,,,,,,,,,,,,,,,,,,,,,,,,,,,,,,,,,,,,,,,,,,,,,,,,,,,,,,,,,,,,,,,,,,,,,,,,,,,,,,,,,,,,,,,,,,,,,,,,,,,,,,,,,,,,,,,,,,,,,,,,,,,,,,,,
,,,,,,60b644e05d894519db62a451,62c538b4b7d37a19065d9650,2022-07-06_09h25.15.978,Colour_Asymmetry_Pilot,2022.1.3,Win32,60.01680471,62c50e9c1127f2cd403a315f,0,119,119,154,1,twoone,,,,,,,,,,,,,,,,,,,,,,,,,,,,,,,,,,,,,,,,,,,,,,,,,,,,,,,,,,,,,,,,,,,,,,,,,,,,,,,,,,,,,,,,,,,,,,,,,,,,,,,,,,,,,,,,,,,,,,,,,,,,,,,,,,,,,,,,,,,,,,,,,,,,,,,,,,,,,
,,,,,,60b644e05d894519db62a451,62c538b4b7d37a19065d9650,2022-07-06_09h25.15.978,Colour_Asymmetry_Pilot,2022.1.3,Win32,60.01680471,62c50e9c1127f2cd403a315f,0,120,120,150,1,fourtwo,,,,,,,,,,,,,,,,,,,,,,,,,,,,,,,,,,,,,,,,,,,,,,,,,,,,,,,,,,,,,,,,,,,,,,,,,,,,,,,,,,,,,,,,,,,,,,,,,,,,,,,,,,,,,,,,,,,,,,,,,,,,,,,,,,,,,,,,,,,,,,,,,,,,,,,,,,,,,
,,,,,,60b644e05d894519db62a451,62c538b4b7d37a19065d9650,2022-07-06_09h25.15.978,Colour_Asymmetry_Pilot,2022.1.3,Win32,60.01680471,62c50e9c1127f2cd403a315f,0,121,121,30,1,fourtwo,,,,,,,,,,,,,,,,,,,,,,,,,,,,,,,,,,,,,,,,,,,,,,,,,,,,,,,,,,,,,,,,,,,,,,,,,,,,,,,,,,,,,,,,,,,,,,,,,,,,,,,,,,,,,,,,,,,,,,,,,,,,,,,,,,,,,,,,,,,,,,,,,,,,,,,,,,,,,
,,,,,,60b644e05d894519db62a451,62c538b4b7d37a19065d9650,2022-07-06_09h25.15.978,Colour_Asymmetry_Pilot,2022.1.3,Win32,60.01680471,62c50e9c1127f2cd403a315f,0,122,122,7,1,fourthree,,,,,,,,,,,,,,,,,,,,,,,,,,,,,,,,,,,,,,,,,,,,,,,,,,,,,,,,,,,,,,,,,,,,,,,,,,,,,,,,,,,,,,,,,,,,,,,,,,,,,,,,,,,,,,,,,,,,,,,,,,,,,,,,,,,,,,,,,,,,,,,,,,,,,,,,,,,,,
,,,,,,60b644e05d894519db62a451,62c538b4b7d37a19065d9650,2022-07-06_09h25.15.978,Colour_Asymmetry_Pilot,2022.1.3,Win32,60.01680471,62c50e9c1127f2cd403a315f,0,123,123,49,1,onethree,,,,,,,,,,,,,,,,,,,,,,,,,,,,,,,,,,,,,,,,,,,,,,,,,,,,,,,,,,,,,,,,,,,,,,,,,,,,,,,,,,,,,,,,,,,,,,,,,,,,,,,,,,,,,,,,,,,,,,,,,,,,,,,,,,,,,,,,,,,,,,,,,,,,,,,,,,,,,
,,,,,,60b644e05d894519db62a451,62c538b4b7d37a19065d9650,2022-07-06_09h25.15.978,Colour_Asymmetry_Pilot,2022.1.3,Win32,60.01680471,62c50e9c1127f2cd403a315f,0,124,124,4,1,threeone,,,,,,,,,,,,,,,,,,,,,,,,,,,,,,,,,,,,,,,,,,,,,,,,,,,,,,,,,,,,,,,,,,,,,,,,,,,,,,,,,,,,,,,,,,,,,,,,,,,,,,,,,,,,,,,,,,,,,,,,,,,,,,,,,,,,,,,,,,,,,,,,,,,,,,,,,,,,,
,,,,,,60b644e05d894519db62a451,62c538b4b7d37a19065d9650,2022-07-06_09h25.15.978,Colour_Asymmetry_Pilot,2022.1.3,Win32,60.01680471,62c50e9c1127f2cd403a315f,0,125,125,132,1,threeone,,,,,,,,,,,,,,,,,,,,,,,,,,,,,,,,,,,,,,,,,,,,,,,,,,,,,,,,,,,,,,,,,,,,,,,,,,,,,,,,,,,,,,,,,,,,,,,,,,,,,,,,,,,,,,,,,,,,,,,,,,,,,,,,,,,,,,,,,,,,,,,,,,,,,,,,,,,,,
,,,,,,60b644e05d894519db62a451,62c538b4b7d37a19065d9650,2022-07-06_09h25.15.978,Colour_Asymmetry_Pilot,2022.1.3,Win32,60.01680471,62c50e9c1127f2cd403a315f,0,126,126,32,1,onetwo,,,,,,,,,,,,,,,,,,,,,,,,,,,,,,,,,,,,,,,,,,,,,,,,,,,,,,,,,,,,,,,,,,,,,,,,,,,,,,,,,,,,,,,,,,,,,,,,,,,,,,,,,,,,,,,,,,,,,,,,,,,,,,,,,,,,,,,,,,,,,,,,,,,,,,,,,,,,,
,,,,,,60b644e05d894519db62a451,62c538b4b7d37a19065d9650,2022-07-06_09h25.15.978,Colour_Asymmetry_Pilot,2022.1.3,Win32,60.01680471,62c50e9c1127f2cd403a315f,0,127,127,95,1,fourthree,,,,,,,,,,,,,,,,,,,,,,,,,,,,,,,,,,,,,,,,,,,,,,,,,,,,,,,,,,,,,,,,,,,,,,,,,,,,,,,,,,,,,,,,,,,,,,,,,,,,,,,,,,,,,,,,,,,,,,,,,,,,,,,,,,,,,,,,,,,,,,,,,,,,,,,,,,,,,
,,,,,,60b644e05d894519db62a451,62c538b4b7d37a19065d9650,2022-07-06_09h25.15.978,Colour_Asymmetry_Pilot,2022.1.3,Win32,60.01680471,62c50e9c1127f2cd403a315f,0,128,128,83,1,twofour,,,,,,,,,,,,,,,,,,,,,,,,,,,,,,,,,,,,,,,,,,,,,,,,,,,,,,,,,,,,,,,,,,,,,,,,,,,,,,,,,,,,,,,,,,,,,,,,,,,,,,,,,,,,,,,,,,,,,,,,,,,,,,,,,,,,,,,,,,,,,,,,,,,,,,,,,,,,,
,,,,,,60b644e05d894519db62a451,62c538b4b7d37a19065d9650,2022-07-06_09h25.15.978,Colour_Asymmetry_Pilot,2022.1.3,Win32,60.01680471,62c50e9c1127f2cd403a315f,0,129,129,151,1,fourthree,,,,,,,,,,,,,,,,,,,,,,,,,,,,,,,,,,,,,,,,,,,,,,,,,,,,,,,,,,,,,,,,,,,,,,,,,,,,,,,,,,,,,,,,,,,,,,,,,,,,,,,,,,,,,,,,,,,,,,,,,,,,,,,,,,,,,,,,,,,,,,,,,,,,,,,,,,,,,
,,,,,,60b644e05d894519db62a451,62c538b4b7d37a19065d9650,2022-07-06_09h25.15.978,Colour_Asymmetry_Pilot,2022.1.3,Win32,60.01680471,62c50e9c1127f2cd403a315f,0,130,130,0,1,onetwo,,,,,,,,,,,,,,,,,,,,,,,,,,,,,,,,,,,,,,,,,,,,,,,,,,,,,,,,,,,,,,,,,,,,,,,,,,,,,,,,,,,,,,,,,,,,,,,,,,,,,,,,,,,,,,,,,,,,,,,,,,,,,,,,,,,,,,,,,,,,,,,,,,,,,,,,,,,,,
,,,,,,60b644e05d894519db62a451,62c538b4b7d37a19065d9650,2022-07-06_09h25.15.978,Colour_Asymmetry_Pilot,2022.1.3,Win32,60.01680471,62c50e9c1127f2cd403a315f,0,131,131,129,1,onethree,,,,,,,,,,,,,,,,,,,,,,,,,,,,,,,,,,,,,,,,,,,,,,,,,,,,,,,,,,,,,,,,,,,,,,,,,,,,,,,,,,,,,,,,,,,,,,,,,,,,,,,,,,,,,,,,,,,,,,,,,,,,,,,,,,,,,,,,,,,,,,,,,,,,,,,,,,,,,
,,,,,,60b644e05d894519db62a451,62c538b4b7d37a19065d9650,2022-07-06_09h25.15.978,Colour_Asymmetry_Pilot,2022.1.3,Win32,60.01680471,62c50e9c1127f2cd403a315f,0,132,132,45,1,threefour,,,,,,,,,,,,,,,,,,,,,,,,,,,,,,,,,,,,,,,,,,,,,,,,,,,,,,,,,,,,,,,,,,,,,,,,,,,,,,,,,,,,,,,,,,,,,,,,,,,,,,,,,,,,,,,,,,,,,,,,,,,,,,,,,,,,,,,,,,,,,,,,,,,,,,,,,,,,,
,,,,,,60b644e05d894519db62a451,62c538b4b7d37a19065d9650,2022-07-06_09h25.15.978,Colour_Asymmetry_Pilot,2022.1.3,Win32,60.01680471,62c50e9c1127f2cd403a315f,0,133,133,31,1,fourthree,,,,,,,,,,,,,,,,,,,,,,,,,,,,,,,,,,,,,,,,,,,,,,,,,,,,,,,,,,,,,,,,,,,,,,,,,,,,,,,,,,,,,,,,,,,,,,,,,,,,,,,,,,,,,,,,,,,,,,,,,,,,,,,,,,,,,,,,,,,,,,,,,,,,,,,,,,,,,
,,,,,,60b644e05d894519db62a451,62c538b4b7d37a19065d9650,2022-07-06_09h25.15.978,Colour_Asymmetry_Pilot,2022.1.3,Win32,60.01680471,62c50e9c1127f2cd403a315f,0,134,134,85,1,threefour,,,,,,,,,,,,,,,,,,,,,,,,,,,,,,,,,,,,,,,,,,,,,,,,,,,,,,,,,,,,,,,,,,,,,,,,,,,,,,,,,,,,,,,,,,,,,,,,,,,,,,,,,,,,,,,,,,,,,,,,,,,,,,,,,,,,,,,,,,,,,,,,,,,,,,,,,,,,,
,,,,,,60b644e05d894519db62a451,62c538b4b7d37a19065d9650,2022-07-06_09h25.15.978,Colour_Asymmetry_Pilot,2022.1.3,Win32,60.01680471,62c50e9c1127f2cd403a315f,0,135,135,33,1,onethree,,,,,,,,,,,,,,,,,,,,,,,,,,,,,,,,,,,,,,,,,,,,,,,,,,,,,,,,,,,,,,,,,,,,,,,,,,,,,,,,,,,,,,,,,,,,,,,,,,,,,,,,,,,,,,,,,,,,,,,,,,,,,,,,,,,,,,,,,,,,,,,,,,,,,,,,,,,,,
,,,,,,60b644e05d894519db62a451,62c538b4b7d37a19065d9650,2022-07-06_09h25.15.978,Colour_Asymmetry_Pilot,2022.1.3,Win32,60.01680471,62c50e9c1127f2cd403a315f,0,136,136,59,1,twofour,,,,,,,,,,,,,,,,,,,,,,,,,,,,,,,,,,,,,,,,,,,,,,,,,,,,,,,,,,,,,,,,,,,,,,,,,,,,,,,,,,,,,,,,,,,,,,,,,,,,,,,,,,,,,,,,,,,,,,,,,,,,,,,,,,,,,,,,,,,,,,,,,,,,,,,,,,,,,
,,,,,,60b644e05d894519db62a451,62c538b4b7d37a19065d9650,2022-07-06_09h25.15.978,Colour_Asymmetry_Pilot,2022.1.3,Win32,60.01680471,62c50e9c1127f2cd403a315f,0,137,137,144,1,onetwo,,,,,,,,,,,,,,,,,,,,,,,,,,,,,,,,,,,,,,,,,,,,,,,,,,,,,,,,,,,,,,,,,,,,,,,,,,,,,,,,,,,,,,,,,,,,,,,,,,,,,,,,,,,,,,,,,,,,,,,,,,,,,,,,,,,,,,,,,,,,,,,,,,,,,,,,,,,,,
,,,,,,60b644e05d894519db62a451,62c538b4b7d37a19065d9650,2022-07-06_09h25.15.978,Colour_Asymmetry_Pilot,2022.1.3,Win32,60.01680471,62c50e9c1127f2cd403a315f,0,138,138,135,1,fourthree,,,,,,,,,,,,,,,,,,,,,,,,,,,,,,,,,,,,,,,,,,,,,,,,,,,,,,,,,,,,,,,,,,,,,,,,,,,,,,,,,,,,,,,,,,,,,,,,,,,,,,,,,,,,,,,,,,,,,,,,,,,,,,,,,,,,,,,,,,,,,,,,,,,,,,,,,,,,,
,,,,,,60b644e05d894519db62a451,62c538b4b7d37a19065d9650,2022-07-06_09h25.15.978,Colour_Asymmetry_Pilot,2022.1.3,Win32,60.01680471,62c50e9c1127f2cd403a315f,0,139,139,86,1,fourtwo,,,,,,,,,,,,,,,,,,,,,,,,,,,,,,,,,,,,,,,,,,,,,,,,,,,,,,,,,,,,,,,,,,,,,,,,,,,,,,,,,,,,,,,,,,,,,,,,,,,,,,,,,,,,,,,,,,,,,,,,,,,,,,,,,,,,,,,,,,,,,,,,,,,,,,,,,,,,,
,,,,,,60b644e05d894519db62a451,62c538b4b7d37a19065d9650,2022-07-06_09h25.15.978,Colour_Asymmetry_Pilot,2022.1.3,Win32,60.01680471,62c50e9c1127f2cd403a315f,0,140,140,88,1,onetwo,,,,,,,,,,,,,,,,,,,,,,,,,,,,,,,,,,,,,,,,,,,,,,,,,,,,,,,,,,,,,,,,,,,,,,,,,,,,,,,,,,,,,,,,,,,,,,,,,,,,,,,,,,,,,,,,,,,,,,,,,,,,,,,,,,,,,,,,,,,,,,,,,,,,,,,,,,,,,
,,,,,,60b644e05d894519db62a451,62c538b4b7d37a19065d9650,2022-07-06_09h25.15.978,Colour_Asymmetry_Pilot,2022.1.3,Win32,60.01680471,62c50e9c1127f2cd403a315f,0,141,141,107,1,twofour,,,,,,,,,,,,,,,,,,,,,,,,,,,,,,,,,,,,,,,,,,,,,,,,,,,,,,,,,,,,,,,,,,,,,,,,,,,,,,,,,,,,,,,,,,,,,,,,,,,,,,,,,,,,,,,,,,,,,,,,,,,,,,,,,,,,,,,,,,,,,,,,,,,,,,,,,,,,,
,,,,,,60b644e05d894519db62a451,62c538b4b7d37a19065d9650,2022-07-06_09h25.15.978,Colour_Asymmetry_Pilot,2022.1.3,Win32,60.01680471,62c50e9c1127f2cd403a315f,0,142,142,78,1,fourtwo,,,,,,,,,,,,,,,,,,,,,,,,,,,,,,,,,,,,,,,,,,,,,,,,,,,,,,,,,,,,,,,,,,,,,,,,,,,,,,,,,,,,,,,,,,,,,,,,,,,,,,,,,,,,,,,,,,,,,,,,,,,,,,,,,,,,,,,,,,,,,,,,,,,,,,,,,,,,,
,,,,,,60b644e05d894519db62a451,62c538b4b7d37a19065d9650,2022-07-06_09h25.15.978,Colour_Asymmetry_Pilot,2022.1.3,Win32,60.01680471,62c50e9c1127f2cd403a315f,0,143,143,72,1,onetwo,,,,,,,,,,,,,,,,,,,,,,,,,,,,,,,,,,,,,,,,,,,,,,,,,,,,,,,,,,,,,,,,,,,,,,,,,,,,,,,,,,,,,,,,,,,,,,,,,,,,,,,,,,,,,,,,,,,,,,,,,,,,,,,,,,,,,,,,,,,,,,,,,,,,,,,,,,,,,
,,,,,,60b644e05d894519db62a451,62c538b4b7d37a19065d9650,2022-07-06_09h25.15.978,Colour_Asymmetry_Pilot,2022.1.3,Win32,60.01680471,62c50e9c1127f2cd403a315f,0,144,144,93,1,threefour,,,,,,,,,,,,,,,,,,,,,,,,,,,,,,,,,,,,,,,,,,,,,,,,,,,,,,,,,,,,,,,,,,,,,,,,,,,,,,,,,,,,,,,,,,,,,,,,,,,,,,,,,,,,,,,,,,,,,,,,,,,,,,,,,,,,,,,,,,,,,,,,,,,,,,,,,,,,,
,,,,,,60b644e05d894519db62a451,62c538b4b7d37a19065d9650,2022-07-06_09h25.15.978,Colour_Asymmetry_Pilot,2022.1.3,Win32,60.01680471,62c50e9c1127f2cd403a315f,0,145,145,109,1,threefour,,,,,,,,,,,,,,,,,,,,,,,,,,,,,,,,,,,,,,,,,,,,,,,,,,,,,,,,,,,,,,,,,,,,,,,,,,,,,,,,,,,,,,,,,,,,,,,,,,,,,,,,,,,,,,,,,,,,,,,,,,,,,,,,,,,,,,,,,,,,,,,,,,,,,,,,,,,,,
,,,,,,60b644e05d894519db62a451,62c538b4b7d37a19065d9650,2022-07-06_09h25.15.978,Colour_Asymmetry_Pilot,2022.1.3,Win32,60.01680471,62c50e9c1127f2cd403a315f,0,146,146,16,1,onetwo,,,,,,,,,,,,,,,,,,,,,,,,,,,,,,,,,,,,,,,,,,,,,,,,,,,,,,,,,,,,,,,,,,,,,,,,,,,,,,,,,,,,,,,,,,,,,,,,,,,,,,,,,,,,,,,,,,,,,,,,,,,,,,,,,,,,,,,,,,,,,,,,,,,,,,,,,,,,,
,,,,,,60b644e05d894519db62a451,62c538b4b7d37a19065d9650,2022-07-06_09h25.15.978,Colour_Asymmetry_Pilot,2022.1.3,Win32,60.01680471,62c50e9c1127f2cd403a315f,0,147,147,67,1,twofour,,,,,,,,,,,,,,,,,,,,,,,,,,,,,,,,,,,,,,,,,,,,,,,,,,,,,,,,,,,,,,,,,,,,,,,,,,,,,,,,,,,,,,,,,,,,,,,,,,,,,,,,,,,,,,,,,,,,,,,,,,,,,,,,,,,,,,,,,,,,,,,,,,,,,,,,,,,,,
,,,,,,60b644e05d894519db62a451,62c538b4b7d37a19065d9650,2022-07-06_09h25.15.978,Colour_Asymmetry_Pilot,2022.1.3,Win32,60.01680471,62c50e9c1127f2cd403a315f,0,148,148,5,1,threefour,,,,,,,,,,,,,,,,,,,,,,,,,,,,,,,,,,,,,,,,,,,,,,,,,,,,,,,,,,,,,,,,,,,,,,,,,,,,,,,,,,,,,,,,,,,,,,,,,,,,,,,,,,,,,,,,,,,,,,,,,,,,,,,,,,,,,,,,,,,,,,,,,,,,,,,,,,,,,
,,,,,,60b644e05d894519db62a451,62c538b4b7d37a19065d9650,2022-07-06_09h25.15.978,Colour_Asymmetry_Pilot,2022.1.3,Win32,60.01680471,62c50e9c1127f2cd403a315f,0,149,149,128,1,onetwo,,,,,,,,,,,,,,,,,,,,,,,,,,,,,,,,,,,,,,,,,,,,,,,,,,,,,,,,,,,,,,,,,,,,,,,,,,,,,,,,,,,,,,,,,,,,,,,,,,,,,,,,,,,,,,,,,,,,,,,,,,,,,,,,,,,,,,,,,,,,,,,,,,,,,,,,,,,,,
,,,,,,60b644e05d894519db62a451,62c538b4b7d37a19065d9650,2022-07-06_09h25.15.978,Colour_Asymmetry_Pilot,2022.1.3,Win32,60.01680471,62c50e9c1127f2cd403a315f,0,150,150,141,1,threefour,,,,,,,,,,,,,,,,,,,,,,,,,,,,,,,,,,,,,,,,,,,,,,,,,,,,,,,,,,,,,,,,,,,,,,,,,,,,,,,,,,,,,,,,,,,,,,,,,,,,,,,,,,,,,,,,,,,,,,,,,,,,,,,,,,,,,,,,,,,,,,,,,,,,,,,,,,,,,
,,,,,,60b644e05d894519db62a451,62c538b4b7d37a19065d9650,2022-07-06_09h25.15.978,Colour_Asymmetry_Pilot,2022.1.3,Win32,60.01680471,62c50e9c1127f2cd403a315f,0,151,151,57,1,onethree,,,,,,,,,,,,,,,,,,,,,,,,,,,,,,,,,,,,,,,,,,,,,,,,,,,,,,,,,,,,,,,,,,,,,,,,,,,,,,,,,,,,,,,,,,,,,,,,,,,,,,,,,,,,,,,,,,,,,,,,,,,,,,,,,,,,,,,,,,,,,,,,,,,,,,,,,,,,,
,,,,,,60b644e05d894519db62a451,62c538b4b7d37a19065d9650,2022-07-06_09h25.15.978,Colour_Asymmetry_Pilot,2022.1.3,Win32,60.01680471,62c50e9c1127f2cd403a315f,0,152,152,60,1,threeone,,,,,,,,,,,,,,,,,,,,,,,,,,,,,,,,,,,,,,,,,,,,,,,,,,,,,,,,,,,,,,,,,,,,,,,,,,,,,,,,,,,,,,,,,,,,,,,,,,,,,,,,,,,,,,,,,,,,,,,,,,,,,,,,,,,,,,,,,,,,,,,,,,,,,,,,,,,,,
,,,,,,60b644e05d894519db62a451,62c538b4b7d37a19065d9650,2022-07-06_09h25.15.978,Colour_Asymmetry_Pilot,2022.1.3,Win32,60.01680471,62c50e9c1127f2cd403a315f,0,153,153,35,1,twofour,,,,,,,,,,,,,,,,,,,,,,,,,,,,,,,,,,,,,,,,,,,,,,,,,,,,,,,,,,,,,,,,,,,,,,,,,,,,,,,,,,,,,,,,,,,,,,,,,,,,,,,,,,,,,,,,,,,,,,,,,,,,,,,,,,,,,,,,,,,,,,,,,,,,,,,,,,,,,
,,,,,,60b644e05d894519db62a451,62c538b4b7d37a19065d9650,2022-07-06_09h25.15.978,Colour_Asymmetry_Pilot,2022.1.3,Win32,60.01680471,62c50e9c1127f2cd403a315f,0,154,154,103,1,fourthree,,,,,,,,,,,,,,,,,,,,,,,,,,,,,,,,,,,,,,,,,,,,,,,,,,,,,,,,,,,,,,,,,,,,,,,,,,,,,,,,,,,,,,,,,,,,,,,,,,,,,,,,,,,,,,,,,,,,,,,,,,,,,,,,,,,,,,,,,,,,,,,,,,,,,,,,,,,,,
,,,,,,60b644e05d894519db62a451,62c538b4b7d37a19065d9650,2022-07-06_09h25.15.978,Colour_Asymmetry_Pilot,2022.1.3,Win32,60.01680471,62c50e9c1127f2cd403a315f,0,155,155,99,1,twofour,,,,,,,,,,,,,,,,,,,,,,,,,,,,,,,,,,,,,,,,,,,,,,,,,,,,,,,,,,,,,,,,,,,,,,,,,,,,,,,,,,,,,,,,,,,,,,,,,,,,,,,,,,,,,,,,,,,,,,,,,,,,,,,,,,,,,,,,,,,,,,,,,,,,,,,,,,,,,
,,,,,,60b644e05d894519db62a451,62c538b4b7d37a19065d9650,2022-07-06_09h25.15.978,Colour_Asymmetry_Pilot,2022.1.3,Win32,60.01680471,62c50e9c1127f2cd403a315f,0,156,156,54,1,fourtwo,,,,,,,,,,,,,,,,,,,,,,,,,,,,,,,,,,,,,,,,,,,,,,,,,,,,,,,,,,,,,,,,,,,,,,,,,,,,,,,,,,,,,,,,,,,,,,,,,,,,,,,,,,,,,,,,,,,,,,,,,,,,,,,,,,,,,,,,,,,,,,,,,,,,,,,,,,,,,
,,,,,,60b644e05d894519db62a451,62c538b4b7d37a19065d9650,2022-07-06_09h25.15.978,Colour_Asymmetry_Pilot,2022.1.3,Win32,60.01680471,62c50e9c1127f2cd403a315f,0,157,157,40,1,onetwo,,,,,,,,,,,,,,,,,,,,,,,,,,,,,,,,,,,,,,,,,,,,,,,,,,,,,,,,,,,,,,,,,,,,,,,,,,,,,,,,,,,,,,,,,,,,,,,,,,,,,,,,,,,,,,,,,,,,,,,,,,,,,,,,,,,,,,,,,,,,,,,,,,,,,,,,,,,,,
,,,,,,60b644e05d894519db62a451,62c538b4b7d37a19065d9650,2022-07-06_09h25.15.978,Colour_Asymmetry_Pilot,2022.1.3,Win32,60.01680471,62c50e9c1127f2cd403a315f,0,158,158,80,1,onetwo,,,,,,,,,,,,,,,,,,,,,,,,,,,,,,,,,,,,,,,,,,,,,,,,,,,,,,,,,,,,,,,,,,,,,,,,,,,,,,,,,,,,,,,,,,,,,,,,,,,,,,,,,,,,,,,,,,,,,,,,,,,,,,,,,,,,,,,,,,,,,,,,,,,,,,,,,,,,,
,,,,,,60b644e05d894519db62a451,62c538b4b7d37a19065d9650,2022-07-06_09h25.15.978,Colour_Asymmetry_Pilot,2022.1.3,Win32,60.01680471,62c50e9c1127f2cd403a315f,0,159,159,110,1,fourtwo,,,,,,,,,,,,,,,,,,,,,,,,,,,,,,,,,,,,,,,,,,,,,,,,,,,,,,,,,,,,,,,,,,,,,,,,,,,,,,,,,,,,,,,,,,,,,,,,,,,,,,,,,,,,,,,,,,,,,,,,,,,,,,,,,,,,,,,,,,,,,,,,,,,,,,,,,,,,,
,,,,,,60b644e05d894519db62a451,62c538b4b7d37a19065d9650,2022-07-06_09h25.15.978,Colour_Asymmetry_Pilot,2022.1.3,Win32,60.01680471,62c50e9c1127f2cd403a315f,0,160,160,38,1,fourtwo,,,,,,,,,,,,,,,,,,,,,,,,,,,,,,,,,,,,,,,,,,,,,,,,,,,,,,,,,,,,,,,,,,,,,,,,,,,,,,,,,,,,,,,,,,,,,,,,,,,,,,,,,,,,,,,,,,,,,,,,,,,,,,,,,,,,,,,,,,,,,,,,,,,,,,,,,,,,,
,,,,,,60b644e05d894519db62a451,62c538b4b7d37a19065d9650,2022-07-06_09h25.15.978,Colour_Asymmetry_Pilot,2022.1.3,Win32,60.01680471,62c50e9c1127f2cd403a315f,0,161,161,140,1,threeone,,,,,,,,,,,,,,,,,,,,,,,,,,,,,,,,,,,,,,,,,,,,,,,,,,,,,,,,,,,,,,,,,,,,,,,,,,,,,,,,,,,,,,,,,,,,,,,,,,,,,,,,,,,,,,,,,,,,,,,,,,,,,,,,,,,,,,,,,,,,,,,,,,,,,,,,,,,,,
,,,,,,60b644e05d894519db62a451,62c538b4b7d37a19065d9650,2022-07-06_09h25.15.978,Colour_Asymmetry_Pilot,2022.1.3,Win32,60.01680471,62c50e9c1127f2cd403a315f,,,,,,,space,25.1568,space,2.1265,space,57.9989,space,25.8111,space,4.6123,space,6.4952,"[0.23120000000000007,-0.7726,-0.34120000000000006]",threefour,"[-0.10599999999999998,-0.15300000000000002,0.15280000000000005]",2,18.2333,62,-30,1,0,0,response3disk_5,-8,0,1,0,0,rectangle_8,-8,0,1,0,0,3,-8,0,1,0,0,0,0,0,0,1,,,,,,,,,,,,,,,,,,,,,,,,,,,,,,,,,,,,,,,,,,,,,,,,,,,,,,,,,,,,,,,,,,,,,,,,,,,,,,,,,,,,,,,,,,,,,,,,,,,,,,,,,,,,,,,,
,,,,,,60b644e05d894519db62a451,62c538b4b7d37a19065d9650,2022-07-06_09h25.15.978,Colour_Asymmetry_Pilot,2022.1.3,Win32,60.01680471,62c50e9c1127f2cd403a315f,,,,,,,,,,,,,,,,,,,"[-0.0040000000000000036,0.02739999999999987,-0.08239999999999992]",onethree,"[-0.9296,-0.12959999999999994,-0.043199999999999905]",2,11.1903,49,-28,1,0,0,response3disk_5,15,-6,1,0,0,rectangle_8,15,-6,1,0,0,3,15,-6,1,0,0,1,0,1,0,1,,,,,,,,,,,,,,,,,,,,,,,,,,,,,,,,,,,,,,,,,,,,,,,,,,,,,,,,,,,,,,,,,,,,,,,,,,,,,,,,,,,,,,,,,,,,,,,,,,,,,,,,,,,,,,,,
,,,,,,60b644e05d894519db62a451,62c538b4b7d37a19065d9650,2022-07-06_09h25.15.978,Colour_Asymmetry_Pilot,2022.1.3,Win32,60.01680471,62c50e9c1127f2cd403a315f,,,,,,,,,,,,,,,,,,,"[0.19199999999999995,0.18419999999999992,0.5136000000000001]",fourtwo,"[-0.34920000000000007,-0.702,-0.5216]",2,9.4619,49,-29,1,0,0,response3disk_5,-4,7,1,0,0,rectangle_8,-4,7,1,0,0,3,-4,7,1,0,0,2,0,2,0,1,,,,,,,,,,,,,,,,,,,,,,,,,,,,,,,,,,,,,,,,,,,,,,,,,,,,,,,,,,,,,,,,,,,,,,,,,,,,,,,,,,,,,,,,,,,,,,,,,,,,,,,,,,,,,,,,
,,,,,,60b644e05d894519db62a451,62c538b4b7d37a19065d9650,2022-07-06_09h25.15.978,Colour_Asymmetry_Pilot,2022.1.3,Win32,60.01680471,62c50e9c1127f2cd403a315f,,,,,,,,,,,,,,,,,,,"[-0.5452,-0.608,0.2470000000000001]",onethree,"[-0.8198,-0.5138,-0.7492000000000001]",-2,3.394,-56,-19,1,0,0,response5disk_5,-23,-7,1,0,0,rectangle_8,-23,-7,1,0,0,3,-23,-7,1,0,0,3,0,3,0,1,,,,,,,,,,,,,,,,,,,,,,,,,,,,,,,,,,,,,,,,,,,,,,,,,,,,,,,,,,,,,,,,,,,,,,,,,,,,,,,,,,,,,,,,,,,,,,,,,,,,,,,,,,,,,,,,
,,,,,,60b644e05d894519db62a451,62c538b4b7d37a19065d9650,2022-07-06_09h25.15.978,Colour_Asymmetry_Pilot,2022.1.3,Win32,60.01680471,62c50e9c1127f2cd403a315f,,,,,,,,,,,,,,,,,,,"[0.0351999999999999,0.41159999999999997,0.0038000000000000256]",threeone,"[-0.10599999999999998,-0.15300000000000002,0.15280000000000005]",-3,2.9071,-61,33,1,0,0,response7disk_5,-15,1,1,0,0,rectangle_8,-15,1,1,0,0,3,-15,1,1,0,0,4,0,4,0,1,,,,,,,,,,,,,,,,,,,,,,,,,,,,,,,,,,,,,,,,,,,,,,,,,,,,,,,,,,,,,,,,,,,,,,,,,,,,,,,,,,,,,,,,,,,,,,,,,,,,,,,,,,,,,,,,
,,,,,,60b644e05d894519db62a451,62c538b4b7d37a19065d9650,2022-07-06_09h25.15.978,Colour_Asymmetry_Pilot,2022.1.3,Win32,60.01680471,62c50e9c1127f2cd403a315f,,,,,,,,,,,,,,,,,,,"[-0.45899999999999996,-0.3256,-0.9374]",onethree,"[0.9686000000000001,0.3802000000000001,0.19999999999999996]",-4,2.0837,-45,98,1,0,0,response7disk_5,7,-8,1,0,0,rectangle_8,55,24,1,0,0,3,-5,0,1,0,0,5,0,5,0,1,response1disk_7,6,rectangle_4,,,,,,,,,,,,,,,,,,,,,,,,,,,,,,,,,,,,,,,,,,,,,,,,,,,,,,,,,,,,,,,,,,,,,,,,,,,,,,,,,,,,,,,,,,,,,,,,,,,,,,,,,,,,,
,,,,,,60b644e05d894519db62a451,62c538b4b7d37a19065d9650,2022-07-06_09h25.15.978,Colour_Asymmetry_Pilot,2022.1.3,Win32,60.01680471,62c50e9c1127f2cd403a315f,,,,,,,,,,,,,,,,,,,"[-0.6235999999999999,-0.6786,-0.08239999999999992]",twoone,"[-0.30200000000000005,0.14500000000000002,0.2784]",2,3.2615,45,-22,1,0,0,response3disk_5,-3,-5,1,0,0,rectangle_8,-3,-5,1,0,0,3,-3,-5,1,0,0,6,0,6,0,1,,,,,,,,,,,,,,,,,,,,,,,,,,,,,,,,,,,,,,,,,,,,,,,,,,,,,,,,,,,,,,,,,,,,,,,,,,,,,,,,,,,,,,,,,,,,,,,,,,,,,,,,,,,,,,,,
,,,,,,60b644e05d894519db62a451,62c538b4b7d37a19065d9650,2022-07-06_09h25.15.978,Colour_Asymmetry_Pilot,2022.1.3,Win32,60.01680471,62c50e9c1127f2cd403a315f,,,,,,,,,,,,,,,,,,,,threeone,,-3,2.4066,,,,,,,,,,,,,,,,,,,,,,,,,,,,,,,,space,47.3576,"[0.3568,-0.20799999999999996,-0.9844]","[-0.30200000000000005,0.14500000000000002,0.2784]",-77,47,1,0,0,response7disk,-1,-4,1,0,0,rectangle,91,42,1,0,0,response1disk_3,3,3,5.0472,1,15,-4,1,0,0,rectangle,0,0,0,161,1,80,second,,,,,,,,,,,,,,,,,,,,,,,,,,,,,,,,,,,,,,,,,,,,,,,,,,,,,,,,,,,,,,,,,,,,,,
,,,,,,60b644e05d894519db62a451,62c538b4b7d37a19065d9650,2022-07-06_09h25.15.978,Colour_Asymmetry_Pilot,2022.1.3,Win32,60.01680471,62c50e9c1127f2cd403a315f,,,,,,,,,,,,,,,,,,,,fourthree,,-2,2.402,,,,,,,,,,,,,,,,,,,,,,,,,,,,,,,,,,"[-0.9766,-0.34920000000000007,0.2156]","[-0.4902000000000001,0.2704,-0.45899999999999996]",-69,-45,1,0,0,response5disk,-1,1,1,0,0,rectangle,-1,1,1,0,0,,3,2,0.0022,0,-1,1,1,0,0,,0,1,1,158,1,77,second,,,,,,,,,,,,,,,,,,,,,,,,,,,,,,,,,,,,,,,,,,,,,,,,,,,,,,,,,,,,,,,,,,,,,,
,,,,,,60b644e05d894519db62a451,62c538b4b7d37a19065d9650,2022-07-06_09h25.15.978,Colour_Asymmetry_Pilot,2022.1.3,Win32,60.01680471,62c50e9c1127f2cd403a315f,,,,,,,,,,,,,,,,,,,,threeone,,2,1.1787,,,,,,,,,,,,,,,,,,,,,,,,,,,,,,,,,,"[-0.10599999999999998,-0.10599999999999998,0.5841999999999998]","[-0.5922000000000001,-0.7492000000000001,-0.5296000000000001]",54,-21,1,0,0,response3disk,1,1,1,0,0,rectangle,1,1,1,0,0,,3,3,0.0046,0,1,1,1,0,0,,0,2,2,89,1,8,second,,,,,,,,,,,,,,,,,,,,,,,,,,,,,,,,,,,,,,,,,,,,,,,,,,,,,,,,,,,,,,,,,,,,,,
,,,,,,60b644e05d894519db62a451,62c538b4b7d37a19065d9650,2022-07-06_09h25.15.978,Colour_Asymmetry_Pilot,2022.1.3,Win32,60.01680471,62c50e9c1127f2cd403a315f,,,,,,,,,,,,,,,,,,,,twoone,,-4,1.1047,,,,,,,,,,,,,,,,,,,,,,,,,,,,,,,,,,"[-0.9688,-0.4902000000000001,-0.12159999999999993]","[0.6547999999999998,-0.043199999999999905,-0.011800000000000033]",-32,57,1,0,0,response7disk,-3,2,1,0,0,rectangle,-3,2,1,0,0,,3,1,0.0022,0,-3,2,1,0,0,,0,3,3,121,1,40,second,,,,,,,,,,,,,,,,,,,,,,,,,,,,,,,,,,,,,,,,,,,,,,,,,,,,,,,,,,,,,,,,,,,,,,
,,,,,,60b644e05d894519db62a451,62c538b4b7d37a19065d9650,2022-07-06_09h25.15.978,Colour_Asymmetry_Pilot,2022.1.3,Win32,60.01680471,62c50e9c1127f2cd403a315f,,,,,,,,,,,,,,,,,,,,fourthree,,3,1.5907,,,,,,,,,,,,,,,,,,,,,,,,,,,,,,,,,,"[0.37240000000000006,-0.050999999999999934,-0.5216]","[-0.050999999999999934,-0.6706000000000001,-0.804]",64,37,1,0,0,response1disk,4,2,1,0,0,rectangle,4,2,1,0,0,,3,3,0.0027,0,4,2,1,0,0,,0,4,4,115,1,34,second,,,,,,,,,,,,,,,,,,,,,,,,,,,,,,,,,,,,,,,,,,,,,,,,,,,,,,,,,,,,,,,,,,,,,,
,,,,,,60b644e05d894519db62a451,62c538b4b7d37a19065d9650,2022-07-06_09h25.15.978,Colour_Asymmetry_Pilot,2022.1.3,Win32,60.01680471,62c50e9c1127f2cd403a315f,,,,,,,,,,,,,,,,,,,,twofour,,3,2.3804,,,,,,,,,,,,,,,,,,,,,,,,,,,,,,,,,,"[0.0351999999999999,0.41159999999999997,0.0038000000000000256]","[0.34099999999999997,0.5841999999999998,-0.9844]",76,54,1,0,0,response1disk,-12,5,1,0,0,rectangle,-12,5,1,0,0,,3,1,0.0025,0,-12,5,1,0,0,,0,5,5,72,1,72,first,,,,,,,,,,,,,,,,,,,,,,,,,,,,,,,,,,,,,,,,,,,,,,,,,,,,,,,,,,,,,,,,,,,,,,
,,,,,,60b644e05d894519db62a451,62c538b4b7d37a19065d9650,2022-07-06_09h25.15.978,Colour_Asymmetry_Pilot,2022.1.3,Win32,60.01680471,62c50e9c1127f2cd403a315f,,,,,,,,,,,,,,,,,,,,onetwo,,2,3.1655,,,,,,,,,,,,,,,,,,,,,,,,,,,,,,,,,,"[-0.6235999999999999,-0.6786,-0.08239999999999992]","[-0.9138,-0.5296000000000001,-0.5529999999999999]",68,-42,1,0,0,response3disk,-6,2,1,0,0,rectangle,-6,2,1,0,0,,3,3,0.0028,0,-6,2,1,0,0,,0,6,6,83,1,2,second,,,,,,,,,,,,,,,,,,,,,,,,,,,,,,,,,,,,,,,,,,,,,,,,,,,,,,,,,,,,,,,,,,,,,,
,,,,,,60b644e05d894519db62a451,62c538b4b7d37a19065d9650,2022-07-06_09h25.15.978,Colour_Asymmetry_Pilot,2022.1.3,Win32,60.01680471,62c50e9c1127f2cd403a315f,,,,,,,,,,,,,,,,,,,,twofour,,-3,1.1846,,,,,,,,,,,,,,,,,,,,,,,,,,,,,,,,,,"[1,0.12939999999999996,-1]","[-0.4668,-0.8746,-0.2942]",-76,30,1,0,0,response7disk,-11,7,1,0,0,rectangle,-11,7,1,0,0,,3,3,0.0009,0,-11,7,1,0,0,,0,7,7,146,1,65,second,,,,,,,,,,,,,,,,,,,,,,,,,,,,,,,,,,,,,,,,,,,,,,,,,,,,,,,,,,,,,,,,,,,,,,
,,,,,,60b644e05d894519db62a451,62c538b4b7d37a19065d9650,2022-07-06_09h25.15.978,Colour_Asymmetry_Pilot,2022.1.3,Win32,60.01680471,62c50e9c1127f2cd403a315f,,,,,,,,,,,,,,,,,,,,twoone,,3,1.1336,,,,,,,,,,,,,,,,,,,,,,,,,,,,,,,,,,"[-0.24719999999999998,-0.0354000000000001,0.3175999999999999]","[-0.17659999999999998,0.3253999999999999,0.19999999999999996]",90,52,1,0,0,response1disk,-9,-6,1,0,0,rectangle,-9,-6,1,0,0,,3,2,0.0046,0,-9,-6,1,0,0,,0,8,8,23,1,23,first,,,,,,,,,,,,,,,,,,,,,,,,,,,,,,,,,,,,,,,,,,,,,,,,,,,,,,,,,,,,,,,,,,,,,,
,,,,,,60b644e05d894519db62a451,62c538b4b7d37a19065d9650,2022-07-06_09h25.15.978,Colour_Asymmetry_Pilot,2022.1.3,Win32,60.01680471,62c50e9c1127f2cd403a315f,,,,,,,,,,,,,,,,,,,,twofour,,-4,0.8925,,,,,,,,,,,,,,,,,,,,,,,,,,,,,,,,,,"[-0.050999999999999934,-0.6706000000000001,-0.804]","[-0.4276,0.0038000000000000256,-0.3256]",-33,50,1,0,0,response7disk,10,-1,1,0,0,rectangle,88,-33,1,0,0,response3disk_3,2,2,4.5612,1,6,-3,1,0,0,rectangle,0,9,9,55,1,55,first,,,,,,,,,,,,,,,,,,,,,,,,,,,,,,,,,,,,,,,,,,,,,,,,,,,,,,,,,,,,,,,,,,,,,,
,,,,,,60b644e05d894519db62a451,62c538b4b7d37a19065d9650,2022-07-06_09h25.15.978,Colour_Asymmetry_Pilot,2022.1.3,Win32,60.01680471,62c50e9c1127f2cd403a315f,,,,,,,,,,,,,,,,,,,,fourtwo,,4,2.7555,,,,,,,,,,,,,,,,,,,,,,,,,,,,,,,,,,"[-0.9138,-0.5296000000000001,-0.5529999999999999]","[-0.9138,-0.5296000000000001,-0.5529999999999999]",46,56,1,0,0,response1disk,-3,-5,1,0,0,rectangle,-3,-5,1,0,0,,2,2,0.0005,0,-3,-5,1,0,0,,0,10,10,56,1,56,first,,,,,,,,,,,,,,,,,,,,,,,,,,,,,,,,,,,,,,,,,,,,,,,,,,,,,,,,,,,,,,,,,,,,,,
,,,,,,60b644e05d894519db62a451,62c538b4b7d37a19065d9650,2022-07-06_09h25.15.978,Colour_Asymmetry_Pilot,2022.1.3,Win32,60.01680471,62c50e9c1127f2cd403a315f,,,,,,,,,,,,,,,,,,,,onethree,,2,1.364,,,,,,,,,,,,,,,,,,,,,,,,,,,,,,,,,,"[-0.4746,-0.0354000000000001,0.5449999999999999]","[-0.6942,-0.7648,-0.12959999999999994]",57,-20,1,0,0,response3disk,18,0,1,0,0,rectangle,18,0,1,0,0,,2,1,0.0027,0,18,0,1,0,0,,0,11,11,120,1,39,second,,,,,,,,,,,,,,,,,,,,,,,,,,,,,,,,,,,,,,,,,,,,,,,,,,,,,,,,,,,,,,,,,,,,,,
,,,,,,60b644e05d894519db62a451,62c538b4b7d37a19065d9650,2022-07-06_09h25.15.978,Colour_Asymmetry_Pilot,2022.1.3,Win32,60.01680471,62c50e9c1127f2cd403a315f,,,,,,,,,,,,,,,,,,,,onetwo,,-4,0.727,,,,,,,,,,,,,,,,,,,,,,,,,,,,,,,,,,"[0.2862,0.7802,0.3568]","[0.8115999999999999,-0.0040000000000000036,-0.09819999999999995]",-32,49,1,0,0,response7disk,8,6,1,0,0,rectangle,8,6,1,0,0,,2,2,0.0023,0,8,6,1,0,0,,0,12,12,90,1,9,second,,,,,,,,,,,,,,,,,,,,,,,,,,,,,,,,,,,,,,,,,,,,,,,,,,,,,,,,,,,,,,,,,,,,,,
,,,,,,60b644e05d894519db62a451,62c538b4b7d37a19065d9650,2022-07-06_09h25.15.978,Colour_Asymmetry_Pilot,2022.1.3,Win32,60.01680471,62c50e9c1127f2cd403a315f,,,,,,,,,,,,,,,,,,,,onetwo,,-4,4.1435,,,,,,,,,,,,,,,,,,,,,,,,,,,,,,,,,,"[-0.4668,-0.8746,-0.2942]","[1,0.12939999999999996,-1]",-32,58,1,0,0,response7disk,7,-4,1,0,0,rectangle,7,-4,1,0,0,,2,1,0.0026,0,7,-4,1,0,0,,0,13,13,65,1,65,first,,,,,,,,,,,,,,,,,,,,,,,,,,,,,,,,,,,,,,,,,,,,,,,,,,,,,,,,,,,,,,,,,,,,,,
,,,,,,60b644e05d894519db62a451,62c538b4b7d37a19065d9650,2022-07-06_09h25.15.978,Colour_Asymmetry_Pilot,2022.1.3,Win32,60.01680471,62c50e9c1127f2cd403a315f,,,,,,,,,,,,,,,,,,,,onethree,,-4,1.0597,,,,,,,,,,,,,,,,,,,,,,,,,,,,,,,,,,"[0.23120000000000007,-0.7726,-0.34120000000000006]","[1,0.12939999999999996,-1]",-34,52,1,0,0,response7disk,14,-6,1,0,0,rectangle,14,-6,1,0,0,,2,3,0.0028,0,14,-6,1,0,0,,0,14,14,125,1,44,second,,,,,,,,,,,,,,,,,,,,,,,,,,,,,,,,,,,,,,,,,,,,,,,,,,,,,,,,,,,,,,,,,,,,,,
,,,,,,60b644e05d894519db62a451,62c538b4b7d37a19065d9650,2022-07-06_09h25.15.978,Colour_Asymmetry_Pilot,2022.1.3,Win32,60.01680471,62c50e9c1127f2cd403a315f,,,,,,,,,,,,,,,,,,,,threeone,,-3,0.8834,,,,,,,,,,,,,,,,,,,,,,,,,,,,,,,,,,"[0.8115999999999999,-0.0040000000000000036,-0.09819999999999995]","[0.2862,0.7802,0.3568]",-51,19,1,0,0,response7disk,-6,4,1,0,0,rectangle,-6,4,1,0,0,,2,3,0.0005,0,-6,4,1,0,0,,0,15,15,9,1,9,first,,,,,,,,,,,,,,,,,,,,,,,,,,,,,,,,,,,,,,,,,,,,,,,,,,,,,,,,,,,,,,,,,,,,,,
,,,,,,60b644e05d894519db62a451,62c538b4b7d37a19065d9650,2022-07-06_09h25.15.978,Colour_Asymmetry_Pilot,2022.1.3,Win32,60.01680471,62c50e9c1127f2cd403a315f,,,,,,,,,,,,,,,,,,,,threefour,,3,2.7685,,,,,,,,,,,,,,,,,,,,,,,,,,,,,,,,,,"[0.4196,0.4665999999999999,0.3568]","[0.05879999999999996,0.2784,0.5841999999999998]",67,27,1,0,0,response1disk,-2,1,1,0,0,rectangle,-2,1,1,0,0,,2,3,0.0002,0,-2,1,1,0,0,,0,16,16,66,1,66,first,,,,,,,,,,,,,,,,,,,,,,,,,,,,,,,,,,,,,,,,,,,,,,,,,,,,,,,,,,,,,,,,,,,,,,
,,,,,,60b644e05d894519db62a451,62c538b4b7d37a19065d9650,2022-07-06_09h25.15.978,Colour_Asymmetry_Pilot,2022.1.3,Win32,60.01680471,62c50e9c1127f2cd403a315f,,,,,,,,,,,,,,,,,,,,twofour,,3,3.2155,,,,,,,,,,,,,,,,,,,,,,,,,,,,,,,,,,"[-0.01980000000000004,-0.5138,-0.38039999999999996]","[-0.011800000000000033,-0.906,-0.45100000000000007]",56,46,1,0,0,response1disk,-21,-7,1,0,0,rectangle,-21,-7,1,0,0,,2,2,0.0022,0,-21,-7,1,0,0,,0,17,17,116,1,35,second,,,,,,,,,,,,,,,,,,,,,,,,,,,,,,,,,,,,,,,,,,,,,,,,,,,,,,,,,,,,,,,,,,,,,,
