trials.thisRepN,trials.thisTrialN,trials.thisN,trials.thisIndex,trials.ran,Colourcodes,participant,session,date,expName,psychopyVersion,OS,frameRate,study_id,trials_4.thisRepN,trials_4.thisTrialN,trials_4.thisN,trials_4.thisIndex,trials_4.ran,StimulusPos,key_resp.keys,key_resp.rt,key_resp_2.keys,key_resp_2.rt,key_resp_15.keys,key_resp_15.rt,key_resp_17.keys,key_resp_17.rt,key_resp_9.keys,key_resp_9.rt,key_resp_10.keys,key_resp_10.rt,Circle1_col,Ecc,Circle2_col,similarity,response_time,mouse_5.x,mouse_5.y,mouse_5.leftButton,mouse_5.midButton,mouse_5.rightButton,mouse_5.clicked_name,mouse_10.x,mouse_10.y,mouse_10.leftButton,mouse_10.midButton,mouse_10.rightButton,mouse_10.clicked_name,mouse_7.x,mouse_7.y,mouse_7.leftButton,mouse_7.midButton,mouse_7.rightButton,mouse_7.clicked_name,catchprac,catchnumberprac,mouse_6.x,mouse_6.y,mouse_6.leftButton,mouse_6.midButton,mouse_6.rightButton,mouse_6.clicked_name,duringprac.thisRepN,duringprac.thisTrialN,duringprac.thisN,duringprac.thisIndex,duringprac.ran,key_resp_22.keys,key_resp_22.rt,Circle1_colour,Circle2_colour,mouse.x,mouse.y,mouse.leftButton,mouse.midButton,mouse.rightButton,mouse.clicked_name,mouse_2.x,mouse_2.y,mouse_2.leftButton,mouse_2.midButton,mouse_2.rightButton,mouse_2.clicked_name,mouse_3.x,mouse_3.y,mouse_3.leftButton,mouse_3.midButton,mouse_3.rightButton,catchresponse,catchnumber,response_time_catch,Catch,mouse_11.x,mouse_11.y,mouse_11.leftButton,mouse_11.midButton,mouse_11.rightButton,trials_2.thisRepN,trials_2.thisTrialN,trials_2.thisN,trials_2.thisIndex,trials_2.ran,Colourpair,Temporder,mouse_3.clicked_name,mouse_11.clicked_name,trials_3.thisRepN,trials_3.thisTrialN,trials_3.thisN,trials_3.thisIndex,trials_3.ran,key_resp_instr_Ishi.keys,key_resp_instr_Ishi.rt,Ishi_trial_keyresp.keys,Ishi_textbox.text,Ishi_mouse.x,Ishi_mouse.y,Ishi_mouse.leftButton,Ishi_mouse.midButton,Ishi_mouse.rightButton,Ishi_mouse.clicked_name,Ishi_loop.thisRepN,Ishi_loop.thisTrialN,Ishi_loop.thisN,Ishi_loop.thisIndex,Ishi_loop.ran,imageaddress,textbox.text,mouse_4.x,mouse_4.y,mouse_4.leftButton,mouse_4.midButton,mouse_4.rightButton,mouse_4.clicked_name,textbox_2.text,mouse_8.x,mouse_8.y,mouse_8.leftButton,mouse_8.midButton,mouse_8.rightButton,mouse_8.clicked_name,textbox_3.text,mouse_9.x,mouse_9.y,mouse_9.leftButton,mouse_9.midButton,mouse_9.rightButton,mouse_9.clicked_name,textbox_4.text,mouse_12.x,mouse_12.y,mouse_12.leftButton,mouse_12.midButton,mouse_12.rightButton,mouse_12.clicked_name,textbox_5.text,mouse_13.x,mouse_13.y,mouse_13.leftButton,mouse_13.midButton,mouse_13.rightButton,mouse_13.clicked_name,textbox_6.text,mouse_14.x,mouse_14.y,mouse_14.leftButton,mouse_14.midButton,mouse_14.rightButton,mouse_14.clicked_name,textbox_7.text,mouse_15.x,mouse_15.y,mouse_15.leftButton,mouse_15.midButton,mouse_15.rightButton,mouse_15.clicked_name
0,0,0,58,1,,613ede27dc808d8880e38ee2,62c53a07efe3f624ee48cfec,2022-07-06_08h30.54.260,Colour_Asymmetry_Pilot,2022.1.3,Win32,60.12506013,62c50e9c1127f2cd403a315f,,,,,,,,,,,,,,,,,,,,,,,,,,,,,,,,,,,,,,,,,,,,,,,,,,,,,,,,,,,,,,,,,,,,,,,,,,,,,,,,,,,,,,,,,,,,,,,,,,,,,,,,,,,,,,,,,,,,,,,,,,,,,,,,,,,,,,,,,,,,,,,,,,,,,,,,,,,,,,,,,,,
0,1,1,65,1,,613ede27dc808d8880e38ee2,62c53a07efe3f624ee48cfec,2022-07-06_08h30.54.260,Colour_Asymmetry_Pilot,2022.1.3,Win32,60.12506013,62c50e9c1127f2cd403a315f,,,,,,,,,,,,,,,,,,,,,,,,,,,,,,,,,,,,,,,,,,,,,,,,,,,,,,,,,,,,,,,,,,,,,,,,,,,,,,,,,,,,,,,,,,,,,,,,,,,,,,,,,,,,,,,,,,,,,,,,,,,,,,,,,,,,,,,,,,,,,,,,,,,,,,,,,,,,,,,,,,,
0,2,2,75,1,,613ede27dc808d8880e38ee2,62c53a07efe3f624ee48cfec,2022-07-06_08h30.54.260,Colour_Asymmetry_Pilot,2022.1.3,Win32,60.12506013,62c50e9c1127f2cd403a315f,,,,,,,,,,,,,,,,,,,,,,,,,,,,,,,,,,,,,,,,,,,,,,,,,,,,,,,,,,,,,,,,,,,,,,,,,,,,,,,,,,,,,,,,,,,,,,,,,,,,,,,,,,,,,,,,,,,,,,,,,,,,,,,,,,,,,,,,,,,,,,,,,,,,,,,,,,,,,,,,,,,
0,3,3,47,1,,613ede27dc808d8880e38ee2,62c53a07efe3f624ee48cfec,2022-07-06_08h30.54.260,Colour_Asymmetry_Pilot,2022.1.3,Win32,60.12506013,62c50e9c1127f2cd403a315f,,,,,,,,,,,,,,,,,,,,,,,,,,,,,,,,,,,,,,,,,,,,,,,,,,,,,,,,,,,,,,,,,,,,,,,,,,,,,,,,,,,,,,,,,,,,,,,,,,,,,,,,,,,,,,,,,,,,,,,,,,,,,,,,,,,,,,,,,,,,,,,,,,,,,,,,,,,,,,,,,,,
0,4,4,15,1,,613ede27dc808d8880e38ee2,62c53a07efe3f624ee48cfec,2022-07-06_08h30.54.260,Colour_Asymmetry_Pilot,2022.1.3,Win32,60.12506013,62c50e9c1127f2cd403a315f,,,,,,,,,,,,,,,,,,,,,,,,,,,,,,,,,,,,,,,,,,,,,,,,,,,,,,,,,,,,,,,,,,,,,,,,,,,,,,,,,,,,,,,,,,,,,,,,,,,,,,,,,,,,,,,,,,,,,,,,,,,,,,,,,,,,,,,,,,,,,,,,,,,,,,,,,,,,,,,,,,,
0,5,5,45,1,,613ede27dc808d8880e38ee2,62c53a07efe3f624ee48cfec,2022-07-06_08h30.54.260,Colour_Asymmetry_Pilot,2022.1.3,Win32,60.12506013,62c50e9c1127f2cd403a315f,,,,,,,,,,,,,,,,,,,,,,,,,,,,,,,,,,,,,,,,,,,,,,,,,,,,,,,,,,,,,,,,,,,,,,,,,,,,,,,,,,,,,,,,,,,,,,,,,,,,,,,,,,,,,,,,,,,,,,,,,,,,,,,,,,,,,,,,,,,,,,,,,,,,,,,,,,,,,,,,,,,
0,6,6,50,1,,613ede27dc808d8880e38ee2,62c53a07efe3f624ee48cfec,2022-07-06_08h30.54.260,Colour_Asymmetry_Pilot,2022.1.3,Win32,60.12506013,62c50e9c1127f2cd403a315f,,,,,,,,,,,,,,,,,,,,,,,,,,,,,,,,,,,,,,,,,,,,,,,,,,,,,,,,,,,,,,,,,,,,,,,,,,,,,,,,,,,,,,,,,,,,,,,,,,,,,,,,,,,,,,,,,,,,,,,,,,,,,,,,,,,,,,,,,,,,,,,,,,,,,,,,,,,,,,,,,,,
0,7,7,56,1,,613ede27dc808d8880e38ee2,62c53a07efe3f624ee48cfec,2022-07-06_08h30.54.260,Colour_Asymmetry_Pilot,2022.1.3,Win32,60.12506013,62c50e9c1127f2cd403a315f,,,,,,,,,,,,,,,,,,,,,,,,,,,,,,,,,,,,,,,,,,,,,,,,,,,,,,,,,,,,,,,,,,,,,,,,,,,,,,,,,,,,,,,,,,,,,,,,,,,,,,,,,,,,,,,,,,,,,,,,,,,,,,,,,,,,,,,,,,,,,,,,,,,,,,,,,,,,,,,,,,,
0,8,8,74,1,,613ede27dc808d8880e38ee2,62c53a07efe3f624ee48cfec,2022-07-06_08h30.54.260,Colour_Asymmetry_Pilot,2022.1.3,Win32,60.12506013,62c50e9c1127f2cd403a315f,,,,,,,,,,,,,,,,,,,,,,,,,,,,,,,,,,,,,,,,,,,,,,,,,,,,,,,,,,,,,,,,,,,,,,,,,,,,,,,,,,,,,,,,,,,,,,,,,,,,,,,,,,,,,,,,,,,,,,,,,,,,,,,,,,,,,,,,,,,,,,,,,,,,,,,,,,,,,,,,,,,
0,9,9,17,1,,613ede27dc808d8880e38ee2,62c53a07efe3f624ee48cfec,2022-07-06_08h30.54.260,Colour_Asymmetry_Pilot,2022.1.3,Win32,60.12506013,62c50e9c1127f2cd403a315f,,,,,,,,,,,,,,,,,,,,,,,,,,,,,,,,,,,,,,,,,,,,,,,,,,,,,,,,,,,,,,,,,,,,,,,,,,,,,,,,,,,,,,,,,,,,,,,,,,,,,,,,,,,,,,,,,,,,,,,,,,,,,,,,,,,,,,,,,,,,,,,,,,,,,,,,,,,,,,,,,,,
0,10,10,61,1,,613ede27dc808d8880e38ee2,62c53a07efe3f624ee48cfec,2022-07-06_08h30.54.260,Colour_Asymmetry_Pilot,2022.1.3,Win32,60.12506013,62c50e9c1127f2cd403a315f,,,,,,,,,,,,,,,,,,,,,,,,,,,,,,,,,,,,,,,,,,,,,,,,,,,,,,,,,,,,,,,,,,,,,,,,,,,,,,,,,,,,,,,,,,,,,,,,,,,,,,,,,,,,,,,,,,,,,,,,,,,,,,,,,,,,,,,,,,,,,,,,,,,,,,,,,,,,,,,,,,,
0,11,11,9,1,,613ede27dc808d8880e38ee2,62c53a07efe3f624ee48cfec,2022-07-06_08h30.54.260,Colour_Asymmetry_Pilot,2022.1.3,Win32,60.12506013,62c50e9c1127f2cd403a315f,,,,,,,,,,,,,,,,,,,,,,,,,,,,,,,,,,,,,,,,,,,,,,,,,,,,,,,,,,,,,,,,,,,,,,,,,,,,,,,,,,,,,,,,,,,,,,,,,,,,,,,,,,,,,,,,,,,,,,,,,,,,,,,,,,,,,,,,,,,,,,,,,,,,,,,,,,,,,,,,,,,
0,12,12,68,1,,613ede27dc808d8880e38ee2,62c53a07efe3f624ee48cfec,2022-07-06_08h30.54.260,Colour_Asymmetry_Pilot,2022.1.3,Win32,60.12506013,62c50e9c1127f2cd403a315f,,,,,,,,,,,,,,,,,,,,,,,,,,,,,,,,,,,,,,,,,,,,,,,,,,,,,,,,,,,,,,,,,,,,,,,,,,,,,,,,,,,,,,,,,,,,,,,,,,,,,,,,,,,,,,,,,,,,,,,,,,,,,,,,,,,,,,,,,,,,,,,,,,,,,,,,,,,,,,,,,,,
0,13,13,64,1,,613ede27dc808d8880e38ee2,62c53a07efe3f624ee48cfec,2022-07-06_08h30.54.260,Colour_Asymmetry_Pilot,2022.1.3,Win32,60.12506013,62c50e9c1127f2cd403a315f,,,,,,,,,,,,,,,,,,,,,,,,,,,,,,,,,,,,,,,,,,,,,,,,,,,,,,,,,,,,,,,,,,,,,,,,,,,,,,,,,,,,,,,,,,,,,,,,,,,,,,,,,,,,,,,,,,,,,,,,,,,,,,,,,,,,,,,,,,,,,,,,,,,,,,,,,,,,,,,,,,,
0,14,14,83,1,,613ede27dc808d8880e38ee2,62c53a07efe3f624ee48cfec,2022-07-06_08h30.54.260,Colour_Asymmetry_Pilot,2022.1.3,Win32,60.12506013,62c50e9c1127f2cd403a315f,,,,,,,,,,,,,,,,,,,,,,,,,,,,,,,,,,,,,,,,,,,,,,,,,,,,,,,,,,,,,,,,,,,,,,,,,,,,,,,,,,,,,,,,,,,,,,,,,,,,,,,,,,,,,,,,,,,,,,,,,,,,,,,,,,,,,,,,,,,,,,,,,,,,,,,,,,,,,,,,,,,
0,15,15,54,1,,613ede27dc808d8880e38ee2,62c53a07efe3f624ee48cfec,2022-07-06_08h30.54.260,Colour_Asymmetry_Pilot,2022.1.3,Win32,60.12506013,62c50e9c1127f2cd403a315f,,,,,,,,,,,,,,,,,,,,,,,,,,,,,,,,,,,,,,,,,,,,,,,,,,,,,,,,,,,,,,,,,,,,,,,,,,,,,,,,,,,,,,,,,,,,,,,,,,,,,,,,,,,,,,,,,,,,,,,,,,,,,,,,,,,,,,,,,,,,,,,,,,,,,,,,,,,,,,,,,,,
0,16,16,60,1,,613ede27dc808d8880e38ee2,62c53a07efe3f624ee48cfec,2022-07-06_08h30.54.260,Colour_Asymmetry_Pilot,2022.1.3,Win32,60.12506013,62c50e9c1127f2cd403a315f,,,,,,,,,,,,,,,,,,,,,,,,,,,,,,,,,,,,,,,,,,,,,,,,,,,,,,,,,,,,,,,,,,,,,,,,,,,,,,,,,,,,,,,,,,,,,,,,,,,,,,,,,,,,,,,,,,,,,,,,,,,,,,,,,,,,,,,,,,,,,,,,,,,,,,,,,,,,,,,,,,,
0,17,17,70,1,,613ede27dc808d8880e38ee2,62c53a07efe3f624ee48cfec,2022-07-06_08h30.54.260,Colour_Asymmetry_Pilot,2022.1.3,Win32,60.12506013,62c50e9c1127f2cd403a315f,,,,,,,,,,,,,,,,,,,,,,,,,,,,,,,,,,,,,,,,,,,,,,,,,,,,,,,,,,,,,,,,,,,,,,,,,,,,,,,,,,,,,,,,,,,,,,,,,,,,,,,,,,,,,,,,,,,,,,,,,,,,,,,,,,,,,,,,,,,,,,,,,,,,,,,,,,,,,,,,,,,
0,18,18,52,1,,613ede27dc808d8880e38ee2,62c53a07efe3f624ee48cfec,2022-07-06_08h30.54.260,Colour_Asymmetry_Pilot,2022.1.3,Win32,60.12506013,62c50e9c1127f2cd403a315f,,,,,,,,,,,,,,,,,,,,,,,,,,,,,,,,,,,,,,,,,,,,,,,,,,,,,,,,,,,,,,,,,,,,,,,,,,,,,,,,,,,,,,,,,,,,,,,,,,,,,,,,,,,,,,,,,,,,,,,,,,,,,,,,,,,,,,,,,,,,,,,,,,,,,,,,,,,,,,,,,,,
0,19,19,14,1,,613ede27dc808d8880e38ee2,62c53a07efe3f624ee48cfec,2022-07-06_08h30.54.260,Colour_Asymmetry_Pilot,2022.1.3,Win32,60.12506013,62c50e9c1127f2cd403a315f,,,,,,,,,,,,,,,,,,,,,,,,,,,,,,,,,,,,,,,,,,,,,,,,,,,,,,,,,,,,,,,,,,,,,,,,,,,,,,,,,,,,,,,,,,,,,,,,,,,,,,,,,,,,,,,,,,,,,,,,,,,,,,,,,,,,,,,,,,,,,,,,,,,,,,,,,,,,,,,,,,,
0,20,20,22,1,,613ede27dc808d8880e38ee2,62c53a07efe3f624ee48cfec,2022-07-06_08h30.54.260,Colour_Asymmetry_Pilot,2022.1.3,Win32,60.12506013,62c50e9c1127f2cd403a315f,,,,,,,,,,,,,,,,,,,,,,,,,,,,,,,,,,,,,,,,,,,,,,,,,,,,,,,,,,,,,,,,,,,,,,,,,,,,,,,,,,,,,,,,,,,,,,,,,,,,,,,,,,,,,,,,,,,,,,,,,,,,,,,,,,,,,,,,,,,,,,,,,,,,,,,,,,,,,,,,,,,
0,21,21,85,1,,613ede27dc808d8880e38ee2,62c53a07efe3f624ee48cfec,2022-07-06_08h30.54.260,Colour_Asymmetry_Pilot,2022.1.3,Win32,60.12506013,62c50e9c1127f2cd403a315f,,,,,,,,,,,,,,,,,,,,,,,,,,,,,,,,,,,,,,,,,,,,,,,,,,,,,,,,,,,,,,,,,,,,,,,,,,,,,,,,,,,,,,,,,,,,,,,,,,,,,,,,,,,,,,,,,,,,,,,,,,,,,,,,,,,,,,,,,,,,,,,,,,,,,,,,,,,,,,,,,,,
0,22,22,28,1,,613ede27dc808d8880e38ee2,62c53a07efe3f624ee48cfec,2022-07-06_08h30.54.260,Colour_Asymmetry_Pilot,2022.1.3,Win32,60.12506013,62c50e9c1127f2cd403a315f,,,,,,,,,,,,,,,,,,,,,,,,,,,,,,,,,,,,,,,,,,,,,,,,,,,,,,,,,,,,,,,,,,,,,,,,,,,,,,,,,,,,,,,,,,,,,,,,,,,,,,,,,,,,,,,,,,,,,,,,,,,,,,,,,,,,,,,,,,,,,,,,,,,,,,,,,,,,,,,,,,,
0,23,23,49,1,,613ede27dc808d8880e38ee2,62c53a07efe3f624ee48cfec,2022-07-06_08h30.54.260,Colour_Asymmetry_Pilot,2022.1.3,Win32,60.12506013,62c50e9c1127f2cd403a315f,,,,,,,,,,,,,,,,,,,,,,,,,,,,,,,,,,,,,,,,,,,,,,,,,,,,,,,,,,,,,,,,,,,,,,,,,,,,,,,,,,,,,,,,,,,,,,,,,,,,,,,,,,,,,,,,,,,,,,,,,,,,,,,,,,,,,,,,,,,,,,,,,,,,,,,,,,,,,,,,,,,
0,24,24,92,1,,613ede27dc808d8880e38ee2,62c53a07efe3f624ee48cfec,2022-07-06_08h30.54.260,Colour_Asymmetry_Pilot,2022.1.3,Win32,60.12506013,62c50e9c1127f2cd403a315f,,,,,,,,,,,,,,,,,,,,,,,,,,,,,,,,,,,,,,,,,,,,,,,,,,,,,,,,,,,,,,,,,,,,,,,,,,,,,,,,,,,,,,,,,,,,,,,,,,,,,,,,,,,,,,,,,,,,,,,,,,,,,,,,,,,,,,,,,,,,,,,,,,,,,,,,,,,,,,,,,,,
0,25,25,3,1,,613ede27dc808d8880e38ee2,62c53a07efe3f624ee48cfec,2022-07-06_08h30.54.260,Colour_Asymmetry_Pilot,2022.1.3,Win32,60.12506013,62c50e9c1127f2cd403a315f,,,,,,,,,,,,,,,,,,,,,,,,,,,,,,,,,,,,,,,,,,,,,,,,,,,,,,,,,,,,,,,,,,,,,,,,,,,,,,,,,,,,,,,,,,,,,,,,,,,,,,,,,,,,,,,,,,,,,,,,,,,,,,,,,,,,,,,,,,,,,,,,,,,,,,,,,,,,,,,,,,,
0,26,26,73,1,,613ede27dc808d8880e38ee2,62c53a07efe3f624ee48cfec,2022-07-06_08h30.54.260,Colour_Asymmetry_Pilot,2022.1.3,Win32,60.12506013,62c50e9c1127f2cd403a315f,,,,,,,,,,,,,,,,,,,,,,,,,,,,,,,,,,,,,,,,,,,,,,,,,,,,,,,,,,,,,,,,,,,,,,,,,,,,,,,,,,,,,,,,,,,,,,,,,,,,,,,,,,,,,,,,,,,,,,,,,,,,,,,,,,,,,,,,,,,,,,,,,,,,,,,,,,,,,,,,,,,
0,27,27,91,1,,613ede27dc808d8880e38ee2,62c53a07efe3f624ee48cfec,2022-07-06_08h30.54.260,Colour_Asymmetry_Pilot,2022.1.3,Win32,60.12506013,62c50e9c1127f2cd403a315f,,,,,,,,,,,,,,,,,,,,,,,,,,,,,,,,,,,,,,,,,,,,,,,,,,,,,,,,,,,,,,,,,,,,,,,,,,,,,,,,,,,,,,,,,,,,,,,,,,,,,,,,,,,,,,,,,,,,,,,,,,,,,,,,,,,,,,,,,,,,,,,,,,,,,,,,,,,,,,,,,,,
0,28,28,78,1,,613ede27dc808d8880e38ee2,62c53a07efe3f624ee48cfec,2022-07-06_08h30.54.260,Colour_Asymmetry_Pilot,2022.1.3,Win32,60.12506013,62c50e9c1127f2cd403a315f,,,,,,,,,,,,,,,,,,,,,,,,,,,,,,,,,,,,,,,,,,,,,,,,,,,,,,,,,,,,,,,,,,,,,,,,,,,,,,,,,,,,,,,,,,,,,,,,,,,,,,,,,,,,,,,,,,,,,,,,,,,,,,,,,,,,,,,,,,,,,,,,,,,,,,,,,,,,,,,,,,,
0,29,29,77,1,,613ede27dc808d8880e38ee2,62c53a07efe3f624ee48cfec,2022-07-06_08h30.54.260,Colour_Asymmetry_Pilot,2022.1.3,Win32,60.12506013,62c50e9c1127f2cd403a315f,,,,,,,,,,,,,,,,,,,,,,,,,,,,,,,,,,,,,,,,,,,,,,,,,,,,,,,,,,,,,,,,,,,,,,,,,,,,,,,,,,,,,,,,,,,,,,,,,,,,,,,,,,,,,,,,,,,,,,,,,,,,,,,,,,,,,,,,,,,,,,,,,,,,,,,,,,,,,,,,,,,
0,30,30,79,1,,613ede27dc808d8880e38ee2,62c53a07efe3f624ee48cfec,2022-07-06_08h30.54.260,Colour_Asymmetry_Pilot,2022.1.3,Win32,60.12506013,62c50e9c1127f2cd403a315f,,,,,,,,,,,,,,,,,,,,,,,,,,,,,,,,,,,,,,,,,,,,,,,,,,,,,,,,,,,,,,,,,,,,,,,,,,,,,,,,,,,,,,,,,,,,,,,,,,,,,,,,,,,,,,,,,,,,,,,,,,,,,,,,,,,,,,,,,,,,,,,,,,,,,,,,,,,,,,,,,,,
0,31,31,82,1,,613ede27dc808d8880e38ee2,62c53a07efe3f624ee48cfec,2022-07-06_08h30.54.260,Colour_Asymmetry_Pilot,2022.1.3,Win32,60.12506013,62c50e9c1127f2cd403a315f,,,,,,,,,,,,,,,,,,,,,,,,,,,,,,,,,,,,,,,,,,,,,,,,,,,,,,,,,,,,,,,,,,,,,,,,,,,,,,,,,,,,,,,,,,,,,,,,,,,,,,,,,,,,,,,,,,,,,,,,,,,,,,,,,,,,,,,,,,,,,,,,,,,,,,,,,,,,,,,,,,,
0,32,32,23,1,,613ede27dc808d8880e38ee2,62c53a07efe3f624ee48cfec,2022-07-06_08h30.54.260,Colour_Asymmetry_Pilot,2022.1.3,Win32,60.12506013,62c50e9c1127f2cd403a315f,,,,,,,,,,,,,,,,,,,,,,,,,,,,,,,,,,,,,,,,,,,,,,,,,,,,,,,,,,,,,,,,,,,,,,,,,,,,,,,,,,,,,,,,,,,,,,,,,,,,,,,,,,,,,,,,,,,,,,,,,,,,,,,,,,,,,,,,,,,,,,,,,,,,,,,,,,,,,,,,,,,
0,33,33,76,1,,613ede27dc808d8880e38ee2,62c53a07efe3f624ee48cfec,2022-07-06_08h30.54.260,Colour_Asymmetry_Pilot,2022.1.3,Win32,60.12506013,62c50e9c1127f2cd403a315f,,,,,,,,,,,,,,,,,,,,,,,,,,,,,,,,,,,,,,,,,,,,,,,,,,,,,,,,,,,,,,,,,,,,,,,,,,,,,,,,,,,,,,,,,,,,,,,,,,,,,,,,,,,,,,,,,,,,,,,,,,,,,,,,,,,,,,,,,,,,,,,,,,,,,,,,,,,,,,,,,,,
0,34,34,88,1,,613ede27dc808d8880e38ee2,62c53a07efe3f624ee48cfec,2022-07-06_08h30.54.260,Colour_Asymmetry_Pilot,2022.1.3,Win32,60.12506013,62c50e9c1127f2cd403a315f,,,,,,,,,,,,,,,,,,,,,,,,,,,,,,,,,,,,,,,,,,,,,,,,,,,,,,,,,,,,,,,,,,,,,,,,,,,,,,,,,,,,,,,,,,,,,,,,,,,,,,,,,,,,,,,,,,,,,,,,,,,,,,,,,,,,,,,,,,,,,,,,,,,,,,,,,,,,,,,,,,,
0,35,35,20,1,,613ede27dc808d8880e38ee2,62c53a07efe3f624ee48cfec,2022-07-06_08h30.54.260,Colour_Asymmetry_Pilot,2022.1.3,Win32,60.12506013,62c50e9c1127f2cd403a315f,,,,,,,,,,,,,,,,,,,,,,,,,,,,,,,,,,,,,,,,,,,,,,,,,,,,,,,,,,,,,,,,,,,,,,,,,,,,,,,,,,,,,,,,,,,,,,,,,,,,,,,,,,,,,,,,,,,,,,,,,,,,,,,,,,,,,,,,,,,,,,,,,,,,,,,,,,,,,,,,,,,
0,36,36,0,1,,613ede27dc808d8880e38ee2,62c53a07efe3f624ee48cfec,2022-07-06_08h30.54.260,Colour_Asymmetry_Pilot,2022.1.3,Win32,60.12506013,62c50e9c1127f2cd403a315f,,,,,,,,,,,,,,,,,,,,,,,,,,,,,,,,,,,,,,,,,,,,,,,,,,,,,,,,,,,,,,,,,,,,,,,,,,,,,,,,,,,,,,,,,,,,,,,,,,,,,,,,,,,,,,,,,,,,,,,,,,,,,,,,,,,,,,,,,,,,,,,,,,,,,,,,,,,,,,,,,,,
0,37,37,67,1,,613ede27dc808d8880e38ee2,62c53a07efe3f624ee48cfec,2022-07-06_08h30.54.260,Colour_Asymmetry_Pilot,2022.1.3,Win32,60.12506013,62c50e9c1127f2cd403a315f,,,,,,,,,,,,,,,,,,,,,,,,,,,,,,,,,,,,,,,,,,,,,,,,,,,,,,,,,,,,,,,,,,,,,,,,,,,,,,,,,,,,,,,,,,,,,,,,,,,,,,,,,,,,,,,,,,,,,,,,,,,,,,,,,,,,,,,,,,,,,,,,,,,,,,,,,,,,,,,,,,,
0,38,38,10,1,,613ede27dc808d8880e38ee2,62c53a07efe3f624ee48cfec,2022-07-06_08h30.54.260,Colour_Asymmetry_Pilot,2022.1.3,Win32,60.12506013,62c50e9c1127f2cd403a315f,,,,,,,,,,,,,,,,,,,,,,,,,,,,,,,,,,,,,,,,,,,,,,,,,,,,,,,,,,,,,,,,,,,,,,,,,,,,,,,,,,,,,,,,,,,,,,,,,,,,,,,,,,,,,,,,,,,,,,,,,,,,,,,,,,,,,,,,,,,,,,,,,,,,,,,,,,,,,,,,,,,
0,39,39,81,1,,613ede27dc808d8880e38ee2,62c53a07efe3f624ee48cfec,2022-07-06_08h30.54.260,Colour_Asymmetry_Pilot,2022.1.3,Win32,60.12506013,62c50e9c1127f2cd403a315f,,,,,,,,,,,,,,,,,,,,,,,,,,,,,,,,,,,,,,,,,,,,,,,,,,,,,,,,,,,,,,,,,,,,,,,,,,,,,,,,,,,,,,,,,,,,,,,,,,,,,,,,,,,,,,,,,,,,,,,,,,,,,,,,,,,,,,,,,,,,,,,,,,,,,,,,,,,,,,,,,,,
0,40,40,39,1,,613ede27dc808d8880e38ee2,62c53a07efe3f624ee48cfec,2022-07-06_08h30.54.260,Colour_Asymmetry_Pilot,2022.1.3,Win32,60.12506013,62c50e9c1127f2cd403a315f,,,,,,,,,,,,,,,,,,,,,,,,,,,,,,,,,,,,,,,,,,,,,,,,,,,,,,,,,,,,,,,,,,,,,,,,,,,,,,,,,,,,,,,,,,,,,,,,,,,,,,,,,,,,,,,,,,,,,,,,,,,,,,,,,,,,,,,,,,,,,,,,,,,,,,,,,,,,,,,,,,,
0,41,41,29,1,,613ede27dc808d8880e38ee2,62c53a07efe3f624ee48cfec,2022-07-06_08h30.54.260,Colour_Asymmetry_Pilot,2022.1.3,Win32,60.12506013,62c50e9c1127f2cd403a315f,,,,,,,,,,,,,,,,,,,,,,,,,,,,,,,,,,,,,,,,,,,,,,,,,,,,,,,,,,,,,,,,,,,,,,,,,,,,,,,,,,,,,,,,,,,,,,,,,,,,,,,,,,,,,,,,,,,,,,,,,,,,,,,,,,,,,,,,,,,,,,,,,,,,,,,,,,,,,,,,,,,
0,42,42,33,1,,613ede27dc808d8880e38ee2,62c53a07efe3f624ee48cfec,2022-07-06_08h30.54.260,Colour_Asymmetry_Pilot,2022.1.3,Win32,60.12506013,62c50e9c1127f2cd403a315f,,,,,,,,,,,,,,,,,,,,,,,,,,,,,,,,,,,,,,,,,,,,,,,,,,,,,,,,,,,,,,,,,,,,,,,,,,,,,,,,,,,,,,,,,,,,,,,,,,,,,,,,,,,,,,,,,,,,,,,,,,,,,,,,,,,,,,,,,,,,,,,,,,,,,,,,,,,,,,,,,,,
0,43,43,27,1,,613ede27dc808d8880e38ee2,62c53a07efe3f624ee48cfec,2022-07-06_08h30.54.260,Colour_Asymmetry_Pilot,2022.1.3,Win32,60.12506013,62c50e9c1127f2cd403a315f,,,,,,,,,,,,,,,,,,,,,,,,,,,,,,,,,,,,,,,,,,,,,,,,,,,,,,,,,,,,,,,,,,,,,,,,,,,,,,,,,,,,,,,,,,,,,,,,,,,,,,,,,,,,,,,,,,,,,,,,,,,,,,,,,,,,,,,,,,,,,,,,,,,,,,,,,,,,,,,,,,,
0,44,44,44,1,,613ede27dc808d8880e38ee2,62c53a07efe3f624ee48cfec,2022-07-06_08h30.54.260,Colour_Asymmetry_Pilot,2022.1.3,Win32,60.12506013,62c50e9c1127f2cd403a315f,,,,,,,,,,,,,,,,,,,,,,,,,,,,,,,,,,,,,,,,,,,,,,,,,,,,,,,,,,,,,,,,,,,,,,,,,,,,,,,,,,,,,,,,,,,,,,,,,,,,,,,,,,,,,,,,,,,,,,,,,,,,,,,,,,,,,,,,,,,,,,,,,,,,,,,,,,,,,,,,,,,
0,45,45,12,1,,613ede27dc808d8880e38ee2,62c53a07efe3f624ee48cfec,2022-07-06_08h30.54.260,Colour_Asymmetry_Pilot,2022.1.3,Win32,60.12506013,62c50e9c1127f2cd403a315f,,,,,,,,,,,,,,,,,,,,,,,,,,,,,,,,,,,,,,,,,,,,,,,,,,,,,,,,,,,,,,,,,,,,,,,,,,,,,,,,,,,,,,,,,,,,,,,,,,,,,,,,,,,,,,,,,,,,,,,,,,,,,,,,,,,,,,,,,,,,,,,,,,,,,,,,,,,,,,,,,,,
0,46,46,38,1,,613ede27dc808d8880e38ee2,62c53a07efe3f624ee48cfec,2022-07-06_08h30.54.260,Colour_Asymmetry_Pilot,2022.1.3,Win32,60.12506013,62c50e9c1127f2cd403a315f,,,,,,,,,,,,,,,,,,,,,,,,,,,,,,,,,,,,,,,,,,,,,,,,,,,,,,,,,,,,,,,,,,,,,,,,,,,,,,,,,,,,,,,,,,,,,,,,,,,,,,,,,,,,,,,,,,,,,,,,,,,,,,,,,,,,,,,,,,,,,,,,,,,,,,,,,,,,,,,,,,,
0,47,47,18,1,,613ede27dc808d8880e38ee2,62c53a07efe3f624ee48cfec,2022-07-06_08h30.54.260,Colour_Asymmetry_Pilot,2022.1.3,Win32,60.12506013,62c50e9c1127f2cd403a315f,,,,,,,,,,,,,,,,,,,,,,,,,,,,,,,,,,,,,,,,,,,,,,,,,,,,,,,,,,,,,,,,,,,,,,,,,,,,,,,,,,,,,,,,,,,,,,,,,,,,,,,,,,,,,,,,,,,,,,,,,,,,,,,,,,,,,,,,,,,,,,,,,,,,,,,,,,,,,,,,,,,
0,48,48,80,1,,613ede27dc808d8880e38ee2,62c53a07efe3f624ee48cfec,2022-07-06_08h30.54.260,Colour_Asymmetry_Pilot,2022.1.3,Win32,60.12506013,62c50e9c1127f2cd403a315f,,,,,,,,,,,,,,,,,,,,,,,,,,,,,,,,,,,,,,,,,,,,,,,,,,,,,,,,,,,,,,,,,,,,,,,,,,,,,,,,,,,,,,,,,,,,,,,,,,,,,,,,,,,,,,,,,,,,,,,,,,,,,,,,,,,,,,,,,,,,,,,,,,,,,,,,,,,,,,,,,,,
0,49,49,55,1,,613ede27dc808d8880e38ee2,62c53a07efe3f624ee48cfec,2022-07-06_08h30.54.260,Colour_Asymmetry_Pilot,2022.1.3,Win32,60.12506013,62c50e9c1127f2cd403a315f,,,,,,,,,,,,,,,,,,,,,,,,,,,,,,,,,,,,,,,,,,,,,,,,,,,,,,,,,,,,,,,,,,,,,,,,,,,,,,,,,,,,,,,,,,,,,,,,,,,,,,,,,,,,,,,,,,,,,,,,,,,,,,,,,,,,,,,,,,,,,,,,,,,,,,,,,,,,,,,,,,,
0,50,50,87,1,,613ede27dc808d8880e38ee2,62c53a07efe3f624ee48cfec,2022-07-06_08h30.54.260,Colour_Asymmetry_Pilot,2022.1.3,Win32,60.12506013,62c50e9c1127f2cd403a315f,,,,,,,,,,,,,,,,,,,,,,,,,,,,,,,,,,,,,,,,,,,,,,,,,,,,,,,,,,,,,,,,,,,,,,,,,,,,,,,,,,,,,,,,,,,,,,,,,,,,,,,,,,,,,,,,,,,,,,,,,,,,,,,,,,,,,,,,,,,,,,,,,,,,,,,,,,,,,,,,,,,
0,51,51,46,1,,613ede27dc808d8880e38ee2,62c53a07efe3f624ee48cfec,2022-07-06_08h30.54.260,Colour_Asymmetry_Pilot,2022.1.3,Win32,60.12506013,62c50e9c1127f2cd403a315f,,,,,,,,,,,,,,,,,,,,,,,,,,,,,,,,,,,,,,,,,,,,,,,,,,,,,,,,,,,,,,,,,,,,,,,,,,,,,,,,,,,,,,,,,,,,,,,,,,,,,,,,,,,,,,,,,,,,,,,,,,,,,,,,,,,,,,,,,,,,,,,,,,,,,,,,,,,,,,,,,,,
0,52,52,24,1,,613ede27dc808d8880e38ee2,62c53a07efe3f624ee48cfec,2022-07-06_08h30.54.260,Colour_Asymmetry_Pilot,2022.1.3,Win32,60.12506013,62c50e9c1127f2cd403a315f,,,,,,,,,,,,,,,,,,,,,,,,,,,,,,,,,,,,,,,,,,,,,,,,,,,,,,,,,,,,,,,,,,,,,,,,,,,,,,,,,,,,,,,,,,,,,,,,,,,,,,,,,,,,,,,,,,,,,,,,,,,,,,,,,,,,,,,,,,,,,,,,,,,,,,,,,,,,,,,,,,,
0,53,53,41,1,,613ede27dc808d8880e38ee2,62c53a07efe3f624ee48cfec,2022-07-06_08h30.54.260,Colour_Asymmetry_Pilot,2022.1.3,Win32,60.12506013,62c50e9c1127f2cd403a315f,,,,,,,,,,,,,,,,,,,,,,,,,,,,,,,,,,,,,,,,,,,,,,,,,,,,,,,,,,,,,,,,,,,,,,,,,,,,,,,,,,,,,,,,,,,,,,,,,,,,,,,,,,,,,,,,,,,,,,,,,,,,,,,,,,,,,,,,,,,,,,,,,,,,,,,,,,,,,,,,,,,
0,54,54,86,1,,613ede27dc808d8880e38ee2,62c53a07efe3f624ee48cfec,2022-07-06_08h30.54.260,Colour_Asymmetry_Pilot,2022.1.3,Win32,60.12506013,62c50e9c1127f2cd403a315f,,,,,,,,,,,,,,,,,,,,,,,,,,,,,,,,,,,,,,,,,,,,,,,,,,,,,,,,,,,,,,,,,,,,,,,,,,,,,,,,,,,,,,,,,,,,,,,,,,,,,,,,,,,,,,,,,,,,,,,,,,,,,,,,,,,,,,,,,,,,,,,,,,,,,,,,,,,,,,,,,,,
0,55,55,36,1,,613ede27dc808d8880e38ee2,62c53a07efe3f624ee48cfec,2022-07-06_08h30.54.260,Colour_Asymmetry_Pilot,2022.1.3,Win32,60.12506013,62c50e9c1127f2cd403a315f,,,,,,,,,,,,,,,,,,,,,,,,,,,,,,,,,,,,,,,,,,,,,,,,,,,,,,,,,,,,,,,,,,,,,,,,,,,,,,,,,,,,,,,,,,,,,,,,,,,,,,,,,,,,,,,,,,,,,,,,,,,,,,,,,,,,,,,,,,,,,,,,,,,,,,,,,,,,,,,,,,,
0,56,56,8,1,,613ede27dc808d8880e38ee2,62c53a07efe3f624ee48cfec,2022-07-06_08h30.54.260,Colour_Asymmetry_Pilot,2022.1.3,Win32,60.12506013,62c50e9c1127f2cd403a315f,,,,,,,,,,,,,,,,,,,,,,,,,,,,,,,,,,,,,,,,,,,,,,,,,,,,,,,,,,,,,,,,,,,,,,,,,,,,,,,,,,,,,,,,,,,,,,,,,,,,,,,,,,,,,,,,,,,,,,,,,,,,,,,,,,,,,,,,,,,,,,,,,,,,,,,,,,,,,,,,,,,
0,57,57,35,1,,613ede27dc808d8880e38ee2,62c53a07efe3f624ee48cfec,2022-07-06_08h30.54.260,Colour_Asymmetry_Pilot,2022.1.3,Win32,60.12506013,62c50e9c1127f2cd403a315f,,,,,,,,,,,,,,,,,,,,,,,,,,,,,,,,,,,,,,,,,,,,,,,,,,,,,,,,,,,,,,,,,,,,,,,,,,,,,,,,,,,,,,,,,,,,,,,,,,,,,,,,,,,,,,,,,,,,,,,,,,,,,,,,,,,,,,,,,,,,,,,,,,,,,,,,,,,,,,,,,,,
0,58,58,72,1,,613ede27dc808d8880e38ee2,62c53a07efe3f624ee48cfec,2022-07-06_08h30.54.260,Colour_Asymmetry_Pilot,2022.1.3,Win32,60.12506013,62c50e9c1127f2cd403a315f,,,,,,,,,,,,,,,,,,,,,,,,,,,,,,,,,,,,,,,,,,,,,,,,,,,,,,,,,,,,,,,,,,,,,,,,,,,,,,,,,,,,,,,,,,,,,,,,,,,,,,,,,,,,,,,,,,,,,,,,,,,,,,,,,,,,,,,,,,,,,,,,,,,,,,,,,,,,,,,,,,,
0,59,59,62,1,,613ede27dc808d8880e38ee2,62c53a07efe3f624ee48cfec,2022-07-06_08h30.54.260,Colour_Asymmetry_Pilot,2022.1.3,Win32,60.12506013,62c50e9c1127f2cd403a315f,,,,,,,,,,,,,,,,,,,,,,,,,,,,,,,,,,,,,,,,,,,,,,,,,,,,,,,,,,,,,,,,,,,,,,,,,,,,,,,,,,,,,,,,,,,,,,,,,,,,,,,,,,,,,,,,,,,,,,,,,,,,,,,,,,,,,,,,,,,,,,,,,,,,,,,,,,,,,,,,,,,
0,60,60,40,1,,613ede27dc808d8880e38ee2,62c53a07efe3f624ee48cfec,2022-07-06_08h30.54.260,Colour_Asymmetry_Pilot,2022.1.3,Win32,60.12506013,62c50e9c1127f2cd403a315f,,,,,,,,,,,,,,,,,,,,,,,,,,,,,,,,,,,,,,,,,,,,,,,,,,,,,,,,,,,,,,,,,,,,,,,,,,,,,,,,,,,,,,,,,,,,,,,,,,,,,,,,,,,,,,,,,,,,,,,,,,,,,,,,,,,,,,,,,,,,,,,,,,,,,,,,,,,,,,,,,,,
0,61,61,2,1,,613ede27dc808d8880e38ee2,62c53a07efe3f624ee48cfec,2022-07-06_08h30.54.260,Colour_Asymmetry_Pilot,2022.1.3,Win32,60.12506013,62c50e9c1127f2cd403a315f,,,,,,,,,,,,,,,,,,,,,,,,,,,,,,,,,,,,,,,,,,,,,,,,,,,,,,,,,,,,,,,,,,,,,,,,,,,,,,,,,,,,,,,,,,,,,,,,,,,,,,,,,,,,,,,,,,,,,,,,,,,,,,,,,,,,,,,,,,,,,,,,,,,,,,,,,,,,,,,,,,,
0,62,62,19,1,,613ede27dc808d8880e38ee2,62c53a07efe3f624ee48cfec,2022-07-06_08h30.54.260,Colour_Asymmetry_Pilot,2022.1.3,Win32,60.12506013,62c50e9c1127f2cd403a315f,,,,,,,,,,,,,,,,,,,,,,,,,,,,,,,,,,,,,,,,,,,,,,,,,,,,,,,,,,,,,,,,,,,,,,,,,,,,,,,,,,,,,,,,,,,,,,,,,,,,,,,,,,,,,,,,,,,,,,,,,,,,,,,,,,,,,,,,,,,,,,,,,,,,,,,,,,,,,,,,,,,
0,63,63,84,1,,613ede27dc808d8880e38ee2,62c53a07efe3f624ee48cfec,2022-07-06_08h30.54.260,Colour_Asymmetry_Pilot,2022.1.3,Win32,60.12506013,62c50e9c1127f2cd403a315f,,,,,,,,,,,,,,,,,,,,,,,,,,,,,,,,,,,,,,,,,,,,,,,,,,,,,,,,,,,,,,,,,,,,,,,,,,,,,,,,,,,,,,,,,,,,,,,,,,,,,,,,,,,,,,,,,,,,,,,,,,,,,,,,,,,,,,,,,,,,,,,,,,,,,,,,,,,,,,,,,,,
0,64,64,30,1,,613ede27dc808d8880e38ee2,62c53a07efe3f624ee48cfec,2022-07-06_08h30.54.260,Colour_Asymmetry_Pilot,2022.1.3,Win32,60.12506013,62c50e9c1127f2cd403a315f,,,,,,,,,,,,,,,,,,,,,,,,,,,,,,,,,,,,,,,,,,,,,,,,,,,,,,,,,,,,,,,,,,,,,,,,,,,,,,,,,,,,,,,,,,,,,,,,,,,,,,,,,,,,,,,,,,,,,,,,,,,,,,,,,,,,,,,,,,,,,,,,,,,,,,,,,,,,,,,,,,,
0,65,65,13,1,,613ede27dc808d8880e38ee2,62c53a07efe3f624ee48cfec,2022-07-06_08h30.54.260,Colour_Asymmetry_Pilot,2022.1.3,Win32,60.12506013,62c50e9c1127f2cd403a315f,,,,,,,,,,,,,,,,,,,,,,,,,,,,,,,,,,,,,,,,,,,,,,,,,,,,,,,,,,,,,,,,,,,,,,,,,,,,,,,,,,,,,,,,,,,,,,,,,,,,,,,,,,,,,,,,,,,,,,,,,,,,,,,,,,,,,,,,,,,,,,,,,,,,,,,,,,,,,,,,,,,
0,66,66,71,1,,613ede27dc808d8880e38ee2,62c53a07efe3f624ee48cfec,2022-07-06_08h30.54.260,Colour_Asymmetry_Pilot,2022.1.3,Win32,60.12506013,62c50e9c1127f2cd403a315f,,,,,,,,,,,,,,,,,,,,,,,,,,,,,,,,,,,,,,,,,,,,,,,,,,,,,,,,,,,,,,,,,,,,,,,,,,,,,,,,,,,,,,,,,,,,,,,,,,,,,,,,,,,,,,,,,,,,,,,,,,,,,,,,,,,,,,,,,,,,,,,,,,,,,,,,,,,,,,,,,,,
0,67,67,6,1,,613ede27dc808d8880e38ee2,62c53a07efe3f624ee48cfec,2022-07-06_08h30.54.260,Colour_Asymmetry_Pilot,2022.1.3,Win32,60.12506013,62c50e9c1127f2cd403a315f,,,,,,,,,,,,,,,,,,,,,,,,,,,,,,,,,,,,,,,,,,,,,,,,,,,,,,,,,,,,,,,,,,,,,,,,,,,,,,,,,,,,,,,,,,,,,,,,,,,,,,,,,,,,,,,,,,,,,,,,,,,,,,,,,,,,,,,,,,,,,,,,,,,,,,,,,,,,,,,,,,,
0,68,68,59,1,,613ede27dc808d8880e38ee2,62c53a07efe3f624ee48cfec,2022-07-06_08h30.54.260,Colour_Asymmetry_Pilot,2022.1.3,Win32,60.12506013,62c50e9c1127f2cd403a315f,,,,,,,,,,,,,,,,,,,,,,,,,,,,,,,,,,,,,,,,,,,,,,,,,,,,,,,,,,,,,,,,,,,,,,,,,,,,,,,,,,,,,,,,,,,,,,,,,,,,,,,,,,,,,,,,,,,,,,,,,,,,,,,,,,,,,,,,,,,,,,,,,,,,,,,,,,,,,,,,,,,
0,69,69,57,1,,613ede27dc808d8880e38ee2,62c53a07efe3f624ee48cfec,2022-07-06_08h30.54.260,Colour_Asymmetry_Pilot,2022.1.3,Win32,60.12506013,62c50e9c1127f2cd403a315f,,,,,,,,,,,,,,,,,,,,,,,,,,,,,,,,,,,,,,,,,,,,,,,,,,,,,,,,,,,,,,,,,,,,,,,,,,,,,,,,,,,,,,,,,,,,,,,,,,,,,,,,,,,,,,,,,,,,,,,,,,,,,,,,,,,,,,,,,,,,,,,,,,,,,,,,,,,,,,,,,,,
0,70,70,51,1,,613ede27dc808d8880e38ee2,62c53a07efe3f624ee48cfec,2022-07-06_08h30.54.260,Colour_Asymmetry_Pilot,2022.1.3,Win32,60.12506013,62c50e9c1127f2cd403a315f,,,,,,,,,,,,,,,,,,,,,,,,,,,,,,,,,,,,,,,,,,,,,,,,,,,,,,,,,,,,,,,,,,,,,,,,,,,,,,,,,,,,,,,,,,,,,,,,,,,,,,,,,,,,,,,,,,,,,,,,,,,,,,,,,,,,,,,,,,,,,,,,,,,,,,,,,,,,,,,,,,,
0,71,71,69,1,,613ede27dc808d8880e38ee2,62c53a07efe3f624ee48cfec,2022-07-06_08h30.54.260,Colour_Asymmetry_Pilot,2022.1.3,Win32,60.12506013,62c50e9c1127f2cd403a315f,,,,,,,,,,,,,,,,,,,,,,,,,,,,,,,,,,,,,,,,,,,,,,,,,,,,,,,,,,,,,,,,,,,,,,,,,,,,,,,,,,,,,,,,,,,,,,,,,,,,,,,,,,,,,,,,,,,,,,,,,,,,,,,,,,,,,,,,,,,,,,,,,,,,,,,,,,,,,,,,,,,
0,72,72,21,1,,613ede27dc808d8880e38ee2,62c53a07efe3f624ee48cfec,2022-07-06_08h30.54.260,Colour_Asymmetry_Pilot,2022.1.3,Win32,60.12506013,62c50e9c1127f2cd403a315f,,,,,,,,,,,,,,,,,,,,,,,,,,,,,,,,,,,,,,,,,,,,,,,,,,,,,,,,,,,,,,,,,,,,,,,,,,,,,,,,,,,,,,,,,,,,,,,,,,,,,,,,,,,,,,,,,,,,,,,,,,,,,,,,,,,,,,,,,,,,,,,,,,,,,,,,,,,,,,,,,,,
0,73,73,34,1,,613ede27dc808d8880e38ee2,62c53a07efe3f624ee48cfec,2022-07-06_08h30.54.260,Colour_Asymmetry_Pilot,2022.1.3,Win32,60.12506013,62c50e9c1127f2cd403a315f,,,,,,,,,,,,,,,,,,,,,,,,,,,,,,,,,,,,,,,,,,,,,,,,,,,,,,,,,,,,,,,,,,,,,,,,,,,,,,,,,,,,,,,,,,,,,,,,,,,,,,,,,,,,,,,,,,,,,,,,,,,,,,,,,,,,,,,,,,,,,,,,,,,,,,,,,,,,,,,,,,,
0,74,74,31,1,,613ede27dc808d8880e38ee2,62c53a07efe3f624ee48cfec,2022-07-06_08h30.54.260,Colour_Asymmetry_Pilot,2022.1.3,Win32,60.12506013,62c50e9c1127f2cd403a315f,,,,,,,,,,,,,,,,,,,,,,,,,,,,,,,,,,,,,,,,,,,,,,,,,,,,,,,,,,,,,,,,,,,,,,,,,,,,,,,,,,,,,,,,,,,,,,,,,,,,,,,,,,,,,,,,,,,,,,,,,,,,,,,,,,,,,,,,,,,,,,,,,,,,,,,,,,,,,,,,,,,
0,75,75,16,1,,613ede27dc808d8880e38ee2,62c53a07efe3f624ee48cfec,2022-07-06_08h30.54.260,Colour_Asymmetry_Pilot,2022.1.3,Win32,60.12506013,62c50e9c1127f2cd403a315f,,,,,,,,,,,,,,,,,,,,,,,,,,,,,,,,,,,,,,,,,,,,,,,,,,,,,,,,,,,,,,,,,,,,,,,,,,,,,,,,,,,,,,,,,,,,,,,,,,,,,,,,,,,,,,,,,,,,,,,,,,,,,,,,,,,,,,,,,,,,,,,,,,,,,,,,,,,,,,,,,,,
0,76,76,25,1,,613ede27dc808d8880e38ee2,62c53a07efe3f624ee48cfec,2022-07-06_08h30.54.260,Colour_Asymmetry_Pilot,2022.1.3,Win32,60.12506013,62c50e9c1127f2cd403a315f,,,,,,,,,,,,,,,,,,,,,,,,,,,,,,,,,,,,,,,,,,,,,,,,,,,,,,,,,,,,,,,,,,,,,,,,,,,,,,,,,,,,,,,,,,,,,,,,,,,,,,,,,,,,,,,,,,,,,,,,,,,,,,,,,,,,,,,,,,,,,,,,,,,,,,,,,,,,,,,,,,,
0,77,77,90,1,,613ede27dc808d8880e38ee2,62c53a07efe3f624ee48cfec,2022-07-06_08h30.54.260,Colour_Asymmetry_Pilot,2022.1.3,Win32,60.12506013,62c50e9c1127f2cd403a315f,,,,,,,,,,,,,,,,,,,,,,,,,,,,,,,,,,,,,,,,,,,,,,,,,,,,,,,,,,,,,,,,,,,,,,,,,,,,,,,,,,,,,,,,,,,,,,,,,,,,,,,,,,,,,,,,,,,,,,,,,,,,,,,,,,,,,,,,,,,,,,,,,,,,,,,,,,,,,,,,,,,
0,78,78,53,1,,613ede27dc808d8880e38ee2,62c53a07efe3f624ee48cfec,2022-07-06_08h30.54.260,Colour_Asymmetry_Pilot,2022.1.3,Win32,60.12506013,62c50e9c1127f2cd403a315f,,,,,,,,,,,,,,,,,,,,,,,,,,,,,,,,,,,,,,,,,,,,,,,,,,,,,,,,,,,,,,,,,,,,,,,,,,,,,,,,,,,,,,,,,,,,,,,,,,,,,,,,,,,,,,,,,,,,,,,,,,,,,,,,,,,,,,,,,,,,,,,,,,,,,,,,,,,,,,,,,,,
0,79,79,63,1,,613ede27dc808d8880e38ee2,62c53a07efe3f624ee48cfec,2022-07-06_08h30.54.260,Colour_Asymmetry_Pilot,2022.1.3,Win32,60.12506013,62c50e9c1127f2cd403a315f,,,,,,,,,,,,,,,,,,,,,,,,,,,,,,,,,,,,,,,,,,,,,,,,,,,,,,,,,,,,,,,,,,,,,,,,,,,,,,,,,,,,,,,,,,,,,,,,,,,,,,,,,,,,,,,,,,,,,,,,,,,,,,,,,,,,,,,,,,,,,,,,,,,,,,,,,,,,,,,,,,,
0,80,80,7,1,,613ede27dc808d8880e38ee2,62c53a07efe3f624ee48cfec,2022-07-06_08h30.54.260,Colour_Asymmetry_Pilot,2022.1.3,Win32,60.12506013,62c50e9c1127f2cd403a315f,,,,,,,,,,,,,,,,,,,,,,,,,,,,,,,,,,,,,,,,,,,,,,,,,,,,,,,,,,,,,,,,,,,,,,,,,,,,,,,,,,,,,,,,,,,,,,,,,,,,,,,,,,,,,,,,,,,,,,,,,,,,,,,,,,,,,,,,,,,,,,,,,,,,,,,,,,,,,,,,,,,
0,81,81,1,1,,613ede27dc808d8880e38ee2,62c53a07efe3f624ee48cfec,2022-07-06_08h30.54.260,Colour_Asymmetry_Pilot,2022.1.3,Win32,60.12506013,62c50e9c1127f2cd403a315f,,,,,,,,,,,,,,,,,,,,,,,,,,,,,,,,,,,,,,,,,,,,,,,,,,,,,,,,,,,,,,,,,,,,,,,,,,,,,,,,,,,,,,,,,,,,,,,,,,,,,,,,,,,,,,,,,,,,,,,,,,,,,,,,,,,,,,,,,,,,,,,,,,,,,,,,,,,,,,,,,,,
0,82,82,5,1,,613ede27dc808d8880e38ee2,62c53a07efe3f624ee48cfec,2022-07-06_08h30.54.260,Colour_Asymmetry_Pilot,2022.1.3,Win32,60.12506013,62c50e9c1127f2cd403a315f,,,,,,,,,,,,,,,,,,,,,,,,,,,,,,,,,,,,,,,,,,,,,,,,,,,,,,,,,,,,,,,,,,,,,,,,,,,,,,,,,,,,,,,,,,,,,,,,,,,,,,,,,,,,,,,,,,,,,,,,,,,,,,,,,,,,,,,,,,,,,,,,,,,,,,,,,,,,,,,,,,,
0,83,83,66,1,,613ede27dc808d8880e38ee2,62c53a07efe3f624ee48cfec,2022-07-06_08h30.54.260,Colour_Asymmetry_Pilot,2022.1.3,Win32,60.12506013,62c50e9c1127f2cd403a315f,,,,,,,,,,,,,,,,,,,,,,,,,,,,,,,,,,,,,,,,,,,,,,,,,,,,,,,,,,,,,,,,,,,,,,,,,,,,,,,,,,,,,,,,,,,,,,,,,,,,,,,,,,,,,,,,,,,,,,,,,,,,,,,,,,,,,,,,,,,,,,,,,,,,,,,,,,,,,,,,,,,
0,84,84,4,1,,613ede27dc808d8880e38ee2,62c53a07efe3f624ee48cfec,2022-07-06_08h30.54.260,Colour_Asymmetry_Pilot,2022.1.3,Win32,60.12506013,62c50e9c1127f2cd403a315f,,,,,,,,,,,,,,,,,,,,,,,,,,,,,,,,,,,,,,,,,,,,,,,,,,,,,,,,,,,,,,,,,,,,,,,,,,,,,,,,,,,,,,,,,,,,,,,,,,,,,,,,,,,,,,,,,,,,,,,,,,,,,,,,,,,,,,,,,,,,,,,,,,,,,,,,,,,,,,,,,,,
0,85,85,43,1,,613ede27dc808d8880e38ee2,62c53a07efe3f624ee48cfec,2022-07-06_08h30.54.260,Colour_Asymmetry_Pilot,2022.1.3,Win32,60.12506013,62c50e9c1127f2cd403a315f,,,,,,,,,,,,,,,,,,,,,,,,,,,,,,,,,,,,,,,,,,,,,,,,,,,,,,,,,,,,,,,,,,,,,,,,,,,,,,,,,,,,,,,,,,,,,,,,,,,,,,,,,,,,,,,,,,,,,,,,,,,,,,,,,,,,,,,,,,,,,,,,,,,,,,,,,,,,,,,,,,,
0,86,86,11,1,,613ede27dc808d8880e38ee2,62c53a07efe3f624ee48cfec,2022-07-06_08h30.54.260,Colour_Asymmetry_Pilot,2022.1.3,Win32,60.12506013,62c50e9c1127f2cd403a315f,,,,,,,,,,,,,,,,,,,,,,,,,,,,,,,,,,,,,,,,,,,,,,,,,,,,,,,,,,,,,,,,,,,,,,,,,,,,,,,,,,,,,,,,,,,,,,,,,,,,,,,,,,,,,,,,,,,,,,,,,,,,,,,,,,,,,,,,,,,,,,,,,,,,,,,,,,,,,,,,,,,
0,87,87,42,1,,613ede27dc808d8880e38ee2,62c53a07efe3f624ee48cfec,2022-07-06_08h30.54.260,Colour_Asymmetry_Pilot,2022.1.3,Win32,60.12506013,62c50e9c1127f2cd403a315f,,,,,,,,,,,,,,,,,,,,,,,,,,,,,,,,,,,,,,,,,,,,,,,,,,,,,,,,,,,,,,,,,,,,,,,,,,,,,,,,,,,,,,,,,,,,,,,,,,,,,,,,,,,,,,,,,,,,,,,,,,,,,,,,,,,,,,,,,,,,,,,,,,,,,,,,,,,,,,,,,,,
0,88,88,89,1,,613ede27dc808d8880e38ee2,62c53a07efe3f624ee48cfec,2022-07-06_08h30.54.260,Colour_Asymmetry_Pilot,2022.1.3,Win32,60.12506013,62c50e9c1127f2cd403a315f,,,,,,,,,,,,,,,,,,,,,,,,,,,,,,,,,,,,,,,,,,,,,,,,,,,,,,,,,,,,,,,,,,,,,,,,,,,,,,,,,,,,,,,,,,,,,,,,,,,,,,,,,,,,,,,,,,,,,,,,,,,,,,,,,,,,,,,,,,,,,,,,,,,,,,,,,,,,,,,,,,,
0,89,89,37,1,,613ede27dc808d8880e38ee2,62c53a07efe3f624ee48cfec,2022-07-06_08h30.54.260,Colour_Asymmetry_Pilot,2022.1.3,Win32,60.12506013,62c50e9c1127f2cd403a315f,,,,,,,,,,,,,,,,,,,,,,,,,,,,,,,,,,,,,,,,,,,,,,,,,,,,,,,,,,,,,,,,,,,,,,,,,,,,,,,,,,,,,,,,,,,,,,,,,,,,,,,,,,,,,,,,,,,,,,,,,,,,,,,,,,,,,,,,,,,,,,,,,,,,,,,,,,,,,,,,,,,
0,90,90,26,1,,613ede27dc808d8880e38ee2,62c53a07efe3f624ee48cfec,2022-07-06_08h30.54.260,Colour_Asymmetry_Pilot,2022.1.3,Win32,60.12506013,62c50e9c1127f2cd403a315f,,,,,,,,,,,,,,,,,,,,,,,,,,,,,,,,,,,,,,,,,,,,,,,,,,,,,,,,,,,,,,,,,,,,,,,,,,,,,,,,,,,,,,,,,,,,,,,,,,,,,,,,,,,,,,,,,,,,,,,,,,,,,,,,,,,,,,,,,,,,,,,,,,,,,,,,,,,,,,,,,,,
0,91,91,32,1,,613ede27dc808d8880e38ee2,62c53a07efe3f624ee48cfec,2022-07-06_08h30.54.260,Colour_Asymmetry_Pilot,2022.1.3,Win32,60.12506013,62c50e9c1127f2cd403a315f,,,,,,,,,,,,,,,,,,,,,,,,,,,,,,,,,,,,,,,,,,,,,,,,,,,,,,,,,,,,,,,,,,,,,,,,,,,,,,,,,,,,,,,,,,,,,,,,,,,,,,,,,,,,,,,,,,,,,,,,,,,,,,,,,,,,,,,,,,,,,,,,,,,,,,,,,,,,,,,,,,,
0,92,92,48,1,,613ede27dc808d8880e38ee2,62c53a07efe3f624ee48cfec,2022-07-06_08h30.54.260,Colour_Asymmetry_Pilot,2022.1.3,Win32,60.12506013,62c50e9c1127f2cd403a315f,,,,,,,,,,,,,,,,,,,,,,,,,,,,,,,,,,,,,,,,,,,,,,,,,,,,,,,,,,,,,,,,,,,,,,,,,,,,,,,,,,,,,,,,,,,,,,,,,,,,,,,,,,,,,,,,,,,,,,,,,,,,,,,,,,,,,,,,,,,,,,,,,,,,,,,,,,,,,,,,,,,
,,,,,,613ede27dc808d8880e38ee2,62c53a07efe3f624ee48cfec,2022-07-06_08h30.54.260,Colour_Asymmetry_Pilot,2022.1.3,Win32,60.12506013,62c50e9c1127f2cd403a315f,0,0,0,55,1,fourthree,,,,,,,,,,,,,,,,,,,,,,,,,,,,,,,,,,,,,,,,,,,,,,,,,,,,,,,,,,,,,,,,,,,,,,,,,,,,,,,,,,,,,,,,,,,,,,,,,,,,,,,,,,,,,,,,,,,,,,,,,,,,,,,,,,,,,,,,,,,,,,,,,,,,,,,,,,,,,
,,,,,,613ede27dc808d8880e38ee2,62c53a07efe3f624ee48cfec,2022-07-06_08h30.54.260,Colour_Asymmetry_Pilot,2022.1.3,Win32,60.12506013,62c50e9c1127f2cd403a315f,0,1,1,11,1,twofour,,,,,,,,,,,,,,,,,,,,,,,,,,,,,,,,,,,,,,,,,,,,,,,,,,,,,,,,,,,,,,,,,,,,,,,,,,,,,,,,,,,,,,,,,,,,,,,,,,,,,,,,,,,,,,,,,,,,,,,,,,,,,,,,,,,,,,,,,,,,,,,,,,,,,,,,,,,,,
,,,,,,613ede27dc808d8880e38ee2,62c53a07efe3f624ee48cfec,2022-07-06_08h30.54.260,Colour_Asymmetry_Pilot,2022.1.3,Win32,60.12506013,62c50e9c1127f2cd403a315f,0,2,2,43,1,twofour,,,,,,,,,,,,,,,,,,,,,,,,,,,,,,,,,,,,,,,,,,,,,,,,,,,,,,,,,,,,,,,,,,,,,,,,,,,,,,,,,,,,,,,,,,,,,,,,,,,,,,,,,,,,,,,,,,,,,,,,,,,,,,,,,,,,,,,,,,,,,,,,,,,,,,,,,,,,,
,,,,,,613ede27dc808d8880e38ee2,62c53a07efe3f624ee48cfec,2022-07-06_08h30.54.260,Colour_Asymmetry_Pilot,2022.1.3,Win32,60.12506013,62c50e9c1127f2cd403a315f,0,3,3,50,1,twoone,,,,,,,,,,,,,,,,,,,,,,,,,,,,,,,,,,,,,,,,,,,,,,,,,,,,,,,,,,,,,,,,,,,,,,,,,,,,,,,,,,,,,,,,,,,,,,,,,,,,,,,,,,,,,,,,,,,,,,,,,,,,,,,,,,,,,,,,,,,,,,,,,,,,,,,,,,,,,
,,,,,,613ede27dc808d8880e38ee2,62c53a07efe3f624ee48cfec,2022-07-06_08h30.54.260,Colour_Asymmetry_Pilot,2022.1.3,Win32,60.12506013,62c50e9c1127f2cd403a315f,0,4,4,60,1,threeone,,,,,,,,,,,,,,,,,,,,,,,,,,,,,,,,,,,,,,,,,,,,,,,,,,,,,,,,,,,,,,,,,,,,,,,,,,,,,,,,,,,,,,,,,,,,,,,,,,,,,,,,,,,,,,,,,,,,,,,,,,,,,,,,,,,,,,,,,,,,,,,,,,,,,,,,,,,,,
,,,,,,613ede27dc808d8880e38ee2,62c53a07efe3f624ee48cfec,2022-07-06_08h30.54.260,Colour_Asymmetry_Pilot,2022.1.3,Win32,60.12506013,62c50e9c1127f2cd403a315f,0,5,5,85,1,threefour,,,,,,,,,,,,,,,,,,,,,,,,,,,,,,,,,,,,,,,,,,,,,,,,,,,,,,,,,,,,,,,,,,,,,,,,,,,,,,,,,,,,,,,,,,,,,,,,,,,,,,,,,,,,,,,,,,,,,,,,,,,,,,,,,,,,,,,,,,,,,,,,,,,,,,,,,,,,,
,,,,,,613ede27dc808d8880e38ee2,62c53a07efe3f624ee48cfec,2022-07-06_08h30.54.260,Colour_Asymmetry_Pilot,2022.1.3,Win32,60.12506013,62c50e9c1127f2cd403a315f,0,6,6,102,1,fourtwo,,,,,,,,,,,,,,,,,,,,,,,,,,,,,,,,,,,,,,,,,,,,,,,,,,,,,,,,,,,,,,,,,,,,,,,,,,,,,,,,,,,,,,,,,,,,,,,,,,,,,,,,,,,,,,,,,,,,,,,,,,,,,,,,,,,,,,,,,,,,,,,,,,,,,,,,,,,,,
,,,,,,613ede27dc808d8880e38ee2,62c53a07efe3f624ee48cfec,2022-07-06_08h30.54.260,Colour_Asymmetry_Pilot,2022.1.3,Win32,60.12506013,62c50e9c1127f2cd403a315f,0,7,7,119,1,fourthree,,,,,,,,,,,,,,,,,,,,,,,,,,,,,,,,,,,,,,,,,,,,,,,,,,,,,,,,,,,,,,,,,,,,,,,,,,,,,,,,,,,,,,,,,,,,,,,,,,,,,,,,,,,,,,,,,,,,,,,,,,,,,,,,,,,,,,,,,,,,,,,,,,,,,,,,,,,,,
,,,,,,613ede27dc808d8880e38ee2,62c53a07efe3f624ee48cfec,2022-07-06_08h30.54.260,Colour_Asymmetry_Pilot,2022.1.3,Win32,60.12506013,62c50e9c1127f2cd403a315f,0,8,8,41,1,onethree,,,,,,,,,,,,,,,,,,,,,,,,,,,,,,,,,,,,,,,,,,,,,,,,,,,,,,,,,,,,,,,,,,,,,,,,,,,,,,,,,,,,,,,,,,,,,,,,,,,,,,,,,,,,,,,,,,,,,,,,,,,,,,,,,,,,,,,,,,,,,,,,,,,,,,,,,,,,,
,,,,,,613ede27dc808d8880e38ee2,62c53a07efe3f624ee48cfec,2022-07-06_08h30.54.260,Colour_Asymmetry_Pilot,2022.1.3,Win32,60.12506013,62c50e9c1127f2cd403a315f,0,9,9,69,1,threefour,,,,,,,,,,,,,,,,,,,,,,,,,,,,,,,,,,,,,,,,,,,,,,,,,,,,,,,,,,,,,,,,,,,,,,,,,,,,,,,,,,,,,,,,,,,,,,,,,,,,,,,,,,,,,,,,,,,,,,,,,,,,,,,,,,,,,,,,,,,,,,,,,,,,,,,,,,,,,
,,,,,,613ede27dc808d8880e38ee2,62c53a07efe3f624ee48cfec,2022-07-06_08h30.54.260,Colour_Asymmetry_Pilot,2022.1.3,Win32,60.12506013,62c50e9c1127f2cd403a315f,0,10,10,9,1,onethree,,,,,,,,,,,,,,,,,,,,,,,,,,,,,,,,,,,,,,,,,,,,,,,,,,,,,,,,,,,,,,,,,,,,,,,,,,,,,,,,,,,,,,,,,,,,,,,,,,,,,,,,,,,,,,,,,,,,,,,,,,,,,,,,,,,,,,,,,,,,,,,,,,,,,,,,,,,,,
,,,,,,613ede27dc808d8880e38ee2,62c53a07efe3f624ee48cfec,2022-07-06_08h30.54.260,Colour_Asymmetry_Pilot,2022.1.3,Win32,60.12506013,62c50e9c1127f2cd403a315f,0,11,11,78,1,fourtwo,,,,,,,,,,,,,,,,,,,,,,,,,,,,,,,,,,,,,,,,,,,,,,,,,,,,,,,,,,,,,,,,,,,,,,,,,,,,,,,,,,,,,,,,,,,,,,,,,,,,,,,,,,,,,,,,,,,,,,,,,,,,,,,,,,,,,,,,,,,,,,,,,,,,,,,,,,,,,
,,,,,,613ede27dc808d8880e38ee2,62c53a07efe3f624ee48cfec,2022-07-06_08h30.54.260,Colour_Asymmetry_Pilot,2022.1.3,Win32,60.12506013,62c50e9c1127f2cd403a315f,0,12,12,155,1,twofour,,,,,,,,,,,,,,,,,,,,,,,,,,,,,,,,,,,,,,,,,,,,,,,,,,,,,,,,,,,,,,,,,,,,,,,,,,,,,,,,,,,,,,,,,,,,,,,,,,,,,,,,,,,,,,,,,,,,,,,,,,,,,,,,,,,,,,,,,,,,,,,,,,,,,,,,,,,,,
,,,,,,613ede27dc808d8880e38ee2,62c53a07efe3f624ee48cfec,2022-07-06_08h30.54.260,Colour_Asymmetry_Pilot,2022.1.3,Win32,60.12506013,62c50e9c1127f2cd403a315f,0,13,13,111,1,fourthree,,,,,,,,,,,,,,,,,,,,,,,,,,,,,,,,,,,,,,,,,,,,,,,,,,,,,,,,,,,,,,,,,,,,,,,,,,,,,,,,,,,,,,,,,,,,,,,,,,,,,,,,,,,,,,,,,,,,,,,,,,,,,,,,,,,,,,,,,,,,,,,,,,,,,,,,,,,,,
,,,,,,613ede27dc808d8880e38ee2,62c53a07efe3f624ee48cfec,2022-07-06_08h30.54.260,Colour_Asymmetry_Pilot,2022.1.3,Win32,60.12506013,62c50e9c1127f2cd403a315f,0,14,14,109,1,threefour,,,,,,,,,,,,,,,,,,,,,,,,,,,,,,,,,,,,,,,,,,,,,,,,,,,,,,,,,,,,,,,,,,,,,,,,,,,,,,,,,,,,,,,,,,,,,,,,,,,,,,,,,,,,,,,,,,,,,,,,,,,,,,,,,,,,,,,,,,,,,,,,,,,,,,,,,,,,,
,,,,,,613ede27dc808d8880e38ee2,62c53a07efe3f624ee48cfec,2022-07-06_08h30.54.260,Colour_Asymmetry_Pilot,2022.1.3,Win32,60.12506013,62c50e9c1127f2cd403a315f,0,15,15,135,1,fourthree,,,,,,,,,,,,,,,,,,,,,,,,,,,,,,,,,,,,,,,,,,,,,,,,,,,,,,,,,,,,,,,,,,,,,,,,,,,,,,,,,,,,,,,,,,,,,,,,,,,,,,,,,,,,,,,,,,,,,,,,,,,,,,,,,,,,,,,,,,,,,,,,,,,,,,,,,,,,,
,,,,,,613ede27dc808d8880e38ee2,62c53a07efe3f624ee48cfec,2022-07-06_08h30.54.260,Colour_Asymmetry_Pilot,2022.1.3,Win32,60.12506013,62c50e9c1127f2cd403a315f,0,16,16,67,1,twofour,,,,,,,,,,,,,,,,,,,,,,,,,,,,,,,,,,,,,,,,,,,,,,,,,,,,,,,,,,,,,,,,,,,,,,,,,,,,,,,,,,,,,,,,,,,,,,,,,,,,,,,,,,,,,,,,,,,,,,,,,,,,,,,,,,,,,,,,,,,,,,,,,,,,,,,,,,,,,
,,,,,,613ede27dc808d8880e38ee2,62c53a07efe3f624ee48cfec,2022-07-06_08h30.54.260,Colour_Asymmetry_Pilot,2022.1.3,Win32,60.12506013,62c50e9c1127f2cd403a315f,0,17,17,65,1,onethree,,,,,,,,,,,,,,,,,,,,,,,,,,,,,,,,,,,,,,,,,,,,,,,,,,,,,,,,,,,,,,,,,,,,,,,,,,,,,,,,,,,,,,,,,,,,,,,,,,,,,,,,,,,,,,,,,,,,,,,,,,,,,,,,,,,,,,,,,,,,,,,,,,,,,,,,,,,,,
,,,,,,613ede27dc808d8880e38ee2,62c53a07efe3f624ee48cfec,2022-07-06_08h30.54.260,Colour_Asymmetry_Pilot,2022.1.3,Win32,60.12506013,62c50e9c1127f2cd403a315f,0,18,18,74,1,twoone,,,,,,,,,,,,,,,,,,,,,,,,,,,,,,,,,,,,,,,,,,,,,,,,,,,,,,,,,,,,,,,,,,,,,,,,,,,,,,,,,,,,,,,,,,,,,,,,,,,,,,,,,,,,,,,,,,,,,,,,,,,,,,,,,,,,,,,,,,,,,,,,,,,,,,,,,,,,,
,,,,,,613ede27dc808d8880e38ee2,62c53a07efe3f624ee48cfec,2022-07-06_08h30.54.260,Colour_Asymmetry_Pilot,2022.1.3,Win32,60.12506013,62c50e9c1127f2cd403a315f,0,19,19,24,1,onetwo,,,,,,,,,,,,,,,,,,,,,,,,,,,,,,,,,,,,,,,,,,,,,,,,,,,,,,,,,,,,,,,,,,,,,,,,,,,,,,,,,,,,,,,,,,,,,,,,,,,,,,,,,,,,,,,,,,,,,,,,,,,,,,,,,,,,,,,,,,,,,,,,,,,,,,,,,,,,,
,,,,,,613ede27dc808d8880e38ee2,62c53a07efe3f624ee48cfec,2022-07-06_08h30.54.260,Colour_Asymmetry_Pilot,2022.1.3,Win32,60.12506013,62c50e9c1127f2cd403a315f,0,20,20,86,1,fourtwo,,,,,,,,,,,,,,,,,,,,,,,,,,,,,,,,,,,,,,,,,,,,,,,,,,,,,,,,,,,,,,,,,,,,,,,,,,,,,,,,,,,,,,,,,,,,,,,,,,,,,,,,,,,,,,,,,,,,,,,,,,,,,,,,,,,,,,,,,,,,,,,,,,,,,,,,,,,,,
,,,,,,613ede27dc808d8880e38ee2,62c53a07efe3f624ee48cfec,2022-07-06_08h30.54.260,Colour_Asymmetry_Pilot,2022.1.3,Win32,60.12506013,62c50e9c1127f2cd403a315f,0,21,21,141,1,threefour,,,,,,,,,,,,,,,,,,,,,,,,,,,,,,,,,,,,,,,,,,,,,,,,,,,,,,,,,,,,,,,,,,,,,,,,,,,,,,,,,,,,,,,,,,,,,,,,,,,,,,,,,,,,,,,,,,,,,,,,,,,,,,,,,,,,,,,,,,,,,,,,,,,,,,,,,,,,,
,,,,,,613ede27dc808d8880e38ee2,62c53a07efe3f624ee48cfec,2022-07-06_08h30.54.260,Colour_Asymmetry_Pilot,2022.1.3,Win32,60.12506013,62c50e9c1127f2cd403a315f,0,22,22,110,1,fourtwo,,,,,,,,,,,,,,,,,,,,,,,,,,,,,,,,,,,,,,,,,,,,,,,,,,,,,,,,,,,,,,,,,,,,,,,,,,,,,,,,,,,,,,,,,,,,,,,,,,,,,,,,,,,,,,,,,,,,,,,,,,,,,,,,,,,,,,,,,,,,,,,,,,,,,,,,,,,,,
,,,,,,613ede27dc808d8880e38ee2,62c53a07efe3f624ee48cfec,2022-07-06_08h30.54.260,Colour_Asymmetry_Pilot,2022.1.3,Win32,60.12506013,62c50e9c1127f2cd403a315f,0,23,23,94,1,fourtwo,,,,,,,,,,,,,,,,,,,,,,,,,,,,,,,,,,,,,,,,,,,,,,,,,,,,,,,,,,,,,,,,,,,,,,,,,,,,,,,,,,,,,,,,,,,,,,,,,,,,,,,,,,,,,,,,,,,,,,,,,,,,,,,,,,,,,,,,,,,,,,,,,,,,,,,,,,,,,
,,,,,,613ede27dc808d8880e38ee2,62c53a07efe3f624ee48cfec,2022-07-06_08h30.54.260,Colour_Asymmetry_Pilot,2022.1.3,Win32,60.12506013,62c50e9c1127f2cd403a315f,0,24,24,2,1,twoone,,,,,,,,,,,,,,,,,,,,,,,,,,,,,,,,,,,,,,,,,,,,,,,,,,,,,,,,,,,,,,,,,,,,,,,,,,,,,,,,,,,,,,,,,,,,,,,,,,,,,,,,,,,,,,,,,,,,,,,,,,,,,,,,,,,,,,,,,,,,,,,,,,,,,,,,,,,,,
,,,,,,613ede27dc808d8880e38ee2,62c53a07efe3f624ee48cfec,2022-07-06_08h30.54.260,Colour_Asymmetry_Pilot,2022.1.3,Win32,60.12506013,62c50e9c1127f2cd403a315f,0,25,25,152,1,onetwo,,,,,,,,,,,,,,,,,,,,,,,,,,,,,,,,,,,,,,,,,,,,,,,,,,,,,,,,,,,,,,,,,,,,,,,,,,,,,,,,,,,,,,,,,,,,,,,,,,,,,,,,,,,,,,,,,,,,,,,,,,,,,,,,,,,,,,,,,,,,,,,,,,,,,,,,,,,,,
,,,,,,613ede27dc808d8880e38ee2,62c53a07efe3f624ee48cfec,2022-07-06_08h30.54.260,Colour_Asymmetry_Pilot,2022.1.3,Win32,60.12506013,62c50e9c1127f2cd403a315f,0,26,26,107,1,twofour,,,,,,,,,,,,,,,,,,,,,,,,,,,,,,,,,,,,,,,,,,,,,,,,,,,,,,,,,,,,,,,,,,,,,,,,,,,,,,,,,,,,,,,,,,,,,,,,,,,,,,,,,,,,,,,,,,,,,,,,,,,,,,,,,,,,,,,,,,,,,,,,,,,,,,,,,,,,,
,,,,,,613ede27dc808d8880e38ee2,62c53a07efe3f624ee48cfec,2022-07-06_08h30.54.260,Colour_Asymmetry_Pilot,2022.1.3,Win32,60.12506013,62c50e9c1127f2cd403a315f,0,27,27,108,1,threeone,,,,,,,,,,,,,,,,,,,,,,,,,,,,,,,,,,,,,,,,,,,,,,,,,,,,,,,,,,,,,,,,,,,,,,,,,,,,,,,,,,,,,,,,,,,,,,,,,,,,,,,,,,,,,,,,,,,,,,,,,,,,,,,,,,,,,,,,,,,,,,,,,,,,,,,,,,,,,
,,,,,,613ede27dc808d8880e38ee2,62c53a07efe3f624ee48cfec,2022-07-06_08h30.54.260,Colour_Asymmetry_Pilot,2022.1.3,Win32,60.12506013,62c50e9c1127f2cd403a315f,0,28,28,103,1,fourthree,,,,,,,,,,,,,,,,,,,,,,,,,,,,,,,,,,,,,,,,,,,,,,,,,,,,,,,,,,,,,,,,,,,,,,,,,,,,,,,,,,,,,,,,,,,,,,,,,,,,,,,,,,,,,,,,,,,,,,,,,,,,,,,,,,,,,,,,,,,,,,,,,,,,,,,,,,,,,
,,,,,,613ede27dc808d8880e38ee2,62c53a07efe3f624ee48cfec,2022-07-06_08h30.54.260,Colour_Asymmetry_Pilot,2022.1.3,Win32,60.12506013,62c50e9c1127f2cd403a315f,0,29,29,160,1,onetwo,,,,,,,,,,,,,,,,,,,,,,,,,,,,,,,,,,,,,,,,,,,,,,,,,,,,,,,,,,,,,,,,,,,,,,,,,,,,,,,,,,,,,,,,,,,,,,,,,,,,,,,,,,,,,,,,,,,,,,,,,,,,,,,,,,,,,,,,,,,,,,,,,,,,,,,,,,,,,
,,,,,,613ede27dc808d8880e38ee2,62c53a07efe3f624ee48cfec,2022-07-06_08h30.54.260,Colour_Asymmetry_Pilot,2022.1.3,Win32,60.12506013,62c50e9c1127f2cd403a315f,0,30,30,127,1,fourthree,,,,,,,,,,,,,,,,,,,,,,,,,,,,,,,,,,,,,,,,,,,,,,,,,,,,,,,,,,,,,,,,,,,,,,,,,,,,,,,,,,,,,,,,,,,,,,,,,,,,,,,,,,,,,,,,,,,,,,,,,,,,,,,,,,,,,,,,,,,,,,,,,,,,,,,,,,,,,
,,,,,,613ede27dc808d8880e38ee2,62c53a07efe3f624ee48cfec,2022-07-06_08h30.54.260,Colour_Asymmetry_Pilot,2022.1.3,Win32,60.12506013,62c50e9c1127f2cd403a315f,0,31,31,36,1,threeone,,,,,,,,,,,,,,,,,,,,,,,,,,,,,,,,,,,,,,,,,,,,,,,,,,,,,,,,,,,,,,,,,,,,,,,,,,,,,,,,,,,,,,,,,,,,,,,,,,,,,,,,,,,,,,,,,,,,,,,,,,,,,,,,,,,,,,,,,,,,,,,,,,,,,,,,,,,,,
,,,,,,613ede27dc808d8880e38ee2,62c53a07efe3f624ee48cfec,2022-07-06_08h30.54.260,Colour_Asymmetry_Pilot,2022.1.3,Win32,60.12506013,62c50e9c1127f2cd403a315f,0,32,32,97,1,onethree,,,,,,,,,,,,,,,,,,,,,,,,,,,,,,,,,,,,,,,,,,,,,,,,,,,,,,,,,,,,,,,,,,,,,,,,,,,,,,,,,,,,,,,,,,,,,,,,,,,,,,,,,,,,,,,,,,,,,,,,,,,,,,,,,,,,,,,,,,,,,,,,,,,,,,,,,,,,,
,,,,,,613ede27dc808d8880e38ee2,62c53a07efe3f624ee48cfec,2022-07-06_08h30.54.260,Colour_Asymmetry_Pilot,2022.1.3,Win32,60.12506013,62c50e9c1127f2cd403a315f,0,33,33,112,1,onetwo,,,,,,,,,,,,,,,,,,,,,,,,,,,,,,,,,,,,,,,,,,,,,,,,,,,,,,,,,,,,,,,,,,,,,,,,,,,,,,,,,,,,,,,,,,,,,,,,,,,,,,,,,,,,,,,,,,,,,,,,,,,,,,,,,,,,,,,,,,,,,,,,,,,,,,,,,,,,,
,,,,,,613ede27dc808d8880e38ee2,62c53a07efe3f624ee48cfec,2022-07-06_08h30.54.260,Colour_Asymmetry_Pilot,2022.1.3,Win32,60.12506013,62c50e9c1127f2cd403a315f,0,34,34,52,1,threeone,,,,,,,,,,,,,,,,,,,,,,,,,,,,,,,,,,,,,,,,,,,,,,,,,,,,,,,,,,,,,,,,,,,,,,,,,,,,,,,,,,,,,,,,,,,,,,,,,,,,,,,,,,,,,,,,,,,,,,,,,,,,,,,,,,,,,,,,,,,,,,,,,,,,,,,,,,,,,
,,,,,,613ede27dc808d8880e38ee2,62c53a07efe3f624ee48cfec,2022-07-06_08h30.54.260,Colour_Asymmetry_Pilot,2022.1.3,Win32,60.12506013,62c50e9c1127f2cd403a315f,0,35,35,89,1,onethree,,,,,,,,,,,,,,,,,,,,,,,,,,,,,,,,,,,,,,,,,,,,,,,,,,,,,,,,,,,,,,,,,,,,,,,,,,,,,,,,,,,,,,,,,,,,,,,,,,,,,,,,,,,,,,,,,,,,,,,,,,,,,,,,,,,,,,,,,,,,,,,,,,,,,,,,,,,,,
,,,,,,613ede27dc808d8880e38ee2,62c53a07efe3f624ee48cfec,2022-07-06_08h30.54.260,Colour_Asymmetry_Pilot,2022.1.3,Win32,60.12506013,62c50e9c1127f2cd403a315f,0,36,36,70,1,fourtwo,,,,,,,,,,,,,,,,,,,,,,,,,,,,,,,,,,,,,,,,,,,,,,,,,,,,,,,,,,,,,,,,,,,,,,,,,,,,,,,,,,,,,,,,,,,,,,,,,,,,,,,,,,,,,,,,,,,,,,,,,,,,,,,,,,,,,,,,,,,,,,,,,,,,,,,,,,,,,
,,,,,,613ede27dc808d8880e38ee2,62c53a07efe3f624ee48cfec,2022-07-06_08h30.54.260,Colour_Asymmetry_Pilot,2022.1.3,Win32,60.12506013,62c50e9c1127f2cd403a315f,0,37,37,105,1,onethree,,,,,,,,,,,,,,,,,,,,,,,,,,,,,,,,,,,,,,,,,,,,,,,,,,,,,,,,,,,,,,,,,,,,,,,,,,,,,,,,,,,,,,,,,,,,,,,,,,,,,,,,,,,,,,,,,,,,,,,,,,,,,,,,,,,,,,,,,,,,,,,,,,,,,,,,,,,,,
,,,,,,613ede27dc808d8880e38ee2,62c53a07efe3f624ee48cfec,2022-07-06_08h30.54.260,Colour_Asymmetry_Pilot,2022.1.3,Win32,60.12506013,62c50e9c1127f2cd403a315f,0,38,38,116,1,threeone,,,,,,,,,,,,,,,,,,,,,,,,,,,,,,,,,,,,,,,,,,,,,,,,,,,,,,,,,,,,,,,,,,,,,,,,,,,,,,,,,,,,,,,,,,,,,,,,,,,,,,,,,,,,,,,,,,,,,,,,,,,,,,,,,,,,,,,,,,,,,,,,,,,,,,,,,,,,,
,,,,,,613ede27dc808d8880e38ee2,62c53a07efe3f624ee48cfec,2022-07-06_08h30.54.260,Colour_Asymmetry_Pilot,2022.1.3,Win32,60.12506013,62c50e9c1127f2cd403a315f,0,39,39,100,1,threeone,,,,,,,,,,,,,,,,,,,,,,,,,,,,,,,,,,,,,,,,,,,,,,,,,,,,,,,,,,,,,,,,,,,,,,,,,,,,,,,,,,,,,,,,,,,,,,,,,,,,,,,,,,,,,,,,,,,,,,,,,,,,,,,,,,,,,,,,,,,,,,,,,,,,,,,,,,,,,
,,,,,,613ede27dc808d8880e38ee2,62c53a07efe3f624ee48cfec,2022-07-06_08h30.54.260,Colour_Asymmetry_Pilot,2022.1.3,Win32,60.12506013,62c50e9c1127f2cd403a315f,0,40,40,34,1,twoone,,,,,,,,,,,,,,,,,,,,,,,,,,,,,,,,,,,,,,,,,,,,,,,,,,,,,,,,,,,,,,,,,,,,,,,,,,,,,,,,,,,,,,,,,,,,,,,,,,,,,,,,,,,,,,,,,,,,,,,,,,,,,,,,,,,,,,,,,,,,,,,,,,,,,,,,,,,,,
,,,,,,613ede27dc808d8880e38ee2,62c53a07efe3f624ee48cfec,2022-07-06_08h30.54.260,Colour_Asymmetry_Pilot,2022.1.3,Win32,60.12506013,62c50e9c1127f2cd403a315f,0,41,41,32,1,onetwo,,,,,,,,,,,,,,,,,,,,,,,,,,,,,,,,,,,,,,,,,,,,,,,,,,,,,,,,,,,,,,,,,,,,,,,,,,,,,,,,,,,,,,,,,,,,,,,,,,,,,,,,,,,,,,,,,,,,,,,,,,,,,,,,,,,,,,,,,,,,,,,,,,,,,,,,,,,,,
,,,,,,613ede27dc808d8880e38ee2,62c53a07efe3f624ee48cfec,2022-07-06_08h30.54.260,Colour_Asymmetry_Pilot,2022.1.3,Win32,60.12506013,62c50e9c1127f2cd403a315f,0,42,42,121,1,onethree,,,,,,,,,,,,,,,,,,,,,,,,,,,,,,,,,,,,,,,,,,,,,,,,,,,,,,,,,,,,,,,,,,,,,,,,,,,,,,,,,,,,,,,,,,,,,,,,,,,,,,,,,,,,,,,,,,,,,,,,,,,,,,,,,,,,,,,,,,,,,,,,,,,,,,,,,,,,,
,,,,,,613ede27dc808d8880e38ee2,62c53a07efe3f624ee48cfec,2022-07-06_08h30.54.260,Colour_Asymmetry_Pilot,2022.1.3,Win32,60.12506013,62c50e9c1127f2cd403a315f,0,43,43,124,1,threeone,,,,,,,,,,,,,,,,,,,,,,,,,,,,,,,,,,,,,,,,,,,,,,,,,,,,,,,,,,,,,,,,,,,,,,,,,,,,,,,,,,,,,,,,,,,,,,,,,,,,,,,,,,,,,,,,,,,,,,,,,,,,,,,,,,,,,,,,,,,,,,,,,,,,,,,,,,,,,
,,,,,,613ede27dc808d8880e38ee2,62c53a07efe3f624ee48cfec,2022-07-06_08h30.54.260,Colour_Asymmetry_Pilot,2022.1.3,Win32,60.12506013,62c50e9c1127f2cd403a315f,0,44,44,98,1,twoone,,,,,,,,,,,,,,,,,,,,,,,,,,,,,,,,,,,,,,,,,,,,,,,,,,,,,,,,,,,,,,,,,,,,,,,,,,,,,,,,,,,,,,,,,,,,,,,,,,,,,,,,,,,,,,,,,,,,,,,,,,,,,,,,,,,,,,,,,,,,,,,,,,,,,,,,,,,,,
,,,,,,613ede27dc808d8880e38ee2,62c53a07efe3f624ee48cfec,2022-07-06_08h30.54.260,Colour_Asymmetry_Pilot,2022.1.3,Win32,60.12506013,62c50e9c1127f2cd403a315f,0,45,45,66,1,twoone,,,,,,,,,,,,,,,,,,,,,,,,,,,,,,,,,,,,,,,,,,,,,,,,,,,,,,,,,,,,,,,,,,,,,,,,,,,,,,,,,,,,,,,,,,,,,,,,,,,,,,,,,,,,,,,,,,,,,,,,,,,,,,,,,,,,,,,,,,,,,,,,,,,,,,,,,,,,,
,,,,,,613ede27dc808d8880e38ee2,62c53a07efe3f624ee48cfec,2022-07-06_08h30.54.260,Colour_Asymmetry_Pilot,2022.1.3,Win32,60.12506013,62c50e9c1127f2cd403a315f,0,46,46,1,1,onethree,,,,,,,,,,,,,,,,,,,,,,,,,,,,,,,,,,,,,,,,,,,,,,,,,,,,,,,,,,,,,,,,,,,,,,,,,,,,,,,,,,,,,,,,,,,,,,,,,,,,,,,,,,,,,,,,,,,,,,,,,,,,,,,,,,,,,,,,,,,,,,,,,,,,,,,,,,,,,
,,,,,,613ede27dc808d8880e38ee2,62c53a07efe3f624ee48cfec,2022-07-06_08h30.54.260,Colour_Asymmetry_Pilot,2022.1.3,Win32,60.12506013,62c50e9c1127f2cd403a315f,0,47,47,20,1,threeone,,,,,,,,,,,,,,,,,,,,,,,,,,,,,,,,,,,,,,,,,,,,,,,,,,,,,,,,,,,,,,,,,,,,,,,,,,,,,,,,,,,,,,,,,,,,,,,,,,,,,,,,,,,,,,,,,,,,,,,,,,,,,,,,,,,,,,,,,,,,,,,,,,,,,,,,,,,,,
,,,,,,613ede27dc808d8880e38ee2,62c53a07efe3f624ee48cfec,2022-07-06_08h30.54.260,Colour_Asymmetry_Pilot,2022.1.3,Win32,60.12506013,62c50e9c1127f2cd403a315f,0,48,48,77,1,threefour,,,,,,,,,,,,,,,,,,,,,,,,,,,,,,,,,,,,,,,,,,,,,,,,,,,,,,,,,,,,,,,,,,,,,,,,,,,,,,,,,,,,,,,,,,,,,,,,,,,,,,,,,,,,,,,,,,,,,,,,,,,,,,,,,,,,,,,,,,,,,,,,,,,,,,,,,,,,,
,,,,,,613ede27dc808d8880e38ee2,62c53a07efe3f624ee48cfec,2022-07-06_08h30.54.260,Colour_Asymmetry_Pilot,2022.1.3,Win32,60.12506013,62c50e9c1127f2cd403a315f,0,49,49,91,1,twofour,,,,,,,,,,,,,,,,,,,,,,,,,,,,,,,,,,,,,,,,,,,,,,,,,,,,,,,,,,,,,,,,,,,,,,,,,,,,,,,,,,,,,,,,,,,,,,,,,,,,,,,,,,,,,,,,,,,,,,,,,,,,,,,,,,,,,,,,,,,,,,,,,,,,,,,,,,,,,
,,,,,,613ede27dc808d8880e38ee2,62c53a07efe3f624ee48cfec,2022-07-06_08h30.54.260,Colour_Asymmetry_Pilot,2022.1.3,Win32,60.12506013,62c50e9c1127f2cd403a315f,0,50,50,137,1,onethree,,,,,,,,,,,,,,,,,,,,,,,,,,,,,,,,,,,,,,,,,,,,,,,,,,,,,,,,,,,,,,,,,,,,,,,,,,,,,,,,,,,,,,,,,,,,,,,,,,,,,,,,,,,,,,,,,,,,,,,,,,,,,,,,,,,,,,,,,,,,,,,,,,,,,,,,,,,,,
,,,,,,613ede27dc808d8880e38ee2,62c53a07efe3f624ee48cfec,2022-07-06_08h30.54.260,Colour_Asymmetry_Pilot,2022.1.3,Win32,60.12506013,62c50e9c1127f2cd403a315f,0,51,51,3,1,twofour,,,,,,,,,,,,,,,,,,,,,,,,,,,,,,,,,,,,,,,,,,,,,,,,,,,,,,,,,,,,,,,,,,,,,,,,,,,,,,,,,,,,,,,,,,,,,,,,,,,,,,,,,,,,,,,,,,,,,,,,,,,,,,,,,,,,,,,,,,,,,,,,,,,,,,,,,,,,,
,,,,,,613ede27dc808d8880e38ee2,62c53a07efe3f624ee48cfec,2022-07-06_08h30.54.260,Colour_Asymmetry_Pilot,2022.1.3,Win32,60.12506013,62c50e9c1127f2cd403a315f,0,52,52,54,1,fourtwo,,,,,,,,,,,,,,,,,,,,,,,,,,,,,,,,,,,,,,,,,,,,,,,,,,,,,,,,,,,,,,,,,,,,,,,,,,,,,,,,,,,,,,,,,,,,,,,,,,,,,,,,,,,,,,,,,,,,,,,,,,,,,,,,,,,,,,,,,,,,,,,,,,,,,,,,,,,,,
,,,,,,613ede27dc808d8880e38ee2,62c53a07efe3f624ee48cfec,2022-07-06_08h30.54.260,Colour_Asymmetry_Pilot,2022.1.3,Win32,60.12506013,62c50e9c1127f2cd403a315f,0,53,53,59,1,twofour,,,,,,,,,,,,,,,,,,,,,,,,,,,,,,,,,,,,,,,,,,,,,,,,,,,,,,,,,,,,,,,,,,,,,,,,,,,,,,,,,,,,,,,,,,,,,,,,,,,,,,,,,,,,,,,,,,,,,,,,,,,,,,,,,,,,,,,,,,,,,,,,,,,,,,,,,,,,,
,,,,,,613ede27dc808d8880e38ee2,62c53a07efe3f624ee48cfec,2022-07-06_08h30.54.260,Colour_Asymmetry_Pilot,2022.1.3,Win32,60.12506013,62c50e9c1127f2cd403a315f,0,54,54,161,1,onethree,,,,,,,,,,,,,,,,,,,,,,,,,,,,,,,,,,,,,,,,,,,,,,,,,,,,,,,,,,,,,,,,,,,,,,,,,,,,,,,,,,,,,,,,,,,,,,,,,,,,,,,,,,,,,,,,,,,,,,,,,,,,,,,,,,,,,,,,,,,,,,,,,,,,,,,,,,,,,
,,,,,,613ede27dc808d8880e38ee2,62c53a07efe3f624ee48cfec,2022-07-06_08h30.54.260,Colour_Asymmetry_Pilot,2022.1.3,Win32,60.12506013,62c50e9c1127f2cd403a315f,0,55,55,157,1,threefour,,,,,,,,,,,,,,,,,,,,,,,,,,,,,,,,,,,,,,,,,,,,,,,,,,,,,,,,,,,,,,,,,,,,,,,,,,,,,,,,,,,,,,,,,,,,,,,,,,,,,,,,,,,,,,,,,,,,,,,,,,,,,,,,,,,,,,,,,,,,,,,,,,,,,,,,,,,,,
,,,,,,613ede27dc808d8880e38ee2,62c53a07efe3f624ee48cfec,2022-07-06_08h30.54.260,Colour_Asymmetry_Pilot,2022.1.3,Win32,60.12506013,62c50e9c1127f2cd403a315f,0,56,56,49,1,onethree,,,,,,,,,,,,,,,,,,,,,,,,,,,,,,,,,,,,,,,,,,,,,,,,,,,,,,,,,,,,,,,,,,,,,,,,,,,,,,,,,,,,,,,,,,,,,,,,,,,,,,,,,,,,,,,,,,,,,,,,,,,,,,,,,,,,,,,,,,,,,,,,,,,,,,,,,,,,,
,,,,,,613ede27dc808d8880e38ee2,62c53a07efe3f624ee48cfec,2022-07-06_08h30.54.260,Colour_Asymmetry_Pilot,2022.1.3,Win32,60.12506013,62c50e9c1127f2cd403a315f,0,57,57,128,1,onetwo,,,,,,,,,,,,,,,,,,,,,,,,,,,,,,,,,,,,,,,,,,,,,,,,,,,,,,,,,,,,,,,,,,,,,,,,,,,,,,,,,,,,,,,,,,,,,,,,,,,,,,,,,,,,,,,,,,,,,,,,,,,,,,,,,,,,,,,,,,,,,,,,,,,,,,,,,,,,,
,,,,,,613ede27dc808d8880e38ee2,62c53a07efe3f624ee48cfec,2022-07-06_08h30.54.260,Colour_Asymmetry_Pilot,2022.1.3,Win32,60.12506013,62c50e9c1127f2cd403a315f,0,58,58,53,1,threefour,,,,,,,,,,,,,,,,,,,,,,,,,,,,,,,,,,,,,,,,,,,,,,,,,,,,,,,,,,,,,,,,,,,,,,,,,,,,,,,,,,,,,,,,,,,,,,,,,,,,,,,,,,,,,,,,,,,,,,,,,,,,,,,,,,,,,,,,,,,,,,,,,,,,,,,,,,,,,
,,,,,,613ede27dc808d8880e38ee2,62c53a07efe3f624ee48cfec,2022-07-06_08h30.54.260,Colour_Asymmetry_Pilot,2022.1.3,Win32,60.12506013,62c50e9c1127f2cd403a315f,0,59,59,142,1,fourtwo,,,,,,,,,,,,,,,,,,,,,,,,,,,,,,,,,,,,,,,,,,,,,,,,,,,,,,,,,,,,,,,,,,,,,,,,,,,,,,,,,,,,,,,,,,,,,,,,,,,,,,,,,,,,,,,,,,,,,,,,,,,,,,,,,,,,,,,,,,,,,,,,,,,,,,,,,,,,,
,,,,,,613ede27dc808d8880e38ee2,62c53a07efe3f624ee48cfec,2022-07-06_08h30.54.260,Colour_Asymmetry_Pilot,2022.1.3,Win32,60.12506013,62c50e9c1127f2cd403a315f,0,60,60,144,1,onetwo,,,,,,,,,,,,,,,,,,,,,,,,,,,,,,,,,,,,,,,,,,,,,,,,,,,,,,,,,,,,,,,,,,,,,,,,,,,,,,,,,,,,,,,,,,,,,,,,,,,,,,,,,,,,,,,,,,,,,,,,,,,,,,,,,,,,,,,,,,,,,,,,,,,,,,,,,,,,,
,,,,,,613ede27dc808d8880e38ee2,62c53a07efe3f624ee48cfec,2022-07-06_08h30.54.260,Colour_Asymmetry_Pilot,2022.1.3,Win32,60.12506013,62c50e9c1127f2cd403a315f,0,61,61,117,1,threefour,,,,,,,,,,,,,,,,,,,,,,,,,,,,,,,,,,,,,,,,,,,,,,,,,,,,,,,,,,,,,,,,,,,,,,,,,,,,,,,,,,,,,,,,,,,,,,,,,,,,,,,,,,,,,,,,,,,,,,,,,,,,,,,,,,,,,,,,,,,,,,,,,,,,,,,,,,,,,
,,,,,,613ede27dc808d8880e38ee2,62c53a07efe3f624ee48cfec,2022-07-06_08h30.54.260,Colour_Asymmetry_Pilot,2022.1.3,Win32,60.12506013,62c50e9c1127f2cd403a315f,0,62,62,42,1,twoone,,,,,,,,,,,,,,,,,,,,,,,,,,,,,,,,,,,,,,,,,,,,,,,,,,,,,,,,,,,,,,,,,,,,,,,,,,,,,,,,,,,,,,,,,,,,,,,,,,,,,,,,,,,,,,,,,,,,,,,,,,,,,,,,,,,,,,,,,,,,,,,,,,,,,,,,,,,,,
,,,,,,613ede27dc808d8880e38ee2,62c53a07efe3f624ee48cfec,2022-07-06_08h30.54.260,Colour_Asymmetry_Pilot,2022.1.3,Win32,60.12506013,62c50e9c1127f2cd403a315f,0,63,63,113,1,onethree,,,,,,,,,,,,,,,,,,,,,,,,,,,,,,,,,,,,,,,,,,,,,,,,,,,,,,,,,,,,,,,,,,,,,,,,,,,,,,,,,,,,,,,,,,,,,,,,,,,,,,,,,,,,,,,,,,,,,,,,,,,,,,,,,,,,,,,,,,,,,,,,,,,,,,,,,,,,,
,,,,,,613ede27dc808d8880e38ee2,62c53a07efe3f624ee48cfec,2022-07-06_08h30.54.260,Colour_Asymmetry_Pilot,2022.1.3,Win32,60.12506013,62c50e9c1127f2cd403a315f,0,64,64,84,1,threeone,,,,,,,,,,,,,,,,,,,,,,,,,,,,,,,,,,,,,,,,,,,,,,,,,,,,,,,,,,,,,,,,,,,,,,,,,,,,,,,,,,,,,,,,,,,,,,,,,,,,,,,,,,,,,,,,,,,,,,,,,,,,,,,,,,,,,,,,,,,,,,,,,,,,,,,,,,,,,
,,,,,,613ede27dc808d8880e38ee2,62c53a07efe3f624ee48cfec,2022-07-06_08h30.54.260,Colour_Asymmetry_Pilot,2022.1.3,Win32,60.12506013,62c50e9c1127f2cd403a315f,0,65,65,25,1,onethree,,,,,,,,,,,,,,,,,,,,,,,,,,,,,,,,,,,,,,,,,,,,,,,,,,,,,,,,,,,,,,,,,,,,,,,,,,,,,,,,,,,,,,,,,,,,,,,,,,,,,,,,,,,,,,,,,,,,,,,,,,,,,,,,,,,,,,,,,,,,,,,,,,,,,,,,,,,,,
,,,,,,613ede27dc808d8880e38ee2,62c53a07efe3f624ee48cfec,2022-07-06_08h30.54.260,Colour_Asymmetry_Pilot,2022.1.3,Win32,60.12506013,62c50e9c1127f2cd403a315f,0,66,66,145,1,onethree,,,,,,,,,,,,,,,,,,,,,,,,,,,,,,,,,,,,,,,,,,,,,,,,,,,,,,,,,,,,,,,,,,,,,,,,,,,,,,,,,,,,,,,,,,,,,,,,,,,,,,,,,,,,,,,,,,,,,,,,,,,,,,,,,,,,,,,,,,,,,,,,,,,,,,,,,,,,,
,,,,,,613ede27dc808d8880e38ee2,62c53a07efe3f624ee48cfec,2022-07-06_08h30.54.260,Colour_Asymmetry_Pilot,2022.1.3,Win32,60.12506013,62c50e9c1127f2cd403a315f,0,67,67,10,1,twoone,,,,,,,,,,,,,,,,,,,,,,,,,,,,,,,,,,,,,,,,,,,,,,,,,,,,,,,,,,,,,,,,,,,,,,,,,,,,,,,,,,,,,,,,,,,,,,,,,,,,,,,,,,,,,,,,,,,,,,,,,,,,,,,,,,,,,,,,,,,,,,,,,,,,,,,,,,,,,
,,,,,,613ede27dc808d8880e38ee2,62c53a07efe3f624ee48cfec,2022-07-06_08h30.54.260,Colour_Asymmetry_Pilot,2022.1.3,Win32,60.12506013,62c50e9c1127f2cd403a315f,0,68,68,44,1,threeone,,,,,,,,,,,,,,,,,,,,,,,,,,,,,,,,,,,,,,,,,,,,,,,,,,,,,,,,,,,,,,,,,,,,,,,,,,,,,,,,,,,,,,,,,,,,,,,,,,,,,,,,,,,,,,,,,,,,,,,,,,,,,,,,,,,,,,,,,,,,,,,,,,,,,,,,,,,,,
,,,,,,613ede27dc808d8880e38ee2,62c53a07efe3f624ee48cfec,2022-07-06_08h30.54.260,Colour_Asymmetry_Pilot,2022.1.3,Win32,60.12506013,62c50e9c1127f2cd403a315f,0,69,69,63,1,fourthree,,,,,,,,,,,,,,,,,,,,,,,,,,,,,,,,,,,,,,,,,,,,,,,,,,,,,,,,,,,,,,,,,,,,,,,,,,,,,,,,,,,,,,,,,,,,,,,,,,,,,,,,,,,,,,,,,,,,,,,,,,,,,,,,,,,,,,,,,,,,,,,,,,,,,,,,,,,,,
,,,,,,613ede27dc808d8880e38ee2,62c53a07efe3f624ee48cfec,2022-07-06_08h30.54.260,Colour_Asymmetry_Pilot,2022.1.3,Win32,60.12506013,62c50e9c1127f2cd403a315f,0,70,70,18,1,twoone,,,,,,,,,,,,,,,,,,,,,,,,,,,,,,,,,,,,,,,,,,,,,,,,,,,,,,,,,,,,,,,,,,,,,,,,,,,,,,,,,,,,,,,,,,,,,,,,,,,,,,,,,,,,,,,,,,,,,,,,,,,,,,,,,,,,,,,,,,,,,,,,,,,,,,,,,,,,,
,,,,,,613ede27dc808d8880e38ee2,62c53a07efe3f624ee48cfec,2022-07-06_08h30.54.260,Colour_Asymmetry_Pilot,2022.1.3,Win32,60.12506013,62c50e9c1127f2cd403a315f,0,71,71,87,1,fourthree,,,,,,,,,,,,,,,,,,,,,,,,,,,,,,,,,,,,,,,,,,,,,,,,,,,,,,,,,,,,,,,,,,,,,,,,,,,,,,,,,,,,,,,,,,,,,,,,,,,,,,,,,,,,,,,,,,,,,,,,,,,,,,,,,,,,,,,,,,,,,,,,,,,,,,,,,,,,,
,,,,,,613ede27dc808d8880e38ee2,62c53a07efe3f624ee48cfec,2022-07-06_08h30.54.260,Colour_Asymmetry_Pilot,2022.1.3,Win32,60.12506013,62c50e9c1127f2cd403a315f,0,72,72,61,1,threefour,,,,,,,,,,,,,,,,,,,,,,,,,,,,,,,,,,,,,,,,,,,,,,,,,,,,,,,,,,,,,,,,,,,,,,,,,,,,,,,,,,,,,,,,,,,,,,,,,,,,,,,,,,,,,,,,,,,,,,,,,,,,,,,,,,,,,,,,,,,,,,,,,,,,,,,,,,,,,
,,,,,,613ede27dc808d8880e38ee2,62c53a07efe3f624ee48cfec,2022-07-06_08h30.54.260,Colour_Asymmetry_Pilot,2022.1.3,Win32,60.12506013,62c50e9c1127f2cd403a315f,0,73,73,62,1,fourtwo,,,,,,,,,,,,,,,,,,,,,,,,,,,,,,,,,,,,,,,,,,,,,,,,,,,,,,,,,,,,,,,,,,,,,,,,,,,,,,,,,,,,,,,,,,,,,,,,,,,,,,,,,,,,,,,,,,,,,,,,,,,,,,,,,,,,,,,,,,,,,,,,,,,,,,,,,,,,,
,,,,,,613ede27dc808d8880e38ee2,62c53a07efe3f624ee48cfec,2022-07-06_08h30.54.260,Colour_Asymmetry_Pilot,2022.1.3,Win32,60.12506013,62c50e9c1127f2cd403a315f,0,74,74,132,1,threeone,,,,,,,,,,,,,,,,,,,,,,,,,,,,,,,,,,,,,,,,,,,,,,,,,,,,,,,,,,,,,,,,,,,,,,,,,,,,,,,,,,,,,,,,,,,,,,,,,,,,,,,,,,,,,,,,,,,,,,,,,,,,,,,,,,,,,,,,,,,,,,,,,,,,,,,,,,,,,
,,,,,,613ede27dc808d8880e38ee2,62c53a07efe3f624ee48cfec,2022-07-06_08h30.54.260,Colour_Asymmetry_Pilot,2022.1.3,Win32,60.12506013,62c50e9c1127f2cd403a315f,0,75,75,150,1,fourtwo,,,,,,,,,,,,,,,,,,,,,,,,,,,,,,,,,,,,,,,,,,,,,,,,,,,,,,,,,,,,,,,,,,,,,,,,,,,,,,,,,,,,,,,,,,,,,,,,,,,,,,,,,,,,,,,,,,,,,,,,,,,,,,,,,,,,,,,,,,,,,,,,,,,,,,,,,,,,,
,,,,,,613ede27dc808d8880e38ee2,62c53a07efe3f624ee48cfec,2022-07-06_08h30.54.260,Colour_Asymmetry_Pilot,2022.1.3,Win32,60.12506013,62c50e9c1127f2cd403a315f,0,76,76,23,1,fourthree,,,,,,,,,,,,,,,,,,,,,,,,,,,,,,,,,,,,,,,,,,,,,,,,,,,,,,,,,,,,,,,,,,,,,,,,,,,,,,,,,,,,,,,,,,,,,,,,,,,,,,,,,,,,,,,,,,,,,,,,,,,,,,,,,,,,,,,,,,,,,,,,,,,,,,,,,,,,,
,,,,,,613ede27dc808d8880e38ee2,62c53a07efe3f624ee48cfec,2022-07-06_08h30.54.260,Colour_Asymmetry_Pilot,2022.1.3,Win32,60.12506013,62c50e9c1127f2cd403a315f,0,77,77,6,1,fourtwo,,,,,,,,,,,,,,,,,,,,,,,,,,,,,,,,,,,,,,,,,,,,,,,,,,,,,,,,,,,,,,,,,,,,,,,,,,,,,,,,,,,,,,,,,,,,,,,,,,,,,,,,,,,,,,,,,,,,,,,,,,,,,,,,,,,,,,,,,,,,,,,,,,,,,,,,,,,,,
,,,,,,613ede27dc808d8880e38ee2,62c53a07efe3f624ee48cfec,2022-07-06_08h30.54.260,Colour_Asymmetry_Pilot,2022.1.3,Win32,60.12506013,62c50e9c1127f2cd403a315f,0,78,78,114,1,twoone,,,,,,,,,,,,,,,,,,,,,,,,,,,,,,,,,,,,,,,,,,,,,,,,,,,,,,,,,,,,,,,,,,,,,,,,,,,,,,,,,,,,,,,,,,,,,,,,,,,,,,,,,,,,,,,,,,,,,,,,,,,,,,,,,,,,,,,,,,,,,,,,,,,,,,,,,,,,,
,,,,,,613ede27dc808d8880e38ee2,62c53a07efe3f624ee48cfec,2022-07-06_08h30.54.260,Colour_Asymmetry_Pilot,2022.1.3,Win32,60.12506013,62c50e9c1127f2cd403a315f,0,79,79,104,1,onetwo,,,,,,,,,,,,,,,,,,,,,,,,,,,,,,,,,,,,,,,,,,,,,,,,,,,,,,,,,,,,,,,,,,,,,,,,,,,,,,,,,,,,,,,,,,,,,,,,,,,,,,,,,,,,,,,,,,,,,,,,,,,,,,,,,,,,,,,,,,,,,,,,,,,,,,,,,,,,,
,,,,,,613ede27dc808d8880e38ee2,62c53a07efe3f624ee48cfec,2022-07-06_08h30.54.260,Colour_Asymmetry_Pilot,2022.1.3,Win32,60.12506013,62c50e9c1127f2cd403a315f,0,80,80,95,1,fourthree,,,,,,,,,,,,,,,,,,,,,,,,,,,,,,,,,,,,,,,,,,,,,,,,,,,,,,,,,,,,,,,,,,,,,,,,,,,,,,,,,,,,,,,,,,,,,,,,,,,,,,,,,,,,,,,,,,,,,,,,,,,,,,,,,,,,,,,,,,,,,,,,,,,,,,,,,,,,,
,,,,,,613ede27dc808d8880e38ee2,62c53a07efe3f624ee48cfec,2022-07-06_08h30.54.260,Colour_Asymmetry_Pilot,2022.1.3,Win32,60.12506013,62c50e9c1127f2cd403a315f,0,81,81,93,1,threefour,,,,,,,,,,,,,,,,,,,,,,,,,,,,,,,,,,,,,,,,,,,,,,,,,,,,,,,,,,,,,,,,,,,,,,,,,,,,,,,,,,,,,,,,,,,,,,,,,,,,,,,,,,,,,,,,,,,,,,,,,,,,,,,,,,,,,,,,,,,,,,,,,,,,,,,,,,,,,
,,,,,,613ede27dc808d8880e38ee2,62c53a07efe3f624ee48cfec,2022-07-06_08h30.54.260,Colour_Asymmetry_Pilot,2022.1.3,Win32,60.12506013,62c50e9c1127f2cd403a315f,0,82,82,131,1,twofour,,,,,,,,,,,,,,,,,,,,,,,,,,,,,,,,,,,,,,,,,,,,,,,,,,,,,,,,,,,,,,,,,,,,,,,,,,,,,,,,,,,,,,,,,,,,,,,,,,,,,,,,,,,,,,,,,,,,,,,,,,,,,,,,,,,,,,,,,,,,,,,,,,,,,,,,,,,,,
,,,,,,613ede27dc808d8880e38ee2,62c53a07efe3f624ee48cfec,2022-07-06_08h30.54.260,Colour_Asymmetry_Pilot,2022.1.3,Win32,60.12506013,62c50e9c1127f2cd403a315f,0,83,83,72,1,onetwo,,,,,,,,,,,,,,,,,,,,,,,,,,,,,,,,,,,,,,,,,,,,,,,,,,,,,,,,,,,,,,,,,,,,,,,,,,,,,,,,,,,,,,,,,,,,,,,,,,,,,,,,,,,,,,,,,,,,,,,,,,,,,,,,,,,,,,,,,,,,,,,,,,,,,,,,,,,,,
,,,,,,613ede27dc808d8880e38ee2,62c53a07efe3f624ee48cfec,2022-07-06_08h30.54.260,Colour_Asymmetry_Pilot,2022.1.3,Win32,60.12506013,62c50e9c1127f2cd403a315f,0,84,84,5,1,threefour,,,,,,,,,,,,,,,,,,,,,,,,,,,,,,,,,,,,,,,,,,,,,,,,,,,,,,,,,,,,,,,,,,,,,,,,,,,,,,,,,,,,,,,,,,,,,,,,,,,,,,,,,,,,,,,,,,,,,,,,,,,,,,,,,,,,,,,,,,,,,,,,,,,,,,,,,,,,,
,,,,,,613ede27dc808d8880e38ee2,62c53a07efe3f624ee48cfec,2022-07-06_08h30.54.260,Colour_Asymmetry_Pilot,2022.1.3,Win32,60.12506013,62c50e9c1127f2cd403a315f,0,85,85,31,1,fourthree,,,,,,,,,,,,,,,,,,,,,,,,,,,,,,,,,,,,,,,,,,,,,,,,,,,,,,,,,,,,,,,,,,,,,,,,,,,,,,,,,,,,,,,,,,,,,,,,,,,,,,,,,,,,,,,,,,,,,,,,,,,,,,,,,,,,,,,,,,,,,,,,,,,,,,,,,,,,,
,,,,,,613ede27dc808d8880e38ee2,62c53a07efe3f624ee48cfec,2022-07-06_08h30.54.260,Colour_Asymmetry_Pilot,2022.1.3,Win32,60.12506013,62c50e9c1127f2cd403a315f,0,86,86,115,1,twofour,,,,,,,,,,,,,,,,,,,,,,,,,,,,,,,,,,,,,,,,,,,,,,,,,,,,,,,,,,,,,,,,,,,,,,,,,,,,,,,,,,,,,,,,,,,,,,,,,,,,,,,,,,,,,,,,,,,,,,,,,,,,,,,,,,,,,,,,,,,,,,,,,,,,,,,,,,,,,
,,,,,,613ede27dc808d8880e38ee2,62c53a07efe3f624ee48cfec,2022-07-06_08h30.54.260,Colour_Asymmetry_Pilot,2022.1.3,Win32,60.12506013,62c50e9c1127f2cd403a315f,0,87,87,14,1,fourtwo,,,,,,,,,,,,,,,,,,,,,,,,,,,,,,,,,,,,,,,,,,,,,,,,,,,,,,,,,,,,,,,,,,,,,,,,,,,,,,,,,,,,,,,,,,,,,,,,,,,,,,,,,,,,,,,,,,,,,,,,,,,,,,,,,,,,,,,,,,,,,,,,,,,,,,,,,,,,,
,,,,,,613ede27dc808d8880e38ee2,62c53a07efe3f624ee48cfec,2022-07-06_08h30.54.260,Colour_Asymmetry_Pilot,2022.1.3,Win32,60.12506013,62c50e9c1127f2cd403a315f,0,88,88,8,1,onetwo,,,,,,,,,,,,,,,,,,,,,,,,,,,,,,,,,,,,,,,,,,,,,,,,,,,,,,,,,,,,,,,,,,,,,,,,,,,,,,,,,,,,,,,,,,,,,,,,,,,,,,,,,,,,,,,,,,,,,,,,,,,,,,,,,,,,,,,,,,,,,,,,,,,,,,,,,,,,,
,,,,,,613ede27dc808d8880e38ee2,62c53a07efe3f624ee48cfec,2022-07-06_08h30.54.260,Colour_Asymmetry_Pilot,2022.1.3,Win32,60.12506013,62c50e9c1127f2cd403a315f,0,89,89,159,1,fourthree,,,,,,,,,,,,,,,,,,,,,,,,,,,,,,,,,,,,,,,,,,,,,,,,,,,,,,,,,,,,,,,,,,,,,,,,,,,,,,,,,,,,,,,,,,,,,,,,,,,,,,,,,,,,,,,,,,,,,,,,,,,,,,,,,,,,,,,,,,,,,,,,,,,,,,,,,,,,,
,,,,,,613ede27dc808d8880e38ee2,62c53a07efe3f624ee48cfec,2022-07-06_08h30.54.260,Colour_Asymmetry_Pilot,2022.1.3,Win32,60.12506013,62c50e9c1127f2cd403a315f,0,90,90,88,1,onetwo,,,,,,,,,,,,,,,,,,,,,,,,,,,,,,,,,,,,,,,,,,,,,,,,,,,,,,,,,,,,,,,,,,,,,,,,,,,,,,,,,,,,,,,,,,,,,,,,,,,,,,,,,,,,,,,,,,,,,,,,,,,,,,,,,,,,,,,,,,,,,,,,,,,,,,,,,,,,,
,,,,,,613ede27dc808d8880e38ee2,62c53a07efe3f624ee48cfec,2022-07-06_08h30.54.260,Colour_Asymmetry_Pilot,2022.1.3,Win32,60.12506013,62c50e9c1127f2cd403a315f,0,91,91,35,1,twofour,,,,,,,,,,,,,,,,,,,,,,,,,,,,,,,,,,,,,,,,,,,,,,,,,,,,,,,,,,,,,,,,,,,,,,,,,,,,,,,,,,,,,,,,,,,,,,,,,,,,,,,,,,,,,,,,,,,,,,,,,,,,,,,,,,,,,,,,,,,,,,,,,,,,,,,,,,,,,
,,,,,,613ede27dc808d8880e38ee2,62c53a07efe3f624ee48cfec,2022-07-06_08h30.54.260,Colour_Asymmetry_Pilot,2022.1.3,Win32,60.12506013,62c50e9c1127f2cd403a315f,0,92,92,148,1,threeone,,,,,,,,,,,,,,,,,,,,,,,,,,,,,,,,,,,,,,,,,,,,,,,,,,,,,,,,,,,,,,,,,,,,,,,,,,,,,,,,,,,,,,,,,,,,,,,,,,,,,,,,,,,,,,,,,,,,,,,,,,,,,,,,,,,,,,,,,,,,,,,,,,,,,,,,,,,,,
,,,,,,613ede27dc808d8880e38ee2,62c53a07efe3f624ee48cfec,2022-07-06_08h30.54.260,Colour_Asymmetry_Pilot,2022.1.3,Win32,60.12506013,62c50e9c1127f2cd403a315f,0,93,93,28,1,threeone,,,,,,,,,,,,,,,,,,,,,,,,,,,,,,,,,,,,,,,,,,,,,,,,,,,,,,,,,,,,,,,,,,,,,,,,,,,,,,,,,,,,,,,,,,,,,,,,,,,,,,,,,,,,,,,,,,,,,,,,,,,,,,,,,,,,,,,,,,,,,,,,,,,,,,,,,,,,,
,,,,,,613ede27dc808d8880e38ee2,62c53a07efe3f624ee48cfec,2022-07-06_08h30.54.260,Colour_Asymmetry_Pilot,2022.1.3,Win32,60.12506013,62c50e9c1127f2cd403a315f,0,94,94,46,1,fourtwo,,,,,,,,,,,,,,,,,,,,,,,,,,,,,,,,,,,,,,,,,,,,,,,,,,,,,,,,,,,,,,,,,,,,,,,,,,,,,,,,,,,,,,,,,,,,,,,,,,,,,,,,,,,,,,,,,,,,,,,,,,,,,,,,,,,,,,,,,,,,,,,,,,,,,,,,,,,,,
,,,,,,613ede27dc808d8880e38ee2,62c53a07efe3f624ee48cfec,2022-07-06_08h30.54.260,Colour_Asymmetry_Pilot,2022.1.3,Win32,60.12506013,62c50e9c1127f2cd403a315f,0,95,95,4,1,threeone,,,,,,,,,,,,,,,,,,,,,,,,,,,,,,,,,,,,,,,,,,,,,,,,,,,,,,,,,,,,,,,,,,,,,,,,,,,,,,,,,,,,,,,,,,,,,,,,,,,,,,,,,,,,,,,,,,,,,,,,,,,,,,,,,,,,,,,,,,,,,,,,,,,,,,,,,,,,,
,,,,,,613ede27dc808d8880e38ee2,62c53a07efe3f624ee48cfec,2022-07-06_08h30.54.260,Colour_Asymmetry_Pilot,2022.1.3,Win32,60.12506013,62c50e9c1127f2cd403a315f,0,96,96,81,1,onethree,,,,,,,,,,,,,,,,,,,,,,,,,,,,,,,,,,,,,,,,,,,,,,,,,,,,,,,,,,,,,,,,,,,,,,,,,,,,,,,,,,,,,,,,,,,,,,,,,,,,,,,,,,,,,,,,,,,,,,,,,,,,,,,,,,,,,,,,,,,,,,,,,,,,,,,,,,,,,
,,,,,,613ede27dc808d8880e38ee2,62c53a07efe3f624ee48cfec,2022-07-06_08h30.54.260,Colour_Asymmetry_Pilot,2022.1.3,Win32,60.12506013,62c50e9c1127f2cd403a315f,0,97,97,75,1,twofour,,,,,,,,,,,,,,,,,,,,,,,,,,,,,,,,,,,,,,,,,,,,,,,,,,,,,,,,,,,,,,,,,,,,,,,,,,,,,,,,,,,,,,,,,,,,,,,,,,,,,,,,,,,,,,,,,,,,,,,,,,,,,,,,,,,,,,,,,,,,,,,,,,,,,,,,,,,,,
,,,,,,613ede27dc808d8880e38ee2,62c53a07efe3f624ee48cfec,2022-07-06_08h30.54.260,Colour_Asymmetry_Pilot,2022.1.3,Win32,60.12506013,62c50e9c1127f2cd403a315f,0,98,98,13,1,threefour,,,,,,,,,,,,,,,,,,,,,,,,,,,,,,,,,,,,,,,,,,,,,,,,,,,,,,,,,,,,,,,,,,,,,,,,,,,,,,,,,,,,,,,,,,,,,,,,,,,,,,,,,,,,,,,,,,,,,,,,,,,,,,,,,,,,,,,,,,,,,,,,,,,,,,,,,,,,,
,,,,,,613ede27dc808d8880e38ee2,62c53a07efe3f624ee48cfec,2022-07-06_08h30.54.260,Colour_Asymmetry_Pilot,2022.1.3,Win32,60.12506013,62c50e9c1127f2cd403a315f,0,99,99,82,1,twoone,,,,,,,,,,,,,,,,,,,,,,,,,,,,,,,,,,,,,,,,,,,,,,,,,,,,,,,,,,,,,,,,,,,,,,,,,,,,,,,,,,,,,,,,,,,,,,,,,,,,,,,,,,,,,,,,,,,,,,,,,,,,,,,,,,,,,,,,,,,,,,,,,,,,,,,,,,,,,
,,,,,,613ede27dc808d8880e38ee2,62c53a07efe3f624ee48cfec,2022-07-06_08h30.54.260,Colour_Asymmetry_Pilot,2022.1.3,Win32,60.12506013,62c50e9c1127f2cd403a315f,0,100,100,26,1,twoone,,,,,,,,,,,,,,,,,,,,,,,,,,,,,,,,,,,,,,,,,,,,,,,,,,,,,,,,,,,,,,,,,,,,,,,,,,,,,,,,,,,,,,,,,,,,,,,,,,,,,,,,,,,,,,,,,,,,,,,,,,,,,,,,,,,,,,,,,,,,,,,,,,,,,,,,,,,,,
,,,,,,613ede27dc808d8880e38ee2,62c53a07efe3f624ee48cfec,2022-07-06_08h30.54.260,Colour_Asymmetry_Pilot,2022.1.3,Win32,60.12506013,62c50e9c1127f2cd403a315f,0,101,101,130,1,twoone,,,,,,,,,,,,,,,,,,,,,,,,,,,,,,,,,,,,,,,,,,,,,,,,,,,,,,,,,,,,,,,,,,,,,,,,,,,,,,,,,,,,,,,,,,,,,,,,,,,,,,,,,,,,,,,,,,,,,,,,,,,,,,,,,,,,,,,,,,,,,,,,,,,,,,,,,,,,,
,,,,,,613ede27dc808d8880e38ee2,62c53a07efe3f624ee48cfec,2022-07-06_08h30.54.260,Colour_Asymmetry_Pilot,2022.1.3,Win32,60.12506013,62c50e9c1127f2cd403a315f,0,102,102,151,1,fourthree,,,,,,,,,,,,,,,,,,,,,,,,,,,,,,,,,,,,,,,,,,,,,,,,,,,,,,,,,,,,,,,,,,,,,,,,,,,,,,,,,,,,,,,,,,,,,,,,,,,,,,,,,,,,,,,,,,,,,,,,,,,,,,,,,,,,,,,,,,,,,,,,,,,,,,,,,,,,,
,,,,,,613ede27dc808d8880e38ee2,62c53a07efe3f624ee48cfec,2022-07-06_08h30.54.260,Colour_Asymmetry_Pilot,2022.1.3,Win32,60.12506013,62c50e9c1127f2cd403a315f,0,103,103,154,1,twoone,,,,,,,,,,,,,,,,,,,,,,,,,,,,,,,,,,,,,,,,,,,,,,,,,,,,,,,,,,,,,,,,,,,,,,,,,,,,,,,,,,,,,,,,,,,,,,,,,,,,,,,,,,,,,,,,,,,,,,,,,,,,,,,,,,,,,,,,,,,,,,,,,,,,,,,,,,,,,
,,,,,,613ede27dc808d8880e38ee2,62c53a07efe3f624ee48cfec,2022-07-06_08h30.54.260,Colour_Asymmetry_Pilot,2022.1.3,Win32,60.12506013,62c50e9c1127f2cd403a315f,0,104,104,37,1,threefour,,,,,,,,,,,,,,,,,,,,,,,,,,,,,,,,,,,,,,,,,,,,,,,,,,,,,,,,,,,,,,,,,,,,,,,,,,,,,,,,,,,,,,,,,,,,,,,,,,,,,,,,,,,,,,,,,,,,,,,,,,,,,,,,,,,,,,,,,,,,,,,,,,,,,,,,,,,,,
,,,,,,613ede27dc808d8880e38ee2,62c53a07efe3f624ee48cfec,2022-07-06_08h30.54.260,Colour_Asymmetry_Pilot,2022.1.3,Win32,60.12506013,62c50e9c1127f2cd403a315f,0,105,105,38,1,fourtwo,,,,,,,,,,,,,,,,,,,,,,,,,,,,,,,,,,,,,,,,,,,,,,,,,,,,,,,,,,,,,,,,,,,,,,,,,,,,,,,,,,,,,,,,,,,,,,,,,,,,,,,,,,,,,,,,,,,,,,,,,,,,,,,,,,,,,,,,,,,,,,,,,,,,,,,,,,,,,
,,,,,,613ede27dc808d8880e38ee2,62c53a07efe3f624ee48cfec,2022-07-06_08h30.54.260,Colour_Asymmetry_Pilot,2022.1.3,Win32,60.12506013,62c50e9c1127f2cd403a315f,0,106,106,17,1,onethree,,,,,,,,,,,,,,,,,,,,,,,,,,,,,,,,,,,,,,,,,,,,,,,,,,,,,,,,,,,,,,,,,,,,,,,,,,,,,,,,,,,,,,,,,,,,,,,,,,,,,,,,,,,,,,,,,,,,,,,,,,,,,,,,,,,,,,,,,,,,,,,,,,,,,,,,,,,,,
,,,,,,613ede27dc808d8880e38ee2,62c53a07efe3f624ee48cfec,2022-07-06_08h30.54.260,Colour_Asymmetry_Pilot,2022.1.3,Win32,60.12506013,62c50e9c1127f2cd403a315f,0,107,107,73,1,onethree,,,,,,,,,,,,,,,,,,,,,,,,,,,,,,,,,,,,,,,,,,,,,,,,,,,,,,,,,,,,,,,,,,,,,,,,,,,,,,,,,,,,,,,,,,,,,,,,,,,,,,,,,,,,,,,,,,,,,,,,,,,,,,,,,,,,,,,,,,,,,,,,,,,,,,,,,,,,,
,,,,,,613ede27dc808d8880e38ee2,62c53a07efe3f624ee48cfec,2022-07-06_08h30.54.260,Colour_Asymmetry_Pilot,2022.1.3,Win32,60.12506013,62c50e9c1127f2cd403a315f,0,108,108,58,1,twoone,,,,,,,,,,,,,,,,,,,,,,,,,,,,,,,,,,,,,,,,,,,,,,,,,,,,,,,,,,,,,,,,,,,,,,,,,,,,,,,,,,,,,,,,,,,,,,,,,,,,,,,,,,,,,,,,,,,,,,,,,,,,,,,,,,,,,,,,,,,,,,,,,,,,,,,,,,,,,
,,,,,,613ede27dc808d8880e38ee2,62c53a07efe3f624ee48cfec,2022-07-06_08h30.54.260,Colour_Asymmetry_Pilot,2022.1.3,Win32,60.12506013,62c50e9c1127f2cd403a315f,0,109,109,7,1,fourthree,,,,,,,,,,,,,,,,,,,,,,,,,,,,,,,,,,,,,,,,,,,,,,,,,,,,,,,,,,,,,,,,,,,,,,,,,,,,,,,,,,,,,,,,,,,,,,,,,,,,,,,,,,,,,,,,,,,,,,,,,,,,,,,,,,,,,,,,,,,,,,,,,,,,,,,,,,,,,
,,,,,,613ede27dc808d8880e38ee2,62c53a07efe3f624ee48cfec,2022-07-06_08h30.54.260,Colour_Asymmetry_Pilot,2022.1.3,Win32,60.12506013,62c50e9c1127f2cd403a315f,0,110,110,71,1,fourthree,,,,,,,,,,,,,,,,,,,,,,,,,,,,,,,,,,,,,,,,,,,,,,,,,,,,,,,,,,,,,,,,,,,,,,,,,,,,,,,,,,,,,,,,,,,,,,,,,,,,,,,,,,,,,,,,,,,,,,,,,,,,,,,,,,,,,,,,,,,,,,,,,,,,,,,,,,,,,
,,,,,,613ede27dc808d8880e38ee2,62c53a07efe3f624ee48cfec,2022-07-06_08h30.54.260,Colour_Asymmetry_Pilot,2022.1.3,Win32,60.12506013,62c50e9c1127f2cd403a315f,0,111,111,140,1,threeone,,,,,,,,,,,,,,,,,,,,,,,,,,,,,,,,,,,,,,,,,,,,,,,,,,,,,,,,,,,,,,,,,,,,,,,,,,,,,,,,,,,,,,,,,,,,,,,,,,,,,,,,,,,,,,,,,,,,,,,,,,,,,,,,,,,,,,,,,,,,,,,,,,,,,,,,,,,,,
,,,,,,613ede27dc808d8880e38ee2,62c53a07efe3f624ee48cfec,2022-07-06_08h30.54.260,Colour_Asymmetry_Pilot,2022.1.3,Win32,60.12506013,62c50e9c1127f2cd403a315f,0,112,112,21,1,threefour,,,,,,,,,,,,,,,,,,,,,,,,,,,,,,,,,,,,,,,,,,,,,,,,,,,,,,,,,,,,,,,,,,,,,,,,,,,,,,,,,,,,,,,,,,,,,,,,,,,,,,,,,,,,,,,,,,,,,,,,,,,,,,,,,,,,,,,,,,,,,,,,,,,,,,,,,,,,,
,,,,,,613ede27dc808d8880e38ee2,62c53a07efe3f624ee48cfec,2022-07-06_08h30.54.260,Colour_Asymmetry_Pilot,2022.1.3,Win32,60.12506013,62c50e9c1127f2cd403a315f,0,113,113,15,1,fourthree,,,,,,,,,,,,,,,,,,,,,,,,,,,,,,,,,,,,,,,,,,,,,,,,,,,,,,,,,,,,,,,,,,,,,,,,,,,,,,,,,,,,,,,,,,,,,,,,,,,,,,,,,,,,,,,,,,,,,,,,,,,,,,,,,,,,,,,,,,,,,,,,,,,,,,,,,,,,,
,,,,,,613ede27dc808d8880e38ee2,62c53a07efe3f624ee48cfec,2022-07-06_08h30.54.260,Colour_Asymmetry_Pilot,2022.1.3,Win32,60.12506013,62c50e9c1127f2cd403a315f,0,114,114,83,1,twofour,,,,,,,,,,,,,,,,,,,,,,,,,,,,,,,,,,,,,,,,,,,,,,,,,,,,,,,,,,,,,,,,,,,,,,,,,,,,,,,,,,,,,,,,,,,,,,,,,,,,,,,,,,,,,,,,,,,,,,,,,,,,,,,,,,,,,,,,,,,,,,,,,,,,,,,,,,,,,
,,,,,,613ede27dc808d8880e38ee2,62c53a07efe3f624ee48cfec,2022-07-06_08h30.54.260,Colour_Asymmetry_Pilot,2022.1.3,Win32,60.12506013,62c50e9c1127f2cd403a315f,0,115,115,68,1,threeone,,,,,,,,,,,,,,,,,,,,,,,,,,,,,,,,,,,,,,,,,,,,,,,,,,,,,,,,,,,,,,,,,,,,,,,,,,,,,,,,,,,,,,,,,,,,,,,,,,,,,,,,,,,,,,,,,,,,,,,,,,,,,,,,,,,,,,,,,,,,,,,,,,,,,,,,,,,,,
,,,,,,613ede27dc808d8880e38ee2,62c53a07efe3f624ee48cfec,2022-07-06_08h30.54.260,Colour_Asymmetry_Pilot,2022.1.3,Win32,60.12506013,62c50e9c1127f2cd403a315f,0,116,116,136,1,onetwo,,,,,,,,,,,,,,,,,,,,,,,,,,,,,,,,,,,,,,,,,,,,,,,,,,,,,,,,,,,,,,,,,,,,,,,,,,,,,,,,,,,,,,,,,,,,,,,,,,,,,,,,,,,,,,,,,,,,,,,,,,,,,,,,,,,,,,,,,,,,,,,,,,,,,,,,,,,,,
,,,,,,613ede27dc808d8880e38ee2,62c53a07efe3f624ee48cfec,2022-07-06_08h30.54.260,Colour_Asymmetry_Pilot,2022.1.3,Win32,60.12506013,62c50e9c1127f2cd403a315f,0,117,117,76,1,threeone,,,,,,,,,,,,,,,,,,,,,,,,,,,,,,,,,,,,,,,,,,,,,,,,,,,,,,,,,,,,,,,,,,,,,,,,,,,,,,,,,,,,,,,,,,,,,,,,,,,,,,,,,,,,,,,,,,,,,,,,,,,,,,,,,,,,,,,,,,,,,,,,,,,,,,,,,,,,,
,,,,,,613ede27dc808d8880e38ee2,62c53a07efe3f624ee48cfec,2022-07-06_08h30.54.260,Colour_Asymmetry_Pilot,2022.1.3,Win32,60.12506013,62c50e9c1127f2cd403a315f,0,118,118,120,1,onetwo,,,,,,,,,,,,,,,,,,,,,,,,,,,,,,,,,,,,,,,,,,,,,,,,,,,,,,,,,,,,,,,,,,,,,,,,,,,,,,,,,,,,,,,,,,,,,,,,,,,,,,,,,,,,,,,,,,,,,,,,,,,,,,,,,,,,,,,,,,,,,,,,,,,,,,,,,,,,,
,,,,,,613ede27dc808d8880e38ee2,62c53a07efe3f624ee48cfec,2022-07-06_08h30.54.260,Colour_Asymmetry_Pilot,2022.1.3,Win32,60.12506013,62c50e9c1127f2cd403a315f,0,119,119,96,1,onetwo,,,,,,,,,,,,,,,,,,,,,,,,,,,,,,,,,,,,,,,,,,,,,,,,,,,,,,,,,,,,,,,,,,,,,,,,,,,,,,,,,,,,,,,,,,,,,,,,,,,,,,,,,,,,,,,,,,,,,,,,,,,,,,,,,,,,,,,,,,,,,,,,,,,,,,,,,,,,,
,,,,,,613ede27dc808d8880e38ee2,62c53a07efe3f624ee48cfec,2022-07-06_08h30.54.260,Colour_Asymmetry_Pilot,2022.1.3,Win32,60.12506013,62c50e9c1127f2cd403a315f,0,120,120,79,1,fourthree,,,,,,,,,,,,,,,,,,,,,,,,,,,,,,,,,,,,,,,,,,,,,,,,,,,,,,,,,,,,,,,,,,,,,,,,,,,,,,,,,,,,,,,,,,,,,,,,,,,,,,,,,,,,,,,,,,,,,,,,,,,,,,,,,,,,,,,,,,,,,,,,,,,,,,,,,,,,,
,,,,,,613ede27dc808d8880e38ee2,62c53a07efe3f624ee48cfec,2022-07-06_08h30.54.260,Colour_Asymmetry_Pilot,2022.1.3,Win32,60.12506013,62c50e9c1127f2cd403a315f,0,121,121,143,1,fourthree,,,,,,,,,,,,,,,,,,,,,,,,,,,,,,,,,,,,,,,,,,,,,,,,,,,,,,,,,,,,,,,,,,,,,,,,,,,,,,,,,,,,,,,,,,,,,,,,,,,,,,,,,,,,,,,,,,,,,,,,,,,,,,,,,,,,,,,,,,,,,,,,,,,,,,,,,,,,,
,,,,,,613ede27dc808d8880e38ee2,62c53a07efe3f624ee48cfec,2022-07-06_08h30.54.260,Colour_Asymmetry_Pilot,2022.1.3,Win32,60.12506013,62c50e9c1127f2cd403a315f,0,122,122,0,1,onetwo,,,,,,,,,,,,,,,,,,,,,,,,,,,,,,,,,,,,,,,,,,,,,,,,,,,,,,,,,,,,,,,,,,,,,,,,,,,,,,,,,,,,,,,,,,,,,,,,,,,,,,,,,,,,,,,,,,,,,,,,,,,,,,,,,,,,,,,,,,,,,,,,,,,,,,,,,,,,,
,,,,,,613ede27dc808d8880e38ee2,62c53a07efe3f624ee48cfec,2022-07-06_08h30.54.260,Colour_Asymmetry_Pilot,2022.1.3,Win32,60.12506013,62c50e9c1127f2cd403a315f,0,123,123,19,1,twofour,,,,,,,,,,,,,,,,,,,,,,,,,,,,,,,,,,,,,,,,,,,,,,,,,,,,,,,,,,,,,,,,,,,,,,,,,,,,,,,,,,,,,,,,,,,,,,,,,,,,,,,,,,,,,,,,,,,,,,,,,,,,,,,,,,,,,,,,,,,,,,,,,,,,,,,,,,,,,
,,,,,,613ede27dc808d8880e38ee2,62c53a07efe3f624ee48cfec,2022-07-06_08h30.54.260,Colour_Asymmetry_Pilot,2022.1.3,Win32,60.12506013,62c50e9c1127f2cd403a315f,0,124,124,12,1,threeone,,,,,,,,,,,,,,,,,,,,,,,,,,,,,,,,,,,,,,,,,,,,,,,,,,,,,,,,,,,,,,,,,,,,,,,,,,,,,,,,,,,,,,,,,,,,,,,,,,,,,,,,,,,,,,,,,,,,,,,,,,,,,,,,,,,,,,,,,,,,,,,,,,,,,,,,,,,,,
,,,,,,613ede27dc808d8880e38ee2,62c53a07efe3f624ee48cfec,2022-07-06_08h30.54.260,Colour_Asymmetry_Pilot,2022.1.3,Win32,60.12506013,62c50e9c1127f2cd403a315f,0,125,125,64,1,onetwo,,,,,,,,,,,,,,,,,,,,,,,,,,,,,,,,,,,,,,,,,,,,,,,,,,,,,,,,,,,,,,,,,,,,,,,,,,,,,,,,,,,,,,,,,,,,,,,,,,,,,,,,,,,,,,,,,,,,,,,,,,,,,,,,,,,,,,,,,,,,,,,,,,,,,,,,,,,,,
,,,,,,613ede27dc808d8880e38ee2,62c53a07efe3f624ee48cfec,2022-07-06_08h30.54.260,Colour_Asymmetry_Pilot,2022.1.3,Win32,60.12506013,62c50e9c1127f2cd403a315f,0,126,126,39,1,fourthree,,,,,,,,,,,,,,,,,,,,,,,,,,,,,,,,,,,,,,,,,,,,,,,,,,,,,,,,,,,,,,,,,,,,,,,,,,,,,,,,,,,,,,,,,,,,,,,,,,,,,,,,,,,,,,,,,,,,,,,,,,,,,,,,,,,,,,,,,,,,,,,,,,,,,,,,,,,,,
,,,,,,613ede27dc808d8880e38ee2,62c53a07efe3f624ee48cfec,2022-07-06_08h30.54.260,Colour_Asymmetry_Pilot,2022.1.3,Win32,60.12506013,62c50e9c1127f2cd403a315f,0,127,127,156,1,threeone,,,,,,,,,,,,,,,,,,,,,,,,,,,,,,,,,,,,,,,,,,,,,,,,,,,,,,,,,,,,,,,,,,,,,,,,,,,,,,,,,,,,,,,,,,,,,,,,,,,,,,,,,,,,,,,,,,,,,,,,,,,,,,,,,,,,,,,,,,,,,,,,,,,,,,,,,,,,,
,,,,,,613ede27dc808d8880e38ee2,62c53a07efe3f624ee48cfec,2022-07-06_08h30.54.260,Colour_Asymmetry_Pilot,2022.1.3,Win32,60.12506013,62c50e9c1127f2cd403a315f,0,128,128,47,1,fourthree,,,,,,,,,,,,,,,,,,,,,,,,,,,,,,,,,,,,,,,,,,,,,,,,,,,,,,,,,,,,,,,,,,,,,,,,,,,,,,,,,,,,,,,,,,,,,,,,,,,,,,,,,,,,,,,,,,,,,,,,,,,,,,,,,,,,,,,,,,,,,,,,,,,,,,,,,,,,,
,,,,,,613ede27dc808d8880e38ee2,62c53a07efe3f624ee48cfec,2022-07-06_08h30.54.260,Colour_Asymmetry_Pilot,2022.1.3,Win32,60.12506013,62c50e9c1127f2cd403a315f,0,129,129,92,1,threeone,,,,,,,,,,,,,,,,,,,,,,,,,,,,,,,,,,,,,,,,,,,,,,,,,,,,,,,,,,,,,,,,,,,,,,,,,,,,,,,,,,,,,,,,,,,,,,,,,,,,,,,,,,,,,,,,,,,,,,,,,,,,,,,,,,,,,,,,,,,,,,,,,,,,,,,,,,,,,
,,,,,,613ede27dc808d8880e38ee2,62c53a07efe3f624ee48cfec,2022-07-06_08h30.54.260,Colour_Asymmetry_Pilot,2022.1.3,Win32,60.12506013,62c50e9c1127f2cd403a315f,0,130,130,118,1,fourtwo,,,,,,,,,,,,,,,,,,,,,,,,,,,,,,,,,,,,,,,,,,,,,,,,,,,,,,,,,,,,,,,,,,,,,,,,,,,,,,,,,,,,,,,,,,,,,,,,,,,,,,,,,,,,,,,,,,,,,,,,,,,,,,,,,,,,,,,,,,,,,,,,,,,,,,,,,,,,,
,,,,,,613ede27dc808d8880e38ee2,62c53a07efe3f624ee48cfec,2022-07-06_08h30.54.260,Colour_Asymmetry_Pilot,2022.1.3,Win32,60.12506013,62c50e9c1127f2cd403a315f,0,131,131,138,1,twoone,,,,,,,,,,,,,,,,,,,,,,,,,,,,,,,,,,,,,,,,,,,,,,,,,,,,,,,,,,,,,,,,,,,,,,,,,,,,,,,,,,,,,,,,,,,,,,,,,,,,,,,,,,,,,,,,,,,,,,,,,,,,,,,,,,,,,,,,,,,,,,,,,,,,,,,,,,,,,
,,,,,,613ede27dc808d8880e38ee2,62c53a07efe3f624ee48cfec,2022-07-06_08h30.54.260,Colour_Asymmetry_Pilot,2022.1.3,Win32,60.12506013,62c50e9c1127f2cd403a315f,0,132,132,40,1,onetwo,,,,,,,,,,,,,,,,,,,,,,,,,,,,,,,,,,,,,,,,,,,,,,,,,,,,,,,,,,,,,,,,,,,,,,,,,,,,,,,,,,,,,,,,,,,,,,,,,,,,,,,,,,,,,,,,,,,,,,,,,,,,,,,,,,,,,,,,,,,,,,,,,,,,,,,,,,,,,
,,,,,,613ede27dc808d8880e38ee2,62c53a07efe3f624ee48cfec,2022-07-06_08h30.54.260,Colour_Asymmetry_Pilot,2022.1.3,Win32,60.12506013,62c50e9c1127f2cd403a315f,0,133,133,90,1,twoone,,,,,,,,,,,,,,,,,,,,,,,,,,,,,,,,,,,,,,,,,,,,,,,,,,,,,,,,,,,,,,,,,,,,,,,,,,,,,,,,,,,,,,,,,,,,,,,,,,,,,,,,,,,,,,,,,,,,,,,,,,,,,,,,,,,,,,,,,,,,,,,,,,,,,,,,,,,,,
,,,,,,613ede27dc808d8880e38ee2,62c53a07efe3f624ee48cfec,2022-07-06_08h30.54.260,Colour_Asymmetry_Pilot,2022.1.3,Win32,60.12506013,62c50e9c1127f2cd403a315f,0,134,134,129,1,onethree,,,,,,,,,,,,,,,,,,,,,,,,,,,,,,,,,,,,,,,,,,,,,,,,,,,,,,,,,,,,,,,,,,,,,,,,,,,,,,,,,,,,,,,,,,,,,,,,,,,,,,,,,,,,,,,,,,,,,,,,,,,,,,,,,,,,,,,,,,,,,,,,,,,,,,,,,,,,,
,,,,,,613ede27dc808d8880e38ee2,62c53a07efe3f624ee48cfec,2022-07-06_08h30.54.260,Colour_Asymmetry_Pilot,2022.1.3,Win32,60.12506013,62c50e9c1127f2cd403a315f,0,135,135,125,1,threefour,,,,,,,,,,,,,,,,,,,,,,,,,,,,,,,,,,,,,,,,,,,,,,,,,,,,,,,,,,,,,,,,,,,,,,,,,,,,,,,,,,,,,,,,,,,,,,,,,,,,,,,,,,,,,,,,,,,,,,,,,,,,,,,,,,,,,,,,,,,,,,,,,,,,,,,,,,,,,
,,,,,,613ede27dc808d8880e38ee2,62c53a07efe3f624ee48cfec,2022-07-06_08h30.54.260,Colour_Asymmetry_Pilot,2022.1.3,Win32,60.12506013,62c50e9c1127f2cd403a315f,0,136,136,158,1,fourtwo,,,,,,,,,,,,,,,,,,,,,,,,,,,,,,,,,,,,,,,,,,,,,,,,,,,,,,,,,,,,,,,,,,,,,,,,,,,,,,,,,,,,,,,,,,,,,,,,,,,,,,,,,,,,,,,,,,,,,,,,,,,,,,,,,,,,,,,,,,,,,,,,,,,,,,,,,,,,,
,,,,,,613ede27dc808d8880e38ee2,62c53a07efe3f624ee48cfec,2022-07-06_08h30.54.260,Colour_Asymmetry_Pilot,2022.1.3,Win32,60.12506013,62c50e9c1127f2cd403a315f,0,137,137,45,1,threefour,,,,,,,,,,,,,,,,,,,,,,,,,,,,,,,,,,,,,,,,,,,,,,,,,,,,,,,,,,,,,,,,,,,,,,,,,,,,,,,,,,,,,,,,,,,,,,,,,,,,,,,,,,,,,,,,,,,,,,,,,,,,,,,,,,,,,,,,,,,,,,,,,,,,,,,,,,,,,
,,,,,,613ede27dc808d8880e38ee2,62c53a07efe3f624ee48cfec,2022-07-06_08h30.54.260,Colour_Asymmetry_Pilot,2022.1.3,Win32,60.12506013,62c50e9c1127f2cd403a315f,0,138,138,29,1,threefour,,,,,,,,,,,,,,,,,,,,,,,,,,,,,,,,,,,,,,,,,,,,,,,,,,,,,,,,,,,,,,,,,,,,,,,,,,,,,,,,,,,,,,,,,,,,,,,,,,,,,,,,,,,,,,,,,,,,,,,,,,,,,,,,,,,,,,,,,,,,,,,,,,,,,,,,,,,,,
,,,,,,613ede27dc808d8880e38ee2,62c53a07efe3f624ee48cfec,2022-07-06_08h30.54.260,Colour_Asymmetry_Pilot,2022.1.3,Win32,60.12506013,62c50e9c1127f2cd403a315f,0,139,139,147,1,twofour,,,,,,,,,,,,,,,,,,,,,,,,,,,,,,,,,,,,,,,,,,,,,,,,,,,,,,,,,,,,,,,,,,,,,,,,,,,,,,,,,,,,,,,,,,,,,,,,,,,,,,,,,,,,,,,,,,,,,,,,,,,,,,,,,,,,,,,,,,,,,,,,,,,,,,,,,,,,,
,,,,,,613ede27dc808d8880e38ee2,62c53a07efe3f624ee48cfec,2022-07-06_08h30.54.260,Colour_Asymmetry_Pilot,2022.1.3,Win32,60.12506013,62c50e9c1127f2cd403a315f,0,140,140,30,1,fourtwo,,,,,,,,,,,,,,,,,,,,,,,,,,,,,,,,,,,,,,,,,,,,,,,,,,,,,,,,,,,,,,,,,,,,,,,,,,,,,,,,,,,,,,,,,,,,,,,,,,,,,,,,,,,,,,,,,,,,,,,,,,,,,,,,,,,,,,,,,,,,,,,,,,,,,,,,,,,,,
,,,,,,613ede27dc808d8880e38ee2,62c53a07efe3f624ee48cfec,2022-07-06_08h30.54.260,Colour_Asymmetry_Pilot,2022.1.3,Win32,60.12506013,62c50e9c1127f2cd403a315f,0,141,141,27,1,twofour,,,,,,,,,,,,,,,,,,,,,,,,,,,,,,,,,,,,,,,,,,,,,,,,,,,,,,,,,,,,,,,,,,,,,,,,,,,,,,,,,,,,,,,,,,,,,,,,,,,,,,,,,,,,,,,,,,,,,,,,,,,,,,,,,,,,,,,,,,,,,,,,,,,,,,,,,,,,,
,,,,,,613ede27dc808d8880e38ee2,62c53a07efe3f624ee48cfec,2022-07-06_08h30.54.260,Colour_Asymmetry_Pilot,2022.1.3,Win32,60.12506013,62c50e9c1127f2cd403a315f,0,142,142,80,1,onetwo,,,,,,,,,,,,,,,,,,,,,,,,,,,,,,,,,,,,,,,,,,,,,,,,,,,,,,,,,,,,,,,,,,,,,,,,,,,,,,,,,,,,,,,,,,,,,,,,,,,,,,,,,,,,,,,,,,,,,,,,,,,,,,,,,,,,,,,,,,,,,,,,,,,,,,,,,,,,,
,,,,,,613ede27dc808d8880e38ee2,62c53a07efe3f624ee48cfec,2022-07-06_08h30.54.260,Colour_Asymmetry_Pilot,2022.1.3,Win32,60.12506013,62c50e9c1127f2cd403a315f,0,143,143,51,1,twofour,,,,,,,,,,,,,,,,,,,,,,,,,,,,,,,,,,,,,,,,,,,,,,,,,,,,,,,,,,,,,,,,,,,,,,,,,,,,,,,,,,,,,,,,,,,,,,,,,,,,,,,,,,,,,,,,,,,,,,,,,,,,,,,,,,,,,,,,,,,,,,,,,,,,,,,,,,,,,
,,,,,,613ede27dc808d8880e38ee2,62c53a07efe3f624ee48cfec,2022-07-06_08h30.54.260,Colour_Asymmetry_Pilot,2022.1.3,Win32,60.12506013,62c50e9c1127f2cd403a315f,0,144,144,153,1,onethree,,,,,,,,,,,,,,,,,,,,,,,,,,,,,,,,,,,,,,,,,,,,,,,,,,,,,,,,,,,,,,,,,,,,,,,,,,,,,,,,,,,,,,,,,,,,,,,,,,,,,,,,,,,,,,,,,,,,,,,,,,,,,,,,,,,,,,,,,,,,,,,,,,,,,,,,,,,,,
,,,,,,613ede27dc808d8880e38ee2,62c53a07efe3f624ee48cfec,2022-07-06_08h30.54.260,Colour_Asymmetry_Pilot,2022.1.3,Win32,60.12506013,62c50e9c1127f2cd403a315f,0,145,145,123,1,twofour,,,,,,,,,,,,,,,,,,,,,,,,,,,,,,,,,,,,,,,,,,,,,,,,,,,,,,,,,,,,,,,,,,,,,,,,,,,,,,,,,,,,,,,,,,,,,,,,,,,,,,,,,,,,,,,,,,,,,,,,,,,,,,,,,,,,,,,,,,,,,,,,,,,,,,,,,,,,,
,,,,,,613ede27dc808d8880e38ee2,62c53a07efe3f624ee48cfec,2022-07-06_08h30.54.260,Colour_Asymmetry_Pilot,2022.1.3,Win32,60.12506013,62c50e9c1127f2cd403a315f,0,146,146,57,1,onethree,,,,,,,,,,,,,,,,,,,,,,,,,,,,,,,,,,,,,,,,,,,,,,,,,,,,,,,,,,,,,,,,,,,,,,,,,,,,,,,,,,,,,,,,,,,,,,,,,,,,,,,,,,,,,,,,,,,,,,,,,,,,,,,,,,,,,,,,,,,,,,,,,,,,,,,,,,,,,
,,,,,,613ede27dc808d8880e38ee2,62c53a07efe3f624ee48cfec,2022-07-06_08h30.54.260,Colour_Asymmetry_Pilot,2022.1.3,Win32,60.12506013,62c50e9c1127f2cd403a315f,0,147,147,146,1,twoone,,,,,,,,,,,,,,,,,,,,,,,,,,,,,,,,,,,,,,,,,,,,,,,,,,,,,,,,,,,,,,,,,,,,,,,,,,,,,,,,,,,,,,,,,,,,,,,,,,,,,,,,,,,,,,,,,,,,,,,,,,,,,,,,,,,,,,,,,,,,,,,,,,,,,,,,,,,,,
,,,,,,613ede27dc808d8880e38ee2,62c53a07efe3f624ee48cfec,2022-07-06_08h30.54.260,Colour_Asymmetry_Pilot,2022.1.3,Win32,60.12506013,62c50e9c1127f2cd403a315f,0,148,148,56,1,onetwo,,,,,,,,,,,,,,,,,,,,,,,,,,,,,,,,,,,,,,,,,,,,,,,,,,,,,,,,,,,,,,,,,,,,,,,,,,,,,,,,,,,,,,,,,,,,,,,,,,,,,,,,,,,,,,,,,,,,,,,,,,,,,,,,,,,,,,,,,,,,,,,,,,,,,,,,,,,,,
,,,,,,613ede27dc808d8880e38ee2,62c53a07efe3f624ee48cfec,2022-07-06_08h30.54.260,Colour_Asymmetry_Pilot,2022.1.3,Win32,60.12506013,62c50e9c1127f2cd403a315f,0,149,149,16,1,onetwo,,,,,,,,,,,,,,,,,,,,,,,,,,,,,,,,,,,,,,,,,,,,,,,,,,,,,,,,,,,,,,,,,,,,,,,,,,,,,,,,,,,,,,,,,,,,,,,,,,,,,,,,,,,,,,,,,,,,,,,,,,,,,,,,,,,,,,,,,,,,,,,,,,,,,,,,,,,,,
,,,,,,613ede27dc808d8880e38ee2,62c53a07efe3f624ee48cfec,2022-07-06_08h30.54.260,Colour_Asymmetry_Pilot,2022.1.3,Win32,60.12506013,62c50e9c1127f2cd403a315f,0,150,150,134,1,fourtwo,,,,,,,,,,,,,,,,,,,,,,,,,,,,,,,,,,,,,,,,,,,,,,,,,,,,,,,,,,,,,,,,,,,,,,,,,,,,,,,,,,,,,,,,,,,,,,,,,,,,,,,,,,,,,,,,,,,,,,,,,,,,,,,,,,,,,,,,,,,,,,,,,,,,,,,,,,,,,
,,,,,,613ede27dc808d8880e38ee2,62c53a07efe3f624ee48cfec,2022-07-06_08h30.54.260,Colour_Asymmetry_Pilot,2022.1.3,Win32,60.12506013,62c50e9c1127f2cd403a315f,0,151,151,139,1,twofour,,,,,,,,,,,,,,,,,,,,,,,,,,,,,,,,,,,,,,,,,,,,,,,,,,,,,,,,,,,,,,,,,,,,,,,,,,,,,,,,,,,,,,,,,,,,,,,,,,,,,,,,,,,,,,,,,,,,,,,,,,,,,,,,,,,,,,,,,,,,,,,,,,,,,,,,,,,,,
,,,,,,613ede27dc808d8880e38ee2,62c53a07efe3f624ee48cfec,2022-07-06_08h30.54.260,Colour_Asymmetry_Pilot,2022.1.3,Win32,60.12506013,62c50e9c1127f2cd403a315f,0,152,152,133,1,threefour,,,,,,,,,,,,,,,,,,,,,,,,,,,,,,,,,,,,,,,,,,,,,,,,,,,,,,,,,,,,,,,,,,,,,,,,,,,,,,,,,,,,,,,,,,,,,,,,,,,,,,,,,,,,,,,,,,,,,,,,,,,,,,,,,,,,,,,,,,,,,,,,,,,,,,,,,,,,,
,,,,,,613ede27dc808d8880e38ee2,62c53a07efe3f624ee48cfec,2022-07-06_08h30.54.260,Colour_Asymmetry_Pilot,2022.1.3,Win32,60.12506013,62c50e9c1127f2cd403a315f,0,153,153,99,1,twofour,,,,,,,,,,,,,,,,,,,,,,,,,,,,,,,,,,,,,,,,,,,,,,,,,,,,,,,,,,,,,,,,,,,,,,,,,,,,,,,,,,,,,,,,,,,,,,,,,,,,,,,,,,,,,,,,,,,,,,,,,,,,,,,,,,,,,,,,,,,,,,,,,,,,,,,,,,,,,
,,,,,,613ede27dc808d8880e38ee2,62c53a07efe3f624ee48cfec,2022-07-06_08h30.54.260,Colour_Asymmetry_Pilot,2022.1.3,Win32,60.12506013,62c50e9c1127f2cd403a315f,0,154,154,126,1,fourtwo,,,,,,,,,,,,,,,,,,,,,,,,,,,,,,,,,,,,,,,,,,,,,,,,,,,,,,,,,,,,,,,,,,,,,,,,,,,,,,,,,,,,,,,,,,,,,,,,,,,,,,,,,,,,,,,,,,,,,,,,,,,,,,,,,,,,,,,,,,,,,,,,,,,,,,,,,,,,,
,,,,,,613ede27dc808d8880e38ee2,62c53a07efe3f624ee48cfec,2022-07-06_08h30.54.260,Colour_Asymmetry_Pilot,2022.1.3,Win32,60.12506013,62c50e9c1127f2cd403a315f,0,155,155,48,1,onetwo,,,,,,,,,,,,,,,,,,,,,,,,,,,,,,,,,,,,,,,,,,,,,,,,,,,,,,,,,,,,,,,,,,,,,,,,,,,,,,,,,,,,,,,,,,,,,,,,,,,,,,,,,,,,,,,,,,,,,,,,,,,,,,,,,,,,,,,,,,,,,,,,,,,,,,,,,,,,,
,,,,,,613ede27dc808d8880e38ee2,62c53a07efe3f624ee48cfec,2022-07-06_08h30.54.260,Colour_Asymmetry_Pilot,2022.1.3,Win32,60.12506013,62c50e9c1127f2cd403a315f,0,156,156,22,1,fourtwo,,,,,,,,,,,,,,,,,,,,,,,,,,,,,,,,,,,,,,,,,,,,,,,,,,,,,,,,,,,,,,,,,,,,,,,,,,,,,,,,,,,,,,,,,,,,,,,,,,,,,,,,,,,,,,,,,,,,,,,,,,,,,,,,,,,,,,,,,,,,,,,,,,,,,,,,,,,,,
,,,,,,613ede27dc808d8880e38ee2,62c53a07efe3f624ee48cfec,2022-07-06_08h30.54.260,Colour_Asymmetry_Pilot,2022.1.3,Win32,60.12506013,62c50e9c1127f2cd403a315f,0,157,157,106,1,twoone,,,,,,,,,,,,,,,,,,,,,,,,,,,,,,,,,,,,,,,,,,,,,,,,,,,,,,,,,,,,,,,,,,,,,,,,,,,,,,,,,,,,,,,,,,,,,,,,,,,,,,,,,,,,,,,,,,,,,,,,,,,,,,,,,,,,,,,,,,,,,,,,,,,,,,,,,,,,,
,,,,,,613ede27dc808d8880e38ee2,62c53a07efe3f624ee48cfec,2022-07-06_08h30.54.260,Colour_Asymmetry_Pilot,2022.1.3,Win32,60.12506013,62c50e9c1127f2cd403a315f,0,158,158,149,1,threefour,,,,,,,,,,,,,,,,,,,,,,,,,,,,,,,,,,,,,,,,,,,,,,,,,,,,,,,,,,,,,,,,,,,,,,,,,,,,,,,,,,,,,,,,,,,,,,,,,,,,,,,,,,,,,,,,,,,,,,,,,,,,,,,,,,,,,,,,,,,,,,,,,,,,,,,,,,,,,
,,,,,,613ede27dc808d8880e38ee2,62c53a07efe3f624ee48cfec,2022-07-06_08h30.54.260,Colour_Asymmetry_Pilot,2022.1.3,Win32,60.12506013,62c50e9c1127f2cd403a315f,0,159,159,122,1,twoone,,,,,,,,,,,,,,,,,,,,,,,,,,,,,,,,,,,,,,,,,,,,,,,,,,,,,,,,,,,,,,,,,,,,,,,,,,,,,,,,,,,,,,,,,,,,,,,,,,,,,,,,,,,,,,,,,,,,,,,,,,,,,,,,,,,,,,,,,,,,,,,,,,,,,,,,,,,,,
,,,,,,613ede27dc808d8880e38ee2,62c53a07efe3f624ee48cfec,2022-07-06_08h30.54.260,Colour_Asymmetry_Pilot,2022.1.3,Win32,60.12506013,62c50e9c1127f2cd403a315f,0,160,160,101,1,threefour,,,,,,,,,,,,,,,,,,,,,,,,,,,,,,,,,,,,,,,,,,,,,,,,,,,,,,,,,,,,,,,,,,,,,,,,,,,,,,,,,,,,,,,,,,,,,,,,,,,,,,,,,,,,,,,,,,,,,,,,,,,,,,,,,,,,,,,,,,,,,,,,,,,,,,,,,,,,,
,,,,,,613ede27dc808d8880e38ee2,62c53a07efe3f624ee48cfec,2022-07-06_08h30.54.260,Colour_Asymmetry_Pilot,2022.1.3,Win32,60.12506013,62c50e9c1127f2cd403a315f,0,161,161,33,1,onethree,,,,,,,,,,,,,,,,,,,,,,,,,,,,,,,,,,,,,,,,,,,,,,,,,,,,,,,,,,,,,,,,,,,,,,,,,,,,,,,,,,,,,,,,,,,,,,,,,,,,,,,,,,,,,,,,,,,,,,,,,,,,,,,,,,,,,,,,,,,,,,,,,,,,,,,,,,,,,
,,,,,,613ede27dc808d8880e38ee2,62c53a07efe3f624ee48cfec,2022-07-06_08h30.54.260,Colour_Asymmetry_Pilot,2022.1.3,Win32,60.12506013,62c50e9c1127f2cd403a315f,,,,,,,space,117.2905,space,5.5957,space,30.1997,space,7.2111,space,1.3453,space,3.5908,"[-0.8118,-0.8198,-0.5452]",twofour,"[-0.6706000000000001,-0.6157999999999999,-0.6786]",3,13.502,91,30,1,0,0,response1disk_5,0,-3,1,0,0,rectangle_8,105,-54,1,0,0,response3disk_7,5,2,2,-3,1,0,0,rectangle_4,0,0,0,0,1,,,,,,,,,,,,,,,,,,,,,,,,,,,,,,,,,,,,,,,,,,,,,,,,,,,,,,,,,,,,,,,,,,,,,,,,,,,,,,,,,,,,,,,,,,,,,,,,,,,,,,,,,,,,,
,,,,,,613ede27dc808d8880e38ee2,62c53a07efe3f624ee48cfec,2022-07-06_08h30.54.260,Colour_Asymmetry_Pilot,2022.1.3,Win32,60.12506013,62c50e9c1127f2cd403a315f,,,,,,,,,,,,,,,,,,,"[-0.4902000000000001,0.2704,-0.45899999999999996]",fourthree,"[0.7018,0.7176,0.6155999999999999]",-4,3.517,-44,96,1,0,0,response7disk_5,8,-5,1,0,0,rectangle_8,8,-5,1,0,0,,,2,8,-5,1,0,0,,1,0,1,0,1,,,,,,,,,,,,,,,,,,,,,,,,,,,,,,,,,,,,,,,,,,,,,,,,,,,,,,,,,,,,,,,,,,,,,,,,,,,,,,,,,,,,,,,,,,,,,,,,,,,,,,,,,,,,,
,,,,,,613ede27dc808d8880e38ee2,62c53a07efe3f624ee48cfec,2022-07-06_08h30.54.260,Colour_Asymmetry_Pilot,2022.1.3,Win32,60.12506013,62c50e9c1127f2cd403a315f,,,,,,,,,,,,,,,,,,,"[-0.06680000000000008,-0.45100000000000007,-0.906]",threeone,"[0.19199999999999995,0.18419999999999992,0.5136000000000001]",-4,1.2346,-66,97,1,0,0,response7disk_5,5,0,1,0,0,rectangle_8,5,0,1,0,0,,,2,5,0,1,0,0,,2,0,2,0,1,,,,,,,,,,,,,,,,,,,,,,,,,,,,,,,,,,,,,,,,,,,,,,,,,,,,,,,,,,,,,,,,,,,,,,,,,,,,,,,,,,,,,,,,,,,,,,,,,,,,,,,,,,,,,
,,,,,,613ede27dc808d8880e38ee2,62c53a07efe3f624ee48cfec,2022-07-06_08h30.54.260,Colour_Asymmetry_Pilot,2022.1.3,Win32,60.12506013,62c50e9c1127f2cd403a315f,,,,,,,,,,,,,,,,,,,"[-0.4746,-0.0354000000000001,0.5449999999999999]",twofour,"[-0.6942,-0.7648,-0.12959999999999994]",2,2.4582,93,-30,1,0,0,response3disk_5,5,1,1,0,0,rectangle_8,5,1,1,0,0,,,2,5,1,1,0,0,,3,0,3,0,1,,,,,,,,,,,,,,,,,,,,,,,,,,,,,,,,,,,,,,,,,,,,,,,,,,,,,,,,,,,,,,,,,,,,,,,,,,,,,,,,,,,,,,,,,,,,,,,,,,,,,,,,,,,,,
,,,,,,613ede27dc808d8880e38ee2,62c53a07efe3f624ee48cfec,2022-07-06_08h30.54.260,Colour_Asymmetry_Pilot,2022.1.3,Win32,60.12506013,62c50e9c1127f2cd403a315f,,,,,,,,,,,,,,,,,,,"[0.6547999999999998,-0.043199999999999905,-0.011800000000000033]",onetwo,"[-0.9766,-0.34920000000000007,0.2156]",-4,1.6674,-32,99,1,0,0,response7disk_5,15,-4,1,0,0,rectangle_8,95,-45,1,0,0,response3disk_7,5,2,-2,-6,1,0,0,rectangle_4,4,0,4,0,1,,,,,,,,,,,,,,,,,,,,,,,,,,,,,,,,,,,,,,,,,,,,,,,,,,,,,,,,,,,,,,,,,,,,,,,,,,,,,,,,,,,,,,,,,,,,,,,,,,,,,,,,,,,,,
,,,,,,613ede27dc808d8880e38ee2,62c53a07efe3f624ee48cfec,2022-07-06_08h30.54.260,Colour_Asymmetry_Pilot,2022.1.3,Win32,60.12506013,62c50e9c1127f2cd403a315f,,,,,,,,,,,,,,,,,,,"[-0.9296,-0.12959999999999994,-0.043199999999999905]",onethree,"[-0.8982,-0.37259999999999993,0.2784]",1,2.6071,57,-96,1,0,0,response3disk_5,-7,-7,1,0,0,rectangle_8,-7,-7,1,0,0,,,2,-7,-7,1,0,0,,5,0,5,0,1,,,,,,,,,,,,,,,,,,,,,,,,,,,,,,,,,,,,,,,,,,,,,,,,,,,,,,,,,,,,,,,,,,,,,,,,,,,,,,,,,,,,,,,,,,,,,,,,,,,,,,,,,,,,,
,,,,,,613ede27dc808d8880e38ee2,62c53a07efe3f624ee48cfec,2022-07-06_08h30.54.260,Colour_Asymmetry_Pilot,2022.1.3,Win32,60.12506013,62c50e9c1127f2cd403a315f,,,,,,,,,,,,,,,,,,,"[0.3802000000000001,0.19199999999999995,-0.6394]",fourtwo,"[0.9213999999999998,0.6391999999999998,-0.9922]",3,1.8792,78,41,1,0,0,response1disk_5,5,-5,1,0,0,rectangle_8,5,-5,1,0,0,,,2,5,-5,1,0,0,,6,0,6,0,1,,,,,,,,,,,,,,,,,,,,,,,,,,,,,,,,,,,,,,,,,,,,,,,,,,,,,,,,,,,,,,,,,,,,,,,,,,,,,,,,,,,,,,,,,,,,,,,,,,,,,,,,,,,,,
,,,,,,613ede27dc808d8880e38ee2,62c53a07efe3f624ee48cfec,2022-07-06_08h30.54.260,Colour_Asymmetry_Pilot,2022.1.3,Win32,60.12506013,62c50e9c1127f2cd403a315f,,,,,,,,,,,,,,,,,,,,fourthree,,-1,3.3231,,,,,,,,,,,,,,,,,,,,,,,,,,,,,,,,space,4.199,"[-0.4668,-0.8746,-0.2942]","[-0.9216,-0.5529999999999999,-0.3962]",-35,-95,1,0,0,response5disk,-9,-5,1,0,0,rectangle,-9,-5,1,0,0,,1,0.0028,0,-9,-5,1,0,0,0,0,0,108,1,27,second,,,,,,,,,,,,,,,,,,,,,,,,,,,,,,,,,,,,,,,,,,,,,,,,,,,,,,,,,,,,,,,,,,,,,,,,
,,,,,,613ede27dc808d8880e38ee2,62c53a07efe3f624ee48cfec,2022-07-06_08h30.54.260,Colour_Asymmetry_Pilot,2022.1.3,Win32,60.12506013,62c50e9c1127f2cd403a315f,,,,,,,,,,,,,,,,,,,,twofour,,-1,2.4997,,,,,,,,,,,,,,,,,,,,,,,,,,,,,,,,,,"[0.5449999999999999,-0.31000000000000005,-0.0354000000000001]","[0.19199999999999995,0.18419999999999992,0.5136000000000001]",-41,-86,1,0,0,response5disk,-6,-4,1,0,0,rectangle,-6,-4,1,0,0,,3,0.0015,0,-6,-4,1,0,0,0,1,1,115,1,34,second,,,,,,,,,,,,,,,,,,,,,,,,,,,,,,,,,,,,,,,,,,,,,,,,,,,,,,,,,,,,,,,,,,,,,,,,
,,,,,,613ede27dc808d8880e38ee2,62c53a07efe3f624ee48cfec,2022-07-06_08h30.54.260,Colour_Asymmetry_Pilot,2022.1.3,Win32,60.12506013,62c50e9c1127f2cd403a315f,,,,,,,,,,,,,,,,,,,,twofour,,-4,0.7827,,,,,,,,,,,,,,,,,,,,,,,,,,,,,,,,,,"[-0.24719999999999998,0.5213999999999999,-0.12959999999999994]","[-0.6942,-0.7648,-0.12959999999999994]",-60,122,1,0,0,response7disk,-3,-4,1,0,0,rectangle,-3,-4,1,0,0,,2,0.0025,0,-3,-4,1,0,0,0,2,2,79,1,79,first,,,,,,,,,,,,,,,,,,,,,,,,,,,,,,,,,,,,,,,,,,,,,,,,,,,,,,,,,,,,,,,,,,,,,,,,
,,,,,,613ede27dc808d8880e38ee2,62c53a07efe3f624ee48cfec,2022-07-06_08h30.54.260,Colour_Asymmetry_Pilot,2022.1.3,Win32,60.12506013,62c50e9c1127f2cd403a315f,,,,,,,,,,,,,,,,,,,,twoone,,3,0.9847,,,,,,,,,,,,,,,,,,,,,,,,,,,,,,,,,,"[0.5528,0.7409999999999999,-0.71]","[0.9763999999999999,0.30979999999999985,-0.6786]",71,35,1,0,0,response1disk,5,-1,1,0,0,rectangle,5,-1,1,0,0,,2,0.0002,0,5,-1,1,0,0,0,3,3,111,1,30,second,,,,,,,,,,,,,,,,,,,,,,,,,,,,,,,,,,,,,,,,,,,,,,,,,,,,,,,,,,,,,,,,,,,,,,,,
,,,,,,613ede27dc808d8880e38ee2,62c53a07efe3f624ee48cfec,2022-07-06_08h30.54.260,Colour_Asymmetry_Pilot,2022.1.3,Win32,60.12506013,62c50e9c1127f2cd403a315f,,,,,,,,,,,,,,,,,,,,threeone,,2,0.8071,,,,,,,,,,,,,,,,,,,,,,,,,,,,,,,,,,"[0.7176,-0.906,-0.6864]","[0.6547999999999998,-0.043199999999999905,-0.011800000000000033]",86,-42,1,0,0,response3disk,6,0,1,0,0,rectangle,6,0,1,0,0,,1,0.0024,0,6,0,1,0,0,0,4,4,154,1,73,second,,,,,,,,,,,,,,,,,,,,,,,,,,,,,,,,,,,,,,,,,,,,,,,,,,,,,,,,,,,,,,,,,,,,,,,,
,,,,,,613ede27dc808d8880e38ee2,62c53a07efe3f624ee48cfec,2022-07-06_08h30.54.260,Colour_Asymmetry_Pilot,2022.1.3,Win32,60.12506013,62c50e9c1127f2cd403a315f,,,,,,,,,,,,,,,,,,,,threefour,,-4,1.7704,,,,,,,,,,,,,,,,,,,,,,,,,,,,,,,,,,"[-0.9688,-0.38039999999999996,-0.41979999999999995]","[0.9686000000000001,0.3802000000000001,0.19999999999999996]",-46,72,1,0,0,response7disk,3,6,1,0,0,rectangle,3,6,1,0,0,,2,0.0018,0,3,6,1,0,0,0,5,5,101,1,20,second,,,,,,,,,,,,,,,,,,,,,,,,,,,,,,,,,,,,,,,,,,,,,,,,,,,,,,,,,,,,,,,,,,,,,,,,
,,,,,,613ede27dc808d8880e38ee2,62c53a07efe3f624ee48cfec,2022-07-06_08h30.54.260,Colour_Asymmetry_Pilot,2022.1.3,Win32,60.12506013,62c50e9c1127f2cd403a315f,,,,,,,,,,,,,,,,,,,,fourtwo,,-3,1.2609,,,,,,,,,,,,,,,,,,,,,,,,,,,,,,,,,,"[0.3881999999999999,-0.23939999999999995,-0.05040000000000011]","[-0.10599999999999998,-0.15300000000000002,0.15280000000000005]",-102,32,1,0,0,response7disk,17,-4,1,0,0,rectangle,17,-4,1,0,0,,1,0.0029,0,17,-4,1,0,0,0,6,6,38,1,38,first,,,,,,,,,,,,,,,,,,,,,,,,,,,,,,,,,,,,,,,,,,,,,,,,,,,,,,,,,,,,,,,,,,,,,,,,
,,,,,,613ede27dc808d8880e38ee2,62c53a07efe3f624ee48cfec,2022-07-06_08h30.54.260,Colour_Asymmetry_Pilot,2022.1.3,Win32,60.12506013,62c50e9c1127f2cd403a315f,,,,,,,,,,,,,,,,,,,,fourthree,,-4,0.9848,,,,,,,,,,,,,,,,,,,,,,,,,,,,,,,,,,"[-0.011800000000000033,-0.906,-0.45100000000000007]","[-0.4668,-0.8746,-0.2942]",-40,49,1,0,0,response7disk,-3,-7,1,0,0,rectangle,-3,-7,1,0,0,,1,0.0003,0,-3,-7,1,0,0,0,7,7,61,1,61,first,,,,,,,,,,,,,,,,,,,,,,,,,,,,,,,,,,,,,,,,,,,,,,,,,,,,,,,,,,,,,,,,,,,,,,,,
,,,,,,613ede27dc808d8880e38ee2,62c53a07efe3f624ee48cfec,2022-07-06_08h30.54.260,Colour_Asymmetry_Pilot,2022.1.3,Win32,60.12506013,62c50e9c1127f2cd403a315f,,,,,,,,,,,,,,,,,,,,onethree,,3,1.3008,,,,,,,,,,,,,,,,,,,,,,,,,,,,,,,,,,"[-0.24719999999999998,-0.0354000000000001,0.3175999999999999]","[0.05879999999999996,0.2784,0.5841999999999998]",96,20,1,0,0,response1disk,6,-5,1,0,0,rectangle,6,-5,1,0,0,,2,0.006,0,6,-5,1,0,0,0,8,8,22,1,22,first,,,,,,,,,,,,,,,,,,,,,,,,,,,,,,,,,,,,,,,,,,,,,,,,,,,,,,,,,,,,,,,,,,,,,,,,
,,,,,,613ede27dc808d8880e38ee2,62c53a07efe3f624ee48cfec,2022-07-06_08h30.54.260,Colour_Asymmetry_Pilot,2022.1.3,Win32,60.12506013,62c50e9c1127f2cd403a315f,,,,,,,,,,,,,,,,,,,,threefour,,-1,1.5291,,,,,,,,,,,,,,,,,,,,,,,,,,,,,,,,,,"[0.4196,0.4665999999999999,0.3568]","[0.6625999999999999,0.4980000000000002,-0.357]",-40,-93,1,0,0,response5disk,-4,0,1,0,0,rectangle,-37,-82,1,0,0,-1,1,2.6527,1,-14,2,1,0,0,0,9,9,76,1,76,first,response5disk_3,rectangle,,,,,,,,,,,,,,,,,,,,,,,,,,,,,,,,,,,,,,,,,,,,,,,,,,,,,,,,,,,,,,,,,,,,,,
,,,,,,613ede27dc808d8880e38ee2,62c53a07efe3f624ee48cfec,2022-07-06_08h30.54.260,Colour_Asymmetry_Pilot,2022.1.3,Win32,60.12506013,62c50e9c1127f2cd403a315f,,,,,,,,,,,,,,,,,,,,onethree,,-4,0.6548,,,,,,,,,,,,,,,,,,,,,,,,,,,,,,,,,,"[0.18419999999999992,-0.4276,-0.404]","[-0.26280000000000003,-0.2158,-0.3256]",-27,97,1,0,0,response7disk,25,-7,1,0,0,rectangle,-70,35,1,0,0,-3,3,2.1427,1,8,12,1,0,0,0,10,10,11,1,11,first,response7disk_3,rectangle,,,,,,,,,,,,,,,,,,,,,,,,,,,,,,,,,,,,,,,,,,,,,,,,,,,,,,,,,,,,,,,,,,,,,,
,,,,,,613ede27dc808d8880e38ee2,62c53a07efe3f624ee48cfec,2022-07-06_08h30.54.260,Colour_Asymmetry_Pilot,2022.1.3,Win32,60.12506013,62c50e9c1127f2cd403a315f,,,,,,,,,,,,,,,,,,,,fourtwo,,3,1.2003,,,,,,,,,,,,,,,,,,,,,,,,,,,,,,,,,,"[0.05879999999999996,0.2784,0.5841999999999998]","[-0.24719999999999998,-0.0354000000000001,0.3175999999999999]",91,44,1,0,0,response1disk,16,1,1,0,0,rectangle,16,1,1,0,0,-3,2,0.0042,0,16,1,1,0,0,0,11,11,103,1,22,second,,,,,,,,,,,,,,,,,,,,,,,,,,,,,,,,,,,,,,,,,,,,,,,,,,,,,,,,,,,,,,,,,,,,,,,,
,,,,,,613ede27dc808d8880e38ee2,62c53a07efe3f624ee48cfec,2022-07-06_08h30.54.260,Colour_Asymmetry_Pilot,2022.1.3,Win32,60.12506013,62c50e9c1127f2cd403a315f,,,,,,,,,,,,,,,,,,,,twofour,,-4,0.5697,,,,,,,,,,,,,,,,,,,,,,,,,,,,,,,,,,"[-0.050999999999999934,-0.6706000000000001,-0.804]","[-0.09019999999999995,0.44300000000000006,0.5371999999999999]",-55,84,1,0,0,response7disk,11,8,1,0,0,rectangle,11,8,1,0,0,-3,3,0.0025,0,11,8,1,0,0,0,12,12,40,1,40,first,,,,,,,,,,,,,,,,,,,,,,,,,,,,,,,,,,,,,,,,,,,,,,,,,,,,,,,,,,,,,,,,,,,,,,,,
,,,,,,613ede27dc808d8880e38ee2,62c53a07efe3f624ee48cfec,2022-07-06_08h30.54.260,Colour_Asymmetry_Pilot,2022.1.3,Win32,60.12506013,62c50e9c1127f2cd403a315f,,,,,,,,,,,,,,,,,,,,fourthree,,-4,0.739,,,,,,,,,,,,,,,,,,,,,,,,,,,,,,,,,,"[-0.26280000000000003,-0.2158,-0.3256]","[0.9213999999999998,0.6391999999999998,-0.9922]",-31,79,1,0,0,response7disk,31,-8,1,0,0,rectangle,31,-8,1,0,0,-3,3,0.0007,0,31,-8,1,0,0,0,13,13,69,1,69,first,,,,,,,,,,,,,,,,,,,,,,,,,,,,,,,,,,,,,,,,,,,,,,,,,,,,,,,,,,,,,,,,,,,,,,,,
,,,,,,613ede27dc808d8880e38ee2,62c53a07efe3f624ee48cfec,2022-07-06_08h30.54.260,Colour_Asymmetry_Pilot,2022.1.3,Win32,60.12506013,62c50e9c1127f2cd403a315f,,,,,,,,,,,,,,,,,,,,threefour,,-4,0.5503,,,,,,,,,,,,,,,,,,,,,,,,,,,,,,,,,,"[-0.9688,-0.38039999999999996,-0.41979999999999995]","[-0.24719999999999998,-0.0354000000000001,0.3175999999999999]",-37,69,1,0,0,response7disk,7,0,1,0,0,rectangle,7,0,1,0,0,-3,2,0.0014,0,7,0,1,0,0,0,14,14,46,1,46,first,,,,,,,,,,,,,,,,,,,,,,,,,,,,,,,,,,,,,,,,,,,,,,,,,,,,,,,,,,,,,,,,,,,,,,,,
,,,,,,613ede27dc808d8880e38ee2,62c53a07efe3f624ee48cfec,2022-07-06_08h30.54.260,Colour_Asymmetry_Pilot,2022.1.3,Win32,60.12506013,62c50e9c1127f2cd403a315f,,,,,,,,,,,,,,,,,,,,fourthree,,-4,0.5955,,,,,,,,,,,,,,,,,,,,,,,,,,,,,,,,,,"[-0.011800000000000033,-0.906,-0.45100000000000007]","[-0.48240000000000005,0.3175999999999999,0.2156]",-42,82,1,0,0,response7disk,-6,6,1,0,0,rectangle,-6,6,1,0,0,-3,1,0.0022,0,-6,6,1,0,0,0,15,15,68,1,68,first,,,,,,,,,,,,,,,,,,,,,,,,,,,,,,,,,,,,,,,,,,,,,,,,,,,,,,,,,,,,,,,,,,,,,,,,
,,,,,,613ede27dc808d8880e38ee2,62c53a07efe3f624ee48cfec,2022-07-06_08h30.54.260,Colour_Asymmetry_Pilot,2022.1.3,Win32,60.12506013,62c50e9c1127f2cd403a315f,,,,,,,,,,,,,,,,,,,,twofour,,2,1.4508,,,,,,,,,,,,,,,,,,,,,,,,,,,,,,,,,,"[0.34099999999999997,0.5841999999999998,-0.9844]","[0.9763999999999999,0.8588,-0.05900000000000005]",86,-44,1,0,0,response3disk,-6,2,1,0,0,rectangle,-6,2,1,0,0,-3,3,0.0011,0,-6,2,1,0,0,0,16,16,143,1,62,second,,,,,,,,,,,,,,,,,,,,,,,,,,,,,,,,,,,,,,,,,,,,,,,,,,,,,,,,,,,,,,,,,,,,,,,,
,,,,,,613ede27dc808d8880e38ee2,62c53a07efe3f624ee48cfec,2022-07-06_08h30.54.260,Colour_Asymmetry_Pilot,2022.1.3,Win32,60.12506013,62c50e9c1127f2cd403a315f,,,,,,,,,,,,,,,,,,,,onethree,,-4,0.8351,,,,,,,,,,,,,,,,,,,,,,,,,,,,,,,,,,"[-0.4276,0.0038000000000000256,-0.3256]","[0.6547999999999998,-0.043199999999999905,-0.011800000000000033]",-47,96,1,0,0,response7disk,8,4,1,0,0,rectangle,8,4,1,0,0,-3,3,0.0005,0,8,4,1,0,0,0,17,17,1,1,1,first,,,,,,,,,,,,,,,,,,,,,,,,,,,,,,,,,,,,,,,,,,,,,,,,,,,,,,,,,,,,,,,,,,,,,,,,
