trials.thisRepN,trials.thisTrialN,trials.thisN,trials.thisIndex,trials.ran,Colourcodes,participant,session,date,expName,psychopyVersion,OS,frameRate,study_id,trials_4.thisRepN,trials_4.thisTrialN,trials_4.thisN,trials_4.thisIndex,trials_4.ran,StimulusPos,key_resp.keys,key_resp.rt,key_resp_2.keys,key_resp_2.rt,key_resp_15.keys,key_resp_15.rt,key_resp_17.keys,key_resp_17.rt,key_resp_9.keys,key_resp_9.rt,key_resp_10.keys,key_resp_10.rt,Circle1_col,Ecc,Circle2_col,similarity,response_time,mouse_5.x,mouse_5.y,mouse_5.leftButton,mouse_5.midButton,mouse_5.rightButton,mouse_5.clicked_name,mouse_10.x,mouse_10.y,mouse_10.leftButton,mouse_10.midButton,mouse_10.rightButton,mouse_10.clicked_name,mouse_7.x,mouse_7.y,mouse_7.leftButton,mouse_7.midButton,mouse_7.rightButton,mouse_7.clicked_name,catchprac,catchnumberprac,mouse_6.x,mouse_6.y,mouse_6.leftButton,mouse_6.midButton,mouse_6.rightButton,mouse_6.clicked_name,duringprac.thisRepN,duringprac.thisTrialN,duringprac.thisN,duringprac.thisIndex,duringprac.ran,key_resp_22.keys,key_resp_22.rt,Circle1_colour,Circle2_colour,mouse.x,mouse.y,mouse.leftButton,mouse.midButton,mouse.rightButton,mouse.clicked_name,mouse_2.x,mouse_2.y,mouse_2.leftButton,mouse_2.midButton,mouse_2.rightButton,mouse_2.clicked_name,mouse_3.x,mouse_3.y,mouse_3.leftButton,mouse_3.midButton,mouse_3.rightButton,catchresponse,catchnumber,response_time_catch,Catch,mouse_11.x,mouse_11.y,mouse_11.leftButton,mouse_11.midButton,mouse_11.rightButton,trials_2.thisRepN,trials_2.thisTrialN,trials_2.thisN,trials_2.thisIndex,trials_2.ran,Colourpair,Temporder,mouse_3.clicked_name,mouse_11.clicked_name,trials_3.thisRepN,trials_3.thisTrialN,trials_3.thisN,trials_3.thisIndex,trials_3.ran,key_resp_instr_Ishi.keys,key_resp_instr_Ishi.rt,Ishi_trial_keyresp.keys,Ishi_textbox.text,Ishi_mouse.x,Ishi_mouse.y,Ishi_mouse.leftButton,Ishi_mouse.midButton,Ishi_mouse.rightButton,Ishi_mouse.clicked_name,Ishi_loop.thisRepN,Ishi_loop.thisTrialN,Ishi_loop.thisN,Ishi_loop.thisIndex,Ishi_loop.ran,imageaddress,textbox.text,mouse_4.x,mouse_4.y,mouse_4.leftButton,mouse_4.midButton,mouse_4.rightButton,mouse_4.clicked_name,textbox_2.text,mouse_8.x,mouse_8.y,mouse_8.leftButton,mouse_8.midButton,mouse_8.rightButton,mouse_8.clicked_name,textbox_3.text,mouse_9.x,mouse_9.y,mouse_9.leftButton,mouse_9.midButton,mouse_9.rightButton,mouse_9.clicked_name,textbox_4.text,mouse_12.x,mouse_12.y,mouse_12.leftButton,mouse_12.midButton,mouse_12.rightButton,mouse_12.clicked_name,textbox_5.text,mouse_13.x,mouse_13.y,mouse_13.leftButton,mouse_13.midButton,mouse_13.rightButton,mouse_13.clicked_name,textbox_6.text,mouse_14.x,mouse_14.y,mouse_14.leftButton,mouse_14.midButton,mouse_14.rightButton,mouse_14.clicked_name,textbox_7.text,mouse_15.x,mouse_15.y,mouse_15.leftButton,mouse_15.midButton,mouse_15.rightButton,mouse_15.clicked_name
0,0,0,39,1,,5c0fa52c9a798f00017c6b76,62c53a05bee84d668969a540,2022-07-06_10h31.33.945,Colour_Asymmetry_Pilot,2022.1.3,Win32,74.92320372,62c50e9c1127f2cd403a315f,,,,,,,,,,,,,,,,,,,,,,,,,,,,,,,,,,,,,,,,,,,,,,,,,,,,,,,,,,,,,,,,,,,,,,,,,,,,,,,,,,,,,,,,,,,,,,,,,,,,,,,,,,,,,,,,,,,,,,,,,,,,,,,,,,,,,,,,,,,,,,,,,,,,,,,,,,,,,,,,,,,
0,1,1,71,1,,5c0fa52c9a798f00017c6b76,62c53a05bee84d668969a540,2022-07-06_10h31.33.945,Colour_Asymmetry_Pilot,2022.1.3,Win32,74.92320372,62c50e9c1127f2cd403a315f,,,,,,,,,,,,,,,,,,,,,,,,,,,,,,,,,,,,,,,,,,,,,,,,,,,,,,,,,,,,,,,,,,,,,,,,,,,,,,,,,,,,,,,,,,,,,,,,,,,,,,,,,,,,,,,,,,,,,,,,,,,,,,,,,,,,,,,,,,,,,,,,,,,,,,,,,,,,,,,,,,,
0,2,2,51,1,,5c0fa52c9a798f00017c6b76,62c53a05bee84d668969a540,2022-07-06_10h31.33.945,Colour_Asymmetry_Pilot,2022.1.3,Win32,74.92320372,62c50e9c1127f2cd403a315f,,,,,,,,,,,,,,,,,,,,,,,,,,,,,,,,,,,,,,,,,,,,,,,,,,,,,,,,,,,,,,,,,,,,,,,,,,,,,,,,,,,,,,,,,,,,,,,,,,,,,,,,,,,,,,,,,,,,,,,,,,,,,,,,,,,,,,,,,,,,,,,,,,,,,,,,,,,,,,,,,,,
0,3,3,0,1,,5c0fa52c9a798f00017c6b76,62c53a05bee84d668969a540,2022-07-06_10h31.33.945,Colour_Asymmetry_Pilot,2022.1.3,Win32,74.92320372,62c50e9c1127f2cd403a315f,,,,,,,,,,,,,,,,,,,,,,,,,,,,,,,,,,,,,,,,,,,,,,,,,,,,,,,,,,,,,,,,,,,,,,,,,,,,,,,,,,,,,,,,,,,,,,,,,,,,,,,,,,,,,,,,,,,,,,,,,,,,,,,,,,,,,,,,,,,,,,,,,,,,,,,,,,,,,,,,,,,
0,4,4,10,1,,5c0fa52c9a798f00017c6b76,62c53a05bee84d668969a540,2022-07-06_10h31.33.945,Colour_Asymmetry_Pilot,2022.1.3,Win32,74.92320372,62c50e9c1127f2cd403a315f,,,,,,,,,,,,,,,,,,,,,,,,,,,,,,,,,,,,,,,,,,,,,,,,,,,,,,,,,,,,,,,,,,,,,,,,,,,,,,,,,,,,,,,,,,,,,,,,,,,,,,,,,,,,,,,,,,,,,,,,,,,,,,,,,,,,,,,,,,,,,,,,,,,,,,,,,,,,,,,,,,,
0,5,5,62,1,,5c0fa52c9a798f00017c6b76,62c53a05bee84d668969a540,2022-07-06_10h31.33.945,Colour_Asymmetry_Pilot,2022.1.3,Win32,74.92320372,62c50e9c1127f2cd403a315f,,,,,,,,,,,,,,,,,,,,,,,,,,,,,,,,,,,,,,,,,,,,,,,,,,,,,,,,,,,,,,,,,,,,,,,,,,,,,,,,,,,,,,,,,,,,,,,,,,,,,,,,,,,,,,,,,,,,,,,,,,,,,,,,,,,,,,,,,,,,,,,,,,,,,,,,,,,,,,,,,,,
0,6,6,79,1,,5c0fa52c9a798f00017c6b76,62c53a05bee84d668969a540,2022-07-06_10h31.33.945,Colour_Asymmetry_Pilot,2022.1.3,Win32,74.92320372,62c50e9c1127f2cd403a315f,,,,,,,,,,,,,,,,,,,,,,,,,,,,,,,,,,,,,,,,,,,,,,,,,,,,,,,,,,,,,,,,,,,,,,,,,,,,,,,,,,,,,,,,,,,,,,,,,,,,,,,,,,,,,,,,,,,,,,,,,,,,,,,,,,,,,,,,,,,,,,,,,,,,,,,,,,,,,,,,,,,
0,7,7,23,1,,5c0fa52c9a798f00017c6b76,62c53a05bee84d668969a540,2022-07-06_10h31.33.945,Colour_Asymmetry_Pilot,2022.1.3,Win32,74.92320372,62c50e9c1127f2cd403a315f,,,,,,,,,,,,,,,,,,,,,,,,,,,,,,,,,,,,,,,,,,,,,,,,,,,,,,,,,,,,,,,,,,,,,,,,,,,,,,,,,,,,,,,,,,,,,,,,,,,,,,,,,,,,,,,,,,,,,,,,,,,,,,,,,,,,,,,,,,,,,,,,,,,,,,,,,,,,,,,,,,,
0,8,8,70,1,,5c0fa52c9a798f00017c6b76,62c53a05bee84d668969a540,2022-07-06_10h31.33.945,Colour_Asymmetry_Pilot,2022.1.3,Win32,74.92320372,62c50e9c1127f2cd403a315f,,,,,,,,,,,,,,,,,,,,,,,,,,,,,,,,,,,,,,,,,,,,,,,,,,,,,,,,,,,,,,,,,,,,,,,,,,,,,,,,,,,,,,,,,,,,,,,,,,,,,,,,,,,,,,,,,,,,,,,,,,,,,,,,,,,,,,,,,,,,,,,,,,,,,,,,,,,,,,,,,,,
0,9,9,59,1,,5c0fa52c9a798f00017c6b76,62c53a05bee84d668969a540,2022-07-06_10h31.33.945,Colour_Asymmetry_Pilot,2022.1.3,Win32,74.92320372,62c50e9c1127f2cd403a315f,,,,,,,,,,,,,,,,,,,,,,,,,,,,,,,,,,,,,,,,,,,,,,,,,,,,,,,,,,,,,,,,,,,,,,,,,,,,,,,,,,,,,,,,,,,,,,,,,,,,,,,,,,,,,,,,,,,,,,,,,,,,,,,,,,,,,,,,,,,,,,,,,,,,,,,,,,,,,,,,,,,
0,10,10,67,1,,5c0fa52c9a798f00017c6b76,62c53a05bee84d668969a540,2022-07-06_10h31.33.945,Colour_Asymmetry_Pilot,2022.1.3,Win32,74.92320372,62c50e9c1127f2cd403a315f,,,,,,,,,,,,,,,,,,,,,,,,,,,,,,,,,,,,,,,,,,,,,,,,,,,,,,,,,,,,,,,,,,,,,,,,,,,,,,,,,,,,,,,,,,,,,,,,,,,,,,,,,,,,,,,,,,,,,,,,,,,,,,,,,,,,,,,,,,,,,,,,,,,,,,,,,,,,,,,,,,,
0,11,11,6,1,,5c0fa52c9a798f00017c6b76,62c53a05bee84d668969a540,2022-07-06_10h31.33.945,Colour_Asymmetry_Pilot,2022.1.3,Win32,74.92320372,62c50e9c1127f2cd403a315f,,,,,,,,,,,,,,,,,,,,,,,,,,,,,,,,,,,,,,,,,,,,,,,,,,,,,,,,,,,,,,,,,,,,,,,,,,,,,,,,,,,,,,,,,,,,,,,,,,,,,,,,,,,,,,,,,,,,,,,,,,,,,,,,,,,,,,,,,,,,,,,,,,,,,,,,,,,,,,,,,,,
0,12,12,5,1,,5c0fa52c9a798f00017c6b76,62c53a05bee84d668969a540,2022-07-06_10h31.33.945,Colour_Asymmetry_Pilot,2022.1.3,Win32,74.92320372,62c50e9c1127f2cd403a315f,,,,,,,,,,,,,,,,,,,,,,,,,,,,,,,,,,,,,,,,,,,,,,,,,,,,,,,,,,,,,,,,,,,,,,,,,,,,,,,,,,,,,,,,,,,,,,,,,,,,,,,,,,,,,,,,,,,,,,,,,,,,,,,,,,,,,,,,,,,,,,,,,,,,,,,,,,,,,,,,,,,
0,13,13,46,1,,5c0fa52c9a798f00017c6b76,62c53a05bee84d668969a540,2022-07-06_10h31.33.945,Colour_Asymmetry_Pilot,2022.1.3,Win32,74.92320372,62c50e9c1127f2cd403a315f,,,,,,,,,,,,,,,,,,,,,,,,,,,,,,,,,,,,,,,,,,,,,,,,,,,,,,,,,,,,,,,,,,,,,,,,,,,,,,,,,,,,,,,,,,,,,,,,,,,,,,,,,,,,,,,,,,,,,,,,,,,,,,,,,,,,,,,,,,,,,,,,,,,,,,,,,,,,,,,,,,,
0,14,14,4,1,,5c0fa52c9a798f00017c6b76,62c53a05bee84d668969a540,2022-07-06_10h31.33.945,Colour_Asymmetry_Pilot,2022.1.3,Win32,74.92320372,62c50e9c1127f2cd403a315f,,,,,,,,,,,,,,,,,,,,,,,,,,,,,,,,,,,,,,,,,,,,,,,,,,,,,,,,,,,,,,,,,,,,,,,,,,,,,,,,,,,,,,,,,,,,,,,,,,,,,,,,,,,,,,,,,,,,,,,,,,,,,,,,,,,,,,,,,,,,,,,,,,,,,,,,,,,,,,,,,,,
0,15,15,15,1,,5c0fa52c9a798f00017c6b76,62c53a05bee84d668969a540,2022-07-06_10h31.33.945,Colour_Asymmetry_Pilot,2022.1.3,Win32,74.92320372,62c50e9c1127f2cd403a315f,,,,,,,,,,,,,,,,,,,,,,,,,,,,,,,,,,,,,,,,,,,,,,,,,,,,,,,,,,,,,,,,,,,,,,,,,,,,,,,,,,,,,,,,,,,,,,,,,,,,,,,,,,,,,,,,,,,,,,,,,,,,,,,,,,,,,,,,,,,,,,,,,,,,,,,,,,,,,,,,,,,
0,16,16,37,1,,5c0fa52c9a798f00017c6b76,62c53a05bee84d668969a540,2022-07-06_10h31.33.945,Colour_Asymmetry_Pilot,2022.1.3,Win32,74.92320372,62c50e9c1127f2cd403a315f,,,,,,,,,,,,,,,,,,,,,,,,,,,,,,,,,,,,,,,,,,,,,,,,,,,,,,,,,,,,,,,,,,,,,,,,,,,,,,,,,,,,,,,,,,,,,,,,,,,,,,,,,,,,,,,,,,,,,,,,,,,,,,,,,,,,,,,,,,,,,,,,,,,,,,,,,,,,,,,,,,,
0,17,17,7,1,,5c0fa52c9a798f00017c6b76,62c53a05bee84d668969a540,2022-07-06_10h31.33.945,Colour_Asymmetry_Pilot,2022.1.3,Win32,74.92320372,62c50e9c1127f2cd403a315f,,,,,,,,,,,,,,,,,,,,,,,,,,,,,,,,,,,,,,,,,,,,,,,,,,,,,,,,,,,,,,,,,,,,,,,,,,,,,,,,,,,,,,,,,,,,,,,,,,,,,,,,,,,,,,,,,,,,,,,,,,,,,,,,,,,,,,,,,,,,,,,,,,,,,,,,,,,,,,,,,,,
0,18,18,47,1,,5c0fa52c9a798f00017c6b76,62c53a05bee84d668969a540,2022-07-06_10h31.33.945,Colour_Asymmetry_Pilot,2022.1.3,Win32,74.92320372,62c50e9c1127f2cd403a315f,,,,,,,,,,,,,,,,,,,,,,,,,,,,,,,,,,,,,,,,,,,,,,,,,,,,,,,,,,,,,,,,,,,,,,,,,,,,,,,,,,,,,,,,,,,,,,,,,,,,,,,,,,,,,,,,,,,,,,,,,,,,,,,,,,,,,,,,,,,,,,,,,,,,,,,,,,,,,,,,,,,
0,19,19,36,1,,5c0fa52c9a798f00017c6b76,62c53a05bee84d668969a540,2022-07-06_10h31.33.945,Colour_Asymmetry_Pilot,2022.1.3,Win32,74.92320372,62c50e9c1127f2cd403a315f,,,,,,,,,,,,,,,,,,,,,,,,,,,,,,,,,,,,,,,,,,,,,,,,,,,,,,,,,,,,,,,,,,,,,,,,,,,,,,,,,,,,,,,,,,,,,,,,,,,,,,,,,,,,,,,,,,,,,,,,,,,,,,,,,,,,,,,,,,,,,,,,,,,,,,,,,,,,,,,,,,,
0,20,20,83,1,,5c0fa52c9a798f00017c6b76,62c53a05bee84d668969a540,2022-07-06_10h31.33.945,Colour_Asymmetry_Pilot,2022.1.3,Win32,74.92320372,62c50e9c1127f2cd403a315f,,,,,,,,,,,,,,,,,,,,,,,,,,,,,,,,,,,,,,,,,,,,,,,,,,,,,,,,,,,,,,,,,,,,,,,,,,,,,,,,,,,,,,,,,,,,,,,,,,,,,,,,,,,,,,,,,,,,,,,,,,,,,,,,,,,,,,,,,,,,,,,,,,,,,,,,,,,,,,,,,,,
0,21,21,80,1,,5c0fa52c9a798f00017c6b76,62c53a05bee84d668969a540,2022-07-06_10h31.33.945,Colour_Asymmetry_Pilot,2022.1.3,Win32,74.92320372,62c50e9c1127f2cd403a315f,,,,,,,,,,,,,,,,,,,,,,,,,,,,,,,,,,,,,,,,,,,,,,,,,,,,,,,,,,,,,,,,,,,,,,,,,,,,,,,,,,,,,,,,,,,,,,,,,,,,,,,,,,,,,,,,,,,,,,,,,,,,,,,,,,,,,,,,,,,,,,,,,,,,,,,,,,,,,,,,,,,
0,22,22,12,1,,5c0fa52c9a798f00017c6b76,62c53a05bee84d668969a540,2022-07-06_10h31.33.945,Colour_Asymmetry_Pilot,2022.1.3,Win32,74.92320372,62c50e9c1127f2cd403a315f,,,,,,,,,,,,,,,,,,,,,,,,,,,,,,,,,,,,,,,,,,,,,,,,,,,,,,,,,,,,,,,,,,,,,,,,,,,,,,,,,,,,,,,,,,,,,,,,,,,,,,,,,,,,,,,,,,,,,,,,,,,,,,,,,,,,,,,,,,,,,,,,,,,,,,,,,,,,,,,,,,,
0,23,23,30,1,,5c0fa52c9a798f00017c6b76,62c53a05bee84d668969a540,2022-07-06_10h31.33.945,Colour_Asymmetry_Pilot,2022.1.3,Win32,74.92320372,62c50e9c1127f2cd403a315f,,,,,,,,,,,,,,,,,,,,,,,,,,,,,,,,,,,,,,,,,,,,,,,,,,,,,,,,,,,,,,,,,,,,,,,,,,,,,,,,,,,,,,,,,,,,,,,,,,,,,,,,,,,,,,,,,,,,,,,,,,,,,,,,,,,,,,,,,,,,,,,,,,,,,,,,,,,,,,,,,,,
0,24,24,2,1,,5c0fa52c9a798f00017c6b76,62c53a05bee84d668969a540,2022-07-06_10h31.33.945,Colour_Asymmetry_Pilot,2022.1.3,Win32,74.92320372,62c50e9c1127f2cd403a315f,,,,,,,,,,,,,,,,,,,,,,,,,,,,,,,,,,,,,,,,,,,,,,,,,,,,,,,,,,,,,,,,,,,,,,,,,,,,,,,,,,,,,,,,,,,,,,,,,,,,,,,,,,,,,,,,,,,,,,,,,,,,,,,,,,,,,,,,,,,,,,,,,,,,,,,,,,,,,,,,,,,
0,25,25,61,1,,5c0fa52c9a798f00017c6b76,62c53a05bee84d668969a540,2022-07-06_10h31.33.945,Colour_Asymmetry_Pilot,2022.1.3,Win32,74.92320372,62c50e9c1127f2cd403a315f,,,,,,,,,,,,,,,,,,,,,,,,,,,,,,,,,,,,,,,,,,,,,,,,,,,,,,,,,,,,,,,,,,,,,,,,,,,,,,,,,,,,,,,,,,,,,,,,,,,,,,,,,,,,,,,,,,,,,,,,,,,,,,,,,,,,,,,,,,,,,,,,,,,,,,,,,,,,,,,,,,,
0,26,26,90,1,,5c0fa52c9a798f00017c6b76,62c53a05bee84d668969a540,2022-07-06_10h31.33.945,Colour_Asymmetry_Pilot,2022.1.3,Win32,74.92320372,62c50e9c1127f2cd403a315f,,,,,,,,,,,,,,,,,,,,,,,,,,,,,,,,,,,,,,,,,,,,,,,,,,,,,,,,,,,,,,,,,,,,,,,,,,,,,,,,,,,,,,,,,,,,,,,,,,,,,,,,,,,,,,,,,,,,,,,,,,,,,,,,,,,,,,,,,,,,,,,,,,,,,,,,,,,,,,,,,,,
0,27,27,24,1,,5c0fa52c9a798f00017c6b76,62c53a05bee84d668969a540,2022-07-06_10h31.33.945,Colour_Asymmetry_Pilot,2022.1.3,Win32,74.92320372,62c50e9c1127f2cd403a315f,,,,,,,,,,,,,,,,,,,,,,,,,,,,,,,,,,,,,,,,,,,,,,,,,,,,,,,,,,,,,,,,,,,,,,,,,,,,,,,,,,,,,,,,,,,,,,,,,,,,,,,,,,,,,,,,,,,,,,,,,,,,,,,,,,,,,,,,,,,,,,,,,,,,,,,,,,,,,,,,,,,
0,28,28,41,1,,5c0fa52c9a798f00017c6b76,62c53a05bee84d668969a540,2022-07-06_10h31.33.945,Colour_Asymmetry_Pilot,2022.1.3,Win32,74.92320372,62c50e9c1127f2cd403a315f,,,,,,,,,,,,,,,,,,,,,,,,,,,,,,,,,,,,,,,,,,,,,,,,,,,,,,,,,,,,,,,,,,,,,,,,,,,,,,,,,,,,,,,,,,,,,,,,,,,,,,,,,,,,,,,,,,,,,,,,,,,,,,,,,,,,,,,,,,,,,,,,,,,,,,,,,,,,,,,,,,,
0,29,29,68,1,,5c0fa52c9a798f00017c6b76,62c53a05bee84d668969a540,2022-07-06_10h31.33.945,Colour_Asymmetry_Pilot,2022.1.3,Win32,74.92320372,62c50e9c1127f2cd403a315f,,,,,,,,,,,,,,,,,,,,,,,,,,,,,,,,,,,,,,,,,,,,,,,,,,,,,,,,,,,,,,,,,,,,,,,,,,,,,,,,,,,,,,,,,,,,,,,,,,,,,,,,,,,,,,,,,,,,,,,,,,,,,,,,,,,,,,,,,,,,,,,,,,,,,,,,,,,,,,,,,,,
0,30,30,81,1,,5c0fa52c9a798f00017c6b76,62c53a05bee84d668969a540,2022-07-06_10h31.33.945,Colour_Asymmetry_Pilot,2022.1.3,Win32,74.92320372,62c50e9c1127f2cd403a315f,,,,,,,,,,,,,,,,,,,,,,,,,,,,,,,,,,,,,,,,,,,,,,,,,,,,,,,,,,,,,,,,,,,,,,,,,,,,,,,,,,,,,,,,,,,,,,,,,,,,,,,,,,,,,,,,,,,,,,,,,,,,,,,,,,,,,,,,,,,,,,,,,,,,,,,,,,,,,,,,,,,
0,31,31,72,1,,5c0fa52c9a798f00017c6b76,62c53a05bee84d668969a540,2022-07-06_10h31.33.945,Colour_Asymmetry_Pilot,2022.1.3,Win32,74.92320372,62c50e9c1127f2cd403a315f,,,,,,,,,,,,,,,,,,,,,,,,,,,,,,,,,,,,,,,,,,,,,,,,,,,,,,,,,,,,,,,,,,,,,,,,,,,,,,,,,,,,,,,,,,,,,,,,,,,,,,,,,,,,,,,,,,,,,,,,,,,,,,,,,,,,,,,,,,,,,,,,,,,,,,,,,,,,,,,,,,,
0,32,32,25,1,,5c0fa52c9a798f00017c6b76,62c53a05bee84d668969a540,2022-07-06_10h31.33.945,Colour_Asymmetry_Pilot,2022.1.3,Win32,74.92320372,62c50e9c1127f2cd403a315f,,,,,,,,,,,,,,,,,,,,,,,,,,,,,,,,,,,,,,,,,,,,,,,,,,,,,,,,,,,,,,,,,,,,,,,,,,,,,,,,,,,,,,,,,,,,,,,,,,,,,,,,,,,,,,,,,,,,,,,,,,,,,,,,,,,,,,,,,,,,,,,,,,,,,,,,,,,,,,,,,,,
0,33,33,33,1,,5c0fa52c9a798f00017c6b76,62c53a05bee84d668969a540,2022-07-06_10h31.33.945,Colour_Asymmetry_Pilot,2022.1.3,Win32,74.92320372,62c50e9c1127f2cd403a315f,,,,,,,,,,,,,,,,,,,,,,,,,,,,,,,,,,,,,,,,,,,,,,,,,,,,,,,,,,,,,,,,,,,,,,,,,,,,,,,,,,,,,,,,,,,,,,,,,,,,,,,,,,,,,,,,,,,,,,,,,,,,,,,,,,,,,,,,,,,,,,,,,,,,,,,,,,,,,,,,,,,
0,34,34,11,1,,5c0fa52c9a798f00017c6b76,62c53a05bee84d668969a540,2022-07-06_10h31.33.945,Colour_Asymmetry_Pilot,2022.1.3,Win32,74.92320372,62c50e9c1127f2cd403a315f,,,,,,,,,,,,,,,,,,,,,,,,,,,,,,,,,,,,,,,,,,,,,,,,,,,,,,,,,,,,,,,,,,,,,,,,,,,,,,,,,,,,,,,,,,,,,,,,,,,,,,,,,,,,,,,,,,,,,,,,,,,,,,,,,,,,,,,,,,,,,,,,,,,,,,,,,,,,,,,,,,,
0,35,35,42,1,,5c0fa52c9a798f00017c6b76,62c53a05bee84d668969a540,2022-07-06_10h31.33.945,Colour_Asymmetry_Pilot,2022.1.3,Win32,74.92320372,62c50e9c1127f2cd403a315f,,,,,,,,,,,,,,,,,,,,,,,,,,,,,,,,,,,,,,,,,,,,,,,,,,,,,,,,,,,,,,,,,,,,,,,,,,,,,,,,,,,,,,,,,,,,,,,,,,,,,,,,,,,,,,,,,,,,,,,,,,,,,,,,,,,,,,,,,,,,,,,,,,,,,,,,,,,,,,,,,,,
0,36,36,43,1,,5c0fa52c9a798f00017c6b76,62c53a05bee84d668969a540,2022-07-06_10h31.33.945,Colour_Asymmetry_Pilot,2022.1.3,Win32,74.92320372,62c50e9c1127f2cd403a315f,,,,,,,,,,,,,,,,,,,,,,,,,,,,,,,,,,,,,,,,,,,,,,,,,,,,,,,,,,,,,,,,,,,,,,,,,,,,,,,,,,,,,,,,,,,,,,,,,,,,,,,,,,,,,,,,,,,,,,,,,,,,,,,,,,,,,,,,,,,,,,,,,,,,,,,,,,,,,,,,,,,
0,37,37,52,1,,5c0fa52c9a798f00017c6b76,62c53a05bee84d668969a540,2022-07-06_10h31.33.945,Colour_Asymmetry_Pilot,2022.1.3,Win32,74.92320372,62c50e9c1127f2cd403a315f,,,,,,,,,,,,,,,,,,,,,,,,,,,,,,,,,,,,,,,,,,,,,,,,,,,,,,,,,,,,,,,,,,,,,,,,,,,,,,,,,,,,,,,,,,,,,,,,,,,,,,,,,,,,,,,,,,,,,,,,,,,,,,,,,,,,,,,,,,,,,,,,,,,,,,,,,,,,,,,,,,,
0,38,38,27,1,,5c0fa52c9a798f00017c6b76,62c53a05bee84d668969a540,2022-07-06_10h31.33.945,Colour_Asymmetry_Pilot,2022.1.3,Win32,74.92320372,62c50e9c1127f2cd403a315f,,,,,,,,,,,,,,,,,,,,,,,,,,,,,,,,,,,,,,,,,,,,,,,,,,,,,,,,,,,,,,,,,,,,,,,,,,,,,,,,,,,,,,,,,,,,,,,,,,,,,,,,,,,,,,,,,,,,,,,,,,,,,,,,,,,,,,,,,,,,,,,,,,,,,,,,,,,,,,,,,,,
0,39,39,8,1,,5c0fa52c9a798f00017c6b76,62c53a05bee84d668969a540,2022-07-06_10h31.33.945,Colour_Asymmetry_Pilot,2022.1.3,Win32,74.92320372,62c50e9c1127f2cd403a315f,,,,,,,,,,,,,,,,,,,,,,,,,,,,,,,,,,,,,,,,,,,,,,,,,,,,,,,,,,,,,,,,,,,,,,,,,,,,,,,,,,,,,,,,,,,,,,,,,,,,,,,,,,,,,,,,,,,,,,,,,,,,,,,,,,,,,,,,,,,,,,,,,,,,,,,,,,,,,,,,,,,
0,40,40,18,1,,5c0fa52c9a798f00017c6b76,62c53a05bee84d668969a540,2022-07-06_10h31.33.945,Colour_Asymmetry_Pilot,2022.1.3,Win32,74.92320372,62c50e9c1127f2cd403a315f,,,,,,,,,,,,,,,,,,,,,,,,,,,,,,,,,,,,,,,,,,,,,,,,,,,,,,,,,,,,,,,,,,,,,,,,,,,,,,,,,,,,,,,,,,,,,,,,,,,,,,,,,,,,,,,,,,,,,,,,,,,,,,,,,,,,,,,,,,,,,,,,,,,,,,,,,,,,,,,,,,,
0,41,41,40,1,,5c0fa52c9a798f00017c6b76,62c53a05bee84d668969a540,2022-07-06_10h31.33.945,Colour_Asymmetry_Pilot,2022.1.3,Win32,74.92320372,62c50e9c1127f2cd403a315f,,,,,,,,,,,,,,,,,,,,,,,,,,,,,,,,,,,,,,,,,,,,,,,,,,,,,,,,,,,,,,,,,,,,,,,,,,,,,,,,,,,,,,,,,,,,,,,,,,,,,,,,,,,,,,,,,,,,,,,,,,,,,,,,,,,,,,,,,,,,,,,,,,,,,,,,,,,,,,,,,,,
0,42,42,57,1,,5c0fa52c9a798f00017c6b76,62c53a05bee84d668969a540,2022-07-06_10h31.33.945,Colour_Asymmetry_Pilot,2022.1.3,Win32,74.92320372,62c50e9c1127f2cd403a315f,,,,,,,,,,,,,,,,,,,,,,,,,,,,,,,,,,,,,,,,,,,,,,,,,,,,,,,,,,,,,,,,,,,,,,,,,,,,,,,,,,,,,,,,,,,,,,,,,,,,,,,,,,,,,,,,,,,,,,,,,,,,,,,,,,,,,,,,,,,,,,,,,,,,,,,,,,,,,,,,,,,
0,43,43,29,1,,5c0fa52c9a798f00017c6b76,62c53a05bee84d668969a540,2022-07-06_10h31.33.945,Colour_Asymmetry_Pilot,2022.1.3,Win32,74.92320372,62c50e9c1127f2cd403a315f,,,,,,,,,,,,,,,,,,,,,,,,,,,,,,,,,,,,,,,,,,,,,,,,,,,,,,,,,,,,,,,,,,,,,,,,,,,,,,,,,,,,,,,,,,,,,,,,,,,,,,,,,,,,,,,,,,,,,,,,,,,,,,,,,,,,,,,,,,,,,,,,,,,,,,,,,,,,,,,,,,,
0,44,44,74,1,,5c0fa52c9a798f00017c6b76,62c53a05bee84d668969a540,2022-07-06_10h31.33.945,Colour_Asymmetry_Pilot,2022.1.3,Win32,74.92320372,62c50e9c1127f2cd403a315f,,,,,,,,,,,,,,,,,,,,,,,,,,,,,,,,,,,,,,,,,,,,,,,,,,,,,,,,,,,,,,,,,,,,,,,,,,,,,,,,,,,,,,,,,,,,,,,,,,,,,,,,,,,,,,,,,,,,,,,,,,,,,,,,,,,,,,,,,,,,,,,,,,,,,,,,,,,,,,,,,,,
0,45,45,9,1,,5c0fa52c9a798f00017c6b76,62c53a05bee84d668969a540,2022-07-06_10h31.33.945,Colour_Asymmetry_Pilot,2022.1.3,Win32,74.92320372,62c50e9c1127f2cd403a315f,,,,,,,,,,,,,,,,,,,,,,,,,,,,,,,,,,,,,,,,,,,,,,,,,,,,,,,,,,,,,,,,,,,,,,,,,,,,,,,,,,,,,,,,,,,,,,,,,,,,,,,,,,,,,,,,,,,,,,,,,,,,,,,,,,,,,,,,,,,,,,,,,,,,,,,,,,,,,,,,,,,
0,46,46,91,1,,5c0fa52c9a798f00017c6b76,62c53a05bee84d668969a540,2022-07-06_10h31.33.945,Colour_Asymmetry_Pilot,2022.1.3,Win32,74.92320372,62c50e9c1127f2cd403a315f,,,,,,,,,,,,,,,,,,,,,,,,,,,,,,,,,,,,,,,,,,,,,,,,,,,,,,,,,,,,,,,,,,,,,,,,,,,,,,,,,,,,,,,,,,,,,,,,,,,,,,,,,,,,,,,,,,,,,,,,,,,,,,,,,,,,,,,,,,,,,,,,,,,,,,,,,,,,,,,,,,,
0,47,47,50,1,,5c0fa52c9a798f00017c6b76,62c53a05bee84d668969a540,2022-07-06_10h31.33.945,Colour_Asymmetry_Pilot,2022.1.3,Win32,74.92320372,62c50e9c1127f2cd403a315f,,,,,,,,,,,,,,,,,,,,,,,,,,,,,,,,,,,,,,,,,,,,,,,,,,,,,,,,,,,,,,,,,,,,,,,,,,,,,,,,,,,,,,,,,,,,,,,,,,,,,,,,,,,,,,,,,,,,,,,,,,,,,,,,,,,,,,,,,,,,,,,,,,,,,,,,,,,,,,,,,,,
0,48,48,44,1,,5c0fa52c9a798f00017c6b76,62c53a05bee84d668969a540,2022-07-06_10h31.33.945,Colour_Asymmetry_Pilot,2022.1.3,Win32,74.92320372,62c50e9c1127f2cd403a315f,,,,,,,,,,,,,,,,,,,,,,,,,,,,,,,,,,,,,,,,,,,,,,,,,,,,,,,,,,,,,,,,,,,,,,,,,,,,,,,,,,,,,,,,,,,,,,,,,,,,,,,,,,,,,,,,,,,,,,,,,,,,,,,,,,,,,,,,,,,,,,,,,,,,,,,,,,,,,,,,,,,
0,49,49,34,1,,5c0fa52c9a798f00017c6b76,62c53a05bee84d668969a540,2022-07-06_10h31.33.945,Colour_Asymmetry_Pilot,2022.1.3,Win32,74.92320372,62c50e9c1127f2cd403a315f,,,,,,,,,,,,,,,,,,,,,,,,,,,,,,,,,,,,,,,,,,,,,,,,,,,,,,,,,,,,,,,,,,,,,,,,,,,,,,,,,,,,,,,,,,,,,,,,,,,,,,,,,,,,,,,,,,,,,,,,,,,,,,,,,,,,,,,,,,,,,,,,,,,,,,,,,,,,,,,,,,,
0,50,50,28,1,,5c0fa52c9a798f00017c6b76,62c53a05bee84d668969a540,2022-07-06_10h31.33.945,Colour_Asymmetry_Pilot,2022.1.3,Win32,74.92320372,62c50e9c1127f2cd403a315f,,,,,,,,,,,,,,,,,,,,,,,,,,,,,,,,,,,,,,,,,,,,,,,,,,,,,,,,,,,,,,,,,,,,,,,,,,,,,,,,,,,,,,,,,,,,,,,,,,,,,,,,,,,,,,,,,,,,,,,,,,,,,,,,,,,,,,,,,,,,,,,,,,,,,,,,,,,,,,,,,,,
0,51,51,48,1,,5c0fa52c9a798f00017c6b76,62c53a05bee84d668969a540,2022-07-06_10h31.33.945,Colour_Asymmetry_Pilot,2022.1.3,Win32,74.92320372,62c50e9c1127f2cd403a315f,,,,,,,,,,,,,,,,,,,,,,,,,,,,,,,,,,,,,,,,,,,,,,,,,,,,,,,,,,,,,,,,,,,,,,,,,,,,,,,,,,,,,,,,,,,,,,,,,,,,,,,,,,,,,,,,,,,,,,,,,,,,,,,,,,,,,,,,,,,,,,,,,,,,,,,,,,,,,,,,,,,
0,52,52,66,1,,5c0fa52c9a798f00017c6b76,62c53a05bee84d668969a540,2022-07-06_10h31.33.945,Colour_Asymmetry_Pilot,2022.1.3,Win32,74.92320372,62c50e9c1127f2cd403a315f,,,,,,,,,,,,,,,,,,,,,,,,,,,,,,,,,,,,,,,,,,,,,,,,,,,,,,,,,,,,,,,,,,,,,,,,,,,,,,,,,,,,,,,,,,,,,,,,,,,,,,,,,,,,,,,,,,,,,,,,,,,,,,,,,,,,,,,,,,,,,,,,,,,,,,,,,,,,,,,,,,,
0,53,53,13,1,,5c0fa52c9a798f00017c6b76,62c53a05bee84d668969a540,2022-07-06_10h31.33.945,Colour_Asymmetry_Pilot,2022.1.3,Win32,74.92320372,62c50e9c1127f2cd403a315f,,,,,,,,,,,,,,,,,,,,,,,,,,,,,,,,,,,,,,,,,,,,,,,,,,,,,,,,,,,,,,,,,,,,,,,,,,,,,,,,,,,,,,,,,,,,,,,,,,,,,,,,,,,,,,,,,,,,,,,,,,,,,,,,,,,,,,,,,,,,,,,,,,,,,,,,,,,,,,,,,,,
0,54,54,54,1,,5c0fa52c9a798f00017c6b76,62c53a05bee84d668969a540,2022-07-06_10h31.33.945,Colour_Asymmetry_Pilot,2022.1.3,Win32,74.92320372,62c50e9c1127f2cd403a315f,,,,,,,,,,,,,,,,,,,,,,,,,,,,,,,,,,,,,,,,,,,,,,,,,,,,,,,,,,,,,,,,,,,,,,,,,,,,,,,,,,,,,,,,,,,,,,,,,,,,,,,,,,,,,,,,,,,,,,,,,,,,,,,,,,,,,,,,,,,,,,,,,,,,,,,,,,,,,,,,,,,
0,55,55,17,1,,5c0fa52c9a798f00017c6b76,62c53a05bee84d668969a540,2022-07-06_10h31.33.945,Colour_Asymmetry_Pilot,2022.1.3,Win32,74.92320372,62c50e9c1127f2cd403a315f,,,,,,,,,,,,,,,,,,,,,,,,,,,,,,,,,,,,,,,,,,,,,,,,,,,,,,,,,,,,,,,,,,,,,,,,,,,,,,,,,,,,,,,,,,,,,,,,,,,,,,,,,,,,,,,,,,,,,,,,,,,,,,,,,,,,,,,,,,,,,,,,,,,,,,,,,,,,,,,,,,,
0,56,56,19,1,,5c0fa52c9a798f00017c6b76,62c53a05bee84d668969a540,2022-07-06_10h31.33.945,Colour_Asymmetry_Pilot,2022.1.3,Win32,74.92320372,62c50e9c1127f2cd403a315f,,,,,,,,,,,,,,,,,,,,,,,,,,,,,,,,,,,,,,,,,,,,,,,,,,,,,,,,,,,,,,,,,,,,,,,,,,,,,,,,,,,,,,,,,,,,,,,,,,,,,,,,,,,,,,,,,,,,,,,,,,,,,,,,,,,,,,,,,,,,,,,,,,,,,,,,,,,,,,,,,,,
0,57,57,89,1,,5c0fa52c9a798f00017c6b76,62c53a05bee84d668969a540,2022-07-06_10h31.33.945,Colour_Asymmetry_Pilot,2022.1.3,Win32,74.92320372,62c50e9c1127f2cd403a315f,,,,,,,,,,,,,,,,,,,,,,,,,,,,,,,,,,,,,,,,,,,,,,,,,,,,,,,,,,,,,,,,,,,,,,,,,,,,,,,,,,,,,,,,,,,,,,,,,,,,,,,,,,,,,,,,,,,,,,,,,,,,,,,,,,,,,,,,,,,,,,,,,,,,,,,,,,,,,,,,,,,
0,58,58,75,1,,5c0fa52c9a798f00017c6b76,62c53a05bee84d668969a540,2022-07-06_10h31.33.945,Colour_Asymmetry_Pilot,2022.1.3,Win32,74.92320372,62c50e9c1127f2cd403a315f,,,,,,,,,,,,,,,,,,,,,,,,,,,,,,,,,,,,,,,,,,,,,,,,,,,,,,,,,,,,,,,,,,,,,,,,,,,,,,,,,,,,,,,,,,,,,,,,,,,,,,,,,,,,,,,,,,,,,,,,,,,,,,,,,,,,,,,,,,,,,,,,,,,,,,,,,,,,,,,,,,,
0,59,59,3,1,,5c0fa52c9a798f00017c6b76,62c53a05bee84d668969a540,2022-07-06_10h31.33.945,Colour_Asymmetry_Pilot,2022.1.3,Win32,74.92320372,62c50e9c1127f2cd403a315f,,,,,,,,,,,,,,,,,,,,,,,,,,,,,,,,,,,,,,,,,,,,,,,,,,,,,,,,,,,,,,,,,,,,,,,,,,,,,,,,,,,,,,,,,,,,,,,,,,,,,,,,,,,,,,,,,,,,,,,,,,,,,,,,,,,,,,,,,,,,,,,,,,,,,,,,,,,,,,,,,,,
0,60,60,86,1,,5c0fa52c9a798f00017c6b76,62c53a05bee84d668969a540,2022-07-06_10h31.33.945,Colour_Asymmetry_Pilot,2022.1.3,Win32,74.92320372,62c50e9c1127f2cd403a315f,,,,,,,,,,,,,,,,,,,,,,,,,,,,,,,,,,,,,,,,,,,,,,,,,,,,,,,,,,,,,,,,,,,,,,,,,,,,,,,,,,,,,,,,,,,,,,,,,,,,,,,,,,,,,,,,,,,,,,,,,,,,,,,,,,,,,,,,,,,,,,,,,,,,,,,,,,,,,,,,,,,
0,61,61,26,1,,5c0fa52c9a798f00017c6b76,62c53a05bee84d668969a540,2022-07-06_10h31.33.945,Colour_Asymmetry_Pilot,2022.1.3,Win32,74.92320372,62c50e9c1127f2cd403a315f,,,,,,,,,,,,,,,,,,,,,,,,,,,,,,,,,,,,,,,,,,,,,,,,,,,,,,,,,,,,,,,,,,,,,,,,,,,,,,,,,,,,,,,,,,,,,,,,,,,,,,,,,,,,,,,,,,,,,,,,,,,,,,,,,,,,,,,,,,,,,,,,,,,,,,,,,,,,,,,,,,,
0,62,62,84,1,,5c0fa52c9a798f00017c6b76,62c53a05bee84d668969a540,2022-07-06_10h31.33.945,Colour_Asymmetry_Pilot,2022.1.3,Win32,74.92320372,62c50e9c1127f2cd403a315f,,,,,,,,,,,,,,,,,,,,,,,,,,,,,,,,,,,,,,,,,,,,,,,,,,,,,,,,,,,,,,,,,,,,,,,,,,,,,,,,,,,,,,,,,,,,,,,,,,,,,,,,,,,,,,,,,,,,,,,,,,,,,,,,,,,,,,,,,,,,,,,,,,,,,,,,,,,,,,,,,,,
0,63,63,38,1,,5c0fa52c9a798f00017c6b76,62c53a05bee84d668969a540,2022-07-06_10h31.33.945,Colour_Asymmetry_Pilot,2022.1.3,Win32,74.92320372,62c50e9c1127f2cd403a315f,,,,,,,,,,,,,,,,,,,,,,,,,,,,,,,,,,,,,,,,,,,,,,,,,,,,,,,,,,,,,,,,,,,,,,,,,,,,,,,,,,,,,,,,,,,,,,,,,,,,,,,,,,,,,,,,,,,,,,,,,,,,,,,,,,,,,,,,,,,,,,,,,,,,,,,,,,,,,,,,,,,
0,64,64,60,1,,5c0fa52c9a798f00017c6b76,62c53a05bee84d668969a540,2022-07-06_10h31.33.945,Colour_Asymmetry_Pilot,2022.1.3,Win32,74.92320372,62c50e9c1127f2cd403a315f,,,,,,,,,,,,,,,,,,,,,,,,,,,,,,,,,,,,,,,,,,,,,,,,,,,,,,,,,,,,,,,,,,,,,,,,,,,,,,,,,,,,,,,,,,,,,,,,,,,,,,,,,,,,,,,,,,,,,,,,,,,,,,,,,,,,,,,,,,,,,,,,,,,,,,,,,,,,,,,,,,,
0,65,65,87,1,,5c0fa52c9a798f00017c6b76,62c53a05bee84d668969a540,2022-07-06_10h31.33.945,Colour_Asymmetry_Pilot,2022.1.3,Win32,74.92320372,62c50e9c1127f2cd403a315f,,,,,,,,,,,,,,,,,,,,,,,,,,,,,,,,,,,,,,,,,,,,,,,,,,,,,,,,,,,,,,,,,,,,,,,,,,,,,,,,,,,,,,,,,,,,,,,,,,,,,,,,,,,,,,,,,,,,,,,,,,,,,,,,,,,,,,,,,,,,,,,,,,,,,,,,,,,,,,,,,,,
0,66,66,45,1,,5c0fa52c9a798f00017c6b76,62c53a05bee84d668969a540,2022-07-06_10h31.33.945,Colour_Asymmetry_Pilot,2022.1.3,Win32,74.92320372,62c50e9c1127f2cd403a315f,,,,,,,,,,,,,,,,,,,,,,,,,,,,,,,,,,,,,,,,,,,,,,,,,,,,,,,,,,,,,,,,,,,,,,,,,,,,,,,,,,,,,,,,,,,,,,,,,,,,,,,,,,,,,,,,,,,,,,,,,,,,,,,,,,,,,,,,,,,,,,,,,,,,,,,,,,,,,,,,,,,
0,67,67,21,1,,5c0fa52c9a798f00017c6b76,62c53a05bee84d668969a540,2022-07-06_10h31.33.945,Colour_Asymmetry_Pilot,2022.1.3,Win32,74.92320372,62c50e9c1127f2cd403a315f,,,,,,,,,,,,,,,,,,,,,,,,,,,,,,,,,,,,,,,,,,,,,,,,,,,,,,,,,,,,,,,,,,,,,,,,,,,,,,,,,,,,,,,,,,,,,,,,,,,,,,,,,,,,,,,,,,,,,,,,,,,,,,,,,,,,,,,,,,,,,,,,,,,,,,,,,,,,,,,,,,,
0,68,68,35,1,,5c0fa52c9a798f00017c6b76,62c53a05bee84d668969a540,2022-07-06_10h31.33.945,Colour_Asymmetry_Pilot,2022.1.3,Win32,74.92320372,62c50e9c1127f2cd403a315f,,,,,,,,,,,,,,,,,,,,,,,,,,,,,,,,,,,,,,,,,,,,,,,,,,,,,,,,,,,,,,,,,,,,,,,,,,,,,,,,,,,,,,,,,,,,,,,,,,,,,,,,,,,,,,,,,,,,,,,,,,,,,,,,,,,,,,,,,,,,,,,,,,,,,,,,,,,,,,,,,,,
0,69,69,20,1,,5c0fa52c9a798f00017c6b76,62c53a05bee84d668969a540,2022-07-06_10h31.33.945,Colour_Asymmetry_Pilot,2022.1.3,Win32,74.92320372,62c50e9c1127f2cd403a315f,,,,,,,,,,,,,,,,,,,,,,,,,,,,,,,,,,,,,,,,,,,,,,,,,,,,,,,,,,,,,,,,,,,,,,,,,,,,,,,,,,,,,,,,,,,,,,,,,,,,,,,,,,,,,,,,,,,,,,,,,,,,,,,,,,,,,,,,,,,,,,,,,,,,,,,,,,,,,,,,,,,
0,70,70,16,1,,5c0fa52c9a798f00017c6b76,62c53a05bee84d668969a540,2022-07-06_10h31.33.945,Colour_Asymmetry_Pilot,2022.1.3,Win32,74.92320372,62c50e9c1127f2cd403a315f,,,,,,,,,,,,,,,,,,,,,,,,,,,,,,,,,,,,,,,,,,,,,,,,,,,,,,,,,,,,,,,,,,,,,,,,,,,,,,,,,,,,,,,,,,,,,,,,,,,,,,,,,,,,,,,,,,,,,,,,,,,,,,,,,,,,,,,,,,,,,,,,,,,,,,,,,,,,,,,,,,,
0,71,71,1,1,,5c0fa52c9a798f00017c6b76,62c53a05bee84d668969a540,2022-07-06_10h31.33.945,Colour_Asymmetry_Pilot,2022.1.3,Win32,74.92320372,62c50e9c1127f2cd403a315f,,,,,,,,,,,,,,,,,,,,,,,,,,,,,,,,,,,,,,,,,,,,,,,,,,,,,,,,,,,,,,,,,,,,,,,,,,,,,,,,,,,,,,,,,,,,,,,,,,,,,,,,,,,,,,,,,,,,,,,,,,,,,,,,,,,,,,,,,,,,,,,,,,,,,,,,,,,,,,,,,,,
0,72,72,77,1,,5c0fa52c9a798f00017c6b76,62c53a05bee84d668969a540,2022-07-06_10h31.33.945,Colour_Asymmetry_Pilot,2022.1.3,Win32,74.92320372,62c50e9c1127f2cd403a315f,,,,,,,,,,,,,,,,,,,,,,,,,,,,,,,,,,,,,,,,,,,,,,,,,,,,,,,,,,,,,,,,,,,,,,,,,,,,,,,,,,,,,,,,,,,,,,,,,,,,,,,,,,,,,,,,,,,,,,,,,,,,,,,,,,,,,,,,,,,,,,,,,,,,,,,,,,,,,,,,,,,
0,73,73,58,1,,5c0fa52c9a798f00017c6b76,62c53a05bee84d668969a540,2022-07-06_10h31.33.945,Colour_Asymmetry_Pilot,2022.1.3,Win32,74.92320372,62c50e9c1127f2cd403a315f,,,,,,,,,,,,,,,,,,,,,,,,,,,,,,,,,,,,,,,,,,,,,,,,,,,,,,,,,,,,,,,,,,,,,,,,,,,,,,,,,,,,,,,,,,,,,,,,,,,,,,,,,,,,,,,,,,,,,,,,,,,,,,,,,,,,,,,,,,,,,,,,,,,,,,,,,,,,,,,,,,,
0,74,74,88,1,,5c0fa52c9a798f00017c6b76,62c53a05bee84d668969a540,2022-07-06_10h31.33.945,Colour_Asymmetry_Pilot,2022.1.3,Win32,74.92320372,62c50e9c1127f2cd403a315f,,,,,,,,,,,,,,,,,,,,,,,,,,,,,,,,,,,,,,,,,,,,,,,,,,,,,,,,,,,,,,,,,,,,,,,,,,,,,,,,,,,,,,,,,,,,,,,,,,,,,,,,,,,,,,,,,,,,,,,,,,,,,,,,,,,,,,,,,,,,,,,,,,,,,,,,,,,,,,,,,,,
0,75,75,85,1,,5c0fa52c9a798f00017c6b76,62c53a05bee84d668969a540,2022-07-06_10h31.33.945,Colour_Asymmetry_Pilot,2022.1.3,Win32,74.92320372,62c50e9c1127f2cd403a315f,,,,,,,,,,,,,,,,,,,,,,,,,,,,,,,,,,,,,,,,,,,,,,,,,,,,,,,,,,,,,,,,,,,,,,,,,,,,,,,,,,,,,,,,,,,,,,,,,,,,,,,,,,,,,,,,,,,,,,,,,,,,,,,,,,,,,,,,,,,,,,,,,,,,,,,,,,,,,,,,,,,
0,76,76,56,1,,5c0fa52c9a798f00017c6b76,62c53a05bee84d668969a540,2022-07-06_10h31.33.945,Colour_Asymmetry_Pilot,2022.1.3,Win32,74.92320372,62c50e9c1127f2cd403a315f,,,,,,,,,,,,,,,,,,,,,,,,,,,,,,,,,,,,,,,,,,,,,,,,,,,,,,,,,,,,,,,,,,,,,,,,,,,,,,,,,,,,,,,,,,,,,,,,,,,,,,,,,,,,,,,,,,,,,,,,,,,,,,,,,,,,,,,,,,,,,,,,,,,,,,,,,,,,,,,,,,,
0,77,77,14,1,,5c0fa52c9a798f00017c6b76,62c53a05bee84d668969a540,2022-07-06_10h31.33.945,Colour_Asymmetry_Pilot,2022.1.3,Win32,74.92320372,62c50e9c1127f2cd403a315f,,,,,,,,,,,,,,,,,,,,,,,,,,,,,,,,,,,,,,,,,,,,,,,,,,,,,,,,,,,,,,,,,,,,,,,,,,,,,,,,,,,,,,,,,,,,,,,,,,,,,,,,,,,,,,,,,,,,,,,,,,,,,,,,,,,,,,,,,,,,,,,,,,,,,,,,,,,,,,,,,,,
0,78,78,49,1,,5c0fa52c9a798f00017c6b76,62c53a05bee84d668969a540,2022-07-06_10h31.33.945,Colour_Asymmetry_Pilot,2022.1.3,Win32,74.92320372,62c50e9c1127f2cd403a315f,,,,,,,,,,,,,,,,,,,,,,,,,,,,,,,,,,,,,,,,,,,,,,,,,,,,,,,,,,,,,,,,,,,,,,,,,,,,,,,,,,,,,,,,,,,,,,,,,,,,,,,,,,,,,,,,,,,,,,,,,,,,,,,,,,,,,,,,,,,,,,,,,,,,,,,,,,,,,,,,,,,
0,79,79,32,1,,5c0fa52c9a798f00017c6b76,62c53a05bee84d668969a540,2022-07-06_10h31.33.945,Colour_Asymmetry_Pilot,2022.1.3,Win32,74.92320372,62c50e9c1127f2cd403a315f,,,,,,,,,,,,,,,,,,,,,,,,,,,,,,,,,,,,,,,,,,,,,,,,,,,,,,,,,,,,,,,,,,,,,,,,,,,,,,,,,,,,,,,,,,,,,,,,,,,,,,,,,,,,,,,,,,,,,,,,,,,,,,,,,,,,,,,,,,,,,,,,,,,,,,,,,,,,,,,,,,,
0,80,80,76,1,,5c0fa52c9a798f00017c6b76,62c53a05bee84d668969a540,2022-07-06_10h31.33.945,Colour_Asymmetry_Pilot,2022.1.3,Win32,74.92320372,62c50e9c1127f2cd403a315f,,,,,,,,,,,,,,,,,,,,,,,,,,,,,,,,,,,,,,,,,,,,,,,,,,,,,,,,,,,,,,,,,,,,,,,,,,,,,,,,,,,,,,,,,,,,,,,,,,,,,,,,,,,,,,,,,,,,,,,,,,,,,,,,,,,,,,,,,,,,,,,,,,,,,,,,,,,,,,,,,,,
0,81,81,31,1,,5c0fa52c9a798f00017c6b76,62c53a05bee84d668969a540,2022-07-06_10h31.33.945,Colour_Asymmetry_Pilot,2022.1.3,Win32,74.92320372,62c50e9c1127f2cd403a315f,,,,,,,,,,,,,,,,,,,,,,,,,,,,,,,,,,,,,,,,,,,,,,,,,,,,,,,,,,,,,,,,,,,,,,,,,,,,,,,,,,,,,,,,,,,,,,,,,,,,,,,,,,,,,,,,,,,,,,,,,,,,,,,,,,,,,,,,,,,,,,,,,,,,,,,,,,,,,,,,,,,
0,82,82,63,1,,5c0fa52c9a798f00017c6b76,62c53a05bee84d668969a540,2022-07-06_10h31.33.945,Colour_Asymmetry_Pilot,2022.1.3,Win32,74.92320372,62c50e9c1127f2cd403a315f,,,,,,,,,,,,,,,,,,,,,,,,,,,,,,,,,,,,,,,,,,,,,,,,,,,,,,,,,,,,,,,,,,,,,,,,,,,,,,,,,,,,,,,,,,,,,,,,,,,,,,,,,,,,,,,,,,,,,,,,,,,,,,,,,,,,,,,,,,,,,,,,,,,,,,,,,,,,,,,,,,,
0,83,83,64,1,,5c0fa52c9a798f00017c6b76,62c53a05bee84d668969a540,2022-07-06_10h31.33.945,Colour_Asymmetry_Pilot,2022.1.3,Win32,74.92320372,62c50e9c1127f2cd403a315f,,,,,,,,,,,,,,,,,,,,,,,,,,,,,,,,,,,,,,,,,,,,,,,,,,,,,,,,,,,,,,,,,,,,,,,,,,,,,,,,,,,,,,,,,,,,,,,,,,,,,,,,,,,,,,,,,,,,,,,,,,,,,,,,,,,,,,,,,,,,,,,,,,,,,,,,,,,,,,,,,,,
0,84,84,73,1,,5c0fa52c9a798f00017c6b76,62c53a05bee84d668969a540,2022-07-06_10h31.33.945,Colour_Asymmetry_Pilot,2022.1.3,Win32,74.92320372,62c50e9c1127f2cd403a315f,,,,,,,,,,,,,,,,,,,,,,,,,,,,,,,,,,,,,,,,,,,,,,,,,,,,,,,,,,,,,,,,,,,,,,,,,,,,,,,,,,,,,,,,,,,,,,,,,,,,,,,,,,,,,,,,,,,,,,,,,,,,,,,,,,,,,,,,,,,,,,,,,,,,,,,,,,,,,,,,,,,
0,85,85,55,1,,5c0fa52c9a798f00017c6b76,62c53a05bee84d668969a540,2022-07-06_10h31.33.945,Colour_Asymmetry_Pilot,2022.1.3,Win32,74.92320372,62c50e9c1127f2cd403a315f,,,,,,,,,,,,,,,,,,,,,,,,,,,,,,,,,,,,,,,,,,,,,,,,,,,,,,,,,,,,,,,,,,,,,,,,,,,,,,,,,,,,,,,,,,,,,,,,,,,,,,,,,,,,,,,,,,,,,,,,,,,,,,,,,,,,,,,,,,,,,,,,,,,,,,,,,,,,,,,,,,,
0,86,86,53,1,,5c0fa52c9a798f00017c6b76,62c53a05bee84d668969a540,2022-07-06_10h31.33.945,Colour_Asymmetry_Pilot,2022.1.3,Win32,74.92320372,62c50e9c1127f2cd403a315f,,,,,,,,,,,,,,,,,,,,,,,,,,,,,,,,,,,,,,,,,,,,,,,,,,,,,,,,,,,,,,,,,,,,,,,,,,,,,,,,,,,,,,,,,,,,,,,,,,,,,,,,,,,,,,,,,,,,,,,,,,,,,,,,,,,,,,,,,,,,,,,,,,,,,,,,,,,,,,,,,,,
0,87,87,82,1,,5c0fa52c9a798f00017c6b76,62c53a05bee84d668969a540,2022-07-06_10h31.33.945,Colour_Asymmetry_Pilot,2022.1.3,Win32,74.92320372,62c50e9c1127f2cd403a315f,,,,,,,,,,,,,,,,,,,,,,,,,,,,,,,,,,,,,,,,,,,,,,,,,,,,,,,,,,,,,,,,,,,,,,,,,,,,,,,,,,,,,,,,,,,,,,,,,,,,,,,,,,,,,,,,,,,,,,,,,,,,,,,,,,,,,,,,,,,,,,,,,,,,,,,,,,,,,,,,,,,
0,88,88,65,1,,5c0fa52c9a798f00017c6b76,62c53a05bee84d668969a540,2022-07-06_10h31.33.945,Colour_Asymmetry_Pilot,2022.1.3,Win32,74.92320372,62c50e9c1127f2cd403a315f,,,,,,,,,,,,,,,,,,,,,,,,,,,,,,,,,,,,,,,,,,,,,,,,,,,,,,,,,,,,,,,,,,,,,,,,,,,,,,,,,,,,,,,,,,,,,,,,,,,,,,,,,,,,,,,,,,,,,,,,,,,,,,,,,,,,,,,,,,,,,,,,,,,,,,,,,,,,,,,,,,,
0,89,89,69,1,,5c0fa52c9a798f00017c6b76,62c53a05bee84d668969a540,2022-07-06_10h31.33.945,Colour_Asymmetry_Pilot,2022.1.3,Win32,74.92320372,62c50e9c1127f2cd403a315f,,,,,,,,,,,,,,,,,,,,,,,,,,,,,,,,,,,,,,,,,,,,,,,,,,,,,,,,,,,,,,,,,,,,,,,,,,,,,,,,,,,,,,,,,,,,,,,,,,,,,,,,,,,,,,,,,,,,,,,,,,,,,,,,,,,,,,,,,,,,,,,,,,,,,,,,,,,,,,,,,,,
0,90,90,92,1,,5c0fa52c9a798f00017c6b76,62c53a05bee84d668969a540,2022-07-06_10h31.33.945,Colour_Asymmetry_Pilot,2022.1.3,Win32,74.92320372,62c50e9c1127f2cd403a315f,,,,,,,,,,,,,,,,,,,,,,,,,,,,,,,,,,,,,,,,,,,,,,,,,,,,,,,,,,,,,,,,,,,,,,,,,,,,,,,,,,,,,,,,,,,,,,,,,,,,,,,,,,,,,,,,,,,,,,,,,,,,,,,,,,,,,,,,,,,,,,,,,,,,,,,,,,,,,,,,,,,
0,91,91,78,1,,5c0fa52c9a798f00017c6b76,62c53a05bee84d668969a540,2022-07-06_10h31.33.945,Colour_Asymmetry_Pilot,2022.1.3,Win32,74.92320372,62c50e9c1127f2cd403a315f,,,,,,,,,,,,,,,,,,,,,,,,,,,,,,,,,,,,,,,,,,,,,,,,,,,,,,,,,,,,,,,,,,,,,,,,,,,,,,,,,,,,,,,,,,,,,,,,,,,,,,,,,,,,,,,,,,,,,,,,,,,,,,,,,,,,,,,,,,,,,,,,,,,,,,,,,,,,,,,,,,,
0,92,92,22,1,,5c0fa52c9a798f00017c6b76,62c53a05bee84d668969a540,2022-07-06_10h31.33.945,Colour_Asymmetry_Pilot,2022.1.3,Win32,74.92320372,62c50e9c1127f2cd403a315f,,,,,,,,,,,,,,,,,,,,,,,,,,,,,,,,,,,,,,,,,,,,,,,,,,,,,,,,,,,,,,,,,,,,,,,,,,,,,,,,,,,,,,,,,,,,,,,,,,,,,,,,,,,,,,,,,,,,,,,,,,,,,,,,,,,,,,,,,,,,,,,,,,,,,,,,,,,,,,,,,,,
,,,,,,5c0fa52c9a798f00017c6b76,62c53a05bee84d668969a540,2022-07-06_10h31.33.945,Colour_Asymmetry_Pilot,2022.1.3,Win32,74.92320372,62c50e9c1127f2cd403a315f,0,0,0,100,1,threeone,,,,,,,,,,,,,,,,,,,,,,,,,,,,,,,,,,,,,,,,,,,,,,,,,,,,,,,,,,,,,,,,,,,,,,,,,,,,,,,,,,,,,,,,,,,,,,,,,,,,,,,,,,,,,,,,,,,,,,,,,,,,,,,,,,,,,,,,,,,,,,,,,,,,,,,,,,,,,
,,,,,,5c0fa52c9a798f00017c6b76,62c53a05bee84d668969a540,2022-07-06_10h31.33.945,Colour_Asymmetry_Pilot,2022.1.3,Win32,74.92320372,62c50e9c1127f2cd403a315f,0,1,1,0,1,onetwo,,,,,,,,,,,,,,,,,,,,,,,,,,,,,,,,,,,,,,,,,,,,,,,,,,,,,,,,,,,,,,,,,,,,,,,,,,,,,,,,,,,,,,,,,,,,,,,,,,,,,,,,,,,,,,,,,,,,,,,,,,,,,,,,,,,,,,,,,,,,,,,,,,,,,,,,,,,,,
,,,,,,5c0fa52c9a798f00017c6b76,62c53a05bee84d668969a540,2022-07-06_10h31.33.945,Colour_Asymmetry_Pilot,2022.1.3,Win32,74.92320372,62c50e9c1127f2cd403a315f,0,2,2,153,1,onethree,,,,,,,,,,,,,,,,,,,,,,,,,,,,,,,,,,,,,,,,,,,,,,,,,,,,,,,,,,,,,,,,,,,,,,,,,,,,,,,,,,,,,,,,,,,,,,,,,,,,,,,,,,,,,,,,,,,,,,,,,,,,,,,,,,,,,,,,,,,,,,,,,,,,,,,,,,,,,
,,,,,,5c0fa52c9a798f00017c6b76,62c53a05bee84d668969a540,2022-07-06_10h31.33.945,Colour_Asymmetry_Pilot,2022.1.3,Win32,74.92320372,62c50e9c1127f2cd403a315f,0,3,3,34,1,twoone,,,,,,,,,,,,,,,,,,,,,,,,,,,,,,,,,,,,,,,,,,,,,,,,,,,,,,,,,,,,,,,,,,,,,,,,,,,,,,,,,,,,,,,,,,,,,,,,,,,,,,,,,,,,,,,,,,,,,,,,,,,,,,,,,,,,,,,,,,,,,,,,,,,,,,,,,,,,,
,,,,,,5c0fa52c9a798f00017c6b76,62c53a05bee84d668969a540,2022-07-06_10h31.33.945,Colour_Asymmetry_Pilot,2022.1.3,Win32,74.92320372,62c50e9c1127f2cd403a315f,0,4,4,59,1,twofour,,,,,,,,,,,,,,,,,,,,,,,,,,,,,,,,,,,,,,,,,,,,,,,,,,,,,,,,,,,,,,,,,,,,,,,,,,,,,,,,,,,,,,,,,,,,,,,,,,,,,,,,,,,,,,,,,,,,,,,,,,,,,,,,,,,,,,,,,,,,,,,,,,,,,,,,,,,,,
,,,,,,5c0fa52c9a798f00017c6b76,62c53a05bee84d668969a540,2022-07-06_10h31.33.945,Colour_Asymmetry_Pilot,2022.1.3,Win32,74.92320372,62c50e9c1127f2cd403a315f,0,5,5,151,1,fourthree,,,,,,,,,,,,,,,,,,,,,,,,,,,,,,,,,,,,,,,,,,,,,,,,,,,,,,,,,,,,,,,,,,,,,,,,,,,,,,,,,,,,,,,,,,,,,,,,,,,,,,,,,,,,,,,,,,,,,,,,,,,,,,,,,,,,,,,,,,,,,,,,,,,,,,,,,,,,,
,,,,,,5c0fa52c9a798f00017c6b76,62c53a05bee84d668969a540,2022-07-06_10h31.33.945,Colour_Asymmetry_Pilot,2022.1.3,Win32,74.92320372,62c50e9c1127f2cd403a315f,0,6,6,111,1,fourthree,,,,,,,,,,,,,,,,,,,,,,,,,,,,,,,,,,,,,,,,,,,,,,,,,,,,,,,,,,,,,,,,,,,,,,,,,,,,,,,,,,,,,,,,,,,,,,,,,,,,,,,,,,,,,,,,,,,,,,,,,,,,,,,,,,,,,,,,,,,,,,,,,,,,,,,,,,,,,
,,,,,,5c0fa52c9a798f00017c6b76,62c53a05bee84d668969a540,2022-07-06_10h31.33.945,Colour_Asymmetry_Pilot,2022.1.3,Win32,74.92320372,62c50e9c1127f2cd403a315f,0,7,7,96,1,onetwo,,,,,,,,,,,,,,,,,,,,,,,,,,,,,,,,,,,,,,,,,,,,,,,,,,,,,,,,,,,,,,,,,,,,,,,,,,,,,,,,,,,,,,,,,,,,,,,,,,,,,,,,,,,,,,,,,,,,,,,,,,,,,,,,,,,,,,,,,,,,,,,,,,,,,,,,,,,,,
,,,,,,5c0fa52c9a798f00017c6b76,62c53a05bee84d668969a540,2022-07-06_10h31.33.945,Colour_Asymmetry_Pilot,2022.1.3,Win32,74.92320372,62c50e9c1127f2cd403a315f,0,8,8,141,1,threefour,,,,,,,,,,,,,,,,,,,,,,,,,,,,,,,,,,,,,,,,,,,,,,,,,,,,,,,,,,,,,,,,,,,,,,,,,,,,,,,,,,,,,,,,,,,,,,,,,,,,,,,,,,,,,,,,,,,,,,,,,,,,,,,,,,,,,,,,,,,,,,,,,,,,,,,,,,,,,
,,,,,,5c0fa52c9a798f00017c6b76,62c53a05bee84d668969a540,2022-07-06_10h31.33.945,Colour_Asymmetry_Pilot,2022.1.3,Win32,74.92320372,62c50e9c1127f2cd403a315f,0,9,9,130,1,twoone,,,,,,,,,,,,,,,,,,,,,,,,,,,,,,,,,,,,,,,,,,,,,,,,,,,,,,,,,,,,,,,,,,,,,,,,,,,,,,,,,,,,,,,,,,,,,,,,,,,,,,,,,,,,,,,,,,,,,,,,,,,,,,,,,,,,,,,,,,,,,,,,,,,,,,,,,,,,,
,,,,,,5c0fa52c9a798f00017c6b76,62c53a05bee84d668969a540,2022-07-06_10h31.33.945,Colour_Asymmetry_Pilot,2022.1.3,Win32,74.92320372,62c50e9c1127f2cd403a315f,0,10,10,6,1,fourtwo,,,,,,,,,,,,,,,,,,,,,,,,,,,,,,,,,,,,,,,,,,,,,,,,,,,,,,,,,,,,,,,,,,,,,,,,,,,,,,,,,,,,,,,,,,,,,,,,,,,,,,,,,,,,,,,,,,,,,,,,,,,,,,,,,,,,,,,,,,,,,,,,,,,,,,,,,,,,,
,,,,,,5c0fa52c9a798f00017c6b76,62c53a05bee84d668969a540,2022-07-06_10h31.33.945,Colour_Asymmetry_Pilot,2022.1.3,Win32,74.92320372,62c50e9c1127f2cd403a315f,0,11,11,104,1,onetwo,,,,,,,,,,,,,,,,,,,,,,,,,,,,,,,,,,,,,,,,,,,,,,,,,,,,,,,,,,,,,,,,,,,,,,,,,,,,,,,,,,,,,,,,,,,,,,,,,,,,,,,,,,,,,,,,,,,,,,,,,,,,,,,,,,,,,,,,,,,,,,,,,,,,,,,,,,,,,
,,,,,,5c0fa52c9a798f00017c6b76,62c53a05bee84d668969a540,2022-07-06_10h31.33.945,Colour_Asymmetry_Pilot,2022.1.3,Win32,74.92320372,62c50e9c1127f2cd403a315f,0,12,12,71,1,fourthree,,,,,,,,,,,,,,,,,,,,,,,,,,,,,,,,,,,,,,,,,,,,,,,,,,,,,,,,,,,,,,,,,,,,,,,,,,,,,,,,,,,,,,,,,,,,,,,,,,,,,,,,,,,,,,,,,,,,,,,,,,,,,,,,,,,,,,,,,,,,,,,,,,,,,,,,,,,,,
,,,,,,5c0fa52c9a798f00017c6b76,62c53a05bee84d668969a540,2022-07-06_10h31.33.945,Colour_Asymmetry_Pilot,2022.1.3,Win32,74.92320372,62c50e9c1127f2cd403a315f,0,13,13,24,1,onetwo,,,,,,,,,,,,,,,,,,,,,,,,,,,,,,,,,,,,,,,,,,,,,,,,,,,,,,,,,,,,,,,,,,,,,,,,,,,,,,,,,,,,,,,,,,,,,,,,,,,,,,,,,,,,,,,,,,,,,,,,,,,,,,,,,,,,,,,,,,,,,,,,,,,,,,,,,,,,,
,,,,,,5c0fa52c9a798f00017c6b76,62c53a05bee84d668969a540,2022-07-06_10h31.33.945,Colour_Asymmetry_Pilot,2022.1.3,Win32,74.92320372,62c50e9c1127f2cd403a315f,0,14,14,56,1,onetwo,,,,,,,,,,,,,,,,,,,,,,,,,,,,,,,,,,,,,,,,,,,,,,,,,,,,,,,,,,,,,,,,,,,,,,,,,,,,,,,,,,,,,,,,,,,,,,,,,,,,,,,,,,,,,,,,,,,,,,,,,,,,,,,,,,,,,,,,,,,,,,,,,,,,,,,,,,,,,
,,,,,,5c0fa52c9a798f00017c6b76,62c53a05bee84d668969a540,2022-07-06_10h31.33.945,Colour_Asymmetry_Pilot,2022.1.3,Win32,74.92320372,62c50e9c1127f2cd403a315f,0,15,15,57,1,onethree,,,,,,,,,,,,,,,,,,,,,,,,,,,,,,,,,,,,,,,,,,,,,,,,,,,,,,,,,,,,,,,,,,,,,,,,,,,,,,,,,,,,,,,,,,,,,,,,,,,,,,,,,,,,,,,,,,,,,,,,,,,,,,,,,,,,,,,,,,,,,,,,,,,,,,,,,,,,,
,,,,,,5c0fa52c9a798f00017c6b76,62c53a05bee84d668969a540,2022-07-06_10h31.33.945,Colour_Asymmetry_Pilot,2022.1.3,Win32,74.92320372,62c50e9c1127f2cd403a315f,0,16,16,43,1,twofour,,,,,,,,,,,,,,,,,,,,,,,,,,,,,,,,,,,,,,,,,,,,,,,,,,,,,,,,,,,,,,,,,,,,,,,,,,,,,,,,,,,,,,,,,,,,,,,,,,,,,,,,,,,,,,,,,,,,,,,,,,,,,,,,,,,,,,,,,,,,,,,,,,,,,,,,,,,,,
,,,,,,5c0fa52c9a798f00017c6b76,62c53a05bee84d668969a540,2022-07-06_10h31.33.945,Colour_Asymmetry_Pilot,2022.1.3,Win32,74.92320372,62c50e9c1127f2cd403a315f,0,17,17,123,1,twofour,,,,,,,,,,,,,,,,,,,,,,,,,,,,,,,,,,,,,,,,,,,,,,,,,,,,,,,,,,,,,,,,,,,,,,,,,,,,,,,,,,,,,,,,,,,,,,,,,,,,,,,,,,,,,,,,,,,,,,,,,,,,,,,,,,,,,,,,,,,,,,,,,,,,,,,,,,,,,
,,,,,,5c0fa52c9a798f00017c6b76,62c53a05bee84d668969a540,2022-07-06_10h31.33.945,Colour_Asymmetry_Pilot,2022.1.3,Win32,74.92320372,62c50e9c1127f2cd403a315f,0,18,18,48,1,onetwo,,,,,,,,,,,,,,,,,,,,,,,,,,,,,,,,,,,,,,,,,,,,,,,,,,,,,,,,,,,,,,,,,,,,,,,,,,,,,,,,,,,,,,,,,,,,,,,,,,,,,,,,,,,,,,,,,,,,,,,,,,,,,,,,,,,,,,,,,,,,,,,,,,,,,,,,,,,,,
,,,,,,5c0fa52c9a798f00017c6b76,62c53a05bee84d668969a540,2022-07-06_10h31.33.945,Colour_Asymmetry_Pilot,2022.1.3,Win32,74.92320372,62c50e9c1127f2cd403a315f,0,19,19,73,1,onethree,,,,,,,,,,,,,,,,,,,,,,,,,,,,,,,,,,,,,,,,,,,,,,,,,,,,,,,,,,,,,,,,,,,,,,,,,,,,,,,,,,,,,,,,,,,,,,,,,,,,,,,,,,,,,,,,,,,,,,,,,,,,,,,,,,,,,,,,,,,,,,,,,,,,,,,,,,,,,
,,,,,,5c0fa52c9a798f00017c6b76,62c53a05bee84d668969a540,2022-07-06_10h31.33.945,Colour_Asymmetry_Pilot,2022.1.3,Win32,74.92320372,62c50e9c1127f2cd403a315f,0,20,20,91,1,twofour,,,,,,,,,,,,,,,,,,,,,,,,,,,,,,,,,,,,,,,,,,,,,,,,,,,,,,,,,,,,,,,,,,,,,,,,,,,,,,,,,,,,,,,,,,,,,,,,,,,,,,,,,,,,,,,,,,,,,,,,,,,,,,,,,,,,,,,,,,,,,,,,,,,,,,,,,,,,,
,,,,,,5c0fa52c9a798f00017c6b76,62c53a05bee84d668969a540,2022-07-06_10h31.33.945,Colour_Asymmetry_Pilot,2022.1.3,Win32,74.92320372,62c50e9c1127f2cd403a315f,0,21,21,32,1,onetwo,,,,,,,,,,,,,,,,,,,,,,,,,,,,,,,,,,,,,,,,,,,,,,,,,,,,,,,,,,,,,,,,,,,,,,,,,,,,,,,,,,,,,,,,,,,,,,,,,,,,,,,,,,,,,,,,,,,,,,,,,,,,,,,,,,,,,,,,,,,,,,,,,,,,,,,,,,,,,
,,,,,,5c0fa52c9a798f00017c6b76,62c53a05bee84d668969a540,2022-07-06_10h31.33.945,Colour_Asymmetry_Pilot,2022.1.3,Win32,74.92320372,62c50e9c1127f2cd403a315f,0,22,22,132,1,threeone,,,,,,,,,,,,,,,,,,,,,,,,,,,,,,,,,,,,,,,,,,,,,,,,,,,,,,,,,,,,,,,,,,,,,,,,,,,,,,,,,,,,,,,,,,,,,,,,,,,,,,,,,,,,,,,,,,,,,,,,,,,,,,,,,,,,,,,,,,,,,,,,,,,,,,,,,,,,,
,,,,,,5c0fa52c9a798f00017c6b76,62c53a05bee84d668969a540,2022-07-06_10h31.33.945,Colour_Asymmetry_Pilot,2022.1.3,Win32,74.92320372,62c50e9c1127f2cd403a315f,0,23,23,1,1,onethree,,,,,,,,,,,,,,,,,,,,,,,,,,,,,,,,,,,,,,,,,,,,,,,,,,,,,,,,,,,,,,,,,,,,,,,,,,,,,,,,,,,,,,,,,,,,,,,,,,,,,,,,,,,,,,,,,,,,,,,,,,,,,,,,,,,,,,,,,,,,,,,,,,,,,,,,,,,,,
,,,,,,5c0fa52c9a798f00017c6b76,62c53a05bee84d668969a540,2022-07-06_10h31.33.945,Colour_Asymmetry_Pilot,2022.1.3,Win32,74.92320372,62c50e9c1127f2cd403a315f,0,24,24,12,1,threeone,,,,,,,,,,,,,,,,,,,,,,,,,,,,,,,,,,,,,,,,,,,,,,,,,,,,,,,,,,,,,,,,,,,,,,,,,,,,,,,,,,,,,,,,,,,,,,,,,,,,,,,,,,,,,,,,,,,,,,,,,,,,,,,,,,,,,,,,,,,,,,,,,,,,,,,,,,,,,
,,,,,,5c0fa52c9a798f00017c6b76,62c53a05bee84d668969a540,2022-07-06_10h31.33.945,Colour_Asymmetry_Pilot,2022.1.3,Win32,74.92320372,62c50e9c1127f2cd403a315f,0,25,25,135,1,fourthree,,,,,,,,,,,,,,,,,,,,,,,,,,,,,,,,,,,,,,,,,,,,,,,,,,,,,,,,,,,,,,,,,,,,,,,,,,,,,,,,,,,,,,,,,,,,,,,,,,,,,,,,,,,,,,,,,,,,,,,,,,,,,,,,,,,,,,,,,,,,,,,,,,,,,,,,,,,,,
,,,,,,5c0fa52c9a798f00017c6b76,62c53a05bee84d668969a540,2022-07-06_10h31.33.945,Colour_Asymmetry_Pilot,2022.1.3,Win32,74.92320372,62c50e9c1127f2cd403a315f,0,26,26,23,1,fourthree,,,,,,,,,,,,,,,,,,,,,,,,,,,,,,,,,,,,,,,,,,,,,,,,,,,,,,,,,,,,,,,,,,,,,,,,,,,,,,,,,,,,,,,,,,,,,,,,,,,,,,,,,,,,,,,,,,,,,,,,,,,,,,,,,,,,,,,,,,,,,,,,,,,,,,,,,,,,,
,,,,,,5c0fa52c9a798f00017c6b76,62c53a05bee84d668969a540,2022-07-06_10h31.33.945,Colour_Asymmetry_Pilot,2022.1.3,Win32,74.92320372,62c50e9c1127f2cd403a315f,0,27,27,14,1,fourtwo,,,,,,,,,,,,,,,,,,,,,,,,,,,,,,,,,,,,,,,,,,,,,,,,,,,,,,,,,,,,,,,,,,,,,,,,,,,,,,,,,,,,,,,,,,,,,,,,,,,,,,,,,,,,,,,,,,,,,,,,,,,,,,,,,,,,,,,,,,,,,,,,,,,,,,,,,,,,,
,,,,,,5c0fa52c9a798f00017c6b76,62c53a05bee84d668969a540,2022-07-06_10h31.33.945,Colour_Asymmetry_Pilot,2022.1.3,Win32,74.92320372,62c50e9c1127f2cd403a315f,0,28,28,4,1,threeone,,,,,,,,,,,,,,,,,,,,,,,,,,,,,,,,,,,,,,,,,,,,,,,,,,,,,,,,,,,,,,,,,,,,,,,,,,,,,,,,,,,,,,,,,,,,,,,,,,,,,,,,,,,,,,,,,,,,,,,,,,,,,,,,,,,,,,,,,,,,,,,,,,,,,,,,,,,,,
,,,,,,5c0fa52c9a798f00017c6b76,62c53a05bee84d668969a540,2022-07-06_10h31.33.945,Colour_Asymmetry_Pilot,2022.1.3,Win32,74.92320372,62c50e9c1127f2cd403a315f,0,29,29,161,1,onethree,,,,,,,,,,,,,,,,,,,,,,,,,,,,,,,,,,,,,,,,,,,,,,,,,,,,,,,,,,,,,,,,,,,,,,,,,,,,,,,,,,,,,,,,,,,,,,,,,,,,,,,,,,,,,,,,,,,,,,,,,,,,,,,,,,,,,,,,,,,,,,,,,,,,,,,,,,,,,
,,,,,,5c0fa52c9a798f00017c6b76,62c53a05bee84d668969a540,2022-07-06_10h31.33.945,Colour_Asymmetry_Pilot,2022.1.3,Win32,74.92320372,62c50e9c1127f2cd403a315f,0,30,30,61,1,threefour,,,,,,,,,,,,,,,,,,,,,,,,,,,,,,,,,,,,,,,,,,,,,,,,,,,,,,,,,,,,,,,,,,,,,,,,,,,,,,,,,,,,,,,,,,,,,,,,,,,,,,,,,,,,,,,,,,,,,,,,,,,,,,,,,,,,,,,,,,,,,,,,,,,,,,,,,,,,,
,,,,,,5c0fa52c9a798f00017c6b76,62c53a05bee84d668969a540,2022-07-06_10h31.33.945,Colour_Asymmetry_Pilot,2022.1.3,Win32,74.92320372,62c50e9c1127f2cd403a315f,0,31,31,144,1,onetwo,,,,,,,,,,,,,,,,,,,,,,,,,,,,,,,,,,,,,,,,,,,,,,,,,,,,,,,,,,,,,,,,,,,,,,,,,,,,,,,,,,,,,,,,,,,,,,,,,,,,,,,,,,,,,,,,,,,,,,,,,,,,,,,,,,,,,,,,,,,,,,,,,,,,,,,,,,,,,
,,,,,,5c0fa52c9a798f00017c6b76,62c53a05bee84d668969a540,2022-07-06_10h31.33.945,Colour_Asymmetry_Pilot,2022.1.3,Win32,74.92320372,62c50e9c1127f2cd403a315f,0,32,32,97,1,onethree,,,,,,,,,,,,,,,,,,,,,,,,,,,,,,,,,,,,,,,,,,,,,,,,,,,,,,,,,,,,,,,,,,,,,,,,,,,,,,,,,,,,,,,,,,,,,,,,,,,,,,,,,,,,,,,,,,,,,,,,,,,,,,,,,,,,,,,,,,,,,,,,,,,,,,,,,,,,,
,,,,,,5c0fa52c9a798f00017c6b76,62c53a05bee84d668969a540,2022-07-06_10h31.33.945,Colour_Asymmetry_Pilot,2022.1.3,Win32,74.92320372,62c50e9c1127f2cd403a315f,0,33,33,138,1,twoone,,,,,,,,,,,,,,,,,,,,,,,,,,,,,,,,,,,,,,,,,,,,,,,,,,,,,,,,,,,,,,,,,,,,,,,,,,,,,,,,,,,,,,,,,,,,,,,,,,,,,,,,,,,,,,,,,,,,,,,,,,,,,,,,,,,,,,,,,,,,,,,,,,,,,,,,,,,,,
,,,,,,5c0fa52c9a798f00017c6b76,62c53a05bee84d668969a540,2022-07-06_10h31.33.945,Colour_Asymmetry_Pilot,2022.1.3,Win32,74.92320372,62c50e9c1127f2cd403a315f,0,34,34,21,1,threefour,,,,,,,,,,,,,,,,,,,,,,,,,,,,,,,,,,,,,,,,,,,,,,,,,,,,,,,,,,,,,,,,,,,,,,,,,,,,,,,,,,,,,,,,,,,,,,,,,,,,,,,,,,,,,,,,,,,,,,,,,,,,,,,,,,,,,,,,,,,,,,,,,,,,,,,,,,,,,
,,,,,,5c0fa52c9a798f00017c6b76,62c53a05bee84d668969a540,2022-07-06_10h31.33.945,Colour_Asymmetry_Pilot,2022.1.3,Win32,74.92320372,62c50e9c1127f2cd403a315f,0,35,35,62,1,fourtwo,,,,,,,,,,,,,,,,,,,,,,,,,,,,,,,,,,,,,,,,,,,,,,,,,,,,,,,,,,,,,,,,,,,,,,,,,,,,,,,,,,,,,,,,,,,,,,,,,,,,,,,,,,,,,,,,,,,,,,,,,,,,,,,,,,,,,,,,,,,,,,,,,,,,,,,,,,,,,
,,,,,,5c0fa52c9a798f00017c6b76,62c53a05bee84d668969a540,2022-07-06_10h31.33.945,Colour_Asymmetry_Pilot,2022.1.3,Win32,74.92320372,62c50e9c1127f2cd403a315f,0,36,36,85,1,threefour,,,,,,,,,,,,,,,,,,,,,,,,,,,,,,,,,,,,,,,,,,,,,,,,,,,,,,,,,,,,,,,,,,,,,,,,,,,,,,,,,,,,,,,,,,,,,,,,,,,,,,,,,,,,,,,,,,,,,,,,,,,,,,,,,,,,,,,,,,,,,,,,,,,,,,,,,,,,,
,,,,,,5c0fa52c9a798f00017c6b76,62c53a05bee84d668969a540,2022-07-06_10h31.33.945,Colour_Asymmetry_Pilot,2022.1.3,Win32,74.92320372,62c50e9c1127f2cd403a315f,0,37,37,25,1,onethree,,,,,,,,,,,,,,,,,,,,,,,,,,,,,,,,,,,,,,,,,,,,,,,,,,,,,,,,,,,,,,,,,,,,,,,,,,,,,,,,,,,,,,,,,,,,,,,,,,,,,,,,,,,,,,,,,,,,,,,,,,,,,,,,,,,,,,,,,,,,,,,,,,,,,,,,,,,,,
,,,,,,5c0fa52c9a798f00017c6b76,62c53a05bee84d668969a540,2022-07-06_10h31.33.945,Colour_Asymmetry_Pilot,2022.1.3,Win32,74.92320372,62c50e9c1127f2cd403a315f,0,38,38,77,1,threefour,,,,,,,,,,,,,,,,,,,,,,,,,,,,,,,,,,,,,,,,,,,,,,,,,,,,,,,,,,,,,,,,,,,,,,,,,,,,,,,,,,,,,,,,,,,,,,,,,,,,,,,,,,,,,,,,,,,,,,,,,,,,,,,,,,,,,,,,,,,,,,,,,,,,,,,,,,,,,
,,,,,,5c0fa52c9a798f00017c6b76,62c53a05bee84d668969a540,2022-07-06_10h31.33.945,Colour_Asymmetry_Pilot,2022.1.3,Win32,74.92320372,62c50e9c1127f2cd403a315f,0,39,39,28,1,threeone,,,,,,,,,,,,,,,,,,,,,,,,,,,,,,,,,,,,,,,,,,,,,,,,,,,,,,,,,,,,,,,,,,,,,,,,,,,,,,,,,,,,,,,,,,,,,,,,,,,,,,,,,,,,,,,,,,,,,,,,,,,,,,,,,,,,,,,,,,,,,,,,,,,,,,,,,,,,,
,,,,,,5c0fa52c9a798f00017c6b76,62c53a05bee84d668969a540,2022-07-06_10h31.33.945,Colour_Asymmetry_Pilot,2022.1.3,Win32,74.92320372,62c50e9c1127f2cd403a315f,0,40,40,116,1,threeone,,,,,,,,,,,,,,,,,,,,,,,,,,,,,,,,,,,,,,,,,,,,,,,,,,,,,,,,,,,,,,,,,,,,,,,,,,,,,,,,,,,,,,,,,,,,,,,,,,,,,,,,,,,,,,,,,,,,,,,,,,,,,,,,,,,,,,,,,,,,,,,,,,,,,,,,,,,,,
,,,,,,5c0fa52c9a798f00017c6b76,62c53a05bee84d668969a540,2022-07-06_10h31.33.945,Colour_Asymmetry_Pilot,2022.1.3,Win32,74.92320372,62c50e9c1127f2cd403a315f,0,41,41,22,1,fourtwo,,,,,,,,,,,,,,,,,,,,,,,,,,,,,,,,,,,,,,,,,,,,,,,,,,,,,,,,,,,,,,,,,,,,,,,,,,,,,,,,,,,,,,,,,,,,,,,,,,,,,,,,,,,,,,,,,,,,,,,,,,,,,,,,,,,,,,,,,,,,,,,,,,,,,,,,,,,,,
,,,,,,5c0fa52c9a798f00017c6b76,62c53a05bee84d668969a540,2022-07-06_10h31.33.945,Colour_Asymmetry_Pilot,2022.1.3,Win32,74.92320372,62c50e9c1127f2cd403a315f,0,42,42,79,1,fourthree,,,,,,,,,,,,,,,,,,,,,,,,,,,,,,,,,,,,,,,,,,,,,,,,,,,,,,,,,,,,,,,,,,,,,,,,,,,,,,,,,,,,,,,,,,,,,,,,,,,,,,,,,,,,,,,,,,,,,,,,,,,,,,,,,,,,,,,,,,,,,,,,,,,,,,,,,,,,,
,,,,,,5c0fa52c9a798f00017c6b76,62c53a05bee84d668969a540,2022-07-06_10h31.33.945,Colour_Asymmetry_Pilot,2022.1.3,Win32,74.92320372,62c50e9c1127f2cd403a315f,0,43,43,42,1,twoone,,,,,,,,,,,,,,,,,,,,,,,,,,,,,,,,,,,,,,,,,,,,,,,,,,,,,,,,,,,,,,,,,,,,,,,,,,,,,,,,,,,,,,,,,,,,,,,,,,,,,,,,,,,,,,,,,,,,,,,,,,,,,,,,,,,,,,,,,,,,,,,,,,,,,,,,,,,,,
,,,,,,5c0fa52c9a798f00017c6b76,62c53a05bee84d668969a540,2022-07-06_10h31.33.945,Colour_Asymmetry_Pilot,2022.1.3,Win32,74.92320372,62c50e9c1127f2cd403a315f,0,44,44,146,1,twoone,,,,,,,,,,,,,,,,,,,,,,,,,,,,,,,,,,,,,,,,,,,,,,,,,,,,,,,,,,,,,,,,,,,,,,,,,,,,,,,,,,,,,,,,,,,,,,,,,,,,,,,,,,,,,,,,,,,,,,,,,,,,,,,,,,,,,,,,,,,,,,,,,,,,,,,,,,,,,
,,,,,,5c0fa52c9a798f00017c6b76,62c53a05bee84d668969a540,2022-07-06_10h31.33.945,Colour_Asymmetry_Pilot,2022.1.3,Win32,74.92320372,62c50e9c1127f2cd403a315f,0,45,45,155,1,twofour,,,,,,,,,,,,,,,,,,,,,,,,,,,,,,,,,,,,,,,,,,,,,,,,,,,,,,,,,,,,,,,,,,,,,,,,,,,,,,,,,,,,,,,,,,,,,,,,,,,,,,,,,,,,,,,,,,,,,,,,,,,,,,,,,,,,,,,,,,,,,,,,,,,,,,,,,,,,,
,,,,,,5c0fa52c9a798f00017c6b76,62c53a05bee84d668969a540,2022-07-06_10h31.33.945,Colour_Asymmetry_Pilot,2022.1.3,Win32,74.92320372,62c50e9c1127f2cd403a315f,0,46,46,122,1,twoone,,,,,,,,,,,,,,,,,,,,,,,,,,,,,,,,,,,,,,,,,,,,,,,,,,,,,,,,,,,,,,,,,,,,,,,,,,,,,,,,,,,,,,,,,,,,,,,,,,,,,,,,,,,,,,,,,,,,,,,,,,,,,,,,,,,,,,,,,,,,,,,,,,,,,,,,,,,,,
,,,,,,5c0fa52c9a798f00017c6b76,62c53a05bee84d668969a540,2022-07-06_10h31.33.945,Colour_Asymmetry_Pilot,2022.1.3,Win32,74.92320372,62c50e9c1127f2cd403a315f,0,47,47,46,1,fourtwo,,,,,,,,,,,,,,,,,,,,,,,,,,,,,,,,,,,,,,,,,,,,,,,,,,,,,,,,,,,,,,,,,,,,,,,,,,,,,,,,,,,,,,,,,,,,,,,,,,,,,,,,,,,,,,,,,,,,,,,,,,,,,,,,,,,,,,,,,,,,,,,,,,,,,,,,,,,,,
,,,,,,5c0fa52c9a798f00017c6b76,62c53a05bee84d668969a540,2022-07-06_10h31.33.945,Colour_Asymmetry_Pilot,2022.1.3,Win32,74.92320372,62c50e9c1127f2cd403a315f,0,48,48,106,1,twoone,,,,,,,,,,,,,,,,,,,,,,,,,,,,,,,,,,,,,,,,,,,,,,,,,,,,,,,,,,,,,,,,,,,,,,,,,,,,,,,,,,,,,,,,,,,,,,,,,,,,,,,,,,,,,,,,,,,,,,,,,,,,,,,,,,,,,,,,,,,,,,,,,,,,,,,,,,,,,
,,,,,,5c0fa52c9a798f00017c6b76,62c53a05bee84d668969a540,2022-07-06_10h31.33.945,Colour_Asymmetry_Pilot,2022.1.3,Win32,74.92320372,62c50e9c1127f2cd403a315f,0,49,49,69,1,threefour,,,,,,,,,,,,,,,,,,,,,,,,,,,,,,,,,,,,,,,,,,,,,,,,,,,,,,,,,,,,,,,,,,,,,,,,,,,,,,,,,,,,,,,,,,,,,,,,,,,,,,,,,,,,,,,,,,,,,,,,,,,,,,,,,,,,,,,,,,,,,,,,,,,,,,,,,,,,,
,,,,,,5c0fa52c9a798f00017c6b76,62c53a05bee84d668969a540,2022-07-06_10h31.33.945,Colour_Asymmetry_Pilot,2022.1.3,Win32,74.92320372,62c50e9c1127f2cd403a315f,0,50,50,30,1,fourtwo,,,,,,,,,,,,,,,,,,,,,,,,,,,,,,,,,,,,,,,,,,,,,,,,,,,,,,,,,,,,,,,,,,,,,,,,,,,,,,,,,,,,,,,,,,,,,,,,,,,,,,,,,,,,,,,,,,,,,,,,,,,,,,,,,,,,,,,,,,,,,,,,,,,,,,,,,,,,,
,,,,,,5c0fa52c9a798f00017c6b76,62c53a05bee84d668969a540,2022-07-06_10h31.33.945,Colour_Asymmetry_Pilot,2022.1.3,Win32,74.92320372,62c50e9c1127f2cd403a315f,0,51,51,65,1,onethree,,,,,,,,,,,,,,,,,,,,,,,,,,,,,,,,,,,,,,,,,,,,,,,,,,,,,,,,,,,,,,,,,,,,,,,,,,,,,,,,,,,,,,,,,,,,,,,,,,,,,,,,,,,,,,,,,,,,,,,,,,,,,,,,,,,,,,,,,,,,,,,,,,,,,,,,,,,,,
,,,,,,5c0fa52c9a798f00017c6b76,62c53a05bee84d668969a540,2022-07-06_10h31.33.945,Colour_Asymmetry_Pilot,2022.1.3,Win32,74.92320372,62c50e9c1127f2cd403a315f,0,52,52,102,1,fourtwo,,,,,,,,,,,,,,,,,,,,,,,,,,,,,,,,,,,,,,,,,,,,,,,,,,,,,,,,,,,,,,,,,,,,,,,,,,,,,,,,,,,,,,,,,,,,,,,,,,,,,,,,,,,,,,,,,,,,,,,,,,,,,,,,,,,,,,,,,,,,,,,,,,,,,,,,,,,,,
,,,,,,5c0fa52c9a798f00017c6b76,62c53a05bee84d668969a540,2022-07-06_10h31.33.945,Colour_Asymmetry_Pilot,2022.1.3,Win32,74.92320372,62c50e9c1127f2cd403a315f,0,53,53,157,1,threefour,,,,,,,,,,,,,,,,,,,,,,,,,,,,,,,,,,,,,,,,,,,,,,,,,,,,,,,,,,,,,,,,,,,,,,,,,,,,,,,,,,,,,,,,,,,,,,,,,,,,,,,,,,,,,,,,,,,,,,,,,,,,,,,,,,,,,,,,,,,,,,,,,,,,,,,,,,,,,
,,,,,,5c0fa52c9a798f00017c6b76,62c53a05bee84d668969a540,2022-07-06_10h31.33.945,Colour_Asymmetry_Pilot,2022.1.3,Win32,74.92320372,62c50e9c1127f2cd403a315f,0,54,54,7,1,fourthree,,,,,,,,,,,,,,,,,,,,,,,,,,,,,,,,,,,,,,,,,,,,,,,,,,,,,,,,,,,,,,,,,,,,,,,,,,,,,,,,,,,,,,,,,,,,,,,,,,,,,,,,,,,,,,,,,,,,,,,,,,,,,,,,,,,,,,,,,,,,,,,,,,,,,,,,,,,,,
,,,,,,5c0fa52c9a798f00017c6b76,62c53a05bee84d668969a540,2022-07-06_10h31.33.945,Colour_Asymmetry_Pilot,2022.1.3,Win32,74.92320372,62c50e9c1127f2cd403a315f,0,55,55,72,1,onetwo,,,,,,,,,,,,,,,,,,,,,,,,,,,,,,,,,,,,,,,,,,,,,,,,,,,,,,,,,,,,,,,,,,,,,,,,,,,,,,,,,,,,,,,,,,,,,,,,,,,,,,,,,,,,,,,,,,,,,,,,,,,,,,,,,,,,,,,,,,,,,,,,,,,,,,,,,,,,,
,,,,,,5c0fa52c9a798f00017c6b76,62c53a05bee84d668969a540,2022-07-06_10h31.33.945,Colour_Asymmetry_Pilot,2022.1.3,Win32,74.92320372,62c50e9c1127f2cd403a315f,0,56,56,20,1,threeone,,,,,,,,,,,,,,,,,,,,,,,,,,,,,,,,,,,,,,,,,,,,,,,,,,,,,,,,,,,,,,,,,,,,,,,,,,,,,,,,,,,,,,,,,,,,,,,,,,,,,,,,,,,,,,,,,,,,,,,,,,,,,,,,,,,,,,,,,,,,,,,,,,,,,,,,,,,,,
,,,,,,5c0fa52c9a798f00017c6b76,62c53a05bee84d668969a540,2022-07-06_10h31.33.945,Colour_Asymmetry_Pilot,2022.1.3,Win32,74.92320372,62c50e9c1127f2cd403a315f,0,57,57,52,1,threeone,,,,,,,,,,,,,,,,,,,,,,,,,,,,,,,,,,,,,,,,,,,,,,,,,,,,,,,,,,,,,,,,,,,,,,,,,,,,,,,,,,,,,,,,,,,,,,,,,,,,,,,,,,,,,,,,,,,,,,,,,,,,,,,,,,,,,,,,,,,,,,,,,,,,,,,,,,,,,
,,,,,,5c0fa52c9a798f00017c6b76,62c53a05bee84d668969a540,2022-07-06_10h31.33.945,Colour_Asymmetry_Pilot,2022.1.3,Win32,74.92320372,62c50e9c1127f2cd403a315f,0,58,58,114,1,twoone,,,,,,,,,,,,,,,,,,,,,,,,,,,,,,,,,,,,,,,,,,,,,,,,,,,,,,,,,,,,,,,,,,,,,,,,,,,,,,,,,,,,,,,,,,,,,,,,,,,,,,,,,,,,,,,,,,,,,,,,,,,,,,,,,,,,,,,,,,,,,,,,,,,,,,,,,,,,,
,,,,,,5c0fa52c9a798f00017c6b76,62c53a05bee84d668969a540,2022-07-06_10h31.33.945,Colour_Asymmetry_Pilot,2022.1.3,Win32,74.92320372,62c50e9c1127f2cd403a315f,0,59,59,113,1,onethree,,,,,,,,,,,,,,,,,,,,,,,,,,,,,,,,,,,,,,,,,,,,,,,,,,,,,,,,,,,,,,,,,,,,,,,,,,,,,,,,,,,,,,,,,,,,,,,,,,,,,,,,,,,,,,,,,,,,,,,,,,,,,,,,,,,,,,,,,,,,,,,,,,,,,,,,,,,,,
,,,,,,5c0fa52c9a798f00017c6b76,62c53a05bee84d668969a540,2022-07-06_10h31.33.945,Colour_Asymmetry_Pilot,2022.1.3,Win32,74.92320372,62c50e9c1127f2cd403a315f,0,60,60,13,1,threefour,,,,,,,,,,,,,,,,,,,,,,,,,,,,,,,,,,,,,,,,,,,,,,,,,,,,,,,,,,,,,,,,,,,,,,,,,,,,,,,,,,,,,,,,,,,,,,,,,,,,,,,,,,,,,,,,,,,,,,,,,,,,,,,,,,,,,,,,,,,,,,,,,,,,,,,,,,,,,
,,,,,,5c0fa52c9a798f00017c6b76,62c53a05bee84d668969a540,2022-07-06_10h31.33.945,Colour_Asymmetry_Pilot,2022.1.3,Win32,74.92320372,62c50e9c1127f2cd403a315f,0,61,61,127,1,fourthree,,,,,,,,,,,,,,,,,,,,,,,,,,,,,,,,,,,,,,,,,,,,,,,,,,,,,,,,,,,,,,,,,,,,,,,,,,,,,,,,,,,,,,,,,,,,,,,,,,,,,,,,,,,,,,,,,,,,,,,,,,,,,,,,,,,,,,,,,,,,,,,,,,,,,,,,,,,,,
,,,,,,5c0fa52c9a798f00017c6b76,62c53a05bee84d668969a540,2022-07-06_10h31.33.945,Colour_Asymmetry_Pilot,2022.1.3,Win32,74.92320372,62c50e9c1127f2cd403a315f,0,62,62,44,1,threeone,,,,,,,,,,,,,,,,,,,,,,,,,,,,,,,,,,,,,,,,,,,,,,,,,,,,,,,,,,,,,,,,,,,,,,,,,,,,,,,,,,,,,,,,,,,,,,,,,,,,,,,,,,,,,,,,,,,,,,,,,,,,,,,,,,,,,,,,,,,,,,,,,,,,,,,,,,,,,
,,,,,,5c0fa52c9a798f00017c6b76,62c53a05bee84d668969a540,2022-07-06_10h31.33.945,Colour_Asymmetry_Pilot,2022.1.3,Win32,74.92320372,62c50e9c1127f2cd403a315f,0,63,63,156,1,threeone,,,,,,,,,,,,,,,,,,,,,,,,,,,,,,,,,,,,,,,,,,,,,,,,,,,,,,,,,,,,,,,,,,,,,,,,,,,,,,,,,,,,,,,,,,,,,,,,,,,,,,,,,,,,,,,,,,,,,,,,,,,,,,,,,,,,,,,,,,,,,,,,,,,,,,,,,,,,,
,,,,,,5c0fa52c9a798f00017c6b76,62c53a05bee84d668969a540,2022-07-06_10h31.33.945,Colour_Asymmetry_Pilot,2022.1.3,Win32,74.92320372,62c50e9c1127f2cd403a315f,0,64,64,55,1,fourthree,,,,,,,,,,,,,,,,,,,,,,,,,,,,,,,,,,,,,,,,,,,,,,,,,,,,,,,,,,,,,,,,,,,,,,,,,,,,,,,,,,,,,,,,,,,,,,,,,,,,,,,,,,,,,,,,,,,,,,,,,,,,,,,,,,,,,,,,,,,,,,,,,,,,,,,,,,,,,
,,,,,,5c0fa52c9a798f00017c6b76,62c53a05bee84d668969a540,2022-07-06_10h31.33.945,Colour_Asymmetry_Pilot,2022.1.3,Win32,74.92320372,62c50e9c1127f2cd403a315f,0,65,65,16,1,onetwo,,,,,,,,,,,,,,,,,,,,,,,,,,,,,,,,,,,,,,,,,,,,,,,,,,,,,,,,,,,,,,,,,,,,,,,,,,,,,,,,,,,,,,,,,,,,,,,,,,,,,,,,,,,,,,,,,,,,,,,,,,,,,,,,,,,,,,,,,,,,,,,,,,,,,,,,,,,,,
,,,,,,5c0fa52c9a798f00017c6b76,62c53a05bee84d668969a540,2022-07-06_10h31.33.945,Colour_Asymmetry_Pilot,2022.1.3,Win32,74.92320372,62c50e9c1127f2cd403a315f,0,66,66,36,1,threeone,,,,,,,,,,,,,,,,,,,,,,,,,,,,,,,,,,,,,,,,,,,,,,,,,,,,,,,,,,,,,,,,,,,,,,,,,,,,,,,,,,,,,,,,,,,,,,,,,,,,,,,,,,,,,,,,,,,,,,,,,,,,,,,,,,,,,,,,,,,,,,,,,,,,,,,,,,,,,
,,,,,,5c0fa52c9a798f00017c6b76,62c53a05bee84d668969a540,2022-07-06_10h31.33.945,Colour_Asymmetry_Pilot,2022.1.3,Win32,74.92320372,62c50e9c1127f2cd403a315f,0,67,67,35,1,twofour,,,,,,,,,,,,,,,,,,,,,,,,,,,,,,,,,,,,,,,,,,,,,,,,,,,,,,,,,,,,,,,,,,,,,,,,,,,,,,,,,,,,,,,,,,,,,,,,,,,,,,,,,,,,,,,,,,,,,,,,,,,,,,,,,,,,,,,,,,,,,,,,,,,,,,,,,,,,,
,,,,,,5c0fa52c9a798f00017c6b76,62c53a05bee84d668969a540,2022-07-06_10h31.33.945,Colour_Asymmetry_Pilot,2022.1.3,Win32,74.92320372,62c50e9c1127f2cd403a315f,0,68,68,112,1,onetwo,,,,,,,,,,,,,,,,,,,,,,,,,,,,,,,,,,,,,,,,,,,,,,,,,,,,,,,,,,,,,,,,,,,,,,,,,,,,,,,,,,,,,,,,,,,,,,,,,,,,,,,,,,,,,,,,,,,,,,,,,,,,,,,,,,,,,,,,,,,,,,,,,,,,,,,,,,,,,
,,,,,,5c0fa52c9a798f00017c6b76,62c53a05bee84d668969a540,2022-07-06_10h31.33.945,Colour_Asymmetry_Pilot,2022.1.3,Win32,74.92320372,62c50e9c1127f2cd403a315f,0,69,69,11,1,twofour,,,,,,,,,,,,,,,,,,,,,,,,,,,,,,,,,,,,,,,,,,,,,,,,,,,,,,,,,,,,,,,,,,,,,,,,,,,,,,,,,,,,,,,,,,,,,,,,,,,,,,,,,,,,,,,,,,,,,,,,,,,,,,,,,,,,,,,,,,,,,,,,,,,,,,,,,,,,,
,,,,,,5c0fa52c9a798f00017c6b76,62c53a05bee84d668969a540,2022-07-06_10h31.33.945,Colour_Asymmetry_Pilot,2022.1.3,Win32,74.92320372,62c50e9c1127f2cd403a315f,0,70,70,41,1,onethree,,,,,,,,,,,,,,,,,,,,,,,,,,,,,,,,,,,,,,,,,,,,,,,,,,,,,,,,,,,,,,,,,,,,,,,,,,,,,,,,,,,,,,,,,,,,,,,,,,,,,,,,,,,,,,,,,,,,,,,,,,,,,,,,,,,,,,,,,,,,,,,,,,,,,,,,,,,,,
,,,,,,5c0fa52c9a798f00017c6b76,62c53a05bee84d668969a540,2022-07-06_10h31.33.945,Colour_Asymmetry_Pilot,2022.1.3,Win32,74.92320372,62c50e9c1127f2cd403a315f,0,71,71,26,1,twoone,,,,,,,,,,,,,,,,,,,,,,,,,,,,,,,,,,,,,,,,,,,,,,,,,,,,,,,,,,,,,,,,,,,,,,,,,,,,,,,,,,,,,,,,,,,,,,,,,,,,,,,,,,,,,,,,,,,,,,,,,,,,,,,,,,,,,,,,,,,,,,,,,,,,,,,,,,,,,
,,,,,,5c0fa52c9a798f00017c6b76,62c53a05bee84d668969a540,2022-07-06_10h31.33.945,Colour_Asymmetry_Pilot,2022.1.3,Win32,74.92320372,62c50e9c1127f2cd403a315f,0,72,72,147,1,twofour,,,,,,,,,,,,,,,,,,,,,,,,,,,,,,,,,,,,,,,,,,,,,,,,,,,,,,,,,,,,,,,,,,,,,,,,,,,,,,,,,,,,,,,,,,,,,,,,,,,,,,,,,,,,,,,,,,,,,,,,,,,,,,,,,,,,,,,,,,,,,,,,,,,,,,,,,,,,,
,,,,,,5c0fa52c9a798f00017c6b76,62c53a05bee84d668969a540,2022-07-06_10h31.33.945,Colour_Asymmetry_Pilot,2022.1.3,Win32,74.92320372,62c50e9c1127f2cd403a315f,0,73,73,45,1,threefour,,,,,,,,,,,,,,,,,,,,,,,,,,,,,,,,,,,,,,,,,,,,,,,,,,,,,,,,,,,,,,,,,,,,,,,,,,,,,,,,,,,,,,,,,,,,,,,,,,,,,,,,,,,,,,,,,,,,,,,,,,,,,,,,,,,,,,,,,,,,,,,,,,,,,,,,,,,,,
,,,,,,5c0fa52c9a798f00017c6b76,62c53a05bee84d668969a540,2022-07-06_10h31.33.945,Colour_Asymmetry_Pilot,2022.1.3,Win32,74.92320372,62c50e9c1127f2cd403a315f,0,74,74,19,1,twofour,,,,,,,,,,,,,,,,,,,,,,,,,,,,,,,,,,,,,,,,,,,,,,,,,,,,,,,,,,,,,,,,,,,,,,,,,,,,,,,,,,,,,,,,,,,,,,,,,,,,,,,,,,,,,,,,,,,,,,,,,,,,,,,,,,,,,,,,,,,,,,,,,,,,,,,,,,,,,
,,,,,,5c0fa52c9a798f00017c6b76,62c53a05bee84d668969a540,2022-07-06_10h31.33.945,Colour_Asymmetry_Pilot,2022.1.3,Win32,74.92320372,62c50e9c1127f2cd403a315f,0,75,75,76,1,threeone,,,,,,,,,,,,,,,,,,,,,,,,,,,,,,,,,,,,,,,,,,,,,,,,,,,,,,,,,,,,,,,,,,,,,,,,,,,,,,,,,,,,,,,,,,,,,,,,,,,,,,,,,,,,,,,,,,,,,,,,,,,,,,,,,,,,,,,,,,,,,,,,,,,,,,,,,,,,,
,,,,,,5c0fa52c9a798f00017c6b76,62c53a05bee84d668969a540,2022-07-06_10h31.33.945,Colour_Asymmetry_Pilot,2022.1.3,Win32,74.92320372,62c50e9c1127f2cd403a315f,0,76,76,83,1,twofour,,,,,,,,,,,,,,,,,,,,,,,,,,,,,,,,,,,,,,,,,,,,,,,,,,,,,,,,,,,,,,,,,,,,,,,,,,,,,,,,,,,,,,,,,,,,,,,,,,,,,,,,,,,,,,,,,,,,,,,,,,,,,,,,,,,,,,,,,,,,,,,,,,,,,,,,,,,,,
,,,,,,5c0fa52c9a798f00017c6b76,62c53a05bee84d668969a540,2022-07-06_10h31.33.945,Colour_Asymmetry_Pilot,2022.1.3,Win32,74.92320372,62c50e9c1127f2cd403a315f,0,77,77,5,1,threefour,,,,,,,,,,,,,,,,,,,,,,,,,,,,,,,,,,,,,,,,,,,,,,,,,,,,,,,,,,,,,,,,,,,,,,,,,,,,,,,,,,,,,,,,,,,,,,,,,,,,,,,,,,,,,,,,,,,,,,,,,,,,,,,,,,,,,,,,,,,,,,,,,,,,,,,,,,,,,
,,,,,,5c0fa52c9a798f00017c6b76,62c53a05bee84d668969a540,2022-07-06_10h31.33.945,Colour_Asymmetry_Pilot,2022.1.3,Win32,74.92320372,62c50e9c1127f2cd403a315f,0,78,78,103,1,fourthree,,,,,,,,,,,,,,,,,,,,,,,,,,,,,,,,,,,,,,,,,,,,,,,,,,,,,,,,,,,,,,,,,,,,,,,,,,,,,,,,,,,,,,,,,,,,,,,,,,,,,,,,,,,,,,,,,,,,,,,,,,,,,,,,,,,,,,,,,,,,,,,,,,,,,,,,,,,,,
,,,,,,5c0fa52c9a798f00017c6b76,62c53a05bee84d668969a540,2022-07-06_10h31.33.945,Colour_Asymmetry_Pilot,2022.1.3,Win32,74.92320372,62c50e9c1127f2cd403a315f,0,79,79,160,1,onetwo,,,,,,,,,,,,,,,,,,,,,,,,,,,,,,,,,,,,,,,,,,,,,,,,,,,,,,,,,,,,,,,,,,,,,,,,,,,,,,,,,,,,,,,,,,,,,,,,,,,,,,,,,,,,,,,,,,,,,,,,,,,,,,,,,,,,,,,,,,,,,,,,,,,,,,,,,,,,,
,,,,,,5c0fa52c9a798f00017c6b76,62c53a05bee84d668969a540,2022-07-06_10h31.33.945,Colour_Asymmetry_Pilot,2022.1.3,Win32,74.92320372,62c50e9c1127f2cd403a315f,0,80,80,119,1,fourthree,,,,,,,,,,,,,,,,,,,,,,,,,,,,,,,,,,,,,,,,,,,,,,,,,,,,,,,,,,,,,,,,,,,,,,,,,,,,,,,,,,,,,,,,,,,,,,,,,,,,,,,,,,,,,,,,,,,,,,,,,,,,,,,,,,,,,,,,,,,,,,,,,,,,,,,,,,,,,
,,,,,,5c0fa52c9a798f00017c6b76,62c53a05bee84d668969a540,2022-07-06_10h31.33.945,Colour_Asymmetry_Pilot,2022.1.3,Win32,74.92320372,62c50e9c1127f2cd403a315f,0,81,81,125,1,threefour,,,,,,,,,,,,,,,,,,,,,,,,,,,,,,,,,,,,,,,,,,,,,,,,,,,,,,,,,,,,,,,,,,,,,,,,,,,,,,,,,,,,,,,,,,,,,,,,,,,,,,,,,,,,,,,,,,,,,,,,,,,,,,,,,,,,,,,,,,,,,,,,,,,,,,,,,,,,,
,,,,,,5c0fa52c9a798f00017c6b76,62c53a05bee84d668969a540,2022-07-06_10h31.33.945,Colour_Asymmetry_Pilot,2022.1.3,Win32,74.92320372,62c50e9c1127f2cd403a315f,0,82,82,95,1,fourthree,,,,,,,,,,,,,,,,,,,,,,,,,,,,,,,,,,,,,,,,,,,,,,,,,,,,,,,,,,,,,,,,,,,,,,,,,,,,,,,,,,,,,,,,,,,,,,,,,,,,,,,,,,,,,,,,,,,,,,,,,,,,,,,,,,,,,,,,,,,,,,,,,,,,,,,,,,,,,
,,,,,,5c0fa52c9a798f00017c6b76,62c53a05bee84d668969a540,2022-07-06_10h31.33.945,Colour_Asymmetry_Pilot,2022.1.3,Win32,74.92320372,62c50e9c1127f2cd403a315f,0,83,83,89,1,onethree,,,,,,,,,,,,,,,,,,,,,,,,,,,,,,,,,,,,,,,,,,,,,,,,,,,,,,,,,,,,,,,,,,,,,,,,,,,,,,,,,,,,,,,,,,,,,,,,,,,,,,,,,,,,,,,,,,,,,,,,,,,,,,,,,,,,,,,,,,,,,,,,,,,,,,,,,,,,,
,,,,,,5c0fa52c9a798f00017c6b76,62c53a05bee84d668969a540,2022-07-06_10h31.33.945,Colour_Asymmetry_Pilot,2022.1.3,Win32,74.92320372,62c50e9c1127f2cd403a315f,0,84,84,149,1,threefour,,,,,,,,,,,,,,,,,,,,,,,,,,,,,,,,,,,,,,,,,,,,,,,,,,,,,,,,,,,,,,,,,,,,,,,,,,,,,,,,,,,,,,,,,,,,,,,,,,,,,,,,,,,,,,,,,,,,,,,,,,,,,,,,,,,,,,,,,,,,,,,,,,,,,,,,,,,,,
,,,,,,5c0fa52c9a798f00017c6b76,62c53a05bee84d668969a540,2022-07-06_10h31.33.945,Colour_Asymmetry_Pilot,2022.1.3,Win32,74.92320372,62c50e9c1127f2cd403a315f,0,85,85,154,1,twoone,,,,,,,,,,,,,,,,,,,,,,,,,,,,,,,,,,,,,,,,,,,,,,,,,,,,,,,,,,,,,,,,,,,,,,,,,,,,,,,,,,,,,,,,,,,,,,,,,,,,,,,,,,,,,,,,,,,,,,,,,,,,,,,,,,,,,,,,,,,,,,,,,,,,,,,,,,,,,
,,,,,,5c0fa52c9a798f00017c6b76,62c53a05bee84d668969a540,2022-07-06_10h31.33.945,Colour_Asymmetry_Pilot,2022.1.3,Win32,74.92320372,62c50e9c1127f2cd403a315f,0,86,86,105,1,onethree,,,,,,,,,,,,,,,,,,,,,,,,,,,,,,,,,,,,,,,,,,,,,,,,,,,,,,,,,,,,,,,,,,,,,,,,,,,,,,,,,,,,,,,,,,,,,,,,,,,,,,,,,,,,,,,,,,,,,,,,,,,,,,,,,,,,,,,,,,,,,,,,,,,,,,,,,,,,,
,,,,,,5c0fa52c9a798f00017c6b76,62c53a05bee84d668969a540,2022-07-06_10h31.33.945,Colour_Asymmetry_Pilot,2022.1.3,Win32,74.92320372,62c50e9c1127f2cd403a315f,0,87,87,152,1,onetwo,,,,,,,,,,,,,,,,,,,,,,,,,,,,,,,,,,,,,,,,,,,,,,,,,,,,,,,,,,,,,,,,,,,,,,,,,,,,,,,,,,,,,,,,,,,,,,,,,,,,,,,,,,,,,,,,,,,,,,,,,,,,,,,,,,,,,,,,,,,,,,,,,,,,,,,,,,,,,
,,,,,,5c0fa52c9a798f00017c6b76,62c53a05bee84d668969a540,2022-07-06_10h31.33.945,Colour_Asymmetry_Pilot,2022.1.3,Win32,74.92320372,62c50e9c1127f2cd403a315f,0,88,88,133,1,threefour,,,,,,,,,,,,,,,,,,,,,,,,,,,,,,,,,,,,,,,,,,,,,,,,,,,,,,,,,,,,,,,,,,,,,,,,,,,,,,,,,,,,,,,,,,,,,,,,,,,,,,,,,,,,,,,,,,,,,,,,,,,,,,,,,,,,,,,,,,,,,,,,,,,,,,,,,,,,,
,,,,,,5c0fa52c9a798f00017c6b76,62c53a05bee84d668969a540,2022-07-06_10h31.33.945,Colour_Asymmetry_Pilot,2022.1.3,Win32,74.92320372,62c50e9c1127f2cd403a315f,0,89,89,93,1,threefour,,,,,,,,,,,,,,,,,,,,,,,,,,,,,,,,,,,,,,,,,,,,,,,,,,,,,,,,,,,,,,,,,,,,,,,,,,,,,,,,,,,,,,,,,,,,,,,,,,,,,,,,,,,,,,,,,,,,,,,,,,,,,,,,,,,,,,,,,,,,,,,,,,,,,,,,,,,,,
,,,,,,5c0fa52c9a798f00017c6b76,62c53a05bee84d668969a540,2022-07-06_10h31.33.945,Colour_Asymmetry_Pilot,2022.1.3,Win32,74.92320372,62c50e9c1127f2cd403a315f,0,90,90,134,1,fourtwo,,,,,,,,,,,,,,,,,,,,,,,,,,,,,,,,,,,,,,,,,,,,,,,,,,,,,,,,,,,,,,,,,,,,,,,,,,,,,,,,,,,,,,,,,,,,,,,,,,,,,,,,,,,,,,,,,,,,,,,,,,,,,,,,,,,,,,,,,,,,,,,,,,,,,,,,,,,,,
,,,,,,5c0fa52c9a798f00017c6b76,62c53a05bee84d668969a540,2022-07-06_10h31.33.945,Colour_Asymmetry_Pilot,2022.1.3,Win32,74.92320372,62c50e9c1127f2cd403a315f,0,91,91,38,1,fourtwo,,,,,,,,,,,,,,,,,,,,,,,,,,,,,,,,,,,,,,,,,,,,,,,,,,,,,,,,,,,,,,,,,,,,,,,,,,,,,,,,,,,,,,,,,,,,,,,,,,,,,,,,,,,,,,,,,,,,,,,,,,,,,,,,,,,,,,,,,,,,,,,,,,,,,,,,,,,,,
,,,,,,5c0fa52c9a798f00017c6b76,62c53a05bee84d668969a540,2022-07-06_10h31.33.945,Colour_Asymmetry_Pilot,2022.1.3,Win32,74.92320372,62c50e9c1127f2cd403a315f,0,92,92,49,1,onethree,,,,,,,,,,,,,,,,,,,,,,,,,,,,,,,,,,,,,,,,,,,,,,,,,,,,,,,,,,,,,,,,,,,,,,,,,,,,,,,,,,,,,,,,,,,,,,,,,,,,,,,,,,,,,,,,,,,,,,,,,,,,,,,,,,,,,,,,,,,,,,,,,,,,,,,,,,,,,
,,,,,,5c0fa52c9a798f00017c6b76,62c53a05bee84d668969a540,2022-07-06_10h31.33.945,Colour_Asymmetry_Pilot,2022.1.3,Win32,74.92320372,62c50e9c1127f2cd403a315f,0,93,93,98,1,twoone,,,,,,,,,,,,,,,,,,,,,,,,,,,,,,,,,,,,,,,,,,,,,,,,,,,,,,,,,,,,,,,,,,,,,,,,,,,,,,,,,,,,,,,,,,,,,,,,,,,,,,,,,,,,,,,,,,,,,,,,,,,,,,,,,,,,,,,,,,,,,,,,,,,,,,,,,,,,,
,,,,,,5c0fa52c9a798f00017c6b76,62c53a05bee84d668969a540,2022-07-06_10h31.33.945,Colour_Asymmetry_Pilot,2022.1.3,Win32,74.92320372,62c50e9c1127f2cd403a315f,0,94,94,31,1,fourthree,,,,,,,,,,,,,,,,,,,,,,,,,,,,,,,,,,,,,,,,,,,,,,,,,,,,,,,,,,,,,,,,,,,,,,,,,,,,,,,,,,,,,,,,,,,,,,,,,,,,,,,,,,,,,,,,,,,,,,,,,,,,,,,,,,,,,,,,,,,,,,,,,,,,,,,,,,,,,
,,,,,,5c0fa52c9a798f00017c6b76,62c53a05bee84d668969a540,2022-07-06_10h31.33.945,Colour_Asymmetry_Pilot,2022.1.3,Win32,74.92320372,62c50e9c1127f2cd403a315f,0,95,95,126,1,fourtwo,,,,,,,,,,,,,,,,,,,,,,,,,,,,,,,,,,,,,,,,,,,,,,,,,,,,,,,,,,,,,,,,,,,,,,,,,,,,,,,,,,,,,,,,,,,,,,,,,,,,,,,,,,,,,,,,,,,,,,,,,,,,,,,,,,,,,,,,,,,,,,,,,,,,,,,,,,,,,
,,,,,,5c0fa52c9a798f00017c6b76,62c53a05bee84d668969a540,2022-07-06_10h31.33.945,Colour_Asymmetry_Pilot,2022.1.3,Win32,74.92320372,62c50e9c1127f2cd403a315f,0,96,96,139,1,twofour,,,,,,,,,,,,,,,,,,,,,,,,,,,,,,,,,,,,,,,,,,,,,,,,,,,,,,,,,,,,,,,,,,,,,,,,,,,,,,,,,,,,,,,,,,,,,,,,,,,,,,,,,,,,,,,,,,,,,,,,,,,,,,,,,,,,,,,,,,,,,,,,,,,,,,,,,,,,,
,,,,,,5c0fa52c9a798f00017c6b76,62c53a05bee84d668969a540,2022-07-06_10h31.33.945,Colour_Asymmetry_Pilot,2022.1.3,Win32,74.92320372,62c50e9c1127f2cd403a315f,0,97,97,10,1,twoone,,,,,,,,,,,,,,,,,,,,,,,,,,,,,,,,,,,,,,,,,,,,,,,,,,,,,,,,,,,,,,,,,,,,,,,,,,,,,,,,,,,,,,,,,,,,,,,,,,,,,,,,,,,,,,,,,,,,,,,,,,,,,,,,,,,,,,,,,,,,,,,,,,,,,,,,,,,,,
,,,,,,5c0fa52c9a798f00017c6b76,62c53a05bee84d668969a540,2022-07-06_10h31.33.945,Colour_Asymmetry_Pilot,2022.1.3,Win32,74.92320372,62c50e9c1127f2cd403a315f,0,98,98,148,1,threeone,,,,,,,,,,,,,,,,,,,,,,,,,,,,,,,,,,,,,,,,,,,,,,,,,,,,,,,,,,,,,,,,,,,,,,,,,,,,,,,,,,,,,,,,,,,,,,,,,,,,,,,,,,,,,,,,,,,,,,,,,,,,,,,,,,,,,,,,,,,,,,,,,,,,,,,,,,,,,
,,,,,,5c0fa52c9a798f00017c6b76,62c53a05bee84d668969a540,2022-07-06_10h31.33.945,Colour_Asymmetry_Pilot,2022.1.3,Win32,74.92320372,62c50e9c1127f2cd403a315f,0,99,99,115,1,twofour,,,,,,,,,,,,,,,,,,,,,,,,,,,,,,,,,,,,,,,,,,,,,,,,,,,,,,,,,,,,,,,,,,,,,,,,,,,,,,,,,,,,,,,,,,,,,,,,,,,,,,,,,,,,,,,,,,,,,,,,,,,,,,,,,,,,,,,,,,,,,,,,,,,,,,,,,,,,,
,,,,,,5c0fa52c9a798f00017c6b76,62c53a05bee84d668969a540,2022-07-06_10h31.33.945,Colour_Asymmetry_Pilot,2022.1.3,Win32,74.92320372,62c50e9c1127f2cd403a315f,0,100,100,84,1,threeone,,,,,,,,,,,,,,,,,,,,,,,,,,,,,,,,,,,,,,,,,,,,,,,,,,,,,,,,,,,,,,,,,,,,,,,,,,,,,,,,,,,,,,,,,,,,,,,,,,,,,,,,,,,,,,,,,,,,,,,,,,,,,,,,,,,,,,,,,,,,,,,,,,,,,,,,,,,,,
,,,,,,5c0fa52c9a798f00017c6b76,62c53a05bee84d668969a540,2022-07-06_10h31.33.945,Colour_Asymmetry_Pilot,2022.1.3,Win32,74.92320372,62c50e9c1127f2cd403a315f,0,101,101,15,1,fourthree,,,,,,,,,,,,,,,,,,,,,,,,,,,,,,,,,,,,,,,,,,,,,,,,,,,,,,,,,,,,,,,,,,,,,,,,,,,,,,,,,,,,,,,,,,,,,,,,,,,,,,,,,,,,,,,,,,,,,,,,,,,,,,,,,,,,,,,,,,,,,,,,,,,,,,,,,,,,,
,,,,,,5c0fa52c9a798f00017c6b76,62c53a05bee84d668969a540,2022-07-06_10h31.33.945,Colour_Asymmetry_Pilot,2022.1.3,Win32,74.92320372,62c50e9c1127f2cd403a315f,0,102,102,18,1,twoone,,,,,,,,,,,,,,,,,,,,,,,,,,,,,,,,,,,,,,,,,,,,,,,,,,,,,,,,,,,,,,,,,,,,,,,,,,,,,,,,,,,,,,,,,,,,,,,,,,,,,,,,,,,,,,,,,,,,,,,,,,,,,,,,,,,,,,,,,,,,,,,,,,,,,,,,,,,,,
,,,,,,5c0fa52c9a798f00017c6b76,62c53a05bee84d668969a540,2022-07-06_10h31.33.945,Colour_Asymmetry_Pilot,2022.1.3,Win32,74.92320372,62c50e9c1127f2cd403a315f,0,103,103,80,1,onetwo,,,,,,,,,,,,,,,,,,,,,,,,,,,,,,,,,,,,,,,,,,,,,,,,,,,,,,,,,,,,,,,,,,,,,,,,,,,,,,,,,,,,,,,,,,,,,,,,,,,,,,,,,,,,,,,,,,,,,,,,,,,,,,,,,,,,,,,,,,,,,,,,,,,,,,,,,,,,,
,,,,,,5c0fa52c9a798f00017c6b76,62c53a05bee84d668969a540,2022-07-06_10h31.33.945,Colour_Asymmetry_Pilot,2022.1.3,Win32,74.92320372,62c50e9c1127f2cd403a315f,0,104,104,68,1,threeone,,,,,,,,,,,,,,,,,,,,,,,,,,,,,,,,,,,,,,,,,,,,,,,,,,,,,,,,,,,,,,,,,,,,,,,,,,,,,,,,,,,,,,,,,,,,,,,,,,,,,,,,,,,,,,,,,,,,,,,,,,,,,,,,,,,,,,,,,,,,,,,,,,,,,,,,,,,,,
,,,,,,5c0fa52c9a798f00017c6b76,62c53a05bee84d668969a540,2022-07-06_10h31.33.945,Colour_Asymmetry_Pilot,2022.1.3,Win32,74.92320372,62c50e9c1127f2cd403a315f,0,105,105,74,1,twoone,,,,,,,,,,,,,,,,,,,,,,,,,,,,,,,,,,,,,,,,,,,,,,,,,,,,,,,,,,,,,,,,,,,,,,,,,,,,,,,,,,,,,,,,,,,,,,,,,,,,,,,,,,,,,,,,,,,,,,,,,,,,,,,,,,,,,,,,,,,,,,,,,,,,,,,,,,,,,
,,,,,,5c0fa52c9a798f00017c6b76,62c53a05bee84d668969a540,2022-07-06_10h31.33.945,Colour_Asymmetry_Pilot,2022.1.3,Win32,74.92320372,62c50e9c1127f2cd403a315f,0,106,106,142,1,fourtwo,,,,,,,,,,,,,,,,,,,,,,,,,,,,,,,,,,,,,,,,,,,,,,,,,,,,,,,,,,,,,,,,,,,,,,,,,,,,,,,,,,,,,,,,,,,,,,,,,,,,,,,,,,,,,,,,,,,,,,,,,,,,,,,,,,,,,,,,,,,,,,,,,,,,,,,,,,,,,
,,,,,,5c0fa52c9a798f00017c6b76,62c53a05bee84d668969a540,2022-07-06_10h31.33.945,Colour_Asymmetry_Pilot,2022.1.3,Win32,74.92320372,62c50e9c1127f2cd403a315f,0,107,107,108,1,threeone,,,,,,,,,,,,,,,,,,,,,,,,,,,,,,,,,,,,,,,,,,,,,,,,,,,,,,,,,,,,,,,,,,,,,,,,,,,,,,,,,,,,,,,,,,,,,,,,,,,,,,,,,,,,,,,,,,,,,,,,,,,,,,,,,,,,,,,,,,,,,,,,,,,,,,,,,,,,,
,,,,,,5c0fa52c9a798f00017c6b76,62c53a05bee84d668969a540,2022-07-06_10h31.33.945,Colour_Asymmetry_Pilot,2022.1.3,Win32,74.92320372,62c50e9c1127f2cd403a315f,0,108,108,3,1,twofour,,,,,,,,,,,,,,,,,,,,,,,,,,,,,,,,,,,,,,,,,,,,,,,,,,,,,,,,,,,,,,,,,,,,,,,,,,,,,,,,,,,,,,,,,,,,,,,,,,,,,,,,,,,,,,,,,,,,,,,,,,,,,,,,,,,,,,,,,,,,,,,,,,,,,,,,,,,,,
,,,,,,5c0fa52c9a798f00017c6b76,62c53a05bee84d668969a540,2022-07-06_10h31.33.945,Colour_Asymmetry_Pilot,2022.1.3,Win32,74.92320372,62c50e9c1127f2cd403a315f,0,109,109,58,1,twoone,,,,,,,,,,,,,,,,,,,,,,,,,,,,,,,,,,,,,,,,,,,,,,,,,,,,,,,,,,,,,,,,,,,,,,,,,,,,,,,,,,,,,,,,,,,,,,,,,,,,,,,,,,,,,,,,,,,,,,,,,,,,,,,,,,,,,,,,,,,,,,,,,,,,,,,,,,,,,
,,,,,,5c0fa52c9a798f00017c6b76,62c53a05bee84d668969a540,2022-07-06_10h31.33.945,Colour_Asymmetry_Pilot,2022.1.3,Win32,74.92320372,62c50e9c1127f2cd403a315f,0,110,110,118,1,fourtwo,,,,,,,,,,,,,,,,,,,,,,,,,,,,,,,,,,,,,,,,,,,,,,,,,,,,,,,,,,,,,,,,,,,,,,,,,,,,,,,,,,,,,,,,,,,,,,,,,,,,,,,,,,,,,,,,,,,,,,,,,,,,,,,,,,,,,,,,,,,,,,,,,,,,,,,,,,,,,
,,,,,,5c0fa52c9a798f00017c6b76,62c53a05bee84d668969a540,2022-07-06_10h31.33.945,Colour_Asymmetry_Pilot,2022.1.3,Win32,74.92320372,62c50e9c1127f2cd403a315f,0,111,111,47,1,fourthree,,,,,,,,,,,,,,,,,,,,,,,,,,,,,,,,,,,,,,,,,,,,,,,,,,,,,,,,,,,,,,,,,,,,,,,,,,,,,,,,,,,,,,,,,,,,,,,,,,,,,,,,,,,,,,,,,,,,,,,,,,,,,,,,,,,,,,,,,,,,,,,,,,,,,,,,,,,,,
,,,,,,5c0fa52c9a798f00017c6b76,62c53a05bee84d668969a540,2022-07-06_10h31.33.945,Colour_Asymmetry_Pilot,2022.1.3,Win32,74.92320372,62c50e9c1127f2cd403a315f,0,112,112,92,1,threeone,,,,,,,,,,,,,,,,,,,,,,,,,,,,,,,,,,,,,,,,,,,,,,,,,,,,,,,,,,,,,,,,,,,,,,,,,,,,,,,,,,,,,,,,,,,,,,,,,,,,,,,,,,,,,,,,,,,,,,,,,,,,,,,,,,,,,,,,,,,,,,,,,,,,,,,,,,,,,
,,,,,,5c0fa52c9a798f00017c6b76,62c53a05bee84d668969a540,2022-07-06_10h31.33.945,Colour_Asymmetry_Pilot,2022.1.3,Win32,74.92320372,62c50e9c1127f2cd403a315f,0,113,113,99,1,twofour,,,,,,,,,,,,,,,,,,,,,,,,,,,,,,,,,,,,,,,,,,,,,,,,,,,,,,,,,,,,,,,,,,,,,,,,,,,,,,,,,,,,,,,,,,,,,,,,,,,,,,,,,,,,,,,,,,,,,,,,,,,,,,,,,,,,,,,,,,,,,,,,,,,,,,,,,,,,,
,,,,,,5c0fa52c9a798f00017c6b76,62c53a05bee84d668969a540,2022-07-06_10h31.33.945,Colour_Asymmetry_Pilot,2022.1.3,Win32,74.92320372,62c50e9c1127f2cd403a315f,0,114,114,78,1,fourtwo,,,,,,,,,,,,,,,,,,,,,,,,,,,,,,,,,,,,,,,,,,,,,,,,,,,,,,,,,,,,,,,,,,,,,,,,,,,,,,,,,,,,,,,,,,,,,,,,,,,,,,,,,,,,,,,,,,,,,,,,,,,,,,,,,,,,,,,,,,,,,,,,,,,,,,,,,,,,,
,,,,,,5c0fa52c9a798f00017c6b76,62c53a05bee84d668969a540,2022-07-06_10h31.33.945,Colour_Asymmetry_Pilot,2022.1.3,Win32,74.92320372,62c50e9c1127f2cd403a315f,0,115,115,66,1,twoone,,,,,,,,,,,,,,,,,,,,,,,,,,,,,,,,,,,,,,,,,,,,,,,,,,,,,,,,,,,,,,,,,,,,,,,,,,,,,,,,,,,,,,,,,,,,,,,,,,,,,,,,,,,,,,,,,,,,,,,,,,,,,,,,,,,,,,,,,,,,,,,,,,,,,,,,,,,,,
,,,,,,5c0fa52c9a798f00017c6b76,62c53a05bee84d668969a540,2022-07-06_10h31.33.945,Colour_Asymmetry_Pilot,2022.1.3,Win32,74.92320372,62c50e9c1127f2cd403a315f,0,116,116,33,1,onethree,,,,,,,,,,,,,,,,,,,,,,,,,,,,,,,,,,,,,,,,,,,,,,,,,,,,,,,,,,,,,,,,,,,,,,,,,,,,,,,,,,,,,,,,,,,,,,,,,,,,,,,,,,,,,,,,,,,,,,,,,,,,,,,,,,,,,,,,,,,,,,,,,,,,,,,,,,,,,
,,,,,,5c0fa52c9a798f00017c6b76,62c53a05bee84d668969a540,2022-07-06_10h31.33.945,Colour_Asymmetry_Pilot,2022.1.3,Win32,74.92320372,62c50e9c1127f2cd403a315f,0,117,117,39,1,fourthree,,,,,,,,,,,,,,,,,,,,,,,,,,,,,,,,,,,,,,,,,,,,,,,,,,,,,,,,,,,,,,,,,,,,,,,,,,,,,,,,,,,,,,,,,,,,,,,,,,,,,,,,,,,,,,,,,,,,,,,,,,,,,,,,,,,,,,,,,,,,,,,,,,,,,,,,,,,,,
,,,,,,5c0fa52c9a798f00017c6b76,62c53a05bee84d668969a540,2022-07-06_10h31.33.945,Colour_Asymmetry_Pilot,2022.1.3,Win32,74.92320372,62c50e9c1127f2cd403a315f,0,118,118,150,1,fourtwo,,,,,,,,,,,,,,,,,,,,,,,,,,,,,,,,,,,,,,,,,,,,,,,,,,,,,,,,,,,,,,,,,,,,,,,,,,,,,,,,,,,,,,,,,,,,,,,,,,,,,,,,,,,,,,,,,,,,,,,,,,,,,,,,,,,,,,,,,,,,,,,,,,,,,,,,,,,,,
,,,,,,5c0fa52c9a798f00017c6b76,62c53a05bee84d668969a540,2022-07-06_10h31.33.945,Colour_Asymmetry_Pilot,2022.1.3,Win32,74.92320372,62c50e9c1127f2cd403a315f,0,119,119,131,1,twofour,,,,,,,,,,,,,,,,,,,,,,,,,,,,,,,,,,,,,,,,,,,,,,,,,,,,,,,,,,,,,,,,,,,,,,,,,,,,,,,,,,,,,,,,,,,,,,,,,,,,,,,,,,,,,,,,,,,,,,,,,,,,,,,,,,,,,,,,,,,,,,,,,,,,,,,,,,,,,
,,,,,,5c0fa52c9a798f00017c6b76,62c53a05bee84d668969a540,2022-07-06_10h31.33.945,Colour_Asymmetry_Pilot,2022.1.3,Win32,74.92320372,62c50e9c1127f2cd403a315f,0,120,120,158,1,fourtwo,,,,,,,,,,,,,,,,,,,,,,,,,,,,,,,,,,,,,,,,,,,,,,,,,,,,,,,,,,,,,,,,,,,,,,,,,,,,,,,,,,,,,,,,,,,,,,,,,,,,,,,,,,,,,,,,,,,,,,,,,,,,,,,,,,,,,,,,,,,,,,,,,,,,,,,,,,,,,
,,,,,,5c0fa52c9a798f00017c6b76,62c53a05bee84d668969a540,2022-07-06_10h31.33.945,Colour_Asymmetry_Pilot,2022.1.3,Win32,74.92320372,62c50e9c1127f2cd403a315f,0,121,121,54,1,fourtwo,,,,,,,,,,,,,,,,,,,,,,,,,,,,,,,,,,,,,,,,,,,,,,,,,,,,,,,,,,,,,,,,,,,,,,,,,,,,,,,,,,,,,,,,,,,,,,,,,,,,,,,,,,,,,,,,,,,,,,,,,,,,,,,,,,,,,,,,,,,,,,,,,,,,,,,,,,,,,
,,,,,,5c0fa52c9a798f00017c6b76,62c53a05bee84d668969a540,2022-07-06_10h31.33.945,Colour_Asymmetry_Pilot,2022.1.3,Win32,74.92320372,62c50e9c1127f2cd403a315f,0,122,122,121,1,onethree,,,,,,,,,,,,,,,,,,,,,,,,,,,,,,,,,,,,,,,,,,,,,,,,,,,,,,,,,,,,,,,,,,,,,,,,,,,,,,,,,,,,,,,,,,,,,,,,,,,,,,,,,,,,,,,,,,,,,,,,,,,,,,,,,,,,,,,,,,,,,,,,,,,,,,,,,,,,,
,,,,,,5c0fa52c9a798f00017c6b76,62c53a05bee84d668969a540,2022-07-06_10h31.33.945,Colour_Asymmetry_Pilot,2022.1.3,Win32,74.92320372,62c50e9c1127f2cd403a315f,0,123,123,37,1,threefour,,,,,,,,,,,,,,,,,,,,,,,,,,,,,,,,,,,,,,,,,,,,,,,,,,,,,,,,,,,,,,,,,,,,,,,,,,,,,,,,,,,,,,,,,,,,,,,,,,,,,,,,,,,,,,,,,,,,,,,,,,,,,,,,,,,,,,,,,,,,,,,,,,,,,,,,,,,,,
,,,,,,5c0fa52c9a798f00017c6b76,62c53a05bee84d668969a540,2022-07-06_10h31.33.945,Colour_Asymmetry_Pilot,2022.1.3,Win32,74.92320372,62c50e9c1127f2cd403a315f,0,124,124,81,1,onethree,,,,,,,,,,,,,,,,,,,,,,,,,,,,,,,,,,,,,,,,,,,,,,,,,,,,,,,,,,,,,,,,,,,,,,,,,,,,,,,,,,,,,,,,,,,,,,,,,,,,,,,,,,,,,,,,,,,,,,,,,,,,,,,,,,,,,,,,,,,,,,,,,,,,,,,,,,,,,
,,,,,,5c0fa52c9a798f00017c6b76,62c53a05bee84d668969a540,2022-07-06_10h31.33.945,Colour_Asymmetry_Pilot,2022.1.3,Win32,74.92320372,62c50e9c1127f2cd403a315f,0,125,125,140,1,threeone,,,,,,,,,,,,,,,,,,,,,,,,,,,,,,,,,,,,,,,,,,,,,,,,,,,,,,,,,,,,,,,,,,,,,,,,,,,,,,,,,,,,,,,,,,,,,,,,,,,,,,,,,,,,,,,,,,,,,,,,,,,,,,,,,,,,,,,,,,,,,,,,,,,,,,,,,,,,,
,,,,,,5c0fa52c9a798f00017c6b76,62c53a05bee84d668969a540,2022-07-06_10h31.33.945,Colour_Asymmetry_Pilot,2022.1.3,Win32,74.92320372,62c50e9c1127f2cd403a315f,0,126,126,17,1,onethree,,,,,,,,,,,,,,,,,,,,,,,,,,,,,,,,,,,,,,,,,,,,,,,,,,,,,,,,,,,,,,,,,,,,,,,,,,,,,,,,,,,,,,,,,,,,,,,,,,,,,,,,,,,,,,,,,,,,,,,,,,,,,,,,,,,,,,,,,,,,,,,,,,,,,,,,,,,,,
,,,,,,5c0fa52c9a798f00017c6b76,62c53a05bee84d668969a540,2022-07-06_10h31.33.945,Colour_Asymmetry_Pilot,2022.1.3,Win32,74.92320372,62c50e9c1127f2cd403a315f,0,127,127,137,1,onethree,,,,,,,,,,,,,,,,,,,,,,,,,,,,,,,,,,,,,,,,,,,,,,,,,,,,,,,,,,,,,,,,,,,,,,,,,,,,,,,,,,,,,,,,,,,,,,,,,,,,,,,,,,,,,,,,,,,,,,,,,,,,,,,,,,,,,,,,,,,,,,,,,,,,,,,,,,,,,
,,,,,,5c0fa52c9a798f00017c6b76,62c53a05bee84d668969a540,2022-07-06_10h31.33.945,Colour_Asymmetry_Pilot,2022.1.3,Win32,74.92320372,62c50e9c1127f2cd403a315f,0,128,128,40,1,onetwo,,,,,,,,,,,,,,,,,,,,,,,,,,,,,,,,,,,,,,,,,,,,,,,,,,,,,,,,,,,,,,,,,,,,,,,,,,,,,,,,,,,,,,,,,,,,,,,,,,,,,,,,,,,,,,,,,,,,,,,,,,,,,,,,,,,,,,,,,,,,,,,,,,,,,,,,,,,,,
,,,,,,5c0fa52c9a798f00017c6b76,62c53a05bee84d668969a540,2022-07-06_10h31.33.945,Colour_Asymmetry_Pilot,2022.1.3,Win32,74.92320372,62c50e9c1127f2cd403a315f,0,129,129,88,1,onetwo,,,,,,,,,,,,,,,,,,,,,,,,,,,,,,,,,,,,,,,,,,,,,,,,,,,,,,,,,,,,,,,,,,,,,,,,,,,,,,,,,,,,,,,,,,,,,,,,,,,,,,,,,,,,,,,,,,,,,,,,,,,,,,,,,,,,,,,,,,,,,,,,,,,,,,,,,,,,,
,,,,,,5c0fa52c9a798f00017c6b76,62c53a05bee84d668969a540,2022-07-06_10h31.33.945,Colour_Asymmetry_Pilot,2022.1.3,Win32,74.92320372,62c50e9c1127f2cd403a315f,0,130,130,90,1,twoone,,,,,,,,,,,,,,,,,,,,,,,,,,,,,,,,,,,,,,,,,,,,,,,,,,,,,,,,,,,,,,,,,,,,,,,,,,,,,,,,,,,,,,,,,,,,,,,,,,,,,,,,,,,,,,,,,,,,,,,,,,,,,,,,,,,,,,,,,,,,,,,,,,,,,,,,,,,,,
,,,,,,5c0fa52c9a798f00017c6b76,62c53a05bee84d668969a540,2022-07-06_10h31.33.945,Colour_Asymmetry_Pilot,2022.1.3,Win32,74.92320372,62c50e9c1127f2cd403a315f,0,131,131,101,1,threefour,,,,,,,,,,,,,,,,,,,,,,,,,,,,,,,,,,,,,,,,,,,,,,,,,,,,,,,,,,,,,,,,,,,,,,,,,,,,,,,,,,,,,,,,,,,,,,,,,,,,,,,,,,,,,,,,,,,,,,,,,,,,,,,,,,,,,,,,,,,,,,,,,,,,,,,,,,,,,
,,,,,,5c0fa52c9a798f00017c6b76,62c53a05bee84d668969a540,2022-07-06_10h31.33.945,Colour_Asymmetry_Pilot,2022.1.3,Win32,74.92320372,62c50e9c1127f2cd403a315f,0,132,132,9,1,onethree,,,,,,,,,,,,,,,,,,,,,,,,,,,,,,,,,,,,,,,,,,,,,,,,,,,,,,,,,,,,,,,,,,,,,,,,,,,,,,,,,,,,,,,,,,,,,,,,,,,,,,,,,,,,,,,,,,,,,,,,,,,,,,,,,,,,,,,,,,,,,,,,,,,,,,,,,,,,,
,,,,,,5c0fa52c9a798f00017c6b76,62c53a05bee84d668969a540,2022-07-06_10h31.33.945,Colour_Asymmetry_Pilot,2022.1.3,Win32,74.92320372,62c50e9c1127f2cd403a315f,0,133,133,2,1,twoone,,,,,,,,,,,,,,,,,,,,,,,,,,,,,,,,,,,,,,,,,,,,,,,,,,,,,,,,,,,,,,,,,,,,,,,,,,,,,,,,,,,,,,,,,,,,,,,,,,,,,,,,,,,,,,,,,,,,,,,,,,,,,,,,,,,,,,,,,,,,,,,,,,,,,,,,,,,,,
,,,,,,5c0fa52c9a798f00017c6b76,62c53a05bee84d668969a540,2022-07-06_10h31.33.945,Colour_Asymmetry_Pilot,2022.1.3,Win32,74.92320372,62c50e9c1127f2cd403a315f,0,134,134,53,1,threefour,,,,,,,,,,,,,,,,,,,,,,,,,,,,,,,,,,,,,,,,,,,,,,,,,,,,,,,,,,,,,,,,,,,,,,,,,,,,,,,,,,,,,,,,,,,,,,,,,,,,,,,,,,,,,,,,,,,,,,,,,,,,,,,,,,,,,,,,,,,,,,,,,,,,,,,,,,,,,
,,,,,,5c0fa52c9a798f00017c6b76,62c53a05bee84d668969a540,2022-07-06_10h31.33.945,Colour_Asymmetry_Pilot,2022.1.3,Win32,74.92320372,62c50e9c1127f2cd403a315f,0,135,135,159,1,fourthree,,,,,,,,,,,,,,,,,,,,,,,,,,,,,,,,,,,,,,,,,,,,,,,,,,,,,,,,,,,,,,,,,,,,,,,,,,,,,,,,,,,,,,,,,,,,,,,,,,,,,,,,,,,,,,,,,,,,,,,,,,,,,,,,,,,,,,,,,,,,,,,,,,,,,,,,,,,,,
,,,,,,5c0fa52c9a798f00017c6b76,62c53a05bee84d668969a540,2022-07-06_10h31.33.945,Colour_Asymmetry_Pilot,2022.1.3,Win32,74.92320372,62c50e9c1127f2cd403a315f,0,136,136,129,1,onethree,,,,,,,,,,,,,,,,,,,,,,,,,,,,,,,,,,,,,,,,,,,,,,,,,,,,,,,,,,,,,,,,,,,,,,,,,,,,,,,,,,,,,,,,,,,,,,,,,,,,,,,,,,,,,,,,,,,,,,,,,,,,,,,,,,,,,,,,,,,,,,,,,,,,,,,,,,,,,
,,,,,,5c0fa52c9a798f00017c6b76,62c53a05bee84d668969a540,2022-07-06_10h31.33.945,Colour_Asymmetry_Pilot,2022.1.3,Win32,74.92320372,62c50e9c1127f2cd403a315f,0,137,137,60,1,threeone,,,,,,,,,,,,,,,,,,,,,,,,,,,,,,,,,,,,,,,,,,,,,,,,,,,,,,,,,,,,,,,,,,,,,,,,,,,,,,,,,,,,,,,,,,,,,,,,,,,,,,,,,,,,,,,,,,,,,,,,,,,,,,,,,,,,,,,,,,,,,,,,,,,,,,,,,,,,,
,,,,,,5c0fa52c9a798f00017c6b76,62c53a05bee84d668969a540,2022-07-06_10h31.33.945,Colour_Asymmetry_Pilot,2022.1.3,Win32,74.92320372,62c50e9c1127f2cd403a315f,0,138,138,29,1,threefour,,,,,,,,,,,,,,,,,,,,,,,,,,,,,,,,,,,,,,,,,,,,,,,,,,,,,,,,,,,,,,,,,,,,,,,,,,,,,,,,,,,,,,,,,,,,,,,,,,,,,,,,,,,,,,,,,,,,,,,,,,,,,,,,,,,,,,,,,,,,,,,,,,,,,,,,,,,,,
,,,,,,5c0fa52c9a798f00017c6b76,62c53a05bee84d668969a540,2022-07-06_10h31.33.945,Colour_Asymmetry_Pilot,2022.1.3,Win32,74.92320372,62c50e9c1127f2cd403a315f,0,139,139,82,1,twoone,,,,,,,,,,,,,,,,,,,,,,,,,,,,,,,,,,,,,,,,,,,,,,,,,,,,,,,,,,,,,,,,,,,,,,,,,,,,,,,,,,,,,,,,,,,,,,,,,,,,,,,,,,,,,,,,,,,,,,,,,,,,,,,,,,,,,,,,,,,,,,,,,,,,,,,,,,,,,
,,,,,,5c0fa52c9a798f00017c6b76,62c53a05bee84d668969a540,2022-07-06_10h31.33.945,Colour_Asymmetry_Pilot,2022.1.3,Win32,74.92320372,62c50e9c1127f2cd403a315f,0,140,140,75,1,twofour,,,,,,,,,,,,,,,,,,,,,,,,,,,,,,,,,,,,,,,,,,,,,,,,,,,,,,,,,,,,,,,,,,,,,,,,,,,,,,,,,,,,,,,,,,,,,,,,,,,,,,,,,,,,,,,,,,,,,,,,,,,,,,,,,,,,,,,,,,,,,,,,,,,,,,,,,,,,,
,,,,,,5c0fa52c9a798f00017c6b76,62c53a05bee84d668969a540,2022-07-06_10h31.33.945,Colour_Asymmetry_Pilot,2022.1.3,Win32,74.92320372,62c50e9c1127f2cd403a315f,0,141,141,70,1,fourtwo,,,,,,,,,,,,,,,,,,,,,,,,,,,,,,,,,,,,,,,,,,,,,,,,,,,,,,,,,,,,,,,,,,,,,,,,,,,,,,,,,,,,,,,,,,,,,,,,,,,,,,,,,,,,,,,,,,,,,,,,,,,,,,,,,,,,,,,,,,,,,,,,,,,,,,,,,,,,,
,,,,,,5c0fa52c9a798f00017c6b76,62c53a05bee84d668969a540,2022-07-06_10h31.33.945,Colour_Asymmetry_Pilot,2022.1.3,Win32,74.92320372,62c50e9c1127f2cd403a315f,0,142,142,94,1,fourtwo,,,,,,,,,,,,,,,,,,,,,,,,,,,,,,,,,,,,,,,,,,,,,,,,,,,,,,,,,,,,,,,,,,,,,,,,,,,,,,,,,,,,,,,,,,,,,,,,,,,,,,,,,,,,,,,,,,,,,,,,,,,,,,,,,,,,,,,,,,,,,,,,,,,,,,,,,,,,,
,,,,,,5c0fa52c9a798f00017c6b76,62c53a05bee84d668969a540,2022-07-06_10h31.33.945,Colour_Asymmetry_Pilot,2022.1.3,Win32,74.92320372,62c50e9c1127f2cd403a315f,0,143,143,67,1,twofour,,,,,,,,,,,,,,,,,,,,,,,,,,,,,,,,,,,,,,,,,,,,,,,,,,,,,,,,,,,,,,,,,,,,,,,,,,,,,,,,,,,,,,,,,,,,,,,,,,,,,,,,,,,,,,,,,,,,,,,,,,,,,,,,,,,,,,,,,,,,,,,,,,,,,,,,,,,,,
,,,,,,5c0fa52c9a798f00017c6b76,62c53a05bee84d668969a540,2022-07-06_10h31.33.945,Colour_Asymmetry_Pilot,2022.1.3,Win32,74.92320372,62c50e9c1127f2cd403a315f,0,144,144,63,1,fourthree,,,,,,,,,,,,,,,,,,,,,,,,,,,,,,,,,,,,,,,,,,,,,,,,,,,,,,,,,,,,,,,,,,,,,,,,,,,,,,,,,,,,,,,,,,,,,,,,,,,,,,,,,,,,,,,,,,,,,,,,,,,,,,,,,,,,,,,,,,,,,,,,,,,,,,,,,,,,,
,,,,,,5c0fa52c9a798f00017c6b76,62c53a05bee84d668969a540,2022-07-06_10h31.33.945,Colour_Asymmetry_Pilot,2022.1.3,Win32,74.92320372,62c50e9c1127f2cd403a315f,0,145,145,27,1,twofour,,,,,,,,,,,,,,,,,,,,,,,,,,,,,,,,,,,,,,,,,,,,,,,,,,,,,,,,,,,,,,,,,,,,,,,,,,,,,,,,,,,,,,,,,,,,,,,,,,,,,,,,,,,,,,,,,,,,,,,,,,,,,,,,,,,,,,,,,,,,,,,,,,,,,,,,,,,,,
,,,,,,5c0fa52c9a798f00017c6b76,62c53a05bee84d668969a540,2022-07-06_10h31.33.945,Colour_Asymmetry_Pilot,2022.1.3,Win32,74.92320372,62c50e9c1127f2cd403a315f,0,146,146,120,1,onetwo,,,,,,,,,,,,,,,,,,,,,,,,,,,,,,,,,,,,,,,,,,,,,,,,,,,,,,,,,,,,,,,,,,,,,,,,,,,,,,,,,,,,,,,,,,,,,,,,,,,,,,,,,,,,,,,,,,,,,,,,,,,,,,,,,,,,,,,,,,,,,,,,,,,,,,,,,,,,,
,,,,,,5c0fa52c9a798f00017c6b76,62c53a05bee84d668969a540,2022-07-06_10h31.33.945,Colour_Asymmetry_Pilot,2022.1.3,Win32,74.92320372,62c50e9c1127f2cd403a315f,0,147,147,107,1,twofour,,,,,,,,,,,,,,,,,,,,,,,,,,,,,,,,,,,,,,,,,,,,,,,,,,,,,,,,,,,,,,,,,,,,,,,,,,,,,,,,,,,,,,,,,,,,,,,,,,,,,,,,,,,,,,,,,,,,,,,,,,,,,,,,,,,,,,,,,,,,,,,,,,,,,,,,,,,,,
,,,,,,5c0fa52c9a798f00017c6b76,62c53a05bee84d668969a540,2022-07-06_10h31.33.945,Colour_Asymmetry_Pilot,2022.1.3,Win32,74.92320372,62c50e9c1127f2cd403a315f,0,148,148,110,1,fourtwo,,,,,,,,,,,,,,,,,,,,,,,,,,,,,,,,,,,,,,,,,,,,,,,,,,,,,,,,,,,,,,,,,,,,,,,,,,,,,,,,,,,,,,,,,,,,,,,,,,,,,,,,,,,,,,,,,,,,,,,,,,,,,,,,,,,,,,,,,,,,,,,,,,,,,,,,,,,,,
,,,,,,5c0fa52c9a798f00017c6b76,62c53a05bee84d668969a540,2022-07-06_10h31.33.945,Colour_Asymmetry_Pilot,2022.1.3,Win32,74.92320372,62c50e9c1127f2cd403a315f,0,149,149,8,1,onetwo,,,,,,,,,,,,,,,,,,,,,,,,,,,,,,,,,,,,,,,,,,,,,,,,,,,,,,,,,,,,,,,,,,,,,,,,,,,,,,,,,,,,,,,,,,,,,,,,,,,,,,,,,,,,,,,,,,,,,,,,,,,,,,,,,,,,,,,,,,,,,,,,,,,,,,,,,,,,,
,,,,,,5c0fa52c9a798f00017c6b76,62c53a05bee84d668969a540,2022-07-06_10h31.33.945,Colour_Asymmetry_Pilot,2022.1.3,Win32,74.92320372,62c50e9c1127f2cd403a315f,0,150,150,64,1,onetwo,,,,,,,,,,,,,,,,,,,,,,,,,,,,,,,,,,,,,,,,,,,,,,,,,,,,,,,,,,,,,,,,,,,,,,,,,,,,,,,,,,,,,,,,,,,,,,,,,,,,,,,,,,,,,,,,,,,,,,,,,,,,,,,,,,,,,,,,,,,,,,,,,,,,,,,,,,,,,
,,,,,,5c0fa52c9a798f00017c6b76,62c53a05bee84d668969a540,2022-07-06_10h31.33.945,Colour_Asymmetry_Pilot,2022.1.3,Win32,74.92320372,62c50e9c1127f2cd403a315f,0,151,151,143,1,fourthree,,,,,,,,,,,,,,,,,,,,,,,,,,,,,,,,,,,,,,,,,,,,,,,,,,,,,,,,,,,,,,,,,,,,,,,,,,,,,,,,,,,,,,,,,,,,,,,,,,,,,,,,,,,,,,,,,,,,,,,,,,,,,,,,,,,,,,,,,,,,,,,,,,,,,,,,,,,,,
,,,,,,5c0fa52c9a798f00017c6b76,62c53a05bee84d668969a540,2022-07-06_10h31.33.945,Colour_Asymmetry_Pilot,2022.1.3,Win32,74.92320372,62c50e9c1127f2cd403a315f,0,152,152,117,1,threefour,,,,,,,,,,,,,,,,,,,,,,,,,,,,,,,,,,,,,,,,,,,,,,,,,,,,,,,,,,,,,,,,,,,,,,,,,,,,,,,,,,,,,,,,,,,,,,,,,,,,,,,,,,,,,,,,,,,,,,,,,,,,,,,,,,,,,,,,,,,,,,,,,,,,,,,,,,,,,
,,,,,,5c0fa52c9a798f00017c6b76,62c53a05bee84d668969a540,2022-07-06_10h31.33.945,Colour_Asymmetry_Pilot,2022.1.3,Win32,74.92320372,62c50e9c1127f2cd403a315f,0,153,153,109,1,threefour,,,,,,,,,,,,,,,,,,,,,,,,,,,,,,,,,,,,,,,,,,,,,,,,,,,,,,,,,,,,,,,,,,,,,,,,,,,,,,,,,,,,,,,,,,,,,,,,,,,,,,,,,,,,,,,,,,,,,,,,,,,,,,,,,,,,,,,,,,,,,,,,,,,,,,,,,,,,,
,,,,,,5c0fa52c9a798f00017c6b76,62c53a05bee84d668969a540,2022-07-06_10h31.33.945,Colour_Asymmetry_Pilot,2022.1.3,Win32,74.92320372,62c50e9c1127f2cd403a315f,0,154,154,50,1,twoone,,,,,,,,,,,,,,,,,,,,,,,,,,,,,,,,,,,,,,,,,,,,,,,,,,,,,,,,,,,,,,,,,,,,,,,,,,,,,,,,,,,,,,,,,,,,,,,,,,,,,,,,,,,,,,,,,,,,,,,,,,,,,,,,,,,,,,,,,,,,,,,,,,,,,,,,,,,,,
,,,,,,5c0fa52c9a798f00017c6b76,62c53a05bee84d668969a540,2022-07-06_10h31.33.945,Colour_Asymmetry_Pilot,2022.1.3,Win32,74.92320372,62c50e9c1127f2cd403a315f,0,155,155,136,1,onetwo,,,,,,,,,,,,,,,,,,,,,,,,,,,,,,,,,,,,,,,,,,,,,,,,,,,,,,,,,,,,,,,,,,,,,,,,,,,,,,,,,,,,,,,,,,,,,,,,,,,,,,,,,,,,,,,,,,,,,,,,,,,,,,,,,,,,,,,,,,,,,,,,,,,,,,,,,,,,,
,,,,,,5c0fa52c9a798f00017c6b76,62c53a05bee84d668969a540,2022-07-06_10h31.33.945,Colour_Asymmetry_Pilot,2022.1.3,Win32,74.92320372,62c50e9c1127f2cd403a315f,0,156,156,145,1,onethree,,,,,,,,,,,,,,,,,,,,,,,,,,,,,,,,,,,,,,,,,,,,,,,,,,,,,,,,,,,,,,,,,,,,,,,,,,,,,,,,,,,,,,,,,,,,,,,,,,,,,,,,,,,,,,,,,,,,,,,,,,,,,,,,,,,,,,,,,,,,,,,,,,,,,,,,,,,,,
,,,,,,5c0fa52c9a798f00017c6b76,62c53a05bee84d668969a540,2022-07-06_10h31.33.945,Colour_Asymmetry_Pilot,2022.1.3,Win32,74.92320372,62c50e9c1127f2cd403a315f,0,157,157,51,1,twofour,,,,,,,,,,,,,,,,,,,,,,,,,,,,,,,,,,,,,,,,,,,,,,,,,,,,,,,,,,,,,,,,,,,,,,,,,,,,,,,,,,,,,,,,,,,,,,,,,,,,,,,,,,,,,,,,,,,,,,,,,,,,,,,,,,,,,,,,,,,,,,,,,,,,,,,,,,,,,
,,,,,,5c0fa52c9a798f00017c6b76,62c53a05bee84d668969a540,2022-07-06_10h31.33.945,Colour_Asymmetry_Pilot,2022.1.3,Win32,74.92320372,62c50e9c1127f2cd403a315f,0,158,158,124,1,threeone,,,,,,,,,,,,,,,,,,,,,,,,,,,,,,,,,,,,,,,,,,,,,,,,,,,,,,,,,,,,,,,,,,,,,,,,,,,,,,,,,,,,,,,,,,,,,,,,,,,,,,,,,,,,,,,,,,,,,,,,,,,,,,,,,,,,,,,,,,,,,,,,,,,,,,,,,,,,,
,,,,,,5c0fa52c9a798f00017c6b76,62c53a05bee84d668969a540,2022-07-06_10h31.33.945,Colour_Asymmetry_Pilot,2022.1.3,Win32,74.92320372,62c50e9c1127f2cd403a315f,0,159,159,128,1,onetwo,,,,,,,,,,,,,,,,,,,,,,,,,,,,,,,,,,,,,,,,,,,,,,,,,,,,,,,,,,,,,,,,,,,,,,,,,,,,,,,,,,,,,,,,,,,,,,,,,,,,,,,,,,,,,,,,,,,,,,,,,,,,,,,,,,,,,,,,,,,,,,,,,,,,,,,,,,,,,
,,,,,,5c0fa52c9a798f00017c6b76,62c53a05bee84d668969a540,2022-07-06_10h31.33.945,Colour_Asymmetry_Pilot,2022.1.3,Win32,74.92320372,62c50e9c1127f2cd403a315f,0,160,160,87,1,fourthree,,,,,,,,,,,,,,,,,,,,,,,,,,,,,,,,,,,,,,,,,,,,,,,,,,,,,,,,,,,,,,,,,,,,,,,,,,,,,,,,,,,,,,,,,,,,,,,,,,,,,,,,,,,,,,,,,,,,,,,,,,,,,,,,,,,,,,,,,,,,,,,,,,,,,,,,,,,,,
,,,,,,5c0fa52c9a798f00017c6b76,62c53a05bee84d668969a540,2022-07-06_10h31.33.945,Colour_Asymmetry_Pilot,2022.1.3,Win32,74.92320372,62c50e9c1127f2cd403a315f,0,161,161,86,1,fourtwo,,,,,,,,,,,,,,,,,,,,,,,,,,,,,,,,,,,,,,,,,,,,,,,,,,,,,,,,,,,,,,,,,,,,,,,,,,,,,,,,,,,,,,,,,,,,,,,,,,,,,,,,,,,,,,,,,,,,,,,,,,,,,,,,,,,,,,,,,,,,,,,,,,,,,,,,,,,,,
,,,,,,5c0fa52c9a798f00017c6b76,62c53a05bee84d668969a540,2022-07-06_10h31.33.945,Colour_Asymmetry_Pilot,2022.1.3,Win32,74.92320372,62c50e9c1127f2cd403a315f,,,,,,,space,24.4992,space,39.1048,space,50.081,space,17.6282,space,13.4442,space,4.5738,"[0.7646000000000002,0.07440000000000002,0.2704]",fourtwo,"[-0.9766,-0.6472,0.07440000000000002]",-4,2.7872,-71,160,1,0,0,response7disk_5,28,2,1,0,0,rectangle_8,161,66,1,0,0,response1disk_7,6,3,5,-2,1,0,0,rectangle_4,0,0,0,0,1,,,,,,,,,,,,,,,,,,,,,,,,,,,,,,,,,,,,,,,,,,,,,,,,,,,,,,,,,,,,,,,,,,,,,,,,,,,,,,,,,,,,,,,,,,,,,,,,,,,,,,,,,,,,,
,,,,,,5c0fa52c9a798f00017c6b76,62c53a05bee84d668969a540,2022-07-06_10h31.33.945,Colour_Asymmetry_Pilot,2022.1.3,Win32,74.92320372,62c50e9c1127f2cd403a315f,,,,,,,,,,,,,,,,,,,"[-0.7412000000000001,-0.08239999999999992,-0.6864]",fourthree,"[0.7646000000000002,0.07440000000000002,0.2704]",-4,3.0271,-76,127,1,0,0,response7disk_5,13,3,1,0,0,rectangle_8,13,3,1,0,0,,,3,13,3,1,0,0,,1,0,1,0,1,,,,,,,,,,,,,,,,,,,,,,,,,,,,,,,,,,,,,,,,,,,,,,,,,,,,,,,,,,,,,,,,,,,,,,,,,,,,,,,,,,,,,,,,,,,,,,,,,,,,,,,,,,,,,
,,,,,,5c0fa52c9a798f00017c6b76,62c53a05bee84d668969a540,2022-07-06_10h31.33.945,Colour_Asymmetry_Pilot,2022.1.3,Win32,74.92320372,62c50e9c1127f2cd403a315f,,,,,,,,,,,,,,,,,,,"[-0.8198,-0.5138,-0.7492000000000001]",onethree,"[0.40379999999999994,0.09000000000000008,0.44300000000000006]",-4,2.9072,-66,111,1,0,0,response7disk_5,3,1,1,0,0,rectangle_8,171,70,1,0,0,response1disk_7,6,3,-5,-6,1,0,0,rectangle_4,2,0,2,0,1,,,,,,,,,,,,,,,,,,,,,,,,,,,,,,,,,,,,,,,,,,,,,,,,,,,,,,,,,,,,,,,,,,,,,,,,,,,,,,,,,,,,,,,,,,,,,,,,,,,,,,,,,,,,,
,,,,,,5c0fa52c9a798f00017c6b76,62c53a05bee84d668969a540,2022-07-06_10h31.33.945,Colour_Asymmetry_Pilot,2022.1.3,Win32,74.92320372,62c50e9c1127f2cd403a315f,,,,,,,,,,,,,,,,,,,"[-0.8982,-0.37259999999999993,0.2784]",threeone,"[0.40379999999999994,0.09000000000000008,0.44300000000000006]",-4,2.4271,-63,122,1,0,0,response7disk_5,-4,-6,1,0,0,rectangle_8,-4,-6,1,0,0,,,3,-4,-6,1,0,0,,3,0,3,0,1,,,,,,,,,,,,,,,,,,,,,,,,,,,,,,,,,,,,,,,,,,,,,,,,,,,,,,,,,,,,,,,,,,,,,,,,,,,,,,,,,,,,,,,,,,,,,,,,,,,,,,,,,,,,,
,,,,,,5c0fa52c9a798f00017c6b76,62c53a05bee84d668969a540,2022-07-06_10h31.33.945,Colour_Asymmetry_Pilot,2022.1.3,Win32,74.92320372,62c50e9c1127f2cd403a315f,,,,,,,,,,,,,,,,,,,"[0.22340000000000004,-0.9296,-0.7884]",onethree,"[-0.38039999999999996,-0.4276,-0.1452]",-3,3.0671,-165,53,1,0,0,response7disk_5,3,-2,1,0,0,rectangle_8,3,-2,1,0,0,,,3,3,-2,1,0,0,,4,0,4,0,1,,,,,,,,,,,,,,,,,,,,,,,,,,,,,,,,,,,,,,,,,,,,,,,,,,,,,,,,,,,,,,,,,,,,,,,,,,,,,,,,,,,,,,,,,,,,,,,,,,,,,,,,,,,,,
,,,,,,5c0fa52c9a798f00017c6b76,62c53a05bee84d668969a540,2022-07-06_10h31.33.945,Colour_Asymmetry_Pilot,2022.1.3,Win32,74.92320372,62c50e9c1127f2cd403a315f,,,,,,,,,,,,,,,,,,,"[-0.6942,-0.7648,-0.12959999999999994]",onethree,"[-0.45899999999999996,-0.3256,-0.9374]",-4,3.7604,-78,157,1,0,0,response7disk_5,1,1,1,0,0,rectangle_8,1,1,1,0,0,,,3,1,1,1,0,0,,5,0,5,0,1,,,,,,,,,,,,,,,,,,,,,,,,,,,,,,,,,,,,,,,,,,,,,,,,,,,,,,,,,,,,,,,,,,,,,,,,,,,,,,,,,,,,,,,,,,,,,,,,,,,,,,,,,,,,,
,,,,,,5c0fa52c9a798f00017c6b76,62c53a05bee84d668969a540,2022-07-06_10h31.33.945,Colour_Asymmetry_Pilot,2022.1.3,Win32,74.92320372,62c50e9c1127f2cd403a315f,,,,,,,,,,,,,,,,,,,"[-0.38039999999999996,-0.4276,-0.1452]",threefour,"[-0.5922000000000001,-0.7492000000000001,-0.5296000000000001]",3,5.3473,164,114,1,0,0,response1disk_5,0,5,1,0,0,rectangle_8,0,5,1,0,0,,,3,0,5,1,0,0,,6,0,6,0,1,,,,,,,,,,,,,,,,,,,,,,,,,,,,,,,,,,,,,,,,,,,,,,,,,,,,,,,,,,,,,,,,,,,,,,,,,,,,,,,,,,,,,,,,,,,,,,,,,,,,,,,,,,,,,
,,,,,,5c0fa52c9a798f00017c6b76,62c53a05bee84d668969a540,2022-07-06_10h31.33.945,Colour_Asymmetry_Pilot,2022.1.3,Win32,74.92320372,62c50e9c1127f2cd403a315f,,,,,,,,,,,,,,,,,,,,threeone,,-4,2.067,,,,,,,,,,,,,,,,,,,,,,,,,,,,,,,,space,5.9382,"[0.9763999999999999,0.30979999999999985,-0.6786]","[-0.6235999999999999,-0.6786,-0.08239999999999992]",-63,155,1,0,0,response7disk,-1,0,1,0,0,rectangle,-1,0,1,0,0,,3,0.0007,0,-1,0,1,0,0,0,0,0,143,1,62,second,,,,,,,,,,,,,,,,,,,,,,,,,,,,,,,,,,,,,,,,,,,,,,,,,,,,,,,,,,,,,,,,,,,,,,,,
,,,,,,5c0fa52c9a798f00017c6b76,62c53a05bee84d668969a540,2022-07-06_10h31.33.945,Colour_Asymmetry_Pilot,2022.1.3,Win32,74.92320372,62c50e9c1127f2cd403a315f,,,,,,,,,,,,,,,,,,,,onetwo,,-4,2.6137,,,,,,,,,,,,,,,,,,,,,,,,,,,,,,,,,,"[-0.07459999999999989,0.12139999999999995,-0.9922]","[0.18419999999999992,-0.4276,-0.404]",-59,123,1,0,0,response7disk,0,4,1,0,0,rectangle,0,4,1,0,0,,1,0.0005,0,0,4,1,0,0,0,1,1,121,1,40,second,,,,,,,,,,,,,,,,,,,,,,,,,,,,,,,,,,,,,,,,,,,,,,,,,,,,,,,,,,,,,,,,,,,,,,,,
,,,,,,5c0fa52c9a798f00017c6b76,62c53a05bee84d668969a540,2022-07-06_10h31.33.945,Colour_Asymmetry_Pilot,2022.1.3,Win32,74.92320372,62c50e9c1127f2cd403a315f,,,,,,,,,,,,,,,,,,,,onethree,,-4,1.4536,,,,,,,,,,,,,,,,,,,,,,,,,,,,,,,,,,"[0.7018,0.7802,-0.16079999999999994]","[0.22340000000000004,-0.9296,-0.7884]",-85,151,1,0,0,response7disk,-7,10,1,0,0,rectangle,-7,10,1,0,0,,2,0.0005,0,-7,10,1,0,0,0,2,2,3,1,3,first,,,,,,,,,,,,,,,,,,,,,,,,,,,,,,,,,,,,,,,,,,,,,,,,,,,,,,,,,,,,,,,,,,,,,,,,
,,,,,,5c0fa52c9a798f00017c6b76,62c53a05bee84d668969a540,2022-07-06_10h31.33.945,Colour_Asymmetry_Pilot,2022.1.3,Win32,74.92320372,62c50e9c1127f2cd403a315f,,,,,,,,,,,,,,,,,,,,twoone,,-4,2.827,,,,,,,,,,,,,,,,,,,,,,,,,,,,,,,,,,"[0.7018,0.7176,0.6155999999999999]","[-0.6706000000000001,-0.6157999999999999,-0.6786]",-65,141,1,0,0,response7disk,-8,5,1,0,0,rectangle,-8,5,1,0,0,,3,0.0004,0,-8,5,1,0,0,0,3,3,14,1,14,first,,,,,,,,,,,,,,,,,,,,,,,,,,,,,,,,,,,,,,,,,,,,,,,,,,,,,,,,,,,,,,,,,,,,,,,,
,,,,,,5c0fa52c9a798f00017c6b76,62c53a05bee84d668969a540,2022-07-06_10h31.33.945,Colour_Asymmetry_Pilot,2022.1.3,Win32,74.92320372,62c50e9c1127f2cd403a315f,,,,,,,,,,,,,,,,,,,,twofour,,-4,1.4002,,,,,,,,,,,,,,,,,,,,,,,,,,,,,,,,,,"[-0.24719999999999998,-0.0354000000000001,0.3175999999999999]","[0.34099999999999997,0.12939999999999996,-0.9766]",-71,142,1,0,0,response7disk,-5,8,1,0,0,rectangle,-5,8,1,0,0,,1,0.0005,0,-5,8,1,0,0,0,4,4,101,1,20,second,,,,,,,,,,,,,,,,,,,,,,,,,,,,,,,,,,,,,,,,,,,,,,,,,,,,,,,,,,,,,,,,,,,,,,,,
,,,,,,5c0fa52c9a798f00017c6b76,62c53a05bee84d668969a540,2022-07-06_10h31.33.945,Colour_Asymmetry_Pilot,2022.1.3,Win32,74.92320372,62c50e9c1127f2cd403a315f,,,,,,,,,,,,,,,,,,,,fourthree,,-4,0.7735,,,,,,,,,,,,,,,,,,,,,,,,,,,,,,,,,,"[0.9686000000000001,0.5763999999999998,0.11359999999999992]","[-0.8118,-0.8198,-0.5452]",-59,122,1,0,0,response7disk,-7,7,1,0,0,rectangle,-7,7,1,0,0,,1,0.0002,0,-7,7,1,0,0,0,5,5,141,1,60,second,,,,,,,,,,,,,,,,,,,,,,,,,,,,,,,,,,,,,,,,,,,,,,,,,,,,,,,,,,,,,,,,,,,,,,,,
,,,,,,5c0fa52c9a798f00017c6b76,62c53a05bee84d668969a540,2022-07-06_10h31.33.945,Colour_Asymmetry_Pilot,2022.1.3,Win32,74.92320372,62c50e9c1127f2cd403a315f,,,,,,,,,,,,,,,,,,,,fourthree,,-4,0.7602,,,,,,,,,,,,,,,,,,,,,,,,,,,,,,,,,,"[0.0351999999999999,0.41159999999999997,0.0038000000000000256]","[0.12939999999999996,-0.2864,0.3253999999999999]",-65,143,1,0,0,response7disk,0,-1,1,0,0,rectangle,0,-1,1,0,0,,2,0.0005,0,0,-1,1,0,0,0,6,6,144,1,63,second,,,,,,,,,,,,,,,,,,,,,,,,,,,,,,,,,,,,,,,,,,,,,,,,,,,,,,,,,,,,,,,,,,,,,,,,
,,,,,,5c0fa52c9a798f00017c6b76,62c53a05bee84d668969a540,2022-07-06_10h31.33.945,Colour_Asymmetry_Pilot,2022.1.3,Win32,74.92320372,62c50e9c1127f2cd403a315f,,,,,,,,,,,,,,,,,,,,onetwo,,-4,0.6935,,,,,,,,,,,,,,,,,,,,,,,,,,,,,,,,,,"[0.30180000000000007,-0.7884,-0.9844]","[-0.17659999999999998,0.3253999999999999,0.19999999999999996]",-68,148,1,0,0,response7disk,-7,5,1,0,0,rectangle,-7,5,1,0,0,,2,0.0001,0,-7,5,1,0,0,0,7,7,45,1,45,first,,,,,,,,,,,,,,,,,,,,,,,,,,,,,,,,,,,,,,,,,,,,,,,,,,,,,,,,,,,,,,,,,,,,,,,,
,,,,,,5c0fa52c9a798f00017c6b76,62c53a05bee84d668969a540,2022-07-06_10h31.33.945,Colour_Asymmetry_Pilot,2022.1.3,Win32,74.92320372,62c50e9c1127f2cd403a315f,,,,,,,,,,,,,,,,,,,,threefour,,-4,0.4801,,,,,,,,,,,,,,,,,,,,,,,,,,,,,,,,,,"[-0.2942,-0.7648,-0.7492000000000001]","[0.2862,0.7802,0.3568]",-81,135,1,0,0,response7disk,-8,7,1,0,0,rectangle,-8,7,1,0,0,,1,0.0005,0,-8,7,1,0,0,0,8,8,93,1,12,second,,,,,,,,,,,,,,,,,,,,,,,,,,,,,,,,,,,,,,,,,,,,,,,,,,,,,,,,,,,,,,,,,,,,,,,,
,,,,,,5c0fa52c9a798f00017c6b76,62c53a05bee84d668969a540,2022-07-06_10h31.33.945,Colour_Asymmetry_Pilot,2022.1.3,Win32,74.92320372,62c50e9c1127f2cd403a315f,,,,,,,,,,,,,,,,,,,,twoone,,-4,0.5201,,,,,,,,,,,,,,,,,,,,,,,,,,,,,,,,,,"[-0.9844,-0.9688,-0.9922]","[0.30180000000000007,-0.7884,-0.9844]",-69,142,1,0,0,response7disk,-3,4,1,0,0,rectangle,-3,4,1,0,0,,2,0.0004,0,-3,4,1,0,0,0,9,9,157,1,76,second,,,,,,,,,,,,,,,,,,,,,,,,,,,,,,,,,,,,,,,,,,,,,,,,,,,,,,,,,,,,,,,,,,,,,,,,
,,,,,,5c0fa52c9a798f00017c6b76,62c53a05bee84d668969a540,2022-07-06_10h31.33.945,Colour_Asymmetry_Pilot,2022.1.3,Win32,74.92320372,62c50e9c1127f2cd403a315f,,,,,,,,,,,,,,,,,,,,fourtwo,,-4,0.72,,,,,,,,,,,,,,,,,,,,,,,,,,,,,,,,,,"[0.12939999999999996,-0.2864,0.3253999999999999]","[0.9842,0.7409999999999999,-0.6628000000000001]",-52,123,1,0,0,response7disk,-5,5,1,0,0,rectangle,-5,5,1,0,0,,3,0.0004,0,-5,5,1,0,0,0,10,10,56,1,56,first,,,,,,,,,,,,,,,,,,,,,,,,,,,,,,,,,,,,,,,,,,,,,,,,,,,,,,,,,,,,,,,,,,,,,,,,
,,,,,,5c0fa52c9a798f00017c6b76,62c53a05bee84d668969a540,2022-07-06_10h31.33.945,Colour_Asymmetry_Pilot,2022.1.3,Win32,74.92320372,62c50e9c1127f2cd403a315f,,,,,,,,,,,,,,,,,,,,onetwo,,-4,0.5868,,,,,,,,,,,,,,,,,,,,,,,,,,,,,,,,,,"[0.30180000000000007,-0.7884,-0.9844]","[-0.9844,-0.9688,-0.9922]",-72,140,1,0,0,response7disk,6,-3,1,0,0,rectangle,178,86,1,0,0,3,3,4.6411,1,12,11,1,0,0,0,11,11,76,1,76,first,response1disk_3,rectangle,,,,,,,,,,,,,,,,,,,,,,,,,,,,,,,,,,,,,,,,,,,,,,,,,,,,,,,,,,,,,,,,,,,,,,
,,,,,,5c0fa52c9a798f00017c6b76,62c53a05bee84d668969a540,2022-07-06_10h31.33.945,Colour_Asymmetry_Pilot,2022.1.3,Win32,74.92320372,62c50e9c1127f2cd403a315f,,,,,,,,,,,,,,,,,,,,fourthree,,-4,0.5735,,,,,,,,,,,,,,,,,,,,,,,,,,,,,,,,,,"[-0.6,0.16860000000000008,0.44300000000000006]","[1,0.12939999999999996,-1]",-56,141,1,0,0,response7disk,-9,3,1,0,0,rectangle,-9,3,1,0,0,3,3,0.0001,0,-9,3,1,0,0,0,12,12,77,1,77,first,,,,,,,,,,,,,,,,,,,,,,,,,,,,,,,,,,,,,,,,,,,,,,,,,,,,,,,,,,,,,,,,,,,,,,,,
,,,,,,5c0fa52c9a798f00017c6b76,62c53a05bee84d668969a540,2022-07-06_10h31.33.945,Colour_Asymmetry_Pilot,2022.1.3,Win32,74.92320372,62c50e9c1127f2cd403a315f,,,,,,,,,,,,,,,,,,,,onetwo,,2,3.4938,,,,,,,,,,,,,,,,,,,,,,,,,,,,,,,,,,"[0.9686000000000001,0.5763999999999998,0.11359999999999992]","[0.34099999999999997,0.12939999999999996,-0.9766]",155,-71,1,0,0,response3disk,-3,-4,1,0,0,rectangle,-3,-4,1,0,0,3,2,0.0005,0,-3,-4,1,0,0,0,13,13,142,1,61,second,,,,,,,,,,,,,,,,,,,,,,,,,,,,,,,,,,,,,,,,,,,,,,,,,,,,,,,,,,,,,,,,,,,,,,,,
,,,,,,5c0fa52c9a798f00017c6b76,62c53a05bee84d668969a540,2022-07-06_10h31.33.945,Colour_Asymmetry_Pilot,2022.1.3,Win32,74.92320372,62c50e9c1127f2cd403a315f,,,,,,,,,,,,,,,,,,,,onetwo,,-4,3.9072,,,,,,,,,,,,,,,,,,,,,,,,,,,,,,,,,,"[1,0.12939999999999996,-1]","[0.22340000000000004,-0.9296,-0.7884]",-64,136,1,0,0,response7disk,2,8,1,0,0,rectangle,162,-83,1,0,0,2,2,4.0539,1,-2,3,1,0,0,0,14,14,104,1,23,second,response3disk_3,rectangle,,,,,,,,,,,,,,,,,,,,,,,,,,,,,,,,,,,,,,,,,,,,,,,,,,,,,,,,,,,,,,,,,,,,,,
,,,,,,5c0fa52c9a798f00017c6b76,62c53a05bee84d668969a540,2022-07-06_10h31.33.945,Colour_Asymmetry_Pilot,2022.1.3,Win32,74.92320372,62c50e9c1127f2cd403a315f,,,,,,,,,,,,,,,,,,,,onethree,,-3,7.4543,,,,,,,,,,,,,,,,,,,,,,,,,,,,,,,,,,"[-0.6706000000000001,-0.6157999999999999,-0.6786]","[0.0351999999999999,0.41159999999999997,0.0038000000000000256]",-140,90,1,0,0,response7disk,6,-7,1,0,0,rectangle,6,-7,1,0,0,2,1,0.0004,0,6,-7,1,0,0,0,15,15,65,1,65,first,,,,,,,,,,,,,,,,,,,,,,,,,,,,,,,,,,,,,,,,,,,,,,,,,,,,,,,,,,,,,,,,,,,,,,,,
,,,,,,5c0fa52c9a798f00017c6b76,62c53a05bee84d668969a540,2022-07-06_10h31.33.945,Colour_Asymmetry_Pilot,2022.1.3,Win32,74.92320372,62c50e9c1127f2cd403a315f,,,,,,,,,,,,,,,,,,,,twofour,,-4,0.5601,,,,,,,,,,,,,,,,,,,,,,,,,,,,,,,,,,"[1,0.12939999999999996,-1]","[0.11359999999999992,0.6312,0.5213999999999999]",-67,140,1,0,0,response7disk,-2,11,1,0,0,rectangle,-2,11,1,0,0,2,1,0.0006,0,-2,11,1,0,0,0,16,16,82,1,1,second,,,,,,,,,,,,,,,,,,,,,,,,,,,,,,,,,,,,,,,,,,,,,,,,,,,,,,,,,,,,,,,,,,,,,,,,
,,,,,,5c0fa52c9a798f00017c6b76,62c53a05bee84d668969a540,2022-07-06_10h31.33.945,Colour_Asymmetry_Pilot,2022.1.3,Win32,74.92320372,62c50e9c1127f2cd403a315f,,,,,,,,,,,,,,,,,,,,twofour,,-1,5.0673,,,,,,,,,,,,,,,,,,,,,,,,,,,,,,,,,,"[0.5528,0.7409999999999999,-0.71]","[0.9842,0.7409999999999999,-0.6628000000000001]",-74,-174,1,0,0,response5disk,-8,1,1,0,0,rectangle,-8,1,1,0,0,2,3,0.0004,0,-8,1,1,0,0,0,17,17,100,1,19,second,,,,,,,,,,,,,,,,,,,,,,,,,,,,,,,,,,,,,,,,,,,,,,,,,,,,,,,,,,,,,,,,,,,,,,,,
