trials.thisRepN,trials.thisTrialN,trials.thisN,trials.thisIndex,trials.ran,Colourcodes,participant,session,date,expName,psychopyVersion,OS,frameRate,study_id,trials_4.thisRepN,trials_4.thisTrialN,trials_4.thisN,trials_4.thisIndex,trials_4.ran,StimulusPos,key_resp.keys,key_resp.rt,key_resp_2.keys,key_resp_2.rt,key_resp_15.keys,key_resp_15.rt,key_resp_17.keys,key_resp_17.rt,key_resp_9.keys,key_resp_9.rt,key_resp_10.keys,key_resp_10.rt,Circle1_col,Ecc,Circle2_col,similarity,response_time,mouse_5.x,mouse_5.y,mouse_5.leftButton,mouse_5.midButton,mouse_5.rightButton,mouse_5.clicked_name,mouse_10.x,mouse_10.y,mouse_10.leftButton,mouse_10.midButton,mouse_10.rightButton,mouse_10.clicked_name,mouse_7.x,mouse_7.y,mouse_7.leftButton,mouse_7.midButton,mouse_7.rightButton,catchnumberprac,mouse_6.x,mouse_6.y,mouse_6.leftButton,mouse_6.midButton,mouse_6.rightButton,duringprac.thisRepN,duringprac.thisTrialN,duringprac.thisN,duringprac.thisIndex,duringprac.ran,mouse_7.clicked_name,catchprac,mouse_6.clicked_name,key_resp_22.keys,key_resp_22.rt,Circle1_colour,Circle2_colour,mouse.x,mouse.y,mouse.leftButton,mouse.midButton,mouse.rightButton,mouse.clicked_name,mouse_2.x,mouse_2.y,mouse_2.leftButton,mouse_2.midButton,mouse_2.rightButton,mouse_2.clicked_name,mouse_3.x,mouse_3.y,mouse_3.leftButton,mouse_3.midButton,mouse_3.rightButton,catchresponse,catchnumber,response_time_catch,Catch,mouse_11.x,mouse_11.y,mouse_11.leftButton,mouse_11.midButton,mouse_11.rightButton,trials_2.thisRepN,trials_2.thisTrialN,trials_2.thisN,trials_2.thisIndex,trials_2.ran,Colourpair,Temporder,mouse_3.clicked_name,mouse_11.clicked_name,trials_3.thisRepN,trials_3.thisTrialN,trials_3.thisN,trials_3.thisIndex,trials_3.ran,key_resp_instr_Ishi.keys,key_resp_instr_Ishi.rt,Ishi_trial_keyresp.keys,Ishi_trial_keyresp.rt,Ishi_textbox.text,Ishi_mouse.x,Ishi_mouse.y,Ishi_mouse.leftButton,Ishi_mouse.midButton,Ishi_mouse.rightButton,Ishi_loop.thisRepN,Ishi_loop.thisTrialN,Ishi_loop.thisN,Ishi_loop.thisIndex,Ishi_loop.ran,imageaddress,textbox.text,mouse_4.x,mouse_4.y,mouse_4.leftButton,mouse_4.midButton,mouse_4.rightButton,mouse_4.clicked_name,textbox_2.text,mouse_8.x,mouse_8.y,mouse_8.leftButton,mouse_8.midButton,mouse_8.rightButton,mouse_8.clicked_name,textbox_3.text,mouse_9.x,mouse_9.y,mouse_9.leftButton,mouse_9.midButton,mouse_9.rightButton,mouse_9.clicked_name,textbox_4.text,mouse_12.x,mouse_12.y,mouse_12.leftButton,mouse_12.midButton,mouse_12.rightButton,mouse_12.clicked_name,textbox_5.text,mouse_13.x,mouse_13.y,mouse_13.leftButton,mouse_13.midButton,mouse_13.rightButton,mouse_13.clicked_name,textbox_6.text,mouse_14.x,mouse_14.y,mouse_14.leftButton,mouse_14.midButton,mouse_14.rightButton,mouse_14.clicked_name,textbox_7.text,mouse_15.x,mouse_15.y,mouse_15.leftButton,mouse_15.midButton,mouse_15.rightButton,mouse_15.clicked_name
0,0,0,40,1,,5e1f2e9726d97425b32bf5ff,62c53951217a5e1fea5d9660,2022-07-06_09h36.09.833,Colour_Asymmetry_Pilot,2022.1.3,Win32,144.0092166,62c50e9c1127f2cd403a315f,,,,,,,,,,,,,,,,,,,,,,,,,,,,,,,,,,,,,,,,,,,,,,,,,,,,,,,,,,,,,,,,,,,,,,,,,,,,,,,,,,,,,,,,,,,,,,,,,,,,,,,,,,,,,,,,,,,,,,,,,,,,,,,,,,,,,,,,,,,,,,,,,,,,,,,,,,,,,,,,,,,
0,1,1,18,1,,5e1f2e9726d97425b32bf5ff,62c53951217a5e1fea5d9660,2022-07-06_09h36.09.833,Colour_Asymmetry_Pilot,2022.1.3,Win32,144.0092166,62c50e9c1127f2cd403a315f,,,,,,,,,,,,,,,,,,,,,,,,,,,,,,,,,,,,,,,,,,,,,,,,,,,,,,,,,,,,,,,,,,,,,,,,,,,,,,,,,,,,,,,,,,,,,,,,,,,,,,,,,,,,,,,,,,,,,,,,,,,,,,,,,,,,,,,,,,,,,,,,,,,,,,,,,,,,,,,,,,,
0,2,2,9,1,,5e1f2e9726d97425b32bf5ff,62c53951217a5e1fea5d9660,2022-07-06_09h36.09.833,Colour_Asymmetry_Pilot,2022.1.3,Win32,144.0092166,62c50e9c1127f2cd403a315f,,,,,,,,,,,,,,,,,,,,,,,,,,,,,,,,,,,,,,,,,,,,,,,,,,,,,,,,,,,,,,,,,,,,,,,,,,,,,,,,,,,,,,,,,,,,,,,,,,,,,,,,,,,,,,,,,,,,,,,,,,,,,,,,,,,,,,,,,,,,,,,,,,,,,,,,,,,,,,,,,,,
0,3,3,50,1,,5e1f2e9726d97425b32bf5ff,62c53951217a5e1fea5d9660,2022-07-06_09h36.09.833,Colour_Asymmetry_Pilot,2022.1.3,Win32,144.0092166,62c50e9c1127f2cd403a315f,,,,,,,,,,,,,,,,,,,,,,,,,,,,,,,,,,,,,,,,,,,,,,,,,,,,,,,,,,,,,,,,,,,,,,,,,,,,,,,,,,,,,,,,,,,,,,,,,,,,,,,,,,,,,,,,,,,,,,,,,,,,,,,,,,,,,,,,,,,,,,,,,,,,,,,,,,,,,,,,,,,
0,4,4,34,1,,5e1f2e9726d97425b32bf5ff,62c53951217a5e1fea5d9660,2022-07-06_09h36.09.833,Colour_Asymmetry_Pilot,2022.1.3,Win32,144.0092166,62c50e9c1127f2cd403a315f,,,,,,,,,,,,,,,,,,,,,,,,,,,,,,,,,,,,,,,,,,,,,,,,,,,,,,,,,,,,,,,,,,,,,,,,,,,,,,,,,,,,,,,,,,,,,,,,,,,,,,,,,,,,,,,,,,,,,,,,,,,,,,,,,,,,,,,,,,,,,,,,,,,,,,,,,,,,,,,,,,,
0,5,5,32,1,,5e1f2e9726d97425b32bf5ff,62c53951217a5e1fea5d9660,2022-07-06_09h36.09.833,Colour_Asymmetry_Pilot,2022.1.3,Win32,144.0092166,62c50e9c1127f2cd403a315f,,,,,,,,,,,,,,,,,,,,,,,,,,,,,,,,,,,,,,,,,,,,,,,,,,,,,,,,,,,,,,,,,,,,,,,,,,,,,,,,,,,,,,,,,,,,,,,,,,,,,,,,,,,,,,,,,,,,,,,,,,,,,,,,,,,,,,,,,,,,,,,,,,,,,,,,,,,,,,,,,,,
0,6,6,91,1,,5e1f2e9726d97425b32bf5ff,62c53951217a5e1fea5d9660,2022-07-06_09h36.09.833,Colour_Asymmetry_Pilot,2022.1.3,Win32,144.0092166,62c50e9c1127f2cd403a315f,,,,,,,,,,,,,,,,,,,,,,,,,,,,,,,,,,,,,,,,,,,,,,,,,,,,,,,,,,,,,,,,,,,,,,,,,,,,,,,,,,,,,,,,,,,,,,,,,,,,,,,,,,,,,,,,,,,,,,,,,,,,,,,,,,,,,,,,,,,,,,,,,,,,,,,,,,,,,,,,,,,
0,7,7,87,1,,5e1f2e9726d97425b32bf5ff,62c53951217a5e1fea5d9660,2022-07-06_09h36.09.833,Colour_Asymmetry_Pilot,2022.1.3,Win32,144.0092166,62c50e9c1127f2cd403a315f,,,,,,,,,,,,,,,,,,,,,,,,,,,,,,,,,,,,,,,,,,,,,,,,,,,,,,,,,,,,,,,,,,,,,,,,,,,,,,,,,,,,,,,,,,,,,,,,,,,,,,,,,,,,,,,,,,,,,,,,,,,,,,,,,,,,,,,,,,,,,,,,,,,,,,,,,,,,,,,,,,,
0,8,8,2,1,,5e1f2e9726d97425b32bf5ff,62c53951217a5e1fea5d9660,2022-07-06_09h36.09.833,Colour_Asymmetry_Pilot,2022.1.3,Win32,144.0092166,62c50e9c1127f2cd403a315f,,,,,,,,,,,,,,,,,,,,,,,,,,,,,,,,,,,,,,,,,,,,,,,,,,,,,,,,,,,,,,,,,,,,,,,,,,,,,,,,,,,,,,,,,,,,,,,,,,,,,,,,,,,,,,,,,,,,,,,,,,,,,,,,,,,,,,,,,,,,,,,,,,,,,,,,,,,,,,,,,,,
0,9,9,70,1,,5e1f2e9726d97425b32bf5ff,62c53951217a5e1fea5d9660,2022-07-06_09h36.09.833,Colour_Asymmetry_Pilot,2022.1.3,Win32,144.0092166,62c50e9c1127f2cd403a315f,,,,,,,,,,,,,,,,,,,,,,,,,,,,,,,,,,,,,,,,,,,,,,,,,,,,,,,,,,,,,,,,,,,,,,,,,,,,,,,,,,,,,,,,,,,,,,,,,,,,,,,,,,,,,,,,,,,,,,,,,,,,,,,,,,,,,,,,,,,,,,,,,,,,,,,,,,,,,,,,,,,
0,10,10,58,1,,5e1f2e9726d97425b32bf5ff,62c53951217a5e1fea5d9660,2022-07-06_09h36.09.833,Colour_Asymmetry_Pilot,2022.1.3,Win32,144.0092166,62c50e9c1127f2cd403a315f,,,,,,,,,,,,,,,,,,,,,,,,,,,,,,,,,,,,,,,,,,,,,,,,,,,,,,,,,,,,,,,,,,,,,,,,,,,,,,,,,,,,,,,,,,,,,,,,,,,,,,,,,,,,,,,,,,,,,,,,,,,,,,,,,,,,,,,,,,,,,,,,,,,,,,,,,,,,,,,,,,,
0,11,11,76,1,,5e1f2e9726d97425b32bf5ff,62c53951217a5e1fea5d9660,2022-07-06_09h36.09.833,Colour_Asymmetry_Pilot,2022.1.3,Win32,144.0092166,62c50e9c1127f2cd403a315f,,,,,,,,,,,,,,,,,,,,,,,,,,,,,,,,,,,,,,,,,,,,,,,,,,,,,,,,,,,,,,,,,,,,,,,,,,,,,,,,,,,,,,,,,,,,,,,,,,,,,,,,,,,,,,,,,,,,,,,,,,,,,,,,,,,,,,,,,,,,,,,,,,,,,,,,,,,,,,,,,,,
0,12,12,10,1,,5e1f2e9726d97425b32bf5ff,62c53951217a5e1fea5d9660,2022-07-06_09h36.09.833,Colour_Asymmetry_Pilot,2022.1.3,Win32,144.0092166,62c50e9c1127f2cd403a315f,,,,,,,,,,,,,,,,,,,,,,,,,,,,,,,,,,,,,,,,,,,,,,,,,,,,,,,,,,,,,,,,,,,,,,,,,,,,,,,,,,,,,,,,,,,,,,,,,,,,,,,,,,,,,,,,,,,,,,,,,,,,,,,,,,,,,,,,,,,,,,,,,,,,,,,,,,,,,,,,,,,
0,13,13,71,1,,5e1f2e9726d97425b32bf5ff,62c53951217a5e1fea5d9660,2022-07-06_09h36.09.833,Colour_Asymmetry_Pilot,2022.1.3,Win32,144.0092166,62c50e9c1127f2cd403a315f,,,,,,,,,,,,,,,,,,,,,,,,,,,,,,,,,,,,,,,,,,,,,,,,,,,,,,,,,,,,,,,,,,,,,,,,,,,,,,,,,,,,,,,,,,,,,,,,,,,,,,,,,,,,,,,,,,,,,,,,,,,,,,,,,,,,,,,,,,,,,,,,,,,,,,,,,,,,,,,,,,,
0,14,14,37,1,,5e1f2e9726d97425b32bf5ff,62c53951217a5e1fea5d9660,2022-07-06_09h36.09.833,Colour_Asymmetry_Pilot,2022.1.3,Win32,144.0092166,62c50e9c1127f2cd403a315f,,,,,,,,,,,,,,,,,,,,,,,,,,,,,,,,,,,,,,,,,,,,,,,,,,,,,,,,,,,,,,,,,,,,,,,,,,,,,,,,,,,,,,,,,,,,,,,,,,,,,,,,,,,,,,,,,,,,,,,,,,,,,,,,,,,,,,,,,,,,,,,,,,,,,,,,,,,,,,,,,,,
0,15,15,46,1,,5e1f2e9726d97425b32bf5ff,62c53951217a5e1fea5d9660,2022-07-06_09h36.09.833,Colour_Asymmetry_Pilot,2022.1.3,Win32,144.0092166,62c50e9c1127f2cd403a315f,,,,,,,,,,,,,,,,,,,,,,,,,,,,,,,,,,,,,,,,,,,,,,,,,,,,,,,,,,,,,,,,,,,,,,,,,,,,,,,,,,,,,,,,,,,,,,,,,,,,,,,,,,,,,,,,,,,,,,,,,,,,,,,,,,,,,,,,,,,,,,,,,,,,,,,,,,,,,,,,,,,
0,16,16,60,1,,5e1f2e9726d97425b32bf5ff,62c53951217a5e1fea5d9660,2022-07-06_09h36.09.833,Colour_Asymmetry_Pilot,2022.1.3,Win32,144.0092166,62c50e9c1127f2cd403a315f,,,,,,,,,,,,,,,,,,,,,,,,,,,,,,,,,,,,,,,,,,,,,,,,,,,,,,,,,,,,,,,,,,,,,,,,,,,,,,,,,,,,,,,,,,,,,,,,,,,,,,,,,,,,,,,,,,,,,,,,,,,,,,,,,,,,,,,,,,,,,,,,,,,,,,,,,,,,,,,,,,,
0,17,17,27,1,,5e1f2e9726d97425b32bf5ff,62c53951217a5e1fea5d9660,2022-07-06_09h36.09.833,Colour_Asymmetry_Pilot,2022.1.3,Win32,144.0092166,62c50e9c1127f2cd403a315f,,,,,,,,,,,,,,,,,,,,,,,,,,,,,,,,,,,,,,,,,,,,,,,,,,,,,,,,,,,,,,,,,,,,,,,,,,,,,,,,,,,,,,,,,,,,,,,,,,,,,,,,,,,,,,,,,,,,,,,,,,,,,,,,,,,,,,,,,,,,,,,,,,,,,,,,,,,,,,,,,,,
0,18,18,43,1,,5e1f2e9726d97425b32bf5ff,62c53951217a5e1fea5d9660,2022-07-06_09h36.09.833,Colour_Asymmetry_Pilot,2022.1.3,Win32,144.0092166,62c50e9c1127f2cd403a315f,,,,,,,,,,,,,,,,,,,,,,,,,,,,,,,,,,,,,,,,,,,,,,,,,,,,,,,,,,,,,,,,,,,,,,,,,,,,,,,,,,,,,,,,,,,,,,,,,,,,,,,,,,,,,,,,,,,,,,,,,,,,,,,,,,,,,,,,,,,,,,,,,,,,,,,,,,,,,,,,,,,
0,19,19,80,1,,5e1f2e9726d97425b32bf5ff,62c53951217a5e1fea5d9660,2022-07-06_09h36.09.833,Colour_Asymmetry_Pilot,2022.1.3,Win32,144.0092166,62c50e9c1127f2cd403a315f,,,,,,,,,,,,,,,,,,,,,,,,,,,,,,,,,,,,,,,,,,,,,,,,,,,,,,,,,,,,,,,,,,,,,,,,,,,,,,,,,,,,,,,,,,,,,,,,,,,,,,,,,,,,,,,,,,,,,,,,,,,,,,,,,,,,,,,,,,,,,,,,,,,,,,,,,,,,,,,,,,,
0,20,20,56,1,,5e1f2e9726d97425b32bf5ff,62c53951217a5e1fea5d9660,2022-07-06_09h36.09.833,Colour_Asymmetry_Pilot,2022.1.3,Win32,144.0092166,62c50e9c1127f2cd403a315f,,,,,,,,,,,,,,,,,,,,,,,,,,,,,,,,,,,,,,,,,,,,,,,,,,,,,,,,,,,,,,,,,,,,,,,,,,,,,,,,,,,,,,,,,,,,,,,,,,,,,,,,,,,,,,,,,,,,,,,,,,,,,,,,,,,,,,,,,,,,,,,,,,,,,,,,,,,,,,,,,,,
0,21,21,36,1,,5e1f2e9726d97425b32bf5ff,62c53951217a5e1fea5d9660,2022-07-06_09h36.09.833,Colour_Asymmetry_Pilot,2022.1.3,Win32,144.0092166,62c50e9c1127f2cd403a315f,,,,,,,,,,,,,,,,,,,,,,,,,,,,,,,,,,,,,,,,,,,,,,,,,,,,,,,,,,,,,,,,,,,,,,,,,,,,,,,,,,,,,,,,,,,,,,,,,,,,,,,,,,,,,,,,,,,,,,,,,,,,,,,,,,,,,,,,,,,,,,,,,,,,,,,,,,,,,,,,,,,
0,22,22,29,1,,5e1f2e9726d97425b32bf5ff,62c53951217a5e1fea5d9660,2022-07-06_09h36.09.833,Colour_Asymmetry_Pilot,2022.1.3,Win32,144.0092166,62c50e9c1127f2cd403a315f,,,,,,,,,,,,,,,,,,,,,,,,,,,,,,,,,,,,,,,,,,,,,,,,,,,,,,,,,,,,,,,,,,,,,,,,,,,,,,,,,,,,,,,,,,,,,,,,,,,,,,,,,,,,,,,,,,,,,,,,,,,,,,,,,,,,,,,,,,,,,,,,,,,,,,,,,,,,,,,,,,,
0,23,23,0,1,,5e1f2e9726d97425b32bf5ff,62c53951217a5e1fea5d9660,2022-07-06_09h36.09.833,Colour_Asymmetry_Pilot,2022.1.3,Win32,144.0092166,62c50e9c1127f2cd403a315f,,,,,,,,,,,,,,,,,,,,,,,,,,,,,,,,,,,,,,,,,,,,,,,,,,,,,,,,,,,,,,,,,,,,,,,,,,,,,,,,,,,,,,,,,,,,,,,,,,,,,,,,,,,,,,,,,,,,,,,,,,,,,,,,,,,,,,,,,,,,,,,,,,,,,,,,,,,,,,,,,,,
0,24,24,8,1,,5e1f2e9726d97425b32bf5ff,62c53951217a5e1fea5d9660,2022-07-06_09h36.09.833,Colour_Asymmetry_Pilot,2022.1.3,Win32,144.0092166,62c50e9c1127f2cd403a315f,,,,,,,,,,,,,,,,,,,,,,,,,,,,,,,,,,,,,,,,,,,,,,,,,,,,,,,,,,,,,,,,,,,,,,,,,,,,,,,,,,,,,,,,,,,,,,,,,,,,,,,,,,,,,,,,,,,,,,,,,,,,,,,,,,,,,,,,,,,,,,,,,,,,,,,,,,,,,,,,,,,
0,25,25,21,1,,5e1f2e9726d97425b32bf5ff,62c53951217a5e1fea5d9660,2022-07-06_09h36.09.833,Colour_Asymmetry_Pilot,2022.1.3,Win32,144.0092166,62c50e9c1127f2cd403a315f,,,,,,,,,,,,,,,,,,,,,,,,,,,,,,,,,,,,,,,,,,,,,,,,,,,,,,,,,,,,,,,,,,,,,,,,,,,,,,,,,,,,,,,,,,,,,,,,,,,,,,,,,,,,,,,,,,,,,,,,,,,,,,,,,,,,,,,,,,,,,,,,,,,,,,,,,,,,,,,,,,,
0,26,26,90,1,,5e1f2e9726d97425b32bf5ff,62c53951217a5e1fea5d9660,2022-07-06_09h36.09.833,Colour_Asymmetry_Pilot,2022.1.3,Win32,144.0092166,62c50e9c1127f2cd403a315f,,,,,,,,,,,,,,,,,,,,,,,,,,,,,,,,,,,,,,,,,,,,,,,,,,,,,,,,,,,,,,,,,,,,,,,,,,,,,,,,,,,,,,,,,,,,,,,,,,,,,,,,,,,,,,,,,,,,,,,,,,,,,,,,,,,,,,,,,,,,,,,,,,,,,,,,,,,,,,,,,,,
0,27,27,45,1,,5e1f2e9726d97425b32bf5ff,62c53951217a5e1fea5d9660,2022-07-06_09h36.09.833,Colour_Asymmetry_Pilot,2022.1.3,Win32,144.0092166,62c50e9c1127f2cd403a315f,,,,,,,,,,,,,,,,,,,,,,,,,,,,,,,,,,,,,,,,,,,,,,,,,,,,,,,,,,,,,,,,,,,,,,,,,,,,,,,,,,,,,,,,,,,,,,,,,,,,,,,,,,,,,,,,,,,,,,,,,,,,,,,,,,,,,,,,,,,,,,,,,,,,,,,,,,,,,,,,,,,
0,28,28,75,1,,5e1f2e9726d97425b32bf5ff,62c53951217a5e1fea5d9660,2022-07-06_09h36.09.833,Colour_Asymmetry_Pilot,2022.1.3,Win32,144.0092166,62c50e9c1127f2cd403a315f,,,,,,,,,,,,,,,,,,,,,,,,,,,,,,,,,,,,,,,,,,,,,,,,,,,,,,,,,,,,,,,,,,,,,,,,,,,,,,,,,,,,,,,,,,,,,,,,,,,,,,,,,,,,,,,,,,,,,,,,,,,,,,,,,,,,,,,,,,,,,,,,,,,,,,,,,,,,,,,,,,,
0,29,29,69,1,,5e1f2e9726d97425b32bf5ff,62c53951217a5e1fea5d9660,2022-07-06_09h36.09.833,Colour_Asymmetry_Pilot,2022.1.3,Win32,144.0092166,62c50e9c1127f2cd403a315f,,,,,,,,,,,,,,,,,,,,,,,,,,,,,,,,,,,,,,,,,,,,,,,,,,,,,,,,,,,,,,,,,,,,,,,,,,,,,,,,,,,,,,,,,,,,,,,,,,,,,,,,,,,,,,,,,,,,,,,,,,,,,,,,,,,,,,,,,,,,,,,,,,,,,,,,,,,,,,,,,,,
0,30,30,13,1,,5e1f2e9726d97425b32bf5ff,62c53951217a5e1fea5d9660,2022-07-06_09h36.09.833,Colour_Asymmetry_Pilot,2022.1.3,Win32,144.0092166,62c50e9c1127f2cd403a315f,,,,,,,,,,,,,,,,,,,,,,,,,,,,,,,,,,,,,,,,,,,,,,,,,,,,,,,,,,,,,,,,,,,,,,,,,,,,,,,,,,,,,,,,,,,,,,,,,,,,,,,,,,,,,,,,,,,,,,,,,,,,,,,,,,,,,,,,,,,,,,,,,,,,,,,,,,,,,,,,,,,
0,31,31,86,1,,5e1f2e9726d97425b32bf5ff,62c53951217a5e1fea5d9660,2022-07-06_09h36.09.833,Colour_Asymmetry_Pilot,2022.1.3,Win32,144.0092166,62c50e9c1127f2cd403a315f,,,,,,,,,,,,,,,,,,,,,,,,,,,,,,,,,,,,,,,,,,,,,,,,,,,,,,,,,,,,,,,,,,,,,,,,,,,,,,,,,,,,,,,,,,,,,,,,,,,,,,,,,,,,,,,,,,,,,,,,,,,,,,,,,,,,,,,,,,,,,,,,,,,,,,,,,,,,,,,,,,,
0,32,32,54,1,,5e1f2e9726d97425b32bf5ff,62c53951217a5e1fea5d9660,2022-07-06_09h36.09.833,Colour_Asymmetry_Pilot,2022.1.3,Win32,144.0092166,62c50e9c1127f2cd403a315f,,,,,,,,,,,,,,,,,,,,,,,,,,,,,,,,,,,,,,,,,,,,,,,,,,,,,,,,,,,,,,,,,,,,,,,,,,,,,,,,,,,,,,,,,,,,,,,,,,,,,,,,,,,,,,,,,,,,,,,,,,,,,,,,,,,,,,,,,,,,,,,,,,,,,,,,,,,,,,,,,,,
0,33,33,12,1,,5e1f2e9726d97425b32bf5ff,62c53951217a5e1fea5d9660,2022-07-06_09h36.09.833,Colour_Asymmetry_Pilot,2022.1.3,Win32,144.0092166,62c50e9c1127f2cd403a315f,,,,,,,,,,,,,,,,,,,,,,,,,,,,,,,,,,,,,,,,,,,,,,,,,,,,,,,,,,,,,,,,,,,,,,,,,,,,,,,,,,,,,,,,,,,,,,,,,,,,,,,,,,,,,,,,,,,,,,,,,,,,,,,,,,,,,,,,,,,,,,,,,,,,,,,,,,,,,,,,,,,
0,34,34,85,1,,5e1f2e9726d97425b32bf5ff,62c53951217a5e1fea5d9660,2022-07-06_09h36.09.833,Colour_Asymmetry_Pilot,2022.1.3,Win32,144.0092166,62c50e9c1127f2cd403a315f,,,,,,,,,,,,,,,,,,,,,,,,,,,,,,,,,,,,,,,,,,,,,,,,,,,,,,,,,,,,,,,,,,,,,,,,,,,,,,,,,,,,,,,,,,,,,,,,,,,,,,,,,,,,,,,,,,,,,,,,,,,,,,,,,,,,,,,,,,,,,,,,,,,,,,,,,,,,,,,,,,,
0,35,35,79,1,,5e1f2e9726d97425b32bf5ff,62c53951217a5e1fea5d9660,2022-07-06_09h36.09.833,Colour_Asymmetry_Pilot,2022.1.3,Win32,144.0092166,62c50e9c1127f2cd403a315f,,,,,,,,,,,,,,,,,,,,,,,,,,,,,,,,,,,,,,,,,,,,,,,,,,,,,,,,,,,,,,,,,,,,,,,,,,,,,,,,,,,,,,,,,,,,,,,,,,,,,,,,,,,,,,,,,,,,,,,,,,,,,,,,,,,,,,,,,,,,,,,,,,,,,,,,,,,,,,,,,,,
0,36,36,41,1,,5e1f2e9726d97425b32bf5ff,62c53951217a5e1fea5d9660,2022-07-06_09h36.09.833,Colour_Asymmetry_Pilot,2022.1.3,Win32,144.0092166,62c50e9c1127f2cd403a315f,,,,,,,,,,,,,,,,,,,,,,,,,,,,,,,,,,,,,,,,,,,,,,,,,,,,,,,,,,,,,,,,,,,,,,,,,,,,,,,,,,,,,,,,,,,,,,,,,,,,,,,,,,,,,,,,,,,,,,,,,,,,,,,,,,,,,,,,,,,,,,,,,,,,,,,,,,,,,,,,,,,
0,37,37,14,1,,5e1f2e9726d97425b32bf5ff,62c53951217a5e1fea5d9660,2022-07-06_09h36.09.833,Colour_Asymmetry_Pilot,2022.1.3,Win32,144.0092166,62c50e9c1127f2cd403a315f,,,,,,,,,,,,,,,,,,,,,,,,,,,,,,,,,,,,,,,,,,,,,,,,,,,,,,,,,,,,,,,,,,,,,,,,,,,,,,,,,,,,,,,,,,,,,,,,,,,,,,,,,,,,,,,,,,,,,,,,,,,,,,,,,,,,,,,,,,,,,,,,,,,,,,,,,,,,,,,,,,,
0,38,38,28,1,,5e1f2e9726d97425b32bf5ff,62c53951217a5e1fea5d9660,2022-07-06_09h36.09.833,Colour_Asymmetry_Pilot,2022.1.3,Win32,144.0092166,62c50e9c1127f2cd403a315f,,,,,,,,,,,,,,,,,,,,,,,,,,,,,,,,,,,,,,,,,,,,,,,,,,,,,,,,,,,,,,,,,,,,,,,,,,,,,,,,,,,,,,,,,,,,,,,,,,,,,,,,,,,,,,,,,,,,,,,,,,,,,,,,,,,,,,,,,,,,,,,,,,,,,,,,,,,,,,,,,,,
0,39,39,31,1,,5e1f2e9726d97425b32bf5ff,62c53951217a5e1fea5d9660,2022-07-06_09h36.09.833,Colour_Asymmetry_Pilot,2022.1.3,Win32,144.0092166,62c50e9c1127f2cd403a315f,,,,,,,,,,,,,,,,,,,,,,,,,,,,,,,,,,,,,,,,,,,,,,,,,,,,,,,,,,,,,,,,,,,,,,,,,,,,,,,,,,,,,,,,,,,,,,,,,,,,,,,,,,,,,,,,,,,,,,,,,,,,,,,,,,,,,,,,,,,,,,,,,,,,,,,,,,,,,,,,,,,
0,40,40,61,1,,5e1f2e9726d97425b32bf5ff,62c53951217a5e1fea5d9660,2022-07-06_09h36.09.833,Colour_Asymmetry_Pilot,2022.1.3,Win32,144.0092166,62c50e9c1127f2cd403a315f,,,,,,,,,,,,,,,,,,,,,,,,,,,,,,,,,,,,,,,,,,,,,,,,,,,,,,,,,,,,,,,,,,,,,,,,,,,,,,,,,,,,,,,,,,,,,,,,,,,,,,,,,,,,,,,,,,,,,,,,,,,,,,,,,,,,,,,,,,,,,,,,,,,,,,,,,,,,,,,,,,,
0,41,41,51,1,,5e1f2e9726d97425b32bf5ff,62c53951217a5e1fea5d9660,2022-07-06_09h36.09.833,Colour_Asymmetry_Pilot,2022.1.3,Win32,144.0092166,62c50e9c1127f2cd403a315f,,,,,,,,,,,,,,,,,,,,,,,,,,,,,,,,,,,,,,,,,,,,,,,,,,,,,,,,,,,,,,,,,,,,,,,,,,,,,,,,,,,,,,,,,,,,,,,,,,,,,,,,,,,,,,,,,,,,,,,,,,,,,,,,,,,,,,,,,,,,,,,,,,,,,,,,,,,,,,,,,,,
0,42,42,30,1,,5e1f2e9726d97425b32bf5ff,62c53951217a5e1fea5d9660,2022-07-06_09h36.09.833,Colour_Asymmetry_Pilot,2022.1.3,Win32,144.0092166,62c50e9c1127f2cd403a315f,,,,,,,,,,,,,,,,,,,,,,,,,,,,,,,,,,,,,,,,,,,,,,,,,,,,,,,,,,,,,,,,,,,,,,,,,,,,,,,,,,,,,,,,,,,,,,,,,,,,,,,,,,,,,,,,,,,,,,,,,,,,,,,,,,,,,,,,,,,,,,,,,,,,,,,,,,,,,,,,,,,
0,43,43,23,1,,5e1f2e9726d97425b32bf5ff,62c53951217a5e1fea5d9660,2022-07-06_09h36.09.833,Colour_Asymmetry_Pilot,2022.1.3,Win32,144.0092166,62c50e9c1127f2cd403a315f,,,,,,,,,,,,,,,,,,,,,,,,,,,,,,,,,,,,,,,,,,,,,,,,,,,,,,,,,,,,,,,,,,,,,,,,,,,,,,,,,,,,,,,,,,,,,,,,,,,,,,,,,,,,,,,,,,,,,,,,,,,,,,,,,,,,,,,,,,,,,,,,,,,,,,,,,,,,,,,,,,,
0,44,44,59,1,,5e1f2e9726d97425b32bf5ff,62c53951217a5e1fea5d9660,2022-07-06_09h36.09.833,Colour_Asymmetry_Pilot,2022.1.3,Win32,144.0092166,62c50e9c1127f2cd403a315f,,,,,,,,,,,,,,,,,,,,,,,,,,,,,,,,,,,,,,,,,,,,,,,,,,,,,,,,,,,,,,,,,,,,,,,,,,,,,,,,,,,,,,,,,,,,,,,,,,,,,,,,,,,,,,,,,,,,,,,,,,,,,,,,,,,,,,,,,,,,,,,,,,,,,,,,,,,,,,,,,,,
0,45,45,68,1,,5e1f2e9726d97425b32bf5ff,62c53951217a5e1fea5d9660,2022-07-06_09h36.09.833,Colour_Asymmetry_Pilot,2022.1.3,Win32,144.0092166,62c50e9c1127f2cd403a315f,,,,,,,,,,,,,,,,,,,,,,,,,,,,,,,,,,,,,,,,,,,,,,,,,,,,,,,,,,,,,,,,,,,,,,,,,,,,,,,,,,,,,,,,,,,,,,,,,,,,,,,,,,,,,,,,,,,,,,,,,,,,,,,,,,,,,,,,,,,,,,,,,,,,,,,,,,,,,,,,,,,
0,46,46,4,1,,5e1f2e9726d97425b32bf5ff,62c53951217a5e1fea5d9660,2022-07-06_09h36.09.833,Colour_Asymmetry_Pilot,2022.1.3,Win32,144.0092166,62c50e9c1127f2cd403a315f,,,,,,,,,,,,,,,,,,,,,,,,,,,,,,,,,,,,,,,,,,,,,,,,,,,,,,,,,,,,,,,,,,,,,,,,,,,,,,,,,,,,,,,,,,,,,,,,,,,,,,,,,,,,,,,,,,,,,,,,,,,,,,,,,,,,,,,,,,,,,,,,,,,,,,,,,,,,,,,,,,,
0,47,47,81,1,,5e1f2e9726d97425b32bf5ff,62c53951217a5e1fea5d9660,2022-07-06_09h36.09.833,Colour_Asymmetry_Pilot,2022.1.3,Win32,144.0092166,62c50e9c1127f2cd403a315f,,,,,,,,,,,,,,,,,,,,,,,,,,,,,,,,,,,,,,,,,,,,,,,,,,,,,,,,,,,,,,,,,,,,,,,,,,,,,,,,,,,,,,,,,,,,,,,,,,,,,,,,,,,,,,,,,,,,,,,,,,,,,,,,,,,,,,,,,,,,,,,,,,,,,,,,,,,,,,,,,,,
0,48,48,6,1,,5e1f2e9726d97425b32bf5ff,62c53951217a5e1fea5d9660,2022-07-06_09h36.09.833,Colour_Asymmetry_Pilot,2022.1.3,Win32,144.0092166,62c50e9c1127f2cd403a315f,,,,,,,,,,,,,,,,,,,,,,,,,,,,,,,,,,,,,,,,,,,,,,,,,,,,,,,,,,,,,,,,,,,,,,,,,,,,,,,,,,,,,,,,,,,,,,,,,,,,,,,,,,,,,,,,,,,,,,,,,,,,,,,,,,,,,,,,,,,,,,,,,,,,,,,,,,,,,,,,,,,
0,49,49,39,1,,5e1f2e9726d97425b32bf5ff,62c53951217a5e1fea5d9660,2022-07-06_09h36.09.833,Colour_Asymmetry_Pilot,2022.1.3,Win32,144.0092166,62c50e9c1127f2cd403a315f,,,,,,,,,,,,,,,,,,,,,,,,,,,,,,,,,,,,,,,,,,,,,,,,,,,,,,,,,,,,,,,,,,,,,,,,,,,,,,,,,,,,,,,,,,,,,,,,,,,,,,,,,,,,,,,,,,,,,,,,,,,,,,,,,,,,,,,,,,,,,,,,,,,,,,,,,,,,,,,,,,,
0,50,50,65,1,,5e1f2e9726d97425b32bf5ff,62c53951217a5e1fea5d9660,2022-07-06_09h36.09.833,Colour_Asymmetry_Pilot,2022.1.3,Win32,144.0092166,62c50e9c1127f2cd403a315f,,,,,,,,,,,,,,,,,,,,,,,,,,,,,,,,,,,,,,,,,,,,,,,,,,,,,,,,,,,,,,,,,,,,,,,,,,,,,,,,,,,,,,,,,,,,,,,,,,,,,,,,,,,,,,,,,,,,,,,,,,,,,,,,,,,,,,,,,,,,,,,,,,,,,,,,,,,,,,,,,,,
0,51,51,22,1,,5e1f2e9726d97425b32bf5ff,62c53951217a5e1fea5d9660,2022-07-06_09h36.09.833,Colour_Asymmetry_Pilot,2022.1.3,Win32,144.0092166,62c50e9c1127f2cd403a315f,,,,,,,,,,,,,,,,,,,,,,,,,,,,,,,,,,,,,,,,,,,,,,,,,,,,,,,,,,,,,,,,,,,,,,,,,,,,,,,,,,,,,,,,,,,,,,,,,,,,,,,,,,,,,,,,,,,,,,,,,,,,,,,,,,,,,,,,,,,,,,,,,,,,,,,,,,,,,,,,,,,
0,52,52,25,1,,5e1f2e9726d97425b32bf5ff,62c53951217a5e1fea5d9660,2022-07-06_09h36.09.833,Colour_Asymmetry_Pilot,2022.1.3,Win32,144.0092166,62c50e9c1127f2cd403a315f,,,,,,,,,,,,,,,,,,,,,,,,,,,,,,,,,,,,,,,,,,,,,,,,,,,,,,,,,,,,,,,,,,,,,,,,,,,,,,,,,,,,,,,,,,,,,,,,,,,,,,,,,,,,,,,,,,,,,,,,,,,,,,,,,,,,,,,,,,,,,,,,,,,,,,,,,,,,,,,,,,,
0,53,53,33,1,,5e1f2e9726d97425b32bf5ff,62c53951217a5e1fea5d9660,2022-07-06_09h36.09.833,Colour_Asymmetry_Pilot,2022.1.3,Win32,144.0092166,62c50e9c1127f2cd403a315f,,,,,,,,,,,,,,,,,,,,,,,,,,,,,,,,,,,,,,,,,,,,,,,,,,,,,,,,,,,,,,,,,,,,,,,,,,,,,,,,,,,,,,,,,,,,,,,,,,,,,,,,,,,,,,,,,,,,,,,,,,,,,,,,,,,,,,,,,,,,,,,,,,,,,,,,,,,,,,,,,,,
0,54,54,74,1,,5e1f2e9726d97425b32bf5ff,62c53951217a5e1fea5d9660,2022-07-06_09h36.09.833,Colour_Asymmetry_Pilot,2022.1.3,Win32,144.0092166,62c50e9c1127f2cd403a315f,,,,,,,,,,,,,,,,,,,,,,,,,,,,,,,,,,,,,,,,,,,,,,,,,,,,,,,,,,,,,,,,,,,,,,,,,,,,,,,,,,,,,,,,,,,,,,,,,,,,,,,,,,,,,,,,,,,,,,,,,,,,,,,,,,,,,,,,,,,,,,,,,,,,,,,,,,,,,,,,,,,
0,55,55,24,1,,5e1f2e9726d97425b32bf5ff,62c53951217a5e1fea5d9660,2022-07-06_09h36.09.833,Colour_Asymmetry_Pilot,2022.1.3,Win32,144.0092166,62c50e9c1127f2cd403a315f,,,,,,,,,,,,,,,,,,,,,,,,,,,,,,,,,,,,,,,,,,,,,,,,,,,,,,,,,,,,,,,,,,,,,,,,,,,,,,,,,,,,,,,,,,,,,,,,,,,,,,,,,,,,,,,,,,,,,,,,,,,,,,,,,,,,,,,,,,,,,,,,,,,,,,,,,,,,,,,,,,,
0,56,56,82,1,,5e1f2e9726d97425b32bf5ff,62c53951217a5e1fea5d9660,2022-07-06_09h36.09.833,Colour_Asymmetry_Pilot,2022.1.3,Win32,144.0092166,62c50e9c1127f2cd403a315f,,,,,,,,,,,,,,,,,,,,,,,,,,,,,,,,,,,,,,,,,,,,,,,,,,,,,,,,,,,,,,,,,,,,,,,,,,,,,,,,,,,,,,,,,,,,,,,,,,,,,,,,,,,,,,,,,,,,,,,,,,,,,,,,,,,,,,,,,,,,,,,,,,,,,,,,,,,,,,,,,,,
0,57,57,78,1,,5e1f2e9726d97425b32bf5ff,62c53951217a5e1fea5d9660,2022-07-06_09h36.09.833,Colour_Asymmetry_Pilot,2022.1.3,Win32,144.0092166,62c50e9c1127f2cd403a315f,,,,,,,,,,,,,,,,,,,,,,,,,,,,,,,,,,,,,,,,,,,,,,,,,,,,,,,,,,,,,,,,,,,,,,,,,,,,,,,,,,,,,,,,,,,,,,,,,,,,,,,,,,,,,,,,,,,,,,,,,,,,,,,,,,,,,,,,,,,,,,,,,,,,,,,,,,,,,,,,,,,
0,58,58,49,1,,5e1f2e9726d97425b32bf5ff,62c53951217a5e1fea5d9660,2022-07-06_09h36.09.833,Colour_Asymmetry_Pilot,2022.1.3,Win32,144.0092166,62c50e9c1127f2cd403a315f,,,,,,,,,,,,,,,,,,,,,,,,,,,,,,,,,,,,,,,,,,,,,,,,,,,,,,,,,,,,,,,,,,,,,,,,,,,,,,,,,,,,,,,,,,,,,,,,,,,,,,,,,,,,,,,,,,,,,,,,,,,,,,,,,,,,,,,,,,,,,,,,,,,,,,,,,,,,,,,,,,,
0,59,59,83,1,,5e1f2e9726d97425b32bf5ff,62c53951217a5e1fea5d9660,2022-07-06_09h36.09.833,Colour_Asymmetry_Pilot,2022.1.3,Win32,144.0092166,62c50e9c1127f2cd403a315f,,,,,,,,,,,,,,,,,,,,,,,,,,,,,,,,,,,,,,,,,,,,,,,,,,,,,,,,,,,,,,,,,,,,,,,,,,,,,,,,,,,,,,,,,,,,,,,,,,,,,,,,,,,,,,,,,,,,,,,,,,,,,,,,,,,,,,,,,,,,,,,,,,,,,,,,,,,,,,,,,,,
0,60,60,19,1,,5e1f2e9726d97425b32bf5ff,62c53951217a5e1fea5d9660,2022-07-06_09h36.09.833,Colour_Asymmetry_Pilot,2022.1.3,Win32,144.0092166,62c50e9c1127f2cd403a315f,,,,,,,,,,,,,,,,,,,,,,,,,,,,,,,,,,,,,,,,,,,,,,,,,,,,,,,,,,,,,,,,,,,,,,,,,,,,,,,,,,,,,,,,,,,,,,,,,,,,,,,,,,,,,,,,,,,,,,,,,,,,,,,,,,,,,,,,,,,,,,,,,,,,,,,,,,,,,,,,,,,
0,61,61,66,1,,5e1f2e9726d97425b32bf5ff,62c53951217a5e1fea5d9660,2022-07-06_09h36.09.833,Colour_Asymmetry_Pilot,2022.1.3,Win32,144.0092166,62c50e9c1127f2cd403a315f,,,,,,,,,,,,,,,,,,,,,,,,,,,,,,,,,,,,,,,,,,,,,,,,,,,,,,,,,,,,,,,,,,,,,,,,,,,,,,,,,,,,,,,,,,,,,,,,,,,,,,,,,,,,,,,,,,,,,,,,,,,,,,,,,,,,,,,,,,,,,,,,,,,,,,,,,,,,,,,,,,,
0,62,62,35,1,,5e1f2e9726d97425b32bf5ff,62c53951217a5e1fea5d9660,2022-07-06_09h36.09.833,Colour_Asymmetry_Pilot,2022.1.3,Win32,144.0092166,62c50e9c1127f2cd403a315f,,,,,,,,,,,,,,,,,,,,,,,,,,,,,,,,,,,,,,,,,,,,,,,,,,,,,,,,,,,,,,,,,,,,,,,,,,,,,,,,,,,,,,,,,,,,,,,,,,,,,,,,,,,,,,,,,,,,,,,,,,,,,,,,,,,,,,,,,,,,,,,,,,,,,,,,,,,,,,,,,,,
0,63,63,38,1,,5e1f2e9726d97425b32bf5ff,62c53951217a5e1fea5d9660,2022-07-06_09h36.09.833,Colour_Asymmetry_Pilot,2022.1.3,Win32,144.0092166,62c50e9c1127f2cd403a315f,,,,,,,,,,,,,,,,,,,,,,,,,,,,,,,,,,,,,,,,,,,,,,,,,,,,,,,,,,,,,,,,,,,,,,,,,,,,,,,,,,,,,,,,,,,,,,,,,,,,,,,,,,,,,,,,,,,,,,,,,,,,,,,,,,,,,,,,,,,,,,,,,,,,,,,,,,,,,,,,,,,
0,64,64,62,1,,5e1f2e9726d97425b32bf5ff,62c53951217a5e1fea5d9660,2022-07-06_09h36.09.833,Colour_Asymmetry_Pilot,2022.1.3,Win32,144.0092166,62c50e9c1127f2cd403a315f,,,,,,,,,,,,,,,,,,,,,,,,,,,,,,,,,,,,,,,,,,,,,,,,,,,,,,,,,,,,,,,,,,,,,,,,,,,,,,,,,,,,,,,,,,,,,,,,,,,,,,,,,,,,,,,,,,,,,,,,,,,,,,,,,,,,,,,,,,,,,,,,,,,,,,,,,,,,,,,,,,,
0,65,65,64,1,,5e1f2e9726d97425b32bf5ff,62c53951217a5e1fea5d9660,2022-07-06_09h36.09.833,Colour_Asymmetry_Pilot,2022.1.3,Win32,144.0092166,62c50e9c1127f2cd403a315f,,,,,,,,,,,,,,,,,,,,,,,,,,,,,,,,,,,,,,,,,,,,,,,,,,,,,,,,,,,,,,,,,,,,,,,,,,,,,,,,,,,,,,,,,,,,,,,,,,,,,,,,,,,,,,,,,,,,,,,,,,,,,,,,,,,,,,,,,,,,,,,,,,,,,,,,,,,,,,,,,,,
0,66,66,77,1,,5e1f2e9726d97425b32bf5ff,62c53951217a5e1fea5d9660,2022-07-06_09h36.09.833,Colour_Asymmetry_Pilot,2022.1.3,Win32,144.0092166,62c50e9c1127f2cd403a315f,,,,,,,,,,,,,,,,,,,,,,,,,,,,,,,,,,,,,,,,,,,,,,,,,,,,,,,,,,,,,,,,,,,,,,,,,,,,,,,,,,,,,,,,,,,,,,,,,,,,,,,,,,,,,,,,,,,,,,,,,,,,,,,,,,,,,,,,,,,,,,,,,,,,,,,,,,,,,,,,,,,
0,67,67,53,1,,5e1f2e9726d97425b32bf5ff,62c53951217a5e1fea5d9660,2022-07-06_09h36.09.833,Colour_Asymmetry_Pilot,2022.1.3,Win32,144.0092166,62c50e9c1127f2cd403a315f,,,,,,,,,,,,,,,,,,,,,,,,,,,,,,,,,,,,,,,,,,,,,,,,,,,,,,,,,,,,,,,,,,,,,,,,,,,,,,,,,,,,,,,,,,,,,,,,,,,,,,,,,,,,,,,,,,,,,,,,,,,,,,,,,,,,,,,,,,,,,,,,,,,,,,,,,,,,,,,,,,,
0,68,68,72,1,,5e1f2e9726d97425b32bf5ff,62c53951217a5e1fea5d9660,2022-07-06_09h36.09.833,Colour_Asymmetry_Pilot,2022.1.3,Win32,144.0092166,62c50e9c1127f2cd403a315f,,,,,,,,,,,,,,,,,,,,,,,,,,,,,,,,,,,,,,,,,,,,,,,,,,,,,,,,,,,,,,,,,,,,,,,,,,,,,,,,,,,,,,,,,,,,,,,,,,,,,,,,,,,,,,,,,,,,,,,,,,,,,,,,,,,,,,,,,,,,,,,,,,,,,,,,,,,,,,,,,,,
0,69,69,84,1,,5e1f2e9726d97425b32bf5ff,62c53951217a5e1fea5d9660,2022-07-06_09h36.09.833,Colour_Asymmetry_Pilot,2022.1.3,Win32,144.0092166,62c50e9c1127f2cd403a315f,,,,,,,,,,,,,,,,,,,,,,,,,,,,,,,,,,,,,,,,,,,,,,,,,,,,,,,,,,,,,,,,,,,,,,,,,,,,,,,,,,,,,,,,,,,,,,,,,,,,,,,,,,,,,,,,,,,,,,,,,,,,,,,,,,,,,,,,,,,,,,,,,,,,,,,,,,,,,,,,,,,
0,70,70,5,1,,5e1f2e9726d97425b32bf5ff,62c53951217a5e1fea5d9660,2022-07-06_09h36.09.833,Colour_Asymmetry_Pilot,2022.1.3,Win32,144.0092166,62c50e9c1127f2cd403a315f,,,,,,,,,,,,,,,,,,,,,,,,,,,,,,,,,,,,,,,,,,,,,,,,,,,,,,,,,,,,,,,,,,,,,,,,,,,,,,,,,,,,,,,,,,,,,,,,,,,,,,,,,,,,,,,,,,,,,,,,,,,,,,,,,,,,,,,,,,,,,,,,,,,,,,,,,,,,,,,,,,,
0,71,71,92,1,,5e1f2e9726d97425b32bf5ff,62c53951217a5e1fea5d9660,2022-07-06_09h36.09.833,Colour_Asymmetry_Pilot,2022.1.3,Win32,144.0092166,62c50e9c1127f2cd403a315f,,,,,,,,,,,,,,,,,,,,,,,,,,,,,,,,,,,,,,,,,,,,,,,,,,,,,,,,,,,,,,,,,,,,,,,,,,,,,,,,,,,,,,,,,,,,,,,,,,,,,,,,,,,,,,,,,,,,,,,,,,,,,,,,,,,,,,,,,,,,,,,,,,,,,,,,,,,,,,,,,,,
0,72,72,52,1,,5e1f2e9726d97425b32bf5ff,62c53951217a5e1fea5d9660,2022-07-06_09h36.09.833,Colour_Asymmetry_Pilot,2022.1.3,Win32,144.0092166,62c50e9c1127f2cd403a315f,,,,,,,,,,,,,,,,,,,,,,,,,,,,,,,,,,,,,,,,,,,,,,,,,,,,,,,,,,,,,,,,,,,,,,,,,,,,,,,,,,,,,,,,,,,,,,,,,,,,,,,,,,,,,,,,,,,,,,,,,,,,,,,,,,,,,,,,,,,,,,,,,,,,,,,,,,,,,,,,,,,
0,73,73,11,1,,5e1f2e9726d97425b32bf5ff,62c53951217a5e1fea5d9660,2022-07-06_09h36.09.833,Colour_Asymmetry_Pilot,2022.1.3,Win32,144.0092166,62c50e9c1127f2cd403a315f,,,,,,,,,,,,,,,,,,,,,,,,,,,,,,,,,,,,,,,,,,,,,,,,,,,,,,,,,,,,,,,,,,,,,,,,,,,,,,,,,,,,,,,,,,,,,,,,,,,,,,,,,,,,,,,,,,,,,,,,,,,,,,,,,,,,,,,,,,,,,,,,,,,,,,,,,,,,,,,,,,,
0,74,74,67,1,,5e1f2e9726d97425b32bf5ff,62c53951217a5e1fea5d9660,2022-07-06_09h36.09.833,Colour_Asymmetry_Pilot,2022.1.3,Win32,144.0092166,62c50e9c1127f2cd403a315f,,,,,,,,,,,,,,,,,,,,,,,,,,,,,,,,,,,,,,,,,,,,,,,,,,,,,,,,,,,,,,,,,,,,,,,,,,,,,,,,,,,,,,,,,,,,,,,,,,,,,,,,,,,,,,,,,,,,,,,,,,,,,,,,,,,,,,,,,,,,,,,,,,,,,,,,,,,,,,,,,,,
0,75,75,20,1,,5e1f2e9726d97425b32bf5ff,62c53951217a5e1fea5d9660,2022-07-06_09h36.09.833,Colour_Asymmetry_Pilot,2022.1.3,Win32,144.0092166,62c50e9c1127f2cd403a315f,,,,,,,,,,,,,,,,,,,,,,,,,,,,,,,,,,,,,,,,,,,,,,,,,,,,,,,,,,,,,,,,,,,,,,,,,,,,,,,,,,,,,,,,,,,,,,,,,,,,,,,,,,,,,,,,,,,,,,,,,,,,,,,,,,,,,,,,,,,,,,,,,,,,,,,,,,,,,,,,,,,
0,76,76,7,1,,5e1f2e9726d97425b32bf5ff,62c53951217a5e1fea5d9660,2022-07-06_09h36.09.833,Colour_Asymmetry_Pilot,2022.1.3,Win32,144.0092166,62c50e9c1127f2cd403a315f,,,,,,,,,,,,,,,,,,,,,,,,,,,,,,,,,,,,,,,,,,,,,,,,,,,,,,,,,,,,,,,,,,,,,,,,,,,,,,,,,,,,,,,,,,,,,,,,,,,,,,,,,,,,,,,,,,,,,,,,,,,,,,,,,,,,,,,,,,,,,,,,,,,,,,,,,,,,,,,,,,,
0,77,77,57,1,,5e1f2e9726d97425b32bf5ff,62c53951217a5e1fea5d9660,2022-07-06_09h36.09.833,Colour_Asymmetry_Pilot,2022.1.3,Win32,144.0092166,62c50e9c1127f2cd403a315f,,,,,,,,,,,,,,,,,,,,,,,,,,,,,,,,,,,,,,,,,,,,,,,,,,,,,,,,,,,,,,,,,,,,,,,,,,,,,,,,,,,,,,,,,,,,,,,,,,,,,,,,,,,,,,,,,,,,,,,,,,,,,,,,,,,,,,,,,,,,,,,,,,,,,,,,,,,,,,,,,,,
0,78,78,48,1,,5e1f2e9726d97425b32bf5ff,62c53951217a5e1fea5d9660,2022-07-06_09h36.09.833,Colour_Asymmetry_Pilot,2022.1.3,Win32,144.0092166,62c50e9c1127f2cd403a315f,,,,,,,,,,,,,,,,,,,,,,,,,,,,,,,,,,,,,,,,,,,,,,,,,,,,,,,,,,,,,,,,,,,,,,,,,,,,,,,,,,,,,,,,,,,,,,,,,,,,,,,,,,,,,,,,,,,,,,,,,,,,,,,,,,,,,,,,,,,,,,,,,,,,,,,,,,,,,,,,,,,
0,79,79,73,1,,5e1f2e9726d97425b32bf5ff,62c53951217a5e1fea5d9660,2022-07-06_09h36.09.833,Colour_Asymmetry_Pilot,2022.1.3,Win32,144.0092166,62c50e9c1127f2cd403a315f,,,,,,,,,,,,,,,,,,,,,,,,,,,,,,,,,,,,,,,,,,,,,,,,,,,,,,,,,,,,,,,,,,,,,,,,,,,,,,,,,,,,,,,,,,,,,,,,,,,,,,,,,,,,,,,,,,,,,,,,,,,,,,,,,,,,,,,,,,,,,,,,,,,,,,,,,,,,,,,,,,,
0,80,80,1,1,,5e1f2e9726d97425b32bf5ff,62c53951217a5e1fea5d9660,2022-07-06_09h36.09.833,Colour_Asymmetry_Pilot,2022.1.3,Win32,144.0092166,62c50e9c1127f2cd403a315f,,,,,,,,,,,,,,,,,,,,,,,,,,,,,,,,,,,,,,,,,,,,,,,,,,,,,,,,,,,,,,,,,,,,,,,,,,,,,,,,,,,,,,,,,,,,,,,,,,,,,,,,,,,,,,,,,,,,,,,,,,,,,,,,,,,,,,,,,,,,,,,,,,,,,,,,,,,,,,,,,,,
0,81,81,47,1,,5e1f2e9726d97425b32bf5ff,62c53951217a5e1fea5d9660,2022-07-06_09h36.09.833,Colour_Asymmetry_Pilot,2022.1.3,Win32,144.0092166,62c50e9c1127f2cd403a315f,,,,,,,,,,,,,,,,,,,,,,,,,,,,,,,,,,,,,,,,,,,,,,,,,,,,,,,,,,,,,,,,,,,,,,,,,,,,,,,,,,,,,,,,,,,,,,,,,,,,,,,,,,,,,,,,,,,,,,,,,,,,,,,,,,,,,,,,,,,,,,,,,,,,,,,,,,,,,,,,,,,
0,82,82,88,1,,5e1f2e9726d97425b32bf5ff,62c53951217a5e1fea5d9660,2022-07-06_09h36.09.833,Colour_Asymmetry_Pilot,2022.1.3,Win32,144.0092166,62c50e9c1127f2cd403a315f,,,,,,,,,,,,,,,,,,,,,,,,,,,,,,,,,,,,,,,,,,,,,,,,,,,,,,,,,,,,,,,,,,,,,,,,,,,,,,,,,,,,,,,,,,,,,,,,,,,,,,,,,,,,,,,,,,,,,,,,,,,,,,,,,,,,,,,,,,,,,,,,,,,,,,,,,,,,,,,,,,,
0,83,83,16,1,,5e1f2e9726d97425b32bf5ff,62c53951217a5e1fea5d9660,2022-07-06_09h36.09.833,Colour_Asymmetry_Pilot,2022.1.3,Win32,144.0092166,62c50e9c1127f2cd403a315f,,,,,,,,,,,,,,,,,,,,,,,,,,,,,,,,,,,,,,,,,,,,,,,,,,,,,,,,,,,,,,,,,,,,,,,,,,,,,,,,,,,,,,,,,,,,,,,,,,,,,,,,,,,,,,,,,,,,,,,,,,,,,,,,,,,,,,,,,,,,,,,,,,,,,,,,,,,,,,,,,,,
0,84,84,17,1,,5e1f2e9726d97425b32bf5ff,62c53951217a5e1fea5d9660,2022-07-06_09h36.09.833,Colour_Asymmetry_Pilot,2022.1.3,Win32,144.0092166,62c50e9c1127f2cd403a315f,,,,,,,,,,,,,,,,,,,,,,,,,,,,,,,,,,,,,,,,,,,,,,,,,,,,,,,,,,,,,,,,,,,,,,,,,,,,,,,,,,,,,,,,,,,,,,,,,,,,,,,,,,,,,,,,,,,,,,,,,,,,,,,,,,,,,,,,,,,,,,,,,,,,,,,,,,,,,,,,,,,
0,85,85,89,1,,5e1f2e9726d97425b32bf5ff,62c53951217a5e1fea5d9660,2022-07-06_09h36.09.833,Colour_Asymmetry_Pilot,2022.1.3,Win32,144.0092166,62c50e9c1127f2cd403a315f,,,,,,,,,,,,,,,,,,,,,,,,,,,,,,,,,,,,,,,,,,,,,,,,,,,,,,,,,,,,,,,,,,,,,,,,,,,,,,,,,,,,,,,,,,,,,,,,,,,,,,,,,,,,,,,,,,,,,,,,,,,,,,,,,,,,,,,,,,,,,,,,,,,,,,,,,,,,,,,,,,,
0,86,86,3,1,,5e1f2e9726d97425b32bf5ff,62c53951217a5e1fea5d9660,2022-07-06_09h36.09.833,Colour_Asymmetry_Pilot,2022.1.3,Win32,144.0092166,62c50e9c1127f2cd403a315f,,,,,,,,,,,,,,,,,,,,,,,,,,,,,,,,,,,,,,,,,,,,,,,,,,,,,,,,,,,,,,,,,,,,,,,,,,,,,,,,,,,,,,,,,,,,,,,,,,,,,,,,,,,,,,,,,,,,,,,,,,,,,,,,,,,,,,,,,,,,,,,,,,,,,,,,,,,,,,,,,,,
0,87,87,44,1,,5e1f2e9726d97425b32bf5ff,62c53951217a5e1fea5d9660,2022-07-06_09h36.09.833,Colour_Asymmetry_Pilot,2022.1.3,Win32,144.0092166,62c50e9c1127f2cd403a315f,,,,,,,,,,,,,,,,,,,,,,,,,,,,,,,,,,,,,,,,,,,,,,,,,,,,,,,,,,,,,,,,,,,,,,,,,,,,,,,,,,,,,,,,,,,,,,,,,,,,,,,,,,,,,,,,,,,,,,,,,,,,,,,,,,,,,,,,,,,,,,,,,,,,,,,,,,,,,,,,,,,
0,88,88,15,1,,5e1f2e9726d97425b32bf5ff,62c53951217a5e1fea5d9660,2022-07-06_09h36.09.833,Colour_Asymmetry_Pilot,2022.1.3,Win32,144.0092166,62c50e9c1127f2cd403a315f,,,,,,,,,,,,,,,,,,,,,,,,,,,,,,,,,,,,,,,,,,,,,,,,,,,,,,,,,,,,,,,,,,,,,,,,,,,,,,,,,,,,,,,,,,,,,,,,,,,,,,,,,,,,,,,,,,,,,,,,,,,,,,,,,,,,,,,,,,,,,,,,,,,,,,,,,,,,,,,,,,,
0,89,89,55,1,,5e1f2e9726d97425b32bf5ff,62c53951217a5e1fea5d9660,2022-07-06_09h36.09.833,Colour_Asymmetry_Pilot,2022.1.3,Win32,144.0092166,62c50e9c1127f2cd403a315f,,,,,,,,,,,,,,,,,,,,,,,,,,,,,,,,,,,,,,,,,,,,,,,,,,,,,,,,,,,,,,,,,,,,,,,,,,,,,,,,,,,,,,,,,,,,,,,,,,,,,,,,,,,,,,,,,,,,,,,,,,,,,,,,,,,,,,,,,,,,,,,,,,,,,,,,,,,,,,,,,,,
0,90,90,26,1,,5e1f2e9726d97425b32bf5ff,62c53951217a5e1fea5d9660,2022-07-06_09h36.09.833,Colour_Asymmetry_Pilot,2022.1.3,Win32,144.0092166,62c50e9c1127f2cd403a315f,,,,,,,,,,,,,,,,,,,,,,,,,,,,,,,,,,,,,,,,,,,,,,,,,,,,,,,,,,,,,,,,,,,,,,,,,,,,,,,,,,,,,,,,,,,,,,,,,,,,,,,,,,,,,,,,,,,,,,,,,,,,,,,,,,,,,,,,,,,,,,,,,,,,,,,,,,,,,,,,,,,
0,91,91,63,1,,5e1f2e9726d97425b32bf5ff,62c53951217a5e1fea5d9660,2022-07-06_09h36.09.833,Colour_Asymmetry_Pilot,2022.1.3,Win32,144.0092166,62c50e9c1127f2cd403a315f,,,,,,,,,,,,,,,,,,,,,,,,,,,,,,,,,,,,,,,,,,,,,,,,,,,,,,,,,,,,,,,,,,,,,,,,,,,,,,,,,,,,,,,,,,,,,,,,,,,,,,,,,,,,,,,,,,,,,,,,,,,,,,,,,,,,,,,,,,,,,,,,,,,,,,,,,,,,,,,,,,,
0,92,92,42,1,,5e1f2e9726d97425b32bf5ff,62c53951217a5e1fea5d9660,2022-07-06_09h36.09.833,Colour_Asymmetry_Pilot,2022.1.3,Win32,144.0092166,62c50e9c1127f2cd403a315f,,,,,,,,,,,,,,,,,,,,,,,,,,,,,,,,,,,,,,,,,,,,,,,,,,,,,,,,,,,,,,,,,,,,,,,,,,,,,,,,,,,,,,,,,,,,,,,,,,,,,,,,,,,,,,,,,,,,,,,,,,,,,,,,,,,,,,,,,,,,,,,,,,,,,,,,,,,,,,,,,,,
,,,,,,5e1f2e9726d97425b32bf5ff,62c53951217a5e1fea5d9660,2022-07-06_09h36.09.833,Colour_Asymmetry_Pilot,2022.1.3,Win32,144.0092166,62c50e9c1127f2cd403a315f,0,0,0,83,1,twofour,,,,,,,,,,,,,,,,,,,,,,,,,,,,,,,,,,,,,,,,,,,,,,,,,,,,,,,,,,,,,,,,,,,,,,,,,,,,,,,,,,,,,,,,,,,,,,,,,,,,,,,,,,,,,,,,,,,,,,,,,,,,,,,,,,,,,,,,,,,,,,,,,,,,,,,,,,,,,
,,,,,,5e1f2e9726d97425b32bf5ff,62c53951217a5e1fea5d9660,2022-07-06_09h36.09.833,Colour_Asymmetry_Pilot,2022.1.3,Win32,144.0092166,62c50e9c1127f2cd403a315f,0,1,1,62,1,fourtwo,,,,,,,,,,,,,,,,,,,,,,,,,,,,,,,,,,,,,,,,,,,,,,,,,,,,,,,,,,,,,,,,,,,,,,,,,,,,,,,,,,,,,,,,,,,,,,,,,,,,,,,,,,,,,,,,,,,,,,,,,,,,,,,,,,,,,,,,,,,,,,,,,,,,,,,,,,,,,
,,,,,,5e1f2e9726d97425b32bf5ff,62c53951217a5e1fea5d9660,2022-07-06_09h36.09.833,Colour_Asymmetry_Pilot,2022.1.3,Win32,144.0092166,62c50e9c1127f2cd403a315f,0,2,2,130,1,twoone,,,,,,,,,,,,,,,,,,,,,,,,,,,,,,,,,,,,,,,,,,,,,,,,,,,,,,,,,,,,,,,,,,,,,,,,,,,,,,,,,,,,,,,,,,,,,,,,,,,,,,,,,,,,,,,,,,,,,,,,,,,,,,,,,,,,,,,,,,,,,,,,,,,,,,,,,,,,,
,,,,,,5e1f2e9726d97425b32bf5ff,62c53951217a5e1fea5d9660,2022-07-06_09h36.09.833,Colour_Asymmetry_Pilot,2022.1.3,Win32,144.0092166,62c50e9c1127f2cd403a315f,0,3,3,19,1,twofour,,,,,,,,,,,,,,,,,,,,,,,,,,,,,,,,,,,,,,,,,,,,,,,,,,,,,,,,,,,,,,,,,,,,,,,,,,,,,,,,,,,,,,,,,,,,,,,,,,,,,,,,,,,,,,,,,,,,,,,,,,,,,,,,,,,,,,,,,,,,,,,,,,,,,,,,,,,,,
,,,,,,5e1f2e9726d97425b32bf5ff,62c53951217a5e1fea5d9660,2022-07-06_09h36.09.833,Colour_Asymmetry_Pilot,2022.1.3,Win32,144.0092166,62c50e9c1127f2cd403a315f,0,4,4,95,1,fourthree,,,,,,,,,,,,,,,,,,,,,,,,,,,,,,,,,,,,,,,,,,,,,,,,,,,,,,,,,,,,,,,,,,,,,,,,,,,,,,,,,,,,,,,,,,,,,,,,,,,,,,,,,,,,,,,,,,,,,,,,,,,,,,,,,,,,,,,,,,,,,,,,,,,,,,,,,,,,,
,,,,,,5e1f2e9726d97425b32bf5ff,62c53951217a5e1fea5d9660,2022-07-06_09h36.09.833,Colour_Asymmetry_Pilot,2022.1.3,Win32,144.0092166,62c50e9c1127f2cd403a315f,0,5,5,104,1,onetwo,,,,,,,,,,,,,,,,,,,,,,,,,,,,,,,,,,,,,,,,,,,,,,,,,,,,,,,,,,,,,,,,,,,,,,,,,,,,,,,,,,,,,,,,,,,,,,,,,,,,,,,,,,,,,,,,,,,,,,,,,,,,,,,,,,,,,,,,,,,,,,,,,,,,,,,,,,,,,
,,,,,,5e1f2e9726d97425b32bf5ff,62c53951217a5e1fea5d9660,2022-07-06_09h36.09.833,Colour_Asymmetry_Pilot,2022.1.3,Win32,144.0092166,62c50e9c1127f2cd403a315f,0,6,6,70,1,fourtwo,,,,,,,,,,,,,,,,,,,,,,,,,,,,,,,,,,,,,,,,,,,,,,,,,,,,,,,,,,,,,,,,,,,,,,,,,,,,,,,,,,,,,,,,,,,,,,,,,,,,,,,,,,,,,,,,,,,,,,,,,,,,,,,,,,,,,,,,,,,,,,,,,,,,,,,,,,,,,
,,,,,,5e1f2e9726d97425b32bf5ff,62c53951217a5e1fea5d9660,2022-07-06_09h36.09.833,Colour_Asymmetry_Pilot,2022.1.3,Win32,144.0092166,62c50e9c1127f2cd403a315f,0,7,7,44,1,threeone,,,,,,,,,,,,,,,,,,,,,,,,,,,,,,,,,,,,,,,,,,,,,,,,,,,,,,,,,,,,,,,,,,,,,,,,,,,,,,,,,,,,,,,,,,,,,,,,,,,,,,,,,,,,,,,,,,,,,,,,,,,,,,,,,,,,,,,,,,,,,,,,,,,,,,,,,,,,,
,,,,,,5e1f2e9726d97425b32bf5ff,62c53951217a5e1fea5d9660,2022-07-06_09h36.09.833,Colour_Asymmetry_Pilot,2022.1.3,Win32,144.0092166,62c50e9c1127f2cd403a315f,0,8,8,114,1,twoone,,,,,,,,,,,,,,,,,,,,,,,,,,,,,,,,,,,,,,,,,,,,,,,,,,,,,,,,,,,,,,,,,,,,,,,,,,,,,,,,,,,,,,,,,,,,,,,,,,,,,,,,,,,,,,,,,,,,,,,,,,,,,,,,,,,,,,,,,,,,,,,,,,,,,,,,,,,,,
,,,,,,5e1f2e9726d97425b32bf5ff,62c53951217a5e1fea5d9660,2022-07-06_09h36.09.833,Colour_Asymmetry_Pilot,2022.1.3,Win32,144.0092166,62c50e9c1127f2cd403a315f,0,9,9,87,1,fourthree,,,,,,,,,,,,,,,,,,,,,,,,,,,,,,,,,,,,,,,,,,,,,,,,,,,,,,,,,,,,,,,,,,,,,,,,,,,,,,,,,,,,,,,,,,,,,,,,,,,,,,,,,,,,,,,,,,,,,,,,,,,,,,,,,,,,,,,,,,,,,,,,,,,,,,,,,,,,,
,,,,,,5e1f2e9726d97425b32bf5ff,62c53951217a5e1fea5d9660,2022-07-06_09h36.09.833,Colour_Asymmetry_Pilot,2022.1.3,Win32,144.0092166,62c50e9c1127f2cd403a315f,0,10,10,140,1,threeone,,,,,,,,,,,,,,,,,,,,,,,,,,,,,,,,,,,,,,,,,,,,,,,,,,,,,,,,,,,,,,,,,,,,,,,,,,,,,,,,,,,,,,,,,,,,,,,,,,,,,,,,,,,,,,,,,,,,,,,,,,,,,,,,,,,,,,,,,,,,,,,,,,,,,,,,,,,,,
,,,,,,5e1f2e9726d97425b32bf5ff,62c53951217a5e1fea5d9660,2022-07-06_09h36.09.833,Colour_Asymmetry_Pilot,2022.1.3,Win32,144.0092166,62c50e9c1127f2cd403a315f,0,11,11,68,1,threeone,,,,,,,,,,,,,,,,,,,,,,,,,,,,,,,,,,,,,,,,,,,,,,,,,,,,,,,,,,,,,,,,,,,,,,,,,,,,,,,,,,,,,,,,,,,,,,,,,,,,,,,,,,,,,,,,,,,,,,,,,,,,,,,,,,,,,,,,,,,,,,,,,,,,,,,,,,,,,
,,,,,,5e1f2e9726d97425b32bf5ff,62c53951217a5e1fea5d9660,2022-07-06_09h36.09.833,Colour_Asymmetry_Pilot,2022.1.3,Win32,144.0092166,62c50e9c1127f2cd403a315f,0,12,12,102,1,fourtwo,,,,,,,,,,,,,,,,,,,,,,,,,,,,,,,,,,,,,,,,,,,,,,,,,,,,,,,,,,,,,,,,,,,,,,,,,,,,,,,,,,,,,,,,,,,,,,,,,,,,,,,,,,,,,,,,,,,,,,,,,,,,,,,,,,,,,,,,,,,,,,,,,,,,,,,,,,,,,
,,,,,,5e1f2e9726d97425b32bf5ff,62c53951217a5e1fea5d9660,2022-07-06_09h36.09.833,Colour_Asymmetry_Pilot,2022.1.3,Win32,144.0092166,62c50e9c1127f2cd403a315f,0,13,13,12,1,threeone,,,,,,,,,,,,,,,,,,,,,,,,,,,,,,,,,,,,,,,,,,,,,,,,,,,,,,,,,,,,,,,,,,,,,,,,,,,,,,,,,,,,,,,,,,,,,,,,,,,,,,,,,,,,,,,,,,,,,,,,,,,,,,,,,,,,,,,,,,,,,,,,,,,,,,,,,,,,,
,,,,,,5e1f2e9726d97425b32bf5ff,62c53951217a5e1fea5d9660,2022-07-06_09h36.09.833,Colour_Asymmetry_Pilot,2022.1.3,Win32,144.0092166,62c50e9c1127f2cd403a315f,0,14,14,121,1,onethree,,,,,,,,,,,,,,,,,,,,,,,,,,,,,,,,,,,,,,,,,,,,,,,,,,,,,,,,,,,,,,,,,,,,,,,,,,,,,,,,,,,,,,,,,,,,,,,,,,,,,,,,,,,,,,,,,,,,,,,,,,,,,,,,,,,,,,,,,,,,,,,,,,,,,,,,,,,,,
,,,,,,5e1f2e9726d97425b32bf5ff,62c53951217a5e1fea5d9660,2022-07-06_09h36.09.833,Colour_Asymmetry_Pilot,2022.1.3,Win32,144.0092166,62c50e9c1127f2cd403a315f,0,15,15,58,1,twoone,,,,,,,,,,,,,,,,,,,,,,,,,,,,,,,,,,,,,,,,,,,,,,,,,,,,,,,,,,,,,,,,,,,,,,,,,,,,,,,,,,,,,,,,,,,,,,,,,,,,,,,,,,,,,,,,,,,,,,,,,,,,,,,,,,,,,,,,,,,,,,,,,,,,,,,,,,,,,
,,,,,,5e1f2e9726d97425b32bf5ff,62c53951217a5e1fea5d9660,2022-07-06_09h36.09.833,Colour_Asymmetry_Pilot,2022.1.3,Win32,144.0092166,62c50e9c1127f2cd403a315f,0,16,16,92,1,threeone,,,,,,,,,,,,,,,,,,,,,,,,,,,,,,,,,,,,,,,,,,,,,,,,,,,,,,,,,,,,,,,,,,,,,,,,,,,,,,,,,,,,,,,,,,,,,,,,,,,,,,,,,,,,,,,,,,,,,,,,,,,,,,,,,,,,,,,,,,,,,,,,,,,,,,,,,,,,,
,,,,,,5e1f2e9726d97425b32bf5ff,62c53951217a5e1fea5d9660,2022-07-06_09h36.09.833,Colour_Asymmetry_Pilot,2022.1.3,Win32,144.0092166,62c50e9c1127f2cd403a315f,0,17,17,35,1,twofour,,,,,,,,,,,,,,,,,,,,,,,,,,,,,,,,,,,,,,,,,,,,,,,,,,,,,,,,,,,,,,,,,,,,,,,,,,,,,,,,,,,,,,,,,,,,,,,,,,,,,,,,,,,,,,,,,,,,,,,,,,,,,,,,,,,,,,,,,,,,,,,,,,,,,,,,,,,,,
,,,,,,5e1f2e9726d97425b32bf5ff,62c53951217a5e1fea5d9660,2022-07-06_09h36.09.833,Colour_Asymmetry_Pilot,2022.1.3,Win32,144.0092166,62c50e9c1127f2cd403a315f,0,18,18,5,1,threefour,,,,,,,,,,,,,,,,,,,,,,,,,,,,,,,,,,,,,,,,,,,,,,,,,,,,,,,,,,,,,,,,,,,,,,,,,,,,,,,,,,,,,,,,,,,,,,,,,,,,,,,,,,,,,,,,,,,,,,,,,,,,,,,,,,,,,,,,,,,,,,,,,,,,,,,,,,,,,
,,,,,,5e1f2e9726d97425b32bf5ff,62c53951217a5e1fea5d9660,2022-07-06_09h36.09.833,Colour_Asymmetry_Pilot,2022.1.3,Win32,144.0092166,62c50e9c1127f2cd403a315f,0,19,19,150,1,fourtwo,,,,,,,,,,,,,,,,,,,,,,,,,,,,,,,,,,,,,,,,,,,,,,,,,,,,,,,,,,,,,,,,,,,,,,,,,,,,,,,,,,,,,,,,,,,,,,,,,,,,,,,,,,,,,,,,,,,,,,,,,,,,,,,,,,,,,,,,,,,,,,,,,,,,,,,,,,,,,
,,,,,,5e1f2e9726d97425b32bf5ff,62c53951217a5e1fea5d9660,2022-07-06_09h36.09.833,Colour_Asymmetry_Pilot,2022.1.3,Win32,144.0092166,62c50e9c1127f2cd403a315f,0,20,20,45,1,threefour,,,,,,,,,,,,,,,,,,,,,,,,,,,,,,,,,,,,,,,,,,,,,,,,,,,,,,,,,,,,,,,,,,,,,,,,,,,,,,,,,,,,,,,,,,,,,,,,,,,,,,,,,,,,,,,,,,,,,,,,,,,,,,,,,,,,,,,,,,,,,,,,,,,,,,,,,,,,,
,,,,,,5e1f2e9726d97425b32bf5ff,62c53951217a5e1fea5d9660,2022-07-06_09h36.09.833,Colour_Asymmetry_Pilot,2022.1.3,Win32,144.0092166,62c50e9c1127f2cd403a315f,0,21,21,43,1,twofour,,,,,,,,,,,,,,,,,,,,,,,,,,,,,,,,,,,,,,,,,,,,,,,,,,,,,,,,,,,,,,,,,,,,,,,,,,,,,,,,,,,,,,,,,,,,,,,,,,,,,,,,,,,,,,,,,,,,,,,,,,,,,,,,,,,,,,,,,,,,,,,,,,,,,,,,,,,,,
,,,,,,5e1f2e9726d97425b32bf5ff,62c53951217a5e1fea5d9660,2022-07-06_09h36.09.833,Colour_Asymmetry_Pilot,2022.1.3,Win32,144.0092166,62c50e9c1127f2cd403a315f,0,22,22,112,1,onetwo,,,,,,,,,,,,,,,,,,,,,,,,,,,,,,,,,,,,,,,,,,,,,,,,,,,,,,,,,,,,,,,,,,,,,,,,,,,,,,,,,,,,,,,,,,,,,,,,,,,,,,,,,,,,,,,,,,,,,,,,,,,,,,,,,,,,,,,,,,,,,,,,,,,,,,,,,,,,,
,,,,,,5e1f2e9726d97425b32bf5ff,62c53951217a5e1fea5d9660,2022-07-06_09h36.09.833,Colour_Asymmetry_Pilot,2022.1.3,Win32,144.0092166,62c50e9c1127f2cd403a315f,0,23,23,13,1,threefour,,,,,,,,,,,,,,,,,,,,,,,,,,,,,,,,,,,,,,,,,,,,,,,,,,,,,,,,,,,,,,,,,,,,,,,,,,,,,,,,,,,,,,,,,,,,,,,,,,,,,,,,,,,,,,,,,,,,,,,,,,,,,,,,,,,,,,,,,,,,,,,,,,,,,,,,,,,,,
,,,,,,5e1f2e9726d97425b32bf5ff,62c53951217a5e1fea5d9660,2022-07-06_09h36.09.833,Colour_Asymmetry_Pilot,2022.1.3,Win32,144.0092166,62c50e9c1127f2cd403a315f,0,24,24,129,1,onethree,,,,,,,,,,,,,,,,,,,,,,,,,,,,,,,,,,,,,,,,,,,,,,,,,,,,,,,,,,,,,,,,,,,,,,,,,,,,,,,,,,,,,,,,,,,,,,,,,,,,,,,,,,,,,,,,,,,,,,,,,,,,,,,,,,,,,,,,,,,,,,,,,,,,,,,,,,,,,
,,,,,,5e1f2e9726d97425b32bf5ff,62c53951217a5e1fea5d9660,2022-07-06_09h36.09.833,Colour_Asymmetry_Pilot,2022.1.3,Win32,144.0092166,62c50e9c1127f2cd403a315f,0,25,25,89,1,onethree,,,,,,,,,,,,,,,,,,,,,,,,,,,,,,,,,,,,,,,,,,,,,,,,,,,,,,,,,,,,,,,,,,,,,,,,,,,,,,,,,,,,,,,,,,,,,,,,,,,,,,,,,,,,,,,,,,,,,,,,,,,,,,,,,,,,,,,,,,,,,,,,,,,,,,,,,,,,,
,,,,,,5e1f2e9726d97425b32bf5ff,62c53951217a5e1fea5d9660,2022-07-06_09h36.09.833,Colour_Asymmetry_Pilot,2022.1.3,Win32,144.0092166,62c50e9c1127f2cd403a315f,0,26,26,119,1,fourthree,,,,,,,,,,,,,,,,,,,,,,,,,,,,,,,,,,,,,,,,,,,,,,,,,,,,,,,,,,,,,,,,,,,,,,,,,,,,,,,,,,,,,,,,,,,,,,,,,,,,,,,,,,,,,,,,,,,,,,,,,,,,,,,,,,,,,,,,,,,,,,,,,,,,,,,,,,,,,
,,,,,,5e1f2e9726d97425b32bf5ff,62c53951217a5e1fea5d9660,2022-07-06_09h36.09.833,Colour_Asymmetry_Pilot,2022.1.3,Win32,144.0092166,62c50e9c1127f2cd403a315f,0,27,27,24,1,onetwo,,,,,,,,,,,,,,,,,,,,,,,,,,,,,,,,,,,,,,,,,,,,,,,,,,,,,,,,,,,,,,,,,,,,,,,,,,,,,,,,,,,,,,,,,,,,,,,,,,,,,,,,,,,,,,,,,,,,,,,,,,,,,,,,,,,,,,,,,,,,,,,,,,,,,,,,,,,,,
,,,,,,5e1f2e9726d97425b32bf5ff,62c53951217a5e1fea5d9660,2022-07-06_09h36.09.833,Colour_Asymmetry_Pilot,2022.1.3,Win32,144.0092166,62c50e9c1127f2cd403a315f,0,28,28,124,1,threeone,,,,,,,,,,,,,,,,,,,,,,,,,,,,,,,,,,,,,,,,,,,,,,,,,,,,,,,,,,,,,,,,,,,,,,,,,,,,,,,,,,,,,,,,,,,,,,,,,,,,,,,,,,,,,,,,,,,,,,,,,,,,,,,,,,,,,,,,,,,,,,,,,,,,,,,,,,,,,
,,,,,,5e1f2e9726d97425b32bf5ff,62c53951217a5e1fea5d9660,2022-07-06_09h36.09.833,Colour_Asymmetry_Pilot,2022.1.3,Win32,144.0092166,62c50e9c1127f2cd403a315f,0,29,29,85,1,threefour,,,,,,,,,,,,,,,,,,,,,,,,,,,,,,,,,,,,,,,,,,,,,,,,,,,,,,,,,,,,,,,,,,,,,,,,,,,,,,,,,,,,,,,,,,,,,,,,,,,,,,,,,,,,,,,,,,,,,,,,,,,,,,,,,,,,,,,,,,,,,,,,,,,,,,,,,,,,,
,,,,,,5e1f2e9726d97425b32bf5ff,62c53951217a5e1fea5d9660,2022-07-06_09h36.09.833,Colour_Asymmetry_Pilot,2022.1.3,Win32,144.0092166,62c50e9c1127f2cd403a315f,0,30,30,2,1,twoone,,,,,,,,,,,,,,,,,,,,,,,,,,,,,,,,,,,,,,,,,,,,,,,,,,,,,,,,,,,,,,,,,,,,,,,,,,,,,,,,,,,,,,,,,,,,,,,,,,,,,,,,,,,,,,,,,,,,,,,,,,,,,,,,,,,,,,,,,,,,,,,,,,,,,,,,,,,,,
,,,,,,5e1f2e9726d97425b32bf5ff,62c53951217a5e1fea5d9660,2022-07-06_09h36.09.833,Colour_Asymmetry_Pilot,2022.1.3,Win32,144.0092166,62c50e9c1127f2cd403a315f,0,31,31,4,1,threeone,,,,,,,,,,,,,,,,,,,,,,,,,,,,,,,,,,,,,,,,,,,,,,,,,,,,,,,,,,,,,,,,,,,,,,,,,,,,,,,,,,,,,,,,,,,,,,,,,,,,,,,,,,,,,,,,,,,,,,,,,,,,,,,,,,,,,,,,,,,,,,,,,,,,,,,,,,,,,
,,,,,,5e1f2e9726d97425b32bf5ff,62c53951217a5e1fea5d9660,2022-07-06_09h36.09.833,Colour_Asymmetry_Pilot,2022.1.3,Win32,144.0092166,62c50e9c1127f2cd403a315f,0,32,32,157,1,threefour,,,,,,,,,,,,,,,,,,,,,,,,,,,,,,,,,,,,,,,,,,,,,,,,,,,,,,,,,,,,,,,,,,,,,,,,,,,,,,,,,,,,,,,,,,,,,,,,,,,,,,,,,,,,,,,,,,,,,,,,,,,,,,,,,,,,,,,,,,,,,,,,,,,,,,,,,,,,,
,,,,,,5e1f2e9726d97425b32bf5ff,62c53951217a5e1fea5d9660,2022-07-06_09h36.09.833,Colour_Asymmetry_Pilot,2022.1.3,Win32,144.0092166,62c50e9c1127f2cd403a315f,0,33,33,155,1,twofour,,,,,,,,,,,,,,,,,,,,,,,,,,,,,,,,,,,,,,,,,,,,,,,,,,,,,,,,,,,,,,,,,,,,,,,,,,,,,,,,,,,,,,,,,,,,,,,,,,,,,,,,,,,,,,,,,,,,,,,,,,,,,,,,,,,,,,,,,,,,,,,,,,,,,,,,,,,,,
,,,,,,5e1f2e9726d97425b32bf5ff,62c53951217a5e1fea5d9660,2022-07-06_09h36.09.833,Colour_Asymmetry_Pilot,2022.1.3,Win32,144.0092166,62c50e9c1127f2cd403a315f,0,34,34,156,1,threeone,,,,,,,,,,,,,,,,,,,,,,,,,,,,,,,,,,,,,,,,,,,,,,,,,,,,,,,,,,,,,,,,,,,,,,,,,,,,,,,,,,,,,,,,,,,,,,,,,,,,,,,,,,,,,,,,,,,,,,,,,,,,,,,,,,,,,,,,,,,,,,,,,,,,,,,,,,,,,
,,,,,,5e1f2e9726d97425b32bf5ff,62c53951217a5e1fea5d9660,2022-07-06_09h36.09.833,Colour_Asymmetry_Pilot,2022.1.3,Win32,144.0092166,62c50e9c1127f2cd403a315f,0,35,35,158,1,fourtwo,,,,,,,,,,,,,,,,,,,,,,,,,,,,,,,,,,,,,,,,,,,,,,,,,,,,,,,,,,,,,,,,,,,,,,,,,,,,,,,,,,,,,,,,,,,,,,,,,,,,,,,,,,,,,,,,,,,,,,,,,,,,,,,,,,,,,,,,,,,,,,,,,,,,,,,,,,,,,
,,,,,,5e1f2e9726d97425b32bf5ff,62c53951217a5e1fea5d9660,2022-07-06_09h36.09.833,Colour_Asymmetry_Pilot,2022.1.3,Win32,144.0092166,62c50e9c1127f2cd403a315f,0,36,36,133,1,threefour,,,,,,,,,,,,,,,,,,,,,,,,,,,,,,,,,,,,,,,,,,,,,,,,,,,,,,,,,,,,,,,,,,,,,,,,,,,,,,,,,,,,,,,,,,,,,,,,,,,,,,,,,,,,,,,,,,,,,,,,,,,,,,,,,,,,,,,,,,,,,,,,,,,,,,,,,,,,,
,,,,,,5e1f2e9726d97425b32bf5ff,62c53951217a5e1fea5d9660,2022-07-06_09h36.09.833,Colour_Asymmetry_Pilot,2022.1.3,Win32,144.0092166,62c50e9c1127f2cd403a315f,0,37,37,15,1,fourthree,,,,,,,,,,,,,,,,,,,,,,,,,,,,,,,,,,,,,,,,,,,,,,,,,,,,,,,,,,,,,,,,,,,,,,,,,,,,,,,,,,,,,,,,,,,,,,,,,,,,,,,,,,,,,,,,,,,,,,,,,,,,,,,,,,,,,,,,,,,,,,,,,,,,,,,,,,,,,
,,,,,,5e1f2e9726d97425b32bf5ff,62c53951217a5e1fea5d9660,2022-07-06_09h36.09.833,Colour_Asymmetry_Pilot,2022.1.3,Win32,144.0092166,62c50e9c1127f2cd403a315f,0,38,38,126,1,fourtwo,,,,,,,,,,,,,,,,,,,,,,,,,,,,,,,,,,,,,,,,,,,,,,,,,,,,,,,,,,,,,,,,,,,,,,,,,,,,,,,,,,,,,,,,,,,,,,,,,,,,,,,,,,,,,,,,,,,,,,,,,,,,,,,,,,,,,,,,,,,,,,,,,,,,,,,,,,,,,
,,,,,,5e1f2e9726d97425b32bf5ff,62c53951217a5e1fea5d9660,2022-07-06_09h36.09.833,Colour_Asymmetry_Pilot,2022.1.3,Win32,144.0092166,62c50e9c1127f2cd403a315f,0,39,39,86,1,fourtwo,,,,,,,,,,,,,,,,,,,,,,,,,,,,,,,,,,,,,,,,,,,,,,,,,,,,,,,,,,,,,,,,,,,,,,,,,,,,,,,,,,,,,,,,,,,,,,,,,,,,,,,,,,,,,,,,,,,,,,,,,,,,,,,,,,,,,,,,,,,,,,,,,,,,,,,,,,,,,
,,,,,,5e1f2e9726d97425b32bf5ff,62c53951217a5e1fea5d9660,2022-07-06_09h36.09.833,Colour_Asymmetry_Pilot,2022.1.3,Win32,144.0092166,62c50e9c1127f2cd403a315f,0,40,40,28,1,threeone,,,,,,,,,,,,,,,,,,,,,,,,,,,,,,,,,,,,,,,,,,,,,,,,,,,,,,,,,,,,,,,,,,,,,,,,,,,,,,,,,,,,,,,,,,,,,,,,,,,,,,,,,,,,,,,,,,,,,,,,,,,,,,,,,,,,,,,,,,,,,,,,,,,,,,,,,,,,,
,,,,,,5e1f2e9726d97425b32bf5ff,62c53951217a5e1fea5d9660,2022-07-06_09h36.09.833,Colour_Asymmetry_Pilot,2022.1.3,Win32,144.0092166,62c50e9c1127f2cd403a315f,0,41,41,29,1,threefour,,,,,,,,,,,,,,,,,,,,,,,,,,,,,,,,,,,,,,,,,,,,,,,,,,,,,,,,,,,,,,,,,,,,,,,,,,,,,,,,,,,,,,,,,,,,,,,,,,,,,,,,,,,,,,,,,,,,,,,,,,,,,,,,,,,,,,,,,,,,,,,,,,,,,,,,,,,,,
,,,,,,5e1f2e9726d97425b32bf5ff,62c53951217a5e1fea5d9660,2022-07-06_09h36.09.833,Colour_Asymmetry_Pilot,2022.1.3,Win32,144.0092166,62c50e9c1127f2cd403a315f,0,42,42,138,1,twoone,,,,,,,,,,,,,,,,,,,,,,,,,,,,,,,,,,,,,,,,,,,,,,,,,,,,,,,,,,,,,,,,,,,,,,,,,,,,,,,,,,,,,,,,,,,,,,,,,,,,,,,,,,,,,,,,,,,,,,,,,,,,,,,,,,,,,,,,,,,,,,,,,,,,,,,,,,,,,
,,,,,,5e1f2e9726d97425b32bf5ff,62c53951217a5e1fea5d9660,2022-07-06_09h36.09.833,Colour_Asymmetry_Pilot,2022.1.3,Win32,144.0092166,62c50e9c1127f2cd403a315f,0,43,43,80,1,onetwo,,,,,,,,,,,,,,,,,,,,,,,,,,,,,,,,,,,,,,,,,,,,,,,,,,,,,,,,,,,,,,,,,,,,,,,,,,,,,,,,,,,,,,,,,,,,,,,,,,,,,,,,,,,,,,,,,,,,,,,,,,,,,,,,,,,,,,,,,,,,,,,,,,,,,,,,,,,,,
,,,,,,5e1f2e9726d97425b32bf5ff,62c53951217a5e1fea5d9660,2022-07-06_09h36.09.833,Colour_Asymmetry_Pilot,2022.1.3,Win32,144.0092166,62c50e9c1127f2cd403a315f,0,44,44,72,1,onetwo,,,,,,,,,,,,,,,,,,,,,,,,,,,,,,,,,,,,,,,,,,,,,,,,,,,,,,,,,,,,,,,,,,,,,,,,,,,,,,,,,,,,,,,,,,,,,,,,,,,,,,,,,,,,,,,,,,,,,,,,,,,,,,,,,,,,,,,,,,,,,,,,,,,,,,,,,,,,,
,,,,,,5e1f2e9726d97425b32bf5ff,62c53951217a5e1fea5d9660,2022-07-06_09h36.09.833,Colour_Asymmetry_Pilot,2022.1.3,Win32,144.0092166,62c50e9c1127f2cd403a315f,0,45,45,39,1,fourthree,,,,,,,,,,,,,,,,,,,,,,,,,,,,,,,,,,,,,,,,,,,,,,,,,,,,,,,,,,,,,,,,,,,,,,,,,,,,,,,,,,,,,,,,,,,,,,,,,,,,,,,,,,,,,,,,,,,,,,,,,,,,,,,,,,,,,,,,,,,,,,,,,,,,,,,,,,,,,
,,,,,,5e1f2e9726d97425b32bf5ff,62c53951217a5e1fea5d9660,2022-07-06_09h36.09.833,Colour_Asymmetry_Pilot,2022.1.3,Win32,144.0092166,62c50e9c1127f2cd403a315f,0,46,46,78,1,fourtwo,,,,,,,,,,,,,,,,,,,,,,,,,,,,,,,,,,,,,,,,,,,,,,,,,,,,,,,,,,,,,,,,,,,,,,,,,,,,,,,,,,,,,,,,,,,,,,,,,,,,,,,,,,,,,,,,,,,,,,,,,,,,,,,,,,,,,,,,,,,,,,,,,,,,,,,,,,,,,
,,,,,,5e1f2e9726d97425b32bf5ff,62c53951217a5e1fea5d9660,2022-07-06_09h36.09.833,Colour_Asymmetry_Pilot,2022.1.3,Win32,144.0092166,62c50e9c1127f2cd403a315f,0,47,47,32,1,onetwo,,,,,,,,,,,,,,,,,,,,,,,,,,,,,,,,,,,,,,,,,,,,,,,,,,,,,,,,,,,,,,,,,,,,,,,,,,,,,,,,,,,,,,,,,,,,,,,,,,,,,,,,,,,,,,,,,,,,,,,,,,,,,,,,,,,,,,,,,,,,,,,,,,,,,,,,,,,,,
,,,,,,5e1f2e9726d97425b32bf5ff,62c53951217a5e1fea5d9660,2022-07-06_09h36.09.833,Colour_Asymmetry_Pilot,2022.1.3,Win32,144.0092166,62c50e9c1127f2cd403a315f,0,48,48,108,1,threeone,,,,,,,,,,,,,,,,,,,,,,,,,,,,,,,,,,,,,,,,,,,,,,,,,,,,,,,,,,,,,,,,,,,,,,,,,,,,,,,,,,,,,,,,,,,,,,,,,,,,,,,,,,,,,,,,,,,,,,,,,,,,,,,,,,,,,,,,,,,,,,,,,,,,,,,,,,,,,
,,,,,,5e1f2e9726d97425b32bf5ff,62c53951217a5e1fea5d9660,2022-07-06_09h36.09.833,Colour_Asymmetry_Pilot,2022.1.3,Win32,144.0092166,62c50e9c1127f2cd403a315f,0,49,49,136,1,onetwo,,,,,,,,,,,,,,,,,,,,,,,,,,,,,,,,,,,,,,,,,,,,,,,,,,,,,,,,,,,,,,,,,,,,,,,,,,,,,,,,,,,,,,,,,,,,,,,,,,,,,,,,,,,,,,,,,,,,,,,,,,,,,,,,,,,,,,,,,,,,,,,,,,,,,,,,,,,,,
,,,,,,5e1f2e9726d97425b32bf5ff,62c53951217a5e1fea5d9660,2022-07-06_09h36.09.833,Colour_Asymmetry_Pilot,2022.1.3,Win32,144.0092166,62c50e9c1127f2cd403a315f,0,50,50,148,1,threeone,,,,,,,,,,,,,,,,,,,,,,,,,,,,,,,,,,,,,,,,,,,,,,,,,,,,,,,,,,,,,,,,,,,,,,,,,,,,,,,,,,,,,,,,,,,,,,,,,,,,,,,,,,,,,,,,,,,,,,,,,,,,,,,,,,,,,,,,,,,,,,,,,,,,,,,,,,,,,
,,,,,,5e1f2e9726d97425b32bf5ff,62c53951217a5e1fea5d9660,2022-07-06_09h36.09.833,Colour_Asymmetry_Pilot,2022.1.3,Win32,144.0092166,62c50e9c1127f2cd403a315f,0,51,51,22,1,fourtwo,,,,,,,,,,,,,,,,,,,,,,,,,,,,,,,,,,,,,,,,,,,,,,,,,,,,,,,,,,,,,,,,,,,,,,,,,,,,,,,,,,,,,,,,,,,,,,,,,,,,,,,,,,,,,,,,,,,,,,,,,,,,,,,,,,,,,,,,,,,,,,,,,,,,,,,,,,,,,
,,,,,,5e1f2e9726d97425b32bf5ff,62c53951217a5e1fea5d9660,2022-07-06_09h36.09.833,Colour_Asymmetry_Pilot,2022.1.3,Win32,144.0092166,62c50e9c1127f2cd403a315f,0,52,52,73,1,onethree,,,,,,,,,,,,,,,,,,,,,,,,,,,,,,,,,,,,,,,,,,,,,,,,,,,,,,,,,,,,,,,,,,,,,,,,,,,,,,,,,,,,,,,,,,,,,,,,,,,,,,,,,,,,,,,,,,,,,,,,,,,,,,,,,,,,,,,,,,,,,,,,,,,,,,,,,,,,,
,,,,,,5e1f2e9726d97425b32bf5ff,62c53951217a5e1fea5d9660,2022-07-06_09h36.09.833,Colour_Asymmetry_Pilot,2022.1.3,Win32,144.0092166,62c50e9c1127f2cd403a315f,0,53,53,16,1,onetwo,,,,,,,,,,,,,,,,,,,,,,,,,,,,,,,,,,,,,,,,,,,,,,,,,,,,,,,,,,,,,,,,,,,,,,,,,,,,,,,,,,,,,,,,,,,,,,,,,,,,,,,,,,,,,,,,,,,,,,,,,,,,,,,,,,,,,,,,,,,,,,,,,,,,,,,,,,,,,
,,,,,,5e1f2e9726d97425b32bf5ff,62c53951217a5e1fea5d9660,2022-07-06_09h36.09.833,Colour_Asymmetry_Pilot,2022.1.3,Win32,144.0092166,62c50e9c1127f2cd403a315f,0,54,54,99,1,twofour,,,,,,,,,,,,,,,,,,,,,,,,,,,,,,,,,,,,,,,,,,,,,,,,,,,,,,,,,,,,,,,,,,,,,,,,,,,,,,,,,,,,,,,,,,,,,,,,,,,,,,,,,,,,,,,,,,,,,,,,,,,,,,,,,,,,,,,,,,,,,,,,,,,,,,,,,,,,,
,,,,,,5e1f2e9726d97425b32bf5ff,62c53951217a5e1fea5d9660,2022-07-06_09h36.09.833,Colour_Asymmetry_Pilot,2022.1.3,Win32,144.0092166,62c50e9c1127f2cd403a315f,0,55,55,117,1,threefour,,,,,,,,,,,,,,,,,,,,,,,,,,,,,,,,,,,,,,,,,,,,,,,,,,,,,,,,,,,,,,,,,,,,,,,,,,,,,,,,,,,,,,,,,,,,,,,,,,,,,,,,,,,,,,,,,,,,,,,,,,,,,,,,,,,,,,,,,,,,,,,,,,,,,,,,,,,,,
,,,,,,5e1f2e9726d97425b32bf5ff,62c53951217a5e1fea5d9660,2022-07-06_09h36.09.833,Colour_Asymmetry_Pilot,2022.1.3,Win32,144.0092166,62c50e9c1127f2cd403a315f,0,56,56,76,1,threeone,,,,,,,,,,,,,,,,,,,,,,,,,,,,,,,,,,,,,,,,,,,,,,,,,,,,,,,,,,,,,,,,,,,,,,,,,,,,,,,,,,,,,,,,,,,,,,,,,,,,,,,,,,,,,,,,,,,,,,,,,,,,,,,,,,,,,,,,,,,,,,,,,,,,,,,,,,,,,
,,,,,,5e1f2e9726d97425b32bf5ff,62c53951217a5e1fea5d9660,2022-07-06_09h36.09.833,Colour_Asymmetry_Pilot,2022.1.3,Win32,144.0092166,62c50e9c1127f2cd403a315f,0,57,57,135,1,fourthree,,,,,,,,,,,,,,,,,,,,,,,,,,,,,,,,,,,,,,,,,,,,,,,,,,,,,,,,,,,,,,,,,,,,,,,,,,,,,,,,,,,,,,,,,,,,,,,,,,,,,,,,,,,,,,,,,,,,,,,,,,,,,,,,,,,,,,,,,,,,,,,,,,,,,,,,,,,,,
,,,,,,5e1f2e9726d97425b32bf5ff,62c53951217a5e1fea5d9660,2022-07-06_09h36.09.833,Colour_Asymmetry_Pilot,2022.1.3,Win32,144.0092166,62c50e9c1127f2cd403a315f,0,58,58,159,1,fourthree,,,,,,,,,,,,,,,,,,,,,,,,,,,,,,,,,,,,,,,,,,,,,,,,,,,,,,,,,,,,,,,,,,,,,,,,,,,,,,,,,,,,,,,,,,,,,,,,,,,,,,,,,,,,,,,,,,,,,,,,,,,,,,,,,,,,,,,,,,,,,,,,,,,,,,,,,,,,,
,,,,,,5e1f2e9726d97425b32bf5ff,62c53951217a5e1fea5d9660,2022-07-06_09h36.09.833,Colour_Asymmetry_Pilot,2022.1.3,Win32,144.0092166,62c50e9c1127f2cd403a315f,0,59,59,42,1,twoone,,,,,,,,,,,,,,,,,,,,,,,,,,,,,,,,,,,,,,,,,,,,,,,,,,,,,,,,,,,,,,,,,,,,,,,,,,,,,,,,,,,,,,,,,,,,,,,,,,,,,,,,,,,,,,,,,,,,,,,,,,,,,,,,,,,,,,,,,,,,,,,,,,,,,,,,,,,,,
,,,,,,5e1f2e9726d97425b32bf5ff,62c53951217a5e1fea5d9660,2022-07-06_09h36.09.833,Colour_Asymmetry_Pilot,2022.1.3,Win32,144.0092166,62c50e9c1127f2cd403a315f,0,60,60,122,1,twoone,,,,,,,,,,,,,,,,,,,,,,,,,,,,,,,,,,,,,,,,,,,,,,,,,,,,,,,,,,,,,,,,,,,,,,,,,,,,,,,,,,,,,,,,,,,,,,,,,,,,,,,,,,,,,,,,,,,,,,,,,,,,,,,,,,,,,,,,,,,,,,,,,,,,,,,,,,,,,
,,,,,,5e1f2e9726d97425b32bf5ff,62c53951217a5e1fea5d9660,2022-07-06_09h36.09.833,Colour_Asymmetry_Pilot,2022.1.3,Win32,144.0092166,62c50e9c1127f2cd403a315f,0,61,61,146,1,twoone,,,,,,,,,,,,,,,,,,,,,,,,,,,,,,,,,,,,,,,,,,,,,,,,,,,,,,,,,,,,,,,,,,,,,,,,,,,,,,,,,,,,,,,,,,,,,,,,,,,,,,,,,,,,,,,,,,,,,,,,,,,,,,,,,,,,,,,,,,,,,,,,,,,,,,,,,,,,,
,,,,,,5e1f2e9726d97425b32bf5ff,62c53951217a5e1fea5d9660,2022-07-06_09h36.09.833,Colour_Asymmetry_Pilot,2022.1.3,Win32,144.0092166,62c50e9c1127f2cd403a315f,0,62,62,47,1,fourthree,,,,,,,,,,,,,,,,,,,,,,,,,,,,,,,,,,,,,,,,,,,,,,,,,,,,,,,,,,,,,,,,,,,,,,,,,,,,,,,,,,,,,,,,,,,,,,,,,,,,,,,,,,,,,,,,,,,,,,,,,,,,,,,,,,,,,,,,,,,,,,,,,,,,,,,,,,,,,
,,,,,,5e1f2e9726d97425b32bf5ff,62c53951217a5e1fea5d9660,2022-07-06_09h36.09.833,Colour_Asymmetry_Pilot,2022.1.3,Win32,144.0092166,62c50e9c1127f2cd403a315f,0,63,63,143,1,fourthree,,,,,,,,,,,,,,,,,,,,,,,,,,,,,,,,,,,,,,,,,,,,,,,,,,,,,,,,,,,,,,,,,,,,,,,,,,,,,,,,,,,,,,,,,,,,,,,,,,,,,,,,,,,,,,,,,,,,,,,,,,,,,,,,,,,,,,,,,,,,,,,,,,,,,,,,,,,,,
,,,,,,5e1f2e9726d97425b32bf5ff,62c53951217a5e1fea5d9660,2022-07-06_09h36.09.833,Colour_Asymmetry_Pilot,2022.1.3,Win32,144.0092166,62c50e9c1127f2cd403a315f,0,64,64,63,1,fourthree,,,,,,,,,,,,,,,,,,,,,,,,,,,,,,,,,,,,,,,,,,,,,,,,,,,,,,,,,,,,,,,,,,,,,,,,,,,,,,,,,,,,,,,,,,,,,,,,,,,,,,,,,,,,,,,,,,,,,,,,,,,,,,,,,,,,,,,,,,,,,,,,,,,,,,,,,,,,,
,,,,,,5e1f2e9726d97425b32bf5ff,62c53951217a5e1fea5d9660,2022-07-06_09h36.09.833,Colour_Asymmetry_Pilot,2022.1.3,Win32,144.0092166,62c50e9c1127f2cd403a315f,0,65,65,132,1,threeone,,,,,,,,,,,,,,,,,,,,,,,,,,,,,,,,,,,,,,,,,,,,,,,,,,,,,,,,,,,,,,,,,,,,,,,,,,,,,,,,,,,,,,,,,,,,,,,,,,,,,,,,,,,,,,,,,,,,,,,,,,,,,,,,,,,,,,,,,,,,,,,,,,,,,,,,,,,,,
,,,,,,5e1f2e9726d97425b32bf5ff,62c53951217a5e1fea5d9660,2022-07-06_09h36.09.833,Colour_Asymmetry_Pilot,2022.1.3,Win32,144.0092166,62c50e9c1127f2cd403a315f,0,66,66,97,1,onethree,,,,,,,,,,,,,,,,,,,,,,,,,,,,,,,,,,,,,,,,,,,,,,,,,,,,,,,,,,,,,,,,,,,,,,,,,,,,,,,,,,,,,,,,,,,,,,,,,,,,,,,,,,,,,,,,,,,,,,,,,,,,,,,,,,,,,,,,,,,,,,,,,,,,,,,,,,,,,
,,,,,,5e1f2e9726d97425b32bf5ff,62c53951217a5e1fea5d9660,2022-07-06_09h36.09.833,Colour_Asymmetry_Pilot,2022.1.3,Win32,144.0092166,62c50e9c1127f2cd403a315f,0,67,67,160,1,onetwo,,,,,,,,,,,,,,,,,,,,,,,,,,,,,,,,,,,,,,,,,,,,,,,,,,,,,,,,,,,,,,,,,,,,,,,,,,,,,,,,,,,,,,,,,,,,,,,,,,,,,,,,,,,,,,,,,,,,,,,,,,,,,,,,,,,,,,,,,,,,,,,,,,,,,,,,,,,,,
,,,,,,5e1f2e9726d97425b32bf5ff,62c53951217a5e1fea5d9660,2022-07-06_09h36.09.833,Colour_Asymmetry_Pilot,2022.1.3,Win32,144.0092166,62c50e9c1127f2cd403a315f,0,68,68,27,1,twofour,,,,,,,,,,,,,,,,,,,,,,,,,,,,,,,,,,,,,,,,,,,,,,,,,,,,,,,,,,,,,,,,,,,,,,,,,,,,,,,,,,,,,,,,,,,,,,,,,,,,,,,,,,,,,,,,,,,,,,,,,,,,,,,,,,,,,,,,,,,,,,,,,,,,,,,,,,,,,
,,,,,,5e1f2e9726d97425b32bf5ff,62c53951217a5e1fea5d9660,2022-07-06_09h36.09.833,Colour_Asymmetry_Pilot,2022.1.3,Win32,144.0092166,62c50e9c1127f2cd403a315f,0,69,69,10,1,twoone,,,,,,,,,,,,,,,,,,,,,,,,,,,,,,,,,,,,,,,,,,,,,,,,,,,,,,,,,,,,,,,,,,,,,,,,,,,,,,,,,,,,,,,,,,,,,,,,,,,,,,,,,,,,,,,,,,,,,,,,,,,,,,,,,,,,,,,,,,,,,,,,,,,,,,,,,,,,,
,,,,,,5e1f2e9726d97425b32bf5ff,62c53951217a5e1fea5d9660,2022-07-06_09h36.09.833,Colour_Asymmetry_Pilot,2022.1.3,Win32,144.0092166,62c50e9c1127f2cd403a315f,0,70,70,137,1,onethree,,,,,,,,,,,,,,,,,,,,,,,,,,,,,,,,,,,,,,,,,,,,,,,,,,,,,,,,,,,,,,,,,,,,,,,,,,,,,,,,,,,,,,,,,,,,,,,,,,,,,,,,,,,,,,,,,,,,,,,,,,,,,,,,,,,,,,,,,,,,,,,,,,,,,,,,,,,,,
,,,,,,5e1f2e9726d97425b32bf5ff,62c53951217a5e1fea5d9660,2022-07-06_09h36.09.833,Colour_Asymmetry_Pilot,2022.1.3,Win32,144.0092166,62c50e9c1127f2cd403a315f,0,71,71,93,1,threefour,,,,,,,,,,,,,,,,,,,,,,,,,,,,,,,,,,,,,,,,,,,,,,,,,,,,,,,,,,,,,,,,,,,,,,,,,,,,,,,,,,,,,,,,,,,,,,,,,,,,,,,,,,,,,,,,,,,,,,,,,,,,,,,,,,,,,,,,,,,,,,,,,,,,,,,,,,,,,
,,,,,,5e1f2e9726d97425b32bf5ff,62c53951217a5e1fea5d9660,2022-07-06_09h36.09.833,Colour_Asymmetry_Pilot,2022.1.3,Win32,144.0092166,62c50e9c1127f2cd403a315f,0,72,72,100,1,threeone,,,,,,,,,,,,,,,,,,,,,,,,,,,,,,,,,,,,,,,,,,,,,,,,,,,,,,,,,,,,,,,,,,,,,,,,,,,,,,,,,,,,,,,,,,,,,,,,,,,,,,,,,,,,,,,,,,,,,,,,,,,,,,,,,,,,,,,,,,,,,,,,,,,,,,,,,,,,,
,,,,,,5e1f2e9726d97425b32bf5ff,62c53951217a5e1fea5d9660,2022-07-06_09h36.09.833,Colour_Asymmetry_Pilot,2022.1.3,Win32,144.0092166,62c50e9c1127f2cd403a315f,0,73,73,26,1,twoone,,,,,,,,,,,,,,,,,,,,,,,,,,,,,,,,,,,,,,,,,,,,,,,,,,,,,,,,,,,,,,,,,,,,,,,,,,,,,,,,,,,,,,,,,,,,,,,,,,,,,,,,,,,,,,,,,,,,,,,,,,,,,,,,,,,,,,,,,,,,,,,,,,,,,,,,,,,,,
,,,,,,5e1f2e9726d97425b32bf5ff,62c53951217a5e1fea5d9660,2022-07-06_09h36.09.833,Colour_Asymmetry_Pilot,2022.1.3,Win32,144.0092166,62c50e9c1127f2cd403a315f,0,74,74,41,1,onethree,,,,,,,,,,,,,,,,,,,,,,,,,,,,,,,,,,,,,,,,,,,,,,,,,,,,,,,,,,,,,,,,,,,,,,,,,,,,,,,,,,,,,,,,,,,,,,,,,,,,,,,,,,,,,,,,,,,,,,,,,,,,,,,,,,,,,,,,,,,,,,,,,,,,,,,,,,,,,
,,,,,,5e1f2e9726d97425b32bf5ff,62c53951217a5e1fea5d9660,2022-07-06_09h36.09.833,Colour_Asymmetry_Pilot,2022.1.3,Win32,144.0092166,62c50e9c1127f2cd403a315f,0,75,75,151,1,fourthree,,,,,,,,,,,,,,,,,,,,,,,,,,,,,,,,,,,,,,,,,,,,,,,,,,,,,,,,,,,,,,,,,,,,,,,,,,,,,,,,,,,,,,,,,,,,,,,,,,,,,,,,,,,,,,,,,,,,,,,,,,,,,,,,,,,,,,,,,,,,,,,,,,,,,,,,,,,,,
,,,,,,5e1f2e9726d97425b32bf5ff,62c53951217a5e1fea5d9660,2022-07-06_09h36.09.833,Colour_Asymmetry_Pilot,2022.1.3,Win32,144.0092166,62c50e9c1127f2cd403a315f,0,76,76,65,1,onethree,,,,,,,,,,,,,,,,,,,,,,,,,,,,,,,,,,,,,,,,,,,,,,,,,,,,,,,,,,,,,,,,,,,,,,,,,,,,,,,,,,,,,,,,,,,,,,,,,,,,,,,,,,,,,,,,,,,,,,,,,,,,,,,,,,,,,,,,,,,,,,,,,,,,,,,,,,,,,
,,,,,,5e1f2e9726d97425b32bf5ff,62c53951217a5e1fea5d9660,2022-07-06_09h36.09.833,Colour_Asymmetry_Pilot,2022.1.3,Win32,144.0092166,62c50e9c1127f2cd403a315f,0,77,77,101,1,threefour,,,,,,,,,,,,,,,,,,,,,,,,,,,,,,,,,,,,,,,,,,,,,,,,,,,,,,,,,,,,,,,,,,,,,,,,,,,,,,,,,,,,,,,,,,,,,,,,,,,,,,,,,,,,,,,,,,,,,,,,,,,,,,,,,,,,,,,,,,,,,,,,,,,,,,,,,,,,,
,,,,,,5e1f2e9726d97425b32bf5ff,62c53951217a5e1fea5d9660,2022-07-06_09h36.09.833,Colour_Asymmetry_Pilot,2022.1.3,Win32,144.0092166,62c50e9c1127f2cd403a315f,0,78,78,106,1,twoone,,,,,,,,,,,,,,,,,,,,,,,,,,,,,,,,,,,,,,,,,,,,,,,,,,,,,,,,,,,,,,,,,,,,,,,,,,,,,,,,,,,,,,,,,,,,,,,,,,,,,,,,,,,,,,,,,,,,,,,,,,,,,,,,,,,,,,,,,,,,,,,,,,,,,,,,,,,,,
,,,,,,5e1f2e9726d97425b32bf5ff,62c53951217a5e1fea5d9660,2022-07-06_09h36.09.833,Colour_Asymmetry_Pilot,2022.1.3,Win32,144.0092166,62c50e9c1127f2cd403a315f,0,79,79,118,1,fourtwo,,,,,,,,,,,,,,,,,,,,,,,,,,,,,,,,,,,,,,,,,,,,,,,,,,,,,,,,,,,,,,,,,,,,,,,,,,,,,,,,,,,,,,,,,,,,,,,,,,,,,,,,,,,,,,,,,,,,,,,,,,,,,,,,,,,,,,,,,,,,,,,,,,,,,,,,,,,,,
,,,,,,5e1f2e9726d97425b32bf5ff,62c53951217a5e1fea5d9660,2022-07-06_09h36.09.833,Colour_Asymmetry_Pilot,2022.1.3,Win32,144.0092166,62c50e9c1127f2cd403a315f,0,80,80,1,1,onethree,,,,,,,,,,,,,,,,,,,,,,,,,,,,,,,,,,,,,,,,,,,,,,,,,,,,,,,,,,,,,,,,,,,,,,,,,,,,,,,,,,,,,,,,,,,,,,,,,,,,,,,,,,,,,,,,,,,,,,,,,,,,,,,,,,,,,,,,,,,,,,,,,,,,,,,,,,,,,
,,,,,,5e1f2e9726d97425b32bf5ff,62c53951217a5e1fea5d9660,2022-07-06_09h36.09.833,Colour_Asymmetry_Pilot,2022.1.3,Win32,144.0092166,62c50e9c1127f2cd403a315f,0,81,81,9,1,onethree,,,,,,,,,,,,,,,,,,,,,,,,,,,,,,,,,,,,,,,,,,,,,,,,,,,,,,,,,,,,,,,,,,,,,,,,,,,,,,,,,,,,,,,,,,,,,,,,,,,,,,,,,,,,,,,,,,,,,,,,,,,,,,,,,,,,,,,,,,,,,,,,,,,,,,,,,,,,,
,,,,,,5e1f2e9726d97425b32bf5ff,62c53951217a5e1fea5d9660,2022-07-06_09h36.09.833,Colour_Asymmetry_Pilot,2022.1.3,Win32,144.0092166,62c50e9c1127f2cd403a315f,0,82,82,127,1,fourthree,,,,,,,,,,,,,,,,,,,,,,,,,,,,,,,,,,,,,,,,,,,,,,,,,,,,,,,,,,,,,,,,,,,,,,,,,,,,,,,,,,,,,,,,,,,,,,,,,,,,,,,,,,,,,,,,,,,,,,,,,,,,,,,,,,,,,,,,,,,,,,,,,,,,,,,,,,,,,
,,,,,,5e1f2e9726d97425b32bf5ff,62c53951217a5e1fea5d9660,2022-07-06_09h36.09.833,Colour_Asymmetry_Pilot,2022.1.3,Win32,144.0092166,62c50e9c1127f2cd403a315f,0,83,83,67,1,twofour,,,,,,,,,,,,,,,,,,,,,,,,,,,,,,,,,,,,,,,,,,,,,,,,,,,,,,,,,,,,,,,,,,,,,,,,,,,,,,,,,,,,,,,,,,,,,,,,,,,,,,,,,,,,,,,,,,,,,,,,,,,,,,,,,,,,,,,,,,,,,,,,,,,,,,,,,,,,,
,,,,,,5e1f2e9726d97425b32bf5ff,62c53951217a5e1fea5d9660,2022-07-06_09h36.09.833,Colour_Asymmetry_Pilot,2022.1.3,Win32,144.0092166,62c50e9c1127f2cd403a315f,0,84,84,144,1,onetwo,,,,,,,,,,,,,,,,,,,,,,,,,,,,,,,,,,,,,,,,,,,,,,,,,,,,,,,,,,,,,,,,,,,,,,,,,,,,,,,,,,,,,,,,,,,,,,,,,,,,,,,,,,,,,,,,,,,,,,,,,,,,,,,,,,,,,,,,,,,,,,,,,,,,,,,,,,,,,
,,,,,,5e1f2e9726d97425b32bf5ff,62c53951217a5e1fea5d9660,2022-07-06_09h36.09.833,Colour_Asymmetry_Pilot,2022.1.3,Win32,144.0092166,62c50e9c1127f2cd403a315f,0,85,85,36,1,threeone,,,,,,,,,,,,,,,,,,,,,,,,,,,,,,,,,,,,,,,,,,,,,,,,,,,,,,,,,,,,,,,,,,,,,,,,,,,,,,,,,,,,,,,,,,,,,,,,,,,,,,,,,,,,,,,,,,,,,,,,,,,,,,,,,,,,,,,,,,,,,,,,,,,,,,,,,,,,,
,,,,,,5e1f2e9726d97425b32bf5ff,62c53951217a5e1fea5d9660,2022-07-06_09h36.09.833,Colour_Asymmetry_Pilot,2022.1.3,Win32,144.0092166,62c50e9c1127f2cd403a315f,0,86,86,88,1,onetwo,,,,,,,,,,,,,,,,,,,,,,,,,,,,,,,,,,,,,,,,,,,,,,,,,,,,,,,,,,,,,,,,,,,,,,,,,,,,,,,,,,,,,,,,,,,,,,,,,,,,,,,,,,,,,,,,,,,,,,,,,,,,,,,,,,,,,,,,,,,,,,,,,,,,,,,,,,,,,
,,,,,,5e1f2e9726d97425b32bf5ff,62c53951217a5e1fea5d9660,2022-07-06_09h36.09.833,Colour_Asymmetry_Pilot,2022.1.3,Win32,144.0092166,62c50e9c1127f2cd403a315f,0,87,87,128,1,onetwo,,,,,,,,,,,,,,,,,,,,,,,,,,,,,,,,,,,,,,,,,,,,,,,,,,,,,,,,,,,,,,,,,,,,,,,,,,,,,,,,,,,,,,,,,,,,,,,,,,,,,,,,,,,,,,,,,,,,,,,,,,,,,,,,,,,,,,,,,,,,,,,,,,,,,,,,,,,,,
,,,,,,5e1f2e9726d97425b32bf5ff,62c53951217a5e1fea5d9660,2022-07-06_09h36.09.833,Colour_Asymmetry_Pilot,2022.1.3,Win32,144.0092166,62c50e9c1127f2cd403a315f,0,88,88,145,1,onethree,,,,,,,,,,,,,,,,,,,,,,,,,,,,,,,,,,,,,,,,,,,,,,,,,,,,,,,,,,,,,,,,,,,,,,,,,,,,,,,,,,,,,,,,,,,,,,,,,,,,,,,,,,,,,,,,,,,,,,,,,,,,,,,,,,,,,,,,,,,,,,,,,,,,,,,,,,,,,
,,,,,,5e1f2e9726d97425b32bf5ff,62c53951217a5e1fea5d9660,2022-07-06_09h36.09.833,Colour_Asymmetry_Pilot,2022.1.3,Win32,144.0092166,62c50e9c1127f2cd403a315f,0,89,89,31,1,fourthree,,,,,,,,,,,,,,,,,,,,,,,,,,,,,,,,,,,,,,,,,,,,,,,,,,,,,,,,,,,,,,,,,,,,,,,,,,,,,,,,,,,,,,,,,,,,,,,,,,,,,,,,,,,,,,,,,,,,,,,,,,,,,,,,,,,,,,,,,,,,,,,,,,,,,,,,,,,,,
,,,,,,5e1f2e9726d97425b32bf5ff,62c53951217a5e1fea5d9660,2022-07-06_09h36.09.833,Colour_Asymmetry_Pilot,2022.1.3,Win32,144.0092166,62c50e9c1127f2cd403a315f,0,90,90,123,1,twofour,,,,,,,,,,,,,,,,,,,,,,,,,,,,,,,,,,,,,,,,,,,,,,,,,,,,,,,,,,,,,,,,,,,,,,,,,,,,,,,,,,,,,,,,,,,,,,,,,,,,,,,,,,,,,,,,,,,,,,,,,,,,,,,,,,,,,,,,,,,,,,,,,,,,,,,,,,,,,
,,,,,,5e1f2e9726d97425b32bf5ff,62c53951217a5e1fea5d9660,2022-07-06_09h36.09.833,Colour_Asymmetry_Pilot,2022.1.3,Win32,144.0092166,62c50e9c1127f2cd403a315f,0,91,91,23,1,fourthree,,,,,,,,,,,,,,,,,,,,,,,,,,,,,,,,,,,,,,,,,,,,,,,,,,,,,,,,,,,,,,,,,,,,,,,,,,,,,,,,,,,,,,,,,,,,,,,,,,,,,,,,,,,,,,,,,,,,,,,,,,,,,,,,,,,,,,,,,,,,,,,,,,,,,,,,,,,,,
,,,,,,5e1f2e9726d97425b32bf5ff,62c53951217a5e1fea5d9660,2022-07-06_09h36.09.833,Colour_Asymmetry_Pilot,2022.1.3,Win32,144.0092166,62c50e9c1127f2cd403a315f,0,92,92,56,1,onetwo,,,,,,,,,,,,,,,,,,,,,,,,,,,,,,,,,,,,,,,,,,,,,,,,,,,,,,,,,,,,,,,,,,,,,,,,,,,,,,,,,,,,,,,,,,,,,,,,,,,,,,,,,,,,,,,,,,,,,,,,,,,,,,,,,,,,,,,,,,,,,,,,,,,,,,,,,,,,,
,,,,,,5e1f2e9726d97425b32bf5ff,62c53951217a5e1fea5d9660,2022-07-06_09h36.09.833,Colour_Asymmetry_Pilot,2022.1.3,Win32,144.0092166,62c50e9c1127f2cd403a315f,0,93,93,8,1,onetwo,,,,,,,,,,,,,,,,,,,,,,,,,,,,,,,,,,,,,,,,,,,,,,,,,,,,,,,,,,,,,,,,,,,,,,,,,,,,,,,,,,,,,,,,,,,,,,,,,,,,,,,,,,,,,,,,,,,,,,,,,,,,,,,,,,,,,,,,,,,,,,,,,,,,,,,,,,,,,
,,,,,,5e1f2e9726d97425b32bf5ff,62c53951217a5e1fea5d9660,2022-07-06_09h36.09.833,Colour_Asymmetry_Pilot,2022.1.3,Win32,144.0092166,62c50e9c1127f2cd403a315f,0,94,94,37,1,threefour,,,,,,,,,,,,,,,,,,,,,,,,,,,,,,,,,,,,,,,,,,,,,,,,,,,,,,,,,,,,,,,,,,,,,,,,,,,,,,,,,,,,,,,,,,,,,,,,,,,,,,,,,,,,,,,,,,,,,,,,,,,,,,,,,,,,,,,,,,,,,,,,,,,,,,,,,,,,,
,,,,,,5e1f2e9726d97425b32bf5ff,62c53951217a5e1fea5d9660,2022-07-06_09h36.09.833,Colour_Asymmetry_Pilot,2022.1.3,Win32,144.0092166,62c50e9c1127f2cd403a315f,0,95,95,90,1,twoone,,,,,,,,,,,,,,,,,,,,,,,,,,,,,,,,,,,,,,,,,,,,,,,,,,,,,,,,,,,,,,,,,,,,,,,,,,,,,,,,,,,,,,,,,,,,,,,,,,,,,,,,,,,,,,,,,,,,,,,,,,,,,,,,,,,,,,,,,,,,,,,,,,,,,,,,,,,,,
,,,,,,5e1f2e9726d97425b32bf5ff,62c53951217a5e1fea5d9660,2022-07-06_09h36.09.833,Colour_Asymmetry_Pilot,2022.1.3,Win32,144.0092166,62c50e9c1127f2cd403a315f,0,96,96,11,1,twofour,,,,,,,,,,,,,,,,,,,,,,,,,,,,,,,,,,,,,,,,,,,,,,,,,,,,,,,,,,,,,,,,,,,,,,,,,,,,,,,,,,,,,,,,,,,,,,,,,,,,,,,,,,,,,,,,,,,,,,,,,,,,,,,,,,,,,,,,,,,,,,,,,,,,,,,,,,,,,
,,,,,,5e1f2e9726d97425b32bf5ff,62c53951217a5e1fea5d9660,2022-07-06_09h36.09.833,Colour_Asymmetry_Pilot,2022.1.3,Win32,144.0092166,62c50e9c1127f2cd403a315f,0,97,97,115,1,twofour,,,,,,,,,,,,,,,,,,,,,,,,,,,,,,,,,,,,,,,,,,,,,,,,,,,,,,,,,,,,,,,,,,,,,,,,,,,,,,,,,,,,,,,,,,,,,,,,,,,,,,,,,,,,,,,,,,,,,,,,,,,,,,,,,,,,,,,,,,,,,,,,,,,,,,,,,,,,,
,,,,,,5e1f2e9726d97425b32bf5ff,62c53951217a5e1fea5d9660,2022-07-06_09h36.09.833,Colour_Asymmetry_Pilot,2022.1.3,Win32,144.0092166,62c50e9c1127f2cd403a315f,0,98,98,60,1,threeone,,,,,,,,,,,,,,,,,,,,,,,,,,,,,,,,,,,,,,,,,,,,,,,,,,,,,,,,,,,,,,,,,,,,,,,,,,,,,,,,,,,,,,,,,,,,,,,,,,,,,,,,,,,,,,,,,,,,,,,,,,,,,,,,,,,,,,,,,,,,,,,,,,,,,,,,,,,,,
,,,,,,5e1f2e9726d97425b32bf5ff,62c53951217a5e1fea5d9660,2022-07-06_09h36.09.833,Colour_Asymmetry_Pilot,2022.1.3,Win32,144.0092166,62c50e9c1127f2cd403a315f,0,99,99,81,1,onethree,,,,,,,,,,,,,,,,,,,,,,,,,,,,,,,,,,,,,,,,,,,,,,,,,,,,,,,,,,,,,,,,,,,,,,,,,,,,,,,,,,,,,,,,,,,,,,,,,,,,,,,,,,,,,,,,,,,,,,,,,,,,,,,,,,,,,,,,,,,,,,,,,,,,,,,,,,,,,
,,,,,,5e1f2e9726d97425b32bf5ff,62c53951217a5e1fea5d9660,2022-07-06_09h36.09.833,Colour_Asymmetry_Pilot,2022.1.3,Win32,144.0092166,62c50e9c1127f2cd403a315f,0,100,100,57,1,onethree,,,,,,,,,,,,,,,,,,,,,,,,,,,,,,,,,,,,,,,,,,,,,,,,,,,,,,,,,,,,,,,,,,,,,,,,,,,,,,,,,,,,,,,,,,,,,,,,,,,,,,,,,,,,,,,,,,,,,,,,,,,,,,,,,,,,,,,,,,,,,,,,,,,,,,,,,,,,,
,,,,,,5e1f2e9726d97425b32bf5ff,62c53951217a5e1fea5d9660,2022-07-06_09h36.09.833,Colour_Asymmetry_Pilot,2022.1.3,Win32,144.0092166,62c50e9c1127f2cd403a315f,0,101,101,18,1,twoone,,,,,,,,,,,,,,,,,,,,,,,,,,,,,,,,,,,,,,,,,,,,,,,,,,,,,,,,,,,,,,,,,,,,,,,,,,,,,,,,,,,,,,,,,,,,,,,,,,,,,,,,,,,,,,,,,,,,,,,,,,,,,,,,,,,,,,,,,,,,,,,,,,,,,,,,,,,,,
,,,,,,5e1f2e9726d97425b32bf5ff,62c53951217a5e1fea5d9660,2022-07-06_09h36.09.833,Colour_Asymmetry_Pilot,2022.1.3,Win32,144.0092166,62c50e9c1127f2cd403a315f,0,102,102,149,1,threefour,,,,,,,,,,,,,,,,,,,,,,,,,,,,,,,,,,,,,,,,,,,,,,,,,,,,,,,,,,,,,,,,,,,,,,,,,,,,,,,,,,,,,,,,,,,,,,,,,,,,,,,,,,,,,,,,,,,,,,,,,,,,,,,,,,,,,,,,,,,,,,,,,,,,,,,,,,,,,
,,,,,,5e1f2e9726d97425b32bf5ff,62c53951217a5e1fea5d9660,2022-07-06_09h36.09.833,Colour_Asymmetry_Pilot,2022.1.3,Win32,144.0092166,62c50e9c1127f2cd403a315f,0,103,103,71,1,fourthree,,,,,,,,,,,,,,,,,,,,,,,,,,,,,,,,,,,,,,,,,,,,,,,,,,,,,,,,,,,,,,,,,,,,,,,,,,,,,,,,,,,,,,,,,,,,,,,,,,,,,,,,,,,,,,,,,,,,,,,,,,,,,,,,,,,,,,,,,,,,,,,,,,,,,,,,,,,,,
,,,,,,5e1f2e9726d97425b32bf5ff,62c53951217a5e1fea5d9660,2022-07-06_09h36.09.833,Colour_Asymmetry_Pilot,2022.1.3,Win32,144.0092166,62c50e9c1127f2cd403a315f,0,104,104,50,1,twoone,,,,,,,,,,,,,,,,,,,,,,,,,,,,,,,,,,,,,,,,,,,,,,,,,,,,,,,,,,,,,,,,,,,,,,,,,,,,,,,,,,,,,,,,,,,,,,,,,,,,,,,,,,,,,,,,,,,,,,,,,,,,,,,,,,,,,,,,,,,,,,,,,,,,,,,,,,,,,
,,,,,,5e1f2e9726d97425b32bf5ff,62c53951217a5e1fea5d9660,2022-07-06_09h36.09.833,Colour_Asymmetry_Pilot,2022.1.3,Win32,144.0092166,62c50e9c1127f2cd403a315f,0,105,105,33,1,onethree,,,,,,,,,,,,,,,,,,,,,,,,,,,,,,,,,,,,,,,,,,,,,,,,,,,,,,,,,,,,,,,,,,,,,,,,,,,,,,,,,,,,,,,,,,,,,,,,,,,,,,,,,,,,,,,,,,,,,,,,,,,,,,,,,,,,,,,,,,,,,,,,,,,,,,,,,,,,,
,,,,,,5e1f2e9726d97425b32bf5ff,62c53951217a5e1fea5d9660,2022-07-06_09h36.09.833,Colour_Asymmetry_Pilot,2022.1.3,Win32,144.0092166,62c50e9c1127f2cd403a315f,0,106,106,17,1,onethree,,,,,,,,,,,,,,,,,,,,,,,,,,,,,,,,,,,,,,,,,,,,,,,,,,,,,,,,,,,,,,,,,,,,,,,,,,,,,,,,,,,,,,,,,,,,,,,,,,,,,,,,,,,,,,,,,,,,,,,,,,,,,,,,,,,,,,,,,,,,,,,,,,,,,,,,,,,,,
,,,,,,5e1f2e9726d97425b32bf5ff,62c53951217a5e1fea5d9660,2022-07-06_09h36.09.833,Colour_Asymmetry_Pilot,2022.1.3,Win32,144.0092166,62c50e9c1127f2cd403a315f,0,107,107,103,1,fourthree,,,,,,,,,,,,,,,,,,,,,,,,,,,,,,,,,,,,,,,,,,,,,,,,,,,,,,,,,,,,,,,,,,,,,,,,,,,,,,,,,,,,,,,,,,,,,,,,,,,,,,,,,,,,,,,,,,,,,,,,,,,,,,,,,,,,,,,,,,,,,,,,,,,,,,,,,,,,,
,,,,,,5e1f2e9726d97425b32bf5ff,62c53951217a5e1fea5d9660,2022-07-06_09h36.09.833,Colour_Asymmetry_Pilot,2022.1.3,Win32,144.0092166,62c50e9c1127f2cd403a315f,0,108,108,66,1,twoone,,,,,,,,,,,,,,,,,,,,,,,,,,,,,,,,,,,,,,,,,,,,,,,,,,,,,,,,,,,,,,,,,,,,,,,,,,,,,,,,,,,,,,,,,,,,,,,,,,,,,,,,,,,,,,,,,,,,,,,,,,,,,,,,,,,,,,,,,,,,,,,,,,,,,,,,,,,,,
,,,,,,5e1f2e9726d97425b32bf5ff,62c53951217a5e1fea5d9660,2022-07-06_09h36.09.833,Colour_Asymmetry_Pilot,2022.1.3,Win32,144.0092166,62c50e9c1127f2cd403a315f,0,109,109,154,1,twoone,,,,,,,,,,,,,,,,,,,,,,,,,,,,,,,,,,,,,,,,,,,,,,,,,,,,,,,,,,,,,,,,,,,,,,,,,,,,,,,,,,,,,,,,,,,,,,,,,,,,,,,,,,,,,,,,,,,,,,,,,,,,,,,,,,,,,,,,,,,,,,,,,,,,,,,,,,,,,
,,,,,,5e1f2e9726d97425b32bf5ff,62c53951217a5e1fea5d9660,2022-07-06_09h36.09.833,Colour_Asymmetry_Pilot,2022.1.3,Win32,144.0092166,62c50e9c1127f2cd403a315f,0,110,110,125,1,threefour,,,,,,,,,,,,,,,,,,,,,,,,,,,,,,,,,,,,,,,,,,,,,,,,,,,,,,,,,,,,,,,,,,,,,,,,,,,,,,,,,,,,,,,,,,,,,,,,,,,,,,,,,,,,,,,,,,,,,,,,,,,,,,,,,,,,,,,,,,,,,,,,,,,,,,,,,,,,,
,,,,,,5e1f2e9726d97425b32bf5ff,62c53951217a5e1fea5d9660,2022-07-06_09h36.09.833,Colour_Asymmetry_Pilot,2022.1.3,Win32,144.0092166,62c50e9c1127f2cd403a315f,0,111,111,40,1,onetwo,,,,,,,,,,,,,,,,,,,,,,,,,,,,,,,,,,,,,,,,,,,,,,,,,,,,,,,,,,,,,,,,,,,,,,,,,,,,,,,,,,,,,,,,,,,,,,,,,,,,,,,,,,,,,,,,,,,,,,,,,,,,,,,,,,,,,,,,,,,,,,,,,,,,,,,,,,,,,
,,,,,,5e1f2e9726d97425b32bf5ff,62c53951217a5e1fea5d9660,2022-07-06_09h36.09.833,Colour_Asymmetry_Pilot,2022.1.3,Win32,144.0092166,62c50e9c1127f2cd403a315f,0,112,112,46,1,fourtwo,,,,,,,,,,,,,,,,,,,,,,,,,,,,,,,,,,,,,,,,,,,,,,,,,,,,,,,,,,,,,,,,,,,,,,,,,,,,,,,,,,,,,,,,,,,,,,,,,,,,,,,,,,,,,,,,,,,,,,,,,,,,,,,,,,,,,,,,,,,,,,,,,,,,,,,,,,,,,
,,,,,,5e1f2e9726d97425b32bf5ff,62c53951217a5e1fea5d9660,2022-07-06_09h36.09.833,Colour_Asymmetry_Pilot,2022.1.3,Win32,144.0092166,62c50e9c1127f2cd403a315f,0,113,113,51,1,twofour,,,,,,,,,,,,,,,,,,,,,,,,,,,,,,,,,,,,,,,,,,,,,,,,,,,,,,,,,,,,,,,,,,,,,,,,,,,,,,,,,,,,,,,,,,,,,,,,,,,,,,,,,,,,,,,,,,,,,,,,,,,,,,,,,,,,,,,,,,,,,,,,,,,,,,,,,,,,,
,,,,,,5e1f2e9726d97425b32bf5ff,62c53951217a5e1fea5d9660,2022-07-06_09h36.09.833,Colour_Asymmetry_Pilot,2022.1.3,Win32,144.0092166,62c50e9c1127f2cd403a315f,0,114,114,152,1,onetwo,,,,,,,,,,,,,,,,,,,,,,,,,,,,,,,,,,,,,,,,,,,,,,,,,,,,,,,,,,,,,,,,,,,,,,,,,,,,,,,,,,,,,,,,,,,,,,,,,,,,,,,,,,,,,,,,,,,,,,,,,,,,,,,,,,,,,,,,,,,,,,,,,,,,,,,,,,,,,
,,,,,,5e1f2e9726d97425b32bf5ff,62c53951217a5e1fea5d9660,2022-07-06_09h36.09.833,Colour_Asymmetry_Pilot,2022.1.3,Win32,144.0092166,62c50e9c1127f2cd403a315f,0,115,115,120,1,onetwo,,,,,,,,,,,,,,,,,,,,,,,,,,,,,,,,,,,,,,,,,,,,,,,,,,,,,,,,,,,,,,,,,,,,,,,,,,,,,,,,,,,,,,,,,,,,,,,,,,,,,,,,,,,,,,,,,,,,,,,,,,,,,,,,,,,,,,,,,,,,,,,,,,,,,,,,,,,,,
,,,,,,5e1f2e9726d97425b32bf5ff,62c53951217a5e1fea5d9660,2022-07-06_09h36.09.833,Colour_Asymmetry_Pilot,2022.1.3,Win32,144.0092166,62c50e9c1127f2cd403a315f,0,116,116,53,1,threefour,,,,,,,,,,,,,,,,,,,,,,,,,,,,,,,,,,,,,,,,,,,,,,,,,,,,,,,,,,,,,,,,,,,,,,,,,,,,,,,,,,,,,,,,,,,,,,,,,,,,,,,,,,,,,,,,,,,,,,,,,,,,,,,,,,,,,,,,,,,,,,,,,,,,,,,,,,,,,
,,,,,,5e1f2e9726d97425b32bf5ff,62c53951217a5e1fea5d9660,2022-07-06_09h36.09.833,Colour_Asymmetry_Pilot,2022.1.3,Win32,144.0092166,62c50e9c1127f2cd403a315f,0,117,117,113,1,onethree,,,,,,,,,,,,,,,,,,,,,,,,,,,,,,,,,,,,,,,,,,,,,,,,,,,,,,,,,,,,,,,,,,,,,,,,,,,,,,,,,,,,,,,,,,,,,,,,,,,,,,,,,,,,,,,,,,,,,,,,,,,,,,,,,,,,,,,,,,,,,,,,,,,,,,,,,,,,,
,,,,,,5e1f2e9726d97425b32bf5ff,62c53951217a5e1fea5d9660,2022-07-06_09h36.09.833,Colour_Asymmetry_Pilot,2022.1.3,Win32,144.0092166,62c50e9c1127f2cd403a315f,0,118,118,98,1,twoone,,,,,,,,,,,,,,,,,,,,,,,,,,,,,,,,,,,,,,,,,,,,,,,,,,,,,,,,,,,,,,,,,,,,,,,,,,,,,,,,,,,,,,,,,,,,,,,,,,,,,,,,,,,,,,,,,,,,,,,,,,,,,,,,,,,,,,,,,,,,,,,,,,,,,,,,,,,,,
,,,,,,5e1f2e9726d97425b32bf5ff,62c53951217a5e1fea5d9660,2022-07-06_09h36.09.833,Colour_Asymmetry_Pilot,2022.1.3,Win32,144.0092166,62c50e9c1127f2cd403a315f,0,119,119,30,1,fourtwo,,,,,,,,,,,,,,,,,,,,,,,,,,,,,,,,,,,,,,,,,,,,,,,,,,,,,,,,,,,,,,,,,,,,,,,,,,,,,,,,,,,,,,,,,,,,,,,,,,,,,,,,,,,,,,,,,,,,,,,,,,,,,,,,,,,,,,,,,,,,,,,,,,,,,,,,,,,,,
,,,,,,5e1f2e9726d97425b32bf5ff,62c53951217a5e1fea5d9660,2022-07-06_09h36.09.833,Colour_Asymmetry_Pilot,2022.1.3,Win32,144.0092166,62c50e9c1127f2cd403a315f,0,120,120,111,1,fourthree,,,,,,,,,,,,,,,,,,,,,,,,,,,,,,,,,,,,,,,,,,,,,,,,,,,,,,,,,,,,,,,,,,,,,,,,,,,,,,,,,,,,,,,,,,,,,,,,,,,,,,,,,,,,,,,,,,,,,,,,,,,,,,,,,,,,,,,,,,,,,,,,,,,,,,,,,,,,,
,,,,,,5e1f2e9726d97425b32bf5ff,62c53951217a5e1fea5d9660,2022-07-06_09h36.09.833,Colour_Asymmetry_Pilot,2022.1.3,Win32,144.0092166,62c50e9c1127f2cd403a315f,0,121,121,153,1,onethree,,,,,,,,,,,,,,,,,,,,,,,,,,,,,,,,,,,,,,,,,,,,,,,,,,,,,,,,,,,,,,,,,,,,,,,,,,,,,,,,,,,,,,,,,,,,,,,,,,,,,,,,,,,,,,,,,,,,,,,,,,,,,,,,,,,,,,,,,,,,,,,,,,,,,,,,,,,,,
,,,,,,5e1f2e9726d97425b32bf5ff,62c53951217a5e1fea5d9660,2022-07-06_09h36.09.833,Colour_Asymmetry_Pilot,2022.1.3,Win32,144.0092166,62c50e9c1127f2cd403a315f,0,122,122,161,1,onethree,,,,,,,,,,,,,,,,,,,,,,,,,,,,,,,,,,,,,,,,,,,,,,,,,,,,,,,,,,,,,,,,,,,,,,,,,,,,,,,,,,,,,,,,,,,,,,,,,,,,,,,,,,,,,,,,,,,,,,,,,,,,,,,,,,,,,,,,,,,,,,,,,,,,,,,,,,,,,
,,,,,,5e1f2e9726d97425b32bf5ff,62c53951217a5e1fea5d9660,2022-07-06_09h36.09.833,Colour_Asymmetry_Pilot,2022.1.3,Win32,144.0092166,62c50e9c1127f2cd403a315f,0,123,123,61,1,threefour,,,,,,,,,,,,,,,,,,,,,,,,,,,,,,,,,,,,,,,,,,,,,,,,,,,,,,,,,,,,,,,,,,,,,,,,,,,,,,,,,,,,,,,,,,,,,,,,,,,,,,,,,,,,,,,,,,,,,,,,,,,,,,,,,,,,,,,,,,,,,,,,,,,,,,,,,,,,,
,,,,,,5e1f2e9726d97425b32bf5ff,62c53951217a5e1fea5d9660,2022-07-06_09h36.09.833,Colour_Asymmetry_Pilot,2022.1.3,Win32,144.0092166,62c50e9c1127f2cd403a315f,0,124,124,105,1,onethree,,,,,,,,,,,,,,,,,,,,,,,,,,,,,,,,,,,,,,,,,,,,,,,,,,,,,,,,,,,,,,,,,,,,,,,,,,,,,,,,,,,,,,,,,,,,,,,,,,,,,,,,,,,,,,,,,,,,,,,,,,,,,,,,,,,,,,,,,,,,,,,,,,,,,,,,,,,,,
,,,,,,5e1f2e9726d97425b32bf5ff,62c53951217a5e1fea5d9660,2022-07-06_09h36.09.833,Colour_Asymmetry_Pilot,2022.1.3,Win32,144.0092166,62c50e9c1127f2cd403a315f,0,125,125,96,1,onetwo,,,,,,,,,,,,,,,,,,,,,,,,,,,,,,,,,,,,,,,,,,,,,,,,,,,,,,,,,,,,,,,,,,,,,,,,,,,,,,,,,,,,,,,,,,,,,,,,,,,,,,,,,,,,,,,,,,,,,,,,,,,,,,,,,,,,,,,,,,,,,,,,,,,,,,,,,,,,,
,,,,,,5e1f2e9726d97425b32bf5ff,62c53951217a5e1fea5d9660,2022-07-06_09h36.09.833,Colour_Asymmetry_Pilot,2022.1.3,Win32,144.0092166,62c50e9c1127f2cd403a315f,0,126,126,64,1,onetwo,,,,,,,,,,,,,,,,,,,,,,,,,,,,,,,,,,,,,,,,,,,,,,,,,,,,,,,,,,,,,,,,,,,,,,,,,,,,,,,,,,,,,,,,,,,,,,,,,,,,,,,,,,,,,,,,,,,,,,,,,,,,,,,,,,,,,,,,,,,,,,,,,,,,,,,,,,,,,
,,,,,,5e1f2e9726d97425b32bf5ff,62c53951217a5e1fea5d9660,2022-07-06_09h36.09.833,Colour_Asymmetry_Pilot,2022.1.3,Win32,144.0092166,62c50e9c1127f2cd403a315f,0,127,127,134,1,fourtwo,,,,,,,,,,,,,,,,,,,,,,,,,,,,,,,,,,,,,,,,,,,,,,,,,,,,,,,,,,,,,,,,,,,,,,,,,,,,,,,,,,,,,,,,,,,,,,,,,,,,,,,,,,,,,,,,,,,,,,,,,,,,,,,,,,,,,,,,,,,,,,,,,,,,,,,,,,,,,
,,,,,,5e1f2e9726d97425b32bf5ff,62c53951217a5e1fea5d9660,2022-07-06_09h36.09.833,Colour_Asymmetry_Pilot,2022.1.3,Win32,144.0092166,62c50e9c1127f2cd403a315f,0,128,128,52,1,threeone,,,,,,,,,,,,,,,,,,,,,,,,,,,,,,,,,,,,,,,,,,,,,,,,,,,,,,,,,,,,,,,,,,,,,,,,,,,,,,,,,,,,,,,,,,,,,,,,,,,,,,,,,,,,,,,,,,,,,,,,,,,,,,,,,,,,,,,,,,,,,,,,,,,,,,,,,,,,,
,,,,,,5e1f2e9726d97425b32bf5ff,62c53951217a5e1fea5d9660,2022-07-06_09h36.09.833,Colour_Asymmetry_Pilot,2022.1.3,Win32,144.0092166,62c50e9c1127f2cd403a315f,0,129,129,131,1,twofour,,,,,,,,,,,,,,,,,,,,,,,,,,,,,,,,,,,,,,,,,,,,,,,,,,,,,,,,,,,,,,,,,,,,,,,,,,,,,,,,,,,,,,,,,,,,,,,,,,,,,,,,,,,,,,,,,,,,,,,,,,,,,,,,,,,,,,,,,,,,,,,,,,,,,,,,,,,,,
,,,,,,5e1f2e9726d97425b32bf5ff,62c53951217a5e1fea5d9660,2022-07-06_09h36.09.833,Colour_Asymmetry_Pilot,2022.1.3,Win32,144.0092166,62c50e9c1127f2cd403a315f,0,130,130,54,1,fourtwo,,,,,,,,,,,,,,,,,,,,,,,,,,,,,,,,,,,,,,,,,,,,,,,,,,,,,,,,,,,,,,,,,,,,,,,,,,,,,,,,,,,,,,,,,,,,,,,,,,,,,,,,,,,,,,,,,,,,,,,,,,,,,,,,,,,,,,,,,,,,,,,,,,,,,,,,,,,,,
,,,,,,5e1f2e9726d97425b32bf5ff,62c53951217a5e1fea5d9660,2022-07-06_09h36.09.833,Colour_Asymmetry_Pilot,2022.1.3,Win32,144.0092166,62c50e9c1127f2cd403a315f,0,131,131,20,1,threeone,,,,,,,,,,,,,,,,,,,,,,,,,,,,,,,,,,,,,,,,,,,,,,,,,,,,,,,,,,,,,,,,,,,,,,,,,,,,,,,,,,,,,,,,,,,,,,,,,,,,,,,,,,,,,,,,,,,,,,,,,,,,,,,,,,,,,,,,,,,,,,,,,,,,,,,,,,,,,
,,,,,,5e1f2e9726d97425b32bf5ff,62c53951217a5e1fea5d9660,2022-07-06_09h36.09.833,Colour_Asymmetry_Pilot,2022.1.3,Win32,144.0092166,62c50e9c1127f2cd403a315f,0,132,132,110,1,fourtwo,,,,,,,,,,,,,,,,,,,,,,,,,,,,,,,,,,,,,,,,,,,,,,,,,,,,,,,,,,,,,,,,,,,,,,,,,,,,,,,,,,,,,,,,,,,,,,,,,,,,,,,,,,,,,,,,,,,,,,,,,,,,,,,,,,,,,,,,,,,,,,,,,,,,,,,,,,,,,
,,,,,,5e1f2e9726d97425b32bf5ff,62c53951217a5e1fea5d9660,2022-07-06_09h36.09.833,Colour_Asymmetry_Pilot,2022.1.3,Win32,144.0092166,62c50e9c1127f2cd403a315f,0,133,133,34,1,twoone,,,,,,,,,,,,,,,,,,,,,,,,,,,,,,,,,,,,,,,,,,,,,,,,,,,,,,,,,,,,,,,,,,,,,,,,,,,,,,,,,,,,,,,,,,,,,,,,,,,,,,,,,,,,,,,,,,,,,,,,,,,,,,,,,,,,,,,,,,,,,,,,,,,,,,,,,,,,,
,,,,,,5e1f2e9726d97425b32bf5ff,62c53951217a5e1fea5d9660,2022-07-06_09h36.09.833,Colour_Asymmetry_Pilot,2022.1.3,Win32,144.0092166,62c50e9c1127f2cd403a315f,0,134,134,69,1,threefour,,,,,,,,,,,,,,,,,,,,,,,,,,,,,,,,,,,,,,,,,,,,,,,,,,,,,,,,,,,,,,,,,,,,,,,,,,,,,,,,,,,,,,,,,,,,,,,,,,,,,,,,,,,,,,,,,,,,,,,,,,,,,,,,,,,,,,,,,,,,,,,,,,,,,,,,,,,,,
,,,,,,5e1f2e9726d97425b32bf5ff,62c53951217a5e1fea5d9660,2022-07-06_09h36.09.833,Colour_Asymmetry_Pilot,2022.1.3,Win32,144.0092166,62c50e9c1127f2cd403a315f,0,135,135,94,1,fourtwo,,,,,,,,,,,,,,,,,,,,,,,,,,,,,,,,,,,,,,,,,,,,,,,,,,,,,,,,,,,,,,,,,,,,,,,,,,,,,,,,,,,,,,,,,,,,,,,,,,,,,,,,,,,,,,,,,,,,,,,,,,,,,,,,,,,,,,,,,,,,,,,,,,,,,,,,,,,,,
,,,,,,5e1f2e9726d97425b32bf5ff,62c53951217a5e1fea5d9660,2022-07-06_09h36.09.833,Colour_Asymmetry_Pilot,2022.1.3,Win32,144.0092166,62c50e9c1127f2cd403a315f,0,136,136,7,1,fourthree,,,,,,,,,,,,,,,,,,,,,,,,,,,,,,,,,,,,,,,,,,,,,,,,,,,,,,,,,,,,,,,,,,,,,,,,,,,,,,,,,,,,,,,,,,,,,,,,,,,,,,,,,,,,,,,,,,,,,,,,,,,,,,,,,,,,,,,,,,,,,,,,,,,,,,,,,,,,,
,,,,,,5e1f2e9726d97425b32bf5ff,62c53951217a5e1fea5d9660,2022-07-06_09h36.09.833,Colour_Asymmetry_Pilot,2022.1.3,Win32,144.0092166,62c50e9c1127f2cd403a315f,0,137,137,79,1,fourthree,,,,,,,,,,,,,,,,,,,,,,,,,,,,,,,,,,,,,,,,,,,,,,,,,,,,,,,,,,,,,,,,,,,,,,,,,,,,,,,,,,,,,,,,,,,,,,,,,,,,,,,,,,,,,,,,,,,,,,,,,,,,,,,,,,,,,,,,,,,,,,,,,,,,,,,,,,,,,
,,,,,,5e1f2e9726d97425b32bf5ff,62c53951217a5e1fea5d9660,2022-07-06_09h36.09.833,Colour_Asymmetry_Pilot,2022.1.3,Win32,144.0092166,62c50e9c1127f2cd403a315f,0,138,138,141,1,threefour,,,,,,,,,,,,,,,,,,,,,,,,,,,,,,,,,,,,,,,,,,,,,,,,,,,,,,,,,,,,,,,,,,,,,,,,,,,,,,,,,,,,,,,,,,,,,,,,,,,,,,,,,,,,,,,,,,,,,,,,,,,,,,,,,,,,,,,,,,,,,,,,,,,,,,,,,,,,,
,,,,,,5e1f2e9726d97425b32bf5ff,62c53951217a5e1fea5d9660,2022-07-06_09h36.09.833,Colour_Asymmetry_Pilot,2022.1.3,Win32,144.0092166,62c50e9c1127f2cd403a315f,0,139,139,91,1,twofour,,,,,,,,,,,,,,,,,,,,,,,,,,,,,,,,,,,,,,,,,,,,,,,,,,,,,,,,,,,,,,,,,,,,,,,,,,,,,,,,,,,,,,,,,,,,,,,,,,,,,,,,,,,,,,,,,,,,,,,,,,,,,,,,,,,,,,,,,,,,,,,,,,,,,,,,,,,,,
,,,,,,5e1f2e9726d97425b32bf5ff,62c53951217a5e1fea5d9660,2022-07-06_09h36.09.833,Colour_Asymmetry_Pilot,2022.1.3,Win32,144.0092166,62c50e9c1127f2cd403a315f,0,140,140,142,1,fourtwo,,,,,,,,,,,,,,,,,,,,,,,,,,,,,,,,,,,,,,,,,,,,,,,,,,,,,,,,,,,,,,,,,,,,,,,,,,,,,,,,,,,,,,,,,,,,,,,,,,,,,,,,,,,,,,,,,,,,,,,,,,,,,,,,,,,,,,,,,,,,,,,,,,,,,,,,,,,,,
,,,,,,5e1f2e9726d97425b32bf5ff,62c53951217a5e1fea5d9660,2022-07-06_09h36.09.833,Colour_Asymmetry_Pilot,2022.1.3,Win32,144.0092166,62c50e9c1127f2cd403a315f,0,141,141,107,1,twofour,,,,,,,,,,,,,,,,,,,,,,,,,,,,,,,,,,,,,,,,,,,,,,,,,,,,,,,,,,,,,,,,,,,,,,,,,,,,,,,,,,,,,,,,,,,,,,,,,,,,,,,,,,,,,,,,,,,,,,,,,,,,,,,,,,,,,,,,,,,,,,,,,,,,,,,,,,,,,
,,,,,,5e1f2e9726d97425b32bf5ff,62c53951217a5e1fea5d9660,2022-07-06_09h36.09.833,Colour_Asymmetry_Pilot,2022.1.3,Win32,144.0092166,62c50e9c1127f2cd403a315f,0,142,142,77,1,threefour,,,,,,,,,,,,,,,,,,,,,,,,,,,,,,,,,,,,,,,,,,,,,,,,,,,,,,,,,,,,,,,,,,,,,,,,,,,,,,,,,,,,,,,,,,,,,,,,,,,,,,,,,,,,,,,,,,,,,,,,,,,,,,,,,,,,,,,,,,,,,,,,,,,,,,,,,,,,,
,,,,,,5e1f2e9726d97425b32bf5ff,62c53951217a5e1fea5d9660,2022-07-06_09h36.09.833,Colour_Asymmetry_Pilot,2022.1.3,Win32,144.0092166,62c50e9c1127f2cd403a315f,0,143,143,3,1,twofour,,,,,,,,,,,,,,,,,,,,,,,,,,,,,,,,,,,,,,,,,,,,,,,,,,,,,,,,,,,,,,,,,,,,,,,,,,,,,,,,,,,,,,,,,,,,,,,,,,,,,,,,,,,,,,,,,,,,,,,,,,,,,,,,,,,,,,,,,,,,,,,,,,,,,,,,,,,,,
,,,,,,5e1f2e9726d97425b32bf5ff,62c53951217a5e1fea5d9660,2022-07-06_09h36.09.833,Colour_Asymmetry_Pilot,2022.1.3,Win32,144.0092166,62c50e9c1127f2cd403a315f,0,144,144,49,1,onethree,,,,,,,,,,,,,,,,,,,,,,,,,,,,,,,,,,,,,,,,,,,,,,,,,,,,,,,,,,,,,,,,,,,,,,,,,,,,,,,,,,,,,,,,,,,,,,,,,,,,,,,,,,,,,,,,,,,,,,,,,,,,,,,,,,,,,,,,,,,,,,,,,,,,,,,,,,,,,
,,,,,,5e1f2e9726d97425b32bf5ff,62c53951217a5e1fea5d9660,2022-07-06_09h36.09.833,Colour_Asymmetry_Pilot,2022.1.3,Win32,144.0092166,62c50e9c1127f2cd403a315f,0,145,145,48,1,onetwo,,,,,,,,,,,,,,,,,,,,,,,,,,,,,,,,,,,,,,,,,,,,,,,,,,,,,,,,,,,,,,,,,,,,,,,,,,,,,,,,,,,,,,,,,,,,,,,,,,,,,,,,,,,,,,,,,,,,,,,,,,,,,,,,,,,,,,,,,,,,,,,,,,,,,,,,,,,,,
,,,,,,5e1f2e9726d97425b32bf5ff,62c53951217a5e1fea5d9660,2022-07-06_09h36.09.833,Colour_Asymmetry_Pilot,2022.1.3,Win32,144.0092166,62c50e9c1127f2cd403a315f,0,146,146,59,1,twofour,,,,,,,,,,,,,,,,,,,,,,,,,,,,,,,,,,,,,,,,,,,,,,,,,,,,,,,,,,,,,,,,,,,,,,,,,,,,,,,,,,,,,,,,,,,,,,,,,,,,,,,,,,,,,,,,,,,,,,,,,,,,,,,,,,,,,,,,,,,,,,,,,,,,,,,,,,,,,
,,,,,,5e1f2e9726d97425b32bf5ff,62c53951217a5e1fea5d9660,2022-07-06_09h36.09.833,Colour_Asymmetry_Pilot,2022.1.3,Win32,144.0092166,62c50e9c1127f2cd403a315f,0,147,147,75,1,twofour,,,,,,,,,,,,,,,,,,,,,,,,,,,,,,,,,,,,,,,,,,,,,,,,,,,,,,,,,,,,,,,,,,,,,,,,,,,,,,,,,,,,,,,,,,,,,,,,,,,,,,,,,,,,,,,,,,,,,,,,,,,,,,,,,,,,,,,,,,,,,,,,,,,,,,,,,,,,,
,,,,,,5e1f2e9726d97425b32bf5ff,62c53951217a5e1fea5d9660,2022-07-06_09h36.09.833,Colour_Asymmetry_Pilot,2022.1.3,Win32,144.0092166,62c50e9c1127f2cd403a315f,0,148,148,6,1,fourtwo,,,,,,,,,,,,,,,,,,,,,,,,,,,,,,,,,,,,,,,,,,,,,,,,,,,,,,,,,,,,,,,,,,,,,,,,,,,,,,,,,,,,,,,,,,,,,,,,,,,,,,,,,,,,,,,,,,,,,,,,,,,,,,,,,,,,,,,,,,,,,,,,,,,,,,,,,,,,,
,,,,,,5e1f2e9726d97425b32bf5ff,62c53951217a5e1fea5d9660,2022-07-06_09h36.09.833,Colour_Asymmetry_Pilot,2022.1.3,Win32,144.0092166,62c50e9c1127f2cd403a315f,0,149,149,74,1,twoone,,,,,,,,,,,,,,,,,,,,,,,,,,,,,,,,,,,,,,,,,,,,,,,,,,,,,,,,,,,,,,,,,,,,,,,,,,,,,,,,,,,,,,,,,,,,,,,,,,,,,,,,,,,,,,,,,,,,,,,,,,,,,,,,,,,,,,,,,,,,,,,,,,,,,,,,,,,,,
,,,,,,5e1f2e9726d97425b32bf5ff,62c53951217a5e1fea5d9660,2022-07-06_09h36.09.833,Colour_Asymmetry_Pilot,2022.1.3,Win32,144.0092166,62c50e9c1127f2cd403a315f,0,150,150,25,1,onethree,,,,,,,,,,,,,,,,,,,,,,,,,,,,,,,,,,,,,,,,,,,,,,,,,,,,,,,,,,,,,,,,,,,,,,,,,,,,,,,,,,,,,,,,,,,,,,,,,,,,,,,,,,,,,,,,,,,,,,,,,,,,,,,,,,,,,,,,,,,,,,,,,,,,,,,,,,,,,
,,,,,,5e1f2e9726d97425b32bf5ff,62c53951217a5e1fea5d9660,2022-07-06_09h36.09.833,Colour_Asymmetry_Pilot,2022.1.3,Win32,144.0092166,62c50e9c1127f2cd403a315f,0,151,151,139,1,twofour,,,,,,,,,,,,,,,,,,,,,,,,,,,,,,,,,,,,,,,,,,,,,,,,,,,,,,,,,,,,,,,,,,,,,,,,,,,,,,,,,,,,,,,,,,,,,,,,,,,,,,,,,,,,,,,,,,,,,,,,,,,,,,,,,,,,,,,,,,,,,,,,,,,,,,,,,,,,,
,,,,,,5e1f2e9726d97425b32bf5ff,62c53951217a5e1fea5d9660,2022-07-06_09h36.09.833,Colour_Asymmetry_Pilot,2022.1.3,Win32,144.0092166,62c50e9c1127f2cd403a315f,0,152,152,21,1,threefour,,,,,,,,,,,,,,,,,,,,,,,,,,,,,,,,,,,,,,,,,,,,,,,,,,,,,,,,,,,,,,,,,,,,,,,,,,,,,,,,,,,,,,,,,,,,,,,,,,,,,,,,,,,,,,,,,,,,,,,,,,,,,,,,,,,,,,,,,,,,,,,,,,,,,,,,,,,,,
,,,,,,5e1f2e9726d97425b32bf5ff,62c53951217a5e1fea5d9660,2022-07-06_09h36.09.833,Colour_Asymmetry_Pilot,2022.1.3,Win32,144.0092166,62c50e9c1127f2cd403a315f,0,153,153,84,1,threeone,,,,,,,,,,,,,,,,,,,,,,,,,,,,,,,,,,,,,,,,,,,,,,,,,,,,,,,,,,,,,,,,,,,,,,,,,,,,,,,,,,,,,,,,,,,,,,,,,,,,,,,,,,,,,,,,,,,,,,,,,,,,,,,,,,,,,,,,,,,,,,,,,,,,,,,,,,,,,
,,,,,,5e1f2e9726d97425b32bf5ff,62c53951217a5e1fea5d9660,2022-07-06_09h36.09.833,Colour_Asymmetry_Pilot,2022.1.3,Win32,144.0092166,62c50e9c1127f2cd403a315f,0,154,154,14,1,fourtwo,,,,,,,,,,,,,,,,,,,,,,,,,,,,,,,,,,,,,,,,,,,,,,,,,,,,,,,,,,,,,,,,,,,,,,,,,,,,,,,,,,,,,,,,,,,,,,,,,,,,,,,,,,,,,,,,,,,,,,,,,,,,,,,,,,,,,,,,,,,,,,,,,,,,,,,,,,,,,
,,,,,,5e1f2e9726d97425b32bf5ff,62c53951217a5e1fea5d9660,2022-07-06_09h36.09.833,Colour_Asymmetry_Pilot,2022.1.3,Win32,144.0092166,62c50e9c1127f2cd403a315f,0,155,155,147,1,twofour,,,,,,,,,,,,,,,,,,,,,,,,,,,,,,,,,,,,,,,,,,,,,,,,,,,,,,,,,,,,,,,,,,,,,,,,,,,,,,,,,,,,,,,,,,,,,,,,,,,,,,,,,,,,,,,,,,,,,,,,,,,,,,,,,,,,,,,,,,,,,,,,,,,,,,,,,,,,,
,,,,,,5e1f2e9726d97425b32bf5ff,62c53951217a5e1fea5d9660,2022-07-06_09h36.09.833,Colour_Asymmetry_Pilot,2022.1.3,Win32,144.0092166,62c50e9c1127f2cd403a315f,0,156,156,82,1,twoone,,,,,,,,,,,,,,,,,,,,,,,,,,,,,,,,,,,,,,,,,,,,,,,,,,,,,,,,,,,,,,,,,,,,,,,,,,,,,,,,,,,,,,,,,,,,,,,,,,,,,,,,,,,,,,,,,,,,,,,,,,,,,,,,,,,,,,,,,,,,,,,,,,,,,,,,,,,,,
,,,,,,5e1f2e9726d97425b32bf5ff,62c53951217a5e1fea5d9660,2022-07-06_09h36.09.833,Colour_Asymmetry_Pilot,2022.1.3,Win32,144.0092166,62c50e9c1127f2cd403a315f,0,157,157,116,1,threeone,,,,,,,,,,,,,,,,,,,,,,,,,,,,,,,,,,,,,,,,,,,,,,,,,,,,,,,,,,,,,,,,,,,,,,,,,,,,,,,,,,,,,,,,,,,,,,,,,,,,,,,,,,,,,,,,,,,,,,,,,,,,,,,,,,,,,,,,,,,,,,,,,,,,,,,,,,,,,
,,,,,,5e1f2e9726d97425b32bf5ff,62c53951217a5e1fea5d9660,2022-07-06_09h36.09.833,Colour_Asymmetry_Pilot,2022.1.3,Win32,144.0092166,62c50e9c1127f2cd403a315f,0,158,158,109,1,threefour,,,,,,,,,,,,,,,,,,,,,,,,,,,,,,,,,,,,,,,,,,,,,,,,,,,,,,,,,,,,,,,,,,,,,,,,,,,,,,,,,,,,,,,,,,,,,,,,,,,,,,,,,,,,,,,,,,,,,,,,,,,,,,,,,,,,,,,,,,,,,,,,,,,,,,,,,,,,,
,,,,,,5e1f2e9726d97425b32bf5ff,62c53951217a5e1fea5d9660,2022-07-06_09h36.09.833,Colour_Asymmetry_Pilot,2022.1.3,Win32,144.0092166,62c50e9c1127f2cd403a315f,0,159,159,55,1,fourthree,,,,,,,,,,,,,,,,,,,,,,,,,,,,,,,,,,,,,,,,,,,,,,,,,,,,,,,,,,,,,,,,,,,,,,,,,,,,,,,,,,,,,,,,,,,,,,,,,,,,,,,,,,,,,,,,,,,,,,,,,,,,,,,,,,,,,,,,,,,,,,,,,,,,,,,,,,,,,
,,,,,,5e1f2e9726d97425b32bf5ff,62c53951217a5e1fea5d9660,2022-07-06_09h36.09.833,Colour_Asymmetry_Pilot,2022.1.3,Win32,144.0092166,62c50e9c1127f2cd403a315f,0,160,160,0,1,onetwo,,,,,,,,,,,,,,,,,,,,,,,,,,,,,,,,,,,,,,,,,,,,,,,,,,,,,,,,,,,,,,,,,,,,,,,,,,,,,,,,,,,,,,,,,,,,,,,,,,,,,,,,,,,,,,,,,,,,,,,,,,,,,,,,,,,,,,,,,,,,,,,,,,,,,,,,,,,,,
,,,,,,5e1f2e9726d97425b32bf5ff,62c53951217a5e1fea5d9660,2022-07-06_09h36.09.833,Colour_Asymmetry_Pilot,2022.1.3,Win32,144.0092166,62c50e9c1127f2cd403a315f,0,161,161,38,1,fourtwo,,,,,,,,,,,,,,,,,,,,,,,,,,,,,,,,,,,,,,,,,,,,,,,,,,,,,,,,,,,,,,,,,,,,,,,,,,,,,,,,,,,,,,,,,,,,,,,,,,,,,,,,,,,,,,,,,,,,,,,,,,,,,,,,,,,,,,,,,,,,,,,,,,,,,,,,,,,,,
,,,,,,5e1f2e9726d97425b32bf5ff,62c53951217a5e1fea5d9660,2022-07-06_09h36.09.833,Colour_Asymmetry_Pilot,2022.1.3,Win32,144.0092166,62c50e9c1127f2cd403a315f,,,,,,,space,3.4205,space,988.1559,space,13.5838,space,18.0349,space,1.3401,space,3.8459,"[-0.4746,-0.0354000000000001,0.5449999999999999]",threeone,"[0.23120000000000007,-0.7726,-0.34120000000000006]",-4,3.9456,-86,120,1,0,0,response7disk_5,3,7,1,0,0,rectangle_8,3,7,1,0,0,2,3,7,1,0,0,0,0,0,0,1,,,,,,,,,,,,,,,,,,,,,,,,,,,,,,,,,,,,,,,,,,,,,,,,,,,,,,,,,,,,,,,,,,,,,,,,,,,,,,,,,,,,,,,,,,,,,,,,,,,,,,,,,,,,,,,,
,,,,,,5e1f2e9726d97425b32bf5ff,62c53951217a5e1fea5d9660,2022-07-06_09h36.09.833,Colour_Asymmetry_Pilot,2022.1.3,Win32,144.0092166,62c50e9c1127f2cd403a315f,,,,,,,,,,,,,,,,,,,"[-0.6235999999999999,-0.6786,-0.08239999999999992]",fourthree,"[0.40379999999999994,0.09000000000000008,0.44300000000000006]",1,6.2222,52,-123,1,0,0,response3disk_5,-3,-4,1,0,0,rectangle_8,-3,-4,1,0,0,2,-3,-4,1,0,0,1,0,1,0,1,,,,,,,,,,,,,,,,,,,,,,,,,,,,,,,,,,,,,,,,,,,,,,,,,,,,,,,,,,,,,,,,,,,,,,,,,,,,,,,,,,,,,,,,,,,,,,,,,,,,,,,,,,,,,,,,
,,,,,,5e1f2e9726d97425b32bf5ff,62c53951217a5e1fea5d9660,2022-07-06_09h36.09.833,Colour_Asymmetry_Pilot,2022.1.3,Win32,144.0092166,62c50e9c1127f2cd403a315f,,,,,,,,,,,,,,,,,,,"[0.04299999999999993,0.16060000000000008,-0.6628000000000001]",fourthree,"[-0.7412000000000001,-0.08239999999999992,-0.6864]",2,1.5282,91,-50,1,0,0,response3disk_5,25,1,1,0,0,rectangle_8,126,-50,1,0,0,2,8,-7,1,0,0,2,0,2,0,1,response3disk_7,5,rectangle_4,,,,,,,,,,,,,,,,,,,,,,,,,,,,,,,,,,,,,,,,,,,,,,,,,,,,,,,,,,,,,,,,,,,,,,,,,,,,,,,,,,,,,,,,,,,,,,,,,,,,,,,,,,,,,
,,,,,,5e1f2e9726d97425b32bf5ff,62c53951217a5e1fea5d9660,2022-07-06_09h36.09.833,Colour_Asymmetry_Pilot,2022.1.3,Win32,144.0092166,62c50e9c1127f2cd403a315f,,,,,,,,,,,,,,,,,,,"[0.09799999999999986,-0.24719999999999998,0.15280000000000005]",threeone,"[-0.6706000000000001,-0.6157999999999999,-0.6786]",-2,2.1589,-87,-44,1,0,0,response5disk_5,8,1,1,0,0,rectangle_8,8,1,1,0,0,2,8,1,1,0,0,3,0,3,0,1,,,,,,,,,,,,,,,,,,,,,,,,,,,,,,,,,,,,,,,,,,,,,,,,,,,,,,,,,,,,,,,,,,,,,,,,,,,,,,,,,,,,,,,,,,,,,,,,,,,,,,,,,,,,,,,,
,,,,,,5e1f2e9726d97425b32bf5ff,62c53951217a5e1fea5d9660,2022-07-06_09h36.09.833,Colour_Asymmetry_Pilot,2022.1.3,Win32,144.0092166,62c50e9c1127f2cd403a315f,,,,,,,,,,,,,,,,,,,"[-0.8982,-0.37259999999999993,0.2784]",threefour,"[-0.09019999999999995,0.44300000000000006,0.5371999999999999]",2,2.5498,135,-49,1,0,0,response3disk_5,4,-10,1,0,0,rectangle_8,4,-10,1,0,0,2,4,-10,1,0,0,4,0,4,0,1,,,,,,,,,,,,,,,,,,,,,,,,,,,,,,,,,,,,,,,,,,,,,,,,,,,,,,,,,,,,,,,,,,,,,,,,,,,,,,,,,,,,,,,,,,,,,,,,,,,,,,,,,,,,,,,,
,,,,,,5e1f2e9726d97425b32bf5ff,62c53951217a5e1fea5d9660,2022-07-06_09h36.09.833,Colour_Asymmetry_Pilot,2022.1.3,Win32,144.0092166,62c50e9c1127f2cd403a315f,,,,,,,,,,,,,,,,,,,"[0.23120000000000007,-0.7726,-0.34120000000000006]",fourtwo,"[0.9763999999999999,-0.1137999999999999,-0.6314]",1,1.2157,54,-94,1,0,0,response3disk_5,2,-4,1,0,0,rectangle_8,92,-54,1,0,0,2,3,-4,1,0,0,5,0,5,0,1,response3disk_7,5,rectangle_4,,,,,,,,,,,,,,,,,,,,,,,,,,,,,,,,,,,,,,,,,,,,,,,,,,,,,,,,,,,,,,,,,,,,,,,,,,,,,,,,,,,,,,,,,,,,,,,,,,,,,,,,,,,,,
,,,,,,5e1f2e9726d97425b32bf5ff,62c53951217a5e1fea5d9660,2022-07-06_09h36.09.833,Colour_Asymmetry_Pilot,2022.1.3,Win32,144.0092166,62c50e9c1127f2cd403a315f,,,,,,,,,,,,,,,,,,,"[0.7802,-0.23140000000000005,-0.20799999999999996]",onethree,"[-0.24719999999999998,0.5213999999999999,-0.12959999999999994]",-3,1.8171,-114,36,1,0,0,response7disk_5,7,-5,1,0,0,rectangle_8,7,-5,1,0,0,2,7,-5,1,0,0,6,0,6,0,1,,,,,,,,,,,,,,,,,,,,,,,,,,,,,,,,,,,,,,,,,,,,,,,,,,,,,,,,,,,,,,,,,,,,,,,,,,,,,,,,,,,,,,,,,,,,,,,,,,,,,,,,,,,,,,,,
,,,,,,5e1f2e9726d97425b32bf5ff,62c53951217a5e1fea5d9660,2022-07-06_09h36.09.833,Colour_Asymmetry_Pilot,2022.1.3,Win32,144.0092166,62c50e9c1127f2cd403a315f,,,,,,,,,,,,,,,,,,,,twofour,,-1,1.59,,,,,,,,,,,,,,,,,,,,,,,,,,,,,,,,space,5.3959,"[0.3881999999999999,-0.23939999999999995,-0.05040000000000011]","[-0.9766,-0.6472,0.07440000000000002]",-59,-118,1,0,0,response5disk,-1,-5,1,0,0,rectangle,-1,-5,1,0,0,,3,0.0019,0,-1,-5,1,0,0,0,0,0,41,1,41,first,,,,,,,,,,,,,,,,,,,,,,,,,,,,,,,,,,,,,,,,,,,,,,,,,,,,,,,,,,,,,,,,,,,,,,,,
,,,,,,5e1f2e9726d97425b32bf5ff,62c53951217a5e1fea5d9660,2022-07-06_09h36.09.833,Colour_Asymmetry_Pilot,2022.1.3,Win32,144.0092166,62c50e9c1127f2cd403a315f,,,,,,,,,,,,,,,,,,,,fourtwo,,-3,2.5492,,,,,,,,,,,,,,,,,,,,,,,,,,,,,,,,,,"[-0.5922000000000001,-0.7492000000000001,-0.5296000000000001]","[-0.48240000000000005,0.3175999999999999,0.2156]",-105,41,1,0,0,response7disk,-8,-7,1,0,0,rectangle,-8,-7,1,0,0,,2,0.0008,0,-8,-7,1,0,0,0,1,1,73,1,73,first,,,,,,,,,,,,,,,,,,,,,,,,,,,,,,,,,,,,,,,,,,,,,,,,,,,,,,,,,,,,,,,,,,,,,,,,
,,,,,,5e1f2e9726d97425b32bf5ff,62c53951217a5e1fea5d9660,2022-07-06_09h36.09.833,Colour_Asymmetry_Pilot,2022.1.3,Win32,144.0092166,62c50e9c1127f2cd403a315f,,,,,,,,,,,,,,,,,,,,twoone,,-1,1.2162,,,,,,,,,,,,,,,,,,,,,,,,,,,,,,,,,,"[-0.2942,-0.24719999999999998,-0.357]","[0.9372,0.20779999999999998,0.2704]",-81,-111,1,0,0,response5disk,-14,-8,1,0,0,rectangle,-14,-8,1,0,0,,3,0.0005,0,-14,-8,1,0,0,0,2,2,9,1,9,first,,,,,,,,,,,,,,,,,,,,,,,,,,,,,,,,,,,,,,,,,,,,,,,,,,,,,,,,,,,,,,,,,,,,,,,,
,,,,,,5e1f2e9726d97425b32bf5ff,62c53951217a5e1fea5d9660,2022-07-06_09h36.09.833,Colour_Asymmetry_Pilot,2022.1.3,Win32,144.0092166,62c50e9c1127f2cd403a315f,,,,,,,,,,,,,,,,,,,,twofour,,3,0.9241,,,,,,,,,,,,,,,,,,,,,,,,,,,,,,,,,,"[0.3568,-0.20799999999999996,-0.9844]","[0.04299999999999993,0.16060000000000008,-0.6628000000000001]",125,33,1,0,0,response1disk,-11,0,1,0,0,rectangle,-11,0,1,0,0,,2,0.0008,0,-11,0,1,0,0,0,3,3,82,1,1,second,,,,,,,,,,,,,,,,,,,,,,,,,,,,,,,,,,,,,,,,,,,,,,,,,,,,,,,,,,,,,,,,,,,,,,,,
,,,,,,5e1f2e9726d97425b32bf5ff,62c53951217a5e1fea5d9660,2022-07-06_09h36.09.833,Colour_Asymmetry_Pilot,2022.1.3,Win32,144.0092166,62c50e9c1127f2cd403a315f,,,,,,,,,,,,,,,,,,,,fourthree,,1,0.7701,,,,,,,,,,,,,,,,,,,,,,,,,,,,,,,,,,"[-0.7412000000000001,-0.08239999999999992,-0.6864]","[-0.9688,-0.4902000000000001,-0.12159999999999993]",37,-107,1,0,0,response3disk,-2,-2,1,0,0,rectangle,-2,-2,1,0,0,,3,0.0006,0,-2,-2,1,0,0,0,4,4,91,1,10,second,,,,,,,,,,,,,,,,,,,,,,,,,,,,,,,,,,,,,,,,,,,,,,,,,,,,,,,,,,,,,,,,,,,,,,,,
,,,,,,5e1f2e9726d97425b32bf5ff,62c53951217a5e1fea5d9660,2022-07-06_09h36.09.833,Colour_Asymmetry_Pilot,2022.1.3,Win32,144.0092166,62c50e9c1127f2cd403a315f,,,,,,,,,,,,,,,,,,,,onetwo,,-1,0.7783,,,,,,,,,,,,,,,,,,,,,,,,,,,,,,,,,,"[0.7018,0.7176,0.6155999999999999]","[-0.4746,-0.0354000000000001,0.5449999999999999]",-60,-107,1,0,0,response5disk,-5,1,1,0,0,rectangle,-5,1,1,0,0,,3,0.0001,0,-5,1,1,0,0,0,5,5,45,1,45,first,,,,,,,,,,,,,,,,,,,,,,,,,,,,,,,,,,,,,,,,,,,,,,,,,,,,,,,,,,,,,,,,,,,,,,,,
,,,,,,5e1f2e9726d97425b32bf5ff,62c53951217a5e1fea5d9660,2022-07-06_09h36.09.833,Colour_Asymmetry_Pilot,2022.1.3,Win32,144.0092166,62c50e9c1127f2cd403a315f,,,,,,,,,,,,,,,,,,,,fourtwo,,-1,1.91,,,,,,,,,,,,,,,,,,,,,,,,,,,,,,,,,,"[0.9372,0.20779999999999998,0.2704]","[0.0351999999999999,0.41159999999999997,0.0038000000000000256]",-64,-99,1,0,0,response5disk,-15,-1,1,0,0,rectangle,111,-61,1,0,0,2,2,3.0277,1,-14,4,1,0,0,0,6,6,76,1,76,first,response3disk_3,rectangle,,,,,,,,,,,,,,,,,,,,,,,,,,,,,,,,,,,,,,,,,,,,,,,,,,,,,,,,,,,,,,,,,,,,,,
,,,,,,5e1f2e9726d97425b32bf5ff,62c53951217a5e1fea5d9660,2022-07-06_09h36.09.833,Colour_Asymmetry_Pilot,2022.1.3,Win32,144.0092166,62c50e9c1127f2cd403a315f,,,,,,,,,,,,,,,,,,,,threeone,,-3,1.9933,,,,,,,,,,,,,,,,,,,,,,,,,,,,,,,,,,"[-0.9688,-0.7412000000000001,-0.4902000000000001]","[0.5528,0.7409999999999999,-0.71]",-106,59,1,0,0,response7disk,-5,-9,1,0,0,rectangle,117,-50,1,0,0,2,2,8.5285,1,-2,-4,1,0,0,0,7,7,36,1,36,first,response3disk_3,rectangle,,,,,,,,,,,,,,,,,,,,,,,,,,,,,,,,,,,,,,,,,,,,,,,,,,,,,,,,,,,,,,,,,,,,,,
,,,,,,5e1f2e9726d97425b32bf5ff,62c53951217a5e1fea5d9660,2022-07-06_09h36.09.833,Colour_Asymmetry_Pilot,2022.1.3,Win32,144.0092166,62c50e9c1127f2cd403a315f,,,,,,,,,,,,,,,,,,,,twoone,,4,1.6808,,,,,,,,,,,,,,,,,,,,,,,,,,,,,,,,,,"[0.34099999999999997,0.12939999999999996,-0.9766]","[0.9213999999999998,0.6391999999999998,-0.9922]",75,118,1,0,0,response1disk,5,-5,1,0,0,rectangle,5,-5,1,0,0,2,2,0,0,5,-5,1,0,0,0,8,8,43,1,43,first,,,,,,,,,,,,,,,,,,,,,,,,,,,,,,,,,,,,,,,,,,,,,,,,,,,,,,,,,,,,,,,,,,,,,,,,
,,,,,,5e1f2e9726d97425b32bf5ff,62c53951217a5e1fea5d9660,2022-07-06_09h36.09.833,Colour_Asymmetry_Pilot,2022.1.3,Win32,144.0092166,62c50e9c1127f2cd403a315f,,,,,,,,,,,,,,,,,,,,fourthree,,-1,1.3822,,,,,,,,,,,,,,,,,,,,,,,,,,,,,,,,,,"[0.04299999999999993,0.16060000000000008,-0.6628000000000001]","[0.40379999999999994,0.09000000000000008,0.44300000000000006]",-58,-91,1,0,0,response5disk,-7,-7,1,0,0,rectangle,-7,-7,1,0,0,2,3,0.0011,0,-7,-7,1,0,0,0,9,9,79,1,79,first,,,,,,,,,,,,,,,,,,,,,,,,,,,,,,,,,,,,,,,,,,,,,,,,,,,,,,,,,,,,,,,,,,,,,,,,
,,,,,,5e1f2e9726d97425b32bf5ff,62c53951217a5e1fea5d9660,2022-07-06_09h36.09.833,Colour_Asymmetry_Pilot,2022.1.3,Win32,144.0092166,62c50e9c1127f2cd403a315f,,,,,,,,,,,,,,,,,,,,threeone,,-3,0.9862,,,,,,,,,,,,,,,,,,,,,,,,,,,,,,,,,,"[-0.10599999999999998,-0.10599999999999998,0.5841999999999998]","[0.9213999999999998,0.6391999999999998,-0.9922]",-117,42,1,0,0,response7disk,-5,3,1,0,0,rectangle,-5,3,1,0,0,2,3,0.0002,0,-5,3,1,0,0,0,10,10,89,1,8,second,,,,,,,,,,,,,,,,,,,,,,,,,,,,,,,,,,,,,,,,,,,,,,,,,,,,,,,,,,,,,,,,,,,,,,,,
,,,,,,5e1f2e9726d97425b32bf5ff,62c53951217a5e1fea5d9660,2022-07-06_09h36.09.833,Colour_Asymmetry_Pilot,2022.1.3,Win32,144.0092166,62c50e9c1127f2cd403a315f,,,,,,,,,,,,,,,,,,,,threeone,,1,1.5004,,,,,,,,,,,,,,,,,,,,,,,,,,,,,,,,,,"[0.4196,0.4665999999999999,0.3568]","[0.9213999999999998,0.6391999999999998,-0.9922]",60,-102,1,0,0,response3disk,4,-5,1,0,0,rectangle,4,-5,1,0,0,2,3,0.0003,0,4,-5,1,0,0,0,11,11,152,1,71,second,,,,,,,,,,,,,,,,,,,,,,,,,,,,,,,,,,,,,,,,,,,,,,,,,,,,,,,,,,,,,,,,,,,,,,,,
,,,,,,5e1f2e9726d97425b32bf5ff,62c53951217a5e1fea5d9660,2022-07-06_09h36.09.833,Colour_Asymmetry_Pilot,2022.1.3,Win32,144.0092166,62c50e9c1127f2cd403a315f,,,,,,,,,,,,,,,,,,,,fourtwo,,-2,2.0215,,,,,,,,,,,,,,,,,,,,,,,,,,,,,,,,,,"[-0.09019999999999995,0.44300000000000006,0.5371999999999999]","[-0.38039999999999996,-0.4276,-0.1452]",-106,-42,1,0,0,response5disk,3,-4,1,0,0,rectangle,3,-4,1,0,0,2,2,0.001,0,3,-4,1,0,0,0,12,12,148,1,67,second,,,,,,,,,,,,,,,,,,,,,,,,,,,,,,,,,,,,,,,,,,,,,,,,,,,,,,,,,,,,,,,,,,,,,,,,
,,,,,,5e1f2e9726d97425b32bf5ff,62c53951217a5e1fea5d9660,2022-07-06_09h36.09.833,Colour_Asymmetry_Pilot,2022.1.3,Win32,144.0092166,62c50e9c1127f2cd403a315f,,,,,,,,,,,,,,,,,,,,threeone,,-4,1.3331,,,,,,,,,,,,,,,,,,,,,,,,,,,,,,,,,,"[0.3568,-0.20799999999999996,-0.9844]","[-0.9688,-0.38039999999999996,-0.41979999999999995]",-69,97,1,0,0,response7disk,-10,-1,1,0,0,rectangle,-10,-1,1,0,0,2,2,0.0001,0,-10,-1,1,0,0,0,13,13,19,1,19,first,,,,,,,,,,,,,,,,,,,,,,,,,,,,,,,,,,,,,,,,,,,,,,,,,,,,,,,,,,,,,,,,,,,,,,,,
,,,,,,5e1f2e9726d97425b32bf5ff,62c53951217a5e1fea5d9660,2022-07-06_09h36.09.833,Colour_Asymmetry_Pilot,2022.1.3,Win32,144.0092166,62c50e9c1127f2cd403a315f,,,,,,,,,,,,,,,,,,,,onethree,,-3,0.7571,,,,,,,,,,,,,,,,,,,,,,,,,,,,,,,,,,"[-0.9138,-0.5296000000000001,-0.5529999999999999]","[0.9763999999999999,0.30979999999999985,-0.6786]",-122,62,1,0,0,response7disk,6,13,1,0,0,rectangle,6,13,1,0,0,2,2,0.0001,0,6,13,1,0,0,0,14,14,29,1,29,first,,,,,,,,,,,,,,,,,,,,,,,,,,,,,,,,,,,,,,,,,,,,,,,,,,,,,,,,,,,,,,,,,,,,,,,,
,,,,,,5e1f2e9726d97425b32bf5ff,62c53951217a5e1fea5d9660,2022-07-06_09h36.09.833,Colour_Asymmetry_Pilot,2022.1.3,Win32,144.0092166,62c50e9c1127f2cd403a315f,,,,,,,,,,,,,,,,,,,,twoone,,-4,0.6042,,,,,,,,,,,,,,,,,,,,,,,,,,,,,,,,,,"[-0.48240000000000005,0.3175999999999999,0.2156]","[-0.5922000000000001,-0.7492000000000001,-0.5296000000000001]",-54,92,1,0,0,response7disk,-13,-5,1,0,0,rectangle,-13,-5,1,0,0,2,2,0.0001,0,-13,-5,1,0,0,0,15,15,154,1,73,second,,,,,,,,,,,,,,,,,,,,,,,,,,,,,,,,,,,,,,,,,,,,,,,,,,,,,,,,,,,,,,,,,,,,,,,,
,,,,,,5e1f2e9726d97425b32bf5ff,62c53951217a5e1fea5d9660,2022-07-06_09h36.09.833,Colour_Asymmetry_Pilot,2022.1.3,Win32,144.0092166,62c50e9c1127f2cd403a315f,,,,,,,,,,,,,,,,,,,,threeone,,-2,1.3262,,,,,,,,,,,,,,,,,,,,,,,,,,,,,,,,,,"[-0.30200000000000005,0.14500000000000002,0.2784]","[0.6625999999999999,0.4980000000000002,-0.357]",-99,-43,1,0,0,response5disk,2,3,1,0,0,rectangle,2,3,1,0,0,2,1,0.0007,0,2,3,1,0,0,0,16,16,80,1,80,first,,,,,,,,,,,,,,,,,,,,,,,,,,,,,,,,,,,,,,,,,,,,,,,,,,,,,,,,,,,,,,,,,,,,,,,,
