trials.thisRepN,trials.thisTrialN,trials.thisN,trials.thisIndex,trials.ran,Colourcodes,participant,session,date,expName,psychopyVersion,OS,frameRate,study_id,trials_4.thisRepN,trials_4.thisTrialN,trials_4.thisN,trials_4.thisIndex,trials_4.ran,StimulusPos,key_resp.keys,key_resp.rt,key_resp_2.keys,key_resp_2.rt,key_resp_15.keys,key_resp_15.rt,key_resp_17.keys,key_resp_17.rt,key_resp_9.keys,key_resp_9.rt,key_resp_10.keys,key_resp_10.rt,Circle1_col,Ecc,Circle2_col,similarity,response_time,mouse_5.x,mouse_5.y,mouse_5.leftButton,mouse_5.midButton,mouse_5.rightButton,mouse_5.clicked_name,mouse_10.x,mouse_10.y,mouse_10.leftButton,mouse_10.midButton,mouse_10.rightButton,mouse_10.clicked_name,mouse_7.x,mouse_7.y,mouse_7.leftButton,mouse_7.midButton,mouse_7.rightButton,catchnumberprac,mouse_6.x,mouse_6.y,mouse_6.leftButton,mouse_6.midButton,mouse_6.rightButton,duringprac.thisRepN,duringprac.thisTrialN,duringprac.thisN,duringprac.thisIndex,duringprac.ran,mouse_7.clicked_name,catchprac,mouse_6.clicked_name,key_resp_22.keys,key_resp_22.rt,Circle1_colour,Circle2_colour,mouse.x,mouse.y,mouse.leftButton,mouse.midButton,mouse.rightButton,mouse.clicked_name,mouse_2.x,mouse_2.y,mouse_2.leftButton,mouse_2.midButton,mouse_2.rightButton,mouse_2.clicked_name,mouse_3.x,mouse_3.y,mouse_3.leftButton,mouse_3.midButton,mouse_3.rightButton,catchresponse,catchnumber,response_time_catch,Catch,mouse_11.x,mouse_11.y,mouse_11.leftButton,mouse_11.midButton,mouse_11.rightButton,trials_2.thisRepN,trials_2.thisTrialN,trials_2.thisN,trials_2.thisIndex,trials_2.ran,Colourpair,Temporder,mouse_3.clicked_name,mouse_11.clicked_name,trials_3.thisRepN,trials_3.thisTrialN,trials_3.thisN,trials_3.thisIndex,trials_3.ran,key_resp_instr_Ishi.keys,key_resp_instr_Ishi.rt,Ishi_trial_keyresp.keys,Ishi_textbox.text,Ishi_mouse.x,Ishi_mouse.y,Ishi_mouse.leftButton,Ishi_mouse.midButton,Ishi_mouse.rightButton,Ishi_mouse.clicked_name,Ishi_loop.thisRepN,Ishi_loop.thisTrialN,Ishi_loop.thisN,Ishi_loop.thisIndex,Ishi_loop.ran,imageaddress,textbox.text,mouse_4.x,mouse_4.y,mouse_4.leftButton,mouse_4.midButton,mouse_4.rightButton,mouse_4.clicked_name,textbox_2.text,mouse_8.x,mouse_8.y,mouse_8.leftButton,mouse_8.midButton,mouse_8.rightButton,mouse_8.clicked_name,textbox_3.text,mouse_9.x,mouse_9.y,mouse_9.leftButton,mouse_9.midButton,mouse_9.rightButton,mouse_9.clicked_name,textbox_4.text,mouse_12.x,mouse_12.y,mouse_12.leftButton,mouse_12.midButton,mouse_12.rightButton,mouse_12.clicked_name,textbox_5.text,mouse_13.x,mouse_13.y,mouse_13.leftButton,mouse_13.midButton,mouse_13.rightButton,mouse_13.clicked_name,textbox_6.text,mouse_14.x,mouse_14.y,mouse_14.leftButton,mouse_14.midButton,mouse_14.rightButton,mouse_14.clicked_name,textbox_7.text,mouse_15.x,mouse_15.y,mouse_15.leftButton,mouse_15.midButton,mouse_15.rightButton,mouse_15.clicked_name
0,0,0,5,1,,6155e204cc071b306458dfff,62c53cd1ec0c00c709b91f2e,2022-07-06_09h42.23.365,Colour_Asymmetry_Pilot,2022.1.3,Win32,60.0240096,62c50e9c1127f2cd403a315f,,,,,,,,,,,,,,,,,,,,,,,,,,,,,,,,,,,,,,,,,,,,,,,,,,,,,,,,,,,,,,,,,,,,,,,,,,,,,,,,,,,,,,,,,,,,,,,,,,,,,,,,,,,,,,,,,,,,,,,,,,,,,,,,,,,,,,,,,,,,,,,,,,,,,,,,,,,,,,,,,,,
0,1,1,58,1,,6155e204cc071b306458dfff,62c53cd1ec0c00c709b91f2e,2022-07-06_09h42.23.365,Colour_Asymmetry_Pilot,2022.1.3,Win32,60.0240096,62c50e9c1127f2cd403a315f,,,,,,,,,,,,,,,,,,,,,,,,,,,,,,,,,,,,,,,,,,,,,,,,,,,,,,,,,,,,,,,,,,,,,,,,,,,,,,,,,,,,,,,,,,,,,,,,,,,,,,,,,,,,,,,,,,,,,,,,,,,,,,,,,,,,,,,,,,,,,,,,,,,,,,,,,,,,,,,,,,,
0,2,2,4,1,,6155e204cc071b306458dfff,62c53cd1ec0c00c709b91f2e,2022-07-06_09h42.23.365,Colour_Asymmetry_Pilot,2022.1.3,Win32,60.0240096,62c50e9c1127f2cd403a315f,,,,,,,,,,,,,,,,,,,,,,,,,,,,,,,,,,,,,,,,,,,,,,,,,,,,,,,,,,,,,,,,,,,,,,,,,,,,,,,,,,,,,,,,,,,,,,,,,,,,,,,,,,,,,,,,,,,,,,,,,,,,,,,,,,,,,,,,,,,,,,,,,,,,,,,,,,,,,,,,,,,
0,3,3,0,1,,6155e204cc071b306458dfff,62c53cd1ec0c00c709b91f2e,2022-07-06_09h42.23.365,Colour_Asymmetry_Pilot,2022.1.3,Win32,60.0240096,62c50e9c1127f2cd403a315f,,,,,,,,,,,,,,,,,,,,,,,,,,,,,,,,,,,,,,,,,,,,,,,,,,,,,,,,,,,,,,,,,,,,,,,,,,,,,,,,,,,,,,,,,,,,,,,,,,,,,,,,,,,,,,,,,,,,,,,,,,,,,,,,,,,,,,,,,,,,,,,,,,,,,,,,,,,,,,,,,,,
0,4,4,71,1,,6155e204cc071b306458dfff,62c53cd1ec0c00c709b91f2e,2022-07-06_09h42.23.365,Colour_Asymmetry_Pilot,2022.1.3,Win32,60.0240096,62c50e9c1127f2cd403a315f,,,,,,,,,,,,,,,,,,,,,,,,,,,,,,,,,,,,,,,,,,,,,,,,,,,,,,,,,,,,,,,,,,,,,,,,,,,,,,,,,,,,,,,,,,,,,,,,,,,,,,,,,,,,,,,,,,,,,,,,,,,,,,,,,,,,,,,,,,,,,,,,,,,,,,,,,,,,,,,,,,,
0,5,5,82,1,,6155e204cc071b306458dfff,62c53cd1ec0c00c709b91f2e,2022-07-06_09h42.23.365,Colour_Asymmetry_Pilot,2022.1.3,Win32,60.0240096,62c50e9c1127f2cd403a315f,,,,,,,,,,,,,,,,,,,,,,,,,,,,,,,,,,,,,,,,,,,,,,,,,,,,,,,,,,,,,,,,,,,,,,,,,,,,,,,,,,,,,,,,,,,,,,,,,,,,,,,,,,,,,,,,,,,,,,,,,,,,,,,,,,,,,,,,,,,,,,,,,,,,,,,,,,,,,,,,,,,
0,6,6,2,1,,6155e204cc071b306458dfff,62c53cd1ec0c00c709b91f2e,2022-07-06_09h42.23.365,Colour_Asymmetry_Pilot,2022.1.3,Win32,60.0240096,62c50e9c1127f2cd403a315f,,,,,,,,,,,,,,,,,,,,,,,,,,,,,,,,,,,,,,,,,,,,,,,,,,,,,,,,,,,,,,,,,,,,,,,,,,,,,,,,,,,,,,,,,,,,,,,,,,,,,,,,,,,,,,,,,,,,,,,,,,,,,,,,,,,,,,,,,,,,,,,,,,,,,,,,,,,,,,,,,,,
0,7,7,30,1,,6155e204cc071b306458dfff,62c53cd1ec0c00c709b91f2e,2022-07-06_09h42.23.365,Colour_Asymmetry_Pilot,2022.1.3,Win32,60.0240096,62c50e9c1127f2cd403a315f,,,,,,,,,,,,,,,,,,,,,,,,,,,,,,,,,,,,,,,,,,,,,,,,,,,,,,,,,,,,,,,,,,,,,,,,,,,,,,,,,,,,,,,,,,,,,,,,,,,,,,,,,,,,,,,,,,,,,,,,,,,,,,,,,,,,,,,,,,,,,,,,,,,,,,,,,,,,,,,,,,,
0,8,8,1,1,,6155e204cc071b306458dfff,62c53cd1ec0c00c709b91f2e,2022-07-06_09h42.23.365,Colour_Asymmetry_Pilot,2022.1.3,Win32,60.0240096,62c50e9c1127f2cd403a315f,,,,,,,,,,,,,,,,,,,,,,,,,,,,,,,,,,,,,,,,,,,,,,,,,,,,,,,,,,,,,,,,,,,,,,,,,,,,,,,,,,,,,,,,,,,,,,,,,,,,,,,,,,,,,,,,,,,,,,,,,,,,,,,,,,,,,,,,,,,,,,,,,,,,,,,,,,,,,,,,,,,
0,9,9,87,1,,6155e204cc071b306458dfff,62c53cd1ec0c00c709b91f2e,2022-07-06_09h42.23.365,Colour_Asymmetry_Pilot,2022.1.3,Win32,60.0240096,62c50e9c1127f2cd403a315f,,,,,,,,,,,,,,,,,,,,,,,,,,,,,,,,,,,,,,,,,,,,,,,,,,,,,,,,,,,,,,,,,,,,,,,,,,,,,,,,,,,,,,,,,,,,,,,,,,,,,,,,,,,,,,,,,,,,,,,,,,,,,,,,,,,,,,,,,,,,,,,,,,,,,,,,,,,,,,,,,,,
0,10,10,9,1,,6155e204cc071b306458dfff,62c53cd1ec0c00c709b91f2e,2022-07-06_09h42.23.365,Colour_Asymmetry_Pilot,2022.1.3,Win32,60.0240096,62c50e9c1127f2cd403a315f,,,,,,,,,,,,,,,,,,,,,,,,,,,,,,,,,,,,,,,,,,,,,,,,,,,,,,,,,,,,,,,,,,,,,,,,,,,,,,,,,,,,,,,,,,,,,,,,,,,,,,,,,,,,,,,,,,,,,,,,,,,,,,,,,,,,,,,,,,,,,,,,,,,,,,,,,,,,,,,,,,,
0,11,11,88,1,,6155e204cc071b306458dfff,62c53cd1ec0c00c709b91f2e,2022-07-06_09h42.23.365,Colour_Asymmetry_Pilot,2022.1.3,Win32,60.0240096,62c50e9c1127f2cd403a315f,,,,,,,,,,,,,,,,,,,,,,,,,,,,,,,,,,,,,,,,,,,,,,,,,,,,,,,,,,,,,,,,,,,,,,,,,,,,,,,,,,,,,,,,,,,,,,,,,,,,,,,,,,,,,,,,,,,,,,,,,,,,,,,,,,,,,,,,,,,,,,,,,,,,,,,,,,,,,,,,,,,
0,12,12,62,1,,6155e204cc071b306458dfff,62c53cd1ec0c00c709b91f2e,2022-07-06_09h42.23.365,Colour_Asymmetry_Pilot,2022.1.3,Win32,60.0240096,62c50e9c1127f2cd403a315f,,,,,,,,,,,,,,,,,,,,,,,,,,,,,,,,,,,,,,,,,,,,,,,,,,,,,,,,,,,,,,,,,,,,,,,,,,,,,,,,,,,,,,,,,,,,,,,,,,,,,,,,,,,,,,,,,,,,,,,,,,,,,,,,,,,,,,,,,,,,,,,,,,,,,,,,,,,,,,,,,,,
0,13,13,25,1,,6155e204cc071b306458dfff,62c53cd1ec0c00c709b91f2e,2022-07-06_09h42.23.365,Colour_Asymmetry_Pilot,2022.1.3,Win32,60.0240096,62c50e9c1127f2cd403a315f,,,,,,,,,,,,,,,,,,,,,,,,,,,,,,,,,,,,,,,,,,,,,,,,,,,,,,,,,,,,,,,,,,,,,,,,,,,,,,,,,,,,,,,,,,,,,,,,,,,,,,,,,,,,,,,,,,,,,,,,,,,,,,,,,,,,,,,,,,,,,,,,,,,,,,,,,,,,,,,,,,,
0,14,14,43,1,,6155e204cc071b306458dfff,62c53cd1ec0c00c709b91f2e,2022-07-06_09h42.23.365,Colour_Asymmetry_Pilot,2022.1.3,Win32,60.0240096,62c50e9c1127f2cd403a315f,,,,,,,,,,,,,,,,,,,,,,,,,,,,,,,,,,,,,,,,,,,,,,,,,,,,,,,,,,,,,,,,,,,,,,,,,,,,,,,,,,,,,,,,,,,,,,,,,,,,,,,,,,,,,,,,,,,,,,,,,,,,,,,,,,,,,,,,,,,,,,,,,,,,,,,,,,,,,,,,,,,
0,15,15,60,1,,6155e204cc071b306458dfff,62c53cd1ec0c00c709b91f2e,2022-07-06_09h42.23.365,Colour_Asymmetry_Pilot,2022.1.3,Win32,60.0240096,62c50e9c1127f2cd403a315f,,,,,,,,,,,,,,,,,,,,,,,,,,,,,,,,,,,,,,,,,,,,,,,,,,,,,,,,,,,,,,,,,,,,,,,,,,,,,,,,,,,,,,,,,,,,,,,,,,,,,,,,,,,,,,,,,,,,,,,,,,,,,,,,,,,,,,,,,,,,,,,,,,,,,,,,,,,,,,,,,,,
0,16,16,40,1,,6155e204cc071b306458dfff,62c53cd1ec0c00c709b91f2e,2022-07-06_09h42.23.365,Colour_Asymmetry_Pilot,2022.1.3,Win32,60.0240096,62c50e9c1127f2cd403a315f,,,,,,,,,,,,,,,,,,,,,,,,,,,,,,,,,,,,,,,,,,,,,,,,,,,,,,,,,,,,,,,,,,,,,,,,,,,,,,,,,,,,,,,,,,,,,,,,,,,,,,,,,,,,,,,,,,,,,,,,,,,,,,,,,,,,,,,,,,,,,,,,,,,,,,,,,,,,,,,,,,,
0,17,17,22,1,,6155e204cc071b306458dfff,62c53cd1ec0c00c709b91f2e,2022-07-06_09h42.23.365,Colour_Asymmetry_Pilot,2022.1.3,Win32,60.0240096,62c50e9c1127f2cd403a315f,,,,,,,,,,,,,,,,,,,,,,,,,,,,,,,,,,,,,,,,,,,,,,,,,,,,,,,,,,,,,,,,,,,,,,,,,,,,,,,,,,,,,,,,,,,,,,,,,,,,,,,,,,,,,,,,,,,,,,,,,,,,,,,,,,,,,,,,,,,,,,,,,,,,,,,,,,,,,,,,,,,
0,18,18,79,1,,6155e204cc071b306458dfff,62c53cd1ec0c00c709b91f2e,2022-07-06_09h42.23.365,Colour_Asymmetry_Pilot,2022.1.3,Win32,60.0240096,62c50e9c1127f2cd403a315f,,,,,,,,,,,,,,,,,,,,,,,,,,,,,,,,,,,,,,,,,,,,,,,,,,,,,,,,,,,,,,,,,,,,,,,,,,,,,,,,,,,,,,,,,,,,,,,,,,,,,,,,,,,,,,,,,,,,,,,,,,,,,,,,,,,,,,,,,,,,,,,,,,,,,,,,,,,,,,,,,,,
0,19,19,76,1,,6155e204cc071b306458dfff,62c53cd1ec0c00c709b91f2e,2022-07-06_09h42.23.365,Colour_Asymmetry_Pilot,2022.1.3,Win32,60.0240096,62c50e9c1127f2cd403a315f,,,,,,,,,,,,,,,,,,,,,,,,,,,,,,,,,,,,,,,,,,,,,,,,,,,,,,,,,,,,,,,,,,,,,,,,,,,,,,,,,,,,,,,,,,,,,,,,,,,,,,,,,,,,,,,,,,,,,,,,,,,,,,,,,,,,,,,,,,,,,,,,,,,,,,,,,,,,,,,,,,,
0,20,20,42,1,,6155e204cc071b306458dfff,62c53cd1ec0c00c709b91f2e,2022-07-06_09h42.23.365,Colour_Asymmetry_Pilot,2022.1.3,Win32,60.0240096,62c50e9c1127f2cd403a315f,,,,,,,,,,,,,,,,,,,,,,,,,,,,,,,,,,,,,,,,,,,,,,,,,,,,,,,,,,,,,,,,,,,,,,,,,,,,,,,,,,,,,,,,,,,,,,,,,,,,,,,,,,,,,,,,,,,,,,,,,,,,,,,,,,,,,,,,,,,,,,,,,,,,,,,,,,,,,,,,,,,
0,21,21,92,1,,6155e204cc071b306458dfff,62c53cd1ec0c00c709b91f2e,2022-07-06_09h42.23.365,Colour_Asymmetry_Pilot,2022.1.3,Win32,60.0240096,62c50e9c1127f2cd403a315f,,,,,,,,,,,,,,,,,,,,,,,,,,,,,,,,,,,,,,,,,,,,,,,,,,,,,,,,,,,,,,,,,,,,,,,,,,,,,,,,,,,,,,,,,,,,,,,,,,,,,,,,,,,,,,,,,,,,,,,,,,,,,,,,,,,,,,,,,,,,,,,,,,,,,,,,,,,,,,,,,,,
0,22,22,39,1,,6155e204cc071b306458dfff,62c53cd1ec0c00c709b91f2e,2022-07-06_09h42.23.365,Colour_Asymmetry_Pilot,2022.1.3,Win32,60.0240096,62c50e9c1127f2cd403a315f,,,,,,,,,,,,,,,,,,,,,,,,,,,,,,,,,,,,,,,,,,,,,,,,,,,,,,,,,,,,,,,,,,,,,,,,,,,,,,,,,,,,,,,,,,,,,,,,,,,,,,,,,,,,,,,,,,,,,,,,,,,,,,,,,,,,,,,,,,,,,,,,,,,,,,,,,,,,,,,,,,,
0,23,23,64,1,,6155e204cc071b306458dfff,62c53cd1ec0c00c709b91f2e,2022-07-06_09h42.23.365,Colour_Asymmetry_Pilot,2022.1.3,Win32,60.0240096,62c50e9c1127f2cd403a315f,,,,,,,,,,,,,,,,,,,,,,,,,,,,,,,,,,,,,,,,,,,,,,,,,,,,,,,,,,,,,,,,,,,,,,,,,,,,,,,,,,,,,,,,,,,,,,,,,,,,,,,,,,,,,,,,,,,,,,,,,,,,,,,,,,,,,,,,,,,,,,,,,,,,,,,,,,,,,,,,,,,
0,24,24,67,1,,6155e204cc071b306458dfff,62c53cd1ec0c00c709b91f2e,2022-07-06_09h42.23.365,Colour_Asymmetry_Pilot,2022.1.3,Win32,60.0240096,62c50e9c1127f2cd403a315f,,,,,,,,,,,,,,,,,,,,,,,,,,,,,,,,,,,,,,,,,,,,,,,,,,,,,,,,,,,,,,,,,,,,,,,,,,,,,,,,,,,,,,,,,,,,,,,,,,,,,,,,,,,,,,,,,,,,,,,,,,,,,,,,,,,,,,,,,,,,,,,,,,,,,,,,,,,,,,,,,,,
0,25,25,56,1,,6155e204cc071b306458dfff,62c53cd1ec0c00c709b91f2e,2022-07-06_09h42.23.365,Colour_Asymmetry_Pilot,2022.1.3,Win32,60.0240096,62c50e9c1127f2cd403a315f,,,,,,,,,,,,,,,,,,,,,,,,,,,,,,,,,,,,,,,,,,,,,,,,,,,,,,,,,,,,,,,,,,,,,,,,,,,,,,,,,,,,,,,,,,,,,,,,,,,,,,,,,,,,,,,,,,,,,,,,,,,,,,,,,,,,,,,,,,,,,,,,,,,,,,,,,,,,,,,,,,,
0,26,26,61,1,,6155e204cc071b306458dfff,62c53cd1ec0c00c709b91f2e,2022-07-06_09h42.23.365,Colour_Asymmetry_Pilot,2022.1.3,Win32,60.0240096,62c50e9c1127f2cd403a315f,,,,,,,,,,,,,,,,,,,,,,,,,,,,,,,,,,,,,,,,,,,,,,,,,,,,,,,,,,,,,,,,,,,,,,,,,,,,,,,,,,,,,,,,,,,,,,,,,,,,,,,,,,,,,,,,,,,,,,,,,,,,,,,,,,,,,,,,,,,,,,,,,,,,,,,,,,,,,,,,,,,
0,27,27,91,1,,6155e204cc071b306458dfff,62c53cd1ec0c00c709b91f2e,2022-07-06_09h42.23.365,Colour_Asymmetry_Pilot,2022.1.3,Win32,60.0240096,62c50e9c1127f2cd403a315f,,,,,,,,,,,,,,,,,,,,,,,,,,,,,,,,,,,,,,,,,,,,,,,,,,,,,,,,,,,,,,,,,,,,,,,,,,,,,,,,,,,,,,,,,,,,,,,,,,,,,,,,,,,,,,,,,,,,,,,,,,,,,,,,,,,,,,,,,,,,,,,,,,,,,,,,,,,,,,,,,,,
0,28,28,31,1,,6155e204cc071b306458dfff,62c53cd1ec0c00c709b91f2e,2022-07-06_09h42.23.365,Colour_Asymmetry_Pilot,2022.1.3,Win32,60.0240096,62c50e9c1127f2cd403a315f,,,,,,,,,,,,,,,,,,,,,,,,,,,,,,,,,,,,,,,,,,,,,,,,,,,,,,,,,,,,,,,,,,,,,,,,,,,,,,,,,,,,,,,,,,,,,,,,,,,,,,,,,,,,,,,,,,,,,,,,,,,,,,,,,,,,,,,,,,,,,,,,,,,,,,,,,,,,,,,,,,,
0,29,29,26,1,,6155e204cc071b306458dfff,62c53cd1ec0c00c709b91f2e,2022-07-06_09h42.23.365,Colour_Asymmetry_Pilot,2022.1.3,Win32,60.0240096,62c50e9c1127f2cd403a315f,,,,,,,,,,,,,,,,,,,,,,,,,,,,,,,,,,,,,,,,,,,,,,,,,,,,,,,,,,,,,,,,,,,,,,,,,,,,,,,,,,,,,,,,,,,,,,,,,,,,,,,,,,,,,,,,,,,,,,,,,,,,,,,,,,,,,,,,,,,,,,,,,,,,,,,,,,,,,,,,,,,
0,30,30,37,1,,6155e204cc071b306458dfff,62c53cd1ec0c00c709b91f2e,2022-07-06_09h42.23.365,Colour_Asymmetry_Pilot,2022.1.3,Win32,60.0240096,62c50e9c1127f2cd403a315f,,,,,,,,,,,,,,,,,,,,,,,,,,,,,,,,,,,,,,,,,,,,,,,,,,,,,,,,,,,,,,,,,,,,,,,,,,,,,,,,,,,,,,,,,,,,,,,,,,,,,,,,,,,,,,,,,,,,,,,,,,,,,,,,,,,,,,,,,,,,,,,,,,,,,,,,,,,,,,,,,,,
0,31,31,19,1,,6155e204cc071b306458dfff,62c53cd1ec0c00c709b91f2e,2022-07-06_09h42.23.365,Colour_Asymmetry_Pilot,2022.1.3,Win32,60.0240096,62c50e9c1127f2cd403a315f,,,,,,,,,,,,,,,,,,,,,,,,,,,,,,,,,,,,,,,,,,,,,,,,,,,,,,,,,,,,,,,,,,,,,,,,,,,,,,,,,,,,,,,,,,,,,,,,,,,,,,,,,,,,,,,,,,,,,,,,,,,,,,,,,,,,,,,,,,,,,,,,,,,,,,,,,,,,,,,,,,,
0,32,32,3,1,,6155e204cc071b306458dfff,62c53cd1ec0c00c709b91f2e,2022-07-06_09h42.23.365,Colour_Asymmetry_Pilot,2022.1.3,Win32,60.0240096,62c50e9c1127f2cd403a315f,,,,,,,,,,,,,,,,,,,,,,,,,,,,,,,,,,,,,,,,,,,,,,,,,,,,,,,,,,,,,,,,,,,,,,,,,,,,,,,,,,,,,,,,,,,,,,,,,,,,,,,,,,,,,,,,,,,,,,,,,,,,,,,,,,,,,,,,,,,,,,,,,,,,,,,,,,,,,,,,,,,
0,33,33,81,1,,6155e204cc071b306458dfff,62c53cd1ec0c00c709b91f2e,2022-07-06_09h42.23.365,Colour_Asymmetry_Pilot,2022.1.3,Win32,60.0240096,62c50e9c1127f2cd403a315f,,,,,,,,,,,,,,,,,,,,,,,,,,,,,,,,,,,,,,,,,,,,,,,,,,,,,,,,,,,,,,,,,,,,,,,,,,,,,,,,,,,,,,,,,,,,,,,,,,,,,,,,,,,,,,,,,,,,,,,,,,,,,,,,,,,,,,,,,,,,,,,,,,,,,,,,,,,,,,,,,,,
0,34,34,51,1,,6155e204cc071b306458dfff,62c53cd1ec0c00c709b91f2e,2022-07-06_09h42.23.365,Colour_Asymmetry_Pilot,2022.1.3,Win32,60.0240096,62c50e9c1127f2cd403a315f,,,,,,,,,,,,,,,,,,,,,,,,,,,,,,,,,,,,,,,,,,,,,,,,,,,,,,,,,,,,,,,,,,,,,,,,,,,,,,,,,,,,,,,,,,,,,,,,,,,,,,,,,,,,,,,,,,,,,,,,,,,,,,,,,,,,,,,,,,,,,,,,,,,,,,,,,,,,,,,,,,,
0,35,35,35,1,,6155e204cc071b306458dfff,62c53cd1ec0c00c709b91f2e,2022-07-06_09h42.23.365,Colour_Asymmetry_Pilot,2022.1.3,Win32,60.0240096,62c50e9c1127f2cd403a315f,,,,,,,,,,,,,,,,,,,,,,,,,,,,,,,,,,,,,,,,,,,,,,,,,,,,,,,,,,,,,,,,,,,,,,,,,,,,,,,,,,,,,,,,,,,,,,,,,,,,,,,,,,,,,,,,,,,,,,,,,,,,,,,,,,,,,,,,,,,,,,,,,,,,,,,,,,,,,,,,,,,
0,36,36,14,1,,6155e204cc071b306458dfff,62c53cd1ec0c00c709b91f2e,2022-07-06_09h42.23.365,Colour_Asymmetry_Pilot,2022.1.3,Win32,60.0240096,62c50e9c1127f2cd403a315f,,,,,,,,,,,,,,,,,,,,,,,,,,,,,,,,,,,,,,,,,,,,,,,,,,,,,,,,,,,,,,,,,,,,,,,,,,,,,,,,,,,,,,,,,,,,,,,,,,,,,,,,,,,,,,,,,,,,,,,,,,,,,,,,,,,,,,,,,,,,,,,,,,,,,,,,,,,,,,,,,,,
0,37,37,36,1,,6155e204cc071b306458dfff,62c53cd1ec0c00c709b91f2e,2022-07-06_09h42.23.365,Colour_Asymmetry_Pilot,2022.1.3,Win32,60.0240096,62c50e9c1127f2cd403a315f,,,,,,,,,,,,,,,,,,,,,,,,,,,,,,,,,,,,,,,,,,,,,,,,,,,,,,,,,,,,,,,,,,,,,,,,,,,,,,,,,,,,,,,,,,,,,,,,,,,,,,,,,,,,,,,,,,,,,,,,,,,,,,,,,,,,,,,,,,,,,,,,,,,,,,,,,,,,,,,,,,,
0,38,38,11,1,,6155e204cc071b306458dfff,62c53cd1ec0c00c709b91f2e,2022-07-06_09h42.23.365,Colour_Asymmetry_Pilot,2022.1.3,Win32,60.0240096,62c50e9c1127f2cd403a315f,,,,,,,,,,,,,,,,,,,,,,,,,,,,,,,,,,,,,,,,,,,,,,,,,,,,,,,,,,,,,,,,,,,,,,,,,,,,,,,,,,,,,,,,,,,,,,,,,,,,,,,,,,,,,,,,,,,,,,,,,,,,,,,,,,,,,,,,,,,,,,,,,,,,,,,,,,,,,,,,,,,
0,39,39,70,1,,6155e204cc071b306458dfff,62c53cd1ec0c00c709b91f2e,2022-07-06_09h42.23.365,Colour_Asymmetry_Pilot,2022.1.3,Win32,60.0240096,62c50e9c1127f2cd403a315f,,,,,,,,,,,,,,,,,,,,,,,,,,,,,,,,,,,,,,,,,,,,,,,,,,,,,,,,,,,,,,,,,,,,,,,,,,,,,,,,,,,,,,,,,,,,,,,,,,,,,,,,,,,,,,,,,,,,,,,,,,,,,,,,,,,,,,,,,,,,,,,,,,,,,,,,,,,,,,,,,,,
0,40,40,69,1,,6155e204cc071b306458dfff,62c53cd1ec0c00c709b91f2e,2022-07-06_09h42.23.365,Colour_Asymmetry_Pilot,2022.1.3,Win32,60.0240096,62c50e9c1127f2cd403a315f,,,,,,,,,,,,,,,,,,,,,,,,,,,,,,,,,,,,,,,,,,,,,,,,,,,,,,,,,,,,,,,,,,,,,,,,,,,,,,,,,,,,,,,,,,,,,,,,,,,,,,,,,,,,,,,,,,,,,,,,,,,,,,,,,,,,,,,,,,,,,,,,,,,,,,,,,,,,,,,,,,,
0,41,41,53,1,,6155e204cc071b306458dfff,62c53cd1ec0c00c709b91f2e,2022-07-06_09h42.23.365,Colour_Asymmetry_Pilot,2022.1.3,Win32,60.0240096,62c50e9c1127f2cd403a315f,,,,,,,,,,,,,,,,,,,,,,,,,,,,,,,,,,,,,,,,,,,,,,,,,,,,,,,,,,,,,,,,,,,,,,,,,,,,,,,,,,,,,,,,,,,,,,,,,,,,,,,,,,,,,,,,,,,,,,,,,,,,,,,,,,,,,,,,,,,,,,,,,,,,,,,,,,,,,,,,,,,
0,42,42,21,1,,6155e204cc071b306458dfff,62c53cd1ec0c00c709b91f2e,2022-07-06_09h42.23.365,Colour_Asymmetry_Pilot,2022.1.3,Win32,60.0240096,62c50e9c1127f2cd403a315f,,,,,,,,,,,,,,,,,,,,,,,,,,,,,,,,,,,,,,,,,,,,,,,,,,,,,,,,,,,,,,,,,,,,,,,,,,,,,,,,,,,,,,,,,,,,,,,,,,,,,,,,,,,,,,,,,,,,,,,,,,,,,,,,,,,,,,,,,,,,,,,,,,,,,,,,,,,,,,,,,,,
0,43,43,57,1,,6155e204cc071b306458dfff,62c53cd1ec0c00c709b91f2e,2022-07-06_09h42.23.365,Colour_Asymmetry_Pilot,2022.1.3,Win32,60.0240096,62c50e9c1127f2cd403a315f,,,,,,,,,,,,,,,,,,,,,,,,,,,,,,,,,,,,,,,,,,,,,,,,,,,,,,,,,,,,,,,,,,,,,,,,,,,,,,,,,,,,,,,,,,,,,,,,,,,,,,,,,,,,,,,,,,,,,,,,,,,,,,,,,,,,,,,,,,,,,,,,,,,,,,,,,,,,,,,,,,,
0,44,44,10,1,,6155e204cc071b306458dfff,62c53cd1ec0c00c709b91f2e,2022-07-06_09h42.23.365,Colour_Asymmetry_Pilot,2022.1.3,Win32,60.0240096,62c50e9c1127f2cd403a315f,,,,,,,,,,,,,,,,,,,,,,,,,,,,,,,,,,,,,,,,,,,,,,,,,,,,,,,,,,,,,,,,,,,,,,,,,,,,,,,,,,,,,,,,,,,,,,,,,,,,,,,,,,,,,,,,,,,,,,,,,,,,,,,,,,,,,,,,,,,,,,,,,,,,,,,,,,,,,,,,,,,
0,45,45,48,1,,6155e204cc071b306458dfff,62c53cd1ec0c00c709b91f2e,2022-07-06_09h42.23.365,Colour_Asymmetry_Pilot,2022.1.3,Win32,60.0240096,62c50e9c1127f2cd403a315f,,,,,,,,,,,,,,,,,,,,,,,,,,,,,,,,,,,,,,,,,,,,,,,,,,,,,,,,,,,,,,,,,,,,,,,,,,,,,,,,,,,,,,,,,,,,,,,,,,,,,,,,,,,,,,,,,,,,,,,,,,,,,,,,,,,,,,,,,,,,,,,,,,,,,,,,,,,,,,,,,,,
0,46,46,52,1,,6155e204cc071b306458dfff,62c53cd1ec0c00c709b91f2e,2022-07-06_09h42.23.365,Colour_Asymmetry_Pilot,2022.1.3,Win32,60.0240096,62c50e9c1127f2cd403a315f,,,,,,,,,,,,,,,,,,,,,,,,,,,,,,,,,,,,,,,,,,,,,,,,,,,,,,,,,,,,,,,,,,,,,,,,,,,,,,,,,,,,,,,,,,,,,,,,,,,,,,,,,,,,,,,,,,,,,,,,,,,,,,,,,,,,,,,,,,,,,,,,,,,,,,,,,,,,,,,,,,,
0,47,47,29,1,,6155e204cc071b306458dfff,62c53cd1ec0c00c709b91f2e,2022-07-06_09h42.23.365,Colour_Asymmetry_Pilot,2022.1.3,Win32,60.0240096,62c50e9c1127f2cd403a315f,,,,,,,,,,,,,,,,,,,,,,,,,,,,,,,,,,,,,,,,,,,,,,,,,,,,,,,,,,,,,,,,,,,,,,,,,,,,,,,,,,,,,,,,,,,,,,,,,,,,,,,,,,,,,,,,,,,,,,,,,,,,,,,,,,,,,,,,,,,,,,,,,,,,,,,,,,,,,,,,,,,
0,48,48,33,1,,6155e204cc071b306458dfff,62c53cd1ec0c00c709b91f2e,2022-07-06_09h42.23.365,Colour_Asymmetry_Pilot,2022.1.3,Win32,60.0240096,62c50e9c1127f2cd403a315f,,,,,,,,,,,,,,,,,,,,,,,,,,,,,,,,,,,,,,,,,,,,,,,,,,,,,,,,,,,,,,,,,,,,,,,,,,,,,,,,,,,,,,,,,,,,,,,,,,,,,,,,,,,,,,,,,,,,,,,,,,,,,,,,,,,,,,,,,,,,,,,,,,,,,,,,,,,,,,,,,,,
0,49,49,27,1,,6155e204cc071b306458dfff,62c53cd1ec0c00c709b91f2e,2022-07-06_09h42.23.365,Colour_Asymmetry_Pilot,2022.1.3,Win32,60.0240096,62c50e9c1127f2cd403a315f,,,,,,,,,,,,,,,,,,,,,,,,,,,,,,,,,,,,,,,,,,,,,,,,,,,,,,,,,,,,,,,,,,,,,,,,,,,,,,,,,,,,,,,,,,,,,,,,,,,,,,,,,,,,,,,,,,,,,,,,,,,,,,,,,,,,,,,,,,,,,,,,,,,,,,,,,,,,,,,,,,,
0,50,50,23,1,,6155e204cc071b306458dfff,62c53cd1ec0c00c709b91f2e,2022-07-06_09h42.23.365,Colour_Asymmetry_Pilot,2022.1.3,Win32,60.0240096,62c50e9c1127f2cd403a315f,,,,,,,,,,,,,,,,,,,,,,,,,,,,,,,,,,,,,,,,,,,,,,,,,,,,,,,,,,,,,,,,,,,,,,,,,,,,,,,,,,,,,,,,,,,,,,,,,,,,,,,,,,,,,,,,,,,,,,,,,,,,,,,,,,,,,,,,,,,,,,,,,,,,,,,,,,,,,,,,,,,
0,51,51,18,1,,6155e204cc071b306458dfff,62c53cd1ec0c00c709b91f2e,2022-07-06_09h42.23.365,Colour_Asymmetry_Pilot,2022.1.3,Win32,60.0240096,62c50e9c1127f2cd403a315f,,,,,,,,,,,,,,,,,,,,,,,,,,,,,,,,,,,,,,,,,,,,,,,,,,,,,,,,,,,,,,,,,,,,,,,,,,,,,,,,,,,,,,,,,,,,,,,,,,,,,,,,,,,,,,,,,,,,,,,,,,,,,,,,,,,,,,,,,,,,,,,,,,,,,,,,,,,,,,,,,,,
0,52,52,50,1,,6155e204cc071b306458dfff,62c53cd1ec0c00c709b91f2e,2022-07-06_09h42.23.365,Colour_Asymmetry_Pilot,2022.1.3,Win32,60.0240096,62c50e9c1127f2cd403a315f,,,,,,,,,,,,,,,,,,,,,,,,,,,,,,,,,,,,,,,,,,,,,,,,,,,,,,,,,,,,,,,,,,,,,,,,,,,,,,,,,,,,,,,,,,,,,,,,,,,,,,,,,,,,,,,,,,,,,,,,,,,,,,,,,,,,,,,,,,,,,,,,,,,,,,,,,,,,,,,,,,,
0,53,53,73,1,,6155e204cc071b306458dfff,62c53cd1ec0c00c709b91f2e,2022-07-06_09h42.23.365,Colour_Asymmetry_Pilot,2022.1.3,Win32,60.0240096,62c50e9c1127f2cd403a315f,,,,,,,,,,,,,,,,,,,,,,,,,,,,,,,,,,,,,,,,,,,,,,,,,,,,,,,,,,,,,,,,,,,,,,,,,,,,,,,,,,,,,,,,,,,,,,,,,,,,,,,,,,,,,,,,,,,,,,,,,,,,,,,,,,,,,,,,,,,,,,,,,,,,,,,,,,,,,,,,,,,
0,54,54,13,1,,6155e204cc071b306458dfff,62c53cd1ec0c00c709b91f2e,2022-07-06_09h42.23.365,Colour_Asymmetry_Pilot,2022.1.3,Win32,60.0240096,62c50e9c1127f2cd403a315f,,,,,,,,,,,,,,,,,,,,,,,,,,,,,,,,,,,,,,,,,,,,,,,,,,,,,,,,,,,,,,,,,,,,,,,,,,,,,,,,,,,,,,,,,,,,,,,,,,,,,,,,,,,,,,,,,,,,,,,,,,,,,,,,,,,,,,,,,,,,,,,,,,,,,,,,,,,,,,,,,,,
0,55,55,20,1,,6155e204cc071b306458dfff,62c53cd1ec0c00c709b91f2e,2022-07-06_09h42.23.365,Colour_Asymmetry_Pilot,2022.1.3,Win32,60.0240096,62c50e9c1127f2cd403a315f,,,,,,,,,,,,,,,,,,,,,,,,,,,,,,,,,,,,,,,,,,,,,,,,,,,,,,,,,,,,,,,,,,,,,,,,,,,,,,,,,,,,,,,,,,,,,,,,,,,,,,,,,,,,,,,,,,,,,,,,,,,,,,,,,,,,,,,,,,,,,,,,,,,,,,,,,,,,,,,,,,,
0,56,56,28,1,,6155e204cc071b306458dfff,62c53cd1ec0c00c709b91f2e,2022-07-06_09h42.23.365,Colour_Asymmetry_Pilot,2022.1.3,Win32,60.0240096,62c50e9c1127f2cd403a315f,,,,,,,,,,,,,,,,,,,,,,,,,,,,,,,,,,,,,,,,,,,,,,,,,,,,,,,,,,,,,,,,,,,,,,,,,,,,,,,,,,,,,,,,,,,,,,,,,,,,,,,,,,,,,,,,,,,,,,,,,,,,,,,,,,,,,,,,,,,,,,,,,,,,,,,,,,,,,,,,,,,
0,57,57,32,1,,6155e204cc071b306458dfff,62c53cd1ec0c00c709b91f2e,2022-07-06_09h42.23.365,Colour_Asymmetry_Pilot,2022.1.3,Win32,60.0240096,62c50e9c1127f2cd403a315f,,,,,,,,,,,,,,,,,,,,,,,,,,,,,,,,,,,,,,,,,,,,,,,,,,,,,,,,,,,,,,,,,,,,,,,,,,,,,,,,,,,,,,,,,,,,,,,,,,,,,,,,,,,,,,,,,,,,,,,,,,,,,,,,,,,,,,,,,,,,,,,,,,,,,,,,,,,,,,,,,,,
0,58,58,89,1,,6155e204cc071b306458dfff,62c53cd1ec0c00c709b91f2e,2022-07-06_09h42.23.365,Colour_Asymmetry_Pilot,2022.1.3,Win32,60.0240096,62c50e9c1127f2cd403a315f,,,,,,,,,,,,,,,,,,,,,,,,,,,,,,,,,,,,,,,,,,,,,,,,,,,,,,,,,,,,,,,,,,,,,,,,,,,,,,,,,,,,,,,,,,,,,,,,,,,,,,,,,,,,,,,,,,,,,,,,,,,,,,,,,,,,,,,,,,,,,,,,,,,,,,,,,,,,,,,,,,,
0,59,59,34,1,,6155e204cc071b306458dfff,62c53cd1ec0c00c709b91f2e,2022-07-06_09h42.23.365,Colour_Asymmetry_Pilot,2022.1.3,Win32,60.0240096,62c50e9c1127f2cd403a315f,,,,,,,,,,,,,,,,,,,,,,,,,,,,,,,,,,,,,,,,,,,,,,,,,,,,,,,,,,,,,,,,,,,,,,,,,,,,,,,,,,,,,,,,,,,,,,,,,,,,,,,,,,,,,,,,,,,,,,,,,,,,,,,,,,,,,,,,,,,,,,,,,,,,,,,,,,,,,,,,,,,
0,60,60,55,1,,6155e204cc071b306458dfff,62c53cd1ec0c00c709b91f2e,2022-07-06_09h42.23.365,Colour_Asymmetry_Pilot,2022.1.3,Win32,60.0240096,62c50e9c1127f2cd403a315f,,,,,,,,,,,,,,,,,,,,,,,,,,,,,,,,,,,,,,,,,,,,,,,,,,,,,,,,,,,,,,,,,,,,,,,,,,,,,,,,,,,,,,,,,,,,,,,,,,,,,,,,,,,,,,,,,,,,,,,,,,,,,,,,,,,,,,,,,,,,,,,,,,,,,,,,,,,,,,,,,,,
0,61,61,59,1,,6155e204cc071b306458dfff,62c53cd1ec0c00c709b91f2e,2022-07-06_09h42.23.365,Colour_Asymmetry_Pilot,2022.1.3,Win32,60.0240096,62c50e9c1127f2cd403a315f,,,,,,,,,,,,,,,,,,,,,,,,,,,,,,,,,,,,,,,,,,,,,,,,,,,,,,,,,,,,,,,,,,,,,,,,,,,,,,,,,,,,,,,,,,,,,,,,,,,,,,,,,,,,,,,,,,,,,,,,,,,,,,,,,,,,,,,,,,,,,,,,,,,,,,,,,,,,,,,,,,,
0,62,62,6,1,,6155e204cc071b306458dfff,62c53cd1ec0c00c709b91f2e,2022-07-06_09h42.23.365,Colour_Asymmetry_Pilot,2022.1.3,Win32,60.0240096,62c50e9c1127f2cd403a315f,,,,,,,,,,,,,,,,,,,,,,,,,,,,,,,,,,,,,,,,,,,,,,,,,,,,,,,,,,,,,,,,,,,,,,,,,,,,,,,,,,,,,,,,,,,,,,,,,,,,,,,,,,,,,,,,,,,,,,,,,,,,,,,,,,,,,,,,,,,,,,,,,,,,,,,,,,,,,,,,,,,
0,63,63,85,1,,6155e204cc071b306458dfff,62c53cd1ec0c00c709b91f2e,2022-07-06_09h42.23.365,Colour_Asymmetry_Pilot,2022.1.3,Win32,60.0240096,62c50e9c1127f2cd403a315f,,,,,,,,,,,,,,,,,,,,,,,,,,,,,,,,,,,,,,,,,,,,,,,,,,,,,,,,,,,,,,,,,,,,,,,,,,,,,,,,,,,,,,,,,,,,,,,,,,,,,,,,,,,,,,,,,,,,,,,,,,,,,,,,,,,,,,,,,,,,,,,,,,,,,,,,,,,,,,,,,,,
0,64,64,78,1,,6155e204cc071b306458dfff,62c53cd1ec0c00c709b91f2e,2022-07-06_09h42.23.365,Colour_Asymmetry_Pilot,2022.1.3,Win32,60.0240096,62c50e9c1127f2cd403a315f,,,,,,,,,,,,,,,,,,,,,,,,,,,,,,,,,,,,,,,,,,,,,,,,,,,,,,,,,,,,,,,,,,,,,,,,,,,,,,,,,,,,,,,,,,,,,,,,,,,,,,,,,,,,,,,,,,,,,,,,,,,,,,,,,,,,,,,,,,,,,,,,,,,,,,,,,,,,,,,,,,,
0,65,65,41,1,,6155e204cc071b306458dfff,62c53cd1ec0c00c709b91f2e,2022-07-06_09h42.23.365,Colour_Asymmetry_Pilot,2022.1.3,Win32,60.0240096,62c50e9c1127f2cd403a315f,,,,,,,,,,,,,,,,,,,,,,,,,,,,,,,,,,,,,,,,,,,,,,,,,,,,,,,,,,,,,,,,,,,,,,,,,,,,,,,,,,,,,,,,,,,,,,,,,,,,,,,,,,,,,,,,,,,,,,,,,,,,,,,,,,,,,,,,,,,,,,,,,,,,,,,,,,,,,,,,,,,
0,66,66,38,1,,6155e204cc071b306458dfff,62c53cd1ec0c00c709b91f2e,2022-07-06_09h42.23.365,Colour_Asymmetry_Pilot,2022.1.3,Win32,60.0240096,62c50e9c1127f2cd403a315f,,,,,,,,,,,,,,,,,,,,,,,,,,,,,,,,,,,,,,,,,,,,,,,,,,,,,,,,,,,,,,,,,,,,,,,,,,,,,,,,,,,,,,,,,,,,,,,,,,,,,,,,,,,,,,,,,,,,,,,,,,,,,,,,,,,,,,,,,,,,,,,,,,,,,,,,,,,,,,,,,,,
0,67,67,8,1,,6155e204cc071b306458dfff,62c53cd1ec0c00c709b91f2e,2022-07-06_09h42.23.365,Colour_Asymmetry_Pilot,2022.1.3,Win32,60.0240096,62c50e9c1127f2cd403a315f,,,,,,,,,,,,,,,,,,,,,,,,,,,,,,,,,,,,,,,,,,,,,,,,,,,,,,,,,,,,,,,,,,,,,,,,,,,,,,,,,,,,,,,,,,,,,,,,,,,,,,,,,,,,,,,,,,,,,,,,,,,,,,,,,,,,,,,,,,,,,,,,,,,,,,,,,,,,,,,,,,,
0,68,68,44,1,,6155e204cc071b306458dfff,62c53cd1ec0c00c709b91f2e,2022-07-06_09h42.23.365,Colour_Asymmetry_Pilot,2022.1.3,Win32,60.0240096,62c50e9c1127f2cd403a315f,,,,,,,,,,,,,,,,,,,,,,,,,,,,,,,,,,,,,,,,,,,,,,,,,,,,,,,,,,,,,,,,,,,,,,,,,,,,,,,,,,,,,,,,,,,,,,,,,,,,,,,,,,,,,,,,,,,,,,,,,,,,,,,,,,,,,,,,,,,,,,,,,,,,,,,,,,,,,,,,,,,
0,69,69,63,1,,6155e204cc071b306458dfff,62c53cd1ec0c00c709b91f2e,2022-07-06_09h42.23.365,Colour_Asymmetry_Pilot,2022.1.3,Win32,60.0240096,62c50e9c1127f2cd403a315f,,,,,,,,,,,,,,,,,,,,,,,,,,,,,,,,,,,,,,,,,,,,,,,,,,,,,,,,,,,,,,,,,,,,,,,,,,,,,,,,,,,,,,,,,,,,,,,,,,,,,,,,,,,,,,,,,,,,,,,,,,,,,,,,,,,,,,,,,,,,,,,,,,,,,,,,,,,,,,,,,,,
0,70,70,12,1,,6155e204cc071b306458dfff,62c53cd1ec0c00c709b91f2e,2022-07-06_09h42.23.365,Colour_Asymmetry_Pilot,2022.1.3,Win32,60.0240096,62c50e9c1127f2cd403a315f,,,,,,,,,,,,,,,,,,,,,,,,,,,,,,,,,,,,,,,,,,,,,,,,,,,,,,,,,,,,,,,,,,,,,,,,,,,,,,,,,,,,,,,,,,,,,,,,,,,,,,,,,,,,,,,,,,,,,,,,,,,,,,,,,,,,,,,,,,,,,,,,,,,,,,,,,,,,,,,,,,,
0,71,71,75,1,,6155e204cc071b306458dfff,62c53cd1ec0c00c709b91f2e,2022-07-06_09h42.23.365,Colour_Asymmetry_Pilot,2022.1.3,Win32,60.0240096,62c50e9c1127f2cd403a315f,,,,,,,,,,,,,,,,,,,,,,,,,,,,,,,,,,,,,,,,,,,,,,,,,,,,,,,,,,,,,,,,,,,,,,,,,,,,,,,,,,,,,,,,,,,,,,,,,,,,,,,,,,,,,,,,,,,,,,,,,,,,,,,,,,,,,,,,,,,,,,,,,,,,,,,,,,,,,,,,,,,
0,72,72,15,1,,6155e204cc071b306458dfff,62c53cd1ec0c00c709b91f2e,2022-07-06_09h42.23.365,Colour_Asymmetry_Pilot,2022.1.3,Win32,60.0240096,62c50e9c1127f2cd403a315f,,,,,,,,,,,,,,,,,,,,,,,,,,,,,,,,,,,,,,,,,,,,,,,,,,,,,,,,,,,,,,,,,,,,,,,,,,,,,,,,,,,,,,,,,,,,,,,,,,,,,,,,,,,,,,,,,,,,,,,,,,,,,,,,,,,,,,,,,,,,,,,,,,,,,,,,,,,,,,,,,,,
0,73,73,24,1,,6155e204cc071b306458dfff,62c53cd1ec0c00c709b91f2e,2022-07-06_09h42.23.365,Colour_Asymmetry_Pilot,2022.1.3,Win32,60.0240096,62c50e9c1127f2cd403a315f,,,,,,,,,,,,,,,,,,,,,,,,,,,,,,,,,,,,,,,,,,,,,,,,,,,,,,,,,,,,,,,,,,,,,,,,,,,,,,,,,,,,,,,,,,,,,,,,,,,,,,,,,,,,,,,,,,,,,,,,,,,,,,,,,,,,,,,,,,,,,,,,,,,,,,,,,,,,,,,,,,,
0,74,74,77,1,,6155e204cc071b306458dfff,62c53cd1ec0c00c709b91f2e,2022-07-06_09h42.23.365,Colour_Asymmetry_Pilot,2022.1.3,Win32,60.0240096,62c50e9c1127f2cd403a315f,,,,,,,,,,,,,,,,,,,,,,,,,,,,,,,,,,,,,,,,,,,,,,,,,,,,,,,,,,,,,,,,,,,,,,,,,,,,,,,,,,,,,,,,,,,,,,,,,,,,,,,,,,,,,,,,,,,,,,,,,,,,,,,,,,,,,,,,,,,,,,,,,,,,,,,,,,,,,,,,,,,
0,75,75,17,1,,6155e204cc071b306458dfff,62c53cd1ec0c00c709b91f2e,2022-07-06_09h42.23.365,Colour_Asymmetry_Pilot,2022.1.3,Win32,60.0240096,62c50e9c1127f2cd403a315f,,,,,,,,,,,,,,,,,,,,,,,,,,,,,,,,,,,,,,,,,,,,,,,,,,,,,,,,,,,,,,,,,,,,,,,,,,,,,,,,,,,,,,,,,,,,,,,,,,,,,,,,,,,,,,,,,,,,,,,,,,,,,,,,,,,,,,,,,,,,,,,,,,,,,,,,,,,,,,,,,,,
0,76,76,49,1,,6155e204cc071b306458dfff,62c53cd1ec0c00c709b91f2e,2022-07-06_09h42.23.365,Colour_Asymmetry_Pilot,2022.1.3,Win32,60.0240096,62c50e9c1127f2cd403a315f,,,,,,,,,,,,,,,,,,,,,,,,,,,,,,,,,,,,,,,,,,,,,,,,,,,,,,,,,,,,,,,,,,,,,,,,,,,,,,,,,,,,,,,,,,,,,,,,,,,,,,,,,,,,,,,,,,,,,,,,,,,,,,,,,,,,,,,,,,,,,,,,,,,,,,,,,,,,,,,,,,,
0,77,77,46,1,,6155e204cc071b306458dfff,62c53cd1ec0c00c709b91f2e,2022-07-06_09h42.23.365,Colour_Asymmetry_Pilot,2022.1.3,Win32,60.0240096,62c50e9c1127f2cd403a315f,,,,,,,,,,,,,,,,,,,,,,,,,,,,,,,,,,,,,,,,,,,,,,,,,,,,,,,,,,,,,,,,,,,,,,,,,,,,,,,,,,,,,,,,,,,,,,,,,,,,,,,,,,,,,,,,,,,,,,,,,,,,,,,,,,,,,,,,,,,,,,,,,,,,,,,,,,,,,,,,,,,
0,78,78,54,1,,6155e204cc071b306458dfff,62c53cd1ec0c00c709b91f2e,2022-07-06_09h42.23.365,Colour_Asymmetry_Pilot,2022.1.3,Win32,60.0240096,62c50e9c1127f2cd403a315f,,,,,,,,,,,,,,,,,,,,,,,,,,,,,,,,,,,,,,,,,,,,,,,,,,,,,,,,,,,,,,,,,,,,,,,,,,,,,,,,,,,,,,,,,,,,,,,,,,,,,,,,,,,,,,,,,,,,,,,,,,,,,,,,,,,,,,,,,,,,,,,,,,,,,,,,,,,,,,,,,,,
0,79,79,47,1,,6155e204cc071b306458dfff,62c53cd1ec0c00c709b91f2e,2022-07-06_09h42.23.365,Colour_Asymmetry_Pilot,2022.1.3,Win32,60.0240096,62c50e9c1127f2cd403a315f,,,,,,,,,,,,,,,,,,,,,,,,,,,,,,,,,,,,,,,,,,,,,,,,,,,,,,,,,,,,,,,,,,,,,,,,,,,,,,,,,,,,,,,,,,,,,,,,,,,,,,,,,,,,,,,,,,,,,,,,,,,,,,,,,,,,,,,,,,,,,,,,,,,,,,,,,,,,,,,,,,,
0,80,80,7,1,,6155e204cc071b306458dfff,62c53cd1ec0c00c709b91f2e,2022-07-06_09h42.23.365,Colour_Asymmetry_Pilot,2022.1.3,Win32,60.0240096,62c50e9c1127f2cd403a315f,,,,,,,,,,,,,,,,,,,,,,,,,,,,,,,,,,,,,,,,,,,,,,,,,,,,,,,,,,,,,,,,,,,,,,,,,,,,,,,,,,,,,,,,,,,,,,,,,,,,,,,,,,,,,,,,,,,,,,,,,,,,,,,,,,,,,,,,,,,,,,,,,,,,,,,,,,,,,,,,,,,
0,81,81,45,1,,6155e204cc071b306458dfff,62c53cd1ec0c00c709b91f2e,2022-07-06_09h42.23.365,Colour_Asymmetry_Pilot,2022.1.3,Win32,60.0240096,62c50e9c1127f2cd403a315f,,,,,,,,,,,,,,,,,,,,,,,,,,,,,,,,,,,,,,,,,,,,,,,,,,,,,,,,,,,,,,,,,,,,,,,,,,,,,,,,,,,,,,,,,,,,,,,,,,,,,,,,,,,,,,,,,,,,,,,,,,,,,,,,,,,,,,,,,,,,,,,,,,,,,,,,,,,,,,,,,,,
0,82,82,72,1,,6155e204cc071b306458dfff,62c53cd1ec0c00c709b91f2e,2022-07-06_09h42.23.365,Colour_Asymmetry_Pilot,2022.1.3,Win32,60.0240096,62c50e9c1127f2cd403a315f,,,,,,,,,,,,,,,,,,,,,,,,,,,,,,,,,,,,,,,,,,,,,,,,,,,,,,,,,,,,,,,,,,,,,,,,,,,,,,,,,,,,,,,,,,,,,,,,,,,,,,,,,,,,,,,,,,,,,,,,,,,,,,,,,,,,,,,,,,,,,,,,,,,,,,,,,,,,,,,,,,,
0,83,83,90,1,,6155e204cc071b306458dfff,62c53cd1ec0c00c709b91f2e,2022-07-06_09h42.23.365,Colour_Asymmetry_Pilot,2022.1.3,Win32,60.0240096,62c50e9c1127f2cd403a315f,,,,,,,,,,,,,,,,,,,,,,,,,,,,,,,,,,,,,,,,,,,,,,,,,,,,,,,,,,,,,,,,,,,,,,,,,,,,,,,,,,,,,,,,,,,,,,,,,,,,,,,,,,,,,,,,,,,,,,,,,,,,,,,,,,,,,,,,,,,,,,,,,,,,,,,,,,,,,,,,,,,
0,84,84,68,1,,6155e204cc071b306458dfff,62c53cd1ec0c00c709b91f2e,2022-07-06_09h42.23.365,Colour_Asymmetry_Pilot,2022.1.3,Win32,60.0240096,62c50e9c1127f2cd403a315f,,,,,,,,,,,,,,,,,,,,,,,,,,,,,,,,,,,,,,,,,,,,,,,,,,,,,,,,,,,,,,,,,,,,,,,,,,,,,,,,,,,,,,,,,,,,,,,,,,,,,,,,,,,,,,,,,,,,,,,,,,,,,,,,,,,,,,,,,,,,,,,,,,,,,,,,,,,,,,,,,,,
0,85,85,74,1,,6155e204cc071b306458dfff,62c53cd1ec0c00c709b91f2e,2022-07-06_09h42.23.365,Colour_Asymmetry_Pilot,2022.1.3,Win32,60.0240096,62c50e9c1127f2cd403a315f,,,,,,,,,,,,,,,,,,,,,,,,,,,,,,,,,,,,,,,,,,,,,,,,,,,,,,,,,,,,,,,,,,,,,,,,,,,,,,,,,,,,,,,,,,,,,,,,,,,,,,,,,,,,,,,,,,,,,,,,,,,,,,,,,,,,,,,,,,,,,,,,,,,,,,,,,,,,,,,,,,,
0,86,86,80,1,,6155e204cc071b306458dfff,62c53cd1ec0c00c709b91f2e,2022-07-06_09h42.23.365,Colour_Asymmetry_Pilot,2022.1.3,Win32,60.0240096,62c50e9c1127f2cd403a315f,,,,,,,,,,,,,,,,,,,,,,,,,,,,,,,,,,,,,,,,,,,,,,,,,,,,,,,,,,,,,,,,,,,,,,,,,,,,,,,,,,,,,,,,,,,,,,,,,,,,,,,,,,,,,,,,,,,,,,,,,,,,,,,,,,,,,,,,,,,,,,,,,,,,,,,,,,,,,,,,,,,
0,87,87,84,1,,6155e204cc071b306458dfff,62c53cd1ec0c00c709b91f2e,2022-07-06_09h42.23.365,Colour_Asymmetry_Pilot,2022.1.3,Win32,60.0240096,62c50e9c1127f2cd403a315f,,,,,,,,,,,,,,,,,,,,,,,,,,,,,,,,,,,,,,,,,,,,,,,,,,,,,,,,,,,,,,,,,,,,,,,,,,,,,,,,,,,,,,,,,,,,,,,,,,,,,,,,,,,,,,,,,,,,,,,,,,,,,,,,,,,,,,,,,,,,,,,,,,,,,,,,,,,,,,,,,,,
0,88,88,83,1,,6155e204cc071b306458dfff,62c53cd1ec0c00c709b91f2e,2022-07-06_09h42.23.365,Colour_Asymmetry_Pilot,2022.1.3,Win32,60.0240096,62c50e9c1127f2cd403a315f,,,,,,,,,,,,,,,,,,,,,,,,,,,,,,,,,,,,,,,,,,,,,,,,,,,,,,,,,,,,,,,,,,,,,,,,,,,,,,,,,,,,,,,,,,,,,,,,,,,,,,,,,,,,,,,,,,,,,,,,,,,,,,,,,,,,,,,,,,,,,,,,,,,,,,,,,,,,,,,,,,,
0,89,89,65,1,,6155e204cc071b306458dfff,62c53cd1ec0c00c709b91f2e,2022-07-06_09h42.23.365,Colour_Asymmetry_Pilot,2022.1.3,Win32,60.0240096,62c50e9c1127f2cd403a315f,,,,,,,,,,,,,,,,,,,,,,,,,,,,,,,,,,,,,,,,,,,,,,,,,,,,,,,,,,,,,,,,,,,,,,,,,,,,,,,,,,,,,,,,,,,,,,,,,,,,,,,,,,,,,,,,,,,,,,,,,,,,,,,,,,,,,,,,,,,,,,,,,,,,,,,,,,,,,,,,,,,
0,90,90,16,1,,6155e204cc071b306458dfff,62c53cd1ec0c00c709b91f2e,2022-07-06_09h42.23.365,Colour_Asymmetry_Pilot,2022.1.3,Win32,60.0240096,62c50e9c1127f2cd403a315f,,,,,,,,,,,,,,,,,,,,,,,,,,,,,,,,,,,,,,,,,,,,,,,,,,,,,,,,,,,,,,,,,,,,,,,,,,,,,,,,,,,,,,,,,,,,,,,,,,,,,,,,,,,,,,,,,,,,,,,,,,,,,,,,,,,,,,,,,,,,,,,,,,,,,,,,,,,,,,,,,,,
0,91,91,66,1,,6155e204cc071b306458dfff,62c53cd1ec0c00c709b91f2e,2022-07-06_09h42.23.365,Colour_Asymmetry_Pilot,2022.1.3,Win32,60.0240096,62c50e9c1127f2cd403a315f,,,,,,,,,,,,,,,,,,,,,,,,,,,,,,,,,,,,,,,,,,,,,,,,,,,,,,,,,,,,,,,,,,,,,,,,,,,,,,,,,,,,,,,,,,,,,,,,,,,,,,,,,,,,,,,,,,,,,,,,,,,,,,,,,,,,,,,,,,,,,,,,,,,,,,,,,,,,,,,,,,,
0,92,92,86,1,,6155e204cc071b306458dfff,62c53cd1ec0c00c709b91f2e,2022-07-06_09h42.23.365,Colour_Asymmetry_Pilot,2022.1.3,Win32,60.0240096,62c50e9c1127f2cd403a315f,,,,,,,,,,,,,,,,,,,,,,,,,,,,,,,,,,,,,,,,,,,,,,,,,,,,,,,,,,,,,,,,,,,,,,,,,,,,,,,,,,,,,,,,,,,,,,,,,,,,,,,,,,,,,,,,,,,,,,,,,,,,,,,,,,,,,,,,,,,,,,,,,,,,,,,,,,,,,,,,,,,
,,,,,,6155e204cc071b306458dfff,62c53cd1ec0c00c709b91f2e,2022-07-06_09h42.23.365,Colour_Asymmetry_Pilot,2022.1.3,Win32,60.0240096,62c50e9c1127f2cd403a315f,0,0,0,6,1,fourtwo,,,,,,,,,,,,,,,,,,,,,,,,,,,,,,,,,,,,,,,,,,,,,,,,,,,,,,,,,,,,,,,,,,,,,,,,,,,,,,,,,,,,,,,,,,,,,,,,,,,,,,,,,,,,,,,,,,,,,,,,,,,,,,,,,,,,,,,,,,,,,,,,,,,,,,,,,,,,,
,,,,,,6155e204cc071b306458dfff,62c53cd1ec0c00c709b91f2e,2022-07-06_09h42.23.365,Colour_Asymmetry_Pilot,2022.1.3,Win32,60.0240096,62c50e9c1127f2cd403a315f,0,1,1,70,1,fourtwo,,,,,,,,,,,,,,,,,,,,,,,,,,,,,,,,,,,,,,,,,,,,,,,,,,,,,,,,,,,,,,,,,,,,,,,,,,,,,,,,,,,,,,,,,,,,,,,,,,,,,,,,,,,,,,,,,,,,,,,,,,,,,,,,,,,,,,,,,,,,,,,,,,,,,,,,,,,,,
,,,,,,6155e204cc071b306458dfff,62c53cd1ec0c00c709b91f2e,2022-07-06_09h42.23.365,Colour_Asymmetry_Pilot,2022.1.3,Win32,60.0240096,62c50e9c1127f2cd403a315f,0,2,2,98,1,twoone,,,,,,,,,,,,,,,,,,,,,,,,,,,,,,,,,,,,,,,,,,,,,,,,,,,,,,,,,,,,,,,,,,,,,,,,,,,,,,,,,,,,,,,,,,,,,,,,,,,,,,,,,,,,,,,,,,,,,,,,,,,,,,,,,,,,,,,,,,,,,,,,,,,,,,,,,,,,,
,,,,,,6155e204cc071b306458dfff,62c53cd1ec0c00c709b91f2e,2022-07-06_09h42.23.365,Colour_Asymmetry_Pilot,2022.1.3,Win32,60.0240096,62c50e9c1127f2cd403a315f,0,3,3,136,1,onetwo,,,,,,,,,,,,,,,,,,,,,,,,,,,,,,,,,,,,,,,,,,,,,,,,,,,,,,,,,,,,,,,,,,,,,,,,,,,,,,,,,,,,,,,,,,,,,,,,,,,,,,,,,,,,,,,,,,,,,,,,,,,,,,,,,,,,,,,,,,,,,,,,,,,,,,,,,,,,,
,,,,,,6155e204cc071b306458dfff,62c53cd1ec0c00c709b91f2e,2022-07-06_09h42.23.365,Colour_Asymmetry_Pilot,2022.1.3,Win32,60.0240096,62c50e9c1127f2cd403a315f,0,4,4,46,1,fourtwo,,,,,,,,,,,,,,,,,,,,,,,,,,,,,,,,,,,,,,,,,,,,,,,,,,,,,,,,,,,,,,,,,,,,,,,,,,,,,,,,,,,,,,,,,,,,,,,,,,,,,,,,,,,,,,,,,,,,,,,,,,,,,,,,,,,,,,,,,,,,,,,,,,,,,,,,,,,,,
,,,,,,6155e204cc071b306458dfff,62c53cd1ec0c00c709b91f2e,2022-07-06_09h42.23.365,Colour_Asymmetry_Pilot,2022.1.3,Win32,60.0240096,62c50e9c1127f2cd403a315f,0,5,5,95,1,fourthree,,,,,,,,,,,,,,,,,,,,,,,,,,,,,,,,,,,,,,,,,,,,,,,,,,,,,,,,,,,,,,,,,,,,,,,,,,,,,,,,,,,,,,,,,,,,,,,,,,,,,,,,,,,,,,,,,,,,,,,,,,,,,,,,,,,,,,,,,,,,,,,,,,,,,,,,,,,,,
,,,,,,6155e204cc071b306458dfff,62c53cd1ec0c00c709b91f2e,2022-07-06_09h42.23.365,Colour_Asymmetry_Pilot,2022.1.3,Win32,60.0240096,62c50e9c1127f2cd403a315f,0,6,6,49,1,onethree,,,,,,,,,,,,,,,,,,,,,,,,,,,,,,,,,,,,,,,,,,,,,,,,,,,,,,,,,,,,,,,,,,,,,,,,,,,,,,,,,,,,,,,,,,,,,,,,,,,,,,,,,,,,,,,,,,,,,,,,,,,,,,,,,,,,,,,,,,,,,,,,,,,,,,,,,,,,,
,,,,,,6155e204cc071b306458dfff,62c53cd1ec0c00c709b91f2e,2022-07-06_09h42.23.365,Colour_Asymmetry_Pilot,2022.1.3,Win32,60.0240096,62c50e9c1127f2cd403a315f,0,7,7,153,1,onethree,,,,,,,,,,,,,,,,,,,,,,,,,,,,,,,,,,,,,,,,,,,,,,,,,,,,,,,,,,,,,,,,,,,,,,,,,,,,,,,,,,,,,,,,,,,,,,,,,,,,,,,,,,,,,,,,,,,,,,,,,,,,,,,,,,,,,,,,,,,,,,,,,,,,,,,,,,,,,
,,,,,,6155e204cc071b306458dfff,62c53cd1ec0c00c709b91f2e,2022-07-06_09h42.23.365,Colour_Asymmetry_Pilot,2022.1.3,Win32,60.0240096,62c50e9c1127f2cd403a315f,0,8,8,33,1,onethree,,,,,,,,,,,,,,,,,,,,,,,,,,,,,,,,,,,,,,,,,,,,,,,,,,,,,,,,,,,,,,,,,,,,,,,,,,,,,,,,,,,,,,,,,,,,,,,,,,,,,,,,,,,,,,,,,,,,,,,,,,,,,,,,,,,,,,,,,,,,,,,,,,,,,,,,,,,,,
,,,,,,6155e204cc071b306458dfff,62c53cd1ec0c00c709b91f2e,2022-07-06_09h42.23.365,Colour_Asymmetry_Pilot,2022.1.3,Win32,60.0240096,62c50e9c1127f2cd403a315f,0,9,9,143,1,fourthree,,,,,,,,,,,,,,,,,,,,,,,,,,,,,,,,,,,,,,,,,,,,,,,,,,,,,,,,,,,,,,,,,,,,,,,,,,,,,,,,,,,,,,,,,,,,,,,,,,,,,,,,,,,,,,,,,,,,,,,,,,,,,,,,,,,,,,,,,,,,,,,,,,,,,,,,,,,,,
,,,,,,6155e204cc071b306458dfff,62c53cd1ec0c00c709b91f2e,2022-07-06_09h42.23.365,Colour_Asymmetry_Pilot,2022.1.3,Win32,60.0240096,62c50e9c1127f2cd403a315f,0,10,10,106,1,twoone,,,,,,,,,,,,,,,,,,,,,,,,,,,,,,,,,,,,,,,,,,,,,,,,,,,,,,,,,,,,,,,,,,,,,,,,,,,,,,,,,,,,,,,,,,,,,,,,,,,,,,,,,,,,,,,,,,,,,,,,,,,,,,,,,,,,,,,,,,,,,,,,,,,,,,,,,,,,,
,,,,,,6155e204cc071b306458dfff,62c53cd1ec0c00c709b91f2e,2022-07-06_09h42.23.365,Colour_Asymmetry_Pilot,2022.1.3,Win32,60.0240096,62c50e9c1127f2cd403a315f,0,11,11,18,1,twoone,,,,,,,,,,,,,,,,,,,,,,,,,,,,,,,,,,,,,,,,,,,,,,,,,,,,,,,,,,,,,,,,,,,,,,,,,,,,,,,,,,,,,,,,,,,,,,,,,,,,,,,,,,,,,,,,,,,,,,,,,,,,,,,,,,,,,,,,,,,,,,,,,,,,,,,,,,,,,
,,,,,,6155e204cc071b306458dfff,62c53cd1ec0c00c709b91f2e,2022-07-06_09h42.23.365,Colour_Asymmetry_Pilot,2022.1.3,Win32,60.0240096,62c50e9c1127f2cd403a315f,0,12,12,91,1,twofour,,,,,,,,,,,,,,,,,,,,,,,,,,,,,,,,,,,,,,,,,,,,,,,,,,,,,,,,,,,,,,,,,,,,,,,,,,,,,,,,,,,,,,,,,,,,,,,,,,,,,,,,,,,,,,,,,,,,,,,,,,,,,,,,,,,,,,,,,,,,,,,,,,,,,,,,,,,,,
,,,,,,6155e204cc071b306458dfff,62c53cd1ec0c00c709b91f2e,2022-07-06_09h42.23.365,Colour_Asymmetry_Pilot,2022.1.3,Win32,60.0240096,62c50e9c1127f2cd403a315f,0,13,13,103,1,fourthree,,,,,,,,,,,,,,,,,,,,,,,,,,,,,,,,,,,,,,,,,,,,,,,,,,,,,,,,,,,,,,,,,,,,,,,,,,,,,,,,,,,,,,,,,,,,,,,,,,,,,,,,,,,,,,,,,,,,,,,,,,,,,,,,,,,,,,,,,,,,,,,,,,,,,,,,,,,,,
,,,,,,6155e204cc071b306458dfff,62c53cd1ec0c00c709b91f2e,2022-07-06_09h42.23.365,Colour_Asymmetry_Pilot,2022.1.3,Win32,60.0240096,62c50e9c1127f2cd403a315f,0,14,14,75,1,twofour,,,,,,,,,,,,,,,,,,,,,,,,,,,,,,,,,,,,,,,,,,,,,,,,,,,,,,,,,,,,,,,,,,,,,,,,,,,,,,,,,,,,,,,,,,,,,,,,,,,,,,,,,,,,,,,,,,,,,,,,,,,,,,,,,,,,,,,,,,,,,,,,,,,,,,,,,,,,,
,,,,,,6155e204cc071b306458dfff,62c53cd1ec0c00c709b91f2e,2022-07-06_09h42.23.365,Colour_Asymmetry_Pilot,2022.1.3,Win32,60.0240096,62c50e9c1127f2cd403a315f,0,15,15,21,1,threefour,,,,,,,,,,,,,,,,,,,,,,,,,,,,,,,,,,,,,,,,,,,,,,,,,,,,,,,,,,,,,,,,,,,,,,,,,,,,,,,,,,,,,,,,,,,,,,,,,,,,,,,,,,,,,,,,,,,,,,,,,,,,,,,,,,,,,,,,,,,,,,,,,,,,,,,,,,,,,
,,,,,,6155e204cc071b306458dfff,62c53cd1ec0c00c709b91f2e,2022-07-06_09h42.23.365,Colour_Asymmetry_Pilot,2022.1.3,Win32,60.0240096,62c50e9c1127f2cd403a315f,0,16,16,40,1,onetwo,,,,,,,,,,,,,,,,,,,,,,,,,,,,,,,,,,,,,,,,,,,,,,,,,,,,,,,,,,,,,,,,,,,,,,,,,,,,,,,,,,,,,,,,,,,,,,,,,,,,,,,,,,,,,,,,,,,,,,,,,,,,,,,,,,,,,,,,,,,,,,,,,,,,,,,,,,,,,
,,,,,,6155e204cc071b306458dfff,62c53cd1ec0c00c709b91f2e,2022-07-06_09h42.23.365,Colour_Asymmetry_Pilot,2022.1.3,Win32,60.0240096,62c50e9c1127f2cd403a315f,0,17,17,116,1,threeone,,,,,,,,,,,,,,,,,,,,,,,,,,,,,,,,,,,,,,,,,,,,,,,,,,,,,,,,,,,,,,,,,,,,,,,,,,,,,,,,,,,,,,,,,,,,,,,,,,,,,,,,,,,,,,,,,,,,,,,,,,,,,,,,,,,,,,,,,,,,,,,,,,,,,,,,,,,,,
,,,,,,6155e204cc071b306458dfff,62c53cd1ec0c00c709b91f2e,2022-07-06_09h42.23.365,Colour_Asymmetry_Pilot,2022.1.3,Win32,60.0240096,62c50e9c1127f2cd403a315f,0,18,18,102,1,fourtwo,,,,,,,,,,,,,,,,,,,,,,,,,,,,,,,,,,,,,,,,,,,,,,,,,,,,,,,,,,,,,,,,,,,,,,,,,,,,,,,,,,,,,,,,,,,,,,,,,,,,,,,,,,,,,,,,,,,,,,,,,,,,,,,,,,,,,,,,,,,,,,,,,,,,,,,,,,,,,
,,,,,,6155e204cc071b306458dfff,62c53cd1ec0c00c709b91f2e,2022-07-06_09h42.23.365,Colour_Asymmetry_Pilot,2022.1.3,Win32,60.0240096,62c50e9c1127f2cd403a315f,0,19,19,157,1,threefour,,,,,,,,,,,,,,,,,,,,,,,,,,,,,,,,,,,,,,,,,,,,,,,,,,,,,,,,,,,,,,,,,,,,,,,,,,,,,,,,,,,,,,,,,,,,,,,,,,,,,,,,,,,,,,,,,,,,,,,,,,,,,,,,,,,,,,,,,,,,,,,,,,,,,,,,,,,,,
,,,,,,6155e204cc071b306458dfff,62c53cd1ec0c00c709b91f2e,2022-07-06_09h42.23.365,Colour_Asymmetry_Pilot,2022.1.3,Win32,60.0240096,62c50e9c1127f2cd403a315f,0,20,20,131,1,twofour,,,,,,,,,,,,,,,,,,,,,,,,,,,,,,,,,,,,,,,,,,,,,,,,,,,,,,,,,,,,,,,,,,,,,,,,,,,,,,,,,,,,,,,,,,,,,,,,,,,,,,,,,,,,,,,,,,,,,,,,,,,,,,,,,,,,,,,,,,,,,,,,,,,,,,,,,,,,,
,,,,,,6155e204cc071b306458dfff,62c53cd1ec0c00c709b91f2e,2022-07-06_09h42.23.365,Colour_Asymmetry_Pilot,2022.1.3,Win32,60.0240096,62c50e9c1127f2cd403a315f,0,21,21,151,1,fourthree,,,,,,,,,,,,,,,,,,,,,,,,,,,,,,,,,,,,,,,,,,,,,,,,,,,,,,,,,,,,,,,,,,,,,,,,,,,,,,,,,,,,,,,,,,,,,,,,,,,,,,,,,,,,,,,,,,,,,,,,,,,,,,,,,,,,,,,,,,,,,,,,,,,,,,,,,,,,,
,,,,,,6155e204cc071b306458dfff,62c53cd1ec0c00c709b91f2e,2022-07-06_09h42.23.365,Colour_Asymmetry_Pilot,2022.1.3,Win32,60.0240096,62c50e9c1127f2cd403a315f,0,22,22,0,1,onetwo,,,,,,,,,,,,,,,,,,,,,,,,,,,,,,,,,,,,,,,,,,,,,,,,,,,,,,,,,,,,,,,,,,,,,,,,,,,,,,,,,,,,,,,,,,,,,,,,,,,,,,,,,,,,,,,,,,,,,,,,,,,,,,,,,,,,,,,,,,,,,,,,,,,,,,,,,,,,,
,,,,,,6155e204cc071b306458dfff,62c53cd1ec0c00c709b91f2e,2022-07-06_09h42.23.365,Colour_Asymmetry_Pilot,2022.1.3,Win32,60.0240096,62c50e9c1127f2cd403a315f,0,23,23,11,1,twofour,,,,,,,,,,,,,,,,,,,,,,,,,,,,,,,,,,,,,,,,,,,,,,,,,,,,,,,,,,,,,,,,,,,,,,,,,,,,,,,,,,,,,,,,,,,,,,,,,,,,,,,,,,,,,,,,,,,,,,,,,,,,,,,,,,,,,,,,,,,,,,,,,,,,,,,,,,,,,
,,,,,,6155e204cc071b306458dfff,62c53cd1ec0c00c709b91f2e,2022-07-06_09h42.23.365,Colour_Asymmetry_Pilot,2022.1.3,Win32,60.0240096,62c50e9c1127f2cd403a315f,0,24,24,60,1,threeone,,,,,,,,,,,,,,,,,,,,,,,,,,,,,,,,,,,,,,,,,,,,,,,,,,,,,,,,,,,,,,,,,,,,,,,,,,,,,,,,,,,,,,,,,,,,,,,,,,,,,,,,,,,,,,,,,,,,,,,,,,,,,,,,,,,,,,,,,,,,,,,,,,,,,,,,,,,,,
,,,,,,6155e204cc071b306458dfff,62c53cd1ec0c00c709b91f2e,2022-07-06_09h42.23.365,Colour_Asymmetry_Pilot,2022.1.3,Win32,60.0240096,62c50e9c1127f2cd403a315f,0,25,25,50,1,twoone,,,,,,,,,,,,,,,,,,,,,,,,,,,,,,,,,,,,,,,,,,,,,,,,,,,,,,,,,,,,,,,,,,,,,,,,,,,,,,,,,,,,,,,,,,,,,,,,,,,,,,,,,,,,,,,,,,,,,,,,,,,,,,,,,,,,,,,,,,,,,,,,,,,,,,,,,,,,,
,,,,,,6155e204cc071b306458dfff,62c53cd1ec0c00c709b91f2e,2022-07-06_09h42.23.365,Colour_Asymmetry_Pilot,2022.1.3,Win32,60.0240096,62c50e9c1127f2cd403a315f,0,26,26,32,1,onetwo,,,,,,,,,,,,,,,,,,,,,,,,,,,,,,,,,,,,,,,,,,,,,,,,,,,,,,,,,,,,,,,,,,,,,,,,,,,,,,,,,,,,,,,,,,,,,,,,,,,,,,,,,,,,,,,,,,,,,,,,,,,,,,,,,,,,,,,,,,,,,,,,,,,,,,,,,,,,,
,,,,,,6155e204cc071b306458dfff,62c53cd1ec0c00c709b91f2e,2022-07-06_09h42.23.365,Colour_Asymmetry_Pilot,2022.1.3,Win32,60.0240096,62c50e9c1127f2cd403a315f,0,27,27,1,1,onethree,,,,,,,,,,,,,,,,,,,,,,,,,,,,,,,,,,,,,,,,,,,,,,,,,,,,,,,,,,,,,,,,,,,,,,,,,,,,,,,,,,,,,,,,,,,,,,,,,,,,,,,,,,,,,,,,,,,,,,,,,,,,,,,,,,,,,,,,,,,,,,,,,,,,,,,,,,,,,
,,,,,,6155e204cc071b306458dfff,62c53cd1ec0c00c709b91f2e,2022-07-06_09h42.23.365,Colour_Asymmetry_Pilot,2022.1.3,Win32,60.0240096,62c50e9c1127f2cd403a315f,0,28,28,56,1,onetwo,,,,,,,,,,,,,,,,,,,,,,,,,,,,,,,,,,,,,,,,,,,,,,,,,,,,,,,,,,,,,,,,,,,,,,,,,,,,,,,,,,,,,,,,,,,,,,,,,,,,,,,,,,,,,,,,,,,,,,,,,,,,,,,,,,,,,,,,,,,,,,,,,,,,,,,,,,,,,
,,,,,,6155e204cc071b306458dfff,62c53cd1ec0c00c709b91f2e,2022-07-06_09h42.23.365,Colour_Asymmetry_Pilot,2022.1.3,Win32,60.0240096,62c50e9c1127f2cd403a315f,0,29,29,127,1,fourthree,,,,,,,,,,,,,,,,,,,,,,,,,,,,,,,,,,,,,,,,,,,,,,,,,,,,,,,,,,,,,,,,,,,,,,,,,,,,,,,,,,,,,,,,,,,,,,,,,,,,,,,,,,,,,,,,,,,,,,,,,,,,,,,,,,,,,,,,,,,,,,,,,,,,,,,,,,,,,
,,,,,,6155e204cc071b306458dfff,62c53cd1ec0c00c709b91f2e,2022-07-06_09h42.23.365,Colour_Asymmetry_Pilot,2022.1.3,Win32,60.0240096,62c50e9c1127f2cd403a315f,0,30,30,78,1,fourtwo,,,,,,,,,,,,,,,,,,,,,,,,,,,,,,,,,,,,,,,,,,,,,,,,,,,,,,,,,,,,,,,,,,,,,,,,,,,,,,,,,,,,,,,,,,,,,,,,,,,,,,,,,,,,,,,,,,,,,,,,,,,,,,,,,,,,,,,,,,,,,,,,,,,,,,,,,,,,,
,,,,,,6155e204cc071b306458dfff,62c53cd1ec0c00c709b91f2e,2022-07-06_09h42.23.365,Colour_Asymmetry_Pilot,2022.1.3,Win32,60.0240096,62c50e9c1127f2cd403a315f,0,31,31,23,1,fourthree,,,,,,,,,,,,,,,,,,,,,,,,,,,,,,,,,,,,,,,,,,,,,,,,,,,,,,,,,,,,,,,,,,,,,,,,,,,,,,,,,,,,,,,,,,,,,,,,,,,,,,,,,,,,,,,,,,,,,,,,,,,,,,,,,,,,,,,,,,,,,,,,,,,,,,,,,,,,,
,,,,,,6155e204cc071b306458dfff,62c53cd1ec0c00c709b91f2e,2022-07-06_09h42.23.365,Colour_Asymmetry_Pilot,2022.1.3,Win32,60.0240096,62c50e9c1127f2cd403a315f,0,32,32,31,1,fourthree,,,,,,,,,,,,,,,,,,,,,,,,,,,,,,,,,,,,,,,,,,,,,,,,,,,,,,,,,,,,,,,,,,,,,,,,,,,,,,,,,,,,,,,,,,,,,,,,,,,,,,,,,,,,,,,,,,,,,,,,,,,,,,,,,,,,,,,,,,,,,,,,,,,,,,,,,,,,,
,,,,,,6155e204cc071b306458dfff,62c53cd1ec0c00c709b91f2e,2022-07-06_09h42.23.365,Colour_Asymmetry_Pilot,2022.1.3,Win32,60.0240096,62c50e9c1127f2cd403a315f,0,33,33,45,1,threefour,,,,,,,,,,,,,,,,,,,,,,,,,,,,,,,,,,,,,,,,,,,,,,,,,,,,,,,,,,,,,,,,,,,,,,,,,,,,,,,,,,,,,,,,,,,,,,,,,,,,,,,,,,,,,,,,,,,,,,,,,,,,,,,,,,,,,,,,,,,,,,,,,,,,,,,,,,,,,
,,,,,,6155e204cc071b306458dfff,62c53cd1ec0c00c709b91f2e,2022-07-06_09h42.23.365,Colour_Asymmetry_Pilot,2022.1.3,Win32,60.0240096,62c50e9c1127f2cd403a315f,0,34,34,86,1,fourtwo,,,,,,,,,,,,,,,,,,,,,,,,,,,,,,,,,,,,,,,,,,,,,,,,,,,,,,,,,,,,,,,,,,,,,,,,,,,,,,,,,,,,,,,,,,,,,,,,,,,,,,,,,,,,,,,,,,,,,,,,,,,,,,,,,,,,,,,,,,,,,,,,,,,,,,,,,,,,,
,,,,,,6155e204cc071b306458dfff,62c53cd1ec0c00c709b91f2e,2022-07-06_09h42.23.365,Colour_Asymmetry_Pilot,2022.1.3,Win32,60.0240096,62c50e9c1127f2cd403a315f,0,35,35,134,1,fourtwo,,,,,,,,,,,,,,,,,,,,,,,,,,,,,,,,,,,,,,,,,,,,,,,,,,,,,,,,,,,,,,,,,,,,,,,,,,,,,,,,,,,,,,,,,,,,,,,,,,,,,,,,,,,,,,,,,,,,,,,,,,,,,,,,,,,,,,,,,,,,,,,,,,,,,,,,,,,,,
,,,,,,6155e204cc071b306458dfff,62c53cd1ec0c00c709b91f2e,2022-07-06_09h42.23.365,Colour_Asymmetry_Pilot,2022.1.3,Win32,60.0240096,62c50e9c1127f2cd403a315f,0,36,36,148,1,threeone,,,,,,,,,,,,,,,,,,,,,,,,,,,,,,,,,,,,,,,,,,,,,,,,,,,,,,,,,,,,,,,,,,,,,,,,,,,,,,,,,,,,,,,,,,,,,,,,,,,,,,,,,,,,,,,,,,,,,,,,,,,,,,,,,,,,,,,,,,,,,,,,,,,,,,,,,,,,,
,,,,,,6155e204cc071b306458dfff,62c53cd1ec0c00c709b91f2e,2022-07-06_09h42.23.365,Colour_Asymmetry_Pilot,2022.1.3,Win32,60.0240096,62c50e9c1127f2cd403a315f,0,37,37,161,1,onethree,,,,,,,,,,,,,,,,,,,,,,,,,,,,,,,,,,,,,,,,,,,,,,,,,,,,,,,,,,,,,,,,,,,,,,,,,,,,,,,,,,,,,,,,,,,,,,,,,,,,,,,,,,,,,,,,,,,,,,,,,,,,,,,,,,,,,,,,,,,,,,,,,,,,,,,,,,,,,
,,,,,,6155e204cc071b306458dfff,62c53cd1ec0c00c709b91f2e,2022-07-06_09h42.23.365,Colour_Asymmetry_Pilot,2022.1.3,Win32,60.0240096,62c50e9c1127f2cd403a315f,0,38,38,154,1,twoone,,,,,,,,,,,,,,,,,,,,,,,,,,,,,,,,,,,,,,,,,,,,,,,,,,,,,,,,,,,,,,,,,,,,,,,,,,,,,,,,,,,,,,,,,,,,,,,,,,,,,,,,,,,,,,,,,,,,,,,,,,,,,,,,,,,,,,,,,,,,,,,,,,,,,,,,,,,,,
,,,,,,6155e204cc071b306458dfff,62c53cd1ec0c00c709b91f2e,2022-07-06_09h42.23.365,Colour_Asymmetry_Pilot,2022.1.3,Win32,60.0240096,62c50e9c1127f2cd403a315f,0,39,39,68,1,threeone,,,,,,,,,,,,,,,,,,,,,,,,,,,,,,,,,,,,,,,,,,,,,,,,,,,,,,,,,,,,,,,,,,,,,,,,,,,,,,,,,,,,,,,,,,,,,,,,,,,,,,,,,,,,,,,,,,,,,,,,,,,,,,,,,,,,,,,,,,,,,,,,,,,,,,,,,,,,,
,,,,,,6155e204cc071b306458dfff,62c53cd1ec0c00c709b91f2e,2022-07-06_09h42.23.365,Colour_Asymmetry_Pilot,2022.1.3,Win32,60.0240096,62c50e9c1127f2cd403a315f,0,40,40,3,1,twofour,,,,,,,,,,,,,,,,,,,,,,,,,,,,,,,,,,,,,,,,,,,,,,,,,,,,,,,,,,,,,,,,,,,,,,,,,,,,,,,,,,,,,,,,,,,,,,,,,,,,,,,,,,,,,,,,,,,,,,,,,,,,,,,,,,,,,,,,,,,,,,,,,,,,,,,,,,,,,
,,,,,,6155e204cc071b306458dfff,62c53cd1ec0c00c709b91f2e,2022-07-06_09h42.23.365,Colour_Asymmetry_Pilot,2022.1.3,Win32,60.0240096,62c50e9c1127f2cd403a315f,0,41,41,2,1,twoone,,,,,,,,,,,,,,,,,,,,,,,,,,,,,,,,,,,,,,,,,,,,,,,,,,,,,,,,,,,,,,,,,,,,,,,,,,,,,,,,,,,,,,,,,,,,,,,,,,,,,,,,,,,,,,,,,,,,,,,,,,,,,,,,,,,,,,,,,,,,,,,,,,,,,,,,,,,,,
,,,,,,6155e204cc071b306458dfff,62c53cd1ec0c00c709b91f2e,2022-07-06_09h42.23.365,Colour_Asymmetry_Pilot,2022.1.3,Win32,60.0240096,62c50e9c1127f2cd403a315f,0,42,42,135,1,fourthree,,,,,,,,,,,,,,,,,,,,,,,,,,,,,,,,,,,,,,,,,,,,,,,,,,,,,,,,,,,,,,,,,,,,,,,,,,,,,,,,,,,,,,,,,,,,,,,,,,,,,,,,,,,,,,,,,,,,,,,,,,,,,,,,,,,,,,,,,,,,,,,,,,,,,,,,,,,,,
,,,,,,6155e204cc071b306458dfff,62c53cd1ec0c00c709b91f2e,2022-07-06_09h42.23.365,Colour_Asymmetry_Pilot,2022.1.3,Win32,60.0240096,62c50e9c1127f2cd403a315f,0,43,43,147,1,twofour,,,,,,,,,,,,,,,,,,,,,,,,,,,,,,,,,,,,,,,,,,,,,,,,,,,,,,,,,,,,,,,,,,,,,,,,,,,,,,,,,,,,,,,,,,,,,,,,,,,,,,,,,,,,,,,,,,,,,,,,,,,,,,,,,,,,,,,,,,,,,,,,,,,,,,,,,,,,,
,,,,,,6155e204cc071b306458dfff,62c53cd1ec0c00c709b91f2e,2022-07-06_09h42.23.365,Colour_Asymmetry_Pilot,2022.1.3,Win32,60.0240096,62c50e9c1127f2cd403a315f,0,44,44,159,1,fourthree,,,,,,,,,,,,,,,,,,,,,,,,,,,,,,,,,,,,,,,,,,,,,,,,,,,,,,,,,,,,,,,,,,,,,,,,,,,,,,,,,,,,,,,,,,,,,,,,,,,,,,,,,,,,,,,,,,,,,,,,,,,,,,,,,,,,,,,,,,,,,,,,,,,,,,,,,,,,,
,,,,,,6155e204cc071b306458dfff,62c53cd1ec0c00c709b91f2e,2022-07-06_09h42.23.365,Colour_Asymmetry_Pilot,2022.1.3,Win32,60.0240096,62c50e9c1127f2cd403a315f,0,45,45,53,1,threefour,,,,,,,,,,,,,,,,,,,,,,,,,,,,,,,,,,,,,,,,,,,,,,,,,,,,,,,,,,,,,,,,,,,,,,,,,,,,,,,,,,,,,,,,,,,,,,,,,,,,,,,,,,,,,,,,,,,,,,,,,,,,,,,,,,,,,,,,,,,,,,,,,,,,,,,,,,,,,
,,,,,,6155e204cc071b306458dfff,62c53cd1ec0c00c709b91f2e,2022-07-06_09h42.23.365,Colour_Asymmetry_Pilot,2022.1.3,Win32,60.0240096,62c50e9c1127f2cd403a315f,0,46,46,59,1,twofour,,,,,,,,,,,,,,,,,,,,,,,,,,,,,,,,,,,,,,,,,,,,,,,,,,,,,,,,,,,,,,,,,,,,,,,,,,,,,,,,,,,,,,,,,,,,,,,,,,,,,,,,,,,,,,,,,,,,,,,,,,,,,,,,,,,,,,,,,,,,,,,,,,,,,,,,,,,,,
,,,,,,6155e204cc071b306458dfff,62c53cd1ec0c00c709b91f2e,2022-07-06_09h42.23.365,Colour_Asymmetry_Pilot,2022.1.3,Win32,60.0240096,62c50e9c1127f2cd403a315f,0,47,47,22,1,fourtwo,,,,,,,,,,,,,,,,,,,,,,,,,,,,,,,,,,,,,,,,,,,,,,,,,,,,,,,,,,,,,,,,,,,,,,,,,,,,,,,,,,,,,,,,,,,,,,,,,,,,,,,,,,,,,,,,,,,,,,,,,,,,,,,,,,,,,,,,,,,,,,,,,,,,,,,,,,,,,
,,,,,,6155e204cc071b306458dfff,62c53cd1ec0c00c709b91f2e,2022-07-06_09h42.23.365,Colour_Asymmetry_Pilot,2022.1.3,Win32,60.0240096,62c50e9c1127f2cd403a315f,0,48,48,119,1,fourthree,,,,,,,,,,,,,,,,,,,,,,,,,,,,,,,,,,,,,,,,,,,,,,,,,,,,,,,,,,,,,,,,,,,,,,,,,,,,,,,,,,,,,,,,,,,,,,,,,,,,,,,,,,,,,,,,,,,,,,,,,,,,,,,,,,,,,,,,,,,,,,,,,,,,,,,,,,,,,
,,,,,,6155e204cc071b306458dfff,62c53cd1ec0c00c709b91f2e,2022-07-06_09h42.23.365,Colour_Asymmetry_Pilot,2022.1.3,Win32,60.0240096,62c50e9c1127f2cd403a315f,0,49,49,27,1,twofour,,,,,,,,,,,,,,,,,,,,,,,,,,,,,,,,,,,,,,,,,,,,,,,,,,,,,,,,,,,,,,,,,,,,,,,,,,,,,,,,,,,,,,,,,,,,,,,,,,,,,,,,,,,,,,,,,,,,,,,,,,,,,,,,,,,,,,,,,,,,,,,,,,,,,,,,,,,,,
,,,,,,6155e204cc071b306458dfff,62c53cd1ec0c00c709b91f2e,2022-07-06_09h42.23.365,Colour_Asymmetry_Pilot,2022.1.3,Win32,60.0240096,62c50e9c1127f2cd403a315f,0,50,50,93,1,threefour,,,,,,,,,,,,,,,,,,,,,,,,,,,,,,,,,,,,,,,,,,,,,,,,,,,,,,,,,,,,,,,,,,,,,,,,,,,,,,,,,,,,,,,,,,,,,,,,,,,,,,,,,,,,,,,,,,,,,,,,,,,,,,,,,,,,,,,,,,,,,,,,,,,,,,,,,,,,,
,,,,,,6155e204cc071b306458dfff,62c53cd1ec0c00c709b91f2e,2022-07-06_09h42.23.365,Colour_Asymmetry_Pilot,2022.1.3,Win32,60.0240096,62c50e9c1127f2cd403a315f,0,51,51,62,1,fourtwo,,,,,,,,,,,,,,,,,,,,,,,,,,,,,,,,,,,,,,,,,,,,,,,,,,,,,,,,,,,,,,,,,,,,,,,,,,,,,,,,,,,,,,,,,,,,,,,,,,,,,,,,,,,,,,,,,,,,,,,,,,,,,,,,,,,,,,,,,,,,,,,,,,,,,,,,,,,,,
,,,,,,6155e204cc071b306458dfff,62c53cd1ec0c00c709b91f2e,2022-07-06_09h42.23.365,Colour_Asymmetry_Pilot,2022.1.3,Win32,60.0240096,62c50e9c1127f2cd403a315f,0,52,52,20,1,threeone,,,,,,,,,,,,,,,,,,,,,,,,,,,,,,,,,,,,,,,,,,,,,,,,,,,,,,,,,,,,,,,,,,,,,,,,,,,,,,,,,,,,,,,,,,,,,,,,,,,,,,,,,,,,,,,,,,,,,,,,,,,,,,,,,,,,,,,,,,,,,,,,,,,,,,,,,,,,,
,,,,,,6155e204cc071b306458dfff,62c53cd1ec0c00c709b91f2e,2022-07-06_09h42.23.365,Colour_Asymmetry_Pilot,2022.1.3,Win32,60.0240096,62c50e9c1127f2cd403a315f,0,53,53,12,1,threeone,,,,,,,,,,,,,,,,,,,,,,,,,,,,,,,,,,,,,,,,,,,,,,,,,,,,,,,,,,,,,,,,,,,,,,,,,,,,,,,,,,,,,,,,,,,,,,,,,,,,,,,,,,,,,,,,,,,,,,,,,,,,,,,,,,,,,,,,,,,,,,,,,,,,,,,,,,,,,
,,,,,,6155e204cc071b306458dfff,62c53cd1ec0c00c709b91f2e,2022-07-06_09h42.23.365,Colour_Asymmetry_Pilot,2022.1.3,Win32,60.0240096,62c50e9c1127f2cd403a315f,0,54,54,132,1,threeone,,,,,,,,,,,,,,,,,,,,,,,,,,,,,,,,,,,,,,,,,,,,,,,,,,,,,,,,,,,,,,,,,,,,,,,,,,,,,,,,,,,,,,,,,,,,,,,,,,,,,,,,,,,,,,,,,,,,,,,,,,,,,,,,,,,,,,,,,,,,,,,,,,,,,,,,,,,,,
,,,,,,6155e204cc071b306458dfff,62c53cd1ec0c00c709b91f2e,2022-07-06_09h42.23.365,Colour_Asymmetry_Pilot,2022.1.3,Win32,60.0240096,62c50e9c1127f2cd403a315f,0,55,55,24,1,onetwo,,,,,,,,,,,,,,,,,,,,,,,,,,,,,,,,,,,,,,,,,,,,,,,,,,,,,,,,,,,,,,,,,,,,,,,,,,,,,,,,,,,,,,,,,,,,,,,,,,,,,,,,,,,,,,,,,,,,,,,,,,,,,,,,,,,,,,,,,,,,,,,,,,,,,,,,,,,,,
,,,,,,6155e204cc071b306458dfff,62c53cd1ec0c00c709b91f2e,2022-07-06_09h42.23.365,Colour_Asymmetry_Pilot,2022.1.3,Win32,60.0240096,62c50e9c1127f2cd403a315f,0,56,56,65,1,onethree,,,,,,,,,,,,,,,,,,,,,,,,,,,,,,,,,,,,,,,,,,,,,,,,,,,,,,,,,,,,,,,,,,,,,,,,,,,,,,,,,,,,,,,,,,,,,,,,,,,,,,,,,,,,,,,,,,,,,,,,,,,,,,,,,,,,,,,,,,,,,,,,,,,,,,,,,,,,,
,,,,,,6155e204cc071b306458dfff,62c53cd1ec0c00c709b91f2e,2022-07-06_09h42.23.365,Colour_Asymmetry_Pilot,2022.1.3,Win32,60.0240096,62c50e9c1127f2cd403a315f,0,57,57,108,1,threeone,,,,,,,,,,,,,,,,,,,,,,,,,,,,,,,,,,,,,,,,,,,,,,,,,,,,,,,,,,,,,,,,,,,,,,,,,,,,,,,,,,,,,,,,,,,,,,,,,,,,,,,,,,,,,,,,,,,,,,,,,,,,,,,,,,,,,,,,,,,,,,,,,,,,,,,,,,,,,
,,,,,,6155e204cc071b306458dfff,62c53cd1ec0c00c709b91f2e,2022-07-06_09h42.23.365,Colour_Asymmetry_Pilot,2022.1.3,Win32,60.0240096,62c50e9c1127f2cd403a315f,0,58,58,99,1,twofour,,,,,,,,,,,,,,,,,,,,,,,,,,,,,,,,,,,,,,,,,,,,,,,,,,,,,,,,,,,,,,,,,,,,,,,,,,,,,,,,,,,,,,,,,,,,,,,,,,,,,,,,,,,,,,,,,,,,,,,,,,,,,,,,,,,,,,,,,,,,,,,,,,,,,,,,,,,,,
,,,,,,6155e204cc071b306458dfff,62c53cd1ec0c00c709b91f2e,2022-07-06_09h42.23.365,Colour_Asymmetry_Pilot,2022.1.3,Win32,60.0240096,62c50e9c1127f2cd403a315f,0,59,59,9,1,onethree,,,,,,,,,,,,,,,,,,,,,,,,,,,,,,,,,,,,,,,,,,,,,,,,,,,,,,,,,,,,,,,,,,,,,,,,,,,,,,,,,,,,,,,,,,,,,,,,,,,,,,,,,,,,,,,,,,,,,,,,,,,,,,,,,,,,,,,,,,,,,,,,,,,,,,,,,,,,,
,,,,,,6155e204cc071b306458dfff,62c53cd1ec0c00c709b91f2e,2022-07-06_09h42.23.365,Colour_Asymmetry_Pilot,2022.1.3,Win32,60.0240096,62c50e9c1127f2cd403a315f,0,60,60,55,1,fourthree,,,,,,,,,,,,,,,,,,,,,,,,,,,,,,,,,,,,,,,,,,,,,,,,,,,,,,,,,,,,,,,,,,,,,,,,,,,,,,,,,,,,,,,,,,,,,,,,,,,,,,,,,,,,,,,,,,,,,,,,,,,,,,,,,,,,,,,,,,,,,,,,,,,,,,,,,,,,,
,,,,,,6155e204cc071b306458dfff,62c53cd1ec0c00c709b91f2e,2022-07-06_09h42.23.365,Colour_Asymmetry_Pilot,2022.1.3,Win32,60.0240096,62c50e9c1127f2cd403a315f,0,61,61,126,1,fourtwo,,,,,,,,,,,,,,,,,,,,,,,,,,,,,,,,,,,,,,,,,,,,,,,,,,,,,,,,,,,,,,,,,,,,,,,,,,,,,,,,,,,,,,,,,,,,,,,,,,,,,,,,,,,,,,,,,,,,,,,,,,,,,,,,,,,,,,,,,,,,,,,,,,,,,,,,,,,,,
,,,,,,6155e204cc071b306458dfff,62c53cd1ec0c00c709b91f2e,2022-07-06_09h42.23.365,Colour_Asymmetry_Pilot,2022.1.3,Win32,60.0240096,62c50e9c1127f2cd403a315f,0,62,62,139,1,twofour,,,,,,,,,,,,,,,,,,,,,,,,,,,,,,,,,,,,,,,,,,,,,,,,,,,,,,,,,,,,,,,,,,,,,,,,,,,,,,,,,,,,,,,,,,,,,,,,,,,,,,,,,,,,,,,,,,,,,,,,,,,,,,,,,,,,,,,,,,,,,,,,,,,,,,,,,,,,,
,,,,,,6155e204cc071b306458dfff,62c53cd1ec0c00c709b91f2e,2022-07-06_09h42.23.365,Colour_Asymmetry_Pilot,2022.1.3,Win32,60.0240096,62c50e9c1127f2cd403a315f,0,63,63,57,1,onethree,,,,,,,,,,,,,,,,,,,,,,,,,,,,,,,,,,,,,,,,,,,,,,,,,,,,,,,,,,,,,,,,,,,,,,,,,,,,,,,,,,,,,,,,,,,,,,,,,,,,,,,,,,,,,,,,,,,,,,,,,,,,,,,,,,,,,,,,,,,,,,,,,,,,,,,,,,,,,
,,,,,,6155e204cc071b306458dfff,62c53cd1ec0c00c709b91f2e,2022-07-06_09h42.23.365,Colour_Asymmetry_Pilot,2022.1.3,Win32,60.0240096,62c50e9c1127f2cd403a315f,0,64,64,76,1,threeone,,,,,,,,,,,,,,,,,,,,,,,,,,,,,,,,,,,,,,,,,,,,,,,,,,,,,,,,,,,,,,,,,,,,,,,,,,,,,,,,,,,,,,,,,,,,,,,,,,,,,,,,,,,,,,,,,,,,,,,,,,,,,,,,,,,,,,,,,,,,,,,,,,,,,,,,,,,,,
,,,,,,6155e204cc071b306458dfff,62c53cd1ec0c00c709b91f2e,2022-07-06_09h42.23.365,Colour_Asymmetry_Pilot,2022.1.3,Win32,60.0240096,62c50e9c1127f2cd403a315f,0,65,65,150,1,fourtwo,,,,,,,,,,,,,,,,,,,,,,,,,,,,,,,,,,,,,,,,,,,,,,,,,,,,,,,,,,,,,,,,,,,,,,,,,,,,,,,,,,,,,,,,,,,,,,,,,,,,,,,,,,,,,,,,,,,,,,,,,,,,,,,,,,,,,,,,,,,,,,,,,,,,,,,,,,,,,
,,,,,,6155e204cc071b306458dfff,62c53cd1ec0c00c709b91f2e,2022-07-06_09h42.23.365,Colour_Asymmetry_Pilot,2022.1.3,Win32,60.0240096,62c50e9c1127f2cd403a315f,0,66,66,129,1,onethree,,,,,,,,,,,,,,,,,,,,,,,,,,,,,,,,,,,,,,,,,,,,,,,,,,,,,,,,,,,,,,,,,,,,,,,,,,,,,,,,,,,,,,,,,,,,,,,,,,,,,,,,,,,,,,,,,,,,,,,,,,,,,,,,,,,,,,,,,,,,,,,,,,,,,,,,,,,,,
,,,,,,6155e204cc071b306458dfff,62c53cd1ec0c00c709b91f2e,2022-07-06_09h42.23.365,Colour_Asymmetry_Pilot,2022.1.3,Win32,60.0240096,62c50e9c1127f2cd403a315f,0,67,67,142,1,fourtwo,,,,,,,,,,,,,,,,,,,,,,,,,,,,,,,,,,,,,,,,,,,,,,,,,,,,,,,,,,,,,,,,,,,,,,,,,,,,,,,,,,,,,,,,,,,,,,,,,,,,,,,,,,,,,,,,,,,,,,,,,,,,,,,,,,,,,,,,,,,,,,,,,,,,,,,,,,,,,
,,,,,,6155e204cc071b306458dfff,62c53cd1ec0c00c709b91f2e,2022-07-06_09h42.23.365,Colour_Asymmetry_Pilot,2022.1.3,Win32,60.0240096,62c50e9c1127f2cd403a315f,0,68,68,115,1,twofour,,,,,,,,,,,,,,,,,,,,,,,,,,,,,,,,,,,,,,,,,,,,,,,,,,,,,,,,,,,,,,,,,,,,,,,,,,,,,,,,,,,,,,,,,,,,,,,,,,,,,,,,,,,,,,,,,,,,,,,,,,,,,,,,,,,,,,,,,,,,,,,,,,,,,,,,,,,,,
,,,,,,6155e204cc071b306458dfff,62c53cd1ec0c00c709b91f2e,2022-07-06_09h42.23.365,Colour_Asymmetry_Pilot,2022.1.3,Win32,60.0240096,62c50e9c1127f2cd403a315f,0,69,69,73,1,onethree,,,,,,,,,,,,,,,,,,,,,,,,,,,,,,,,,,,,,,,,,,,,,,,,,,,,,,,,,,,,,,,,,,,,,,,,,,,,,,,,,,,,,,,,,,,,,,,,,,,,,,,,,,,,,,,,,,,,,,,,,,,,,,,,,,,,,,,,,,,,,,,,,,,,,,,,,,,,,
,,,,,,6155e204cc071b306458dfff,62c53cd1ec0c00c709b91f2e,2022-07-06_09h42.23.365,Colour_Asymmetry_Pilot,2022.1.3,Win32,60.0240096,62c50e9c1127f2cd403a315f,0,70,70,67,1,twofour,,,,,,,,,,,,,,,,,,,,,,,,,,,,,,,,,,,,,,,,,,,,,,,,,,,,,,,,,,,,,,,,,,,,,,,,,,,,,,,,,,,,,,,,,,,,,,,,,,,,,,,,,,,,,,,,,,,,,,,,,,,,,,,,,,,,,,,,,,,,,,,,,,,,,,,,,,,,,
,,,,,,6155e204cc071b306458dfff,62c53cd1ec0c00c709b91f2e,2022-07-06_09h42.23.365,Colour_Asymmetry_Pilot,2022.1.3,Win32,60.0240096,62c50e9c1127f2cd403a315f,0,71,71,69,1,threefour,,,,,,,,,,,,,,,,,,,,,,,,,,,,,,,,,,,,,,,,,,,,,,,,,,,,,,,,,,,,,,,,,,,,,,,,,,,,,,,,,,,,,,,,,,,,,,,,,,,,,,,,,,,,,,,,,,,,,,,,,,,,,,,,,,,,,,,,,,,,,,,,,,,,,,,,,,,,,
,,,,,,6155e204cc071b306458dfff,62c53cd1ec0c00c709b91f2e,2022-07-06_09h42.23.365,Colour_Asymmetry_Pilot,2022.1.3,Win32,60.0240096,62c50e9c1127f2cd403a315f,0,72,72,146,1,twoone,,,,,,,,,,,,,,,,,,,,,,,,,,,,,,,,,,,,,,,,,,,,,,,,,,,,,,,,,,,,,,,,,,,,,,,,,,,,,,,,,,,,,,,,,,,,,,,,,,,,,,,,,,,,,,,,,,,,,,,,,,,,,,,,,,,,,,,,,,,,,,,,,,,,,,,,,,,,,
,,,,,,6155e204cc071b306458dfff,62c53cd1ec0c00c709b91f2e,2022-07-06_09h42.23.365,Colour_Asymmetry_Pilot,2022.1.3,Win32,60.0240096,62c50e9c1127f2cd403a315f,0,73,73,26,1,twoone,,,,,,,,,,,,,,,,,,,,,,,,,,,,,,,,,,,,,,,,,,,,,,,,,,,,,,,,,,,,,,,,,,,,,,,,,,,,,,,,,,,,,,,,,,,,,,,,,,,,,,,,,,,,,,,,,,,,,,,,,,,,,,,,,,,,,,,,,,,,,,,,,,,,,,,,,,,,,
,,,,,,6155e204cc071b306458dfff,62c53cd1ec0c00c709b91f2e,2022-07-06_09h42.23.365,Colour_Asymmetry_Pilot,2022.1.3,Win32,60.0240096,62c50e9c1127f2cd403a315f,0,74,74,105,1,onethree,,,,,,,,,,,,,,,,,,,,,,,,,,,,,,,,,,,,,,,,,,,,,,,,,,,,,,,,,,,,,,,,,,,,,,,,,,,,,,,,,,,,,,,,,,,,,,,,,,,,,,,,,,,,,,,,,,,,,,,,,,,,,,,,,,,,,,,,,,,,,,,,,,,,,,,,,,,,,
,,,,,,6155e204cc071b306458dfff,62c53cd1ec0c00c709b91f2e,2022-07-06_09h42.23.365,Colour_Asymmetry_Pilot,2022.1.3,Win32,60.0240096,62c50e9c1127f2cd403a315f,0,75,75,100,1,threeone,,,,,,,,,,,,,,,,,,,,,,,,,,,,,,,,,,,,,,,,,,,,,,,,,,,,,,,,,,,,,,,,,,,,,,,,,,,,,,,,,,,,,,,,,,,,,,,,,,,,,,,,,,,,,,,,,,,,,,,,,,,,,,,,,,,,,,,,,,,,,,,,,,,,,,,,,,,,,
,,,,,,6155e204cc071b306458dfff,62c53cd1ec0c00c709b91f2e,2022-07-06_09h42.23.365,Colour_Asymmetry_Pilot,2022.1.3,Win32,60.0240096,62c50e9c1127f2cd403a315f,0,76,76,52,1,threeone,,,,,,,,,,,,,,,,,,,,,,,,,,,,,,,,,,,,,,,,,,,,,,,,,,,,,,,,,,,,,,,,,,,,,,,,,,,,,,,,,,,,,,,,,,,,,,,,,,,,,,,,,,,,,,,,,,,,,,,,,,,,,,,,,,,,,,,,,,,,,,,,,,,,,,,,,,,,,
,,,,,,6155e204cc071b306458dfff,62c53cd1ec0c00c709b91f2e,2022-07-06_09h42.23.365,Colour_Asymmetry_Pilot,2022.1.3,Win32,60.0240096,62c50e9c1127f2cd403a315f,0,77,77,5,1,threefour,,,,,,,,,,,,,,,,,,,,,,,,,,,,,,,,,,,,,,,,,,,,,,,,,,,,,,,,,,,,,,,,,,,,,,,,,,,,,,,,,,,,,,,,,,,,,,,,,,,,,,,,,,,,,,,,,,,,,,,,,,,,,,,,,,,,,,,,,,,,,,,,,,,,,,,,,,,,,
,,,,,,6155e204cc071b306458dfff,62c53cd1ec0c00c709b91f2e,2022-07-06_09h42.23.365,Colour_Asymmetry_Pilot,2022.1.3,Win32,60.0240096,62c50e9c1127f2cd403a315f,0,78,78,17,1,onethree,,,,,,,,,,,,,,,,,,,,,,,,,,,,,,,,,,,,,,,,,,,,,,,,,,,,,,,,,,,,,,,,,,,,,,,,,,,,,,,,,,,,,,,,,,,,,,,,,,,,,,,,,,,,,,,,,,,,,,,,,,,,,,,,,,,,,,,,,,,,,,,,,,,,,,,,,,,,,
,,,,,,6155e204cc071b306458dfff,62c53cd1ec0c00c709b91f2e,2022-07-06_09h42.23.365,Colour_Asymmetry_Pilot,2022.1.3,Win32,60.0240096,62c50e9c1127f2cd403a315f,0,79,79,149,1,threefour,,,,,,,,,,,,,,,,,,,,,,,,,,,,,,,,,,,,,,,,,,,,,,,,,,,,,,,,,,,,,,,,,,,,,,,,,,,,,,,,,,,,,,,,,,,,,,,,,,,,,,,,,,,,,,,,,,,,,,,,,,,,,,,,,,,,,,,,,,,,,,,,,,,,,,,,,,,,,
,,,,,,6155e204cc071b306458dfff,62c53cd1ec0c00c709b91f2e,2022-07-06_09h42.23.365,Colour_Asymmetry_Pilot,2022.1.3,Win32,60.0240096,62c50e9c1127f2cd403a315f,0,80,80,84,1,threeone,,,,,,,,,,,,,,,,,,,,,,,,,,,,,,,,,,,,,,,,,,,,,,,,,,,,,,,,,,,,,,,,,,,,,,,,,,,,,,,,,,,,,,,,,,,,,,,,,,,,,,,,,,,,,,,,,,,,,,,,,,,,,,,,,,,,,,,,,,,,,,,,,,,,,,,,,,,,,
,,,,,,6155e204cc071b306458dfff,62c53cd1ec0c00c709b91f2e,2022-07-06_09h42.23.365,Colour_Asymmetry_Pilot,2022.1.3,Win32,60.0240096,62c50e9c1127f2cd403a315f,0,81,81,80,1,onetwo,,,,,,,,,,,,,,,,,,,,,,,,,,,,,,,,,,,,,,,,,,,,,,,,,,,,,,,,,,,,,,,,,,,,,,,,,,,,,,,,,,,,,,,,,,,,,,,,,,,,,,,,,,,,,,,,,,,,,,,,,,,,,,,,,,,,,,,,,,,,,,,,,,,,,,,,,,,,,
,,,,,,6155e204cc071b306458dfff,62c53cd1ec0c00c709b91f2e,2022-07-06_09h42.23.365,Colour_Asymmetry_Pilot,2022.1.3,Win32,60.0240096,62c50e9c1127f2cd403a315f,0,82,82,79,1,fourthree,,,,,,,,,,,,,,,,,,,,,,,,,,,,,,,,,,,,,,,,,,,,,,,,,,,,,,,,,,,,,,,,,,,,,,,,,,,,,,,,,,,,,,,,,,,,,,,,,,,,,,,,,,,,,,,,,,,,,,,,,,,,,,,,,,,,,,,,,,,,,,,,,,,,,,,,,,,,,
,,,,,,6155e204cc071b306458dfff,62c53cd1ec0c00c709b91f2e,2022-07-06_09h42.23.365,Colour_Asymmetry_Pilot,2022.1.3,Win32,60.0240096,62c50e9c1127f2cd403a315f,0,83,83,128,1,onetwo,,,,,,,,,,,,,,,,,,,,,,,,,,,,,,,,,,,,,,,,,,,,,,,,,,,,,,,,,,,,,,,,,,,,,,,,,,,,,,,,,,,,,,,,,,,,,,,,,,,,,,,,,,,,,,,,,,,,,,,,,,,,,,,,,,,,,,,,,,,,,,,,,,,,,,,,,,,,,
,,,,,,6155e204cc071b306458dfff,62c53cd1ec0c00c709b91f2e,2022-07-06_09h42.23.365,Colour_Asymmetry_Pilot,2022.1.3,Win32,60.0240096,62c50e9c1127f2cd403a315f,0,84,84,42,1,twoone,,,,,,,,,,,,,,,,,,,,,,,,,,,,,,,,,,,,,,,,,,,,,,,,,,,,,,,,,,,,,,,,,,,,,,,,,,,,,,,,,,,,,,,,,,,,,,,,,,,,,,,,,,,,,,,,,,,,,,,,,,,,,,,,,,,,,,,,,,,,,,,,,,,,,,,,,,,,,
,,,,,,6155e204cc071b306458dfff,62c53cd1ec0c00c709b91f2e,2022-07-06_09h42.23.365,Colour_Asymmetry_Pilot,2022.1.3,Win32,60.0240096,62c50e9c1127f2cd403a315f,0,85,85,144,1,onetwo,,,,,,,,,,,,,,,,,,,,,,,,,,,,,,,,,,,,,,,,,,,,,,,,,,,,,,,,,,,,,,,,,,,,,,,,,,,,,,,,,,,,,,,,,,,,,,,,,,,,,,,,,,,,,,,,,,,,,,,,,,,,,,,,,,,,,,,,,,,,,,,,,,,,,,,,,,,,,
,,,,,,6155e204cc071b306458dfff,62c53cd1ec0c00c709b91f2e,2022-07-06_09h42.23.365,Colour_Asymmetry_Pilot,2022.1.3,Win32,60.0240096,62c50e9c1127f2cd403a315f,0,86,86,130,1,twoone,,,,,,,,,,,,,,,,,,,,,,,,,,,,,,,,,,,,,,,,,,,,,,,,,,,,,,,,,,,,,,,,,,,,,,,,,,,,,,,,,,,,,,,,,,,,,,,,,,,,,,,,,,,,,,,,,,,,,,,,,,,,,,,,,,,,,,,,,,,,,,,,,,,,,,,,,,,,,
,,,,,,6155e204cc071b306458dfff,62c53cd1ec0c00c709b91f2e,2022-07-06_09h42.23.365,Colour_Asymmetry_Pilot,2022.1.3,Win32,60.0240096,62c50e9c1127f2cd403a315f,0,87,87,66,1,twoone,,,,,,,,,,,,,,,,,,,,,,,,,,,,,,,,,,,,,,,,,,,,,,,,,,,,,,,,,,,,,,,,,,,,,,,,,,,,,,,,,,,,,,,,,,,,,,,,,,,,,,,,,,,,,,,,,,,,,,,,,,,,,,,,,,,,,,,,,,,,,,,,,,,,,,,,,,,,,
,,,,,,6155e204cc071b306458dfff,62c53cd1ec0c00c709b91f2e,2022-07-06_09h42.23.365,Colour_Asymmetry_Pilot,2022.1.3,Win32,60.0240096,62c50e9c1127f2cd403a315f,0,88,88,34,1,twoone,,,,,,,,,,,,,,,,,,,,,,,,,,,,,,,,,,,,,,,,,,,,,,,,,,,,,,,,,,,,,,,,,,,,,,,,,,,,,,,,,,,,,,,,,,,,,,,,,,,,,,,,,,,,,,,,,,,,,,,,,,,,,,,,,,,,,,,,,,,,,,,,,,,,,,,,,,,,,
,,,,,,6155e204cc071b306458dfff,62c53cd1ec0c00c709b91f2e,2022-07-06_09h42.23.365,Colour_Asymmetry_Pilot,2022.1.3,Win32,60.0240096,62c50e9c1127f2cd403a315f,0,89,89,92,1,threeone,,,,,,,,,,,,,,,,,,,,,,,,,,,,,,,,,,,,,,,,,,,,,,,,,,,,,,,,,,,,,,,,,,,,,,,,,,,,,,,,,,,,,,,,,,,,,,,,,,,,,,,,,,,,,,,,,,,,,,,,,,,,,,,,,,,,,,,,,,,,,,,,,,,,,,,,,,,,,
,,,,,,6155e204cc071b306458dfff,62c53cd1ec0c00c709b91f2e,2022-07-06_09h42.23.365,Colour_Asymmetry_Pilot,2022.1.3,Win32,60.0240096,62c50e9c1127f2cd403a315f,0,90,90,7,1,fourthree,,,,,,,,,,,,,,,,,,,,,,,,,,,,,,,,,,,,,,,,,,,,,,,,,,,,,,,,,,,,,,,,,,,,,,,,,,,,,,,,,,,,,,,,,,,,,,,,,,,,,,,,,,,,,,,,,,,,,,,,,,,,,,,,,,,,,,,,,,,,,,,,,,,,,,,,,,,,,
,,,,,,6155e204cc071b306458dfff,62c53cd1ec0c00c709b91f2e,2022-07-06_09h42.23.365,Colour_Asymmetry_Pilot,2022.1.3,Win32,60.0240096,62c50e9c1127f2cd403a315f,0,91,91,19,1,twofour,,,,,,,,,,,,,,,,,,,,,,,,,,,,,,,,,,,,,,,,,,,,,,,,,,,,,,,,,,,,,,,,,,,,,,,,,,,,,,,,,,,,,,,,,,,,,,,,,,,,,,,,,,,,,,,,,,,,,,,,,,,,,,,,,,,,,,,,,,,,,,,,,,,,,,,,,,,,,
,,,,,,6155e204cc071b306458dfff,62c53cd1ec0c00c709b91f2e,2022-07-06_09h42.23.365,Colour_Asymmetry_Pilot,2022.1.3,Win32,60.0240096,62c50e9c1127f2cd403a315f,0,92,92,8,1,onetwo,,,,,,,,,,,,,,,,,,,,,,,,,,,,,,,,,,,,,,,,,,,,,,,,,,,,,,,,,,,,,,,,,,,,,,,,,,,,,,,,,,,,,,,,,,,,,,,,,,,,,,,,,,,,,,,,,,,,,,,,,,,,,,,,,,,,,,,,,,,,,,,,,,,,,,,,,,,,,
,,,,,,6155e204cc071b306458dfff,62c53cd1ec0c00c709b91f2e,2022-07-06_09h42.23.365,Colour_Asymmetry_Pilot,2022.1.3,Win32,60.0240096,62c50e9c1127f2cd403a315f,0,93,93,96,1,onetwo,,,,,,,,,,,,,,,,,,,,,,,,,,,,,,,,,,,,,,,,,,,,,,,,,,,,,,,,,,,,,,,,,,,,,,,,,,,,,,,,,,,,,,,,,,,,,,,,,,,,,,,,,,,,,,,,,,,,,,,,,,,,,,,,,,,,,,,,,,,,,,,,,,,,,,,,,,,,,
,,,,,,6155e204cc071b306458dfff,62c53cd1ec0c00c709b91f2e,2022-07-06_09h42.23.365,Colour_Asymmetry_Pilot,2022.1.3,Win32,60.0240096,62c50e9c1127f2cd403a315f,0,94,94,90,1,twoone,,,,,,,,,,,,,,,,,,,,,,,,,,,,,,,,,,,,,,,,,,,,,,,,,,,,,,,,,,,,,,,,,,,,,,,,,,,,,,,,,,,,,,,,,,,,,,,,,,,,,,,,,,,,,,,,,,,,,,,,,,,,,,,,,,,,,,,,,,,,,,,,,,,,,,,,,,,,,
,,,,,,6155e204cc071b306458dfff,62c53cd1ec0c00c709b91f2e,2022-07-06_09h42.23.365,Colour_Asymmetry_Pilot,2022.1.3,Win32,60.0240096,62c50e9c1127f2cd403a315f,0,95,95,71,1,fourthree,,,,,,,,,,,,,,,,,,,,,,,,,,,,,,,,,,,,,,,,,,,,,,,,,,,,,,,,,,,,,,,,,,,,,,,,,,,,,,,,,,,,,,,,,,,,,,,,,,,,,,,,,,,,,,,,,,,,,,,,,,,,,,,,,,,,,,,,,,,,,,,,,,,,,,,,,,,,,
,,,,,,6155e204cc071b306458dfff,62c53cd1ec0c00c709b91f2e,2022-07-06_09h42.23.365,Colour_Asymmetry_Pilot,2022.1.3,Win32,60.0240096,62c50e9c1127f2cd403a315f,0,96,96,107,1,twofour,,,,,,,,,,,,,,,,,,,,,,,,,,,,,,,,,,,,,,,,,,,,,,,,,,,,,,,,,,,,,,,,,,,,,,,,,,,,,,,,,,,,,,,,,,,,,,,,,,,,,,,,,,,,,,,,,,,,,,,,,,,,,,,,,,,,,,,,,,,,,,,,,,,,,,,,,,,,,
,,,,,,6155e204cc071b306458dfff,62c53cd1ec0c00c709b91f2e,2022-07-06_09h42.23.365,Colour_Asymmetry_Pilot,2022.1.3,Win32,60.0240096,62c50e9c1127f2cd403a315f,0,97,97,58,1,twoone,,,,,,,,,,,,,,,,,,,,,,,,,,,,,,,,,,,,,,,,,,,,,,,,,,,,,,,,,,,,,,,,,,,,,,,,,,,,,,,,,,,,,,,,,,,,,,,,,,,,,,,,,,,,,,,,,,,,,,,,,,,,,,,,,,,,,,,,,,,,,,,,,,,,,,,,,,,,,
,,,,,,6155e204cc071b306458dfff,62c53cd1ec0c00c709b91f2e,2022-07-06_09h42.23.365,Colour_Asymmetry_Pilot,2022.1.3,Win32,60.0240096,62c50e9c1127f2cd403a315f,0,98,98,15,1,fourthree,,,,,,,,,,,,,,,,,,,,,,,,,,,,,,,,,,,,,,,,,,,,,,,,,,,,,,,,,,,,,,,,,,,,,,,,,,,,,,,,,,,,,,,,,,,,,,,,,,,,,,,,,,,,,,,,,,,,,,,,,,,,,,,,,,,,,,,,,,,,,,,,,,,,,,,,,,,,,
,,,,,,6155e204cc071b306458dfff,62c53cd1ec0c00c709b91f2e,2022-07-06_09h42.23.365,Colour_Asymmetry_Pilot,2022.1.3,Win32,60.0240096,62c50e9c1127f2cd403a315f,0,99,99,152,1,onetwo,,,,,,,,,,,,,,,,,,,,,,,,,,,,,,,,,,,,,,,,,,,,,,,,,,,,,,,,,,,,,,,,,,,,,,,,,,,,,,,,,,,,,,,,,,,,,,,,,,,,,,,,,,,,,,,,,,,,,,,,,,,,,,,,,,,,,,,,,,,,,,,,,,,,,,,,,,,,,
,,,,,,6155e204cc071b306458dfff,62c53cd1ec0c00c709b91f2e,2022-07-06_09h42.23.365,Colour_Asymmetry_Pilot,2022.1.3,Win32,60.0240096,62c50e9c1127f2cd403a315f,0,100,100,158,1,fourtwo,,,,,,,,,,,,,,,,,,,,,,,,,,,,,,,,,,,,,,,,,,,,,,,,,,,,,,,,,,,,,,,,,,,,,,,,,,,,,,,,,,,,,,,,,,,,,,,,,,,,,,,,,,,,,,,,,,,,,,,,,,,,,,,,,,,,,,,,,,,,,,,,,,,,,,,,,,,,,
,,,,,,6155e204cc071b306458dfff,62c53cd1ec0c00c709b91f2e,2022-07-06_09h42.23.365,Colour_Asymmetry_Pilot,2022.1.3,Win32,60.0240096,62c50e9c1127f2cd403a315f,0,101,101,4,1,threeone,,,,,,,,,,,,,,,,,,,,,,,,,,,,,,,,,,,,,,,,,,,,,,,,,,,,,,,,,,,,,,,,,,,,,,,,,,,,,,,,,,,,,,,,,,,,,,,,,,,,,,,,,,,,,,,,,,,,,,,,,,,,,,,,,,,,,,,,,,,,,,,,,,,,,,,,,,,,,
,,,,,,6155e204cc071b306458dfff,62c53cd1ec0c00c709b91f2e,2022-07-06_09h42.23.365,Colour_Asymmetry_Pilot,2022.1.3,Win32,60.0240096,62c50e9c1127f2cd403a315f,0,102,102,141,1,threefour,,,,,,,,,,,,,,,,,,,,,,,,,,,,,,,,,,,,,,,,,,,,,,,,,,,,,,,,,,,,,,,,,,,,,,,,,,,,,,,,,,,,,,,,,,,,,,,,,,,,,,,,,,,,,,,,,,,,,,,,,,,,,,,,,,,,,,,,,,,,,,,,,,,,,,,,,,,,,
,,,,,,6155e204cc071b306458dfff,62c53cd1ec0c00c709b91f2e,2022-07-06_09h42.23.365,Colour_Asymmetry_Pilot,2022.1.3,Win32,60.0240096,62c50e9c1127f2cd403a315f,0,103,103,72,1,onetwo,,,,,,,,,,,,,,,,,,,,,,,,,,,,,,,,,,,,,,,,,,,,,,,,,,,,,,,,,,,,,,,,,,,,,,,,,,,,,,,,,,,,,,,,,,,,,,,,,,,,,,,,,,,,,,,,,,,,,,,,,,,,,,,,,,,,,,,,,,,,,,,,,,,,,,,,,,,,,
,,,,,,6155e204cc071b306458dfff,62c53cd1ec0c00c709b91f2e,2022-07-06_09h42.23.365,Colour_Asymmetry_Pilot,2022.1.3,Win32,60.0240096,62c50e9c1127f2cd403a315f,0,104,104,87,1,fourthree,,,,,,,,,,,,,,,,,,,,,,,,,,,,,,,,,,,,,,,,,,,,,,,,,,,,,,,,,,,,,,,,,,,,,,,,,,,,,,,,,,,,,,,,,,,,,,,,,,,,,,,,,,,,,,,,,,,,,,,,,,,,,,,,,,,,,,,,,,,,,,,,,,,,,,,,,,,,,
,,,,,,6155e204cc071b306458dfff,62c53cd1ec0c00c709b91f2e,2022-07-06_09h42.23.365,Colour_Asymmetry_Pilot,2022.1.3,Win32,60.0240096,62c50e9c1127f2cd403a315f,0,105,105,61,1,threefour,,,,,,,,,,,,,,,,,,,,,,,,,,,,,,,,,,,,,,,,,,,,,,,,,,,,,,,,,,,,,,,,,,,,,,,,,,,,,,,,,,,,,,,,,,,,,,,,,,,,,,,,,,,,,,,,,,,,,,,,,,,,,,,,,,,,,,,,,,,,,,,,,,,,,,,,,,,,,
,,,,,,6155e204cc071b306458dfff,62c53cd1ec0c00c709b91f2e,2022-07-06_09h42.23.365,Colour_Asymmetry_Pilot,2022.1.3,Win32,60.0240096,62c50e9c1127f2cd403a315f,0,106,106,111,1,fourthree,,,,,,,,,,,,,,,,,,,,,,,,,,,,,,,,,,,,,,,,,,,,,,,,,,,,,,,,,,,,,,,,,,,,,,,,,,,,,,,,,,,,,,,,,,,,,,,,,,,,,,,,,,,,,,,,,,,,,,,,,,,,,,,,,,,,,,,,,,,,,,,,,,,,,,,,,,,,,
,,,,,,6155e204cc071b306458dfff,62c53cd1ec0c00c709b91f2e,2022-07-06_09h42.23.365,Colour_Asymmetry_Pilot,2022.1.3,Win32,60.0240096,62c50e9c1127f2cd403a315f,0,107,107,77,1,threefour,,,,,,,,,,,,,,,,,,,,,,,,,,,,,,,,,,,,,,,,,,,,,,,,,,,,,,,,,,,,,,,,,,,,,,,,,,,,,,,,,,,,,,,,,,,,,,,,,,,,,,,,,,,,,,,,,,,,,,,,,,,,,,,,,,,,,,,,,,,,,,,,,,,,,,,,,,,,,
,,,,,,6155e204cc071b306458dfff,62c53cd1ec0c00c709b91f2e,2022-07-06_09h42.23.365,Colour_Asymmetry_Pilot,2022.1.3,Win32,60.0240096,62c50e9c1127f2cd403a315f,0,108,108,125,1,threefour,,,,,,,,,,,,,,,,,,,,,,,,,,,,,,,,,,,,,,,,,,,,,,,,,,,,,,,,,,,,,,,,,,,,,,,,,,,,,,,,,,,,,,,,,,,,,,,,,,,,,,,,,,,,,,,,,,,,,,,,,,,,,,,,,,,,,,,,,,,,,,,,,,,,,,,,,,,,,
,,,,,,6155e204cc071b306458dfff,62c53cd1ec0c00c709b91f2e,2022-07-06_09h42.23.365,Colour_Asymmetry_Pilot,2022.1.3,Win32,60.0240096,62c50e9c1127f2cd403a315f,0,109,109,160,1,onetwo,,,,,,,,,,,,,,,,,,,,,,,,,,,,,,,,,,,,,,,,,,,,,,,,,,,,,,,,,,,,,,,,,,,,,,,,,,,,,,,,,,,,,,,,,,,,,,,,,,,,,,,,,,,,,,,,,,,,,,,,,,,,,,,,,,,,,,,,,,,,,,,,,,,,,,,,,,,,,
,,,,,,6155e204cc071b306458dfff,62c53cd1ec0c00c709b91f2e,2022-07-06_09h42.23.365,Colour_Asymmetry_Pilot,2022.1.3,Win32,60.0240096,62c50e9c1127f2cd403a315f,0,110,110,122,1,twoone,,,,,,,,,,,,,,,,,,,,,,,,,,,,,,,,,,,,,,,,,,,,,,,,,,,,,,,,,,,,,,,,,,,,,,,,,,,,,,,,,,,,,,,,,,,,,,,,,,,,,,,,,,,,,,,,,,,,,,,,,,,,,,,,,,,,,,,,,,,,,,,,,,,,,,,,,,,,,
,,,,,,6155e204cc071b306458dfff,62c53cd1ec0c00c709b91f2e,2022-07-06_09h42.23.365,Colour_Asymmetry_Pilot,2022.1.3,Win32,60.0240096,62c50e9c1127f2cd403a315f,0,111,111,118,1,fourtwo,,,,,,,,,,,,,,,,,,,,,,,,,,,,,,,,,,,,,,,,,,,,,,,,,,,,,,,,,,,,,,,,,,,,,,,,,,,,,,,,,,,,,,,,,,,,,,,,,,,,,,,,,,,,,,,,,,,,,,,,,,,,,,,,,,,,,,,,,,,,,,,,,,,,,,,,,,,,,
,,,,,,6155e204cc071b306458dfff,62c53cd1ec0c00c709b91f2e,2022-07-06_09h42.23.365,Colour_Asymmetry_Pilot,2022.1.3,Win32,60.0240096,62c50e9c1127f2cd403a315f,0,112,112,121,1,onethree,,,,,,,,,,,,,,,,,,,,,,,,,,,,,,,,,,,,,,,,,,,,,,,,,,,,,,,,,,,,,,,,,,,,,,,,,,,,,,,,,,,,,,,,,,,,,,,,,,,,,,,,,,,,,,,,,,,,,,,,,,,,,,,,,,,,,,,,,,,,,,,,,,,,,,,,,,,,,
,,,,,,6155e204cc071b306458dfff,62c53cd1ec0c00c709b91f2e,2022-07-06_09h42.23.365,Colour_Asymmetry_Pilot,2022.1.3,Win32,60.0240096,62c50e9c1127f2cd403a315f,0,113,113,36,1,threeone,,,,,,,,,,,,,,,,,,,,,,,,,,,,,,,,,,,,,,,,,,,,,,,,,,,,,,,,,,,,,,,,,,,,,,,,,,,,,,,,,,,,,,,,,,,,,,,,,,,,,,,,,,,,,,,,,,,,,,,,,,,,,,,,,,,,,,,,,,,,,,,,,,,,,,,,,,,,,
,,,,,,6155e204cc071b306458dfff,62c53cd1ec0c00c709b91f2e,2022-07-06_09h42.23.365,Colour_Asymmetry_Pilot,2022.1.3,Win32,60.0240096,62c50e9c1127f2cd403a315f,0,114,114,82,1,twoone,,,,,,,,,,,,,,,,,,,,,,,,,,,,,,,,,,,,,,,,,,,,,,,,,,,,,,,,,,,,,,,,,,,,,,,,,,,,,,,,,,,,,,,,,,,,,,,,,,,,,,,,,,,,,,,,,,,,,,,,,,,,,,,,,,,,,,,,,,,,,,,,,,,,,,,,,,,,,
,,,,,,6155e204cc071b306458dfff,62c53cd1ec0c00c709b91f2e,2022-07-06_09h42.23.365,Colour_Asymmetry_Pilot,2022.1.3,Win32,60.0240096,62c50e9c1127f2cd403a315f,0,115,115,54,1,fourtwo,,,,,,,,,,,,,,,,,,,,,,,,,,,,,,,,,,,,,,,,,,,,,,,,,,,,,,,,,,,,,,,,,,,,,,,,,,,,,,,,,,,,,,,,,,,,,,,,,,,,,,,,,,,,,,,,,,,,,,,,,,,,,,,,,,,,,,,,,,,,,,,,,,,,,,,,,,,,,
,,,,,,6155e204cc071b306458dfff,62c53cd1ec0c00c709b91f2e,2022-07-06_09h42.23.365,Colour_Asymmetry_Pilot,2022.1.3,Win32,60.0240096,62c50e9c1127f2cd403a315f,0,116,116,133,1,threefour,,,,,,,,,,,,,,,,,,,,,,,,,,,,,,,,,,,,,,,,,,,,,,,,,,,,,,,,,,,,,,,,,,,,,,,,,,,,,,,,,,,,,,,,,,,,,,,,,,,,,,,,,,,,,,,,,,,,,,,,,,,,,,,,,,,,,,,,,,,,,,,,,,,,,,,,,,,,,
,,,,,,6155e204cc071b306458dfff,62c53cd1ec0c00c709b91f2e,2022-07-06_09h42.23.365,Colour_Asymmetry_Pilot,2022.1.3,Win32,60.0240096,62c50e9c1127f2cd403a315f,0,117,117,114,1,twoone,,,,,,,,,,,,,,,,,,,,,,,,,,,,,,,,,,,,,,,,,,,,,,,,,,,,,,,,,,,,,,,,,,,,,,,,,,,,,,,,,,,,,,,,,,,,,,,,,,,,,,,,,,,,,,,,,,,,,,,,,,,,,,,,,,,,,,,,,,,,,,,,,,,,,,,,,,,,,
,,,,,,6155e204cc071b306458dfff,62c53cd1ec0c00c709b91f2e,2022-07-06_09h42.23.365,Colour_Asymmetry_Pilot,2022.1.3,Win32,60.0240096,62c50e9c1127f2cd403a315f,0,118,118,38,1,fourtwo,,,,,,,,,,,,,,,,,,,,,,,,,,,,,,,,,,,,,,,,,,,,,,,,,,,,,,,,,,,,,,,,,,,,,,,,,,,,,,,,,,,,,,,,,,,,,,,,,,,,,,,,,,,,,,,,,,,,,,,,,,,,,,,,,,,,,,,,,,,,,,,,,,,,,,,,,,,,,
,,,,,,6155e204cc071b306458dfff,62c53cd1ec0c00c709b91f2e,2022-07-06_09h42.23.365,Colour_Asymmetry_Pilot,2022.1.3,Win32,60.0240096,62c50e9c1127f2cd403a315f,0,119,119,10,1,twoone,,,,,,,,,,,,,,,,,,,,,,,,,,,,,,,,,,,,,,,,,,,,,,,,,,,,,,,,,,,,,,,,,,,,,,,,,,,,,,,,,,,,,,,,,,,,,,,,,,,,,,,,,,,,,,,,,,,,,,,,,,,,,,,,,,,,,,,,,,,,,,,,,,,,,,,,,,,,,
,,,,,,6155e204cc071b306458dfff,62c53cd1ec0c00c709b91f2e,2022-07-06_09h42.23.365,Colour_Asymmetry_Pilot,2022.1.3,Win32,60.0240096,62c50e9c1127f2cd403a315f,0,120,120,51,1,twofour,,,,,,,,,,,,,,,,,,,,,,,,,,,,,,,,,,,,,,,,,,,,,,,,,,,,,,,,,,,,,,,,,,,,,,,,,,,,,,,,,,,,,,,,,,,,,,,,,,,,,,,,,,,,,,,,,,,,,,,,,,,,,,,,,,,,,,,,,,,,,,,,,,,,,,,,,,,,,
,,,,,,6155e204cc071b306458dfff,62c53cd1ec0c00c709b91f2e,2022-07-06_09h42.23.365,Colour_Asymmetry_Pilot,2022.1.3,Win32,60.0240096,62c50e9c1127f2cd403a315f,0,121,121,97,1,onethree,,,,,,,,,,,,,,,,,,,,,,,,,,,,,,,,,,,,,,,,,,,,,,,,,,,,,,,,,,,,,,,,,,,,,,,,,,,,,,,,,,,,,,,,,,,,,,,,,,,,,,,,,,,,,,,,,,,,,,,,,,,,,,,,,,,,,,,,,,,,,,,,,,,,,,,,,,,,,
,,,,,,6155e204cc071b306458dfff,62c53cd1ec0c00c709b91f2e,2022-07-06_09h42.23.365,Colour_Asymmetry_Pilot,2022.1.3,Win32,60.0240096,62c50e9c1127f2cd403a315f,0,122,122,83,1,twofour,,,,,,,,,,,,,,,,,,,,,,,,,,,,,,,,,,,,,,,,,,,,,,,,,,,,,,,,,,,,,,,,,,,,,,,,,,,,,,,,,,,,,,,,,,,,,,,,,,,,,,,,,,,,,,,,,,,,,,,,,,,,,,,,,,,,,,,,,,,,,,,,,,,,,,,,,,,,,
,,,,,,6155e204cc071b306458dfff,62c53cd1ec0c00c709b91f2e,2022-07-06_09h42.23.365,Colour_Asymmetry_Pilot,2022.1.3,Win32,60.0240096,62c50e9c1127f2cd403a315f,0,123,123,74,1,twoone,,,,,,,,,,,,,,,,,,,,,,,,,,,,,,,,,,,,,,,,,,,,,,,,,,,,,,,,,,,,,,,,,,,,,,,,,,,,,,,,,,,,,,,,,,,,,,,,,,,,,,,,,,,,,,,,,,,,,,,,,,,,,,,,,,,,,,,,,,,,,,,,,,,,,,,,,,,,,
,,,,,,6155e204cc071b306458dfff,62c53cd1ec0c00c709b91f2e,2022-07-06_09h42.23.365,Colour_Asymmetry_Pilot,2022.1.3,Win32,60.0240096,62c50e9c1127f2cd403a315f,0,124,124,123,1,twofour,,,,,,,,,,,,,,,,,,,,,,,,,,,,,,,,,,,,,,,,,,,,,,,,,,,,,,,,,,,,,,,,,,,,,,,,,,,,,,,,,,,,,,,,,,,,,,,,,,,,,,,,,,,,,,,,,,,,,,,,,,,,,,,,,,,,,,,,,,,,,,,,,,,,,,,,,,,,,
,,,,,,6155e204cc071b306458dfff,62c53cd1ec0c00c709b91f2e,2022-07-06_09h42.23.365,Colour_Asymmetry_Pilot,2022.1.3,Win32,60.0240096,62c50e9c1127f2cd403a315f,0,125,125,104,1,onetwo,,,,,,,,,,,,,,,,,,,,,,,,,,,,,,,,,,,,,,,,,,,,,,,,,,,,,,,,,,,,,,,,,,,,,,,,,,,,,,,,,,,,,,,,,,,,,,,,,,,,,,,,,,,,,,,,,,,,,,,,,,,,,,,,,,,,,,,,,,,,,,,,,,,,,,,,,,,,,
,,,,,,6155e204cc071b306458dfff,62c53cd1ec0c00c709b91f2e,2022-07-06_09h42.23.365,Colour_Asymmetry_Pilot,2022.1.3,Win32,60.0240096,62c50e9c1127f2cd403a315f,0,126,126,101,1,threefour,,,,,,,,,,,,,,,,,,,,,,,,,,,,,,,,,,,,,,,,,,,,,,,,,,,,,,,,,,,,,,,,,,,,,,,,,,,,,,,,,,,,,,,,,,,,,,,,,,,,,,,,,,,,,,,,,,,,,,,,,,,,,,,,,,,,,,,,,,,,,,,,,,,,,,,,,,,,,
,,,,,,6155e204cc071b306458dfff,62c53cd1ec0c00c709b91f2e,2022-07-06_09h42.23.365,Colour_Asymmetry_Pilot,2022.1.3,Win32,60.0240096,62c50e9c1127f2cd403a315f,0,127,127,43,1,twofour,,,,,,,,,,,,,,,,,,,,,,,,,,,,,,,,,,,,,,,,,,,,,,,,,,,,,,,,,,,,,,,,,,,,,,,,,,,,,,,,,,,,,,,,,,,,,,,,,,,,,,,,,,,,,,,,,,,,,,,,,,,,,,,,,,,,,,,,,,,,,,,,,,,,,,,,,,,,,
,,,,,,6155e204cc071b306458dfff,62c53cd1ec0c00c709b91f2e,2022-07-06_09h42.23.365,Colour_Asymmetry_Pilot,2022.1.3,Win32,60.0240096,62c50e9c1127f2cd403a315f,0,128,128,41,1,onethree,,,,,,,,,,,,,,,,,,,,,,,,,,,,,,,,,,,,,,,,,,,,,,,,,,,,,,,,,,,,,,,,,,,,,,,,,,,,,,,,,,,,,,,,,,,,,,,,,,,,,,,,,,,,,,,,,,,,,,,,,,,,,,,,,,,,,,,,,,,,,,,,,,,,,,,,,,,,,
,,,,,,6155e204cc071b306458dfff,62c53cd1ec0c00c709b91f2e,2022-07-06_09h42.23.365,Colour_Asymmetry_Pilot,2022.1.3,Win32,60.0240096,62c50e9c1127f2cd403a315f,0,129,129,47,1,fourthree,,,,,,,,,,,,,,,,,,,,,,,,,,,,,,,,,,,,,,,,,,,,,,,,,,,,,,,,,,,,,,,,,,,,,,,,,,,,,,,,,,,,,,,,,,,,,,,,,,,,,,,,,,,,,,,,,,,,,,,,,,,,,,,,,,,,,,,,,,,,,,,,,,,,,,,,,,,,,
,,,,,,6155e204cc071b306458dfff,62c53cd1ec0c00c709b91f2e,2022-07-06_09h42.23.365,Colour_Asymmetry_Pilot,2022.1.3,Win32,60.0240096,62c50e9c1127f2cd403a315f,0,130,130,138,1,twoone,,,,,,,,,,,,,,,,,,,,,,,,,,,,,,,,,,,,,,,,,,,,,,,,,,,,,,,,,,,,,,,,,,,,,,,,,,,,,,,,,,,,,,,,,,,,,,,,,,,,,,,,,,,,,,,,,,,,,,,,,,,,,,,,,,,,,,,,,,,,,,,,,,,,,,,,,,,,,
,,,,,,6155e204cc071b306458dfff,62c53cd1ec0c00c709b91f2e,2022-07-06_09h42.23.365,Colour_Asymmetry_Pilot,2022.1.3,Win32,60.0240096,62c50e9c1127f2cd403a315f,0,131,131,155,1,twofour,,,,,,,,,,,,,,,,,,,,,,,,,,,,,,,,,,,,,,,,,,,,,,,,,,,,,,,,,,,,,,,,,,,,,,,,,,,,,,,,,,,,,,,,,,,,,,,,,,,,,,,,,,,,,,,,,,,,,,,,,,,,,,,,,,,,,,,,,,,,,,,,,,,,,,,,,,,,,
,,,,,,6155e204cc071b306458dfff,62c53cd1ec0c00c709b91f2e,2022-07-06_09h42.23.365,Colour_Asymmetry_Pilot,2022.1.3,Win32,60.0240096,62c50e9c1127f2cd403a315f,0,132,132,117,1,threefour,,,,,,,,,,,,,,,,,,,,,,,,,,,,,,,,,,,,,,,,,,,,,,,,,,,,,,,,,,,,,,,,,,,,,,,,,,,,,,,,,,,,,,,,,,,,,,,,,,,,,,,,,,,,,,,,,,,,,,,,,,,,,,,,,,,,,,,,,,,,,,,,,,,,,,,,,,,,,
,,,,,,6155e204cc071b306458dfff,62c53cd1ec0c00c709b91f2e,2022-07-06_09h42.23.365,Colour_Asymmetry_Pilot,2022.1.3,Win32,60.0240096,62c50e9c1127f2cd403a315f,0,133,133,29,1,threefour,,,,,,,,,,,,,,,,,,,,,,,,,,,,,,,,,,,,,,,,,,,,,,,,,,,,,,,,,,,,,,,,,,,,,,,,,,,,,,,,,,,,,,,,,,,,,,,,,,,,,,,,,,,,,,,,,,,,,,,,,,,,,,,,,,,,,,,,,,,,,,,,,,,,,,,,,,,,,
,,,,,,6155e204cc071b306458dfff,62c53cd1ec0c00c709b91f2e,2022-07-06_09h42.23.365,Colour_Asymmetry_Pilot,2022.1.3,Win32,60.0240096,62c50e9c1127f2cd403a315f,0,134,134,140,1,threeone,,,,,,,,,,,,,,,,,,,,,,,,,,,,,,,,,,,,,,,,,,,,,,,,,,,,,,,,,,,,,,,,,,,,,,,,,,,,,,,,,,,,,,,,,,,,,,,,,,,,,,,,,,,,,,,,,,,,,,,,,,,,,,,,,,,,,,,,,,,,,,,,,,,,,,,,,,,,,
,,,,,,6155e204cc071b306458dfff,62c53cd1ec0c00c709b91f2e,2022-07-06_09h42.23.365,Colour_Asymmetry_Pilot,2022.1.3,Win32,60.0240096,62c50e9c1127f2cd403a315f,0,135,135,120,1,onetwo,,,,,,,,,,,,,,,,,,,,,,,,,,,,,,,,,,,,,,,,,,,,,,,,,,,,,,,,,,,,,,,,,,,,,,,,,,,,,,,,,,,,,,,,,,,,,,,,,,,,,,,,,,,,,,,,,,,,,,,,,,,,,,,,,,,,,,,,,,,,,,,,,,,,,,,,,,,,,
,,,,,,6155e204cc071b306458dfff,62c53cd1ec0c00c709b91f2e,2022-07-06_09h42.23.365,Colour_Asymmetry_Pilot,2022.1.3,Win32,60.0240096,62c50e9c1127f2cd403a315f,0,136,136,64,1,onetwo,,,,,,,,,,,,,,,,,,,,,,,,,,,,,,,,,,,,,,,,,,,,,,,,,,,,,,,,,,,,,,,,,,,,,,,,,,,,,,,,,,,,,,,,,,,,,,,,,,,,,,,,,,,,,,,,,,,,,,,,,,,,,,,,,,,,,,,,,,,,,,,,,,,,,,,,,,,,,
,,,,,,6155e204cc071b306458dfff,62c53cd1ec0c00c709b91f2e,2022-07-06_09h42.23.365,Colour_Asymmetry_Pilot,2022.1.3,Win32,60.0240096,62c50e9c1127f2cd403a315f,0,137,137,13,1,threefour,,,,,,,,,,,,,,,,,,,,,,,,,,,,,,,,,,,,,,,,,,,,,,,,,,,,,,,,,,,,,,,,,,,,,,,,,,,,,,,,,,,,,,,,,,,,,,,,,,,,,,,,,,,,,,,,,,,,,,,,,,,,,,,,,,,,,,,,,,,,,,,,,,,,,,,,,,,,,
,,,,,,6155e204cc071b306458dfff,62c53cd1ec0c00c709b91f2e,2022-07-06_09h42.23.365,Colour_Asymmetry_Pilot,2022.1.3,Win32,60.0240096,62c50e9c1127f2cd403a315f,0,138,138,88,1,onetwo,,,,,,,,,,,,,,,,,,,,,,,,,,,,,,,,,,,,,,,,,,,,,,,,,,,,,,,,,,,,,,,,,,,,,,,,,,,,,,,,,,,,,,,,,,,,,,,,,,,,,,,,,,,,,,,,,,,,,,,,,,,,,,,,,,,,,,,,,,,,,,,,,,,,,,,,,,,,,
,,,,,,6155e204cc071b306458dfff,62c53cd1ec0c00c709b91f2e,2022-07-06_09h42.23.365,Colour_Asymmetry_Pilot,2022.1.3,Win32,60.0240096,62c50e9c1127f2cd403a315f,0,139,139,14,1,fourtwo,,,,,,,,,,,,,,,,,,,,,,,,,,,,,,,,,,,,,,,,,,,,,,,,,,,,,,,,,,,,,,,,,,,,,,,,,,,,,,,,,,,,,,,,,,,,,,,,,,,,,,,,,,,,,,,,,,,,,,,,,,,,,,,,,,,,,,,,,,,,,,,,,,,,,,,,,,,,,
,,,,,,6155e204cc071b306458dfff,62c53cd1ec0c00c709b91f2e,2022-07-06_09h42.23.365,Colour_Asymmetry_Pilot,2022.1.3,Win32,60.0240096,62c50e9c1127f2cd403a315f,0,140,140,48,1,onetwo,,,,,,,,,,,,,,,,,,,,,,,,,,,,,,,,,,,,,,,,,,,,,,,,,,,,,,,,,,,,,,,,,,,,,,,,,,,,,,,,,,,,,,,,,,,,,,,,,,,,,,,,,,,,,,,,,,,,,,,,,,,,,,,,,,,,,,,,,,,,,,,,,,,,,,,,,,,,,
,,,,,,6155e204cc071b306458dfff,62c53cd1ec0c00c709b91f2e,2022-07-06_09h42.23.365,Colour_Asymmetry_Pilot,2022.1.3,Win32,60.0240096,62c50e9c1127f2cd403a315f,0,141,141,112,1,onetwo,,,,,,,,,,,,,,,,,,,,,,,,,,,,,,,,,,,,,,,,,,,,,,,,,,,,,,,,,,,,,,,,,,,,,,,,,,,,,,,,,,,,,,,,,,,,,,,,,,,,,,,,,,,,,,,,,,,,,,,,,,,,,,,,,,,,,,,,,,,,,,,,,,,,,,,,,,,,,
,,,,,,6155e204cc071b306458dfff,62c53cd1ec0c00c709b91f2e,2022-07-06_09h42.23.365,Colour_Asymmetry_Pilot,2022.1.3,Win32,60.0240096,62c50e9c1127f2cd403a315f,0,142,142,124,1,threeone,,,,,,,,,,,,,,,,,,,,,,,,,,,,,,,,,,,,,,,,,,,,,,,,,,,,,,,,,,,,,,,,,,,,,,,,,,,,,,,,,,,,,,,,,,,,,,,,,,,,,,,,,,,,,,,,,,,,,,,,,,,,,,,,,,,,,,,,,,,,,,,,,,,,,,,,,,,,,
,,,,,,6155e204cc071b306458dfff,62c53cd1ec0c00c709b91f2e,2022-07-06_09h42.23.365,Colour_Asymmetry_Pilot,2022.1.3,Win32,60.0240096,62c50e9c1127f2cd403a315f,0,143,143,113,1,onethree,,,,,,,,,,,,,,,,,,,,,,,,,,,,,,,,,,,,,,,,,,,,,,,,,,,,,,,,,,,,,,,,,,,,,,,,,,,,,,,,,,,,,,,,,,,,,,,,,,,,,,,,,,,,,,,,,,,,,,,,,,,,,,,,,,,,,,,,,,,,,,,,,,,,,,,,,,,,,
,,,,,,6155e204cc071b306458dfff,62c53cd1ec0c00c709b91f2e,2022-07-06_09h42.23.365,Colour_Asymmetry_Pilot,2022.1.3,Win32,60.0240096,62c50e9c1127f2cd403a315f,0,144,144,89,1,onethree,,,,,,,,,,,,,,,,,,,,,,,,,,,,,,,,,,,,,,,,,,,,,,,,,,,,,,,,,,,,,,,,,,,,,,,,,,,,,,,,,,,,,,,,,,,,,,,,,,,,,,,,,,,,,,,,,,,,,,,,,,,,,,,,,,,,,,,,,,,,,,,,,,,,,,,,,,,,,
,,,,,,6155e204cc071b306458dfff,62c53cd1ec0c00c709b91f2e,2022-07-06_09h42.23.365,Colour_Asymmetry_Pilot,2022.1.3,Win32,60.0240096,62c50e9c1127f2cd403a315f,0,145,145,25,1,onethree,,,,,,,,,,,,,,,,,,,,,,,,,,,,,,,,,,,,,,,,,,,,,,,,,,,,,,,,,,,,,,,,,,,,,,,,,,,,,,,,,,,,,,,,,,,,,,,,,,,,,,,,,,,,,,,,,,,,,,,,,,,,,,,,,,,,,,,,,,,,,,,,,,,,,,,,,,,,,
,,,,,,6155e204cc071b306458dfff,62c53cd1ec0c00c709b91f2e,2022-07-06_09h42.23.365,Colour_Asymmetry_Pilot,2022.1.3,Win32,60.0240096,62c50e9c1127f2cd403a315f,0,146,146,137,1,onethree,,,,,,,,,,,,,,,,,,,,,,,,,,,,,,,,,,,,,,,,,,,,,,,,,,,,,,,,,,,,,,,,,,,,,,,,,,,,,,,,,,,,,,,,,,,,,,,,,,,,,,,,,,,,,,,,,,,,,,,,,,,,,,,,,,,,,,,,,,,,,,,,,,,,,,,,,,,,,
,,,,,,6155e204cc071b306458dfff,62c53cd1ec0c00c709b91f2e,2022-07-06_09h42.23.365,Colour_Asymmetry_Pilot,2022.1.3,Win32,60.0240096,62c50e9c1127f2cd403a315f,0,147,147,44,1,threeone,,,,,,,,,,,,,,,,,,,,,,,,,,,,,,,,,,,,,,,,,,,,,,,,,,,,,,,,,,,,,,,,,,,,,,,,,,,,,,,,,,,,,,,,,,,,,,,,,,,,,,,,,,,,,,,,,,,,,,,,,,,,,,,,,,,,,,,,,,,,,,,,,,,,,,,,,,,,,
,,,,,,6155e204cc071b306458dfff,62c53cd1ec0c00c709b91f2e,2022-07-06_09h42.23.365,Colour_Asymmetry_Pilot,2022.1.3,Win32,60.0240096,62c50e9c1127f2cd403a315f,0,148,148,63,1,fourthree,,,,,,,,,,,,,,,,,,,,,,,,,,,,,,,,,,,,,,,,,,,,,,,,,,,,,,,,,,,,,,,,,,,,,,,,,,,,,,,,,,,,,,,,,,,,,,,,,,,,,,,,,,,,,,,,,,,,,,,,,,,,,,,,,,,,,,,,,,,,,,,,,,,,,,,,,,,,,
,,,,,,6155e204cc071b306458dfff,62c53cd1ec0c00c709b91f2e,2022-07-06_09h42.23.365,Colour_Asymmetry_Pilot,2022.1.3,Win32,60.0240096,62c50e9c1127f2cd403a315f,0,149,149,85,1,threefour,,,,,,,,,,,,,,,,,,,,,,,,,,,,,,,,,,,,,,,,,,,,,,,,,,,,,,,,,,,,,,,,,,,,,,,,,,,,,,,,,,,,,,,,,,,,,,,,,,,,,,,,,,,,,,,,,,,,,,,,,,,,,,,,,,,,,,,,,,,,,,,,,,,,,,,,,,,,,
,,,,,,6155e204cc071b306458dfff,62c53cd1ec0c00c709b91f2e,2022-07-06_09h42.23.365,Colour_Asymmetry_Pilot,2022.1.3,Win32,60.0240096,62c50e9c1127f2cd403a315f,0,150,150,35,1,twofour,,,,,,,,,,,,,,,,,,,,,,,,,,,,,,,,,,,,,,,,,,,,,,,,,,,,,,,,,,,,,,,,,,,,,,,,,,,,,,,,,,,,,,,,,,,,,,,,,,,,,,,,,,,,,,,,,,,,,,,,,,,,,,,,,,,,,,,,,,,,,,,,,,,,,,,,,,,,,
,,,,,,6155e204cc071b306458dfff,62c53cd1ec0c00c709b91f2e,2022-07-06_09h42.23.365,Colour_Asymmetry_Pilot,2022.1.3,Win32,60.0240096,62c50e9c1127f2cd403a315f,0,151,151,16,1,onetwo,,,,,,,,,,,,,,,,,,,,,,,,,,,,,,,,,,,,,,,,,,,,,,,,,,,,,,,,,,,,,,,,,,,,,,,,,,,,,,,,,,,,,,,,,,,,,,,,,,,,,,,,,,,,,,,,,,,,,,,,,,,,,,,,,,,,,,,,,,,,,,,,,,,,,,,,,,,,,
,,,,,,6155e204cc071b306458dfff,62c53cd1ec0c00c709b91f2e,2022-07-06_09h42.23.365,Colour_Asymmetry_Pilot,2022.1.3,Win32,60.0240096,62c50e9c1127f2cd403a315f,0,152,152,109,1,threefour,,,,,,,,,,,,,,,,,,,,,,,,,,,,,,,,,,,,,,,,,,,,,,,,,,,,,,,,,,,,,,,,,,,,,,,,,,,,,,,,,,,,,,,,,,,,,,,,,,,,,,,,,,,,,,,,,,,,,,,,,,,,,,,,,,,,,,,,,,,,,,,,,,,,,,,,,,,,,
,,,,,,6155e204cc071b306458dfff,62c53cd1ec0c00c709b91f2e,2022-07-06_09h42.23.365,Colour_Asymmetry_Pilot,2022.1.3,Win32,60.0240096,62c50e9c1127f2cd403a315f,0,153,153,81,1,onethree,,,,,,,,,,,,,,,,,,,,,,,,,,,,,,,,,,,,,,,,,,,,,,,,,,,,,,,,,,,,,,,,,,,,,,,,,,,,,,,,,,,,,,,,,,,,,,,,,,,,,,,,,,,,,,,,,,,,,,,,,,,,,,,,,,,,,,,,,,,,,,,,,,,,,,,,,,,,,
,,,,,,6155e204cc071b306458dfff,62c53cd1ec0c00c709b91f2e,2022-07-06_09h42.23.365,Colour_Asymmetry_Pilot,2022.1.3,Win32,60.0240096,62c50e9c1127f2cd403a315f,0,154,154,145,1,onethree,,,,,,,,,,,,,,,,,,,,,,,,,,,,,,,,,,,,,,,,,,,,,,,,,,,,,,,,,,,,,,,,,,,,,,,,,,,,,,,,,,,,,,,,,,,,,,,,,,,,,,,,,,,,,,,,,,,,,,,,,,,,,,,,,,,,,,,,,,,,,,,,,,,,,,,,,,,,,
,,,,,,6155e204cc071b306458dfff,62c53cd1ec0c00c709b91f2e,2022-07-06_09h42.23.365,Colour_Asymmetry_Pilot,2022.1.3,Win32,60.0240096,62c50e9c1127f2cd403a315f,0,155,155,30,1,fourtwo,,,,,,,,,,,,,,,,,,,,,,,,,,,,,,,,,,,,,,,,,,,,,,,,,,,,,,,,,,,,,,,,,,,,,,,,,,,,,,,,,,,,,,,,,,,,,,,,,,,,,,,,,,,,,,,,,,,,,,,,,,,,,,,,,,,,,,,,,,,,,,,,,,,,,,,,,,,,,
,,,,,,6155e204cc071b306458dfff,62c53cd1ec0c00c709b91f2e,2022-07-06_09h42.23.365,Colour_Asymmetry_Pilot,2022.1.3,Win32,60.0240096,62c50e9c1127f2cd403a315f,0,156,156,28,1,threeone,,,,,,,,,,,,,,,,,,,,,,,,,,,,,,,,,,,,,,,,,,,,,,,,,,,,,,,,,,,,,,,,,,,,,,,,,,,,,,,,,,,,,,,,,,,,,,,,,,,,,,,,,,,,,,,,,,,,,,,,,,,,,,,,,,,,,,,,,,,,,,,,,,,,,,,,,,,,,
,,,,,,6155e204cc071b306458dfff,62c53cd1ec0c00c709b91f2e,2022-07-06_09h42.23.365,Colour_Asymmetry_Pilot,2022.1.3,Win32,60.0240096,62c50e9c1127f2cd403a315f,0,157,157,110,1,fourtwo,,,,,,,,,,,,,,,,,,,,,,,,,,,,,,,,,,,,,,,,,,,,,,,,,,,,,,,,,,,,,,,,,,,,,,,,,,,,,,,,,,,,,,,,,,,,,,,,,,,,,,,,,,,,,,,,,,,,,,,,,,,,,,,,,,,,,,,,,,,,,,,,,,,,,,,,,,,,,
,,,,,,6155e204cc071b306458dfff,62c53cd1ec0c00c709b91f2e,2022-07-06_09h42.23.365,Colour_Asymmetry_Pilot,2022.1.3,Win32,60.0240096,62c50e9c1127f2cd403a315f,0,158,158,37,1,threefour,,,,,,,,,,,,,,,,,,,,,,,,,,,,,,,,,,,,,,,,,,,,,,,,,,,,,,,,,,,,,,,,,,,,,,,,,,,,,,,,,,,,,,,,,,,,,,,,,,,,,,,,,,,,,,,,,,,,,,,,,,,,,,,,,,,,,,,,,,,,,,,,,,,,,,,,,,,,,
,,,,,,6155e204cc071b306458dfff,62c53cd1ec0c00c709b91f2e,2022-07-06_09h42.23.365,Colour_Asymmetry_Pilot,2022.1.3,Win32,60.0240096,62c50e9c1127f2cd403a315f,0,159,159,94,1,fourtwo,,,,,,,,,,,,,,,,,,,,,,,,,,,,,,,,,,,,,,,,,,,,,,,,,,,,,,,,,,,,,,,,,,,,,,,,,,,,,,,,,,,,,,,,,,,,,,,,,,,,,,,,,,,,,,,,,,,,,,,,,,,,,,,,,,,,,,,,,,,,,,,,,,,,,,,,,,,,,
,,,,,,6155e204cc071b306458dfff,62c53cd1ec0c00c709b91f2e,2022-07-06_09h42.23.365,Colour_Asymmetry_Pilot,2022.1.3,Win32,60.0240096,62c50e9c1127f2cd403a315f,0,160,160,39,1,fourthree,,,,,,,,,,,,,,,,,,,,,,,,,,,,,,,,,,,,,,,,,,,,,,,,,,,,,,,,,,,,,,,,,,,,,,,,,,,,,,,,,,,,,,,,,,,,,,,,,,,,,,,,,,,,,,,,,,,,,,,,,,,,,,,,,,,,,,,,,,,,,,,,,,,,,,,,,,,,,
,,,,,,6155e204cc071b306458dfff,62c53cd1ec0c00c709b91f2e,2022-07-06_09h42.23.365,Colour_Asymmetry_Pilot,2022.1.3,Win32,60.0240096,62c50e9c1127f2cd403a315f,0,161,161,156,1,threeone,,,,,,,,,,,,,,,,,,,,,,,,,,,,,,,,,,,,,,,,,,,,,,,,,,,,,,,,,,,,,,,,,,,,,,,,,,,,,,,,,,,,,,,,,,,,,,,,,,,,,,,,,,,,,,,,,,,,,,,,,,,,,,,,,,,,,,,,,,,,,,,,,,,,,,,,,,,,,
,,,,,,6155e204cc071b306458dfff,62c53cd1ec0c00c709b91f2e,2022-07-06_09h42.23.365,Colour_Asymmetry_Pilot,2022.1.3,Win32,60.0240096,62c50e9c1127f2cd403a315f,,,,,,,space,1.487,space,21.654,space,59.037,space,13,space,2.933,space,2.221,"[-0.6942,-0.7648,-0.12959999999999994]",threeone,"[-0.10599999999999998,-0.15300000000000002,0.15280000000000005]",2,5.901,116,-73,1,0,0,response3disk_5,0,3,1,0,0,rectangle_8,0,3,1,0,0,4,0,3,1,0,0,0,0,0,0,1,,,,,,,,,,,,,,,,,,,,,,,,,,,,,,,,,,,,,,,,,,,,,,,,,,,,,,,,,,,,,,,,,,,,,,,,,,,,,,,,,,,,,,,,,,,,,,,,,,,,,,,,,,,,,,,,
,,,,,,6155e204cc071b306458dfff,62c53cd1ec0c00c709b91f2e,2022-07-06_09h42.23.365,Colour_Asymmetry_Pilot,2022.1.3,Win32,60.0240096,62c50e9c1127f2cd403a315f,,,,,,,,,,,,,,,,,,,"[0.37240000000000006,-0.050999999999999934,-0.5216]",fourthree,"[-0.9138,-0.5296000000000001,-0.5529999999999999]",-4,1.699,-46,119,1,0,0,response7disk_5,-13,8,1,0,0,rectangle_8,-13,8,1,0,0,4,-13,8,1,0,0,1,0,1,0,1,,,,,,,,,,,,,,,,,,,,,,,,,,,,,,,,,,,,,,,,,,,,,,,,,,,,,,,,,,,,,,,,,,,,,,,,,,,,,,,,,,,,,,,,,,,,,,,,,,,,,,,,,,,,,,,,
,,,,,,6155e204cc071b306458dfff,62c53cd1ec0c00c709b91f2e,2022-07-06_09h42.23.365,Colour_Asymmetry_Pilot,2022.1.3,Win32,60.0240096,62c50e9c1127f2cd403a315f,,,,,,,,,,,,,,,,,,,"[-0.011800000000000033,-0.906,-0.45100000000000007]",threeone,"[0.9372,0.9450000000000001,0.8980000000000001]",-4,0.85,-61,128,1,0,0,response7disk_5,-12,-1,1,0,0,rectangle_8,60,142,1,0,0,4,1,2,1,0,0,2,0,2,0,1,response1disk_7,7,rectangle_4,,,,,,,,,,,,,,,,,,,,,,,,,,,,,,,,,,,,,,,,,,,,,,,,,,,,,,,,,,,,,,,,,,,,,,,,,,,,,,,,,,,,,,,,,,,,,,,,,,,,,,,,,,,,,
,,,,,,6155e204cc071b306458dfff,62c53cd1ec0c00c709b91f2e,2022-07-06_09h42.23.365,Colour_Asymmetry_Pilot,2022.1.3,Win32,60.0240096,62c50e9c1127f2cd403a315f,,,,,,,,,,,,,,,,,,,"[-0.5688,-0.08239999999999992,-0.1844]",twoone,"[0.9686000000000001,0.3802000000000001,0.19999999999999996]",-4,0.802,-50,129,1,0,0,response7disk_5,-1,-2,1,0,0,rectangle_8,-1,-2,1,0,0,4,-1,-2,1,0,0,3,0,3,0,1,,,,,,,,,,,,,,,,,,,,,,,,,,,,,,,,,,,,,,,,,,,,,,,,,,,,,,,,,,,,,,,,,,,,,,,,,,,,,,,,,,,,,,,,,,,,,,,,,,,,,,,,,,,,,,,,
,,,,,,6155e204cc071b306458dfff,62c53cd1ec0c00c709b91f2e,2022-07-06_09h42.23.365,Colour_Asymmetry_Pilot,2022.1.3,Win32,60.0240096,62c50e9c1127f2cd403a315f,,,,,,,,,,,,,,,,,,,"[0.5528,0.7409999999999999,-0.71]",fourtwo,"[0.3568,-0.20799999999999996,-0.9844]",-1,2.351,-42,-83,1,0,0,response5disk_5,3,8,1,0,0,rectangle_8,62,126,1,0,0,4,-6,13,1,0,0,4,0,4,0,1,response1disk_7,7,rectangle_4,,,,,,,,,,,,,,,,,,,,,,,,,,,,,,,,,,,,,,,,,,,,,,,,,,,,,,,,,,,,,,,,,,,,,,,,,,,,,,,,,,,,,,,,,,,,,,,,,,,,,,,,,,,,,
,,,,,,6155e204cc071b306458dfff,62c53cd1ec0c00c709b91f2e,2022-07-06_09h42.23.365,Colour_Asymmetry_Pilot,2022.1.3,Win32,60.0240096,62c50e9c1127f2cd403a315f,,,,,,,,,,,,,,,,,,,"[-0.9216,-0.5529999999999999,-0.3962]",threefour,"[-0.06680000000000008,-0.45100000000000007,-0.906]",-4,0.766,-39,90,1,0,0,response7disk_5,2,1,1,0,0,rectangle_8,2,1,1,0,0,4,2,1,1,0,0,5,0,5,0,1,,,,,,,,,,,,,,,,,,,,,,,,,,,,,,,,,,,,,,,,,,,,,,,,,,,,,,,,,,,,,,,,,,,,,,,,,,,,,,,,,,,,,,,,,,,,,,,,,,,,,,,,,,,,,,,,
,,,,,,6155e204cc071b306458dfff,62c53cd1ec0c00c709b91f2e,2022-07-06_09h42.23.365,Colour_Asymmetry_Pilot,2022.1.3,Win32,60.0240096,62c50e9c1127f2cd403a315f,,,,,,,,,,,,,,,,,,,"[-0.8118,-0.8198,-0.5452]",twofour,"[0.2862,0.7802,0.3568]",-4,0.851,-54,81,1,0,0,response7disk_5,-7,-2,1,0,0,rectangle_8,-7,-2,1,0,0,4,-7,-2,1,0,0,6,0,6,0,1,,,,,,,,,,,,,,,,,,,,,,,,,,,,,,,,,,,,,,,,,,,,,,,,,,,,,,,,,,,,,,,,,,,,,,,,,,,,,,,,,,,,,,,,,,,,,,,,,,,,,,,,,,,,,,,,
,,,,,,6155e204cc071b306458dfff,62c53cd1ec0c00c709b91f2e,2022-07-06_09h42.23.365,Colour_Asymmetry_Pilot,2022.1.3,Win32,60.0240096,62c50e9c1127f2cd403a315f,,,,,,,,,,,,,,,,,,,,fourtwo,,-4,0.734,,,,,,,,,,,,,,,,,,,,,,,,,,,,,,,,space,2.772,"[-0.8982,-0.37259999999999993,0.2784]","[1,0.12939999999999996,-1]",-41,86,1,0,0,response7disk,-1,1,1,0,0,rectangle,-1,1,1,0,0,,3,0.002,0,-1,1,1,0,0,0,0,0,31,1,31,first,,,,,,,,,,,,,,,,,,,,,,,,,,,,,,,,,,,,,,,,,,,,,,,,,,,,,,,,,,,,,,,,,,,,,,,,
,,,,,,6155e204cc071b306458dfff,62c53cd1ec0c00c709b91f2e,2022-07-06_09h42.23.365,Colour_Asymmetry_Pilot,2022.1.3,Win32,60.0240096,62c50e9c1127f2cd403a315f,,,,,,,,,,,,,,,,,,,,fourtwo,,-2,1.101,,,,,,,,,,,,,,,,,,,,,,,,,,,,,,,,,,"[-0.4902000000000001,0.2704,-0.45899999999999996]","[-0.9688,-0.38039999999999996,-0.41979999999999995]",-92,-54,1,0,0,response5disk,-4,9,1,0,0,rectangle,-4,9,1,0,0,,3,0,0,-4,9,1,0,0,0,1,1,110,1,29,second,,,,,,,,,,,,,,,,,,,,,,,,,,,,,,,,,,,,,,,,,,,,,,,,,,,,,,,,,,,,,,,,,,,,,,,,
,,,,,,6155e204cc071b306458dfff,62c53cd1ec0c00c709b91f2e,2022-07-06_09h42.23.365,Colour_Asymmetry_Pilot,2022.1.3,Win32,60.0240096,62c50e9c1127f2cd403a315f,,,,,,,,,,,,,,,,,,,,twoone,,-1,0.867,,,,,,,,,,,,,,,,,,,,,,,,,,,,,,,,,,"[0.0351999999999999,0.41159999999999997,0.0038000000000000256]","[-0.17659999999999998,0.3253999999999999,0.19999999999999996]",-52,-123,1,0,0,response5disk,5,6,1,0,0,rectangle,5,6,1,0,0,,1,0.001,0,5,6,1,0,0,0,2,2,39,1,39,first,,,,,,,,,,,,,,,,,,,,,,,,,,,,,,,,,,,,,,,,,,,,,,,,,,,,,,,,,,,,,,,,,,,,,,,,
,,,,,,6155e204cc071b306458dfff,62c53cd1ec0c00c709b91f2e,2022-07-06_09h42.23.365,Colour_Asymmetry_Pilot,2022.1.3,Win32,60.0240096,62c50e9c1127f2cd403a315f,,,,,,,,,,,,,,,,,,,,onetwo,,-2,0.45,,,,,,,,,,,,,,,,,,,,,,,,,,,,,,,,,,"[0.9213999999999998,0.6391999999999998,-0.9922]","[0.3568,-0.20799999999999996,-0.9844]",-85,-47,1,0,0,response5disk,-3,-5,1,0,0,rectangle,-3,-5,1,0,0,,1,0,0,-3,-5,1,0,0,0,3,3,20,1,20,first,,,,,,,,,,,,,,,,,,,,,,,,,,,,,,,,,,,,,,,,,,,,,,,,,,,,,,,,,,,,,,,,,,,,,,,,
,,,,,,6155e204cc071b306458dfff,62c53cd1ec0c00c709b91f2e,2022-07-06_09h42.23.365,Colour_Asymmetry_Pilot,2022.1.3,Win32,60.0240096,62c50e9c1127f2cd403a315f,,,,,,,,,,,,,,,,,,,,fourtwo,,-4,0.45,,,,,,,,,,,,,,,,,,,,,,,,,,,,,,,,,,"[0.7646000000000002,0.07440000000000002,0.2704]","[-0.07459999999999989,0.12139999999999995,-0.9922]",-61,122,1,0,0,response7disk,0,4,1,0,0,rectangle,0,4,1,0,0,,2,0.001,0,0,4,1,0,0,0,4,4,14,1,14,first,,,,,,,,,,,,,,,,,,,,,,,,,,,,,,,,,,,,,,,,,,,,,,,,,,,,,,,,,,,,,,,,,,,,,,,,
,,,,,,6155e204cc071b306458dfff,62c53cd1ec0c00c709b91f2e,2022-07-06_09h42.23.365,Colour_Asymmetry_Pilot,2022.1.3,Win32,60.0240096,62c50e9c1127f2cd403a315f,,,,,,,,,,,,,,,,,,,,fourthree,,-4,0.417,,,,,,,,,,,,,,,,,,,,,,,,,,,,,,,,,,"[0.11359999999999992,0.6312,0.5213999999999999]","[0.7646000000000002,0.07440000000000002,0.2704]",-59,105,1,0,0,response7disk,-3,-2,1,0,0,rectangle,-3,-2,1,0,0,,2,0,0,-3,-2,1,0,0,0,5,5,153,1,72,second,,,,,,,,,,,,,,,,,,,,,,,,,,,,,,,,,,,,,,,,,,,,,,,,,,,,,,,,,,,,,,,,,,,,,,,,
,,,,,,6155e204cc071b306458dfff,62c53cd1ec0c00c709b91f2e,2022-07-06_09h42.23.365,Colour_Asymmetry_Pilot,2022.1.3,Win32,60.0240096,62c50e9c1127f2cd403a315f,,,,,,,,,,,,,,,,,,,,onethree,,-3,1.116,,,,,,,,,,,,,,,,,,,,,,,,,,,,,,,,,,"[-0.24719999999999998,-0.0354000000000001,0.3175999999999999]","[0.40379999999999994,0.09000000000000008,0.44300000000000006]",-97,64,1,0,0,response7disk,-3,2,1,0,0,rectangle,-3,2,1,0,0,,2,0,0,-3,2,1,0,0,0,6,6,109,1,28,second,,,,,,,,,,,,,,,,,,,,,,,,,,,,,,,,,,,,,,,,,,,,,,,,,,,,,,,,,,,,,,,,,,,,,,,,
,,,,,,6155e204cc071b306458dfff,62c53cd1ec0c00c709b91f2e,2022-07-06_09h42.23.365,Colour_Asymmetry_Pilot,2022.1.3,Win32,60.0240096,62c50e9c1127f2cd403a315f,,,,,,,,,,,,,,,,,,,,onethree,,-4,0.45,,,,,,,,,,,,,,,,,,,,,,,,,,,,,,,,,,"[-0.10599999999999998,-0.15300000000000002,0.15280000000000005]","[-0.0040000000000000036,0.02739999999999987,-0.08239999999999992]",-38,86,1,0,0,response7disk,-2,4,1,0,0,rectangle,-2,4,1,0,0,,1,0.001,0,-2,4,1,0,0,0,7,7,13,1,13,first,,,,,,,,,,,,,,,,,,,,,,,,,,,,,,,,,,,,,,,,,,,,,,,,,,,,,,,,,,,,,,,,,,,,,,,,
,,,,,,6155e204cc071b306458dfff,62c53cd1ec0c00c709b91f2e,2022-07-06_09h42.23.365,Colour_Asymmetry_Pilot,2022.1.3,Win32,60.0240096,62c50e9c1127f2cd403a315f,,,,,,,,,,,,,,,,,,,,onethree,,-4,2.184,,,,,,,,,,,,,,,,,,,,,,,,,,,,,,,,,,"[0.05879999999999996,0.2784,0.5841999999999998]","[-0.4902000000000001,0.2704,-0.45899999999999996]",-60,88,1,0,0,response7disk,3,-3,1,0,0,rectangle,3,-3,1,0,0,,1,0,0,3,-3,1,0,0,0,8,8,114,1,33,second,,,,,,,,,,,,,,,,,,,,,,,,,,,,,,,,,,,,,,,,,,,,,,,,,,,,,,,,,,,,,,,,,,,,,,,,
,,,,,,6155e204cc071b306458dfff,62c53cd1ec0c00c709b91f2e,2022-07-06_09h42.23.365,Colour_Asymmetry_Pilot,2022.1.3,Win32,60.0240096,62c50e9c1127f2cd403a315f,,,,,,,,,,,,,,,,,,,,fourthree,,-4,0.351,,,,,,,,,,,,,,,,,,,,,,,,,,,,,,,,,,"[0.9842,0.7409999999999999,-0.6628000000000001]","[-0.6,0.16860000000000008,0.44300000000000006]",-42,88,1,0,0,response7disk,5,1,1,0,0,rectangle,5,1,1,0,0,,2,0.002,0,5,1,1,0,0,0,9,9,154,1,73,second,,,,,,,,,,,,,,,,,,,,,,,,,,,,,,,,,,,,,,,,,,,,,,,,,,,,,,,,,,,,,,,,,,,,,,,,
,,,,,,6155e204cc071b306458dfff,62c53cd1ec0c00c709b91f2e,2022-07-06_09h42.23.365,Colour_Asymmetry_Pilot,2022.1.3,Win32,60.0240096,62c50e9c1127f2cd403a315f,,,,,,,,,,,,,,,,,,,,twoone,,-4,0.367,,,,,,,,,,,,,,,,,,,,,,,,,,,,,,,,,,"[-0.9766,-0.6472,0.07440000000000002]","[0.7176,-0.906,-0.6864]",-56,85,1,0,0,response7disk,-2,1,1,0,0,rectangle,-2,1,1,0,0,,3,0.001,0,-2,1,1,0,0,0,10,10,67,1,67,first,,,,,,,,,,,,,,,,,,,,,,,,,,,,,,,,,,,,,,,,,,,,,,,,,,,,,,,,,,,,,,,,,,,,,,,,
,,,,,,6155e204cc071b306458dfff,62c53cd1ec0c00c709b91f2e,2022-07-06_09h42.23.365,Colour_Asymmetry_Pilot,2022.1.3,Win32,60.0240096,62c50e9c1127f2cd403a315f,,,,,,,,,,,,,,,,,,,,twoone,,-4,0.466,,,,,,,,,,,,,,,,,,,,,,,,,,,,,,,,,,"[0.2784,-0.31000000000000005,-0.5452]","[-0.9296,-0.12959999999999994,-0.043199999999999905]",-45,101,1,0,0,response7disk,-3,4,1,0,0,rectangle,-3,4,1,0,0,,3,0,0,-3,4,1,0,0,0,11,11,57,1,57,first,,,,,,,,,,,,,,,,,,,,,,,,,,,,,,,,,,,,,,,,,,,,,,,,,,,,,,,,,,,,,,,,,,,,,,,,
,,,,,,6155e204cc071b306458dfff,62c53cd1ec0c00c709b91f2e,2022-07-06_09h42.23.365,Colour_Asymmetry_Pilot,2022.1.3,Win32,60.0240096,62c50e9c1127f2cd403a315f,,,,,,,,,,,,,,,,,,,,twofour,,3,1.033,,,,,,,,,,,,,,,,,,,,,,,,,,,,,,,,,,"[-0.9688,-0.7412000000000001,-0.4902000000000001]","[-0.6235999999999999,-0.6786,-0.08239999999999992]",94,61,1,0,0,response1disk,-2,8,1,0,0,rectangle,-2,8,1,0,0,,1,0.001,0,-2,8,1,0,0,0,12,12,158,1,77,second,,,,,,,,,,,,,,,,,,,,,,,,,,,,,,,,,,,,,,,,,,,,,,,,,,,,,,,,,,,,,,,,,,,,,,,,
,,,,,,6155e204cc071b306458dfff,62c53cd1ec0c00c709b91f2e,2022-07-06_09h42.23.365,Colour_Asymmetry_Pilot,2022.1.3,Win32,60.0240096,62c50e9c1127f2cd403a315f,,,,,,,,,,,,,,,,,,,,fourthree,,-4,0.349,,,,,,,,,,,,,,,,,,,,,,,,,,,,,,,,,,"[0.18419999999999992,-0.4276,-0.404]","[-0.45899999999999996,-0.3256,-0.9374]",-44,92,1,0,0,response7disk,2,1,1,0,0,rectangle,2,1,1,0,0,,1,0,0,2,1,1,0,0,0,13,13,146,1,65,second,,,,,,,,,,,,,,,,,,,,,,,,,,,,,,,,,,,,,,,,,,,,,,,,,,,,,,,,,,,,,,,,,,,,,,,,
,,,,,,6155e204cc071b306458dfff,62c53cd1ec0c00c709b91f2e,2022-07-06_09h42.23.365,Colour_Asymmetry_Pilot,2022.1.3,Win32,60.0240096,62c50e9c1127f2cd403a315f,,,,,,,,,,,,,,,,,,,,twofour,,4,0.45,,,,,,,,,,,,,,,,,,,,,,,,,,,,,,,,,,"[-0.6235999999999999,-0.6786,-0.08239999999999992]","[-0.9688,-0.7412000000000001,-0.4902000000000001]",56,102,1,0,0,response1disk,6,5,1,0,0,rectangle,6,5,1,0,0,,2,0.001,0,6,5,1,0,0,0,14,14,77,1,77,first,,,,,,,,,,,,,,,,,,,,,,,,,,,,,,,,,,,,,,,,,,,,,,,,,,,,,,,,,,,,,,,,,,,,,,,,
,,,,,,6155e204cc071b306458dfff,62c53cd1ec0c00c709b91f2e,2022-07-06_09h42.23.365,Colour_Asymmetry_Pilot,2022.1.3,Win32,60.0240096,62c50e9c1127f2cd403a315f,,,,,,,,,,,,,,,,,,,,threefour,,1,1,,,,,,,,,,,,,,,,,,,,,,,,,,,,,,,,,,"[0.3881999999999999,-0.23939999999999995,-0.05040000000000011]","[-0.34920000000000007,-0.702,-0.5216]",78,-120,1,0,0,response3disk,8,-4,1,0,0,rectangle,8,-4,1,0,0,,1,0.001,0,8,-4,1,0,0,0,15,15,18,1,18,first,,,,,,,,,,,,,,,,,,,,,,,,,,,,,,,,,,,,,,,,,,,,,,,,,,,,,,,,,,,,,,,,,,,,,,,,
,,,,,,6155e204cc071b306458dfff,62c53cd1ec0c00c709b91f2e,2022-07-06_09h42.23.365,Colour_Asymmetry_Pilot,2022.1.3,Win32,60.0240096,62c50e9c1127f2cd403a315f,,,,,,,,,,,,,,,,,,,,onetwo,,-4,0.384,,,,,,,,,,,,,,,,,,,,,,,,,,,,,,,,,,"[0.7646000000000002,0.07440000000000002,0.2704]","[0.11359999999999992,0.6312,0.5213999999999999]",-51,113,1,0,0,response7disk,-1,4,1,0,0,rectangle,-1,4,1,0,0,,2,0.001,0,-1,4,1,0,0,0,16,16,72,1,72,first,,,,,,,,,,,,,,,,,,,,,,,,,,,,,,,,,,,,,,,,,,,,,,,,,,,,,,,,,,,,,,,,,,,,,,,,
,,,,,,6155e204cc071b306458dfff,62c53cd1ec0c00c709b91f2e,2022-07-06_09h42.23.365,Colour_Asymmetry_Pilot,2022.1.3,Win32,60.0240096,62c50e9c1127f2cd403a315f,,,,,,,,,,,,,,,,,,,,threeone,,-1,0.75,,,,,,,,,,,,,,,,,,,,,,,,,,,,,,,,,,"[-0.9688,-0.38039999999999996,-0.41979999999999995]","[-0.4902000000000001,0.2704,-0.45899999999999996]",-42,-84,1,0,0,response5disk,3,-4,1,0,0,rectangle,3,-4,1,0,0,,3,0.001,0,3,-4,1,0,0,0,17,17,29,1,29,first,,,,,,,,,,,,,,,,,,,,,,,,,,,,,,,,,,,,,,,,,,,,,,,,,,,,,,,,,,,,,,,,,,,,,,,,
,,,,,,6155e204cc071b306458dfff,62c53cd1ec0c00c709b91f2e,2022-07-06_09h42.23.365,Colour_Asymmetry_Pilot,2022.1.3,Win32,60.0240096,62c50e9c1127f2cd403a315f,,,,,,,,,,,,,,,,,,,,fourtwo,,-4,0.366,,,,,,,,,,,,,,,,,,,,,,,,,,,,,,,,,,"[-0.34920000000000007,-0.702,-0.5216]","[-0.24719999999999998,-0.0354000000000001,0.3175999999999999]",-54,95,1,0,0,response7disk,5,7,1,0,0,rectangle,5,7,1,0,0,,1,0.002,0,5,7,1,0,0,0,18,18,83,1,2,second,,,,,,,,,,,,,,,,,,,,,,,,,,,,,,,,,,,,,,,,,,,,,,,,,,,,,,,,,,,,,,,,,,,,,,,,
