trials.thisRepN,trials.thisTrialN,trials.thisN,trials.thisIndex,trials.ran,Colourcodes,participant,session,date,expName,psychopyVersion,OS,frameRate,study_id,trials_4.thisRepN,trials_4.thisTrialN,trials_4.thisN,trials_4.thisIndex,trials_4.ran,StimulusPos,key_resp.keys,key_resp.rt,key_resp_2.keys,key_resp_2.rt,key_resp_15.keys,key_resp_15.rt,key_resp_17.keys,key_resp_17.rt,key_resp_9.keys,key_resp_9.rt,key_resp_10.keys,key_resp_10.rt,Circle1_col,Ecc,Circle2_col,similarity,response_time,mouse_5.x,mouse_5.y,mouse_5.leftButton,mouse_5.midButton,mouse_5.rightButton,mouse_5.clicked_name,mouse_10.x,mouse_10.y,mouse_10.leftButton,mouse_10.midButton,mouse_10.rightButton,mouse_10.clicked_name,mouse_7.x,mouse_7.y,mouse_7.leftButton,mouse_7.midButton,mouse_7.rightButton,catchnumberprac,mouse_6.x,mouse_6.y,mouse_6.leftButton,mouse_6.midButton,mouse_6.rightButton,duringprac.thisRepN,duringprac.thisTrialN,duringprac.thisN,duringprac.thisIndex,duringprac.ran,mouse_7.clicked_name,catchprac,mouse_6.clicked_name,key_resp_22.keys,key_resp_22.rt,Circle1_colour,Circle2_colour,mouse.x,mouse.y,mouse.leftButton,mouse.midButton,mouse.rightButton,mouse.clicked_name,mouse_2.x,mouse_2.y,mouse_2.leftButton,mouse_2.midButton,mouse_2.rightButton,mouse_2.clicked_name,mouse_3.x,mouse_3.y,mouse_3.leftButton,mouse_3.midButton,mouse_3.rightButton,catchresponse,catchnumber,response_time_catch,Catch,mouse_11.x,mouse_11.y,mouse_11.leftButton,mouse_11.midButton,mouse_11.rightButton,trials_2.thisRepN,trials_2.thisTrialN,trials_2.thisN,trials_2.thisIndex,trials_2.ran,Colourpair,Temporder,mouse_3.clicked_name,mouse_11.clicked_name,trials_3.thisRepN,trials_3.thisTrialN,trials_3.thisN,trials_3.thisIndex,trials_3.ran,key_resp_instr_Ishi.keys,key_resp_instr_Ishi.rt,Ishi_trial_keyresp.keys,Ishi_textbox.text,Ishi_mouse.x,Ishi_mouse.y,Ishi_mouse.leftButton,Ishi_mouse.midButton,Ishi_mouse.rightButton,Ishi_mouse.clicked_name,Ishi_loop.thisRepN,Ishi_loop.thisTrialN,Ishi_loop.thisN,Ishi_loop.thisIndex,Ishi_loop.ran,imageaddress,textbox.text,mouse_4.x,mouse_4.y,mouse_4.leftButton,mouse_4.midButton,mouse_4.rightButton,mouse_4.clicked_name,textbox_2.text,mouse_8.x,mouse_8.y,mouse_8.leftButton,mouse_8.midButton,mouse_8.rightButton,mouse_8.clicked_name,textbox_3.text,mouse_9.x,mouse_9.y,mouse_9.leftButton,mouse_9.midButton,mouse_9.rightButton,mouse_9.clicked_name,textbox_4.text,mouse_12.x,mouse_12.y,mouse_12.leftButton,mouse_12.midButton,mouse_12.rightButton,mouse_12.clicked_name,textbox_5.text,mouse_13.x,mouse_13.y,mouse_13.leftButton,mouse_13.midButton,mouse_13.rightButton,mouse_13.clicked_name,textbox_6.text,mouse_14.x,mouse_14.y,mouse_14.leftButton,mouse_14.midButton,mouse_14.rightButton,mouse_14.clicked_name,textbox_7.text,mouse_15.x,mouse_15.y,mouse_15.leftButton,mouse_15.midButton,mouse_15.rightButton,mouse_15.clicked_name
0,0,0,50,1,,5dfc2bdd77f86595eeaacdd1,62c53a5907160c13dfb487db,2022-07-06_17h32.07.491,Colour_Asymmetry_Pilot,2022.1.3,Win32,120.0768492,62c50e9c1127f2cd403a315f,,,,,,,,,,,,,,,,,,,,,,,,,,,,,,,,,,,,,,,,,,,,,,,,,,,,,,,,,,,,,,,,,,,,,,,,,,,,,,,,,,,,,,,,,,,,,,,,,,,,,,,,,,,,,,,,,,,,,,,,,,,,,,,,,,,,,,,,,,,,,,,,,,,,,,,,,,,,,,,,,,,
0,1,1,3,1,,5dfc2bdd77f86595eeaacdd1,62c53a5907160c13dfb487db,2022-07-06_17h32.07.491,Colour_Asymmetry_Pilot,2022.1.3,Win32,120.0768492,62c50e9c1127f2cd403a315f,,,,,,,,,,,,,,,,,,,,,,,,,,,,,,,,,,,,,,,,,,,,,,,,,,,,,,,,,,,,,,,,,,,,,,,,,,,,,,,,,,,,,,,,,,,,,,,,,,,,,,,,,,,,,,,,,,,,,,,,,,,,,,,,,,,,,,,,,,,,,,,,,,,,,,,,,,,,,,,,,,,
0,2,2,64,1,,5dfc2bdd77f86595eeaacdd1,62c53a5907160c13dfb487db,2022-07-06_17h32.07.491,Colour_Asymmetry_Pilot,2022.1.3,Win32,120.0768492,62c50e9c1127f2cd403a315f,,,,,,,,,,,,,,,,,,,,,,,,,,,,,,,,,,,,,,,,,,,,,,,,,,,,,,,,,,,,,,,,,,,,,,,,,,,,,,,,,,,,,,,,,,,,,,,,,,,,,,,,,,,,,,,,,,,,,,,,,,,,,,,,,,,,,,,,,,,,,,,,,,,,,,,,,,,,,,,,,,,
0,3,3,4,1,,5dfc2bdd77f86595eeaacdd1,62c53a5907160c13dfb487db,2022-07-06_17h32.07.491,Colour_Asymmetry_Pilot,2022.1.3,Win32,120.0768492,62c50e9c1127f2cd403a315f,,,,,,,,,,,,,,,,,,,,,,,,,,,,,,,,,,,,,,,,,,,,,,,,,,,,,,,,,,,,,,,,,,,,,,,,,,,,,,,,,,,,,,,,,,,,,,,,,,,,,,,,,,,,,,,,,,,,,,,,,,,,,,,,,,,,,,,,,,,,,,,,,,,,,,,,,,,,,,,,,,,
0,4,4,47,1,,5dfc2bdd77f86595eeaacdd1,62c53a5907160c13dfb487db,2022-07-06_17h32.07.491,Colour_Asymmetry_Pilot,2022.1.3,Win32,120.0768492,62c50e9c1127f2cd403a315f,,,,,,,,,,,,,,,,,,,,,,,,,,,,,,,,,,,,,,,,,,,,,,,,,,,,,,,,,,,,,,,,,,,,,,,,,,,,,,,,,,,,,,,,,,,,,,,,,,,,,,,,,,,,,,,,,,,,,,,,,,,,,,,,,,,,,,,,,,,,,,,,,,,,,,,,,,,,,,,,,,,
0,5,5,7,1,,5dfc2bdd77f86595eeaacdd1,62c53a5907160c13dfb487db,2022-07-06_17h32.07.491,Colour_Asymmetry_Pilot,2022.1.3,Win32,120.0768492,62c50e9c1127f2cd403a315f,,,,,,,,,,,,,,,,,,,,,,,,,,,,,,,,,,,,,,,,,,,,,,,,,,,,,,,,,,,,,,,,,,,,,,,,,,,,,,,,,,,,,,,,,,,,,,,,,,,,,,,,,,,,,,,,,,,,,,,,,,,,,,,,,,,,,,,,,,,,,,,,,,,,,,,,,,,,,,,,,,,
0,6,6,69,1,,5dfc2bdd77f86595eeaacdd1,62c53a5907160c13dfb487db,2022-07-06_17h32.07.491,Colour_Asymmetry_Pilot,2022.1.3,Win32,120.0768492,62c50e9c1127f2cd403a315f,,,,,,,,,,,,,,,,,,,,,,,,,,,,,,,,,,,,,,,,,,,,,,,,,,,,,,,,,,,,,,,,,,,,,,,,,,,,,,,,,,,,,,,,,,,,,,,,,,,,,,,,,,,,,,,,,,,,,,,,,,,,,,,,,,,,,,,,,,,,,,,,,,,,,,,,,,,,,,,,,,,
0,7,7,38,1,,5dfc2bdd77f86595eeaacdd1,62c53a5907160c13dfb487db,2022-07-06_17h32.07.491,Colour_Asymmetry_Pilot,2022.1.3,Win32,120.0768492,62c50e9c1127f2cd403a315f,,,,,,,,,,,,,,,,,,,,,,,,,,,,,,,,,,,,,,,,,,,,,,,,,,,,,,,,,,,,,,,,,,,,,,,,,,,,,,,,,,,,,,,,,,,,,,,,,,,,,,,,,,,,,,,,,,,,,,,,,,,,,,,,,,,,,,,,,,,,,,,,,,,,,,,,,,,,,,,,,,,
0,8,8,22,1,,5dfc2bdd77f86595eeaacdd1,62c53a5907160c13dfb487db,2022-07-06_17h32.07.491,Colour_Asymmetry_Pilot,2022.1.3,Win32,120.0768492,62c50e9c1127f2cd403a315f,,,,,,,,,,,,,,,,,,,,,,,,,,,,,,,,,,,,,,,,,,,,,,,,,,,,,,,,,,,,,,,,,,,,,,,,,,,,,,,,,,,,,,,,,,,,,,,,,,,,,,,,,,,,,,,,,,,,,,,,,,,,,,,,,,,,,,,,,,,,,,,,,,,,,,,,,,,,,,,,,,,
0,9,9,57,1,,5dfc2bdd77f86595eeaacdd1,62c53a5907160c13dfb487db,2022-07-06_17h32.07.491,Colour_Asymmetry_Pilot,2022.1.3,Win32,120.0768492,62c50e9c1127f2cd403a315f,,,,,,,,,,,,,,,,,,,,,,,,,,,,,,,,,,,,,,,,,,,,,,,,,,,,,,,,,,,,,,,,,,,,,,,,,,,,,,,,,,,,,,,,,,,,,,,,,,,,,,,,,,,,,,,,,,,,,,,,,,,,,,,,,,,,,,,,,,,,,,,,,,,,,,,,,,,,,,,,,,,
0,10,10,2,1,,5dfc2bdd77f86595eeaacdd1,62c53a5907160c13dfb487db,2022-07-06_17h32.07.491,Colour_Asymmetry_Pilot,2022.1.3,Win32,120.0768492,62c50e9c1127f2cd403a315f,,,,,,,,,,,,,,,,,,,,,,,,,,,,,,,,,,,,,,,,,,,,,,,,,,,,,,,,,,,,,,,,,,,,,,,,,,,,,,,,,,,,,,,,,,,,,,,,,,,,,,,,,,,,,,,,,,,,,,,,,,,,,,,,,,,,,,,,,,,,,,,,,,,,,,,,,,,,,,,,,,,
0,11,11,32,1,,5dfc2bdd77f86595eeaacdd1,62c53a5907160c13dfb487db,2022-07-06_17h32.07.491,Colour_Asymmetry_Pilot,2022.1.3,Win32,120.0768492,62c50e9c1127f2cd403a315f,,,,,,,,,,,,,,,,,,,,,,,,,,,,,,,,,,,,,,,,,,,,,,,,,,,,,,,,,,,,,,,,,,,,,,,,,,,,,,,,,,,,,,,,,,,,,,,,,,,,,,,,,,,,,,,,,,,,,,,,,,,,,,,,,,,,,,,,,,,,,,,,,,,,,,,,,,,,,,,,,,,
0,12,12,81,1,,5dfc2bdd77f86595eeaacdd1,62c53a5907160c13dfb487db,2022-07-06_17h32.07.491,Colour_Asymmetry_Pilot,2022.1.3,Win32,120.0768492,62c50e9c1127f2cd403a315f,,,,,,,,,,,,,,,,,,,,,,,,,,,,,,,,,,,,,,,,,,,,,,,,,,,,,,,,,,,,,,,,,,,,,,,,,,,,,,,,,,,,,,,,,,,,,,,,,,,,,,,,,,,,,,,,,,,,,,,,,,,,,,,,,,,,,,,,,,,,,,,,,,,,,,,,,,,,,,,,,,,
0,13,13,62,1,,5dfc2bdd77f86595eeaacdd1,62c53a5907160c13dfb487db,2022-07-06_17h32.07.491,Colour_Asymmetry_Pilot,2022.1.3,Win32,120.0768492,62c50e9c1127f2cd403a315f,,,,,,,,,,,,,,,,,,,,,,,,,,,,,,,,,,,,,,,,,,,,,,,,,,,,,,,,,,,,,,,,,,,,,,,,,,,,,,,,,,,,,,,,,,,,,,,,,,,,,,,,,,,,,,,,,,,,,,,,,,,,,,,,,,,,,,,,,,,,,,,,,,,,,,,,,,,,,,,,,,,
0,14,14,76,1,,5dfc2bdd77f86595eeaacdd1,62c53a5907160c13dfb487db,2022-07-06_17h32.07.491,Colour_Asymmetry_Pilot,2022.1.3,Win32,120.0768492,62c50e9c1127f2cd403a315f,,,,,,,,,,,,,,,,,,,,,,,,,,,,,,,,,,,,,,,,,,,,,,,,,,,,,,,,,,,,,,,,,,,,,,,,,,,,,,,,,,,,,,,,,,,,,,,,,,,,,,,,,,,,,,,,,,,,,,,,,,,,,,,,,,,,,,,,,,,,,,,,,,,,,,,,,,,,,,,,,,,
0,15,15,20,1,,5dfc2bdd77f86595eeaacdd1,62c53a5907160c13dfb487db,2022-07-06_17h32.07.491,Colour_Asymmetry_Pilot,2022.1.3,Win32,120.0768492,62c50e9c1127f2cd403a315f,,,,,,,,,,,,,,,,,,,,,,,,,,,,,,,,,,,,,,,,,,,,,,,,,,,,,,,,,,,,,,,,,,,,,,,,,,,,,,,,,,,,,,,,,,,,,,,,,,,,,,,,,,,,,,,,,,,,,,,,,,,,,,,,,,,,,,,,,,,,,,,,,,,,,,,,,,,,,,,,,,,
0,16,16,60,1,,5dfc2bdd77f86595eeaacdd1,62c53a5907160c13dfb487db,2022-07-06_17h32.07.491,Colour_Asymmetry_Pilot,2022.1.3,Win32,120.0768492,62c50e9c1127f2cd403a315f,,,,,,,,,,,,,,,,,,,,,,,,,,,,,,,,,,,,,,,,,,,,,,,,,,,,,,,,,,,,,,,,,,,,,,,,,,,,,,,,,,,,,,,,,,,,,,,,,,,,,,,,,,,,,,,,,,,,,,,,,,,,,,,,,,,,,,,,,,,,,,,,,,,,,,,,,,,,,,,,,,,
0,17,17,39,1,,5dfc2bdd77f86595eeaacdd1,62c53a5907160c13dfb487db,2022-07-06_17h32.07.491,Colour_Asymmetry_Pilot,2022.1.3,Win32,120.0768492,62c50e9c1127f2cd403a315f,,,,,,,,,,,,,,,,,,,,,,,,,,,,,,,,,,,,,,,,,,,,,,,,,,,,,,,,,,,,,,,,,,,,,,,,,,,,,,,,,,,,,,,,,,,,,,,,,,,,,,,,,,,,,,,,,,,,,,,,,,,,,,,,,,,,,,,,,,,,,,,,,,,,,,,,,,,,,,,,,,,
0,18,18,68,1,,5dfc2bdd77f86595eeaacdd1,62c53a5907160c13dfb487db,2022-07-06_17h32.07.491,Colour_Asymmetry_Pilot,2022.1.3,Win32,120.0768492,62c50e9c1127f2cd403a315f,,,,,,,,,,,,,,,,,,,,,,,,,,,,,,,,,,,,,,,,,,,,,,,,,,,,,,,,,,,,,,,,,,,,,,,,,,,,,,,,,,,,,,,,,,,,,,,,,,,,,,,,,,,,,,,,,,,,,,,,,,,,,,,,,,,,,,,,,,,,,,,,,,,,,,,,,,,,,,,,,,,
0,19,19,42,1,,5dfc2bdd77f86595eeaacdd1,62c53a5907160c13dfb487db,2022-07-06_17h32.07.491,Colour_Asymmetry_Pilot,2022.1.3,Win32,120.0768492,62c50e9c1127f2cd403a315f,,,,,,,,,,,,,,,,,,,,,,,,,,,,,,,,,,,,,,,,,,,,,,,,,,,,,,,,,,,,,,,,,,,,,,,,,,,,,,,,,,,,,,,,,,,,,,,,,,,,,,,,,,,,,,,,,,,,,,,,,,,,,,,,,,,,,,,,,,,,,,,,,,,,,,,,,,,,,,,,,,,
0,20,20,25,1,,5dfc2bdd77f86595eeaacdd1,62c53a5907160c13dfb487db,2022-07-06_17h32.07.491,Colour_Asymmetry_Pilot,2022.1.3,Win32,120.0768492,62c50e9c1127f2cd403a315f,,,,,,,,,,,,,,,,,,,,,,,,,,,,,,,,,,,,,,,,,,,,,,,,,,,,,,,,,,,,,,,,,,,,,,,,,,,,,,,,,,,,,,,,,,,,,,,,,,,,,,,,,,,,,,,,,,,,,,,,,,,,,,,,,,,,,,,,,,,,,,,,,,,,,,,,,,,,,,,,,,,
0,21,21,33,1,,5dfc2bdd77f86595eeaacdd1,62c53a5907160c13dfb487db,2022-07-06_17h32.07.491,Colour_Asymmetry_Pilot,2022.1.3,Win32,120.0768492,62c50e9c1127f2cd403a315f,,,,,,,,,,,,,,,,,,,,,,,,,,,,,,,,,,,,,,,,,,,,,,,,,,,,,,,,,,,,,,,,,,,,,,,,,,,,,,,,,,,,,,,,,,,,,,,,,,,,,,,,,,,,,,,,,,,,,,,,,,,,,,,,,,,,,,,,,,,,,,,,,,,,,,,,,,,,,,,,,,,
0,22,22,67,1,,5dfc2bdd77f86595eeaacdd1,62c53a5907160c13dfb487db,2022-07-06_17h32.07.491,Colour_Asymmetry_Pilot,2022.1.3,Win32,120.0768492,62c50e9c1127f2cd403a315f,,,,,,,,,,,,,,,,,,,,,,,,,,,,,,,,,,,,,,,,,,,,,,,,,,,,,,,,,,,,,,,,,,,,,,,,,,,,,,,,,,,,,,,,,,,,,,,,,,,,,,,,,,,,,,,,,,,,,,,,,,,,,,,,,,,,,,,,,,,,,,,,,,,,,,,,,,,,,,,,,,,
0,23,23,0,1,,5dfc2bdd77f86595eeaacdd1,62c53a5907160c13dfb487db,2022-07-06_17h32.07.491,Colour_Asymmetry_Pilot,2022.1.3,Win32,120.0768492,62c50e9c1127f2cd403a315f,,,,,,,,,,,,,,,,,,,,,,,,,,,,,,,,,,,,,,,,,,,,,,,,,,,,,,,,,,,,,,,,,,,,,,,,,,,,,,,,,,,,,,,,,,,,,,,,,,,,,,,,,,,,,,,,,,,,,,,,,,,,,,,,,,,,,,,,,,,,,,,,,,,,,,,,,,,,,,,,,,,
0,24,24,77,1,,5dfc2bdd77f86595eeaacdd1,62c53a5907160c13dfb487db,2022-07-06_17h32.07.491,Colour_Asymmetry_Pilot,2022.1.3,Win32,120.0768492,62c50e9c1127f2cd403a315f,,,,,,,,,,,,,,,,,,,,,,,,,,,,,,,,,,,,,,,,,,,,,,,,,,,,,,,,,,,,,,,,,,,,,,,,,,,,,,,,,,,,,,,,,,,,,,,,,,,,,,,,,,,,,,,,,,,,,,,,,,,,,,,,,,,,,,,,,,,,,,,,,,,,,,,,,,,,,,,,,,,
0,25,25,26,1,,5dfc2bdd77f86595eeaacdd1,62c53a5907160c13dfb487db,2022-07-06_17h32.07.491,Colour_Asymmetry_Pilot,2022.1.3,Win32,120.0768492,62c50e9c1127f2cd403a315f,,,,,,,,,,,,,,,,,,,,,,,,,,,,,,,,,,,,,,,,,,,,,,,,,,,,,,,,,,,,,,,,,,,,,,,,,,,,,,,,,,,,,,,,,,,,,,,,,,,,,,,,,,,,,,,,,,,,,,,,,,,,,,,,,,,,,,,,,,,,,,,,,,,,,,,,,,,,,,,,,,,
0,26,26,92,1,,5dfc2bdd77f86595eeaacdd1,62c53a5907160c13dfb487db,2022-07-06_17h32.07.491,Colour_Asymmetry_Pilot,2022.1.3,Win32,120.0768492,62c50e9c1127f2cd403a315f,,,,,,,,,,,,,,,,,,,,,,,,,,,,,,,,,,,,,,,,,,,,,,,,,,,,,,,,,,,,,,,,,,,,,,,,,,,,,,,,,,,,,,,,,,,,,,,,,,,,,,,,,,,,,,,,,,,,,,,,,,,,,,,,,,,,,,,,,,,,,,,,,,,,,,,,,,,,,,,,,,,
0,27,27,83,1,,5dfc2bdd77f86595eeaacdd1,62c53a5907160c13dfb487db,2022-07-06_17h32.07.491,Colour_Asymmetry_Pilot,2022.1.3,Win32,120.0768492,62c50e9c1127f2cd403a315f,,,,,,,,,,,,,,,,,,,,,,,,,,,,,,,,,,,,,,,,,,,,,,,,,,,,,,,,,,,,,,,,,,,,,,,,,,,,,,,,,,,,,,,,,,,,,,,,,,,,,,,,,,,,,,,,,,,,,,,,,,,,,,,,,,,,,,,,,,,,,,,,,,,,,,,,,,,,,,,,,,,
0,28,28,17,1,,5dfc2bdd77f86595eeaacdd1,62c53a5907160c13dfb487db,2022-07-06_17h32.07.491,Colour_Asymmetry_Pilot,2022.1.3,Win32,120.0768492,62c50e9c1127f2cd403a315f,,,,,,,,,,,,,,,,,,,,,,,,,,,,,,,,,,,,,,,,,,,,,,,,,,,,,,,,,,,,,,,,,,,,,,,,,,,,,,,,,,,,,,,,,,,,,,,,,,,,,,,,,,,,,,,,,,,,,,,,,,,,,,,,,,,,,,,,,,,,,,,,,,,,,,,,,,,,,,,,,,,
0,29,29,71,1,,5dfc2bdd77f86595eeaacdd1,62c53a5907160c13dfb487db,2022-07-06_17h32.07.491,Colour_Asymmetry_Pilot,2022.1.3,Win32,120.0768492,62c50e9c1127f2cd403a315f,,,,,,,,,,,,,,,,,,,,,,,,,,,,,,,,,,,,,,,,,,,,,,,,,,,,,,,,,,,,,,,,,,,,,,,,,,,,,,,,,,,,,,,,,,,,,,,,,,,,,,,,,,,,,,,,,,,,,,,,,,,,,,,,,,,,,,,,,,,,,,,,,,,,,,,,,,,,,,,,,,,
0,30,30,8,1,,5dfc2bdd77f86595eeaacdd1,62c53a5907160c13dfb487db,2022-07-06_17h32.07.491,Colour_Asymmetry_Pilot,2022.1.3,Win32,120.0768492,62c50e9c1127f2cd403a315f,,,,,,,,,,,,,,,,,,,,,,,,,,,,,,,,,,,,,,,,,,,,,,,,,,,,,,,,,,,,,,,,,,,,,,,,,,,,,,,,,,,,,,,,,,,,,,,,,,,,,,,,,,,,,,,,,,,,,,,,,,,,,,,,,,,,,,,,,,,,,,,,,,,,,,,,,,,,,,,,,,,
0,31,31,63,1,,5dfc2bdd77f86595eeaacdd1,62c53a5907160c13dfb487db,2022-07-06_17h32.07.491,Colour_Asymmetry_Pilot,2022.1.3,Win32,120.0768492,62c50e9c1127f2cd403a315f,,,,,,,,,,,,,,,,,,,,,,,,,,,,,,,,,,,,,,,,,,,,,,,,,,,,,,,,,,,,,,,,,,,,,,,,,,,,,,,,,,,,,,,,,,,,,,,,,,,,,,,,,,,,,,,,,,,,,,,,,,,,,,,,,,,,,,,,,,,,,,,,,,,,,,,,,,,,,,,,,,,
0,32,32,89,1,,5dfc2bdd77f86595eeaacdd1,62c53a5907160c13dfb487db,2022-07-06_17h32.07.491,Colour_Asymmetry_Pilot,2022.1.3,Win32,120.0768492,62c50e9c1127f2cd403a315f,,,,,,,,,,,,,,,,,,,,,,,,,,,,,,,,,,,,,,,,,,,,,,,,,,,,,,,,,,,,,,,,,,,,,,,,,,,,,,,,,,,,,,,,,,,,,,,,,,,,,,,,,,,,,,,,,,,,,,,,,,,,,,,,,,,,,,,,,,,,,,,,,,,,,,,,,,,,,,,,,,,
0,33,33,55,1,,5dfc2bdd77f86595eeaacdd1,62c53a5907160c13dfb487db,2022-07-06_17h32.07.491,Colour_Asymmetry_Pilot,2022.1.3,Win32,120.0768492,62c50e9c1127f2cd403a315f,,,,,,,,,,,,,,,,,,,,,,,,,,,,,,,,,,,,,,,,,,,,,,,,,,,,,,,,,,,,,,,,,,,,,,,,,,,,,,,,,,,,,,,,,,,,,,,,,,,,,,,,,,,,,,,,,,,,,,,,,,,,,,,,,,,,,,,,,,,,,,,,,,,,,,,,,,,,,,,,,,,
0,34,34,70,1,,5dfc2bdd77f86595eeaacdd1,62c53a5907160c13dfb487db,2022-07-06_17h32.07.491,Colour_Asymmetry_Pilot,2022.1.3,Win32,120.0768492,62c50e9c1127f2cd403a315f,,,,,,,,,,,,,,,,,,,,,,,,,,,,,,,,,,,,,,,,,,,,,,,,,,,,,,,,,,,,,,,,,,,,,,,,,,,,,,,,,,,,,,,,,,,,,,,,,,,,,,,,,,,,,,,,,,,,,,,,,,,,,,,,,,,,,,,,,,,,,,,,,,,,,,,,,,,,,,,,,,,
0,35,35,9,1,,5dfc2bdd77f86595eeaacdd1,62c53a5907160c13dfb487db,2022-07-06_17h32.07.491,Colour_Asymmetry_Pilot,2022.1.3,Win32,120.0768492,62c50e9c1127f2cd403a315f,,,,,,,,,,,,,,,,,,,,,,,,,,,,,,,,,,,,,,,,,,,,,,,,,,,,,,,,,,,,,,,,,,,,,,,,,,,,,,,,,,,,,,,,,,,,,,,,,,,,,,,,,,,,,,,,,,,,,,,,,,,,,,,,,,,,,,,,,,,,,,,,,,,,,,,,,,,,,,,,,,,
0,36,36,82,1,,5dfc2bdd77f86595eeaacdd1,62c53a5907160c13dfb487db,2022-07-06_17h32.07.491,Colour_Asymmetry_Pilot,2022.1.3,Win32,120.0768492,62c50e9c1127f2cd403a315f,,,,,,,,,,,,,,,,,,,,,,,,,,,,,,,,,,,,,,,,,,,,,,,,,,,,,,,,,,,,,,,,,,,,,,,,,,,,,,,,,,,,,,,,,,,,,,,,,,,,,,,,,,,,,,,,,,,,,,,,,,,,,,,,,,,,,,,,,,,,,,,,,,,,,,,,,,,,,,,,,,,
0,37,37,49,1,,5dfc2bdd77f86595eeaacdd1,62c53a5907160c13dfb487db,2022-07-06_17h32.07.491,Colour_Asymmetry_Pilot,2022.1.3,Win32,120.0768492,62c50e9c1127f2cd403a315f,,,,,,,,,,,,,,,,,,,,,,,,,,,,,,,,,,,,,,,,,,,,,,,,,,,,,,,,,,,,,,,,,,,,,,,,,,,,,,,,,,,,,,,,,,,,,,,,,,,,,,,,,,,,,,,,,,,,,,,,,,,,,,,,,,,,,,,,,,,,,,,,,,,,,,,,,,,,,,,,,,,
0,38,38,24,1,,5dfc2bdd77f86595eeaacdd1,62c53a5907160c13dfb487db,2022-07-06_17h32.07.491,Colour_Asymmetry_Pilot,2022.1.3,Win32,120.0768492,62c50e9c1127f2cd403a315f,,,,,,,,,,,,,,,,,,,,,,,,,,,,,,,,,,,,,,,,,,,,,,,,,,,,,,,,,,,,,,,,,,,,,,,,,,,,,,,,,,,,,,,,,,,,,,,,,,,,,,,,,,,,,,,,,,,,,,,,,,,,,,,,,,,,,,,,,,,,,,,,,,,,,,,,,,,,,,,,,,,
0,39,39,78,1,,5dfc2bdd77f86595eeaacdd1,62c53a5907160c13dfb487db,2022-07-06_17h32.07.491,Colour_Asymmetry_Pilot,2022.1.3,Win32,120.0768492,62c50e9c1127f2cd403a315f,,,,,,,,,,,,,,,,,,,,,,,,,,,,,,,,,,,,,,,,,,,,,,,,,,,,,,,,,,,,,,,,,,,,,,,,,,,,,,,,,,,,,,,,,,,,,,,,,,,,,,,,,,,,,,,,,,,,,,,,,,,,,,,,,,,,,,,,,,,,,,,,,,,,,,,,,,,,,,,,,,,
0,40,40,56,1,,5dfc2bdd77f86595eeaacdd1,62c53a5907160c13dfb487db,2022-07-06_17h32.07.491,Colour_Asymmetry_Pilot,2022.1.3,Win32,120.0768492,62c50e9c1127f2cd403a315f,,,,,,,,,,,,,,,,,,,,,,,,,,,,,,,,,,,,,,,,,,,,,,,,,,,,,,,,,,,,,,,,,,,,,,,,,,,,,,,,,,,,,,,,,,,,,,,,,,,,,,,,,,,,,,,,,,,,,,,,,,,,,,,,,,,,,,,,,,,,,,,,,,,,,,,,,,,,,,,,,,,
0,41,41,88,1,,5dfc2bdd77f86595eeaacdd1,62c53a5907160c13dfb487db,2022-07-06_17h32.07.491,Colour_Asymmetry_Pilot,2022.1.3,Win32,120.0768492,62c50e9c1127f2cd403a315f,,,,,,,,,,,,,,,,,,,,,,,,,,,,,,,,,,,,,,,,,,,,,,,,,,,,,,,,,,,,,,,,,,,,,,,,,,,,,,,,,,,,,,,,,,,,,,,,,,,,,,,,,,,,,,,,,,,,,,,,,,,,,,,,,,,,,,,,,,,,,,,,,,,,,,,,,,,,,,,,,,,
0,42,42,74,1,,5dfc2bdd77f86595eeaacdd1,62c53a5907160c13dfb487db,2022-07-06_17h32.07.491,Colour_Asymmetry_Pilot,2022.1.3,Win32,120.0768492,62c50e9c1127f2cd403a315f,,,,,,,,,,,,,,,,,,,,,,,,,,,,,,,,,,,,,,,,,,,,,,,,,,,,,,,,,,,,,,,,,,,,,,,,,,,,,,,,,,,,,,,,,,,,,,,,,,,,,,,,,,,,,,,,,,,,,,,,,,,,,,,,,,,,,,,,,,,,,,,,,,,,,,,,,,,,,,,,,,,
0,43,43,48,1,,5dfc2bdd77f86595eeaacdd1,62c53a5907160c13dfb487db,2022-07-06_17h32.07.491,Colour_Asymmetry_Pilot,2022.1.3,Win32,120.0768492,62c50e9c1127f2cd403a315f,,,,,,,,,,,,,,,,,,,,,,,,,,,,,,,,,,,,,,,,,,,,,,,,,,,,,,,,,,,,,,,,,,,,,,,,,,,,,,,,,,,,,,,,,,,,,,,,,,,,,,,,,,,,,,,,,,,,,,,,,,,,,,,,,,,,,,,,,,,,,,,,,,,,,,,,,,,,,,,,,,,
0,44,44,45,1,,5dfc2bdd77f86595eeaacdd1,62c53a5907160c13dfb487db,2022-07-06_17h32.07.491,Colour_Asymmetry_Pilot,2022.1.3,Win32,120.0768492,62c50e9c1127f2cd403a315f,,,,,,,,,,,,,,,,,,,,,,,,,,,,,,,,,,,,,,,,,,,,,,,,,,,,,,,,,,,,,,,,,,,,,,,,,,,,,,,,,,,,,,,,,,,,,,,,,,,,,,,,,,,,,,,,,,,,,,,,,,,,,,,,,,,,,,,,,,,,,,,,,,,,,,,,,,,,,,,,,,,
0,45,45,90,1,,5dfc2bdd77f86595eeaacdd1,62c53a5907160c13dfb487db,2022-07-06_17h32.07.491,Colour_Asymmetry_Pilot,2022.1.3,Win32,120.0768492,62c50e9c1127f2cd403a315f,,,,,,,,,,,,,,,,,,,,,,,,,,,,,,,,,,,,,,,,,,,,,,,,,,,,,,,,,,,,,,,,,,,,,,,,,,,,,,,,,,,,,,,,,,,,,,,,,,,,,,,,,,,,,,,,,,,,,,,,,,,,,,,,,,,,,,,,,,,,,,,,,,,,,,,,,,,,,,,,,,,
0,46,46,10,1,,5dfc2bdd77f86595eeaacdd1,62c53a5907160c13dfb487db,2022-07-06_17h32.07.491,Colour_Asymmetry_Pilot,2022.1.3,Win32,120.0768492,62c50e9c1127f2cd403a315f,,,,,,,,,,,,,,,,,,,,,,,,,,,,,,,,,,,,,,,,,,,,,,,,,,,,,,,,,,,,,,,,,,,,,,,,,,,,,,,,,,,,,,,,,,,,,,,,,,,,,,,,,,,,,,,,,,,,,,,,,,,,,,,,,,,,,,,,,,,,,,,,,,,,,,,,,,,,,,,,,,,
0,47,47,41,1,,5dfc2bdd77f86595eeaacdd1,62c53a5907160c13dfb487db,2022-07-06_17h32.07.491,Colour_Asymmetry_Pilot,2022.1.3,Win32,120.0768492,62c50e9c1127f2cd403a315f,,,,,,,,,,,,,,,,,,,,,,,,,,,,,,,,,,,,,,,,,,,,,,,,,,,,,,,,,,,,,,,,,,,,,,,,,,,,,,,,,,,,,,,,,,,,,,,,,,,,,,,,,,,,,,,,,,,,,,,,,,,,,,,,,,,,,,,,,,,,,,,,,,,,,,,,,,,,,,,,,,,
0,48,48,46,1,,5dfc2bdd77f86595eeaacdd1,62c53a5907160c13dfb487db,2022-07-06_17h32.07.491,Colour_Asymmetry_Pilot,2022.1.3,Win32,120.0768492,62c50e9c1127f2cd403a315f,,,,,,,,,,,,,,,,,,,,,,,,,,,,,,,,,,,,,,,,,,,,,,,,,,,,,,,,,,,,,,,,,,,,,,,,,,,,,,,,,,,,,,,,,,,,,,,,,,,,,,,,,,,,,,,,,,,,,,,,,,,,,,,,,,,,,,,,,,,,,,,,,,,,,,,,,,,,,,,,,,,
0,49,49,14,1,,5dfc2bdd77f86595eeaacdd1,62c53a5907160c13dfb487db,2022-07-06_17h32.07.491,Colour_Asymmetry_Pilot,2022.1.3,Win32,120.0768492,62c50e9c1127f2cd403a315f,,,,,,,,,,,,,,,,,,,,,,,,,,,,,,,,,,,,,,,,,,,,,,,,,,,,,,,,,,,,,,,,,,,,,,,,,,,,,,,,,,,,,,,,,,,,,,,,,,,,,,,,,,,,,,,,,,,,,,,,,,,,,,,,,,,,,,,,,,,,,,,,,,,,,,,,,,,,,,,,,,,
0,50,50,27,1,,5dfc2bdd77f86595eeaacdd1,62c53a5907160c13dfb487db,2022-07-06_17h32.07.491,Colour_Asymmetry_Pilot,2022.1.3,Win32,120.0768492,62c50e9c1127f2cd403a315f,,,,,,,,,,,,,,,,,,,,,,,,,,,,,,,,,,,,,,,,,,,,,,,,,,,,,,,,,,,,,,,,,,,,,,,,,,,,,,,,,,,,,,,,,,,,,,,,,,,,,,,,,,,,,,,,,,,,,,,,,,,,,,,,,,,,,,,,,,,,,,,,,,,,,,,,,,,,,,,,,,,
0,51,51,43,1,,5dfc2bdd77f86595eeaacdd1,62c53a5907160c13dfb487db,2022-07-06_17h32.07.491,Colour_Asymmetry_Pilot,2022.1.3,Win32,120.0768492,62c50e9c1127f2cd403a315f,,,,,,,,,,,,,,,,,,,,,,,,,,,,,,,,,,,,,,,,,,,,,,,,,,,,,,,,,,,,,,,,,,,,,,,,,,,,,,,,,,,,,,,,,,,,,,,,,,,,,,,,,,,,,,,,,,,,,,,,,,,,,,,,,,,,,,,,,,,,,,,,,,,,,,,,,,,,,,,,,,,
0,52,52,37,1,,5dfc2bdd77f86595eeaacdd1,62c53a5907160c13dfb487db,2022-07-06_17h32.07.491,Colour_Asymmetry_Pilot,2022.1.3,Win32,120.0768492,62c50e9c1127f2cd403a315f,,,,,,,,,,,,,,,,,,,,,,,,,,,,,,,,,,,,,,,,,,,,,,,,,,,,,,,,,,,,,,,,,,,,,,,,,,,,,,,,,,,,,,,,,,,,,,,,,,,,,,,,,,,,,,,,,,,,,,,,,,,,,,,,,,,,,,,,,,,,,,,,,,,,,,,,,,,,,,,,,,,
0,53,53,54,1,,5dfc2bdd77f86595eeaacdd1,62c53a5907160c13dfb487db,2022-07-06_17h32.07.491,Colour_Asymmetry_Pilot,2022.1.3,Win32,120.0768492,62c50e9c1127f2cd403a315f,,,,,,,,,,,,,,,,,,,,,,,,,,,,,,,,,,,,,,,,,,,,,,,,,,,,,,,,,,,,,,,,,,,,,,,,,,,,,,,,,,,,,,,,,,,,,,,,,,,,,,,,,,,,,,,,,,,,,,,,,,,,,,,,,,,,,,,,,,,,,,,,,,,,,,,,,,,,,,,,,,,
0,54,54,31,1,,5dfc2bdd77f86595eeaacdd1,62c53a5907160c13dfb487db,2022-07-06_17h32.07.491,Colour_Asymmetry_Pilot,2022.1.3,Win32,120.0768492,62c50e9c1127f2cd403a315f,,,,,,,,,,,,,,,,,,,,,,,,,,,,,,,,,,,,,,,,,,,,,,,,,,,,,,,,,,,,,,,,,,,,,,,,,,,,,,,,,,,,,,,,,,,,,,,,,,,,,,,,,,,,,,,,,,,,,,,,,,,,,,,,,,,,,,,,,,,,,,,,,,,,,,,,,,,,,,,,,,,
0,55,55,87,1,,5dfc2bdd77f86595eeaacdd1,62c53a5907160c13dfb487db,2022-07-06_17h32.07.491,Colour_Asymmetry_Pilot,2022.1.3,Win32,120.0768492,62c50e9c1127f2cd403a315f,,,,,,,,,,,,,,,,,,,,,,,,,,,,,,,,,,,,,,,,,,,,,,,,,,,,,,,,,,,,,,,,,,,,,,,,,,,,,,,,,,,,,,,,,,,,,,,,,,,,,,,,,,,,,,,,,,,,,,,,,,,,,,,,,,,,,,,,,,,,,,,,,,,,,,,,,,,,,,,,,,,
0,56,56,35,1,,5dfc2bdd77f86595eeaacdd1,62c53a5907160c13dfb487db,2022-07-06_17h32.07.491,Colour_Asymmetry_Pilot,2022.1.3,Win32,120.0768492,62c50e9c1127f2cd403a315f,,,,,,,,,,,,,,,,,,,,,,,,,,,,,,,,,,,,,,,,,,,,,,,,,,,,,,,,,,,,,,,,,,,,,,,,,,,,,,,,,,,,,,,,,,,,,,,,,,,,,,,,,,,,,,,,,,,,,,,,,,,,,,,,,,,,,,,,,,,,,,,,,,,,,,,,,,,,,,,,,,,
0,57,57,13,1,,5dfc2bdd77f86595eeaacdd1,62c53a5907160c13dfb487db,2022-07-06_17h32.07.491,Colour_Asymmetry_Pilot,2022.1.3,Win32,120.0768492,62c50e9c1127f2cd403a315f,,,,,,,,,,,,,,,,,,,,,,,,,,,,,,,,,,,,,,,,,,,,,,,,,,,,,,,,,,,,,,,,,,,,,,,,,,,,,,,,,,,,,,,,,,,,,,,,,,,,,,,,,,,,,,,,,,,,,,,,,,,,,,,,,,,,,,,,,,,,,,,,,,,,,,,,,,,,,,,,,,,
0,58,58,6,1,,5dfc2bdd77f86595eeaacdd1,62c53a5907160c13dfb487db,2022-07-06_17h32.07.491,Colour_Asymmetry_Pilot,2022.1.3,Win32,120.0768492,62c50e9c1127f2cd403a315f,,,,,,,,,,,,,,,,,,,,,,,,,,,,,,,,,,,,,,,,,,,,,,,,,,,,,,,,,,,,,,,,,,,,,,,,,,,,,,,,,,,,,,,,,,,,,,,,,,,,,,,,,,,,,,,,,,,,,,,,,,,,,,,,,,,,,,,,,,,,,,,,,,,,,,,,,,,,,,,,,,,
0,59,59,19,1,,5dfc2bdd77f86595eeaacdd1,62c53a5907160c13dfb487db,2022-07-06_17h32.07.491,Colour_Asymmetry_Pilot,2022.1.3,Win32,120.0768492,62c50e9c1127f2cd403a315f,,,,,,,,,,,,,,,,,,,,,,,,,,,,,,,,,,,,,,,,,,,,,,,,,,,,,,,,,,,,,,,,,,,,,,,,,,,,,,,,,,,,,,,,,,,,,,,,,,,,,,,,,,,,,,,,,,,,,,,,,,,,,,,,,,,,,,,,,,,,,,,,,,,,,,,,,,,,,,,,,,,
0,60,60,79,1,,5dfc2bdd77f86595eeaacdd1,62c53a5907160c13dfb487db,2022-07-06_17h32.07.491,Colour_Asymmetry_Pilot,2022.1.3,Win32,120.0768492,62c50e9c1127f2cd403a315f,,,,,,,,,,,,,,,,,,,,,,,,,,,,,,,,,,,,,,,,,,,,,,,,,,,,,,,,,,,,,,,,,,,,,,,,,,,,,,,,,,,,,,,,,,,,,,,,,,,,,,,,,,,,,,,,,,,,,,,,,,,,,,,,,,,,,,,,,,,,,,,,,,,,,,,,,,,,,,,,,,,
0,61,61,36,1,,5dfc2bdd77f86595eeaacdd1,62c53a5907160c13dfb487db,2022-07-06_17h32.07.491,Colour_Asymmetry_Pilot,2022.1.3,Win32,120.0768492,62c50e9c1127f2cd403a315f,,,,,,,,,,,,,,,,,,,,,,,,,,,,,,,,,,,,,,,,,,,,,,,,,,,,,,,,,,,,,,,,,,,,,,,,,,,,,,,,,,,,,,,,,,,,,,,,,,,,,,,,,,,,,,,,,,,,,,,,,,,,,,,,,,,,,,,,,,,,,,,,,,,,,,,,,,,,,,,,,,,
0,62,62,1,1,,5dfc2bdd77f86595eeaacdd1,62c53a5907160c13dfb487db,2022-07-06_17h32.07.491,Colour_Asymmetry_Pilot,2022.1.3,Win32,120.0768492,62c50e9c1127f2cd403a315f,,,,,,,,,,,,,,,,,,,,,,,,,,,,,,,,,,,,,,,,,,,,,,,,,,,,,,,,,,,,,,,,,,,,,,,,,,,,,,,,,,,,,,,,,,,,,,,,,,,,,,,,,,,,,,,,,,,,,,,,,,,,,,,,,,,,,,,,,,,,,,,,,,,,,,,,,,,,,,,,,,,
0,63,63,86,1,,5dfc2bdd77f86595eeaacdd1,62c53a5907160c13dfb487db,2022-07-06_17h32.07.491,Colour_Asymmetry_Pilot,2022.1.3,Win32,120.0768492,62c50e9c1127f2cd403a315f,,,,,,,,,,,,,,,,,,,,,,,,,,,,,,,,,,,,,,,,,,,,,,,,,,,,,,,,,,,,,,,,,,,,,,,,,,,,,,,,,,,,,,,,,,,,,,,,,,,,,,,,,,,,,,,,,,,,,,,,,,,,,,,,,,,,,,,,,,,,,,,,,,,,,,,,,,,,,,,,,,,
0,64,64,51,1,,5dfc2bdd77f86595eeaacdd1,62c53a5907160c13dfb487db,2022-07-06_17h32.07.491,Colour_Asymmetry_Pilot,2022.1.3,Win32,120.0768492,62c50e9c1127f2cd403a315f,,,,,,,,,,,,,,,,,,,,,,,,,,,,,,,,,,,,,,,,,,,,,,,,,,,,,,,,,,,,,,,,,,,,,,,,,,,,,,,,,,,,,,,,,,,,,,,,,,,,,,,,,,,,,,,,,,,,,,,,,,,,,,,,,,,,,,,,,,,,,,,,,,,,,,,,,,,,,,,,,,,
0,65,65,11,1,,5dfc2bdd77f86595eeaacdd1,62c53a5907160c13dfb487db,2022-07-06_17h32.07.491,Colour_Asymmetry_Pilot,2022.1.3,Win32,120.0768492,62c50e9c1127f2cd403a315f,,,,,,,,,,,,,,,,,,,,,,,,,,,,,,,,,,,,,,,,,,,,,,,,,,,,,,,,,,,,,,,,,,,,,,,,,,,,,,,,,,,,,,,,,,,,,,,,,,,,,,,,,,,,,,,,,,,,,,,,,,,,,,,,,,,,,,,,,,,,,,,,,,,,,,,,,,,,,,,,,,,
0,66,66,65,1,,5dfc2bdd77f86595eeaacdd1,62c53a5907160c13dfb487db,2022-07-06_17h32.07.491,Colour_Asymmetry_Pilot,2022.1.3,Win32,120.0768492,62c50e9c1127f2cd403a315f,,,,,,,,,,,,,,,,,,,,,,,,,,,,,,,,,,,,,,,,,,,,,,,,,,,,,,,,,,,,,,,,,,,,,,,,,,,,,,,,,,,,,,,,,,,,,,,,,,,,,,,,,,,,,,,,,,,,,,,,,,,,,,,,,,,,,,,,,,,,,,,,,,,,,,,,,,,,,,,,,,,
0,67,67,5,1,,5dfc2bdd77f86595eeaacdd1,62c53a5907160c13dfb487db,2022-07-06_17h32.07.491,Colour_Asymmetry_Pilot,2022.1.3,Win32,120.0768492,62c50e9c1127f2cd403a315f,,,,,,,,,,,,,,,,,,,,,,,,,,,,,,,,,,,,,,,,,,,,,,,,,,,,,,,,,,,,,,,,,,,,,,,,,,,,,,,,,,,,,,,,,,,,,,,,,,,,,,,,,,,,,,,,,,,,,,,,,,,,,,,,,,,,,,,,,,,,,,,,,,,,,,,,,,,,,,,,,,,
0,68,68,15,1,,5dfc2bdd77f86595eeaacdd1,62c53a5907160c13dfb487db,2022-07-06_17h32.07.491,Colour_Asymmetry_Pilot,2022.1.3,Win32,120.0768492,62c50e9c1127f2cd403a315f,,,,,,,,,,,,,,,,,,,,,,,,,,,,,,,,,,,,,,,,,,,,,,,,,,,,,,,,,,,,,,,,,,,,,,,,,,,,,,,,,,,,,,,,,,,,,,,,,,,,,,,,,,,,,,,,,,,,,,,,,,,,,,,,,,,,,,,,,,,,,,,,,,,,,,,,,,,,,,,,,,,
0,69,69,75,1,,5dfc2bdd77f86595eeaacdd1,62c53a5907160c13dfb487db,2022-07-06_17h32.07.491,Colour_Asymmetry_Pilot,2022.1.3,Win32,120.0768492,62c50e9c1127f2cd403a315f,,,,,,,,,,,,,,,,,,,,,,,,,,,,,,,,,,,,,,,,,,,,,,,,,,,,,,,,,,,,,,,,,,,,,,,,,,,,,,,,,,,,,,,,,,,,,,,,,,,,,,,,,,,,,,,,,,,,,,,,,,,,,,,,,,,,,,,,,,,,,,,,,,,,,,,,,,,,,,,,,,,
0,70,70,30,1,,5dfc2bdd77f86595eeaacdd1,62c53a5907160c13dfb487db,2022-07-06_17h32.07.491,Colour_Asymmetry_Pilot,2022.1.3,Win32,120.0768492,62c50e9c1127f2cd403a315f,,,,,,,,,,,,,,,,,,,,,,,,,,,,,,,,,,,,,,,,,,,,,,,,,,,,,,,,,,,,,,,,,,,,,,,,,,,,,,,,,,,,,,,,,,,,,,,,,,,,,,,,,,,,,,,,,,,,,,,,,,,,,,,,,,,,,,,,,,,,,,,,,,,,,,,,,,,,,,,,,,,
0,71,71,21,1,,5dfc2bdd77f86595eeaacdd1,62c53a5907160c13dfb487db,2022-07-06_17h32.07.491,Colour_Asymmetry_Pilot,2022.1.3,Win32,120.0768492,62c50e9c1127f2cd403a315f,,,,,,,,,,,,,,,,,,,,,,,,,,,,,,,,,,,,,,,,,,,,,,,,,,,,,,,,,,,,,,,,,,,,,,,,,,,,,,,,,,,,,,,,,,,,,,,,,,,,,,,,,,,,,,,,,,,,,,,,,,,,,,,,,,,,,,,,,,,,,,,,,,,,,,,,,,,,,,,,,,,
0,72,72,53,1,,5dfc2bdd77f86595eeaacdd1,62c53a5907160c13dfb487db,2022-07-06_17h32.07.491,Colour_Asymmetry_Pilot,2022.1.3,Win32,120.0768492,62c50e9c1127f2cd403a315f,,,,,,,,,,,,,,,,,,,,,,,,,,,,,,,,,,,,,,,,,,,,,,,,,,,,,,,,,,,,,,,,,,,,,,,,,,,,,,,,,,,,,,,,,,,,,,,,,,,,,,,,,,,,,,,,,,,,,,,,,,,,,,,,,,,,,,,,,,,,,,,,,,,,,,,,,,,,,,,,,,,
0,73,73,91,1,,5dfc2bdd77f86595eeaacdd1,62c53a5907160c13dfb487db,2022-07-06_17h32.07.491,Colour_Asymmetry_Pilot,2022.1.3,Win32,120.0768492,62c50e9c1127f2cd403a315f,,,,,,,,,,,,,,,,,,,,,,,,,,,,,,,,,,,,,,,,,,,,,,,,,,,,,,,,,,,,,,,,,,,,,,,,,,,,,,,,,,,,,,,,,,,,,,,,,,,,,,,,,,,,,,,,,,,,,,,,,,,,,,,,,,,,,,,,,,,,,,,,,,,,,,,,,,,,,,,,,,,
0,74,74,58,1,,5dfc2bdd77f86595eeaacdd1,62c53a5907160c13dfb487db,2022-07-06_17h32.07.491,Colour_Asymmetry_Pilot,2022.1.3,Win32,120.0768492,62c50e9c1127f2cd403a315f,,,,,,,,,,,,,,,,,,,,,,,,,,,,,,,,,,,,,,,,,,,,,,,,,,,,,,,,,,,,,,,,,,,,,,,,,,,,,,,,,,,,,,,,,,,,,,,,,,,,,,,,,,,,,,,,,,,,,,,,,,,,,,,,,,,,,,,,,,,,,,,,,,,,,,,,,,,,,,,,,,,
0,75,75,28,1,,5dfc2bdd77f86595eeaacdd1,62c53a5907160c13dfb487db,2022-07-06_17h32.07.491,Colour_Asymmetry_Pilot,2022.1.3,Win32,120.0768492,62c50e9c1127f2cd403a315f,,,,,,,,,,,,,,,,,,,,,,,,,,,,,,,,,,,,,,,,,,,,,,,,,,,,,,,,,,,,,,,,,,,,,,,,,,,,,,,,,,,,,,,,,,,,,,,,,,,,,,,,,,,,,,,,,,,,,,,,,,,,,,,,,,,,,,,,,,,,,,,,,,,,,,,,,,,,,,,,,,,
0,76,76,52,1,,5dfc2bdd77f86595eeaacdd1,62c53a5907160c13dfb487db,2022-07-06_17h32.07.491,Colour_Asymmetry_Pilot,2022.1.3,Win32,120.0768492,62c50e9c1127f2cd403a315f,,,,,,,,,,,,,,,,,,,,,,,,,,,,,,,,,,,,,,,,,,,,,,,,,,,,,,,,,,,,,,,,,,,,,,,,,,,,,,,,,,,,,,,,,,,,,,,,,,,,,,,,,,,,,,,,,,,,,,,,,,,,,,,,,,,,,,,,,,,,,,,,,,,,,,,,,,,,,,,,,,,
0,77,77,72,1,,5dfc2bdd77f86595eeaacdd1,62c53a5907160c13dfb487db,2022-07-06_17h32.07.491,Colour_Asymmetry_Pilot,2022.1.3,Win32,120.0768492,62c50e9c1127f2cd403a315f,,,,,,,,,,,,,,,,,,,,,,,,,,,,,,,,,,,,,,,,,,,,,,,,,,,,,,,,,,,,,,,,,,,,,,,,,,,,,,,,,,,,,,,,,,,,,,,,,,,,,,,,,,,,,,,,,,,,,,,,,,,,,,,,,,,,,,,,,,,,,,,,,,,,,,,,,,,,,,,,,,,
0,78,78,59,1,,5dfc2bdd77f86595eeaacdd1,62c53a5907160c13dfb487db,2022-07-06_17h32.07.491,Colour_Asymmetry_Pilot,2022.1.3,Win32,120.0768492,62c50e9c1127f2cd403a315f,,,,,,,,,,,,,,,,,,,,,,,,,,,,,,,,,,,,,,,,,,,,,,,,,,,,,,,,,,,,,,,,,,,,,,,,,,,,,,,,,,,,,,,,,,,,,,,,,,,,,,,,,,,,,,,,,,,,,,,,,,,,,,,,,,,,,,,,,,,,,,,,,,,,,,,,,,,,,,,,,,,
0,79,79,34,1,,5dfc2bdd77f86595eeaacdd1,62c53a5907160c13dfb487db,2022-07-06_17h32.07.491,Colour_Asymmetry_Pilot,2022.1.3,Win32,120.0768492,62c50e9c1127f2cd403a315f,,,,,,,,,,,,,,,,,,,,,,,,,,,,,,,,,,,,,,,,,,,,,,,,,,,,,,,,,,,,,,,,,,,,,,,,,,,,,,,,,,,,,,,,,,,,,,,,,,,,,,,,,,,,,,,,,,,,,,,,,,,,,,,,,,,,,,,,,,,,,,,,,,,,,,,,,,,,,,,,,,,
0,80,80,66,1,,5dfc2bdd77f86595eeaacdd1,62c53a5907160c13dfb487db,2022-07-06_17h32.07.491,Colour_Asymmetry_Pilot,2022.1.3,Win32,120.0768492,62c50e9c1127f2cd403a315f,,,,,,,,,,,,,,,,,,,,,,,,,,,,,,,,,,,,,,,,,,,,,,,,,,,,,,,,,,,,,,,,,,,,,,,,,,,,,,,,,,,,,,,,,,,,,,,,,,,,,,,,,,,,,,,,,,,,,,,,,,,,,,,,,,,,,,,,,,,,,,,,,,,,,,,,,,,,,,,,,,,
0,81,81,44,1,,5dfc2bdd77f86595eeaacdd1,62c53a5907160c13dfb487db,2022-07-06_17h32.07.491,Colour_Asymmetry_Pilot,2022.1.3,Win32,120.0768492,62c50e9c1127f2cd403a315f,,,,,,,,,,,,,,,,,,,,,,,,,,,,,,,,,,,,,,,,,,,,,,,,,,,,,,,,,,,,,,,,,,,,,,,,,,,,,,,,,,,,,,,,,,,,,,,,,,,,,,,,,,,,,,,,,,,,,,,,,,,,,,,,,,,,,,,,,,,,,,,,,,,,,,,,,,,,,,,,,,,
0,82,82,12,1,,5dfc2bdd77f86595eeaacdd1,62c53a5907160c13dfb487db,2022-07-06_17h32.07.491,Colour_Asymmetry_Pilot,2022.1.3,Win32,120.0768492,62c50e9c1127f2cd403a315f,,,,,,,,,,,,,,,,,,,,,,,,,,,,,,,,,,,,,,,,,,,,,,,,,,,,,,,,,,,,,,,,,,,,,,,,,,,,,,,,,,,,,,,,,,,,,,,,,,,,,,,,,,,,,,,,,,,,,,,,,,,,,,,,,,,,,,,,,,,,,,,,,,,,,,,,,,,,,,,,,,,
0,83,83,40,1,,5dfc2bdd77f86595eeaacdd1,62c53a5907160c13dfb487db,2022-07-06_17h32.07.491,Colour_Asymmetry_Pilot,2022.1.3,Win32,120.0768492,62c50e9c1127f2cd403a315f,,,,,,,,,,,,,,,,,,,,,,,,,,,,,,,,,,,,,,,,,,,,,,,,,,,,,,,,,,,,,,,,,,,,,,,,,,,,,,,,,,,,,,,,,,,,,,,,,,,,,,,,,,,,,,,,,,,,,,,,,,,,,,,,,,,,,,,,,,,,,,,,,,,,,,,,,,,,,,,,,,,
0,84,84,61,1,,5dfc2bdd77f86595eeaacdd1,62c53a5907160c13dfb487db,2022-07-06_17h32.07.491,Colour_Asymmetry_Pilot,2022.1.3,Win32,120.0768492,62c50e9c1127f2cd403a315f,,,,,,,,,,,,,,,,,,,,,,,,,,,,,,,,,,,,,,,,,,,,,,,,,,,,,,,,,,,,,,,,,,,,,,,,,,,,,,,,,,,,,,,,,,,,,,,,,,,,,,,,,,,,,,,,,,,,,,,,,,,,,,,,,,,,,,,,,,,,,,,,,,,,,,,,,,,,,,,,,,,
0,85,85,80,1,,5dfc2bdd77f86595eeaacdd1,62c53a5907160c13dfb487db,2022-07-06_17h32.07.491,Colour_Asymmetry_Pilot,2022.1.3,Win32,120.0768492,62c50e9c1127f2cd403a315f,,,,,,,,,,,,,,,,,,,,,,,,,,,,,,,,,,,,,,,,,,,,,,,,,,,,,,,,,,,,,,,,,,,,,,,,,,,,,,,,,,,,,,,,,,,,,,,,,,,,,,,,,,,,,,,,,,,,,,,,,,,,,,,,,,,,,,,,,,,,,,,,,,,,,,,,,,,,,,,,,,,
0,86,86,29,1,,5dfc2bdd77f86595eeaacdd1,62c53a5907160c13dfb487db,2022-07-06_17h32.07.491,Colour_Asymmetry_Pilot,2022.1.3,Win32,120.0768492,62c50e9c1127f2cd403a315f,,,,,,,,,,,,,,,,,,,,,,,,,,,,,,,,,,,,,,,,,,,,,,,,,,,,,,,,,,,,,,,,,,,,,,,,,,,,,,,,,,,,,,,,,,,,,,,,,,,,,,,,,,,,,,,,,,,,,,,,,,,,,,,,,,,,,,,,,,,,,,,,,,,,,,,,,,,,,,,,,,,
0,87,87,85,1,,5dfc2bdd77f86595eeaacdd1,62c53a5907160c13dfb487db,2022-07-06_17h32.07.491,Colour_Asymmetry_Pilot,2022.1.3,Win32,120.0768492,62c50e9c1127f2cd403a315f,,,,,,,,,,,,,,,,,,,,,,,,,,,,,,,,,,,,,,,,,,,,,,,,,,,,,,,,,,,,,,,,,,,,,,,,,,,,,,,,,,,,,,,,,,,,,,,,,,,,,,,,,,,,,,,,,,,,,,,,,,,,,,,,,,,,,,,,,,,,,,,,,,,,,,,,,,,,,,,,,,,
0,88,88,18,1,,5dfc2bdd77f86595eeaacdd1,62c53a5907160c13dfb487db,2022-07-06_17h32.07.491,Colour_Asymmetry_Pilot,2022.1.3,Win32,120.0768492,62c50e9c1127f2cd403a315f,,,,,,,,,,,,,,,,,,,,,,,,,,,,,,,,,,,,,,,,,,,,,,,,,,,,,,,,,,,,,,,,,,,,,,,,,,,,,,,,,,,,,,,,,,,,,,,,,,,,,,,,,,,,,,,,,,,,,,,,,,,,,,,,,,,,,,,,,,,,,,,,,,,,,,,,,,,,,,,,,,,
0,89,89,23,1,,5dfc2bdd77f86595eeaacdd1,62c53a5907160c13dfb487db,2022-07-06_17h32.07.491,Colour_Asymmetry_Pilot,2022.1.3,Win32,120.0768492,62c50e9c1127f2cd403a315f,,,,,,,,,,,,,,,,,,,,,,,,,,,,,,,,,,,,,,,,,,,,,,,,,,,,,,,,,,,,,,,,,,,,,,,,,,,,,,,,,,,,,,,,,,,,,,,,,,,,,,,,,,,,,,,,,,,,,,,,,,,,,,,,,,,,,,,,,,,,,,,,,,,,,,,,,,,,,,,,,,,
0,90,90,73,1,,5dfc2bdd77f86595eeaacdd1,62c53a5907160c13dfb487db,2022-07-06_17h32.07.491,Colour_Asymmetry_Pilot,2022.1.3,Win32,120.0768492,62c50e9c1127f2cd403a315f,,,,,,,,,,,,,,,,,,,,,,,,,,,,,,,,,,,,,,,,,,,,,,,,,,,,,,,,,,,,,,,,,,,,,,,,,,,,,,,,,,,,,,,,,,,,,,,,,,,,,,,,,,,,,,,,,,,,,,,,,,,,,,,,,,,,,,,,,,,,,,,,,,,,,,,,,,,,,,,,,,,
0,91,91,16,1,,5dfc2bdd77f86595eeaacdd1,62c53a5907160c13dfb487db,2022-07-06_17h32.07.491,Colour_Asymmetry_Pilot,2022.1.3,Win32,120.0768492,62c50e9c1127f2cd403a315f,,,,,,,,,,,,,,,,,,,,,,,,,,,,,,,,,,,,,,,,,,,,,,,,,,,,,,,,,,,,,,,,,,,,,,,,,,,,,,,,,,,,,,,,,,,,,,,,,,,,,,,,,,,,,,,,,,,,,,,,,,,,,,,,,,,,,,,,,,,,,,,,,,,,,,,,,,,,,,,,,,,
0,92,92,84,1,,5dfc2bdd77f86595eeaacdd1,62c53a5907160c13dfb487db,2022-07-06_17h32.07.491,Colour_Asymmetry_Pilot,2022.1.3,Win32,120.0768492,62c50e9c1127f2cd403a315f,,,,,,,,,,,,,,,,,,,,,,,,,,,,,,,,,,,,,,,,,,,,,,,,,,,,,,,,,,,,,,,,,,,,,,,,,,,,,,,,,,,,,,,,,,,,,,,,,,,,,,,,,,,,,,,,,,,,,,,,,,,,,,,,,,,,,,,,,,,,,,,,,,,,,,,,,,,,,,,,,,,
,,,,,,5dfc2bdd77f86595eeaacdd1,62c53a5907160c13dfb487db,2022-07-06_17h32.07.491,Colour_Asymmetry_Pilot,2022.1.3,Win32,120.0768492,62c50e9c1127f2cd403a315f,0,0,0,1,1,onethree,,,,,,,,,,,,,,,,,,,,,,,,,,,,,,,,,,,,,,,,,,,,,,,,,,,,,,,,,,,,,,,,,,,,,,,,,,,,,,,,,,,,,,,,,,,,,,,,,,,,,,,,,,,,,,,,,,,,,,,,,,,,,,,,,,,,,,,,,,,,,,,,,,,,,,,,,,,,,
,,,,,,5dfc2bdd77f86595eeaacdd1,62c53a5907160c13dfb487db,2022-07-06_17h32.07.491,Colour_Asymmetry_Pilot,2022.1.3,Win32,120.0768492,62c50e9c1127f2cd403a315f,0,1,1,157,1,threefour,,,,,,,,,,,,,,,,,,,,,,,,,,,,,,,,,,,,,,,,,,,,,,,,,,,,,,,,,,,,,,,,,,,,,,,,,,,,,,,,,,,,,,,,,,,,,,,,,,,,,,,,,,,,,,,,,,,,,,,,,,,,,,,,,,,,,,,,,,,,,,,,,,,,,,,,,,,,,
,,,,,,5dfc2bdd77f86595eeaacdd1,62c53a5907160c13dfb487db,2022-07-06_17h32.07.491,Colour_Asymmetry_Pilot,2022.1.3,Win32,120.0768492,62c50e9c1127f2cd403a315f,0,2,2,147,1,twofour,,,,,,,,,,,,,,,,,,,,,,,,,,,,,,,,,,,,,,,,,,,,,,,,,,,,,,,,,,,,,,,,,,,,,,,,,,,,,,,,,,,,,,,,,,,,,,,,,,,,,,,,,,,,,,,,,,,,,,,,,,,,,,,,,,,,,,,,,,,,,,,,,,,,,,,,,,,,,
,,,,,,5dfc2bdd77f86595eeaacdd1,62c53a5907160c13dfb487db,2022-07-06_17h32.07.491,Colour_Asymmetry_Pilot,2022.1.3,Win32,120.0768492,62c50e9c1127f2cd403a315f,0,3,3,137,1,onethree,,,,,,,,,,,,,,,,,,,,,,,,,,,,,,,,,,,,,,,,,,,,,,,,,,,,,,,,,,,,,,,,,,,,,,,,,,,,,,,,,,,,,,,,,,,,,,,,,,,,,,,,,,,,,,,,,,,,,,,,,,,,,,,,,,,,,,,,,,,,,,,,,,,,,,,,,,,,,
,,,,,,5dfc2bdd77f86595eeaacdd1,62c53a5907160c13dfb487db,2022-07-06_17h32.07.491,Colour_Asymmetry_Pilot,2022.1.3,Win32,120.0768492,62c50e9c1127f2cd403a315f,0,4,4,76,1,threeone,,,,,,,,,,,,,,,,,,,,,,,,,,,,,,,,,,,,,,,,,,,,,,,,,,,,,,,,,,,,,,,,,,,,,,,,,,,,,,,,,,,,,,,,,,,,,,,,,,,,,,,,,,,,,,,,,,,,,,,,,,,,,,,,,,,,,,,,,,,,,,,,,,,,,,,,,,,,,
,,,,,,5dfc2bdd77f86595eeaacdd1,62c53a5907160c13dfb487db,2022-07-06_17h32.07.491,Colour_Asymmetry_Pilot,2022.1.3,Win32,120.0768492,62c50e9c1127f2cd403a315f,0,5,5,124,1,threeone,,,,,,,,,,,,,,,,,,,,,,,,,,,,,,,,,,,,,,,,,,,,,,,,,,,,,,,,,,,,,,,,,,,,,,,,,,,,,,,,,,,,,,,,,,,,,,,,,,,,,,,,,,,,,,,,,,,,,,,,,,,,,,,,,,,,,,,,,,,,,,,,,,,,,,,,,,,,,
,,,,,,5dfc2bdd77f86595eeaacdd1,62c53a5907160c13dfb487db,2022-07-06_17h32.07.491,Colour_Asymmetry_Pilot,2022.1.3,Win32,120.0768492,62c50e9c1127f2cd403a315f,0,6,6,105,1,onethree,,,,,,,,,,,,,,,,,,,,,,,,,,,,,,,,,,,,,,,,,,,,,,,,,,,,,,,,,,,,,,,,,,,,,,,,,,,,,,,,,,,,,,,,,,,,,,,,,,,,,,,,,,,,,,,,,,,,,,,,,,,,,,,,,,,,,,,,,,,,,,,,,,,,,,,,,,,,,
,,,,,,5dfc2bdd77f86595eeaacdd1,62c53a5907160c13dfb487db,2022-07-06_17h32.07.491,Colour_Asymmetry_Pilot,2022.1.3,Win32,120.0768492,62c50e9c1127f2cd403a315f,0,7,7,57,1,onethree,,,,,,,,,,,,,,,,,,,,,,,,,,,,,,,,,,,,,,,,,,,,,,,,,,,,,,,,,,,,,,,,,,,,,,,,,,,,,,,,,,,,,,,,,,,,,,,,,,,,,,,,,,,,,,,,,,,,,,,,,,,,,,,,,,,,,,,,,,,,,,,,,,,,,,,,,,,,,
,,,,,,5dfc2bdd77f86595eeaacdd1,62c53a5907160c13dfb487db,2022-07-06_17h32.07.491,Colour_Asymmetry_Pilot,2022.1.3,Win32,120.0768492,62c50e9c1127f2cd403a315f,0,8,8,73,1,onethree,,,,,,,,,,,,,,,,,,,,,,,,,,,,,,,,,,,,,,,,,,,,,,,,,,,,,,,,,,,,,,,,,,,,,,,,,,,,,,,,,,,,,,,,,,,,,,,,,,,,,,,,,,,,,,,,,,,,,,,,,,,,,,,,,,,,,,,,,,,,,,,,,,,,,,,,,,,,,
,,,,,,5dfc2bdd77f86595eeaacdd1,62c53a5907160c13dfb487db,2022-07-06_17h32.07.491,Colour_Asymmetry_Pilot,2022.1.3,Win32,120.0768492,62c50e9c1127f2cd403a315f,0,9,9,59,1,twofour,,,,,,,,,,,,,,,,,,,,,,,,,,,,,,,,,,,,,,,,,,,,,,,,,,,,,,,,,,,,,,,,,,,,,,,,,,,,,,,,,,,,,,,,,,,,,,,,,,,,,,,,,,,,,,,,,,,,,,,,,,,,,,,,,,,,,,,,,,,,,,,,,,,,,,,,,,,,,
,,,,,,5dfc2bdd77f86595eeaacdd1,62c53a5907160c13dfb487db,2022-07-06_17h32.07.491,Colour_Asymmetry_Pilot,2022.1.3,Win32,120.0768492,62c50e9c1127f2cd403a315f,0,10,10,101,1,threefour,,,,,,,,,,,,,,,,,,,,,,,,,,,,,,,,,,,,,,,,,,,,,,,,,,,,,,,,,,,,,,,,,,,,,,,,,,,,,,,,,,,,,,,,,,,,,,,,,,,,,,,,,,,,,,,,,,,,,,,,,,,,,,,,,,,,,,,,,,,,,,,,,,,,,,,,,,,,,
,,,,,,5dfc2bdd77f86595eeaacdd1,62c53a5907160c13dfb487db,2022-07-06_17h32.07.491,Colour_Asymmetry_Pilot,2022.1.3,Win32,120.0768492,62c50e9c1127f2cd403a315f,0,11,11,103,1,fourthree,,,,,,,,,,,,,,,,,,,,,,,,,,,,,,,,,,,,,,,,,,,,,,,,,,,,,,,,,,,,,,,,,,,,,,,,,,,,,,,,,,,,,,,,,,,,,,,,,,,,,,,,,,,,,,,,,,,,,,,,,,,,,,,,,,,,,,,,,,,,,,,,,,,,,,,,,,,,,
,,,,,,5dfc2bdd77f86595eeaacdd1,62c53a5907160c13dfb487db,2022-07-06_17h32.07.491,Colour_Asymmetry_Pilot,2022.1.3,Win32,120.0768492,62c50e9c1127f2cd403a315f,0,12,12,108,1,threeone,,,,,,,,,,,,,,,,,,,,,,,,,,,,,,,,,,,,,,,,,,,,,,,,,,,,,,,,,,,,,,,,,,,,,,,,,,,,,,,,,,,,,,,,,,,,,,,,,,,,,,,,,,,,,,,,,,,,,,,,,,,,,,,,,,,,,,,,,,,,,,,,,,,,,,,,,,,,,
,,,,,,5dfc2bdd77f86595eeaacdd1,62c53a5907160c13dfb487db,2022-07-06_17h32.07.491,Colour_Asymmetry_Pilot,2022.1.3,Win32,120.0768492,62c50e9c1127f2cd403a315f,0,13,13,10,1,twoone,,,,,,,,,,,,,,,,,,,,,,,,,,,,,,,,,,,,,,,,,,,,,,,,,,,,,,,,,,,,,,,,,,,,,,,,,,,,,,,,,,,,,,,,,,,,,,,,,,,,,,,,,,,,,,,,,,,,,,,,,,,,,,,,,,,,,,,,,,,,,,,,,,,,,,,,,,,,,
,,,,,,5dfc2bdd77f86595eeaacdd1,62c53a5907160c13dfb487db,2022-07-06_17h32.07.491,Colour_Asymmetry_Pilot,2022.1.3,Win32,120.0768492,62c50e9c1127f2cd403a315f,0,14,14,80,1,onetwo,,,,,,,,,,,,,,,,,,,,,,,,,,,,,,,,,,,,,,,,,,,,,,,,,,,,,,,,,,,,,,,,,,,,,,,,,,,,,,,,,,,,,,,,,,,,,,,,,,,,,,,,,,,,,,,,,,,,,,,,,,,,,,,,,,,,,,,,,,,,,,,,,,,,,,,,,,,,,
,,,,,,5dfc2bdd77f86595eeaacdd1,62c53a5907160c13dfb487db,2022-07-06_17h32.07.491,Colour_Asymmetry_Pilot,2022.1.3,Win32,120.0768492,62c50e9c1127f2cd403a315f,0,15,15,69,1,threefour,,,,,,,,,,,,,,,,,,,,,,,,,,,,,,,,,,,,,,,,,,,,,,,,,,,,,,,,,,,,,,,,,,,,,,,,,,,,,,,,,,,,,,,,,,,,,,,,,,,,,,,,,,,,,,,,,,,,,,,,,,,,,,,,,,,,,,,,,,,,,,,,,,,,,,,,,,,,,
,,,,,,5dfc2bdd77f86595eeaacdd1,62c53a5907160c13dfb487db,2022-07-06_17h32.07.491,Colour_Asymmetry_Pilot,2022.1.3,Win32,120.0768492,62c50e9c1127f2cd403a315f,0,16,16,145,1,onethree,,,,,,,,,,,,,,,,,,,,,,,,,,,,,,,,,,,,,,,,,,,,,,,,,,,,,,,,,,,,,,,,,,,,,,,,,,,,,,,,,,,,,,,,,,,,,,,,,,,,,,,,,,,,,,,,,,,,,,,,,,,,,,,,,,,,,,,,,,,,,,,,,,,,,,,,,,,,,
,,,,,,5dfc2bdd77f86595eeaacdd1,62c53a5907160c13dfb487db,2022-07-06_17h32.07.491,Colour_Asymmetry_Pilot,2022.1.3,Win32,120.0768492,62c50e9c1127f2cd403a315f,0,17,17,7,1,fourthree,,,,,,,,,,,,,,,,,,,,,,,,,,,,,,,,,,,,,,,,,,,,,,,,,,,,,,,,,,,,,,,,,,,,,,,,,,,,,,,,,,,,,,,,,,,,,,,,,,,,,,,,,,,,,,,,,,,,,,,,,,,,,,,,,,,,,,,,,,,,,,,,,,,,,,,,,,,,,
,,,,,,5dfc2bdd77f86595eeaacdd1,62c53a5907160c13dfb487db,2022-07-06_17h32.07.491,Colour_Asymmetry_Pilot,2022.1.3,Win32,120.0768492,62c50e9c1127f2cd403a315f,0,18,18,18,1,twoone,,,,,,,,,,,,,,,,,,,,,,,,,,,,,,,,,,,,,,,,,,,,,,,,,,,,,,,,,,,,,,,,,,,,,,,,,,,,,,,,,,,,,,,,,,,,,,,,,,,,,,,,,,,,,,,,,,,,,,,,,,,,,,,,,,,,,,,,,,,,,,,,,,,,,,,,,,,,,
,,,,,,5dfc2bdd77f86595eeaacdd1,62c53a5907160c13dfb487db,2022-07-06_17h32.07.491,Colour_Asymmetry_Pilot,2022.1.3,Win32,120.0768492,62c50e9c1127f2cd403a315f,0,19,19,155,1,twofour,,,,,,,,,,,,,,,,,,,,,,,,,,,,,,,,,,,,,,,,,,,,,,,,,,,,,,,,,,,,,,,,,,,,,,,,,,,,,,,,,,,,,,,,,,,,,,,,,,,,,,,,,,,,,,,,,,,,,,,,,,,,,,,,,,,,,,,,,,,,,,,,,,,,,,,,,,,,,
,,,,,,5dfc2bdd77f86595eeaacdd1,62c53a5907160c13dfb487db,2022-07-06_17h32.07.491,Colour_Asymmetry_Pilot,2022.1.3,Win32,120.0768492,62c50e9c1127f2cd403a315f,0,20,20,150,1,fourtwo,,,,,,,,,,,,,,,,,,,,,,,,,,,,,,,,,,,,,,,,,,,,,,,,,,,,,,,,,,,,,,,,,,,,,,,,,,,,,,,,,,,,,,,,,,,,,,,,,,,,,,,,,,,,,,,,,,,,,,,,,,,,,,,,,,,,,,,,,,,,,,,,,,,,,,,,,,,,,
,,,,,,5dfc2bdd77f86595eeaacdd1,62c53a5907160c13dfb487db,2022-07-06_17h32.07.491,Colour_Asymmetry_Pilot,2022.1.3,Win32,120.0768492,62c50e9c1127f2cd403a315f,0,21,21,146,1,twoone,,,,,,,,,,,,,,,,,,,,,,,,,,,,,,,,,,,,,,,,,,,,,,,,,,,,,,,,,,,,,,,,,,,,,,,,,,,,,,,,,,,,,,,,,,,,,,,,,,,,,,,,,,,,,,,,,,,,,,,,,,,,,,,,,,,,,,,,,,,,,,,,,,,,,,,,,,,,,
,,,,,,5dfc2bdd77f86595eeaacdd1,62c53a5907160c13dfb487db,2022-07-06_17h32.07.491,Colour_Asymmetry_Pilot,2022.1.3,Win32,120.0768492,62c50e9c1127f2cd403a315f,0,22,22,104,1,onetwo,,,,,,,,,,,,,,,,,,,,,,,,,,,,,,,,,,,,,,,,,,,,,,,,,,,,,,,,,,,,,,,,,,,,,,,,,,,,,,,,,,,,,,,,,,,,,,,,,,,,,,,,,,,,,,,,,,,,,,,,,,,,,,,,,,,,,,,,,,,,,,,,,,,,,,,,,,,,,
,,,,,,5dfc2bdd77f86595eeaacdd1,62c53a5907160c13dfb487db,2022-07-06_17h32.07.491,Colour_Asymmetry_Pilot,2022.1.3,Win32,120.0768492,62c50e9c1127f2cd403a315f,0,23,23,99,1,twofour,,,,,,,,,,,,,,,,,,,,,,,,,,,,,,,,,,,,,,,,,,,,,,,,,,,,,,,,,,,,,,,,,,,,,,,,,,,,,,,,,,,,,,,,,,,,,,,,,,,,,,,,,,,,,,,,,,,,,,,,,,,,,,,,,,,,,,,,,,,,,,,,,,,,,,,,,,,,,
,,,,,,5dfc2bdd77f86595eeaacdd1,62c53a5907160c13dfb487db,2022-07-06_17h32.07.491,Colour_Asymmetry_Pilot,2022.1.3,Win32,120.0768492,62c50e9c1127f2cd403a315f,0,24,24,92,1,threeone,,,,,,,,,,,,,,,,,,,,,,,,,,,,,,,,,,,,,,,,,,,,,,,,,,,,,,,,,,,,,,,,,,,,,,,,,,,,,,,,,,,,,,,,,,,,,,,,,,,,,,,,,,,,,,,,,,,,,,,,,,,,,,,,,,,,,,,,,,,,,,,,,,,,,,,,,,,,,
,,,,,,5dfc2bdd77f86595eeaacdd1,62c53a5907160c13dfb487db,2022-07-06_17h32.07.491,Colour_Asymmetry_Pilot,2022.1.3,Win32,120.0768492,62c50e9c1127f2cd403a315f,0,25,25,95,1,fourthree,,,,,,,,,,,,,,,,,,,,,,,,,,,,,,,,,,,,,,,,,,,,,,,,,,,,,,,,,,,,,,,,,,,,,,,,,,,,,,,,,,,,,,,,,,,,,,,,,,,,,,,,,,,,,,,,,,,,,,,,,,,,,,,,,,,,,,,,,,,,,,,,,,,,,,,,,,,,,
,,,,,,5dfc2bdd77f86595eeaacdd1,62c53a5907160c13dfb487db,2022-07-06_17h32.07.491,Colour_Asymmetry_Pilot,2022.1.3,Win32,120.0768492,62c50e9c1127f2cd403a315f,0,26,26,132,1,threeone,,,,,,,,,,,,,,,,,,,,,,,,,,,,,,,,,,,,,,,,,,,,,,,,,,,,,,,,,,,,,,,,,,,,,,,,,,,,,,,,,,,,,,,,,,,,,,,,,,,,,,,,,,,,,,,,,,,,,,,,,,,,,,,,,,,,,,,,,,,,,,,,,,,,,,,,,,,,,
,,,,,,5dfc2bdd77f86595eeaacdd1,62c53a5907160c13dfb487db,2022-07-06_17h32.07.491,Colour_Asymmetry_Pilot,2022.1.3,Win32,120.0768492,62c50e9c1127f2cd403a315f,0,27,27,93,1,threefour,,,,,,,,,,,,,,,,,,,,,,,,,,,,,,,,,,,,,,,,,,,,,,,,,,,,,,,,,,,,,,,,,,,,,,,,,,,,,,,,,,,,,,,,,,,,,,,,,,,,,,,,,,,,,,,,,,,,,,,,,,,,,,,,,,,,,,,,,,,,,,,,,,,,,,,,,,,,,
,,,,,,5dfc2bdd77f86595eeaacdd1,62c53a5907160c13dfb487db,2022-07-06_17h32.07.491,Colour_Asymmetry_Pilot,2022.1.3,Win32,120.0768492,62c50e9c1127f2cd403a315f,0,28,28,158,1,fourtwo,,,,,,,,,,,,,,,,,,,,,,,,,,,,,,,,,,,,,,,,,,,,,,,,,,,,,,,,,,,,,,,,,,,,,,,,,,,,,,,,,,,,,,,,,,,,,,,,,,,,,,,,,,,,,,,,,,,,,,,,,,,,,,,,,,,,,,,,,,,,,,,,,,,,,,,,,,,,,
,,,,,,5dfc2bdd77f86595eeaacdd1,62c53a5907160c13dfb487db,2022-07-06_17h32.07.491,Colour_Asymmetry_Pilot,2022.1.3,Win32,120.0768492,62c50e9c1127f2cd403a315f,0,29,29,32,1,onetwo,,,,,,,,,,,,,,,,,,,,,,,,,,,,,,,,,,,,,,,,,,,,,,,,,,,,,,,,,,,,,,,,,,,,,,,,,,,,,,,,,,,,,,,,,,,,,,,,,,,,,,,,,,,,,,,,,,,,,,,,,,,,,,,,,,,,,,,,,,,,,,,,,,,,,,,,,,,,,
,,,,,,5dfc2bdd77f86595eeaacdd1,62c53a5907160c13dfb487db,2022-07-06_17h32.07.491,Colour_Asymmetry_Pilot,2022.1.3,Win32,120.0768492,62c50e9c1127f2cd403a315f,0,30,30,122,1,twoone,,,,,,,,,,,,,,,,,,,,,,,,,,,,,,,,,,,,,,,,,,,,,,,,,,,,,,,,,,,,,,,,,,,,,,,,,,,,,,,,,,,,,,,,,,,,,,,,,,,,,,,,,,,,,,,,,,,,,,,,,,,,,,,,,,,,,,,,,,,,,,,,,,,,,,,,,,,,,
,,,,,,5dfc2bdd77f86595eeaacdd1,62c53a5907160c13dfb487db,2022-07-06_17h32.07.491,Colour_Asymmetry_Pilot,2022.1.3,Win32,120.0768492,62c50e9c1127f2cd403a315f,0,31,31,47,1,fourthree,,,,,,,,,,,,,,,,,,,,,,,,,,,,,,,,,,,,,,,,,,,,,,,,,,,,,,,,,,,,,,,,,,,,,,,,,,,,,,,,,,,,,,,,,,,,,,,,,,,,,,,,,,,,,,,,,,,,,,,,,,,,,,,,,,,,,,,,,,,,,,,,,,,,,,,,,,,,,
,,,,,,5dfc2bdd77f86595eeaacdd1,62c53a5907160c13dfb487db,2022-07-06_17h32.07.491,Colour_Asymmetry_Pilot,2022.1.3,Win32,120.0768492,62c50e9c1127f2cd403a315f,0,32,32,111,1,fourthree,,,,,,,,,,,,,,,,,,,,,,,,,,,,,,,,,,,,,,,,,,,,,,,,,,,,,,,,,,,,,,,,,,,,,,,,,,,,,,,,,,,,,,,,,,,,,,,,,,,,,,,,,,,,,,,,,,,,,,,,,,,,,,,,,,,,,,,,,,,,,,,,,,,,,,,,,,,,,
,,,,,,5dfc2bdd77f86595eeaacdd1,62c53a5907160c13dfb487db,2022-07-06_17h32.07.491,Colour_Asymmetry_Pilot,2022.1.3,Win32,120.0768492,62c50e9c1127f2cd403a315f,0,33,33,11,1,twofour,,,,,,,,,,,,,,,,,,,,,,,,,,,,,,,,,,,,,,,,,,,,,,,,,,,,,,,,,,,,,,,,,,,,,,,,,,,,,,,,,,,,,,,,,,,,,,,,,,,,,,,,,,,,,,,,,,,,,,,,,,,,,,,,,,,,,,,,,,,,,,,,,,,,,,,,,,,,,
,,,,,,5dfc2bdd77f86595eeaacdd1,62c53a5907160c13dfb487db,2022-07-06_17h32.07.491,Colour_Asymmetry_Pilot,2022.1.3,Win32,120.0768492,62c50e9c1127f2cd403a315f,0,34,34,5,1,threefour,,,,,,,,,,,,,,,,,,,,,,,,,,,,,,,,,,,,,,,,,,,,,,,,,,,,,,,,,,,,,,,,,,,,,,,,,,,,,,,,,,,,,,,,,,,,,,,,,,,,,,,,,,,,,,,,,,,,,,,,,,,,,,,,,,,,,,,,,,,,,,,,,,,,,,,,,,,,,
,,,,,,5dfc2bdd77f86595eeaacdd1,62c53a5907160c13dfb487db,2022-07-06_17h32.07.491,Colour_Asymmetry_Pilot,2022.1.3,Win32,120.0768492,62c50e9c1127f2cd403a315f,0,35,35,88,1,onetwo,,,,,,,,,,,,,,,,,,,,,,,,,,,,,,,,,,,,,,,,,,,,,,,,,,,,,,,,,,,,,,,,,,,,,,,,,,,,,,,,,,,,,,,,,,,,,,,,,,,,,,,,,,,,,,,,,,,,,,,,,,,,,,,,,,,,,,,,,,,,,,,,,,,,,,,,,,,,,
,,,,,,5dfc2bdd77f86595eeaacdd1,62c53a5907160c13dfb487db,2022-07-06_17h32.07.491,Colour_Asymmetry_Pilot,2022.1.3,Win32,120.0768492,62c50e9c1127f2cd403a315f,0,36,36,20,1,threeone,,,,,,,,,,,,,,,,,,,,,,,,,,,,,,,,,,,,,,,,,,,,,,,,,,,,,,,,,,,,,,,,,,,,,,,,,,,,,,,,,,,,,,,,,,,,,,,,,,,,,,,,,,,,,,,,,,,,,,,,,,,,,,,,,,,,,,,,,,,,,,,,,,,,,,,,,,,,,
,,,,,,5dfc2bdd77f86595eeaacdd1,62c53a5907160c13dfb487db,2022-07-06_17h32.07.491,Colour_Asymmetry_Pilot,2022.1.3,Win32,120.0768492,62c50e9c1127f2cd403a315f,0,37,37,83,1,twofour,,,,,,,,,,,,,,,,,,,,,,,,,,,,,,,,,,,,,,,,,,,,,,,,,,,,,,,,,,,,,,,,,,,,,,,,,,,,,,,,,,,,,,,,,,,,,,,,,,,,,,,,,,,,,,,,,,,,,,,,,,,,,,,,,,,,,,,,,,,,,,,,,,,,,,,,,,,,,
,,,,,,5dfc2bdd77f86595eeaacdd1,62c53a5907160c13dfb487db,2022-07-06_17h32.07.491,Colour_Asymmetry_Pilot,2022.1.3,Win32,120.0768492,62c50e9c1127f2cd403a315f,0,38,38,49,1,onethree,,,,,,,,,,,,,,,,,,,,,,,,,,,,,,,,,,,,,,,,,,,,,,,,,,,,,,,,,,,,,,,,,,,,,,,,,,,,,,,,,,,,,,,,,,,,,,,,,,,,,,,,,,,,,,,,,,,,,,,,,,,,,,,,,,,,,,,,,,,,,,,,,,,,,,,,,,,,,
,,,,,,5dfc2bdd77f86595eeaacdd1,62c53a5907160c13dfb487db,2022-07-06_17h32.07.491,Colour_Asymmetry_Pilot,2022.1.3,Win32,120.0768492,62c50e9c1127f2cd403a315f,0,39,39,102,1,fourtwo,,,,,,,,,,,,,,,,,,,,,,,,,,,,,,,,,,,,,,,,,,,,,,,,,,,,,,,,,,,,,,,,,,,,,,,,,,,,,,,,,,,,,,,,,,,,,,,,,,,,,,,,,,,,,,,,,,,,,,,,,,,,,,,,,,,,,,,,,,,,,,,,,,,,,,,,,,,,,
,,,,,,5dfc2bdd77f86595eeaacdd1,62c53a5907160c13dfb487db,2022-07-06_17h32.07.491,Colour_Asymmetry_Pilot,2022.1.3,Win32,120.0768492,62c50e9c1127f2cd403a315f,0,40,40,43,1,twofour,,,,,,,,,,,,,,,,,,,,,,,,,,,,,,,,,,,,,,,,,,,,,,,,,,,,,,,,,,,,,,,,,,,,,,,,,,,,,,,,,,,,,,,,,,,,,,,,,,,,,,,,,,,,,,,,,,,,,,,,,,,,,,,,,,,,,,,,,,,,,,,,,,,,,,,,,,,,,
,,,,,,5dfc2bdd77f86595eeaacdd1,62c53a5907160c13dfb487db,2022-07-06_17h32.07.491,Colour_Asymmetry_Pilot,2022.1.3,Win32,120.0768492,62c50e9c1127f2cd403a315f,0,41,41,68,1,threeone,,,,,,,,,,,,,,,,,,,,,,,,,,,,,,,,,,,,,,,,,,,,,,,,,,,,,,,,,,,,,,,,,,,,,,,,,,,,,,,,,,,,,,,,,,,,,,,,,,,,,,,,,,,,,,,,,,,,,,,,,,,,,,,,,,,,,,,,,,,,,,,,,,,,,,,,,,,,,
,,,,,,5dfc2bdd77f86595eeaacdd1,62c53a5907160c13dfb487db,2022-07-06_17h32.07.491,Colour_Asymmetry_Pilot,2022.1.3,Win32,120.0768492,62c50e9c1127f2cd403a315f,0,42,42,24,1,onetwo,,,,,,,,,,,,,,,,,,,,,,,,,,,,,,,,,,,,,,,,,,,,,,,,,,,,,,,,,,,,,,,,,,,,,,,,,,,,,,,,,,,,,,,,,,,,,,,,,,,,,,,,,,,,,,,,,,,,,,,,,,,,,,,,,,,,,,,,,,,,,,,,,,,,,,,,,,,,,
,,,,,,5dfc2bdd77f86595eeaacdd1,62c53a5907160c13dfb487db,2022-07-06_17h32.07.491,Colour_Asymmetry_Pilot,2022.1.3,Win32,120.0768492,62c50e9c1127f2cd403a315f,0,43,43,114,1,twoone,,,,,,,,,,,,,,,,,,,,,,,,,,,,,,,,,,,,,,,,,,,,,,,,,,,,,,,,,,,,,,,,,,,,,,,,,,,,,,,,,,,,,,,,,,,,,,,,,,,,,,,,,,,,,,,,,,,,,,,,,,,,,,,,,,,,,,,,,,,,,,,,,,,,,,,,,,,,,
,,,,,,5dfc2bdd77f86595eeaacdd1,62c53a5907160c13dfb487db,2022-07-06_17h32.07.491,Colour_Asymmetry_Pilot,2022.1.3,Win32,120.0768492,62c50e9c1127f2cd403a315f,0,44,44,40,1,onetwo,,,,,,,,,,,,,,,,,,,,,,,,,,,,,,,,,,,,,,,,,,,,,,,,,,,,,,,,,,,,,,,,,,,,,,,,,,,,,,,,,,,,,,,,,,,,,,,,,,,,,,,,,,,,,,,,,,,,,,,,,,,,,,,,,,,,,,,,,,,,,,,,,,,,,,,,,,,,,
,,,,,,5dfc2bdd77f86595eeaacdd1,62c53a5907160c13dfb487db,2022-07-06_17h32.07.491,Colour_Asymmetry_Pilot,2022.1.3,Win32,120.0768492,62c50e9c1127f2cd403a315f,0,45,45,52,1,threeone,,,,,,,,,,,,,,,,,,,,,,,,,,,,,,,,,,,,,,,,,,,,,,,,,,,,,,,,,,,,,,,,,,,,,,,,,,,,,,,,,,,,,,,,,,,,,,,,,,,,,,,,,,,,,,,,,,,,,,,,,,,,,,,,,,,,,,,,,,,,,,,,,,,,,,,,,,,,,
,,,,,,5dfc2bdd77f86595eeaacdd1,62c53a5907160c13dfb487db,2022-07-06_17h32.07.491,Colour_Asymmetry_Pilot,2022.1.3,Win32,120.0768492,62c50e9c1127f2cd403a315f,0,46,46,9,1,onethree,,,,,,,,,,,,,,,,,,,,,,,,,,,,,,,,,,,,,,,,,,,,,,,,,,,,,,,,,,,,,,,,,,,,,,,,,,,,,,,,,,,,,,,,,,,,,,,,,,,,,,,,,,,,,,,,,,,,,,,,,,,,,,,,,,,,,,,,,,,,,,,,,,,,,,,,,,,,,
,,,,,,5dfc2bdd77f86595eeaacdd1,62c53a5907160c13dfb487db,2022-07-06_17h32.07.491,Colour_Asymmetry_Pilot,2022.1.3,Win32,120.0768492,62c50e9c1127f2cd403a315f,0,47,47,46,1,fourtwo,,,,,,,,,,,,,,,,,,,,,,,,,,,,,,,,,,,,,,,,,,,,,,,,,,,,,,,,,,,,,,,,,,,,,,,,,,,,,,,,,,,,,,,,,,,,,,,,,,,,,,,,,,,,,,,,,,,,,,,,,,,,,,,,,,,,,,,,,,,,,,,,,,,,,,,,,,,,,
,,,,,,5dfc2bdd77f86595eeaacdd1,62c53a5907160c13dfb487db,2022-07-06_17h32.07.491,Colour_Asymmetry_Pilot,2022.1.3,Win32,120.0768492,62c50e9c1127f2cd403a315f,0,48,48,110,1,fourtwo,,,,,,,,,,,,,,,,,,,,,,,,,,,,,,,,,,,,,,,,,,,,,,,,,,,,,,,,,,,,,,,,,,,,,,,,,,,,,,,,,,,,,,,,,,,,,,,,,,,,,,,,,,,,,,,,,,,,,,,,,,,,,,,,,,,,,,,,,,,,,,,,,,,,,,,,,,,,,
,,,,,,5dfc2bdd77f86595eeaacdd1,62c53a5907160c13dfb487db,2022-07-06_17h32.07.491,Colour_Asymmetry_Pilot,2022.1.3,Win32,120.0768492,62c50e9c1127f2cd403a315f,0,49,49,128,1,onetwo,,,,,,,,,,,,,,,,,,,,,,,,,,,,,,,,,,,,,,,,,,,,,,,,,,,,,,,,,,,,,,,,,,,,,,,,,,,,,,,,,,,,,,,,,,,,,,,,,,,,,,,,,,,,,,,,,,,,,,,,,,,,,,,,,,,,,,,,,,,,,,,,,,,,,,,,,,,,,
,,,,,,5dfc2bdd77f86595eeaacdd1,62c53a5907160c13dfb487db,2022-07-06_17h32.07.491,Colour_Asymmetry_Pilot,2022.1.3,Win32,120.0768492,62c50e9c1127f2cd403a315f,0,50,50,17,1,onethree,,,,,,,,,,,,,,,,,,,,,,,,,,,,,,,,,,,,,,,,,,,,,,,,,,,,,,,,,,,,,,,,,,,,,,,,,,,,,,,,,,,,,,,,,,,,,,,,,,,,,,,,,,,,,,,,,,,,,,,,,,,,,,,,,,,,,,,,,,,,,,,,,,,,,,,,,,,,,
,,,,,,5dfc2bdd77f86595eeaacdd1,62c53a5907160c13dfb487db,2022-07-06_17h32.07.491,Colour_Asymmetry_Pilot,2022.1.3,Win32,120.0768492,62c50e9c1127f2cd403a315f,0,51,51,90,1,twoone,,,,,,,,,,,,,,,,,,,,,,,,,,,,,,,,,,,,,,,,,,,,,,,,,,,,,,,,,,,,,,,,,,,,,,,,,,,,,,,,,,,,,,,,,,,,,,,,,,,,,,,,,,,,,,,,,,,,,,,,,,,,,,,,,,,,,,,,,,,,,,,,,,,,,,,,,,,,,
,,,,,,5dfc2bdd77f86595eeaacdd1,62c53a5907160c13dfb487db,2022-07-06_17h32.07.491,Colour_Asymmetry_Pilot,2022.1.3,Win32,120.0768492,62c50e9c1127f2cd403a315f,0,52,52,77,1,threefour,,,,,,,,,,,,,,,,,,,,,,,,,,,,,,,,,,,,,,,,,,,,,,,,,,,,,,,,,,,,,,,,,,,,,,,,,,,,,,,,,,,,,,,,,,,,,,,,,,,,,,,,,,,,,,,,,,,,,,,,,,,,,,,,,,,,,,,,,,,,,,,,,,,,,,,,,,,,,
,,,,,,5dfc2bdd77f86595eeaacdd1,62c53a5907160c13dfb487db,2022-07-06_17h32.07.491,Colour_Asymmetry_Pilot,2022.1.3,Win32,120.0768492,62c50e9c1127f2cd403a315f,0,53,53,139,1,twofour,,,,,,,,,,,,,,,,,,,,,,,,,,,,,,,,,,,,,,,,,,,,,,,,,,,,,,,,,,,,,,,,,,,,,,,,,,,,,,,,,,,,,,,,,,,,,,,,,,,,,,,,,,,,,,,,,,,,,,,,,,,,,,,,,,,,,,,,,,,,,,,,,,,,,,,,,,,,,
,,,,,,5dfc2bdd77f86595eeaacdd1,62c53a5907160c13dfb487db,2022-07-06_17h32.07.491,Colour_Asymmetry_Pilot,2022.1.3,Win32,120.0768492,62c50e9c1127f2cd403a315f,0,54,54,33,1,onethree,,,,,,,,,,,,,,,,,,,,,,,,,,,,,,,,,,,,,,,,,,,,,,,,,,,,,,,,,,,,,,,,,,,,,,,,,,,,,,,,,,,,,,,,,,,,,,,,,,,,,,,,,,,,,,,,,,,,,,,,,,,,,,,,,,,,,,,,,,,,,,,,,,,,,,,,,,,,,
,,,,,,5dfc2bdd77f86595eeaacdd1,62c53a5907160c13dfb487db,2022-07-06_17h32.07.491,Colour_Asymmetry_Pilot,2022.1.3,Win32,120.0768492,62c50e9c1127f2cd403a315f,0,55,55,54,1,fourtwo,,,,,,,,,,,,,,,,,,,,,,,,,,,,,,,,,,,,,,,,,,,,,,,,,,,,,,,,,,,,,,,,,,,,,,,,,,,,,,,,,,,,,,,,,,,,,,,,,,,,,,,,,,,,,,,,,,,,,,,,,,,,,,,,,,,,,,,,,,,,,,,,,,,,,,,,,,,,,
,,,,,,5dfc2bdd77f86595eeaacdd1,62c53a5907160c13dfb487db,2022-07-06_17h32.07.491,Colour_Asymmetry_Pilot,2022.1.3,Win32,120.0768492,62c50e9c1127f2cd403a315f,0,56,56,19,1,twofour,,,,,,,,,,,,,,,,,,,,,,,,,,,,,,,,,,,,,,,,,,,,,,,,,,,,,,,,,,,,,,,,,,,,,,,,,,,,,,,,,,,,,,,,,,,,,,,,,,,,,,,,,,,,,,,,,,,,,,,,,,,,,,,,,,,,,,,,,,,,,,,,,,,,,,,,,,,,,
,,,,,,5dfc2bdd77f86595eeaacdd1,62c53a5907160c13dfb487db,2022-07-06_17h32.07.491,Colour_Asymmetry_Pilot,2022.1.3,Win32,120.0768492,62c50e9c1127f2cd403a315f,0,57,57,144,1,onetwo,,,,,,,,,,,,,,,,,,,,,,,,,,,,,,,,,,,,,,,,,,,,,,,,,,,,,,,,,,,,,,,,,,,,,,,,,,,,,,,,,,,,,,,,,,,,,,,,,,,,,,,,,,,,,,,,,,,,,,,,,,,,,,,,,,,,,,,,,,,,,,,,,,,,,,,,,,,,,
,,,,,,5dfc2bdd77f86595eeaacdd1,62c53a5907160c13dfb487db,2022-07-06_17h32.07.491,Colour_Asymmetry_Pilot,2022.1.3,Win32,120.0768492,62c50e9c1127f2cd403a315f,0,58,58,12,1,threeone,,,,,,,,,,,,,,,,,,,,,,,,,,,,,,,,,,,,,,,,,,,,,,,,,,,,,,,,,,,,,,,,,,,,,,,,,,,,,,,,,,,,,,,,,,,,,,,,,,,,,,,,,,,,,,,,,,,,,,,,,,,,,,,,,,,,,,,,,,,,,,,,,,,,,,,,,,,,,
,,,,,,5dfc2bdd77f86595eeaacdd1,62c53a5907160c13dfb487db,2022-07-06_17h32.07.491,Colour_Asymmetry_Pilot,2022.1.3,Win32,120.0768492,62c50e9c1127f2cd403a315f,0,59,59,115,1,twofour,,,,,,,,,,,,,,,,,,,,,,,,,,,,,,,,,,,,,,,,,,,,,,,,,,,,,,,,,,,,,,,,,,,,,,,,,,,,,,,,,,,,,,,,,,,,,,,,,,,,,,,,,,,,,,,,,,,,,,,,,,,,,,,,,,,,,,,,,,,,,,,,,,,,,,,,,,,,,
,,,,,,5dfc2bdd77f86595eeaacdd1,62c53a5907160c13dfb487db,2022-07-06_17h32.07.491,Colour_Asymmetry_Pilot,2022.1.3,Win32,120.0768492,62c50e9c1127f2cd403a315f,0,60,60,74,1,twoone,,,,,,,,,,,,,,,,,,,,,,,,,,,,,,,,,,,,,,,,,,,,,,,,,,,,,,,,,,,,,,,,,,,,,,,,,,,,,,,,,,,,,,,,,,,,,,,,,,,,,,,,,,,,,,,,,,,,,,,,,,,,,,,,,,,,,,,,,,,,,,,,,,,,,,,,,,,,,
,,,,,,5dfc2bdd77f86595eeaacdd1,62c53a5907160c13dfb487db,2022-07-06_17h32.07.491,Colour_Asymmetry_Pilot,2022.1.3,Win32,120.0768492,62c50e9c1127f2cd403a315f,0,61,61,63,1,fourthree,,,,,,,,,,,,,,,,,,,,,,,,,,,,,,,,,,,,,,,,,,,,,,,,,,,,,,,,,,,,,,,,,,,,,,,,,,,,,,,,,,,,,,,,,,,,,,,,,,,,,,,,,,,,,,,,,,,,,,,,,,,,,,,,,,,,,,,,,,,,,,,,,,,,,,,,,,,,,
,,,,,,5dfc2bdd77f86595eeaacdd1,62c53a5907160c13dfb487db,2022-07-06_17h32.07.491,Colour_Asymmetry_Pilot,2022.1.3,Win32,120.0768492,62c50e9c1127f2cd403a315f,0,62,62,159,1,fourthree,,,,,,,,,,,,,,,,,,,,,,,,,,,,,,,,,,,,,,,,,,,,,,,,,,,,,,,,,,,,,,,,,,,,,,,,,,,,,,,,,,,,,,,,,,,,,,,,,,,,,,,,,,,,,,,,,,,,,,,,,,,,,,,,,,,,,,,,,,,,,,,,,,,,,,,,,,,,,
,,,,,,5dfc2bdd77f86595eeaacdd1,62c53a5907160c13dfb487db,2022-07-06_17h32.07.491,Colour_Asymmetry_Pilot,2022.1.3,Win32,120.0768492,62c50e9c1127f2cd403a315f,0,63,63,134,1,fourtwo,,,,,,,,,,,,,,,,,,,,,,,,,,,,,,,,,,,,,,,,,,,,,,,,,,,,,,,,,,,,,,,,,,,,,,,,,,,,,,,,,,,,,,,,,,,,,,,,,,,,,,,,,,,,,,,,,,,,,,,,,,,,,,,,,,,,,,,,,,,,,,,,,,,,,,,,,,,,,
,,,,,,5dfc2bdd77f86595eeaacdd1,62c53a5907160c13dfb487db,2022-07-06_17h32.07.491,Colour_Asymmetry_Pilot,2022.1.3,Win32,120.0768492,62c50e9c1127f2cd403a315f,0,64,64,51,1,twofour,,,,,,,,,,,,,,,,,,,,,,,,,,,,,,,,,,,,,,,,,,,,,,,,,,,,,,,,,,,,,,,,,,,,,,,,,,,,,,,,,,,,,,,,,,,,,,,,,,,,,,,,,,,,,,,,,,,,,,,,,,,,,,,,,,,,,,,,,,,,,,,,,,,,,,,,,,,,,
,,,,,,5dfc2bdd77f86595eeaacdd1,62c53a5907160c13dfb487db,2022-07-06_17h32.07.491,Colour_Asymmetry_Pilot,2022.1.3,Win32,120.0768492,62c50e9c1127f2cd403a315f,0,65,65,123,1,twofour,,,,,,,,,,,,,,,,,,,,,,,,,,,,,,,,,,,,,,,,,,,,,,,,,,,,,,,,,,,,,,,,,,,,,,,,,,,,,,,,,,,,,,,,,,,,,,,,,,,,,,,,,,,,,,,,,,,,,,,,,,,,,,,,,,,,,,,,,,,,,,,,,,,,,,,,,,,,,
,,,,,,5dfc2bdd77f86595eeaacdd1,62c53a5907160c13dfb487db,2022-07-06_17h32.07.491,Colour_Asymmetry_Pilot,2022.1.3,Win32,120.0768492,62c50e9c1127f2cd403a315f,0,66,66,117,1,threefour,,,,,,,,,,,,,,,,,,,,,,,,,,,,,,,,,,,,,,,,,,,,,,,,,,,,,,,,,,,,,,,,,,,,,,,,,,,,,,,,,,,,,,,,,,,,,,,,,,,,,,,,,,,,,,,,,,,,,,,,,,,,,,,,,,,,,,,,,,,,,,,,,,,,,,,,,,,,,
,,,,,,5dfc2bdd77f86595eeaacdd1,62c53a5907160c13dfb487db,2022-07-06_17h32.07.491,Colour_Asymmetry_Pilot,2022.1.3,Win32,120.0768492,62c50e9c1127f2cd403a315f,0,67,67,44,1,threeone,,,,,,,,,,,,,,,,,,,,,,,,,,,,,,,,,,,,,,,,,,,,,,,,,,,,,,,,,,,,,,,,,,,,,,,,,,,,,,,,,,,,,,,,,,,,,,,,,,,,,,,,,,,,,,,,,,,,,,,,,,,,,,,,,,,,,,,,,,,,,,,,,,,,,,,,,,,,,
,,,,,,5dfc2bdd77f86595eeaacdd1,62c53a5907160c13dfb487db,2022-07-06_17h32.07.491,Colour_Asymmetry_Pilot,2022.1.3,Win32,120.0768492,62c50e9c1127f2cd403a315f,0,68,68,61,1,threefour,,,,,,,,,,,,,,,,,,,,,,,,,,,,,,,,,,,,,,,,,,,,,,,,,,,,,,,,,,,,,,,,,,,,,,,,,,,,,,,,,,,,,,,,,,,,,,,,,,,,,,,,,,,,,,,,,,,,,,,,,,,,,,,,,,,,,,,,,,,,,,,,,,,,,,,,,,,,,
,,,,,,5dfc2bdd77f86595eeaacdd1,62c53a5907160c13dfb487db,2022-07-06_17h32.07.491,Colour_Asymmetry_Pilot,2022.1.3,Win32,120.0768492,62c50e9c1127f2cd403a315f,0,69,69,25,1,onethree,,,,,,,,,,,,,,,,,,,,,,,,,,,,,,,,,,,,,,,,,,,,,,,,,,,,,,,,,,,,,,,,,,,,,,,,,,,,,,,,,,,,,,,,,,,,,,,,,,,,,,,,,,,,,,,,,,,,,,,,,,,,,,,,,,,,,,,,,,,,,,,,,,,,,,,,,,,,,
,,,,,,5dfc2bdd77f86595eeaacdd1,62c53a5907160c13dfb487db,2022-07-06_17h32.07.491,Colour_Asymmetry_Pilot,2022.1.3,Win32,120.0768492,62c50e9c1127f2cd403a315f,0,70,70,26,1,twoone,,,,,,,,,,,,,,,,,,,,,,,,,,,,,,,,,,,,,,,,,,,,,,,,,,,,,,,,,,,,,,,,,,,,,,,,,,,,,,,,,,,,,,,,,,,,,,,,,,,,,,,,,,,,,,,,,,,,,,,,,,,,,,,,,,,,,,,,,,,,,,,,,,,,,,,,,,,,,
,,,,,,5dfc2bdd77f86595eeaacdd1,62c53a5907160c13dfb487db,2022-07-06_17h32.07.491,Colour_Asymmetry_Pilot,2022.1.3,Win32,120.0768492,62c50e9c1127f2cd403a315f,0,71,71,70,1,fourtwo,,,,,,,,,,,,,,,,,,,,,,,,,,,,,,,,,,,,,,,,,,,,,,,,,,,,,,,,,,,,,,,,,,,,,,,,,,,,,,,,,,,,,,,,,,,,,,,,,,,,,,,,,,,,,,,,,,,,,,,,,,,,,,,,,,,,,,,,,,,,,,,,,,,,,,,,,,,,,
,,,,,,5dfc2bdd77f86595eeaacdd1,62c53a5907160c13dfb487db,2022-07-06_17h32.07.491,Colour_Asymmetry_Pilot,2022.1.3,Win32,120.0768492,62c50e9c1127f2cd403a315f,0,72,72,35,1,twofour,,,,,,,,,,,,,,,,,,,,,,,,,,,,,,,,,,,,,,,,,,,,,,,,,,,,,,,,,,,,,,,,,,,,,,,,,,,,,,,,,,,,,,,,,,,,,,,,,,,,,,,,,,,,,,,,,,,,,,,,,,,,,,,,,,,,,,,,,,,,,,,,,,,,,,,,,,,,,
,,,,,,5dfc2bdd77f86595eeaacdd1,62c53a5907160c13dfb487db,2022-07-06_17h32.07.491,Colour_Asymmetry_Pilot,2022.1.3,Win32,120.0768492,62c50e9c1127f2cd403a315f,0,73,73,67,1,twofour,,,,,,,,,,,,,,,,,,,,,,,,,,,,,,,,,,,,,,,,,,,,,,,,,,,,,,,,,,,,,,,,,,,,,,,,,,,,,,,,,,,,,,,,,,,,,,,,,,,,,,,,,,,,,,,,,,,,,,,,,,,,,,,,,,,,,,,,,,,,,,,,,,,,,,,,,,,,,
,,,,,,5dfc2bdd77f86595eeaacdd1,62c53a5907160c13dfb487db,2022-07-06_17h32.07.491,Colour_Asymmetry_Pilot,2022.1.3,Win32,120.0768492,62c50e9c1127f2cd403a315f,0,74,74,125,1,threefour,,,,,,,,,,,,,,,,,,,,,,,,,,,,,,,,,,,,,,,,,,,,,,,,,,,,,,,,,,,,,,,,,,,,,,,,,,,,,,,,,,,,,,,,,,,,,,,,,,,,,,,,,,,,,,,,,,,,,,,,,,,,,,,,,,,,,,,,,,,,,,,,,,,,,,,,,,,,,
,,,,,,5dfc2bdd77f86595eeaacdd1,62c53a5907160c13dfb487db,2022-07-06_17h32.07.491,Colour_Asymmetry_Pilot,2022.1.3,Win32,120.0768492,62c50e9c1127f2cd403a315f,0,75,75,89,1,onethree,,,,,,,,,,,,,,,,,,,,,,,,,,,,,,,,,,,,,,,,,,,,,,,,,,,,,,,,,,,,,,,,,,,,,,,,,,,,,,,,,,,,,,,,,,,,,,,,,,,,,,,,,,,,,,,,,,,,,,,,,,,,,,,,,,,,,,,,,,,,,,,,,,,,,,,,,,,,,
,,,,,,5dfc2bdd77f86595eeaacdd1,62c53a5907160c13dfb487db,2022-07-06_17h32.07.491,Colour_Asymmetry_Pilot,2022.1.3,Win32,120.0768492,62c50e9c1127f2cd403a315f,0,76,76,79,1,fourthree,,,,,,,,,,,,,,,,,,,,,,,,,,,,,,,,,,,,,,,,,,,,,,,,,,,,,,,,,,,,,,,,,,,,,,,,,,,,,,,,,,,,,,,,,,,,,,,,,,,,,,,,,,,,,,,,,,,,,,,,,,,,,,,,,,,,,,,,,,,,,,,,,,,,,,,,,,,,,
,,,,,,5dfc2bdd77f86595eeaacdd1,62c53a5907160c13dfb487db,2022-07-06_17h32.07.491,Colour_Asymmetry_Pilot,2022.1.3,Win32,120.0768492,62c50e9c1127f2cd403a315f,0,77,77,138,1,twoone,,,,,,,,,,,,,,,,,,,,,,,,,,,,,,,,,,,,,,,,,,,,,,,,,,,,,,,,,,,,,,,,,,,,,,,,,,,,,,,,,,,,,,,,,,,,,,,,,,,,,,,,,,,,,,,,,,,,,,,,,,,,,,,,,,,,,,,,,,,,,,,,,,,,,,,,,,,,,
,,,,,,5dfc2bdd77f86595eeaacdd1,62c53a5907160c13dfb487db,2022-07-06_17h32.07.491,Colour_Asymmetry_Pilot,2022.1.3,Win32,120.0768492,62c50e9c1127f2cd403a315f,0,78,78,161,1,onethree,,,,,,,,,,,,,,,,,,,,,,,,,,,,,,,,,,,,,,,,,,,,,,,,,,,,,,,,,,,,,,,,,,,,,,,,,,,,,,,,,,,,,,,,,,,,,,,,,,,,,,,,,,,,,,,,,,,,,,,,,,,,,,,,,,,,,,,,,,,,,,,,,,,,,,,,,,,,,
,,,,,,5dfc2bdd77f86595eeaacdd1,62c53a5907160c13dfb487db,2022-07-06_17h32.07.491,Colour_Asymmetry_Pilot,2022.1.3,Win32,120.0768492,62c50e9c1127f2cd403a315f,0,79,79,6,1,fourtwo,,,,,,,,,,,,,,,,,,,,,,,,,,,,,,,,,,,,,,,,,,,,,,,,,,,,,,,,,,,,,,,,,,,,,,,,,,,,,,,,,,,,,,,,,,,,,,,,,,,,,,,,,,,,,,,,,,,,,,,,,,,,,,,,,,,,,,,,,,,,,,,,,,,,,,,,,,,,,
,,,,,,5dfc2bdd77f86595eeaacdd1,62c53a5907160c13dfb487db,2022-07-06_17h32.07.491,Colour_Asymmetry_Pilot,2022.1.3,Win32,120.0768492,62c50e9c1127f2cd403a315f,0,80,80,64,1,onetwo,,,,,,,,,,,,,,,,,,,,,,,,,,,,,,,,,,,,,,,,,,,,,,,,,,,,,,,,,,,,,,,,,,,,,,,,,,,,,,,,,,,,,,,,,,,,,,,,,,,,,,,,,,,,,,,,,,,,,,,,,,,,,,,,,,,,,,,,,,,,,,,,,,,,,,,,,,,,,
,,,,,,5dfc2bdd77f86595eeaacdd1,62c53a5907160c13dfb487db,2022-07-06_17h32.07.491,Colour_Asymmetry_Pilot,2022.1.3,Win32,120.0768492,62c50e9c1127f2cd403a315f,0,81,81,21,1,threefour,,,,,,,,,,,,,,,,,,,,,,,,,,,,,,,,,,,,,,,,,,,,,,,,,,,,,,,,,,,,,,,,,,,,,,,,,,,,,,,,,,,,,,,,,,,,,,,,,,,,,,,,,,,,,,,,,,,,,,,,,,,,,,,,,,,,,,,,,,,,,,,,,,,,,,,,,,,,,
,,,,,,5dfc2bdd77f86595eeaacdd1,62c53a5907160c13dfb487db,2022-07-06_17h32.07.491,Colour_Asymmetry_Pilot,2022.1.3,Win32,120.0768492,62c50e9c1127f2cd403a315f,0,82,82,136,1,onetwo,,,,,,,,,,,,,,,,,,,,,,,,,,,,,,,,,,,,,,,,,,,,,,,,,,,,,,,,,,,,,,,,,,,,,,,,,,,,,,,,,,,,,,,,,,,,,,,,,,,,,,,,,,,,,,,,,,,,,,,,,,,,,,,,,,,,,,,,,,,,,,,,,,,,,,,,,,,,,
,,,,,,5dfc2bdd77f86595eeaacdd1,62c53a5907160c13dfb487db,2022-07-06_17h32.07.491,Colour_Asymmetry_Pilot,2022.1.3,Win32,120.0768492,62c50e9c1127f2cd403a315f,0,83,83,15,1,fourthree,,,,,,,,,,,,,,,,,,,,,,,,,,,,,,,,,,,,,,,,,,,,,,,,,,,,,,,,,,,,,,,,,,,,,,,,,,,,,,,,,,,,,,,,,,,,,,,,,,,,,,,,,,,,,,,,,,,,,,,,,,,,,,,,,,,,,,,,,,,,,,,,,,,,,,,,,,,,,
,,,,,,5dfc2bdd77f86595eeaacdd1,62c53a5907160c13dfb487db,2022-07-06_17h32.07.491,Colour_Asymmetry_Pilot,2022.1.3,Win32,120.0768492,62c50e9c1127f2cd403a315f,0,84,84,30,1,fourtwo,,,,,,,,,,,,,,,,,,,,,,,,,,,,,,,,,,,,,,,,,,,,,,,,,,,,,,,,,,,,,,,,,,,,,,,,,,,,,,,,,,,,,,,,,,,,,,,,,,,,,,,,,,,,,,,,,,,,,,,,,,,,,,,,,,,,,,,,,,,,,,,,,,,,,,,,,,,,,
,,,,,,5dfc2bdd77f86595eeaacdd1,62c53a5907160c13dfb487db,2022-07-06_17h32.07.491,Colour_Asymmetry_Pilot,2022.1.3,Win32,120.0768492,62c50e9c1127f2cd403a315f,0,85,85,22,1,fourtwo,,,,,,,,,,,,,,,,,,,,,,,,,,,,,,,,,,,,,,,,,,,,,,,,,,,,,,,,,,,,,,,,,,,,,,,,,,,,,,,,,,,,,,,,,,,,,,,,,,,,,,,,,,,,,,,,,,,,,,,,,,,,,,,,,,,,,,,,,,,,,,,,,,,,,,,,,,,,,
,,,,,,5dfc2bdd77f86595eeaacdd1,62c53a5907160c13dfb487db,2022-07-06_17h32.07.491,Colour_Asymmetry_Pilot,2022.1.3,Win32,120.0768492,62c50e9c1127f2cd403a315f,0,86,86,118,1,fourtwo,,,,,,,,,,,,,,,,,,,,,,,,,,,,,,,,,,,,,,,,,,,,,,,,,,,,,,,,,,,,,,,,,,,,,,,,,,,,,,,,,,,,,,,,,,,,,,,,,,,,,,,,,,,,,,,,,,,,,,,,,,,,,,,,,,,,,,,,,,,,,,,,,,,,,,,,,,,,,
,,,,,,5dfc2bdd77f86595eeaacdd1,62c53a5907160c13dfb487db,2022-07-06_17h32.07.491,Colour_Asymmetry_Pilot,2022.1.3,Win32,120.0768492,62c50e9c1127f2cd403a315f,0,87,87,135,1,fourthree,,,,,,,,,,,,,,,,,,,,,,,,,,,,,,,,,,,,,,,,,,,,,,,,,,,,,,,,,,,,,,,,,,,,,,,,,,,,,,,,,,,,,,,,,,,,,,,,,,,,,,,,,,,,,,,,,,,,,,,,,,,,,,,,,,,,,,,,,,,,,,,,,,,,,,,,,,,,,
,,,,,,5dfc2bdd77f86595eeaacdd1,62c53a5907160c13dfb487db,2022-07-06_17h32.07.491,Colour_Asymmetry_Pilot,2022.1.3,Win32,120.0768492,62c50e9c1127f2cd403a315f,0,88,88,0,1,onetwo,,,,,,,,,,,,,,,,,,,,,,,,,,,,,,,,,,,,,,,,,,,,,,,,,,,,,,,,,,,,,,,,,,,,,,,,,,,,,,,,,,,,,,,,,,,,,,,,,,,,,,,,,,,,,,,,,,,,,,,,,,,,,,,,,,,,,,,,,,,,,,,,,,,,,,,,,,,,,
,,,,,,5dfc2bdd77f86595eeaacdd1,62c53a5907160c13dfb487db,2022-07-06_17h32.07.491,Colour_Asymmetry_Pilot,2022.1.3,Win32,120.0768492,62c50e9c1127f2cd403a315f,0,89,89,116,1,threeone,,,,,,,,,,,,,,,,,,,,,,,,,,,,,,,,,,,,,,,,,,,,,,,,,,,,,,,,,,,,,,,,,,,,,,,,,,,,,,,,,,,,,,,,,,,,,,,,,,,,,,,,,,,,,,,,,,,,,,,,,,,,,,,,,,,,,,,,,,,,,,,,,,,,,,,,,,,,,
,,,,,,5dfc2bdd77f86595eeaacdd1,62c53a5907160c13dfb487db,2022-07-06_17h32.07.491,Colour_Asymmetry_Pilot,2022.1.3,Win32,120.0768492,62c50e9c1127f2cd403a315f,0,90,90,41,1,onethree,,,,,,,,,,,,,,,,,,,,,,,,,,,,,,,,,,,,,,,,,,,,,,,,,,,,,,,,,,,,,,,,,,,,,,,,,,,,,,,,,,,,,,,,,,,,,,,,,,,,,,,,,,,,,,,,,,,,,,,,,,,,,,,,,,,,,,,,,,,,,,,,,,,,,,,,,,,,,
,,,,,,5dfc2bdd77f86595eeaacdd1,62c53a5907160c13dfb487db,2022-07-06_17h32.07.491,Colour_Asymmetry_Pilot,2022.1.3,Win32,120.0768492,62c50e9c1127f2cd403a315f,0,91,91,97,1,onethree,,,,,,,,,,,,,,,,,,,,,,,,,,,,,,,,,,,,,,,,,,,,,,,,,,,,,,,,,,,,,,,,,,,,,,,,,,,,,,,,,,,,,,,,,,,,,,,,,,,,,,,,,,,,,,,,,,,,,,,,,,,,,,,,,,,,,,,,,,,,,,,,,,,,,,,,,,,,,
,,,,,,5dfc2bdd77f86595eeaacdd1,62c53a5907160c13dfb487db,2022-07-06_17h32.07.491,Colour_Asymmetry_Pilot,2022.1.3,Win32,120.0768492,62c50e9c1127f2cd403a315f,0,92,92,86,1,fourtwo,,,,,,,,,,,,,,,,,,,,,,,,,,,,,,,,,,,,,,,,,,,,,,,,,,,,,,,,,,,,,,,,,,,,,,,,,,,,,,,,,,,,,,,,,,,,,,,,,,,,,,,,,,,,,,,,,,,,,,,,,,,,,,,,,,,,,,,,,,,,,,,,,,,,,,,,,,,,,
,,,,,,5dfc2bdd77f86595eeaacdd1,62c53a5907160c13dfb487db,2022-07-06_17h32.07.491,Colour_Asymmetry_Pilot,2022.1.3,Win32,120.0768492,62c50e9c1127f2cd403a315f,0,93,93,72,1,onetwo,,,,,,,,,,,,,,,,,,,,,,,,,,,,,,,,,,,,,,,,,,,,,,,,,,,,,,,,,,,,,,,,,,,,,,,,,,,,,,,,,,,,,,,,,,,,,,,,,,,,,,,,,,,,,,,,,,,,,,,,,,,,,,,,,,,,,,,,,,,,,,,,,,,,,,,,,,,,,
,,,,,,5dfc2bdd77f86595eeaacdd1,62c53a5907160c13dfb487db,2022-07-06_17h32.07.491,Colour_Asymmetry_Pilot,2022.1.3,Win32,120.0768492,62c50e9c1127f2cd403a315f,0,94,94,160,1,onetwo,,,,,,,,,,,,,,,,,,,,,,,,,,,,,,,,,,,,,,,,,,,,,,,,,,,,,,,,,,,,,,,,,,,,,,,,,,,,,,,,,,,,,,,,,,,,,,,,,,,,,,,,,,,,,,,,,,,,,,,,,,,,,,,,,,,,,,,,,,,,,,,,,,,,,,,,,,,,,
,,,,,,5dfc2bdd77f86595eeaacdd1,62c53a5907160c13dfb487db,2022-07-06_17h32.07.491,Colour_Asymmetry_Pilot,2022.1.3,Win32,120.0768492,62c50e9c1127f2cd403a315f,0,95,95,37,1,threefour,,,,,,,,,,,,,,,,,,,,,,,,,,,,,,,,,,,,,,,,,,,,,,,,,,,,,,,,,,,,,,,,,,,,,,,,,,,,,,,,,,,,,,,,,,,,,,,,,,,,,,,,,,,,,,,,,,,,,,,,,,,,,,,,,,,,,,,,,,,,,,,,,,,,,,,,,,,,,
,,,,,,5dfc2bdd77f86595eeaacdd1,62c53a5907160c13dfb487db,2022-07-06_17h32.07.491,Colour_Asymmetry_Pilot,2022.1.3,Win32,120.0768492,62c50e9c1127f2cd403a315f,0,96,96,36,1,threeone,,,,,,,,,,,,,,,,,,,,,,,,,,,,,,,,,,,,,,,,,,,,,,,,,,,,,,,,,,,,,,,,,,,,,,,,,,,,,,,,,,,,,,,,,,,,,,,,,,,,,,,,,,,,,,,,,,,,,,,,,,,,,,,,,,,,,,,,,,,,,,,,,,,,,,,,,,,,,
,,,,,,5dfc2bdd77f86595eeaacdd1,62c53a5907160c13dfb487db,2022-07-06_17h32.07.491,Colour_Asymmetry_Pilot,2022.1.3,Win32,120.0768492,62c50e9c1127f2cd403a315f,0,97,97,82,1,twoone,,,,,,,,,,,,,,,,,,,,,,,,,,,,,,,,,,,,,,,,,,,,,,,,,,,,,,,,,,,,,,,,,,,,,,,,,,,,,,,,,,,,,,,,,,,,,,,,,,,,,,,,,,,,,,,,,,,,,,,,,,,,,,,,,,,,,,,,,,,,,,,,,,,,,,,,,,,,,
,,,,,,5dfc2bdd77f86595eeaacdd1,62c53a5907160c13dfb487db,2022-07-06_17h32.07.491,Colour_Asymmetry_Pilot,2022.1.3,Win32,120.0768492,62c50e9c1127f2cd403a315f,0,98,98,156,1,threeone,,,,,,,,,,,,,,,,,,,,,,,,,,,,,,,,,,,,,,,,,,,,,,,,,,,,,,,,,,,,,,,,,,,,,,,,,,,,,,,,,,,,,,,,,,,,,,,,,,,,,,,,,,,,,,,,,,,,,,,,,,,,,,,,,,,,,,,,,,,,,,,,,,,,,,,,,,,,,
,,,,,,5dfc2bdd77f86595eeaacdd1,62c53a5907160c13dfb487db,2022-07-06_17h32.07.491,Colour_Asymmetry_Pilot,2022.1.3,Win32,120.0768492,62c50e9c1127f2cd403a315f,0,99,99,53,1,threefour,,,,,,,,,,,,,,,,,,,,,,,,,,,,,,,,,,,,,,,,,,,,,,,,,,,,,,,,,,,,,,,,,,,,,,,,,,,,,,,,,,,,,,,,,,,,,,,,,,,,,,,,,,,,,,,,,,,,,,,,,,,,,,,,,,,,,,,,,,,,,,,,,,,,,,,,,,,,,
,,,,,,5dfc2bdd77f86595eeaacdd1,62c53a5907160c13dfb487db,2022-07-06_17h32.07.491,Colour_Asymmetry_Pilot,2022.1.3,Win32,120.0768492,62c50e9c1127f2cd403a315f,0,100,100,8,1,onetwo,,,,,,,,,,,,,,,,,,,,,,,,,,,,,,,,,,,,,,,,,,,,,,,,,,,,,,,,,,,,,,,,,,,,,,,,,,,,,,,,,,,,,,,,,,,,,,,,,,,,,,,,,,,,,,,,,,,,,,,,,,,,,,,,,,,,,,,,,,,,,,,,,,,,,,,,,,,,,
,,,,,,5dfc2bdd77f86595eeaacdd1,62c53a5907160c13dfb487db,2022-07-06_17h32.07.491,Colour_Asymmetry_Pilot,2022.1.3,Win32,120.0768492,62c50e9c1127f2cd403a315f,0,101,101,126,1,fourtwo,,,,,,,,,,,,,,,,,,,,,,,,,,,,,,,,,,,,,,,,,,,,,,,,,,,,,,,,,,,,,,,,,,,,,,,,,,,,,,,,,,,,,,,,,,,,,,,,,,,,,,,,,,,,,,,,,,,,,,,,,,,,,,,,,,,,,,,,,,,,,,,,,,,,,,,,,,,,,
,,,,,,5dfc2bdd77f86595eeaacdd1,62c53a5907160c13dfb487db,2022-07-06_17h32.07.491,Colour_Asymmetry_Pilot,2022.1.3,Win32,120.0768492,62c50e9c1127f2cd403a315f,0,102,102,84,1,threeone,,,,,,,,,,,,,,,,,,,,,,,,,,,,,,,,,,,,,,,,,,,,,,,,,,,,,,,,,,,,,,,,,,,,,,,,,,,,,,,,,,,,,,,,,,,,,,,,,,,,,,,,,,,,,,,,,,,,,,,,,,,,,,,,,,,,,,,,,,,,,,,,,,,,,,,,,,,,,
,,,,,,5dfc2bdd77f86595eeaacdd1,62c53a5907160c13dfb487db,2022-07-06_17h32.07.491,Colour_Asymmetry_Pilot,2022.1.3,Win32,120.0768492,62c50e9c1127f2cd403a315f,0,103,103,87,1,fourthree,,,,,,,,,,,,,,,,,,,,,,,,,,,,,,,,,,,,,,,,,,,,,,,,,,,,,,,,,,,,,,,,,,,,,,,,,,,,,,,,,,,,,,,,,,,,,,,,,,,,,,,,,,,,,,,,,,,,,,,,,,,,,,,,,,,,,,,,,,,,,,,,,,,,,,,,,,,,,
,,,,,,5dfc2bdd77f86595eeaacdd1,62c53a5907160c13dfb487db,2022-07-06_17h32.07.491,Colour_Asymmetry_Pilot,2022.1.3,Win32,120.0768492,62c50e9c1127f2cd403a315f,0,104,104,29,1,threefour,,,,,,,,,,,,,,,,,,,,,,,,,,,,,,,,,,,,,,,,,,,,,,,,,,,,,,,,,,,,,,,,,,,,,,,,,,,,,,,,,,,,,,,,,,,,,,,,,,,,,,,,,,,,,,,,,,,,,,,,,,,,,,,,,,,,,,,,,,,,,,,,,,,,,,,,,,,,,
,,,,,,5dfc2bdd77f86595eeaacdd1,62c53a5907160c13dfb487db,2022-07-06_17h32.07.491,Colour_Asymmetry_Pilot,2022.1.3,Win32,120.0768492,62c50e9c1127f2cd403a315f,0,105,105,62,1,fourtwo,,,,,,,,,,,,,,,,,,,,,,,,,,,,,,,,,,,,,,,,,,,,,,,,,,,,,,,,,,,,,,,,,,,,,,,,,,,,,,,,,,,,,,,,,,,,,,,,,,,,,,,,,,,,,,,,,,,,,,,,,,,,,,,,,,,,,,,,,,,,,,,,,,,,,,,,,,,,,
,,,,,,5dfc2bdd77f86595eeaacdd1,62c53a5907160c13dfb487db,2022-07-06_17h32.07.491,Colour_Asymmetry_Pilot,2022.1.3,Win32,120.0768492,62c50e9c1127f2cd403a315f,0,106,106,4,1,threeone,,,,,,,,,,,,,,,,,,,,,,,,,,,,,,,,,,,,,,,,,,,,,,,,,,,,,,,,,,,,,,,,,,,,,,,,,,,,,,,,,,,,,,,,,,,,,,,,,,,,,,,,,,,,,,,,,,,,,,,,,,,,,,,,,,,,,,,,,,,,,,,,,,,,,,,,,,,,,
,,,,,,5dfc2bdd77f86595eeaacdd1,62c53a5907160c13dfb487db,2022-07-06_17h32.07.491,Colour_Asymmetry_Pilot,2022.1.3,Win32,120.0768492,62c50e9c1127f2cd403a315f,0,107,107,148,1,threeone,,,,,,,,,,,,,,,,,,,,,,,,,,,,,,,,,,,,,,,,,,,,,,,,,,,,,,,,,,,,,,,,,,,,,,,,,,,,,,,,,,,,,,,,,,,,,,,,,,,,,,,,,,,,,,,,,,,,,,,,,,,,,,,,,,,,,,,,,,,,,,,,,,,,,,,,,,,,,
,,,,,,5dfc2bdd77f86595eeaacdd1,62c53a5907160c13dfb487db,2022-07-06_17h32.07.491,Colour_Asymmetry_Pilot,2022.1.3,Win32,120.0768492,62c50e9c1127f2cd403a315f,0,108,108,141,1,threefour,,,,,,,,,,,,,,,,,,,,,,,,,,,,,,,,,,,,,,,,,,,,,,,,,,,,,,,,,,,,,,,,,,,,,,,,,,,,,,,,,,,,,,,,,,,,,,,,,,,,,,,,,,,,,,,,,,,,,,,,,,,,,,,,,,,,,,,,,,,,,,,,,,,,,,,,,,,,,
,,,,,,5dfc2bdd77f86595eeaacdd1,62c53a5907160c13dfb487db,2022-07-06_17h32.07.491,Colour_Asymmetry_Pilot,2022.1.3,Win32,120.0768492,62c50e9c1127f2cd403a315f,0,109,109,106,1,twoone,,,,,,,,,,,,,,,,,,,,,,,,,,,,,,,,,,,,,,,,,,,,,,,,,,,,,,,,,,,,,,,,,,,,,,,,,,,,,,,,,,,,,,,,,,,,,,,,,,,,,,,,,,,,,,,,,,,,,,,,,,,,,,,,,,,,,,,,,,,,,,,,,,,,,,,,,,,,,
,,,,,,5dfc2bdd77f86595eeaacdd1,62c53a5907160c13dfb487db,2022-07-06_17h32.07.491,Colour_Asymmetry_Pilot,2022.1.3,Win32,120.0768492,62c50e9c1127f2cd403a315f,0,110,110,14,1,fourtwo,,,,,,,,,,,,,,,,,,,,,,,,,,,,,,,,,,,,,,,,,,,,,,,,,,,,,,,,,,,,,,,,,,,,,,,,,,,,,,,,,,,,,,,,,,,,,,,,,,,,,,,,,,,,,,,,,,,,,,,,,,,,,,,,,,,,,,,,,,,,,,,,,,,,,,,,,,,,,
,,,,,,5dfc2bdd77f86595eeaacdd1,62c53a5907160c13dfb487db,2022-07-06_17h32.07.491,Colour_Asymmetry_Pilot,2022.1.3,Win32,120.0768492,62c50e9c1127f2cd403a315f,0,111,111,85,1,threefour,,,,,,,,,,,,,,,,,,,,,,,,,,,,,,,,,,,,,,,,,,,,,,,,,,,,,,,,,,,,,,,,,,,,,,,,,,,,,,,,,,,,,,,,,,,,,,,,,,,,,,,,,,,,,,,,,,,,,,,,,,,,,,,,,,,,,,,,,,,,,,,,,,,,,,,,,,,,,
,,,,,,5dfc2bdd77f86595eeaacdd1,62c53a5907160c13dfb487db,2022-07-06_17h32.07.491,Colour_Asymmetry_Pilot,2022.1.3,Win32,120.0768492,62c50e9c1127f2cd403a315f,0,112,112,107,1,twofour,,,,,,,,,,,,,,,,,,,,,,,,,,,,,,,,,,,,,,,,,,,,,,,,,,,,,,,,,,,,,,,,,,,,,,,,,,,,,,,,,,,,,,,,,,,,,,,,,,,,,,,,,,,,,,,,,,,,,,,,,,,,,,,,,,,,,,,,,,,,,,,,,,,,,,,,,,,,,
,,,,,,5dfc2bdd77f86595eeaacdd1,62c53a5907160c13dfb487db,2022-07-06_17h32.07.491,Colour_Asymmetry_Pilot,2022.1.3,Win32,120.0768492,62c50e9c1127f2cd403a315f,0,113,113,78,1,fourtwo,,,,,,,,,,,,,,,,,,,,,,,,,,,,,,,,,,,,,,,,,,,,,,,,,,,,,,,,,,,,,,,,,,,,,,,,,,,,,,,,,,,,,,,,,,,,,,,,,,,,,,,,,,,,,,,,,,,,,,,,,,,,,,,,,,,,,,,,,,,,,,,,,,,,,,,,,,,,,
,,,,,,5dfc2bdd77f86595eeaacdd1,62c53a5907160c13dfb487db,2022-07-06_17h32.07.491,Colour_Asymmetry_Pilot,2022.1.3,Win32,120.0768492,62c50e9c1127f2cd403a315f,0,114,114,154,1,twoone,,,,,,,,,,,,,,,,,,,,,,,,,,,,,,,,,,,,,,,,,,,,,,,,,,,,,,,,,,,,,,,,,,,,,,,,,,,,,,,,,,,,,,,,,,,,,,,,,,,,,,,,,,,,,,,,,,,,,,,,,,,,,,,,,,,,,,,,,,,,,,,,,,,,,,,,,,,,,
,,,,,,5dfc2bdd77f86595eeaacdd1,62c53a5907160c13dfb487db,2022-07-06_17h32.07.491,Colour_Asymmetry_Pilot,2022.1.3,Win32,120.0768492,62c50e9c1127f2cd403a315f,0,115,115,133,1,threefour,,,,,,,,,,,,,,,,,,,,,,,,,,,,,,,,,,,,,,,,,,,,,,,,,,,,,,,,,,,,,,,,,,,,,,,,,,,,,,,,,,,,,,,,,,,,,,,,,,,,,,,,,,,,,,,,,,,,,,,,,,,,,,,,,,,,,,,,,,,,,,,,,,,,,,,,,,,,,
,,,,,,5dfc2bdd77f86595eeaacdd1,62c53a5907160c13dfb487db,2022-07-06_17h32.07.491,Colour_Asymmetry_Pilot,2022.1.3,Win32,120.0768492,62c50e9c1127f2cd403a315f,0,116,116,58,1,twoone,,,,,,,,,,,,,,,,,,,,,,,,,,,,,,,,,,,,,,,,,,,,,,,,,,,,,,,,,,,,,,,,,,,,,,,,,,,,,,,,,,,,,,,,,,,,,,,,,,,,,,,,,,,,,,,,,,,,,,,,,,,,,,,,,,,,,,,,,,,,,,,,,,,,,,,,,,,,,
,,,,,,5dfc2bdd77f86595eeaacdd1,62c53a5907160c13dfb487db,2022-07-06_17h32.07.491,Colour_Asymmetry_Pilot,2022.1.3,Win32,120.0768492,62c50e9c1127f2cd403a315f,0,117,117,48,1,onetwo,,,,,,,,,,,,,,,,,,,,,,,,,,,,,,,,,,,,,,,,,,,,,,,,,,,,,,,,,,,,,,,,,,,,,,,,,,,,,,,,,,,,,,,,,,,,,,,,,,,,,,,,,,,,,,,,,,,,,,,,,,,,,,,,,,,,,,,,,,,,,,,,,,,,,,,,,,,,,
,,,,,,5dfc2bdd77f86595eeaacdd1,62c53a5907160c13dfb487db,2022-07-06_17h32.07.491,Colour_Asymmetry_Pilot,2022.1.3,Win32,120.0768492,62c50e9c1127f2cd403a315f,0,118,118,81,1,onethree,,,,,,,,,,,,,,,,,,,,,,,,,,,,,,,,,,,,,,,,,,,,,,,,,,,,,,,,,,,,,,,,,,,,,,,,,,,,,,,,,,,,,,,,,,,,,,,,,,,,,,,,,,,,,,,,,,,,,,,,,,,,,,,,,,,,,,,,,,,,,,,,,,,,,,,,,,,,,
,,,,,,5dfc2bdd77f86595eeaacdd1,62c53a5907160c13dfb487db,2022-07-06_17h32.07.491,Colour_Asymmetry_Pilot,2022.1.3,Win32,120.0768492,62c50e9c1127f2cd403a315f,0,119,119,23,1,fourthree,,,,,,,,,,,,,,,,,,,,,,,,,,,,,,,,,,,,,,,,,,,,,,,,,,,,,,,,,,,,,,,,,,,,,,,,,,,,,,,,,,,,,,,,,,,,,,,,,,,,,,,,,,,,,,,,,,,,,,,,,,,,,,,,,,,,,,,,,,,,,,,,,,,,,,,,,,,,,
,,,,,,5dfc2bdd77f86595eeaacdd1,62c53a5907160c13dfb487db,2022-07-06_17h32.07.491,Colour_Asymmetry_Pilot,2022.1.3,Win32,120.0768492,62c50e9c1127f2cd403a315f,0,120,120,127,1,fourthree,,,,,,,,,,,,,,,,,,,,,,,,,,,,,,,,,,,,,,,,,,,,,,,,,,,,,,,,,,,,,,,,,,,,,,,,,,,,,,,,,,,,,,,,,,,,,,,,,,,,,,,,,,,,,,,,,,,,,,,,,,,,,,,,,,,,,,,,,,,,,,,,,,,,,,,,,,,,,
,,,,,,5dfc2bdd77f86595eeaacdd1,62c53a5907160c13dfb487db,2022-07-06_17h32.07.491,Colour_Asymmetry_Pilot,2022.1.3,Win32,120.0768492,62c50e9c1127f2cd403a315f,0,121,121,39,1,fourthree,,,,,,,,,,,,,,,,,,,,,,,,,,,,,,,,,,,,,,,,,,,,,,,,,,,,,,,,,,,,,,,,,,,,,,,,,,,,,,,,,,,,,,,,,,,,,,,,,,,,,,,,,,,,,,,,,,,,,,,,,,,,,,,,,,,,,,,,,,,,,,,,,,,,,,,,,,,,,
,,,,,,5dfc2bdd77f86595eeaacdd1,62c53a5907160c13dfb487db,2022-07-06_17h32.07.491,Colour_Asymmetry_Pilot,2022.1.3,Win32,120.0768492,62c50e9c1127f2cd403a315f,0,122,122,56,1,onetwo,,,,,,,,,,,,,,,,,,,,,,,,,,,,,,,,,,,,,,,,,,,,,,,,,,,,,,,,,,,,,,,,,,,,,,,,,,,,,,,,,,,,,,,,,,,,,,,,,,,,,,,,,,,,,,,,,,,,,,,,,,,,,,,,,,,,,,,,,,,,,,,,,,,,,,,,,,,,,
,,,,,,5dfc2bdd77f86595eeaacdd1,62c53a5907160c13dfb487db,2022-07-06_17h32.07.491,Colour_Asymmetry_Pilot,2022.1.3,Win32,120.0768492,62c50e9c1127f2cd403a315f,0,123,123,121,1,onethree,,,,,,,,,,,,,,,,,,,,,,,,,,,,,,,,,,,,,,,,,,,,,,,,,,,,,,,,,,,,,,,,,,,,,,,,,,,,,,,,,,,,,,,,,,,,,,,,,,,,,,,,,,,,,,,,,,,,,,,,,,,,,,,,,,,,,,,,,,,,,,,,,,,,,,,,,,,,,
,,,,,,5dfc2bdd77f86595eeaacdd1,62c53a5907160c13dfb487db,2022-07-06_17h32.07.491,Colour_Asymmetry_Pilot,2022.1.3,Win32,120.0768492,62c50e9c1127f2cd403a315f,0,124,124,13,1,threefour,,,,,,,,,,,,,,,,,,,,,,,,,,,,,,,,,,,,,,,,,,,,,,,,,,,,,,,,,,,,,,,,,,,,,,,,,,,,,,,,,,,,,,,,,,,,,,,,,,,,,,,,,,,,,,,,,,,,,,,,,,,,,,,,,,,,,,,,,,,,,,,,,,,,,,,,,,,,,
,,,,,,5dfc2bdd77f86595eeaacdd1,62c53a5907160c13dfb487db,2022-07-06_17h32.07.491,Colour_Asymmetry_Pilot,2022.1.3,Win32,120.0768492,62c50e9c1127f2cd403a315f,0,125,125,42,1,twoone,,,,,,,,,,,,,,,,,,,,,,,,,,,,,,,,,,,,,,,,,,,,,,,,,,,,,,,,,,,,,,,,,,,,,,,,,,,,,,,,,,,,,,,,,,,,,,,,,,,,,,,,,,,,,,,,,,,,,,,,,,,,,,,,,,,,,,,,,,,,,,,,,,,,,,,,,,,,,
,,,,,,5dfc2bdd77f86595eeaacdd1,62c53a5907160c13dfb487db,2022-07-06_17h32.07.491,Colour_Asymmetry_Pilot,2022.1.3,Win32,120.0768492,62c50e9c1127f2cd403a315f,0,126,126,142,1,fourtwo,,,,,,,,,,,,,,,,,,,,,,,,,,,,,,,,,,,,,,,,,,,,,,,,,,,,,,,,,,,,,,,,,,,,,,,,,,,,,,,,,,,,,,,,,,,,,,,,,,,,,,,,,,,,,,,,,,,,,,,,,,,,,,,,,,,,,,,,,,,,,,,,,,,,,,,,,,,,,
,,,,,,5dfc2bdd77f86595eeaacdd1,62c53a5907160c13dfb487db,2022-07-06_17h32.07.491,Colour_Asymmetry_Pilot,2022.1.3,Win32,120.0768492,62c50e9c1127f2cd403a315f,0,127,127,98,1,twoone,,,,,,,,,,,,,,,,,,,,,,,,,,,,,,,,,,,,,,,,,,,,,,,,,,,,,,,,,,,,,,,,,,,,,,,,,,,,,,,,,,,,,,,,,,,,,,,,,,,,,,,,,,,,,,,,,,,,,,,,,,,,,,,,,,,,,,,,,,,,,,,,,,,,,,,,,,,,,
,,,,,,5dfc2bdd77f86595eeaacdd1,62c53a5907160c13dfb487db,2022-07-06_17h32.07.491,Colour_Asymmetry_Pilot,2022.1.3,Win32,120.0768492,62c50e9c1127f2cd403a315f,0,128,128,66,1,twoone,,,,,,,,,,,,,,,,,,,,,,,,,,,,,,,,,,,,,,,,,,,,,,,,,,,,,,,,,,,,,,,,,,,,,,,,,,,,,,,,,,,,,,,,,,,,,,,,,,,,,,,,,,,,,,,,,,,,,,,,,,,,,,,,,,,,,,,,,,,,,,,,,,,,,,,,,,,,,
,,,,,,5dfc2bdd77f86595eeaacdd1,62c53a5907160c13dfb487db,2022-07-06_17h32.07.491,Colour_Asymmetry_Pilot,2022.1.3,Win32,120.0768492,62c50e9c1127f2cd403a315f,0,129,129,109,1,threefour,,,,,,,,,,,,,,,,,,,,,,,,,,,,,,,,,,,,,,,,,,,,,,,,,,,,,,,,,,,,,,,,,,,,,,,,,,,,,,,,,,,,,,,,,,,,,,,,,,,,,,,,,,,,,,,,,,,,,,,,,,,,,,,,,,,,,,,,,,,,,,,,,,,,,,,,,,,,,
,,,,,,5dfc2bdd77f86595eeaacdd1,62c53a5907160c13dfb487db,2022-07-06_17h32.07.491,Colour_Asymmetry_Pilot,2022.1.3,Win32,120.0768492,62c50e9c1127f2cd403a315f,0,130,130,153,1,onethree,,,,,,,,,,,,,,,,,,,,,,,,,,,,,,,,,,,,,,,,,,,,,,,,,,,,,,,,,,,,,,,,,,,,,,,,,,,,,,,,,,,,,,,,,,,,,,,,,,,,,,,,,,,,,,,,,,,,,,,,,,,,,,,,,,,,,,,,,,,,,,,,,,,,,,,,,,,,,
,,,,,,5dfc2bdd77f86595eeaacdd1,62c53a5907160c13dfb487db,2022-07-06_17h32.07.491,Colour_Asymmetry_Pilot,2022.1.3,Win32,120.0768492,62c50e9c1127f2cd403a315f,0,131,131,152,1,onetwo,,,,,,,,,,,,,,,,,,,,,,,,,,,,,,,,,,,,,,,,,,,,,,,,,,,,,,,,,,,,,,,,,,,,,,,,,,,,,,,,,,,,,,,,,,,,,,,,,,,,,,,,,,,,,,,,,,,,,,,,,,,,,,,,,,,,,,,,,,,,,,,,,,,,,,,,,,,,,
,,,,,,5dfc2bdd77f86595eeaacdd1,62c53a5907160c13dfb487db,2022-07-06_17h32.07.491,Colour_Asymmetry_Pilot,2022.1.3,Win32,120.0768492,62c50e9c1127f2cd403a315f,0,132,132,38,1,fourtwo,,,,,,,,,,,,,,,,,,,,,,,,,,,,,,,,,,,,,,,,,,,,,,,,,,,,,,,,,,,,,,,,,,,,,,,,,,,,,,,,,,,,,,,,,,,,,,,,,,,,,,,,,,,,,,,,,,,,,,,,,,,,,,,,,,,,,,,,,,,,,,,,,,,,,,,,,,,,,
,,,,,,5dfc2bdd77f86595eeaacdd1,62c53a5907160c13dfb487db,2022-07-06_17h32.07.491,Colour_Asymmetry_Pilot,2022.1.3,Win32,120.0768492,62c50e9c1127f2cd403a315f,0,133,133,130,1,twoone,,,,,,,,,,,,,,,,,,,,,,,,,,,,,,,,,,,,,,,,,,,,,,,,,,,,,,,,,,,,,,,,,,,,,,,,,,,,,,,,,,,,,,,,,,,,,,,,,,,,,,,,,,,,,,,,,,,,,,,,,,,,,,,,,,,,,,,,,,,,,,,,,,,,,,,,,,,,,
,,,,,,5dfc2bdd77f86595eeaacdd1,62c53a5907160c13dfb487db,2022-07-06_17h32.07.491,Colour_Asymmetry_Pilot,2022.1.3,Win32,120.0768492,62c50e9c1127f2cd403a315f,0,134,134,34,1,twoone,,,,,,,,,,,,,,,,,,,,,,,,,,,,,,,,,,,,,,,,,,,,,,,,,,,,,,,,,,,,,,,,,,,,,,,,,,,,,,,,,,,,,,,,,,,,,,,,,,,,,,,,,,,,,,,,,,,,,,,,,,,,,,,,,,,,,,,,,,,,,,,,,,,,,,,,,,,,,
,,,,,,5dfc2bdd77f86595eeaacdd1,62c53a5907160c13dfb487db,2022-07-06_17h32.07.491,Colour_Asymmetry_Pilot,2022.1.3,Win32,120.0768492,62c50e9c1127f2cd403a315f,0,135,135,16,1,onetwo,,,,,,,,,,,,,,,,,,,,,,,,,,,,,,,,,,,,,,,,,,,,,,,,,,,,,,,,,,,,,,,,,,,,,,,,,,,,,,,,,,,,,,,,,,,,,,,,,,,,,,,,,,,,,,,,,,,,,,,,,,,,,,,,,,,,,,,,,,,,,,,,,,,,,,,,,,,,,
,,,,,,5dfc2bdd77f86595eeaacdd1,62c53a5907160c13dfb487db,2022-07-06_17h32.07.491,Colour_Asymmetry_Pilot,2022.1.3,Win32,120.0768492,62c50e9c1127f2cd403a315f,0,136,136,28,1,threeone,,,,,,,,,,,,,,,,,,,,,,,,,,,,,,,,,,,,,,,,,,,,,,,,,,,,,,,,,,,,,,,,,,,,,,,,,,,,,,,,,,,,,,,,,,,,,,,,,,,,,,,,,,,,,,,,,,,,,,,,,,,,,,,,,,,,,,,,,,,,,,,,,,,,,,,,,,,,,
,,,,,,5dfc2bdd77f86595eeaacdd1,62c53a5907160c13dfb487db,2022-07-06_17h32.07.491,Colour_Asymmetry_Pilot,2022.1.3,Win32,120.0768492,62c50e9c1127f2cd403a315f,0,137,137,143,1,fourthree,,,,,,,,,,,,,,,,,,,,,,,,,,,,,,,,,,,,,,,,,,,,,,,,,,,,,,,,,,,,,,,,,,,,,,,,,,,,,,,,,,,,,,,,,,,,,,,,,,,,,,,,,,,,,,,,,,,,,,,,,,,,,,,,,,,,,,,,,,,,,,,,,,,,,,,,,,,,,
,,,,,,5dfc2bdd77f86595eeaacdd1,62c53a5907160c13dfb487db,2022-07-06_17h32.07.491,Colour_Asymmetry_Pilot,2022.1.3,Win32,120.0768492,62c50e9c1127f2cd403a315f,0,138,138,131,1,twofour,,,,,,,,,,,,,,,,,,,,,,,,,,,,,,,,,,,,,,,,,,,,,,,,,,,,,,,,,,,,,,,,,,,,,,,,,,,,,,,,,,,,,,,,,,,,,,,,,,,,,,,,,,,,,,,,,,,,,,,,,,,,,,,,,,,,,,,,,,,,,,,,,,,,,,,,,,,,,
,,,,,,5dfc2bdd77f86595eeaacdd1,62c53a5907160c13dfb487db,2022-07-06_17h32.07.491,Colour_Asymmetry_Pilot,2022.1.3,Win32,120.0768492,62c50e9c1127f2cd403a315f,0,139,139,50,1,twoone,,,,,,,,,,,,,,,,,,,,,,,,,,,,,,,,,,,,,,,,,,,,,,,,,,,,,,,,,,,,,,,,,,,,,,,,,,,,,,,,,,,,,,,,,,,,,,,,,,,,,,,,,,,,,,,,,,,,,,,,,,,,,,,,,,,,,,,,,,,,,,,,,,,,,,,,,,,,,
,,,,,,5dfc2bdd77f86595eeaacdd1,62c53a5907160c13dfb487db,2022-07-06_17h32.07.491,Colour_Asymmetry_Pilot,2022.1.3,Win32,120.0768492,62c50e9c1127f2cd403a315f,0,140,140,151,1,fourthree,,,,,,,,,,,,,,,,,,,,,,,,,,,,,,,,,,,,,,,,,,,,,,,,,,,,,,,,,,,,,,,,,,,,,,,,,,,,,,,,,,,,,,,,,,,,,,,,,,,,,,,,,,,,,,,,,,,,,,,,,,,,,,,,,,,,,,,,,,,,,,,,,,,,,,,,,,,,,
,,,,,,5dfc2bdd77f86595eeaacdd1,62c53a5907160c13dfb487db,2022-07-06_17h32.07.491,Colour_Asymmetry_Pilot,2022.1.3,Win32,120.0768492,62c50e9c1127f2cd403a315f,0,141,141,96,1,onetwo,,,,,,,,,,,,,,,,,,,,,,,,,,,,,,,,,,,,,,,,,,,,,,,,,,,,,,,,,,,,,,,,,,,,,,,,,,,,,,,,,,,,,,,,,,,,,,,,,,,,,,,,,,,,,,,,,,,,,,,,,,,,,,,,,,,,,,,,,,,,,,,,,,,,,,,,,,,,,
,,,,,,5dfc2bdd77f86595eeaacdd1,62c53a5907160c13dfb487db,2022-07-06_17h32.07.491,Colour_Asymmetry_Pilot,2022.1.3,Win32,120.0768492,62c50e9c1127f2cd403a315f,0,142,142,31,1,fourthree,,,,,,,,,,,,,,,,,,,,,,,,,,,,,,,,,,,,,,,,,,,,,,,,,,,,,,,,,,,,,,,,,,,,,,,,,,,,,,,,,,,,,,,,,,,,,,,,,,,,,,,,,,,,,,,,,,,,,,,,,,,,,,,,,,,,,,,,,,,,,,,,,,,,,,,,,,,,,
,,,,,,5dfc2bdd77f86595eeaacdd1,62c53a5907160c13dfb487db,2022-07-06_17h32.07.491,Colour_Asymmetry_Pilot,2022.1.3,Win32,120.0768492,62c50e9c1127f2cd403a315f,0,143,143,113,1,onethree,,,,,,,,,,,,,,,,,,,,,,,,,,,,,,,,,,,,,,,,,,,,,,,,,,,,,,,,,,,,,,,,,,,,,,,,,,,,,,,,,,,,,,,,,,,,,,,,,,,,,,,,,,,,,,,,,,,,,,,,,,,,,,,,,,,,,,,,,,,,,,,,,,,,,,,,,,,,,
,,,,,,5dfc2bdd77f86595eeaacdd1,62c53a5907160c13dfb487db,2022-07-06_17h32.07.491,Colour_Asymmetry_Pilot,2022.1.3,Win32,120.0768492,62c50e9c1127f2cd403a315f,0,144,144,140,1,threeone,,,,,,,,,,,,,,,,,,,,,,,,,,,,,,,,,,,,,,,,,,,,,,,,,,,,,,,,,,,,,,,,,,,,,,,,,,,,,,,,,,,,,,,,,,,,,,,,,,,,,,,,,,,,,,,,,,,,,,,,,,,,,,,,,,,,,,,,,,,,,,,,,,,,,,,,,,,,,
,,,,,,5dfc2bdd77f86595eeaacdd1,62c53a5907160c13dfb487db,2022-07-06_17h32.07.491,Colour_Asymmetry_Pilot,2022.1.3,Win32,120.0768492,62c50e9c1127f2cd403a315f,0,145,145,100,1,threeone,,,,,,,,,,,,,,,,,,,,,,,,,,,,,,,,,,,,,,,,,,,,,,,,,,,,,,,,,,,,,,,,,,,,,,,,,,,,,,,,,,,,,,,,,,,,,,,,,,,,,,,,,,,,,,,,,,,,,,,,,,,,,,,,,,,,,,,,,,,,,,,,,,,,,,,,,,,,,
,,,,,,5dfc2bdd77f86595eeaacdd1,62c53a5907160c13dfb487db,2022-07-06_17h32.07.491,Colour_Asymmetry_Pilot,2022.1.3,Win32,120.0768492,62c50e9c1127f2cd403a315f,0,146,146,94,1,fourtwo,,,,,,,,,,,,,,,,,,,,,,,,,,,,,,,,,,,,,,,,,,,,,,,,,,,,,,,,,,,,,,,,,,,,,,,,,,,,,,,,,,,,,,,,,,,,,,,,,,,,,,,,,,,,,,,,,,,,,,,,,,,,,,,,,,,,,,,,,,,,,,,,,,,,,,,,,,,,,
,,,,,,5dfc2bdd77f86595eeaacdd1,62c53a5907160c13dfb487db,2022-07-06_17h32.07.491,Colour_Asymmetry_Pilot,2022.1.3,Win32,120.0768492,62c50e9c1127f2cd403a315f,0,147,147,45,1,threefour,,,,,,,,,,,,,,,,,,,,,,,,,,,,,,,,,,,,,,,,,,,,,,,,,,,,,,,,,,,,,,,,,,,,,,,,,,,,,,,,,,,,,,,,,,,,,,,,,,,,,,,,,,,,,,,,,,,,,,,,,,,,,,,,,,,,,,,,,,,,,,,,,,,,,,,,,,,,,
,,,,,,5dfc2bdd77f86595eeaacdd1,62c53a5907160c13dfb487db,2022-07-06_17h32.07.491,Colour_Asymmetry_Pilot,2022.1.3,Win32,120.0768492,62c50e9c1127f2cd403a315f,0,148,148,149,1,threefour,,,,,,,,,,,,,,,,,,,,,,,,,,,,,,,,,,,,,,,,,,,,,,,,,,,,,,,,,,,,,,,,,,,,,,,,,,,,,,,,,,,,,,,,,,,,,,,,,,,,,,,,,,,,,,,,,,,,,,,,,,,,,,,,,,,,,,,,,,,,,,,,,,,,,,,,,,,,,
,,,,,,5dfc2bdd77f86595eeaacdd1,62c53a5907160c13dfb487db,2022-07-06_17h32.07.491,Colour_Asymmetry_Pilot,2022.1.3,Win32,120.0768492,62c50e9c1127f2cd403a315f,0,149,149,60,1,threeone,,,,,,,,,,,,,,,,,,,,,,,,,,,,,,,,,,,,,,,,,,,,,,,,,,,,,,,,,,,,,,,,,,,,,,,,,,,,,,,,,,,,,,,,,,,,,,,,,,,,,,,,,,,,,,,,,,,,,,,,,,,,,,,,,,,,,,,,,,,,,,,,,,,,,,,,,,,,,
,,,,,,5dfc2bdd77f86595eeaacdd1,62c53a5907160c13dfb487db,2022-07-06_17h32.07.491,Colour_Asymmetry_Pilot,2022.1.3,Win32,120.0768492,62c50e9c1127f2cd403a315f,0,150,150,3,1,twofour,,,,,,,,,,,,,,,,,,,,,,,,,,,,,,,,,,,,,,,,,,,,,,,,,,,,,,,,,,,,,,,,,,,,,,,,,,,,,,,,,,,,,,,,,,,,,,,,,,,,,,,,,,,,,,,,,,,,,,,,,,,,,,,,,,,,,,,,,,,,,,,,,,,,,,,,,,,,,
,,,,,,5dfc2bdd77f86595eeaacdd1,62c53a5907160c13dfb487db,2022-07-06_17h32.07.491,Colour_Asymmetry_Pilot,2022.1.3,Win32,120.0768492,62c50e9c1127f2cd403a315f,0,151,151,27,1,twofour,,,,,,,,,,,,,,,,,,,,,,,,,,,,,,,,,,,,,,,,,,,,,,,,,,,,,,,,,,,,,,,,,,,,,,,,,,,,,,,,,,,,,,,,,,,,,,,,,,,,,,,,,,,,,,,,,,,,,,,,,,,,,,,,,,,,,,,,,,,,,,,,,,,,,,,,,,,,,
,,,,,,5dfc2bdd77f86595eeaacdd1,62c53a5907160c13dfb487db,2022-07-06_17h32.07.491,Colour_Asymmetry_Pilot,2022.1.3,Win32,120.0768492,62c50e9c1127f2cd403a315f,0,152,152,112,1,onetwo,,,,,,,,,,,,,,,,,,,,,,,,,,,,,,,,,,,,,,,,,,,,,,,,,,,,,,,,,,,,,,,,,,,,,,,,,,,,,,,,,,,,,,,,,,,,,,,,,,,,,,,,,,,,,,,,,,,,,,,,,,,,,,,,,,,,,,,,,,,,,,,,,,,,,,,,,,,,,
,,,,,,5dfc2bdd77f86595eeaacdd1,62c53a5907160c13dfb487db,2022-07-06_17h32.07.491,Colour_Asymmetry_Pilot,2022.1.3,Win32,120.0768492,62c50e9c1127f2cd403a315f,0,153,153,120,1,onetwo,,,,,,,,,,,,,,,,,,,,,,,,,,,,,,,,,,,,,,,,,,,,,,,,,,,,,,,,,,,,,,,,,,,,,,,,,,,,,,,,,,,,,,,,,,,,,,,,,,,,,,,,,,,,,,,,,,,,,,,,,,,,,,,,,,,,,,,,,,,,,,,,,,,,,,,,,,,,,
,,,,,,5dfc2bdd77f86595eeaacdd1,62c53a5907160c13dfb487db,2022-07-06_17h32.07.491,Colour_Asymmetry_Pilot,2022.1.3,Win32,120.0768492,62c50e9c1127f2cd403a315f,0,154,154,55,1,fourthree,,,,,,,,,,,,,,,,,,,,,,,,,,,,,,,,,,,,,,,,,,,,,,,,,,,,,,,,,,,,,,,,,,,,,,,,,,,,,,,,,,,,,,,,,,,,,,,,,,,,,,,,,,,,,,,,,,,,,,,,,,,,,,,,,,,,,,,,,,,,,,,,,,,,,,,,,,,,,
,,,,,,5dfc2bdd77f86595eeaacdd1,62c53a5907160c13dfb487db,2022-07-06_17h32.07.491,Colour_Asymmetry_Pilot,2022.1.3,Win32,120.0768492,62c50e9c1127f2cd403a315f,0,155,155,129,1,onethree,,,,,,,,,,,,,,,,,,,,,,,,,,,,,,,,,,,,,,,,,,,,,,,,,,,,,,,,,,,,,,,,,,,,,,,,,,,,,,,,,,,,,,,,,,,,,,,,,,,,,,,,,,,,,,,,,,,,,,,,,,,,,,,,,,,,,,,,,,,,,,,,,,,,,,,,,,,,,
,,,,,,5dfc2bdd77f86595eeaacdd1,62c53a5907160c13dfb487db,2022-07-06_17h32.07.491,Colour_Asymmetry_Pilot,2022.1.3,Win32,120.0768492,62c50e9c1127f2cd403a315f,0,156,156,71,1,fourthree,,,,,,,,,,,,,,,,,,,,,,,,,,,,,,,,,,,,,,,,,,,,,,,,,,,,,,,,,,,,,,,,,,,,,,,,,,,,,,,,,,,,,,,,,,,,,,,,,,,,,,,,,,,,,,,,,,,,,,,,,,,,,,,,,,,,,,,,,,,,,,,,,,,,,,,,,,,,,
,,,,,,5dfc2bdd77f86595eeaacdd1,62c53a5907160c13dfb487db,2022-07-06_17h32.07.491,Colour_Asymmetry_Pilot,2022.1.3,Win32,120.0768492,62c50e9c1127f2cd403a315f,0,157,157,75,1,twofour,,,,,,,,,,,,,,,,,,,,,,,,,,,,,,,,,,,,,,,,,,,,,,,,,,,,,,,,,,,,,,,,,,,,,,,,,,,,,,,,,,,,,,,,,,,,,,,,,,,,,,,,,,,,,,,,,,,,,,,,,,,,,,,,,,,,,,,,,,,,,,,,,,,,,,,,,,,,,
,,,,,,5dfc2bdd77f86595eeaacdd1,62c53a5907160c13dfb487db,2022-07-06_17h32.07.491,Colour_Asymmetry_Pilot,2022.1.3,Win32,120.0768492,62c50e9c1127f2cd403a315f,0,158,158,119,1,fourthree,,,,,,,,,,,,,,,,,,,,,,,,,,,,,,,,,,,,,,,,,,,,,,,,,,,,,,,,,,,,,,,,,,,,,,,,,,,,,,,,,,,,,,,,,,,,,,,,,,,,,,,,,,,,,,,,,,,,,,,,,,,,,,,,,,,,,,,,,,,,,,,,,,,,,,,,,,,,,
,,,,,,5dfc2bdd77f86595eeaacdd1,62c53a5907160c13dfb487db,2022-07-06_17h32.07.491,Colour_Asymmetry_Pilot,2022.1.3,Win32,120.0768492,62c50e9c1127f2cd403a315f,0,159,159,2,1,twoone,,,,,,,,,,,,,,,,,,,,,,,,,,,,,,,,,,,,,,,,,,,,,,,,,,,,,,,,,,,,,,,,,,,,,,,,,,,,,,,,,,,,,,,,,,,,,,,,,,,,,,,,,,,,,,,,,,,,,,,,,,,,,,,,,,,,,,,,,,,,,,,,,,,,,,,,,,,,,
,,,,,,5dfc2bdd77f86595eeaacdd1,62c53a5907160c13dfb487db,2022-07-06_17h32.07.491,Colour_Asymmetry_Pilot,2022.1.3,Win32,120.0768492,62c50e9c1127f2cd403a315f,0,160,160,91,1,twofour,,,,,,,,,,,,,,,,,,,,,,,,,,,,,,,,,,,,,,,,,,,,,,,,,,,,,,,,,,,,,,,,,,,,,,,,,,,,,,,,,,,,,,,,,,,,,,,,,,,,,,,,,,,,,,,,,,,,,,,,,,,,,,,,,,,,,,,,,,,,,,,,,,,,,,,,,,,,,
,,,,,,5dfc2bdd77f86595eeaacdd1,62c53a5907160c13dfb487db,2022-07-06_17h32.07.491,Colour_Asymmetry_Pilot,2022.1.3,Win32,120.0768492,62c50e9c1127f2cd403a315f,0,161,161,65,1,onethree,,,,,,,,,,,,,,,,,,,,,,,,,,,,,,,,,,,,,,,,,,,,,,,,,,,,,,,,,,,,,,,,,,,,,,,,,,,,,,,,,,,,,,,,,,,,,,,,,,,,,,,,,,,,,,,,,,,,,,,,,,,,,,,,,,,,,,,,,,,,,,,,,,,,,,,,,,,,,
,,,,,,5dfc2bdd77f86595eeaacdd1,62c53a5907160c13dfb487db,2022-07-06_17h32.07.491,Colour_Asymmetry_Pilot,2022.1.3,Win32,120.0768492,62c50e9c1127f2cd403a315f,,,,,,,space,2.9324,space,18.6452,space,45.3019,space,18.3657,space,16.5169,space,4.7826,"[0.9686000000000001,0.5763999999999998,0.11359999999999992]",fourthree,"[0.09799999999999986,-0.24719999999999998,0.15280000000000005]",-4,16.8693,-98,179,1,0,0,response7disk_5,9,-2,1,0,0,rectangle_8,9,-2,1,0,0,4,9,-2,1,0,0,0,0,0,0,1,,,,,,,,,,,,,,,,,,,,,,,,,,,,,,,,,,,,,,,,,,,,,,,,,,,,,,,,,,,,,,,,,,,,,,,,,,,,,,,,,,,,,,,,,,,,,,,,,,,,,,,,,,,,,,,,
,,,,,,5dfc2bdd77f86595eeaacdd1,62c53a5907160c13dfb487db,2022-07-06_17h32.07.491,Colour_Asymmetry_Pilot,2022.1.3,Win32,120.0768492,62c50e9c1127f2cd403a315f,,,,,,,,,,,,,,,,,,,"[0.8274000000000001,-0.5844,-0.9452]",fourtwo,"[-0.5922000000000001,-0.7492000000000001,-0.5296000000000001]",-4,1.8834,-63,156,1,0,0,response7disk_5,7,1,1,0,0,rectangle_8,7,1,1,0,0,4,7,1,1,0,0,1,0,1,0,1,,,,,,,,,,,,,,,,,,,,,,,,,,,,,,,,,,,,,,,,,,,,,,,,,,,,,,,,,,,,,,,,,,,,,,,,,,,,,,,,,,,,,,,,,,,,,,,,,,,,,,,,,,,,,,,,
,,,,,,5dfc2bdd77f86595eeaacdd1,62c53a5907160c13dfb487db,2022-07-06_17h32.07.491,Colour_Asymmetry_Pilot,2022.1.3,Win32,120.0768492,62c50e9c1127f2cd403a315f,,,,,,,,,,,,,,,,,,,"[-0.10599999999999998,-0.15300000000000002,0.15280000000000005]",twofour,"[0.34099999999999997,0.5841999999999998,-0.9844]",-4,2.5129,-59,111,1,0,0,response7disk_5,-7,6,1,0,0,rectangle_8,79,150,1,0,0,4,20,6,1,0,0,2,0,2,0,1,response1disk_7,7,rectangle_4,,,,,,,,,,,,,,,,,,,,,,,,,,,,,,,,,,,,,,,,,,,,,,,,,,,,,,,,,,,,,,,,,,,,,,,,,,,,,,,,,,,,,,,,,,,,,,,,,,,,,,,,,,,,,
,,,,,,5dfc2bdd77f86595eeaacdd1,62c53a5907160c13dfb487db,2022-07-06_17h32.07.491,Colour_Asymmetry_Pilot,2022.1.3,Win32,120.0768492,62c50e9c1127f2cd403a315f,,,,,,,,,,,,,,,,,,,"[-0.10599999999999998,-0.10599999999999998,0.5841999999999998]",fourthree,"[-0.26280000000000003,-0.4746,-0.2158]",-1,6.4249,-84,-137,1,0,0,response5disk_5,-29,-9,1,0,0,rectangle_8,-29,-9,1,0,0,4,-29,-9,1,0,0,3,0,3,0,1,,,,,,,,,,,,,,,,,,,,,,,,,,,,,,,,,,,,,,,,,,,,,,,,,,,,,,,,,,,,,,,,,,,,,,,,,,,,,,,,,,,,,,,,,,,,,,,,,,,,,,,,,,,,,,,,
,,,,,,5dfc2bdd77f86595eeaacdd1,62c53a5907160c13dfb487db,2022-07-06_17h32.07.491,Colour_Asymmetry_Pilot,2022.1.3,Win32,120.0768492,62c50e9c1127f2cd403a315f,,,,,,,,,,,,,,,,,,,"[0.9763999999999999,0.30979999999999985,-0.6786]",threefour,"[-0.20799999999999996,-0.655,-0.01980000000000004]",-4,1.525,-70,120,1,0,0,response7disk_5,-22,-1,1,0,0,rectangle_8,-22,-1,1,0,0,4,-22,-1,1,0,0,4,0,4,0,1,,,,,,,,,,,,,,,,,,,,,,,,,,,,,,,,,,,,,,,,,,,,,,,,,,,,,,,,,,,,,,,,,,,,,,,,,,,,,,,,,,,,,,,,,,,,,,,,,,,,,,,,,,,,,,,,
,,,,,,5dfc2bdd77f86595eeaacdd1,62c53a5907160c13dfb487db,2022-07-06_17h32.07.491,Colour_Asymmetry_Pilot,2022.1.3,Win32,120.0768492,62c50e9c1127f2cd403a315f,,,,,,,,,,,,,,,,,,,"[-0.4902000000000001,0.2704,-0.45899999999999996]",fourthree,"[0.8274000000000001,-0.5844,-0.9452]",-4,1.2584,-55,118,1,0,0,response7disk_5,-21,0,1,0,0,rectangle_8,-21,0,1,0,0,4,-21,0,1,0,0,5,0,5,0,1,,,,,,,,,,,,,,,,,,,,,,,,,,,,,,,,,,,,,,,,,,,,,,,,,,,,,,,,,,,,,,,,,,,,,,,,,,,,,,,,,,,,,,,,,,,,,,,,,,,,,,,,,,,,,,,,
,,,,,,5dfc2bdd77f86595eeaacdd1,62c53a5907160c13dfb487db,2022-07-06_17h32.07.491,Colour_Asymmetry_Pilot,2022.1.3,Win32,120.0768492,62c50e9c1127f2cd403a315f,,,,,,,,,,,,,,,,,,,"[-0.26280000000000003,-0.2158,-0.3256]",onetwo,"[-0.5922000000000001,-0.7492000000000001,-0.5296000000000001]",-2,2.7831,-142,-46,1,0,0,response5disk_5,-10,-5,1,0,0,rectangle_8,-10,-5,1,0,0,4,-10,-5,1,0,0,6,0,6,0,1,,,,,,,,,,,,,,,,,,,,,,,,,,,,,,,,,,,,,,,,,,,,,,,,,,,,,,,,,,,,,,,,,,,,,,,,,,,,,,,,,,,,,,,,,,,,,,,,,,,,,,,,,,,,,,,,
,,,,,,5dfc2bdd77f86595eeaacdd1,62c53a5907160c13dfb487db,2022-07-06_17h32.07.491,Colour_Asymmetry_Pilot,2022.1.3,Win32,120.0768492,62c50e9c1127f2cd403a315f,,,,,,,,,,,,,,,,,,,,onethree,,-3,1.9834,,,,,,,,,,,,,,,,,,,,,,,,,,,,,,,,space,3.7874,"[-0.10599999999999998,-0.15300000000000002,0.15280000000000005]","[-0.45899999999999996,-0.3256,-0.9374]",-96,44,1,0,0,response7disk,-8,-8,1,0,0,rectangle,-8,-8,1,0,0,,2,0.0008,0,-8,-8,1,0,0,0,0,0,69,1,69,first,,,,,,,,,,,,,,,,,,,,,,,,,,,,,,,,,,,,,,,,,,,,,,,,,,,,,,,,,,,,,,,,,,,,,,,,
,,,,,,5dfc2bdd77f86595eeaacdd1,62c53a5907160c13dfb487db,2022-07-06_17h32.07.491,Colour_Asymmetry_Pilot,2022.1.3,Win32,120.0768492,62c50e9c1127f2cd403a315f,,,,,,,,,,,,,,,,,,,,threefour,,3,2.1833,,,,,,,,,,,,,,,,,,,,,,,,,,,,,,,,,,"[0.5528,0.7409999999999999,-0.71]","[0.5528,0.7409999999999999,-0.71]",115,46,1,0,0,response1disk,16,-9,1,0,0,rectangle,16,-9,1,0,0,,1,0.0005,0,16,-9,1,0,0,0,1,1,110,1,29,second,,,,,,,,,,,,,,,,,,,,,,,,,,,,,,,,,,,,,,,,,,,,,,,,,,,,,,,,,,,,,,,,,,,,,,,,
,,,,,,5dfc2bdd77f86595eeaacdd1,62c53a5907160c13dfb487db,2022-07-06_17h32.07.491,Colour_Asymmetry_Pilot,2022.1.3,Win32,120.0768492,62c50e9c1127f2cd403a315f,,,,,,,,,,,,,,,,,,,,twofour,,-2,1.5917,,,,,,,,,,,,,,,,,,,,,,,,,,,,,,,,,,"[0.34099999999999997,0.5841999999999998,-0.9844]","[-0.9296,-0.12959999999999994,-0.043199999999999905]",-124,-50,1,0,0,response5disk,12,-7,1,0,0,rectangle,12,-7,1,0,0,,2,0.0005,0,12,-7,1,0,0,0,2,2,113,1,32,second,,,,,,,,,,,,,,,,,,,,,,,,,,,,,,,,,,,,,,,,,,,,,,,,,,,,,,,,,,,,,,,,,,,,,,,,
,,,,,,5dfc2bdd77f86595eeaacdd1,62c53a5907160c13dfb487db,2022-07-06_17h32.07.491,Colour_Asymmetry_Pilot,2022.1.3,Win32,120.0768492,62c50e9c1127f2cd403a315f,,,,,,,,,,,,,,,,,,,,onethree,,4,2.8,,,,,,,,,,,,,,,,,,,,,,,,,,,,,,,,,,"[0.3881999999999999,-0.23939999999999995,-0.05040000000000011]","[0.5449999999999999,-0.31000000000000005,-0.0354000000000001]",86,126,1,0,0,response1disk,12,-3,1,0,0,rectangle,12,-3,1,0,0,,3,0.0005,0,12,-3,1,0,0,0,3,3,143,1,62,second,,,,,,,,,,,,,,,,,,,,,,,,,,,,,,,,,,,,,,,,,,,,,,,,,,,,,,,,,,,,,,,,,,,,,,,,
,,,,,,5dfc2bdd77f86595eeaacdd1,62c53a5907160c13dfb487db,2022-07-06_17h32.07.491,Colour_Asymmetry_Pilot,2022.1.3,Win32,120.0768492,62c50e9c1127f2cd403a315f,,,,,,,,,,,,,,,,,,,,threeone,,-3,1.6668,,,,,,,,,,,,,,,,,,,,,,,,,,,,,,,,,,"[0.3568,-0.20799999999999996,-0.9844]","[0.05879999999999996,0.2784,0.5841999999999998]",-160,50,1,0,0,response7disk,18,-10,1,0,0,rectangle,18,-10,1,0,0,,1,0.0005,0,18,-10,1,0,0,0,4,4,115,1,34,second,,,,,,,,,,,,,,,,,,,,,,,,,,,,,,,,,,,,,,,,,,,,,,,,,,,,,,,,,,,,,,,,,,,,,,,,
,,,,,,5dfc2bdd77f86595eeaacdd1,62c53a5907160c13dfb487db,2022-07-06_17h32.07.491,Colour_Asymmetry_Pilot,2022.1.3,Win32,120.0768492,62c50e9c1127f2cd403a315f,,,,,,,,,,,,,,,,,,,,threeone,,-1,1.275,,,,,,,,,,,,,,,,,,,,,,,,,,,,,,,,,,"[0.11359999999999992,0.6312,0.5213999999999999]","[-0.30200000000000005,0.14500000000000002,0.2784]",-76,-152,1,0,0,response5disk,-14,-12,1,0,0,rectangle,-14,-12,1,0,0,,1,1E-04,0,-14,-12,1,0,0,0,5,5,127,1,46,second,,,,,,,,,,,,,,,,,,,,,,,,,,,,,,,,,,,,,,,,,,,,,,,,,,,,,,,,,,,,,,,,,,,,,,,,
,,,,,,5dfc2bdd77f86595eeaacdd1,62c53a5907160c13dfb487db,2022-07-06_17h32.07.491,Colour_Asymmetry_Pilot,2022.1.3,Win32,120.0768492,62c50e9c1127f2cd403a315f,,,,,,,,,,,,,,,,,,,,onethree,,-4,1.35,,,,,,,,,,,,,,,,,,,,,,,,,,,,,,,,,,"[0.34099999999999997,0.12939999999999996,-0.9766]","[0.12939999999999996,-0.2864,0.3253999999999999]",-75,130,1,0,0,response7disk,-31,9,1,0,0,rectangle,-31,9,1,0,0,,2,0.0005,0,-31,9,1,0,0,0,6,6,6,1,6,first,,,,,,,,,,,,,,,,,,,,,,,,,,,,,,,,,,,,,,,,,,,,,,,,,,,,,,,,,,,,,,,,,,,,,,,,
,,,,,,5dfc2bdd77f86595eeaacdd1,62c53a5907160c13dfb487db,2022-07-06_17h32.07.491,Colour_Asymmetry_Pilot,2022.1.3,Win32,120.0768492,62c50e9c1127f2cd403a315f,,,,,,,,,,,,,,,,,,,,onethree,,-3,0.7666,,,,,,,,,,,,,,,,,,,,,,,,,,,,,,,,,,"[0.7646000000000002,0.07440000000000002,0.2704]","[0.18419999999999992,-0.4276,-0.404]",-127,62,1,0,0,response7disk,-6,-1,1,0,0,rectangle,-6,-1,1,0,0,,1,0.0006,0,-6,-1,1,0,0,0,7,7,101,1,20,second,,,,,,,,,,,,,,,,,,,,,,,,,,,,,,,,,,,,,,,,,,,,,,,,,,,,,,,,,,,,,,,,,,,,,,,,
,,,,,,5dfc2bdd77f86595eeaacdd1,62c53a5907160c13dfb487db,2022-07-06_17h32.07.491,Colour_Asymmetry_Pilot,2022.1.3,Win32,120.0768492,62c50e9c1127f2cd403a315f,,,,,,,,,,,,,,,,,,,,onethree,,-4,0.6585,,,,,,,,,,,,,,,,,,,,,,,,,,,,,,,,,,"[0.9686000000000001,0.3802000000000001,0.19999999999999996]","[-0.9766,-0.6472,0.07440000000000002]",-77,133,1,0,0,response7disk,-24,-3,1,0,0,rectangle,-24,-3,1,0,0,,2,0.0005,0,-24,-3,1,0,0,0,8,8,154,1,73,second,,,,,,,,,,,,,,,,,,,,,,,,,,,,,,,,,,,,,,,,,,,,,,,,,,,,,,,,,,,,,,,,,,,,,,,,
,,,,,,5dfc2bdd77f86595eeaacdd1,62c53a5907160c13dfb487db,2022-07-06_17h32.07.491,Colour_Asymmetry_Pilot,2022.1.3,Win32,120.0768492,62c50e9c1127f2cd403a315f,,,,,,,,,,,,,,,,,,,,twofour,,-4,0.5501,,,,,,,,,,,,,,,,,,,,,,,,,,,,,,,,,,"[-0.20799999999999996,-0.655,-0.01980000000000004]","[-0.24719999999999998,0.5213999999999999,-0.12959999999999994]",-81,138,1,0,0,response7disk,-25,5,1,0,0,rectangle,-25,5,1,0,0,,2,0.0002,0,-25,5,1,0,0,0,9,9,135,1,54,second,,,,,,,,,,,,,,,,,,,,,,,,,,,,,,,,,,,,,,,,,,,,,,,,,,,,,,,,,,,,,,,,,,,,,,,,
,,,,,,5dfc2bdd77f86595eeaacdd1,62c53a5907160c13dfb487db,2022-07-06_17h32.07.491,Colour_Asymmetry_Pilot,2022.1.3,Win32,120.0768492,62c50e9c1127f2cd403a315f,,,,,,,,,,,,,,,,,,,,threefour,,-4,0.8751,,,,,,,,,,,,,,,,,,,,,,,,,,,,,,,,,,"[-0.17659999999999998,-0.2864,-0.8354]","[-0.011800000000000033,-0.906,-0.45100000000000007]",-93,122,1,0,0,response7disk,-21,3,1,0,0,rectangle,-21,3,1,0,0,,3,0.0004,0,-21,3,1,0,0,0,10,10,70,1,70,first,,,,,,,,,,,,,,,,,,,,,,,,,,,,,,,,,,,,,,,,,,,,,,,,,,,,,,,,,,,,,,,,,,,,,,,,
,,,,,,5dfc2bdd77f86595eeaacdd1,62c53a5907160c13dfb487db,2022-07-06_17h32.07.491,Colour_Asymmetry_Pilot,2022.1.3,Win32,120.0768492,62c50e9c1127f2cd403a315f,,,,,,,,,,,,,,,,,,,,fourthree,,-4,1.2083,,,,,,,,,,,,,,,,,,,,,,,,,,,,,,,,,,"[-0.0040000000000000036,0.02739999999999987,-0.08239999999999992]","[0.40379999999999994,0.09000000000000008,0.44300000000000006]",-73,131,1,0,0,response7disk,-26,-2,1,0,0,rectangle,-26,-2,1,0,0,,2,0.0005,0,-26,-2,1,0,0,0,11,11,77,1,77,first,,,,,,,,,,,,,,,,,,,,,,,,,,,,,,,,,,,,,,,,,,,,,,,,,,,,,,,,,,,,,,,,,,,,,,,,
,,,,,,5dfc2bdd77f86595eeaacdd1,62c53a5907160c13dfb487db,2022-07-06_17h32.07.491,Colour_Asymmetry_Pilot,2022.1.3,Win32,120.0768492,62c50e9c1127f2cd403a315f,,,,,,,,,,,,,,,,,,,,threeone,,-3,0.6749,,,,,,,,,,,,,,,,,,,,,,,,,,,,,,,,,,"[0.8274000000000001,-0.5844,-0.9452]","[0.3881999999999999,-0.23939999999999995,-0.05040000000000011]",-106,66,1,0,0,response7disk,-5,0,1,0,0,rectangle,-5,0,1,0,0,,2,0.0006,0,-5,0,1,0,0,0,12,12,92,1,11,second,,,,,,,,,,,,,,,,,,,,,,,,,,,,,,,,,,,,,,,,,,,,,,,,,,,,,,,,,,,,,,,,,,,,,,,,
,,,,,,5dfc2bdd77f86595eeaacdd1,62c53a5907160c13dfb487db,2022-07-06_17h32.07.491,Colour_Asymmetry_Pilot,2022.1.3,Win32,120.0768492,62c50e9c1127f2cd403a315f,,,,,,,,,,,,,,,,,,,,twoone,,-4,0.975,,,,,,,,,,,,,,,,,,,,,,,,,,,,,,,,,,"[0.0351999999999999,0.41159999999999997,0.0038000000000000256]","[-0.10599999999999998,-0.10599999999999998,0.5841999999999998]",-68,104,1,0,0,response7disk,-28,-4,1,0,0,rectangle,-28,-4,1,0,0,,1,0.0008,0,-28,-4,1,0,0,0,13,13,16,1,16,first,,,,,,,,,,,,,,,,,,,,,,,,,,,,,,,,,,,,,,,,,,,,,,,,,,,,,,,,,,,,,,,,,,,,,,,,
,,,,,,5dfc2bdd77f86595eeaacdd1,62c53a5907160c13dfb487db,2022-07-06_17h32.07.491,Colour_Asymmetry_Pilot,2022.1.3,Win32,120.0768492,62c50e9c1127f2cd403a315f,,,,,,,,,,,,,,,,,,,,onetwo,,-4,0.5251,,,,,,,,,,,,,,,,,,,,,,,,,,,,,,,,,,"[0.7018,0.7802,-0.16079999999999994]","[-0.5452,-0.608,0.2470000000000001]",-72,127,1,0,0,response7disk,-9,-17,1,0,0,rectangle,-9,-17,1,0,0,,1,1E-04,0,-9,-17,1,0,0,0,14,14,21,1,21,first,,,,,,,,,,,,,,,,,,,,,,,,,,,,,,,,,,,,,,,,,,,,,,,,,,,,,,,,,,,,,,,,,,,,,,,,
,,,,,,5dfc2bdd77f86595eeaacdd1,62c53a5907160c13dfb487db,2022-07-06_17h32.07.491,Colour_Asymmetry_Pilot,2022.1.3,Win32,120.0768492,62c50e9c1127f2cd403a315f,,,,,,,,,,,,,,,,,,,,threefour,,-3,1.8583,,,,,,,,,,,,,,,,,,,,,,,,,,,,,,,,,,"[-0.09019999999999995,0.44300000000000006,0.5371999999999999]","[0.0351999999999999,0.41159999999999997,0.0038000000000000256]",-111,73,1,0,0,response7disk,4,5,1,0,0,rectangle,4,5,1,0,0,,1,0.0002,0,4,5,1,0,0,0,15,15,94,1,13,second,,,,,,,,,,,,,,,,,,,,,,,,,,,,,,,,,,,,,,,,,,,,,,,,,,,,,,,,,,,,,,,,,,,,,,,,
,,,,,,5dfc2bdd77f86595eeaacdd1,62c53a5907160c13dfb487db,2022-07-06_17h32.07.491,Colour_Asymmetry_Pilot,2022.1.3,Win32,120.0768492,62c50e9c1127f2cd403a315f,,,,,,,,,,,,,,,,,,,,onethree,,-3,0.5083,,,,,,,,,,,,,,,,,,,,,,,,,,,,,,,,,,"[0.9763999999999999,0.8588,-0.05900000000000005]","[0.6547999999999998,-0.043199999999999905,-0.011800000000000033]",-162,68,1,0,0,response7disk,-8,-5,1,0,0,rectangle,-8,-5,1,0,0,,1,1E-04,0,-8,-5,1,0,0,0,16,16,156,1,75,second,,,,,,,,,,,,,,,,,,,,,,,,,,,,,,,,,,,,,,,,,,,,,,,,,,,,,,,,,,,,,,,,,,,,,,,,
