trials.thisRepN,trials.thisTrialN,trials.thisN,trials.thisIndex,trials.ran,Colourcodes,participant,session,date,expName,psychopyVersion,OS,frameRate,study_id,trials_4.thisRepN,trials_4.thisTrialN,trials_4.thisN,trials_4.thisIndex,trials_4.ran,StimulusPos,key_resp.keys,key_resp.rt,key_resp_2.keys,key_resp_2.rt,key_resp_15.keys,key_resp_15.rt,key_resp_17.keys,key_resp_17.rt,key_resp_9.keys,key_resp_9.rt,key_resp_10.keys,key_resp_10.rt,Circle1_col,Ecc,Circle2_col,similarity,response_time,mouse_5.x,mouse_5.y,mouse_5.leftButton,mouse_5.midButton,mouse_5.rightButton,mouse_5.clicked_name,mouse_10.x,mouse_10.y,mouse_10.leftButton,mouse_10.midButton,mouse_10.rightButton,mouse_10.clicked_name,mouse_7.x,mouse_7.y,mouse_7.leftButton,mouse_7.midButton,mouse_7.rightButton,catchnumberprac,mouse_6.x,mouse_6.y,mouse_6.leftButton,mouse_6.midButton,mouse_6.rightButton,duringprac.thisRepN,duringprac.thisTrialN,duringprac.thisN,duringprac.thisIndex,duringprac.ran,mouse_7.clicked_name,catchprac,mouse_6.clicked_name,key_resp_22.keys,key_resp_22.rt,Circle1_colour,Circle2_colour,mouse.x,mouse.y,mouse.leftButton,mouse.midButton,mouse.rightButton,mouse.clicked_name,mouse_2.x,mouse_2.y,mouse_2.leftButton,mouse_2.midButton,mouse_2.rightButton,mouse_2.clicked_name,mouse_3.x,mouse_3.y,mouse_3.leftButton,mouse_3.midButton,mouse_3.rightButton,catchresponse,catchnumber,response_time_catch,Catch,mouse_11.x,mouse_11.y,mouse_11.leftButton,mouse_11.midButton,mouse_11.rightButton,trials_2.thisRepN,trials_2.thisTrialN,trials_2.thisN,trials_2.thisIndex,trials_2.ran,Colourpair,Temporder,mouse_3.clicked_name,mouse_11.clicked_name,trials_3.thisRepN,trials_3.thisTrialN,trials_3.thisN,trials_3.thisIndex,trials_3.ran,key_resp_instr_Ishi.keys,key_resp_instr_Ishi.rt,Ishi_trial_keyresp.keys,Ishi_textbox.text,Ishi_mouse.x,Ishi_mouse.y,Ishi_mouse.leftButton,Ishi_mouse.midButton,Ishi_mouse.rightButton,Ishi_mouse.clicked_name,Ishi_loop.thisRepN,Ishi_loop.thisTrialN,Ishi_loop.thisN,Ishi_loop.thisIndex,Ishi_loop.ran,imageaddress,textbox.text,mouse_4.x,mouse_4.y,mouse_4.leftButton,mouse_4.midButton,mouse_4.rightButton,mouse_4.clicked_name,textbox_2.text,mouse_8.x,mouse_8.y,mouse_8.leftButton,mouse_8.midButton,mouse_8.rightButton,mouse_8.clicked_name,textbox_3.text,mouse_9.x,mouse_9.y,mouse_9.leftButton,mouse_9.midButton,mouse_9.rightButton,mouse_9.clicked_name,textbox_4.text,mouse_12.x,mouse_12.y,mouse_12.leftButton,mouse_12.midButton,mouse_12.rightButton,mouse_12.clicked_name,textbox_5.text,mouse_13.x,mouse_13.y,mouse_13.leftButton,mouse_13.midButton,mouse_13.rightButton,mouse_13.clicked_name,textbox_6.text,mouse_14.x,mouse_14.y,mouse_14.leftButton,mouse_14.midButton,mouse_14.rightButton,mouse_14.clicked_name,textbox_7.text,mouse_15.x,mouse_15.y,mouse_15.leftButton,mouse_15.midButton,mouse_15.rightButton,mouse_15.clicked_name
0,0,0,78,1,,613d091096ca434d703f77c5,62c53a914f260ff71db91f3a,2022-07-06_09h32.48.915,Colour_Asymmetry_Pilot,2022.1.3,Win32,59.95203837,62c50e9c1127f2cd403a315f,,,,,,,,,,,,,,,,,,,,,,,,,,,,,,,,,,,,,,,,,,,,,,,,,,,,,,,,,,,,,,,,,,,,,,,,,,,,,,,,,,,,,,,,,,,,,,,,,,,,,,,,,,,,,,,,,,,,,,,,,,,,,,,,,,,,,,,,,,,,,,,,,,,,,,,,,,,,,,,,,,,
0,1,1,19,1,,613d091096ca434d703f77c5,62c53a914f260ff71db91f3a,2022-07-06_09h32.48.915,Colour_Asymmetry_Pilot,2022.1.3,Win32,59.95203837,62c50e9c1127f2cd403a315f,,,,,,,,,,,,,,,,,,,,,,,,,,,,,,,,,,,,,,,,,,,,,,,,,,,,,,,,,,,,,,,,,,,,,,,,,,,,,,,,,,,,,,,,,,,,,,,,,,,,,,,,,,,,,,,,,,,,,,,,,,,,,,,,,,,,,,,,,,,,,,,,,,,,,,,,,,,,,,,,,,,
0,2,2,83,1,,613d091096ca434d703f77c5,62c53a914f260ff71db91f3a,2022-07-06_09h32.48.915,Colour_Asymmetry_Pilot,2022.1.3,Win32,59.95203837,62c50e9c1127f2cd403a315f,,,,,,,,,,,,,,,,,,,,,,,,,,,,,,,,,,,,,,,,,,,,,,,,,,,,,,,,,,,,,,,,,,,,,,,,,,,,,,,,,,,,,,,,,,,,,,,,,,,,,,,,,,,,,,,,,,,,,,,,,,,,,,,,,,,,,,,,,,,,,,,,,,,,,,,,,,,,,,,,,,,
0,3,3,37,1,,613d091096ca434d703f77c5,62c53a914f260ff71db91f3a,2022-07-06_09h32.48.915,Colour_Asymmetry_Pilot,2022.1.3,Win32,59.95203837,62c50e9c1127f2cd403a315f,,,,,,,,,,,,,,,,,,,,,,,,,,,,,,,,,,,,,,,,,,,,,,,,,,,,,,,,,,,,,,,,,,,,,,,,,,,,,,,,,,,,,,,,,,,,,,,,,,,,,,,,,,,,,,,,,,,,,,,,,,,,,,,,,,,,,,,,,,,,,,,,,,,,,,,,,,,,,,,,,,,
0,4,4,71,1,,613d091096ca434d703f77c5,62c53a914f260ff71db91f3a,2022-07-06_09h32.48.915,Colour_Asymmetry_Pilot,2022.1.3,Win32,59.95203837,62c50e9c1127f2cd403a315f,,,,,,,,,,,,,,,,,,,,,,,,,,,,,,,,,,,,,,,,,,,,,,,,,,,,,,,,,,,,,,,,,,,,,,,,,,,,,,,,,,,,,,,,,,,,,,,,,,,,,,,,,,,,,,,,,,,,,,,,,,,,,,,,,,,,,,,,,,,,,,,,,,,,,,,,,,,,,,,,,,,
0,5,5,9,1,,613d091096ca434d703f77c5,62c53a914f260ff71db91f3a,2022-07-06_09h32.48.915,Colour_Asymmetry_Pilot,2022.1.3,Win32,59.95203837,62c50e9c1127f2cd403a315f,,,,,,,,,,,,,,,,,,,,,,,,,,,,,,,,,,,,,,,,,,,,,,,,,,,,,,,,,,,,,,,,,,,,,,,,,,,,,,,,,,,,,,,,,,,,,,,,,,,,,,,,,,,,,,,,,,,,,,,,,,,,,,,,,,,,,,,,,,,,,,,,,,,,,,,,,,,,,,,,,,,
0,6,6,86,1,,613d091096ca434d703f77c5,62c53a914f260ff71db91f3a,2022-07-06_09h32.48.915,Colour_Asymmetry_Pilot,2022.1.3,Win32,59.95203837,62c50e9c1127f2cd403a315f,,,,,,,,,,,,,,,,,,,,,,,,,,,,,,,,,,,,,,,,,,,,,,,,,,,,,,,,,,,,,,,,,,,,,,,,,,,,,,,,,,,,,,,,,,,,,,,,,,,,,,,,,,,,,,,,,,,,,,,,,,,,,,,,,,,,,,,,,,,,,,,,,,,,,,,,,,,,,,,,,,,
0,7,7,57,1,,613d091096ca434d703f77c5,62c53a914f260ff71db91f3a,2022-07-06_09h32.48.915,Colour_Asymmetry_Pilot,2022.1.3,Win32,59.95203837,62c50e9c1127f2cd403a315f,,,,,,,,,,,,,,,,,,,,,,,,,,,,,,,,,,,,,,,,,,,,,,,,,,,,,,,,,,,,,,,,,,,,,,,,,,,,,,,,,,,,,,,,,,,,,,,,,,,,,,,,,,,,,,,,,,,,,,,,,,,,,,,,,,,,,,,,,,,,,,,,,,,,,,,,,,,,,,,,,,,
0,8,8,30,1,,613d091096ca434d703f77c5,62c53a914f260ff71db91f3a,2022-07-06_09h32.48.915,Colour_Asymmetry_Pilot,2022.1.3,Win32,59.95203837,62c50e9c1127f2cd403a315f,,,,,,,,,,,,,,,,,,,,,,,,,,,,,,,,,,,,,,,,,,,,,,,,,,,,,,,,,,,,,,,,,,,,,,,,,,,,,,,,,,,,,,,,,,,,,,,,,,,,,,,,,,,,,,,,,,,,,,,,,,,,,,,,,,,,,,,,,,,,,,,,,,,,,,,,,,,,,,,,,,,
0,9,9,6,1,,613d091096ca434d703f77c5,62c53a914f260ff71db91f3a,2022-07-06_09h32.48.915,Colour_Asymmetry_Pilot,2022.1.3,Win32,59.95203837,62c50e9c1127f2cd403a315f,,,,,,,,,,,,,,,,,,,,,,,,,,,,,,,,,,,,,,,,,,,,,,,,,,,,,,,,,,,,,,,,,,,,,,,,,,,,,,,,,,,,,,,,,,,,,,,,,,,,,,,,,,,,,,,,,,,,,,,,,,,,,,,,,,,,,,,,,,,,,,,,,,,,,,,,,,,,,,,,,,,
0,10,10,52,1,,613d091096ca434d703f77c5,62c53a914f260ff71db91f3a,2022-07-06_09h32.48.915,Colour_Asymmetry_Pilot,2022.1.3,Win32,59.95203837,62c50e9c1127f2cd403a315f,,,,,,,,,,,,,,,,,,,,,,,,,,,,,,,,,,,,,,,,,,,,,,,,,,,,,,,,,,,,,,,,,,,,,,,,,,,,,,,,,,,,,,,,,,,,,,,,,,,,,,,,,,,,,,,,,,,,,,,,,,,,,,,,,,,,,,,,,,,,,,,,,,,,,,,,,,,,,,,,,,,
0,11,11,25,1,,613d091096ca434d703f77c5,62c53a914f260ff71db91f3a,2022-07-06_09h32.48.915,Colour_Asymmetry_Pilot,2022.1.3,Win32,59.95203837,62c50e9c1127f2cd403a315f,,,,,,,,,,,,,,,,,,,,,,,,,,,,,,,,,,,,,,,,,,,,,,,,,,,,,,,,,,,,,,,,,,,,,,,,,,,,,,,,,,,,,,,,,,,,,,,,,,,,,,,,,,,,,,,,,,,,,,,,,,,,,,,,,,,,,,,,,,,,,,,,,,,,,,,,,,,,,,,,,,,
0,12,12,50,1,,613d091096ca434d703f77c5,62c53a914f260ff71db91f3a,2022-07-06_09h32.48.915,Colour_Asymmetry_Pilot,2022.1.3,Win32,59.95203837,62c50e9c1127f2cd403a315f,,,,,,,,,,,,,,,,,,,,,,,,,,,,,,,,,,,,,,,,,,,,,,,,,,,,,,,,,,,,,,,,,,,,,,,,,,,,,,,,,,,,,,,,,,,,,,,,,,,,,,,,,,,,,,,,,,,,,,,,,,,,,,,,,,,,,,,,,,,,,,,,,,,,,,,,,,,,,,,,,,,
0,13,13,5,1,,613d091096ca434d703f77c5,62c53a914f260ff71db91f3a,2022-07-06_09h32.48.915,Colour_Asymmetry_Pilot,2022.1.3,Win32,59.95203837,62c50e9c1127f2cd403a315f,,,,,,,,,,,,,,,,,,,,,,,,,,,,,,,,,,,,,,,,,,,,,,,,,,,,,,,,,,,,,,,,,,,,,,,,,,,,,,,,,,,,,,,,,,,,,,,,,,,,,,,,,,,,,,,,,,,,,,,,,,,,,,,,,,,,,,,,,,,,,,,,,,,,,,,,,,,,,,,,,,,
0,14,14,82,1,,613d091096ca434d703f77c5,62c53a914f260ff71db91f3a,2022-07-06_09h32.48.915,Colour_Asymmetry_Pilot,2022.1.3,Win32,59.95203837,62c50e9c1127f2cd403a315f,,,,,,,,,,,,,,,,,,,,,,,,,,,,,,,,,,,,,,,,,,,,,,,,,,,,,,,,,,,,,,,,,,,,,,,,,,,,,,,,,,,,,,,,,,,,,,,,,,,,,,,,,,,,,,,,,,,,,,,,,,,,,,,,,,,,,,,,,,,,,,,,,,,,,,,,,,,,,,,,,,,
0,15,15,24,1,,613d091096ca434d703f77c5,62c53a914f260ff71db91f3a,2022-07-06_09h32.48.915,Colour_Asymmetry_Pilot,2022.1.3,Win32,59.95203837,62c50e9c1127f2cd403a315f,,,,,,,,,,,,,,,,,,,,,,,,,,,,,,,,,,,,,,,,,,,,,,,,,,,,,,,,,,,,,,,,,,,,,,,,,,,,,,,,,,,,,,,,,,,,,,,,,,,,,,,,,,,,,,,,,,,,,,,,,,,,,,,,,,,,,,,,,,,,,,,,,,,,,,,,,,,,,,,,,,,
0,16,16,53,1,,613d091096ca434d703f77c5,62c53a914f260ff71db91f3a,2022-07-06_09h32.48.915,Colour_Asymmetry_Pilot,2022.1.3,Win32,59.95203837,62c50e9c1127f2cd403a315f,,,,,,,,,,,,,,,,,,,,,,,,,,,,,,,,,,,,,,,,,,,,,,,,,,,,,,,,,,,,,,,,,,,,,,,,,,,,,,,,,,,,,,,,,,,,,,,,,,,,,,,,,,,,,,,,,,,,,,,,,,,,,,,,,,,,,,,,,,,,,,,,,,,,,,,,,,,,,,,,,,,
0,17,17,67,1,,613d091096ca434d703f77c5,62c53a914f260ff71db91f3a,2022-07-06_09h32.48.915,Colour_Asymmetry_Pilot,2022.1.3,Win32,59.95203837,62c50e9c1127f2cd403a315f,,,,,,,,,,,,,,,,,,,,,,,,,,,,,,,,,,,,,,,,,,,,,,,,,,,,,,,,,,,,,,,,,,,,,,,,,,,,,,,,,,,,,,,,,,,,,,,,,,,,,,,,,,,,,,,,,,,,,,,,,,,,,,,,,,,,,,,,,,,,,,,,,,,,,,,,,,,,,,,,,,,
0,18,18,92,1,,613d091096ca434d703f77c5,62c53a914f260ff71db91f3a,2022-07-06_09h32.48.915,Colour_Asymmetry_Pilot,2022.1.3,Win32,59.95203837,62c50e9c1127f2cd403a315f,,,,,,,,,,,,,,,,,,,,,,,,,,,,,,,,,,,,,,,,,,,,,,,,,,,,,,,,,,,,,,,,,,,,,,,,,,,,,,,,,,,,,,,,,,,,,,,,,,,,,,,,,,,,,,,,,,,,,,,,,,,,,,,,,,,,,,,,,,,,,,,,,,,,,,,,,,,,,,,,,,,
0,19,19,74,1,,613d091096ca434d703f77c5,62c53a914f260ff71db91f3a,2022-07-06_09h32.48.915,Colour_Asymmetry_Pilot,2022.1.3,Win32,59.95203837,62c50e9c1127f2cd403a315f,,,,,,,,,,,,,,,,,,,,,,,,,,,,,,,,,,,,,,,,,,,,,,,,,,,,,,,,,,,,,,,,,,,,,,,,,,,,,,,,,,,,,,,,,,,,,,,,,,,,,,,,,,,,,,,,,,,,,,,,,,,,,,,,,,,,,,,,,,,,,,,,,,,,,,,,,,,,,,,,,,,
0,20,20,64,1,,613d091096ca434d703f77c5,62c53a914f260ff71db91f3a,2022-07-06_09h32.48.915,Colour_Asymmetry_Pilot,2022.1.3,Win32,59.95203837,62c50e9c1127f2cd403a315f,,,,,,,,,,,,,,,,,,,,,,,,,,,,,,,,,,,,,,,,,,,,,,,,,,,,,,,,,,,,,,,,,,,,,,,,,,,,,,,,,,,,,,,,,,,,,,,,,,,,,,,,,,,,,,,,,,,,,,,,,,,,,,,,,,,,,,,,,,,,,,,,,,,,,,,,,,,,,,,,,,,
0,21,21,61,1,,613d091096ca434d703f77c5,62c53a914f260ff71db91f3a,2022-07-06_09h32.48.915,Colour_Asymmetry_Pilot,2022.1.3,Win32,59.95203837,62c50e9c1127f2cd403a315f,,,,,,,,,,,,,,,,,,,,,,,,,,,,,,,,,,,,,,,,,,,,,,,,,,,,,,,,,,,,,,,,,,,,,,,,,,,,,,,,,,,,,,,,,,,,,,,,,,,,,,,,,,,,,,,,,,,,,,,,,,,,,,,,,,,,,,,,,,,,,,,,,,,,,,,,,,,,,,,,,,,
0,22,22,54,1,,613d091096ca434d703f77c5,62c53a914f260ff71db91f3a,2022-07-06_09h32.48.915,Colour_Asymmetry_Pilot,2022.1.3,Win32,59.95203837,62c50e9c1127f2cd403a315f,,,,,,,,,,,,,,,,,,,,,,,,,,,,,,,,,,,,,,,,,,,,,,,,,,,,,,,,,,,,,,,,,,,,,,,,,,,,,,,,,,,,,,,,,,,,,,,,,,,,,,,,,,,,,,,,,,,,,,,,,,,,,,,,,,,,,,,,,,,,,,,,,,,,,,,,,,,,,,,,,,,
0,23,23,23,1,,613d091096ca434d703f77c5,62c53a914f260ff71db91f3a,2022-07-06_09h32.48.915,Colour_Asymmetry_Pilot,2022.1.3,Win32,59.95203837,62c50e9c1127f2cd403a315f,,,,,,,,,,,,,,,,,,,,,,,,,,,,,,,,,,,,,,,,,,,,,,,,,,,,,,,,,,,,,,,,,,,,,,,,,,,,,,,,,,,,,,,,,,,,,,,,,,,,,,,,,,,,,,,,,,,,,,,,,,,,,,,,,,,,,,,,,,,,,,,,,,,,,,,,,,,,,,,,,,,
0,24,24,63,1,,613d091096ca434d703f77c5,62c53a914f260ff71db91f3a,2022-07-06_09h32.48.915,Colour_Asymmetry_Pilot,2022.1.3,Win32,59.95203837,62c50e9c1127f2cd403a315f,,,,,,,,,,,,,,,,,,,,,,,,,,,,,,,,,,,,,,,,,,,,,,,,,,,,,,,,,,,,,,,,,,,,,,,,,,,,,,,,,,,,,,,,,,,,,,,,,,,,,,,,,,,,,,,,,,,,,,,,,,,,,,,,,,,,,,,,,,,,,,,,,,,,,,,,,,,,,,,,,,,
0,25,25,14,1,,613d091096ca434d703f77c5,62c53a914f260ff71db91f3a,2022-07-06_09h32.48.915,Colour_Asymmetry_Pilot,2022.1.3,Win32,59.95203837,62c50e9c1127f2cd403a315f,,,,,,,,,,,,,,,,,,,,,,,,,,,,,,,,,,,,,,,,,,,,,,,,,,,,,,,,,,,,,,,,,,,,,,,,,,,,,,,,,,,,,,,,,,,,,,,,,,,,,,,,,,,,,,,,,,,,,,,,,,,,,,,,,,,,,,,,,,,,,,,,,,,,,,,,,,,,,,,,,,,
0,26,26,76,1,,613d091096ca434d703f77c5,62c53a914f260ff71db91f3a,2022-07-06_09h32.48.915,Colour_Asymmetry_Pilot,2022.1.3,Win32,59.95203837,62c50e9c1127f2cd403a315f,,,,,,,,,,,,,,,,,,,,,,,,,,,,,,,,,,,,,,,,,,,,,,,,,,,,,,,,,,,,,,,,,,,,,,,,,,,,,,,,,,,,,,,,,,,,,,,,,,,,,,,,,,,,,,,,,,,,,,,,,,,,,,,,,,,,,,,,,,,,,,,,,,,,,,,,,,,,,,,,,,,
0,27,27,81,1,,613d091096ca434d703f77c5,62c53a914f260ff71db91f3a,2022-07-06_09h32.48.915,Colour_Asymmetry_Pilot,2022.1.3,Win32,59.95203837,62c50e9c1127f2cd403a315f,,,,,,,,,,,,,,,,,,,,,,,,,,,,,,,,,,,,,,,,,,,,,,,,,,,,,,,,,,,,,,,,,,,,,,,,,,,,,,,,,,,,,,,,,,,,,,,,,,,,,,,,,,,,,,,,,,,,,,,,,,,,,,,,,,,,,,,,,,,,,,,,,,,,,,,,,,,,,,,,,,,
0,28,28,73,1,,613d091096ca434d703f77c5,62c53a914f260ff71db91f3a,2022-07-06_09h32.48.915,Colour_Asymmetry_Pilot,2022.1.3,Win32,59.95203837,62c50e9c1127f2cd403a315f,,,,,,,,,,,,,,,,,,,,,,,,,,,,,,,,,,,,,,,,,,,,,,,,,,,,,,,,,,,,,,,,,,,,,,,,,,,,,,,,,,,,,,,,,,,,,,,,,,,,,,,,,,,,,,,,,,,,,,,,,,,,,,,,,,,,,,,,,,,,,,,,,,,,,,,,,,,,,,,,,,,
0,29,29,72,1,,613d091096ca434d703f77c5,62c53a914f260ff71db91f3a,2022-07-06_09h32.48.915,Colour_Asymmetry_Pilot,2022.1.3,Win32,59.95203837,62c50e9c1127f2cd403a315f,,,,,,,,,,,,,,,,,,,,,,,,,,,,,,,,,,,,,,,,,,,,,,,,,,,,,,,,,,,,,,,,,,,,,,,,,,,,,,,,,,,,,,,,,,,,,,,,,,,,,,,,,,,,,,,,,,,,,,,,,,,,,,,,,,,,,,,,,,,,,,,,,,,,,,,,,,,,,,,,,,,
0,30,30,18,1,,613d091096ca434d703f77c5,62c53a914f260ff71db91f3a,2022-07-06_09h32.48.915,Colour_Asymmetry_Pilot,2022.1.3,Win32,59.95203837,62c50e9c1127f2cd403a315f,,,,,,,,,,,,,,,,,,,,,,,,,,,,,,,,,,,,,,,,,,,,,,,,,,,,,,,,,,,,,,,,,,,,,,,,,,,,,,,,,,,,,,,,,,,,,,,,,,,,,,,,,,,,,,,,,,,,,,,,,,,,,,,,,,,,,,,,,,,,,,,,,,,,,,,,,,,,,,,,,,,
0,31,31,69,1,,613d091096ca434d703f77c5,62c53a914f260ff71db91f3a,2022-07-06_09h32.48.915,Colour_Asymmetry_Pilot,2022.1.3,Win32,59.95203837,62c50e9c1127f2cd403a315f,,,,,,,,,,,,,,,,,,,,,,,,,,,,,,,,,,,,,,,,,,,,,,,,,,,,,,,,,,,,,,,,,,,,,,,,,,,,,,,,,,,,,,,,,,,,,,,,,,,,,,,,,,,,,,,,,,,,,,,,,,,,,,,,,,,,,,,,,,,,,,,,,,,,,,,,,,,,,,,,,,,
0,32,32,56,1,,613d091096ca434d703f77c5,62c53a914f260ff71db91f3a,2022-07-06_09h32.48.915,Colour_Asymmetry_Pilot,2022.1.3,Win32,59.95203837,62c50e9c1127f2cd403a315f,,,,,,,,,,,,,,,,,,,,,,,,,,,,,,,,,,,,,,,,,,,,,,,,,,,,,,,,,,,,,,,,,,,,,,,,,,,,,,,,,,,,,,,,,,,,,,,,,,,,,,,,,,,,,,,,,,,,,,,,,,,,,,,,,,,,,,,,,,,,,,,,,,,,,,,,,,,,,,,,,,,
0,33,33,21,1,,613d091096ca434d703f77c5,62c53a914f260ff71db91f3a,2022-07-06_09h32.48.915,Colour_Asymmetry_Pilot,2022.1.3,Win32,59.95203837,62c50e9c1127f2cd403a315f,,,,,,,,,,,,,,,,,,,,,,,,,,,,,,,,,,,,,,,,,,,,,,,,,,,,,,,,,,,,,,,,,,,,,,,,,,,,,,,,,,,,,,,,,,,,,,,,,,,,,,,,,,,,,,,,,,,,,,,,,,,,,,,,,,,,,,,,,,,,,,,,,,,,,,,,,,,,,,,,,,,
0,34,34,4,1,,613d091096ca434d703f77c5,62c53a914f260ff71db91f3a,2022-07-06_09h32.48.915,Colour_Asymmetry_Pilot,2022.1.3,Win32,59.95203837,62c50e9c1127f2cd403a315f,,,,,,,,,,,,,,,,,,,,,,,,,,,,,,,,,,,,,,,,,,,,,,,,,,,,,,,,,,,,,,,,,,,,,,,,,,,,,,,,,,,,,,,,,,,,,,,,,,,,,,,,,,,,,,,,,,,,,,,,,,,,,,,,,,,,,,,,,,,,,,,,,,,,,,,,,,,,,,,,,,,
0,35,35,7,1,,613d091096ca434d703f77c5,62c53a914f260ff71db91f3a,2022-07-06_09h32.48.915,Colour_Asymmetry_Pilot,2022.1.3,Win32,59.95203837,62c50e9c1127f2cd403a315f,,,,,,,,,,,,,,,,,,,,,,,,,,,,,,,,,,,,,,,,,,,,,,,,,,,,,,,,,,,,,,,,,,,,,,,,,,,,,,,,,,,,,,,,,,,,,,,,,,,,,,,,,,,,,,,,,,,,,,,,,,,,,,,,,,,,,,,,,,,,,,,,,,,,,,,,,,,,,,,,,,,
0,36,36,38,1,,613d091096ca434d703f77c5,62c53a914f260ff71db91f3a,2022-07-06_09h32.48.915,Colour_Asymmetry_Pilot,2022.1.3,Win32,59.95203837,62c50e9c1127f2cd403a315f,,,,,,,,,,,,,,,,,,,,,,,,,,,,,,,,,,,,,,,,,,,,,,,,,,,,,,,,,,,,,,,,,,,,,,,,,,,,,,,,,,,,,,,,,,,,,,,,,,,,,,,,,,,,,,,,,,,,,,,,,,,,,,,,,,,,,,,,,,,,,,,,,,,,,,,,,,,,,,,,,,,
0,37,37,44,1,,613d091096ca434d703f77c5,62c53a914f260ff71db91f3a,2022-07-06_09h32.48.915,Colour_Asymmetry_Pilot,2022.1.3,Win32,59.95203837,62c50e9c1127f2cd403a315f,,,,,,,,,,,,,,,,,,,,,,,,,,,,,,,,,,,,,,,,,,,,,,,,,,,,,,,,,,,,,,,,,,,,,,,,,,,,,,,,,,,,,,,,,,,,,,,,,,,,,,,,,,,,,,,,,,,,,,,,,,,,,,,,,,,,,,,,,,,,,,,,,,,,,,,,,,,,,,,,,,,
0,38,38,91,1,,613d091096ca434d703f77c5,62c53a914f260ff71db91f3a,2022-07-06_09h32.48.915,Colour_Asymmetry_Pilot,2022.1.3,Win32,59.95203837,62c50e9c1127f2cd403a315f,,,,,,,,,,,,,,,,,,,,,,,,,,,,,,,,,,,,,,,,,,,,,,,,,,,,,,,,,,,,,,,,,,,,,,,,,,,,,,,,,,,,,,,,,,,,,,,,,,,,,,,,,,,,,,,,,,,,,,,,,,,,,,,,,,,,,,,,,,,,,,,,,,,,,,,,,,,,,,,,,,,
0,39,39,60,1,,613d091096ca434d703f77c5,62c53a914f260ff71db91f3a,2022-07-06_09h32.48.915,Colour_Asymmetry_Pilot,2022.1.3,Win32,59.95203837,62c50e9c1127f2cd403a315f,,,,,,,,,,,,,,,,,,,,,,,,,,,,,,,,,,,,,,,,,,,,,,,,,,,,,,,,,,,,,,,,,,,,,,,,,,,,,,,,,,,,,,,,,,,,,,,,,,,,,,,,,,,,,,,,,,,,,,,,,,,,,,,,,,,,,,,,,,,,,,,,,,,,,,,,,,,,,,,,,,,
0,40,40,90,1,,613d091096ca434d703f77c5,62c53a914f260ff71db91f3a,2022-07-06_09h32.48.915,Colour_Asymmetry_Pilot,2022.1.3,Win32,59.95203837,62c50e9c1127f2cd403a315f,,,,,,,,,,,,,,,,,,,,,,,,,,,,,,,,,,,,,,,,,,,,,,,,,,,,,,,,,,,,,,,,,,,,,,,,,,,,,,,,,,,,,,,,,,,,,,,,,,,,,,,,,,,,,,,,,,,,,,,,,,,,,,,,,,,,,,,,,,,,,,,,,,,,,,,,,,,,,,,,,,,
0,41,41,16,1,,613d091096ca434d703f77c5,62c53a914f260ff71db91f3a,2022-07-06_09h32.48.915,Colour_Asymmetry_Pilot,2022.1.3,Win32,59.95203837,62c50e9c1127f2cd403a315f,,,,,,,,,,,,,,,,,,,,,,,,,,,,,,,,,,,,,,,,,,,,,,,,,,,,,,,,,,,,,,,,,,,,,,,,,,,,,,,,,,,,,,,,,,,,,,,,,,,,,,,,,,,,,,,,,,,,,,,,,,,,,,,,,,,,,,,,,,,,,,,,,,,,,,,,,,,,,,,,,,,
0,42,42,31,1,,613d091096ca434d703f77c5,62c53a914f260ff71db91f3a,2022-07-06_09h32.48.915,Colour_Asymmetry_Pilot,2022.1.3,Win32,59.95203837,62c50e9c1127f2cd403a315f,,,,,,,,,,,,,,,,,,,,,,,,,,,,,,,,,,,,,,,,,,,,,,,,,,,,,,,,,,,,,,,,,,,,,,,,,,,,,,,,,,,,,,,,,,,,,,,,,,,,,,,,,,,,,,,,,,,,,,,,,,,,,,,,,,,,,,,,,,,,,,,,,,,,,,,,,,,,,,,,,,,
0,43,43,85,1,,613d091096ca434d703f77c5,62c53a914f260ff71db91f3a,2022-07-06_09h32.48.915,Colour_Asymmetry_Pilot,2022.1.3,Win32,59.95203837,62c50e9c1127f2cd403a315f,,,,,,,,,,,,,,,,,,,,,,,,,,,,,,,,,,,,,,,,,,,,,,,,,,,,,,,,,,,,,,,,,,,,,,,,,,,,,,,,,,,,,,,,,,,,,,,,,,,,,,,,,,,,,,,,,,,,,,,,,,,,,,,,,,,,,,,,,,,,,,,,,,,,,,,,,,,,,,,,,,,
0,44,44,89,1,,613d091096ca434d703f77c5,62c53a914f260ff71db91f3a,2022-07-06_09h32.48.915,Colour_Asymmetry_Pilot,2022.1.3,Win32,59.95203837,62c50e9c1127f2cd403a315f,,,,,,,,,,,,,,,,,,,,,,,,,,,,,,,,,,,,,,,,,,,,,,,,,,,,,,,,,,,,,,,,,,,,,,,,,,,,,,,,,,,,,,,,,,,,,,,,,,,,,,,,,,,,,,,,,,,,,,,,,,,,,,,,,,,,,,,,,,,,,,,,,,,,,,,,,,,,,,,,,,,
0,45,45,13,1,,613d091096ca434d703f77c5,62c53a914f260ff71db91f3a,2022-07-06_09h32.48.915,Colour_Asymmetry_Pilot,2022.1.3,Win32,59.95203837,62c50e9c1127f2cd403a315f,,,,,,,,,,,,,,,,,,,,,,,,,,,,,,,,,,,,,,,,,,,,,,,,,,,,,,,,,,,,,,,,,,,,,,,,,,,,,,,,,,,,,,,,,,,,,,,,,,,,,,,,,,,,,,,,,,,,,,,,,,,,,,,,,,,,,,,,,,,,,,,,,,,,,,,,,,,,,,,,,,,
0,46,46,88,1,,613d091096ca434d703f77c5,62c53a914f260ff71db91f3a,2022-07-06_09h32.48.915,Colour_Asymmetry_Pilot,2022.1.3,Win32,59.95203837,62c50e9c1127f2cd403a315f,,,,,,,,,,,,,,,,,,,,,,,,,,,,,,,,,,,,,,,,,,,,,,,,,,,,,,,,,,,,,,,,,,,,,,,,,,,,,,,,,,,,,,,,,,,,,,,,,,,,,,,,,,,,,,,,,,,,,,,,,,,,,,,,,,,,,,,,,,,,,,,,,,,,,,,,,,,,,,,,,,,
0,47,47,49,1,,613d091096ca434d703f77c5,62c53a914f260ff71db91f3a,2022-07-06_09h32.48.915,Colour_Asymmetry_Pilot,2022.1.3,Win32,59.95203837,62c50e9c1127f2cd403a315f,,,,,,,,,,,,,,,,,,,,,,,,,,,,,,,,,,,,,,,,,,,,,,,,,,,,,,,,,,,,,,,,,,,,,,,,,,,,,,,,,,,,,,,,,,,,,,,,,,,,,,,,,,,,,,,,,,,,,,,,,,,,,,,,,,,,,,,,,,,,,,,,,,,,,,,,,,,,,,,,,,,
0,48,48,48,1,,613d091096ca434d703f77c5,62c53a914f260ff71db91f3a,2022-07-06_09h32.48.915,Colour_Asymmetry_Pilot,2022.1.3,Win32,59.95203837,62c50e9c1127f2cd403a315f,,,,,,,,,,,,,,,,,,,,,,,,,,,,,,,,,,,,,,,,,,,,,,,,,,,,,,,,,,,,,,,,,,,,,,,,,,,,,,,,,,,,,,,,,,,,,,,,,,,,,,,,,,,,,,,,,,,,,,,,,,,,,,,,,,,,,,,,,,,,,,,,,,,,,,,,,,,,,,,,,,,
0,49,49,32,1,,613d091096ca434d703f77c5,62c53a914f260ff71db91f3a,2022-07-06_09h32.48.915,Colour_Asymmetry_Pilot,2022.1.3,Win32,59.95203837,62c50e9c1127f2cd403a315f,,,,,,,,,,,,,,,,,,,,,,,,,,,,,,,,,,,,,,,,,,,,,,,,,,,,,,,,,,,,,,,,,,,,,,,,,,,,,,,,,,,,,,,,,,,,,,,,,,,,,,,,,,,,,,,,,,,,,,,,,,,,,,,,,,,,,,,,,,,,,,,,,,,,,,,,,,,,,,,,,,,
0,50,50,0,1,,613d091096ca434d703f77c5,62c53a914f260ff71db91f3a,2022-07-06_09h32.48.915,Colour_Asymmetry_Pilot,2022.1.3,Win32,59.95203837,62c50e9c1127f2cd403a315f,,,,,,,,,,,,,,,,,,,,,,,,,,,,,,,,,,,,,,,,,,,,,,,,,,,,,,,,,,,,,,,,,,,,,,,,,,,,,,,,,,,,,,,,,,,,,,,,,,,,,,,,,,,,,,,,,,,,,,,,,,,,,,,,,,,,,,,,,,,,,,,,,,,,,,,,,,,,,,,,,,,
0,51,51,27,1,,613d091096ca434d703f77c5,62c53a914f260ff71db91f3a,2022-07-06_09h32.48.915,Colour_Asymmetry_Pilot,2022.1.3,Win32,59.95203837,62c50e9c1127f2cd403a315f,,,,,,,,,,,,,,,,,,,,,,,,,,,,,,,,,,,,,,,,,,,,,,,,,,,,,,,,,,,,,,,,,,,,,,,,,,,,,,,,,,,,,,,,,,,,,,,,,,,,,,,,,,,,,,,,,,,,,,,,,,,,,,,,,,,,,,,,,,,,,,,,,,,,,,,,,,,,,,,,,,,
0,52,52,45,1,,613d091096ca434d703f77c5,62c53a914f260ff71db91f3a,2022-07-06_09h32.48.915,Colour_Asymmetry_Pilot,2022.1.3,Win32,59.95203837,62c50e9c1127f2cd403a315f,,,,,,,,,,,,,,,,,,,,,,,,,,,,,,,,,,,,,,,,,,,,,,,,,,,,,,,,,,,,,,,,,,,,,,,,,,,,,,,,,,,,,,,,,,,,,,,,,,,,,,,,,,,,,,,,,,,,,,,,,,,,,,,,,,,,,,,,,,,,,,,,,,,,,,,,,,,,,,,,,,,
0,53,53,20,1,,613d091096ca434d703f77c5,62c53a914f260ff71db91f3a,2022-07-06_09h32.48.915,Colour_Asymmetry_Pilot,2022.1.3,Win32,59.95203837,62c50e9c1127f2cd403a315f,,,,,,,,,,,,,,,,,,,,,,,,,,,,,,,,,,,,,,,,,,,,,,,,,,,,,,,,,,,,,,,,,,,,,,,,,,,,,,,,,,,,,,,,,,,,,,,,,,,,,,,,,,,,,,,,,,,,,,,,,,,,,,,,,,,,,,,,,,,,,,,,,,,,,,,,,,,,,,,,,,,
0,54,54,1,1,,613d091096ca434d703f77c5,62c53a914f260ff71db91f3a,2022-07-06_09h32.48.915,Colour_Asymmetry_Pilot,2022.1.3,Win32,59.95203837,62c50e9c1127f2cd403a315f,,,,,,,,,,,,,,,,,,,,,,,,,,,,,,,,,,,,,,,,,,,,,,,,,,,,,,,,,,,,,,,,,,,,,,,,,,,,,,,,,,,,,,,,,,,,,,,,,,,,,,,,,,,,,,,,,,,,,,,,,,,,,,,,,,,,,,,,,,,,,,,,,,,,,,,,,,,,,,,,,,,
0,55,55,58,1,,613d091096ca434d703f77c5,62c53a914f260ff71db91f3a,2022-07-06_09h32.48.915,Colour_Asymmetry_Pilot,2022.1.3,Win32,59.95203837,62c50e9c1127f2cd403a315f,,,,,,,,,,,,,,,,,,,,,,,,,,,,,,,,,,,,,,,,,,,,,,,,,,,,,,,,,,,,,,,,,,,,,,,,,,,,,,,,,,,,,,,,,,,,,,,,,,,,,,,,,,,,,,,,,,,,,,,,,,,,,,,,,,,,,,,,,,,,,,,,,,,,,,,,,,,,,,,,,,,
0,56,56,34,1,,613d091096ca434d703f77c5,62c53a914f260ff71db91f3a,2022-07-06_09h32.48.915,Colour_Asymmetry_Pilot,2022.1.3,Win32,59.95203837,62c50e9c1127f2cd403a315f,,,,,,,,,,,,,,,,,,,,,,,,,,,,,,,,,,,,,,,,,,,,,,,,,,,,,,,,,,,,,,,,,,,,,,,,,,,,,,,,,,,,,,,,,,,,,,,,,,,,,,,,,,,,,,,,,,,,,,,,,,,,,,,,,,,,,,,,,,,,,,,,,,,,,,,,,,,,,,,,,,,
0,57,57,87,1,,613d091096ca434d703f77c5,62c53a914f260ff71db91f3a,2022-07-06_09h32.48.915,Colour_Asymmetry_Pilot,2022.1.3,Win32,59.95203837,62c50e9c1127f2cd403a315f,,,,,,,,,,,,,,,,,,,,,,,,,,,,,,,,,,,,,,,,,,,,,,,,,,,,,,,,,,,,,,,,,,,,,,,,,,,,,,,,,,,,,,,,,,,,,,,,,,,,,,,,,,,,,,,,,,,,,,,,,,,,,,,,,,,,,,,,,,,,,,,,,,,,,,,,,,,,,,,,,,,
0,58,58,79,1,,613d091096ca434d703f77c5,62c53a914f260ff71db91f3a,2022-07-06_09h32.48.915,Colour_Asymmetry_Pilot,2022.1.3,Win32,59.95203837,62c50e9c1127f2cd403a315f,,,,,,,,,,,,,,,,,,,,,,,,,,,,,,,,,,,,,,,,,,,,,,,,,,,,,,,,,,,,,,,,,,,,,,,,,,,,,,,,,,,,,,,,,,,,,,,,,,,,,,,,,,,,,,,,,,,,,,,,,,,,,,,,,,,,,,,,,,,,,,,,,,,,,,,,,,,,,,,,,,,
0,59,59,11,1,,613d091096ca434d703f77c5,62c53a914f260ff71db91f3a,2022-07-06_09h32.48.915,Colour_Asymmetry_Pilot,2022.1.3,Win32,59.95203837,62c50e9c1127f2cd403a315f,,,,,,,,,,,,,,,,,,,,,,,,,,,,,,,,,,,,,,,,,,,,,,,,,,,,,,,,,,,,,,,,,,,,,,,,,,,,,,,,,,,,,,,,,,,,,,,,,,,,,,,,,,,,,,,,,,,,,,,,,,,,,,,,,,,,,,,,,,,,,,,,,,,,,,,,,,,,,,,,,,,
0,60,60,68,1,,613d091096ca434d703f77c5,62c53a914f260ff71db91f3a,2022-07-06_09h32.48.915,Colour_Asymmetry_Pilot,2022.1.3,Win32,59.95203837,62c50e9c1127f2cd403a315f,,,,,,,,,,,,,,,,,,,,,,,,,,,,,,,,,,,,,,,,,,,,,,,,,,,,,,,,,,,,,,,,,,,,,,,,,,,,,,,,,,,,,,,,,,,,,,,,,,,,,,,,,,,,,,,,,,,,,,,,,,,,,,,,,,,,,,,,,,,,,,,,,,,,,,,,,,,,,,,,,,,
0,61,61,17,1,,613d091096ca434d703f77c5,62c53a914f260ff71db91f3a,2022-07-06_09h32.48.915,Colour_Asymmetry_Pilot,2022.1.3,Win32,59.95203837,62c50e9c1127f2cd403a315f,,,,,,,,,,,,,,,,,,,,,,,,,,,,,,,,,,,,,,,,,,,,,,,,,,,,,,,,,,,,,,,,,,,,,,,,,,,,,,,,,,,,,,,,,,,,,,,,,,,,,,,,,,,,,,,,,,,,,,,,,,,,,,,,,,,,,,,,,,,,,,,,,,,,,,,,,,,,,,,,,,,
0,62,62,36,1,,613d091096ca434d703f77c5,62c53a914f260ff71db91f3a,2022-07-06_09h32.48.915,Colour_Asymmetry_Pilot,2022.1.3,Win32,59.95203837,62c50e9c1127f2cd403a315f,,,,,,,,,,,,,,,,,,,,,,,,,,,,,,,,,,,,,,,,,,,,,,,,,,,,,,,,,,,,,,,,,,,,,,,,,,,,,,,,,,,,,,,,,,,,,,,,,,,,,,,,,,,,,,,,,,,,,,,,,,,,,,,,,,,,,,,,,,,,,,,,,,,,,,,,,,,,,,,,,,,
0,63,63,59,1,,613d091096ca434d703f77c5,62c53a914f260ff71db91f3a,2022-07-06_09h32.48.915,Colour_Asymmetry_Pilot,2022.1.3,Win32,59.95203837,62c50e9c1127f2cd403a315f,,,,,,,,,,,,,,,,,,,,,,,,,,,,,,,,,,,,,,,,,,,,,,,,,,,,,,,,,,,,,,,,,,,,,,,,,,,,,,,,,,,,,,,,,,,,,,,,,,,,,,,,,,,,,,,,,,,,,,,,,,,,,,,,,,,,,,,,,,,,,,,,,,,,,,,,,,,,,,,,,,,
0,64,64,29,1,,613d091096ca434d703f77c5,62c53a914f260ff71db91f3a,2022-07-06_09h32.48.915,Colour_Asymmetry_Pilot,2022.1.3,Win32,59.95203837,62c50e9c1127f2cd403a315f,,,,,,,,,,,,,,,,,,,,,,,,,,,,,,,,,,,,,,,,,,,,,,,,,,,,,,,,,,,,,,,,,,,,,,,,,,,,,,,,,,,,,,,,,,,,,,,,,,,,,,,,,,,,,,,,,,,,,,,,,,,,,,,,,,,,,,,,,,,,,,,,,,,,,,,,,,,,,,,,,,,
0,65,65,15,1,,613d091096ca434d703f77c5,62c53a914f260ff71db91f3a,2022-07-06_09h32.48.915,Colour_Asymmetry_Pilot,2022.1.3,Win32,59.95203837,62c50e9c1127f2cd403a315f,,,,,,,,,,,,,,,,,,,,,,,,,,,,,,,,,,,,,,,,,,,,,,,,,,,,,,,,,,,,,,,,,,,,,,,,,,,,,,,,,,,,,,,,,,,,,,,,,,,,,,,,,,,,,,,,,,,,,,,,,,,,,,,,,,,,,,,,,,,,,,,,,,,,,,,,,,,,,,,,,,,
0,66,66,3,1,,613d091096ca434d703f77c5,62c53a914f260ff71db91f3a,2022-07-06_09h32.48.915,Colour_Asymmetry_Pilot,2022.1.3,Win32,59.95203837,62c50e9c1127f2cd403a315f,,,,,,,,,,,,,,,,,,,,,,,,,,,,,,,,,,,,,,,,,,,,,,,,,,,,,,,,,,,,,,,,,,,,,,,,,,,,,,,,,,,,,,,,,,,,,,,,,,,,,,,,,,,,,,,,,,,,,,,,,,,,,,,,,,,,,,,,,,,,,,,,,,,,,,,,,,,,,,,,,,,
0,67,67,62,1,,613d091096ca434d703f77c5,62c53a914f260ff71db91f3a,2022-07-06_09h32.48.915,Colour_Asymmetry_Pilot,2022.1.3,Win32,59.95203837,62c50e9c1127f2cd403a315f,,,,,,,,,,,,,,,,,,,,,,,,,,,,,,,,,,,,,,,,,,,,,,,,,,,,,,,,,,,,,,,,,,,,,,,,,,,,,,,,,,,,,,,,,,,,,,,,,,,,,,,,,,,,,,,,,,,,,,,,,,,,,,,,,,,,,,,,,,,,,,,,,,,,,,,,,,,,,,,,,,,
0,68,68,51,1,,613d091096ca434d703f77c5,62c53a914f260ff71db91f3a,2022-07-06_09h32.48.915,Colour_Asymmetry_Pilot,2022.1.3,Win32,59.95203837,62c50e9c1127f2cd403a315f,,,,,,,,,,,,,,,,,,,,,,,,,,,,,,,,,,,,,,,,,,,,,,,,,,,,,,,,,,,,,,,,,,,,,,,,,,,,,,,,,,,,,,,,,,,,,,,,,,,,,,,,,,,,,,,,,,,,,,,,,,,,,,,,,,,,,,,,,,,,,,,,,,,,,,,,,,,,,,,,,,,
0,69,69,80,1,,613d091096ca434d703f77c5,62c53a914f260ff71db91f3a,2022-07-06_09h32.48.915,Colour_Asymmetry_Pilot,2022.1.3,Win32,59.95203837,62c50e9c1127f2cd403a315f,,,,,,,,,,,,,,,,,,,,,,,,,,,,,,,,,,,,,,,,,,,,,,,,,,,,,,,,,,,,,,,,,,,,,,,,,,,,,,,,,,,,,,,,,,,,,,,,,,,,,,,,,,,,,,,,,,,,,,,,,,,,,,,,,,,,,,,,,,,,,,,,,,,,,,,,,,,,,,,,,,,
0,70,70,2,1,,613d091096ca434d703f77c5,62c53a914f260ff71db91f3a,2022-07-06_09h32.48.915,Colour_Asymmetry_Pilot,2022.1.3,Win32,59.95203837,62c50e9c1127f2cd403a315f,,,,,,,,,,,,,,,,,,,,,,,,,,,,,,,,,,,,,,,,,,,,,,,,,,,,,,,,,,,,,,,,,,,,,,,,,,,,,,,,,,,,,,,,,,,,,,,,,,,,,,,,,,,,,,,,,,,,,,,,,,,,,,,,,,,,,,,,,,,,,,,,,,,,,,,,,,,,,,,,,,,
0,71,71,46,1,,613d091096ca434d703f77c5,62c53a914f260ff71db91f3a,2022-07-06_09h32.48.915,Colour_Asymmetry_Pilot,2022.1.3,Win32,59.95203837,62c50e9c1127f2cd403a315f,,,,,,,,,,,,,,,,,,,,,,,,,,,,,,,,,,,,,,,,,,,,,,,,,,,,,,,,,,,,,,,,,,,,,,,,,,,,,,,,,,,,,,,,,,,,,,,,,,,,,,,,,,,,,,,,,,,,,,,,,,,,,,,,,,,,,,,,,,,,,,,,,,,,,,,,,,,,,,,,,,,
0,72,72,40,1,,613d091096ca434d703f77c5,62c53a914f260ff71db91f3a,2022-07-06_09h32.48.915,Colour_Asymmetry_Pilot,2022.1.3,Win32,59.95203837,62c50e9c1127f2cd403a315f,,,,,,,,,,,,,,,,,,,,,,,,,,,,,,,,,,,,,,,,,,,,,,,,,,,,,,,,,,,,,,,,,,,,,,,,,,,,,,,,,,,,,,,,,,,,,,,,,,,,,,,,,,,,,,,,,,,,,,,,,,,,,,,,,,,,,,,,,,,,,,,,,,,,,,,,,,,,,,,,,,,
0,73,73,35,1,,613d091096ca434d703f77c5,62c53a914f260ff71db91f3a,2022-07-06_09h32.48.915,Colour_Asymmetry_Pilot,2022.1.3,Win32,59.95203837,62c50e9c1127f2cd403a315f,,,,,,,,,,,,,,,,,,,,,,,,,,,,,,,,,,,,,,,,,,,,,,,,,,,,,,,,,,,,,,,,,,,,,,,,,,,,,,,,,,,,,,,,,,,,,,,,,,,,,,,,,,,,,,,,,,,,,,,,,,,,,,,,,,,,,,,,,,,,,,,,,,,,,,,,,,,,,,,,,,,
0,74,74,43,1,,613d091096ca434d703f77c5,62c53a914f260ff71db91f3a,2022-07-06_09h32.48.915,Colour_Asymmetry_Pilot,2022.1.3,Win32,59.95203837,62c50e9c1127f2cd403a315f,,,,,,,,,,,,,,,,,,,,,,,,,,,,,,,,,,,,,,,,,,,,,,,,,,,,,,,,,,,,,,,,,,,,,,,,,,,,,,,,,,,,,,,,,,,,,,,,,,,,,,,,,,,,,,,,,,,,,,,,,,,,,,,,,,,,,,,,,,,,,,,,,,,,,,,,,,,,,,,,,,,
0,75,75,10,1,,613d091096ca434d703f77c5,62c53a914f260ff71db91f3a,2022-07-06_09h32.48.915,Colour_Asymmetry_Pilot,2022.1.3,Win32,59.95203837,62c50e9c1127f2cd403a315f,,,,,,,,,,,,,,,,,,,,,,,,,,,,,,,,,,,,,,,,,,,,,,,,,,,,,,,,,,,,,,,,,,,,,,,,,,,,,,,,,,,,,,,,,,,,,,,,,,,,,,,,,,,,,,,,,,,,,,,,,,,,,,,,,,,,,,,,,,,,,,,,,,,,,,,,,,,,,,,,,,,
0,76,76,77,1,,613d091096ca434d703f77c5,62c53a914f260ff71db91f3a,2022-07-06_09h32.48.915,Colour_Asymmetry_Pilot,2022.1.3,Win32,59.95203837,62c50e9c1127f2cd403a315f,,,,,,,,,,,,,,,,,,,,,,,,,,,,,,,,,,,,,,,,,,,,,,,,,,,,,,,,,,,,,,,,,,,,,,,,,,,,,,,,,,,,,,,,,,,,,,,,,,,,,,,,,,,,,,,,,,,,,,,,,,,,,,,,,,,,,,,,,,,,,,,,,,,,,,,,,,,,,,,,,,,
0,77,77,12,1,,613d091096ca434d703f77c5,62c53a914f260ff71db91f3a,2022-07-06_09h32.48.915,Colour_Asymmetry_Pilot,2022.1.3,Win32,59.95203837,62c50e9c1127f2cd403a315f,,,,,,,,,,,,,,,,,,,,,,,,,,,,,,,,,,,,,,,,,,,,,,,,,,,,,,,,,,,,,,,,,,,,,,,,,,,,,,,,,,,,,,,,,,,,,,,,,,,,,,,,,,,,,,,,,,,,,,,,,,,,,,,,,,,,,,,,,,,,,,,,,,,,,,,,,,,,,,,,,,,
0,78,78,33,1,,613d091096ca434d703f77c5,62c53a914f260ff71db91f3a,2022-07-06_09h32.48.915,Colour_Asymmetry_Pilot,2022.1.3,Win32,59.95203837,62c50e9c1127f2cd403a315f,,,,,,,,,,,,,,,,,,,,,,,,,,,,,,,,,,,,,,,,,,,,,,,,,,,,,,,,,,,,,,,,,,,,,,,,,,,,,,,,,,,,,,,,,,,,,,,,,,,,,,,,,,,,,,,,,,,,,,,,,,,,,,,,,,,,,,,,,,,,,,,,,,,,,,,,,,,,,,,,,,,
0,79,79,75,1,,613d091096ca434d703f77c5,62c53a914f260ff71db91f3a,2022-07-06_09h32.48.915,Colour_Asymmetry_Pilot,2022.1.3,Win32,59.95203837,62c50e9c1127f2cd403a315f,,,,,,,,,,,,,,,,,,,,,,,,,,,,,,,,,,,,,,,,,,,,,,,,,,,,,,,,,,,,,,,,,,,,,,,,,,,,,,,,,,,,,,,,,,,,,,,,,,,,,,,,,,,,,,,,,,,,,,,,,,,,,,,,,,,,,,,,,,,,,,,,,,,,,,,,,,,,,,,,,,,
0,80,80,39,1,,613d091096ca434d703f77c5,62c53a914f260ff71db91f3a,2022-07-06_09h32.48.915,Colour_Asymmetry_Pilot,2022.1.3,Win32,59.95203837,62c50e9c1127f2cd403a315f,,,,,,,,,,,,,,,,,,,,,,,,,,,,,,,,,,,,,,,,,,,,,,,,,,,,,,,,,,,,,,,,,,,,,,,,,,,,,,,,,,,,,,,,,,,,,,,,,,,,,,,,,,,,,,,,,,,,,,,,,,,,,,,,,,,,,,,,,,,,,,,,,,,,,,,,,,,,,,,,,,,
0,81,81,42,1,,613d091096ca434d703f77c5,62c53a914f260ff71db91f3a,2022-07-06_09h32.48.915,Colour_Asymmetry_Pilot,2022.1.3,Win32,59.95203837,62c50e9c1127f2cd403a315f,,,,,,,,,,,,,,,,,,,,,,,,,,,,,,,,,,,,,,,,,,,,,,,,,,,,,,,,,,,,,,,,,,,,,,,,,,,,,,,,,,,,,,,,,,,,,,,,,,,,,,,,,,,,,,,,,,,,,,,,,,,,,,,,,,,,,,,,,,,,,,,,,,,,,,,,,,,,,,,,,,,
0,82,82,66,1,,613d091096ca434d703f77c5,62c53a914f260ff71db91f3a,2022-07-06_09h32.48.915,Colour_Asymmetry_Pilot,2022.1.3,Win32,59.95203837,62c50e9c1127f2cd403a315f,,,,,,,,,,,,,,,,,,,,,,,,,,,,,,,,,,,,,,,,,,,,,,,,,,,,,,,,,,,,,,,,,,,,,,,,,,,,,,,,,,,,,,,,,,,,,,,,,,,,,,,,,,,,,,,,,,,,,,,,,,,,,,,,,,,,,,,,,,,,,,,,,,,,,,,,,,,,,,,,,,,
0,83,83,47,1,,613d091096ca434d703f77c5,62c53a914f260ff71db91f3a,2022-07-06_09h32.48.915,Colour_Asymmetry_Pilot,2022.1.3,Win32,59.95203837,62c50e9c1127f2cd403a315f,,,,,,,,,,,,,,,,,,,,,,,,,,,,,,,,,,,,,,,,,,,,,,,,,,,,,,,,,,,,,,,,,,,,,,,,,,,,,,,,,,,,,,,,,,,,,,,,,,,,,,,,,,,,,,,,,,,,,,,,,,,,,,,,,,,,,,,,,,,,,,,,,,,,,,,,,,,,,,,,,,,
0,84,84,28,1,,613d091096ca434d703f77c5,62c53a914f260ff71db91f3a,2022-07-06_09h32.48.915,Colour_Asymmetry_Pilot,2022.1.3,Win32,59.95203837,62c50e9c1127f2cd403a315f,,,,,,,,,,,,,,,,,,,,,,,,,,,,,,,,,,,,,,,,,,,,,,,,,,,,,,,,,,,,,,,,,,,,,,,,,,,,,,,,,,,,,,,,,,,,,,,,,,,,,,,,,,,,,,,,,,,,,,,,,,,,,,,,,,,,,,,,,,,,,,,,,,,,,,,,,,,,,,,,,,,
0,85,85,22,1,,613d091096ca434d703f77c5,62c53a914f260ff71db91f3a,2022-07-06_09h32.48.915,Colour_Asymmetry_Pilot,2022.1.3,Win32,59.95203837,62c50e9c1127f2cd403a315f,,,,,,,,,,,,,,,,,,,,,,,,,,,,,,,,,,,,,,,,,,,,,,,,,,,,,,,,,,,,,,,,,,,,,,,,,,,,,,,,,,,,,,,,,,,,,,,,,,,,,,,,,,,,,,,,,,,,,,,,,,,,,,,,,,,,,,,,,,,,,,,,,,,,,,,,,,,,,,,,,,,
0,86,86,8,1,,613d091096ca434d703f77c5,62c53a914f260ff71db91f3a,2022-07-06_09h32.48.915,Colour_Asymmetry_Pilot,2022.1.3,Win32,59.95203837,62c50e9c1127f2cd403a315f,,,,,,,,,,,,,,,,,,,,,,,,,,,,,,,,,,,,,,,,,,,,,,,,,,,,,,,,,,,,,,,,,,,,,,,,,,,,,,,,,,,,,,,,,,,,,,,,,,,,,,,,,,,,,,,,,,,,,,,,,,,,,,,,,,,,,,,,,,,,,,,,,,,,,,,,,,,,,,,,,,,
0,87,87,55,1,,613d091096ca434d703f77c5,62c53a914f260ff71db91f3a,2022-07-06_09h32.48.915,Colour_Asymmetry_Pilot,2022.1.3,Win32,59.95203837,62c50e9c1127f2cd403a315f,,,,,,,,,,,,,,,,,,,,,,,,,,,,,,,,,,,,,,,,,,,,,,,,,,,,,,,,,,,,,,,,,,,,,,,,,,,,,,,,,,,,,,,,,,,,,,,,,,,,,,,,,,,,,,,,,,,,,,,,,,,,,,,,,,,,,,,,,,,,,,,,,,,,,,,,,,,,,,,,,,,
0,88,88,26,1,,613d091096ca434d703f77c5,62c53a914f260ff71db91f3a,2022-07-06_09h32.48.915,Colour_Asymmetry_Pilot,2022.1.3,Win32,59.95203837,62c50e9c1127f2cd403a315f,,,,,,,,,,,,,,,,,,,,,,,,,,,,,,,,,,,,,,,,,,,,,,,,,,,,,,,,,,,,,,,,,,,,,,,,,,,,,,,,,,,,,,,,,,,,,,,,,,,,,,,,,,,,,,,,,,,,,,,,,,,,,,,,,,,,,,,,,,,,,,,,,,,,,,,,,,,,,,,,,,,
0,89,89,65,1,,613d091096ca434d703f77c5,62c53a914f260ff71db91f3a,2022-07-06_09h32.48.915,Colour_Asymmetry_Pilot,2022.1.3,Win32,59.95203837,62c50e9c1127f2cd403a315f,,,,,,,,,,,,,,,,,,,,,,,,,,,,,,,,,,,,,,,,,,,,,,,,,,,,,,,,,,,,,,,,,,,,,,,,,,,,,,,,,,,,,,,,,,,,,,,,,,,,,,,,,,,,,,,,,,,,,,,,,,,,,,,,,,,,,,,,,,,,,,,,,,,,,,,,,,,,,,,,,,,
0,90,90,70,1,,613d091096ca434d703f77c5,62c53a914f260ff71db91f3a,2022-07-06_09h32.48.915,Colour_Asymmetry_Pilot,2022.1.3,Win32,59.95203837,62c50e9c1127f2cd403a315f,,,,,,,,,,,,,,,,,,,,,,,,,,,,,,,,,,,,,,,,,,,,,,,,,,,,,,,,,,,,,,,,,,,,,,,,,,,,,,,,,,,,,,,,,,,,,,,,,,,,,,,,,,,,,,,,,,,,,,,,,,,,,,,,,,,,,,,,,,,,,,,,,,,,,,,,,,,,,,,,,,,
0,91,91,84,1,,613d091096ca434d703f77c5,62c53a914f260ff71db91f3a,2022-07-06_09h32.48.915,Colour_Asymmetry_Pilot,2022.1.3,Win32,59.95203837,62c50e9c1127f2cd403a315f,,,,,,,,,,,,,,,,,,,,,,,,,,,,,,,,,,,,,,,,,,,,,,,,,,,,,,,,,,,,,,,,,,,,,,,,,,,,,,,,,,,,,,,,,,,,,,,,,,,,,,,,,,,,,,,,,,,,,,,,,,,,,,,,,,,,,,,,,,,,,,,,,,,,,,,,,,,,,,,,,,,
0,92,92,41,1,,613d091096ca434d703f77c5,62c53a914f260ff71db91f3a,2022-07-06_09h32.48.915,Colour_Asymmetry_Pilot,2022.1.3,Win32,59.95203837,62c50e9c1127f2cd403a315f,,,,,,,,,,,,,,,,,,,,,,,,,,,,,,,,,,,,,,,,,,,,,,,,,,,,,,,,,,,,,,,,,,,,,,,,,,,,,,,,,,,,,,,,,,,,,,,,,,,,,,,,,,,,,,,,,,,,,,,,,,,,,,,,,,,,,,,,,,,,,,,,,,,,,,,,,,,,,,,,,,,
,,,,,,613d091096ca434d703f77c5,62c53a914f260ff71db91f3a,2022-07-06_09h32.48.915,Colour_Asymmetry_Pilot,2022.1.3,Win32,59.95203837,62c50e9c1127f2cd403a315f,0,0,0,107,1,twofour,,,,,,,,,,,,,,,,,,,,,,,,,,,,,,,,,,,,,,,,,,,,,,,,,,,,,,,,,,,,,,,,,,,,,,,,,,,,,,,,,,,,,,,,,,,,,,,,,,,,,,,,,,,,,,,,,,,,,,,,,,,,,,,,,,,,,,,,,,,,,,,,,,,,,,,,,,,,,
,,,,,,613d091096ca434d703f77c5,62c53a914f260ff71db91f3a,2022-07-06_09h32.48.915,Colour_Asymmetry_Pilot,2022.1.3,Win32,59.95203837,62c50e9c1127f2cd403a315f,0,1,1,52,1,threeone,,,,,,,,,,,,,,,,,,,,,,,,,,,,,,,,,,,,,,,,,,,,,,,,,,,,,,,,,,,,,,,,,,,,,,,,,,,,,,,,,,,,,,,,,,,,,,,,,,,,,,,,,,,,,,,,,,,,,,,,,,,,,,,,,,,,,,,,,,,,,,,,,,,,,,,,,,,,,
,,,,,,613d091096ca434d703f77c5,62c53a914f260ff71db91f3a,2022-07-06_09h32.48.915,Colour_Asymmetry_Pilot,2022.1.3,Win32,59.95203837,62c50e9c1127f2cd403a315f,0,2,2,119,1,fourthree,,,,,,,,,,,,,,,,,,,,,,,,,,,,,,,,,,,,,,,,,,,,,,,,,,,,,,,,,,,,,,,,,,,,,,,,,,,,,,,,,,,,,,,,,,,,,,,,,,,,,,,,,,,,,,,,,,,,,,,,,,,,,,,,,,,,,,,,,,,,,,,,,,,,,,,,,,,,,
,,,,,,613d091096ca434d703f77c5,62c53a914f260ff71db91f3a,2022-07-06_09h32.48.915,Colour_Asymmetry_Pilot,2022.1.3,Win32,59.95203837,62c50e9c1127f2cd403a315f,0,3,3,75,1,twofour,,,,,,,,,,,,,,,,,,,,,,,,,,,,,,,,,,,,,,,,,,,,,,,,,,,,,,,,,,,,,,,,,,,,,,,,,,,,,,,,,,,,,,,,,,,,,,,,,,,,,,,,,,,,,,,,,,,,,,,,,,,,,,,,,,,,,,,,,,,,,,,,,,,,,,,,,,,,,
,,,,,,613d091096ca434d703f77c5,62c53a914f260ff71db91f3a,2022-07-06_09h32.48.915,Colour_Asymmetry_Pilot,2022.1.3,Win32,59.95203837,62c50e9c1127f2cd403a315f,0,4,4,80,1,onetwo,,,,,,,,,,,,,,,,,,,,,,,,,,,,,,,,,,,,,,,,,,,,,,,,,,,,,,,,,,,,,,,,,,,,,,,,,,,,,,,,,,,,,,,,,,,,,,,,,,,,,,,,,,,,,,,,,,,,,,,,,,,,,,,,,,,,,,,,,,,,,,,,,,,,,,,,,,,,,
,,,,,,613d091096ca434d703f77c5,62c53a914f260ff71db91f3a,2022-07-06_09h32.48.915,Colour_Asymmetry_Pilot,2022.1.3,Win32,59.95203837,62c50e9c1127f2cd403a315f,0,5,5,20,1,threeone,,,,,,,,,,,,,,,,,,,,,,,,,,,,,,,,,,,,,,,,,,,,,,,,,,,,,,,,,,,,,,,,,,,,,,,,,,,,,,,,,,,,,,,,,,,,,,,,,,,,,,,,,,,,,,,,,,,,,,,,,,,,,,,,,,,,,,,,,,,,,,,,,,,,,,,,,,,,,
,,,,,,613d091096ca434d703f77c5,62c53a914f260ff71db91f3a,2022-07-06_09h32.48.915,Colour_Asymmetry_Pilot,2022.1.3,Win32,59.95203837,62c50e9c1127f2cd403a315f,0,6,6,113,1,onethree,,,,,,,,,,,,,,,,,,,,,,,,,,,,,,,,,,,,,,,,,,,,,,,,,,,,,,,,,,,,,,,,,,,,,,,,,,,,,,,,,,,,,,,,,,,,,,,,,,,,,,,,,,,,,,,,,,,,,,,,,,,,,,,,,,,,,,,,,,,,,,,,,,,,,,,,,,,,,
,,,,,,613d091096ca434d703f77c5,62c53a914f260ff71db91f3a,2022-07-06_09h32.48.915,Colour_Asymmetry_Pilot,2022.1.3,Win32,59.95203837,62c50e9c1127f2cd403a315f,0,7,7,130,1,twoone,,,,,,,,,,,,,,,,,,,,,,,,,,,,,,,,,,,,,,,,,,,,,,,,,,,,,,,,,,,,,,,,,,,,,,,,,,,,,,,,,,,,,,,,,,,,,,,,,,,,,,,,,,,,,,,,,,,,,,,,,,,,,,,,,,,,,,,,,,,,,,,,,,,,,,,,,,,,,
,,,,,,613d091096ca434d703f77c5,62c53a914f260ff71db91f3a,2022-07-06_09h32.48.915,Colour_Asymmetry_Pilot,2022.1.3,Win32,59.95203837,62c50e9c1127f2cd403a315f,0,8,8,148,1,threeone,,,,,,,,,,,,,,,,,,,,,,,,,,,,,,,,,,,,,,,,,,,,,,,,,,,,,,,,,,,,,,,,,,,,,,,,,,,,,,,,,,,,,,,,,,,,,,,,,,,,,,,,,,,,,,,,,,,,,,,,,,,,,,,,,,,,,,,,,,,,,,,,,,,,,,,,,,,,,
,,,,,,613d091096ca434d703f77c5,62c53a914f260ff71db91f3a,2022-07-06_09h32.48.915,Colour_Asymmetry_Pilot,2022.1.3,Win32,59.95203837,62c50e9c1127f2cd403a315f,0,9,9,78,1,fourtwo,,,,,,,,,,,,,,,,,,,,,,,,,,,,,,,,,,,,,,,,,,,,,,,,,,,,,,,,,,,,,,,,,,,,,,,,,,,,,,,,,,,,,,,,,,,,,,,,,,,,,,,,,,,,,,,,,,,,,,,,,,,,,,,,,,,,,,,,,,,,,,,,,,,,,,,,,,,,,
,,,,,,613d091096ca434d703f77c5,62c53a914f260ff71db91f3a,2022-07-06_09h32.48.915,Colour_Asymmetry_Pilot,2022.1.3,Win32,59.95203837,62c50e9c1127f2cd403a315f,0,10,10,48,1,onetwo,,,,,,,,,,,,,,,,,,,,,,,,,,,,,,,,,,,,,,,,,,,,,,,,,,,,,,,,,,,,,,,,,,,,,,,,,,,,,,,,,,,,,,,,,,,,,,,,,,,,,,,,,,,,,,,,,,,,,,,,,,,,,,,,,,,,,,,,,,,,,,,,,,,,,,,,,,,,,
,,,,,,613d091096ca434d703f77c5,62c53a914f260ff71db91f3a,2022-07-06_09h32.48.915,Colour_Asymmetry_Pilot,2022.1.3,Win32,59.95203837,62c50e9c1127f2cd403a315f,0,11,11,77,1,threefour,,,,,,,,,,,,,,,,,,,,,,,,,,,,,,,,,,,,,,,,,,,,,,,,,,,,,,,,,,,,,,,,,,,,,,,,,,,,,,,,,,,,,,,,,,,,,,,,,,,,,,,,,,,,,,,,,,,,,,,,,,,,,,,,,,,,,,,,,,,,,,,,,,,,,,,,,,,,,
,,,,,,613d091096ca434d703f77c5,62c53a914f260ff71db91f3a,2022-07-06_09h32.48.915,Colour_Asymmetry_Pilot,2022.1.3,Win32,59.95203837,62c50e9c1127f2cd403a315f,0,12,12,85,1,threefour,,,,,,,,,,,,,,,,,,,,,,,,,,,,,,,,,,,,,,,,,,,,,,,,,,,,,,,,,,,,,,,,,,,,,,,,,,,,,,,,,,,,,,,,,,,,,,,,,,,,,,,,,,,,,,,,,,,,,,,,,,,,,,,,,,,,,,,,,,,,,,,,,,,,,,,,,,,,,
,,,,,,613d091096ca434d703f77c5,62c53a914f260ff71db91f3a,2022-07-06_09h32.48.915,Colour_Asymmetry_Pilot,2022.1.3,Win32,59.95203837,62c50e9c1127f2cd403a315f,0,13,13,53,1,threefour,,,,,,,,,,,,,,,,,,,,,,,,,,,,,,,,,,,,,,,,,,,,,,,,,,,,,,,,,,,,,,,,,,,,,,,,,,,,,,,,,,,,,,,,,,,,,,,,,,,,,,,,,,,,,,,,,,,,,,,,,,,,,,,,,,,,,,,,,,,,,,,,,,,,,,,,,,,,,
,,,,,,613d091096ca434d703f77c5,62c53a914f260ff71db91f3a,2022-07-06_09h32.48.915,Colour_Asymmetry_Pilot,2022.1.3,Win32,59.95203837,62c50e9c1127f2cd403a315f,0,14,14,98,1,twoone,,,,,,,,,,,,,,,,,,,,,,,,,,,,,,,,,,,,,,,,,,,,,,,,,,,,,,,,,,,,,,,,,,,,,,,,,,,,,,,,,,,,,,,,,,,,,,,,,,,,,,,,,,,,,,,,,,,,,,,,,,,,,,,,,,,,,,,,,,,,,,,,,,,,,,,,,,,,,
,,,,,,613d091096ca434d703f77c5,62c53a914f260ff71db91f3a,2022-07-06_09h32.48.915,Colour_Asymmetry_Pilot,2022.1.3,Win32,59.95203837,62c50e9c1127f2cd403a315f,0,15,15,91,1,twofour,,,,,,,,,,,,,,,,,,,,,,,,,,,,,,,,,,,,,,,,,,,,,,,,,,,,,,,,,,,,,,,,,,,,,,,,,,,,,,,,,,,,,,,,,,,,,,,,,,,,,,,,,,,,,,,,,,,,,,,,,,,,,,,,,,,,,,,,,,,,,,,,,,,,,,,,,,,,,
,,,,,,613d091096ca434d703f77c5,62c53a914f260ff71db91f3a,2022-07-06_09h32.48.915,Colour_Asymmetry_Pilot,2022.1.3,Win32,59.95203837,62c50e9c1127f2cd403a315f,0,16,16,151,1,fourthree,,,,,,,,,,,,,,,,,,,,,,,,,,,,,,,,,,,,,,,,,,,,,,,,,,,,,,,,,,,,,,,,,,,,,,,,,,,,,,,,,,,,,,,,,,,,,,,,,,,,,,,,,,,,,,,,,,,,,,,,,,,,,,,,,,,,,,,,,,,,,,,,,,,,,,,,,,,,,
,,,,,,613d091096ca434d703f77c5,62c53a914f260ff71db91f3a,2022-07-06_09h32.48.915,Colour_Asymmetry_Pilot,2022.1.3,Win32,59.95203837,62c50e9c1127f2cd403a315f,0,17,17,31,1,fourthree,,,,,,,,,,,,,,,,,,,,,,,,,,,,,,,,,,,,,,,,,,,,,,,,,,,,,,,,,,,,,,,,,,,,,,,,,,,,,,,,,,,,,,,,,,,,,,,,,,,,,,,,,,,,,,,,,,,,,,,,,,,,,,,,,,,,,,,,,,,,,,,,,,,,,,,,,,,,,
,,,,,,613d091096ca434d703f77c5,62c53a914f260ff71db91f3a,2022-07-06_09h32.48.915,Colour_Asymmetry_Pilot,2022.1.3,Win32,59.95203837,62c50e9c1127f2cd403a315f,0,18,18,158,1,fourtwo,,,,,,,,,,,,,,,,,,,,,,,,,,,,,,,,,,,,,,,,,,,,,,,,,,,,,,,,,,,,,,,,,,,,,,,,,,,,,,,,,,,,,,,,,,,,,,,,,,,,,,,,,,,,,,,,,,,,,,,,,,,,,,,,,,,,,,,,,,,,,,,,,,,,,,,,,,,,,
,,,,,,613d091096ca434d703f77c5,62c53a914f260ff71db91f3a,2022-07-06_09h32.48.915,Colour_Asymmetry_Pilot,2022.1.3,Win32,59.95203837,62c50e9c1127f2cd403a315f,0,19,19,50,1,twoone,,,,,,,,,,,,,,,,,,,,,,,,,,,,,,,,,,,,,,,,,,,,,,,,,,,,,,,,,,,,,,,,,,,,,,,,,,,,,,,,,,,,,,,,,,,,,,,,,,,,,,,,,,,,,,,,,,,,,,,,,,,,,,,,,,,,,,,,,,,,,,,,,,,,,,,,,,,,,
,,,,,,613d091096ca434d703f77c5,62c53a914f260ff71db91f3a,2022-07-06_09h32.48.915,Colour_Asymmetry_Pilot,2022.1.3,Win32,59.95203837,62c50e9c1127f2cd403a315f,0,20,20,94,1,fourtwo,,,,,,,,,,,,,,,,,,,,,,,,,,,,,,,,,,,,,,,,,,,,,,,,,,,,,,,,,,,,,,,,,,,,,,,,,,,,,,,,,,,,,,,,,,,,,,,,,,,,,,,,,,,,,,,,,,,,,,,,,,,,,,,,,,,,,,,,,,,,,,,,,,,,,,,,,,,,,
,,,,,,613d091096ca434d703f77c5,62c53a914f260ff71db91f3a,2022-07-06_09h32.48.915,Colour_Asymmetry_Pilot,2022.1.3,Win32,59.95203837,62c50e9c1127f2cd403a315f,0,21,21,44,1,threeone,,,,,,,,,,,,,,,,,,,,,,,,,,,,,,,,,,,,,,,,,,,,,,,,,,,,,,,,,,,,,,,,,,,,,,,,,,,,,,,,,,,,,,,,,,,,,,,,,,,,,,,,,,,,,,,,,,,,,,,,,,,,,,,,,,,,,,,,,,,,,,,,,,,,,,,,,,,,,
,,,,,,613d091096ca434d703f77c5,62c53a914f260ff71db91f3a,2022-07-06_09h32.48.915,Colour_Asymmetry_Pilot,2022.1.3,Win32,59.95203837,62c50e9c1127f2cd403a315f,0,22,22,3,1,twofour,,,,,,,,,,,,,,,,,,,,,,,,,,,,,,,,,,,,,,,,,,,,,,,,,,,,,,,,,,,,,,,,,,,,,,,,,,,,,,,,,,,,,,,,,,,,,,,,,,,,,,,,,,,,,,,,,,,,,,,,,,,,,,,,,,,,,,,,,,,,,,,,,,,,,,,,,,,,,
,,,,,,613d091096ca434d703f77c5,62c53a914f260ff71db91f3a,2022-07-06_09h32.48.915,Colour_Asymmetry_Pilot,2022.1.3,Win32,59.95203837,62c50e9c1127f2cd403a315f,0,23,23,111,1,fourthree,,,,,,,,,,,,,,,,,,,,,,,,,,,,,,,,,,,,,,,,,,,,,,,,,,,,,,,,,,,,,,,,,,,,,,,,,,,,,,,,,,,,,,,,,,,,,,,,,,,,,,,,,,,,,,,,,,,,,,,,,,,,,,,,,,,,,,,,,,,,,,,,,,,,,,,,,,,,,
,,,,,,613d091096ca434d703f77c5,62c53a914f260ff71db91f3a,2022-07-06_09h32.48.915,Colour_Asymmetry_Pilot,2022.1.3,Win32,59.95203837,62c50e9c1127f2cd403a315f,0,24,24,132,1,threeone,,,,,,,,,,,,,,,,,,,,,,,,,,,,,,,,,,,,,,,,,,,,,,,,,,,,,,,,,,,,,,,,,,,,,,,,,,,,,,,,,,,,,,,,,,,,,,,,,,,,,,,,,,,,,,,,,,,,,,,,,,,,,,,,,,,,,,,,,,,,,,,,,,,,,,,,,,,,,
,,,,,,613d091096ca434d703f77c5,62c53a914f260ff71db91f3a,2022-07-06_09h32.48.915,Colour_Asymmetry_Pilot,2022.1.3,Win32,59.95203837,62c50e9c1127f2cd403a315f,0,25,25,35,1,twofour,,,,,,,,,,,,,,,,,,,,,,,,,,,,,,,,,,,,,,,,,,,,,,,,,,,,,,,,,,,,,,,,,,,,,,,,,,,,,,,,,,,,,,,,,,,,,,,,,,,,,,,,,,,,,,,,,,,,,,,,,,,,,,,,,,,,,,,,,,,,,,,,,,,,,,,,,,,,,
,,,,,,613d091096ca434d703f77c5,62c53a914f260ff71db91f3a,2022-07-06_09h32.48.915,Colour_Asymmetry_Pilot,2022.1.3,Win32,59.95203837,62c50e9c1127f2cd403a315f,0,26,26,123,1,twofour,,,,,,,,,,,,,,,,,,,,,,,,,,,,,,,,,,,,,,,,,,,,,,,,,,,,,,,,,,,,,,,,,,,,,,,,,,,,,,,,,,,,,,,,,,,,,,,,,,,,,,,,,,,,,,,,,,,,,,,,,,,,,,,,,,,,,,,,,,,,,,,,,,,,,,,,,,,,,
,,,,,,613d091096ca434d703f77c5,62c53a914f260ff71db91f3a,2022-07-06_09h32.48.915,Colour_Asymmetry_Pilot,2022.1.3,Win32,59.95203837,62c50e9c1127f2cd403a315f,0,27,27,97,1,onethree,,,,,,,,,,,,,,,,,,,,,,,,,,,,,,,,,,,,,,,,,,,,,,,,,,,,,,,,,,,,,,,,,,,,,,,,,,,,,,,,,,,,,,,,,,,,,,,,,,,,,,,,,,,,,,,,,,,,,,,,,,,,,,,,,,,,,,,,,,,,,,,,,,,,,,,,,,,,,
,,,,,,613d091096ca434d703f77c5,62c53a914f260ff71db91f3a,2022-07-06_09h32.48.915,Colour_Asymmetry_Pilot,2022.1.3,Win32,59.95203837,62c50e9c1127f2cd403a315f,0,28,28,136,1,onetwo,,,,,,,,,,,,,,,,,,,,,,,,,,,,,,,,,,,,,,,,,,,,,,,,,,,,,,,,,,,,,,,,,,,,,,,,,,,,,,,,,,,,,,,,,,,,,,,,,,,,,,,,,,,,,,,,,,,,,,,,,,,,,,,,,,,,,,,,,,,,,,,,,,,,,,,,,,,,,
,,,,,,613d091096ca434d703f77c5,62c53a914f260ff71db91f3a,2022-07-06_09h32.48.915,Colour_Asymmetry_Pilot,2022.1.3,Win32,59.95203837,62c50e9c1127f2cd403a315f,0,29,29,0,1,onetwo,,,,,,,,,,,,,,,,,,,,,,,,,,,,,,,,,,,,,,,,,,,,,,,,,,,,,,,,,,,,,,,,,,,,,,,,,,,,,,,,,,,,,,,,,,,,,,,,,,,,,,,,,,,,,,,,,,,,,,,,,,,,,,,,,,,,,,,,,,,,,,,,,,,,,,,,,,,,,
,,,,,,613d091096ca434d703f77c5,62c53a914f260ff71db91f3a,2022-07-06_09h32.48.915,Colour_Asymmetry_Pilot,2022.1.3,Win32,59.95203837,62c50e9c1127f2cd403a315f,0,30,30,70,1,fourtwo,,,,,,,,,,,,,,,,,,,,,,,,,,,,,,,,,,,,,,,,,,,,,,,,,,,,,,,,,,,,,,,,,,,,,,,,,,,,,,,,,,,,,,,,,,,,,,,,,,,,,,,,,,,,,,,,,,,,,,,,,,,,,,,,,,,,,,,,,,,,,,,,,,,,,,,,,,,,,
,,,,,,613d091096ca434d703f77c5,62c53a914f260ff71db91f3a,2022-07-06_09h32.48.915,Colour_Asymmetry_Pilot,2022.1.3,Win32,59.95203837,62c50e9c1127f2cd403a315f,0,31,31,23,1,fourthree,,,,,,,,,,,,,,,,,,,,,,,,,,,,,,,,,,,,,,,,,,,,,,,,,,,,,,,,,,,,,,,,,,,,,,,,,,,,,,,,,,,,,,,,,,,,,,,,,,,,,,,,,,,,,,,,,,,,,,,,,,,,,,,,,,,,,,,,,,,,,,,,,,,,,,,,,,,,,
,,,,,,613d091096ca434d703f77c5,62c53a914f260ff71db91f3a,2022-07-06_09h32.48.915,Colour_Asymmetry_Pilot,2022.1.3,Win32,59.95203837,62c50e9c1127f2cd403a315f,0,32,32,88,1,onetwo,,,,,,,,,,,,,,,,,,,,,,,,,,,,,,,,,,,,,,,,,,,,,,,,,,,,,,,,,,,,,,,,,,,,,,,,,,,,,,,,,,,,,,,,,,,,,,,,,,,,,,,,,,,,,,,,,,,,,,,,,,,,,,,,,,,,,,,,,,,,,,,,,,,,,,,,,,,,,
,,,,,,613d091096ca434d703f77c5,62c53a914f260ff71db91f3a,2022-07-06_09h32.48.915,Colour_Asymmetry_Pilot,2022.1.3,Win32,59.95203837,62c50e9c1127f2cd403a315f,0,33,33,100,1,threeone,,,,,,,,,,,,,,,,,,,,,,,,,,,,,,,,,,,,,,,,,,,,,,,,,,,,,,,,,,,,,,,,,,,,,,,,,,,,,,,,,,,,,,,,,,,,,,,,,,,,,,,,,,,,,,,,,,,,,,,,,,,,,,,,,,,,,,,,,,,,,,,,,,,,,,,,,,,,,
,,,,,,613d091096ca434d703f77c5,62c53a914f260ff71db91f3a,2022-07-06_09h32.48.915,Colour_Asymmetry_Pilot,2022.1.3,Win32,59.95203837,62c50e9c1127f2cd403a315f,0,34,34,106,1,twoone,,,,,,,,,,,,,,,,,,,,,,,,,,,,,,,,,,,,,,,,,,,,,,,,,,,,,,,,,,,,,,,,,,,,,,,,,,,,,,,,,,,,,,,,,,,,,,,,,,,,,,,,,,,,,,,,,,,,,,,,,,,,,,,,,,,,,,,,,,,,,,,,,,,,,,,,,,,,,
,,,,,,613d091096ca434d703f77c5,62c53a914f260ff71db91f3a,2022-07-06_09h32.48.915,Colour_Asymmetry_Pilot,2022.1.3,Win32,59.95203837,62c50e9c1127f2cd403a315f,0,35,35,9,1,onethree,,,,,,,,,,,,,,,,,,,,,,,,,,,,,,,,,,,,,,,,,,,,,,,,,,,,,,,,,,,,,,,,,,,,,,,,,,,,,,,,,,,,,,,,,,,,,,,,,,,,,,,,,,,,,,,,,,,,,,,,,,,,,,,,,,,,,,,,,,,,,,,,,,,,,,,,,,,,,
,,,,,,613d091096ca434d703f77c5,62c53a914f260ff71db91f3a,2022-07-06_09h32.48.915,Colour_Asymmetry_Pilot,2022.1.3,Win32,59.95203837,62c50e9c1127f2cd403a315f,0,36,36,92,1,threeone,,,,,,,,,,,,,,,,,,,,,,,,,,,,,,,,,,,,,,,,,,,,,,,,,,,,,,,,,,,,,,,,,,,,,,,,,,,,,,,,,,,,,,,,,,,,,,,,,,,,,,,,,,,,,,,,,,,,,,,,,,,,,,,,,,,,,,,,,,,,,,,,,,,,,,,,,,,,,
,,,,,,613d091096ca434d703f77c5,62c53a914f260ff71db91f3a,2022-07-06_09h32.48.915,Colour_Asymmetry_Pilot,2022.1.3,Win32,59.95203837,62c50e9c1127f2cd403a315f,0,37,37,1,1,onethree,,,,,,,,,,,,,,,,,,,,,,,,,,,,,,,,,,,,,,,,,,,,,,,,,,,,,,,,,,,,,,,,,,,,,,,,,,,,,,,,,,,,,,,,,,,,,,,,,,,,,,,,,,,,,,,,,,,,,,,,,,,,,,,,,,,,,,,,,,,,,,,,,,,,,,,,,,,,,
,,,,,,613d091096ca434d703f77c5,62c53a914f260ff71db91f3a,2022-07-06_09h32.48.915,Colour_Asymmetry_Pilot,2022.1.3,Win32,59.95203837,62c50e9c1127f2cd403a315f,0,38,38,103,1,fourthree,,,,,,,,,,,,,,,,,,,,,,,,,,,,,,,,,,,,,,,,,,,,,,,,,,,,,,,,,,,,,,,,,,,,,,,,,,,,,,,,,,,,,,,,,,,,,,,,,,,,,,,,,,,,,,,,,,,,,,,,,,,,,,,,,,,,,,,,,,,,,,,,,,,,,,,,,,,,,
,,,,,,613d091096ca434d703f77c5,62c53a914f260ff71db91f3a,2022-07-06_09h32.48.915,Colour_Asymmetry_Pilot,2022.1.3,Win32,59.95203837,62c50e9c1127f2cd403a315f,0,39,39,144,1,onetwo,,,,,,,,,,,,,,,,,,,,,,,,,,,,,,,,,,,,,,,,,,,,,,,,,,,,,,,,,,,,,,,,,,,,,,,,,,,,,,,,,,,,,,,,,,,,,,,,,,,,,,,,,,,,,,,,,,,,,,,,,,,,,,,,,,,,,,,,,,,,,,,,,,,,,,,,,,,,,
,,,,,,613d091096ca434d703f77c5,62c53a914f260ff71db91f3a,2022-07-06_09h32.48.915,Colour_Asymmetry_Pilot,2022.1.3,Win32,59.95203837,62c50e9c1127f2cd403a315f,0,40,40,84,1,threeone,,,,,,,,,,,,,,,,,,,,,,,,,,,,,,,,,,,,,,,,,,,,,,,,,,,,,,,,,,,,,,,,,,,,,,,,,,,,,,,,,,,,,,,,,,,,,,,,,,,,,,,,,,,,,,,,,,,,,,,,,,,,,,,,,,,,,,,,,,,,,,,,,,,,,,,,,,,,,
,,,,,,613d091096ca434d703f77c5,62c53a914f260ff71db91f3a,2022-07-06_09h32.48.915,Colour_Asymmetry_Pilot,2022.1.3,Win32,59.95203837,62c50e9c1127f2cd403a315f,0,41,41,8,1,onetwo,,,,,,,,,,,,,,,,,,,,,,,,,,,,,,,,,,,,,,,,,,,,,,,,,,,,,,,,,,,,,,,,,,,,,,,,,,,,,,,,,,,,,,,,,,,,,,,,,,,,,,,,,,,,,,,,,,,,,,,,,,,,,,,,,,,,,,,,,,,,,,,,,,,,,,,,,,,,,
,,,,,,613d091096ca434d703f77c5,62c53a914f260ff71db91f3a,2022-07-06_09h32.48.915,Colour_Asymmetry_Pilot,2022.1.3,Win32,59.95203837,62c50e9c1127f2cd403a315f,0,42,42,42,1,twoone,,,,,,,,,,,,,,,,,,,,,,,,,,,,,,,,,,,,,,,,,,,,,,,,,,,,,,,,,,,,,,,,,,,,,,,,,,,,,,,,,,,,,,,,,,,,,,,,,,,,,,,,,,,,,,,,,,,,,,,,,,,,,,,,,,,,,,,,,,,,,,,,,,,,,,,,,,,,,
,,,,,,613d091096ca434d703f77c5,62c53a914f260ff71db91f3a,2022-07-06_09h32.48.915,Colour_Asymmetry_Pilot,2022.1.3,Win32,59.95203837,62c50e9c1127f2cd403a315f,0,43,43,157,1,threefour,,,,,,,,,,,,,,,,,,,,,,,,,,,,,,,,,,,,,,,,,,,,,,,,,,,,,,,,,,,,,,,,,,,,,,,,,,,,,,,,,,,,,,,,,,,,,,,,,,,,,,,,,,,,,,,,,,,,,,,,,,,,,,,,,,,,,,,,,,,,,,,,,,,,,,,,,,,,,
,,,,,,613d091096ca434d703f77c5,62c53a914f260ff71db91f3a,2022-07-06_09h32.48.915,Colour_Asymmetry_Pilot,2022.1.3,Win32,59.95203837,62c50e9c1127f2cd403a315f,0,44,44,68,1,threeone,,,,,,,,,,,,,,,,,,,,,,,,,,,,,,,,,,,,,,,,,,,,,,,,,,,,,,,,,,,,,,,,,,,,,,,,,,,,,,,,,,,,,,,,,,,,,,,,,,,,,,,,,,,,,,,,,,,,,,,,,,,,,,,,,,,,,,,,,,,,,,,,,,,,,,,,,,,,,
,,,,,,613d091096ca434d703f77c5,62c53a914f260ff71db91f3a,2022-07-06_09h32.48.915,Colour_Asymmetry_Pilot,2022.1.3,Win32,59.95203837,62c50e9c1127f2cd403a315f,0,45,45,115,1,twofour,,,,,,,,,,,,,,,,,,,,,,,,,,,,,,,,,,,,,,,,,,,,,,,,,,,,,,,,,,,,,,,,,,,,,,,,,,,,,,,,,,,,,,,,,,,,,,,,,,,,,,,,,,,,,,,,,,,,,,,,,,,,,,,,,,,,,,,,,,,,,,,,,,,,,,,,,,,,,
,,,,,,613d091096ca434d703f77c5,62c53a914f260ff71db91f3a,2022-07-06_09h32.48.915,Colour_Asymmetry_Pilot,2022.1.3,Win32,59.95203837,62c50e9c1127f2cd403a315f,0,46,46,63,1,fourthree,,,,,,,,,,,,,,,,,,,,,,,,,,,,,,,,,,,,,,,,,,,,,,,,,,,,,,,,,,,,,,,,,,,,,,,,,,,,,,,,,,,,,,,,,,,,,,,,,,,,,,,,,,,,,,,,,,,,,,,,,,,,,,,,,,,,,,,,,,,,,,,,,,,,,,,,,,,,,
,,,,,,613d091096ca434d703f77c5,62c53a914f260ff71db91f3a,2022-07-06_09h32.48.915,Colour_Asymmetry_Pilot,2022.1.3,Win32,59.95203837,62c50e9c1127f2cd403a315f,0,47,47,135,1,fourthree,,,,,,,,,,,,,,,,,,,,,,,,,,,,,,,,,,,,,,,,,,,,,,,,,,,,,,,,,,,,,,,,,,,,,,,,,,,,,,,,,,,,,,,,,,,,,,,,,,,,,,,,,,,,,,,,,,,,,,,,,,,,,,,,,,,,,,,,,,,,,,,,,,,,,,,,,,,,,
,,,,,,613d091096ca434d703f77c5,62c53a914f260ff71db91f3a,2022-07-06_09h32.48.915,Colour_Asymmetry_Pilot,2022.1.3,Win32,59.95203837,62c50e9c1127f2cd403a315f,0,48,48,122,1,twoone,,,,,,,,,,,,,,,,,,,,,,,,,,,,,,,,,,,,,,,,,,,,,,,,,,,,,,,,,,,,,,,,,,,,,,,,,,,,,,,,,,,,,,,,,,,,,,,,,,,,,,,,,,,,,,,,,,,,,,,,,,,,,,,,,,,,,,,,,,,,,,,,,,,,,,,,,,,,,
,,,,,,613d091096ca434d703f77c5,62c53a914f260ff71db91f3a,2022-07-06_09h32.48.915,Colour_Asymmetry_Pilot,2022.1.3,Win32,59.95203837,62c50e9c1127f2cd403a315f,0,49,49,56,1,onetwo,,,,,,,,,,,,,,,,,,,,,,,,,,,,,,,,,,,,,,,,,,,,,,,,,,,,,,,,,,,,,,,,,,,,,,,,,,,,,,,,,,,,,,,,,,,,,,,,,,,,,,,,,,,,,,,,,,,,,,,,,,,,,,,,,,,,,,,,,,,,,,,,,,,,,,,,,,,,,
,,,,,,613d091096ca434d703f77c5,62c53a914f260ff71db91f3a,2022-07-06_09h32.48.915,Colour_Asymmetry_Pilot,2022.1.3,Win32,59.95203837,62c50e9c1127f2cd403a315f,0,50,50,143,1,fourthree,,,,,,,,,,,,,,,,,,,,,,,,,,,,,,,,,,,,,,,,,,,,,,,,,,,,,,,,,,,,,,,,,,,,,,,,,,,,,,,,,,,,,,,,,,,,,,,,,,,,,,,,,,,,,,,,,,,,,,,,,,,,,,,,,,,,,,,,,,,,,,,,,,,,,,,,,,,,,
,,,,,,613d091096ca434d703f77c5,62c53a914f260ff71db91f3a,2022-07-06_09h32.48.915,Colour_Asymmetry_Pilot,2022.1.3,Win32,59.95203837,62c50e9c1127f2cd403a315f,0,51,51,139,1,twofour,,,,,,,,,,,,,,,,,,,,,,,,,,,,,,,,,,,,,,,,,,,,,,,,,,,,,,,,,,,,,,,,,,,,,,,,,,,,,,,,,,,,,,,,,,,,,,,,,,,,,,,,,,,,,,,,,,,,,,,,,,,,,,,,,,,,,,,,,,,,,,,,,,,,,,,,,,,,,
,,,,,,613d091096ca434d703f77c5,62c53a914f260ff71db91f3a,2022-07-06_09h32.48.915,Colour_Asymmetry_Pilot,2022.1.3,Win32,59.95203837,62c50e9c1127f2cd403a315f,0,52,52,110,1,fourtwo,,,,,,,,,,,,,,,,,,,,,,,,,,,,,,,,,,,,,,,,,,,,,,,,,,,,,,,,,,,,,,,,,,,,,,,,,,,,,,,,,,,,,,,,,,,,,,,,,,,,,,,,,,,,,,,,,,,,,,,,,,,,,,,,,,,,,,,,,,,,,,,,,,,,,,,,,,,,,
,,,,,,613d091096ca434d703f77c5,62c53a914f260ff71db91f3a,2022-07-06_09h32.48.915,Colour_Asymmetry_Pilot,2022.1.3,Win32,59.95203837,62c50e9c1127f2cd403a315f,0,53,53,116,1,threeone,,,,,,,,,,,,,,,,,,,,,,,,,,,,,,,,,,,,,,,,,,,,,,,,,,,,,,,,,,,,,,,,,,,,,,,,,,,,,,,,,,,,,,,,,,,,,,,,,,,,,,,,,,,,,,,,,,,,,,,,,,,,,,,,,,,,,,,,,,,,,,,,,,,,,,,,,,,,,
,,,,,,613d091096ca434d703f77c5,62c53a914f260ff71db91f3a,2022-07-06_09h32.48.915,Colour_Asymmetry_Pilot,2022.1.3,Win32,59.95203837,62c50e9c1127f2cd403a315f,0,54,54,150,1,fourtwo,,,,,,,,,,,,,,,,,,,,,,,,,,,,,,,,,,,,,,,,,,,,,,,,,,,,,,,,,,,,,,,,,,,,,,,,,,,,,,,,,,,,,,,,,,,,,,,,,,,,,,,,,,,,,,,,,,,,,,,,,,,,,,,,,,,,,,,,,,,,,,,,,,,,,,,,,,,,,
,,,,,,613d091096ca434d703f77c5,62c53a914f260ff71db91f3a,2022-07-06_09h32.48.915,Colour_Asymmetry_Pilot,2022.1.3,Win32,59.95203837,62c50e9c1127f2cd403a315f,0,55,55,154,1,twoone,,,,,,,,,,,,,,,,,,,,,,,,,,,,,,,,,,,,,,,,,,,,,,,,,,,,,,,,,,,,,,,,,,,,,,,,,,,,,,,,,,,,,,,,,,,,,,,,,,,,,,,,,,,,,,,,,,,,,,,,,,,,,,,,,,,,,,,,,,,,,,,,,,,,,,,,,,,,,
,,,,,,613d091096ca434d703f77c5,62c53a914f260ff71db91f3a,2022-07-06_09h32.48.915,Colour_Asymmetry_Pilot,2022.1.3,Win32,59.95203837,62c50e9c1127f2cd403a315f,0,56,56,34,1,twoone,,,,,,,,,,,,,,,,,,,,,,,,,,,,,,,,,,,,,,,,,,,,,,,,,,,,,,,,,,,,,,,,,,,,,,,,,,,,,,,,,,,,,,,,,,,,,,,,,,,,,,,,,,,,,,,,,,,,,,,,,,,,,,,,,,,,,,,,,,,,,,,,,,,,,,,,,,,,,
,,,,,,613d091096ca434d703f77c5,62c53a914f260ff71db91f3a,2022-07-06_09h32.48.915,Colour_Asymmetry_Pilot,2022.1.3,Win32,59.95203837,62c50e9c1127f2cd403a315f,0,57,57,69,1,threefour,,,,,,,,,,,,,,,,,,,,,,,,,,,,,,,,,,,,,,,,,,,,,,,,,,,,,,,,,,,,,,,,,,,,,,,,,,,,,,,,,,,,,,,,,,,,,,,,,,,,,,,,,,,,,,,,,,,,,,,,,,,,,,,,,,,,,,,,,,,,,,,,,,,,,,,,,,,,,
,,,,,,613d091096ca434d703f77c5,62c53a914f260ff71db91f3a,2022-07-06_09h32.48.915,Colour_Asymmetry_Pilot,2022.1.3,Win32,59.95203837,62c50e9c1127f2cd403a315f,0,58,58,90,1,twoone,,,,,,,,,,,,,,,,,,,,,,,,,,,,,,,,,,,,,,,,,,,,,,,,,,,,,,,,,,,,,,,,,,,,,,,,,,,,,,,,,,,,,,,,,,,,,,,,,,,,,,,,,,,,,,,,,,,,,,,,,,,,,,,,,,,,,,,,,,,,,,,,,,,,,,,,,,,,,
,,,,,,613d091096ca434d703f77c5,62c53a914f260ff71db91f3a,2022-07-06_09h32.48.915,Colour_Asymmetry_Pilot,2022.1.3,Win32,59.95203837,62c50e9c1127f2cd403a315f,0,59,59,159,1,fourthree,,,,,,,,,,,,,,,,,,,,,,,,,,,,,,,,,,,,,,,,,,,,,,,,,,,,,,,,,,,,,,,,,,,,,,,,,,,,,,,,,,,,,,,,,,,,,,,,,,,,,,,,,,,,,,,,,,,,,,,,,,,,,,,,,,,,,,,,,,,,,,,,,,,,,,,,,,,,,
,,,,,,613d091096ca434d703f77c5,62c53a914f260ff71db91f3a,2022-07-06_09h32.48.915,Colour_Asymmetry_Pilot,2022.1.3,Win32,59.95203837,62c50e9c1127f2cd403a315f,0,60,60,142,1,fourtwo,,,,,,,,,,,,,,,,,,,,,,,,,,,,,,,,,,,,,,,,,,,,,,,,,,,,,,,,,,,,,,,,,,,,,,,,,,,,,,,,,,,,,,,,,,,,,,,,,,,,,,,,,,,,,,,,,,,,,,,,,,,,,,,,,,,,,,,,,,,,,,,,,,,,,,,,,,,,,
,,,,,,613d091096ca434d703f77c5,62c53a914f260ff71db91f3a,2022-07-06_09h32.48.915,Colour_Asymmetry_Pilot,2022.1.3,Win32,59.95203837,62c50e9c1127f2cd403a315f,0,61,61,61,1,threefour,,,,,,,,,,,,,,,,,,,,,,,,,,,,,,,,,,,,,,,,,,,,,,,,,,,,,,,,,,,,,,,,,,,,,,,,,,,,,,,,,,,,,,,,,,,,,,,,,,,,,,,,,,,,,,,,,,,,,,,,,,,,,,,,,,,,,,,,,,,,,,,,,,,,,,,,,,,,,
,,,,,,613d091096ca434d703f77c5,62c53a914f260ff71db91f3a,2022-07-06_09h32.48.915,Colour_Asymmetry_Pilot,2022.1.3,Win32,59.95203837,62c50e9c1127f2cd403a315f,0,62,62,127,1,fourthree,,,,,,,,,,,,,,,,,,,,,,,,,,,,,,,,,,,,,,,,,,,,,,,,,,,,,,,,,,,,,,,,,,,,,,,,,,,,,,,,,,,,,,,,,,,,,,,,,,,,,,,,,,,,,,,,,,,,,,,,,,,,,,,,,,,,,,,,,,,,,,,,,,,,,,,,,,,,,
,,,,,,613d091096ca434d703f77c5,62c53a914f260ff71db91f3a,2022-07-06_09h32.48.915,Colour_Asymmetry_Pilot,2022.1.3,Win32,59.95203837,62c50e9c1127f2cd403a315f,0,63,63,49,1,onethree,,,,,,,,,,,,,,,,,,,,,,,,,,,,,,,,,,,,,,,,,,,,,,,,,,,,,,,,,,,,,,,,,,,,,,,,,,,,,,,,,,,,,,,,,,,,,,,,,,,,,,,,,,,,,,,,,,,,,,,,,,,,,,,,,,,,,,,,,,,,,,,,,,,,,,,,,,,,,
,,,,,,613d091096ca434d703f77c5,62c53a914f260ff71db91f3a,2022-07-06_09h32.48.915,Colour_Asymmetry_Pilot,2022.1.3,Win32,59.95203837,62c50e9c1127f2cd403a315f,0,64,64,7,1,fourthree,,,,,,,,,,,,,,,,,,,,,,,,,,,,,,,,,,,,,,,,,,,,,,,,,,,,,,,,,,,,,,,,,,,,,,,,,,,,,,,,,,,,,,,,,,,,,,,,,,,,,,,,,,,,,,,,,,,,,,,,,,,,,,,,,,,,,,,,,,,,,,,,,,,,,,,,,,,,,
,,,,,,613d091096ca434d703f77c5,62c53a914f260ff71db91f3a,2022-07-06_09h32.48.915,Colour_Asymmetry_Pilot,2022.1.3,Win32,59.95203837,62c50e9c1127f2cd403a315f,0,65,65,102,1,fourtwo,,,,,,,,,,,,,,,,,,,,,,,,,,,,,,,,,,,,,,,,,,,,,,,,,,,,,,,,,,,,,,,,,,,,,,,,,,,,,,,,,,,,,,,,,,,,,,,,,,,,,,,,,,,,,,,,,,,,,,,,,,,,,,,,,,,,,,,,,,,,,,,,,,,,,,,,,,,,,
,,,,,,613d091096ca434d703f77c5,62c53a914f260ff71db91f3a,2022-07-06_09h32.48.915,Colour_Asymmetry_Pilot,2022.1.3,Win32,59.95203837,62c50e9c1127f2cd403a315f,0,66,66,43,1,twofour,,,,,,,,,,,,,,,,,,,,,,,,,,,,,,,,,,,,,,,,,,,,,,,,,,,,,,,,,,,,,,,,,,,,,,,,,,,,,,,,,,,,,,,,,,,,,,,,,,,,,,,,,,,,,,,,,,,,,,,,,,,,,,,,,,,,,,,,,,,,,,,,,,,,,,,,,,,,,
,,,,,,613d091096ca434d703f77c5,62c53a914f260ff71db91f3a,2022-07-06_09h32.48.915,Colour_Asymmetry_Pilot,2022.1.3,Win32,59.95203837,62c50e9c1127f2cd403a315f,0,67,67,21,1,threefour,,,,,,,,,,,,,,,,,,,,,,,,,,,,,,,,,,,,,,,,,,,,,,,,,,,,,,,,,,,,,,,,,,,,,,,,,,,,,,,,,,,,,,,,,,,,,,,,,,,,,,,,,,,,,,,,,,,,,,,,,,,,,,,,,,,,,,,,,,,,,,,,,,,,,,,,,,,,,
,,,,,,613d091096ca434d703f77c5,62c53a914f260ff71db91f3a,2022-07-06_09h32.48.915,Colour_Asymmetry_Pilot,2022.1.3,Win32,59.95203837,62c50e9c1127f2cd403a315f,0,68,68,32,1,onetwo,,,,,,,,,,,,,,,,,,,,,,,,,,,,,,,,,,,,,,,,,,,,,,,,,,,,,,,,,,,,,,,,,,,,,,,,,,,,,,,,,,,,,,,,,,,,,,,,,,,,,,,,,,,,,,,,,,,,,,,,,,,,,,,,,,,,,,,,,,,,,,,,,,,,,,,,,,,,,
,,,,,,613d091096ca434d703f77c5,62c53a914f260ff71db91f3a,2022-07-06_09h32.48.915,Colour_Asymmetry_Pilot,2022.1.3,Win32,59.95203837,62c50e9c1127f2cd403a315f,0,69,69,6,1,fourtwo,,,,,,,,,,,,,,,,,,,,,,,,,,,,,,,,,,,,,,,,,,,,,,,,,,,,,,,,,,,,,,,,,,,,,,,,,,,,,,,,,,,,,,,,,,,,,,,,,,,,,,,,,,,,,,,,,,,,,,,,,,,,,,,,,,,,,,,,,,,,,,,,,,,,,,,,,,,,,
,,,,,,613d091096ca434d703f77c5,62c53a914f260ff71db91f3a,2022-07-06_09h32.48.915,Colour_Asymmetry_Pilot,2022.1.3,Win32,59.95203837,62c50e9c1127f2cd403a315f,0,70,70,99,1,twofour,,,,,,,,,,,,,,,,,,,,,,,,,,,,,,,,,,,,,,,,,,,,,,,,,,,,,,,,,,,,,,,,,,,,,,,,,,,,,,,,,,,,,,,,,,,,,,,,,,,,,,,,,,,,,,,,,,,,,,,,,,,,,,,,,,,,,,,,,,,,,,,,,,,,,,,,,,,,,
,,,,,,613d091096ca434d703f77c5,62c53a914f260ff71db91f3a,2022-07-06_09h32.48.915,Colour_Asymmetry_Pilot,2022.1.3,Win32,59.95203837,62c50e9c1127f2cd403a315f,0,71,71,12,1,threeone,,,,,,,,,,,,,,,,,,,,,,,,,,,,,,,,,,,,,,,,,,,,,,,,,,,,,,,,,,,,,,,,,,,,,,,,,,,,,,,,,,,,,,,,,,,,,,,,,,,,,,,,,,,,,,,,,,,,,,,,,,,,,,,,,,,,,,,,,,,,,,,,,,,,,,,,,,,,,
,,,,,,613d091096ca434d703f77c5,62c53a914f260ff71db91f3a,2022-07-06_09h32.48.915,Colour_Asymmetry_Pilot,2022.1.3,Win32,59.95203837,62c50e9c1127f2cd403a315f,0,72,72,147,1,twofour,,,,,,,,,,,,,,,,,,,,,,,,,,,,,,,,,,,,,,,,,,,,,,,,,,,,,,,,,,,,,,,,,,,,,,,,,,,,,,,,,,,,,,,,,,,,,,,,,,,,,,,,,,,,,,,,,,,,,,,,,,,,,,,,,,,,,,,,,,,,,,,,,,,,,,,,,,,,,
,,,,,,613d091096ca434d703f77c5,62c53a914f260ff71db91f3a,2022-07-06_09h32.48.915,Colour_Asymmetry_Pilot,2022.1.3,Win32,59.95203837,62c50e9c1127f2cd403a315f,0,73,73,47,1,fourthree,,,,,,,,,,,,,,,,,,,,,,,,,,,,,,,,,,,,,,,,,,,,,,,,,,,,,,,,,,,,,,,,,,,,,,,,,,,,,,,,,,,,,,,,,,,,,,,,,,,,,,,,,,,,,,,,,,,,,,,,,,,,,,,,,,,,,,,,,,,,,,,,,,,,,,,,,,,,,
,,,,,,613d091096ca434d703f77c5,62c53a914f260ff71db91f3a,2022-07-06_09h32.48.915,Colour_Asymmetry_Pilot,2022.1.3,Win32,59.95203837,62c50e9c1127f2cd403a315f,0,74,74,37,1,threefour,,,,,,,,,,,,,,,,,,,,,,,,,,,,,,,,,,,,,,,,,,,,,,,,,,,,,,,,,,,,,,,,,,,,,,,,,,,,,,,,,,,,,,,,,,,,,,,,,,,,,,,,,,,,,,,,,,,,,,,,,,,,,,,,,,,,,,,,,,,,,,,,,,,,,,,,,,,,,
,,,,,,613d091096ca434d703f77c5,62c53a914f260ff71db91f3a,2022-07-06_09h32.48.915,Colour_Asymmetry_Pilot,2022.1.3,Win32,59.95203837,62c50e9c1127f2cd403a315f,0,75,75,16,1,onetwo,,,,,,,,,,,,,,,,,,,,,,,,,,,,,,,,,,,,,,,,,,,,,,,,,,,,,,,,,,,,,,,,,,,,,,,,,,,,,,,,,,,,,,,,,,,,,,,,,,,,,,,,,,,,,,,,,,,,,,,,,,,,,,,,,,,,,,,,,,,,,,,,,,,,,,,,,,,,,
,,,,,,613d091096ca434d703f77c5,62c53a914f260ff71db91f3a,2022-07-06_09h32.48.915,Colour_Asymmetry_Pilot,2022.1.3,Win32,59.95203837,62c50e9c1127f2cd403a315f,0,76,76,117,1,threefour,,,,,,,,,,,,,,,,,,,,,,,,,,,,,,,,,,,,,,,,,,,,,,,,,,,,,,,,,,,,,,,,,,,,,,,,,,,,,,,,,,,,,,,,,,,,,,,,,,,,,,,,,,,,,,,,,,,,,,,,,,,,,,,,,,,,,,,,,,,,,,,,,,,,,,,,,,,,,
,,,,,,613d091096ca434d703f77c5,62c53a914f260ff71db91f3a,2022-07-06_09h32.48.915,Colour_Asymmetry_Pilot,2022.1.3,Win32,59.95203837,62c50e9c1127f2cd403a315f,0,77,77,66,1,twoone,,,,,,,,,,,,,,,,,,,,,,,,,,,,,,,,,,,,,,,,,,,,,,,,,,,,,,,,,,,,,,,,,,,,,,,,,,,,,,,,,,,,,,,,,,,,,,,,,,,,,,,,,,,,,,,,,,,,,,,,,,,,,,,,,,,,,,,,,,,,,,,,,,,,,,,,,,,,,
,,,,,,613d091096ca434d703f77c5,62c53a914f260ff71db91f3a,2022-07-06_09h32.48.915,Colour_Asymmetry_Pilot,2022.1.3,Win32,59.95203837,62c50e9c1127f2cd403a315f,0,78,78,59,1,twofour,,,,,,,,,,,,,,,,,,,,,,,,,,,,,,,,,,,,,,,,,,,,,,,,,,,,,,,,,,,,,,,,,,,,,,,,,,,,,,,,,,,,,,,,,,,,,,,,,,,,,,,,,,,,,,,,,,,,,,,,,,,,,,,,,,,,,,,,,,,,,,,,,,,,,,,,,,,,,
,,,,,,613d091096ca434d703f77c5,62c53a914f260ff71db91f3a,2022-07-06_09h32.48.915,Colour_Asymmetry_Pilot,2022.1.3,Win32,59.95203837,62c50e9c1127f2cd403a315f,0,79,79,39,1,fourthree,,,,,,,,,,,,,,,,,,,,,,,,,,,,,,,,,,,,,,,,,,,,,,,,,,,,,,,,,,,,,,,,,,,,,,,,,,,,,,,,,,,,,,,,,,,,,,,,,,,,,,,,,,,,,,,,,,,,,,,,,,,,,,,,,,,,,,,,,,,,,,,,,,,,,,,,,,,,,
,,,,,,613d091096ca434d703f77c5,62c53a914f260ff71db91f3a,2022-07-06_09h32.48.915,Colour_Asymmetry_Pilot,2022.1.3,Win32,59.95203837,62c50e9c1127f2cd403a315f,0,80,80,86,1,fourtwo,,,,,,,,,,,,,,,,,,,,,,,,,,,,,,,,,,,,,,,,,,,,,,,,,,,,,,,,,,,,,,,,,,,,,,,,,,,,,,,,,,,,,,,,,,,,,,,,,,,,,,,,,,,,,,,,,,,,,,,,,,,,,,,,,,,,,,,,,,,,,,,,,,,,,,,,,,,,,
,,,,,,613d091096ca434d703f77c5,62c53a914f260ff71db91f3a,2022-07-06_09h32.48.915,Colour_Asymmetry_Pilot,2022.1.3,Win32,59.95203837,62c50e9c1127f2cd403a315f,0,81,81,15,1,fourthree,,,,,,,,,,,,,,,,,,,,,,,,,,,,,,,,,,,,,,,,,,,,,,,,,,,,,,,,,,,,,,,,,,,,,,,,,,,,,,,,,,,,,,,,,,,,,,,,,,,,,,,,,,,,,,,,,,,,,,,,,,,,,,,,,,,,,,,,,,,,,,,,,,,,,,,,,,,,,
,,,,,,613d091096ca434d703f77c5,62c53a914f260ff71db91f3a,2022-07-06_09h32.48.915,Colour_Asymmetry_Pilot,2022.1.3,Win32,59.95203837,62c50e9c1127f2cd403a315f,0,82,82,57,1,onethree,,,,,,,,,,,,,,,,,,,,,,,,,,,,,,,,,,,,,,,,,,,,,,,,,,,,,,,,,,,,,,,,,,,,,,,,,,,,,,,,,,,,,,,,,,,,,,,,,,,,,,,,,,,,,,,,,,,,,,,,,,,,,,,,,,,,,,,,,,,,,,,,,,,,,,,,,,,,,
,,,,,,613d091096ca434d703f77c5,62c53a914f260ff71db91f3a,2022-07-06_09h32.48.915,Colour_Asymmetry_Pilot,2022.1.3,Win32,59.95203837,62c50e9c1127f2cd403a315f,0,83,83,54,1,fourtwo,,,,,,,,,,,,,,,,,,,,,,,,,,,,,,,,,,,,,,,,,,,,,,,,,,,,,,,,,,,,,,,,,,,,,,,,,,,,,,,,,,,,,,,,,,,,,,,,,,,,,,,,,,,,,,,,,,,,,,,,,,,,,,,,,,,,,,,,,,,,,,,,,,,,,,,,,,,,,
,,,,,,613d091096ca434d703f77c5,62c53a914f260ff71db91f3a,2022-07-06_09h32.48.915,Colour_Asymmetry_Pilot,2022.1.3,Win32,59.95203837,62c50e9c1127f2cd403a315f,0,84,84,14,1,fourtwo,,,,,,,,,,,,,,,,,,,,,,,,,,,,,,,,,,,,,,,,,,,,,,,,,,,,,,,,,,,,,,,,,,,,,,,,,,,,,,,,,,,,,,,,,,,,,,,,,,,,,,,,,,,,,,,,,,,,,,,,,,,,,,,,,,,,,,,,,,,,,,,,,,,,,,,,,,,,,
,,,,,,613d091096ca434d703f77c5,62c53a914f260ff71db91f3a,2022-07-06_09h32.48.915,Colour_Asymmetry_Pilot,2022.1.3,Win32,59.95203837,62c50e9c1127f2cd403a315f,0,85,85,87,1,fourthree,,,,,,,,,,,,,,,,,,,,,,,,,,,,,,,,,,,,,,,,,,,,,,,,,,,,,,,,,,,,,,,,,,,,,,,,,,,,,,,,,,,,,,,,,,,,,,,,,,,,,,,,,,,,,,,,,,,,,,,,,,,,,,,,,,,,,,,,,,,,,,,,,,,,,,,,,,,,,
,,,,,,613d091096ca434d703f77c5,62c53a914f260ff71db91f3a,2022-07-06_09h32.48.915,Colour_Asymmetry_Pilot,2022.1.3,Win32,59.95203837,62c50e9c1127f2cd403a315f,0,86,86,161,1,onethree,,,,,,,,,,,,,,,,,,,,,,,,,,,,,,,,,,,,,,,,,,,,,,,,,,,,,,,,,,,,,,,,,,,,,,,,,,,,,,,,,,,,,,,,,,,,,,,,,,,,,,,,,,,,,,,,,,,,,,,,,,,,,,,,,,,,,,,,,,,,,,,,,,,,,,,,,,,,,
,,,,,,613d091096ca434d703f77c5,62c53a914f260ff71db91f3a,2022-07-06_09h32.48.915,Colour_Asymmetry_Pilot,2022.1.3,Win32,59.95203837,62c50e9c1127f2cd403a315f,0,87,87,96,1,onetwo,,,,,,,,,,,,,,,,,,,,,,,,,,,,,,,,,,,,,,,,,,,,,,,,,,,,,,,,,,,,,,,,,,,,,,,,,,,,,,,,,,,,,,,,,,,,,,,,,,,,,,,,,,,,,,,,,,,,,,,,,,,,,,,,,,,,,,,,,,,,,,,,,,,,,,,,,,,,,
,,,,,,613d091096ca434d703f77c5,62c53a914f260ff71db91f3a,2022-07-06_09h32.48.915,Colour_Asymmetry_Pilot,2022.1.3,Win32,59.95203837,62c50e9c1127f2cd403a315f,0,88,88,18,1,twoone,,,,,,,,,,,,,,,,,,,,,,,,,,,,,,,,,,,,,,,,,,,,,,,,,,,,,,,,,,,,,,,,,,,,,,,,,,,,,,,,,,,,,,,,,,,,,,,,,,,,,,,,,,,,,,,,,,,,,,,,,,,,,,,,,,,,,,,,,,,,,,,,,,,,,,,,,,,,,
,,,,,,613d091096ca434d703f77c5,62c53a914f260ff71db91f3a,2022-07-06_09h32.48.915,Colour_Asymmetry_Pilot,2022.1.3,Win32,59.95203837,62c50e9c1127f2cd403a315f,0,89,89,71,1,fourthree,,,,,,,,,,,,,,,,,,,,,,,,,,,,,,,,,,,,,,,,,,,,,,,,,,,,,,,,,,,,,,,,,,,,,,,,,,,,,,,,,,,,,,,,,,,,,,,,,,,,,,,,,,,,,,,,,,,,,,,,,,,,,,,,,,,,,,,,,,,,,,,,,,,,,,,,,,,,,
,,,,,,613d091096ca434d703f77c5,62c53a914f260ff71db91f3a,2022-07-06_09h32.48.915,Colour_Asymmetry_Pilot,2022.1.3,Win32,59.95203837,62c50e9c1127f2cd403a315f,0,90,90,89,1,onethree,,,,,,,,,,,,,,,,,,,,,,,,,,,,,,,,,,,,,,,,,,,,,,,,,,,,,,,,,,,,,,,,,,,,,,,,,,,,,,,,,,,,,,,,,,,,,,,,,,,,,,,,,,,,,,,,,,,,,,,,,,,,,,,,,,,,,,,,,,,,,,,,,,,,,,,,,,,,,
,,,,,,613d091096ca434d703f77c5,62c53a914f260ff71db91f3a,2022-07-06_09h32.48.915,Colour_Asymmetry_Pilot,2022.1.3,Win32,59.95203837,62c50e9c1127f2cd403a315f,0,91,91,160,1,onetwo,,,,,,,,,,,,,,,,,,,,,,,,,,,,,,,,,,,,,,,,,,,,,,,,,,,,,,,,,,,,,,,,,,,,,,,,,,,,,,,,,,,,,,,,,,,,,,,,,,,,,,,,,,,,,,,,,,,,,,,,,,,,,,,,,,,,,,,,,,,,,,,,,,,,,,,,,,,,,
,,,,,,613d091096ca434d703f77c5,62c53a914f260ff71db91f3a,2022-07-06_09h32.48.915,Colour_Asymmetry_Pilot,2022.1.3,Win32,59.95203837,62c50e9c1127f2cd403a315f,0,92,92,152,1,onetwo,,,,,,,,,,,,,,,,,,,,,,,,,,,,,,,,,,,,,,,,,,,,,,,,,,,,,,,,,,,,,,,,,,,,,,,,,,,,,,,,,,,,,,,,,,,,,,,,,,,,,,,,,,,,,,,,,,,,,,,,,,,,,,,,,,,,,,,,,,,,,,,,,,,,,,,,,,,,,
,,,,,,613d091096ca434d703f77c5,62c53a914f260ff71db91f3a,2022-07-06_09h32.48.915,Colour_Asymmetry_Pilot,2022.1.3,Win32,59.95203837,62c50e9c1127f2cd403a315f,0,93,93,46,1,fourtwo,,,,,,,,,,,,,,,,,,,,,,,,,,,,,,,,,,,,,,,,,,,,,,,,,,,,,,,,,,,,,,,,,,,,,,,,,,,,,,,,,,,,,,,,,,,,,,,,,,,,,,,,,,,,,,,,,,,,,,,,,,,,,,,,,,,,,,,,,,,,,,,,,,,,,,,,,,,,,
,,,,,,613d091096ca434d703f77c5,62c53a914f260ff71db91f3a,2022-07-06_09h32.48.915,Colour_Asymmetry_Pilot,2022.1.3,Win32,59.95203837,62c50e9c1127f2cd403a315f,0,94,94,17,1,onethree,,,,,,,,,,,,,,,,,,,,,,,,,,,,,,,,,,,,,,,,,,,,,,,,,,,,,,,,,,,,,,,,,,,,,,,,,,,,,,,,,,,,,,,,,,,,,,,,,,,,,,,,,,,,,,,,,,,,,,,,,,,,,,,,,,,,,,,,,,,,,,,,,,,,,,,,,,,,,
,,,,,,613d091096ca434d703f77c5,62c53a914f260ff71db91f3a,2022-07-06_09h32.48.915,Colour_Asymmetry_Pilot,2022.1.3,Win32,59.95203837,62c50e9c1127f2cd403a315f,0,95,95,112,1,onetwo,,,,,,,,,,,,,,,,,,,,,,,,,,,,,,,,,,,,,,,,,,,,,,,,,,,,,,,,,,,,,,,,,,,,,,,,,,,,,,,,,,,,,,,,,,,,,,,,,,,,,,,,,,,,,,,,,,,,,,,,,,,,,,,,,,,,,,,,,,,,,,,,,,,,,,,,,,,,,
,,,,,,613d091096ca434d703f77c5,62c53a914f260ff71db91f3a,2022-07-06_09h32.48.915,Colour_Asymmetry_Pilot,2022.1.3,Win32,59.95203837,62c50e9c1127f2cd403a315f,0,96,96,81,1,onethree,,,,,,,,,,,,,,,,,,,,,,,,,,,,,,,,,,,,,,,,,,,,,,,,,,,,,,,,,,,,,,,,,,,,,,,,,,,,,,,,,,,,,,,,,,,,,,,,,,,,,,,,,,,,,,,,,,,,,,,,,,,,,,,,,,,,,,,,,,,,,,,,,,,,,,,,,,,,,
,,,,,,613d091096ca434d703f77c5,62c53a914f260ff71db91f3a,2022-07-06_09h32.48.915,Colour_Asymmetry_Pilot,2022.1.3,Win32,59.95203837,62c50e9c1127f2cd403a315f,0,97,97,74,1,twoone,,,,,,,,,,,,,,,,,,,,,,,,,,,,,,,,,,,,,,,,,,,,,,,,,,,,,,,,,,,,,,,,,,,,,,,,,,,,,,,,,,,,,,,,,,,,,,,,,,,,,,,,,,,,,,,,,,,,,,,,,,,,,,,,,,,,,,,,,,,,,,,,,,,,,,,,,,,,,
,,,,,,613d091096ca434d703f77c5,62c53a914f260ff71db91f3a,2022-07-06_09h32.48.915,Colour_Asymmetry_Pilot,2022.1.3,Win32,59.95203837,62c50e9c1127f2cd403a315f,0,98,98,28,1,threeone,,,,,,,,,,,,,,,,,,,,,,,,,,,,,,,,,,,,,,,,,,,,,,,,,,,,,,,,,,,,,,,,,,,,,,,,,,,,,,,,,,,,,,,,,,,,,,,,,,,,,,,,,,,,,,,,,,,,,,,,,,,,,,,,,,,,,,,,,,,,,,,,,,,,,,,,,,,,,
,,,,,,613d091096ca434d703f77c5,62c53a914f260ff71db91f3a,2022-07-06_09h32.48.915,Colour_Asymmetry_Pilot,2022.1.3,Win32,59.95203837,62c50e9c1127f2cd403a315f,0,99,99,30,1,fourtwo,,,,,,,,,,,,,,,,,,,,,,,,,,,,,,,,,,,,,,,,,,,,,,,,,,,,,,,,,,,,,,,,,,,,,,,,,,,,,,,,,,,,,,,,,,,,,,,,,,,,,,,,,,,,,,,,,,,,,,,,,,,,,,,,,,,,,,,,,,,,,,,,,,,,,,,,,,,,,
,,,,,,613d091096ca434d703f77c5,62c53a914f260ff71db91f3a,2022-07-06_09h32.48.915,Colour_Asymmetry_Pilot,2022.1.3,Win32,59.95203837,62c50e9c1127f2cd403a315f,0,100,100,38,1,fourtwo,,,,,,,,,,,,,,,,,,,,,,,,,,,,,,,,,,,,,,,,,,,,,,,,,,,,,,,,,,,,,,,,,,,,,,,,,,,,,,,,,,,,,,,,,,,,,,,,,,,,,,,,,,,,,,,,,,,,,,,,,,,,,,,,,,,,,,,,,,,,,,,,,,,,,,,,,,,,,
,,,,,,613d091096ca434d703f77c5,62c53a914f260ff71db91f3a,2022-07-06_09h32.48.915,Colour_Asymmetry_Pilot,2022.1.3,Win32,59.95203837,62c50e9c1127f2cd403a315f,0,101,101,101,1,threefour,,,,,,,,,,,,,,,,,,,,,,,,,,,,,,,,,,,,,,,,,,,,,,,,,,,,,,,,,,,,,,,,,,,,,,,,,,,,,,,,,,,,,,,,,,,,,,,,,,,,,,,,,,,,,,,,,,,,,,,,,,,,,,,,,,,,,,,,,,,,,,,,,,,,,,,,,,,,,
,,,,,,613d091096ca434d703f77c5,62c53a914f260ff71db91f3a,2022-07-06_09h32.48.915,Colour_Asymmetry_Pilot,2022.1.3,Win32,59.95203837,62c50e9c1127f2cd403a315f,0,102,102,19,1,twofour,,,,,,,,,,,,,,,,,,,,,,,,,,,,,,,,,,,,,,,,,,,,,,,,,,,,,,,,,,,,,,,,,,,,,,,,,,,,,,,,,,,,,,,,,,,,,,,,,,,,,,,,,,,,,,,,,,,,,,,,,,,,,,,,,,,,,,,,,,,,,,,,,,,,,,,,,,,,,
,,,,,,613d091096ca434d703f77c5,62c53a914f260ff71db91f3a,2022-07-06_09h32.48.915,Colour_Asymmetry_Pilot,2022.1.3,Win32,59.95203837,62c50e9c1127f2cd403a315f,0,103,103,153,1,onethree,,,,,,,,,,,,,,,,,,,,,,,,,,,,,,,,,,,,,,,,,,,,,,,,,,,,,,,,,,,,,,,,,,,,,,,,,,,,,,,,,,,,,,,,,,,,,,,,,,,,,,,,,,,,,,,,,,,,,,,,,,,,,,,,,,,,,,,,,,,,,,,,,,,,,,,,,,,,,
,,,,,,613d091096ca434d703f77c5,62c53a914f260ff71db91f3a,2022-07-06_09h32.48.915,Colour_Asymmetry_Pilot,2022.1.3,Win32,59.95203837,62c50e9c1127f2cd403a315f,0,104,104,118,1,fourtwo,,,,,,,,,,,,,,,,,,,,,,,,,,,,,,,,,,,,,,,,,,,,,,,,,,,,,,,,,,,,,,,,,,,,,,,,,,,,,,,,,,,,,,,,,,,,,,,,,,,,,,,,,,,,,,,,,,,,,,,,,,,,,,,,,,,,,,,,,,,,,,,,,,,,,,,,,,,,,
,,,,,,613d091096ca434d703f77c5,62c53a914f260ff71db91f3a,2022-07-06_09h32.48.915,Colour_Asymmetry_Pilot,2022.1.3,Win32,59.95203837,62c50e9c1127f2cd403a315f,0,105,105,62,1,fourtwo,,,,,,,,,,,,,,,,,,,,,,,,,,,,,,,,,,,,,,,,,,,,,,,,,,,,,,,,,,,,,,,,,,,,,,,,,,,,,,,,,,,,,,,,,,,,,,,,,,,,,,,,,,,,,,,,,,,,,,,,,,,,,,,,,,,,,,,,,,,,,,,,,,,,,,,,,,,,,
,,,,,,613d091096ca434d703f77c5,62c53a914f260ff71db91f3a,2022-07-06_09h32.48.915,Colour_Asymmetry_Pilot,2022.1.3,Win32,59.95203837,62c50e9c1127f2cd403a315f,0,106,106,58,1,twoone,,,,,,,,,,,,,,,,,,,,,,,,,,,,,,,,,,,,,,,,,,,,,,,,,,,,,,,,,,,,,,,,,,,,,,,,,,,,,,,,,,,,,,,,,,,,,,,,,,,,,,,,,,,,,,,,,,,,,,,,,,,,,,,,,,,,,,,,,,,,,,,,,,,,,,,,,,,,,
,,,,,,613d091096ca434d703f77c5,62c53a914f260ff71db91f3a,2022-07-06_09h32.48.915,Colour_Asymmetry_Pilot,2022.1.3,Win32,59.95203837,62c50e9c1127f2cd403a315f,0,107,107,45,1,threefour,,,,,,,,,,,,,,,,,,,,,,,,,,,,,,,,,,,,,,,,,,,,,,,,,,,,,,,,,,,,,,,,,,,,,,,,,,,,,,,,,,,,,,,,,,,,,,,,,,,,,,,,,,,,,,,,,,,,,,,,,,,,,,,,,,,,,,,,,,,,,,,,,,,,,,,,,,,,,
,,,,,,613d091096ca434d703f77c5,62c53a914f260ff71db91f3a,2022-07-06_09h32.48.915,Colour_Asymmetry_Pilot,2022.1.3,Win32,59.95203837,62c50e9c1127f2cd403a315f,0,108,108,128,1,onetwo,,,,,,,,,,,,,,,,,,,,,,,,,,,,,,,,,,,,,,,,,,,,,,,,,,,,,,,,,,,,,,,,,,,,,,,,,,,,,,,,,,,,,,,,,,,,,,,,,,,,,,,,,,,,,,,,,,,,,,,,,,,,,,,,,,,,,,,,,,,,,,,,,,,,,,,,,,,,,
,,,,,,613d091096ca434d703f77c5,62c53a914f260ff71db91f3a,2022-07-06_09h32.48.915,Colour_Asymmetry_Pilot,2022.1.3,Win32,59.95203837,62c50e9c1127f2cd403a315f,0,109,109,33,1,onethree,,,,,,,,,,,,,,,,,,,,,,,,,,,,,,,,,,,,,,,,,,,,,,,,,,,,,,,,,,,,,,,,,,,,,,,,,,,,,,,,,,,,,,,,,,,,,,,,,,,,,,,,,,,,,,,,,,,,,,,,,,,,,,,,,,,,,,,,,,,,,,,,,,,,,,,,,,,,,
,,,,,,613d091096ca434d703f77c5,62c53a914f260ff71db91f3a,2022-07-06_09h32.48.915,Colour_Asymmetry_Pilot,2022.1.3,Win32,59.95203837,62c50e9c1127f2cd403a315f,0,110,110,79,1,fourthree,,,,,,,,,,,,,,,,,,,,,,,,,,,,,,,,,,,,,,,,,,,,,,,,,,,,,,,,,,,,,,,,,,,,,,,,,,,,,,,,,,,,,,,,,,,,,,,,,,,,,,,,,,,,,,,,,,,,,,,,,,,,,,,,,,,,,,,,,,,,,,,,,,,,,,,,,,,,,
,,,,,,613d091096ca434d703f77c5,62c53a914f260ff71db91f3a,2022-07-06_09h32.48.915,Colour_Asymmetry_Pilot,2022.1.3,Win32,59.95203837,62c50e9c1127f2cd403a315f,0,111,111,104,1,onetwo,,,,,,,,,,,,,,,,,,,,,,,,,,,,,,,,,,,,,,,,,,,,,,,,,,,,,,,,,,,,,,,,,,,,,,,,,,,,,,,,,,,,,,,,,,,,,,,,,,,,,,,,,,,,,,,,,,,,,,,,,,,,,,,,,,,,,,,,,,,,,,,,,,,,,,,,,,,,,
,,,,,,613d091096ca434d703f77c5,62c53a914f260ff71db91f3a,2022-07-06_09h32.48.915,Colour_Asymmetry_Pilot,2022.1.3,Win32,59.95203837,62c50e9c1127f2cd403a315f,0,112,112,65,1,onethree,,,,,,,,,,,,,,,,,,,,,,,,,,,,,,,,,,,,,,,,,,,,,,,,,,,,,,,,,,,,,,,,,,,,,,,,,,,,,,,,,,,,,,,,,,,,,,,,,,,,,,,,,,,,,,,,,,,,,,,,,,,,,,,,,,,,,,,,,,,,,,,,,,,,,,,,,,,,,
,,,,,,613d091096ca434d703f77c5,62c53a914f260ff71db91f3a,2022-07-06_09h32.48.915,Colour_Asymmetry_Pilot,2022.1.3,Win32,59.95203837,62c50e9c1127f2cd403a315f,0,113,113,120,1,onetwo,,,,,,,,,,,,,,,,,,,,,,,,,,,,,,,,,,,,,,,,,,,,,,,,,,,,,,,,,,,,,,,,,,,,,,,,,,,,,,,,,,,,,,,,,,,,,,,,,,,,,,,,,,,,,,,,,,,,,,,,,,,,,,,,,,,,,,,,,,,,,,,,,,,,,,,,,,,,,
,,,,,,613d091096ca434d703f77c5,62c53a914f260ff71db91f3a,2022-07-06_09h32.48.915,Colour_Asymmetry_Pilot,2022.1.3,Win32,59.95203837,62c50e9c1127f2cd403a315f,0,114,114,114,1,twoone,,,,,,,,,,,,,,,,,,,,,,,,,,,,,,,,,,,,,,,,,,,,,,,,,,,,,,,,,,,,,,,,,,,,,,,,,,,,,,,,,,,,,,,,,,,,,,,,,,,,,,,,,,,,,,,,,,,,,,,,,,,,,,,,,,,,,,,,,,,,,,,,,,,,,,,,,,,,,
,,,,,,613d091096ca434d703f77c5,62c53a914f260ff71db91f3a,2022-07-06_09h32.48.915,Colour_Asymmetry_Pilot,2022.1.3,Win32,59.95203837,62c50e9c1127f2cd403a315f,0,115,115,73,1,onethree,,,,,,,,,,,,,,,,,,,,,,,,,,,,,,,,,,,,,,,,,,,,,,,,,,,,,,,,,,,,,,,,,,,,,,,,,,,,,,,,,,,,,,,,,,,,,,,,,,,,,,,,,,,,,,,,,,,,,,,,,,,,,,,,,,,,,,,,,,,,,,,,,,,,,,,,,,,,,
,,,,,,613d091096ca434d703f77c5,62c53a914f260ff71db91f3a,2022-07-06_09h32.48.915,Colour_Asymmetry_Pilot,2022.1.3,Win32,59.95203837,62c50e9c1127f2cd403a315f,0,116,116,124,1,threeone,,,,,,,,,,,,,,,,,,,,,,,,,,,,,,,,,,,,,,,,,,,,,,,,,,,,,,,,,,,,,,,,,,,,,,,,,,,,,,,,,,,,,,,,,,,,,,,,,,,,,,,,,,,,,,,,,,,,,,,,,,,,,,,,,,,,,,,,,,,,,,,,,,,,,,,,,,,,,
,,,,,,613d091096ca434d703f77c5,62c53a914f260ff71db91f3a,2022-07-06_09h32.48.915,Colour_Asymmetry_Pilot,2022.1.3,Win32,59.95203837,62c50e9c1127f2cd403a315f,0,117,117,4,1,threeone,,,,,,,,,,,,,,,,,,,,,,,,,,,,,,,,,,,,,,,,,,,,,,,,,,,,,,,,,,,,,,,,,,,,,,,,,,,,,,,,,,,,,,,,,,,,,,,,,,,,,,,,,,,,,,,,,,,,,,,,,,,,,,,,,,,,,,,,,,,,,,,,,,,,,,,,,,,,,
,,,,,,613d091096ca434d703f77c5,62c53a914f260ff71db91f3a,2022-07-06_09h32.48.915,Colour_Asymmetry_Pilot,2022.1.3,Win32,59.95203837,62c50e9c1127f2cd403a315f,0,118,118,149,1,threefour,,,,,,,,,,,,,,,,,,,,,,,,,,,,,,,,,,,,,,,,,,,,,,,,,,,,,,,,,,,,,,,,,,,,,,,,,,,,,,,,,,,,,,,,,,,,,,,,,,,,,,,,,,,,,,,,,,,,,,,,,,,,,,,,,,,,,,,,,,,,,,,,,,,,,,,,,,,,,
,,,,,,613d091096ca434d703f77c5,62c53a914f260ff71db91f3a,2022-07-06_09h32.48.915,Colour_Asymmetry_Pilot,2022.1.3,Win32,59.95203837,62c50e9c1127f2cd403a315f,0,119,119,76,1,threeone,,,,,,,,,,,,,,,,,,,,,,,,,,,,,,,,,,,,,,,,,,,,,,,,,,,,,,,,,,,,,,,,,,,,,,,,,,,,,,,,,,,,,,,,,,,,,,,,,,,,,,,,,,,,,,,,,,,,,,,,,,,,,,,,,,,,,,,,,,,,,,,,,,,,,,,,,,,,,
,,,,,,613d091096ca434d703f77c5,62c53a914f260ff71db91f3a,2022-07-06_09h32.48.915,Colour_Asymmetry_Pilot,2022.1.3,Win32,59.95203837,62c50e9c1127f2cd403a315f,0,120,120,95,1,fourthree,,,,,,,,,,,,,,,,,,,,,,,,,,,,,,,,,,,,,,,,,,,,,,,,,,,,,,,,,,,,,,,,,,,,,,,,,,,,,,,,,,,,,,,,,,,,,,,,,,,,,,,,,,,,,,,,,,,,,,,,,,,,,,,,,,,,,,,,,,,,,,,,,,,,,,,,,,,,,
,,,,,,613d091096ca434d703f77c5,62c53a914f260ff71db91f3a,2022-07-06_09h32.48.915,Colour_Asymmetry_Pilot,2022.1.3,Win32,59.95203837,62c50e9c1127f2cd403a315f,0,121,121,41,1,onethree,,,,,,,,,,,,,,,,,,,,,,,,,,,,,,,,,,,,,,,,,,,,,,,,,,,,,,,,,,,,,,,,,,,,,,,,,,,,,,,,,,,,,,,,,,,,,,,,,,,,,,,,,,,,,,,,,,,,,,,,,,,,,,,,,,,,,,,,,,,,,,,,,,,,,,,,,,,,,
,,,,,,613d091096ca434d703f77c5,62c53a914f260ff71db91f3a,2022-07-06_09h32.48.915,Colour_Asymmetry_Pilot,2022.1.3,Win32,59.95203837,62c50e9c1127f2cd403a315f,0,122,122,29,1,threefour,,,,,,,,,,,,,,,,,,,,,,,,,,,,,,,,,,,,,,,,,,,,,,,,,,,,,,,,,,,,,,,,,,,,,,,,,,,,,,,,,,,,,,,,,,,,,,,,,,,,,,,,,,,,,,,,,,,,,,,,,,,,,,,,,,,,,,,,,,,,,,,,,,,,,,,,,,,,,
,,,,,,613d091096ca434d703f77c5,62c53a914f260ff71db91f3a,2022-07-06_09h32.48.915,Colour_Asymmetry_Pilot,2022.1.3,Win32,59.95203837,62c50e9c1127f2cd403a315f,0,123,123,22,1,fourtwo,,,,,,,,,,,,,,,,,,,,,,,,,,,,,,,,,,,,,,,,,,,,,,,,,,,,,,,,,,,,,,,,,,,,,,,,,,,,,,,,,,,,,,,,,,,,,,,,,,,,,,,,,,,,,,,,,,,,,,,,,,,,,,,,,,,,,,,,,,,,,,,,,,,,,,,,,,,,,
,,,,,,613d091096ca434d703f77c5,62c53a914f260ff71db91f3a,2022-07-06_09h32.48.915,Colour_Asymmetry_Pilot,2022.1.3,Win32,59.95203837,62c50e9c1127f2cd403a315f,0,124,124,13,1,threefour,,,,,,,,,,,,,,,,,,,,,,,,,,,,,,,,,,,,,,,,,,,,,,,,,,,,,,,,,,,,,,,,,,,,,,,,,,,,,,,,,,,,,,,,,,,,,,,,,,,,,,,,,,,,,,,,,,,,,,,,,,,,,,,,,,,,,,,,,,,,,,,,,,,,,,,,,,,,,
,,,,,,613d091096ca434d703f77c5,62c53a914f260ff71db91f3a,2022-07-06_09h32.48.915,Colour_Asymmetry_Pilot,2022.1.3,Win32,59.95203837,62c50e9c1127f2cd403a315f,0,125,125,126,1,fourtwo,,,,,,,,,,,,,,,,,,,,,,,,,,,,,,,,,,,,,,,,,,,,,,,,,,,,,,,,,,,,,,,,,,,,,,,,,,,,,,,,,,,,,,,,,,,,,,,,,,,,,,,,,,,,,,,,,,,,,,,,,,,,,,,,,,,,,,,,,,,,,,,,,,,,,,,,,,,,,
,,,,,,613d091096ca434d703f77c5,62c53a914f260ff71db91f3a,2022-07-06_09h32.48.915,Colour_Asymmetry_Pilot,2022.1.3,Win32,59.95203837,62c50e9c1127f2cd403a315f,0,126,126,140,1,threeone,,,,,,,,,,,,,,,,,,,,,,,,,,,,,,,,,,,,,,,,,,,,,,,,,,,,,,,,,,,,,,,,,,,,,,,,,,,,,,,,,,,,,,,,,,,,,,,,,,,,,,,,,,,,,,,,,,,,,,,,,,,,,,,,,,,,,,,,,,,,,,,,,,,,,,,,,,,,,
,,,,,,613d091096ca434d703f77c5,62c53a914f260ff71db91f3a,2022-07-06_09h32.48.915,Colour_Asymmetry_Pilot,2022.1.3,Win32,59.95203837,62c50e9c1127f2cd403a315f,0,127,127,131,1,twofour,,,,,,,,,,,,,,,,,,,,,,,,,,,,,,,,,,,,,,,,,,,,,,,,,,,,,,,,,,,,,,,,,,,,,,,,,,,,,,,,,,,,,,,,,,,,,,,,,,,,,,,,,,,,,,,,,,,,,,,,,,,,,,,,,,,,,,,,,,,,,,,,,,,,,,,,,,,,,
,,,,,,613d091096ca434d703f77c5,62c53a914f260ff71db91f3a,2022-07-06_09h32.48.915,Colour_Asymmetry_Pilot,2022.1.3,Win32,59.95203837,62c50e9c1127f2cd403a315f,0,128,128,93,1,threefour,,,,,,,,,,,,,,,,,,,,,,,,,,,,,,,,,,,,,,,,,,,,,,,,,,,,,,,,,,,,,,,,,,,,,,,,,,,,,,,,,,,,,,,,,,,,,,,,,,,,,,,,,,,,,,,,,,,,,,,,,,,,,,,,,,,,,,,,,,,,,,,,,,,,,,,,,,,,,
,,,,,,613d091096ca434d703f77c5,62c53a914f260ff71db91f3a,2022-07-06_09h32.48.915,Colour_Asymmetry_Pilot,2022.1.3,Win32,59.95203837,62c50e9c1127f2cd403a315f,0,129,129,5,1,threefour,,,,,,,,,,,,,,,,,,,,,,,,,,,,,,,,,,,,,,,,,,,,,,,,,,,,,,,,,,,,,,,,,,,,,,,,,,,,,,,,,,,,,,,,,,,,,,,,,,,,,,,,,,,,,,,,,,,,,,,,,,,,,,,,,,,,,,,,,,,,,,,,,,,,,,,,,,,,,
,,,,,,613d091096ca434d703f77c5,62c53a914f260ff71db91f3a,2022-07-06_09h32.48.915,Colour_Asymmetry_Pilot,2022.1.3,Win32,59.95203837,62c50e9c1127f2cd403a315f,0,130,130,51,1,twofour,,,,,,,,,,,,,,,,,,,,,,,,,,,,,,,,,,,,,,,,,,,,,,,,,,,,,,,,,,,,,,,,,,,,,,,,,,,,,,,,,,,,,,,,,,,,,,,,,,,,,,,,,,,,,,,,,,,,,,,,,,,,,,,,,,,,,,,,,,,,,,,,,,,,,,,,,,,,,
,,,,,,613d091096ca434d703f77c5,62c53a914f260ff71db91f3a,2022-07-06_09h32.48.915,Colour_Asymmetry_Pilot,2022.1.3,Win32,59.95203837,62c50e9c1127f2cd403a315f,0,131,131,11,1,twofour,,,,,,,,,,,,,,,,,,,,,,,,,,,,,,,,,,,,,,,,,,,,,,,,,,,,,,,,,,,,,,,,,,,,,,,,,,,,,,,,,,,,,,,,,,,,,,,,,,,,,,,,,,,,,,,,,,,,,,,,,,,,,,,,,,,,,,,,,,,,,,,,,,,,,,,,,,,,,
,,,,,,613d091096ca434d703f77c5,62c53a914f260ff71db91f3a,2022-07-06_09h32.48.915,Colour_Asymmetry_Pilot,2022.1.3,Win32,59.95203837,62c50e9c1127f2cd403a315f,0,132,132,156,1,threeone,,,,,,,,,,,,,,,,,,,,,,,,,,,,,,,,,,,,,,,,,,,,,,,,,,,,,,,,,,,,,,,,,,,,,,,,,,,,,,,,,,,,,,,,,,,,,,,,,,,,,,,,,,,,,,,,,,,,,,,,,,,,,,,,,,,,,,,,,,,,,,,,,,,,,,,,,,,,,
,,,,,,613d091096ca434d703f77c5,62c53a914f260ff71db91f3a,2022-07-06_09h32.48.915,Colour_Asymmetry_Pilot,2022.1.3,Win32,59.95203837,62c50e9c1127f2cd403a315f,0,133,133,137,1,onethree,,,,,,,,,,,,,,,,,,,,,,,,,,,,,,,,,,,,,,,,,,,,,,,,,,,,,,,,,,,,,,,,,,,,,,,,,,,,,,,,,,,,,,,,,,,,,,,,,,,,,,,,,,,,,,,,,,,,,,,,,,,,,,,,,,,,,,,,,,,,,,,,,,,,,,,,,,,,,
,,,,,,613d091096ca434d703f77c5,62c53a914f260ff71db91f3a,2022-07-06_09h32.48.915,Colour_Asymmetry_Pilot,2022.1.3,Win32,59.95203837,62c50e9c1127f2cd403a315f,0,134,134,67,1,twofour,,,,,,,,,,,,,,,,,,,,,,,,,,,,,,,,,,,,,,,,,,,,,,,,,,,,,,,,,,,,,,,,,,,,,,,,,,,,,,,,,,,,,,,,,,,,,,,,,,,,,,,,,,,,,,,,,,,,,,,,,,,,,,,,,,,,,,,,,,,,,,,,,,,,,,,,,,,,,
,,,,,,613d091096ca434d703f77c5,62c53a914f260ff71db91f3a,2022-07-06_09h32.48.915,Colour_Asymmetry_Pilot,2022.1.3,Win32,59.95203837,62c50e9c1127f2cd403a315f,0,135,135,108,1,threeone,,,,,,,,,,,,,,,,,,,,,,,,,,,,,,,,,,,,,,,,,,,,,,,,,,,,,,,,,,,,,,,,,,,,,,,,,,,,,,,,,,,,,,,,,,,,,,,,,,,,,,,,,,,,,,,,,,,,,,,,,,,,,,,,,,,,,,,,,,,,,,,,,,,,,,,,,,,,,
,,,,,,613d091096ca434d703f77c5,62c53a914f260ff71db91f3a,2022-07-06_09h32.48.915,Colour_Asymmetry_Pilot,2022.1.3,Win32,59.95203837,62c50e9c1127f2cd403a315f,0,136,136,24,1,onetwo,,,,,,,,,,,,,,,,,,,,,,,,,,,,,,,,,,,,,,,,,,,,,,,,,,,,,,,,,,,,,,,,,,,,,,,,,,,,,,,,,,,,,,,,,,,,,,,,,,,,,,,,,,,,,,,,,,,,,,,,,,,,,,,,,,,,,,,,,,,,,,,,,,,,,,,,,,,,,
,,,,,,613d091096ca434d703f77c5,62c53a914f260ff71db91f3a,2022-07-06_09h32.48.915,Colour_Asymmetry_Pilot,2022.1.3,Win32,59.95203837,62c50e9c1127f2cd403a315f,0,137,137,82,1,twoone,,,,,,,,,,,,,,,,,,,,,,,,,,,,,,,,,,,,,,,,,,,,,,,,,,,,,,,,,,,,,,,,,,,,,,,,,,,,,,,,,,,,,,,,,,,,,,,,,,,,,,,,,,,,,,,,,,,,,,,,,,,,,,,,,,,,,,,,,,,,,,,,,,,,,,,,,,,,,
,,,,,,613d091096ca434d703f77c5,62c53a914f260ff71db91f3a,2022-07-06_09h32.48.915,Colour_Asymmetry_Pilot,2022.1.3,Win32,59.95203837,62c50e9c1127f2cd403a315f,0,138,138,10,1,twoone,,,,,,,,,,,,,,,,,,,,,,,,,,,,,,,,,,,,,,,,,,,,,,,,,,,,,,,,,,,,,,,,,,,,,,,,,,,,,,,,,,,,,,,,,,,,,,,,,,,,,,,,,,,,,,,,,,,,,,,,,,,,,,,,,,,,,,,,,,,,,,,,,,,,,,,,,,,,,
,,,,,,613d091096ca434d703f77c5,62c53a914f260ff71db91f3a,2022-07-06_09h32.48.915,Colour_Asymmetry_Pilot,2022.1.3,Win32,59.95203837,62c50e9c1127f2cd403a315f,0,139,139,25,1,onethree,,,,,,,,,,,,,,,,,,,,,,,,,,,,,,,,,,,,,,,,,,,,,,,,,,,,,,,,,,,,,,,,,,,,,,,,,,,,,,,,,,,,,,,,,,,,,,,,,,,,,,,,,,,,,,,,,,,,,,,,,,,,,,,,,,,,,,,,,,,,,,,,,,,,,,,,,,,,,
,,,,,,613d091096ca434d703f77c5,62c53a914f260ff71db91f3a,2022-07-06_09h32.48.915,Colour_Asymmetry_Pilot,2022.1.3,Win32,59.95203837,62c50e9c1127f2cd403a315f,0,140,140,27,1,twofour,,,,,,,,,,,,,,,,,,,,,,,,,,,,,,,,,,,,,,,,,,,,,,,,,,,,,,,,,,,,,,,,,,,,,,,,,,,,,,,,,,,,,,,,,,,,,,,,,,,,,,,,,,,,,,,,,,,,,,,,,,,,,,,,,,,,,,,,,,,,,,,,,,,,,,,,,,,,,
,,,,,,613d091096ca434d703f77c5,62c53a914f260ff71db91f3a,2022-07-06_09h32.48.915,Colour_Asymmetry_Pilot,2022.1.3,Win32,59.95203837,62c50e9c1127f2cd403a315f,0,141,141,60,1,threeone,,,,,,,,,,,,,,,,,,,,,,,,,,,,,,,,,,,,,,,,,,,,,,,,,,,,,,,,,,,,,,,,,,,,,,,,,,,,,,,,,,,,,,,,,,,,,,,,,,,,,,,,,,,,,,,,,,,,,,,,,,,,,,,,,,,,,,,,,,,,,,,,,,,,,,,,,,,,,
,,,,,,613d091096ca434d703f77c5,62c53a914f260ff71db91f3a,2022-07-06_09h32.48.915,Colour_Asymmetry_Pilot,2022.1.3,Win32,59.95203837,62c50e9c1127f2cd403a315f,0,142,142,26,1,twoone,,,,,,,,,,,,,,,,,,,,,,,,,,,,,,,,,,,,,,,,,,,,,,,,,,,,,,,,,,,,,,,,,,,,,,,,,,,,,,,,,,,,,,,,,,,,,,,,,,,,,,,,,,,,,,,,,,,,,,,,,,,,,,,,,,,,,,,,,,,,,,,,,,,,,,,,,,,,,
,,,,,,613d091096ca434d703f77c5,62c53a914f260ff71db91f3a,2022-07-06_09h32.48.915,Colour_Asymmetry_Pilot,2022.1.3,Win32,59.95203837,62c50e9c1127f2cd403a315f,0,143,143,36,1,threeone,,,,,,,,,,,,,,,,,,,,,,,,,,,,,,,,,,,,,,,,,,,,,,,,,,,,,,,,,,,,,,,,,,,,,,,,,,,,,,,,,,,,,,,,,,,,,,,,,,,,,,,,,,,,,,,,,,,,,,,,,,,,,,,,,,,,,,,,,,,,,,,,,,,,,,,,,,,,,
,,,,,,613d091096ca434d703f77c5,62c53a914f260ff71db91f3a,2022-07-06_09h32.48.915,Colour_Asymmetry_Pilot,2022.1.3,Win32,59.95203837,62c50e9c1127f2cd403a315f,0,144,144,129,1,onethree,,,,,,,,,,,,,,,,,,,,,,,,,,,,,,,,,,,,,,,,,,,,,,,,,,,,,,,,,,,,,,,,,,,,,,,,,,,,,,,,,,,,,,,,,,,,,,,,,,,,,,,,,,,,,,,,,,,,,,,,,,,,,,,,,,,,,,,,,,,,,,,,,,,,,,,,,,,,,
,,,,,,613d091096ca434d703f77c5,62c53a914f260ff71db91f3a,2022-07-06_09h32.48.915,Colour_Asymmetry_Pilot,2022.1.3,Win32,59.95203837,62c50e9c1127f2cd403a315f,0,145,145,2,1,twoone,,,,,,,,,,,,,,,,,,,,,,,,,,,,,,,,,,,,,,,,,,,,,,,,,,,,,,,,,,,,,,,,,,,,,,,,,,,,,,,,,,,,,,,,,,,,,,,,,,,,,,,,,,,,,,,,,,,,,,,,,,,,,,,,,,,,,,,,,,,,,,,,,,,,,,,,,,,,,
,,,,,,613d091096ca434d703f77c5,62c53a914f260ff71db91f3a,2022-07-06_09h32.48.915,Colour_Asymmetry_Pilot,2022.1.3,Win32,59.95203837,62c50e9c1127f2cd403a315f,0,146,146,83,1,twofour,,,,,,,,,,,,,,,,,,,,,,,,,,,,,,,,,,,,,,,,,,,,,,,,,,,,,,,,,,,,,,,,,,,,,,,,,,,,,,,,,,,,,,,,,,,,,,,,,,,,,,,,,,,,,,,,,,,,,,,,,,,,,,,,,,,,,,,,,,,,,,,,,,,,,,,,,,,,,
,,,,,,613d091096ca434d703f77c5,62c53a914f260ff71db91f3a,2022-07-06_09h32.48.915,Colour_Asymmetry_Pilot,2022.1.3,Win32,59.95203837,62c50e9c1127f2cd403a315f,0,147,147,55,1,fourthree,,,,,,,,,,,,,,,,,,,,,,,,,,,,,,,,,,,,,,,,,,,,,,,,,,,,,,,,,,,,,,,,,,,,,,,,,,,,,,,,,,,,,,,,,,,,,,,,,,,,,,,,,,,,,,,,,,,,,,,,,,,,,,,,,,,,,,,,,,,,,,,,,,,,,,,,,,,,,
,,,,,,613d091096ca434d703f77c5,62c53a914f260ff71db91f3a,2022-07-06_09h32.48.915,Colour_Asymmetry_Pilot,2022.1.3,Win32,59.95203837,62c50e9c1127f2cd403a315f,0,148,148,146,1,twoone,,,,,,,,,,,,,,,,,,,,,,,,,,,,,,,,,,,,,,,,,,,,,,,,,,,,,,,,,,,,,,,,,,,,,,,,,,,,,,,,,,,,,,,,,,,,,,,,,,,,,,,,,,,,,,,,,,,,,,,,,,,,,,,,,,,,,,,,,,,,,,,,,,,,,,,,,,,,,
,,,,,,613d091096ca434d703f77c5,62c53a914f260ff71db91f3a,2022-07-06_09h32.48.915,Colour_Asymmetry_Pilot,2022.1.3,Win32,59.95203837,62c50e9c1127f2cd403a315f,0,149,149,109,1,threefour,,,,,,,,,,,,,,,,,,,,,,,,,,,,,,,,,,,,,,,,,,,,,,,,,,,,,,,,,,,,,,,,,,,,,,,,,,,,,,,,,,,,,,,,,,,,,,,,,,,,,,,,,,,,,,,,,,,,,,,,,,,,,,,,,,,,,,,,,,,,,,,,,,,,,,,,,,,,,
,,,,,,613d091096ca434d703f77c5,62c53a914f260ff71db91f3a,2022-07-06_09h32.48.915,Colour_Asymmetry_Pilot,2022.1.3,Win32,59.95203837,62c50e9c1127f2cd403a315f,0,150,150,134,1,fourtwo,,,,,,,,,,,,,,,,,,,,,,,,,,,,,,,,,,,,,,,,,,,,,,,,,,,,,,,,,,,,,,,,,,,,,,,,,,,,,,,,,,,,,,,,,,,,,,,,,,,,,,,,,,,,,,,,,,,,,,,,,,,,,,,,,,,,,,,,,,,,,,,,,,,,,,,,,,,,,
,,,,,,613d091096ca434d703f77c5,62c53a914f260ff71db91f3a,2022-07-06_09h32.48.915,Colour_Asymmetry_Pilot,2022.1.3,Win32,59.95203837,62c50e9c1127f2cd403a315f,0,151,151,155,1,twofour,,,,,,,,,,,,,,,,,,,,,,,,,,,,,,,,,,,,,,,,,,,,,,,,,,,,,,,,,,,,,,,,,,,,,,,,,,,,,,,,,,,,,,,,,,,,,,,,,,,,,,,,,,,,,,,,,,,,,,,,,,,,,,,,,,,,,,,,,,,,,,,,,,,,,,,,,,,,,
,,,,,,613d091096ca434d703f77c5,62c53a914f260ff71db91f3a,2022-07-06_09h32.48.915,Colour_Asymmetry_Pilot,2022.1.3,Win32,59.95203837,62c50e9c1127f2cd403a315f,0,152,152,133,1,threefour,,,,,,,,,,,,,,,,,,,,,,,,,,,,,,,,,,,,,,,,,,,,,,,,,,,,,,,,,,,,,,,,,,,,,,,,,,,,,,,,,,,,,,,,,,,,,,,,,,,,,,,,,,,,,,,,,,,,,,,,,,,,,,,,,,,,,,,,,,,,,,,,,,,,,,,,,,,,,
,,,,,,613d091096ca434d703f77c5,62c53a914f260ff71db91f3a,2022-07-06_09h32.48.915,Colour_Asymmetry_Pilot,2022.1.3,Win32,59.95203837,62c50e9c1127f2cd403a315f,0,153,153,125,1,threefour,,,,,,,,,,,,,,,,,,,,,,,,,,,,,,,,,,,,,,,,,,,,,,,,,,,,,,,,,,,,,,,,,,,,,,,,,,,,,,,,,,,,,,,,,,,,,,,,,,,,,,,,,,,,,,,,,,,,,,,,,,,,,,,,,,,,,,,,,,,,,,,,,,,,,,,,,,,,,
,,,,,,613d091096ca434d703f77c5,62c53a914f260ff71db91f3a,2022-07-06_09h32.48.915,Colour_Asymmetry_Pilot,2022.1.3,Win32,59.95203837,62c50e9c1127f2cd403a315f,0,154,154,72,1,onetwo,,,,,,,,,,,,,,,,,,,,,,,,,,,,,,,,,,,,,,,,,,,,,,,,,,,,,,,,,,,,,,,,,,,,,,,,,,,,,,,,,,,,,,,,,,,,,,,,,,,,,,,,,,,,,,,,,,,,,,,,,,,,,,,,,,,,,,,,,,,,,,,,,,,,,,,,,,,,,
,,,,,,613d091096ca434d703f77c5,62c53a914f260ff71db91f3a,2022-07-06_09h32.48.915,Colour_Asymmetry_Pilot,2022.1.3,Win32,59.95203837,62c50e9c1127f2cd403a315f,0,155,155,141,1,threefour,,,,,,,,,,,,,,,,,,,,,,,,,,,,,,,,,,,,,,,,,,,,,,,,,,,,,,,,,,,,,,,,,,,,,,,,,,,,,,,,,,,,,,,,,,,,,,,,,,,,,,,,,,,,,,,,,,,,,,,,,,,,,,,,,,,,,,,,,,,,,,,,,,,,,,,,,,,,,
,,,,,,613d091096ca434d703f77c5,62c53a914f260ff71db91f3a,2022-07-06_09h32.48.915,Colour_Asymmetry_Pilot,2022.1.3,Win32,59.95203837,62c50e9c1127f2cd403a315f,0,156,156,121,1,onethree,,,,,,,,,,,,,,,,,,,,,,,,,,,,,,,,,,,,,,,,,,,,,,,,,,,,,,,,,,,,,,,,,,,,,,,,,,,,,,,,,,,,,,,,,,,,,,,,,,,,,,,,,,,,,,,,,,,,,,,,,,,,,,,,,,,,,,,,,,,,,,,,,,,,,,,,,,,,,
,,,,,,613d091096ca434d703f77c5,62c53a914f260ff71db91f3a,2022-07-06_09h32.48.915,Colour_Asymmetry_Pilot,2022.1.3,Win32,59.95203837,62c50e9c1127f2cd403a315f,0,157,157,40,1,onetwo,,,,,,,,,,,,,,,,,,,,,,,,,,,,,,,,,,,,,,,,,,,,,,,,,,,,,,,,,,,,,,,,,,,,,,,,,,,,,,,,,,,,,,,,,,,,,,,,,,,,,,,,,,,,,,,,,,,,,,,,,,,,,,,,,,,,,,,,,,,,,,,,,,,,,,,,,,,,,
,,,,,,613d091096ca434d703f77c5,62c53a914f260ff71db91f3a,2022-07-06_09h32.48.915,Colour_Asymmetry_Pilot,2022.1.3,Win32,59.95203837,62c50e9c1127f2cd403a315f,0,158,158,138,1,twoone,,,,,,,,,,,,,,,,,,,,,,,,,,,,,,,,,,,,,,,,,,,,,,,,,,,,,,,,,,,,,,,,,,,,,,,,,,,,,,,,,,,,,,,,,,,,,,,,,,,,,,,,,,,,,,,,,,,,,,,,,,,,,,,,,,,,,,,,,,,,,,,,,,,,,,,,,,,,,
,,,,,,613d091096ca434d703f77c5,62c53a914f260ff71db91f3a,2022-07-06_09h32.48.915,Colour_Asymmetry_Pilot,2022.1.3,Win32,59.95203837,62c50e9c1127f2cd403a315f,0,159,159,145,1,onethree,,,,,,,,,,,,,,,,,,,,,,,,,,,,,,,,,,,,,,,,,,,,,,,,,,,,,,,,,,,,,,,,,,,,,,,,,,,,,,,,,,,,,,,,,,,,,,,,,,,,,,,,,,,,,,,,,,,,,,,,,,,,,,,,,,,,,,,,,,,,,,,,,,,,,,,,,,,,,
,,,,,,613d091096ca434d703f77c5,62c53a914f260ff71db91f3a,2022-07-06_09h32.48.915,Colour_Asymmetry_Pilot,2022.1.3,Win32,59.95203837,62c50e9c1127f2cd403a315f,0,160,160,64,1,onetwo,,,,,,,,,,,,,,,,,,,,,,,,,,,,,,,,,,,,,,,,,,,,,,,,,,,,,,,,,,,,,,,,,,,,,,,,,,,,,,,,,,,,,,,,,,,,,,,,,,,,,,,,,,,,,,,,,,,,,,,,,,,,,,,,,,,,,,,,,,,,,,,,,,,,,,,,,,,,,
,,,,,,613d091096ca434d703f77c5,62c53a914f260ff71db91f3a,2022-07-06_09h32.48.915,Colour_Asymmetry_Pilot,2022.1.3,Win32,59.95203837,62c50e9c1127f2cd403a315f,0,161,161,105,1,onethree,,,,,,,,,,,,,,,,,,,,,,,,,,,,,,,,,,,,,,,,,,,,,,,,,,,,,,,,,,,,,,,,,,,,,,,,,,,,,,,,,,,,,,,,,,,,,,,,,,,,,,,,,,,,,,,,,,,,,,,,,,,,,,,,,,,,,,,,,,,,,,,,,,,,,,,,,,,,,
,,,,,,613d091096ca434d703f77c5,62c53a914f260ff71db91f3a,2022-07-06_09h32.48.915,Colour_Asymmetry_Pilot,2022.1.3,Win32,59.95203837,62c50e9c1127f2cd403a315f,,,,,,,space,4.844,space,16.904,space,20.851,space,10.054,space,7.382,space,5.251,"[0.7802,-0.23140000000000005,-0.20799999999999996]",onetwo,"[-0.17659999999999998,-0.2864,-0.8354]",-4,2.003,-50,123,1,0,0,response7disk_5,-4,-4,1,0,0,rectangle_8,-4,-4,1,0,0,1,-4,-4,1,0,0,0,0,0,0,1,,,,,,,,,,,,,,,,,,,,,,,,,,,,,,,,,,,,,,,,,,,,,,,,,,,,,,,,,,,,,,,,,,,,,,,,,,,,,,,,,,,,,,,,,,,,,,,,,,,,,,,,,,,,,,,,
,,,,,,613d091096ca434d703f77c5,62c53a914f260ff71db91f3a,2022-07-06_09h32.48.915,Colour_Asymmetry_Pilot,2022.1.3,Win32,59.95203837,62c50e9c1127f2cd403a315f,,,,,,,,,,,,,,,,,,,"[0.9686000000000001,0.3802000000000001,0.19999999999999996]",fourtwo,"[-0.10599999999999998,-0.15300000000000002,0.15280000000000005]",-4,2.068,-43,81,1,0,0,response7disk_5,2,-3,1,0,0,rectangle_8,33,-124,1,0,0,1,-4,-7,1,0,0,1,0,1,0,1,response3disk_7,4,rectangle_4,,,,,,,,,,,,,,,,,,,,,,,,,,,,,,,,,,,,,,,,,,,,,,,,,,,,,,,,,,,,,,,,,,,,,,,,,,,,,,,,,,,,,,,,,,,,,,,,,,,,,,,,,,,,,
,,,,,,613d091096ca434d703f77c5,62c53a914f260ff71db91f3a,2022-07-06_09h32.48.915,Colour_Asymmetry_Pilot,2022.1.3,Win32,59.95203837,62c50e9c1127f2cd403a315f,,,,,,,,,,,,,,,,,,,"[-0.9844,-0.9688,-0.9922]",threefour,"[-0.34920000000000007,-0.702,-0.5216]",1,2.086,45,-80,1,0,0,response3disk_5,-4,-4,1,0,0,rectangle_8,-4,-4,1,0,0,1,-4,-4,1,0,0,2,0,2,0,1,,,,,,,,,,,,,,,,,,,,,,,,,,,,,,,,,,,,,,,,,,,,,,,,,,,,,,,,,,,,,,,,,,,,,,,,,,,,,,,,,,,,,,,,,,,,,,,,,,,,,,,,,,,,,,,,
,,,,,,613d091096ca434d703f77c5,62c53a914f260ff71db91f3a,2022-07-06_09h32.48.915,Colour_Asymmetry_Pilot,2022.1.3,Win32,59.95203837,62c50e9c1127f2cd403a315f,,,,,,,,,,,,,,,,,,,"[-0.050999999999999934,-0.6706000000000001,-0.804]",fourthree,"[-0.4668,-0.8746,-0.2942]",-2,2.961,-91,-81,1,0,0,response5disk_5,-8,-9,1,0,0,rectangle_8,-8,-9,1,0,0,1,-8,-9,1,0,0,3,0,3,0,1,,,,,,,,,,,,,,,,,,,,,,,,,,,,,,,,,,,,,,,,,,,,,,,,,,,,,,,,,,,,,,,,,,,,,,,,,,,,,,,,,,,,,,,,,,,,,,,,,,,,,,,,,,,,,,,,
,,,,,,613d091096ca434d703f77c5,62c53a914f260ff71db91f3a,2022-07-06_09h32.48.915,Colour_Asymmetry_Pilot,2022.1.3,Win32,59.95203837,62c50e9c1127f2cd403a315f,,,,,,,,,,,,,,,,,,,"[0.5449999999999999,-0.31000000000000005,-0.0354000000000001]",twoone,"[-0.26280000000000003,-0.4746,-0.2158]",2,1.494,53,-36,1,0,0,response3disk_5,17,-17,1,0,0,rectangle_8,17,-17,1,0,0,1,17,-17,1,0,0,4,0,4,0,1,,,,,,,,,,,,,,,,,,,,,,,,,,,,,,,,,,,,,,,,,,,,,,,,,,,,,,,,,,,,,,,,,,,,,,,,,,,,,,,,,,,,,,,,,,,,,,,,,,,,,,,,,,,,,,,,
,,,,,,613d091096ca434d703f77c5,62c53a914f260ff71db91f3a,2022-07-06_09h32.48.915,Colour_Asymmetry_Pilot,2022.1.3,Win32,59.95203837,62c50e9c1127f2cd403a315f,,,,,,,,,,,,,,,,,,,"[0.3568,-0.20799999999999996,-0.9844]",onethree,"[0.9372,0.20779999999999998,0.2704]",-2,1.828,-50,-39,1,0,0,response5disk_5,2,-6,1,0,0,rectangle_8,42,-100,1,0,0,1,-2,-6,1,0,0,5,0,5,0,1,response3disk_7,4,rectangle_4,,,,,,,,,,,,,,,,,,,,,,,,,,,,,,,,,,,,,,,,,,,,,,,,,,,,,,,,,,,,,,,,,,,,,,,,,,,,,,,,,,,,,,,,,,,,,,,,,,,,,,,,,,,,,
,,,,,,613d091096ca434d703f77c5,62c53a914f260ff71db91f3a,2022-07-06_09h32.48.915,Colour_Asymmetry_Pilot,2022.1.3,Win32,59.95203837,62c50e9c1127f2cd403a315f,,,,,,,,,,,,,,,,,,,"[0.23920000000000008,0.2704,0.16060000000000008]",twofour,"[-0.9216,-0.5529999999999999,-0.3962]",3,1.644,57,32,1,0,0,response1disk_5,0,-14,1,0,0,rectangle_8,0,-14,1,0,0,1,0,-14,1,0,0,6,0,6,0,1,,,,,,,,,,,,,,,,,,,,,,,,,,,,,,,,,,,,,,,,,,,,,,,,,,,,,,,,,,,,,,,,,,,,,,,,,,,,,,,,,,,,,,,,,,,,,,,,,,,,,,,,,,,,,,,,
,,,,,,613d091096ca434d703f77c5,62c53a914f260ff71db91f3a,2022-07-06_09h32.48.915,Colour_Asymmetry_Pilot,2022.1.3,Win32,59.95203837,62c50e9c1127f2cd403a315f,,,,,,,,,,,,,,,,,,,,twofour,,-4,0.918,,,,,,,,,,,,,,,,,,,,,,,,,,,,,,,,space,4.236,"[-0.011800000000000033,-0.906,-0.45100000000000007]","[-0.4746,-0.0354000000000001,0.5449999999999999]",-59,75,1,0,0,response7disk,-7,2,1,0,0,rectangle,-7,2,1,0,0,,3,0.008,0,-7,2,1,0,0,0,0,0,69,1,69,first,,,,,,,,,,,,,,,,,,,,,,,,,,,,,,,,,,,,,,,,,,,,,,,,,,,,,,,,,,,,,,,,,,,,,,,,
,,,,,,613d091096ca434d703f77c5,62c53a914f260ff71db91f3a,2022-07-06_09h32.48.915,Colour_Asymmetry_Pilot,2022.1.3,Win32,59.95203837,62c50e9c1127f2cd403a315f,,,,,,,,,,,,,,,,,,,,threeone,,-1,1.362,,,,,,,,,,,,,,,,,,,,,,,,,,,,,,,,,,"[0.9842,0.7409999999999999,-0.6628000000000001]","[0.3881999999999999,-0.23939999999999995,-0.05040000000000011]",-48,-73,1,0,0,response5disk,-8,-10,1,0,0,rectangle,-8,-10,1,0,0,,3,0.001,0,-8,-10,1,0,0,0,1,1,110,1,29,second,,,,,,,,,,,,,,,,,,,,,,,,,,,,,,,,,,,,,,,,,,,,,,,,,,,,,,,,,,,,,,,,,,,,,,,,
,,,,,,613d091096ca434d703f77c5,62c53a914f260ff71db91f3a,2022-07-06_09h32.48.915,Colour_Asymmetry_Pilot,2022.1.3,Win32,59.95203837,62c50e9c1127f2cd403a315f,,,,,,,,,,,,,,,,,,,,fourthree,,2,0.918,,,,,,,,,,,,,,,,,,,,,,,,,,,,,,,,,,"[-0.9216,-0.5529999999999999,-0.3962]","[0.04299999999999993,0.16060000000000008,-0.6628000000000001]",79,-54,1,0,0,response3disk,6,-11,1,0,0,rectangle,6,-11,1,0,0,,1,0.002,0,6,-11,1,0,0,0,2,2,113,1,32,second,,,,,,,,,,,,,,,,,,,,,,,,,,,,,,,,,,,,,,,,,,,,,,,,,,,,,,,,,,,,,,,,,,,,,,,,
,,,,,,613d091096ca434d703f77c5,62c53a914f260ff71db91f3a,2022-07-06_09h32.48.915,Colour_Asymmetry_Pilot,2022.1.3,Win32,59.95203837,62c50e9c1127f2cd403a315f,,,,,,,,,,,,,,,,,,,,twofour,,-2,0.731,,,,,,,,,,,,,,,,,,,,,,,,,,,,,,,,,,"[-0.4668,-0.8746,-0.2942]","[0.7802,-0.23140000000000005,-0.20799999999999996]",-66,-30,1,0,0,response5disk,-9,-1,1,0,0,rectangle,-9,-1,1,0,0,,1,0,0,-9,-1,1,0,0,0,3,3,143,1,62,second,,,,,,,,,,,,,,,,,,,,,,,,,,,,,,,,,,,,,,,,,,,,,,,,,,,,,,,,,,,,,,,,,,,,,,,,
,,,,,,613d091096ca434d703f77c5,62c53a914f260ff71db91f3a,2022-07-06_09h32.48.915,Colour_Asymmetry_Pilot,2022.1.3,Win32,59.95203837,62c50e9c1127f2cd403a315f,,,,,,,,,,,,,,,,,,,,onetwo,,-2,1.11,,,,,,,,,,,,,,,,,,,,,,,,,,,,,,,,,,"[-0.2942,-0.7648,-0.7492000000000001]","[-0.26280000000000003,-0.2158,-0.3256]",-62,-25,1,0,0,response5disk,0,-7,1,0,0,rectangle,0,-7,1,0,0,,2,0.002,0,0,-7,1,0,0,0,4,4,115,1,34,second,,,,,,,,,,,,,,,,,,,,,,,,,,,,,,,,,,,,,,,,,,,,,,,,,,,,,,,,,,,,,,,,,,,,,,,,
,,,,,,613d091096ca434d703f77c5,62c53a914f260ff71db91f3a,2022-07-06_09h32.48.915,Colour_Asymmetry_Pilot,2022.1.3,Win32,59.95203837,62c50e9c1127f2cd403a315f,,,,,,,,,,,,,,,,,,,,threeone,,-4,0.709,,,,,,,,,,,,,,,,,,,,,,,,,,,,,,,,,,"[-0.9688,-0.7412000000000001,-0.4902000000000001]","[-0.17659999999999998,-0.2864,-0.8354]",-50,86,1,0,0,response7disk,-3,-6,1,0,0,rectangle,-3,-6,1,0,0,,2,0.001,0,-3,-6,1,0,0,0,5,5,127,1,46,second,,,,,,,,,,,,,,,,,,,,,,,,,,,,,,,,,,,,,,,,,,,,,,,,,,,,,,,,,,,,,,,,,,,,,,,,
,,,,,,613d091096ca434d703f77c5,62c53a914f260ff71db91f3a,2022-07-06_09h32.48.915,Colour_Asymmetry_Pilot,2022.1.3,Win32,59.95203837,62c50e9c1127f2cd403a315f,,,,,,,,,,,,,,,,,,,,onethree,,3,0.936,,,,,,,,,,,,,,,,,,,,,,,,,,,,,,,,,,"[-0.24719999999999998,-0.0354000000000001,0.3175999999999999]","[-0.4746,-0.0354000000000001,0.5449999999999999]",82,34,1,0,0,response1disk,7,0,1,0,0,rectangle,7,0,1,0,0,,3,0.002,0,7,0,1,0,0,0,6,6,6,1,6,first,,,,,,,,,,,,,,,,,,,,,,,,,,,,,,,,,,,,,,,,,,,,,,,,,,,,,,,,,,,,,,,,,,,,,,,,
,,,,,,613d091096ca434d703f77c5,62c53a914f260ff71db91f3a,2022-07-06_09h32.48.915,Colour_Asymmetry_Pilot,2022.1.3,Win32,59.95203837,62c50e9c1127f2cd403a315f,,,,,,,,,,,,,,,,,,,,twoone,,-2,0.801,,,,,,,,,,,,,,,,,,,,,,,,,,,,,,,,,,"[-0.06680000000000008,-0.45100000000000007,-0.906]","[0.6547999999999998,-0.043199999999999905,-0.011800000000000033]",-54,-32,1,0,0,response5disk,-1,2,1,0,0,rectangle,-1,2,1,0,0,,2,0.001,0,-1,2,1,0,0,0,7,7,101,1,20,second,,,,,,,,,,,,,,,,,,,,,,,,,,,,,,,,,,,,,,,,,,,,,,,,,,,,,,,,,,,,,,,,,,,,,,,,
,,,,,,613d091096ca434d703f77c5,62c53a914f260ff71db91f3a,2022-07-06_09h32.48.915,Colour_Asymmetry_Pilot,2022.1.3,Win32,59.95203837,62c50e9c1127f2cd403a315f,,,,,,,,,,,,,,,,,,,,threeone,,-4,0.936,,,,,,,,,,,,,,,,,,,,,,,,,,,,,,,,,,"[-0.26280000000000003,-0.4746,-0.2158]","[-0.09019999999999995,0.44300000000000006,0.5371999999999999]",-48,93,1,0,0,response7disk,-19,7,1,0,0,rectangle,-19,7,1,0,0,,3,0.001,0,-19,7,1,0,0,0,8,8,154,1,73,second,,,,,,,,,,,,,,,,,,,,,,,,,,,,,,,,,,,,,,,,,,,,,,,,,,,,,,,,,,,,,,,,,,,,,,,,
,,,,,,613d091096ca434d703f77c5,62c53a914f260ff71db91f3a,2022-07-06_09h32.48.915,Colour_Asymmetry_Pilot,2022.1.3,Win32,59.95203837,62c50e9c1127f2cd403a315f,,,,,,,,,,,,,,,,,,,,fourtwo,,2,1.27,,,,,,,,,,,,,,,,,,,,,,,,,,,,,,,,,,"[-0.01980000000000004,-0.5138,-0.38039999999999996]","[-0.20799999999999996,-0.655,-0.01980000000000004]",94,-43,1,0,0,response3disk,8,-5,1,0,0,rectangle,8,-5,1,0,0,,3,0,0,8,-5,1,0,0,0,9,9,135,1,54,second,,,,,,,,,,,,,,,,,,,,,,,,,,,,,,,,,,,,,,,,,,,,,,,,,,,,,,,,,,,,,,,,,,,,,,,,
,,,,,,613d091096ca434d703f77c5,62c53a914f260ff71db91f3a,2022-07-06_09h32.48.915,Colour_Asymmetry_Pilot,2022.1.3,Win32,59.95203837,62c50e9c1127f2cd403a315f,,,,,,,,,,,,,,,,,,,,onetwo,,-1,0.895,,,,,,,,,,,,,,,,,,,,,,,,,,,,,,,,,,"[0.8115999999999999,-0.0040000000000000036,-0.09819999999999995]","[0.9842,0.7409999999999999,-0.6628000000000001]",-31,-88,1,0,0,response5disk,-5,-5,1,0,0,rectangle,-5,-5,1,0,0,,1,0.004,0,-5,-5,1,0,0,0,10,10,70,1,70,first,,,,,,,,,,,,,,,,,,,,,,,,,,,,,,,,,,,,,,,,,,,,,,,,,,,,,,,,,,,,,,,,,,,,,,,,
,,,,,,613d091096ca434d703f77c5,62c53a914f260ff71db91f3a,2022-07-06_09h32.48.915,Colour_Asymmetry_Pilot,2022.1.3,Win32,59.95203837,62c50e9c1127f2cd403a315f,,,,,,,,,,,,,,,,,,,,threefour,,-4,0.733,,,,,,,,,,,,,,,,,,,,,,,,,,,,,,,,,,"[0.7176,-0.906,-0.6864]","[0.9763999999999999,0.8588,-0.05900000000000005]",-53,77,1,0,0,response7disk,-8,-1,1,0,0,rectangle,-8,-1,1,0,0,,1,0,0,-8,-1,1,0,0,0,11,11,77,1,77,first,,,,,,,,,,,,,,,,,,,,,,,,,,,,,,,,,,,,,,,,,,,,,,,,,,,,,,,,,,,,,,,,,,,,,,,,
,,,,,,613d091096ca434d703f77c5,62c53a914f260ff71db91f3a,2022-07-06_09h32.48.915,Colour_Asymmetry_Pilot,2022.1.3,Win32,59.95203837,62c50e9c1127f2cd403a315f,,,,,,,,,,,,,,,,,,,,threefour,,-4,0.512,,,,,,,,,,,,,,,,,,,,,,,,,,,,,,,,,,"[-0.9138,-0.5296000000000001,-0.5529999999999999]","[-0.01980000000000004,-0.5138,-0.38039999999999996]",-53,70,1,0,0,response7disk,0,0,1,0,0,rectangle,0,0,1,0,0,,2,0.001,0,0,0,1,0,0,0,12,12,92,1,11,second,,,,,,,,,,,,,,,,,,,,,,,,,,,,,,,,,,,,,,,,,,,,,,,,,,,,,,,,,,,,,,,,,,,,,,,,
,,,,,,613d091096ca434d703f77c5,62c53a914f260ff71db91f3a,2022-07-06_09h32.48.915,Colour_Asymmetry_Pilot,2022.1.3,Win32,59.95203837,62c50e9c1127f2cd403a315f,,,,,,,,,,,,,,,,,,,,threefour,,-3,0.868,,,,,,,,,,,,,,,,,,,,,,,,,,,,,,,,,,"[-0.26280000000000003,-0.2158,-0.3256]","[-0.050999999999999934,-0.6706000000000001,-0.804]",-91,49,1,0,0,response7disk,1,7,1,0,0,rectangle,1,7,1,0,0,,3,0.001,0,1,7,1,0,0,0,13,13,16,1,16,first,,,,,,,,,,,,,,,,,,,,,,,,,,,,,,,,,,,,,,,,,,,,,,,,,,,,,,,,,,,,,,,,,,,,,,,,
,,,,,,613d091096ca434d703f77c5,62c53a914f260ff71db91f3a,2022-07-06_09h32.48.915,Colour_Asymmetry_Pilot,2022.1.3,Win32,59.95203837,62c50e9c1127f2cd403a315f,,,,,,,,,,,,,,,,,,,,twoone,,-4,0.442,,,,,,,,,,,,,,,,,,,,,,,,,,,,,,,,,,"[0.9372,0.9450000000000001,0.8980000000000001]","[-0.4668,-0.8746,-0.2942]",-48,94,1,0,0,response7disk,-1,-4,1,0,0,rectangle,-1,-4,1,0,0,,2,0.001,0,-1,-4,1,0,0,0,14,14,21,1,21,first,,,,,,,,,,,,,,,,,,,,,,,,,,,,,,,,,,,,,,,,,,,,,,,,,,,,,,,,,,,,,,,,,,,,,,,,
,,,,,,613d091096ca434d703f77c5,62c53a914f260ff71db91f3a,2022-07-06_09h32.48.915,Colour_Asymmetry_Pilot,2022.1.3,Win32,59.95203837,62c50e9c1127f2cd403a315f,,,,,,,,,,,,,,,,,,,,twofour,,-3,1.485,,,,,,,,,,,,,,,,,,,,,,,,,,,,,,,,,,"[-0.34920000000000007,-0.702,-0.5216]","[0.7176,-0.906,-0.6864]",-79,45,1,0,0,response7disk,-1,0,1,0,0,rectangle,-1,0,1,0,0,,3,0.001,0,-1,0,1,0,0,0,15,15,94,1,13,second,,,,,,,,,,,,,,,,,,,,,,,,,,,,,,,,,,,,,,,,,,,,,,,,,,,,,,,,,,,,,,,,,,,,,,,,
,,,,,,613d091096ca434d703f77c5,62c53a914f260ff71db91f3a,2022-07-06_09h32.48.915,Colour_Asymmetry_Pilot,2022.1.3,Win32,59.95203837,62c50e9c1127f2cd403a315f,,,,,,,,,,,,,,,,,,,,fourthree,,2,1.11,,,,,,,,,,,,,,,,,,,,,,,,,,,,,,,,,,"[-0.7412000000000001,-0.08239999999999992,-0.6864]","[0.2862,0.7802,0.3568]",81,-34,1,0,0,response3disk,0,5,1,0,0,rectangle,0,5,1,0,0,,3,0,0,0,5,1,0,0,0,16,16,156,1,75,second,,,,,,,,,,,,,,,,,,,,,,,,,,,,,,,,,,,,,,,,,,,,,,,,,,,,,,,,,,,,,,,,,,,,,,,,
,,,,,,613d091096ca434d703f77c5,62c53a914f260ff71db91f3a,2022-07-06_09h32.48.915,Colour_Asymmetry_Pilot,2022.1.3,Win32,59.95203837,62c50e9c1127f2cd403a315f,,,,,,,,,,,,,,,,,,,,fourthree,,4,0.484,,,,,,,,,,,,,,,,,,,,,,,,,,,,,,,,,,"[0.9372,0.9450000000000001,0.8980000000000001]","[0.4196,0.4665999999999999,0.3568]",49,83,1,0,0,response1disk,-2,2,1,0,0,rectangle,-2,2,1,0,0,,2,0.002,0,-2,2,1,0,0,0,17,17,88,1,7,second,,,,,,,,,,,,,,,,,,,,,,,,,,,,,,,,,,,,,,,,,,,,,,,,,,,,,,,,,,,,,,,,,,,,,,,,
