trials.thisRepN,trials.thisTrialN,trials.thisN,trials.thisIndex,trials.ran,Colourcodes,participant,session,date,expName,psychopyVersion,OS,frameRate,study_id,trials_4.thisRepN,trials_4.thisTrialN,trials_4.thisN,trials_4.thisIndex,trials_4.ran,StimulusPos,key_resp.keys,key_resp.rt,key_resp_2.keys,key_resp_2.rt,key_resp_15.keys,key_resp_15.rt,key_resp_17.keys,key_resp_17.rt,key_resp_9.keys,key_resp_9.rt,key_resp_10.keys,key_resp_10.rt,Circle1_col,Ecc,Circle2_col,similarity,response_time,mouse_5.x,mouse_5.y,mouse_5.leftButton,mouse_5.midButton,mouse_5.rightButton,mouse_5.clicked_name,mouse_10.x,mouse_10.y,mouse_10.leftButton,mouse_10.midButton,mouse_10.rightButton,mouse_10.clicked_name,mouse_7.x,mouse_7.y,mouse_7.leftButton,mouse_7.midButton,mouse_7.rightButton,catchnumberprac,mouse_6.x,mouse_6.y,mouse_6.leftButton,mouse_6.midButton,mouse_6.rightButton,duringprac.thisRepN,duringprac.thisTrialN,duringprac.thisN,duringprac.thisIndex,duringprac.ran,mouse_7.clicked_name,catchprac,mouse_6.clicked_name,key_resp_22.keys,key_resp_22.rt,Circle1_colour,Circle2_colour,mouse.x,mouse.y,mouse.leftButton,mouse.midButton,mouse.rightButton,mouse.clicked_name,mouse_2.x,mouse_2.y,mouse_2.leftButton,mouse_2.midButton,mouse_2.rightButton,mouse_2.clicked_name,mouse_3.x,mouse_3.y,mouse_3.leftButton,mouse_3.midButton,mouse_3.rightButton,catchresponse,catchnumber,response_time_catch,Catch,mouse_11.x,mouse_11.y,mouse_11.leftButton,mouse_11.midButton,mouse_11.rightButton,trials_2.thisRepN,trials_2.thisTrialN,trials_2.thisN,trials_2.thisIndex,trials_2.ran,Colourpair,Temporder,mouse_3.clicked_name,mouse_11.clicked_name,trials_3.thisRepN,trials_3.thisTrialN,trials_3.thisN,trials_3.thisIndex,trials_3.ran,key_resp_instr_Ishi.keys,key_resp_instr_Ishi.rt,Ishi_trial_keyresp.keys,Ishi_textbox.text,Ishi_mouse.x,Ishi_mouse.y,Ishi_mouse.leftButton,Ishi_mouse.midButton,Ishi_mouse.rightButton,Ishi_mouse.clicked_name,Ishi_loop.thisRepN,Ishi_loop.thisTrialN,Ishi_loop.thisN,Ishi_loop.thisIndex,Ishi_loop.ran,imageaddress,textbox.text,mouse_4.x,mouse_4.y,mouse_4.leftButton,mouse_4.midButton,mouse_4.rightButton,mouse_4.clicked_name,textbox_2.text,mouse_8.x,mouse_8.y,mouse_8.leftButton,mouse_8.midButton,mouse_8.rightButton,mouse_8.clicked_name,textbox_3.text,mouse_9.x,mouse_9.y,mouse_9.leftButton,mouse_9.midButton,mouse_9.rightButton,mouse_9.clicked_name,textbox_4.text,mouse_12.x,mouse_12.y,mouse_12.leftButton,mouse_12.midButton,mouse_12.rightButton,mouse_12.clicked_name,textbox_5.text,mouse_13.x,mouse_13.y,mouse_13.leftButton,mouse_13.midButton,mouse_13.rightButton,mouse_13.clicked_name,textbox_6.text,mouse_14.x,mouse_14.y,mouse_14.leftButton,mouse_14.midButton,mouse_14.rightButton,mouse_14.clicked_name,textbox_7.text,mouse_15.x,mouse_15.y,mouse_15.leftButton,mouse_15.midButton,mouse_15.rightButton,mouse_15.clicked_name
0,0,0,47,1,,5f8eeed471a1830af422d7a1,62c5391fe83053fd22c814b7,2022-07-06_08h27.15.247,Colour_Asymmetry_Pilot,2022.1.3,Win32,60.51437216,62c50e9c1127f2cd403a315f,,,,,,,,,,,,,,,,,,,,,,,,,,,,,,,,,,,,,,,,,,,,,,,,,,,,,,,,,,,,,,,,,,,,,,,,,,,,,,,,,,,,,,,,,,,,,,,,,,,,,,,,,,,,,,,,,,,,,,,,,,,,,,,,,,,,,,,,,,,,,,,,,,,,,,,,,,,,,,,,,,,
0,1,1,57,1,,5f8eeed471a1830af422d7a1,62c5391fe83053fd22c814b7,2022-07-06_08h27.15.247,Colour_Asymmetry_Pilot,2022.1.3,Win32,60.51437216,62c50e9c1127f2cd403a315f,,,,,,,,,,,,,,,,,,,,,,,,,,,,,,,,,,,,,,,,,,,,,,,,,,,,,,,,,,,,,,,,,,,,,,,,,,,,,,,,,,,,,,,,,,,,,,,,,,,,,,,,,,,,,,,,,,,,,,,,,,,,,,,,,,,,,,,,,,,,,,,,,,,,,,,,,,,,,,,,,,,
0,2,2,26,1,,5f8eeed471a1830af422d7a1,62c5391fe83053fd22c814b7,2022-07-06_08h27.15.247,Colour_Asymmetry_Pilot,2022.1.3,Win32,60.51437216,62c50e9c1127f2cd403a315f,,,,,,,,,,,,,,,,,,,,,,,,,,,,,,,,,,,,,,,,,,,,,,,,,,,,,,,,,,,,,,,,,,,,,,,,,,,,,,,,,,,,,,,,,,,,,,,,,,,,,,,,,,,,,,,,,,,,,,,,,,,,,,,,,,,,,,,,,,,,,,,,,,,,,,,,,,,,,,,,,,,
0,3,3,32,1,,5f8eeed471a1830af422d7a1,62c5391fe83053fd22c814b7,2022-07-06_08h27.15.247,Colour_Asymmetry_Pilot,2022.1.3,Win32,60.51437216,62c50e9c1127f2cd403a315f,,,,,,,,,,,,,,,,,,,,,,,,,,,,,,,,,,,,,,,,,,,,,,,,,,,,,,,,,,,,,,,,,,,,,,,,,,,,,,,,,,,,,,,,,,,,,,,,,,,,,,,,,,,,,,,,,,,,,,,,,,,,,,,,,,,,,,,,,,,,,,,,,,,,,,,,,,,,,,,,,,,
0,4,4,70,1,,5f8eeed471a1830af422d7a1,62c5391fe83053fd22c814b7,2022-07-06_08h27.15.247,Colour_Asymmetry_Pilot,2022.1.3,Win32,60.51437216,62c50e9c1127f2cd403a315f,,,,,,,,,,,,,,,,,,,,,,,,,,,,,,,,,,,,,,,,,,,,,,,,,,,,,,,,,,,,,,,,,,,,,,,,,,,,,,,,,,,,,,,,,,,,,,,,,,,,,,,,,,,,,,,,,,,,,,,,,,,,,,,,,,,,,,,,,,,,,,,,,,,,,,,,,,,,,,,,,,,
0,5,5,63,1,,5f8eeed471a1830af422d7a1,62c5391fe83053fd22c814b7,2022-07-06_08h27.15.247,Colour_Asymmetry_Pilot,2022.1.3,Win32,60.51437216,62c50e9c1127f2cd403a315f,,,,,,,,,,,,,,,,,,,,,,,,,,,,,,,,,,,,,,,,,,,,,,,,,,,,,,,,,,,,,,,,,,,,,,,,,,,,,,,,,,,,,,,,,,,,,,,,,,,,,,,,,,,,,,,,,,,,,,,,,,,,,,,,,,,,,,,,,,,,,,,,,,,,,,,,,,,,,,,,,,,
0,6,6,18,1,,5f8eeed471a1830af422d7a1,62c5391fe83053fd22c814b7,2022-07-06_08h27.15.247,Colour_Asymmetry_Pilot,2022.1.3,Win32,60.51437216,62c50e9c1127f2cd403a315f,,,,,,,,,,,,,,,,,,,,,,,,,,,,,,,,,,,,,,,,,,,,,,,,,,,,,,,,,,,,,,,,,,,,,,,,,,,,,,,,,,,,,,,,,,,,,,,,,,,,,,,,,,,,,,,,,,,,,,,,,,,,,,,,,,,,,,,,,,,,,,,,,,,,,,,,,,,,,,,,,,,
0,7,7,58,1,,5f8eeed471a1830af422d7a1,62c5391fe83053fd22c814b7,2022-07-06_08h27.15.247,Colour_Asymmetry_Pilot,2022.1.3,Win32,60.51437216,62c50e9c1127f2cd403a315f,,,,,,,,,,,,,,,,,,,,,,,,,,,,,,,,,,,,,,,,,,,,,,,,,,,,,,,,,,,,,,,,,,,,,,,,,,,,,,,,,,,,,,,,,,,,,,,,,,,,,,,,,,,,,,,,,,,,,,,,,,,,,,,,,,,,,,,,,,,,,,,,,,,,,,,,,,,,,,,,,,,
0,8,8,84,1,,5f8eeed471a1830af422d7a1,62c5391fe83053fd22c814b7,2022-07-06_08h27.15.247,Colour_Asymmetry_Pilot,2022.1.3,Win32,60.51437216,62c50e9c1127f2cd403a315f,,,,,,,,,,,,,,,,,,,,,,,,,,,,,,,,,,,,,,,,,,,,,,,,,,,,,,,,,,,,,,,,,,,,,,,,,,,,,,,,,,,,,,,,,,,,,,,,,,,,,,,,,,,,,,,,,,,,,,,,,,,,,,,,,,,,,,,,,,,,,,,,,,,,,,,,,,,,,,,,,,,
0,9,9,79,1,,5f8eeed471a1830af422d7a1,62c5391fe83053fd22c814b7,2022-07-06_08h27.15.247,Colour_Asymmetry_Pilot,2022.1.3,Win32,60.51437216,62c50e9c1127f2cd403a315f,,,,,,,,,,,,,,,,,,,,,,,,,,,,,,,,,,,,,,,,,,,,,,,,,,,,,,,,,,,,,,,,,,,,,,,,,,,,,,,,,,,,,,,,,,,,,,,,,,,,,,,,,,,,,,,,,,,,,,,,,,,,,,,,,,,,,,,,,,,,,,,,,,,,,,,,,,,,,,,,,,,
0,10,10,27,1,,5f8eeed471a1830af422d7a1,62c5391fe83053fd22c814b7,2022-07-06_08h27.15.247,Colour_Asymmetry_Pilot,2022.1.3,Win32,60.51437216,62c50e9c1127f2cd403a315f,,,,,,,,,,,,,,,,,,,,,,,,,,,,,,,,,,,,,,,,,,,,,,,,,,,,,,,,,,,,,,,,,,,,,,,,,,,,,,,,,,,,,,,,,,,,,,,,,,,,,,,,,,,,,,,,,,,,,,,,,,,,,,,,,,,,,,,,,,,,,,,,,,,,,,,,,,,,,,,,,,,
0,11,11,20,1,,5f8eeed471a1830af422d7a1,62c5391fe83053fd22c814b7,2022-07-06_08h27.15.247,Colour_Asymmetry_Pilot,2022.1.3,Win32,60.51437216,62c50e9c1127f2cd403a315f,,,,,,,,,,,,,,,,,,,,,,,,,,,,,,,,,,,,,,,,,,,,,,,,,,,,,,,,,,,,,,,,,,,,,,,,,,,,,,,,,,,,,,,,,,,,,,,,,,,,,,,,,,,,,,,,,,,,,,,,,,,,,,,,,,,,,,,,,,,,,,,,,,,,,,,,,,,,,,,,,,,
0,12,12,82,1,,5f8eeed471a1830af422d7a1,62c5391fe83053fd22c814b7,2022-07-06_08h27.15.247,Colour_Asymmetry_Pilot,2022.1.3,Win32,60.51437216,62c50e9c1127f2cd403a315f,,,,,,,,,,,,,,,,,,,,,,,,,,,,,,,,,,,,,,,,,,,,,,,,,,,,,,,,,,,,,,,,,,,,,,,,,,,,,,,,,,,,,,,,,,,,,,,,,,,,,,,,,,,,,,,,,,,,,,,,,,,,,,,,,,,,,,,,,,,,,,,,,,,,,,,,,,,,,,,,,,,
0,13,13,45,1,,5f8eeed471a1830af422d7a1,62c5391fe83053fd22c814b7,2022-07-06_08h27.15.247,Colour_Asymmetry_Pilot,2022.1.3,Win32,60.51437216,62c50e9c1127f2cd403a315f,,,,,,,,,,,,,,,,,,,,,,,,,,,,,,,,,,,,,,,,,,,,,,,,,,,,,,,,,,,,,,,,,,,,,,,,,,,,,,,,,,,,,,,,,,,,,,,,,,,,,,,,,,,,,,,,,,,,,,,,,,,,,,,,,,,,,,,,,,,,,,,,,,,,,,,,,,,,,,,,,,,
0,14,14,43,1,,5f8eeed471a1830af422d7a1,62c5391fe83053fd22c814b7,2022-07-06_08h27.15.247,Colour_Asymmetry_Pilot,2022.1.3,Win32,60.51437216,62c50e9c1127f2cd403a315f,,,,,,,,,,,,,,,,,,,,,,,,,,,,,,,,,,,,,,,,,,,,,,,,,,,,,,,,,,,,,,,,,,,,,,,,,,,,,,,,,,,,,,,,,,,,,,,,,,,,,,,,,,,,,,,,,,,,,,,,,,,,,,,,,,,,,,,,,,,,,,,,,,,,,,,,,,,,,,,,,,,
0,15,15,72,1,,5f8eeed471a1830af422d7a1,62c5391fe83053fd22c814b7,2022-07-06_08h27.15.247,Colour_Asymmetry_Pilot,2022.1.3,Win32,60.51437216,62c50e9c1127f2cd403a315f,,,,,,,,,,,,,,,,,,,,,,,,,,,,,,,,,,,,,,,,,,,,,,,,,,,,,,,,,,,,,,,,,,,,,,,,,,,,,,,,,,,,,,,,,,,,,,,,,,,,,,,,,,,,,,,,,,,,,,,,,,,,,,,,,,,,,,,,,,,,,,,,,,,,,,,,,,,,,,,,,,,
0,16,16,68,1,,5f8eeed471a1830af422d7a1,62c5391fe83053fd22c814b7,2022-07-06_08h27.15.247,Colour_Asymmetry_Pilot,2022.1.3,Win32,60.51437216,62c50e9c1127f2cd403a315f,,,,,,,,,,,,,,,,,,,,,,,,,,,,,,,,,,,,,,,,,,,,,,,,,,,,,,,,,,,,,,,,,,,,,,,,,,,,,,,,,,,,,,,,,,,,,,,,,,,,,,,,,,,,,,,,,,,,,,,,,,,,,,,,,,,,,,,,,,,,,,,,,,,,,,,,,,,,,,,,,,,
0,17,17,69,1,,5f8eeed471a1830af422d7a1,62c5391fe83053fd22c814b7,2022-07-06_08h27.15.247,Colour_Asymmetry_Pilot,2022.1.3,Win32,60.51437216,62c50e9c1127f2cd403a315f,,,,,,,,,,,,,,,,,,,,,,,,,,,,,,,,,,,,,,,,,,,,,,,,,,,,,,,,,,,,,,,,,,,,,,,,,,,,,,,,,,,,,,,,,,,,,,,,,,,,,,,,,,,,,,,,,,,,,,,,,,,,,,,,,,,,,,,,,,,,,,,,,,,,,,,,,,,,,,,,,,,
0,18,18,13,1,,5f8eeed471a1830af422d7a1,62c5391fe83053fd22c814b7,2022-07-06_08h27.15.247,Colour_Asymmetry_Pilot,2022.1.3,Win32,60.51437216,62c50e9c1127f2cd403a315f,,,,,,,,,,,,,,,,,,,,,,,,,,,,,,,,,,,,,,,,,,,,,,,,,,,,,,,,,,,,,,,,,,,,,,,,,,,,,,,,,,,,,,,,,,,,,,,,,,,,,,,,,,,,,,,,,,,,,,,,,,,,,,,,,,,,,,,,,,,,,,,,,,,,,,,,,,,,,,,,,,,
0,19,19,0,1,,5f8eeed471a1830af422d7a1,62c5391fe83053fd22c814b7,2022-07-06_08h27.15.247,Colour_Asymmetry_Pilot,2022.1.3,Win32,60.51437216,62c50e9c1127f2cd403a315f,,,,,,,,,,,,,,,,,,,,,,,,,,,,,,,,,,,,,,,,,,,,,,,,,,,,,,,,,,,,,,,,,,,,,,,,,,,,,,,,,,,,,,,,,,,,,,,,,,,,,,,,,,,,,,,,,,,,,,,,,,,,,,,,,,,,,,,,,,,,,,,,,,,,,,,,,,,,,,,,,,,
0,20,20,24,1,,5f8eeed471a1830af422d7a1,62c5391fe83053fd22c814b7,2022-07-06_08h27.15.247,Colour_Asymmetry_Pilot,2022.1.3,Win32,60.51437216,62c50e9c1127f2cd403a315f,,,,,,,,,,,,,,,,,,,,,,,,,,,,,,,,,,,,,,,,,,,,,,,,,,,,,,,,,,,,,,,,,,,,,,,,,,,,,,,,,,,,,,,,,,,,,,,,,,,,,,,,,,,,,,,,,,,,,,,,,,,,,,,,,,,,,,,,,,,,,,,,,,,,,,,,,,,,,,,,,,,
0,21,21,87,1,,5f8eeed471a1830af422d7a1,62c5391fe83053fd22c814b7,2022-07-06_08h27.15.247,Colour_Asymmetry_Pilot,2022.1.3,Win32,60.51437216,62c50e9c1127f2cd403a315f,,,,,,,,,,,,,,,,,,,,,,,,,,,,,,,,,,,,,,,,,,,,,,,,,,,,,,,,,,,,,,,,,,,,,,,,,,,,,,,,,,,,,,,,,,,,,,,,,,,,,,,,,,,,,,,,,,,,,,,,,,,,,,,,,,,,,,,,,,,,,,,,,,,,,,,,,,,,,,,,,,,
0,22,22,80,1,,5f8eeed471a1830af422d7a1,62c5391fe83053fd22c814b7,2022-07-06_08h27.15.247,Colour_Asymmetry_Pilot,2022.1.3,Win32,60.51437216,62c50e9c1127f2cd403a315f,,,,,,,,,,,,,,,,,,,,,,,,,,,,,,,,,,,,,,,,,,,,,,,,,,,,,,,,,,,,,,,,,,,,,,,,,,,,,,,,,,,,,,,,,,,,,,,,,,,,,,,,,,,,,,,,,,,,,,,,,,,,,,,,,,,,,,,,,,,,,,,,,,,,,,,,,,,,,,,,,,,
0,23,23,46,1,,5f8eeed471a1830af422d7a1,62c5391fe83053fd22c814b7,2022-07-06_08h27.15.247,Colour_Asymmetry_Pilot,2022.1.3,Win32,60.51437216,62c50e9c1127f2cd403a315f,,,,,,,,,,,,,,,,,,,,,,,,,,,,,,,,,,,,,,,,,,,,,,,,,,,,,,,,,,,,,,,,,,,,,,,,,,,,,,,,,,,,,,,,,,,,,,,,,,,,,,,,,,,,,,,,,,,,,,,,,,,,,,,,,,,,,,,,,,,,,,,,,,,,,,,,,,,,,,,,,,,
0,24,24,15,1,,5f8eeed471a1830af422d7a1,62c5391fe83053fd22c814b7,2022-07-06_08h27.15.247,Colour_Asymmetry_Pilot,2022.1.3,Win32,60.51437216,62c50e9c1127f2cd403a315f,,,,,,,,,,,,,,,,,,,,,,,,,,,,,,,,,,,,,,,,,,,,,,,,,,,,,,,,,,,,,,,,,,,,,,,,,,,,,,,,,,,,,,,,,,,,,,,,,,,,,,,,,,,,,,,,,,,,,,,,,,,,,,,,,,,,,,,,,,,,,,,,,,,,,,,,,,,,,,,,,,,
0,25,25,5,1,,5f8eeed471a1830af422d7a1,62c5391fe83053fd22c814b7,2022-07-06_08h27.15.247,Colour_Asymmetry_Pilot,2022.1.3,Win32,60.51437216,62c50e9c1127f2cd403a315f,,,,,,,,,,,,,,,,,,,,,,,,,,,,,,,,,,,,,,,,,,,,,,,,,,,,,,,,,,,,,,,,,,,,,,,,,,,,,,,,,,,,,,,,,,,,,,,,,,,,,,,,,,,,,,,,,,,,,,,,,,,,,,,,,,,,,,,,,,,,,,,,,,,,,,,,,,,,,,,,,,,
0,26,26,75,1,,5f8eeed471a1830af422d7a1,62c5391fe83053fd22c814b7,2022-07-06_08h27.15.247,Colour_Asymmetry_Pilot,2022.1.3,Win32,60.51437216,62c50e9c1127f2cd403a315f,,,,,,,,,,,,,,,,,,,,,,,,,,,,,,,,,,,,,,,,,,,,,,,,,,,,,,,,,,,,,,,,,,,,,,,,,,,,,,,,,,,,,,,,,,,,,,,,,,,,,,,,,,,,,,,,,,,,,,,,,,,,,,,,,,,,,,,,,,,,,,,,,,,,,,,,,,,,,,,,,,,
0,27,27,66,1,,5f8eeed471a1830af422d7a1,62c5391fe83053fd22c814b7,2022-07-06_08h27.15.247,Colour_Asymmetry_Pilot,2022.1.3,Win32,60.51437216,62c50e9c1127f2cd403a315f,,,,,,,,,,,,,,,,,,,,,,,,,,,,,,,,,,,,,,,,,,,,,,,,,,,,,,,,,,,,,,,,,,,,,,,,,,,,,,,,,,,,,,,,,,,,,,,,,,,,,,,,,,,,,,,,,,,,,,,,,,,,,,,,,,,,,,,,,,,,,,,,,,,,,,,,,,,,,,,,,,,
0,28,28,91,1,,5f8eeed471a1830af422d7a1,62c5391fe83053fd22c814b7,2022-07-06_08h27.15.247,Colour_Asymmetry_Pilot,2022.1.3,Win32,60.51437216,62c50e9c1127f2cd403a315f,,,,,,,,,,,,,,,,,,,,,,,,,,,,,,,,,,,,,,,,,,,,,,,,,,,,,,,,,,,,,,,,,,,,,,,,,,,,,,,,,,,,,,,,,,,,,,,,,,,,,,,,,,,,,,,,,,,,,,,,,,,,,,,,,,,,,,,,,,,,,,,,,,,,,,,,,,,,,,,,,,,
0,29,29,86,1,,5f8eeed471a1830af422d7a1,62c5391fe83053fd22c814b7,2022-07-06_08h27.15.247,Colour_Asymmetry_Pilot,2022.1.3,Win32,60.51437216,62c50e9c1127f2cd403a315f,,,,,,,,,,,,,,,,,,,,,,,,,,,,,,,,,,,,,,,,,,,,,,,,,,,,,,,,,,,,,,,,,,,,,,,,,,,,,,,,,,,,,,,,,,,,,,,,,,,,,,,,,,,,,,,,,,,,,,,,,,,,,,,,,,,,,,,,,,,,,,,,,,,,,,,,,,,,,,,,,,,
0,30,30,35,1,,5f8eeed471a1830af422d7a1,62c5391fe83053fd22c814b7,2022-07-06_08h27.15.247,Colour_Asymmetry_Pilot,2022.1.3,Win32,60.51437216,62c50e9c1127f2cd403a315f,,,,,,,,,,,,,,,,,,,,,,,,,,,,,,,,,,,,,,,,,,,,,,,,,,,,,,,,,,,,,,,,,,,,,,,,,,,,,,,,,,,,,,,,,,,,,,,,,,,,,,,,,,,,,,,,,,,,,,,,,,,,,,,,,,,,,,,,,,,,,,,,,,,,,,,,,,,,,,,,,,,
0,31,31,71,1,,5f8eeed471a1830af422d7a1,62c5391fe83053fd22c814b7,2022-07-06_08h27.15.247,Colour_Asymmetry_Pilot,2022.1.3,Win32,60.51437216,62c50e9c1127f2cd403a315f,,,,,,,,,,,,,,,,,,,,,,,,,,,,,,,,,,,,,,,,,,,,,,,,,,,,,,,,,,,,,,,,,,,,,,,,,,,,,,,,,,,,,,,,,,,,,,,,,,,,,,,,,,,,,,,,,,,,,,,,,,,,,,,,,,,,,,,,,,,,,,,,,,,,,,,,,,,,,,,,,,,
0,32,32,29,1,,5f8eeed471a1830af422d7a1,62c5391fe83053fd22c814b7,2022-07-06_08h27.15.247,Colour_Asymmetry_Pilot,2022.1.3,Win32,60.51437216,62c50e9c1127f2cd403a315f,,,,,,,,,,,,,,,,,,,,,,,,,,,,,,,,,,,,,,,,,,,,,,,,,,,,,,,,,,,,,,,,,,,,,,,,,,,,,,,,,,,,,,,,,,,,,,,,,,,,,,,,,,,,,,,,,,,,,,,,,,,,,,,,,,,,,,,,,,,,,,,,,,,,,,,,,,,,,,,,,,,
0,33,33,25,1,,5f8eeed471a1830af422d7a1,62c5391fe83053fd22c814b7,2022-07-06_08h27.15.247,Colour_Asymmetry_Pilot,2022.1.3,Win32,60.51437216,62c50e9c1127f2cd403a315f,,,,,,,,,,,,,,,,,,,,,,,,,,,,,,,,,,,,,,,,,,,,,,,,,,,,,,,,,,,,,,,,,,,,,,,,,,,,,,,,,,,,,,,,,,,,,,,,,,,,,,,,,,,,,,,,,,,,,,,,,,,,,,,,,,,,,,,,,,,,,,,,,,,,,,,,,,,,,,,,,,,
0,34,34,41,1,,5f8eeed471a1830af422d7a1,62c5391fe83053fd22c814b7,2022-07-06_08h27.15.247,Colour_Asymmetry_Pilot,2022.1.3,Win32,60.51437216,62c50e9c1127f2cd403a315f,,,,,,,,,,,,,,,,,,,,,,,,,,,,,,,,,,,,,,,,,,,,,,,,,,,,,,,,,,,,,,,,,,,,,,,,,,,,,,,,,,,,,,,,,,,,,,,,,,,,,,,,,,,,,,,,,,,,,,,,,,,,,,,,,,,,,,,,,,,,,,,,,,,,,,,,,,,,,,,,,,,
0,35,35,3,1,,5f8eeed471a1830af422d7a1,62c5391fe83053fd22c814b7,2022-07-06_08h27.15.247,Colour_Asymmetry_Pilot,2022.1.3,Win32,60.51437216,62c50e9c1127f2cd403a315f,,,,,,,,,,,,,,,,,,,,,,,,,,,,,,,,,,,,,,,,,,,,,,,,,,,,,,,,,,,,,,,,,,,,,,,,,,,,,,,,,,,,,,,,,,,,,,,,,,,,,,,,,,,,,,,,,,,,,,,,,,,,,,,,,,,,,,,,,,,,,,,,,,,,,,,,,,,,,,,,,,,
0,36,36,30,1,,5f8eeed471a1830af422d7a1,62c5391fe83053fd22c814b7,2022-07-06_08h27.15.247,Colour_Asymmetry_Pilot,2022.1.3,Win32,60.51437216,62c50e9c1127f2cd403a315f,,,,,,,,,,,,,,,,,,,,,,,,,,,,,,,,,,,,,,,,,,,,,,,,,,,,,,,,,,,,,,,,,,,,,,,,,,,,,,,,,,,,,,,,,,,,,,,,,,,,,,,,,,,,,,,,,,,,,,,,,,,,,,,,,,,,,,,,,,,,,,,,,,,,,,,,,,,,,,,,,,,
0,37,37,83,1,,5f8eeed471a1830af422d7a1,62c5391fe83053fd22c814b7,2022-07-06_08h27.15.247,Colour_Asymmetry_Pilot,2022.1.3,Win32,60.51437216,62c50e9c1127f2cd403a315f,,,,,,,,,,,,,,,,,,,,,,,,,,,,,,,,,,,,,,,,,,,,,,,,,,,,,,,,,,,,,,,,,,,,,,,,,,,,,,,,,,,,,,,,,,,,,,,,,,,,,,,,,,,,,,,,,,,,,,,,,,,,,,,,,,,,,,,,,,,,,,,,,,,,,,,,,,,,,,,,,,,
0,38,38,40,1,,5f8eeed471a1830af422d7a1,62c5391fe83053fd22c814b7,2022-07-06_08h27.15.247,Colour_Asymmetry_Pilot,2022.1.3,Win32,60.51437216,62c50e9c1127f2cd403a315f,,,,,,,,,,,,,,,,,,,,,,,,,,,,,,,,,,,,,,,,,,,,,,,,,,,,,,,,,,,,,,,,,,,,,,,,,,,,,,,,,,,,,,,,,,,,,,,,,,,,,,,,,,,,,,,,,,,,,,,,,,,,,,,,,,,,,,,,,,,,,,,,,,,,,,,,,,,,,,,,,,,
0,39,39,1,1,,5f8eeed471a1830af422d7a1,62c5391fe83053fd22c814b7,2022-07-06_08h27.15.247,Colour_Asymmetry_Pilot,2022.1.3,Win32,60.51437216,62c50e9c1127f2cd403a315f,,,,,,,,,,,,,,,,,,,,,,,,,,,,,,,,,,,,,,,,,,,,,,,,,,,,,,,,,,,,,,,,,,,,,,,,,,,,,,,,,,,,,,,,,,,,,,,,,,,,,,,,,,,,,,,,,,,,,,,,,,,,,,,,,,,,,,,,,,,,,,,,,,,,,,,,,,,,,,,,,,,
0,40,40,77,1,,5f8eeed471a1830af422d7a1,62c5391fe83053fd22c814b7,2022-07-06_08h27.15.247,Colour_Asymmetry_Pilot,2022.1.3,Win32,60.51437216,62c50e9c1127f2cd403a315f,,,,,,,,,,,,,,,,,,,,,,,,,,,,,,,,,,,,,,,,,,,,,,,,,,,,,,,,,,,,,,,,,,,,,,,,,,,,,,,,,,,,,,,,,,,,,,,,,,,,,,,,,,,,,,,,,,,,,,,,,,,,,,,,,,,,,,,,,,,,,,,,,,,,,,,,,,,,,,,,,,,
0,41,41,2,1,,5f8eeed471a1830af422d7a1,62c5391fe83053fd22c814b7,2022-07-06_08h27.15.247,Colour_Asymmetry_Pilot,2022.1.3,Win32,60.51437216,62c50e9c1127f2cd403a315f,,,,,,,,,,,,,,,,,,,,,,,,,,,,,,,,,,,,,,,,,,,,,,,,,,,,,,,,,,,,,,,,,,,,,,,,,,,,,,,,,,,,,,,,,,,,,,,,,,,,,,,,,,,,,,,,,,,,,,,,,,,,,,,,,,,,,,,,,,,,,,,,,,,,,,,,,,,,,,,,,,,
0,42,42,28,1,,5f8eeed471a1830af422d7a1,62c5391fe83053fd22c814b7,2022-07-06_08h27.15.247,Colour_Asymmetry_Pilot,2022.1.3,Win32,60.51437216,62c50e9c1127f2cd403a315f,,,,,,,,,,,,,,,,,,,,,,,,,,,,,,,,,,,,,,,,,,,,,,,,,,,,,,,,,,,,,,,,,,,,,,,,,,,,,,,,,,,,,,,,,,,,,,,,,,,,,,,,,,,,,,,,,,,,,,,,,,,,,,,,,,,,,,,,,,,,,,,,,,,,,,,,,,,,,,,,,,,
0,43,43,62,1,,5f8eeed471a1830af422d7a1,62c5391fe83053fd22c814b7,2022-07-06_08h27.15.247,Colour_Asymmetry_Pilot,2022.1.3,Win32,60.51437216,62c50e9c1127f2cd403a315f,,,,,,,,,,,,,,,,,,,,,,,,,,,,,,,,,,,,,,,,,,,,,,,,,,,,,,,,,,,,,,,,,,,,,,,,,,,,,,,,,,,,,,,,,,,,,,,,,,,,,,,,,,,,,,,,,,,,,,,,,,,,,,,,,,,,,,,,,,,,,,,,,,,,,,,,,,,,,,,,,,,
0,44,44,52,1,,5f8eeed471a1830af422d7a1,62c5391fe83053fd22c814b7,2022-07-06_08h27.15.247,Colour_Asymmetry_Pilot,2022.1.3,Win32,60.51437216,62c50e9c1127f2cd403a315f,,,,,,,,,,,,,,,,,,,,,,,,,,,,,,,,,,,,,,,,,,,,,,,,,,,,,,,,,,,,,,,,,,,,,,,,,,,,,,,,,,,,,,,,,,,,,,,,,,,,,,,,,,,,,,,,,,,,,,,,,,,,,,,,,,,,,,,,,,,,,,,,,,,,,,,,,,,,,,,,,,,
0,45,45,16,1,,5f8eeed471a1830af422d7a1,62c5391fe83053fd22c814b7,2022-07-06_08h27.15.247,Colour_Asymmetry_Pilot,2022.1.3,Win32,60.51437216,62c50e9c1127f2cd403a315f,,,,,,,,,,,,,,,,,,,,,,,,,,,,,,,,,,,,,,,,,,,,,,,,,,,,,,,,,,,,,,,,,,,,,,,,,,,,,,,,,,,,,,,,,,,,,,,,,,,,,,,,,,,,,,,,,,,,,,,,,,,,,,,,,,,,,,,,,,,,,,,,,,,,,,,,,,,,,,,,,,,
0,46,46,22,1,,5f8eeed471a1830af422d7a1,62c5391fe83053fd22c814b7,2022-07-06_08h27.15.247,Colour_Asymmetry_Pilot,2022.1.3,Win32,60.51437216,62c50e9c1127f2cd403a315f,,,,,,,,,,,,,,,,,,,,,,,,,,,,,,,,,,,,,,,,,,,,,,,,,,,,,,,,,,,,,,,,,,,,,,,,,,,,,,,,,,,,,,,,,,,,,,,,,,,,,,,,,,,,,,,,,,,,,,,,,,,,,,,,,,,,,,,,,,,,,,,,,,,,,,,,,,,,,,,,,,,
0,47,47,21,1,,5f8eeed471a1830af422d7a1,62c5391fe83053fd22c814b7,2022-07-06_08h27.15.247,Colour_Asymmetry_Pilot,2022.1.3,Win32,60.51437216,62c50e9c1127f2cd403a315f,,,,,,,,,,,,,,,,,,,,,,,,,,,,,,,,,,,,,,,,,,,,,,,,,,,,,,,,,,,,,,,,,,,,,,,,,,,,,,,,,,,,,,,,,,,,,,,,,,,,,,,,,,,,,,,,,,,,,,,,,,,,,,,,,,,,,,,,,,,,,,,,,,,,,,,,,,,,,,,,,,,
0,48,48,78,1,,5f8eeed471a1830af422d7a1,62c5391fe83053fd22c814b7,2022-07-06_08h27.15.247,Colour_Asymmetry_Pilot,2022.1.3,Win32,60.51437216,62c50e9c1127f2cd403a315f,,,,,,,,,,,,,,,,,,,,,,,,,,,,,,,,,,,,,,,,,,,,,,,,,,,,,,,,,,,,,,,,,,,,,,,,,,,,,,,,,,,,,,,,,,,,,,,,,,,,,,,,,,,,,,,,,,,,,,,,,,,,,,,,,,,,,,,,,,,,,,,,,,,,,,,,,,,,,,,,,,,
0,49,49,6,1,,5f8eeed471a1830af422d7a1,62c5391fe83053fd22c814b7,2022-07-06_08h27.15.247,Colour_Asymmetry_Pilot,2022.1.3,Win32,60.51437216,62c50e9c1127f2cd403a315f,,,,,,,,,,,,,,,,,,,,,,,,,,,,,,,,,,,,,,,,,,,,,,,,,,,,,,,,,,,,,,,,,,,,,,,,,,,,,,,,,,,,,,,,,,,,,,,,,,,,,,,,,,,,,,,,,,,,,,,,,,,,,,,,,,,,,,,,,,,,,,,,,,,,,,,,,,,,,,,,,,,
0,50,50,8,1,,5f8eeed471a1830af422d7a1,62c5391fe83053fd22c814b7,2022-07-06_08h27.15.247,Colour_Asymmetry_Pilot,2022.1.3,Win32,60.51437216,62c50e9c1127f2cd403a315f,,,,,,,,,,,,,,,,,,,,,,,,,,,,,,,,,,,,,,,,,,,,,,,,,,,,,,,,,,,,,,,,,,,,,,,,,,,,,,,,,,,,,,,,,,,,,,,,,,,,,,,,,,,,,,,,,,,,,,,,,,,,,,,,,,,,,,,,,,,,,,,,,,,,,,,,,,,,,,,,,,,
0,51,51,81,1,,5f8eeed471a1830af422d7a1,62c5391fe83053fd22c814b7,2022-07-06_08h27.15.247,Colour_Asymmetry_Pilot,2022.1.3,Win32,60.51437216,62c50e9c1127f2cd403a315f,,,,,,,,,,,,,,,,,,,,,,,,,,,,,,,,,,,,,,,,,,,,,,,,,,,,,,,,,,,,,,,,,,,,,,,,,,,,,,,,,,,,,,,,,,,,,,,,,,,,,,,,,,,,,,,,,,,,,,,,,,,,,,,,,,,,,,,,,,,,,,,,,,,,,,,,,,,,,,,,,,,
0,52,52,48,1,,5f8eeed471a1830af422d7a1,62c5391fe83053fd22c814b7,2022-07-06_08h27.15.247,Colour_Asymmetry_Pilot,2022.1.3,Win32,60.51437216,62c50e9c1127f2cd403a315f,,,,,,,,,,,,,,,,,,,,,,,,,,,,,,,,,,,,,,,,,,,,,,,,,,,,,,,,,,,,,,,,,,,,,,,,,,,,,,,,,,,,,,,,,,,,,,,,,,,,,,,,,,,,,,,,,,,,,,,,,,,,,,,,,,,,,,,,,,,,,,,,,,,,,,,,,,,,,,,,,,,
0,53,53,10,1,,5f8eeed471a1830af422d7a1,62c5391fe83053fd22c814b7,2022-07-06_08h27.15.247,Colour_Asymmetry_Pilot,2022.1.3,Win32,60.51437216,62c50e9c1127f2cd403a315f,,,,,,,,,,,,,,,,,,,,,,,,,,,,,,,,,,,,,,,,,,,,,,,,,,,,,,,,,,,,,,,,,,,,,,,,,,,,,,,,,,,,,,,,,,,,,,,,,,,,,,,,,,,,,,,,,,,,,,,,,,,,,,,,,,,,,,,,,,,,,,,,,,,,,,,,,,,,,,,,,,,
0,54,54,9,1,,5f8eeed471a1830af422d7a1,62c5391fe83053fd22c814b7,2022-07-06_08h27.15.247,Colour_Asymmetry_Pilot,2022.1.3,Win32,60.51437216,62c50e9c1127f2cd403a315f,,,,,,,,,,,,,,,,,,,,,,,,,,,,,,,,,,,,,,,,,,,,,,,,,,,,,,,,,,,,,,,,,,,,,,,,,,,,,,,,,,,,,,,,,,,,,,,,,,,,,,,,,,,,,,,,,,,,,,,,,,,,,,,,,,,,,,,,,,,,,,,,,,,,,,,,,,,,,,,,,,,
0,55,55,31,1,,5f8eeed471a1830af422d7a1,62c5391fe83053fd22c814b7,2022-07-06_08h27.15.247,Colour_Asymmetry_Pilot,2022.1.3,Win32,60.51437216,62c50e9c1127f2cd403a315f,,,,,,,,,,,,,,,,,,,,,,,,,,,,,,,,,,,,,,,,,,,,,,,,,,,,,,,,,,,,,,,,,,,,,,,,,,,,,,,,,,,,,,,,,,,,,,,,,,,,,,,,,,,,,,,,,,,,,,,,,,,,,,,,,,,,,,,,,,,,,,,,,,,,,,,,,,,,,,,,,,,
0,56,56,74,1,,5f8eeed471a1830af422d7a1,62c5391fe83053fd22c814b7,2022-07-06_08h27.15.247,Colour_Asymmetry_Pilot,2022.1.3,Win32,60.51437216,62c50e9c1127f2cd403a315f,,,,,,,,,,,,,,,,,,,,,,,,,,,,,,,,,,,,,,,,,,,,,,,,,,,,,,,,,,,,,,,,,,,,,,,,,,,,,,,,,,,,,,,,,,,,,,,,,,,,,,,,,,,,,,,,,,,,,,,,,,,,,,,,,,,,,,,,,,,,,,,,,,,,,,,,,,,,,,,,,,,
0,57,57,76,1,,5f8eeed471a1830af422d7a1,62c5391fe83053fd22c814b7,2022-07-06_08h27.15.247,Colour_Asymmetry_Pilot,2022.1.3,Win32,60.51437216,62c50e9c1127f2cd403a315f,,,,,,,,,,,,,,,,,,,,,,,,,,,,,,,,,,,,,,,,,,,,,,,,,,,,,,,,,,,,,,,,,,,,,,,,,,,,,,,,,,,,,,,,,,,,,,,,,,,,,,,,,,,,,,,,,,,,,,,,,,,,,,,,,,,,,,,,,,,,,,,,,,,,,,,,,,,,,,,,,,,
0,58,58,92,1,,5f8eeed471a1830af422d7a1,62c5391fe83053fd22c814b7,2022-07-06_08h27.15.247,Colour_Asymmetry_Pilot,2022.1.3,Win32,60.51437216,62c50e9c1127f2cd403a315f,,,,,,,,,,,,,,,,,,,,,,,,,,,,,,,,,,,,,,,,,,,,,,,,,,,,,,,,,,,,,,,,,,,,,,,,,,,,,,,,,,,,,,,,,,,,,,,,,,,,,,,,,,,,,,,,,,,,,,,,,,,,,,,,,,,,,,,,,,,,,,,,,,,,,,,,,,,,,,,,,,,
0,59,59,7,1,,5f8eeed471a1830af422d7a1,62c5391fe83053fd22c814b7,2022-07-06_08h27.15.247,Colour_Asymmetry_Pilot,2022.1.3,Win32,60.51437216,62c50e9c1127f2cd403a315f,,,,,,,,,,,,,,,,,,,,,,,,,,,,,,,,,,,,,,,,,,,,,,,,,,,,,,,,,,,,,,,,,,,,,,,,,,,,,,,,,,,,,,,,,,,,,,,,,,,,,,,,,,,,,,,,,,,,,,,,,,,,,,,,,,,,,,,,,,,,,,,,,,,,,,,,,,,,,,,,,,,
0,60,60,14,1,,5f8eeed471a1830af422d7a1,62c5391fe83053fd22c814b7,2022-07-06_08h27.15.247,Colour_Asymmetry_Pilot,2022.1.3,Win32,60.51437216,62c50e9c1127f2cd403a315f,,,,,,,,,,,,,,,,,,,,,,,,,,,,,,,,,,,,,,,,,,,,,,,,,,,,,,,,,,,,,,,,,,,,,,,,,,,,,,,,,,,,,,,,,,,,,,,,,,,,,,,,,,,,,,,,,,,,,,,,,,,,,,,,,,,,,,,,,,,,,,,,,,,,,,,,,,,,,,,,,,,
0,61,61,23,1,,5f8eeed471a1830af422d7a1,62c5391fe83053fd22c814b7,2022-07-06_08h27.15.247,Colour_Asymmetry_Pilot,2022.1.3,Win32,60.51437216,62c50e9c1127f2cd403a315f,,,,,,,,,,,,,,,,,,,,,,,,,,,,,,,,,,,,,,,,,,,,,,,,,,,,,,,,,,,,,,,,,,,,,,,,,,,,,,,,,,,,,,,,,,,,,,,,,,,,,,,,,,,,,,,,,,,,,,,,,,,,,,,,,,,,,,,,,,,,,,,,,,,,,,,,,,,,,,,,,,,
0,62,62,61,1,,5f8eeed471a1830af422d7a1,62c5391fe83053fd22c814b7,2022-07-06_08h27.15.247,Colour_Asymmetry_Pilot,2022.1.3,Win32,60.51437216,62c50e9c1127f2cd403a315f,,,,,,,,,,,,,,,,,,,,,,,,,,,,,,,,,,,,,,,,,,,,,,,,,,,,,,,,,,,,,,,,,,,,,,,,,,,,,,,,,,,,,,,,,,,,,,,,,,,,,,,,,,,,,,,,,,,,,,,,,,,,,,,,,,,,,,,,,,,,,,,,,,,,,,,,,,,,,,,,,,,
0,63,63,56,1,,5f8eeed471a1830af422d7a1,62c5391fe83053fd22c814b7,2022-07-06_08h27.15.247,Colour_Asymmetry_Pilot,2022.1.3,Win32,60.51437216,62c50e9c1127f2cd403a315f,,,,,,,,,,,,,,,,,,,,,,,,,,,,,,,,,,,,,,,,,,,,,,,,,,,,,,,,,,,,,,,,,,,,,,,,,,,,,,,,,,,,,,,,,,,,,,,,,,,,,,,,,,,,,,,,,,,,,,,,,,,,,,,,,,,,,,,,,,,,,,,,,,,,,,,,,,,,,,,,,,,
0,64,64,50,1,,5f8eeed471a1830af422d7a1,62c5391fe83053fd22c814b7,2022-07-06_08h27.15.247,Colour_Asymmetry_Pilot,2022.1.3,Win32,60.51437216,62c50e9c1127f2cd403a315f,,,,,,,,,,,,,,,,,,,,,,,,,,,,,,,,,,,,,,,,,,,,,,,,,,,,,,,,,,,,,,,,,,,,,,,,,,,,,,,,,,,,,,,,,,,,,,,,,,,,,,,,,,,,,,,,,,,,,,,,,,,,,,,,,,,,,,,,,,,,,,,,,,,,,,,,,,,,,,,,,,,
0,65,65,42,1,,5f8eeed471a1830af422d7a1,62c5391fe83053fd22c814b7,2022-07-06_08h27.15.247,Colour_Asymmetry_Pilot,2022.1.3,Win32,60.51437216,62c50e9c1127f2cd403a315f,,,,,,,,,,,,,,,,,,,,,,,,,,,,,,,,,,,,,,,,,,,,,,,,,,,,,,,,,,,,,,,,,,,,,,,,,,,,,,,,,,,,,,,,,,,,,,,,,,,,,,,,,,,,,,,,,,,,,,,,,,,,,,,,,,,,,,,,,,,,,,,,,,,,,,,,,,,,,,,,,,,
0,66,66,4,1,,5f8eeed471a1830af422d7a1,62c5391fe83053fd22c814b7,2022-07-06_08h27.15.247,Colour_Asymmetry_Pilot,2022.1.3,Win32,60.51437216,62c50e9c1127f2cd403a315f,,,,,,,,,,,,,,,,,,,,,,,,,,,,,,,,,,,,,,,,,,,,,,,,,,,,,,,,,,,,,,,,,,,,,,,,,,,,,,,,,,,,,,,,,,,,,,,,,,,,,,,,,,,,,,,,,,,,,,,,,,,,,,,,,,,,,,,,,,,,,,,,,,,,,,,,,,,,,,,,,,,
0,67,67,49,1,,5f8eeed471a1830af422d7a1,62c5391fe83053fd22c814b7,2022-07-06_08h27.15.247,Colour_Asymmetry_Pilot,2022.1.3,Win32,60.51437216,62c50e9c1127f2cd403a315f,,,,,,,,,,,,,,,,,,,,,,,,,,,,,,,,,,,,,,,,,,,,,,,,,,,,,,,,,,,,,,,,,,,,,,,,,,,,,,,,,,,,,,,,,,,,,,,,,,,,,,,,,,,,,,,,,,,,,,,,,,,,,,,,,,,,,,,,,,,,,,,,,,,,,,,,,,,,,,,,,,,
0,68,68,88,1,,5f8eeed471a1830af422d7a1,62c5391fe83053fd22c814b7,2022-07-06_08h27.15.247,Colour_Asymmetry_Pilot,2022.1.3,Win32,60.51437216,62c50e9c1127f2cd403a315f,,,,,,,,,,,,,,,,,,,,,,,,,,,,,,,,,,,,,,,,,,,,,,,,,,,,,,,,,,,,,,,,,,,,,,,,,,,,,,,,,,,,,,,,,,,,,,,,,,,,,,,,,,,,,,,,,,,,,,,,,,,,,,,,,,,,,,,,,,,,,,,,,,,,,,,,,,,,,,,,,,,
0,69,69,38,1,,5f8eeed471a1830af422d7a1,62c5391fe83053fd22c814b7,2022-07-06_08h27.15.247,Colour_Asymmetry_Pilot,2022.1.3,Win32,60.51437216,62c50e9c1127f2cd403a315f,,,,,,,,,,,,,,,,,,,,,,,,,,,,,,,,,,,,,,,,,,,,,,,,,,,,,,,,,,,,,,,,,,,,,,,,,,,,,,,,,,,,,,,,,,,,,,,,,,,,,,,,,,,,,,,,,,,,,,,,,,,,,,,,,,,,,,,,,,,,,,,,,,,,,,,,,,,,,,,,,,,
0,70,70,37,1,,5f8eeed471a1830af422d7a1,62c5391fe83053fd22c814b7,2022-07-06_08h27.15.247,Colour_Asymmetry_Pilot,2022.1.3,Win32,60.51437216,62c50e9c1127f2cd403a315f,,,,,,,,,,,,,,,,,,,,,,,,,,,,,,,,,,,,,,,,,,,,,,,,,,,,,,,,,,,,,,,,,,,,,,,,,,,,,,,,,,,,,,,,,,,,,,,,,,,,,,,,,,,,,,,,,,,,,,,,,,,,,,,,,,,,,,,,,,,,,,,,,,,,,,,,,,,,,,,,,,,
0,71,71,34,1,,5f8eeed471a1830af422d7a1,62c5391fe83053fd22c814b7,2022-07-06_08h27.15.247,Colour_Asymmetry_Pilot,2022.1.3,Win32,60.51437216,62c50e9c1127f2cd403a315f,,,,,,,,,,,,,,,,,,,,,,,,,,,,,,,,,,,,,,,,,,,,,,,,,,,,,,,,,,,,,,,,,,,,,,,,,,,,,,,,,,,,,,,,,,,,,,,,,,,,,,,,,,,,,,,,,,,,,,,,,,,,,,,,,,,,,,,,,,,,,,,,,,,,,,,,,,,,,,,,,,,
0,72,72,54,1,,5f8eeed471a1830af422d7a1,62c5391fe83053fd22c814b7,2022-07-06_08h27.15.247,Colour_Asymmetry_Pilot,2022.1.3,Win32,60.51437216,62c50e9c1127f2cd403a315f,,,,,,,,,,,,,,,,,,,,,,,,,,,,,,,,,,,,,,,,,,,,,,,,,,,,,,,,,,,,,,,,,,,,,,,,,,,,,,,,,,,,,,,,,,,,,,,,,,,,,,,,,,,,,,,,,,,,,,,,,,,,,,,,,,,,,,,,,,,,,,,,,,,,,,,,,,,,,,,,,,,
0,73,73,17,1,,5f8eeed471a1830af422d7a1,62c5391fe83053fd22c814b7,2022-07-06_08h27.15.247,Colour_Asymmetry_Pilot,2022.1.3,Win32,60.51437216,62c50e9c1127f2cd403a315f,,,,,,,,,,,,,,,,,,,,,,,,,,,,,,,,,,,,,,,,,,,,,,,,,,,,,,,,,,,,,,,,,,,,,,,,,,,,,,,,,,,,,,,,,,,,,,,,,,,,,,,,,,,,,,,,,,,,,,,,,,,,,,,,,,,,,,,,,,,,,,,,,,,,,,,,,,,,,,,,,,,
0,74,74,59,1,,5f8eeed471a1830af422d7a1,62c5391fe83053fd22c814b7,2022-07-06_08h27.15.247,Colour_Asymmetry_Pilot,2022.1.3,Win32,60.51437216,62c50e9c1127f2cd403a315f,,,,,,,,,,,,,,,,,,,,,,,,,,,,,,,,,,,,,,,,,,,,,,,,,,,,,,,,,,,,,,,,,,,,,,,,,,,,,,,,,,,,,,,,,,,,,,,,,,,,,,,,,,,,,,,,,,,,,,,,,,,,,,,,,,,,,,,,,,,,,,,,,,,,,,,,,,,,,,,,,,,
0,75,75,89,1,,5f8eeed471a1830af422d7a1,62c5391fe83053fd22c814b7,2022-07-06_08h27.15.247,Colour_Asymmetry_Pilot,2022.1.3,Win32,60.51437216,62c50e9c1127f2cd403a315f,,,,,,,,,,,,,,,,,,,,,,,,,,,,,,,,,,,,,,,,,,,,,,,,,,,,,,,,,,,,,,,,,,,,,,,,,,,,,,,,,,,,,,,,,,,,,,,,,,,,,,,,,,,,,,,,,,,,,,,,,,,,,,,,,,,,,,,,,,,,,,,,,,,,,,,,,,,,,,,,,,,
0,76,76,53,1,,5f8eeed471a1830af422d7a1,62c5391fe83053fd22c814b7,2022-07-06_08h27.15.247,Colour_Asymmetry_Pilot,2022.1.3,Win32,60.51437216,62c50e9c1127f2cd403a315f,,,,,,,,,,,,,,,,,,,,,,,,,,,,,,,,,,,,,,,,,,,,,,,,,,,,,,,,,,,,,,,,,,,,,,,,,,,,,,,,,,,,,,,,,,,,,,,,,,,,,,,,,,,,,,,,,,,,,,,,,,,,,,,,,,,,,,,,,,,,,,,,,,,,,,,,,,,,,,,,,,,
0,77,77,55,1,,5f8eeed471a1830af422d7a1,62c5391fe83053fd22c814b7,2022-07-06_08h27.15.247,Colour_Asymmetry_Pilot,2022.1.3,Win32,60.51437216,62c50e9c1127f2cd403a315f,,,,,,,,,,,,,,,,,,,,,,,,,,,,,,,,,,,,,,,,,,,,,,,,,,,,,,,,,,,,,,,,,,,,,,,,,,,,,,,,,,,,,,,,,,,,,,,,,,,,,,,,,,,,,,,,,,,,,,,,,,,,,,,,,,,,,,,,,,,,,,,,,,,,,,,,,,,,,,,,,,,
0,78,78,39,1,,5f8eeed471a1830af422d7a1,62c5391fe83053fd22c814b7,2022-07-06_08h27.15.247,Colour_Asymmetry_Pilot,2022.1.3,Win32,60.51437216,62c50e9c1127f2cd403a315f,,,,,,,,,,,,,,,,,,,,,,,,,,,,,,,,,,,,,,,,,,,,,,,,,,,,,,,,,,,,,,,,,,,,,,,,,,,,,,,,,,,,,,,,,,,,,,,,,,,,,,,,,,,,,,,,,,,,,,,,,,,,,,,,,,,,,,,,,,,,,,,,,,,,,,,,,,,,,,,,,,,
0,79,79,90,1,,5f8eeed471a1830af422d7a1,62c5391fe83053fd22c814b7,2022-07-06_08h27.15.247,Colour_Asymmetry_Pilot,2022.1.3,Win32,60.51437216,62c50e9c1127f2cd403a315f,,,,,,,,,,,,,,,,,,,,,,,,,,,,,,,,,,,,,,,,,,,,,,,,,,,,,,,,,,,,,,,,,,,,,,,,,,,,,,,,,,,,,,,,,,,,,,,,,,,,,,,,,,,,,,,,,,,,,,,,,,,,,,,,,,,,,,,,,,,,,,,,,,,,,,,,,,,,,,,,,,,
0,80,80,36,1,,5f8eeed471a1830af422d7a1,62c5391fe83053fd22c814b7,2022-07-06_08h27.15.247,Colour_Asymmetry_Pilot,2022.1.3,Win32,60.51437216,62c50e9c1127f2cd403a315f,,,,,,,,,,,,,,,,,,,,,,,,,,,,,,,,,,,,,,,,,,,,,,,,,,,,,,,,,,,,,,,,,,,,,,,,,,,,,,,,,,,,,,,,,,,,,,,,,,,,,,,,,,,,,,,,,,,,,,,,,,,,,,,,,,,,,,,,,,,,,,,,,,,,,,,,,,,,,,,,,,,
0,81,81,67,1,,5f8eeed471a1830af422d7a1,62c5391fe83053fd22c814b7,2022-07-06_08h27.15.247,Colour_Asymmetry_Pilot,2022.1.3,Win32,60.51437216,62c50e9c1127f2cd403a315f,,,,,,,,,,,,,,,,,,,,,,,,,,,,,,,,,,,,,,,,,,,,,,,,,,,,,,,,,,,,,,,,,,,,,,,,,,,,,,,,,,,,,,,,,,,,,,,,,,,,,,,,,,,,,,,,,,,,,,,,,,,,,,,,,,,,,,,,,,,,,,,,,,,,,,,,,,,,,,,,,,,
0,82,82,12,1,,5f8eeed471a1830af422d7a1,62c5391fe83053fd22c814b7,2022-07-06_08h27.15.247,Colour_Asymmetry_Pilot,2022.1.3,Win32,60.51437216,62c50e9c1127f2cd403a315f,,,,,,,,,,,,,,,,,,,,,,,,,,,,,,,,,,,,,,,,,,,,,,,,,,,,,,,,,,,,,,,,,,,,,,,,,,,,,,,,,,,,,,,,,,,,,,,,,,,,,,,,,,,,,,,,,,,,,,,,,,,,,,,,,,,,,,,,,,,,,,,,,,,,,,,,,,,,,,,,,,,
0,83,83,44,1,,5f8eeed471a1830af422d7a1,62c5391fe83053fd22c814b7,2022-07-06_08h27.15.247,Colour_Asymmetry_Pilot,2022.1.3,Win32,60.51437216,62c50e9c1127f2cd403a315f,,,,,,,,,,,,,,,,,,,,,,,,,,,,,,,,,,,,,,,,,,,,,,,,,,,,,,,,,,,,,,,,,,,,,,,,,,,,,,,,,,,,,,,,,,,,,,,,,,,,,,,,,,,,,,,,,,,,,,,,,,,,,,,,,,,,,,,,,,,,,,,,,,,,,,,,,,,,,,,,,,,
0,84,84,64,1,,5f8eeed471a1830af422d7a1,62c5391fe83053fd22c814b7,2022-07-06_08h27.15.247,Colour_Asymmetry_Pilot,2022.1.3,Win32,60.51437216,62c50e9c1127f2cd403a315f,,,,,,,,,,,,,,,,,,,,,,,,,,,,,,,,,,,,,,,,,,,,,,,,,,,,,,,,,,,,,,,,,,,,,,,,,,,,,,,,,,,,,,,,,,,,,,,,,,,,,,,,,,,,,,,,,,,,,,,,,,,,,,,,,,,,,,,,,,,,,,,,,,,,,,,,,,,,,,,,,,,
0,85,85,60,1,,5f8eeed471a1830af422d7a1,62c5391fe83053fd22c814b7,2022-07-06_08h27.15.247,Colour_Asymmetry_Pilot,2022.1.3,Win32,60.51437216,62c50e9c1127f2cd403a315f,,,,,,,,,,,,,,,,,,,,,,,,,,,,,,,,,,,,,,,,,,,,,,,,,,,,,,,,,,,,,,,,,,,,,,,,,,,,,,,,,,,,,,,,,,,,,,,,,,,,,,,,,,,,,,,,,,,,,,,,,,,,,,,,,,,,,,,,,,,,,,,,,,,,,,,,,,,,,,,,,,,
0,86,86,85,1,,5f8eeed471a1830af422d7a1,62c5391fe83053fd22c814b7,2022-07-06_08h27.15.247,Colour_Asymmetry_Pilot,2022.1.3,Win32,60.51437216,62c50e9c1127f2cd403a315f,,,,,,,,,,,,,,,,,,,,,,,,,,,,,,,,,,,,,,,,,,,,,,,,,,,,,,,,,,,,,,,,,,,,,,,,,,,,,,,,,,,,,,,,,,,,,,,,,,,,,,,,,,,,,,,,,,,,,,,,,,,,,,,,,,,,,,,,,,,,,,,,,,,,,,,,,,,,,,,,,,,
0,87,87,33,1,,5f8eeed471a1830af422d7a1,62c5391fe83053fd22c814b7,2022-07-06_08h27.15.247,Colour_Asymmetry_Pilot,2022.1.3,Win32,60.51437216,62c50e9c1127f2cd403a315f,,,,,,,,,,,,,,,,,,,,,,,,,,,,,,,,,,,,,,,,,,,,,,,,,,,,,,,,,,,,,,,,,,,,,,,,,,,,,,,,,,,,,,,,,,,,,,,,,,,,,,,,,,,,,,,,,,,,,,,,,,,,,,,,,,,,,,,,,,,,,,,,,,,,,,,,,,,,,,,,,,,
0,88,88,11,1,,5f8eeed471a1830af422d7a1,62c5391fe83053fd22c814b7,2022-07-06_08h27.15.247,Colour_Asymmetry_Pilot,2022.1.3,Win32,60.51437216,62c50e9c1127f2cd403a315f,,,,,,,,,,,,,,,,,,,,,,,,,,,,,,,,,,,,,,,,,,,,,,,,,,,,,,,,,,,,,,,,,,,,,,,,,,,,,,,,,,,,,,,,,,,,,,,,,,,,,,,,,,,,,,,,,,,,,,,,,,,,,,,,,,,,,,,,,,,,,,,,,,,,,,,,,,,,,,,,,,,
0,89,89,73,1,,5f8eeed471a1830af422d7a1,62c5391fe83053fd22c814b7,2022-07-06_08h27.15.247,Colour_Asymmetry_Pilot,2022.1.3,Win32,60.51437216,62c50e9c1127f2cd403a315f,,,,,,,,,,,,,,,,,,,,,,,,,,,,,,,,,,,,,,,,,,,,,,,,,,,,,,,,,,,,,,,,,,,,,,,,,,,,,,,,,,,,,,,,,,,,,,,,,,,,,,,,,,,,,,,,,,,,,,,,,,,,,,,,,,,,,,,,,,,,,,,,,,,,,,,,,,,,,,,,,,,
0,90,90,65,1,,5f8eeed471a1830af422d7a1,62c5391fe83053fd22c814b7,2022-07-06_08h27.15.247,Colour_Asymmetry_Pilot,2022.1.3,Win32,60.51437216,62c50e9c1127f2cd403a315f,,,,,,,,,,,,,,,,,,,,,,,,,,,,,,,,,,,,,,,,,,,,,,,,,,,,,,,,,,,,,,,,,,,,,,,,,,,,,,,,,,,,,,,,,,,,,,,,,,,,,,,,,,,,,,,,,,,,,,,,,,,,,,,,,,,,,,,,,,,,,,,,,,,,,,,,,,,,,,,,,,,
0,91,91,19,1,,5f8eeed471a1830af422d7a1,62c5391fe83053fd22c814b7,2022-07-06_08h27.15.247,Colour_Asymmetry_Pilot,2022.1.3,Win32,60.51437216,62c50e9c1127f2cd403a315f,,,,,,,,,,,,,,,,,,,,,,,,,,,,,,,,,,,,,,,,,,,,,,,,,,,,,,,,,,,,,,,,,,,,,,,,,,,,,,,,,,,,,,,,,,,,,,,,,,,,,,,,,,,,,,,,,,,,,,,,,,,,,,,,,,,,,,,,,,,,,,,,,,,,,,,,,,,,,,,,,,,
0,92,92,51,1,,5f8eeed471a1830af422d7a1,62c5391fe83053fd22c814b7,2022-07-06_08h27.15.247,Colour_Asymmetry_Pilot,2022.1.3,Win32,60.51437216,62c50e9c1127f2cd403a315f,,,,,,,,,,,,,,,,,,,,,,,,,,,,,,,,,,,,,,,,,,,,,,,,,,,,,,,,,,,,,,,,,,,,,,,,,,,,,,,,,,,,,,,,,,,,,,,,,,,,,,,,,,,,,,,,,,,,,,,,,,,,,,,,,,,,,,,,,,,,,,,,,,,,,,,,,,,,,,,,,,,
,,,,,,5f8eeed471a1830af422d7a1,62c5391fe83053fd22c814b7,2022-07-06_08h27.15.247,Colour_Asymmetry_Pilot,2022.1.3,Win32,60.51437216,62c50e9c1127f2cd403a315f,0,0,0,36,1,threeone,,,,,,,,,,,,,,,,,,,,,,,,,,,,,,,,,,,,,,,,,,,,,,,,,,,,,,,,,,,,,,,,,,,,,,,,,,,,,,,,,,,,,,,,,,,,,,,,,,,,,,,,,,,,,,,,,,,,,,,,,,,,,,,,,,,,,,,,,,,,,,,,,,,,,,,,,,,,,
,,,,,,5f8eeed471a1830af422d7a1,62c5391fe83053fd22c814b7,2022-07-06_08h27.15.247,Colour_Asymmetry_Pilot,2022.1.3,Win32,60.51437216,62c50e9c1127f2cd403a315f,0,1,1,88,1,onetwo,,,,,,,,,,,,,,,,,,,,,,,,,,,,,,,,,,,,,,,,,,,,,,,,,,,,,,,,,,,,,,,,,,,,,,,,,,,,,,,,,,,,,,,,,,,,,,,,,,,,,,,,,,,,,,,,,,,,,,,,,,,,,,,,,,,,,,,,,,,,,,,,,,,,,,,,,,,,,
,,,,,,5f8eeed471a1830af422d7a1,62c5391fe83053fd22c814b7,2022-07-06_08h27.15.247,Colour_Asymmetry_Pilot,2022.1.3,Win32,60.51437216,62c50e9c1127f2cd403a315f,0,2,2,61,1,threefour,,,,,,,,,,,,,,,,,,,,,,,,,,,,,,,,,,,,,,,,,,,,,,,,,,,,,,,,,,,,,,,,,,,,,,,,,,,,,,,,,,,,,,,,,,,,,,,,,,,,,,,,,,,,,,,,,,,,,,,,,,,,,,,,,,,,,,,,,,,,,,,,,,,,,,,,,,,,,
,,,,,,5f8eeed471a1830af422d7a1,62c5391fe83053fd22c814b7,2022-07-06_08h27.15.247,Colour_Asymmetry_Pilot,2022.1.3,Win32,60.51437216,62c50e9c1127f2cd403a315f,0,3,3,114,1,twoone,,,,,,,,,,,,,,,,,,,,,,,,,,,,,,,,,,,,,,,,,,,,,,,,,,,,,,,,,,,,,,,,,,,,,,,,,,,,,,,,,,,,,,,,,,,,,,,,,,,,,,,,,,,,,,,,,,,,,,,,,,,,,,,,,,,,,,,,,,,,,,,,,,,,,,,,,,,,,
,,,,,,5f8eeed471a1830af422d7a1,62c5391fe83053fd22c814b7,2022-07-06_08h27.15.247,Colour_Asymmetry_Pilot,2022.1.3,Win32,60.51437216,62c50e9c1127f2cd403a315f,0,4,4,33,1,onethree,,,,,,,,,,,,,,,,,,,,,,,,,,,,,,,,,,,,,,,,,,,,,,,,,,,,,,,,,,,,,,,,,,,,,,,,,,,,,,,,,,,,,,,,,,,,,,,,,,,,,,,,,,,,,,,,,,,,,,,,,,,,,,,,,,,,,,,,,,,,,,,,,,,,,,,,,,,,,
,,,,,,5f8eeed471a1830af422d7a1,62c5391fe83053fd22c814b7,2022-07-06_08h27.15.247,Colour_Asymmetry_Pilot,2022.1.3,Win32,60.51437216,62c50e9c1127f2cd403a315f,0,5,5,64,1,onetwo,,,,,,,,,,,,,,,,,,,,,,,,,,,,,,,,,,,,,,,,,,,,,,,,,,,,,,,,,,,,,,,,,,,,,,,,,,,,,,,,,,,,,,,,,,,,,,,,,,,,,,,,,,,,,,,,,,,,,,,,,,,,,,,,,,,,,,,,,,,,,,,,,,,,,,,,,,,,,
,,,,,,5f8eeed471a1830af422d7a1,62c5391fe83053fd22c814b7,2022-07-06_08h27.15.247,Colour_Asymmetry_Pilot,2022.1.3,Win32,60.51437216,62c50e9c1127f2cd403a315f,0,6,6,95,1,fourthree,,,,,,,,,,,,,,,,,,,,,,,,,,,,,,,,,,,,,,,,,,,,,,,,,,,,,,,,,,,,,,,,,,,,,,,,,,,,,,,,,,,,,,,,,,,,,,,,,,,,,,,,,,,,,,,,,,,,,,,,,,,,,,,,,,,,,,,,,,,,,,,,,,,,,,,,,,,,,
,,,,,,5f8eeed471a1830af422d7a1,62c5391fe83053fd22c814b7,2022-07-06_08h27.15.247,Colour_Asymmetry_Pilot,2022.1.3,Win32,60.51437216,62c50e9c1127f2cd403a315f,0,7,7,42,1,twoone,,,,,,,,,,,,,,,,,,,,,,,,,,,,,,,,,,,,,,,,,,,,,,,,,,,,,,,,,,,,,,,,,,,,,,,,,,,,,,,,,,,,,,,,,,,,,,,,,,,,,,,,,,,,,,,,,,,,,,,,,,,,,,,,,,,,,,,,,,,,,,,,,,,,,,,,,,,,,
,,,,,,5f8eeed471a1830af422d7a1,62c5391fe83053fd22c814b7,2022-07-06_08h27.15.247,Colour_Asymmetry_Pilot,2022.1.3,Win32,60.51437216,62c50e9c1127f2cd403a315f,0,8,8,30,1,fourtwo,,,,,,,,,,,,,,,,,,,,,,,,,,,,,,,,,,,,,,,,,,,,,,,,,,,,,,,,,,,,,,,,,,,,,,,,,,,,,,,,,,,,,,,,,,,,,,,,,,,,,,,,,,,,,,,,,,,,,,,,,,,,,,,,,,,,,,,,,,,,,,,,,,,,,,,,,,,,,
,,,,,,5f8eeed471a1830af422d7a1,62c5391fe83053fd22c814b7,2022-07-06_08h27.15.247,Colour_Asymmetry_Pilot,2022.1.3,Win32,60.51437216,62c50e9c1127f2cd403a315f,0,9,9,128,1,onetwo,,,,,,,,,,,,,,,,,,,,,,,,,,,,,,,,,,,,,,,,,,,,,,,,,,,,,,,,,,,,,,,,,,,,,,,,,,,,,,,,,,,,,,,,,,,,,,,,,,,,,,,,,,,,,,,,,,,,,,,,,,,,,,,,,,,,,,,,,,,,,,,,,,,,,,,,,,,,,
,,,,,,5f8eeed471a1830af422d7a1,62c5391fe83053fd22c814b7,2022-07-06_08h27.15.247,Colour_Asymmetry_Pilot,2022.1.3,Win32,60.51437216,62c50e9c1127f2cd403a315f,0,10,10,134,1,fourtwo,,,,,,,,,,,,,,,,,,,,,,,,,,,,,,,,,,,,,,,,,,,,,,,,,,,,,,,,,,,,,,,,,,,,,,,,,,,,,,,,,,,,,,,,,,,,,,,,,,,,,,,,,,,,,,,,,,,,,,,,,,,,,,,,,,,,,,,,,,,,,,,,,,,,,,,,,,,,,
,,,,,,5f8eeed471a1830af422d7a1,62c5391fe83053fd22c814b7,2022-07-06_08h27.15.247,Colour_Asymmetry_Pilot,2022.1.3,Win32,60.51437216,62c50e9c1127f2cd403a315f,0,11,11,20,1,threeone,,,,,,,,,,,,,,,,,,,,,,,,,,,,,,,,,,,,,,,,,,,,,,,,,,,,,,,,,,,,,,,,,,,,,,,,,,,,,,,,,,,,,,,,,,,,,,,,,,,,,,,,,,,,,,,,,,,,,,,,,,,,,,,,,,,,,,,,,,,,,,,,,,,,,,,,,,,,,
,,,,,,5f8eeed471a1830af422d7a1,62c5391fe83053fd22c814b7,2022-07-06_08h27.15.247,Colour_Asymmetry_Pilot,2022.1.3,Win32,60.51437216,62c50e9c1127f2cd403a315f,0,12,12,153,1,onethree,,,,,,,,,,,,,,,,,,,,,,,,,,,,,,,,,,,,,,,,,,,,,,,,,,,,,,,,,,,,,,,,,,,,,,,,,,,,,,,,,,,,,,,,,,,,,,,,,,,,,,,,,,,,,,,,,,,,,,,,,,,,,,,,,,,,,,,,,,,,,,,,,,,,,,,,,,,,,
,,,,,,5f8eeed471a1830af422d7a1,62c5391fe83053fd22c814b7,2022-07-06_08h27.15.247,Colour_Asymmetry_Pilot,2022.1.3,Win32,60.51437216,62c50e9c1127f2cd403a315f,0,13,13,48,1,onetwo,,,,,,,,,,,,,,,,,,,,,,,,,,,,,,,,,,,,,,,,,,,,,,,,,,,,,,,,,,,,,,,,,,,,,,,,,,,,,,,,,,,,,,,,,,,,,,,,,,,,,,,,,,,,,,,,,,,,,,,,,,,,,,,,,,,,,,,,,,,,,,,,,,,,,,,,,,,,,
,,,,,,5f8eeed471a1830af422d7a1,62c5391fe83053fd22c814b7,2022-07-06_08h27.15.247,Colour_Asymmetry_Pilot,2022.1.3,Win32,60.51437216,62c50e9c1127f2cd403a315f,0,14,14,101,1,threefour,,,,,,,,,,,,,,,,,,,,,,,,,,,,,,,,,,,,,,,,,,,,,,,,,,,,,,,,,,,,,,,,,,,,,,,,,,,,,,,,,,,,,,,,,,,,,,,,,,,,,,,,,,,,,,,,,,,,,,,,,,,,,,,,,,,,,,,,,,,,,,,,,,,,,,,,,,,,,
,,,,,,5f8eeed471a1830af422d7a1,62c5391fe83053fd22c814b7,2022-07-06_08h27.15.247,Colour_Asymmetry_Pilot,2022.1.3,Win32,60.51437216,62c50e9c1127f2cd403a315f,0,15,15,80,1,onetwo,,,,,,,,,,,,,,,,,,,,,,,,,,,,,,,,,,,,,,,,,,,,,,,,,,,,,,,,,,,,,,,,,,,,,,,,,,,,,,,,,,,,,,,,,,,,,,,,,,,,,,,,,,,,,,,,,,,,,,,,,,,,,,,,,,,,,,,,,,,,,,,,,,,,,,,,,,,,,
,,,,,,5f8eeed471a1830af422d7a1,62c5391fe83053fd22c814b7,2022-07-06_08h27.15.247,Colour_Asymmetry_Pilot,2022.1.3,Win32,60.51437216,62c50e9c1127f2cd403a315f,0,16,16,145,1,onethree,,,,,,,,,,,,,,,,,,,,,,,,,,,,,,,,,,,,,,,,,,,,,,,,,,,,,,,,,,,,,,,,,,,,,,,,,,,,,,,,,,,,,,,,,,,,,,,,,,,,,,,,,,,,,,,,,,,,,,,,,,,,,,,,,,,,,,,,,,,,,,,,,,,,,,,,,,,,,
,,,,,,5f8eeed471a1830af422d7a1,62c5391fe83053fd22c814b7,2022-07-06_08h27.15.247,Colour_Asymmetry_Pilot,2022.1.3,Win32,60.51437216,62c50e9c1127f2cd403a315f,0,17,17,96,1,onetwo,,,,,,,,,,,,,,,,,,,,,,,,,,,,,,,,,,,,,,,,,,,,,,,,,,,,,,,,,,,,,,,,,,,,,,,,,,,,,,,,,,,,,,,,,,,,,,,,,,,,,,,,,,,,,,,,,,,,,,,,,,,,,,,,,,,,,,,,,,,,,,,,,,,,,,,,,,,,,
,,,,,,5f8eeed471a1830af422d7a1,62c5391fe83053fd22c814b7,2022-07-06_08h27.15.247,Colour_Asymmetry_Pilot,2022.1.3,Win32,60.51437216,62c50e9c1127f2cd403a315f,0,18,18,7,1,fourthree,,,,,,,,,,,,,,,,,,,,,,,,,,,,,,,,,,,,,,,,,,,,,,,,,,,,,,,,,,,,,,,,,,,,,,,,,,,,,,,,,,,,,,,,,,,,,,,,,,,,,,,,,,,,,,,,,,,,,,,,,,,,,,,,,,,,,,,,,,,,,,,,,,,,,,,,,,,,,
,,,,,,5f8eeed471a1830af422d7a1,62c5391fe83053fd22c814b7,2022-07-06_08h27.15.247,Colour_Asymmetry_Pilot,2022.1.3,Win32,60.51437216,62c50e9c1127f2cd403a315f,0,19,19,160,1,onetwo,,,,,,,,,,,,,,,,,,,,,,,,,,,,,,,,,,,,,,,,,,,,,,,,,,,,,,,,,,,,,,,,,,,,,,,,,,,,,,,,,,,,,,,,,,,,,,,,,,,,,,,,,,,,,,,,,,,,,,,,,,,,,,,,,,,,,,,,,,,,,,,,,,,,,,,,,,,,,
,,,,,,5f8eeed471a1830af422d7a1,62c5391fe83053fd22c814b7,2022-07-06_08h27.15.247,Colour_Asymmetry_Pilot,2022.1.3,Win32,60.51437216,62c50e9c1127f2cd403a315f,0,20,20,130,1,twoone,,,,,,,,,,,,,,,,,,,,,,,,,,,,,,,,,,,,,,,,,,,,,,,,,,,,,,,,,,,,,,,,,,,,,,,,,,,,,,,,,,,,,,,,,,,,,,,,,,,,,,,,,,,,,,,,,,,,,,,,,,,,,,,,,,,,,,,,,,,,,,,,,,,,,,,,,,,,,
,,,,,,5f8eeed471a1830af422d7a1,62c5391fe83053fd22c814b7,2022-07-06_08h27.15.247,Colour_Asymmetry_Pilot,2022.1.3,Win32,60.51437216,62c50e9c1127f2cd403a315f,0,21,21,38,1,fourtwo,,,,,,,,,,,,,,,,,,,,,,,,,,,,,,,,,,,,,,,,,,,,,,,,,,,,,,,,,,,,,,,,,,,,,,,,,,,,,,,,,,,,,,,,,,,,,,,,,,,,,,,,,,,,,,,,,,,,,,,,,,,,,,,,,,,,,,,,,,,,,,,,,,,,,,,,,,,,,
,,,,,,5f8eeed471a1830af422d7a1,62c5391fe83053fd22c814b7,2022-07-06_08h27.15.247,Colour_Asymmetry_Pilot,2022.1.3,Win32,60.51437216,62c50e9c1127f2cd403a315f,0,22,22,45,1,threefour,,,,,,,,,,,,,,,,,,,,,,,,,,,,,,,,,,,,,,,,,,,,,,,,,,,,,,,,,,,,,,,,,,,,,,,,,,,,,,,,,,,,,,,,,,,,,,,,,,,,,,,,,,,,,,,,,,,,,,,,,,,,,,,,,,,,,,,,,,,,,,,,,,,,,,,,,,,,,
,,,,,,5f8eeed471a1830af422d7a1,62c5391fe83053fd22c814b7,2022-07-06_08h27.15.247,Colour_Asymmetry_Pilot,2022.1.3,Win32,60.51437216,62c50e9c1127f2cd403a315f,0,23,23,47,1,fourthree,,,,,,,,,,,,,,,,,,,,,,,,,,,,,,,,,,,,,,,,,,,,,,,,,,,,,,,,,,,,,,,,,,,,,,,,,,,,,,,,,,,,,,,,,,,,,,,,,,,,,,,,,,,,,,,,,,,,,,,,,,,,,,,,,,,,,,,,,,,,,,,,,,,,,,,,,,,,,
,,,,,,5f8eeed471a1830af422d7a1,62c5391fe83053fd22c814b7,2022-07-06_08h27.15.247,Colour_Asymmetry_Pilot,2022.1.3,Win32,60.51437216,62c50e9c1127f2cd403a315f,0,24,24,28,1,threeone,,,,,,,,,,,,,,,,,,,,,,,,,,,,,,,,,,,,,,,,,,,,,,,,,,,,,,,,,,,,,,,,,,,,,,,,,,,,,,,,,,,,,,,,,,,,,,,,,,,,,,,,,,,,,,,,,,,,,,,,,,,,,,,,,,,,,,,,,,,,,,,,,,,,,,,,,,,,,
,,,,,,5f8eeed471a1830af422d7a1,62c5391fe83053fd22c814b7,2022-07-06_08h27.15.247,Colour_Asymmetry_Pilot,2022.1.3,Win32,60.51437216,62c50e9c1127f2cd403a315f,0,25,25,139,1,twofour,,,,,,,,,,,,,,,,,,,,,,,,,,,,,,,,,,,,,,,,,,,,,,,,,,,,,,,,,,,,,,,,,,,,,,,,,,,,,,,,,,,,,,,,,,,,,,,,,,,,,,,,,,,,,,,,,,,,,,,,,,,,,,,,,,,,,,,,,,,,,,,,,,,,,,,,,,,,,
,,,,,,5f8eeed471a1830af422d7a1,62c5391fe83053fd22c814b7,2022-07-06_08h27.15.247,Colour_Asymmetry_Pilot,2022.1.3,Win32,60.51437216,62c50e9c1127f2cd403a315f,0,26,26,91,1,twofour,,,,,,,,,,,,,,,,,,,,,,,,,,,,,,,,,,,,,,,,,,,,,,,,,,,,,,,,,,,,,,,,,,,,,,,,,,,,,,,,,,,,,,,,,,,,,,,,,,,,,,,,,,,,,,,,,,,,,,,,,,,,,,,,,,,,,,,,,,,,,,,,,,,,,,,,,,,,,
,,,,,,5f8eeed471a1830af422d7a1,62c5391fe83053fd22c814b7,2022-07-06_08h27.15.247,Colour_Asymmetry_Pilot,2022.1.3,Win32,60.51437216,62c50e9c1127f2cd403a315f,0,27,27,14,1,fourtwo,,,,,,,,,,,,,,,,,,,,,,,,,,,,,,,,,,,,,,,,,,,,,,,,,,,,,,,,,,,,,,,,,,,,,,,,,,,,,,,,,,,,,,,,,,,,,,,,,,,,,,,,,,,,,,,,,,,,,,,,,,,,,,,,,,,,,,,,,,,,,,,,,,,,,,,,,,,,,
,,,,,,5f8eeed471a1830af422d7a1,62c5391fe83053fd22c814b7,2022-07-06_08h27.15.247,Colour_Asymmetry_Pilot,2022.1.3,Win32,60.51437216,62c50e9c1127f2cd403a315f,0,28,28,35,1,twofour,,,,,,,,,,,,,,,,,,,,,,,,,,,,,,,,,,,,,,,,,,,,,,,,,,,,,,,,,,,,,,,,,,,,,,,,,,,,,,,,,,,,,,,,,,,,,,,,,,,,,,,,,,,,,,,,,,,,,,,,,,,,,,,,,,,,,,,,,,,,,,,,,,,,,,,,,,,,,
,,,,,,5f8eeed471a1830af422d7a1,62c5391fe83053fd22c814b7,2022-07-06_08h27.15.247,Colour_Asymmetry_Pilot,2022.1.3,Win32,60.51437216,62c50e9c1127f2cd403a315f,0,29,29,109,1,threefour,,,,,,,,,,,,,,,,,,,,,,,,,,,,,,,,,,,,,,,,,,,,,,,,,,,,,,,,,,,,,,,,,,,,,,,,,,,,,,,,,,,,,,,,,,,,,,,,,,,,,,,,,,,,,,,,,,,,,,,,,,,,,,,,,,,,,,,,,,,,,,,,,,,,,,,,,,,,,
,,,,,,5f8eeed471a1830af422d7a1,62c5391fe83053fd22c814b7,2022-07-06_08h27.15.247,Colour_Asymmetry_Pilot,2022.1.3,Win32,60.51437216,62c50e9c1127f2cd403a315f,0,30,30,147,1,twofour,,,,,,,,,,,,,,,,,,,,,,,,,,,,,,,,,,,,,,,,,,,,,,,,,,,,,,,,,,,,,,,,,,,,,,,,,,,,,,,,,,,,,,,,,,,,,,,,,,,,,,,,,,,,,,,,,,,,,,,,,,,,,,,,,,,,,,,,,,,,,,,,,,,,,,,,,,,,,
,,,,,,5f8eeed471a1830af422d7a1,62c5391fe83053fd22c814b7,2022-07-06_08h27.15.247,Colour_Asymmetry_Pilot,2022.1.3,Win32,60.51437216,62c50e9c1127f2cd403a315f,0,31,31,121,1,onethree,,,,,,,,,,,,,,,,,,,,,,,,,,,,,,,,,,,,,,,,,,,,,,,,,,,,,,,,,,,,,,,,,,,,,,,,,,,,,,,,,,,,,,,,,,,,,,,,,,,,,,,,,,,,,,,,,,,,,,,,,,,,,,,,,,,,,,,,,,,,,,,,,,,,,,,,,,,,,
,,,,,,5f8eeed471a1830af422d7a1,62c5391fe83053fd22c814b7,2022-07-06_08h27.15.247,Colour_Asymmetry_Pilot,2022.1.3,Win32,60.51437216,62c50e9c1127f2cd403a315f,0,32,32,40,1,onetwo,,,,,,,,,,,,,,,,,,,,,,,,,,,,,,,,,,,,,,,,,,,,,,,,,,,,,,,,,,,,,,,,,,,,,,,,,,,,,,,,,,,,,,,,,,,,,,,,,,,,,,,,,,,,,,,,,,,,,,,,,,,,,,,,,,,,,,,,,,,,,,,,,,,,,,,,,,,,,
,,,,,,5f8eeed471a1830af422d7a1,62c5391fe83053fd22c814b7,2022-07-06_08h27.15.247,Colour_Asymmetry_Pilot,2022.1.3,Win32,60.51437216,62c50e9c1127f2cd403a315f,0,33,33,127,1,fourthree,,,,,,,,,,,,,,,,,,,,,,,,,,,,,,,,,,,,,,,,,,,,,,,,,,,,,,,,,,,,,,,,,,,,,,,,,,,,,,,,,,,,,,,,,,,,,,,,,,,,,,,,,,,,,,,,,,,,,,,,,,,,,,,,,,,,,,,,,,,,,,,,,,,,,,,,,,,,,
,,,,,,5f8eeed471a1830af422d7a1,62c5391fe83053fd22c814b7,2022-07-06_08h27.15.247,Colour_Asymmetry_Pilot,2022.1.3,Win32,60.51437216,62c50e9c1127f2cd403a315f,0,34,34,117,1,threefour,,,,,,,,,,,,,,,,,,,,,,,,,,,,,,,,,,,,,,,,,,,,,,,,,,,,,,,,,,,,,,,,,,,,,,,,,,,,,,,,,,,,,,,,,,,,,,,,,,,,,,,,,,,,,,,,,,,,,,,,,,,,,,,,,,,,,,,,,,,,,,,,,,,,,,,,,,,,,
,,,,,,5f8eeed471a1830af422d7a1,62c5391fe83053fd22c814b7,2022-07-06_08h27.15.247,Colour_Asymmetry_Pilot,2022.1.3,Win32,60.51437216,62c50e9c1127f2cd403a315f,0,35,35,72,1,onetwo,,,,,,,,,,,,,,,,,,,,,,,,,,,,,,,,,,,,,,,,,,,,,,,,,,,,,,,,,,,,,,,,,,,,,,,,,,,,,,,,,,,,,,,,,,,,,,,,,,,,,,,,,,,,,,,,,,,,,,,,,,,,,,,,,,,,,,,,,,,,,,,,,,,,,,,,,,,,,
,,,,,,5f8eeed471a1830af422d7a1,62c5391fe83053fd22c814b7,2022-07-06_08h27.15.247,Colour_Asymmetry_Pilot,2022.1.3,Win32,60.51437216,62c50e9c1127f2cd403a315f,0,36,36,1,1,onethree,,,,,,,,,,,,,,,,,,,,,,,,,,,,,,,,,,,,,,,,,,,,,,,,,,,,,,,,,,,,,,,,,,,,,,,,,,,,,,,,,,,,,,,,,,,,,,,,,,,,,,,,,,,,,,,,,,,,,,,,,,,,,,,,,,,,,,,,,,,,,,,,,,,,,,,,,,,,,
,,,,,,5f8eeed471a1830af422d7a1,62c5391fe83053fd22c814b7,2022-07-06_08h27.15.247,Colour_Asymmetry_Pilot,2022.1.3,Win32,60.51437216,62c50e9c1127f2cd403a315f,0,37,37,15,1,fourthree,,,,,,,,,,,,,,,,,,,,,,,,,,,,,,,,,,,,,,,,,,,,,,,,,,,,,,,,,,,,,,,,,,,,,,,,,,,,,,,,,,,,,,,,,,,,,,,,,,,,,,,,,,,,,,,,,,,,,,,,,,,,,,,,,,,,,,,,,,,,,,,,,,,,,,,,,,,,,
,,,,,,5f8eeed471a1830af422d7a1,62c5391fe83053fd22c814b7,2022-07-06_08h27.15.247,Colour_Asymmetry_Pilot,2022.1.3,Win32,60.51437216,62c50e9c1127f2cd403a315f,0,38,38,27,1,twofour,,,,,,,,,,,,,,,,,,,,,,,,,,,,,,,,,,,,,,,,,,,,,,,,,,,,,,,,,,,,,,,,,,,,,,,,,,,,,,,,,,,,,,,,,,,,,,,,,,,,,,,,,,,,,,,,,,,,,,,,,,,,,,,,,,,,,,,,,,,,,,,,,,,,,,,,,,,,,
,,,,,,5f8eeed471a1830af422d7a1,62c5391fe83053fd22c814b7,2022-07-06_08h27.15.247,Colour_Asymmetry_Pilot,2022.1.3,Win32,60.51437216,62c50e9c1127f2cd403a315f,0,39,39,132,1,threeone,,,,,,,,,,,,,,,,,,,,,,,,,,,,,,,,,,,,,,,,,,,,,,,,,,,,,,,,,,,,,,,,,,,,,,,,,,,,,,,,,,,,,,,,,,,,,,,,,,,,,,,,,,,,,,,,,,,,,,,,,,,,,,,,,,,,,,,,,,,,,,,,,,,,,,,,,,,,,
,,,,,,5f8eeed471a1830af422d7a1,62c5391fe83053fd22c814b7,2022-07-06_08h27.15.247,Colour_Asymmetry_Pilot,2022.1.3,Win32,60.51437216,62c50e9c1127f2cd403a315f,0,40,40,70,1,fourtwo,,,,,,,,,,,,,,,,,,,,,,,,,,,,,,,,,,,,,,,,,,,,,,,,,,,,,,,,,,,,,,,,,,,,,,,,,,,,,,,,,,,,,,,,,,,,,,,,,,,,,,,,,,,,,,,,,,,,,,,,,,,,,,,,,,,,,,,,,,,,,,,,,,,,,,,,,,,,,
,,,,,,5f8eeed471a1830af422d7a1,62c5391fe83053fd22c814b7,2022-07-06_08h27.15.247,Colour_Asymmetry_Pilot,2022.1.3,Win32,60.51437216,62c50e9c1127f2cd403a315f,0,41,41,44,1,threeone,,,,,,,,,,,,,,,,,,,,,,,,,,,,,,,,,,,,,,,,,,,,,,,,,,,,,,,,,,,,,,,,,,,,,,,,,,,,,,,,,,,,,,,,,,,,,,,,,,,,,,,,,,,,,,,,,,,,,,,,,,,,,,,,,,,,,,,,,,,,,,,,,,,,,,,,,,,,,
,,,,,,5f8eeed471a1830af422d7a1,62c5391fe83053fd22c814b7,2022-07-06_08h27.15.247,Colour_Asymmetry_Pilot,2022.1.3,Win32,60.51437216,62c50e9c1127f2cd403a315f,0,42,42,100,1,threeone,,,,,,,,,,,,,,,,,,,,,,,,,,,,,,,,,,,,,,,,,,,,,,,,,,,,,,,,,,,,,,,,,,,,,,,,,,,,,,,,,,,,,,,,,,,,,,,,,,,,,,,,,,,,,,,,,,,,,,,,,,,,,,,,,,,,,,,,,,,,,,,,,,,,,,,,,,,,,
,,,,,,5f8eeed471a1830af422d7a1,62c5391fe83053fd22c814b7,2022-07-06_08h27.15.247,Colour_Asymmetry_Pilot,2022.1.3,Win32,60.51437216,62c50e9c1127f2cd403a315f,0,43,43,86,1,fourtwo,,,,,,,,,,,,,,,,,,,,,,,,,,,,,,,,,,,,,,,,,,,,,,,,,,,,,,,,,,,,,,,,,,,,,,,,,,,,,,,,,,,,,,,,,,,,,,,,,,,,,,,,,,,,,,,,,,,,,,,,,,,,,,,,,,,,,,,,,,,,,,,,,,,,,,,,,,,,,
,,,,,,5f8eeed471a1830af422d7a1,62c5391fe83053fd22c814b7,2022-07-06_08h27.15.247,Colour_Asymmetry_Pilot,2022.1.3,Win32,60.51437216,62c50e9c1127f2cd403a315f,0,44,44,140,1,threeone,,,,,,,,,,,,,,,,,,,,,,,,,,,,,,,,,,,,,,,,,,,,,,,,,,,,,,,,,,,,,,,,,,,,,,,,,,,,,,,,,,,,,,,,,,,,,,,,,,,,,,,,,,,,,,,,,,,,,,,,,,,,,,,,,,,,,,,,,,,,,,,,,,,,,,,,,,,,,
,,,,,,5f8eeed471a1830af422d7a1,62c5391fe83053fd22c814b7,2022-07-06_08h27.15.247,Colour_Asymmetry_Pilot,2022.1.3,Win32,60.51437216,62c50e9c1127f2cd403a315f,0,45,45,146,1,twoone,,,,,,,,,,,,,,,,,,,,,,,,,,,,,,,,,,,,,,,,,,,,,,,,,,,,,,,,,,,,,,,,,,,,,,,,,,,,,,,,,,,,,,,,,,,,,,,,,,,,,,,,,,,,,,,,,,,,,,,,,,,,,,,,,,,,,,,,,,,,,,,,,,,,,,,,,,,,,
,,,,,,5f8eeed471a1830af422d7a1,62c5391fe83053fd22c814b7,2022-07-06_08h27.15.247,Colour_Asymmetry_Pilot,2022.1.3,Win32,60.51437216,62c50e9c1127f2cd403a315f,0,46,46,75,1,twofour,,,,,,,,,,,,,,,,,,,,,,,,,,,,,,,,,,,,,,,,,,,,,,,,,,,,,,,,,,,,,,,,,,,,,,,,,,,,,,,,,,,,,,,,,,,,,,,,,,,,,,,,,,,,,,,,,,,,,,,,,,,,,,,,,,,,,,,,,,,,,,,,,,,,,,,,,,,,,
,,,,,,5f8eeed471a1830af422d7a1,62c5391fe83053fd22c814b7,2022-07-06_08h27.15.247,Colour_Asymmetry_Pilot,2022.1.3,Win32,60.51437216,62c50e9c1127f2cd403a315f,0,47,47,123,1,twofour,,,,,,,,,,,,,,,,,,,,,,,,,,,,,,,,,,,,,,,,,,,,,,,,,,,,,,,,,,,,,,,,,,,,,,,,,,,,,,,,,,,,,,,,,,,,,,,,,,,,,,,,,,,,,,,,,,,,,,,,,,,,,,,,,,,,,,,,,,,,,,,,,,,,,,,,,,,,,
,,,,,,5f8eeed471a1830af422d7a1,62c5391fe83053fd22c814b7,2022-07-06_08h27.15.247,Colour_Asymmetry_Pilot,2022.1.3,Win32,60.51437216,62c50e9c1127f2cd403a315f,0,48,48,151,1,fourthree,,,,,,,,,,,,,,,,,,,,,,,,,,,,,,,,,,,,,,,,,,,,,,,,,,,,,,,,,,,,,,,,,,,,,,,,,,,,,,,,,,,,,,,,,,,,,,,,,,,,,,,,,,,,,,,,,,,,,,,,,,,,,,,,,,,,,,,,,,,,,,,,,,,,,,,,,,,,,
,,,,,,5f8eeed471a1830af422d7a1,62c5391fe83053fd22c814b7,2022-07-06_08h27.15.247,Colour_Asymmetry_Pilot,2022.1.3,Win32,60.51437216,62c50e9c1127f2cd403a315f,0,49,49,10,1,twoone,,,,,,,,,,,,,,,,,,,,,,,,,,,,,,,,,,,,,,,,,,,,,,,,,,,,,,,,,,,,,,,,,,,,,,,,,,,,,,,,,,,,,,,,,,,,,,,,,,,,,,,,,,,,,,,,,,,,,,,,,,,,,,,,,,,,,,,,,,,,,,,,,,,,,,,,,,,,,
,,,,,,5f8eeed471a1830af422d7a1,62c5391fe83053fd22c814b7,2022-07-06_08h27.15.247,Colour_Asymmetry_Pilot,2022.1.3,Win32,60.51437216,62c50e9c1127f2cd403a315f,0,50,50,65,1,onethree,,,,,,,,,,,,,,,,,,,,,,,,,,,,,,,,,,,,,,,,,,,,,,,,,,,,,,,,,,,,,,,,,,,,,,,,,,,,,,,,,,,,,,,,,,,,,,,,,,,,,,,,,,,,,,,,,,,,,,,,,,,,,,,,,,,,,,,,,,,,,,,,,,,,,,,,,,,,,
,,,,,,5f8eeed471a1830af422d7a1,62c5391fe83053fd22c814b7,2022-07-06_08h27.15.247,Colour_Asymmetry_Pilot,2022.1.3,Win32,60.51437216,62c50e9c1127f2cd403a315f,0,51,51,155,1,twofour,,,,,,,,,,,,,,,,,,,,,,,,,,,,,,,,,,,,,,,,,,,,,,,,,,,,,,,,,,,,,,,,,,,,,,,,,,,,,,,,,,,,,,,,,,,,,,,,,,,,,,,,,,,,,,,,,,,,,,,,,,,,,,,,,,,,,,,,,,,,,,,,,,,,,,,,,,,,,
,,,,,,5f8eeed471a1830af422d7a1,62c5391fe83053fd22c814b7,2022-07-06_08h27.15.247,Colour_Asymmetry_Pilot,2022.1.3,Win32,60.51437216,62c50e9c1127f2cd403a315f,0,52,52,158,1,fourtwo,,,,,,,,,,,,,,,,,,,,,,,,,,,,,,,,,,,,,,,,,,,,,,,,,,,,,,,,,,,,,,,,,,,,,,,,,,,,,,,,,,,,,,,,,,,,,,,,,,,,,,,,,,,,,,,,,,,,,,,,,,,,,,,,,,,,,,,,,,,,,,,,,,,,,,,,,,,,,
,,,,,,5f8eeed471a1830af422d7a1,62c5391fe83053fd22c814b7,2022-07-06_08h27.15.247,Colour_Asymmetry_Pilot,2022.1.3,Win32,60.51437216,62c50e9c1127f2cd403a315f,0,53,53,111,1,fourthree,,,,,,,,,,,,,,,,,,,,,,,,,,,,,,,,,,,,,,,,,,,,,,,,,,,,,,,,,,,,,,,,,,,,,,,,,,,,,,,,,,,,,,,,,,,,,,,,,,,,,,,,,,,,,,,,,,,,,,,,,,,,,,,,,,,,,,,,,,,,,,,,,,,,,,,,,,,,,
,,,,,,5f8eeed471a1830af422d7a1,62c5391fe83053fd22c814b7,2022-07-06_08h27.15.247,Colour_Asymmetry_Pilot,2022.1.3,Win32,60.51437216,62c50e9c1127f2cd403a315f,0,54,54,78,1,fourtwo,,,,,,,,,,,,,,,,,,,,,,,,,,,,,,,,,,,,,,,,,,,,,,,,,,,,,,,,,,,,,,,,,,,,,,,,,,,,,,,,,,,,,,,,,,,,,,,,,,,,,,,,,,,,,,,,,,,,,,,,,,,,,,,,,,,,,,,,,,,,,,,,,,,,,,,,,,,,,
,,,,,,5f8eeed471a1830af422d7a1,62c5391fe83053fd22c814b7,2022-07-06_08h27.15.247,Colour_Asymmetry_Pilot,2022.1.3,Win32,60.51437216,62c50e9c1127f2cd403a315f,0,55,55,133,1,threefour,,,,,,,,,,,,,,,,,,,,,,,,,,,,,,,,,,,,,,,,,,,,,,,,,,,,,,,,,,,,,,,,,,,,,,,,,,,,,,,,,,,,,,,,,,,,,,,,,,,,,,,,,,,,,,,,,,,,,,,,,,,,,,,,,,,,,,,,,,,,,,,,,,,,,,,,,,,,,
,,,,,,5f8eeed471a1830af422d7a1,62c5391fe83053fd22c814b7,2022-07-06_08h27.15.247,Colour_Asymmetry_Pilot,2022.1.3,Win32,60.51437216,62c50e9c1127f2cd403a315f,0,56,56,51,1,twofour,,,,,,,,,,,,,,,,,,,,,,,,,,,,,,,,,,,,,,,,,,,,,,,,,,,,,,,,,,,,,,,,,,,,,,,,,,,,,,,,,,,,,,,,,,,,,,,,,,,,,,,,,,,,,,,,,,,,,,,,,,,,,,,,,,,,,,,,,,,,,,,,,,,,,,,,,,,,,
,,,,,,5f8eeed471a1830af422d7a1,62c5391fe83053fd22c814b7,2022-07-06_08h27.15.247,Colour_Asymmetry_Pilot,2022.1.3,Win32,60.51437216,62c50e9c1127f2cd403a315f,0,57,57,157,1,threefour,,,,,,,,,,,,,,,,,,,,,,,,,,,,,,,,,,,,,,,,,,,,,,,,,,,,,,,,,,,,,,,,,,,,,,,,,,,,,,,,,,,,,,,,,,,,,,,,,,,,,,,,,,,,,,,,,,,,,,,,,,,,,,,,,,,,,,,,,,,,,,,,,,,,,,,,,,,,,
,,,,,,5f8eeed471a1830af422d7a1,62c5391fe83053fd22c814b7,2022-07-06_08h27.15.247,Colour_Asymmetry_Pilot,2022.1.3,Win32,60.51437216,62c50e9c1127f2cd403a315f,0,58,58,120,1,onetwo,,,,,,,,,,,,,,,,,,,,,,,,,,,,,,,,,,,,,,,,,,,,,,,,,,,,,,,,,,,,,,,,,,,,,,,,,,,,,,,,,,,,,,,,,,,,,,,,,,,,,,,,,,,,,,,,,,,,,,,,,,,,,,,,,,,,,,,,,,,,,,,,,,,,,,,,,,,,,
,,,,,,5f8eeed471a1830af422d7a1,62c5391fe83053fd22c814b7,2022-07-06_08h27.15.247,Colour_Asymmetry_Pilot,2022.1.3,Win32,60.51437216,62c50e9c1127f2cd403a315f,0,59,59,32,1,onetwo,,,,,,,,,,,,,,,,,,,,,,,,,,,,,,,,,,,,,,,,,,,,,,,,,,,,,,,,,,,,,,,,,,,,,,,,,,,,,,,,,,,,,,,,,,,,,,,,,,,,,,,,,,,,,,,,,,,,,,,,,,,,,,,,,,,,,,,,,,,,,,,,,,,,,,,,,,,,,
,,,,,,5f8eeed471a1830af422d7a1,62c5391fe83053fd22c814b7,2022-07-06_08h27.15.247,Colour_Asymmetry_Pilot,2022.1.3,Win32,60.51437216,62c50e9c1127f2cd403a315f,0,60,60,124,1,threeone,,,,,,,,,,,,,,,,,,,,,,,,,,,,,,,,,,,,,,,,,,,,,,,,,,,,,,,,,,,,,,,,,,,,,,,,,,,,,,,,,,,,,,,,,,,,,,,,,,,,,,,,,,,,,,,,,,,,,,,,,,,,,,,,,,,,,,,,,,,,,,,,,,,,,,,,,,,,,
,,,,,,5f8eeed471a1830af422d7a1,62c5391fe83053fd22c814b7,2022-07-06_08h27.15.247,Colour_Asymmetry_Pilot,2022.1.3,Win32,60.51437216,62c50e9c1127f2cd403a315f,0,61,61,63,1,fourthree,,,,,,,,,,,,,,,,,,,,,,,,,,,,,,,,,,,,,,,,,,,,,,,,,,,,,,,,,,,,,,,,,,,,,,,,,,,,,,,,,,,,,,,,,,,,,,,,,,,,,,,,,,,,,,,,,,,,,,,,,,,,,,,,,,,,,,,,,,,,,,,,,,,,,,,,,,,,,
,,,,,,5f8eeed471a1830af422d7a1,62c5391fe83053fd22c814b7,2022-07-06_08h27.15.247,Colour_Asymmetry_Pilot,2022.1.3,Win32,60.51437216,62c50e9c1127f2cd403a315f,0,62,62,58,1,twoone,,,,,,,,,,,,,,,,,,,,,,,,,,,,,,,,,,,,,,,,,,,,,,,,,,,,,,,,,,,,,,,,,,,,,,,,,,,,,,,,,,,,,,,,,,,,,,,,,,,,,,,,,,,,,,,,,,,,,,,,,,,,,,,,,,,,,,,,,,,,,,,,,,,,,,,,,,,,,
,,,,,,5f8eeed471a1830af422d7a1,62c5391fe83053fd22c814b7,2022-07-06_08h27.15.247,Colour_Asymmetry_Pilot,2022.1.3,Win32,60.51437216,62c50e9c1127f2cd403a315f,0,63,63,52,1,threeone,,,,,,,,,,,,,,,,,,,,,,,,,,,,,,,,,,,,,,,,,,,,,,,,,,,,,,,,,,,,,,,,,,,,,,,,,,,,,,,,,,,,,,,,,,,,,,,,,,,,,,,,,,,,,,,,,,,,,,,,,,,,,,,,,,,,,,,,,,,,,,,,,,,,,,,,,,,,,
,,,,,,5f8eeed471a1830af422d7a1,62c5391fe83053fd22c814b7,2022-07-06_08h27.15.247,Colour_Asymmetry_Pilot,2022.1.3,Win32,60.51437216,62c50e9c1127f2cd403a315f,0,64,64,83,1,twofour,,,,,,,,,,,,,,,,,,,,,,,,,,,,,,,,,,,,,,,,,,,,,,,,,,,,,,,,,,,,,,,,,,,,,,,,,,,,,,,,,,,,,,,,,,,,,,,,,,,,,,,,,,,,,,,,,,,,,,,,,,,,,,,,,,,,,,,,,,,,,,,,,,,,,,,,,,,,,
,,,,,,5f8eeed471a1830af422d7a1,62c5391fe83053fd22c814b7,2022-07-06_08h27.15.247,Colour_Asymmetry_Pilot,2022.1.3,Win32,60.51437216,62c50e9c1127f2cd403a315f,0,65,65,66,1,twoone,,,,,,,,,,,,,,,,,,,,,,,,,,,,,,,,,,,,,,,,,,,,,,,,,,,,,,,,,,,,,,,,,,,,,,,,,,,,,,,,,,,,,,,,,,,,,,,,,,,,,,,,,,,,,,,,,,,,,,,,,,,,,,,,,,,,,,,,,,,,,,,,,,,,,,,,,,,,,
,,,,,,5f8eeed471a1830af422d7a1,62c5391fe83053fd22c814b7,2022-07-06_08h27.15.247,Colour_Asymmetry_Pilot,2022.1.3,Win32,60.51437216,62c50e9c1127f2cd403a315f,0,66,66,6,1,fourtwo,,,,,,,,,,,,,,,,,,,,,,,,,,,,,,,,,,,,,,,,,,,,,,,,,,,,,,,,,,,,,,,,,,,,,,,,,,,,,,,,,,,,,,,,,,,,,,,,,,,,,,,,,,,,,,,,,,,,,,,,,,,,,,,,,,,,,,,,,,,,,,,,,,,,,,,,,,,,,
,,,,,,5f8eeed471a1830af422d7a1,62c5391fe83053fd22c814b7,2022-07-06_08h27.15.247,Colour_Asymmetry_Pilot,2022.1.3,Win32,60.51437216,62c50e9c1127f2cd403a315f,0,67,67,49,1,onethree,,,,,,,,,,,,,,,,,,,,,,,,,,,,,,,,,,,,,,,,,,,,,,,,,,,,,,,,,,,,,,,,,,,,,,,,,,,,,,,,,,,,,,,,,,,,,,,,,,,,,,,,,,,,,,,,,,,,,,,,,,,,,,,,,,,,,,,,,,,,,,,,,,,,,,,,,,,,,
,,,,,,5f8eeed471a1830af422d7a1,62c5391fe83053fd22c814b7,2022-07-06_08h27.15.247,Colour_Asymmetry_Pilot,2022.1.3,Win32,60.51437216,62c50e9c1127f2cd403a315f,0,68,68,43,1,twofour,,,,,,,,,,,,,,,,,,,,,,,,,,,,,,,,,,,,,,,,,,,,,,,,,,,,,,,,,,,,,,,,,,,,,,,,,,,,,,,,,,,,,,,,,,,,,,,,,,,,,,,,,,,,,,,,,,,,,,,,,,,,,,,,,,,,,,,,,,,,,,,,,,,,,,,,,,,,,
,,,,,,5f8eeed471a1830af422d7a1,62c5391fe83053fd22c814b7,2022-07-06_08h27.15.247,Colour_Asymmetry_Pilot,2022.1.3,Win32,60.51437216,62c50e9c1127f2cd403a315f,0,69,69,46,1,fourtwo,,,,,,,,,,,,,,,,,,,,,,,,,,,,,,,,,,,,,,,,,,,,,,,,,,,,,,,,,,,,,,,,,,,,,,,,,,,,,,,,,,,,,,,,,,,,,,,,,,,,,,,,,,,,,,,,,,,,,,,,,,,,,,,,,,,,,,,,,,,,,,,,,,,,,,,,,,,,,
,,,,,,5f8eeed471a1830af422d7a1,62c5391fe83053fd22c814b7,2022-07-06_08h27.15.247,Colour_Asymmetry_Pilot,2022.1.3,Win32,60.51437216,62c50e9c1127f2cd403a315f,0,70,70,98,1,twoone,,,,,,,,,,,,,,,,,,,,,,,,,,,,,,,,,,,,,,,,,,,,,,,,,,,,,,,,,,,,,,,,,,,,,,,,,,,,,,,,,,,,,,,,,,,,,,,,,,,,,,,,,,,,,,,,,,,,,,,,,,,,,,,,,,,,,,,,,,,,,,,,,,,,,,,,,,,,,
,,,,,,5f8eeed471a1830af422d7a1,62c5391fe83053fd22c814b7,2022-07-06_08h27.15.247,Colour_Asymmetry_Pilot,2022.1.3,Win32,60.51437216,62c50e9c1127f2cd403a315f,0,71,71,138,1,twoone,,,,,,,,,,,,,,,,,,,,,,,,,,,,,,,,,,,,,,,,,,,,,,,,,,,,,,,,,,,,,,,,,,,,,,,,,,,,,,,,,,,,,,,,,,,,,,,,,,,,,,,,,,,,,,,,,,,,,,,,,,,,,,,,,,,,,,,,,,,,,,,,,,,,,,,,,,,,,
,,,,,,5f8eeed471a1830af422d7a1,62c5391fe83053fd22c814b7,2022-07-06_08h27.15.247,Colour_Asymmetry_Pilot,2022.1.3,Win32,60.51437216,62c50e9c1127f2cd403a315f,0,72,72,94,1,fourtwo,,,,,,,,,,,,,,,,,,,,,,,,,,,,,,,,,,,,,,,,,,,,,,,,,,,,,,,,,,,,,,,,,,,,,,,,,,,,,,,,,,,,,,,,,,,,,,,,,,,,,,,,,,,,,,,,,,,,,,,,,,,,,,,,,,,,,,,,,,,,,,,,,,,,,,,,,,,,,
,,,,,,5f8eeed471a1830af422d7a1,62c5391fe83053fd22c814b7,2022-07-06_08h27.15.247,Colour_Asymmetry_Pilot,2022.1.3,Win32,60.51437216,62c50e9c1127f2cd403a315f,0,73,73,107,1,twofour,,,,,,,,,,,,,,,,,,,,,,,,,,,,,,,,,,,,,,,,,,,,,,,,,,,,,,,,,,,,,,,,,,,,,,,,,,,,,,,,,,,,,,,,,,,,,,,,,,,,,,,,,,,,,,,,,,,,,,,,,,,,,,,,,,,,,,,,,,,,,,,,,,,,,,,,,,,,,
,,,,,,5f8eeed471a1830af422d7a1,62c5391fe83053fd22c814b7,2022-07-06_08h27.15.247,Colour_Asymmetry_Pilot,2022.1.3,Win32,60.51437216,62c50e9c1127f2cd403a315f,0,74,74,115,1,twofour,,,,,,,,,,,,,,,,,,,,,,,,,,,,,,,,,,,,,,,,,,,,,,,,,,,,,,,,,,,,,,,,,,,,,,,,,,,,,,,,,,,,,,,,,,,,,,,,,,,,,,,,,,,,,,,,,,,,,,,,,,,,,,,,,,,,,,,,,,,,,,,,,,,,,,,,,,,,,
,,,,,,5f8eeed471a1830af422d7a1,62c5391fe83053fd22c814b7,2022-07-06_08h27.15.247,Colour_Asymmetry_Pilot,2022.1.3,Win32,60.51437216,62c50e9c1127f2cd403a315f,0,75,75,16,1,onetwo,,,,,,,,,,,,,,,,,,,,,,,,,,,,,,,,,,,,,,,,,,,,,,,,,,,,,,,,,,,,,,,,,,,,,,,,,,,,,,,,,,,,,,,,,,,,,,,,,,,,,,,,,,,,,,,,,,,,,,,,,,,,,,,,,,,,,,,,,,,,,,,,,,,,,,,,,,,,,
,,,,,,5f8eeed471a1830af422d7a1,62c5391fe83053fd22c814b7,2022-07-06_08h27.15.247,Colour_Asymmetry_Pilot,2022.1.3,Win32,60.51437216,62c50e9c1127f2cd403a315f,0,76,76,57,1,onethree,,,,,,,,,,,,,,,,,,,,,,,,,,,,,,,,,,,,,,,,,,,,,,,,,,,,,,,,,,,,,,,,,,,,,,,,,,,,,,,,,,,,,,,,,,,,,,,,,,,,,,,,,,,,,,,,,,,,,,,,,,,,,,,,,,,,,,,,,,,,,,,,,,,,,,,,,,,,,
,,,,,,5f8eeed471a1830af422d7a1,62c5391fe83053fd22c814b7,2022-07-06_08h27.15.247,Colour_Asymmetry_Pilot,2022.1.3,Win32,60.51437216,62c50e9c1127f2cd403a315f,0,77,77,18,1,twoone,,,,,,,,,,,,,,,,,,,,,,,,,,,,,,,,,,,,,,,,,,,,,,,,,,,,,,,,,,,,,,,,,,,,,,,,,,,,,,,,,,,,,,,,,,,,,,,,,,,,,,,,,,,,,,,,,,,,,,,,,,,,,,,,,,,,,,,,,,,,,,,,,,,,,,,,,,,,,
,,,,,,5f8eeed471a1830af422d7a1,62c5391fe83053fd22c814b7,2022-07-06_08h27.15.247,Colour_Asymmetry_Pilot,2022.1.3,Win32,60.51437216,62c50e9c1127f2cd403a315f,0,78,78,24,1,onetwo,,,,,,,,,,,,,,,,,,,,,,,,,,,,,,,,,,,,,,,,,,,,,,,,,,,,,,,,,,,,,,,,,,,,,,,,,,,,,,,,,,,,,,,,,,,,,,,,,,,,,,,,,,,,,,,,,,,,,,,,,,,,,,,,,,,,,,,,,,,,,,,,,,,,,,,,,,,,,
,,,,,,5f8eeed471a1830af422d7a1,62c5391fe83053fd22c814b7,2022-07-06_08h27.15.247,Colour_Asymmetry_Pilot,2022.1.3,Win32,60.51437216,62c50e9c1127f2cd403a315f,0,79,79,9,1,onethree,,,,,,,,,,,,,,,,,,,,,,,,,,,,,,,,,,,,,,,,,,,,,,,,,,,,,,,,,,,,,,,,,,,,,,,,,,,,,,,,,,,,,,,,,,,,,,,,,,,,,,,,,,,,,,,,,,,,,,,,,,,,,,,,,,,,,,,,,,,,,,,,,,,,,,,,,,,,,
,,,,,,5f8eeed471a1830af422d7a1,62c5391fe83053fd22c814b7,2022-07-06_08h27.15.247,Colour_Asymmetry_Pilot,2022.1.3,Win32,60.51437216,62c50e9c1127f2cd403a315f,0,80,80,161,1,onethree,,,,,,,,,,,,,,,,,,,,,,,,,,,,,,,,,,,,,,,,,,,,,,,,,,,,,,,,,,,,,,,,,,,,,,,,,,,,,,,,,,,,,,,,,,,,,,,,,,,,,,,,,,,,,,,,,,,,,,,,,,,,,,,,,,,,,,,,,,,,,,,,,,,,,,,,,,,,,
,,,,,,5f8eeed471a1830af422d7a1,62c5391fe83053fd22c814b7,2022-07-06_08h27.15.247,Colour_Asymmetry_Pilot,2022.1.3,Win32,60.51437216,62c50e9c1127f2cd403a315f,0,81,81,129,1,onethree,,,,,,,,,,,,,,,,,,,,,,,,,,,,,,,,,,,,,,,,,,,,,,,,,,,,,,,,,,,,,,,,,,,,,,,,,,,,,,,,,,,,,,,,,,,,,,,,,,,,,,,,,,,,,,,,,,,,,,,,,,,,,,,,,,,,,,,,,,,,,,,,,,,,,,,,,,,,,
,,,,,,5f8eeed471a1830af422d7a1,62c5391fe83053fd22c814b7,2022-07-06_08h27.15.247,Colour_Asymmetry_Pilot,2022.1.3,Win32,60.51437216,62c50e9c1127f2cd403a315f,0,82,82,104,1,onetwo,,,,,,,,,,,,,,,,,,,,,,,,,,,,,,,,,,,,,,,,,,,,,,,,,,,,,,,,,,,,,,,,,,,,,,,,,,,,,,,,,,,,,,,,,,,,,,,,,,,,,,,,,,,,,,,,,,,,,,,,,,,,,,,,,,,,,,,,,,,,,,,,,,,,,,,,,,,,,
,,,,,,5f8eeed471a1830af422d7a1,62c5391fe83053fd22c814b7,2022-07-06_08h27.15.247,Colour_Asymmetry_Pilot,2022.1.3,Win32,60.51437216,62c50e9c1127f2cd403a315f,0,83,83,19,1,twofour,,,,,,,,,,,,,,,,,,,,,,,,,,,,,,,,,,,,,,,,,,,,,,,,,,,,,,,,,,,,,,,,,,,,,,,,,,,,,,,,,,,,,,,,,,,,,,,,,,,,,,,,,,,,,,,,,,,,,,,,,,,,,,,,,,,,,,,,,,,,,,,,,,,,,,,,,,,,,
,,,,,,5f8eeed471a1830af422d7a1,62c5391fe83053fd22c814b7,2022-07-06_08h27.15.247,Colour_Asymmetry_Pilot,2022.1.3,Win32,60.51437216,62c50e9c1127f2cd403a315f,0,84,84,62,1,fourtwo,,,,,,,,,,,,,,,,,,,,,,,,,,,,,,,,,,,,,,,,,,,,,,,,,,,,,,,,,,,,,,,,,,,,,,,,,,,,,,,,,,,,,,,,,,,,,,,,,,,,,,,,,,,,,,,,,,,,,,,,,,,,,,,,,,,,,,,,,,,,,,,,,,,,,,,,,,,,,
,,,,,,5f8eeed471a1830af422d7a1,62c5391fe83053fd22c814b7,2022-07-06_08h27.15.247,Colour_Asymmetry_Pilot,2022.1.3,Win32,60.51437216,62c50e9c1127f2cd403a315f,0,85,85,77,1,threefour,,,,,,,,,,,,,,,,,,,,,,,,,,,,,,,,,,,,,,,,,,,,,,,,,,,,,,,,,,,,,,,,,,,,,,,,,,,,,,,,,,,,,,,,,,,,,,,,,,,,,,,,,,,,,,,,,,,,,,,,,,,,,,,,,,,,,,,,,,,,,,,,,,,,,,,,,,,,,
,,,,,,5f8eeed471a1830af422d7a1,62c5391fe83053fd22c814b7,2022-07-06_08h27.15.247,Colour_Asymmetry_Pilot,2022.1.3,Win32,60.51437216,62c50e9c1127f2cd403a315f,0,86,86,23,1,fourthree,,,,,,,,,,,,,,,,,,,,,,,,,,,,,,,,,,,,,,,,,,,,,,,,,,,,,,,,,,,,,,,,,,,,,,,,,,,,,,,,,,,,,,,,,,,,,,,,,,,,,,,,,,,,,,,,,,,,,,,,,,,,,,,,,,,,,,,,,,,,,,,,,,,,,,,,,,,,,
,,,,,,5f8eeed471a1830af422d7a1,62c5391fe83053fd22c814b7,2022-07-06_08h27.15.247,Colour_Asymmetry_Pilot,2022.1.3,Win32,60.51437216,62c50e9c1127f2cd403a315f,0,87,87,149,1,threefour,,,,,,,,,,,,,,,,,,,,,,,,,,,,,,,,,,,,,,,,,,,,,,,,,,,,,,,,,,,,,,,,,,,,,,,,,,,,,,,,,,,,,,,,,,,,,,,,,,,,,,,,,,,,,,,,,,,,,,,,,,,,,,,,,,,,,,,,,,,,,,,,,,,,,,,,,,,,,
,,,,,,5f8eeed471a1830af422d7a1,62c5391fe83053fd22c814b7,2022-07-06_08h27.15.247,Colour_Asymmetry_Pilot,2022.1.3,Win32,60.51437216,62c50e9c1127f2cd403a315f,0,88,88,37,1,threefour,,,,,,,,,,,,,,,,,,,,,,,,,,,,,,,,,,,,,,,,,,,,,,,,,,,,,,,,,,,,,,,,,,,,,,,,,,,,,,,,,,,,,,,,,,,,,,,,,,,,,,,,,,,,,,,,,,,,,,,,,,,,,,,,,,,,,,,,,,,,,,,,,,,,,,,,,,,,,
,,,,,,5f8eeed471a1830af422d7a1,62c5391fe83053fd22c814b7,2022-07-06_08h27.15.247,Colour_Asymmetry_Pilot,2022.1.3,Win32,60.51437216,62c50e9c1127f2cd403a315f,0,89,89,92,1,threeone,,,,,,,,,,,,,,,,,,,,,,,,,,,,,,,,,,,,,,,,,,,,,,,,,,,,,,,,,,,,,,,,,,,,,,,,,,,,,,,,,,,,,,,,,,,,,,,,,,,,,,,,,,,,,,,,,,,,,,,,,,,,,,,,,,,,,,,,,,,,,,,,,,,,,,,,,,,,,
,,,,,,5f8eeed471a1830af422d7a1,62c5391fe83053fd22c814b7,2022-07-06_08h27.15.247,Colour_Asymmetry_Pilot,2022.1.3,Win32,60.51437216,62c50e9c1127f2cd403a315f,0,90,90,84,1,threeone,,,,,,,,,,,,,,,,,,,,,,,,,,,,,,,,,,,,,,,,,,,,,,,,,,,,,,,,,,,,,,,,,,,,,,,,,,,,,,,,,,,,,,,,,,,,,,,,,,,,,,,,,,,,,,,,,,,,,,,,,,,,,,,,,,,,,,,,,,,,,,,,,,,,,,,,,,,,,
,,,,,,5f8eeed471a1830af422d7a1,62c5391fe83053fd22c814b7,2022-07-06_08h27.15.247,Colour_Asymmetry_Pilot,2022.1.3,Win32,60.51437216,62c50e9c1127f2cd403a315f,0,91,91,60,1,threeone,,,,,,,,,,,,,,,,,,,,,,,,,,,,,,,,,,,,,,,,,,,,,,,,,,,,,,,,,,,,,,,,,,,,,,,,,,,,,,,,,,,,,,,,,,,,,,,,,,,,,,,,,,,,,,,,,,,,,,,,,,,,,,,,,,,,,,,,,,,,,,,,,,,,,,,,,,,,,
,,,,,,5f8eeed471a1830af422d7a1,62c5391fe83053fd22c814b7,2022-07-06_08h27.15.247,Colour_Asymmetry_Pilot,2022.1.3,Win32,60.51437216,62c50e9c1127f2cd403a315f,0,92,92,8,1,onetwo,,,,,,,,,,,,,,,,,,,,,,,,,,,,,,,,,,,,,,,,,,,,,,,,,,,,,,,,,,,,,,,,,,,,,,,,,,,,,,,,,,,,,,,,,,,,,,,,,,,,,,,,,,,,,,,,,,,,,,,,,,,,,,,,,,,,,,,,,,,,,,,,,,,,,,,,,,,,,
,,,,,,5f8eeed471a1830af422d7a1,62c5391fe83053fd22c814b7,2022-07-06_08h27.15.247,Colour_Asymmetry_Pilot,2022.1.3,Win32,60.51437216,62c50e9c1127f2cd403a315f,0,93,93,3,1,twofour,,,,,,,,,,,,,,,,,,,,,,,,,,,,,,,,,,,,,,,,,,,,,,,,,,,,,,,,,,,,,,,,,,,,,,,,,,,,,,,,,,,,,,,,,,,,,,,,,,,,,,,,,,,,,,,,,,,,,,,,,,,,,,,,,,,,,,,,,,,,,,,,,,,,,,,,,,,,,
,,,,,,5f8eeed471a1830af422d7a1,62c5391fe83053fd22c814b7,2022-07-06_08h27.15.247,Colour_Asymmetry_Pilot,2022.1.3,Win32,60.51437216,62c50e9c1127f2cd403a315f,0,94,94,68,1,threeone,,,,,,,,,,,,,,,,,,,,,,,,,,,,,,,,,,,,,,,,,,,,,,,,,,,,,,,,,,,,,,,,,,,,,,,,,,,,,,,,,,,,,,,,,,,,,,,,,,,,,,,,,,,,,,,,,,,,,,,,,,,,,,,,,,,,,,,,,,,,,,,,,,,,,,,,,,,,,
,,,,,,5f8eeed471a1830af422d7a1,62c5391fe83053fd22c814b7,2022-07-06_08h27.15.247,Colour_Asymmetry_Pilot,2022.1.3,Win32,60.51437216,62c50e9c1127f2cd403a315f,0,95,95,29,1,threefour,,,,,,,,,,,,,,,,,,,,,,,,,,,,,,,,,,,,,,,,,,,,,,,,,,,,,,,,,,,,,,,,,,,,,,,,,,,,,,,,,,,,,,,,,,,,,,,,,,,,,,,,,,,,,,,,,,,,,,,,,,,,,,,,,,,,,,,,,,,,,,,,,,,,,,,,,,,,,
,,,,,,5f8eeed471a1830af422d7a1,62c5391fe83053fd22c814b7,2022-07-06_08h27.15.247,Colour_Asymmetry_Pilot,2022.1.3,Win32,60.51437216,62c50e9c1127f2cd403a315f,0,96,96,126,1,fourtwo,,,,,,,,,,,,,,,,,,,,,,,,,,,,,,,,,,,,,,,,,,,,,,,,,,,,,,,,,,,,,,,,,,,,,,,,,,,,,,,,,,,,,,,,,,,,,,,,,,,,,,,,,,,,,,,,,,,,,,,,,,,,,,,,,,,,,,,,,,,,,,,,,,,,,,,,,,,,,
,,,,,,5f8eeed471a1830af422d7a1,62c5391fe83053fd22c814b7,2022-07-06_08h27.15.247,Colour_Asymmetry_Pilot,2022.1.3,Win32,60.51437216,62c50e9c1127f2cd403a315f,0,97,97,137,1,onethree,,,,,,,,,,,,,,,,,,,,,,,,,,,,,,,,,,,,,,,,,,,,,,,,,,,,,,,,,,,,,,,,,,,,,,,,,,,,,,,,,,,,,,,,,,,,,,,,,,,,,,,,,,,,,,,,,,,,,,,,,,,,,,,,,,,,,,,,,,,,,,,,,,,,,,,,,,,,,
,,,,,,5f8eeed471a1830af422d7a1,62c5391fe83053fd22c814b7,2022-07-06_08h27.15.247,Colour_Asymmetry_Pilot,2022.1.3,Win32,60.51437216,62c50e9c1127f2cd403a315f,0,98,98,31,1,fourthree,,,,,,,,,,,,,,,,,,,,,,,,,,,,,,,,,,,,,,,,,,,,,,,,,,,,,,,,,,,,,,,,,,,,,,,,,,,,,,,,,,,,,,,,,,,,,,,,,,,,,,,,,,,,,,,,,,,,,,,,,,,,,,,,,,,,,,,,,,,,,,,,,,,,,,,,,,,,,
,,,,,,5f8eeed471a1830af422d7a1,62c5391fe83053fd22c814b7,2022-07-06_08h27.15.247,Colour_Asymmetry_Pilot,2022.1.3,Win32,60.51437216,62c50e9c1127f2cd403a315f,0,99,99,34,1,twoone,,,,,,,,,,,,,,,,,,,,,,,,,,,,,,,,,,,,,,,,,,,,,,,,,,,,,,,,,,,,,,,,,,,,,,,,,,,,,,,,,,,,,,,,,,,,,,,,,,,,,,,,,,,,,,,,,,,,,,,,,,,,,,,,,,,,,,,,,,,,,,,,,,,,,,,,,,,,,
,,,,,,5f8eeed471a1830af422d7a1,62c5391fe83053fd22c814b7,2022-07-06_08h27.15.247,Colour_Asymmetry_Pilot,2022.1.3,Win32,60.51437216,62c50e9c1127f2cd403a315f,0,100,100,135,1,fourthree,,,,,,,,,,,,,,,,,,,,,,,,,,,,,,,,,,,,,,,,,,,,,,,,,,,,,,,,,,,,,,,,,,,,,,,,,,,,,,,,,,,,,,,,,,,,,,,,,,,,,,,,,,,,,,,,,,,,,,,,,,,,,,,,,,,,,,,,,,,,,,,,,,,,,,,,,,,,,
,,,,,,5f8eeed471a1830af422d7a1,62c5391fe83053fd22c814b7,2022-07-06_08h27.15.247,Colour_Asymmetry_Pilot,2022.1.3,Win32,60.51437216,62c50e9c1127f2cd403a315f,0,101,101,81,1,onethree,,,,,,,,,,,,,,,,,,,,,,,,,,,,,,,,,,,,,,,,,,,,,,,,,,,,,,,,,,,,,,,,,,,,,,,,,,,,,,,,,,,,,,,,,,,,,,,,,,,,,,,,,,,,,,,,,,,,,,,,,,,,,,,,,,,,,,,,,,,,,,,,,,,,,,,,,,,,,
,,,,,,5f8eeed471a1830af422d7a1,62c5391fe83053fd22c814b7,2022-07-06_08h27.15.247,Colour_Asymmetry_Pilot,2022.1.3,Win32,60.51437216,62c50e9c1127f2cd403a315f,0,102,102,22,1,fourtwo,,,,,,,,,,,,,,,,,,,,,,,,,,,,,,,,,,,,,,,,,,,,,,,,,,,,,,,,,,,,,,,,,,,,,,,,,,,,,,,,,,,,,,,,,,,,,,,,,,,,,,,,,,,,,,,,,,,,,,,,,,,,,,,,,,,,,,,,,,,,,,,,,,,,,,,,,,,,,
,,,,,,5f8eeed471a1830af422d7a1,62c5391fe83053fd22c814b7,2022-07-06_08h27.15.247,Colour_Asymmetry_Pilot,2022.1.3,Win32,60.51437216,62c50e9c1127f2cd403a315f,0,103,103,152,1,onetwo,,,,,,,,,,,,,,,,,,,,,,,,,,,,,,,,,,,,,,,,,,,,,,,,,,,,,,,,,,,,,,,,,,,,,,,,,,,,,,,,,,,,,,,,,,,,,,,,,,,,,,,,,,,,,,,,,,,,,,,,,,,,,,,,,,,,,,,,,,,,,,,,,,,,,,,,,,,,,
,,,,,,5f8eeed471a1830af422d7a1,62c5391fe83053fd22c814b7,2022-07-06_08h27.15.247,Colour_Asymmetry_Pilot,2022.1.3,Win32,60.51437216,62c50e9c1127f2cd403a315f,0,104,104,11,1,twofour,,,,,,,,,,,,,,,,,,,,,,,,,,,,,,,,,,,,,,,,,,,,,,,,,,,,,,,,,,,,,,,,,,,,,,,,,,,,,,,,,,,,,,,,,,,,,,,,,,,,,,,,,,,,,,,,,,,,,,,,,,,,,,,,,,,,,,,,,,,,,,,,,,,,,,,,,,,,,
,,,,,,5f8eeed471a1830af422d7a1,62c5391fe83053fd22c814b7,2022-07-06_08h27.15.247,Colour_Asymmetry_Pilot,2022.1.3,Win32,60.51437216,62c50e9c1127f2cd403a315f,0,105,105,67,1,twofour,,,,,,,,,,,,,,,,,,,,,,,,,,,,,,,,,,,,,,,,,,,,,,,,,,,,,,,,,,,,,,,,,,,,,,,,,,,,,,,,,,,,,,,,,,,,,,,,,,,,,,,,,,,,,,,,,,,,,,,,,,,,,,,,,,,,,,,,,,,,,,,,,,,,,,,,,,,,,
,,,,,,5f8eeed471a1830af422d7a1,62c5391fe83053fd22c814b7,2022-07-06_08h27.15.247,Colour_Asymmetry_Pilot,2022.1.3,Win32,60.51437216,62c50e9c1127f2cd403a315f,0,106,106,144,1,onetwo,,,,,,,,,,,,,,,,,,,,,,,,,,,,,,,,,,,,,,,,,,,,,,,,,,,,,,,,,,,,,,,,,,,,,,,,,,,,,,,,,,,,,,,,,,,,,,,,,,,,,,,,,,,,,,,,,,,,,,,,,,,,,,,,,,,,,,,,,,,,,,,,,,,,,,,,,,,,,
,,,,,,5f8eeed471a1830af422d7a1,62c5391fe83053fd22c814b7,2022-07-06_08h27.15.247,Colour_Asymmetry_Pilot,2022.1.3,Win32,60.51437216,62c50e9c1127f2cd403a315f,0,107,107,112,1,onetwo,,,,,,,,,,,,,,,,,,,,,,,,,,,,,,,,,,,,,,,,,,,,,,,,,,,,,,,,,,,,,,,,,,,,,,,,,,,,,,,,,,,,,,,,,,,,,,,,,,,,,,,,,,,,,,,,,,,,,,,,,,,,,,,,,,,,,,,,,,,,,,,,,,,,,,,,,,,,,
,,,,,,5f8eeed471a1830af422d7a1,62c5391fe83053fd22c814b7,2022-07-06_08h27.15.247,Colour_Asymmetry_Pilot,2022.1.3,Win32,60.51437216,62c50e9c1127f2cd403a315f,0,108,108,118,1,fourtwo,,,,,,,,,,,,,,,,,,,,,,,,,,,,,,,,,,,,,,,,,,,,,,,,,,,,,,,,,,,,,,,,,,,,,,,,,,,,,,,,,,,,,,,,,,,,,,,,,,,,,,,,,,,,,,,,,,,,,,,,,,,,,,,,,,,,,,,,,,,,,,,,,,,,,,,,,,,,,
,,,,,,5f8eeed471a1830af422d7a1,62c5391fe83053fd22c814b7,2022-07-06_08h27.15.247,Colour_Asymmetry_Pilot,2022.1.3,Win32,60.51437216,62c50e9c1127f2cd403a315f,0,109,109,85,1,threefour,,,,,,,,,,,,,,,,,,,,,,,,,,,,,,,,,,,,,,,,,,,,,,,,,,,,,,,,,,,,,,,,,,,,,,,,,,,,,,,,,,,,,,,,,,,,,,,,,,,,,,,,,,,,,,,,,,,,,,,,,,,,,,,,,,,,,,,,,,,,,,,,,,,,,,,,,,,,,
,,,,,,5f8eeed471a1830af422d7a1,62c5391fe83053fd22c814b7,2022-07-06_08h27.15.247,Colour_Asymmetry_Pilot,2022.1.3,Win32,60.51437216,62c50e9c1127f2cd403a315f,0,110,110,103,1,fourthree,,,,,,,,,,,,,,,,,,,,,,,,,,,,,,,,,,,,,,,,,,,,,,,,,,,,,,,,,,,,,,,,,,,,,,,,,,,,,,,,,,,,,,,,,,,,,,,,,,,,,,,,,,,,,,,,,,,,,,,,,,,,,,,,,,,,,,,,,,,,,,,,,,,,,,,,,,,,,
,,,,,,5f8eeed471a1830af422d7a1,62c5391fe83053fd22c814b7,2022-07-06_08h27.15.247,Colour_Asymmetry_Pilot,2022.1.3,Win32,60.51437216,62c50e9c1127f2cd403a315f,0,111,111,131,1,twofour,,,,,,,,,,,,,,,,,,,,,,,,,,,,,,,,,,,,,,,,,,,,,,,,,,,,,,,,,,,,,,,,,,,,,,,,,,,,,,,,,,,,,,,,,,,,,,,,,,,,,,,,,,,,,,,,,,,,,,,,,,,,,,,,,,,,,,,,,,,,,,,,,,,,,,,,,,,,,
,,,,,,5f8eeed471a1830af422d7a1,62c5391fe83053fd22c814b7,2022-07-06_08h27.15.247,Colour_Asymmetry_Pilot,2022.1.3,Win32,60.51437216,62c50e9c1127f2cd403a315f,0,112,112,156,1,threeone,,,,,,,,,,,,,,,,,,,,,,,,,,,,,,,,,,,,,,,,,,,,,,,,,,,,,,,,,,,,,,,,,,,,,,,,,,,,,,,,,,,,,,,,,,,,,,,,,,,,,,,,,,,,,,,,,,,,,,,,,,,,,,,,,,,,,,,,,,,,,,,,,,,,,,,,,,,,,
,,,,,,5f8eeed471a1830af422d7a1,62c5391fe83053fd22c814b7,2022-07-06_08h27.15.247,Colour_Asymmetry_Pilot,2022.1.3,Win32,60.51437216,62c50e9c1127f2cd403a315f,0,113,113,90,1,twoone,,,,,,,,,,,,,,,,,,,,,,,,,,,,,,,,,,,,,,,,,,,,,,,,,,,,,,,,,,,,,,,,,,,,,,,,,,,,,,,,,,,,,,,,,,,,,,,,,,,,,,,,,,,,,,,,,,,,,,,,,,,,,,,,,,,,,,,,,,,,,,,,,,,,,,,,,,,,,
,,,,,,5f8eeed471a1830af422d7a1,62c5391fe83053fd22c814b7,2022-07-06_08h27.15.247,Colour_Asymmetry_Pilot,2022.1.3,Win32,60.51437216,62c50e9c1127f2cd403a315f,0,114,114,97,1,onethree,,,,,,,,,,,,,,,,,,,,,,,,,,,,,,,,,,,,,,,,,,,,,,,,,,,,,,,,,,,,,,,,,,,,,,,,,,,,,,,,,,,,,,,,,,,,,,,,,,,,,,,,,,,,,,,,,,,,,,,,,,,,,,,,,,,,,,,,,,,,,,,,,,,,,,,,,,,,,
,,,,,,5f8eeed471a1830af422d7a1,62c5391fe83053fd22c814b7,2022-07-06_08h27.15.247,Colour_Asymmetry_Pilot,2022.1.3,Win32,60.51437216,62c50e9c1127f2cd403a315f,0,115,115,59,1,twofour,,,,,,,,,,,,,,,,,,,,,,,,,,,,,,,,,,,,,,,,,,,,,,,,,,,,,,,,,,,,,,,,,,,,,,,,,,,,,,,,,,,,,,,,,,,,,,,,,,,,,,,,,,,,,,,,,,,,,,,,,,,,,,,,,,,,,,,,,,,,,,,,,,,,,,,,,,,,,
,,,,,,5f8eeed471a1830af422d7a1,62c5391fe83053fd22c814b7,2022-07-06_08h27.15.247,Colour_Asymmetry_Pilot,2022.1.3,Win32,60.51437216,62c50e9c1127f2cd403a315f,0,116,116,122,1,twoone,,,,,,,,,,,,,,,,,,,,,,,,,,,,,,,,,,,,,,,,,,,,,,,,,,,,,,,,,,,,,,,,,,,,,,,,,,,,,,,,,,,,,,,,,,,,,,,,,,,,,,,,,,,,,,,,,,,,,,,,,,,,,,,,,,,,,,,,,,,,,,,,,,,,,,,,,,,,,
,,,,,,5f8eeed471a1830af422d7a1,62c5391fe83053fd22c814b7,2022-07-06_08h27.15.247,Colour_Asymmetry_Pilot,2022.1.3,Win32,60.51437216,62c50e9c1127f2cd403a315f,0,117,117,71,1,fourthree,,,,,,,,,,,,,,,,,,,,,,,,,,,,,,,,,,,,,,,,,,,,,,,,,,,,,,,,,,,,,,,,,,,,,,,,,,,,,,,,,,,,,,,,,,,,,,,,,,,,,,,,,,,,,,,,,,,,,,,,,,,,,,,,,,,,,,,,,,,,,,,,,,,,,,,,,,,,,
,,,,,,5f8eeed471a1830af422d7a1,62c5391fe83053fd22c814b7,2022-07-06_08h27.15.247,Colour_Asymmetry_Pilot,2022.1.3,Win32,60.51437216,62c50e9c1127f2cd403a315f,0,118,118,12,1,threeone,,,,,,,,,,,,,,,,,,,,,,,,,,,,,,,,,,,,,,,,,,,,,,,,,,,,,,,,,,,,,,,,,,,,,,,,,,,,,,,,,,,,,,,,,,,,,,,,,,,,,,,,,,,,,,,,,,,,,,,,,,,,,,,,,,,,,,,,,,,,,,,,,,,,,,,,,,,,,
,,,,,,5f8eeed471a1830af422d7a1,62c5391fe83053fd22c814b7,2022-07-06_08h27.15.247,Colour_Asymmetry_Pilot,2022.1.3,Win32,60.51437216,62c50e9c1127f2cd403a315f,0,119,119,150,1,fourtwo,,,,,,,,,,,,,,,,,,,,,,,,,,,,,,,,,,,,,,,,,,,,,,,,,,,,,,,,,,,,,,,,,,,,,,,,,,,,,,,,,,,,,,,,,,,,,,,,,,,,,,,,,,,,,,,,,,,,,,,,,,,,,,,,,,,,,,,,,,,,,,,,,,,,,,,,,,,,,
,,,,,,5f8eeed471a1830af422d7a1,62c5391fe83053fd22c814b7,2022-07-06_08h27.15.247,Colour_Asymmetry_Pilot,2022.1.3,Win32,60.51437216,62c50e9c1127f2cd403a315f,0,120,120,148,1,threeone,,,,,,,,,,,,,,,,,,,,,,,,,,,,,,,,,,,,,,,,,,,,,,,,,,,,,,,,,,,,,,,,,,,,,,,,,,,,,,,,,,,,,,,,,,,,,,,,,,,,,,,,,,,,,,,,,,,,,,,,,,,,,,,,,,,,,,,,,,,,,,,,,,,,,,,,,,,,,
,,,,,,5f8eeed471a1830af422d7a1,62c5391fe83053fd22c814b7,2022-07-06_08h27.15.247,Colour_Asymmetry_Pilot,2022.1.3,Win32,60.51437216,62c50e9c1127f2cd403a315f,0,121,121,4,1,threeone,,,,,,,,,,,,,,,,,,,,,,,,,,,,,,,,,,,,,,,,,,,,,,,,,,,,,,,,,,,,,,,,,,,,,,,,,,,,,,,,,,,,,,,,,,,,,,,,,,,,,,,,,,,,,,,,,,,,,,,,,,,,,,,,,,,,,,,,,,,,,,,,,,,,,,,,,,,,,
,,,,,,5f8eeed471a1830af422d7a1,62c5391fe83053fd22c814b7,2022-07-06_08h27.15.247,Colour_Asymmetry_Pilot,2022.1.3,Win32,60.51437216,62c50e9c1127f2cd403a315f,0,122,122,76,1,threeone,,,,,,,,,,,,,,,,,,,,,,,,,,,,,,,,,,,,,,,,,,,,,,,,,,,,,,,,,,,,,,,,,,,,,,,,,,,,,,,,,,,,,,,,,,,,,,,,,,,,,,,,,,,,,,,,,,,,,,,,,,,,,,,,,,,,,,,,,,,,,,,,,,,,,,,,,,,,,
,,,,,,5f8eeed471a1830af422d7a1,62c5391fe83053fd22c814b7,2022-07-06_08h27.15.247,Colour_Asymmetry_Pilot,2022.1.3,Win32,60.51437216,62c50e9c1127f2cd403a315f,0,123,123,39,1,fourthree,,,,,,,,,,,,,,,,,,,,,,,,,,,,,,,,,,,,,,,,,,,,,,,,,,,,,,,,,,,,,,,,,,,,,,,,,,,,,,,,,,,,,,,,,,,,,,,,,,,,,,,,,,,,,,,,,,,,,,,,,,,,,,,,,,,,,,,,,,,,,,,,,,,,,,,,,,,,,
,,,,,,5f8eeed471a1830af422d7a1,62c5391fe83053fd22c814b7,2022-07-06_08h27.15.247,Colour_Asymmetry_Pilot,2022.1.3,Win32,60.51437216,62c50e9c1127f2cd403a315f,0,124,124,21,1,threefour,,,,,,,,,,,,,,,,,,,,,,,,,,,,,,,,,,,,,,,,,,,,,,,,,,,,,,,,,,,,,,,,,,,,,,,,,,,,,,,,,,,,,,,,,,,,,,,,,,,,,,,,,,,,,,,,,,,,,,,,,,,,,,,,,,,,,,,,,,,,,,,,,,,,,,,,,,,,,
,,,,,,5f8eeed471a1830af422d7a1,62c5391fe83053fd22c814b7,2022-07-06_08h27.15.247,Colour_Asymmetry_Pilot,2022.1.3,Win32,60.51437216,62c50e9c1127f2cd403a315f,0,125,125,87,1,fourthree,,,,,,,,,,,,,,,,,,,,,,,,,,,,,,,,,,,,,,,,,,,,,,,,,,,,,,,,,,,,,,,,,,,,,,,,,,,,,,,,,,,,,,,,,,,,,,,,,,,,,,,,,,,,,,,,,,,,,,,,,,,,,,,,,,,,,,,,,,,,,,,,,,,,,,,,,,,,,
,,,,,,5f8eeed471a1830af422d7a1,62c5391fe83053fd22c814b7,2022-07-06_08h27.15.247,Colour_Asymmetry_Pilot,2022.1.3,Win32,60.51437216,62c50e9c1127f2cd403a315f,0,126,126,99,1,twofour,,,,,,,,,,,,,,,,,,,,,,,,,,,,,,,,,,,,,,,,,,,,,,,,,,,,,,,,,,,,,,,,,,,,,,,,,,,,,,,,,,,,,,,,,,,,,,,,,,,,,,,,,,,,,,,,,,,,,,,,,,,,,,,,,,,,,,,,,,,,,,,,,,,,,,,,,,,,,
,,,,,,5f8eeed471a1830af422d7a1,62c5391fe83053fd22c814b7,2022-07-06_08h27.15.247,Colour_Asymmetry_Pilot,2022.1.3,Win32,60.51437216,62c50e9c1127f2cd403a315f,0,127,127,25,1,onethree,,,,,,,,,,,,,,,,,,,,,,,,,,,,,,,,,,,,,,,,,,,,,,,,,,,,,,,,,,,,,,,,,,,,,,,,,,,,,,,,,,,,,,,,,,,,,,,,,,,,,,,,,,,,,,,,,,,,,,,,,,,,,,,,,,,,,,,,,,,,,,,,,,,,,,,,,,,,,
,,,,,,5f8eeed471a1830af422d7a1,62c5391fe83053fd22c814b7,2022-07-06_08h27.15.247,Colour_Asymmetry_Pilot,2022.1.3,Win32,60.51437216,62c50e9c1127f2cd403a315f,0,128,128,143,1,fourthree,,,,,,,,,,,,,,,,,,,,,,,,,,,,,,,,,,,,,,,,,,,,,,,,,,,,,,,,,,,,,,,,,,,,,,,,,,,,,,,,,,,,,,,,,,,,,,,,,,,,,,,,,,,,,,,,,,,,,,,,,,,,,,,,,,,,,,,,,,,,,,,,,,,,,,,,,,,,,
,,,,,,5f8eeed471a1830af422d7a1,62c5391fe83053fd22c814b7,2022-07-06_08h27.15.247,Colour_Asymmetry_Pilot,2022.1.3,Win32,60.51437216,62c50e9c1127f2cd403a315f,0,129,129,113,1,onethree,,,,,,,,,,,,,,,,,,,,,,,,,,,,,,,,,,,,,,,,,,,,,,,,,,,,,,,,,,,,,,,,,,,,,,,,,,,,,,,,,,,,,,,,,,,,,,,,,,,,,,,,,,,,,,,,,,,,,,,,,,,,,,,,,,,,,,,,,,,,,,,,,,,,,,,,,,,,,
,,,,,,5f8eeed471a1830af422d7a1,62c5391fe83053fd22c814b7,2022-07-06_08h27.15.247,Colour_Asymmetry_Pilot,2022.1.3,Win32,60.51437216,62c50e9c1127f2cd403a315f,0,130,130,89,1,onethree,,,,,,,,,,,,,,,,,,,,,,,,,,,,,,,,,,,,,,,,,,,,,,,,,,,,,,,,,,,,,,,,,,,,,,,,,,,,,,,,,,,,,,,,,,,,,,,,,,,,,,,,,,,,,,,,,,,,,,,,,,,,,,,,,,,,,,,,,,,,,,,,,,,,,,,,,,,,,
,,,,,,5f8eeed471a1830af422d7a1,62c5391fe83053fd22c814b7,2022-07-06_08h27.15.247,Colour_Asymmetry_Pilot,2022.1.3,Win32,60.51437216,62c50e9c1127f2cd403a315f,0,131,131,106,1,twoone,,,,,,,,,,,,,,,,,,,,,,,,,,,,,,,,,,,,,,,,,,,,,,,,,,,,,,,,,,,,,,,,,,,,,,,,,,,,,,,,,,,,,,,,,,,,,,,,,,,,,,,,,,,,,,,,,,,,,,,,,,,,,,,,,,,,,,,,,,,,,,,,,,,,,,,,,,,,,
,,,,,,5f8eeed471a1830af422d7a1,62c5391fe83053fd22c814b7,2022-07-06_08h27.15.247,Colour_Asymmetry_Pilot,2022.1.3,Win32,60.51437216,62c50e9c1127f2cd403a315f,0,132,132,79,1,fourthree,,,,,,,,,,,,,,,,,,,,,,,,,,,,,,,,,,,,,,,,,,,,,,,,,,,,,,,,,,,,,,,,,,,,,,,,,,,,,,,,,,,,,,,,,,,,,,,,,,,,,,,,,,,,,,,,,,,,,,,,,,,,,,,,,,,,,,,,,,,,,,,,,,,,,,,,,,,,,
,,,,,,5f8eeed471a1830af422d7a1,62c5391fe83053fd22c814b7,2022-07-06_08h27.15.247,Colour_Asymmetry_Pilot,2022.1.3,Win32,60.51437216,62c50e9c1127f2cd403a315f,0,133,133,110,1,fourtwo,,,,,,,,,,,,,,,,,,,,,,,,,,,,,,,,,,,,,,,,,,,,,,,,,,,,,,,,,,,,,,,,,,,,,,,,,,,,,,,,,,,,,,,,,,,,,,,,,,,,,,,,,,,,,,,,,,,,,,,,,,,,,,,,,,,,,,,,,,,,,,,,,,,,,,,,,,,,,
,,,,,,5f8eeed471a1830af422d7a1,62c5391fe83053fd22c814b7,2022-07-06_08h27.15.247,Colour_Asymmetry_Pilot,2022.1.3,Win32,60.51437216,62c50e9c1127f2cd403a315f,0,134,134,73,1,onethree,,,,,,,,,,,,,,,,,,,,,,,,,,,,,,,,,,,,,,,,,,,,,,,,,,,,,,,,,,,,,,,,,,,,,,,,,,,,,,,,,,,,,,,,,,,,,,,,,,,,,,,,,,,,,,,,,,,,,,,,,,,,,,,,,,,,,,,,,,,,,,,,,,,,,,,,,,,,,
,,,,,,5f8eeed471a1830af422d7a1,62c5391fe83053fd22c814b7,2022-07-06_08h27.15.247,Colour_Asymmetry_Pilot,2022.1.3,Win32,60.51437216,62c50e9c1127f2cd403a315f,0,135,135,159,1,fourthree,,,,,,,,,,,,,,,,,,,,,,,,,,,,,,,,,,,,,,,,,,,,,,,,,,,,,,,,,,,,,,,,,,,,,,,,,,,,,,,,,,,,,,,,,,,,,,,,,,,,,,,,,,,,,,,,,,,,,,,,,,,,,,,,,,,,,,,,,,,,,,,,,,,,,,,,,,,,,
,,,,,,5f8eeed471a1830af422d7a1,62c5391fe83053fd22c814b7,2022-07-06_08h27.15.247,Colour_Asymmetry_Pilot,2022.1.3,Win32,60.51437216,62c50e9c1127f2cd403a315f,0,136,136,74,1,twoone,,,,,,,,,,,,,,,,,,,,,,,,,,,,,,,,,,,,,,,,,,,,,,,,,,,,,,,,,,,,,,,,,,,,,,,,,,,,,,,,,,,,,,,,,,,,,,,,,,,,,,,,,,,,,,,,,,,,,,,,,,,,,,,,,,,,,,,,,,,,,,,,,,,,,,,,,,,,,
,,,,,,5f8eeed471a1830af422d7a1,62c5391fe83053fd22c814b7,2022-07-06_08h27.15.247,Colour_Asymmetry_Pilot,2022.1.3,Win32,60.51437216,62c50e9c1127f2cd403a315f,0,137,137,56,1,onetwo,,,,,,,,,,,,,,,,,,,,,,,,,,,,,,,,,,,,,,,,,,,,,,,,,,,,,,,,,,,,,,,,,,,,,,,,,,,,,,,,,,,,,,,,,,,,,,,,,,,,,,,,,,,,,,,,,,,,,,,,,,,,,,,,,,,,,,,,,,,,,,,,,,,,,,,,,,,,,
,,,,,,5f8eeed471a1830af422d7a1,62c5391fe83053fd22c814b7,2022-07-06_08h27.15.247,Colour_Asymmetry_Pilot,2022.1.3,Win32,60.51437216,62c50e9c1127f2cd403a315f,0,138,138,41,1,onethree,,,,,,,,,,,,,,,,,,,,,,,,,,,,,,,,,,,,,,,,,,,,,,,,,,,,,,,,,,,,,,,,,,,,,,,,,,,,,,,,,,,,,,,,,,,,,,,,,,,,,,,,,,,,,,,,,,,,,,,,,,,,,,,,,,,,,,,,,,,,,,,,,,,,,,,,,,,,,
,,,,,,5f8eeed471a1830af422d7a1,62c5391fe83053fd22c814b7,2022-07-06_08h27.15.247,Colour_Asymmetry_Pilot,2022.1.3,Win32,60.51437216,62c50e9c1127f2cd403a315f,0,139,139,2,1,twoone,,,,,,,,,,,,,,,,,,,,,,,,,,,,,,,,,,,,,,,,,,,,,,,,,,,,,,,,,,,,,,,,,,,,,,,,,,,,,,,,,,,,,,,,,,,,,,,,,,,,,,,,,,,,,,,,,,,,,,,,,,,,,,,,,,,,,,,,,,,,,,,,,,,,,,,,,,,,,
,,,,,,5f8eeed471a1830af422d7a1,62c5391fe83053fd22c814b7,2022-07-06_08h27.15.247,Colour_Asymmetry_Pilot,2022.1.3,Win32,60.51437216,62c50e9c1127f2cd403a315f,0,140,140,69,1,threefour,,,,,,,,,,,,,,,,,,,,,,,,,,,,,,,,,,,,,,,,,,,,,,,,,,,,,,,,,,,,,,,,,,,,,,,,,,,,,,,,,,,,,,,,,,,,,,,,,,,,,,,,,,,,,,,,,,,,,,,,,,,,,,,,,,,,,,,,,,,,,,,,,,,,,,,,,,,,,
,,,,,,5f8eeed471a1830af422d7a1,62c5391fe83053fd22c814b7,2022-07-06_08h27.15.247,Colour_Asymmetry_Pilot,2022.1.3,Win32,60.51437216,62c50e9c1127f2cd403a315f,0,141,141,102,1,fourtwo,,,,,,,,,,,,,,,,,,,,,,,,,,,,,,,,,,,,,,,,,,,,,,,,,,,,,,,,,,,,,,,,,,,,,,,,,,,,,,,,,,,,,,,,,,,,,,,,,,,,,,,,,,,,,,,,,,,,,,,,,,,,,,,,,,,,,,,,,,,,,,,,,,,,,,,,,,,,,
,,,,,,5f8eeed471a1830af422d7a1,62c5391fe83053fd22c814b7,2022-07-06_08h27.15.247,Colour_Asymmetry_Pilot,2022.1.3,Win32,60.51437216,62c50e9c1127f2cd403a315f,0,142,142,119,1,fourthree,,,,,,,,,,,,,,,,,,,,,,,,,,,,,,,,,,,,,,,,,,,,,,,,,,,,,,,,,,,,,,,,,,,,,,,,,,,,,,,,,,,,,,,,,,,,,,,,,,,,,,,,,,,,,,,,,,,,,,,,,,,,,,,,,,,,,,,,,,,,,,,,,,,,,,,,,,,,,
,,,,,,5f8eeed471a1830af422d7a1,62c5391fe83053fd22c814b7,2022-07-06_08h27.15.247,Colour_Asymmetry_Pilot,2022.1.3,Win32,60.51437216,62c50e9c1127f2cd403a315f,0,143,143,125,1,threefour,,,,,,,,,,,,,,,,,,,,,,,,,,,,,,,,,,,,,,,,,,,,,,,,,,,,,,,,,,,,,,,,,,,,,,,,,,,,,,,,,,,,,,,,,,,,,,,,,,,,,,,,,,,,,,,,,,,,,,,,,,,,,,,,,,,,,,,,,,,,,,,,,,,,,,,,,,,,,
,,,,,,5f8eeed471a1830af422d7a1,62c5391fe83053fd22c814b7,2022-07-06_08h27.15.247,Colour_Asymmetry_Pilot,2022.1.3,Win32,60.51437216,62c50e9c1127f2cd403a315f,0,144,144,5,1,threefour,,,,,,,,,,,,,,,,,,,,,,,,,,,,,,,,,,,,,,,,,,,,,,,,,,,,,,,,,,,,,,,,,,,,,,,,,,,,,,,,,,,,,,,,,,,,,,,,,,,,,,,,,,,,,,,,,,,,,,,,,,,,,,,,,,,,,,,,,,,,,,,,,,,,,,,,,,,,,
,,,,,,5f8eeed471a1830af422d7a1,62c5391fe83053fd22c814b7,2022-07-06_08h27.15.247,Colour_Asymmetry_Pilot,2022.1.3,Win32,60.51437216,62c50e9c1127f2cd403a315f,0,145,145,17,1,onethree,,,,,,,,,,,,,,,,,,,,,,,,,,,,,,,,,,,,,,,,,,,,,,,,,,,,,,,,,,,,,,,,,,,,,,,,,,,,,,,,,,,,,,,,,,,,,,,,,,,,,,,,,,,,,,,,,,,,,,,,,,,,,,,,,,,,,,,,,,,,,,,,,,,,,,,,,,,,,
,,,,,,5f8eeed471a1830af422d7a1,62c5391fe83053fd22c814b7,2022-07-06_08h27.15.247,Colour_Asymmetry_Pilot,2022.1.3,Win32,60.51437216,62c50e9c1127f2cd403a315f,0,146,146,154,1,twoone,,,,,,,,,,,,,,,,,,,,,,,,,,,,,,,,,,,,,,,,,,,,,,,,,,,,,,,,,,,,,,,,,,,,,,,,,,,,,,,,,,,,,,,,,,,,,,,,,,,,,,,,,,,,,,,,,,,,,,,,,,,,,,,,,,,,,,,,,,,,,,,,,,,,,,,,,,,,,
,,,,,,5f8eeed471a1830af422d7a1,62c5391fe83053fd22c814b7,2022-07-06_08h27.15.247,Colour_Asymmetry_Pilot,2022.1.3,Win32,60.51437216,62c50e9c1127f2cd403a315f,0,147,147,93,1,threefour,,,,,,,,,,,,,,,,,,,,,,,,,,,,,,,,,,,,,,,,,,,,,,,,,,,,,,,,,,,,,,,,,,,,,,,,,,,,,,,,,,,,,,,,,,,,,,,,,,,,,,,,,,,,,,,,,,,,,,,,,,,,,,,,,,,,,,,,,,,,,,,,,,,,,,,,,,,,,
,,,,,,5f8eeed471a1830af422d7a1,62c5391fe83053fd22c814b7,2022-07-06_08h27.15.247,Colour_Asymmetry_Pilot,2022.1.3,Win32,60.51437216,62c50e9c1127f2cd403a315f,0,148,148,13,1,threefour,,,,,,,,,,,,,,,,,,,,,,,,,,,,,,,,,,,,,,,,,,,,,,,,,,,,,,,,,,,,,,,,,,,,,,,,,,,,,,,,,,,,,,,,,,,,,,,,,,,,,,,,,,,,,,,,,,,,,,,,,,,,,,,,,,,,,,,,,,,,,,,,,,,,,,,,,,,,,
,,,,,,5f8eeed471a1830af422d7a1,62c5391fe83053fd22c814b7,2022-07-06_08h27.15.247,Colour_Asymmetry_Pilot,2022.1.3,Win32,60.51437216,62c50e9c1127f2cd403a315f,0,149,149,142,1,fourtwo,,,,,,,,,,,,,,,,,,,,,,,,,,,,,,,,,,,,,,,,,,,,,,,,,,,,,,,,,,,,,,,,,,,,,,,,,,,,,,,,,,,,,,,,,,,,,,,,,,,,,,,,,,,,,,,,,,,,,,,,,,,,,,,,,,,,,,,,,,,,,,,,,,,,,,,,,,,,,
,,,,,,5f8eeed471a1830af422d7a1,62c5391fe83053fd22c814b7,2022-07-06_08h27.15.247,Colour_Asymmetry_Pilot,2022.1.3,Win32,60.51437216,62c50e9c1127f2cd403a315f,0,150,150,141,1,threefour,,,,,,,,,,,,,,,,,,,,,,,,,,,,,,,,,,,,,,,,,,,,,,,,,,,,,,,,,,,,,,,,,,,,,,,,,,,,,,,,,,,,,,,,,,,,,,,,,,,,,,,,,,,,,,,,,,,,,,,,,,,,,,,,,,,,,,,,,,,,,,,,,,,,,,,,,,,,,
,,,,,,5f8eeed471a1830af422d7a1,62c5391fe83053fd22c814b7,2022-07-06_08h27.15.247,Colour_Asymmetry_Pilot,2022.1.3,Win32,60.51437216,62c50e9c1127f2cd403a315f,0,151,151,50,1,twoone,,,,,,,,,,,,,,,,,,,,,,,,,,,,,,,,,,,,,,,,,,,,,,,,,,,,,,,,,,,,,,,,,,,,,,,,,,,,,,,,,,,,,,,,,,,,,,,,,,,,,,,,,,,,,,,,,,,,,,,,,,,,,,,,,,,,,,,,,,,,,,,,,,,,,,,,,,,,,
,,,,,,5f8eeed471a1830af422d7a1,62c5391fe83053fd22c814b7,2022-07-06_08h27.15.247,Colour_Asymmetry_Pilot,2022.1.3,Win32,60.51437216,62c50e9c1127f2cd403a315f,0,152,152,108,1,threeone,,,,,,,,,,,,,,,,,,,,,,,,,,,,,,,,,,,,,,,,,,,,,,,,,,,,,,,,,,,,,,,,,,,,,,,,,,,,,,,,,,,,,,,,,,,,,,,,,,,,,,,,,,,,,,,,,,,,,,,,,,,,,,,,,,,,,,,,,,,,,,,,,,,,,,,,,,,,,
,,,,,,5f8eeed471a1830af422d7a1,62c5391fe83053fd22c814b7,2022-07-06_08h27.15.247,Colour_Asymmetry_Pilot,2022.1.3,Win32,60.51437216,62c50e9c1127f2cd403a315f,0,153,153,0,1,onetwo,,,,,,,,,,,,,,,,,,,,,,,,,,,,,,,,,,,,,,,,,,,,,,,,,,,,,,,,,,,,,,,,,,,,,,,,,,,,,,,,,,,,,,,,,,,,,,,,,,,,,,,,,,,,,,,,,,,,,,,,,,,,,,,,,,,,,,,,,,,,,,,,,,,,,,,,,,,,,
,,,,,,5f8eeed471a1830af422d7a1,62c5391fe83053fd22c814b7,2022-07-06_08h27.15.247,Colour_Asymmetry_Pilot,2022.1.3,Win32,60.51437216,62c50e9c1127f2cd403a315f,0,154,154,82,1,twoone,,,,,,,,,,,,,,,,,,,,,,,,,,,,,,,,,,,,,,,,,,,,,,,,,,,,,,,,,,,,,,,,,,,,,,,,,,,,,,,,,,,,,,,,,,,,,,,,,,,,,,,,,,,,,,,,,,,,,,,,,,,,,,,,,,,,,,,,,,,,,,,,,,,,,,,,,,,,,
,,,,,,5f8eeed471a1830af422d7a1,62c5391fe83053fd22c814b7,2022-07-06_08h27.15.247,Colour_Asymmetry_Pilot,2022.1.3,Win32,60.51437216,62c50e9c1127f2cd403a315f,0,155,155,136,1,onetwo,,,,,,,,,,,,,,,,,,,,,,,,,,,,,,,,,,,,,,,,,,,,,,,,,,,,,,,,,,,,,,,,,,,,,,,,,,,,,,,,,,,,,,,,,,,,,,,,,,,,,,,,,,,,,,,,,,,,,,,,,,,,,,,,,,,,,,,,,,,,,,,,,,,,,,,,,,,,,
,,,,,,5f8eeed471a1830af422d7a1,62c5391fe83053fd22c814b7,2022-07-06_08h27.15.247,Colour_Asymmetry_Pilot,2022.1.3,Win32,60.51437216,62c50e9c1127f2cd403a315f,0,156,156,105,1,onethree,,,,,,,,,,,,,,,,,,,,,,,,,,,,,,,,,,,,,,,,,,,,,,,,,,,,,,,,,,,,,,,,,,,,,,,,,,,,,,,,,,,,,,,,,,,,,,,,,,,,,,,,,,,,,,,,,,,,,,,,,,,,,,,,,,,,,,,,,,,,,,,,,,,,,,,,,,,,,
,,,,,,5f8eeed471a1830af422d7a1,62c5391fe83053fd22c814b7,2022-07-06_08h27.15.247,Colour_Asymmetry_Pilot,2022.1.3,Win32,60.51437216,62c50e9c1127f2cd403a315f,0,157,157,116,1,threeone,,,,,,,,,,,,,,,,,,,,,,,,,,,,,,,,,,,,,,,,,,,,,,,,,,,,,,,,,,,,,,,,,,,,,,,,,,,,,,,,,,,,,,,,,,,,,,,,,,,,,,,,,,,,,,,,,,,,,,,,,,,,,,,,,,,,,,,,,,,,,,,,,,,,,,,,,,,,,
,,,,,,5f8eeed471a1830af422d7a1,62c5391fe83053fd22c814b7,2022-07-06_08h27.15.247,Colour_Asymmetry_Pilot,2022.1.3,Win32,60.51437216,62c50e9c1127f2cd403a315f,0,158,158,55,1,fourthree,,,,,,,,,,,,,,,,,,,,,,,,,,,,,,,,,,,,,,,,,,,,,,,,,,,,,,,,,,,,,,,,,,,,,,,,,,,,,,,,,,,,,,,,,,,,,,,,,,,,,,,,,,,,,,,,,,,,,,,,,,,,,,,,,,,,,,,,,,,,,,,,,,,,,,,,,,,,,
,,,,,,5f8eeed471a1830af422d7a1,62c5391fe83053fd22c814b7,2022-07-06_08h27.15.247,Colour_Asymmetry_Pilot,2022.1.3,Win32,60.51437216,62c50e9c1127f2cd403a315f,0,159,159,53,1,threefour,,,,,,,,,,,,,,,,,,,,,,,,,,,,,,,,,,,,,,,,,,,,,,,,,,,,,,,,,,,,,,,,,,,,,,,,,,,,,,,,,,,,,,,,,,,,,,,,,,,,,,,,,,,,,,,,,,,,,,,,,,,,,,,,,,,,,,,,,,,,,,,,,,,,,,,,,,,,,
,,,,,,5f8eeed471a1830af422d7a1,62c5391fe83053fd22c814b7,2022-07-06_08h27.15.247,Colour_Asymmetry_Pilot,2022.1.3,Win32,60.51437216,62c50e9c1127f2cd403a315f,0,160,160,54,1,fourtwo,,,,,,,,,,,,,,,,,,,,,,,,,,,,,,,,,,,,,,,,,,,,,,,,,,,,,,,,,,,,,,,,,,,,,,,,,,,,,,,,,,,,,,,,,,,,,,,,,,,,,,,,,,,,,,,,,,,,,,,,,,,,,,,,,,,,,,,,,,,,,,,,,,,,,,,,,,,,,
,,,,,,5f8eeed471a1830af422d7a1,62c5391fe83053fd22c814b7,2022-07-06_08h27.15.247,Colour_Asymmetry_Pilot,2022.1.3,Win32,60.51437216,62c50e9c1127f2cd403a315f,0,161,161,26,1,twoone,,,,,,,,,,,,,,,,,,,,,,,,,,,,,,,,,,,,,,,,,,,,,,,,,,,,,,,,,,,,,,,,,,,,,,,,,,,,,,,,,,,,,,,,,,,,,,,,,,,,,,,,,,,,,,,,,,,,,,,,,,,,,,,,,,,,,,,,,,,,,,,,,,,,,,,,,,,,,
,,,,,,5f8eeed471a1830af422d7a1,62c5391fe83053fd22c814b7,2022-07-06_08h27.15.247,Colour_Asymmetry_Pilot,2022.1.3,Win32,60.51437216,62c50e9c1127f2cd403a315f,,,,,,,space,1.5369,space,13.3803,space,89.1146,space,8.5969,space,3.8205,space,5.2385,"[-0.06680000000000008,-0.45100000000000007,-0.906]",fourtwo,"[0.6547999999999998,-0.043199999999999905,-0.011800000000000033]",-4,8.8704,-66,91,1,0,0,response7disk_5,0,3,1,0,0,rectangle_8,0,3,1,0,0,1,0,3,1,0,0,0,0,0,0,1,,,,,,,,,,,,,,,,,,,,,,,,,,,,,,,,,,,,,,,,,,,,,,,,,,,,,,,,,,,,,,,,,,,,,,,,,,,,,,,,,,,,,,,,,,,,,,,,,,,,,,,,,,,,,,,,
,,,,,,5f8eeed471a1830af422d7a1,62c5391fe83053fd22c814b7,2022-07-06_08h27.15.247,Colour_Asymmetry_Pilot,2022.1.3,Win32,60.51437216,62c50e9c1127f2cd403a315f,,,,,,,,,,,,,,,,,,,"[-0.9766,-0.6472,0.07440000000000002]",twoone,"[0.9372,0.9450000000000001,0.8980000000000001]",-4,2.9036,-39,99,1,0,0,response7disk_5,-2,-7,1,0,0,rectangle_8,-2,-7,1,0,0,1,-2,-7,1,0,0,1,0,1,0,1,,,,,,,,,,,,,,,,,,,,,,,,,,,,,,,,,,,,,,,,,,,,,,,,,,,,,,,,,,,,,,,,,,,,,,,,,,,,,,,,,,,,,,,,,,,,,,,,,,,,,,,,,,,,,,,,
,,,,,,5f8eeed471a1830af422d7a1,62c5391fe83053fd22c814b7,2022-07-06_08h27.15.247,Colour_Asymmetry_Pilot,2022.1.3,Win32,60.51437216,62c50e9c1127f2cd403a315f,,,,,,,,,,,,,,,,,,,"[0.2784,-0.31000000000000005,-0.5452]",threefour,"[-0.24719999999999998,0.5213999999999999,-0.12959999999999994]",-3,2.2841,-106,29,1,0,0,response7disk_5,-3,-8,1,0,0,rectangle_8,-3,-8,1,0,0,1,-3,-8,1,0,0,2,0,2,0,1,,,,,,,,,,,,,,,,,,,,,,,,,,,,,,,,,,,,,,,,,,,,,,,,,,,,,,,,,,,,,,,,,,,,,,,,,,,,,,,,,,,,,,,,,,,,,,,,,,,,,,,,,,,,,,,,
,,,,,,5f8eeed471a1830af422d7a1,62c5391fe83053fd22c814b7,2022-07-06_08h27.15.247,Colour_Asymmetry_Pilot,2022.1.3,Win32,60.51437216,62c50e9c1127f2cd403a315f,,,,,,,,,,,,,,,,,,,"[-0.050999999999999934,-0.6706000000000001,-0.804]",threefour,"[0.8115999999999999,-0.0040000000000000036,-0.09819999999999995]",-2,1.5996,-76,-41,1,0,0,response5disk_5,4,9,1,0,0,rectangle_8,4,9,1,0,0,1,4,9,1,0,0,3,0,3,0,1,,,,,,,,,,,,,,,,,,,,,,,,,,,,,,,,,,,,,,,,,,,,,,,,,,,,,,,,,,,,,,,,,,,,,,,,,,,,,,,,,,,,,,,,,,,,,,,,,,,,,,,,,,,,,,,,
,,,,,,5f8eeed471a1830af422d7a1,62c5391fe83053fd22c814b7,2022-07-06_08h27.15.247,Colour_Asymmetry_Pilot,2022.1.3,Win32,60.51437216,62c50e9c1127f2cd403a315f,,,,,,,,,,,,,,,,,,,"[-0.26280000000000003,-0.2158,-0.3256]",onetwo,"[-0.24719999999999998,-0.0354000000000001,0.3175999999999999]",-3,2.136,-82,28,1,0,0,response7disk_5,14,15,1,0,0,rectangle_8,14,15,1,0,0,1,14,15,1,0,0,4,0,4,0,1,,,,,,,,,,,,,,,,,,,,,,,,,,,,,,,,,,,,,,,,,,,,,,,,,,,,,,,,,,,,,,,,,,,,,,,,,,,,,,,,,,,,,,,,,,,,,,,,,,,,,,,,,,,,,,,,
,,,,,,5f8eeed471a1830af422d7a1,62c5391fe83053fd22c814b7,2022-07-06_08h27.15.247,Colour_Asymmetry_Pilot,2022.1.3,Win32,60.51437216,62c50e9c1127f2cd403a315f,,,,,,,,,,,,,,,,,,,"[0.5528,0.7409999999999999,-0.71]",onetwo,"[0.04299999999999993,0.16060000000000008,-0.6628000000000001]",-1,1.8493,-61,-101,1,0,0,response5disk_5,25,-4,1,0,0,rectangle_8,-30,-68,1,0,0,1,21,5,1,0,0,5,0,5,0,1,response5disk_7,3,rectangle_4,,,,,,,,,,,,,,,,,,,,,,,,,,,,,,,,,,,,,,,,,,,,,,,,,,,,,,,,,,,,,,,,,,,,,,,,,,,,,,,,,,,,,,,,,,,,,,,,,,,,,,,,,,,,,
,,,,,,5f8eeed471a1830af422d7a1,62c5391fe83053fd22c814b7,2022-07-06_08h27.15.247,Colour_Asymmetry_Pilot,2022.1.3,Win32,60.51437216,62c50e9c1127f2cd403a315f,,,,,,,,,,,,,,,,,,,"[-0.09019999999999995,0.44300000000000006,0.5371999999999999]",fourtwo,"[-0.5452,-0.608,0.2470000000000001]",-3,2.4391,-92,36,1,0,0,response7disk_5,21,6,1,0,0,rectangle_8,21,6,1,0,0,1,21,6,1,0,0,6,0,6,0,1,,,,,,,,,,,,,,,,,,,,,,,,,,,,,,,,,,,,,,,,,,,,,,,,,,,,,,,,,,,,,,,,,,,,,,,,,,,,,,,,,,,,,,,,,,,,,,,,,,,,,,,,,,,,,,,,
,,,,,,5f8eeed471a1830af422d7a1,62c5391fe83053fd22c814b7,2022-07-06_08h27.15.247,Colour_Asymmetry_Pilot,2022.1.3,Win32,60.51437216,62c50e9c1127f2cd403a315f,,,,,,,,,,,,,,,,,,,,threeone,,-2,1.7566,,,,,,,,,,,,,,,,,,,,,,,,,,,,,,,,space,3.389,"[0.3568,-0.20799999999999996,-0.9844]","[0.5528,0.7409999999999999,-0.71]",-82,-38,1,0,0,response5disk,-5,-14,1,0,0,rectangle,-5,-14,1,0,0,,2,0.0059,0,-5,-14,1,0,0,0,0,0,7,1,7,first,,,,,,,,,,,,,,,,,,,,,,,,,,,,,,,,,,,,,,,,,,,,,,,,,,,,,,,,,,,,,,,,,,,,,,,,
,,,,,,5f8eeed471a1830af422d7a1,62c5391fe83053fd22c814b7,2022-07-06_08h27.15.247,Colour_Asymmetry_Pilot,2022.1.3,Win32,60.51437216,62c50e9c1127f2cd403a315f,,,,,,,,,,,,,,,,,,,,onetwo,,-4,1.7517,,,,,,,,,,,,,,,,,,,,,,,,,,,,,,,,,,"[0.7018,0.7802,-0.16079999999999994]","[-0.6235999999999999,-0.6786,-0.08239999999999992]",-31,92,1,0,0,response7disk,-4,3,1,0,0,rectangle,-4,3,1,0,0,,2,0.0011,0,-4,3,1,0,0,0,1,1,129,1,48,second,,,,,,,,,,,,,,,,,,,,,,,,,,,,,,,,,,,,,,,,,,,,,,,,,,,,,,,,,,,,,,,,,,,,,,,,
,,,,,,5f8eeed471a1830af422d7a1,62c5391fe83053fd22c814b7,2022-07-06_08h27.15.247,Colour_Asymmetry_Pilot,2022.1.3,Win32,60.51437216,62c50e9c1127f2cd403a315f,,,,,,,,,,,,,,,,,,,,threefour,,-3,1.12,,,,,,,,,,,,,,,,,,,,,,,,,,,,,,,,,,"[-0.2942,-0.7648,-0.7492000000000001]","[0.37240000000000006,0.4980000000000002,-0.2864]",-86,45,1,0,0,response7disk,10,-10,1,0,0,rectangle,10,-10,1,0,0,,2,0.0005,0,10,-10,1,0,0,0,2,2,30,1,30,first,,,,,,,,,,,,,,,,,,,,,,,,,,,,,,,,,,,,,,,,,,,,,,,,,,,,,,,,,,,,,,,,,,,,,,,,
,,,,,,5f8eeed471a1830af422d7a1,62c5391fe83053fd22c814b7,2022-07-06_08h27.15.247,Colour_Asymmetry_Pilot,2022.1.3,Win32,60.51437216,62c50e9c1127f2cd403a315f,,,,,,,,,,,,,,,,,,,,twoone,,-2,1.1334,,,,,,,,,,,,,,,,,,,,,,,,,,,,,,,,,,"[0.8115999999999999,-0.0040000000000000036,-0.09819999999999995]","[0.9213999999999998,0.6391999999999998,-0.9922]",-98,-54,1,0,0,response5disk,-2,0,1,0,0,rectangle,-2,0,1,0,0,,3,0.0026,0,-2,0,1,0,0,0,3,3,106,1,25,second,,,,,,,,,,,,,,,,,,,,,,,,,,,,,,,,,,,,,,,,,,,,,,,,,,,,,,,,,,,,,,,,,,,,,,,,
,,,,,,5f8eeed471a1830af422d7a1,62c5391fe83053fd22c814b7,2022-07-06_08h27.15.247,Colour_Asymmetry_Pilot,2022.1.3,Win32,60.51437216,62c50e9c1127f2cd403a315f,,,,,,,,,,,,,,,,,,,,onethree,,-3,1.5178,,,,,,,,,,,,,,,,,,,,,,,,,,,,,,,,,,"[0.40379999999999994,0.09000000000000008,0.44300000000000006]","[-0.9296,-0.12959999999999994,-0.043199999999999905]",-102,63,1,0,0,response7disk,-15,12,1,0,0,rectangle,-15,12,1,0,0,,1,0.0029,0,-15,12,1,0,0,0,4,4,118,1,37,second,,,,,,,,,,,,,,,,,,,,,,,,,,,,,,,,,,,,,,,,,,,,,,,,,,,,,,,,,,,,,,,,,,,,,,,,
,,,,,,5f8eeed471a1830af422d7a1,62c5391fe83053fd22c814b7,2022-07-06_08h27.15.247,Colour_Asymmetry_Pilot,2022.1.3,Win32,60.51437216,62c50e9c1127f2cd403a315f,,,,,,,,,,,,,,,,,,,,onetwo,,-4,1.0841,,,,,,,,,,,,,,,,,,,,,,,,,,,,,,,,,,"[-0.20799999999999996,-0.655,-0.01980000000000004]","[0.6625999999999999,0.4980000000000002,-0.357]",-32,75,1,0,0,response7disk,3,-1,1,0,0,rectangle,3,-1,1,0,0,,2,0.0037,0,3,-1,1,0,0,0,5,5,53,1,53,first,,,,,,,,,,,,,,,,,,,,,,,,,,,,,,,,,,,,,,,,,,,,,,,,,,,,,,,,,,,,,,,,,,,,,,,,
,,,,,,5f8eeed471a1830af422d7a1,62c5391fe83053fd22c814b7,2022-07-06_08h27.15.247,Colour_Asymmetry_Pilot,2022.1.3,Win32,60.51437216,62c50e9c1127f2cd403a315f,,,,,,,,,,,,,,,,,,,,fourthree,,-4,0.9617,,,,,,,,,,,,,,,,,,,,,,,,,,,,,,,,,,"[0.8274000000000001,-0.5844,-0.9452]","[-0.4276,0.0038000000000000256,-0.3256]",-44,102,1,0,0,response7disk,12,-9,1,0,0,rectangle,12,-9,1,0,0,,3,0.0028,0,12,-9,1,0,0,0,6,6,158,1,77,second,,,,,,,,,,,,,,,,,,,,,,,,,,,,,,,,,,,,,,,,,,,,,,,,,,,,,,,,,,,,,,,,,,,,,,,,
,,,,,,5f8eeed471a1830af422d7a1,62c5391fe83053fd22c814b7,2022-07-06_08h27.15.247,Colour_Asymmetry_Pilot,2022.1.3,Win32,60.51437216,62c50e9c1127f2cd403a315f,,,,,,,,,,,,,,,,,,,,twoone,,-4,0.9352,,,,,,,,,,,,,,,,,,,,,,,,,,,,,,,,,,"[-0.30200000000000005,0.14500000000000002,0.2784]","[0.3568,-0.20799999999999996,-0.9844]",-32,102,1,0,0,response7disk,-1,-5,1,0,0,rectangle,-1,-5,1,0,0,,2,0.0031,0,-1,-5,1,0,0,0,7,7,150,1,69,second,,,,,,,,,,,,,,,,,,,,,,,,,,,,,,,,,,,,,,,,,,,,,,,,,,,,,,,,,,,,,,,,,,,,,,,,
,,,,,,5f8eeed471a1830af422d7a1,62c5391fe83053fd22c814b7,2022-07-06_08h27.15.247,Colour_Asymmetry_Pilot,2022.1.3,Win32,60.51437216,62c50e9c1127f2cd403a315f,,,,,,,,,,,,,,,,,,,,fourtwo,,-4,0.9979,,,,,,,,,,,,,,,,,,,,,,,,,,,,,,,,,,"[-0.2942,-0.7648,-0.7492000000000001]","[0.37240000000000006,0.4980000000000002,-0.2864]",-52,97,1,0,0,response7disk,-3,-15,1,0,0,rectangle,-3,-15,1,0,0,,1,0.0027,0,-3,-15,1,0,0,0,8,8,85,1,4,second,,,,,,,,,,,,,,,,,,,,,,,,,,,,,,,,,,,,,,,,,,,,,,,,,,,,,,,,,,,,,,,,,,,,,,,,
,,,,,,5f8eeed471a1830af422d7a1,62c5391fe83053fd22c814b7,2022-07-06_08h27.15.247,Colour_Asymmetry_Pilot,2022.1.3,Win32,60.51437216,62c50e9c1127f2cd403a315f,,,,,,,,,,,,,,,,,,,,onetwo,,-2,1.2518,,,,,,,,,,,,,,,,,,,,,,,,,,,,,,,,,,"[-0.10599999999999998,-0.10599999999999998,0.5841999999999998]","[-0.5688,-0.08239999999999992,-0.1844]",-81,-40,1,0,0,response5disk,16,-4,1,0,0,rectangle,16,-4,1,0,0,,2,0.0026,0,16,-4,1,0,0,0,9,9,79,1,79,first,,,,,,,,,,,,,,,,,,,,,,,,,,,,,,,,,,,,,,,,,,,,,,,,,,,,,,,,,,,,,,,,,,,,,,,,
,,,,,,5f8eeed471a1830af422d7a1,62c5391fe83053fd22c814b7,2022-07-06_08h27.15.247,Colour_Asymmetry_Pilot,2022.1.3,Win32,60.51437216,62c50e9c1127f2cd403a315f,,,,,,,,,,,,,,,,,,,,fourtwo,,-4,1.1679,,,,,,,,,,,,,,,,,,,,,,,,,,,,,,,,,,"[1,0.12939999999999996,-1]","[-0.10599999999999998,-0.15300000000000002,0.15280000000000005]",-46,69,1,0,0,response7disk,-3,6,1,0,0,rectangle,-88,-44,1,0,0,-2,2,6.0802,1,-3,0,1,0,0,0,10,10,104,1,23,second,response5disk_3,rectangle,,,,,,,,,,,,,,,,,,,,,,,,,,,,,,,,,,,,,,,,,,,,,,,,,,,,,,,,,,,,,,,,,,,,,,
,,,,,,5f8eeed471a1830af422d7a1,62c5391fe83053fd22c814b7,2022-07-06_08h27.15.247,Colour_Asymmetry_Pilot,2022.1.3,Win32,60.51437216,62c50e9c1127f2cd403a315f,,,,,,,,,,,,,,,,,,,,threeone,,-4,3.6623,,,,,,,,,,,,,,,,,,,,,,,,,,,,,,,,,,"[0.3568,-0.20799999999999996,-0.9844]","[-0.30200000000000005,0.14500000000000002,0.2784]",-33,106,1,0,0,response7disk,-4,1,1,0,0,rectangle,-4,1,1,0,0,-2,2,0.0006,0,-4,1,1,0,0,0,11,11,69,1,69,first,,,,,,,,,,,,,,,,,,,,,,,,,,,,,,,,,,,,,,,,,,,,,,,,,,,,,,,,,,,,,,,,,,,,,,,,
,,,,,,5f8eeed471a1830af422d7a1,62c5391fe83053fd22c814b7,2022-07-06_08h27.15.247,Colour_Asymmetry_Pilot,2022.1.3,Win32,60.51437216,62c50e9c1127f2cd403a315f,,,,,,,,,,,,,,,,,,,,onethree,,-3,1.7333,,,,,,,,,,,,,,,,,,,,,,,,,,,,,,,,,,"[0.23920000000000008,0.2704,0.16060000000000008]","[-0.24719999999999998,-0.0354000000000001,0.3175999999999999]",-93,40,1,0,0,response7disk,-16,3,1,0,0,rectangle,-16,3,1,0,0,-2,3,0.0027,0,-16,3,1,0,0,0,12,12,103,1,22,second,,,,,,,,,,,,,,,,,,,,,,,,,,,,,,,,,,,,,,,,,,,,,,,,,,,,,,,,,,,,,,,,,,,,,,,,
,,,,,,5f8eeed471a1830af422d7a1,62c5391fe83053fd22c814b7,2022-07-06_08h27.15.247,Colour_Asymmetry_Pilot,2022.1.3,Win32,60.51437216,62c50e9c1127f2cd403a315f,,,,,,,,,,,,,,,,,,,,onetwo,,-2,2.6133,,,,,,,,,,,,,,,,,,,,,,,,,,,,,,,,,,"[0.19199999999999995,0.18419999999999992,0.5136000000000001]","[0.7018,0.7176,0.6155999999999999]",-87,-45,1,0,0,response5disk,0,2,1,0,0,rectangle,0,2,1,0,0,-2,2,0.0028,0,0,2,1,0,0,0,13,13,80,1,80,first,,,,,,,,,,,,,,,,,,,,,,,,,,,,,,,,,,,,,,,,,,,,,,,,,,,,,,,,,,,,,,,,,,,,,,,,
,,,,,,5f8eeed471a1830af422d7a1,62c5391fe83053fd22c814b7,2022-07-06_08h27.15.247,Colour_Asymmetry_Pilot,2022.1.3,Win32,60.51437216,62c50e9c1127f2cd403a315f,,,,,,,,,,,,,,,,,,,,threefour,,-2,1.5852,,,,,,,,,,,,,,,,,,,,,,,,,,,,,,,,,,"[0.11359999999999992,0.6312,0.5213999999999999]","[-0.7412000000000001,-0.08239999999999992,-0.6864]",-97,-71,1,0,0,response5disk,17,6,1,0,0,rectangle,17,6,1,0,0,-2,2,0.0005,0,17,6,1,0,0,0,14,14,27,1,27,first,,,,,,,,,,,,,,,,,,,,,,,,,,,,,,,,,,,,,,,,,,,,,,,,,,,,,,,,,,,,,,,,,,,,,,,,
,,,,,,5f8eeed471a1830af422d7a1,62c5391fe83053fd22c814b7,2022-07-06_08h27.15.247,Colour_Asymmetry_Pilot,2022.1.3,Win32,60.51437216,62c50e9c1127f2cd403a315f,,,,,,,,,,,,,,,,,,,,onetwo,,-4,1.2523,,,,,,,,,,,,,,,,,,,,,,,,,,,,,,,,,,"[-0.9688,-0.38039999999999996,-0.41979999999999995]","[0.34099999999999997,0.5841999999999998,-0.9844]",-50,91,1,0,0,response7disk,-8,-5,1,0,0,rectangle,-8,-5,1,0,0,-2,3,0.0026,0,-8,-5,1,0,0,0,15,15,78,1,78,first,,,,,,,,,,,,,,,,,,,,,,,,,,,,,,,,,,,,,,,,,,,,,,,,,,,,,,,,,,,,,,,,,,,,,,,,
,,,,,,5f8eeed471a1830af422d7a1,62c5391fe83053fd22c814b7,2022-07-06_08h27.15.247,Colour_Asymmetry_Pilot,2022.1.3,Win32,60.51437216,62c50e9c1127f2cd403a315f,,,,,,,,,,,,,,,,,,,,onethree,,-4,1.2262,,,,,,,,,,,,,,,,,,,,,,,,,,,,,,,,,,"[0.7802,-0.23140000000000005,-0.20799999999999996]","[-0.24719999999999998,0.5213999999999999,-0.12959999999999994]",-20,85,1,0,0,response7disk,3,-3,1,0,0,rectangle,3,-3,1,0,0,-2,2,0.0026,0,3,-3,1,0,0,0,16,16,92,1,11,second,,,,,,,,,,,,,,,,,,,,,,,,,,,,,,,,,,,,,,,,,,,,,,,,,,,,,,,,,,,,,,,,,,,,,,,,
,,,,,,5f8eeed471a1830af422d7a1,62c5391fe83053fd22c814b7,2022-07-06_08h27.15.247,Colour_Asymmetry_Pilot,2022.1.3,Win32,60.51437216,62c50e9c1127f2cd403a315f,,,,,,,,,,,,,,,,,,,,onetwo,,-4,1.2843,,,,,,,,,,,,,,,,,,,,,,,,,,,,,,,,,,"[0.37240000000000006,0.4980000000000002,-0.2864]","[-0.2942,-0.7648,-0.7492000000000001]",-44,99,1,0,0,response7disk,-1,-6,1,0,0,rectangle,-1,-6,1,0,0,-2,2,0.0006,0,-1,-6,1,0,0,0,17,17,4,1,4,first,,,,,,,,,,,,,,,,,,,,,,,,,,,,,,,,,,,,,,,,,,,,,,,,,,,,,,,,,,,,,,,,,,,,,,,,
