trials.thisRepN,trials.thisTrialN,trials.thisN,trials.thisIndex,trials.ran,Colourcodes,participant,session,date,expName,psychopyVersion,OS,frameRate,study_id,trials_4.thisRepN,trials_4.thisTrialN,trials_4.thisN,trials_4.thisIndex,trials_4.ran,StimulusPos,key_resp.keys,key_resp.rt,key_resp_2.keys,key_resp_2.rt,key_resp_15.keys,key_resp_15.rt,key_resp_17.keys,key_resp_17.rt,key_resp_9.keys,key_resp_9.rt,key_resp_10.keys,key_resp_10.rt,Circle1_col,Ecc,Circle2_col,similarity,response_time,mouse_5.x,mouse_5.y,mouse_5.leftButton,mouse_5.midButton,mouse_5.rightButton,mouse_5.clicked_name,mouse_10.x,mouse_10.y,mouse_10.leftButton,mouse_10.midButton,mouse_10.rightButton,mouse_10.clicked_name,mouse_7.x,mouse_7.y,mouse_7.leftButton,mouse_7.midButton,mouse_7.rightButton,catchnumberprac,mouse_6.x,mouse_6.y,mouse_6.leftButton,mouse_6.midButton,mouse_6.rightButton,duringprac.thisRepN,duringprac.thisTrialN,duringprac.thisN,duringprac.thisIndex,duringprac.ran,mouse_7.clicked_name,catchprac,mouse_6.clicked_name,key_resp_22.keys,key_resp_22.rt,Circle1_colour,Circle2_colour,mouse.x,mouse.y,mouse.leftButton,mouse.midButton,mouse.rightButton,mouse.clicked_name,mouse_2.x,mouse_2.y,mouse_2.leftButton,mouse_2.midButton,mouse_2.rightButton,mouse_2.clicked_name,mouse_3.x,mouse_3.y,mouse_3.leftButton,mouse_3.midButton,mouse_3.rightButton,catchresponse,catchnumber,response_time_catch,Catch,mouse_11.x,mouse_11.y,mouse_11.leftButton,mouse_11.midButton,mouse_11.rightButton,trials_2.thisRepN,trials_2.thisTrialN,trials_2.thisN,trials_2.thisIndex,trials_2.ran,Colourpair,Temporder,mouse_3.clicked_name,mouse_11.clicked_name,trials_3.thisRepN,trials_3.thisTrialN,trials_3.thisN,trials_3.thisIndex,trials_3.ran,key_resp_instr_Ishi.keys,key_resp_instr_Ishi.rt,Ishi_trial_keyresp.keys,Ishi_textbox.text,Ishi_mouse.x,Ishi_mouse.y,Ishi_mouse.leftButton,Ishi_mouse.midButton,Ishi_mouse.rightButton,Ishi_mouse.clicked_name,Ishi_loop.thisRepN,Ishi_loop.thisTrialN,Ishi_loop.thisN,Ishi_loop.thisIndex,Ishi_loop.ran,imageaddress,textbox.text,mouse_4.x,mouse_4.y,mouse_4.leftButton,mouse_4.midButton,mouse_4.rightButton,mouse_4.clicked_name,textbox_2.text,mouse_8.x,mouse_8.y,mouse_8.leftButton,mouse_8.midButton,mouse_8.rightButton,mouse_8.clicked_name,textbox_3.text,mouse_9.x,mouse_9.y,mouse_9.leftButton,mouse_9.midButton,mouse_9.rightButton,mouse_9.clicked_name,textbox_4.text,mouse_12.x,mouse_12.y,mouse_12.leftButton,mouse_12.midButton,mouse_12.rightButton,mouse_12.clicked_name,textbox_5.text,mouse_13.x,mouse_13.y,mouse_13.leftButton,mouse_13.midButton,mouse_13.rightButton,mouse_13.clicked_name,textbox_6.text,mouse_14.x,mouse_14.y,mouse_14.leftButton,mouse_14.midButton,mouse_14.rightButton,mouse_14.clicked_name,textbox_7.text,mouse_15.x,mouse_15.y,mouse_15.leftButton,mouse_15.midButton,mouse_15.rightButton,mouse_15.clicked_name
0,0,0,45,1,,614deecf67f2c8ccfe3df23b,62c53a01808438d282f10f02,2022-07-06_09h33.32.276,Colour_Asymmetry_Pilot,2022.1.3,Win32,60.0060006,62c50e9c1127f2cd403a315f,,,,,,,,,,,,,,,,,,,,,,,,,,,,,,,,,,,,,,,,,,,,,,,,,,,,,,,,,,,,,,,,,,,,,,,,,,,,,,,,,,,,,,,,,,,,,,,,,,,,,,,,,,,,,,,,,,,,,,,,,,,,,,,,,,,,,,,,,,,,,,,,,,,,,,,,,,,,,,,,,,,
0,1,1,62,1,,614deecf67f2c8ccfe3df23b,62c53a01808438d282f10f02,2022-07-06_09h33.32.276,Colour_Asymmetry_Pilot,2022.1.3,Win32,60.0060006,62c50e9c1127f2cd403a315f,,,,,,,,,,,,,,,,,,,,,,,,,,,,,,,,,,,,,,,,,,,,,,,,,,,,,,,,,,,,,,,,,,,,,,,,,,,,,,,,,,,,,,,,,,,,,,,,,,,,,,,,,,,,,,,,,,,,,,,,,,,,,,,,,,,,,,,,,,,,,,,,,,,,,,,,,,,,,,,,,,,
0,2,2,12,1,,614deecf67f2c8ccfe3df23b,62c53a01808438d282f10f02,2022-07-06_09h33.32.276,Colour_Asymmetry_Pilot,2022.1.3,Win32,60.0060006,62c50e9c1127f2cd403a315f,,,,,,,,,,,,,,,,,,,,,,,,,,,,,,,,,,,,,,,,,,,,,,,,,,,,,,,,,,,,,,,,,,,,,,,,,,,,,,,,,,,,,,,,,,,,,,,,,,,,,,,,,,,,,,,,,,,,,,,,,,,,,,,,,,,,,,,,,,,,,,,,,,,,,,,,,,,,,,,,,,,
0,3,3,56,1,,614deecf67f2c8ccfe3df23b,62c53a01808438d282f10f02,2022-07-06_09h33.32.276,Colour_Asymmetry_Pilot,2022.1.3,Win32,60.0060006,62c50e9c1127f2cd403a315f,,,,,,,,,,,,,,,,,,,,,,,,,,,,,,,,,,,,,,,,,,,,,,,,,,,,,,,,,,,,,,,,,,,,,,,,,,,,,,,,,,,,,,,,,,,,,,,,,,,,,,,,,,,,,,,,,,,,,,,,,,,,,,,,,,,,,,,,,,,,,,,,,,,,,,,,,,,,,,,,,,,
0,4,4,59,1,,614deecf67f2c8ccfe3df23b,62c53a01808438d282f10f02,2022-07-06_09h33.32.276,Colour_Asymmetry_Pilot,2022.1.3,Win32,60.0060006,62c50e9c1127f2cd403a315f,,,,,,,,,,,,,,,,,,,,,,,,,,,,,,,,,,,,,,,,,,,,,,,,,,,,,,,,,,,,,,,,,,,,,,,,,,,,,,,,,,,,,,,,,,,,,,,,,,,,,,,,,,,,,,,,,,,,,,,,,,,,,,,,,,,,,,,,,,,,,,,,,,,,,,,,,,,,,,,,,,,
0,5,5,53,1,,614deecf67f2c8ccfe3df23b,62c53a01808438d282f10f02,2022-07-06_09h33.32.276,Colour_Asymmetry_Pilot,2022.1.3,Win32,60.0060006,62c50e9c1127f2cd403a315f,,,,,,,,,,,,,,,,,,,,,,,,,,,,,,,,,,,,,,,,,,,,,,,,,,,,,,,,,,,,,,,,,,,,,,,,,,,,,,,,,,,,,,,,,,,,,,,,,,,,,,,,,,,,,,,,,,,,,,,,,,,,,,,,,,,,,,,,,,,,,,,,,,,,,,,,,,,,,,,,,,,
0,6,6,13,1,,614deecf67f2c8ccfe3df23b,62c53a01808438d282f10f02,2022-07-06_09h33.32.276,Colour_Asymmetry_Pilot,2022.1.3,Win32,60.0060006,62c50e9c1127f2cd403a315f,,,,,,,,,,,,,,,,,,,,,,,,,,,,,,,,,,,,,,,,,,,,,,,,,,,,,,,,,,,,,,,,,,,,,,,,,,,,,,,,,,,,,,,,,,,,,,,,,,,,,,,,,,,,,,,,,,,,,,,,,,,,,,,,,,,,,,,,,,,,,,,,,,,,,,,,,,,,,,,,,,,
0,7,7,1,1,,614deecf67f2c8ccfe3df23b,62c53a01808438d282f10f02,2022-07-06_09h33.32.276,Colour_Asymmetry_Pilot,2022.1.3,Win32,60.0060006,62c50e9c1127f2cd403a315f,,,,,,,,,,,,,,,,,,,,,,,,,,,,,,,,,,,,,,,,,,,,,,,,,,,,,,,,,,,,,,,,,,,,,,,,,,,,,,,,,,,,,,,,,,,,,,,,,,,,,,,,,,,,,,,,,,,,,,,,,,,,,,,,,,,,,,,,,,,,,,,,,,,,,,,,,,,,,,,,,,,
0,8,8,9,1,,614deecf67f2c8ccfe3df23b,62c53a01808438d282f10f02,2022-07-06_09h33.32.276,Colour_Asymmetry_Pilot,2022.1.3,Win32,60.0060006,62c50e9c1127f2cd403a315f,,,,,,,,,,,,,,,,,,,,,,,,,,,,,,,,,,,,,,,,,,,,,,,,,,,,,,,,,,,,,,,,,,,,,,,,,,,,,,,,,,,,,,,,,,,,,,,,,,,,,,,,,,,,,,,,,,,,,,,,,,,,,,,,,,,,,,,,,,,,,,,,,,,,,,,,,,,,,,,,,,,
0,9,9,18,1,,614deecf67f2c8ccfe3df23b,62c53a01808438d282f10f02,2022-07-06_09h33.32.276,Colour_Asymmetry_Pilot,2022.1.3,Win32,60.0060006,62c50e9c1127f2cd403a315f,,,,,,,,,,,,,,,,,,,,,,,,,,,,,,,,,,,,,,,,,,,,,,,,,,,,,,,,,,,,,,,,,,,,,,,,,,,,,,,,,,,,,,,,,,,,,,,,,,,,,,,,,,,,,,,,,,,,,,,,,,,,,,,,,,,,,,,,,,,,,,,,,,,,,,,,,,,,,,,,,,,
0,10,10,71,1,,614deecf67f2c8ccfe3df23b,62c53a01808438d282f10f02,2022-07-06_09h33.32.276,Colour_Asymmetry_Pilot,2022.1.3,Win32,60.0060006,62c50e9c1127f2cd403a315f,,,,,,,,,,,,,,,,,,,,,,,,,,,,,,,,,,,,,,,,,,,,,,,,,,,,,,,,,,,,,,,,,,,,,,,,,,,,,,,,,,,,,,,,,,,,,,,,,,,,,,,,,,,,,,,,,,,,,,,,,,,,,,,,,,,,,,,,,,,,,,,,,,,,,,,,,,,,,,,,,,,
0,11,11,36,1,,614deecf67f2c8ccfe3df23b,62c53a01808438d282f10f02,2022-07-06_09h33.32.276,Colour_Asymmetry_Pilot,2022.1.3,Win32,60.0060006,62c50e9c1127f2cd403a315f,,,,,,,,,,,,,,,,,,,,,,,,,,,,,,,,,,,,,,,,,,,,,,,,,,,,,,,,,,,,,,,,,,,,,,,,,,,,,,,,,,,,,,,,,,,,,,,,,,,,,,,,,,,,,,,,,,,,,,,,,,,,,,,,,,,,,,,,,,,,,,,,,,,,,,,,,,,,,,,,,,,
0,12,12,84,1,,614deecf67f2c8ccfe3df23b,62c53a01808438d282f10f02,2022-07-06_09h33.32.276,Colour_Asymmetry_Pilot,2022.1.3,Win32,60.0060006,62c50e9c1127f2cd403a315f,,,,,,,,,,,,,,,,,,,,,,,,,,,,,,,,,,,,,,,,,,,,,,,,,,,,,,,,,,,,,,,,,,,,,,,,,,,,,,,,,,,,,,,,,,,,,,,,,,,,,,,,,,,,,,,,,,,,,,,,,,,,,,,,,,,,,,,,,,,,,,,,,,,,,,,,,,,,,,,,,,,
0,13,13,4,1,,614deecf67f2c8ccfe3df23b,62c53a01808438d282f10f02,2022-07-06_09h33.32.276,Colour_Asymmetry_Pilot,2022.1.3,Win32,60.0060006,62c50e9c1127f2cd403a315f,,,,,,,,,,,,,,,,,,,,,,,,,,,,,,,,,,,,,,,,,,,,,,,,,,,,,,,,,,,,,,,,,,,,,,,,,,,,,,,,,,,,,,,,,,,,,,,,,,,,,,,,,,,,,,,,,,,,,,,,,,,,,,,,,,,,,,,,,,,,,,,,,,,,,,,,,,,,,,,,,,,
0,14,14,21,1,,614deecf67f2c8ccfe3df23b,62c53a01808438d282f10f02,2022-07-06_09h33.32.276,Colour_Asymmetry_Pilot,2022.1.3,Win32,60.0060006,62c50e9c1127f2cd403a315f,,,,,,,,,,,,,,,,,,,,,,,,,,,,,,,,,,,,,,,,,,,,,,,,,,,,,,,,,,,,,,,,,,,,,,,,,,,,,,,,,,,,,,,,,,,,,,,,,,,,,,,,,,,,,,,,,,,,,,,,,,,,,,,,,,,,,,,,,,,,,,,,,,,,,,,,,,,,,,,,,,,
0,15,15,64,1,,614deecf67f2c8ccfe3df23b,62c53a01808438d282f10f02,2022-07-06_09h33.32.276,Colour_Asymmetry_Pilot,2022.1.3,Win32,60.0060006,62c50e9c1127f2cd403a315f,,,,,,,,,,,,,,,,,,,,,,,,,,,,,,,,,,,,,,,,,,,,,,,,,,,,,,,,,,,,,,,,,,,,,,,,,,,,,,,,,,,,,,,,,,,,,,,,,,,,,,,,,,,,,,,,,,,,,,,,,,,,,,,,,,,,,,,,,,,,,,,,,,,,,,,,,,,,,,,,,,,
0,16,16,77,1,,614deecf67f2c8ccfe3df23b,62c53a01808438d282f10f02,2022-07-06_09h33.32.276,Colour_Asymmetry_Pilot,2022.1.3,Win32,60.0060006,62c50e9c1127f2cd403a315f,,,,,,,,,,,,,,,,,,,,,,,,,,,,,,,,,,,,,,,,,,,,,,,,,,,,,,,,,,,,,,,,,,,,,,,,,,,,,,,,,,,,,,,,,,,,,,,,,,,,,,,,,,,,,,,,,,,,,,,,,,,,,,,,,,,,,,,,,,,,,,,,,,,,,,,,,,,,,,,,,,,
0,17,17,66,1,,614deecf67f2c8ccfe3df23b,62c53a01808438d282f10f02,2022-07-06_09h33.32.276,Colour_Asymmetry_Pilot,2022.1.3,Win32,60.0060006,62c50e9c1127f2cd403a315f,,,,,,,,,,,,,,,,,,,,,,,,,,,,,,,,,,,,,,,,,,,,,,,,,,,,,,,,,,,,,,,,,,,,,,,,,,,,,,,,,,,,,,,,,,,,,,,,,,,,,,,,,,,,,,,,,,,,,,,,,,,,,,,,,,,,,,,,,,,,,,,,,,,,,,,,,,,,,,,,,,,
0,18,18,76,1,,614deecf67f2c8ccfe3df23b,62c53a01808438d282f10f02,2022-07-06_09h33.32.276,Colour_Asymmetry_Pilot,2022.1.3,Win32,60.0060006,62c50e9c1127f2cd403a315f,,,,,,,,,,,,,,,,,,,,,,,,,,,,,,,,,,,,,,,,,,,,,,,,,,,,,,,,,,,,,,,,,,,,,,,,,,,,,,,,,,,,,,,,,,,,,,,,,,,,,,,,,,,,,,,,,,,,,,,,,,,,,,,,,,,,,,,,,,,,,,,,,,,,,,,,,,,,,,,,,,,
0,19,19,43,1,,614deecf67f2c8ccfe3df23b,62c53a01808438d282f10f02,2022-07-06_09h33.32.276,Colour_Asymmetry_Pilot,2022.1.3,Win32,60.0060006,62c50e9c1127f2cd403a315f,,,,,,,,,,,,,,,,,,,,,,,,,,,,,,,,,,,,,,,,,,,,,,,,,,,,,,,,,,,,,,,,,,,,,,,,,,,,,,,,,,,,,,,,,,,,,,,,,,,,,,,,,,,,,,,,,,,,,,,,,,,,,,,,,,,,,,,,,,,,,,,,,,,,,,,,,,,,,,,,,,,
0,20,20,72,1,,614deecf67f2c8ccfe3df23b,62c53a01808438d282f10f02,2022-07-06_09h33.32.276,Colour_Asymmetry_Pilot,2022.1.3,Win32,60.0060006,62c50e9c1127f2cd403a315f,,,,,,,,,,,,,,,,,,,,,,,,,,,,,,,,,,,,,,,,,,,,,,,,,,,,,,,,,,,,,,,,,,,,,,,,,,,,,,,,,,,,,,,,,,,,,,,,,,,,,,,,,,,,,,,,,,,,,,,,,,,,,,,,,,,,,,,,,,,,,,,,,,,,,,,,,,,,,,,,,,,
0,21,21,90,1,,614deecf67f2c8ccfe3df23b,62c53a01808438d282f10f02,2022-07-06_09h33.32.276,Colour_Asymmetry_Pilot,2022.1.3,Win32,60.0060006,62c50e9c1127f2cd403a315f,,,,,,,,,,,,,,,,,,,,,,,,,,,,,,,,,,,,,,,,,,,,,,,,,,,,,,,,,,,,,,,,,,,,,,,,,,,,,,,,,,,,,,,,,,,,,,,,,,,,,,,,,,,,,,,,,,,,,,,,,,,,,,,,,,,,,,,,,,,,,,,,,,,,,,,,,,,,,,,,,,,
0,22,22,11,1,,614deecf67f2c8ccfe3df23b,62c53a01808438d282f10f02,2022-07-06_09h33.32.276,Colour_Asymmetry_Pilot,2022.1.3,Win32,60.0060006,62c50e9c1127f2cd403a315f,,,,,,,,,,,,,,,,,,,,,,,,,,,,,,,,,,,,,,,,,,,,,,,,,,,,,,,,,,,,,,,,,,,,,,,,,,,,,,,,,,,,,,,,,,,,,,,,,,,,,,,,,,,,,,,,,,,,,,,,,,,,,,,,,,,,,,,,,,,,,,,,,,,,,,,,,,,,,,,,,,,
0,23,23,32,1,,614deecf67f2c8ccfe3df23b,62c53a01808438d282f10f02,2022-07-06_09h33.32.276,Colour_Asymmetry_Pilot,2022.1.3,Win32,60.0060006,62c50e9c1127f2cd403a315f,,,,,,,,,,,,,,,,,,,,,,,,,,,,,,,,,,,,,,,,,,,,,,,,,,,,,,,,,,,,,,,,,,,,,,,,,,,,,,,,,,,,,,,,,,,,,,,,,,,,,,,,,,,,,,,,,,,,,,,,,,,,,,,,,,,,,,,,,,,,,,,,,,,,,,,,,,,,,,,,,,,
0,24,24,91,1,,614deecf67f2c8ccfe3df23b,62c53a01808438d282f10f02,2022-07-06_09h33.32.276,Colour_Asymmetry_Pilot,2022.1.3,Win32,60.0060006,62c50e9c1127f2cd403a315f,,,,,,,,,,,,,,,,,,,,,,,,,,,,,,,,,,,,,,,,,,,,,,,,,,,,,,,,,,,,,,,,,,,,,,,,,,,,,,,,,,,,,,,,,,,,,,,,,,,,,,,,,,,,,,,,,,,,,,,,,,,,,,,,,,,,,,,,,,,,,,,,,,,,,,,,,,,,,,,,,,,
0,25,25,16,1,,614deecf67f2c8ccfe3df23b,62c53a01808438d282f10f02,2022-07-06_09h33.32.276,Colour_Asymmetry_Pilot,2022.1.3,Win32,60.0060006,62c50e9c1127f2cd403a315f,,,,,,,,,,,,,,,,,,,,,,,,,,,,,,,,,,,,,,,,,,,,,,,,,,,,,,,,,,,,,,,,,,,,,,,,,,,,,,,,,,,,,,,,,,,,,,,,,,,,,,,,,,,,,,,,,,,,,,,,,,,,,,,,,,,,,,,,,,,,,,,,,,,,,,,,,,,,,,,,,,,
0,26,26,54,1,,614deecf67f2c8ccfe3df23b,62c53a01808438d282f10f02,2022-07-06_09h33.32.276,Colour_Asymmetry_Pilot,2022.1.3,Win32,60.0060006,62c50e9c1127f2cd403a315f,,,,,,,,,,,,,,,,,,,,,,,,,,,,,,,,,,,,,,,,,,,,,,,,,,,,,,,,,,,,,,,,,,,,,,,,,,,,,,,,,,,,,,,,,,,,,,,,,,,,,,,,,,,,,,,,,,,,,,,,,,,,,,,,,,,,,,,,,,,,,,,,,,,,,,,,,,,,,,,,,,,
0,27,27,87,1,,614deecf67f2c8ccfe3df23b,62c53a01808438d282f10f02,2022-07-06_09h33.32.276,Colour_Asymmetry_Pilot,2022.1.3,Win32,60.0060006,62c50e9c1127f2cd403a315f,,,,,,,,,,,,,,,,,,,,,,,,,,,,,,,,,,,,,,,,,,,,,,,,,,,,,,,,,,,,,,,,,,,,,,,,,,,,,,,,,,,,,,,,,,,,,,,,,,,,,,,,,,,,,,,,,,,,,,,,,,,,,,,,,,,,,,,,,,,,,,,,,,,,,,,,,,,,,,,,,,,
0,28,28,48,1,,614deecf67f2c8ccfe3df23b,62c53a01808438d282f10f02,2022-07-06_09h33.32.276,Colour_Asymmetry_Pilot,2022.1.3,Win32,60.0060006,62c50e9c1127f2cd403a315f,,,,,,,,,,,,,,,,,,,,,,,,,,,,,,,,,,,,,,,,,,,,,,,,,,,,,,,,,,,,,,,,,,,,,,,,,,,,,,,,,,,,,,,,,,,,,,,,,,,,,,,,,,,,,,,,,,,,,,,,,,,,,,,,,,,,,,,,,,,,,,,,,,,,,,,,,,,,,,,,,,,
0,29,29,19,1,,614deecf67f2c8ccfe3df23b,62c53a01808438d282f10f02,2022-07-06_09h33.32.276,Colour_Asymmetry_Pilot,2022.1.3,Win32,60.0060006,62c50e9c1127f2cd403a315f,,,,,,,,,,,,,,,,,,,,,,,,,,,,,,,,,,,,,,,,,,,,,,,,,,,,,,,,,,,,,,,,,,,,,,,,,,,,,,,,,,,,,,,,,,,,,,,,,,,,,,,,,,,,,,,,,,,,,,,,,,,,,,,,,,,,,,,,,,,,,,,,,,,,,,,,,,,,,,,,,,,
0,30,30,55,1,,614deecf67f2c8ccfe3df23b,62c53a01808438d282f10f02,2022-07-06_09h33.32.276,Colour_Asymmetry_Pilot,2022.1.3,Win32,60.0060006,62c50e9c1127f2cd403a315f,,,,,,,,,,,,,,,,,,,,,,,,,,,,,,,,,,,,,,,,,,,,,,,,,,,,,,,,,,,,,,,,,,,,,,,,,,,,,,,,,,,,,,,,,,,,,,,,,,,,,,,,,,,,,,,,,,,,,,,,,,,,,,,,,,,,,,,,,,,,,,,,,,,,,,,,,,,,,,,,,,,
0,31,31,5,1,,614deecf67f2c8ccfe3df23b,62c53a01808438d282f10f02,2022-07-06_09h33.32.276,Colour_Asymmetry_Pilot,2022.1.3,Win32,60.0060006,62c50e9c1127f2cd403a315f,,,,,,,,,,,,,,,,,,,,,,,,,,,,,,,,,,,,,,,,,,,,,,,,,,,,,,,,,,,,,,,,,,,,,,,,,,,,,,,,,,,,,,,,,,,,,,,,,,,,,,,,,,,,,,,,,,,,,,,,,,,,,,,,,,,,,,,,,,,,,,,,,,,,,,,,,,,,,,,,,,,
0,32,32,89,1,,614deecf67f2c8ccfe3df23b,62c53a01808438d282f10f02,2022-07-06_09h33.32.276,Colour_Asymmetry_Pilot,2022.1.3,Win32,60.0060006,62c50e9c1127f2cd403a315f,,,,,,,,,,,,,,,,,,,,,,,,,,,,,,,,,,,,,,,,,,,,,,,,,,,,,,,,,,,,,,,,,,,,,,,,,,,,,,,,,,,,,,,,,,,,,,,,,,,,,,,,,,,,,,,,,,,,,,,,,,,,,,,,,,,,,,,,,,,,,,,,,,,,,,,,,,,,,,,,,,,
0,33,33,67,1,,614deecf67f2c8ccfe3df23b,62c53a01808438d282f10f02,2022-07-06_09h33.32.276,Colour_Asymmetry_Pilot,2022.1.3,Win32,60.0060006,62c50e9c1127f2cd403a315f,,,,,,,,,,,,,,,,,,,,,,,,,,,,,,,,,,,,,,,,,,,,,,,,,,,,,,,,,,,,,,,,,,,,,,,,,,,,,,,,,,,,,,,,,,,,,,,,,,,,,,,,,,,,,,,,,,,,,,,,,,,,,,,,,,,,,,,,,,,,,,,,,,,,,,,,,,,,,,,,,,,
0,34,34,46,1,,614deecf67f2c8ccfe3df23b,62c53a01808438d282f10f02,2022-07-06_09h33.32.276,Colour_Asymmetry_Pilot,2022.1.3,Win32,60.0060006,62c50e9c1127f2cd403a315f,,,,,,,,,,,,,,,,,,,,,,,,,,,,,,,,,,,,,,,,,,,,,,,,,,,,,,,,,,,,,,,,,,,,,,,,,,,,,,,,,,,,,,,,,,,,,,,,,,,,,,,,,,,,,,,,,,,,,,,,,,,,,,,,,,,,,,,,,,,,,,,,,,,,,,,,,,,,,,,,,,,
0,35,35,28,1,,614deecf67f2c8ccfe3df23b,62c53a01808438d282f10f02,2022-07-06_09h33.32.276,Colour_Asymmetry_Pilot,2022.1.3,Win32,60.0060006,62c50e9c1127f2cd403a315f,,,,,,,,,,,,,,,,,,,,,,,,,,,,,,,,,,,,,,,,,,,,,,,,,,,,,,,,,,,,,,,,,,,,,,,,,,,,,,,,,,,,,,,,,,,,,,,,,,,,,,,,,,,,,,,,,,,,,,,,,,,,,,,,,,,,,,,,,,,,,,,,,,,,,,,,,,,,,,,,,,,
0,36,36,70,1,,614deecf67f2c8ccfe3df23b,62c53a01808438d282f10f02,2022-07-06_09h33.32.276,Colour_Asymmetry_Pilot,2022.1.3,Win32,60.0060006,62c50e9c1127f2cd403a315f,,,,,,,,,,,,,,,,,,,,,,,,,,,,,,,,,,,,,,,,,,,,,,,,,,,,,,,,,,,,,,,,,,,,,,,,,,,,,,,,,,,,,,,,,,,,,,,,,,,,,,,,,,,,,,,,,,,,,,,,,,,,,,,,,,,,,,,,,,,,,,,,,,,,,,,,,,,,,,,,,,,
0,37,37,49,1,,614deecf67f2c8ccfe3df23b,62c53a01808438d282f10f02,2022-07-06_09h33.32.276,Colour_Asymmetry_Pilot,2022.1.3,Win32,60.0060006,62c50e9c1127f2cd403a315f,,,,,,,,,,,,,,,,,,,,,,,,,,,,,,,,,,,,,,,,,,,,,,,,,,,,,,,,,,,,,,,,,,,,,,,,,,,,,,,,,,,,,,,,,,,,,,,,,,,,,,,,,,,,,,,,,,,,,,,,,,,,,,,,,,,,,,,,,,,,,,,,,,,,,,,,,,,,,,,,,,,
0,38,38,26,1,,614deecf67f2c8ccfe3df23b,62c53a01808438d282f10f02,2022-07-06_09h33.32.276,Colour_Asymmetry_Pilot,2022.1.3,Win32,60.0060006,62c50e9c1127f2cd403a315f,,,,,,,,,,,,,,,,,,,,,,,,,,,,,,,,,,,,,,,,,,,,,,,,,,,,,,,,,,,,,,,,,,,,,,,,,,,,,,,,,,,,,,,,,,,,,,,,,,,,,,,,,,,,,,,,,,,,,,,,,,,,,,,,,,,,,,,,,,,,,,,,,,,,,,,,,,,,,,,,,,,
0,39,39,51,1,,614deecf67f2c8ccfe3df23b,62c53a01808438d282f10f02,2022-07-06_09h33.32.276,Colour_Asymmetry_Pilot,2022.1.3,Win32,60.0060006,62c50e9c1127f2cd403a315f,,,,,,,,,,,,,,,,,,,,,,,,,,,,,,,,,,,,,,,,,,,,,,,,,,,,,,,,,,,,,,,,,,,,,,,,,,,,,,,,,,,,,,,,,,,,,,,,,,,,,,,,,,,,,,,,,,,,,,,,,,,,,,,,,,,,,,,,,,,,,,,,,,,,,,,,,,,,,,,,,,,
0,40,40,17,1,,614deecf67f2c8ccfe3df23b,62c53a01808438d282f10f02,2022-07-06_09h33.32.276,Colour_Asymmetry_Pilot,2022.1.3,Win32,60.0060006,62c50e9c1127f2cd403a315f,,,,,,,,,,,,,,,,,,,,,,,,,,,,,,,,,,,,,,,,,,,,,,,,,,,,,,,,,,,,,,,,,,,,,,,,,,,,,,,,,,,,,,,,,,,,,,,,,,,,,,,,,,,,,,,,,,,,,,,,,,,,,,,,,,,,,,,,,,,,,,,,,,,,,,,,,,,,,,,,,,,
0,41,41,50,1,,614deecf67f2c8ccfe3df23b,62c53a01808438d282f10f02,2022-07-06_09h33.32.276,Colour_Asymmetry_Pilot,2022.1.3,Win32,60.0060006,62c50e9c1127f2cd403a315f,,,,,,,,,,,,,,,,,,,,,,,,,,,,,,,,,,,,,,,,,,,,,,,,,,,,,,,,,,,,,,,,,,,,,,,,,,,,,,,,,,,,,,,,,,,,,,,,,,,,,,,,,,,,,,,,,,,,,,,,,,,,,,,,,,,,,,,,,,,,,,,,,,,,,,,,,,,,,,,,,,,
0,42,42,20,1,,614deecf67f2c8ccfe3df23b,62c53a01808438d282f10f02,2022-07-06_09h33.32.276,Colour_Asymmetry_Pilot,2022.1.3,Win32,60.0060006,62c50e9c1127f2cd403a315f,,,,,,,,,,,,,,,,,,,,,,,,,,,,,,,,,,,,,,,,,,,,,,,,,,,,,,,,,,,,,,,,,,,,,,,,,,,,,,,,,,,,,,,,,,,,,,,,,,,,,,,,,,,,,,,,,,,,,,,,,,,,,,,,,,,,,,,,,,,,,,,,,,,,,,,,,,,,,,,,,,,
0,43,43,7,1,,614deecf67f2c8ccfe3df23b,62c53a01808438d282f10f02,2022-07-06_09h33.32.276,Colour_Asymmetry_Pilot,2022.1.3,Win32,60.0060006,62c50e9c1127f2cd403a315f,,,,,,,,,,,,,,,,,,,,,,,,,,,,,,,,,,,,,,,,,,,,,,,,,,,,,,,,,,,,,,,,,,,,,,,,,,,,,,,,,,,,,,,,,,,,,,,,,,,,,,,,,,,,,,,,,,,,,,,,,,,,,,,,,,,,,,,,,,,,,,,,,,,,,,,,,,,,,,,,,,,
0,44,44,60,1,,614deecf67f2c8ccfe3df23b,62c53a01808438d282f10f02,2022-07-06_09h33.32.276,Colour_Asymmetry_Pilot,2022.1.3,Win32,60.0060006,62c50e9c1127f2cd403a315f,,,,,,,,,,,,,,,,,,,,,,,,,,,,,,,,,,,,,,,,,,,,,,,,,,,,,,,,,,,,,,,,,,,,,,,,,,,,,,,,,,,,,,,,,,,,,,,,,,,,,,,,,,,,,,,,,,,,,,,,,,,,,,,,,,,,,,,,,,,,,,,,,,,,,,,,,,,,,,,,,,,
0,45,45,24,1,,614deecf67f2c8ccfe3df23b,62c53a01808438d282f10f02,2022-07-06_09h33.32.276,Colour_Asymmetry_Pilot,2022.1.3,Win32,60.0060006,62c50e9c1127f2cd403a315f,,,,,,,,,,,,,,,,,,,,,,,,,,,,,,,,,,,,,,,,,,,,,,,,,,,,,,,,,,,,,,,,,,,,,,,,,,,,,,,,,,,,,,,,,,,,,,,,,,,,,,,,,,,,,,,,,,,,,,,,,,,,,,,,,,,,,,,,,,,,,,,,,,,,,,,,,,,,,,,,,,,
0,46,46,81,1,,614deecf67f2c8ccfe3df23b,62c53a01808438d282f10f02,2022-07-06_09h33.32.276,Colour_Asymmetry_Pilot,2022.1.3,Win32,60.0060006,62c50e9c1127f2cd403a315f,,,,,,,,,,,,,,,,,,,,,,,,,,,,,,,,,,,,,,,,,,,,,,,,,,,,,,,,,,,,,,,,,,,,,,,,,,,,,,,,,,,,,,,,,,,,,,,,,,,,,,,,,,,,,,,,,,,,,,,,,,,,,,,,,,,,,,,,,,,,,,,,,,,,,,,,,,,,,,,,,,,
0,47,47,0,1,,614deecf67f2c8ccfe3df23b,62c53a01808438d282f10f02,2022-07-06_09h33.32.276,Colour_Asymmetry_Pilot,2022.1.3,Win32,60.0060006,62c50e9c1127f2cd403a315f,,,,,,,,,,,,,,,,,,,,,,,,,,,,,,,,,,,,,,,,,,,,,,,,,,,,,,,,,,,,,,,,,,,,,,,,,,,,,,,,,,,,,,,,,,,,,,,,,,,,,,,,,,,,,,,,,,,,,,,,,,,,,,,,,,,,,,,,,,,,,,,,,,,,,,,,,,,,,,,,,,,
0,48,48,92,1,,614deecf67f2c8ccfe3df23b,62c53a01808438d282f10f02,2022-07-06_09h33.32.276,Colour_Asymmetry_Pilot,2022.1.3,Win32,60.0060006,62c50e9c1127f2cd403a315f,,,,,,,,,,,,,,,,,,,,,,,,,,,,,,,,,,,,,,,,,,,,,,,,,,,,,,,,,,,,,,,,,,,,,,,,,,,,,,,,,,,,,,,,,,,,,,,,,,,,,,,,,,,,,,,,,,,,,,,,,,,,,,,,,,,,,,,,,,,,,,,,,,,,,,,,,,,,,,,,,,,
0,49,49,29,1,,614deecf67f2c8ccfe3df23b,62c53a01808438d282f10f02,2022-07-06_09h33.32.276,Colour_Asymmetry_Pilot,2022.1.3,Win32,60.0060006,62c50e9c1127f2cd403a315f,,,,,,,,,,,,,,,,,,,,,,,,,,,,,,,,,,,,,,,,,,,,,,,,,,,,,,,,,,,,,,,,,,,,,,,,,,,,,,,,,,,,,,,,,,,,,,,,,,,,,,,,,,,,,,,,,,,,,,,,,,,,,,,,,,,,,,,,,,,,,,,,,,,,,,,,,,,,,,,,,,,
0,50,50,63,1,,614deecf67f2c8ccfe3df23b,62c53a01808438d282f10f02,2022-07-06_09h33.32.276,Colour_Asymmetry_Pilot,2022.1.3,Win32,60.0060006,62c50e9c1127f2cd403a315f,,,,,,,,,,,,,,,,,,,,,,,,,,,,,,,,,,,,,,,,,,,,,,,,,,,,,,,,,,,,,,,,,,,,,,,,,,,,,,,,,,,,,,,,,,,,,,,,,,,,,,,,,,,,,,,,,,,,,,,,,,,,,,,,,,,,,,,,,,,,,,,,,,,,,,,,,,,,,,,,,,,
0,51,51,83,1,,614deecf67f2c8ccfe3df23b,62c53a01808438d282f10f02,2022-07-06_09h33.32.276,Colour_Asymmetry_Pilot,2022.1.3,Win32,60.0060006,62c50e9c1127f2cd403a315f,,,,,,,,,,,,,,,,,,,,,,,,,,,,,,,,,,,,,,,,,,,,,,,,,,,,,,,,,,,,,,,,,,,,,,,,,,,,,,,,,,,,,,,,,,,,,,,,,,,,,,,,,,,,,,,,,,,,,,,,,,,,,,,,,,,,,,,,,,,,,,,,,,,,,,,,,,,,,,,,,,,
0,52,52,31,1,,614deecf67f2c8ccfe3df23b,62c53a01808438d282f10f02,2022-07-06_09h33.32.276,Colour_Asymmetry_Pilot,2022.1.3,Win32,60.0060006,62c50e9c1127f2cd403a315f,,,,,,,,,,,,,,,,,,,,,,,,,,,,,,,,,,,,,,,,,,,,,,,,,,,,,,,,,,,,,,,,,,,,,,,,,,,,,,,,,,,,,,,,,,,,,,,,,,,,,,,,,,,,,,,,,,,,,,,,,,,,,,,,,,,,,,,,,,,,,,,,,,,,,,,,,,,,,,,,,,,
0,53,53,58,1,,614deecf67f2c8ccfe3df23b,62c53a01808438d282f10f02,2022-07-06_09h33.32.276,Colour_Asymmetry_Pilot,2022.1.3,Win32,60.0060006,62c50e9c1127f2cd403a315f,,,,,,,,,,,,,,,,,,,,,,,,,,,,,,,,,,,,,,,,,,,,,,,,,,,,,,,,,,,,,,,,,,,,,,,,,,,,,,,,,,,,,,,,,,,,,,,,,,,,,,,,,,,,,,,,,,,,,,,,,,,,,,,,,,,,,,,,,,,,,,,,,,,,,,,,,,,,,,,,,,,
0,54,54,15,1,,614deecf67f2c8ccfe3df23b,62c53a01808438d282f10f02,2022-07-06_09h33.32.276,Colour_Asymmetry_Pilot,2022.1.3,Win32,60.0060006,62c50e9c1127f2cd403a315f,,,,,,,,,,,,,,,,,,,,,,,,,,,,,,,,,,,,,,,,,,,,,,,,,,,,,,,,,,,,,,,,,,,,,,,,,,,,,,,,,,,,,,,,,,,,,,,,,,,,,,,,,,,,,,,,,,,,,,,,,,,,,,,,,,,,,,,,,,,,,,,,,,,,,,,,,,,,,,,,,,,
0,55,55,61,1,,614deecf67f2c8ccfe3df23b,62c53a01808438d282f10f02,2022-07-06_09h33.32.276,Colour_Asymmetry_Pilot,2022.1.3,Win32,60.0060006,62c50e9c1127f2cd403a315f,,,,,,,,,,,,,,,,,,,,,,,,,,,,,,,,,,,,,,,,,,,,,,,,,,,,,,,,,,,,,,,,,,,,,,,,,,,,,,,,,,,,,,,,,,,,,,,,,,,,,,,,,,,,,,,,,,,,,,,,,,,,,,,,,,,,,,,,,,,,,,,,,,,,,,,,,,,,,,,,,,,
0,56,56,78,1,,614deecf67f2c8ccfe3df23b,62c53a01808438d282f10f02,2022-07-06_09h33.32.276,Colour_Asymmetry_Pilot,2022.1.3,Win32,60.0060006,62c50e9c1127f2cd403a315f,,,,,,,,,,,,,,,,,,,,,,,,,,,,,,,,,,,,,,,,,,,,,,,,,,,,,,,,,,,,,,,,,,,,,,,,,,,,,,,,,,,,,,,,,,,,,,,,,,,,,,,,,,,,,,,,,,,,,,,,,,,,,,,,,,,,,,,,,,,,,,,,,,,,,,,,,,,,,,,,,,,
0,57,57,65,1,,614deecf67f2c8ccfe3df23b,62c53a01808438d282f10f02,2022-07-06_09h33.32.276,Colour_Asymmetry_Pilot,2022.1.3,Win32,60.0060006,62c50e9c1127f2cd403a315f,,,,,,,,,,,,,,,,,,,,,,,,,,,,,,,,,,,,,,,,,,,,,,,,,,,,,,,,,,,,,,,,,,,,,,,,,,,,,,,,,,,,,,,,,,,,,,,,,,,,,,,,,,,,,,,,,,,,,,,,,,,,,,,,,,,,,,,,,,,,,,,,,,,,,,,,,,,,,,,,,,,
0,58,58,6,1,,614deecf67f2c8ccfe3df23b,62c53a01808438d282f10f02,2022-07-06_09h33.32.276,Colour_Asymmetry_Pilot,2022.1.3,Win32,60.0060006,62c50e9c1127f2cd403a315f,,,,,,,,,,,,,,,,,,,,,,,,,,,,,,,,,,,,,,,,,,,,,,,,,,,,,,,,,,,,,,,,,,,,,,,,,,,,,,,,,,,,,,,,,,,,,,,,,,,,,,,,,,,,,,,,,,,,,,,,,,,,,,,,,,,,,,,,,,,,,,,,,,,,,,,,,,,,,,,,,,,
0,59,59,3,1,,614deecf67f2c8ccfe3df23b,62c53a01808438d282f10f02,2022-07-06_09h33.32.276,Colour_Asymmetry_Pilot,2022.1.3,Win32,60.0060006,62c50e9c1127f2cd403a315f,,,,,,,,,,,,,,,,,,,,,,,,,,,,,,,,,,,,,,,,,,,,,,,,,,,,,,,,,,,,,,,,,,,,,,,,,,,,,,,,,,,,,,,,,,,,,,,,,,,,,,,,,,,,,,,,,,,,,,,,,,,,,,,,,,,,,,,,,,,,,,,,,,,,,,,,,,,,,,,,,,,
0,60,60,35,1,,614deecf67f2c8ccfe3df23b,62c53a01808438d282f10f02,2022-07-06_09h33.32.276,Colour_Asymmetry_Pilot,2022.1.3,Win32,60.0060006,62c50e9c1127f2cd403a315f,,,,,,,,,,,,,,,,,,,,,,,,,,,,,,,,,,,,,,,,,,,,,,,,,,,,,,,,,,,,,,,,,,,,,,,,,,,,,,,,,,,,,,,,,,,,,,,,,,,,,,,,,,,,,,,,,,,,,,,,,,,,,,,,,,,,,,,,,,,,,,,,,,,,,,,,,,,,,,,,,,,
0,61,61,39,1,,614deecf67f2c8ccfe3df23b,62c53a01808438d282f10f02,2022-07-06_09h33.32.276,Colour_Asymmetry_Pilot,2022.1.3,Win32,60.0060006,62c50e9c1127f2cd403a315f,,,,,,,,,,,,,,,,,,,,,,,,,,,,,,,,,,,,,,,,,,,,,,,,,,,,,,,,,,,,,,,,,,,,,,,,,,,,,,,,,,,,,,,,,,,,,,,,,,,,,,,,,,,,,,,,,,,,,,,,,,,,,,,,,,,,,,,,,,,,,,,,,,,,,,,,,,,,,,,,,,,
0,62,62,47,1,,614deecf67f2c8ccfe3df23b,62c53a01808438d282f10f02,2022-07-06_09h33.32.276,Colour_Asymmetry_Pilot,2022.1.3,Win32,60.0060006,62c50e9c1127f2cd403a315f,,,,,,,,,,,,,,,,,,,,,,,,,,,,,,,,,,,,,,,,,,,,,,,,,,,,,,,,,,,,,,,,,,,,,,,,,,,,,,,,,,,,,,,,,,,,,,,,,,,,,,,,,,,,,,,,,,,,,,,,,,,,,,,,,,,,,,,,,,,,,,,,,,,,,,,,,,,,,,,,,,,
0,63,63,57,1,,614deecf67f2c8ccfe3df23b,62c53a01808438d282f10f02,2022-07-06_09h33.32.276,Colour_Asymmetry_Pilot,2022.1.3,Win32,60.0060006,62c50e9c1127f2cd403a315f,,,,,,,,,,,,,,,,,,,,,,,,,,,,,,,,,,,,,,,,,,,,,,,,,,,,,,,,,,,,,,,,,,,,,,,,,,,,,,,,,,,,,,,,,,,,,,,,,,,,,,,,,,,,,,,,,,,,,,,,,,,,,,,,,,,,,,,,,,,,,,,,,,,,,,,,,,,,,,,,,,,
0,64,64,85,1,,614deecf67f2c8ccfe3df23b,62c53a01808438d282f10f02,2022-07-06_09h33.32.276,Colour_Asymmetry_Pilot,2022.1.3,Win32,60.0060006,62c50e9c1127f2cd403a315f,,,,,,,,,,,,,,,,,,,,,,,,,,,,,,,,,,,,,,,,,,,,,,,,,,,,,,,,,,,,,,,,,,,,,,,,,,,,,,,,,,,,,,,,,,,,,,,,,,,,,,,,,,,,,,,,,,,,,,,,,,,,,,,,,,,,,,,,,,,,,,,,,,,,,,,,,,,,,,,,,,,
0,65,65,30,1,,614deecf67f2c8ccfe3df23b,62c53a01808438d282f10f02,2022-07-06_09h33.32.276,Colour_Asymmetry_Pilot,2022.1.3,Win32,60.0060006,62c50e9c1127f2cd403a315f,,,,,,,,,,,,,,,,,,,,,,,,,,,,,,,,,,,,,,,,,,,,,,,,,,,,,,,,,,,,,,,,,,,,,,,,,,,,,,,,,,,,,,,,,,,,,,,,,,,,,,,,,,,,,,,,,,,,,,,,,,,,,,,,,,,,,,,,,,,,,,,,,,,,,,,,,,,,,,,,,,,
0,66,66,42,1,,614deecf67f2c8ccfe3df23b,62c53a01808438d282f10f02,2022-07-06_09h33.32.276,Colour_Asymmetry_Pilot,2022.1.3,Win32,60.0060006,62c50e9c1127f2cd403a315f,,,,,,,,,,,,,,,,,,,,,,,,,,,,,,,,,,,,,,,,,,,,,,,,,,,,,,,,,,,,,,,,,,,,,,,,,,,,,,,,,,,,,,,,,,,,,,,,,,,,,,,,,,,,,,,,,,,,,,,,,,,,,,,,,,,,,,,,,,,,,,,,,,,,,,,,,,,,,,,,,,,
0,67,67,74,1,,614deecf67f2c8ccfe3df23b,62c53a01808438d282f10f02,2022-07-06_09h33.32.276,Colour_Asymmetry_Pilot,2022.1.3,Win32,60.0060006,62c50e9c1127f2cd403a315f,,,,,,,,,,,,,,,,,,,,,,,,,,,,,,,,,,,,,,,,,,,,,,,,,,,,,,,,,,,,,,,,,,,,,,,,,,,,,,,,,,,,,,,,,,,,,,,,,,,,,,,,,,,,,,,,,,,,,,,,,,,,,,,,,,,,,,,,,,,,,,,,,,,,,,,,,,,,,,,,,,,
0,68,68,10,1,,614deecf67f2c8ccfe3df23b,62c53a01808438d282f10f02,2022-07-06_09h33.32.276,Colour_Asymmetry_Pilot,2022.1.3,Win32,60.0060006,62c50e9c1127f2cd403a315f,,,,,,,,,,,,,,,,,,,,,,,,,,,,,,,,,,,,,,,,,,,,,,,,,,,,,,,,,,,,,,,,,,,,,,,,,,,,,,,,,,,,,,,,,,,,,,,,,,,,,,,,,,,,,,,,,,,,,,,,,,,,,,,,,,,,,,,,,,,,,,,,,,,,,,,,,,,,,,,,,,,
0,69,69,8,1,,614deecf67f2c8ccfe3df23b,62c53a01808438d282f10f02,2022-07-06_09h33.32.276,Colour_Asymmetry_Pilot,2022.1.3,Win32,60.0060006,62c50e9c1127f2cd403a315f,,,,,,,,,,,,,,,,,,,,,,,,,,,,,,,,,,,,,,,,,,,,,,,,,,,,,,,,,,,,,,,,,,,,,,,,,,,,,,,,,,,,,,,,,,,,,,,,,,,,,,,,,,,,,,,,,,,,,,,,,,,,,,,,,,,,,,,,,,,,,,,,,,,,,,,,,,,,,,,,,,,
0,70,70,82,1,,614deecf67f2c8ccfe3df23b,62c53a01808438d282f10f02,2022-07-06_09h33.32.276,Colour_Asymmetry_Pilot,2022.1.3,Win32,60.0060006,62c50e9c1127f2cd403a315f,,,,,,,,,,,,,,,,,,,,,,,,,,,,,,,,,,,,,,,,,,,,,,,,,,,,,,,,,,,,,,,,,,,,,,,,,,,,,,,,,,,,,,,,,,,,,,,,,,,,,,,,,,,,,,,,,,,,,,,,,,,,,,,,,,,,,,,,,,,,,,,,,,,,,,,,,,,,,,,,,,,
0,71,71,80,1,,614deecf67f2c8ccfe3df23b,62c53a01808438d282f10f02,2022-07-06_09h33.32.276,Colour_Asymmetry_Pilot,2022.1.3,Win32,60.0060006,62c50e9c1127f2cd403a315f,,,,,,,,,,,,,,,,,,,,,,,,,,,,,,,,,,,,,,,,,,,,,,,,,,,,,,,,,,,,,,,,,,,,,,,,,,,,,,,,,,,,,,,,,,,,,,,,,,,,,,,,,,,,,,,,,,,,,,,,,,,,,,,,,,,,,,,,,,,,,,,,,,,,,,,,,,,,,,,,,,,
0,72,72,34,1,,614deecf67f2c8ccfe3df23b,62c53a01808438d282f10f02,2022-07-06_09h33.32.276,Colour_Asymmetry_Pilot,2022.1.3,Win32,60.0060006,62c50e9c1127f2cd403a315f,,,,,,,,,,,,,,,,,,,,,,,,,,,,,,,,,,,,,,,,,,,,,,,,,,,,,,,,,,,,,,,,,,,,,,,,,,,,,,,,,,,,,,,,,,,,,,,,,,,,,,,,,,,,,,,,,,,,,,,,,,,,,,,,,,,,,,,,,,,,,,,,,,,,,,,,,,,,,,,,,,,
0,73,73,14,1,,614deecf67f2c8ccfe3df23b,62c53a01808438d282f10f02,2022-07-06_09h33.32.276,Colour_Asymmetry_Pilot,2022.1.3,Win32,60.0060006,62c50e9c1127f2cd403a315f,,,,,,,,,,,,,,,,,,,,,,,,,,,,,,,,,,,,,,,,,,,,,,,,,,,,,,,,,,,,,,,,,,,,,,,,,,,,,,,,,,,,,,,,,,,,,,,,,,,,,,,,,,,,,,,,,,,,,,,,,,,,,,,,,,,,,,,,,,,,,,,,,,,,,,,,,,,,,,,,,,,
0,74,74,40,1,,614deecf67f2c8ccfe3df23b,62c53a01808438d282f10f02,2022-07-06_09h33.32.276,Colour_Asymmetry_Pilot,2022.1.3,Win32,60.0060006,62c50e9c1127f2cd403a315f,,,,,,,,,,,,,,,,,,,,,,,,,,,,,,,,,,,,,,,,,,,,,,,,,,,,,,,,,,,,,,,,,,,,,,,,,,,,,,,,,,,,,,,,,,,,,,,,,,,,,,,,,,,,,,,,,,,,,,,,,,,,,,,,,,,,,,,,,,,,,,,,,,,,,,,,,,,,,,,,,,,
0,75,75,68,1,,614deecf67f2c8ccfe3df23b,62c53a01808438d282f10f02,2022-07-06_09h33.32.276,Colour_Asymmetry_Pilot,2022.1.3,Win32,60.0060006,62c50e9c1127f2cd403a315f,,,,,,,,,,,,,,,,,,,,,,,,,,,,,,,,,,,,,,,,,,,,,,,,,,,,,,,,,,,,,,,,,,,,,,,,,,,,,,,,,,,,,,,,,,,,,,,,,,,,,,,,,,,,,,,,,,,,,,,,,,,,,,,,,,,,,,,,,,,,,,,,,,,,,,,,,,,,,,,,,,,
0,76,76,86,1,,614deecf67f2c8ccfe3df23b,62c53a01808438d282f10f02,2022-07-06_09h33.32.276,Colour_Asymmetry_Pilot,2022.1.3,Win32,60.0060006,62c50e9c1127f2cd403a315f,,,,,,,,,,,,,,,,,,,,,,,,,,,,,,,,,,,,,,,,,,,,,,,,,,,,,,,,,,,,,,,,,,,,,,,,,,,,,,,,,,,,,,,,,,,,,,,,,,,,,,,,,,,,,,,,,,,,,,,,,,,,,,,,,,,,,,,,,,,,,,,,,,,,,,,,,,,,,,,,,,,
0,77,77,22,1,,614deecf67f2c8ccfe3df23b,62c53a01808438d282f10f02,2022-07-06_09h33.32.276,Colour_Asymmetry_Pilot,2022.1.3,Win32,60.0060006,62c50e9c1127f2cd403a315f,,,,,,,,,,,,,,,,,,,,,,,,,,,,,,,,,,,,,,,,,,,,,,,,,,,,,,,,,,,,,,,,,,,,,,,,,,,,,,,,,,,,,,,,,,,,,,,,,,,,,,,,,,,,,,,,,,,,,,,,,,,,,,,,,,,,,,,,,,,,,,,,,,,,,,,,,,,,,,,,,,,
0,78,78,41,1,,614deecf67f2c8ccfe3df23b,62c53a01808438d282f10f02,2022-07-06_09h33.32.276,Colour_Asymmetry_Pilot,2022.1.3,Win32,60.0060006,62c50e9c1127f2cd403a315f,,,,,,,,,,,,,,,,,,,,,,,,,,,,,,,,,,,,,,,,,,,,,,,,,,,,,,,,,,,,,,,,,,,,,,,,,,,,,,,,,,,,,,,,,,,,,,,,,,,,,,,,,,,,,,,,,,,,,,,,,,,,,,,,,,,,,,,,,,,,,,,,,,,,,,,,,,,,,,,,,,,
0,79,79,2,1,,614deecf67f2c8ccfe3df23b,62c53a01808438d282f10f02,2022-07-06_09h33.32.276,Colour_Asymmetry_Pilot,2022.1.3,Win32,60.0060006,62c50e9c1127f2cd403a315f,,,,,,,,,,,,,,,,,,,,,,,,,,,,,,,,,,,,,,,,,,,,,,,,,,,,,,,,,,,,,,,,,,,,,,,,,,,,,,,,,,,,,,,,,,,,,,,,,,,,,,,,,,,,,,,,,,,,,,,,,,,,,,,,,,,,,,,,,,,,,,,,,,,,,,,,,,,,,,,,,,,
0,80,80,25,1,,614deecf67f2c8ccfe3df23b,62c53a01808438d282f10f02,2022-07-06_09h33.32.276,Colour_Asymmetry_Pilot,2022.1.3,Win32,60.0060006,62c50e9c1127f2cd403a315f,,,,,,,,,,,,,,,,,,,,,,,,,,,,,,,,,,,,,,,,,,,,,,,,,,,,,,,,,,,,,,,,,,,,,,,,,,,,,,,,,,,,,,,,,,,,,,,,,,,,,,,,,,,,,,,,,,,,,,,,,,,,,,,,,,,,,,,,,,,,,,,,,,,,,,,,,,,,,,,,,,,
0,81,81,37,1,,614deecf67f2c8ccfe3df23b,62c53a01808438d282f10f02,2022-07-06_09h33.32.276,Colour_Asymmetry_Pilot,2022.1.3,Win32,60.0060006,62c50e9c1127f2cd403a315f,,,,,,,,,,,,,,,,,,,,,,,,,,,,,,,,,,,,,,,,,,,,,,,,,,,,,,,,,,,,,,,,,,,,,,,,,,,,,,,,,,,,,,,,,,,,,,,,,,,,,,,,,,,,,,,,,,,,,,,,,,,,,,,,,,,,,,,,,,,,,,,,,,,,,,,,,,,,,,,,,,,
0,82,82,69,1,,614deecf67f2c8ccfe3df23b,62c53a01808438d282f10f02,2022-07-06_09h33.32.276,Colour_Asymmetry_Pilot,2022.1.3,Win32,60.0060006,62c50e9c1127f2cd403a315f,,,,,,,,,,,,,,,,,,,,,,,,,,,,,,,,,,,,,,,,,,,,,,,,,,,,,,,,,,,,,,,,,,,,,,,,,,,,,,,,,,,,,,,,,,,,,,,,,,,,,,,,,,,,,,,,,,,,,,,,,,,,,,,,,,,,,,,,,,,,,,,,,,,,,,,,,,,,,,,,,,,
0,83,83,73,1,,614deecf67f2c8ccfe3df23b,62c53a01808438d282f10f02,2022-07-06_09h33.32.276,Colour_Asymmetry_Pilot,2022.1.3,Win32,60.0060006,62c50e9c1127f2cd403a315f,,,,,,,,,,,,,,,,,,,,,,,,,,,,,,,,,,,,,,,,,,,,,,,,,,,,,,,,,,,,,,,,,,,,,,,,,,,,,,,,,,,,,,,,,,,,,,,,,,,,,,,,,,,,,,,,,,,,,,,,,,,,,,,,,,,,,,,,,,,,,,,,,,,,,,,,,,,,,,,,,,,
0,84,84,33,1,,614deecf67f2c8ccfe3df23b,62c53a01808438d282f10f02,2022-07-06_09h33.32.276,Colour_Asymmetry_Pilot,2022.1.3,Win32,60.0060006,62c50e9c1127f2cd403a315f,,,,,,,,,,,,,,,,,,,,,,,,,,,,,,,,,,,,,,,,,,,,,,,,,,,,,,,,,,,,,,,,,,,,,,,,,,,,,,,,,,,,,,,,,,,,,,,,,,,,,,,,,,,,,,,,,,,,,,,,,,,,,,,,,,,,,,,,,,,,,,,,,,,,,,,,,,,,,,,,,,,
0,85,85,38,1,,614deecf67f2c8ccfe3df23b,62c53a01808438d282f10f02,2022-07-06_09h33.32.276,Colour_Asymmetry_Pilot,2022.1.3,Win32,60.0060006,62c50e9c1127f2cd403a315f,,,,,,,,,,,,,,,,,,,,,,,,,,,,,,,,,,,,,,,,,,,,,,,,,,,,,,,,,,,,,,,,,,,,,,,,,,,,,,,,,,,,,,,,,,,,,,,,,,,,,,,,,,,,,,,,,,,,,,,,,,,,,,,,,,,,,,,,,,,,,,,,,,,,,,,,,,,,,,,,,,,
0,86,86,88,1,,614deecf67f2c8ccfe3df23b,62c53a01808438d282f10f02,2022-07-06_09h33.32.276,Colour_Asymmetry_Pilot,2022.1.3,Win32,60.0060006,62c50e9c1127f2cd403a315f,,,,,,,,,,,,,,,,,,,,,,,,,,,,,,,,,,,,,,,,,,,,,,,,,,,,,,,,,,,,,,,,,,,,,,,,,,,,,,,,,,,,,,,,,,,,,,,,,,,,,,,,,,,,,,,,,,,,,,,,,,,,,,,,,,,,,,,,,,,,,,,,,,,,,,,,,,,,,,,,,,,
0,87,87,52,1,,614deecf67f2c8ccfe3df23b,62c53a01808438d282f10f02,2022-07-06_09h33.32.276,Colour_Asymmetry_Pilot,2022.1.3,Win32,60.0060006,62c50e9c1127f2cd403a315f,,,,,,,,,,,,,,,,,,,,,,,,,,,,,,,,,,,,,,,,,,,,,,,,,,,,,,,,,,,,,,,,,,,,,,,,,,,,,,,,,,,,,,,,,,,,,,,,,,,,,,,,,,,,,,,,,,,,,,,,,,,,,,,,,,,,,,,,,,,,,,,,,,,,,,,,,,,,,,,,,,,
0,88,88,44,1,,614deecf67f2c8ccfe3df23b,62c53a01808438d282f10f02,2022-07-06_09h33.32.276,Colour_Asymmetry_Pilot,2022.1.3,Win32,60.0060006,62c50e9c1127f2cd403a315f,,,,,,,,,,,,,,,,,,,,,,,,,,,,,,,,,,,,,,,,,,,,,,,,,,,,,,,,,,,,,,,,,,,,,,,,,,,,,,,,,,,,,,,,,,,,,,,,,,,,,,,,,,,,,,,,,,,,,,,,,,,,,,,,,,,,,,,,,,,,,,,,,,,,,,,,,,,,,,,,,,,
0,89,89,79,1,,614deecf67f2c8ccfe3df23b,62c53a01808438d282f10f02,2022-07-06_09h33.32.276,Colour_Asymmetry_Pilot,2022.1.3,Win32,60.0060006,62c50e9c1127f2cd403a315f,,,,,,,,,,,,,,,,,,,,,,,,,,,,,,,,,,,,,,,,,,,,,,,,,,,,,,,,,,,,,,,,,,,,,,,,,,,,,,,,,,,,,,,,,,,,,,,,,,,,,,,,,,,,,,,,,,,,,,,,,,,,,,,,,,,,,,,,,,,,,,,,,,,,,,,,,,,,,,,,,,,
0,90,90,23,1,,614deecf67f2c8ccfe3df23b,62c53a01808438d282f10f02,2022-07-06_09h33.32.276,Colour_Asymmetry_Pilot,2022.1.3,Win32,60.0060006,62c50e9c1127f2cd403a315f,,,,,,,,,,,,,,,,,,,,,,,,,,,,,,,,,,,,,,,,,,,,,,,,,,,,,,,,,,,,,,,,,,,,,,,,,,,,,,,,,,,,,,,,,,,,,,,,,,,,,,,,,,,,,,,,,,,,,,,,,,,,,,,,,,,,,,,,,,,,,,,,,,,,,,,,,,,,,,,,,,,
0,91,91,27,1,,614deecf67f2c8ccfe3df23b,62c53a01808438d282f10f02,2022-07-06_09h33.32.276,Colour_Asymmetry_Pilot,2022.1.3,Win32,60.0060006,62c50e9c1127f2cd403a315f,,,,,,,,,,,,,,,,,,,,,,,,,,,,,,,,,,,,,,,,,,,,,,,,,,,,,,,,,,,,,,,,,,,,,,,,,,,,,,,,,,,,,,,,,,,,,,,,,,,,,,,,,,,,,,,,,,,,,,,,,,,,,,,,,,,,,,,,,,,,,,,,,,,,,,,,,,,,,,,,,,,
0,92,92,75,1,,614deecf67f2c8ccfe3df23b,62c53a01808438d282f10f02,2022-07-06_09h33.32.276,Colour_Asymmetry_Pilot,2022.1.3,Win32,60.0060006,62c50e9c1127f2cd403a315f,,,,,,,,,,,,,,,,,,,,,,,,,,,,,,,,,,,,,,,,,,,,,,,,,,,,,,,,,,,,,,,,,,,,,,,,,,,,,,,,,,,,,,,,,,,,,,,,,,,,,,,,,,,,,,,,,,,,,,,,,,,,,,,,,,,,,,,,,,,,,,,,,,,,,,,,,,,,,,,,,,,
,,,,,,614deecf67f2c8ccfe3df23b,62c53a01808438d282f10f02,2022-07-06_09h33.32.276,Colour_Asymmetry_Pilot,2022.1.3,Win32,60.0060006,62c50e9c1127f2cd403a315f,0,0,0,27,1,twofour,,,,,,,,,,,,,,,,,,,,,,,,,,,,,,,,,,,,,,,,,,,,,,,,,,,,,,,,,,,,,,,,,,,,,,,,,,,,,,,,,,,,,,,,,,,,,,,,,,,,,,,,,,,,,,,,,,,,,,,,,,,,,,,,,,,,,,,,,,,,,,,,,,,,,,,,,,,,,
,,,,,,614deecf67f2c8ccfe3df23b,62c53a01808438d282f10f02,2022-07-06_09h33.32.276,Colour_Asymmetry_Pilot,2022.1.3,Win32,60.0060006,62c50e9c1127f2cd403a315f,0,1,1,112,1,onetwo,,,,,,,,,,,,,,,,,,,,,,,,,,,,,,,,,,,,,,,,,,,,,,,,,,,,,,,,,,,,,,,,,,,,,,,,,,,,,,,,,,,,,,,,,,,,,,,,,,,,,,,,,,,,,,,,,,,,,,,,,,,,,,,,,,,,,,,,,,,,,,,,,,,,,,,,,,,,,
,,,,,,614deecf67f2c8ccfe3df23b,62c53a01808438d282f10f02,2022-07-06_09h33.32.276,Colour_Asymmetry_Pilot,2022.1.3,Win32,60.0060006,62c50e9c1127f2cd403a315f,0,2,2,93,1,threefour,,,,,,,,,,,,,,,,,,,,,,,,,,,,,,,,,,,,,,,,,,,,,,,,,,,,,,,,,,,,,,,,,,,,,,,,,,,,,,,,,,,,,,,,,,,,,,,,,,,,,,,,,,,,,,,,,,,,,,,,,,,,,,,,,,,,,,,,,,,,,,,,,,,,,,,,,,,,,
,,,,,,614deecf67f2c8ccfe3df23b,62c53a01808438d282f10f02,2022-07-06_09h33.32.276,Colour_Asymmetry_Pilot,2022.1.3,Win32,60.0060006,62c50e9c1127f2cd403a315f,0,3,3,61,1,threefour,,,,,,,,,,,,,,,,,,,,,,,,,,,,,,,,,,,,,,,,,,,,,,,,,,,,,,,,,,,,,,,,,,,,,,,,,,,,,,,,,,,,,,,,,,,,,,,,,,,,,,,,,,,,,,,,,,,,,,,,,,,,,,,,,,,,,,,,,,,,,,,,,,,,,,,,,,,,,
,,,,,,614deecf67f2c8ccfe3df23b,62c53a01808438d282f10f02,2022-07-06_09h33.32.276,Colour_Asymmetry_Pilot,2022.1.3,Win32,60.0060006,62c50e9c1127f2cd403a315f,0,4,4,152,1,onetwo,,,,,,,,,,,,,,,,,,,,,,,,,,,,,,,,,,,,,,,,,,,,,,,,,,,,,,,,,,,,,,,,,,,,,,,,,,,,,,,,,,,,,,,,,,,,,,,,,,,,,,,,,,,,,,,,,,,,,,,,,,,,,,,,,,,,,,,,,,,,,,,,,,,,,,,,,,,,,
,,,,,,614deecf67f2c8ccfe3df23b,62c53a01808438d282f10f02,2022-07-06_09h33.32.276,Colour_Asymmetry_Pilot,2022.1.3,Win32,60.0060006,62c50e9c1127f2cd403a315f,0,5,5,42,1,twoone,,,,,,,,,,,,,,,,,,,,,,,,,,,,,,,,,,,,,,,,,,,,,,,,,,,,,,,,,,,,,,,,,,,,,,,,,,,,,,,,,,,,,,,,,,,,,,,,,,,,,,,,,,,,,,,,,,,,,,,,,,,,,,,,,,,,,,,,,,,,,,,,,,,,,,,,,,,,,
,,,,,,614deecf67f2c8ccfe3df23b,62c53a01808438d282f10f02,2022-07-06_09h33.32.276,Colour_Asymmetry_Pilot,2022.1.3,Win32,60.0060006,62c50e9c1127f2cd403a315f,0,6,6,92,1,threeone,,,,,,,,,,,,,,,,,,,,,,,,,,,,,,,,,,,,,,,,,,,,,,,,,,,,,,,,,,,,,,,,,,,,,,,,,,,,,,,,,,,,,,,,,,,,,,,,,,,,,,,,,,,,,,,,,,,,,,,,,,,,,,,,,,,,,,,,,,,,,,,,,,,,,,,,,,,,,
,,,,,,614deecf67f2c8ccfe3df23b,62c53a01808438d282f10f02,2022-07-06_09h33.32.276,Colour_Asymmetry_Pilot,2022.1.3,Win32,60.0060006,62c50e9c1127f2cd403a315f,0,7,7,131,1,twofour,,,,,,,,,,,,,,,,,,,,,,,,,,,,,,,,,,,,,,,,,,,,,,,,,,,,,,,,,,,,,,,,,,,,,,,,,,,,,,,,,,,,,,,,,,,,,,,,,,,,,,,,,,,,,,,,,,,,,,,,,,,,,,,,,,,,,,,,,,,,,,,,,,,,,,,,,,,,,
,,,,,,614deecf67f2c8ccfe3df23b,62c53a01808438d282f10f02,2022-07-06_09h33.32.276,Colour_Asymmetry_Pilot,2022.1.3,Win32,60.0060006,62c50e9c1127f2cd403a315f,0,8,8,118,1,fourtwo,,,,,,,,,,,,,,,,,,,,,,,,,,,,,,,,,,,,,,,,,,,,,,,,,,,,,,,,,,,,,,,,,,,,,,,,,,,,,,,,,,,,,,,,,,,,,,,,,,,,,,,,,,,,,,,,,,,,,,,,,,,,,,,,,,,,,,,,,,,,,,,,,,,,,,,,,,,,,
,,,,,,614deecf67f2c8ccfe3df23b,62c53a01808438d282f10f02,2022-07-06_09h33.32.276,Colour_Asymmetry_Pilot,2022.1.3,Win32,60.0060006,62c50e9c1127f2cd403a315f,0,9,9,82,1,twoone,,,,,,,,,,,,,,,,,,,,,,,,,,,,,,,,,,,,,,,,,,,,,,,,,,,,,,,,,,,,,,,,,,,,,,,,,,,,,,,,,,,,,,,,,,,,,,,,,,,,,,,,,,,,,,,,,,,,,,,,,,,,,,,,,,,,,,,,,,,,,,,,,,,,,,,,,,,,,
,,,,,,614deecf67f2c8ccfe3df23b,62c53a01808438d282f10f02,2022-07-06_09h33.32.276,Colour_Asymmetry_Pilot,2022.1.3,Win32,60.0060006,62c50e9c1127f2cd403a315f,0,10,10,19,1,twofour,,,,,,,,,,,,,,,,,,,,,,,,,,,,,,,,,,,,,,,,,,,,,,,,,,,,,,,,,,,,,,,,,,,,,,,,,,,,,,,,,,,,,,,,,,,,,,,,,,,,,,,,,,,,,,,,,,,,,,,,,,,,,,,,,,,,,,,,,,,,,,,,,,,,,,,,,,,,,
,,,,,,614deecf67f2c8ccfe3df23b,62c53a01808438d282f10f02,2022-07-06_09h33.32.276,Colour_Asymmetry_Pilot,2022.1.3,Win32,60.0060006,62c50e9c1127f2cd403a315f,0,11,11,89,1,onethree,,,,,,,,,,,,,,,,,,,,,,,,,,,,,,,,,,,,,,,,,,,,,,,,,,,,,,,,,,,,,,,,,,,,,,,,,,,,,,,,,,,,,,,,,,,,,,,,,,,,,,,,,,,,,,,,,,,,,,,,,,,,,,,,,,,,,,,,,,,,,,,,,,,,,,,,,,,,,
,,,,,,614deecf67f2c8ccfe3df23b,62c53a01808438d282f10f02,2022-07-06_09h33.32.276,Colour_Asymmetry_Pilot,2022.1.3,Win32,60.0060006,62c50e9c1127f2cd403a315f,0,12,12,34,1,twoone,,,,,,,,,,,,,,,,,,,,,,,,,,,,,,,,,,,,,,,,,,,,,,,,,,,,,,,,,,,,,,,,,,,,,,,,,,,,,,,,,,,,,,,,,,,,,,,,,,,,,,,,,,,,,,,,,,,,,,,,,,,,,,,,,,,,,,,,,,,,,,,,,,,,,,,,,,,,,
,,,,,,614deecf67f2c8ccfe3df23b,62c53a01808438d282f10f02,2022-07-06_09h33.32.276,Colour_Asymmetry_Pilot,2022.1.3,Win32,60.0060006,62c50e9c1127f2cd403a315f,0,13,13,109,1,threefour,,,,,,,,,,,,,,,,,,,,,,,,,,,,,,,,,,,,,,,,,,,,,,,,,,,,,,,,,,,,,,,,,,,,,,,,,,,,,,,,,,,,,,,,,,,,,,,,,,,,,,,,,,,,,,,,,,,,,,,,,,,,,,,,,,,,,,,,,,,,,,,,,,,,,,,,,,,,,
,,,,,,614deecf67f2c8ccfe3df23b,62c53a01808438d282f10f02,2022-07-06_09h33.32.276,Colour_Asymmetry_Pilot,2022.1.3,Win32,60.0060006,62c50e9c1127f2cd403a315f,0,14,14,137,1,onethree,,,,,,,,,,,,,,,,,,,,,,,,,,,,,,,,,,,,,,,,,,,,,,,,,,,,,,,,,,,,,,,,,,,,,,,,,,,,,,,,,,,,,,,,,,,,,,,,,,,,,,,,,,,,,,,,,,,,,,,,,,,,,,,,,,,,,,,,,,,,,,,,,,,,,,,,,,,,,
,,,,,,614deecf67f2c8ccfe3df23b,62c53a01808438d282f10f02,2022-07-06_09h33.32.276,Colour_Asymmetry_Pilot,2022.1.3,Win32,60.0060006,62c50e9c1127f2cd403a315f,0,15,15,1,1,onethree,,,,,,,,,,,,,,,,,,,,,,,,,,,,,,,,,,,,,,,,,,,,,,,,,,,,,,,,,,,,,,,,,,,,,,,,,,,,,,,,,,,,,,,,,,,,,,,,,,,,,,,,,,,,,,,,,,,,,,,,,,,,,,,,,,,,,,,,,,,,,,,,,,,,,,,,,,,,,
,,,,,,614deecf67f2c8ccfe3df23b,62c53a01808438d282f10f02,2022-07-06_09h33.32.276,Colour_Asymmetry_Pilot,2022.1.3,Win32,60.0060006,62c50e9c1127f2cd403a315f,0,16,16,16,1,onetwo,,,,,,,,,,,,,,,,,,,,,,,,,,,,,,,,,,,,,,,,,,,,,,,,,,,,,,,,,,,,,,,,,,,,,,,,,,,,,,,,,,,,,,,,,,,,,,,,,,,,,,,,,,,,,,,,,,,,,,,,,,,,,,,,,,,,,,,,,,,,,,,,,,,,,,,,,,,,,
,,,,,,614deecf67f2c8ccfe3df23b,62c53a01808438d282f10f02,2022-07-06_09h33.32.276,Colour_Asymmetry_Pilot,2022.1.3,Win32,60.0060006,62c50e9c1127f2cd403a315f,0,17,17,14,1,fourtwo,,,,,,,,,,,,,,,,,,,,,,,,,,,,,,,,,,,,,,,,,,,,,,,,,,,,,,,,,,,,,,,,,,,,,,,,,,,,,,,,,,,,,,,,,,,,,,,,,,,,,,,,,,,,,,,,,,,,,,,,,,,,,,,,,,,,,,,,,,,,,,,,,,,,,,,,,,,,,
,,,,,,614deecf67f2c8ccfe3df23b,62c53a01808438d282f10f02,2022-07-06_09h33.32.276,Colour_Asymmetry_Pilot,2022.1.3,Win32,60.0060006,62c50e9c1127f2cd403a315f,0,18,18,108,1,threeone,,,,,,,,,,,,,,,,,,,,,,,,,,,,,,,,,,,,,,,,,,,,,,,,,,,,,,,,,,,,,,,,,,,,,,,,,,,,,,,,,,,,,,,,,,,,,,,,,,,,,,,,,,,,,,,,,,,,,,,,,,,,,,,,,,,,,,,,,,,,,,,,,,,,,,,,,,,,,
,,,,,,614deecf67f2c8ccfe3df23b,62c53a01808438d282f10f02,2022-07-06_09h33.32.276,Colour_Asymmetry_Pilot,2022.1.3,Win32,60.0060006,62c50e9c1127f2cd403a315f,0,19,19,6,1,fourtwo,,,,,,,,,,,,,,,,,,,,,,,,,,,,,,,,,,,,,,,,,,,,,,,,,,,,,,,,,,,,,,,,,,,,,,,,,,,,,,,,,,,,,,,,,,,,,,,,,,,,,,,,,,,,,,,,,,,,,,,,,,,,,,,,,,,,,,,,,,,,,,,,,,,,,,,,,,,,,
,,,,,,614deecf67f2c8ccfe3df23b,62c53a01808438d282f10f02,2022-07-06_09h33.32.276,Colour_Asymmetry_Pilot,2022.1.3,Win32,60.0060006,62c50e9c1127f2cd403a315f,0,20,20,58,1,twoone,,,,,,,,,,,,,,,,,,,,,,,,,,,,,,,,,,,,,,,,,,,,,,,,,,,,,,,,,,,,,,,,,,,,,,,,,,,,,,,,,,,,,,,,,,,,,,,,,,,,,,,,,,,,,,,,,,,,,,,,,,,,,,,,,,,,,,,,,,,,,,,,,,,,,,,,,,,,,
,,,,,,614deecf67f2c8ccfe3df23b,62c53a01808438d282f10f02,2022-07-06_09h33.32.276,Colour_Asymmetry_Pilot,2022.1.3,Win32,60.0060006,62c50e9c1127f2cd403a315f,0,21,21,123,1,twofour,,,,,,,,,,,,,,,,,,,,,,,,,,,,,,,,,,,,,,,,,,,,,,,,,,,,,,,,,,,,,,,,,,,,,,,,,,,,,,,,,,,,,,,,,,,,,,,,,,,,,,,,,,,,,,,,,,,,,,,,,,,,,,,,,,,,,,,,,,,,,,,,,,,,,,,,,,,,,
,,,,,,614deecf67f2c8ccfe3df23b,62c53a01808438d282f10f02,2022-07-06_09h33.32.276,Colour_Asymmetry_Pilot,2022.1.3,Win32,60.0060006,62c50e9c1127f2cd403a315f,0,22,22,98,1,twoone,,,,,,,,,,,,,,,,,,,,,,,,,,,,,,,,,,,,,,,,,,,,,,,,,,,,,,,,,,,,,,,,,,,,,,,,,,,,,,,,,,,,,,,,,,,,,,,,,,,,,,,,,,,,,,,,,,,,,,,,,,,,,,,,,,,,,,,,,,,,,,,,,,,,,,,,,,,,,
,,,,,,614deecf67f2c8ccfe3df23b,62c53a01808438d282f10f02,2022-07-06_09h33.32.276,Colour_Asymmetry_Pilot,2022.1.3,Win32,60.0060006,62c50e9c1127f2cd403a315f,0,23,23,150,1,fourtwo,,,,,,,,,,,,,,,,,,,,,,,,,,,,,,,,,,,,,,,,,,,,,,,,,,,,,,,,,,,,,,,,,,,,,,,,,,,,,,,,,,,,,,,,,,,,,,,,,,,,,,,,,,,,,,,,,,,,,,,,,,,,,,,,,,,,,,,,,,,,,,,,,,,,,,,,,,,,,
,,,,,,614deecf67f2c8ccfe3df23b,62c53a01808438d282f10f02,2022-07-06_09h33.32.276,Colour_Asymmetry_Pilot,2022.1.3,Win32,60.0060006,62c50e9c1127f2cd403a315f,0,24,24,75,1,twofour,,,,,,,,,,,,,,,,,,,,,,,,,,,,,,,,,,,,,,,,,,,,,,,,,,,,,,,,,,,,,,,,,,,,,,,,,,,,,,,,,,,,,,,,,,,,,,,,,,,,,,,,,,,,,,,,,,,,,,,,,,,,,,,,,,,,,,,,,,,,,,,,,,,,,,,,,,,,,
,,,,,,614deecf67f2c8ccfe3df23b,62c53a01808438d282f10f02,2022-07-06_09h33.32.276,Colour_Asymmetry_Pilot,2022.1.3,Win32,60.0060006,62c50e9c1127f2cd403a315f,0,25,25,55,1,fourthree,,,,,,,,,,,,,,,,,,,,,,,,,,,,,,,,,,,,,,,,,,,,,,,,,,,,,,,,,,,,,,,,,,,,,,,,,,,,,,,,,,,,,,,,,,,,,,,,,,,,,,,,,,,,,,,,,,,,,,,,,,,,,,,,,,,,,,,,,,,,,,,,,,,,,,,,,,,,,
,,,,,,614deecf67f2c8ccfe3df23b,62c53a01808438d282f10f02,2022-07-06_09h33.32.276,Colour_Asymmetry_Pilot,2022.1.3,Win32,60.0060006,62c50e9c1127f2cd403a315f,0,26,26,160,1,onetwo,,,,,,,,,,,,,,,,,,,,,,,,,,,,,,,,,,,,,,,,,,,,,,,,,,,,,,,,,,,,,,,,,,,,,,,,,,,,,,,,,,,,,,,,,,,,,,,,,,,,,,,,,,,,,,,,,,,,,,,,,,,,,,,,,,,,,,,,,,,,,,,,,,,,,,,,,,,,,
,,,,,,614deecf67f2c8ccfe3df23b,62c53a01808438d282f10f02,2022-07-06_09h33.32.276,Colour_Asymmetry_Pilot,2022.1.3,Win32,60.0060006,62c50e9c1127f2cd403a315f,0,27,27,151,1,fourthree,,,,,,,,,,,,,,,,,,,,,,,,,,,,,,,,,,,,,,,,,,,,,,,,,,,,,,,,,,,,,,,,,,,,,,,,,,,,,,,,,,,,,,,,,,,,,,,,,,,,,,,,,,,,,,,,,,,,,,,,,,,,,,,,,,,,,,,,,,,,,,,,,,,,,,,,,,,,,
,,,,,,614deecf67f2c8ccfe3df23b,62c53a01808438d282f10f02,2022-07-06_09h33.32.276,Colour_Asymmetry_Pilot,2022.1.3,Win32,60.0060006,62c50e9c1127f2cd403a315f,0,28,28,128,1,onetwo,,,,,,,,,,,,,,,,,,,,,,,,,,,,,,,,,,,,,,,,,,,,,,,,,,,,,,,,,,,,,,,,,,,,,,,,,,,,,,,,,,,,,,,,,,,,,,,,,,,,,,,,,,,,,,,,,,,,,,,,,,,,,,,,,,,,,,,,,,,,,,,,,,,,,,,,,,,,,
,,,,,,614deecf67f2c8ccfe3df23b,62c53a01808438d282f10f02,2022-07-06_09h33.32.276,Colour_Asymmetry_Pilot,2022.1.3,Win32,60.0060006,62c50e9c1127f2cd403a315f,0,29,29,47,1,fourthree,,,,,,,,,,,,,,,,,,,,,,,,,,,,,,,,,,,,,,,,,,,,,,,,,,,,,,,,,,,,,,,,,,,,,,,,,,,,,,,,,,,,,,,,,,,,,,,,,,,,,,,,,,,,,,,,,,,,,,,,,,,,,,,,,,,,,,,,,,,,,,,,,,,,,,,,,,,,,
,,,,,,614deecf67f2c8ccfe3df23b,62c53a01808438d282f10f02,2022-07-06_09h33.32.276,Colour_Asymmetry_Pilot,2022.1.3,Win32,60.0060006,62c50e9c1127f2cd403a315f,0,30,30,133,1,threefour,,,,,,,,,,,,,,,,,,,,,,,,,,,,,,,,,,,,,,,,,,,,,,,,,,,,,,,,,,,,,,,,,,,,,,,,,,,,,,,,,,,,,,,,,,,,,,,,,,,,,,,,,,,,,,,,,,,,,,,,,,,,,,,,,,,,,,,,,,,,,,,,,,,,,,,,,,,,,
,,,,,,614deecf67f2c8ccfe3df23b,62c53a01808438d282f10f02,2022-07-06_09h33.32.276,Colour_Asymmetry_Pilot,2022.1.3,Win32,60.0060006,62c50e9c1127f2cd403a315f,0,31,31,143,1,fourthree,,,,,,,,,,,,,,,,,,,,,,,,,,,,,,,,,,,,,,,,,,,,,,,,,,,,,,,,,,,,,,,,,,,,,,,,,,,,,,,,,,,,,,,,,,,,,,,,,,,,,,,,,,,,,,,,,,,,,,,,,,,,,,,,,,,,,,,,,,,,,,,,,,,,,,,,,,,,,
,,,,,,614deecf67f2c8ccfe3df23b,62c53a01808438d282f10f02,2022-07-06_09h33.32.276,Colour_Asymmetry_Pilot,2022.1.3,Win32,60.0060006,62c50e9c1127f2cd403a315f,0,32,32,85,1,threefour,,,,,,,,,,,,,,,,,,,,,,,,,,,,,,,,,,,,,,,,,,,,,,,,,,,,,,,,,,,,,,,,,,,,,,,,,,,,,,,,,,,,,,,,,,,,,,,,,,,,,,,,,,,,,,,,,,,,,,,,,,,,,,,,,,,,,,,,,,,,,,,,,,,,,,,,,,,,,
,,,,,,614deecf67f2c8ccfe3df23b,62c53a01808438d282f10f02,2022-07-06_09h33.32.276,Colour_Asymmetry_Pilot,2022.1.3,Win32,60.0060006,62c50e9c1127f2cd403a315f,0,33,33,132,1,threeone,,,,,,,,,,,,,,,,,,,,,,,,,,,,,,,,,,,,,,,,,,,,,,,,,,,,,,,,,,,,,,,,,,,,,,,,,,,,,,,,,,,,,,,,,,,,,,,,,,,,,,,,,,,,,,,,,,,,,,,,,,,,,,,,,,,,,,,,,,,,,,,,,,,,,,,,,,,,,
,,,,,,614deecf67f2c8ccfe3df23b,62c53a01808438d282f10f02,2022-07-06_09h33.32.276,Colour_Asymmetry_Pilot,2022.1.3,Win32,60.0060006,62c50e9c1127f2cd403a315f,0,34,34,29,1,threefour,,,,,,,,,,,,,,,,,,,,,,,,,,,,,,,,,,,,,,,,,,,,,,,,,,,,,,,,,,,,,,,,,,,,,,,,,,,,,,,,,,,,,,,,,,,,,,,,,,,,,,,,,,,,,,,,,,,,,,,,,,,,,,,,,,,,,,,,,,,,,,,,,,,,,,,,,,,,,
,,,,,,614deecf67f2c8ccfe3df23b,62c53a01808438d282f10f02,2022-07-06_09h33.32.276,Colour_Asymmetry_Pilot,2022.1.3,Win32,60.0060006,62c50e9c1127f2cd403a315f,0,35,35,100,1,threeone,,,,,,,,,,,,,,,,,,,,,,,,,,,,,,,,,,,,,,,,,,,,,,,,,,,,,,,,,,,,,,,,,,,,,,,,,,,,,,,,,,,,,,,,,,,,,,,,,,,,,,,,,,,,,,,,,,,,,,,,,,,,,,,,,,,,,,,,,,,,,,,,,,,,,,,,,,,,,
,,,,,,614deecf67f2c8ccfe3df23b,62c53a01808438d282f10f02,2022-07-06_09h33.32.276,Colour_Asymmetry_Pilot,2022.1.3,Win32,60.0060006,62c50e9c1127f2cd403a315f,0,36,36,114,1,twoone,,,,,,,,,,,,,,,,,,,,,,,,,,,,,,,,,,,,,,,,,,,,,,,,,,,,,,,,,,,,,,,,,,,,,,,,,,,,,,,,,,,,,,,,,,,,,,,,,,,,,,,,,,,,,,,,,,,,,,,,,,,,,,,,,,,,,,,,,,,,,,,,,,,,,,,,,,,,,
,,,,,,614deecf67f2c8ccfe3df23b,62c53a01808438d282f10f02,2022-07-06_09h33.32.276,Colour_Asymmetry_Pilot,2022.1.3,Win32,60.0060006,62c50e9c1127f2cd403a315f,0,37,37,11,1,twofour,,,,,,,,,,,,,,,,,,,,,,,,,,,,,,,,,,,,,,,,,,,,,,,,,,,,,,,,,,,,,,,,,,,,,,,,,,,,,,,,,,,,,,,,,,,,,,,,,,,,,,,,,,,,,,,,,,,,,,,,,,,,,,,,,,,,,,,,,,,,,,,,,,,,,,,,,,,,,
,,,,,,614deecf67f2c8ccfe3df23b,62c53a01808438d282f10f02,2022-07-06_09h33.32.276,Colour_Asymmetry_Pilot,2022.1.3,Win32,60.0060006,62c50e9c1127f2cd403a315f,0,38,38,125,1,threefour,,,,,,,,,,,,,,,,,,,,,,,,,,,,,,,,,,,,,,,,,,,,,,,,,,,,,,,,,,,,,,,,,,,,,,,,,,,,,,,,,,,,,,,,,,,,,,,,,,,,,,,,,,,,,,,,,,,,,,,,,,,,,,,,,,,,,,,,,,,,,,,,,,,,,,,,,,,,,
,,,,,,614deecf67f2c8ccfe3df23b,62c53a01808438d282f10f02,2022-07-06_09h33.32.276,Colour_Asymmetry_Pilot,2022.1.3,Win32,60.0060006,62c50e9c1127f2cd403a315f,0,39,39,65,1,onethree,,,,,,,,,,,,,,,,,,,,,,,,,,,,,,,,,,,,,,,,,,,,,,,,,,,,,,,,,,,,,,,,,,,,,,,,,,,,,,,,,,,,,,,,,,,,,,,,,,,,,,,,,,,,,,,,,,,,,,,,,,,,,,,,,,,,,,,,,,,,,,,,,,,,,,,,,,,,,
,,,,,,614deecf67f2c8ccfe3df23b,62c53a01808438d282f10f02,2022-07-06_09h33.32.276,Colour_Asymmetry_Pilot,2022.1.3,Win32,60.0060006,62c50e9c1127f2cd403a315f,0,40,40,0,1,onetwo,,,,,,,,,,,,,,,,,,,,,,,,,,,,,,,,,,,,,,,,,,,,,,,,,,,,,,,,,,,,,,,,,,,,,,,,,,,,,,,,,,,,,,,,,,,,,,,,,,,,,,,,,,,,,,,,,,,,,,,,,,,,,,,,,,,,,,,,,,,,,,,,,,,,,,,,,,,,,
,,,,,,614deecf67f2c8ccfe3df23b,62c53a01808438d282f10f02,2022-07-06_09h33.32.276,Colour_Asymmetry_Pilot,2022.1.3,Win32,60.0060006,62c50e9c1127f2cd403a315f,0,41,41,158,1,fourtwo,,,,,,,,,,,,,,,,,,,,,,,,,,,,,,,,,,,,,,,,,,,,,,,,,,,,,,,,,,,,,,,,,,,,,,,,,,,,,,,,,,,,,,,,,,,,,,,,,,,,,,,,,,,,,,,,,,,,,,,,,,,,,,,,,,,,,,,,,,,,,,,,,,,,,,,,,,,,,
,,,,,,614deecf67f2c8ccfe3df23b,62c53a01808438d282f10f02,2022-07-06_09h33.32.276,Colour_Asymmetry_Pilot,2022.1.3,Win32,60.0060006,62c50e9c1127f2cd403a315f,0,42,42,21,1,threefour,,,,,,,,,,,,,,,,,,,,,,,,,,,,,,,,,,,,,,,,,,,,,,,,,,,,,,,,,,,,,,,,,,,,,,,,,,,,,,,,,,,,,,,,,,,,,,,,,,,,,,,,,,,,,,,,,,,,,,,,,,,,,,,,,,,,,,,,,,,,,,,,,,,,,,,,,,,,,
,,,,,,614deecf67f2c8ccfe3df23b,62c53a01808438d282f10f02,2022-07-06_09h33.32.276,Colour_Asymmetry_Pilot,2022.1.3,Win32,60.0060006,62c50e9c1127f2cd403a315f,0,43,43,161,1,onethree,,,,,,,,,,,,,,,,,,,,,,,,,,,,,,,,,,,,,,,,,,,,,,,,,,,,,,,,,,,,,,,,,,,,,,,,,,,,,,,,,,,,,,,,,,,,,,,,,,,,,,,,,,,,,,,,,,,,,,,,,,,,,,,,,,,,,,,,,,,,,,,,,,,,,,,,,,,,,
,,,,,,614deecf67f2c8ccfe3df23b,62c53a01808438d282f10f02,2022-07-06_09h33.32.276,Colour_Asymmetry_Pilot,2022.1.3,Win32,60.0060006,62c50e9c1127f2cd403a315f,0,44,44,12,1,threeone,,,,,,,,,,,,,,,,,,,,,,,,,,,,,,,,,,,,,,,,,,,,,,,,,,,,,,,,,,,,,,,,,,,,,,,,,,,,,,,,,,,,,,,,,,,,,,,,,,,,,,,,,,,,,,,,,,,,,,,,,,,,,,,,,,,,,,,,,,,,,,,,,,,,,,,,,,,,,
,,,,,,614deecf67f2c8ccfe3df23b,62c53a01808438d282f10f02,2022-07-06_09h33.32.276,Colour_Asymmetry_Pilot,2022.1.3,Win32,60.0060006,62c50e9c1127f2cd403a315f,0,45,45,147,1,twofour,,,,,,,,,,,,,,,,,,,,,,,,,,,,,,,,,,,,,,,,,,,,,,,,,,,,,,,,,,,,,,,,,,,,,,,,,,,,,,,,,,,,,,,,,,,,,,,,,,,,,,,,,,,,,,,,,,,,,,,,,,,,,,,,,,,,,,,,,,,,,,,,,,,,,,,,,,,,,
,,,,,,614deecf67f2c8ccfe3df23b,62c53a01808438d282f10f02,2022-07-06_09h33.32.276,Colour_Asymmetry_Pilot,2022.1.3,Win32,60.0060006,62c50e9c1127f2cd403a315f,0,46,46,59,1,twofour,,,,,,,,,,,,,,,,,,,,,,,,,,,,,,,,,,,,,,,,,,,,,,,,,,,,,,,,,,,,,,,,,,,,,,,,,,,,,,,,,,,,,,,,,,,,,,,,,,,,,,,,,,,,,,,,,,,,,,,,,,,,,,,,,,,,,,,,,,,,,,,,,,,,,,,,,,,,,
,,,,,,614deecf67f2c8ccfe3df23b,62c53a01808438d282f10f02,2022-07-06_09h33.32.276,Colour_Asymmetry_Pilot,2022.1.3,Win32,60.0060006,62c50e9c1127f2cd403a315f,0,47,47,115,1,twofour,,,,,,,,,,,,,,,,,,,,,,,,,,,,,,,,,,,,,,,,,,,,,,,,,,,,,,,,,,,,,,,,,,,,,,,,,,,,,,,,,,,,,,,,,,,,,,,,,,,,,,,,,,,,,,,,,,,,,,,,,,,,,,,,,,,,,,,,,,,,,,,,,,,,,,,,,,,,,
,,,,,,614deecf67f2c8ccfe3df23b,62c53a01808438d282f10f02,2022-07-06_09h33.32.276,Colour_Asymmetry_Pilot,2022.1.3,Win32,60.0060006,62c50e9c1127f2cd403a315f,0,48,48,111,1,fourthree,,,,,,,,,,,,,,,,,,,,,,,,,,,,,,,,,,,,,,,,,,,,,,,,,,,,,,,,,,,,,,,,,,,,,,,,,,,,,,,,,,,,,,,,,,,,,,,,,,,,,,,,,,,,,,,,,,,,,,,,,,,,,,,,,,,,,,,,,,,,,,,,,,,,,,,,,,,,,
,,,,,,614deecf67f2c8ccfe3df23b,62c53a01808438d282f10f02,2022-07-06_09h33.32.276,Colour_Asymmetry_Pilot,2022.1.3,Win32,60.0060006,62c50e9c1127f2cd403a315f,0,49,49,117,1,threefour,,,,,,,,,,,,,,,,,,,,,,,,,,,,,,,,,,,,,,,,,,,,,,,,,,,,,,,,,,,,,,,,,,,,,,,,,,,,,,,,,,,,,,,,,,,,,,,,,,,,,,,,,,,,,,,,,,,,,,,,,,,,,,,,,,,,,,,,,,,,,,,,,,,,,,,,,,,,,
,,,,,,614deecf67f2c8ccfe3df23b,62c53a01808438d282f10f02,2022-07-06_09h33.32.276,Colour_Asymmetry_Pilot,2022.1.3,Win32,60.0060006,62c50e9c1127f2cd403a315f,0,50,50,136,1,onetwo,,,,,,,,,,,,,,,,,,,,,,,,,,,,,,,,,,,,,,,,,,,,,,,,,,,,,,,,,,,,,,,,,,,,,,,,,,,,,,,,,,,,,,,,,,,,,,,,,,,,,,,,,,,,,,,,,,,,,,,,,,,,,,,,,,,,,,,,,,,,,,,,,,,,,,,,,,,,,
,,,,,,614deecf67f2c8ccfe3df23b,62c53a01808438d282f10f02,2022-07-06_09h33.32.276,Colour_Asymmetry_Pilot,2022.1.3,Win32,60.0060006,62c50e9c1127f2cd403a315f,0,51,51,56,1,onetwo,,,,,,,,,,,,,,,,,,,,,,,,,,,,,,,,,,,,,,,,,,,,,,,,,,,,,,,,,,,,,,,,,,,,,,,,,,,,,,,,,,,,,,,,,,,,,,,,,,,,,,,,,,,,,,,,,,,,,,,,,,,,,,,,,,,,,,,,,,,,,,,,,,,,,,,,,,,,,
,,,,,,614deecf67f2c8ccfe3df23b,62c53a01808438d282f10f02,2022-07-06_09h33.32.276,Colour_Asymmetry_Pilot,2022.1.3,Win32,60.0060006,62c50e9c1127f2cd403a315f,0,52,52,76,1,threeone,,,,,,,,,,,,,,,,,,,,,,,,,,,,,,,,,,,,,,,,,,,,,,,,,,,,,,,,,,,,,,,,,,,,,,,,,,,,,,,,,,,,,,,,,,,,,,,,,,,,,,,,,,,,,,,,,,,,,,,,,,,,,,,,,,,,,,,,,,,,,,,,,,,,,,,,,,,,,
,,,,,,614deecf67f2c8ccfe3df23b,62c53a01808438d282f10f02,2022-07-06_09h33.32.276,Colour_Asymmetry_Pilot,2022.1.3,Win32,60.0060006,62c50e9c1127f2cd403a315f,0,53,53,84,1,threeone,,,,,,,,,,,,,,,,,,,,,,,,,,,,,,,,,,,,,,,,,,,,,,,,,,,,,,,,,,,,,,,,,,,,,,,,,,,,,,,,,,,,,,,,,,,,,,,,,,,,,,,,,,,,,,,,,,,,,,,,,,,,,,,,,,,,,,,,,,,,,,,,,,,,,,,,,,,,,
,,,,,,614deecf67f2c8ccfe3df23b,62c53a01808438d282f10f02,2022-07-06_09h33.32.276,Colour_Asymmetry_Pilot,2022.1.3,Win32,60.0060006,62c50e9c1127f2cd403a315f,0,54,54,9,1,onethree,,,,,,,,,,,,,,,,,,,,,,,,,,,,,,,,,,,,,,,,,,,,,,,,,,,,,,,,,,,,,,,,,,,,,,,,,,,,,,,,,,,,,,,,,,,,,,,,,,,,,,,,,,,,,,,,,,,,,,,,,,,,,,,,,,,,,,,,,,,,,,,,,,,,,,,,,,,,,
,,,,,,614deecf67f2c8ccfe3df23b,62c53a01808438d282f10f02,2022-07-06_09h33.32.276,Colour_Asymmetry_Pilot,2022.1.3,Win32,60.0060006,62c50e9c1127f2cd403a315f,0,55,55,17,1,onethree,,,,,,,,,,,,,,,,,,,,,,,,,,,,,,,,,,,,,,,,,,,,,,,,,,,,,,,,,,,,,,,,,,,,,,,,,,,,,,,,,,,,,,,,,,,,,,,,,,,,,,,,,,,,,,,,,,,,,,,,,,,,,,,,,,,,,,,,,,,,,,,,,,,,,,,,,,,,,
,,,,,,614deecf67f2c8ccfe3df23b,62c53a01808438d282f10f02,2022-07-06_09h33.32.276,Colour_Asymmetry_Pilot,2022.1.3,Win32,60.0060006,62c50e9c1127f2cd403a315f,0,56,56,159,1,fourthree,,,,,,,,,,,,,,,,,,,,,,,,,,,,,,,,,,,,,,,,,,,,,,,,,,,,,,,,,,,,,,,,,,,,,,,,,,,,,,,,,,,,,,,,,,,,,,,,,,,,,,,,,,,,,,,,,,,,,,,,,,,,,,,,,,,,,,,,,,,,,,,,,,,,,,,,,,,,,
,,,,,,614deecf67f2c8ccfe3df23b,62c53a01808438d282f10f02,2022-07-06_09h33.32.276,Colour_Asymmetry_Pilot,2022.1.3,Win32,60.0060006,62c50e9c1127f2cd403a315f,0,57,57,28,1,threeone,,,,,,,,,,,,,,,,,,,,,,,,,,,,,,,,,,,,,,,,,,,,,,,,,,,,,,,,,,,,,,,,,,,,,,,,,,,,,,,,,,,,,,,,,,,,,,,,,,,,,,,,,,,,,,,,,,,,,,,,,,,,,,,,,,,,,,,,,,,,,,,,,,,,,,,,,,,,,
,,,,,,614deecf67f2c8ccfe3df23b,62c53a01808438d282f10f02,2022-07-06_09h33.32.276,Colour_Asymmetry_Pilot,2022.1.3,Win32,60.0060006,62c50e9c1127f2cd403a315f,0,58,58,113,1,onethree,,,,,,,,,,,,,,,,,,,,,,,,,,,,,,,,,,,,,,,,,,,,,,,,,,,,,,,,,,,,,,,,,,,,,,,,,,,,,,,,,,,,,,,,,,,,,,,,,,,,,,,,,,,,,,,,,,,,,,,,,,,,,,,,,,,,,,,,,,,,,,,,,,,,,,,,,,,,,
,,,,,,614deecf67f2c8ccfe3df23b,62c53a01808438d282f10f02,2022-07-06_09h33.32.276,Colour_Asymmetry_Pilot,2022.1.3,Win32,60.0060006,62c50e9c1127f2cd403a315f,0,59,59,140,1,threeone,,,,,,,,,,,,,,,,,,,,,,,,,,,,,,,,,,,,,,,,,,,,,,,,,,,,,,,,,,,,,,,,,,,,,,,,,,,,,,,,,,,,,,,,,,,,,,,,,,,,,,,,,,,,,,,,,,,,,,,,,,,,,,,,,,,,,,,,,,,,,,,,,,,,,,,,,,,,,
,,,,,,614deecf67f2c8ccfe3df23b,62c53a01808438d282f10f02,2022-07-06_09h33.32.276,Colour_Asymmetry_Pilot,2022.1.3,Win32,60.0060006,62c50e9c1127f2cd403a315f,0,60,60,129,1,onethree,,,,,,,,,,,,,,,,,,,,,,,,,,,,,,,,,,,,,,,,,,,,,,,,,,,,,,,,,,,,,,,,,,,,,,,,,,,,,,,,,,,,,,,,,,,,,,,,,,,,,,,,,,,,,,,,,,,,,,,,,,,,,,,,,,,,,,,,,,,,,,,,,,,,,,,,,,,,,
,,,,,,614deecf67f2c8ccfe3df23b,62c53a01808438d282f10f02,2022-07-06_09h33.32.276,Colour_Asymmetry_Pilot,2022.1.3,Win32,60.0060006,62c50e9c1127f2cd403a315f,0,61,61,54,1,fourtwo,,,,,,,,,,,,,,,,,,,,,,,,,,,,,,,,,,,,,,,,,,,,,,,,,,,,,,,,,,,,,,,,,,,,,,,,,,,,,,,,,,,,,,,,,,,,,,,,,,,,,,,,,,,,,,,,,,,,,,,,,,,,,,,,,,,,,,,,,,,,,,,,,,,,,,,,,,,,,
,,,,,,614deecf67f2c8ccfe3df23b,62c53a01808438d282f10f02,2022-07-06_09h33.32.276,Colour_Asymmetry_Pilot,2022.1.3,Win32,60.0060006,62c50e9c1127f2cd403a315f,0,62,62,95,1,fourthree,,,,,,,,,,,,,,,,,,,,,,,,,,,,,,,,,,,,,,,,,,,,,,,,,,,,,,,,,,,,,,,,,,,,,,,,,,,,,,,,,,,,,,,,,,,,,,,,,,,,,,,,,,,,,,,,,,,,,,,,,,,,,,,,,,,,,,,,,,,,,,,,,,,,,,,,,,,,,
,,,,,,614deecf67f2c8ccfe3df23b,62c53a01808438d282f10f02,2022-07-06_09h33.32.276,Colour_Asymmetry_Pilot,2022.1.3,Win32,60.0060006,62c50e9c1127f2cd403a315f,0,63,63,22,1,fourtwo,,,,,,,,,,,,,,,,,,,,,,,,,,,,,,,,,,,,,,,,,,,,,,,,,,,,,,,,,,,,,,,,,,,,,,,,,,,,,,,,,,,,,,,,,,,,,,,,,,,,,,,,,,,,,,,,,,,,,,,,,,,,,,,,,,,,,,,,,,,,,,,,,,,,,,,,,,,,,
,,,,,,614deecf67f2c8ccfe3df23b,62c53a01808438d282f10f02,2022-07-06_09h33.32.276,Colour_Asymmetry_Pilot,2022.1.3,Win32,60.0060006,62c50e9c1127f2cd403a315f,0,64,64,53,1,threefour,,,,,,,,,,,,,,,,,,,,,,,,,,,,,,,,,,,,,,,,,,,,,,,,,,,,,,,,,,,,,,,,,,,,,,,,,,,,,,,,,,,,,,,,,,,,,,,,,,,,,,,,,,,,,,,,,,,,,,,,,,,,,,,,,,,,,,,,,,,,,,,,,,,,,,,,,,,,,
,,,,,,614deecf67f2c8ccfe3df23b,62c53a01808438d282f10f02,2022-07-06_09h33.32.276,Colour_Asymmetry_Pilot,2022.1.3,Win32,60.0060006,62c50e9c1127f2cd403a315f,0,65,65,26,1,twoone,,,,,,,,,,,,,,,,,,,,,,,,,,,,,,,,,,,,,,,,,,,,,,,,,,,,,,,,,,,,,,,,,,,,,,,,,,,,,,,,,,,,,,,,,,,,,,,,,,,,,,,,,,,,,,,,,,,,,,,,,,,,,,,,,,,,,,,,,,,,,,,,,,,,,,,,,,,,,
,,,,,,614deecf67f2c8ccfe3df23b,62c53a01808438d282f10f02,2022-07-06_09h33.32.276,Colour_Asymmetry_Pilot,2022.1.3,Win32,60.0060006,62c50e9c1127f2cd403a315f,0,66,66,64,1,onetwo,,,,,,,,,,,,,,,,,,,,,,,,,,,,,,,,,,,,,,,,,,,,,,,,,,,,,,,,,,,,,,,,,,,,,,,,,,,,,,,,,,,,,,,,,,,,,,,,,,,,,,,,,,,,,,,,,,,,,,,,,,,,,,,,,,,,,,,,,,,,,,,,,,,,,,,,,,,,,
,,,,,,614deecf67f2c8ccfe3df23b,62c53a01808438d282f10f02,2022-07-06_09h33.32.276,Colour_Asymmetry_Pilot,2022.1.3,Win32,60.0060006,62c50e9c1127f2cd403a315f,0,67,67,51,1,twofour,,,,,,,,,,,,,,,,,,,,,,,,,,,,,,,,,,,,,,,,,,,,,,,,,,,,,,,,,,,,,,,,,,,,,,,,,,,,,,,,,,,,,,,,,,,,,,,,,,,,,,,,,,,,,,,,,,,,,,,,,,,,,,,,,,,,,,,,,,,,,,,,,,,,,,,,,,,,,
,,,,,,614deecf67f2c8ccfe3df23b,62c53a01808438d282f10f02,2022-07-06_09h33.32.276,Colour_Asymmetry_Pilot,2022.1.3,Win32,60.0060006,62c50e9c1127f2cd403a315f,0,68,68,88,1,onetwo,,,,,,,,,,,,,,,,,,,,,,,,,,,,,,,,,,,,,,,,,,,,,,,,,,,,,,,,,,,,,,,,,,,,,,,,,,,,,,,,,,,,,,,,,,,,,,,,,,,,,,,,,,,,,,,,,,,,,,,,,,,,,,,,,,,,,,,,,,,,,,,,,,,,,,,,,,,,,
,,,,,,614deecf67f2c8ccfe3df23b,62c53a01808438d282f10f02,2022-07-06_09h33.32.276,Colour_Asymmetry_Pilot,2022.1.3,Win32,60.0060006,62c50e9c1127f2cd403a315f,0,69,69,130,1,twoone,,,,,,,,,,,,,,,,,,,,,,,,,,,,,,,,,,,,,,,,,,,,,,,,,,,,,,,,,,,,,,,,,,,,,,,,,,,,,,,,,,,,,,,,,,,,,,,,,,,,,,,,,,,,,,,,,,,,,,,,,,,,,,,,,,,,,,,,,,,,,,,,,,,,,,,,,,,,,
,,,,,,614deecf67f2c8ccfe3df23b,62c53a01808438d282f10f02,2022-07-06_09h33.32.276,Colour_Asymmetry_Pilot,2022.1.3,Win32,60.0060006,62c50e9c1127f2cd403a315f,0,70,70,37,1,threefour,,,,,,,,,,,,,,,,,,,,,,,,,,,,,,,,,,,,,,,,,,,,,,,,,,,,,,,,,,,,,,,,,,,,,,,,,,,,,,,,,,,,,,,,,,,,,,,,,,,,,,,,,,,,,,,,,,,,,,,,,,,,,,,,,,,,,,,,,,,,,,,,,,,,,,,,,,,,,
,,,,,,614deecf67f2c8ccfe3df23b,62c53a01808438d282f10f02,2022-07-06_09h33.32.276,Colour_Asymmetry_Pilot,2022.1.3,Win32,60.0060006,62c50e9c1127f2cd403a315f,0,71,71,13,1,threefour,,,,,,,,,,,,,,,,,,,,,,,,,,,,,,,,,,,,,,,,,,,,,,,,,,,,,,,,,,,,,,,,,,,,,,,,,,,,,,,,,,,,,,,,,,,,,,,,,,,,,,,,,,,,,,,,,,,,,,,,,,,,,,,,,,,,,,,,,,,,,,,,,,,,,,,,,,,,,
,,,,,,614deecf67f2c8ccfe3df23b,62c53a01808438d282f10f02,2022-07-06_09h33.32.276,Colour_Asymmetry_Pilot,2022.1.3,Win32,60.0060006,62c50e9c1127f2cd403a315f,0,72,72,90,1,twoone,,,,,,,,,,,,,,,,,,,,,,,,,,,,,,,,,,,,,,,,,,,,,,,,,,,,,,,,,,,,,,,,,,,,,,,,,,,,,,,,,,,,,,,,,,,,,,,,,,,,,,,,,,,,,,,,,,,,,,,,,,,,,,,,,,,,,,,,,,,,,,,,,,,,,,,,,,,,,
,,,,,,614deecf67f2c8ccfe3df23b,62c53a01808438d282f10f02,2022-07-06_09h33.32.276,Colour_Asymmetry_Pilot,2022.1.3,Win32,60.0060006,62c50e9c1127f2cd403a315f,0,73,73,18,1,twoone,,,,,,,,,,,,,,,,,,,,,,,,,,,,,,,,,,,,,,,,,,,,,,,,,,,,,,,,,,,,,,,,,,,,,,,,,,,,,,,,,,,,,,,,,,,,,,,,,,,,,,,,,,,,,,,,,,,,,,,,,,,,,,,,,,,,,,,,,,,,,,,,,,,,,,,,,,,,,
,,,,,,614deecf67f2c8ccfe3df23b,62c53a01808438d282f10f02,2022-07-06_09h33.32.276,Colour_Asymmetry_Pilot,2022.1.3,Win32,60.0060006,62c50e9c1127f2cd403a315f,0,74,74,157,1,threefour,,,,,,,,,,,,,,,,,,,,,,,,,,,,,,,,,,,,,,,,,,,,,,,,,,,,,,,,,,,,,,,,,,,,,,,,,,,,,,,,,,,,,,,,,,,,,,,,,,,,,,,,,,,,,,,,,,,,,,,,,,,,,,,,,,,,,,,,,,,,,,,,,,,,,,,,,,,,,
,,,,,,614deecf67f2c8ccfe3df23b,62c53a01808438d282f10f02,2022-07-06_09h33.32.276,Colour_Asymmetry_Pilot,2022.1.3,Win32,60.0060006,62c50e9c1127f2cd403a315f,0,75,75,83,1,twofour,,,,,,,,,,,,,,,,,,,,,,,,,,,,,,,,,,,,,,,,,,,,,,,,,,,,,,,,,,,,,,,,,,,,,,,,,,,,,,,,,,,,,,,,,,,,,,,,,,,,,,,,,,,,,,,,,,,,,,,,,,,,,,,,,,,,,,,,,,,,,,,,,,,,,,,,,,,,,
,,,,,,614deecf67f2c8ccfe3df23b,62c53a01808438d282f10f02,2022-07-06_09h33.32.276,Colour_Asymmetry_Pilot,2022.1.3,Win32,60.0060006,62c50e9c1127f2cd403a315f,0,76,76,135,1,fourthree,,,,,,,,,,,,,,,,,,,,,,,,,,,,,,,,,,,,,,,,,,,,,,,,,,,,,,,,,,,,,,,,,,,,,,,,,,,,,,,,,,,,,,,,,,,,,,,,,,,,,,,,,,,,,,,,,,,,,,,,,,,,,,,,,,,,,,,,,,,,,,,,,,,,,,,,,,,,,
,,,,,,614deecf67f2c8ccfe3df23b,62c53a01808438d282f10f02,2022-07-06_09h33.32.276,Colour_Asymmetry_Pilot,2022.1.3,Win32,60.0060006,62c50e9c1127f2cd403a315f,0,77,77,63,1,fourthree,,,,,,,,,,,,,,,,,,,,,,,,,,,,,,,,,,,,,,,,,,,,,,,,,,,,,,,,,,,,,,,,,,,,,,,,,,,,,,,,,,,,,,,,,,,,,,,,,,,,,,,,,,,,,,,,,,,,,,,,,,,,,,,,,,,,,,,,,,,,,,,,,,,,,,,,,,,,,
,,,,,,614deecf67f2c8ccfe3df23b,62c53a01808438d282f10f02,2022-07-06_09h33.32.276,Colour_Asymmetry_Pilot,2022.1.3,Win32,60.0060006,62c50e9c1127f2cd403a315f,0,78,78,126,1,fourtwo,,,,,,,,,,,,,,,,,,,,,,,,,,,,,,,,,,,,,,,,,,,,,,,,,,,,,,,,,,,,,,,,,,,,,,,,,,,,,,,,,,,,,,,,,,,,,,,,,,,,,,,,,,,,,,,,,,,,,,,,,,,,,,,,,,,,,,,,,,,,,,,,,,,,,,,,,,,,,
,,,,,,614deecf67f2c8ccfe3df23b,62c53a01808438d282f10f02,2022-07-06_09h33.32.276,Colour_Asymmetry_Pilot,2022.1.3,Win32,60.0060006,62c50e9c1127f2cd403a315f,0,79,79,2,1,twoone,,,,,,,,,,,,,,,,,,,,,,,,,,,,,,,,,,,,,,,,,,,,,,,,,,,,,,,,,,,,,,,,,,,,,,,,,,,,,,,,,,,,,,,,,,,,,,,,,,,,,,,,,,,,,,,,,,,,,,,,,,,,,,,,,,,,,,,,,,,,,,,,,,,,,,,,,,,,,
,,,,,,614deecf67f2c8ccfe3df23b,62c53a01808438d282f10f02,2022-07-06_09h33.32.276,Colour_Asymmetry_Pilot,2022.1.3,Win32,60.0060006,62c50e9c1127f2cd403a315f,0,80,80,79,1,fourthree,,,,,,,,,,,,,,,,,,,,,,,,,,,,,,,,,,,,,,,,,,,,,,,,,,,,,,,,,,,,,,,,,,,,,,,,,,,,,,,,,,,,,,,,,,,,,,,,,,,,,,,,,,,,,,,,,,,,,,,,,,,,,,,,,,,,,,,,,,,,,,,,,,,,,,,,,,,,,
,,,,,,614deecf67f2c8ccfe3df23b,62c53a01808438d282f10f02,2022-07-06_09h33.32.276,Colour_Asymmetry_Pilot,2022.1.3,Win32,60.0060006,62c50e9c1127f2cd403a315f,0,81,81,33,1,onethree,,,,,,,,,,,,,,,,,,,,,,,,,,,,,,,,,,,,,,,,,,,,,,,,,,,,,,,,,,,,,,,,,,,,,,,,,,,,,,,,,,,,,,,,,,,,,,,,,,,,,,,,,,,,,,,,,,,,,,,,,,,,,,,,,,,,,,,,,,,,,,,,,,,,,,,,,,,,,
,,,,,,614deecf67f2c8ccfe3df23b,62c53a01808438d282f10f02,2022-07-06_09h33.32.276,Colour_Asymmetry_Pilot,2022.1.3,Win32,60.0060006,62c50e9c1127f2cd403a315f,0,82,82,52,1,threeone,,,,,,,,,,,,,,,,,,,,,,,,,,,,,,,,,,,,,,,,,,,,,,,,,,,,,,,,,,,,,,,,,,,,,,,,,,,,,,,,,,,,,,,,,,,,,,,,,,,,,,,,,,,,,,,,,,,,,,,,,,,,,,,,,,,,,,,,,,,,,,,,,,,,,,,,,,,,,
,,,,,,614deecf67f2c8ccfe3df23b,62c53a01808438d282f10f02,2022-07-06_09h33.32.276,Colour_Asymmetry_Pilot,2022.1.3,Win32,60.0060006,62c50e9c1127f2cd403a315f,0,83,83,66,1,twoone,,,,,,,,,,,,,,,,,,,,,,,,,,,,,,,,,,,,,,,,,,,,,,,,,,,,,,,,,,,,,,,,,,,,,,,,,,,,,,,,,,,,,,,,,,,,,,,,,,,,,,,,,,,,,,,,,,,,,,,,,,,,,,,,,,,,,,,,,,,,,,,,,,,,,,,,,,,,,
,,,,,,614deecf67f2c8ccfe3df23b,62c53a01808438d282f10f02,2022-07-06_09h33.32.276,Colour_Asymmetry_Pilot,2022.1.3,Win32,60.0060006,62c50e9c1127f2cd403a315f,0,84,84,45,1,threefour,,,,,,,,,,,,,,,,,,,,,,,,,,,,,,,,,,,,,,,,,,,,,,,,,,,,,,,,,,,,,,,,,,,,,,,,,,,,,,,,,,,,,,,,,,,,,,,,,,,,,,,,,,,,,,,,,,,,,,,,,,,,,,,,,,,,,,,,,,,,,,,,,,,,,,,,,,,,,
,,,,,,614deecf67f2c8ccfe3df23b,62c53a01808438d282f10f02,2022-07-06_09h33.32.276,Colour_Asymmetry_Pilot,2022.1.3,Win32,60.0060006,62c50e9c1127f2cd403a315f,0,85,85,23,1,fourthree,,,,,,,,,,,,,,,,,,,,,,,,,,,,,,,,,,,,,,,,,,,,,,,,,,,,,,,,,,,,,,,,,,,,,,,,,,,,,,,,,,,,,,,,,,,,,,,,,,,,,,,,,,,,,,,,,,,,,,,,,,,,,,,,,,,,,,,,,,,,,,,,,,,,,,,,,,,,,
,,,,,,614deecf67f2c8ccfe3df23b,62c53a01808438d282f10f02,2022-07-06_09h33.32.276,Colour_Asymmetry_Pilot,2022.1.3,Win32,60.0060006,62c50e9c1127f2cd403a315f,0,86,86,155,1,twofour,,,,,,,,,,,,,,,,,,,,,,,,,,,,,,,,,,,,,,,,,,,,,,,,,,,,,,,,,,,,,,,,,,,,,,,,,,,,,,,,,,,,,,,,,,,,,,,,,,,,,,,,,,,,,,,,,,,,,,,,,,,,,,,,,,,,,,,,,,,,,,,,,,,,,,,,,,,,,
,,,,,,614deecf67f2c8ccfe3df23b,62c53a01808438d282f10f02,2022-07-06_09h33.32.276,Colour_Asymmetry_Pilot,2022.1.3,Win32,60.0060006,62c50e9c1127f2cd403a315f,0,87,87,110,1,fourtwo,,,,,,,,,,,,,,,,,,,,,,,,,,,,,,,,,,,,,,,,,,,,,,,,,,,,,,,,,,,,,,,,,,,,,,,,,,,,,,,,,,,,,,,,,,,,,,,,,,,,,,,,,,,,,,,,,,,,,,,,,,,,,,,,,,,,,,,,,,,,,,,,,,,,,,,,,,,,,
,,,,,,614deecf67f2c8ccfe3df23b,62c53a01808438d282f10f02,2022-07-06_09h33.32.276,Colour_Asymmetry_Pilot,2022.1.3,Win32,60.0060006,62c50e9c1127f2cd403a315f,0,88,88,80,1,onetwo,,,,,,,,,,,,,,,,,,,,,,,,,,,,,,,,,,,,,,,,,,,,,,,,,,,,,,,,,,,,,,,,,,,,,,,,,,,,,,,,,,,,,,,,,,,,,,,,,,,,,,,,,,,,,,,,,,,,,,,,,,,,,,,,,,,,,,,,,,,,,,,,,,,,,,,,,,,,,
,,,,,,614deecf67f2c8ccfe3df23b,62c53a01808438d282f10f02,2022-07-06_09h33.32.276,Colour_Asymmetry_Pilot,2022.1.3,Win32,60.0060006,62c50e9c1127f2cd403a315f,0,89,89,39,1,fourthree,,,,,,,,,,,,,,,,,,,,,,,,,,,,,,,,,,,,,,,,,,,,,,,,,,,,,,,,,,,,,,,,,,,,,,,,,,,,,,,,,,,,,,,,,,,,,,,,,,,,,,,,,,,,,,,,,,,,,,,,,,,,,,,,,,,,,,,,,,,,,,,,,,,,,,,,,,,,,
,,,,,,614deecf67f2c8ccfe3df23b,62c53a01808438d282f10f02,2022-07-06_09h33.32.276,Colour_Asymmetry_Pilot,2022.1.3,Win32,60.0060006,62c50e9c1127f2cd403a315f,0,90,90,101,1,threefour,,,,,,,,,,,,,,,,,,,,,,,,,,,,,,,,,,,,,,,,,,,,,,,,,,,,,,,,,,,,,,,,,,,,,,,,,,,,,,,,,,,,,,,,,,,,,,,,,,,,,,,,,,,,,,,,,,,,,,,,,,,,,,,,,,,,,,,,,,,,,,,,,,,,,,,,,,,,,
,,,,,,614deecf67f2c8ccfe3df23b,62c53a01808438d282f10f02,2022-07-06_09h33.32.276,Colour_Asymmetry_Pilot,2022.1.3,Win32,60.0060006,62c50e9c1127f2cd403a315f,0,91,91,127,1,fourthree,,,,,,,,,,,,,,,,,,,,,,,,,,,,,,,,,,,,,,,,,,,,,,,,,,,,,,,,,,,,,,,,,,,,,,,,,,,,,,,,,,,,,,,,,,,,,,,,,,,,,,,,,,,,,,,,,,,,,,,,,,,,,,,,,,,,,,,,,,,,,,,,,,,,,,,,,,,,,
,,,,,,614deecf67f2c8ccfe3df23b,62c53a01808438d282f10f02,2022-07-06_09h33.32.276,Colour_Asymmetry_Pilot,2022.1.3,Win32,60.0060006,62c50e9c1127f2cd403a315f,0,92,92,124,1,threeone,,,,,,,,,,,,,,,,,,,,,,,,,,,,,,,,,,,,,,,,,,,,,,,,,,,,,,,,,,,,,,,,,,,,,,,,,,,,,,,,,,,,,,,,,,,,,,,,,,,,,,,,,,,,,,,,,,,,,,,,,,,,,,,,,,,,,,,,,,,,,,,,,,,,,,,,,,,,,
,,,,,,614deecf67f2c8ccfe3df23b,62c53a01808438d282f10f02,2022-07-06_09h33.32.276,Colour_Asymmetry_Pilot,2022.1.3,Win32,60.0060006,62c50e9c1127f2cd403a315f,0,93,93,49,1,onethree,,,,,,,,,,,,,,,,,,,,,,,,,,,,,,,,,,,,,,,,,,,,,,,,,,,,,,,,,,,,,,,,,,,,,,,,,,,,,,,,,,,,,,,,,,,,,,,,,,,,,,,,,,,,,,,,,,,,,,,,,,,,,,,,,,,,,,,,,,,,,,,,,,,,,,,,,,,,,
,,,,,,614deecf67f2c8ccfe3df23b,62c53a01808438d282f10f02,2022-07-06_09h33.32.276,Colour_Asymmetry_Pilot,2022.1.3,Win32,60.0060006,62c50e9c1127f2cd403a315f,0,94,94,105,1,onethree,,,,,,,,,,,,,,,,,,,,,,,,,,,,,,,,,,,,,,,,,,,,,,,,,,,,,,,,,,,,,,,,,,,,,,,,,,,,,,,,,,,,,,,,,,,,,,,,,,,,,,,,,,,,,,,,,,,,,,,,,,,,,,,,,,,,,,,,,,,,,,,,,,,,,,,,,,,,,
,,,,,,614deecf67f2c8ccfe3df23b,62c53a01808438d282f10f02,2022-07-06_09h33.32.276,Colour_Asymmetry_Pilot,2022.1.3,Win32,60.0060006,62c50e9c1127f2cd403a315f,0,95,95,96,1,onetwo,,,,,,,,,,,,,,,,,,,,,,,,,,,,,,,,,,,,,,,,,,,,,,,,,,,,,,,,,,,,,,,,,,,,,,,,,,,,,,,,,,,,,,,,,,,,,,,,,,,,,,,,,,,,,,,,,,,,,,,,,,,,,,,,,,,,,,,,,,,,,,,,,,,,,,,,,,,,,
,,,,,,614deecf67f2c8ccfe3df23b,62c53a01808438d282f10f02,2022-07-06_09h33.32.276,Colour_Asymmetry_Pilot,2022.1.3,Win32,60.0060006,62c50e9c1127f2cd403a315f,0,96,96,62,1,fourtwo,,,,,,,,,,,,,,,,,,,,,,,,,,,,,,,,,,,,,,,,,,,,,,,,,,,,,,,,,,,,,,,,,,,,,,,,,,,,,,,,,,,,,,,,,,,,,,,,,,,,,,,,,,,,,,,,,,,,,,,,,,,,,,,,,,,,,,,,,,,,,,,,,,,,,,,,,,,,,
,,,,,,614deecf67f2c8ccfe3df23b,62c53a01808438d282f10f02,2022-07-06_09h33.32.276,Colour_Asymmetry_Pilot,2022.1.3,Win32,60.0060006,62c50e9c1127f2cd403a315f,0,97,97,35,1,twofour,,,,,,,,,,,,,,,,,,,,,,,,,,,,,,,,,,,,,,,,,,,,,,,,,,,,,,,,,,,,,,,,,,,,,,,,,,,,,,,,,,,,,,,,,,,,,,,,,,,,,,,,,,,,,,,,,,,,,,,,,,,,,,,,,,,,,,,,,,,,,,,,,,,,,,,,,,,,,
,,,,,,614deecf67f2c8ccfe3df23b,62c53a01808438d282f10f02,2022-07-06_09h33.32.276,Colour_Asymmetry_Pilot,2022.1.3,Win32,60.0060006,62c50e9c1127f2cd403a315f,0,98,98,149,1,threefour,,,,,,,,,,,,,,,,,,,,,,,,,,,,,,,,,,,,,,,,,,,,,,,,,,,,,,,,,,,,,,,,,,,,,,,,,,,,,,,,,,,,,,,,,,,,,,,,,,,,,,,,,,,,,,,,,,,,,,,,,,,,,,,,,,,,,,,,,,,,,,,,,,,,,,,,,,,,,
,,,,,,614deecf67f2c8ccfe3df23b,62c53a01808438d282f10f02,2022-07-06_09h33.32.276,Colour_Asymmetry_Pilot,2022.1.3,Win32,60.0060006,62c50e9c1127f2cd403a315f,0,99,99,31,1,fourthree,,,,,,,,,,,,,,,,,,,,,,,,,,,,,,,,,,,,,,,,,,,,,,,,,,,,,,,,,,,,,,,,,,,,,,,,,,,,,,,,,,,,,,,,,,,,,,,,,,,,,,,,,,,,,,,,,,,,,,,,,,,,,,,,,,,,,,,,,,,,,,,,,,,,,,,,,,,,,
,,,,,,614deecf67f2c8ccfe3df23b,62c53a01808438d282f10f02,2022-07-06_09h33.32.276,Colour_Asymmetry_Pilot,2022.1.3,Win32,60.0060006,62c50e9c1127f2cd403a315f,0,100,100,87,1,fourthree,,,,,,,,,,,,,,,,,,,,,,,,,,,,,,,,,,,,,,,,,,,,,,,,,,,,,,,,,,,,,,,,,,,,,,,,,,,,,,,,,,,,,,,,,,,,,,,,,,,,,,,,,,,,,,,,,,,,,,,,,,,,,,,,,,,,,,,,,,,,,,,,,,,,,,,,,,,,,
,,,,,,614deecf67f2c8ccfe3df23b,62c53a01808438d282f10f02,2022-07-06_09h33.32.276,Colour_Asymmetry_Pilot,2022.1.3,Win32,60.0060006,62c50e9c1127f2cd403a315f,0,101,101,144,1,onetwo,,,,,,,,,,,,,,,,,,,,,,,,,,,,,,,,,,,,,,,,,,,,,,,,,,,,,,,,,,,,,,,,,,,,,,,,,,,,,,,,,,,,,,,,,,,,,,,,,,,,,,,,,,,,,,,,,,,,,,,,,,,,,,,,,,,,,,,,,,,,,,,,,,,,,,,,,,,,,
,,,,,,614deecf67f2c8ccfe3df23b,62c53a01808438d282f10f02,2022-07-06_09h33.32.276,Colour_Asymmetry_Pilot,2022.1.3,Win32,60.0060006,62c50e9c1127f2cd403a315f,0,102,102,20,1,threeone,,,,,,,,,,,,,,,,,,,,,,,,,,,,,,,,,,,,,,,,,,,,,,,,,,,,,,,,,,,,,,,,,,,,,,,,,,,,,,,,,,,,,,,,,,,,,,,,,,,,,,,,,,,,,,,,,,,,,,,,,,,,,,,,,,,,,,,,,,,,,,,,,,,,,,,,,,,,,
,,,,,,614deecf67f2c8ccfe3df23b,62c53a01808438d282f10f02,2022-07-06_09h33.32.276,Colour_Asymmetry_Pilot,2022.1.3,Win32,60.0060006,62c50e9c1127f2cd403a315f,0,103,103,154,1,twoone,,,,,,,,,,,,,,,,,,,,,,,,,,,,,,,,,,,,,,,,,,,,,,,,,,,,,,,,,,,,,,,,,,,,,,,,,,,,,,,,,,,,,,,,,,,,,,,,,,,,,,,,,,,,,,,,,,,,,,,,,,,,,,,,,,,,,,,,,,,,,,,,,,,,,,,,,,,,,
,,,,,,614deecf67f2c8ccfe3df23b,62c53a01808438d282f10f02,2022-07-06_09h33.32.276,Colour_Asymmetry_Pilot,2022.1.3,Win32,60.0060006,62c50e9c1127f2cd403a315f,0,104,104,78,1,fourtwo,,,,,,,,,,,,,,,,,,,,,,,,,,,,,,,,,,,,,,,,,,,,,,,,,,,,,,,,,,,,,,,,,,,,,,,,,,,,,,,,,,,,,,,,,,,,,,,,,,,,,,,,,,,,,,,,,,,,,,,,,,,,,,,,,,,,,,,,,,,,,,,,,,,,,,,,,,,,,
,,,,,,614deecf67f2c8ccfe3df23b,62c53a01808438d282f10f02,2022-07-06_09h33.32.276,Colour_Asymmetry_Pilot,2022.1.3,Win32,60.0060006,62c50e9c1127f2cd403a315f,0,105,105,142,1,fourtwo,,,,,,,,,,,,,,,,,,,,,,,,,,,,,,,,,,,,,,,,,,,,,,,,,,,,,,,,,,,,,,,,,,,,,,,,,,,,,,,,,,,,,,,,,,,,,,,,,,,,,,,,,,,,,,,,,,,,,,,,,,,,,,,,,,,,,,,,,,,,,,,,,,,,,,,,,,,,,
,,,,,,614deecf67f2c8ccfe3df23b,62c53a01808438d282f10f02,2022-07-06_09h33.32.276,Colour_Asymmetry_Pilot,2022.1.3,Win32,60.0060006,62c50e9c1127f2cd403a315f,0,106,106,119,1,fourthree,,,,,,,,,,,,,,,,,,,,,,,,,,,,,,,,,,,,,,,,,,,,,,,,,,,,,,,,,,,,,,,,,,,,,,,,,,,,,,,,,,,,,,,,,,,,,,,,,,,,,,,,,,,,,,,,,,,,,,,,,,,,,,,,,,,,,,,,,,,,,,,,,,,,,,,,,,,,,
,,,,,,614deecf67f2c8ccfe3df23b,62c53a01808438d282f10f02,2022-07-06_09h33.32.276,Colour_Asymmetry_Pilot,2022.1.3,Win32,60.0060006,62c50e9c1127f2cd403a315f,0,107,107,32,1,onetwo,,,,,,,,,,,,,,,,,,,,,,,,,,,,,,,,,,,,,,,,,,,,,,,,,,,,,,,,,,,,,,,,,,,,,,,,,,,,,,,,,,,,,,,,,,,,,,,,,,,,,,,,,,,,,,,,,,,,,,,,,,,,,,,,,,,,,,,,,,,,,,,,,,,,,,,,,,,,,
,,,,,,614deecf67f2c8ccfe3df23b,62c53a01808438d282f10f02,2022-07-06_09h33.32.276,Colour_Asymmetry_Pilot,2022.1.3,Win32,60.0060006,62c50e9c1127f2cd403a315f,0,108,108,121,1,onethree,,,,,,,,,,,,,,,,,,,,,,,,,,,,,,,,,,,,,,,,,,,,,,,,,,,,,,,,,,,,,,,,,,,,,,,,,,,,,,,,,,,,,,,,,,,,,,,,,,,,,,,,,,,,,,,,,,,,,,,,,,,,,,,,,,,,,,,,,,,,,,,,,,,,,,,,,,,,,
,,,,,,614deecf67f2c8ccfe3df23b,62c53a01808438d282f10f02,2022-07-06_09h33.32.276,Colour_Asymmetry_Pilot,2022.1.3,Win32,60.0060006,62c50e9c1127f2cd403a315f,0,109,109,116,1,threeone,,,,,,,,,,,,,,,,,,,,,,,,,,,,,,,,,,,,,,,,,,,,,,,,,,,,,,,,,,,,,,,,,,,,,,,,,,,,,,,,,,,,,,,,,,,,,,,,,,,,,,,,,,,,,,,,,,,,,,,,,,,,,,,,,,,,,,,,,,,,,,,,,,,,,,,,,,,,,
,,,,,,614deecf67f2c8ccfe3df23b,62c53a01808438d282f10f02,2022-07-06_09h33.32.276,Colour_Asymmetry_Pilot,2022.1.3,Win32,60.0060006,62c50e9c1127f2cd403a315f,0,110,110,72,1,onetwo,,,,,,,,,,,,,,,,,,,,,,,,,,,,,,,,,,,,,,,,,,,,,,,,,,,,,,,,,,,,,,,,,,,,,,,,,,,,,,,,,,,,,,,,,,,,,,,,,,,,,,,,,,,,,,,,,,,,,,,,,,,,,,,,,,,,,,,,,,,,,,,,,,,,,,,,,,,,,
,,,,,,614deecf67f2c8ccfe3df23b,62c53a01808438d282f10f02,2022-07-06_09h33.32.276,Colour_Asymmetry_Pilot,2022.1.3,Win32,60.0060006,62c50e9c1127f2cd403a315f,0,111,111,68,1,threeone,,,,,,,,,,,,,,,,,,,,,,,,,,,,,,,,,,,,,,,,,,,,,,,,,,,,,,,,,,,,,,,,,,,,,,,,,,,,,,,,,,,,,,,,,,,,,,,,,,,,,,,,,,,,,,,,,,,,,,,,,,,,,,,,,,,,,,,,,,,,,,,,,,,,,,,,,,,,,
,,,,,,614deecf67f2c8ccfe3df23b,62c53a01808438d282f10f02,2022-07-06_09h33.32.276,Colour_Asymmetry_Pilot,2022.1.3,Win32,60.0060006,62c50e9c1127f2cd403a315f,0,112,112,70,1,fourtwo,,,,,,,,,,,,,,,,,,,,,,,,,,,,,,,,,,,,,,,,,,,,,,,,,,,,,,,,,,,,,,,,,,,,,,,,,,,,,,,,,,,,,,,,,,,,,,,,,,,,,,,,,,,,,,,,,,,,,,,,,,,,,,,,,,,,,,,,,,,,,,,,,,,,,,,,,,,,,
,,,,,,614deecf67f2c8ccfe3df23b,62c53a01808438d282f10f02,2022-07-06_09h33.32.276,Colour_Asymmetry_Pilot,2022.1.3,Win32,60.0060006,62c50e9c1127f2cd403a315f,0,113,113,102,1,fourtwo,,,,,,,,,,,,,,,,,,,,,,,,,,,,,,,,,,,,,,,,,,,,,,,,,,,,,,,,,,,,,,,,,,,,,,,,,,,,,,,,,,,,,,,,,,,,,,,,,,,,,,,,,,,,,,,,,,,,,,,,,,,,,,,,,,,,,,,,,,,,,,,,,,,,,,,,,,,,,
,,,,,,614deecf67f2c8ccfe3df23b,62c53a01808438d282f10f02,2022-07-06_09h33.32.276,Colour_Asymmetry_Pilot,2022.1.3,Win32,60.0060006,62c50e9c1127f2cd403a315f,0,114,114,106,1,twoone,,,,,,,,,,,,,,,,,,,,,,,,,,,,,,,,,,,,,,,,,,,,,,,,,,,,,,,,,,,,,,,,,,,,,,,,,,,,,,,,,,,,,,,,,,,,,,,,,,,,,,,,,,,,,,,,,,,,,,,,,,,,,,,,,,,,,,,,,,,,,,,,,,,,,,,,,,,,,
,,,,,,614deecf67f2c8ccfe3df23b,62c53a01808438d282f10f02,2022-07-06_09h33.32.276,Colour_Asymmetry_Pilot,2022.1.3,Win32,60.0060006,62c50e9c1127f2cd403a315f,0,115,115,156,1,threeone,,,,,,,,,,,,,,,,,,,,,,,,,,,,,,,,,,,,,,,,,,,,,,,,,,,,,,,,,,,,,,,,,,,,,,,,,,,,,,,,,,,,,,,,,,,,,,,,,,,,,,,,,,,,,,,,,,,,,,,,,,,,,,,,,,,,,,,,,,,,,,,,,,,,,,,,,,,,,
,,,,,,614deecf67f2c8ccfe3df23b,62c53a01808438d282f10f02,2022-07-06_09h33.32.276,Colour_Asymmetry_Pilot,2022.1.3,Win32,60.0060006,62c50e9c1127f2cd403a315f,0,116,116,71,1,fourthree,,,,,,,,,,,,,,,,,,,,,,,,,,,,,,,,,,,,,,,,,,,,,,,,,,,,,,,,,,,,,,,,,,,,,,,,,,,,,,,,,,,,,,,,,,,,,,,,,,,,,,,,,,,,,,,,,,,,,,,,,,,,,,,,,,,,,,,,,,,,,,,,,,,,,,,,,,,,,
,,,,,,614deecf67f2c8ccfe3df23b,62c53a01808438d282f10f02,2022-07-06_09h33.32.276,Colour_Asymmetry_Pilot,2022.1.3,Win32,60.0060006,62c50e9c1127f2cd403a315f,0,117,117,120,1,onetwo,,,,,,,,,,,,,,,,,,,,,,,,,,,,,,,,,,,,,,,,,,,,,,,,,,,,,,,,,,,,,,,,,,,,,,,,,,,,,,,,,,,,,,,,,,,,,,,,,,,,,,,,,,,,,,,,,,,,,,,,,,,,,,,,,,,,,,,,,,,,,,,,,,,,,,,,,,,,,
,,,,,,614deecf67f2c8ccfe3df23b,62c53a01808438d282f10f02,2022-07-06_09h33.32.276,Colour_Asymmetry_Pilot,2022.1.3,Win32,60.0060006,62c50e9c1127f2cd403a315f,0,118,118,15,1,fourthree,,,,,,,,,,,,,,,,,,,,,,,,,,,,,,,,,,,,,,,,,,,,,,,,,,,,,,,,,,,,,,,,,,,,,,,,,,,,,,,,,,,,,,,,,,,,,,,,,,,,,,,,,,,,,,,,,,,,,,,,,,,,,,,,,,,,,,,,,,,,,,,,,,,,,,,,,,,,,
,,,,,,614deecf67f2c8ccfe3df23b,62c53a01808438d282f10f02,2022-07-06_09h33.32.276,Colour_Asymmetry_Pilot,2022.1.3,Win32,60.0060006,62c50e9c1127f2cd403a315f,0,119,119,99,1,twofour,,,,,,,,,,,,,,,,,,,,,,,,,,,,,,,,,,,,,,,,,,,,,,,,,,,,,,,,,,,,,,,,,,,,,,,,,,,,,,,,,,,,,,,,,,,,,,,,,,,,,,,,,,,,,,,,,,,,,,,,,,,,,,,,,,,,,,,,,,,,,,,,,,,,,,,,,,,,,
,,,,,,614deecf67f2c8ccfe3df23b,62c53a01808438d282f10f02,2022-07-06_09h33.32.276,Colour_Asymmetry_Pilot,2022.1.3,Win32,60.0060006,62c50e9c1127f2cd403a315f,0,120,120,67,1,twofour,,,,,,,,,,,,,,,,,,,,,,,,,,,,,,,,,,,,,,,,,,,,,,,,,,,,,,,,,,,,,,,,,,,,,,,,,,,,,,,,,,,,,,,,,,,,,,,,,,,,,,,,,,,,,,,,,,,,,,,,,,,,,,,,,,,,,,,,,,,,,,,,,,,,,,,,,,,,,
,,,,,,614deecf67f2c8ccfe3df23b,62c53a01808438d282f10f02,2022-07-06_09h33.32.276,Colour_Asymmetry_Pilot,2022.1.3,Win32,60.0060006,62c50e9c1127f2cd403a315f,0,121,121,10,1,twoone,,,,,,,,,,,,,,,,,,,,,,,,,,,,,,,,,,,,,,,,,,,,,,,,,,,,,,,,,,,,,,,,,,,,,,,,,,,,,,,,,,,,,,,,,,,,,,,,,,,,,,,,,,,,,,,,,,,,,,,,,,,,,,,,,,,,,,,,,,,,,,,,,,,,,,,,,,,,,
,,,,,,614deecf67f2c8ccfe3df23b,62c53a01808438d282f10f02,2022-07-06_09h33.32.276,Colour_Asymmetry_Pilot,2022.1.3,Win32,60.0060006,62c50e9c1127f2cd403a315f,0,122,122,145,1,onethree,,,,,,,,,,,,,,,,,,,,,,,,,,,,,,,,,,,,,,,,,,,,,,,,,,,,,,,,,,,,,,,,,,,,,,,,,,,,,,,,,,,,,,,,,,,,,,,,,,,,,,,,,,,,,,,,,,,,,,,,,,,,,,,,,,,,,,,,,,,,,,,,,,,,,,,,,,,,,
,,,,,,614deecf67f2c8ccfe3df23b,62c53a01808438d282f10f02,2022-07-06_09h33.32.276,Colour_Asymmetry_Pilot,2022.1.3,Win32,60.0060006,62c50e9c1127f2cd403a315f,0,123,123,139,1,twofour,,,,,,,,,,,,,,,,,,,,,,,,,,,,,,,,,,,,,,,,,,,,,,,,,,,,,,,,,,,,,,,,,,,,,,,,,,,,,,,,,,,,,,,,,,,,,,,,,,,,,,,,,,,,,,,,,,,,,,,,,,,,,,,,,,,,,,,,,,,,,,,,,,,,,,,,,,,,,
,,,,,,614deecf67f2c8ccfe3df23b,62c53a01808438d282f10f02,2022-07-06_09h33.32.276,Colour_Asymmetry_Pilot,2022.1.3,Win32,60.0060006,62c50e9c1127f2cd403a315f,0,124,124,94,1,fourtwo,,,,,,,,,,,,,,,,,,,,,,,,,,,,,,,,,,,,,,,,,,,,,,,,,,,,,,,,,,,,,,,,,,,,,,,,,,,,,,,,,,,,,,,,,,,,,,,,,,,,,,,,,,,,,,,,,,,,,,,,,,,,,,,,,,,,,,,,,,,,,,,,,,,,,,,,,,,,,
,,,,,,614deecf67f2c8ccfe3df23b,62c53a01808438d282f10f02,2022-07-06_09h33.32.276,Colour_Asymmetry_Pilot,2022.1.3,Win32,60.0060006,62c50e9c1127f2cd403a315f,0,125,125,148,1,threeone,,,,,,,,,,,,,,,,,,,,,,,,,,,,,,,,,,,,,,,,,,,,,,,,,,,,,,,,,,,,,,,,,,,,,,,,,,,,,,,,,,,,,,,,,,,,,,,,,,,,,,,,,,,,,,,,,,,,,,,,,,,,,,,,,,,,,,,,,,,,,,,,,,,,,,,,,,,,,
,,,,,,614deecf67f2c8ccfe3df23b,62c53a01808438d282f10f02,2022-07-06_09h33.32.276,Colour_Asymmetry_Pilot,2022.1.3,Win32,60.0060006,62c50e9c1127f2cd403a315f,0,126,126,3,1,twofour,,,,,,,,,,,,,,,,,,,,,,,,,,,,,,,,,,,,,,,,,,,,,,,,,,,,,,,,,,,,,,,,,,,,,,,,,,,,,,,,,,,,,,,,,,,,,,,,,,,,,,,,,,,,,,,,,,,,,,,,,,,,,,,,,,,,,,,,,,,,,,,,,,,,,,,,,,,,,
,,,,,,614deecf67f2c8ccfe3df23b,62c53a01808438d282f10f02,2022-07-06_09h33.32.276,Colour_Asymmetry_Pilot,2022.1.3,Win32,60.0060006,62c50e9c1127f2cd403a315f,0,127,127,134,1,fourtwo,,,,,,,,,,,,,,,,,,,,,,,,,,,,,,,,,,,,,,,,,,,,,,,,,,,,,,,,,,,,,,,,,,,,,,,,,,,,,,,,,,,,,,,,,,,,,,,,,,,,,,,,,,,,,,,,,,,,,,,,,,,,,,,,,,,,,,,,,,,,,,,,,,,,,,,,,,,,,
,,,,,,614deecf67f2c8ccfe3df23b,62c53a01808438d282f10f02,2022-07-06_09h33.32.276,Colour_Asymmetry_Pilot,2022.1.3,Win32,60.0060006,62c50e9c1127f2cd403a315f,0,128,128,77,1,threefour,,,,,,,,,,,,,,,,,,,,,,,,,,,,,,,,,,,,,,,,,,,,,,,,,,,,,,,,,,,,,,,,,,,,,,,,,,,,,,,,,,,,,,,,,,,,,,,,,,,,,,,,,,,,,,,,,,,,,,,,,,,,,,,,,,,,,,,,,,,,,,,,,,,,,,,,,,,,,
,,,,,,614deecf67f2c8ccfe3df23b,62c53a01808438d282f10f02,2022-07-06_09h33.32.276,Colour_Asymmetry_Pilot,2022.1.3,Win32,60.0060006,62c50e9c1127f2cd403a315f,0,129,129,104,1,onetwo,,,,,,,,,,,,,,,,,,,,,,,,,,,,,,,,,,,,,,,,,,,,,,,,,,,,,,,,,,,,,,,,,,,,,,,,,,,,,,,,,,,,,,,,,,,,,,,,,,,,,,,,,,,,,,,,,,,,,,,,,,,,,,,,,,,,,,,,,,,,,,,,,,,,,,,,,,,,,
,,,,,,614deecf67f2c8ccfe3df23b,62c53a01808438d282f10f02,2022-07-06_09h33.32.276,Colour_Asymmetry_Pilot,2022.1.3,Win32,60.0060006,62c50e9c1127f2cd403a315f,0,130,130,73,1,onethree,,,,,,,,,,,,,,,,,,,,,,,,,,,,,,,,,,,,,,,,,,,,,,,,,,,,,,,,,,,,,,,,,,,,,,,,,,,,,,,,,,,,,,,,,,,,,,,,,,,,,,,,,,,,,,,,,,,,,,,,,,,,,,,,,,,,,,,,,,,,,,,,,,,,,,,,,,,,,
,,,,,,614deecf67f2c8ccfe3df23b,62c53a01808438d282f10f02,2022-07-06_09h33.32.276,Colour_Asymmetry_Pilot,2022.1.3,Win32,60.0060006,62c50e9c1127f2cd403a315f,0,131,131,97,1,onethree,,,,,,,,,,,,,,,,,,,,,,,,,,,,,,,,,,,,,,,,,,,,,,,,,,,,,,,,,,,,,,,,,,,,,,,,,,,,,,,,,,,,,,,,,,,,,,,,,,,,,,,,,,,,,,,,,,,,,,,,,,,,,,,,,,,,,,,,,,,,,,,,,,,,,,,,,,,,,
,,,,,,614deecf67f2c8ccfe3df23b,62c53a01808438d282f10f02,2022-07-06_09h33.32.276,Colour_Asymmetry_Pilot,2022.1.3,Win32,60.0060006,62c50e9c1127f2cd403a315f,0,132,132,50,1,twoone,,,,,,,,,,,,,,,,,,,,,,,,,,,,,,,,,,,,,,,,,,,,,,,,,,,,,,,,,,,,,,,,,,,,,,,,,,,,,,,,,,,,,,,,,,,,,,,,,,,,,,,,,,,,,,,,,,,,,,,,,,,,,,,,,,,,,,,,,,,,,,,,,,,,,,,,,,,,,
,,,,,,614deecf67f2c8ccfe3df23b,62c53a01808438d282f10f02,2022-07-06_09h33.32.276,Colour_Asymmetry_Pilot,2022.1.3,Win32,60.0060006,62c50e9c1127f2cd403a315f,0,133,133,122,1,twoone,,,,,,,,,,,,,,,,,,,,,,,,,,,,,,,,,,,,,,,,,,,,,,,,,,,,,,,,,,,,,,,,,,,,,,,,,,,,,,,,,,,,,,,,,,,,,,,,,,,,,,,,,,,,,,,,,,,,,,,,,,,,,,,,,,,,,,,,,,,,,,,,,,,,,,,,,,,,,
,,,,,,614deecf67f2c8ccfe3df23b,62c53a01808438d282f10f02,2022-07-06_09h33.32.276,Colour_Asymmetry_Pilot,2022.1.3,Win32,60.0060006,62c50e9c1127f2cd403a315f,0,134,134,38,1,fourtwo,,,,,,,,,,,,,,,,,,,,,,,,,,,,,,,,,,,,,,,,,,,,,,,,,,,,,,,,,,,,,,,,,,,,,,,,,,,,,,,,,,,,,,,,,,,,,,,,,,,,,,,,,,,,,,,,,,,,,,,,,,,,,,,,,,,,,,,,,,,,,,,,,,,,,,,,,,,,,
,,,,,,614deecf67f2c8ccfe3df23b,62c53a01808438d282f10f02,2022-07-06_09h33.32.276,Colour_Asymmetry_Pilot,2022.1.3,Win32,60.0060006,62c50e9c1127f2cd403a315f,0,135,135,60,1,threeone,,,,,,,,,,,,,,,,,,,,,,,,,,,,,,,,,,,,,,,,,,,,,,,,,,,,,,,,,,,,,,,,,,,,,,,,,,,,,,,,,,,,,,,,,,,,,,,,,,,,,,,,,,,,,,,,,,,,,,,,,,,,,,,,,,,,,,,,,,,,,,,,,,,,,,,,,,,,,
,,,,,,614deecf67f2c8ccfe3df23b,62c53a01808438d282f10f02,2022-07-06_09h33.32.276,Colour_Asymmetry_Pilot,2022.1.3,Win32,60.0060006,62c50e9c1127f2cd403a315f,0,136,136,103,1,fourthree,,,,,,,,,,,,,,,,,,,,,,,,,,,,,,,,,,,,,,,,,,,,,,,,,,,,,,,,,,,,,,,,,,,,,,,,,,,,,,,,,,,,,,,,,,,,,,,,,,,,,,,,,,,,,,,,,,,,,,,,,,,,,,,,,,,,,,,,,,,,,,,,,,,,,,,,,,,,,
,,,,,,614deecf67f2c8ccfe3df23b,62c53a01808438d282f10f02,2022-07-06_09h33.32.276,Colour_Asymmetry_Pilot,2022.1.3,Win32,60.0060006,62c50e9c1127f2cd403a315f,0,137,137,141,1,threefour,,,,,,,,,,,,,,,,,,,,,,,,,,,,,,,,,,,,,,,,,,,,,,,,,,,,,,,,,,,,,,,,,,,,,,,,,,,,,,,,,,,,,,,,,,,,,,,,,,,,,,,,,,,,,,,,,,,,,,,,,,,,,,,,,,,,,,,,,,,,,,,,,,,,,,,,,,,,,
,,,,,,614deecf67f2c8ccfe3df23b,62c53a01808438d282f10f02,2022-07-06_09h33.32.276,Colour_Asymmetry_Pilot,2022.1.3,Win32,60.0060006,62c50e9c1127f2cd403a315f,0,138,138,43,1,twofour,,,,,,,,,,,,,,,,,,,,,,,,,,,,,,,,,,,,,,,,,,,,,,,,,,,,,,,,,,,,,,,,,,,,,,,,,,,,,,,,,,,,,,,,,,,,,,,,,,,,,,,,,,,,,,,,,,,,,,,,,,,,,,,,,,,,,,,,,,,,,,,,,,,,,,,,,,,,,
,,,,,,614deecf67f2c8ccfe3df23b,62c53a01808438d282f10f02,2022-07-06_09h33.32.276,Colour_Asymmetry_Pilot,2022.1.3,Win32,60.0060006,62c50e9c1127f2cd403a315f,0,139,139,7,1,fourthree,,,,,,,,,,,,,,,,,,,,,,,,,,,,,,,,,,,,,,,,,,,,,,,,,,,,,,,,,,,,,,,,,,,,,,,,,,,,,,,,,,,,,,,,,,,,,,,,,,,,,,,,,,,,,,,,,,,,,,,,,,,,,,,,,,,,,,,,,,,,,,,,,,,,,,,,,,,,,
,,,,,,614deecf67f2c8ccfe3df23b,62c53a01808438d282f10f02,2022-07-06_09h33.32.276,Colour_Asymmetry_Pilot,2022.1.3,Win32,60.0060006,62c50e9c1127f2cd403a315f,0,140,140,48,1,onetwo,,,,,,,,,,,,,,,,,,,,,,,,,,,,,,,,,,,,,,,,,,,,,,,,,,,,,,,,,,,,,,,,,,,,,,,,,,,,,,,,,,,,,,,,,,,,,,,,,,,,,,,,,,,,,,,,,,,,,,,,,,,,,,,,,,,,,,,,,,,,,,,,,,,,,,,,,,,,,
,,,,,,614deecf67f2c8ccfe3df23b,62c53a01808438d282f10f02,2022-07-06_09h33.32.276,Colour_Asymmetry_Pilot,2022.1.3,Win32,60.0060006,62c50e9c1127f2cd403a315f,0,141,141,69,1,threefour,,,,,,,,,,,,,,,,,,,,,,,,,,,,,,,,,,,,,,,,,,,,,,,,,,,,,,,,,,,,,,,,,,,,,,,,,,,,,,,,,,,,,,,,,,,,,,,,,,,,,,,,,,,,,,,,,,,,,,,,,,,,,,,,,,,,,,,,,,,,,,,,,,,,,,,,,,,,,
,,,,,,614deecf67f2c8ccfe3df23b,62c53a01808438d282f10f02,2022-07-06_09h33.32.276,Colour_Asymmetry_Pilot,2022.1.3,Win32,60.0060006,62c50e9c1127f2cd403a315f,0,142,142,57,1,onethree,,,,,,,,,,,,,,,,,,,,,,,,,,,,,,,,,,,,,,,,,,,,,,,,,,,,,,,,,,,,,,,,,,,,,,,,,,,,,,,,,,,,,,,,,,,,,,,,,,,,,,,,,,,,,,,,,,,,,,,,,,,,,,,,,,,,,,,,,,,,,,,,,,,,,,,,,,,,,
,,,,,,614deecf67f2c8ccfe3df23b,62c53a01808438d282f10f02,2022-07-06_09h33.32.276,Colour_Asymmetry_Pilot,2022.1.3,Win32,60.0060006,62c50e9c1127f2cd403a315f,0,143,143,4,1,threeone,,,,,,,,,,,,,,,,,,,,,,,,,,,,,,,,,,,,,,,,,,,,,,,,,,,,,,,,,,,,,,,,,,,,,,,,,,,,,,,,,,,,,,,,,,,,,,,,,,,,,,,,,,,,,,,,,,,,,,,,,,,,,,,,,,,,,,,,,,,,,,,,,,,,,,,,,,,,,
,,,,,,614deecf67f2c8ccfe3df23b,62c53a01808438d282f10f02,2022-07-06_09h33.32.276,Colour_Asymmetry_Pilot,2022.1.3,Win32,60.0060006,62c50e9c1127f2cd403a315f,0,144,144,138,1,twoone,,,,,,,,,,,,,,,,,,,,,,,,,,,,,,,,,,,,,,,,,,,,,,,,,,,,,,,,,,,,,,,,,,,,,,,,,,,,,,,,,,,,,,,,,,,,,,,,,,,,,,,,,,,,,,,,,,,,,,,,,,,,,,,,,,,,,,,,,,,,,,,,,,,,,,,,,,,,,
,,,,,,614deecf67f2c8ccfe3df23b,62c53a01808438d282f10f02,2022-07-06_09h33.32.276,Colour_Asymmetry_Pilot,2022.1.3,Win32,60.0060006,62c50e9c1127f2cd403a315f,0,145,145,36,1,threeone,,,,,,,,,,,,,,,,,,,,,,,,,,,,,,,,,,,,,,,,,,,,,,,,,,,,,,,,,,,,,,,,,,,,,,,,,,,,,,,,,,,,,,,,,,,,,,,,,,,,,,,,,,,,,,,,,,,,,,,,,,,,,,,,,,,,,,,,,,,,,,,,,,,,,,,,,,,,,
,,,,,,614deecf67f2c8ccfe3df23b,62c53a01808438d282f10f02,2022-07-06_09h33.32.276,Colour_Asymmetry_Pilot,2022.1.3,Win32,60.0060006,62c50e9c1127f2cd403a315f,0,146,146,8,1,onetwo,,,,,,,,,,,,,,,,,,,,,,,,,,,,,,,,,,,,,,,,,,,,,,,,,,,,,,,,,,,,,,,,,,,,,,,,,,,,,,,,,,,,,,,,,,,,,,,,,,,,,,,,,,,,,,,,,,,,,,,,,,,,,,,,,,,,,,,,,,,,,,,,,,,,,,,,,,,,,
,,,,,,614deecf67f2c8ccfe3df23b,62c53a01808438d282f10f02,2022-07-06_09h33.32.276,Colour_Asymmetry_Pilot,2022.1.3,Win32,60.0060006,62c50e9c1127f2cd403a315f,0,147,147,146,1,twoone,,,,,,,,,,,,,,,,,,,,,,,,,,,,,,,,,,,,,,,,,,,,,,,,,,,,,,,,,,,,,,,,,,,,,,,,,,,,,,,,,,,,,,,,,,,,,,,,,,,,,,,,,,,,,,,,,,,,,,,,,,,,,,,,,,,,,,,,,,,,,,,,,,,,,,,,,,,,,
,,,,,,614deecf67f2c8ccfe3df23b,62c53a01808438d282f10f02,2022-07-06_09h33.32.276,Colour_Asymmetry_Pilot,2022.1.3,Win32,60.0060006,62c50e9c1127f2cd403a315f,0,148,148,40,1,onetwo,,,,,,,,,,,,,,,,,,,,,,,,,,,,,,,,,,,,,,,,,,,,,,,,,,,,,,,,,,,,,,,,,,,,,,,,,,,,,,,,,,,,,,,,,,,,,,,,,,,,,,,,,,,,,,,,,,,,,,,,,,,,,,,,,,,,,,,,,,,,,,,,,,,,,,,,,,,,,
,,,,,,614deecf67f2c8ccfe3df23b,62c53a01808438d282f10f02,2022-07-06_09h33.32.276,Colour_Asymmetry_Pilot,2022.1.3,Win32,60.0060006,62c50e9c1127f2cd403a315f,0,149,149,107,1,twofour,,,,,,,,,,,,,,,,,,,,,,,,,,,,,,,,,,,,,,,,,,,,,,,,,,,,,,,,,,,,,,,,,,,,,,,,,,,,,,,,,,,,,,,,,,,,,,,,,,,,,,,,,,,,,,,,,,,,,,,,,,,,,,,,,,,,,,,,,,,,,,,,,,,,,,,,,,,,,
,,,,,,614deecf67f2c8ccfe3df23b,62c53a01808438d282f10f02,2022-07-06_09h33.32.276,Colour_Asymmetry_Pilot,2022.1.3,Win32,60.0060006,62c50e9c1127f2cd403a315f,0,150,150,24,1,onetwo,,,,,,,,,,,,,,,,,,,,,,,,,,,,,,,,,,,,,,,,,,,,,,,,,,,,,,,,,,,,,,,,,,,,,,,,,,,,,,,,,,,,,,,,,,,,,,,,,,,,,,,,,,,,,,,,,,,,,,,,,,,,,,,,,,,,,,,,,,,,,,,,,,,,,,,,,,,,,
,,,,,,614deecf67f2c8ccfe3df23b,62c53a01808438d282f10f02,2022-07-06_09h33.32.276,Colour_Asymmetry_Pilot,2022.1.3,Win32,60.0060006,62c50e9c1127f2cd403a315f,0,151,151,5,1,threefour,,,,,,,,,,,,,,,,,,,,,,,,,,,,,,,,,,,,,,,,,,,,,,,,,,,,,,,,,,,,,,,,,,,,,,,,,,,,,,,,,,,,,,,,,,,,,,,,,,,,,,,,,,,,,,,,,,,,,,,,,,,,,,,,,,,,,,,,,,,,,,,,,,,,,,,,,,,,,
,,,,,,614deecf67f2c8ccfe3df23b,62c53a01808438d282f10f02,2022-07-06_09h33.32.276,Colour_Asymmetry_Pilot,2022.1.3,Win32,60.0060006,62c50e9c1127f2cd403a315f,0,152,152,81,1,onethree,,,,,,,,,,,,,,,,,,,,,,,,,,,,,,,,,,,,,,,,,,,,,,,,,,,,,,,,,,,,,,,,,,,,,,,,,,,,,,,,,,,,,,,,,,,,,,,,,,,,,,,,,,,,,,,,,,,,,,,,,,,,,,,,,,,,,,,,,,,,,,,,,,,,,,,,,,,,,
,,,,,,614deecf67f2c8ccfe3df23b,62c53a01808438d282f10f02,2022-07-06_09h33.32.276,Colour_Asymmetry_Pilot,2022.1.3,Win32,60.0060006,62c50e9c1127f2cd403a315f,0,153,153,153,1,onethree,,,,,,,,,,,,,,,,,,,,,,,,,,,,,,,,,,,,,,,,,,,,,,,,,,,,,,,,,,,,,,,,,,,,,,,,,,,,,,,,,,,,,,,,,,,,,,,,,,,,,,,,,,,,,,,,,,,,,,,,,,,,,,,,,,,,,,,,,,,,,,,,,,,,,,,,,,,,,
,,,,,,614deecf67f2c8ccfe3df23b,62c53a01808438d282f10f02,2022-07-06_09h33.32.276,Colour_Asymmetry_Pilot,2022.1.3,Win32,60.0060006,62c50e9c1127f2cd403a315f,0,154,154,46,1,fourtwo,,,,,,,,,,,,,,,,,,,,,,,,,,,,,,,,,,,,,,,,,,,,,,,,,,,,,,,,,,,,,,,,,,,,,,,,,,,,,,,,,,,,,,,,,,,,,,,,,,,,,,,,,,,,,,,,,,,,,,,,,,,,,,,,,,,,,,,,,,,,,,,,,,,,,,,,,,,,,
,,,,,,614deecf67f2c8ccfe3df23b,62c53a01808438d282f10f02,2022-07-06_09h33.32.276,Colour_Asymmetry_Pilot,2022.1.3,Win32,60.0060006,62c50e9c1127f2cd403a315f,0,155,155,41,1,onethree,,,,,,,,,,,,,,,,,,,,,,,,,,,,,,,,,,,,,,,,,,,,,,,,,,,,,,,,,,,,,,,,,,,,,,,,,,,,,,,,,,,,,,,,,,,,,,,,,,,,,,,,,,,,,,,,,,,,,,,,,,,,,,,,,,,,,,,,,,,,,,,,,,,,,,,,,,,,,
,,,,,,614deecf67f2c8ccfe3df23b,62c53a01808438d282f10f02,2022-07-06_09h33.32.276,Colour_Asymmetry_Pilot,2022.1.3,Win32,60.0060006,62c50e9c1127f2cd403a315f,0,156,156,44,1,threeone,,,,,,,,,,,,,,,,,,,,,,,,,,,,,,,,,,,,,,,,,,,,,,,,,,,,,,,,,,,,,,,,,,,,,,,,,,,,,,,,,,,,,,,,,,,,,,,,,,,,,,,,,,,,,,,,,,,,,,,,,,,,,,,,,,,,,,,,,,,,,,,,,,,,,,,,,,,,,
,,,,,,614deecf67f2c8ccfe3df23b,62c53a01808438d282f10f02,2022-07-06_09h33.32.276,Colour_Asymmetry_Pilot,2022.1.3,Win32,60.0060006,62c50e9c1127f2cd403a315f,0,157,157,86,1,fourtwo,,,,,,,,,,,,,,,,,,,,,,,,,,,,,,,,,,,,,,,,,,,,,,,,,,,,,,,,,,,,,,,,,,,,,,,,,,,,,,,,,,,,,,,,,,,,,,,,,,,,,,,,,,,,,,,,,,,,,,,,,,,,,,,,,,,,,,,,,,,,,,,,,,,,,,,,,,,,,
,,,,,,614deecf67f2c8ccfe3df23b,62c53a01808438d282f10f02,2022-07-06_09h33.32.276,Colour_Asymmetry_Pilot,2022.1.3,Win32,60.0060006,62c50e9c1127f2cd403a315f,0,158,158,30,1,fourtwo,,,,,,,,,,,,,,,,,,,,,,,,,,,,,,,,,,,,,,,,,,,,,,,,,,,,,,,,,,,,,,,,,,,,,,,,,,,,,,,,,,,,,,,,,,,,,,,,,,,,,,,,,,,,,,,,,,,,,,,,,,,,,,,,,,,,,,,,,,,,,,,,,,,,,,,,,,,,,
,,,,,,614deecf67f2c8ccfe3df23b,62c53a01808438d282f10f02,2022-07-06_09h33.32.276,Colour_Asymmetry_Pilot,2022.1.3,Win32,60.0060006,62c50e9c1127f2cd403a315f,0,159,159,25,1,onethree,,,,,,,,,,,,,,,,,,,,,,,,,,,,,,,,,,,,,,,,,,,,,,,,,,,,,,,,,,,,,,,,,,,,,,,,,,,,,,,,,,,,,,,,,,,,,,,,,,,,,,,,,,,,,,,,,,,,,,,,,,,,,,,,,,,,,,,,,,,,,,,,,,,,,,,,,,,,,
,,,,,,614deecf67f2c8ccfe3df23b,62c53a01808438d282f10f02,2022-07-06_09h33.32.276,Colour_Asymmetry_Pilot,2022.1.3,Win32,60.0060006,62c50e9c1127f2cd403a315f,0,160,160,91,1,twofour,,,,,,,,,,,,,,,,,,,,,,,,,,,,,,,,,,,,,,,,,,,,,,,,,,,,,,,,,,,,,,,,,,,,,,,,,,,,,,,,,,,,,,,,,,,,,,,,,,,,,,,,,,,,,,,,,,,,,,,,,,,,,,,,,,,,,,,,,,,,,,,,,,,,,,,,,,,,,
,,,,,,614deecf67f2c8ccfe3df23b,62c53a01808438d282f10f02,2022-07-06_09h33.32.276,Colour_Asymmetry_Pilot,2022.1.3,Win32,60.0060006,62c50e9c1127f2cd403a315f,0,161,161,74,1,twoone,,,,,,,,,,,,,,,,,,,,,,,,,,,,,,,,,,,,,,,,,,,,,,,,,,,,,,,,,,,,,,,,,,,,,,,,,,,,,,,,,,,,,,,,,,,,,,,,,,,,,,,,,,,,,,,,,,,,,,,,,,,,,,,,,,,,,,,,,,,,,,,,,,,,,,,,,,,,,
,,,,,,614deecf67f2c8ccfe3df23b,62c53a01808438d282f10f02,2022-07-06_09h33.32.276,Colour_Asymmetry_Pilot,2022.1.3,Win32,60.0060006,62c50e9c1127f2cd403a315f,,,,,,,space,3.7646,space,10.8886,space,50.7019,space,11.0288,space,6.3864,space,5.4729,"[-0.9766,-0.6472,0.07440000000000002]",fourthree,"[-0.01980000000000004,-0.5138,-0.38039999999999996]",-3,17.7253,-84,42,1,0,0,response7disk_5,19,-3,1,0,0,rectangle_8,19,-3,1,0,0,4,19,-3,1,0,0,0,0,0,0,1,,,,,,,,,,,,,,,,,,,,,,,,,,,,,,,,,,,,,,,,,,,,,,,,,,,,,,,,,,,,,,,,,,,,,,,,,,,,,,,,,,,,,,,,,,,,,,,,,,,,,,,,,,,,,,,,
,,,,,,614deecf67f2c8ccfe3df23b,62c53a01808438d282f10f02,2022-07-06_09h33.32.276,Colour_Asymmetry_Pilot,2022.1.3,Win32,60.0060006,62c50e9c1127f2cd403a315f,,,,,,,,,,,,,,,,,,,"[0.6625999999999999,0.4980000000000002,-0.357]",onetwo,"[0.7018,0.7176,0.6155999999999999]",-4,5.6487,-42,90,1,0,0,response7disk_5,0,1,1,0,0,rectangle_8,0,1,1,0,0,4,0,1,1,0,0,1,0,1,0,1,,,,,,,,,,,,,,,,,,,,,,,,,,,,,,,,,,,,,,,,,,,,,,,,,,,,,,,,,,,,,,,,,,,,,,,,,,,,,,,,,,,,,,,,,,,,,,,,,,,,,,,,,,,,,,,,
,,,,,,614deecf67f2c8ccfe3df23b,62c53a01808438d282f10f02,2022-07-06_09h33.32.276,Colour_Asymmetry_Pilot,2022.1.3,Win32,60.0060006,62c50e9c1127f2cd403a315f,,,,,,,,,,,,,,,,,,,"[0.3568,-0.20799999999999996,-0.9844]",fourthree,"[-0.9688,-0.7412000000000001,-0.4902000000000001]",-4,5.3148,-67,96,1,0,0,response7disk_5,1,8,1,0,0,rectangle_8,1,8,1,0,0,4,1,8,1,0,0,2,0,2,0,1,,,,,,,,,,,,,,,,,,,,,,,,,,,,,,,,,,,,,,,,,,,,,,,,,,,,,,,,,,,,,,,,,,,,,,,,,,,,,,,,,,,,,,,,,,,,,,,,,,,,,,,,,,,,,,,,
,,,,,,614deecf67f2c8ccfe3df23b,62c53a01808438d282f10f02,2022-07-06_09h33.32.276,Colour_Asymmetry_Pilot,2022.1.3,Win32,60.0060006,62c50e9c1127f2cd403a315f,,,,,,,,,,,,,,,,,,,"[-0.2942,-0.24719999999999998,-0.357]",fourtwo,"[0.7176,-0.906,-0.6864]",-4,2.9859,-32,84,1,0,0,response7disk_5,-6,7,1,0,0,rectangle_8,-6,7,1,0,0,4,-6,7,1,0,0,3,0,3,0,1,,,,,,,,,,,,,,,,,,,,,,,,,,,,,,,,,,,,,,,,,,,,,,,,,,,,,,,,,,,,,,,,,,,,,,,,,,,,,,,,,,,,,,,,,,,,,,,,,,,,,,,,,,,,,,,,
,,,,,,614deecf67f2c8ccfe3df23b,62c53a01808438d282f10f02,2022-07-06_09h33.32.276,Colour_Asymmetry_Pilot,2022.1.3,Win32,60.0060006,62c50e9c1127f2cd403a315f,,,,,,,,,,,,,,,,,,,"[-0.6942,-0.7648,-0.12959999999999994]",onetwo,"[-0.17659999999999998,0.3253999999999999,0.19999999999999996]",-2,4.6262,-91,-36,1,0,0,response5disk_5,0,2,1,0,0,rectangle_8,47,110,1,0,0,4,-7,6,1,0,0,4,0,4,0,1,response1disk_7,7,rectangle_4,,,,,,,,,,,,,,,,,,,,,,,,,,,,,,,,,,,,,,,,,,,,,,,,,,,,,,,,,,,,,,,,,,,,,,,,,,,,,,,,,,,,,,,,,,,,,,,,,,,,,,,,,,,,,
,,,,,,614deecf67f2c8ccfe3df23b,62c53a01808438d282f10f02,2022-07-06_09h33.32.276,Colour_Asymmetry_Pilot,2022.1.3,Win32,60.0060006,62c50e9c1127f2cd403a315f,,,,,,,,,,,,,,,,,,,"[0.22340000000000004,-0.9296,-0.7884]",threeone,"[-0.9844,-0.9688,-0.9922]",-4,3.1999,-49,81,1,0,0,response7disk_5,2,2,1,0,0,rectangle_8,2,2,1,0,0,4,2,2,1,0,0,5,0,5,0,1,,,,,,,,,,,,,,,,,,,,,,,,,,,,,,,,,,,,,,,,,,,,,,,,,,,,,,,,,,,,,,,,,,,,,,,,,,,,,,,,,,,,,,,,,,,,,,,,,,,,,,,,,,,,,,,,
,,,,,,614deecf67f2c8ccfe3df23b,62c53a01808438d282f10f02,2022-07-06_09h33.32.276,Colour_Asymmetry_Pilot,2022.1.3,Win32,60.0060006,62c50e9c1127f2cd403a315f,,,,,,,,,,,,,,,,,,,"[0.9686000000000001,0.5763999999999998,0.11359999999999992]",twoone,"[0.5528,0.7409999999999999,-0.71]",-1,4.8875,-20,-95,1,0,0,response5disk_5,0,8,1,0,0,rectangle_8,0,8,1,0,0,4,0,8,1,0,0,6,0,6,0,1,,,,,,,,,,,,,,,,,,,,,,,,,,,,,,,,,,,,,,,,,,,,,,,,,,,,,,,,,,,,,,,,,,,,,,,,,,,,,,,,,,,,,,,,,,,,,,,,,,,,,,,,,,,,,,,,
,,,,,,614deecf67f2c8ccfe3df23b,62c53a01808438d282f10f02,2022-07-06_09h33.32.276,Colour_Asymmetry_Pilot,2022.1.3,Win32,60.0060006,62c50e9c1127f2cd403a315f,,,,,,,,,,,,,,,,,,,,twofour,,-3,2.6074,,,,,,,,,,,,,,,,,,,,,,,,,,,,,,,,space,4.3439,"[-0.9296,-0.12959999999999994,-0.043199999999999905]","[0.09799999999999986,-0.24719999999999998,0.15280000000000005]",-85,49,1,0,0,response7disk,2,-4,1,0,0,rectangle,2,-4,1,0,0,,3,0.0036,0,2,-4,1,0,0,0,0,0,132,1,51,second,,,,,,,,,,,,,,,,,,,,,,,,,,,,,,,,,,,,,,,,,,,,,,,,,,,,,,,,,,,,,,,,,,,,,,,,
,,,,,,614deecf67f2c8ccfe3df23b,62c53a01808438d282f10f02,2022-07-06_09h33.32.276,Colour_Asymmetry_Pilot,2022.1.3,Win32,60.0060006,62c50e9c1127f2cd403a315f,,,,,,,,,,,,,,,,,,,,onetwo,,-3,3.002,,,,,,,,,,,,,,,,,,,,,,,,,,,,,,,,,,"[0.7646000000000002,0.07440000000000002,0.2704]","[0.2862,0.7802,0.3568]",-90,56,1,0,0,response7disk,7,6,1,0,0,rectangle,87,54,1,0,0,3,3,4.1739,1,-4,2,1,0,0,0,1,1,161,1,80,second,response1disk_3,rectangle,,,,,,,,,,,,,,,,,,,,,,,,,,,,,,,,,,,,,,,,,,,,,,,,,,,,,,,,,,,,,,,,,,,,,,
,,,,,,614deecf67f2c8ccfe3df23b,62c53a01808438d282f10f02,2022-07-06_09h33.32.276,Colour_Asymmetry_Pilot,2022.1.3,Win32,60.0060006,62c50e9c1127f2cd403a315f,,,,,,,,,,,,,,,,,,,,threefour,,-4,1.8486,,,,,,,,,,,,,,,,,,,,,,,,,,,,,,,,,,"[-0.8118,-0.8198,-0.5452]","[0.9842,0.7409999999999999,-0.6628000000000001]",-37,74,1,0,0,response7disk,-2,6,1,0,0,rectangle,-2,6,1,0,0,3,1,0.002,0,-2,6,1,0,0,0,2,2,16,1,16,first,,,,,,,,,,,,,,,,,,,,,,,,,,,,,,,,,,,,,,,,,,,,,,,,,,,,,,,,,,,,,,,,,,,,,,,,
,,,,,,614deecf67f2c8ccfe3df23b,62c53a01808438d282f10f02,2022-07-06_09h33.32.276,Colour_Asymmetry_Pilot,2022.1.3,Win32,60.0060006,62c50e9c1127f2cd403a315f,,,,,,,,,,,,,,,,,,,,threefour,,-4,3.2321,,,,,,,,,,,,,,,,,,,,,,,,,,,,,,,,,,"[0.22340000000000004,-0.9296,-0.7884]","[-0.0040000000000000036,0.02739999999999987,-0.08239999999999992]",-38,78,1,0,0,response7disk,4,1,1,0,0,rectangle,4,1,1,0,0,3,3,0.0032,0,4,1,1,0,0,0,3,3,119,1,38,second,,,,,,,,,,,,,,,,,,,,,,,,,,,,,,,,,,,,,,,,,,,,,,,,,,,,,,,,,,,,,,,,,,,,,,,,
,,,,,,614deecf67f2c8ccfe3df23b,62c53a01808438d282f10f02,2022-07-06_09h33.32.276,Colour_Asymmetry_Pilot,2022.1.3,Win32,60.0060006,62c50e9c1127f2cd403a315f,,,,,,,,,,,,,,,,,,,,onetwo,,2,2.701,,,,,,,,,,,,,,,,,,,,,,,,,,,,,,,,,,"[0.34099999999999997,0.5841999999999998,-0.9844]","[0.0351999999999999,0.41159999999999997,0.0038000000000000256]",78,-31,1,0,0,response3disk,-11,4,1,0,0,rectangle,-11,4,1,0,0,3,1,0.0022,0,-11,4,1,0,0,0,4,4,50,1,50,first,,,,,,,,,,,,,,,,,,,,,,,,,,,,,,,,,,,,,,,,,,,,,,,,,,,,,,,,,,,,,,,,,,,,,,,,
,,,,,,614deecf67f2c8ccfe3df23b,62c53a01808438d282f10f02,2022-07-06_09h33.32.276,Colour_Asymmetry_Pilot,2022.1.3,Win32,60.0060006,62c50e9c1127f2cd403a315f,,,,,,,,,,,,,,,,,,,,twoone,,-4,1.4503,,,,,,,,,,,,,,,,,,,,,,,,,,,,,,,,,,"[-0.10599999999999998,-0.10599999999999998,0.5841999999999998]","[0.9842,0.7409999999999999,-0.6628000000000001]",-41,77,1,0,0,response7disk,6,2,1,0,0,rectangle,6,2,1,0,0,3,2,0.0026,0,6,2,1,0,0,0,5,5,127,1,46,second,,,,,,,,,,,,,,,,,,,,,,,,,,,,,,,,,,,,,,,,,,,,,,,,,,,,,,,,,,,,,,,,,,,,,,,,
,,,,,,614deecf67f2c8ccfe3df23b,62c53a01808438d282f10f02,2022-07-06_09h33.32.276,Colour_Asymmetry_Pilot,2022.1.3,Win32,60.0060006,62c50e9c1127f2cd403a315f,,,,,,,,,,,,,,,,,,,,threeone,,-3,2.3686,,,,,,,,,,,,,,,,,,,,,,,,,,,,,,,,,,"[-0.4668,-0.8746,-0.2942]","[-0.17659999999999998,0.3253999999999999,0.19999999999999996]",-76,46,1,0,0,response7disk,3,5,1,0,0,rectangle,3,5,1,0,0,3,3,0.0019,0,3,5,1,0,0,0,6,6,2,1,2,first,,,,,,,,,,,,,,,,,,,,,,,,,,,,,,,,,,,,,,,,,,,,,,,,,,,,,,,,,,,,,,,,,,,,,,,,
,,,,,,614deecf67f2c8ccfe3df23b,62c53a01808438d282f10f02,2022-07-06_09h33.32.276,Colour_Asymmetry_Pilot,2022.1.3,Win32,60.0060006,62c50e9c1127f2cd403a315f,,,,,,,,,,,,,,,,,,,,twofour,,-4,1.3582,,,,,,,,,,,,,,,,,,,,,,,,,,,,,,,,,,"[0.9842,0.7409999999999999,-0.6628000000000001]","[0.7176,-0.906,-0.6864]",-40,85,1,0,0,response7disk,-2,-2,1,0,0,rectangle,-2,-2,1,0,0,3,2,0.001,0,-2,-2,1,0,0,0,7,7,152,1,71,second,,,,,,,,,,,,,,,,,,,,,,,,,,,,,,,,,,,,,,,,,,,,,,,,,,,,,,,,,,,,,,,,,,,,,,,,
,,,,,,614deecf67f2c8ccfe3df23b,62c53a01808438d282f10f02,2022-07-06_09h33.32.276,Colour_Asymmetry_Pilot,2022.1.3,Win32,60.0060006,62c50e9c1127f2cd403a315f,,,,,,,,,,,,,,,,,,,,fourtwo,,-4,1.1331,,,,,,,,,,,,,,,,,,,,,,,,,,,,,,,,,,"[-0.48240000000000005,0.3175999999999999,0.2156]","[0.9686000000000001,0.3802000000000001,0.19999999999999996]",-31,66,1,0,0,response7disk,-2,-2,1,0,0,rectangle,-2,-2,1,0,0,3,3,0.0021,0,-2,-2,1,0,0,0,8,8,142,1,61,second,,,,,,,,,,,,,,,,,,,,,,,,,,,,,,,,,,,,,,,,,,,,,,,,,,,,,,,,,,,,,,,,,,,,,,,,
,,,,,,614deecf67f2c8ccfe3df23b,62c53a01808438d282f10f02,2022-07-06_09h33.32.276,Colour_Asymmetry_Pilot,2022.1.3,Win32,60.0060006,62c50e9c1127f2cd403a315f,,,,,,,,,,,,,,,,,,,,twoone,,-2,2.6347,,,,,,,,,,,,,,,,,,,,,,,,,,,,,,,,,,"[-0.34920000000000007,-0.702,-0.5216]","[-0.38039999999999996,-0.4276,-0.1452]",-93,-62,1,0,0,response5disk,-3,-2,1,0,0,rectangle,-3,-2,1,0,0,3,2,0.002,0,-3,-2,1,0,0,0,9,9,1,1,1,first,,,,,,,,,,,,,,,,,,,,,,,,,,,,,,,,,,,,,,,,,,,,,,,,,,,,,,,,,,,,,,,,,,,,,,,,
,,,,,,614deecf67f2c8ccfe3df23b,62c53a01808438d282f10f02,2022-07-06_09h33.32.276,Colour_Asymmetry_Pilot,2022.1.3,Win32,60.0060006,62c50e9c1127f2cd403a315f,,,,,,,,,,,,,,,,,,,,twofour,,-4,0.9127,,,,,,,,,,,,,,,,,,,,,,,,,,,,,,,,,,"[-0.24719999999999998,-0.0354000000000001,0.3175999999999999]","[-0.9844,-0.9688,-0.9922]",-25,75,1,0,0,response7disk,2,11,1,0,0,rectangle,102,36,1,0,0,3,3,2.1196,1,-8,4,1,0,0,0,10,10,11,1,11,first,response1disk_3,rectangle,,,,,,,,,,,,,,,,,,,,,,,,,,,,,,,,,,,,,,,,,,,,,,,,,,,,,,,,,,,,,,,,,,,,,,
,,,,,,614deecf67f2c8ccfe3df23b,62c53a01808438d282f10f02,2022-07-06_09h33.32.276,Colour_Asymmetry_Pilot,2022.1.3,Win32,60.0060006,62c50e9c1127f2cd403a315f,,,,,,,,,,,,,,,,,,,,onethree,,-4,0.8311,,,,,,,,,,,,,,,,,,,,,,,,,,,,,,,,,,"[0.2784,-0.31000000000000005,-0.5452]","[-0.38039999999999996,-0.4276,-0.1452]",-53,73,1,0,0,response7disk,-2,9,1,0,0,rectangle,-2,9,1,0,0,3,2,0.0014,0,-2,9,1,0,0,0,11,11,33,1,33,first,,,,,,,,,,,,,,,,,,,,,,,,,,,,,,,,,,,,,,,,,,,,,,,,,,,,,,,,,,,,,,,,,,,,,,,,
,,,,,,614deecf67f2c8ccfe3df23b,62c53a01808438d282f10f02,2022-07-06_09h33.32.276,Colour_Asymmetry_Pilot,2022.1.3,Win32,60.0060006,62c50e9c1127f2cd403a315f,,,,,,,,,,,,,,,,,,,,twoone,,-4,0.8009,,,,,,,,,,,,,,,,,,,,,,,,,,,,,,,,,,"[-0.0040000000000000036,0.02739999999999987,-0.08239999999999992]","[0.22340000000000004,-0.9296,-0.7884]",-37,79,1,0,0,response7disk,0,1,1,0,0,rectangle,0,1,1,0,0,3,1,0.0018,0,0,1,1,0,0,0,12,12,38,1,38,first,,,,,,,,,,,,,,,,,,,,,,,,,,,,,,,,,,,,,,,,,,,,,,,,,,,,,,,,,,,,,,,,,,,,,,,,
,,,,,,614deecf67f2c8ccfe3df23b,62c53a01808438d282f10f02,2022-07-06_09h33.32.276,Colour_Asymmetry_Pilot,2022.1.3,Win32,60.0060006,62c50e9c1127f2cd403a315f,,,,,,,,,,,,,,,,,,,,threefour,,2,2.5219,,,,,,,,,,,,,,,,,,,,,,,,,,,,,,,,,,"[-0.9766,-0.6472,0.07440000000000002]","[-0.9688,-0.4902000000000001,-0.12159999999999993]",89,-42,1,0,0,response3disk,3,3,1,0,0,rectangle,3,3,1,0,0,3,3,0.0022,0,3,3,1,0,0,0,13,13,139,1,58,second,,,,,,,,,,,,,,,,,,,,,,,,,,,,,,,,,,,,,,,,,,,,,,,,,,,,,,,,,,,,,,,,,,,,,,,,
,,,,,,614deecf67f2c8ccfe3df23b,62c53a01808438d282f10f02,2022-07-06_09h33.32.276,Colour_Asymmetry_Pilot,2022.1.3,Win32,60.0060006,62c50e9c1127f2cd403a315f,,,,,,,,,,,,,,,,,,,,onethree,,-1,2.7481,,,,,,,,,,,,,,,,,,,,,,,,,,,,,,,,,,"[-0.2942,-0.24719999999999998,-0.357]","[0.4196,0.4665999999999999,0.3568]",-21,-78,1,0,0,response5disk,5,0,1,0,0,rectangle,5,0,1,0,0,3,3,0.0014,0,5,0,1,0,0,0,14,14,27,1,27,first,,,,,,,,,,,,,,,,,,,,,,,,,,,,,,,,,,,,,,,,,,,,,,,,,,,,,,,,,,,,,,,,,,,,,,,,
,,,,,,614deecf67f2c8ccfe3df23b,62c53a01808438d282f10f02,2022-07-06_09h33.32.276,Colour_Asymmetry_Pilot,2022.1.3,Win32,60.0060006,62c50e9c1127f2cd403a315f,,,,,,,,,,,,,,,,,,,,onethree,,-4,1.2499,,,,,,,,,,,,,,,,,,,,,,,,,,,,,,,,,,"[0.22340000000000004,-0.9296,-0.7884]","[-0.6235999999999999,-0.6786,-0.08239999999999992]",-29,61,1,0,0,response7disk,-1,6,1,0,0,rectangle,-1,6,1,0,0,3,3,0.002,0,-1,6,1,0,0,0,15,15,98,1,17,second,,,,,,,,,,,,,,,,,,,,,,,,,,,,,,,,,,,,,,,,,,,,,,,,,,,,,,,,,,,,,,,,,,,,,,,,
,,,,,,614deecf67f2c8ccfe3df23b,62c53a01808438d282f10f02,2022-07-06_09h33.32.276,Colour_Asymmetry_Pilot,2022.1.3,Win32,60.0060006,62c50e9c1127f2cd403a315f,,,,,,,,,,,,,,,,,,,,onetwo,,-4,0.7846,,,,,,,,,,,,,,,,,,,,,,,,,,,,,,,,,,"[-0.30200000000000005,0.14500000000000002,0.2784]","[0.23120000000000007,-0.7726,-0.34120000000000006]",-29,49,1,0,0,response7disk,-4,11,1,0,0,rectangle,-4,11,1,0,0,3,3,0.0006,0,-4,11,1,0,0,0,16,16,3,1,3,first,,,,,,,,,,,,,,,,,,,,,,,,,,,,,,,,,,,,,,,,,,,,,,,,,,,,,,,,,,,,,,,,,,,,,,,,
,,,,,,614deecf67f2c8ccfe3df23b,62c53a01808438d282f10f02,2022-07-06_09h33.32.276,Colour_Asymmetry_Pilot,2022.1.3,Win32,60.0060006,62c50e9c1127f2cd403a315f,,,,,,,,,,,,,,,,,,,,fourtwo,,-4,1.4832,,,,,,,,,,,,,,,,,,,,,,,,,,,,,,,,,,"[-0.9296,-0.12959999999999994,-0.043199999999999905]","[0.9213999999999998,0.6391999999999998,-0.9922]",-26,53,1,0,0,response7disk,5,-1,1,0,0,rectangle,5,-1,1,0,0,3,1,0.003,0,5,-1,1,0,0,0,17,17,81,1,0,second,,,,,,,,,,,,,,,,,,,,,,,,,,,,,,,,,,,,,,,,,,,,,,,,,,,,,,,,,,,,,,,,,,,,,,,,
,,,,,,614deecf67f2c8ccfe3df23b,62c53a01808438d282f10f02,2022-07-06_09h33.32.276,Colour_Asymmetry_Pilot,2022.1.3,Win32,60.0060006,62c50e9c1127f2cd403a315f,,,,,,,,,,,,,,,,,,,,threeone,,-4,0.4852,,,,,,,,,,,,,,,,,,,,,,,,,,,,,,,,,,"[0.796,0.2156,-0.27859999999999996]","[-0.17659999999999998,0.3253999999999999,0.19999999999999996]",-28,38,1,0,0,response7disk,3,6,1,0,0,rectangle,3,6,1,0,0,3,3,0.0016,0,3,6,1,0,0,0,18,18,44,1,44,first,,,,,,,,,,,,,,,,,,,,,,,,,,,,,,,,,,,,,,,,,,,,,,,,,,,,,,,,,,,,,,,,,,,,,,,,
