trials.thisRepN,trials.thisTrialN,trials.thisN,trials.thisIndex,trials.ran,Colourcodes,participant,session,date,expName,psychopyVersion,OS,frameRate,study_id,trials_4.thisRepN,trials_4.thisTrialN,trials_4.thisN,trials_4.thisIndex,trials_4.ran,StimulusPos,key_resp.keys,key_resp.rt,key_resp_2.keys,key_resp_2.rt,key_resp_15.keys,key_resp_15.rt,key_resp_17.keys,key_resp_17.rt,key_resp_9.keys,key_resp_9.rt,key_resp_10.keys,key_resp_10.rt,Circle1_col,Ecc,Circle2_col,similarity,response_time,mouse_5.x,mouse_5.y,mouse_5.leftButton,mouse_5.midButton,mouse_5.rightButton,mouse_5.clicked_name,mouse_10.x,mouse_10.y,mouse_10.leftButton,mouse_10.midButton,mouse_10.rightButton,mouse_10.clicked_name,mouse_7.x,mouse_7.y,mouse_7.leftButton,mouse_7.midButton,mouse_7.rightButton,catchnumberprac,mouse_6.x,mouse_6.y,mouse_6.leftButton,mouse_6.midButton,mouse_6.rightButton,duringprac.thisRepN,duringprac.thisTrialN,duringprac.thisN,duringprac.thisIndex,duringprac.ran,mouse_7.clicked_name,catchprac,mouse_6.clicked_name,key_resp_22.keys,key_resp_22.rt,Circle1_colour,Circle2_colour,mouse.x,mouse.y,mouse.leftButton,mouse.midButton,mouse.rightButton,mouse.clicked_name,mouse_2.x,mouse_2.y,mouse_2.leftButton,mouse_2.midButton,mouse_2.rightButton,mouse_2.clicked_name,mouse_3.x,mouse_3.y,mouse_3.leftButton,mouse_3.midButton,mouse_3.rightButton,catchresponse,catchnumber,response_time_catch,Catch,mouse_11.x,mouse_11.y,mouse_11.leftButton,mouse_11.midButton,mouse_11.rightButton,trials_2.thisRepN,trials_2.thisTrialN,trials_2.thisN,trials_2.thisIndex,trials_2.ran,Colourpair,Temporder,mouse_3.clicked_name,mouse_11.clicked_name,trials_3.thisRepN,trials_3.thisTrialN,trials_3.thisN,trials_3.thisIndex,trials_3.ran,key_resp_instr_Ishi.keys,key_resp_instr_Ishi.rt,Ishi_trial_keyresp.keys,Ishi_trial_keyresp.rt,Ishi_textbox.text,Ishi_mouse.x,Ishi_mouse.y,Ishi_mouse.leftButton,Ishi_mouse.midButton,Ishi_mouse.rightButton,Ishi_loop.thisRepN,Ishi_loop.thisTrialN,Ishi_loop.thisN,Ishi_loop.thisIndex,Ishi_loop.ran,imageaddress,textbox.text,mouse_4.x,mouse_4.y,mouse_4.leftButton,mouse_4.midButton,mouse_4.rightButton,mouse_4.clicked_name,textbox_2.text,mouse_8.x,mouse_8.y,mouse_8.leftButton,mouse_8.midButton,mouse_8.rightButton,mouse_8.clicked_name,textbox_3.text,mouse_9.x,mouse_9.y,mouse_9.leftButton,mouse_9.midButton,mouse_9.rightButton,mouse_9.clicked_name,textbox_4.text,mouse_12.x,mouse_12.y,mouse_12.leftButton,mouse_12.midButton,mouse_12.rightButton,mouse_12.clicked_name,textbox_5.text,mouse_13.x,mouse_13.y,mouse_13.leftButton,mouse_13.midButton,mouse_13.rightButton,mouse_13.clicked_name,textbox_6.text,mouse_14.x,mouse_14.y,mouse_14.leftButton,mouse_14.midButton,mouse_14.rightButton,mouse_14.clicked_name,textbox_7.text,mouse_15.x,mouse_15.y,mouse_15.leftButton,mouse_15.midButton,mouse_15.rightButton,mouse_15.clicked_name
0,0,0,85,1,,6084b716b457b6296f61778e,62c53a3dcbc302299560b855,2022-07-06_08h31.18.083,Colour_Asymmetry_Pilot,2022.1.3,MacIntel,60.0024001,62c50e9c1127f2cd403a315f,,,,,,,,,,,,,,,,,,,,,,,,,,,,,,,,,,,,,,,,,,,,,,,,,,,,,,,,,,,,,,,,,,,,,,,,,,,,,,,,,,,,,,,,,,,,,,,,,,,,,,,,,,,,,,,,,,,,,,,,,,,,,,,,,,,,,,,,,,,,,,,,,,,,,,,,,,,,,,,,,,,
0,1,1,80,1,,6084b716b457b6296f61778e,62c53a3dcbc302299560b855,2022-07-06_08h31.18.083,Colour_Asymmetry_Pilot,2022.1.3,MacIntel,60.0024001,62c50e9c1127f2cd403a315f,,,,,,,,,,,,,,,,,,,,,,,,,,,,,,,,,,,,,,,,,,,,,,,,,,,,,,,,,,,,,,,,,,,,,,,,,,,,,,,,,,,,,,,,,,,,,,,,,,,,,,,,,,,,,,,,,,,,,,,,,,,,,,,,,,,,,,,,,,,,,,,,,,,,,,,,,,,,,,,,,,,
0,2,2,63,1,,6084b716b457b6296f61778e,62c53a3dcbc302299560b855,2022-07-06_08h31.18.083,Colour_Asymmetry_Pilot,2022.1.3,MacIntel,60.0024001,62c50e9c1127f2cd403a315f,,,,,,,,,,,,,,,,,,,,,,,,,,,,,,,,,,,,,,,,,,,,,,,,,,,,,,,,,,,,,,,,,,,,,,,,,,,,,,,,,,,,,,,,,,,,,,,,,,,,,,,,,,,,,,,,,,,,,,,,,,,,,,,,,,,,,,,,,,,,,,,,,,,,,,,,,,,,,,,,,,,
0,3,3,23,1,,6084b716b457b6296f61778e,62c53a3dcbc302299560b855,2022-07-06_08h31.18.083,Colour_Asymmetry_Pilot,2022.1.3,MacIntel,60.0024001,62c50e9c1127f2cd403a315f,,,,,,,,,,,,,,,,,,,,,,,,,,,,,,,,,,,,,,,,,,,,,,,,,,,,,,,,,,,,,,,,,,,,,,,,,,,,,,,,,,,,,,,,,,,,,,,,,,,,,,,,,,,,,,,,,,,,,,,,,,,,,,,,,,,,,,,,,,,,,,,,,,,,,,,,,,,,,,,,,,,
0,4,4,15,1,,6084b716b457b6296f61778e,62c53a3dcbc302299560b855,2022-07-06_08h31.18.083,Colour_Asymmetry_Pilot,2022.1.3,MacIntel,60.0024001,62c50e9c1127f2cd403a315f,,,,,,,,,,,,,,,,,,,,,,,,,,,,,,,,,,,,,,,,,,,,,,,,,,,,,,,,,,,,,,,,,,,,,,,,,,,,,,,,,,,,,,,,,,,,,,,,,,,,,,,,,,,,,,,,,,,,,,,,,,,,,,,,,,,,,,,,,,,,,,,,,,,,,,,,,,,,,,,,,,,
0,5,5,6,1,,6084b716b457b6296f61778e,62c53a3dcbc302299560b855,2022-07-06_08h31.18.083,Colour_Asymmetry_Pilot,2022.1.3,MacIntel,60.0024001,62c50e9c1127f2cd403a315f,,,,,,,,,,,,,,,,,,,,,,,,,,,,,,,,,,,,,,,,,,,,,,,,,,,,,,,,,,,,,,,,,,,,,,,,,,,,,,,,,,,,,,,,,,,,,,,,,,,,,,,,,,,,,,,,,,,,,,,,,,,,,,,,,,,,,,,,,,,,,,,,,,,,,,,,,,,,,,,,,,,
0,6,6,84,1,,6084b716b457b6296f61778e,62c53a3dcbc302299560b855,2022-07-06_08h31.18.083,Colour_Asymmetry_Pilot,2022.1.3,MacIntel,60.0024001,62c50e9c1127f2cd403a315f,,,,,,,,,,,,,,,,,,,,,,,,,,,,,,,,,,,,,,,,,,,,,,,,,,,,,,,,,,,,,,,,,,,,,,,,,,,,,,,,,,,,,,,,,,,,,,,,,,,,,,,,,,,,,,,,,,,,,,,,,,,,,,,,,,,,,,,,,,,,,,,,,,,,,,,,,,,,,,,,,,,
0,7,7,34,1,,6084b716b457b6296f61778e,62c53a3dcbc302299560b855,2022-07-06_08h31.18.083,Colour_Asymmetry_Pilot,2022.1.3,MacIntel,60.0024001,62c50e9c1127f2cd403a315f,,,,,,,,,,,,,,,,,,,,,,,,,,,,,,,,,,,,,,,,,,,,,,,,,,,,,,,,,,,,,,,,,,,,,,,,,,,,,,,,,,,,,,,,,,,,,,,,,,,,,,,,,,,,,,,,,,,,,,,,,,,,,,,,,,,,,,,,,,,,,,,,,,,,,,,,,,,,,,,,,,,
0,8,8,48,1,,6084b716b457b6296f61778e,62c53a3dcbc302299560b855,2022-07-06_08h31.18.083,Colour_Asymmetry_Pilot,2022.1.3,MacIntel,60.0024001,62c50e9c1127f2cd403a315f,,,,,,,,,,,,,,,,,,,,,,,,,,,,,,,,,,,,,,,,,,,,,,,,,,,,,,,,,,,,,,,,,,,,,,,,,,,,,,,,,,,,,,,,,,,,,,,,,,,,,,,,,,,,,,,,,,,,,,,,,,,,,,,,,,,,,,,,,,,,,,,,,,,,,,,,,,,,,,,,,,,
0,9,9,39,1,,6084b716b457b6296f61778e,62c53a3dcbc302299560b855,2022-07-06_08h31.18.083,Colour_Asymmetry_Pilot,2022.1.3,MacIntel,60.0024001,62c50e9c1127f2cd403a315f,,,,,,,,,,,,,,,,,,,,,,,,,,,,,,,,,,,,,,,,,,,,,,,,,,,,,,,,,,,,,,,,,,,,,,,,,,,,,,,,,,,,,,,,,,,,,,,,,,,,,,,,,,,,,,,,,,,,,,,,,,,,,,,,,,,,,,,,,,,,,,,,,,,,,,,,,,,,,,,,,,,
0,10,10,20,1,,6084b716b457b6296f61778e,62c53a3dcbc302299560b855,2022-07-06_08h31.18.083,Colour_Asymmetry_Pilot,2022.1.3,MacIntel,60.0024001,62c50e9c1127f2cd403a315f,,,,,,,,,,,,,,,,,,,,,,,,,,,,,,,,,,,,,,,,,,,,,,,,,,,,,,,,,,,,,,,,,,,,,,,,,,,,,,,,,,,,,,,,,,,,,,,,,,,,,,,,,,,,,,,,,,,,,,,,,,,,,,,,,,,,,,,,,,,,,,,,,,,,,,,,,,,,,,,,,,,
0,11,11,75,1,,6084b716b457b6296f61778e,62c53a3dcbc302299560b855,2022-07-06_08h31.18.083,Colour_Asymmetry_Pilot,2022.1.3,MacIntel,60.0024001,62c50e9c1127f2cd403a315f,,,,,,,,,,,,,,,,,,,,,,,,,,,,,,,,,,,,,,,,,,,,,,,,,,,,,,,,,,,,,,,,,,,,,,,,,,,,,,,,,,,,,,,,,,,,,,,,,,,,,,,,,,,,,,,,,,,,,,,,,,,,,,,,,,,,,,,,,,,,,,,,,,,,,,,,,,,,,,,,,,,
0,12,12,31,1,,6084b716b457b6296f61778e,62c53a3dcbc302299560b855,2022-07-06_08h31.18.083,Colour_Asymmetry_Pilot,2022.1.3,MacIntel,60.0024001,62c50e9c1127f2cd403a315f,,,,,,,,,,,,,,,,,,,,,,,,,,,,,,,,,,,,,,,,,,,,,,,,,,,,,,,,,,,,,,,,,,,,,,,,,,,,,,,,,,,,,,,,,,,,,,,,,,,,,,,,,,,,,,,,,,,,,,,,,,,,,,,,,,,,,,,,,,,,,,,,,,,,,,,,,,,,,,,,,,,
0,13,13,79,1,,6084b716b457b6296f61778e,62c53a3dcbc302299560b855,2022-07-06_08h31.18.083,Colour_Asymmetry_Pilot,2022.1.3,MacIntel,60.0024001,62c50e9c1127f2cd403a315f,,,,,,,,,,,,,,,,,,,,,,,,,,,,,,,,,,,,,,,,,,,,,,,,,,,,,,,,,,,,,,,,,,,,,,,,,,,,,,,,,,,,,,,,,,,,,,,,,,,,,,,,,,,,,,,,,,,,,,,,,,,,,,,,,,,,,,,,,,,,,,,,,,,,,,,,,,,,,,,,,,,
0,14,14,57,1,,6084b716b457b6296f61778e,62c53a3dcbc302299560b855,2022-07-06_08h31.18.083,Colour_Asymmetry_Pilot,2022.1.3,MacIntel,60.0024001,62c50e9c1127f2cd403a315f,,,,,,,,,,,,,,,,,,,,,,,,,,,,,,,,,,,,,,,,,,,,,,,,,,,,,,,,,,,,,,,,,,,,,,,,,,,,,,,,,,,,,,,,,,,,,,,,,,,,,,,,,,,,,,,,,,,,,,,,,,,,,,,,,,,,,,,,,,,,,,,,,,,,,,,,,,,,,,,,,,,
0,15,15,66,1,,6084b716b457b6296f61778e,62c53a3dcbc302299560b855,2022-07-06_08h31.18.083,Colour_Asymmetry_Pilot,2022.1.3,MacIntel,60.0024001,62c50e9c1127f2cd403a315f,,,,,,,,,,,,,,,,,,,,,,,,,,,,,,,,,,,,,,,,,,,,,,,,,,,,,,,,,,,,,,,,,,,,,,,,,,,,,,,,,,,,,,,,,,,,,,,,,,,,,,,,,,,,,,,,,,,,,,,,,,,,,,,,,,,,,,,,,,,,,,,,,,,,,,,,,,,,,,,,,,,
0,16,16,19,1,,6084b716b457b6296f61778e,62c53a3dcbc302299560b855,2022-07-06_08h31.18.083,Colour_Asymmetry_Pilot,2022.1.3,MacIntel,60.0024001,62c50e9c1127f2cd403a315f,,,,,,,,,,,,,,,,,,,,,,,,,,,,,,,,,,,,,,,,,,,,,,,,,,,,,,,,,,,,,,,,,,,,,,,,,,,,,,,,,,,,,,,,,,,,,,,,,,,,,,,,,,,,,,,,,,,,,,,,,,,,,,,,,,,,,,,,,,,,,,,,,,,,,,,,,,,,,,,,,,,
0,17,17,25,1,,6084b716b457b6296f61778e,62c53a3dcbc302299560b855,2022-07-06_08h31.18.083,Colour_Asymmetry_Pilot,2022.1.3,MacIntel,60.0024001,62c50e9c1127f2cd403a315f,,,,,,,,,,,,,,,,,,,,,,,,,,,,,,,,,,,,,,,,,,,,,,,,,,,,,,,,,,,,,,,,,,,,,,,,,,,,,,,,,,,,,,,,,,,,,,,,,,,,,,,,,,,,,,,,,,,,,,,,,,,,,,,,,,,,,,,,,,,,,,,,,,,,,,,,,,,,,,,,,,,
0,18,18,42,1,,6084b716b457b6296f61778e,62c53a3dcbc302299560b855,2022-07-06_08h31.18.083,Colour_Asymmetry_Pilot,2022.1.3,MacIntel,60.0024001,62c50e9c1127f2cd403a315f,,,,,,,,,,,,,,,,,,,,,,,,,,,,,,,,,,,,,,,,,,,,,,,,,,,,,,,,,,,,,,,,,,,,,,,,,,,,,,,,,,,,,,,,,,,,,,,,,,,,,,,,,,,,,,,,,,,,,,,,,,,,,,,,,,,,,,,,,,,,,,,,,,,,,,,,,,,,,,,,,,,
0,19,19,40,1,,6084b716b457b6296f61778e,62c53a3dcbc302299560b855,2022-07-06_08h31.18.083,Colour_Asymmetry_Pilot,2022.1.3,MacIntel,60.0024001,62c50e9c1127f2cd403a315f,,,,,,,,,,,,,,,,,,,,,,,,,,,,,,,,,,,,,,,,,,,,,,,,,,,,,,,,,,,,,,,,,,,,,,,,,,,,,,,,,,,,,,,,,,,,,,,,,,,,,,,,,,,,,,,,,,,,,,,,,,,,,,,,,,,,,,,,,,,,,,,,,,,,,,,,,,,,,,,,,,,
0,20,20,29,1,,6084b716b457b6296f61778e,62c53a3dcbc302299560b855,2022-07-06_08h31.18.083,Colour_Asymmetry_Pilot,2022.1.3,MacIntel,60.0024001,62c50e9c1127f2cd403a315f,,,,,,,,,,,,,,,,,,,,,,,,,,,,,,,,,,,,,,,,,,,,,,,,,,,,,,,,,,,,,,,,,,,,,,,,,,,,,,,,,,,,,,,,,,,,,,,,,,,,,,,,,,,,,,,,,,,,,,,,,,,,,,,,,,,,,,,,,,,,,,,,,,,,,,,,,,,,,,,,,,,
0,21,21,72,1,,6084b716b457b6296f61778e,62c53a3dcbc302299560b855,2022-07-06_08h31.18.083,Colour_Asymmetry_Pilot,2022.1.3,MacIntel,60.0024001,62c50e9c1127f2cd403a315f,,,,,,,,,,,,,,,,,,,,,,,,,,,,,,,,,,,,,,,,,,,,,,,,,,,,,,,,,,,,,,,,,,,,,,,,,,,,,,,,,,,,,,,,,,,,,,,,,,,,,,,,,,,,,,,,,,,,,,,,,,,,,,,,,,,,,,,,,,,,,,,,,,,,,,,,,,,,,,,,,,,
0,22,22,53,1,,6084b716b457b6296f61778e,62c53a3dcbc302299560b855,2022-07-06_08h31.18.083,Colour_Asymmetry_Pilot,2022.1.3,MacIntel,60.0024001,62c50e9c1127f2cd403a315f,,,,,,,,,,,,,,,,,,,,,,,,,,,,,,,,,,,,,,,,,,,,,,,,,,,,,,,,,,,,,,,,,,,,,,,,,,,,,,,,,,,,,,,,,,,,,,,,,,,,,,,,,,,,,,,,,,,,,,,,,,,,,,,,,,,,,,,,,,,,,,,,,,,,,,,,,,,,,,,,,,,
0,23,23,27,1,,6084b716b457b6296f61778e,62c53a3dcbc302299560b855,2022-07-06_08h31.18.083,Colour_Asymmetry_Pilot,2022.1.3,MacIntel,60.0024001,62c50e9c1127f2cd403a315f,,,,,,,,,,,,,,,,,,,,,,,,,,,,,,,,,,,,,,,,,,,,,,,,,,,,,,,,,,,,,,,,,,,,,,,,,,,,,,,,,,,,,,,,,,,,,,,,,,,,,,,,,,,,,,,,,,,,,,,,,,,,,,,,,,,,,,,,,,,,,,,,,,,,,,,,,,,,,,,,,,,
0,24,24,3,1,,6084b716b457b6296f61778e,62c53a3dcbc302299560b855,2022-07-06_08h31.18.083,Colour_Asymmetry_Pilot,2022.1.3,MacIntel,60.0024001,62c50e9c1127f2cd403a315f,,,,,,,,,,,,,,,,,,,,,,,,,,,,,,,,,,,,,,,,,,,,,,,,,,,,,,,,,,,,,,,,,,,,,,,,,,,,,,,,,,,,,,,,,,,,,,,,,,,,,,,,,,,,,,,,,,,,,,,,,,,,,,,,,,,,,,,,,,,,,,,,,,,,,,,,,,,,,,,,,,,
0,25,25,83,1,,6084b716b457b6296f61778e,62c53a3dcbc302299560b855,2022-07-06_08h31.18.083,Colour_Asymmetry_Pilot,2022.1.3,MacIntel,60.0024001,62c50e9c1127f2cd403a315f,,,,,,,,,,,,,,,,,,,,,,,,,,,,,,,,,,,,,,,,,,,,,,,,,,,,,,,,,,,,,,,,,,,,,,,,,,,,,,,,,,,,,,,,,,,,,,,,,,,,,,,,,,,,,,,,,,,,,,,,,,,,,,,,,,,,,,,,,,,,,,,,,,,,,,,,,,,,,,,,,,,
0,26,26,89,1,,6084b716b457b6296f61778e,62c53a3dcbc302299560b855,2022-07-06_08h31.18.083,Colour_Asymmetry_Pilot,2022.1.3,MacIntel,60.0024001,62c50e9c1127f2cd403a315f,,,,,,,,,,,,,,,,,,,,,,,,,,,,,,,,,,,,,,,,,,,,,,,,,,,,,,,,,,,,,,,,,,,,,,,,,,,,,,,,,,,,,,,,,,,,,,,,,,,,,,,,,,,,,,,,,,,,,,,,,,,,,,,,,,,,,,,,,,,,,,,,,,,,,,,,,,,,,,,,,,,
0,27,27,90,1,,6084b716b457b6296f61778e,62c53a3dcbc302299560b855,2022-07-06_08h31.18.083,Colour_Asymmetry_Pilot,2022.1.3,MacIntel,60.0024001,62c50e9c1127f2cd403a315f,,,,,,,,,,,,,,,,,,,,,,,,,,,,,,,,,,,,,,,,,,,,,,,,,,,,,,,,,,,,,,,,,,,,,,,,,,,,,,,,,,,,,,,,,,,,,,,,,,,,,,,,,,,,,,,,,,,,,,,,,,,,,,,,,,,,,,,,,,,,,,,,,,,,,,,,,,,,,,,,,,,
0,28,28,78,1,,6084b716b457b6296f61778e,62c53a3dcbc302299560b855,2022-07-06_08h31.18.083,Colour_Asymmetry_Pilot,2022.1.3,MacIntel,60.0024001,62c50e9c1127f2cd403a315f,,,,,,,,,,,,,,,,,,,,,,,,,,,,,,,,,,,,,,,,,,,,,,,,,,,,,,,,,,,,,,,,,,,,,,,,,,,,,,,,,,,,,,,,,,,,,,,,,,,,,,,,,,,,,,,,,,,,,,,,,,,,,,,,,,,,,,,,,,,,,,,,,,,,,,,,,,,,,,,,,,,
0,29,29,4,1,,6084b716b457b6296f61778e,62c53a3dcbc302299560b855,2022-07-06_08h31.18.083,Colour_Asymmetry_Pilot,2022.1.3,MacIntel,60.0024001,62c50e9c1127f2cd403a315f,,,,,,,,,,,,,,,,,,,,,,,,,,,,,,,,,,,,,,,,,,,,,,,,,,,,,,,,,,,,,,,,,,,,,,,,,,,,,,,,,,,,,,,,,,,,,,,,,,,,,,,,,,,,,,,,,,,,,,,,,,,,,,,,,,,,,,,,,,,,,,,,,,,,,,,,,,,,,,,,,,,
0,30,30,11,1,,6084b716b457b6296f61778e,62c53a3dcbc302299560b855,2022-07-06_08h31.18.083,Colour_Asymmetry_Pilot,2022.1.3,MacIntel,60.0024001,62c50e9c1127f2cd403a315f,,,,,,,,,,,,,,,,,,,,,,,,,,,,,,,,,,,,,,,,,,,,,,,,,,,,,,,,,,,,,,,,,,,,,,,,,,,,,,,,,,,,,,,,,,,,,,,,,,,,,,,,,,,,,,,,,,,,,,,,,,,,,,,,,,,,,,,,,,,,,,,,,,,,,,,,,,,,,,,,,,,
0,31,31,18,1,,6084b716b457b6296f61778e,62c53a3dcbc302299560b855,2022-07-06_08h31.18.083,Colour_Asymmetry_Pilot,2022.1.3,MacIntel,60.0024001,62c50e9c1127f2cd403a315f,,,,,,,,,,,,,,,,,,,,,,,,,,,,,,,,,,,,,,,,,,,,,,,,,,,,,,,,,,,,,,,,,,,,,,,,,,,,,,,,,,,,,,,,,,,,,,,,,,,,,,,,,,,,,,,,,,,,,,,,,,,,,,,,,,,,,,,,,,,,,,,,,,,,,,,,,,,,,,,,,,,
0,32,32,12,1,,6084b716b457b6296f61778e,62c53a3dcbc302299560b855,2022-07-06_08h31.18.083,Colour_Asymmetry_Pilot,2022.1.3,MacIntel,60.0024001,62c50e9c1127f2cd403a315f,,,,,,,,,,,,,,,,,,,,,,,,,,,,,,,,,,,,,,,,,,,,,,,,,,,,,,,,,,,,,,,,,,,,,,,,,,,,,,,,,,,,,,,,,,,,,,,,,,,,,,,,,,,,,,,,,,,,,,,,,,,,,,,,,,,,,,,,,,,,,,,,,,,,,,,,,,,,,,,,,,,
0,33,33,50,1,,6084b716b457b6296f61778e,62c53a3dcbc302299560b855,2022-07-06_08h31.18.083,Colour_Asymmetry_Pilot,2022.1.3,MacIntel,60.0024001,62c50e9c1127f2cd403a315f,,,,,,,,,,,,,,,,,,,,,,,,,,,,,,,,,,,,,,,,,,,,,,,,,,,,,,,,,,,,,,,,,,,,,,,,,,,,,,,,,,,,,,,,,,,,,,,,,,,,,,,,,,,,,,,,,,,,,,,,,,,,,,,,,,,,,,,,,,,,,,,,,,,,,,,,,,,,,,,,,,,
0,34,34,82,1,,6084b716b457b6296f61778e,62c53a3dcbc302299560b855,2022-07-06_08h31.18.083,Colour_Asymmetry_Pilot,2022.1.3,MacIntel,60.0024001,62c50e9c1127f2cd403a315f,,,,,,,,,,,,,,,,,,,,,,,,,,,,,,,,,,,,,,,,,,,,,,,,,,,,,,,,,,,,,,,,,,,,,,,,,,,,,,,,,,,,,,,,,,,,,,,,,,,,,,,,,,,,,,,,,,,,,,,,,,,,,,,,,,,,,,,,,,,,,,,,,,,,,,,,,,,,,,,,,,,
0,35,35,56,1,,6084b716b457b6296f61778e,62c53a3dcbc302299560b855,2022-07-06_08h31.18.083,Colour_Asymmetry_Pilot,2022.1.3,MacIntel,60.0024001,62c50e9c1127f2cd403a315f,,,,,,,,,,,,,,,,,,,,,,,,,,,,,,,,,,,,,,,,,,,,,,,,,,,,,,,,,,,,,,,,,,,,,,,,,,,,,,,,,,,,,,,,,,,,,,,,,,,,,,,,,,,,,,,,,,,,,,,,,,,,,,,,,,,,,,,,,,,,,,,,,,,,,,,,,,,,,,,,,,,
0,36,36,38,1,,6084b716b457b6296f61778e,62c53a3dcbc302299560b855,2022-07-06_08h31.18.083,Colour_Asymmetry_Pilot,2022.1.3,MacIntel,60.0024001,62c50e9c1127f2cd403a315f,,,,,,,,,,,,,,,,,,,,,,,,,,,,,,,,,,,,,,,,,,,,,,,,,,,,,,,,,,,,,,,,,,,,,,,,,,,,,,,,,,,,,,,,,,,,,,,,,,,,,,,,,,,,,,,,,,,,,,,,,,,,,,,,,,,,,,,,,,,,,,,,,,,,,,,,,,,,,,,,,,,
0,37,37,16,1,,6084b716b457b6296f61778e,62c53a3dcbc302299560b855,2022-07-06_08h31.18.083,Colour_Asymmetry_Pilot,2022.1.3,MacIntel,60.0024001,62c50e9c1127f2cd403a315f,,,,,,,,,,,,,,,,,,,,,,,,,,,,,,,,,,,,,,,,,,,,,,,,,,,,,,,,,,,,,,,,,,,,,,,,,,,,,,,,,,,,,,,,,,,,,,,,,,,,,,,,,,,,,,,,,,,,,,,,,,,,,,,,,,,,,,,,,,,,,,,,,,,,,,,,,,,,,,,,,,,
0,38,38,51,1,,6084b716b457b6296f61778e,62c53a3dcbc302299560b855,2022-07-06_08h31.18.083,Colour_Asymmetry_Pilot,2022.1.3,MacIntel,60.0024001,62c50e9c1127f2cd403a315f,,,,,,,,,,,,,,,,,,,,,,,,,,,,,,,,,,,,,,,,,,,,,,,,,,,,,,,,,,,,,,,,,,,,,,,,,,,,,,,,,,,,,,,,,,,,,,,,,,,,,,,,,,,,,,,,,,,,,,,,,,,,,,,,,,,,,,,,,,,,,,,,,,,,,,,,,,,,,,,,,,,
0,39,39,91,1,,6084b716b457b6296f61778e,62c53a3dcbc302299560b855,2022-07-06_08h31.18.083,Colour_Asymmetry_Pilot,2022.1.3,MacIntel,60.0024001,62c50e9c1127f2cd403a315f,,,,,,,,,,,,,,,,,,,,,,,,,,,,,,,,,,,,,,,,,,,,,,,,,,,,,,,,,,,,,,,,,,,,,,,,,,,,,,,,,,,,,,,,,,,,,,,,,,,,,,,,,,,,,,,,,,,,,,,,,,,,,,,,,,,,,,,,,,,,,,,,,,,,,,,,,,,,,,,,,,,
0,40,40,10,1,,6084b716b457b6296f61778e,62c53a3dcbc302299560b855,2022-07-06_08h31.18.083,Colour_Asymmetry_Pilot,2022.1.3,MacIntel,60.0024001,62c50e9c1127f2cd403a315f,,,,,,,,,,,,,,,,,,,,,,,,,,,,,,,,,,,,,,,,,,,,,,,,,,,,,,,,,,,,,,,,,,,,,,,,,,,,,,,,,,,,,,,,,,,,,,,,,,,,,,,,,,,,,,,,,,,,,,,,,,,,,,,,,,,,,,,,,,,,,,,,,,,,,,,,,,,,,,,,,,,
0,41,41,62,1,,6084b716b457b6296f61778e,62c53a3dcbc302299560b855,2022-07-06_08h31.18.083,Colour_Asymmetry_Pilot,2022.1.3,MacIntel,60.0024001,62c50e9c1127f2cd403a315f,,,,,,,,,,,,,,,,,,,,,,,,,,,,,,,,,,,,,,,,,,,,,,,,,,,,,,,,,,,,,,,,,,,,,,,,,,,,,,,,,,,,,,,,,,,,,,,,,,,,,,,,,,,,,,,,,,,,,,,,,,,,,,,,,,,,,,,,,,,,,,,,,,,,,,,,,,,,,,,,,,,
0,42,42,70,1,,6084b716b457b6296f61778e,62c53a3dcbc302299560b855,2022-07-06_08h31.18.083,Colour_Asymmetry_Pilot,2022.1.3,MacIntel,60.0024001,62c50e9c1127f2cd403a315f,,,,,,,,,,,,,,,,,,,,,,,,,,,,,,,,,,,,,,,,,,,,,,,,,,,,,,,,,,,,,,,,,,,,,,,,,,,,,,,,,,,,,,,,,,,,,,,,,,,,,,,,,,,,,,,,,,,,,,,,,,,,,,,,,,,,,,,,,,,,,,,,,,,,,,,,,,,,,,,,,,,
0,43,43,47,1,,6084b716b457b6296f61778e,62c53a3dcbc302299560b855,2022-07-06_08h31.18.083,Colour_Asymmetry_Pilot,2022.1.3,MacIntel,60.0024001,62c50e9c1127f2cd403a315f,,,,,,,,,,,,,,,,,,,,,,,,,,,,,,,,,,,,,,,,,,,,,,,,,,,,,,,,,,,,,,,,,,,,,,,,,,,,,,,,,,,,,,,,,,,,,,,,,,,,,,,,,,,,,,,,,,,,,,,,,,,,,,,,,,,,,,,,,,,,,,,,,,,,,,,,,,,,,,,,,,,
0,44,44,69,1,,6084b716b457b6296f61778e,62c53a3dcbc302299560b855,2022-07-06_08h31.18.083,Colour_Asymmetry_Pilot,2022.1.3,MacIntel,60.0024001,62c50e9c1127f2cd403a315f,,,,,,,,,,,,,,,,,,,,,,,,,,,,,,,,,,,,,,,,,,,,,,,,,,,,,,,,,,,,,,,,,,,,,,,,,,,,,,,,,,,,,,,,,,,,,,,,,,,,,,,,,,,,,,,,,,,,,,,,,,,,,,,,,,,,,,,,,,,,,,,,,,,,,,,,,,,,,,,,,,,
0,45,45,32,1,,6084b716b457b6296f61778e,62c53a3dcbc302299560b855,2022-07-06_08h31.18.083,Colour_Asymmetry_Pilot,2022.1.3,MacIntel,60.0024001,62c50e9c1127f2cd403a315f,,,,,,,,,,,,,,,,,,,,,,,,,,,,,,,,,,,,,,,,,,,,,,,,,,,,,,,,,,,,,,,,,,,,,,,,,,,,,,,,,,,,,,,,,,,,,,,,,,,,,,,,,,,,,,,,,,,,,,,,,,,,,,,,,,,,,,,,,,,,,,,,,,,,,,,,,,,,,,,,,,,
0,46,46,54,1,,6084b716b457b6296f61778e,62c53a3dcbc302299560b855,2022-07-06_08h31.18.083,Colour_Asymmetry_Pilot,2022.1.3,MacIntel,60.0024001,62c50e9c1127f2cd403a315f,,,,,,,,,,,,,,,,,,,,,,,,,,,,,,,,,,,,,,,,,,,,,,,,,,,,,,,,,,,,,,,,,,,,,,,,,,,,,,,,,,,,,,,,,,,,,,,,,,,,,,,,,,,,,,,,,,,,,,,,,,,,,,,,,,,,,,,,,,,,,,,,,,,,,,,,,,,,,,,,,,,
0,47,47,77,1,,6084b716b457b6296f61778e,62c53a3dcbc302299560b855,2022-07-06_08h31.18.083,Colour_Asymmetry_Pilot,2022.1.3,MacIntel,60.0024001,62c50e9c1127f2cd403a315f,,,,,,,,,,,,,,,,,,,,,,,,,,,,,,,,,,,,,,,,,,,,,,,,,,,,,,,,,,,,,,,,,,,,,,,,,,,,,,,,,,,,,,,,,,,,,,,,,,,,,,,,,,,,,,,,,,,,,,,,,,,,,,,,,,,,,,,,,,,,,,,,,,,,,,,,,,,,,,,,,,,
0,48,48,24,1,,6084b716b457b6296f61778e,62c53a3dcbc302299560b855,2022-07-06_08h31.18.083,Colour_Asymmetry_Pilot,2022.1.3,MacIntel,60.0024001,62c50e9c1127f2cd403a315f,,,,,,,,,,,,,,,,,,,,,,,,,,,,,,,,,,,,,,,,,,,,,,,,,,,,,,,,,,,,,,,,,,,,,,,,,,,,,,,,,,,,,,,,,,,,,,,,,,,,,,,,,,,,,,,,,,,,,,,,,,,,,,,,,,,,,,,,,,,,,,,,,,,,,,,,,,,,,,,,,,,
0,49,49,87,1,,6084b716b457b6296f61778e,62c53a3dcbc302299560b855,2022-07-06_08h31.18.083,Colour_Asymmetry_Pilot,2022.1.3,MacIntel,60.0024001,62c50e9c1127f2cd403a315f,,,,,,,,,,,,,,,,,,,,,,,,,,,,,,,,,,,,,,,,,,,,,,,,,,,,,,,,,,,,,,,,,,,,,,,,,,,,,,,,,,,,,,,,,,,,,,,,,,,,,,,,,,,,,,,,,,,,,,,,,,,,,,,,,,,,,,,,,,,,,,,,,,,,,,,,,,,,,,,,,,,
0,50,50,55,1,,6084b716b457b6296f61778e,62c53a3dcbc302299560b855,2022-07-06_08h31.18.083,Colour_Asymmetry_Pilot,2022.1.3,MacIntel,60.0024001,62c50e9c1127f2cd403a315f,,,,,,,,,,,,,,,,,,,,,,,,,,,,,,,,,,,,,,,,,,,,,,,,,,,,,,,,,,,,,,,,,,,,,,,,,,,,,,,,,,,,,,,,,,,,,,,,,,,,,,,,,,,,,,,,,,,,,,,,,,,,,,,,,,,,,,,,,,,,,,,,,,,,,,,,,,,,,,,,,,,
0,51,51,22,1,,6084b716b457b6296f61778e,62c53a3dcbc302299560b855,2022-07-06_08h31.18.083,Colour_Asymmetry_Pilot,2022.1.3,MacIntel,60.0024001,62c50e9c1127f2cd403a315f,,,,,,,,,,,,,,,,,,,,,,,,,,,,,,,,,,,,,,,,,,,,,,,,,,,,,,,,,,,,,,,,,,,,,,,,,,,,,,,,,,,,,,,,,,,,,,,,,,,,,,,,,,,,,,,,,,,,,,,,,,,,,,,,,,,,,,,,,,,,,,,,,,,,,,,,,,,,,,,,,,,
0,52,52,13,1,,6084b716b457b6296f61778e,62c53a3dcbc302299560b855,2022-07-06_08h31.18.083,Colour_Asymmetry_Pilot,2022.1.3,MacIntel,60.0024001,62c50e9c1127f2cd403a315f,,,,,,,,,,,,,,,,,,,,,,,,,,,,,,,,,,,,,,,,,,,,,,,,,,,,,,,,,,,,,,,,,,,,,,,,,,,,,,,,,,,,,,,,,,,,,,,,,,,,,,,,,,,,,,,,,,,,,,,,,,,,,,,,,,,,,,,,,,,,,,,,,,,,,,,,,,,,,,,,,,,
0,53,53,7,1,,6084b716b457b6296f61778e,62c53a3dcbc302299560b855,2022-07-06_08h31.18.083,Colour_Asymmetry_Pilot,2022.1.3,MacIntel,60.0024001,62c50e9c1127f2cd403a315f,,,,,,,,,,,,,,,,,,,,,,,,,,,,,,,,,,,,,,,,,,,,,,,,,,,,,,,,,,,,,,,,,,,,,,,,,,,,,,,,,,,,,,,,,,,,,,,,,,,,,,,,,,,,,,,,,,,,,,,,,,,,,,,,,,,,,,,,,,,,,,,,,,,,,,,,,,,,,,,,,,,
0,54,54,46,1,,6084b716b457b6296f61778e,62c53a3dcbc302299560b855,2022-07-06_08h31.18.083,Colour_Asymmetry_Pilot,2022.1.3,MacIntel,60.0024001,62c50e9c1127f2cd403a315f,,,,,,,,,,,,,,,,,,,,,,,,,,,,,,,,,,,,,,,,,,,,,,,,,,,,,,,,,,,,,,,,,,,,,,,,,,,,,,,,,,,,,,,,,,,,,,,,,,,,,,,,,,,,,,,,,,,,,,,,,,,,,,,,,,,,,,,,,,,,,,,,,,,,,,,,,,,,,,,,,,,
0,55,55,43,1,,6084b716b457b6296f61778e,62c53a3dcbc302299560b855,2022-07-06_08h31.18.083,Colour_Asymmetry_Pilot,2022.1.3,MacIntel,60.0024001,62c50e9c1127f2cd403a315f,,,,,,,,,,,,,,,,,,,,,,,,,,,,,,,,,,,,,,,,,,,,,,,,,,,,,,,,,,,,,,,,,,,,,,,,,,,,,,,,,,,,,,,,,,,,,,,,,,,,,,,,,,,,,,,,,,,,,,,,,,,,,,,,,,,,,,,,,,,,,,,,,,,,,,,,,,,,,,,,,,,
0,56,56,61,1,,6084b716b457b6296f61778e,62c53a3dcbc302299560b855,2022-07-06_08h31.18.083,Colour_Asymmetry_Pilot,2022.1.3,MacIntel,60.0024001,62c50e9c1127f2cd403a315f,,,,,,,,,,,,,,,,,,,,,,,,,,,,,,,,,,,,,,,,,,,,,,,,,,,,,,,,,,,,,,,,,,,,,,,,,,,,,,,,,,,,,,,,,,,,,,,,,,,,,,,,,,,,,,,,,,,,,,,,,,,,,,,,,,,,,,,,,,,,,,,,,,,,,,,,,,,,,,,,,,,
0,57,57,88,1,,6084b716b457b6296f61778e,62c53a3dcbc302299560b855,2022-07-06_08h31.18.083,Colour_Asymmetry_Pilot,2022.1.3,MacIntel,60.0024001,62c50e9c1127f2cd403a315f,,,,,,,,,,,,,,,,,,,,,,,,,,,,,,,,,,,,,,,,,,,,,,,,,,,,,,,,,,,,,,,,,,,,,,,,,,,,,,,,,,,,,,,,,,,,,,,,,,,,,,,,,,,,,,,,,,,,,,,,,,,,,,,,,,,,,,,,,,,,,,,,,,,,,,,,,,,,,,,,,,,
0,58,58,52,1,,6084b716b457b6296f61778e,62c53a3dcbc302299560b855,2022-07-06_08h31.18.083,Colour_Asymmetry_Pilot,2022.1.3,MacIntel,60.0024001,62c50e9c1127f2cd403a315f,,,,,,,,,,,,,,,,,,,,,,,,,,,,,,,,,,,,,,,,,,,,,,,,,,,,,,,,,,,,,,,,,,,,,,,,,,,,,,,,,,,,,,,,,,,,,,,,,,,,,,,,,,,,,,,,,,,,,,,,,,,,,,,,,,,,,,,,,,,,,,,,,,,,,,,,,,,,,,,,,,,
0,59,59,86,1,,6084b716b457b6296f61778e,62c53a3dcbc302299560b855,2022-07-06_08h31.18.083,Colour_Asymmetry_Pilot,2022.1.3,MacIntel,60.0024001,62c50e9c1127f2cd403a315f,,,,,,,,,,,,,,,,,,,,,,,,,,,,,,,,,,,,,,,,,,,,,,,,,,,,,,,,,,,,,,,,,,,,,,,,,,,,,,,,,,,,,,,,,,,,,,,,,,,,,,,,,,,,,,,,,,,,,,,,,,,,,,,,,,,,,,,,,,,,,,,,,,,,,,,,,,,,,,,,,,,
0,60,60,71,1,,6084b716b457b6296f61778e,62c53a3dcbc302299560b855,2022-07-06_08h31.18.083,Colour_Asymmetry_Pilot,2022.1.3,MacIntel,60.0024001,62c50e9c1127f2cd403a315f,,,,,,,,,,,,,,,,,,,,,,,,,,,,,,,,,,,,,,,,,,,,,,,,,,,,,,,,,,,,,,,,,,,,,,,,,,,,,,,,,,,,,,,,,,,,,,,,,,,,,,,,,,,,,,,,,,,,,,,,,,,,,,,,,,,,,,,,,,,,,,,,,,,,,,,,,,,,,,,,,,,
0,61,61,44,1,,6084b716b457b6296f61778e,62c53a3dcbc302299560b855,2022-07-06_08h31.18.083,Colour_Asymmetry_Pilot,2022.1.3,MacIntel,60.0024001,62c50e9c1127f2cd403a315f,,,,,,,,,,,,,,,,,,,,,,,,,,,,,,,,,,,,,,,,,,,,,,,,,,,,,,,,,,,,,,,,,,,,,,,,,,,,,,,,,,,,,,,,,,,,,,,,,,,,,,,,,,,,,,,,,,,,,,,,,,,,,,,,,,,,,,,,,,,,,,,,,,,,,,,,,,,,,,,,,,,
0,62,62,49,1,,6084b716b457b6296f61778e,62c53a3dcbc302299560b855,2022-07-06_08h31.18.083,Colour_Asymmetry_Pilot,2022.1.3,MacIntel,60.0024001,62c50e9c1127f2cd403a315f,,,,,,,,,,,,,,,,,,,,,,,,,,,,,,,,,,,,,,,,,,,,,,,,,,,,,,,,,,,,,,,,,,,,,,,,,,,,,,,,,,,,,,,,,,,,,,,,,,,,,,,,,,,,,,,,,,,,,,,,,,,,,,,,,,,,,,,,,,,,,,,,,,,,,,,,,,,,,,,,,,,
0,63,63,64,1,,6084b716b457b6296f61778e,62c53a3dcbc302299560b855,2022-07-06_08h31.18.083,Colour_Asymmetry_Pilot,2022.1.3,MacIntel,60.0024001,62c50e9c1127f2cd403a315f,,,,,,,,,,,,,,,,,,,,,,,,,,,,,,,,,,,,,,,,,,,,,,,,,,,,,,,,,,,,,,,,,,,,,,,,,,,,,,,,,,,,,,,,,,,,,,,,,,,,,,,,,,,,,,,,,,,,,,,,,,,,,,,,,,,,,,,,,,,,,,,,,,,,,,,,,,,,,,,,,,,
0,64,64,21,1,,6084b716b457b6296f61778e,62c53a3dcbc302299560b855,2022-07-06_08h31.18.083,Colour_Asymmetry_Pilot,2022.1.3,MacIntel,60.0024001,62c50e9c1127f2cd403a315f,,,,,,,,,,,,,,,,,,,,,,,,,,,,,,,,,,,,,,,,,,,,,,,,,,,,,,,,,,,,,,,,,,,,,,,,,,,,,,,,,,,,,,,,,,,,,,,,,,,,,,,,,,,,,,,,,,,,,,,,,,,,,,,,,,,,,,,,,,,,,,,,,,,,,,,,,,,,,,,,,,,
0,65,65,81,1,,6084b716b457b6296f61778e,62c53a3dcbc302299560b855,2022-07-06_08h31.18.083,Colour_Asymmetry_Pilot,2022.1.3,MacIntel,60.0024001,62c50e9c1127f2cd403a315f,,,,,,,,,,,,,,,,,,,,,,,,,,,,,,,,,,,,,,,,,,,,,,,,,,,,,,,,,,,,,,,,,,,,,,,,,,,,,,,,,,,,,,,,,,,,,,,,,,,,,,,,,,,,,,,,,,,,,,,,,,,,,,,,,,,,,,,,,,,,,,,,,,,,,,,,,,,,,,,,,,,
0,66,66,35,1,,6084b716b457b6296f61778e,62c53a3dcbc302299560b855,2022-07-06_08h31.18.083,Colour_Asymmetry_Pilot,2022.1.3,MacIntel,60.0024001,62c50e9c1127f2cd403a315f,,,,,,,,,,,,,,,,,,,,,,,,,,,,,,,,,,,,,,,,,,,,,,,,,,,,,,,,,,,,,,,,,,,,,,,,,,,,,,,,,,,,,,,,,,,,,,,,,,,,,,,,,,,,,,,,,,,,,,,,,,,,,,,,,,,,,,,,,,,,,,,,,,,,,,,,,,,,,,,,,,,
0,67,67,0,1,,6084b716b457b6296f61778e,62c53a3dcbc302299560b855,2022-07-06_08h31.18.083,Colour_Asymmetry_Pilot,2022.1.3,MacIntel,60.0024001,62c50e9c1127f2cd403a315f,,,,,,,,,,,,,,,,,,,,,,,,,,,,,,,,,,,,,,,,,,,,,,,,,,,,,,,,,,,,,,,,,,,,,,,,,,,,,,,,,,,,,,,,,,,,,,,,,,,,,,,,,,,,,,,,,,,,,,,,,,,,,,,,,,,,,,,,,,,,,,,,,,,,,,,,,,,,,,,,,,,
0,68,68,45,1,,6084b716b457b6296f61778e,62c53a3dcbc302299560b855,2022-07-06_08h31.18.083,Colour_Asymmetry_Pilot,2022.1.3,MacIntel,60.0024001,62c50e9c1127f2cd403a315f,,,,,,,,,,,,,,,,,,,,,,,,,,,,,,,,,,,,,,,,,,,,,,,,,,,,,,,,,,,,,,,,,,,,,,,,,,,,,,,,,,,,,,,,,,,,,,,,,,,,,,,,,,,,,,,,,,,,,,,,,,,,,,,,,,,,,,,,,,,,,,,,,,,,,,,,,,,,,,,,,,,
0,69,69,37,1,,6084b716b457b6296f61778e,62c53a3dcbc302299560b855,2022-07-06_08h31.18.083,Colour_Asymmetry_Pilot,2022.1.3,MacIntel,60.0024001,62c50e9c1127f2cd403a315f,,,,,,,,,,,,,,,,,,,,,,,,,,,,,,,,,,,,,,,,,,,,,,,,,,,,,,,,,,,,,,,,,,,,,,,,,,,,,,,,,,,,,,,,,,,,,,,,,,,,,,,,,,,,,,,,,,,,,,,,,,,,,,,,,,,,,,,,,,,,,,,,,,,,,,,,,,,,,,,,,,,
0,70,70,59,1,,6084b716b457b6296f61778e,62c53a3dcbc302299560b855,2022-07-06_08h31.18.083,Colour_Asymmetry_Pilot,2022.1.3,MacIntel,60.0024001,62c50e9c1127f2cd403a315f,,,,,,,,,,,,,,,,,,,,,,,,,,,,,,,,,,,,,,,,,,,,,,,,,,,,,,,,,,,,,,,,,,,,,,,,,,,,,,,,,,,,,,,,,,,,,,,,,,,,,,,,,,,,,,,,,,,,,,,,,,,,,,,,,,,,,,,,,,,,,,,,,,,,,,,,,,,,,,,,,,,
0,71,71,1,1,,6084b716b457b6296f61778e,62c53a3dcbc302299560b855,2022-07-06_08h31.18.083,Colour_Asymmetry_Pilot,2022.1.3,MacIntel,60.0024001,62c50e9c1127f2cd403a315f,,,,,,,,,,,,,,,,,,,,,,,,,,,,,,,,,,,,,,,,,,,,,,,,,,,,,,,,,,,,,,,,,,,,,,,,,,,,,,,,,,,,,,,,,,,,,,,,,,,,,,,,,,,,,,,,,,,,,,,,,,,,,,,,,,,,,,,,,,,,,,,,,,,,,,,,,,,,,,,,,,,
0,72,72,5,1,,6084b716b457b6296f61778e,62c53a3dcbc302299560b855,2022-07-06_08h31.18.083,Colour_Asymmetry_Pilot,2022.1.3,MacIntel,60.0024001,62c50e9c1127f2cd403a315f,,,,,,,,,,,,,,,,,,,,,,,,,,,,,,,,,,,,,,,,,,,,,,,,,,,,,,,,,,,,,,,,,,,,,,,,,,,,,,,,,,,,,,,,,,,,,,,,,,,,,,,,,,,,,,,,,,,,,,,,,,,,,,,,,,,,,,,,,,,,,,,,,,,,,,,,,,,,,,,,,,,
0,73,73,58,1,,6084b716b457b6296f61778e,62c53a3dcbc302299560b855,2022-07-06_08h31.18.083,Colour_Asymmetry_Pilot,2022.1.3,MacIntel,60.0024001,62c50e9c1127f2cd403a315f,,,,,,,,,,,,,,,,,,,,,,,,,,,,,,,,,,,,,,,,,,,,,,,,,,,,,,,,,,,,,,,,,,,,,,,,,,,,,,,,,,,,,,,,,,,,,,,,,,,,,,,,,,,,,,,,,,,,,,,,,,,,,,,,,,,,,,,,,,,,,,,,,,,,,,,,,,,,,,,,,,,
0,74,74,73,1,,6084b716b457b6296f61778e,62c53a3dcbc302299560b855,2022-07-06_08h31.18.083,Colour_Asymmetry_Pilot,2022.1.3,MacIntel,60.0024001,62c50e9c1127f2cd403a315f,,,,,,,,,,,,,,,,,,,,,,,,,,,,,,,,,,,,,,,,,,,,,,,,,,,,,,,,,,,,,,,,,,,,,,,,,,,,,,,,,,,,,,,,,,,,,,,,,,,,,,,,,,,,,,,,,,,,,,,,,,,,,,,,,,,,,,,,,,,,,,,,,,,,,,,,,,,,,,,,,,,
0,75,75,92,1,,6084b716b457b6296f61778e,62c53a3dcbc302299560b855,2022-07-06_08h31.18.083,Colour_Asymmetry_Pilot,2022.1.3,MacIntel,60.0024001,62c50e9c1127f2cd403a315f,,,,,,,,,,,,,,,,,,,,,,,,,,,,,,,,,,,,,,,,,,,,,,,,,,,,,,,,,,,,,,,,,,,,,,,,,,,,,,,,,,,,,,,,,,,,,,,,,,,,,,,,,,,,,,,,,,,,,,,,,,,,,,,,,,,,,,,,,,,,,,,,,,,,,,,,,,,,,,,,,,,
0,76,76,9,1,,6084b716b457b6296f61778e,62c53a3dcbc302299560b855,2022-07-06_08h31.18.083,Colour_Asymmetry_Pilot,2022.1.3,MacIntel,60.0024001,62c50e9c1127f2cd403a315f,,,,,,,,,,,,,,,,,,,,,,,,,,,,,,,,,,,,,,,,,,,,,,,,,,,,,,,,,,,,,,,,,,,,,,,,,,,,,,,,,,,,,,,,,,,,,,,,,,,,,,,,,,,,,,,,,,,,,,,,,,,,,,,,,,,,,,,,,,,,,,,,,,,,,,,,,,,,,,,,,,,
0,77,77,33,1,,6084b716b457b6296f61778e,62c53a3dcbc302299560b855,2022-07-06_08h31.18.083,Colour_Asymmetry_Pilot,2022.1.3,MacIntel,60.0024001,62c50e9c1127f2cd403a315f,,,,,,,,,,,,,,,,,,,,,,,,,,,,,,,,,,,,,,,,,,,,,,,,,,,,,,,,,,,,,,,,,,,,,,,,,,,,,,,,,,,,,,,,,,,,,,,,,,,,,,,,,,,,,,,,,,,,,,,,,,,,,,,,,,,,,,,,,,,,,,,,,,,,,,,,,,,,,,,,,,,
0,78,78,68,1,,6084b716b457b6296f61778e,62c53a3dcbc302299560b855,2022-07-06_08h31.18.083,Colour_Asymmetry_Pilot,2022.1.3,MacIntel,60.0024001,62c50e9c1127f2cd403a315f,,,,,,,,,,,,,,,,,,,,,,,,,,,,,,,,,,,,,,,,,,,,,,,,,,,,,,,,,,,,,,,,,,,,,,,,,,,,,,,,,,,,,,,,,,,,,,,,,,,,,,,,,,,,,,,,,,,,,,,,,,,,,,,,,,,,,,,,,,,,,,,,,,,,,,,,,,,,,,,,,,,
0,79,79,26,1,,6084b716b457b6296f61778e,62c53a3dcbc302299560b855,2022-07-06_08h31.18.083,Colour_Asymmetry_Pilot,2022.1.3,MacIntel,60.0024001,62c50e9c1127f2cd403a315f,,,,,,,,,,,,,,,,,,,,,,,,,,,,,,,,,,,,,,,,,,,,,,,,,,,,,,,,,,,,,,,,,,,,,,,,,,,,,,,,,,,,,,,,,,,,,,,,,,,,,,,,,,,,,,,,,,,,,,,,,,,,,,,,,,,,,,,,,,,,,,,,,,,,,,,,,,,,,,,,,,,
0,80,80,17,1,,6084b716b457b6296f61778e,62c53a3dcbc302299560b855,2022-07-06_08h31.18.083,Colour_Asymmetry_Pilot,2022.1.3,MacIntel,60.0024001,62c50e9c1127f2cd403a315f,,,,,,,,,,,,,,,,,,,,,,,,,,,,,,,,,,,,,,,,,,,,,,,,,,,,,,,,,,,,,,,,,,,,,,,,,,,,,,,,,,,,,,,,,,,,,,,,,,,,,,,,,,,,,,,,,,,,,,,,,,,,,,,,,,,,,,,,,,,,,,,,,,,,,,,,,,,,,,,,,,,
0,81,81,67,1,,6084b716b457b6296f61778e,62c53a3dcbc302299560b855,2022-07-06_08h31.18.083,Colour_Asymmetry_Pilot,2022.1.3,MacIntel,60.0024001,62c50e9c1127f2cd403a315f,,,,,,,,,,,,,,,,,,,,,,,,,,,,,,,,,,,,,,,,,,,,,,,,,,,,,,,,,,,,,,,,,,,,,,,,,,,,,,,,,,,,,,,,,,,,,,,,,,,,,,,,,,,,,,,,,,,,,,,,,,,,,,,,,,,,,,,,,,,,,,,,,,,,,,,,,,,,,,,,,,,
0,82,82,14,1,,6084b716b457b6296f61778e,62c53a3dcbc302299560b855,2022-07-06_08h31.18.083,Colour_Asymmetry_Pilot,2022.1.3,MacIntel,60.0024001,62c50e9c1127f2cd403a315f,,,,,,,,,,,,,,,,,,,,,,,,,,,,,,,,,,,,,,,,,,,,,,,,,,,,,,,,,,,,,,,,,,,,,,,,,,,,,,,,,,,,,,,,,,,,,,,,,,,,,,,,,,,,,,,,,,,,,,,,,,,,,,,,,,,,,,,,,,,,,,,,,,,,,,,,,,,,,,,,,,,
0,83,83,60,1,,6084b716b457b6296f61778e,62c53a3dcbc302299560b855,2022-07-06_08h31.18.083,Colour_Asymmetry_Pilot,2022.1.3,MacIntel,60.0024001,62c50e9c1127f2cd403a315f,,,,,,,,,,,,,,,,,,,,,,,,,,,,,,,,,,,,,,,,,,,,,,,,,,,,,,,,,,,,,,,,,,,,,,,,,,,,,,,,,,,,,,,,,,,,,,,,,,,,,,,,,,,,,,,,,,,,,,,,,,,,,,,,,,,,,,,,,,,,,,,,,,,,,,,,,,,,,,,,,,,
0,84,84,74,1,,6084b716b457b6296f61778e,62c53a3dcbc302299560b855,2022-07-06_08h31.18.083,Colour_Asymmetry_Pilot,2022.1.3,MacIntel,60.0024001,62c50e9c1127f2cd403a315f,,,,,,,,,,,,,,,,,,,,,,,,,,,,,,,,,,,,,,,,,,,,,,,,,,,,,,,,,,,,,,,,,,,,,,,,,,,,,,,,,,,,,,,,,,,,,,,,,,,,,,,,,,,,,,,,,,,,,,,,,,,,,,,,,,,,,,,,,,,,,,,,,,,,,,,,,,,,,,,,,,,
0,85,85,41,1,,6084b716b457b6296f61778e,62c53a3dcbc302299560b855,2022-07-06_08h31.18.083,Colour_Asymmetry_Pilot,2022.1.3,MacIntel,60.0024001,62c50e9c1127f2cd403a315f,,,,,,,,,,,,,,,,,,,,,,,,,,,,,,,,,,,,,,,,,,,,,,,,,,,,,,,,,,,,,,,,,,,,,,,,,,,,,,,,,,,,,,,,,,,,,,,,,,,,,,,,,,,,,,,,,,,,,,,,,,,,,,,,,,,,,,,,,,,,,,,,,,,,,,,,,,,,,,,,,,,
0,86,86,65,1,,6084b716b457b6296f61778e,62c53a3dcbc302299560b855,2022-07-06_08h31.18.083,Colour_Asymmetry_Pilot,2022.1.3,MacIntel,60.0024001,62c50e9c1127f2cd403a315f,,,,,,,,,,,,,,,,,,,,,,,,,,,,,,,,,,,,,,,,,,,,,,,,,,,,,,,,,,,,,,,,,,,,,,,,,,,,,,,,,,,,,,,,,,,,,,,,,,,,,,,,,,,,,,,,,,,,,,,,,,,,,,,,,,,,,,,,,,,,,,,,,,,,,,,,,,,,,,,,,,,
0,87,87,36,1,,6084b716b457b6296f61778e,62c53a3dcbc302299560b855,2022-07-06_08h31.18.083,Colour_Asymmetry_Pilot,2022.1.3,MacIntel,60.0024001,62c50e9c1127f2cd403a315f,,,,,,,,,,,,,,,,,,,,,,,,,,,,,,,,,,,,,,,,,,,,,,,,,,,,,,,,,,,,,,,,,,,,,,,,,,,,,,,,,,,,,,,,,,,,,,,,,,,,,,,,,,,,,,,,,,,,,,,,,,,,,,,,,,,,,,,,,,,,,,,,,,,,,,,,,,,,,,,,,,,
0,88,88,76,1,,6084b716b457b6296f61778e,62c53a3dcbc302299560b855,2022-07-06_08h31.18.083,Colour_Asymmetry_Pilot,2022.1.3,MacIntel,60.0024001,62c50e9c1127f2cd403a315f,,,,,,,,,,,,,,,,,,,,,,,,,,,,,,,,,,,,,,,,,,,,,,,,,,,,,,,,,,,,,,,,,,,,,,,,,,,,,,,,,,,,,,,,,,,,,,,,,,,,,,,,,,,,,,,,,,,,,,,,,,,,,,,,,,,,,,,,,,,,,,,,,,,,,,,,,,,,,,,,,,,
0,89,89,2,1,,6084b716b457b6296f61778e,62c53a3dcbc302299560b855,2022-07-06_08h31.18.083,Colour_Asymmetry_Pilot,2022.1.3,MacIntel,60.0024001,62c50e9c1127f2cd403a315f,,,,,,,,,,,,,,,,,,,,,,,,,,,,,,,,,,,,,,,,,,,,,,,,,,,,,,,,,,,,,,,,,,,,,,,,,,,,,,,,,,,,,,,,,,,,,,,,,,,,,,,,,,,,,,,,,,,,,,,,,,,,,,,,,,,,,,,,,,,,,,,,,,,,,,,,,,,,,,,,,,,
0,90,90,28,1,,6084b716b457b6296f61778e,62c53a3dcbc302299560b855,2022-07-06_08h31.18.083,Colour_Asymmetry_Pilot,2022.1.3,MacIntel,60.0024001,62c50e9c1127f2cd403a315f,,,,,,,,,,,,,,,,,,,,,,,,,,,,,,,,,,,,,,,,,,,,,,,,,,,,,,,,,,,,,,,,,,,,,,,,,,,,,,,,,,,,,,,,,,,,,,,,,,,,,,,,,,,,,,,,,,,,,,,,,,,,,,,,,,,,,,,,,,,,,,,,,,,,,,,,,,,,,,,,,,,
0,91,91,30,1,,6084b716b457b6296f61778e,62c53a3dcbc302299560b855,2022-07-06_08h31.18.083,Colour_Asymmetry_Pilot,2022.1.3,MacIntel,60.0024001,62c50e9c1127f2cd403a315f,,,,,,,,,,,,,,,,,,,,,,,,,,,,,,,,,,,,,,,,,,,,,,,,,,,,,,,,,,,,,,,,,,,,,,,,,,,,,,,,,,,,,,,,,,,,,,,,,,,,,,,,,,,,,,,,,,,,,,,,,,,,,,,,,,,,,,,,,,,,,,,,,,,,,,,,,,,,,,,,,,,
0,92,92,8,1,,6084b716b457b6296f61778e,62c53a3dcbc302299560b855,2022-07-06_08h31.18.083,Colour_Asymmetry_Pilot,2022.1.3,MacIntel,60.0024001,62c50e9c1127f2cd403a315f,,,,,,,,,,,,,,,,,,,,,,,,,,,,,,,,,,,,,,,,,,,,,,,,,,,,,,,,,,,,,,,,,,,,,,,,,,,,,,,,,,,,,,,,,,,,,,,,,,,,,,,,,,,,,,,,,,,,,,,,,,,,,,,,,,,,,,,,,,,,,,,,,,,,,,,,,,,,,,,,,,,
,,,,,,6084b716b457b6296f61778e,62c53a3dcbc302299560b855,2022-07-06_08h31.18.083,Colour_Asymmetry_Pilot,2022.1.3,MacIntel,60.0024001,62c50e9c1127f2cd403a315f,0,0,0,140,1,threeone,,,,,,,,,,,,,,,,,,,,,,,,,,,,,,,,,,,,,,,,,,,,,,,,,,,,,,,,,,,,,,,,,,,,,,,,,,,,,,,,,,,,,,,,,,,,,,,,,,,,,,,,,,,,,,,,,,,,,,,,,,,,,,,,,,,,,,,,,,,,,,,,,,,,,,,,,,,,,
,,,,,,6084b716b457b6296f61778e,62c53a3dcbc302299560b855,2022-07-06_08h31.18.083,Colour_Asymmetry_Pilot,2022.1.3,MacIntel,60.0024001,62c50e9c1127f2cd403a315f,0,1,1,103,1,fourthree,,,,,,,,,,,,,,,,,,,,,,,,,,,,,,,,,,,,,,,,,,,,,,,,,,,,,,,,,,,,,,,,,,,,,,,,,,,,,,,,,,,,,,,,,,,,,,,,,,,,,,,,,,,,,,,,,,,,,,,,,,,,,,,,,,,,,,,,,,,,,,,,,,,,,,,,,,,,,
,,,,,,6084b716b457b6296f61778e,62c53a3dcbc302299560b855,2022-07-06_08h31.18.083,Colour_Asymmetry_Pilot,2022.1.3,MacIntel,60.0024001,62c50e9c1127f2cd403a315f,0,2,2,68,1,threeone,,,,,,,,,,,,,,,,,,,,,,,,,,,,,,,,,,,,,,,,,,,,,,,,,,,,,,,,,,,,,,,,,,,,,,,,,,,,,,,,,,,,,,,,,,,,,,,,,,,,,,,,,,,,,,,,,,,,,,,,,,,,,,,,,,,,,,,,,,,,,,,,,,,,,,,,,,,,,
,,,,,,6084b716b457b6296f61778e,62c53a3dcbc302299560b855,2022-07-06_08h31.18.083,Colour_Asymmetry_Pilot,2022.1.3,MacIntel,60.0024001,62c50e9c1127f2cd403a315f,0,3,3,52,1,threeone,,,,,,,,,,,,,,,,,,,,,,,,,,,,,,,,,,,,,,,,,,,,,,,,,,,,,,,,,,,,,,,,,,,,,,,,,,,,,,,,,,,,,,,,,,,,,,,,,,,,,,,,,,,,,,,,,,,,,,,,,,,,,,,,,,,,,,,,,,,,,,,,,,,,,,,,,,,,,
,,,,,,6084b716b457b6296f61778e,62c53a3dcbc302299560b855,2022-07-06_08h31.18.083,Colour_Asymmetry_Pilot,2022.1.3,MacIntel,60.0024001,62c50e9c1127f2cd403a315f,0,4,4,82,1,twoone,,,,,,,,,,,,,,,,,,,,,,,,,,,,,,,,,,,,,,,,,,,,,,,,,,,,,,,,,,,,,,,,,,,,,,,,,,,,,,,,,,,,,,,,,,,,,,,,,,,,,,,,,,,,,,,,,,,,,,,,,,,,,,,,,,,,,,,,,,,,,,,,,,,,,,,,,,,,,
,,,,,,6084b716b457b6296f61778e,62c53a3dcbc302299560b855,2022-07-06_08h31.18.083,Colour_Asymmetry_Pilot,2022.1.3,MacIntel,60.0024001,62c50e9c1127f2cd403a315f,0,5,5,78,1,fourtwo,,,,,,,,,,,,,,,,,,,,,,,,,,,,,,,,,,,,,,,,,,,,,,,,,,,,,,,,,,,,,,,,,,,,,,,,,,,,,,,,,,,,,,,,,,,,,,,,,,,,,,,,,,,,,,,,,,,,,,,,,,,,,,,,,,,,,,,,,,,,,,,,,,,,,,,,,,,,,
,,,,,,6084b716b457b6296f61778e,62c53a3dcbc302299560b855,2022-07-06_08h31.18.083,Colour_Asymmetry_Pilot,2022.1.3,MacIntel,60.0024001,62c50e9c1127f2cd403a315f,0,6,6,49,1,onethree,,,,,,,,,,,,,,,,,,,,,,,,,,,,,,,,,,,,,,,,,,,,,,,,,,,,,,,,,,,,,,,,,,,,,,,,,,,,,,,,,,,,,,,,,,,,,,,,,,,,,,,,,,,,,,,,,,,,,,,,,,,,,,,,,,,,,,,,,,,,,,,,,,,,,,,,,,,,,
,,,,,,6084b716b457b6296f61778e,62c53a3dcbc302299560b855,2022-07-06_08h31.18.083,Colour_Asymmetry_Pilot,2022.1.3,MacIntel,60.0024001,62c50e9c1127f2cd403a315f,0,7,7,43,1,twofour,,,,,,,,,,,,,,,,,,,,,,,,,,,,,,,,,,,,,,,,,,,,,,,,,,,,,,,,,,,,,,,,,,,,,,,,,,,,,,,,,,,,,,,,,,,,,,,,,,,,,,,,,,,,,,,,,,,,,,,,,,,,,,,,,,,,,,,,,,,,,,,,,,,,,,,,,,,,,
,,,,,,6084b716b457b6296f61778e,62c53a3dcbc302299560b855,2022-07-06_08h31.18.083,Colour_Asymmetry_Pilot,2022.1.3,MacIntel,60.0024001,62c50e9c1127f2cd403a315f,0,8,8,99,1,twofour,,,,,,,,,,,,,,,,,,,,,,,,,,,,,,,,,,,,,,,,,,,,,,,,,,,,,,,,,,,,,,,,,,,,,,,,,,,,,,,,,,,,,,,,,,,,,,,,,,,,,,,,,,,,,,,,,,,,,,,,,,,,,,,,,,,,,,,,,,,,,,,,,,,,,,,,,,,,,
,,,,,,6084b716b457b6296f61778e,62c53a3dcbc302299560b855,2022-07-06_08h31.18.083,Colour_Asymmetry_Pilot,2022.1.3,MacIntel,60.0024001,62c50e9c1127f2cd403a315f,0,9,9,40,1,onetwo,,,,,,,,,,,,,,,,,,,,,,,,,,,,,,,,,,,,,,,,,,,,,,,,,,,,,,,,,,,,,,,,,,,,,,,,,,,,,,,,,,,,,,,,,,,,,,,,,,,,,,,,,,,,,,,,,,,,,,,,,,,,,,,,,,,,,,,,,,,,,,,,,,,,,,,,,,,,,
,,,,,,6084b716b457b6296f61778e,62c53a3dcbc302299560b855,2022-07-06_08h31.18.083,Colour_Asymmetry_Pilot,2022.1.3,MacIntel,60.0024001,62c50e9c1127f2cd403a315f,0,10,10,44,1,threeone,,,,,,,,,,,,,,,,,,,,,,,,,,,,,,,,,,,,,,,,,,,,,,,,,,,,,,,,,,,,,,,,,,,,,,,,,,,,,,,,,,,,,,,,,,,,,,,,,,,,,,,,,,,,,,,,,,,,,,,,,,,,,,,,,,,,,,,,,,,,,,,,,,,,,,,,,,,,,
,,,,,,6084b716b457b6296f61778e,62c53a3dcbc302299560b855,2022-07-06_08h31.18.083,Colour_Asymmetry_Pilot,2022.1.3,MacIntel,60.0024001,62c50e9c1127f2cd403a315f,0,11,11,56,1,onetwo,,,,,,,,,,,,,,,,,,,,,,,,,,,,,,,,,,,,,,,,,,,,,,,,,,,,,,,,,,,,,,,,,,,,,,,,,,,,,,,,,,,,,,,,,,,,,,,,,,,,,,,,,,,,,,,,,,,,,,,,,,,,,,,,,,,,,,,,,,,,,,,,,,,,,,,,,,,,,
,,,,,,6084b716b457b6296f61778e,62c53a3dcbc302299560b855,2022-07-06_08h31.18.083,Colour_Asymmetry_Pilot,2022.1.3,MacIntel,60.0024001,62c50e9c1127f2cd403a315f,0,12,12,45,1,threefour,,,,,,,,,,,,,,,,,,,,,,,,,,,,,,,,,,,,,,,,,,,,,,,,,,,,,,,,,,,,,,,,,,,,,,,,,,,,,,,,,,,,,,,,,,,,,,,,,,,,,,,,,,,,,,,,,,,,,,,,,,,,,,,,,,,,,,,,,,,,,,,,,,,,,,,,,,,,,
,,,,,,6084b716b457b6296f61778e,62c53a3dcbc302299560b855,2022-07-06_08h31.18.083,Colour_Asymmetry_Pilot,2022.1.3,MacIntel,60.0024001,62c50e9c1127f2cd403a315f,0,13,13,144,1,onetwo,,,,,,,,,,,,,,,,,,,,,,,,,,,,,,,,,,,,,,,,,,,,,,,,,,,,,,,,,,,,,,,,,,,,,,,,,,,,,,,,,,,,,,,,,,,,,,,,,,,,,,,,,,,,,,,,,,,,,,,,,,,,,,,,,,,,,,,,,,,,,,,,,,,,,,,,,,,,,
,,,,,,6084b716b457b6296f61778e,62c53a3dcbc302299560b855,2022-07-06_08h31.18.083,Colour_Asymmetry_Pilot,2022.1.3,MacIntel,60.0024001,62c50e9c1127f2cd403a315f,0,14,14,94,1,fourtwo,,,,,,,,,,,,,,,,,,,,,,,,,,,,,,,,,,,,,,,,,,,,,,,,,,,,,,,,,,,,,,,,,,,,,,,,,,,,,,,,,,,,,,,,,,,,,,,,,,,,,,,,,,,,,,,,,,,,,,,,,,,,,,,,,,,,,,,,,,,,,,,,,,,,,,,,,,,,,
,,,,,,6084b716b457b6296f61778e,62c53a3dcbc302299560b855,2022-07-06_08h31.18.083,Colour_Asymmetry_Pilot,2022.1.3,MacIntel,60.0024001,62c50e9c1127f2cd403a315f,0,15,15,118,1,fourtwo,,,,,,,,,,,,,,,,,,,,,,,,,,,,,,,,,,,,,,,,,,,,,,,,,,,,,,,,,,,,,,,,,,,,,,,,,,,,,,,,,,,,,,,,,,,,,,,,,,,,,,,,,,,,,,,,,,,,,,,,,,,,,,,,,,,,,,,,,,,,,,,,,,,,,,,,,,,,,
,,,,,,6084b716b457b6296f61778e,62c53a3dcbc302299560b855,2022-07-06_08h31.18.083,Colour_Asymmetry_Pilot,2022.1.3,MacIntel,60.0024001,62c50e9c1127f2cd403a315f,0,16,16,124,1,threeone,,,,,,,,,,,,,,,,,,,,,,,,,,,,,,,,,,,,,,,,,,,,,,,,,,,,,,,,,,,,,,,,,,,,,,,,,,,,,,,,,,,,,,,,,,,,,,,,,,,,,,,,,,,,,,,,,,,,,,,,,,,,,,,,,,,,,,,,,,,,,,,,,,,,,,,,,,,,,
,,,,,,6084b716b457b6296f61778e,62c53a3dcbc302299560b855,2022-07-06_08h31.18.083,Colour_Asymmetry_Pilot,2022.1.3,MacIntel,60.0024001,62c50e9c1127f2cd403a315f,0,17,17,87,1,fourthree,,,,,,,,,,,,,,,,,,,,,,,,,,,,,,,,,,,,,,,,,,,,,,,,,,,,,,,,,,,,,,,,,,,,,,,,,,,,,,,,,,,,,,,,,,,,,,,,,,,,,,,,,,,,,,,,,,,,,,,,,,,,,,,,,,,,,,,,,,,,,,,,,,,,,,,,,,,,,
,,,,,,6084b716b457b6296f61778e,62c53a3dcbc302299560b855,2022-07-06_08h31.18.083,Colour_Asymmetry_Pilot,2022.1.3,MacIntel,60.0024001,62c50e9c1127f2cd403a315f,0,18,18,79,1,fourthree,,,,,,,,,,,,,,,,,,,,,,,,,,,,,,,,,,,,,,,,,,,,,,,,,,,,,,,,,,,,,,,,,,,,,,,,,,,,,,,,,,,,,,,,,,,,,,,,,,,,,,,,,,,,,,,,,,,,,,,,,,,,,,,,,,,,,,,,,,,,,,,,,,,,,,,,,,,,,
,,,,,,6084b716b457b6296f61778e,62c53a3dcbc302299560b855,2022-07-06_08h31.18.083,Colour_Asymmetry_Pilot,2022.1.3,MacIntel,60.0024001,62c50e9c1127f2cd403a315f,0,19,19,31,1,fourthree,,,,,,,,,,,,,,,,,,,,,,,,,,,,,,,,,,,,,,,,,,,,,,,,,,,,,,,,,,,,,,,,,,,,,,,,,,,,,,,,,,,,,,,,,,,,,,,,,,,,,,,,,,,,,,,,,,,,,,,,,,,,,,,,,,,,,,,,,,,,,,,,,,,,,,,,,,,,,
,,,,,,6084b716b457b6296f61778e,62c53a3dcbc302299560b855,2022-07-06_08h31.18.083,Colour_Asymmetry_Pilot,2022.1.3,MacIntel,60.0024001,62c50e9c1127f2cd403a315f,0,20,20,23,1,fourthree,,,,,,,,,,,,,,,,,,,,,,,,,,,,,,,,,,,,,,,,,,,,,,,,,,,,,,,,,,,,,,,,,,,,,,,,,,,,,,,,,,,,,,,,,,,,,,,,,,,,,,,,,,,,,,,,,,,,,,,,,,,,,,,,,,,,,,,,,,,,,,,,,,,,,,,,,,,,,
,,,,,,6084b716b457b6296f61778e,62c53a3dcbc302299560b855,2022-07-06_08h31.18.083,Colour_Asymmetry_Pilot,2022.1.3,MacIntel,60.0024001,62c50e9c1127f2cd403a315f,0,21,21,42,1,twoone,,,,,,,,,,,,,,,,,,,,,,,,,,,,,,,,,,,,,,,,,,,,,,,,,,,,,,,,,,,,,,,,,,,,,,,,,,,,,,,,,,,,,,,,,,,,,,,,,,,,,,,,,,,,,,,,,,,,,,,,,,,,,,,,,,,,,,,,,,,,,,,,,,,,,,,,,,,,,
,,,,,,6084b716b457b6296f61778e,62c53a3dcbc302299560b855,2022-07-06_08h31.18.083,Colour_Asymmetry_Pilot,2022.1.3,MacIntel,60.0024001,62c50e9c1127f2cd403a315f,0,22,22,60,1,threeone,,,,,,,,,,,,,,,,,,,,,,,,,,,,,,,,,,,,,,,,,,,,,,,,,,,,,,,,,,,,,,,,,,,,,,,,,,,,,,,,,,,,,,,,,,,,,,,,,,,,,,,,,,,,,,,,,,,,,,,,,,,,,,,,,,,,,,,,,,,,,,,,,,,,,,,,,,,,,
,,,,,,6084b716b457b6296f61778e,62c53a3dcbc302299560b855,2022-07-06_08h31.18.083,Colour_Asymmetry_Pilot,2022.1.3,MacIntel,60.0024001,62c50e9c1127f2cd403a315f,0,23,23,116,1,threeone,,,,,,,,,,,,,,,,,,,,,,,,,,,,,,,,,,,,,,,,,,,,,,,,,,,,,,,,,,,,,,,,,,,,,,,,,,,,,,,,,,,,,,,,,,,,,,,,,,,,,,,,,,,,,,,,,,,,,,,,,,,,,,,,,,,,,,,,,,,,,,,,,,,,,,,,,,,,,
,,,,,,6084b716b457b6296f61778e,62c53a3dcbc302299560b855,2022-07-06_08h31.18.083,Colour_Asymmetry_Pilot,2022.1.3,MacIntel,60.0024001,62c50e9c1127f2cd403a315f,0,24,24,37,1,threefour,,,,,,,,,,,,,,,,,,,,,,,,,,,,,,,,,,,,,,,,,,,,,,,,,,,,,,,,,,,,,,,,,,,,,,,,,,,,,,,,,,,,,,,,,,,,,,,,,,,,,,,,,,,,,,,,,,,,,,,,,,,,,,,,,,,,,,,,,,,,,,,,,,,,,,,,,,,,,
,,,,,,6084b716b457b6296f61778e,62c53a3dcbc302299560b855,2022-07-06_08h31.18.083,Colour_Asymmetry_Pilot,2022.1.3,MacIntel,60.0024001,62c50e9c1127f2cd403a315f,0,25,25,12,1,threeone,,,,,,,,,,,,,,,,,,,,,,,,,,,,,,,,,,,,,,,,,,,,,,,,,,,,,,,,,,,,,,,,,,,,,,,,,,,,,,,,,,,,,,,,,,,,,,,,,,,,,,,,,,,,,,,,,,,,,,,,,,,,,,,,,,,,,,,,,,,,,,,,,,,,,,,,,,,,,
,,,,,,6084b716b457b6296f61778e,62c53a3dcbc302299560b855,2022-07-06_08h31.18.083,Colour_Asymmetry_Pilot,2022.1.3,MacIntel,60.0024001,62c50e9c1127f2cd403a315f,0,26,26,75,1,twofour,,,,,,,,,,,,,,,,,,,,,,,,,,,,,,,,,,,,,,,,,,,,,,,,,,,,,,,,,,,,,,,,,,,,,,,,,,,,,,,,,,,,,,,,,,,,,,,,,,,,,,,,,,,,,,,,,,,,,,,,,,,,,,,,,,,,,,,,,,,,,,,,,,,,,,,,,,,,,
,,,,,,6084b716b457b6296f61778e,62c53a3dcbc302299560b855,2022-07-06_08h31.18.083,Colour_Asymmetry_Pilot,2022.1.3,MacIntel,60.0024001,62c50e9c1127f2cd403a315f,0,27,27,7,1,fourthree,,,,,,,,,,,,,,,,,,,,,,,,,,,,,,,,,,,,,,,,,,,,,,,,,,,,,,,,,,,,,,,,,,,,,,,,,,,,,,,,,,,,,,,,,,,,,,,,,,,,,,,,,,,,,,,,,,,,,,,,,,,,,,,,,,,,,,,,,,,,,,,,,,,,,,,,,,,,,
,,,,,,6084b716b457b6296f61778e,62c53a3dcbc302299560b855,2022-07-06_08h31.18.083,Colour_Asymmetry_Pilot,2022.1.3,MacIntel,60.0024001,62c50e9c1127f2cd403a315f,0,28,28,132,1,threeone,,,,,,,,,,,,,,,,,,,,,,,,,,,,,,,,,,,,,,,,,,,,,,,,,,,,,,,,,,,,,,,,,,,,,,,,,,,,,,,,,,,,,,,,,,,,,,,,,,,,,,,,,,,,,,,,,,,,,,,,,,,,,,,,,,,,,,,,,,,,,,,,,,,,,,,,,,,,,
,,,,,,6084b716b457b6296f61778e,62c53a3dcbc302299560b855,2022-07-06_08h31.18.083,Colour_Asymmetry_Pilot,2022.1.3,MacIntel,60.0024001,62c50e9c1127f2cd403a315f,0,29,29,54,1,fourtwo,,,,,,,,,,,,,,,,,,,,,,,,,,,,,,,,,,,,,,,,,,,,,,,,,,,,,,,,,,,,,,,,,,,,,,,,,,,,,,,,,,,,,,,,,,,,,,,,,,,,,,,,,,,,,,,,,,,,,,,,,,,,,,,,,,,,,,,,,,,,,,,,,,,,,,,,,,,,,
,,,,,,6084b716b457b6296f61778e,62c53a3dcbc302299560b855,2022-07-06_08h31.18.083,Colour_Asymmetry_Pilot,2022.1.3,MacIntel,60.0024001,62c50e9c1127f2cd403a315f,0,30,30,4,1,threeone,,,,,,,,,,,,,,,,,,,,,,,,,,,,,,,,,,,,,,,,,,,,,,,,,,,,,,,,,,,,,,,,,,,,,,,,,,,,,,,,,,,,,,,,,,,,,,,,,,,,,,,,,,,,,,,,,,,,,,,,,,,,,,,,,,,,,,,,,,,,,,,,,,,,,,,,,,,,,
,,,,,,6084b716b457b6296f61778e,62c53a3dcbc302299560b855,2022-07-06_08h31.18.083,Colour_Asymmetry_Pilot,2022.1.3,MacIntel,60.0024001,62c50e9c1127f2cd403a315f,0,31,31,53,1,threefour,,,,,,,,,,,,,,,,,,,,,,,,,,,,,,,,,,,,,,,,,,,,,,,,,,,,,,,,,,,,,,,,,,,,,,,,,,,,,,,,,,,,,,,,,,,,,,,,,,,,,,,,,,,,,,,,,,,,,,,,,,,,,,,,,,,,,,,,,,,,,,,,,,,,,,,,,,,,,
,,,,,,6084b716b457b6296f61778e,62c53a3dcbc302299560b855,2022-07-06_08h31.18.083,Colour_Asymmetry_Pilot,2022.1.3,MacIntel,60.0024001,62c50e9c1127f2cd403a315f,0,32,32,158,1,fourtwo,,,,,,,,,,,,,,,,,,,,,,,,,,,,,,,,,,,,,,,,,,,,,,,,,,,,,,,,,,,,,,,,,,,,,,,,,,,,,,,,,,,,,,,,,,,,,,,,,,,,,,,,,,,,,,,,,,,,,,,,,,,,,,,,,,,,,,,,,,,,,,,,,,,,,,,,,,,,,
,,,,,,6084b716b457b6296f61778e,62c53a3dcbc302299560b855,2022-07-06_08h31.18.083,Colour_Asymmetry_Pilot,2022.1.3,MacIntel,60.0024001,62c50e9c1127f2cd403a315f,0,33,33,143,1,fourthree,,,,,,,,,,,,,,,,,,,,,,,,,,,,,,,,,,,,,,,,,,,,,,,,,,,,,,,,,,,,,,,,,,,,,,,,,,,,,,,,,,,,,,,,,,,,,,,,,,,,,,,,,,,,,,,,,,,,,,,,,,,,,,,,,,,,,,,,,,,,,,,,,,,,,,,,,,,,,
,,,,,,6084b716b457b6296f61778e,62c53a3dcbc302299560b855,2022-07-06_08h31.18.083,Colour_Asymmetry_Pilot,2022.1.3,MacIntel,60.0024001,62c50e9c1127f2cd403a315f,0,34,34,66,1,twoone,,,,,,,,,,,,,,,,,,,,,,,,,,,,,,,,,,,,,,,,,,,,,,,,,,,,,,,,,,,,,,,,,,,,,,,,,,,,,,,,,,,,,,,,,,,,,,,,,,,,,,,,,,,,,,,,,,,,,,,,,,,,,,,,,,,,,,,,,,,,,,,,,,,,,,,,,,,,,
,,,,,,6084b716b457b6296f61778e,62c53a3dcbc302299560b855,2022-07-06_08h31.18.083,Colour_Asymmetry_Pilot,2022.1.3,MacIntel,60.0024001,62c50e9c1127f2cd403a315f,0,35,35,48,1,onetwo,,,,,,,,,,,,,,,,,,,,,,,,,,,,,,,,,,,,,,,,,,,,,,,,,,,,,,,,,,,,,,,,,,,,,,,,,,,,,,,,,,,,,,,,,,,,,,,,,,,,,,,,,,,,,,,,,,,,,,,,,,,,,,,,,,,,,,,,,,,,,,,,,,,,,,,,,,,,,
,,,,,,6084b716b457b6296f61778e,62c53a3dcbc302299560b855,2022-07-06_08h31.18.083,Colour_Asymmetry_Pilot,2022.1.3,MacIntel,60.0024001,62c50e9c1127f2cd403a315f,0,36,36,17,1,onethree,,,,,,,,,,,,,,,,,,,,,,,,,,,,,,,,,,,,,,,,,,,,,,,,,,,,,,,,,,,,,,,,,,,,,,,,,,,,,,,,,,,,,,,,,,,,,,,,,,,,,,,,,,,,,,,,,,,,,,,,,,,,,,,,,,,,,,,,,,,,,,,,,,,,,,,,,,,,,
,,,,,,6084b716b457b6296f61778e,62c53a3dcbc302299560b855,2022-07-06_08h31.18.083,Colour_Asymmetry_Pilot,2022.1.3,MacIntel,60.0024001,62c50e9c1127f2cd403a315f,0,37,37,34,1,twoone,,,,,,,,,,,,,,,,,,,,,,,,,,,,,,,,,,,,,,,,,,,,,,,,,,,,,,,,,,,,,,,,,,,,,,,,,,,,,,,,,,,,,,,,,,,,,,,,,,,,,,,,,,,,,,,,,,,,,,,,,,,,,,,,,,,,,,,,,,,,,,,,,,,,,,,,,,,,,
,,,,,,6084b716b457b6296f61778e,62c53a3dcbc302299560b855,2022-07-06_08h31.18.083,Colour_Asymmetry_Pilot,2022.1.3,MacIntel,60.0024001,62c50e9c1127f2cd403a315f,0,38,38,6,1,fourtwo,,,,,,,,,,,,,,,,,,,,,,,,,,,,,,,,,,,,,,,,,,,,,,,,,,,,,,,,,,,,,,,,,,,,,,,,,,,,,,,,,,,,,,,,,,,,,,,,,,,,,,,,,,,,,,,,,,,,,,,,,,,,,,,,,,,,,,,,,,,,,,,,,,,,,,,,,,,,,
,,,,,,6084b716b457b6296f61778e,62c53a3dcbc302299560b855,2022-07-06_08h31.18.083,Colour_Asymmetry_Pilot,2022.1.3,MacIntel,60.0024001,62c50e9c1127f2cd403a315f,0,39,39,120,1,onetwo,,,,,,,,,,,,,,,,,,,,,,,,,,,,,,,,,,,,,,,,,,,,,,,,,,,,,,,,,,,,,,,,,,,,,,,,,,,,,,,,,,,,,,,,,,,,,,,,,,,,,,,,,,,,,,,,,,,,,,,,,,,,,,,,,,,,,,,,,,,,,,,,,,,,,,,,,,,,,
,,,,,,6084b716b457b6296f61778e,62c53a3dcbc302299560b855,2022-07-06_08h31.18.083,Colour_Asymmetry_Pilot,2022.1.3,MacIntel,60.0024001,62c50e9c1127f2cd403a315f,0,40,40,32,1,onetwo,,,,,,,,,,,,,,,,,,,,,,,,,,,,,,,,,,,,,,,,,,,,,,,,,,,,,,,,,,,,,,,,,,,,,,,,,,,,,,,,,,,,,,,,,,,,,,,,,,,,,,,,,,,,,,,,,,,,,,,,,,,,,,,,,,,,,,,,,,,,,,,,,,,,,,,,,,,,,
,,,,,,6084b716b457b6296f61778e,62c53a3dcbc302299560b855,2022-07-06_08h31.18.083,Colour_Asymmetry_Pilot,2022.1.3,MacIntel,60.0024001,62c50e9c1127f2cd403a315f,0,41,41,97,1,onethree,,,,,,,,,,,,,,,,,,,,,,,,,,,,,,,,,,,,,,,,,,,,,,,,,,,,,,,,,,,,,,,,,,,,,,,,,,,,,,,,,,,,,,,,,,,,,,,,,,,,,,,,,,,,,,,,,,,,,,,,,,,,,,,,,,,,,,,,,,,,,,,,,,,,,,,,,,,,,
,,,,,,6084b716b457b6296f61778e,62c53a3dcbc302299560b855,2022-07-06_08h31.18.083,Colour_Asymmetry_Pilot,2022.1.3,MacIntel,60.0024001,62c50e9c1127f2cd403a315f,0,42,42,77,1,threefour,,,,,,,,,,,,,,,,,,,,,,,,,,,,,,,,,,,,,,,,,,,,,,,,,,,,,,,,,,,,,,,,,,,,,,,,,,,,,,,,,,,,,,,,,,,,,,,,,,,,,,,,,,,,,,,,,,,,,,,,,,,,,,,,,,,,,,,,,,,,,,,,,,,,,,,,,,,,,
,,,,,,6084b716b457b6296f61778e,62c53a3dcbc302299560b855,2022-07-06_08h31.18.083,Colour_Asymmetry_Pilot,2022.1.3,MacIntel,60.0024001,62c50e9c1127f2cd403a315f,0,43,43,80,1,onetwo,,,,,,,,,,,,,,,,,,,,,,,,,,,,,,,,,,,,,,,,,,,,,,,,,,,,,,,,,,,,,,,,,,,,,,,,,,,,,,,,,,,,,,,,,,,,,,,,,,,,,,,,,,,,,,,,,,,,,,,,,,,,,,,,,,,,,,,,,,,,,,,,,,,,,,,,,,,,,
,,,,,,6084b716b457b6296f61778e,62c53a3dcbc302299560b855,2022-07-06_08h31.18.083,Colour_Asymmetry_Pilot,2022.1.3,MacIntel,60.0024001,62c50e9c1127f2cd403a315f,0,44,44,26,1,twoone,,,,,,,,,,,,,,,,,,,,,,,,,,,,,,,,,,,,,,,,,,,,,,,,,,,,,,,,,,,,,,,,,,,,,,,,,,,,,,,,,,,,,,,,,,,,,,,,,,,,,,,,,,,,,,,,,,,,,,,,,,,,,,,,,,,,,,,,,,,,,,,,,,,,,,,,,,,,,
,,,,,,6084b716b457b6296f61778e,62c53a3dcbc302299560b855,2022-07-06_08h31.18.083,Colour_Asymmetry_Pilot,2022.1.3,MacIntel,60.0024001,62c50e9c1127f2cd403a315f,0,45,45,107,1,twofour,,,,,,,,,,,,,,,,,,,,,,,,,,,,,,,,,,,,,,,,,,,,,,,,,,,,,,,,,,,,,,,,,,,,,,,,,,,,,,,,,,,,,,,,,,,,,,,,,,,,,,,,,,,,,,,,,,,,,,,,,,,,,,,,,,,,,,,,,,,,,,,,,,,,,,,,,,,,,
,,,,,,6084b716b457b6296f61778e,62c53a3dcbc302299560b855,2022-07-06_08h31.18.083,Colour_Asymmetry_Pilot,2022.1.3,MacIntel,60.0024001,62c50e9c1127f2cd403a315f,0,46,46,28,1,threeone,,,,,,,,,,,,,,,,,,,,,,,,,,,,,,,,,,,,,,,,,,,,,,,,,,,,,,,,,,,,,,,,,,,,,,,,,,,,,,,,,,,,,,,,,,,,,,,,,,,,,,,,,,,,,,,,,,,,,,,,,,,,,,,,,,,,,,,,,,,,,,,,,,,,,,,,,,,,,
,,,,,,6084b716b457b6296f61778e,62c53a3dcbc302299560b855,2022-07-06_08h31.18.083,Colour_Asymmetry_Pilot,2022.1.3,MacIntel,60.0024001,62c50e9c1127f2cd403a315f,0,47,47,136,1,onetwo,,,,,,,,,,,,,,,,,,,,,,,,,,,,,,,,,,,,,,,,,,,,,,,,,,,,,,,,,,,,,,,,,,,,,,,,,,,,,,,,,,,,,,,,,,,,,,,,,,,,,,,,,,,,,,,,,,,,,,,,,,,,,,,,,,,,,,,,,,,,,,,,,,,,,,,,,,,,,
,,,,,,6084b716b457b6296f61778e,62c53a3dcbc302299560b855,2022-07-06_08h31.18.083,Colour_Asymmetry_Pilot,2022.1.3,MacIntel,60.0024001,62c50e9c1127f2cd403a315f,0,48,48,102,1,fourtwo,,,,,,,,,,,,,,,,,,,,,,,,,,,,,,,,,,,,,,,,,,,,,,,,,,,,,,,,,,,,,,,,,,,,,,,,,,,,,,,,,,,,,,,,,,,,,,,,,,,,,,,,,,,,,,,,,,,,,,,,,,,,,,,,,,,,,,,,,,,,,,,,,,,,,,,,,,,,,
,,,,,,6084b716b457b6296f61778e,62c53a3dcbc302299560b855,2022-07-06_08h31.18.083,Colour_Asymmetry_Pilot,2022.1.3,MacIntel,60.0024001,62c50e9c1127f2cd403a315f,0,49,49,13,1,threefour,,,,,,,,,,,,,,,,,,,,,,,,,,,,,,,,,,,,,,,,,,,,,,,,,,,,,,,,,,,,,,,,,,,,,,,,,,,,,,,,,,,,,,,,,,,,,,,,,,,,,,,,,,,,,,,,,,,,,,,,,,,,,,,,,,,,,,,,,,,,,,,,,,,,,,,,,,,,,
,,,,,,6084b716b457b6296f61778e,62c53a3dcbc302299560b855,2022-07-06_08h31.18.083,Colour_Asymmetry_Pilot,2022.1.3,MacIntel,60.0024001,62c50e9c1127f2cd403a315f,0,50,50,29,1,threefour,,,,,,,,,,,,,,,,,,,,,,,,,,,,,,,,,,,,,,,,,,,,,,,,,,,,,,,,,,,,,,,,,,,,,,,,,,,,,,,,,,,,,,,,,,,,,,,,,,,,,,,,,,,,,,,,,,,,,,,,,,,,,,,,,,,,,,,,,,,,,,,,,,,,,,,,,,,,,
,,,,,,6084b716b457b6296f61778e,62c53a3dcbc302299560b855,2022-07-06_08h31.18.083,Colour_Asymmetry_Pilot,2022.1.3,MacIntel,60.0024001,62c50e9c1127f2cd403a315f,0,51,51,8,1,onetwo,,,,,,,,,,,,,,,,,,,,,,,,,,,,,,,,,,,,,,,,,,,,,,,,,,,,,,,,,,,,,,,,,,,,,,,,,,,,,,,,,,,,,,,,,,,,,,,,,,,,,,,,,,,,,,,,,,,,,,,,,,,,,,,,,,,,,,,,,,,,,,,,,,,,,,,,,,,,,
,,,,,,6084b716b457b6296f61778e,62c53a3dcbc302299560b855,2022-07-06_08h31.18.083,Colour_Asymmetry_Pilot,2022.1.3,MacIntel,60.0024001,62c50e9c1127f2cd403a315f,0,52,52,81,1,onethree,,,,,,,,,,,,,,,,,,,,,,,,,,,,,,,,,,,,,,,,,,,,,,,,,,,,,,,,,,,,,,,,,,,,,,,,,,,,,,,,,,,,,,,,,,,,,,,,,,,,,,,,,,,,,,,,,,,,,,,,,,,,,,,,,,,,,,,,,,,,,,,,,,,,,,,,,,,,,
,,,,,,6084b716b457b6296f61778e,62c53a3dcbc302299560b855,2022-07-06_08h31.18.083,Colour_Asymmetry_Pilot,2022.1.3,MacIntel,60.0024001,62c50e9c1127f2cd403a315f,0,53,53,92,1,threeone,,,,,,,,,,,,,,,,,,,,,,,,,,,,,,,,,,,,,,,,,,,,,,,,,,,,,,,,,,,,,,,,,,,,,,,,,,,,,,,,,,,,,,,,,,,,,,,,,,,,,,,,,,,,,,,,,,,,,,,,,,,,,,,,,,,,,,,,,,,,,,,,,,,,,,,,,,,,,
,,,,,,6084b716b457b6296f61778e,62c53a3dcbc302299560b855,2022-07-06_08h31.18.083,Colour_Asymmetry_Pilot,2022.1.3,MacIntel,60.0024001,62c50e9c1127f2cd403a315f,0,54,54,18,1,twoone,,,,,,,,,,,,,,,,,,,,,,,,,,,,,,,,,,,,,,,,,,,,,,,,,,,,,,,,,,,,,,,,,,,,,,,,,,,,,,,,,,,,,,,,,,,,,,,,,,,,,,,,,,,,,,,,,,,,,,,,,,,,,,,,,,,,,,,,,,,,,,,,,,,,,,,,,,,,,
,,,,,,6084b716b457b6296f61778e,62c53a3dcbc302299560b855,2022-07-06_08h31.18.083,Colour_Asymmetry_Pilot,2022.1.3,MacIntel,60.0024001,62c50e9c1127f2cd403a315f,0,55,55,2,1,twoone,,,,,,,,,,,,,,,,,,,,,,,,,,,,,,,,,,,,,,,,,,,,,,,,,,,,,,,,,,,,,,,,,,,,,,,,,,,,,,,,,,,,,,,,,,,,,,,,,,,,,,,,,,,,,,,,,,,,,,,,,,,,,,,,,,,,,,,,,,,,,,,,,,,,,,,,,,,,,
,,,,,,6084b716b457b6296f61778e,62c53a3dcbc302299560b855,2022-07-06_08h31.18.083,Colour_Asymmetry_Pilot,2022.1.3,MacIntel,60.0024001,62c50e9c1127f2cd403a315f,0,56,56,88,1,onetwo,,,,,,,,,,,,,,,,,,,,,,,,,,,,,,,,,,,,,,,,,,,,,,,,,,,,,,,,,,,,,,,,,,,,,,,,,,,,,,,,,,,,,,,,,,,,,,,,,,,,,,,,,,,,,,,,,,,,,,,,,,,,,,,,,,,,,,,,,,,,,,,,,,,,,,,,,,,,,
,,,,,,6084b716b457b6296f61778e,62c53a3dcbc302299560b855,2022-07-06_08h31.18.083,Colour_Asymmetry_Pilot,2022.1.3,MacIntel,60.0024001,62c50e9c1127f2cd403a315f,0,57,57,64,1,onetwo,,,,,,,,,,,,,,,,,,,,,,,,,,,,,,,,,,,,,,,,,,,,,,,,,,,,,,,,,,,,,,,,,,,,,,,,,,,,,,,,,,,,,,,,,,,,,,,,,,,,,,,,,,,,,,,,,,,,,,,,,,,,,,,,,,,,,,,,,,,,,,,,,,,,,,,,,,,,,
,,,,,,6084b716b457b6296f61778e,62c53a3dcbc302299560b855,2022-07-06_08h31.18.083,Colour_Asymmetry_Pilot,2022.1.3,MacIntel,60.0024001,62c50e9c1127f2cd403a315f,0,58,58,9,1,onethree,,,,,,,,,,,,,,,,,,,,,,,,,,,,,,,,,,,,,,,,,,,,,,,,,,,,,,,,,,,,,,,,,,,,,,,,,,,,,,,,,,,,,,,,,,,,,,,,,,,,,,,,,,,,,,,,,,,,,,,,,,,,,,,,,,,,,,,,,,,,,,,,,,,,,,,,,,,,,
,,,,,,6084b716b457b6296f61778e,62c53a3dcbc302299560b855,2022-07-06_08h31.18.083,Colour_Asymmetry_Pilot,2022.1.3,MacIntel,60.0024001,62c50e9c1127f2cd403a315f,0,59,59,149,1,threefour,,,,,,,,,,,,,,,,,,,,,,,,,,,,,,,,,,,,,,,,,,,,,,,,,,,,,,,,,,,,,,,,,,,,,,,,,,,,,,,,,,,,,,,,,,,,,,,,,,,,,,,,,,,,,,,,,,,,,,,,,,,,,,,,,,,,,,,,,,,,,,,,,,,,,,,,,,,,,
,,,,,,6084b716b457b6296f61778e,62c53a3dcbc302299560b855,2022-07-06_08h31.18.083,Colour_Asymmetry_Pilot,2022.1.3,MacIntel,60.0024001,62c50e9c1127f2cd403a315f,0,60,60,100,1,threeone,,,,,,,,,,,,,,,,,,,,,,,,,,,,,,,,,,,,,,,,,,,,,,,,,,,,,,,,,,,,,,,,,,,,,,,,,,,,,,,,,,,,,,,,,,,,,,,,,,,,,,,,,,,,,,,,,,,,,,,,,,,,,,,,,,,,,,,,,,,,,,,,,,,,,,,,,,,,,
,,,,,,6084b716b457b6296f61778e,62c53a3dcbc302299560b855,2022-07-06_08h31.18.083,Colour_Asymmetry_Pilot,2022.1.3,MacIntel,60.0024001,62c50e9c1127f2cd403a315f,0,61,61,146,1,twoone,,,,,,,,,,,,,,,,,,,,,,,,,,,,,,,,,,,,,,,,,,,,,,,,,,,,,,,,,,,,,,,,,,,,,,,,,,,,,,,,,,,,,,,,,,,,,,,,,,,,,,,,,,,,,,,,,,,,,,,,,,,,,,,,,,,,,,,,,,,,,,,,,,,,,,,,,,,,,
,,,,,,6084b716b457b6296f61778e,62c53a3dcbc302299560b855,2022-07-06_08h31.18.083,Colour_Asymmetry_Pilot,2022.1.3,MacIntel,60.0024001,62c50e9c1127f2cd403a315f,0,62,62,14,1,fourtwo,,,,,,,,,,,,,,,,,,,,,,,,,,,,,,,,,,,,,,,,,,,,,,,,,,,,,,,,,,,,,,,,,,,,,,,,,,,,,,,,,,,,,,,,,,,,,,,,,,,,,,,,,,,,,,,,,,,,,,,,,,,,,,,,,,,,,,,,,,,,,,,,,,,,,,,,,,,,,
,,,,,,6084b716b457b6296f61778e,62c53a3dcbc302299560b855,2022-07-06_08h31.18.083,Colour_Asymmetry_Pilot,2022.1.3,MacIntel,60.0024001,62c50e9c1127f2cd403a315f,0,63,63,145,1,onethree,,,,,,,,,,,,,,,,,,,,,,,,,,,,,,,,,,,,,,,,,,,,,,,,,,,,,,,,,,,,,,,,,,,,,,,,,,,,,,,,,,,,,,,,,,,,,,,,,,,,,,,,,,,,,,,,,,,,,,,,,,,,,,,,,,,,,,,,,,,,,,,,,,,,,,,,,,,,,
,,,,,,6084b716b457b6296f61778e,62c53a3dcbc302299560b855,2022-07-06_08h31.18.083,Colour_Asymmetry_Pilot,2022.1.3,MacIntel,60.0024001,62c50e9c1127f2cd403a315f,0,64,64,0,1,onetwo,,,,,,,,,,,,,,,,,,,,,,,,,,,,,,,,,,,,,,,,,,,,,,,,,,,,,,,,,,,,,,,,,,,,,,,,,,,,,,,,,,,,,,,,,,,,,,,,,,,,,,,,,,,,,,,,,,,,,,,,,,,,,,,,,,,,,,,,,,,,,,,,,,,,,,,,,,,,,
,,,,,,6084b716b457b6296f61778e,62c53a3dcbc302299560b855,2022-07-06_08h31.18.083,Colour_Asymmetry_Pilot,2022.1.3,MacIntel,60.0024001,62c50e9c1127f2cd403a315f,0,65,65,72,1,onetwo,,,,,,,,,,,,,,,,,,,,,,,,,,,,,,,,,,,,,,,,,,,,,,,,,,,,,,,,,,,,,,,,,,,,,,,,,,,,,,,,,,,,,,,,,,,,,,,,,,,,,,,,,,,,,,,,,,,,,,,,,,,,,,,,,,,,,,,,,,,,,,,,,,,,,,,,,,,,,
,,,,,,6084b716b457b6296f61778e,62c53a3dcbc302299560b855,2022-07-06_08h31.18.083,Colour_Asymmetry_Pilot,2022.1.3,MacIntel,60.0024001,62c50e9c1127f2cd403a315f,0,66,66,50,1,twoone,,,,,,,,,,,,,,,,,,,,,,,,,,,,,,,,,,,,,,,,,,,,,,,,,,,,,,,,,,,,,,,,,,,,,,,,,,,,,,,,,,,,,,,,,,,,,,,,,,,,,,,,,,,,,,,,,,,,,,,,,,,,,,,,,,,,,,,,,,,,,,,,,,,,,,,,,,,,,
,,,,,,6084b716b457b6296f61778e,62c53a3dcbc302299560b855,2022-07-06_08h31.18.083,Colour_Asymmetry_Pilot,2022.1.3,MacIntel,60.0024001,62c50e9c1127f2cd403a315f,0,67,67,58,1,twoone,,,,,,,,,,,,,,,,,,,,,,,,,,,,,,,,,,,,,,,,,,,,,,,,,,,,,,,,,,,,,,,,,,,,,,,,,,,,,,,,,,,,,,,,,,,,,,,,,,,,,,,,,,,,,,,,,,,,,,,,,,,,,,,,,,,,,,,,,,,,,,,,,,,,,,,,,,,,,
,,,,,,6084b716b457b6296f61778e,62c53a3dcbc302299560b855,2022-07-06_08h31.18.083,Colour_Asymmetry_Pilot,2022.1.3,MacIntel,60.0024001,62c50e9c1127f2cd403a315f,0,68,68,129,1,onethree,,,,,,,,,,,,,,,,,,,,,,,,,,,,,,,,,,,,,,,,,,,,,,,,,,,,,,,,,,,,,,,,,,,,,,,,,,,,,,,,,,,,,,,,,,,,,,,,,,,,,,,,,,,,,,,,,,,,,,,,,,,,,,,,,,,,,,,,,,,,,,,,,,,,,,,,,,,,,
,,,,,,6084b716b457b6296f61778e,62c53a3dcbc302299560b855,2022-07-06_08h31.18.083,Colour_Asymmetry_Pilot,2022.1.3,MacIntel,60.0024001,62c50e9c1127f2cd403a315f,0,69,69,130,1,twoone,,,,,,,,,,,,,,,,,,,,,,,,,,,,,,,,,,,,,,,,,,,,,,,,,,,,,,,,,,,,,,,,,,,,,,,,,,,,,,,,,,,,,,,,,,,,,,,,,,,,,,,,,,,,,,,,,,,,,,,,,,,,,,,,,,,,,,,,,,,,,,,,,,,,,,,,,,,,,
,,,,,,6084b716b457b6296f61778e,62c53a3dcbc302299560b855,2022-07-06_08h31.18.083,Colour_Asymmetry_Pilot,2022.1.3,MacIntel,60.0024001,62c50e9c1127f2cd403a315f,0,70,70,69,1,threefour,,,,,,,,,,,,,,,,,,,,,,,,,,,,,,,,,,,,,,,,,,,,,,,,,,,,,,,,,,,,,,,,,,,,,,,,,,,,,,,,,,,,,,,,,,,,,,,,,,,,,,,,,,,,,,,,,,,,,,,,,,,,,,,,,,,,,,,,,,,,,,,,,,,,,,,,,,,,,
,,,,,,6084b716b457b6296f61778e,62c53a3dcbc302299560b855,2022-07-06_08h31.18.083,Colour_Asymmetry_Pilot,2022.1.3,MacIntel,60.0024001,62c50e9c1127f2cd403a315f,0,71,71,115,1,twofour,,,,,,,,,,,,,,,,,,,,,,,,,,,,,,,,,,,,,,,,,,,,,,,,,,,,,,,,,,,,,,,,,,,,,,,,,,,,,,,,,,,,,,,,,,,,,,,,,,,,,,,,,,,,,,,,,,,,,,,,,,,,,,,,,,,,,,,,,,,,,,,,,,,,,,,,,,,,,
,,,,,,6084b716b457b6296f61778e,62c53a3dcbc302299560b855,2022-07-06_08h31.18.083,Colour_Asymmetry_Pilot,2022.1.3,MacIntel,60.0024001,62c50e9c1127f2cd403a315f,0,72,72,74,1,twoone,,,,,,,,,,,,,,,,,,,,,,,,,,,,,,,,,,,,,,,,,,,,,,,,,,,,,,,,,,,,,,,,,,,,,,,,,,,,,,,,,,,,,,,,,,,,,,,,,,,,,,,,,,,,,,,,,,,,,,,,,,,,,,,,,,,,,,,,,,,,,,,,,,,,,,,,,,,,,
,,,,,,6084b716b457b6296f61778e,62c53a3dcbc302299560b855,2022-07-06_08h31.18.083,Colour_Asymmetry_Pilot,2022.1.3,MacIntel,60.0024001,62c50e9c1127f2cd403a315f,0,73,73,55,1,fourthree,,,,,,,,,,,,,,,,,,,,,,,,,,,,,,,,,,,,,,,,,,,,,,,,,,,,,,,,,,,,,,,,,,,,,,,,,,,,,,,,,,,,,,,,,,,,,,,,,,,,,,,,,,,,,,,,,,,,,,,,,,,,,,,,,,,,,,,,,,,,,,,,,,,,,,,,,,,,,
,,,,,,6084b716b457b6296f61778e,62c53a3dcbc302299560b855,2022-07-06_08h31.18.083,Colour_Asymmetry_Pilot,2022.1.3,MacIntel,60.0024001,62c50e9c1127f2cd403a315f,0,74,74,113,1,onethree,,,,,,,,,,,,,,,,,,,,,,,,,,,,,,,,,,,,,,,,,,,,,,,,,,,,,,,,,,,,,,,,,,,,,,,,,,,,,,,,,,,,,,,,,,,,,,,,,,,,,,,,,,,,,,,,,,,,,,,,,,,,,,,,,,,,,,,,,,,,,,,,,,,,,,,,,,,,,
,,,,,,6084b716b457b6296f61778e,62c53a3dcbc302299560b855,2022-07-06_08h31.18.083,Colour_Asymmetry_Pilot,2022.1.3,MacIntel,60.0024001,62c50e9c1127f2cd403a315f,0,75,75,123,1,twofour,,,,,,,,,,,,,,,,,,,,,,,,,,,,,,,,,,,,,,,,,,,,,,,,,,,,,,,,,,,,,,,,,,,,,,,,,,,,,,,,,,,,,,,,,,,,,,,,,,,,,,,,,,,,,,,,,,,,,,,,,,,,,,,,,,,,,,,,,,,,,,,,,,,,,,,,,,,,,
,,,,,,6084b716b457b6296f61778e,62c53a3dcbc302299560b855,2022-07-06_08h31.18.083,Colour_Asymmetry_Pilot,2022.1.3,MacIntel,60.0024001,62c50e9c1127f2cd403a315f,0,76,76,121,1,onethree,,,,,,,,,,,,,,,,,,,,,,,,,,,,,,,,,,,,,,,,,,,,,,,,,,,,,,,,,,,,,,,,,,,,,,,,,,,,,,,,,,,,,,,,,,,,,,,,,,,,,,,,,,,,,,,,,,,,,,,,,,,,,,,,,,,,,,,,,,,,,,,,,,,,,,,,,,,,,
,,,,,,6084b716b457b6296f61778e,62c53a3dcbc302299560b855,2022-07-06_08h31.18.083,Colour_Asymmetry_Pilot,2022.1.3,MacIntel,60.0024001,62c50e9c1127f2cd403a315f,0,77,77,133,1,threefour,,,,,,,,,,,,,,,,,,,,,,,,,,,,,,,,,,,,,,,,,,,,,,,,,,,,,,,,,,,,,,,,,,,,,,,,,,,,,,,,,,,,,,,,,,,,,,,,,,,,,,,,,,,,,,,,,,,,,,,,,,,,,,,,,,,,,,,,,,,,,,,,,,,,,,,,,,,,,
,,,,,,6084b716b457b6296f61778e,62c53a3dcbc302299560b855,2022-07-06_08h31.18.083,Colour_Asymmetry_Pilot,2022.1.3,MacIntel,60.0024001,62c50e9c1127f2cd403a315f,0,78,78,127,1,fourthree,,,,,,,,,,,,,,,,,,,,,,,,,,,,,,,,,,,,,,,,,,,,,,,,,,,,,,,,,,,,,,,,,,,,,,,,,,,,,,,,,,,,,,,,,,,,,,,,,,,,,,,,,,,,,,,,,,,,,,,,,,,,,,,,,,,,,,,,,,,,,,,,,,,,,,,,,,,,,
,,,,,,6084b716b457b6296f61778e,62c53a3dcbc302299560b855,2022-07-06_08h31.18.083,Colour_Asymmetry_Pilot,2022.1.3,MacIntel,60.0024001,62c50e9c1127f2cd403a315f,0,79,79,83,1,twofour,,,,,,,,,,,,,,,,,,,,,,,,,,,,,,,,,,,,,,,,,,,,,,,,,,,,,,,,,,,,,,,,,,,,,,,,,,,,,,,,,,,,,,,,,,,,,,,,,,,,,,,,,,,,,,,,,,,,,,,,,,,,,,,,,,,,,,,,,,,,,,,,,,,,,,,,,,,,,
,,,,,,6084b716b457b6296f61778e,62c53a3dcbc302299560b855,2022-07-06_08h31.18.083,Colour_Asymmetry_Pilot,2022.1.3,MacIntel,60.0024001,62c50e9c1127f2cd403a315f,0,80,80,128,1,onetwo,,,,,,,,,,,,,,,,,,,,,,,,,,,,,,,,,,,,,,,,,,,,,,,,,,,,,,,,,,,,,,,,,,,,,,,,,,,,,,,,,,,,,,,,,,,,,,,,,,,,,,,,,,,,,,,,,,,,,,,,,,,,,,,,,,,,,,,,,,,,,,,,,,,,,,,,,,,,,
,,,,,,6084b716b457b6296f61778e,62c53a3dcbc302299560b855,2022-07-06_08h31.18.083,Colour_Asymmetry_Pilot,2022.1.3,MacIntel,60.0024001,62c50e9c1127f2cd403a315f,0,81,81,93,1,threefour,,,,,,,,,,,,,,,,,,,,,,,,,,,,,,,,,,,,,,,,,,,,,,,,,,,,,,,,,,,,,,,,,,,,,,,,,,,,,,,,,,,,,,,,,,,,,,,,,,,,,,,,,,,,,,,,,,,,,,,,,,,,,,,,,,,,,,,,,,,,,,,,,,,,,,,,,,,,,
,,,,,,6084b716b457b6296f61778e,62c53a3dcbc302299560b855,2022-07-06_08h31.18.083,Colour_Asymmetry_Pilot,2022.1.3,MacIntel,60.0024001,62c50e9c1127f2cd403a315f,0,82,82,35,1,twofour,,,,,,,,,,,,,,,,,,,,,,,,,,,,,,,,,,,,,,,,,,,,,,,,,,,,,,,,,,,,,,,,,,,,,,,,,,,,,,,,,,,,,,,,,,,,,,,,,,,,,,,,,,,,,,,,,,,,,,,,,,,,,,,,,,,,,,,,,,,,,,,,,,,,,,,,,,,,,
,,,,,,6084b716b457b6296f61778e,62c53a3dcbc302299560b855,2022-07-06_08h31.18.083,Colour_Asymmetry_Pilot,2022.1.3,MacIntel,60.0024001,62c50e9c1127f2cd403a315f,0,83,83,156,1,threeone,,,,,,,,,,,,,,,,,,,,,,,,,,,,,,,,,,,,,,,,,,,,,,,,,,,,,,,,,,,,,,,,,,,,,,,,,,,,,,,,,,,,,,,,,,,,,,,,,,,,,,,,,,,,,,,,,,,,,,,,,,,,,,,,,,,,,,,,,,,,,,,,,,,,,,,,,,,,,
,,,,,,6084b716b457b6296f61778e,62c53a3dcbc302299560b855,2022-07-06_08h31.18.083,Colour_Asymmetry_Pilot,2022.1.3,MacIntel,60.0024001,62c50e9c1127f2cd403a315f,0,84,84,131,1,twofour,,,,,,,,,,,,,,,,,,,,,,,,,,,,,,,,,,,,,,,,,,,,,,,,,,,,,,,,,,,,,,,,,,,,,,,,,,,,,,,,,,,,,,,,,,,,,,,,,,,,,,,,,,,,,,,,,,,,,,,,,,,,,,,,,,,,,,,,,,,,,,,,,,,,,,,,,,,,,
,,,,,,6084b716b457b6296f61778e,62c53a3dcbc302299560b855,2022-07-06_08h31.18.083,Colour_Asymmetry_Pilot,2022.1.3,MacIntel,60.0024001,62c50e9c1127f2cd403a315f,0,85,85,24,1,onetwo,,,,,,,,,,,,,,,,,,,,,,,,,,,,,,,,,,,,,,,,,,,,,,,,,,,,,,,,,,,,,,,,,,,,,,,,,,,,,,,,,,,,,,,,,,,,,,,,,,,,,,,,,,,,,,,,,,,,,,,,,,,,,,,,,,,,,,,,,,,,,,,,,,,,,,,,,,,,,
,,,,,,6084b716b457b6296f61778e,62c53a3dcbc302299560b855,2022-07-06_08h31.18.083,Colour_Asymmetry_Pilot,2022.1.3,MacIntel,60.0024001,62c50e9c1127f2cd403a315f,0,86,86,47,1,fourthree,,,,,,,,,,,,,,,,,,,,,,,,,,,,,,,,,,,,,,,,,,,,,,,,,,,,,,,,,,,,,,,,,,,,,,,,,,,,,,,,,,,,,,,,,,,,,,,,,,,,,,,,,,,,,,,,,,,,,,,,,,,,,,,,,,,,,,,,,,,,,,,,,,,,,,,,,,,,,
,,,,,,6084b716b457b6296f61778e,62c53a3dcbc302299560b855,2022-07-06_08h31.18.083,Colour_Asymmetry_Pilot,2022.1.3,MacIntel,60.0024001,62c50e9c1127f2cd403a315f,0,87,87,84,1,threeone,,,,,,,,,,,,,,,,,,,,,,,,,,,,,,,,,,,,,,,,,,,,,,,,,,,,,,,,,,,,,,,,,,,,,,,,,,,,,,,,,,,,,,,,,,,,,,,,,,,,,,,,,,,,,,,,,,,,,,,,,,,,,,,,,,,,,,,,,,,,,,,,,,,,,,,,,,,,,
,,,,,,6084b716b457b6296f61778e,62c53a3dcbc302299560b855,2022-07-06_08h31.18.083,Colour_Asymmetry_Pilot,2022.1.3,MacIntel,60.0024001,62c50e9c1127f2cd403a315f,0,88,88,36,1,threeone,,,,,,,,,,,,,,,,,,,,,,,,,,,,,,,,,,,,,,,,,,,,,,,,,,,,,,,,,,,,,,,,,,,,,,,,,,,,,,,,,,,,,,,,,,,,,,,,,,,,,,,,,,,,,,,,,,,,,,,,,,,,,,,,,,,,,,,,,,,,,,,,,,,,,,,,,,,,,
,,,,,,6084b716b457b6296f61778e,62c53a3dcbc302299560b855,2022-07-06_08h31.18.083,Colour_Asymmetry_Pilot,2022.1.3,MacIntel,60.0024001,62c50e9c1127f2cd403a315f,0,89,89,21,1,threefour,,,,,,,,,,,,,,,,,,,,,,,,,,,,,,,,,,,,,,,,,,,,,,,,,,,,,,,,,,,,,,,,,,,,,,,,,,,,,,,,,,,,,,,,,,,,,,,,,,,,,,,,,,,,,,,,,,,,,,,,,,,,,,,,,,,,,,,,,,,,,,,,,,,,,,,,,,,,,
,,,,,,6084b716b457b6296f61778e,62c53a3dcbc302299560b855,2022-07-06_08h31.18.083,Colour_Asymmetry_Pilot,2022.1.3,MacIntel,60.0024001,62c50e9c1127f2cd403a315f,0,90,90,109,1,threefour,,,,,,,,,,,,,,,,,,,,,,,,,,,,,,,,,,,,,,,,,,,,,,,,,,,,,,,,,,,,,,,,,,,,,,,,,,,,,,,,,,,,,,,,,,,,,,,,,,,,,,,,,,,,,,,,,,,,,,,,,,,,,,,,,,,,,,,,,,,,,,,,,,,,,,,,,,,,,
,,,,,,6084b716b457b6296f61778e,62c53a3dcbc302299560b855,2022-07-06_08h31.18.083,Colour_Asymmetry_Pilot,2022.1.3,MacIntel,60.0024001,62c50e9c1127f2cd403a315f,0,91,91,89,1,onethree,,,,,,,,,,,,,,,,,,,,,,,,,,,,,,,,,,,,,,,,,,,,,,,,,,,,,,,,,,,,,,,,,,,,,,,,,,,,,,,,,,,,,,,,,,,,,,,,,,,,,,,,,,,,,,,,,,,,,,,,,,,,,,,,,,,,,,,,,,,,,,,,,,,,,,,,,,,,,
,,,,,,6084b716b457b6296f61778e,62c53a3dcbc302299560b855,2022-07-06_08h31.18.083,Colour_Asymmetry_Pilot,2022.1.3,MacIntel,60.0024001,62c50e9c1127f2cd403a315f,0,92,92,90,1,twoone,,,,,,,,,,,,,,,,,,,,,,,,,,,,,,,,,,,,,,,,,,,,,,,,,,,,,,,,,,,,,,,,,,,,,,,,,,,,,,,,,,,,,,,,,,,,,,,,,,,,,,,,,,,,,,,,,,,,,,,,,,,,,,,,,,,,,,,,,,,,,,,,,,,,,,,,,,,,,
,,,,,,6084b716b457b6296f61778e,62c53a3dcbc302299560b855,2022-07-06_08h31.18.083,Colour_Asymmetry_Pilot,2022.1.3,MacIntel,60.0024001,62c50e9c1127f2cd403a315f,0,93,93,112,1,onetwo,,,,,,,,,,,,,,,,,,,,,,,,,,,,,,,,,,,,,,,,,,,,,,,,,,,,,,,,,,,,,,,,,,,,,,,,,,,,,,,,,,,,,,,,,,,,,,,,,,,,,,,,,,,,,,,,,,,,,,,,,,,,,,,,,,,,,,,,,,,,,,,,,,,,,,,,,,,,,
,,,,,,6084b716b457b6296f61778e,62c53a3dcbc302299560b855,2022-07-06_08h31.18.083,Colour_Asymmetry_Pilot,2022.1.3,MacIntel,60.0024001,62c50e9c1127f2cd403a315f,0,94,94,138,1,twoone,,,,,,,,,,,,,,,,,,,,,,,,,,,,,,,,,,,,,,,,,,,,,,,,,,,,,,,,,,,,,,,,,,,,,,,,,,,,,,,,,,,,,,,,,,,,,,,,,,,,,,,,,,,,,,,,,,,,,,,,,,,,,,,,,,,,,,,,,,,,,,,,,,,,,,,,,,,,,
,,,,,,6084b716b457b6296f61778e,62c53a3dcbc302299560b855,2022-07-06_08h31.18.083,Colour_Asymmetry_Pilot,2022.1.3,MacIntel,60.0024001,62c50e9c1127f2cd403a315f,0,95,95,3,1,twofour,,,,,,,,,,,,,,,,,,,,,,,,,,,,,,,,,,,,,,,,,,,,,,,,,,,,,,,,,,,,,,,,,,,,,,,,,,,,,,,,,,,,,,,,,,,,,,,,,,,,,,,,,,,,,,,,,,,,,,,,,,,,,,,,,,,,,,,,,,,,,,,,,,,,,,,,,,,,,
,,,,,,6084b716b457b6296f61778e,62c53a3dcbc302299560b855,2022-07-06_08h31.18.083,Colour_Asymmetry_Pilot,2022.1.3,MacIntel,60.0024001,62c50e9c1127f2cd403a315f,0,96,96,63,1,fourthree,,,,,,,,,,,,,,,,,,,,,,,,,,,,,,,,,,,,,,,,,,,,,,,,,,,,,,,,,,,,,,,,,,,,,,,,,,,,,,,,,,,,,,,,,,,,,,,,,,,,,,,,,,,,,,,,,,,,,,,,,,,,,,,,,,,,,,,,,,,,,,,,,,,,,,,,,,,,,
,,,,,,6084b716b457b6296f61778e,62c53a3dcbc302299560b855,2022-07-06_08h31.18.083,Colour_Asymmetry_Pilot,2022.1.3,MacIntel,60.0024001,62c50e9c1127f2cd403a315f,0,97,97,39,1,fourthree,,,,,,,,,,,,,,,,,,,,,,,,,,,,,,,,,,,,,,,,,,,,,,,,,,,,,,,,,,,,,,,,,,,,,,,,,,,,,,,,,,,,,,,,,,,,,,,,,,,,,,,,,,,,,,,,,,,,,,,,,,,,,,,,,,,,,,,,,,,,,,,,,,,,,,,,,,,,,
,,,,,,6084b716b457b6296f61778e,62c53a3dcbc302299560b855,2022-07-06_08h31.18.083,Colour_Asymmetry_Pilot,2022.1.3,MacIntel,60.0024001,62c50e9c1127f2cd403a315f,0,98,98,137,1,onethree,,,,,,,,,,,,,,,,,,,,,,,,,,,,,,,,,,,,,,,,,,,,,,,,,,,,,,,,,,,,,,,,,,,,,,,,,,,,,,,,,,,,,,,,,,,,,,,,,,,,,,,,,,,,,,,,,,,,,,,,,,,,,,,,,,,,,,,,,,,,,,,,,,,,,,,,,,,,,
,,,,,,6084b716b457b6296f61778e,62c53a3dcbc302299560b855,2022-07-06_08h31.18.083,Colour_Asymmetry_Pilot,2022.1.3,MacIntel,60.0024001,62c50e9c1127f2cd403a315f,0,99,99,70,1,fourtwo,,,,,,,,,,,,,,,,,,,,,,,,,,,,,,,,,,,,,,,,,,,,,,,,,,,,,,,,,,,,,,,,,,,,,,,,,,,,,,,,,,,,,,,,,,,,,,,,,,,,,,,,,,,,,,,,,,,,,,,,,,,,,,,,,,,,,,,,,,,,,,,,,,,,,,,,,,,,,
,,,,,,6084b716b457b6296f61778e,62c53a3dcbc302299560b855,2022-07-06_08h31.18.083,Colour_Asymmetry_Pilot,2022.1.3,MacIntel,60.0024001,62c50e9c1127f2cd403a315f,0,100,100,27,1,twofour,,,,,,,,,,,,,,,,,,,,,,,,,,,,,,,,,,,,,,,,,,,,,,,,,,,,,,,,,,,,,,,,,,,,,,,,,,,,,,,,,,,,,,,,,,,,,,,,,,,,,,,,,,,,,,,,,,,,,,,,,,,,,,,,,,,,,,,,,,,,,,,,,,,,,,,,,,,,,
,,,,,,6084b716b457b6296f61778e,62c53a3dcbc302299560b855,2022-07-06_08h31.18.083,Colour_Asymmetry_Pilot,2022.1.3,MacIntel,60.0024001,62c50e9c1127f2cd403a315f,0,101,101,25,1,onethree,,,,,,,,,,,,,,,,,,,,,,,,,,,,,,,,,,,,,,,,,,,,,,,,,,,,,,,,,,,,,,,,,,,,,,,,,,,,,,,,,,,,,,,,,,,,,,,,,,,,,,,,,,,,,,,,,,,,,,,,,,,,,,,,,,,,,,,,,,,,,,,,,,,,,,,,,,,,,
,,,,,,6084b716b457b6296f61778e,62c53a3dcbc302299560b855,2022-07-06_08h31.18.083,Colour_Asymmetry_Pilot,2022.1.3,MacIntel,60.0024001,62c50e9c1127f2cd403a315f,0,102,102,161,1,onethree,,,,,,,,,,,,,,,,,,,,,,,,,,,,,,,,,,,,,,,,,,,,,,,,,,,,,,,,,,,,,,,,,,,,,,,,,,,,,,,,,,,,,,,,,,,,,,,,,,,,,,,,,,,,,,,,,,,,,,,,,,,,,,,,,,,,,,,,,,,,,,,,,,,,,,,,,,,,,
,,,,,,6084b716b457b6296f61778e,62c53a3dcbc302299560b855,2022-07-06_08h31.18.083,Colour_Asymmetry_Pilot,2022.1.3,MacIntel,60.0024001,62c50e9c1127f2cd403a315f,0,103,103,117,1,threefour,,,,,,,,,,,,,,,,,,,,,,,,,,,,,,,,,,,,,,,,,,,,,,,,,,,,,,,,,,,,,,,,,,,,,,,,,,,,,,,,,,,,,,,,,,,,,,,,,,,,,,,,,,,,,,,,,,,,,,,,,,,,,,,,,,,,,,,,,,,,,,,,,,,,,,,,,,,,,
,,,,,,6084b716b457b6296f61778e,62c53a3dcbc302299560b855,2022-07-06_08h31.18.083,Colour_Asymmetry_Pilot,2022.1.3,MacIntel,60.0024001,62c50e9c1127f2cd403a315f,0,104,104,67,1,twofour,,,,,,,,,,,,,,,,,,,,,,,,,,,,,,,,,,,,,,,,,,,,,,,,,,,,,,,,,,,,,,,,,,,,,,,,,,,,,,,,,,,,,,,,,,,,,,,,,,,,,,,,,,,,,,,,,,,,,,,,,,,,,,,,,,,,,,,,,,,,,,,,,,,,,,,,,,,,,
,,,,,,6084b716b457b6296f61778e,62c53a3dcbc302299560b855,2022-07-06_08h31.18.083,Colour_Asymmetry_Pilot,2022.1.3,MacIntel,60.0024001,62c50e9c1127f2cd403a315f,0,105,105,30,1,fourtwo,,,,,,,,,,,,,,,,,,,,,,,,,,,,,,,,,,,,,,,,,,,,,,,,,,,,,,,,,,,,,,,,,,,,,,,,,,,,,,,,,,,,,,,,,,,,,,,,,,,,,,,,,,,,,,,,,,,,,,,,,,,,,,,,,,,,,,,,,,,,,,,,,,,,,,,,,,,,,
,,,,,,6084b716b457b6296f61778e,62c53a3dcbc302299560b855,2022-07-06_08h31.18.083,Colour_Asymmetry_Pilot,2022.1.3,MacIntel,60.0024001,62c50e9c1127f2cd403a315f,0,106,106,73,1,onethree,,,,,,,,,,,,,,,,,,,,,,,,,,,,,,,,,,,,,,,,,,,,,,,,,,,,,,,,,,,,,,,,,,,,,,,,,,,,,,,,,,,,,,,,,,,,,,,,,,,,,,,,,,,,,,,,,,,,,,,,,,,,,,,,,,,,,,,,,,,,,,,,,,,,,,,,,,,,,
,,,,,,6084b716b457b6296f61778e,62c53a3dcbc302299560b855,2022-07-06_08h31.18.083,Colour_Asymmetry_Pilot,2022.1.3,MacIntel,60.0024001,62c50e9c1127f2cd403a315f,0,107,107,155,1,twofour,,,,,,,,,,,,,,,,,,,,,,,,,,,,,,,,,,,,,,,,,,,,,,,,,,,,,,,,,,,,,,,,,,,,,,,,,,,,,,,,,,,,,,,,,,,,,,,,,,,,,,,,,,,,,,,,,,,,,,,,,,,,,,,,,,,,,,,,,,,,,,,,,,,,,,,,,,,,,
,,,,,,6084b716b457b6296f61778e,62c53a3dcbc302299560b855,2022-07-06_08h31.18.083,Colour_Asymmetry_Pilot,2022.1.3,MacIntel,60.0024001,62c50e9c1127f2cd403a315f,0,108,108,122,1,twoone,,,,,,,,,,,,,,,,,,,,,,,,,,,,,,,,,,,,,,,,,,,,,,,,,,,,,,,,,,,,,,,,,,,,,,,,,,,,,,,,,,,,,,,,,,,,,,,,,,,,,,,,,,,,,,,,,,,,,,,,,,,,,,,,,,,,,,,,,,,,,,,,,,,,,,,,,,,,,
,,,,,,6084b716b457b6296f61778e,62c53a3dcbc302299560b855,2022-07-06_08h31.18.083,Colour_Asymmetry_Pilot,2022.1.3,MacIntel,60.0024001,62c50e9c1127f2cd403a315f,0,109,109,104,1,onetwo,,,,,,,,,,,,,,,,,,,,,,,,,,,,,,,,,,,,,,,,,,,,,,,,,,,,,,,,,,,,,,,,,,,,,,,,,,,,,,,,,,,,,,,,,,,,,,,,,,,,,,,,,,,,,,,,,,,,,,,,,,,,,,,,,,,,,,,,,,,,,,,,,,,,,,,,,,,,,
,,,,,,6084b716b457b6296f61778e,62c53a3dcbc302299560b855,2022-07-06_08h31.18.083,Colour_Asymmetry_Pilot,2022.1.3,MacIntel,60.0024001,62c50e9c1127f2cd403a315f,0,110,110,46,1,fourtwo,,,,,,,,,,,,,,,,,,,,,,,,,,,,,,,,,,,,,,,,,,,,,,,,,,,,,,,,,,,,,,,,,,,,,,,,,,,,,,,,,,,,,,,,,,,,,,,,,,,,,,,,,,,,,,,,,,,,,,,,,,,,,,,,,,,,,,,,,,,,,,,,,,,,,,,,,,,,,
,,,,,,6084b716b457b6296f61778e,62c53a3dcbc302299560b855,2022-07-06_08h31.18.083,Colour_Asymmetry_Pilot,2022.1.3,MacIntel,60.0024001,62c50e9c1127f2cd403a315f,0,111,111,96,1,onetwo,,,,,,,,,,,,,,,,,,,,,,,,,,,,,,,,,,,,,,,,,,,,,,,,,,,,,,,,,,,,,,,,,,,,,,,,,,,,,,,,,,,,,,,,,,,,,,,,,,,,,,,,,,,,,,,,,,,,,,,,,,,,,,,,,,,,,,,,,,,,,,,,,,,,,,,,,,,,,
,,,,,,6084b716b457b6296f61778e,62c53a3dcbc302299560b855,2022-07-06_08h31.18.083,Colour_Asymmetry_Pilot,2022.1.3,MacIntel,60.0024001,62c50e9c1127f2cd403a315f,0,112,112,41,1,onethree,,,,,,,,,,,,,,,,,,,,,,,,,,,,,,,,,,,,,,,,,,,,,,,,,,,,,,,,,,,,,,,,,,,,,,,,,,,,,,,,,,,,,,,,,,,,,,,,,,,,,,,,,,,,,,,,,,,,,,,,,,,,,,,,,,,,,,,,,,,,,,,,,,,,,,,,,,,,,
,,,,,,6084b716b457b6296f61778e,62c53a3dcbc302299560b855,2022-07-06_08h31.18.083,Colour_Asymmetry_Pilot,2022.1.3,MacIntel,60.0024001,62c50e9c1127f2cd403a315f,0,113,113,16,1,onetwo,,,,,,,,,,,,,,,,,,,,,,,,,,,,,,,,,,,,,,,,,,,,,,,,,,,,,,,,,,,,,,,,,,,,,,,,,,,,,,,,,,,,,,,,,,,,,,,,,,,,,,,,,,,,,,,,,,,,,,,,,,,,,,,,,,,,,,,,,,,,,,,,,,,,,,,,,,,,,
,,,,,,6084b716b457b6296f61778e,62c53a3dcbc302299560b855,2022-07-06_08h31.18.083,Colour_Asymmetry_Pilot,2022.1.3,MacIntel,60.0024001,62c50e9c1127f2cd403a315f,0,114,114,86,1,fourtwo,,,,,,,,,,,,,,,,,,,,,,,,,,,,,,,,,,,,,,,,,,,,,,,,,,,,,,,,,,,,,,,,,,,,,,,,,,,,,,,,,,,,,,,,,,,,,,,,,,,,,,,,,,,,,,,,,,,,,,,,,,,,,,,,,,,,,,,,,,,,,,,,,,,,,,,,,,,,,
,,,,,,6084b716b457b6296f61778e,62c53a3dcbc302299560b855,2022-07-06_08h31.18.083,Colour_Asymmetry_Pilot,2022.1.3,MacIntel,60.0024001,62c50e9c1127f2cd403a315f,0,115,115,51,1,twofour,,,,,,,,,,,,,,,,,,,,,,,,,,,,,,,,,,,,,,,,,,,,,,,,,,,,,,,,,,,,,,,,,,,,,,,,,,,,,,,,,,,,,,,,,,,,,,,,,,,,,,,,,,,,,,,,,,,,,,,,,,,,,,,,,,,,,,,,,,,,,,,,,,,,,,,,,,,,,
,,,,,,6084b716b457b6296f61778e,62c53a3dcbc302299560b855,2022-07-06_08h31.18.083,Colour_Asymmetry_Pilot,2022.1.3,MacIntel,60.0024001,62c50e9c1127f2cd403a315f,0,116,116,141,1,threefour,,,,,,,,,,,,,,,,,,,,,,,,,,,,,,,,,,,,,,,,,,,,,,,,,,,,,,,,,,,,,,,,,,,,,,,,,,,,,,,,,,,,,,,,,,,,,,,,,,,,,,,,,,,,,,,,,,,,,,,,,,,,,,,,,,,,,,,,,,,,,,,,,,,,,,,,,,,,,
,,,,,,6084b716b457b6296f61778e,62c53a3dcbc302299560b855,2022-07-06_08h31.18.083,Colour_Asymmetry_Pilot,2022.1.3,MacIntel,60.0024001,62c50e9c1127f2cd403a315f,0,117,117,105,1,onethree,,,,,,,,,,,,,,,,,,,,,,,,,,,,,,,,,,,,,,,,,,,,,,,,,,,,,,,,,,,,,,,,,,,,,,,,,,,,,,,,,,,,,,,,,,,,,,,,,,,,,,,,,,,,,,,,,,,,,,,,,,,,,,,,,,,,,,,,,,,,,,,,,,,,,,,,,,,,,
,,,,,,6084b716b457b6296f61778e,62c53a3dcbc302299560b855,2022-07-06_08h31.18.083,Colour_Asymmetry_Pilot,2022.1.3,MacIntel,60.0024001,62c50e9c1127f2cd403a315f,0,118,118,61,1,threefour,,,,,,,,,,,,,,,,,,,,,,,,,,,,,,,,,,,,,,,,,,,,,,,,,,,,,,,,,,,,,,,,,,,,,,,,,,,,,,,,,,,,,,,,,,,,,,,,,,,,,,,,,,,,,,,,,,,,,,,,,,,,,,,,,,,,,,,,,,,,,,,,,,,,,,,,,,,,,
,,,,,,6084b716b457b6296f61778e,62c53a3dcbc302299560b855,2022-07-06_08h31.18.083,Colour_Asymmetry_Pilot,2022.1.3,MacIntel,60.0024001,62c50e9c1127f2cd403a315f,0,119,119,135,1,fourthree,,,,,,,,,,,,,,,,,,,,,,,,,,,,,,,,,,,,,,,,,,,,,,,,,,,,,,,,,,,,,,,,,,,,,,,,,,,,,,,,,,,,,,,,,,,,,,,,,,,,,,,,,,,,,,,,,,,,,,,,,,,,,,,,,,,,,,,,,,,,,,,,,,,,,,,,,,,,,
,,,,,,6084b716b457b6296f61778e,62c53a3dcbc302299560b855,2022-07-06_08h31.18.083,Colour_Asymmetry_Pilot,2022.1.3,MacIntel,60.0024001,62c50e9c1127f2cd403a315f,0,120,120,147,1,twofour,,,,,,,,,,,,,,,,,,,,,,,,,,,,,,,,,,,,,,,,,,,,,,,,,,,,,,,,,,,,,,,,,,,,,,,,,,,,,,,,,,,,,,,,,,,,,,,,,,,,,,,,,,,,,,,,,,,,,,,,,,,,,,,,,,,,,,,,,,,,,,,,,,,,,,,,,,,,,
,,,,,,6084b716b457b6296f61778e,62c53a3dcbc302299560b855,2022-07-06_08h31.18.083,Colour_Asymmetry_Pilot,2022.1.3,MacIntel,60.0024001,62c50e9c1127f2cd403a315f,0,121,121,19,1,twofour,,,,,,,,,,,,,,,,,,,,,,,,,,,,,,,,,,,,,,,,,,,,,,,,,,,,,,,,,,,,,,,,,,,,,,,,,,,,,,,,,,,,,,,,,,,,,,,,,,,,,,,,,,,,,,,,,,,,,,,,,,,,,,,,,,,,,,,,,,,,,,,,,,,,,,,,,,,,,
,,,,,,6084b716b457b6296f61778e,62c53a3dcbc302299560b855,2022-07-06_08h31.18.083,Colour_Asymmetry_Pilot,2022.1.3,MacIntel,60.0024001,62c50e9c1127f2cd403a315f,0,122,122,10,1,twoone,,,,,,,,,,,,,,,,,,,,,,,,,,,,,,,,,,,,,,,,,,,,,,,,,,,,,,,,,,,,,,,,,,,,,,,,,,,,,,,,,,,,,,,,,,,,,,,,,,,,,,,,,,,,,,,,,,,,,,,,,,,,,,,,,,,,,,,,,,,,,,,,,,,,,,,,,,,,,
,,,,,,6084b716b457b6296f61778e,62c53a3dcbc302299560b855,2022-07-06_08h31.18.083,Colour_Asymmetry_Pilot,2022.1.3,MacIntel,60.0024001,62c50e9c1127f2cd403a315f,0,123,123,20,1,threeone,,,,,,,,,,,,,,,,,,,,,,,,,,,,,,,,,,,,,,,,,,,,,,,,,,,,,,,,,,,,,,,,,,,,,,,,,,,,,,,,,,,,,,,,,,,,,,,,,,,,,,,,,,,,,,,,,,,,,,,,,,,,,,,,,,,,,,,,,,,,,,,,,,,,,,,,,,,,,
,,,,,,6084b716b457b6296f61778e,62c53a3dcbc302299560b855,2022-07-06_08h31.18.083,Colour_Asymmetry_Pilot,2022.1.3,MacIntel,60.0024001,62c50e9c1127f2cd403a315f,0,124,124,150,1,fourtwo,,,,,,,,,,,,,,,,,,,,,,,,,,,,,,,,,,,,,,,,,,,,,,,,,,,,,,,,,,,,,,,,,,,,,,,,,,,,,,,,,,,,,,,,,,,,,,,,,,,,,,,,,,,,,,,,,,,,,,,,,,,,,,,,,,,,,,,,,,,,,,,,,,,,,,,,,,,,,
,,,,,,6084b716b457b6296f61778e,62c53a3dcbc302299560b855,2022-07-06_08h31.18.083,Colour_Asymmetry_Pilot,2022.1.3,MacIntel,60.0024001,62c50e9c1127f2cd403a315f,0,125,125,110,1,fourtwo,,,,,,,,,,,,,,,,,,,,,,,,,,,,,,,,,,,,,,,,,,,,,,,,,,,,,,,,,,,,,,,,,,,,,,,,,,,,,,,,,,,,,,,,,,,,,,,,,,,,,,,,,,,,,,,,,,,,,,,,,,,,,,,,,,,,,,,,,,,,,,,,,,,,,,,,,,,,,
,,,,,,6084b716b457b6296f61778e,62c53a3dcbc302299560b855,2022-07-06_08h31.18.083,Colour_Asymmetry_Pilot,2022.1.3,MacIntel,60.0024001,62c50e9c1127f2cd403a315f,0,126,126,57,1,onethree,,,,,,,,,,,,,,,,,,,,,,,,,,,,,,,,,,,,,,,,,,,,,,,,,,,,,,,,,,,,,,,,,,,,,,,,,,,,,,,,,,,,,,,,,,,,,,,,,,,,,,,,,,,,,,,,,,,,,,,,,,,,,,,,,,,,,,,,,,,,,,,,,,,,,,,,,,,,,
,,,,,,6084b716b457b6296f61778e,62c53a3dcbc302299560b855,2022-07-06_08h31.18.083,Colour_Asymmetry_Pilot,2022.1.3,MacIntel,60.0024001,62c50e9c1127f2cd403a315f,0,127,127,98,1,twoone,,,,,,,,,,,,,,,,,,,,,,,,,,,,,,,,,,,,,,,,,,,,,,,,,,,,,,,,,,,,,,,,,,,,,,,,,,,,,,,,,,,,,,,,,,,,,,,,,,,,,,,,,,,,,,,,,,,,,,,,,,,,,,,,,,,,,,,,,,,,,,,,,,,,,,,,,,,,,
,,,,,,6084b716b457b6296f61778e,62c53a3dcbc302299560b855,2022-07-06_08h31.18.083,Colour_Asymmetry_Pilot,2022.1.3,MacIntel,60.0024001,62c50e9c1127f2cd403a315f,0,128,128,160,1,onetwo,,,,,,,,,,,,,,,,,,,,,,,,,,,,,,,,,,,,,,,,,,,,,,,,,,,,,,,,,,,,,,,,,,,,,,,,,,,,,,,,,,,,,,,,,,,,,,,,,,,,,,,,,,,,,,,,,,,,,,,,,,,,,,,,,,,,,,,,,,,,,,,,,,,,,,,,,,,,,
,,,,,,6084b716b457b6296f61778e,62c53a3dcbc302299560b855,2022-07-06_08h31.18.083,Colour_Asymmetry_Pilot,2022.1.3,MacIntel,60.0024001,62c50e9c1127f2cd403a315f,0,129,129,106,1,twoone,,,,,,,,,,,,,,,,,,,,,,,,,,,,,,,,,,,,,,,,,,,,,,,,,,,,,,,,,,,,,,,,,,,,,,,,,,,,,,,,,,,,,,,,,,,,,,,,,,,,,,,,,,,,,,,,,,,,,,,,,,,,,,,,,,,,,,,,,,,,,,,,,,,,,,,,,,,,,
,,,,,,6084b716b457b6296f61778e,62c53a3dcbc302299560b855,2022-07-06_08h31.18.083,Colour_Asymmetry_Pilot,2022.1.3,MacIntel,60.0024001,62c50e9c1127f2cd403a315f,0,130,130,95,1,fourthree,,,,,,,,,,,,,,,,,,,,,,,,,,,,,,,,,,,,,,,,,,,,,,,,,,,,,,,,,,,,,,,,,,,,,,,,,,,,,,,,,,,,,,,,,,,,,,,,,,,,,,,,,,,,,,,,,,,,,,,,,,,,,,,,,,,,,,,,,,,,,,,,,,,,,,,,,,,,,
,,,,,,6084b716b457b6296f61778e,62c53a3dcbc302299560b855,2022-07-06_08h31.18.083,Colour_Asymmetry_Pilot,2022.1.3,MacIntel,60.0024001,62c50e9c1127f2cd403a315f,0,131,131,22,1,fourtwo,,,,,,,,,,,,,,,,,,,,,,,,,,,,,,,,,,,,,,,,,,,,,,,,,,,,,,,,,,,,,,,,,,,,,,,,,,,,,,,,,,,,,,,,,,,,,,,,,,,,,,,,,,,,,,,,,,,,,,,,,,,,,,,,,,,,,,,,,,,,,,,,,,,,,,,,,,,,,
,,,,,,6084b716b457b6296f61778e,62c53a3dcbc302299560b855,2022-07-06_08h31.18.083,Colour_Asymmetry_Pilot,2022.1.3,MacIntel,60.0024001,62c50e9c1127f2cd403a315f,0,132,132,108,1,threeone,,,,,,,,,,,,,,,,,,,,,,,,,,,,,,,,,,,,,,,,,,,,,,,,,,,,,,,,,,,,,,,,,,,,,,,,,,,,,,,,,,,,,,,,,,,,,,,,,,,,,,,,,,,,,,,,,,,,,,,,,,,,,,,,,,,,,,,,,,,,,,,,,,,,,,,,,,,,,
,,,,,,6084b716b457b6296f61778e,62c53a3dcbc302299560b855,2022-07-06_08h31.18.083,Colour_Asymmetry_Pilot,2022.1.3,MacIntel,60.0024001,62c50e9c1127f2cd403a315f,0,133,133,15,1,fourthree,,,,,,,,,,,,,,,,,,,,,,,,,,,,,,,,,,,,,,,,,,,,,,,,,,,,,,,,,,,,,,,,,,,,,,,,,,,,,,,,,,,,,,,,,,,,,,,,,,,,,,,,,,,,,,,,,,,,,,,,,,,,,,,,,,,,,,,,,,,,,,,,,,,,,,,,,,,,,
,,,,,,6084b716b457b6296f61778e,62c53a3dcbc302299560b855,2022-07-06_08h31.18.083,Colour_Asymmetry_Pilot,2022.1.3,MacIntel,60.0024001,62c50e9c1127f2cd403a315f,0,134,134,71,1,fourthree,,,,,,,,,,,,,,,,,,,,,,,,,,,,,,,,,,,,,,,,,,,,,,,,,,,,,,,,,,,,,,,,,,,,,,,,,,,,,,,,,,,,,,,,,,,,,,,,,,,,,,,,,,,,,,,,,,,,,,,,,,,,,,,,,,,,,,,,,,,,,,,,,,,,,,,,,,,,,
,,,,,,6084b716b457b6296f61778e,62c53a3dcbc302299560b855,2022-07-06_08h31.18.083,Colour_Asymmetry_Pilot,2022.1.3,MacIntel,60.0024001,62c50e9c1127f2cd403a315f,0,135,135,62,1,fourtwo,,,,,,,,,,,,,,,,,,,,,,,,,,,,,,,,,,,,,,,,,,,,,,,,,,,,,,,,,,,,,,,,,,,,,,,,,,,,,,,,,,,,,,,,,,,,,,,,,,,,,,,,,,,,,,,,,,,,,,,,,,,,,,,,,,,,,,,,,,,,,,,,,,,,,,,,,,,,,
,,,,,,6084b716b457b6296f61778e,62c53a3dcbc302299560b855,2022-07-06_08h31.18.083,Colour_Asymmetry_Pilot,2022.1.3,MacIntel,60.0024001,62c50e9c1127f2cd403a315f,0,136,136,151,1,fourthree,,,,,,,,,,,,,,,,,,,,,,,,,,,,,,,,,,,,,,,,,,,,,,,,,,,,,,,,,,,,,,,,,,,,,,,,,,,,,,,,,,,,,,,,,,,,,,,,,,,,,,,,,,,,,,,,,,,,,,,,,,,,,,,,,,,,,,,,,,,,,,,,,,,,,,,,,,,,,
,,,,,,6084b716b457b6296f61778e,62c53a3dcbc302299560b855,2022-07-06_08h31.18.083,Colour_Asymmetry_Pilot,2022.1.3,MacIntel,60.0024001,62c50e9c1127f2cd403a315f,0,137,137,101,1,threefour,,,,,,,,,,,,,,,,,,,,,,,,,,,,,,,,,,,,,,,,,,,,,,,,,,,,,,,,,,,,,,,,,,,,,,,,,,,,,,,,,,,,,,,,,,,,,,,,,,,,,,,,,,,,,,,,,,,,,,,,,,,,,,,,,,,,,,,,,,,,,,,,,,,,,,,,,,,,,
,,,,,,6084b716b457b6296f61778e,62c53a3dcbc302299560b855,2022-07-06_08h31.18.083,Colour_Asymmetry_Pilot,2022.1.3,MacIntel,60.0024001,62c50e9c1127f2cd403a315f,0,138,138,154,1,twoone,,,,,,,,,,,,,,,,,,,,,,,,,,,,,,,,,,,,,,,,,,,,,,,,,,,,,,,,,,,,,,,,,,,,,,,,,,,,,,,,,,,,,,,,,,,,,,,,,,,,,,,,,,,,,,,,,,,,,,,,,,,,,,,,,,,,,,,,,,,,,,,,,,,,,,,,,,,,,
,,,,,,6084b716b457b6296f61778e,62c53a3dcbc302299560b855,2022-07-06_08h31.18.083,Colour_Asymmetry_Pilot,2022.1.3,MacIntel,60.0024001,62c50e9c1127f2cd403a315f,0,139,139,65,1,onethree,,,,,,,,,,,,,,,,,,,,,,,,,,,,,,,,,,,,,,,,,,,,,,,,,,,,,,,,,,,,,,,,,,,,,,,,,,,,,,,,,,,,,,,,,,,,,,,,,,,,,,,,,,,,,,,,,,,,,,,,,,,,,,,,,,,,,,,,,,,,,,,,,,,,,,,,,,,,,
,,,,,,6084b716b457b6296f61778e,62c53a3dcbc302299560b855,2022-07-06_08h31.18.083,Colour_Asymmetry_Pilot,2022.1.3,MacIntel,60.0024001,62c50e9c1127f2cd403a315f,0,140,140,33,1,onethree,,,,,,,,,,,,,,,,,,,,,,,,,,,,,,,,,,,,,,,,,,,,,,,,,,,,,,,,,,,,,,,,,,,,,,,,,,,,,,,,,,,,,,,,,,,,,,,,,,,,,,,,,,,,,,,,,,,,,,,,,,,,,,,,,,,,,,,,,,,,,,,,,,,,,,,,,,,,,
,,,,,,6084b716b457b6296f61778e,62c53a3dcbc302299560b855,2022-07-06_08h31.18.083,Colour_Asymmetry_Pilot,2022.1.3,MacIntel,60.0024001,62c50e9c1127f2cd403a315f,0,141,141,153,1,onethree,,,,,,,,,,,,,,,,,,,,,,,,,,,,,,,,,,,,,,,,,,,,,,,,,,,,,,,,,,,,,,,,,,,,,,,,,,,,,,,,,,,,,,,,,,,,,,,,,,,,,,,,,,,,,,,,,,,,,,,,,,,,,,,,,,,,,,,,,,,,,,,,,,,,,,,,,,,,,
,,,,,,6084b716b457b6296f61778e,62c53a3dcbc302299560b855,2022-07-06_08h31.18.083,Colour_Asymmetry_Pilot,2022.1.3,MacIntel,60.0024001,62c50e9c1127f2cd403a315f,0,142,142,11,1,twofour,,,,,,,,,,,,,,,,,,,,,,,,,,,,,,,,,,,,,,,,,,,,,,,,,,,,,,,,,,,,,,,,,,,,,,,,,,,,,,,,,,,,,,,,,,,,,,,,,,,,,,,,,,,,,,,,,,,,,,,,,,,,,,,,,,,,,,,,,,,,,,,,,,,,,,,,,,,,,
,,,,,,6084b716b457b6296f61778e,62c53a3dcbc302299560b855,2022-07-06_08h31.18.083,Colour_Asymmetry_Pilot,2022.1.3,MacIntel,60.0024001,62c50e9c1127f2cd403a315f,0,143,143,152,1,onetwo,,,,,,,,,,,,,,,,,,,,,,,,,,,,,,,,,,,,,,,,,,,,,,,,,,,,,,,,,,,,,,,,,,,,,,,,,,,,,,,,,,,,,,,,,,,,,,,,,,,,,,,,,,,,,,,,,,,,,,,,,,,,,,,,,,,,,,,,,,,,,,,,,,,,,,,,,,,,,
,,,,,,6084b716b457b6296f61778e,62c53a3dcbc302299560b855,2022-07-06_08h31.18.083,Colour_Asymmetry_Pilot,2022.1.3,MacIntel,60.0024001,62c50e9c1127f2cd403a315f,0,144,144,134,1,fourtwo,,,,,,,,,,,,,,,,,,,,,,,,,,,,,,,,,,,,,,,,,,,,,,,,,,,,,,,,,,,,,,,,,,,,,,,,,,,,,,,,,,,,,,,,,,,,,,,,,,,,,,,,,,,,,,,,,,,,,,,,,,,,,,,,,,,,,,,,,,,,,,,,,,,,,,,,,,,,,
,,,,,,6084b716b457b6296f61778e,62c53a3dcbc302299560b855,2022-07-06_08h31.18.083,Colour_Asymmetry_Pilot,2022.1.3,MacIntel,60.0024001,62c50e9c1127f2cd403a315f,0,145,145,126,1,fourtwo,,,,,,,,,,,,,,,,,,,,,,,,,,,,,,,,,,,,,,,,,,,,,,,,,,,,,,,,,,,,,,,,,,,,,,,,,,,,,,,,,,,,,,,,,,,,,,,,,,,,,,,,,,,,,,,,,,,,,,,,,,,,,,,,,,,,,,,,,,,,,,,,,,,,,,,,,,,,,
,,,,,,6084b716b457b6296f61778e,62c53a3dcbc302299560b855,2022-07-06_08h31.18.083,Colour_Asymmetry_Pilot,2022.1.3,MacIntel,60.0024001,62c50e9c1127f2cd403a315f,0,146,146,159,1,fourthree,,,,,,,,,,,,,,,,,,,,,,,,,,,,,,,,,,,,,,,,,,,,,,,,,,,,,,,,,,,,,,,,,,,,,,,,,,,,,,,,,,,,,,,,,,,,,,,,,,,,,,,,,,,,,,,,,,,,,,,,,,,,,,,,,,,,,,,,,,,,,,,,,,,,,,,,,,,,,
,,,,,,6084b716b457b6296f61778e,62c53a3dcbc302299560b855,2022-07-06_08h31.18.083,Colour_Asymmetry_Pilot,2022.1.3,MacIntel,60.0024001,62c50e9c1127f2cd403a315f,0,147,147,5,1,threefour,,,,,,,,,,,,,,,,,,,,,,,,,,,,,,,,,,,,,,,,,,,,,,,,,,,,,,,,,,,,,,,,,,,,,,,,,,,,,,,,,,,,,,,,,,,,,,,,,,,,,,,,,,,,,,,,,,,,,,,,,,,,,,,,,,,,,,,,,,,,,,,,,,,,,,,,,,,,,
,,,,,,6084b716b457b6296f61778e,62c53a3dcbc302299560b855,2022-07-06_08h31.18.083,Colour_Asymmetry_Pilot,2022.1.3,MacIntel,60.0024001,62c50e9c1127f2cd403a315f,0,148,148,148,1,threeone,,,,,,,,,,,,,,,,,,,,,,,,,,,,,,,,,,,,,,,,,,,,,,,,,,,,,,,,,,,,,,,,,,,,,,,,,,,,,,,,,,,,,,,,,,,,,,,,,,,,,,,,,,,,,,,,,,,,,,,,,,,,,,,,,,,,,,,,,,,,,,,,,,,,,,,,,,,,,
,,,,,,6084b716b457b6296f61778e,62c53a3dcbc302299560b855,2022-07-06_08h31.18.083,Colour_Asymmetry_Pilot,2022.1.3,MacIntel,60.0024001,62c50e9c1127f2cd403a315f,0,149,149,85,1,threefour,,,,,,,,,,,,,,,,,,,,,,,,,,,,,,,,,,,,,,,,,,,,,,,,,,,,,,,,,,,,,,,,,,,,,,,,,,,,,,,,,,,,,,,,,,,,,,,,,,,,,,,,,,,,,,,,,,,,,,,,,,,,,,,,,,,,,,,,,,,,,,,,,,,,,,,,,,,,,
,,,,,,6084b716b457b6296f61778e,62c53a3dcbc302299560b855,2022-07-06_08h31.18.083,Colour_Asymmetry_Pilot,2022.1.3,MacIntel,60.0024001,62c50e9c1127f2cd403a315f,0,150,150,1,1,onethree,,,,,,,,,,,,,,,,,,,,,,,,,,,,,,,,,,,,,,,,,,,,,,,,,,,,,,,,,,,,,,,,,,,,,,,,,,,,,,,,,,,,,,,,,,,,,,,,,,,,,,,,,,,,,,,,,,,,,,,,,,,,,,,,,,,,,,,,,,,,,,,,,,,,,,,,,,,,,
,,,,,,6084b716b457b6296f61778e,62c53a3dcbc302299560b855,2022-07-06_08h31.18.083,Colour_Asymmetry_Pilot,2022.1.3,MacIntel,60.0024001,62c50e9c1127f2cd403a315f,0,151,151,76,1,threeone,,,,,,,,,,,,,,,,,,,,,,,,,,,,,,,,,,,,,,,,,,,,,,,,,,,,,,,,,,,,,,,,,,,,,,,,,,,,,,,,,,,,,,,,,,,,,,,,,,,,,,,,,,,,,,,,,,,,,,,,,,,,,,,,,,,,,,,,,,,,,,,,,,,,,,,,,,,,,
,,,,,,6084b716b457b6296f61778e,62c53a3dcbc302299560b855,2022-07-06_08h31.18.083,Colour_Asymmetry_Pilot,2022.1.3,MacIntel,60.0024001,62c50e9c1127f2cd403a315f,0,152,152,59,1,twofour,,,,,,,,,,,,,,,,,,,,,,,,,,,,,,,,,,,,,,,,,,,,,,,,,,,,,,,,,,,,,,,,,,,,,,,,,,,,,,,,,,,,,,,,,,,,,,,,,,,,,,,,,,,,,,,,,,,,,,,,,,,,,,,,,,,,,,,,,,,,,,,,,,,,,,,,,,,,,
,,,,,,6084b716b457b6296f61778e,62c53a3dcbc302299560b855,2022-07-06_08h31.18.083,Colour_Asymmetry_Pilot,2022.1.3,MacIntel,60.0024001,62c50e9c1127f2cd403a315f,0,153,153,111,1,fourthree,,,,,,,,,,,,,,,,,,,,,,,,,,,,,,,,,,,,,,,,,,,,,,,,,,,,,,,,,,,,,,,,,,,,,,,,,,,,,,,,,,,,,,,,,,,,,,,,,,,,,,,,,,,,,,,,,,,,,,,,,,,,,,,,,,,,,,,,,,,,,,,,,,,,,,,,,,,,,
,,,,,,6084b716b457b6296f61778e,62c53a3dcbc302299560b855,2022-07-06_08h31.18.083,Colour_Asymmetry_Pilot,2022.1.3,MacIntel,60.0024001,62c50e9c1127f2cd403a315f,0,154,154,157,1,threefour,,,,,,,,,,,,,,,,,,,,,,,,,,,,,,,,,,,,,,,,,,,,,,,,,,,,,,,,,,,,,,,,,,,,,,,,,,,,,,,,,,,,,,,,,,,,,,,,,,,,,,,,,,,,,,,,,,,,,,,,,,,,,,,,,,,,,,,,,,,,,,,,,,,,,,,,,,,,,
,,,,,,6084b716b457b6296f61778e,62c53a3dcbc302299560b855,2022-07-06_08h31.18.083,Colour_Asymmetry_Pilot,2022.1.3,MacIntel,60.0024001,62c50e9c1127f2cd403a315f,0,155,155,114,1,twoone,,,,,,,,,,,,,,,,,,,,,,,,,,,,,,,,,,,,,,,,,,,,,,,,,,,,,,,,,,,,,,,,,,,,,,,,,,,,,,,,,,,,,,,,,,,,,,,,,,,,,,,,,,,,,,,,,,,,,,,,,,,,,,,,,,,,,,,,,,,,,,,,,,,,,,,,,,,,,
,,,,,,6084b716b457b6296f61778e,62c53a3dcbc302299560b855,2022-07-06_08h31.18.083,Colour_Asymmetry_Pilot,2022.1.3,MacIntel,60.0024001,62c50e9c1127f2cd403a315f,0,156,156,142,1,fourtwo,,,,,,,,,,,,,,,,,,,,,,,,,,,,,,,,,,,,,,,,,,,,,,,,,,,,,,,,,,,,,,,,,,,,,,,,,,,,,,,,,,,,,,,,,,,,,,,,,,,,,,,,,,,,,,,,,,,,,,,,,,,,,,,,,,,,,,,,,,,,,,,,,,,,,,,,,,,,,
,,,,,,6084b716b457b6296f61778e,62c53a3dcbc302299560b855,2022-07-06_08h31.18.083,Colour_Asymmetry_Pilot,2022.1.3,MacIntel,60.0024001,62c50e9c1127f2cd403a315f,0,157,157,119,1,fourthree,,,,,,,,,,,,,,,,,,,,,,,,,,,,,,,,,,,,,,,,,,,,,,,,,,,,,,,,,,,,,,,,,,,,,,,,,,,,,,,,,,,,,,,,,,,,,,,,,,,,,,,,,,,,,,,,,,,,,,,,,,,,,,,,,,,,,,,,,,,,,,,,,,,,,,,,,,,,,
,,,,,,6084b716b457b6296f61778e,62c53a3dcbc302299560b855,2022-07-06_08h31.18.083,Colour_Asymmetry_Pilot,2022.1.3,MacIntel,60.0024001,62c50e9c1127f2cd403a315f,0,158,158,139,1,twofour,,,,,,,,,,,,,,,,,,,,,,,,,,,,,,,,,,,,,,,,,,,,,,,,,,,,,,,,,,,,,,,,,,,,,,,,,,,,,,,,,,,,,,,,,,,,,,,,,,,,,,,,,,,,,,,,,,,,,,,,,,,,,,,,,,,,,,,,,,,,,,,,,,,,,,,,,,,,,
,,,,,,6084b716b457b6296f61778e,62c53a3dcbc302299560b855,2022-07-06_08h31.18.083,Colour_Asymmetry_Pilot,2022.1.3,MacIntel,60.0024001,62c50e9c1127f2cd403a315f,0,159,159,38,1,fourtwo,,,,,,,,,,,,,,,,,,,,,,,,,,,,,,,,,,,,,,,,,,,,,,,,,,,,,,,,,,,,,,,,,,,,,,,,,,,,,,,,,,,,,,,,,,,,,,,,,,,,,,,,,,,,,,,,,,,,,,,,,,,,,,,,,,,,,,,,,,,,,,,,,,,,,,,,,,,,,
,,,,,,6084b716b457b6296f61778e,62c53a3dcbc302299560b855,2022-07-06_08h31.18.083,Colour_Asymmetry_Pilot,2022.1.3,MacIntel,60.0024001,62c50e9c1127f2cd403a315f,0,160,160,91,1,twofour,,,,,,,,,,,,,,,,,,,,,,,,,,,,,,,,,,,,,,,,,,,,,,,,,,,,,,,,,,,,,,,,,,,,,,,,,,,,,,,,,,,,,,,,,,,,,,,,,,,,,,,,,,,,,,,,,,,,,,,,,,,,,,,,,,,,,,,,,,,,,,,,,,,,,,,,,,,,,
,,,,,,6084b716b457b6296f61778e,62c53a3dcbc302299560b855,2022-07-06_08h31.18.083,Colour_Asymmetry_Pilot,2022.1.3,MacIntel,60.0024001,62c50e9c1127f2cd403a315f,0,161,161,125,1,threefour,,,,,,,,,,,,,,,,,,,,,,,,,,,,,,,,,,,,,,,,,,,,,,,,,,,,,,,,,,,,,,,,,,,,,,,,,,,,,,,,,,,,,,,,,,,,,,,,,,,,,,,,,,,,,,,,,,,,,,,,,,,,,,,,,,,,,,,,,,,,,,,,,,,,,,,,,,,,,
,,,,,,6084b716b457b6296f61778e,62c53a3dcbc302299560b855,2022-07-06_08h31.18.083,Colour_Asymmetry_Pilot,2022.1.3,MacIntel,60.0024001,62c50e9c1127f2cd403a315f,,,,,,,space,1.9159,space,12.2315,space,38.3642,space,4.12,space,5.1405,space,4.2472,"[0.3802000000000001,0.19199999999999995,-0.6394]",threefour,"[0.19199999999999995,0.18419999999999992,0.5136000000000001]",-2,10.7768,-91.60546875,-31.7421875,1,0,0,response5disk_5,7.73046875,-14.203125,1,0,0,rectangle_8,7.73046875,-14.203125,1,0,0,3,7.73046875,-14.203125,1,0,0,0,0,0,0,1,,,,,,,,,,,,,,,,,,,,,,,,,,,,,,,,,,,,,,,,,,,,,,,,,,,,,,,,,,,,,,,,,,,,,,,,,,,,,,,,,,,,,,,,,,,,,,,,,,,,,,,,,,,,,,,,
,,,,,,6084b716b457b6296f61778e,62c53a3dcbc302299560b855,2022-07-06_08h31.18.083,Colour_Asymmetry_Pilot,2022.1.3,MacIntel,60.0024001,62c50e9c1127f2cd403a315f,,,,,,,,,,,,,,,,,,,"[-0.9766,-0.34920000000000007,0.2156]",twoone,"[-0.6942,-0.7648,-0.12959999999999994]",3,6.1823,109.0234375,47.8671875,1,0,0,response1disk_5,20.78515625,-12.0234375,1,0,0,rectangle_8,150.6835938,51.09765625,1,0,0,3,-5.0234375,-15.66015625,1,0,0,1,0,1,0,1,response1disk_7,6,rectangle_4,,,,,,,,,,,,,,,,,,,,,,,,,,,,,,,,,,,,,,,,,,,,,,,,,,,,,,,,,,,,,,,,,,,,,,,,,,,,,,,,,,,,,,,,,,,,,,,,,,,,,,,,,,,,,
,,,,,,6084b716b457b6296f61778e,62c53a3dcbc302299560b855,2022-07-06_08h31.18.083,Colour_Asymmetry_Pilot,2022.1.3,MacIntel,60.0024001,62c50e9c1127f2cd403a315f,,,,,,,,,,,,,,,,,,,"[-0.45899999999999996,-0.3256,-0.9374]",fourtwo,"[0.8115999999999999,-0.0040000000000000036,-0.09819999999999995]",-4,2.2165,-83.046875,97.8671875,1,0,0,response7disk_5,-14.359375,-2.4921875,1,0,0,rectangle_8,102.7421875,35.9140625,1,0,0,3,-2.3359375,-8.72265625,1,0,0,2,0,2,0,1,response1disk_7,6,rectangle_4,,,,,,,,,,,,,,,,,,,,,,,,,,,,,,,,,,,,,,,,,,,,,,,,,,,,,,,,,,,,,,,,,,,,,,,,,,,,,,,,,,,,,,,,,,,,,,,,,,,,,,,,,,,,,
,,,,,,6084b716b457b6296f61778e,62c53a3dcbc302299560b855,2022-07-06_08h31.18.083,Colour_Asymmetry_Pilot,2022.1.3,MacIntel,60.0024001,62c50e9c1127f2cd403a315f,,,,,,,,,,,,,,,,,,,"[-0.17659999999999998,-0.2864,-0.8354]",twofour,"[0.3802000000000001,0.19199999999999995,-0.6394]",1,1.7989,41.68359375,-110.0117188,1,0,0,response3disk_5,-0.34375,-4.64453125,1,0,0,rectangle_8,-0.34375,-4.64453125,1,0,0,3,-0.34375,-4.64453125,1,0,0,3,0,3,0,1,,,,,,,,,,,,,,,,,,,,,,,,,,,,,,,,,,,,,,,,,,,,,,,,,,,,,,,,,,,,,,,,,,,,,,,,,,,,,,,,,,,,,,,,,,,,,,,,,,,,,,,,,,,,,,,,
,,,,,,6084b716b457b6296f61778e,62c53a3dcbc302299560b855,2022-07-06_08h31.18.083,Colour_Asymmetry_Pilot,2022.1.3,MacIntel,60.0024001,62c50e9c1127f2cd403a315f,,,,,,,,,,,,,,,,,,,"[-0.24719999999999998,-0.0354000000000001,0.3175999999999999]",fourthree,"[-0.6,0.16860000000000008,0.44300000000000006]",3,1.1996,86.17578125,40.2265625,1,0,0,response1disk_5,2.63671875,0.2890625,1,0,0,rectangle_8,2.63671875,0.2890625,1,0,0,3,2.63671875,0.2890625,1,0,0,4,0,4,0,1,,,,,,,,,,,,,,,,,,,,,,,,,,,,,,,,,,,,,,,,,,,,,,,,,,,,,,,,,,,,,,,,,,,,,,,,,,,,,,,,,,,,,,,,,,,,,,,,,,,,,,,,,,,,,,,,
,,,,,,6084b716b457b6296f61778e,62c53a3dcbc302299560b855,2022-07-06_08h31.18.083,Colour_Asymmetry_Pilot,2022.1.3,MacIntel,60.0024001,62c50e9c1127f2cd403a315f,,,,,,,,,,,,,,,,,,,"[0.2862,0.7802,0.3568]",fourtwo,"[0.2784,-0.31000000000000005,-0.5452]",-1,4.8504,-38.9765625,-127.828125,1,0,0,response5disk_5,13.84765625,-16.7890625,1,0,0,rectangle_8,13.84765625,-16.7890625,1,0,0,3,13.84765625,-16.7890625,1,0,0,5,0,5,0,1,,,,,,,,,,,,,,,,,,,,,,,,,,,,,,,,,,,,,,,,,,,,,,,,,,,,,,,,,,,,,,,,,,,,,,,,,,,,,,,,,,,,,,,,,,,,,,,,,,,,,,,,,,,,,,,,
,,,,,,6084b716b457b6296f61778e,62c53a3dcbc302299560b855,2022-07-06_08h31.18.083,Colour_Asymmetry_Pilot,2022.1.3,MacIntel,60.0024001,62c50e9c1127f2cd403a315f,,,,,,,,,,,,,,,,,,,"[0.37240000000000006,-0.050999999999999934,-0.5216]",onetwo,"[0.9372,0.9450000000000001,0.8980000000000001]",-4,1.3324,-57.98828125,97.22265625,1,0,0,response7disk_5,11.296875,-9.0390625,1,0,0,rectangle_8,11.296875,-9.0390625,1,0,0,3,11.296875,-9.0390625,1,0,0,6,0,6,0,1,,,,,,,,,,,,,,,,,,,,,,,,,,,,,,,,,,,,,,,,,,,,,,,,,,,,,,,,,,,,,,,,,,,,,,,,,,,,,,,,,,,,,,,,,,,,,,,,,,,,,,,,,,,,,,,,
,,,,,,6084b716b457b6296f61778e,62c53a3dcbc302299560b855,2022-07-06_08h31.18.083,Colour_Asymmetry_Pilot,2022.1.3,MacIntel,60.0024001,62c50e9c1127f2cd403a315f,,,,,,,,,,,,,,,,,,,,threeone,,-2,1.1331,,,,,,,,,,,,,,,,,,,,,,,,,,,,,,,,space,3.4912,"[-0.9766,-0.34920000000000007,0.2156]","[0.40379999999999994,0.09000000000000008,0.44300000000000006]",-86.37890625,-56.4375,1,0,0,response5disk,22.6328125,0.7109375,1,0,0,rectangle,22.6328125,0.7109375,1,0,0,,2,0.0015,0,22.6328125,0.7109375,1,0,0,0,0,0,44,1,44,first,,,,,,,,,,,,,,,,,,,,,,,,,,,,,,,,,,,,,,,,,,,,,,,,,,,,,,,,,,,,,,,,,,,,,,,,
,,,,,,6084b716b457b6296f61778e,62c53a3dcbc302299560b855,2022-07-06_08h31.18.083,Colour_Asymmetry_Pilot,2022.1.3,MacIntel,60.0024001,62c50e9c1127f2cd403a315f,,,,,,,,,,,,,,,,,,,,fourthree,,-4,1.2492,,,,,,,,,,,,,,,,,,,,,,,,,,,,,,,,,,"[-0.011800000000000033,-0.906,-0.45100000000000007]","[0.22340000000000004,-0.9296,-0.7884]",-56.96875,71.41015625,1,0,0,response7disk,24.6171875,-15.4765625,1,0,0,rectangle,24.6171875,-15.4765625,1,0,0,,2,0.0004,0,24.6171875,-15.4765625,1,0,0,0,1,1,47,1,47,first,,,,,,,,,,,,,,,,,,,,,,,,,,,,,,,,,,,,,,,,,,,,,,,,,,,,,,,,,,,,,,,,,,,,,,,,
,,,,,,6084b716b457b6296f61778e,62c53a3dcbc302299560b855,2022-07-06_08h31.18.083,Colour_Asymmetry_Pilot,2022.1.3,MacIntel,60.0024001,62c50e9c1127f2cd403a315f,,,,,,,,,,,,,,,,,,,,threeone,,-3,0.5339,,,,,,,,,,,,,,,,,,,,,,,,,,,,,,,,,,"[-0.5688,-0.08239999999999992,-0.1844]","[0.23120000000000007,-0.7726,-0.34120000000000006]",-87.328125,60.5078125,1,0,0,response7disk,25.08984375,-7.8515625,1,0,0,rectangle,25.08984375,-7.8515625,1,0,0,,2,0.0001,0,25.08984375,-7.8515625,1,0,0,0,2,2,132,1,51,second,,,,,,,,,,,,,,,,,,,,,,,,,,,,,,,,,,,,,,,,,,,,,,,,,,,,,,,,,,,,,,,,,,,,,,,,
,,,,,,6084b716b457b6296f61778e,62c53a3dcbc302299560b855,2022-07-06_08h31.18.083,Colour_Asymmetry_Pilot,2022.1.3,MacIntel,60.0024001,62c50e9c1127f2cd403a315f,,,,,,,,,,,,,,,,,,,,threeone,,-4,0.8345,,,,,,,,,,,,,,,,,,,,,,,,,,,,,,,,,,"[0.6625999999999999,0.4980000000000002,-0.357]","[-0.38039999999999996,-0.4276,-0.1452]",-51.07421875,82.40234375,1,0,0,response7disk,26.73828125,-13.109375,1,0,0,rectangle,26.73828125,-13.109375,1,0,0,,1,0.0006,0,26.73828125,-13.109375,1,0,0,0,3,3,2,1,2,first,,,,,,,,,,,,,,,,,,,,,,,,,,,,,,,,,,,,,,,,,,,,,,,,,,,,,,,,,,,,,,,,,,,,,,,,
,,,,,,6084b716b457b6296f61778e,62c53a3dcbc302299560b855,2022-07-06_08h31.18.083,Colour_Asymmetry_Pilot,2022.1.3,MacIntel,60.0024001,62c50e9c1127f2cd403a315f,,,,,,,,,,,,,,,,,,,,twoone,,1,1.0337,,,,,,,,,,,,,,,,,,,,,,,,,,,,,,,,,,"[-0.8198,-0.5138,-0.7492000000000001]","[0.9842,0.7409999999999999,-0.6628000000000001]",62.0703125,-143.1601563,1,0,0,response3disk,3.08984375,7.54296875,1,0,0,rectangle,3.08984375,7.54296875,1,0,0,,1,0.0002,0,3.08984375,7.54296875,1,0,0,0,4,4,75,1,75,first,,,,,,,,,,,,,,,,,,,,,,,,,,,,,,,,,,,,,,,,,,,,,,,,,,,,,,,,,,,,,,,,,,,,,,,,
,,,,,,6084b716b457b6296f61778e,62c53a3dcbc302299560b855,2022-07-06_08h31.18.083,Colour_Asymmetry_Pilot,2022.1.3,MacIntel,60.0024001,62c50e9c1127f2cd403a315f,,,,,,,,,,,,,,,,,,,,fourtwo,,2,2.2158,,,,,,,,,,,,,,,,,,,,,,,,,,,,,,,,,,"[0.05879999999999996,0.2784,0.5841999999999998]","[0.09799999999999986,-0.24719999999999998,0.15280000000000005]",111.0078125,-70.87109375,1,0,0,response3disk,5.5078125,5.4140625,1,0,0,rectangle,5.5078125,5.4140625,1,0,0,,1,0.0001,0,5.5078125,5.4140625,1,0,0,0,5,5,134,1,53,second,,,,,,,,,,,,,,,,,,,,,,,,,,,,,,,,,,,,,,,,,,,,,,,,,,,,,,,,,,,,,,,,,,,,,,,,
,,,,,,6084b716b457b6296f61778e,62c53a3dcbc302299560b855,2022-07-06_08h31.18.083,Colour_Asymmetry_Pilot,2022.1.3,MacIntel,60.0024001,62c50e9c1127f2cd403a315f,,,,,,,,,,,,,,,,,,,,onethree,,-4,0.4837,,,,,,,,,,,,,,,,,,,,,,,,,,,,,,,,,,"[-0.9766,-0.34920000000000007,0.2156]","[-0.45899999999999996,-0.3256,-0.9374]",-85.55859375,120.9648438,1,0,0,response7disk,14.16015625,-9.44140625,1,0,0,rectangle,14.16015625,-9.44140625,1,0,0,,3,0.0013,0,14.16015625,-9.44140625,1,0,0,0,6,6,89,1,8,second,,,,,,,,,,,,,,,,,,,,,,,,,,,,,,,,,,,,,,,,,,,,,,,,,,,,,,,,,,,,,,,,,,,,,,,,
,,,,,,6084b716b457b6296f61778e,62c53a3dcbc302299560b855,2022-07-06_08h31.18.083,Colour_Asymmetry_Pilot,2022.1.3,MacIntel,60.0024001,62c50e9c1127f2cd403a315f,,,,,,,,,,,,,,,,,,,,twofour,,-4,1.8833,,,,,,,,,,,,,,,,,,,,,,,,,,,,,,,,,,"[-0.45899999999999996,-0.3256,-0.9374]","[-0.9766,-0.34920000000000007,0.2156]",-60.4921875,113.8476563,1,0,0,response7disk,-15.43359375,-11.00390625,1,0,0,rectangle,-15.43359375,-11.00390625,1,0,0,,3,0.0002,0,-15.43359375,-11.00390625,1,0,0,0,7,7,8,1,8,first,,,,,,,,,,,,,,,,,,,,,,,,,,,,,,,,,,,,,,,,,,,,,,,,,,,,,,,,,,,,,,,,,,,,,,,,
,,,,,,6084b716b457b6296f61778e,62c53a3dcbc302299560b855,2022-07-06_08h31.18.083,Colour_Asymmetry_Pilot,2022.1.3,MacIntel,60.0024001,62c50e9c1127f2cd403a315f,,,,,,,,,,,,,,,,,,,,twofour,,-4,0.6007,,,,,,,,,,,,,,,,,,,,,,,,,,,,,,,,,,"[-0.38039999999999996,-0.4276,-0.1452]","[0.6625999999999999,0.4980000000000002,-0.357]",-29.015625,77.68359375,1,0,0,response7disk,-1.64453125,3.12890625,1,0,0,rectangle,-1.64453125,3.12890625,1,0,0,,3,0.0003,0,-1.64453125,3.12890625,1,0,0,0,8,8,83,1,2,second,,,,,,,,,,,,,,,,,,,,,,,,,,,,,,,,,,,,,,,,,,,,,,,,,,,,,,,,,,,,,,,,,,,,,,,,
,,,,,,6084b716b457b6296f61778e,62c53a3dcbc302299560b855,2022-07-06_08h31.18.083,Colour_Asymmetry_Pilot,2022.1.3,MacIntel,60.0024001,62c50e9c1127f2cd403a315f,,,,,,,,,,,,,,,,,,,,onetwo,,-4,1.4681,,,,,,,,,,,,,,,,,,,,,,,,,,,,,,,,,,"[-0.2942,-0.24719999999999998,-0.357]","[0.7802,-0.23140000000000005,-0.20799999999999996]",-49.96875,104.875,1,0,0,response7disk,-1.88671875,1.33203125,1,0,0,rectangle,-1.88671875,1.33203125,1,0,0,,3,0.0002,0,-1.88671875,1.33203125,1,0,0,0,9,9,21,1,21,first,,,,,,,,,,,,,,,,,,,,,,,,,,,,,,,,,,,,,,,,,,,,,,,,,,,,,,,,,,,,,,,,,,,,,,,,
,,,,,,6084b716b457b6296f61778e,62c53a3dcbc302299560b855,2022-07-06_08h31.18.083,Colour_Asymmetry_Pilot,2022.1.3,MacIntel,60.0024001,62c50e9c1127f2cd403a315f,,,,,,,,,,,,,,,,,,,,threeone,,1,1.6173,,,,,,,,,,,,,,,,,,,,,,,,,,,,,,,,,,"[0.9763999999999999,0.30979999999999985,-0.6786]","[0.30180000000000007,-0.7884,-0.9844]",38.76953125,-129.2460938,1,0,0,response3disk,6.24609375,7.06640625,1,0,0,rectangle,6.24609375,7.06640625,1,0,0,,1,0.0014,0,6.24609375,7.06640625,1,0,0,0,10,10,106,1,25,second,,,,,,,,,,,,,,,,,,,,,,,,,,,,,,,,,,,,,,,,,,,,,,,,,,,,,,,,,,,,,,,,,,,,,,,,
,,,,,,6084b716b457b6296f61778e,62c53a3dcbc302299560b855,2022-07-06_08h31.18.083,Colour_Asymmetry_Pilot,2022.1.3,MacIntel,60.0024001,62c50e9c1127f2cd403a315f,,,,,,,,,,,,,,,,,,,,onetwo,,1,1.3335,,,,,,,,,,,,,,,,,,,,,,,,,,,,,,,,,,"[-0.9296,-0.12959999999999994,-0.043199999999999905]","[-0.0040000000000000036,0.02739999999999987,-0.08239999999999992]",38.3671875,-90.16796875,1,0,0,response3disk,-5.44921875,7.03515625,1,0,0,rectangle,-5.44921875,7.03515625,1,0,0,,3,0.0007,0,-5.44921875,7.03515625,1,0,0,0,11,11,71,1,71,first,,,,,,,,,,,,,,,,,,,,,,,,,,,,,,,,,,,,,,,,,,,,,,,,,,,,,,,,,,,,,,,,,,,,,,,,
,,,,,,6084b716b457b6296f61778e,62c53a3dcbc302299560b855,2022-07-06_08h31.18.083,Colour_Asymmetry_Pilot,2022.1.3,MacIntel,60.0024001,62c50e9c1127f2cd403a315f,,,,,,,,,,,,,,,,,,,,threefour,,2,1.7988,,,,,,,,,,,,,,,,,,,,,,,,,,,,,,,,,,"[-0.4276,0.0038000000000000256,-0.3256]","[-0.9296,-0.12959999999999994,-0.043199999999999905]",165.109375,-94.734375,1,0,0,response3disk,28.1640625,-5.5234375,1,0,0,rectangle,28.1640625,-5.5234375,1,0,0,,1,0.0011,0,28.1640625,-5.5234375,1,0,0,0,12,12,88,1,7,second,,,,,,,,,,,,,,,,,,,,,,,,,,,,,,,,,,,,,,,,,,,,,,,,,,,,,,,,,,,,,,,,,,,,,,,,
,,,,,,6084b716b457b6296f61778e,62c53a3dcbc302299560b855,2022-07-06_08h31.18.083,Colour_Asymmetry_Pilot,2022.1.3,MacIntel,60.0024001,62c50e9c1127f2cd403a315f,,,,,,,,,,,,,,,,,,,,onetwo,,-4,1.0163,,,,,,,,,,,,,,,,,,,,,,,,,,,,,,,,,,"[-0.9688,-0.4902000000000001,-0.12159999999999993]","[-0.0040000000000000036,0.02739999999999987,-0.08239999999999992]",-46.37890625,71.21484375,1,0,0,response7disk,-14.0390625,-12.60546875,1,0,0,rectangle,-14.0390625,-12.60546875,1,0,0,,2,0.0018,0,-14.0390625,-12.60546875,1,0,0,0,13,13,13,1,13,first,,,,,,,,,,,,,,,,,,,,,,,,,,,,,,,,,,,,,,,,,,,,,,,,,,,,,,,,,,,,,,,,,,,,,,,,
