trials.thisRepN,trials.thisTrialN,trials.thisN,trials.thisIndex,trials.ran,Colourcodes,participant,session,date,expName,psychopyVersion,OS,frameRate,study_id,trials_4.thisRepN,trials_4.thisTrialN,trials_4.thisN,trials_4.thisIndex,trials_4.ran,StimulusPos,key_resp.keys,key_resp.rt,key_resp_2.keys,key_resp_2.rt,key_resp_15.keys,key_resp_15.rt,key_resp_17.keys,key_resp_17.rt,key_resp_9.keys,key_resp_9.rt,key_resp_10.keys,key_resp_10.rt,Circle1_col,Ecc,Circle2_col,similarity,response_time,mouse_5.x,mouse_5.y,mouse_5.leftButton,mouse_5.midButton,mouse_5.rightButton,mouse_5.clicked_name,mouse_10.x,mouse_10.y,mouse_10.leftButton,mouse_10.midButton,mouse_10.rightButton,mouse_10.clicked_name,mouse_7.x,mouse_7.y,mouse_7.leftButton,mouse_7.midButton,mouse_7.rightButton,catchnumberprac,mouse_6.x,mouse_6.y,mouse_6.leftButton,mouse_6.midButton,mouse_6.rightButton,duringprac.thisRepN,duringprac.thisTrialN,duringprac.thisN,duringprac.thisIndex,duringprac.ran,mouse_7.clicked_name,catchprac,mouse_6.clicked_name,key_resp_22.keys,key_resp_22.rt,Circle1_colour,Circle2_colour,mouse.x,mouse.y,mouse.leftButton,mouse.midButton,mouse.rightButton,mouse.clicked_name,mouse_2.x,mouse_2.y,mouse_2.leftButton,mouse_2.midButton,mouse_2.rightButton,mouse_2.clicked_name,mouse_3.x,mouse_3.y,mouse_3.leftButton,mouse_3.midButton,mouse_3.rightButton,catchresponse,catchnumber,response_time_catch,Catch,mouse_11.x,mouse_11.y,mouse_11.leftButton,mouse_11.midButton,mouse_11.rightButton,trials_2.thisRepN,trials_2.thisTrialN,trials_2.thisN,trials_2.thisIndex,trials_2.ran,Colourpair,Temporder,mouse_3.clicked_name,mouse_11.clicked_name,trials_3.thisRepN,trials_3.thisTrialN,trials_3.thisN,trials_3.thisIndex,trials_3.ran,key_resp_instr_Ishi.keys,key_resp_instr_Ishi.rt,Ishi_trial_keyresp.keys,Ishi_textbox.text,Ishi_mouse.x,Ishi_mouse.y,Ishi_mouse.leftButton,Ishi_mouse.midButton,Ishi_mouse.rightButton,Ishi_mouse.clicked_name,Ishi_loop.thisRepN,Ishi_loop.thisTrialN,Ishi_loop.thisN,Ishi_loop.thisIndex,Ishi_loop.ran,imageaddress,textbox.text,mouse_4.x,mouse_4.y,mouse_4.leftButton,mouse_4.midButton,mouse_4.rightButton,mouse_4.clicked_name,textbox_2.text,mouse_8.x,mouse_8.y,mouse_8.leftButton,mouse_8.midButton,mouse_8.rightButton,mouse_8.clicked_name,textbox_3.text,mouse_9.x,mouse_9.y,mouse_9.leftButton,mouse_9.midButton,mouse_9.rightButton,mouse_9.clicked_name,textbox_4.text,mouse_12.x,mouse_12.y,mouse_12.leftButton,mouse_12.midButton,mouse_12.rightButton,mouse_12.clicked_name,textbox_5.text,mouse_13.x,mouse_13.y,mouse_13.leftButton,mouse_13.midButton,mouse_13.rightButton,mouse_13.clicked_name,textbox_6.text,mouse_14.x,mouse_14.y,mouse_14.leftButton,mouse_14.midButton,mouse_14.rightButton,mouse_14.clicked_name,textbox_7.text,mouse_15.x,mouse_15.y,mouse_15.leftButton,mouse_15.midButton,mouse_15.rightButton,mouse_15.clicked_name
0,0,0,14,1,,5eb40100664e991f800b5853,62c538ed78010d410adab9dc,2022-07-06_09h25.51.865,Colour_Asymmetry_Pilot,2022.1.3,Win32,59.48839976,62c50e9c1127f2cd403a315f,,,,,,,,,,,,,,,,,,,,,,,,,,,,,,,,,,,,,,,,,,,,,,,,,,,,,,,,,,,,,,,,,,,,,,,,,,,,,,,,,,,,,,,,,,,,,,,,,,,,,,,,,,,,,,,,,,,,,,,,,,,,,,,,,,,,,,,,,,,,,,,,,,,,,,,,,,,,,,,,,,,
0,1,1,79,1,,5eb40100664e991f800b5853,62c538ed78010d410adab9dc,2022-07-06_09h25.51.865,Colour_Asymmetry_Pilot,2022.1.3,Win32,59.48839976,62c50e9c1127f2cd403a315f,,,,,,,,,,,,,,,,,,,,,,,,,,,,,,,,,,,,,,,,,,,,,,,,,,,,,,,,,,,,,,,,,,,,,,,,,,,,,,,,,,,,,,,,,,,,,,,,,,,,,,,,,,,,,,,,,,,,,,,,,,,,,,,,,,,,,,,,,,,,,,,,,,,,,,,,,,,,,,,,,,,
0,2,2,8,1,,5eb40100664e991f800b5853,62c538ed78010d410adab9dc,2022-07-06_09h25.51.865,Colour_Asymmetry_Pilot,2022.1.3,Win32,59.48839976,62c50e9c1127f2cd403a315f,,,,,,,,,,,,,,,,,,,,,,,,,,,,,,,,,,,,,,,,,,,,,,,,,,,,,,,,,,,,,,,,,,,,,,,,,,,,,,,,,,,,,,,,,,,,,,,,,,,,,,,,,,,,,,,,,,,,,,,,,,,,,,,,,,,,,,,,,,,,,,,,,,,,,,,,,,,,,,,,,,,
0,3,3,43,1,,5eb40100664e991f800b5853,62c538ed78010d410adab9dc,2022-07-06_09h25.51.865,Colour_Asymmetry_Pilot,2022.1.3,Win32,59.48839976,62c50e9c1127f2cd403a315f,,,,,,,,,,,,,,,,,,,,,,,,,,,,,,,,,,,,,,,,,,,,,,,,,,,,,,,,,,,,,,,,,,,,,,,,,,,,,,,,,,,,,,,,,,,,,,,,,,,,,,,,,,,,,,,,,,,,,,,,,,,,,,,,,,,,,,,,,,,,,,,,,,,,,,,,,,,,,,,,,,,
0,4,4,16,1,,5eb40100664e991f800b5853,62c538ed78010d410adab9dc,2022-07-06_09h25.51.865,Colour_Asymmetry_Pilot,2022.1.3,Win32,59.48839976,62c50e9c1127f2cd403a315f,,,,,,,,,,,,,,,,,,,,,,,,,,,,,,,,,,,,,,,,,,,,,,,,,,,,,,,,,,,,,,,,,,,,,,,,,,,,,,,,,,,,,,,,,,,,,,,,,,,,,,,,,,,,,,,,,,,,,,,,,,,,,,,,,,,,,,,,,,,,,,,,,,,,,,,,,,,,,,,,,,,
0,5,5,63,1,,5eb40100664e991f800b5853,62c538ed78010d410adab9dc,2022-07-06_09h25.51.865,Colour_Asymmetry_Pilot,2022.1.3,Win32,59.48839976,62c50e9c1127f2cd403a315f,,,,,,,,,,,,,,,,,,,,,,,,,,,,,,,,,,,,,,,,,,,,,,,,,,,,,,,,,,,,,,,,,,,,,,,,,,,,,,,,,,,,,,,,,,,,,,,,,,,,,,,,,,,,,,,,,,,,,,,,,,,,,,,,,,,,,,,,,,,,,,,,,,,,,,,,,,,,,,,,,,,
0,6,6,4,1,,5eb40100664e991f800b5853,62c538ed78010d410adab9dc,2022-07-06_09h25.51.865,Colour_Asymmetry_Pilot,2022.1.3,Win32,59.48839976,62c50e9c1127f2cd403a315f,,,,,,,,,,,,,,,,,,,,,,,,,,,,,,,,,,,,,,,,,,,,,,,,,,,,,,,,,,,,,,,,,,,,,,,,,,,,,,,,,,,,,,,,,,,,,,,,,,,,,,,,,,,,,,,,,,,,,,,,,,,,,,,,,,,,,,,,,,,,,,,,,,,,,,,,,,,,,,,,,,,
0,7,7,9,1,,5eb40100664e991f800b5853,62c538ed78010d410adab9dc,2022-07-06_09h25.51.865,Colour_Asymmetry_Pilot,2022.1.3,Win32,59.48839976,62c50e9c1127f2cd403a315f,,,,,,,,,,,,,,,,,,,,,,,,,,,,,,,,,,,,,,,,,,,,,,,,,,,,,,,,,,,,,,,,,,,,,,,,,,,,,,,,,,,,,,,,,,,,,,,,,,,,,,,,,,,,,,,,,,,,,,,,,,,,,,,,,,,,,,,,,,,,,,,,,,,,,,,,,,,,,,,,,,,
0,8,8,49,1,,5eb40100664e991f800b5853,62c538ed78010d410adab9dc,2022-07-06_09h25.51.865,Colour_Asymmetry_Pilot,2022.1.3,Win32,59.48839976,62c50e9c1127f2cd403a315f,,,,,,,,,,,,,,,,,,,,,,,,,,,,,,,,,,,,,,,,,,,,,,,,,,,,,,,,,,,,,,,,,,,,,,,,,,,,,,,,,,,,,,,,,,,,,,,,,,,,,,,,,,,,,,,,,,,,,,,,,,,,,,,,,,,,,,,,,,,,,,,,,,,,,,,,,,,,,,,,,,,
0,9,9,54,1,,5eb40100664e991f800b5853,62c538ed78010d410adab9dc,2022-07-06_09h25.51.865,Colour_Asymmetry_Pilot,2022.1.3,Win32,59.48839976,62c50e9c1127f2cd403a315f,,,,,,,,,,,,,,,,,,,,,,,,,,,,,,,,,,,,,,,,,,,,,,,,,,,,,,,,,,,,,,,,,,,,,,,,,,,,,,,,,,,,,,,,,,,,,,,,,,,,,,,,,,,,,,,,,,,,,,,,,,,,,,,,,,,,,,,,,,,,,,,,,,,,,,,,,,,,,,,,,,,
0,10,10,83,1,,5eb40100664e991f800b5853,62c538ed78010d410adab9dc,2022-07-06_09h25.51.865,Colour_Asymmetry_Pilot,2022.1.3,Win32,59.48839976,62c50e9c1127f2cd403a315f,,,,,,,,,,,,,,,,,,,,,,,,,,,,,,,,,,,,,,,,,,,,,,,,,,,,,,,,,,,,,,,,,,,,,,,,,,,,,,,,,,,,,,,,,,,,,,,,,,,,,,,,,,,,,,,,,,,,,,,,,,,,,,,,,,,,,,,,,,,,,,,,,,,,,,,,,,,,,,,,,,,
0,11,11,91,1,,5eb40100664e991f800b5853,62c538ed78010d410adab9dc,2022-07-06_09h25.51.865,Colour_Asymmetry_Pilot,2022.1.3,Win32,59.48839976,62c50e9c1127f2cd403a315f,,,,,,,,,,,,,,,,,,,,,,,,,,,,,,,,,,,,,,,,,,,,,,,,,,,,,,,,,,,,,,,,,,,,,,,,,,,,,,,,,,,,,,,,,,,,,,,,,,,,,,,,,,,,,,,,,,,,,,,,,,,,,,,,,,,,,,,,,,,,,,,,,,,,,,,,,,,,,,,,,,,
0,12,12,77,1,,5eb40100664e991f800b5853,62c538ed78010d410adab9dc,2022-07-06_09h25.51.865,Colour_Asymmetry_Pilot,2022.1.3,Win32,59.48839976,62c50e9c1127f2cd403a315f,,,,,,,,,,,,,,,,,,,,,,,,,,,,,,,,,,,,,,,,,,,,,,,,,,,,,,,,,,,,,,,,,,,,,,,,,,,,,,,,,,,,,,,,,,,,,,,,,,,,,,,,,,,,,,,,,,,,,,,,,,,,,,,,,,,,,,,,,,,,,,,,,,,,,,,,,,,,,,,,,,,
0,13,13,28,1,,5eb40100664e991f800b5853,62c538ed78010d410adab9dc,2022-07-06_09h25.51.865,Colour_Asymmetry_Pilot,2022.1.3,Win32,59.48839976,62c50e9c1127f2cd403a315f,,,,,,,,,,,,,,,,,,,,,,,,,,,,,,,,,,,,,,,,,,,,,,,,,,,,,,,,,,,,,,,,,,,,,,,,,,,,,,,,,,,,,,,,,,,,,,,,,,,,,,,,,,,,,,,,,,,,,,,,,,,,,,,,,,,,,,,,,,,,,,,,,,,,,,,,,,,,,,,,,,,
0,14,14,73,1,,5eb40100664e991f800b5853,62c538ed78010d410adab9dc,2022-07-06_09h25.51.865,Colour_Asymmetry_Pilot,2022.1.3,Win32,59.48839976,62c50e9c1127f2cd403a315f,,,,,,,,,,,,,,,,,,,,,,,,,,,,,,,,,,,,,,,,,,,,,,,,,,,,,,,,,,,,,,,,,,,,,,,,,,,,,,,,,,,,,,,,,,,,,,,,,,,,,,,,,,,,,,,,,,,,,,,,,,,,,,,,,,,,,,,,,,,,,,,,,,,,,,,,,,,,,,,,,,,
0,15,15,75,1,,5eb40100664e991f800b5853,62c538ed78010d410adab9dc,2022-07-06_09h25.51.865,Colour_Asymmetry_Pilot,2022.1.3,Win32,59.48839976,62c50e9c1127f2cd403a315f,,,,,,,,,,,,,,,,,,,,,,,,,,,,,,,,,,,,,,,,,,,,,,,,,,,,,,,,,,,,,,,,,,,,,,,,,,,,,,,,,,,,,,,,,,,,,,,,,,,,,,,,,,,,,,,,,,,,,,,,,,,,,,,,,,,,,,,,,,,,,,,,,,,,,,,,,,,,,,,,,,,
0,16,16,59,1,,5eb40100664e991f800b5853,62c538ed78010d410adab9dc,2022-07-06_09h25.51.865,Colour_Asymmetry_Pilot,2022.1.3,Win32,59.48839976,62c50e9c1127f2cd403a315f,,,,,,,,,,,,,,,,,,,,,,,,,,,,,,,,,,,,,,,,,,,,,,,,,,,,,,,,,,,,,,,,,,,,,,,,,,,,,,,,,,,,,,,,,,,,,,,,,,,,,,,,,,,,,,,,,,,,,,,,,,,,,,,,,,,,,,,,,,,,,,,,,,,,,,,,,,,,,,,,,,,
0,17,17,92,1,,5eb40100664e991f800b5853,62c538ed78010d410adab9dc,2022-07-06_09h25.51.865,Colour_Asymmetry_Pilot,2022.1.3,Win32,59.48839976,62c50e9c1127f2cd403a315f,,,,,,,,,,,,,,,,,,,,,,,,,,,,,,,,,,,,,,,,,,,,,,,,,,,,,,,,,,,,,,,,,,,,,,,,,,,,,,,,,,,,,,,,,,,,,,,,,,,,,,,,,,,,,,,,,,,,,,,,,,,,,,,,,,,,,,,,,,,,,,,,,,,,,,,,,,,,,,,,,,,
0,18,18,55,1,,5eb40100664e991f800b5853,62c538ed78010d410adab9dc,2022-07-06_09h25.51.865,Colour_Asymmetry_Pilot,2022.1.3,Win32,59.48839976,62c50e9c1127f2cd403a315f,,,,,,,,,,,,,,,,,,,,,,,,,,,,,,,,,,,,,,,,,,,,,,,,,,,,,,,,,,,,,,,,,,,,,,,,,,,,,,,,,,,,,,,,,,,,,,,,,,,,,,,,,,,,,,,,,,,,,,,,,,,,,,,,,,,,,,,,,,,,,,,,,,,,,,,,,,,,,,,,,,,
0,19,19,74,1,,5eb40100664e991f800b5853,62c538ed78010d410adab9dc,2022-07-06_09h25.51.865,Colour_Asymmetry_Pilot,2022.1.3,Win32,59.48839976,62c50e9c1127f2cd403a315f,,,,,,,,,,,,,,,,,,,,,,,,,,,,,,,,,,,,,,,,,,,,,,,,,,,,,,,,,,,,,,,,,,,,,,,,,,,,,,,,,,,,,,,,,,,,,,,,,,,,,,,,,,,,,,,,,,,,,,,,,,,,,,,,,,,,,,,,,,,,,,,,,,,,,,,,,,,,,,,,,,,
0,20,20,32,1,,5eb40100664e991f800b5853,62c538ed78010d410adab9dc,2022-07-06_09h25.51.865,Colour_Asymmetry_Pilot,2022.1.3,Win32,59.48839976,62c50e9c1127f2cd403a315f,,,,,,,,,,,,,,,,,,,,,,,,,,,,,,,,,,,,,,,,,,,,,,,,,,,,,,,,,,,,,,,,,,,,,,,,,,,,,,,,,,,,,,,,,,,,,,,,,,,,,,,,,,,,,,,,,,,,,,,,,,,,,,,,,,,,,,,,,,,,,,,,,,,,,,,,,,,,,,,,,,,
0,21,21,31,1,,5eb40100664e991f800b5853,62c538ed78010d410adab9dc,2022-07-06_09h25.51.865,Colour_Asymmetry_Pilot,2022.1.3,Win32,59.48839976,62c50e9c1127f2cd403a315f,,,,,,,,,,,,,,,,,,,,,,,,,,,,,,,,,,,,,,,,,,,,,,,,,,,,,,,,,,,,,,,,,,,,,,,,,,,,,,,,,,,,,,,,,,,,,,,,,,,,,,,,,,,,,,,,,,,,,,,,,,,,,,,,,,,,,,,,,,,,,,,,,,,,,,,,,,,,,,,,,,,
0,22,22,61,1,,5eb40100664e991f800b5853,62c538ed78010d410adab9dc,2022-07-06_09h25.51.865,Colour_Asymmetry_Pilot,2022.1.3,Win32,59.48839976,62c50e9c1127f2cd403a315f,,,,,,,,,,,,,,,,,,,,,,,,,,,,,,,,,,,,,,,,,,,,,,,,,,,,,,,,,,,,,,,,,,,,,,,,,,,,,,,,,,,,,,,,,,,,,,,,,,,,,,,,,,,,,,,,,,,,,,,,,,,,,,,,,,,,,,,,,,,,,,,,,,,,,,,,,,,,,,,,,,,
0,23,23,78,1,,5eb40100664e991f800b5853,62c538ed78010d410adab9dc,2022-07-06_09h25.51.865,Colour_Asymmetry_Pilot,2022.1.3,Win32,59.48839976,62c50e9c1127f2cd403a315f,,,,,,,,,,,,,,,,,,,,,,,,,,,,,,,,,,,,,,,,,,,,,,,,,,,,,,,,,,,,,,,,,,,,,,,,,,,,,,,,,,,,,,,,,,,,,,,,,,,,,,,,,,,,,,,,,,,,,,,,,,,,,,,,,,,,,,,,,,,,,,,,,,,,,,,,,,,,,,,,,,,
0,24,24,41,1,,5eb40100664e991f800b5853,62c538ed78010d410adab9dc,2022-07-06_09h25.51.865,Colour_Asymmetry_Pilot,2022.1.3,Win32,59.48839976,62c50e9c1127f2cd403a315f,,,,,,,,,,,,,,,,,,,,,,,,,,,,,,,,,,,,,,,,,,,,,,,,,,,,,,,,,,,,,,,,,,,,,,,,,,,,,,,,,,,,,,,,,,,,,,,,,,,,,,,,,,,,,,,,,,,,,,,,,,,,,,,,,,,,,,,,,,,,,,,,,,,,,,,,,,,,,,,,,,,
0,25,25,20,1,,5eb40100664e991f800b5853,62c538ed78010d410adab9dc,2022-07-06_09h25.51.865,Colour_Asymmetry_Pilot,2022.1.3,Win32,59.48839976,62c50e9c1127f2cd403a315f,,,,,,,,,,,,,,,,,,,,,,,,,,,,,,,,,,,,,,,,,,,,,,,,,,,,,,,,,,,,,,,,,,,,,,,,,,,,,,,,,,,,,,,,,,,,,,,,,,,,,,,,,,,,,,,,,,,,,,,,,,,,,,,,,,,,,,,,,,,,,,,,,,,,,,,,,,,,,,,,,,,
0,26,26,50,1,,5eb40100664e991f800b5853,62c538ed78010d410adab9dc,2022-07-06_09h25.51.865,Colour_Asymmetry_Pilot,2022.1.3,Win32,59.48839976,62c50e9c1127f2cd403a315f,,,,,,,,,,,,,,,,,,,,,,,,,,,,,,,,,,,,,,,,,,,,,,,,,,,,,,,,,,,,,,,,,,,,,,,,,,,,,,,,,,,,,,,,,,,,,,,,,,,,,,,,,,,,,,,,,,,,,,,,,,,,,,,,,,,,,,,,,,,,,,,,,,,,,,,,,,,,,,,,,,,
0,27,27,82,1,,5eb40100664e991f800b5853,62c538ed78010d410adab9dc,2022-07-06_09h25.51.865,Colour_Asymmetry_Pilot,2022.1.3,Win32,59.48839976,62c50e9c1127f2cd403a315f,,,,,,,,,,,,,,,,,,,,,,,,,,,,,,,,,,,,,,,,,,,,,,,,,,,,,,,,,,,,,,,,,,,,,,,,,,,,,,,,,,,,,,,,,,,,,,,,,,,,,,,,,,,,,,,,,,,,,,,,,,,,,,,,,,,,,,,,,,,,,,,,,,,,,,,,,,,,,,,,,,,
0,28,28,36,1,,5eb40100664e991f800b5853,62c538ed78010d410adab9dc,2022-07-06_09h25.51.865,Colour_Asymmetry_Pilot,2022.1.3,Win32,59.48839976,62c50e9c1127f2cd403a315f,,,,,,,,,,,,,,,,,,,,,,,,,,,,,,,,,,,,,,,,,,,,,,,,,,,,,,,,,,,,,,,,,,,,,,,,,,,,,,,,,,,,,,,,,,,,,,,,,,,,,,,,,,,,,,,,,,,,,,,,,,,,,,,,,,,,,,,,,,,,,,,,,,,,,,,,,,,,,,,,,,,
0,29,29,2,1,,5eb40100664e991f800b5853,62c538ed78010d410adab9dc,2022-07-06_09h25.51.865,Colour_Asymmetry_Pilot,2022.1.3,Win32,59.48839976,62c50e9c1127f2cd403a315f,,,,,,,,,,,,,,,,,,,,,,,,,,,,,,,,,,,,,,,,,,,,,,,,,,,,,,,,,,,,,,,,,,,,,,,,,,,,,,,,,,,,,,,,,,,,,,,,,,,,,,,,,,,,,,,,,,,,,,,,,,,,,,,,,,,,,,,,,,,,,,,,,,,,,,,,,,,,,,,,,,,
0,30,30,66,1,,5eb40100664e991f800b5853,62c538ed78010d410adab9dc,2022-07-06_09h25.51.865,Colour_Asymmetry_Pilot,2022.1.3,Win32,59.48839976,62c50e9c1127f2cd403a315f,,,,,,,,,,,,,,,,,,,,,,,,,,,,,,,,,,,,,,,,,,,,,,,,,,,,,,,,,,,,,,,,,,,,,,,,,,,,,,,,,,,,,,,,,,,,,,,,,,,,,,,,,,,,,,,,,,,,,,,,,,,,,,,,,,,,,,,,,,,,,,,,,,,,,,,,,,,,,,,,,,,
0,31,31,26,1,,5eb40100664e991f800b5853,62c538ed78010d410adab9dc,2022-07-06_09h25.51.865,Colour_Asymmetry_Pilot,2022.1.3,Win32,59.48839976,62c50e9c1127f2cd403a315f,,,,,,,,,,,,,,,,,,,,,,,,,,,,,,,,,,,,,,,,,,,,,,,,,,,,,,,,,,,,,,,,,,,,,,,,,,,,,,,,,,,,,,,,,,,,,,,,,,,,,,,,,,,,,,,,,,,,,,,,,,,,,,,,,,,,,,,,,,,,,,,,,,,,,,,,,,,,,,,,,,,
0,32,32,45,1,,5eb40100664e991f800b5853,62c538ed78010d410adab9dc,2022-07-06_09h25.51.865,Colour_Asymmetry_Pilot,2022.1.3,Win32,59.48839976,62c50e9c1127f2cd403a315f,,,,,,,,,,,,,,,,,,,,,,,,,,,,,,,,,,,,,,,,,,,,,,,,,,,,,,,,,,,,,,,,,,,,,,,,,,,,,,,,,,,,,,,,,,,,,,,,,,,,,,,,,,,,,,,,,,,,,,,,,,,,,,,,,,,,,,,,,,,,,,,,,,,,,,,,,,,,,,,,,,,
0,33,33,58,1,,5eb40100664e991f800b5853,62c538ed78010d410adab9dc,2022-07-06_09h25.51.865,Colour_Asymmetry_Pilot,2022.1.3,Win32,59.48839976,62c50e9c1127f2cd403a315f,,,,,,,,,,,,,,,,,,,,,,,,,,,,,,,,,,,,,,,,,,,,,,,,,,,,,,,,,,,,,,,,,,,,,,,,,,,,,,,,,,,,,,,,,,,,,,,,,,,,,,,,,,,,,,,,,,,,,,,,,,,,,,,,,,,,,,,,,,,,,,,,,,,,,,,,,,,,,,,,,,,
0,34,34,30,1,,5eb40100664e991f800b5853,62c538ed78010d410adab9dc,2022-07-06_09h25.51.865,Colour_Asymmetry_Pilot,2022.1.3,Win32,59.48839976,62c50e9c1127f2cd403a315f,,,,,,,,,,,,,,,,,,,,,,,,,,,,,,,,,,,,,,,,,,,,,,,,,,,,,,,,,,,,,,,,,,,,,,,,,,,,,,,,,,,,,,,,,,,,,,,,,,,,,,,,,,,,,,,,,,,,,,,,,,,,,,,,,,,,,,,,,,,,,,,,,,,,,,,,,,,,,,,,,,,
0,35,35,10,1,,5eb40100664e991f800b5853,62c538ed78010d410adab9dc,2022-07-06_09h25.51.865,Colour_Asymmetry_Pilot,2022.1.3,Win32,59.48839976,62c50e9c1127f2cd403a315f,,,,,,,,,,,,,,,,,,,,,,,,,,,,,,,,,,,,,,,,,,,,,,,,,,,,,,,,,,,,,,,,,,,,,,,,,,,,,,,,,,,,,,,,,,,,,,,,,,,,,,,,,,,,,,,,,,,,,,,,,,,,,,,,,,,,,,,,,,,,,,,,,,,,,,,,,,,,,,,,,,,
0,36,36,51,1,,5eb40100664e991f800b5853,62c538ed78010d410adab9dc,2022-07-06_09h25.51.865,Colour_Asymmetry_Pilot,2022.1.3,Win32,59.48839976,62c50e9c1127f2cd403a315f,,,,,,,,,,,,,,,,,,,,,,,,,,,,,,,,,,,,,,,,,,,,,,,,,,,,,,,,,,,,,,,,,,,,,,,,,,,,,,,,,,,,,,,,,,,,,,,,,,,,,,,,,,,,,,,,,,,,,,,,,,,,,,,,,,,,,,,,,,,,,,,,,,,,,,,,,,,,,,,,,,,
0,37,37,18,1,,5eb40100664e991f800b5853,62c538ed78010d410adab9dc,2022-07-06_09h25.51.865,Colour_Asymmetry_Pilot,2022.1.3,Win32,59.48839976,62c50e9c1127f2cd403a315f,,,,,,,,,,,,,,,,,,,,,,,,,,,,,,,,,,,,,,,,,,,,,,,,,,,,,,,,,,,,,,,,,,,,,,,,,,,,,,,,,,,,,,,,,,,,,,,,,,,,,,,,,,,,,,,,,,,,,,,,,,,,,,,,,,,,,,,,,,,,,,,,,,,,,,,,,,,,,,,,,,,
0,38,38,0,1,,5eb40100664e991f800b5853,62c538ed78010d410adab9dc,2022-07-06_09h25.51.865,Colour_Asymmetry_Pilot,2022.1.3,Win32,59.48839976,62c50e9c1127f2cd403a315f,,,,,,,,,,,,,,,,,,,,,,,,,,,,,,,,,,,,,,,,,,,,,,,,,,,,,,,,,,,,,,,,,,,,,,,,,,,,,,,,,,,,,,,,,,,,,,,,,,,,,,,,,,,,,,,,,,,,,,,,,,,,,,,,,,,,,,,,,,,,,,,,,,,,,,,,,,,,,,,,,,,
0,39,39,11,1,,5eb40100664e991f800b5853,62c538ed78010d410adab9dc,2022-07-06_09h25.51.865,Colour_Asymmetry_Pilot,2022.1.3,Win32,59.48839976,62c50e9c1127f2cd403a315f,,,,,,,,,,,,,,,,,,,,,,,,,,,,,,,,,,,,,,,,,,,,,,,,,,,,,,,,,,,,,,,,,,,,,,,,,,,,,,,,,,,,,,,,,,,,,,,,,,,,,,,,,,,,,,,,,,,,,,,,,,,,,,,,,,,,,,,,,,,,,,,,,,,,,,,,,,,,,,,,,,,
0,40,40,13,1,,5eb40100664e991f800b5853,62c538ed78010d410adab9dc,2022-07-06_09h25.51.865,Colour_Asymmetry_Pilot,2022.1.3,Win32,59.48839976,62c50e9c1127f2cd403a315f,,,,,,,,,,,,,,,,,,,,,,,,,,,,,,,,,,,,,,,,,,,,,,,,,,,,,,,,,,,,,,,,,,,,,,,,,,,,,,,,,,,,,,,,,,,,,,,,,,,,,,,,,,,,,,,,,,,,,,,,,,,,,,,,,,,,,,,,,,,,,,,,,,,,,,,,,,,,,,,,,,,
0,41,41,71,1,,5eb40100664e991f800b5853,62c538ed78010d410adab9dc,2022-07-06_09h25.51.865,Colour_Asymmetry_Pilot,2022.1.3,Win32,59.48839976,62c50e9c1127f2cd403a315f,,,,,,,,,,,,,,,,,,,,,,,,,,,,,,,,,,,,,,,,,,,,,,,,,,,,,,,,,,,,,,,,,,,,,,,,,,,,,,,,,,,,,,,,,,,,,,,,,,,,,,,,,,,,,,,,,,,,,,,,,,,,,,,,,,,,,,,,,,,,,,,,,,,,,,,,,,,,,,,,,,,
0,42,42,35,1,,5eb40100664e991f800b5853,62c538ed78010d410adab9dc,2022-07-06_09h25.51.865,Colour_Asymmetry_Pilot,2022.1.3,Win32,59.48839976,62c50e9c1127f2cd403a315f,,,,,,,,,,,,,,,,,,,,,,,,,,,,,,,,,,,,,,,,,,,,,,,,,,,,,,,,,,,,,,,,,,,,,,,,,,,,,,,,,,,,,,,,,,,,,,,,,,,,,,,,,,,,,,,,,,,,,,,,,,,,,,,,,,,,,,,,,,,,,,,,,,,,,,,,,,,,,,,,,,,
0,43,43,84,1,,5eb40100664e991f800b5853,62c538ed78010d410adab9dc,2022-07-06_09h25.51.865,Colour_Asymmetry_Pilot,2022.1.3,Win32,59.48839976,62c50e9c1127f2cd403a315f,,,,,,,,,,,,,,,,,,,,,,,,,,,,,,,,,,,,,,,,,,,,,,,,,,,,,,,,,,,,,,,,,,,,,,,,,,,,,,,,,,,,,,,,,,,,,,,,,,,,,,,,,,,,,,,,,,,,,,,,,,,,,,,,,,,,,,,,,,,,,,,,,,,,,,,,,,,,,,,,,,,
0,44,44,44,1,,5eb40100664e991f800b5853,62c538ed78010d410adab9dc,2022-07-06_09h25.51.865,Colour_Asymmetry_Pilot,2022.1.3,Win32,59.48839976,62c50e9c1127f2cd403a315f,,,,,,,,,,,,,,,,,,,,,,,,,,,,,,,,,,,,,,,,,,,,,,,,,,,,,,,,,,,,,,,,,,,,,,,,,,,,,,,,,,,,,,,,,,,,,,,,,,,,,,,,,,,,,,,,,,,,,,,,,,,,,,,,,,,,,,,,,,,,,,,,,,,,,,,,,,,,,,,,,,,
0,45,45,76,1,,5eb40100664e991f800b5853,62c538ed78010d410adab9dc,2022-07-06_09h25.51.865,Colour_Asymmetry_Pilot,2022.1.3,Win32,59.48839976,62c50e9c1127f2cd403a315f,,,,,,,,,,,,,,,,,,,,,,,,,,,,,,,,,,,,,,,,,,,,,,,,,,,,,,,,,,,,,,,,,,,,,,,,,,,,,,,,,,,,,,,,,,,,,,,,,,,,,,,,,,,,,,,,,,,,,,,,,,,,,,,,,,,,,,,,,,,,,,,,,,,,,,,,,,,,,,,,,,,
0,46,46,33,1,,5eb40100664e991f800b5853,62c538ed78010d410adab9dc,2022-07-06_09h25.51.865,Colour_Asymmetry_Pilot,2022.1.3,Win32,59.48839976,62c50e9c1127f2cd403a315f,,,,,,,,,,,,,,,,,,,,,,,,,,,,,,,,,,,,,,,,,,,,,,,,,,,,,,,,,,,,,,,,,,,,,,,,,,,,,,,,,,,,,,,,,,,,,,,,,,,,,,,,,,,,,,,,,,,,,,,,,,,,,,,,,,,,,,,,,,,,,,,,,,,,,,,,,,,,,,,,,,,
0,47,47,25,1,,5eb40100664e991f800b5853,62c538ed78010d410adab9dc,2022-07-06_09h25.51.865,Colour_Asymmetry_Pilot,2022.1.3,Win32,59.48839976,62c50e9c1127f2cd403a315f,,,,,,,,,,,,,,,,,,,,,,,,,,,,,,,,,,,,,,,,,,,,,,,,,,,,,,,,,,,,,,,,,,,,,,,,,,,,,,,,,,,,,,,,,,,,,,,,,,,,,,,,,,,,,,,,,,,,,,,,,,,,,,,,,,,,,,,,,,,,,,,,,,,,,,,,,,,,,,,,,,,
0,48,48,24,1,,5eb40100664e991f800b5853,62c538ed78010d410adab9dc,2022-07-06_09h25.51.865,Colour_Asymmetry_Pilot,2022.1.3,Win32,59.48839976,62c50e9c1127f2cd403a315f,,,,,,,,,,,,,,,,,,,,,,,,,,,,,,,,,,,,,,,,,,,,,,,,,,,,,,,,,,,,,,,,,,,,,,,,,,,,,,,,,,,,,,,,,,,,,,,,,,,,,,,,,,,,,,,,,,,,,,,,,,,,,,,,,,,,,,,,,,,,,,,,,,,,,,,,,,,,,,,,,,,
0,49,49,47,1,,5eb40100664e991f800b5853,62c538ed78010d410adab9dc,2022-07-06_09h25.51.865,Colour_Asymmetry_Pilot,2022.1.3,Win32,59.48839976,62c50e9c1127f2cd403a315f,,,,,,,,,,,,,,,,,,,,,,,,,,,,,,,,,,,,,,,,,,,,,,,,,,,,,,,,,,,,,,,,,,,,,,,,,,,,,,,,,,,,,,,,,,,,,,,,,,,,,,,,,,,,,,,,,,,,,,,,,,,,,,,,,,,,,,,,,,,,,,,,,,,,,,,,,,,,,,,,,,,
0,50,50,15,1,,5eb40100664e991f800b5853,62c538ed78010d410adab9dc,2022-07-06_09h25.51.865,Colour_Asymmetry_Pilot,2022.1.3,Win32,59.48839976,62c50e9c1127f2cd403a315f,,,,,,,,,,,,,,,,,,,,,,,,,,,,,,,,,,,,,,,,,,,,,,,,,,,,,,,,,,,,,,,,,,,,,,,,,,,,,,,,,,,,,,,,,,,,,,,,,,,,,,,,,,,,,,,,,,,,,,,,,,,,,,,,,,,,,,,,,,,,,,,,,,,,,,,,,,,,,,,,,,,
0,51,51,52,1,,5eb40100664e991f800b5853,62c538ed78010d410adab9dc,2022-07-06_09h25.51.865,Colour_Asymmetry_Pilot,2022.1.3,Win32,59.48839976,62c50e9c1127f2cd403a315f,,,,,,,,,,,,,,,,,,,,,,,,,,,,,,,,,,,,,,,,,,,,,,,,,,,,,,,,,,,,,,,,,,,,,,,,,,,,,,,,,,,,,,,,,,,,,,,,,,,,,,,,,,,,,,,,,,,,,,,,,,,,,,,,,,,,,,,,,,,,,,,,,,,,,,,,,,,,,,,,,,,
0,52,52,67,1,,5eb40100664e991f800b5853,62c538ed78010d410adab9dc,2022-07-06_09h25.51.865,Colour_Asymmetry_Pilot,2022.1.3,Win32,59.48839976,62c50e9c1127f2cd403a315f,,,,,,,,,,,,,,,,,,,,,,,,,,,,,,,,,,,,,,,,,,,,,,,,,,,,,,,,,,,,,,,,,,,,,,,,,,,,,,,,,,,,,,,,,,,,,,,,,,,,,,,,,,,,,,,,,,,,,,,,,,,,,,,,,,,,,,,,,,,,,,,,,,,,,,,,,,,,,,,,,,,
0,53,53,3,1,,5eb40100664e991f800b5853,62c538ed78010d410adab9dc,2022-07-06_09h25.51.865,Colour_Asymmetry_Pilot,2022.1.3,Win32,59.48839976,62c50e9c1127f2cd403a315f,,,,,,,,,,,,,,,,,,,,,,,,,,,,,,,,,,,,,,,,,,,,,,,,,,,,,,,,,,,,,,,,,,,,,,,,,,,,,,,,,,,,,,,,,,,,,,,,,,,,,,,,,,,,,,,,,,,,,,,,,,,,,,,,,,,,,,,,,,,,,,,,,,,,,,,,,,,,,,,,,,,
0,54,54,6,1,,5eb40100664e991f800b5853,62c538ed78010d410adab9dc,2022-07-06_09h25.51.865,Colour_Asymmetry_Pilot,2022.1.3,Win32,59.48839976,62c50e9c1127f2cd403a315f,,,,,,,,,,,,,,,,,,,,,,,,,,,,,,,,,,,,,,,,,,,,,,,,,,,,,,,,,,,,,,,,,,,,,,,,,,,,,,,,,,,,,,,,,,,,,,,,,,,,,,,,,,,,,,,,,,,,,,,,,,,,,,,,,,,,,,,,,,,,,,,,,,,,,,,,,,,,,,,,,,,
0,55,55,85,1,,5eb40100664e991f800b5853,62c538ed78010d410adab9dc,2022-07-06_09h25.51.865,Colour_Asymmetry_Pilot,2022.1.3,Win32,59.48839976,62c50e9c1127f2cd403a315f,,,,,,,,,,,,,,,,,,,,,,,,,,,,,,,,,,,,,,,,,,,,,,,,,,,,,,,,,,,,,,,,,,,,,,,,,,,,,,,,,,,,,,,,,,,,,,,,,,,,,,,,,,,,,,,,,,,,,,,,,,,,,,,,,,,,,,,,,,,,,,,,,,,,,,,,,,,,,,,,,,,
0,56,56,42,1,,5eb40100664e991f800b5853,62c538ed78010d410adab9dc,2022-07-06_09h25.51.865,Colour_Asymmetry_Pilot,2022.1.3,Win32,59.48839976,62c50e9c1127f2cd403a315f,,,,,,,,,,,,,,,,,,,,,,,,,,,,,,,,,,,,,,,,,,,,,,,,,,,,,,,,,,,,,,,,,,,,,,,,,,,,,,,,,,,,,,,,,,,,,,,,,,,,,,,,,,,,,,,,,,,,,,,,,,,,,,,,,,,,,,,,,,,,,,,,,,,,,,,,,,,,,,,,,,,
0,57,57,7,1,,5eb40100664e991f800b5853,62c538ed78010d410adab9dc,2022-07-06_09h25.51.865,Colour_Asymmetry_Pilot,2022.1.3,Win32,59.48839976,62c50e9c1127f2cd403a315f,,,,,,,,,,,,,,,,,,,,,,,,,,,,,,,,,,,,,,,,,,,,,,,,,,,,,,,,,,,,,,,,,,,,,,,,,,,,,,,,,,,,,,,,,,,,,,,,,,,,,,,,,,,,,,,,,,,,,,,,,,,,,,,,,,,,,,,,,,,,,,,,,,,,,,,,,,,,,,,,,,,
0,58,58,89,1,,5eb40100664e991f800b5853,62c538ed78010d410adab9dc,2022-07-06_09h25.51.865,Colour_Asymmetry_Pilot,2022.1.3,Win32,59.48839976,62c50e9c1127f2cd403a315f,,,,,,,,,,,,,,,,,,,,,,,,,,,,,,,,,,,,,,,,,,,,,,,,,,,,,,,,,,,,,,,,,,,,,,,,,,,,,,,,,,,,,,,,,,,,,,,,,,,,,,,,,,,,,,,,,,,,,,,,,,,,,,,,,,,,,,,,,,,,,,,,,,,,,,,,,,,,,,,,,,,
0,59,59,12,1,,5eb40100664e991f800b5853,62c538ed78010d410adab9dc,2022-07-06_09h25.51.865,Colour_Asymmetry_Pilot,2022.1.3,Win32,59.48839976,62c50e9c1127f2cd403a315f,,,,,,,,,,,,,,,,,,,,,,,,,,,,,,,,,,,,,,,,,,,,,,,,,,,,,,,,,,,,,,,,,,,,,,,,,,,,,,,,,,,,,,,,,,,,,,,,,,,,,,,,,,,,,,,,,,,,,,,,,,,,,,,,,,,,,,,,,,,,,,,,,,,,,,,,,,,,,,,,,,,
0,60,60,65,1,,5eb40100664e991f800b5853,62c538ed78010d410adab9dc,2022-07-06_09h25.51.865,Colour_Asymmetry_Pilot,2022.1.3,Win32,59.48839976,62c50e9c1127f2cd403a315f,,,,,,,,,,,,,,,,,,,,,,,,,,,,,,,,,,,,,,,,,,,,,,,,,,,,,,,,,,,,,,,,,,,,,,,,,,,,,,,,,,,,,,,,,,,,,,,,,,,,,,,,,,,,,,,,,,,,,,,,,,,,,,,,,,,,,,,,,,,,,,,,,,,,,,,,,,,,,,,,,,,
0,61,61,48,1,,5eb40100664e991f800b5853,62c538ed78010d410adab9dc,2022-07-06_09h25.51.865,Colour_Asymmetry_Pilot,2022.1.3,Win32,59.48839976,62c50e9c1127f2cd403a315f,,,,,,,,,,,,,,,,,,,,,,,,,,,,,,,,,,,,,,,,,,,,,,,,,,,,,,,,,,,,,,,,,,,,,,,,,,,,,,,,,,,,,,,,,,,,,,,,,,,,,,,,,,,,,,,,,,,,,,,,,,,,,,,,,,,,,,,,,,,,,,,,,,,,,,,,,,,,,,,,,,,
0,62,62,23,1,,5eb40100664e991f800b5853,62c538ed78010d410adab9dc,2022-07-06_09h25.51.865,Colour_Asymmetry_Pilot,2022.1.3,Win32,59.48839976,62c50e9c1127f2cd403a315f,,,,,,,,,,,,,,,,,,,,,,,,,,,,,,,,,,,,,,,,,,,,,,,,,,,,,,,,,,,,,,,,,,,,,,,,,,,,,,,,,,,,,,,,,,,,,,,,,,,,,,,,,,,,,,,,,,,,,,,,,,,,,,,,,,,,,,,,,,,,,,,,,,,,,,,,,,,,,,,,,,,
0,63,63,86,1,,5eb40100664e991f800b5853,62c538ed78010d410adab9dc,2022-07-06_09h25.51.865,Colour_Asymmetry_Pilot,2022.1.3,Win32,59.48839976,62c50e9c1127f2cd403a315f,,,,,,,,,,,,,,,,,,,,,,,,,,,,,,,,,,,,,,,,,,,,,,,,,,,,,,,,,,,,,,,,,,,,,,,,,,,,,,,,,,,,,,,,,,,,,,,,,,,,,,,,,,,,,,,,,,,,,,,,,,,,,,,,,,,,,,,,,,,,,,,,,,,,,,,,,,,,,,,,,,,
0,64,64,37,1,,5eb40100664e991f800b5853,62c538ed78010d410adab9dc,2022-07-06_09h25.51.865,Colour_Asymmetry_Pilot,2022.1.3,Win32,59.48839976,62c50e9c1127f2cd403a315f,,,,,,,,,,,,,,,,,,,,,,,,,,,,,,,,,,,,,,,,,,,,,,,,,,,,,,,,,,,,,,,,,,,,,,,,,,,,,,,,,,,,,,,,,,,,,,,,,,,,,,,,,,,,,,,,,,,,,,,,,,,,,,,,,,,,,,,,,,,,,,,,,,,,,,,,,,,,,,,,,,,
0,65,65,88,1,,5eb40100664e991f800b5853,62c538ed78010d410adab9dc,2022-07-06_09h25.51.865,Colour_Asymmetry_Pilot,2022.1.3,Win32,59.48839976,62c50e9c1127f2cd403a315f,,,,,,,,,,,,,,,,,,,,,,,,,,,,,,,,,,,,,,,,,,,,,,,,,,,,,,,,,,,,,,,,,,,,,,,,,,,,,,,,,,,,,,,,,,,,,,,,,,,,,,,,,,,,,,,,,,,,,,,,,,,,,,,,,,,,,,,,,,,,,,,,,,,,,,,,,,,,,,,,,,,
0,66,66,22,1,,5eb40100664e991f800b5853,62c538ed78010d410adab9dc,2022-07-06_09h25.51.865,Colour_Asymmetry_Pilot,2022.1.3,Win32,59.48839976,62c50e9c1127f2cd403a315f,,,,,,,,,,,,,,,,,,,,,,,,,,,,,,,,,,,,,,,,,,,,,,,,,,,,,,,,,,,,,,,,,,,,,,,,,,,,,,,,,,,,,,,,,,,,,,,,,,,,,,,,,,,,,,,,,,,,,,,,,,,,,,,,,,,,,,,,,,,,,,,,,,,,,,,,,,,,,,,,,,,
0,67,67,62,1,,5eb40100664e991f800b5853,62c538ed78010d410adab9dc,2022-07-06_09h25.51.865,Colour_Asymmetry_Pilot,2022.1.3,Win32,59.48839976,62c50e9c1127f2cd403a315f,,,,,,,,,,,,,,,,,,,,,,,,,,,,,,,,,,,,,,,,,,,,,,,,,,,,,,,,,,,,,,,,,,,,,,,,,,,,,,,,,,,,,,,,,,,,,,,,,,,,,,,,,,,,,,,,,,,,,,,,,,,,,,,,,,,,,,,,,,,,,,,,,,,,,,,,,,,,,,,,,,,
0,68,68,87,1,,5eb40100664e991f800b5853,62c538ed78010d410adab9dc,2022-07-06_09h25.51.865,Colour_Asymmetry_Pilot,2022.1.3,Win32,59.48839976,62c50e9c1127f2cd403a315f,,,,,,,,,,,,,,,,,,,,,,,,,,,,,,,,,,,,,,,,,,,,,,,,,,,,,,,,,,,,,,,,,,,,,,,,,,,,,,,,,,,,,,,,,,,,,,,,,,,,,,,,,,,,,,,,,,,,,,,,,,,,,,,,,,,,,,,,,,,,,,,,,,,,,,,,,,,,,,,,,,,
0,69,69,56,1,,5eb40100664e991f800b5853,62c538ed78010d410adab9dc,2022-07-06_09h25.51.865,Colour_Asymmetry_Pilot,2022.1.3,Win32,59.48839976,62c50e9c1127f2cd403a315f,,,,,,,,,,,,,,,,,,,,,,,,,,,,,,,,,,,,,,,,,,,,,,,,,,,,,,,,,,,,,,,,,,,,,,,,,,,,,,,,,,,,,,,,,,,,,,,,,,,,,,,,,,,,,,,,,,,,,,,,,,,,,,,,,,,,,,,,,,,,,,,,,,,,,,,,,,,,,,,,,,,
0,70,70,34,1,,5eb40100664e991f800b5853,62c538ed78010d410adab9dc,2022-07-06_09h25.51.865,Colour_Asymmetry_Pilot,2022.1.3,Win32,59.48839976,62c50e9c1127f2cd403a315f,,,,,,,,,,,,,,,,,,,,,,,,,,,,,,,,,,,,,,,,,,,,,,,,,,,,,,,,,,,,,,,,,,,,,,,,,,,,,,,,,,,,,,,,,,,,,,,,,,,,,,,,,,,,,,,,,,,,,,,,,,,,,,,,,,,,,,,,,,,,,,,,,,,,,,,,,,,,,,,,,,,
0,71,71,1,1,,5eb40100664e991f800b5853,62c538ed78010d410adab9dc,2022-07-06_09h25.51.865,Colour_Asymmetry_Pilot,2022.1.3,Win32,59.48839976,62c50e9c1127f2cd403a315f,,,,,,,,,,,,,,,,,,,,,,,,,,,,,,,,,,,,,,,,,,,,,,,,,,,,,,,,,,,,,,,,,,,,,,,,,,,,,,,,,,,,,,,,,,,,,,,,,,,,,,,,,,,,,,,,,,,,,,,,,,,,,,,,,,,,,,,,,,,,,,,,,,,,,,,,,,,,,,,,,,,
0,72,72,64,1,,5eb40100664e991f800b5853,62c538ed78010d410adab9dc,2022-07-06_09h25.51.865,Colour_Asymmetry_Pilot,2022.1.3,Win32,59.48839976,62c50e9c1127f2cd403a315f,,,,,,,,,,,,,,,,,,,,,,,,,,,,,,,,,,,,,,,,,,,,,,,,,,,,,,,,,,,,,,,,,,,,,,,,,,,,,,,,,,,,,,,,,,,,,,,,,,,,,,,,,,,,,,,,,,,,,,,,,,,,,,,,,,,,,,,,,,,,,,,,,,,,,,,,,,,,,,,,,,,
0,73,73,21,1,,5eb40100664e991f800b5853,62c538ed78010d410adab9dc,2022-07-06_09h25.51.865,Colour_Asymmetry_Pilot,2022.1.3,Win32,59.48839976,62c50e9c1127f2cd403a315f,,,,,,,,,,,,,,,,,,,,,,,,,,,,,,,,,,,,,,,,,,,,,,,,,,,,,,,,,,,,,,,,,,,,,,,,,,,,,,,,,,,,,,,,,,,,,,,,,,,,,,,,,,,,,,,,,,,,,,,,,,,,,,,,,,,,,,,,,,,,,,,,,,,,,,,,,,,,,,,,,,,
0,74,74,68,1,,5eb40100664e991f800b5853,62c538ed78010d410adab9dc,2022-07-06_09h25.51.865,Colour_Asymmetry_Pilot,2022.1.3,Win32,59.48839976,62c50e9c1127f2cd403a315f,,,,,,,,,,,,,,,,,,,,,,,,,,,,,,,,,,,,,,,,,,,,,,,,,,,,,,,,,,,,,,,,,,,,,,,,,,,,,,,,,,,,,,,,,,,,,,,,,,,,,,,,,,,,,,,,,,,,,,,,,,,,,,,,,,,,,,,,,,,,,,,,,,,,,,,,,,,,,,,,,,,
0,75,75,70,1,,5eb40100664e991f800b5853,62c538ed78010d410adab9dc,2022-07-06_09h25.51.865,Colour_Asymmetry_Pilot,2022.1.3,Win32,59.48839976,62c50e9c1127f2cd403a315f,,,,,,,,,,,,,,,,,,,,,,,,,,,,,,,,,,,,,,,,,,,,,,,,,,,,,,,,,,,,,,,,,,,,,,,,,,,,,,,,,,,,,,,,,,,,,,,,,,,,,,,,,,,,,,,,,,,,,,,,,,,,,,,,,,,,,,,,,,,,,,,,,,,,,,,,,,,,,,,,,,,
0,76,76,60,1,,5eb40100664e991f800b5853,62c538ed78010d410adab9dc,2022-07-06_09h25.51.865,Colour_Asymmetry_Pilot,2022.1.3,Win32,59.48839976,62c50e9c1127f2cd403a315f,,,,,,,,,,,,,,,,,,,,,,,,,,,,,,,,,,,,,,,,,,,,,,,,,,,,,,,,,,,,,,,,,,,,,,,,,,,,,,,,,,,,,,,,,,,,,,,,,,,,,,,,,,,,,,,,,,,,,,,,,,,,,,,,,,,,,,,,,,,,,,,,,,,,,,,,,,,,,,,,,,,
0,77,77,39,1,,5eb40100664e991f800b5853,62c538ed78010d410adab9dc,2022-07-06_09h25.51.865,Colour_Asymmetry_Pilot,2022.1.3,Win32,59.48839976,62c50e9c1127f2cd403a315f,,,,,,,,,,,,,,,,,,,,,,,,,,,,,,,,,,,,,,,,,,,,,,,,,,,,,,,,,,,,,,,,,,,,,,,,,,,,,,,,,,,,,,,,,,,,,,,,,,,,,,,,,,,,,,,,,,,,,,,,,,,,,,,,,,,,,,,,,,,,,,,,,,,,,,,,,,,,,,,,,,,
0,78,78,5,1,,5eb40100664e991f800b5853,62c538ed78010d410adab9dc,2022-07-06_09h25.51.865,Colour_Asymmetry_Pilot,2022.1.3,Win32,59.48839976,62c50e9c1127f2cd403a315f,,,,,,,,,,,,,,,,,,,,,,,,,,,,,,,,,,,,,,,,,,,,,,,,,,,,,,,,,,,,,,,,,,,,,,,,,,,,,,,,,,,,,,,,,,,,,,,,,,,,,,,,,,,,,,,,,,,,,,,,,,,,,,,,,,,,,,,,,,,,,,,,,,,,,,,,,,,,,,,,,,,
0,79,79,40,1,,5eb40100664e991f800b5853,62c538ed78010d410adab9dc,2022-07-06_09h25.51.865,Colour_Asymmetry_Pilot,2022.1.3,Win32,59.48839976,62c50e9c1127f2cd403a315f,,,,,,,,,,,,,,,,,,,,,,,,,,,,,,,,,,,,,,,,,,,,,,,,,,,,,,,,,,,,,,,,,,,,,,,,,,,,,,,,,,,,,,,,,,,,,,,,,,,,,,,,,,,,,,,,,,,,,,,,,,,,,,,,,,,,,,,,,,,,,,,,,,,,,,,,,,,,,,,,,,,
0,80,80,27,1,,5eb40100664e991f800b5853,62c538ed78010d410adab9dc,2022-07-06_09h25.51.865,Colour_Asymmetry_Pilot,2022.1.3,Win32,59.48839976,62c50e9c1127f2cd403a315f,,,,,,,,,,,,,,,,,,,,,,,,,,,,,,,,,,,,,,,,,,,,,,,,,,,,,,,,,,,,,,,,,,,,,,,,,,,,,,,,,,,,,,,,,,,,,,,,,,,,,,,,,,,,,,,,,,,,,,,,,,,,,,,,,,,,,,,,,,,,,,,,,,,,,,,,,,,,,,,,,,,
0,81,81,46,1,,5eb40100664e991f800b5853,62c538ed78010d410adab9dc,2022-07-06_09h25.51.865,Colour_Asymmetry_Pilot,2022.1.3,Win32,59.48839976,62c50e9c1127f2cd403a315f,,,,,,,,,,,,,,,,,,,,,,,,,,,,,,,,,,,,,,,,,,,,,,,,,,,,,,,,,,,,,,,,,,,,,,,,,,,,,,,,,,,,,,,,,,,,,,,,,,,,,,,,,,,,,,,,,,,,,,,,,,,,,,,,,,,,,,,,,,,,,,,,,,,,,,,,,,,,,,,,,,,
0,82,82,17,1,,5eb40100664e991f800b5853,62c538ed78010d410adab9dc,2022-07-06_09h25.51.865,Colour_Asymmetry_Pilot,2022.1.3,Win32,59.48839976,62c50e9c1127f2cd403a315f,,,,,,,,,,,,,,,,,,,,,,,,,,,,,,,,,,,,,,,,,,,,,,,,,,,,,,,,,,,,,,,,,,,,,,,,,,,,,,,,,,,,,,,,,,,,,,,,,,,,,,,,,,,,,,,,,,,,,,,,,,,,,,,,,,,,,,,,,,,,,,,,,,,,,,,,,,,,,,,,,,,
0,83,83,69,1,,5eb40100664e991f800b5853,62c538ed78010d410adab9dc,2022-07-06_09h25.51.865,Colour_Asymmetry_Pilot,2022.1.3,Win32,59.48839976,62c50e9c1127f2cd403a315f,,,,,,,,,,,,,,,,,,,,,,,,,,,,,,,,,,,,,,,,,,,,,,,,,,,,,,,,,,,,,,,,,,,,,,,,,,,,,,,,,,,,,,,,,,,,,,,,,,,,,,,,,,,,,,,,,,,,,,,,,,,,,,,,,,,,,,,,,,,,,,,,,,,,,,,,,,,,,,,,,,,
0,84,84,38,1,,5eb40100664e991f800b5853,62c538ed78010d410adab9dc,2022-07-06_09h25.51.865,Colour_Asymmetry_Pilot,2022.1.3,Win32,59.48839976,62c50e9c1127f2cd403a315f,,,,,,,,,,,,,,,,,,,,,,,,,,,,,,,,,,,,,,,,,,,,,,,,,,,,,,,,,,,,,,,,,,,,,,,,,,,,,,,,,,,,,,,,,,,,,,,,,,,,,,,,,,,,,,,,,,,,,,,,,,,,,,,,,,,,,,,,,,,,,,,,,,,,,,,,,,,,,,,,,,,
0,85,85,90,1,,5eb40100664e991f800b5853,62c538ed78010d410adab9dc,2022-07-06_09h25.51.865,Colour_Asymmetry_Pilot,2022.1.3,Win32,59.48839976,62c50e9c1127f2cd403a315f,,,,,,,,,,,,,,,,,,,,,,,,,,,,,,,,,,,,,,,,,,,,,,,,,,,,,,,,,,,,,,,,,,,,,,,,,,,,,,,,,,,,,,,,,,,,,,,,,,,,,,,,,,,,,,,,,,,,,,,,,,,,,,,,,,,,,,,,,,,,,,,,,,,,,,,,,,,,,,,,,,,
0,86,86,81,1,,5eb40100664e991f800b5853,62c538ed78010d410adab9dc,2022-07-06_09h25.51.865,Colour_Asymmetry_Pilot,2022.1.3,Win32,59.48839976,62c50e9c1127f2cd403a315f,,,,,,,,,,,,,,,,,,,,,,,,,,,,,,,,,,,,,,,,,,,,,,,,,,,,,,,,,,,,,,,,,,,,,,,,,,,,,,,,,,,,,,,,,,,,,,,,,,,,,,,,,,,,,,,,,,,,,,,,,,,,,,,,,,,,,,,,,,,,,,,,,,,,,,,,,,,,,,,,,,,
0,87,87,57,1,,5eb40100664e991f800b5853,62c538ed78010d410adab9dc,2022-07-06_09h25.51.865,Colour_Asymmetry_Pilot,2022.1.3,Win32,59.48839976,62c50e9c1127f2cd403a315f,,,,,,,,,,,,,,,,,,,,,,,,,,,,,,,,,,,,,,,,,,,,,,,,,,,,,,,,,,,,,,,,,,,,,,,,,,,,,,,,,,,,,,,,,,,,,,,,,,,,,,,,,,,,,,,,,,,,,,,,,,,,,,,,,,,,,,,,,,,,,,,,,,,,,,,,,,,,,,,,,,,
0,88,88,80,1,,5eb40100664e991f800b5853,62c538ed78010d410adab9dc,2022-07-06_09h25.51.865,Colour_Asymmetry_Pilot,2022.1.3,Win32,59.48839976,62c50e9c1127f2cd403a315f,,,,,,,,,,,,,,,,,,,,,,,,,,,,,,,,,,,,,,,,,,,,,,,,,,,,,,,,,,,,,,,,,,,,,,,,,,,,,,,,,,,,,,,,,,,,,,,,,,,,,,,,,,,,,,,,,,,,,,,,,,,,,,,,,,,,,,,,,,,,,,,,,,,,,,,,,,,,,,,,,,,
0,89,89,29,1,,5eb40100664e991f800b5853,62c538ed78010d410adab9dc,2022-07-06_09h25.51.865,Colour_Asymmetry_Pilot,2022.1.3,Win32,59.48839976,62c50e9c1127f2cd403a315f,,,,,,,,,,,,,,,,,,,,,,,,,,,,,,,,,,,,,,,,,,,,,,,,,,,,,,,,,,,,,,,,,,,,,,,,,,,,,,,,,,,,,,,,,,,,,,,,,,,,,,,,,,,,,,,,,,,,,,,,,,,,,,,,,,,,,,,,,,,,,,,,,,,,,,,,,,,,,,,,,,,
0,90,90,53,1,,5eb40100664e991f800b5853,62c538ed78010d410adab9dc,2022-07-06_09h25.51.865,Colour_Asymmetry_Pilot,2022.1.3,Win32,59.48839976,62c50e9c1127f2cd403a315f,,,,,,,,,,,,,,,,,,,,,,,,,,,,,,,,,,,,,,,,,,,,,,,,,,,,,,,,,,,,,,,,,,,,,,,,,,,,,,,,,,,,,,,,,,,,,,,,,,,,,,,,,,,,,,,,,,,,,,,,,,,,,,,,,,,,,,,,,,,,,,,,,,,,,,,,,,,,,,,,,,,
0,91,91,19,1,,5eb40100664e991f800b5853,62c538ed78010d410adab9dc,2022-07-06_09h25.51.865,Colour_Asymmetry_Pilot,2022.1.3,Win32,59.48839976,62c50e9c1127f2cd403a315f,,,,,,,,,,,,,,,,,,,,,,,,,,,,,,,,,,,,,,,,,,,,,,,,,,,,,,,,,,,,,,,,,,,,,,,,,,,,,,,,,,,,,,,,,,,,,,,,,,,,,,,,,,,,,,,,,,,,,,,,,,,,,,,,,,,,,,,,,,,,,,,,,,,,,,,,,,,,,,,,,,,
0,92,92,72,1,,5eb40100664e991f800b5853,62c538ed78010d410adab9dc,2022-07-06_09h25.51.865,Colour_Asymmetry_Pilot,2022.1.3,Win32,59.48839976,62c50e9c1127f2cd403a315f,,,,,,,,,,,,,,,,,,,,,,,,,,,,,,,,,,,,,,,,,,,,,,,,,,,,,,,,,,,,,,,,,,,,,,,,,,,,,,,,,,,,,,,,,,,,,,,,,,,,,,,,,,,,,,,,,,,,,,,,,,,,,,,,,,,,,,,,,,,,,,,,,,,,,,,,,,,,,,,,,,,
,,,,,,5eb40100664e991f800b5853,62c538ed78010d410adab9dc,2022-07-06_09h25.51.865,Colour_Asymmetry_Pilot,2022.1.3,Win32,59.48839976,62c50e9c1127f2cd403a315f,0,0,0,66,1,twoone,,,,,,,,,,,,,,,,,,,,,,,,,,,,,,,,,,,,,,,,,,,,,,,,,,,,,,,,,,,,,,,,,,,,,,,,,,,,,,,,,,,,,,,,,,,,,,,,,,,,,,,,,,,,,,,,,,,,,,,,,,,,,,,,,,,,,,,,,,,,,,,,,,,,,,,,,,,,,
,,,,,,5eb40100664e991f800b5853,62c538ed78010d410adab9dc,2022-07-06_09h25.51.865,Colour_Asymmetry_Pilot,2022.1.3,Win32,59.48839976,62c50e9c1127f2cd403a315f,0,1,1,2,1,twoone,,,,,,,,,,,,,,,,,,,,,,,,,,,,,,,,,,,,,,,,,,,,,,,,,,,,,,,,,,,,,,,,,,,,,,,,,,,,,,,,,,,,,,,,,,,,,,,,,,,,,,,,,,,,,,,,,,,,,,,,,,,,,,,,,,,,,,,,,,,,,,,,,,,,,,,,,,,,,
,,,,,,5eb40100664e991f800b5853,62c538ed78010d410adab9dc,2022-07-06_09h25.51.865,Colour_Asymmetry_Pilot,2022.1.3,Win32,59.48839976,62c50e9c1127f2cd403a315f,0,2,2,158,1,fourtwo,,,,,,,,,,,,,,,,,,,,,,,,,,,,,,,,,,,,,,,,,,,,,,,,,,,,,,,,,,,,,,,,,,,,,,,,,,,,,,,,,,,,,,,,,,,,,,,,,,,,,,,,,,,,,,,,,,,,,,,,,,,,,,,,,,,,,,,,,,,,,,,,,,,,,,,,,,,,,
,,,,,,5eb40100664e991f800b5853,62c538ed78010d410adab9dc,2022-07-06_09h25.51.865,Colour_Asymmetry_Pilot,2022.1.3,Win32,59.48839976,62c50e9c1127f2cd403a315f,0,3,3,11,1,twofour,,,,,,,,,,,,,,,,,,,,,,,,,,,,,,,,,,,,,,,,,,,,,,,,,,,,,,,,,,,,,,,,,,,,,,,,,,,,,,,,,,,,,,,,,,,,,,,,,,,,,,,,,,,,,,,,,,,,,,,,,,,,,,,,,,,,,,,,,,,,,,,,,,,,,,,,,,,,,
,,,,,,5eb40100664e991f800b5853,62c538ed78010d410adab9dc,2022-07-06_09h25.51.865,Colour_Asymmetry_Pilot,2022.1.3,Win32,59.48839976,62c50e9c1127f2cd403a315f,0,4,4,90,1,twoone,,,,,,,,,,,,,,,,,,,,,,,,,,,,,,,,,,,,,,,,,,,,,,,,,,,,,,,,,,,,,,,,,,,,,,,,,,,,,,,,,,,,,,,,,,,,,,,,,,,,,,,,,,,,,,,,,,,,,,,,,,,,,,,,,,,,,,,,,,,,,,,,,,,,,,,,,,,,,
,,,,,,5eb40100664e991f800b5853,62c538ed78010d410adab9dc,2022-07-06_09h25.51.865,Colour_Asymmetry_Pilot,2022.1.3,Win32,59.48839976,62c50e9c1127f2cd403a315f,0,5,5,96,1,onetwo,,,,,,,,,,,,,,,,,,,,,,,,,,,,,,,,,,,,,,,,,,,,,,,,,,,,,,,,,,,,,,,,,,,,,,,,,,,,,,,,,,,,,,,,,,,,,,,,,,,,,,,,,,,,,,,,,,,,,,,,,,,,,,,,,,,,,,,,,,,,,,,,,,,,,,,,,,,,,
,,,,,,5eb40100664e991f800b5853,62c538ed78010d410adab9dc,2022-07-06_09h25.51.865,Colour_Asymmetry_Pilot,2022.1.3,Win32,59.48839976,62c50e9c1127f2cd403a315f,0,6,6,120,1,onetwo,,,,,,,,,,,,,,,,,,,,,,,,,,,,,,,,,,,,,,,,,,,,,,,,,,,,,,,,,,,,,,,,,,,,,,,,,,,,,,,,,,,,,,,,,,,,,,,,,,,,,,,,,,,,,,,,,,,,,,,,,,,,,,,,,,,,,,,,,,,,,,,,,,,,,,,,,,,,,
,,,,,,5eb40100664e991f800b5853,62c538ed78010d410adab9dc,2022-07-06_09h25.51.865,Colour_Asymmetry_Pilot,2022.1.3,Win32,59.48839976,62c50e9c1127f2cd403a315f,0,7,7,49,1,onethree,,,,,,,,,,,,,,,,,,,,,,,,,,,,,,,,,,,,,,,,,,,,,,,,,,,,,,,,,,,,,,,,,,,,,,,,,,,,,,,,,,,,,,,,,,,,,,,,,,,,,,,,,,,,,,,,,,,,,,,,,,,,,,,,,,,,,,,,,,,,,,,,,,,,,,,,,,,,,
,,,,,,5eb40100664e991f800b5853,62c538ed78010d410adab9dc,2022-07-06_09h25.51.865,Colour_Asymmetry_Pilot,2022.1.3,Win32,59.48839976,62c50e9c1127f2cd403a315f,0,8,8,156,1,threeone,,,,,,,,,,,,,,,,,,,,,,,,,,,,,,,,,,,,,,,,,,,,,,,,,,,,,,,,,,,,,,,,,,,,,,,,,,,,,,,,,,,,,,,,,,,,,,,,,,,,,,,,,,,,,,,,,,,,,,,,,,,,,,,,,,,,,,,,,,,,,,,,,,,,,,,,,,,,,
,,,,,,5eb40100664e991f800b5853,62c538ed78010d410adab9dc,2022-07-06_09h25.51.865,Colour_Asymmetry_Pilot,2022.1.3,Win32,59.48839976,62c50e9c1127f2cd403a315f,0,9,9,13,1,threefour,,,,,,,,,,,,,,,,,,,,,,,,,,,,,,,,,,,,,,,,,,,,,,,,,,,,,,,,,,,,,,,,,,,,,,,,,,,,,,,,,,,,,,,,,,,,,,,,,,,,,,,,,,,,,,,,,,,,,,,,,,,,,,,,,,,,,,,,,,,,,,,,,,,,,,,,,,,,,
,,,,,,5eb40100664e991f800b5853,62c538ed78010d410adab9dc,2022-07-06_09h25.51.865,Colour_Asymmetry_Pilot,2022.1.3,Win32,59.48839976,62c50e9c1127f2cd403a315f,0,10,10,20,1,threeone,,,,,,,,,,,,,,,,,,,,,,,,,,,,,,,,,,,,,,,,,,,,,,,,,,,,,,,,,,,,,,,,,,,,,,,,,,,,,,,,,,,,,,,,,,,,,,,,,,,,,,,,,,,,,,,,,,,,,,,,,,,,,,,,,,,,,,,,,,,,,,,,,,,,,,,,,,,,,
,,,,,,5eb40100664e991f800b5853,62c538ed78010d410adab9dc,2022-07-06_09h25.51.865,Colour_Asymmetry_Pilot,2022.1.3,Win32,59.48839976,62c50e9c1127f2cd403a315f,0,11,11,27,1,twofour,,,,,,,,,,,,,,,,,,,,,,,,,,,,,,,,,,,,,,,,,,,,,,,,,,,,,,,,,,,,,,,,,,,,,,,,,,,,,,,,,,,,,,,,,,,,,,,,,,,,,,,,,,,,,,,,,,,,,,,,,,,,,,,,,,,,,,,,,,,,,,,,,,,,,,,,,,,,,
,,,,,,5eb40100664e991f800b5853,62c538ed78010d410adab9dc,2022-07-06_09h25.51.865,Colour_Asymmetry_Pilot,2022.1.3,Win32,59.48839976,62c50e9c1127f2cd403a315f,0,12,12,6,1,fourtwo,,,,,,,,,,,,,,,,,,,,,,,,,,,,,,,,,,,,,,,,,,,,,,,,,,,,,,,,,,,,,,,,,,,,,,,,,,,,,,,,,,,,,,,,,,,,,,,,,,,,,,,,,,,,,,,,,,,,,,,,,,,,,,,,,,,,,,,,,,,,,,,,,,,,,,,,,,,,,
,,,,,,5eb40100664e991f800b5853,62c538ed78010d410adab9dc,2022-07-06_09h25.51.865,Colour_Asymmetry_Pilot,2022.1.3,Win32,59.48839976,62c50e9c1127f2cd403a315f,0,13,13,18,1,twoone,,,,,,,,,,,,,,,,,,,,,,,,,,,,,,,,,,,,,,,,,,,,,,,,,,,,,,,,,,,,,,,,,,,,,,,,,,,,,,,,,,,,,,,,,,,,,,,,,,,,,,,,,,,,,,,,,,,,,,,,,,,,,,,,,,,,,,,,,,,,,,,,,,,,,,,,,,,,,
,,,,,,5eb40100664e991f800b5853,62c538ed78010d410adab9dc,2022-07-06_09h25.51.865,Colour_Asymmetry_Pilot,2022.1.3,Win32,59.48839976,62c50e9c1127f2cd403a315f,0,14,14,122,1,twoone,,,,,,,,,,,,,,,,,,,,,,,,,,,,,,,,,,,,,,,,,,,,,,,,,,,,,,,,,,,,,,,,,,,,,,,,,,,,,,,,,,,,,,,,,,,,,,,,,,,,,,,,,,,,,,,,,,,,,,,,,,,,,,,,,,,,,,,,,,,,,,,,,,,,,,,,,,,,,
,,,,,,5eb40100664e991f800b5853,62c538ed78010d410adab9dc,2022-07-06_09h25.51.865,Colour_Asymmetry_Pilot,2022.1.3,Win32,59.48839976,62c50e9c1127f2cd403a315f,0,15,15,148,1,threeone,,,,,,,,,,,,,,,,,,,,,,,,,,,,,,,,,,,,,,,,,,,,,,,,,,,,,,,,,,,,,,,,,,,,,,,,,,,,,,,,,,,,,,,,,,,,,,,,,,,,,,,,,,,,,,,,,,,,,,,,,,,,,,,,,,,,,,,,,,,,,,,,,,,,,,,,,,,,,
,,,,,,5eb40100664e991f800b5853,62c538ed78010d410adab9dc,2022-07-06_09h25.51.865,Colour_Asymmetry_Pilot,2022.1.3,Win32,59.48839976,62c50e9c1127f2cd403a315f,0,16,16,107,1,twofour,,,,,,,,,,,,,,,,,,,,,,,,,,,,,,,,,,,,,,,,,,,,,,,,,,,,,,,,,,,,,,,,,,,,,,,,,,,,,,,,,,,,,,,,,,,,,,,,,,,,,,,,,,,,,,,,,,,,,,,,,,,,,,,,,,,,,,,,,,,,,,,,,,,,,,,,,,,,,
,,,,,,5eb40100664e991f800b5853,62c538ed78010d410adab9dc,2022-07-06_09h25.51.865,Colour_Asymmetry_Pilot,2022.1.3,Win32,59.48839976,62c50e9c1127f2cd403a315f,0,17,17,31,1,fourthree,,,,,,,,,,,,,,,,,,,,,,,,,,,,,,,,,,,,,,,,,,,,,,,,,,,,,,,,,,,,,,,,,,,,,,,,,,,,,,,,,,,,,,,,,,,,,,,,,,,,,,,,,,,,,,,,,,,,,,,,,,,,,,,,,,,,,,,,,,,,,,,,,,,,,,,,,,,,,
,,,,,,5eb40100664e991f800b5853,62c538ed78010d410adab9dc,2022-07-06_09h25.51.865,Colour_Asymmetry_Pilot,2022.1.3,Win32,59.48839976,62c50e9c1127f2cd403a315f,0,18,18,146,1,twoone,,,,,,,,,,,,,,,,,,,,,,,,,,,,,,,,,,,,,,,,,,,,,,,,,,,,,,,,,,,,,,,,,,,,,,,,,,,,,,,,,,,,,,,,,,,,,,,,,,,,,,,,,,,,,,,,,,,,,,,,,,,,,,,,,,,,,,,,,,,,,,,,,,,,,,,,,,,,,
,,,,,,5eb40100664e991f800b5853,62c538ed78010d410adab9dc,2022-07-06_09h25.51.865,Colour_Asymmetry_Pilot,2022.1.3,Win32,59.48839976,62c50e9c1127f2cd403a315f,0,19,19,76,1,threeone,,,,,,,,,,,,,,,,,,,,,,,,,,,,,,,,,,,,,,,,,,,,,,,,,,,,,,,,,,,,,,,,,,,,,,,,,,,,,,,,,,,,,,,,,,,,,,,,,,,,,,,,,,,,,,,,,,,,,,,,,,,,,,,,,,,,,,,,,,,,,,,,,,,,,,,,,,,,,
,,,,,,5eb40100664e991f800b5853,62c538ed78010d410adab9dc,2022-07-06_09h25.51.865,Colour_Asymmetry_Pilot,2022.1.3,Win32,59.48839976,62c50e9c1127f2cd403a315f,0,20,20,40,1,onetwo,,,,,,,,,,,,,,,,,,,,,,,,,,,,,,,,,,,,,,,,,,,,,,,,,,,,,,,,,,,,,,,,,,,,,,,,,,,,,,,,,,,,,,,,,,,,,,,,,,,,,,,,,,,,,,,,,,,,,,,,,,,,,,,,,,,,,,,,,,,,,,,,,,,,,,,,,,,,,
,,,,,,5eb40100664e991f800b5853,62c538ed78010d410adab9dc,2022-07-06_09h25.51.865,Colour_Asymmetry_Pilot,2022.1.3,Win32,59.48839976,62c50e9c1127f2cd403a315f,0,21,21,147,1,twofour,,,,,,,,,,,,,,,,,,,,,,,,,,,,,,,,,,,,,,,,,,,,,,,,,,,,,,,,,,,,,,,,,,,,,,,,,,,,,,,,,,,,,,,,,,,,,,,,,,,,,,,,,,,,,,,,,,,,,,,,,,,,,,,,,,,,,,,,,,,,,,,,,,,,,,,,,,,,,
,,,,,,5eb40100664e991f800b5853,62c538ed78010d410adab9dc,2022-07-06_09h25.51.865,Colour_Asymmetry_Pilot,2022.1.3,Win32,59.48839976,62c50e9c1127f2cd403a315f,0,22,22,139,1,twofour,,,,,,,,,,,,,,,,,,,,,,,,,,,,,,,,,,,,,,,,,,,,,,,,,,,,,,,,,,,,,,,,,,,,,,,,,,,,,,,,,,,,,,,,,,,,,,,,,,,,,,,,,,,,,,,,,,,,,,,,,,,,,,,,,,,,,,,,,,,,,,,,,,,,,,,,,,,,,
,,,,,,5eb40100664e991f800b5853,62c538ed78010d410adab9dc,2022-07-06_09h25.51.865,Colour_Asymmetry_Pilot,2022.1.3,Win32,59.48839976,62c50e9c1127f2cd403a315f,0,23,23,48,1,onetwo,,,,,,,,,,,,,,,,,,,,,,,,,,,,,,,,,,,,,,,,,,,,,,,,,,,,,,,,,,,,,,,,,,,,,,,,,,,,,,,,,,,,,,,,,,,,,,,,,,,,,,,,,,,,,,,,,,,,,,,,,,,,,,,,,,,,,,,,,,,,,,,,,,,,,,,,,,,,,
,,,,,,5eb40100664e991f800b5853,62c538ed78010d410adab9dc,2022-07-06_09h25.51.865,Colour_Asymmetry_Pilot,2022.1.3,Win32,59.48839976,62c50e9c1127f2cd403a315f,0,24,24,50,1,twoone,,,,,,,,,,,,,,,,,,,,,,,,,,,,,,,,,,,,,,,,,,,,,,,,,,,,,,,,,,,,,,,,,,,,,,,,,,,,,,,,,,,,,,,,,,,,,,,,,,,,,,,,,,,,,,,,,,,,,,,,,,,,,,,,,,,,,,,,,,,,,,,,,,,,,,,,,,,,,
,,,,,,5eb40100664e991f800b5853,62c538ed78010d410adab9dc,2022-07-06_09h25.51.865,Colour_Asymmetry_Pilot,2022.1.3,Win32,59.48839976,62c50e9c1127f2cd403a315f,0,25,25,119,1,fourthree,,,,,,,,,,,,,,,,,,,,,,,,,,,,,,,,,,,,,,,,,,,,,,,,,,,,,,,,,,,,,,,,,,,,,,,,,,,,,,,,,,,,,,,,,,,,,,,,,,,,,,,,,,,,,,,,,,,,,,,,,,,,,,,,,,,,,,,,,,,,,,,,,,,,,,,,,,,,,
,,,,,,5eb40100664e991f800b5853,62c538ed78010d410adab9dc,2022-07-06_09h25.51.865,Colour_Asymmetry_Pilot,2022.1.3,Win32,59.48839976,62c50e9c1127f2cd403a315f,0,26,26,123,1,twofour,,,,,,,,,,,,,,,,,,,,,,,,,,,,,,,,,,,,,,,,,,,,,,,,,,,,,,,,,,,,,,,,,,,,,,,,,,,,,,,,,,,,,,,,,,,,,,,,,,,,,,,,,,,,,,,,,,,,,,,,,,,,,,,,,,,,,,,,,,,,,,,,,,,,,,,,,,,,,
,,,,,,5eb40100664e991f800b5853,62c538ed78010d410adab9dc,2022-07-06_09h25.51.865,Colour_Asymmetry_Pilot,2022.1.3,Win32,59.48839976,62c50e9c1127f2cd403a315f,0,27,27,112,1,onetwo,,,,,,,,,,,,,,,,,,,,,,,,,,,,,,,,,,,,,,,,,,,,,,,,,,,,,,,,,,,,,,,,,,,,,,,,,,,,,,,,,,,,,,,,,,,,,,,,,,,,,,,,,,,,,,,,,,,,,,,,,,,,,,,,,,,,,,,,,,,,,,,,,,,,,,,,,,,,,
,,,,,,5eb40100664e991f800b5853,62c538ed78010d410adab9dc,2022-07-06_09h25.51.865,Colour_Asymmetry_Pilot,2022.1.3,Win32,59.48839976,62c50e9c1127f2cd403a315f,0,28,28,22,1,fourtwo,,,,,,,,,,,,,,,,,,,,,,,,,,,,,,,,,,,,,,,,,,,,,,,,,,,,,,,,,,,,,,,,,,,,,,,,,,,,,,,,,,,,,,,,,,,,,,,,,,,,,,,,,,,,,,,,,,,,,,,,,,,,,,,,,,,,,,,,,,,,,,,,,,,,,,,,,,,,,
,,,,,,5eb40100664e991f800b5853,62c538ed78010d410adab9dc,2022-07-06_09h25.51.865,Colour_Asymmetry_Pilot,2022.1.3,Win32,59.48839976,62c50e9c1127f2cd403a315f,0,29,29,7,1,fourthree,,,,,,,,,,,,,,,,,,,,,,,,,,,,,,,,,,,,,,,,,,,,,,,,,,,,,,,,,,,,,,,,,,,,,,,,,,,,,,,,,,,,,,,,,,,,,,,,,,,,,,,,,,,,,,,,,,,,,,,,,,,,,,,,,,,,,,,,,,,,,,,,,,,,,,,,,,,,,
,,,,,,5eb40100664e991f800b5853,62c538ed78010d410adab9dc,2022-07-06_09h25.51.865,Colour_Asymmetry_Pilot,2022.1.3,Win32,59.48839976,62c50e9c1127f2cd403a315f,0,30,30,106,1,twoone,,,,,,,,,,,,,,,,,,,,,,,,,,,,,,,,,,,,,,,,,,,,,,,,,,,,,,,,,,,,,,,,,,,,,,,,,,,,,,,,,,,,,,,,,,,,,,,,,,,,,,,,,,,,,,,,,,,,,,,,,,,,,,,,,,,,,,,,,,,,,,,,,,,,,,,,,,,,,
,,,,,,5eb40100664e991f800b5853,62c538ed78010d410adab9dc,2022-07-06_09h25.51.865,Colour_Asymmetry_Pilot,2022.1.3,Win32,59.48839976,62c50e9c1127f2cd403a315f,0,31,31,108,1,threeone,,,,,,,,,,,,,,,,,,,,,,,,,,,,,,,,,,,,,,,,,,,,,,,,,,,,,,,,,,,,,,,,,,,,,,,,,,,,,,,,,,,,,,,,,,,,,,,,,,,,,,,,,,,,,,,,,,,,,,,,,,,,,,,,,,,,,,,,,,,,,,,,,,,,,,,,,,,,,
,,,,,,5eb40100664e991f800b5853,62c538ed78010d410adab9dc,2022-07-06_09h25.51.865,Colour_Asymmetry_Pilot,2022.1.3,Win32,59.48839976,62c50e9c1127f2cd403a315f,0,32,32,97,1,onethree,,,,,,,,,,,,,,,,,,,,,,,,,,,,,,,,,,,,,,,,,,,,,,,,,,,,,,,,,,,,,,,,,,,,,,,,,,,,,,,,,,,,,,,,,,,,,,,,,,,,,,,,,,,,,,,,,,,,,,,,,,,,,,,,,,,,,,,,,,,,,,,,,,,,,,,,,,,,,
,,,,,,5eb40100664e991f800b5853,62c538ed78010d410adab9dc,2022-07-06_09h25.51.865,Colour_Asymmetry_Pilot,2022.1.3,Win32,59.48839976,62c50e9c1127f2cd403a315f,0,33,33,58,1,twoone,,,,,,,,,,,,,,,,,,,,,,,,,,,,,,,,,,,,,,,,,,,,,,,,,,,,,,,,,,,,,,,,,,,,,,,,,,,,,,,,,,,,,,,,,,,,,,,,,,,,,,,,,,,,,,,,,,,,,,,,,,,,,,,,,,,,,,,,,,,,,,,,,,,,,,,,,,,,,
,,,,,,5eb40100664e991f800b5853,62c538ed78010d410adab9dc,2022-07-06_09h25.51.865,Colour_Asymmetry_Pilot,2022.1.3,Win32,59.48839976,62c50e9c1127f2cd403a315f,0,34,34,67,1,twofour,,,,,,,,,,,,,,,,,,,,,,,,,,,,,,,,,,,,,,,,,,,,,,,,,,,,,,,,,,,,,,,,,,,,,,,,,,,,,,,,,,,,,,,,,,,,,,,,,,,,,,,,,,,,,,,,,,,,,,,,,,,,,,,,,,,,,,,,,,,,,,,,,,,,,,,,,,,,,
,,,,,,5eb40100664e991f800b5853,62c538ed78010d410adab9dc,2022-07-06_09h25.51.865,Colour_Asymmetry_Pilot,2022.1.3,Win32,59.48839976,62c50e9c1127f2cd403a315f,0,35,35,41,1,onethree,,,,,,,,,,,,,,,,,,,,,,,,,,,,,,,,,,,,,,,,,,,,,,,,,,,,,,,,,,,,,,,,,,,,,,,,,,,,,,,,,,,,,,,,,,,,,,,,,,,,,,,,,,,,,,,,,,,,,,,,,,,,,,,,,,,,,,,,,,,,,,,,,,,,,,,,,,,,,
,,,,,,5eb40100664e991f800b5853,62c538ed78010d410adab9dc,2022-07-06_09h25.51.865,Colour_Asymmetry_Pilot,2022.1.3,Win32,59.48839976,62c50e9c1127f2cd403a315f,0,36,36,45,1,threefour,,,,,,,,,,,,,,,,,,,,,,,,,,,,,,,,,,,,,,,,,,,,,,,,,,,,,,,,,,,,,,,,,,,,,,,,,,,,,,,,,,,,,,,,,,,,,,,,,,,,,,,,,,,,,,,,,,,,,,,,,,,,,,,,,,,,,,,,,,,,,,,,,,,,,,,,,,,,,
,,,,,,5eb40100664e991f800b5853,62c538ed78010d410adab9dc,2022-07-06_09h25.51.865,Colour_Asymmetry_Pilot,2022.1.3,Win32,59.48839976,62c50e9c1127f2cd403a315f,0,37,37,136,1,onetwo,,,,,,,,,,,,,,,,,,,,,,,,,,,,,,,,,,,,,,,,,,,,,,,,,,,,,,,,,,,,,,,,,,,,,,,,,,,,,,,,,,,,,,,,,,,,,,,,,,,,,,,,,,,,,,,,,,,,,,,,,,,,,,,,,,,,,,,,,,,,,,,,,,,,,,,,,,,,,
,,,,,,5eb40100664e991f800b5853,62c538ed78010d410adab9dc,2022-07-06_09h25.51.865,Colour_Asymmetry_Pilot,2022.1.3,Win32,59.48839976,62c50e9c1127f2cd403a315f,0,38,38,57,1,onethree,,,,,,,,,,,,,,,,,,,,,,,,,,,,,,,,,,,,,,,,,,,,,,,,,,,,,,,,,,,,,,,,,,,,,,,,,,,,,,,,,,,,,,,,,,,,,,,,,,,,,,,,,,,,,,,,,,,,,,,,,,,,,,,,,,,,,,,,,,,,,,,,,,,,,,,,,,,,,
,,,,,,5eb40100664e991f800b5853,62c538ed78010d410adab9dc,2022-07-06_09h25.51.865,Colour_Asymmetry_Pilot,2022.1.3,Win32,59.48839976,62c50e9c1127f2cd403a315f,0,39,39,91,1,twofour,,,,,,,,,,,,,,,,,,,,,,,,,,,,,,,,,,,,,,,,,,,,,,,,,,,,,,,,,,,,,,,,,,,,,,,,,,,,,,,,,,,,,,,,,,,,,,,,,,,,,,,,,,,,,,,,,,,,,,,,,,,,,,,,,,,,,,,,,,,,,,,,,,,,,,,,,,,,,
,,,,,,5eb40100664e991f800b5853,62c538ed78010d410adab9dc,2022-07-06_09h25.51.865,Colour_Asymmetry_Pilot,2022.1.3,Win32,59.48839976,62c50e9c1127f2cd403a315f,0,40,40,102,1,fourtwo,,,,,,,,,,,,,,,,,,,,,,,,,,,,,,,,,,,,,,,,,,,,,,,,,,,,,,,,,,,,,,,,,,,,,,,,,,,,,,,,,,,,,,,,,,,,,,,,,,,,,,,,,,,,,,,,,,,,,,,,,,,,,,,,,,,,,,,,,,,,,,,,,,,,,,,,,,,,,
,,,,,,5eb40100664e991f800b5853,62c538ed78010d410adab9dc,2022-07-06_09h25.51.865,Colour_Asymmetry_Pilot,2022.1.3,Win32,59.48839976,62c50e9c1127f2cd403a315f,0,41,41,23,1,fourthree,,,,,,,,,,,,,,,,,,,,,,,,,,,,,,,,,,,,,,,,,,,,,,,,,,,,,,,,,,,,,,,,,,,,,,,,,,,,,,,,,,,,,,,,,,,,,,,,,,,,,,,,,,,,,,,,,,,,,,,,,,,,,,,,,,,,,,,,,,,,,,,,,,,,,,,,,,,,,
,,,,,,5eb40100664e991f800b5853,62c538ed78010d410adab9dc,2022-07-06_09h25.51.865,Colour_Asymmetry_Pilot,2022.1.3,Win32,59.48839976,62c50e9c1127f2cd403a315f,0,42,42,109,1,threefour,,,,,,,,,,,,,,,,,,,,,,,,,,,,,,,,,,,,,,,,,,,,,,,,,,,,,,,,,,,,,,,,,,,,,,,,,,,,,,,,,,,,,,,,,,,,,,,,,,,,,,,,,,,,,,,,,,,,,,,,,,,,,,,,,,,,,,,,,,,,,,,,,,,,,,,,,,,,,
,,,,,,5eb40100664e991f800b5853,62c538ed78010d410adab9dc,2022-07-06_09h25.51.865,Colour_Asymmetry_Pilot,2022.1.3,Win32,59.48839976,62c50e9c1127f2cd403a315f,0,43,43,5,1,threefour,,,,,,,,,,,,,,,,,,,,,,,,,,,,,,,,,,,,,,,,,,,,,,,,,,,,,,,,,,,,,,,,,,,,,,,,,,,,,,,,,,,,,,,,,,,,,,,,,,,,,,,,,,,,,,,,,,,,,,,,,,,,,,,,,,,,,,,,,,,,,,,,,,,,,,,,,,,,,
,,,,,,5eb40100664e991f800b5853,62c538ed78010d410adab9dc,2022-07-06_09h25.51.865,Colour_Asymmetry_Pilot,2022.1.3,Win32,59.48839976,62c50e9c1127f2cd403a315f,0,44,44,131,1,twofour,,,,,,,,,,,,,,,,,,,,,,,,,,,,,,,,,,,,,,,,,,,,,,,,,,,,,,,,,,,,,,,,,,,,,,,,,,,,,,,,,,,,,,,,,,,,,,,,,,,,,,,,,,,,,,,,,,,,,,,,,,,,,,,,,,,,,,,,,,,,,,,,,,,,,,,,,,,,,
,,,,,,5eb40100664e991f800b5853,62c538ed78010d410adab9dc,2022-07-06_09h25.51.865,Colour_Asymmetry_Pilot,2022.1.3,Win32,59.48839976,62c50e9c1127f2cd403a315f,0,45,45,74,1,twoone,,,,,,,,,,,,,,,,,,,,,,,,,,,,,,,,,,,,,,,,,,,,,,,,,,,,,,,,,,,,,,,,,,,,,,,,,,,,,,,,,,,,,,,,,,,,,,,,,,,,,,,,,,,,,,,,,,,,,,,,,,,,,,,,,,,,,,,,,,,,,,,,,,,,,,,,,,,,,
,,,,,,5eb40100664e991f800b5853,62c538ed78010d410adab9dc,2022-07-06_09h25.51.865,Colour_Asymmetry_Pilot,2022.1.3,Win32,59.48839976,62c50e9c1127f2cd403a315f,0,46,46,137,1,onethree,,,,,,,,,,,,,,,,,,,,,,,,,,,,,,,,,,,,,,,,,,,,,,,,,,,,,,,,,,,,,,,,,,,,,,,,,,,,,,,,,,,,,,,,,,,,,,,,,,,,,,,,,,,,,,,,,,,,,,,,,,,,,,,,,,,,,,,,,,,,,,,,,,,,,,,,,,,,,
,,,,,,5eb40100664e991f800b5853,62c538ed78010d410adab9dc,2022-07-06_09h25.51.865,Colour_Asymmetry_Pilot,2022.1.3,Win32,59.48839976,62c50e9c1127f2cd403a315f,0,47,47,159,1,fourthree,,,,,,,,,,,,,,,,,,,,,,,,,,,,,,,,,,,,,,,,,,,,,,,,,,,,,,,,,,,,,,,,,,,,,,,,,,,,,,,,,,,,,,,,,,,,,,,,,,,,,,,,,,,,,,,,,,,,,,,,,,,,,,,,,,,,,,,,,,,,,,,,,,,,,,,,,,,,,
,,,,,,5eb40100664e991f800b5853,62c538ed78010d410adab9dc,2022-07-06_09h25.51.865,Colour_Asymmetry_Pilot,2022.1.3,Win32,59.48839976,62c50e9c1127f2cd403a315f,0,48,48,61,1,threefour,,,,,,,,,,,,,,,,,,,,,,,,,,,,,,,,,,,,,,,,,,,,,,,,,,,,,,,,,,,,,,,,,,,,,,,,,,,,,,,,,,,,,,,,,,,,,,,,,,,,,,,,,,,,,,,,,,,,,,,,,,,,,,,,,,,,,,,,,,,,,,,,,,,,,,,,,,,,,
,,,,,,5eb40100664e991f800b5853,62c538ed78010d410adab9dc,2022-07-06_09h25.51.865,Colour_Asymmetry_Pilot,2022.1.3,Win32,59.48839976,62c50e9c1127f2cd403a315f,0,49,49,103,1,fourthree,,,,,,,,,,,,,,,,,,,,,,,,,,,,,,,,,,,,,,,,,,,,,,,,,,,,,,,,,,,,,,,,,,,,,,,,,,,,,,,,,,,,,,,,,,,,,,,,,,,,,,,,,,,,,,,,,,,,,,,,,,,,,,,,,,,,,,,,,,,,,,,,,,,,,,,,,,,,,
,,,,,,5eb40100664e991f800b5853,62c538ed78010d410adab9dc,2022-07-06_09h25.51.865,Colour_Asymmetry_Pilot,2022.1.3,Win32,59.48839976,62c50e9c1127f2cd403a315f,0,50,50,16,1,onetwo,,,,,,,,,,,,,,,,,,,,,,,,,,,,,,,,,,,,,,,,,,,,,,,,,,,,,,,,,,,,,,,,,,,,,,,,,,,,,,,,,,,,,,,,,,,,,,,,,,,,,,,,,,,,,,,,,,,,,,,,,,,,,,,,,,,,,,,,,,,,,,,,,,,,,,,,,,,,,
,,,,,,5eb40100664e991f800b5853,62c538ed78010d410adab9dc,2022-07-06_09h25.51.865,Colour_Asymmetry_Pilot,2022.1.3,Win32,59.48839976,62c50e9c1127f2cd403a315f,0,51,51,126,1,fourtwo,,,,,,,,,,,,,,,,,,,,,,,,,,,,,,,,,,,,,,,,,,,,,,,,,,,,,,,,,,,,,,,,,,,,,,,,,,,,,,,,,,,,,,,,,,,,,,,,,,,,,,,,,,,,,,,,,,,,,,,,,,,,,,,,,,,,,,,,,,,,,,,,,,,,,,,,,,,,,
,,,,,,5eb40100664e991f800b5853,62c538ed78010d410adab9dc,2022-07-06_09h25.51.865,Colour_Asymmetry_Pilot,2022.1.3,Win32,59.48839976,62c50e9c1127f2cd403a315f,0,52,52,114,1,twoone,,,,,,,,,,,,,,,,,,,,,,,,,,,,,,,,,,,,,,,,,,,,,,,,,,,,,,,,,,,,,,,,,,,,,,,,,,,,,,,,,,,,,,,,,,,,,,,,,,,,,,,,,,,,,,,,,,,,,,,,,,,,,,,,,,,,,,,,,,,,,,,,,,,,,,,,,,,,,
,,,,,,5eb40100664e991f800b5853,62c538ed78010d410adab9dc,2022-07-06_09h25.51.865,Colour_Asymmetry_Pilot,2022.1.3,Win32,59.48839976,62c50e9c1127f2cd403a315f,0,53,53,80,1,onetwo,,,,,,,,,,,,,,,,,,,,,,,,,,,,,,,,,,,,,,,,,,,,,,,,,,,,,,,,,,,,,,,,,,,,,,,,,,,,,,,,,,,,,,,,,,,,,,,,,,,,,,,,,,,,,,,,,,,,,,,,,,,,,,,,,,,,,,,,,,,,,,,,,,,,,,,,,,,,,
,,,,,,5eb40100664e991f800b5853,62c538ed78010d410adab9dc,2022-07-06_09h25.51.865,Colour_Asymmetry_Pilot,2022.1.3,Win32,59.48839976,62c50e9c1127f2cd403a315f,0,54,54,9,1,onethree,,,,,,,,,,,,,,,,,,,,,,,,,,,,,,,,,,,,,,,,,,,,,,,,,,,,,,,,,,,,,,,,,,,,,,,,,,,,,,,,,,,,,,,,,,,,,,,,,,,,,,,,,,,,,,,,,,,,,,,,,,,,,,,,,,,,,,,,,,,,,,,,,,,,,,,,,,,,,
,,,,,,5eb40100664e991f800b5853,62c538ed78010d410adab9dc,2022-07-06_09h25.51.865,Colour_Asymmetry_Pilot,2022.1.3,Win32,59.48839976,62c50e9c1127f2cd403a315f,0,55,55,85,1,threefour,,,,,,,,,,,,,,,,,,,,,,,,,,,,,,,,,,,,,,,,,,,,,,,,,,,,,,,,,,,,,,,,,,,,,,,,,,,,,,,,,,,,,,,,,,,,,,,,,,,,,,,,,,,,,,,,,,,,,,,,,,,,,,,,,,,,,,,,,,,,,,,,,,,,,,,,,,,,,
,,,,,,5eb40100664e991f800b5853,62c538ed78010d410adab9dc,2022-07-06_09h25.51.865,Colour_Asymmetry_Pilot,2022.1.3,Win32,59.48839976,62c50e9c1127f2cd403a315f,0,56,56,64,1,onetwo,,,,,,,,,,,,,,,,,,,,,,,,,,,,,,,,,,,,,,,,,,,,,,,,,,,,,,,,,,,,,,,,,,,,,,,,,,,,,,,,,,,,,,,,,,,,,,,,,,,,,,,,,,,,,,,,,,,,,,,,,,,,,,,,,,,,,,,,,,,,,,,,,,,,,,,,,,,,,
,,,,,,5eb40100664e991f800b5853,62c538ed78010d410adab9dc,2022-07-06_09h25.51.865,Colour_Asymmetry_Pilot,2022.1.3,Win32,59.48839976,62c50e9c1127f2cd403a315f,0,57,57,65,1,onethree,,,,,,,,,,,,,,,,,,,,,,,,,,,,,,,,,,,,,,,,,,,,,,,,,,,,,,,,,,,,,,,,,,,,,,,,,,,,,,,,,,,,,,,,,,,,,,,,,,,,,,,,,,,,,,,,,,,,,,,,,,,,,,,,,,,,,,,,,,,,,,,,,,,,,,,,,,,,,
,,,,,,5eb40100664e991f800b5853,62c538ed78010d410adab9dc,2022-07-06_09h25.51.865,Colour_Asymmetry_Pilot,2022.1.3,Win32,59.48839976,62c50e9c1127f2cd403a315f,0,58,58,100,1,threeone,,,,,,,,,,,,,,,,,,,,,,,,,,,,,,,,,,,,,,,,,,,,,,,,,,,,,,,,,,,,,,,,,,,,,,,,,,,,,,,,,,,,,,,,,,,,,,,,,,,,,,,,,,,,,,,,,,,,,,,,,,,,,,,,,,,,,,,,,,,,,,,,,,,,,,,,,,,,,
,,,,,,5eb40100664e991f800b5853,62c538ed78010d410adab9dc,2022-07-06_09h25.51.865,Colour_Asymmetry_Pilot,2022.1.3,Win32,59.48839976,62c50e9c1127f2cd403a315f,0,59,59,94,1,fourtwo,,,,,,,,,,,,,,,,,,,,,,,,,,,,,,,,,,,,,,,,,,,,,,,,,,,,,,,,,,,,,,,,,,,,,,,,,,,,,,,,,,,,,,,,,,,,,,,,,,,,,,,,,,,,,,,,,,,,,,,,,,,,,,,,,,,,,,,,,,,,,,,,,,,,,,,,,,,,,
,,,,,,5eb40100664e991f800b5853,62c538ed78010d410adab9dc,2022-07-06_09h25.51.865,Colour_Asymmetry_Pilot,2022.1.3,Win32,59.48839976,62c50e9c1127f2cd403a315f,0,60,60,143,1,fourthree,,,,,,,,,,,,,,,,,,,,,,,,,,,,,,,,,,,,,,,,,,,,,,,,,,,,,,,,,,,,,,,,,,,,,,,,,,,,,,,,,,,,,,,,,,,,,,,,,,,,,,,,,,,,,,,,,,,,,,,,,,,,,,,,,,,,,,,,,,,,,,,,,,,,,,,,,,,,,
,,,,,,5eb40100664e991f800b5853,62c538ed78010d410adab9dc,2022-07-06_09h25.51.865,Colour_Asymmetry_Pilot,2022.1.3,Win32,59.48839976,62c50e9c1127f2cd403a315f,0,61,61,34,1,twoone,,,,,,,,,,,,,,,,,,,,,,,,,,,,,,,,,,,,,,,,,,,,,,,,,,,,,,,,,,,,,,,,,,,,,,,,,,,,,,,,,,,,,,,,,,,,,,,,,,,,,,,,,,,,,,,,,,,,,,,,,,,,,,,,,,,,,,,,,,,,,,,,,,,,,,,,,,,,,
,,,,,,5eb40100664e991f800b5853,62c538ed78010d410adab9dc,2022-07-06_09h25.51.865,Colour_Asymmetry_Pilot,2022.1.3,Win32,59.48839976,62c50e9c1127f2cd403a315f,0,62,62,135,1,fourthree,,,,,,,,,,,,,,,,,,,,,,,,,,,,,,,,,,,,,,,,,,,,,,,,,,,,,,,,,,,,,,,,,,,,,,,,,,,,,,,,,,,,,,,,,,,,,,,,,,,,,,,,,,,,,,,,,,,,,,,,,,,,,,,,,,,,,,,,,,,,,,,,,,,,,,,,,,,,,
,,,,,,5eb40100664e991f800b5853,62c538ed78010d410adab9dc,2022-07-06_09h25.51.865,Colour_Asymmetry_Pilot,2022.1.3,Win32,59.48839976,62c50e9c1127f2cd403a315f,0,63,63,56,1,onetwo,,,,,,,,,,,,,,,,,,,,,,,,,,,,,,,,,,,,,,,,,,,,,,,,,,,,,,,,,,,,,,,,,,,,,,,,,,,,,,,,,,,,,,,,,,,,,,,,,,,,,,,,,,,,,,,,,,,,,,,,,,,,,,,,,,,,,,,,,,,,,,,,,,,,,,,,,,,,,
,,,,,,5eb40100664e991f800b5853,62c538ed78010d410adab9dc,2022-07-06_09h25.51.865,Colour_Asymmetry_Pilot,2022.1.3,Win32,59.48839976,62c50e9c1127f2cd403a315f,0,64,64,10,1,twoone,,,,,,,,,,,,,,,,,,,,,,,,,,,,,,,,,,,,,,,,,,,,,,,,,,,,,,,,,,,,,,,,,,,,,,,,,,,,,,,,,,,,,,,,,,,,,,,,,,,,,,,,,,,,,,,,,,,,,,,,,,,,,,,,,,,,,,,,,,,,,,,,,,,,,,,,,,,,,
,,,,,,5eb40100664e991f800b5853,62c538ed78010d410adab9dc,2022-07-06_09h25.51.865,Colour_Asymmetry_Pilot,2022.1.3,Win32,59.48839976,62c50e9c1127f2cd403a315f,0,65,65,115,1,twofour,,,,,,,,,,,,,,,,,,,,,,,,,,,,,,,,,,,,,,,,,,,,,,,,,,,,,,,,,,,,,,,,,,,,,,,,,,,,,,,,,,,,,,,,,,,,,,,,,,,,,,,,,,,,,,,,,,,,,,,,,,,,,,,,,,,,,,,,,,,,,,,,,,,,,,,,,,,,,
,,,,,,5eb40100664e991f800b5853,62c538ed78010d410adab9dc,2022-07-06_09h25.51.865,Colour_Asymmetry_Pilot,2022.1.3,Win32,59.48839976,62c50e9c1127f2cd403a315f,0,66,66,157,1,threefour,,,,,,,,,,,,,,,,,,,,,,,,,,,,,,,,,,,,,,,,,,,,,,,,,,,,,,,,,,,,,,,,,,,,,,,,,,,,,,,,,,,,,,,,,,,,,,,,,,,,,,,,,,,,,,,,,,,,,,,,,,,,,,,,,,,,,,,,,,,,,,,,,,,,,,,,,,,,,
,,,,,,5eb40100664e991f800b5853,62c538ed78010d410adab9dc,2022-07-06_09h25.51.865,Colour_Asymmetry_Pilot,2022.1.3,Win32,59.48839976,62c50e9c1127f2cd403a315f,0,67,67,104,1,onetwo,,,,,,,,,,,,,,,,,,,,,,,,,,,,,,,,,,,,,,,,,,,,,,,,,,,,,,,,,,,,,,,,,,,,,,,,,,,,,,,,,,,,,,,,,,,,,,,,,,,,,,,,,,,,,,,,,,,,,,,,,,,,,,,,,,,,,,,,,,,,,,,,,,,,,,,,,,,,,
,,,,,,5eb40100664e991f800b5853,62c538ed78010d410adab9dc,2022-07-06_09h25.51.865,Colour_Asymmetry_Pilot,2022.1.3,Win32,59.48839976,62c50e9c1127f2cd403a315f,0,68,68,101,1,threefour,,,,,,,,,,,,,,,,,,,,,,,,,,,,,,,,,,,,,,,,,,,,,,,,,,,,,,,,,,,,,,,,,,,,,,,,,,,,,,,,,,,,,,,,,,,,,,,,,,,,,,,,,,,,,,,,,,,,,,,,,,,,,,,,,,,,,,,,,,,,,,,,,,,,,,,,,,,,,
,,,,,,5eb40100664e991f800b5853,62c538ed78010d410adab9dc,2022-07-06_09h25.51.865,Colour_Asymmetry_Pilot,2022.1.3,Win32,59.48839976,62c50e9c1127f2cd403a315f,0,69,69,129,1,onethree,,,,,,,,,,,,,,,,,,,,,,,,,,,,,,,,,,,,,,,,,,,,,,,,,,,,,,,,,,,,,,,,,,,,,,,,,,,,,,,,,,,,,,,,,,,,,,,,,,,,,,,,,,,,,,,,,,,,,,,,,,,,,,,,,,,,,,,,,,,,,,,,,,,,,,,,,,,,,
,,,,,,5eb40100664e991f800b5853,62c538ed78010d410adab9dc,2022-07-06_09h25.51.865,Colour_Asymmetry_Pilot,2022.1.3,Win32,59.48839976,62c50e9c1127f2cd403a315f,0,70,70,138,1,twoone,,,,,,,,,,,,,,,,,,,,,,,,,,,,,,,,,,,,,,,,,,,,,,,,,,,,,,,,,,,,,,,,,,,,,,,,,,,,,,,,,,,,,,,,,,,,,,,,,,,,,,,,,,,,,,,,,,,,,,,,,,,,,,,,,,,,,,,,,,,,,,,,,,,,,,,,,,,,,
,,,,,,5eb40100664e991f800b5853,62c538ed78010d410adab9dc,2022-07-06_09h25.51.865,Colour_Asymmetry_Pilot,2022.1.3,Win32,59.48839976,62c50e9c1127f2cd403a315f,0,71,71,142,1,fourtwo,,,,,,,,,,,,,,,,,,,,,,,,,,,,,,,,,,,,,,,,,,,,,,,,,,,,,,,,,,,,,,,,,,,,,,,,,,,,,,,,,,,,,,,,,,,,,,,,,,,,,,,,,,,,,,,,,,,,,,,,,,,,,,,,,,,,,,,,,,,,,,,,,,,,,,,,,,,,,
,,,,,,5eb40100664e991f800b5853,62c538ed78010d410adab9dc,2022-07-06_09h25.51.865,Colour_Asymmetry_Pilot,2022.1.3,Win32,59.48839976,62c50e9c1127f2cd403a315f,0,72,72,38,1,fourtwo,,,,,,,,,,,,,,,,,,,,,,,,,,,,,,,,,,,,,,,,,,,,,,,,,,,,,,,,,,,,,,,,,,,,,,,,,,,,,,,,,,,,,,,,,,,,,,,,,,,,,,,,,,,,,,,,,,,,,,,,,,,,,,,,,,,,,,,,,,,,,,,,,,,,,,,,,,,,,
,,,,,,5eb40100664e991f800b5853,62c538ed78010d410adab9dc,2022-07-06_09h25.51.865,Colour_Asymmetry_Pilot,2022.1.3,Win32,59.48839976,62c50e9c1127f2cd403a315f,0,73,73,127,1,fourthree,,,,,,,,,,,,,,,,,,,,,,,,,,,,,,,,,,,,,,,,,,,,,,,,,,,,,,,,,,,,,,,,,,,,,,,,,,,,,,,,,,,,,,,,,,,,,,,,,,,,,,,,,,,,,,,,,,,,,,,,,,,,,,,,,,,,,,,,,,,,,,,,,,,,,,,,,,,,,
,,,,,,5eb40100664e991f800b5853,62c538ed78010d410adab9dc,2022-07-06_09h25.51.865,Colour_Asymmetry_Pilot,2022.1.3,Win32,59.48839976,62c50e9c1127f2cd403a315f,0,74,74,111,1,fourthree,,,,,,,,,,,,,,,,,,,,,,,,,,,,,,,,,,,,,,,,,,,,,,,,,,,,,,,,,,,,,,,,,,,,,,,,,,,,,,,,,,,,,,,,,,,,,,,,,,,,,,,,,,,,,,,,,,,,,,,,,,,,,,,,,,,,,,,,,,,,,,,,,,,,,,,,,,,,,
,,,,,,5eb40100664e991f800b5853,62c538ed78010d410adab9dc,2022-07-06_09h25.51.865,Colour_Asymmetry_Pilot,2022.1.3,Win32,59.48839976,62c50e9c1127f2cd403a315f,0,75,75,14,1,fourtwo,,,,,,,,,,,,,,,,,,,,,,,,,,,,,,,,,,,,,,,,,,,,,,,,,,,,,,,,,,,,,,,,,,,,,,,,,,,,,,,,,,,,,,,,,,,,,,,,,,,,,,,,,,,,,,,,,,,,,,,,,,,,,,,,,,,,,,,,,,,,,,,,,,,,,,,,,,,,,
,,,,,,5eb40100664e991f800b5853,62c538ed78010d410adab9dc,2022-07-06_09h25.51.865,Colour_Asymmetry_Pilot,2022.1.3,Win32,59.48839976,62c50e9c1127f2cd403a315f,0,76,76,63,1,fourthree,,,,,,,,,,,,,,,,,,,,,,,,,,,,,,,,,,,,,,,,,,,,,,,,,,,,,,,,,,,,,,,,,,,,,,,,,,,,,,,,,,,,,,,,,,,,,,,,,,,,,,,,,,,,,,,,,,,,,,,,,,,,,,,,,,,,,,,,,,,,,,,,,,,,,,,,,,,,,
,,,,,,5eb40100664e991f800b5853,62c538ed78010d410adab9dc,2022-07-06_09h25.51.865,Colour_Asymmetry_Pilot,2022.1.3,Win32,59.48839976,62c50e9c1127f2cd403a315f,0,77,77,130,1,twoone,,,,,,,,,,,,,,,,,,,,,,,,,,,,,,,,,,,,,,,,,,,,,,,,,,,,,,,,,,,,,,,,,,,,,,,,,,,,,,,,,,,,,,,,,,,,,,,,,,,,,,,,,,,,,,,,,,,,,,,,,,,,,,,,,,,,,,,,,,,,,,,,,,,,,,,,,,,,,
,,,,,,5eb40100664e991f800b5853,62c538ed78010d410adab9dc,2022-07-06_09h25.51.865,Colour_Asymmetry_Pilot,2022.1.3,Win32,59.48839976,62c50e9c1127f2cd403a315f,0,78,78,78,1,fourtwo,,,,,,,,,,,,,,,,,,,,,,,,,,,,,,,,,,,,,,,,,,,,,,,,,,,,,,,,,,,,,,,,,,,,,,,,,,,,,,,,,,,,,,,,,,,,,,,,,,,,,,,,,,,,,,,,,,,,,,,,,,,,,,,,,,,,,,,,,,,,,,,,,,,,,,,,,,,,,
,,,,,,5eb40100664e991f800b5853,62c538ed78010d410adab9dc,2022-07-06_09h25.51.865,Colour_Asymmetry_Pilot,2022.1.3,Win32,59.48839976,62c50e9c1127f2cd403a315f,0,79,79,15,1,fourthree,,,,,,,,,,,,,,,,,,,,,,,,,,,,,,,,,,,,,,,,,,,,,,,,,,,,,,,,,,,,,,,,,,,,,,,,,,,,,,,,,,,,,,,,,,,,,,,,,,,,,,,,,,,,,,,,,,,,,,,,,,,,,,,,,,,,,,,,,,,,,,,,,,,,,,,,,,,,,
,,,,,,5eb40100664e991f800b5853,62c538ed78010d410adab9dc,2022-07-06_09h25.51.865,Colour_Asymmetry_Pilot,2022.1.3,Win32,59.48839976,62c50e9c1127f2cd403a315f,0,80,80,133,1,threefour,,,,,,,,,,,,,,,,,,,,,,,,,,,,,,,,,,,,,,,,,,,,,,,,,,,,,,,,,,,,,,,,,,,,,,,,,,,,,,,,,,,,,,,,,,,,,,,,,,,,,,,,,,,,,,,,,,,,,,,,,,,,,,,,,,,,,,,,,,,,,,,,,,,,,,,,,,,,,
,,,,,,5eb40100664e991f800b5853,62c538ed78010d410adab9dc,2022-07-06_09h25.51.865,Colour_Asymmetry_Pilot,2022.1.3,Win32,59.48839976,62c50e9c1127f2cd403a315f,0,81,81,62,1,fourtwo,,,,,,,,,,,,,,,,,,,,,,,,,,,,,,,,,,,,,,,,,,,,,,,,,,,,,,,,,,,,,,,,,,,,,,,,,,,,,,,,,,,,,,,,,,,,,,,,,,,,,,,,,,,,,,,,,,,,,,,,,,,,,,,,,,,,,,,,,,,,,,,,,,,,,,,,,,,,,
,,,,,,5eb40100664e991f800b5853,62c538ed78010d410adab9dc,2022-07-06_09h25.51.865,Colour_Asymmetry_Pilot,2022.1.3,Win32,59.48839976,62c50e9c1127f2cd403a315f,0,82,82,99,1,twofour,,,,,,,,,,,,,,,,,,,,,,,,,,,,,,,,,,,,,,,,,,,,,,,,,,,,,,,,,,,,,,,,,,,,,,,,,,,,,,,,,,,,,,,,,,,,,,,,,,,,,,,,,,,,,,,,,,,,,,,,,,,,,,,,,,,,,,,,,,,,,,,,,,,,,,,,,,,,,
,,,,,,5eb40100664e991f800b5853,62c538ed78010d410adab9dc,2022-07-06_09h25.51.865,Colour_Asymmetry_Pilot,2022.1.3,Win32,59.48839976,62c50e9c1127f2cd403a315f,0,83,83,71,1,fourthree,,,,,,,,,,,,,,,,,,,,,,,,,,,,,,,,,,,,,,,,,,,,,,,,,,,,,,,,,,,,,,,,,,,,,,,,,,,,,,,,,,,,,,,,,,,,,,,,,,,,,,,,,,,,,,,,,,,,,,,,,,,,,,,,,,,,,,,,,,,,,,,,,,,,,,,,,,,,,
,,,,,,5eb40100664e991f800b5853,62c538ed78010d410adab9dc,2022-07-06_09h25.51.865,Colour_Asymmetry_Pilot,2022.1.3,Win32,59.48839976,62c50e9c1127f2cd403a315f,0,84,84,60,1,threeone,,,,,,,,,,,,,,,,,,,,,,,,,,,,,,,,,,,,,,,,,,,,,,,,,,,,,,,,,,,,,,,,,,,,,,,,,,,,,,,,,,,,,,,,,,,,,,,,,,,,,,,,,,,,,,,,,,,,,,,,,,,,,,,,,,,,,,,,,,,,,,,,,,,,,,,,,,,,,
,,,,,,5eb40100664e991f800b5853,62c538ed78010d410adab9dc,2022-07-06_09h25.51.865,Colour_Asymmetry_Pilot,2022.1.3,Win32,59.48839976,62c50e9c1127f2cd403a315f,0,85,85,68,1,threeone,,,,,,,,,,,,,,,,,,,,,,,,,,,,,,,,,,,,,,,,,,,,,,,,,,,,,,,,,,,,,,,,,,,,,,,,,,,,,,,,,,,,,,,,,,,,,,,,,,,,,,,,,,,,,,,,,,,,,,,,,,,,,,,,,,,,,,,,,,,,,,,,,,,,,,,,,,,,,
,,,,,,5eb40100664e991f800b5853,62c538ed78010d410adab9dc,2022-07-06_09h25.51.865,Colour_Asymmetry_Pilot,2022.1.3,Win32,59.48839976,62c50e9c1127f2cd403a315f,0,86,86,116,1,threeone,,,,,,,,,,,,,,,,,,,,,,,,,,,,,,,,,,,,,,,,,,,,,,,,,,,,,,,,,,,,,,,,,,,,,,,,,,,,,,,,,,,,,,,,,,,,,,,,,,,,,,,,,,,,,,,,,,,,,,,,,,,,,,,,,,,,,,,,,,,,,,,,,,,,,,,,,,,,,
,,,,,,5eb40100664e991f800b5853,62c538ed78010d410adab9dc,2022-07-06_09h25.51.865,Colour_Asymmetry_Pilot,2022.1.3,Win32,59.48839976,62c50e9c1127f2cd403a315f,0,87,87,47,1,fourthree,,,,,,,,,,,,,,,,,,,,,,,,,,,,,,,,,,,,,,,,,,,,,,,,,,,,,,,,,,,,,,,,,,,,,,,,,,,,,,,,,,,,,,,,,,,,,,,,,,,,,,,,,,,,,,,,,,,,,,,,,,,,,,,,,,,,,,,,,,,,,,,,,,,,,,,,,,,,,
,,,,,,5eb40100664e991f800b5853,62c538ed78010d410adab9dc,2022-07-06_09h25.51.865,Colour_Asymmetry_Pilot,2022.1.3,Win32,59.48839976,62c50e9c1127f2cd403a315f,0,88,88,161,1,onethree,,,,,,,,,,,,,,,,,,,,,,,,,,,,,,,,,,,,,,,,,,,,,,,,,,,,,,,,,,,,,,,,,,,,,,,,,,,,,,,,,,,,,,,,,,,,,,,,,,,,,,,,,,,,,,,,,,,,,,,,,,,,,,,,,,,,,,,,,,,,,,,,,,,,,,,,,,,,,
,,,,,,5eb40100664e991f800b5853,62c538ed78010d410adab9dc,2022-07-06_09h25.51.865,Colour_Asymmetry_Pilot,2022.1.3,Win32,59.48839976,62c50e9c1127f2cd403a315f,0,89,89,86,1,fourtwo,,,,,,,,,,,,,,,,,,,,,,,,,,,,,,,,,,,,,,,,,,,,,,,,,,,,,,,,,,,,,,,,,,,,,,,,,,,,,,,,,,,,,,,,,,,,,,,,,,,,,,,,,,,,,,,,,,,,,,,,,,,,,,,,,,,,,,,,,,,,,,,,,,,,,,,,,,,,,
,,,,,,5eb40100664e991f800b5853,62c538ed78010d410adab9dc,2022-07-06_09h25.51.865,Colour_Asymmetry_Pilot,2022.1.3,Win32,59.48839976,62c50e9c1127f2cd403a315f,0,90,90,113,1,onethree,,,,,,,,,,,,,,,,,,,,,,,,,,,,,,,,,,,,,,,,,,,,,,,,,,,,,,,,,,,,,,,,,,,,,,,,,,,,,,,,,,,,,,,,,,,,,,,,,,,,,,,,,,,,,,,,,,,,,,,,,,,,,,,,,,,,,,,,,,,,,,,,,,,,,,,,,,,,,
,,,,,,5eb40100664e991f800b5853,62c538ed78010d410adab9dc,2022-07-06_09h25.51.865,Colour_Asymmetry_Pilot,2022.1.3,Win32,59.48839976,62c50e9c1127f2cd403a315f,0,91,91,39,1,fourthree,,,,,,,,,,,,,,,,,,,,,,,,,,,,,,,,,,,,,,,,,,,,,,,,,,,,,,,,,,,,,,,,,,,,,,,,,,,,,,,,,,,,,,,,,,,,,,,,,,,,,,,,,,,,,,,,,,,,,,,,,,,,,,,,,,,,,,,,,,,,,,,,,,,,,,,,,,,,,
,,,,,,5eb40100664e991f800b5853,62c538ed78010d410adab9dc,2022-07-06_09h25.51.865,Colour_Asymmetry_Pilot,2022.1.3,Win32,59.48839976,62c50e9c1127f2cd403a315f,0,92,92,124,1,threeone,,,,,,,,,,,,,,,,,,,,,,,,,,,,,,,,,,,,,,,,,,,,,,,,,,,,,,,,,,,,,,,,,,,,,,,,,,,,,,,,,,,,,,,,,,,,,,,,,,,,,,,,,,,,,,,,,,,,,,,,,,,,,,,,,,,,,,,,,,,,,,,,,,,,,,,,,,,,,
,,,,,,5eb40100664e991f800b5853,62c538ed78010d410adab9dc,2022-07-06_09h25.51.865,Colour_Asymmetry_Pilot,2022.1.3,Win32,59.48839976,62c50e9c1127f2cd403a315f,0,93,93,44,1,threeone,,,,,,,,,,,,,,,,,,,,,,,,,,,,,,,,,,,,,,,,,,,,,,,,,,,,,,,,,,,,,,,,,,,,,,,,,,,,,,,,,,,,,,,,,,,,,,,,,,,,,,,,,,,,,,,,,,,,,,,,,,,,,,,,,,,,,,,,,,,,,,,,,,,,,,,,,,,,,
,,,,,,5eb40100664e991f800b5853,62c538ed78010d410adab9dc,2022-07-06_09h25.51.865,Colour_Asymmetry_Pilot,2022.1.3,Win32,59.48839976,62c50e9c1127f2cd403a315f,0,94,94,87,1,fourthree,,,,,,,,,,,,,,,,,,,,,,,,,,,,,,,,,,,,,,,,,,,,,,,,,,,,,,,,,,,,,,,,,,,,,,,,,,,,,,,,,,,,,,,,,,,,,,,,,,,,,,,,,,,,,,,,,,,,,,,,,,,,,,,,,,,,,,,,,,,,,,,,,,,,,,,,,,,,,
,,,,,,5eb40100664e991f800b5853,62c538ed78010d410adab9dc,2022-07-06_09h25.51.865,Colour_Asymmetry_Pilot,2022.1.3,Win32,59.48839976,62c50e9c1127f2cd403a315f,0,95,95,25,1,onethree,,,,,,,,,,,,,,,,,,,,,,,,,,,,,,,,,,,,,,,,,,,,,,,,,,,,,,,,,,,,,,,,,,,,,,,,,,,,,,,,,,,,,,,,,,,,,,,,,,,,,,,,,,,,,,,,,,,,,,,,,,,,,,,,,,,,,,,,,,,,,,,,,,,,,,,,,,,,,
,,,,,,5eb40100664e991f800b5853,62c538ed78010d410adab9dc,2022-07-06_09h25.51.865,Colour_Asymmetry_Pilot,2022.1.3,Win32,59.48839976,62c50e9c1127f2cd403a315f,0,96,96,83,1,twofour,,,,,,,,,,,,,,,,,,,,,,,,,,,,,,,,,,,,,,,,,,,,,,,,,,,,,,,,,,,,,,,,,,,,,,,,,,,,,,,,,,,,,,,,,,,,,,,,,,,,,,,,,,,,,,,,,,,,,,,,,,,,,,,,,,,,,,,,,,,,,,,,,,,,,,,,,,,,,
,,,,,,5eb40100664e991f800b5853,62c538ed78010d410adab9dc,2022-07-06_09h25.51.865,Colour_Asymmetry_Pilot,2022.1.3,Win32,59.48839976,62c50e9c1127f2cd403a315f,0,97,97,4,1,threeone,,,,,,,,,,,,,,,,,,,,,,,,,,,,,,,,,,,,,,,,,,,,,,,,,,,,,,,,,,,,,,,,,,,,,,,,,,,,,,,,,,,,,,,,,,,,,,,,,,,,,,,,,,,,,,,,,,,,,,,,,,,,,,,,,,,,,,,,,,,,,,,,,,,,,,,,,,,,,
,,,,,,5eb40100664e991f800b5853,62c538ed78010d410adab9dc,2022-07-06_09h25.51.865,Colour_Asymmetry_Pilot,2022.1.3,Win32,59.48839976,62c50e9c1127f2cd403a315f,0,98,98,35,1,twofour,,,,,,,,,,,,,,,,,,,,,,,,,,,,,,,,,,,,,,,,,,,,,,,,,,,,,,,,,,,,,,,,,,,,,,,,,,,,,,,,,,,,,,,,,,,,,,,,,,,,,,,,,,,,,,,,,,,,,,,,,,,,,,,,,,,,,,,,,,,,,,,,,,,,,,,,,,,,,
,,,,,,5eb40100664e991f800b5853,62c538ed78010d410adab9dc,2022-07-06_09h25.51.865,Colour_Asymmetry_Pilot,2022.1.3,Win32,59.48839976,62c50e9c1127f2cd403a315f,0,99,99,117,1,threefour,,,,,,,,,,,,,,,,,,,,,,,,,,,,,,,,,,,,,,,,,,,,,,,,,,,,,,,,,,,,,,,,,,,,,,,,,,,,,,,,,,,,,,,,,,,,,,,,,,,,,,,,,,,,,,,,,,,,,,,,,,,,,,,,,,,,,,,,,,,,,,,,,,,,,,,,,,,,,
,,,,,,5eb40100664e991f800b5853,62c538ed78010d410adab9dc,2022-07-06_09h25.51.865,Colour_Asymmetry_Pilot,2022.1.3,Win32,59.48839976,62c50e9c1127f2cd403a315f,0,100,100,132,1,threeone,,,,,,,,,,,,,,,,,,,,,,,,,,,,,,,,,,,,,,,,,,,,,,,,,,,,,,,,,,,,,,,,,,,,,,,,,,,,,,,,,,,,,,,,,,,,,,,,,,,,,,,,,,,,,,,,,,,,,,,,,,,,,,,,,,,,,,,,,,,,,,,,,,,,,,,,,,,,,
,,,,,,5eb40100664e991f800b5853,62c538ed78010d410adab9dc,2022-07-06_09h25.51.865,Colour_Asymmetry_Pilot,2022.1.3,Win32,59.48839976,62c50e9c1127f2cd403a315f,0,101,101,110,1,fourtwo,,,,,,,,,,,,,,,,,,,,,,,,,,,,,,,,,,,,,,,,,,,,,,,,,,,,,,,,,,,,,,,,,,,,,,,,,,,,,,,,,,,,,,,,,,,,,,,,,,,,,,,,,,,,,,,,,,,,,,,,,,,,,,,,,,,,,,,,,,,,,,,,,,,,,,,,,,,,,
,,,,,,5eb40100664e991f800b5853,62c538ed78010d410adab9dc,2022-07-06_09h25.51.865,Colour_Asymmetry_Pilot,2022.1.3,Win32,59.48839976,62c50e9c1127f2cd403a315f,0,102,102,21,1,threefour,,,,,,,,,,,,,,,,,,,,,,,,,,,,,,,,,,,,,,,,,,,,,,,,,,,,,,,,,,,,,,,,,,,,,,,,,,,,,,,,,,,,,,,,,,,,,,,,,,,,,,,,,,,,,,,,,,,,,,,,,,,,,,,,,,,,,,,,,,,,,,,,,,,,,,,,,,,,,
,,,,,,5eb40100664e991f800b5853,62c538ed78010d410adab9dc,2022-07-06_09h25.51.865,Colour_Asymmetry_Pilot,2022.1.3,Win32,59.48839976,62c50e9c1127f2cd403a315f,0,103,103,0,1,onetwo,,,,,,,,,,,,,,,,,,,,,,,,,,,,,,,,,,,,,,,,,,,,,,,,,,,,,,,,,,,,,,,,,,,,,,,,,,,,,,,,,,,,,,,,,,,,,,,,,,,,,,,,,,,,,,,,,,,,,,,,,,,,,,,,,,,,,,,,,,,,,,,,,,,,,,,,,,,,,
,,,,,,5eb40100664e991f800b5853,62c538ed78010d410adab9dc,2022-07-06_09h25.51.865,Colour_Asymmetry_Pilot,2022.1.3,Win32,59.48839976,62c50e9c1127f2cd403a315f,0,104,104,84,1,threeone,,,,,,,,,,,,,,,,,,,,,,,,,,,,,,,,,,,,,,,,,,,,,,,,,,,,,,,,,,,,,,,,,,,,,,,,,,,,,,,,,,,,,,,,,,,,,,,,,,,,,,,,,,,,,,,,,,,,,,,,,,,,,,,,,,,,,,,,,,,,,,,,,,,,,,,,,,,,,
,,,,,,5eb40100664e991f800b5853,62c538ed78010d410adab9dc,2022-07-06_09h25.51.865,Colour_Asymmetry_Pilot,2022.1.3,Win32,59.48839976,62c50e9c1127f2cd403a315f,0,105,105,144,1,onetwo,,,,,,,,,,,,,,,,,,,,,,,,,,,,,,,,,,,,,,,,,,,,,,,,,,,,,,,,,,,,,,,,,,,,,,,,,,,,,,,,,,,,,,,,,,,,,,,,,,,,,,,,,,,,,,,,,,,,,,,,,,,,,,,,,,,,,,,,,,,,,,,,,,,,,,,,,,,,,
,,,,,,5eb40100664e991f800b5853,62c538ed78010d410adab9dc,2022-07-06_09h25.51.865,Colour_Asymmetry_Pilot,2022.1.3,Win32,59.48839976,62c50e9c1127f2cd403a315f,0,106,106,95,1,fourthree,,,,,,,,,,,,,,,,,,,,,,,,,,,,,,,,,,,,,,,,,,,,,,,,,,,,,,,,,,,,,,,,,,,,,,,,,,,,,,,,,,,,,,,,,,,,,,,,,,,,,,,,,,,,,,,,,,,,,,,,,,,,,,,,,,,,,,,,,,,,,,,,,,,,,,,,,,,,,
,,,,,,5eb40100664e991f800b5853,62c538ed78010d410adab9dc,2022-07-06_09h25.51.865,Colour_Asymmetry_Pilot,2022.1.3,Win32,59.48839976,62c50e9c1127f2cd403a315f,0,107,107,140,1,threeone,,,,,,,,,,,,,,,,,,,,,,,,,,,,,,,,,,,,,,,,,,,,,,,,,,,,,,,,,,,,,,,,,,,,,,,,,,,,,,,,,,,,,,,,,,,,,,,,,,,,,,,,,,,,,,,,,,,,,,,,,,,,,,,,,,,,,,,,,,,,,,,,,,,,,,,,,,,,,
,,,,,,5eb40100664e991f800b5853,62c538ed78010d410adab9dc,2022-07-06_09h25.51.865,Colour_Asymmetry_Pilot,2022.1.3,Win32,59.48839976,62c50e9c1127f2cd403a315f,0,108,108,89,1,onethree,,,,,,,,,,,,,,,,,,,,,,,,,,,,,,,,,,,,,,,,,,,,,,,,,,,,,,,,,,,,,,,,,,,,,,,,,,,,,,,,,,,,,,,,,,,,,,,,,,,,,,,,,,,,,,,,,,,,,,,,,,,,,,,,,,,,,,,,,,,,,,,,,,,,,,,,,,,,,
,,,,,,5eb40100664e991f800b5853,62c538ed78010d410adab9dc,2022-07-06_09h25.51.865,Colour_Asymmetry_Pilot,2022.1.3,Win32,59.48839976,62c50e9c1127f2cd403a315f,0,109,109,55,1,fourthree,,,,,,,,,,,,,,,,,,,,,,,,,,,,,,,,,,,,,,,,,,,,,,,,,,,,,,,,,,,,,,,,,,,,,,,,,,,,,,,,,,,,,,,,,,,,,,,,,,,,,,,,,,,,,,,,,,,,,,,,,,,,,,,,,,,,,,,,,,,,,,,,,,,,,,,,,,,,,
,,,,,,5eb40100664e991f800b5853,62c538ed78010d410adab9dc,2022-07-06_09h25.51.865,Colour_Asymmetry_Pilot,2022.1.3,Win32,59.48839976,62c50e9c1127f2cd403a315f,0,110,110,26,1,twoone,,,,,,,,,,,,,,,,,,,,,,,,,,,,,,,,,,,,,,,,,,,,,,,,,,,,,,,,,,,,,,,,,,,,,,,,,,,,,,,,,,,,,,,,,,,,,,,,,,,,,,,,,,,,,,,,,,,,,,,,,,,,,,,,,,,,,,,,,,,,,,,,,,,,,,,,,,,,,
,,,,,,5eb40100664e991f800b5853,62c538ed78010d410adab9dc,2022-07-06_09h25.51.865,Colour_Asymmetry_Pilot,2022.1.3,Win32,59.48839976,62c50e9c1127f2cd403a315f,0,111,111,128,1,onetwo,,,,,,,,,,,,,,,,,,,,,,,,,,,,,,,,,,,,,,,,,,,,,,,,,,,,,,,,,,,,,,,,,,,,,,,,,,,,,,,,,,,,,,,,,,,,,,,,,,,,,,,,,,,,,,,,,,,,,,,,,,,,,,,,,,,,,,,,,,,,,,,,,,,,,,,,,,,,,
,,,,,,5eb40100664e991f800b5853,62c538ed78010d410adab9dc,2022-07-06_09h25.51.865,Colour_Asymmetry_Pilot,2022.1.3,Win32,59.48839976,62c50e9c1127f2cd403a315f,0,112,112,46,1,fourtwo,,,,,,,,,,,,,,,,,,,,,,,,,,,,,,,,,,,,,,,,,,,,,,,,,,,,,,,,,,,,,,,,,,,,,,,,,,,,,,,,,,,,,,,,,,,,,,,,,,,,,,,,,,,,,,,,,,,,,,,,,,,,,,,,,,,,,,,,,,,,,,,,,,,,,,,,,,,,,
,,,,,,5eb40100664e991f800b5853,62c538ed78010d410adab9dc,2022-07-06_09h25.51.865,Colour_Asymmetry_Pilot,2022.1.3,Win32,59.48839976,62c50e9c1127f2cd403a315f,0,113,113,43,1,twofour,,,,,,,,,,,,,,,,,,,,,,,,,,,,,,,,,,,,,,,,,,,,,,,,,,,,,,,,,,,,,,,,,,,,,,,,,,,,,,,,,,,,,,,,,,,,,,,,,,,,,,,,,,,,,,,,,,,,,,,,,,,,,,,,,,,,,,,,,,,,,,,,,,,,,,,,,,,,,
,,,,,,5eb40100664e991f800b5853,62c538ed78010d410adab9dc,2022-07-06_09h25.51.865,Colour_Asymmetry_Pilot,2022.1.3,Win32,59.48839976,62c50e9c1127f2cd403a315f,0,114,114,118,1,fourtwo,,,,,,,,,,,,,,,,,,,,,,,,,,,,,,,,,,,,,,,,,,,,,,,,,,,,,,,,,,,,,,,,,,,,,,,,,,,,,,,,,,,,,,,,,,,,,,,,,,,,,,,,,,,,,,,,,,,,,,,,,,,,,,,,,,,,,,,,,,,,,,,,,,,,,,,,,,,,,
,,,,,,5eb40100664e991f800b5853,62c538ed78010d410adab9dc,2022-07-06_09h25.51.865,Colour_Asymmetry_Pilot,2022.1.3,Win32,59.48839976,62c50e9c1127f2cd403a315f,0,115,115,37,1,threefour,,,,,,,,,,,,,,,,,,,,,,,,,,,,,,,,,,,,,,,,,,,,,,,,,,,,,,,,,,,,,,,,,,,,,,,,,,,,,,,,,,,,,,,,,,,,,,,,,,,,,,,,,,,,,,,,,,,,,,,,,,,,,,,,,,,,,,,,,,,,,,,,,,,,,,,,,,,,,
,,,,,,5eb40100664e991f800b5853,62c538ed78010d410adab9dc,2022-07-06_09h25.51.865,Colour_Asymmetry_Pilot,2022.1.3,Win32,59.48839976,62c50e9c1127f2cd403a315f,0,116,116,52,1,threeone,,,,,,,,,,,,,,,,,,,,,,,,,,,,,,,,,,,,,,,,,,,,,,,,,,,,,,,,,,,,,,,,,,,,,,,,,,,,,,,,,,,,,,,,,,,,,,,,,,,,,,,,,,,,,,,,,,,,,,,,,,,,,,,,,,,,,,,,,,,,,,,,,,,,,,,,,,,,,
,,,,,,5eb40100664e991f800b5853,62c538ed78010d410adab9dc,2022-07-06_09h25.51.865,Colour_Asymmetry_Pilot,2022.1.3,Win32,59.48839976,62c50e9c1127f2cd403a315f,0,117,117,92,1,threeone,,,,,,,,,,,,,,,,,,,,,,,,,,,,,,,,,,,,,,,,,,,,,,,,,,,,,,,,,,,,,,,,,,,,,,,,,,,,,,,,,,,,,,,,,,,,,,,,,,,,,,,,,,,,,,,,,,,,,,,,,,,,,,,,,,,,,,,,,,,,,,,,,,,,,,,,,,,,,
,,,,,,5eb40100664e991f800b5853,62c538ed78010d410adab9dc,2022-07-06_09h25.51.865,Colour_Asymmetry_Pilot,2022.1.3,Win32,59.48839976,62c50e9c1127f2cd403a315f,0,118,118,149,1,threefour,,,,,,,,,,,,,,,,,,,,,,,,,,,,,,,,,,,,,,,,,,,,,,,,,,,,,,,,,,,,,,,,,,,,,,,,,,,,,,,,,,,,,,,,,,,,,,,,,,,,,,,,,,,,,,,,,,,,,,,,,,,,,,,,,,,,,,,,,,,,,,,,,,,,,,,,,,,,,
,,,,,,5eb40100664e991f800b5853,62c538ed78010d410adab9dc,2022-07-06_09h25.51.865,Colour_Asymmetry_Pilot,2022.1.3,Win32,59.48839976,62c50e9c1127f2cd403a315f,0,119,119,98,1,twoone,,,,,,,,,,,,,,,,,,,,,,,,,,,,,,,,,,,,,,,,,,,,,,,,,,,,,,,,,,,,,,,,,,,,,,,,,,,,,,,,,,,,,,,,,,,,,,,,,,,,,,,,,,,,,,,,,,,,,,,,,,,,,,,,,,,,,,,,,,,,,,,,,,,,,,,,,,,,,
,,,,,,5eb40100664e991f800b5853,62c538ed78010d410adab9dc,2022-07-06_09h25.51.865,Colour_Asymmetry_Pilot,2022.1.3,Win32,59.48839976,62c50e9c1127f2cd403a315f,0,120,120,33,1,onethree,,,,,,,,,,,,,,,,,,,,,,,,,,,,,,,,,,,,,,,,,,,,,,,,,,,,,,,,,,,,,,,,,,,,,,,,,,,,,,,,,,,,,,,,,,,,,,,,,,,,,,,,,,,,,,,,,,,,,,,,,,,,,,,,,,,,,,,,,,,,,,,,,,,,,,,,,,,,,
,,,,,,5eb40100664e991f800b5853,62c538ed78010d410adab9dc,2022-07-06_09h25.51.865,Colour_Asymmetry_Pilot,2022.1.3,Win32,59.48839976,62c50e9c1127f2cd403a315f,0,121,121,77,1,threefour,,,,,,,,,,,,,,,,,,,,,,,,,,,,,,,,,,,,,,,,,,,,,,,,,,,,,,,,,,,,,,,,,,,,,,,,,,,,,,,,,,,,,,,,,,,,,,,,,,,,,,,,,,,,,,,,,,,,,,,,,,,,,,,,,,,,,,,,,,,,,,,,,,,,,,,,,,,,,
,,,,,,5eb40100664e991f800b5853,62c538ed78010d410adab9dc,2022-07-06_09h25.51.865,Colour_Asymmetry_Pilot,2022.1.3,Win32,59.48839976,62c50e9c1127f2cd403a315f,0,122,122,141,1,threefour,,,,,,,,,,,,,,,,,,,,,,,,,,,,,,,,,,,,,,,,,,,,,,,,,,,,,,,,,,,,,,,,,,,,,,,,,,,,,,,,,,,,,,,,,,,,,,,,,,,,,,,,,,,,,,,,,,,,,,,,,,,,,,,,,,,,,,,,,,,,,,,,,,,,,,,,,,,,,
,,,,,,5eb40100664e991f800b5853,62c538ed78010d410adab9dc,2022-07-06_09h25.51.865,Colour_Asymmetry_Pilot,2022.1.3,Win32,59.48839976,62c50e9c1127f2cd403a315f,0,123,123,153,1,onethree,,,,,,,,,,,,,,,,,,,,,,,,,,,,,,,,,,,,,,,,,,,,,,,,,,,,,,,,,,,,,,,,,,,,,,,,,,,,,,,,,,,,,,,,,,,,,,,,,,,,,,,,,,,,,,,,,,,,,,,,,,,,,,,,,,,,,,,,,,,,,,,,,,,,,,,,,,,,,
,,,,,,5eb40100664e991f800b5853,62c538ed78010d410adab9dc,2022-07-06_09h25.51.865,Colour_Asymmetry_Pilot,2022.1.3,Win32,59.48839976,62c50e9c1127f2cd403a315f,0,124,124,88,1,onetwo,,,,,,,,,,,,,,,,,,,,,,,,,,,,,,,,,,,,,,,,,,,,,,,,,,,,,,,,,,,,,,,,,,,,,,,,,,,,,,,,,,,,,,,,,,,,,,,,,,,,,,,,,,,,,,,,,,,,,,,,,,,,,,,,,,,,,,,,,,,,,,,,,,,,,,,,,,,,,
,,,,,,5eb40100664e991f800b5853,62c538ed78010d410adab9dc,2022-07-06_09h25.51.865,Colour_Asymmetry_Pilot,2022.1.3,Win32,59.48839976,62c50e9c1127f2cd403a315f,0,125,125,72,1,onetwo,,,,,,,,,,,,,,,,,,,,,,,,,,,,,,,,,,,,,,,,,,,,,,,,,,,,,,,,,,,,,,,,,,,,,,,,,,,,,,,,,,,,,,,,,,,,,,,,,,,,,,,,,,,,,,,,,,,,,,,,,,,,,,,,,,,,,,,,,,,,,,,,,,,,,,,,,,,,,
,,,,,,5eb40100664e991f800b5853,62c538ed78010d410adab9dc,2022-07-06_09h25.51.865,Colour_Asymmetry_Pilot,2022.1.3,Win32,59.48839976,62c50e9c1127f2cd403a315f,0,126,126,154,1,twoone,,,,,,,,,,,,,,,,,,,,,,,,,,,,,,,,,,,,,,,,,,,,,,,,,,,,,,,,,,,,,,,,,,,,,,,,,,,,,,,,,,,,,,,,,,,,,,,,,,,,,,,,,,,,,,,,,,,,,,,,,,,,,,,,,,,,,,,,,,,,,,,,,,,,,,,,,,,,,
,,,,,,5eb40100664e991f800b5853,62c538ed78010d410adab9dc,2022-07-06_09h25.51.865,Colour_Asymmetry_Pilot,2022.1.3,Win32,59.48839976,62c50e9c1127f2cd403a315f,0,127,127,24,1,onetwo,,,,,,,,,,,,,,,,,,,,,,,,,,,,,,,,,,,,,,,,,,,,,,,,,,,,,,,,,,,,,,,,,,,,,,,,,,,,,,,,,,,,,,,,,,,,,,,,,,,,,,,,,,,,,,,,,,,,,,,,,,,,,,,,,,,,,,,,,,,,,,,,,,,,,,,,,,,,,
,,,,,,5eb40100664e991f800b5853,62c538ed78010d410adab9dc,2022-07-06_09h25.51.865,Colour_Asymmetry_Pilot,2022.1.3,Win32,59.48839976,62c50e9c1127f2cd403a315f,0,128,128,134,1,fourtwo,,,,,,,,,,,,,,,,,,,,,,,,,,,,,,,,,,,,,,,,,,,,,,,,,,,,,,,,,,,,,,,,,,,,,,,,,,,,,,,,,,,,,,,,,,,,,,,,,,,,,,,,,,,,,,,,,,,,,,,,,,,,,,,,,,,,,,,,,,,,,,,,,,,,,,,,,,,,,
,,,,,,5eb40100664e991f800b5853,62c538ed78010d410adab9dc,2022-07-06_09h25.51.865,Colour_Asymmetry_Pilot,2022.1.3,Win32,59.48839976,62c50e9c1127f2cd403a315f,0,129,129,42,1,twoone,,,,,,,,,,,,,,,,,,,,,,,,,,,,,,,,,,,,,,,,,,,,,,,,,,,,,,,,,,,,,,,,,,,,,,,,,,,,,,,,,,,,,,,,,,,,,,,,,,,,,,,,,,,,,,,,,,,,,,,,,,,,,,,,,,,,,,,,,,,,,,,,,,,,,,,,,,,,,
,,,,,,5eb40100664e991f800b5853,62c538ed78010d410adab9dc,2022-07-06_09h25.51.865,Colour_Asymmetry_Pilot,2022.1.3,Win32,59.48839976,62c50e9c1127f2cd403a315f,0,130,130,160,1,onetwo,,,,,,,,,,,,,,,,,,,,,,,,,,,,,,,,,,,,,,,,,,,,,,,,,,,,,,,,,,,,,,,,,,,,,,,,,,,,,,,,,,,,,,,,,,,,,,,,,,,,,,,,,,,,,,,,,,,,,,,,,,,,,,,,,,,,,,,,,,,,,,,,,,,,,,,,,,,,,
,,,,,,5eb40100664e991f800b5853,62c538ed78010d410adab9dc,2022-07-06_09h25.51.865,Colour_Asymmetry_Pilot,2022.1.3,Win32,59.48839976,62c50e9c1127f2cd403a315f,0,131,131,30,1,fourtwo,,,,,,,,,,,,,,,,,,,,,,,,,,,,,,,,,,,,,,,,,,,,,,,,,,,,,,,,,,,,,,,,,,,,,,,,,,,,,,,,,,,,,,,,,,,,,,,,,,,,,,,,,,,,,,,,,,,,,,,,,,,,,,,,,,,,,,,,,,,,,,,,,,,,,,,,,,,,,
,,,,,,5eb40100664e991f800b5853,62c538ed78010d410adab9dc,2022-07-06_09h25.51.865,Colour_Asymmetry_Pilot,2022.1.3,Win32,59.48839976,62c50e9c1127f2cd403a315f,0,132,132,79,1,fourthree,,,,,,,,,,,,,,,,,,,,,,,,,,,,,,,,,,,,,,,,,,,,,,,,,,,,,,,,,,,,,,,,,,,,,,,,,,,,,,,,,,,,,,,,,,,,,,,,,,,,,,,,,,,,,,,,,,,,,,,,,,,,,,,,,,,,,,,,,,,,,,,,,,,,,,,,,,,,,
,,,,,,5eb40100664e991f800b5853,62c538ed78010d410adab9dc,2022-07-06_09h25.51.865,Colour_Asymmetry_Pilot,2022.1.3,Win32,59.48839976,62c50e9c1127f2cd403a315f,0,133,133,3,1,twofour,,,,,,,,,,,,,,,,,,,,,,,,,,,,,,,,,,,,,,,,,,,,,,,,,,,,,,,,,,,,,,,,,,,,,,,,,,,,,,,,,,,,,,,,,,,,,,,,,,,,,,,,,,,,,,,,,,,,,,,,,,,,,,,,,,,,,,,,,,,,,,,,,,,,,,,,,,,,,
,,,,,,5eb40100664e991f800b5853,62c538ed78010d410adab9dc,2022-07-06_09h25.51.865,Colour_Asymmetry_Pilot,2022.1.3,Win32,59.48839976,62c50e9c1127f2cd403a315f,0,134,134,51,1,twofour,,,,,,,,,,,,,,,,,,,,,,,,,,,,,,,,,,,,,,,,,,,,,,,,,,,,,,,,,,,,,,,,,,,,,,,,,,,,,,,,,,,,,,,,,,,,,,,,,,,,,,,,,,,,,,,,,,,,,,,,,,,,,,,,,,,,,,,,,,,,,,,,,,,,,,,,,,,,,
,,,,,,5eb40100664e991f800b5853,62c538ed78010d410adab9dc,2022-07-06_09h25.51.865,Colour_Asymmetry_Pilot,2022.1.3,Win32,59.48839976,62c50e9c1127f2cd403a315f,0,135,135,82,1,twoone,,,,,,,,,,,,,,,,,,,,,,,,,,,,,,,,,,,,,,,,,,,,,,,,,,,,,,,,,,,,,,,,,,,,,,,,,,,,,,,,,,,,,,,,,,,,,,,,,,,,,,,,,,,,,,,,,,,,,,,,,,,,,,,,,,,,,,,,,,,,,,,,,,,,,,,,,,,,,
,,,,,,5eb40100664e991f800b5853,62c538ed78010d410adab9dc,2022-07-06_09h25.51.865,Colour_Asymmetry_Pilot,2022.1.3,Win32,59.48839976,62c50e9c1127f2cd403a315f,0,136,136,12,1,threeone,,,,,,,,,,,,,,,,,,,,,,,,,,,,,,,,,,,,,,,,,,,,,,,,,,,,,,,,,,,,,,,,,,,,,,,,,,,,,,,,,,,,,,,,,,,,,,,,,,,,,,,,,,,,,,,,,,,,,,,,,,,,,,,,,,,,,,,,,,,,,,,,,,,,,,,,,,,,,
,,,,,,5eb40100664e991f800b5853,62c538ed78010d410adab9dc,2022-07-06_09h25.51.865,Colour_Asymmetry_Pilot,2022.1.3,Win32,59.48839976,62c50e9c1127f2cd403a315f,0,137,137,19,1,twofour,,,,,,,,,,,,,,,,,,,,,,,,,,,,,,,,,,,,,,,,,,,,,,,,,,,,,,,,,,,,,,,,,,,,,,,,,,,,,,,,,,,,,,,,,,,,,,,,,,,,,,,,,,,,,,,,,,,,,,,,,,,,,,,,,,,,,,,,,,,,,,,,,,,,,,,,,,,,,
,,,,,,5eb40100664e991f800b5853,62c538ed78010d410adab9dc,2022-07-06_09h25.51.865,Colour_Asymmetry_Pilot,2022.1.3,Win32,59.48839976,62c50e9c1127f2cd403a315f,0,138,138,1,1,onethree,,,,,,,,,,,,,,,,,,,,,,,,,,,,,,,,,,,,,,,,,,,,,,,,,,,,,,,,,,,,,,,,,,,,,,,,,,,,,,,,,,,,,,,,,,,,,,,,,,,,,,,,,,,,,,,,,,,,,,,,,,,,,,,,,,,,,,,,,,,,,,,,,,,,,,,,,,,,,
,,,,,,5eb40100664e991f800b5853,62c538ed78010d410adab9dc,2022-07-06_09h25.51.865,Colour_Asymmetry_Pilot,2022.1.3,Win32,59.48839976,62c50e9c1127f2cd403a315f,0,139,139,152,1,onetwo,,,,,,,,,,,,,,,,,,,,,,,,,,,,,,,,,,,,,,,,,,,,,,,,,,,,,,,,,,,,,,,,,,,,,,,,,,,,,,,,,,,,,,,,,,,,,,,,,,,,,,,,,,,,,,,,,,,,,,,,,,,,,,,,,,,,,,,,,,,,,,,,,,,,,,,,,,,,,
,,,,,,5eb40100664e991f800b5853,62c538ed78010d410adab9dc,2022-07-06_09h25.51.865,Colour_Asymmetry_Pilot,2022.1.3,Win32,59.48839976,62c50e9c1127f2cd403a315f,0,140,140,155,1,twofour,,,,,,,,,,,,,,,,,,,,,,,,,,,,,,,,,,,,,,,,,,,,,,,,,,,,,,,,,,,,,,,,,,,,,,,,,,,,,,,,,,,,,,,,,,,,,,,,,,,,,,,,,,,,,,,,,,,,,,,,,,,,,,,,,,,,,,,,,,,,,,,,,,,,,,,,,,,,,
,,,,,,5eb40100664e991f800b5853,62c538ed78010d410adab9dc,2022-07-06_09h25.51.865,Colour_Asymmetry_Pilot,2022.1.3,Win32,59.48839976,62c50e9c1127f2cd403a315f,0,141,141,29,1,threefour,,,,,,,,,,,,,,,,,,,,,,,,,,,,,,,,,,,,,,,,,,,,,,,,,,,,,,,,,,,,,,,,,,,,,,,,,,,,,,,,,,,,,,,,,,,,,,,,,,,,,,,,,,,,,,,,,,,,,,,,,,,,,,,,,,,,,,,,,,,,,,,,,,,,,,,,,,,,,
,,,,,,5eb40100664e991f800b5853,62c538ed78010d410adab9dc,2022-07-06_09h25.51.865,Colour_Asymmetry_Pilot,2022.1.3,Win32,59.48839976,62c50e9c1127f2cd403a315f,0,142,142,93,1,threefour,,,,,,,,,,,,,,,,,,,,,,,,,,,,,,,,,,,,,,,,,,,,,,,,,,,,,,,,,,,,,,,,,,,,,,,,,,,,,,,,,,,,,,,,,,,,,,,,,,,,,,,,,,,,,,,,,,,,,,,,,,,,,,,,,,,,,,,,,,,,,,,,,,,,,,,,,,,,,
,,,,,,5eb40100664e991f800b5853,62c538ed78010d410adab9dc,2022-07-06_09h25.51.865,Colour_Asymmetry_Pilot,2022.1.3,Win32,59.48839976,62c50e9c1127f2cd403a315f,0,143,143,145,1,onethree,,,,,,,,,,,,,,,,,,,,,,,,,,,,,,,,,,,,,,,,,,,,,,,,,,,,,,,,,,,,,,,,,,,,,,,,,,,,,,,,,,,,,,,,,,,,,,,,,,,,,,,,,,,,,,,,,,,,,,,,,,,,,,,,,,,,,,,,,,,,,,,,,,,,,,,,,,,,,
,,,,,,5eb40100664e991f800b5853,62c538ed78010d410adab9dc,2022-07-06_09h25.51.865,Colour_Asymmetry_Pilot,2022.1.3,Win32,59.48839976,62c50e9c1127f2cd403a315f,0,144,144,151,1,fourthree,,,,,,,,,,,,,,,,,,,,,,,,,,,,,,,,,,,,,,,,,,,,,,,,,,,,,,,,,,,,,,,,,,,,,,,,,,,,,,,,,,,,,,,,,,,,,,,,,,,,,,,,,,,,,,,,,,,,,,,,,,,,,,,,,,,,,,,,,,,,,,,,,,,,,,,,,,,,,
,,,,,,5eb40100664e991f800b5853,62c538ed78010d410adab9dc,2022-07-06_09h25.51.865,Colour_Asymmetry_Pilot,2022.1.3,Win32,59.48839976,62c50e9c1127f2cd403a315f,0,145,145,59,1,twofour,,,,,,,,,,,,,,,,,,,,,,,,,,,,,,,,,,,,,,,,,,,,,,,,,,,,,,,,,,,,,,,,,,,,,,,,,,,,,,,,,,,,,,,,,,,,,,,,,,,,,,,,,,,,,,,,,,,,,,,,,,,,,,,,,,,,,,,,,,,,,,,,,,,,,,,,,,,,,
,,,,,,5eb40100664e991f800b5853,62c538ed78010d410adab9dc,2022-07-06_09h25.51.865,Colour_Asymmetry_Pilot,2022.1.3,Win32,59.48839976,62c50e9c1127f2cd403a315f,0,146,146,17,1,onethree,,,,,,,,,,,,,,,,,,,,,,,,,,,,,,,,,,,,,,,,,,,,,,,,,,,,,,,,,,,,,,,,,,,,,,,,,,,,,,,,,,,,,,,,,,,,,,,,,,,,,,,,,,,,,,,,,,,,,,,,,,,,,,,,,,,,,,,,,,,,,,,,,,,,,,,,,,,,,
,,,,,,5eb40100664e991f800b5853,62c538ed78010d410adab9dc,2022-07-06_09h25.51.865,Colour_Asymmetry_Pilot,2022.1.3,Win32,59.48839976,62c50e9c1127f2cd403a315f,0,147,147,70,1,fourtwo,,,,,,,,,,,,,,,,,,,,,,,,,,,,,,,,,,,,,,,,,,,,,,,,,,,,,,,,,,,,,,,,,,,,,,,,,,,,,,,,,,,,,,,,,,,,,,,,,,,,,,,,,,,,,,,,,,,,,,,,,,,,,,,,,,,,,,,,,,,,,,,,,,,,,,,,,,,,,
,,,,,,5eb40100664e991f800b5853,62c538ed78010d410adab9dc,2022-07-06_09h25.51.865,Colour_Asymmetry_Pilot,2022.1.3,Win32,59.48839976,62c50e9c1127f2cd403a315f,0,148,148,54,1,fourtwo,,,,,,,,,,,,,,,,,,,,,,,,,,,,,,,,,,,,,,,,,,,,,,,,,,,,,,,,,,,,,,,,,,,,,,,,,,,,,,,,,,,,,,,,,,,,,,,,,,,,,,,,,,,,,,,,,,,,,,,,,,,,,,,,,,,,,,,,,,,,,,,,,,,,,,,,,,,,,
,,,,,,5eb40100664e991f800b5853,62c538ed78010d410adab9dc,2022-07-06_09h25.51.865,Colour_Asymmetry_Pilot,2022.1.3,Win32,59.48839976,62c50e9c1127f2cd403a315f,0,149,149,125,1,threefour,,,,,,,,,,,,,,,,,,,,,,,,,,,,,,,,,,,,,,,,,,,,,,,,,,,,,,,,,,,,,,,,,,,,,,,,,,,,,,,,,,,,,,,,,,,,,,,,,,,,,,,,,,,,,,,,,,,,,,,,,,,,,,,,,,,,,,,,,,,,,,,,,,,,,,,,,,,,,
,,,,,,5eb40100664e991f800b5853,62c538ed78010d410adab9dc,2022-07-06_09h25.51.865,Colour_Asymmetry_Pilot,2022.1.3,Win32,59.48839976,62c50e9c1127f2cd403a315f,0,150,150,81,1,onethree,,,,,,,,,,,,,,,,,,,,,,,,,,,,,,,,,,,,,,,,,,,,,,,,,,,,,,,,,,,,,,,,,,,,,,,,,,,,,,,,,,,,,,,,,,,,,,,,,,,,,,,,,,,,,,,,,,,,,,,,,,,,,,,,,,,,,,,,,,,,,,,,,,,,,,,,,,,,,
,,,,,,5eb40100664e991f800b5853,62c538ed78010d410adab9dc,2022-07-06_09h25.51.865,Colour_Asymmetry_Pilot,2022.1.3,Win32,59.48839976,62c50e9c1127f2cd403a315f,0,151,151,73,1,onethree,,,,,,,,,,,,,,,,,,,,,,,,,,,,,,,,,,,,,,,,,,,,,,,,,,,,,,,,,,,,,,,,,,,,,,,,,,,,,,,,,,,,,,,,,,,,,,,,,,,,,,,,,,,,,,,,,,,,,,,,,,,,,,,,,,,,,,,,,,,,,,,,,,,,,,,,,,,,,
,,,,,,5eb40100664e991f800b5853,62c538ed78010d410adab9dc,2022-07-06_09h25.51.865,Colour_Asymmetry_Pilot,2022.1.3,Win32,59.48839976,62c50e9c1127f2cd403a315f,0,152,152,28,1,threeone,,,,,,,,,,,,,,,,,,,,,,,,,,,,,,,,,,,,,,,,,,,,,,,,,,,,,,,,,,,,,,,,,,,,,,,,,,,,,,,,,,,,,,,,,,,,,,,,,,,,,,,,,,,,,,,,,,,,,,,,,,,,,,,,,,,,,,,,,,,,,,,,,,,,,,,,,,,,,
,,,,,,5eb40100664e991f800b5853,62c538ed78010d410adab9dc,2022-07-06_09h25.51.865,Colour_Asymmetry_Pilot,2022.1.3,Win32,59.48839976,62c50e9c1127f2cd403a315f,0,153,153,53,1,threefour,,,,,,,,,,,,,,,,,,,,,,,,,,,,,,,,,,,,,,,,,,,,,,,,,,,,,,,,,,,,,,,,,,,,,,,,,,,,,,,,,,,,,,,,,,,,,,,,,,,,,,,,,,,,,,,,,,,,,,,,,,,,,,,,,,,,,,,,,,,,,,,,,,,,,,,,,,,,,
,,,,,,5eb40100664e991f800b5853,62c538ed78010d410adab9dc,2022-07-06_09h25.51.865,Colour_Asymmetry_Pilot,2022.1.3,Win32,59.48839976,62c50e9c1127f2cd403a315f,0,154,154,32,1,onetwo,,,,,,,,,,,,,,,,,,,,,,,,,,,,,,,,,,,,,,,,,,,,,,,,,,,,,,,,,,,,,,,,,,,,,,,,,,,,,,,,,,,,,,,,,,,,,,,,,,,,,,,,,,,,,,,,,,,,,,,,,,,,,,,,,,,,,,,,,,,,,,,,,,,,,,,,,,,,,
,,,,,,5eb40100664e991f800b5853,62c538ed78010d410adab9dc,2022-07-06_09h25.51.865,Colour_Asymmetry_Pilot,2022.1.3,Win32,59.48839976,62c50e9c1127f2cd403a315f,0,155,155,36,1,threeone,,,,,,,,,,,,,,,,,,,,,,,,,,,,,,,,,,,,,,,,,,,,,,,,,,,,,,,,,,,,,,,,,,,,,,,,,,,,,,,,,,,,,,,,,,,,,,,,,,,,,,,,,,,,,,,,,,,,,,,,,,,,,,,,,,,,,,,,,,,,,,,,,,,,,,,,,,,,,
,,,,,,5eb40100664e991f800b5853,62c538ed78010d410adab9dc,2022-07-06_09h25.51.865,Colour_Asymmetry_Pilot,2022.1.3,Win32,59.48839976,62c50e9c1127f2cd403a315f,0,156,156,121,1,onethree,,,,,,,,,,,,,,,,,,,,,,,,,,,,,,,,,,,,,,,,,,,,,,,,,,,,,,,,,,,,,,,,,,,,,,,,,,,,,,,,,,,,,,,,,,,,,,,,,,,,,,,,,,,,,,,,,,,,,,,,,,,,,,,,,,,,,,,,,,,,,,,,,,,,,,,,,,,,,
,,,,,,5eb40100664e991f800b5853,62c538ed78010d410adab9dc,2022-07-06_09h25.51.865,Colour_Asymmetry_Pilot,2022.1.3,Win32,59.48839976,62c50e9c1127f2cd403a315f,0,157,157,8,1,onetwo,,,,,,,,,,,,,,,,,,,,,,,,,,,,,,,,,,,,,,,,,,,,,,,,,,,,,,,,,,,,,,,,,,,,,,,,,,,,,,,,,,,,,,,,,,,,,,,,,,,,,,,,,,,,,,,,,,,,,,,,,,,,,,,,,,,,,,,,,,,,,,,,,,,,,,,,,,,,,
,,,,,,5eb40100664e991f800b5853,62c538ed78010d410adab9dc,2022-07-06_09h25.51.865,Colour_Asymmetry_Pilot,2022.1.3,Win32,59.48839976,62c50e9c1127f2cd403a315f,0,158,158,105,1,onethree,,,,,,,,,,,,,,,,,,,,,,,,,,,,,,,,,,,,,,,,,,,,,,,,,,,,,,,,,,,,,,,,,,,,,,,,,,,,,,,,,,,,,,,,,,,,,,,,,,,,,,,,,,,,,,,,,,,,,,,,,,,,,,,,,,,,,,,,,,,,,,,,,,,,,,,,,,,,,
,,,,,,5eb40100664e991f800b5853,62c538ed78010d410adab9dc,2022-07-06_09h25.51.865,Colour_Asymmetry_Pilot,2022.1.3,Win32,59.48839976,62c50e9c1127f2cd403a315f,0,159,159,75,1,twofour,,,,,,,,,,,,,,,,,,,,,,,,,,,,,,,,,,,,,,,,,,,,,,,,,,,,,,,,,,,,,,,,,,,,,,,,,,,,,,,,,,,,,,,,,,,,,,,,,,,,,,,,,,,,,,,,,,,,,,,,,,,,,,,,,,,,,,,,,,,,,,,,,,,,,,,,,,,,,
,,,,,,5eb40100664e991f800b5853,62c538ed78010d410adab9dc,2022-07-06_09h25.51.865,Colour_Asymmetry_Pilot,2022.1.3,Win32,59.48839976,62c50e9c1127f2cd403a315f,0,160,160,150,1,fourtwo,,,,,,,,,,,,,,,,,,,,,,,,,,,,,,,,,,,,,,,,,,,,,,,,,,,,,,,,,,,,,,,,,,,,,,,,,,,,,,,,,,,,,,,,,,,,,,,,,,,,,,,,,,,,,,,,,,,,,,,,,,,,,,,,,,,,,,,,,,,,,,,,,,,,,,,,,,,,,
,,,,,,5eb40100664e991f800b5853,62c538ed78010d410adab9dc,2022-07-06_09h25.51.865,Colour_Asymmetry_Pilot,2022.1.3,Win32,59.48839976,62c50e9c1127f2cd403a315f,0,161,161,69,1,threefour,,,,,,,,,,,,,,,,,,,,,,,,,,,,,,,,,,,,,,,,,,,,,,,,,,,,,,,,,,,,,,,,,,,,,,,,,,,,,,,,,,,,,,,,,,,,,,,,,,,,,,,,,,,,,,,,,,,,,,,,,,,,,,,,,,,,,,,,,,,,,,,,,,,,,,,,,,,,,
,,,,,,5eb40100664e991f800b5853,62c538ed78010d410adab9dc,2022-07-06_09h25.51.865,Colour_Asymmetry_Pilot,2022.1.3,Win32,59.48839976,62c50e9c1127f2cd403a315f,,,,,,,space,3.3991,space,13.8182,space,33.7487,space,21.4906,space,2.7494,space,4.0508,"[-0.9844,-0.9688,-0.9922]",fourtwo,"[-0.26280000000000003,-0.4746,-0.2158]",-2,7.233,-97.59997559,-38.3999939,1,0,0,response5disk_5,-6.399963379,-9.600006104,1,0,0,rectangle_8,-6.399963379,-9.600006104,1,0,0,2,-6.399963379,-9.600006104,1,0,0,0,0,0,0,1,,,,,,,,,,,,,,,,,,,,,,,,,,,,,,,,,,,,,,,,,,,,,,,,,,,,,,,,,,,,,,,,,,,,,,,,,,,,,,,,,,,,,,,,,,,,,,,,,,,,,,,,,,,,,,,,
,,,,,,5eb40100664e991f800b5853,62c538ed78010d410adab9dc,2022-07-06_09h25.51.865,Colour_Asymmetry_Pilot,2022.1.3,Win32,59.48839976,62c50e9c1127f2cd403a315f,,,,,,,,,,,,,,,,,,,"[-0.10599999999999998,-0.10599999999999998,0.5841999999999998]",fourtwo,"[0.9763999999999999,0.8588,-0.05900000000000005]",-4,2.8187,-48,112.7999878,1,0,0,response7disk_5,-3.200012207,0,1,0,0,rectangle_8,-3.200012207,0,1,0,0,2,-3.200012207,0,1,0,0,1,0,1,0,1,,,,,,,,,,,,,,,,,,,,,,,,,,,,,,,,,,,,,,,,,,,,,,,,,,,,,,,,,,,,,,,,,,,,,,,,,,,,,,,,,,,,,,,,,,,,,,,,,,,,,,,,,,,,,,,,
,,,,,,5eb40100664e991f800b5853,62c538ed78010d410adab9dc,2022-07-06_09h25.51.865,Colour_Asymmetry_Pilot,2022.1.3,Win32,59.48839976,62c50e9c1127f2cd403a315f,,,,,,,,,,,,,,,,,,,"[0.6625999999999999,0.4980000000000002,-0.357]",fourtwo,"[0.9213999999999998,0.6391999999999998,-0.9922]",3,3.5685,92.79998779,64,1,0,0,response1disk_5,-1.599975586,-12.80001831,1,0,0,rectangle_8,92.79998779,-52,1,0,0,2,6.400024414,4,1,0,0,2,0,2,0,1,response3disk_7,5,rectangle_4,,,,,,,,,,,,,,,,,,,,,,,,,,,,,,,,,,,,,,,,,,,,,,,,,,,,,,,,,,,,,,,,,,,,,,,,,,,,,,,,,,,,,,,,,,,,,,,,,,,,,,,,,,,,,
,,,,,,5eb40100664e991f800b5853,62c538ed78010d410adab9dc,2022-07-06_09h25.51.865,Colour_Asymmetry_Pilot,2022.1.3,Win32,59.48839976,62c50e9c1127f2cd403a315f,,,,,,,,,,,,,,,,,,,"[-0.09019999999999995,0.44300000000000006,0.5371999999999999]",twofour,"[-0.17659999999999998,0.3253999999999999,0.19999999999999996]",2,2.8683,76.79998779,-55.20001221,1,0,0,response3disk_5,6.400024414,-8.800018311,1,0,0,rectangle_8,6.400024414,-8.800018311,1,0,0,2,6.400024414,-8.800018311,1,0,0,3,0,3,0,1,,,,,,,,,,,,,,,,,,,,,,,,,,,,,,,,,,,,,,,,,,,,,,,,,,,,,,,,,,,,,,,,,,,,,,,,,,,,,,,,,,,,,,,,,,,,,,,,,,,,,,,,,,,,,,,,
,,,,,,5eb40100664e991f800b5853,62c538ed78010d410adab9dc,2022-07-06_09h25.51.865,Colour_Asymmetry_Pilot,2022.1.3,Win32,59.48839976,62c50e9c1127f2cd403a315f,,,,,,,,,,,,,,,,,,,"[0.2862,0.7802,0.3568]",onetwo,"[0.7646000000000002,0.07440000000000002,0.2704]",-4,3.3854,-61.59997559,88.79998779,1,0,0,response7disk_5,-16.79998779,-4,1,0,0,rectangle_8,110.4000244,-58.3999939,1,0,0,2,-4.799987793,-6.399993896,1,0,0,4,0,4,0,1,response3disk_7,5,rectangle_4,,,,,,,,,,,,,,,,,,,,,,,,,,,,,,,,,,,,,,,,,,,,,,,,,,,,,,,,,,,,,,,,,,,,,,,,,,,,,,,,,,,,,,,,,,,,,,,,,,,,,,,,,,,,,
,,,,,,5eb40100664e991f800b5853,62c538ed78010d410adab9dc,2022-07-06_09h25.51.865,Colour_Asymmetry_Pilot,2022.1.3,Win32,59.48839976,62c50e9c1127f2cd403a315f,,,,,,,,,,,,,,,,,,,"[-0.011800000000000033,-0.906,-0.45100000000000007]",onetwo,"[0.7176,-0.906,-0.6864]",1,4.4519,44,-96.79998779,1,0,0,response3disk_5,-11.20001221,1.600006104,1,0,0,rectangle_8,-11.20001221,1.600006104,1,0,0,2,-11.20001221,1.600006104,1,0,0,5,0,5,0,1,,,,,,,,,,,,,,,,,,,,,,,,,,,,,,,,,,,,,,,,,,,,,,,,,,,,,,,,,,,,,,,,,,,,,,,,,,,,,,,,,,,,,,,,,,,,,,,,,,,,,,,,,,,,,,,,
,,,,,,5eb40100664e991f800b5853,62c538ed78010d410adab9dc,2022-07-06_09h25.51.865,Colour_Asymmetry_Pilot,2022.1.3,Win32,59.48839976,62c50e9c1127f2cd403a315f,,,,,,,,,,,,,,,,,,,"[0.6625999999999999,0.4980000000000002,-0.357]",fourthree,"[-0.24719999999999998,0.5213999999999999,-0.12959999999999994]",1,4.6181,31.20001221,-104,1,0,0,response3disk_5,-17.59997559,-6.399993896,1,0,0,rectangle_8,-17.59997559,-6.399993896,1,0,0,2,-17.59997559,-6.399993896,1,0,0,6,0,6,0,1,,,,,,,,,,,,,,,,,,,,,,,,,,,,,,,,,,,,,,,,,,,,,,,,,,,,,,,,,,,,,,,,,,,,,,,,,,,,,,,,,,,,,,,,,,,,,,,,,,,,,,,,,,,,,,,,
,,,,,,5eb40100664e991f800b5853,62c538ed78010d410adab9dc,2022-07-06_09h25.51.865,Colour_Asymmetry_Pilot,2022.1.3,Win32,59.48839976,62c50e9c1127f2cd403a315f,,,,,,,,,,,,,,,,,,,,twoone,,4,4.9407,,,,,,,,,,,,,,,,,,,,,,,,,,,,,,,,space,4.6044,"[0.37240000000000006,-0.050999999999999934,-0.5216]","[0.9763999999999999,0.30979999999999985,-0.6786]",57.60003662,92.79998779,1,0,0,response1disk,0.799987793,1.600006104,1,0,0,rectangle,0.799987793,1.600006104,1,0,0,,2,0.0049,0,0.799987793,1.600006104,1,0,0,0,0,0,126,1,45,second,,,,,,,,,,,,,,,,,,,,,,,,,,,,,,,,,,,,,,,,,,,,,,,,,,,,,,,,,,,,,,,,,,,,,,,,
,,,,,,5eb40100664e991f800b5853,62c538ed78010d410adab9dc,2022-07-06_09h25.51.865,Colour_Asymmetry_Pilot,2022.1.3,Win32,59.48839976,62c50e9c1127f2cd403a315f,,,,,,,,,,,,,,,,,,,,twoone,,-2,3.0711,,,,,,,,,,,,,,,,,,,,,,,,,,,,,,,,,,"[1,0.12939999999999996,-1]","[0.7646000000000002,0.07440000000000002,0.2704]",-96.79998779,-34.3999939,1,0,0,response5disk,-4,4,1,0,0,rectangle,-4,4,1,0,0,,1,0.0029,0,-4,4,1,0,0,0,1,1,42,1,42,first,,,,,,,,,,,,,,,,,,,,,,,,,,,,,,,,,,,,,,,,,,,,,,,,,,,,,,,,,,,,,,,,,,,,,,,,
,,,,,,5eb40100664e991f800b5853,62c538ed78010d410adab9dc,2022-07-06_09h25.51.865,Colour_Asymmetry_Pilot,2022.1.3,Win32,59.48839976,62c50e9c1127f2cd403a315f,,,,,,,,,,,,,,,,,,,,fourtwo,,-3,4.5194,,,,,,,,,,,,,,,,,,,,,,,,,,,,,,,,,,"[-0.7412000000000001,-0.08239999999999992,-0.6864]","[-0.011800000000000033,-0.906,-0.45100000000000007]",-87.20001221,41.6000061,1,0,0,response7disk,-4,-5.600006104,1,0,0,rectangle,-4,-5.600006104,1,0,0,,3,0.0034,0,-4,-5.600006104,1,0,0,0,2,2,154,1,73,second,,,,,,,,,,,,,,,,,,,,,,,,,,,,,,,,,,,,,,,,,,,,,,,,,,,,,,,,,,,,,,,,,,,,,,,,
,,,,,,5eb40100664e991f800b5853,62c538ed78010d410adab9dc,2022-07-06_09h25.51.865,Colour_Asymmetry_Pilot,2022.1.3,Win32,59.48839976,62c50e9c1127f2cd403a315f,,,,,,,,,,,,,,,,,,,,twofour,,3,1.934,,,,,,,,,,,,,,,,,,,,,,,,,,,,,,,,,,"[0.3802000000000001,0.19199999999999995,-0.6394]","[0.37240000000000006,0.4980000000000002,-0.2864]",63.20001221,35.19998169,1,0,0,response1disk,-12.79998779,-1.600006104,1,0,0,rectangle,-12.79998779,-1.600006104,1,0,0,,2,0.0031,0,-12.79998779,-1.600006104,1,0,0,0,3,3,62,1,62,first,,,,,,,,,,,,,,,,,,,,,,,,,,,,,,,,,,,,,,,,,,,,,,,,,,,,,,,,,,,,,,,,,,,,,,,,
,,,,,,5eb40100664e991f800b5853,62c538ed78010d410adab9dc,2022-07-06_09h25.51.865,Colour_Asymmetry_Pilot,2022.1.3,Win32,59.48839976,62c50e9c1127f2cd403a315f,,,,,,,,,,,,,,,,,,,,twoone,,-1,1.9668,,,,,,,,,,,,,,,,,,,,,,,,,,,,,,,,,,"[-0.07459999999999989,0.12139999999999995,-0.9922]","[-0.24719999999999998,-0.0354000000000001,0.3175999999999999]",-45.59997559,-85.60003662,1,0,0,response5disk,5.600036621,8,1,0,0,rectangle,5.600036621,8,1,0,0,,1,0.0034,0,5.600036621,8,1,0,0,0,4,4,157,1,76,second,,,,,,,,,,,,,,,,,,,,,,,,,,,,,,,,,,,,,,,,,,,,,,,,,,,,,,,,,,,,,,,,,,,,,,,,
,,,,,,5eb40100664e991f800b5853,62c538ed78010d410adab9dc,2022-07-06_09h25.51.865,Colour_Asymmetry_Pilot,2022.1.3,Win32,59.48839976,62c50e9c1127f2cd403a315f,,,,,,,,,,,,,,,,,,,,onetwo,,-2,9.0057,,,,,,,,,,,,,,,,,,,,,,,,,,,,,,,,,,"[0.7646000000000002,0.07440000000000002,0.2704]","[1,0.12939999999999996,-1]",-76.79998779,-37.6000061,1,0,0,response5disk,-19.20001221,-4,1,0,0,rectangle,-19.20001221,-4,1,0,0,,2,0.0035,0,-19.20001221,-4,1,0,0,0,5,5,123,1,42,second,,,,,,,,,,,,,,,,,,,,,,,,,,,,,,,,,,,,,,,,,,,,,,,,,,,,,,,,,,,,,,,,,,,,,,,,
,,,,,,5eb40100664e991f800b5853,62c538ed78010d410adab9dc,2022-07-06_09h25.51.865,Colour_Asymmetry_Pilot,2022.1.3,Win32,59.48839976,62c50e9c1127f2cd403a315f,,,,,,,,,,,,,,,,,,,,onetwo,,-2,1.1344,,,,,,,,,,,,,,,,,,,,,,,,,,,,,,,,,,"[0.3881999999999999,-0.23939999999999995,-0.05040000000000011]","[-0.9688,-0.4902000000000001,-0.12159999999999993]",-70.39996338,-31.20001221,1,0,0,response5disk,-5.599975586,-0.800018311,1,0,0,rectangle,-5.599975586,-0.800018311,1,0,0,,1,0.0035,0,-5.599975586,-0.800018311,1,0,0,0,6,6,79,1,79,first,,,,,,,,,,,,,,,,,,,,,,,,,,,,,,,,,,,,,,,,,,,,,,,,,,,,,,,,,,,,,,,,,,,,,,,,
,,,,,,5eb40100664e991f800b5853,62c538ed78010d410adab9dc,2022-07-06_09h25.51.865,Colour_Asymmetry_Pilot,2022.1.3,Win32,59.48839976,62c50e9c1127f2cd403a315f,,,,,,,,,,,,,,,,,,,,onethree,,3,1.5675,,,,,,,,,,,,,,,,,,,,,,,,,,,,,,,,,,"[0.7018,0.7176,0.6155999999999999]","[-0.2942,-0.24719999999999998,-0.357]",116.7999878,57.6000061,1,0,0,response1disk,-4,-12.80001831,1,0,0,rectangle,-4,-12.80001831,1,0,0,,2,0.0032,0,-4,-12.80001831,1,0,0,0,7,7,111,1,30,second,,,,,,,,,,,,,,,,,,,,,,,,,,,,,,,,,,,,,,,,,,,,,,,,,,,,,,,,,,,,,,,,,,,,,,,,
,,,,,,5eb40100664e991f800b5853,62c538ed78010d410adab9dc,2022-07-06_09h25.51.865,Colour_Asymmetry_Pilot,2022.1.3,Win32,59.48839976,62c50e9c1127f2cd403a315f,,,,,,,,,,,,,,,,,,,,threeone,,1,1.7679,,,,,,,,,,,,,,,,,,,,,,,,,,,,,,,,,,"[0.23120000000000007,-0.7726,-0.34120000000000006]","[-0.20799999999999996,-0.655,-0.01980000000000004]",41.60003662,-106.4000244,1,0,0,response3disk,-11.20001221,-11.20001221,1,0,0,rectangle,-11.20001221,-11.20001221,1,0,0,,2,0.001,0,-11.20001221,-11.20001221,1,0,0,0,8,8,12,1,12,first,,,,,,,,,,,,,,,,,,,,,,,,,,,,,,,,,,,,,,,,,,,,,,,,,,,,,,,,,,,,,,,,,,,,,,,,
,,,,,,5eb40100664e991f800b5853,62c538ed78010d410adab9dc,2022-07-06_09h25.51.865,Colour_Asymmetry_Pilot,2022.1.3,Win32,59.48839976,62c50e9c1127f2cd403a315f,,,,,,,,,,,,,,,,,,,,threefour,,4,2.1516,,,,,,,,,,,,,,,,,,,,,,,,,,,,,,,,,,"[0.7176,-0.906,-0.6864]","[0.8274000000000001,-0.5844,-0.9452]",52,77.6000061,1,0,0,response1disk,9.600036621,-0.800018311,1,0,0,rectangle,9.600036621,-0.800018311,1,0,0,,2,0.001,0,9.600036621,-0.800018311,1,0,0,0,9,9,114,1,33,second,,,,,,,,,,,,,,,,,,,,,,,,,,,,,,,,,,,,,,,,,,,,,,,,,,,,,,,,,,,,,,,,,,,,,,,,
,,,,,,5eb40100664e991f800b5853,62c538ed78010d410adab9dc,2022-07-06_09h25.51.865,Colour_Asymmetry_Pilot,2022.1.3,Win32,59.48839976,62c50e9c1127f2cd403a315f,,,,,,,,,,,,,,,,,,,,threeone,,1,4.6355,,,,,,,,,,,,,,,,,,,,,,,,,,,,,,,,,,"[0.11359999999999992,0.6312,0.5213999999999999]","[-0.10599999999999998,-0.15300000000000002,0.15280000000000005]",58.40002441,-120,1,0,0,response3disk,12.79998779,9.600006104,1,0,0,rectangle,12.79998779,9.600006104,1,0,0,,2,0.0004,0,12.79998779,9.600006104,1,0,0,0,10,10,142,1,61,second,,,,,,,,,,,,,,,,,,,,,,,,,,,,,,,,,,,,,,,,,,,,,,,,,,,,,,,,,,,,,,,,,,,,,,,,
,,,,,,5eb40100664e991f800b5853,62c538ed78010d410adab9dc,2022-07-06_09h25.51.865,Colour_Asymmetry_Pilot,2022.1.3,Win32,59.48839976,62c50e9c1127f2cd403a315f,,,,,,,,,,,,,,,,,,,,twofour,,-1,1.2508,,,,,,,,,,,,,,,,,,,,,,,,,,,,,,,,,,"[0.12939999999999996,-0.2864,0.3253999999999999]","[-0.9216,-0.5529999999999999,-0.3962]",-48.79998779,-77.6000061,1,0,0,response5disk,0.799987793,0.799987793,1,0,0,rectangle,0.799987793,0.799987793,1,0,0,,1,0.0057,0,0.799987793,0.799987793,1,0,0,0,11,11,91,1,10,second,,,,,,,,,,,,,,,,,,,,,,,,,,,,,,,,,,,,,,,,,,,,,,,,,,,,,,,,,,,,,,,,,,,,,,,,
,,,,,,5eb40100664e991f800b5853,62c538ed78010d410adab9dc,2022-07-06_09h25.51.865,Colour_Asymmetry_Pilot,2022.1.3,Win32,59.48839976,62c50e9c1127f2cd403a315f,,,,,,,,,,,,,,,,,,,,fourtwo,,-4,1.2677,,,,,,,,,,,,,,,,,,,,,,,,,,,,,,,,,,"[0.09799999999999986,-0.24719999999999998,0.15280000000000005]","[0.3568,-0.20799999999999996,-0.9844]",-29.59997559,53.6000061,1,0,0,response7disk,-0.799987793,-16,1,0,0,rectangle,-0.799987793,-16,1,0,0,,1,0.0004,0,-0.799987793,-16,1,0,0,0,12,12,3,1,3,first,,,,,,,,,,,,,,,,,,,,,,,,,,,,,,,,,,,,,,,,,,,,,,,,,,,,,,,,,,,,,,,,,,,,,,,,
,,,,,,5eb40100664e991f800b5853,62c538ed78010d410adab9dc,2022-07-06_09h25.51.865,Colour_Asymmetry_Pilot,2022.1.3,Win32,59.48839976,62c50e9c1127f2cd403a315f,,,,,,,,,,,,,,,,,,,,twoone,,4,1.167,,,,,,,,,,,,,,,,,,,,,,,,,,,,,,,,,,"[-0.10599999999999998,-0.15300000000000002,0.15280000000000005]","[-0.10599999999999998,-0.15300000000000002,0.15280000000000005]",36.79998779,90.3999939,1,0,0,response1disk,18.40002441,11.19998169,1,0,0,rectangle,18.40002441,11.19998169,1,0,0,,1,0.0013,0,18.40002441,11.19998169,1,0,0,0,13,13,83,1,2,second,,,,,,,,,,,,,,,,,,,,,,,,,,,,,,,,,,,,,,,,,,,,,,,,,,,,,,,,,,,,,,,,,,,,,,,,
,,,,,,5eb40100664e991f800b5853,62c538ed78010d410adab9dc,2022-07-06_09h25.51.865,Colour_Asymmetry_Pilot,2022.1.3,Win32,59.48839976,62c50e9c1127f2cd403a315f,,,,,,,,,,,,,,,,,,,,twoone,,-3,3.318,,,,,,,,,,,,,,,,,,,,,,,,,,,,,,,,,,"[-0.30200000000000005,0.14500000000000002,0.2784]","[-0.6706000000000001,-0.6157999999999999,-0.6786]",-80.79998779,25.6000061,1,0,0,response7disk,-20.79998779,-10.3999939,1,0,0,rectangle,-20.79998779,-10.3999939,1,0,0,,3,0.0037,0,-20.79998779,-10.3999939,1,0,0,0,14,14,46,1,46,first,,,,,,,,,,,,,,,,,,,,,,,,,,,,,,,,,,,,,,,,,,,,,,,,,,,,,,,,,,,,,,,,,,,,,,,,
