trials.thisRepN,trials.thisTrialN,trials.thisN,trials.thisIndex,trials.ran,Colourcodes,participant,session,date,expName,psychopyVersion,OS,frameRate,study_id,trials_4.thisRepN,trials_4.thisTrialN,trials_4.thisN,trials_4.thisIndex,trials_4.ran,StimulusPos,key_resp.keys,key_resp.rt,key_resp_2.keys,key_resp_2.rt,key_resp_15.keys,key_resp_15.rt,key_resp_17.keys,key_resp_17.rt,key_resp_9.keys,key_resp_9.rt,key_resp_10.keys,key_resp_10.rt,Circle1_col,Ecc,Circle2_col,similarity,response_time,mouse_5.x,mouse_5.y,mouse_5.leftButton,mouse_5.midButton,mouse_5.rightButton,mouse_5.clicked_name,mouse_10.x,mouse_10.y,mouse_10.leftButton,mouse_10.midButton,mouse_10.rightButton,mouse_10.clicked_name,mouse_7.x,mouse_7.y,mouse_7.leftButton,mouse_7.midButton,mouse_7.rightButton,catchnumberprac,mouse_6.x,mouse_6.y,mouse_6.leftButton,mouse_6.midButton,mouse_6.rightButton,duringprac.thisRepN,duringprac.thisTrialN,duringprac.thisN,duringprac.thisIndex,duringprac.ran,mouse_7.clicked_name,catchprac,mouse_6.clicked_name,key_resp_22.keys,key_resp_22.rt,Circle1_colour,Circle2_colour,mouse.x,mouse.y,mouse.leftButton,mouse.midButton,mouse.rightButton,mouse.clicked_name,mouse_2.x,mouse_2.y,mouse_2.leftButton,mouse_2.midButton,mouse_2.rightButton,mouse_2.clicked_name,mouse_3.x,mouse_3.y,mouse_3.leftButton,mouse_3.midButton,mouse_3.rightButton,catchresponse,catchnumber,response_time_catch,Catch,mouse_11.x,mouse_11.y,mouse_11.leftButton,mouse_11.midButton,mouse_11.rightButton,trials_2.thisRepN,trials_2.thisTrialN,trials_2.thisN,trials_2.thisIndex,trials_2.ran,Colourpair,Temporder,mouse_3.clicked_name,mouse_11.clicked_name,trials_3.thisRepN,trials_3.thisTrialN,trials_3.thisN,trials_3.thisIndex,trials_3.ran,key_resp_instr_Ishi.keys,key_resp_instr_Ishi.rt,Ishi_trial_keyresp.keys,Ishi_textbox.text,Ishi_mouse.x,Ishi_mouse.y,Ishi_mouse.leftButton,Ishi_mouse.midButton,Ishi_mouse.rightButton,Ishi_mouse.clicked_name,Ishi_loop.thisRepN,Ishi_loop.thisTrialN,Ishi_loop.thisN,Ishi_loop.thisIndex,Ishi_loop.ran,imageaddress,textbox.text,mouse_4.x,mouse_4.y,mouse_4.leftButton,mouse_4.midButton,mouse_4.rightButton,mouse_4.clicked_name,textbox_2.text,mouse_8.x,mouse_8.y,mouse_8.leftButton,mouse_8.midButton,mouse_8.rightButton,mouse_8.clicked_name,textbox_3.text,mouse_9.x,mouse_9.y,mouse_9.leftButton,mouse_9.midButton,mouse_9.rightButton,mouse_9.clicked_name,textbox_4.text,mouse_12.x,mouse_12.y,mouse_12.leftButton,mouse_12.midButton,mouse_12.rightButton,mouse_12.clicked_name,textbox_5.text,mouse_13.x,mouse_13.y,mouse_13.leftButton,mouse_13.midButton,mouse_13.rightButton,mouse_13.clicked_name,textbox_6.text,mouse_14.x,mouse_14.y,mouse_14.leftButton,mouse_14.midButton,mouse_14.rightButton,mouse_14.clicked_name,textbox_7.text,mouse_15.x,mouse_15.y,mouse_15.leftButton,mouse_15.midButton,mouse_15.rightButton,mouse_15.clicked_name
0,0,0,29,1,,614a1b73d2eab38adf5bdd7e,62c5388ba8f50aeba52aaead,2022-07-06_02h27.10.832,Colour_Asymmetry_Pilot,2022.1.3,Win32,59.95563283,62c50e9c1127f2cd403a315f,,,,,,,,,,,,,,,,,,,,,,,,,,,,,,,,,,,,,,,,,,,,,,,,,,,,,,,,,,,,,,,,,,,,,,,,,,,,,,,,,,,,,,,,,,,,,,,,,,,,,,,,,,,,,,,,,,,,,,,,,,,,,,,,,,,,,,,,,,,,,,,,,,,,,,,,,,,,,,,,,,,
0,1,1,77,1,,614a1b73d2eab38adf5bdd7e,62c5388ba8f50aeba52aaead,2022-07-06_02h27.10.832,Colour_Asymmetry_Pilot,2022.1.3,Win32,59.95563283,62c50e9c1127f2cd403a315f,,,,,,,,,,,,,,,,,,,,,,,,,,,,,,,,,,,,,,,,,,,,,,,,,,,,,,,,,,,,,,,,,,,,,,,,,,,,,,,,,,,,,,,,,,,,,,,,,,,,,,,,,,,,,,,,,,,,,,,,,,,,,,,,,,,,,,,,,,,,,,,,,,,,,,,,,,,,,,,,,,,
0,2,2,13,1,,614a1b73d2eab38adf5bdd7e,62c5388ba8f50aeba52aaead,2022-07-06_02h27.10.832,Colour_Asymmetry_Pilot,2022.1.3,Win32,59.95563283,62c50e9c1127f2cd403a315f,,,,,,,,,,,,,,,,,,,,,,,,,,,,,,,,,,,,,,,,,,,,,,,,,,,,,,,,,,,,,,,,,,,,,,,,,,,,,,,,,,,,,,,,,,,,,,,,,,,,,,,,,,,,,,,,,,,,,,,,,,,,,,,,,,,,,,,,,,,,,,,,,,,,,,,,,,,,,,,,,,,
0,3,3,63,1,,614a1b73d2eab38adf5bdd7e,62c5388ba8f50aeba52aaead,2022-07-06_02h27.10.832,Colour_Asymmetry_Pilot,2022.1.3,Win32,59.95563283,62c50e9c1127f2cd403a315f,,,,,,,,,,,,,,,,,,,,,,,,,,,,,,,,,,,,,,,,,,,,,,,,,,,,,,,,,,,,,,,,,,,,,,,,,,,,,,,,,,,,,,,,,,,,,,,,,,,,,,,,,,,,,,,,,,,,,,,,,,,,,,,,,,,,,,,,,,,,,,,,,,,,,,,,,,,,,,,,,,,
0,4,4,30,1,,614a1b73d2eab38adf5bdd7e,62c5388ba8f50aeba52aaead,2022-07-06_02h27.10.832,Colour_Asymmetry_Pilot,2022.1.3,Win32,59.95563283,62c50e9c1127f2cd403a315f,,,,,,,,,,,,,,,,,,,,,,,,,,,,,,,,,,,,,,,,,,,,,,,,,,,,,,,,,,,,,,,,,,,,,,,,,,,,,,,,,,,,,,,,,,,,,,,,,,,,,,,,,,,,,,,,,,,,,,,,,,,,,,,,,,,,,,,,,,,,,,,,,,,,,,,,,,,,,,,,,,,
0,5,5,67,1,,614a1b73d2eab38adf5bdd7e,62c5388ba8f50aeba52aaead,2022-07-06_02h27.10.832,Colour_Asymmetry_Pilot,2022.1.3,Win32,59.95563283,62c50e9c1127f2cd403a315f,,,,,,,,,,,,,,,,,,,,,,,,,,,,,,,,,,,,,,,,,,,,,,,,,,,,,,,,,,,,,,,,,,,,,,,,,,,,,,,,,,,,,,,,,,,,,,,,,,,,,,,,,,,,,,,,,,,,,,,,,,,,,,,,,,,,,,,,,,,,,,,,,,,,,,,,,,,,,,,,,,,
0,6,6,28,1,,614a1b73d2eab38adf5bdd7e,62c5388ba8f50aeba52aaead,2022-07-06_02h27.10.832,Colour_Asymmetry_Pilot,2022.1.3,Win32,59.95563283,62c50e9c1127f2cd403a315f,,,,,,,,,,,,,,,,,,,,,,,,,,,,,,,,,,,,,,,,,,,,,,,,,,,,,,,,,,,,,,,,,,,,,,,,,,,,,,,,,,,,,,,,,,,,,,,,,,,,,,,,,,,,,,,,,,,,,,,,,,,,,,,,,,,,,,,,,,,,,,,,,,,,,,,,,,,,,,,,,,,
0,7,7,4,1,,614a1b73d2eab38adf5bdd7e,62c5388ba8f50aeba52aaead,2022-07-06_02h27.10.832,Colour_Asymmetry_Pilot,2022.1.3,Win32,59.95563283,62c50e9c1127f2cd403a315f,,,,,,,,,,,,,,,,,,,,,,,,,,,,,,,,,,,,,,,,,,,,,,,,,,,,,,,,,,,,,,,,,,,,,,,,,,,,,,,,,,,,,,,,,,,,,,,,,,,,,,,,,,,,,,,,,,,,,,,,,,,,,,,,,,,,,,,,,,,,,,,,,,,,,,,,,,,,,,,,,,,
0,8,8,14,1,,614a1b73d2eab38adf5bdd7e,62c5388ba8f50aeba52aaead,2022-07-06_02h27.10.832,Colour_Asymmetry_Pilot,2022.1.3,Win32,59.95563283,62c50e9c1127f2cd403a315f,,,,,,,,,,,,,,,,,,,,,,,,,,,,,,,,,,,,,,,,,,,,,,,,,,,,,,,,,,,,,,,,,,,,,,,,,,,,,,,,,,,,,,,,,,,,,,,,,,,,,,,,,,,,,,,,,,,,,,,,,,,,,,,,,,,,,,,,,,,,,,,,,,,,,,,,,,,,,,,,,,,
0,9,9,36,1,,614a1b73d2eab38adf5bdd7e,62c5388ba8f50aeba52aaead,2022-07-06_02h27.10.832,Colour_Asymmetry_Pilot,2022.1.3,Win32,59.95563283,62c50e9c1127f2cd403a315f,,,,,,,,,,,,,,,,,,,,,,,,,,,,,,,,,,,,,,,,,,,,,,,,,,,,,,,,,,,,,,,,,,,,,,,,,,,,,,,,,,,,,,,,,,,,,,,,,,,,,,,,,,,,,,,,,,,,,,,,,,,,,,,,,,,,,,,,,,,,,,,,,,,,,,,,,,,,,,,,,,,
0,10,10,85,1,,614a1b73d2eab38adf5bdd7e,62c5388ba8f50aeba52aaead,2022-07-06_02h27.10.832,Colour_Asymmetry_Pilot,2022.1.3,Win32,59.95563283,62c50e9c1127f2cd403a315f,,,,,,,,,,,,,,,,,,,,,,,,,,,,,,,,,,,,,,,,,,,,,,,,,,,,,,,,,,,,,,,,,,,,,,,,,,,,,,,,,,,,,,,,,,,,,,,,,,,,,,,,,,,,,,,,,,,,,,,,,,,,,,,,,,,,,,,,,,,,,,,,,,,,,,,,,,,,,,,,,,,
0,11,11,40,1,,614a1b73d2eab38adf5bdd7e,62c5388ba8f50aeba52aaead,2022-07-06_02h27.10.832,Colour_Asymmetry_Pilot,2022.1.3,Win32,59.95563283,62c50e9c1127f2cd403a315f,,,,,,,,,,,,,,,,,,,,,,,,,,,,,,,,,,,,,,,,,,,,,,,,,,,,,,,,,,,,,,,,,,,,,,,,,,,,,,,,,,,,,,,,,,,,,,,,,,,,,,,,,,,,,,,,,,,,,,,,,,,,,,,,,,,,,,,,,,,,,,,,,,,,,,,,,,,,,,,,,,,
0,12,12,15,1,,614a1b73d2eab38adf5bdd7e,62c5388ba8f50aeba52aaead,2022-07-06_02h27.10.832,Colour_Asymmetry_Pilot,2022.1.3,Win32,59.95563283,62c50e9c1127f2cd403a315f,,,,,,,,,,,,,,,,,,,,,,,,,,,,,,,,,,,,,,,,,,,,,,,,,,,,,,,,,,,,,,,,,,,,,,,,,,,,,,,,,,,,,,,,,,,,,,,,,,,,,,,,,,,,,,,,,,,,,,,,,,,,,,,,,,,,,,,,,,,,,,,,,,,,,,,,,,,,,,,,,,,
0,13,13,92,1,,614a1b73d2eab38adf5bdd7e,62c5388ba8f50aeba52aaead,2022-07-06_02h27.10.832,Colour_Asymmetry_Pilot,2022.1.3,Win32,59.95563283,62c50e9c1127f2cd403a315f,,,,,,,,,,,,,,,,,,,,,,,,,,,,,,,,,,,,,,,,,,,,,,,,,,,,,,,,,,,,,,,,,,,,,,,,,,,,,,,,,,,,,,,,,,,,,,,,,,,,,,,,,,,,,,,,,,,,,,,,,,,,,,,,,,,,,,,,,,,,,,,,,,,,,,,,,,,,,,,,,,,
0,14,14,21,1,,614a1b73d2eab38adf5bdd7e,62c5388ba8f50aeba52aaead,2022-07-06_02h27.10.832,Colour_Asymmetry_Pilot,2022.1.3,Win32,59.95563283,62c50e9c1127f2cd403a315f,,,,,,,,,,,,,,,,,,,,,,,,,,,,,,,,,,,,,,,,,,,,,,,,,,,,,,,,,,,,,,,,,,,,,,,,,,,,,,,,,,,,,,,,,,,,,,,,,,,,,,,,,,,,,,,,,,,,,,,,,,,,,,,,,,,,,,,,,,,,,,,,,,,,,,,,,,,,,,,,,,,
0,15,15,22,1,,614a1b73d2eab38adf5bdd7e,62c5388ba8f50aeba52aaead,2022-07-06_02h27.10.832,Colour_Asymmetry_Pilot,2022.1.3,Win32,59.95563283,62c50e9c1127f2cd403a315f,,,,,,,,,,,,,,,,,,,,,,,,,,,,,,,,,,,,,,,,,,,,,,,,,,,,,,,,,,,,,,,,,,,,,,,,,,,,,,,,,,,,,,,,,,,,,,,,,,,,,,,,,,,,,,,,,,,,,,,,,,,,,,,,,,,,,,,,,,,,,,,,,,,,,,,,,,,,,,,,,,,
0,16,16,47,1,,614a1b73d2eab38adf5bdd7e,62c5388ba8f50aeba52aaead,2022-07-06_02h27.10.832,Colour_Asymmetry_Pilot,2022.1.3,Win32,59.95563283,62c50e9c1127f2cd403a315f,,,,,,,,,,,,,,,,,,,,,,,,,,,,,,,,,,,,,,,,,,,,,,,,,,,,,,,,,,,,,,,,,,,,,,,,,,,,,,,,,,,,,,,,,,,,,,,,,,,,,,,,,,,,,,,,,,,,,,,,,,,,,,,,,,,,,,,,,,,,,,,,,,,,,,,,,,,,,,,,,,,
0,17,17,45,1,,614a1b73d2eab38adf5bdd7e,62c5388ba8f50aeba52aaead,2022-07-06_02h27.10.832,Colour_Asymmetry_Pilot,2022.1.3,Win32,59.95563283,62c50e9c1127f2cd403a315f,,,,,,,,,,,,,,,,,,,,,,,,,,,,,,,,,,,,,,,,,,,,,,,,,,,,,,,,,,,,,,,,,,,,,,,,,,,,,,,,,,,,,,,,,,,,,,,,,,,,,,,,,,,,,,,,,,,,,,,,,,,,,,,,,,,,,,,,,,,,,,,,,,,,,,,,,,,,,,,,,,,
0,18,18,16,1,,614a1b73d2eab38adf5bdd7e,62c5388ba8f50aeba52aaead,2022-07-06_02h27.10.832,Colour_Asymmetry_Pilot,2022.1.3,Win32,59.95563283,62c50e9c1127f2cd403a315f,,,,,,,,,,,,,,,,,,,,,,,,,,,,,,,,,,,,,,,,,,,,,,,,,,,,,,,,,,,,,,,,,,,,,,,,,,,,,,,,,,,,,,,,,,,,,,,,,,,,,,,,,,,,,,,,,,,,,,,,,,,,,,,,,,,,,,,,,,,,,,,,,,,,,,,,,,,,,,,,,,,
0,19,19,65,1,,614a1b73d2eab38adf5bdd7e,62c5388ba8f50aeba52aaead,2022-07-06_02h27.10.832,Colour_Asymmetry_Pilot,2022.1.3,Win32,59.95563283,62c50e9c1127f2cd403a315f,,,,,,,,,,,,,,,,,,,,,,,,,,,,,,,,,,,,,,,,,,,,,,,,,,,,,,,,,,,,,,,,,,,,,,,,,,,,,,,,,,,,,,,,,,,,,,,,,,,,,,,,,,,,,,,,,,,,,,,,,,,,,,,,,,,,,,,,,,,,,,,,,,,,,,,,,,,,,,,,,,,
0,20,20,76,1,,614a1b73d2eab38adf5bdd7e,62c5388ba8f50aeba52aaead,2022-07-06_02h27.10.832,Colour_Asymmetry_Pilot,2022.1.3,Win32,59.95563283,62c50e9c1127f2cd403a315f,,,,,,,,,,,,,,,,,,,,,,,,,,,,,,,,,,,,,,,,,,,,,,,,,,,,,,,,,,,,,,,,,,,,,,,,,,,,,,,,,,,,,,,,,,,,,,,,,,,,,,,,,,,,,,,,,,,,,,,,,,,,,,,,,,,,,,,,,,,,,,,,,,,,,,,,,,,,,,,,,,,
0,21,21,46,1,,614a1b73d2eab38adf5bdd7e,62c5388ba8f50aeba52aaead,2022-07-06_02h27.10.832,Colour_Asymmetry_Pilot,2022.1.3,Win32,59.95563283,62c50e9c1127f2cd403a315f,,,,,,,,,,,,,,,,,,,,,,,,,,,,,,,,,,,,,,,,,,,,,,,,,,,,,,,,,,,,,,,,,,,,,,,,,,,,,,,,,,,,,,,,,,,,,,,,,,,,,,,,,,,,,,,,,,,,,,,,,,,,,,,,,,,,,,,,,,,,,,,,,,,,,,,,,,,,,,,,,,,
0,22,22,44,1,,614a1b73d2eab38adf5bdd7e,62c5388ba8f50aeba52aaead,2022-07-06_02h27.10.832,Colour_Asymmetry_Pilot,2022.1.3,Win32,59.95563283,62c50e9c1127f2cd403a315f,,,,,,,,,,,,,,,,,,,,,,,,,,,,,,,,,,,,,,,,,,,,,,,,,,,,,,,,,,,,,,,,,,,,,,,,,,,,,,,,,,,,,,,,,,,,,,,,,,,,,,,,,,,,,,,,,,,,,,,,,,,,,,,,,,,,,,,,,,,,,,,,,,,,,,,,,,,,,,,,,,,
0,23,23,64,1,,614a1b73d2eab38adf5bdd7e,62c5388ba8f50aeba52aaead,2022-07-06_02h27.10.832,Colour_Asymmetry_Pilot,2022.1.3,Win32,59.95563283,62c50e9c1127f2cd403a315f,,,,,,,,,,,,,,,,,,,,,,,,,,,,,,,,,,,,,,,,,,,,,,,,,,,,,,,,,,,,,,,,,,,,,,,,,,,,,,,,,,,,,,,,,,,,,,,,,,,,,,,,,,,,,,,,,,,,,,,,,,,,,,,,,,,,,,,,,,,,,,,,,,,,,,,,,,,,,,,,,,,
0,24,24,56,1,,614a1b73d2eab38adf5bdd7e,62c5388ba8f50aeba52aaead,2022-07-06_02h27.10.832,Colour_Asymmetry_Pilot,2022.1.3,Win32,59.95563283,62c50e9c1127f2cd403a315f,,,,,,,,,,,,,,,,,,,,,,,,,,,,,,,,,,,,,,,,,,,,,,,,,,,,,,,,,,,,,,,,,,,,,,,,,,,,,,,,,,,,,,,,,,,,,,,,,,,,,,,,,,,,,,,,,,,,,,,,,,,,,,,,,,,,,,,,,,,,,,,,,,,,,,,,,,,,,,,,,,,
0,25,25,87,1,,614a1b73d2eab38adf5bdd7e,62c5388ba8f50aeba52aaead,2022-07-06_02h27.10.832,Colour_Asymmetry_Pilot,2022.1.3,Win32,59.95563283,62c50e9c1127f2cd403a315f,,,,,,,,,,,,,,,,,,,,,,,,,,,,,,,,,,,,,,,,,,,,,,,,,,,,,,,,,,,,,,,,,,,,,,,,,,,,,,,,,,,,,,,,,,,,,,,,,,,,,,,,,,,,,,,,,,,,,,,,,,,,,,,,,,,,,,,,,,,,,,,,,,,,,,,,,,,,,,,,,,,
0,26,26,71,1,,614a1b73d2eab38adf5bdd7e,62c5388ba8f50aeba52aaead,2022-07-06_02h27.10.832,Colour_Asymmetry_Pilot,2022.1.3,Win32,59.95563283,62c50e9c1127f2cd403a315f,,,,,,,,,,,,,,,,,,,,,,,,,,,,,,,,,,,,,,,,,,,,,,,,,,,,,,,,,,,,,,,,,,,,,,,,,,,,,,,,,,,,,,,,,,,,,,,,,,,,,,,,,,,,,,,,,,,,,,,,,,,,,,,,,,,,,,,,,,,,,,,,,,,,,,,,,,,,,,,,,,,
0,27,27,27,1,,614a1b73d2eab38adf5bdd7e,62c5388ba8f50aeba52aaead,2022-07-06_02h27.10.832,Colour_Asymmetry_Pilot,2022.1.3,Win32,59.95563283,62c50e9c1127f2cd403a315f,,,,,,,,,,,,,,,,,,,,,,,,,,,,,,,,,,,,,,,,,,,,,,,,,,,,,,,,,,,,,,,,,,,,,,,,,,,,,,,,,,,,,,,,,,,,,,,,,,,,,,,,,,,,,,,,,,,,,,,,,,,,,,,,,,,,,,,,,,,,,,,,,,,,,,,,,,,,,,,,,,,
0,28,28,53,1,,614a1b73d2eab38adf5bdd7e,62c5388ba8f50aeba52aaead,2022-07-06_02h27.10.832,Colour_Asymmetry_Pilot,2022.1.3,Win32,59.95563283,62c50e9c1127f2cd403a315f,,,,,,,,,,,,,,,,,,,,,,,,,,,,,,,,,,,,,,,,,,,,,,,,,,,,,,,,,,,,,,,,,,,,,,,,,,,,,,,,,,,,,,,,,,,,,,,,,,,,,,,,,,,,,,,,,,,,,,,,,,,,,,,,,,,,,,,,,,,,,,,,,,,,,,,,,,,,,,,,,,,
0,29,29,32,1,,614a1b73d2eab38adf5bdd7e,62c5388ba8f50aeba52aaead,2022-07-06_02h27.10.832,Colour_Asymmetry_Pilot,2022.1.3,Win32,59.95563283,62c50e9c1127f2cd403a315f,,,,,,,,,,,,,,,,,,,,,,,,,,,,,,,,,,,,,,,,,,,,,,,,,,,,,,,,,,,,,,,,,,,,,,,,,,,,,,,,,,,,,,,,,,,,,,,,,,,,,,,,,,,,,,,,,,,,,,,,,,,,,,,,,,,,,,,,,,,,,,,,,,,,,,,,,,,,,,,,,,,
0,30,30,72,1,,614a1b73d2eab38adf5bdd7e,62c5388ba8f50aeba52aaead,2022-07-06_02h27.10.832,Colour_Asymmetry_Pilot,2022.1.3,Win32,59.95563283,62c50e9c1127f2cd403a315f,,,,,,,,,,,,,,,,,,,,,,,,,,,,,,,,,,,,,,,,,,,,,,,,,,,,,,,,,,,,,,,,,,,,,,,,,,,,,,,,,,,,,,,,,,,,,,,,,,,,,,,,,,,,,,,,,,,,,,,,,,,,,,,,,,,,,,,,,,,,,,,,,,,,,,,,,,,,,,,,,,,
0,31,31,5,1,,614a1b73d2eab38adf5bdd7e,62c5388ba8f50aeba52aaead,2022-07-06_02h27.10.832,Colour_Asymmetry_Pilot,2022.1.3,Win32,59.95563283,62c50e9c1127f2cd403a315f,,,,,,,,,,,,,,,,,,,,,,,,,,,,,,,,,,,,,,,,,,,,,,,,,,,,,,,,,,,,,,,,,,,,,,,,,,,,,,,,,,,,,,,,,,,,,,,,,,,,,,,,,,,,,,,,,,,,,,,,,,,,,,,,,,,,,,,,,,,,,,,,,,,,,,,,,,,,,,,,,,,
0,32,32,10,1,,614a1b73d2eab38adf5bdd7e,62c5388ba8f50aeba52aaead,2022-07-06_02h27.10.832,Colour_Asymmetry_Pilot,2022.1.3,Win32,59.95563283,62c50e9c1127f2cd403a315f,,,,,,,,,,,,,,,,,,,,,,,,,,,,,,,,,,,,,,,,,,,,,,,,,,,,,,,,,,,,,,,,,,,,,,,,,,,,,,,,,,,,,,,,,,,,,,,,,,,,,,,,,,,,,,,,,,,,,,,,,,,,,,,,,,,,,,,,,,,,,,,,,,,,,,,,,,,,,,,,,,,
0,33,33,69,1,,614a1b73d2eab38adf5bdd7e,62c5388ba8f50aeba52aaead,2022-07-06_02h27.10.832,Colour_Asymmetry_Pilot,2022.1.3,Win32,59.95563283,62c50e9c1127f2cd403a315f,,,,,,,,,,,,,,,,,,,,,,,,,,,,,,,,,,,,,,,,,,,,,,,,,,,,,,,,,,,,,,,,,,,,,,,,,,,,,,,,,,,,,,,,,,,,,,,,,,,,,,,,,,,,,,,,,,,,,,,,,,,,,,,,,,,,,,,,,,,,,,,,,,,,,,,,,,,,,,,,,,,
0,34,34,81,1,,614a1b73d2eab38adf5bdd7e,62c5388ba8f50aeba52aaead,2022-07-06_02h27.10.832,Colour_Asymmetry_Pilot,2022.1.3,Win32,59.95563283,62c50e9c1127f2cd403a315f,,,,,,,,,,,,,,,,,,,,,,,,,,,,,,,,,,,,,,,,,,,,,,,,,,,,,,,,,,,,,,,,,,,,,,,,,,,,,,,,,,,,,,,,,,,,,,,,,,,,,,,,,,,,,,,,,,,,,,,,,,,,,,,,,,,,,,,,,,,,,,,,,,,,,,,,,,,,,,,,,,,
0,35,35,42,1,,614a1b73d2eab38adf5bdd7e,62c5388ba8f50aeba52aaead,2022-07-06_02h27.10.832,Colour_Asymmetry_Pilot,2022.1.3,Win32,59.95563283,62c50e9c1127f2cd403a315f,,,,,,,,,,,,,,,,,,,,,,,,,,,,,,,,,,,,,,,,,,,,,,,,,,,,,,,,,,,,,,,,,,,,,,,,,,,,,,,,,,,,,,,,,,,,,,,,,,,,,,,,,,,,,,,,,,,,,,,,,,,,,,,,,,,,,,,,,,,,,,,,,,,,,,,,,,,,,,,,,,,
0,36,36,41,1,,614a1b73d2eab38adf5bdd7e,62c5388ba8f50aeba52aaead,2022-07-06_02h27.10.832,Colour_Asymmetry_Pilot,2022.1.3,Win32,59.95563283,62c50e9c1127f2cd403a315f,,,,,,,,,,,,,,,,,,,,,,,,,,,,,,,,,,,,,,,,,,,,,,,,,,,,,,,,,,,,,,,,,,,,,,,,,,,,,,,,,,,,,,,,,,,,,,,,,,,,,,,,,,,,,,,,,,,,,,,,,,,,,,,,,,,,,,,,,,,,,,,,,,,,,,,,,,,,,,,,,,,
0,37,37,49,1,,614a1b73d2eab38adf5bdd7e,62c5388ba8f50aeba52aaead,2022-07-06_02h27.10.832,Colour_Asymmetry_Pilot,2022.1.3,Win32,59.95563283,62c50e9c1127f2cd403a315f,,,,,,,,,,,,,,,,,,,,,,,,,,,,,,,,,,,,,,,,,,,,,,,,,,,,,,,,,,,,,,,,,,,,,,,,,,,,,,,,,,,,,,,,,,,,,,,,,,,,,,,,,,,,,,,,,,,,,,,,,,,,,,,,,,,,,,,,,,,,,,,,,,,,,,,,,,,,,,,,,,,
0,38,38,35,1,,614a1b73d2eab38adf5bdd7e,62c5388ba8f50aeba52aaead,2022-07-06_02h27.10.832,Colour_Asymmetry_Pilot,2022.1.3,Win32,59.95563283,62c50e9c1127f2cd403a315f,,,,,,,,,,,,,,,,,,,,,,,,,,,,,,,,,,,,,,,,,,,,,,,,,,,,,,,,,,,,,,,,,,,,,,,,,,,,,,,,,,,,,,,,,,,,,,,,,,,,,,,,,,,,,,,,,,,,,,,,,,,,,,,,,,,,,,,,,,,,,,,,,,,,,,,,,,,,,,,,,,,
0,39,39,55,1,,614a1b73d2eab38adf5bdd7e,62c5388ba8f50aeba52aaead,2022-07-06_02h27.10.832,Colour_Asymmetry_Pilot,2022.1.3,Win32,59.95563283,62c50e9c1127f2cd403a315f,,,,,,,,,,,,,,,,,,,,,,,,,,,,,,,,,,,,,,,,,,,,,,,,,,,,,,,,,,,,,,,,,,,,,,,,,,,,,,,,,,,,,,,,,,,,,,,,,,,,,,,,,,,,,,,,,,,,,,,,,,,,,,,,,,,,,,,,,,,,,,,,,,,,,,,,,,,,,,,,,,,
0,40,40,17,1,,614a1b73d2eab38adf5bdd7e,62c5388ba8f50aeba52aaead,2022-07-06_02h27.10.832,Colour_Asymmetry_Pilot,2022.1.3,Win32,59.95563283,62c50e9c1127f2cd403a315f,,,,,,,,,,,,,,,,,,,,,,,,,,,,,,,,,,,,,,,,,,,,,,,,,,,,,,,,,,,,,,,,,,,,,,,,,,,,,,,,,,,,,,,,,,,,,,,,,,,,,,,,,,,,,,,,,,,,,,,,,,,,,,,,,,,,,,,,,,,,,,,,,,,,,,,,,,,,,,,,,,,
0,41,41,70,1,,614a1b73d2eab38adf5bdd7e,62c5388ba8f50aeba52aaead,2022-07-06_02h27.10.832,Colour_Asymmetry_Pilot,2022.1.3,Win32,59.95563283,62c50e9c1127f2cd403a315f,,,,,,,,,,,,,,,,,,,,,,,,,,,,,,,,,,,,,,,,,,,,,,,,,,,,,,,,,,,,,,,,,,,,,,,,,,,,,,,,,,,,,,,,,,,,,,,,,,,,,,,,,,,,,,,,,,,,,,,,,,,,,,,,,,,,,,,,,,,,,,,,,,,,,,,,,,,,,,,,,,,
0,42,42,6,1,,614a1b73d2eab38adf5bdd7e,62c5388ba8f50aeba52aaead,2022-07-06_02h27.10.832,Colour_Asymmetry_Pilot,2022.1.3,Win32,59.95563283,62c50e9c1127f2cd403a315f,,,,,,,,,,,,,,,,,,,,,,,,,,,,,,,,,,,,,,,,,,,,,,,,,,,,,,,,,,,,,,,,,,,,,,,,,,,,,,,,,,,,,,,,,,,,,,,,,,,,,,,,,,,,,,,,,,,,,,,,,,,,,,,,,,,,,,,,,,,,,,,,,,,,,,,,,,,,,,,,,,,
0,43,43,9,1,,614a1b73d2eab38adf5bdd7e,62c5388ba8f50aeba52aaead,2022-07-06_02h27.10.832,Colour_Asymmetry_Pilot,2022.1.3,Win32,59.95563283,62c50e9c1127f2cd403a315f,,,,,,,,,,,,,,,,,,,,,,,,,,,,,,,,,,,,,,,,,,,,,,,,,,,,,,,,,,,,,,,,,,,,,,,,,,,,,,,,,,,,,,,,,,,,,,,,,,,,,,,,,,,,,,,,,,,,,,,,,,,,,,,,,,,,,,,,,,,,,,,,,,,,,,,,,,,,,,,,,,,
0,44,44,8,1,,614a1b73d2eab38adf5bdd7e,62c5388ba8f50aeba52aaead,2022-07-06_02h27.10.832,Colour_Asymmetry_Pilot,2022.1.3,Win32,59.95563283,62c50e9c1127f2cd403a315f,,,,,,,,,,,,,,,,,,,,,,,,,,,,,,,,,,,,,,,,,,,,,,,,,,,,,,,,,,,,,,,,,,,,,,,,,,,,,,,,,,,,,,,,,,,,,,,,,,,,,,,,,,,,,,,,,,,,,,,,,,,,,,,,,,,,,,,,,,,,,,,,,,,,,,,,,,,,,,,,,,,
0,45,45,60,1,,614a1b73d2eab38adf5bdd7e,62c5388ba8f50aeba52aaead,2022-07-06_02h27.10.832,Colour_Asymmetry_Pilot,2022.1.3,Win32,59.95563283,62c50e9c1127f2cd403a315f,,,,,,,,,,,,,,,,,,,,,,,,,,,,,,,,,,,,,,,,,,,,,,,,,,,,,,,,,,,,,,,,,,,,,,,,,,,,,,,,,,,,,,,,,,,,,,,,,,,,,,,,,,,,,,,,,,,,,,,,,,,,,,,,,,,,,,,,,,,,,,,,,,,,,,,,,,,,,,,,,,,
0,46,46,84,1,,614a1b73d2eab38adf5bdd7e,62c5388ba8f50aeba52aaead,2022-07-06_02h27.10.832,Colour_Asymmetry_Pilot,2022.1.3,Win32,59.95563283,62c50e9c1127f2cd403a315f,,,,,,,,,,,,,,,,,,,,,,,,,,,,,,,,,,,,,,,,,,,,,,,,,,,,,,,,,,,,,,,,,,,,,,,,,,,,,,,,,,,,,,,,,,,,,,,,,,,,,,,,,,,,,,,,,,,,,,,,,,,,,,,,,,,,,,,,,,,,,,,,,,,,,,,,,,,,,,,,,,,
0,47,47,39,1,,614a1b73d2eab38adf5bdd7e,62c5388ba8f50aeba52aaead,2022-07-06_02h27.10.832,Colour_Asymmetry_Pilot,2022.1.3,Win32,59.95563283,62c50e9c1127f2cd403a315f,,,,,,,,,,,,,,,,,,,,,,,,,,,,,,,,,,,,,,,,,,,,,,,,,,,,,,,,,,,,,,,,,,,,,,,,,,,,,,,,,,,,,,,,,,,,,,,,,,,,,,,,,,,,,,,,,,,,,,,,,,,,,,,,,,,,,,,,,,,,,,,,,,,,,,,,,,,,,,,,,,,
0,48,48,89,1,,614a1b73d2eab38adf5bdd7e,62c5388ba8f50aeba52aaead,2022-07-06_02h27.10.832,Colour_Asymmetry_Pilot,2022.1.3,Win32,59.95563283,62c50e9c1127f2cd403a315f,,,,,,,,,,,,,,,,,,,,,,,,,,,,,,,,,,,,,,,,,,,,,,,,,,,,,,,,,,,,,,,,,,,,,,,,,,,,,,,,,,,,,,,,,,,,,,,,,,,,,,,,,,,,,,,,,,,,,,,,,,,,,,,,,,,,,,,,,,,,,,,,,,,,,,,,,,,,,,,,,,,
0,49,49,80,1,,614a1b73d2eab38adf5bdd7e,62c5388ba8f50aeba52aaead,2022-07-06_02h27.10.832,Colour_Asymmetry_Pilot,2022.1.3,Win32,59.95563283,62c50e9c1127f2cd403a315f,,,,,,,,,,,,,,,,,,,,,,,,,,,,,,,,,,,,,,,,,,,,,,,,,,,,,,,,,,,,,,,,,,,,,,,,,,,,,,,,,,,,,,,,,,,,,,,,,,,,,,,,,,,,,,,,,,,,,,,,,,,,,,,,,,,,,,,,,,,,,,,,,,,,,,,,,,,,,,,,,,,
0,50,50,91,1,,614a1b73d2eab38adf5bdd7e,62c5388ba8f50aeba52aaead,2022-07-06_02h27.10.832,Colour_Asymmetry_Pilot,2022.1.3,Win32,59.95563283,62c50e9c1127f2cd403a315f,,,,,,,,,,,,,,,,,,,,,,,,,,,,,,,,,,,,,,,,,,,,,,,,,,,,,,,,,,,,,,,,,,,,,,,,,,,,,,,,,,,,,,,,,,,,,,,,,,,,,,,,,,,,,,,,,,,,,,,,,,,,,,,,,,,,,,,,,,,,,,,,,,,,,,,,,,,,,,,,,,,
0,51,51,37,1,,614a1b73d2eab38adf5bdd7e,62c5388ba8f50aeba52aaead,2022-07-06_02h27.10.832,Colour_Asymmetry_Pilot,2022.1.3,Win32,59.95563283,62c50e9c1127f2cd403a315f,,,,,,,,,,,,,,,,,,,,,,,,,,,,,,,,,,,,,,,,,,,,,,,,,,,,,,,,,,,,,,,,,,,,,,,,,,,,,,,,,,,,,,,,,,,,,,,,,,,,,,,,,,,,,,,,,,,,,,,,,,,,,,,,,,,,,,,,,,,,,,,,,,,,,,,,,,,,,,,,,,,
0,52,52,0,1,,614a1b73d2eab38adf5bdd7e,62c5388ba8f50aeba52aaead,2022-07-06_02h27.10.832,Colour_Asymmetry_Pilot,2022.1.3,Win32,59.95563283,62c50e9c1127f2cd403a315f,,,,,,,,,,,,,,,,,,,,,,,,,,,,,,,,,,,,,,,,,,,,,,,,,,,,,,,,,,,,,,,,,,,,,,,,,,,,,,,,,,,,,,,,,,,,,,,,,,,,,,,,,,,,,,,,,,,,,,,,,,,,,,,,,,,,,,,,,,,,,,,,,,,,,,,,,,,,,,,,,,,
0,53,53,25,1,,614a1b73d2eab38adf5bdd7e,62c5388ba8f50aeba52aaead,2022-07-06_02h27.10.832,Colour_Asymmetry_Pilot,2022.1.3,Win32,59.95563283,62c50e9c1127f2cd403a315f,,,,,,,,,,,,,,,,,,,,,,,,,,,,,,,,,,,,,,,,,,,,,,,,,,,,,,,,,,,,,,,,,,,,,,,,,,,,,,,,,,,,,,,,,,,,,,,,,,,,,,,,,,,,,,,,,,,,,,,,,,,,,,,,,,,,,,,,,,,,,,,,,,,,,,,,,,,,,,,,,,,
0,54,54,58,1,,614a1b73d2eab38adf5bdd7e,62c5388ba8f50aeba52aaead,2022-07-06_02h27.10.832,Colour_Asymmetry_Pilot,2022.1.3,Win32,59.95563283,62c50e9c1127f2cd403a315f,,,,,,,,,,,,,,,,,,,,,,,,,,,,,,,,,,,,,,,,,,,,,,,,,,,,,,,,,,,,,,,,,,,,,,,,,,,,,,,,,,,,,,,,,,,,,,,,,,,,,,,,,,,,,,,,,,,,,,,,,,,,,,,,,,,,,,,,,,,,,,,,,,,,,,,,,,,,,,,,,,,
0,55,55,50,1,,614a1b73d2eab38adf5bdd7e,62c5388ba8f50aeba52aaead,2022-07-06_02h27.10.832,Colour_Asymmetry_Pilot,2022.1.3,Win32,59.95563283,62c50e9c1127f2cd403a315f,,,,,,,,,,,,,,,,,,,,,,,,,,,,,,,,,,,,,,,,,,,,,,,,,,,,,,,,,,,,,,,,,,,,,,,,,,,,,,,,,,,,,,,,,,,,,,,,,,,,,,,,,,,,,,,,,,,,,,,,,,,,,,,,,,,,,,,,,,,,,,,,,,,,,,,,,,,,,,,,,,,
0,56,56,74,1,,614a1b73d2eab38adf5bdd7e,62c5388ba8f50aeba52aaead,2022-07-06_02h27.10.832,Colour_Asymmetry_Pilot,2022.1.3,Win32,59.95563283,62c50e9c1127f2cd403a315f,,,,,,,,,,,,,,,,,,,,,,,,,,,,,,,,,,,,,,,,,,,,,,,,,,,,,,,,,,,,,,,,,,,,,,,,,,,,,,,,,,,,,,,,,,,,,,,,,,,,,,,,,,,,,,,,,,,,,,,,,,,,,,,,,,,,,,,,,,,,,,,,,,,,,,,,,,,,,,,,,,,
0,57,57,62,1,,614a1b73d2eab38adf5bdd7e,62c5388ba8f50aeba52aaead,2022-07-06_02h27.10.832,Colour_Asymmetry_Pilot,2022.1.3,Win32,59.95563283,62c50e9c1127f2cd403a315f,,,,,,,,,,,,,,,,,,,,,,,,,,,,,,,,,,,,,,,,,,,,,,,,,,,,,,,,,,,,,,,,,,,,,,,,,,,,,,,,,,,,,,,,,,,,,,,,,,,,,,,,,,,,,,,,,,,,,,,,,,,,,,,,,,,,,,,,,,,,,,,,,,,,,,,,,,,,,,,,,,,
0,58,58,7,1,,614a1b73d2eab38adf5bdd7e,62c5388ba8f50aeba52aaead,2022-07-06_02h27.10.832,Colour_Asymmetry_Pilot,2022.1.3,Win32,59.95563283,62c50e9c1127f2cd403a315f,,,,,,,,,,,,,,,,,,,,,,,,,,,,,,,,,,,,,,,,,,,,,,,,,,,,,,,,,,,,,,,,,,,,,,,,,,,,,,,,,,,,,,,,,,,,,,,,,,,,,,,,,,,,,,,,,,,,,,,,,,,,,,,,,,,,,,,,,,,,,,,,,,,,,,,,,,,,,,,,,,,
0,59,59,38,1,,614a1b73d2eab38adf5bdd7e,62c5388ba8f50aeba52aaead,2022-07-06_02h27.10.832,Colour_Asymmetry_Pilot,2022.1.3,Win32,59.95563283,62c50e9c1127f2cd403a315f,,,,,,,,,,,,,,,,,,,,,,,,,,,,,,,,,,,,,,,,,,,,,,,,,,,,,,,,,,,,,,,,,,,,,,,,,,,,,,,,,,,,,,,,,,,,,,,,,,,,,,,,,,,,,,,,,,,,,,,,,,,,,,,,,,,,,,,,,,,,,,,,,,,,,,,,,,,,,,,,,,,
0,60,60,54,1,,614a1b73d2eab38adf5bdd7e,62c5388ba8f50aeba52aaead,2022-07-06_02h27.10.832,Colour_Asymmetry_Pilot,2022.1.3,Win32,59.95563283,62c50e9c1127f2cd403a315f,,,,,,,,,,,,,,,,,,,,,,,,,,,,,,,,,,,,,,,,,,,,,,,,,,,,,,,,,,,,,,,,,,,,,,,,,,,,,,,,,,,,,,,,,,,,,,,,,,,,,,,,,,,,,,,,,,,,,,,,,,,,,,,,,,,,,,,,,,,,,,,,,,,,,,,,,,,,,,,,,,,
0,61,61,12,1,,614a1b73d2eab38adf5bdd7e,62c5388ba8f50aeba52aaead,2022-07-06_02h27.10.832,Colour_Asymmetry_Pilot,2022.1.3,Win32,59.95563283,62c50e9c1127f2cd403a315f,,,,,,,,,,,,,,,,,,,,,,,,,,,,,,,,,,,,,,,,,,,,,,,,,,,,,,,,,,,,,,,,,,,,,,,,,,,,,,,,,,,,,,,,,,,,,,,,,,,,,,,,,,,,,,,,,,,,,,,,,,,,,,,,,,,,,,,,,,,,,,,,,,,,,,,,,,,,,,,,,,,
0,62,62,34,1,,614a1b73d2eab38adf5bdd7e,62c5388ba8f50aeba52aaead,2022-07-06_02h27.10.832,Colour_Asymmetry_Pilot,2022.1.3,Win32,59.95563283,62c50e9c1127f2cd403a315f,,,,,,,,,,,,,,,,,,,,,,,,,,,,,,,,,,,,,,,,,,,,,,,,,,,,,,,,,,,,,,,,,,,,,,,,,,,,,,,,,,,,,,,,,,,,,,,,,,,,,,,,,,,,,,,,,,,,,,,,,,,,,,,,,,,,,,,,,,,,,,,,,,,,,,,,,,,,,,,,,,,
0,63,63,57,1,,614a1b73d2eab38adf5bdd7e,62c5388ba8f50aeba52aaead,2022-07-06_02h27.10.832,Colour_Asymmetry_Pilot,2022.1.3,Win32,59.95563283,62c50e9c1127f2cd403a315f,,,,,,,,,,,,,,,,,,,,,,,,,,,,,,,,,,,,,,,,,,,,,,,,,,,,,,,,,,,,,,,,,,,,,,,,,,,,,,,,,,,,,,,,,,,,,,,,,,,,,,,,,,,,,,,,,,,,,,,,,,,,,,,,,,,,,,,,,,,,,,,,,,,,,,,,,,,,,,,,,,,
0,64,64,31,1,,614a1b73d2eab38adf5bdd7e,62c5388ba8f50aeba52aaead,2022-07-06_02h27.10.832,Colour_Asymmetry_Pilot,2022.1.3,Win32,59.95563283,62c50e9c1127f2cd403a315f,,,,,,,,,,,,,,,,,,,,,,,,,,,,,,,,,,,,,,,,,,,,,,,,,,,,,,,,,,,,,,,,,,,,,,,,,,,,,,,,,,,,,,,,,,,,,,,,,,,,,,,,,,,,,,,,,,,,,,,,,,,,,,,,,,,,,,,,,,,,,,,,,,,,,,,,,,,,,,,,,,,
0,65,65,43,1,,614a1b73d2eab38adf5bdd7e,62c5388ba8f50aeba52aaead,2022-07-06_02h27.10.832,Colour_Asymmetry_Pilot,2022.1.3,Win32,59.95563283,62c50e9c1127f2cd403a315f,,,,,,,,,,,,,,,,,,,,,,,,,,,,,,,,,,,,,,,,,,,,,,,,,,,,,,,,,,,,,,,,,,,,,,,,,,,,,,,,,,,,,,,,,,,,,,,,,,,,,,,,,,,,,,,,,,,,,,,,,,,,,,,,,,,,,,,,,,,,,,,,,,,,,,,,,,,,,,,,,,,
0,66,66,73,1,,614a1b73d2eab38adf5bdd7e,62c5388ba8f50aeba52aaead,2022-07-06_02h27.10.832,Colour_Asymmetry_Pilot,2022.1.3,Win32,59.95563283,62c50e9c1127f2cd403a315f,,,,,,,,,,,,,,,,,,,,,,,,,,,,,,,,,,,,,,,,,,,,,,,,,,,,,,,,,,,,,,,,,,,,,,,,,,,,,,,,,,,,,,,,,,,,,,,,,,,,,,,,,,,,,,,,,,,,,,,,,,,,,,,,,,,,,,,,,,,,,,,,,,,,,,,,,,,,,,,,,,,
0,67,67,20,1,,614a1b73d2eab38adf5bdd7e,62c5388ba8f50aeba52aaead,2022-07-06_02h27.10.832,Colour_Asymmetry_Pilot,2022.1.3,Win32,59.95563283,62c50e9c1127f2cd403a315f,,,,,,,,,,,,,,,,,,,,,,,,,,,,,,,,,,,,,,,,,,,,,,,,,,,,,,,,,,,,,,,,,,,,,,,,,,,,,,,,,,,,,,,,,,,,,,,,,,,,,,,,,,,,,,,,,,,,,,,,,,,,,,,,,,,,,,,,,,,,,,,,,,,,,,,,,,,,,,,,,,,
0,68,68,26,1,,614a1b73d2eab38adf5bdd7e,62c5388ba8f50aeba52aaead,2022-07-06_02h27.10.832,Colour_Asymmetry_Pilot,2022.1.3,Win32,59.95563283,62c50e9c1127f2cd403a315f,,,,,,,,,,,,,,,,,,,,,,,,,,,,,,,,,,,,,,,,,,,,,,,,,,,,,,,,,,,,,,,,,,,,,,,,,,,,,,,,,,,,,,,,,,,,,,,,,,,,,,,,,,,,,,,,,,,,,,,,,,,,,,,,,,,,,,,,,,,,,,,,,,,,,,,,,,,,,,,,,,,
0,69,69,48,1,,614a1b73d2eab38adf5bdd7e,62c5388ba8f50aeba52aaead,2022-07-06_02h27.10.832,Colour_Asymmetry_Pilot,2022.1.3,Win32,59.95563283,62c50e9c1127f2cd403a315f,,,,,,,,,,,,,,,,,,,,,,,,,,,,,,,,,,,,,,,,,,,,,,,,,,,,,,,,,,,,,,,,,,,,,,,,,,,,,,,,,,,,,,,,,,,,,,,,,,,,,,,,,,,,,,,,,,,,,,,,,,,,,,,,,,,,,,,,,,,,,,,,,,,,,,,,,,,,,,,,,,,
0,70,70,24,1,,614a1b73d2eab38adf5bdd7e,62c5388ba8f50aeba52aaead,2022-07-06_02h27.10.832,Colour_Asymmetry_Pilot,2022.1.3,Win32,59.95563283,62c50e9c1127f2cd403a315f,,,,,,,,,,,,,,,,,,,,,,,,,,,,,,,,,,,,,,,,,,,,,,,,,,,,,,,,,,,,,,,,,,,,,,,,,,,,,,,,,,,,,,,,,,,,,,,,,,,,,,,,,,,,,,,,,,,,,,,,,,,,,,,,,,,,,,,,,,,,,,,,,,,,,,,,,,,,,,,,,,,
0,71,71,78,1,,614a1b73d2eab38adf5bdd7e,62c5388ba8f50aeba52aaead,2022-07-06_02h27.10.832,Colour_Asymmetry_Pilot,2022.1.3,Win32,59.95563283,62c50e9c1127f2cd403a315f,,,,,,,,,,,,,,,,,,,,,,,,,,,,,,,,,,,,,,,,,,,,,,,,,,,,,,,,,,,,,,,,,,,,,,,,,,,,,,,,,,,,,,,,,,,,,,,,,,,,,,,,,,,,,,,,,,,,,,,,,,,,,,,,,,,,,,,,,,,,,,,,,,,,,,,,,,,,,,,,,,,
0,72,72,51,1,,614a1b73d2eab38adf5bdd7e,62c5388ba8f50aeba52aaead,2022-07-06_02h27.10.832,Colour_Asymmetry_Pilot,2022.1.3,Win32,59.95563283,62c50e9c1127f2cd403a315f,,,,,,,,,,,,,,,,,,,,,,,,,,,,,,,,,,,,,,,,,,,,,,,,,,,,,,,,,,,,,,,,,,,,,,,,,,,,,,,,,,,,,,,,,,,,,,,,,,,,,,,,,,,,,,,,,,,,,,,,,,,,,,,,,,,,,,,,,,,,,,,,,,,,,,,,,,,,,,,,,,,
0,73,73,66,1,,614a1b73d2eab38adf5bdd7e,62c5388ba8f50aeba52aaead,2022-07-06_02h27.10.832,Colour_Asymmetry_Pilot,2022.1.3,Win32,59.95563283,62c50e9c1127f2cd403a315f,,,,,,,,,,,,,,,,,,,,,,,,,,,,,,,,,,,,,,,,,,,,,,,,,,,,,,,,,,,,,,,,,,,,,,,,,,,,,,,,,,,,,,,,,,,,,,,,,,,,,,,,,,,,,,,,,,,,,,,,,,,,,,,,,,,,,,,,,,,,,,,,,,,,,,,,,,,,,,,,,,,
0,74,74,68,1,,614a1b73d2eab38adf5bdd7e,62c5388ba8f50aeba52aaead,2022-07-06_02h27.10.832,Colour_Asymmetry_Pilot,2022.1.3,Win32,59.95563283,62c50e9c1127f2cd403a315f,,,,,,,,,,,,,,,,,,,,,,,,,,,,,,,,,,,,,,,,,,,,,,,,,,,,,,,,,,,,,,,,,,,,,,,,,,,,,,,,,,,,,,,,,,,,,,,,,,,,,,,,,,,,,,,,,,,,,,,,,,,,,,,,,,,,,,,,,,,,,,,,,,,,,,,,,,,,,,,,,,,
0,75,75,61,1,,614a1b73d2eab38adf5bdd7e,62c5388ba8f50aeba52aaead,2022-07-06_02h27.10.832,Colour_Asymmetry_Pilot,2022.1.3,Win32,59.95563283,62c50e9c1127f2cd403a315f,,,,,,,,,,,,,,,,,,,,,,,,,,,,,,,,,,,,,,,,,,,,,,,,,,,,,,,,,,,,,,,,,,,,,,,,,,,,,,,,,,,,,,,,,,,,,,,,,,,,,,,,,,,,,,,,,,,,,,,,,,,,,,,,,,,,,,,,,,,,,,,,,,,,,,,,,,,,,,,,,,,
0,76,76,19,1,,614a1b73d2eab38adf5bdd7e,62c5388ba8f50aeba52aaead,2022-07-06_02h27.10.832,Colour_Asymmetry_Pilot,2022.1.3,Win32,59.95563283,62c50e9c1127f2cd403a315f,,,,,,,,,,,,,,,,,,,,,,,,,,,,,,,,,,,,,,,,,,,,,,,,,,,,,,,,,,,,,,,,,,,,,,,,,,,,,,,,,,,,,,,,,,,,,,,,,,,,,,,,,,,,,,,,,,,,,,,,,,,,,,,,,,,,,,,,,,,,,,,,,,,,,,,,,,,,,,,,,,,
0,77,77,2,1,,614a1b73d2eab38adf5bdd7e,62c5388ba8f50aeba52aaead,2022-07-06_02h27.10.832,Colour_Asymmetry_Pilot,2022.1.3,Win32,59.95563283,62c50e9c1127f2cd403a315f,,,,,,,,,,,,,,,,,,,,,,,,,,,,,,,,,,,,,,,,,,,,,,,,,,,,,,,,,,,,,,,,,,,,,,,,,,,,,,,,,,,,,,,,,,,,,,,,,,,,,,,,,,,,,,,,,,,,,,,,,,,,,,,,,,,,,,,,,,,,,,,,,,,,,,,,,,,,,,,,,,,
0,78,78,82,1,,614a1b73d2eab38adf5bdd7e,62c5388ba8f50aeba52aaead,2022-07-06_02h27.10.832,Colour_Asymmetry_Pilot,2022.1.3,Win32,59.95563283,62c50e9c1127f2cd403a315f,,,,,,,,,,,,,,,,,,,,,,,,,,,,,,,,,,,,,,,,,,,,,,,,,,,,,,,,,,,,,,,,,,,,,,,,,,,,,,,,,,,,,,,,,,,,,,,,,,,,,,,,,,,,,,,,,,,,,,,,,,,,,,,,,,,,,,,,,,,,,,,,,,,,,,,,,,,,,,,,,,,
0,79,79,75,1,,614a1b73d2eab38adf5bdd7e,62c5388ba8f50aeba52aaead,2022-07-06_02h27.10.832,Colour_Asymmetry_Pilot,2022.1.3,Win32,59.95563283,62c50e9c1127f2cd403a315f,,,,,,,,,,,,,,,,,,,,,,,,,,,,,,,,,,,,,,,,,,,,,,,,,,,,,,,,,,,,,,,,,,,,,,,,,,,,,,,,,,,,,,,,,,,,,,,,,,,,,,,,,,,,,,,,,,,,,,,,,,,,,,,,,,,,,,,,,,,,,,,,,,,,,,,,,,,,,,,,,,,
0,80,80,59,1,,614a1b73d2eab38adf5bdd7e,62c5388ba8f50aeba52aaead,2022-07-06_02h27.10.832,Colour_Asymmetry_Pilot,2022.1.3,Win32,59.95563283,62c50e9c1127f2cd403a315f,,,,,,,,,,,,,,,,,,,,,,,,,,,,,,,,,,,,,,,,,,,,,,,,,,,,,,,,,,,,,,,,,,,,,,,,,,,,,,,,,,,,,,,,,,,,,,,,,,,,,,,,,,,,,,,,,,,,,,,,,,,,,,,,,,,,,,,,,,,,,,,,,,,,,,,,,,,,,,,,,,,
0,81,81,33,1,,614a1b73d2eab38adf5bdd7e,62c5388ba8f50aeba52aaead,2022-07-06_02h27.10.832,Colour_Asymmetry_Pilot,2022.1.3,Win32,59.95563283,62c50e9c1127f2cd403a315f,,,,,,,,,,,,,,,,,,,,,,,,,,,,,,,,,,,,,,,,,,,,,,,,,,,,,,,,,,,,,,,,,,,,,,,,,,,,,,,,,,,,,,,,,,,,,,,,,,,,,,,,,,,,,,,,,,,,,,,,,,,,,,,,,,,,,,,,,,,,,,,,,,,,,,,,,,,,,,,,,,,
0,82,82,90,1,,614a1b73d2eab38adf5bdd7e,62c5388ba8f50aeba52aaead,2022-07-06_02h27.10.832,Colour_Asymmetry_Pilot,2022.1.3,Win32,59.95563283,62c50e9c1127f2cd403a315f,,,,,,,,,,,,,,,,,,,,,,,,,,,,,,,,,,,,,,,,,,,,,,,,,,,,,,,,,,,,,,,,,,,,,,,,,,,,,,,,,,,,,,,,,,,,,,,,,,,,,,,,,,,,,,,,,,,,,,,,,,,,,,,,,,,,,,,,,,,,,,,,,,,,,,,,,,,,,,,,,,,
0,83,83,18,1,,614a1b73d2eab38adf5bdd7e,62c5388ba8f50aeba52aaead,2022-07-06_02h27.10.832,Colour_Asymmetry_Pilot,2022.1.3,Win32,59.95563283,62c50e9c1127f2cd403a315f,,,,,,,,,,,,,,,,,,,,,,,,,,,,,,,,,,,,,,,,,,,,,,,,,,,,,,,,,,,,,,,,,,,,,,,,,,,,,,,,,,,,,,,,,,,,,,,,,,,,,,,,,,,,,,,,,,,,,,,,,,,,,,,,,,,,,,,,,,,,,,,,,,,,,,,,,,,,,,,,,,,
0,84,84,11,1,,614a1b73d2eab38adf5bdd7e,62c5388ba8f50aeba52aaead,2022-07-06_02h27.10.832,Colour_Asymmetry_Pilot,2022.1.3,Win32,59.95563283,62c50e9c1127f2cd403a315f,,,,,,,,,,,,,,,,,,,,,,,,,,,,,,,,,,,,,,,,,,,,,,,,,,,,,,,,,,,,,,,,,,,,,,,,,,,,,,,,,,,,,,,,,,,,,,,,,,,,,,,,,,,,,,,,,,,,,,,,,,,,,,,,,,,,,,,,,,,,,,,,,,,,,,,,,,,,,,,,,,,
0,85,85,88,1,,614a1b73d2eab38adf5bdd7e,62c5388ba8f50aeba52aaead,2022-07-06_02h27.10.832,Colour_Asymmetry_Pilot,2022.1.3,Win32,59.95563283,62c50e9c1127f2cd403a315f,,,,,,,,,,,,,,,,,,,,,,,,,,,,,,,,,,,,,,,,,,,,,,,,,,,,,,,,,,,,,,,,,,,,,,,,,,,,,,,,,,,,,,,,,,,,,,,,,,,,,,,,,,,,,,,,,,,,,,,,,,,,,,,,,,,,,,,,,,,,,,,,,,,,,,,,,,,,,,,,,,,
0,86,86,23,1,,614a1b73d2eab38adf5bdd7e,62c5388ba8f50aeba52aaead,2022-07-06_02h27.10.832,Colour_Asymmetry_Pilot,2022.1.3,Win32,59.95563283,62c50e9c1127f2cd403a315f,,,,,,,,,,,,,,,,,,,,,,,,,,,,,,,,,,,,,,,,,,,,,,,,,,,,,,,,,,,,,,,,,,,,,,,,,,,,,,,,,,,,,,,,,,,,,,,,,,,,,,,,,,,,,,,,,,,,,,,,,,,,,,,,,,,,,,,,,,,,,,,,,,,,,,,,,,,,,,,,,,,
0,87,87,3,1,,614a1b73d2eab38adf5bdd7e,62c5388ba8f50aeba52aaead,2022-07-06_02h27.10.832,Colour_Asymmetry_Pilot,2022.1.3,Win32,59.95563283,62c50e9c1127f2cd403a315f,,,,,,,,,,,,,,,,,,,,,,,,,,,,,,,,,,,,,,,,,,,,,,,,,,,,,,,,,,,,,,,,,,,,,,,,,,,,,,,,,,,,,,,,,,,,,,,,,,,,,,,,,,,,,,,,,,,,,,,,,,,,,,,,,,,,,,,,,,,,,,,,,,,,,,,,,,,,,,,,,,,
0,88,88,83,1,,614a1b73d2eab38adf5bdd7e,62c5388ba8f50aeba52aaead,2022-07-06_02h27.10.832,Colour_Asymmetry_Pilot,2022.1.3,Win32,59.95563283,62c50e9c1127f2cd403a315f,,,,,,,,,,,,,,,,,,,,,,,,,,,,,,,,,,,,,,,,,,,,,,,,,,,,,,,,,,,,,,,,,,,,,,,,,,,,,,,,,,,,,,,,,,,,,,,,,,,,,,,,,,,,,,,,,,,,,,,,,,,,,,,,,,,,,,,,,,,,,,,,,,,,,,,,,,,,,,,,,,,
0,89,89,1,1,,614a1b73d2eab38adf5bdd7e,62c5388ba8f50aeba52aaead,2022-07-06_02h27.10.832,Colour_Asymmetry_Pilot,2022.1.3,Win32,59.95563283,62c50e9c1127f2cd403a315f,,,,,,,,,,,,,,,,,,,,,,,,,,,,,,,,,,,,,,,,,,,,,,,,,,,,,,,,,,,,,,,,,,,,,,,,,,,,,,,,,,,,,,,,,,,,,,,,,,,,,,,,,,,,,,,,,,,,,,,,,,,,,,,,,,,,,,,,,,,,,,,,,,,,,,,,,,,,,,,,,,,
0,90,90,79,1,,614a1b73d2eab38adf5bdd7e,62c5388ba8f50aeba52aaead,2022-07-06_02h27.10.832,Colour_Asymmetry_Pilot,2022.1.3,Win32,59.95563283,62c50e9c1127f2cd403a315f,,,,,,,,,,,,,,,,,,,,,,,,,,,,,,,,,,,,,,,,,,,,,,,,,,,,,,,,,,,,,,,,,,,,,,,,,,,,,,,,,,,,,,,,,,,,,,,,,,,,,,,,,,,,,,,,,,,,,,,,,,,,,,,,,,,,,,,,,,,,,,,,,,,,,,,,,,,,,,,,,,,
0,91,91,86,1,,614a1b73d2eab38adf5bdd7e,62c5388ba8f50aeba52aaead,2022-07-06_02h27.10.832,Colour_Asymmetry_Pilot,2022.1.3,Win32,59.95563283,62c50e9c1127f2cd403a315f,,,,,,,,,,,,,,,,,,,,,,,,,,,,,,,,,,,,,,,,,,,,,,,,,,,,,,,,,,,,,,,,,,,,,,,,,,,,,,,,,,,,,,,,,,,,,,,,,,,,,,,,,,,,,,,,,,,,,,,,,,,,,,,,,,,,,,,,,,,,,,,,,,,,,,,,,,,,,,,,,,,
0,92,92,52,1,,614a1b73d2eab38adf5bdd7e,62c5388ba8f50aeba52aaead,2022-07-06_02h27.10.832,Colour_Asymmetry_Pilot,2022.1.3,Win32,59.95563283,62c50e9c1127f2cd403a315f,,,,,,,,,,,,,,,,,,,,,,,,,,,,,,,,,,,,,,,,,,,,,,,,,,,,,,,,,,,,,,,,,,,,,,,,,,,,,,,,,,,,,,,,,,,,,,,,,,,,,,,,,,,,,,,,,,,,,,,,,,,,,,,,,,,,,,,,,,,,,,,,,,,,,,,,,,,,,,,,,,,
,,,,,,614a1b73d2eab38adf5bdd7e,62c5388ba8f50aeba52aaead,2022-07-06_02h27.10.832,Colour_Asymmetry_Pilot,2022.1.3,Win32,59.95563283,62c50e9c1127f2cd403a315f,0,0,0,66,1,twoone,,,,,,,,,,,,,,,,,,,,,,,,,,,,,,,,,,,,,,,,,,,,,,,,,,,,,,,,,,,,,,,,,,,,,,,,,,,,,,,,,,,,,,,,,,,,,,,,,,,,,,,,,,,,,,,,,,,,,,,,,,,,,,,,,,,,,,,,,,,,,,,,,,,,,,,,,,,,,
,,,,,,614a1b73d2eab38adf5bdd7e,62c5388ba8f50aeba52aaead,2022-07-06_02h27.10.832,Colour_Asymmetry_Pilot,2022.1.3,Win32,59.95563283,62c50e9c1127f2cd403a315f,0,1,1,41,1,onethree,,,,,,,,,,,,,,,,,,,,,,,,,,,,,,,,,,,,,,,,,,,,,,,,,,,,,,,,,,,,,,,,,,,,,,,,,,,,,,,,,,,,,,,,,,,,,,,,,,,,,,,,,,,,,,,,,,,,,,,,,,,,,,,,,,,,,,,,,,,,,,,,,,,,,,,,,,,,,
,,,,,,614a1b73d2eab38adf5bdd7e,62c5388ba8f50aeba52aaead,2022-07-06_02h27.10.832,Colour_Asymmetry_Pilot,2022.1.3,Win32,59.95563283,62c50e9c1127f2cd403a315f,0,2,2,109,1,threefour,,,,,,,,,,,,,,,,,,,,,,,,,,,,,,,,,,,,,,,,,,,,,,,,,,,,,,,,,,,,,,,,,,,,,,,,,,,,,,,,,,,,,,,,,,,,,,,,,,,,,,,,,,,,,,,,,,,,,,,,,,,,,,,,,,,,,,,,,,,,,,,,,,,,,,,,,,,,,
,,,,,,614a1b73d2eab38adf5bdd7e,62c5388ba8f50aeba52aaead,2022-07-06_02h27.10.832,Colour_Asymmetry_Pilot,2022.1.3,Win32,59.95563283,62c50e9c1127f2cd403a315f,0,3,3,20,1,threeone,,,,,,,,,,,,,,,,,,,,,,,,,,,,,,,,,,,,,,,,,,,,,,,,,,,,,,,,,,,,,,,,,,,,,,,,,,,,,,,,,,,,,,,,,,,,,,,,,,,,,,,,,,,,,,,,,,,,,,,,,,,,,,,,,,,,,,,,,,,,,,,,,,,,,,,,,,,,,
,,,,,,614a1b73d2eab38adf5bdd7e,62c5388ba8f50aeba52aaead,2022-07-06_02h27.10.832,Colour_Asymmetry_Pilot,2022.1.3,Win32,59.95563283,62c50e9c1127f2cd403a315f,0,4,4,15,1,fourthree,,,,,,,,,,,,,,,,,,,,,,,,,,,,,,,,,,,,,,,,,,,,,,,,,,,,,,,,,,,,,,,,,,,,,,,,,,,,,,,,,,,,,,,,,,,,,,,,,,,,,,,,,,,,,,,,,,,,,,,,,,,,,,,,,,,,,,,,,,,,,,,,,,,,,,,,,,,,,
,,,,,,614a1b73d2eab38adf5bdd7e,62c5388ba8f50aeba52aaead,2022-07-06_02h27.10.832,Colour_Asymmetry_Pilot,2022.1.3,Win32,59.95563283,62c50e9c1127f2cd403a315f,0,5,5,140,1,threeone,,,,,,,,,,,,,,,,,,,,,,,,,,,,,,,,,,,,,,,,,,,,,,,,,,,,,,,,,,,,,,,,,,,,,,,,,,,,,,,,,,,,,,,,,,,,,,,,,,,,,,,,,,,,,,,,,,,,,,,,,,,,,,,,,,,,,,,,,,,,,,,,,,,,,,,,,,,,,
,,,,,,614a1b73d2eab38adf5bdd7e,62c5388ba8f50aeba52aaead,2022-07-06_02h27.10.832,Colour_Asymmetry_Pilot,2022.1.3,Win32,59.95563283,62c50e9c1127f2cd403a315f,0,6,6,145,1,onethree,,,,,,,,,,,,,,,,,,,,,,,,,,,,,,,,,,,,,,,,,,,,,,,,,,,,,,,,,,,,,,,,,,,,,,,,,,,,,,,,,,,,,,,,,,,,,,,,,,,,,,,,,,,,,,,,,,,,,,,,,,,,,,,,,,,,,,,,,,,,,,,,,,,,,,,,,,,,,
,,,,,,614a1b73d2eab38adf5bdd7e,62c5388ba8f50aeba52aaead,2022-07-06_02h27.10.832,Colour_Asymmetry_Pilot,2022.1.3,Win32,59.95563283,62c50e9c1127f2cd403a315f,0,7,7,137,1,onethree,,,,,,,,,,,,,,,,,,,,,,,,,,,,,,,,,,,,,,,,,,,,,,,,,,,,,,,,,,,,,,,,,,,,,,,,,,,,,,,,,,,,,,,,,,,,,,,,,,,,,,,,,,,,,,,,,,,,,,,,,,,,,,,,,,,,,,,,,,,,,,,,,,,,,,,,,,,,,
,,,,,,614a1b73d2eab38adf5bdd7e,62c5388ba8f50aeba52aaead,2022-07-06_02h27.10.832,Colour_Asymmetry_Pilot,2022.1.3,Win32,59.95563283,62c50e9c1127f2cd403a315f,0,8,8,120,1,onetwo,,,,,,,,,,,,,,,,,,,,,,,,,,,,,,,,,,,,,,,,,,,,,,,,,,,,,,,,,,,,,,,,,,,,,,,,,,,,,,,,,,,,,,,,,,,,,,,,,,,,,,,,,,,,,,,,,,,,,,,,,,,,,,,,,,,,,,,,,,,,,,,,,,,,,,,,,,,,,
,,,,,,614a1b73d2eab38adf5bdd7e,62c5388ba8f50aeba52aaead,2022-07-06_02h27.10.832,Colour_Asymmetry_Pilot,2022.1.3,Win32,59.95563283,62c50e9c1127f2cd403a315f,0,9,9,36,1,threeone,,,,,,,,,,,,,,,,,,,,,,,,,,,,,,,,,,,,,,,,,,,,,,,,,,,,,,,,,,,,,,,,,,,,,,,,,,,,,,,,,,,,,,,,,,,,,,,,,,,,,,,,,,,,,,,,,,,,,,,,,,,,,,,,,,,,,,,,,,,,,,,,,,,,,,,,,,,,,
,,,,,,614a1b73d2eab38adf5bdd7e,62c5388ba8f50aeba52aaead,2022-07-06_02h27.10.832,Colour_Asymmetry_Pilot,2022.1.3,Win32,59.95563283,62c50e9c1127f2cd403a315f,0,10,10,90,1,twoone,,,,,,,,,,,,,,,,,,,,,,,,,,,,,,,,,,,,,,,,,,,,,,,,,,,,,,,,,,,,,,,,,,,,,,,,,,,,,,,,,,,,,,,,,,,,,,,,,,,,,,,,,,,,,,,,,,,,,,,,,,,,,,,,,,,,,,,,,,,,,,,,,,,,,,,,,,,,,
,,,,,,614a1b73d2eab38adf5bdd7e,62c5388ba8f50aeba52aaead,2022-07-06_02h27.10.832,Colour_Asymmetry_Pilot,2022.1.3,Win32,59.95563283,62c50e9c1127f2cd403a315f,0,11,11,51,1,twofour,,,,,,,,,,,,,,,,,,,,,,,,,,,,,,,,,,,,,,,,,,,,,,,,,,,,,,,,,,,,,,,,,,,,,,,,,,,,,,,,,,,,,,,,,,,,,,,,,,,,,,,,,,,,,,,,,,,,,,,,,,,,,,,,,,,,,,,,,,,,,,,,,,,,,,,,,,,,,
,,,,,,614a1b73d2eab38adf5bdd7e,62c5388ba8f50aeba52aaead,2022-07-06_02h27.10.832,Colour_Asymmetry_Pilot,2022.1.3,Win32,59.95563283,62c50e9c1127f2cd403a315f,0,12,12,131,1,twofour,,,,,,,,,,,,,,,,,,,,,,,,,,,,,,,,,,,,,,,,,,,,,,,,,,,,,,,,,,,,,,,,,,,,,,,,,,,,,,,,,,,,,,,,,,,,,,,,,,,,,,,,,,,,,,,,,,,,,,,,,,,,,,,,,,,,,,,,,,,,,,,,,,,,,,,,,,,,,
,,,,,,614a1b73d2eab38adf5bdd7e,62c5388ba8f50aeba52aaead,2022-07-06_02h27.10.832,Colour_Asymmetry_Pilot,2022.1.3,Win32,59.95563283,62c50e9c1127f2cd403a315f,0,13,13,146,1,twoone,,,,,,,,,,,,,,,,,,,,,,,,,,,,,,,,,,,,,,,,,,,,,,,,,,,,,,,,,,,,,,,,,,,,,,,,,,,,,,,,,,,,,,,,,,,,,,,,,,,,,,,,,,,,,,,,,,,,,,,,,,,,,,,,,,,,,,,,,,,,,,,,,,,,,,,,,,,,,
,,,,,,614a1b73d2eab38adf5bdd7e,62c5388ba8f50aeba52aaead,2022-07-06_02h27.10.832,Colour_Asymmetry_Pilot,2022.1.3,Win32,59.95563283,62c50e9c1127f2cd403a315f,0,14,14,14,1,fourtwo,,,,,,,,,,,,,,,,,,,,,,,,,,,,,,,,,,,,,,,,,,,,,,,,,,,,,,,,,,,,,,,,,,,,,,,,,,,,,,,,,,,,,,,,,,,,,,,,,,,,,,,,,,,,,,,,,,,,,,,,,,,,,,,,,,,,,,,,,,,,,,,,,,,,,,,,,,,,,
,,,,,,614a1b73d2eab38adf5bdd7e,62c5388ba8f50aeba52aaead,2022-07-06_02h27.10.832,Colour_Asymmetry_Pilot,2022.1.3,Win32,59.95563283,62c50e9c1127f2cd403a315f,0,15,15,81,1,onethree,,,,,,,,,,,,,,,,,,,,,,,,,,,,,,,,,,,,,,,,,,,,,,,,,,,,,,,,,,,,,,,,,,,,,,,,,,,,,,,,,,,,,,,,,,,,,,,,,,,,,,,,,,,,,,,,,,,,,,,,,,,,,,,,,,,,,,,,,,,,,,,,,,,,,,,,,,,,,
,,,,,,614a1b73d2eab38adf5bdd7e,62c5388ba8f50aeba52aaead,2022-07-06_02h27.10.832,Colour_Asymmetry_Pilot,2022.1.3,Win32,59.95563283,62c50e9c1127f2cd403a315f,0,16,16,6,1,fourtwo,,,,,,,,,,,,,,,,,,,,,,,,,,,,,,,,,,,,,,,,,,,,,,,,,,,,,,,,,,,,,,,,,,,,,,,,,,,,,,,,,,,,,,,,,,,,,,,,,,,,,,,,,,,,,,,,,,,,,,,,,,,,,,,,,,,,,,,,,,,,,,,,,,,,,,,,,,,,,
,,,,,,614a1b73d2eab38adf5bdd7e,62c5388ba8f50aeba52aaead,2022-07-06_02h27.10.832,Colour_Asymmetry_Pilot,2022.1.3,Win32,59.95563283,62c50e9c1127f2cd403a315f,0,17,17,149,1,threefour,,,,,,,,,,,,,,,,,,,,,,,,,,,,,,,,,,,,,,,,,,,,,,,,,,,,,,,,,,,,,,,,,,,,,,,,,,,,,,,,,,,,,,,,,,,,,,,,,,,,,,,,,,,,,,,,,,,,,,,,,,,,,,,,,,,,,,,,,,,,,,,,,,,,,,,,,,,,,
,,,,,,614a1b73d2eab38adf5bdd7e,62c5388ba8f50aeba52aaead,2022-07-06_02h27.10.832,Colour_Asymmetry_Pilot,2022.1.3,Win32,59.95563283,62c50e9c1127f2cd403a315f,0,18,18,31,1,fourthree,,,,,,,,,,,,,,,,,,,,,,,,,,,,,,,,,,,,,,,,,,,,,,,,,,,,,,,,,,,,,,,,,,,,,,,,,,,,,,,,,,,,,,,,,,,,,,,,,,,,,,,,,,,,,,,,,,,,,,,,,,,,,,,,,,,,,,,,,,,,,,,,,,,,,,,,,,,,,
,,,,,,614a1b73d2eab38adf5bdd7e,62c5388ba8f50aeba52aaead,2022-07-06_02h27.10.832,Colour_Asymmetry_Pilot,2022.1.3,Win32,59.95563283,62c50e9c1127f2cd403a315f,0,19,19,8,1,onetwo,,,,,,,,,,,,,,,,,,,,,,,,,,,,,,,,,,,,,,,,,,,,,,,,,,,,,,,,,,,,,,,,,,,,,,,,,,,,,,,,,,,,,,,,,,,,,,,,,,,,,,,,,,,,,,,,,,,,,,,,,,,,,,,,,,,,,,,,,,,,,,,,,,,,,,,,,,,,,
,,,,,,614a1b73d2eab38adf5bdd7e,62c5388ba8f50aeba52aaead,2022-07-06_02h27.10.832,Colour_Asymmetry_Pilot,2022.1.3,Win32,59.95563283,62c50e9c1127f2cd403a315f,0,20,20,148,1,threeone,,,,,,,,,,,,,,,,,,,,,,,,,,,,,,,,,,,,,,,,,,,,,,,,,,,,,,,,,,,,,,,,,,,,,,,,,,,,,,,,,,,,,,,,,,,,,,,,,,,,,,,,,,,,,,,,,,,,,,,,,,,,,,,,,,,,,,,,,,,,,,,,,,,,,,,,,,,,,
,,,,,,614a1b73d2eab38adf5bdd7e,62c5388ba8f50aeba52aaead,2022-07-06_02h27.10.832,Colour_Asymmetry_Pilot,2022.1.3,Win32,59.95563283,62c50e9c1127f2cd403a315f,0,21,21,158,1,fourtwo,,,,,,,,,,,,,,,,,,,,,,,,,,,,,,,,,,,,,,,,,,,,,,,,,,,,,,,,,,,,,,,,,,,,,,,,,,,,,,,,,,,,,,,,,,,,,,,,,,,,,,,,,,,,,,,,,,,,,,,,,,,,,,,,,,,,,,,,,,,,,,,,,,,,,,,,,,,,,
,,,,,,614a1b73d2eab38adf5bdd7e,62c5388ba8f50aeba52aaead,2022-07-06_02h27.10.832,Colour_Asymmetry_Pilot,2022.1.3,Win32,59.95563283,62c50e9c1127f2cd403a315f,0,22,22,157,1,threefour,,,,,,,,,,,,,,,,,,,,,,,,,,,,,,,,,,,,,,,,,,,,,,,,,,,,,,,,,,,,,,,,,,,,,,,,,,,,,,,,,,,,,,,,,,,,,,,,,,,,,,,,,,,,,,,,,,,,,,,,,,,,,,,,,,,,,,,,,,,,,,,,,,,,,,,,,,,,,
,,,,,,614a1b73d2eab38adf5bdd7e,62c5388ba8f50aeba52aaead,2022-07-06_02h27.10.832,Colour_Asymmetry_Pilot,2022.1.3,Win32,59.95563283,62c50e9c1127f2cd403a315f,0,23,23,78,1,fourtwo,,,,,,,,,,,,,,,,,,,,,,,,,,,,,,,,,,,,,,,,,,,,,,,,,,,,,,,,,,,,,,,,,,,,,,,,,,,,,,,,,,,,,,,,,,,,,,,,,,,,,,,,,,,,,,,,,,,,,,,,,,,,,,,,,,,,,,,,,,,,,,,,,,,,,,,,,,,,,
,,,,,,614a1b73d2eab38adf5bdd7e,62c5388ba8f50aeba52aaead,2022-07-06_02h27.10.832,Colour_Asymmetry_Pilot,2022.1.3,Win32,59.95563283,62c50e9c1127f2cd403a315f,0,24,24,134,1,fourtwo,,,,,,,,,,,,,,,,,,,,,,,,,,,,,,,,,,,,,,,,,,,,,,,,,,,,,,,,,,,,,,,,,,,,,,,,,,,,,,,,,,,,,,,,,,,,,,,,,,,,,,,,,,,,,,,,,,,,,,,,,,,,,,,,,,,,,,,,,,,,,,,,,,,,,,,,,,,,,
,,,,,,614a1b73d2eab38adf5bdd7e,62c5388ba8f50aeba52aaead,2022-07-06_02h27.10.832,Colour_Asymmetry_Pilot,2022.1.3,Win32,59.95563283,62c50e9c1127f2cd403a315f,0,25,25,92,1,threeone,,,,,,,,,,,,,,,,,,,,,,,,,,,,,,,,,,,,,,,,,,,,,,,,,,,,,,,,,,,,,,,,,,,,,,,,,,,,,,,,,,,,,,,,,,,,,,,,,,,,,,,,,,,,,,,,,,,,,,,,,,,,,,,,,,,,,,,,,,,,,,,,,,,,,,,,,,,,,
,,,,,,614a1b73d2eab38adf5bdd7e,62c5388ba8f50aeba52aaead,2022-07-06_02h27.10.832,Colour_Asymmetry_Pilot,2022.1.3,Win32,59.95563283,62c50e9c1127f2cd403a315f,0,26,26,53,1,threefour,,,,,,,,,,,,,,,,,,,,,,,,,,,,,,,,,,,,,,,,,,,,,,,,,,,,,,,,,,,,,,,,,,,,,,,,,,,,,,,,,,,,,,,,,,,,,,,,,,,,,,,,,,,,,,,,,,,,,,,,,,,,,,,,,,,,,,,,,,,,,,,,,,,,,,,,,,,,,
,,,,,,614a1b73d2eab38adf5bdd7e,62c5388ba8f50aeba52aaead,2022-07-06_02h27.10.832,Colour_Asymmetry_Pilot,2022.1.3,Win32,59.95563283,62c50e9c1127f2cd403a315f,0,27,27,159,1,fourthree,,,,,,,,,,,,,,,,,,,,,,,,,,,,,,,,,,,,,,,,,,,,,,,,,,,,,,,,,,,,,,,,,,,,,,,,,,,,,,,,,,,,,,,,,,,,,,,,,,,,,,,,,,,,,,,,,,,,,,,,,,,,,,,,,,,,,,,,,,,,,,,,,,,,,,,,,,,,,
,,,,,,614a1b73d2eab38adf5bdd7e,62c5388ba8f50aeba52aaead,2022-07-06_02h27.10.832,Colour_Asymmetry_Pilot,2022.1.3,Win32,59.95563283,62c50e9c1127f2cd403a315f,0,28,28,107,1,twofour,,,,,,,,,,,,,,,,,,,,,,,,,,,,,,,,,,,,,,,,,,,,,,,,,,,,,,,,,,,,,,,,,,,,,,,,,,,,,,,,,,,,,,,,,,,,,,,,,,,,,,,,,,,,,,,,,,,,,,,,,,,,,,,,,,,,,,,,,,,,,,,,,,,,,,,,,,,,,
,,,,,,614a1b73d2eab38adf5bdd7e,62c5388ba8f50aeba52aaead,2022-07-06_02h27.10.832,Colour_Asymmetry_Pilot,2022.1.3,Win32,59.95563283,62c50e9c1127f2cd403a315f,0,29,29,69,1,threefour,,,,,,,,,,,,,,,,,,,,,,,,,,,,,,,,,,,,,,,,,,,,,,,,,,,,,,,,,,,,,,,,,,,,,,,,,,,,,,,,,,,,,,,,,,,,,,,,,,,,,,,,,,,,,,,,,,,,,,,,,,,,,,,,,,,,,,,,,,,,,,,,,,,,,,,,,,,,,
,,,,,,614a1b73d2eab38adf5bdd7e,62c5388ba8f50aeba52aaead,2022-07-06_02h27.10.832,Colour_Asymmetry_Pilot,2022.1.3,Win32,59.95563283,62c50e9c1127f2cd403a315f,0,30,30,67,1,twofour,,,,,,,,,,,,,,,,,,,,,,,,,,,,,,,,,,,,,,,,,,,,,,,,,,,,,,,,,,,,,,,,,,,,,,,,,,,,,,,,,,,,,,,,,,,,,,,,,,,,,,,,,,,,,,,,,,,,,,,,,,,,,,,,,,,,,,,,,,,,,,,,,,,,,,,,,,,,,
,,,,,,614a1b73d2eab38adf5bdd7e,62c5388ba8f50aeba52aaead,2022-07-06_02h27.10.832,Colour_Asymmetry_Pilot,2022.1.3,Win32,59.95563283,62c50e9c1127f2cd403a315f,0,31,31,110,1,fourtwo,,,,,,,,,,,,,,,,,,,,,,,,,,,,,,,,,,,,,,,,,,,,,,,,,,,,,,,,,,,,,,,,,,,,,,,,,,,,,,,,,,,,,,,,,,,,,,,,,,,,,,,,,,,,,,,,,,,,,,,,,,,,,,,,,,,,,,,,,,,,,,,,,,,,,,,,,,,,,
,,,,,,614a1b73d2eab38adf5bdd7e,62c5388ba8f50aeba52aaead,2022-07-06_02h27.10.832,Colour_Asymmetry_Pilot,2022.1.3,Win32,59.95563283,62c50e9c1127f2cd403a315f,0,32,32,54,1,fourtwo,,,,,,,,,,,,,,,,,,,,,,,,,,,,,,,,,,,,,,,,,,,,,,,,,,,,,,,,,,,,,,,,,,,,,,,,,,,,,,,,,,,,,,,,,,,,,,,,,,,,,,,,,,,,,,,,,,,,,,,,,,,,,,,,,,,,,,,,,,,,,,,,,,,,,,,,,,,,,
,,,,,,614a1b73d2eab38adf5bdd7e,62c5388ba8f50aeba52aaead,2022-07-06_02h27.10.832,Colour_Asymmetry_Pilot,2022.1.3,Win32,59.95563283,62c50e9c1127f2cd403a315f,0,33,33,154,1,twoone,,,,,,,,,,,,,,,,,,,,,,,,,,,,,,,,,,,,,,,,,,,,,,,,,,,,,,,,,,,,,,,,,,,,,,,,,,,,,,,,,,,,,,,,,,,,,,,,,,,,,,,,,,,,,,,,,,,,,,,,,,,,,,,,,,,,,,,,,,,,,,,,,,,,,,,,,,,,,
,,,,,,614a1b73d2eab38adf5bdd7e,62c5388ba8f50aeba52aaead,2022-07-06_02h27.10.832,Colour_Asymmetry_Pilot,2022.1.3,Win32,59.95563283,62c50e9c1127f2cd403a315f,0,34,34,62,1,fourtwo,,,,,,,,,,,,,,,,,,,,,,,,,,,,,,,,,,,,,,,,,,,,,,,,,,,,,,,,,,,,,,,,,,,,,,,,,,,,,,,,,,,,,,,,,,,,,,,,,,,,,,,,,,,,,,,,,,,,,,,,,,,,,,,,,,,,,,,,,,,,,,,,,,,,,,,,,,,,,
,,,,,,614a1b73d2eab38adf5bdd7e,62c5388ba8f50aeba52aaead,2022-07-06_02h27.10.832,Colour_Asymmetry_Pilot,2022.1.3,Win32,59.95563283,62c50e9c1127f2cd403a315f,0,35,35,102,1,fourtwo,,,,,,,,,,,,,,,,,,,,,,,,,,,,,,,,,,,,,,,,,,,,,,,,,,,,,,,,,,,,,,,,,,,,,,,,,,,,,,,,,,,,,,,,,,,,,,,,,,,,,,,,,,,,,,,,,,,,,,,,,,,,,,,,,,,,,,,,,,,,,,,,,,,,,,,,,,,,,
,,,,,,614a1b73d2eab38adf5bdd7e,62c5388ba8f50aeba52aaead,2022-07-06_02h27.10.832,Colour_Asymmetry_Pilot,2022.1.3,Win32,59.95563283,62c50e9c1127f2cd403a315f,0,36,36,7,1,fourthree,,,,,,,,,,,,,,,,,,,,,,,,,,,,,,,,,,,,,,,,,,,,,,,,,,,,,,,,,,,,,,,,,,,,,,,,,,,,,,,,,,,,,,,,,,,,,,,,,,,,,,,,,,,,,,,,,,,,,,,,,,,,,,,,,,,,,,,,,,,,,,,,,,,,,,,,,,,,,
,,,,,,614a1b73d2eab38adf5bdd7e,62c5388ba8f50aeba52aaead,2022-07-06_02h27.10.832,Colour_Asymmetry_Pilot,2022.1.3,Win32,59.95563283,62c50e9c1127f2cd403a315f,0,37,37,73,1,onethree,,,,,,,,,,,,,,,,,,,,,,,,,,,,,,,,,,,,,,,,,,,,,,,,,,,,,,,,,,,,,,,,,,,,,,,,,,,,,,,,,,,,,,,,,,,,,,,,,,,,,,,,,,,,,,,,,,,,,,,,,,,,,,,,,,,,,,,,,,,,,,,,,,,,,,,,,,,,,
,,,,,,614a1b73d2eab38adf5bdd7e,62c5388ba8f50aeba52aaead,2022-07-06_02h27.10.832,Colour_Asymmetry_Pilot,2022.1.3,Win32,59.95563283,62c50e9c1127f2cd403a315f,0,38,38,47,1,fourthree,,,,,,,,,,,,,,,,,,,,,,,,,,,,,,,,,,,,,,,,,,,,,,,,,,,,,,,,,,,,,,,,,,,,,,,,,,,,,,,,,,,,,,,,,,,,,,,,,,,,,,,,,,,,,,,,,,,,,,,,,,,,,,,,,,,,,,,,,,,,,,,,,,,,,,,,,,,,,
,,,,,,614a1b73d2eab38adf5bdd7e,62c5388ba8f50aeba52aaead,2022-07-06_02h27.10.832,Colour_Asymmetry_Pilot,2022.1.3,Win32,59.95563283,62c50e9c1127f2cd403a315f,0,39,39,12,1,threeone,,,,,,,,,,,,,,,,,,,,,,,,,,,,,,,,,,,,,,,,,,,,,,,,,,,,,,,,,,,,,,,,,,,,,,,,,,,,,,,,,,,,,,,,,,,,,,,,,,,,,,,,,,,,,,,,,,,,,,,,,,,,,,,,,,,,,,,,,,,,,,,,,,,,,,,,,,,,,
,,,,,,614a1b73d2eab38adf5bdd7e,62c5388ba8f50aeba52aaead,2022-07-06_02h27.10.832,Colour_Asymmetry_Pilot,2022.1.3,Win32,59.95563283,62c50e9c1127f2cd403a315f,0,40,40,151,1,fourthree,,,,,,,,,,,,,,,,,,,,,,,,,,,,,,,,,,,,,,,,,,,,,,,,,,,,,,,,,,,,,,,,,,,,,,,,,,,,,,,,,,,,,,,,,,,,,,,,,,,,,,,,,,,,,,,,,,,,,,,,,,,,,,,,,,,,,,,,,,,,,,,,,,,,,,,,,,,,,
,,,,,,614a1b73d2eab38adf5bdd7e,62c5388ba8f50aeba52aaead,2022-07-06_02h27.10.832,Colour_Asymmetry_Pilot,2022.1.3,Win32,59.95563283,62c50e9c1127f2cd403a315f,0,41,41,3,1,twofour,,,,,,,,,,,,,,,,,,,,,,,,,,,,,,,,,,,,,,,,,,,,,,,,,,,,,,,,,,,,,,,,,,,,,,,,,,,,,,,,,,,,,,,,,,,,,,,,,,,,,,,,,,,,,,,,,,,,,,,,,,,,,,,,,,,,,,,,,,,,,,,,,,,,,,,,,,,,,
,,,,,,614a1b73d2eab38adf5bdd7e,62c5388ba8f50aeba52aaead,2022-07-06_02h27.10.832,Colour_Asymmetry_Pilot,2022.1.3,Win32,59.95563283,62c50e9c1127f2cd403a315f,0,42,42,80,1,onetwo,,,,,,,,,,,,,,,,,,,,,,,,,,,,,,,,,,,,,,,,,,,,,,,,,,,,,,,,,,,,,,,,,,,,,,,,,,,,,,,,,,,,,,,,,,,,,,,,,,,,,,,,,,,,,,,,,,,,,,,,,,,,,,,,,,,,,,,,,,,,,,,,,,,,,,,,,,,,,
,,,,,,614a1b73d2eab38adf5bdd7e,62c5388ba8f50aeba52aaead,2022-07-06_02h27.10.832,Colour_Asymmetry_Pilot,2022.1.3,Win32,59.95563283,62c50e9c1127f2cd403a315f,0,43,43,48,1,onetwo,,,,,,,,,,,,,,,,,,,,,,,,,,,,,,,,,,,,,,,,,,,,,,,,,,,,,,,,,,,,,,,,,,,,,,,,,,,,,,,,,,,,,,,,,,,,,,,,,,,,,,,,,,,,,,,,,,,,,,,,,,,,,,,,,,,,,,,,,,,,,,,,,,,,,,,,,,,,,
,,,,,,614a1b73d2eab38adf5bdd7e,62c5388ba8f50aeba52aaead,2022-07-06_02h27.10.832,Colour_Asymmetry_Pilot,2022.1.3,Win32,59.95563283,62c50e9c1127f2cd403a315f,0,44,44,37,1,threefour,,,,,,,,,,,,,,,,,,,,,,,,,,,,,,,,,,,,,,,,,,,,,,,,,,,,,,,,,,,,,,,,,,,,,,,,,,,,,,,,,,,,,,,,,,,,,,,,,,,,,,,,,,,,,,,,,,,,,,,,,,,,,,,,,,,,,,,,,,,,,,,,,,,,,,,,,,,,,
,,,,,,614a1b73d2eab38adf5bdd7e,62c5388ba8f50aeba52aaead,2022-07-06_02h27.10.832,Colour_Asymmetry_Pilot,2022.1.3,Win32,59.95563283,62c50e9c1127f2cd403a315f,0,45,45,130,1,twoone,,,,,,,,,,,,,,,,,,,,,,,,,,,,,,,,,,,,,,,,,,,,,,,,,,,,,,,,,,,,,,,,,,,,,,,,,,,,,,,,,,,,,,,,,,,,,,,,,,,,,,,,,,,,,,,,,,,,,,,,,,,,,,,,,,,,,,,,,,,,,,,,,,,,,,,,,,,,,
,,,,,,614a1b73d2eab38adf5bdd7e,62c5388ba8f50aeba52aaead,2022-07-06_02h27.10.832,Colour_Asymmetry_Pilot,2022.1.3,Win32,59.95563283,62c50e9c1127f2cd403a315f,0,46,46,160,1,onetwo,,,,,,,,,,,,,,,,,,,,,,,,,,,,,,,,,,,,,,,,,,,,,,,,,,,,,,,,,,,,,,,,,,,,,,,,,,,,,,,,,,,,,,,,,,,,,,,,,,,,,,,,,,,,,,,,,,,,,,,,,,,,,,,,,,,,,,,,,,,,,,,,,,,,,,,,,,,,,
,,,,,,614a1b73d2eab38adf5bdd7e,62c5388ba8f50aeba52aaead,2022-07-06_02h27.10.832,Colour_Asymmetry_Pilot,2022.1.3,Win32,59.95563283,62c50e9c1127f2cd403a315f,0,47,47,161,1,onethree,,,,,,,,,,,,,,,,,,,,,,,,,,,,,,,,,,,,,,,,,,,,,,,,,,,,,,,,,,,,,,,,,,,,,,,,,,,,,,,,,,,,,,,,,,,,,,,,,,,,,,,,,,,,,,,,,,,,,,,,,,,,,,,,,,,,,,,,,,,,,,,,,,,,,,,,,,,,,
,,,,,,614a1b73d2eab38adf5bdd7e,62c5388ba8f50aeba52aaead,2022-07-06_02h27.10.832,Colour_Asymmetry_Pilot,2022.1.3,Win32,59.95563283,62c50e9c1127f2cd403a315f,0,48,48,44,1,threeone,,,,,,,,,,,,,,,,,,,,,,,,,,,,,,,,,,,,,,,,,,,,,,,,,,,,,,,,,,,,,,,,,,,,,,,,,,,,,,,,,,,,,,,,,,,,,,,,,,,,,,,,,,,,,,,,,,,,,,,,,,,,,,,,,,,,,,,,,,,,,,,,,,,,,,,,,,,,,
,,,,,,614a1b73d2eab38adf5bdd7e,62c5388ba8f50aeba52aaead,2022-07-06_02h27.10.832,Colour_Asymmetry_Pilot,2022.1.3,Win32,59.95563283,62c50e9c1127f2cd403a315f,0,49,49,121,1,onethree,,,,,,,,,,,,,,,,,,,,,,,,,,,,,,,,,,,,,,,,,,,,,,,,,,,,,,,,,,,,,,,,,,,,,,,,,,,,,,,,,,,,,,,,,,,,,,,,,,,,,,,,,,,,,,,,,,,,,,,,,,,,,,,,,,,,,,,,,,,,,,,,,,,,,,,,,,,,,
,,,,,,614a1b73d2eab38adf5bdd7e,62c5388ba8f50aeba52aaead,2022-07-06_02h27.10.832,Colour_Asymmetry_Pilot,2022.1.3,Win32,59.95563283,62c50e9c1127f2cd403a315f,0,50,50,0,1,onetwo,,,,,,,,,,,,,,,,,,,,,,,,,,,,,,,,,,,,,,,,,,,,,,,,,,,,,,,,,,,,,,,,,,,,,,,,,,,,,,,,,,,,,,,,,,,,,,,,,,,,,,,,,,,,,,,,,,,,,,,,,,,,,,,,,,,,,,,,,,,,,,,,,,,,,,,,,,,,,
,,,,,,614a1b73d2eab38adf5bdd7e,62c5388ba8f50aeba52aaead,2022-07-06_02h27.10.832,Colour_Asymmetry_Pilot,2022.1.3,Win32,59.95563283,62c50e9c1127f2cd403a315f,0,51,51,27,1,twofour,,,,,,,,,,,,,,,,,,,,,,,,,,,,,,,,,,,,,,,,,,,,,,,,,,,,,,,,,,,,,,,,,,,,,,,,,,,,,,,,,,,,,,,,,,,,,,,,,,,,,,,,,,,,,,,,,,,,,,,,,,,,,,,,,,,,,,,,,,,,,,,,,,,,,,,,,,,,,
,,,,,,614a1b73d2eab38adf5bdd7e,62c5388ba8f50aeba52aaead,2022-07-06_02h27.10.832,Colour_Asymmetry_Pilot,2022.1.3,Win32,59.95563283,62c50e9c1127f2cd403a315f,0,52,52,95,1,fourthree,,,,,,,,,,,,,,,,,,,,,,,,,,,,,,,,,,,,,,,,,,,,,,,,,,,,,,,,,,,,,,,,,,,,,,,,,,,,,,,,,,,,,,,,,,,,,,,,,,,,,,,,,,,,,,,,,,,,,,,,,,,,,,,,,,,,,,,,,,,,,,,,,,,,,,,,,,,,,
,,,,,,614a1b73d2eab38adf5bdd7e,62c5388ba8f50aeba52aaead,2022-07-06_02h27.10.832,Colour_Asymmetry_Pilot,2022.1.3,Win32,59.95563283,62c50e9c1127f2cd403a315f,0,53,53,16,1,onetwo,,,,,,,,,,,,,,,,,,,,,,,,,,,,,,,,,,,,,,,,,,,,,,,,,,,,,,,,,,,,,,,,,,,,,,,,,,,,,,,,,,,,,,,,,,,,,,,,,,,,,,,,,,,,,,,,,,,,,,,,,,,,,,,,,,,,,,,,,,,,,,,,,,,,,,,,,,,,,
,,,,,,614a1b73d2eab38adf5bdd7e,62c5388ba8f50aeba52aaead,2022-07-06_02h27.10.832,Colour_Asymmetry_Pilot,2022.1.3,Win32,59.95563283,62c50e9c1127f2cd403a315f,0,54,54,5,1,threefour,,,,,,,,,,,,,,,,,,,,,,,,,,,,,,,,,,,,,,,,,,,,,,,,,,,,,,,,,,,,,,,,,,,,,,,,,,,,,,,,,,,,,,,,,,,,,,,,,,,,,,,,,,,,,,,,,,,,,,,,,,,,,,,,,,,,,,,,,,,,,,,,,,,,,,,,,,,,,
,,,,,,614a1b73d2eab38adf5bdd7e,62c5388ba8f50aeba52aaead,2022-07-06_02h27.10.832,Colour_Asymmetry_Pilot,2022.1.3,Win32,59.95563283,62c50e9c1127f2cd403a315f,0,55,55,117,1,threefour,,,,,,,,,,,,,,,,,,,,,,,,,,,,,,,,,,,,,,,,,,,,,,,,,,,,,,,,,,,,,,,,,,,,,,,,,,,,,,,,,,,,,,,,,,,,,,,,,,,,,,,,,,,,,,,,,,,,,,,,,,,,,,,,,,,,,,,,,,,,,,,,,,,,,,,,,,,,,
,,,,,,614a1b73d2eab38adf5bdd7e,62c5388ba8f50aeba52aaead,2022-07-06_02h27.10.832,Colour_Asymmetry_Pilot,2022.1.3,Win32,59.95563283,62c50e9c1127f2cd403a315f,0,56,56,91,1,twofour,,,,,,,,,,,,,,,,,,,,,,,,,,,,,,,,,,,,,,,,,,,,,,,,,,,,,,,,,,,,,,,,,,,,,,,,,,,,,,,,,,,,,,,,,,,,,,,,,,,,,,,,,,,,,,,,,,,,,,,,,,,,,,,,,,,,,,,,,,,,,,,,,,,,,,,,,,,,,
,,,,,,614a1b73d2eab38adf5bdd7e,62c5388ba8f50aeba52aaead,2022-07-06_02h27.10.832,Colour_Asymmetry_Pilot,2022.1.3,Win32,59.95563283,62c50e9c1127f2cd403a315f,0,57,57,32,1,onetwo,,,,,,,,,,,,,,,,,,,,,,,,,,,,,,,,,,,,,,,,,,,,,,,,,,,,,,,,,,,,,,,,,,,,,,,,,,,,,,,,,,,,,,,,,,,,,,,,,,,,,,,,,,,,,,,,,,,,,,,,,,,,,,,,,,,,,,,,,,,,,,,,,,,,,,,,,,,,,
,,,,,,614a1b73d2eab38adf5bdd7e,62c5388ba8f50aeba52aaead,2022-07-06_02h27.10.832,Colour_Asymmetry_Pilot,2022.1.3,Win32,59.95563283,62c50e9c1127f2cd403a315f,0,58,58,26,1,twoone,,,,,,,,,,,,,,,,,,,,,,,,,,,,,,,,,,,,,,,,,,,,,,,,,,,,,,,,,,,,,,,,,,,,,,,,,,,,,,,,,,,,,,,,,,,,,,,,,,,,,,,,,,,,,,,,,,,,,,,,,,,,,,,,,,,,,,,,,,,,,,,,,,,,,,,,,,,,,
,,,,,,614a1b73d2eab38adf5bdd7e,62c5388ba8f50aeba52aaead,2022-07-06_02h27.10.832,Colour_Asymmetry_Pilot,2022.1.3,Win32,59.95563283,62c50e9c1127f2cd403a315f,0,59,59,104,1,onetwo,,,,,,,,,,,,,,,,,,,,,,,,,,,,,,,,,,,,,,,,,,,,,,,,,,,,,,,,,,,,,,,,,,,,,,,,,,,,,,,,,,,,,,,,,,,,,,,,,,,,,,,,,,,,,,,,,,,,,,,,,,,,,,,,,,,,,,,,,,,,,,,,,,,,,,,,,,,,,
,,,,,,614a1b73d2eab38adf5bdd7e,62c5388ba8f50aeba52aaead,2022-07-06_02h27.10.832,Colour_Asymmetry_Pilot,2022.1.3,Win32,59.95563283,62c50e9c1127f2cd403a315f,0,60,60,114,1,twoone,,,,,,,,,,,,,,,,,,,,,,,,,,,,,,,,,,,,,,,,,,,,,,,,,,,,,,,,,,,,,,,,,,,,,,,,,,,,,,,,,,,,,,,,,,,,,,,,,,,,,,,,,,,,,,,,,,,,,,,,,,,,,,,,,,,,,,,,,,,,,,,,,,,,,,,,,,,,,
,,,,,,614a1b73d2eab38adf5bdd7e,62c5388ba8f50aeba52aaead,2022-07-06_02h27.10.832,Colour_Asymmetry_Pilot,2022.1.3,Win32,59.95563283,62c50e9c1127f2cd403a315f,0,61,61,116,1,threeone,,,,,,,,,,,,,,,,,,,,,,,,,,,,,,,,,,,,,,,,,,,,,,,,,,,,,,,,,,,,,,,,,,,,,,,,,,,,,,,,,,,,,,,,,,,,,,,,,,,,,,,,,,,,,,,,,,,,,,,,,,,,,,,,,,,,,,,,,,,,,,,,,,,,,,,,,,,,,
,,,,,,614a1b73d2eab38adf5bdd7e,62c5388ba8f50aeba52aaead,2022-07-06_02h27.10.832,Colour_Asymmetry_Pilot,2022.1.3,Win32,59.95563283,62c50e9c1127f2cd403a315f,0,62,62,75,1,twofour,,,,,,,,,,,,,,,,,,,,,,,,,,,,,,,,,,,,,,,,,,,,,,,,,,,,,,,,,,,,,,,,,,,,,,,,,,,,,,,,,,,,,,,,,,,,,,,,,,,,,,,,,,,,,,,,,,,,,,,,,,,,,,,,,,,,,,,,,,,,,,,,,,,,,,,,,,,,,
,,,,,,614a1b73d2eab38adf5bdd7e,62c5388ba8f50aeba52aaead,2022-07-06_02h27.10.832,Colour_Asymmetry_Pilot,2022.1.3,Win32,59.95563283,62c50e9c1127f2cd403a315f,0,63,63,126,1,fourtwo,,,,,,,,,,,,,,,,,,,,,,,,,,,,,,,,,,,,,,,,,,,,,,,,,,,,,,,,,,,,,,,,,,,,,,,,,,,,,,,,,,,,,,,,,,,,,,,,,,,,,,,,,,,,,,,,,,,,,,,,,,,,,,,,,,,,,,,,,,,,,,,,,,,,,,,,,,,,,
,,,,,,614a1b73d2eab38adf5bdd7e,62c5388ba8f50aeba52aaead,2022-07-06_02h27.10.832,Colour_Asymmetry_Pilot,2022.1.3,Win32,59.95563283,62c50e9c1127f2cd403a315f,0,64,64,24,1,onetwo,,,,,,,,,,,,,,,,,,,,,,,,,,,,,,,,,,,,,,,,,,,,,,,,,,,,,,,,,,,,,,,,,,,,,,,,,,,,,,,,,,,,,,,,,,,,,,,,,,,,,,,,,,,,,,,,,,,,,,,,,,,,,,,,,,,,,,,,,,,,,,,,,,,,,,,,,,,,,
,,,,,,614a1b73d2eab38adf5bdd7e,62c5388ba8f50aeba52aaead,2022-07-06_02h27.10.832,Colour_Asymmetry_Pilot,2022.1.3,Win32,59.95563283,62c50e9c1127f2cd403a315f,0,65,65,108,1,threeone,,,,,,,,,,,,,,,,,,,,,,,,,,,,,,,,,,,,,,,,,,,,,,,,,,,,,,,,,,,,,,,,,,,,,,,,,,,,,,,,,,,,,,,,,,,,,,,,,,,,,,,,,,,,,,,,,,,,,,,,,,,,,,,,,,,,,,,,,,,,,,,,,,,,,,,,,,,,,
,,,,,,614a1b73d2eab38adf5bdd7e,62c5388ba8f50aeba52aaead,2022-07-06_02h27.10.832,Colour_Asymmetry_Pilot,2022.1.3,Win32,59.95563283,62c50e9c1127f2cd403a315f,0,66,66,61,1,threefour,,,,,,,,,,,,,,,,,,,,,,,,,,,,,,,,,,,,,,,,,,,,,,,,,,,,,,,,,,,,,,,,,,,,,,,,,,,,,,,,,,,,,,,,,,,,,,,,,,,,,,,,,,,,,,,,,,,,,,,,,,,,,,,,,,,,,,,,,,,,,,,,,,,,,,,,,,,,,
,,,,,,614a1b73d2eab38adf5bdd7e,62c5388ba8f50aeba52aaead,2022-07-06_02h27.10.832,Colour_Asymmetry_Pilot,2022.1.3,Win32,59.95563283,62c50e9c1127f2cd403a315f,0,67,67,1,1,onethree,,,,,,,,,,,,,,,,,,,,,,,,,,,,,,,,,,,,,,,,,,,,,,,,,,,,,,,,,,,,,,,,,,,,,,,,,,,,,,,,,,,,,,,,,,,,,,,,,,,,,,,,,,,,,,,,,,,,,,,,,,,,,,,,,,,,,,,,,,,,,,,,,,,,,,,,,,,,,
,,,,,,614a1b73d2eab38adf5bdd7e,62c5388ba8f50aeba52aaead,2022-07-06_02h27.10.832,Colour_Asymmetry_Pilot,2022.1.3,Win32,59.95563283,62c50e9c1127f2cd403a315f,0,68,68,84,1,threeone,,,,,,,,,,,,,,,,,,,,,,,,,,,,,,,,,,,,,,,,,,,,,,,,,,,,,,,,,,,,,,,,,,,,,,,,,,,,,,,,,,,,,,,,,,,,,,,,,,,,,,,,,,,,,,,,,,,,,,,,,,,,,,,,,,,,,,,,,,,,,,,,,,,,,,,,,,,,,
,,,,,,614a1b73d2eab38adf5bdd7e,62c5388ba8f50aeba52aaead,2022-07-06_02h27.10.832,Colour_Asymmetry_Pilot,2022.1.3,Win32,59.95563283,62c50e9c1127f2cd403a315f,0,69,69,17,1,onethree,,,,,,,,,,,,,,,,,,,,,,,,,,,,,,,,,,,,,,,,,,,,,,,,,,,,,,,,,,,,,,,,,,,,,,,,,,,,,,,,,,,,,,,,,,,,,,,,,,,,,,,,,,,,,,,,,,,,,,,,,,,,,,,,,,,,,,,,,,,,,,,,,,,,,,,,,,,,,
,,,,,,614a1b73d2eab38adf5bdd7e,62c5388ba8f50aeba52aaead,2022-07-06_02h27.10.832,Colour_Asymmetry_Pilot,2022.1.3,Win32,59.95563283,62c50e9c1127f2cd403a315f,0,70,70,136,1,onetwo,,,,,,,,,,,,,,,,,,,,,,,,,,,,,,,,,,,,,,,,,,,,,,,,,,,,,,,,,,,,,,,,,,,,,,,,,,,,,,,,,,,,,,,,,,,,,,,,,,,,,,,,,,,,,,,,,,,,,,,,,,,,,,,,,,,,,,,,,,,,,,,,,,,,,,,,,,,,,
,,,,,,614a1b73d2eab38adf5bdd7e,62c5388ba8f50aeba52aaead,2022-07-06_02h27.10.832,Colour_Asymmetry_Pilot,2022.1.3,Win32,59.95563283,62c50e9c1127f2cd403a315f,0,71,71,142,1,fourtwo,,,,,,,,,,,,,,,,,,,,,,,,,,,,,,,,,,,,,,,,,,,,,,,,,,,,,,,,,,,,,,,,,,,,,,,,,,,,,,,,,,,,,,,,,,,,,,,,,,,,,,,,,,,,,,,,,,,,,,,,,,,,,,,,,,,,,,,,,,,,,,,,,,,,,,,,,,,,,
,,,,,,614a1b73d2eab38adf5bdd7e,62c5388ba8f50aeba52aaead,2022-07-06_02h27.10.832,Colour_Asymmetry_Pilot,2022.1.3,Win32,59.95563283,62c50e9c1127f2cd403a315f,0,72,72,10,1,twoone,,,,,,,,,,,,,,,,,,,,,,,,,,,,,,,,,,,,,,,,,,,,,,,,,,,,,,,,,,,,,,,,,,,,,,,,,,,,,,,,,,,,,,,,,,,,,,,,,,,,,,,,,,,,,,,,,,,,,,,,,,,,,,,,,,,,,,,,,,,,,,,,,,,,,,,,,,,,,
,,,,,,614a1b73d2eab38adf5bdd7e,62c5388ba8f50aeba52aaead,2022-07-06_02h27.10.832,Colour_Asymmetry_Pilot,2022.1.3,Win32,59.95563283,62c50e9c1127f2cd403a315f,0,73,73,82,1,twoone,,,,,,,,,,,,,,,,,,,,,,,,,,,,,,,,,,,,,,,,,,,,,,,,,,,,,,,,,,,,,,,,,,,,,,,,,,,,,,,,,,,,,,,,,,,,,,,,,,,,,,,,,,,,,,,,,,,,,,,,,,,,,,,,,,,,,,,,,,,,,,,,,,,,,,,,,,,,,
,,,,,,614a1b73d2eab38adf5bdd7e,62c5388ba8f50aeba52aaead,2022-07-06_02h27.10.832,Colour_Asymmetry_Pilot,2022.1.3,Win32,59.95563283,62c50e9c1127f2cd403a315f,0,74,74,33,1,onethree,,,,,,,,,,,,,,,,,,,,,,,,,,,,,,,,,,,,,,,,,,,,,,,,,,,,,,,,,,,,,,,,,,,,,,,,,,,,,,,,,,,,,,,,,,,,,,,,,,,,,,,,,,,,,,,,,,,,,,,,,,,,,,,,,,,,,,,,,,,,,,,,,,,,,,,,,,,,,
,,,,,,614a1b73d2eab38adf5bdd7e,62c5388ba8f50aeba52aaead,2022-07-06_02h27.10.832,Colour_Asymmetry_Pilot,2022.1.3,Win32,59.95563283,62c50e9c1127f2cd403a315f,0,75,75,56,1,onetwo,,,,,,,,,,,,,,,,,,,,,,,,,,,,,,,,,,,,,,,,,,,,,,,,,,,,,,,,,,,,,,,,,,,,,,,,,,,,,,,,,,,,,,,,,,,,,,,,,,,,,,,,,,,,,,,,,,,,,,,,,,,,,,,,,,,,,,,,,,,,,,,,,,,,,,,,,,,,,
,,,,,,614a1b73d2eab38adf5bdd7e,62c5388ba8f50aeba52aaead,2022-07-06_02h27.10.832,Colour_Asymmetry_Pilot,2022.1.3,Win32,59.95563283,62c50e9c1127f2cd403a315f,0,76,76,144,1,onetwo,,,,,,,,,,,,,,,,,,,,,,,,,,,,,,,,,,,,,,,,,,,,,,,,,,,,,,,,,,,,,,,,,,,,,,,,,,,,,,,,,,,,,,,,,,,,,,,,,,,,,,,,,,,,,,,,,,,,,,,,,,,,,,,,,,,,,,,,,,,,,,,,,,,,,,,,,,,,,
,,,,,,614a1b73d2eab38adf5bdd7e,62c5388ba8f50aeba52aaead,2022-07-06_02h27.10.832,Colour_Asymmetry_Pilot,2022.1.3,Win32,59.95563283,62c50e9c1127f2cd403a315f,0,77,77,122,1,twoone,,,,,,,,,,,,,,,,,,,,,,,,,,,,,,,,,,,,,,,,,,,,,,,,,,,,,,,,,,,,,,,,,,,,,,,,,,,,,,,,,,,,,,,,,,,,,,,,,,,,,,,,,,,,,,,,,,,,,,,,,,,,,,,,,,,,,,,,,,,,,,,,,,,,,,,,,,,,,
,,,,,,614a1b73d2eab38adf5bdd7e,62c5388ba8f50aeba52aaead,2022-07-06_02h27.10.832,Colour_Asymmetry_Pilot,2022.1.3,Win32,59.95563283,62c50e9c1127f2cd403a315f,0,78,78,64,1,onetwo,,,,,,,,,,,,,,,,,,,,,,,,,,,,,,,,,,,,,,,,,,,,,,,,,,,,,,,,,,,,,,,,,,,,,,,,,,,,,,,,,,,,,,,,,,,,,,,,,,,,,,,,,,,,,,,,,,,,,,,,,,,,,,,,,,,,,,,,,,,,,,,,,,,,,,,,,,,,,
,,,,,,614a1b73d2eab38adf5bdd7e,62c5388ba8f50aeba52aaead,2022-07-06_02h27.10.832,Colour_Asymmetry_Pilot,2022.1.3,Win32,59.95563283,62c50e9c1127f2cd403a315f,0,79,79,89,1,onethree,,,,,,,,,,,,,,,,,,,,,,,,,,,,,,,,,,,,,,,,,,,,,,,,,,,,,,,,,,,,,,,,,,,,,,,,,,,,,,,,,,,,,,,,,,,,,,,,,,,,,,,,,,,,,,,,,,,,,,,,,,,,,,,,,,,,,,,,,,,,,,,,,,,,,,,,,,,,,
,,,,,,614a1b73d2eab38adf5bdd7e,62c5388ba8f50aeba52aaead,2022-07-06_02h27.10.832,Colour_Asymmetry_Pilot,2022.1.3,Win32,59.95563283,62c50e9c1127f2cd403a315f,0,80,80,65,1,onethree,,,,,,,,,,,,,,,,,,,,,,,,,,,,,,,,,,,,,,,,,,,,,,,,,,,,,,,,,,,,,,,,,,,,,,,,,,,,,,,,,,,,,,,,,,,,,,,,,,,,,,,,,,,,,,,,,,,,,,,,,,,,,,,,,,,,,,,,,,,,,,,,,,,,,,,,,,,,,
,,,,,,614a1b73d2eab38adf5bdd7e,62c5388ba8f50aeba52aaead,2022-07-06_02h27.10.832,Colour_Asymmetry_Pilot,2022.1.3,Win32,59.95563283,62c50e9c1127f2cd403a315f,0,81,81,119,1,fourthree,,,,,,,,,,,,,,,,,,,,,,,,,,,,,,,,,,,,,,,,,,,,,,,,,,,,,,,,,,,,,,,,,,,,,,,,,,,,,,,,,,,,,,,,,,,,,,,,,,,,,,,,,,,,,,,,,,,,,,,,,,,,,,,,,,,,,,,,,,,,,,,,,,,,,,,,,,,,,
,,,,,,614a1b73d2eab38adf5bdd7e,62c5388ba8f50aeba52aaead,2022-07-06_02h27.10.832,Colour_Asymmetry_Pilot,2022.1.3,Win32,59.95563283,62c50e9c1127f2cd403a315f,0,82,82,57,1,onethree,,,,,,,,,,,,,,,,,,,,,,,,,,,,,,,,,,,,,,,,,,,,,,,,,,,,,,,,,,,,,,,,,,,,,,,,,,,,,,,,,,,,,,,,,,,,,,,,,,,,,,,,,,,,,,,,,,,,,,,,,,,,,,,,,,,,,,,,,,,,,,,,,,,,,,,,,,,,,
,,,,,,614a1b73d2eab38adf5bdd7e,62c5388ba8f50aeba52aaead,2022-07-06_02h27.10.832,Colour_Asymmetry_Pilot,2022.1.3,Win32,59.95563283,62c50e9c1127f2cd403a315f,0,83,83,113,1,onethree,,,,,,,,,,,,,,,,,,,,,,,,,,,,,,,,,,,,,,,,,,,,,,,,,,,,,,,,,,,,,,,,,,,,,,,,,,,,,,,,,,,,,,,,,,,,,,,,,,,,,,,,,,,,,,,,,,,,,,,,,,,,,,,,,,,,,,,,,,,,,,,,,,,,,,,,,,,,,
,,,,,,614a1b73d2eab38adf5bdd7e,62c5388ba8f50aeba52aaead,2022-07-06_02h27.10.832,Colour_Asymmetry_Pilot,2022.1.3,Win32,59.95563283,62c50e9c1127f2cd403a315f,0,84,84,39,1,fourthree,,,,,,,,,,,,,,,,,,,,,,,,,,,,,,,,,,,,,,,,,,,,,,,,,,,,,,,,,,,,,,,,,,,,,,,,,,,,,,,,,,,,,,,,,,,,,,,,,,,,,,,,,,,,,,,,,,,,,,,,,,,,,,,,,,,,,,,,,,,,,,,,,,,,,,,,,,,,,
,,,,,,614a1b73d2eab38adf5bdd7e,62c5388ba8f50aeba52aaead,2022-07-06_02h27.10.832,Colour_Asymmetry_Pilot,2022.1.3,Win32,59.95563283,62c50e9c1127f2cd403a315f,0,85,85,135,1,fourthree,,,,,,,,,,,,,,,,,,,,,,,,,,,,,,,,,,,,,,,,,,,,,,,,,,,,,,,,,,,,,,,,,,,,,,,,,,,,,,,,,,,,,,,,,,,,,,,,,,,,,,,,,,,,,,,,,,,,,,,,,,,,,,,,,,,,,,,,,,,,,,,,,,,,,,,,,,,,,
,,,,,,614a1b73d2eab38adf5bdd7e,62c5388ba8f50aeba52aaead,2022-07-06_02h27.10.832,Colour_Asymmetry_Pilot,2022.1.3,Win32,59.95563283,62c50e9c1127f2cd403a315f,0,86,86,19,1,twofour,,,,,,,,,,,,,,,,,,,,,,,,,,,,,,,,,,,,,,,,,,,,,,,,,,,,,,,,,,,,,,,,,,,,,,,,,,,,,,,,,,,,,,,,,,,,,,,,,,,,,,,,,,,,,,,,,,,,,,,,,,,,,,,,,,,,,,,,,,,,,,,,,,,,,,,,,,,,,
,,,,,,614a1b73d2eab38adf5bdd7e,62c5388ba8f50aeba52aaead,2022-07-06_02h27.10.832,Colour_Asymmetry_Pilot,2022.1.3,Win32,59.95563283,62c50e9c1127f2cd403a315f,0,87,87,98,1,twoone,,,,,,,,,,,,,,,,,,,,,,,,,,,,,,,,,,,,,,,,,,,,,,,,,,,,,,,,,,,,,,,,,,,,,,,,,,,,,,,,,,,,,,,,,,,,,,,,,,,,,,,,,,,,,,,,,,,,,,,,,,,,,,,,,,,,,,,,,,,,,,,,,,,,,,,,,,,,,
,,,,,,614a1b73d2eab38adf5bdd7e,62c5388ba8f50aeba52aaead,2022-07-06_02h27.10.832,Colour_Asymmetry_Pilot,2022.1.3,Win32,59.95563283,62c50e9c1127f2cd403a315f,0,88,88,97,1,onethree,,,,,,,,,,,,,,,,,,,,,,,,,,,,,,,,,,,,,,,,,,,,,,,,,,,,,,,,,,,,,,,,,,,,,,,,,,,,,,,,,,,,,,,,,,,,,,,,,,,,,,,,,,,,,,,,,,,,,,,,,,,,,,,,,,,,,,,,,,,,,,,,,,,,,,,,,,,,,
,,,,,,614a1b73d2eab38adf5bdd7e,62c5388ba8f50aeba52aaead,2022-07-06_02h27.10.832,Colour_Asymmetry_Pilot,2022.1.3,Win32,59.95563283,62c50e9c1127f2cd403a315f,0,89,89,72,1,onetwo,,,,,,,,,,,,,,,,,,,,,,,,,,,,,,,,,,,,,,,,,,,,,,,,,,,,,,,,,,,,,,,,,,,,,,,,,,,,,,,,,,,,,,,,,,,,,,,,,,,,,,,,,,,,,,,,,,,,,,,,,,,,,,,,,,,,,,,,,,,,,,,,,,,,,,,,,,,,,
,,,,,,614a1b73d2eab38adf5bdd7e,62c5388ba8f50aeba52aaead,2022-07-06_02h27.10.832,Colour_Asymmetry_Pilot,2022.1.3,Win32,59.95563283,62c50e9c1127f2cd403a315f,0,90,90,43,1,twofour,,,,,,,,,,,,,,,,,,,,,,,,,,,,,,,,,,,,,,,,,,,,,,,,,,,,,,,,,,,,,,,,,,,,,,,,,,,,,,,,,,,,,,,,,,,,,,,,,,,,,,,,,,,,,,,,,,,,,,,,,,,,,,,,,,,,,,,,,,,,,,,,,,,,,,,,,,,,,
,,,,,,614a1b73d2eab38adf5bdd7e,62c5388ba8f50aeba52aaead,2022-07-06_02h27.10.832,Colour_Asymmetry_Pilot,2022.1.3,Win32,59.95563283,62c50e9c1127f2cd403a315f,0,91,91,34,1,twoone,,,,,,,,,,,,,,,,,,,,,,,,,,,,,,,,,,,,,,,,,,,,,,,,,,,,,,,,,,,,,,,,,,,,,,,,,,,,,,,,,,,,,,,,,,,,,,,,,,,,,,,,,,,,,,,,,,,,,,,,,,,,,,,,,,,,,,,,,,,,,,,,,,,,,,,,,,,,,
,,,,,,614a1b73d2eab38adf5bdd7e,62c5388ba8f50aeba52aaead,2022-07-06_02h27.10.832,Colour_Asymmetry_Pilot,2022.1.3,Win32,59.95563283,62c50e9c1127f2cd403a315f,0,92,92,38,1,fourtwo,,,,,,,,,,,,,,,,,,,,,,,,,,,,,,,,,,,,,,,,,,,,,,,,,,,,,,,,,,,,,,,,,,,,,,,,,,,,,,,,,,,,,,,,,,,,,,,,,,,,,,,,,,,,,,,,,,,,,,,,,,,,,,,,,,,,,,,,,,,,,,,,,,,,,,,,,,,,,
,,,,,,614a1b73d2eab38adf5bdd7e,62c5388ba8f50aeba52aaead,2022-07-06_02h27.10.832,Colour_Asymmetry_Pilot,2022.1.3,Win32,59.95563283,62c50e9c1127f2cd403a315f,0,93,93,129,1,onethree,,,,,,,,,,,,,,,,,,,,,,,,,,,,,,,,,,,,,,,,,,,,,,,,,,,,,,,,,,,,,,,,,,,,,,,,,,,,,,,,,,,,,,,,,,,,,,,,,,,,,,,,,,,,,,,,,,,,,,,,,,,,,,,,,,,,,,,,,,,,,,,,,,,,,,,,,,,,,
,,,,,,614a1b73d2eab38adf5bdd7e,62c5388ba8f50aeba52aaead,2022-07-06_02h27.10.832,Colour_Asymmetry_Pilot,2022.1.3,Win32,59.95563283,62c50e9c1127f2cd403a315f,0,94,94,13,1,threefour,,,,,,,,,,,,,,,,,,,,,,,,,,,,,,,,,,,,,,,,,,,,,,,,,,,,,,,,,,,,,,,,,,,,,,,,,,,,,,,,,,,,,,,,,,,,,,,,,,,,,,,,,,,,,,,,,,,,,,,,,,,,,,,,,,,,,,,,,,,,,,,,,,,,,,,,,,,,,
,,,,,,614a1b73d2eab38adf5bdd7e,62c5388ba8f50aeba52aaead,2022-07-06_02h27.10.832,Colour_Asymmetry_Pilot,2022.1.3,Win32,59.95563283,62c50e9c1127f2cd403a315f,0,95,95,86,1,fourtwo,,,,,,,,,,,,,,,,,,,,,,,,,,,,,,,,,,,,,,,,,,,,,,,,,,,,,,,,,,,,,,,,,,,,,,,,,,,,,,,,,,,,,,,,,,,,,,,,,,,,,,,,,,,,,,,,,,,,,,,,,,,,,,,,,,,,,,,,,,,,,,,,,,,,,,,,,,,,,
,,,,,,614a1b73d2eab38adf5bdd7e,62c5388ba8f50aeba52aaead,2022-07-06_02h27.10.832,Colour_Asymmetry_Pilot,2022.1.3,Win32,59.95563283,62c50e9c1127f2cd403a315f,0,96,96,156,1,threeone,,,,,,,,,,,,,,,,,,,,,,,,,,,,,,,,,,,,,,,,,,,,,,,,,,,,,,,,,,,,,,,,,,,,,,,,,,,,,,,,,,,,,,,,,,,,,,,,,,,,,,,,,,,,,,,,,,,,,,,,,,,,,,,,,,,,,,,,,,,,,,,,,,,,,,,,,,,,,
,,,,,,614a1b73d2eab38adf5bdd7e,62c5388ba8f50aeba52aaead,2022-07-06_02h27.10.832,Colour_Asymmetry_Pilot,2022.1.3,Win32,59.95563283,62c50e9c1127f2cd403a315f,0,97,97,4,1,threeone,,,,,,,,,,,,,,,,,,,,,,,,,,,,,,,,,,,,,,,,,,,,,,,,,,,,,,,,,,,,,,,,,,,,,,,,,,,,,,,,,,,,,,,,,,,,,,,,,,,,,,,,,,,,,,,,,,,,,,,,,,,,,,,,,,,,,,,,,,,,,,,,,,,,,,,,,,,,,
,,,,,,614a1b73d2eab38adf5bdd7e,62c5388ba8f50aeba52aaead,2022-07-06_02h27.10.832,Colour_Asymmetry_Pilot,2022.1.3,Win32,59.95563283,62c50e9c1127f2cd403a315f,0,98,98,87,1,fourthree,,,,,,,,,,,,,,,,,,,,,,,,,,,,,,,,,,,,,,,,,,,,,,,,,,,,,,,,,,,,,,,,,,,,,,,,,,,,,,,,,,,,,,,,,,,,,,,,,,,,,,,,,,,,,,,,,,,,,,,,,,,,,,,,,,,,,,,,,,,,,,,,,,,,,,,,,,,,,
,,,,,,614a1b73d2eab38adf5bdd7e,62c5388ba8f50aeba52aaead,2022-07-06_02h27.10.832,Colour_Asymmetry_Pilot,2022.1.3,Win32,59.95563283,62c50e9c1127f2cd403a315f,0,99,99,76,1,threeone,,,,,,,,,,,,,,,,,,,,,,,,,,,,,,,,,,,,,,,,,,,,,,,,,,,,,,,,,,,,,,,,,,,,,,,,,,,,,,,,,,,,,,,,,,,,,,,,,,,,,,,,,,,,,,,,,,,,,,,,,,,,,,,,,,,,,,,,,,,,,,,,,,,,,,,,,,,,,
,,,,,,614a1b73d2eab38adf5bdd7e,62c5388ba8f50aeba52aaead,2022-07-06_02h27.10.832,Colour_Asymmetry_Pilot,2022.1.3,Win32,59.95563283,62c50e9c1127f2cd403a315f,0,100,100,139,1,twofour,,,,,,,,,,,,,,,,,,,,,,,,,,,,,,,,,,,,,,,,,,,,,,,,,,,,,,,,,,,,,,,,,,,,,,,,,,,,,,,,,,,,,,,,,,,,,,,,,,,,,,,,,,,,,,,,,,,,,,,,,,,,,,,,,,,,,,,,,,,,,,,,,,,,,,,,,,,,,
,,,,,,614a1b73d2eab38adf5bdd7e,62c5388ba8f50aeba52aaead,2022-07-06_02h27.10.832,Colour_Asymmetry_Pilot,2022.1.3,Win32,59.95563283,62c50e9c1127f2cd403a315f,0,101,101,93,1,threefour,,,,,,,,,,,,,,,,,,,,,,,,,,,,,,,,,,,,,,,,,,,,,,,,,,,,,,,,,,,,,,,,,,,,,,,,,,,,,,,,,,,,,,,,,,,,,,,,,,,,,,,,,,,,,,,,,,,,,,,,,,,,,,,,,,,,,,,,,,,,,,,,,,,,,,,,,,,,,
,,,,,,614a1b73d2eab38adf5bdd7e,62c5388ba8f50aeba52aaead,2022-07-06_02h27.10.832,Colour_Asymmetry_Pilot,2022.1.3,Win32,59.95563283,62c50e9c1127f2cd403a315f,0,102,102,88,1,onetwo,,,,,,,,,,,,,,,,,,,,,,,,,,,,,,,,,,,,,,,,,,,,,,,,,,,,,,,,,,,,,,,,,,,,,,,,,,,,,,,,,,,,,,,,,,,,,,,,,,,,,,,,,,,,,,,,,,,,,,,,,,,,,,,,,,,,,,,,,,,,,,,,,,,,,,,,,,,,,
,,,,,,614a1b73d2eab38adf5bdd7e,62c5388ba8f50aeba52aaead,2022-07-06_02h27.10.832,Colour_Asymmetry_Pilot,2022.1.3,Win32,59.95563283,62c50e9c1127f2cd403a315f,0,103,103,103,1,fourthree,,,,,,,,,,,,,,,,,,,,,,,,,,,,,,,,,,,,,,,,,,,,,,,,,,,,,,,,,,,,,,,,,,,,,,,,,,,,,,,,,,,,,,,,,,,,,,,,,,,,,,,,,,,,,,,,,,,,,,,,,,,,,,,,,,,,,,,,,,,,,,,,,,,,,,,,,,,,,
,,,,,,614a1b73d2eab38adf5bdd7e,62c5388ba8f50aeba52aaead,2022-07-06_02h27.10.832,Colour_Asymmetry_Pilot,2022.1.3,Win32,59.95563283,62c50e9c1127f2cd403a315f,0,104,104,45,1,threefour,,,,,,,,,,,,,,,,,,,,,,,,,,,,,,,,,,,,,,,,,,,,,,,,,,,,,,,,,,,,,,,,,,,,,,,,,,,,,,,,,,,,,,,,,,,,,,,,,,,,,,,,,,,,,,,,,,,,,,,,,,,,,,,,,,,,,,,,,,,,,,,,,,,,,,,,,,,,,
,,,,,,614a1b73d2eab38adf5bdd7e,62c5388ba8f50aeba52aaead,2022-07-06_02h27.10.832,Colour_Asymmetry_Pilot,2022.1.3,Win32,59.95563283,62c50e9c1127f2cd403a315f,0,105,105,111,1,fourthree,,,,,,,,,,,,,,,,,,,,,,,,,,,,,,,,,,,,,,,,,,,,,,,,,,,,,,,,,,,,,,,,,,,,,,,,,,,,,,,,,,,,,,,,,,,,,,,,,,,,,,,,,,,,,,,,,,,,,,,,,,,,,,,,,,,,,,,,,,,,,,,,,,,,,,,,,,,,,
,,,,,,614a1b73d2eab38adf5bdd7e,62c5388ba8f50aeba52aaead,2022-07-06_02h27.10.832,Colour_Asymmetry_Pilot,2022.1.3,Win32,59.95563283,62c50e9c1127f2cd403a315f,0,106,106,155,1,twofour,,,,,,,,,,,,,,,,,,,,,,,,,,,,,,,,,,,,,,,,,,,,,,,,,,,,,,,,,,,,,,,,,,,,,,,,,,,,,,,,,,,,,,,,,,,,,,,,,,,,,,,,,,,,,,,,,,,,,,,,,,,,,,,,,,,,,,,,,,,,,,,,,,,,,,,,,,,,,
,,,,,,614a1b73d2eab38adf5bdd7e,62c5388ba8f50aeba52aaead,2022-07-06_02h27.10.832,Colour_Asymmetry_Pilot,2022.1.3,Win32,59.95563283,62c50e9c1127f2cd403a315f,0,107,107,35,1,twofour,,,,,,,,,,,,,,,,,,,,,,,,,,,,,,,,,,,,,,,,,,,,,,,,,,,,,,,,,,,,,,,,,,,,,,,,,,,,,,,,,,,,,,,,,,,,,,,,,,,,,,,,,,,,,,,,,,,,,,,,,,,,,,,,,,,,,,,,,,,,,,,,,,,,,,,,,,,,,
,,,,,,614a1b73d2eab38adf5bdd7e,62c5388ba8f50aeba52aaead,2022-07-06_02h27.10.832,Colour_Asymmetry_Pilot,2022.1.3,Win32,59.95563283,62c50e9c1127f2cd403a315f,0,108,108,83,1,twofour,,,,,,,,,,,,,,,,,,,,,,,,,,,,,,,,,,,,,,,,,,,,,,,,,,,,,,,,,,,,,,,,,,,,,,,,,,,,,,,,,,,,,,,,,,,,,,,,,,,,,,,,,,,,,,,,,,,,,,,,,,,,,,,,,,,,,,,,,,,,,,,,,,,,,,,,,,,,,
,,,,,,614a1b73d2eab38adf5bdd7e,62c5388ba8f50aeba52aaead,2022-07-06_02h27.10.832,Colour_Asymmetry_Pilot,2022.1.3,Win32,59.95563283,62c50e9c1127f2cd403a315f,0,109,109,22,1,fourtwo,,,,,,,,,,,,,,,,,,,,,,,,,,,,,,,,,,,,,,,,,,,,,,,,,,,,,,,,,,,,,,,,,,,,,,,,,,,,,,,,,,,,,,,,,,,,,,,,,,,,,,,,,,,,,,,,,,,,,,,,,,,,,,,,,,,,,,,,,,,,,,,,,,,,,,,,,,,,,
,,,,,,614a1b73d2eab38adf5bdd7e,62c5388ba8f50aeba52aaead,2022-07-06_02h27.10.832,Colour_Asymmetry_Pilot,2022.1.3,Win32,59.95563283,62c50e9c1127f2cd403a315f,0,110,110,124,1,threeone,,,,,,,,,,,,,,,,,,,,,,,,,,,,,,,,,,,,,,,,,,,,,,,,,,,,,,,,,,,,,,,,,,,,,,,,,,,,,,,,,,,,,,,,,,,,,,,,,,,,,,,,,,,,,,,,,,,,,,,,,,,,,,,,,,,,,,,,,,,,,,,,,,,,,,,,,,,,,
,,,,,,614a1b73d2eab38adf5bdd7e,62c5388ba8f50aeba52aaead,2022-07-06_02h27.10.832,Colour_Asymmetry_Pilot,2022.1.3,Win32,59.95563283,62c50e9c1127f2cd403a315f,0,111,111,112,1,onetwo,,,,,,,,,,,,,,,,,,,,,,,,,,,,,,,,,,,,,,,,,,,,,,,,,,,,,,,,,,,,,,,,,,,,,,,,,,,,,,,,,,,,,,,,,,,,,,,,,,,,,,,,,,,,,,,,,,,,,,,,,,,,,,,,,,,,,,,,,,,,,,,,,,,,,,,,,,,,,
,,,,,,614a1b73d2eab38adf5bdd7e,62c5388ba8f50aeba52aaead,2022-07-06_02h27.10.832,Colour_Asymmetry_Pilot,2022.1.3,Win32,59.95563283,62c50e9c1127f2cd403a315f,0,112,112,58,1,twoone,,,,,,,,,,,,,,,,,,,,,,,,,,,,,,,,,,,,,,,,,,,,,,,,,,,,,,,,,,,,,,,,,,,,,,,,,,,,,,,,,,,,,,,,,,,,,,,,,,,,,,,,,,,,,,,,,,,,,,,,,,,,,,,,,,,,,,,,,,,,,,,,,,,,,,,,,,,,,
,,,,,,614a1b73d2eab38adf5bdd7e,62c5388ba8f50aeba52aaead,2022-07-06_02h27.10.832,Colour_Asymmetry_Pilot,2022.1.3,Win32,59.95563283,62c50e9c1127f2cd403a315f,0,113,113,68,1,threeone,,,,,,,,,,,,,,,,,,,,,,,,,,,,,,,,,,,,,,,,,,,,,,,,,,,,,,,,,,,,,,,,,,,,,,,,,,,,,,,,,,,,,,,,,,,,,,,,,,,,,,,,,,,,,,,,,,,,,,,,,,,,,,,,,,,,,,,,,,,,,,,,,,,,,,,,,,,,,
,,,,,,614a1b73d2eab38adf5bdd7e,62c5388ba8f50aeba52aaead,2022-07-06_02h27.10.832,Colour_Asymmetry_Pilot,2022.1.3,Win32,59.95563283,62c50e9c1127f2cd403a315f,0,114,114,138,1,twoone,,,,,,,,,,,,,,,,,,,,,,,,,,,,,,,,,,,,,,,,,,,,,,,,,,,,,,,,,,,,,,,,,,,,,,,,,,,,,,,,,,,,,,,,,,,,,,,,,,,,,,,,,,,,,,,,,,,,,,,,,,,,,,,,,,,,,,,,,,,,,,,,,,,,,,,,,,,,,
,,,,,,614a1b73d2eab38adf5bdd7e,62c5388ba8f50aeba52aaead,2022-07-06_02h27.10.832,Colour_Asymmetry_Pilot,2022.1.3,Win32,59.95563283,62c50e9c1127f2cd403a315f,0,115,115,23,1,fourthree,,,,,,,,,,,,,,,,,,,,,,,,,,,,,,,,,,,,,,,,,,,,,,,,,,,,,,,,,,,,,,,,,,,,,,,,,,,,,,,,,,,,,,,,,,,,,,,,,,,,,,,,,,,,,,,,,,,,,,,,,,,,,,,,,,,,,,,,,,,,,,,,,,,,,,,,,,,,,
,,,,,,614a1b73d2eab38adf5bdd7e,62c5388ba8f50aeba52aaead,2022-07-06_02h27.10.832,Colour_Asymmetry_Pilot,2022.1.3,Win32,59.95563283,62c50e9c1127f2cd403a315f,0,116,116,18,1,twoone,,,,,,,,,,,,,,,,,,,,,,,,,,,,,,,,,,,,,,,,,,,,,,,,,,,,,,,,,,,,,,,,,,,,,,,,,,,,,,,,,,,,,,,,,,,,,,,,,,,,,,,,,,,,,,,,,,,,,,,,,,,,,,,,,,,,,,,,,,,,,,,,,,,,,,,,,,,,,
,,,,,,614a1b73d2eab38adf5bdd7e,62c5388ba8f50aeba52aaead,2022-07-06_02h27.10.832,Colour_Asymmetry_Pilot,2022.1.3,Win32,59.95563283,62c50e9c1127f2cd403a315f,0,117,117,143,1,fourthree,,,,,,,,,,,,,,,,,,,,,,,,,,,,,,,,,,,,,,,,,,,,,,,,,,,,,,,,,,,,,,,,,,,,,,,,,,,,,,,,,,,,,,,,,,,,,,,,,,,,,,,,,,,,,,,,,,,,,,,,,,,,,,,,,,,,,,,,,,,,,,,,,,,,,,,,,,,,,
,,,,,,614a1b73d2eab38adf5bdd7e,62c5388ba8f50aeba52aaead,2022-07-06_02h27.10.832,Colour_Asymmetry_Pilot,2022.1.3,Win32,59.95563283,62c50e9c1127f2cd403a315f,0,118,118,128,1,onetwo,,,,,,,,,,,,,,,,,,,,,,,,,,,,,,,,,,,,,,,,,,,,,,,,,,,,,,,,,,,,,,,,,,,,,,,,,,,,,,,,,,,,,,,,,,,,,,,,,,,,,,,,,,,,,,,,,,,,,,,,,,,,,,,,,,,,,,,,,,,,,,,,,,,,,,,,,,,,,
,,,,,,614a1b73d2eab38adf5bdd7e,62c5388ba8f50aeba52aaead,2022-07-06_02h27.10.832,Colour_Asymmetry_Pilot,2022.1.3,Win32,59.95563283,62c50e9c1127f2cd403a315f,0,119,119,70,1,fourtwo,,,,,,,,,,,,,,,,,,,,,,,,,,,,,,,,,,,,,,,,,,,,,,,,,,,,,,,,,,,,,,,,,,,,,,,,,,,,,,,,,,,,,,,,,,,,,,,,,,,,,,,,,,,,,,,,,,,,,,,,,,,,,,,,,,,,,,,,,,,,,,,,,,,,,,,,,,,,,
,,,,,,614a1b73d2eab38adf5bdd7e,62c5388ba8f50aeba52aaead,2022-07-06_02h27.10.832,Colour_Asymmetry_Pilot,2022.1.3,Win32,59.95563283,62c50e9c1127f2cd403a315f,0,120,120,46,1,fourtwo,,,,,,,,,,,,,,,,,,,,,,,,,,,,,,,,,,,,,,,,,,,,,,,,,,,,,,,,,,,,,,,,,,,,,,,,,,,,,,,,,,,,,,,,,,,,,,,,,,,,,,,,,,,,,,,,,,,,,,,,,,,,,,,,,,,,,,,,,,,,,,,,,,,,,,,,,,,,,
,,,,,,614a1b73d2eab38adf5bdd7e,62c5388ba8f50aeba52aaead,2022-07-06_02h27.10.832,Colour_Asymmetry_Pilot,2022.1.3,Win32,59.95563283,62c50e9c1127f2cd403a315f,0,121,121,30,1,fourtwo,,,,,,,,,,,,,,,,,,,,,,,,,,,,,,,,,,,,,,,,,,,,,,,,,,,,,,,,,,,,,,,,,,,,,,,,,,,,,,,,,,,,,,,,,,,,,,,,,,,,,,,,,,,,,,,,,,,,,,,,,,,,,,,,,,,,,,,,,,,,,,,,,,,,,,,,,,,,,
,,,,,,614a1b73d2eab38adf5bdd7e,62c5388ba8f50aeba52aaead,2022-07-06_02h27.10.832,Colour_Asymmetry_Pilot,2022.1.3,Win32,59.95563283,62c50e9c1127f2cd403a315f,0,122,122,133,1,threefour,,,,,,,,,,,,,,,,,,,,,,,,,,,,,,,,,,,,,,,,,,,,,,,,,,,,,,,,,,,,,,,,,,,,,,,,,,,,,,,,,,,,,,,,,,,,,,,,,,,,,,,,,,,,,,,,,,,,,,,,,,,,,,,,,,,,,,,,,,,,,,,,,,,,,,,,,,,,,
,,,,,,614a1b73d2eab38adf5bdd7e,62c5388ba8f50aeba52aaead,2022-07-06_02h27.10.832,Colour_Asymmetry_Pilot,2022.1.3,Win32,59.95563283,62c50e9c1127f2cd403a315f,0,123,123,74,1,twoone,,,,,,,,,,,,,,,,,,,,,,,,,,,,,,,,,,,,,,,,,,,,,,,,,,,,,,,,,,,,,,,,,,,,,,,,,,,,,,,,,,,,,,,,,,,,,,,,,,,,,,,,,,,,,,,,,,,,,,,,,,,,,,,,,,,,,,,,,,,,,,,,,,,,,,,,,,,,,
,,,,,,614a1b73d2eab38adf5bdd7e,62c5388ba8f50aeba52aaead,2022-07-06_02h27.10.832,Colour_Asymmetry_Pilot,2022.1.3,Win32,59.95563283,62c50e9c1127f2cd403a315f,0,124,124,123,1,twofour,,,,,,,,,,,,,,,,,,,,,,,,,,,,,,,,,,,,,,,,,,,,,,,,,,,,,,,,,,,,,,,,,,,,,,,,,,,,,,,,,,,,,,,,,,,,,,,,,,,,,,,,,,,,,,,,,,,,,,,,,,,,,,,,,,,,,,,,,,,,,,,,,,,,,,,,,,,,,
,,,,,,614a1b73d2eab38adf5bdd7e,62c5388ba8f50aeba52aaead,2022-07-06_02h27.10.832,Colour_Asymmetry_Pilot,2022.1.3,Win32,59.95563283,62c50e9c1127f2cd403a315f,0,125,125,153,1,onethree,,,,,,,,,,,,,,,,,,,,,,,,,,,,,,,,,,,,,,,,,,,,,,,,,,,,,,,,,,,,,,,,,,,,,,,,,,,,,,,,,,,,,,,,,,,,,,,,,,,,,,,,,,,,,,,,,,,,,,,,,,,,,,,,,,,,,,,,,,,,,,,,,,,,,,,,,,,,,
,,,,,,614a1b73d2eab38adf5bdd7e,62c5388ba8f50aeba52aaead,2022-07-06_02h27.10.832,Colour_Asymmetry_Pilot,2022.1.3,Win32,59.95563283,62c50e9c1127f2cd403a315f,0,126,126,55,1,fourthree,,,,,,,,,,,,,,,,,,,,,,,,,,,,,,,,,,,,,,,,,,,,,,,,,,,,,,,,,,,,,,,,,,,,,,,,,,,,,,,,,,,,,,,,,,,,,,,,,,,,,,,,,,,,,,,,,,,,,,,,,,,,,,,,,,,,,,,,,,,,,,,,,,,,,,,,,,,,,
,,,,,,614a1b73d2eab38adf5bdd7e,62c5388ba8f50aeba52aaead,2022-07-06_02h27.10.832,Colour_Asymmetry_Pilot,2022.1.3,Win32,59.95563283,62c50e9c1127f2cd403a315f,0,127,127,115,1,twofour,,,,,,,,,,,,,,,,,,,,,,,,,,,,,,,,,,,,,,,,,,,,,,,,,,,,,,,,,,,,,,,,,,,,,,,,,,,,,,,,,,,,,,,,,,,,,,,,,,,,,,,,,,,,,,,,,,,,,,,,,,,,,,,,,,,,,,,,,,,,,,,,,,,,,,,,,,,,,
,,,,,,614a1b73d2eab38adf5bdd7e,62c5388ba8f50aeba52aaead,2022-07-06_02h27.10.832,Colour_Asymmetry_Pilot,2022.1.3,Win32,59.95563283,62c50e9c1127f2cd403a315f,0,128,128,60,1,threeone,,,,,,,,,,,,,,,,,,,,,,,,,,,,,,,,,,,,,,,,,,,,,,,,,,,,,,,,,,,,,,,,,,,,,,,,,,,,,,,,,,,,,,,,,,,,,,,,,,,,,,,,,,,,,,,,,,,,,,,,,,,,,,,,,,,,,,,,,,,,,,,,,,,,,,,,,,,,,
,,,,,,614a1b73d2eab38adf5bdd7e,62c5388ba8f50aeba52aaead,2022-07-06_02h27.10.832,Colour_Asymmetry_Pilot,2022.1.3,Win32,59.95563283,62c50e9c1127f2cd403a315f,0,129,129,150,1,fourtwo,,,,,,,,,,,,,,,,,,,,,,,,,,,,,,,,,,,,,,,,,,,,,,,,,,,,,,,,,,,,,,,,,,,,,,,,,,,,,,,,,,,,,,,,,,,,,,,,,,,,,,,,,,,,,,,,,,,,,,,,,,,,,,,,,,,,,,,,,,,,,,,,,,,,,,,,,,,,,
,,,,,,614a1b73d2eab38adf5bdd7e,62c5388ba8f50aeba52aaead,2022-07-06_02h27.10.832,Colour_Asymmetry_Pilot,2022.1.3,Win32,59.95563283,62c50e9c1127f2cd403a315f,0,130,130,9,1,onethree,,,,,,,,,,,,,,,,,,,,,,,,,,,,,,,,,,,,,,,,,,,,,,,,,,,,,,,,,,,,,,,,,,,,,,,,,,,,,,,,,,,,,,,,,,,,,,,,,,,,,,,,,,,,,,,,,,,,,,,,,,,,,,,,,,,,,,,,,,,,,,,,,,,,,,,,,,,,,
,,,,,,614a1b73d2eab38adf5bdd7e,62c5388ba8f50aeba52aaead,2022-07-06_02h27.10.832,Colour_Asymmetry_Pilot,2022.1.3,Win32,59.95563283,62c50e9c1127f2cd403a315f,0,131,131,100,1,threeone,,,,,,,,,,,,,,,,,,,,,,,,,,,,,,,,,,,,,,,,,,,,,,,,,,,,,,,,,,,,,,,,,,,,,,,,,,,,,,,,,,,,,,,,,,,,,,,,,,,,,,,,,,,,,,,,,,,,,,,,,,,,,,,,,,,,,,,,,,,,,,,,,,,,,,,,,,,,,
,,,,,,614a1b73d2eab38adf5bdd7e,62c5388ba8f50aeba52aaead,2022-07-06_02h27.10.832,Colour_Asymmetry_Pilot,2022.1.3,Win32,59.95563283,62c50e9c1127f2cd403a315f,0,132,132,99,1,twofour,,,,,,,,,,,,,,,,,,,,,,,,,,,,,,,,,,,,,,,,,,,,,,,,,,,,,,,,,,,,,,,,,,,,,,,,,,,,,,,,,,,,,,,,,,,,,,,,,,,,,,,,,,,,,,,,,,,,,,,,,,,,,,,,,,,,,,,,,,,,,,,,,,,,,,,,,,,,,
,,,,,,614a1b73d2eab38adf5bdd7e,62c5388ba8f50aeba52aaead,2022-07-06_02h27.10.832,Colour_Asymmetry_Pilot,2022.1.3,Win32,59.95563283,62c50e9c1127f2cd403a315f,0,133,133,96,1,onetwo,,,,,,,,,,,,,,,,,,,,,,,,,,,,,,,,,,,,,,,,,,,,,,,,,,,,,,,,,,,,,,,,,,,,,,,,,,,,,,,,,,,,,,,,,,,,,,,,,,,,,,,,,,,,,,,,,,,,,,,,,,,,,,,,,,,,,,,,,,,,,,,,,,,,,,,,,,,,,
,,,,,,614a1b73d2eab38adf5bdd7e,62c5388ba8f50aeba52aaead,2022-07-06_02h27.10.832,Colour_Asymmetry_Pilot,2022.1.3,Win32,59.95563283,62c50e9c1127f2cd403a315f,0,134,134,147,1,twofour,,,,,,,,,,,,,,,,,,,,,,,,,,,,,,,,,,,,,,,,,,,,,,,,,,,,,,,,,,,,,,,,,,,,,,,,,,,,,,,,,,,,,,,,,,,,,,,,,,,,,,,,,,,,,,,,,,,,,,,,,,,,,,,,,,,,,,,,,,,,,,,,,,,,,,,,,,,,,
,,,,,,614a1b73d2eab38adf5bdd7e,62c5388ba8f50aeba52aaead,2022-07-06_02h27.10.832,Colour_Asymmetry_Pilot,2022.1.3,Win32,59.95563283,62c50e9c1127f2cd403a315f,0,135,135,50,1,twoone,,,,,,,,,,,,,,,,,,,,,,,,,,,,,,,,,,,,,,,,,,,,,,,,,,,,,,,,,,,,,,,,,,,,,,,,,,,,,,,,,,,,,,,,,,,,,,,,,,,,,,,,,,,,,,,,,,,,,,,,,,,,,,,,,,,,,,,,,,,,,,,,,,,,,,,,,,,,,
,,,,,,614a1b73d2eab38adf5bdd7e,62c5388ba8f50aeba52aaead,2022-07-06_02h27.10.832,Colour_Asymmetry_Pilot,2022.1.3,Win32,59.95563283,62c50e9c1127f2cd403a315f,0,136,136,94,1,fourtwo,,,,,,,,,,,,,,,,,,,,,,,,,,,,,,,,,,,,,,,,,,,,,,,,,,,,,,,,,,,,,,,,,,,,,,,,,,,,,,,,,,,,,,,,,,,,,,,,,,,,,,,,,,,,,,,,,,,,,,,,,,,,,,,,,,,,,,,,,,,,,,,,,,,,,,,,,,,,,
,,,,,,614a1b73d2eab38adf5bdd7e,62c5388ba8f50aeba52aaead,2022-07-06_02h27.10.832,Colour_Asymmetry_Pilot,2022.1.3,Win32,59.95563283,62c50e9c1127f2cd403a315f,0,137,137,141,1,threefour,,,,,,,,,,,,,,,,,,,,,,,,,,,,,,,,,,,,,,,,,,,,,,,,,,,,,,,,,,,,,,,,,,,,,,,,,,,,,,,,,,,,,,,,,,,,,,,,,,,,,,,,,,,,,,,,,,,,,,,,,,,,,,,,,,,,,,,,,,,,,,,,,,,,,,,,,,,,,
,,,,,,614a1b73d2eab38adf5bdd7e,62c5388ba8f50aeba52aaead,2022-07-06_02h27.10.832,Colour_Asymmetry_Pilot,2022.1.3,Win32,59.95563283,62c50e9c1127f2cd403a315f,0,138,138,42,1,twoone,,,,,,,,,,,,,,,,,,,,,,,,,,,,,,,,,,,,,,,,,,,,,,,,,,,,,,,,,,,,,,,,,,,,,,,,,,,,,,,,,,,,,,,,,,,,,,,,,,,,,,,,,,,,,,,,,,,,,,,,,,,,,,,,,,,,,,,,,,,,,,,,,,,,,,,,,,,,,
,,,,,,614a1b73d2eab38adf5bdd7e,62c5388ba8f50aeba52aaead,2022-07-06_02h27.10.832,Colour_Asymmetry_Pilot,2022.1.3,Win32,59.95563283,62c50e9c1127f2cd403a315f,0,139,139,77,1,threefour,,,,,,,,,,,,,,,,,,,,,,,,,,,,,,,,,,,,,,,,,,,,,,,,,,,,,,,,,,,,,,,,,,,,,,,,,,,,,,,,,,,,,,,,,,,,,,,,,,,,,,,,,,,,,,,,,,,,,,,,,,,,,,,,,,,,,,,,,,,,,,,,,,,,,,,,,,,,,
,,,,,,614a1b73d2eab38adf5bdd7e,62c5388ba8f50aeba52aaead,2022-07-06_02h27.10.832,Colour_Asymmetry_Pilot,2022.1.3,Win32,59.95563283,62c50e9c1127f2cd403a315f,0,140,140,105,1,onethree,,,,,,,,,,,,,,,,,,,,,,,,,,,,,,,,,,,,,,,,,,,,,,,,,,,,,,,,,,,,,,,,,,,,,,,,,,,,,,,,,,,,,,,,,,,,,,,,,,,,,,,,,,,,,,,,,,,,,,,,,,,,,,,,,,,,,,,,,,,,,,,,,,,,,,,,,,,,,
,,,,,,614a1b73d2eab38adf5bdd7e,62c5388ba8f50aeba52aaead,2022-07-06_02h27.10.832,Colour_Asymmetry_Pilot,2022.1.3,Win32,59.95563283,62c50e9c1127f2cd403a315f,0,141,141,132,1,threeone,,,,,,,,,,,,,,,,,,,,,,,,,,,,,,,,,,,,,,,,,,,,,,,,,,,,,,,,,,,,,,,,,,,,,,,,,,,,,,,,,,,,,,,,,,,,,,,,,,,,,,,,,,,,,,,,,,,,,,,,,,,,,,,,,,,,,,,,,,,,,,,,,,,,,,,,,,,,,
,,,,,,614a1b73d2eab38adf5bdd7e,62c5388ba8f50aeba52aaead,2022-07-06_02h27.10.832,Colour_Asymmetry_Pilot,2022.1.3,Win32,59.95563283,62c50e9c1127f2cd403a315f,0,142,142,28,1,threeone,,,,,,,,,,,,,,,,,,,,,,,,,,,,,,,,,,,,,,,,,,,,,,,,,,,,,,,,,,,,,,,,,,,,,,,,,,,,,,,,,,,,,,,,,,,,,,,,,,,,,,,,,,,,,,,,,,,,,,,,,,,,,,,,,,,,,,,,,,,,,,,,,,,,,,,,,,,,,
,,,,,,614a1b73d2eab38adf5bdd7e,62c5388ba8f50aeba52aaead,2022-07-06_02h27.10.832,Colour_Asymmetry_Pilot,2022.1.3,Win32,59.95563283,62c50e9c1127f2cd403a315f,0,143,143,101,1,threefour,,,,,,,,,,,,,,,,,,,,,,,,,,,,,,,,,,,,,,,,,,,,,,,,,,,,,,,,,,,,,,,,,,,,,,,,,,,,,,,,,,,,,,,,,,,,,,,,,,,,,,,,,,,,,,,,,,,,,,,,,,,,,,,,,,,,,,,,,,,,,,,,,,,,,,,,,,,,,
,,,,,,614a1b73d2eab38adf5bdd7e,62c5388ba8f50aeba52aaead,2022-07-06_02h27.10.832,Colour_Asymmetry_Pilot,2022.1.3,Win32,59.95563283,62c50e9c1127f2cd403a315f,0,144,144,79,1,fourthree,,,,,,,,,,,,,,,,,,,,,,,,,,,,,,,,,,,,,,,,,,,,,,,,,,,,,,,,,,,,,,,,,,,,,,,,,,,,,,,,,,,,,,,,,,,,,,,,,,,,,,,,,,,,,,,,,,,,,,,,,,,,,,,,,,,,,,,,,,,,,,,,,,,,,,,,,,,,,
,,,,,,614a1b73d2eab38adf5bdd7e,62c5388ba8f50aeba52aaead,2022-07-06_02h27.10.832,Colour_Asymmetry_Pilot,2022.1.3,Win32,59.95563283,62c50e9c1127f2cd403a315f,0,145,145,127,1,fourthree,,,,,,,,,,,,,,,,,,,,,,,,,,,,,,,,,,,,,,,,,,,,,,,,,,,,,,,,,,,,,,,,,,,,,,,,,,,,,,,,,,,,,,,,,,,,,,,,,,,,,,,,,,,,,,,,,,,,,,,,,,,,,,,,,,,,,,,,,,,,,,,,,,,,,,,,,,,,,
,,,,,,614a1b73d2eab38adf5bdd7e,62c5388ba8f50aeba52aaead,2022-07-06_02h27.10.832,Colour_Asymmetry_Pilot,2022.1.3,Win32,59.95563283,62c50e9c1127f2cd403a315f,0,146,146,125,1,threefour,,,,,,,,,,,,,,,,,,,,,,,,,,,,,,,,,,,,,,,,,,,,,,,,,,,,,,,,,,,,,,,,,,,,,,,,,,,,,,,,,,,,,,,,,,,,,,,,,,,,,,,,,,,,,,,,,,,,,,,,,,,,,,,,,,,,,,,,,,,,,,,,,,,,,,,,,,,,,
,,,,,,614a1b73d2eab38adf5bdd7e,62c5388ba8f50aeba52aaead,2022-07-06_02h27.10.832,Colour_Asymmetry_Pilot,2022.1.3,Win32,59.95563283,62c50e9c1127f2cd403a315f,0,147,147,106,1,twoone,,,,,,,,,,,,,,,,,,,,,,,,,,,,,,,,,,,,,,,,,,,,,,,,,,,,,,,,,,,,,,,,,,,,,,,,,,,,,,,,,,,,,,,,,,,,,,,,,,,,,,,,,,,,,,,,,,,,,,,,,,,,,,,,,,,,,,,,,,,,,,,,,,,,,,,,,,,,,
,,,,,,614a1b73d2eab38adf5bdd7e,62c5388ba8f50aeba52aaead,2022-07-06_02h27.10.832,Colour_Asymmetry_Pilot,2022.1.3,Win32,59.95563283,62c50e9c1127f2cd403a315f,0,148,148,71,1,fourthree,,,,,,,,,,,,,,,,,,,,,,,,,,,,,,,,,,,,,,,,,,,,,,,,,,,,,,,,,,,,,,,,,,,,,,,,,,,,,,,,,,,,,,,,,,,,,,,,,,,,,,,,,,,,,,,,,,,,,,,,,,,,,,,,,,,,,,,,,,,,,,,,,,,,,,,,,,,,,
,,,,,,614a1b73d2eab38adf5bdd7e,62c5388ba8f50aeba52aaead,2022-07-06_02h27.10.832,Colour_Asymmetry_Pilot,2022.1.3,Win32,59.95563283,62c50e9c1127f2cd403a315f,0,149,149,2,1,twoone,,,,,,,,,,,,,,,,,,,,,,,,,,,,,,,,,,,,,,,,,,,,,,,,,,,,,,,,,,,,,,,,,,,,,,,,,,,,,,,,,,,,,,,,,,,,,,,,,,,,,,,,,,,,,,,,,,,,,,,,,,,,,,,,,,,,,,,,,,,,,,,,,,,,,,,,,,,,,
,,,,,,614a1b73d2eab38adf5bdd7e,62c5388ba8f50aeba52aaead,2022-07-06_02h27.10.832,Colour_Asymmetry_Pilot,2022.1.3,Win32,59.95563283,62c50e9c1127f2cd403a315f,0,150,150,25,1,onethree,,,,,,,,,,,,,,,,,,,,,,,,,,,,,,,,,,,,,,,,,,,,,,,,,,,,,,,,,,,,,,,,,,,,,,,,,,,,,,,,,,,,,,,,,,,,,,,,,,,,,,,,,,,,,,,,,,,,,,,,,,,,,,,,,,,,,,,,,,,,,,,,,,,,,,,,,,,,,
,,,,,,614a1b73d2eab38adf5bdd7e,62c5388ba8f50aeba52aaead,2022-07-06_02h27.10.832,Colour_Asymmetry_Pilot,2022.1.3,Win32,59.95563283,62c50e9c1127f2cd403a315f,0,151,151,118,1,fourtwo,,,,,,,,,,,,,,,,,,,,,,,,,,,,,,,,,,,,,,,,,,,,,,,,,,,,,,,,,,,,,,,,,,,,,,,,,,,,,,,,,,,,,,,,,,,,,,,,,,,,,,,,,,,,,,,,,,,,,,,,,,,,,,,,,,,,,,,,,,,,,,,,,,,,,,,,,,,,,
,,,,,,614a1b73d2eab38adf5bdd7e,62c5388ba8f50aeba52aaead,2022-07-06_02h27.10.832,Colour_Asymmetry_Pilot,2022.1.3,Win32,59.95563283,62c50e9c1127f2cd403a315f,0,152,152,85,1,threefour,,,,,,,,,,,,,,,,,,,,,,,,,,,,,,,,,,,,,,,,,,,,,,,,,,,,,,,,,,,,,,,,,,,,,,,,,,,,,,,,,,,,,,,,,,,,,,,,,,,,,,,,,,,,,,,,,,,,,,,,,,,,,,,,,,,,,,,,,,,,,,,,,,,,,,,,,,,,,
,,,,,,614a1b73d2eab38adf5bdd7e,62c5388ba8f50aeba52aaead,2022-07-06_02h27.10.832,Colour_Asymmetry_Pilot,2022.1.3,Win32,59.95563283,62c50e9c1127f2cd403a315f,0,153,153,49,1,onethree,,,,,,,,,,,,,,,,,,,,,,,,,,,,,,,,,,,,,,,,,,,,,,,,,,,,,,,,,,,,,,,,,,,,,,,,,,,,,,,,,,,,,,,,,,,,,,,,,,,,,,,,,,,,,,,,,,,,,,,,,,,,,,,,,,,,,,,,,,,,,,,,,,,,,,,,,,,,,
,,,,,,614a1b73d2eab38adf5bdd7e,62c5388ba8f50aeba52aaead,2022-07-06_02h27.10.832,Colour_Asymmetry_Pilot,2022.1.3,Win32,59.95563283,62c50e9c1127f2cd403a315f,0,154,154,21,1,threefour,,,,,,,,,,,,,,,,,,,,,,,,,,,,,,,,,,,,,,,,,,,,,,,,,,,,,,,,,,,,,,,,,,,,,,,,,,,,,,,,,,,,,,,,,,,,,,,,,,,,,,,,,,,,,,,,,,,,,,,,,,,,,,,,,,,,,,,,,,,,,,,,,,,,,,,,,,,,,
,,,,,,614a1b73d2eab38adf5bdd7e,62c5388ba8f50aeba52aaead,2022-07-06_02h27.10.832,Colour_Asymmetry_Pilot,2022.1.3,Win32,59.95563283,62c50e9c1127f2cd403a315f,0,155,155,29,1,threefour,,,,,,,,,,,,,,,,,,,,,,,,,,,,,,,,,,,,,,,,,,,,,,,,,,,,,,,,,,,,,,,,,,,,,,,,,,,,,,,,,,,,,,,,,,,,,,,,,,,,,,,,,,,,,,,,,,,,,,,,,,,,,,,,,,,,,,,,,,,,,,,,,,,,,,,,,,,,,
,,,,,,614a1b73d2eab38adf5bdd7e,62c5388ba8f50aeba52aaead,2022-07-06_02h27.10.832,Colour_Asymmetry_Pilot,2022.1.3,Win32,59.95563283,62c50e9c1127f2cd403a315f,0,156,156,40,1,onetwo,,,,,,,,,,,,,,,,,,,,,,,,,,,,,,,,,,,,,,,,,,,,,,,,,,,,,,,,,,,,,,,,,,,,,,,,,,,,,,,,,,,,,,,,,,,,,,,,,,,,,,,,,,,,,,,,,,,,,,,,,,,,,,,,,,,,,,,,,,,,,,,,,,,,,,,,,,,,,
,,,,,,614a1b73d2eab38adf5bdd7e,62c5388ba8f50aeba52aaead,2022-07-06_02h27.10.832,Colour_Asymmetry_Pilot,2022.1.3,Win32,59.95563283,62c50e9c1127f2cd403a315f,0,157,157,152,1,onetwo,,,,,,,,,,,,,,,,,,,,,,,,,,,,,,,,,,,,,,,,,,,,,,,,,,,,,,,,,,,,,,,,,,,,,,,,,,,,,,,,,,,,,,,,,,,,,,,,,,,,,,,,,,,,,,,,,,,,,,,,,,,,,,,,,,,,,,,,,,,,,,,,,,,,,,,,,,,,,
,,,,,,614a1b73d2eab38adf5bdd7e,62c5388ba8f50aeba52aaead,2022-07-06_02h27.10.832,Colour_Asymmetry_Pilot,2022.1.3,Win32,59.95563283,62c50e9c1127f2cd403a315f,0,158,158,63,1,fourthree,,,,,,,,,,,,,,,,,,,,,,,,,,,,,,,,,,,,,,,,,,,,,,,,,,,,,,,,,,,,,,,,,,,,,,,,,,,,,,,,,,,,,,,,,,,,,,,,,,,,,,,,,,,,,,,,,,,,,,,,,,,,,,,,,,,,,,,,,,,,,,,,,,,,,,,,,,,,,
,,,,,,614a1b73d2eab38adf5bdd7e,62c5388ba8f50aeba52aaead,2022-07-06_02h27.10.832,Colour_Asymmetry_Pilot,2022.1.3,Win32,59.95563283,62c50e9c1127f2cd403a315f,0,159,159,59,1,twofour,,,,,,,,,,,,,,,,,,,,,,,,,,,,,,,,,,,,,,,,,,,,,,,,,,,,,,,,,,,,,,,,,,,,,,,,,,,,,,,,,,,,,,,,,,,,,,,,,,,,,,,,,,,,,,,,,,,,,,,,,,,,,,,,,,,,,,,,,,,,,,,,,,,,,,,,,,,,,
,,,,,,614a1b73d2eab38adf5bdd7e,62c5388ba8f50aeba52aaead,2022-07-06_02h27.10.832,Colour_Asymmetry_Pilot,2022.1.3,Win32,59.95563283,62c50e9c1127f2cd403a315f,0,160,160,52,1,threeone,,,,,,,,,,,,,,,,,,,,,,,,,,,,,,,,,,,,,,,,,,,,,,,,,,,,,,,,,,,,,,,,,,,,,,,,,,,,,,,,,,,,,,,,,,,,,,,,,,,,,,,,,,,,,,,,,,,,,,,,,,,,,,,,,,,,,,,,,,,,,,,,,,,,,,,,,,,,,
,,,,,,614a1b73d2eab38adf5bdd7e,62c5388ba8f50aeba52aaead,2022-07-06_02h27.10.832,Colour_Asymmetry_Pilot,2022.1.3,Win32,59.95563283,62c50e9c1127f2cd403a315f,0,161,161,11,1,twofour,,,,,,,,,,,,,,,,,,,,,,,,,,,,,,,,,,,,,,,,,,,,,,,,,,,,,,,,,,,,,,,,,,,,,,,,,,,,,,,,,,,,,,,,,,,,,,,,,,,,,,,,,,,,,,,,,,,,,,,,,,,,,,,,,,,,,,,,,,,,,,,,,,,,,,,,,,,,,
,,,,,,614a1b73d2eab38adf5bdd7e,62c5388ba8f50aeba52aaead,2022-07-06_02h27.10.832,Colour_Asymmetry_Pilot,2022.1.3,Win32,59.95563283,62c50e9c1127f2cd403a315f,,,,,,,space,2.2397,space,9.7374,space,46.7669,space,8.3519,space,1.0834,space,3.2228,"[0.4196,0.4665999999999999,0.3568]",threefour,"[-0.10599999999999998,-0.10599999999999998,0.5841999999999998]",2,13.4827,120,-38,1,0,0,response3disk_5,4,-2,1,0,0,rectangle_8,4,-2,1,0,0,4,4,-2,1,0,0,0,0,0,0,1,,,,,,,,,,,,,,,,,,,,,,,,,,,,,,,,,,,,,,,,,,,,,,,,,,,,,,,,,,,,,,,,,,,,,,,,,,,,,,,,,,,,,,,,,,,,,,,,,,,,,,,,,,,,,,,,
,,,,,,614a1b73d2eab38adf5bdd7e,62c5388ba8f50aeba52aaead,2022-07-06_02h27.10.832,Colour_Asymmetry_Pilot,2022.1.3,Win32,59.95563283,62c50e9c1127f2cd403a315f,,,,,,,,,,,,,,,,,,,"[-0.5922000000000001,-0.7492000000000001,-0.5296000000000001]",threeone,"[-0.2942,-0.7648,-0.7492000000000001]",3,3.787,116,48,1,0,0,response1disk_5,-4,-1,1,0,0,rectangle_8,-4,-1,1,0,0,4,-4,-1,1,0,0,1,0,1,0,1,,,,,,,,,,,,,,,,,,,,,,,,,,,,,,,,,,,,,,,,,,,,,,,,,,,,,,,,,,,,,,,,,,,,,,,,,,,,,,,,,,,,,,,,,,,,,,,,,,,,,,,,,,,,,,,,
,,,,,,614a1b73d2eab38adf5bdd7e,62c5388ba8f50aeba52aaead,2022-07-06_02h27.10.832,Colour_Asymmetry_Pilot,2022.1.3,Win32,59.95563283,62c50e9c1127f2cd403a315f,,,,,,,,,,,,,,,,,,,"[0.796,0.2156,-0.27859999999999996]",threeone,"[-0.050999999999999934,-0.6706000000000001,-0.804]",-2,2.4521,-98,-42,1,0,0,response5disk_5,0,1,1,0,0,rectangle_8,0,1,1,0,0,4,0,1,1,0,0,2,0,2,0,1,,,,,,,,,,,,,,,,,,,,,,,,,,,,,,,,,,,,,,,,,,,,,,,,,,,,,,,,,,,,,,,,,,,,,,,,,,,,,,,,,,,,,,,,,,,,,,,,,,,,,,,,,,,,,,,,
,,,,,,614a1b73d2eab38adf5bdd7e,62c5388ba8f50aeba52aaead,2022-07-06_02h27.10.832,Colour_Asymmetry_Pilot,2022.1.3,Win32,59.95563283,62c50e9c1127f2cd403a315f,,,,,,,,,,,,,,,,,,,"[-0.9296,-0.12959999999999994,-0.043199999999999905]",twoone,"[0.30180000000000007,-0.7884,-0.9844]",-4,0.8674,-48,129,1,0,0,response7disk_5,0,-5,1,0,0,rectangle_8,0,-5,1,0,0,4,0,-5,1,0,0,3,0,3,0,1,,,,,,,,,,,,,,,,,,,,,,,,,,,,,,,,,,,,,,,,,,,,,,,,,,,,,,,,,,,,,,,,,,,,,,,,,,,,,,,,,,,,,,,,,,,,,,,,,,,,,,,,,,,,,,,,
,,,,,,614a1b73d2eab38adf5bdd7e,62c5388ba8f50aeba52aaead,2022-07-06_02h27.10.832,Colour_Asymmetry_Pilot,2022.1.3,Win32,59.95563283,62c50e9c1127f2cd403a315f,,,,,,,,,,,,,,,,,,,"[0.8274000000000001,-0.5844,-0.9452]",onetwo,"[0.8115999999999999,-0.0040000000000000036,-0.09819999999999995]",1,1.7184,53,-115,1,0,0,response3disk_5,-6,-5,1,0,0,rectangle_8,62,139,1,0,0,4,7,-5,1,0,0,4,0,4,0,1,response1disk_7,7,rectangle_4,,,,,,,,,,,,,,,,,,,,,,,,,,,,,,,,,,,,,,,,,,,,,,,,,,,,,,,,,,,,,,,,,,,,,,,,,,,,,,,,,,,,,,,,,,,,,,,,,,,,,,,,,,,,,
,,,,,,614a1b73d2eab38adf5bdd7e,62c5388ba8f50aeba52aaead,2022-07-06_02h27.10.832,Colour_Asymmetry_Pilot,2022.1.3,Win32,59.95563283,62c50e9c1127f2cd403a315f,,,,,,,,,,,,,,,,,,,"[-0.5452,-0.608,0.2470000000000001]",onetwo,"[-0.5452,-0.608,0.2470000000000001]",4,0.8669,53,119,1,0,0,response1disk_5,-5,2,1,0,0,rectangle_8,-5,2,1,0,0,4,-5,2,1,0,0,5,0,5,0,1,,,,,,,,,,,,,,,,,,,,,,,,,,,,,,,,,,,,,,,,,,,,,,,,,,,,,,,,,,,,,,,,,,,,,,,,,,,,,,,,,,,,,,,,,,,,,,,,,,,,,,,,,,,,,,,,
,,,,,,614a1b73d2eab38adf5bdd7e,62c5388ba8f50aeba52aaead,2022-07-06_02h27.10.832,Colour_Asymmetry_Pilot,2022.1.3,Win32,59.95563283,62c50e9c1127f2cd403a315f,,,,,,,,,,,,,,,,,,,"[-0.2942,-0.7648,-0.7492000000000001]",onethree,"[-0.30200000000000005,0.14500000000000002,0.2784]",-3,1.1675,-117,61,1,0,0,response7disk_5,-4,-1,1,0,0,rectangle_8,-4,-1,1,0,0,4,-4,-1,1,0,0,6,0,6,0,1,,,,,,,,,,,,,,,,,,,,,,,,,,,,,,,,,,,,,,,,,,,,,,,,,,,,,,,,,,,,,,,,,,,,,,,,,,,,,,,,,,,,,,,,,,,,,,,,,,,,,,,,,,,,,,,,
,,,,,,614a1b73d2eab38adf5bdd7e,62c5388ba8f50aeba52aaead,2022-07-06_02h27.10.832,Colour_Asymmetry_Pilot,2022.1.3,Win32,59.95563283,62c50e9c1127f2cd403a315f,,,,,,,,,,,,,,,,,,,,twoone,,-2,2.2516,,,,,,,,,,,,,,,,,,,,,,,,,,,,,,,,space,2.4461,"[0.6547999999999998,-0.043199999999999905,-0.011800000000000033]","[0.23920000000000008,0.2704,0.16060000000000008]",-128,-64,1,0,0,response5disk,3,-2,1,0,0,rectangle,3,-2,1,0,0,,1,0.0008,0,3,-2,1,0,0,0,0,0,151,1,70,second,,,,,,,,,,,,,,,,,,,,,,,,,,,,,,,,,,,,,,,,,,,,,,,,,,,,,,,,,,,,,,,,,,,,,,,,
,,,,,,614a1b73d2eab38adf5bdd7e,62c5388ba8f50aeba52aaead,2022-07-06_02h27.10.832,Colour_Asymmetry_Pilot,2022.1.3,Win32,59.95563283,62c50e9c1127f2cd403a315f,,,,,,,,,,,,,,,,,,,,onethree,,-1,1.4347,,,,,,,,,,,,,,,,,,,,,,,,,,,,,,,,,,"[0.7176,-0.906,-0.6864]","[-0.10599999999999998,-0.15300000000000002,0.15280000000000005]",-66,-107,1,0,0,response5disk,-2,-6,1,0,0,rectangle,-2,-6,1,0,0,,3,0.0005,0,-2,-6,1,0,0,0,1,1,152,1,71,second,,,,,,,,,,,,,,,,,,,,,,,,,,,,,,,,,,,,,,,,,,,,,,,,,,,,,,,,,,,,,,,,,,,,,,,,
,,,,,,614a1b73d2eab38adf5bdd7e,62c5388ba8f50aeba52aaead,2022-07-06_02h27.10.832,Colour_Asymmetry_Pilot,2022.1.3,Win32,59.95563283,62c50e9c1127f2cd403a315f,,,,,,,,,,,,,,,,,,,,threefour,,-2,1.1171,,,,,,,,,,,,,,,,,,,,,,,,,,,,,,,,,,"[-0.6,0.16860000000000008,0.44300000000000006]","[-0.07459999999999989,0.12139999999999995,-0.9922]",-108,-43,1,0,0,response5disk,4,0,1,0,0,rectangle,137,38,1,0,0,3,3,1.9025,1,-6,4,1,0,0,0,2,2,55,1,55,first,response1disk_3,rectangle,,,,,,,,,,,,,,,,,,,,,,,,,,,,,,,,,,,,,,,,,,,,,,,,,,,,,,,,,,,,,,,,,,,,,,
,,,,,,614a1b73d2eab38adf5bdd7e,62c5388ba8f50aeba52aaead,2022-07-06_02h27.10.832,Colour_Asymmetry_Pilot,2022.1.3,Win32,59.95563283,62c50e9c1127f2cd403a315f,,,,,,,,,,,,,,,,,,,,threeone,,2,0.8676,,,,,,,,,,,,,,,,,,,,,,,,,,,,,,,,,,"[-0.24719999999999998,-0.0354000000000001,0.3175999999999999]","[-0.5688,-0.08239999999999992,-0.1844]",95,-40,1,0,0,response3disk,-7,2,1,0,0,rectangle,-7,2,1,0,0,3,2,0.0004,0,-7,2,1,0,0,0,3,3,48,1,48,first,,,,,,,,,,,,,,,,,,,,,,,,,,,,,,,,,,,,,,,,,,,,,,,,,,,,,,,,,,,,,,,,,,,,,,,,
,,,,,,614a1b73d2eab38adf5bdd7e,62c5388ba8f50aeba52aaead,2022-07-06_02h27.10.832,Colour_Asymmetry_Pilot,2022.1.3,Win32,59.95563283,62c50e9c1127f2cd403a315f,,,,,,,,,,,,,,,,,,,,fourthree,,-1,0.7337,,,,,,,,,,,,,,,,,,,,,,,,,,,,,,,,,,"[-0.24719999999999998,0.5213999999999999,-0.12959999999999994]","[0.9686000000000001,0.5763999999999998,0.11359999999999992]",-42,-86,1,0,0,response5disk,4,8,1,0,0,rectangle,4,8,1,0,0,3,2,0,0,4,8,1,0,0,0,4,4,112,1,31,second,,,,,,,,,,,,,,,,,,,,,,,,,,,,,,,,,,,,,,,,,,,,,,,,,,,,,,,,,,,,,,,,,,,,,,,,
,,,,,,614a1b73d2eab38adf5bdd7e,62c5388ba8f50aeba52aaead,2022-07-06_02h27.10.832,Colour_Asymmetry_Pilot,2022.1.3,Win32,59.95563283,62c50e9c1127f2cd403a315f,,,,,,,,,,,,,,,,,,,,threeone,,2,0.9351,,,,,,,,,,,,,,,,,,,,,,,,,,,,,,,,,,"[-0.5452,-0.608,0.2470000000000001]","[-0.8118,-0.8198,-0.5452]",127,-49,1,0,0,response3disk,-12,-7,1,0,0,rectangle,-12,-7,1,0,0,3,2,0.0006,0,-12,-7,1,0,0,0,5,5,116,1,35,second,,,,,,,,,,,,,,,,,,,,,,,,,,,,,,,,,,,,,,,,,,,,,,,,,,,,,,,,,,,,,,,,,,,,,,,,
,,,,,,614a1b73d2eab38adf5bdd7e,62c5388ba8f50aeba52aaead,2022-07-06_02h27.10.832,Colour_Asymmetry_Pilot,2022.1.3,Win32,59.95563283,62c50e9c1127f2cd403a315f,,,,,,,,,,,,,,,,,,,,onethree,,-3,1.1683,,,,,,,,,,,,,,,,,,,,,,,,,,,,,,,,,,"[0.7646000000000002,0.07440000000000002,0.2704]","[-0.06680000000000008,-0.45100000000000007,-0.906]",-96,45,1,0,0,response7disk,28,-3,1,0,0,rectangle,28,-3,1,0,0,3,3,0.0006,0,28,-3,1,0,0,0,6,6,140,1,59,second,,,,,,,,,,,,,,,,,,,,,,,,,,,,,,,,,,,,,,,,,,,,,,,,,,,,,,,,,,,,,,,,,,,,,,,,
,,,,,,614a1b73d2eab38adf5bdd7e,62c5388ba8f50aeba52aaead,2022-07-06_02h27.10.832,Colour_Asymmetry_Pilot,2022.1.3,Win32,59.95563283,62c50e9c1127f2cd403a315f,,,,,,,,,,,,,,,,,,,,onethree,,1,1.3356,,,,,,,,,,,,,,,,,,,,,,,,,,,,,,,,,,"[0.12939999999999996,-0.2864,0.3253999999999999]","[-0.2942,-0.7648,-0.7492000000000001]",64,-111,1,0,0,response3disk,-17,-1,1,0,0,rectangle,-17,-1,1,0,0,3,1,0.0004,0,-17,-1,1,0,0,0,7,7,87,1,6,second,,,,,,,,,,,,,,,,,,,,,,,,,,,,,,,,,,,,,,,,,,,,,,,,,,,,,,,,,,,,,,,,,,,,,,,,
,,,,,,614a1b73d2eab38adf5bdd7e,62c5388ba8f50aeba52aaead,2022-07-06_02h27.10.832,Colour_Asymmetry_Pilot,2022.1.3,Win32,59.95563283,62c50e9c1127f2cd403a315f,,,,,,,,,,,,,,,,,,,,onetwo,,4,0.501,,,,,,,,,,,,,,,,,,,,,,,,,,,,,,,,,,"[0.3802000000000001,0.19199999999999995,-0.6394]","[0.3802000000000001,0.19199999999999995,-0.6394]",65,131,1,0,0,response1disk,-11,-8,1,0,0,rectangle,-11,-8,1,0,0,3,2,0.0003,0,-11,-8,1,0,0,0,8,8,18,1,18,first,,,,,,,,,,,,,,,,,,,,,,,,,,,,,,,,,,,,,,,,,,,,,,,,,,,,,,,,,,,,,,,,,,,,,,,,
,,,,,,614a1b73d2eab38adf5bdd7e,62c5388ba8f50aeba52aaead,2022-07-06_02h27.10.832,Colour_Asymmetry_Pilot,2022.1.3,Win32,59.95563283,62c50e9c1127f2cd403a315f,,,,,,,,,,,,,,,,,,,,threeone,,-3,1.8181,,,,,,,,,,,,,,,,,,,,,,,,,,,,,,,,,,"[0.9686000000000001,0.3802000000000001,0.19999999999999996]","[0.9213999999999998,0.6391999999999998,-0.9922]",-120,60,1,0,0,response7disk,3,7,1,0,0,rectangle,3,7,1,0,0,3,3,0.0004,0,3,7,1,0,0,0,9,9,5,1,5,first,,,,,,,,,,,,,,,,,,,,,,,,,,,,,,,,,,,,,,,,,,,,,,,,,,,,,,,,,,,,,,,,,,,,,,,,
,,,,,,614a1b73d2eab38adf5bdd7e,62c5388ba8f50aeba52aaead,2022-07-06_02h27.10.832,Colour_Asymmetry_Pilot,2022.1.3,Win32,59.95563283,62c50e9c1127f2cd403a315f,,,,,,,,,,,,,,,,,,,,twoone,,2,0.5841,,,,,,,,,,,,,,,,,,,,,,,,,,,,,,,,,,"[0.7646000000000002,0.07440000000000002,0.2704]","[0.22340000000000004,-0.9296,-0.7884]",117,-55,1,0,0,response3disk,8,8,1,0,0,rectangle,8,8,1,0,0,3,3,0.0001,0,8,8,1,0,0,0,10,10,43,1,43,first,,,,,,,,,,,,,,,,,,,,,,,,,,,,,,,,,,,,,,,,,,,,,,,,,,,,,,,,,,,,,,,,,,,,,,,,
,,,,,,614a1b73d2eab38adf5bdd7e,62c5388ba8f50aeba52aaead,2022-07-06_02h27.10.832,Colour_Asymmetry_Pilot,2022.1.3,Win32,59.95563283,62c50e9c1127f2cd403a315f,,,,,,,,,,,,,,,,,,,,twofour,,-1,0.5505,,,,,,,,,,,,,,,,,,,,,,,,,,,,,,,,,,"[0.2784,-0.31000000000000005,-0.5452]","[-0.9296,-0.12959999999999994,-0.043199999999999905]",-63,-98,1,0,0,response5disk,9,3,1,0,0,rectangle,9,3,1,0,0,3,1,0.0005,0,9,3,1,0,0,0,11,11,72,1,72,first,,,,,,,,,,,,,,,,,,,,,,,,,,,,,,,,,,,,,,,,,,,,,,,,,,,,,,,,,,,,,,,,,,,,,,,,
,,,,,,614a1b73d2eab38adf5bdd7e,62c5388ba8f50aeba52aaead,2022-07-06_02h27.10.832,Colour_Asymmetry_Pilot,2022.1.3,Win32,59.95563283,62c50e9c1127f2cd403a315f,,,,,,,,,,,,,,,,,,,,twofour,,1,0.9499,,,,,,,,,,,,,,,,,,,,,,,,,,,,,,,,,,"[0.7018,0.7802,-0.16079999999999994]","[-0.4276,0.0038000000000000256,-0.3256]",81,-117,1,0,0,response3disk,0,-9,1,0,0,rectangle,0,-9,1,0,0,3,3,0.0003,0,0,-9,1,0,0,0,12,12,158,1,77,second,,,,,,,,,,,,,,,,,,,,,,,,,,,,,,,,,,,,,,,,,,,,,,,,,,,,,,,,,,,,,,,,,,,,,,,,
,,,,,,614a1b73d2eab38adf5bdd7e,62c5388ba8f50aeba52aaead,2022-07-06_02h27.10.832,Colour_Asymmetry_Pilot,2022.1.3,Win32,59.95563283,62c50e9c1127f2cd403a315f,,,,,,,,,,,,,,,,,,,,twoone,,1,0.4506,,,,,,,,,,,,,,,,,,,,,,,,,,,,,,,,,,"[-0.9766,-0.6472,0.07440000000000002]","[0.12939999999999996,-0.2864,0.3253999999999999]",75,-114,1,0,0,response3disk,1,-5,1,0,0,rectangle,1,-5,1,0,0,3,1,0.0004,0,1,-5,1,0,0,0,13,13,12,1,12,first,,,,,,,,,,,,,,,,,,,,,,,,,,,,,,,,,,,,,,,,,,,,,,,,,,,,,,,,,,,,,,,,,,,,,,,,
,,,,,,614a1b73d2eab38adf5bdd7e,62c5388ba8f50aeba52aaead,2022-07-06_02h27.10.832,Colour_Asymmetry_Pilot,2022.1.3,Win32,59.95563283,62c50e9c1127f2cd403a315f,,,,,,,,,,,,,,,,,,,,fourtwo,,-1,0.9358,,,,,,,,,,,,,,,,,,,,,,,,,,,,,,,,,,"[-0.30200000000000005,0.14500000000000002,0.2784]","[0.6625999999999999,0.4980000000000002,-0.357]",-49,-96,1,0,0,response5disk,4,-7,1,0,0,rectangle,4,-7,1,0,0,3,1,0,0,4,-7,1,0,0,0,14,14,29,1,29,first,,,,,,,,,,,,,,,,,,,,,,,,,,,,,,,,,,,,,,,,,,,,,,,,,,,,,,,,,,,,,,,,,,,,,,,,
,,,,,,614a1b73d2eab38adf5bdd7e,62c5388ba8f50aeba52aaead,2022-07-06_02h27.10.832,Colour_Asymmetry_Pilot,2022.1.3,Win32,59.95563283,62c50e9c1127f2cd403a315f,,,,,,,,,,,,,,,,,,,,onethree,,-1,1.4532,,,,,,,,,,,,,,,,,,,,,,,,,,,,,,,,,,"[0.09799999999999986,-0.24719999999999998,0.15280000000000005]","[0.11359999999999992,0.6312,0.5213999999999999]",-53,-129,1,0,0,response5disk,-13,9,1,0,0,rectangle,-13,9,1,0,0,3,3,0.0004,0,-13,9,1,0,0,0,15,15,109,1,28,second,,,,,,,,,,,,,,,,,,,,,,,,,,,,,,,,,,,,,,,,,,,,,,,,,,,,,,,,,,,,,,,,,,,,,,,,
,,,,,,614a1b73d2eab38adf5bdd7e,62c5388ba8f50aeba52aaead,2022-07-06_02h27.10.832,Colour_Asymmetry_Pilot,2022.1.3,Win32,59.95563283,62c50e9c1127f2cd403a315f,,,,,,,,,,,,,,,,,,,,fourtwo,,-1,0.7015,,,,,,,,,,,,,,,,,,,,,,,,,,,,,,,,,,"[0.34099999999999997,0.5841999999999998,-0.9844]","[0.8115999999999999,-0.0040000000000000036,-0.09819999999999995]",-61,-98,1,0,0,response5disk,-6,-2,1,0,0,rectangle,-6,-2,1,0,0,3,2,0.0003,0,-6,-2,1,0,0,0,16,16,39,1,39,first,,,,,,,,,,,,,,,,,,,,,,,,,,,,,,,,,,,,,,,,,,,,,,,,,,,,,,,,,,,,,,,,,,,,,,,,
,,,,,,614a1b73d2eab38adf5bdd7e,62c5388ba8f50aeba52aaead,2022-07-06_02h27.10.832,Colour_Asymmetry_Pilot,2022.1.3,Win32,59.95563283,62c50e9c1127f2cd403a315f,,,,,,,,,,,,,,,,,,,,threefour,,-1,1.5051,,,,,,,,,,,,,,,,,,,,,,,,,,,,,,,,,,"[0.8115999999999999,-0.0040000000000000036,-0.09819999999999995]","[0.34099999999999997,0.5841999999999998,-0.9844]",-56,-102,1,0,0,response5disk,15,7,1,0,0,rectangle,15,7,1,0,0,3,2,1E-04,0,15,7,1,0,0,0,17,17,120,1,39,second,,,,,,,,,,,,,,,,,,,,,,,,,,,,,,,,,,,,,,,,,,,,,,,,,,,,,,,,,,,,,,,,,,,,,,,,
