trials.thisRepN,trials.thisTrialN,trials.thisN,trials.thisIndex,trials.ran,Colourcodes,participant,session,date,expName,psychopyVersion,OS,frameRate,study_id,trials_4.thisRepN,trials_4.thisTrialN,trials_4.thisN,trials_4.thisIndex,trials_4.ran,StimulusPos,key_resp.keys,key_resp.rt,key_resp_2.keys,key_resp_2.rt,key_resp_15.keys,key_resp_15.rt,key_resp_17.keys,key_resp_17.rt,key_resp_9.keys,key_resp_9.rt,key_resp_10.keys,key_resp_10.rt,Circle1_col,Ecc,Circle2_col,similarity,response_time,mouse_5.x,mouse_5.y,mouse_5.leftButton,mouse_5.midButton,mouse_5.rightButton,mouse_5.clicked_name,mouse_10.x,mouse_10.y,mouse_10.leftButton,mouse_10.midButton,mouse_10.rightButton,mouse_10.clicked_name,mouse_7.x,mouse_7.y,mouse_7.leftButton,mouse_7.midButton,mouse_7.rightButton,mouse_7.clicked_name,catchprac,catchnumberprac,mouse_6.x,mouse_6.y,mouse_6.leftButton,mouse_6.midButton,mouse_6.rightButton,mouse_6.clicked_name,duringprac.thisRepN,duringprac.thisTrialN,duringprac.thisN,duringprac.thisIndex,duringprac.ran,key_resp_22.keys,key_resp_22.rt,Circle1_colour,Circle2_colour,mouse.x,mouse.y,mouse.leftButton,mouse.midButton,mouse.rightButton,mouse.clicked_name,mouse_2.x,mouse_2.y,mouse_2.leftButton,mouse_2.midButton,mouse_2.rightButton,mouse_2.clicked_name,mouse_3.x,mouse_3.y,mouse_3.leftButton,mouse_3.midButton,mouse_3.rightButton,catchresponse,catchnumber,response_time_catch,Catch,mouse_11.x,mouse_11.y,mouse_11.leftButton,mouse_11.midButton,mouse_11.rightButton,trials_2.thisRepN,trials_2.thisTrialN,trials_2.thisN,trials_2.thisIndex,trials_2.ran,Colourpair,Temporder,mouse_3.clicked_name,mouse_11.clicked_name,trials_3.thisRepN,trials_3.thisTrialN,trials_3.thisN,trials_3.thisIndex,trials_3.ran,key_resp_instr_Ishi.keys,key_resp_instr_Ishi.rt,Ishi_trial_keyresp.keys,Ishi_textbox.text,Ishi_mouse.x,Ishi_mouse.y,Ishi_mouse.leftButton,Ishi_mouse.midButton,Ishi_mouse.rightButton,Ishi_mouse.clicked_name,Ishi_loop.thisRepN,Ishi_loop.thisTrialN,Ishi_loop.thisN,Ishi_loop.thisIndex,Ishi_loop.ran,imageaddress,textbox.text,mouse_4.x,mouse_4.y,mouse_4.leftButton,mouse_4.midButton,mouse_4.rightButton,mouse_4.clicked_name,textbox_2.text,mouse_8.x,mouse_8.y,mouse_8.leftButton,mouse_8.midButton,mouse_8.rightButton,mouse_8.clicked_name,textbox_3.text,mouse_9.x,mouse_9.y,mouse_9.leftButton,mouse_9.midButton,mouse_9.rightButton,mouse_9.clicked_name,textbox_4.text,mouse_12.x,mouse_12.y,mouse_12.leftButton,mouse_12.midButton,mouse_12.rightButton,mouse_12.clicked_name,textbox_5.text,mouse_13.x,mouse_13.y,mouse_13.leftButton,mouse_13.midButton,mouse_13.rightButton,mouse_13.clicked_name,textbox_6.text,mouse_14.x,mouse_14.y,mouse_14.leftButton,mouse_14.midButton,mouse_14.rightButton,mouse_14.clicked_name,textbox_7.text,mouse_15.x,mouse_15.y,mouse_15.leftButton,mouse_15.midButton,mouse_15.rightButton,mouse_15.clicked_name
0,0,0,64,1,,60f9b7d785b3e37efe2c21d3,62c53975cbc302299560b847,2022-07-06_09h29.03.579,Colour_Asymmetry_Pilot,2022.1.3,Win32,59.63384817,62c50e9c1127f2cd403a315f,,,,,,,,,,,,,,,,,,,,,,,,,,,,,,,,,,,,,,,,,,,,,,,,,,,,,,,,,,,,,,,,,,,,,,,,,,,,,,,,,,,,,,,,,,,,,,,,,,,,,,,,,,,,,,,,,,,,,,,,,,,,,,,,,,,,,,,,,,,,,,,,,,,,,,,,,,,,,,,,,,,
0,1,1,44,1,,60f9b7d785b3e37efe2c21d3,62c53975cbc302299560b847,2022-07-06_09h29.03.579,Colour_Asymmetry_Pilot,2022.1.3,Win32,59.63384817,62c50e9c1127f2cd403a315f,,,,,,,,,,,,,,,,,,,,,,,,,,,,,,,,,,,,,,,,,,,,,,,,,,,,,,,,,,,,,,,,,,,,,,,,,,,,,,,,,,,,,,,,,,,,,,,,,,,,,,,,,,,,,,,,,,,,,,,,,,,,,,,,,,,,,,,,,,,,,,,,,,,,,,,,,,,,,,,,,,,
0,2,2,62,1,,60f9b7d785b3e37efe2c21d3,62c53975cbc302299560b847,2022-07-06_09h29.03.579,Colour_Asymmetry_Pilot,2022.1.3,Win32,59.63384817,62c50e9c1127f2cd403a315f,,,,,,,,,,,,,,,,,,,,,,,,,,,,,,,,,,,,,,,,,,,,,,,,,,,,,,,,,,,,,,,,,,,,,,,,,,,,,,,,,,,,,,,,,,,,,,,,,,,,,,,,,,,,,,,,,,,,,,,,,,,,,,,,,,,,,,,,,,,,,,,,,,,,,,,,,,,,,,,,,,,
0,3,3,56,1,,60f9b7d785b3e37efe2c21d3,62c53975cbc302299560b847,2022-07-06_09h29.03.579,Colour_Asymmetry_Pilot,2022.1.3,Win32,59.63384817,62c50e9c1127f2cd403a315f,,,,,,,,,,,,,,,,,,,,,,,,,,,,,,,,,,,,,,,,,,,,,,,,,,,,,,,,,,,,,,,,,,,,,,,,,,,,,,,,,,,,,,,,,,,,,,,,,,,,,,,,,,,,,,,,,,,,,,,,,,,,,,,,,,,,,,,,,,,,,,,,,,,,,,,,,,,,,,,,,,,
0,4,4,78,1,,60f9b7d785b3e37efe2c21d3,62c53975cbc302299560b847,2022-07-06_09h29.03.579,Colour_Asymmetry_Pilot,2022.1.3,Win32,59.63384817,62c50e9c1127f2cd403a315f,,,,,,,,,,,,,,,,,,,,,,,,,,,,,,,,,,,,,,,,,,,,,,,,,,,,,,,,,,,,,,,,,,,,,,,,,,,,,,,,,,,,,,,,,,,,,,,,,,,,,,,,,,,,,,,,,,,,,,,,,,,,,,,,,,,,,,,,,,,,,,,,,,,,,,,,,,,,,,,,,,,
0,5,5,47,1,,60f9b7d785b3e37efe2c21d3,62c53975cbc302299560b847,2022-07-06_09h29.03.579,Colour_Asymmetry_Pilot,2022.1.3,Win32,59.63384817,62c50e9c1127f2cd403a315f,,,,,,,,,,,,,,,,,,,,,,,,,,,,,,,,,,,,,,,,,,,,,,,,,,,,,,,,,,,,,,,,,,,,,,,,,,,,,,,,,,,,,,,,,,,,,,,,,,,,,,,,,,,,,,,,,,,,,,,,,,,,,,,,,,,,,,,,,,,,,,,,,,,,,,,,,,,,,,,,,,,
0,6,6,85,1,,60f9b7d785b3e37efe2c21d3,62c53975cbc302299560b847,2022-07-06_09h29.03.579,Colour_Asymmetry_Pilot,2022.1.3,Win32,59.63384817,62c50e9c1127f2cd403a315f,,,,,,,,,,,,,,,,,,,,,,,,,,,,,,,,,,,,,,,,,,,,,,,,,,,,,,,,,,,,,,,,,,,,,,,,,,,,,,,,,,,,,,,,,,,,,,,,,,,,,,,,,,,,,,,,,,,,,,,,,,,,,,,,,,,,,,,,,,,,,,,,,,,,,,,,,,,,,,,,,,,
0,7,7,91,1,,60f9b7d785b3e37efe2c21d3,62c53975cbc302299560b847,2022-07-06_09h29.03.579,Colour_Asymmetry_Pilot,2022.1.3,Win32,59.63384817,62c50e9c1127f2cd403a315f,,,,,,,,,,,,,,,,,,,,,,,,,,,,,,,,,,,,,,,,,,,,,,,,,,,,,,,,,,,,,,,,,,,,,,,,,,,,,,,,,,,,,,,,,,,,,,,,,,,,,,,,,,,,,,,,,,,,,,,,,,,,,,,,,,,,,,,,,,,,,,,,,,,,,,,,,,,,,,,,,,,
0,8,8,34,1,,60f9b7d785b3e37efe2c21d3,62c53975cbc302299560b847,2022-07-06_09h29.03.579,Colour_Asymmetry_Pilot,2022.1.3,Win32,59.63384817,62c50e9c1127f2cd403a315f,,,,,,,,,,,,,,,,,,,,,,,,,,,,,,,,,,,,,,,,,,,,,,,,,,,,,,,,,,,,,,,,,,,,,,,,,,,,,,,,,,,,,,,,,,,,,,,,,,,,,,,,,,,,,,,,,,,,,,,,,,,,,,,,,,,,,,,,,,,,,,,,,,,,,,,,,,,,,,,,,,,
0,9,9,21,1,,60f9b7d785b3e37efe2c21d3,62c53975cbc302299560b847,2022-07-06_09h29.03.579,Colour_Asymmetry_Pilot,2022.1.3,Win32,59.63384817,62c50e9c1127f2cd403a315f,,,,,,,,,,,,,,,,,,,,,,,,,,,,,,,,,,,,,,,,,,,,,,,,,,,,,,,,,,,,,,,,,,,,,,,,,,,,,,,,,,,,,,,,,,,,,,,,,,,,,,,,,,,,,,,,,,,,,,,,,,,,,,,,,,,,,,,,,,,,,,,,,,,,,,,,,,,,,,,,,,,
0,10,10,8,1,,60f9b7d785b3e37efe2c21d3,62c53975cbc302299560b847,2022-07-06_09h29.03.579,Colour_Asymmetry_Pilot,2022.1.3,Win32,59.63384817,62c50e9c1127f2cd403a315f,,,,,,,,,,,,,,,,,,,,,,,,,,,,,,,,,,,,,,,,,,,,,,,,,,,,,,,,,,,,,,,,,,,,,,,,,,,,,,,,,,,,,,,,,,,,,,,,,,,,,,,,,,,,,,,,,,,,,,,,,,,,,,,,,,,,,,,,,,,,,,,,,,,,,,,,,,,,,,,,,,,
0,11,11,12,1,,60f9b7d785b3e37efe2c21d3,62c53975cbc302299560b847,2022-07-06_09h29.03.579,Colour_Asymmetry_Pilot,2022.1.3,Win32,59.63384817,62c50e9c1127f2cd403a315f,,,,,,,,,,,,,,,,,,,,,,,,,,,,,,,,,,,,,,,,,,,,,,,,,,,,,,,,,,,,,,,,,,,,,,,,,,,,,,,,,,,,,,,,,,,,,,,,,,,,,,,,,,,,,,,,,,,,,,,,,,,,,,,,,,,,,,,,,,,,,,,,,,,,,,,,,,,,,,,,,,,
0,12,12,67,1,,60f9b7d785b3e37efe2c21d3,62c53975cbc302299560b847,2022-07-06_09h29.03.579,Colour_Asymmetry_Pilot,2022.1.3,Win32,59.63384817,62c50e9c1127f2cd403a315f,,,,,,,,,,,,,,,,,,,,,,,,,,,,,,,,,,,,,,,,,,,,,,,,,,,,,,,,,,,,,,,,,,,,,,,,,,,,,,,,,,,,,,,,,,,,,,,,,,,,,,,,,,,,,,,,,,,,,,,,,,,,,,,,,,,,,,,,,,,,,,,,,,,,,,,,,,,,,,,,,,,
0,13,13,43,1,,60f9b7d785b3e37efe2c21d3,62c53975cbc302299560b847,2022-07-06_09h29.03.579,Colour_Asymmetry_Pilot,2022.1.3,Win32,59.63384817,62c50e9c1127f2cd403a315f,,,,,,,,,,,,,,,,,,,,,,,,,,,,,,,,,,,,,,,,,,,,,,,,,,,,,,,,,,,,,,,,,,,,,,,,,,,,,,,,,,,,,,,,,,,,,,,,,,,,,,,,,,,,,,,,,,,,,,,,,,,,,,,,,,,,,,,,,,,,,,,,,,,,,,,,,,,,,,,,,,,
0,14,14,10,1,,60f9b7d785b3e37efe2c21d3,62c53975cbc302299560b847,2022-07-06_09h29.03.579,Colour_Asymmetry_Pilot,2022.1.3,Win32,59.63384817,62c50e9c1127f2cd403a315f,,,,,,,,,,,,,,,,,,,,,,,,,,,,,,,,,,,,,,,,,,,,,,,,,,,,,,,,,,,,,,,,,,,,,,,,,,,,,,,,,,,,,,,,,,,,,,,,,,,,,,,,,,,,,,,,,,,,,,,,,,,,,,,,,,,,,,,,,,,,,,,,,,,,,,,,,,,,,,,,,,,
0,15,15,42,1,,60f9b7d785b3e37efe2c21d3,62c53975cbc302299560b847,2022-07-06_09h29.03.579,Colour_Asymmetry_Pilot,2022.1.3,Win32,59.63384817,62c50e9c1127f2cd403a315f,,,,,,,,,,,,,,,,,,,,,,,,,,,,,,,,,,,,,,,,,,,,,,,,,,,,,,,,,,,,,,,,,,,,,,,,,,,,,,,,,,,,,,,,,,,,,,,,,,,,,,,,,,,,,,,,,,,,,,,,,,,,,,,,,,,,,,,,,,,,,,,,,,,,,,,,,,,,,,,,,,,
0,16,16,73,1,,60f9b7d785b3e37efe2c21d3,62c53975cbc302299560b847,2022-07-06_09h29.03.579,Colour_Asymmetry_Pilot,2022.1.3,Win32,59.63384817,62c50e9c1127f2cd403a315f,,,,,,,,,,,,,,,,,,,,,,,,,,,,,,,,,,,,,,,,,,,,,,,,,,,,,,,,,,,,,,,,,,,,,,,,,,,,,,,,,,,,,,,,,,,,,,,,,,,,,,,,,,,,,,,,,,,,,,,,,,,,,,,,,,,,,,,,,,,,,,,,,,,,,,,,,,,,,,,,,,,
0,17,17,83,1,,60f9b7d785b3e37efe2c21d3,62c53975cbc302299560b847,2022-07-06_09h29.03.579,Colour_Asymmetry_Pilot,2022.1.3,Win32,59.63384817,62c50e9c1127f2cd403a315f,,,,,,,,,,,,,,,,,,,,,,,,,,,,,,,,,,,,,,,,,,,,,,,,,,,,,,,,,,,,,,,,,,,,,,,,,,,,,,,,,,,,,,,,,,,,,,,,,,,,,,,,,,,,,,,,,,,,,,,,,,,,,,,,,,,,,,,,,,,,,,,,,,,,,,,,,,,,,,,,,,,
0,18,18,3,1,,60f9b7d785b3e37efe2c21d3,62c53975cbc302299560b847,2022-07-06_09h29.03.579,Colour_Asymmetry_Pilot,2022.1.3,Win32,59.63384817,62c50e9c1127f2cd403a315f,,,,,,,,,,,,,,,,,,,,,,,,,,,,,,,,,,,,,,,,,,,,,,,,,,,,,,,,,,,,,,,,,,,,,,,,,,,,,,,,,,,,,,,,,,,,,,,,,,,,,,,,,,,,,,,,,,,,,,,,,,,,,,,,,,,,,,,,,,,,,,,,,,,,,,,,,,,,,,,,,,,
0,19,19,13,1,,60f9b7d785b3e37efe2c21d3,62c53975cbc302299560b847,2022-07-06_09h29.03.579,Colour_Asymmetry_Pilot,2022.1.3,Win32,59.63384817,62c50e9c1127f2cd403a315f,,,,,,,,,,,,,,,,,,,,,,,,,,,,,,,,,,,,,,,,,,,,,,,,,,,,,,,,,,,,,,,,,,,,,,,,,,,,,,,,,,,,,,,,,,,,,,,,,,,,,,,,,,,,,,,,,,,,,,,,,,,,,,,,,,,,,,,,,,,,,,,,,,,,,,,,,,,,,,,,,,,
0,20,20,58,1,,60f9b7d785b3e37efe2c21d3,62c53975cbc302299560b847,2022-07-06_09h29.03.579,Colour_Asymmetry_Pilot,2022.1.3,Win32,59.63384817,62c50e9c1127f2cd403a315f,,,,,,,,,,,,,,,,,,,,,,,,,,,,,,,,,,,,,,,,,,,,,,,,,,,,,,,,,,,,,,,,,,,,,,,,,,,,,,,,,,,,,,,,,,,,,,,,,,,,,,,,,,,,,,,,,,,,,,,,,,,,,,,,,,,,,,,,,,,,,,,,,,,,,,,,,,,,,,,,,,,
0,21,21,15,1,,60f9b7d785b3e37efe2c21d3,62c53975cbc302299560b847,2022-07-06_09h29.03.579,Colour_Asymmetry_Pilot,2022.1.3,Win32,59.63384817,62c50e9c1127f2cd403a315f,,,,,,,,,,,,,,,,,,,,,,,,,,,,,,,,,,,,,,,,,,,,,,,,,,,,,,,,,,,,,,,,,,,,,,,,,,,,,,,,,,,,,,,,,,,,,,,,,,,,,,,,,,,,,,,,,,,,,,,,,,,,,,,,,,,,,,,,,,,,,,,,,,,,,,,,,,,,,,,,,,,
0,22,22,31,1,,60f9b7d785b3e37efe2c21d3,62c53975cbc302299560b847,2022-07-06_09h29.03.579,Colour_Asymmetry_Pilot,2022.1.3,Win32,59.63384817,62c50e9c1127f2cd403a315f,,,,,,,,,,,,,,,,,,,,,,,,,,,,,,,,,,,,,,,,,,,,,,,,,,,,,,,,,,,,,,,,,,,,,,,,,,,,,,,,,,,,,,,,,,,,,,,,,,,,,,,,,,,,,,,,,,,,,,,,,,,,,,,,,,,,,,,,,,,,,,,,,,,,,,,,,,,,,,,,,,,
0,23,23,26,1,,60f9b7d785b3e37efe2c21d3,62c53975cbc302299560b847,2022-07-06_09h29.03.579,Colour_Asymmetry_Pilot,2022.1.3,Win32,59.63384817,62c50e9c1127f2cd403a315f,,,,,,,,,,,,,,,,,,,,,,,,,,,,,,,,,,,,,,,,,,,,,,,,,,,,,,,,,,,,,,,,,,,,,,,,,,,,,,,,,,,,,,,,,,,,,,,,,,,,,,,,,,,,,,,,,,,,,,,,,,,,,,,,,,,,,,,,,,,,,,,,,,,,,,,,,,,,,,,,,,,
0,24,24,36,1,,60f9b7d785b3e37efe2c21d3,62c53975cbc302299560b847,2022-07-06_09h29.03.579,Colour_Asymmetry_Pilot,2022.1.3,Win32,59.63384817,62c50e9c1127f2cd403a315f,,,,,,,,,,,,,,,,,,,,,,,,,,,,,,,,,,,,,,,,,,,,,,,,,,,,,,,,,,,,,,,,,,,,,,,,,,,,,,,,,,,,,,,,,,,,,,,,,,,,,,,,,,,,,,,,,,,,,,,,,,,,,,,,,,,,,,,,,,,,,,,,,,,,,,,,,,,,,,,,,,,
0,25,25,53,1,,60f9b7d785b3e37efe2c21d3,62c53975cbc302299560b847,2022-07-06_09h29.03.579,Colour_Asymmetry_Pilot,2022.1.3,Win32,59.63384817,62c50e9c1127f2cd403a315f,,,,,,,,,,,,,,,,,,,,,,,,,,,,,,,,,,,,,,,,,,,,,,,,,,,,,,,,,,,,,,,,,,,,,,,,,,,,,,,,,,,,,,,,,,,,,,,,,,,,,,,,,,,,,,,,,,,,,,,,,,,,,,,,,,,,,,,,,,,,,,,,,,,,,,,,,,,,,,,,,,,
0,26,26,16,1,,60f9b7d785b3e37efe2c21d3,62c53975cbc302299560b847,2022-07-06_09h29.03.579,Colour_Asymmetry_Pilot,2022.1.3,Win32,59.63384817,62c50e9c1127f2cd403a315f,,,,,,,,,,,,,,,,,,,,,,,,,,,,,,,,,,,,,,,,,,,,,,,,,,,,,,,,,,,,,,,,,,,,,,,,,,,,,,,,,,,,,,,,,,,,,,,,,,,,,,,,,,,,,,,,,,,,,,,,,,,,,,,,,,,,,,,,,,,,,,,,,,,,,,,,,,,,,,,,,,,
0,27,27,71,1,,60f9b7d785b3e37efe2c21d3,62c53975cbc302299560b847,2022-07-06_09h29.03.579,Colour_Asymmetry_Pilot,2022.1.3,Win32,59.63384817,62c50e9c1127f2cd403a315f,,,,,,,,,,,,,,,,,,,,,,,,,,,,,,,,,,,,,,,,,,,,,,,,,,,,,,,,,,,,,,,,,,,,,,,,,,,,,,,,,,,,,,,,,,,,,,,,,,,,,,,,,,,,,,,,,,,,,,,,,,,,,,,,,,,,,,,,,,,,,,,,,,,,,,,,,,,,,,,,,,,
0,28,28,81,1,,60f9b7d785b3e37efe2c21d3,62c53975cbc302299560b847,2022-07-06_09h29.03.579,Colour_Asymmetry_Pilot,2022.1.3,Win32,59.63384817,62c50e9c1127f2cd403a315f,,,,,,,,,,,,,,,,,,,,,,,,,,,,,,,,,,,,,,,,,,,,,,,,,,,,,,,,,,,,,,,,,,,,,,,,,,,,,,,,,,,,,,,,,,,,,,,,,,,,,,,,,,,,,,,,,,,,,,,,,,,,,,,,,,,,,,,,,,,,,,,,,,,,,,,,,,,,,,,,,,,
0,29,29,32,1,,60f9b7d785b3e37efe2c21d3,62c53975cbc302299560b847,2022-07-06_09h29.03.579,Colour_Asymmetry_Pilot,2022.1.3,Win32,59.63384817,62c50e9c1127f2cd403a315f,,,,,,,,,,,,,,,,,,,,,,,,,,,,,,,,,,,,,,,,,,,,,,,,,,,,,,,,,,,,,,,,,,,,,,,,,,,,,,,,,,,,,,,,,,,,,,,,,,,,,,,,,,,,,,,,,,,,,,,,,,,,,,,,,,,,,,,,,,,,,,,,,,,,,,,,,,,,,,,,,,,
0,30,30,84,1,,60f9b7d785b3e37efe2c21d3,62c53975cbc302299560b847,2022-07-06_09h29.03.579,Colour_Asymmetry_Pilot,2022.1.3,Win32,59.63384817,62c50e9c1127f2cd403a315f,,,,,,,,,,,,,,,,,,,,,,,,,,,,,,,,,,,,,,,,,,,,,,,,,,,,,,,,,,,,,,,,,,,,,,,,,,,,,,,,,,,,,,,,,,,,,,,,,,,,,,,,,,,,,,,,,,,,,,,,,,,,,,,,,,,,,,,,,,,,,,,,,,,,,,,,,,,,,,,,,,,
0,31,31,66,1,,60f9b7d785b3e37efe2c21d3,62c53975cbc302299560b847,2022-07-06_09h29.03.579,Colour_Asymmetry_Pilot,2022.1.3,Win32,59.63384817,62c50e9c1127f2cd403a315f,,,,,,,,,,,,,,,,,,,,,,,,,,,,,,,,,,,,,,,,,,,,,,,,,,,,,,,,,,,,,,,,,,,,,,,,,,,,,,,,,,,,,,,,,,,,,,,,,,,,,,,,,,,,,,,,,,,,,,,,,,,,,,,,,,,,,,,,,,,,,,,,,,,,,,,,,,,,,,,,,,,
0,32,32,38,1,,60f9b7d785b3e37efe2c21d3,62c53975cbc302299560b847,2022-07-06_09h29.03.579,Colour_Asymmetry_Pilot,2022.1.3,Win32,59.63384817,62c50e9c1127f2cd403a315f,,,,,,,,,,,,,,,,,,,,,,,,,,,,,,,,,,,,,,,,,,,,,,,,,,,,,,,,,,,,,,,,,,,,,,,,,,,,,,,,,,,,,,,,,,,,,,,,,,,,,,,,,,,,,,,,,,,,,,,,,,,,,,,,,,,,,,,,,,,,,,,,,,,,,,,,,,,,,,,,,,,
0,33,33,60,1,,60f9b7d785b3e37efe2c21d3,62c53975cbc302299560b847,2022-07-06_09h29.03.579,Colour_Asymmetry_Pilot,2022.1.3,Win32,59.63384817,62c50e9c1127f2cd403a315f,,,,,,,,,,,,,,,,,,,,,,,,,,,,,,,,,,,,,,,,,,,,,,,,,,,,,,,,,,,,,,,,,,,,,,,,,,,,,,,,,,,,,,,,,,,,,,,,,,,,,,,,,,,,,,,,,,,,,,,,,,,,,,,,,,,,,,,,,,,,,,,,,,,,,,,,,,,,,,,,,,,
0,34,34,19,1,,60f9b7d785b3e37efe2c21d3,62c53975cbc302299560b847,2022-07-06_09h29.03.579,Colour_Asymmetry_Pilot,2022.1.3,Win32,59.63384817,62c50e9c1127f2cd403a315f,,,,,,,,,,,,,,,,,,,,,,,,,,,,,,,,,,,,,,,,,,,,,,,,,,,,,,,,,,,,,,,,,,,,,,,,,,,,,,,,,,,,,,,,,,,,,,,,,,,,,,,,,,,,,,,,,,,,,,,,,,,,,,,,,,,,,,,,,,,,,,,,,,,,,,,,,,,,,,,,,,,
0,35,35,40,1,,60f9b7d785b3e37efe2c21d3,62c53975cbc302299560b847,2022-07-06_09h29.03.579,Colour_Asymmetry_Pilot,2022.1.3,Win32,59.63384817,62c50e9c1127f2cd403a315f,,,,,,,,,,,,,,,,,,,,,,,,,,,,,,,,,,,,,,,,,,,,,,,,,,,,,,,,,,,,,,,,,,,,,,,,,,,,,,,,,,,,,,,,,,,,,,,,,,,,,,,,,,,,,,,,,,,,,,,,,,,,,,,,,,,,,,,,,,,,,,,,,,,,,,,,,,,,,,,,,,,
0,36,36,69,1,,60f9b7d785b3e37efe2c21d3,62c53975cbc302299560b847,2022-07-06_09h29.03.579,Colour_Asymmetry_Pilot,2022.1.3,Win32,59.63384817,62c50e9c1127f2cd403a315f,,,,,,,,,,,,,,,,,,,,,,,,,,,,,,,,,,,,,,,,,,,,,,,,,,,,,,,,,,,,,,,,,,,,,,,,,,,,,,,,,,,,,,,,,,,,,,,,,,,,,,,,,,,,,,,,,,,,,,,,,,,,,,,,,,,,,,,,,,,,,,,,,,,,,,,,,,,,,,,,,,,
0,37,37,2,1,,60f9b7d785b3e37efe2c21d3,62c53975cbc302299560b847,2022-07-06_09h29.03.579,Colour_Asymmetry_Pilot,2022.1.3,Win32,59.63384817,62c50e9c1127f2cd403a315f,,,,,,,,,,,,,,,,,,,,,,,,,,,,,,,,,,,,,,,,,,,,,,,,,,,,,,,,,,,,,,,,,,,,,,,,,,,,,,,,,,,,,,,,,,,,,,,,,,,,,,,,,,,,,,,,,,,,,,,,,,,,,,,,,,,,,,,,,,,,,,,,,,,,,,,,,,,,,,,,,,,
0,38,38,37,1,,60f9b7d785b3e37efe2c21d3,62c53975cbc302299560b847,2022-07-06_09h29.03.579,Colour_Asymmetry_Pilot,2022.1.3,Win32,59.63384817,62c50e9c1127f2cd403a315f,,,,,,,,,,,,,,,,,,,,,,,,,,,,,,,,,,,,,,,,,,,,,,,,,,,,,,,,,,,,,,,,,,,,,,,,,,,,,,,,,,,,,,,,,,,,,,,,,,,,,,,,,,,,,,,,,,,,,,,,,,,,,,,,,,,,,,,,,,,,,,,,,,,,,,,,,,,,,,,,,,,
0,39,39,86,1,,60f9b7d785b3e37efe2c21d3,62c53975cbc302299560b847,2022-07-06_09h29.03.579,Colour_Asymmetry_Pilot,2022.1.3,Win32,59.63384817,62c50e9c1127f2cd403a315f,,,,,,,,,,,,,,,,,,,,,,,,,,,,,,,,,,,,,,,,,,,,,,,,,,,,,,,,,,,,,,,,,,,,,,,,,,,,,,,,,,,,,,,,,,,,,,,,,,,,,,,,,,,,,,,,,,,,,,,,,,,,,,,,,,,,,,,,,,,,,,,,,,,,,,,,,,,,,,,,,,,
0,40,40,59,1,,60f9b7d785b3e37efe2c21d3,62c53975cbc302299560b847,2022-07-06_09h29.03.579,Colour_Asymmetry_Pilot,2022.1.3,Win32,59.63384817,62c50e9c1127f2cd403a315f,,,,,,,,,,,,,,,,,,,,,,,,,,,,,,,,,,,,,,,,,,,,,,,,,,,,,,,,,,,,,,,,,,,,,,,,,,,,,,,,,,,,,,,,,,,,,,,,,,,,,,,,,,,,,,,,,,,,,,,,,,,,,,,,,,,,,,,,,,,,,,,,,,,,,,,,,,,,,,,,,,,
0,41,41,82,1,,60f9b7d785b3e37efe2c21d3,62c53975cbc302299560b847,2022-07-06_09h29.03.579,Colour_Asymmetry_Pilot,2022.1.3,Win32,59.63384817,62c50e9c1127f2cd403a315f,,,,,,,,,,,,,,,,,,,,,,,,,,,,,,,,,,,,,,,,,,,,,,,,,,,,,,,,,,,,,,,,,,,,,,,,,,,,,,,,,,,,,,,,,,,,,,,,,,,,,,,,,,,,,,,,,,,,,,,,,,,,,,,,,,,,,,,,,,,,,,,,,,,,,,,,,,,,,,,,,,,
0,42,42,18,1,,60f9b7d785b3e37efe2c21d3,62c53975cbc302299560b847,2022-07-06_09h29.03.579,Colour_Asymmetry_Pilot,2022.1.3,Win32,59.63384817,62c50e9c1127f2cd403a315f,,,,,,,,,,,,,,,,,,,,,,,,,,,,,,,,,,,,,,,,,,,,,,,,,,,,,,,,,,,,,,,,,,,,,,,,,,,,,,,,,,,,,,,,,,,,,,,,,,,,,,,,,,,,,,,,,,,,,,,,,,,,,,,,,,,,,,,,,,,,,,,,,,,,,,,,,,,,,,,,,,,
0,43,43,65,1,,60f9b7d785b3e37efe2c21d3,62c53975cbc302299560b847,2022-07-06_09h29.03.579,Colour_Asymmetry_Pilot,2022.1.3,Win32,59.63384817,62c50e9c1127f2cd403a315f,,,,,,,,,,,,,,,,,,,,,,,,,,,,,,,,,,,,,,,,,,,,,,,,,,,,,,,,,,,,,,,,,,,,,,,,,,,,,,,,,,,,,,,,,,,,,,,,,,,,,,,,,,,,,,,,,,,,,,,,,,,,,,,,,,,,,,,,,,,,,,,,,,,,,,,,,,,,,,,,,,,
0,44,44,4,1,,60f9b7d785b3e37efe2c21d3,62c53975cbc302299560b847,2022-07-06_09h29.03.579,Colour_Asymmetry_Pilot,2022.1.3,Win32,59.63384817,62c50e9c1127f2cd403a315f,,,,,,,,,,,,,,,,,,,,,,,,,,,,,,,,,,,,,,,,,,,,,,,,,,,,,,,,,,,,,,,,,,,,,,,,,,,,,,,,,,,,,,,,,,,,,,,,,,,,,,,,,,,,,,,,,,,,,,,,,,,,,,,,,,,,,,,,,,,,,,,,,,,,,,,,,,,,,,,,,,,
0,45,45,9,1,,60f9b7d785b3e37efe2c21d3,62c53975cbc302299560b847,2022-07-06_09h29.03.579,Colour_Asymmetry_Pilot,2022.1.3,Win32,59.63384817,62c50e9c1127f2cd403a315f,,,,,,,,,,,,,,,,,,,,,,,,,,,,,,,,,,,,,,,,,,,,,,,,,,,,,,,,,,,,,,,,,,,,,,,,,,,,,,,,,,,,,,,,,,,,,,,,,,,,,,,,,,,,,,,,,,,,,,,,,,,,,,,,,,,,,,,,,,,,,,,,,,,,,,,,,,,,,,,,,,,
0,46,46,61,1,,60f9b7d785b3e37efe2c21d3,62c53975cbc302299560b847,2022-07-06_09h29.03.579,Colour_Asymmetry_Pilot,2022.1.3,Win32,59.63384817,62c50e9c1127f2cd403a315f,,,,,,,,,,,,,,,,,,,,,,,,,,,,,,,,,,,,,,,,,,,,,,,,,,,,,,,,,,,,,,,,,,,,,,,,,,,,,,,,,,,,,,,,,,,,,,,,,,,,,,,,,,,,,,,,,,,,,,,,,,,,,,,,,,,,,,,,,,,,,,,,,,,,,,,,,,,,,,,,,,,
0,47,47,5,1,,60f9b7d785b3e37efe2c21d3,62c53975cbc302299560b847,2022-07-06_09h29.03.579,Colour_Asymmetry_Pilot,2022.1.3,Win32,59.63384817,62c50e9c1127f2cd403a315f,,,,,,,,,,,,,,,,,,,,,,,,,,,,,,,,,,,,,,,,,,,,,,,,,,,,,,,,,,,,,,,,,,,,,,,,,,,,,,,,,,,,,,,,,,,,,,,,,,,,,,,,,,,,,,,,,,,,,,,,,,,,,,,,,,,,,,,,,,,,,,,,,,,,,,,,,,,,,,,,,,,
0,48,48,14,1,,60f9b7d785b3e37efe2c21d3,62c53975cbc302299560b847,2022-07-06_09h29.03.579,Colour_Asymmetry_Pilot,2022.1.3,Win32,59.63384817,62c50e9c1127f2cd403a315f,,,,,,,,,,,,,,,,,,,,,,,,,,,,,,,,,,,,,,,,,,,,,,,,,,,,,,,,,,,,,,,,,,,,,,,,,,,,,,,,,,,,,,,,,,,,,,,,,,,,,,,,,,,,,,,,,,,,,,,,,,,,,,,,,,,,,,,,,,,,,,,,,,,,,,,,,,,,,,,,,,,
0,49,49,57,1,,60f9b7d785b3e37efe2c21d3,62c53975cbc302299560b847,2022-07-06_09h29.03.579,Colour_Asymmetry_Pilot,2022.1.3,Win32,59.63384817,62c50e9c1127f2cd403a315f,,,,,,,,,,,,,,,,,,,,,,,,,,,,,,,,,,,,,,,,,,,,,,,,,,,,,,,,,,,,,,,,,,,,,,,,,,,,,,,,,,,,,,,,,,,,,,,,,,,,,,,,,,,,,,,,,,,,,,,,,,,,,,,,,,,,,,,,,,,,,,,,,,,,,,,,,,,,,,,,,,,
0,50,50,25,1,,60f9b7d785b3e37efe2c21d3,62c53975cbc302299560b847,2022-07-06_09h29.03.579,Colour_Asymmetry_Pilot,2022.1.3,Win32,59.63384817,62c50e9c1127f2cd403a315f,,,,,,,,,,,,,,,,,,,,,,,,,,,,,,,,,,,,,,,,,,,,,,,,,,,,,,,,,,,,,,,,,,,,,,,,,,,,,,,,,,,,,,,,,,,,,,,,,,,,,,,,,,,,,,,,,,,,,,,,,,,,,,,,,,,,,,,,,,,,,,,,,,,,,,,,,,,,,,,,,,,
0,51,51,29,1,,60f9b7d785b3e37efe2c21d3,62c53975cbc302299560b847,2022-07-06_09h29.03.579,Colour_Asymmetry_Pilot,2022.1.3,Win32,59.63384817,62c50e9c1127f2cd403a315f,,,,,,,,,,,,,,,,,,,,,,,,,,,,,,,,,,,,,,,,,,,,,,,,,,,,,,,,,,,,,,,,,,,,,,,,,,,,,,,,,,,,,,,,,,,,,,,,,,,,,,,,,,,,,,,,,,,,,,,,,,,,,,,,,,,,,,,,,,,,,,,,,,,,,,,,,,,,,,,,,,,
0,52,52,75,1,,60f9b7d785b3e37efe2c21d3,62c53975cbc302299560b847,2022-07-06_09h29.03.579,Colour_Asymmetry_Pilot,2022.1.3,Win32,59.63384817,62c50e9c1127f2cd403a315f,,,,,,,,,,,,,,,,,,,,,,,,,,,,,,,,,,,,,,,,,,,,,,,,,,,,,,,,,,,,,,,,,,,,,,,,,,,,,,,,,,,,,,,,,,,,,,,,,,,,,,,,,,,,,,,,,,,,,,,,,,,,,,,,,,,,,,,,,,,,,,,,,,,,,,,,,,,,,,,,,,,
0,53,53,55,1,,60f9b7d785b3e37efe2c21d3,62c53975cbc302299560b847,2022-07-06_09h29.03.579,Colour_Asymmetry_Pilot,2022.1.3,Win32,59.63384817,62c50e9c1127f2cd403a315f,,,,,,,,,,,,,,,,,,,,,,,,,,,,,,,,,,,,,,,,,,,,,,,,,,,,,,,,,,,,,,,,,,,,,,,,,,,,,,,,,,,,,,,,,,,,,,,,,,,,,,,,,,,,,,,,,,,,,,,,,,,,,,,,,,,,,,,,,,,,,,,,,,,,,,,,,,,,,,,,,,,
0,54,54,41,1,,60f9b7d785b3e37efe2c21d3,62c53975cbc302299560b847,2022-07-06_09h29.03.579,Colour_Asymmetry_Pilot,2022.1.3,Win32,59.63384817,62c50e9c1127f2cd403a315f,,,,,,,,,,,,,,,,,,,,,,,,,,,,,,,,,,,,,,,,,,,,,,,,,,,,,,,,,,,,,,,,,,,,,,,,,,,,,,,,,,,,,,,,,,,,,,,,,,,,,,,,,,,,,,,,,,,,,,,,,,,,,,,,,,,,,,,,,,,,,,,,,,,,,,,,,,,,,,,,,,,
0,55,55,33,1,,60f9b7d785b3e37efe2c21d3,62c53975cbc302299560b847,2022-07-06_09h29.03.579,Colour_Asymmetry_Pilot,2022.1.3,Win32,59.63384817,62c50e9c1127f2cd403a315f,,,,,,,,,,,,,,,,,,,,,,,,,,,,,,,,,,,,,,,,,,,,,,,,,,,,,,,,,,,,,,,,,,,,,,,,,,,,,,,,,,,,,,,,,,,,,,,,,,,,,,,,,,,,,,,,,,,,,,,,,,,,,,,,,,,,,,,,,,,,,,,,,,,,,,,,,,,,,,,,,,,
0,56,56,28,1,,60f9b7d785b3e37efe2c21d3,62c53975cbc302299560b847,2022-07-06_09h29.03.579,Colour_Asymmetry_Pilot,2022.1.3,Win32,59.63384817,62c50e9c1127f2cd403a315f,,,,,,,,,,,,,,,,,,,,,,,,,,,,,,,,,,,,,,,,,,,,,,,,,,,,,,,,,,,,,,,,,,,,,,,,,,,,,,,,,,,,,,,,,,,,,,,,,,,,,,,,,,,,,,,,,,,,,,,,,,,,,,,,,,,,,,,,,,,,,,,,,,,,,,,,,,,,,,,,,,,
0,57,57,76,1,,60f9b7d785b3e37efe2c21d3,62c53975cbc302299560b847,2022-07-06_09h29.03.579,Colour_Asymmetry_Pilot,2022.1.3,Win32,59.63384817,62c50e9c1127f2cd403a315f,,,,,,,,,,,,,,,,,,,,,,,,,,,,,,,,,,,,,,,,,,,,,,,,,,,,,,,,,,,,,,,,,,,,,,,,,,,,,,,,,,,,,,,,,,,,,,,,,,,,,,,,,,,,,,,,,,,,,,,,,,,,,,,,,,,,,,,,,,,,,,,,,,,,,,,,,,,,,,,,,,,
0,58,58,50,1,,60f9b7d785b3e37efe2c21d3,62c53975cbc302299560b847,2022-07-06_09h29.03.579,Colour_Asymmetry_Pilot,2022.1.3,Win32,59.63384817,62c50e9c1127f2cd403a315f,,,,,,,,,,,,,,,,,,,,,,,,,,,,,,,,,,,,,,,,,,,,,,,,,,,,,,,,,,,,,,,,,,,,,,,,,,,,,,,,,,,,,,,,,,,,,,,,,,,,,,,,,,,,,,,,,,,,,,,,,,,,,,,,,,,,,,,,,,,,,,,,,,,,,,,,,,,,,,,,,,,
0,59,59,24,1,,60f9b7d785b3e37efe2c21d3,62c53975cbc302299560b847,2022-07-06_09h29.03.579,Colour_Asymmetry_Pilot,2022.1.3,Win32,59.63384817,62c50e9c1127f2cd403a315f,,,,,,,,,,,,,,,,,,,,,,,,,,,,,,,,,,,,,,,,,,,,,,,,,,,,,,,,,,,,,,,,,,,,,,,,,,,,,,,,,,,,,,,,,,,,,,,,,,,,,,,,,,,,,,,,,,,,,,,,,,,,,,,,,,,,,,,,,,,,,,,,,,,,,,,,,,,,,,,,,,,
0,60,60,77,1,,60f9b7d785b3e37efe2c21d3,62c53975cbc302299560b847,2022-07-06_09h29.03.579,Colour_Asymmetry_Pilot,2022.1.3,Win32,59.63384817,62c50e9c1127f2cd403a315f,,,,,,,,,,,,,,,,,,,,,,,,,,,,,,,,,,,,,,,,,,,,,,,,,,,,,,,,,,,,,,,,,,,,,,,,,,,,,,,,,,,,,,,,,,,,,,,,,,,,,,,,,,,,,,,,,,,,,,,,,,,,,,,,,,,,,,,,,,,,,,,,,,,,,,,,,,,,,,,,,,,
0,61,61,79,1,,60f9b7d785b3e37efe2c21d3,62c53975cbc302299560b847,2022-07-06_09h29.03.579,Colour_Asymmetry_Pilot,2022.1.3,Win32,59.63384817,62c50e9c1127f2cd403a315f,,,,,,,,,,,,,,,,,,,,,,,,,,,,,,,,,,,,,,,,,,,,,,,,,,,,,,,,,,,,,,,,,,,,,,,,,,,,,,,,,,,,,,,,,,,,,,,,,,,,,,,,,,,,,,,,,,,,,,,,,,,,,,,,,,,,,,,,,,,,,,,,,,,,,,,,,,,,,,,,,,,
0,62,62,39,1,,60f9b7d785b3e37efe2c21d3,62c53975cbc302299560b847,2022-07-06_09h29.03.579,Colour_Asymmetry_Pilot,2022.1.3,Win32,59.63384817,62c50e9c1127f2cd403a315f,,,,,,,,,,,,,,,,,,,,,,,,,,,,,,,,,,,,,,,,,,,,,,,,,,,,,,,,,,,,,,,,,,,,,,,,,,,,,,,,,,,,,,,,,,,,,,,,,,,,,,,,,,,,,,,,,,,,,,,,,,,,,,,,,,,,,,,,,,,,,,,,,,,,,,,,,,,,,,,,,,,
0,63,63,70,1,,60f9b7d785b3e37efe2c21d3,62c53975cbc302299560b847,2022-07-06_09h29.03.579,Colour_Asymmetry_Pilot,2022.1.3,Win32,59.63384817,62c50e9c1127f2cd403a315f,,,,,,,,,,,,,,,,,,,,,,,,,,,,,,,,,,,,,,,,,,,,,,,,,,,,,,,,,,,,,,,,,,,,,,,,,,,,,,,,,,,,,,,,,,,,,,,,,,,,,,,,,,,,,,,,,,,,,,,,,,,,,,,,,,,,,,,,,,,,,,,,,,,,,,,,,,,,,,,,,,,
0,64,64,45,1,,60f9b7d785b3e37efe2c21d3,62c53975cbc302299560b847,2022-07-06_09h29.03.579,Colour_Asymmetry_Pilot,2022.1.3,Win32,59.63384817,62c50e9c1127f2cd403a315f,,,,,,,,,,,,,,,,,,,,,,,,,,,,,,,,,,,,,,,,,,,,,,,,,,,,,,,,,,,,,,,,,,,,,,,,,,,,,,,,,,,,,,,,,,,,,,,,,,,,,,,,,,,,,,,,,,,,,,,,,,,,,,,,,,,,,,,,,,,,,,,,,,,,,,,,,,,,,,,,,,,
0,65,65,22,1,,60f9b7d785b3e37efe2c21d3,62c53975cbc302299560b847,2022-07-06_09h29.03.579,Colour_Asymmetry_Pilot,2022.1.3,Win32,59.63384817,62c50e9c1127f2cd403a315f,,,,,,,,,,,,,,,,,,,,,,,,,,,,,,,,,,,,,,,,,,,,,,,,,,,,,,,,,,,,,,,,,,,,,,,,,,,,,,,,,,,,,,,,,,,,,,,,,,,,,,,,,,,,,,,,,,,,,,,,,,,,,,,,,,,,,,,,,,,,,,,,,,,,,,,,,,,,,,,,,,,
0,66,66,88,1,,60f9b7d785b3e37efe2c21d3,62c53975cbc302299560b847,2022-07-06_09h29.03.579,Colour_Asymmetry_Pilot,2022.1.3,Win32,59.63384817,62c50e9c1127f2cd403a315f,,,,,,,,,,,,,,,,,,,,,,,,,,,,,,,,,,,,,,,,,,,,,,,,,,,,,,,,,,,,,,,,,,,,,,,,,,,,,,,,,,,,,,,,,,,,,,,,,,,,,,,,,,,,,,,,,,,,,,,,,,,,,,,,,,,,,,,,,,,,,,,,,,,,,,,,,,,,,,,,,,,
0,67,67,54,1,,60f9b7d785b3e37efe2c21d3,62c53975cbc302299560b847,2022-07-06_09h29.03.579,Colour_Asymmetry_Pilot,2022.1.3,Win32,59.63384817,62c50e9c1127f2cd403a315f,,,,,,,,,,,,,,,,,,,,,,,,,,,,,,,,,,,,,,,,,,,,,,,,,,,,,,,,,,,,,,,,,,,,,,,,,,,,,,,,,,,,,,,,,,,,,,,,,,,,,,,,,,,,,,,,,,,,,,,,,,,,,,,,,,,,,,,,,,,,,,,,,,,,,,,,,,,,,,,,,,,
0,68,68,0,1,,60f9b7d785b3e37efe2c21d3,62c53975cbc302299560b847,2022-07-06_09h29.03.579,Colour_Asymmetry_Pilot,2022.1.3,Win32,59.63384817,62c50e9c1127f2cd403a315f,,,,,,,,,,,,,,,,,,,,,,,,,,,,,,,,,,,,,,,,,,,,,,,,,,,,,,,,,,,,,,,,,,,,,,,,,,,,,,,,,,,,,,,,,,,,,,,,,,,,,,,,,,,,,,,,,,,,,,,,,,,,,,,,,,,,,,,,,,,,,,,,,,,,,,,,,,,,,,,,,,,
0,69,69,92,1,,60f9b7d785b3e37efe2c21d3,62c53975cbc302299560b847,2022-07-06_09h29.03.579,Colour_Asymmetry_Pilot,2022.1.3,Win32,59.63384817,62c50e9c1127f2cd403a315f,,,,,,,,,,,,,,,,,,,,,,,,,,,,,,,,,,,,,,,,,,,,,,,,,,,,,,,,,,,,,,,,,,,,,,,,,,,,,,,,,,,,,,,,,,,,,,,,,,,,,,,,,,,,,,,,,,,,,,,,,,,,,,,,,,,,,,,,,,,,,,,,,,,,,,,,,,,,,,,,,,,
0,70,70,63,1,,60f9b7d785b3e37efe2c21d3,62c53975cbc302299560b847,2022-07-06_09h29.03.579,Colour_Asymmetry_Pilot,2022.1.3,Win32,59.63384817,62c50e9c1127f2cd403a315f,,,,,,,,,,,,,,,,,,,,,,,,,,,,,,,,,,,,,,,,,,,,,,,,,,,,,,,,,,,,,,,,,,,,,,,,,,,,,,,,,,,,,,,,,,,,,,,,,,,,,,,,,,,,,,,,,,,,,,,,,,,,,,,,,,,,,,,,,,,,,,,,,,,,,,,,,,,,,,,,,,,
0,71,71,68,1,,60f9b7d785b3e37efe2c21d3,62c53975cbc302299560b847,2022-07-06_09h29.03.579,Colour_Asymmetry_Pilot,2022.1.3,Win32,59.63384817,62c50e9c1127f2cd403a315f,,,,,,,,,,,,,,,,,,,,,,,,,,,,,,,,,,,,,,,,,,,,,,,,,,,,,,,,,,,,,,,,,,,,,,,,,,,,,,,,,,,,,,,,,,,,,,,,,,,,,,,,,,,,,,,,,,,,,,,,,,,,,,,,,,,,,,,,,,,,,,,,,,,,,,,,,,,,,,,,,,,
0,72,72,7,1,,60f9b7d785b3e37efe2c21d3,62c53975cbc302299560b847,2022-07-06_09h29.03.579,Colour_Asymmetry_Pilot,2022.1.3,Win32,59.63384817,62c50e9c1127f2cd403a315f,,,,,,,,,,,,,,,,,,,,,,,,,,,,,,,,,,,,,,,,,,,,,,,,,,,,,,,,,,,,,,,,,,,,,,,,,,,,,,,,,,,,,,,,,,,,,,,,,,,,,,,,,,,,,,,,,,,,,,,,,,,,,,,,,,,,,,,,,,,,,,,,,,,,,,,,,,,,,,,,,,,
0,73,73,6,1,,60f9b7d785b3e37efe2c21d3,62c53975cbc302299560b847,2022-07-06_09h29.03.579,Colour_Asymmetry_Pilot,2022.1.3,Win32,59.63384817,62c50e9c1127f2cd403a315f,,,,,,,,,,,,,,,,,,,,,,,,,,,,,,,,,,,,,,,,,,,,,,,,,,,,,,,,,,,,,,,,,,,,,,,,,,,,,,,,,,,,,,,,,,,,,,,,,,,,,,,,,,,,,,,,,,,,,,,,,,,,,,,,,,,,,,,,,,,,,,,,,,,,,,,,,,,,,,,,,,,
0,74,74,35,1,,60f9b7d785b3e37efe2c21d3,62c53975cbc302299560b847,2022-07-06_09h29.03.579,Colour_Asymmetry_Pilot,2022.1.3,Win32,59.63384817,62c50e9c1127f2cd403a315f,,,,,,,,,,,,,,,,,,,,,,,,,,,,,,,,,,,,,,,,,,,,,,,,,,,,,,,,,,,,,,,,,,,,,,,,,,,,,,,,,,,,,,,,,,,,,,,,,,,,,,,,,,,,,,,,,,,,,,,,,,,,,,,,,,,,,,,,,,,,,,,,,,,,,,,,,,,,,,,,,,,
0,75,75,74,1,,60f9b7d785b3e37efe2c21d3,62c53975cbc302299560b847,2022-07-06_09h29.03.579,Colour_Asymmetry_Pilot,2022.1.3,Win32,59.63384817,62c50e9c1127f2cd403a315f,,,,,,,,,,,,,,,,,,,,,,,,,,,,,,,,,,,,,,,,,,,,,,,,,,,,,,,,,,,,,,,,,,,,,,,,,,,,,,,,,,,,,,,,,,,,,,,,,,,,,,,,,,,,,,,,,,,,,,,,,,,,,,,,,,,,,,,,,,,,,,,,,,,,,,,,,,,,,,,,,,,
0,76,76,72,1,,60f9b7d785b3e37efe2c21d3,62c53975cbc302299560b847,2022-07-06_09h29.03.579,Colour_Asymmetry_Pilot,2022.1.3,Win32,59.63384817,62c50e9c1127f2cd403a315f,,,,,,,,,,,,,,,,,,,,,,,,,,,,,,,,,,,,,,,,,,,,,,,,,,,,,,,,,,,,,,,,,,,,,,,,,,,,,,,,,,,,,,,,,,,,,,,,,,,,,,,,,,,,,,,,,,,,,,,,,,,,,,,,,,,,,,,,,,,,,,,,,,,,,,,,,,,,,,,,,,,
0,77,77,89,1,,60f9b7d785b3e37efe2c21d3,62c53975cbc302299560b847,2022-07-06_09h29.03.579,Colour_Asymmetry_Pilot,2022.1.3,Win32,59.63384817,62c50e9c1127f2cd403a315f,,,,,,,,,,,,,,,,,,,,,,,,,,,,,,,,,,,,,,,,,,,,,,,,,,,,,,,,,,,,,,,,,,,,,,,,,,,,,,,,,,,,,,,,,,,,,,,,,,,,,,,,,,,,,,,,,,,,,,,,,,,,,,,,,,,,,,,,,,,,,,,,,,,,,,,,,,,,,,,,,,,
0,78,78,51,1,,60f9b7d785b3e37efe2c21d3,62c53975cbc302299560b847,2022-07-06_09h29.03.579,Colour_Asymmetry_Pilot,2022.1.3,Win32,59.63384817,62c50e9c1127f2cd403a315f,,,,,,,,,,,,,,,,,,,,,,,,,,,,,,,,,,,,,,,,,,,,,,,,,,,,,,,,,,,,,,,,,,,,,,,,,,,,,,,,,,,,,,,,,,,,,,,,,,,,,,,,,,,,,,,,,,,,,,,,,,,,,,,,,,,,,,,,,,,,,,,,,,,,,,,,,,,,,,,,,,,
0,79,79,48,1,,60f9b7d785b3e37efe2c21d3,62c53975cbc302299560b847,2022-07-06_09h29.03.579,Colour_Asymmetry_Pilot,2022.1.3,Win32,59.63384817,62c50e9c1127f2cd403a315f,,,,,,,,,,,,,,,,,,,,,,,,,,,,,,,,,,,,,,,,,,,,,,,,,,,,,,,,,,,,,,,,,,,,,,,,,,,,,,,,,,,,,,,,,,,,,,,,,,,,,,,,,,,,,,,,,,,,,,,,,,,,,,,,,,,,,,,,,,,,,,,,,,,,,,,,,,,,,,,,,,,
0,80,80,80,1,,60f9b7d785b3e37efe2c21d3,62c53975cbc302299560b847,2022-07-06_09h29.03.579,Colour_Asymmetry_Pilot,2022.1.3,Win32,59.63384817,62c50e9c1127f2cd403a315f,,,,,,,,,,,,,,,,,,,,,,,,,,,,,,,,,,,,,,,,,,,,,,,,,,,,,,,,,,,,,,,,,,,,,,,,,,,,,,,,,,,,,,,,,,,,,,,,,,,,,,,,,,,,,,,,,,,,,,,,,,,,,,,,,,,,,,,,,,,,,,,,,,,,,,,,,,,,,,,,,,,
0,81,81,30,1,,60f9b7d785b3e37efe2c21d3,62c53975cbc302299560b847,2022-07-06_09h29.03.579,Colour_Asymmetry_Pilot,2022.1.3,Win32,59.63384817,62c50e9c1127f2cd403a315f,,,,,,,,,,,,,,,,,,,,,,,,,,,,,,,,,,,,,,,,,,,,,,,,,,,,,,,,,,,,,,,,,,,,,,,,,,,,,,,,,,,,,,,,,,,,,,,,,,,,,,,,,,,,,,,,,,,,,,,,,,,,,,,,,,,,,,,,,,,,,,,,,,,,,,,,,,,,,,,,,,,
0,82,82,27,1,,60f9b7d785b3e37efe2c21d3,62c53975cbc302299560b847,2022-07-06_09h29.03.579,Colour_Asymmetry_Pilot,2022.1.3,Win32,59.63384817,62c50e9c1127f2cd403a315f,,,,,,,,,,,,,,,,,,,,,,,,,,,,,,,,,,,,,,,,,,,,,,,,,,,,,,,,,,,,,,,,,,,,,,,,,,,,,,,,,,,,,,,,,,,,,,,,,,,,,,,,,,,,,,,,,,,,,,,,,,,,,,,,,,,,,,,,,,,,,,,,,,,,,,,,,,,,,,,,,,,
0,83,83,11,1,,60f9b7d785b3e37efe2c21d3,62c53975cbc302299560b847,2022-07-06_09h29.03.579,Colour_Asymmetry_Pilot,2022.1.3,Win32,59.63384817,62c50e9c1127f2cd403a315f,,,,,,,,,,,,,,,,,,,,,,,,,,,,,,,,,,,,,,,,,,,,,,,,,,,,,,,,,,,,,,,,,,,,,,,,,,,,,,,,,,,,,,,,,,,,,,,,,,,,,,,,,,,,,,,,,,,,,,,,,,,,,,,,,,,,,,,,,,,,,,,,,,,,,,,,,,,,,,,,,,,
0,84,84,90,1,,60f9b7d785b3e37efe2c21d3,62c53975cbc302299560b847,2022-07-06_09h29.03.579,Colour_Asymmetry_Pilot,2022.1.3,Win32,59.63384817,62c50e9c1127f2cd403a315f,,,,,,,,,,,,,,,,,,,,,,,,,,,,,,,,,,,,,,,,,,,,,,,,,,,,,,,,,,,,,,,,,,,,,,,,,,,,,,,,,,,,,,,,,,,,,,,,,,,,,,,,,,,,,,,,,,,,,,,,,,,,,,,,,,,,,,,,,,,,,,,,,,,,,,,,,,,,,,,,,,,
0,85,85,46,1,,60f9b7d785b3e37efe2c21d3,62c53975cbc302299560b847,2022-07-06_09h29.03.579,Colour_Asymmetry_Pilot,2022.1.3,Win32,59.63384817,62c50e9c1127f2cd403a315f,,,,,,,,,,,,,,,,,,,,,,,,,,,,,,,,,,,,,,,,,,,,,,,,,,,,,,,,,,,,,,,,,,,,,,,,,,,,,,,,,,,,,,,,,,,,,,,,,,,,,,,,,,,,,,,,,,,,,,,,,,,,,,,,,,,,,,,,,,,,,,,,,,,,,,,,,,,,,,,,,,,
0,86,86,49,1,,60f9b7d785b3e37efe2c21d3,62c53975cbc302299560b847,2022-07-06_09h29.03.579,Colour_Asymmetry_Pilot,2022.1.3,Win32,59.63384817,62c50e9c1127f2cd403a315f,,,,,,,,,,,,,,,,,,,,,,,,,,,,,,,,,,,,,,,,,,,,,,,,,,,,,,,,,,,,,,,,,,,,,,,,,,,,,,,,,,,,,,,,,,,,,,,,,,,,,,,,,,,,,,,,,,,,,,,,,,,,,,,,,,,,,,,,,,,,,,,,,,,,,,,,,,,,,,,,,,,
0,87,87,20,1,,60f9b7d785b3e37efe2c21d3,62c53975cbc302299560b847,2022-07-06_09h29.03.579,Colour_Asymmetry_Pilot,2022.1.3,Win32,59.63384817,62c50e9c1127f2cd403a315f,,,,,,,,,,,,,,,,,,,,,,,,,,,,,,,,,,,,,,,,,,,,,,,,,,,,,,,,,,,,,,,,,,,,,,,,,,,,,,,,,,,,,,,,,,,,,,,,,,,,,,,,,,,,,,,,,,,,,,,,,,,,,,,,,,,,,,,,,,,,,,,,,,,,,,,,,,,,,,,,,,,
0,88,88,17,1,,60f9b7d785b3e37efe2c21d3,62c53975cbc302299560b847,2022-07-06_09h29.03.579,Colour_Asymmetry_Pilot,2022.1.3,Win32,59.63384817,62c50e9c1127f2cd403a315f,,,,,,,,,,,,,,,,,,,,,,,,,,,,,,,,,,,,,,,,,,,,,,,,,,,,,,,,,,,,,,,,,,,,,,,,,,,,,,,,,,,,,,,,,,,,,,,,,,,,,,,,,,,,,,,,,,,,,,,,,,,,,,,,,,,,,,,,,,,,,,,,,,,,,,,,,,,,,,,,,,,
0,89,89,87,1,,60f9b7d785b3e37efe2c21d3,62c53975cbc302299560b847,2022-07-06_09h29.03.579,Colour_Asymmetry_Pilot,2022.1.3,Win32,59.63384817,62c50e9c1127f2cd403a315f,,,,,,,,,,,,,,,,,,,,,,,,,,,,,,,,,,,,,,,,,,,,,,,,,,,,,,,,,,,,,,,,,,,,,,,,,,,,,,,,,,,,,,,,,,,,,,,,,,,,,,,,,,,,,,,,,,,,,,,,,,,,,,,,,,,,,,,,,,,,,,,,,,,,,,,,,,,,,,,,,,,
0,90,90,23,1,,60f9b7d785b3e37efe2c21d3,62c53975cbc302299560b847,2022-07-06_09h29.03.579,Colour_Asymmetry_Pilot,2022.1.3,Win32,59.63384817,62c50e9c1127f2cd403a315f,,,,,,,,,,,,,,,,,,,,,,,,,,,,,,,,,,,,,,,,,,,,,,,,,,,,,,,,,,,,,,,,,,,,,,,,,,,,,,,,,,,,,,,,,,,,,,,,,,,,,,,,,,,,,,,,,,,,,,,,,,,,,,,,,,,,,,,,,,,,,,,,,,,,,,,,,,,,,,,,,,,
0,91,91,52,1,,60f9b7d785b3e37efe2c21d3,62c53975cbc302299560b847,2022-07-06_09h29.03.579,Colour_Asymmetry_Pilot,2022.1.3,Win32,59.63384817,62c50e9c1127f2cd403a315f,,,,,,,,,,,,,,,,,,,,,,,,,,,,,,,,,,,,,,,,,,,,,,,,,,,,,,,,,,,,,,,,,,,,,,,,,,,,,,,,,,,,,,,,,,,,,,,,,,,,,,,,,,,,,,,,,,,,,,,,,,,,,,,,,,,,,,,,,,,,,,,,,,,,,,,,,,,,,,,,,,,
0,92,92,1,1,,60f9b7d785b3e37efe2c21d3,62c53975cbc302299560b847,2022-07-06_09h29.03.579,Colour_Asymmetry_Pilot,2022.1.3,Win32,59.63384817,62c50e9c1127f2cd403a315f,,,,,,,,,,,,,,,,,,,,,,,,,,,,,,,,,,,,,,,,,,,,,,,,,,,,,,,,,,,,,,,,,,,,,,,,,,,,,,,,,,,,,,,,,,,,,,,,,,,,,,,,,,,,,,,,,,,,,,,,,,,,,,,,,,,,,,,,,,,,,,,,,,,,,,,,,,,,,,,,,,,
,,,,,,60f9b7d785b3e37efe2c21d3,62c53975cbc302299560b847,2022-07-06_09h29.03.579,Colour_Asymmetry_Pilot,2022.1.3,Win32,59.63384817,62c50e9c1127f2cd403a315f,0,0,0,125,1,threefour,,,,,,,,,,,,,,,,,,,,,,,,,,,,,,,,,,,,,,,,,,,,,,,,,,,,,,,,,,,,,,,,,,,,,,,,,,,,,,,,,,,,,,,,,,,,,,,,,,,,,,,,,,,,,,,,,,,,,,,,,,,,,,,,,,,,,,,,,,,,,,,,,,,,,,,,,,,,,
,,,,,,60f9b7d785b3e37efe2c21d3,62c53975cbc302299560b847,2022-07-06_09h29.03.579,Colour_Asymmetry_Pilot,2022.1.3,Win32,59.63384817,62c50e9c1127f2cd403a315f,0,1,1,153,1,onethree,,,,,,,,,,,,,,,,,,,,,,,,,,,,,,,,,,,,,,,,,,,,,,,,,,,,,,,,,,,,,,,,,,,,,,,,,,,,,,,,,,,,,,,,,,,,,,,,,,,,,,,,,,,,,,,,,,,,,,,,,,,,,,,,,,,,,,,,,,,,,,,,,,,,,,,,,,,,,
,,,,,,60f9b7d785b3e37efe2c21d3,62c53975cbc302299560b847,2022-07-06_09h29.03.579,Colour_Asymmetry_Pilot,2022.1.3,Win32,59.63384817,62c50e9c1127f2cd403a315f,0,2,2,93,1,threefour,,,,,,,,,,,,,,,,,,,,,,,,,,,,,,,,,,,,,,,,,,,,,,,,,,,,,,,,,,,,,,,,,,,,,,,,,,,,,,,,,,,,,,,,,,,,,,,,,,,,,,,,,,,,,,,,,,,,,,,,,,,,,,,,,,,,,,,,,,,,,,,,,,,,,,,,,,,,,
,,,,,,60f9b7d785b3e37efe2c21d3,62c53975cbc302299560b847,2022-07-06_09h29.03.579,Colour_Asymmetry_Pilot,2022.1.3,Win32,59.63384817,62c50e9c1127f2cd403a315f,0,3,3,50,1,twoone,,,,,,,,,,,,,,,,,,,,,,,,,,,,,,,,,,,,,,,,,,,,,,,,,,,,,,,,,,,,,,,,,,,,,,,,,,,,,,,,,,,,,,,,,,,,,,,,,,,,,,,,,,,,,,,,,,,,,,,,,,,,,,,,,,,,,,,,,,,,,,,,,,,,,,,,,,,,,
,,,,,,60f9b7d785b3e37efe2c21d3,62c53975cbc302299560b847,2022-07-06_09h29.03.579,Colour_Asymmetry_Pilot,2022.1.3,Win32,59.63384817,62c50e9c1127f2cd403a315f,0,4,4,69,1,threefour,,,,,,,,,,,,,,,,,,,,,,,,,,,,,,,,,,,,,,,,,,,,,,,,,,,,,,,,,,,,,,,,,,,,,,,,,,,,,,,,,,,,,,,,,,,,,,,,,,,,,,,,,,,,,,,,,,,,,,,,,,,,,,,,,,,,,,,,,,,,,,,,,,,,,,,,,,,,,
,,,,,,60f9b7d785b3e37efe2c21d3,62c53975cbc302299560b847,2022-07-06_09h29.03.579,Colour_Asymmetry_Pilot,2022.1.3,Win32,59.63384817,62c50e9c1127f2cd403a315f,0,5,5,126,1,fourtwo,,,,,,,,,,,,,,,,,,,,,,,,,,,,,,,,,,,,,,,,,,,,,,,,,,,,,,,,,,,,,,,,,,,,,,,,,,,,,,,,,,,,,,,,,,,,,,,,,,,,,,,,,,,,,,,,,,,,,,,,,,,,,,,,,,,,,,,,,,,,,,,,,,,,,,,,,,,,,
,,,,,,60f9b7d785b3e37efe2c21d3,62c53975cbc302299560b847,2022-07-06_09h29.03.579,Colour_Asymmetry_Pilot,2022.1.3,Win32,59.63384817,62c50e9c1127f2cd403a315f,0,6,6,48,1,onetwo,,,,,,,,,,,,,,,,,,,,,,,,,,,,,,,,,,,,,,,,,,,,,,,,,,,,,,,,,,,,,,,,,,,,,,,,,,,,,,,,,,,,,,,,,,,,,,,,,,,,,,,,,,,,,,,,,,,,,,,,,,,,,,,,,,,,,,,,,,,,,,,,,,,,,,,,,,,,,
,,,,,,60f9b7d785b3e37efe2c21d3,62c53975cbc302299560b847,2022-07-06_09h29.03.579,Colour_Asymmetry_Pilot,2022.1.3,Win32,59.63384817,62c50e9c1127f2cd403a315f,0,7,7,99,1,twofour,,,,,,,,,,,,,,,,,,,,,,,,,,,,,,,,,,,,,,,,,,,,,,,,,,,,,,,,,,,,,,,,,,,,,,,,,,,,,,,,,,,,,,,,,,,,,,,,,,,,,,,,,,,,,,,,,,,,,,,,,,,,,,,,,,,,,,,,,,,,,,,,,,,,,,,,,,,,,
,,,,,,60f9b7d785b3e37efe2c21d3,62c53975cbc302299560b847,2022-07-06_09h29.03.579,Colour_Asymmetry_Pilot,2022.1.3,Win32,59.63384817,62c50e9c1127f2cd403a315f,0,8,8,85,1,threefour,,,,,,,,,,,,,,,,,,,,,,,,,,,,,,,,,,,,,,,,,,,,,,,,,,,,,,,,,,,,,,,,,,,,,,,,,,,,,,,,,,,,,,,,,,,,,,,,,,,,,,,,,,,,,,,,,,,,,,,,,,,,,,,,,,,,,,,,,,,,,,,,,,,,,,,,,,,,,
,,,,,,60f9b7d785b3e37efe2c21d3,62c53975cbc302299560b847,2022-07-06_09h29.03.579,Colour_Asymmetry_Pilot,2022.1.3,Win32,59.63384817,62c50e9c1127f2cd403a315f,0,9,9,81,1,onethree,,,,,,,,,,,,,,,,,,,,,,,,,,,,,,,,,,,,,,,,,,,,,,,,,,,,,,,,,,,,,,,,,,,,,,,,,,,,,,,,,,,,,,,,,,,,,,,,,,,,,,,,,,,,,,,,,,,,,,,,,,,,,,,,,,,,,,,,,,,,,,,,,,,,,,,,,,,,,
,,,,,,60f9b7d785b3e37efe2c21d3,62c53975cbc302299560b847,2022-07-06_09h29.03.579,Colour_Asymmetry_Pilot,2022.1.3,Win32,59.63384817,62c50e9c1127f2cd403a315f,0,10,10,113,1,onethree,,,,,,,,,,,,,,,,,,,,,,,,,,,,,,,,,,,,,,,,,,,,,,,,,,,,,,,,,,,,,,,,,,,,,,,,,,,,,,,,,,,,,,,,,,,,,,,,,,,,,,,,,,,,,,,,,,,,,,,,,,,,,,,,,,,,,,,,,,,,,,,,,,,,,,,,,,,,,
,,,,,,60f9b7d785b3e37efe2c21d3,62c53975cbc302299560b847,2022-07-06_09h29.03.579,Colour_Asymmetry_Pilot,2022.1.3,Win32,59.63384817,62c50e9c1127f2cd403a315f,0,11,11,150,1,fourtwo,,,,,,,,,,,,,,,,,,,,,,,,,,,,,,,,,,,,,,,,,,,,,,,,,,,,,,,,,,,,,,,,,,,,,,,,,,,,,,,,,,,,,,,,,,,,,,,,,,,,,,,,,,,,,,,,,,,,,,,,,,,,,,,,,,,,,,,,,,,,,,,,,,,,,,,,,,,,,
,,,,,,60f9b7d785b3e37efe2c21d3,62c53975cbc302299560b847,2022-07-06_09h29.03.579,Colour_Asymmetry_Pilot,2022.1.3,Win32,59.63384817,62c50e9c1127f2cd403a315f,0,12,12,155,1,twofour,,,,,,,,,,,,,,,,,,,,,,,,,,,,,,,,,,,,,,,,,,,,,,,,,,,,,,,,,,,,,,,,,,,,,,,,,,,,,,,,,,,,,,,,,,,,,,,,,,,,,,,,,,,,,,,,,,,,,,,,,,,,,,,,,,,,,,,,,,,,,,,,,,,,,,,,,,,,,
,,,,,,60f9b7d785b3e37efe2c21d3,62c53975cbc302299560b847,2022-07-06_09h29.03.579,Colour_Asymmetry_Pilot,2022.1.3,Win32,59.63384817,62c50e9c1127f2cd403a315f,0,13,13,122,1,twoone,,,,,,,,,,,,,,,,,,,,,,,,,,,,,,,,,,,,,,,,,,,,,,,,,,,,,,,,,,,,,,,,,,,,,,,,,,,,,,,,,,,,,,,,,,,,,,,,,,,,,,,,,,,,,,,,,,,,,,,,,,,,,,,,,,,,,,,,,,,,,,,,,,,,,,,,,,,,,
,,,,,,60f9b7d785b3e37efe2c21d3,62c53975cbc302299560b847,2022-07-06_09h29.03.579,Colour_Asymmetry_Pilot,2022.1.3,Win32,59.63384817,62c50e9c1127f2cd403a315f,0,14,14,55,1,fourthree,,,,,,,,,,,,,,,,,,,,,,,,,,,,,,,,,,,,,,,,,,,,,,,,,,,,,,,,,,,,,,,,,,,,,,,,,,,,,,,,,,,,,,,,,,,,,,,,,,,,,,,,,,,,,,,,,,,,,,,,,,,,,,,,,,,,,,,,,,,,,,,,,,,,,,,,,,,,,
,,,,,,60f9b7d785b3e37efe2c21d3,62c53975cbc302299560b847,2022-07-06_09h29.03.579,Colour_Asymmetry_Pilot,2022.1.3,Win32,59.63384817,62c50e9c1127f2cd403a315f,0,15,15,157,1,threefour,,,,,,,,,,,,,,,,,,,,,,,,,,,,,,,,,,,,,,,,,,,,,,,,,,,,,,,,,,,,,,,,,,,,,,,,,,,,,,,,,,,,,,,,,,,,,,,,,,,,,,,,,,,,,,,,,,,,,,,,,,,,,,,,,,,,,,,,,,,,,,,,,,,,,,,,,,,,,
,,,,,,60f9b7d785b3e37efe2c21d3,62c53975cbc302299560b847,2022-07-06_09h29.03.579,Colour_Asymmetry_Pilot,2022.1.3,Win32,59.63384817,62c50e9c1127f2cd403a315f,0,16,16,53,1,threefour,,,,,,,,,,,,,,,,,,,,,,,,,,,,,,,,,,,,,,,,,,,,,,,,,,,,,,,,,,,,,,,,,,,,,,,,,,,,,,,,,,,,,,,,,,,,,,,,,,,,,,,,,,,,,,,,,,,,,,,,,,,,,,,,,,,,,,,,,,,,,,,,,,,,,,,,,,,,,
,,,,,,60f9b7d785b3e37efe2c21d3,62c53975cbc302299560b847,2022-07-06_09h29.03.579,Colour_Asymmetry_Pilot,2022.1.3,Win32,59.63384817,62c50e9c1127f2cd403a315f,0,17,17,17,1,onethree,,,,,,,,,,,,,,,,,,,,,,,,,,,,,,,,,,,,,,,,,,,,,,,,,,,,,,,,,,,,,,,,,,,,,,,,,,,,,,,,,,,,,,,,,,,,,,,,,,,,,,,,,,,,,,,,,,,,,,,,,,,,,,,,,,,,,,,,,,,,,,,,,,,,,,,,,,,,,
,,,,,,60f9b7d785b3e37efe2c21d3,62c53975cbc302299560b847,2022-07-06_09h29.03.579,Colour_Asymmetry_Pilot,2022.1.3,Win32,59.63384817,62c50e9c1127f2cd403a315f,0,18,18,32,1,onetwo,,,,,,,,,,,,,,,,,,,,,,,,,,,,,,,,,,,,,,,,,,,,,,,,,,,,,,,,,,,,,,,,,,,,,,,,,,,,,,,,,,,,,,,,,,,,,,,,,,,,,,,,,,,,,,,,,,,,,,,,,,,,,,,,,,,,,,,,,,,,,,,,,,,,,,,,,,,,,
,,,,,,60f9b7d785b3e37efe2c21d3,62c53975cbc302299560b847,2022-07-06_09h29.03.579,Colour_Asymmetry_Pilot,2022.1.3,Win32,59.63384817,62c50e9c1127f2cd403a315f,0,19,19,34,1,twoone,,,,,,,,,,,,,,,,,,,,,,,,,,,,,,,,,,,,,,,,,,,,,,,,,,,,,,,,,,,,,,,,,,,,,,,,,,,,,,,,,,,,,,,,,,,,,,,,,,,,,,,,,,,,,,,,,,,,,,,,,,,,,,,,,,,,,,,,,,,,,,,,,,,,,,,,,,,,,
,,,,,,60f9b7d785b3e37efe2c21d3,62c53975cbc302299560b847,2022-07-06_09h29.03.579,Colour_Asymmetry_Pilot,2022.1.3,Win32,59.63384817,62c50e9c1127f2cd403a315f,0,20,20,83,1,twofour,,,,,,,,,,,,,,,,,,,,,,,,,,,,,,,,,,,,,,,,,,,,,,,,,,,,,,,,,,,,,,,,,,,,,,,,,,,,,,,,,,,,,,,,,,,,,,,,,,,,,,,,,,,,,,,,,,,,,,,,,,,,,,,,,,,,,,,,,,,,,,,,,,,,,,,,,,,,,
,,,,,,60f9b7d785b3e37efe2c21d3,62c53975cbc302299560b847,2022-07-06_09h29.03.579,Colour_Asymmetry_Pilot,2022.1.3,Win32,59.63384817,62c50e9c1127f2cd403a315f,0,21,21,95,1,fourthree,,,,,,,,,,,,,,,,,,,,,,,,,,,,,,,,,,,,,,,,,,,,,,,,,,,,,,,,,,,,,,,,,,,,,,,,,,,,,,,,,,,,,,,,,,,,,,,,,,,,,,,,,,,,,,,,,,,,,,,,,,,,,,,,,,,,,,,,,,,,,,,,,,,,,,,,,,,,,
,,,,,,60f9b7d785b3e37efe2c21d3,62c53975cbc302299560b847,2022-07-06_09h29.03.579,Colour_Asymmetry_Pilot,2022.1.3,Win32,59.63384817,62c50e9c1127f2cd403a315f,0,22,22,33,1,onethree,,,,,,,,,,,,,,,,,,,,,,,,,,,,,,,,,,,,,,,,,,,,,,,,,,,,,,,,,,,,,,,,,,,,,,,,,,,,,,,,,,,,,,,,,,,,,,,,,,,,,,,,,,,,,,,,,,,,,,,,,,,,,,,,,,,,,,,,,,,,,,,,,,,,,,,,,,,,,
,,,,,,60f9b7d785b3e37efe2c21d3,62c53975cbc302299560b847,2022-07-06_09h29.03.579,Colour_Asymmetry_Pilot,2022.1.3,Win32,59.63384817,62c50e9c1127f2cd403a315f,0,23,23,154,1,twoone,,,,,,,,,,,,,,,,,,,,,,,,,,,,,,,,,,,,,,,,,,,,,,,,,,,,,,,,,,,,,,,,,,,,,,,,,,,,,,,,,,,,,,,,,,,,,,,,,,,,,,,,,,,,,,,,,,,,,,,,,,,,,,,,,,,,,,,,,,,,,,,,,,,,,,,,,,,,,
,,,,,,60f9b7d785b3e37efe2c21d3,62c53975cbc302299560b847,2022-07-06_09h29.03.579,Colour_Asymmetry_Pilot,2022.1.3,Win32,59.63384817,62c50e9c1127f2cd403a315f,0,24,24,65,1,onethree,,,,,,,,,,,,,,,,,,,,,,,,,,,,,,,,,,,,,,,,,,,,,,,,,,,,,,,,,,,,,,,,,,,,,,,,,,,,,,,,,,,,,,,,,,,,,,,,,,,,,,,,,,,,,,,,,,,,,,,,,,,,,,,,,,,,,,,,,,,,,,,,,,,,,,,,,,,,,
,,,,,,60f9b7d785b3e37efe2c21d3,62c53975cbc302299560b847,2022-07-06_09h29.03.579,Colour_Asymmetry_Pilot,2022.1.3,Win32,59.63384817,62c50e9c1127f2cd403a315f,0,25,25,91,1,twofour,,,,,,,,,,,,,,,,,,,,,,,,,,,,,,,,,,,,,,,,,,,,,,,,,,,,,,,,,,,,,,,,,,,,,,,,,,,,,,,,,,,,,,,,,,,,,,,,,,,,,,,,,,,,,,,,,,,,,,,,,,,,,,,,,,,,,,,,,,,,,,,,,,,,,,,,,,,,,
,,,,,,60f9b7d785b3e37efe2c21d3,62c53975cbc302299560b847,2022-07-06_09h29.03.579,Colour_Asymmetry_Pilot,2022.1.3,Win32,59.63384817,62c50e9c1127f2cd403a315f,0,26,26,97,1,onethree,,,,,,,,,,,,,,,,,,,,,,,,,,,,,,,,,,,,,,,,,,,,,,,,,,,,,,,,,,,,,,,,,,,,,,,,,,,,,,,,,,,,,,,,,,,,,,,,,,,,,,,,,,,,,,,,,,,,,,,,,,,,,,,,,,,,,,,,,,,,,,,,,,,,,,,,,,,,,
,,,,,,60f9b7d785b3e37efe2c21d3,62c53975cbc302299560b847,2022-07-06_09h29.03.579,Colour_Asymmetry_Pilot,2022.1.3,Win32,59.63384817,62c50e9c1127f2cd403a315f,0,27,27,160,1,onetwo,,,,,,,,,,,,,,,,,,,,,,,,,,,,,,,,,,,,,,,,,,,,,,,,,,,,,,,,,,,,,,,,,,,,,,,,,,,,,,,,,,,,,,,,,,,,,,,,,,,,,,,,,,,,,,,,,,,,,,,,,,,,,,,,,,,,,,,,,,,,,,,,,,,,,,,,,,,,,
,,,,,,60f9b7d785b3e37efe2c21d3,62c53975cbc302299560b847,2022-07-06_09h29.03.579,Colour_Asymmetry_Pilot,2022.1.3,Win32,59.63384817,62c50e9c1127f2cd403a315f,0,28,28,60,1,threeone,,,,,,,,,,,,,,,,,,,,,,,,,,,,,,,,,,,,,,,,,,,,,,,,,,,,,,,,,,,,,,,,,,,,,,,,,,,,,,,,,,,,,,,,,,,,,,,,,,,,,,,,,,,,,,,,,,,,,,,,,,,,,,,,,,,,,,,,,,,,,,,,,,,,,,,,,,,,,
,,,,,,60f9b7d785b3e37efe2c21d3,62c53975cbc302299560b847,2022-07-06_09h29.03.579,Colour_Asymmetry_Pilot,2022.1.3,Win32,59.63384817,62c50e9c1127f2cd403a315f,0,29,29,8,1,onetwo,,,,,,,,,,,,,,,,,,,,,,,,,,,,,,,,,,,,,,,,,,,,,,,,,,,,,,,,,,,,,,,,,,,,,,,,,,,,,,,,,,,,,,,,,,,,,,,,,,,,,,,,,,,,,,,,,,,,,,,,,,,,,,,,,,,,,,,,,,,,,,,,,,,,,,,,,,,,,
,,,,,,60f9b7d785b3e37efe2c21d3,62c53975cbc302299560b847,2022-07-06_09h29.03.579,Colour_Asymmetry_Pilot,2022.1.3,Win32,59.63384817,62c50e9c1127f2cd403a315f,0,30,30,54,1,fourtwo,,,,,,,,,,,,,,,,,,,,,,,,,,,,,,,,,,,,,,,,,,,,,,,,,,,,,,,,,,,,,,,,,,,,,,,,,,,,,,,,,,,,,,,,,,,,,,,,,,,,,,,,,,,,,,,,,,,,,,,,,,,,,,,,,,,,,,,,,,,,,,,,,,,,,,,,,,,,,
,,,,,,60f9b7d785b3e37efe2c21d3,62c53975cbc302299560b847,2022-07-06_09h29.03.579,Colour_Asymmetry_Pilot,2022.1.3,Win32,59.63384817,62c50e9c1127f2cd403a315f,0,31,31,107,1,twofour,,,,,,,,,,,,,,,,,,,,,,,,,,,,,,,,,,,,,,,,,,,,,,,,,,,,,,,,,,,,,,,,,,,,,,,,,,,,,,,,,,,,,,,,,,,,,,,,,,,,,,,,,,,,,,,,,,,,,,,,,,,,,,,,,,,,,,,,,,,,,,,,,,,,,,,,,,,,,
,,,,,,60f9b7d785b3e37efe2c21d3,62c53975cbc302299560b847,2022-07-06_09h29.03.579,Colour_Asymmetry_Pilot,2022.1.3,Win32,59.63384817,62c50e9c1127f2cd403a315f,0,32,32,14,1,fourtwo,,,,,,,,,,,,,,,,,,,,,,,,,,,,,,,,,,,,,,,,,,,,,,,,,,,,,,,,,,,,,,,,,,,,,,,,,,,,,,,,,,,,,,,,,,,,,,,,,,,,,,,,,,,,,,,,,,,,,,,,,,,,,,,,,,,,,,,,,,,,,,,,,,,,,,,,,,,,,
,,,,,,60f9b7d785b3e37efe2c21d3,62c53975cbc302299560b847,2022-07-06_09h29.03.579,Colour_Asymmetry_Pilot,2022.1.3,Win32,59.63384817,62c50e9c1127f2cd403a315f,0,33,33,70,1,fourtwo,,,,,,,,,,,,,,,,,,,,,,,,,,,,,,,,,,,,,,,,,,,,,,,,,,,,,,,,,,,,,,,,,,,,,,,,,,,,,,,,,,,,,,,,,,,,,,,,,,,,,,,,,,,,,,,,,,,,,,,,,,,,,,,,,,,,,,,,,,,,,,,,,,,,,,,,,,,,,
,,,,,,60f9b7d785b3e37efe2c21d3,62c53975cbc302299560b847,2022-07-06_09h29.03.579,Colour_Asymmetry_Pilot,2022.1.3,Win32,59.63384817,62c50e9c1127f2cd403a315f,0,34,34,6,1,fourtwo,,,,,,,,,,,,,,,,,,,,,,,,,,,,,,,,,,,,,,,,,,,,,,,,,,,,,,,,,,,,,,,,,,,,,,,,,,,,,,,,,,,,,,,,,,,,,,,,,,,,,,,,,,,,,,,,,,,,,,,,,,,,,,,,,,,,,,,,,,,,,,,,,,,,,,,,,,,,,
,,,,,,60f9b7d785b3e37efe2c21d3,62c53975cbc302299560b847,2022-07-06_09h29.03.579,Colour_Asymmetry_Pilot,2022.1.3,Win32,59.63384817,62c50e9c1127f2cd403a315f,0,35,35,64,1,onetwo,,,,,,,,,,,,,,,,,,,,,,,,,,,,,,,,,,,,,,,,,,,,,,,,,,,,,,,,,,,,,,,,,,,,,,,,,,,,,,,,,,,,,,,,,,,,,,,,,,,,,,,,,,,,,,,,,,,,,,,,,,,,,,,,,,,,,,,,,,,,,,,,,,,,,,,,,,,,,
,,,,,,60f9b7d785b3e37efe2c21d3,62c53975cbc302299560b847,2022-07-06_09h29.03.579,Colour_Asymmetry_Pilot,2022.1.3,Win32,59.63384817,62c50e9c1127f2cd403a315f,0,36,36,31,1,fourthree,,,,,,,,,,,,,,,,,,,,,,,,,,,,,,,,,,,,,,,,,,,,,,,,,,,,,,,,,,,,,,,,,,,,,,,,,,,,,,,,,,,,,,,,,,,,,,,,,,,,,,,,,,,,,,,,,,,,,,,,,,,,,,,,,,,,,,,,,,,,,,,,,,,,,,,,,,,,,
,,,,,,60f9b7d785b3e37efe2c21d3,62c53975cbc302299560b847,2022-07-06_09h29.03.579,Colour_Asymmetry_Pilot,2022.1.3,Win32,59.63384817,62c50e9c1127f2cd403a315f,0,37,37,115,1,twofour,,,,,,,,,,,,,,,,,,,,,,,,,,,,,,,,,,,,,,,,,,,,,,,,,,,,,,,,,,,,,,,,,,,,,,,,,,,,,,,,,,,,,,,,,,,,,,,,,,,,,,,,,,,,,,,,,,,,,,,,,,,,,,,,,,,,,,,,,,,,,,,,,,,,,,,,,,,,,
,,,,,,60f9b7d785b3e37efe2c21d3,62c53975cbc302299560b847,2022-07-06_09h29.03.579,Colour_Asymmetry_Pilot,2022.1.3,Win32,59.63384817,62c50e9c1127f2cd403a315f,0,38,38,76,1,threeone,,,,,,,,,,,,,,,,,,,,,,,,,,,,,,,,,,,,,,,,,,,,,,,,,,,,,,,,,,,,,,,,,,,,,,,,,,,,,,,,,,,,,,,,,,,,,,,,,,,,,,,,,,,,,,,,,,,,,,,,,,,,,,,,,,,,,,,,,,,,,,,,,,,,,,,,,,,,,
,,,,,,60f9b7d785b3e37efe2c21d3,62c53975cbc302299560b847,2022-07-06_09h29.03.579,Colour_Asymmetry_Pilot,2022.1.3,Win32,59.63384817,62c50e9c1127f2cd403a315f,0,39,39,144,1,onetwo,,,,,,,,,,,,,,,,,,,,,,,,,,,,,,,,,,,,,,,,,,,,,,,,,,,,,,,,,,,,,,,,,,,,,,,,,,,,,,,,,,,,,,,,,,,,,,,,,,,,,,,,,,,,,,,,,,,,,,,,,,,,,,,,,,,,,,,,,,,,,,,,,,,,,,,,,,,,,
,,,,,,60f9b7d785b3e37efe2c21d3,62c53975cbc302299560b847,2022-07-06_09h29.03.579,Colour_Asymmetry_Pilot,2022.1.3,Win32,59.63384817,62c50e9c1127f2cd403a315f,0,40,40,75,1,twofour,,,,,,,,,,,,,,,,,,,,,,,,,,,,,,,,,,,,,,,,,,,,,,,,,,,,,,,,,,,,,,,,,,,,,,,,,,,,,,,,,,,,,,,,,,,,,,,,,,,,,,,,,,,,,,,,,,,,,,,,,,,,,,,,,,,,,,,,,,,,,,,,,,,,,,,,,,,,,
,,,,,,60f9b7d785b3e37efe2c21d3,62c53975cbc302299560b847,2022-07-06_09h29.03.579,Colour_Asymmetry_Pilot,2022.1.3,Win32,59.63384817,62c50e9c1127f2cd403a315f,0,41,41,36,1,threeone,,,,,,,,,,,,,,,,,,,,,,,,,,,,,,,,,,,,,,,,,,,,,,,,,,,,,,,,,,,,,,,,,,,,,,,,,,,,,,,,,,,,,,,,,,,,,,,,,,,,,,,,,,,,,,,,,,,,,,,,,,,,,,,,,,,,,,,,,,,,,,,,,,,,,,,,,,,,,
,,,,,,60f9b7d785b3e37efe2c21d3,62c53975cbc302299560b847,2022-07-06_09h29.03.579,Colour_Asymmetry_Pilot,2022.1.3,Win32,59.63384817,62c50e9c1127f2cd403a315f,0,42,42,89,1,onethree,,,,,,,,,,,,,,,,,,,,,,,,,,,,,,,,,,,,,,,,,,,,,,,,,,,,,,,,,,,,,,,,,,,,,,,,,,,,,,,,,,,,,,,,,,,,,,,,,,,,,,,,,,,,,,,,,,,,,,,,,,,,,,,,,,,,,,,,,,,,,,,,,,,,,,,,,,,,,
,,,,,,60f9b7d785b3e37efe2c21d3,62c53975cbc302299560b847,2022-07-06_09h29.03.579,Colour_Asymmetry_Pilot,2022.1.3,Win32,59.63384817,62c50e9c1127f2cd403a315f,0,43,43,98,1,twoone,,,,,,,,,,,,,,,,,,,,,,,,,,,,,,,,,,,,,,,,,,,,,,,,,,,,,,,,,,,,,,,,,,,,,,,,,,,,,,,,,,,,,,,,,,,,,,,,,,,,,,,,,,,,,,,,,,,,,,,,,,,,,,,,,,,,,,,,,,,,,,,,,,,,,,,,,,,,,
,,,,,,60f9b7d785b3e37efe2c21d3,62c53975cbc302299560b847,2022-07-06_09h29.03.579,Colour_Asymmetry_Pilot,2022.1.3,Win32,59.63384817,62c50e9c1127f2cd403a315f,0,44,44,38,1,fourtwo,,,,,,,,,,,,,,,,,,,,,,,,,,,,,,,,,,,,,,,,,,,,,,,,,,,,,,,,,,,,,,,,,,,,,,,,,,,,,,,,,,,,,,,,,,,,,,,,,,,,,,,,,,,,,,,,,,,,,,,,,,,,,,,,,,,,,,,,,,,,,,,,,,,,,,,,,,,,,
,,,,,,60f9b7d785b3e37efe2c21d3,62c53975cbc302299560b847,2022-07-06_09h29.03.579,Colour_Asymmetry_Pilot,2022.1.3,Win32,59.63384817,62c50e9c1127f2cd403a315f,0,45,45,46,1,fourtwo,,,,,,,,,,,,,,,,,,,,,,,,,,,,,,,,,,,,,,,,,,,,,,,,,,,,,,,,,,,,,,,,,,,,,,,,,,,,,,,,,,,,,,,,,,,,,,,,,,,,,,,,,,,,,,,,,,,,,,,,,,,,,,,,,,,,,,,,,,,,,,,,,,,,,,,,,,,,,
,,,,,,60f9b7d785b3e37efe2c21d3,62c53975cbc302299560b847,2022-07-06_09h29.03.579,Colour_Asymmetry_Pilot,2022.1.3,Win32,59.63384817,62c50e9c1127f2cd403a315f,0,46,46,139,1,twofour,,,,,,,,,,,,,,,,,,,,,,,,,,,,,,,,,,,,,,,,,,,,,,,,,,,,,,,,,,,,,,,,,,,,,,,,,,,,,,,,,,,,,,,,,,,,,,,,,,,,,,,,,,,,,,,,,,,,,,,,,,,,,,,,,,,,,,,,,,,,,,,,,,,,,,,,,,,,,
,,,,,,60f9b7d785b3e37efe2c21d3,62c53975cbc302299560b847,2022-07-06_09h29.03.579,Colour_Asymmetry_Pilot,2022.1.3,Win32,59.63384817,62c50e9c1127f2cd403a315f,0,47,47,149,1,threefour,,,,,,,,,,,,,,,,,,,,,,,,,,,,,,,,,,,,,,,,,,,,,,,,,,,,,,,,,,,,,,,,,,,,,,,,,,,,,,,,,,,,,,,,,,,,,,,,,,,,,,,,,,,,,,,,,,,,,,,,,,,,,,,,,,,,,,,,,,,,,,,,,,,,,,,,,,,,,
,,,,,,60f9b7d785b3e37efe2c21d3,62c53975cbc302299560b847,2022-07-06_09h29.03.579,Colour_Asymmetry_Pilot,2022.1.3,Win32,59.63384817,62c50e9c1127f2cd403a315f,0,48,48,13,1,threefour,,,,,,,,,,,,,,,,,,,,,,,,,,,,,,,,,,,,,,,,,,,,,,,,,,,,,,,,,,,,,,,,,,,,,,,,,,,,,,,,,,,,,,,,,,,,,,,,,,,,,,,,,,,,,,,,,,,,,,,,,,,,,,,,,,,,,,,,,,,,,,,,,,,,,,,,,,,,,
,,,,,,60f9b7d785b3e37efe2c21d3,62c53975cbc302299560b847,2022-07-06_09h29.03.579,Colour_Asymmetry_Pilot,2022.1.3,Win32,59.63384817,62c50e9c1127f2cd403a315f,0,49,49,52,1,threeone,,,,,,,,,,,,,,,,,,,,,,,,,,,,,,,,,,,,,,,,,,,,,,,,,,,,,,,,,,,,,,,,,,,,,,,,,,,,,,,,,,,,,,,,,,,,,,,,,,,,,,,,,,,,,,,,,,,,,,,,,,,,,,,,,,,,,,,,,,,,,,,,,,,,,,,,,,,,,
,,,,,,60f9b7d785b3e37efe2c21d3,62c53975cbc302299560b847,2022-07-06_09h29.03.579,Colour_Asymmetry_Pilot,2022.1.3,Win32,59.63384817,62c50e9c1127f2cd403a315f,0,50,50,57,1,onethree,,,,,,,,,,,,,,,,,,,,,,,,,,,,,,,,,,,,,,,,,,,,,,,,,,,,,,,,,,,,,,,,,,,,,,,,,,,,,,,,,,,,,,,,,,,,,,,,,,,,,,,,,,,,,,,,,,,,,,,,,,,,,,,,,,,,,,,,,,,,,,,,,,,,,,,,,,,,,
,,,,,,60f9b7d785b3e37efe2c21d3,62c53975cbc302299560b847,2022-07-06_09h29.03.579,Colour_Asymmetry_Pilot,2022.1.3,Win32,59.63384817,62c50e9c1127f2cd403a315f,0,51,51,4,1,threeone,,,,,,,,,,,,,,,,,,,,,,,,,,,,,,,,,,,,,,,,,,,,,,,,,,,,,,,,,,,,,,,,,,,,,,,,,,,,,,,,,,,,,,,,,,,,,,,,,,,,,,,,,,,,,,,,,,,,,,,,,,,,,,,,,,,,,,,,,,,,,,,,,,,,,,,,,,,,,
,,,,,,60f9b7d785b3e37efe2c21d3,62c53975cbc302299560b847,2022-07-06_09h29.03.579,Colour_Asymmetry_Pilot,2022.1.3,Win32,59.63384817,62c50e9c1127f2cd403a315f,0,52,52,45,1,threefour,,,,,,,,,,,,,,,,,,,,,,,,,,,,,,,,,,,,,,,,,,,,,,,,,,,,,,,,,,,,,,,,,,,,,,,,,,,,,,,,,,,,,,,,,,,,,,,,,,,,,,,,,,,,,,,,,,,,,,,,,,,,,,,,,,,,,,,,,,,,,,,,,,,,,,,,,,,,,
,,,,,,60f9b7d785b3e37efe2c21d3,62c53975cbc302299560b847,2022-07-06_09h29.03.579,Colour_Asymmetry_Pilot,2022.1.3,Win32,59.63384817,62c50e9c1127f2cd403a315f,0,53,53,132,1,threeone,,,,,,,,,,,,,,,,,,,,,,,,,,,,,,,,,,,,,,,,,,,,,,,,,,,,,,,,,,,,,,,,,,,,,,,,,,,,,,,,,,,,,,,,,,,,,,,,,,,,,,,,,,,,,,,,,,,,,,,,,,,,,,,,,,,,,,,,,,,,,,,,,,,,,,,,,,,,,
,,,,,,60f9b7d785b3e37efe2c21d3,62c53975cbc302299560b847,2022-07-06_09h29.03.579,Colour_Asymmetry_Pilot,2022.1.3,Win32,59.63384817,62c50e9c1127f2cd403a315f,0,54,54,19,1,twofour,,,,,,,,,,,,,,,,,,,,,,,,,,,,,,,,,,,,,,,,,,,,,,,,,,,,,,,,,,,,,,,,,,,,,,,,,,,,,,,,,,,,,,,,,,,,,,,,,,,,,,,,,,,,,,,,,,,,,,,,,,,,,,,,,,,,,,,,,,,,,,,,,,,,,,,,,,,,,
,,,,,,60f9b7d785b3e37efe2c21d3,62c53975cbc302299560b847,2022-07-06_09h29.03.579,Colour_Asymmetry_Pilot,2022.1.3,Win32,59.63384817,62c50e9c1127f2cd403a315f,0,55,55,28,1,threeone,,,,,,,,,,,,,,,,,,,,,,,,,,,,,,,,,,,,,,,,,,,,,,,,,,,,,,,,,,,,,,,,,,,,,,,,,,,,,,,,,,,,,,,,,,,,,,,,,,,,,,,,,,,,,,,,,,,,,,,,,,,,,,,,,,,,,,,,,,,,,,,,,,,,,,,,,,,,,
,,,,,,60f9b7d785b3e37efe2c21d3,62c53975cbc302299560b847,2022-07-06_09h29.03.579,Colour_Asymmetry_Pilot,2022.1.3,Win32,59.63384817,62c50e9c1127f2cd403a315f,0,56,56,145,1,onethree,,,,,,,,,,,,,,,,,,,,,,,,,,,,,,,,,,,,,,,,,,,,,,,,,,,,,,,,,,,,,,,,,,,,,,,,,,,,,,,,,,,,,,,,,,,,,,,,,,,,,,,,,,,,,,,,,,,,,,,,,,,,,,,,,,,,,,,,,,,,,,,,,,,,,,,,,,,,,
,,,,,,60f9b7d785b3e37efe2c21d3,62c53975cbc302299560b847,2022-07-06_09h29.03.579,Colour_Asymmetry_Pilot,2022.1.3,Win32,59.63384817,62c50e9c1127f2cd403a315f,0,57,57,22,1,fourtwo,,,,,,,,,,,,,,,,,,,,,,,,,,,,,,,,,,,,,,,,,,,,,,,,,,,,,,,,,,,,,,,,,,,,,,,,,,,,,,,,,,,,,,,,,,,,,,,,,,,,,,,,,,,,,,,,,,,,,,,,,,,,,,,,,,,,,,,,,,,,,,,,,,,,,,,,,,,,,
,,,,,,60f9b7d785b3e37efe2c21d3,62c53975cbc302299560b847,2022-07-06_09h29.03.579,Colour_Asymmetry_Pilot,2022.1.3,Win32,59.63384817,62c50e9c1127f2cd403a315f,0,58,58,138,1,twoone,,,,,,,,,,,,,,,,,,,,,,,,,,,,,,,,,,,,,,,,,,,,,,,,,,,,,,,,,,,,,,,,,,,,,,,,,,,,,,,,,,,,,,,,,,,,,,,,,,,,,,,,,,,,,,,,,,,,,,,,,,,,,,,,,,,,,,,,,,,,,,,,,,,,,,,,,,,,,
,,,,,,60f9b7d785b3e37efe2c21d3,62c53975cbc302299560b847,2022-07-06_09h29.03.579,Colour_Asymmetry_Pilot,2022.1.3,Win32,59.63384817,62c50e9c1127f2cd403a315f,0,59,59,127,1,fourthree,,,,,,,,,,,,,,,,,,,,,,,,,,,,,,,,,,,,,,,,,,,,,,,,,,,,,,,,,,,,,,,,,,,,,,,,,,,,,,,,,,,,,,,,,,,,,,,,,,,,,,,,,,,,,,,,,,,,,,,,,,,,,,,,,,,,,,,,,,,,,,,,,,,,,,,,,,,,,
,,,,,,60f9b7d785b3e37efe2c21d3,62c53975cbc302299560b847,2022-07-06_09h29.03.579,Colour_Asymmetry_Pilot,2022.1.3,Win32,59.63384817,62c50e9c1127f2cd403a315f,0,60,60,43,1,twofour,,,,,,,,,,,,,,,,,,,,,,,,,,,,,,,,,,,,,,,,,,,,,,,,,,,,,,,,,,,,,,,,,,,,,,,,,,,,,,,,,,,,,,,,,,,,,,,,,,,,,,,,,,,,,,,,,,,,,,,,,,,,,,,,,,,,,,,,,,,,,,,,,,,,,,,,,,,,,
,,,,,,60f9b7d785b3e37efe2c21d3,62c53975cbc302299560b847,2022-07-06_09h29.03.579,Colour_Asymmetry_Pilot,2022.1.3,Win32,59.63384817,62c50e9c1127f2cd403a315f,0,61,61,23,1,fourthree,,,,,,,,,,,,,,,,,,,,,,,,,,,,,,,,,,,,,,,,,,,,,,,,,,,,,,,,,,,,,,,,,,,,,,,,,,,,,,,,,,,,,,,,,,,,,,,,,,,,,,,,,,,,,,,,,,,,,,,,,,,,,,,,,,,,,,,,,,,,,,,,,,,,,,,,,,,,,
,,,,,,60f9b7d785b3e37efe2c21d3,62c53975cbc302299560b847,2022-07-06_09h29.03.579,Colour_Asymmetry_Pilot,2022.1.3,Win32,59.63384817,62c50e9c1127f2cd403a315f,0,62,62,35,1,twofour,,,,,,,,,,,,,,,,,,,,,,,,,,,,,,,,,,,,,,,,,,,,,,,,,,,,,,,,,,,,,,,,,,,,,,,,,,,,,,,,,,,,,,,,,,,,,,,,,,,,,,,,,,,,,,,,,,,,,,,,,,,,,,,,,,,,,,,,,,,,,,,,,,,,,,,,,,,,,
,,,,,,60f9b7d785b3e37efe2c21d3,62c53975cbc302299560b847,2022-07-06_09h29.03.579,Colour_Asymmetry_Pilot,2022.1.3,Win32,59.63384817,62c50e9c1127f2cd403a315f,0,63,63,5,1,threefour,,,,,,,,,,,,,,,,,,,,,,,,,,,,,,,,,,,,,,,,,,,,,,,,,,,,,,,,,,,,,,,,,,,,,,,,,,,,,,,,,,,,,,,,,,,,,,,,,,,,,,,,,,,,,,,,,,,,,,,,,,,,,,,,,,,,,,,,,,,,,,,,,,,,,,,,,,,,,
,,,,,,60f9b7d785b3e37efe2c21d3,62c53975cbc302299560b847,2022-07-06_09h29.03.579,Colour_Asymmetry_Pilot,2022.1.3,Win32,59.63384817,62c50e9c1127f2cd403a315f,0,64,64,39,1,fourthree,,,,,,,,,,,,,,,,,,,,,,,,,,,,,,,,,,,,,,,,,,,,,,,,,,,,,,,,,,,,,,,,,,,,,,,,,,,,,,,,,,,,,,,,,,,,,,,,,,,,,,,,,,,,,,,,,,,,,,,,,,,,,,,,,,,,,,,,,,,,,,,,,,,,,,,,,,,,,
,,,,,,60f9b7d785b3e37efe2c21d3,62c53975cbc302299560b847,2022-07-06_09h29.03.579,Colour_Asymmetry_Pilot,2022.1.3,Win32,59.63384817,62c50e9c1127f2cd403a315f,0,65,65,130,1,twoone,,,,,,,,,,,,,,,,,,,,,,,,,,,,,,,,,,,,,,,,,,,,,,,,,,,,,,,,,,,,,,,,,,,,,,,,,,,,,,,,,,,,,,,,,,,,,,,,,,,,,,,,,,,,,,,,,,,,,,,,,,,,,,,,,,,,,,,,,,,,,,,,,,,,,,,,,,,,,
,,,,,,60f9b7d785b3e37efe2c21d3,62c53975cbc302299560b847,2022-07-06_09h29.03.579,Colour_Asymmetry_Pilot,2022.1.3,Win32,59.63384817,62c50e9c1127f2cd403a315f,0,66,66,58,1,twoone,,,,,,,,,,,,,,,,,,,,,,,,,,,,,,,,,,,,,,,,,,,,,,,,,,,,,,,,,,,,,,,,,,,,,,,,,,,,,,,,,,,,,,,,,,,,,,,,,,,,,,,,,,,,,,,,,,,,,,,,,,,,,,,,,,,,,,,,,,,,,,,,,,,,,,,,,,,,,
,,,,,,60f9b7d785b3e37efe2c21d3,62c53975cbc302299560b847,2022-07-06_09h29.03.579,Colour_Asymmetry_Pilot,2022.1.3,Win32,59.63384817,62c50e9c1127f2cd403a315f,0,67,67,108,1,threeone,,,,,,,,,,,,,,,,,,,,,,,,,,,,,,,,,,,,,,,,,,,,,,,,,,,,,,,,,,,,,,,,,,,,,,,,,,,,,,,,,,,,,,,,,,,,,,,,,,,,,,,,,,,,,,,,,,,,,,,,,,,,,,,,,,,,,,,,,,,,,,,,,,,,,,,,,,,,,
,,,,,,60f9b7d785b3e37efe2c21d3,62c53975cbc302299560b847,2022-07-06_09h29.03.579,Colour_Asymmetry_Pilot,2022.1.3,Win32,59.63384817,62c50e9c1127f2cd403a315f,0,68,68,87,1,fourthree,,,,,,,,,,,,,,,,,,,,,,,,,,,,,,,,,,,,,,,,,,,,,,,,,,,,,,,,,,,,,,,,,,,,,,,,,,,,,,,,,,,,,,,,,,,,,,,,,,,,,,,,,,,,,,,,,,,,,,,,,,,,,,,,,,,,,,,,,,,,,,,,,,,,,,,,,,,,,
,,,,,,60f9b7d785b3e37efe2c21d3,62c53975cbc302299560b847,2022-07-06_09h29.03.579,Colour_Asymmetry_Pilot,2022.1.3,Win32,59.63384817,62c50e9c1127f2cd403a315f,0,69,69,77,1,threefour,,,,,,,,,,,,,,,,,,,,,,,,,,,,,,,,,,,,,,,,,,,,,,,,,,,,,,,,,,,,,,,,,,,,,,,,,,,,,,,,,,,,,,,,,,,,,,,,,,,,,,,,,,,,,,,,,,,,,,,,,,,,,,,,,,,,,,,,,,,,,,,,,,,,,,,,,,,,,
,,,,,,60f9b7d785b3e37efe2c21d3,62c53975cbc302299560b847,2022-07-06_09h29.03.579,Colour_Asymmetry_Pilot,2022.1.3,Win32,59.63384817,62c50e9c1127f2cd403a315f,0,70,70,9,1,onethree,,,,,,,,,,,,,,,,,,,,,,,,,,,,,,,,,,,,,,,,,,,,,,,,,,,,,,,,,,,,,,,,,,,,,,,,,,,,,,,,,,,,,,,,,,,,,,,,,,,,,,,,,,,,,,,,,,,,,,,,,,,,,,,,,,,,,,,,,,,,,,,,,,,,,,,,,,,,,
,,,,,,60f9b7d785b3e37efe2c21d3,62c53975cbc302299560b847,2022-07-06_09h29.03.579,Colour_Asymmetry_Pilot,2022.1.3,Win32,59.63384817,62c50e9c1127f2cd403a315f,0,71,71,0,1,onetwo,,,,,,,,,,,,,,,,,,,,,,,,,,,,,,,,,,,,,,,,,,,,,,,,,,,,,,,,,,,,,,,,,,,,,,,,,,,,,,,,,,,,,,,,,,,,,,,,,,,,,,,,,,,,,,,,,,,,,,,,,,,,,,,,,,,,,,,,,,,,,,,,,,,,,,,,,,,,,
,,,,,,60f9b7d785b3e37efe2c21d3,62c53975cbc302299560b847,2022-07-06_09h29.03.579,Colour_Asymmetry_Pilot,2022.1.3,Win32,59.63384817,62c50e9c1127f2cd403a315f,0,72,72,96,1,onetwo,,,,,,,,,,,,,,,,,,,,,,,,,,,,,,,,,,,,,,,,,,,,,,,,,,,,,,,,,,,,,,,,,,,,,,,,,,,,,,,,,,,,,,,,,,,,,,,,,,,,,,,,,,,,,,,,,,,,,,,,,,,,,,,,,,,,,,,,,,,,,,,,,,,,,,,,,,,,,
,,,,,,60f9b7d785b3e37efe2c21d3,62c53975cbc302299560b847,2022-07-06_09h29.03.579,Colour_Asymmetry_Pilot,2022.1.3,Win32,59.63384817,62c50e9c1127f2cd403a315f,0,73,73,72,1,onetwo,,,,,,,,,,,,,,,,,,,,,,,,,,,,,,,,,,,,,,,,,,,,,,,,,,,,,,,,,,,,,,,,,,,,,,,,,,,,,,,,,,,,,,,,,,,,,,,,,,,,,,,,,,,,,,,,,,,,,,,,,,,,,,,,,,,,,,,,,,,,,,,,,,,,,,,,,,,,,
,,,,,,60f9b7d785b3e37efe2c21d3,62c53975cbc302299560b847,2022-07-06_09h29.03.579,Colour_Asymmetry_Pilot,2022.1.3,Win32,59.63384817,62c50e9c1127f2cd403a315f,0,74,74,158,1,fourtwo,,,,,,,,,,,,,,,,,,,,,,,,,,,,,,,,,,,,,,,,,,,,,,,,,,,,,,,,,,,,,,,,,,,,,,,,,,,,,,,,,,,,,,,,,,,,,,,,,,,,,,,,,,,,,,,,,,,,,,,,,,,,,,,,,,,,,,,,,,,,,,,,,,,,,,,,,,,,,
,,,,,,60f9b7d785b3e37efe2c21d3,62c53975cbc302299560b847,2022-07-06_09h29.03.579,Colour_Asymmetry_Pilot,2022.1.3,Win32,59.63384817,62c50e9c1127f2cd403a315f,0,75,75,84,1,threeone,,,,,,,,,,,,,,,,,,,,,,,,,,,,,,,,,,,,,,,,,,,,,,,,,,,,,,,,,,,,,,,,,,,,,,,,,,,,,,,,,,,,,,,,,,,,,,,,,,,,,,,,,,,,,,,,,,,,,,,,,,,,,,,,,,,,,,,,,,,,,,,,,,,,,,,,,,,,,
,,,,,,60f9b7d785b3e37efe2c21d3,62c53975cbc302299560b847,2022-07-06_09h29.03.579,Colour_Asymmetry_Pilot,2022.1.3,Win32,59.63384817,62c50e9c1127f2cd403a315f,0,76,76,88,1,onetwo,,,,,,,,,,,,,,,,,,,,,,,,,,,,,,,,,,,,,,,,,,,,,,,,,,,,,,,,,,,,,,,,,,,,,,,,,,,,,,,,,,,,,,,,,,,,,,,,,,,,,,,,,,,,,,,,,,,,,,,,,,,,,,,,,,,,,,,,,,,,,,,,,,,,,,,,,,,,,
,,,,,,60f9b7d785b3e37efe2c21d3,62c53975cbc302299560b847,2022-07-06_09h29.03.579,Colour_Asymmetry_Pilot,2022.1.3,Win32,59.63384817,62c50e9c1127f2cd403a315f,0,77,77,47,1,fourthree,,,,,,,,,,,,,,,,,,,,,,,,,,,,,,,,,,,,,,,,,,,,,,,,,,,,,,,,,,,,,,,,,,,,,,,,,,,,,,,,,,,,,,,,,,,,,,,,,,,,,,,,,,,,,,,,,,,,,,,,,,,,,,,,,,,,,,,,,,,,,,,,,,,,,,,,,,,,,
,,,,,,60f9b7d785b3e37efe2c21d3,62c53975cbc302299560b847,2022-07-06_09h29.03.579,Colour_Asymmetry_Pilot,2022.1.3,Win32,59.63384817,62c50e9c1127f2cd403a315f,0,78,78,102,1,fourtwo,,,,,,,,,,,,,,,,,,,,,,,,,,,,,,,,,,,,,,,,,,,,,,,,,,,,,,,,,,,,,,,,,,,,,,,,,,,,,,,,,,,,,,,,,,,,,,,,,,,,,,,,,,,,,,,,,,,,,,,,,,,,,,,,,,,,,,,,,,,,,,,,,,,,,,,,,,,,,
,,,,,,60f9b7d785b3e37efe2c21d3,62c53975cbc302299560b847,2022-07-06_09h29.03.579,Colour_Asymmetry_Pilot,2022.1.3,Win32,59.63384817,62c50e9c1127f2cd403a315f,0,79,79,131,1,twofour,,,,,,,,,,,,,,,,,,,,,,,,,,,,,,,,,,,,,,,,,,,,,,,,,,,,,,,,,,,,,,,,,,,,,,,,,,,,,,,,,,,,,,,,,,,,,,,,,,,,,,,,,,,,,,,,,,,,,,,,,,,,,,,,,,,,,,,,,,,,,,,,,,,,,,,,,,,,,
,,,,,,60f9b7d785b3e37efe2c21d3,62c53975cbc302299560b847,2022-07-06_09h29.03.579,Colour_Asymmetry_Pilot,2022.1.3,Win32,59.63384817,62c50e9c1127f2cd403a315f,0,80,80,10,1,twoone,,,,,,,,,,,,,,,,,,,,,,,,,,,,,,,,,,,,,,,,,,,,,,,,,,,,,,,,,,,,,,,,,,,,,,,,,,,,,,,,,,,,,,,,,,,,,,,,,,,,,,,,,,,,,,,,,,,,,,,,,,,,,,,,,,,,,,,,,,,,,,,,,,,,,,,,,,,,,
,,,,,,60f9b7d785b3e37efe2c21d3,62c53975cbc302299560b847,2022-07-06_09h29.03.579,Colour_Asymmetry_Pilot,2022.1.3,Win32,59.63384817,62c50e9c1127f2cd403a315f,0,81,81,29,1,threefour,,,,,,,,,,,,,,,,,,,,,,,,,,,,,,,,,,,,,,,,,,,,,,,,,,,,,,,,,,,,,,,,,,,,,,,,,,,,,,,,,,,,,,,,,,,,,,,,,,,,,,,,,,,,,,,,,,,,,,,,,,,,,,,,,,,,,,,,,,,,,,,,,,,,,,,,,,,,,
,,,,,,60f9b7d785b3e37efe2c21d3,62c53975cbc302299560b847,2022-07-06_09h29.03.579,Colour_Asymmetry_Pilot,2022.1.3,Win32,59.63384817,62c50e9c1127f2cd403a315f,0,82,82,117,1,threefour,,,,,,,,,,,,,,,,,,,,,,,,,,,,,,,,,,,,,,,,,,,,,,,,,,,,,,,,,,,,,,,,,,,,,,,,,,,,,,,,,,,,,,,,,,,,,,,,,,,,,,,,,,,,,,,,,,,,,,,,,,,,,,,,,,,,,,,,,,,,,,,,,,,,,,,,,,,,,
,,,,,,60f9b7d785b3e37efe2c21d3,62c53975cbc302299560b847,2022-07-06_09h29.03.579,Colour_Asymmetry_Pilot,2022.1.3,Win32,59.63384817,62c50e9c1127f2cd403a315f,0,83,83,12,1,threeone,,,,,,,,,,,,,,,,,,,,,,,,,,,,,,,,,,,,,,,,,,,,,,,,,,,,,,,,,,,,,,,,,,,,,,,,,,,,,,,,,,,,,,,,,,,,,,,,,,,,,,,,,,,,,,,,,,,,,,,,,,,,,,,,,,,,,,,,,,,,,,,,,,,,,,,,,,,,,
,,,,,,60f9b7d785b3e37efe2c21d3,62c53975cbc302299560b847,2022-07-06_09h29.03.579,Colour_Asymmetry_Pilot,2022.1.3,Win32,59.63384817,62c50e9c1127f2cd403a315f,0,84,84,94,1,fourtwo,,,,,,,,,,,,,,,,,,,,,,,,,,,,,,,,,,,,,,,,,,,,,,,,,,,,,,,,,,,,,,,,,,,,,,,,,,,,,,,,,,,,,,,,,,,,,,,,,,,,,,,,,,,,,,,,,,,,,,,,,,,,,,,,,,,,,,,,,,,,,,,,,,,,,,,,,,,,,
,,,,,,60f9b7d785b3e37efe2c21d3,62c53975cbc302299560b847,2022-07-06_09h29.03.579,Colour_Asymmetry_Pilot,2022.1.3,Win32,59.63384817,62c50e9c1127f2cd403a315f,0,85,85,105,1,onethree,,,,,,,,,,,,,,,,,,,,,,,,,,,,,,,,,,,,,,,,,,,,,,,,,,,,,,,,,,,,,,,,,,,,,,,,,,,,,,,,,,,,,,,,,,,,,,,,,,,,,,,,,,,,,,,,,,,,,,,,,,,,,,,,,,,,,,,,,,,,,,,,,,,,,,,,,,,,,
,,,,,,60f9b7d785b3e37efe2c21d3,62c53975cbc302299560b847,2022-07-06_09h29.03.579,Colour_Asymmetry_Pilot,2022.1.3,Win32,59.63384817,62c50e9c1127f2cd403a315f,0,86,86,67,1,twofour,,,,,,,,,,,,,,,,,,,,,,,,,,,,,,,,,,,,,,,,,,,,,,,,,,,,,,,,,,,,,,,,,,,,,,,,,,,,,,,,,,,,,,,,,,,,,,,,,,,,,,,,,,,,,,,,,,,,,,,,,,,,,,,,,,,,,,,,,,,,,,,,,,,,,,,,,,,,,
,,,,,,60f9b7d785b3e37efe2c21d3,62c53975cbc302299560b847,2022-07-06_09h29.03.579,Colour_Asymmetry_Pilot,2022.1.3,Win32,59.63384817,62c50e9c1127f2cd403a315f,0,87,87,119,1,fourthree,,,,,,,,,,,,,,,,,,,,,,,,,,,,,,,,,,,,,,,,,,,,,,,,,,,,,,,,,,,,,,,,,,,,,,,,,,,,,,,,,,,,,,,,,,,,,,,,,,,,,,,,,,,,,,,,,,,,,,,,,,,,,,,,,,,,,,,,,,,,,,,,,,,,,,,,,,,,,
,,,,,,60f9b7d785b3e37efe2c21d3,62c53975cbc302299560b847,2022-07-06_09h29.03.579,Colour_Asymmetry_Pilot,2022.1.3,Win32,59.63384817,62c50e9c1127f2cd403a315f,0,88,88,147,1,twofour,,,,,,,,,,,,,,,,,,,,,,,,,,,,,,,,,,,,,,,,,,,,,,,,,,,,,,,,,,,,,,,,,,,,,,,,,,,,,,,,,,,,,,,,,,,,,,,,,,,,,,,,,,,,,,,,,,,,,,,,,,,,,,,,,,,,,,,,,,,,,,,,,,,,,,,,,,,,,
,,,,,,60f9b7d785b3e37efe2c21d3,62c53975cbc302299560b847,2022-07-06_09h29.03.579,Colour_Asymmetry_Pilot,2022.1.3,Win32,59.63384817,62c50e9c1127f2cd403a315f,0,89,89,103,1,fourthree,,,,,,,,,,,,,,,,,,,,,,,,,,,,,,,,,,,,,,,,,,,,,,,,,,,,,,,,,,,,,,,,,,,,,,,,,,,,,,,,,,,,,,,,,,,,,,,,,,,,,,,,,,,,,,,,,,,,,,,,,,,,,,,,,,,,,,,,,,,,,,,,,,,,,,,,,,,,,
,,,,,,60f9b7d785b3e37efe2c21d3,62c53975cbc302299560b847,2022-07-06_09h29.03.579,Colour_Asymmetry_Pilot,2022.1.3,Win32,59.63384817,62c50e9c1127f2cd403a315f,0,90,90,24,1,onetwo,,,,,,,,,,,,,,,,,,,,,,,,,,,,,,,,,,,,,,,,,,,,,,,,,,,,,,,,,,,,,,,,,,,,,,,,,,,,,,,,,,,,,,,,,,,,,,,,,,,,,,,,,,,,,,,,,,,,,,,,,,,,,,,,,,,,,,,,,,,,,,,,,,,,,,,,,,,,,
,,,,,,60f9b7d785b3e37efe2c21d3,62c53975cbc302299560b847,2022-07-06_09h29.03.579,Colour_Asymmetry_Pilot,2022.1.3,Win32,59.63384817,62c50e9c1127f2cd403a315f,0,91,91,11,1,twofour,,,,,,,,,,,,,,,,,,,,,,,,,,,,,,,,,,,,,,,,,,,,,,,,,,,,,,,,,,,,,,,,,,,,,,,,,,,,,,,,,,,,,,,,,,,,,,,,,,,,,,,,,,,,,,,,,,,,,,,,,,,,,,,,,,,,,,,,,,,,,,,,,,,,,,,,,,,,,
,,,,,,60f9b7d785b3e37efe2c21d3,62c53975cbc302299560b847,2022-07-06_09h29.03.579,Colour_Asymmetry_Pilot,2022.1.3,Win32,59.63384817,62c50e9c1127f2cd403a315f,0,92,92,66,1,twoone,,,,,,,,,,,,,,,,,,,,,,,,,,,,,,,,,,,,,,,,,,,,,,,,,,,,,,,,,,,,,,,,,,,,,,,,,,,,,,,,,,,,,,,,,,,,,,,,,,,,,,,,,,,,,,,,,,,,,,,,,,,,,,,,,,,,,,,,,,,,,,,,,,,,,,,,,,,,,
,,,,,,60f9b7d785b3e37efe2c21d3,62c53975cbc302299560b847,2022-07-06_09h29.03.579,Colour_Asymmetry_Pilot,2022.1.3,Win32,59.63384817,62c50e9c1127f2cd403a315f,0,93,93,128,1,onetwo,,,,,,,,,,,,,,,,,,,,,,,,,,,,,,,,,,,,,,,,,,,,,,,,,,,,,,,,,,,,,,,,,,,,,,,,,,,,,,,,,,,,,,,,,,,,,,,,,,,,,,,,,,,,,,,,,,,,,,,,,,,,,,,,,,,,,,,,,,,,,,,,,,,,,,,,,,,,,
,,,,,,60f9b7d785b3e37efe2c21d3,62c53975cbc302299560b847,2022-07-06_09h29.03.579,Colour_Asymmetry_Pilot,2022.1.3,Win32,59.63384817,62c50e9c1127f2cd403a315f,0,94,94,123,1,twofour,,,,,,,,,,,,,,,,,,,,,,,,,,,,,,,,,,,,,,,,,,,,,,,,,,,,,,,,,,,,,,,,,,,,,,,,,,,,,,,,,,,,,,,,,,,,,,,,,,,,,,,,,,,,,,,,,,,,,,,,,,,,,,,,,,,,,,,,,,,,,,,,,,,,,,,,,,,,,
,,,,,,60f9b7d785b3e37efe2c21d3,62c53975cbc302299560b847,2022-07-06_09h29.03.579,Colour_Asymmetry_Pilot,2022.1.3,Win32,59.63384817,62c50e9c1127f2cd403a315f,0,95,95,18,1,twoone,,,,,,,,,,,,,,,,,,,,,,,,,,,,,,,,,,,,,,,,,,,,,,,,,,,,,,,,,,,,,,,,,,,,,,,,,,,,,,,,,,,,,,,,,,,,,,,,,,,,,,,,,,,,,,,,,,,,,,,,,,,,,,,,,,,,,,,,,,,,,,,,,,,,,,,,,,,,,
,,,,,,60f9b7d785b3e37efe2c21d3,62c53975cbc302299560b847,2022-07-06_09h29.03.579,Colour_Asymmetry_Pilot,2022.1.3,Win32,59.63384817,62c50e9c1127f2cd403a315f,0,96,96,44,1,threeone,,,,,,,,,,,,,,,,,,,,,,,,,,,,,,,,,,,,,,,,,,,,,,,,,,,,,,,,,,,,,,,,,,,,,,,,,,,,,,,,,,,,,,,,,,,,,,,,,,,,,,,,,,,,,,,,,,,,,,,,,,,,,,,,,,,,,,,,,,,,,,,,,,,,,,,,,,,,,
,,,,,,60f9b7d785b3e37efe2c21d3,62c53975cbc302299560b847,2022-07-06_09h29.03.579,Colour_Asymmetry_Pilot,2022.1.3,Win32,59.63384817,62c50e9c1127f2cd403a315f,0,97,97,143,1,fourthree,,,,,,,,,,,,,,,,,,,,,,,,,,,,,,,,,,,,,,,,,,,,,,,,,,,,,,,,,,,,,,,,,,,,,,,,,,,,,,,,,,,,,,,,,,,,,,,,,,,,,,,,,,,,,,,,,,,,,,,,,,,,,,,,,,,,,,,,,,,,,,,,,,,,,,,,,,,,,
,,,,,,60f9b7d785b3e37efe2c21d3,62c53975cbc302299560b847,2022-07-06_09h29.03.579,Colour_Asymmetry_Pilot,2022.1.3,Win32,59.63384817,62c50e9c1127f2cd403a315f,0,98,98,146,1,twoone,,,,,,,,,,,,,,,,,,,,,,,,,,,,,,,,,,,,,,,,,,,,,,,,,,,,,,,,,,,,,,,,,,,,,,,,,,,,,,,,,,,,,,,,,,,,,,,,,,,,,,,,,,,,,,,,,,,,,,,,,,,,,,,,,,,,,,,,,,,,,,,,,,,,,,,,,,,,,
,,,,,,60f9b7d785b3e37efe2c21d3,62c53975cbc302299560b847,2022-07-06_09h29.03.579,Colour_Asymmetry_Pilot,2022.1.3,Win32,59.63384817,62c50e9c1127f2cd403a315f,0,99,99,80,1,onetwo,,,,,,,,,,,,,,,,,,,,,,,,,,,,,,,,,,,,,,,,,,,,,,,,,,,,,,,,,,,,,,,,,,,,,,,,,,,,,,,,,,,,,,,,,,,,,,,,,,,,,,,,,,,,,,,,,,,,,,,,,,,,,,,,,,,,,,,,,,,,,,,,,,,,,,,,,,,,,
,,,,,,60f9b7d785b3e37efe2c21d3,62c53975cbc302299560b847,2022-07-06_09h29.03.579,Colour_Asymmetry_Pilot,2022.1.3,Win32,59.63384817,62c50e9c1127f2cd403a315f,0,100,100,71,1,fourthree,,,,,,,,,,,,,,,,,,,,,,,,,,,,,,,,,,,,,,,,,,,,,,,,,,,,,,,,,,,,,,,,,,,,,,,,,,,,,,,,,,,,,,,,,,,,,,,,,,,,,,,,,,,,,,,,,,,,,,,,,,,,,,,,,,,,,,,,,,,,,,,,,,,,,,,,,,,,,
,,,,,,60f9b7d785b3e37efe2c21d3,62c53975cbc302299560b847,2022-07-06_09h29.03.579,Colour_Asymmetry_Pilot,2022.1.3,Win32,59.63384817,62c50e9c1127f2cd403a315f,0,101,101,51,1,twofour,,,,,,,,,,,,,,,,,,,,,,,,,,,,,,,,,,,,,,,,,,,,,,,,,,,,,,,,,,,,,,,,,,,,,,,,,,,,,,,,,,,,,,,,,,,,,,,,,,,,,,,,,,,,,,,,,,,,,,,,,,,,,,,,,,,,,,,,,,,,,,,,,,,,,,,,,,,,,
,,,,,,60f9b7d785b3e37efe2c21d3,62c53975cbc302299560b847,2022-07-06_09h29.03.579,Colour_Asymmetry_Pilot,2022.1.3,Win32,59.63384817,62c50e9c1127f2cd403a315f,0,102,102,100,1,threeone,,,,,,,,,,,,,,,,,,,,,,,,,,,,,,,,,,,,,,,,,,,,,,,,,,,,,,,,,,,,,,,,,,,,,,,,,,,,,,,,,,,,,,,,,,,,,,,,,,,,,,,,,,,,,,,,,,,,,,,,,,,,,,,,,,,,,,,,,,,,,,,,,,,,,,,,,,,,,
,,,,,,60f9b7d785b3e37efe2c21d3,62c53975cbc302299560b847,2022-07-06_09h29.03.579,Colour_Asymmetry_Pilot,2022.1.3,Win32,59.63384817,62c50e9c1127f2cd403a315f,0,103,103,26,1,twoone,,,,,,,,,,,,,,,,,,,,,,,,,,,,,,,,,,,,,,,,,,,,,,,,,,,,,,,,,,,,,,,,,,,,,,,,,,,,,,,,,,,,,,,,,,,,,,,,,,,,,,,,,,,,,,,,,,,,,,,,,,,,,,,,,,,,,,,,,,,,,,,,,,,,,,,,,,,,,
,,,,,,60f9b7d785b3e37efe2c21d3,62c53975cbc302299560b847,2022-07-06_09h29.03.579,Colour_Asymmetry_Pilot,2022.1.3,Win32,59.63384817,62c50e9c1127f2cd403a315f,0,104,104,161,1,onethree,,,,,,,,,,,,,,,,,,,,,,,,,,,,,,,,,,,,,,,,,,,,,,,,,,,,,,,,,,,,,,,,,,,,,,,,,,,,,,,,,,,,,,,,,,,,,,,,,,,,,,,,,,,,,,,,,,,,,,,,,,,,,,,,,,,,,,,,,,,,,,,,,,,,,,,,,,,,,
,,,,,,60f9b7d785b3e37efe2c21d3,62c53975cbc302299560b847,2022-07-06_09h29.03.579,Colour_Asymmetry_Pilot,2022.1.3,Win32,59.63384817,62c50e9c1127f2cd403a315f,0,105,105,42,1,twoone,,,,,,,,,,,,,,,,,,,,,,,,,,,,,,,,,,,,,,,,,,,,,,,,,,,,,,,,,,,,,,,,,,,,,,,,,,,,,,,,,,,,,,,,,,,,,,,,,,,,,,,,,,,,,,,,,,,,,,,,,,,,,,,,,,,,,,,,,,,,,,,,,,,,,,,,,,,,,
,,,,,,60f9b7d785b3e37efe2c21d3,62c53975cbc302299560b847,2022-07-06_09h29.03.579,Colour_Asymmetry_Pilot,2022.1.3,Win32,59.63384817,62c50e9c1127f2cd403a315f,0,106,106,27,1,twofour,,,,,,,,,,,,,,,,,,,,,,,,,,,,,,,,,,,,,,,,,,,,,,,,,,,,,,,,,,,,,,,,,,,,,,,,,,,,,,,,,,,,,,,,,,,,,,,,,,,,,,,,,,,,,,,,,,,,,,,,,,,,,,,,,,,,,,,,,,,,,,,,,,,,,,,,,,,,,
,,,,,,60f9b7d785b3e37efe2c21d3,62c53975cbc302299560b847,2022-07-06_09h29.03.579,Colour_Asymmetry_Pilot,2022.1.3,Win32,59.63384817,62c50e9c1127f2cd403a315f,0,107,107,159,1,fourthree,,,,,,,,,,,,,,,,,,,,,,,,,,,,,,,,,,,,,,,,,,,,,,,,,,,,,,,,,,,,,,,,,,,,,,,,,,,,,,,,,,,,,,,,,,,,,,,,,,,,,,,,,,,,,,,,,,,,,,,,,,,,,,,,,,,,,,,,,,,,,,,,,,,,,,,,,,,,,
,,,,,,60f9b7d785b3e37efe2c21d3,62c53975cbc302299560b847,2022-07-06_09h29.03.579,Colour_Asymmetry_Pilot,2022.1.3,Win32,59.63384817,62c50e9c1127f2cd403a315f,0,108,108,92,1,threeone,,,,,,,,,,,,,,,,,,,,,,,,,,,,,,,,,,,,,,,,,,,,,,,,,,,,,,,,,,,,,,,,,,,,,,,,,,,,,,,,,,,,,,,,,,,,,,,,,,,,,,,,,,,,,,,,,,,,,,,,,,,,,,,,,,,,,,,,,,,,,,,,,,,,,,,,,,,,,
,,,,,,60f9b7d785b3e37efe2c21d3,62c53975cbc302299560b847,2022-07-06_09h29.03.579,Colour_Asymmetry_Pilot,2022.1.3,Win32,59.63384817,62c50e9c1127f2cd403a315f,0,109,109,111,1,fourthree,,,,,,,,,,,,,,,,,,,,,,,,,,,,,,,,,,,,,,,,,,,,,,,,,,,,,,,,,,,,,,,,,,,,,,,,,,,,,,,,,,,,,,,,,,,,,,,,,,,,,,,,,,,,,,,,,,,,,,,,,,,,,,,,,,,,,,,,,,,,,,,,,,,,,,,,,,,,,
,,,,,,60f9b7d785b3e37efe2c21d3,62c53975cbc302299560b847,2022-07-06_09h29.03.579,Colour_Asymmetry_Pilot,2022.1.3,Win32,59.63384817,62c50e9c1127f2cd403a315f,0,110,110,37,1,threefour,,,,,,,,,,,,,,,,,,,,,,,,,,,,,,,,,,,,,,,,,,,,,,,,,,,,,,,,,,,,,,,,,,,,,,,,,,,,,,,,,,,,,,,,,,,,,,,,,,,,,,,,,,,,,,,,,,,,,,,,,,,,,,,,,,,,,,,,,,,,,,,,,,,,,,,,,,,,,
,,,,,,60f9b7d785b3e37efe2c21d3,62c53975cbc302299560b847,2022-07-06_09h29.03.579,Colour_Asymmetry_Pilot,2022.1.3,Win32,59.63384817,62c50e9c1127f2cd403a315f,0,111,111,20,1,threeone,,,,,,,,,,,,,,,,,,,,,,,,,,,,,,,,,,,,,,,,,,,,,,,,,,,,,,,,,,,,,,,,,,,,,,,,,,,,,,,,,,,,,,,,,,,,,,,,,,,,,,,,,,,,,,,,,,,,,,,,,,,,,,,,,,,,,,,,,,,,,,,,,,,,,,,,,,,,,
,,,,,,60f9b7d785b3e37efe2c21d3,62c53975cbc302299560b847,2022-07-06_09h29.03.579,Colour_Asymmetry_Pilot,2022.1.3,Win32,59.63384817,62c50e9c1127f2cd403a315f,0,112,112,74,1,twoone,,,,,,,,,,,,,,,,,,,,,,,,,,,,,,,,,,,,,,,,,,,,,,,,,,,,,,,,,,,,,,,,,,,,,,,,,,,,,,,,,,,,,,,,,,,,,,,,,,,,,,,,,,,,,,,,,,,,,,,,,,,,,,,,,,,,,,,,,,,,,,,,,,,,,,,,,,,,,
,,,,,,60f9b7d785b3e37efe2c21d3,62c53975cbc302299560b847,2022-07-06_09h29.03.579,Colour_Asymmetry_Pilot,2022.1.3,Win32,59.63384817,62c50e9c1127f2cd403a315f,0,113,113,25,1,onethree,,,,,,,,,,,,,,,,,,,,,,,,,,,,,,,,,,,,,,,,,,,,,,,,,,,,,,,,,,,,,,,,,,,,,,,,,,,,,,,,,,,,,,,,,,,,,,,,,,,,,,,,,,,,,,,,,,,,,,,,,,,,,,,,,,,,,,,,,,,,,,,,,,,,,,,,,,,,,
,,,,,,60f9b7d785b3e37efe2c21d3,62c53975cbc302299560b847,2022-07-06_09h29.03.579,Colour_Asymmetry_Pilot,2022.1.3,Win32,59.63384817,62c50e9c1127f2cd403a315f,0,114,114,49,1,onethree,,,,,,,,,,,,,,,,,,,,,,,,,,,,,,,,,,,,,,,,,,,,,,,,,,,,,,,,,,,,,,,,,,,,,,,,,,,,,,,,,,,,,,,,,,,,,,,,,,,,,,,,,,,,,,,,,,,,,,,,,,,,,,,,,,,,,,,,,,,,,,,,,,,,,,,,,,,,,
,,,,,,60f9b7d785b3e37efe2c21d3,62c53975cbc302299560b847,2022-07-06_09h29.03.579,Colour_Asymmetry_Pilot,2022.1.3,Win32,59.63384817,62c50e9c1127f2cd403a315f,0,115,115,79,1,fourthree,,,,,,,,,,,,,,,,,,,,,,,,,,,,,,,,,,,,,,,,,,,,,,,,,,,,,,,,,,,,,,,,,,,,,,,,,,,,,,,,,,,,,,,,,,,,,,,,,,,,,,,,,,,,,,,,,,,,,,,,,,,,,,,,,,,,,,,,,,,,,,,,,,,,,,,,,,,,,
,,,,,,60f9b7d785b3e37efe2c21d3,62c53975cbc302299560b847,2022-07-06_09h29.03.579,Colour_Asymmetry_Pilot,2022.1.3,Win32,59.63384817,62c50e9c1127f2cd403a315f,0,116,116,156,1,threeone,,,,,,,,,,,,,,,,,,,,,,,,,,,,,,,,,,,,,,,,,,,,,,,,,,,,,,,,,,,,,,,,,,,,,,,,,,,,,,,,,,,,,,,,,,,,,,,,,,,,,,,,,,,,,,,,,,,,,,,,,,,,,,,,,,,,,,,,,,,,,,,,,,,,,,,,,,,,,
,,,,,,60f9b7d785b3e37efe2c21d3,62c53975cbc302299560b847,2022-07-06_09h29.03.579,Colour_Asymmetry_Pilot,2022.1.3,Win32,59.63384817,62c50e9c1127f2cd403a315f,0,117,117,112,1,onetwo,,,,,,,,,,,,,,,,,,,,,,,,,,,,,,,,,,,,,,,,,,,,,,,,,,,,,,,,,,,,,,,,,,,,,,,,,,,,,,,,,,,,,,,,,,,,,,,,,,,,,,,,,,,,,,,,,,,,,,,,,,,,,,,,,,,,,,,,,,,,,,,,,,,,,,,,,,,,,
,,,,,,60f9b7d785b3e37efe2c21d3,62c53975cbc302299560b847,2022-07-06_09h29.03.579,Colour_Asymmetry_Pilot,2022.1.3,Win32,59.63384817,62c50e9c1127f2cd403a315f,0,118,118,140,1,threeone,,,,,,,,,,,,,,,,,,,,,,,,,,,,,,,,,,,,,,,,,,,,,,,,,,,,,,,,,,,,,,,,,,,,,,,,,,,,,,,,,,,,,,,,,,,,,,,,,,,,,,,,,,,,,,,,,,,,,,,,,,,,,,,,,,,,,,,,,,,,,,,,,,,,,,,,,,,,,
,,,,,,60f9b7d785b3e37efe2c21d3,62c53975cbc302299560b847,2022-07-06_09h29.03.579,Colour_Asymmetry_Pilot,2022.1.3,Win32,59.63384817,62c50e9c1127f2cd403a315f,0,119,119,41,1,onethree,,,,,,,,,,,,,,,,,,,,,,,,,,,,,,,,,,,,,,,,,,,,,,,,,,,,,,,,,,,,,,,,,,,,,,,,,,,,,,,,,,,,,,,,,,,,,,,,,,,,,,,,,,,,,,,,,,,,,,,,,,,,,,,,,,,,,,,,,,,,,,,,,,,,,,,,,,,,,
,,,,,,60f9b7d785b3e37efe2c21d3,62c53975cbc302299560b847,2022-07-06_09h29.03.579,Colour_Asymmetry_Pilot,2022.1.3,Win32,59.63384817,62c50e9c1127f2cd403a315f,0,120,120,137,1,onethree,,,,,,,,,,,,,,,,,,,,,,,,,,,,,,,,,,,,,,,,,,,,,,,,,,,,,,,,,,,,,,,,,,,,,,,,,,,,,,,,,,,,,,,,,,,,,,,,,,,,,,,,,,,,,,,,,,,,,,,,,,,,,,,,,,,,,,,,,,,,,,,,,,,,,,,,,,,,,
,,,,,,60f9b7d785b3e37efe2c21d3,62c53975cbc302299560b847,2022-07-06_09h29.03.579,Colour_Asymmetry_Pilot,2022.1.3,Win32,59.63384817,62c50e9c1127f2cd403a315f,0,121,121,16,1,onetwo,,,,,,,,,,,,,,,,,,,,,,,,,,,,,,,,,,,,,,,,,,,,,,,,,,,,,,,,,,,,,,,,,,,,,,,,,,,,,,,,,,,,,,,,,,,,,,,,,,,,,,,,,,,,,,,,,,,,,,,,,,,,,,,,,,,,,,,,,,,,,,,,,,,,,,,,,,,,,
,,,,,,60f9b7d785b3e37efe2c21d3,62c53975cbc302299560b847,2022-07-06_09h29.03.579,Colour_Asymmetry_Pilot,2022.1.3,Win32,59.63384817,62c50e9c1127f2cd403a315f,0,122,122,7,1,fourthree,,,,,,,,,,,,,,,,,,,,,,,,,,,,,,,,,,,,,,,,,,,,,,,,,,,,,,,,,,,,,,,,,,,,,,,,,,,,,,,,,,,,,,,,,,,,,,,,,,,,,,,,,,,,,,,,,,,,,,,,,,,,,,,,,,,,,,,,,,,,,,,,,,,,,,,,,,,,,
,,,,,,60f9b7d785b3e37efe2c21d3,62c53975cbc302299560b847,2022-07-06_09h29.03.579,Colour_Asymmetry_Pilot,2022.1.3,Win32,59.63384817,62c50e9c1127f2cd403a315f,0,123,123,106,1,twoone,,,,,,,,,,,,,,,,,,,,,,,,,,,,,,,,,,,,,,,,,,,,,,,,,,,,,,,,,,,,,,,,,,,,,,,,,,,,,,,,,,,,,,,,,,,,,,,,,,,,,,,,,,,,,,,,,,,,,,,,,,,,,,,,,,,,,,,,,,,,,,,,,,,,,,,,,,,,,
,,,,,,60f9b7d785b3e37efe2c21d3,62c53975cbc302299560b847,2022-07-06_09h29.03.579,Colour_Asymmetry_Pilot,2022.1.3,Win32,59.63384817,62c50e9c1127f2cd403a315f,0,124,124,2,1,twoone,,,,,,,,,,,,,,,,,,,,,,,,,,,,,,,,,,,,,,,,,,,,,,,,,,,,,,,,,,,,,,,,,,,,,,,,,,,,,,,,,,,,,,,,,,,,,,,,,,,,,,,,,,,,,,,,,,,,,,,,,,,,,,,,,,,,,,,,,,,,,,,,,,,,,,,,,,,,,
,,,,,,60f9b7d785b3e37efe2c21d3,62c53975cbc302299560b847,2022-07-06_09h29.03.579,Colour_Asymmetry_Pilot,2022.1.3,Win32,59.63384817,62c50e9c1127f2cd403a315f,0,125,125,68,1,threeone,,,,,,,,,,,,,,,,,,,,,,,,,,,,,,,,,,,,,,,,,,,,,,,,,,,,,,,,,,,,,,,,,,,,,,,,,,,,,,,,,,,,,,,,,,,,,,,,,,,,,,,,,,,,,,,,,,,,,,,,,,,,,,,,,,,,,,,,,,,,,,,,,,,,,,,,,,,,,
,,,,,,60f9b7d785b3e37efe2c21d3,62c53975cbc302299560b847,2022-07-06_09h29.03.579,Colour_Asymmetry_Pilot,2022.1.3,Win32,59.63384817,62c50e9c1127f2cd403a315f,0,126,126,73,1,onethree,,,,,,,,,,,,,,,,,,,,,,,,,,,,,,,,,,,,,,,,,,,,,,,,,,,,,,,,,,,,,,,,,,,,,,,,,,,,,,,,,,,,,,,,,,,,,,,,,,,,,,,,,,,,,,,,,,,,,,,,,,,,,,,,,,,,,,,,,,,,,,,,,,,,,,,,,,,,,
,,,,,,60f9b7d785b3e37efe2c21d3,62c53975cbc302299560b847,2022-07-06_09h29.03.579,Colour_Asymmetry_Pilot,2022.1.3,Win32,59.63384817,62c50e9c1127f2cd403a315f,0,127,127,104,1,onetwo,,,,,,,,,,,,,,,,,,,,,,,,,,,,,,,,,,,,,,,,,,,,,,,,,,,,,,,,,,,,,,,,,,,,,,,,,,,,,,,,,,,,,,,,,,,,,,,,,,,,,,,,,,,,,,,,,,,,,,,,,,,,,,,,,,,,,,,,,,,,,,,,,,,,,,,,,,,,,
,,,,,,60f9b7d785b3e37efe2c21d3,62c53975cbc302299560b847,2022-07-06_09h29.03.579,Colour_Asymmetry_Pilot,2022.1.3,Win32,59.63384817,62c50e9c1127f2cd403a315f,0,128,128,101,1,threefour,,,,,,,,,,,,,,,,,,,,,,,,,,,,,,,,,,,,,,,,,,,,,,,,,,,,,,,,,,,,,,,,,,,,,,,,,,,,,,,,,,,,,,,,,,,,,,,,,,,,,,,,,,,,,,,,,,,,,,,,,,,,,,,,,,,,,,,,,,,,,,,,,,,,,,,,,,,,,
,,,,,,60f9b7d785b3e37efe2c21d3,62c53975cbc302299560b847,2022-07-06_09h29.03.579,Colour_Asymmetry_Pilot,2022.1.3,Win32,59.63384817,62c50e9c1127f2cd403a315f,0,129,129,82,1,twoone,,,,,,,,,,,,,,,,,,,,,,,,,,,,,,,,,,,,,,,,,,,,,,,,,,,,,,,,,,,,,,,,,,,,,,,,,,,,,,,,,,,,,,,,,,,,,,,,,,,,,,,,,,,,,,,,,,,,,,,,,,,,,,,,,,,,,,,,,,,,,,,,,,,,,,,,,,,,,
,,,,,,60f9b7d785b3e37efe2c21d3,62c53975cbc302299560b847,2022-07-06_09h29.03.579,Colour_Asymmetry_Pilot,2022.1.3,Win32,59.63384817,62c50e9c1127f2cd403a315f,0,130,130,136,1,onetwo,,,,,,,,,,,,,,,,,,,,,,,,,,,,,,,,,,,,,,,,,,,,,,,,,,,,,,,,,,,,,,,,,,,,,,,,,,,,,,,,,,,,,,,,,,,,,,,,,,,,,,,,,,,,,,,,,,,,,,,,,,,,,,,,,,,,,,,,,,,,,,,,,,,,,,,,,,,,,
,,,,,,60f9b7d785b3e37efe2c21d3,62c53975cbc302299560b847,2022-07-06_09h29.03.579,Colour_Asymmetry_Pilot,2022.1.3,Win32,59.63384817,62c50e9c1127f2cd403a315f,0,131,131,121,1,onethree,,,,,,,,,,,,,,,,,,,,,,,,,,,,,,,,,,,,,,,,,,,,,,,,,,,,,,,,,,,,,,,,,,,,,,,,,,,,,,,,,,,,,,,,,,,,,,,,,,,,,,,,,,,,,,,,,,,,,,,,,,,,,,,,,,,,,,,,,,,,,,,,,,,,,,,,,,,,,
,,,,,,60f9b7d785b3e37efe2c21d3,62c53975cbc302299560b847,2022-07-06_09h29.03.579,Colour_Asymmetry_Pilot,2022.1.3,Win32,59.63384817,62c50e9c1127f2cd403a315f,0,132,132,61,1,threefour,,,,,,,,,,,,,,,,,,,,,,,,,,,,,,,,,,,,,,,,,,,,,,,,,,,,,,,,,,,,,,,,,,,,,,,,,,,,,,,,,,,,,,,,,,,,,,,,,,,,,,,,,,,,,,,,,,,,,,,,,,,,,,,,,,,,,,,,,,,,,,,,,,,,,,,,,,,,,
,,,,,,60f9b7d785b3e37efe2c21d3,62c53975cbc302299560b847,2022-07-06_09h29.03.579,Colour_Asymmetry_Pilot,2022.1.3,Win32,59.63384817,62c50e9c1127f2cd403a315f,0,133,133,56,1,onetwo,,,,,,,,,,,,,,,,,,,,,,,,,,,,,,,,,,,,,,,,,,,,,,,,,,,,,,,,,,,,,,,,,,,,,,,,,,,,,,,,,,,,,,,,,,,,,,,,,,,,,,,,,,,,,,,,,,,,,,,,,,,,,,,,,,,,,,,,,,,,,,,,,,,,,,,,,,,,,
,,,,,,60f9b7d785b3e37efe2c21d3,62c53975cbc302299560b847,2022-07-06_09h29.03.579,Colour_Asymmetry_Pilot,2022.1.3,Win32,59.63384817,62c50e9c1127f2cd403a315f,0,134,134,133,1,threefour,,,,,,,,,,,,,,,,,,,,,,,,,,,,,,,,,,,,,,,,,,,,,,,,,,,,,,,,,,,,,,,,,,,,,,,,,,,,,,,,,,,,,,,,,,,,,,,,,,,,,,,,,,,,,,,,,,,,,,,,,,,,,,,,,,,,,,,,,,,,,,,,,,,,,,,,,,,,,
,,,,,,60f9b7d785b3e37efe2c21d3,62c53975cbc302299560b847,2022-07-06_09h29.03.579,Colour_Asymmetry_Pilot,2022.1.3,Win32,59.63384817,62c50e9c1127f2cd403a315f,0,135,135,120,1,onetwo,,,,,,,,,,,,,,,,,,,,,,,,,,,,,,,,,,,,,,,,,,,,,,,,,,,,,,,,,,,,,,,,,,,,,,,,,,,,,,,,,,,,,,,,,,,,,,,,,,,,,,,,,,,,,,,,,,,,,,,,,,,,,,,,,,,,,,,,,,,,,,,,,,,,,,,,,,,,,
,,,,,,60f9b7d785b3e37efe2c21d3,62c53975cbc302299560b847,2022-07-06_09h29.03.579,Colour_Asymmetry_Pilot,2022.1.3,Win32,59.63384817,62c50e9c1127f2cd403a315f,0,136,136,90,1,twoone,,,,,,,,,,,,,,,,,,,,,,,,,,,,,,,,,,,,,,,,,,,,,,,,,,,,,,,,,,,,,,,,,,,,,,,,,,,,,,,,,,,,,,,,,,,,,,,,,,,,,,,,,,,,,,,,,,,,,,,,,,,,,,,,,,,,,,,,,,,,,,,,,,,,,,,,,,,,,
,,,,,,60f9b7d785b3e37efe2c21d3,62c53975cbc302299560b847,2022-07-06_09h29.03.579,Colour_Asymmetry_Pilot,2022.1.3,Win32,59.63384817,62c50e9c1127f2cd403a315f,0,137,137,118,1,fourtwo,,,,,,,,,,,,,,,,,,,,,,,,,,,,,,,,,,,,,,,,,,,,,,,,,,,,,,,,,,,,,,,,,,,,,,,,,,,,,,,,,,,,,,,,,,,,,,,,,,,,,,,,,,,,,,,,,,,,,,,,,,,,,,,,,,,,,,,,,,,,,,,,,,,,,,,,,,,,,
,,,,,,60f9b7d785b3e37efe2c21d3,62c53975cbc302299560b847,2022-07-06_09h29.03.579,Colour_Asymmetry_Pilot,2022.1.3,Win32,59.63384817,62c50e9c1127f2cd403a315f,0,138,138,124,1,threeone,,,,,,,,,,,,,,,,,,,,,,,,,,,,,,,,,,,,,,,,,,,,,,,,,,,,,,,,,,,,,,,,,,,,,,,,,,,,,,,,,,,,,,,,,,,,,,,,,,,,,,,,,,,,,,,,,,,,,,,,,,,,,,,,,,,,,,,,,,,,,,,,,,,,,,,,,,,,,
,,,,,,60f9b7d785b3e37efe2c21d3,62c53975cbc302299560b847,2022-07-06_09h29.03.579,Colour_Asymmetry_Pilot,2022.1.3,Win32,59.63384817,62c50e9c1127f2cd403a315f,0,139,139,86,1,fourtwo,,,,,,,,,,,,,,,,,,,,,,,,,,,,,,,,,,,,,,,,,,,,,,,,,,,,,,,,,,,,,,,,,,,,,,,,,,,,,,,,,,,,,,,,,,,,,,,,,,,,,,,,,,,,,,,,,,,,,,,,,,,,,,,,,,,,,,,,,,,,,,,,,,,,,,,,,,,,,
,,,,,,60f9b7d785b3e37efe2c21d3,62c53975cbc302299560b847,2022-07-06_09h29.03.579,Colour_Asymmetry_Pilot,2022.1.3,Win32,59.63384817,62c50e9c1127f2cd403a315f,0,140,140,109,1,threefour,,,,,,,,,,,,,,,,,,,,,,,,,,,,,,,,,,,,,,,,,,,,,,,,,,,,,,,,,,,,,,,,,,,,,,,,,,,,,,,,,,,,,,,,,,,,,,,,,,,,,,,,,,,,,,,,,,,,,,,,,,,,,,,,,,,,,,,,,,,,,,,,,,,,,,,,,,,,,
,,,,,,60f9b7d785b3e37efe2c21d3,62c53975cbc302299560b847,2022-07-06_09h29.03.579,Colour_Asymmetry_Pilot,2022.1.3,Win32,59.63384817,62c50e9c1127f2cd403a315f,0,141,141,59,1,twofour,,,,,,,,,,,,,,,,,,,,,,,,,,,,,,,,,,,,,,,,,,,,,,,,,,,,,,,,,,,,,,,,,,,,,,,,,,,,,,,,,,,,,,,,,,,,,,,,,,,,,,,,,,,,,,,,,,,,,,,,,,,,,,,,,,,,,,,,,,,,,,,,,,,,,,,,,,,,,
,,,,,,60f9b7d785b3e37efe2c21d3,62c53975cbc302299560b847,2022-07-06_09h29.03.579,Colour_Asymmetry_Pilot,2022.1.3,Win32,59.63384817,62c50e9c1127f2cd403a315f,0,142,142,30,1,fourtwo,,,,,,,,,,,,,,,,,,,,,,,,,,,,,,,,,,,,,,,,,,,,,,,,,,,,,,,,,,,,,,,,,,,,,,,,,,,,,,,,,,,,,,,,,,,,,,,,,,,,,,,,,,,,,,,,,,,,,,,,,,,,,,,,,,,,,,,,,,,,,,,,,,,,,,,,,,,,,
,,,,,,60f9b7d785b3e37efe2c21d3,62c53975cbc302299560b847,2022-07-06_09h29.03.579,Colour_Asymmetry_Pilot,2022.1.3,Win32,59.63384817,62c50e9c1127f2cd403a315f,0,143,143,116,1,threeone,,,,,,,,,,,,,,,,,,,,,,,,,,,,,,,,,,,,,,,,,,,,,,,,,,,,,,,,,,,,,,,,,,,,,,,,,,,,,,,,,,,,,,,,,,,,,,,,,,,,,,,,,,,,,,,,,,,,,,,,,,,,,,,,,,,,,,,,,,,,,,,,,,,,,,,,,,,,,
,,,,,,60f9b7d785b3e37efe2c21d3,62c53975cbc302299560b847,2022-07-06_09h29.03.579,Colour_Asymmetry_Pilot,2022.1.3,Win32,59.63384817,62c50e9c1127f2cd403a315f,0,144,144,134,1,fourtwo,,,,,,,,,,,,,,,,,,,,,,,,,,,,,,,,,,,,,,,,,,,,,,,,,,,,,,,,,,,,,,,,,,,,,,,,,,,,,,,,,,,,,,,,,,,,,,,,,,,,,,,,,,,,,,,,,,,,,,,,,,,,,,,,,,,,,,,,,,,,,,,,,,,,,,,,,,,,,
,,,,,,60f9b7d785b3e37efe2c21d3,62c53975cbc302299560b847,2022-07-06_09h29.03.579,Colour_Asymmetry_Pilot,2022.1.3,Win32,59.63384817,62c50e9c1127f2cd403a315f,0,145,145,63,1,fourthree,,,,,,,,,,,,,,,,,,,,,,,,,,,,,,,,,,,,,,,,,,,,,,,,,,,,,,,,,,,,,,,,,,,,,,,,,,,,,,,,,,,,,,,,,,,,,,,,,,,,,,,,,,,,,,,,,,,,,,,,,,,,,,,,,,,,,,,,,,,,,,,,,,,,,,,,,,,,,
,,,,,,60f9b7d785b3e37efe2c21d3,62c53975cbc302299560b847,2022-07-06_09h29.03.579,Colour_Asymmetry_Pilot,2022.1.3,Win32,59.63384817,62c50e9c1127f2cd403a315f,0,146,146,78,1,fourtwo,,,,,,,,,,,,,,,,,,,,,,,,,,,,,,,,,,,,,,,,,,,,,,,,,,,,,,,,,,,,,,,,,,,,,,,,,,,,,,,,,,,,,,,,,,,,,,,,,,,,,,,,,,,,,,,,,,,,,,,,,,,,,,,,,,,,,,,,,,,,,,,,,,,,,,,,,,,,,
,,,,,,60f9b7d785b3e37efe2c21d3,62c53975cbc302299560b847,2022-07-06_09h29.03.579,Colour_Asymmetry_Pilot,2022.1.3,Win32,59.63384817,62c50e9c1127f2cd403a315f,0,147,147,142,1,fourtwo,,,,,,,,,,,,,,,,,,,,,,,,,,,,,,,,,,,,,,,,,,,,,,,,,,,,,,,,,,,,,,,,,,,,,,,,,,,,,,,,,,,,,,,,,,,,,,,,,,,,,,,,,,,,,,,,,,,,,,,,,,,,,,,,,,,,,,,,,,,,,,,,,,,,,,,,,,,,,
,,,,,,60f9b7d785b3e37efe2c21d3,62c53975cbc302299560b847,2022-07-06_09h29.03.579,Colour_Asymmetry_Pilot,2022.1.3,Win32,59.63384817,62c50e9c1127f2cd403a315f,0,148,148,1,1,onethree,,,,,,,,,,,,,,,,,,,,,,,,,,,,,,,,,,,,,,,,,,,,,,,,,,,,,,,,,,,,,,,,,,,,,,,,,,,,,,,,,,,,,,,,,,,,,,,,,,,,,,,,,,,,,,,,,,,,,,,,,,,,,,,,,,,,,,,,,,,,,,,,,,,,,,,,,,,,,
,,,,,,60f9b7d785b3e37efe2c21d3,62c53975cbc302299560b847,2022-07-06_09h29.03.579,Colour_Asymmetry_Pilot,2022.1.3,Win32,59.63384817,62c50e9c1127f2cd403a315f,0,149,149,3,1,twofour,,,,,,,,,,,,,,,,,,,,,,,,,,,,,,,,,,,,,,,,,,,,,,,,,,,,,,,,,,,,,,,,,,,,,,,,,,,,,,,,,,,,,,,,,,,,,,,,,,,,,,,,,,,,,,,,,,,,,,,,,,,,,,,,,,,,,,,,,,,,,,,,,,,,,,,,,,,,,
,,,,,,60f9b7d785b3e37efe2c21d3,62c53975cbc302299560b847,2022-07-06_09h29.03.579,Colour_Asymmetry_Pilot,2022.1.3,Win32,59.63384817,62c50e9c1127f2cd403a315f,0,150,150,114,1,twoone,,,,,,,,,,,,,,,,,,,,,,,,,,,,,,,,,,,,,,,,,,,,,,,,,,,,,,,,,,,,,,,,,,,,,,,,,,,,,,,,,,,,,,,,,,,,,,,,,,,,,,,,,,,,,,,,,,,,,,,,,,,,,,,,,,,,,,,,,,,,,,,,,,,,,,,,,,,,,
,,,,,,60f9b7d785b3e37efe2c21d3,62c53975cbc302299560b847,2022-07-06_09h29.03.579,Colour_Asymmetry_Pilot,2022.1.3,Win32,59.63384817,62c50e9c1127f2cd403a315f,0,151,151,62,1,fourtwo,,,,,,,,,,,,,,,,,,,,,,,,,,,,,,,,,,,,,,,,,,,,,,,,,,,,,,,,,,,,,,,,,,,,,,,,,,,,,,,,,,,,,,,,,,,,,,,,,,,,,,,,,,,,,,,,,,,,,,,,,,,,,,,,,,,,,,,,,,,,,,,,,,,,,,,,,,,,,
,,,,,,60f9b7d785b3e37efe2c21d3,62c53975cbc302299560b847,2022-07-06_09h29.03.579,Colour_Asymmetry_Pilot,2022.1.3,Win32,59.63384817,62c50e9c1127f2cd403a315f,0,152,152,110,1,fourtwo,,,,,,,,,,,,,,,,,,,,,,,,,,,,,,,,,,,,,,,,,,,,,,,,,,,,,,,,,,,,,,,,,,,,,,,,,,,,,,,,,,,,,,,,,,,,,,,,,,,,,,,,,,,,,,,,,,,,,,,,,,,,,,,,,,,,,,,,,,,,,,,,,,,,,,,,,,,,,
,,,,,,60f9b7d785b3e37efe2c21d3,62c53975cbc302299560b847,2022-07-06_09h29.03.579,Colour_Asymmetry_Pilot,2022.1.3,Win32,59.63384817,62c50e9c1127f2cd403a315f,0,153,153,21,1,threefour,,,,,,,,,,,,,,,,,,,,,,,,,,,,,,,,,,,,,,,,,,,,,,,,,,,,,,,,,,,,,,,,,,,,,,,,,,,,,,,,,,,,,,,,,,,,,,,,,,,,,,,,,,,,,,,,,,,,,,,,,,,,,,,,,,,,,,,,,,,,,,,,,,,,,,,,,,,,,
,,,,,,60f9b7d785b3e37efe2c21d3,62c53975cbc302299560b847,2022-07-06_09h29.03.579,Colour_Asymmetry_Pilot,2022.1.3,Win32,59.63384817,62c50e9c1127f2cd403a315f,0,154,154,148,1,threeone,,,,,,,,,,,,,,,,,,,,,,,,,,,,,,,,,,,,,,,,,,,,,,,,,,,,,,,,,,,,,,,,,,,,,,,,,,,,,,,,,,,,,,,,,,,,,,,,,,,,,,,,,,,,,,,,,,,,,,,,,,,,,,,,,,,,,,,,,,,,,,,,,,,,,,,,,,,,,
,,,,,,60f9b7d785b3e37efe2c21d3,62c53975cbc302299560b847,2022-07-06_09h29.03.579,Colour_Asymmetry_Pilot,2022.1.3,Win32,59.63384817,62c50e9c1127f2cd403a315f,0,155,155,129,1,onethree,,,,,,,,,,,,,,,,,,,,,,,,,,,,,,,,,,,,,,,,,,,,,,,,,,,,,,,,,,,,,,,,,,,,,,,,,,,,,,,,,,,,,,,,,,,,,,,,,,,,,,,,,,,,,,,,,,,,,,,,,,,,,,,,,,,,,,,,,,,,,,,,,,,,,,,,,,,,,
,,,,,,60f9b7d785b3e37efe2c21d3,62c53975cbc302299560b847,2022-07-06_09h29.03.579,Colour_Asymmetry_Pilot,2022.1.3,Win32,59.63384817,62c50e9c1127f2cd403a315f,0,156,156,15,1,fourthree,,,,,,,,,,,,,,,,,,,,,,,,,,,,,,,,,,,,,,,,,,,,,,,,,,,,,,,,,,,,,,,,,,,,,,,,,,,,,,,,,,,,,,,,,,,,,,,,,,,,,,,,,,,,,,,,,,,,,,,,,,,,,,,,,,,,,,,,,,,,,,,,,,,,,,,,,,,,,
,,,,,,60f9b7d785b3e37efe2c21d3,62c53975cbc302299560b847,2022-07-06_09h29.03.579,Colour_Asymmetry_Pilot,2022.1.3,Win32,59.63384817,62c50e9c1127f2cd403a315f,0,157,157,151,1,fourthree,,,,,,,,,,,,,,,,,,,,,,,,,,,,,,,,,,,,,,,,,,,,,,,,,,,,,,,,,,,,,,,,,,,,,,,,,,,,,,,,,,,,,,,,,,,,,,,,,,,,,,,,,,,,,,,,,,,,,,,,,,,,,,,,,,,,,,,,,,,,,,,,,,,,,,,,,,,,,
,,,,,,60f9b7d785b3e37efe2c21d3,62c53975cbc302299560b847,2022-07-06_09h29.03.579,Colour_Asymmetry_Pilot,2022.1.3,Win32,59.63384817,62c50e9c1127f2cd403a315f,0,158,158,40,1,onetwo,,,,,,,,,,,,,,,,,,,,,,,,,,,,,,,,,,,,,,,,,,,,,,,,,,,,,,,,,,,,,,,,,,,,,,,,,,,,,,,,,,,,,,,,,,,,,,,,,,,,,,,,,,,,,,,,,,,,,,,,,,,,,,,,,,,,,,,,,,,,,,,,,,,,,,,,,,,,,
,,,,,,60f9b7d785b3e37efe2c21d3,62c53975cbc302299560b847,2022-07-06_09h29.03.579,Colour_Asymmetry_Pilot,2022.1.3,Win32,59.63384817,62c50e9c1127f2cd403a315f,0,159,159,152,1,onetwo,,,,,,,,,,,,,,,,,,,,,,,,,,,,,,,,,,,,,,,,,,,,,,,,,,,,,,,,,,,,,,,,,,,,,,,,,,,,,,,,,,,,,,,,,,,,,,,,,,,,,,,,,,,,,,,,,,,,,,,,,,,,,,,,,,,,,,,,,,,,,,,,,,,,,,,,,,,,,
,,,,,,60f9b7d785b3e37efe2c21d3,62c53975cbc302299560b847,2022-07-06_09h29.03.579,Colour_Asymmetry_Pilot,2022.1.3,Win32,59.63384817,62c50e9c1127f2cd403a315f,0,160,160,135,1,fourthree,,,,,,,,,,,,,,,,,,,,,,,,,,,,,,,,,,,,,,,,,,,,,,,,,,,,,,,,,,,,,,,,,,,,,,,,,,,,,,,,,,,,,,,,,,,,,,,,,,,,,,,,,,,,,,,,,,,,,,,,,,,,,,,,,,,,,,,,,,,,,,,,,,,,,,,,,,,,,
,,,,,,60f9b7d785b3e37efe2c21d3,62c53975cbc302299560b847,2022-07-06_09h29.03.579,Colour_Asymmetry_Pilot,2022.1.3,Win32,59.63384817,62c50e9c1127f2cd403a315f,0,161,161,141,1,threefour,,,,,,,,,,,,,,,,,,,,,,,,,,,,,,,,,,,,,,,,,,,,,,,,,,,,,,,,,,,,,,,,,,,,,,,,,,,,,,,,,,,,,,,,,,,,,,,,,,,,,,,,,,,,,,,,,,,,,,,,,,,,,,,,,,,,,,,,,,,,,,,,,,,,,,,,,,,,,
,,,,,,60f9b7d785b3e37efe2c21d3,62c53975cbc302299560b847,2022-07-06_09h29.03.579,Colour_Asymmetry_Pilot,2022.1.3,Win32,59.63384817,62c50e9c1127f2cd403a315f,,,,,,,space,42.3612,space,24.3408,space,54.9725,space,19.8006,space,10.0727,space,18.116,"[0.9372,0.20779999999999998,0.2704]",twofour,"[0.9763999999999999,0.8588,-0.05900000000000005]",-3,4.6882,-59,47,1,0,0,response7disk_5,-2,0,1,0,0,rectangle_8,39,-99,1,0,0,response3disk_7,4,1,1,1,1,0,0,rectangle_4,0,0,0,0,1,,,,,,,,,,,,,,,,,,,,,,,,,,,,,,,,,,,,,,,,,,,,,,,,,,,,,,,,,,,,,,,,,,,,,,,,,,,,,,,,,,,,,,,,,,,,,,,,,,,,,,,,,,,,,
,,,,,,60f9b7d785b3e37efe2c21d3,62c53975cbc302299560b847,2022-07-06_09h29.03.579,Colour_Asymmetry_Pilot,2022.1.3,Win32,59.63384817,62c50e9c1127f2cd403a315f,,,,,,,,,,,,,,,,,,,"[-0.17659999999999998,0.3253999999999999,0.19999999999999996]",threefour,"[0.6625999999999999,0.4980000000000002,-0.357]",-3,2.2236,-42,39,1,0,0,response7disk_5,-5,-1,1,0,0,rectangle_8,-5,-1,1,0,0,,,1,-5,-1,1,0,0,,1,0,1,0,1,,,,,,,,,,,,,,,,,,,,,,,,,,,,,,,,,,,,,,,,,,,,,,,,,,,,,,,,,,,,,,,,,,,,,,,,,,,,,,,,,,,,,,,,,,,,,,,,,,,,,,,,,,,,,
,,,,,,60f9b7d785b3e37efe2c21d3,62c53975cbc302299560b847,2022-07-06_09h29.03.579,Colour_Asymmetry_Pilot,2022.1.3,Win32,59.63384817,62c50e9c1127f2cd403a315f,,,,,,,,,,,,,,,,,,,"[-0.4668,-0.8746,-0.2942]",twofour,"[-0.9766,-0.6472,0.07440000000000002]",3,2.0082,80,29,1,0,0,response1disk_5,-19,1,1,0,0,rectangle_8,44,-109,1,0,0,response3disk_7,4,1,9,3,1,0,0,rectangle_4,2,0,2,0,1,,,,,,,,,,,,,,,,,,,,,,,,,,,,,,,,,,,,,,,,,,,,,,,,,,,,,,,,,,,,,,,,,,,,,,,,,,,,,,,,,,,,,,,,,,,,,,,,,,,,,,,,,,,,,
,,,,,,60f9b7d785b3e37efe2c21d3,62c53975cbc302299560b847,2022-07-06_09h29.03.579,Colour_Asymmetry_Pilot,2022.1.3,Win32,59.63384817,62c50e9c1127f2cd403a315f,,,,,,,,,,,,,,,,,,,"[0.3802000000000001,0.19199999999999995,-0.6394]",threeone,"[-0.9766,-0.34920000000000007,0.2156]",-3,1.4671,-58,50,1,0,0,response7disk_5,9,14,1,0,0,rectangle_8,9,14,1,0,0,,,1,9,14,1,0,0,,3,0,3,0,1,,,,,,,,,,,,,,,,,,,,,,,,,,,,,,,,,,,,,,,,,,,,,,,,,,,,,,,,,,,,,,,,,,,,,,,,,,,,,,,,,,,,,,,,,,,,,,,,,,,,,,,,,,,,,
,,,,,,60f9b7d785b3e37efe2c21d3,62c53975cbc302299560b847,2022-07-06_09h29.03.579,Colour_Asymmetry_Pilot,2022.1.3,Win32,59.63384817,62c50e9c1127f2cd403a315f,,,,,,,,,,,,,,,,,,,"[-0.07459999999999989,0.12139999999999995,-0.9922]",fourtwo,"[-0.7412000000000001,-0.08239999999999992,-0.6864]",3,2.4401,96,35,1,0,0,response1disk_5,-10,0,1,0,0,rectangle_8,-10,0,1,0,0,,,1,-10,0,1,0,0,,4,0,4,0,1,,,,,,,,,,,,,,,,,,,,,,,,,,,,,,,,,,,,,,,,,,,,,,,,,,,,,,,,,,,,,,,,,,,,,,,,,,,,,,,,,,,,,,,,,,,,,,,,,,,,,,,,,,,,,
,,,,,,60f9b7d785b3e37efe2c21d3,62c53975cbc302299560b847,2022-07-06_09h29.03.579,Colour_Asymmetry_Pilot,2022.1.3,Win32,59.63384817,62c50e9c1127f2cd403a315f,,,,,,,,,,,,,,,,,,,"[-0.6706000000000001,-0.6157999999999999,-0.6786]",threefour,"[0.3568,-0.20799999999999996,-0.9844]",-2,1.8515,-71,-30,1,0,0,response5disk_5,-16,2,1,0,0,rectangle_8,-16,2,1,0,0,,,1,-16,2,1,0,0,,5,0,5,0,1,,,,,,,,,,,,,,,,,,,,,,,,,,,,,,,,,,,,,,,,,,,,,,,,,,,,,,,,,,,,,,,,,,,,,,,,,,,,,,,,,,,,,,,,,,,,,,,,,,,,,,,,,,,,,
,,,,,,60f9b7d785b3e37efe2c21d3,62c53975cbc302299560b847,2022-07-06_09h29.03.579,Colour_Asymmetry_Pilot,2022.1.3,Win32,59.63384817,62c50e9c1127f2cd403a315f,,,,,,,,,,,,,,,,,,,"[0.37240000000000006,-0.050999999999999934,-0.5216]",fourthree,"[0.04299999999999993,0.16060000000000008,-0.6628000000000001]",2,1.9399,56,-41,1,0,0,response3disk_5,-9,-2,1,0,0,rectangle_8,-9,-2,1,0,0,,,1,-9,-2,1,0,0,,6,0,6,0,1,,,,,,,,,,,,,,,,,,,,,,,,,,,,,,,,,,,,,,,,,,,,,,,,,,,,,,,,,,,,,,,,,,,,,,,,,,,,,,,,,,,,,,,,,,,,,,,,,,,,,,,,,,,,,
,,,,,,60f9b7d785b3e37efe2c21d3,62c53975cbc302299560b847,2022-07-06_09h29.03.579,Colour_Asymmetry_Pilot,2022.1.3,Win32,59.63384817,62c50e9c1127f2cd403a315f,,,,,,,,,,,,,,,,,,,,threefour,,1,2.177,,,,,,,,,,,,,,,,,,,,,,,,,,,,,,,,space,15.0432,"[0.40379999999999994,0.09000000000000008,0.44300000000000006]","[0.2862,0.7802,0.3568]",39,-79,1,0,0,response3disk,-13,10,1,0,0,rectangle,-13,10,1,0,0,,2,0.0013,0,-13,10,1,0,0,0,0,0,123,1,42,second,,,,,,,,,,,,,,,,,,,,,,,,,,,,,,,,,,,,,,,,,,,,,,,,,,,,,,,,,,,,,,,,,,,,,,,,
,,,,,,60f9b7d785b3e37efe2c21d3,62c53975cbc302299560b847,2022-07-06_09h29.03.579,Colour_Asymmetry_Pilot,2022.1.3,Win32,59.63384817,62c50e9c1127f2cd403a315f,,,,,,,,,,,,,,,,,,,,onethree,,-4,1.7537,,,,,,,,,,,,,,,,,,,,,,,,,,,,,,,,,,"[0.22340000000000004,-0.9296,-0.7884]","[-0.48240000000000005,0.3175999999999999,0.2156]",-40,73,1,0,0,response7disk,4,4,1,0,0,rectangle,4,4,1,0,0,,1,0.0009,0,4,4,1,0,0,0,1,1,81,1,0,second,,,,,,,,,,,,,,,,,,,,,,,,,,,,,,,,,,,,,,,,,,,,,,,,,,,,,,,,,,,,,,,,,,,,,,,,
,,,,,,60f9b7d785b3e37efe2c21d3,62c53975cbc302299560b847,2022-07-06_09h29.03.579,Colour_Asymmetry_Pilot,2022.1.3,Win32,59.63384817,62c50e9c1127f2cd403a315f,,,,,,,,,,,,,,,,,,,,threefour,,-1,3.0938,,,,,,,,,,,,,,,,,,,,,,,,,,,,,,,,,,"[0.04299999999999993,0.16060000000000008,-0.6628000000000001]","[0.23920000000000008,0.2704,0.16060000000000008]",-45,-70,1,0,0,response5disk,-12,5,1,0,0,rectangle,91,-43,1,0,0,2,2,2.6268,1,-1,-6,1,0,0,0,2,2,55,1,55,first,response3disk_3,rectangle,,,,,,,,,,,,,,,,,,,,,,,,,,,,,,,,,,,,,,,,,,,,,,,,,,,,,,,,,,,,,,,,,,,,,,
,,,,,,60f9b7d785b3e37efe2c21d3,62c53975cbc302299560b847,2022-07-06_09h29.03.579,Colour_Asymmetry_Pilot,2022.1.3,Win32,59.63384817,62c50e9c1127f2cd403a315f,,,,,,,,,,,,,,,,,,,,twoone,,3,2.4394,,,,,,,,,,,,,,,,,,,,,,,,,,,,,,,,,,"[-0.9138,-0.5296000000000001,-0.5529999999999999]","[-0.8118,-0.8198,-0.5452]",99,64,1,0,0,response1disk,-12,-7,1,0,0,rectangle,-12,-7,1,0,0,2,1,0.0025,0,-12,-7,1,0,0,0,3,3,17,1,17,first,,,,,,,,,,,,,,,,,,,,,,,,,,,,,,,,,,,,,,,,,,,,,,,,,,,,,,,,,,,,,,,,,,,,,,,,
,,,,,,60f9b7d785b3e37efe2c21d3,62c53975cbc302299560b847,2022-07-06_09h29.03.579,Colour_Asymmetry_Pilot,2022.1.3,Win32,59.63384817,62c50e9c1127f2cd403a315f,,,,,,,,,,,,,,,,,,,,threefour,,-3,1.1479,,,,,,,,,,,,,,,,,,,,,,,,,,,,,,,,,,"[-0.2942,-0.24719999999999998,-0.357]","[0.9686000000000001,0.3802000000000001,0.19999999999999996]",-85,29,1,0,0,response7disk,-5,6,1,0,0,rectangle,-5,6,1,0,0,2,1,0.0005,0,-5,6,1,0,0,0,4,4,40,1,40,first,,,,,,,,,,,,,,,,,,,,,,,,,,,,,,,,,,,,,,,,,,,,,,,,,,,,,,,,,,,,,,,,,,,,,,,,
,,,,,,60f9b7d785b3e37efe2c21d3,62c53975cbc302299560b847,2022-07-06_09h29.03.579,Colour_Asymmetry_Pilot,2022.1.3,Win32,59.63384817,62c50e9c1127f2cd403a315f,,,,,,,,,,,,,,,,,,,,fourtwo,,-4,0.9886,,,,,,,,,,,,,,,,,,,,,,,,,,,,,,,,,,"[0.0351999999999999,0.41159999999999997,0.0038000000000000256]","[-0.9766,-0.34920000000000007,0.2156]",-63,101,1,0,0,response7disk,0,-1,1,0,0,rectangle,0,-1,1,0,0,2,1,0.0008,0,0,-1,1,0,0,0,5,5,33,1,33,first,,,,,,,,,,,,,,,,,,,,,,,,,,,,,,,,,,,,,,,,,,,,,,,,,,,,,,,,,,,,,,,,,,,,,,,,
,,,,,,60f9b7d785b3e37efe2c21d3,62c53975cbc302299560b847,2022-07-06_09h29.03.579,Colour_Asymmetry_Pilot,2022.1.3,Win32,59.63384817,62c50e9c1127f2cd403a315f,,,,,,,,,,,,,,,,,,,,onetwo,,-3,1.6082,,,,,,,,,,,,,,,,,,,,,,,,,,,,,,,,,,"[-0.4668,-0.8746,-0.2942]","[0.3802000000000001,0.19199999999999995,-0.6394]",-78,51,1,0,0,response7disk,5,8,1,0,0,rectangle,5,8,1,0,0,2,1,0.0007,0,5,8,1,0,0,0,6,6,99,1,18,second,,,,,,,,,,,,,,,,,,,,,,,,,,,,,,,,,,,,,,,,,,,,,,,,,,,,,,,,,,,,,,,,,,,,,,,,
,,,,,,60f9b7d785b3e37efe2c21d3,62c53975cbc302299560b847,2022-07-06_09h29.03.579,Colour_Asymmetry_Pilot,2022.1.3,Win32,59.63384817,62c50e9c1127f2cd403a315f,,,,,,,,,,,,,,,,,,,,twofour,,2,1.1368,,,,,,,,,,,,,,,,,,,,,,,,,,,,,,,,,,"[0.5528,0.7409999999999999,-0.71]","[0.9763999999999999,0.8588,-0.05900000000000005]",94,-41,1,0,0,response3disk,-5,2,1,0,0,rectangle,-5,2,1,0,0,2,2,0.0025,0,-5,2,1,0,0,0,7,7,144,1,63,second,,,,,,,,,,,,,,,,,,,,,,,,,,,,,,,,,,,,,,,,,,,,,,,,,,,,,,,,,,,,,,,,,,,,,,,,
,,,,,,60f9b7d785b3e37efe2c21d3,62c53975cbc302299560b847,2022-07-06_09h29.03.579,Colour_Asymmetry_Pilot,2022.1.3,Win32,59.63384817,62c50e9c1127f2cd403a315f,,,,,,,,,,,,,,,,,,,,threefour,,-4,1.5794,,,,,,,,,,,,,,,,,,,,,,,,,,,,,,,,,,"[-0.48240000000000005,0.3175999999999999,0.2156]","[0.22340000000000004,-0.9296,-0.7884]",-38,77,1,0,0,response7disk,22,4,1,0,0,rectangle,22,4,1,0,0,2,2,0.0008,0,22,4,1,0,0,0,8,8,0,1,0,first,,,,,,,,,,,,,,,,,,,,,,,,,,,,,,,,,,,,,,,,,,,,,,,,,,,,,,,,,,,,,,,,,,,,,,,,
,,,,,,60f9b7d785b3e37efe2c21d3,62c53975cbc302299560b847,2022-07-06_09h29.03.579,Colour_Asymmetry_Pilot,2022.1.3,Win32,59.63384817,62c50e9c1127f2cd403a315f,,,,,,,,,,,,,,,,,,,,onethree,,-3,1.3359,,,,,,,,,,,,,,,,,,,,,,,,,,,,,,,,,,"[0.12939999999999996,-0.2864,0.3253999999999999]","[0.9763999999999999,0.8588,-0.05900000000000005]",-73,43,1,0,0,response7disk,2,7,1,0,0,rectangle,2,7,1,0,0,2,1,0.0032,0,2,7,1,0,0,0,9,9,142,1,61,second,,,,,,,,,,,,,,,,,,,,,,,,,,,,,,,,,,,,,,,,,,,,,,,,,,,,,,,,,,,,,,,,,,,,,,,,
,,,,,,60f9b7d785b3e37efe2c21d3,62c53975cbc302299560b847,2022-07-06_09h29.03.579,Colour_Asymmetry_Pilot,2022.1.3,Win32,59.63384817,62c50e9c1127f2cd403a315f,,,,,,,,,,,,,,,,,,,,onethree,,-2,1.3272,,,,,,,,,,,,,,,,,,,,,,,,,,,,,,,,,,"[-0.9296,-0.12959999999999994,-0.043199999999999905]","[-0.24719999999999998,0.5213999999999999,-0.12959999999999994]",-83,-45,1,0,0,response5disk,11,-6,1,0,0,rectangle,28,-72,1,0,0,1,1,1.7754,1,-18,-5,1,0,0,0,10,10,97,1,16,second,response3disk_3,rectangle,,,,,,,,,,,,,,,,,,,,,,,,,,,,,,,,,,,,,,,,,,,,,,,,,,,,,,,,,,,,,,,,,,,,,,
,,,,,,60f9b7d785b3e37efe2c21d3,62c53975cbc302299560b847,2022-07-06_09h29.03.579,Colour_Asymmetry_Pilot,2022.1.3,Win32,59.63384817,62c50e9c1127f2cd403a315f,,,,,,,,,,,,,,,,,,,,fourtwo,,-4,0.7403,,,,,,,,,,,,,,,,,,,,,,,,,,,,,,,,,,"[0.2862,0.7802,0.3568]","[-0.011800000000000033,-0.906,-0.45100000000000007]",-34,59,1,0,0,response7disk,-5,-1,1,0,0,rectangle,-5,-1,1,0,0,1,1,0.0013,0,-5,-1,1,0,0,0,11,11,80,1,80,first,,,,,,,,,,,,,,,,,,,,,,,,,,,,,,,,,,,,,,,,,,,,,,,,,,,,,,,,,,,,,,,,,,,,,,,,
,,,,,,60f9b7d785b3e37efe2c21d3,62c53975cbc302299560b847,2022-07-06_09h29.03.579,Colour_Asymmetry_Pilot,2022.1.3,Win32,59.63384817,62c50e9c1127f2cd403a315f,,,,,,,,,,,,,,,,,,,,twofour,,-3,0.8653,,,,,,,,,,,,,,,,,,,,,,,,,,,,,,,,,,"[-0.011800000000000033,-0.906,-0.45100000000000007]","[0.37240000000000006,0.4980000000000002,-0.2864]",-73,42,1,0,0,response7disk,-3,2,1,0,0,rectangle,-3,2,1,0,0,1,2,0.0031,0,-3,2,1,0,0,0,12,12,48,1,48,first,,,,,,,,,,,,,,,,,,,,,,,,,,,,,,,,,,,,,,,,,,,,,,,,,,,,,,,,,,,,,,,,,,,,,,,,
,,,,,,60f9b7d785b3e37efe2c21d3,62c53975cbc302299560b847,2022-07-06_09h29.03.579,Colour_Asymmetry_Pilot,2022.1.3,Win32,59.63384817,62c50e9c1127f2cd403a315f,,,,,,,,,,,,,,,,,,,,twoone,,-4,1.1907,,,,,,,,,,,,,,,,,,,,,,,,,,,,,,,,,,"[-0.4668,-0.8746,-0.2942]","[0.23920000000000008,0.2704,0.16060000000000008]",-56,89,1,0,0,response7disk,1,1,1,0,0,rectangle,1,1,1,0,0,1,2,0.0011,0,1,1,1,0,0,0,13,13,108,1,27,second,,,,,,,,,,,,,,,,,,,,,,,,,,,,,,,,,,,,,,,,,,,,,,,,,,,,,,,,,,,,,,,,,,,,,,,,
,,,,,,60f9b7d785b3e37efe2c21d3,62c53975cbc302299560b847,2022-07-06_09h29.03.579,Colour_Asymmetry_Pilot,2022.1.3,Win32,59.63384817,62c50e9c1127f2cd403a315f,,,,,,,,,,,,,,,,,,,,fourthree,,-2,2.7769,,,,,,,,,,,,,,,,,,,,,,,,,,,,,,,,,,"[0.19199999999999995,0.18419999999999992,0.5136000000000001]","[-0.0040000000000000036,0.02739999999999987,-0.08239999999999992]",-89,-29,1,0,0,response5disk,-17,-2,1,0,0,rectangle,-17,-2,1,0,0,1,1,0.0026,0,-17,-2,1,0,0,0,14,14,66,1,66,first,,,,,,,,,,,,,,,,,,,,,,,,,,,,,,,,,,,,,,,,,,,,,,,,,,,,,,,,,,,,,,,,,,,,,,,,
,,,,,,60f9b7d785b3e37efe2c21d3,62c53975cbc302299560b847,2022-07-06_09h29.03.579,Colour_Asymmetry_Pilot,2022.1.3,Win32,59.63384817,62c50e9c1127f2cd403a315f,,,,,,,,,,,,,,,,,,,,threefour,,-3,1.2704,,,,,,,,,,,,,,,,,,,,,,,,,,,,,,,,,,"[-0.6235999999999999,-0.6786,-0.08239999999999992]","[0.9763999999999999,-0.1137999999999999,-0.6314]",-74,34,1,0,0,response7disk,-3,5,1,0,0,rectangle,-3,5,1,0,0,1,2,0.0024,0,-3,5,1,0,0,0,15,15,111,1,30,second,,,,,,,,,,,,,,,,,,,,,,,,,,,,,,,,,,,,,,,,,,,,,,,,,,,,,,,,,,,,,,,,,,,,,,,,
,,,,,,60f9b7d785b3e37efe2c21d3,62c53975cbc302299560b847,2022-07-06_09h29.03.579,Colour_Asymmetry_Pilot,2022.1.3,Win32,59.63384817,62c50e9c1127f2cd403a315f,,,,,,,,,,,,,,,,,,,,threefour,,-1,1.0042,,,,,,,,,,,,,,,,,,,,,,,,,,,,,,,,,,"[-0.45899999999999996,-0.3256,-0.9374]","[0.40379999999999994,0.09000000000000008,0.44300000000000006]",-38,-73,1,0,0,response5disk,-18,6,1,0,0,rectangle,-18,6,1,0,0,1,1,0.0027,0,-18,6,1,0,0,0,16,16,135,1,54,second,,,,,,,,,,,,,,,,,,,,,,,,,,,,,,,,,,,,,,,,,,,,,,,,,,,,,,,,,,,,,,,,,,,,,,,,
,,,,,,60f9b7d785b3e37efe2c21d3,62c53975cbc302299560b847,2022-07-06_09h29.03.579,Colour_Asymmetry_Pilot,2022.1.3,Win32,59.63384817,62c50e9c1127f2cd403a315f,,,,,,,,,,,,,,,,,,,,onethree,,1,0.8339,,,,,,,,,,,,,,,,,,,,,,,,,,,,,,,,,,"[-0.5452,-0.608,0.2470000000000001]","[0.05879999999999996,0.2784,0.5841999999999998]",28,-81,1,0,0,response3disk,-11,7,1,0,0,rectangle,-11,7,1,0,0,1,1,0.0008,0,-11,7,1,0,0,0,17,17,109,1,28,second,,,,,,,,,,,,,,,,,,,,,,,,,,,,,,,,,,,,,,,,,,,,,,,,,,,,,,,,,,,,,,,,,,,,,,,,
