trials.thisRepN,trials.thisTrialN,trials.thisN,trials.thisIndex,trials.ran,Colourcodes,participant,session,date,expName,psychopyVersion,OS,frameRate,study_id,trials_4.thisRepN,trials_4.thisTrialN,trials_4.thisN,trials_4.thisIndex,trials_4.ran,StimulusPos,key_resp.keys,key_resp.rt,key_resp_2.keys,key_resp_2.rt,key_resp_15.keys,key_resp_15.rt,key_resp_17.keys,key_resp_17.rt,key_resp_9.keys,key_resp_9.rt,key_resp_10.keys,key_resp_10.rt,Circle1_col,Ecc,Circle2_col,similarity,response_time,mouse_5.x,mouse_5.y,mouse_5.leftButton,mouse_5.midButton,mouse_5.rightButton,mouse_5.clicked_name,mouse_10.x,mouse_10.y,mouse_10.leftButton,mouse_10.midButton,mouse_10.rightButton,mouse_10.clicked_name,mouse_7.x,mouse_7.y,mouse_7.leftButton,mouse_7.midButton,mouse_7.rightButton,catchnumberprac,mouse_6.x,mouse_6.y,mouse_6.leftButton,mouse_6.midButton,mouse_6.rightButton,duringprac.thisRepN,duringprac.thisTrialN,duringprac.thisN,duringprac.thisIndex,duringprac.ran,mouse_7.clicked_name,catchprac,mouse_6.clicked_name,key_resp_22.keys,key_resp_22.rt,Circle1_colour,Circle2_colour,mouse.x,mouse.y,mouse.leftButton,mouse.midButton,mouse.rightButton,mouse.clicked_name,mouse_2.x,mouse_2.y,mouse_2.leftButton,mouse_2.midButton,mouse_2.rightButton,mouse_2.clicked_name,mouse_3.x,mouse_3.y,mouse_3.leftButton,mouse_3.midButton,mouse_3.rightButton,catchresponse,catchnumber,response_time_catch,Catch,mouse_11.x,mouse_11.y,mouse_11.leftButton,mouse_11.midButton,mouse_11.rightButton,trials_2.thisRepN,trials_2.thisTrialN,trials_2.thisN,trials_2.thisIndex,trials_2.ran,Colourpair,Temporder,mouse_3.clicked_name,mouse_11.clicked_name,trials_3.thisRepN,trials_3.thisTrialN,trials_3.thisN,trials_3.thisIndex,trials_3.ran,key_resp_instr_Ishi.keys,key_resp_instr_Ishi.rt,Ishi_trial_keyresp.keys,Ishi_textbox.text,Ishi_mouse.x,Ishi_mouse.y,Ishi_mouse.leftButton,Ishi_mouse.midButton,Ishi_mouse.rightButton,Ishi_mouse.clicked_name,Ishi_loop.thisRepN,Ishi_loop.thisTrialN,Ishi_loop.thisN,Ishi_loop.thisIndex,Ishi_loop.ran,imageaddress,textbox.text,mouse_4.x,mouse_4.y,mouse_4.leftButton,mouse_4.midButton,mouse_4.rightButton,mouse_4.clicked_name,textbox_2.text,mouse_8.x,mouse_8.y,mouse_8.leftButton,mouse_8.midButton,mouse_8.rightButton,mouse_8.clicked_name,textbox_3.text,mouse_9.x,mouse_9.y,mouse_9.leftButton,mouse_9.midButton,mouse_9.rightButton,mouse_9.clicked_name,textbox_4.text,mouse_12.x,mouse_12.y,mouse_12.leftButton,mouse_12.midButton,mouse_12.rightButton,mouse_12.clicked_name,textbox_5.text,mouse_13.x,mouse_13.y,mouse_13.leftButton,mouse_13.midButton,mouse_13.rightButton,mouse_13.clicked_name,textbox_6.text,mouse_14.x,mouse_14.y,mouse_14.leftButton,mouse_14.midButton,mouse_14.rightButton,mouse_14.clicked_name,textbox_7.text,mouse_15.x,mouse_15.y,mouse_15.leftButton,mouse_15.midButton,mouse_15.rightButton,mouse_15.clicked_name
0,0,0,64,1,,616d22471eeb54d1b98db03c,62c53a2cb92f20b2d77b8cd9,2022-07-06_09h32.01.124,Colour_Asymmetry_Pilot,2022.1.3,Win32,59.98080614,62c50e9c1127f2cd403a315f,,,,,,,,,,,,,,,,,,,,,,,,,,,,,,,,,,,,,,,,,,,,,,,,,,,,,,,,,,,,,,,,,,,,,,,,,,,,,,,,,,,,,,,,,,,,,,,,,,,,,,,,,,,,,,,,,,,,,,,,,,,,,,,,,,,,,,,,,,,,,,,,,,,,,,,,,,,,,,,,,,,
0,1,1,92,1,,616d22471eeb54d1b98db03c,62c53a2cb92f20b2d77b8cd9,2022-07-06_09h32.01.124,Colour_Asymmetry_Pilot,2022.1.3,Win32,59.98080614,62c50e9c1127f2cd403a315f,,,,,,,,,,,,,,,,,,,,,,,,,,,,,,,,,,,,,,,,,,,,,,,,,,,,,,,,,,,,,,,,,,,,,,,,,,,,,,,,,,,,,,,,,,,,,,,,,,,,,,,,,,,,,,,,,,,,,,,,,,,,,,,,,,,,,,,,,,,,,,,,,,,,,,,,,,,,,,,,,,,
0,2,2,43,1,,616d22471eeb54d1b98db03c,62c53a2cb92f20b2d77b8cd9,2022-07-06_09h32.01.124,Colour_Asymmetry_Pilot,2022.1.3,Win32,59.98080614,62c50e9c1127f2cd403a315f,,,,,,,,,,,,,,,,,,,,,,,,,,,,,,,,,,,,,,,,,,,,,,,,,,,,,,,,,,,,,,,,,,,,,,,,,,,,,,,,,,,,,,,,,,,,,,,,,,,,,,,,,,,,,,,,,,,,,,,,,,,,,,,,,,,,,,,,,,,,,,,,,,,,,,,,,,,,,,,,,,,
0,3,3,5,1,,616d22471eeb54d1b98db03c,62c53a2cb92f20b2d77b8cd9,2022-07-06_09h32.01.124,Colour_Asymmetry_Pilot,2022.1.3,Win32,59.98080614,62c50e9c1127f2cd403a315f,,,,,,,,,,,,,,,,,,,,,,,,,,,,,,,,,,,,,,,,,,,,,,,,,,,,,,,,,,,,,,,,,,,,,,,,,,,,,,,,,,,,,,,,,,,,,,,,,,,,,,,,,,,,,,,,,,,,,,,,,,,,,,,,,,,,,,,,,,,,,,,,,,,,,,,,,,,,,,,,,,,
0,4,4,80,1,,616d22471eeb54d1b98db03c,62c53a2cb92f20b2d77b8cd9,2022-07-06_09h32.01.124,Colour_Asymmetry_Pilot,2022.1.3,Win32,59.98080614,62c50e9c1127f2cd403a315f,,,,,,,,,,,,,,,,,,,,,,,,,,,,,,,,,,,,,,,,,,,,,,,,,,,,,,,,,,,,,,,,,,,,,,,,,,,,,,,,,,,,,,,,,,,,,,,,,,,,,,,,,,,,,,,,,,,,,,,,,,,,,,,,,,,,,,,,,,,,,,,,,,,,,,,,,,,,,,,,,,,
0,5,5,78,1,,616d22471eeb54d1b98db03c,62c53a2cb92f20b2d77b8cd9,2022-07-06_09h32.01.124,Colour_Asymmetry_Pilot,2022.1.3,Win32,59.98080614,62c50e9c1127f2cd403a315f,,,,,,,,,,,,,,,,,,,,,,,,,,,,,,,,,,,,,,,,,,,,,,,,,,,,,,,,,,,,,,,,,,,,,,,,,,,,,,,,,,,,,,,,,,,,,,,,,,,,,,,,,,,,,,,,,,,,,,,,,,,,,,,,,,,,,,,,,,,,,,,,,,,,,,,,,,,,,,,,,,,
0,6,6,72,1,,616d22471eeb54d1b98db03c,62c53a2cb92f20b2d77b8cd9,2022-07-06_09h32.01.124,Colour_Asymmetry_Pilot,2022.1.3,Win32,59.98080614,62c50e9c1127f2cd403a315f,,,,,,,,,,,,,,,,,,,,,,,,,,,,,,,,,,,,,,,,,,,,,,,,,,,,,,,,,,,,,,,,,,,,,,,,,,,,,,,,,,,,,,,,,,,,,,,,,,,,,,,,,,,,,,,,,,,,,,,,,,,,,,,,,,,,,,,,,,,,,,,,,,,,,,,,,,,,,,,,,,,
0,7,7,13,1,,616d22471eeb54d1b98db03c,62c53a2cb92f20b2d77b8cd9,2022-07-06_09h32.01.124,Colour_Asymmetry_Pilot,2022.1.3,Win32,59.98080614,62c50e9c1127f2cd403a315f,,,,,,,,,,,,,,,,,,,,,,,,,,,,,,,,,,,,,,,,,,,,,,,,,,,,,,,,,,,,,,,,,,,,,,,,,,,,,,,,,,,,,,,,,,,,,,,,,,,,,,,,,,,,,,,,,,,,,,,,,,,,,,,,,,,,,,,,,,,,,,,,,,,,,,,,,,,,,,,,,,,
0,8,8,32,1,,616d22471eeb54d1b98db03c,62c53a2cb92f20b2d77b8cd9,2022-07-06_09h32.01.124,Colour_Asymmetry_Pilot,2022.1.3,Win32,59.98080614,62c50e9c1127f2cd403a315f,,,,,,,,,,,,,,,,,,,,,,,,,,,,,,,,,,,,,,,,,,,,,,,,,,,,,,,,,,,,,,,,,,,,,,,,,,,,,,,,,,,,,,,,,,,,,,,,,,,,,,,,,,,,,,,,,,,,,,,,,,,,,,,,,,,,,,,,,,,,,,,,,,,,,,,,,,,,,,,,,,,
0,9,9,27,1,,616d22471eeb54d1b98db03c,62c53a2cb92f20b2d77b8cd9,2022-07-06_09h32.01.124,Colour_Asymmetry_Pilot,2022.1.3,Win32,59.98080614,62c50e9c1127f2cd403a315f,,,,,,,,,,,,,,,,,,,,,,,,,,,,,,,,,,,,,,,,,,,,,,,,,,,,,,,,,,,,,,,,,,,,,,,,,,,,,,,,,,,,,,,,,,,,,,,,,,,,,,,,,,,,,,,,,,,,,,,,,,,,,,,,,,,,,,,,,,,,,,,,,,,,,,,,,,,,,,,,,,,
0,10,10,49,1,,616d22471eeb54d1b98db03c,62c53a2cb92f20b2d77b8cd9,2022-07-06_09h32.01.124,Colour_Asymmetry_Pilot,2022.1.3,Win32,59.98080614,62c50e9c1127f2cd403a315f,,,,,,,,,,,,,,,,,,,,,,,,,,,,,,,,,,,,,,,,,,,,,,,,,,,,,,,,,,,,,,,,,,,,,,,,,,,,,,,,,,,,,,,,,,,,,,,,,,,,,,,,,,,,,,,,,,,,,,,,,,,,,,,,,,,,,,,,,,,,,,,,,,,,,,,,,,,,,,,,,,,
0,11,11,23,1,,616d22471eeb54d1b98db03c,62c53a2cb92f20b2d77b8cd9,2022-07-06_09h32.01.124,Colour_Asymmetry_Pilot,2022.1.3,Win32,59.98080614,62c50e9c1127f2cd403a315f,,,,,,,,,,,,,,,,,,,,,,,,,,,,,,,,,,,,,,,,,,,,,,,,,,,,,,,,,,,,,,,,,,,,,,,,,,,,,,,,,,,,,,,,,,,,,,,,,,,,,,,,,,,,,,,,,,,,,,,,,,,,,,,,,,,,,,,,,,,,,,,,,,,,,,,,,,,,,,,,,,,
0,12,12,50,1,,616d22471eeb54d1b98db03c,62c53a2cb92f20b2d77b8cd9,2022-07-06_09h32.01.124,Colour_Asymmetry_Pilot,2022.1.3,Win32,59.98080614,62c50e9c1127f2cd403a315f,,,,,,,,,,,,,,,,,,,,,,,,,,,,,,,,,,,,,,,,,,,,,,,,,,,,,,,,,,,,,,,,,,,,,,,,,,,,,,,,,,,,,,,,,,,,,,,,,,,,,,,,,,,,,,,,,,,,,,,,,,,,,,,,,,,,,,,,,,,,,,,,,,,,,,,,,,,,,,,,,,,
0,13,13,75,1,,616d22471eeb54d1b98db03c,62c53a2cb92f20b2d77b8cd9,2022-07-06_09h32.01.124,Colour_Asymmetry_Pilot,2022.1.3,Win32,59.98080614,62c50e9c1127f2cd403a315f,,,,,,,,,,,,,,,,,,,,,,,,,,,,,,,,,,,,,,,,,,,,,,,,,,,,,,,,,,,,,,,,,,,,,,,,,,,,,,,,,,,,,,,,,,,,,,,,,,,,,,,,,,,,,,,,,,,,,,,,,,,,,,,,,,,,,,,,,,,,,,,,,,,,,,,,,,,,,,,,,,,
0,14,14,29,1,,616d22471eeb54d1b98db03c,62c53a2cb92f20b2d77b8cd9,2022-07-06_09h32.01.124,Colour_Asymmetry_Pilot,2022.1.3,Win32,59.98080614,62c50e9c1127f2cd403a315f,,,,,,,,,,,,,,,,,,,,,,,,,,,,,,,,,,,,,,,,,,,,,,,,,,,,,,,,,,,,,,,,,,,,,,,,,,,,,,,,,,,,,,,,,,,,,,,,,,,,,,,,,,,,,,,,,,,,,,,,,,,,,,,,,,,,,,,,,,,,,,,,,,,,,,,,,,,,,,,,,,,
0,15,15,62,1,,616d22471eeb54d1b98db03c,62c53a2cb92f20b2d77b8cd9,2022-07-06_09h32.01.124,Colour_Asymmetry_Pilot,2022.1.3,Win32,59.98080614,62c50e9c1127f2cd403a315f,,,,,,,,,,,,,,,,,,,,,,,,,,,,,,,,,,,,,,,,,,,,,,,,,,,,,,,,,,,,,,,,,,,,,,,,,,,,,,,,,,,,,,,,,,,,,,,,,,,,,,,,,,,,,,,,,,,,,,,,,,,,,,,,,,,,,,,,,,,,,,,,,,,,,,,,,,,,,,,,,,,
0,16,16,28,1,,616d22471eeb54d1b98db03c,62c53a2cb92f20b2d77b8cd9,2022-07-06_09h32.01.124,Colour_Asymmetry_Pilot,2022.1.3,Win32,59.98080614,62c50e9c1127f2cd403a315f,,,,,,,,,,,,,,,,,,,,,,,,,,,,,,,,,,,,,,,,,,,,,,,,,,,,,,,,,,,,,,,,,,,,,,,,,,,,,,,,,,,,,,,,,,,,,,,,,,,,,,,,,,,,,,,,,,,,,,,,,,,,,,,,,,,,,,,,,,,,,,,,,,,,,,,,,,,,,,,,,,,
0,17,17,12,1,,616d22471eeb54d1b98db03c,62c53a2cb92f20b2d77b8cd9,2022-07-06_09h32.01.124,Colour_Asymmetry_Pilot,2022.1.3,Win32,59.98080614,62c50e9c1127f2cd403a315f,,,,,,,,,,,,,,,,,,,,,,,,,,,,,,,,,,,,,,,,,,,,,,,,,,,,,,,,,,,,,,,,,,,,,,,,,,,,,,,,,,,,,,,,,,,,,,,,,,,,,,,,,,,,,,,,,,,,,,,,,,,,,,,,,,,,,,,,,,,,,,,,,,,,,,,,,,,,,,,,,,,
0,18,18,16,1,,616d22471eeb54d1b98db03c,62c53a2cb92f20b2d77b8cd9,2022-07-06_09h32.01.124,Colour_Asymmetry_Pilot,2022.1.3,Win32,59.98080614,62c50e9c1127f2cd403a315f,,,,,,,,,,,,,,,,,,,,,,,,,,,,,,,,,,,,,,,,,,,,,,,,,,,,,,,,,,,,,,,,,,,,,,,,,,,,,,,,,,,,,,,,,,,,,,,,,,,,,,,,,,,,,,,,,,,,,,,,,,,,,,,,,,,,,,,,,,,,,,,,,,,,,,,,,,,,,,,,,,,
0,19,19,60,1,,616d22471eeb54d1b98db03c,62c53a2cb92f20b2d77b8cd9,2022-07-06_09h32.01.124,Colour_Asymmetry_Pilot,2022.1.3,Win32,59.98080614,62c50e9c1127f2cd403a315f,,,,,,,,,,,,,,,,,,,,,,,,,,,,,,,,,,,,,,,,,,,,,,,,,,,,,,,,,,,,,,,,,,,,,,,,,,,,,,,,,,,,,,,,,,,,,,,,,,,,,,,,,,,,,,,,,,,,,,,,,,,,,,,,,,,,,,,,,,,,,,,,,,,,,,,,,,,,,,,,,,,
0,20,20,20,1,,616d22471eeb54d1b98db03c,62c53a2cb92f20b2d77b8cd9,2022-07-06_09h32.01.124,Colour_Asymmetry_Pilot,2022.1.3,Win32,59.98080614,62c50e9c1127f2cd403a315f,,,,,,,,,,,,,,,,,,,,,,,,,,,,,,,,,,,,,,,,,,,,,,,,,,,,,,,,,,,,,,,,,,,,,,,,,,,,,,,,,,,,,,,,,,,,,,,,,,,,,,,,,,,,,,,,,,,,,,,,,,,,,,,,,,,,,,,,,,,,,,,,,,,,,,,,,,,,,,,,,,,
0,21,21,74,1,,616d22471eeb54d1b98db03c,62c53a2cb92f20b2d77b8cd9,2022-07-06_09h32.01.124,Colour_Asymmetry_Pilot,2022.1.3,Win32,59.98080614,62c50e9c1127f2cd403a315f,,,,,,,,,,,,,,,,,,,,,,,,,,,,,,,,,,,,,,,,,,,,,,,,,,,,,,,,,,,,,,,,,,,,,,,,,,,,,,,,,,,,,,,,,,,,,,,,,,,,,,,,,,,,,,,,,,,,,,,,,,,,,,,,,,,,,,,,,,,,,,,,,,,,,,,,,,,,,,,,,,,
0,22,22,58,1,,616d22471eeb54d1b98db03c,62c53a2cb92f20b2d77b8cd9,2022-07-06_09h32.01.124,Colour_Asymmetry_Pilot,2022.1.3,Win32,59.98080614,62c50e9c1127f2cd403a315f,,,,,,,,,,,,,,,,,,,,,,,,,,,,,,,,,,,,,,,,,,,,,,,,,,,,,,,,,,,,,,,,,,,,,,,,,,,,,,,,,,,,,,,,,,,,,,,,,,,,,,,,,,,,,,,,,,,,,,,,,,,,,,,,,,,,,,,,,,,,,,,,,,,,,,,,,,,,,,,,,,,
0,23,23,69,1,,616d22471eeb54d1b98db03c,62c53a2cb92f20b2d77b8cd9,2022-07-06_09h32.01.124,Colour_Asymmetry_Pilot,2022.1.3,Win32,59.98080614,62c50e9c1127f2cd403a315f,,,,,,,,,,,,,,,,,,,,,,,,,,,,,,,,,,,,,,,,,,,,,,,,,,,,,,,,,,,,,,,,,,,,,,,,,,,,,,,,,,,,,,,,,,,,,,,,,,,,,,,,,,,,,,,,,,,,,,,,,,,,,,,,,,,,,,,,,,,,,,,,,,,,,,,,,,,,,,,,,,,
0,24,24,89,1,,616d22471eeb54d1b98db03c,62c53a2cb92f20b2d77b8cd9,2022-07-06_09h32.01.124,Colour_Asymmetry_Pilot,2022.1.3,Win32,59.98080614,62c50e9c1127f2cd403a315f,,,,,,,,,,,,,,,,,,,,,,,,,,,,,,,,,,,,,,,,,,,,,,,,,,,,,,,,,,,,,,,,,,,,,,,,,,,,,,,,,,,,,,,,,,,,,,,,,,,,,,,,,,,,,,,,,,,,,,,,,,,,,,,,,,,,,,,,,,,,,,,,,,,,,,,,,,,,,,,,,,,
0,25,25,47,1,,616d22471eeb54d1b98db03c,62c53a2cb92f20b2d77b8cd9,2022-07-06_09h32.01.124,Colour_Asymmetry_Pilot,2022.1.3,Win32,59.98080614,62c50e9c1127f2cd403a315f,,,,,,,,,,,,,,,,,,,,,,,,,,,,,,,,,,,,,,,,,,,,,,,,,,,,,,,,,,,,,,,,,,,,,,,,,,,,,,,,,,,,,,,,,,,,,,,,,,,,,,,,,,,,,,,,,,,,,,,,,,,,,,,,,,,,,,,,,,,,,,,,,,,,,,,,,,,,,,,,,,,
0,26,26,44,1,,616d22471eeb54d1b98db03c,62c53a2cb92f20b2d77b8cd9,2022-07-06_09h32.01.124,Colour_Asymmetry_Pilot,2022.1.3,Win32,59.98080614,62c50e9c1127f2cd403a315f,,,,,,,,,,,,,,,,,,,,,,,,,,,,,,,,,,,,,,,,,,,,,,,,,,,,,,,,,,,,,,,,,,,,,,,,,,,,,,,,,,,,,,,,,,,,,,,,,,,,,,,,,,,,,,,,,,,,,,,,,,,,,,,,,,,,,,,,,,,,,,,,,,,,,,,,,,,,,,,,,,,
0,27,27,1,1,,616d22471eeb54d1b98db03c,62c53a2cb92f20b2d77b8cd9,2022-07-06_09h32.01.124,Colour_Asymmetry_Pilot,2022.1.3,Win32,59.98080614,62c50e9c1127f2cd403a315f,,,,,,,,,,,,,,,,,,,,,,,,,,,,,,,,,,,,,,,,,,,,,,,,,,,,,,,,,,,,,,,,,,,,,,,,,,,,,,,,,,,,,,,,,,,,,,,,,,,,,,,,,,,,,,,,,,,,,,,,,,,,,,,,,,,,,,,,,,,,,,,,,,,,,,,,,,,,,,,,,,,
0,28,28,73,1,,616d22471eeb54d1b98db03c,62c53a2cb92f20b2d77b8cd9,2022-07-06_09h32.01.124,Colour_Asymmetry_Pilot,2022.1.3,Win32,59.98080614,62c50e9c1127f2cd403a315f,,,,,,,,,,,,,,,,,,,,,,,,,,,,,,,,,,,,,,,,,,,,,,,,,,,,,,,,,,,,,,,,,,,,,,,,,,,,,,,,,,,,,,,,,,,,,,,,,,,,,,,,,,,,,,,,,,,,,,,,,,,,,,,,,,,,,,,,,,,,,,,,,,,,,,,,,,,,,,,,,,,
0,29,29,54,1,,616d22471eeb54d1b98db03c,62c53a2cb92f20b2d77b8cd9,2022-07-06_09h32.01.124,Colour_Asymmetry_Pilot,2022.1.3,Win32,59.98080614,62c50e9c1127f2cd403a315f,,,,,,,,,,,,,,,,,,,,,,,,,,,,,,,,,,,,,,,,,,,,,,,,,,,,,,,,,,,,,,,,,,,,,,,,,,,,,,,,,,,,,,,,,,,,,,,,,,,,,,,,,,,,,,,,,,,,,,,,,,,,,,,,,,,,,,,,,,,,,,,,,,,,,,,,,,,,,,,,,,,
0,30,30,0,1,,616d22471eeb54d1b98db03c,62c53a2cb92f20b2d77b8cd9,2022-07-06_09h32.01.124,Colour_Asymmetry_Pilot,2022.1.3,Win32,59.98080614,62c50e9c1127f2cd403a315f,,,,,,,,,,,,,,,,,,,,,,,,,,,,,,,,,,,,,,,,,,,,,,,,,,,,,,,,,,,,,,,,,,,,,,,,,,,,,,,,,,,,,,,,,,,,,,,,,,,,,,,,,,,,,,,,,,,,,,,,,,,,,,,,,,,,,,,,,,,,,,,,,,,,,,,,,,,,,,,,,,,
0,31,31,7,1,,616d22471eeb54d1b98db03c,62c53a2cb92f20b2d77b8cd9,2022-07-06_09h32.01.124,Colour_Asymmetry_Pilot,2022.1.3,Win32,59.98080614,62c50e9c1127f2cd403a315f,,,,,,,,,,,,,,,,,,,,,,,,,,,,,,,,,,,,,,,,,,,,,,,,,,,,,,,,,,,,,,,,,,,,,,,,,,,,,,,,,,,,,,,,,,,,,,,,,,,,,,,,,,,,,,,,,,,,,,,,,,,,,,,,,,,,,,,,,,,,,,,,,,,,,,,,,,,,,,,,,,,
0,32,32,9,1,,616d22471eeb54d1b98db03c,62c53a2cb92f20b2d77b8cd9,2022-07-06_09h32.01.124,Colour_Asymmetry_Pilot,2022.1.3,Win32,59.98080614,62c50e9c1127f2cd403a315f,,,,,,,,,,,,,,,,,,,,,,,,,,,,,,,,,,,,,,,,,,,,,,,,,,,,,,,,,,,,,,,,,,,,,,,,,,,,,,,,,,,,,,,,,,,,,,,,,,,,,,,,,,,,,,,,,,,,,,,,,,,,,,,,,,,,,,,,,,,,,,,,,,,,,,,,,,,,,,,,,,,
0,33,33,59,1,,616d22471eeb54d1b98db03c,62c53a2cb92f20b2d77b8cd9,2022-07-06_09h32.01.124,Colour_Asymmetry_Pilot,2022.1.3,Win32,59.98080614,62c50e9c1127f2cd403a315f,,,,,,,,,,,,,,,,,,,,,,,,,,,,,,,,,,,,,,,,,,,,,,,,,,,,,,,,,,,,,,,,,,,,,,,,,,,,,,,,,,,,,,,,,,,,,,,,,,,,,,,,,,,,,,,,,,,,,,,,,,,,,,,,,,,,,,,,,,,,,,,,,,,,,,,,,,,,,,,,,,,
0,34,34,30,1,,616d22471eeb54d1b98db03c,62c53a2cb92f20b2d77b8cd9,2022-07-06_09h32.01.124,Colour_Asymmetry_Pilot,2022.1.3,Win32,59.98080614,62c50e9c1127f2cd403a315f,,,,,,,,,,,,,,,,,,,,,,,,,,,,,,,,,,,,,,,,,,,,,,,,,,,,,,,,,,,,,,,,,,,,,,,,,,,,,,,,,,,,,,,,,,,,,,,,,,,,,,,,,,,,,,,,,,,,,,,,,,,,,,,,,,,,,,,,,,,,,,,,,,,,,,,,,,,,,,,,,,,
0,35,35,36,1,,616d22471eeb54d1b98db03c,62c53a2cb92f20b2d77b8cd9,2022-07-06_09h32.01.124,Colour_Asymmetry_Pilot,2022.1.3,Win32,59.98080614,62c50e9c1127f2cd403a315f,,,,,,,,,,,,,,,,,,,,,,,,,,,,,,,,,,,,,,,,,,,,,,,,,,,,,,,,,,,,,,,,,,,,,,,,,,,,,,,,,,,,,,,,,,,,,,,,,,,,,,,,,,,,,,,,,,,,,,,,,,,,,,,,,,,,,,,,,,,,,,,,,,,,,,,,,,,,,,,,,,,
0,36,36,22,1,,616d22471eeb54d1b98db03c,62c53a2cb92f20b2d77b8cd9,2022-07-06_09h32.01.124,Colour_Asymmetry_Pilot,2022.1.3,Win32,59.98080614,62c50e9c1127f2cd403a315f,,,,,,,,,,,,,,,,,,,,,,,,,,,,,,,,,,,,,,,,,,,,,,,,,,,,,,,,,,,,,,,,,,,,,,,,,,,,,,,,,,,,,,,,,,,,,,,,,,,,,,,,,,,,,,,,,,,,,,,,,,,,,,,,,,,,,,,,,,,,,,,,,,,,,,,,,,,,,,,,,,,
0,37,37,76,1,,616d22471eeb54d1b98db03c,62c53a2cb92f20b2d77b8cd9,2022-07-06_09h32.01.124,Colour_Asymmetry_Pilot,2022.1.3,Win32,59.98080614,62c50e9c1127f2cd403a315f,,,,,,,,,,,,,,,,,,,,,,,,,,,,,,,,,,,,,,,,,,,,,,,,,,,,,,,,,,,,,,,,,,,,,,,,,,,,,,,,,,,,,,,,,,,,,,,,,,,,,,,,,,,,,,,,,,,,,,,,,,,,,,,,,,,,,,,,,,,,,,,,,,,,,,,,,,,,,,,,,,,
0,38,38,82,1,,616d22471eeb54d1b98db03c,62c53a2cb92f20b2d77b8cd9,2022-07-06_09h32.01.124,Colour_Asymmetry_Pilot,2022.1.3,Win32,59.98080614,62c50e9c1127f2cd403a315f,,,,,,,,,,,,,,,,,,,,,,,,,,,,,,,,,,,,,,,,,,,,,,,,,,,,,,,,,,,,,,,,,,,,,,,,,,,,,,,,,,,,,,,,,,,,,,,,,,,,,,,,,,,,,,,,,,,,,,,,,,,,,,,,,,,,,,,,,,,,,,,,,,,,,,,,,,,,,,,,,,,
0,39,39,14,1,,616d22471eeb54d1b98db03c,62c53a2cb92f20b2d77b8cd9,2022-07-06_09h32.01.124,Colour_Asymmetry_Pilot,2022.1.3,Win32,59.98080614,62c50e9c1127f2cd403a315f,,,,,,,,,,,,,,,,,,,,,,,,,,,,,,,,,,,,,,,,,,,,,,,,,,,,,,,,,,,,,,,,,,,,,,,,,,,,,,,,,,,,,,,,,,,,,,,,,,,,,,,,,,,,,,,,,,,,,,,,,,,,,,,,,,,,,,,,,,,,,,,,,,,,,,,,,,,,,,,,,,,
0,40,40,6,1,,616d22471eeb54d1b98db03c,62c53a2cb92f20b2d77b8cd9,2022-07-06_09h32.01.124,Colour_Asymmetry_Pilot,2022.1.3,Win32,59.98080614,62c50e9c1127f2cd403a315f,,,,,,,,,,,,,,,,,,,,,,,,,,,,,,,,,,,,,,,,,,,,,,,,,,,,,,,,,,,,,,,,,,,,,,,,,,,,,,,,,,,,,,,,,,,,,,,,,,,,,,,,,,,,,,,,,,,,,,,,,,,,,,,,,,,,,,,,,,,,,,,,,,,,,,,,,,,,,,,,,,,
0,41,41,83,1,,616d22471eeb54d1b98db03c,62c53a2cb92f20b2d77b8cd9,2022-07-06_09h32.01.124,Colour_Asymmetry_Pilot,2022.1.3,Win32,59.98080614,62c50e9c1127f2cd403a315f,,,,,,,,,,,,,,,,,,,,,,,,,,,,,,,,,,,,,,,,,,,,,,,,,,,,,,,,,,,,,,,,,,,,,,,,,,,,,,,,,,,,,,,,,,,,,,,,,,,,,,,,,,,,,,,,,,,,,,,,,,,,,,,,,,,,,,,,,,,,,,,,,,,,,,,,,,,,,,,,,,,
0,42,42,51,1,,616d22471eeb54d1b98db03c,62c53a2cb92f20b2d77b8cd9,2022-07-06_09h32.01.124,Colour_Asymmetry_Pilot,2022.1.3,Win32,59.98080614,62c50e9c1127f2cd403a315f,,,,,,,,,,,,,,,,,,,,,,,,,,,,,,,,,,,,,,,,,,,,,,,,,,,,,,,,,,,,,,,,,,,,,,,,,,,,,,,,,,,,,,,,,,,,,,,,,,,,,,,,,,,,,,,,,,,,,,,,,,,,,,,,,,,,,,,,,,,,,,,,,,,,,,,,,,,,,,,,,,,
0,43,43,26,1,,616d22471eeb54d1b98db03c,62c53a2cb92f20b2d77b8cd9,2022-07-06_09h32.01.124,Colour_Asymmetry_Pilot,2022.1.3,Win32,59.98080614,62c50e9c1127f2cd403a315f,,,,,,,,,,,,,,,,,,,,,,,,,,,,,,,,,,,,,,,,,,,,,,,,,,,,,,,,,,,,,,,,,,,,,,,,,,,,,,,,,,,,,,,,,,,,,,,,,,,,,,,,,,,,,,,,,,,,,,,,,,,,,,,,,,,,,,,,,,,,,,,,,,,,,,,,,,,,,,,,,,,
0,44,44,24,1,,616d22471eeb54d1b98db03c,62c53a2cb92f20b2d77b8cd9,2022-07-06_09h32.01.124,Colour_Asymmetry_Pilot,2022.1.3,Win32,59.98080614,62c50e9c1127f2cd403a315f,,,,,,,,,,,,,,,,,,,,,,,,,,,,,,,,,,,,,,,,,,,,,,,,,,,,,,,,,,,,,,,,,,,,,,,,,,,,,,,,,,,,,,,,,,,,,,,,,,,,,,,,,,,,,,,,,,,,,,,,,,,,,,,,,,,,,,,,,,,,,,,,,,,,,,,,,,,,,,,,,,,
0,45,45,18,1,,616d22471eeb54d1b98db03c,62c53a2cb92f20b2d77b8cd9,2022-07-06_09h32.01.124,Colour_Asymmetry_Pilot,2022.1.3,Win32,59.98080614,62c50e9c1127f2cd403a315f,,,,,,,,,,,,,,,,,,,,,,,,,,,,,,,,,,,,,,,,,,,,,,,,,,,,,,,,,,,,,,,,,,,,,,,,,,,,,,,,,,,,,,,,,,,,,,,,,,,,,,,,,,,,,,,,,,,,,,,,,,,,,,,,,,,,,,,,,,,,,,,,,,,,,,,,,,,,,,,,,,,
0,46,46,10,1,,616d22471eeb54d1b98db03c,62c53a2cb92f20b2d77b8cd9,2022-07-06_09h32.01.124,Colour_Asymmetry_Pilot,2022.1.3,Win32,59.98080614,62c50e9c1127f2cd403a315f,,,,,,,,,,,,,,,,,,,,,,,,,,,,,,,,,,,,,,,,,,,,,,,,,,,,,,,,,,,,,,,,,,,,,,,,,,,,,,,,,,,,,,,,,,,,,,,,,,,,,,,,,,,,,,,,,,,,,,,,,,,,,,,,,,,,,,,,,,,,,,,,,,,,,,,,,,,,,,,,,,,
0,47,47,79,1,,616d22471eeb54d1b98db03c,62c53a2cb92f20b2d77b8cd9,2022-07-06_09h32.01.124,Colour_Asymmetry_Pilot,2022.1.3,Win32,59.98080614,62c50e9c1127f2cd403a315f,,,,,,,,,,,,,,,,,,,,,,,,,,,,,,,,,,,,,,,,,,,,,,,,,,,,,,,,,,,,,,,,,,,,,,,,,,,,,,,,,,,,,,,,,,,,,,,,,,,,,,,,,,,,,,,,,,,,,,,,,,,,,,,,,,,,,,,,,,,,,,,,,,,,,,,,,,,,,,,,,,,
0,48,48,41,1,,616d22471eeb54d1b98db03c,62c53a2cb92f20b2d77b8cd9,2022-07-06_09h32.01.124,Colour_Asymmetry_Pilot,2022.1.3,Win32,59.98080614,62c50e9c1127f2cd403a315f,,,,,,,,,,,,,,,,,,,,,,,,,,,,,,,,,,,,,,,,,,,,,,,,,,,,,,,,,,,,,,,,,,,,,,,,,,,,,,,,,,,,,,,,,,,,,,,,,,,,,,,,,,,,,,,,,,,,,,,,,,,,,,,,,,,,,,,,,,,,,,,,,,,,,,,,,,,,,,,,,,,
0,49,49,25,1,,616d22471eeb54d1b98db03c,62c53a2cb92f20b2d77b8cd9,2022-07-06_09h32.01.124,Colour_Asymmetry_Pilot,2022.1.3,Win32,59.98080614,62c50e9c1127f2cd403a315f,,,,,,,,,,,,,,,,,,,,,,,,,,,,,,,,,,,,,,,,,,,,,,,,,,,,,,,,,,,,,,,,,,,,,,,,,,,,,,,,,,,,,,,,,,,,,,,,,,,,,,,,,,,,,,,,,,,,,,,,,,,,,,,,,,,,,,,,,,,,,,,,,,,,,,,,,,,,,,,,,,,
0,50,50,63,1,,616d22471eeb54d1b98db03c,62c53a2cb92f20b2d77b8cd9,2022-07-06_09h32.01.124,Colour_Asymmetry_Pilot,2022.1.3,Win32,59.98080614,62c50e9c1127f2cd403a315f,,,,,,,,,,,,,,,,,,,,,,,,,,,,,,,,,,,,,,,,,,,,,,,,,,,,,,,,,,,,,,,,,,,,,,,,,,,,,,,,,,,,,,,,,,,,,,,,,,,,,,,,,,,,,,,,,,,,,,,,,,,,,,,,,,,,,,,,,,,,,,,,,,,,,,,,,,,,,,,,,,,
0,51,51,11,1,,616d22471eeb54d1b98db03c,62c53a2cb92f20b2d77b8cd9,2022-07-06_09h32.01.124,Colour_Asymmetry_Pilot,2022.1.3,Win32,59.98080614,62c50e9c1127f2cd403a315f,,,,,,,,,,,,,,,,,,,,,,,,,,,,,,,,,,,,,,,,,,,,,,,,,,,,,,,,,,,,,,,,,,,,,,,,,,,,,,,,,,,,,,,,,,,,,,,,,,,,,,,,,,,,,,,,,,,,,,,,,,,,,,,,,,,,,,,,,,,,,,,,,,,,,,,,,,,,,,,,,,,
0,52,52,71,1,,616d22471eeb54d1b98db03c,62c53a2cb92f20b2d77b8cd9,2022-07-06_09h32.01.124,Colour_Asymmetry_Pilot,2022.1.3,Win32,59.98080614,62c50e9c1127f2cd403a315f,,,,,,,,,,,,,,,,,,,,,,,,,,,,,,,,,,,,,,,,,,,,,,,,,,,,,,,,,,,,,,,,,,,,,,,,,,,,,,,,,,,,,,,,,,,,,,,,,,,,,,,,,,,,,,,,,,,,,,,,,,,,,,,,,,,,,,,,,,,,,,,,,,,,,,,,,,,,,,,,,,,
0,53,53,15,1,,616d22471eeb54d1b98db03c,62c53a2cb92f20b2d77b8cd9,2022-07-06_09h32.01.124,Colour_Asymmetry_Pilot,2022.1.3,Win32,59.98080614,62c50e9c1127f2cd403a315f,,,,,,,,,,,,,,,,,,,,,,,,,,,,,,,,,,,,,,,,,,,,,,,,,,,,,,,,,,,,,,,,,,,,,,,,,,,,,,,,,,,,,,,,,,,,,,,,,,,,,,,,,,,,,,,,,,,,,,,,,,,,,,,,,,,,,,,,,,,,,,,,,,,,,,,,,,,,,,,,,,,
0,54,54,53,1,,616d22471eeb54d1b98db03c,62c53a2cb92f20b2d77b8cd9,2022-07-06_09h32.01.124,Colour_Asymmetry_Pilot,2022.1.3,Win32,59.98080614,62c50e9c1127f2cd403a315f,,,,,,,,,,,,,,,,,,,,,,,,,,,,,,,,,,,,,,,,,,,,,,,,,,,,,,,,,,,,,,,,,,,,,,,,,,,,,,,,,,,,,,,,,,,,,,,,,,,,,,,,,,,,,,,,,,,,,,,,,,,,,,,,,,,,,,,,,,,,,,,,,,,,,,,,,,,,,,,,,,,
0,55,55,65,1,,616d22471eeb54d1b98db03c,62c53a2cb92f20b2d77b8cd9,2022-07-06_09h32.01.124,Colour_Asymmetry_Pilot,2022.1.3,Win32,59.98080614,62c50e9c1127f2cd403a315f,,,,,,,,,,,,,,,,,,,,,,,,,,,,,,,,,,,,,,,,,,,,,,,,,,,,,,,,,,,,,,,,,,,,,,,,,,,,,,,,,,,,,,,,,,,,,,,,,,,,,,,,,,,,,,,,,,,,,,,,,,,,,,,,,,,,,,,,,,,,,,,,,,,,,,,,,,,,,,,,,,,
0,56,56,84,1,,616d22471eeb54d1b98db03c,62c53a2cb92f20b2d77b8cd9,2022-07-06_09h32.01.124,Colour_Asymmetry_Pilot,2022.1.3,Win32,59.98080614,62c50e9c1127f2cd403a315f,,,,,,,,,,,,,,,,,,,,,,,,,,,,,,,,,,,,,,,,,,,,,,,,,,,,,,,,,,,,,,,,,,,,,,,,,,,,,,,,,,,,,,,,,,,,,,,,,,,,,,,,,,,,,,,,,,,,,,,,,,,,,,,,,,,,,,,,,,,,,,,,,,,,,,,,,,,,,,,,,,,
0,57,57,67,1,,616d22471eeb54d1b98db03c,62c53a2cb92f20b2d77b8cd9,2022-07-06_09h32.01.124,Colour_Asymmetry_Pilot,2022.1.3,Win32,59.98080614,62c50e9c1127f2cd403a315f,,,,,,,,,,,,,,,,,,,,,,,,,,,,,,,,,,,,,,,,,,,,,,,,,,,,,,,,,,,,,,,,,,,,,,,,,,,,,,,,,,,,,,,,,,,,,,,,,,,,,,,,,,,,,,,,,,,,,,,,,,,,,,,,,,,,,,,,,,,,,,,,,,,,,,,,,,,,,,,,,,,
0,58,58,33,1,,616d22471eeb54d1b98db03c,62c53a2cb92f20b2d77b8cd9,2022-07-06_09h32.01.124,Colour_Asymmetry_Pilot,2022.1.3,Win32,59.98080614,62c50e9c1127f2cd403a315f,,,,,,,,,,,,,,,,,,,,,,,,,,,,,,,,,,,,,,,,,,,,,,,,,,,,,,,,,,,,,,,,,,,,,,,,,,,,,,,,,,,,,,,,,,,,,,,,,,,,,,,,,,,,,,,,,,,,,,,,,,,,,,,,,,,,,,,,,,,,,,,,,,,,,,,,,,,,,,,,,,,
0,59,59,19,1,,616d22471eeb54d1b98db03c,62c53a2cb92f20b2d77b8cd9,2022-07-06_09h32.01.124,Colour_Asymmetry_Pilot,2022.1.3,Win32,59.98080614,62c50e9c1127f2cd403a315f,,,,,,,,,,,,,,,,,,,,,,,,,,,,,,,,,,,,,,,,,,,,,,,,,,,,,,,,,,,,,,,,,,,,,,,,,,,,,,,,,,,,,,,,,,,,,,,,,,,,,,,,,,,,,,,,,,,,,,,,,,,,,,,,,,,,,,,,,,,,,,,,,,,,,,,,,,,,,,,,,,,
0,60,60,8,1,,616d22471eeb54d1b98db03c,62c53a2cb92f20b2d77b8cd9,2022-07-06_09h32.01.124,Colour_Asymmetry_Pilot,2022.1.3,Win32,59.98080614,62c50e9c1127f2cd403a315f,,,,,,,,,,,,,,,,,,,,,,,,,,,,,,,,,,,,,,,,,,,,,,,,,,,,,,,,,,,,,,,,,,,,,,,,,,,,,,,,,,,,,,,,,,,,,,,,,,,,,,,,,,,,,,,,,,,,,,,,,,,,,,,,,,,,,,,,,,,,,,,,,,,,,,,,,,,,,,,,,,,
0,61,61,17,1,,616d22471eeb54d1b98db03c,62c53a2cb92f20b2d77b8cd9,2022-07-06_09h32.01.124,Colour_Asymmetry_Pilot,2022.1.3,Win32,59.98080614,62c50e9c1127f2cd403a315f,,,,,,,,,,,,,,,,,,,,,,,,,,,,,,,,,,,,,,,,,,,,,,,,,,,,,,,,,,,,,,,,,,,,,,,,,,,,,,,,,,,,,,,,,,,,,,,,,,,,,,,,,,,,,,,,,,,,,,,,,,,,,,,,,,,,,,,,,,,,,,,,,,,,,,,,,,,,,,,,,,,
0,62,62,70,1,,616d22471eeb54d1b98db03c,62c53a2cb92f20b2d77b8cd9,2022-07-06_09h32.01.124,Colour_Asymmetry_Pilot,2022.1.3,Win32,59.98080614,62c50e9c1127f2cd403a315f,,,,,,,,,,,,,,,,,,,,,,,,,,,,,,,,,,,,,,,,,,,,,,,,,,,,,,,,,,,,,,,,,,,,,,,,,,,,,,,,,,,,,,,,,,,,,,,,,,,,,,,,,,,,,,,,,,,,,,,,,,,,,,,,,,,,,,,,,,,,,,,,,,,,,,,,,,,,,,,,,,,
0,63,63,2,1,,616d22471eeb54d1b98db03c,62c53a2cb92f20b2d77b8cd9,2022-07-06_09h32.01.124,Colour_Asymmetry_Pilot,2022.1.3,Win32,59.98080614,62c50e9c1127f2cd403a315f,,,,,,,,,,,,,,,,,,,,,,,,,,,,,,,,,,,,,,,,,,,,,,,,,,,,,,,,,,,,,,,,,,,,,,,,,,,,,,,,,,,,,,,,,,,,,,,,,,,,,,,,,,,,,,,,,,,,,,,,,,,,,,,,,,,,,,,,,,,,,,,,,,,,,,,,,,,,,,,,,,,
0,64,64,21,1,,616d22471eeb54d1b98db03c,62c53a2cb92f20b2d77b8cd9,2022-07-06_09h32.01.124,Colour_Asymmetry_Pilot,2022.1.3,Win32,59.98080614,62c50e9c1127f2cd403a315f,,,,,,,,,,,,,,,,,,,,,,,,,,,,,,,,,,,,,,,,,,,,,,,,,,,,,,,,,,,,,,,,,,,,,,,,,,,,,,,,,,,,,,,,,,,,,,,,,,,,,,,,,,,,,,,,,,,,,,,,,,,,,,,,,,,,,,,,,,,,,,,,,,,,,,,,,,,,,,,,,,,
0,65,65,45,1,,616d22471eeb54d1b98db03c,62c53a2cb92f20b2d77b8cd9,2022-07-06_09h32.01.124,Colour_Asymmetry_Pilot,2022.1.3,Win32,59.98080614,62c50e9c1127f2cd403a315f,,,,,,,,,,,,,,,,,,,,,,,,,,,,,,,,,,,,,,,,,,,,,,,,,,,,,,,,,,,,,,,,,,,,,,,,,,,,,,,,,,,,,,,,,,,,,,,,,,,,,,,,,,,,,,,,,,,,,,,,,,,,,,,,,,,,,,,,,,,,,,,,,,,,,,,,,,,,,,,,,,,
0,66,66,68,1,,616d22471eeb54d1b98db03c,62c53a2cb92f20b2d77b8cd9,2022-07-06_09h32.01.124,Colour_Asymmetry_Pilot,2022.1.3,Win32,59.98080614,62c50e9c1127f2cd403a315f,,,,,,,,,,,,,,,,,,,,,,,,,,,,,,,,,,,,,,,,,,,,,,,,,,,,,,,,,,,,,,,,,,,,,,,,,,,,,,,,,,,,,,,,,,,,,,,,,,,,,,,,,,,,,,,,,,,,,,,,,,,,,,,,,,,,,,,,,,,,,,,,,,,,,,,,,,,,,,,,,,,
0,67,67,86,1,,616d22471eeb54d1b98db03c,62c53a2cb92f20b2d77b8cd9,2022-07-06_09h32.01.124,Colour_Asymmetry_Pilot,2022.1.3,Win32,59.98080614,62c50e9c1127f2cd403a315f,,,,,,,,,,,,,,,,,,,,,,,,,,,,,,,,,,,,,,,,,,,,,,,,,,,,,,,,,,,,,,,,,,,,,,,,,,,,,,,,,,,,,,,,,,,,,,,,,,,,,,,,,,,,,,,,,,,,,,,,,,,,,,,,,,,,,,,,,,,,,,,,,,,,,,,,,,,,,,,,,,,
0,68,68,46,1,,616d22471eeb54d1b98db03c,62c53a2cb92f20b2d77b8cd9,2022-07-06_09h32.01.124,Colour_Asymmetry_Pilot,2022.1.3,Win32,59.98080614,62c50e9c1127f2cd403a315f,,,,,,,,,,,,,,,,,,,,,,,,,,,,,,,,,,,,,,,,,,,,,,,,,,,,,,,,,,,,,,,,,,,,,,,,,,,,,,,,,,,,,,,,,,,,,,,,,,,,,,,,,,,,,,,,,,,,,,,,,,,,,,,,,,,,,,,,,,,,,,,,,,,,,,,,,,,,,,,,,,,
0,69,69,52,1,,616d22471eeb54d1b98db03c,62c53a2cb92f20b2d77b8cd9,2022-07-06_09h32.01.124,Colour_Asymmetry_Pilot,2022.1.3,Win32,59.98080614,62c50e9c1127f2cd403a315f,,,,,,,,,,,,,,,,,,,,,,,,,,,,,,,,,,,,,,,,,,,,,,,,,,,,,,,,,,,,,,,,,,,,,,,,,,,,,,,,,,,,,,,,,,,,,,,,,,,,,,,,,,,,,,,,,,,,,,,,,,,,,,,,,,,,,,,,,,,,,,,,,,,,,,,,,,,,,,,,,,,
0,70,70,85,1,,616d22471eeb54d1b98db03c,62c53a2cb92f20b2d77b8cd9,2022-07-06_09h32.01.124,Colour_Asymmetry_Pilot,2022.1.3,Win32,59.98080614,62c50e9c1127f2cd403a315f,,,,,,,,,,,,,,,,,,,,,,,,,,,,,,,,,,,,,,,,,,,,,,,,,,,,,,,,,,,,,,,,,,,,,,,,,,,,,,,,,,,,,,,,,,,,,,,,,,,,,,,,,,,,,,,,,,,,,,,,,,,,,,,,,,,,,,,,,,,,,,,,,,,,,,,,,,,,,,,,,,,
0,71,71,42,1,,616d22471eeb54d1b98db03c,62c53a2cb92f20b2d77b8cd9,2022-07-06_09h32.01.124,Colour_Asymmetry_Pilot,2022.1.3,Win32,59.98080614,62c50e9c1127f2cd403a315f,,,,,,,,,,,,,,,,,,,,,,,,,,,,,,,,,,,,,,,,,,,,,,,,,,,,,,,,,,,,,,,,,,,,,,,,,,,,,,,,,,,,,,,,,,,,,,,,,,,,,,,,,,,,,,,,,,,,,,,,,,,,,,,,,,,,,,,,,,,,,,,,,,,,,,,,,,,,,,,,,,,
0,72,72,34,1,,616d22471eeb54d1b98db03c,62c53a2cb92f20b2d77b8cd9,2022-07-06_09h32.01.124,Colour_Asymmetry_Pilot,2022.1.3,Win32,59.98080614,62c50e9c1127f2cd403a315f,,,,,,,,,,,,,,,,,,,,,,,,,,,,,,,,,,,,,,,,,,,,,,,,,,,,,,,,,,,,,,,,,,,,,,,,,,,,,,,,,,,,,,,,,,,,,,,,,,,,,,,,,,,,,,,,,,,,,,,,,,,,,,,,,,,,,,,,,,,,,,,,,,,,,,,,,,,,,,,,,,,
0,73,73,81,1,,616d22471eeb54d1b98db03c,62c53a2cb92f20b2d77b8cd9,2022-07-06_09h32.01.124,Colour_Asymmetry_Pilot,2022.1.3,Win32,59.98080614,62c50e9c1127f2cd403a315f,,,,,,,,,,,,,,,,,,,,,,,,,,,,,,,,,,,,,,,,,,,,,,,,,,,,,,,,,,,,,,,,,,,,,,,,,,,,,,,,,,,,,,,,,,,,,,,,,,,,,,,,,,,,,,,,,,,,,,,,,,,,,,,,,,,,,,,,,,,,,,,,,,,,,,,,,,,,,,,,,,,
0,74,74,61,1,,616d22471eeb54d1b98db03c,62c53a2cb92f20b2d77b8cd9,2022-07-06_09h32.01.124,Colour_Asymmetry_Pilot,2022.1.3,Win32,59.98080614,62c50e9c1127f2cd403a315f,,,,,,,,,,,,,,,,,,,,,,,,,,,,,,,,,,,,,,,,,,,,,,,,,,,,,,,,,,,,,,,,,,,,,,,,,,,,,,,,,,,,,,,,,,,,,,,,,,,,,,,,,,,,,,,,,,,,,,,,,,,,,,,,,,,,,,,,,,,,,,,,,,,,,,,,,,,,,,,,,,,
0,75,75,3,1,,616d22471eeb54d1b98db03c,62c53a2cb92f20b2d77b8cd9,2022-07-06_09h32.01.124,Colour_Asymmetry_Pilot,2022.1.3,Win32,59.98080614,62c50e9c1127f2cd403a315f,,,,,,,,,,,,,,,,,,,,,,,,,,,,,,,,,,,,,,,,,,,,,,,,,,,,,,,,,,,,,,,,,,,,,,,,,,,,,,,,,,,,,,,,,,,,,,,,,,,,,,,,,,,,,,,,,,,,,,,,,,,,,,,,,,,,,,,,,,,,,,,,,,,,,,,,,,,,,,,,,,,
0,76,76,77,1,,616d22471eeb54d1b98db03c,62c53a2cb92f20b2d77b8cd9,2022-07-06_09h32.01.124,Colour_Asymmetry_Pilot,2022.1.3,Win32,59.98080614,62c50e9c1127f2cd403a315f,,,,,,,,,,,,,,,,,,,,,,,,,,,,,,,,,,,,,,,,,,,,,,,,,,,,,,,,,,,,,,,,,,,,,,,,,,,,,,,,,,,,,,,,,,,,,,,,,,,,,,,,,,,,,,,,,,,,,,,,,,,,,,,,,,,,,,,,,,,,,,,,,,,,,,,,,,,,,,,,,,,
0,77,77,56,1,,616d22471eeb54d1b98db03c,62c53a2cb92f20b2d77b8cd9,2022-07-06_09h32.01.124,Colour_Asymmetry_Pilot,2022.1.3,Win32,59.98080614,62c50e9c1127f2cd403a315f,,,,,,,,,,,,,,,,,,,,,,,,,,,,,,,,,,,,,,,,,,,,,,,,,,,,,,,,,,,,,,,,,,,,,,,,,,,,,,,,,,,,,,,,,,,,,,,,,,,,,,,,,,,,,,,,,,,,,,,,,,,,,,,,,,,,,,,,,,,,,,,,,,,,,,,,,,,,,,,,,,,
0,78,78,48,1,,616d22471eeb54d1b98db03c,62c53a2cb92f20b2d77b8cd9,2022-07-06_09h32.01.124,Colour_Asymmetry_Pilot,2022.1.3,Win32,59.98080614,62c50e9c1127f2cd403a315f,,,,,,,,,,,,,,,,,,,,,,,,,,,,,,,,,,,,,,,,,,,,,,,,,,,,,,,,,,,,,,,,,,,,,,,,,,,,,,,,,,,,,,,,,,,,,,,,,,,,,,,,,,,,,,,,,,,,,,,,,,,,,,,,,,,,,,,,,,,,,,,,,,,,,,,,,,,,,,,,,,,
0,79,79,91,1,,616d22471eeb54d1b98db03c,62c53a2cb92f20b2d77b8cd9,2022-07-06_09h32.01.124,Colour_Asymmetry_Pilot,2022.1.3,Win32,59.98080614,62c50e9c1127f2cd403a315f,,,,,,,,,,,,,,,,,,,,,,,,,,,,,,,,,,,,,,,,,,,,,,,,,,,,,,,,,,,,,,,,,,,,,,,,,,,,,,,,,,,,,,,,,,,,,,,,,,,,,,,,,,,,,,,,,,,,,,,,,,,,,,,,,,,,,,,,,,,,,,,,,,,,,,,,,,,,,,,,,,,
0,80,80,88,1,,616d22471eeb54d1b98db03c,62c53a2cb92f20b2d77b8cd9,2022-07-06_09h32.01.124,Colour_Asymmetry_Pilot,2022.1.3,Win32,59.98080614,62c50e9c1127f2cd403a315f,,,,,,,,,,,,,,,,,,,,,,,,,,,,,,,,,,,,,,,,,,,,,,,,,,,,,,,,,,,,,,,,,,,,,,,,,,,,,,,,,,,,,,,,,,,,,,,,,,,,,,,,,,,,,,,,,,,,,,,,,,,,,,,,,,,,,,,,,,,,,,,,,,,,,,,,,,,,,,,,,,,
0,81,81,55,1,,616d22471eeb54d1b98db03c,62c53a2cb92f20b2d77b8cd9,2022-07-06_09h32.01.124,Colour_Asymmetry_Pilot,2022.1.3,Win32,59.98080614,62c50e9c1127f2cd403a315f,,,,,,,,,,,,,,,,,,,,,,,,,,,,,,,,,,,,,,,,,,,,,,,,,,,,,,,,,,,,,,,,,,,,,,,,,,,,,,,,,,,,,,,,,,,,,,,,,,,,,,,,,,,,,,,,,,,,,,,,,,,,,,,,,,,,,,,,,,,,,,,,,,,,,,,,,,,,,,,,,,,
0,82,82,40,1,,616d22471eeb54d1b98db03c,62c53a2cb92f20b2d77b8cd9,2022-07-06_09h32.01.124,Colour_Asymmetry_Pilot,2022.1.3,Win32,59.98080614,62c50e9c1127f2cd403a315f,,,,,,,,,,,,,,,,,,,,,,,,,,,,,,,,,,,,,,,,,,,,,,,,,,,,,,,,,,,,,,,,,,,,,,,,,,,,,,,,,,,,,,,,,,,,,,,,,,,,,,,,,,,,,,,,,,,,,,,,,,,,,,,,,,,,,,,,,,,,,,,,,,,,,,,,,,,,,,,,,,,
0,83,83,39,1,,616d22471eeb54d1b98db03c,62c53a2cb92f20b2d77b8cd9,2022-07-06_09h32.01.124,Colour_Asymmetry_Pilot,2022.1.3,Win32,59.98080614,62c50e9c1127f2cd403a315f,,,,,,,,,,,,,,,,,,,,,,,,,,,,,,,,,,,,,,,,,,,,,,,,,,,,,,,,,,,,,,,,,,,,,,,,,,,,,,,,,,,,,,,,,,,,,,,,,,,,,,,,,,,,,,,,,,,,,,,,,,,,,,,,,,,,,,,,,,,,,,,,,,,,,,,,,,,,,,,,,,,
0,84,84,57,1,,616d22471eeb54d1b98db03c,62c53a2cb92f20b2d77b8cd9,2022-07-06_09h32.01.124,Colour_Asymmetry_Pilot,2022.1.3,Win32,59.98080614,62c50e9c1127f2cd403a315f,,,,,,,,,,,,,,,,,,,,,,,,,,,,,,,,,,,,,,,,,,,,,,,,,,,,,,,,,,,,,,,,,,,,,,,,,,,,,,,,,,,,,,,,,,,,,,,,,,,,,,,,,,,,,,,,,,,,,,,,,,,,,,,,,,,,,,,,,,,,,,,,,,,,,,,,,,,,,,,,,,,
0,85,85,38,1,,616d22471eeb54d1b98db03c,62c53a2cb92f20b2d77b8cd9,2022-07-06_09h32.01.124,Colour_Asymmetry_Pilot,2022.1.3,Win32,59.98080614,62c50e9c1127f2cd403a315f,,,,,,,,,,,,,,,,,,,,,,,,,,,,,,,,,,,,,,,,,,,,,,,,,,,,,,,,,,,,,,,,,,,,,,,,,,,,,,,,,,,,,,,,,,,,,,,,,,,,,,,,,,,,,,,,,,,,,,,,,,,,,,,,,,,,,,,,,,,,,,,,,,,,,,,,,,,,,,,,,,,
0,86,86,31,1,,616d22471eeb54d1b98db03c,62c53a2cb92f20b2d77b8cd9,2022-07-06_09h32.01.124,Colour_Asymmetry_Pilot,2022.1.3,Win32,59.98080614,62c50e9c1127f2cd403a315f,,,,,,,,,,,,,,,,,,,,,,,,,,,,,,,,,,,,,,,,,,,,,,,,,,,,,,,,,,,,,,,,,,,,,,,,,,,,,,,,,,,,,,,,,,,,,,,,,,,,,,,,,,,,,,,,,,,,,,,,,,,,,,,,,,,,,,,,,,,,,,,,,,,,,,,,,,,,,,,,,,,
0,87,87,87,1,,616d22471eeb54d1b98db03c,62c53a2cb92f20b2d77b8cd9,2022-07-06_09h32.01.124,Colour_Asymmetry_Pilot,2022.1.3,Win32,59.98080614,62c50e9c1127f2cd403a315f,,,,,,,,,,,,,,,,,,,,,,,,,,,,,,,,,,,,,,,,,,,,,,,,,,,,,,,,,,,,,,,,,,,,,,,,,,,,,,,,,,,,,,,,,,,,,,,,,,,,,,,,,,,,,,,,,,,,,,,,,,,,,,,,,,,,,,,,,,,,,,,,,,,,,,,,,,,,,,,,,,,
0,88,88,66,1,,616d22471eeb54d1b98db03c,62c53a2cb92f20b2d77b8cd9,2022-07-06_09h32.01.124,Colour_Asymmetry_Pilot,2022.1.3,Win32,59.98080614,62c50e9c1127f2cd403a315f,,,,,,,,,,,,,,,,,,,,,,,,,,,,,,,,,,,,,,,,,,,,,,,,,,,,,,,,,,,,,,,,,,,,,,,,,,,,,,,,,,,,,,,,,,,,,,,,,,,,,,,,,,,,,,,,,,,,,,,,,,,,,,,,,,,,,,,,,,,,,,,,,,,,,,,,,,,,,,,,,,,
0,89,89,37,1,,616d22471eeb54d1b98db03c,62c53a2cb92f20b2d77b8cd9,2022-07-06_09h32.01.124,Colour_Asymmetry_Pilot,2022.1.3,Win32,59.98080614,62c50e9c1127f2cd403a315f,,,,,,,,,,,,,,,,,,,,,,,,,,,,,,,,,,,,,,,,,,,,,,,,,,,,,,,,,,,,,,,,,,,,,,,,,,,,,,,,,,,,,,,,,,,,,,,,,,,,,,,,,,,,,,,,,,,,,,,,,,,,,,,,,,,,,,,,,,,,,,,,,,,,,,,,,,,,,,,,,,,
0,90,90,4,1,,616d22471eeb54d1b98db03c,62c53a2cb92f20b2d77b8cd9,2022-07-06_09h32.01.124,Colour_Asymmetry_Pilot,2022.1.3,Win32,59.98080614,62c50e9c1127f2cd403a315f,,,,,,,,,,,,,,,,,,,,,,,,,,,,,,,,,,,,,,,,,,,,,,,,,,,,,,,,,,,,,,,,,,,,,,,,,,,,,,,,,,,,,,,,,,,,,,,,,,,,,,,,,,,,,,,,,,,,,,,,,,,,,,,,,,,,,,,,,,,,,,,,,,,,,,,,,,,,,,,,,,,
0,91,91,35,1,,616d22471eeb54d1b98db03c,62c53a2cb92f20b2d77b8cd9,2022-07-06_09h32.01.124,Colour_Asymmetry_Pilot,2022.1.3,Win32,59.98080614,62c50e9c1127f2cd403a315f,,,,,,,,,,,,,,,,,,,,,,,,,,,,,,,,,,,,,,,,,,,,,,,,,,,,,,,,,,,,,,,,,,,,,,,,,,,,,,,,,,,,,,,,,,,,,,,,,,,,,,,,,,,,,,,,,,,,,,,,,,,,,,,,,,,,,,,,,,,,,,,,,,,,,,,,,,,,,,,,,,,
0,92,92,90,1,,616d22471eeb54d1b98db03c,62c53a2cb92f20b2d77b8cd9,2022-07-06_09h32.01.124,Colour_Asymmetry_Pilot,2022.1.3,Win32,59.98080614,62c50e9c1127f2cd403a315f,,,,,,,,,,,,,,,,,,,,,,,,,,,,,,,,,,,,,,,,,,,,,,,,,,,,,,,,,,,,,,,,,,,,,,,,,,,,,,,,,,,,,,,,,,,,,,,,,,,,,,,,,,,,,,,,,,,,,,,,,,,,,,,,,,,,,,,,,,,,,,,,,,,,,,,,,,,,,,,,,,,
,,,,,,616d22471eeb54d1b98db03c,62c53a2cb92f20b2d77b8cd9,2022-07-06_09h32.01.124,Colour_Asymmetry_Pilot,2022.1.3,Win32,59.98080614,62c50e9c1127f2cd403a315f,0,0,0,120,1,onetwo,,,,,,,,,,,,,,,,,,,,,,,,,,,,,,,,,,,,,,,,,,,,,,,,,,,,,,,,,,,,,,,,,,,,,,,,,,,,,,,,,,,,,,,,,,,,,,,,,,,,,,,,,,,,,,,,,,,,,,,,,,,,,,,,,,,,,,,,,,,,,,,,,,,,,,,,,,,,,
,,,,,,616d22471eeb54d1b98db03c,62c53a2cb92f20b2d77b8cd9,2022-07-06_09h32.01.124,Colour_Asymmetry_Pilot,2022.1.3,Win32,59.98080614,62c50e9c1127f2cd403a315f,0,1,1,119,1,fourthree,,,,,,,,,,,,,,,,,,,,,,,,,,,,,,,,,,,,,,,,,,,,,,,,,,,,,,,,,,,,,,,,,,,,,,,,,,,,,,,,,,,,,,,,,,,,,,,,,,,,,,,,,,,,,,,,,,,,,,,,,,,,,,,,,,,,,,,,,,,,,,,,,,,,,,,,,,,,,
,,,,,,616d22471eeb54d1b98db03c,62c53a2cb92f20b2d77b8cd9,2022-07-06_09h32.01.124,Colour_Asymmetry_Pilot,2022.1.3,Win32,59.98080614,62c50e9c1127f2cd403a315f,0,2,2,41,1,onethree,,,,,,,,,,,,,,,,,,,,,,,,,,,,,,,,,,,,,,,,,,,,,,,,,,,,,,,,,,,,,,,,,,,,,,,,,,,,,,,,,,,,,,,,,,,,,,,,,,,,,,,,,,,,,,,,,,,,,,,,,,,,,,,,,,,,,,,,,,,,,,,,,,,,,,,,,,,,,
,,,,,,616d22471eeb54d1b98db03c,62c53a2cb92f20b2d77b8cd9,2022-07-06_09h32.01.124,Colour_Asymmetry_Pilot,2022.1.3,Win32,59.98080614,62c50e9c1127f2cd403a315f,0,3,3,71,1,fourthree,,,,,,,,,,,,,,,,,,,,,,,,,,,,,,,,,,,,,,,,,,,,,,,,,,,,,,,,,,,,,,,,,,,,,,,,,,,,,,,,,,,,,,,,,,,,,,,,,,,,,,,,,,,,,,,,,,,,,,,,,,,,,,,,,,,,,,,,,,,,,,,,,,,,,,,,,,,,,
,,,,,,616d22471eeb54d1b98db03c,62c53a2cb92f20b2d77b8cd9,2022-07-06_09h32.01.124,Colour_Asymmetry_Pilot,2022.1.3,Win32,59.98080614,62c50e9c1127f2cd403a315f,0,4,4,129,1,onethree,,,,,,,,,,,,,,,,,,,,,,,,,,,,,,,,,,,,,,,,,,,,,,,,,,,,,,,,,,,,,,,,,,,,,,,,,,,,,,,,,,,,,,,,,,,,,,,,,,,,,,,,,,,,,,,,,,,,,,,,,,,,,,,,,,,,,,,,,,,,,,,,,,,,,,,,,,,,,
,,,,,,616d22471eeb54d1b98db03c,62c53a2cb92f20b2d77b8cd9,2022-07-06_09h32.01.124,Colour_Asymmetry_Pilot,2022.1.3,Win32,59.98080614,62c50e9c1127f2cd403a315f,0,5,5,90,1,twoone,,,,,,,,,,,,,,,,,,,,,,,,,,,,,,,,,,,,,,,,,,,,,,,,,,,,,,,,,,,,,,,,,,,,,,,,,,,,,,,,,,,,,,,,,,,,,,,,,,,,,,,,,,,,,,,,,,,,,,,,,,,,,,,,,,,,,,,,,,,,,,,,,,,,,,,,,,,,,
,,,,,,616d22471eeb54d1b98db03c,62c53a2cb92f20b2d77b8cd9,2022-07-06_09h32.01.124,Colour_Asymmetry_Pilot,2022.1.3,Win32,59.98080614,62c50e9c1127f2cd403a315f,0,6,6,143,1,fourthree,,,,,,,,,,,,,,,,,,,,,,,,,,,,,,,,,,,,,,,,,,,,,,,,,,,,,,,,,,,,,,,,,,,,,,,,,,,,,,,,,,,,,,,,,,,,,,,,,,,,,,,,,,,,,,,,,,,,,,,,,,,,,,,,,,,,,,,,,,,,,,,,,,,,,,,,,,,,,
,,,,,,616d22471eeb54d1b98db03c,62c53a2cb92f20b2d77b8cd9,2022-07-06_09h32.01.124,Colour_Asymmetry_Pilot,2022.1.3,Win32,59.98080614,62c50e9c1127f2cd403a315f,0,7,7,63,1,fourthree,,,,,,,,,,,,,,,,,,,,,,,,,,,,,,,,,,,,,,,,,,,,,,,,,,,,,,,,,,,,,,,,,,,,,,,,,,,,,,,,,,,,,,,,,,,,,,,,,,,,,,,,,,,,,,,,,,,,,,,,,,,,,,,,,,,,,,,,,,,,,,,,,,,,,,,,,,,,,
,,,,,,616d22471eeb54d1b98db03c,62c53a2cb92f20b2d77b8cd9,2022-07-06_09h32.01.124,Colour_Asymmetry_Pilot,2022.1.3,Win32,59.98080614,62c50e9c1127f2cd403a315f,0,8,8,6,1,fourtwo,,,,,,,,,,,,,,,,,,,,,,,,,,,,,,,,,,,,,,,,,,,,,,,,,,,,,,,,,,,,,,,,,,,,,,,,,,,,,,,,,,,,,,,,,,,,,,,,,,,,,,,,,,,,,,,,,,,,,,,,,,,,,,,,,,,,,,,,,,,,,,,,,,,,,,,,,,,,,
,,,,,,616d22471eeb54d1b98db03c,62c53a2cb92f20b2d77b8cd9,2022-07-06_09h32.01.124,Colour_Asymmetry_Pilot,2022.1.3,Win32,59.98080614,62c50e9c1127f2cd403a315f,0,9,9,68,1,threeone,,,,,,,,,,,,,,,,,,,,,,,,,,,,,,,,,,,,,,,,,,,,,,,,,,,,,,,,,,,,,,,,,,,,,,,,,,,,,,,,,,,,,,,,,,,,,,,,,,,,,,,,,,,,,,,,,,,,,,,,,,,,,,,,,,,,,,,,,,,,,,,,,,,,,,,,,,,,,
,,,,,,616d22471eeb54d1b98db03c,62c53a2cb92f20b2d77b8cd9,2022-07-06_09h32.01.124,Colour_Asymmetry_Pilot,2022.1.3,Win32,59.98080614,62c50e9c1127f2cd403a315f,0,10,10,28,1,threeone,,,,,,,,,,,,,,,,,,,,,,,,,,,,,,,,,,,,,,,,,,,,,,,,,,,,,,,,,,,,,,,,,,,,,,,,,,,,,,,,,,,,,,,,,,,,,,,,,,,,,,,,,,,,,,,,,,,,,,,,,,,,,,,,,,,,,,,,,,,,,,,,,,,,,,,,,,,,,
,,,,,,616d22471eeb54d1b98db03c,62c53a2cb92f20b2d77b8cd9,2022-07-06_09h32.01.124,Colour_Asymmetry_Pilot,2022.1.3,Win32,59.98080614,62c50e9c1127f2cd403a315f,0,11,11,159,1,fourthree,,,,,,,,,,,,,,,,,,,,,,,,,,,,,,,,,,,,,,,,,,,,,,,,,,,,,,,,,,,,,,,,,,,,,,,,,,,,,,,,,,,,,,,,,,,,,,,,,,,,,,,,,,,,,,,,,,,,,,,,,,,,,,,,,,,,,,,,,,,,,,,,,,,,,,,,,,,,,
,,,,,,616d22471eeb54d1b98db03c,62c53a2cb92f20b2d77b8cd9,2022-07-06_09h32.01.124,Colour_Asymmetry_Pilot,2022.1.3,Win32,59.98080614,62c50e9c1127f2cd403a315f,0,12,12,124,1,threeone,,,,,,,,,,,,,,,,,,,,,,,,,,,,,,,,,,,,,,,,,,,,,,,,,,,,,,,,,,,,,,,,,,,,,,,,,,,,,,,,,,,,,,,,,,,,,,,,,,,,,,,,,,,,,,,,,,,,,,,,,,,,,,,,,,,,,,,,,,,,,,,,,,,,,,,,,,,,,
,,,,,,616d22471eeb54d1b98db03c,62c53a2cb92f20b2d77b8cd9,2022-07-06_09h32.01.124,Colour_Asymmetry_Pilot,2022.1.3,Win32,59.98080614,62c50e9c1127f2cd403a315f,0,13,13,108,1,threeone,,,,,,,,,,,,,,,,,,,,,,,,,,,,,,,,,,,,,,,,,,,,,,,,,,,,,,,,,,,,,,,,,,,,,,,,,,,,,,,,,,,,,,,,,,,,,,,,,,,,,,,,,,,,,,,,,,,,,,,,,,,,,,,,,,,,,,,,,,,,,,,,,,,,,,,,,,,,,
,,,,,,616d22471eeb54d1b98db03c,62c53a2cb92f20b2d77b8cd9,2022-07-06_09h32.01.124,Colour_Asymmetry_Pilot,2022.1.3,Win32,59.98080614,62c50e9c1127f2cd403a315f,0,14,14,156,1,threeone,,,,,,,,,,,,,,,,,,,,,,,,,,,,,,,,,,,,,,,,,,,,,,,,,,,,,,,,,,,,,,,,,,,,,,,,,,,,,,,,,,,,,,,,,,,,,,,,,,,,,,,,,,,,,,,,,,,,,,,,,,,,,,,,,,,,,,,,,,,,,,,,,,,,,,,,,,,,,
,,,,,,616d22471eeb54d1b98db03c,62c53a2cb92f20b2d77b8cd9,2022-07-06_09h32.01.124,Colour_Asymmetry_Pilot,2022.1.3,Win32,59.98080614,62c50e9c1127f2cd403a315f,0,15,15,61,1,threefour,,,,,,,,,,,,,,,,,,,,,,,,,,,,,,,,,,,,,,,,,,,,,,,,,,,,,,,,,,,,,,,,,,,,,,,,,,,,,,,,,,,,,,,,,,,,,,,,,,,,,,,,,,,,,,,,,,,,,,,,,,,,,,,,,,,,,,,,,,,,,,,,,,,,,,,,,,,,,
,,,,,,616d22471eeb54d1b98db03c,62c53a2cb92f20b2d77b8cd9,2022-07-06_09h32.01.124,Colour_Asymmetry_Pilot,2022.1.3,Win32,59.98080614,62c50e9c1127f2cd403a315f,0,16,16,127,1,fourthree,,,,,,,,,,,,,,,,,,,,,,,,,,,,,,,,,,,,,,,,,,,,,,,,,,,,,,,,,,,,,,,,,,,,,,,,,,,,,,,,,,,,,,,,,,,,,,,,,,,,,,,,,,,,,,,,,,,,,,,,,,,,,,,,,,,,,,,,,,,,,,,,,,,,,,,,,,,,,
,,,,,,616d22471eeb54d1b98db03c,62c53a2cb92f20b2d77b8cd9,2022-07-06_09h32.01.124,Colour_Asymmetry_Pilot,2022.1.3,Win32,59.98080614,62c50e9c1127f2cd403a315f,0,17,17,52,1,threeone,,,,,,,,,,,,,,,,,,,,,,,,,,,,,,,,,,,,,,,,,,,,,,,,,,,,,,,,,,,,,,,,,,,,,,,,,,,,,,,,,,,,,,,,,,,,,,,,,,,,,,,,,,,,,,,,,,,,,,,,,,,,,,,,,,,,,,,,,,,,,,,,,,,,,,,,,,,,,
,,,,,,616d22471eeb54d1b98db03c,62c53a2cb92f20b2d77b8cd9,2022-07-06_09h32.01.124,Colour_Asymmetry_Pilot,2022.1.3,Win32,59.98080614,62c50e9c1127f2cd403a315f,0,18,18,56,1,onetwo,,,,,,,,,,,,,,,,,,,,,,,,,,,,,,,,,,,,,,,,,,,,,,,,,,,,,,,,,,,,,,,,,,,,,,,,,,,,,,,,,,,,,,,,,,,,,,,,,,,,,,,,,,,,,,,,,,,,,,,,,,,,,,,,,,,,,,,,,,,,,,,,,,,,,,,,,,,,,
,,,,,,616d22471eeb54d1b98db03c,62c53a2cb92f20b2d77b8cd9,2022-07-06_09h32.01.124,Colour_Asymmetry_Pilot,2022.1.3,Win32,59.98080614,62c50e9c1127f2cd403a315f,0,19,19,45,1,threefour,,,,,,,,,,,,,,,,,,,,,,,,,,,,,,,,,,,,,,,,,,,,,,,,,,,,,,,,,,,,,,,,,,,,,,,,,,,,,,,,,,,,,,,,,,,,,,,,,,,,,,,,,,,,,,,,,,,,,,,,,,,,,,,,,,,,,,,,,,,,,,,,,,,,,,,,,,,,,
,,,,,,616d22471eeb54d1b98db03c,62c53a2cb92f20b2d77b8cd9,2022-07-06_09h32.01.124,Colour_Asymmetry_Pilot,2022.1.3,Win32,59.98080614,62c50e9c1127f2cd403a315f,0,20,20,110,1,fourtwo,,,,,,,,,,,,,,,,,,,,,,,,,,,,,,,,,,,,,,,,,,,,,,,,,,,,,,,,,,,,,,,,,,,,,,,,,,,,,,,,,,,,,,,,,,,,,,,,,,,,,,,,,,,,,,,,,,,,,,,,,,,,,,,,,,,,,,,,,,,,,,,,,,,,,,,,,,,,,
,,,,,,616d22471eeb54d1b98db03c,62c53a2cb92f20b2d77b8cd9,2022-07-06_09h32.01.124,Colour_Asymmetry_Pilot,2022.1.3,Win32,59.98080614,62c50e9c1127f2cd403a315f,0,21,21,26,1,twoone,,,,,,,,,,,,,,,,,,,,,,,,,,,,,,,,,,,,,,,,,,,,,,,,,,,,,,,,,,,,,,,,,,,,,,,,,,,,,,,,,,,,,,,,,,,,,,,,,,,,,,,,,,,,,,,,,,,,,,,,,,,,,,,,,,,,,,,,,,,,,,,,,,,,,,,,,,,,,
,,,,,,616d22471eeb54d1b98db03c,62c53a2cb92f20b2d77b8cd9,2022-07-06_09h32.01.124,Colour_Asymmetry_Pilot,2022.1.3,Win32,59.98080614,62c50e9c1127f2cd403a315f,0,22,22,134,1,fourtwo,,,,,,,,,,,,,,,,,,,,,,,,,,,,,,,,,,,,,,,,,,,,,,,,,,,,,,,,,,,,,,,,,,,,,,,,,,,,,,,,,,,,,,,,,,,,,,,,,,,,,,,,,,,,,,,,,,,,,,,,,,,,,,,,,,,,,,,,,,,,,,,,,,,,,,,,,,,,,
,,,,,,616d22471eeb54d1b98db03c,62c53a2cb92f20b2d77b8cd9,2022-07-06_09h32.01.124,Colour_Asymmetry_Pilot,2022.1.3,Win32,59.98080614,62c50e9c1127f2cd403a315f,0,23,23,100,1,threeone,,,,,,,,,,,,,,,,,,,,,,,,,,,,,,,,,,,,,,,,,,,,,,,,,,,,,,,,,,,,,,,,,,,,,,,,,,,,,,,,,,,,,,,,,,,,,,,,,,,,,,,,,,,,,,,,,,,,,,,,,,,,,,,,,,,,,,,,,,,,,,,,,,,,,,,,,,,,,
,,,,,,616d22471eeb54d1b98db03c,62c53a2cb92f20b2d77b8cd9,2022-07-06_09h32.01.124,Colour_Asymmetry_Pilot,2022.1.3,Win32,59.98080614,62c50e9c1127f2cd403a315f,0,24,24,31,1,fourthree,,,,,,,,,,,,,,,,,,,,,,,,,,,,,,,,,,,,,,,,,,,,,,,,,,,,,,,,,,,,,,,,,,,,,,,,,,,,,,,,,,,,,,,,,,,,,,,,,,,,,,,,,,,,,,,,,,,,,,,,,,,,,,,,,,,,,,,,,,,,,,,,,,,,,,,,,,,,,
,,,,,,616d22471eeb54d1b98db03c,62c53a2cb92f20b2d77b8cd9,2022-07-06_09h32.01.124,Colour_Asymmetry_Pilot,2022.1.3,Win32,59.98080614,62c50e9c1127f2cd403a315f,0,25,25,35,1,twofour,,,,,,,,,,,,,,,,,,,,,,,,,,,,,,,,,,,,,,,,,,,,,,,,,,,,,,,,,,,,,,,,,,,,,,,,,,,,,,,,,,,,,,,,,,,,,,,,,,,,,,,,,,,,,,,,,,,,,,,,,,,,,,,,,,,,,,,,,,,,,,,,,,,,,,,,,,,,,
,,,,,,616d22471eeb54d1b98db03c,62c53a2cb92f20b2d77b8cd9,2022-07-06_09h32.01.124,Colour_Asymmetry_Pilot,2022.1.3,Win32,59.98080614,62c50e9c1127f2cd403a315f,0,26,26,40,1,onetwo,,,,,,,,,,,,,,,,,,,,,,,,,,,,,,,,,,,,,,,,,,,,,,,,,,,,,,,,,,,,,,,,,,,,,,,,,,,,,,,,,,,,,,,,,,,,,,,,,,,,,,,,,,,,,,,,,,,,,,,,,,,,,,,,,,,,,,,,,,,,,,,,,,,,,,,,,,,,,
,,,,,,616d22471eeb54d1b98db03c,62c53a2cb92f20b2d77b8cd9,2022-07-06_09h32.01.124,Colour_Asymmetry_Pilot,2022.1.3,Win32,59.98080614,62c50e9c1127f2cd403a315f,0,27,27,123,1,twofour,,,,,,,,,,,,,,,,,,,,,,,,,,,,,,,,,,,,,,,,,,,,,,,,,,,,,,,,,,,,,,,,,,,,,,,,,,,,,,,,,,,,,,,,,,,,,,,,,,,,,,,,,,,,,,,,,,,,,,,,,,,,,,,,,,,,,,,,,,,,,,,,,,,,,,,,,,,,,
,,,,,,616d22471eeb54d1b98db03c,62c53a2cb92f20b2d77b8cd9,2022-07-06_09h32.01.124,Colour_Asymmetry_Pilot,2022.1.3,Win32,59.98080614,62c50e9c1127f2cd403a315f,0,28,28,77,1,threefour,,,,,,,,,,,,,,,,,,,,,,,,,,,,,,,,,,,,,,,,,,,,,,,,,,,,,,,,,,,,,,,,,,,,,,,,,,,,,,,,,,,,,,,,,,,,,,,,,,,,,,,,,,,,,,,,,,,,,,,,,,,,,,,,,,,,,,,,,,,,,,,,,,,,,,,,,,,,,
,,,,,,616d22471eeb54d1b98db03c,62c53a2cb92f20b2d77b8cd9,2022-07-06_09h32.01.124,Colour_Asymmetry_Pilot,2022.1.3,Win32,59.98080614,62c50e9c1127f2cd403a315f,0,29,29,86,1,fourtwo,,,,,,,,,,,,,,,,,,,,,,,,,,,,,,,,,,,,,,,,,,,,,,,,,,,,,,,,,,,,,,,,,,,,,,,,,,,,,,,,,,,,,,,,,,,,,,,,,,,,,,,,,,,,,,,,,,,,,,,,,,,,,,,,,,,,,,,,,,,,,,,,,,,,,,,,,,,,,
,,,,,,616d22471eeb54d1b98db03c,62c53a2cb92f20b2d77b8cd9,2022-07-06_09h32.01.124,Colour_Asymmetry_Pilot,2022.1.3,Win32,59.98080614,62c50e9c1127f2cd403a315f,0,30,30,83,1,twofour,,,,,,,,,,,,,,,,,,,,,,,,,,,,,,,,,,,,,,,,,,,,,,,,,,,,,,,,,,,,,,,,,,,,,,,,,,,,,,,,,,,,,,,,,,,,,,,,,,,,,,,,,,,,,,,,,,,,,,,,,,,,,,,,,,,,,,,,,,,,,,,,,,,,,,,,,,,,,
,,,,,,616d22471eeb54d1b98db03c,62c53a2cb92f20b2d77b8cd9,2022-07-06_09h32.01.124,Colour_Asymmetry_Pilot,2022.1.3,Win32,59.98080614,62c50e9c1127f2cd403a315f,0,31,31,150,1,fourtwo,,,,,,,,,,,,,,,,,,,,,,,,,,,,,,,,,,,,,,,,,,,,,,,,,,,,,,,,,,,,,,,,,,,,,,,,,,,,,,,,,,,,,,,,,,,,,,,,,,,,,,,,,,,,,,,,,,,,,,,,,,,,,,,,,,,,,,,,,,,,,,,,,,,,,,,,,,,,,
,,,,,,616d22471eeb54d1b98db03c,62c53a2cb92f20b2d77b8cd9,2022-07-06_09h32.01.124,Colour_Asymmetry_Pilot,2022.1.3,Win32,59.98080614,62c50e9c1127f2cd403a315f,0,32,32,47,1,fourthree,,,,,,,,,,,,,,,,,,,,,,,,,,,,,,,,,,,,,,,,,,,,,,,,,,,,,,,,,,,,,,,,,,,,,,,,,,,,,,,,,,,,,,,,,,,,,,,,,,,,,,,,,,,,,,,,,,,,,,,,,,,,,,,,,,,,,,,,,,,,,,,,,,,,,,,,,,,,,
,,,,,,616d22471eeb54d1b98db03c,62c53a2cb92f20b2d77b8cd9,2022-07-06_09h32.01.124,Colour_Asymmetry_Pilot,2022.1.3,Win32,59.98080614,62c50e9c1127f2cd403a315f,0,33,33,131,1,twofour,,,,,,,,,,,,,,,,,,,,,,,,,,,,,,,,,,,,,,,,,,,,,,,,,,,,,,,,,,,,,,,,,,,,,,,,,,,,,,,,,,,,,,,,,,,,,,,,,,,,,,,,,,,,,,,,,,,,,,,,,,,,,,,,,,,,,,,,,,,,,,,,,,,,,,,,,,,,,
,,,,,,616d22471eeb54d1b98db03c,62c53a2cb92f20b2d77b8cd9,2022-07-06_09h32.01.124,Colour_Asymmetry_Pilot,2022.1.3,Win32,59.98080614,62c50e9c1127f2cd403a315f,0,34,34,55,1,fourthree,,,,,,,,,,,,,,,,,,,,,,,,,,,,,,,,,,,,,,,,,,,,,,,,,,,,,,,,,,,,,,,,,,,,,,,,,,,,,,,,,,,,,,,,,,,,,,,,,,,,,,,,,,,,,,,,,,,,,,,,,,,,,,,,,,,,,,,,,,,,,,,,,,,,,,,,,,,,,
,,,,,,616d22471eeb54d1b98db03c,62c53a2cb92f20b2d77b8cd9,2022-07-06_09h32.01.124,Colour_Asymmetry_Pilot,2022.1.3,Win32,59.98080614,62c50e9c1127f2cd403a315f,0,35,35,122,1,twoone,,,,,,,,,,,,,,,,,,,,,,,,,,,,,,,,,,,,,,,,,,,,,,,,,,,,,,,,,,,,,,,,,,,,,,,,,,,,,,,,,,,,,,,,,,,,,,,,,,,,,,,,,,,,,,,,,,,,,,,,,,,,,,,,,,,,,,,,,,,,,,,,,,,,,,,,,,,,,
,,,,,,616d22471eeb54d1b98db03c,62c53a2cb92f20b2d77b8cd9,2022-07-06_09h32.01.124,Colour_Asymmetry_Pilot,2022.1.3,Win32,59.98080614,62c50e9c1127f2cd403a315f,0,36,36,107,1,twofour,,,,,,,,,,,,,,,,,,,,,,,,,,,,,,,,,,,,,,,,,,,,,,,,,,,,,,,,,,,,,,,,,,,,,,,,,,,,,,,,,,,,,,,,,,,,,,,,,,,,,,,,,,,,,,,,,,,,,,,,,,,,,,,,,,,,,,,,,,,,,,,,,,,,,,,,,,,,,
,,,,,,616d22471eeb54d1b98db03c,62c53a2cb92f20b2d77b8cd9,2022-07-06_09h32.01.124,Colour_Asymmetry_Pilot,2022.1.3,Win32,59.98080614,62c50e9c1127f2cd403a315f,0,37,37,109,1,threefour,,,,,,,,,,,,,,,,,,,,,,,,,,,,,,,,,,,,,,,,,,,,,,,,,,,,,,,,,,,,,,,,,,,,,,,,,,,,,,,,,,,,,,,,,,,,,,,,,,,,,,,,,,,,,,,,,,,,,,,,,,,,,,,,,,,,,,,,,,,,,,,,,,,,,,,,,,,,,
,,,,,,616d22471eeb54d1b98db03c,62c53a2cb92f20b2d77b8cd9,2022-07-06_09h32.01.124,Colour_Asymmetry_Pilot,2022.1.3,Win32,59.98080614,62c50e9c1127f2cd403a315f,0,38,38,99,1,twofour,,,,,,,,,,,,,,,,,,,,,,,,,,,,,,,,,,,,,,,,,,,,,,,,,,,,,,,,,,,,,,,,,,,,,,,,,,,,,,,,,,,,,,,,,,,,,,,,,,,,,,,,,,,,,,,,,,,,,,,,,,,,,,,,,,,,,,,,,,,,,,,,,,,,,,,,,,,,,
,,,,,,616d22471eeb54d1b98db03c,62c53a2cb92f20b2d77b8cd9,2022-07-06_09h32.01.124,Colour_Asymmetry_Pilot,2022.1.3,Win32,59.98080614,62c50e9c1127f2cd403a315f,0,39,39,151,1,fourthree,,,,,,,,,,,,,,,,,,,,,,,,,,,,,,,,,,,,,,,,,,,,,,,,,,,,,,,,,,,,,,,,,,,,,,,,,,,,,,,,,,,,,,,,,,,,,,,,,,,,,,,,,,,,,,,,,,,,,,,,,,,,,,,,,,,,,,,,,,,,,,,,,,,,,,,,,,,,,
,,,,,,616d22471eeb54d1b98db03c,62c53a2cb92f20b2d77b8cd9,2022-07-06_09h32.01.124,Colour_Asymmetry_Pilot,2022.1.3,Win32,59.98080614,62c50e9c1127f2cd403a315f,0,40,40,146,1,twoone,,,,,,,,,,,,,,,,,,,,,,,,,,,,,,,,,,,,,,,,,,,,,,,,,,,,,,,,,,,,,,,,,,,,,,,,,,,,,,,,,,,,,,,,,,,,,,,,,,,,,,,,,,,,,,,,,,,,,,,,,,,,,,,,,,,,,,,,,,,,,,,,,,,,,,,,,,,,,
,,,,,,616d22471eeb54d1b98db03c,62c53a2cb92f20b2d77b8cd9,2022-07-06_09h32.01.124,Colour_Asymmetry_Pilot,2022.1.3,Win32,59.98080614,62c50e9c1127f2cd403a315f,0,41,41,65,1,onethree,,,,,,,,,,,,,,,,,,,,,,,,,,,,,,,,,,,,,,,,,,,,,,,,,,,,,,,,,,,,,,,,,,,,,,,,,,,,,,,,,,,,,,,,,,,,,,,,,,,,,,,,,,,,,,,,,,,,,,,,,,,,,,,,,,,,,,,,,,,,,,,,,,,,,,,,,,,,,
,,,,,,616d22471eeb54d1b98db03c,62c53a2cb92f20b2d77b8cd9,2022-07-06_09h32.01.124,Colour_Asymmetry_Pilot,2022.1.3,Win32,59.98080614,62c50e9c1127f2cd403a315f,0,42,42,81,1,onethree,,,,,,,,,,,,,,,,,,,,,,,,,,,,,,,,,,,,,,,,,,,,,,,,,,,,,,,,,,,,,,,,,,,,,,,,,,,,,,,,,,,,,,,,,,,,,,,,,,,,,,,,,,,,,,,,,,,,,,,,,,,,,,,,,,,,,,,,,,,,,,,,,,,,,,,,,,,,,
,,,,,,616d22471eeb54d1b98db03c,62c53a2cb92f20b2d77b8cd9,2022-07-06_09h32.01.124,Colour_Asymmetry_Pilot,2022.1.3,Win32,59.98080614,62c50e9c1127f2cd403a315f,0,43,43,88,1,onetwo,,,,,,,,,,,,,,,,,,,,,,,,,,,,,,,,,,,,,,,,,,,,,,,,,,,,,,,,,,,,,,,,,,,,,,,,,,,,,,,,,,,,,,,,,,,,,,,,,,,,,,,,,,,,,,,,,,,,,,,,,,,,,,,,,,,,,,,,,,,,,,,,,,,,,,,,,,,,,
,,,,,,616d22471eeb54d1b98db03c,62c53a2cb92f20b2d77b8cd9,2022-07-06_09h32.01.124,Colour_Asymmetry_Pilot,2022.1.3,Win32,59.98080614,62c50e9c1127f2cd403a315f,0,44,44,158,1,fourtwo,,,,,,,,,,,,,,,,,,,,,,,,,,,,,,,,,,,,,,,,,,,,,,,,,,,,,,,,,,,,,,,,,,,,,,,,,,,,,,,,,,,,,,,,,,,,,,,,,,,,,,,,,,,,,,,,,,,,,,,,,,,,,,,,,,,,,,,,,,,,,,,,,,,,,,,,,,,,,
,,,,,,616d22471eeb54d1b98db03c,62c53a2cb92f20b2d77b8cd9,2022-07-06_09h32.01.124,Colour_Asymmetry_Pilot,2022.1.3,Win32,59.98080614,62c50e9c1127f2cd403a315f,0,45,45,13,1,threefour,,,,,,,,,,,,,,,,,,,,,,,,,,,,,,,,,,,,,,,,,,,,,,,,,,,,,,,,,,,,,,,,,,,,,,,,,,,,,,,,,,,,,,,,,,,,,,,,,,,,,,,,,,,,,,,,,,,,,,,,,,,,,,,,,,,,,,,,,,,,,,,,,,,,,,,,,,,,,
,,,,,,616d22471eeb54d1b98db03c,62c53a2cb92f20b2d77b8cd9,2022-07-06_09h32.01.124,Colour_Asymmetry_Pilot,2022.1.3,Win32,59.98080614,62c50e9c1127f2cd403a315f,0,46,46,73,1,onethree,,,,,,,,,,,,,,,,,,,,,,,,,,,,,,,,,,,,,,,,,,,,,,,,,,,,,,,,,,,,,,,,,,,,,,,,,,,,,,,,,,,,,,,,,,,,,,,,,,,,,,,,,,,,,,,,,,,,,,,,,,,,,,,,,,,,,,,,,,,,,,,,,,,,,,,,,,,,,
,,,,,,616d22471eeb54d1b98db03c,62c53a2cb92f20b2d77b8cd9,2022-07-06_09h32.01.124,Colour_Asymmetry_Pilot,2022.1.3,Win32,59.98080614,62c50e9c1127f2cd403a315f,0,47,47,74,1,twoone,,,,,,,,,,,,,,,,,,,,,,,,,,,,,,,,,,,,,,,,,,,,,,,,,,,,,,,,,,,,,,,,,,,,,,,,,,,,,,,,,,,,,,,,,,,,,,,,,,,,,,,,,,,,,,,,,,,,,,,,,,,,,,,,,,,,,,,,,,,,,,,,,,,,,,,,,,,,,
,,,,,,616d22471eeb54d1b98db03c,62c53a2cb92f20b2d77b8cd9,2022-07-06_09h32.01.124,Colour_Asymmetry_Pilot,2022.1.3,Win32,59.98080614,62c50e9c1127f2cd403a315f,0,48,48,29,1,threefour,,,,,,,,,,,,,,,,,,,,,,,,,,,,,,,,,,,,,,,,,,,,,,,,,,,,,,,,,,,,,,,,,,,,,,,,,,,,,,,,,,,,,,,,,,,,,,,,,,,,,,,,,,,,,,,,,,,,,,,,,,,,,,,,,,,,,,,,,,,,,,,,,,,,,,,,,,,,,
,,,,,,616d22471eeb54d1b98db03c,62c53a2cb92f20b2d77b8cd9,2022-07-06_09h32.01.124,Colour_Asymmetry_Pilot,2022.1.3,Win32,59.98080614,62c50e9c1127f2cd403a315f,0,49,49,62,1,fourtwo,,,,,,,,,,,,,,,,,,,,,,,,,,,,,,,,,,,,,,,,,,,,,,,,,,,,,,,,,,,,,,,,,,,,,,,,,,,,,,,,,,,,,,,,,,,,,,,,,,,,,,,,,,,,,,,,,,,,,,,,,,,,,,,,,,,,,,,,,,,,,,,,,,,,,,,,,,,,,
,,,,,,616d22471eeb54d1b98db03c,62c53a2cb92f20b2d77b8cd9,2022-07-06_09h32.01.124,Colour_Asymmetry_Pilot,2022.1.3,Win32,59.98080614,62c50e9c1127f2cd403a315f,0,50,50,59,1,twofour,,,,,,,,,,,,,,,,,,,,,,,,,,,,,,,,,,,,,,,,,,,,,,,,,,,,,,,,,,,,,,,,,,,,,,,,,,,,,,,,,,,,,,,,,,,,,,,,,,,,,,,,,,,,,,,,,,,,,,,,,,,,,,,,,,,,,,,,,,,,,,,,,,,,,,,,,,,,,
,,,,,,616d22471eeb54d1b98db03c,62c53a2cb92f20b2d77b8cd9,2022-07-06_09h32.01.124,Colour_Asymmetry_Pilot,2022.1.3,Win32,59.98080614,62c50e9c1127f2cd403a315f,0,51,51,115,1,twofour,,,,,,,,,,,,,,,,,,,,,,,,,,,,,,,,,,,,,,,,,,,,,,,,,,,,,,,,,,,,,,,,,,,,,,,,,,,,,,,,,,,,,,,,,,,,,,,,,,,,,,,,,,,,,,,,,,,,,,,,,,,,,,,,,,,,,,,,,,,,,,,,,,,,,,,,,,,,,
,,,,,,616d22471eeb54d1b98db03c,62c53a2cb92f20b2d77b8cd9,2022-07-06_09h32.01.124,Colour_Asymmetry_Pilot,2022.1.3,Win32,59.98080614,62c50e9c1127f2cd403a315f,0,52,52,121,1,onethree,,,,,,,,,,,,,,,,,,,,,,,,,,,,,,,,,,,,,,,,,,,,,,,,,,,,,,,,,,,,,,,,,,,,,,,,,,,,,,,,,,,,,,,,,,,,,,,,,,,,,,,,,,,,,,,,,,,,,,,,,,,,,,,,,,,,,,,,,,,,,,,,,,,,,,,,,,,,,
,,,,,,616d22471eeb54d1b98db03c,62c53a2cb92f20b2d77b8cd9,2022-07-06_09h32.01.124,Colour_Asymmetry_Pilot,2022.1.3,Win32,59.98080614,62c50e9c1127f2cd403a315f,0,53,53,4,1,threeone,,,,,,,,,,,,,,,,,,,,,,,,,,,,,,,,,,,,,,,,,,,,,,,,,,,,,,,,,,,,,,,,,,,,,,,,,,,,,,,,,,,,,,,,,,,,,,,,,,,,,,,,,,,,,,,,,,,,,,,,,,,,,,,,,,,,,,,,,,,,,,,,,,,,,,,,,,,,,
,,,,,,616d22471eeb54d1b98db03c,62c53a2cb92f20b2d77b8cd9,2022-07-06_09h32.01.124,Colour_Asymmetry_Pilot,2022.1.3,Win32,59.98080614,62c50e9c1127f2cd403a315f,0,54,54,132,1,threeone,,,,,,,,,,,,,,,,,,,,,,,,,,,,,,,,,,,,,,,,,,,,,,,,,,,,,,,,,,,,,,,,,,,,,,,,,,,,,,,,,,,,,,,,,,,,,,,,,,,,,,,,,,,,,,,,,,,,,,,,,,,,,,,,,,,,,,,,,,,,,,,,,,,,,,,,,,,,,
,,,,,,616d22471eeb54d1b98db03c,62c53a2cb92f20b2d77b8cd9,2022-07-06_09h32.01.124,Colour_Asymmetry_Pilot,2022.1.3,Win32,59.98080614,62c50e9c1127f2cd403a315f,0,55,55,144,1,onetwo,,,,,,,,,,,,,,,,,,,,,,,,,,,,,,,,,,,,,,,,,,,,,,,,,,,,,,,,,,,,,,,,,,,,,,,,,,,,,,,,,,,,,,,,,,,,,,,,,,,,,,,,,,,,,,,,,,,,,,,,,,,,,,,,,,,,,,,,,,,,,,,,,,,,,,,,,,,,,
,,,,,,616d22471eeb54d1b98db03c,62c53a2cb92f20b2d77b8cd9,2022-07-06_09h32.01.124,Colour_Asymmetry_Pilot,2022.1.3,Win32,59.98080614,62c50e9c1127f2cd403a315f,0,56,56,105,1,onethree,,,,,,,,,,,,,,,,,,,,,,,,,,,,,,,,,,,,,,,,,,,,,,,,,,,,,,,,,,,,,,,,,,,,,,,,,,,,,,,,,,,,,,,,,,,,,,,,,,,,,,,,,,,,,,,,,,,,,,,,,,,,,,,,,,,,,,,,,,,,,,,,,,,,,,,,,,,,,
,,,,,,616d22471eeb54d1b98db03c,62c53a2cb92f20b2d77b8cd9,2022-07-06_09h32.01.124,Colour_Asymmetry_Pilot,2022.1.3,Win32,59.98080614,62c50e9c1127f2cd403a315f,0,57,57,118,1,fourtwo,,,,,,,,,,,,,,,,,,,,,,,,,,,,,,,,,,,,,,,,,,,,,,,,,,,,,,,,,,,,,,,,,,,,,,,,,,,,,,,,,,,,,,,,,,,,,,,,,,,,,,,,,,,,,,,,,,,,,,,,,,,,,,,,,,,,,,,,,,,,,,,,,,,,,,,,,,,,,
,,,,,,616d22471eeb54d1b98db03c,62c53a2cb92f20b2d77b8cd9,2022-07-06_09h32.01.124,Colour_Asymmetry_Pilot,2022.1.3,Win32,59.98080614,62c50e9c1127f2cd403a315f,0,58,58,75,1,twofour,,,,,,,,,,,,,,,,,,,,,,,,,,,,,,,,,,,,,,,,,,,,,,,,,,,,,,,,,,,,,,,,,,,,,,,,,,,,,,,,,,,,,,,,,,,,,,,,,,,,,,,,,,,,,,,,,,,,,,,,,,,,,,,,,,,,,,,,,,,,,,,,,,,,,,,,,,,,,
,,,,,,616d22471eeb54d1b98db03c,62c53a2cb92f20b2d77b8cd9,2022-07-06_09h32.01.124,Colour_Asymmetry_Pilot,2022.1.3,Win32,59.98080614,62c50e9c1127f2cd403a315f,0,59,59,9,1,onethree,,,,,,,,,,,,,,,,,,,,,,,,,,,,,,,,,,,,,,,,,,,,,,,,,,,,,,,,,,,,,,,,,,,,,,,,,,,,,,,,,,,,,,,,,,,,,,,,,,,,,,,,,,,,,,,,,,,,,,,,,,,,,,,,,,,,,,,,,,,,,,,,,,,,,,,,,,,,,
,,,,,,616d22471eeb54d1b98db03c,62c53a2cb92f20b2d77b8cd9,2022-07-06_09h32.01.124,Colour_Asymmetry_Pilot,2022.1.3,Win32,59.98080614,62c50e9c1127f2cd403a315f,0,60,60,112,1,onetwo,,,,,,,,,,,,,,,,,,,,,,,,,,,,,,,,,,,,,,,,,,,,,,,,,,,,,,,,,,,,,,,,,,,,,,,,,,,,,,,,,,,,,,,,,,,,,,,,,,,,,,,,,,,,,,,,,,,,,,,,,,,,,,,,,,,,,,,,,,,,,,,,,,,,,,,,,,,,,
,,,,,,616d22471eeb54d1b98db03c,62c53a2cb92f20b2d77b8cd9,2022-07-06_09h32.01.124,Colour_Asymmetry_Pilot,2022.1.3,Win32,59.98080614,62c50e9c1127f2cd403a315f,0,61,61,76,1,threeone,,,,,,,,,,,,,,,,,,,,,,,,,,,,,,,,,,,,,,,,,,,,,,,,,,,,,,,,,,,,,,,,,,,,,,,,,,,,,,,,,,,,,,,,,,,,,,,,,,,,,,,,,,,,,,,,,,,,,,,,,,,,,,,,,,,,,,,,,,,,,,,,,,,,,,,,,,,,,
,,,,,,616d22471eeb54d1b98db03c,62c53a2cb92f20b2d77b8cd9,2022-07-06_09h32.01.124,Colour_Asymmetry_Pilot,2022.1.3,Win32,59.98080614,62c50e9c1127f2cd403a315f,0,62,62,69,1,threefour,,,,,,,,,,,,,,,,,,,,,,,,,,,,,,,,,,,,,,,,,,,,,,,,,,,,,,,,,,,,,,,,,,,,,,,,,,,,,,,,,,,,,,,,,,,,,,,,,,,,,,,,,,,,,,,,,,,,,,,,,,,,,,,,,,,,,,,,,,,,,,,,,,,,,,,,,,,,,
,,,,,,616d22471eeb54d1b98db03c,62c53a2cb92f20b2d77b8cd9,2022-07-06_09h32.01.124,Colour_Asymmetry_Pilot,2022.1.3,Win32,59.98080614,62c50e9c1127f2cd403a315f,0,63,63,142,1,fourtwo,,,,,,,,,,,,,,,,,,,,,,,,,,,,,,,,,,,,,,,,,,,,,,,,,,,,,,,,,,,,,,,,,,,,,,,,,,,,,,,,,,,,,,,,,,,,,,,,,,,,,,,,,,,,,,,,,,,,,,,,,,,,,,,,,,,,,,,,,,,,,,,,,,,,,,,,,,,,,
,,,,,,616d22471eeb54d1b98db03c,62c53a2cb92f20b2d77b8cd9,2022-07-06_09h32.01.124,Colour_Asymmetry_Pilot,2022.1.3,Win32,59.98080614,62c50e9c1127f2cd403a315f,0,64,64,11,1,twofour,,,,,,,,,,,,,,,,,,,,,,,,,,,,,,,,,,,,,,,,,,,,,,,,,,,,,,,,,,,,,,,,,,,,,,,,,,,,,,,,,,,,,,,,,,,,,,,,,,,,,,,,,,,,,,,,,,,,,,,,,,,,,,,,,,,,,,,,,,,,,,,,,,,,,,,,,,,,,
,,,,,,616d22471eeb54d1b98db03c,62c53a2cb92f20b2d77b8cd9,2022-07-06_09h32.01.124,Colour_Asymmetry_Pilot,2022.1.3,Win32,59.98080614,62c50e9c1127f2cd403a315f,0,65,65,117,1,threefour,,,,,,,,,,,,,,,,,,,,,,,,,,,,,,,,,,,,,,,,,,,,,,,,,,,,,,,,,,,,,,,,,,,,,,,,,,,,,,,,,,,,,,,,,,,,,,,,,,,,,,,,,,,,,,,,,,,,,,,,,,,,,,,,,,,,,,,,,,,,,,,,,,,,,,,,,,,,,
,,,,,,616d22471eeb54d1b98db03c,62c53a2cb92f20b2d77b8cd9,2022-07-06_09h32.01.124,Colour_Asymmetry_Pilot,2022.1.3,Win32,59.98080614,62c50e9c1127f2cd403a315f,0,66,66,145,1,onethree,,,,,,,,,,,,,,,,,,,,,,,,,,,,,,,,,,,,,,,,,,,,,,,,,,,,,,,,,,,,,,,,,,,,,,,,,,,,,,,,,,,,,,,,,,,,,,,,,,,,,,,,,,,,,,,,,,,,,,,,,,,,,,,,,,,,,,,,,,,,,,,,,,,,,,,,,,,,,
,,,,,,616d22471eeb54d1b98db03c,62c53a2cb92f20b2d77b8cd9,2022-07-06_09h32.01.124,Colour_Asymmetry_Pilot,2022.1.3,Win32,59.98080614,62c50e9c1127f2cd403a315f,0,67,67,94,1,fourtwo,,,,,,,,,,,,,,,,,,,,,,,,,,,,,,,,,,,,,,,,,,,,,,,,,,,,,,,,,,,,,,,,,,,,,,,,,,,,,,,,,,,,,,,,,,,,,,,,,,,,,,,,,,,,,,,,,,,,,,,,,,,,,,,,,,,,,,,,,,,,,,,,,,,,,,,,,,,,,
,,,,,,616d22471eeb54d1b98db03c,62c53a2cb92f20b2d77b8cd9,2022-07-06_09h32.01.124,Colour_Asymmetry_Pilot,2022.1.3,Win32,59.98080614,62c50e9c1127f2cd403a315f,0,68,68,38,1,fourtwo,,,,,,,,,,,,,,,,,,,,,,,,,,,,,,,,,,,,,,,,,,,,,,,,,,,,,,,,,,,,,,,,,,,,,,,,,,,,,,,,,,,,,,,,,,,,,,,,,,,,,,,,,,,,,,,,,,,,,,,,,,,,,,,,,,,,,,,,,,,,,,,,,,,,,,,,,,,,,
,,,,,,616d22471eeb54d1b98db03c,62c53a2cb92f20b2d77b8cd9,2022-07-06_09h32.01.124,Colour_Asymmetry_Pilot,2022.1.3,Win32,59.98080614,62c50e9c1127f2cd403a315f,0,69,69,44,1,threeone,,,,,,,,,,,,,,,,,,,,,,,,,,,,,,,,,,,,,,,,,,,,,,,,,,,,,,,,,,,,,,,,,,,,,,,,,,,,,,,,,,,,,,,,,,,,,,,,,,,,,,,,,,,,,,,,,,,,,,,,,,,,,,,,,,,,,,,,,,,,,,,,,,,,,,,,,,,,,
,,,,,,616d22471eeb54d1b98db03c,62c53a2cb92f20b2d77b8cd9,2022-07-06_09h32.01.124,Colour_Asymmetry_Pilot,2022.1.3,Win32,59.98080614,62c50e9c1127f2cd403a315f,0,70,70,66,1,twoone,,,,,,,,,,,,,,,,,,,,,,,,,,,,,,,,,,,,,,,,,,,,,,,,,,,,,,,,,,,,,,,,,,,,,,,,,,,,,,,,,,,,,,,,,,,,,,,,,,,,,,,,,,,,,,,,,,,,,,,,,,,,,,,,,,,,,,,,,,,,,,,,,,,,,,,,,,,,,
,,,,,,616d22471eeb54d1b98db03c,62c53a2cb92f20b2d77b8cd9,2022-07-06_09h32.01.124,Colour_Asymmetry_Pilot,2022.1.3,Win32,59.98080614,62c50e9c1127f2cd403a315f,0,71,71,126,1,fourtwo,,,,,,,,,,,,,,,,,,,,,,,,,,,,,,,,,,,,,,,,,,,,,,,,,,,,,,,,,,,,,,,,,,,,,,,,,,,,,,,,,,,,,,,,,,,,,,,,,,,,,,,,,,,,,,,,,,,,,,,,,,,,,,,,,,,,,,,,,,,,,,,,,,,,,,,,,,,,,
,,,,,,616d22471eeb54d1b98db03c,62c53a2cb92f20b2d77b8cd9,2022-07-06_09h32.01.124,Colour_Asymmetry_Pilot,2022.1.3,Win32,59.98080614,62c50e9c1127f2cd403a315f,0,72,72,37,1,threefour,,,,,,,,,,,,,,,,,,,,,,,,,,,,,,,,,,,,,,,,,,,,,,,,,,,,,,,,,,,,,,,,,,,,,,,,,,,,,,,,,,,,,,,,,,,,,,,,,,,,,,,,,,,,,,,,,,,,,,,,,,,,,,,,,,,,,,,,,,,,,,,,,,,,,,,,,,,,,
,,,,,,616d22471eeb54d1b98db03c,62c53a2cb92f20b2d77b8cd9,2022-07-06_09h32.01.124,Colour_Asymmetry_Pilot,2022.1.3,Win32,59.98080614,62c50e9c1127f2cd403a315f,0,73,73,36,1,threeone,,,,,,,,,,,,,,,,,,,,,,,,,,,,,,,,,,,,,,,,,,,,,,,,,,,,,,,,,,,,,,,,,,,,,,,,,,,,,,,,,,,,,,,,,,,,,,,,,,,,,,,,,,,,,,,,,,,,,,,,,,,,,,,,,,,,,,,,,,,,,,,,,,,,,,,,,,,,,
,,,,,,616d22471eeb54d1b98db03c,62c53a2cb92f20b2d77b8cd9,2022-07-06_09h32.01.124,Colour_Asymmetry_Pilot,2022.1.3,Win32,59.98080614,62c50e9c1127f2cd403a315f,0,74,74,141,1,threefour,,,,,,,,,,,,,,,,,,,,,,,,,,,,,,,,,,,,,,,,,,,,,,,,,,,,,,,,,,,,,,,,,,,,,,,,,,,,,,,,,,,,,,,,,,,,,,,,,,,,,,,,,,,,,,,,,,,,,,,,,,,,,,,,,,,,,,,,,,,,,,,,,,,,,,,,,,,,,
,,,,,,616d22471eeb54d1b98db03c,62c53a2cb92f20b2d77b8cd9,2022-07-06_09h32.01.124,Colour_Asymmetry_Pilot,2022.1.3,Win32,59.98080614,62c50e9c1127f2cd403a315f,0,75,75,152,1,onetwo,,,,,,,,,,,,,,,,,,,,,,,,,,,,,,,,,,,,,,,,,,,,,,,,,,,,,,,,,,,,,,,,,,,,,,,,,,,,,,,,,,,,,,,,,,,,,,,,,,,,,,,,,,,,,,,,,,,,,,,,,,,,,,,,,,,,,,,,,,,,,,,,,,,,,,,,,,,,,
,,,,,,616d22471eeb54d1b98db03c,62c53a2cb92f20b2d77b8cd9,2022-07-06_09h32.01.124,Colour_Asymmetry_Pilot,2022.1.3,Win32,59.98080614,62c50e9c1127f2cd403a315f,0,76,76,10,1,twoone,,,,,,,,,,,,,,,,,,,,,,,,,,,,,,,,,,,,,,,,,,,,,,,,,,,,,,,,,,,,,,,,,,,,,,,,,,,,,,,,,,,,,,,,,,,,,,,,,,,,,,,,,,,,,,,,,,,,,,,,,,,,,,,,,,,,,,,,,,,,,,,,,,,,,,,,,,,,,
,,,,,,616d22471eeb54d1b98db03c,62c53a2cb92f20b2d77b8cd9,2022-07-06_09h32.01.124,Colour_Asymmetry_Pilot,2022.1.3,Win32,59.98080614,62c50e9c1127f2cd403a315f,0,77,77,92,1,threeone,,,,,,,,,,,,,,,,,,,,,,,,,,,,,,,,,,,,,,,,,,,,,,,,,,,,,,,,,,,,,,,,,,,,,,,,,,,,,,,,,,,,,,,,,,,,,,,,,,,,,,,,,,,,,,,,,,,,,,,,,,,,,,,,,,,,,,,,,,,,,,,,,,,,,,,,,,,,,
,,,,,,616d22471eeb54d1b98db03c,62c53a2cb92f20b2d77b8cd9,2022-07-06_09h32.01.124,Colour_Asymmetry_Pilot,2022.1.3,Win32,59.98080614,62c50e9c1127f2cd403a315f,0,78,78,79,1,fourthree,,,,,,,,,,,,,,,,,,,,,,,,,,,,,,,,,,,,,,,,,,,,,,,,,,,,,,,,,,,,,,,,,,,,,,,,,,,,,,,,,,,,,,,,,,,,,,,,,,,,,,,,,,,,,,,,,,,,,,,,,,,,,,,,,,,,,,,,,,,,,,,,,,,,,,,,,,,,,
,,,,,,616d22471eeb54d1b98db03c,62c53a2cb92f20b2d77b8cd9,2022-07-06_09h32.01.124,Colour_Asymmetry_Pilot,2022.1.3,Win32,59.98080614,62c50e9c1127f2cd403a315f,0,79,79,3,1,twofour,,,,,,,,,,,,,,,,,,,,,,,,,,,,,,,,,,,,,,,,,,,,,,,,,,,,,,,,,,,,,,,,,,,,,,,,,,,,,,,,,,,,,,,,,,,,,,,,,,,,,,,,,,,,,,,,,,,,,,,,,,,,,,,,,,,,,,,,,,,,,,,,,,,,,,,,,,,,,
,,,,,,616d22471eeb54d1b98db03c,62c53a2cb92f20b2d77b8cd9,2022-07-06_09h32.01.124,Colour_Asymmetry_Pilot,2022.1.3,Win32,59.98080614,62c50e9c1127f2cd403a315f,0,80,80,85,1,threefour,,,,,,,,,,,,,,,,,,,,,,,,,,,,,,,,,,,,,,,,,,,,,,,,,,,,,,,,,,,,,,,,,,,,,,,,,,,,,,,,,,,,,,,,,,,,,,,,,,,,,,,,,,,,,,,,,,,,,,,,,,,,,,,,,,,,,,,,,,,,,,,,,,,,,,,,,,,,,
,,,,,,616d22471eeb54d1b98db03c,62c53a2cb92f20b2d77b8cd9,2022-07-06_09h32.01.124,Colour_Asymmetry_Pilot,2022.1.3,Win32,59.98080614,62c50e9c1127f2cd403a315f,0,81,81,16,1,onetwo,,,,,,,,,,,,,,,,,,,,,,,,,,,,,,,,,,,,,,,,,,,,,,,,,,,,,,,,,,,,,,,,,,,,,,,,,,,,,,,,,,,,,,,,,,,,,,,,,,,,,,,,,,,,,,,,,,,,,,,,,,,,,,,,,,,,,,,,,,,,,,,,,,,,,,,,,,,,,
,,,,,,616d22471eeb54d1b98db03c,62c53a2cb92f20b2d77b8cd9,2022-07-06_09h32.01.124,Colour_Asymmetry_Pilot,2022.1.3,Win32,59.98080614,62c50e9c1127f2cd403a315f,0,82,82,138,1,twoone,,,,,,,,,,,,,,,,,,,,,,,,,,,,,,,,,,,,,,,,,,,,,,,,,,,,,,,,,,,,,,,,,,,,,,,,,,,,,,,,,,,,,,,,,,,,,,,,,,,,,,,,,,,,,,,,,,,,,,,,,,,,,,,,,,,,,,,,,,,,,,,,,,,,,,,,,,,,,
,,,,,,616d22471eeb54d1b98db03c,62c53a2cb92f20b2d77b8cd9,2022-07-06_09h32.01.124,Colour_Asymmetry_Pilot,2022.1.3,Win32,59.98080614,62c50e9c1127f2cd403a315f,0,83,83,14,1,fourtwo,,,,,,,,,,,,,,,,,,,,,,,,,,,,,,,,,,,,,,,,,,,,,,,,,,,,,,,,,,,,,,,,,,,,,,,,,,,,,,,,,,,,,,,,,,,,,,,,,,,,,,,,,,,,,,,,,,,,,,,,,,,,,,,,,,,,,,,,,,,,,,,,,,,,,,,,,,,,,
,,,,,,616d22471eeb54d1b98db03c,62c53a2cb92f20b2d77b8cd9,2022-07-06_09h32.01.124,Colour_Asymmetry_Pilot,2022.1.3,Win32,59.98080614,62c50e9c1127f2cd403a315f,0,84,84,67,1,twofour,,,,,,,,,,,,,,,,,,,,,,,,,,,,,,,,,,,,,,,,,,,,,,,,,,,,,,,,,,,,,,,,,,,,,,,,,,,,,,,,,,,,,,,,,,,,,,,,,,,,,,,,,,,,,,,,,,,,,,,,,,,,,,,,,,,,,,,,,,,,,,,,,,,,,,,,,,,,,
,,,,,,616d22471eeb54d1b98db03c,62c53a2cb92f20b2d77b8cd9,2022-07-06_09h32.01.124,Colour_Asymmetry_Pilot,2022.1.3,Win32,59.98080614,62c50e9c1127f2cd403a315f,0,85,85,15,1,fourthree,,,,,,,,,,,,,,,,,,,,,,,,,,,,,,,,,,,,,,,,,,,,,,,,,,,,,,,,,,,,,,,,,,,,,,,,,,,,,,,,,,,,,,,,,,,,,,,,,,,,,,,,,,,,,,,,,,,,,,,,,,,,,,,,,,,,,,,,,,,,,,,,,,,,,,,,,,,,,
,,,,,,616d22471eeb54d1b98db03c,62c53a2cb92f20b2d77b8cd9,2022-07-06_09h32.01.124,Colour_Asymmetry_Pilot,2022.1.3,Win32,59.98080614,62c50e9c1127f2cd403a315f,0,86,86,161,1,onethree,,,,,,,,,,,,,,,,,,,,,,,,,,,,,,,,,,,,,,,,,,,,,,,,,,,,,,,,,,,,,,,,,,,,,,,,,,,,,,,,,,,,,,,,,,,,,,,,,,,,,,,,,,,,,,,,,,,,,,,,,,,,,,,,,,,,,,,,,,,,,,,,,,,,,,,,,,,,,
,,,,,,616d22471eeb54d1b98db03c,62c53a2cb92f20b2d77b8cd9,2022-07-06_09h32.01.124,Colour_Asymmetry_Pilot,2022.1.3,Win32,59.98080614,62c50e9c1127f2cd403a315f,0,87,87,89,1,onethree,,,,,,,,,,,,,,,,,,,,,,,,,,,,,,,,,,,,,,,,,,,,,,,,,,,,,,,,,,,,,,,,,,,,,,,,,,,,,,,,,,,,,,,,,,,,,,,,,,,,,,,,,,,,,,,,,,,,,,,,,,,,,,,,,,,,,,,,,,,,,,,,,,,,,,,,,,,,,
,,,,,,616d22471eeb54d1b98db03c,62c53a2cb92f20b2d77b8cd9,2022-07-06_09h32.01.124,Colour_Asymmetry_Pilot,2022.1.3,Win32,59.98080614,62c50e9c1127f2cd403a315f,0,88,88,149,1,threefour,,,,,,,,,,,,,,,,,,,,,,,,,,,,,,,,,,,,,,,,,,,,,,,,,,,,,,,,,,,,,,,,,,,,,,,,,,,,,,,,,,,,,,,,,,,,,,,,,,,,,,,,,,,,,,,,,,,,,,,,,,,,,,,,,,,,,,,,,,,,,,,,,,,,,,,,,,,,,
,,,,,,616d22471eeb54d1b98db03c,62c53a2cb92f20b2d77b8cd9,2022-07-06_09h32.01.124,Colour_Asymmetry_Pilot,2022.1.3,Win32,59.98080614,62c50e9c1127f2cd403a315f,0,89,89,135,1,fourthree,,,,,,,,,,,,,,,,,,,,,,,,,,,,,,,,,,,,,,,,,,,,,,,,,,,,,,,,,,,,,,,,,,,,,,,,,,,,,,,,,,,,,,,,,,,,,,,,,,,,,,,,,,,,,,,,,,,,,,,,,,,,,,,,,,,,,,,,,,,,,,,,,,,,,,,,,,,,,
,,,,,,616d22471eeb54d1b98db03c,62c53a2cb92f20b2d77b8cd9,2022-07-06_09h32.01.124,Colour_Asymmetry_Pilot,2022.1.3,Win32,59.98080614,62c50e9c1127f2cd403a315f,0,90,90,2,1,twoone,,,,,,,,,,,,,,,,,,,,,,,,,,,,,,,,,,,,,,,,,,,,,,,,,,,,,,,,,,,,,,,,,,,,,,,,,,,,,,,,,,,,,,,,,,,,,,,,,,,,,,,,,,,,,,,,,,,,,,,,,,,,,,,,,,,,,,,,,,,,,,,,,,,,,,,,,,,,,
,,,,,,616d22471eeb54d1b98db03c,62c53a2cb92f20b2d77b8cd9,2022-07-06_09h32.01.124,Colour_Asymmetry_Pilot,2022.1.3,Win32,59.98080614,62c50e9c1127f2cd403a315f,0,91,91,147,1,twofour,,,,,,,,,,,,,,,,,,,,,,,,,,,,,,,,,,,,,,,,,,,,,,,,,,,,,,,,,,,,,,,,,,,,,,,,,,,,,,,,,,,,,,,,,,,,,,,,,,,,,,,,,,,,,,,,,,,,,,,,,,,,,,,,,,,,,,,,,,,,,,,,,,,,,,,,,,,,,
,,,,,,616d22471eeb54d1b98db03c,62c53a2cb92f20b2d77b8cd9,2022-07-06_09h32.01.124,Colour_Asymmetry_Pilot,2022.1.3,Win32,59.98080614,62c50e9c1127f2cd403a315f,0,92,92,1,1,onethree,,,,,,,,,,,,,,,,,,,,,,,,,,,,,,,,,,,,,,,,,,,,,,,,,,,,,,,,,,,,,,,,,,,,,,,,,,,,,,,,,,,,,,,,,,,,,,,,,,,,,,,,,,,,,,,,,,,,,,,,,,,,,,,,,,,,,,,,,,,,,,,,,,,,,,,,,,,,,
,,,,,,616d22471eeb54d1b98db03c,62c53a2cb92f20b2d77b8cd9,2022-07-06_09h32.01.124,Colour_Asymmetry_Pilot,2022.1.3,Win32,59.98080614,62c50e9c1127f2cd403a315f,0,93,93,58,1,twoone,,,,,,,,,,,,,,,,,,,,,,,,,,,,,,,,,,,,,,,,,,,,,,,,,,,,,,,,,,,,,,,,,,,,,,,,,,,,,,,,,,,,,,,,,,,,,,,,,,,,,,,,,,,,,,,,,,,,,,,,,,,,,,,,,,,,,,,,,,,,,,,,,,,,,,,,,,,,,
,,,,,,616d22471eeb54d1b98db03c,62c53a2cb92f20b2d77b8cd9,2022-07-06_09h32.01.124,Colour_Asymmetry_Pilot,2022.1.3,Win32,59.98080614,62c50e9c1127f2cd403a315f,0,94,94,148,1,threeone,,,,,,,,,,,,,,,,,,,,,,,,,,,,,,,,,,,,,,,,,,,,,,,,,,,,,,,,,,,,,,,,,,,,,,,,,,,,,,,,,,,,,,,,,,,,,,,,,,,,,,,,,,,,,,,,,,,,,,,,,,,,,,,,,,,,,,,,,,,,,,,,,,,,,,,,,,,,,
,,,,,,616d22471eeb54d1b98db03c,62c53a2cb92f20b2d77b8cd9,2022-07-06_09h32.01.124,Colour_Asymmetry_Pilot,2022.1.3,Win32,59.98080614,62c50e9c1127f2cd403a315f,0,95,95,64,1,onetwo,,,,,,,,,,,,,,,,,,,,,,,,,,,,,,,,,,,,,,,,,,,,,,,,,,,,,,,,,,,,,,,,,,,,,,,,,,,,,,,,,,,,,,,,,,,,,,,,,,,,,,,,,,,,,,,,,,,,,,,,,,,,,,,,,,,,,,,,,,,,,,,,,,,,,,,,,,,,,
,,,,,,616d22471eeb54d1b98db03c,62c53a2cb92f20b2d77b8cd9,2022-07-06_09h32.01.124,Colour_Asymmetry_Pilot,2022.1.3,Win32,59.98080614,62c50e9c1127f2cd403a315f,0,96,96,32,1,onetwo,,,,,,,,,,,,,,,,,,,,,,,,,,,,,,,,,,,,,,,,,,,,,,,,,,,,,,,,,,,,,,,,,,,,,,,,,,,,,,,,,,,,,,,,,,,,,,,,,,,,,,,,,,,,,,,,,,,,,,,,,,,,,,,,,,,,,,,,,,,,,,,,,,,,,,,,,,,,,
,,,,,,616d22471eeb54d1b98db03c,62c53a2cb92f20b2d77b8cd9,2022-07-06_09h32.01.124,Colour_Asymmetry_Pilot,2022.1.3,Win32,59.98080614,62c50e9c1127f2cd403a315f,0,97,97,43,1,twofour,,,,,,,,,,,,,,,,,,,,,,,,,,,,,,,,,,,,,,,,,,,,,,,,,,,,,,,,,,,,,,,,,,,,,,,,,,,,,,,,,,,,,,,,,,,,,,,,,,,,,,,,,,,,,,,,,,,,,,,,,,,,,,,,,,,,,,,,,,,,,,,,,,,,,,,,,,,,,
,,,,,,616d22471eeb54d1b98db03c,62c53a2cb92f20b2d77b8cd9,2022-07-06_09h32.01.124,Colour_Asymmetry_Pilot,2022.1.3,Win32,59.98080614,62c50e9c1127f2cd403a315f,0,98,98,24,1,onetwo,,,,,,,,,,,,,,,,,,,,,,,,,,,,,,,,,,,,,,,,,,,,,,,,,,,,,,,,,,,,,,,,,,,,,,,,,,,,,,,,,,,,,,,,,,,,,,,,,,,,,,,,,,,,,,,,,,,,,,,,,,,,,,,,,,,,,,,,,,,,,,,,,,,,,,,,,,,,,
,,,,,,616d22471eeb54d1b98db03c,62c53a2cb92f20b2d77b8cd9,2022-07-06_09h32.01.124,Colour_Asymmetry_Pilot,2022.1.3,Win32,59.98080614,62c50e9c1127f2cd403a315f,0,99,99,155,1,twofour,,,,,,,,,,,,,,,,,,,,,,,,,,,,,,,,,,,,,,,,,,,,,,,,,,,,,,,,,,,,,,,,,,,,,,,,,,,,,,,,,,,,,,,,,,,,,,,,,,,,,,,,,,,,,,,,,,,,,,,,,,,,,,,,,,,,,,,,,,,,,,,,,,,,,,,,,,,,,
,,,,,,616d22471eeb54d1b98db03c,62c53a2cb92f20b2d77b8cd9,2022-07-06_09h32.01.124,Colour_Asymmetry_Pilot,2022.1.3,Win32,59.98080614,62c50e9c1127f2cd403a315f,0,100,100,125,1,threefour,,,,,,,,,,,,,,,,,,,,,,,,,,,,,,,,,,,,,,,,,,,,,,,,,,,,,,,,,,,,,,,,,,,,,,,,,,,,,,,,,,,,,,,,,,,,,,,,,,,,,,,,,,,,,,,,,,,,,,,,,,,,,,,,,,,,,,,,,,,,,,,,,,,,,,,,,,,,,
,,,,,,616d22471eeb54d1b98db03c,62c53a2cb92f20b2d77b8cd9,2022-07-06_09h32.01.124,Colour_Asymmetry_Pilot,2022.1.3,Win32,59.98080614,62c50e9c1127f2cd403a315f,0,101,101,46,1,fourtwo,,,,,,,,,,,,,,,,,,,,,,,,,,,,,,,,,,,,,,,,,,,,,,,,,,,,,,,,,,,,,,,,,,,,,,,,,,,,,,,,,,,,,,,,,,,,,,,,,,,,,,,,,,,,,,,,,,,,,,,,,,,,,,,,,,,,,,,,,,,,,,,,,,,,,,,,,,,,,
,,,,,,616d22471eeb54d1b98db03c,62c53a2cb92f20b2d77b8cd9,2022-07-06_09h32.01.124,Colour_Asymmetry_Pilot,2022.1.3,Win32,59.98080614,62c50e9c1127f2cd403a315f,0,102,102,116,1,threeone,,,,,,,,,,,,,,,,,,,,,,,,,,,,,,,,,,,,,,,,,,,,,,,,,,,,,,,,,,,,,,,,,,,,,,,,,,,,,,,,,,,,,,,,,,,,,,,,,,,,,,,,,,,,,,,,,,,,,,,,,,,,,,,,,,,,,,,,,,,,,,,,,,,,,,,,,,,,,
,,,,,,616d22471eeb54d1b98db03c,62c53a2cb92f20b2d77b8cd9,2022-07-06_09h32.01.124,Colour_Asymmetry_Pilot,2022.1.3,Win32,59.98080614,62c50e9c1127f2cd403a315f,0,103,103,5,1,threefour,,,,,,,,,,,,,,,,,,,,,,,,,,,,,,,,,,,,,,,,,,,,,,,,,,,,,,,,,,,,,,,,,,,,,,,,,,,,,,,,,,,,,,,,,,,,,,,,,,,,,,,,,,,,,,,,,,,,,,,,,,,,,,,,,,,,,,,,,,,,,,,,,,,,,,,,,,,,,
,,,,,,616d22471eeb54d1b98db03c,62c53a2cb92f20b2d77b8cd9,2022-07-06_09h32.01.124,Colour_Asymmetry_Pilot,2022.1.3,Win32,59.98080614,62c50e9c1127f2cd403a315f,0,104,104,82,1,twoone,,,,,,,,,,,,,,,,,,,,,,,,,,,,,,,,,,,,,,,,,,,,,,,,,,,,,,,,,,,,,,,,,,,,,,,,,,,,,,,,,,,,,,,,,,,,,,,,,,,,,,,,,,,,,,,,,,,,,,,,,,,,,,,,,,,,,,,,,,,,,,,,,,,,,,,,,,,,,
,,,,,,616d22471eeb54d1b98db03c,62c53a2cb92f20b2d77b8cd9,2022-07-06_09h32.01.124,Colour_Asymmetry_Pilot,2022.1.3,Win32,59.98080614,62c50e9c1127f2cd403a315f,0,105,105,153,1,onethree,,,,,,,,,,,,,,,,,,,,,,,,,,,,,,,,,,,,,,,,,,,,,,,,,,,,,,,,,,,,,,,,,,,,,,,,,,,,,,,,,,,,,,,,,,,,,,,,,,,,,,,,,,,,,,,,,,,,,,,,,,,,,,,,,,,,,,,,,,,,,,,,,,,,,,,,,,,,,
,,,,,,616d22471eeb54d1b98db03c,62c53a2cb92f20b2d77b8cd9,2022-07-06_09h32.01.124,Colour_Asymmetry_Pilot,2022.1.3,Win32,59.98080614,62c50e9c1127f2cd403a315f,0,106,106,70,1,fourtwo,,,,,,,,,,,,,,,,,,,,,,,,,,,,,,,,,,,,,,,,,,,,,,,,,,,,,,,,,,,,,,,,,,,,,,,,,,,,,,,,,,,,,,,,,,,,,,,,,,,,,,,,,,,,,,,,,,,,,,,,,,,,,,,,,,,,,,,,,,,,,,,,,,,,,,,,,,,,,
,,,,,,616d22471eeb54d1b98db03c,62c53a2cb92f20b2d77b8cd9,2022-07-06_09h32.01.124,Colour_Asymmetry_Pilot,2022.1.3,Win32,59.98080614,62c50e9c1127f2cd403a315f,0,107,107,20,1,threeone,,,,,,,,,,,,,,,,,,,,,,,,,,,,,,,,,,,,,,,,,,,,,,,,,,,,,,,,,,,,,,,,,,,,,,,,,,,,,,,,,,,,,,,,,,,,,,,,,,,,,,,,,,,,,,,,,,,,,,,,,,,,,,,,,,,,,,,,,,,,,,,,,,,,,,,,,,,,,
,,,,,,616d22471eeb54d1b98db03c,62c53a2cb92f20b2d77b8cd9,2022-07-06_09h32.01.124,Colour_Asymmetry_Pilot,2022.1.3,Win32,59.98080614,62c50e9c1127f2cd403a315f,0,108,108,27,1,twofour,,,,,,,,,,,,,,,,,,,,,,,,,,,,,,,,,,,,,,,,,,,,,,,,,,,,,,,,,,,,,,,,,,,,,,,,,,,,,,,,,,,,,,,,,,,,,,,,,,,,,,,,,,,,,,,,,,,,,,,,,,,,,,,,,,,,,,,,,,,,,,,,,,,,,,,,,,,,,
,,,,,,616d22471eeb54d1b98db03c,62c53a2cb92f20b2d77b8cd9,2022-07-06_09h32.01.124,Colour_Asymmetry_Pilot,2022.1.3,Win32,59.98080614,62c50e9c1127f2cd403a315f,0,109,109,25,1,onethree,,,,,,,,,,,,,,,,,,,,,,,,,,,,,,,,,,,,,,,,,,,,,,,,,,,,,,,,,,,,,,,,,,,,,,,,,,,,,,,,,,,,,,,,,,,,,,,,,,,,,,,,,,,,,,,,,,,,,,,,,,,,,,,,,,,,,,,,,,,,,,,,,,,,,,,,,,,,,
,,,,,,616d22471eeb54d1b98db03c,62c53a2cb92f20b2d77b8cd9,2022-07-06_09h32.01.124,Colour_Asymmetry_Pilot,2022.1.3,Win32,59.98080614,62c50e9c1127f2cd403a315f,0,110,110,8,1,onetwo,,,,,,,,,,,,,,,,,,,,,,,,,,,,,,,,,,,,,,,,,,,,,,,,,,,,,,,,,,,,,,,,,,,,,,,,,,,,,,,,,,,,,,,,,,,,,,,,,,,,,,,,,,,,,,,,,,,,,,,,,,,,,,,,,,,,,,,,,,,,,,,,,,,,,,,,,,,,,
,,,,,,616d22471eeb54d1b98db03c,62c53a2cb92f20b2d77b8cd9,2022-07-06_09h32.01.124,Colour_Asymmetry_Pilot,2022.1.3,Win32,59.98080614,62c50e9c1127f2cd403a315f,0,111,111,42,1,twoone,,,,,,,,,,,,,,,,,,,,,,,,,,,,,,,,,,,,,,,,,,,,,,,,,,,,,,,,,,,,,,,,,,,,,,,,,,,,,,,,,,,,,,,,,,,,,,,,,,,,,,,,,,,,,,,,,,,,,,,,,,,,,,,,,,,,,,,,,,,,,,,,,,,,,,,,,,,,,
,,,,,,616d22471eeb54d1b98db03c,62c53a2cb92f20b2d77b8cd9,2022-07-06_09h32.01.124,Colour_Asymmetry_Pilot,2022.1.3,Win32,59.98080614,62c50e9c1127f2cd403a315f,0,112,112,97,1,onethree,,,,,,,,,,,,,,,,,,,,,,,,,,,,,,,,,,,,,,,,,,,,,,,,,,,,,,,,,,,,,,,,,,,,,,,,,,,,,,,,,,,,,,,,,,,,,,,,,,,,,,,,,,,,,,,,,,,,,,,,,,,,,,,,,,,,,,,,,,,,,,,,,,,,,,,,,,,,,
,,,,,,616d22471eeb54d1b98db03c,62c53a2cb92f20b2d77b8cd9,2022-07-06_09h32.01.124,Colour_Asymmetry_Pilot,2022.1.3,Win32,59.98080614,62c50e9c1127f2cd403a315f,0,113,113,111,1,fourthree,,,,,,,,,,,,,,,,,,,,,,,,,,,,,,,,,,,,,,,,,,,,,,,,,,,,,,,,,,,,,,,,,,,,,,,,,,,,,,,,,,,,,,,,,,,,,,,,,,,,,,,,,,,,,,,,,,,,,,,,,,,,,,,,,,,,,,,,,,,,,,,,,,,,,,,,,,,,,
,,,,,,616d22471eeb54d1b98db03c,62c53a2cb92f20b2d77b8cd9,2022-07-06_09h32.01.124,Colour_Asymmetry_Pilot,2022.1.3,Win32,59.98080614,62c50e9c1127f2cd403a315f,0,114,114,157,1,threefour,,,,,,,,,,,,,,,,,,,,,,,,,,,,,,,,,,,,,,,,,,,,,,,,,,,,,,,,,,,,,,,,,,,,,,,,,,,,,,,,,,,,,,,,,,,,,,,,,,,,,,,,,,,,,,,,,,,,,,,,,,,,,,,,,,,,,,,,,,,,,,,,,,,,,,,,,,,,,
,,,,,,616d22471eeb54d1b98db03c,62c53a2cb92f20b2d77b8cd9,2022-07-06_09h32.01.124,Colour_Asymmetry_Pilot,2022.1.3,Win32,59.98080614,62c50e9c1127f2cd403a315f,0,115,115,0,1,onetwo,,,,,,,,,,,,,,,,,,,,,,,,,,,,,,,,,,,,,,,,,,,,,,,,,,,,,,,,,,,,,,,,,,,,,,,,,,,,,,,,,,,,,,,,,,,,,,,,,,,,,,,,,,,,,,,,,,,,,,,,,,,,,,,,,,,,,,,,,,,,,,,,,,,,,,,,,,,,,
,,,,,,616d22471eeb54d1b98db03c,62c53a2cb92f20b2d77b8cd9,2022-07-06_09h32.01.124,Colour_Asymmetry_Pilot,2022.1.3,Win32,59.98080614,62c50e9c1127f2cd403a315f,0,116,116,93,1,threefour,,,,,,,,,,,,,,,,,,,,,,,,,,,,,,,,,,,,,,,,,,,,,,,,,,,,,,,,,,,,,,,,,,,,,,,,,,,,,,,,,,,,,,,,,,,,,,,,,,,,,,,,,,,,,,,,,,,,,,,,,,,,,,,,,,,,,,,,,,,,,,,,,,,,,,,,,,,,,
,,,,,,616d22471eeb54d1b98db03c,62c53a2cb92f20b2d77b8cd9,2022-07-06_09h32.01.124,Colour_Asymmetry_Pilot,2022.1.3,Win32,59.98080614,62c50e9c1127f2cd403a315f,0,117,117,72,1,onetwo,,,,,,,,,,,,,,,,,,,,,,,,,,,,,,,,,,,,,,,,,,,,,,,,,,,,,,,,,,,,,,,,,,,,,,,,,,,,,,,,,,,,,,,,,,,,,,,,,,,,,,,,,,,,,,,,,,,,,,,,,,,,,,,,,,,,,,,,,,,,,,,,,,,,,,,,,,,,,
,,,,,,616d22471eeb54d1b98db03c,62c53a2cb92f20b2d77b8cd9,2022-07-06_09h32.01.124,Colour_Asymmetry_Pilot,2022.1.3,Win32,59.98080614,62c50e9c1127f2cd403a315f,0,118,118,80,1,onetwo,,,,,,,,,,,,,,,,,,,,,,,,,,,,,,,,,,,,,,,,,,,,,,,,,,,,,,,,,,,,,,,,,,,,,,,,,,,,,,,,,,,,,,,,,,,,,,,,,,,,,,,,,,,,,,,,,,,,,,,,,,,,,,,,,,,,,,,,,,,,,,,,,,,,,,,,,,,,,
,,,,,,616d22471eeb54d1b98db03c,62c53a2cb92f20b2d77b8cd9,2022-07-06_09h32.01.124,Colour_Asymmetry_Pilot,2022.1.3,Win32,59.98080614,62c50e9c1127f2cd403a315f,0,119,119,78,1,fourtwo,,,,,,,,,,,,,,,,,,,,,,,,,,,,,,,,,,,,,,,,,,,,,,,,,,,,,,,,,,,,,,,,,,,,,,,,,,,,,,,,,,,,,,,,,,,,,,,,,,,,,,,,,,,,,,,,,,,,,,,,,,,,,,,,,,,,,,,,,,,,,,,,,,,,,,,,,,,,,
,,,,,,616d22471eeb54d1b98db03c,62c53a2cb92f20b2d77b8cd9,2022-07-06_09h32.01.124,Colour_Asymmetry_Pilot,2022.1.3,Win32,59.98080614,62c50e9c1127f2cd403a315f,0,120,120,22,1,fourtwo,,,,,,,,,,,,,,,,,,,,,,,,,,,,,,,,,,,,,,,,,,,,,,,,,,,,,,,,,,,,,,,,,,,,,,,,,,,,,,,,,,,,,,,,,,,,,,,,,,,,,,,,,,,,,,,,,,,,,,,,,,,,,,,,,,,,,,,,,,,,,,,,,,,,,,,,,,,,,
,,,,,,616d22471eeb54d1b98db03c,62c53a2cb92f20b2d77b8cd9,2022-07-06_09h32.01.124,Colour_Asymmetry_Pilot,2022.1.3,Win32,59.98080614,62c50e9c1127f2cd403a315f,0,121,121,95,1,fourthree,,,,,,,,,,,,,,,,,,,,,,,,,,,,,,,,,,,,,,,,,,,,,,,,,,,,,,,,,,,,,,,,,,,,,,,,,,,,,,,,,,,,,,,,,,,,,,,,,,,,,,,,,,,,,,,,,,,,,,,,,,,,,,,,,,,,,,,,,,,,,,,,,,,,,,,,,,,,,
,,,,,,616d22471eeb54d1b98db03c,62c53a2cb92f20b2d77b8cd9,2022-07-06_09h32.01.124,Colour_Asymmetry_Pilot,2022.1.3,Win32,59.98080614,62c50e9c1127f2cd403a315f,0,122,122,102,1,fourtwo,,,,,,,,,,,,,,,,,,,,,,,,,,,,,,,,,,,,,,,,,,,,,,,,,,,,,,,,,,,,,,,,,,,,,,,,,,,,,,,,,,,,,,,,,,,,,,,,,,,,,,,,,,,,,,,,,,,,,,,,,,,,,,,,,,,,,,,,,,,,,,,,,,,,,,,,,,,,,
,,,,,,616d22471eeb54d1b98db03c,62c53a2cb92f20b2d77b8cd9,2022-07-06_09h32.01.124,Colour_Asymmetry_Pilot,2022.1.3,Win32,59.98080614,62c50e9c1127f2cd403a315f,0,123,123,30,1,fourtwo,,,,,,,,,,,,,,,,,,,,,,,,,,,,,,,,,,,,,,,,,,,,,,,,,,,,,,,,,,,,,,,,,,,,,,,,,,,,,,,,,,,,,,,,,,,,,,,,,,,,,,,,,,,,,,,,,,,,,,,,,,,,,,,,,,,,,,,,,,,,,,,,,,,,,,,,,,,,,
,,,,,,616d22471eeb54d1b98db03c,62c53a2cb92f20b2d77b8cd9,2022-07-06_09h32.01.124,Colour_Asymmetry_Pilot,2022.1.3,Win32,59.98080614,62c50e9c1127f2cd403a315f,0,124,124,49,1,onethree,,,,,,,,,,,,,,,,,,,,,,,,,,,,,,,,,,,,,,,,,,,,,,,,,,,,,,,,,,,,,,,,,,,,,,,,,,,,,,,,,,,,,,,,,,,,,,,,,,,,,,,,,,,,,,,,,,,,,,,,,,,,,,,,,,,,,,,,,,,,,,,,,,,,,,,,,,,,,
,,,,,,616d22471eeb54d1b98db03c,62c53a2cb92f20b2d77b8cd9,2022-07-06_09h32.01.124,Colour_Asymmetry_Pilot,2022.1.3,Win32,59.98080614,62c50e9c1127f2cd403a315f,0,125,125,114,1,twoone,,,,,,,,,,,,,,,,,,,,,,,,,,,,,,,,,,,,,,,,,,,,,,,,,,,,,,,,,,,,,,,,,,,,,,,,,,,,,,,,,,,,,,,,,,,,,,,,,,,,,,,,,,,,,,,,,,,,,,,,,,,,,,,,,,,,,,,,,,,,,,,,,,,,,,,,,,,,,
,,,,,,616d22471eeb54d1b98db03c,62c53a2cb92f20b2d77b8cd9,2022-07-06_09h32.01.124,Colour_Asymmetry_Pilot,2022.1.3,Win32,59.98080614,62c50e9c1127f2cd403a315f,0,126,126,130,1,twoone,,,,,,,,,,,,,,,,,,,,,,,,,,,,,,,,,,,,,,,,,,,,,,,,,,,,,,,,,,,,,,,,,,,,,,,,,,,,,,,,,,,,,,,,,,,,,,,,,,,,,,,,,,,,,,,,,,,,,,,,,,,,,,,,,,,,,,,,,,,,,,,,,,,,,,,,,,,,,
,,,,,,616d22471eeb54d1b98db03c,62c53a2cb92f20b2d77b8cd9,2022-07-06_09h32.01.124,Colour_Asymmetry_Pilot,2022.1.3,Win32,59.98080614,62c50e9c1127f2cd403a315f,0,127,127,50,1,twoone,,,,,,,,,,,,,,,,,,,,,,,,,,,,,,,,,,,,,,,,,,,,,,,,,,,,,,,,,,,,,,,,,,,,,,,,,,,,,,,,,,,,,,,,,,,,,,,,,,,,,,,,,,,,,,,,,,,,,,,,,,,,,,,,,,,,,,,,,,,,,,,,,,,,,,,,,,,,,
,,,,,,616d22471eeb54d1b98db03c,62c53a2cb92f20b2d77b8cd9,2022-07-06_09h32.01.124,Colour_Asymmetry_Pilot,2022.1.3,Win32,59.98080614,62c50e9c1127f2cd403a315f,0,128,128,101,1,threefour,,,,,,,,,,,,,,,,,,,,,,,,,,,,,,,,,,,,,,,,,,,,,,,,,,,,,,,,,,,,,,,,,,,,,,,,,,,,,,,,,,,,,,,,,,,,,,,,,,,,,,,,,,,,,,,,,,,,,,,,,,,,,,,,,,,,,,,,,,,,,,,,,,,,,,,,,,,,,
,,,,,,616d22471eeb54d1b98db03c,62c53a2cb92f20b2d77b8cd9,2022-07-06_09h32.01.124,Colour_Asymmetry_Pilot,2022.1.3,Win32,59.98080614,62c50e9c1127f2cd403a315f,0,129,129,39,1,fourthree,,,,,,,,,,,,,,,,,,,,,,,,,,,,,,,,,,,,,,,,,,,,,,,,,,,,,,,,,,,,,,,,,,,,,,,,,,,,,,,,,,,,,,,,,,,,,,,,,,,,,,,,,,,,,,,,,,,,,,,,,,,,,,,,,,,,,,,,,,,,,,,,,,,,,,,,,,,,,
,,,,,,616d22471eeb54d1b98db03c,62c53a2cb92f20b2d77b8cd9,2022-07-06_09h32.01.124,Colour_Asymmetry_Pilot,2022.1.3,Win32,59.98080614,62c50e9c1127f2cd403a315f,0,130,130,87,1,fourthree,,,,,,,,,,,,,,,,,,,,,,,,,,,,,,,,,,,,,,,,,,,,,,,,,,,,,,,,,,,,,,,,,,,,,,,,,,,,,,,,,,,,,,,,,,,,,,,,,,,,,,,,,,,,,,,,,,,,,,,,,,,,,,,,,,,,,,,,,,,,,,,,,,,,,,,,,,,,,
,,,,,,616d22471eeb54d1b98db03c,62c53a2cb92f20b2d77b8cd9,2022-07-06_09h32.01.124,Colour_Asymmetry_Pilot,2022.1.3,Win32,59.98080614,62c50e9c1127f2cd403a315f,0,131,131,160,1,onetwo,,,,,,,,,,,,,,,,,,,,,,,,,,,,,,,,,,,,,,,,,,,,,,,,,,,,,,,,,,,,,,,,,,,,,,,,,,,,,,,,,,,,,,,,,,,,,,,,,,,,,,,,,,,,,,,,,,,,,,,,,,,,,,,,,,,,,,,,,,,,,,,,,,,,,,,,,,,,,
,,,,,,616d22471eeb54d1b98db03c,62c53a2cb92f20b2d77b8cd9,2022-07-06_09h32.01.124,Colour_Asymmetry_Pilot,2022.1.3,Win32,59.98080614,62c50e9c1127f2cd403a315f,0,132,132,140,1,threeone,,,,,,,,,,,,,,,,,,,,,,,,,,,,,,,,,,,,,,,,,,,,,,,,,,,,,,,,,,,,,,,,,,,,,,,,,,,,,,,,,,,,,,,,,,,,,,,,,,,,,,,,,,,,,,,,,,,,,,,,,,,,,,,,,,,,,,,,,,,,,,,,,,,,,,,,,,,,,
,,,,,,616d22471eeb54d1b98db03c,62c53a2cb92f20b2d77b8cd9,2022-07-06_09h32.01.124,Colour_Asymmetry_Pilot,2022.1.3,Win32,59.98080614,62c50e9c1127f2cd403a315f,0,133,133,104,1,onetwo,,,,,,,,,,,,,,,,,,,,,,,,,,,,,,,,,,,,,,,,,,,,,,,,,,,,,,,,,,,,,,,,,,,,,,,,,,,,,,,,,,,,,,,,,,,,,,,,,,,,,,,,,,,,,,,,,,,,,,,,,,,,,,,,,,,,,,,,,,,,,,,,,,,,,,,,,,,,,
,,,,,,616d22471eeb54d1b98db03c,62c53a2cb92f20b2d77b8cd9,2022-07-06_09h32.01.124,Colour_Asymmetry_Pilot,2022.1.3,Win32,59.98080614,62c50e9c1127f2cd403a315f,0,134,134,34,1,twoone,,,,,,,,,,,,,,,,,,,,,,,,,,,,,,,,,,,,,,,,,,,,,,,,,,,,,,,,,,,,,,,,,,,,,,,,,,,,,,,,,,,,,,,,,,,,,,,,,,,,,,,,,,,,,,,,,,,,,,,,,,,,,,,,,,,,,,,,,,,,,,,,,,,,,,,,,,,,,
,,,,,,616d22471eeb54d1b98db03c,62c53a2cb92f20b2d77b8cd9,2022-07-06_09h32.01.124,Colour_Asymmetry_Pilot,2022.1.3,Win32,59.98080614,62c50e9c1127f2cd403a315f,0,135,135,23,1,fourthree,,,,,,,,,,,,,,,,,,,,,,,,,,,,,,,,,,,,,,,,,,,,,,,,,,,,,,,,,,,,,,,,,,,,,,,,,,,,,,,,,,,,,,,,,,,,,,,,,,,,,,,,,,,,,,,,,,,,,,,,,,,,,,,,,,,,,,,,,,,,,,,,,,,,,,,,,,,,,
,,,,,,616d22471eeb54d1b98db03c,62c53a2cb92f20b2d77b8cd9,2022-07-06_09h32.01.124,Colour_Asymmetry_Pilot,2022.1.3,Win32,59.98080614,62c50e9c1127f2cd403a315f,0,136,136,21,1,threefour,,,,,,,,,,,,,,,,,,,,,,,,,,,,,,,,,,,,,,,,,,,,,,,,,,,,,,,,,,,,,,,,,,,,,,,,,,,,,,,,,,,,,,,,,,,,,,,,,,,,,,,,,,,,,,,,,,,,,,,,,,,,,,,,,,,,,,,,,,,,,,,,,,,,,,,,,,,,,
,,,,,,616d22471eeb54d1b98db03c,62c53a2cb92f20b2d77b8cd9,2022-07-06_09h32.01.124,Colour_Asymmetry_Pilot,2022.1.3,Win32,59.98080614,62c50e9c1127f2cd403a315f,0,137,137,133,1,threefour,,,,,,,,,,,,,,,,,,,,,,,,,,,,,,,,,,,,,,,,,,,,,,,,,,,,,,,,,,,,,,,,,,,,,,,,,,,,,,,,,,,,,,,,,,,,,,,,,,,,,,,,,,,,,,,,,,,,,,,,,,,,,,,,,,,,,,,,,,,,,,,,,,,,,,,,,,,,,
,,,,,,616d22471eeb54d1b98db03c,62c53a2cb92f20b2d77b8cd9,2022-07-06_09h32.01.124,Colour_Asymmetry_Pilot,2022.1.3,Win32,59.98080614,62c50e9c1127f2cd403a315f,0,138,138,103,1,fourthree,,,,,,,,,,,,,,,,,,,,,,,,,,,,,,,,,,,,,,,,,,,,,,,,,,,,,,,,,,,,,,,,,,,,,,,,,,,,,,,,,,,,,,,,,,,,,,,,,,,,,,,,,,,,,,,,,,,,,,,,,,,,,,,,,,,,,,,,,,,,,,,,,,,,,,,,,,,,,
,,,,,,616d22471eeb54d1b98db03c,62c53a2cb92f20b2d77b8cd9,2022-07-06_09h32.01.124,Colour_Asymmetry_Pilot,2022.1.3,Win32,59.98080614,62c50e9c1127f2cd403a315f,0,139,139,136,1,onetwo,,,,,,,,,,,,,,,,,,,,,,,,,,,,,,,,,,,,,,,,,,,,,,,,,,,,,,,,,,,,,,,,,,,,,,,,,,,,,,,,,,,,,,,,,,,,,,,,,,,,,,,,,,,,,,,,,,,,,,,,,,,,,,,,,,,,,,,,,,,,,,,,,,,,,,,,,,,,,
,,,,,,616d22471eeb54d1b98db03c,62c53a2cb92f20b2d77b8cd9,2022-07-06_09h32.01.124,Colour_Asymmetry_Pilot,2022.1.3,Win32,59.98080614,62c50e9c1127f2cd403a315f,0,140,140,91,1,twofour,,,,,,,,,,,,,,,,,,,,,,,,,,,,,,,,,,,,,,,,,,,,,,,,,,,,,,,,,,,,,,,,,,,,,,,,,,,,,,,,,,,,,,,,,,,,,,,,,,,,,,,,,,,,,,,,,,,,,,,,,,,,,,,,,,,,,,,,,,,,,,,,,,,,,,,,,,,,,
,,,,,,616d22471eeb54d1b98db03c,62c53a2cb92f20b2d77b8cd9,2022-07-06_09h32.01.124,Colour_Asymmetry_Pilot,2022.1.3,Win32,59.98080614,62c50e9c1127f2cd403a315f,0,141,141,51,1,twofour,,,,,,,,,,,,,,,,,,,,,,,,,,,,,,,,,,,,,,,,,,,,,,,,,,,,,,,,,,,,,,,,,,,,,,,,,,,,,,,,,,,,,,,,,,,,,,,,,,,,,,,,,,,,,,,,,,,,,,,,,,,,,,,,,,,,,,,,,,,,,,,,,,,,,,,,,,,,,
,,,,,,616d22471eeb54d1b98db03c,62c53a2cb92f20b2d77b8cd9,2022-07-06_09h32.01.124,Colour_Asymmetry_Pilot,2022.1.3,Win32,59.98080614,62c50e9c1127f2cd403a315f,0,142,142,96,1,onetwo,,,,,,,,,,,,,,,,,,,,,,,,,,,,,,,,,,,,,,,,,,,,,,,,,,,,,,,,,,,,,,,,,,,,,,,,,,,,,,,,,,,,,,,,,,,,,,,,,,,,,,,,,,,,,,,,,,,,,,,,,,,,,,,,,,,,,,,,,,,,,,,,,,,,,,,,,,,,,
,,,,,,616d22471eeb54d1b98db03c,62c53a2cb92f20b2d77b8cd9,2022-07-06_09h32.01.124,Colour_Asymmetry_Pilot,2022.1.3,Win32,59.98080614,62c50e9c1127f2cd403a315f,0,143,143,137,1,onethree,,,,,,,,,,,,,,,,,,,,,,,,,,,,,,,,,,,,,,,,,,,,,,,,,,,,,,,,,,,,,,,,,,,,,,,,,,,,,,,,,,,,,,,,,,,,,,,,,,,,,,,,,,,,,,,,,,,,,,,,,,,,,,,,,,,,,,,,,,,,,,,,,,,,,,,,,,,,,
,,,,,,616d22471eeb54d1b98db03c,62c53a2cb92f20b2d77b8cd9,2022-07-06_09h32.01.124,Colour_Asymmetry_Pilot,2022.1.3,Win32,59.98080614,62c50e9c1127f2cd403a315f,0,144,144,19,1,twofour,,,,,,,,,,,,,,,,,,,,,,,,,,,,,,,,,,,,,,,,,,,,,,,,,,,,,,,,,,,,,,,,,,,,,,,,,,,,,,,,,,,,,,,,,,,,,,,,,,,,,,,,,,,,,,,,,,,,,,,,,,,,,,,,,,,,,,,,,,,,,,,,,,,,,,,,,,,,,
,,,,,,616d22471eeb54d1b98db03c,62c53a2cb92f20b2d77b8cd9,2022-07-06_09h32.01.124,Colour_Asymmetry_Pilot,2022.1.3,Win32,59.98080614,62c50e9c1127f2cd403a315f,0,145,145,12,1,threeone,,,,,,,,,,,,,,,,,,,,,,,,,,,,,,,,,,,,,,,,,,,,,,,,,,,,,,,,,,,,,,,,,,,,,,,,,,,,,,,,,,,,,,,,,,,,,,,,,,,,,,,,,,,,,,,,,,,,,,,,,,,,,,,,,,,,,,,,,,,,,,,,,,,,,,,,,,,,,
,,,,,,616d22471eeb54d1b98db03c,62c53a2cb92f20b2d77b8cd9,2022-07-06_09h32.01.124,Colour_Asymmetry_Pilot,2022.1.3,Win32,59.98080614,62c50e9c1127f2cd403a315f,0,146,146,33,1,onethree,,,,,,,,,,,,,,,,,,,,,,,,,,,,,,,,,,,,,,,,,,,,,,,,,,,,,,,,,,,,,,,,,,,,,,,,,,,,,,,,,,,,,,,,,,,,,,,,,,,,,,,,,,,,,,,,,,,,,,,,,,,,,,,,,,,,,,,,,,,,,,,,,,,,,,,,,,,,,
,,,,,,616d22471eeb54d1b98db03c,62c53a2cb92f20b2d77b8cd9,2022-07-06_09h32.01.124,Colour_Asymmetry_Pilot,2022.1.3,Win32,59.98080614,62c50e9c1127f2cd403a315f,0,147,147,57,1,onethree,,,,,,,,,,,,,,,,,,,,,,,,,,,,,,,,,,,,,,,,,,,,,,,,,,,,,,,,,,,,,,,,,,,,,,,,,,,,,,,,,,,,,,,,,,,,,,,,,,,,,,,,,,,,,,,,,,,,,,,,,,,,,,,,,,,,,,,,,,,,,,,,,,,,,,,,,,,,,
,,,,,,616d22471eeb54d1b98db03c,62c53a2cb92f20b2d77b8cd9,2022-07-06_09h32.01.124,Colour_Asymmetry_Pilot,2022.1.3,Win32,59.98080614,62c50e9c1127f2cd403a315f,0,148,148,154,1,twoone,,,,,,,,,,,,,,,,,,,,,,,,,,,,,,,,,,,,,,,,,,,,,,,,,,,,,,,,,,,,,,,,,,,,,,,,,,,,,,,,,,,,,,,,,,,,,,,,,,,,,,,,,,,,,,,,,,,,,,,,,,,,,,,,,,,,,,,,,,,,,,,,,,,,,,,,,,,,,
,,,,,,616d22471eeb54d1b98db03c,62c53a2cb92f20b2d77b8cd9,2022-07-06_09h32.01.124,Colour_Asymmetry_Pilot,2022.1.3,Win32,59.98080614,62c50e9c1127f2cd403a315f,0,149,149,7,1,fourthree,,,,,,,,,,,,,,,,,,,,,,,,,,,,,,,,,,,,,,,,,,,,,,,,,,,,,,,,,,,,,,,,,,,,,,,,,,,,,,,,,,,,,,,,,,,,,,,,,,,,,,,,,,,,,,,,,,,,,,,,,,,,,,,,,,,,,,,,,,,,,,,,,,,,,,,,,,,,,
,,,,,,616d22471eeb54d1b98db03c,62c53a2cb92f20b2d77b8cd9,2022-07-06_09h32.01.124,Colour_Asymmetry_Pilot,2022.1.3,Win32,59.98080614,62c50e9c1127f2cd403a315f,0,150,150,84,1,threeone,,,,,,,,,,,,,,,,,,,,,,,,,,,,,,,,,,,,,,,,,,,,,,,,,,,,,,,,,,,,,,,,,,,,,,,,,,,,,,,,,,,,,,,,,,,,,,,,,,,,,,,,,,,,,,,,,,,,,,,,,,,,,,,,,,,,,,,,,,,,,,,,,,,,,,,,,,,,,
,,,,,,616d22471eeb54d1b98db03c,62c53a2cb92f20b2d77b8cd9,2022-07-06_09h32.01.124,Colour_Asymmetry_Pilot,2022.1.3,Win32,59.98080614,62c50e9c1127f2cd403a315f,0,151,151,106,1,twoone,,,,,,,,,,,,,,,,,,,,,,,,,,,,,,,,,,,,,,,,,,,,,,,,,,,,,,,,,,,,,,,,,,,,,,,,,,,,,,,,,,,,,,,,,,,,,,,,,,,,,,,,,,,,,,,,,,,,,,,,,,,,,,,,,,,,,,,,,,,,,,,,,,,,,,,,,,,,,
,,,,,,616d22471eeb54d1b98db03c,62c53a2cb92f20b2d77b8cd9,2022-07-06_09h32.01.124,Colour_Asymmetry_Pilot,2022.1.3,Win32,59.98080614,62c50e9c1127f2cd403a315f,0,152,152,18,1,twoone,,,,,,,,,,,,,,,,,,,,,,,,,,,,,,,,,,,,,,,,,,,,,,,,,,,,,,,,,,,,,,,,,,,,,,,,,,,,,,,,,,,,,,,,,,,,,,,,,,,,,,,,,,,,,,,,,,,,,,,,,,,,,,,,,,,,,,,,,,,,,,,,,,,,,,,,,,,,,
,,,,,,616d22471eeb54d1b98db03c,62c53a2cb92f20b2d77b8cd9,2022-07-06_09h32.01.124,Colour_Asymmetry_Pilot,2022.1.3,Win32,59.98080614,62c50e9c1127f2cd403a315f,0,153,153,48,1,onetwo,,,,,,,,,,,,,,,,,,,,,,,,,,,,,,,,,,,,,,,,,,,,,,,,,,,,,,,,,,,,,,,,,,,,,,,,,,,,,,,,,,,,,,,,,,,,,,,,,,,,,,,,,,,,,,,,,,,,,,,,,,,,,,,,,,,,,,,,,,,,,,,,,,,,,,,,,,,,,
,,,,,,616d22471eeb54d1b98db03c,62c53a2cb92f20b2d77b8cd9,2022-07-06_09h32.01.124,Colour_Asymmetry_Pilot,2022.1.3,Win32,59.98080614,62c50e9c1127f2cd403a315f,0,154,154,60,1,threeone,,,,,,,,,,,,,,,,,,,,,,,,,,,,,,,,,,,,,,,,,,,,,,,,,,,,,,,,,,,,,,,,,,,,,,,,,,,,,,,,,,,,,,,,,,,,,,,,,,,,,,,,,,,,,,,,,,,,,,,,,,,,,,,,,,,,,,,,,,,,,,,,,,,,,,,,,,,,,
,,,,,,616d22471eeb54d1b98db03c,62c53a2cb92f20b2d77b8cd9,2022-07-06_09h32.01.124,Colour_Asymmetry_Pilot,2022.1.3,Win32,59.98080614,62c50e9c1127f2cd403a315f,0,155,155,139,1,twofour,,,,,,,,,,,,,,,,,,,,,,,,,,,,,,,,,,,,,,,,,,,,,,,,,,,,,,,,,,,,,,,,,,,,,,,,,,,,,,,,,,,,,,,,,,,,,,,,,,,,,,,,,,,,,,,,,,,,,,,,,,,,,,,,,,,,,,,,,,,,,,,,,,,,,,,,,,,,,
,,,,,,616d22471eeb54d1b98db03c,62c53a2cb92f20b2d77b8cd9,2022-07-06_09h32.01.124,Colour_Asymmetry_Pilot,2022.1.3,Win32,59.98080614,62c50e9c1127f2cd403a315f,0,156,156,113,1,onethree,,,,,,,,,,,,,,,,,,,,,,,,,,,,,,,,,,,,,,,,,,,,,,,,,,,,,,,,,,,,,,,,,,,,,,,,,,,,,,,,,,,,,,,,,,,,,,,,,,,,,,,,,,,,,,,,,,,,,,,,,,,,,,,,,,,,,,,,,,,,,,,,,,,,,,,,,,,,,
,,,,,,616d22471eeb54d1b98db03c,62c53a2cb92f20b2d77b8cd9,2022-07-06_09h32.01.124,Colour_Asymmetry_Pilot,2022.1.3,Win32,59.98080614,62c50e9c1127f2cd403a315f,0,157,157,17,1,onethree,,,,,,,,,,,,,,,,,,,,,,,,,,,,,,,,,,,,,,,,,,,,,,,,,,,,,,,,,,,,,,,,,,,,,,,,,,,,,,,,,,,,,,,,,,,,,,,,,,,,,,,,,,,,,,,,,,,,,,,,,,,,,,,,,,,,,,,,,,,,,,,,,,,,,,,,,,,,,
,,,,,,616d22471eeb54d1b98db03c,62c53a2cb92f20b2d77b8cd9,2022-07-06_09h32.01.124,Colour_Asymmetry_Pilot,2022.1.3,Win32,59.98080614,62c50e9c1127f2cd403a315f,0,158,158,98,1,twoone,,,,,,,,,,,,,,,,,,,,,,,,,,,,,,,,,,,,,,,,,,,,,,,,,,,,,,,,,,,,,,,,,,,,,,,,,,,,,,,,,,,,,,,,,,,,,,,,,,,,,,,,,,,,,,,,,,,,,,,,,,,,,,,,,,,,,,,,,,,,,,,,,,,,,,,,,,,,,
,,,,,,616d22471eeb54d1b98db03c,62c53a2cb92f20b2d77b8cd9,2022-07-06_09h32.01.124,Colour_Asymmetry_Pilot,2022.1.3,Win32,59.98080614,62c50e9c1127f2cd403a315f,0,159,159,54,1,fourtwo,,,,,,,,,,,,,,,,,,,,,,,,,,,,,,,,,,,,,,,,,,,,,,,,,,,,,,,,,,,,,,,,,,,,,,,,,,,,,,,,,,,,,,,,,,,,,,,,,,,,,,,,,,,,,,,,,,,,,,,,,,,,,,,,,,,,,,,,,,,,,,,,,,,,,,,,,,,,,
,,,,,,616d22471eeb54d1b98db03c,62c53a2cb92f20b2d77b8cd9,2022-07-06_09h32.01.124,Colour_Asymmetry_Pilot,2022.1.3,Win32,59.98080614,62c50e9c1127f2cd403a315f,0,160,160,128,1,onetwo,,,,,,,,,,,,,,,,,,,,,,,,,,,,,,,,,,,,,,,,,,,,,,,,,,,,,,,,,,,,,,,,,,,,,,,,,,,,,,,,,,,,,,,,,,,,,,,,,,,,,,,,,,,,,,,,,,,,,,,,,,,,,,,,,,,,,,,,,,,,,,,,,,,,,,,,,,,,,
,,,,,,616d22471eeb54d1b98db03c,62c53a2cb92f20b2d77b8cd9,2022-07-06_09h32.01.124,Colour_Asymmetry_Pilot,2022.1.3,Win32,59.98080614,62c50e9c1127f2cd403a315f,0,161,161,53,1,threefour,,,,,,,,,,,,,,,,,,,,,,,,,,,,,,,,,,,,,,,,,,,,,,,,,,,,,,,,,,,,,,,,,,,,,,,,,,,,,,,,,,,,,,,,,,,,,,,,,,,,,,,,,,,,,,,,,,,,,,,,,,,,,,,,,,,,,,,,,,,,,,,,,,,,,,,,,,,,,
,,,,,,616d22471eeb54d1b98db03c,62c53a2cb92f20b2d77b8cd9,2022-07-06_09h32.01.124,Colour_Asymmetry_Pilot,2022.1.3,Win32,59.98080614,62c50e9c1127f2cd403a315f,,,,,,,space,31.0442,space,167.8393,space,89.8983,space,20.5352,space,2.4584,space,4.6018,"[-0.4902000000000001,0.2704,-0.45899999999999996]",threeone,"[-0.8118,-0.8198,-0.5452]",4,13.7754,76,95,1,0,0,response1disk_5,-2,-1,1,0,0,rectangle_8,-2,-1,1,0,0,3,-2,-1,1,0,0,0,0,0,0,1,,,,,,,,,,,,,,,,,,,,,,,,,,,,,,,,,,,,,,,,,,,,,,,,,,,,,,,,,,,,,,,,,,,,,,,,,,,,,,,,,,,,,,,,,,,,,,,,,,,,,,,,,,,,,,,,
,,,,,,616d22471eeb54d1b98db03c,62c53a2cb92f20b2d77b8cd9,2022-07-06_09h32.01.124,Colour_Asymmetry_Pilot,2022.1.3,Win32,59.98080614,62c50e9c1127f2cd403a315f,,,,,,,,,,,,,,,,,,,"[0.05879999999999996,0.2784,0.5841999999999998]",fourtwo,"[-0.8198,-0.5138,-0.7492000000000001]",-2,5.6498,-104,-102,1,0,0,response5disk_5,-5,-3,1,0,0,rectangle_8,-5,-3,1,0,0,3,-5,-3,1,0,0,1,0,1,0,1,,,,,,,,,,,,,,,,,,,,,,,,,,,,,,,,,,,,,,,,,,,,,,,,,,,,,,,,,,,,,,,,,,,,,,,,,,,,,,,,,,,,,,,,,,,,,,,,,,,,,,,,,,,,,,,,
,,,,,,616d22471eeb54d1b98db03c,62c53a2cb92f20b2d77b8cd9,2022-07-06_09h32.01.124,Colour_Asymmetry_Pilot,2022.1.3,Win32,59.98080614,62c50e9c1127f2cd403a315f,,,,,,,,,,,,,,,,,,,"[-0.9216,-0.5529999999999999,-0.3962]",threeone,"[0.6547999999999998,-0.043199999999999905,-0.011800000000000033]",-4,2.5502,-74,98,1,0,0,response7disk_5,16,6,1,0,0,rectangle_8,101,52,1,0,0,3,-8,1,1,0,0,2,0,2,0,1,response1disk_7,6,rectangle_4,,,,,,,,,,,,,,,,,,,,,,,,,,,,,,,,,,,,,,,,,,,,,,,,,,,,,,,,,,,,,,,,,,,,,,,,,,,,,,,,,,,,,,,,,,,,,,,,,,,,,,,,,,,,,
,,,,,,616d22471eeb54d1b98db03c,62c53a2cb92f20b2d77b8cd9,2022-07-06_09h32.01.124,Colour_Asymmetry_Pilot,2022.1.3,Win32,59.98080614,62c50e9c1127f2cd403a315f,,,,,,,,,,,,,,,,,,,"[-0.48240000000000005,0.3175999999999999,0.2156]",twofour,"[-0.9216,-0.5529999999999999,-0.3962]",2,1.6332,111,-70,1,0,0,response3disk_5,2,6,1,0,0,rectangle_8,2,6,1,0,0,3,2,6,1,0,0,3,0,3,0,1,,,,,,,,,,,,,,,,,,,,,,,,,,,,,,,,,,,,,,,,,,,,,,,,,,,,,,,,,,,,,,,,,,,,,,,,,,,,,,,,,,,,,,,,,,,,,,,,,,,,,,,,,,,,,,,,
,,,,,,616d22471eeb54d1b98db03c,62c53a2cb92f20b2d77b8cd9,2022-07-06_09h32.01.124,Colour_Asymmetry_Pilot,2022.1.3,Win32,59.98080614,62c50e9c1127f2cd403a315f,,,,,,,,,,,,,,,,,,,"[0.8274000000000001,-0.5844,-0.9452]",fourtwo,"[-0.24719999999999998,-0.0354000000000001,0.3175999999999999]",-3,1.4333,-84,62,1,0,0,response7disk_5,3,4,1,0,0,rectangle_8,112,54,1,0,0,3,-3,-7,1,0,0,4,0,4,0,1,response1disk_7,6,rectangle_4,,,,,,,,,,,,,,,,,,,,,,,,,,,,,,,,,,,,,,,,,,,,,,,,,,,,,,,,,,,,,,,,,,,,,,,,,,,,,,,,,,,,,,,,,,,,,,,,,,,,,,,,,,,,,
,,,,,,616d22471eeb54d1b98db03c,62c53a2cb92f20b2d77b8cd9,2022-07-06_09h32.01.124,Colour_Asymmetry_Pilot,2022.1.3,Win32,59.98080614,62c50e9c1127f2cd403a315f,,,,,,,,,,,,,,,,,,,"[0.37240000000000006,0.4980000000000002,-0.2864]",threefour,"[-0.5922000000000001,-0.7492000000000001,-0.5296000000000001]",-1,1.2336,-50,-92,1,0,0,response5disk_5,13,13,1,0,0,rectangle_8,13,13,1,0,0,3,13,13,1,0,0,5,0,5,0,1,,,,,,,,,,,,,,,,,,,,,,,,,,,,,,,,,,,,,,,,,,,,,,,,,,,,,,,,,,,,,,,,,,,,,,,,,,,,,,,,,,,,,,,,,,,,,,,,,,,,,,,,,,,,,,,,
,,,,,,616d22471eeb54d1b98db03c,62c53a2cb92f20b2d77b8cd9,2022-07-06_09h32.01.124,Colour_Asymmetry_Pilot,2022.1.3,Win32,59.98080614,62c50e9c1127f2cd403a315f,,,,,,,,,,,,,,,,,,,"[-0.26280000000000003,-0.4746,-0.2158]",onetwo,"[-0.4276,0.0038000000000000256,-0.3256]",-3,1.6166,-94,50,1,0,0,response7disk_5,-8,6,1,0,0,rectangle_8,-8,6,1,0,0,3,-8,6,1,0,0,6,0,6,0,1,,,,,,,,,,,,,,,,,,,,,,,,,,,,,,,,,,,,,,,,,,,,,,,,,,,,,,,,,,,,,,,,,,,,,,,,,,,,,,,,,,,,,,,,,,,,,,,,,,,,,,,,,,,,,,,,
,,,,,,616d22471eeb54d1b98db03c,62c53a2cb92f20b2d77b8cd9,2022-07-06_09h32.01.124,Colour_Asymmetry_Pilot,2022.1.3,Win32,59.98080614,62c50e9c1127f2cd403a315f,,,,,,,,,,,,,,,,,,,,onetwo,,3,0.8002,,,,,,,,,,,,,,,,,,,,,,,,,,,,,,,,space,4.5245,"[-0.17659999999999998,-0.2864,-0.8354]","[0.04299999999999993,0.16060000000000008,-0.6628000000000001]",97,78,1,0,0,response1disk,-21,-1,1,0,0,rectangle,-21,-1,1,0,0,,1,0.0021,0,-21,-1,1,0,0,0,0,0,95,1,14,second,,,,,,,,,,,,,,,,,,,,,,,,,,,,,,,,,,,,,,,,,,,,,,,,,,,,,,,,,,,,,,,,,,,,,,,,
,,,,,,616d22471eeb54d1b98db03c,62c53a2cb92f20b2d77b8cd9,2022-07-06_09h32.01.124,Colour_Asymmetry_Pilot,2022.1.3,Win32,59.98080614,62c50e9c1127f2cd403a315f,,,,,,,,,,,,,,,,,,,,fourthree,,-2,0.9,,,,,,,,,,,,,,,,,,,,,,,,,,,,,,,,,,"[0.9842,0.7409999999999999,-0.6628000000000001]","[-0.24719999999999998,0.5213999999999999,-0.12959999999999994]",-77,-66,1,0,0,response5disk,16,10,1,0,0,rectangle,16,10,1,0,0,,2,0.0005,0,16,10,1,0,0,0,1,1,77,1,77,first,,,,,,,,,,,,,,,,,,,,,,,,,,,,,,,,,,,,,,,,,,,,,,,,,,,,,,,,,,,,,,,,,,,,,,,,
,,,,,,616d22471eeb54d1b98db03c,62c53a2cb92f20b2d77b8cd9,2022-07-06_09h32.01.124,Colour_Asymmetry_Pilot,2022.1.3,Win32,59.98080614,62c50e9c1127f2cd403a315f,,,,,,,,,,,,,,,,,,,,onethree,,-2,0.9832,,,,,,,,,,,,,,,,,,,,,,,,,,,,,,,,,,"[0.9763999999999999,-0.1137999999999999,-0.6314]","[0.7018,0.7802,-0.16079999999999994]",-94,-86,1,0,0,response5disk,8,-4,1,0,0,rectangle,8,-4,1,0,0,,1,0.0005,0,8,-4,1,0,0,0,2,2,106,1,25,second,,,,,,,,,,,,,,,,,,,,,,,,,,,,,,,,,,,,,,,,,,,,,,,,,,,,,,,,,,,,,,,,,,,,,,,,
,,,,,,616d22471eeb54d1b98db03c,62c53a2cb92f20b2d77b8cd9,2022-07-06_09h32.01.124,Colour_Asymmetry_Pilot,2022.1.3,Win32,59.98080614,62c50e9c1127f2cd403a315f,,,,,,,,,,,,,,,,,,,,fourthree,,4,1.0332,,,,,,,,,,,,,,,,,,,,,,,,,,,,,,,,,,"[0.7802,-0.23140000000000005,-0.20799999999999996]","[0.9763999999999999,-0.1137999999999999,-0.6314]",42,98,1,0,0,response1disk,-11,2,1,0,0,rectangle,-11,2,1,0,0,,2,0.0006,0,-11,2,1,0,0,0,3,3,15,1,15,first,,,,,,,,,,,,,,,,,,,,,,,,,,,,,,,,,,,,,,,,,,,,,,,,,,,,,,,,,,,,,,,,,,,,,,,,
,,,,,,616d22471eeb54d1b98db03c,62c53a2cb92f20b2d77b8cd9,2022-07-06_09h32.01.124,Colour_Asymmetry_Pilot,2022.1.3,Win32,59.98080614,62c50e9c1127f2cd403a315f,,,,,,,,,,,,,,,,,,,,onethree,,2,1.8995,,,,,,,,,,,,,,,,,,,,,,,,,,,,,,,,,,"[0.30180000000000007,-0.7884,-0.9844]","[-0.011800000000000033,-0.906,-0.45100000000000007]",82,-73,1,0,0,response3disk,-9,10,1,0,0,rectangle,-9,10,1,0,0,,2,0,0,-9,10,1,0,0,0,4,4,73,1,73,first,,,,,,,,,,,,,,,,,,,,,,,,,,,,,,,,,,,,,,,,,,,,,,,,,,,,,,,,,,,,,,,,,,,,,,,,
,,,,,,616d22471eeb54d1b98db03c,62c53a2cb92f20b2d77b8cd9,2022-07-06_09h32.01.124,Colour_Asymmetry_Pilot,2022.1.3,Win32,59.98080614,62c50e9c1127f2cd403a315f,,,,,,,,,,,,,,,,,,,,twoone,,-4,0.6501,,,,,,,,,,,,,,,,,,,,,,,,,,,,,,,,,,"[-0.9844,-0.9688,-0.9922]","[0.12939999999999996,-0.2864,0.3253999999999999]",-68,68,1,0,0,response7disk,2,2,1,0,0,rectangle,2,2,1,0,0,,2,9.99999E-05,0,2,2,1,0,0,0,5,5,140,1,59,second,,,,,,,,,,,,,,,,,,,,,,,,,,,,,,,,,,,,,,,,,,,,,,,,,,,,,,,,,,,,,,,,,,,,,,,,
,,,,,,616d22471eeb54d1b98db03c,62c53a2cb92f20b2d77b8cd9,2022-07-06_09h32.01.124,Colour_Asymmetry_Pilot,2022.1.3,Win32,59.98080614,62c50e9c1127f2cd403a315f,,,,,,,,,,,,,,,,,,,,fourthree,,1,1.2666,,,,,,,,,,,,,,,,,,,,,,,,,,,,,,,,,,"[0.9763999999999999,-0.1137999999999999,-0.6314]","[0.9372,0.20779999999999998,0.2704]",48,-69,1,0,0,response3disk,-1,8,1,0,0,rectangle,-1,8,1,0,0,,1,0.0007,0,-1,8,1,0,0,0,6,6,79,1,79,first,,,,,,,,,,,,,,,,,,,,,,,,,,,,,,,,,,,,,,,,,,,,,,,,,,,,,,,,,,,,,,,,,,,,,,,,
,,,,,,616d22471eeb54d1b98db03c,62c53a2cb92f20b2d77b8cd9,2022-07-06_09h32.01.124,Colour_Asymmetry_Pilot,2022.1.3,Win32,59.98080614,62c50e9c1127f2cd403a315f,,,,,,,,,,,,,,,,,,,,fourthree,,-3,0.4501,,,,,,,,,,,,,,,,,,,,,,,,,,,,,,,,,,"[0.6625999999999999,0.4980000000000002,-0.357]","[-0.26280000000000003,-0.2158,-0.3256]",-81,75,1,0,0,response7disk,15,8,1,0,0,rectangle,15,8,1,0,0,,1,0.0001,0,15,8,1,0,0,0,7,7,9,1,9,first,,,,,,,,,,,,,,,,,,,,,,,,,,,,,,,,,,,,,,,,,,,,,,,,,,,,,,,,,,,,,,,,,,,,,,,,
,,,,,,616d22471eeb54d1b98db03c,62c53a2cb92f20b2d77b8cd9,2022-07-06_09h32.01.124,Colour_Asymmetry_Pilot,2022.1.3,Win32,59.98080614,62c50e9c1127f2cd403a315f,,,,,,,,,,,,,,,,,,,,fourtwo,,-4,0.3665,,,,,,,,,,,,,,,,,,,,,,,,,,,,,,,,,,"[0.9763999999999999,0.30979999999999985,-0.6786]","[-0.10599999999999998,-0.10599999999999998,0.5841999999999998]",-65,103,1,0,0,response7disk,20,3,1,0,0,rectangle,20,3,1,0,0,,3,0.0005,0,20,3,1,0,0,0,8,8,142,1,61,second,,,,,,,,,,,,,,,,,,,,,,,,,,,,,,,,,,,,,,,,,,,,,,,,,,,,,,,,,,,,,,,,,,,,,,,,
,,,,,,616d22471eeb54d1b98db03c,62c53a2cb92f20b2d77b8cd9,2022-07-06_09h32.01.124,Colour_Asymmetry_Pilot,2022.1.3,Win32,59.98080614,62c50e9c1127f2cd403a315f,,,,,,,,,,,,,,,,,,,,threeone,,-3,2.6997,,,,,,,,,,,,,,,,,,,,,,,,,,,,,,,,,,"[0.34099999999999997,0.5841999999999998,-0.9844]","[0.9763999999999999,-0.1137999999999999,-0.6314]",-80,70,1,0,0,response7disk,18,-5,1,0,0,rectangle,18,-5,1,0,0,,1,0.0007,0,18,-5,1,0,0,0,9,9,91,1,10,second,,,,,,,,,,,,,,,,,,,,,,,,,,,,,,,,,,,,,,,,,,,,,,,,,,,,,,,,,,,,,,,,,,,,,,,,
,,,,,,616d22471eeb54d1b98db03c,62c53a2cb92f20b2d77b8cd9,2022-07-06_09h32.01.124,Colour_Asymmetry_Pilot,2022.1.3,Win32,59.98080614,62c50e9c1127f2cd403a315f,,,,,,,,,,,,,,,,,,,,threeone,,4,0.5834,,,,,,,,,,,,,,,,,,,,,,,,,,,,,,,,,,"[0.34099999999999997,0.5841999999999998,-0.9844]","[0.34099999999999997,0.5841999999999998,-0.9844]",84,89,1,0,0,response1disk,6,-1,1,0,0,rectangle,6,-1,1,0,0,,1,9.99999E-05,0,6,-1,1,0,0,0,10,10,6,1,6,first,,,,,,,,,,,,,,,,,,,,,,,,,,,,,,,,,,,,,,,,,,,,,,,,,,,,,,,,,,,,,,,,,,,,,,,,
,,,,,,616d22471eeb54d1b98db03c,62c53a2cb92f20b2d77b8cd9,2022-07-06_09h32.01.124,Colour_Asymmetry_Pilot,2022.1.3,Win32,59.98080614,62c50e9c1127f2cd403a315f,,,,,,,,,,,,,,,,,,,,fourthree,,3,1.2166,,,,,,,,,,,,,,,,,,,,,,,,,,,,,,,,,,"[0.0351999999999999,0.41159999999999997,0.0038000000000000256]","[-0.4276,0.0038000000000000256,-0.3256]",85,62,1,0,0,response1disk,13,5,1,0,0,rectangle,13,5,1,0,0,,3,0.0005,0,13,5,1,0,0,0,11,11,156,1,75,second,,,,,,,,,,,,,,,,,,,,,,,,,,,,,,,,,,,,,,,,,,,,,,,,,,,,,,,,,,,,,,,,,,,,,,,,
,,,,,,616d22471eeb54d1b98db03c,62c53a2cb92f20b2d77b8cd9,2022-07-06_09h32.01.124,Colour_Asymmetry_Pilot,2022.1.3,Win32,59.98080614,62c50e9c1127f2cd403a315f,,,,,,,,,,,,,,,,,,,,threeone,,-3,1.05,,,,,,,,,,,,,,,,,,,,,,,,,,,,,,,,,,"[0.18419999999999992,-0.4276,-0.404]","[-0.9216,-0.5529999999999999,-0.3962]",-107,63,1,0,0,response7disk,20,1,1,0,0,rectangle,20,1,1,0,0,,2,0.0005,0,20,1,1,0,0,0,12,12,94,1,13,second,,,,,,,,,,,,,,,,,,,,,,,,,,,,,,,,,,,,,,,,,,,,,,,,,,,,,,,,,,,,,,,,,,,,,,,,
,,,,,,616d22471eeb54d1b98db03c,62c53a2cb92f20b2d77b8cd9,2022-07-06_09h32.01.124,Colour_Asymmetry_Pilot,2022.1.3,Win32,59.98080614,62c50e9c1127f2cd403a315f,,,,,,,,,,,,,,,,,,,,threeone,,-3,0.5166,,,,,,,,,,,,,,,,,,,,,,,,,,,,,,,,,,"[-0.10599999999999998,-0.15300000000000002,0.15280000000000005]","[-0.26280000000000003,-0.2158,-0.3256]",-91,65,1,0,0,response7disk,15,5,1,0,0,rectangle,15,5,1,0,0,,1,0.0009,0,15,5,1,0,0,0,13,13,118,1,37,second,,,,,,,,,,,,,,,,,,,,,,,,,,,,,,,,,,,,,,,,,,,,,,,,,,,,,,,,,,,,,,,,,,,,,,,,
,,,,,,616d22471eeb54d1b98db03c,62c53a2cb92f20b2d77b8cd9,2022-07-06_09h32.01.124,Colour_Asymmetry_Pilot,2022.1.3,Win32,59.98080614,62c50e9c1127f2cd403a315f,,,,,,,,,,,,,,,,,,,,threeone,,1,0.4644,,,,,,,,,,,,,,,,,,,,,,,,,,,,,,,,,,"[-0.9296,-0.12959999999999994,-0.043199999999999905]","[-0.9766,-0.6472,0.07440000000000002]",71,-79,1,0,0,response3disk,-10,2,1,0,0,rectangle,-10,2,1,0,0,,3,0.0006,0,-10,2,1,0,0,0,14,14,93,1,12,second,,,,,,,,,,,,,,,,,,,,,,,,,,,,,,,,,,,,,,,,,,,,,,,,,,,,,,,,,,,,,,,,,,,,,,,,
,,,,,,616d22471eeb54d1b98db03c,62c53a2cb92f20b2d77b8cd9,2022-07-06_09h32.01.124,Colour_Asymmetry_Pilot,2022.1.3,Win32,59.98080614,62c50e9c1127f2cd403a315f,,,,,,,,,,,,,,,,,,,,threefour,,2,1.3833,,,,,,,,,,,,,,,,,,,,,,,,,,,,,,,,,,"[-0.7412000000000001,-0.08239999999999992,-0.6864]","[-0.9688,-0.38039999999999996,-0.41979999999999995]",80,-63,1,0,0,response3disk,15,-1,1,0,0,rectangle,15,-1,1,0,0,,1,0.0008,0,15,-1,1,0,0,0,15,15,113,1,32,second,,,,,,,,,,,,,,,,,,,,,,,,,,,,,,,,,,,,,,,,,,,,,,,,,,,,,,,,,,,,,,,,,,,,,,,,
,,,,,,616d22471eeb54d1b98db03c,62c53a2cb92f20b2d77b8cd9,2022-07-06_09h32.01.124,Colour_Asymmetry_Pilot,2022.1.3,Win32,59.98080614,62c50e9c1127f2cd403a315f,,,,,,,,,,,,,,,,,,,,fourthree,,-3,0.3664,,,,,,,,,,,,,,,,,,,,,,,,,,,,,,,,,,"[-0.24719999999999998,0.5213999999999999,-0.12959999999999994]","[-0.20799999999999996,-0.655,-0.01980000000000004]",-83,45,1,0,0,response7disk,28,4,1,0,0,rectangle,28,4,1,0,0,,2,0.0027,0,28,4,1,0,0,0,16,16,122,1,41,second,,,,,,,,,,,,,,,,,,,,,,,,,,,,,,,,,,,,,,,,,,,,,,,,,,,,,,,,,,,,,,,,,,,,,,,,
,,,,,,616d22471eeb54d1b98db03c,62c53a2cb92f20b2d77b8cd9,2022-07-06_09h32.01.124,Colour_Asymmetry_Pilot,2022.1.3,Win32,59.98080614,62c50e9c1127f2cd403a315f,,,,,,,,,,,,,,,,,,,,threeone,,-1,1.0663,,,,,,,,,,,,,,,,,,,,,,,,,,,,,,,,,,"[-0.4982,-0.2942,-0.0354000000000001]","[0.11359999999999992,0.6312,0.5213999999999999]",-57,-62,1,0,0,response5disk,23,1,1,0,0,rectangle,23,1,1,0,0,,3,0.0004,0,23,1,1,0,0,0,17,17,5,1,5,first,,,,,,,,,,,,,,,,,,,,,,,,,,,,,,,,,,,,,,,,,,,,,,,,,,,,,,,,,,,,,,,,,,,,,,,,
