trials.thisRepN,trials.thisTrialN,trials.thisN,trials.thisIndex,trials.ran,Colourcodes,participant,session,date,expName,psychopyVersion,OS,frameRate,study_id,trials_4.thisRepN,trials_4.thisTrialN,trials_4.thisN,trials_4.thisIndex,trials_4.ran,StimulusPos,key_resp.keys,key_resp.rt,key_resp_2.keys,key_resp_2.rt,key_resp_15.keys,key_resp_15.rt,key_resp_17.keys,key_resp_17.rt,key_resp_9.keys,key_resp_9.rt,key_resp_10.keys,key_resp_10.rt,Circle1_col,Ecc,Circle2_col,similarity,response_time,mouse_5.x,mouse_5.y,mouse_5.leftButton,mouse_5.midButton,mouse_5.rightButton,mouse_5.clicked_name,mouse_10.x,mouse_10.y,mouse_10.leftButton,mouse_10.midButton,mouse_10.rightButton,mouse_10.clicked_name,mouse_7.x,mouse_7.y,mouse_7.leftButton,mouse_7.midButton,mouse_7.rightButton,catchnumberprac,mouse_6.x,mouse_6.y,mouse_6.leftButton,mouse_6.midButton,mouse_6.rightButton,duringprac.thisRepN,duringprac.thisTrialN,duringprac.thisN,duringprac.thisIndex,duringprac.ran,mouse_7.clicked_name,catchprac,mouse_6.clicked_name,key_resp_22.keys,key_resp_22.rt,Circle1_colour,Circle2_colour,mouse.x,mouse.y,mouse.leftButton,mouse.midButton,mouse.rightButton,mouse.clicked_name,mouse_2.x,mouse_2.y,mouse_2.leftButton,mouse_2.midButton,mouse_2.rightButton,mouse_2.clicked_name,mouse_3.x,mouse_3.y,mouse_3.leftButton,mouse_3.midButton,mouse_3.rightButton,catchresponse,catchnumber,response_time_catch,Catch,mouse_11.x,mouse_11.y,mouse_11.leftButton,mouse_11.midButton,mouse_11.rightButton,trials_2.thisRepN,trials_2.thisTrialN,trials_2.thisN,trials_2.thisIndex,trials_2.ran,Colourpair,Temporder,mouse_3.clicked_name,mouse_11.clicked_name,trials_3.thisRepN,trials_3.thisTrialN,trials_3.thisN,trials_3.thisIndex,trials_3.ran,key_resp_instr_Ishi.keys,key_resp_instr_Ishi.rt,Ishi_trial_keyresp.keys,Ishi_textbox.text,Ishi_mouse.x,Ishi_mouse.y,Ishi_mouse.leftButton,Ishi_mouse.midButton,Ishi_mouse.rightButton,Ishi_mouse.clicked_name,Ishi_loop.thisRepN,Ishi_loop.thisTrialN,Ishi_loop.thisN,Ishi_loop.thisIndex,Ishi_loop.ran,imageaddress,textbox.text,mouse_4.x,mouse_4.y,mouse_4.leftButton,mouse_4.midButton,mouse_4.rightButton,mouse_4.clicked_name,textbox_2.text,mouse_8.x,mouse_8.y,mouse_8.leftButton,mouse_8.midButton,mouse_8.rightButton,mouse_8.clicked_name,textbox_3.text,mouse_9.x,mouse_9.y,mouse_9.leftButton,mouse_9.midButton,mouse_9.rightButton,mouse_9.clicked_name,textbox_4.text,mouse_12.x,mouse_12.y,mouse_12.leftButton,mouse_12.midButton,mouse_12.rightButton,mouse_12.clicked_name,textbox_5.text,mouse_13.x,mouse_13.y,mouse_13.leftButton,mouse_13.midButton,mouse_13.rightButton,mouse_13.clicked_name,textbox_6.text,mouse_14.x,mouse_14.y,mouse_14.leftButton,mouse_14.midButton,mouse_14.rightButton,mouse_14.clicked_name,textbox_7.text,mouse_15.x,mouse_15.y,mouse_15.leftButton,mouse_15.midButton,mouse_15.rightButton,mouse_15.clicked_name
0,0,0,65,1,,61372036e1916464a6165cf6,62c53a84b2daef25d43cd7ff,2022-07-06_09h32.53.305,Colour_Asymmetry_Pilot,2022.1.3,Win32,60.87538808,62c50e9c1127f2cd403a315f,,,,,,,,,,,,,,,,,,,,,,,,,,,,,,,,,,,,,,,,,,,,,,,,,,,,,,,,,,,,,,,,,,,,,,,,,,,,,,,,,,,,,,,,,,,,,,,,,,,,,,,,,,,,,,,,,,,,,,,,,,,,,,,,,,,,,,,,,,,,,,,,,,,,,,,,,,,,,,,,,,,
0,1,1,36,1,,61372036e1916464a6165cf6,62c53a84b2daef25d43cd7ff,2022-07-06_09h32.53.305,Colour_Asymmetry_Pilot,2022.1.3,Win32,60.87538808,62c50e9c1127f2cd403a315f,,,,,,,,,,,,,,,,,,,,,,,,,,,,,,,,,,,,,,,,,,,,,,,,,,,,,,,,,,,,,,,,,,,,,,,,,,,,,,,,,,,,,,,,,,,,,,,,,,,,,,,,,,,,,,,,,,,,,,,,,,,,,,,,,,,,,,,,,,,,,,,,,,,,,,,,,,,,,,,,,,,
0,2,2,48,1,,61372036e1916464a6165cf6,62c53a84b2daef25d43cd7ff,2022-07-06_09h32.53.305,Colour_Asymmetry_Pilot,2022.1.3,Win32,60.87538808,62c50e9c1127f2cd403a315f,,,,,,,,,,,,,,,,,,,,,,,,,,,,,,,,,,,,,,,,,,,,,,,,,,,,,,,,,,,,,,,,,,,,,,,,,,,,,,,,,,,,,,,,,,,,,,,,,,,,,,,,,,,,,,,,,,,,,,,,,,,,,,,,,,,,,,,,,,,,,,,,,,,,,,,,,,,,,,,,,,,
0,3,3,49,1,,61372036e1916464a6165cf6,62c53a84b2daef25d43cd7ff,2022-07-06_09h32.53.305,Colour_Asymmetry_Pilot,2022.1.3,Win32,60.87538808,62c50e9c1127f2cd403a315f,,,,,,,,,,,,,,,,,,,,,,,,,,,,,,,,,,,,,,,,,,,,,,,,,,,,,,,,,,,,,,,,,,,,,,,,,,,,,,,,,,,,,,,,,,,,,,,,,,,,,,,,,,,,,,,,,,,,,,,,,,,,,,,,,,,,,,,,,,,,,,,,,,,,,,,,,,,,,,,,,,,
0,4,4,35,1,,61372036e1916464a6165cf6,62c53a84b2daef25d43cd7ff,2022-07-06_09h32.53.305,Colour_Asymmetry_Pilot,2022.1.3,Win32,60.87538808,62c50e9c1127f2cd403a315f,,,,,,,,,,,,,,,,,,,,,,,,,,,,,,,,,,,,,,,,,,,,,,,,,,,,,,,,,,,,,,,,,,,,,,,,,,,,,,,,,,,,,,,,,,,,,,,,,,,,,,,,,,,,,,,,,,,,,,,,,,,,,,,,,,,,,,,,,,,,,,,,,,,,,,,,,,,,,,,,,,,
0,5,5,55,1,,61372036e1916464a6165cf6,62c53a84b2daef25d43cd7ff,2022-07-06_09h32.53.305,Colour_Asymmetry_Pilot,2022.1.3,Win32,60.87538808,62c50e9c1127f2cd403a315f,,,,,,,,,,,,,,,,,,,,,,,,,,,,,,,,,,,,,,,,,,,,,,,,,,,,,,,,,,,,,,,,,,,,,,,,,,,,,,,,,,,,,,,,,,,,,,,,,,,,,,,,,,,,,,,,,,,,,,,,,,,,,,,,,,,,,,,,,,,,,,,,,,,,,,,,,,,,,,,,,,,
0,6,6,33,1,,61372036e1916464a6165cf6,62c53a84b2daef25d43cd7ff,2022-07-06_09h32.53.305,Colour_Asymmetry_Pilot,2022.1.3,Win32,60.87538808,62c50e9c1127f2cd403a315f,,,,,,,,,,,,,,,,,,,,,,,,,,,,,,,,,,,,,,,,,,,,,,,,,,,,,,,,,,,,,,,,,,,,,,,,,,,,,,,,,,,,,,,,,,,,,,,,,,,,,,,,,,,,,,,,,,,,,,,,,,,,,,,,,,,,,,,,,,,,,,,,,,,,,,,,,,,,,,,,,,,
0,7,7,88,1,,61372036e1916464a6165cf6,62c53a84b2daef25d43cd7ff,2022-07-06_09h32.53.305,Colour_Asymmetry_Pilot,2022.1.3,Win32,60.87538808,62c50e9c1127f2cd403a315f,,,,,,,,,,,,,,,,,,,,,,,,,,,,,,,,,,,,,,,,,,,,,,,,,,,,,,,,,,,,,,,,,,,,,,,,,,,,,,,,,,,,,,,,,,,,,,,,,,,,,,,,,,,,,,,,,,,,,,,,,,,,,,,,,,,,,,,,,,,,,,,,,,,,,,,,,,,,,,,,,,,
0,8,8,15,1,,61372036e1916464a6165cf6,62c53a84b2daef25d43cd7ff,2022-07-06_09h32.53.305,Colour_Asymmetry_Pilot,2022.1.3,Win32,60.87538808,62c50e9c1127f2cd403a315f,,,,,,,,,,,,,,,,,,,,,,,,,,,,,,,,,,,,,,,,,,,,,,,,,,,,,,,,,,,,,,,,,,,,,,,,,,,,,,,,,,,,,,,,,,,,,,,,,,,,,,,,,,,,,,,,,,,,,,,,,,,,,,,,,,,,,,,,,,,,,,,,,,,,,,,,,,,,,,,,,,,
0,9,9,8,1,,61372036e1916464a6165cf6,62c53a84b2daef25d43cd7ff,2022-07-06_09h32.53.305,Colour_Asymmetry_Pilot,2022.1.3,Win32,60.87538808,62c50e9c1127f2cd403a315f,,,,,,,,,,,,,,,,,,,,,,,,,,,,,,,,,,,,,,,,,,,,,,,,,,,,,,,,,,,,,,,,,,,,,,,,,,,,,,,,,,,,,,,,,,,,,,,,,,,,,,,,,,,,,,,,,,,,,,,,,,,,,,,,,,,,,,,,,,,,,,,,,,,,,,,,,,,,,,,,,,,
0,10,10,6,1,,61372036e1916464a6165cf6,62c53a84b2daef25d43cd7ff,2022-07-06_09h32.53.305,Colour_Asymmetry_Pilot,2022.1.3,Win32,60.87538808,62c50e9c1127f2cd403a315f,,,,,,,,,,,,,,,,,,,,,,,,,,,,,,,,,,,,,,,,,,,,,,,,,,,,,,,,,,,,,,,,,,,,,,,,,,,,,,,,,,,,,,,,,,,,,,,,,,,,,,,,,,,,,,,,,,,,,,,,,,,,,,,,,,,,,,,,,,,,,,,,,,,,,,,,,,,,,,,,,,,
0,11,11,45,1,,61372036e1916464a6165cf6,62c53a84b2daef25d43cd7ff,2022-07-06_09h32.53.305,Colour_Asymmetry_Pilot,2022.1.3,Win32,60.87538808,62c50e9c1127f2cd403a315f,,,,,,,,,,,,,,,,,,,,,,,,,,,,,,,,,,,,,,,,,,,,,,,,,,,,,,,,,,,,,,,,,,,,,,,,,,,,,,,,,,,,,,,,,,,,,,,,,,,,,,,,,,,,,,,,,,,,,,,,,,,,,,,,,,,,,,,,,,,,,,,,,,,,,,,,,,,,,,,,,,,
0,12,12,89,1,,61372036e1916464a6165cf6,62c53a84b2daef25d43cd7ff,2022-07-06_09h32.53.305,Colour_Asymmetry_Pilot,2022.1.3,Win32,60.87538808,62c50e9c1127f2cd403a315f,,,,,,,,,,,,,,,,,,,,,,,,,,,,,,,,,,,,,,,,,,,,,,,,,,,,,,,,,,,,,,,,,,,,,,,,,,,,,,,,,,,,,,,,,,,,,,,,,,,,,,,,,,,,,,,,,,,,,,,,,,,,,,,,,,,,,,,,,,,,,,,,,,,,,,,,,,,,,,,,,,,
0,13,13,47,1,,61372036e1916464a6165cf6,62c53a84b2daef25d43cd7ff,2022-07-06_09h32.53.305,Colour_Asymmetry_Pilot,2022.1.3,Win32,60.87538808,62c50e9c1127f2cd403a315f,,,,,,,,,,,,,,,,,,,,,,,,,,,,,,,,,,,,,,,,,,,,,,,,,,,,,,,,,,,,,,,,,,,,,,,,,,,,,,,,,,,,,,,,,,,,,,,,,,,,,,,,,,,,,,,,,,,,,,,,,,,,,,,,,,,,,,,,,,,,,,,,,,,,,,,,,,,,,,,,,,,
0,14,14,74,1,,61372036e1916464a6165cf6,62c53a84b2daef25d43cd7ff,2022-07-06_09h32.53.305,Colour_Asymmetry_Pilot,2022.1.3,Win32,60.87538808,62c50e9c1127f2cd403a315f,,,,,,,,,,,,,,,,,,,,,,,,,,,,,,,,,,,,,,,,,,,,,,,,,,,,,,,,,,,,,,,,,,,,,,,,,,,,,,,,,,,,,,,,,,,,,,,,,,,,,,,,,,,,,,,,,,,,,,,,,,,,,,,,,,,,,,,,,,,,,,,,,,,,,,,,,,,,,,,,,,,
0,15,15,58,1,,61372036e1916464a6165cf6,62c53a84b2daef25d43cd7ff,2022-07-06_09h32.53.305,Colour_Asymmetry_Pilot,2022.1.3,Win32,60.87538808,62c50e9c1127f2cd403a315f,,,,,,,,,,,,,,,,,,,,,,,,,,,,,,,,,,,,,,,,,,,,,,,,,,,,,,,,,,,,,,,,,,,,,,,,,,,,,,,,,,,,,,,,,,,,,,,,,,,,,,,,,,,,,,,,,,,,,,,,,,,,,,,,,,,,,,,,,,,,,,,,,,,,,,,,,,,,,,,,,,,
0,16,16,11,1,,61372036e1916464a6165cf6,62c53a84b2daef25d43cd7ff,2022-07-06_09h32.53.305,Colour_Asymmetry_Pilot,2022.1.3,Win32,60.87538808,62c50e9c1127f2cd403a315f,,,,,,,,,,,,,,,,,,,,,,,,,,,,,,,,,,,,,,,,,,,,,,,,,,,,,,,,,,,,,,,,,,,,,,,,,,,,,,,,,,,,,,,,,,,,,,,,,,,,,,,,,,,,,,,,,,,,,,,,,,,,,,,,,,,,,,,,,,,,,,,,,,,,,,,,,,,,,,,,,,,
0,17,17,23,1,,61372036e1916464a6165cf6,62c53a84b2daef25d43cd7ff,2022-07-06_09h32.53.305,Colour_Asymmetry_Pilot,2022.1.3,Win32,60.87538808,62c50e9c1127f2cd403a315f,,,,,,,,,,,,,,,,,,,,,,,,,,,,,,,,,,,,,,,,,,,,,,,,,,,,,,,,,,,,,,,,,,,,,,,,,,,,,,,,,,,,,,,,,,,,,,,,,,,,,,,,,,,,,,,,,,,,,,,,,,,,,,,,,,,,,,,,,,,,,,,,,,,,,,,,,,,,,,,,,,,
0,18,18,26,1,,61372036e1916464a6165cf6,62c53a84b2daef25d43cd7ff,2022-07-06_09h32.53.305,Colour_Asymmetry_Pilot,2022.1.3,Win32,60.87538808,62c50e9c1127f2cd403a315f,,,,,,,,,,,,,,,,,,,,,,,,,,,,,,,,,,,,,,,,,,,,,,,,,,,,,,,,,,,,,,,,,,,,,,,,,,,,,,,,,,,,,,,,,,,,,,,,,,,,,,,,,,,,,,,,,,,,,,,,,,,,,,,,,,,,,,,,,,,,,,,,,,,,,,,,,,,,,,,,,,,
0,19,19,22,1,,61372036e1916464a6165cf6,62c53a84b2daef25d43cd7ff,2022-07-06_09h32.53.305,Colour_Asymmetry_Pilot,2022.1.3,Win32,60.87538808,62c50e9c1127f2cd403a315f,,,,,,,,,,,,,,,,,,,,,,,,,,,,,,,,,,,,,,,,,,,,,,,,,,,,,,,,,,,,,,,,,,,,,,,,,,,,,,,,,,,,,,,,,,,,,,,,,,,,,,,,,,,,,,,,,,,,,,,,,,,,,,,,,,,,,,,,,,,,,,,,,,,,,,,,,,,,,,,,,,,
0,20,20,76,1,,61372036e1916464a6165cf6,62c53a84b2daef25d43cd7ff,2022-07-06_09h32.53.305,Colour_Asymmetry_Pilot,2022.1.3,Win32,60.87538808,62c50e9c1127f2cd403a315f,,,,,,,,,,,,,,,,,,,,,,,,,,,,,,,,,,,,,,,,,,,,,,,,,,,,,,,,,,,,,,,,,,,,,,,,,,,,,,,,,,,,,,,,,,,,,,,,,,,,,,,,,,,,,,,,,,,,,,,,,,,,,,,,,,,,,,,,,,,,,,,,,,,,,,,,,,,,,,,,,,,
0,21,21,1,1,,61372036e1916464a6165cf6,62c53a84b2daef25d43cd7ff,2022-07-06_09h32.53.305,Colour_Asymmetry_Pilot,2022.1.3,Win32,60.87538808,62c50e9c1127f2cd403a315f,,,,,,,,,,,,,,,,,,,,,,,,,,,,,,,,,,,,,,,,,,,,,,,,,,,,,,,,,,,,,,,,,,,,,,,,,,,,,,,,,,,,,,,,,,,,,,,,,,,,,,,,,,,,,,,,,,,,,,,,,,,,,,,,,,,,,,,,,,,,,,,,,,,,,,,,,,,,,,,,,,,
0,22,22,75,1,,61372036e1916464a6165cf6,62c53a84b2daef25d43cd7ff,2022-07-06_09h32.53.305,Colour_Asymmetry_Pilot,2022.1.3,Win32,60.87538808,62c50e9c1127f2cd403a315f,,,,,,,,,,,,,,,,,,,,,,,,,,,,,,,,,,,,,,,,,,,,,,,,,,,,,,,,,,,,,,,,,,,,,,,,,,,,,,,,,,,,,,,,,,,,,,,,,,,,,,,,,,,,,,,,,,,,,,,,,,,,,,,,,,,,,,,,,,,,,,,,,,,,,,,,,,,,,,,,,,,
0,23,23,79,1,,61372036e1916464a6165cf6,62c53a84b2daef25d43cd7ff,2022-07-06_09h32.53.305,Colour_Asymmetry_Pilot,2022.1.3,Win32,60.87538808,62c50e9c1127f2cd403a315f,,,,,,,,,,,,,,,,,,,,,,,,,,,,,,,,,,,,,,,,,,,,,,,,,,,,,,,,,,,,,,,,,,,,,,,,,,,,,,,,,,,,,,,,,,,,,,,,,,,,,,,,,,,,,,,,,,,,,,,,,,,,,,,,,,,,,,,,,,,,,,,,,,,,,,,,,,,,,,,,,,,
0,24,24,14,1,,61372036e1916464a6165cf6,62c53a84b2daef25d43cd7ff,2022-07-06_09h32.53.305,Colour_Asymmetry_Pilot,2022.1.3,Win32,60.87538808,62c50e9c1127f2cd403a315f,,,,,,,,,,,,,,,,,,,,,,,,,,,,,,,,,,,,,,,,,,,,,,,,,,,,,,,,,,,,,,,,,,,,,,,,,,,,,,,,,,,,,,,,,,,,,,,,,,,,,,,,,,,,,,,,,,,,,,,,,,,,,,,,,,,,,,,,,,,,,,,,,,,,,,,,,,,,,,,,,,,
0,25,25,43,1,,61372036e1916464a6165cf6,62c53a84b2daef25d43cd7ff,2022-07-06_09h32.53.305,Colour_Asymmetry_Pilot,2022.1.3,Win32,60.87538808,62c50e9c1127f2cd403a315f,,,,,,,,,,,,,,,,,,,,,,,,,,,,,,,,,,,,,,,,,,,,,,,,,,,,,,,,,,,,,,,,,,,,,,,,,,,,,,,,,,,,,,,,,,,,,,,,,,,,,,,,,,,,,,,,,,,,,,,,,,,,,,,,,,,,,,,,,,,,,,,,,,,,,,,,,,,,,,,,,,,
0,26,26,37,1,,61372036e1916464a6165cf6,62c53a84b2daef25d43cd7ff,2022-07-06_09h32.53.305,Colour_Asymmetry_Pilot,2022.1.3,Win32,60.87538808,62c50e9c1127f2cd403a315f,,,,,,,,,,,,,,,,,,,,,,,,,,,,,,,,,,,,,,,,,,,,,,,,,,,,,,,,,,,,,,,,,,,,,,,,,,,,,,,,,,,,,,,,,,,,,,,,,,,,,,,,,,,,,,,,,,,,,,,,,,,,,,,,,,,,,,,,,,,,,,,,,,,,,,,,,,,,,,,,,,,
0,27,27,56,1,,61372036e1916464a6165cf6,62c53a84b2daef25d43cd7ff,2022-07-06_09h32.53.305,Colour_Asymmetry_Pilot,2022.1.3,Win32,60.87538808,62c50e9c1127f2cd403a315f,,,,,,,,,,,,,,,,,,,,,,,,,,,,,,,,,,,,,,,,,,,,,,,,,,,,,,,,,,,,,,,,,,,,,,,,,,,,,,,,,,,,,,,,,,,,,,,,,,,,,,,,,,,,,,,,,,,,,,,,,,,,,,,,,,,,,,,,,,,,,,,,,,,,,,,,,,,,,,,,,,,
0,28,28,16,1,,61372036e1916464a6165cf6,62c53a84b2daef25d43cd7ff,2022-07-06_09h32.53.305,Colour_Asymmetry_Pilot,2022.1.3,Win32,60.87538808,62c50e9c1127f2cd403a315f,,,,,,,,,,,,,,,,,,,,,,,,,,,,,,,,,,,,,,,,,,,,,,,,,,,,,,,,,,,,,,,,,,,,,,,,,,,,,,,,,,,,,,,,,,,,,,,,,,,,,,,,,,,,,,,,,,,,,,,,,,,,,,,,,,,,,,,,,,,,,,,,,,,,,,,,,,,,,,,,,,,
0,29,29,91,1,,61372036e1916464a6165cf6,62c53a84b2daef25d43cd7ff,2022-07-06_09h32.53.305,Colour_Asymmetry_Pilot,2022.1.3,Win32,60.87538808,62c50e9c1127f2cd403a315f,,,,,,,,,,,,,,,,,,,,,,,,,,,,,,,,,,,,,,,,,,,,,,,,,,,,,,,,,,,,,,,,,,,,,,,,,,,,,,,,,,,,,,,,,,,,,,,,,,,,,,,,,,,,,,,,,,,,,,,,,,,,,,,,,,,,,,,,,,,,,,,,,,,,,,,,,,,,,,,,,,,
0,30,30,63,1,,61372036e1916464a6165cf6,62c53a84b2daef25d43cd7ff,2022-07-06_09h32.53.305,Colour_Asymmetry_Pilot,2022.1.3,Win32,60.87538808,62c50e9c1127f2cd403a315f,,,,,,,,,,,,,,,,,,,,,,,,,,,,,,,,,,,,,,,,,,,,,,,,,,,,,,,,,,,,,,,,,,,,,,,,,,,,,,,,,,,,,,,,,,,,,,,,,,,,,,,,,,,,,,,,,,,,,,,,,,,,,,,,,,,,,,,,,,,,,,,,,,,,,,,,,,,,,,,,,,,
0,31,31,69,1,,61372036e1916464a6165cf6,62c53a84b2daef25d43cd7ff,2022-07-06_09h32.53.305,Colour_Asymmetry_Pilot,2022.1.3,Win32,60.87538808,62c50e9c1127f2cd403a315f,,,,,,,,,,,,,,,,,,,,,,,,,,,,,,,,,,,,,,,,,,,,,,,,,,,,,,,,,,,,,,,,,,,,,,,,,,,,,,,,,,,,,,,,,,,,,,,,,,,,,,,,,,,,,,,,,,,,,,,,,,,,,,,,,,,,,,,,,,,,,,,,,,,,,,,,,,,,,,,,,,,
0,32,32,32,1,,61372036e1916464a6165cf6,62c53a84b2daef25d43cd7ff,2022-07-06_09h32.53.305,Colour_Asymmetry_Pilot,2022.1.3,Win32,60.87538808,62c50e9c1127f2cd403a315f,,,,,,,,,,,,,,,,,,,,,,,,,,,,,,,,,,,,,,,,,,,,,,,,,,,,,,,,,,,,,,,,,,,,,,,,,,,,,,,,,,,,,,,,,,,,,,,,,,,,,,,,,,,,,,,,,,,,,,,,,,,,,,,,,,,,,,,,,,,,,,,,,,,,,,,,,,,,,,,,,,,
0,33,33,70,1,,61372036e1916464a6165cf6,62c53a84b2daef25d43cd7ff,2022-07-06_09h32.53.305,Colour_Asymmetry_Pilot,2022.1.3,Win32,60.87538808,62c50e9c1127f2cd403a315f,,,,,,,,,,,,,,,,,,,,,,,,,,,,,,,,,,,,,,,,,,,,,,,,,,,,,,,,,,,,,,,,,,,,,,,,,,,,,,,,,,,,,,,,,,,,,,,,,,,,,,,,,,,,,,,,,,,,,,,,,,,,,,,,,,,,,,,,,,,,,,,,,,,,,,,,,,,,,,,,,,,
0,34,34,38,1,,61372036e1916464a6165cf6,62c53a84b2daef25d43cd7ff,2022-07-06_09h32.53.305,Colour_Asymmetry_Pilot,2022.1.3,Win32,60.87538808,62c50e9c1127f2cd403a315f,,,,,,,,,,,,,,,,,,,,,,,,,,,,,,,,,,,,,,,,,,,,,,,,,,,,,,,,,,,,,,,,,,,,,,,,,,,,,,,,,,,,,,,,,,,,,,,,,,,,,,,,,,,,,,,,,,,,,,,,,,,,,,,,,,,,,,,,,,,,,,,,,,,,,,,,,,,,,,,,,,,
0,35,35,40,1,,61372036e1916464a6165cf6,62c53a84b2daef25d43cd7ff,2022-07-06_09h32.53.305,Colour_Asymmetry_Pilot,2022.1.3,Win32,60.87538808,62c50e9c1127f2cd403a315f,,,,,,,,,,,,,,,,,,,,,,,,,,,,,,,,,,,,,,,,,,,,,,,,,,,,,,,,,,,,,,,,,,,,,,,,,,,,,,,,,,,,,,,,,,,,,,,,,,,,,,,,,,,,,,,,,,,,,,,,,,,,,,,,,,,,,,,,,,,,,,,,,,,,,,,,,,,,,,,,,,,
0,36,36,59,1,,61372036e1916464a6165cf6,62c53a84b2daef25d43cd7ff,2022-07-06_09h32.53.305,Colour_Asymmetry_Pilot,2022.1.3,Win32,60.87538808,62c50e9c1127f2cd403a315f,,,,,,,,,,,,,,,,,,,,,,,,,,,,,,,,,,,,,,,,,,,,,,,,,,,,,,,,,,,,,,,,,,,,,,,,,,,,,,,,,,,,,,,,,,,,,,,,,,,,,,,,,,,,,,,,,,,,,,,,,,,,,,,,,,,,,,,,,,,,,,,,,,,,,,,,,,,,,,,,,,,
0,37,37,46,1,,61372036e1916464a6165cf6,62c53a84b2daef25d43cd7ff,2022-07-06_09h32.53.305,Colour_Asymmetry_Pilot,2022.1.3,Win32,60.87538808,62c50e9c1127f2cd403a315f,,,,,,,,,,,,,,,,,,,,,,,,,,,,,,,,,,,,,,,,,,,,,,,,,,,,,,,,,,,,,,,,,,,,,,,,,,,,,,,,,,,,,,,,,,,,,,,,,,,,,,,,,,,,,,,,,,,,,,,,,,,,,,,,,,,,,,,,,,,,,,,,,,,,,,,,,,,,,,,,,,,
0,38,38,20,1,,61372036e1916464a6165cf6,62c53a84b2daef25d43cd7ff,2022-07-06_09h32.53.305,Colour_Asymmetry_Pilot,2022.1.3,Win32,60.87538808,62c50e9c1127f2cd403a315f,,,,,,,,,,,,,,,,,,,,,,,,,,,,,,,,,,,,,,,,,,,,,,,,,,,,,,,,,,,,,,,,,,,,,,,,,,,,,,,,,,,,,,,,,,,,,,,,,,,,,,,,,,,,,,,,,,,,,,,,,,,,,,,,,,,,,,,,,,,,,,,,,,,,,,,,,,,,,,,,,,,
0,39,39,10,1,,61372036e1916464a6165cf6,62c53a84b2daef25d43cd7ff,2022-07-06_09h32.53.305,Colour_Asymmetry_Pilot,2022.1.3,Win32,60.87538808,62c50e9c1127f2cd403a315f,,,,,,,,,,,,,,,,,,,,,,,,,,,,,,,,,,,,,,,,,,,,,,,,,,,,,,,,,,,,,,,,,,,,,,,,,,,,,,,,,,,,,,,,,,,,,,,,,,,,,,,,,,,,,,,,,,,,,,,,,,,,,,,,,,,,,,,,,,,,,,,,,,,,,,,,,,,,,,,,,,,
0,40,40,41,1,,61372036e1916464a6165cf6,62c53a84b2daef25d43cd7ff,2022-07-06_09h32.53.305,Colour_Asymmetry_Pilot,2022.1.3,Win32,60.87538808,62c50e9c1127f2cd403a315f,,,,,,,,,,,,,,,,,,,,,,,,,,,,,,,,,,,,,,,,,,,,,,,,,,,,,,,,,,,,,,,,,,,,,,,,,,,,,,,,,,,,,,,,,,,,,,,,,,,,,,,,,,,,,,,,,,,,,,,,,,,,,,,,,,,,,,,,,,,,,,,,,,,,,,,,,,,,,,,,,,,
0,41,41,62,1,,61372036e1916464a6165cf6,62c53a84b2daef25d43cd7ff,2022-07-06_09h32.53.305,Colour_Asymmetry_Pilot,2022.1.3,Win32,60.87538808,62c50e9c1127f2cd403a315f,,,,,,,,,,,,,,,,,,,,,,,,,,,,,,,,,,,,,,,,,,,,,,,,,,,,,,,,,,,,,,,,,,,,,,,,,,,,,,,,,,,,,,,,,,,,,,,,,,,,,,,,,,,,,,,,,,,,,,,,,,,,,,,,,,,,,,,,,,,,,,,,,,,,,,,,,,,,,,,,,,,
0,42,42,51,1,,61372036e1916464a6165cf6,62c53a84b2daef25d43cd7ff,2022-07-06_09h32.53.305,Colour_Asymmetry_Pilot,2022.1.3,Win32,60.87538808,62c50e9c1127f2cd403a315f,,,,,,,,,,,,,,,,,,,,,,,,,,,,,,,,,,,,,,,,,,,,,,,,,,,,,,,,,,,,,,,,,,,,,,,,,,,,,,,,,,,,,,,,,,,,,,,,,,,,,,,,,,,,,,,,,,,,,,,,,,,,,,,,,,,,,,,,,,,,,,,,,,,,,,,,,,,,,,,,,,,
0,43,43,68,1,,61372036e1916464a6165cf6,62c53a84b2daef25d43cd7ff,2022-07-06_09h32.53.305,Colour_Asymmetry_Pilot,2022.1.3,Win32,60.87538808,62c50e9c1127f2cd403a315f,,,,,,,,,,,,,,,,,,,,,,,,,,,,,,,,,,,,,,,,,,,,,,,,,,,,,,,,,,,,,,,,,,,,,,,,,,,,,,,,,,,,,,,,,,,,,,,,,,,,,,,,,,,,,,,,,,,,,,,,,,,,,,,,,,,,,,,,,,,,,,,,,,,,,,,,,,,,,,,,,,,
0,44,44,87,1,,61372036e1916464a6165cf6,62c53a84b2daef25d43cd7ff,2022-07-06_09h32.53.305,Colour_Asymmetry_Pilot,2022.1.3,Win32,60.87538808,62c50e9c1127f2cd403a315f,,,,,,,,,,,,,,,,,,,,,,,,,,,,,,,,,,,,,,,,,,,,,,,,,,,,,,,,,,,,,,,,,,,,,,,,,,,,,,,,,,,,,,,,,,,,,,,,,,,,,,,,,,,,,,,,,,,,,,,,,,,,,,,,,,,,,,,,,,,,,,,,,,,,,,,,,,,,,,,,,,,
0,45,45,78,1,,61372036e1916464a6165cf6,62c53a84b2daef25d43cd7ff,2022-07-06_09h32.53.305,Colour_Asymmetry_Pilot,2022.1.3,Win32,60.87538808,62c50e9c1127f2cd403a315f,,,,,,,,,,,,,,,,,,,,,,,,,,,,,,,,,,,,,,,,,,,,,,,,,,,,,,,,,,,,,,,,,,,,,,,,,,,,,,,,,,,,,,,,,,,,,,,,,,,,,,,,,,,,,,,,,,,,,,,,,,,,,,,,,,,,,,,,,,,,,,,,,,,,,,,,,,,,,,,,,,,
0,46,46,73,1,,61372036e1916464a6165cf6,62c53a84b2daef25d43cd7ff,2022-07-06_09h32.53.305,Colour_Asymmetry_Pilot,2022.1.3,Win32,60.87538808,62c50e9c1127f2cd403a315f,,,,,,,,,,,,,,,,,,,,,,,,,,,,,,,,,,,,,,,,,,,,,,,,,,,,,,,,,,,,,,,,,,,,,,,,,,,,,,,,,,,,,,,,,,,,,,,,,,,,,,,,,,,,,,,,,,,,,,,,,,,,,,,,,,,,,,,,,,,,,,,,,,,,,,,,,,,,,,,,,,,
0,47,47,31,1,,61372036e1916464a6165cf6,62c53a84b2daef25d43cd7ff,2022-07-06_09h32.53.305,Colour_Asymmetry_Pilot,2022.1.3,Win32,60.87538808,62c50e9c1127f2cd403a315f,,,,,,,,,,,,,,,,,,,,,,,,,,,,,,,,,,,,,,,,,,,,,,,,,,,,,,,,,,,,,,,,,,,,,,,,,,,,,,,,,,,,,,,,,,,,,,,,,,,,,,,,,,,,,,,,,,,,,,,,,,,,,,,,,,,,,,,,,,,,,,,,,,,,,,,,,,,,,,,,,,,
0,48,48,30,1,,61372036e1916464a6165cf6,62c53a84b2daef25d43cd7ff,2022-07-06_09h32.53.305,Colour_Asymmetry_Pilot,2022.1.3,Win32,60.87538808,62c50e9c1127f2cd403a315f,,,,,,,,,,,,,,,,,,,,,,,,,,,,,,,,,,,,,,,,,,,,,,,,,,,,,,,,,,,,,,,,,,,,,,,,,,,,,,,,,,,,,,,,,,,,,,,,,,,,,,,,,,,,,,,,,,,,,,,,,,,,,,,,,,,,,,,,,,,,,,,,,,,,,,,,,,,,,,,,,,,
0,49,49,66,1,,61372036e1916464a6165cf6,62c53a84b2daef25d43cd7ff,2022-07-06_09h32.53.305,Colour_Asymmetry_Pilot,2022.1.3,Win32,60.87538808,62c50e9c1127f2cd403a315f,,,,,,,,,,,,,,,,,,,,,,,,,,,,,,,,,,,,,,,,,,,,,,,,,,,,,,,,,,,,,,,,,,,,,,,,,,,,,,,,,,,,,,,,,,,,,,,,,,,,,,,,,,,,,,,,,,,,,,,,,,,,,,,,,,,,,,,,,,,,,,,,,,,,,,,,,,,,,,,,,,,
0,50,50,34,1,,61372036e1916464a6165cf6,62c53a84b2daef25d43cd7ff,2022-07-06_09h32.53.305,Colour_Asymmetry_Pilot,2022.1.3,Win32,60.87538808,62c50e9c1127f2cd403a315f,,,,,,,,,,,,,,,,,,,,,,,,,,,,,,,,,,,,,,,,,,,,,,,,,,,,,,,,,,,,,,,,,,,,,,,,,,,,,,,,,,,,,,,,,,,,,,,,,,,,,,,,,,,,,,,,,,,,,,,,,,,,,,,,,,,,,,,,,,,,,,,,,,,,,,,,,,,,,,,,,,,
0,51,51,29,1,,61372036e1916464a6165cf6,62c53a84b2daef25d43cd7ff,2022-07-06_09h32.53.305,Colour_Asymmetry_Pilot,2022.1.3,Win32,60.87538808,62c50e9c1127f2cd403a315f,,,,,,,,,,,,,,,,,,,,,,,,,,,,,,,,,,,,,,,,,,,,,,,,,,,,,,,,,,,,,,,,,,,,,,,,,,,,,,,,,,,,,,,,,,,,,,,,,,,,,,,,,,,,,,,,,,,,,,,,,,,,,,,,,,,,,,,,,,,,,,,,,,,,,,,,,,,,,,,,,,,
0,52,52,77,1,,61372036e1916464a6165cf6,62c53a84b2daef25d43cd7ff,2022-07-06_09h32.53.305,Colour_Asymmetry_Pilot,2022.1.3,Win32,60.87538808,62c50e9c1127f2cd403a315f,,,,,,,,,,,,,,,,,,,,,,,,,,,,,,,,,,,,,,,,,,,,,,,,,,,,,,,,,,,,,,,,,,,,,,,,,,,,,,,,,,,,,,,,,,,,,,,,,,,,,,,,,,,,,,,,,,,,,,,,,,,,,,,,,,,,,,,,,,,,,,,,,,,,,,,,,,,,,,,,,,,
0,53,53,44,1,,61372036e1916464a6165cf6,62c53a84b2daef25d43cd7ff,2022-07-06_09h32.53.305,Colour_Asymmetry_Pilot,2022.1.3,Win32,60.87538808,62c50e9c1127f2cd403a315f,,,,,,,,,,,,,,,,,,,,,,,,,,,,,,,,,,,,,,,,,,,,,,,,,,,,,,,,,,,,,,,,,,,,,,,,,,,,,,,,,,,,,,,,,,,,,,,,,,,,,,,,,,,,,,,,,,,,,,,,,,,,,,,,,,,,,,,,,,,,,,,,,,,,,,,,,,,,,,,,,,,
0,54,54,82,1,,61372036e1916464a6165cf6,62c53a84b2daef25d43cd7ff,2022-07-06_09h32.53.305,Colour_Asymmetry_Pilot,2022.1.3,Win32,60.87538808,62c50e9c1127f2cd403a315f,,,,,,,,,,,,,,,,,,,,,,,,,,,,,,,,,,,,,,,,,,,,,,,,,,,,,,,,,,,,,,,,,,,,,,,,,,,,,,,,,,,,,,,,,,,,,,,,,,,,,,,,,,,,,,,,,,,,,,,,,,,,,,,,,,,,,,,,,,,,,,,,,,,,,,,,,,,,,,,,,,,
0,55,55,18,1,,61372036e1916464a6165cf6,62c53a84b2daef25d43cd7ff,2022-07-06_09h32.53.305,Colour_Asymmetry_Pilot,2022.1.3,Win32,60.87538808,62c50e9c1127f2cd403a315f,,,,,,,,,,,,,,,,,,,,,,,,,,,,,,,,,,,,,,,,,,,,,,,,,,,,,,,,,,,,,,,,,,,,,,,,,,,,,,,,,,,,,,,,,,,,,,,,,,,,,,,,,,,,,,,,,,,,,,,,,,,,,,,,,,,,,,,,,,,,,,,,,,,,,,,,,,,,,,,,,,,
0,56,56,61,1,,61372036e1916464a6165cf6,62c53a84b2daef25d43cd7ff,2022-07-06_09h32.53.305,Colour_Asymmetry_Pilot,2022.1.3,Win32,60.87538808,62c50e9c1127f2cd403a315f,,,,,,,,,,,,,,,,,,,,,,,,,,,,,,,,,,,,,,,,,,,,,,,,,,,,,,,,,,,,,,,,,,,,,,,,,,,,,,,,,,,,,,,,,,,,,,,,,,,,,,,,,,,,,,,,,,,,,,,,,,,,,,,,,,,,,,,,,,,,,,,,,,,,,,,,,,,,,,,,,,,
0,57,57,64,1,,61372036e1916464a6165cf6,62c53a84b2daef25d43cd7ff,2022-07-06_09h32.53.305,Colour_Asymmetry_Pilot,2022.1.3,Win32,60.87538808,62c50e9c1127f2cd403a315f,,,,,,,,,,,,,,,,,,,,,,,,,,,,,,,,,,,,,,,,,,,,,,,,,,,,,,,,,,,,,,,,,,,,,,,,,,,,,,,,,,,,,,,,,,,,,,,,,,,,,,,,,,,,,,,,,,,,,,,,,,,,,,,,,,,,,,,,,,,,,,,,,,,,,,,,,,,,,,,,,,,
0,58,58,19,1,,61372036e1916464a6165cf6,62c53a84b2daef25d43cd7ff,2022-07-06_09h32.53.305,Colour_Asymmetry_Pilot,2022.1.3,Win32,60.87538808,62c50e9c1127f2cd403a315f,,,,,,,,,,,,,,,,,,,,,,,,,,,,,,,,,,,,,,,,,,,,,,,,,,,,,,,,,,,,,,,,,,,,,,,,,,,,,,,,,,,,,,,,,,,,,,,,,,,,,,,,,,,,,,,,,,,,,,,,,,,,,,,,,,,,,,,,,,,,,,,,,,,,,,,,,,,,,,,,,,,
0,59,59,12,1,,61372036e1916464a6165cf6,62c53a84b2daef25d43cd7ff,2022-07-06_09h32.53.305,Colour_Asymmetry_Pilot,2022.1.3,Win32,60.87538808,62c50e9c1127f2cd403a315f,,,,,,,,,,,,,,,,,,,,,,,,,,,,,,,,,,,,,,,,,,,,,,,,,,,,,,,,,,,,,,,,,,,,,,,,,,,,,,,,,,,,,,,,,,,,,,,,,,,,,,,,,,,,,,,,,,,,,,,,,,,,,,,,,,,,,,,,,,,,,,,,,,,,,,,,,,,,,,,,,,,
0,60,60,80,1,,61372036e1916464a6165cf6,62c53a84b2daef25d43cd7ff,2022-07-06_09h32.53.305,Colour_Asymmetry_Pilot,2022.1.3,Win32,60.87538808,62c50e9c1127f2cd403a315f,,,,,,,,,,,,,,,,,,,,,,,,,,,,,,,,,,,,,,,,,,,,,,,,,,,,,,,,,,,,,,,,,,,,,,,,,,,,,,,,,,,,,,,,,,,,,,,,,,,,,,,,,,,,,,,,,,,,,,,,,,,,,,,,,,,,,,,,,,,,,,,,,,,,,,,,,,,,,,,,,,,
0,61,61,54,1,,61372036e1916464a6165cf6,62c53a84b2daef25d43cd7ff,2022-07-06_09h32.53.305,Colour_Asymmetry_Pilot,2022.1.3,Win32,60.87538808,62c50e9c1127f2cd403a315f,,,,,,,,,,,,,,,,,,,,,,,,,,,,,,,,,,,,,,,,,,,,,,,,,,,,,,,,,,,,,,,,,,,,,,,,,,,,,,,,,,,,,,,,,,,,,,,,,,,,,,,,,,,,,,,,,,,,,,,,,,,,,,,,,,,,,,,,,,,,,,,,,,,,,,,,,,,,,,,,,,,
0,62,62,2,1,,61372036e1916464a6165cf6,62c53a84b2daef25d43cd7ff,2022-07-06_09h32.53.305,Colour_Asymmetry_Pilot,2022.1.3,Win32,60.87538808,62c50e9c1127f2cd403a315f,,,,,,,,,,,,,,,,,,,,,,,,,,,,,,,,,,,,,,,,,,,,,,,,,,,,,,,,,,,,,,,,,,,,,,,,,,,,,,,,,,,,,,,,,,,,,,,,,,,,,,,,,,,,,,,,,,,,,,,,,,,,,,,,,,,,,,,,,,,,,,,,,,,,,,,,,,,,,,,,,,,
0,63,63,27,1,,61372036e1916464a6165cf6,62c53a84b2daef25d43cd7ff,2022-07-06_09h32.53.305,Colour_Asymmetry_Pilot,2022.1.3,Win32,60.87538808,62c50e9c1127f2cd403a315f,,,,,,,,,,,,,,,,,,,,,,,,,,,,,,,,,,,,,,,,,,,,,,,,,,,,,,,,,,,,,,,,,,,,,,,,,,,,,,,,,,,,,,,,,,,,,,,,,,,,,,,,,,,,,,,,,,,,,,,,,,,,,,,,,,,,,,,,,,,,,,,,,,,,,,,,,,,,,,,,,,,
0,64,64,52,1,,61372036e1916464a6165cf6,62c53a84b2daef25d43cd7ff,2022-07-06_09h32.53.305,Colour_Asymmetry_Pilot,2022.1.3,Win32,60.87538808,62c50e9c1127f2cd403a315f,,,,,,,,,,,,,,,,,,,,,,,,,,,,,,,,,,,,,,,,,,,,,,,,,,,,,,,,,,,,,,,,,,,,,,,,,,,,,,,,,,,,,,,,,,,,,,,,,,,,,,,,,,,,,,,,,,,,,,,,,,,,,,,,,,,,,,,,,,,,,,,,,,,,,,,,,,,,,,,,,,,
0,65,65,25,1,,61372036e1916464a6165cf6,62c53a84b2daef25d43cd7ff,2022-07-06_09h32.53.305,Colour_Asymmetry_Pilot,2022.1.3,Win32,60.87538808,62c50e9c1127f2cd403a315f,,,,,,,,,,,,,,,,,,,,,,,,,,,,,,,,,,,,,,,,,,,,,,,,,,,,,,,,,,,,,,,,,,,,,,,,,,,,,,,,,,,,,,,,,,,,,,,,,,,,,,,,,,,,,,,,,,,,,,,,,,,,,,,,,,,,,,,,,,,,,,,,,,,,,,,,,,,,,,,,,,,
0,66,66,90,1,,61372036e1916464a6165cf6,62c53a84b2daef25d43cd7ff,2022-07-06_09h32.53.305,Colour_Asymmetry_Pilot,2022.1.3,Win32,60.87538808,62c50e9c1127f2cd403a315f,,,,,,,,,,,,,,,,,,,,,,,,,,,,,,,,,,,,,,,,,,,,,,,,,,,,,,,,,,,,,,,,,,,,,,,,,,,,,,,,,,,,,,,,,,,,,,,,,,,,,,,,,,,,,,,,,,,,,,,,,,,,,,,,,,,,,,,,,,,,,,,,,,,,,,,,,,,,,,,,,,,
0,67,67,60,1,,61372036e1916464a6165cf6,62c53a84b2daef25d43cd7ff,2022-07-06_09h32.53.305,Colour_Asymmetry_Pilot,2022.1.3,Win32,60.87538808,62c50e9c1127f2cd403a315f,,,,,,,,,,,,,,,,,,,,,,,,,,,,,,,,,,,,,,,,,,,,,,,,,,,,,,,,,,,,,,,,,,,,,,,,,,,,,,,,,,,,,,,,,,,,,,,,,,,,,,,,,,,,,,,,,,,,,,,,,,,,,,,,,,,,,,,,,,,,,,,,,,,,,,,,,,,,,,,,,,,
0,68,68,5,1,,61372036e1916464a6165cf6,62c53a84b2daef25d43cd7ff,2022-07-06_09h32.53.305,Colour_Asymmetry_Pilot,2022.1.3,Win32,60.87538808,62c50e9c1127f2cd403a315f,,,,,,,,,,,,,,,,,,,,,,,,,,,,,,,,,,,,,,,,,,,,,,,,,,,,,,,,,,,,,,,,,,,,,,,,,,,,,,,,,,,,,,,,,,,,,,,,,,,,,,,,,,,,,,,,,,,,,,,,,,,,,,,,,,,,,,,,,,,,,,,,,,,,,,,,,,,,,,,,,,,
0,69,69,83,1,,61372036e1916464a6165cf6,62c53a84b2daef25d43cd7ff,2022-07-06_09h32.53.305,Colour_Asymmetry_Pilot,2022.1.3,Win32,60.87538808,62c50e9c1127f2cd403a315f,,,,,,,,,,,,,,,,,,,,,,,,,,,,,,,,,,,,,,,,,,,,,,,,,,,,,,,,,,,,,,,,,,,,,,,,,,,,,,,,,,,,,,,,,,,,,,,,,,,,,,,,,,,,,,,,,,,,,,,,,,,,,,,,,,,,,,,,,,,,,,,,,,,,,,,,,,,,,,,,,,,
0,70,70,39,1,,61372036e1916464a6165cf6,62c53a84b2daef25d43cd7ff,2022-07-06_09h32.53.305,Colour_Asymmetry_Pilot,2022.1.3,Win32,60.87538808,62c50e9c1127f2cd403a315f,,,,,,,,,,,,,,,,,,,,,,,,,,,,,,,,,,,,,,,,,,,,,,,,,,,,,,,,,,,,,,,,,,,,,,,,,,,,,,,,,,,,,,,,,,,,,,,,,,,,,,,,,,,,,,,,,,,,,,,,,,,,,,,,,,,,,,,,,,,,,,,,,,,,,,,,,,,,,,,,,,,
0,71,71,24,1,,61372036e1916464a6165cf6,62c53a84b2daef25d43cd7ff,2022-07-06_09h32.53.305,Colour_Asymmetry_Pilot,2022.1.3,Win32,60.87538808,62c50e9c1127f2cd403a315f,,,,,,,,,,,,,,,,,,,,,,,,,,,,,,,,,,,,,,,,,,,,,,,,,,,,,,,,,,,,,,,,,,,,,,,,,,,,,,,,,,,,,,,,,,,,,,,,,,,,,,,,,,,,,,,,,,,,,,,,,,,,,,,,,,,,,,,,,,,,,,,,,,,,,,,,,,,,,,,,,,,
0,72,72,9,1,,61372036e1916464a6165cf6,62c53a84b2daef25d43cd7ff,2022-07-06_09h32.53.305,Colour_Asymmetry_Pilot,2022.1.3,Win32,60.87538808,62c50e9c1127f2cd403a315f,,,,,,,,,,,,,,,,,,,,,,,,,,,,,,,,,,,,,,,,,,,,,,,,,,,,,,,,,,,,,,,,,,,,,,,,,,,,,,,,,,,,,,,,,,,,,,,,,,,,,,,,,,,,,,,,,,,,,,,,,,,,,,,,,,,,,,,,,,,,,,,,,,,,,,,,,,,,,,,,,,,
0,73,73,85,1,,61372036e1916464a6165cf6,62c53a84b2daef25d43cd7ff,2022-07-06_09h32.53.305,Colour_Asymmetry_Pilot,2022.1.3,Win32,60.87538808,62c50e9c1127f2cd403a315f,,,,,,,,,,,,,,,,,,,,,,,,,,,,,,,,,,,,,,,,,,,,,,,,,,,,,,,,,,,,,,,,,,,,,,,,,,,,,,,,,,,,,,,,,,,,,,,,,,,,,,,,,,,,,,,,,,,,,,,,,,,,,,,,,,,,,,,,,,,,,,,,,,,,,,,,,,,,,,,,,,,
0,74,74,71,1,,61372036e1916464a6165cf6,62c53a84b2daef25d43cd7ff,2022-07-06_09h32.53.305,Colour_Asymmetry_Pilot,2022.1.3,Win32,60.87538808,62c50e9c1127f2cd403a315f,,,,,,,,,,,,,,,,,,,,,,,,,,,,,,,,,,,,,,,,,,,,,,,,,,,,,,,,,,,,,,,,,,,,,,,,,,,,,,,,,,,,,,,,,,,,,,,,,,,,,,,,,,,,,,,,,,,,,,,,,,,,,,,,,,,,,,,,,,,,,,,,,,,,,,,,,,,,,,,,,,,
0,75,75,53,1,,61372036e1916464a6165cf6,62c53a84b2daef25d43cd7ff,2022-07-06_09h32.53.305,Colour_Asymmetry_Pilot,2022.1.3,Win32,60.87538808,62c50e9c1127f2cd403a315f,,,,,,,,,,,,,,,,,,,,,,,,,,,,,,,,,,,,,,,,,,,,,,,,,,,,,,,,,,,,,,,,,,,,,,,,,,,,,,,,,,,,,,,,,,,,,,,,,,,,,,,,,,,,,,,,,,,,,,,,,,,,,,,,,,,,,,,,,,,,,,,,,,,,,,,,,,,,,,,,,,,
0,76,76,42,1,,61372036e1916464a6165cf6,62c53a84b2daef25d43cd7ff,2022-07-06_09h32.53.305,Colour_Asymmetry_Pilot,2022.1.3,Win32,60.87538808,62c50e9c1127f2cd403a315f,,,,,,,,,,,,,,,,,,,,,,,,,,,,,,,,,,,,,,,,,,,,,,,,,,,,,,,,,,,,,,,,,,,,,,,,,,,,,,,,,,,,,,,,,,,,,,,,,,,,,,,,,,,,,,,,,,,,,,,,,,,,,,,,,,,,,,,,,,,,,,,,,,,,,,,,,,,,,,,,,,,
0,77,77,7,1,,61372036e1916464a6165cf6,62c53a84b2daef25d43cd7ff,2022-07-06_09h32.53.305,Colour_Asymmetry_Pilot,2022.1.3,Win32,60.87538808,62c50e9c1127f2cd403a315f,,,,,,,,,,,,,,,,,,,,,,,,,,,,,,,,,,,,,,,,,,,,,,,,,,,,,,,,,,,,,,,,,,,,,,,,,,,,,,,,,,,,,,,,,,,,,,,,,,,,,,,,,,,,,,,,,,,,,,,,,,,,,,,,,,,,,,,,,,,,,,,,,,,,,,,,,,,,,,,,,,,
0,78,78,50,1,,61372036e1916464a6165cf6,62c53a84b2daef25d43cd7ff,2022-07-06_09h32.53.305,Colour_Asymmetry_Pilot,2022.1.3,Win32,60.87538808,62c50e9c1127f2cd403a315f,,,,,,,,,,,,,,,,,,,,,,,,,,,,,,,,,,,,,,,,,,,,,,,,,,,,,,,,,,,,,,,,,,,,,,,,,,,,,,,,,,,,,,,,,,,,,,,,,,,,,,,,,,,,,,,,,,,,,,,,,,,,,,,,,,,,,,,,,,,,,,,,,,,,,,,,,,,,,,,,,,,
0,79,79,17,1,,61372036e1916464a6165cf6,62c53a84b2daef25d43cd7ff,2022-07-06_09h32.53.305,Colour_Asymmetry_Pilot,2022.1.3,Win32,60.87538808,62c50e9c1127f2cd403a315f,,,,,,,,,,,,,,,,,,,,,,,,,,,,,,,,,,,,,,,,,,,,,,,,,,,,,,,,,,,,,,,,,,,,,,,,,,,,,,,,,,,,,,,,,,,,,,,,,,,,,,,,,,,,,,,,,,,,,,,,,,,,,,,,,,,,,,,,,,,,,,,,,,,,,,,,,,,,,,,,,,,
0,80,80,92,1,,61372036e1916464a6165cf6,62c53a84b2daef25d43cd7ff,2022-07-06_09h32.53.305,Colour_Asymmetry_Pilot,2022.1.3,Win32,60.87538808,62c50e9c1127f2cd403a315f,,,,,,,,,,,,,,,,,,,,,,,,,,,,,,,,,,,,,,,,,,,,,,,,,,,,,,,,,,,,,,,,,,,,,,,,,,,,,,,,,,,,,,,,,,,,,,,,,,,,,,,,,,,,,,,,,,,,,,,,,,,,,,,,,,,,,,,,,,,,,,,,,,,,,,,,,,,,,,,,,,,
0,81,81,57,1,,61372036e1916464a6165cf6,62c53a84b2daef25d43cd7ff,2022-07-06_09h32.53.305,Colour_Asymmetry_Pilot,2022.1.3,Win32,60.87538808,62c50e9c1127f2cd403a315f,,,,,,,,,,,,,,,,,,,,,,,,,,,,,,,,,,,,,,,,,,,,,,,,,,,,,,,,,,,,,,,,,,,,,,,,,,,,,,,,,,,,,,,,,,,,,,,,,,,,,,,,,,,,,,,,,,,,,,,,,,,,,,,,,,,,,,,,,,,,,,,,,,,,,,,,,,,,,,,,,,,
0,82,82,4,1,,61372036e1916464a6165cf6,62c53a84b2daef25d43cd7ff,2022-07-06_09h32.53.305,Colour_Asymmetry_Pilot,2022.1.3,Win32,60.87538808,62c50e9c1127f2cd403a315f,,,,,,,,,,,,,,,,,,,,,,,,,,,,,,,,,,,,,,,,,,,,,,,,,,,,,,,,,,,,,,,,,,,,,,,,,,,,,,,,,,,,,,,,,,,,,,,,,,,,,,,,,,,,,,,,,,,,,,,,,,,,,,,,,,,,,,,,,,,,,,,,,,,,,,,,,,,,,,,,,,,
0,83,83,28,1,,61372036e1916464a6165cf6,62c53a84b2daef25d43cd7ff,2022-07-06_09h32.53.305,Colour_Asymmetry_Pilot,2022.1.3,Win32,60.87538808,62c50e9c1127f2cd403a315f,,,,,,,,,,,,,,,,,,,,,,,,,,,,,,,,,,,,,,,,,,,,,,,,,,,,,,,,,,,,,,,,,,,,,,,,,,,,,,,,,,,,,,,,,,,,,,,,,,,,,,,,,,,,,,,,,,,,,,,,,,,,,,,,,,,,,,,,,,,,,,,,,,,,,,,,,,,,,,,,,,,
0,84,84,3,1,,61372036e1916464a6165cf6,62c53a84b2daef25d43cd7ff,2022-07-06_09h32.53.305,Colour_Asymmetry_Pilot,2022.1.3,Win32,60.87538808,62c50e9c1127f2cd403a315f,,,,,,,,,,,,,,,,,,,,,,,,,,,,,,,,,,,,,,,,,,,,,,,,,,,,,,,,,,,,,,,,,,,,,,,,,,,,,,,,,,,,,,,,,,,,,,,,,,,,,,,,,,,,,,,,,,,,,,,,,,,,,,,,,,,,,,,,,,,,,,,,,,,,,,,,,,,,,,,,,,,
0,85,85,67,1,,61372036e1916464a6165cf6,62c53a84b2daef25d43cd7ff,2022-07-06_09h32.53.305,Colour_Asymmetry_Pilot,2022.1.3,Win32,60.87538808,62c50e9c1127f2cd403a315f,,,,,,,,,,,,,,,,,,,,,,,,,,,,,,,,,,,,,,,,,,,,,,,,,,,,,,,,,,,,,,,,,,,,,,,,,,,,,,,,,,,,,,,,,,,,,,,,,,,,,,,,,,,,,,,,,,,,,,,,,,,,,,,,,,,,,,,,,,,,,,,,,,,,,,,,,,,,,,,,,,,
0,86,86,86,1,,61372036e1916464a6165cf6,62c53a84b2daef25d43cd7ff,2022-07-06_09h32.53.305,Colour_Asymmetry_Pilot,2022.1.3,Win32,60.87538808,62c50e9c1127f2cd403a315f,,,,,,,,,,,,,,,,,,,,,,,,,,,,,,,,,,,,,,,,,,,,,,,,,,,,,,,,,,,,,,,,,,,,,,,,,,,,,,,,,,,,,,,,,,,,,,,,,,,,,,,,,,,,,,,,,,,,,,,,,,,,,,,,,,,,,,,,,,,,,,,,,,,,,,,,,,,,,,,,,,,
0,87,87,84,1,,61372036e1916464a6165cf6,62c53a84b2daef25d43cd7ff,2022-07-06_09h32.53.305,Colour_Asymmetry_Pilot,2022.1.3,Win32,60.87538808,62c50e9c1127f2cd403a315f,,,,,,,,,,,,,,,,,,,,,,,,,,,,,,,,,,,,,,,,,,,,,,,,,,,,,,,,,,,,,,,,,,,,,,,,,,,,,,,,,,,,,,,,,,,,,,,,,,,,,,,,,,,,,,,,,,,,,,,,,,,,,,,,,,,,,,,,,,,,,,,,,,,,,,,,,,,,,,,,,,,
0,88,88,21,1,,61372036e1916464a6165cf6,62c53a84b2daef25d43cd7ff,2022-07-06_09h32.53.305,Colour_Asymmetry_Pilot,2022.1.3,Win32,60.87538808,62c50e9c1127f2cd403a315f,,,,,,,,,,,,,,,,,,,,,,,,,,,,,,,,,,,,,,,,,,,,,,,,,,,,,,,,,,,,,,,,,,,,,,,,,,,,,,,,,,,,,,,,,,,,,,,,,,,,,,,,,,,,,,,,,,,,,,,,,,,,,,,,,,,,,,,,,,,,,,,,,,,,,,,,,,,,,,,,,,,
0,89,89,72,1,,61372036e1916464a6165cf6,62c53a84b2daef25d43cd7ff,2022-07-06_09h32.53.305,Colour_Asymmetry_Pilot,2022.1.3,Win32,60.87538808,62c50e9c1127f2cd403a315f,,,,,,,,,,,,,,,,,,,,,,,,,,,,,,,,,,,,,,,,,,,,,,,,,,,,,,,,,,,,,,,,,,,,,,,,,,,,,,,,,,,,,,,,,,,,,,,,,,,,,,,,,,,,,,,,,,,,,,,,,,,,,,,,,,,,,,,,,,,,,,,,,,,,,,,,,,,,,,,,,,,
0,90,90,0,1,,61372036e1916464a6165cf6,62c53a84b2daef25d43cd7ff,2022-07-06_09h32.53.305,Colour_Asymmetry_Pilot,2022.1.3,Win32,60.87538808,62c50e9c1127f2cd403a315f,,,,,,,,,,,,,,,,,,,,,,,,,,,,,,,,,,,,,,,,,,,,,,,,,,,,,,,,,,,,,,,,,,,,,,,,,,,,,,,,,,,,,,,,,,,,,,,,,,,,,,,,,,,,,,,,,,,,,,,,,,,,,,,,,,,,,,,,,,,,,,,,,,,,,,,,,,,,,,,,,,,
0,91,91,13,1,,61372036e1916464a6165cf6,62c53a84b2daef25d43cd7ff,2022-07-06_09h32.53.305,Colour_Asymmetry_Pilot,2022.1.3,Win32,60.87538808,62c50e9c1127f2cd403a315f,,,,,,,,,,,,,,,,,,,,,,,,,,,,,,,,,,,,,,,,,,,,,,,,,,,,,,,,,,,,,,,,,,,,,,,,,,,,,,,,,,,,,,,,,,,,,,,,,,,,,,,,,,,,,,,,,,,,,,,,,,,,,,,,,,,,,,,,,,,,,,,,,,,,,,,,,,,,,,,,,,,
0,92,92,81,1,,61372036e1916464a6165cf6,62c53a84b2daef25d43cd7ff,2022-07-06_09h32.53.305,Colour_Asymmetry_Pilot,2022.1.3,Win32,60.87538808,62c50e9c1127f2cd403a315f,,,,,,,,,,,,,,,,,,,,,,,,,,,,,,,,,,,,,,,,,,,,,,,,,,,,,,,,,,,,,,,,,,,,,,,,,,,,,,,,,,,,,,,,,,,,,,,,,,,,,,,,,,,,,,,,,,,,,,,,,,,,,,,,,,,,,,,,,,,,,,,,,,,,,,,,,,,,,,,,,,,
,,,,,,61372036e1916464a6165cf6,62c53a84b2daef25d43cd7ff,2022-07-06_09h32.53.305,Colour_Asymmetry_Pilot,2022.1.3,Win32,60.87538808,62c50e9c1127f2cd403a315f,0,0,0,142,1,fourtwo,,,,,,,,,,,,,,,,,,,,,,,,,,,,,,,,,,,,,,,,,,,,,,,,,,,,,,,,,,,,,,,,,,,,,,,,,,,,,,,,,,,,,,,,,,,,,,,,,,,,,,,,,,,,,,,,,,,,,,,,,,,,,,,,,,,,,,,,,,,,,,,,,,,,,,,,,,,,,
,,,,,,61372036e1916464a6165cf6,62c53a84b2daef25d43cd7ff,2022-07-06_09h32.53.305,Colour_Asymmetry_Pilot,2022.1.3,Win32,60.87538808,62c50e9c1127f2cd403a315f,0,1,1,116,1,threeone,,,,,,,,,,,,,,,,,,,,,,,,,,,,,,,,,,,,,,,,,,,,,,,,,,,,,,,,,,,,,,,,,,,,,,,,,,,,,,,,,,,,,,,,,,,,,,,,,,,,,,,,,,,,,,,,,,,,,,,,,,,,,,,,,,,,,,,,,,,,,,,,,,,,,,,,,,,,,
,,,,,,61372036e1916464a6165cf6,62c53a84b2daef25d43cd7ff,2022-07-06_09h32.53.305,Colour_Asymmetry_Pilot,2022.1.3,Win32,60.87538808,62c50e9c1127f2cd403a315f,0,2,2,103,1,fourthree,,,,,,,,,,,,,,,,,,,,,,,,,,,,,,,,,,,,,,,,,,,,,,,,,,,,,,,,,,,,,,,,,,,,,,,,,,,,,,,,,,,,,,,,,,,,,,,,,,,,,,,,,,,,,,,,,,,,,,,,,,,,,,,,,,,,,,,,,,,,,,,,,,,,,,,,,,,,,
,,,,,,61372036e1916464a6165cf6,62c53a84b2daef25d43cd7ff,2022-07-06_09h32.53.305,Colour_Asymmetry_Pilot,2022.1.3,Win32,60.87538808,62c50e9c1127f2cd403a315f,0,3,3,108,1,threeone,,,,,,,,,,,,,,,,,,,,,,,,,,,,,,,,,,,,,,,,,,,,,,,,,,,,,,,,,,,,,,,,,,,,,,,,,,,,,,,,,,,,,,,,,,,,,,,,,,,,,,,,,,,,,,,,,,,,,,,,,,,,,,,,,,,,,,,,,,,,,,,,,,,,,,,,,,,,,
,,,,,,61372036e1916464a6165cf6,62c53a84b2daef25d43cd7ff,2022-07-06_09h32.53.305,Colour_Asymmetry_Pilot,2022.1.3,Win32,60.87538808,62c50e9c1127f2cd403a315f,0,4,4,145,1,onethree,,,,,,,,,,,,,,,,,,,,,,,,,,,,,,,,,,,,,,,,,,,,,,,,,,,,,,,,,,,,,,,,,,,,,,,,,,,,,,,,,,,,,,,,,,,,,,,,,,,,,,,,,,,,,,,,,,,,,,,,,,,,,,,,,,,,,,,,,,,,,,,,,,,,,,,,,,,,,
,,,,,,61372036e1916464a6165cf6,62c53a84b2daef25d43cd7ff,2022-07-06_09h32.53.305,Colour_Asymmetry_Pilot,2022.1.3,Win32,60.87538808,62c50e9c1127f2cd403a315f,0,5,5,122,1,twoone,,,,,,,,,,,,,,,,,,,,,,,,,,,,,,,,,,,,,,,,,,,,,,,,,,,,,,,,,,,,,,,,,,,,,,,,,,,,,,,,,,,,,,,,,,,,,,,,,,,,,,,,,,,,,,,,,,,,,,,,,,,,,,,,,,,,,,,,,,,,,,,,,,,,,,,,,,,,,
,,,,,,61372036e1916464a6165cf6,62c53a84b2daef25d43cd7ff,2022-07-06_09h32.53.305,Colour_Asymmetry_Pilot,2022.1.3,Win32,60.87538808,62c50e9c1127f2cd403a315f,0,6,6,23,1,fourthree,,,,,,,,,,,,,,,,,,,,,,,,,,,,,,,,,,,,,,,,,,,,,,,,,,,,,,,,,,,,,,,,,,,,,,,,,,,,,,,,,,,,,,,,,,,,,,,,,,,,,,,,,,,,,,,,,,,,,,,,,,,,,,,,,,,,,,,,,,,,,,,,,,,,,,,,,,,,,
,,,,,,61372036e1916464a6165cf6,62c53a84b2daef25d43cd7ff,2022-07-06_09h32.53.305,Colour_Asymmetry_Pilot,2022.1.3,Win32,60.87538808,62c50e9c1127f2cd403a315f,0,7,7,80,1,onetwo,,,,,,,,,,,,,,,,,,,,,,,,,,,,,,,,,,,,,,,,,,,,,,,,,,,,,,,,,,,,,,,,,,,,,,,,,,,,,,,,,,,,,,,,,,,,,,,,,,,,,,,,,,,,,,,,,,,,,,,,,,,,,,,,,,,,,,,,,,,,,,,,,,,,,,,,,,,,,
,,,,,,61372036e1916464a6165cf6,62c53a84b2daef25d43cd7ff,2022-07-06_09h32.53.305,Colour_Asymmetry_Pilot,2022.1.3,Win32,60.87538808,62c50e9c1127f2cd403a315f,0,8,8,69,1,threefour,,,,,,,,,,,,,,,,,,,,,,,,,,,,,,,,,,,,,,,,,,,,,,,,,,,,,,,,,,,,,,,,,,,,,,,,,,,,,,,,,,,,,,,,,,,,,,,,,,,,,,,,,,,,,,,,,,,,,,,,,,,,,,,,,,,,,,,,,,,,,,,,,,,,,,,,,,,,,
,,,,,,61372036e1916464a6165cf6,62c53a84b2daef25d43cd7ff,2022-07-06_09h32.53.305,Colour_Asymmetry_Pilot,2022.1.3,Win32,60.87538808,62c50e9c1127f2cd403a315f,0,9,9,137,1,onethree,,,,,,,,,,,,,,,,,,,,,,,,,,,,,,,,,,,,,,,,,,,,,,,,,,,,,,,,,,,,,,,,,,,,,,,,,,,,,,,,,,,,,,,,,,,,,,,,,,,,,,,,,,,,,,,,,,,,,,,,,,,,,,,,,,,,,,,,,,,,,,,,,,,,,,,,,,,,,
,,,,,,61372036e1916464a6165cf6,62c53a84b2daef25d43cd7ff,2022-07-06_09h32.53.305,Colour_Asymmetry_Pilot,2022.1.3,Win32,60.87538808,62c50e9c1127f2cd403a315f,0,10,10,8,1,onetwo,,,,,,,,,,,,,,,,,,,,,,,,,,,,,,,,,,,,,,,,,,,,,,,,,,,,,,,,,,,,,,,,,,,,,,,,,,,,,,,,,,,,,,,,,,,,,,,,,,,,,,,,,,,,,,,,,,,,,,,,,,,,,,,,,,,,,,,,,,,,,,,,,,,,,,,,,,,,,
,,,,,,61372036e1916464a6165cf6,62c53a84b2daef25d43cd7ff,2022-07-06_09h32.53.305,Colour_Asymmetry_Pilot,2022.1.3,Win32,60.87538808,62c50e9c1127f2cd403a315f,0,11,11,13,1,threefour,,,,,,,,,,,,,,,,,,,,,,,,,,,,,,,,,,,,,,,,,,,,,,,,,,,,,,,,,,,,,,,,,,,,,,,,,,,,,,,,,,,,,,,,,,,,,,,,,,,,,,,,,,,,,,,,,,,,,,,,,,,,,,,,,,,,,,,,,,,,,,,,,,,,,,,,,,,,,
,,,,,,61372036e1916464a6165cf6,62c53a84b2daef25d43cd7ff,2022-07-06_09h32.53.305,Colour_Asymmetry_Pilot,2022.1.3,Win32,60.87538808,62c50e9c1127f2cd403a315f,0,12,12,40,1,onetwo,,,,,,,,,,,,,,,,,,,,,,,,,,,,,,,,,,,,,,,,,,,,,,,,,,,,,,,,,,,,,,,,,,,,,,,,,,,,,,,,,,,,,,,,,,,,,,,,,,,,,,,,,,,,,,,,,,,,,,,,,,,,,,,,,,,,,,,,,,,,,,,,,,,,,,,,,,,,,
,,,,,,61372036e1916464a6165cf6,62c53a84b2daef25d43cd7ff,2022-07-06_09h32.53.305,Colour_Asymmetry_Pilot,2022.1.3,Win32,60.87538808,62c50e9c1127f2cd403a315f,0,13,13,54,1,fourtwo,,,,,,,,,,,,,,,,,,,,,,,,,,,,,,,,,,,,,,,,,,,,,,,,,,,,,,,,,,,,,,,,,,,,,,,,,,,,,,,,,,,,,,,,,,,,,,,,,,,,,,,,,,,,,,,,,,,,,,,,,,,,,,,,,,,,,,,,,,,,,,,,,,,,,,,,,,,,,
,,,,,,61372036e1916464a6165cf6,62c53a84b2daef25d43cd7ff,2022-07-06_09h32.53.305,Colour_Asymmetry_Pilot,2022.1.3,Win32,60.87538808,62c50e9c1127f2cd403a315f,0,14,14,88,1,onetwo,,,,,,,,,,,,,,,,,,,,,,,,,,,,,,,,,,,,,,,,,,,,,,,,,,,,,,,,,,,,,,,,,,,,,,,,,,,,,,,,,,,,,,,,,,,,,,,,,,,,,,,,,,,,,,,,,,,,,,,,,,,,,,,,,,,,,,,,,,,,,,,,,,,,,,,,,,,,,
,,,,,,61372036e1916464a6165cf6,62c53a84b2daef25d43cd7ff,2022-07-06_09h32.53.305,Colour_Asymmetry_Pilot,2022.1.3,Win32,60.87538808,62c50e9c1127f2cd403a315f,0,15,15,112,1,onetwo,,,,,,,,,,,,,,,,,,,,,,,,,,,,,,,,,,,,,,,,,,,,,,,,,,,,,,,,,,,,,,,,,,,,,,,,,,,,,,,,,,,,,,,,,,,,,,,,,,,,,,,,,,,,,,,,,,,,,,,,,,,,,,,,,,,,,,,,,,,,,,,,,,,,,,,,,,,,,
,,,,,,61372036e1916464a6165cf6,62c53a84b2daef25d43cd7ff,2022-07-06_09h32.53.305,Colour_Asymmetry_Pilot,2022.1.3,Win32,60.87538808,62c50e9c1127f2cd403a315f,0,16,16,131,1,twofour,,,,,,,,,,,,,,,,,,,,,,,,,,,,,,,,,,,,,,,,,,,,,,,,,,,,,,,,,,,,,,,,,,,,,,,,,,,,,,,,,,,,,,,,,,,,,,,,,,,,,,,,,,,,,,,,,,,,,,,,,,,,,,,,,,,,,,,,,,,,,,,,,,,,,,,,,,,,,
,,,,,,61372036e1916464a6165cf6,62c53a84b2daef25d43cd7ff,2022-07-06_09h32.53.305,Colour_Asymmetry_Pilot,2022.1.3,Win32,60.87538808,62c50e9c1127f2cd403a315f,0,17,17,46,1,fourtwo,,,,,,,,,,,,,,,,,,,,,,,,,,,,,,,,,,,,,,,,,,,,,,,,,,,,,,,,,,,,,,,,,,,,,,,,,,,,,,,,,,,,,,,,,,,,,,,,,,,,,,,,,,,,,,,,,,,,,,,,,,,,,,,,,,,,,,,,,,,,,,,,,,,,,,,,,,,,,
,,,,,,61372036e1916464a6165cf6,62c53a84b2daef25d43cd7ff,2022-07-06_09h32.53.305,Colour_Asymmetry_Pilot,2022.1.3,Win32,60.87538808,62c50e9c1127f2cd403a315f,0,18,18,84,1,threeone,,,,,,,,,,,,,,,,,,,,,,,,,,,,,,,,,,,,,,,,,,,,,,,,,,,,,,,,,,,,,,,,,,,,,,,,,,,,,,,,,,,,,,,,,,,,,,,,,,,,,,,,,,,,,,,,,,,,,,,,,,,,,,,,,,,,,,,,,,,,,,,,,,,,,,,,,,,,,
,,,,,,61372036e1916464a6165cf6,62c53a84b2daef25d43cd7ff,2022-07-06_09h32.53.305,Colour_Asymmetry_Pilot,2022.1.3,Win32,60.87538808,62c50e9c1127f2cd403a315f,0,19,19,138,1,twoone,,,,,,,,,,,,,,,,,,,,,,,,,,,,,,,,,,,,,,,,,,,,,,,,,,,,,,,,,,,,,,,,,,,,,,,,,,,,,,,,,,,,,,,,,,,,,,,,,,,,,,,,,,,,,,,,,,,,,,,,,,,,,,,,,,,,,,,,,,,,,,,,,,,,,,,,,,,,,
,,,,,,61372036e1916464a6165cf6,62c53a84b2daef25d43cd7ff,2022-07-06_09h32.53.305,Colour_Asymmetry_Pilot,2022.1.3,Win32,60.87538808,62c50e9c1127f2cd403a315f,0,20,20,82,1,twoone,,,,,,,,,,,,,,,,,,,,,,,,,,,,,,,,,,,,,,,,,,,,,,,,,,,,,,,,,,,,,,,,,,,,,,,,,,,,,,,,,,,,,,,,,,,,,,,,,,,,,,,,,,,,,,,,,,,,,,,,,,,,,,,,,,,,,,,,,,,,,,,,,,,,,,,,,,,,,
,,,,,,61372036e1916464a6165cf6,62c53a84b2daef25d43cd7ff,2022-07-06_09h32.53.305,Colour_Asymmetry_Pilot,2022.1.3,Win32,60.87538808,62c50e9c1127f2cd403a315f,0,21,21,36,1,threeone,,,,,,,,,,,,,,,,,,,,,,,,,,,,,,,,,,,,,,,,,,,,,,,,,,,,,,,,,,,,,,,,,,,,,,,,,,,,,,,,,,,,,,,,,,,,,,,,,,,,,,,,,,,,,,,,,,,,,,,,,,,,,,,,,,,,,,,,,,,,,,,,,,,,,,,,,,,,,
,,,,,,61372036e1916464a6165cf6,62c53a84b2daef25d43cd7ff,2022-07-06_09h32.53.305,Colour_Asymmetry_Pilot,2022.1.3,Win32,60.87538808,62c50e9c1127f2cd403a315f,0,22,22,72,1,onetwo,,,,,,,,,,,,,,,,,,,,,,,,,,,,,,,,,,,,,,,,,,,,,,,,,,,,,,,,,,,,,,,,,,,,,,,,,,,,,,,,,,,,,,,,,,,,,,,,,,,,,,,,,,,,,,,,,,,,,,,,,,,,,,,,,,,,,,,,,,,,,,,,,,,,,,,,,,,,,
,,,,,,61372036e1916464a6165cf6,62c53a84b2daef25d43cd7ff,2022-07-06_09h32.53.305,Colour_Asymmetry_Pilot,2022.1.3,Win32,60.87538808,62c50e9c1127f2cd403a315f,0,23,23,127,1,fourthree,,,,,,,,,,,,,,,,,,,,,,,,,,,,,,,,,,,,,,,,,,,,,,,,,,,,,,,,,,,,,,,,,,,,,,,,,,,,,,,,,,,,,,,,,,,,,,,,,,,,,,,,,,,,,,,,,,,,,,,,,,,,,,,,,,,,,,,,,,,,,,,,,,,,,,,,,,,,,
,,,,,,61372036e1916464a6165cf6,62c53a84b2daef25d43cd7ff,2022-07-06_09h32.53.305,Colour_Asymmetry_Pilot,2022.1.3,Win32,60.87538808,62c50e9c1127f2cd403a315f,0,24,24,104,1,onetwo,,,,,,,,,,,,,,,,,,,,,,,,,,,,,,,,,,,,,,,,,,,,,,,,,,,,,,,,,,,,,,,,,,,,,,,,,,,,,,,,,,,,,,,,,,,,,,,,,,,,,,,,,,,,,,,,,,,,,,,,,,,,,,,,,,,,,,,,,,,,,,,,,,,,,,,,,,,,,
,,,,,,61372036e1916464a6165cf6,62c53a84b2daef25d43cd7ff,2022-07-06_09h32.53.305,Colour_Asymmetry_Pilot,2022.1.3,Win32,60.87538808,62c50e9c1127f2cd403a315f,0,25,25,147,1,twofour,,,,,,,,,,,,,,,,,,,,,,,,,,,,,,,,,,,,,,,,,,,,,,,,,,,,,,,,,,,,,,,,,,,,,,,,,,,,,,,,,,,,,,,,,,,,,,,,,,,,,,,,,,,,,,,,,,,,,,,,,,,,,,,,,,,,,,,,,,,,,,,,,,,,,,,,,,,,,
,,,,,,61372036e1916464a6165cf6,62c53a84b2daef25d43cd7ff,2022-07-06_09h32.53.305,Colour_Asymmetry_Pilot,2022.1.3,Win32,60.87538808,62c50e9c1127f2cd403a315f,0,26,26,47,1,fourthree,,,,,,,,,,,,,,,,,,,,,,,,,,,,,,,,,,,,,,,,,,,,,,,,,,,,,,,,,,,,,,,,,,,,,,,,,,,,,,,,,,,,,,,,,,,,,,,,,,,,,,,,,,,,,,,,,,,,,,,,,,,,,,,,,,,,,,,,,,,,,,,,,,,,,,,,,,,,,
,,,,,,61372036e1916464a6165cf6,62c53a84b2daef25d43cd7ff,2022-07-06_09h32.53.305,Colour_Asymmetry_Pilot,2022.1.3,Win32,60.87538808,62c50e9c1127f2cd403a315f,0,27,27,85,1,threefour,,,,,,,,,,,,,,,,,,,,,,,,,,,,,,,,,,,,,,,,,,,,,,,,,,,,,,,,,,,,,,,,,,,,,,,,,,,,,,,,,,,,,,,,,,,,,,,,,,,,,,,,,,,,,,,,,,,,,,,,,,,,,,,,,,,,,,,,,,,,,,,,,,,,,,,,,,,,,
,,,,,,61372036e1916464a6165cf6,62c53a84b2daef25d43cd7ff,2022-07-06_09h32.53.305,Colour_Asymmetry_Pilot,2022.1.3,Win32,60.87538808,62c50e9c1127f2cd403a315f,0,28,28,143,1,fourthree,,,,,,,,,,,,,,,,,,,,,,,,,,,,,,,,,,,,,,,,,,,,,,,,,,,,,,,,,,,,,,,,,,,,,,,,,,,,,,,,,,,,,,,,,,,,,,,,,,,,,,,,,,,,,,,,,,,,,,,,,,,,,,,,,,,,,,,,,,,,,,,,,,,,,,,,,,,,,
,,,,,,61372036e1916464a6165cf6,62c53a84b2daef25d43cd7ff,2022-07-06_09h32.53.305,Colour_Asymmetry_Pilot,2022.1.3,Win32,60.87538808,62c50e9c1127f2cd403a315f,0,29,29,130,1,twoone,,,,,,,,,,,,,,,,,,,,,,,,,,,,,,,,,,,,,,,,,,,,,,,,,,,,,,,,,,,,,,,,,,,,,,,,,,,,,,,,,,,,,,,,,,,,,,,,,,,,,,,,,,,,,,,,,,,,,,,,,,,,,,,,,,,,,,,,,,,,,,,,,,,,,,,,,,,,,
,,,,,,61372036e1916464a6165cf6,62c53a84b2daef25d43cd7ff,2022-07-06_09h32.53.305,Colour_Asymmetry_Pilot,2022.1.3,Win32,60.87538808,62c50e9c1127f2cd403a315f,0,30,30,129,1,onethree,,,,,,,,,,,,,,,,,,,,,,,,,,,,,,,,,,,,,,,,,,,,,,,,,,,,,,,,,,,,,,,,,,,,,,,,,,,,,,,,,,,,,,,,,,,,,,,,,,,,,,,,,,,,,,,,,,,,,,,,,,,,,,,,,,,,,,,,,,,,,,,,,,,,,,,,,,,,,
,,,,,,61372036e1916464a6165cf6,62c53a84b2daef25d43cd7ff,2022-07-06_09h32.53.305,Colour_Asymmetry_Pilot,2022.1.3,Win32,60.87538808,62c50e9c1127f2cd403a315f,0,31,31,139,1,twofour,,,,,,,,,,,,,,,,,,,,,,,,,,,,,,,,,,,,,,,,,,,,,,,,,,,,,,,,,,,,,,,,,,,,,,,,,,,,,,,,,,,,,,,,,,,,,,,,,,,,,,,,,,,,,,,,,,,,,,,,,,,,,,,,,,,,,,,,,,,,,,,,,,,,,,,,,,,,,
,,,,,,61372036e1916464a6165cf6,62c53a84b2daef25d43cd7ff,2022-07-06_09h32.53.305,Colour_Asymmetry_Pilot,2022.1.3,Win32,60.87538808,62c50e9c1127f2cd403a315f,0,32,32,28,1,threeone,,,,,,,,,,,,,,,,,,,,,,,,,,,,,,,,,,,,,,,,,,,,,,,,,,,,,,,,,,,,,,,,,,,,,,,,,,,,,,,,,,,,,,,,,,,,,,,,,,,,,,,,,,,,,,,,,,,,,,,,,,,,,,,,,,,,,,,,,,,,,,,,,,,,,,,,,,,,,
,,,,,,61372036e1916464a6165cf6,62c53a84b2daef25d43cd7ff,2022-07-06_09h32.53.305,Colour_Asymmetry_Pilot,2022.1.3,Win32,60.87538808,62c50e9c1127f2cd403a315f,0,33,33,60,1,threeone,,,,,,,,,,,,,,,,,,,,,,,,,,,,,,,,,,,,,,,,,,,,,,,,,,,,,,,,,,,,,,,,,,,,,,,,,,,,,,,,,,,,,,,,,,,,,,,,,,,,,,,,,,,,,,,,,,,,,,,,,,,,,,,,,,,,,,,,,,,,,,,,,,,,,,,,,,,,,
,,,,,,61372036e1916464a6165cf6,62c53a84b2daef25d43cd7ff,2022-07-06_09h32.53.305,Colour_Asymmetry_Pilot,2022.1.3,Win32,60.87538808,62c50e9c1127f2cd403a315f,0,34,34,59,1,twofour,,,,,,,,,,,,,,,,,,,,,,,,,,,,,,,,,,,,,,,,,,,,,,,,,,,,,,,,,,,,,,,,,,,,,,,,,,,,,,,,,,,,,,,,,,,,,,,,,,,,,,,,,,,,,,,,,,,,,,,,,,,,,,,,,,,,,,,,,,,,,,,,,,,,,,,,,,,,,
,,,,,,61372036e1916464a6165cf6,62c53a84b2daef25d43cd7ff,2022-07-06_09h32.53.305,Colour_Asymmetry_Pilot,2022.1.3,Win32,60.87538808,62c50e9c1127f2cd403a315f,0,35,35,3,1,twofour,,,,,,,,,,,,,,,,,,,,,,,,,,,,,,,,,,,,,,,,,,,,,,,,,,,,,,,,,,,,,,,,,,,,,,,,,,,,,,,,,,,,,,,,,,,,,,,,,,,,,,,,,,,,,,,,,,,,,,,,,,,,,,,,,,,,,,,,,,,,,,,,,,,,,,,,,,,,,
,,,,,,61372036e1916464a6165cf6,62c53a84b2daef25d43cd7ff,2022-07-06_09h32.53.305,Colour_Asymmetry_Pilot,2022.1.3,Win32,60.87538808,62c50e9c1127f2cd403a315f,0,36,36,53,1,threefour,,,,,,,,,,,,,,,,,,,,,,,,,,,,,,,,,,,,,,,,,,,,,,,,,,,,,,,,,,,,,,,,,,,,,,,,,,,,,,,,,,,,,,,,,,,,,,,,,,,,,,,,,,,,,,,,,,,,,,,,,,,,,,,,,,,,,,,,,,,,,,,,,,,,,,,,,,,,,
,,,,,,61372036e1916464a6165cf6,62c53a84b2daef25d43cd7ff,2022-07-06_09h32.53.305,Colour_Asymmetry_Pilot,2022.1.3,Win32,60.87538808,62c50e9c1127f2cd403a315f,0,37,37,31,1,fourthree,,,,,,,,,,,,,,,,,,,,,,,,,,,,,,,,,,,,,,,,,,,,,,,,,,,,,,,,,,,,,,,,,,,,,,,,,,,,,,,,,,,,,,,,,,,,,,,,,,,,,,,,,,,,,,,,,,,,,,,,,,,,,,,,,,,,,,,,,,,,,,,,,,,,,,,,,,,,,
,,,,,,61372036e1916464a6165cf6,62c53a84b2daef25d43cd7ff,2022-07-06_09h32.53.305,Colour_Asymmetry_Pilot,2022.1.3,Win32,60.87538808,62c50e9c1127f2cd403a315f,0,38,38,67,1,twofour,,,,,,,,,,,,,,,,,,,,,,,,,,,,,,,,,,,,,,,,,,,,,,,,,,,,,,,,,,,,,,,,,,,,,,,,,,,,,,,,,,,,,,,,,,,,,,,,,,,,,,,,,,,,,,,,,,,,,,,,,,,,,,,,,,,,,,,,,,,,,,,,,,,,,,,,,,,,,
,,,,,,61372036e1916464a6165cf6,62c53a84b2daef25d43cd7ff,2022-07-06_09h32.53.305,Colour_Asymmetry_Pilot,2022.1.3,Win32,60.87538808,62c50e9c1127f2cd403a315f,0,39,39,136,1,onetwo,,,,,,,,,,,,,,,,,,,,,,,,,,,,,,,,,,,,,,,,,,,,,,,,,,,,,,,,,,,,,,,,,,,,,,,,,,,,,,,,,,,,,,,,,,,,,,,,,,,,,,,,,,,,,,,,,,,,,,,,,,,,,,,,,,,,,,,,,,,,,,,,,,,,,,,,,,,,,
,,,,,,61372036e1916464a6165cf6,62c53a84b2daef25d43cd7ff,2022-07-06_09h32.53.305,Colour_Asymmetry_Pilot,2022.1.3,Win32,60.87538808,62c50e9c1127f2cd403a315f,0,40,40,76,1,threeone,,,,,,,,,,,,,,,,,,,,,,,,,,,,,,,,,,,,,,,,,,,,,,,,,,,,,,,,,,,,,,,,,,,,,,,,,,,,,,,,,,,,,,,,,,,,,,,,,,,,,,,,,,,,,,,,,,,,,,,,,,,,,,,,,,,,,,,,,,,,,,,,,,,,,,,,,,,,,
,,,,,,61372036e1916464a6165cf6,62c53a84b2daef25d43cd7ff,2022-07-06_09h32.53.305,Colour_Asymmetry_Pilot,2022.1.3,Win32,60.87538808,62c50e9c1127f2cd403a315f,0,41,41,128,1,onetwo,,,,,,,,,,,,,,,,,,,,,,,,,,,,,,,,,,,,,,,,,,,,,,,,,,,,,,,,,,,,,,,,,,,,,,,,,,,,,,,,,,,,,,,,,,,,,,,,,,,,,,,,,,,,,,,,,,,,,,,,,,,,,,,,,,,,,,,,,,,,,,,,,,,,,,,,,,,,,
,,,,,,61372036e1916464a6165cf6,62c53a84b2daef25d43cd7ff,2022-07-06_09h32.53.305,Colour_Asymmetry_Pilot,2022.1.3,Win32,60.87538808,62c50e9c1127f2cd403a315f,0,42,42,0,1,onetwo,,,,,,,,,,,,,,,,,,,,,,,,,,,,,,,,,,,,,,,,,,,,,,,,,,,,,,,,,,,,,,,,,,,,,,,,,,,,,,,,,,,,,,,,,,,,,,,,,,,,,,,,,,,,,,,,,,,,,,,,,,,,,,,,,,,,,,,,,,,,,,,,,,,,,,,,,,,,,
,,,,,,61372036e1916464a6165cf6,62c53a84b2daef25d43cd7ff,2022-07-06_09h32.53.305,Colour_Asymmetry_Pilot,2022.1.3,Win32,60.87538808,62c50e9c1127f2cd403a315f,0,43,43,61,1,threefour,,,,,,,,,,,,,,,,,,,,,,,,,,,,,,,,,,,,,,,,,,,,,,,,,,,,,,,,,,,,,,,,,,,,,,,,,,,,,,,,,,,,,,,,,,,,,,,,,,,,,,,,,,,,,,,,,,,,,,,,,,,,,,,,,,,,,,,,,,,,,,,,,,,,,,,,,,,,,
,,,,,,61372036e1916464a6165cf6,62c53a84b2daef25d43cd7ff,2022-07-06_09h32.53.305,Colour_Asymmetry_Pilot,2022.1.3,Win32,60.87538808,62c50e9c1127f2cd403a315f,0,44,44,141,1,threefour,,,,,,,,,,,,,,,,,,,,,,,,,,,,,,,,,,,,,,,,,,,,,,,,,,,,,,,,,,,,,,,,,,,,,,,,,,,,,,,,,,,,,,,,,,,,,,,,,,,,,,,,,,,,,,,,,,,,,,,,,,,,,,,,,,,,,,,,,,,,,,,,,,,,,,,,,,,,,
,,,,,,61372036e1916464a6165cf6,62c53a84b2daef25d43cd7ff,2022-07-06_09h32.53.305,Colour_Asymmetry_Pilot,2022.1.3,Win32,60.87538808,62c50e9c1127f2cd403a315f,0,45,45,64,1,onetwo,,,,,,,,,,,,,,,,,,,,,,,,,,,,,,,,,,,,,,,,,,,,,,,,,,,,,,,,,,,,,,,,,,,,,,,,,,,,,,,,,,,,,,,,,,,,,,,,,,,,,,,,,,,,,,,,,,,,,,,,,,,,,,,,,,,,,,,,,,,,,,,,,,,,,,,,,,,,,
,,,,,,61372036e1916464a6165cf6,62c53a84b2daef25d43cd7ff,2022-07-06_09h32.53.305,Colour_Asymmetry_Pilot,2022.1.3,Win32,60.87538808,62c50e9c1127f2cd403a315f,0,46,46,161,1,onethree,,,,,,,,,,,,,,,,,,,,,,,,,,,,,,,,,,,,,,,,,,,,,,,,,,,,,,,,,,,,,,,,,,,,,,,,,,,,,,,,,,,,,,,,,,,,,,,,,,,,,,,,,,,,,,,,,,,,,,,,,,,,,,,,,,,,,,,,,,,,,,,,,,,,,,,,,,,,,
,,,,,,61372036e1916464a6165cf6,62c53a84b2daef25d43cd7ff,2022-07-06_09h32.53.305,Colour_Asymmetry_Pilot,2022.1.3,Win32,60.87538808,62c50e9c1127f2cd403a315f,0,47,47,77,1,threefour,,,,,,,,,,,,,,,,,,,,,,,,,,,,,,,,,,,,,,,,,,,,,,,,,,,,,,,,,,,,,,,,,,,,,,,,,,,,,,,,,,,,,,,,,,,,,,,,,,,,,,,,,,,,,,,,,,,,,,,,,,,,,,,,,,,,,,,,,,,,,,,,,,,,,,,,,,,,,
,,,,,,61372036e1916464a6165cf6,62c53a84b2daef25d43cd7ff,2022-07-06_09h32.53.305,Colour_Asymmetry_Pilot,2022.1.3,Win32,60.87538808,62c50e9c1127f2cd403a315f,0,48,48,158,1,fourtwo,,,,,,,,,,,,,,,,,,,,,,,,,,,,,,,,,,,,,,,,,,,,,,,,,,,,,,,,,,,,,,,,,,,,,,,,,,,,,,,,,,,,,,,,,,,,,,,,,,,,,,,,,,,,,,,,,,,,,,,,,,,,,,,,,,,,,,,,,,,,,,,,,,,,,,,,,,,,,
,,,,,,61372036e1916464a6165cf6,62c53a84b2daef25d43cd7ff,2022-07-06_09h32.53.305,Colour_Asymmetry_Pilot,2022.1.3,Win32,60.87538808,62c50e9c1127f2cd403a315f,0,49,49,49,1,onethree,,,,,,,,,,,,,,,,,,,,,,,,,,,,,,,,,,,,,,,,,,,,,,,,,,,,,,,,,,,,,,,,,,,,,,,,,,,,,,,,,,,,,,,,,,,,,,,,,,,,,,,,,,,,,,,,,,,,,,,,,,,,,,,,,,,,,,,,,,,,,,,,,,,,,,,,,,,,,
,,,,,,61372036e1916464a6165cf6,62c53a84b2daef25d43cd7ff,2022-07-06_09h32.53.305,Colour_Asymmetry_Pilot,2022.1.3,Win32,60.87538808,62c50e9c1127f2cd403a315f,0,50,50,55,1,fourthree,,,,,,,,,,,,,,,,,,,,,,,,,,,,,,,,,,,,,,,,,,,,,,,,,,,,,,,,,,,,,,,,,,,,,,,,,,,,,,,,,,,,,,,,,,,,,,,,,,,,,,,,,,,,,,,,,,,,,,,,,,,,,,,,,,,,,,,,,,,,,,,,,,,,,,,,,,,,,
,,,,,,61372036e1916464a6165cf6,62c53a84b2daef25d43cd7ff,2022-07-06_09h32.53.305,Colour_Asymmetry_Pilot,2022.1.3,Win32,60.87538808,62c50e9c1127f2cd403a315f,0,51,51,14,1,fourtwo,,,,,,,,,,,,,,,,,,,,,,,,,,,,,,,,,,,,,,,,,,,,,,,,,,,,,,,,,,,,,,,,,,,,,,,,,,,,,,,,,,,,,,,,,,,,,,,,,,,,,,,,,,,,,,,,,,,,,,,,,,,,,,,,,,,,,,,,,,,,,,,,,,,,,,,,,,,,,
,,,,,,61372036e1916464a6165cf6,62c53a84b2daef25d43cd7ff,2022-07-06_09h32.53.305,Colour_Asymmetry_Pilot,2022.1.3,Win32,60.87538808,62c50e9c1127f2cd403a315f,0,52,52,7,1,fourthree,,,,,,,,,,,,,,,,,,,,,,,,,,,,,,,,,,,,,,,,,,,,,,,,,,,,,,,,,,,,,,,,,,,,,,,,,,,,,,,,,,,,,,,,,,,,,,,,,,,,,,,,,,,,,,,,,,,,,,,,,,,,,,,,,,,,,,,,,,,,,,,,,,,,,,,,,,,,,
,,,,,,61372036e1916464a6165cf6,62c53a84b2daef25d43cd7ff,2022-07-06_09h32.53.305,Colour_Asymmetry_Pilot,2022.1.3,Win32,60.87538808,62c50e9c1127f2cd403a315f,0,53,53,79,1,fourthree,,,,,,,,,,,,,,,,,,,,,,,,,,,,,,,,,,,,,,,,,,,,,,,,,,,,,,,,,,,,,,,,,,,,,,,,,,,,,,,,,,,,,,,,,,,,,,,,,,,,,,,,,,,,,,,,,,,,,,,,,,,,,,,,,,,,,,,,,,,,,,,,,,,,,,,,,,,,,
,,,,,,61372036e1916464a6165cf6,62c53a84b2daef25d43cd7ff,2022-07-06_09h32.53.305,Colour_Asymmetry_Pilot,2022.1.3,Win32,60.87538808,62c50e9c1127f2cd403a315f,0,54,54,110,1,fourtwo,,,,,,,,,,,,,,,,,,,,,,,,,,,,,,,,,,,,,,,,,,,,,,,,,,,,,,,,,,,,,,,,,,,,,,,,,,,,,,,,,,,,,,,,,,,,,,,,,,,,,,,,,,,,,,,,,,,,,,,,,,,,,,,,,,,,,,,,,,,,,,,,,,,,,,,,,,,,,
,,,,,,61372036e1916464a6165cf6,62c53a84b2daef25d43cd7ff,2022-07-06_09h32.53.305,Colour_Asymmetry_Pilot,2022.1.3,Win32,60.87538808,62c50e9c1127f2cd403a315f,0,55,55,140,1,threeone,,,,,,,,,,,,,,,,,,,,,,,,,,,,,,,,,,,,,,,,,,,,,,,,,,,,,,,,,,,,,,,,,,,,,,,,,,,,,,,,,,,,,,,,,,,,,,,,,,,,,,,,,,,,,,,,,,,,,,,,,,,,,,,,,,,,,,,,,,,,,,,,,,,,,,,,,,,,,
,,,,,,61372036e1916464a6165cf6,62c53a84b2daef25d43cd7ff,2022-07-06_09h32.53.305,Colour_Asymmetry_Pilot,2022.1.3,Win32,60.87538808,62c50e9c1127f2cd403a315f,0,56,56,22,1,fourtwo,,,,,,,,,,,,,,,,,,,,,,,,,,,,,,,,,,,,,,,,,,,,,,,,,,,,,,,,,,,,,,,,,,,,,,,,,,,,,,,,,,,,,,,,,,,,,,,,,,,,,,,,,,,,,,,,,,,,,,,,,,,,,,,,,,,,,,,,,,,,,,,,,,,,,,,,,,,,,
,,,,,,61372036e1916464a6165cf6,62c53a84b2daef25d43cd7ff,2022-07-06_09h32.53.305,Colour_Asymmetry_Pilot,2022.1.3,Win32,60.87538808,62c50e9c1127f2cd403a315f,0,57,57,11,1,twofour,,,,,,,,,,,,,,,,,,,,,,,,,,,,,,,,,,,,,,,,,,,,,,,,,,,,,,,,,,,,,,,,,,,,,,,,,,,,,,,,,,,,,,,,,,,,,,,,,,,,,,,,,,,,,,,,,,,,,,,,,,,,,,,,,,,,,,,,,,,,,,,,,,,,,,,,,,,,,
,,,,,,61372036e1916464a6165cf6,62c53a84b2daef25d43cd7ff,2022-07-06_09h32.53.305,Colour_Asymmetry_Pilot,2022.1.3,Win32,60.87538808,62c50e9c1127f2cd403a315f,0,58,58,20,1,threeone,,,,,,,,,,,,,,,,,,,,,,,,,,,,,,,,,,,,,,,,,,,,,,,,,,,,,,,,,,,,,,,,,,,,,,,,,,,,,,,,,,,,,,,,,,,,,,,,,,,,,,,,,,,,,,,,,,,,,,,,,,,,,,,,,,,,,,,,,,,,,,,,,,,,,,,,,,,,,
,,,,,,61372036e1916464a6165cf6,62c53a84b2daef25d43cd7ff,2022-07-06_09h32.53.305,Colour_Asymmetry_Pilot,2022.1.3,Win32,60.87538808,62c50e9c1127f2cd403a315f,0,59,59,160,1,onetwo,,,,,,,,,,,,,,,,,,,,,,,,,,,,,,,,,,,,,,,,,,,,,,,,,,,,,,,,,,,,,,,,,,,,,,,,,,,,,,,,,,,,,,,,,,,,,,,,,,,,,,,,,,,,,,,,,,,,,,,,,,,,,,,,,,,,,,,,,,,,,,,,,,,,,,,,,,,,,
,,,,,,61372036e1916464a6165cf6,62c53a84b2daef25d43cd7ff,2022-07-06_09h32.53.305,Colour_Asymmetry_Pilot,2022.1.3,Win32,60.87538808,62c50e9c1127f2cd403a315f,0,60,60,94,1,fourtwo,,,,,,,,,,,,,,,,,,,,,,,,,,,,,,,,,,,,,,,,,,,,,,,,,,,,,,,,,,,,,,,,,,,,,,,,,,,,,,,,,,,,,,,,,,,,,,,,,,,,,,,,,,,,,,,,,,,,,,,,,,,,,,,,,,,,,,,,,,,,,,,,,,,,,,,,,,,,,
,,,,,,61372036e1916464a6165cf6,62c53a84b2daef25d43cd7ff,2022-07-06_09h32.53.305,Colour_Asymmetry_Pilot,2022.1.3,Win32,60.87538808,62c50e9c1127f2cd403a315f,0,61,61,159,1,fourthree,,,,,,,,,,,,,,,,,,,,,,,,,,,,,,,,,,,,,,,,,,,,,,,,,,,,,,,,,,,,,,,,,,,,,,,,,,,,,,,,,,,,,,,,,,,,,,,,,,,,,,,,,,,,,,,,,,,,,,,,,,,,,,,,,,,,,,,,,,,,,,,,,,,,,,,,,,,,,
,,,,,,61372036e1916464a6165cf6,62c53a84b2daef25d43cd7ff,2022-07-06_09h32.53.305,Colour_Asymmetry_Pilot,2022.1.3,Win32,60.87538808,62c50e9c1127f2cd403a315f,0,62,62,33,1,onethree,,,,,,,,,,,,,,,,,,,,,,,,,,,,,,,,,,,,,,,,,,,,,,,,,,,,,,,,,,,,,,,,,,,,,,,,,,,,,,,,,,,,,,,,,,,,,,,,,,,,,,,,,,,,,,,,,,,,,,,,,,,,,,,,,,,,,,,,,,,,,,,,,,,,,,,,,,,,,
,,,,,,61372036e1916464a6165cf6,62c53a84b2daef25d43cd7ff,2022-07-06_09h32.53.305,Colour_Asymmetry_Pilot,2022.1.3,Win32,60.87538808,62c50e9c1127f2cd403a315f,0,63,63,99,1,twofour,,,,,,,,,,,,,,,,,,,,,,,,,,,,,,,,,,,,,,,,,,,,,,,,,,,,,,,,,,,,,,,,,,,,,,,,,,,,,,,,,,,,,,,,,,,,,,,,,,,,,,,,,,,,,,,,,,,,,,,,,,,,,,,,,,,,,,,,,,,,,,,,,,,,,,,,,,,,,
,,,,,,61372036e1916464a6165cf6,62c53a84b2daef25d43cd7ff,2022-07-06_09h32.53.305,Colour_Asymmetry_Pilot,2022.1.3,Win32,60.87538808,62c50e9c1127f2cd403a315f,0,64,64,126,1,fourtwo,,,,,,,,,,,,,,,,,,,,,,,,,,,,,,,,,,,,,,,,,,,,,,,,,,,,,,,,,,,,,,,,,,,,,,,,,,,,,,,,,,,,,,,,,,,,,,,,,,,,,,,,,,,,,,,,,,,,,,,,,,,,,,,,,,,,,,,,,,,,,,,,,,,,,,,,,,,,,
,,,,,,61372036e1916464a6165cf6,62c53a84b2daef25d43cd7ff,2022-07-06_09h32.53.305,Colour_Asymmetry_Pilot,2022.1.3,Win32,60.87538808,62c50e9c1127f2cd403a315f,0,65,65,123,1,twofour,,,,,,,,,,,,,,,,,,,,,,,,,,,,,,,,,,,,,,,,,,,,,,,,,,,,,,,,,,,,,,,,,,,,,,,,,,,,,,,,,,,,,,,,,,,,,,,,,,,,,,,,,,,,,,,,,,,,,,,,,,,,,,,,,,,,,,,,,,,,,,,,,,,,,,,,,,,,,
,,,,,,61372036e1916464a6165cf6,62c53a84b2daef25d43cd7ff,2022-07-06_09h32.53.305,Colour_Asymmetry_Pilot,2022.1.3,Win32,60.87538808,62c50e9c1127f2cd403a315f,0,66,66,9,1,onethree,,,,,,,,,,,,,,,,,,,,,,,,,,,,,,,,,,,,,,,,,,,,,,,,,,,,,,,,,,,,,,,,,,,,,,,,,,,,,,,,,,,,,,,,,,,,,,,,,,,,,,,,,,,,,,,,,,,,,,,,,,,,,,,,,,,,,,,,,,,,,,,,,,,,,,,,,,,,,
,,,,,,61372036e1916464a6165cf6,62c53a84b2daef25d43cd7ff,2022-07-06_09h32.53.305,Colour_Asymmetry_Pilot,2022.1.3,Win32,60.87538808,62c50e9c1127f2cd403a315f,0,67,67,10,1,twoone,,,,,,,,,,,,,,,,,,,,,,,,,,,,,,,,,,,,,,,,,,,,,,,,,,,,,,,,,,,,,,,,,,,,,,,,,,,,,,,,,,,,,,,,,,,,,,,,,,,,,,,,,,,,,,,,,,,,,,,,,,,,,,,,,,,,,,,,,,,,,,,,,,,,,,,,,,,,,
,,,,,,61372036e1916464a6165cf6,62c53a84b2daef25d43cd7ff,2022-07-06_09h32.53.305,Colour_Asymmetry_Pilot,2022.1.3,Win32,60.87538808,62c50e9c1127f2cd403a315f,0,68,68,32,1,onetwo,,,,,,,,,,,,,,,,,,,,,,,,,,,,,,,,,,,,,,,,,,,,,,,,,,,,,,,,,,,,,,,,,,,,,,,,,,,,,,,,,,,,,,,,,,,,,,,,,,,,,,,,,,,,,,,,,,,,,,,,,,,,,,,,,,,,,,,,,,,,,,,,,,,,,,,,,,,,,
,,,,,,61372036e1916464a6165cf6,62c53a84b2daef25d43cd7ff,2022-07-06_09h32.53.305,Colour_Asymmetry_Pilot,2022.1.3,Win32,60.87538808,62c50e9c1127f2cd403a315f,0,69,69,62,1,fourtwo,,,,,,,,,,,,,,,,,,,,,,,,,,,,,,,,,,,,,,,,,,,,,,,,,,,,,,,,,,,,,,,,,,,,,,,,,,,,,,,,,,,,,,,,,,,,,,,,,,,,,,,,,,,,,,,,,,,,,,,,,,,,,,,,,,,,,,,,,,,,,,,,,,,,,,,,,,,,,
,,,,,,61372036e1916464a6165cf6,62c53a84b2daef25d43cd7ff,2022-07-06_09h32.53.305,Colour_Asymmetry_Pilot,2022.1.3,Win32,60.87538808,62c50e9c1127f2cd403a315f,0,70,70,65,1,onethree,,,,,,,,,,,,,,,,,,,,,,,,,,,,,,,,,,,,,,,,,,,,,,,,,,,,,,,,,,,,,,,,,,,,,,,,,,,,,,,,,,,,,,,,,,,,,,,,,,,,,,,,,,,,,,,,,,,,,,,,,,,,,,,,,,,,,,,,,,,,,,,,,,,,,,,,,,,,,
,,,,,,61372036e1916464a6165cf6,62c53a84b2daef25d43cd7ff,2022-07-06_09h32.53.305,Colour_Asymmetry_Pilot,2022.1.3,Win32,60.87538808,62c50e9c1127f2cd403a315f,0,71,71,105,1,onethree,,,,,,,,,,,,,,,,,,,,,,,,,,,,,,,,,,,,,,,,,,,,,,,,,,,,,,,,,,,,,,,,,,,,,,,,,,,,,,,,,,,,,,,,,,,,,,,,,,,,,,,,,,,,,,,,,,,,,,,,,,,,,,,,,,,,,,,,,,,,,,,,,,,,,,,,,,,,,
,,,,,,61372036e1916464a6165cf6,62c53a84b2daef25d43cd7ff,2022-07-06_09h32.53.305,Colour_Asymmetry_Pilot,2022.1.3,Win32,60.87538808,62c50e9c1127f2cd403a315f,0,72,72,38,1,fourtwo,,,,,,,,,,,,,,,,,,,,,,,,,,,,,,,,,,,,,,,,,,,,,,,,,,,,,,,,,,,,,,,,,,,,,,,,,,,,,,,,,,,,,,,,,,,,,,,,,,,,,,,,,,,,,,,,,,,,,,,,,,,,,,,,,,,,,,,,,,,,,,,,,,,,,,,,,,,,,
,,,,,,61372036e1916464a6165cf6,62c53a84b2daef25d43cd7ff,2022-07-06_09h32.53.305,Colour_Asymmetry_Pilot,2022.1.3,Win32,60.87538808,62c50e9c1127f2cd403a315f,0,73,73,148,1,threeone,,,,,,,,,,,,,,,,,,,,,,,,,,,,,,,,,,,,,,,,,,,,,,,,,,,,,,,,,,,,,,,,,,,,,,,,,,,,,,,,,,,,,,,,,,,,,,,,,,,,,,,,,,,,,,,,,,,,,,,,,,,,,,,,,,,,,,,,,,,,,,,,,,,,,,,,,,,,,
,,,,,,61372036e1916464a6165cf6,62c53a84b2daef25d43cd7ff,2022-07-06_09h32.53.305,Colour_Asymmetry_Pilot,2022.1.3,Win32,60.87538808,62c50e9c1127f2cd403a315f,0,74,74,157,1,threefour,,,,,,,,,,,,,,,,,,,,,,,,,,,,,,,,,,,,,,,,,,,,,,,,,,,,,,,,,,,,,,,,,,,,,,,,,,,,,,,,,,,,,,,,,,,,,,,,,,,,,,,,,,,,,,,,,,,,,,,,,,,,,,,,,,,,,,,,,,,,,,,,,,,,,,,,,,,,,
,,,,,,61372036e1916464a6165cf6,62c53a84b2daef25d43cd7ff,2022-07-06_09h32.53.305,Colour_Asymmetry_Pilot,2022.1.3,Win32,60.87538808,62c50e9c1127f2cd403a315f,0,75,75,132,1,threeone,,,,,,,,,,,,,,,,,,,,,,,,,,,,,,,,,,,,,,,,,,,,,,,,,,,,,,,,,,,,,,,,,,,,,,,,,,,,,,,,,,,,,,,,,,,,,,,,,,,,,,,,,,,,,,,,,,,,,,,,,,,,,,,,,,,,,,,,,,,,,,,,,,,,,,,,,,,,,
,,,,,,61372036e1916464a6165cf6,62c53a84b2daef25d43cd7ff,2022-07-06_09h32.53.305,Colour_Asymmetry_Pilot,2022.1.3,Win32,60.87538808,62c50e9c1127f2cd403a315f,0,76,76,90,1,twoone,,,,,,,,,,,,,,,,,,,,,,,,,,,,,,,,,,,,,,,,,,,,,,,,,,,,,,,,,,,,,,,,,,,,,,,,,,,,,,,,,,,,,,,,,,,,,,,,,,,,,,,,,,,,,,,,,,,,,,,,,,,,,,,,,,,,,,,,,,,,,,,,,,,,,,,,,,,,,
,,,,,,61372036e1916464a6165cf6,62c53a84b2daef25d43cd7ff,2022-07-06_09h32.53.305,Colour_Asymmetry_Pilot,2022.1.3,Win32,60.87538808,62c50e9c1127f2cd403a315f,0,77,77,150,1,fourtwo,,,,,,,,,,,,,,,,,,,,,,,,,,,,,,,,,,,,,,,,,,,,,,,,,,,,,,,,,,,,,,,,,,,,,,,,,,,,,,,,,,,,,,,,,,,,,,,,,,,,,,,,,,,,,,,,,,,,,,,,,,,,,,,,,,,,,,,,,,,,,,,,,,,,,,,,,,,,,
,,,,,,61372036e1916464a6165cf6,62c53a84b2daef25d43cd7ff,2022-07-06_09h32.53.305,Colour_Asymmetry_Pilot,2022.1.3,Win32,60.87538808,62c50e9c1127f2cd403a315f,0,78,78,144,1,onetwo,,,,,,,,,,,,,,,,,,,,,,,,,,,,,,,,,,,,,,,,,,,,,,,,,,,,,,,,,,,,,,,,,,,,,,,,,,,,,,,,,,,,,,,,,,,,,,,,,,,,,,,,,,,,,,,,,,,,,,,,,,,,,,,,,,,,,,,,,,,,,,,,,,,,,,,,,,,,,
,,,,,,61372036e1916464a6165cf6,62c53a84b2daef25d43cd7ff,2022-07-06_09h32.53.305,Colour_Asymmetry_Pilot,2022.1.3,Win32,60.87538808,62c50e9c1127f2cd403a315f,0,79,79,45,1,threefour,,,,,,,,,,,,,,,,,,,,,,,,,,,,,,,,,,,,,,,,,,,,,,,,,,,,,,,,,,,,,,,,,,,,,,,,,,,,,,,,,,,,,,,,,,,,,,,,,,,,,,,,,,,,,,,,,,,,,,,,,,,,,,,,,,,,,,,,,,,,,,,,,,,,,,,,,,,,,
,,,,,,61372036e1916464a6165cf6,62c53a84b2daef25d43cd7ff,2022-07-06_09h32.53.305,Colour_Asymmetry_Pilot,2022.1.3,Win32,60.87538808,62c50e9c1127f2cd403a315f,0,80,80,74,1,twoone,,,,,,,,,,,,,,,,,,,,,,,,,,,,,,,,,,,,,,,,,,,,,,,,,,,,,,,,,,,,,,,,,,,,,,,,,,,,,,,,,,,,,,,,,,,,,,,,,,,,,,,,,,,,,,,,,,,,,,,,,,,,,,,,,,,,,,,,,,,,,,,,,,,,,,,,,,,,,
,,,,,,61372036e1916464a6165cf6,62c53a84b2daef25d43cd7ff,2022-07-06_09h32.53.305,Colour_Asymmetry_Pilot,2022.1.3,Win32,60.87538808,62c50e9c1127f2cd403a315f,0,81,81,89,1,onethree,,,,,,,,,,,,,,,,,,,,,,,,,,,,,,,,,,,,,,,,,,,,,,,,,,,,,,,,,,,,,,,,,,,,,,,,,,,,,,,,,,,,,,,,,,,,,,,,,,,,,,,,,,,,,,,,,,,,,,,,,,,,,,,,,,,,,,,,,,,,,,,,,,,,,,,,,,,,,
,,,,,,61372036e1916464a6165cf6,62c53a84b2daef25d43cd7ff,2022-07-06_09h32.53.305,Colour_Asymmetry_Pilot,2022.1.3,Win32,60.87538808,62c50e9c1127f2cd403a315f,0,82,82,149,1,threefour,,,,,,,,,,,,,,,,,,,,,,,,,,,,,,,,,,,,,,,,,,,,,,,,,,,,,,,,,,,,,,,,,,,,,,,,,,,,,,,,,,,,,,,,,,,,,,,,,,,,,,,,,,,,,,,,,,,,,,,,,,,,,,,,,,,,,,,,,,,,,,,,,,,,,,,,,,,,,
,,,,,,61372036e1916464a6165cf6,62c53a84b2daef25d43cd7ff,2022-07-06_09h32.53.305,Colour_Asymmetry_Pilot,2022.1.3,Win32,60.87538808,62c50e9c1127f2cd403a315f,0,83,83,100,1,threeone,,,,,,,,,,,,,,,,,,,,,,,,,,,,,,,,,,,,,,,,,,,,,,,,,,,,,,,,,,,,,,,,,,,,,,,,,,,,,,,,,,,,,,,,,,,,,,,,,,,,,,,,,,,,,,,,,,,,,,,,,,,,,,,,,,,,,,,,,,,,,,,,,,,,,,,,,,,,,
,,,,,,61372036e1916464a6165cf6,62c53a84b2daef25d43cd7ff,2022-07-06_09h32.53.305,Colour_Asymmetry_Pilot,2022.1.3,Win32,60.87538808,62c50e9c1127f2cd403a315f,0,84,84,95,1,fourthree,,,,,,,,,,,,,,,,,,,,,,,,,,,,,,,,,,,,,,,,,,,,,,,,,,,,,,,,,,,,,,,,,,,,,,,,,,,,,,,,,,,,,,,,,,,,,,,,,,,,,,,,,,,,,,,,,,,,,,,,,,,,,,,,,,,,,,,,,,,,,,,,,,,,,,,,,,,,,
,,,,,,61372036e1916464a6165cf6,62c53a84b2daef25d43cd7ff,2022-07-06_09h32.53.305,Colour_Asymmetry_Pilot,2022.1.3,Win32,60.87538808,62c50e9c1127f2cd403a315f,0,85,85,119,1,fourthree,,,,,,,,,,,,,,,,,,,,,,,,,,,,,,,,,,,,,,,,,,,,,,,,,,,,,,,,,,,,,,,,,,,,,,,,,,,,,,,,,,,,,,,,,,,,,,,,,,,,,,,,,,,,,,,,,,,,,,,,,,,,,,,,,,,,,,,,,,,,,,,,,,,,,,,,,,,,,
,,,,,,61372036e1916464a6165cf6,62c53a84b2daef25d43cd7ff,2022-07-06_09h32.53.305,Colour_Asymmetry_Pilot,2022.1.3,Win32,60.87538808,62c50e9c1127f2cd403a315f,0,86,86,124,1,threeone,,,,,,,,,,,,,,,,,,,,,,,,,,,,,,,,,,,,,,,,,,,,,,,,,,,,,,,,,,,,,,,,,,,,,,,,,,,,,,,,,,,,,,,,,,,,,,,,,,,,,,,,,,,,,,,,,,,,,,,,,,,,,,,,,,,,,,,,,,,,,,,,,,,,,,,,,,,,,
,,,,,,61372036e1916464a6165cf6,62c53a84b2daef25d43cd7ff,2022-07-06_09h32.53.305,Colour_Asymmetry_Pilot,2022.1.3,Win32,60.87538808,62c50e9c1127f2cd403a315f,0,87,87,41,1,onethree,,,,,,,,,,,,,,,,,,,,,,,,,,,,,,,,,,,,,,,,,,,,,,,,,,,,,,,,,,,,,,,,,,,,,,,,,,,,,,,,,,,,,,,,,,,,,,,,,,,,,,,,,,,,,,,,,,,,,,,,,,,,,,,,,,,,,,,,,,,,,,,,,,,,,,,,,,,,,
,,,,,,61372036e1916464a6165cf6,62c53a84b2daef25d43cd7ff,2022-07-06_09h32.53.305,Colour_Asymmetry_Pilot,2022.1.3,Win32,60.87538808,62c50e9c1127f2cd403a315f,0,88,88,29,1,threefour,,,,,,,,,,,,,,,,,,,,,,,,,,,,,,,,,,,,,,,,,,,,,,,,,,,,,,,,,,,,,,,,,,,,,,,,,,,,,,,,,,,,,,,,,,,,,,,,,,,,,,,,,,,,,,,,,,,,,,,,,,,,,,,,,,,,,,,,,,,,,,,,,,,,,,,,,,,,,
,,,,,,61372036e1916464a6165cf6,62c53a84b2daef25d43cd7ff,2022-07-06_09h32.53.305,Colour_Asymmetry_Pilot,2022.1.3,Win32,60.87538808,62c50e9c1127f2cd403a315f,0,89,89,107,1,twofour,,,,,,,,,,,,,,,,,,,,,,,,,,,,,,,,,,,,,,,,,,,,,,,,,,,,,,,,,,,,,,,,,,,,,,,,,,,,,,,,,,,,,,,,,,,,,,,,,,,,,,,,,,,,,,,,,,,,,,,,,,,,,,,,,,,,,,,,,,,,,,,,,,,,,,,,,,,,,
,,,,,,61372036e1916464a6165cf6,62c53a84b2daef25d43cd7ff,2022-07-06_09h32.53.305,Colour_Asymmetry_Pilot,2022.1.3,Win32,60.87538808,62c50e9c1127f2cd403a315f,0,90,90,25,1,onethree,,,,,,,,,,,,,,,,,,,,,,,,,,,,,,,,,,,,,,,,,,,,,,,,,,,,,,,,,,,,,,,,,,,,,,,,,,,,,,,,,,,,,,,,,,,,,,,,,,,,,,,,,,,,,,,,,,,,,,,,,,,,,,,,,,,,,,,,,,,,,,,,,,,,,,,,,,,,,
,,,,,,61372036e1916464a6165cf6,62c53a84b2daef25d43cd7ff,2022-07-06_09h32.53.305,Colour_Asymmetry_Pilot,2022.1.3,Win32,60.87538808,62c50e9c1127f2cd403a315f,0,91,91,50,1,twoone,,,,,,,,,,,,,,,,,,,,,,,,,,,,,,,,,,,,,,,,,,,,,,,,,,,,,,,,,,,,,,,,,,,,,,,,,,,,,,,,,,,,,,,,,,,,,,,,,,,,,,,,,,,,,,,,,,,,,,,,,,,,,,,,,,,,,,,,,,,,,,,,,,,,,,,,,,,,,
,,,,,,61372036e1916464a6165cf6,62c53a84b2daef25d43cd7ff,2022-07-06_09h32.53.305,Colour_Asymmetry_Pilot,2022.1.3,Win32,60.87538808,62c50e9c1127f2cd403a315f,0,92,92,155,1,twofour,,,,,,,,,,,,,,,,,,,,,,,,,,,,,,,,,,,,,,,,,,,,,,,,,,,,,,,,,,,,,,,,,,,,,,,,,,,,,,,,,,,,,,,,,,,,,,,,,,,,,,,,,,,,,,,,,,,,,,,,,,,,,,,,,,,,,,,,,,,,,,,,,,,,,,,,,,,,,
,,,,,,61372036e1916464a6165cf6,62c53a84b2daef25d43cd7ff,2022-07-06_09h32.53.305,Colour_Asymmetry_Pilot,2022.1.3,Win32,60.87538808,62c50e9c1127f2cd403a315f,0,93,93,27,1,twofour,,,,,,,,,,,,,,,,,,,,,,,,,,,,,,,,,,,,,,,,,,,,,,,,,,,,,,,,,,,,,,,,,,,,,,,,,,,,,,,,,,,,,,,,,,,,,,,,,,,,,,,,,,,,,,,,,,,,,,,,,,,,,,,,,,,,,,,,,,,,,,,,,,,,,,,,,,,,,
,,,,,,61372036e1916464a6165cf6,62c53a84b2daef25d43cd7ff,2022-07-06_09h32.53.305,Colour_Asymmetry_Pilot,2022.1.3,Win32,60.87538808,62c50e9c1127f2cd403a315f,0,94,94,24,1,onetwo,,,,,,,,,,,,,,,,,,,,,,,,,,,,,,,,,,,,,,,,,,,,,,,,,,,,,,,,,,,,,,,,,,,,,,,,,,,,,,,,,,,,,,,,,,,,,,,,,,,,,,,,,,,,,,,,,,,,,,,,,,,,,,,,,,,,,,,,,,,,,,,,,,,,,,,,,,,,,
,,,,,,61372036e1916464a6165cf6,62c53a84b2daef25d43cd7ff,2022-07-06_09h32.53.305,Colour_Asymmetry_Pilot,2022.1.3,Win32,60.87538808,62c50e9c1127f2cd403a315f,0,95,95,56,1,onetwo,,,,,,,,,,,,,,,,,,,,,,,,,,,,,,,,,,,,,,,,,,,,,,,,,,,,,,,,,,,,,,,,,,,,,,,,,,,,,,,,,,,,,,,,,,,,,,,,,,,,,,,,,,,,,,,,,,,,,,,,,,,,,,,,,,,,,,,,,,,,,,,,,,,,,,,,,,,,,
,,,,,,61372036e1916464a6165cf6,62c53a84b2daef25d43cd7ff,2022-07-06_09h32.53.305,Colour_Asymmetry_Pilot,2022.1.3,Win32,60.87538808,62c50e9c1127f2cd403a315f,0,96,96,58,1,twoone,,,,,,,,,,,,,,,,,,,,,,,,,,,,,,,,,,,,,,,,,,,,,,,,,,,,,,,,,,,,,,,,,,,,,,,,,,,,,,,,,,,,,,,,,,,,,,,,,,,,,,,,,,,,,,,,,,,,,,,,,,,,,,,,,,,,,,,,,,,,,,,,,,,,,,,,,,,,,
,,,,,,61372036e1916464a6165cf6,62c53a84b2daef25d43cd7ff,2022-07-06_09h32.53.305,Colour_Asymmetry_Pilot,2022.1.3,Win32,60.87538808,62c50e9c1127f2cd403a315f,0,97,97,125,1,threefour,,,,,,,,,,,,,,,,,,,,,,,,,,,,,,,,,,,,,,,,,,,,,,,,,,,,,,,,,,,,,,,,,,,,,,,,,,,,,,,,,,,,,,,,,,,,,,,,,,,,,,,,,,,,,,,,,,,,,,,,,,,,,,,,,,,,,,,,,,,,,,,,,,,,,,,,,,,,,
,,,,,,61372036e1916464a6165cf6,62c53a84b2daef25d43cd7ff,2022-07-06_09h32.53.305,Colour_Asymmetry_Pilot,2022.1.3,Win32,60.87538808,62c50e9c1127f2cd403a315f,0,98,98,83,1,twofour,,,,,,,,,,,,,,,,,,,,,,,,,,,,,,,,,,,,,,,,,,,,,,,,,,,,,,,,,,,,,,,,,,,,,,,,,,,,,,,,,,,,,,,,,,,,,,,,,,,,,,,,,,,,,,,,,,,,,,,,,,,,,,,,,,,,,,,,,,,,,,,,,,,,,,,,,,,,,
,,,,,,61372036e1916464a6165cf6,62c53a84b2daef25d43cd7ff,2022-07-06_09h32.53.305,Colour_Asymmetry_Pilot,2022.1.3,Win32,60.87538808,62c50e9c1127f2cd403a315f,0,99,99,4,1,threeone,,,,,,,,,,,,,,,,,,,,,,,,,,,,,,,,,,,,,,,,,,,,,,,,,,,,,,,,,,,,,,,,,,,,,,,,,,,,,,,,,,,,,,,,,,,,,,,,,,,,,,,,,,,,,,,,,,,,,,,,,,,,,,,,,,,,,,,,,,,,,,,,,,,,,,,,,,,,,
,,,,,,61372036e1916464a6165cf6,62c53a84b2daef25d43cd7ff,2022-07-06_09h32.53.305,Colour_Asymmetry_Pilot,2022.1.3,Win32,60.87538808,62c50e9c1127f2cd403a315f,0,100,100,42,1,twoone,,,,,,,,,,,,,,,,,,,,,,,,,,,,,,,,,,,,,,,,,,,,,,,,,,,,,,,,,,,,,,,,,,,,,,,,,,,,,,,,,,,,,,,,,,,,,,,,,,,,,,,,,,,,,,,,,,,,,,,,,,,,,,,,,,,,,,,,,,,,,,,,,,,,,,,,,,,,,
,,,,,,61372036e1916464a6165cf6,62c53a84b2daef25d43cd7ff,2022-07-06_09h32.53.305,Colour_Asymmetry_Pilot,2022.1.3,Win32,60.87538808,62c50e9c1127f2cd403a315f,0,101,101,34,1,twoone,,,,,,,,,,,,,,,,,,,,,,,,,,,,,,,,,,,,,,,,,,,,,,,,,,,,,,,,,,,,,,,,,,,,,,,,,,,,,,,,,,,,,,,,,,,,,,,,,,,,,,,,,,,,,,,,,,,,,,,,,,,,,,,,,,,,,,,,,,,,,,,,,,,,,,,,,,,,,
,,,,,,61372036e1916464a6165cf6,62c53a84b2daef25d43cd7ff,2022-07-06_09h32.53.305,Colour_Asymmetry_Pilot,2022.1.3,Win32,60.87538808,62c50e9c1127f2cd403a315f,0,102,102,5,1,threefour,,,,,,,,,,,,,,,,,,,,,,,,,,,,,,,,,,,,,,,,,,,,,,,,,,,,,,,,,,,,,,,,,,,,,,,,,,,,,,,,,,,,,,,,,,,,,,,,,,,,,,,,,,,,,,,,,,,,,,,,,,,,,,,,,,,,,,,,,,,,,,,,,,,,,,,,,,,,,
,,,,,,61372036e1916464a6165cf6,62c53a84b2daef25d43cd7ff,2022-07-06_09h32.53.305,Colour_Asymmetry_Pilot,2022.1.3,Win32,60.87538808,62c50e9c1127f2cd403a315f,0,103,103,18,1,twoone,,,,,,,,,,,,,,,,,,,,,,,,,,,,,,,,,,,,,,,,,,,,,,,,,,,,,,,,,,,,,,,,,,,,,,,,,,,,,,,,,,,,,,,,,,,,,,,,,,,,,,,,,,,,,,,,,,,,,,,,,,,,,,,,,,,,,,,,,,,,,,,,,,,,,,,,,,,,,
,,,,,,61372036e1916464a6165cf6,62c53a84b2daef25d43cd7ff,2022-07-06_09h32.53.305,Colour_Asymmetry_Pilot,2022.1.3,Win32,60.87538808,62c50e9c1127f2cd403a315f,0,104,104,134,1,fourtwo,,,,,,,,,,,,,,,,,,,,,,,,,,,,,,,,,,,,,,,,,,,,,,,,,,,,,,,,,,,,,,,,,,,,,,,,,,,,,,,,,,,,,,,,,,,,,,,,,,,,,,,,,,,,,,,,,,,,,,,,,,,,,,,,,,,,,,,,,,,,,,,,,,,,,,,,,,,,,
,,,,,,61372036e1916464a6165cf6,62c53a84b2daef25d43cd7ff,2022-07-06_09h32.53.305,Colour_Asymmetry_Pilot,2022.1.3,Win32,60.87538808,62c50e9c1127f2cd403a315f,0,105,105,2,1,twoone,,,,,,,,,,,,,,,,,,,,,,,,,,,,,,,,,,,,,,,,,,,,,,,,,,,,,,,,,,,,,,,,,,,,,,,,,,,,,,,,,,,,,,,,,,,,,,,,,,,,,,,,,,,,,,,,,,,,,,,,,,,,,,,,,,,,,,,,,,,,,,,,,,,,,,,,,,,,,
,,,,,,61372036e1916464a6165cf6,62c53a84b2daef25d43cd7ff,2022-07-06_09h32.53.305,Colour_Asymmetry_Pilot,2022.1.3,Win32,60.87538808,62c50e9c1127f2cd403a315f,0,106,106,111,1,fourthree,,,,,,,,,,,,,,,,,,,,,,,,,,,,,,,,,,,,,,,,,,,,,,,,,,,,,,,,,,,,,,,,,,,,,,,,,,,,,,,,,,,,,,,,,,,,,,,,,,,,,,,,,,,,,,,,,,,,,,,,,,,,,,,,,,,,,,,,,,,,,,,,,,,,,,,,,,,,,
,,,,,,61372036e1916464a6165cf6,62c53a84b2daef25d43cd7ff,2022-07-06_09h32.53.305,Colour_Asymmetry_Pilot,2022.1.3,Win32,60.87538808,62c50e9c1127f2cd403a315f,0,107,107,66,1,twoone,,,,,,,,,,,,,,,,,,,,,,,,,,,,,,,,,,,,,,,,,,,,,,,,,,,,,,,,,,,,,,,,,,,,,,,,,,,,,,,,,,,,,,,,,,,,,,,,,,,,,,,,,,,,,,,,,,,,,,,,,,,,,,,,,,,,,,,,,,,,,,,,,,,,,,,,,,,,,
,,,,,,61372036e1916464a6165cf6,62c53a84b2daef25d43cd7ff,2022-07-06_09h32.53.305,Colour_Asymmetry_Pilot,2022.1.3,Win32,60.87538808,62c50e9c1127f2cd403a315f,0,108,108,78,1,fourtwo,,,,,,,,,,,,,,,,,,,,,,,,,,,,,,,,,,,,,,,,,,,,,,,,,,,,,,,,,,,,,,,,,,,,,,,,,,,,,,,,,,,,,,,,,,,,,,,,,,,,,,,,,,,,,,,,,,,,,,,,,,,,,,,,,,,,,,,,,,,,,,,,,,,,,,,,,,,,,
,,,,,,61372036e1916464a6165cf6,62c53a84b2daef25d43cd7ff,2022-07-06_09h32.53.305,Colour_Asymmetry_Pilot,2022.1.3,Win32,60.87538808,62c50e9c1127f2cd403a315f,0,109,109,57,1,onethree,,,,,,,,,,,,,,,,,,,,,,,,,,,,,,,,,,,,,,,,,,,,,,,,,,,,,,,,,,,,,,,,,,,,,,,,,,,,,,,,,,,,,,,,,,,,,,,,,,,,,,,,,,,,,,,,,,,,,,,,,,,,,,,,,,,,,,,,,,,,,,,,,,,,,,,,,,,,,
,,,,,,61372036e1916464a6165cf6,62c53a84b2daef25d43cd7ff,2022-07-06_09h32.53.305,Colour_Asymmetry_Pilot,2022.1.3,Win32,60.87538808,62c50e9c1127f2cd403a315f,0,110,110,30,1,fourtwo,,,,,,,,,,,,,,,,,,,,,,,,,,,,,,,,,,,,,,,,,,,,,,,,,,,,,,,,,,,,,,,,,,,,,,,,,,,,,,,,,,,,,,,,,,,,,,,,,,,,,,,,,,,,,,,,,,,,,,,,,,,,,,,,,,,,,,,,,,,,,,,,,,,,,,,,,,,,,
,,,,,,61372036e1916464a6165cf6,62c53a84b2daef25d43cd7ff,2022-07-06_09h32.53.305,Colour_Asymmetry_Pilot,2022.1.3,Win32,60.87538808,62c50e9c1127f2cd403a315f,0,111,111,6,1,fourtwo,,,,,,,,,,,,,,,,,,,,,,,,,,,,,,,,,,,,,,,,,,,,,,,,,,,,,,,,,,,,,,,,,,,,,,,,,,,,,,,,,,,,,,,,,,,,,,,,,,,,,,,,,,,,,,,,,,,,,,,,,,,,,,,,,,,,,,,,,,,,,,,,,,,,,,,,,,,,,
,,,,,,61372036e1916464a6165cf6,62c53a84b2daef25d43cd7ff,2022-07-06_09h32.53.305,Colour_Asymmetry_Pilot,2022.1.3,Win32,60.87538808,62c50e9c1127f2cd403a315f,0,112,112,93,1,threefour,,,,,,,,,,,,,,,,,,,,,,,,,,,,,,,,,,,,,,,,,,,,,,,,,,,,,,,,,,,,,,,,,,,,,,,,,,,,,,,,,,,,,,,,,,,,,,,,,,,,,,,,,,,,,,,,,,,,,,,,,,,,,,,,,,,,,,,,,,,,,,,,,,,,,,,,,,,,,
,,,,,,61372036e1916464a6165cf6,62c53a84b2daef25d43cd7ff,2022-07-06_09h32.53.305,Colour_Asymmetry_Pilot,2022.1.3,Win32,60.87538808,62c50e9c1127f2cd403a315f,0,113,113,118,1,fourtwo,,,,,,,,,,,,,,,,,,,,,,,,,,,,,,,,,,,,,,,,,,,,,,,,,,,,,,,,,,,,,,,,,,,,,,,,,,,,,,,,,,,,,,,,,,,,,,,,,,,,,,,,,,,,,,,,,,,,,,,,,,,,,,,,,,,,,,,,,,,,,,,,,,,,,,,,,,,,,
,,,,,,61372036e1916464a6165cf6,62c53a84b2daef25d43cd7ff,2022-07-06_09h32.53.305,Colour_Asymmetry_Pilot,2022.1.3,Win32,60.87538808,62c50e9c1127f2cd403a315f,0,114,114,81,1,onethree,,,,,,,,,,,,,,,,,,,,,,,,,,,,,,,,,,,,,,,,,,,,,,,,,,,,,,,,,,,,,,,,,,,,,,,,,,,,,,,,,,,,,,,,,,,,,,,,,,,,,,,,,,,,,,,,,,,,,,,,,,,,,,,,,,,,,,,,,,,,,,,,,,,,,,,,,,,,,
,,,,,,61372036e1916464a6165cf6,62c53a84b2daef25d43cd7ff,2022-07-06_09h32.53.305,Colour_Asymmetry_Pilot,2022.1.3,Win32,60.87538808,62c50e9c1127f2cd403a315f,0,115,115,102,1,fourtwo,,,,,,,,,,,,,,,,,,,,,,,,,,,,,,,,,,,,,,,,,,,,,,,,,,,,,,,,,,,,,,,,,,,,,,,,,,,,,,,,,,,,,,,,,,,,,,,,,,,,,,,,,,,,,,,,,,,,,,,,,,,,,,,,,,,,,,,,,,,,,,,,,,,,,,,,,,,,,
,,,,,,61372036e1916464a6165cf6,62c53a84b2daef25d43cd7ff,2022-07-06_09h32.53.305,Colour_Asymmetry_Pilot,2022.1.3,Win32,60.87538808,62c50e9c1127f2cd403a315f,0,116,116,39,1,fourthree,,,,,,,,,,,,,,,,,,,,,,,,,,,,,,,,,,,,,,,,,,,,,,,,,,,,,,,,,,,,,,,,,,,,,,,,,,,,,,,,,,,,,,,,,,,,,,,,,,,,,,,,,,,,,,,,,,,,,,,,,,,,,,,,,,,,,,,,,,,,,,,,,,,,,,,,,,,,,
,,,,,,61372036e1916464a6165cf6,62c53a84b2daef25d43cd7ff,2022-07-06_09h32.53.305,Colour_Asymmetry_Pilot,2022.1.3,Win32,60.87538808,62c50e9c1127f2cd403a315f,0,117,117,146,1,twoone,,,,,,,,,,,,,,,,,,,,,,,,,,,,,,,,,,,,,,,,,,,,,,,,,,,,,,,,,,,,,,,,,,,,,,,,,,,,,,,,,,,,,,,,,,,,,,,,,,,,,,,,,,,,,,,,,,,,,,,,,,,,,,,,,,,,,,,,,,,,,,,,,,,,,,,,,,,,,
,,,,,,61372036e1916464a6165cf6,62c53a84b2daef25d43cd7ff,2022-07-06_09h32.53.305,Colour_Asymmetry_Pilot,2022.1.3,Win32,60.87538808,62c50e9c1127f2cd403a315f,0,118,118,1,1,onethree,,,,,,,,,,,,,,,,,,,,,,,,,,,,,,,,,,,,,,,,,,,,,,,,,,,,,,,,,,,,,,,,,,,,,,,,,,,,,,,,,,,,,,,,,,,,,,,,,,,,,,,,,,,,,,,,,,,,,,,,,,,,,,,,,,,,,,,,,,,,,,,,,,,,,,,,,,,,,
,,,,,,61372036e1916464a6165cf6,62c53a84b2daef25d43cd7ff,2022-07-06_09h32.53.305,Colour_Asymmetry_Pilot,2022.1.3,Win32,60.87538808,62c50e9c1127f2cd403a315f,0,119,119,19,1,twofour,,,,,,,,,,,,,,,,,,,,,,,,,,,,,,,,,,,,,,,,,,,,,,,,,,,,,,,,,,,,,,,,,,,,,,,,,,,,,,,,,,,,,,,,,,,,,,,,,,,,,,,,,,,,,,,,,,,,,,,,,,,,,,,,,,,,,,,,,,,,,,,,,,,,,,,,,,,,,
,,,,,,61372036e1916464a6165cf6,62c53a84b2daef25d43cd7ff,2022-07-06_09h32.53.305,Colour_Asymmetry_Pilot,2022.1.3,Win32,60.87538808,62c50e9c1127f2cd403a315f,0,120,120,154,1,twoone,,,,,,,,,,,,,,,,,,,,,,,,,,,,,,,,,,,,,,,,,,,,,,,,,,,,,,,,,,,,,,,,,,,,,,,,,,,,,,,,,,,,,,,,,,,,,,,,,,,,,,,,,,,,,,,,,,,,,,,,,,,,,,,,,,,,,,,,,,,,,,,,,,,,,,,,,,,,,
,,,,,,61372036e1916464a6165cf6,62c53a84b2daef25d43cd7ff,2022-07-06_09h32.53.305,Colour_Asymmetry_Pilot,2022.1.3,Win32,60.87538808,62c50e9c1127f2cd403a315f,0,121,121,75,1,twofour,,,,,,,,,,,,,,,,,,,,,,,,,,,,,,,,,,,,,,,,,,,,,,,,,,,,,,,,,,,,,,,,,,,,,,,,,,,,,,,,,,,,,,,,,,,,,,,,,,,,,,,,,,,,,,,,,,,,,,,,,,,,,,,,,,,,,,,,,,,,,,,,,,,,,,,,,,,,,
,,,,,,61372036e1916464a6165cf6,62c53a84b2daef25d43cd7ff,2022-07-06_09h32.53.305,Colour_Asymmetry_Pilot,2022.1.3,Win32,60.87538808,62c50e9c1127f2cd403a315f,0,122,122,73,1,onethree,,,,,,,,,,,,,,,,,,,,,,,,,,,,,,,,,,,,,,,,,,,,,,,,,,,,,,,,,,,,,,,,,,,,,,,,,,,,,,,,,,,,,,,,,,,,,,,,,,,,,,,,,,,,,,,,,,,,,,,,,,,,,,,,,,,,,,,,,,,,,,,,,,,,,,,,,,,,,
,,,,,,61372036e1916464a6165cf6,62c53a84b2daef25d43cd7ff,2022-07-06_09h32.53.305,Colour_Asymmetry_Pilot,2022.1.3,Win32,60.87538808,62c50e9c1127f2cd403a315f,0,123,123,16,1,onetwo,,,,,,,,,,,,,,,,,,,,,,,,,,,,,,,,,,,,,,,,,,,,,,,,,,,,,,,,,,,,,,,,,,,,,,,,,,,,,,,,,,,,,,,,,,,,,,,,,,,,,,,,,,,,,,,,,,,,,,,,,,,,,,,,,,,,,,,,,,,,,,,,,,,,,,,,,,,,,
,,,,,,61372036e1916464a6165cf6,62c53a84b2daef25d43cd7ff,2022-07-06_09h32.53.305,Colour_Asymmetry_Pilot,2022.1.3,Win32,60.87538808,62c50e9c1127f2cd403a315f,0,124,124,106,1,twoone,,,,,,,,,,,,,,,,,,,,,,,,,,,,,,,,,,,,,,,,,,,,,,,,,,,,,,,,,,,,,,,,,,,,,,,,,,,,,,,,,,,,,,,,,,,,,,,,,,,,,,,,,,,,,,,,,,,,,,,,,,,,,,,,,,,,,,,,,,,,,,,,,,,,,,,,,,,,,
,,,,,,61372036e1916464a6165cf6,62c53a84b2daef25d43cd7ff,2022-07-06_09h32.53.305,Colour_Asymmetry_Pilot,2022.1.3,Win32,60.87538808,62c50e9c1127f2cd403a315f,0,125,125,52,1,threeone,,,,,,,,,,,,,,,,,,,,,,,,,,,,,,,,,,,,,,,,,,,,,,,,,,,,,,,,,,,,,,,,,,,,,,,,,,,,,,,,,,,,,,,,,,,,,,,,,,,,,,,,,,,,,,,,,,,,,,,,,,,,,,,,,,,,,,,,,,,,,,,,,,,,,,,,,,,,,
,,,,,,61372036e1916464a6165cf6,62c53a84b2daef25d43cd7ff,2022-07-06_09h32.53.305,Colour_Asymmetry_Pilot,2022.1.3,Win32,60.87538808,62c50e9c1127f2cd403a315f,0,126,126,98,1,twoone,,,,,,,,,,,,,,,,,,,,,,,,,,,,,,,,,,,,,,,,,,,,,,,,,,,,,,,,,,,,,,,,,,,,,,,,,,,,,,,,,,,,,,,,,,,,,,,,,,,,,,,,,,,,,,,,,,,,,,,,,,,,,,,,,,,,,,,,,,,,,,,,,,,,,,,,,,,,,
,,,,,,61372036e1916464a6165cf6,62c53a84b2daef25d43cd7ff,2022-07-06_09h32.53.305,Colour_Asymmetry_Pilot,2022.1.3,Win32,60.87538808,62c50e9c1127f2cd403a315f,0,127,127,113,1,onethree,,,,,,,,,,,,,,,,,,,,,,,,,,,,,,,,,,,,,,,,,,,,,,,,,,,,,,,,,,,,,,,,,,,,,,,,,,,,,,,,,,,,,,,,,,,,,,,,,,,,,,,,,,,,,,,,,,,,,,,,,,,,,,,,,,,,,,,,,,,,,,,,,,,,,,,,,,,,,
,,,,,,61372036e1916464a6165cf6,62c53a84b2daef25d43cd7ff,2022-07-06_09h32.53.305,Colour_Asymmetry_Pilot,2022.1.3,Win32,60.87538808,62c50e9c1127f2cd403a315f,0,128,128,17,1,onethree,,,,,,,,,,,,,,,,,,,,,,,,,,,,,,,,,,,,,,,,,,,,,,,,,,,,,,,,,,,,,,,,,,,,,,,,,,,,,,,,,,,,,,,,,,,,,,,,,,,,,,,,,,,,,,,,,,,,,,,,,,,,,,,,,,,,,,,,,,,,,,,,,,,,,,,,,,,,,
,,,,,,61372036e1916464a6165cf6,62c53a84b2daef25d43cd7ff,2022-07-06_09h32.53.305,Colour_Asymmetry_Pilot,2022.1.3,Win32,60.87538808,62c50e9c1127f2cd403a315f,0,129,129,114,1,twoone,,,,,,,,,,,,,,,,,,,,,,,,,,,,,,,,,,,,,,,,,,,,,,,,,,,,,,,,,,,,,,,,,,,,,,,,,,,,,,,,,,,,,,,,,,,,,,,,,,,,,,,,,,,,,,,,,,,,,,,,,,,,,,,,,,,,,,,,,,,,,,,,,,,,,,,,,,,,,
,,,,,,61372036e1916464a6165cf6,62c53a84b2daef25d43cd7ff,2022-07-06_09h32.53.305,Colour_Asymmetry_Pilot,2022.1.3,Win32,60.87538808,62c50e9c1127f2cd403a315f,0,130,130,44,1,threeone,,,,,,,,,,,,,,,,,,,,,,,,,,,,,,,,,,,,,,,,,,,,,,,,,,,,,,,,,,,,,,,,,,,,,,,,,,,,,,,,,,,,,,,,,,,,,,,,,,,,,,,,,,,,,,,,,,,,,,,,,,,,,,,,,,,,,,,,,,,,,,,,,,,,,,,,,,,,,
,,,,,,61372036e1916464a6165cf6,62c53a84b2daef25d43cd7ff,2022-07-06_09h32.53.305,Colour_Asymmetry_Pilot,2022.1.3,Win32,60.87538808,62c50e9c1127f2cd403a315f,0,131,131,35,1,twofour,,,,,,,,,,,,,,,,,,,,,,,,,,,,,,,,,,,,,,,,,,,,,,,,,,,,,,,,,,,,,,,,,,,,,,,,,,,,,,,,,,,,,,,,,,,,,,,,,,,,,,,,,,,,,,,,,,,,,,,,,,,,,,,,,,,,,,,,,,,,,,,,,,,,,,,,,,,,,
,,,,,,61372036e1916464a6165cf6,62c53a84b2daef25d43cd7ff,2022-07-06_09h32.53.305,Colour_Asymmetry_Pilot,2022.1.3,Win32,60.87538808,62c50e9c1127f2cd403a315f,0,132,132,21,1,threefour,,,,,,,,,,,,,,,,,,,,,,,,,,,,,,,,,,,,,,,,,,,,,,,,,,,,,,,,,,,,,,,,,,,,,,,,,,,,,,,,,,,,,,,,,,,,,,,,,,,,,,,,,,,,,,,,,,,,,,,,,,,,,,,,,,,,,,,,,,,,,,,,,,,,,,,,,,,,,
,,,,,,61372036e1916464a6165cf6,62c53a84b2daef25d43cd7ff,2022-07-06_09h32.53.305,Colour_Asymmetry_Pilot,2022.1.3,Win32,60.87538808,62c50e9c1127f2cd403a315f,0,133,133,101,1,threefour,,,,,,,,,,,,,,,,,,,,,,,,,,,,,,,,,,,,,,,,,,,,,,,,,,,,,,,,,,,,,,,,,,,,,,,,,,,,,,,,,,,,,,,,,,,,,,,,,,,,,,,,,,,,,,,,,,,,,,,,,,,,,,,,,,,,,,,,,,,,,,,,,,,,,,,,,,,,,
,,,,,,61372036e1916464a6165cf6,62c53a84b2daef25d43cd7ff,2022-07-06_09h32.53.305,Colour_Asymmetry_Pilot,2022.1.3,Win32,60.87538808,62c50e9c1127f2cd403a315f,0,134,134,26,1,twoone,,,,,,,,,,,,,,,,,,,,,,,,,,,,,,,,,,,,,,,,,,,,,,,,,,,,,,,,,,,,,,,,,,,,,,,,,,,,,,,,,,,,,,,,,,,,,,,,,,,,,,,,,,,,,,,,,,,,,,,,,,,,,,,,,,,,,,,,,,,,,,,,,,,,,,,,,,,,,
,,,,,,61372036e1916464a6165cf6,62c53a84b2daef25d43cd7ff,2022-07-06_09h32.53.305,Colour_Asymmetry_Pilot,2022.1.3,Win32,60.87538808,62c50e9c1127f2cd403a315f,0,135,135,70,1,fourtwo,,,,,,,,,,,,,,,,,,,,,,,,,,,,,,,,,,,,,,,,,,,,,,,,,,,,,,,,,,,,,,,,,,,,,,,,,,,,,,,,,,,,,,,,,,,,,,,,,,,,,,,,,,,,,,,,,,,,,,,,,,,,,,,,,,,,,,,,,,,,,,,,,,,,,,,,,,,,,
,,,,,,61372036e1916464a6165cf6,62c53a84b2daef25d43cd7ff,2022-07-06_09h32.53.305,Colour_Asymmetry_Pilot,2022.1.3,Win32,60.87538808,62c50e9c1127f2cd403a315f,0,136,136,15,1,fourthree,,,,,,,,,,,,,,,,,,,,,,,,,,,,,,,,,,,,,,,,,,,,,,,,,,,,,,,,,,,,,,,,,,,,,,,,,,,,,,,,,,,,,,,,,,,,,,,,,,,,,,,,,,,,,,,,,,,,,,,,,,,,,,,,,,,,,,,,,,,,,,,,,,,,,,,,,,,,,
,,,,,,61372036e1916464a6165cf6,62c53a84b2daef25d43cd7ff,2022-07-06_09h32.53.305,Colour_Asymmetry_Pilot,2022.1.3,Win32,60.87538808,62c50e9c1127f2cd403a315f,0,137,137,91,1,twofour,,,,,,,,,,,,,,,,,,,,,,,,,,,,,,,,,,,,,,,,,,,,,,,,,,,,,,,,,,,,,,,,,,,,,,,,,,,,,,,,,,,,,,,,,,,,,,,,,,,,,,,,,,,,,,,,,,,,,,,,,,,,,,,,,,,,,,,,,,,,,,,,,,,,,,,,,,,,,
,,,,,,61372036e1916464a6165cf6,62c53a84b2daef25d43cd7ff,2022-07-06_09h32.53.305,Colour_Asymmetry_Pilot,2022.1.3,Win32,60.87538808,62c50e9c1127f2cd403a315f,0,138,138,156,1,threeone,,,,,,,,,,,,,,,,,,,,,,,,,,,,,,,,,,,,,,,,,,,,,,,,,,,,,,,,,,,,,,,,,,,,,,,,,,,,,,,,,,,,,,,,,,,,,,,,,,,,,,,,,,,,,,,,,,,,,,,,,,,,,,,,,,,,,,,,,,,,,,,,,,,,,,,,,,,,,
,,,,,,61372036e1916464a6165cf6,62c53a84b2daef25d43cd7ff,2022-07-06_09h32.53.305,Colour_Asymmetry_Pilot,2022.1.3,Win32,60.87538808,62c50e9c1127f2cd403a315f,0,139,139,153,1,onethree,,,,,,,,,,,,,,,,,,,,,,,,,,,,,,,,,,,,,,,,,,,,,,,,,,,,,,,,,,,,,,,,,,,,,,,,,,,,,,,,,,,,,,,,,,,,,,,,,,,,,,,,,,,,,,,,,,,,,,,,,,,,,,,,,,,,,,,,,,,,,,,,,,,,,,,,,,,,,
,,,,,,61372036e1916464a6165cf6,62c53a84b2daef25d43cd7ff,2022-07-06_09h32.53.305,Colour_Asymmetry_Pilot,2022.1.3,Win32,60.87538808,62c50e9c1127f2cd403a315f,0,140,140,63,1,fourthree,,,,,,,,,,,,,,,,,,,,,,,,,,,,,,,,,,,,,,,,,,,,,,,,,,,,,,,,,,,,,,,,,,,,,,,,,,,,,,,,,,,,,,,,,,,,,,,,,,,,,,,,,,,,,,,,,,,,,,,,,,,,,,,,,,,,,,,,,,,,,,,,,,,,,,,,,,,,,
,,,,,,61372036e1916464a6165cf6,62c53a84b2daef25d43cd7ff,2022-07-06_09h32.53.305,Colour_Asymmetry_Pilot,2022.1.3,Win32,60.87538808,62c50e9c1127f2cd403a315f,0,141,141,68,1,threeone,,,,,,,,,,,,,,,,,,,,,,,,,,,,,,,,,,,,,,,,,,,,,,,,,,,,,,,,,,,,,,,,,,,,,,,,,,,,,,,,,,,,,,,,,,,,,,,,,,,,,,,,,,,,,,,,,,,,,,,,,,,,,,,,,,,,,,,,,,,,,,,,,,,,,,,,,,,,,
,,,,,,61372036e1916464a6165cf6,62c53a84b2daef25d43cd7ff,2022-07-06_09h32.53.305,Colour_Asymmetry_Pilot,2022.1.3,Win32,60.87538808,62c50e9c1127f2cd403a315f,0,142,142,96,1,onetwo,,,,,,,,,,,,,,,,,,,,,,,,,,,,,,,,,,,,,,,,,,,,,,,,,,,,,,,,,,,,,,,,,,,,,,,,,,,,,,,,,,,,,,,,,,,,,,,,,,,,,,,,,,,,,,,,,,,,,,,,,,,,,,,,,,,,,,,,,,,,,,,,,,,,,,,,,,,,,
,,,,,,61372036e1916464a6165cf6,62c53a84b2daef25d43cd7ff,2022-07-06_09h32.53.305,Colour_Asymmetry_Pilot,2022.1.3,Win32,60.87538808,62c50e9c1127f2cd403a315f,0,143,143,86,1,fourtwo,,,,,,,,,,,,,,,,,,,,,,,,,,,,,,,,,,,,,,,,,,,,,,,,,,,,,,,,,,,,,,,,,,,,,,,,,,,,,,,,,,,,,,,,,,,,,,,,,,,,,,,,,,,,,,,,,,,,,,,,,,,,,,,,,,,,,,,,,,,,,,,,,,,,,,,,,,,,,
,,,,,,61372036e1916464a6165cf6,62c53a84b2daef25d43cd7ff,2022-07-06_09h32.53.305,Colour_Asymmetry_Pilot,2022.1.3,Win32,60.87538808,62c50e9c1127f2cd403a315f,0,144,144,51,1,twofour,,,,,,,,,,,,,,,,,,,,,,,,,,,,,,,,,,,,,,,,,,,,,,,,,,,,,,,,,,,,,,,,,,,,,,,,,,,,,,,,,,,,,,,,,,,,,,,,,,,,,,,,,,,,,,,,,,,,,,,,,,,,,,,,,,,,,,,,,,,,,,,,,,,,,,,,,,,,,
,,,,,,61372036e1916464a6165cf6,62c53a84b2daef25d43cd7ff,2022-07-06_09h32.53.305,Colour_Asymmetry_Pilot,2022.1.3,Win32,60.87538808,62c50e9c1127f2cd403a315f,0,145,145,120,1,onetwo,,,,,,,,,,,,,,,,,,,,,,,,,,,,,,,,,,,,,,,,,,,,,,,,,,,,,,,,,,,,,,,,,,,,,,,,,,,,,,,,,,,,,,,,,,,,,,,,,,,,,,,,,,,,,,,,,,,,,,,,,,,,,,,,,,,,,,,,,,,,,,,,,,,,,,,,,,,,,
,,,,,,61372036e1916464a6165cf6,62c53a84b2daef25d43cd7ff,2022-07-06_09h32.53.305,Colour_Asymmetry_Pilot,2022.1.3,Win32,60.87538808,62c50e9c1127f2cd403a315f,0,146,146,133,1,threefour,,,,,,,,,,,,,,,,,,,,,,,,,,,,,,,,,,,,,,,,,,,,,,,,,,,,,,,,,,,,,,,,,,,,,,,,,,,,,,,,,,,,,,,,,,,,,,,,,,,,,,,,,,,,,,,,,,,,,,,,,,,,,,,,,,,,,,,,,,,,,,,,,,,,,,,,,,,,,
,,,,,,61372036e1916464a6165cf6,62c53a84b2daef25d43cd7ff,2022-07-06_09h32.53.305,Colour_Asymmetry_Pilot,2022.1.3,Win32,60.87538808,62c50e9c1127f2cd403a315f,0,147,147,152,1,onetwo,,,,,,,,,,,,,,,,,,,,,,,,,,,,,,,,,,,,,,,,,,,,,,,,,,,,,,,,,,,,,,,,,,,,,,,,,,,,,,,,,,,,,,,,,,,,,,,,,,,,,,,,,,,,,,,,,,,,,,,,,,,,,,,,,,,,,,,,,,,,,,,,,,,,,,,,,,,,,
,,,,,,61372036e1916464a6165cf6,62c53a84b2daef25d43cd7ff,2022-07-06_09h32.53.305,Colour_Asymmetry_Pilot,2022.1.3,Win32,60.87538808,62c50e9c1127f2cd403a315f,0,148,148,151,1,fourthree,,,,,,,,,,,,,,,,,,,,,,,,,,,,,,,,,,,,,,,,,,,,,,,,,,,,,,,,,,,,,,,,,,,,,,,,,,,,,,,,,,,,,,,,,,,,,,,,,,,,,,,,,,,,,,,,,,,,,,,,,,,,,,,,,,,,,,,,,,,,,,,,,,,,,,,,,,,,,
,,,,,,61372036e1916464a6165cf6,62c53a84b2daef25d43cd7ff,2022-07-06_09h32.53.305,Colour_Asymmetry_Pilot,2022.1.3,Win32,60.87538808,62c50e9c1127f2cd403a315f,0,149,149,135,1,fourthree,,,,,,,,,,,,,,,,,,,,,,,,,,,,,,,,,,,,,,,,,,,,,,,,,,,,,,,,,,,,,,,,,,,,,,,,,,,,,,,,,,,,,,,,,,,,,,,,,,,,,,,,,,,,,,,,,,,,,,,,,,,,,,,,,,,,,,,,,,,,,,,,,,,,,,,,,,,,,
,,,,,,61372036e1916464a6165cf6,62c53a84b2daef25d43cd7ff,2022-07-06_09h32.53.305,Colour_Asymmetry_Pilot,2022.1.3,Win32,60.87538808,62c50e9c1127f2cd403a315f,0,150,150,109,1,threefour,,,,,,,,,,,,,,,,,,,,,,,,,,,,,,,,,,,,,,,,,,,,,,,,,,,,,,,,,,,,,,,,,,,,,,,,,,,,,,,,,,,,,,,,,,,,,,,,,,,,,,,,,,,,,,,,,,,,,,,,,,,,,,,,,,,,,,,,,,,,,,,,,,,,,,,,,,,,,
,,,,,,61372036e1916464a6165cf6,62c53a84b2daef25d43cd7ff,2022-07-06_09h32.53.305,Colour_Asymmetry_Pilot,2022.1.3,Win32,60.87538808,62c50e9c1127f2cd403a315f,0,151,151,48,1,onetwo,,,,,,,,,,,,,,,,,,,,,,,,,,,,,,,,,,,,,,,,,,,,,,,,,,,,,,,,,,,,,,,,,,,,,,,,,,,,,,,,,,,,,,,,,,,,,,,,,,,,,,,,,,,,,,,,,,,,,,,,,,,,,,,,,,,,,,,,,,,,,,,,,,,,,,,,,,,,,
,,,,,,61372036e1916464a6165cf6,62c53a84b2daef25d43cd7ff,2022-07-06_09h32.53.305,Colour_Asymmetry_Pilot,2022.1.3,Win32,60.87538808,62c50e9c1127f2cd403a315f,0,152,152,43,1,twofour,,,,,,,,,,,,,,,,,,,,,,,,,,,,,,,,,,,,,,,,,,,,,,,,,,,,,,,,,,,,,,,,,,,,,,,,,,,,,,,,,,,,,,,,,,,,,,,,,,,,,,,,,,,,,,,,,,,,,,,,,,,,,,,,,,,,,,,,,,,,,,,,,,,,,,,,,,,,,
,,,,,,61372036e1916464a6165cf6,62c53a84b2daef25d43cd7ff,2022-07-06_09h32.53.305,Colour_Asymmetry_Pilot,2022.1.3,Win32,60.87538808,62c50e9c1127f2cd403a315f,0,153,153,117,1,threefour,,,,,,,,,,,,,,,,,,,,,,,,,,,,,,,,,,,,,,,,,,,,,,,,,,,,,,,,,,,,,,,,,,,,,,,,,,,,,,,,,,,,,,,,,,,,,,,,,,,,,,,,,,,,,,,,,,,,,,,,,,,,,,,,,,,,,,,,,,,,,,,,,,,,,,,,,,,,,
,,,,,,61372036e1916464a6165cf6,62c53a84b2daef25d43cd7ff,2022-07-06_09h32.53.305,Colour_Asymmetry_Pilot,2022.1.3,Win32,60.87538808,62c50e9c1127f2cd403a315f,0,154,154,71,1,fourthree,,,,,,,,,,,,,,,,,,,,,,,,,,,,,,,,,,,,,,,,,,,,,,,,,,,,,,,,,,,,,,,,,,,,,,,,,,,,,,,,,,,,,,,,,,,,,,,,,,,,,,,,,,,,,,,,,,,,,,,,,,,,,,,,,,,,,,,,,,,,,,,,,,,,,,,,,,,,,
,,,,,,61372036e1916464a6165cf6,62c53a84b2daef25d43cd7ff,2022-07-06_09h32.53.305,Colour_Asymmetry_Pilot,2022.1.3,Win32,60.87538808,62c50e9c1127f2cd403a315f,0,155,155,121,1,onethree,,,,,,,,,,,,,,,,,,,,,,,,,,,,,,,,,,,,,,,,,,,,,,,,,,,,,,,,,,,,,,,,,,,,,,,,,,,,,,,,,,,,,,,,,,,,,,,,,,,,,,,,,,,,,,,,,,,,,,,,,,,,,,,,,,,,,,,,,,,,,,,,,,,,,,,,,,,,,
,,,,,,61372036e1916464a6165cf6,62c53a84b2daef25d43cd7ff,2022-07-06_09h32.53.305,Colour_Asymmetry_Pilot,2022.1.3,Win32,60.87538808,62c50e9c1127f2cd403a315f,0,156,156,37,1,threefour,,,,,,,,,,,,,,,,,,,,,,,,,,,,,,,,,,,,,,,,,,,,,,,,,,,,,,,,,,,,,,,,,,,,,,,,,,,,,,,,,,,,,,,,,,,,,,,,,,,,,,,,,,,,,,,,,,,,,,,,,,,,,,,,,,,,,,,,,,,,,,,,,,,,,,,,,,,,,
,,,,,,61372036e1916464a6165cf6,62c53a84b2daef25d43cd7ff,2022-07-06_09h32.53.305,Colour_Asymmetry_Pilot,2022.1.3,Win32,60.87538808,62c50e9c1127f2cd403a315f,0,157,157,115,1,twofour,,,,,,,,,,,,,,,,,,,,,,,,,,,,,,,,,,,,,,,,,,,,,,,,,,,,,,,,,,,,,,,,,,,,,,,,,,,,,,,,,,,,,,,,,,,,,,,,,,,,,,,,,,,,,,,,,,,,,,,,,,,,,,,,,,,,,,,,,,,,,,,,,,,,,,,,,,,,,
,,,,,,61372036e1916464a6165cf6,62c53a84b2daef25d43cd7ff,2022-07-06_09h32.53.305,Colour_Asymmetry_Pilot,2022.1.3,Win32,60.87538808,62c50e9c1127f2cd403a315f,0,158,158,12,1,threeone,,,,,,,,,,,,,,,,,,,,,,,,,,,,,,,,,,,,,,,,,,,,,,,,,,,,,,,,,,,,,,,,,,,,,,,,,,,,,,,,,,,,,,,,,,,,,,,,,,,,,,,,,,,,,,,,,,,,,,,,,,,,,,,,,,,,,,,,,,,,,,,,,,,,,,,,,,,,,
,,,,,,61372036e1916464a6165cf6,62c53a84b2daef25d43cd7ff,2022-07-06_09h32.53.305,Colour_Asymmetry_Pilot,2022.1.3,Win32,60.87538808,62c50e9c1127f2cd403a315f,0,159,159,92,1,threeone,,,,,,,,,,,,,,,,,,,,,,,,,,,,,,,,,,,,,,,,,,,,,,,,,,,,,,,,,,,,,,,,,,,,,,,,,,,,,,,,,,,,,,,,,,,,,,,,,,,,,,,,,,,,,,,,,,,,,,,,,,,,,,,,,,,,,,,,,,,,,,,,,,,,,,,,,,,,,
,,,,,,61372036e1916464a6165cf6,62c53a84b2daef25d43cd7ff,2022-07-06_09h32.53.305,Colour_Asymmetry_Pilot,2022.1.3,Win32,60.87538808,62c50e9c1127f2cd403a315f,0,160,160,97,1,onethree,,,,,,,,,,,,,,,,,,,,,,,,,,,,,,,,,,,,,,,,,,,,,,,,,,,,,,,,,,,,,,,,,,,,,,,,,,,,,,,,,,,,,,,,,,,,,,,,,,,,,,,,,,,,,,,,,,,,,,,,,,,,,,,,,,,,,,,,,,,,,,,,,,,,,,,,,,,,,
,,,,,,61372036e1916464a6165cf6,62c53a84b2daef25d43cd7ff,2022-07-06_09h32.53.305,Colour_Asymmetry_Pilot,2022.1.3,Win32,60.87538808,62c50e9c1127f2cd403a315f,0,161,161,87,1,fourthree,,,,,,,,,,,,,,,,,,,,,,,,,,,,,,,,,,,,,,,,,,,,,,,,,,,,,,,,,,,,,,,,,,,,,,,,,,,,,,,,,,,,,,,,,,,,,,,,,,,,,,,,,,,,,,,,,,,,,,,,,,,,,,,,,,,,,,,,,,,,,,,,,,,,,,,,,,,,,
,,,,,,61372036e1916464a6165cf6,62c53a84b2daef25d43cd7ff,2022-07-06_09h32.53.305,Colour_Asymmetry_Pilot,2022.1.3,Win32,60.87538808,62c50e9c1127f2cd403a315f,,,,,,,space,4.8475,space,15.0555,space,23.9648,space,15.4259,space,3.9366,space,7.6784,"[-0.9296,-0.12959999999999994,-0.043199999999999905]",threeone,"[0.3881999999999999,-0.23939999999999995,-0.05040000000000011]",-4,8.5526,-41,112,1,0,0,response7disk_5,-1,-3,1,0,0,rectangle_8,-1,-3,1,0,0,2,-1,-3,1,0,0,0,0,0,0,1,,,,,,,,,,,,,,,,,,,,,,,,,,,,,,,,,,,,,,,,,,,,,,,,,,,,,,,,,,,,,,,,,,,,,,,,,,,,,,,,,,,,,,,,,,,,,,,,,,,,,,,,,,,,,,,,
,,,,,,61372036e1916464a6165cf6,62c53a84b2daef25d43cd7ff,2022-07-06_09h32.53.305,Colour_Asymmetry_Pilot,2022.1.3,Win32,60.87538808,62c50e9c1127f2cd403a315f,,,,,,,,,,,,,,,,,,,"[0.23120000000000007,-0.7726,-0.34120000000000006]",onetwo,"[0.9213999999999998,0.6391999999999998,-0.9922]",-4,3.9834,-30,68,1,0,0,response7disk_5,5,3,1,0,0,rectangle_8,5,3,1,0,0,2,5,3,1,0,0,1,0,1,0,1,,,,,,,,,,,,,,,,,,,,,,,,,,,,,,,,,,,,,,,,,,,,,,,,,,,,,,,,,,,,,,,,,,,,,,,,,,,,,,,,,,,,,,,,,,,,,,,,,,,,,,,,,,,,,,,,
,,,,,,61372036e1916464a6165cf6,62c53a84b2daef25d43cd7ff,2022-07-06_09h32.53.305,Colour_Asymmetry_Pilot,2022.1.3,Win32,60.87538808,62c50e9c1127f2cd403a315f,,,,,,,,,,,,,,,,,,,"[-0.2942,-0.7648,-0.7492000000000001]",onethree,"[0.12939999999999996,-0.2864,0.3253999999999999]",-3,2.3276,-77,39,1,0,0,response7disk_5,-9,-9,1,0,0,rectangle_8,72,-44,1,0,0,2,11,-1,1,0,0,2,0,2,0,1,response3disk_7,5,rectangle_4,,,,,,,,,,,,,,,,,,,,,,,,,,,,,,,,,,,,,,,,,,,,,,,,,,,,,,,,,,,,,,,,,,,,,,,,,,,,,,,,,,,,,,,,,,,,,,,,,,,,,,,,,,,,,
,,,,,,61372036e1916464a6165cf6,62c53a84b2daef25d43cd7ff,2022-07-06_09h32.53.305,Colour_Asymmetry_Pilot,2022.1.3,Win32,60.87538808,62c50e9c1127f2cd403a315f,,,,,,,,,,,,,,,,,,,"[0.6625999999999999,0.4980000000000002,-0.357]",fourtwo,"[-0.26280000000000003,-0.2158,-0.3256]",-4,2.8998,-47,84,1,0,0,response7disk_5,11,-6,1,0,0,rectangle_8,11,-6,1,0,0,2,11,-6,1,0,0,3,0,3,0,1,,,,,,,,,,,,,,,,,,,,,,,,,,,,,,,,,,,,,,,,,,,,,,,,,,,,,,,,,,,,,,,,,,,,,,,,,,,,,,,,,,,,,,,,,,,,,,,,,,,,,,,,,,,,,,,,
,,,,,,61372036e1916464a6165cf6,62c53a84b2daef25d43cd7ff,2022-07-06_09h32.53.305,Colour_Asymmetry_Pilot,2022.1.3,Win32,60.87538808,62c50e9c1127f2cd403a315f,,,,,,,,,,,,,,,,,,,"[-0.9138,-0.5296000000000001,-0.5529999999999999]",threefour,"[-0.5688,-0.08239999999999992,-0.1844]",-4,2.9617,-38,74,1,0,0,response7disk_5,5,-11,1,0,0,rectangle_8,5,-11,1,0,0,2,5,-11,1,0,0,4,0,4,0,1,,,,,,,,,,,,,,,,,,,,,,,,,,,,,,,,,,,,,,,,,,,,,,,,,,,,,,,,,,,,,,,,,,,,,,,,,,,,,,,,,,,,,,,,,,,,,,,,,,,,,,,,,,,,,,,,
,,,,,,61372036e1916464a6165cf6,62c53a84b2daef25d43cd7ff,2022-07-06_09h32.53.305,Colour_Asymmetry_Pilot,2022.1.3,Win32,60.87538808,62c50e9c1127f2cd403a315f,,,,,,,,,,,,,,,,,,,"[0.8274000000000001,-0.5844,-0.9452]",fourthree,"[-0.4902000000000001,0.2704,-0.45899999999999996]",-4,2.2994,-38,70,1,0,0,response7disk_5,-1,-3,1,0,0,rectangle_8,63,-45,1,0,0,2,1,5,1,0,0,5,0,5,0,1,response3disk_7,5,rectangle_4,,,,,,,,,,,,,,,,,,,,,,,,,,,,,,,,,,,,,,,,,,,,,,,,,,,,,,,,,,,,,,,,,,,,,,,,,,,,,,,,,,,,,,,,,,,,,,,,,,,,,,,,,,,,,
,,,,,,61372036e1916464a6165cf6,62c53a84b2daef25d43cd7ff,2022-07-06_09h32.53.305,Colour_Asymmetry_Pilot,2022.1.3,Win32,60.87538808,62c50e9c1127f2cd403a315f,,,,,,,,,,,,,,,,,,,"[-0.06680000000000008,-0.45100000000000007,-0.906]",twofour,"[0.9372,0.9450000000000001,0.8980000000000001]",-4,2.7653,-42,112,1,0,0,response7disk_5,-2,-1,1,0,0,rectangle_8,-2,-1,1,0,0,2,-2,-1,1,0,0,6,0,6,0,1,,,,,,,,,,,,,,,,,,,,,,,,,,,,,,,,,,,,,,,,,,,,,,,,,,,,,,,,,,,,,,,,,,,,,,,,,,,,,,,,,,,,,,,,,,,,,,,,,,,,,,,,,,,,,,,,
,,,,,,61372036e1916464a6165cf6,62c53a84b2daef25d43cd7ff,2022-07-06_09h32.53.305,Colour_Asymmetry_Pilot,2022.1.3,Win32,60.87538808,62c50e9c1127f2cd403a315f,,,,,,,,,,,,,,,,,,,,fourtwo,,-4,1.5832,,,,,,,,,,,,,,,,,,,,,,,,,,,,,,,,space,5.4191,"[-0.6706000000000001,-0.6157999999999999,-0.6786]","[-0.4668,-0.8746,-0.2942]",-39,76,1,0,0,response7disk,-9,-3,1,0,0,rectangle,-9,-3,1,0,0,,3,0.0013,0,-9,-3,1,0,0,0,0,0,134,1,53,second,,,,,,,,,,,,,,,,,,,,,,,,,,,,,,,,,,,,,,,,,,,,,,,,,,,,,,,,,,,,,,,,,,,,,,,,
,,,,,,61372036e1916464a6165cf6,62c53a84b2daef25d43cd7ff,2022-07-06_09h32.53.305,Colour_Asymmetry_Pilot,2022.1.3,Win32,60.87538808,62c50e9c1127f2cd403a315f,,,,,,,,,,,,,,,,,,,,threeone,,-4,0.9667,,,,,,,,,,,,,,,,,,,,,,,,,,,,,,,,,,"[-0.45899999999999996,-0.3256,-0.9374]","[-0.26280000000000003,-0.4746,-0.2158]",-47,72,1,0,0,response7disk,-3,4,1,0,0,rectangle,-3,4,1,0,0,,3,0.0002,0,-3,4,1,0,0,0,1,1,125,1,44,second,,,,,,,,,,,,,,,,,,,,,,,,,,,,,,,,,,,,,,,,,,,,,,,,,,,,,,,,,,,,,,,,,,,,,,,,
,,,,,,61372036e1916464a6165cf6,62c53a84b2daef25d43cd7ff,2022-07-06_09h32.53.305,Colour_Asymmetry_Pilot,2022.1.3,Win32,60.87538808,62c50e9c1127f2cd403a315f,,,,,,,,,,,,,,,,,,,,fourthree,,-1,4.503,,,,,,,,,,,,,,,,,,,,,,,,,,,,,,,,,,"[-0.9688,-0.7412000000000001,-0.4902000000000001]","[-0.4746,-0.0354000000000001,0.5449999999999999]",-49,-74,1,0,0,response5disk,-19,7,1,0,0,rectangle,-19,7,1,0,0,,1,0.0012,0,-19,7,1,0,0,0,2,2,63,1,63,first,,,,,,,,,,,,,,,,,,,,,,,,,,,,,,,,,,,,,,,,,,,,,,,,,,,,,,,,,,,,,,,,,,,,,,,,
,,,,,,61372036e1916464a6165cf6,62c53a84b2daef25d43cd7ff,2022-07-06_09h32.53.305,Colour_Asymmetry_Pilot,2022.1.3,Win32,60.87538808,62c50e9c1127f2cd403a315f,,,,,,,,,,,,,,,,,,,,threeone,,-2,1.233,,,,,,,,,,,,,,,,,,,,,,,,,,,,,,,,,,"[-0.07459999999999989,0.12139999999999995,-0.9922]","[0.9763999999999999,0.8588,-0.05900000000000005]",-82,-33,1,0,0,response5disk,-1,-1,1,0,0,rectangle,-1,-1,1,0,0,,1,0.0005,0,-1,-1,1,0,0,0,3,3,139,1,58,second,,,,,,,,,,,,,,,,,,,,,,,,,,,,,,,,,,,,,,,,,,,,,,,,,,,,,,,,,,,,,,,,,,,,,,,,
,,,,,,61372036e1916464a6165cf6,62c53a84b2daef25d43cd7ff,2022-07-06_09h32.53.305,Colour_Asymmetry_Pilot,2022.1.3,Win32,60.87538808,62c50e9c1127f2cd403a315f,,,,,,,,,,,,,,,,,,,,onethree,,-2,1.2657,,,,,,,,,,,,,,,,,,,,,,,,,,,,,,,,,,"[0.5449999999999999,-0.31000000000000005,-0.0354000000000001]","[0.40379999999999994,0.09000000000000008,0.44300000000000006]",-72,-35,1,0,0,response5disk,-14,2,1,0,0,rectangle,-14,2,1,0,0,,3,0.0013,0,-14,2,1,0,0,0,4,4,103,1,22,second,,,,,,,,,,,,,,,,,,,,,,,,,,,,,,,,,,,,,,,,,,,,,,,,,,,,,,,,,,,,,,,,,,,,,,,,
,,,,,,61372036e1916464a6165cf6,62c53a84b2daef25d43cd7ff,2022-07-06_09h32.53.305,Colour_Asymmetry_Pilot,2022.1.3,Win32,60.87538808,62c50e9c1127f2cd403a315f,,,,,,,,,,,,,,,,,,,,twoone,,-4,0.8657,,,,,,,,,,,,,,,,,,,,,,,,,,,,,,,,,,"[0.9686000000000001,0.5763999999999998,0.11359999999999992]","[-0.9844,-0.9688,-0.9922]",-42,81,1,0,0,response7disk,5,2,1,0,0,rectangle,5,2,1,0,0,,2,0.0008,0,5,2,1,0,0,0,5,5,124,1,43,second,,,,,,,,,,,,,,,,,,,,,,,,,,,,,,,,,,,,,,,,,,,,,,,,,,,,,,,,,,,,,,,,,,,,,,,,
,,,,,,61372036e1916464a6165cf6,62c53a84b2daef25d43cd7ff,2022-07-06_09h32.53.305,Colour_Asymmetry_Pilot,2022.1.3,Win32,60.87538808,62c50e9c1127f2cd403a315f,,,,,,,,,,,,,,,,,,,,fourthree,,-4,0.9165,,,,,,,,,,,,,,,,,,,,,,,,,,,,,,,,,,"[-0.9844,-0.9688,-0.9922]","[-0.48240000000000005,0.3175999999999999,0.2156]",-34,80,1,0,0,response7disk,0,-2,1,0,0,rectangle,0,-2,1,0,0,,3,0.0014,0,0,-2,1,0,0,0,6,6,59,1,59,first,,,,,,,,,,,,,,,,,,,,,,,,,,,,,,,,,,,,,,,,,,,,,,,,,,,,,,,,,,,,,,,,,,,,,,,,
,,,,,,61372036e1916464a6165cf6,62c53a84b2daef25d43cd7ff,2022-07-06_09h32.53.305,Colour_Asymmetry_Pilot,2022.1.3,Win32,60.87538808,62c50e9c1127f2cd403a315f,,,,,,,,,,,,,,,,,,,,onetwo,,4,3.1174,,,,,,,,,,,,,,,,,,,,,,,,,,,,,,,,,,"[-0.2942,-0.24719999999999998,-0.357]","[-0.6706000000000001,-0.6157999999999999,-0.6786]",41,83,1,0,0,response1disk,17,-4,1,0,0,rectangle,17,-4,1,0,0,,3,9.99999E-05,0,17,-4,1,0,0,0,7,7,147,1,66,second,,,,,,,,,,,,,,,,,,,,,,,,,,,,,,,,,,,,,,,,,,,,,,,,,,,,,,,,,,,,,,,,,,,,,,,,
,,,,,,61372036e1916464a6165cf6,62c53a84b2daef25d43cd7ff,2022-07-06_09h32.53.305,Colour_Asymmetry_Pilot,2022.1.3,Win32,60.87538808,62c50e9c1127f2cd403a315f,,,,,,,,,,,,,,,,,,,,threefour,,3,0.8665,,,,,,,,,,,,,,,,,,,,,,,,,,,,,,,,,,"[-0.9688,-0.4902000000000001,-0.12159999999999993]","[-0.8118,-0.8198,-0.5452]",75,43,1,0,0,response1disk,-2,-4,1,0,0,rectangle,-2,-4,1,0,0,,3,0,0,-2,-4,1,0,0,0,8,8,28,1,28,first,,,,,,,,,,,,,,,,,,,,,,,,,,,,,,,,,,,,,,,,,,,,,,,,,,,,,,,,,,,,,,,,,,,,,,,,
,,,,,,61372036e1916464a6165cf6,62c53a84b2daef25d43cd7ff,2022-07-06_09h32.53.305,Colour_Asymmetry_Pilot,2022.1.3,Win32,60.87538808,62c50e9c1127f2cd403a315f,,,,,,,,,,,,,,,,,,,,onethree,,-4,0.85,,,,,,,,,,,,,,,,,,,,,,,,,,,,,,,,,,"[0.22340000000000004,-0.9296,-0.7884]","[0.05879999999999996,0.2784,0.5841999999999998]",-47,90,1,0,0,response7disk,-6,2,1,0,0,rectangle,-6,2,1,0,0,,3,0.0001,0,-6,2,1,0,0,0,9,9,13,1,13,first,,,,,,,,,,,,,,,,,,,,,,,,,,,,,,,,,,,,,,,,,,,,,,,,,,,,,,,,,,,,,,,,,,,,,,,,
,,,,,,61372036e1916464a6165cf6,62c53a84b2daef25d43cd7ff,2022-07-06_09h32.53.305,Colour_Asymmetry_Pilot,2022.1.3,Win32,60.87538808,62c50e9c1127f2cd403a315f,,,,,,,,,,,,,,,,,,,,onetwo,,-1,4.4661,,,,,,,,,,,,,,,,,,,,,,,,,,,,,,,,,,"[0.7802,-0.23140000000000005,-0.20799999999999996]","[-0.34920000000000007,-0.702,-0.5216]",-47,-70,1,0,0,response5disk,-15,14,1,0,0,rectangle,-15,14,1,0,0,,3,0.0003,0,-15,14,1,0,0,0,10,10,42,1,42,first,,,,,,,,,,,,,,,,,,,,,,,,,,,,,,,,,,,,,,,,,,,,,,,,,,,,,,,,,,,,,,,,,,,,,,,,
,,,,,,61372036e1916464a6165cf6,62c53a84b2daef25d43cd7ff,2022-07-06_09h32.53.305,Colour_Asymmetry_Pilot,2022.1.3,Win32,60.87538808,62c50e9c1127f2cd403a315f,,,,,,,,,,,,,,,,,,,,threefour,,-4,0.7837,,,,,,,,,,,,,,,,,,,,,,,,,,,,,,,,,,"[-0.4746,-0.0354000000000001,0.5449999999999999]","[0.7802,-0.23140000000000005,-0.20799999999999996]",-52,100,1,0,0,response7disk,-2,1,1,0,0,rectangle,-2,1,1,0,0,,2,0.0014,0,-2,1,1,0,0,0,11,11,113,1,32,second,,,,,,,,,,,,,,,,,,,,,,,,,,,,,,,,,,,,,,,,,,,,,,,,,,,,,,,,,,,,,,,,,,,,,,,,
,,,,,,61372036e1916464a6165cf6,62c53a84b2daef25d43cd7ff,2022-07-06_09h32.53.305,Colour_Asymmetry_Pilot,2022.1.3,Win32,60.87538808,62c50e9c1127f2cd403a315f,,,,,,,,,,,,,,,,,,,,onetwo,,-4,0.7833,,,,,,,,,,,,,,,,,,,,,,,,,,,,,,,,,,"[0.05879999999999996,0.2784,0.5841999999999998]","[-0.06680000000000008,-0.45100000000000007,-0.906]",-47,68,1,0,0,response7disk,-18,-6,1,0,0,rectangle,-18,-6,1,0,0,,3,0.0012,0,-18,-6,1,0,0,0,12,12,6,1,6,first,,,,,,,,,,,,,,,,,,,,,,,,,,,,,,,,,,,,,,,,,,,,,,,,,,,,,,,,,,,,,,,,,,,,,,,,
,,,,,,61372036e1916464a6165cf6,62c53a84b2daef25d43cd7ff,2022-07-06_09h32.53.305,Colour_Asymmetry_Pilot,2022.1.3,Win32,60.87538808,62c50e9c1127f2cd403a315f,,,,,,,,,,,,,,,,,,,,fourtwo,,1,1.7782,,,,,,,,,,,,,,,,,,,,,,,,,,,,,,,,,,"[0.9686000000000001,0.3802000000000001,0.19999999999999996]","[0.40379999999999994,0.09000000000000008,0.44300000000000006]",21,-63,1,0,0,response3disk,-14,3,1,0,0,rectangle,88,53,1,0,0,3,3,4.818,1,-2,3,1,0,0,0,13,13,136,1,55,second,response1disk_3,rectangle,,,,,,,,,,,,,,,,,,,,,,,,,,,,,,,,,,,,,,,,,,,,,,,,,,,,,,,,,,,,,,,,,,,,,,
,,,,,,61372036e1916464a6165cf6,62c53a84b2daef25d43cd7ff,2022-07-06_09h32.53.305,Colour_Asymmetry_Pilot,2022.1.3,Win32,60.87538808,62c50e9c1127f2cd403a315f,,,,,,,,,,,,,,,,,,,,onetwo,,-4,0.9664,,,,,,,,,,,,,,,,,,,,,,,,,,,,,,,,,,"[0.22340000000000004,-0.9296,-0.7884]","[0.4196,0.4665999999999999,0.3568]",-48,82,1,0,0,response7disk,-4,1,1,0,0,rectangle,-4,1,1,0,0,3,2,0.0017,0,-4,1,1,0,0,0,14,14,73,1,73,first,,,,,,,,,,,,,,,,,,,,,,,,,,,,,,,,,,,,,,,,,,,,,,,,,,,,,,,,,,,,,,,,,,,,,,,,
,,,,,,61372036e1916464a6165cf6,62c53a84b2daef25d43cd7ff,2022-07-06_09h32.53.305,Colour_Asymmetry_Pilot,2022.1.3,Win32,60.87538808,62c50e9c1127f2cd403a315f,,,,,,,,,,,,,,,,,,,,onetwo,,-1,2.1494,,,,,,,,,,,,,,,,,,,,,,,,,,,,,,,,,,"[-0.9296,-0.12959999999999994,-0.043199999999999905]","[-0.20799999999999996,-0.655,-0.01980000000000004]",-44,-66,1,0,0,response5disk,-3,1,1,0,0,rectangle,-3,1,1,0,0,3,2,0.0003,0,-3,1,1,0,0,0,15,15,84,1,3,second,,,,,,,,,,,,,,,,,,,,,,,,,,,,,,,,,,,,,,,,,,,,,,,,,,,,,,,,,,,,,,,,,,,,,,,,
,,,,,,61372036e1916464a6165cf6,62c53a84b2daef25d43cd7ff,2022-07-06_09h32.53.305,Colour_Asymmetry_Pilot,2022.1.3,Win32,60.87538808,62c50e9c1127f2cd403a315f,,,,,,,,,,,,,,,,,,,,twofour,,4,1.0835,,,,,,,,,,,,,,,,,,,,,,,,,,,,,,,,,,"[-0.30200000000000005,0.14500000000000002,0.2784]","[-0.30200000000000005,0.14500000000000002,0.2784]",39,87,1,0,0,response1disk,15,8,1,0,0,rectangle,15,8,1,0,0,3,3,0.0017,0,15,8,1,0,0,0,16,16,4,1,4,first,,,,,,,,,,,,,,,,,,,,,,,,,,,,,,,,,,,,,,,,,,,,,,,,,,,,,,,,,,,,,,,,,,,,,,,,
,,,,,,61372036e1916464a6165cf6,62c53a84b2daef25d43cd7ff,2022-07-06_09h32.53.305,Colour_Asymmetry_Pilot,2022.1.3,Win32,60.87538808,62c50e9c1127f2cd403a315f,,,,,,,,,,,,,,,,,,,,fourtwo,,-4,0.6671,,,,,,,,,,,,,,,,,,,,,,,,,,,,,,,,,,"[-0.48240000000000005,0.3175999999999999,0.2156]","[-0.9844,-0.9688,-0.9922]",-37,85,1,0,0,response7disk,-7,-1,1,0,0,rectangle,-7,-1,1,0,0,3,1,0.0011,0,-7,-1,1,0,0,0,17,17,140,1,59,second,,,,,,,,,,,,,,,,,,,,,,,,,,,,,,,,,,,,,,,,,,,,,,,,,,,,,,,,,,,,,,,,,,,,,,,,
