trials.thisRepN,trials.thisTrialN,trials.thisN,trials.thisIndex,trials.ran,Colourcodes,participant,session,date,expName,psychopyVersion,OS,frameRate,study_id,trials_4.thisRepN,trials_4.thisTrialN,trials_4.thisN,trials_4.thisIndex,trials_4.ran,StimulusPos,key_resp.keys,key_resp.rt,key_resp_2.keys,key_resp_2.rt,key_resp_15.keys,key_resp_15.rt,key_resp_17.keys,key_resp_17.rt,key_resp_9.keys,key_resp_9.rt,key_resp_10.keys,key_resp_10.rt,Circle1_col,Ecc,Circle2_col,similarity,response_time,mouse_5.x,mouse_5.y,mouse_5.leftButton,mouse_5.midButton,mouse_5.rightButton,mouse_5.clicked_name,mouse_10.x,mouse_10.y,mouse_10.leftButton,mouse_10.midButton,mouse_10.rightButton,mouse_10.clicked_name,mouse_7.x,mouse_7.y,mouse_7.leftButton,mouse_7.midButton,mouse_7.rightButton,mouse_7.clicked_name,catchprac,catchnumberprac,mouse_6.x,mouse_6.y,mouse_6.leftButton,mouse_6.midButton,mouse_6.rightButton,mouse_6.clicked_name,duringprac.thisRepN,duringprac.thisTrialN,duringprac.thisN,duringprac.thisIndex,duringprac.ran,key_resp_22.keys,key_resp_22.rt,Circle1_colour,Circle2_colour,mouse.x,mouse.y,mouse.leftButton,mouse.midButton,mouse.rightButton,mouse.clicked_name,mouse_2.x,mouse_2.y,mouse_2.leftButton,mouse_2.midButton,mouse_2.rightButton,mouse_2.clicked_name,mouse_3.x,mouse_3.y,mouse_3.leftButton,mouse_3.midButton,mouse_3.rightButton,catchresponse,catchnumber,response_time_catch,Catch,mouse_11.x,mouse_11.y,mouse_11.leftButton,mouse_11.midButton,mouse_11.rightButton,trials_2.thisRepN,trials_2.thisTrialN,trials_2.thisN,trials_2.thisIndex,trials_2.ran,Colourpair,Temporder,mouse_3.clicked_name,mouse_11.clicked_name,trials_3.thisRepN,trials_3.thisTrialN,trials_3.thisN,trials_3.thisIndex,trials_3.ran,key_resp_instr_Ishi.keys,key_resp_instr_Ishi.rt,Ishi_trial_keyresp.keys,Ishi_trial_keyresp.rt,Ishi_textbox.text,Ishi_mouse.x,Ishi_mouse.y,Ishi_mouse.leftButton,Ishi_mouse.midButton,Ishi_mouse.rightButton,Ishi_loop.thisRepN,Ishi_loop.thisTrialN,Ishi_loop.thisN,Ishi_loop.thisIndex,Ishi_loop.ran,imageaddress,textbox.text,mouse_4.x,mouse_4.y,mouse_4.leftButton,mouse_4.midButton,mouse_4.rightButton,mouse_4.clicked_name,textbox_2.text,mouse_8.x,mouse_8.y,mouse_8.leftButton,mouse_8.midButton,mouse_8.rightButton,mouse_8.clicked_name,textbox_3.text,mouse_9.x,mouse_9.y,mouse_9.leftButton,mouse_9.midButton,mouse_9.rightButton,mouse_9.clicked_name,textbox_4.text,mouse_12.x,mouse_12.y,mouse_12.leftButton,mouse_12.midButton,mouse_12.rightButton,mouse_12.clicked_name,textbox_5.text,mouse_13.x,mouse_13.y,mouse_13.leftButton,mouse_13.midButton,mouse_13.rightButton,mouse_13.clicked_name,textbox_6.text,mouse_14.x,mouse_14.y,mouse_14.leftButton,mouse_14.midButton,mouse_14.rightButton,mouse_14.clicked_name,textbox_7.text,mouse_15.x,mouse_15.y,mouse_15.leftButton,mouse_15.midButton,mouse_15.rightButton,mouse_15.clicked_name
0,0,0,6,1,,616c46321f72ce4cf4efc717,62c539a5ac5d8d31fb792f59,2022-07-06_09h29.03.144,Colour_Asymmetry_Pilot,2022.1.3,Win32,59.47778505,62c50e9c1127f2cd403a315f,,,,,,,,,,,,,,,,,,,,,,,,,,,,,,,,,,,,,,,,,,,,,,,,,,,,,,,,,,,,,,,,,,,,,,,,,,,,,,,,,,,,,,,,,,,,,,,,,,,,,,,,,,,,,,,,,,,,,,,,,,,,,,,,,,,,,,,,,,,,,,,,,,,,,,,,,,,,,,,,,,,
0,1,1,52,1,,616c46321f72ce4cf4efc717,62c539a5ac5d8d31fb792f59,2022-07-06_09h29.03.144,Colour_Asymmetry_Pilot,2022.1.3,Win32,59.47778505,62c50e9c1127f2cd403a315f,,,,,,,,,,,,,,,,,,,,,,,,,,,,,,,,,,,,,,,,,,,,,,,,,,,,,,,,,,,,,,,,,,,,,,,,,,,,,,,,,,,,,,,,,,,,,,,,,,,,,,,,,,,,,,,,,,,,,,,,,,,,,,,,,,,,,,,,,,,,,,,,,,,,,,,,,,,,,,,,,,,
0,2,2,74,1,,616c46321f72ce4cf4efc717,62c539a5ac5d8d31fb792f59,2022-07-06_09h29.03.144,Colour_Asymmetry_Pilot,2022.1.3,Win32,59.47778505,62c50e9c1127f2cd403a315f,,,,,,,,,,,,,,,,,,,,,,,,,,,,,,,,,,,,,,,,,,,,,,,,,,,,,,,,,,,,,,,,,,,,,,,,,,,,,,,,,,,,,,,,,,,,,,,,,,,,,,,,,,,,,,,,,,,,,,,,,,,,,,,,,,,,,,,,,,,,,,,,,,,,,,,,,,,,,,,,,,,
0,3,3,25,1,,616c46321f72ce4cf4efc717,62c539a5ac5d8d31fb792f59,2022-07-06_09h29.03.144,Colour_Asymmetry_Pilot,2022.1.3,Win32,59.47778505,62c50e9c1127f2cd403a315f,,,,,,,,,,,,,,,,,,,,,,,,,,,,,,,,,,,,,,,,,,,,,,,,,,,,,,,,,,,,,,,,,,,,,,,,,,,,,,,,,,,,,,,,,,,,,,,,,,,,,,,,,,,,,,,,,,,,,,,,,,,,,,,,,,,,,,,,,,,,,,,,,,,,,,,,,,,,,,,,,,,
0,4,4,22,1,,616c46321f72ce4cf4efc717,62c539a5ac5d8d31fb792f59,2022-07-06_09h29.03.144,Colour_Asymmetry_Pilot,2022.1.3,Win32,59.47778505,62c50e9c1127f2cd403a315f,,,,,,,,,,,,,,,,,,,,,,,,,,,,,,,,,,,,,,,,,,,,,,,,,,,,,,,,,,,,,,,,,,,,,,,,,,,,,,,,,,,,,,,,,,,,,,,,,,,,,,,,,,,,,,,,,,,,,,,,,,,,,,,,,,,,,,,,,,,,,,,,,,,,,,,,,,,,,,,,,,,
0,5,5,46,1,,616c46321f72ce4cf4efc717,62c539a5ac5d8d31fb792f59,2022-07-06_09h29.03.144,Colour_Asymmetry_Pilot,2022.1.3,Win32,59.47778505,62c50e9c1127f2cd403a315f,,,,,,,,,,,,,,,,,,,,,,,,,,,,,,,,,,,,,,,,,,,,,,,,,,,,,,,,,,,,,,,,,,,,,,,,,,,,,,,,,,,,,,,,,,,,,,,,,,,,,,,,,,,,,,,,,,,,,,,,,,,,,,,,,,,,,,,,,,,,,,,,,,,,,,,,,,,,,,,,,,,
0,6,6,32,1,,616c46321f72ce4cf4efc717,62c539a5ac5d8d31fb792f59,2022-07-06_09h29.03.144,Colour_Asymmetry_Pilot,2022.1.3,Win32,59.47778505,62c50e9c1127f2cd403a315f,,,,,,,,,,,,,,,,,,,,,,,,,,,,,,,,,,,,,,,,,,,,,,,,,,,,,,,,,,,,,,,,,,,,,,,,,,,,,,,,,,,,,,,,,,,,,,,,,,,,,,,,,,,,,,,,,,,,,,,,,,,,,,,,,,,,,,,,,,,,,,,,,,,,,,,,,,,,,,,,,,,
0,7,7,75,1,,616c46321f72ce4cf4efc717,62c539a5ac5d8d31fb792f59,2022-07-06_09h29.03.144,Colour_Asymmetry_Pilot,2022.1.3,Win32,59.47778505,62c50e9c1127f2cd403a315f,,,,,,,,,,,,,,,,,,,,,,,,,,,,,,,,,,,,,,,,,,,,,,,,,,,,,,,,,,,,,,,,,,,,,,,,,,,,,,,,,,,,,,,,,,,,,,,,,,,,,,,,,,,,,,,,,,,,,,,,,,,,,,,,,,,,,,,,,,,,,,,,,,,,,,,,,,,,,,,,,,,
0,8,8,59,1,,616c46321f72ce4cf4efc717,62c539a5ac5d8d31fb792f59,2022-07-06_09h29.03.144,Colour_Asymmetry_Pilot,2022.1.3,Win32,59.47778505,62c50e9c1127f2cd403a315f,,,,,,,,,,,,,,,,,,,,,,,,,,,,,,,,,,,,,,,,,,,,,,,,,,,,,,,,,,,,,,,,,,,,,,,,,,,,,,,,,,,,,,,,,,,,,,,,,,,,,,,,,,,,,,,,,,,,,,,,,,,,,,,,,,,,,,,,,,,,,,,,,,,,,,,,,,,,,,,,,,,
0,9,9,68,1,,616c46321f72ce4cf4efc717,62c539a5ac5d8d31fb792f59,2022-07-06_09h29.03.144,Colour_Asymmetry_Pilot,2022.1.3,Win32,59.47778505,62c50e9c1127f2cd403a315f,,,,,,,,,,,,,,,,,,,,,,,,,,,,,,,,,,,,,,,,,,,,,,,,,,,,,,,,,,,,,,,,,,,,,,,,,,,,,,,,,,,,,,,,,,,,,,,,,,,,,,,,,,,,,,,,,,,,,,,,,,,,,,,,,,,,,,,,,,,,,,,,,,,,,,,,,,,,,,,,,,,
0,10,10,13,1,,616c46321f72ce4cf4efc717,62c539a5ac5d8d31fb792f59,2022-07-06_09h29.03.144,Colour_Asymmetry_Pilot,2022.1.3,Win32,59.47778505,62c50e9c1127f2cd403a315f,,,,,,,,,,,,,,,,,,,,,,,,,,,,,,,,,,,,,,,,,,,,,,,,,,,,,,,,,,,,,,,,,,,,,,,,,,,,,,,,,,,,,,,,,,,,,,,,,,,,,,,,,,,,,,,,,,,,,,,,,,,,,,,,,,,,,,,,,,,,,,,,,,,,,,,,,,,,,,,,,,,
0,11,11,50,1,,616c46321f72ce4cf4efc717,62c539a5ac5d8d31fb792f59,2022-07-06_09h29.03.144,Colour_Asymmetry_Pilot,2022.1.3,Win32,59.47778505,62c50e9c1127f2cd403a315f,,,,,,,,,,,,,,,,,,,,,,,,,,,,,,,,,,,,,,,,,,,,,,,,,,,,,,,,,,,,,,,,,,,,,,,,,,,,,,,,,,,,,,,,,,,,,,,,,,,,,,,,,,,,,,,,,,,,,,,,,,,,,,,,,,,,,,,,,,,,,,,,,,,,,,,,,,,,,,,,,,,
0,12,12,16,1,,616c46321f72ce4cf4efc717,62c539a5ac5d8d31fb792f59,2022-07-06_09h29.03.144,Colour_Asymmetry_Pilot,2022.1.3,Win32,59.47778505,62c50e9c1127f2cd403a315f,,,,,,,,,,,,,,,,,,,,,,,,,,,,,,,,,,,,,,,,,,,,,,,,,,,,,,,,,,,,,,,,,,,,,,,,,,,,,,,,,,,,,,,,,,,,,,,,,,,,,,,,,,,,,,,,,,,,,,,,,,,,,,,,,,,,,,,,,,,,,,,,,,,,,,,,,,,,,,,,,,,
0,13,13,85,1,,616c46321f72ce4cf4efc717,62c539a5ac5d8d31fb792f59,2022-07-06_09h29.03.144,Colour_Asymmetry_Pilot,2022.1.3,Win32,59.47778505,62c50e9c1127f2cd403a315f,,,,,,,,,,,,,,,,,,,,,,,,,,,,,,,,,,,,,,,,,,,,,,,,,,,,,,,,,,,,,,,,,,,,,,,,,,,,,,,,,,,,,,,,,,,,,,,,,,,,,,,,,,,,,,,,,,,,,,,,,,,,,,,,,,,,,,,,,,,,,,,,,,,,,,,,,,,,,,,,,,,
0,14,14,37,1,,616c46321f72ce4cf4efc717,62c539a5ac5d8d31fb792f59,2022-07-06_09h29.03.144,Colour_Asymmetry_Pilot,2022.1.3,Win32,59.47778505,62c50e9c1127f2cd403a315f,,,,,,,,,,,,,,,,,,,,,,,,,,,,,,,,,,,,,,,,,,,,,,,,,,,,,,,,,,,,,,,,,,,,,,,,,,,,,,,,,,,,,,,,,,,,,,,,,,,,,,,,,,,,,,,,,,,,,,,,,,,,,,,,,,,,,,,,,,,,,,,,,,,,,,,,,,,,,,,,,,,
0,15,15,89,1,,616c46321f72ce4cf4efc717,62c539a5ac5d8d31fb792f59,2022-07-06_09h29.03.144,Colour_Asymmetry_Pilot,2022.1.3,Win32,59.47778505,62c50e9c1127f2cd403a315f,,,,,,,,,,,,,,,,,,,,,,,,,,,,,,,,,,,,,,,,,,,,,,,,,,,,,,,,,,,,,,,,,,,,,,,,,,,,,,,,,,,,,,,,,,,,,,,,,,,,,,,,,,,,,,,,,,,,,,,,,,,,,,,,,,,,,,,,,,,,,,,,,,,,,,,,,,,,,,,,,,,
0,16,16,15,1,,616c46321f72ce4cf4efc717,62c539a5ac5d8d31fb792f59,2022-07-06_09h29.03.144,Colour_Asymmetry_Pilot,2022.1.3,Win32,59.47778505,62c50e9c1127f2cd403a315f,,,,,,,,,,,,,,,,,,,,,,,,,,,,,,,,,,,,,,,,,,,,,,,,,,,,,,,,,,,,,,,,,,,,,,,,,,,,,,,,,,,,,,,,,,,,,,,,,,,,,,,,,,,,,,,,,,,,,,,,,,,,,,,,,,,,,,,,,,,,,,,,,,,,,,,,,,,,,,,,,,,
0,17,17,84,1,,616c46321f72ce4cf4efc717,62c539a5ac5d8d31fb792f59,2022-07-06_09h29.03.144,Colour_Asymmetry_Pilot,2022.1.3,Win32,59.47778505,62c50e9c1127f2cd403a315f,,,,,,,,,,,,,,,,,,,,,,,,,,,,,,,,,,,,,,,,,,,,,,,,,,,,,,,,,,,,,,,,,,,,,,,,,,,,,,,,,,,,,,,,,,,,,,,,,,,,,,,,,,,,,,,,,,,,,,,,,,,,,,,,,,,,,,,,,,,,,,,,,,,,,,,,,,,,,,,,,,,
0,18,18,91,1,,616c46321f72ce4cf4efc717,62c539a5ac5d8d31fb792f59,2022-07-06_09h29.03.144,Colour_Asymmetry_Pilot,2022.1.3,Win32,59.47778505,62c50e9c1127f2cd403a315f,,,,,,,,,,,,,,,,,,,,,,,,,,,,,,,,,,,,,,,,,,,,,,,,,,,,,,,,,,,,,,,,,,,,,,,,,,,,,,,,,,,,,,,,,,,,,,,,,,,,,,,,,,,,,,,,,,,,,,,,,,,,,,,,,,,,,,,,,,,,,,,,,,,,,,,,,,,,,,,,,,,
0,19,19,4,1,,616c46321f72ce4cf4efc717,62c539a5ac5d8d31fb792f59,2022-07-06_09h29.03.144,Colour_Asymmetry_Pilot,2022.1.3,Win32,59.47778505,62c50e9c1127f2cd403a315f,,,,,,,,,,,,,,,,,,,,,,,,,,,,,,,,,,,,,,,,,,,,,,,,,,,,,,,,,,,,,,,,,,,,,,,,,,,,,,,,,,,,,,,,,,,,,,,,,,,,,,,,,,,,,,,,,,,,,,,,,,,,,,,,,,,,,,,,,,,,,,,,,,,,,,,,,,,,,,,,,,,
0,20,20,62,1,,616c46321f72ce4cf4efc717,62c539a5ac5d8d31fb792f59,2022-07-06_09h29.03.144,Colour_Asymmetry_Pilot,2022.1.3,Win32,59.47778505,62c50e9c1127f2cd403a315f,,,,,,,,,,,,,,,,,,,,,,,,,,,,,,,,,,,,,,,,,,,,,,,,,,,,,,,,,,,,,,,,,,,,,,,,,,,,,,,,,,,,,,,,,,,,,,,,,,,,,,,,,,,,,,,,,,,,,,,,,,,,,,,,,,,,,,,,,,,,,,,,,,,,,,,,,,,,,,,,,,,
0,21,21,38,1,,616c46321f72ce4cf4efc717,62c539a5ac5d8d31fb792f59,2022-07-06_09h29.03.144,Colour_Asymmetry_Pilot,2022.1.3,Win32,59.47778505,62c50e9c1127f2cd403a315f,,,,,,,,,,,,,,,,,,,,,,,,,,,,,,,,,,,,,,,,,,,,,,,,,,,,,,,,,,,,,,,,,,,,,,,,,,,,,,,,,,,,,,,,,,,,,,,,,,,,,,,,,,,,,,,,,,,,,,,,,,,,,,,,,,,,,,,,,,,,,,,,,,,,,,,,,,,,,,,,,,,
0,22,22,31,1,,616c46321f72ce4cf4efc717,62c539a5ac5d8d31fb792f59,2022-07-06_09h29.03.144,Colour_Asymmetry_Pilot,2022.1.3,Win32,59.47778505,62c50e9c1127f2cd403a315f,,,,,,,,,,,,,,,,,,,,,,,,,,,,,,,,,,,,,,,,,,,,,,,,,,,,,,,,,,,,,,,,,,,,,,,,,,,,,,,,,,,,,,,,,,,,,,,,,,,,,,,,,,,,,,,,,,,,,,,,,,,,,,,,,,,,,,,,,,,,,,,,,,,,,,,,,,,,,,,,,,,
0,23,23,24,1,,616c46321f72ce4cf4efc717,62c539a5ac5d8d31fb792f59,2022-07-06_09h29.03.144,Colour_Asymmetry_Pilot,2022.1.3,Win32,59.47778505,62c50e9c1127f2cd403a315f,,,,,,,,,,,,,,,,,,,,,,,,,,,,,,,,,,,,,,,,,,,,,,,,,,,,,,,,,,,,,,,,,,,,,,,,,,,,,,,,,,,,,,,,,,,,,,,,,,,,,,,,,,,,,,,,,,,,,,,,,,,,,,,,,,,,,,,,,,,,,,,,,,,,,,,,,,,,,,,,,,,
0,24,24,53,1,,616c46321f72ce4cf4efc717,62c539a5ac5d8d31fb792f59,2022-07-06_09h29.03.144,Colour_Asymmetry_Pilot,2022.1.3,Win32,59.47778505,62c50e9c1127f2cd403a315f,,,,,,,,,,,,,,,,,,,,,,,,,,,,,,,,,,,,,,,,,,,,,,,,,,,,,,,,,,,,,,,,,,,,,,,,,,,,,,,,,,,,,,,,,,,,,,,,,,,,,,,,,,,,,,,,,,,,,,,,,,,,,,,,,,,,,,,,,,,,,,,,,,,,,,,,,,,,,,,,,,,
0,25,25,61,1,,616c46321f72ce4cf4efc717,62c539a5ac5d8d31fb792f59,2022-07-06_09h29.03.144,Colour_Asymmetry_Pilot,2022.1.3,Win32,59.47778505,62c50e9c1127f2cd403a315f,,,,,,,,,,,,,,,,,,,,,,,,,,,,,,,,,,,,,,,,,,,,,,,,,,,,,,,,,,,,,,,,,,,,,,,,,,,,,,,,,,,,,,,,,,,,,,,,,,,,,,,,,,,,,,,,,,,,,,,,,,,,,,,,,,,,,,,,,,,,,,,,,,,,,,,,,,,,,,,,,,,
0,26,26,14,1,,616c46321f72ce4cf4efc717,62c539a5ac5d8d31fb792f59,2022-07-06_09h29.03.144,Colour_Asymmetry_Pilot,2022.1.3,Win32,59.47778505,62c50e9c1127f2cd403a315f,,,,,,,,,,,,,,,,,,,,,,,,,,,,,,,,,,,,,,,,,,,,,,,,,,,,,,,,,,,,,,,,,,,,,,,,,,,,,,,,,,,,,,,,,,,,,,,,,,,,,,,,,,,,,,,,,,,,,,,,,,,,,,,,,,,,,,,,,,,,,,,,,,,,,,,,,,,,,,,,,,,
0,27,27,10,1,,616c46321f72ce4cf4efc717,62c539a5ac5d8d31fb792f59,2022-07-06_09h29.03.144,Colour_Asymmetry_Pilot,2022.1.3,Win32,59.47778505,62c50e9c1127f2cd403a315f,,,,,,,,,,,,,,,,,,,,,,,,,,,,,,,,,,,,,,,,,,,,,,,,,,,,,,,,,,,,,,,,,,,,,,,,,,,,,,,,,,,,,,,,,,,,,,,,,,,,,,,,,,,,,,,,,,,,,,,,,,,,,,,,,,,,,,,,,,,,,,,,,,,,,,,,,,,,,,,,,,,
0,28,28,33,1,,616c46321f72ce4cf4efc717,62c539a5ac5d8d31fb792f59,2022-07-06_09h29.03.144,Colour_Asymmetry_Pilot,2022.1.3,Win32,59.47778505,62c50e9c1127f2cd403a315f,,,,,,,,,,,,,,,,,,,,,,,,,,,,,,,,,,,,,,,,,,,,,,,,,,,,,,,,,,,,,,,,,,,,,,,,,,,,,,,,,,,,,,,,,,,,,,,,,,,,,,,,,,,,,,,,,,,,,,,,,,,,,,,,,,,,,,,,,,,,,,,,,,,,,,,,,,,,,,,,,,,
0,29,29,69,1,,616c46321f72ce4cf4efc717,62c539a5ac5d8d31fb792f59,2022-07-06_09h29.03.144,Colour_Asymmetry_Pilot,2022.1.3,Win32,59.47778505,62c50e9c1127f2cd403a315f,,,,,,,,,,,,,,,,,,,,,,,,,,,,,,,,,,,,,,,,,,,,,,,,,,,,,,,,,,,,,,,,,,,,,,,,,,,,,,,,,,,,,,,,,,,,,,,,,,,,,,,,,,,,,,,,,,,,,,,,,,,,,,,,,,,,,,,,,,,,,,,,,,,,,,,,,,,,,,,,,,,
0,30,30,64,1,,616c46321f72ce4cf4efc717,62c539a5ac5d8d31fb792f59,2022-07-06_09h29.03.144,Colour_Asymmetry_Pilot,2022.1.3,Win32,59.47778505,62c50e9c1127f2cd403a315f,,,,,,,,,,,,,,,,,,,,,,,,,,,,,,,,,,,,,,,,,,,,,,,,,,,,,,,,,,,,,,,,,,,,,,,,,,,,,,,,,,,,,,,,,,,,,,,,,,,,,,,,,,,,,,,,,,,,,,,,,,,,,,,,,,,,,,,,,,,,,,,,,,,,,,,,,,,,,,,,,,,
0,31,31,72,1,,616c46321f72ce4cf4efc717,62c539a5ac5d8d31fb792f59,2022-07-06_09h29.03.144,Colour_Asymmetry_Pilot,2022.1.3,Win32,59.47778505,62c50e9c1127f2cd403a315f,,,,,,,,,,,,,,,,,,,,,,,,,,,,,,,,,,,,,,,,,,,,,,,,,,,,,,,,,,,,,,,,,,,,,,,,,,,,,,,,,,,,,,,,,,,,,,,,,,,,,,,,,,,,,,,,,,,,,,,,,,,,,,,,,,,,,,,,,,,,,,,,,,,,,,,,,,,,,,,,,,,
0,32,32,42,1,,616c46321f72ce4cf4efc717,62c539a5ac5d8d31fb792f59,2022-07-06_09h29.03.144,Colour_Asymmetry_Pilot,2022.1.3,Win32,59.47778505,62c50e9c1127f2cd403a315f,,,,,,,,,,,,,,,,,,,,,,,,,,,,,,,,,,,,,,,,,,,,,,,,,,,,,,,,,,,,,,,,,,,,,,,,,,,,,,,,,,,,,,,,,,,,,,,,,,,,,,,,,,,,,,,,,,,,,,,,,,,,,,,,,,,,,,,,,,,,,,,,,,,,,,,,,,,,,,,,,,,
0,33,33,54,1,,616c46321f72ce4cf4efc717,62c539a5ac5d8d31fb792f59,2022-07-06_09h29.03.144,Colour_Asymmetry_Pilot,2022.1.3,Win32,59.47778505,62c50e9c1127f2cd403a315f,,,,,,,,,,,,,,,,,,,,,,,,,,,,,,,,,,,,,,,,,,,,,,,,,,,,,,,,,,,,,,,,,,,,,,,,,,,,,,,,,,,,,,,,,,,,,,,,,,,,,,,,,,,,,,,,,,,,,,,,,,,,,,,,,,,,,,,,,,,,,,,,,,,,,,,,,,,,,,,,,,,
0,34,34,45,1,,616c46321f72ce4cf4efc717,62c539a5ac5d8d31fb792f59,2022-07-06_09h29.03.144,Colour_Asymmetry_Pilot,2022.1.3,Win32,59.47778505,62c50e9c1127f2cd403a315f,,,,,,,,,,,,,,,,,,,,,,,,,,,,,,,,,,,,,,,,,,,,,,,,,,,,,,,,,,,,,,,,,,,,,,,,,,,,,,,,,,,,,,,,,,,,,,,,,,,,,,,,,,,,,,,,,,,,,,,,,,,,,,,,,,,,,,,,,,,,,,,,,,,,,,,,,,,,,,,,,,,
0,35,35,0,1,,616c46321f72ce4cf4efc717,62c539a5ac5d8d31fb792f59,2022-07-06_09h29.03.144,Colour_Asymmetry_Pilot,2022.1.3,Win32,59.47778505,62c50e9c1127f2cd403a315f,,,,,,,,,,,,,,,,,,,,,,,,,,,,,,,,,,,,,,,,,,,,,,,,,,,,,,,,,,,,,,,,,,,,,,,,,,,,,,,,,,,,,,,,,,,,,,,,,,,,,,,,,,,,,,,,,,,,,,,,,,,,,,,,,,,,,,,,,,,,,,,,,,,,,,,,,,,,,,,,,,,
0,36,36,12,1,,616c46321f72ce4cf4efc717,62c539a5ac5d8d31fb792f59,2022-07-06_09h29.03.144,Colour_Asymmetry_Pilot,2022.1.3,Win32,59.47778505,62c50e9c1127f2cd403a315f,,,,,,,,,,,,,,,,,,,,,,,,,,,,,,,,,,,,,,,,,,,,,,,,,,,,,,,,,,,,,,,,,,,,,,,,,,,,,,,,,,,,,,,,,,,,,,,,,,,,,,,,,,,,,,,,,,,,,,,,,,,,,,,,,,,,,,,,,,,,,,,,,,,,,,,,,,,,,,,,,,,
0,37,37,20,1,,616c46321f72ce4cf4efc717,62c539a5ac5d8d31fb792f59,2022-07-06_09h29.03.144,Colour_Asymmetry_Pilot,2022.1.3,Win32,59.47778505,62c50e9c1127f2cd403a315f,,,,,,,,,,,,,,,,,,,,,,,,,,,,,,,,,,,,,,,,,,,,,,,,,,,,,,,,,,,,,,,,,,,,,,,,,,,,,,,,,,,,,,,,,,,,,,,,,,,,,,,,,,,,,,,,,,,,,,,,,,,,,,,,,,,,,,,,,,,,,,,,,,,,,,,,,,,,,,,,,,,
0,38,38,11,1,,616c46321f72ce4cf4efc717,62c539a5ac5d8d31fb792f59,2022-07-06_09h29.03.144,Colour_Asymmetry_Pilot,2022.1.3,Win32,59.47778505,62c50e9c1127f2cd403a315f,,,,,,,,,,,,,,,,,,,,,,,,,,,,,,,,,,,,,,,,,,,,,,,,,,,,,,,,,,,,,,,,,,,,,,,,,,,,,,,,,,,,,,,,,,,,,,,,,,,,,,,,,,,,,,,,,,,,,,,,,,,,,,,,,,,,,,,,,,,,,,,,,,,,,,,,,,,,,,,,,,,
0,39,39,36,1,,616c46321f72ce4cf4efc717,62c539a5ac5d8d31fb792f59,2022-07-06_09h29.03.144,Colour_Asymmetry_Pilot,2022.1.3,Win32,59.47778505,62c50e9c1127f2cd403a315f,,,,,,,,,,,,,,,,,,,,,,,,,,,,,,,,,,,,,,,,,,,,,,,,,,,,,,,,,,,,,,,,,,,,,,,,,,,,,,,,,,,,,,,,,,,,,,,,,,,,,,,,,,,,,,,,,,,,,,,,,,,,,,,,,,,,,,,,,,,,,,,,,,,,,,,,,,,,,,,,,,,
0,40,40,73,1,,616c46321f72ce4cf4efc717,62c539a5ac5d8d31fb792f59,2022-07-06_09h29.03.144,Colour_Asymmetry_Pilot,2022.1.3,Win32,59.47778505,62c50e9c1127f2cd403a315f,,,,,,,,,,,,,,,,,,,,,,,,,,,,,,,,,,,,,,,,,,,,,,,,,,,,,,,,,,,,,,,,,,,,,,,,,,,,,,,,,,,,,,,,,,,,,,,,,,,,,,,,,,,,,,,,,,,,,,,,,,,,,,,,,,,,,,,,,,,,,,,,,,,,,,,,,,,,,,,,,,,
0,41,41,65,1,,616c46321f72ce4cf4efc717,62c539a5ac5d8d31fb792f59,2022-07-06_09h29.03.144,Colour_Asymmetry_Pilot,2022.1.3,Win32,59.47778505,62c50e9c1127f2cd403a315f,,,,,,,,,,,,,,,,,,,,,,,,,,,,,,,,,,,,,,,,,,,,,,,,,,,,,,,,,,,,,,,,,,,,,,,,,,,,,,,,,,,,,,,,,,,,,,,,,,,,,,,,,,,,,,,,,,,,,,,,,,,,,,,,,,,,,,,,,,,,,,,,,,,,,,,,,,,,,,,,,,,
0,42,42,9,1,,616c46321f72ce4cf4efc717,62c539a5ac5d8d31fb792f59,2022-07-06_09h29.03.144,Colour_Asymmetry_Pilot,2022.1.3,Win32,59.47778505,62c50e9c1127f2cd403a315f,,,,,,,,,,,,,,,,,,,,,,,,,,,,,,,,,,,,,,,,,,,,,,,,,,,,,,,,,,,,,,,,,,,,,,,,,,,,,,,,,,,,,,,,,,,,,,,,,,,,,,,,,,,,,,,,,,,,,,,,,,,,,,,,,,,,,,,,,,,,,,,,,,,,,,,,,,,,,,,,,,,
0,43,43,21,1,,616c46321f72ce4cf4efc717,62c539a5ac5d8d31fb792f59,2022-07-06_09h29.03.144,Colour_Asymmetry_Pilot,2022.1.3,Win32,59.47778505,62c50e9c1127f2cd403a315f,,,,,,,,,,,,,,,,,,,,,,,,,,,,,,,,,,,,,,,,,,,,,,,,,,,,,,,,,,,,,,,,,,,,,,,,,,,,,,,,,,,,,,,,,,,,,,,,,,,,,,,,,,,,,,,,,,,,,,,,,,,,,,,,,,,,,,,,,,,,,,,,,,,,,,,,,,,,,,,,,,,
0,44,44,90,1,,616c46321f72ce4cf4efc717,62c539a5ac5d8d31fb792f59,2022-07-06_09h29.03.144,Colour_Asymmetry_Pilot,2022.1.3,Win32,59.47778505,62c50e9c1127f2cd403a315f,,,,,,,,,,,,,,,,,,,,,,,,,,,,,,,,,,,,,,,,,,,,,,,,,,,,,,,,,,,,,,,,,,,,,,,,,,,,,,,,,,,,,,,,,,,,,,,,,,,,,,,,,,,,,,,,,,,,,,,,,,,,,,,,,,,,,,,,,,,,,,,,,,,,,,,,,,,,,,,,,,,
0,45,45,5,1,,616c46321f72ce4cf4efc717,62c539a5ac5d8d31fb792f59,2022-07-06_09h29.03.144,Colour_Asymmetry_Pilot,2022.1.3,Win32,59.47778505,62c50e9c1127f2cd403a315f,,,,,,,,,,,,,,,,,,,,,,,,,,,,,,,,,,,,,,,,,,,,,,,,,,,,,,,,,,,,,,,,,,,,,,,,,,,,,,,,,,,,,,,,,,,,,,,,,,,,,,,,,,,,,,,,,,,,,,,,,,,,,,,,,,,,,,,,,,,,,,,,,,,,,,,,,,,,,,,,,,,
0,46,46,44,1,,616c46321f72ce4cf4efc717,62c539a5ac5d8d31fb792f59,2022-07-06_09h29.03.144,Colour_Asymmetry_Pilot,2022.1.3,Win32,59.47778505,62c50e9c1127f2cd403a315f,,,,,,,,,,,,,,,,,,,,,,,,,,,,,,,,,,,,,,,,,,,,,,,,,,,,,,,,,,,,,,,,,,,,,,,,,,,,,,,,,,,,,,,,,,,,,,,,,,,,,,,,,,,,,,,,,,,,,,,,,,,,,,,,,,,,,,,,,,,,,,,,,,,,,,,,,,,,,,,,,,,
0,47,47,23,1,,616c46321f72ce4cf4efc717,62c539a5ac5d8d31fb792f59,2022-07-06_09h29.03.144,Colour_Asymmetry_Pilot,2022.1.3,Win32,59.47778505,62c50e9c1127f2cd403a315f,,,,,,,,,,,,,,,,,,,,,,,,,,,,,,,,,,,,,,,,,,,,,,,,,,,,,,,,,,,,,,,,,,,,,,,,,,,,,,,,,,,,,,,,,,,,,,,,,,,,,,,,,,,,,,,,,,,,,,,,,,,,,,,,,,,,,,,,,,,,,,,,,,,,,,,,,,,,,,,,,,,
0,48,48,17,1,,616c46321f72ce4cf4efc717,62c539a5ac5d8d31fb792f59,2022-07-06_09h29.03.144,Colour_Asymmetry_Pilot,2022.1.3,Win32,59.47778505,62c50e9c1127f2cd403a315f,,,,,,,,,,,,,,,,,,,,,,,,,,,,,,,,,,,,,,,,,,,,,,,,,,,,,,,,,,,,,,,,,,,,,,,,,,,,,,,,,,,,,,,,,,,,,,,,,,,,,,,,,,,,,,,,,,,,,,,,,,,,,,,,,,,,,,,,,,,,,,,,,,,,,,,,,,,,,,,,,,,
0,49,49,80,1,,616c46321f72ce4cf4efc717,62c539a5ac5d8d31fb792f59,2022-07-06_09h29.03.144,Colour_Asymmetry_Pilot,2022.1.3,Win32,59.47778505,62c50e9c1127f2cd403a315f,,,,,,,,,,,,,,,,,,,,,,,,,,,,,,,,,,,,,,,,,,,,,,,,,,,,,,,,,,,,,,,,,,,,,,,,,,,,,,,,,,,,,,,,,,,,,,,,,,,,,,,,,,,,,,,,,,,,,,,,,,,,,,,,,,,,,,,,,,,,,,,,,,,,,,,,,,,,,,,,,,,
0,50,50,88,1,,616c46321f72ce4cf4efc717,62c539a5ac5d8d31fb792f59,2022-07-06_09h29.03.144,Colour_Asymmetry_Pilot,2022.1.3,Win32,59.47778505,62c50e9c1127f2cd403a315f,,,,,,,,,,,,,,,,,,,,,,,,,,,,,,,,,,,,,,,,,,,,,,,,,,,,,,,,,,,,,,,,,,,,,,,,,,,,,,,,,,,,,,,,,,,,,,,,,,,,,,,,,,,,,,,,,,,,,,,,,,,,,,,,,,,,,,,,,,,,,,,,,,,,,,,,,,,,,,,,,,,
0,51,51,81,1,,616c46321f72ce4cf4efc717,62c539a5ac5d8d31fb792f59,2022-07-06_09h29.03.144,Colour_Asymmetry_Pilot,2022.1.3,Win32,59.47778505,62c50e9c1127f2cd403a315f,,,,,,,,,,,,,,,,,,,,,,,,,,,,,,,,,,,,,,,,,,,,,,,,,,,,,,,,,,,,,,,,,,,,,,,,,,,,,,,,,,,,,,,,,,,,,,,,,,,,,,,,,,,,,,,,,,,,,,,,,,,,,,,,,,,,,,,,,,,,,,,,,,,,,,,,,,,,,,,,,,,
0,52,52,86,1,,616c46321f72ce4cf4efc717,62c539a5ac5d8d31fb792f59,2022-07-06_09h29.03.144,Colour_Asymmetry_Pilot,2022.1.3,Win32,59.47778505,62c50e9c1127f2cd403a315f,,,,,,,,,,,,,,,,,,,,,,,,,,,,,,,,,,,,,,,,,,,,,,,,,,,,,,,,,,,,,,,,,,,,,,,,,,,,,,,,,,,,,,,,,,,,,,,,,,,,,,,,,,,,,,,,,,,,,,,,,,,,,,,,,,,,,,,,,,,,,,,,,,,,,,,,,,,,,,,,,,,
0,53,53,39,1,,616c46321f72ce4cf4efc717,62c539a5ac5d8d31fb792f59,2022-07-06_09h29.03.144,Colour_Asymmetry_Pilot,2022.1.3,Win32,59.47778505,62c50e9c1127f2cd403a315f,,,,,,,,,,,,,,,,,,,,,,,,,,,,,,,,,,,,,,,,,,,,,,,,,,,,,,,,,,,,,,,,,,,,,,,,,,,,,,,,,,,,,,,,,,,,,,,,,,,,,,,,,,,,,,,,,,,,,,,,,,,,,,,,,,,,,,,,,,,,,,,,,,,,,,,,,,,,,,,,,,,
0,54,54,41,1,,616c46321f72ce4cf4efc717,62c539a5ac5d8d31fb792f59,2022-07-06_09h29.03.144,Colour_Asymmetry_Pilot,2022.1.3,Win32,59.47778505,62c50e9c1127f2cd403a315f,,,,,,,,,,,,,,,,,,,,,,,,,,,,,,,,,,,,,,,,,,,,,,,,,,,,,,,,,,,,,,,,,,,,,,,,,,,,,,,,,,,,,,,,,,,,,,,,,,,,,,,,,,,,,,,,,,,,,,,,,,,,,,,,,,,,,,,,,,,,,,,,,,,,,,,,,,,,,,,,,,,
0,55,55,63,1,,616c46321f72ce4cf4efc717,62c539a5ac5d8d31fb792f59,2022-07-06_09h29.03.144,Colour_Asymmetry_Pilot,2022.1.3,Win32,59.47778505,62c50e9c1127f2cd403a315f,,,,,,,,,,,,,,,,,,,,,,,,,,,,,,,,,,,,,,,,,,,,,,,,,,,,,,,,,,,,,,,,,,,,,,,,,,,,,,,,,,,,,,,,,,,,,,,,,,,,,,,,,,,,,,,,,,,,,,,,,,,,,,,,,,,,,,,,,,,,,,,,,,,,,,,,,,,,,,,,,,,
0,56,56,30,1,,616c46321f72ce4cf4efc717,62c539a5ac5d8d31fb792f59,2022-07-06_09h29.03.144,Colour_Asymmetry_Pilot,2022.1.3,Win32,59.47778505,62c50e9c1127f2cd403a315f,,,,,,,,,,,,,,,,,,,,,,,,,,,,,,,,,,,,,,,,,,,,,,,,,,,,,,,,,,,,,,,,,,,,,,,,,,,,,,,,,,,,,,,,,,,,,,,,,,,,,,,,,,,,,,,,,,,,,,,,,,,,,,,,,,,,,,,,,,,,,,,,,,,,,,,,,,,,,,,,,,,
0,57,57,1,1,,616c46321f72ce4cf4efc717,62c539a5ac5d8d31fb792f59,2022-07-06_09h29.03.144,Colour_Asymmetry_Pilot,2022.1.3,Win32,59.47778505,62c50e9c1127f2cd403a315f,,,,,,,,,,,,,,,,,,,,,,,,,,,,,,,,,,,,,,,,,,,,,,,,,,,,,,,,,,,,,,,,,,,,,,,,,,,,,,,,,,,,,,,,,,,,,,,,,,,,,,,,,,,,,,,,,,,,,,,,,,,,,,,,,,,,,,,,,,,,,,,,,,,,,,,,,,,,,,,,,,,
0,58,58,7,1,,616c46321f72ce4cf4efc717,62c539a5ac5d8d31fb792f59,2022-07-06_09h29.03.144,Colour_Asymmetry_Pilot,2022.1.3,Win32,59.47778505,62c50e9c1127f2cd403a315f,,,,,,,,,,,,,,,,,,,,,,,,,,,,,,,,,,,,,,,,,,,,,,,,,,,,,,,,,,,,,,,,,,,,,,,,,,,,,,,,,,,,,,,,,,,,,,,,,,,,,,,,,,,,,,,,,,,,,,,,,,,,,,,,,,,,,,,,,,,,,,,,,,,,,,,,,,,,,,,,,,,
0,59,59,66,1,,616c46321f72ce4cf4efc717,62c539a5ac5d8d31fb792f59,2022-07-06_09h29.03.144,Colour_Asymmetry_Pilot,2022.1.3,Win32,59.47778505,62c50e9c1127f2cd403a315f,,,,,,,,,,,,,,,,,,,,,,,,,,,,,,,,,,,,,,,,,,,,,,,,,,,,,,,,,,,,,,,,,,,,,,,,,,,,,,,,,,,,,,,,,,,,,,,,,,,,,,,,,,,,,,,,,,,,,,,,,,,,,,,,,,,,,,,,,,,,,,,,,,,,,,,,,,,,,,,,,,,
0,60,60,76,1,,616c46321f72ce4cf4efc717,62c539a5ac5d8d31fb792f59,2022-07-06_09h29.03.144,Colour_Asymmetry_Pilot,2022.1.3,Win32,59.47778505,62c50e9c1127f2cd403a315f,,,,,,,,,,,,,,,,,,,,,,,,,,,,,,,,,,,,,,,,,,,,,,,,,,,,,,,,,,,,,,,,,,,,,,,,,,,,,,,,,,,,,,,,,,,,,,,,,,,,,,,,,,,,,,,,,,,,,,,,,,,,,,,,,,,,,,,,,,,,,,,,,,,,,,,,,,,,,,,,,,,
0,61,61,40,1,,616c46321f72ce4cf4efc717,62c539a5ac5d8d31fb792f59,2022-07-06_09h29.03.144,Colour_Asymmetry_Pilot,2022.1.3,Win32,59.47778505,62c50e9c1127f2cd403a315f,,,,,,,,,,,,,,,,,,,,,,,,,,,,,,,,,,,,,,,,,,,,,,,,,,,,,,,,,,,,,,,,,,,,,,,,,,,,,,,,,,,,,,,,,,,,,,,,,,,,,,,,,,,,,,,,,,,,,,,,,,,,,,,,,,,,,,,,,,,,,,,,,,,,,,,,,,,,,,,,,,,
0,62,62,29,1,,616c46321f72ce4cf4efc717,62c539a5ac5d8d31fb792f59,2022-07-06_09h29.03.144,Colour_Asymmetry_Pilot,2022.1.3,Win32,59.47778505,62c50e9c1127f2cd403a315f,,,,,,,,,,,,,,,,,,,,,,,,,,,,,,,,,,,,,,,,,,,,,,,,,,,,,,,,,,,,,,,,,,,,,,,,,,,,,,,,,,,,,,,,,,,,,,,,,,,,,,,,,,,,,,,,,,,,,,,,,,,,,,,,,,,,,,,,,,,,,,,,,,,,,,,,,,,,,,,,,,,
0,63,63,57,1,,616c46321f72ce4cf4efc717,62c539a5ac5d8d31fb792f59,2022-07-06_09h29.03.144,Colour_Asymmetry_Pilot,2022.1.3,Win32,59.47778505,62c50e9c1127f2cd403a315f,,,,,,,,,,,,,,,,,,,,,,,,,,,,,,,,,,,,,,,,,,,,,,,,,,,,,,,,,,,,,,,,,,,,,,,,,,,,,,,,,,,,,,,,,,,,,,,,,,,,,,,,,,,,,,,,,,,,,,,,,,,,,,,,,,,,,,,,,,,,,,,,,,,,,,,,,,,,,,,,,,,
0,64,64,78,1,,616c46321f72ce4cf4efc717,62c539a5ac5d8d31fb792f59,2022-07-06_09h29.03.144,Colour_Asymmetry_Pilot,2022.1.3,Win32,59.47778505,62c50e9c1127f2cd403a315f,,,,,,,,,,,,,,,,,,,,,,,,,,,,,,,,,,,,,,,,,,,,,,,,,,,,,,,,,,,,,,,,,,,,,,,,,,,,,,,,,,,,,,,,,,,,,,,,,,,,,,,,,,,,,,,,,,,,,,,,,,,,,,,,,,,,,,,,,,,,,,,,,,,,,,,,,,,,,,,,,,,
0,65,65,83,1,,616c46321f72ce4cf4efc717,62c539a5ac5d8d31fb792f59,2022-07-06_09h29.03.144,Colour_Asymmetry_Pilot,2022.1.3,Win32,59.47778505,62c50e9c1127f2cd403a315f,,,,,,,,,,,,,,,,,,,,,,,,,,,,,,,,,,,,,,,,,,,,,,,,,,,,,,,,,,,,,,,,,,,,,,,,,,,,,,,,,,,,,,,,,,,,,,,,,,,,,,,,,,,,,,,,,,,,,,,,,,,,,,,,,,,,,,,,,,,,,,,,,,,,,,,,,,,,,,,,,,,
0,66,66,2,1,,616c46321f72ce4cf4efc717,62c539a5ac5d8d31fb792f59,2022-07-06_09h29.03.144,Colour_Asymmetry_Pilot,2022.1.3,Win32,59.47778505,62c50e9c1127f2cd403a315f,,,,,,,,,,,,,,,,,,,,,,,,,,,,,,,,,,,,,,,,,,,,,,,,,,,,,,,,,,,,,,,,,,,,,,,,,,,,,,,,,,,,,,,,,,,,,,,,,,,,,,,,,,,,,,,,,,,,,,,,,,,,,,,,,,,,,,,,,,,,,,,,,,,,,,,,,,,,,,,,,,,
0,67,67,19,1,,616c46321f72ce4cf4efc717,62c539a5ac5d8d31fb792f59,2022-07-06_09h29.03.144,Colour_Asymmetry_Pilot,2022.1.3,Win32,59.47778505,62c50e9c1127f2cd403a315f,,,,,,,,,,,,,,,,,,,,,,,,,,,,,,,,,,,,,,,,,,,,,,,,,,,,,,,,,,,,,,,,,,,,,,,,,,,,,,,,,,,,,,,,,,,,,,,,,,,,,,,,,,,,,,,,,,,,,,,,,,,,,,,,,,,,,,,,,,,,,,,,,,,,,,,,,,,,,,,,,,,
0,68,68,82,1,,616c46321f72ce4cf4efc717,62c539a5ac5d8d31fb792f59,2022-07-06_09h29.03.144,Colour_Asymmetry_Pilot,2022.1.3,Win32,59.47778505,62c50e9c1127f2cd403a315f,,,,,,,,,,,,,,,,,,,,,,,,,,,,,,,,,,,,,,,,,,,,,,,,,,,,,,,,,,,,,,,,,,,,,,,,,,,,,,,,,,,,,,,,,,,,,,,,,,,,,,,,,,,,,,,,,,,,,,,,,,,,,,,,,,,,,,,,,,,,,,,,,,,,,,,,,,,,,,,,,,,
0,69,69,3,1,,616c46321f72ce4cf4efc717,62c539a5ac5d8d31fb792f59,2022-07-06_09h29.03.144,Colour_Asymmetry_Pilot,2022.1.3,Win32,59.47778505,62c50e9c1127f2cd403a315f,,,,,,,,,,,,,,,,,,,,,,,,,,,,,,,,,,,,,,,,,,,,,,,,,,,,,,,,,,,,,,,,,,,,,,,,,,,,,,,,,,,,,,,,,,,,,,,,,,,,,,,,,,,,,,,,,,,,,,,,,,,,,,,,,,,,,,,,,,,,,,,,,,,,,,,,,,,,,,,,,,,
0,70,70,47,1,,616c46321f72ce4cf4efc717,62c539a5ac5d8d31fb792f59,2022-07-06_09h29.03.144,Colour_Asymmetry_Pilot,2022.1.3,Win32,59.47778505,62c50e9c1127f2cd403a315f,,,,,,,,,,,,,,,,,,,,,,,,,,,,,,,,,,,,,,,,,,,,,,,,,,,,,,,,,,,,,,,,,,,,,,,,,,,,,,,,,,,,,,,,,,,,,,,,,,,,,,,,,,,,,,,,,,,,,,,,,,,,,,,,,,,,,,,,,,,,,,,,,,,,,,,,,,,,,,,,,,,
0,71,71,49,1,,616c46321f72ce4cf4efc717,62c539a5ac5d8d31fb792f59,2022-07-06_09h29.03.144,Colour_Asymmetry_Pilot,2022.1.3,Win32,59.47778505,62c50e9c1127f2cd403a315f,,,,,,,,,,,,,,,,,,,,,,,,,,,,,,,,,,,,,,,,,,,,,,,,,,,,,,,,,,,,,,,,,,,,,,,,,,,,,,,,,,,,,,,,,,,,,,,,,,,,,,,,,,,,,,,,,,,,,,,,,,,,,,,,,,,,,,,,,,,,,,,,,,,,,,,,,,,,,,,,,,,
0,72,72,35,1,,616c46321f72ce4cf4efc717,62c539a5ac5d8d31fb792f59,2022-07-06_09h29.03.144,Colour_Asymmetry_Pilot,2022.1.3,Win32,59.47778505,62c50e9c1127f2cd403a315f,,,,,,,,,,,,,,,,,,,,,,,,,,,,,,,,,,,,,,,,,,,,,,,,,,,,,,,,,,,,,,,,,,,,,,,,,,,,,,,,,,,,,,,,,,,,,,,,,,,,,,,,,,,,,,,,,,,,,,,,,,,,,,,,,,,,,,,,,,,,,,,,,,,,,,,,,,,,,,,,,,,
0,73,73,77,1,,616c46321f72ce4cf4efc717,62c539a5ac5d8d31fb792f59,2022-07-06_09h29.03.144,Colour_Asymmetry_Pilot,2022.1.3,Win32,59.47778505,62c50e9c1127f2cd403a315f,,,,,,,,,,,,,,,,,,,,,,,,,,,,,,,,,,,,,,,,,,,,,,,,,,,,,,,,,,,,,,,,,,,,,,,,,,,,,,,,,,,,,,,,,,,,,,,,,,,,,,,,,,,,,,,,,,,,,,,,,,,,,,,,,,,,,,,,,,,,,,,,,,,,,,,,,,,,,,,,,,,
0,74,74,58,1,,616c46321f72ce4cf4efc717,62c539a5ac5d8d31fb792f59,2022-07-06_09h29.03.144,Colour_Asymmetry_Pilot,2022.1.3,Win32,59.47778505,62c50e9c1127f2cd403a315f,,,,,,,,,,,,,,,,,,,,,,,,,,,,,,,,,,,,,,,,,,,,,,,,,,,,,,,,,,,,,,,,,,,,,,,,,,,,,,,,,,,,,,,,,,,,,,,,,,,,,,,,,,,,,,,,,,,,,,,,,,,,,,,,,,,,,,,,,,,,,,,,,,,,,,,,,,,,,,,,,,,
0,75,75,27,1,,616c46321f72ce4cf4efc717,62c539a5ac5d8d31fb792f59,2022-07-06_09h29.03.144,Colour_Asymmetry_Pilot,2022.1.3,Win32,59.47778505,62c50e9c1127f2cd403a315f,,,,,,,,,,,,,,,,,,,,,,,,,,,,,,,,,,,,,,,,,,,,,,,,,,,,,,,,,,,,,,,,,,,,,,,,,,,,,,,,,,,,,,,,,,,,,,,,,,,,,,,,,,,,,,,,,,,,,,,,,,,,,,,,,,,,,,,,,,,,,,,,,,,,,,,,,,,,,,,,,,,
0,76,76,87,1,,616c46321f72ce4cf4efc717,62c539a5ac5d8d31fb792f59,2022-07-06_09h29.03.144,Colour_Asymmetry_Pilot,2022.1.3,Win32,59.47778505,62c50e9c1127f2cd403a315f,,,,,,,,,,,,,,,,,,,,,,,,,,,,,,,,,,,,,,,,,,,,,,,,,,,,,,,,,,,,,,,,,,,,,,,,,,,,,,,,,,,,,,,,,,,,,,,,,,,,,,,,,,,,,,,,,,,,,,,,,,,,,,,,,,,,,,,,,,,,,,,,,,,,,,,,,,,,,,,,,,,
0,77,77,60,1,,616c46321f72ce4cf4efc717,62c539a5ac5d8d31fb792f59,2022-07-06_09h29.03.144,Colour_Asymmetry_Pilot,2022.1.3,Win32,59.47778505,62c50e9c1127f2cd403a315f,,,,,,,,,,,,,,,,,,,,,,,,,,,,,,,,,,,,,,,,,,,,,,,,,,,,,,,,,,,,,,,,,,,,,,,,,,,,,,,,,,,,,,,,,,,,,,,,,,,,,,,,,,,,,,,,,,,,,,,,,,,,,,,,,,,,,,,,,,,,,,,,,,,,,,,,,,,,,,,,,,,
0,78,78,55,1,,616c46321f72ce4cf4efc717,62c539a5ac5d8d31fb792f59,2022-07-06_09h29.03.144,Colour_Asymmetry_Pilot,2022.1.3,Win32,59.47778505,62c50e9c1127f2cd403a315f,,,,,,,,,,,,,,,,,,,,,,,,,,,,,,,,,,,,,,,,,,,,,,,,,,,,,,,,,,,,,,,,,,,,,,,,,,,,,,,,,,,,,,,,,,,,,,,,,,,,,,,,,,,,,,,,,,,,,,,,,,,,,,,,,,,,,,,,,,,,,,,,,,,,,,,,,,,,,,,,,,,
0,79,79,71,1,,616c46321f72ce4cf4efc717,62c539a5ac5d8d31fb792f59,2022-07-06_09h29.03.144,Colour_Asymmetry_Pilot,2022.1.3,Win32,59.47778505,62c50e9c1127f2cd403a315f,,,,,,,,,,,,,,,,,,,,,,,,,,,,,,,,,,,,,,,,,,,,,,,,,,,,,,,,,,,,,,,,,,,,,,,,,,,,,,,,,,,,,,,,,,,,,,,,,,,,,,,,,,,,,,,,,,,,,,,,,,,,,,,,,,,,,,,,,,,,,,,,,,,,,,,,,,,,,,,,,,,
0,80,80,48,1,,616c46321f72ce4cf4efc717,62c539a5ac5d8d31fb792f59,2022-07-06_09h29.03.144,Colour_Asymmetry_Pilot,2022.1.3,Win32,59.47778505,62c50e9c1127f2cd403a315f,,,,,,,,,,,,,,,,,,,,,,,,,,,,,,,,,,,,,,,,,,,,,,,,,,,,,,,,,,,,,,,,,,,,,,,,,,,,,,,,,,,,,,,,,,,,,,,,,,,,,,,,,,,,,,,,,,,,,,,,,,,,,,,,,,,,,,,,,,,,,,,,,,,,,,,,,,,,,,,,,,,
0,81,81,28,1,,616c46321f72ce4cf4efc717,62c539a5ac5d8d31fb792f59,2022-07-06_09h29.03.144,Colour_Asymmetry_Pilot,2022.1.3,Win32,59.47778505,62c50e9c1127f2cd403a315f,,,,,,,,,,,,,,,,,,,,,,,,,,,,,,,,,,,,,,,,,,,,,,,,,,,,,,,,,,,,,,,,,,,,,,,,,,,,,,,,,,,,,,,,,,,,,,,,,,,,,,,,,,,,,,,,,,,,,,,,,,,,,,,,,,,,,,,,,,,,,,,,,,,,,,,,,,,,,,,,,,,
0,82,82,26,1,,616c46321f72ce4cf4efc717,62c539a5ac5d8d31fb792f59,2022-07-06_09h29.03.144,Colour_Asymmetry_Pilot,2022.1.3,Win32,59.47778505,62c50e9c1127f2cd403a315f,,,,,,,,,,,,,,,,,,,,,,,,,,,,,,,,,,,,,,,,,,,,,,,,,,,,,,,,,,,,,,,,,,,,,,,,,,,,,,,,,,,,,,,,,,,,,,,,,,,,,,,,,,,,,,,,,,,,,,,,,,,,,,,,,,,,,,,,,,,,,,,,,,,,,,,,,,,,,,,,,,,
0,83,83,18,1,,616c46321f72ce4cf4efc717,62c539a5ac5d8d31fb792f59,2022-07-06_09h29.03.144,Colour_Asymmetry_Pilot,2022.1.3,Win32,59.47778505,62c50e9c1127f2cd403a315f,,,,,,,,,,,,,,,,,,,,,,,,,,,,,,,,,,,,,,,,,,,,,,,,,,,,,,,,,,,,,,,,,,,,,,,,,,,,,,,,,,,,,,,,,,,,,,,,,,,,,,,,,,,,,,,,,,,,,,,,,,,,,,,,,,,,,,,,,,,,,,,,,,,,,,,,,,,,,,,,,,,
0,84,84,92,1,,616c46321f72ce4cf4efc717,62c539a5ac5d8d31fb792f59,2022-07-06_09h29.03.144,Colour_Asymmetry_Pilot,2022.1.3,Win32,59.47778505,62c50e9c1127f2cd403a315f,,,,,,,,,,,,,,,,,,,,,,,,,,,,,,,,,,,,,,,,,,,,,,,,,,,,,,,,,,,,,,,,,,,,,,,,,,,,,,,,,,,,,,,,,,,,,,,,,,,,,,,,,,,,,,,,,,,,,,,,,,,,,,,,,,,,,,,,,,,,,,,,,,,,,,,,,,,,,,,,,,,
0,85,85,70,1,,616c46321f72ce4cf4efc717,62c539a5ac5d8d31fb792f59,2022-07-06_09h29.03.144,Colour_Asymmetry_Pilot,2022.1.3,Win32,59.47778505,62c50e9c1127f2cd403a315f,,,,,,,,,,,,,,,,,,,,,,,,,,,,,,,,,,,,,,,,,,,,,,,,,,,,,,,,,,,,,,,,,,,,,,,,,,,,,,,,,,,,,,,,,,,,,,,,,,,,,,,,,,,,,,,,,,,,,,,,,,,,,,,,,,,,,,,,,,,,,,,,,,,,,,,,,,,,,,,,,,,
0,86,86,43,1,,616c46321f72ce4cf4efc717,62c539a5ac5d8d31fb792f59,2022-07-06_09h29.03.144,Colour_Asymmetry_Pilot,2022.1.3,Win32,59.47778505,62c50e9c1127f2cd403a315f,,,,,,,,,,,,,,,,,,,,,,,,,,,,,,,,,,,,,,,,,,,,,,,,,,,,,,,,,,,,,,,,,,,,,,,,,,,,,,,,,,,,,,,,,,,,,,,,,,,,,,,,,,,,,,,,,,,,,,,,,,,,,,,,,,,,,,,,,,,,,,,,,,,,,,,,,,,,,,,,,,,
0,87,87,8,1,,616c46321f72ce4cf4efc717,62c539a5ac5d8d31fb792f59,2022-07-06_09h29.03.144,Colour_Asymmetry_Pilot,2022.1.3,Win32,59.47778505,62c50e9c1127f2cd403a315f,,,,,,,,,,,,,,,,,,,,,,,,,,,,,,,,,,,,,,,,,,,,,,,,,,,,,,,,,,,,,,,,,,,,,,,,,,,,,,,,,,,,,,,,,,,,,,,,,,,,,,,,,,,,,,,,,,,,,,,,,,,,,,,,,,,,,,,,,,,,,,,,,,,,,,,,,,,,,,,,,,,
0,88,88,56,1,,616c46321f72ce4cf4efc717,62c539a5ac5d8d31fb792f59,2022-07-06_09h29.03.144,Colour_Asymmetry_Pilot,2022.1.3,Win32,59.47778505,62c50e9c1127f2cd403a315f,,,,,,,,,,,,,,,,,,,,,,,,,,,,,,,,,,,,,,,,,,,,,,,,,,,,,,,,,,,,,,,,,,,,,,,,,,,,,,,,,,,,,,,,,,,,,,,,,,,,,,,,,,,,,,,,,,,,,,,,,,,,,,,,,,,,,,,,,,,,,,,,,,,,,,,,,,,,,,,,,,,
0,89,89,67,1,,616c46321f72ce4cf4efc717,62c539a5ac5d8d31fb792f59,2022-07-06_09h29.03.144,Colour_Asymmetry_Pilot,2022.1.3,Win32,59.47778505,62c50e9c1127f2cd403a315f,,,,,,,,,,,,,,,,,,,,,,,,,,,,,,,,,,,,,,,,,,,,,,,,,,,,,,,,,,,,,,,,,,,,,,,,,,,,,,,,,,,,,,,,,,,,,,,,,,,,,,,,,,,,,,,,,,,,,,,,,,,,,,,,,,,,,,,,,,,,,,,,,,,,,,,,,,,,,,,,,,,
0,90,90,51,1,,616c46321f72ce4cf4efc717,62c539a5ac5d8d31fb792f59,2022-07-06_09h29.03.144,Colour_Asymmetry_Pilot,2022.1.3,Win32,59.47778505,62c50e9c1127f2cd403a315f,,,,,,,,,,,,,,,,,,,,,,,,,,,,,,,,,,,,,,,,,,,,,,,,,,,,,,,,,,,,,,,,,,,,,,,,,,,,,,,,,,,,,,,,,,,,,,,,,,,,,,,,,,,,,,,,,,,,,,,,,,,,,,,,,,,,,,,,,,,,,,,,,,,,,,,,,,,,,,,,,,,
0,91,91,34,1,,616c46321f72ce4cf4efc717,62c539a5ac5d8d31fb792f59,2022-07-06_09h29.03.144,Colour_Asymmetry_Pilot,2022.1.3,Win32,59.47778505,62c50e9c1127f2cd403a315f,,,,,,,,,,,,,,,,,,,,,,,,,,,,,,,,,,,,,,,,,,,,,,,,,,,,,,,,,,,,,,,,,,,,,,,,,,,,,,,,,,,,,,,,,,,,,,,,,,,,,,,,,,,,,,,,,,,,,,,,,,,,,,,,,,,,,,,,,,,,,,,,,,,,,,,,,,,,,,,,,,,
0,92,92,79,1,,616c46321f72ce4cf4efc717,62c539a5ac5d8d31fb792f59,2022-07-06_09h29.03.144,Colour_Asymmetry_Pilot,2022.1.3,Win32,59.47778505,62c50e9c1127f2cd403a315f,,,,,,,,,,,,,,,,,,,,,,,,,,,,,,,,,,,,,,,,,,,,,,,,,,,,,,,,,,,,,,,,,,,,,,,,,,,,,,,,,,,,,,,,,,,,,,,,,,,,,,,,,,,,,,,,,,,,,,,,,,,,,,,,,,,,,,,,,,,,,,,,,,,,,,,,,,,,,,,,,,,
,,,,,,616c46321f72ce4cf4efc717,62c539a5ac5d8d31fb792f59,2022-07-06_09h29.03.144,Colour_Asymmetry_Pilot,2022.1.3,Win32,59.47778505,62c50e9c1127f2cd403a315f,0,0,0,30,1,fourtwo,,,,,,,,,,,,,,,,,,,,,,,,,,,,,,,,,,,,,,,,,,,,,,,,,,,,,,,,,,,,,,,,,,,,,,,,,,,,,,,,,,,,,,,,,,,,,,,,,,,,,,,,,,,,,,,,,,,,,,,,,,,,,,,,,,,,,,,,,,,,,,,,,,,,,,,,,,,,,
,,,,,,616c46321f72ce4cf4efc717,62c539a5ac5d8d31fb792f59,2022-07-06_09h29.03.144,Colour_Asymmetry_Pilot,2022.1.3,Win32,59.47778505,62c50e9c1127f2cd403a315f,0,1,1,58,1,twoone,,,,,,,,,,,,,,,,,,,,,,,,,,,,,,,,,,,,,,,,,,,,,,,,,,,,,,,,,,,,,,,,,,,,,,,,,,,,,,,,,,,,,,,,,,,,,,,,,,,,,,,,,,,,,,,,,,,,,,,,,,,,,,,,,,,,,,,,,,,,,,,,,,,,,,,,,,,,,
,,,,,,616c46321f72ce4cf4efc717,62c539a5ac5d8d31fb792f59,2022-07-06_09h29.03.144,Colour_Asymmetry_Pilot,2022.1.3,Win32,59.47778505,62c50e9c1127f2cd403a315f,0,2,2,49,1,onethree,,,,,,,,,,,,,,,,,,,,,,,,,,,,,,,,,,,,,,,,,,,,,,,,,,,,,,,,,,,,,,,,,,,,,,,,,,,,,,,,,,,,,,,,,,,,,,,,,,,,,,,,,,,,,,,,,,,,,,,,,,,,,,,,,,,,,,,,,,,,,,,,,,,,,,,,,,,,,
,,,,,,616c46321f72ce4cf4efc717,62c539a5ac5d8d31fb792f59,2022-07-06_09h29.03.144,Colour_Asymmetry_Pilot,2022.1.3,Win32,59.47778505,62c50e9c1127f2cd403a315f,0,3,3,139,1,twofour,,,,,,,,,,,,,,,,,,,,,,,,,,,,,,,,,,,,,,,,,,,,,,,,,,,,,,,,,,,,,,,,,,,,,,,,,,,,,,,,,,,,,,,,,,,,,,,,,,,,,,,,,,,,,,,,,,,,,,,,,,,,,,,,,,,,,,,,,,,,,,,,,,,,,,,,,,,,,
,,,,,,616c46321f72ce4cf4efc717,62c539a5ac5d8d31fb792f59,2022-07-06_09h29.03.144,Colour_Asymmetry_Pilot,2022.1.3,Win32,59.47778505,62c50e9c1127f2cd403a315f,0,4,4,147,1,twofour,,,,,,,,,,,,,,,,,,,,,,,,,,,,,,,,,,,,,,,,,,,,,,,,,,,,,,,,,,,,,,,,,,,,,,,,,,,,,,,,,,,,,,,,,,,,,,,,,,,,,,,,,,,,,,,,,,,,,,,,,,,,,,,,,,,,,,,,,,,,,,,,,,,,,,,,,,,,,
,,,,,,616c46321f72ce4cf4efc717,62c539a5ac5d8d31fb792f59,2022-07-06_09h29.03.144,Colour_Asymmetry_Pilot,2022.1.3,Win32,59.47778505,62c50e9c1127f2cd403a315f,0,5,5,92,1,threeone,,,,,,,,,,,,,,,,,,,,,,,,,,,,,,,,,,,,,,,,,,,,,,,,,,,,,,,,,,,,,,,,,,,,,,,,,,,,,,,,,,,,,,,,,,,,,,,,,,,,,,,,,,,,,,,,,,,,,,,,,,,,,,,,,,,,,,,,,,,,,,,,,,,,,,,,,,,,,
,,,,,,616c46321f72ce4cf4efc717,62c539a5ac5d8d31fb792f59,2022-07-06_09h29.03.144,Colour_Asymmetry_Pilot,2022.1.3,Win32,59.47778505,62c50e9c1127f2cd403a315f,0,6,6,13,1,threefour,,,,,,,,,,,,,,,,,,,,,,,,,,,,,,,,,,,,,,,,,,,,,,,,,,,,,,,,,,,,,,,,,,,,,,,,,,,,,,,,,,,,,,,,,,,,,,,,,,,,,,,,,,,,,,,,,,,,,,,,,,,,,,,,,,,,,,,,,,,,,,,,,,,,,,,,,,,,,
,,,,,,616c46321f72ce4cf4efc717,62c539a5ac5d8d31fb792f59,2022-07-06_09h29.03.144,Colour_Asymmetry_Pilot,2022.1.3,Win32,59.47778505,62c50e9c1127f2cd403a315f,0,7,7,155,1,twofour,,,,,,,,,,,,,,,,,,,,,,,,,,,,,,,,,,,,,,,,,,,,,,,,,,,,,,,,,,,,,,,,,,,,,,,,,,,,,,,,,,,,,,,,,,,,,,,,,,,,,,,,,,,,,,,,,,,,,,,,,,,,,,,,,,,,,,,,,,,,,,,,,,,,,,,,,,,,,
,,,,,,616c46321f72ce4cf4efc717,62c539a5ac5d8d31fb792f59,2022-07-06_09h29.03.144,Colour_Asymmetry_Pilot,2022.1.3,Win32,59.47778505,62c50e9c1127f2cd403a315f,0,8,8,48,1,onetwo,,,,,,,,,,,,,,,,,,,,,,,,,,,,,,,,,,,,,,,,,,,,,,,,,,,,,,,,,,,,,,,,,,,,,,,,,,,,,,,,,,,,,,,,,,,,,,,,,,,,,,,,,,,,,,,,,,,,,,,,,,,,,,,,,,,,,,,,,,,,,,,,,,,,,,,,,,,,,
,,,,,,616c46321f72ce4cf4efc717,62c539a5ac5d8d31fb792f59,2022-07-06_09h29.03.144,Colour_Asymmetry_Pilot,2022.1.3,Win32,59.47778505,62c50e9c1127f2cd403a315f,0,9,9,117,1,threefour,,,,,,,,,,,,,,,,,,,,,,,,,,,,,,,,,,,,,,,,,,,,,,,,,,,,,,,,,,,,,,,,,,,,,,,,,,,,,,,,,,,,,,,,,,,,,,,,,,,,,,,,,,,,,,,,,,,,,,,,,,,,,,,,,,,,,,,,,,,,,,,,,,,,,,,,,,,,,
,,,,,,616c46321f72ce4cf4efc717,62c539a5ac5d8d31fb792f59,2022-07-06_09h29.03.144,Colour_Asymmetry_Pilot,2022.1.3,Win32,59.47778505,62c50e9c1127f2cd403a315f,0,10,10,96,1,onetwo,,,,,,,,,,,,,,,,,,,,,,,,,,,,,,,,,,,,,,,,,,,,,,,,,,,,,,,,,,,,,,,,,,,,,,,,,,,,,,,,,,,,,,,,,,,,,,,,,,,,,,,,,,,,,,,,,,,,,,,,,,,,,,,,,,,,,,,,,,,,,,,,,,,,,,,,,,,,,
,,,,,,616c46321f72ce4cf4efc717,62c539a5ac5d8d31fb792f59,2022-07-06_09h29.03.144,Colour_Asymmetry_Pilot,2022.1.3,Win32,59.47778505,62c50e9c1127f2cd403a315f,0,11,11,59,1,twofour,,,,,,,,,,,,,,,,,,,,,,,,,,,,,,,,,,,,,,,,,,,,,,,,,,,,,,,,,,,,,,,,,,,,,,,,,,,,,,,,,,,,,,,,,,,,,,,,,,,,,,,,,,,,,,,,,,,,,,,,,,,,,,,,,,,,,,,,,,,,,,,,,,,,,,,,,,,,,
,,,,,,616c46321f72ce4cf4efc717,62c539a5ac5d8d31fb792f59,2022-07-06_09h29.03.144,Colour_Asymmetry_Pilot,2022.1.3,Win32,59.47778505,62c50e9c1127f2cd403a315f,0,12,12,136,1,onetwo,,,,,,,,,,,,,,,,,,,,,,,,,,,,,,,,,,,,,,,,,,,,,,,,,,,,,,,,,,,,,,,,,,,,,,,,,,,,,,,,,,,,,,,,,,,,,,,,,,,,,,,,,,,,,,,,,,,,,,,,,,,,,,,,,,,,,,,,,,,,,,,,,,,,,,,,,,,,,
,,,,,,616c46321f72ce4cf4efc717,62c539a5ac5d8d31fb792f59,2022-07-06_09h29.03.144,Colour_Asymmetry_Pilot,2022.1.3,Win32,59.47778505,62c50e9c1127f2cd403a315f,0,13,13,69,1,threefour,,,,,,,,,,,,,,,,,,,,,,,,,,,,,,,,,,,,,,,,,,,,,,,,,,,,,,,,,,,,,,,,,,,,,,,,,,,,,,,,,,,,,,,,,,,,,,,,,,,,,,,,,,,,,,,,,,,,,,,,,,,,,,,,,,,,,,,,,,,,,,,,,,,,,,,,,,,,,
,,,,,,616c46321f72ce4cf4efc717,62c539a5ac5d8d31fb792f59,2022-07-06_09h29.03.144,Colour_Asymmetry_Pilot,2022.1.3,Win32,59.47778505,62c50e9c1127f2cd403a315f,0,14,14,115,1,twofour,,,,,,,,,,,,,,,,,,,,,,,,,,,,,,,,,,,,,,,,,,,,,,,,,,,,,,,,,,,,,,,,,,,,,,,,,,,,,,,,,,,,,,,,,,,,,,,,,,,,,,,,,,,,,,,,,,,,,,,,,,,,,,,,,,,,,,,,,,,,,,,,,,,,,,,,,,,,,
,,,,,,616c46321f72ce4cf4efc717,62c539a5ac5d8d31fb792f59,2022-07-06_09h29.03.144,Colour_Asymmetry_Pilot,2022.1.3,Win32,59.47778505,62c50e9c1127f2cd403a315f,0,15,15,54,1,fourtwo,,,,,,,,,,,,,,,,,,,,,,,,,,,,,,,,,,,,,,,,,,,,,,,,,,,,,,,,,,,,,,,,,,,,,,,,,,,,,,,,,,,,,,,,,,,,,,,,,,,,,,,,,,,,,,,,,,,,,,,,,,,,,,,,,,,,,,,,,,,,,,,,,,,,,,,,,,,,,
,,,,,,616c46321f72ce4cf4efc717,62c539a5ac5d8d31fb792f59,2022-07-06_09h29.03.144,Colour_Asymmetry_Pilot,2022.1.3,Win32,59.47778505,62c50e9c1127f2cd403a315f,0,16,16,50,1,twoone,,,,,,,,,,,,,,,,,,,,,,,,,,,,,,,,,,,,,,,,,,,,,,,,,,,,,,,,,,,,,,,,,,,,,,,,,,,,,,,,,,,,,,,,,,,,,,,,,,,,,,,,,,,,,,,,,,,,,,,,,,,,,,,,,,,,,,,,,,,,,,,,,,,,,,,,,,,,,
,,,,,,616c46321f72ce4cf4efc717,62c539a5ac5d8d31fb792f59,2022-07-06_09h29.03.144,Colour_Asymmetry_Pilot,2022.1.3,Win32,59.47778505,62c50e9c1127f2cd403a315f,0,17,17,86,1,fourtwo,,,,,,,,,,,,,,,,,,,,,,,,,,,,,,,,,,,,,,,,,,,,,,,,,,,,,,,,,,,,,,,,,,,,,,,,,,,,,,,,,,,,,,,,,,,,,,,,,,,,,,,,,,,,,,,,,,,,,,,,,,,,,,,,,,,,,,,,,,,,,,,,,,,,,,,,,,,,,
,,,,,,616c46321f72ce4cf4efc717,62c539a5ac5d8d31fb792f59,2022-07-06_09h29.03.144,Colour_Asymmetry_Pilot,2022.1.3,Win32,59.47778505,62c50e9c1127f2cd403a315f,0,18,18,87,1,fourthree,,,,,,,,,,,,,,,,,,,,,,,,,,,,,,,,,,,,,,,,,,,,,,,,,,,,,,,,,,,,,,,,,,,,,,,,,,,,,,,,,,,,,,,,,,,,,,,,,,,,,,,,,,,,,,,,,,,,,,,,,,,,,,,,,,,,,,,,,,,,,,,,,,,,,,,,,,,,,
,,,,,,616c46321f72ce4cf4efc717,62c539a5ac5d8d31fb792f59,2022-07-06_09h29.03.144,Colour_Asymmetry_Pilot,2022.1.3,Win32,59.47778505,62c50e9c1127f2cd403a315f,0,19,19,75,1,twofour,,,,,,,,,,,,,,,,,,,,,,,,,,,,,,,,,,,,,,,,,,,,,,,,,,,,,,,,,,,,,,,,,,,,,,,,,,,,,,,,,,,,,,,,,,,,,,,,,,,,,,,,,,,,,,,,,,,,,,,,,,,,,,,,,,,,,,,,,,,,,,,,,,,,,,,,,,,,,
,,,,,,616c46321f72ce4cf4efc717,62c539a5ac5d8d31fb792f59,2022-07-06_09h29.03.144,Colour_Asymmetry_Pilot,2022.1.3,Win32,59.47778505,62c50e9c1127f2cd403a315f,0,20,20,99,1,twofour,,,,,,,,,,,,,,,,,,,,,,,,,,,,,,,,,,,,,,,,,,,,,,,,,,,,,,,,,,,,,,,,,,,,,,,,,,,,,,,,,,,,,,,,,,,,,,,,,,,,,,,,,,,,,,,,,,,,,,,,,,,,,,,,,,,,,,,,,,,,,,,,,,,,,,,,,,,,,
,,,,,,616c46321f72ce4cf4efc717,62c539a5ac5d8d31fb792f59,2022-07-06_09h29.03.144,Colour_Asymmetry_Pilot,2022.1.3,Win32,59.47778505,62c50e9c1127f2cd403a315f,0,21,21,143,1,fourthree,,,,,,,,,,,,,,,,,,,,,,,,,,,,,,,,,,,,,,,,,,,,,,,,,,,,,,,,,,,,,,,,,,,,,,,,,,,,,,,,,,,,,,,,,,,,,,,,,,,,,,,,,,,,,,,,,,,,,,,,,,,,,,,,,,,,,,,,,,,,,,,,,,,,,,,,,,,,,
,,,,,,616c46321f72ce4cf4efc717,62c539a5ac5d8d31fb792f59,2022-07-06_09h29.03.144,Colour_Asymmetry_Pilot,2022.1.3,Win32,59.47778505,62c50e9c1127f2cd403a315f,0,22,22,103,1,fourthree,,,,,,,,,,,,,,,,,,,,,,,,,,,,,,,,,,,,,,,,,,,,,,,,,,,,,,,,,,,,,,,,,,,,,,,,,,,,,,,,,,,,,,,,,,,,,,,,,,,,,,,,,,,,,,,,,,,,,,,,,,,,,,,,,,,,,,,,,,,,,,,,,,,,,,,,,,,,,
,,,,,,616c46321f72ce4cf4efc717,62c539a5ac5d8d31fb792f59,2022-07-06_09h29.03.144,Colour_Asymmetry_Pilot,2022.1.3,Win32,59.47778505,62c50e9c1127f2cd403a315f,0,23,23,119,1,fourthree,,,,,,,,,,,,,,,,,,,,,,,,,,,,,,,,,,,,,,,,,,,,,,,,,,,,,,,,,,,,,,,,,,,,,,,,,,,,,,,,,,,,,,,,,,,,,,,,,,,,,,,,,,,,,,,,,,,,,,,,,,,,,,,,,,,,,,,,,,,,,,,,,,,,,,,,,,,,,
,,,,,,616c46321f72ce4cf4efc717,62c539a5ac5d8d31fb792f59,2022-07-06_09h29.03.144,Colour_Asymmetry_Pilot,2022.1.3,Win32,59.47778505,62c50e9c1127f2cd403a315f,0,24,24,80,1,onetwo,,,,,,,,,,,,,,,,,,,,,,,,,,,,,,,,,,,,,,,,,,,,,,,,,,,,,,,,,,,,,,,,,,,,,,,,,,,,,,,,,,,,,,,,,,,,,,,,,,,,,,,,,,,,,,,,,,,,,,,,,,,,,,,,,,,,,,,,,,,,,,,,,,,,,,,,,,,,,
,,,,,,616c46321f72ce4cf4efc717,62c539a5ac5d8d31fb792f59,2022-07-06_09h29.03.144,Colour_Asymmetry_Pilot,2022.1.3,Win32,59.47778505,62c50e9c1127f2cd403a315f,0,25,25,29,1,threefour,,,,,,,,,,,,,,,,,,,,,,,,,,,,,,,,,,,,,,,,,,,,,,,,,,,,,,,,,,,,,,,,,,,,,,,,,,,,,,,,,,,,,,,,,,,,,,,,,,,,,,,,,,,,,,,,,,,,,,,,,,,,,,,,,,,,,,,,,,,,,,,,,,,,,,,,,,,,,
,,,,,,616c46321f72ce4cf4efc717,62c539a5ac5d8d31fb792f59,2022-07-06_09h29.03.144,Colour_Asymmetry_Pilot,2022.1.3,Win32,59.47778505,62c50e9c1127f2cd403a315f,0,26,26,6,1,fourtwo,,,,,,,,,,,,,,,,,,,,,,,,,,,,,,,,,,,,,,,,,,,,,,,,,,,,,,,,,,,,,,,,,,,,,,,,,,,,,,,,,,,,,,,,,,,,,,,,,,,,,,,,,,,,,,,,,,,,,,,,,,,,,,,,,,,,,,,,,,,,,,,,,,,,,,,,,,,,,
,,,,,,616c46321f72ce4cf4efc717,62c539a5ac5d8d31fb792f59,2022-07-06_09h29.03.144,Colour_Asymmetry_Pilot,2022.1.3,Win32,59.47778505,62c50e9c1127f2cd403a315f,0,27,27,107,1,twofour,,,,,,,,,,,,,,,,,,,,,,,,,,,,,,,,,,,,,,,,,,,,,,,,,,,,,,,,,,,,,,,,,,,,,,,,,,,,,,,,,,,,,,,,,,,,,,,,,,,,,,,,,,,,,,,,,,,,,,,,,,,,,,,,,,,,,,,,,,,,,,,,,,,,,,,,,,,,,
,,,,,,616c46321f72ce4cf4efc717,62c539a5ac5d8d31fb792f59,2022-07-06_09h29.03.144,Colour_Asymmetry_Pilot,2022.1.3,Win32,59.47778505,62c50e9c1127f2cd403a315f,0,28,28,149,1,threefour,,,,,,,,,,,,,,,,,,,,,,,,,,,,,,,,,,,,,,,,,,,,,,,,,,,,,,,,,,,,,,,,,,,,,,,,,,,,,,,,,,,,,,,,,,,,,,,,,,,,,,,,,,,,,,,,,,,,,,,,,,,,,,,,,,,,,,,,,,,,,,,,,,,,,,,,,,,,,
,,,,,,616c46321f72ce4cf4efc717,62c539a5ac5d8d31fb792f59,2022-07-06_09h29.03.144,Colour_Asymmetry_Pilot,2022.1.3,Win32,59.47778505,62c50e9c1127f2cd403a315f,0,29,29,10,1,twoone,,,,,,,,,,,,,,,,,,,,,,,,,,,,,,,,,,,,,,,,,,,,,,,,,,,,,,,,,,,,,,,,,,,,,,,,,,,,,,,,,,,,,,,,,,,,,,,,,,,,,,,,,,,,,,,,,,,,,,,,,,,,,,,,,,,,,,,,,,,,,,,,,,,,,,,,,,,,,
,,,,,,616c46321f72ce4cf4efc717,62c539a5ac5d8d31fb792f59,2022-07-06_09h29.03.144,Colour_Asymmetry_Pilot,2022.1.3,Win32,59.47778505,62c50e9c1127f2cd403a315f,0,30,30,135,1,fourthree,,,,,,,,,,,,,,,,,,,,,,,,,,,,,,,,,,,,,,,,,,,,,,,,,,,,,,,,,,,,,,,,,,,,,,,,,,,,,,,,,,,,,,,,,,,,,,,,,,,,,,,,,,,,,,,,,,,,,,,,,,,,,,,,,,,,,,,,,,,,,,,,,,,,,,,,,,,,,
,,,,,,616c46321f72ce4cf4efc717,62c539a5ac5d8d31fb792f59,2022-07-06_09h29.03.144,Colour_Asymmetry_Pilot,2022.1.3,Win32,59.47778505,62c50e9c1127f2cd403a315f,0,31,31,68,1,threeone,,,,,,,,,,,,,,,,,,,,,,,,,,,,,,,,,,,,,,,,,,,,,,,,,,,,,,,,,,,,,,,,,,,,,,,,,,,,,,,,,,,,,,,,,,,,,,,,,,,,,,,,,,,,,,,,,,,,,,,,,,,,,,,,,,,,,,,,,,,,,,,,,,,,,,,,,,,,,
,,,,,,616c46321f72ce4cf4efc717,62c539a5ac5d8d31fb792f59,2022-07-06_09h29.03.144,Colour_Asymmetry_Pilot,2022.1.3,Win32,59.47778505,62c50e9c1127f2cd403a315f,0,32,32,66,1,twoone,,,,,,,,,,,,,,,,,,,,,,,,,,,,,,,,,,,,,,,,,,,,,,,,,,,,,,,,,,,,,,,,,,,,,,,,,,,,,,,,,,,,,,,,,,,,,,,,,,,,,,,,,,,,,,,,,,,,,,,,,,,,,,,,,,,,,,,,,,,,,,,,,,,,,,,,,,,,,
,,,,,,616c46321f72ce4cf4efc717,62c539a5ac5d8d31fb792f59,2022-07-06_09h29.03.144,Colour_Asymmetry_Pilot,2022.1.3,Win32,59.47778505,62c50e9c1127f2cd403a315f,0,33,33,22,1,fourtwo,,,,,,,,,,,,,,,,,,,,,,,,,,,,,,,,,,,,,,,,,,,,,,,,,,,,,,,,,,,,,,,,,,,,,,,,,,,,,,,,,,,,,,,,,,,,,,,,,,,,,,,,,,,,,,,,,,,,,,,,,,,,,,,,,,,,,,,,,,,,,,,,,,,,,,,,,,,,,
,,,,,,616c46321f72ce4cf4efc717,62c539a5ac5d8d31fb792f59,2022-07-06_09h29.03.144,Colour_Asymmetry_Pilot,2022.1.3,Win32,59.47778505,62c50e9c1127f2cd403a315f,0,34,34,74,1,twoone,,,,,,,,,,,,,,,,,,,,,,,,,,,,,,,,,,,,,,,,,,,,,,,,,,,,,,,,,,,,,,,,,,,,,,,,,,,,,,,,,,,,,,,,,,,,,,,,,,,,,,,,,,,,,,,,,,,,,,,,,,,,,,,,,,,,,,,,,,,,,,,,,,,,,,,,,,,,,
,,,,,,616c46321f72ce4cf4efc717,62c539a5ac5d8d31fb792f59,2022-07-06_09h29.03.144,Colour_Asymmetry_Pilot,2022.1.3,Win32,59.47778505,62c50e9c1127f2cd403a315f,0,35,35,53,1,threefour,,,,,,,,,,,,,,,,,,,,,,,,,,,,,,,,,,,,,,,,,,,,,,,,,,,,,,,,,,,,,,,,,,,,,,,,,,,,,,,,,,,,,,,,,,,,,,,,,,,,,,,,,,,,,,,,,,,,,,,,,,,,,,,,,,,,,,,,,,,,,,,,,,,,,,,,,,,,,
,,,,,,616c46321f72ce4cf4efc717,62c539a5ac5d8d31fb792f59,2022-07-06_09h29.03.144,Colour_Asymmetry_Pilot,2022.1.3,Win32,59.47778505,62c50e9c1127f2cd403a315f,0,36,36,142,1,fourtwo,,,,,,,,,,,,,,,,,,,,,,,,,,,,,,,,,,,,,,,,,,,,,,,,,,,,,,,,,,,,,,,,,,,,,,,,,,,,,,,,,,,,,,,,,,,,,,,,,,,,,,,,,,,,,,,,,,,,,,,,,,,,,,,,,,,,,,,,,,,,,,,,,,,,,,,,,,,,,
,,,,,,616c46321f72ce4cf4efc717,62c539a5ac5d8d31fb792f59,2022-07-06_09h29.03.144,Colour_Asymmetry_Pilot,2022.1.3,Win32,59.47778505,62c50e9c1127f2cd403a315f,0,37,37,56,1,onetwo,,,,,,,,,,,,,,,,,,,,,,,,,,,,,,,,,,,,,,,,,,,,,,,,,,,,,,,,,,,,,,,,,,,,,,,,,,,,,,,,,,,,,,,,,,,,,,,,,,,,,,,,,,,,,,,,,,,,,,,,,,,,,,,,,,,,,,,,,,,,,,,,,,,,,,,,,,,,,
,,,,,,616c46321f72ce4cf4efc717,62c539a5ac5d8d31fb792f59,2022-07-06_09h29.03.144,Colour_Asymmetry_Pilot,2022.1.3,Win32,59.47778505,62c50e9c1127f2cd403a315f,0,38,38,0,1,onetwo,,,,,,,,,,,,,,,,,,,,,,,,,,,,,,,,,,,,,,,,,,,,,,,,,,,,,,,,,,,,,,,,,,,,,,,,,,,,,,,,,,,,,,,,,,,,,,,,,,,,,,,,,,,,,,,,,,,,,,,,,,,,,,,,,,,,,,,,,,,,,,,,,,,,,,,,,,,,,
,,,,,,616c46321f72ce4cf4efc717,62c539a5ac5d8d31fb792f59,2022-07-06_09h29.03.144,Colour_Asymmetry_Pilot,2022.1.3,Win32,59.47778505,62c50e9c1127f2cd403a315f,0,39,39,34,1,twoone,,,,,,,,,,,,,,,,,,,,,,,,,,,,,,,,,,,,,,,,,,,,,,,,,,,,,,,,,,,,,,,,,,,,,,,,,,,,,,,,,,,,,,,,,,,,,,,,,,,,,,,,,,,,,,,,,,,,,,,,,,,,,,,,,,,,,,,,,,,,,,,,,,,,,,,,,,,,,
,,,,,,616c46321f72ce4cf4efc717,62c539a5ac5d8d31fb792f59,2022-07-06_09h29.03.144,Colour_Asymmetry_Pilot,2022.1.3,Win32,59.47778505,62c50e9c1127f2cd403a315f,0,40,40,12,1,threeone,,,,,,,,,,,,,,,,,,,,,,,,,,,,,,,,,,,,,,,,,,,,,,,,,,,,,,,,,,,,,,,,,,,,,,,,,,,,,,,,,,,,,,,,,,,,,,,,,,,,,,,,,,,,,,,,,,,,,,,,,,,,,,,,,,,,,,,,,,,,,,,,,,,,,,,,,,,,,
,,,,,,616c46321f72ce4cf4efc717,62c539a5ac5d8d31fb792f59,2022-07-06_09h29.03.144,Colour_Asymmetry_Pilot,2022.1.3,Win32,59.47778505,62c50e9c1127f2cd403a315f,0,41,41,43,1,twofour,,,,,,,,,,,,,,,,,,,,,,,,,,,,,,,,,,,,,,,,,,,,,,,,,,,,,,,,,,,,,,,,,,,,,,,,,,,,,,,,,,,,,,,,,,,,,,,,,,,,,,,,,,,,,,,,,,,,,,,,,,,,,,,,,,,,,,,,,,,,,,,,,,,,,,,,,,,,,
,,,,,,616c46321f72ce4cf4efc717,62c539a5ac5d8d31fb792f59,2022-07-06_09h29.03.144,Colour_Asymmetry_Pilot,2022.1.3,Win32,59.47778505,62c50e9c1127f2cd403a315f,0,42,42,150,1,fourtwo,,,,,,,,,,,,,,,,,,,,,,,,,,,,,,,,,,,,,,,,,,,,,,,,,,,,,,,,,,,,,,,,,,,,,,,,,,,,,,,,,,,,,,,,,,,,,,,,,,,,,,,,,,,,,,,,,,,,,,,,,,,,,,,,,,,,,,,,,,,,,,,,,,,,,,,,,,,,,
,,,,,,616c46321f72ce4cf4efc717,62c539a5ac5d8d31fb792f59,2022-07-06_09h29.03.144,Colour_Asymmetry_Pilot,2022.1.3,Win32,59.47778505,62c50e9c1127f2cd403a315f,0,43,43,2,1,twoone,,,,,,,,,,,,,,,,,,,,,,,,,,,,,,,,,,,,,,,,,,,,,,,,,,,,,,,,,,,,,,,,,,,,,,,,,,,,,,,,,,,,,,,,,,,,,,,,,,,,,,,,,,,,,,,,,,,,,,,,,,,,,,,,,,,,,,,,,,,,,,,,,,,,,,,,,,,,,
,,,,,,616c46321f72ce4cf4efc717,62c539a5ac5d8d31fb792f59,2022-07-06_09h29.03.144,Colour_Asymmetry_Pilot,2022.1.3,Win32,59.47778505,62c50e9c1127f2cd403a315f,0,44,44,27,1,twofour,,,,,,,,,,,,,,,,,,,,,,,,,,,,,,,,,,,,,,,,,,,,,,,,,,,,,,,,,,,,,,,,,,,,,,,,,,,,,,,,,,,,,,,,,,,,,,,,,,,,,,,,,,,,,,,,,,,,,,,,,,,,,,,,,,,,,,,,,,,,,,,,,,,,,,,,,,,,,
,,,,,,616c46321f72ce4cf4efc717,62c539a5ac5d8d31fb792f59,2022-07-06_09h29.03.144,Colour_Asymmetry_Pilot,2022.1.3,Win32,59.47778505,62c50e9c1127f2cd403a315f,0,45,45,125,1,threefour,,,,,,,,,,,,,,,,,,,,,,,,,,,,,,,,,,,,,,,,,,,,,,,,,,,,,,,,,,,,,,,,,,,,,,,,,,,,,,,,,,,,,,,,,,,,,,,,,,,,,,,,,,,,,,,,,,,,,,,,,,,,,,,,,,,,,,,,,,,,,,,,,,,,,,,,,,,,,
,,,,,,616c46321f72ce4cf4efc717,62c539a5ac5d8d31fb792f59,2022-07-06_09h29.03.144,Colour_Asymmetry_Pilot,2022.1.3,Win32,59.47778505,62c50e9c1127f2cd403a315f,0,46,46,26,1,twoone,,,,,,,,,,,,,,,,,,,,,,,,,,,,,,,,,,,,,,,,,,,,,,,,,,,,,,,,,,,,,,,,,,,,,,,,,,,,,,,,,,,,,,,,,,,,,,,,,,,,,,,,,,,,,,,,,,,,,,,,,,,,,,,,,,,,,,,,,,,,,,,,,,,,,,,,,,,,,
,,,,,,616c46321f72ce4cf4efc717,62c539a5ac5d8d31fb792f59,2022-07-06_09h29.03.144,Colour_Asymmetry_Pilot,2022.1.3,Win32,59.47778505,62c50e9c1127f2cd403a315f,0,47,47,51,1,twofour,,,,,,,,,,,,,,,,,,,,,,,,,,,,,,,,,,,,,,,,,,,,,,,,,,,,,,,,,,,,,,,,,,,,,,,,,,,,,,,,,,,,,,,,,,,,,,,,,,,,,,,,,,,,,,,,,,,,,,,,,,,,,,,,,,,,,,,,,,,,,,,,,,,,,,,,,,,,,
,,,,,,616c46321f72ce4cf4efc717,62c539a5ac5d8d31fb792f59,2022-07-06_09h29.03.144,Colour_Asymmetry_Pilot,2022.1.3,Win32,59.47778505,62c50e9c1127f2cd403a315f,0,48,48,11,1,twofour,,,,,,,,,,,,,,,,,,,,,,,,,,,,,,,,,,,,,,,,,,,,,,,,,,,,,,,,,,,,,,,,,,,,,,,,,,,,,,,,,,,,,,,,,,,,,,,,,,,,,,,,,,,,,,,,,,,,,,,,,,,,,,,,,,,,,,,,,,,,,,,,,,,,,,,,,,,,,
,,,,,,616c46321f72ce4cf4efc717,62c539a5ac5d8d31fb792f59,2022-07-06_09h29.03.144,Colour_Asymmetry_Pilot,2022.1.3,Win32,59.47778505,62c50e9c1127f2cd403a315f,0,49,49,141,1,threefour,,,,,,,,,,,,,,,,,,,,,,,,,,,,,,,,,,,,,,,,,,,,,,,,,,,,,,,,,,,,,,,,,,,,,,,,,,,,,,,,,,,,,,,,,,,,,,,,,,,,,,,,,,,,,,,,,,,,,,,,,,,,,,,,,,,,,,,,,,,,,,,,,,,,,,,,,,,,,
,,,,,,616c46321f72ce4cf4efc717,62c539a5ac5d8d31fb792f59,2022-07-06_09h29.03.144,Colour_Asymmetry_Pilot,2022.1.3,Win32,59.47778505,62c50e9c1127f2cd403a315f,0,50,50,24,1,onetwo,,,,,,,,,,,,,,,,,,,,,,,,,,,,,,,,,,,,,,,,,,,,,,,,,,,,,,,,,,,,,,,,,,,,,,,,,,,,,,,,,,,,,,,,,,,,,,,,,,,,,,,,,,,,,,,,,,,,,,,,,,,,,,,,,,,,,,,,,,,,,,,,,,,,,,,,,,,,,
,,,,,,616c46321f72ce4cf4efc717,62c539a5ac5d8d31fb792f59,2022-07-06_09h29.03.144,Colour_Asymmetry_Pilot,2022.1.3,Win32,59.47778505,62c50e9c1127f2cd403a315f,0,51,51,153,1,onethree,,,,,,,,,,,,,,,,,,,,,,,,,,,,,,,,,,,,,,,,,,,,,,,,,,,,,,,,,,,,,,,,,,,,,,,,,,,,,,,,,,,,,,,,,,,,,,,,,,,,,,,,,,,,,,,,,,,,,,,,,,,,,,,,,,,,,,,,,,,,,,,,,,,,,,,,,,,,,
,,,,,,616c46321f72ce4cf4efc717,62c539a5ac5d8d31fb792f59,2022-07-06_09h29.03.144,Colour_Asymmetry_Pilot,2022.1.3,Win32,59.47778505,62c50e9c1127f2cd403a315f,0,52,52,31,1,fourthree,,,,,,,,,,,,,,,,,,,,,,,,,,,,,,,,,,,,,,,,,,,,,,,,,,,,,,,,,,,,,,,,,,,,,,,,,,,,,,,,,,,,,,,,,,,,,,,,,,,,,,,,,,,,,,,,,,,,,,,,,,,,,,,,,,,,,,,,,,,,,,,,,,,,,,,,,,,,,
,,,,,,616c46321f72ce4cf4efc717,62c539a5ac5d8d31fb792f59,2022-07-06_09h29.03.144,Colour_Asymmetry_Pilot,2022.1.3,Win32,59.47778505,62c50e9c1127f2cd403a315f,0,53,53,113,1,onethree,,,,,,,,,,,,,,,,,,,,,,,,,,,,,,,,,,,,,,,,,,,,,,,,,,,,,,,,,,,,,,,,,,,,,,,,,,,,,,,,,,,,,,,,,,,,,,,,,,,,,,,,,,,,,,,,,,,,,,,,,,,,,,,,,,,,,,,,,,,,,,,,,,,,,,,,,,,,,
,,,,,,616c46321f72ce4cf4efc717,62c539a5ac5d8d31fb792f59,2022-07-06_09h29.03.144,Colour_Asymmetry_Pilot,2022.1.3,Win32,59.47778505,62c50e9c1127f2cd403a315f,0,54,54,137,1,onethree,,,,,,,,,,,,,,,,,,,,,,,,,,,,,,,,,,,,,,,,,,,,,,,,,,,,,,,,,,,,,,,,,,,,,,,,,,,,,,,,,,,,,,,,,,,,,,,,,,,,,,,,,,,,,,,,,,,,,,,,,,,,,,,,,,,,,,,,,,,,,,,,,,,,,,,,,,,,,
,,,,,,616c46321f72ce4cf4efc717,62c539a5ac5d8d31fb792f59,2022-07-06_09h29.03.144,Colour_Asymmetry_Pilot,2022.1.3,Win32,59.47778505,62c50e9c1127f2cd403a315f,0,55,55,152,1,onetwo,,,,,,,,,,,,,,,,,,,,,,,,,,,,,,,,,,,,,,,,,,,,,,,,,,,,,,,,,,,,,,,,,,,,,,,,,,,,,,,,,,,,,,,,,,,,,,,,,,,,,,,,,,,,,,,,,,,,,,,,,,,,,,,,,,,,,,,,,,,,,,,,,,,,,,,,,,,,,
,,,,,,616c46321f72ce4cf4efc717,62c539a5ac5d8d31fb792f59,2022-07-06_09h29.03.144,Colour_Asymmetry_Pilot,2022.1.3,Win32,59.47778505,62c50e9c1127f2cd403a315f,0,56,56,88,1,onetwo,,,,,,,,,,,,,,,,,,,,,,,,,,,,,,,,,,,,,,,,,,,,,,,,,,,,,,,,,,,,,,,,,,,,,,,,,,,,,,,,,,,,,,,,,,,,,,,,,,,,,,,,,,,,,,,,,,,,,,,,,,,,,,,,,,,,,,,,,,,,,,,,,,,,,,,,,,,,,
,,,,,,616c46321f72ce4cf4efc717,62c539a5ac5d8d31fb792f59,2022-07-06_09h29.03.144,Colour_Asymmetry_Pilot,2022.1.3,Win32,59.47778505,62c50e9c1127f2cd403a315f,0,57,57,36,1,threeone,,,,,,,,,,,,,,,,,,,,,,,,,,,,,,,,,,,,,,,,,,,,,,,,,,,,,,,,,,,,,,,,,,,,,,,,,,,,,,,,,,,,,,,,,,,,,,,,,,,,,,,,,,,,,,,,,,,,,,,,,,,,,,,,,,,,,,,,,,,,,,,,,,,,,,,,,,,,,
,,,,,,616c46321f72ce4cf4efc717,62c539a5ac5d8d31fb792f59,2022-07-06_09h29.03.144,Colour_Asymmetry_Pilot,2022.1.3,Win32,59.47778505,62c50e9c1127f2cd403a315f,0,58,58,62,1,fourtwo,,,,,,,,,,,,,,,,,,,,,,,,,,,,,,,,,,,,,,,,,,,,,,,,,,,,,,,,,,,,,,,,,,,,,,,,,,,,,,,,,,,,,,,,,,,,,,,,,,,,,,,,,,,,,,,,,,,,,,,,,,,,,,,,,,,,,,,,,,,,,,,,,,,,,,,,,,,,,
,,,,,,616c46321f72ce4cf4efc717,62c539a5ac5d8d31fb792f59,2022-07-06_09h29.03.144,Colour_Asymmetry_Pilot,2022.1.3,Win32,59.47778505,62c50e9c1127f2cd403a315f,0,59,59,110,1,fourtwo,,,,,,,,,,,,,,,,,,,,,,,,,,,,,,,,,,,,,,,,,,,,,,,,,,,,,,,,,,,,,,,,,,,,,,,,,,,,,,,,,,,,,,,,,,,,,,,,,,,,,,,,,,,,,,,,,,,,,,,,,,,,,,,,,,,,,,,,,,,,,,,,,,,,,,,,,,,,,
,,,,,,616c46321f72ce4cf4efc717,62c539a5ac5d8d31fb792f59,2022-07-06_09h29.03.144,Colour_Asymmetry_Pilot,2022.1.3,Win32,59.47778505,62c50e9c1127f2cd403a315f,0,60,60,129,1,onethree,,,,,,,,,,,,,,,,,,,,,,,,,,,,,,,,,,,,,,,,,,,,,,,,,,,,,,,,,,,,,,,,,,,,,,,,,,,,,,,,,,,,,,,,,,,,,,,,,,,,,,,,,,,,,,,,,,,,,,,,,,,,,,,,,,,,,,,,,,,,,,,,,,,,,,,,,,,,,
,,,,,,616c46321f72ce4cf4efc717,62c539a5ac5d8d31fb792f59,2022-07-06_09h29.03.144,Colour_Asymmetry_Pilot,2022.1.3,Win32,59.47778505,62c50e9c1127f2cd403a315f,0,61,61,28,1,threeone,,,,,,,,,,,,,,,,,,,,,,,,,,,,,,,,,,,,,,,,,,,,,,,,,,,,,,,,,,,,,,,,,,,,,,,,,,,,,,,,,,,,,,,,,,,,,,,,,,,,,,,,,,,,,,,,,,,,,,,,,,,,,,,,,,,,,,,,,,,,,,,,,,,,,,,,,,,,,
,,,,,,616c46321f72ce4cf4efc717,62c539a5ac5d8d31fb792f59,2022-07-06_09h29.03.144,Colour_Asymmetry_Pilot,2022.1.3,Win32,59.47778505,62c50e9c1127f2cd403a315f,0,62,62,21,1,threefour,,,,,,,,,,,,,,,,,,,,,,,,,,,,,,,,,,,,,,,,,,,,,,,,,,,,,,,,,,,,,,,,,,,,,,,,,,,,,,,,,,,,,,,,,,,,,,,,,,,,,,,,,,,,,,,,,,,,,,,,,,,,,,,,,,,,,,,,,,,,,,,,,,,,,,,,,,,,,
,,,,,,616c46321f72ce4cf4efc717,62c539a5ac5d8d31fb792f59,2022-07-06_09h29.03.144,Colour_Asymmetry_Pilot,2022.1.3,Win32,59.47778505,62c50e9c1127f2cd403a315f,0,63,63,134,1,fourtwo,,,,,,,,,,,,,,,,,,,,,,,,,,,,,,,,,,,,,,,,,,,,,,,,,,,,,,,,,,,,,,,,,,,,,,,,,,,,,,,,,,,,,,,,,,,,,,,,,,,,,,,,,,,,,,,,,,,,,,,,,,,,,,,,,,,,,,,,,,,,,,,,,,,,,,,,,,,,,
,,,,,,616c46321f72ce4cf4efc717,62c539a5ac5d8d31fb792f59,2022-07-06_09h29.03.144,Colour_Asymmetry_Pilot,2022.1.3,Win32,59.47778505,62c50e9c1127f2cd403a315f,0,64,64,131,1,twofour,,,,,,,,,,,,,,,,,,,,,,,,,,,,,,,,,,,,,,,,,,,,,,,,,,,,,,,,,,,,,,,,,,,,,,,,,,,,,,,,,,,,,,,,,,,,,,,,,,,,,,,,,,,,,,,,,,,,,,,,,,,,,,,,,,,,,,,,,,,,,,,,,,,,,,,,,,,,,
,,,,,,616c46321f72ce4cf4efc717,62c539a5ac5d8d31fb792f59,2022-07-06_09h29.03.144,Colour_Asymmetry_Pilot,2022.1.3,Win32,59.47778505,62c50e9c1127f2cd403a315f,0,65,65,101,1,threefour,,,,,,,,,,,,,,,,,,,,,,,,,,,,,,,,,,,,,,,,,,,,,,,,,,,,,,,,,,,,,,,,,,,,,,,,,,,,,,,,,,,,,,,,,,,,,,,,,,,,,,,,,,,,,,,,,,,,,,,,,,,,,,,,,,,,,,,,,,,,,,,,,,,,,,,,,,,,,
,,,,,,616c46321f72ce4cf4efc717,62c539a5ac5d8d31fb792f59,2022-07-06_09h29.03.144,Colour_Asymmetry_Pilot,2022.1.3,Win32,59.47778505,62c50e9c1127f2cd403a315f,0,66,66,37,1,threefour,,,,,,,,,,,,,,,,,,,,,,,,,,,,,,,,,,,,,,,,,,,,,,,,,,,,,,,,,,,,,,,,,,,,,,,,,,,,,,,,,,,,,,,,,,,,,,,,,,,,,,,,,,,,,,,,,,,,,,,,,,,,,,,,,,,,,,,,,,,,,,,,,,,,,,,,,,,,,
,,,,,,616c46321f72ce4cf4efc717,62c539a5ac5d8d31fb792f59,2022-07-06_09h29.03.144,Colour_Asymmetry_Pilot,2022.1.3,Win32,59.47778505,62c50e9c1127f2cd403a315f,0,67,67,102,1,fourtwo,,,,,,,,,,,,,,,,,,,,,,,,,,,,,,,,,,,,,,,,,,,,,,,,,,,,,,,,,,,,,,,,,,,,,,,,,,,,,,,,,,,,,,,,,,,,,,,,,,,,,,,,,,,,,,,,,,,,,,,,,,,,,,,,,,,,,,,,,,,,,,,,,,,,,,,,,,,,,
,,,,,,616c46321f72ce4cf4efc717,62c539a5ac5d8d31fb792f59,2022-07-06_09h29.03.144,Colour_Asymmetry_Pilot,2022.1.3,Win32,59.47778505,62c50e9c1127f2cd403a315f,0,68,68,81,1,onethree,,,,,,,,,,,,,,,,,,,,,,,,,,,,,,,,,,,,,,,,,,,,,,,,,,,,,,,,,,,,,,,,,,,,,,,,,,,,,,,,,,,,,,,,,,,,,,,,,,,,,,,,,,,,,,,,,,,,,,,,,,,,,,,,,,,,,,,,,,,,,,,,,,,,,,,,,,,,,
,,,,,,616c46321f72ce4cf4efc717,62c539a5ac5d8d31fb792f59,2022-07-06_09h29.03.144,Colour_Asymmetry_Pilot,2022.1.3,Win32,59.47778505,62c50e9c1127f2cd403a315f,0,69,69,160,1,onetwo,,,,,,,,,,,,,,,,,,,,,,,,,,,,,,,,,,,,,,,,,,,,,,,,,,,,,,,,,,,,,,,,,,,,,,,,,,,,,,,,,,,,,,,,,,,,,,,,,,,,,,,,,,,,,,,,,,,,,,,,,,,,,,,,,,,,,,,,,,,,,,,,,,,,,,,,,,,,,
,,,,,,616c46321f72ce4cf4efc717,62c539a5ac5d8d31fb792f59,2022-07-06_09h29.03.144,Colour_Asymmetry_Pilot,2022.1.3,Win32,59.47778505,62c50e9c1127f2cd403a315f,0,70,70,89,1,onethree,,,,,,,,,,,,,,,,,,,,,,,,,,,,,,,,,,,,,,,,,,,,,,,,,,,,,,,,,,,,,,,,,,,,,,,,,,,,,,,,,,,,,,,,,,,,,,,,,,,,,,,,,,,,,,,,,,,,,,,,,,,,,,,,,,,,,,,,,,,,,,,,,,,,,,,,,,,,,
,,,,,,616c46321f72ce4cf4efc717,62c539a5ac5d8d31fb792f59,2022-07-06_09h29.03.144,Colour_Asymmetry_Pilot,2022.1.3,Win32,59.47778505,62c50e9c1127f2cd403a315f,0,71,71,76,1,threeone,,,,,,,,,,,,,,,,,,,,,,,,,,,,,,,,,,,,,,,,,,,,,,,,,,,,,,,,,,,,,,,,,,,,,,,,,,,,,,,,,,,,,,,,,,,,,,,,,,,,,,,,,,,,,,,,,,,,,,,,,,,,,,,,,,,,,,,,,,,,,,,,,,,,,,,,,,,,,
,,,,,,616c46321f72ce4cf4efc717,62c539a5ac5d8d31fb792f59,2022-07-06_09h29.03.144,Colour_Asymmetry_Pilot,2022.1.3,Win32,59.47778505,62c50e9c1127f2cd403a315f,0,72,72,83,1,twofour,,,,,,,,,,,,,,,,,,,,,,,,,,,,,,,,,,,,,,,,,,,,,,,,,,,,,,,,,,,,,,,,,,,,,,,,,,,,,,,,,,,,,,,,,,,,,,,,,,,,,,,,,,,,,,,,,,,,,,,,,,,,,,,,,,,,,,,,,,,,,,,,,,,,,,,,,,,,,
,,,,,,616c46321f72ce4cf4efc717,62c539a5ac5d8d31fb792f59,2022-07-06_09h29.03.144,Colour_Asymmetry_Pilot,2022.1.3,Win32,59.47778505,62c50e9c1127f2cd403a315f,0,73,73,133,1,threefour,,,,,,,,,,,,,,,,,,,,,,,,,,,,,,,,,,,,,,,,,,,,,,,,,,,,,,,,,,,,,,,,,,,,,,,,,,,,,,,,,,,,,,,,,,,,,,,,,,,,,,,,,,,,,,,,,,,,,,,,,,,,,,,,,,,,,,,,,,,,,,,,,,,,,,,,,,,,,
,,,,,,616c46321f72ce4cf4efc717,62c539a5ac5d8d31fb792f59,2022-07-06_09h29.03.144,Colour_Asymmetry_Pilot,2022.1.3,Win32,59.47778505,62c50e9c1127f2cd403a315f,0,74,74,93,1,threefour,,,,,,,,,,,,,,,,,,,,,,,,,,,,,,,,,,,,,,,,,,,,,,,,,,,,,,,,,,,,,,,,,,,,,,,,,,,,,,,,,,,,,,,,,,,,,,,,,,,,,,,,,,,,,,,,,,,,,,,,,,,,,,,,,,,,,,,,,,,,,,,,,,,,,,,,,,,,,
,,,,,,616c46321f72ce4cf4efc717,62c539a5ac5d8d31fb792f59,2022-07-06_09h29.03.144,Colour_Asymmetry_Pilot,2022.1.3,Win32,59.47778505,62c50e9c1127f2cd403a315f,0,75,75,39,1,fourthree,,,,,,,,,,,,,,,,,,,,,,,,,,,,,,,,,,,,,,,,,,,,,,,,,,,,,,,,,,,,,,,,,,,,,,,,,,,,,,,,,,,,,,,,,,,,,,,,,,,,,,,,,,,,,,,,,,,,,,,,,,,,,,,,,,,,,,,,,,,,,,,,,,,,,,,,,,,,,
,,,,,,616c46321f72ce4cf4efc717,62c539a5ac5d8d31fb792f59,2022-07-06_09h29.03.144,Colour_Asymmetry_Pilot,2022.1.3,Win32,59.47778505,62c50e9c1127f2cd403a315f,0,76,76,118,1,fourtwo,,,,,,,,,,,,,,,,,,,,,,,,,,,,,,,,,,,,,,,,,,,,,,,,,,,,,,,,,,,,,,,,,,,,,,,,,,,,,,,,,,,,,,,,,,,,,,,,,,,,,,,,,,,,,,,,,,,,,,,,,,,,,,,,,,,,,,,,,,,,,,,,,,,,,,,,,,,,,
,,,,,,616c46321f72ce4cf4efc717,62c539a5ac5d8d31fb792f59,2022-07-06_09h29.03.144,Colour_Asymmetry_Pilot,2022.1.3,Win32,59.47778505,62c50e9c1127f2cd403a315f,0,77,77,17,1,onethree,,,,,,,,,,,,,,,,,,,,,,,,,,,,,,,,,,,,,,,,,,,,,,,,,,,,,,,,,,,,,,,,,,,,,,,,,,,,,,,,,,,,,,,,,,,,,,,,,,,,,,,,,,,,,,,,,,,,,,,,,,,,,,,,,,,,,,,,,,,,,,,,,,,,,,,,,,,,,
,,,,,,616c46321f72ce4cf4efc717,62c539a5ac5d8d31fb792f59,2022-07-06_09h29.03.144,Colour_Asymmetry_Pilot,2022.1.3,Win32,59.47778505,62c50e9c1127f2cd403a315f,0,78,78,42,1,twoone,,,,,,,,,,,,,,,,,,,,,,,,,,,,,,,,,,,,,,,,,,,,,,,,,,,,,,,,,,,,,,,,,,,,,,,,,,,,,,,,,,,,,,,,,,,,,,,,,,,,,,,,,,,,,,,,,,,,,,,,,,,,,,,,,,,,,,,,,,,,,,,,,,,,,,,,,,,,,
,,,,,,616c46321f72ce4cf4efc717,62c539a5ac5d8d31fb792f59,2022-07-06_09h29.03.144,Colour_Asymmetry_Pilot,2022.1.3,Win32,59.47778505,62c50e9c1127f2cd403a315f,0,79,79,4,1,threeone,,,,,,,,,,,,,,,,,,,,,,,,,,,,,,,,,,,,,,,,,,,,,,,,,,,,,,,,,,,,,,,,,,,,,,,,,,,,,,,,,,,,,,,,,,,,,,,,,,,,,,,,,,,,,,,,,,,,,,,,,,,,,,,,,,,,,,,,,,,,,,,,,,,,,,,,,,,,,
,,,,,,616c46321f72ce4cf4efc717,62c539a5ac5d8d31fb792f59,2022-07-06_09h29.03.144,Colour_Asymmetry_Pilot,2022.1.3,Win32,59.47778505,62c50e9c1127f2cd403a315f,0,80,80,132,1,threeone,,,,,,,,,,,,,,,,,,,,,,,,,,,,,,,,,,,,,,,,,,,,,,,,,,,,,,,,,,,,,,,,,,,,,,,,,,,,,,,,,,,,,,,,,,,,,,,,,,,,,,,,,,,,,,,,,,,,,,,,,,,,,,,,,,,,,,,,,,,,,,,,,,,,,,,,,,,,,
,,,,,,616c46321f72ce4cf4efc717,62c539a5ac5d8d31fb792f59,2022-07-06_09h29.03.144,Colour_Asymmetry_Pilot,2022.1.3,Win32,59.47778505,62c50e9c1127f2cd403a315f,0,81,81,151,1,fourthree,,,,,,,,,,,,,,,,,,,,,,,,,,,,,,,,,,,,,,,,,,,,,,,,,,,,,,,,,,,,,,,,,,,,,,,,,,,,,,,,,,,,,,,,,,,,,,,,,,,,,,,,,,,,,,,,,,,,,,,,,,,,,,,,,,,,,,,,,,,,,,,,,,,,,,,,,,,,,
,,,,,,616c46321f72ce4cf4efc717,62c539a5ac5d8d31fb792f59,2022-07-06_09h29.03.144,Colour_Asymmetry_Pilot,2022.1.3,Win32,59.47778505,62c50e9c1127f2cd403a315f,0,82,82,67,1,twofour,,,,,,,,,,,,,,,,,,,,,,,,,,,,,,,,,,,,,,,,,,,,,,,,,,,,,,,,,,,,,,,,,,,,,,,,,,,,,,,,,,,,,,,,,,,,,,,,,,,,,,,,,,,,,,,,,,,,,,,,,,,,,,,,,,,,,,,,,,,,,,,,,,,,,,,,,,,,,
,,,,,,616c46321f72ce4cf4efc717,62c539a5ac5d8d31fb792f59,2022-07-06_09h29.03.144,Colour_Asymmetry_Pilot,2022.1.3,Win32,59.47778505,62c50e9c1127f2cd403a315f,0,83,83,146,1,twoone,,,,,,,,,,,,,,,,,,,,,,,,,,,,,,,,,,,,,,,,,,,,,,,,,,,,,,,,,,,,,,,,,,,,,,,,,,,,,,,,,,,,,,,,,,,,,,,,,,,,,,,,,,,,,,,,,,,,,,,,,,,,,,,,,,,,,,,,,,,,,,,,,,,,,,,,,,,,,
,,,,,,616c46321f72ce4cf4efc717,62c539a5ac5d8d31fb792f59,2022-07-06_09h29.03.144,Colour_Asymmetry_Pilot,2022.1.3,Win32,59.47778505,62c50e9c1127f2cd403a315f,0,84,84,145,1,onethree,,,,,,,,,,,,,,,,,,,,,,,,,,,,,,,,,,,,,,,,,,,,,,,,,,,,,,,,,,,,,,,,,,,,,,,,,,,,,,,,,,,,,,,,,,,,,,,,,,,,,,,,,,,,,,,,,,,,,,,,,,,,,,,,,,,,,,,,,,,,,,,,,,,,,,,,,,,,,
,,,,,,616c46321f72ce4cf4efc717,62c539a5ac5d8d31fb792f59,2022-07-06_09h29.03.144,Colour_Asymmetry_Pilot,2022.1.3,Win32,59.47778505,62c50e9c1127f2cd403a315f,0,85,85,44,1,threeone,,,,,,,,,,,,,,,,,,,,,,,,,,,,,,,,,,,,,,,,,,,,,,,,,,,,,,,,,,,,,,,,,,,,,,,,,,,,,,,,,,,,,,,,,,,,,,,,,,,,,,,,,,,,,,,,,,,,,,,,,,,,,,,,,,,,,,,,,,,,,,,,,,,,,,,,,,,,,
,,,,,,616c46321f72ce4cf4efc717,62c539a5ac5d8d31fb792f59,2022-07-06_09h29.03.144,Colour_Asymmetry_Pilot,2022.1.3,Win32,59.47778505,62c50e9c1127f2cd403a315f,0,86,86,124,1,threeone,,,,,,,,,,,,,,,,,,,,,,,,,,,,,,,,,,,,,,,,,,,,,,,,,,,,,,,,,,,,,,,,,,,,,,,,,,,,,,,,,,,,,,,,,,,,,,,,,,,,,,,,,,,,,,,,,,,,,,,,,,,,,,,,,,,,,,,,,,,,,,,,,,,,,,,,,,,,,
,,,,,,616c46321f72ce4cf4efc717,62c539a5ac5d8d31fb792f59,2022-07-06_09h29.03.144,Colour_Asymmetry_Pilot,2022.1.3,Win32,59.47778505,62c50e9c1127f2cd403a315f,0,87,87,38,1,fourtwo,,,,,,,,,,,,,,,,,,,,,,,,,,,,,,,,,,,,,,,,,,,,,,,,,,,,,,,,,,,,,,,,,,,,,,,,,,,,,,,,,,,,,,,,,,,,,,,,,,,,,,,,,,,,,,,,,,,,,,,,,,,,,,,,,,,,,,,,,,,,,,,,,,,,,,,,,,,,,
,,,,,,616c46321f72ce4cf4efc717,62c539a5ac5d8d31fb792f59,2022-07-06_09h29.03.144,Colour_Asymmetry_Pilot,2022.1.3,Win32,59.47778505,62c50e9c1127f2cd403a315f,0,88,88,40,1,onetwo,,,,,,,,,,,,,,,,,,,,,,,,,,,,,,,,,,,,,,,,,,,,,,,,,,,,,,,,,,,,,,,,,,,,,,,,,,,,,,,,,,,,,,,,,,,,,,,,,,,,,,,,,,,,,,,,,,,,,,,,,,,,,,,,,,,,,,,,,,,,,,,,,,,,,,,,,,,,,
,,,,,,616c46321f72ce4cf4efc717,62c539a5ac5d8d31fb792f59,2022-07-06_09h29.03.144,Colour_Asymmetry_Pilot,2022.1.3,Win32,59.47778505,62c50e9c1127f2cd403a315f,0,89,89,73,1,onethree,,,,,,,,,,,,,,,,,,,,,,,,,,,,,,,,,,,,,,,,,,,,,,,,,,,,,,,,,,,,,,,,,,,,,,,,,,,,,,,,,,,,,,,,,,,,,,,,,,,,,,,,,,,,,,,,,,,,,,,,,,,,,,,,,,,,,,,,,,,,,,,,,,,,,,,,,,,,,
,,,,,,616c46321f72ce4cf4efc717,62c539a5ac5d8d31fb792f59,2022-07-06_09h29.03.144,Colour_Asymmetry_Pilot,2022.1.3,Win32,59.47778505,62c50e9c1127f2cd403a315f,0,90,90,84,1,threeone,,,,,,,,,,,,,,,,,,,,,,,,,,,,,,,,,,,,,,,,,,,,,,,,,,,,,,,,,,,,,,,,,,,,,,,,,,,,,,,,,,,,,,,,,,,,,,,,,,,,,,,,,,,,,,,,,,,,,,,,,,,,,,,,,,,,,,,,,,,,,,,,,,,,,,,,,,,,,
,,,,,,616c46321f72ce4cf4efc717,62c539a5ac5d8d31fb792f59,2022-07-06_09h29.03.144,Colour_Asymmetry_Pilot,2022.1.3,Win32,59.47778505,62c50e9c1127f2cd403a315f,0,91,91,130,1,twoone,,,,,,,,,,,,,,,,,,,,,,,,,,,,,,,,,,,,,,,,,,,,,,,,,,,,,,,,,,,,,,,,,,,,,,,,,,,,,,,,,,,,,,,,,,,,,,,,,,,,,,,,,,,,,,,,,,,,,,,,,,,,,,,,,,,,,,,,,,,,,,,,,,,,,,,,,,,,,
,,,,,,616c46321f72ce4cf4efc717,62c539a5ac5d8d31fb792f59,2022-07-06_09h29.03.144,Colour_Asymmetry_Pilot,2022.1.3,Win32,59.47778505,62c50e9c1127f2cd403a315f,0,92,92,16,1,onetwo,,,,,,,,,,,,,,,,,,,,,,,,,,,,,,,,,,,,,,,,,,,,,,,,,,,,,,,,,,,,,,,,,,,,,,,,,,,,,,,,,,,,,,,,,,,,,,,,,,,,,,,,,,,,,,,,,,,,,,,,,,,,,,,,,,,,,,,,,,,,,,,,,,,,,,,,,,,,,
,,,,,,616c46321f72ce4cf4efc717,62c539a5ac5d8d31fb792f59,2022-07-06_09h29.03.144,Colour_Asymmetry_Pilot,2022.1.3,Win32,59.47778505,62c50e9c1127f2cd403a315f,0,93,93,77,1,threefour,,,,,,,,,,,,,,,,,,,,,,,,,,,,,,,,,,,,,,,,,,,,,,,,,,,,,,,,,,,,,,,,,,,,,,,,,,,,,,,,,,,,,,,,,,,,,,,,,,,,,,,,,,,,,,,,,,,,,,,,,,,,,,,,,,,,,,,,,,,,,,,,,,,,,,,,,,,,,
,,,,,,616c46321f72ce4cf4efc717,62c539a5ac5d8d31fb792f59,2022-07-06_09h29.03.144,Colour_Asymmetry_Pilot,2022.1.3,Win32,59.47778505,62c50e9c1127f2cd403a315f,0,94,94,60,1,threeone,,,,,,,,,,,,,,,,,,,,,,,,,,,,,,,,,,,,,,,,,,,,,,,,,,,,,,,,,,,,,,,,,,,,,,,,,,,,,,,,,,,,,,,,,,,,,,,,,,,,,,,,,,,,,,,,,,,,,,,,,,,,,,,,,,,,,,,,,,,,,,,,,,,,,,,,,,,,,
,,,,,,616c46321f72ce4cf4efc717,62c539a5ac5d8d31fb792f59,2022-07-06_09h29.03.144,Colour_Asymmetry_Pilot,2022.1.3,Win32,59.47778505,62c50e9c1127f2cd403a315f,0,95,95,9,1,onethree,,,,,,,,,,,,,,,,,,,,,,,,,,,,,,,,,,,,,,,,,,,,,,,,,,,,,,,,,,,,,,,,,,,,,,,,,,,,,,,,,,,,,,,,,,,,,,,,,,,,,,,,,,,,,,,,,,,,,,,,,,,,,,,,,,,,,,,,,,,,,,,,,,,,,,,,,,,,,
,,,,,,616c46321f72ce4cf4efc717,62c539a5ac5d8d31fb792f59,2022-07-06_09h29.03.144,Colour_Asymmetry_Pilot,2022.1.3,Win32,59.47778505,62c50e9c1127f2cd403a315f,0,96,96,111,1,fourthree,,,,,,,,,,,,,,,,,,,,,,,,,,,,,,,,,,,,,,,,,,,,,,,,,,,,,,,,,,,,,,,,,,,,,,,,,,,,,,,,,,,,,,,,,,,,,,,,,,,,,,,,,,,,,,,,,,,,,,,,,,,,,,,,,,,,,,,,,,,,,,,,,,,,,,,,,,,,,
,,,,,,616c46321f72ce4cf4efc717,62c539a5ac5d8d31fb792f59,2022-07-06_09h29.03.144,Colour_Asymmetry_Pilot,2022.1.3,Win32,59.47778505,62c50e9c1127f2cd403a315f,0,97,97,123,1,twofour,,,,,,,,,,,,,,,,,,,,,,,,,,,,,,,,,,,,,,,,,,,,,,,,,,,,,,,,,,,,,,,,,,,,,,,,,,,,,,,,,,,,,,,,,,,,,,,,,,,,,,,,,,,,,,,,,,,,,,,,,,,,,,,,,,,,,,,,,,,,,,,,,,,,,,,,,,,,,
,,,,,,616c46321f72ce4cf4efc717,62c539a5ac5d8d31fb792f59,2022-07-06_09h29.03.144,Colour_Asymmetry_Pilot,2022.1.3,Win32,59.47778505,62c50e9c1127f2cd403a315f,0,98,98,121,1,onethree,,,,,,,,,,,,,,,,,,,,,,,,,,,,,,,,,,,,,,,,,,,,,,,,,,,,,,,,,,,,,,,,,,,,,,,,,,,,,,,,,,,,,,,,,,,,,,,,,,,,,,,,,,,,,,,,,,,,,,,,,,,,,,,,,,,,,,,,,,,,,,,,,,,,,,,,,,,,,
,,,,,,616c46321f72ce4cf4efc717,62c539a5ac5d8d31fb792f59,2022-07-06_09h29.03.144,Colour_Asymmetry_Pilot,2022.1.3,Win32,59.47778505,62c50e9c1127f2cd403a315f,0,99,99,20,1,threeone,,,,,,,,,,,,,,,,,,,,,,,,,,,,,,,,,,,,,,,,,,,,,,,,,,,,,,,,,,,,,,,,,,,,,,,,,,,,,,,,,,,,,,,,,,,,,,,,,,,,,,,,,,,,,,,,,,,,,,,,,,,,,,,,,,,,,,,,,,,,,,,,,,,,,,,,,,,,,
,,,,,,616c46321f72ce4cf4efc717,62c539a5ac5d8d31fb792f59,2022-07-06_09h29.03.144,Colour_Asymmetry_Pilot,2022.1.3,Win32,59.47778505,62c50e9c1127f2cd403a315f,0,100,100,33,1,onethree,,,,,,,,,,,,,,,,,,,,,,,,,,,,,,,,,,,,,,,,,,,,,,,,,,,,,,,,,,,,,,,,,,,,,,,,,,,,,,,,,,,,,,,,,,,,,,,,,,,,,,,,,,,,,,,,,,,,,,,,,,,,,,,,,,,,,,,,,,,,,,,,,,,,,,,,,,,,,
,,,,,,616c46321f72ce4cf4efc717,62c539a5ac5d8d31fb792f59,2022-07-06_09h29.03.144,Colour_Asymmetry_Pilot,2022.1.3,Win32,59.47778505,62c50e9c1127f2cd403a315f,0,101,101,57,1,onethree,,,,,,,,,,,,,,,,,,,,,,,,,,,,,,,,,,,,,,,,,,,,,,,,,,,,,,,,,,,,,,,,,,,,,,,,,,,,,,,,,,,,,,,,,,,,,,,,,,,,,,,,,,,,,,,,,,,,,,,,,,,,,,,,,,,,,,,,,,,,,,,,,,,,,,,,,,,,,
,,,,,,616c46321f72ce4cf4efc717,62c539a5ac5d8d31fb792f59,2022-07-06_09h29.03.144,Colour_Asymmetry_Pilot,2022.1.3,Win32,59.47778505,62c50e9c1127f2cd403a315f,0,102,102,82,1,twoone,,,,,,,,,,,,,,,,,,,,,,,,,,,,,,,,,,,,,,,,,,,,,,,,,,,,,,,,,,,,,,,,,,,,,,,,,,,,,,,,,,,,,,,,,,,,,,,,,,,,,,,,,,,,,,,,,,,,,,,,,,,,,,,,,,,,,,,,,,,,,,,,,,,,,,,,,,,,,
,,,,,,616c46321f72ce4cf4efc717,62c539a5ac5d8d31fb792f59,2022-07-06_09h29.03.144,Colour_Asymmetry_Pilot,2022.1.3,Win32,59.47778505,62c50e9c1127f2cd403a315f,0,103,103,156,1,threeone,,,,,,,,,,,,,,,,,,,,,,,,,,,,,,,,,,,,,,,,,,,,,,,,,,,,,,,,,,,,,,,,,,,,,,,,,,,,,,,,,,,,,,,,,,,,,,,,,,,,,,,,,,,,,,,,,,,,,,,,,,,,,,,,,,,,,,,,,,,,,,,,,,,,,,,,,,,,,
,,,,,,616c46321f72ce4cf4efc717,62c539a5ac5d8d31fb792f59,2022-07-06_09h29.03.144,Colour_Asymmetry_Pilot,2022.1.3,Win32,59.47778505,62c50e9c1127f2cd403a315f,0,104,104,157,1,threefour,,,,,,,,,,,,,,,,,,,,,,,,,,,,,,,,,,,,,,,,,,,,,,,,,,,,,,,,,,,,,,,,,,,,,,,,,,,,,,,,,,,,,,,,,,,,,,,,,,,,,,,,,,,,,,,,,,,,,,,,,,,,,,,,,,,,,,,,,,,,,,,,,,,,,,,,,,,,,
,,,,,,616c46321f72ce4cf4efc717,62c539a5ac5d8d31fb792f59,2022-07-06_09h29.03.144,Colour_Asymmetry_Pilot,2022.1.3,Win32,59.47778505,62c50e9c1127f2cd403a315f,0,105,105,72,1,onetwo,,,,,,,,,,,,,,,,,,,,,,,,,,,,,,,,,,,,,,,,,,,,,,,,,,,,,,,,,,,,,,,,,,,,,,,,,,,,,,,,,,,,,,,,,,,,,,,,,,,,,,,,,,,,,,,,,,,,,,,,,,,,,,,,,,,,,,,,,,,,,,,,,,,,,,,,,,,,,
,,,,,,616c46321f72ce4cf4efc717,62c539a5ac5d8d31fb792f59,2022-07-06_09h29.03.144,Colour_Asymmetry_Pilot,2022.1.3,Win32,59.47778505,62c50e9c1127f2cd403a315f,0,106,106,90,1,twoone,,,,,,,,,,,,,,,,,,,,,,,,,,,,,,,,,,,,,,,,,,,,,,,,,,,,,,,,,,,,,,,,,,,,,,,,,,,,,,,,,,,,,,,,,,,,,,,,,,,,,,,,,,,,,,,,,,,,,,,,,,,,,,,,,,,,,,,,,,,,,,,,,,,,,,,,,,,,,
,,,,,,616c46321f72ce4cf4efc717,62c539a5ac5d8d31fb792f59,2022-07-06_09h29.03.144,Colour_Asymmetry_Pilot,2022.1.3,Win32,59.47778505,62c50e9c1127f2cd403a315f,0,107,107,97,1,onethree,,,,,,,,,,,,,,,,,,,,,,,,,,,,,,,,,,,,,,,,,,,,,,,,,,,,,,,,,,,,,,,,,,,,,,,,,,,,,,,,,,,,,,,,,,,,,,,,,,,,,,,,,,,,,,,,,,,,,,,,,,,,,,,,,,,,,,,,,,,,,,,,,,,,,,,,,,,,,
,,,,,,616c46321f72ce4cf4efc717,62c539a5ac5d8d31fb792f59,2022-07-06_09h29.03.144,Colour_Asymmetry_Pilot,2022.1.3,Win32,59.47778505,62c50e9c1127f2cd403a315f,0,108,108,1,1,onethree,,,,,,,,,,,,,,,,,,,,,,,,,,,,,,,,,,,,,,,,,,,,,,,,,,,,,,,,,,,,,,,,,,,,,,,,,,,,,,,,,,,,,,,,,,,,,,,,,,,,,,,,,,,,,,,,,,,,,,,,,,,,,,,,,,,,,,,,,,,,,,,,,,,,,,,,,,,,,
,,,,,,616c46321f72ce4cf4efc717,62c539a5ac5d8d31fb792f59,2022-07-06_09h29.03.144,Colour_Asymmetry_Pilot,2022.1.3,Win32,59.47778505,62c50e9c1127f2cd403a315f,0,109,109,127,1,fourthree,,,,,,,,,,,,,,,,,,,,,,,,,,,,,,,,,,,,,,,,,,,,,,,,,,,,,,,,,,,,,,,,,,,,,,,,,,,,,,,,,,,,,,,,,,,,,,,,,,,,,,,,,,,,,,,,,,,,,,,,,,,,,,,,,,,,,,,,,,,,,,,,,,,,,,,,,,,,,
,,,,,,616c46321f72ce4cf4efc717,62c539a5ac5d8d31fb792f59,2022-07-06_09h29.03.144,Colour_Asymmetry_Pilot,2022.1.3,Win32,59.47778505,62c50e9c1127f2cd403a315f,0,110,110,154,1,twoone,,,,,,,,,,,,,,,,,,,,,,,,,,,,,,,,,,,,,,,,,,,,,,,,,,,,,,,,,,,,,,,,,,,,,,,,,,,,,,,,,,,,,,,,,,,,,,,,,,,,,,,,,,,,,,,,,,,,,,,,,,,,,,,,,,,,,,,,,,,,,,,,,,,,,,,,,,,,,
,,,,,,616c46321f72ce4cf4efc717,62c539a5ac5d8d31fb792f59,2022-07-06_09h29.03.144,Colour_Asymmetry_Pilot,2022.1.3,Win32,59.47778505,62c50e9c1127f2cd403a315f,0,111,111,122,1,twoone,,,,,,,,,,,,,,,,,,,,,,,,,,,,,,,,,,,,,,,,,,,,,,,,,,,,,,,,,,,,,,,,,,,,,,,,,,,,,,,,,,,,,,,,,,,,,,,,,,,,,,,,,,,,,,,,,,,,,,,,,,,,,,,,,,,,,,,,,,,,,,,,,,,,,,,,,,,,,
,,,,,,616c46321f72ce4cf4efc717,62c539a5ac5d8d31fb792f59,2022-07-06_09h29.03.144,Colour_Asymmetry_Pilot,2022.1.3,Win32,59.47778505,62c50e9c1127f2cd403a315f,0,112,112,94,1,fourtwo,,,,,,,,,,,,,,,,,,,,,,,,,,,,,,,,,,,,,,,,,,,,,,,,,,,,,,,,,,,,,,,,,,,,,,,,,,,,,,,,,,,,,,,,,,,,,,,,,,,,,,,,,,,,,,,,,,,,,,,,,,,,,,,,,,,,,,,,,,,,,,,,,,,,,,,,,,,,,
,,,,,,616c46321f72ce4cf4efc717,62c539a5ac5d8d31fb792f59,2022-07-06_09h29.03.144,Colour_Asymmetry_Pilot,2022.1.3,Win32,59.47778505,62c50e9c1127f2cd403a315f,0,113,113,85,1,threefour,,,,,,,,,,,,,,,,,,,,,,,,,,,,,,,,,,,,,,,,,,,,,,,,,,,,,,,,,,,,,,,,,,,,,,,,,,,,,,,,,,,,,,,,,,,,,,,,,,,,,,,,,,,,,,,,,,,,,,,,,,,,,,,,,,,,,,,,,,,,,,,,,,,,,,,,,,,,,
,,,,,,616c46321f72ce4cf4efc717,62c539a5ac5d8d31fb792f59,2022-07-06_09h29.03.144,Colour_Asymmetry_Pilot,2022.1.3,Win32,59.47778505,62c50e9c1127f2cd403a315f,0,114,114,61,1,threefour,,,,,,,,,,,,,,,,,,,,,,,,,,,,,,,,,,,,,,,,,,,,,,,,,,,,,,,,,,,,,,,,,,,,,,,,,,,,,,,,,,,,,,,,,,,,,,,,,,,,,,,,,,,,,,,,,,,,,,,,,,,,,,,,,,,,,,,,,,,,,,,,,,,,,,,,,,,,,
,,,,,,616c46321f72ce4cf4efc717,62c539a5ac5d8d31fb792f59,2022-07-06_09h29.03.144,Colour_Asymmetry_Pilot,2022.1.3,Win32,59.47778505,62c50e9c1127f2cd403a315f,0,115,115,126,1,fourtwo,,,,,,,,,,,,,,,,,,,,,,,,,,,,,,,,,,,,,,,,,,,,,,,,,,,,,,,,,,,,,,,,,,,,,,,,,,,,,,,,,,,,,,,,,,,,,,,,,,,,,,,,,,,,,,,,,,,,,,,,,,,,,,,,,,,,,,,,,,,,,,,,,,,,,,,,,,,,,
,,,,,,616c46321f72ce4cf4efc717,62c539a5ac5d8d31fb792f59,2022-07-06_09h29.03.144,Colour_Asymmetry_Pilot,2022.1.3,Win32,59.47778505,62c50e9c1127f2cd403a315f,0,116,116,144,1,onetwo,,,,,,,,,,,,,,,,,,,,,,,,,,,,,,,,,,,,,,,,,,,,,,,,,,,,,,,,,,,,,,,,,,,,,,,,,,,,,,,,,,,,,,,,,,,,,,,,,,,,,,,,,,,,,,,,,,,,,,,,,,,,,,,,,,,,,,,,,,,,,,,,,,,,,,,,,,,,,
,,,,,,616c46321f72ce4cf4efc717,62c539a5ac5d8d31fb792f59,2022-07-06_09h29.03.144,Colour_Asymmetry_Pilot,2022.1.3,Win32,59.47778505,62c50e9c1127f2cd403a315f,0,117,117,128,1,onetwo,,,,,,,,,,,,,,,,,,,,,,,,,,,,,,,,,,,,,,,,,,,,,,,,,,,,,,,,,,,,,,,,,,,,,,,,,,,,,,,,,,,,,,,,,,,,,,,,,,,,,,,,,,,,,,,,,,,,,,,,,,,,,,,,,,,,,,,,,,,,,,,,,,,,,,,,,,,,,
,,,,,,616c46321f72ce4cf4efc717,62c539a5ac5d8d31fb792f59,2022-07-06_09h29.03.144,Colour_Asymmetry_Pilot,2022.1.3,Win32,59.47778505,62c50e9c1127f2cd403a315f,0,118,118,116,1,threeone,,,,,,,,,,,,,,,,,,,,,,,,,,,,,,,,,,,,,,,,,,,,,,,,,,,,,,,,,,,,,,,,,,,,,,,,,,,,,,,,,,,,,,,,,,,,,,,,,,,,,,,,,,,,,,,,,,,,,,,,,,,,,,,,,,,,,,,,,,,,,,,,,,,,,,,,,,,,,
,,,,,,616c46321f72ce4cf4efc717,62c539a5ac5d8d31fb792f59,2022-07-06_09h29.03.144,Colour_Asymmetry_Pilot,2022.1.3,Win32,59.47778505,62c50e9c1127f2cd403a315f,0,119,119,25,1,onethree,,,,,,,,,,,,,,,,,,,,,,,,,,,,,,,,,,,,,,,,,,,,,,,,,,,,,,,,,,,,,,,,,,,,,,,,,,,,,,,,,,,,,,,,,,,,,,,,,,,,,,,,,,,,,,,,,,,,,,,,,,,,,,,,,,,,,,,,,,,,,,,,,,,,,,,,,,,,,
,,,,,,616c46321f72ce4cf4efc717,62c539a5ac5d8d31fb792f59,2022-07-06_09h29.03.144,Colour_Asymmetry_Pilot,2022.1.3,Win32,59.47778505,62c50e9c1127f2cd403a315f,0,120,120,8,1,onetwo,,,,,,,,,,,,,,,,,,,,,,,,,,,,,,,,,,,,,,,,,,,,,,,,,,,,,,,,,,,,,,,,,,,,,,,,,,,,,,,,,,,,,,,,,,,,,,,,,,,,,,,,,,,,,,,,,,,,,,,,,,,,,,,,,,,,,,,,,,,,,,,,,,,,,,,,,,,,,
,,,,,,616c46321f72ce4cf4efc717,62c539a5ac5d8d31fb792f59,2022-07-06_09h29.03.144,Colour_Asymmetry_Pilot,2022.1.3,Win32,59.47778505,62c50e9c1127f2cd403a315f,0,121,121,19,1,twofour,,,,,,,,,,,,,,,,,,,,,,,,,,,,,,,,,,,,,,,,,,,,,,,,,,,,,,,,,,,,,,,,,,,,,,,,,,,,,,,,,,,,,,,,,,,,,,,,,,,,,,,,,,,,,,,,,,,,,,,,,,,,,,,,,,,,,,,,,,,,,,,,,,,,,,,,,,,,,
,,,,,,616c46321f72ce4cf4efc717,62c539a5ac5d8d31fb792f59,2022-07-06_09h29.03.144,Colour_Asymmetry_Pilot,2022.1.3,Win32,59.47778505,62c50e9c1127f2cd403a315f,0,122,122,106,1,twoone,,,,,,,,,,,,,,,,,,,,,,,,,,,,,,,,,,,,,,,,,,,,,,,,,,,,,,,,,,,,,,,,,,,,,,,,,,,,,,,,,,,,,,,,,,,,,,,,,,,,,,,,,,,,,,,,,,,,,,,,,,,,,,,,,,,,,,,,,,,,,,,,,,,,,,,,,,,,,
,,,,,,616c46321f72ce4cf4efc717,62c539a5ac5d8d31fb792f59,2022-07-06_09h29.03.144,Colour_Asymmetry_Pilot,2022.1.3,Win32,59.47778505,62c50e9c1127f2cd403a315f,0,123,123,3,1,twofour,,,,,,,,,,,,,,,,,,,,,,,,,,,,,,,,,,,,,,,,,,,,,,,,,,,,,,,,,,,,,,,,,,,,,,,,,,,,,,,,,,,,,,,,,,,,,,,,,,,,,,,,,,,,,,,,,,,,,,,,,,,,,,,,,,,,,,,,,,,,,,,,,,,,,,,,,,,,,
,,,,,,616c46321f72ce4cf4efc717,62c539a5ac5d8d31fb792f59,2022-07-06_09h29.03.144,Colour_Asymmetry_Pilot,2022.1.3,Win32,59.47778505,62c50e9c1127f2cd403a315f,0,124,124,5,1,threefour,,,,,,,,,,,,,,,,,,,,,,,,,,,,,,,,,,,,,,,,,,,,,,,,,,,,,,,,,,,,,,,,,,,,,,,,,,,,,,,,,,,,,,,,,,,,,,,,,,,,,,,,,,,,,,,,,,,,,,,,,,,,,,,,,,,,,,,,,,,,,,,,,,,,,,,,,,,,,
,,,,,,616c46321f72ce4cf4efc717,62c539a5ac5d8d31fb792f59,2022-07-06_09h29.03.144,Colour_Asymmetry_Pilot,2022.1.3,Win32,59.47778505,62c50e9c1127f2cd403a315f,0,125,125,71,1,fourthree,,,,,,,,,,,,,,,,,,,,,,,,,,,,,,,,,,,,,,,,,,,,,,,,,,,,,,,,,,,,,,,,,,,,,,,,,,,,,,,,,,,,,,,,,,,,,,,,,,,,,,,,,,,,,,,,,,,,,,,,,,,,,,,,,,,,,,,,,,,,,,,,,,,,,,,,,,,,,
,,,,,,616c46321f72ce4cf4efc717,62c539a5ac5d8d31fb792f59,2022-07-06_09h29.03.144,Colour_Asymmetry_Pilot,2022.1.3,Win32,59.47778505,62c50e9c1127f2cd403a315f,0,126,126,79,1,fourthree,,,,,,,,,,,,,,,,,,,,,,,,,,,,,,,,,,,,,,,,,,,,,,,,,,,,,,,,,,,,,,,,,,,,,,,,,,,,,,,,,,,,,,,,,,,,,,,,,,,,,,,,,,,,,,,,,,,,,,,,,,,,,,,,,,,,,,,,,,,,,,,,,,,,,,,,,,,,,
,,,,,,616c46321f72ce4cf4efc717,62c539a5ac5d8d31fb792f59,2022-07-06_09h29.03.144,Colour_Asymmetry_Pilot,2022.1.3,Win32,59.47778505,62c50e9c1127f2cd403a315f,0,127,127,108,1,threeone,,,,,,,,,,,,,,,,,,,,,,,,,,,,,,,,,,,,,,,,,,,,,,,,,,,,,,,,,,,,,,,,,,,,,,,,,,,,,,,,,,,,,,,,,,,,,,,,,,,,,,,,,,,,,,,,,,,,,,,,,,,,,,,,,,,,,,,,,,,,,,,,,,,,,,,,,,,,,
,,,,,,616c46321f72ce4cf4efc717,62c539a5ac5d8d31fb792f59,2022-07-06_09h29.03.144,Colour_Asymmetry_Pilot,2022.1.3,Win32,59.47778505,62c50e9c1127f2cd403a315f,0,128,128,64,1,onetwo,,,,,,,,,,,,,,,,,,,,,,,,,,,,,,,,,,,,,,,,,,,,,,,,,,,,,,,,,,,,,,,,,,,,,,,,,,,,,,,,,,,,,,,,,,,,,,,,,,,,,,,,,,,,,,,,,,,,,,,,,,,,,,,,,,,,,,,,,,,,,,,,,,,,,,,,,,,,,
,,,,,,616c46321f72ce4cf4efc717,62c539a5ac5d8d31fb792f59,2022-07-06_09h29.03.144,Colour_Asymmetry_Pilot,2022.1.3,Win32,59.47778505,62c50e9c1127f2cd403a315f,0,129,129,78,1,fourtwo,,,,,,,,,,,,,,,,,,,,,,,,,,,,,,,,,,,,,,,,,,,,,,,,,,,,,,,,,,,,,,,,,,,,,,,,,,,,,,,,,,,,,,,,,,,,,,,,,,,,,,,,,,,,,,,,,,,,,,,,,,,,,,,,,,,,,,,,,,,,,,,,,,,,,,,,,,,,,
,,,,,,616c46321f72ce4cf4efc717,62c539a5ac5d8d31fb792f59,2022-07-06_09h29.03.144,Colour_Asymmetry_Pilot,2022.1.3,Win32,59.47778505,62c50e9c1127f2cd403a315f,0,130,130,161,1,onethree,,,,,,,,,,,,,,,,,,,,,,,,,,,,,,,,,,,,,,,,,,,,,,,,,,,,,,,,,,,,,,,,,,,,,,,,,,,,,,,,,,,,,,,,,,,,,,,,,,,,,,,,,,,,,,,,,,,,,,,,,,,,,,,,,,,,,,,,,,,,,,,,,,,,,,,,,,,,,
,,,,,,616c46321f72ce4cf4efc717,62c539a5ac5d8d31fb792f59,2022-07-06_09h29.03.144,Colour_Asymmetry_Pilot,2022.1.3,Win32,59.47778505,62c50e9c1127f2cd403a315f,0,131,131,95,1,fourthree,,,,,,,,,,,,,,,,,,,,,,,,,,,,,,,,,,,,,,,,,,,,,,,,,,,,,,,,,,,,,,,,,,,,,,,,,,,,,,,,,,,,,,,,,,,,,,,,,,,,,,,,,,,,,,,,,,,,,,,,,,,,,,,,,,,,,,,,,,,,,,,,,,,,,,,,,,,,,
,,,,,,616c46321f72ce4cf4efc717,62c539a5ac5d8d31fb792f59,2022-07-06_09h29.03.144,Colour_Asymmetry_Pilot,2022.1.3,Win32,59.47778505,62c50e9c1127f2cd403a315f,0,132,132,105,1,onethree,,,,,,,,,,,,,,,,,,,,,,,,,,,,,,,,,,,,,,,,,,,,,,,,,,,,,,,,,,,,,,,,,,,,,,,,,,,,,,,,,,,,,,,,,,,,,,,,,,,,,,,,,,,,,,,,,,,,,,,,,,,,,,,,,,,,,,,,,,,,,,,,,,,,,,,,,,,,,
,,,,,,616c46321f72ce4cf4efc717,62c539a5ac5d8d31fb792f59,2022-07-06_09h29.03.144,Colour_Asymmetry_Pilot,2022.1.3,Win32,59.47778505,62c50e9c1127f2cd403a315f,0,133,133,41,1,onethree,,,,,,,,,,,,,,,,,,,,,,,,,,,,,,,,,,,,,,,,,,,,,,,,,,,,,,,,,,,,,,,,,,,,,,,,,,,,,,,,,,,,,,,,,,,,,,,,,,,,,,,,,,,,,,,,,,,,,,,,,,,,,,,,,,,,,,,,,,,,,,,,,,,,,,,,,,,,,
,,,,,,616c46321f72ce4cf4efc717,62c539a5ac5d8d31fb792f59,2022-07-06_09h29.03.144,Colour_Asymmetry_Pilot,2022.1.3,Win32,59.47778505,62c50e9c1127f2cd403a315f,0,134,134,114,1,twoone,,,,,,,,,,,,,,,,,,,,,,,,,,,,,,,,,,,,,,,,,,,,,,,,,,,,,,,,,,,,,,,,,,,,,,,,,,,,,,,,,,,,,,,,,,,,,,,,,,,,,,,,,,,,,,,,,,,,,,,,,,,,,,,,,,,,,,,,,,,,,,,,,,,,,,,,,,,,,
,,,,,,616c46321f72ce4cf4efc717,62c539a5ac5d8d31fb792f59,2022-07-06_09h29.03.144,Colour_Asymmetry_Pilot,2022.1.3,Win32,59.47778505,62c50e9c1127f2cd403a315f,0,135,135,70,1,fourtwo,,,,,,,,,,,,,,,,,,,,,,,,,,,,,,,,,,,,,,,,,,,,,,,,,,,,,,,,,,,,,,,,,,,,,,,,,,,,,,,,,,,,,,,,,,,,,,,,,,,,,,,,,,,,,,,,,,,,,,,,,,,,,,,,,,,,,,,,,,,,,,,,,,,,,,,,,,,,,
,,,,,,616c46321f72ce4cf4efc717,62c539a5ac5d8d31fb792f59,2022-07-06_09h29.03.144,Colour_Asymmetry_Pilot,2022.1.3,Win32,59.47778505,62c50e9c1127f2cd403a315f,0,136,136,18,1,twoone,,,,,,,,,,,,,,,,,,,,,,,,,,,,,,,,,,,,,,,,,,,,,,,,,,,,,,,,,,,,,,,,,,,,,,,,,,,,,,,,,,,,,,,,,,,,,,,,,,,,,,,,,,,,,,,,,,,,,,,,,,,,,,,,,,,,,,,,,,,,,,,,,,,,,,,,,,,,,
,,,,,,616c46321f72ce4cf4efc717,62c539a5ac5d8d31fb792f59,2022-07-06_09h29.03.144,Colour_Asymmetry_Pilot,2022.1.3,Win32,59.47778505,62c50e9c1127f2cd403a315f,0,137,137,109,1,threefour,,,,,,,,,,,,,,,,,,,,,,,,,,,,,,,,,,,,,,,,,,,,,,,,,,,,,,,,,,,,,,,,,,,,,,,,,,,,,,,,,,,,,,,,,,,,,,,,,,,,,,,,,,,,,,,,,,,,,,,,,,,,,,,,,,,,,,,,,,,,,,,,,,,,,,,,,,,,,
,,,,,,616c46321f72ce4cf4efc717,62c539a5ac5d8d31fb792f59,2022-07-06_09h29.03.144,Colour_Asymmetry_Pilot,2022.1.3,Win32,59.47778505,62c50e9c1127f2cd403a315f,0,138,138,14,1,fourtwo,,,,,,,,,,,,,,,,,,,,,,,,,,,,,,,,,,,,,,,,,,,,,,,,,,,,,,,,,,,,,,,,,,,,,,,,,,,,,,,,,,,,,,,,,,,,,,,,,,,,,,,,,,,,,,,,,,,,,,,,,,,,,,,,,,,,,,,,,,,,,,,,,,,,,,,,,,,,,
,,,,,,616c46321f72ce4cf4efc717,62c539a5ac5d8d31fb792f59,2022-07-06_09h29.03.144,Colour_Asymmetry_Pilot,2022.1.3,Win32,59.47778505,62c50e9c1127f2cd403a315f,0,139,139,55,1,fourthree,,,,,,,,,,,,,,,,,,,,,,,,,,,,,,,,,,,,,,,,,,,,,,,,,,,,,,,,,,,,,,,,,,,,,,,,,,,,,,,,,,,,,,,,,,,,,,,,,,,,,,,,,,,,,,,,,,,,,,,,,,,,,,,,,,,,,,,,,,,,,,,,,,,,,,,,,,,,,
,,,,,,616c46321f72ce4cf4efc717,62c539a5ac5d8d31fb792f59,2022-07-06_09h29.03.144,Colour_Asymmetry_Pilot,2022.1.3,Win32,59.47778505,62c50e9c1127f2cd403a315f,0,140,140,45,1,threefour,,,,,,,,,,,,,,,,,,,,,,,,,,,,,,,,,,,,,,,,,,,,,,,,,,,,,,,,,,,,,,,,,,,,,,,,,,,,,,,,,,,,,,,,,,,,,,,,,,,,,,,,,,,,,,,,,,,,,,,,,,,,,,,,,,,,,,,,,,,,,,,,,,,,,,,,,,,,,
,,,,,,616c46321f72ce4cf4efc717,62c539a5ac5d8d31fb792f59,2022-07-06_09h29.03.144,Colour_Asymmetry_Pilot,2022.1.3,Win32,59.47778505,62c50e9c1127f2cd403a315f,0,141,141,148,1,threeone,,,,,,,,,,,,,,,,,,,,,,,,,,,,,,,,,,,,,,,,,,,,,,,,,,,,,,,,,,,,,,,,,,,,,,,,,,,,,,,,,,,,,,,,,,,,,,,,,,,,,,,,,,,,,,,,,,,,,,,,,,,,,,,,,,,,,,,,,,,,,,,,,,,,,,,,,,,,,
,,,,,,616c46321f72ce4cf4efc717,62c539a5ac5d8d31fb792f59,2022-07-06_09h29.03.144,Colour_Asymmetry_Pilot,2022.1.3,Win32,59.47778505,62c50e9c1127f2cd403a315f,0,142,142,23,1,fourthree,,,,,,,,,,,,,,,,,,,,,,,,,,,,,,,,,,,,,,,,,,,,,,,,,,,,,,,,,,,,,,,,,,,,,,,,,,,,,,,,,,,,,,,,,,,,,,,,,,,,,,,,,,,,,,,,,,,,,,,,,,,,,,,,,,,,,,,,,,,,,,,,,,,,,,,,,,,,,
,,,,,,616c46321f72ce4cf4efc717,62c539a5ac5d8d31fb792f59,2022-07-06_09h29.03.144,Colour_Asymmetry_Pilot,2022.1.3,Win32,59.47778505,62c50e9c1127f2cd403a315f,0,143,143,65,1,onethree,,,,,,,,,,,,,,,,,,,,,,,,,,,,,,,,,,,,,,,,,,,,,,,,,,,,,,,,,,,,,,,,,,,,,,,,,,,,,,,,,,,,,,,,,,,,,,,,,,,,,,,,,,,,,,,,,,,,,,,,,,,,,,,,,,,,,,,,,,,,,,,,,,,,,,,,,,,,,
,,,,,,616c46321f72ce4cf4efc717,62c539a5ac5d8d31fb792f59,2022-07-06_09h29.03.144,Colour_Asymmetry_Pilot,2022.1.3,Win32,59.47778505,62c50e9c1127f2cd403a315f,0,144,144,35,1,twofour,,,,,,,,,,,,,,,,,,,,,,,,,,,,,,,,,,,,,,,,,,,,,,,,,,,,,,,,,,,,,,,,,,,,,,,,,,,,,,,,,,,,,,,,,,,,,,,,,,,,,,,,,,,,,,,,,,,,,,,,,,,,,,,,,,,,,,,,,,,,,,,,,,,,,,,,,,,,,
,,,,,,616c46321f72ce4cf4efc717,62c539a5ac5d8d31fb792f59,2022-07-06_09h29.03.144,Colour_Asymmetry_Pilot,2022.1.3,Win32,59.47778505,62c50e9c1127f2cd403a315f,0,145,145,104,1,onetwo,,,,,,,,,,,,,,,,,,,,,,,,,,,,,,,,,,,,,,,,,,,,,,,,,,,,,,,,,,,,,,,,,,,,,,,,,,,,,,,,,,,,,,,,,,,,,,,,,,,,,,,,,,,,,,,,,,,,,,,,,,,,,,,,,,,,,,,,,,,,,,,,,,,,,,,,,,,,,
,,,,,,616c46321f72ce4cf4efc717,62c539a5ac5d8d31fb792f59,2022-07-06_09h29.03.144,Colour_Asymmetry_Pilot,2022.1.3,Win32,59.47778505,62c50e9c1127f2cd403a315f,0,146,146,63,1,fourthree,,,,,,,,,,,,,,,,,,,,,,,,,,,,,,,,,,,,,,,,,,,,,,,,,,,,,,,,,,,,,,,,,,,,,,,,,,,,,,,,,,,,,,,,,,,,,,,,,,,,,,,,,,,,,,,,,,,,,,,,,,,,,,,,,,,,,,,,,,,,,,,,,,,,,,,,,,,,,
,,,,,,616c46321f72ce4cf4efc717,62c539a5ac5d8d31fb792f59,2022-07-06_09h29.03.144,Colour_Asymmetry_Pilot,2022.1.3,Win32,59.47778505,62c50e9c1127f2cd403a315f,0,147,147,159,1,fourthree,,,,,,,,,,,,,,,,,,,,,,,,,,,,,,,,,,,,,,,,,,,,,,,,,,,,,,,,,,,,,,,,,,,,,,,,,,,,,,,,,,,,,,,,,,,,,,,,,,,,,,,,,,,,,,,,,,,,,,,,,,,,,,,,,,,,,,,,,,,,,,,,,,,,,,,,,,,,,
,,,,,,616c46321f72ce4cf4efc717,62c539a5ac5d8d31fb792f59,2022-07-06_09h29.03.144,Colour_Asymmetry_Pilot,2022.1.3,Win32,59.47778505,62c50e9c1127f2cd403a315f,0,148,148,138,1,twoone,,,,,,,,,,,,,,,,,,,,,,,,,,,,,,,,,,,,,,,,,,,,,,,,,,,,,,,,,,,,,,,,,,,,,,,,,,,,,,,,,,,,,,,,,,,,,,,,,,,,,,,,,,,,,,,,,,,,,,,,,,,,,,,,,,,,,,,,,,,,,,,,,,,,,,,,,,,,,
,,,,,,616c46321f72ce4cf4efc717,62c539a5ac5d8d31fb792f59,2022-07-06_09h29.03.144,Colour_Asymmetry_Pilot,2022.1.3,Win32,59.47778505,62c50e9c1127f2cd403a315f,0,149,149,47,1,fourthree,,,,,,,,,,,,,,,,,,,,,,,,,,,,,,,,,,,,,,,,,,,,,,,,,,,,,,,,,,,,,,,,,,,,,,,,,,,,,,,,,,,,,,,,,,,,,,,,,,,,,,,,,,,,,,,,,,,,,,,,,,,,,,,,,,,,,,,,,,,,,,,,,,,,,,,,,,,,,
,,,,,,616c46321f72ce4cf4efc717,62c539a5ac5d8d31fb792f59,2022-07-06_09h29.03.144,Colour_Asymmetry_Pilot,2022.1.3,Win32,59.47778505,62c50e9c1127f2cd403a315f,0,150,150,112,1,onetwo,,,,,,,,,,,,,,,,,,,,,,,,,,,,,,,,,,,,,,,,,,,,,,,,,,,,,,,,,,,,,,,,,,,,,,,,,,,,,,,,,,,,,,,,,,,,,,,,,,,,,,,,,,,,,,,,,,,,,,,,,,,,,,,,,,,,,,,,,,,,,,,,,,,,,,,,,,,,,
,,,,,,616c46321f72ce4cf4efc717,62c539a5ac5d8d31fb792f59,2022-07-06_09h29.03.144,Colour_Asymmetry_Pilot,2022.1.3,Win32,59.47778505,62c50e9c1127f2cd403a315f,0,151,151,15,1,fourthree,,,,,,,,,,,,,,,,,,,,,,,,,,,,,,,,,,,,,,,,,,,,,,,,,,,,,,,,,,,,,,,,,,,,,,,,,,,,,,,,,,,,,,,,,,,,,,,,,,,,,,,,,,,,,,,,,,,,,,,,,,,,,,,,,,,,,,,,,,,,,,,,,,,,,,,,,,,,,
,,,,,,616c46321f72ce4cf4efc717,62c539a5ac5d8d31fb792f59,2022-07-06_09h29.03.144,Colour_Asymmetry_Pilot,2022.1.3,Win32,59.47778505,62c50e9c1127f2cd403a315f,0,152,152,158,1,fourtwo,,,,,,,,,,,,,,,,,,,,,,,,,,,,,,,,,,,,,,,,,,,,,,,,,,,,,,,,,,,,,,,,,,,,,,,,,,,,,,,,,,,,,,,,,,,,,,,,,,,,,,,,,,,,,,,,,,,,,,,,,,,,,,,,,,,,,,,,,,,,,,,,,,,,,,,,,,,,,
,,,,,,616c46321f72ce4cf4efc717,62c539a5ac5d8d31fb792f59,2022-07-06_09h29.03.144,Colour_Asymmetry_Pilot,2022.1.3,Win32,59.47778505,62c50e9c1127f2cd403a315f,0,153,153,46,1,fourtwo,,,,,,,,,,,,,,,,,,,,,,,,,,,,,,,,,,,,,,,,,,,,,,,,,,,,,,,,,,,,,,,,,,,,,,,,,,,,,,,,,,,,,,,,,,,,,,,,,,,,,,,,,,,,,,,,,,,,,,,,,,,,,,,,,,,,,,,,,,,,,,,,,,,,,,,,,,,,,
,,,,,,616c46321f72ce4cf4efc717,62c539a5ac5d8d31fb792f59,2022-07-06_09h29.03.144,Colour_Asymmetry_Pilot,2022.1.3,Win32,59.47778505,62c50e9c1127f2cd403a315f,0,154,154,120,1,onetwo,,,,,,,,,,,,,,,,,,,,,,,,,,,,,,,,,,,,,,,,,,,,,,,,,,,,,,,,,,,,,,,,,,,,,,,,,,,,,,,,,,,,,,,,,,,,,,,,,,,,,,,,,,,,,,,,,,,,,,,,,,,,,,,,,,,,,,,,,,,,,,,,,,,,,,,,,,,,,
,,,,,,616c46321f72ce4cf4efc717,62c539a5ac5d8d31fb792f59,2022-07-06_09h29.03.144,Colour_Asymmetry_Pilot,2022.1.3,Win32,59.47778505,62c50e9c1127f2cd403a315f,0,155,155,98,1,twoone,,,,,,,,,,,,,,,,,,,,,,,,,,,,,,,,,,,,,,,,,,,,,,,,,,,,,,,,,,,,,,,,,,,,,,,,,,,,,,,,,,,,,,,,,,,,,,,,,,,,,,,,,,,,,,,,,,,,,,,,,,,,,,,,,,,,,,,,,,,,,,,,,,,,,,,,,,,,,
,,,,,,616c46321f72ce4cf4efc717,62c539a5ac5d8d31fb792f59,2022-07-06_09h29.03.144,Colour_Asymmetry_Pilot,2022.1.3,Win32,59.47778505,62c50e9c1127f2cd403a315f,0,156,156,91,1,twofour,,,,,,,,,,,,,,,,,,,,,,,,,,,,,,,,,,,,,,,,,,,,,,,,,,,,,,,,,,,,,,,,,,,,,,,,,,,,,,,,,,,,,,,,,,,,,,,,,,,,,,,,,,,,,,,,,,,,,,,,,,,,,,,,,,,,,,,,,,,,,,,,,,,,,,,,,,,,,
,,,,,,616c46321f72ce4cf4efc717,62c539a5ac5d8d31fb792f59,2022-07-06_09h29.03.144,Colour_Asymmetry_Pilot,2022.1.3,Win32,59.47778505,62c50e9c1127f2cd403a315f,0,157,157,100,1,threeone,,,,,,,,,,,,,,,,,,,,,,,,,,,,,,,,,,,,,,,,,,,,,,,,,,,,,,,,,,,,,,,,,,,,,,,,,,,,,,,,,,,,,,,,,,,,,,,,,,,,,,,,,,,,,,,,,,,,,,,,,,,,,,,,,,,,,,,,,,,,,,,,,,,,,,,,,,,,,
,,,,,,616c46321f72ce4cf4efc717,62c539a5ac5d8d31fb792f59,2022-07-06_09h29.03.144,Colour_Asymmetry_Pilot,2022.1.3,Win32,59.47778505,62c50e9c1127f2cd403a315f,0,158,158,52,1,threeone,,,,,,,,,,,,,,,,,,,,,,,,,,,,,,,,,,,,,,,,,,,,,,,,,,,,,,,,,,,,,,,,,,,,,,,,,,,,,,,,,,,,,,,,,,,,,,,,,,,,,,,,,,,,,,,,,,,,,,,,,,,,,,,,,,,,,,,,,,,,,,,,,,,,,,,,,,,,,
,,,,,,616c46321f72ce4cf4efc717,62c539a5ac5d8d31fb792f59,2022-07-06_09h29.03.144,Colour_Asymmetry_Pilot,2022.1.3,Win32,59.47778505,62c50e9c1127f2cd403a315f,0,159,159,140,1,threeone,,,,,,,,,,,,,,,,,,,,,,,,,,,,,,,,,,,,,,,,,,,,,,,,,,,,,,,,,,,,,,,,,,,,,,,,,,,,,,,,,,,,,,,,,,,,,,,,,,,,,,,,,,,,,,,,,,,,,,,,,,,,,,,,,,,,,,,,,,,,,,,,,,,,,,,,,,,,,
,,,,,,616c46321f72ce4cf4efc717,62c539a5ac5d8d31fb792f59,2022-07-06_09h29.03.144,Colour_Asymmetry_Pilot,2022.1.3,Win32,59.47778505,62c50e9c1127f2cd403a315f,0,160,160,7,1,fourthree,,,,,,,,,,,,,,,,,,,,,,,,,,,,,,,,,,,,,,,,,,,,,,,,,,,,,,,,,,,,,,,,,,,,,,,,,,,,,,,,,,,,,,,,,,,,,,,,,,,,,,,,,,,,,,,,,,,,,,,,,,,,,,,,,,,,,,,,,,,,,,,,,,,,,,,,,,,,,
,,,,,,616c46321f72ce4cf4efc717,62c539a5ac5d8d31fb792f59,2022-07-06_09h29.03.144,Colour_Asymmetry_Pilot,2022.1.3,Win32,59.47778505,62c50e9c1127f2cd403a315f,0,161,161,32,1,onetwo,,,,,,,,,,,,,,,,,,,,,,,,,,,,,,,,,,,,,,,,,,,,,,,,,,,,,,,,,,,,,,,,,,,,,,,,,,,,,,,,,,,,,,,,,,,,,,,,,,,,,,,,,,,,,,,,,,,,,,,,,,,,,,,,,,,,,,,,,,,,,,,,,,,,,,,,,,,,,
,,,,,,616c46321f72ce4cf4efc717,62c539a5ac5d8d31fb792f59,2022-07-06_09h29.03.144,Colour_Asymmetry_Pilot,2022.1.3,Win32,59.47778505,62c50e9c1127f2cd403a315f,,,,,,,space,5.763,space,12.2984,space,130.9429,space,22.9642,space,6.9522,space,5.7704,"[-0.2942,-0.7648,-0.7492000000000001]",twofour,"[-0.4902000000000001,0.2704,-0.45899999999999996]",-1,14.134,-52,-97,1,0,0,response5disk_5,-4,0,1,0,0,rectangle_8,40,86,1,0,0,response1disk_7,7,4,-8,-4,1,0,0,rectangle_4,0,0,0,0,1,,,,,,,,,,,,,,,,,,,,,,,,,,,,,,,,,,,,,,,,,,,,,,,,,,,,,,,,,,,,,,,,,,,,,,,,,,,,,,,,,,,,,,,,,,,,,,,,,,,,,,,,,,,,,
,,,,,,616c46321f72ce4cf4efc717,62c539a5ac5d8d31fb792f59,2022-07-06_09h29.03.144,Colour_Asymmetry_Pilot,2022.1.3,Win32,59.47778505,62c50e9c1127f2cd403a315f,,,,,,,,,,,,,,,,,,,"[0.7802,-0.23140000000000005,-0.20799999999999996]",onetwo,"[-0.8198,-0.5138,-0.7492000000000001]",-1,4.3773,-32,-96,1,0,0,response5disk_5,-8,3,1,0,0,rectangle_8,-8,3,1,0,0,,,4,-8,3,1,0,0,,1,0,1,0,1,,,,,,,,,,,,,,,,,,,,,,,,,,,,,,,,,,,,,,,,,,,,,,,,,,,,,,,,,,,,,,,,,,,,,,,,,,,,,,,,,,,,,,,,,,,,,,,,,,,,,,,,,,,,,
,,,,,,616c46321f72ce4cf4efc717,62c539a5ac5d8d31fb792f59,2022-07-06_09h29.03.144,Colour_Asymmetry_Pilot,2022.1.3,Win32,59.47778505,62c50e9c1127f2cd403a315f,,,,,,,,,,,,,,,,,,,"[0.3881999999999999,-0.23939999999999995,-0.05040000000000011]",fourtwo,"[-0.5922000000000001,-0.7492000000000001,-0.5296000000000001]",-3,9.1218,-77,33,1,0,0,response7disk_5,5,3,1,0,0,rectangle_8,5,3,1,0,0,,,4,5,3,1,0,0,,2,0,2,0,1,,,,,,,,,,,,,,,,,,,,,,,,,,,,,,,,,,,,,,,,,,,,,,,,,,,,,,,,,,,,,,,,,,,,,,,,,,,,,,,,,,,,,,,,,,,,,,,,,,,,,,,,,,,,,
,,,,,,616c46321f72ce4cf4efc717,62c539a5ac5d8d31fb792f59,2022-07-06_09h29.03.144,Colour_Asymmetry_Pilot,2022.1.3,Win32,59.47778505,62c50e9c1127f2cd403a315f,,,,,,,,,,,,,,,,,,,"[0.2862,0.7802,0.3568]",onethree,"[0.9372,0.20779999999999998,0.2704]",-1,3.1745,-37,-85,1,0,0,response5disk_5,-8,-3,1,0,0,rectangle_8,-8,-3,1,0,0,,,4,-8,-3,1,0,0,,3,0,3,0,1,,,,,,,,,,,,,,,,,,,,,,,,,,,,,,,,,,,,,,,,,,,,,,,,,,,,,,,,,,,,,,,,,,,,,,,,,,,,,,,,,,,,,,,,,,,,,,,,,,,,,,,,,,,,,
,,,,,,616c46321f72ce4cf4efc717,62c539a5ac5d8d31fb792f59,2022-07-06_09h29.03.144,Colour_Asymmetry_Pilot,2022.1.3,Win32,59.47778505,62c50e9c1127f2cd403a315f,,,,,,,,,,,,,,,,,,,"[-0.4668,-0.8746,-0.2942]",threefour,"[-0.01980000000000004,-0.5138,-0.38039999999999996]",2,9.7986,83,-34,1,0,0,response3disk_5,-8,6,1,0,0,rectangle_8,-8,6,1,0,0,,,4,-8,6,1,0,0,,4,0,4,0,1,,,,,,,,,,,,,,,,,,,,,,,,,,,,,,,,,,,,,,,,,,,,,,,,,,,,,,,,,,,,,,,,,,,,,,,,,,,,,,,,,,,,,,,,,,,,,,,,,,,,,,,,,,,,,
,,,,,,616c46321f72ce4cf4efc717,62c539a5ac5d8d31fb792f59,2022-07-06_09h29.03.144,Colour_Asymmetry_Pilot,2022.1.3,Win32,59.47778505,62c50e9c1127f2cd403a315f,,,,,,,,,,,,,,,,,,,"[-0.4276,0.0038000000000000256,-0.3256]",twofour,"[0.23120000000000007,-0.7726,-0.34120000000000006]",-1,2.2945,-56,-101,1,0,0,response5disk_5,4,0,1,0,0,rectangle_8,47,98,1,0,0,response1disk_7,7,4,4,13,1,0,0,rectangle_4,5,0,5,0,1,,,,,,,,,,,,,,,,,,,,,,,,,,,,,,,,,,,,,,,,,,,,,,,,,,,,,,,,,,,,,,,,,,,,,,,,,,,,,,,,,,,,,,,,,,,,,,,,,,,,,,,,,,,,,
,,,,,,616c46321f72ce4cf4efc717,62c539a5ac5d8d31fb792f59,2022-07-06_09h29.03.144,Colour_Asymmetry_Pilot,2022.1.3,Win32,59.47778505,62c50e9c1127f2cd403a315f,,,,,,,,,,,,,,,,,,,"[-0.45899999999999996,-0.3256,-0.9374]",onethree,"[0.09799999999999986,-0.24719999999999998,0.15280000000000005]",-4,1.6982,-37,75,1,0,0,response7disk_5,-5,-3,1,0,0,rectangle_8,-5,-3,1,0,0,,,4,-5,-3,1,0,0,,6,0,6,0,1,,,,,,,,,,,,,,,,,,,,,,,,,,,,,,,,,,,,,,,,,,,,,,,,,,,,,,,,,,,,,,,,,,,,,,,,,,,,,,,,,,,,,,,,,,,,,,,,,,,,,,,,,,,,,
,,,,,,616c46321f72ce4cf4efc717,62c539a5ac5d8d31fb792f59,2022-07-06_09h29.03.144,Colour_Asymmetry_Pilot,2022.1.3,Win32,59.47778505,62c50e9c1127f2cd403a315f,,,,,,,,,,,,,,,,,,,,fourtwo,,-3,3.7929,,,,,,,,,,,,,,,,,,,,,,,,,,,,,,,,space,3.9843,"[-0.20799999999999996,-0.655,-0.01980000000000004]","[-0.0040000000000000036,0.02739999999999987,-0.08239999999999992]",-94,36,1,0,0,response7disk,3,3,1,0,0,rectangle,3,3,1,0,0,,2,0.0019,0,3,3,1,0,0,0,0,0,106,1,25,second,,,,,,,,,,,,,,,,,,,,,,,,,,,,,,,,,,,,,,,,,,,,,,,,,,,,,,,,,,,,,,,,,,,,,,,,
,,,,,,616c46321f72ce4cf4efc717,62c539a5ac5d8d31fb792f59,2022-07-06_09h29.03.144,Colour_Asymmetry_Pilot,2022.1.3,Win32,59.47778505,62c50e9c1127f2cd403a315f,,,,,,,,,,,,,,,,,,,,twoone,,-2,2.8689,,,,,,,,,,,,,,,,,,,,,,,,,,,,,,,,,,"[0.12939999999999996,-0.2864,0.3253999999999999]","[-0.9138,-0.5296000000000001,-0.5529999999999999]",-89,-44,1,0,0,response5disk,-1,-2,1,0,0,rectangle,-1,-2,1,0,0,,3,0.0018,0,-1,-2,1,0,0,0,1,1,155,1,74,second,,,,,,,,,,,,,,,,,,,,,,,,,,,,,,,,,,,,,,,,,,,,,,,,,,,,,,,,,,,,,,,,,,,,,,,,
,,,,,,616c46321f72ce4cf4efc717,62c539a5ac5d8d31fb792f59,2022-07-06_09h29.03.144,Colour_Asymmetry_Pilot,2022.1.3,Win32,59.47778505,62c50e9c1127f2cd403a315f,,,,,,,,,,,,,,,,,,,,onethree,,1,5.7847,,,,,,,,,,,,,,,,,,,,,,,,,,,,,,,,,,"[-0.4982,-0.2942,-0.0354000000000001]","[0.05879999999999996,0.2784,0.5841999999999998]",47,-81,1,0,0,response3disk,-21,5,1,0,0,rectangle,-21,5,1,0,0,,2,0.001,0,-21,5,1,0,0,0,2,2,12,1,12,first,,,,,,,,,,,,,,,,,,,,,,,,,,,,,,,,,,,,,,,,,,,,,,,,,,,,,,,,,,,,,,,,,,,,,,,,
,,,,,,616c46321f72ce4cf4efc717,62c539a5ac5d8d31fb792f59,2022-07-06_09h29.03.144,Colour_Asymmetry_Pilot,2022.1.3,Win32,59.47778505,62c50e9c1127f2cd403a315f,,,,,,,,,,,,,,,,,,,,twofour,,-1,6.0656,,,,,,,,,,,,,,,,,,,,,,,,,,,,,,,,,,"[-0.26280000000000003,-0.2158,-0.3256]","[-0.8118,-0.8198,-0.5452]",-40,-98,1,0,0,response5disk,4,1,1,0,0,rectangle,4,1,1,0,0,,1,0.0009,0,4,1,1,0,0,0,3,3,110,1,29,second,,,,,,,,,,,,,,,,,,,,,,,,,,,,,,,,,,,,,,,,,,,,,,,,,,,,,,,,,,,,,,,,,,,,,,,,
,,,,,,616c46321f72ce4cf4efc717,62c539a5ac5d8d31fb792f59,2022-07-06_09h29.03.144,Colour_Asymmetry_Pilot,2022.1.3,Win32,59.47778505,62c50e9c1127f2cd403a315f,,,,,,,,,,,,,,,,,,,,twofour,,-1,3.7148,,,,,,,,,,,,,,,,,,,,,,,,,,,,,,,,,,"[0.40379999999999994,0.09000000000000008,0.44300000000000006]","[-0.050999999999999934,-0.6706000000000001,-0.804]",-41,-96,1,0,0,response5disk,0,-6,1,0,0,rectangle,0,-6,1,0,0,,1,0.0004,0,0,-6,1,0,0,0,4,4,96,1,15,second,,,,,,,,,,,,,,,,,,,,,,,,,,,,,,,,,,,,,,,,,,,,,,,,,,,,,,,,,,,,,,,,,,,,,,,,
,,,,,,616c46321f72ce4cf4efc717,62c539a5ac5d8d31fb792f59,2022-07-06_09h29.03.144,Colour_Asymmetry_Pilot,2022.1.3,Win32,59.47778505,62c50e9c1127f2cd403a315f,,,,,,,,,,,,,,,,,,,,threeone,,-3,9.3324,,,,,,,,,,,,,,,,,,,,,,,,,,,,,,,,,,"[0.9763999999999999,0.30979999999999985,-0.6786]","[0.9372,0.9450000000000001,0.8980000000000001]",-71,38,1,0,0,response7disk,1,0,1,0,0,rectangle,1,0,1,0,0,,2,0.0015,0,1,0,1,0,0,0,5,5,45,1,45,first,,,,,,,,,,,,,,,,,,,,,,,,,,,,,,,,,,,,,,,,,,,,,,,,,,,,,,,,,,,,,,,,,,,,,,,,
,,,,,,616c46321f72ce4cf4efc717,62c539a5ac5d8d31fb792f59,2022-07-06_09h29.03.144,Colour_Asymmetry_Pilot,2022.1.3,Win32,59.47778505,62c50e9c1127f2cd403a315f,,,,,,,,,,,,,,,,,,,,threefour,,-4,2.4822,,,,,,,,,,,,,,,,,,,,,,,,,,,,,,,,,,"[-0.6235999999999999,-0.6786,-0.08239999999999992]","[-0.17659999999999998,-0.2864,-0.8354]",-49,85,1,0,0,response7disk,-10,6,1,0,0,rectangle,-10,6,1,0,0,,2,0.0003,0,-10,6,1,0,0,0,6,6,24,1,24,first,,,,,,,,,,,,,,,,,,,,,,,,,,,,,,,,,,,,,,,,,,,,,,,,,,,,,,,,,,,,,,,,,,,,,,,,
,,,,,,616c46321f72ce4cf4efc717,62c539a5ac5d8d31fb792f59,2022-07-06_09h29.03.144,Colour_Asymmetry_Pilot,2022.1.3,Win32,59.47778505,62c50e9c1127f2cd403a315f,,,,,,,,,,,,,,,,,,,,twofour,,-3,1.523,,,,,,,,,,,,,,,,,,,,,,,,,,,,,,,,,,"[-0.4746,-0.0354000000000001,0.5449999999999999]","[0.7018,0.7176,0.6155999999999999]",-87,43,1,0,0,response7disk,-7,-4,1,0,0,rectangle,47,-96,1,0,0,1,1,5.6942,1,-7,2,1,0,0,0,7,7,76,1,76,first,response3disk_3,rectangle,,,,,,,,,,,,,,,,,,,,,,,,,,,,,,,,,,,,,,,,,,,,,,,,,,,,,,,,,,,,,,,,,,,,,,
,,,,,,616c46321f72ce4cf4efc717,62c539a5ac5d8d31fb792f59,2022-07-06_09h29.03.144,Colour_Asymmetry_Pilot,2022.1.3,Win32,59.47778505,62c50e9c1127f2cd403a315f,,,,,,,,,,,,,,,,,,,,onetwo,,-3,2.8646,,,,,,,,,,,,,,,,,,,,,,,,,,,,,,,,,,"[-0.4668,-0.8746,-0.2942]","[0.3568,-0.20799999999999996,-0.9844]",-74,36,1,0,0,response7disk,3,1,1,0,0,rectangle,3,1,1,0,0,1,2,0.001,0,3,1,1,0,0,0,8,8,58,1,58,first,,,,,,,,,,,,,,,,,,,,,,,,,,,,,,,,,,,,,,,,,,,,,,,,,,,,,,,,,,,,,,,,,,,,,,,,
,,,,,,616c46321f72ce4cf4efc717,62c539a5ac5d8d31fb792f59,2022-07-06_09h29.03.144,Colour_Asymmetry_Pilot,2022.1.3,Win32,59.47778505,62c50e9c1127f2cd403a315f,,,,,,,,,,,,,,,,,,,,threefour,,-3,5.2899,,,,,,,,,,,,,,,,,,,,,,,,,,,,,,,,,,"[-0.7412000000000001,-0.08239999999999992,-0.6864]","[0.23920000000000008,0.2704,0.16060000000000008]",-79,36,1,0,0,response7disk,5,-1,1,0,0,rectangle,5,-1,1,0,0,1,2,0.0003,0,5,-1,1,0,0,0,9,9,128,1,47,second,,,,,,,,,,,,,,,,,,,,,,,,,,,,,,,,,,,,,,,,,,,,,,,,,,,,,,,,,,,,,,,,,,,,,,,,
,,,,,,616c46321f72ce4cf4efc717,62c539a5ac5d8d31fb792f59,2022-07-06_09h29.03.144,Colour_Asymmetry_Pilot,2022.1.3,Win32,59.47778505,62c50e9c1127f2cd403a315f,,,,,,,,,,,,,,,,,,,,onetwo,,2,4.6849,,,,,,,,,,,,,,,,,,,,,,,,,,,,,,,,,,"[-0.4668,-0.8746,-0.2942]","[0.09799999999999986,-0.24719999999999998,0.15280000000000005]",83,-45,1,0,0,response3disk,10,10,1,0,0,rectangle,10,10,1,0,0,1,3,0.0011,0,10,10,1,0,0,0,10,10,100,1,19,second,,,,,,,,,,,,,,,,,,,,,,,,,,,,,,,,,,,,,,,,,,,,,,,,,,,,,,,,,,,,,,,,,,,,,,,,
,,,,,,616c46321f72ce4cf4efc717,62c539a5ac5d8d31fb792f59,2022-07-06_09h29.03.144,Colour_Asymmetry_Pilot,2022.1.3,Win32,59.47778505,62c50e9c1127f2cd403a315f,,,,,,,,,,,,,,,,,,,,twofour,,-2,1.462,,,,,,,,,,,,,,,,,,,,,,,,,,,,,,,,,,"[-0.6942,-0.7648,-0.12959999999999994]","[0.7018,0.7176,0.6155999999999999]",-86,-31,1,0,0,response5disk,4,5,1,0,0,rectangle,4,5,1,0,0,1,2,0.0009,0,4,5,1,0,0,0,11,11,123,1,42,second,,,,,,,,,,,,,,,,,,,,,,,,,,,,,,,,,,,,,,,,,,,,,,,,,,,,,,,,,,,,,,,,,,,,,,,,
,,,,,,616c46321f72ce4cf4efc717,62c539a5ac5d8d31fb792f59,2022-07-06_09h29.03.144,Colour_Asymmetry_Pilot,2022.1.3,Win32,59.47778505,62c50e9c1127f2cd403a315f,,,,,,,,,,,,,,,,,,,,onetwo,,-4,1.4103,,,,,,,,,,,,,,,,,,,,,,,,,,,,,,,,,,"[0.9372,0.20779999999999998,0.2704]","[-0.17659999999999998,-0.2864,-0.8354]",-42,77,1,0,0,response7disk,14,-4,1,0,0,rectangle,14,-4,1,0,0,1,3,0.0009,0,14,-4,1,0,0,0,12,12,20,1,20,first,,,,,,,,,,,,,,,,,,,,,,,,,,,,,,,,,,,,,,,,,,,,,,,,,,,,,,,,,,,,,,,,,,,,,,,,
,,,,,,616c46321f72ce4cf4efc717,62c539a5ac5d8d31fb792f59,2022-07-06_09h29.03.144,Colour_Asymmetry_Pilot,2022.1.3,Win32,59.47778505,62c50e9c1127f2cd403a315f,,,,,,,,,,,,,,,,,,,,threefour,,2,3.2742,,,,,,,,,,,,,,,,,,,,,,,,,,,,,,,,,,"[0.2784,-0.31000000000000005,-0.5452]","[-0.050999999999999934,-0.6706000000000001,-0.804]",82,-44,1,0,0,response3disk,12,-3,1,0,0,rectangle,12,-3,1,0,0,1,2,0.0008,0,12,-3,1,0,0,0,13,13,86,1,5,second,,,,,,,,,,,,,,,,,,,,,,,,,,,,,,,,,,,,,,,,,,,,,,,,,,,,,,,,,,,,,,,,,,,,,,,,
,,,,,,616c46321f72ce4cf4efc717,62c539a5ac5d8d31fb792f59,2022-07-06_09h29.03.144,Colour_Asymmetry_Pilot,2022.1.3,Win32,59.47778505,62c50e9c1127f2cd403a315f,,,,,,,,,,,,,,,,,,,,twofour,,-4,1.1658,,,,,,,,,,,,,,,,,,,,,,,,,,,,,,,,,,"[0.9372,0.20779999999999998,0.2704]","[-0.6942,-0.7648,-0.12959999999999994]",-57,100,1,0,0,response7disk,-4,-4,1,0,0,rectangle,-4,-4,1,0,0,1,1,0.0008,0,-4,-4,1,0,0,0,14,14,111,1,30,second,,,,,,,,,,,,,,,,,,,,,,,,,,,,,,,,,,,,,,,,,,,,,,,,,,,,,,,,,,,,,,,,,,,,,,,,
,,,,,,616c46321f72ce4cf4efc717,62c539a5ac5d8d31fb792f59,2022-07-06_09h29.03.144,Colour_Asymmetry_Pilot,2022.1.3,Win32,59.47778505,62c50e9c1127f2cd403a315f,,,,,,,,,,,,,,,,,,,,fourtwo,,1,1.2443,,,,,,,,,,,,,,,,,,,,,,,,,,,,,,,,,,"[-0.10599999999999998,-0.10599999999999998,0.5841999999999998]","[-0.17659999999999998,0.3253999999999999,0.19999999999999996]",28,-86,1,0,0,response3disk,-6,-7,1,0,0,rectangle,-6,-7,1,0,0,1,1,0.0001,0,-6,-7,1,0,0,0,15,15,1,1,1,first,,,,,,,,,,,,,,,,,,,,,,,,,,,,,,,,,,,,,,,,,,,,,,,,,,,,,,,,,,,,,,,,,,,,,,,,
,,,,,,616c46321f72ce4cf4efc717,62c539a5ac5d8d31fb792f59,2022-07-06_09h29.03.144,Colour_Asymmetry_Pilot,2022.1.3,Win32,59.47778505,62c50e9c1127f2cd403a315f,,,,,,,,,,,,,,,,,,,,twoone,,-3,3.509,,,,,,,,,,,,,,,,,,,,,,,,,,,,,,,,,,"[0.23920000000000008,0.2704,0.16060000000000008]","[-0.7412000000000001,-0.08239999999999992,-0.6864]",-88,42,1,0,0,response7disk,-15,4,1,0,0,rectangle,-15,4,1,0,0,1,2,0.0011,0,-15,4,1,0,0,0,16,16,47,1,47,first,,,,,,,,,,,,,,,,,,,,,,,,,,,,,,,,,,,,,,,,,,,,,,,,,,,,,,,,,,,,,,,,,,,,,,,,
,,,,,,616c46321f72ce4cf4efc717,62c539a5ac5d8d31fb792f59,2022-07-06_09h29.03.144,Colour_Asymmetry_Pilot,2022.1.3,Win32,59.47778505,62c50e9c1127f2cd403a315f,,,,,,,,,,,,,,,,,,,,fourtwo,,-4,1.2096,,,,,,,,,,,,,,,,,,,,,,,,,,,,,,,,,,"[-0.6942,-0.7648,-0.12959999999999994]","[0.796,0.2156,-0.27859999999999996]",-50,86,1,0,0,response7disk,-3,7,1,0,0,rectangle,-3,7,1,0,0,1,3,0.0008,0,-3,7,1,0,0,0,17,17,140,1,59,second,,,,,,,,,,,,,,,,,,,,,,,,,,,,,,,,,,,,,,,,,,,,,,,,,,,,,,,,,,,,,,,,,,,,,,,,
