trials.thisRepN,trials.thisTrialN,trials.thisN,trials.thisIndex,trials.ran,Colourcodes,participant,session,date,expName,psychopyVersion,OS,frameRate,study_id,trials_4.thisRepN,trials_4.thisTrialN,trials_4.thisN,trials_4.thisIndex,trials_4.ran,StimulusPos,key_resp.keys,key_resp.rt,key_resp_2.keys,key_resp_2.rt,key_resp_15.keys,key_resp_15.rt,key_resp_17.keys,key_resp_17.rt,key_resp_9.keys,key_resp_9.rt,key_resp_10.keys,key_resp_10.rt,Circle1_col,Ecc,Circle2_col,similarity,response_time,mouse_5.x,mouse_5.y,mouse_5.leftButton,mouse_5.midButton,mouse_5.rightButton,mouse_5.clicked_name,mouse_10.x,mouse_10.y,mouse_10.leftButton,mouse_10.midButton,mouse_10.rightButton,mouse_10.clicked_name,mouse_7.x,mouse_7.y,mouse_7.leftButton,mouse_7.midButton,mouse_7.rightButton,catchnumberprac,mouse_6.x,mouse_6.y,mouse_6.leftButton,mouse_6.midButton,mouse_6.rightButton,duringprac.thisRepN,duringprac.thisTrialN,duringprac.thisN,duringprac.thisIndex,duringprac.ran,mouse_7.clicked_name,catchprac,mouse_6.clicked_name,key_resp_22.keys,key_resp_22.rt,Circle1_colour,Circle2_colour,mouse.x,mouse.y,mouse.leftButton,mouse.midButton,mouse.rightButton,mouse.clicked_name,mouse_2.x,mouse_2.y,mouse_2.leftButton,mouse_2.midButton,mouse_2.rightButton,mouse_2.clicked_name,mouse_3.x,mouse_3.y,mouse_3.leftButton,mouse_3.midButton,mouse_3.rightButton,catchresponse,catchnumber,response_time_catch,Catch,mouse_11.x,mouse_11.y,mouse_11.leftButton,mouse_11.midButton,mouse_11.rightButton,trials_2.thisRepN,trials_2.thisTrialN,trials_2.thisN,trials_2.thisIndex,trials_2.ran,Colourpair,Temporder,mouse_3.clicked_name,mouse_11.clicked_name,trials_3.thisRepN,trials_3.thisTrialN,trials_3.thisN,trials_3.thisIndex,trials_3.ran,key_resp_instr_Ishi.keys,key_resp_instr_Ishi.rt,Ishi_trial_keyresp.keys,Ishi_trial_keyresp.rt,Ishi_textbox.text,Ishi_mouse.x,Ishi_mouse.y,Ishi_mouse.leftButton,Ishi_mouse.midButton,Ishi_mouse.rightButton,Ishi_loop.thisRepN,Ishi_loop.thisTrialN,Ishi_loop.thisN,Ishi_loop.thisIndex,Ishi_loop.ran,imageaddress,textbox.text,mouse_4.x,mouse_4.y,mouse_4.leftButton,mouse_4.midButton,mouse_4.rightButton,mouse_4.clicked_name,textbox_2.text,mouse_8.x,mouse_8.y,mouse_8.leftButton,mouse_8.midButton,mouse_8.rightButton,mouse_8.clicked_name,textbox_3.text,mouse_9.x,mouse_9.y,mouse_9.leftButton,mouse_9.midButton,mouse_9.rightButton,mouse_9.clicked_name,textbox_4.text,mouse_12.x,mouse_12.y,mouse_12.leftButton,mouse_12.midButton,mouse_12.rightButton,mouse_12.clicked_name,textbox_5.text,mouse_13.x,mouse_13.y,mouse_13.leftButton,mouse_13.midButton,mouse_13.rightButton,mouse_13.clicked_name,textbox_6.text,mouse_14.x,mouse_14.y,mouse_14.leftButton,mouse_14.midButton,mouse_14.rightButton,mouse_14.clicked_name,textbox_7.text,mouse_15.x,mouse_15.y,mouse_15.leftButton,mouse_15.midButton,mouse_15.rightButton,mouse_15.clicked_name
0,0,0,16,1,,610646ad915f5d7bac572e30,62c538cdac5d8d31fb792f3d,2022-07-06_10h25.27.219,Colour_Asymmetry_Pilot,2022.1.3,MacIntel,59.84082341,62c50e9c1127f2cd403a315f,,,,,,,,,,,,,,,,,,,,,,,,,,,,,,,,,,,,,,,,,,,,,,,,,,,,,,,,,,,,,,,,,,,,,,,,,,,,,,,,,,,,,,,,,,,,,,,,,,,,,,,,,,,,,,,,,,,,,,,,,,,,,,,,,,,,,,,,,,,,,,,,,,,,,,,,,,,,,,,,,,,
0,1,1,5,1,,610646ad915f5d7bac572e30,62c538cdac5d8d31fb792f3d,2022-07-06_10h25.27.219,Colour_Asymmetry_Pilot,2022.1.3,MacIntel,59.84082341,62c50e9c1127f2cd403a315f,,,,,,,,,,,,,,,,,,,,,,,,,,,,,,,,,,,,,,,,,,,,,,,,,,,,,,,,,,,,,,,,,,,,,,,,,,,,,,,,,,,,,,,,,,,,,,,,,,,,,,,,,,,,,,,,,,,,,,,,,,,,,,,,,,,,,,,,,,,,,,,,,,,,,,,,,,,,,,,,,,,
0,2,2,54,1,,610646ad915f5d7bac572e30,62c538cdac5d8d31fb792f3d,2022-07-06_10h25.27.219,Colour_Asymmetry_Pilot,2022.1.3,MacIntel,59.84082341,62c50e9c1127f2cd403a315f,,,,,,,,,,,,,,,,,,,,,,,,,,,,,,,,,,,,,,,,,,,,,,,,,,,,,,,,,,,,,,,,,,,,,,,,,,,,,,,,,,,,,,,,,,,,,,,,,,,,,,,,,,,,,,,,,,,,,,,,,,,,,,,,,,,,,,,,,,,,,,,,,,,,,,,,,,,,,,,,,,,
0,3,3,10,1,,610646ad915f5d7bac572e30,62c538cdac5d8d31fb792f3d,2022-07-06_10h25.27.219,Colour_Asymmetry_Pilot,2022.1.3,MacIntel,59.84082341,62c50e9c1127f2cd403a315f,,,,,,,,,,,,,,,,,,,,,,,,,,,,,,,,,,,,,,,,,,,,,,,,,,,,,,,,,,,,,,,,,,,,,,,,,,,,,,,,,,,,,,,,,,,,,,,,,,,,,,,,,,,,,,,,,,,,,,,,,,,,,,,,,,,,,,,,,,,,,,,,,,,,,,,,,,,,,,,,,,,
0,4,4,47,1,,610646ad915f5d7bac572e30,62c538cdac5d8d31fb792f3d,2022-07-06_10h25.27.219,Colour_Asymmetry_Pilot,2022.1.3,MacIntel,59.84082341,62c50e9c1127f2cd403a315f,,,,,,,,,,,,,,,,,,,,,,,,,,,,,,,,,,,,,,,,,,,,,,,,,,,,,,,,,,,,,,,,,,,,,,,,,,,,,,,,,,,,,,,,,,,,,,,,,,,,,,,,,,,,,,,,,,,,,,,,,,,,,,,,,,,,,,,,,,,,,,,,,,,,,,,,,,,,,,,,,,,
0,5,5,11,1,,610646ad915f5d7bac572e30,62c538cdac5d8d31fb792f3d,2022-07-06_10h25.27.219,Colour_Asymmetry_Pilot,2022.1.3,MacIntel,59.84082341,62c50e9c1127f2cd403a315f,,,,,,,,,,,,,,,,,,,,,,,,,,,,,,,,,,,,,,,,,,,,,,,,,,,,,,,,,,,,,,,,,,,,,,,,,,,,,,,,,,,,,,,,,,,,,,,,,,,,,,,,,,,,,,,,,,,,,,,,,,,,,,,,,,,,,,,,,,,,,,,,,,,,,,,,,,,,,,,,,,,
0,6,6,8,1,,610646ad915f5d7bac572e30,62c538cdac5d8d31fb792f3d,2022-07-06_10h25.27.219,Colour_Asymmetry_Pilot,2022.1.3,MacIntel,59.84082341,62c50e9c1127f2cd403a315f,,,,,,,,,,,,,,,,,,,,,,,,,,,,,,,,,,,,,,,,,,,,,,,,,,,,,,,,,,,,,,,,,,,,,,,,,,,,,,,,,,,,,,,,,,,,,,,,,,,,,,,,,,,,,,,,,,,,,,,,,,,,,,,,,,,,,,,,,,,,,,,,,,,,,,,,,,,,,,,,,,,
0,7,7,51,1,,610646ad915f5d7bac572e30,62c538cdac5d8d31fb792f3d,2022-07-06_10h25.27.219,Colour_Asymmetry_Pilot,2022.1.3,MacIntel,59.84082341,62c50e9c1127f2cd403a315f,,,,,,,,,,,,,,,,,,,,,,,,,,,,,,,,,,,,,,,,,,,,,,,,,,,,,,,,,,,,,,,,,,,,,,,,,,,,,,,,,,,,,,,,,,,,,,,,,,,,,,,,,,,,,,,,,,,,,,,,,,,,,,,,,,,,,,,,,,,,,,,,,,,,,,,,,,,,,,,,,,,
0,8,8,64,1,,610646ad915f5d7bac572e30,62c538cdac5d8d31fb792f3d,2022-07-06_10h25.27.219,Colour_Asymmetry_Pilot,2022.1.3,MacIntel,59.84082341,62c50e9c1127f2cd403a315f,,,,,,,,,,,,,,,,,,,,,,,,,,,,,,,,,,,,,,,,,,,,,,,,,,,,,,,,,,,,,,,,,,,,,,,,,,,,,,,,,,,,,,,,,,,,,,,,,,,,,,,,,,,,,,,,,,,,,,,,,,,,,,,,,,,,,,,,,,,,,,,,,,,,,,,,,,,,,,,,,,,
0,9,9,85,1,,610646ad915f5d7bac572e30,62c538cdac5d8d31fb792f3d,2022-07-06_10h25.27.219,Colour_Asymmetry_Pilot,2022.1.3,MacIntel,59.84082341,62c50e9c1127f2cd403a315f,,,,,,,,,,,,,,,,,,,,,,,,,,,,,,,,,,,,,,,,,,,,,,,,,,,,,,,,,,,,,,,,,,,,,,,,,,,,,,,,,,,,,,,,,,,,,,,,,,,,,,,,,,,,,,,,,,,,,,,,,,,,,,,,,,,,,,,,,,,,,,,,,,,,,,,,,,,,,,,,,,,
0,10,10,70,1,,610646ad915f5d7bac572e30,62c538cdac5d8d31fb792f3d,2022-07-06_10h25.27.219,Colour_Asymmetry_Pilot,2022.1.3,MacIntel,59.84082341,62c50e9c1127f2cd403a315f,,,,,,,,,,,,,,,,,,,,,,,,,,,,,,,,,,,,,,,,,,,,,,,,,,,,,,,,,,,,,,,,,,,,,,,,,,,,,,,,,,,,,,,,,,,,,,,,,,,,,,,,,,,,,,,,,,,,,,,,,,,,,,,,,,,,,,,,,,,,,,,,,,,,,,,,,,,,,,,,,,,
0,11,11,1,1,,610646ad915f5d7bac572e30,62c538cdac5d8d31fb792f3d,2022-07-06_10h25.27.219,Colour_Asymmetry_Pilot,2022.1.3,MacIntel,59.84082341,62c50e9c1127f2cd403a315f,,,,,,,,,,,,,,,,,,,,,,,,,,,,,,,,,,,,,,,,,,,,,,,,,,,,,,,,,,,,,,,,,,,,,,,,,,,,,,,,,,,,,,,,,,,,,,,,,,,,,,,,,,,,,,,,,,,,,,,,,,,,,,,,,,,,,,,,,,,,,,,,,,,,,,,,,,,,,,,,,,,
0,12,12,81,1,,610646ad915f5d7bac572e30,62c538cdac5d8d31fb792f3d,2022-07-06_10h25.27.219,Colour_Asymmetry_Pilot,2022.1.3,MacIntel,59.84082341,62c50e9c1127f2cd403a315f,,,,,,,,,,,,,,,,,,,,,,,,,,,,,,,,,,,,,,,,,,,,,,,,,,,,,,,,,,,,,,,,,,,,,,,,,,,,,,,,,,,,,,,,,,,,,,,,,,,,,,,,,,,,,,,,,,,,,,,,,,,,,,,,,,,,,,,,,,,,,,,,,,,,,,,,,,,,,,,,,,,
0,13,13,37,1,,610646ad915f5d7bac572e30,62c538cdac5d8d31fb792f3d,2022-07-06_10h25.27.219,Colour_Asymmetry_Pilot,2022.1.3,MacIntel,59.84082341,62c50e9c1127f2cd403a315f,,,,,,,,,,,,,,,,,,,,,,,,,,,,,,,,,,,,,,,,,,,,,,,,,,,,,,,,,,,,,,,,,,,,,,,,,,,,,,,,,,,,,,,,,,,,,,,,,,,,,,,,,,,,,,,,,,,,,,,,,,,,,,,,,,,,,,,,,,,,,,,,,,,,,,,,,,,,,,,,,,,
0,14,14,60,1,,610646ad915f5d7bac572e30,62c538cdac5d8d31fb792f3d,2022-07-06_10h25.27.219,Colour_Asymmetry_Pilot,2022.1.3,MacIntel,59.84082341,62c50e9c1127f2cd403a315f,,,,,,,,,,,,,,,,,,,,,,,,,,,,,,,,,,,,,,,,,,,,,,,,,,,,,,,,,,,,,,,,,,,,,,,,,,,,,,,,,,,,,,,,,,,,,,,,,,,,,,,,,,,,,,,,,,,,,,,,,,,,,,,,,,,,,,,,,,,,,,,,,,,,,,,,,,,,,,,,,,,
0,15,15,30,1,,610646ad915f5d7bac572e30,62c538cdac5d8d31fb792f3d,2022-07-06_10h25.27.219,Colour_Asymmetry_Pilot,2022.1.3,MacIntel,59.84082341,62c50e9c1127f2cd403a315f,,,,,,,,,,,,,,,,,,,,,,,,,,,,,,,,,,,,,,,,,,,,,,,,,,,,,,,,,,,,,,,,,,,,,,,,,,,,,,,,,,,,,,,,,,,,,,,,,,,,,,,,,,,,,,,,,,,,,,,,,,,,,,,,,,,,,,,,,,,,,,,,,,,,,,,,,,,,,,,,,,,
0,16,16,41,1,,610646ad915f5d7bac572e30,62c538cdac5d8d31fb792f3d,2022-07-06_10h25.27.219,Colour_Asymmetry_Pilot,2022.1.3,MacIntel,59.84082341,62c50e9c1127f2cd403a315f,,,,,,,,,,,,,,,,,,,,,,,,,,,,,,,,,,,,,,,,,,,,,,,,,,,,,,,,,,,,,,,,,,,,,,,,,,,,,,,,,,,,,,,,,,,,,,,,,,,,,,,,,,,,,,,,,,,,,,,,,,,,,,,,,,,,,,,,,,,,,,,,,,,,,,,,,,,,,,,,,,,
0,17,17,52,1,,610646ad915f5d7bac572e30,62c538cdac5d8d31fb792f3d,2022-07-06_10h25.27.219,Colour_Asymmetry_Pilot,2022.1.3,MacIntel,59.84082341,62c50e9c1127f2cd403a315f,,,,,,,,,,,,,,,,,,,,,,,,,,,,,,,,,,,,,,,,,,,,,,,,,,,,,,,,,,,,,,,,,,,,,,,,,,,,,,,,,,,,,,,,,,,,,,,,,,,,,,,,,,,,,,,,,,,,,,,,,,,,,,,,,,,,,,,,,,,,,,,,,,,,,,,,,,,,,,,,,,,
0,18,18,29,1,,610646ad915f5d7bac572e30,62c538cdac5d8d31fb792f3d,2022-07-06_10h25.27.219,Colour_Asymmetry_Pilot,2022.1.3,MacIntel,59.84082341,62c50e9c1127f2cd403a315f,,,,,,,,,,,,,,,,,,,,,,,,,,,,,,,,,,,,,,,,,,,,,,,,,,,,,,,,,,,,,,,,,,,,,,,,,,,,,,,,,,,,,,,,,,,,,,,,,,,,,,,,,,,,,,,,,,,,,,,,,,,,,,,,,,,,,,,,,,,,,,,,,,,,,,,,,,,,,,,,,,,
0,19,19,35,1,,610646ad915f5d7bac572e30,62c538cdac5d8d31fb792f3d,2022-07-06_10h25.27.219,Colour_Asymmetry_Pilot,2022.1.3,MacIntel,59.84082341,62c50e9c1127f2cd403a315f,,,,,,,,,,,,,,,,,,,,,,,,,,,,,,,,,,,,,,,,,,,,,,,,,,,,,,,,,,,,,,,,,,,,,,,,,,,,,,,,,,,,,,,,,,,,,,,,,,,,,,,,,,,,,,,,,,,,,,,,,,,,,,,,,,,,,,,,,,,,,,,,,,,,,,,,,,,,,,,,,,,
0,20,20,79,1,,610646ad915f5d7bac572e30,62c538cdac5d8d31fb792f3d,2022-07-06_10h25.27.219,Colour_Asymmetry_Pilot,2022.1.3,MacIntel,59.84082341,62c50e9c1127f2cd403a315f,,,,,,,,,,,,,,,,,,,,,,,,,,,,,,,,,,,,,,,,,,,,,,,,,,,,,,,,,,,,,,,,,,,,,,,,,,,,,,,,,,,,,,,,,,,,,,,,,,,,,,,,,,,,,,,,,,,,,,,,,,,,,,,,,,,,,,,,,,,,,,,,,,,,,,,,,,,,,,,,,,,
0,21,21,34,1,,610646ad915f5d7bac572e30,62c538cdac5d8d31fb792f3d,2022-07-06_10h25.27.219,Colour_Asymmetry_Pilot,2022.1.3,MacIntel,59.84082341,62c50e9c1127f2cd403a315f,,,,,,,,,,,,,,,,,,,,,,,,,,,,,,,,,,,,,,,,,,,,,,,,,,,,,,,,,,,,,,,,,,,,,,,,,,,,,,,,,,,,,,,,,,,,,,,,,,,,,,,,,,,,,,,,,,,,,,,,,,,,,,,,,,,,,,,,,,,,,,,,,,,,,,,,,,,,,,,,,,,
0,22,22,26,1,,610646ad915f5d7bac572e30,62c538cdac5d8d31fb792f3d,2022-07-06_10h25.27.219,Colour_Asymmetry_Pilot,2022.1.3,MacIntel,59.84082341,62c50e9c1127f2cd403a315f,,,,,,,,,,,,,,,,,,,,,,,,,,,,,,,,,,,,,,,,,,,,,,,,,,,,,,,,,,,,,,,,,,,,,,,,,,,,,,,,,,,,,,,,,,,,,,,,,,,,,,,,,,,,,,,,,,,,,,,,,,,,,,,,,,,,,,,,,,,,,,,,,,,,,,,,,,,,,,,,,,,
0,23,23,76,1,,610646ad915f5d7bac572e30,62c538cdac5d8d31fb792f3d,2022-07-06_10h25.27.219,Colour_Asymmetry_Pilot,2022.1.3,MacIntel,59.84082341,62c50e9c1127f2cd403a315f,,,,,,,,,,,,,,,,,,,,,,,,,,,,,,,,,,,,,,,,,,,,,,,,,,,,,,,,,,,,,,,,,,,,,,,,,,,,,,,,,,,,,,,,,,,,,,,,,,,,,,,,,,,,,,,,,,,,,,,,,,,,,,,,,,,,,,,,,,,,,,,,,,,,,,,,,,,,,,,,,,,
0,24,24,0,1,,610646ad915f5d7bac572e30,62c538cdac5d8d31fb792f3d,2022-07-06_10h25.27.219,Colour_Asymmetry_Pilot,2022.1.3,MacIntel,59.84082341,62c50e9c1127f2cd403a315f,,,,,,,,,,,,,,,,,,,,,,,,,,,,,,,,,,,,,,,,,,,,,,,,,,,,,,,,,,,,,,,,,,,,,,,,,,,,,,,,,,,,,,,,,,,,,,,,,,,,,,,,,,,,,,,,,,,,,,,,,,,,,,,,,,,,,,,,,,,,,,,,,,,,,,,,,,,,,,,,,,,
0,25,25,92,1,,610646ad915f5d7bac572e30,62c538cdac5d8d31fb792f3d,2022-07-06_10h25.27.219,Colour_Asymmetry_Pilot,2022.1.3,MacIntel,59.84082341,62c50e9c1127f2cd403a315f,,,,,,,,,,,,,,,,,,,,,,,,,,,,,,,,,,,,,,,,,,,,,,,,,,,,,,,,,,,,,,,,,,,,,,,,,,,,,,,,,,,,,,,,,,,,,,,,,,,,,,,,,,,,,,,,,,,,,,,,,,,,,,,,,,,,,,,,,,,,,,,,,,,,,,,,,,,,,,,,,,,
0,26,26,18,1,,610646ad915f5d7bac572e30,62c538cdac5d8d31fb792f3d,2022-07-06_10h25.27.219,Colour_Asymmetry_Pilot,2022.1.3,MacIntel,59.84082341,62c50e9c1127f2cd403a315f,,,,,,,,,,,,,,,,,,,,,,,,,,,,,,,,,,,,,,,,,,,,,,,,,,,,,,,,,,,,,,,,,,,,,,,,,,,,,,,,,,,,,,,,,,,,,,,,,,,,,,,,,,,,,,,,,,,,,,,,,,,,,,,,,,,,,,,,,,,,,,,,,,,,,,,,,,,,,,,,,,,
0,27,27,53,1,,610646ad915f5d7bac572e30,62c538cdac5d8d31fb792f3d,2022-07-06_10h25.27.219,Colour_Asymmetry_Pilot,2022.1.3,MacIntel,59.84082341,62c50e9c1127f2cd403a315f,,,,,,,,,,,,,,,,,,,,,,,,,,,,,,,,,,,,,,,,,,,,,,,,,,,,,,,,,,,,,,,,,,,,,,,,,,,,,,,,,,,,,,,,,,,,,,,,,,,,,,,,,,,,,,,,,,,,,,,,,,,,,,,,,,,,,,,,,,,,,,,,,,,,,,,,,,,,,,,,,,,
0,28,28,63,1,,610646ad915f5d7bac572e30,62c538cdac5d8d31fb792f3d,2022-07-06_10h25.27.219,Colour_Asymmetry_Pilot,2022.1.3,MacIntel,59.84082341,62c50e9c1127f2cd403a315f,,,,,,,,,,,,,,,,,,,,,,,,,,,,,,,,,,,,,,,,,,,,,,,,,,,,,,,,,,,,,,,,,,,,,,,,,,,,,,,,,,,,,,,,,,,,,,,,,,,,,,,,,,,,,,,,,,,,,,,,,,,,,,,,,,,,,,,,,,,,,,,,,,,,,,,,,,,,,,,,,,,
0,29,29,9,1,,610646ad915f5d7bac572e30,62c538cdac5d8d31fb792f3d,2022-07-06_10h25.27.219,Colour_Asymmetry_Pilot,2022.1.3,MacIntel,59.84082341,62c50e9c1127f2cd403a315f,,,,,,,,,,,,,,,,,,,,,,,,,,,,,,,,,,,,,,,,,,,,,,,,,,,,,,,,,,,,,,,,,,,,,,,,,,,,,,,,,,,,,,,,,,,,,,,,,,,,,,,,,,,,,,,,,,,,,,,,,,,,,,,,,,,,,,,,,,,,,,,,,,,,,,,,,,,,,,,,,,,
0,30,30,87,1,,610646ad915f5d7bac572e30,62c538cdac5d8d31fb792f3d,2022-07-06_10h25.27.219,Colour_Asymmetry_Pilot,2022.1.3,MacIntel,59.84082341,62c50e9c1127f2cd403a315f,,,,,,,,,,,,,,,,,,,,,,,,,,,,,,,,,,,,,,,,,,,,,,,,,,,,,,,,,,,,,,,,,,,,,,,,,,,,,,,,,,,,,,,,,,,,,,,,,,,,,,,,,,,,,,,,,,,,,,,,,,,,,,,,,,,,,,,,,,,,,,,,,,,,,,,,,,,,,,,,,,,
0,31,31,71,1,,610646ad915f5d7bac572e30,62c538cdac5d8d31fb792f3d,2022-07-06_10h25.27.219,Colour_Asymmetry_Pilot,2022.1.3,MacIntel,59.84082341,62c50e9c1127f2cd403a315f,,,,,,,,,,,,,,,,,,,,,,,,,,,,,,,,,,,,,,,,,,,,,,,,,,,,,,,,,,,,,,,,,,,,,,,,,,,,,,,,,,,,,,,,,,,,,,,,,,,,,,,,,,,,,,,,,,,,,,,,,,,,,,,,,,,,,,,,,,,,,,,,,,,,,,,,,,,,,,,,,,,
0,32,32,17,1,,610646ad915f5d7bac572e30,62c538cdac5d8d31fb792f3d,2022-07-06_10h25.27.219,Colour_Asymmetry_Pilot,2022.1.3,MacIntel,59.84082341,62c50e9c1127f2cd403a315f,,,,,,,,,,,,,,,,,,,,,,,,,,,,,,,,,,,,,,,,,,,,,,,,,,,,,,,,,,,,,,,,,,,,,,,,,,,,,,,,,,,,,,,,,,,,,,,,,,,,,,,,,,,,,,,,,,,,,,,,,,,,,,,,,,,,,,,,,,,,,,,,,,,,,,,,,,,,,,,,,,,
0,33,33,62,1,,610646ad915f5d7bac572e30,62c538cdac5d8d31fb792f3d,2022-07-06_10h25.27.219,Colour_Asymmetry_Pilot,2022.1.3,MacIntel,59.84082341,62c50e9c1127f2cd403a315f,,,,,,,,,,,,,,,,,,,,,,,,,,,,,,,,,,,,,,,,,,,,,,,,,,,,,,,,,,,,,,,,,,,,,,,,,,,,,,,,,,,,,,,,,,,,,,,,,,,,,,,,,,,,,,,,,,,,,,,,,,,,,,,,,,,,,,,,,,,,,,,,,,,,,,,,,,,,,,,,,,,
0,34,34,22,1,,610646ad915f5d7bac572e30,62c538cdac5d8d31fb792f3d,2022-07-06_10h25.27.219,Colour_Asymmetry_Pilot,2022.1.3,MacIntel,59.84082341,62c50e9c1127f2cd403a315f,,,,,,,,,,,,,,,,,,,,,,,,,,,,,,,,,,,,,,,,,,,,,,,,,,,,,,,,,,,,,,,,,,,,,,,,,,,,,,,,,,,,,,,,,,,,,,,,,,,,,,,,,,,,,,,,,,,,,,,,,,,,,,,,,,,,,,,,,,,,,,,,,,,,,,,,,,,,,,,,,,,
0,35,35,66,1,,610646ad915f5d7bac572e30,62c538cdac5d8d31fb792f3d,2022-07-06_10h25.27.219,Colour_Asymmetry_Pilot,2022.1.3,MacIntel,59.84082341,62c50e9c1127f2cd403a315f,,,,,,,,,,,,,,,,,,,,,,,,,,,,,,,,,,,,,,,,,,,,,,,,,,,,,,,,,,,,,,,,,,,,,,,,,,,,,,,,,,,,,,,,,,,,,,,,,,,,,,,,,,,,,,,,,,,,,,,,,,,,,,,,,,,,,,,,,,,,,,,,,,,,,,,,,,,,,,,,,,,
0,36,36,32,1,,610646ad915f5d7bac572e30,62c538cdac5d8d31fb792f3d,2022-07-06_10h25.27.219,Colour_Asymmetry_Pilot,2022.1.3,MacIntel,59.84082341,62c50e9c1127f2cd403a315f,,,,,,,,,,,,,,,,,,,,,,,,,,,,,,,,,,,,,,,,,,,,,,,,,,,,,,,,,,,,,,,,,,,,,,,,,,,,,,,,,,,,,,,,,,,,,,,,,,,,,,,,,,,,,,,,,,,,,,,,,,,,,,,,,,,,,,,,,,,,,,,,,,,,,,,,,,,,,,,,,,,
0,37,37,39,1,,610646ad915f5d7bac572e30,62c538cdac5d8d31fb792f3d,2022-07-06_10h25.27.219,Colour_Asymmetry_Pilot,2022.1.3,MacIntel,59.84082341,62c50e9c1127f2cd403a315f,,,,,,,,,,,,,,,,,,,,,,,,,,,,,,,,,,,,,,,,,,,,,,,,,,,,,,,,,,,,,,,,,,,,,,,,,,,,,,,,,,,,,,,,,,,,,,,,,,,,,,,,,,,,,,,,,,,,,,,,,,,,,,,,,,,,,,,,,,,,,,,,,,,,,,,,,,,,,,,,,,,
0,38,38,13,1,,610646ad915f5d7bac572e30,62c538cdac5d8d31fb792f3d,2022-07-06_10h25.27.219,Colour_Asymmetry_Pilot,2022.1.3,MacIntel,59.84082341,62c50e9c1127f2cd403a315f,,,,,,,,,,,,,,,,,,,,,,,,,,,,,,,,,,,,,,,,,,,,,,,,,,,,,,,,,,,,,,,,,,,,,,,,,,,,,,,,,,,,,,,,,,,,,,,,,,,,,,,,,,,,,,,,,,,,,,,,,,,,,,,,,,,,,,,,,,,,,,,,,,,,,,,,,,,,,,,,,,,
0,39,39,44,1,,610646ad915f5d7bac572e30,62c538cdac5d8d31fb792f3d,2022-07-06_10h25.27.219,Colour_Asymmetry_Pilot,2022.1.3,MacIntel,59.84082341,62c50e9c1127f2cd403a315f,,,,,,,,,,,,,,,,,,,,,,,,,,,,,,,,,,,,,,,,,,,,,,,,,,,,,,,,,,,,,,,,,,,,,,,,,,,,,,,,,,,,,,,,,,,,,,,,,,,,,,,,,,,,,,,,,,,,,,,,,,,,,,,,,,,,,,,,,,,,,,,,,,,,,,,,,,,,,,,,,,,
0,40,40,19,1,,610646ad915f5d7bac572e30,62c538cdac5d8d31fb792f3d,2022-07-06_10h25.27.219,Colour_Asymmetry_Pilot,2022.1.3,MacIntel,59.84082341,62c50e9c1127f2cd403a315f,,,,,,,,,,,,,,,,,,,,,,,,,,,,,,,,,,,,,,,,,,,,,,,,,,,,,,,,,,,,,,,,,,,,,,,,,,,,,,,,,,,,,,,,,,,,,,,,,,,,,,,,,,,,,,,,,,,,,,,,,,,,,,,,,,,,,,,,,,,,,,,,,,,,,,,,,,,,,,,,,,,
0,41,41,88,1,,610646ad915f5d7bac572e30,62c538cdac5d8d31fb792f3d,2022-07-06_10h25.27.219,Colour_Asymmetry_Pilot,2022.1.3,MacIntel,59.84082341,62c50e9c1127f2cd403a315f,,,,,,,,,,,,,,,,,,,,,,,,,,,,,,,,,,,,,,,,,,,,,,,,,,,,,,,,,,,,,,,,,,,,,,,,,,,,,,,,,,,,,,,,,,,,,,,,,,,,,,,,,,,,,,,,,,,,,,,,,,,,,,,,,,,,,,,,,,,,,,,,,,,,,,,,,,,,,,,,,,,
0,42,42,73,1,,610646ad915f5d7bac572e30,62c538cdac5d8d31fb792f3d,2022-07-06_10h25.27.219,Colour_Asymmetry_Pilot,2022.1.3,MacIntel,59.84082341,62c50e9c1127f2cd403a315f,,,,,,,,,,,,,,,,,,,,,,,,,,,,,,,,,,,,,,,,,,,,,,,,,,,,,,,,,,,,,,,,,,,,,,,,,,,,,,,,,,,,,,,,,,,,,,,,,,,,,,,,,,,,,,,,,,,,,,,,,,,,,,,,,,,,,,,,,,,,,,,,,,,,,,,,,,,,,,,,,,,
0,43,43,6,1,,610646ad915f5d7bac572e30,62c538cdac5d8d31fb792f3d,2022-07-06_10h25.27.219,Colour_Asymmetry_Pilot,2022.1.3,MacIntel,59.84082341,62c50e9c1127f2cd403a315f,,,,,,,,,,,,,,,,,,,,,,,,,,,,,,,,,,,,,,,,,,,,,,,,,,,,,,,,,,,,,,,,,,,,,,,,,,,,,,,,,,,,,,,,,,,,,,,,,,,,,,,,,,,,,,,,,,,,,,,,,,,,,,,,,,,,,,,,,,,,,,,,,,,,,,,,,,,,,,,,,,,
0,44,44,14,1,,610646ad915f5d7bac572e30,62c538cdac5d8d31fb792f3d,2022-07-06_10h25.27.219,Colour_Asymmetry_Pilot,2022.1.3,MacIntel,59.84082341,62c50e9c1127f2cd403a315f,,,,,,,,,,,,,,,,,,,,,,,,,,,,,,,,,,,,,,,,,,,,,,,,,,,,,,,,,,,,,,,,,,,,,,,,,,,,,,,,,,,,,,,,,,,,,,,,,,,,,,,,,,,,,,,,,,,,,,,,,,,,,,,,,,,,,,,,,,,,,,,,,,,,,,,,,,,,,,,,,,,
0,45,45,55,1,,610646ad915f5d7bac572e30,62c538cdac5d8d31fb792f3d,2022-07-06_10h25.27.219,Colour_Asymmetry_Pilot,2022.1.3,MacIntel,59.84082341,62c50e9c1127f2cd403a315f,,,,,,,,,,,,,,,,,,,,,,,,,,,,,,,,,,,,,,,,,,,,,,,,,,,,,,,,,,,,,,,,,,,,,,,,,,,,,,,,,,,,,,,,,,,,,,,,,,,,,,,,,,,,,,,,,,,,,,,,,,,,,,,,,,,,,,,,,,,,,,,,,,,,,,,,,,,,,,,,,,,
0,46,46,21,1,,610646ad915f5d7bac572e30,62c538cdac5d8d31fb792f3d,2022-07-06_10h25.27.219,Colour_Asymmetry_Pilot,2022.1.3,MacIntel,59.84082341,62c50e9c1127f2cd403a315f,,,,,,,,,,,,,,,,,,,,,,,,,,,,,,,,,,,,,,,,,,,,,,,,,,,,,,,,,,,,,,,,,,,,,,,,,,,,,,,,,,,,,,,,,,,,,,,,,,,,,,,,,,,,,,,,,,,,,,,,,,,,,,,,,,,,,,,,,,,,,,,,,,,,,,,,,,,,,,,,,,,
0,47,47,49,1,,610646ad915f5d7bac572e30,62c538cdac5d8d31fb792f3d,2022-07-06_10h25.27.219,Colour_Asymmetry_Pilot,2022.1.3,MacIntel,59.84082341,62c50e9c1127f2cd403a315f,,,,,,,,,,,,,,,,,,,,,,,,,,,,,,,,,,,,,,,,,,,,,,,,,,,,,,,,,,,,,,,,,,,,,,,,,,,,,,,,,,,,,,,,,,,,,,,,,,,,,,,,,,,,,,,,,,,,,,,,,,,,,,,,,,,,,,,,,,,,,,,,,,,,,,,,,,,,,,,,,,,
0,48,48,24,1,,610646ad915f5d7bac572e30,62c538cdac5d8d31fb792f3d,2022-07-06_10h25.27.219,Colour_Asymmetry_Pilot,2022.1.3,MacIntel,59.84082341,62c50e9c1127f2cd403a315f,,,,,,,,,,,,,,,,,,,,,,,,,,,,,,,,,,,,,,,,,,,,,,,,,,,,,,,,,,,,,,,,,,,,,,,,,,,,,,,,,,,,,,,,,,,,,,,,,,,,,,,,,,,,,,,,,,,,,,,,,,,,,,,,,,,,,,,,,,,,,,,,,,,,,,,,,,,,,,,,,,,
0,49,49,78,1,,610646ad915f5d7bac572e30,62c538cdac5d8d31fb792f3d,2022-07-06_10h25.27.219,Colour_Asymmetry_Pilot,2022.1.3,MacIntel,59.84082341,62c50e9c1127f2cd403a315f,,,,,,,,,,,,,,,,,,,,,,,,,,,,,,,,,,,,,,,,,,,,,,,,,,,,,,,,,,,,,,,,,,,,,,,,,,,,,,,,,,,,,,,,,,,,,,,,,,,,,,,,,,,,,,,,,,,,,,,,,,,,,,,,,,,,,,,,,,,,,,,,,,,,,,,,,,,,,,,,,,,
0,50,50,84,1,,610646ad915f5d7bac572e30,62c538cdac5d8d31fb792f3d,2022-07-06_10h25.27.219,Colour_Asymmetry_Pilot,2022.1.3,MacIntel,59.84082341,62c50e9c1127f2cd403a315f,,,,,,,,,,,,,,,,,,,,,,,,,,,,,,,,,,,,,,,,,,,,,,,,,,,,,,,,,,,,,,,,,,,,,,,,,,,,,,,,,,,,,,,,,,,,,,,,,,,,,,,,,,,,,,,,,,,,,,,,,,,,,,,,,,,,,,,,,,,,,,,,,,,,,,,,,,,,,,,,,,,
0,51,51,56,1,,610646ad915f5d7bac572e30,62c538cdac5d8d31fb792f3d,2022-07-06_10h25.27.219,Colour_Asymmetry_Pilot,2022.1.3,MacIntel,59.84082341,62c50e9c1127f2cd403a315f,,,,,,,,,,,,,,,,,,,,,,,,,,,,,,,,,,,,,,,,,,,,,,,,,,,,,,,,,,,,,,,,,,,,,,,,,,,,,,,,,,,,,,,,,,,,,,,,,,,,,,,,,,,,,,,,,,,,,,,,,,,,,,,,,,,,,,,,,,,,,,,,,,,,,,,,,,,,,,,,,,,
0,52,52,68,1,,610646ad915f5d7bac572e30,62c538cdac5d8d31fb792f3d,2022-07-06_10h25.27.219,Colour_Asymmetry_Pilot,2022.1.3,MacIntel,59.84082341,62c50e9c1127f2cd403a315f,,,,,,,,,,,,,,,,,,,,,,,,,,,,,,,,,,,,,,,,,,,,,,,,,,,,,,,,,,,,,,,,,,,,,,,,,,,,,,,,,,,,,,,,,,,,,,,,,,,,,,,,,,,,,,,,,,,,,,,,,,,,,,,,,,,,,,,,,,,,,,,,,,,,,,,,,,,,,,,,,,,
0,53,53,72,1,,610646ad915f5d7bac572e30,62c538cdac5d8d31fb792f3d,2022-07-06_10h25.27.219,Colour_Asymmetry_Pilot,2022.1.3,MacIntel,59.84082341,62c50e9c1127f2cd403a315f,,,,,,,,,,,,,,,,,,,,,,,,,,,,,,,,,,,,,,,,,,,,,,,,,,,,,,,,,,,,,,,,,,,,,,,,,,,,,,,,,,,,,,,,,,,,,,,,,,,,,,,,,,,,,,,,,,,,,,,,,,,,,,,,,,,,,,,,,,,,,,,,,,,,,,,,,,,,,,,,,,,
0,54,54,86,1,,610646ad915f5d7bac572e30,62c538cdac5d8d31fb792f3d,2022-07-06_10h25.27.219,Colour_Asymmetry_Pilot,2022.1.3,MacIntel,59.84082341,62c50e9c1127f2cd403a315f,,,,,,,,,,,,,,,,,,,,,,,,,,,,,,,,,,,,,,,,,,,,,,,,,,,,,,,,,,,,,,,,,,,,,,,,,,,,,,,,,,,,,,,,,,,,,,,,,,,,,,,,,,,,,,,,,,,,,,,,,,,,,,,,,,,,,,,,,,,,,,,,,,,,,,,,,,,,,,,,,,,
0,55,55,57,1,,610646ad915f5d7bac572e30,62c538cdac5d8d31fb792f3d,2022-07-06_10h25.27.219,Colour_Asymmetry_Pilot,2022.1.3,MacIntel,59.84082341,62c50e9c1127f2cd403a315f,,,,,,,,,,,,,,,,,,,,,,,,,,,,,,,,,,,,,,,,,,,,,,,,,,,,,,,,,,,,,,,,,,,,,,,,,,,,,,,,,,,,,,,,,,,,,,,,,,,,,,,,,,,,,,,,,,,,,,,,,,,,,,,,,,,,,,,,,,,,,,,,,,,,,,,,,,,,,,,,,,,
0,56,56,40,1,,610646ad915f5d7bac572e30,62c538cdac5d8d31fb792f3d,2022-07-06_10h25.27.219,Colour_Asymmetry_Pilot,2022.1.3,MacIntel,59.84082341,62c50e9c1127f2cd403a315f,,,,,,,,,,,,,,,,,,,,,,,,,,,,,,,,,,,,,,,,,,,,,,,,,,,,,,,,,,,,,,,,,,,,,,,,,,,,,,,,,,,,,,,,,,,,,,,,,,,,,,,,,,,,,,,,,,,,,,,,,,,,,,,,,,,,,,,,,,,,,,,,,,,,,,,,,,,,,,,,,,,
0,57,57,33,1,,610646ad915f5d7bac572e30,62c538cdac5d8d31fb792f3d,2022-07-06_10h25.27.219,Colour_Asymmetry_Pilot,2022.1.3,MacIntel,59.84082341,62c50e9c1127f2cd403a315f,,,,,,,,,,,,,,,,,,,,,,,,,,,,,,,,,,,,,,,,,,,,,,,,,,,,,,,,,,,,,,,,,,,,,,,,,,,,,,,,,,,,,,,,,,,,,,,,,,,,,,,,,,,,,,,,,,,,,,,,,,,,,,,,,,,,,,,,,,,,,,,,,,,,,,,,,,,,,,,,,,,
0,58,58,74,1,,610646ad915f5d7bac572e30,62c538cdac5d8d31fb792f3d,2022-07-06_10h25.27.219,Colour_Asymmetry_Pilot,2022.1.3,MacIntel,59.84082341,62c50e9c1127f2cd403a315f,,,,,,,,,,,,,,,,,,,,,,,,,,,,,,,,,,,,,,,,,,,,,,,,,,,,,,,,,,,,,,,,,,,,,,,,,,,,,,,,,,,,,,,,,,,,,,,,,,,,,,,,,,,,,,,,,,,,,,,,,,,,,,,,,,,,,,,,,,,,,,,,,,,,,,,,,,,,,,,,,,,
0,59,59,89,1,,610646ad915f5d7bac572e30,62c538cdac5d8d31fb792f3d,2022-07-06_10h25.27.219,Colour_Asymmetry_Pilot,2022.1.3,MacIntel,59.84082341,62c50e9c1127f2cd403a315f,,,,,,,,,,,,,,,,,,,,,,,,,,,,,,,,,,,,,,,,,,,,,,,,,,,,,,,,,,,,,,,,,,,,,,,,,,,,,,,,,,,,,,,,,,,,,,,,,,,,,,,,,,,,,,,,,,,,,,,,,,,,,,,,,,,,,,,,,,,,,,,,,,,,,,,,,,,,,,,,,,,
0,60,60,3,1,,610646ad915f5d7bac572e30,62c538cdac5d8d31fb792f3d,2022-07-06_10h25.27.219,Colour_Asymmetry_Pilot,2022.1.3,MacIntel,59.84082341,62c50e9c1127f2cd403a315f,,,,,,,,,,,,,,,,,,,,,,,,,,,,,,,,,,,,,,,,,,,,,,,,,,,,,,,,,,,,,,,,,,,,,,,,,,,,,,,,,,,,,,,,,,,,,,,,,,,,,,,,,,,,,,,,,,,,,,,,,,,,,,,,,,,,,,,,,,,,,,,,,,,,,,,,,,,,,,,,,,,
0,61,61,46,1,,610646ad915f5d7bac572e30,62c538cdac5d8d31fb792f3d,2022-07-06_10h25.27.219,Colour_Asymmetry_Pilot,2022.1.3,MacIntel,59.84082341,62c50e9c1127f2cd403a315f,,,,,,,,,,,,,,,,,,,,,,,,,,,,,,,,,,,,,,,,,,,,,,,,,,,,,,,,,,,,,,,,,,,,,,,,,,,,,,,,,,,,,,,,,,,,,,,,,,,,,,,,,,,,,,,,,,,,,,,,,,,,,,,,,,,,,,,,,,,,,,,,,,,,,,,,,,,,,,,,,,,
0,62,62,7,1,,610646ad915f5d7bac572e30,62c538cdac5d8d31fb792f3d,2022-07-06_10h25.27.219,Colour_Asymmetry_Pilot,2022.1.3,MacIntel,59.84082341,62c50e9c1127f2cd403a315f,,,,,,,,,,,,,,,,,,,,,,,,,,,,,,,,,,,,,,,,,,,,,,,,,,,,,,,,,,,,,,,,,,,,,,,,,,,,,,,,,,,,,,,,,,,,,,,,,,,,,,,,,,,,,,,,,,,,,,,,,,,,,,,,,,,,,,,,,,,,,,,,,,,,,,,,,,,,,,,,,,,
0,63,63,25,1,,610646ad915f5d7bac572e30,62c538cdac5d8d31fb792f3d,2022-07-06_10h25.27.219,Colour_Asymmetry_Pilot,2022.1.3,MacIntel,59.84082341,62c50e9c1127f2cd403a315f,,,,,,,,,,,,,,,,,,,,,,,,,,,,,,,,,,,,,,,,,,,,,,,,,,,,,,,,,,,,,,,,,,,,,,,,,,,,,,,,,,,,,,,,,,,,,,,,,,,,,,,,,,,,,,,,,,,,,,,,,,,,,,,,,,,,,,,,,,,,,,,,,,,,,,,,,,,,,,,,,,,
0,64,64,75,1,,610646ad915f5d7bac572e30,62c538cdac5d8d31fb792f3d,2022-07-06_10h25.27.219,Colour_Asymmetry_Pilot,2022.1.3,MacIntel,59.84082341,62c50e9c1127f2cd403a315f,,,,,,,,,,,,,,,,,,,,,,,,,,,,,,,,,,,,,,,,,,,,,,,,,,,,,,,,,,,,,,,,,,,,,,,,,,,,,,,,,,,,,,,,,,,,,,,,,,,,,,,,,,,,,,,,,,,,,,,,,,,,,,,,,,,,,,,,,,,,,,,,,,,,,,,,,,,,,,,,,,,
0,65,65,50,1,,610646ad915f5d7bac572e30,62c538cdac5d8d31fb792f3d,2022-07-06_10h25.27.219,Colour_Asymmetry_Pilot,2022.1.3,MacIntel,59.84082341,62c50e9c1127f2cd403a315f,,,,,,,,,,,,,,,,,,,,,,,,,,,,,,,,,,,,,,,,,,,,,,,,,,,,,,,,,,,,,,,,,,,,,,,,,,,,,,,,,,,,,,,,,,,,,,,,,,,,,,,,,,,,,,,,,,,,,,,,,,,,,,,,,,,,,,,,,,,,,,,,,,,,,,,,,,,,,,,,,,,
0,66,66,45,1,,610646ad915f5d7bac572e30,62c538cdac5d8d31fb792f3d,2022-07-06_10h25.27.219,Colour_Asymmetry_Pilot,2022.1.3,MacIntel,59.84082341,62c50e9c1127f2cd403a315f,,,,,,,,,,,,,,,,,,,,,,,,,,,,,,,,,,,,,,,,,,,,,,,,,,,,,,,,,,,,,,,,,,,,,,,,,,,,,,,,,,,,,,,,,,,,,,,,,,,,,,,,,,,,,,,,,,,,,,,,,,,,,,,,,,,,,,,,,,,,,,,,,,,,,,,,,,,,,,,,,,,
0,67,67,90,1,,610646ad915f5d7bac572e30,62c538cdac5d8d31fb792f3d,2022-07-06_10h25.27.219,Colour_Asymmetry_Pilot,2022.1.3,MacIntel,59.84082341,62c50e9c1127f2cd403a315f,,,,,,,,,,,,,,,,,,,,,,,,,,,,,,,,,,,,,,,,,,,,,,,,,,,,,,,,,,,,,,,,,,,,,,,,,,,,,,,,,,,,,,,,,,,,,,,,,,,,,,,,,,,,,,,,,,,,,,,,,,,,,,,,,,,,,,,,,,,,,,,,,,,,,,,,,,,,,,,,,,,
0,68,68,27,1,,610646ad915f5d7bac572e30,62c538cdac5d8d31fb792f3d,2022-07-06_10h25.27.219,Colour_Asymmetry_Pilot,2022.1.3,MacIntel,59.84082341,62c50e9c1127f2cd403a315f,,,,,,,,,,,,,,,,,,,,,,,,,,,,,,,,,,,,,,,,,,,,,,,,,,,,,,,,,,,,,,,,,,,,,,,,,,,,,,,,,,,,,,,,,,,,,,,,,,,,,,,,,,,,,,,,,,,,,,,,,,,,,,,,,,,,,,,,,,,,,,,,,,,,,,,,,,,,,,,,,,,
0,69,69,61,1,,610646ad915f5d7bac572e30,62c538cdac5d8d31fb792f3d,2022-07-06_10h25.27.219,Colour_Asymmetry_Pilot,2022.1.3,MacIntel,59.84082341,62c50e9c1127f2cd403a315f,,,,,,,,,,,,,,,,,,,,,,,,,,,,,,,,,,,,,,,,,,,,,,,,,,,,,,,,,,,,,,,,,,,,,,,,,,,,,,,,,,,,,,,,,,,,,,,,,,,,,,,,,,,,,,,,,,,,,,,,,,,,,,,,,,,,,,,,,,,,,,,,,,,,,,,,,,,,,,,,,,,
0,70,70,4,1,,610646ad915f5d7bac572e30,62c538cdac5d8d31fb792f3d,2022-07-06_10h25.27.219,Colour_Asymmetry_Pilot,2022.1.3,MacIntel,59.84082341,62c50e9c1127f2cd403a315f,,,,,,,,,,,,,,,,,,,,,,,,,,,,,,,,,,,,,,,,,,,,,,,,,,,,,,,,,,,,,,,,,,,,,,,,,,,,,,,,,,,,,,,,,,,,,,,,,,,,,,,,,,,,,,,,,,,,,,,,,,,,,,,,,,,,,,,,,,,,,,,,,,,,,,,,,,,,,,,,,,,
0,71,71,43,1,,610646ad915f5d7bac572e30,62c538cdac5d8d31fb792f3d,2022-07-06_10h25.27.219,Colour_Asymmetry_Pilot,2022.1.3,MacIntel,59.84082341,62c50e9c1127f2cd403a315f,,,,,,,,,,,,,,,,,,,,,,,,,,,,,,,,,,,,,,,,,,,,,,,,,,,,,,,,,,,,,,,,,,,,,,,,,,,,,,,,,,,,,,,,,,,,,,,,,,,,,,,,,,,,,,,,,,,,,,,,,,,,,,,,,,,,,,,,,,,,,,,,,,,,,,,,,,,,,,,,,,,
0,72,72,59,1,,610646ad915f5d7bac572e30,62c538cdac5d8d31fb792f3d,2022-07-06_10h25.27.219,Colour_Asymmetry_Pilot,2022.1.3,MacIntel,59.84082341,62c50e9c1127f2cd403a315f,,,,,,,,,,,,,,,,,,,,,,,,,,,,,,,,,,,,,,,,,,,,,,,,,,,,,,,,,,,,,,,,,,,,,,,,,,,,,,,,,,,,,,,,,,,,,,,,,,,,,,,,,,,,,,,,,,,,,,,,,,,,,,,,,,,,,,,,,,,,,,,,,,,,,,,,,,,,,,,,,,,
0,73,73,67,1,,610646ad915f5d7bac572e30,62c538cdac5d8d31fb792f3d,2022-07-06_10h25.27.219,Colour_Asymmetry_Pilot,2022.1.3,MacIntel,59.84082341,62c50e9c1127f2cd403a315f,,,,,,,,,,,,,,,,,,,,,,,,,,,,,,,,,,,,,,,,,,,,,,,,,,,,,,,,,,,,,,,,,,,,,,,,,,,,,,,,,,,,,,,,,,,,,,,,,,,,,,,,,,,,,,,,,,,,,,,,,,,,,,,,,,,,,,,,,,,,,,,,,,,,,,,,,,,,,,,,,,,
0,74,74,28,1,,610646ad915f5d7bac572e30,62c538cdac5d8d31fb792f3d,2022-07-06_10h25.27.219,Colour_Asymmetry_Pilot,2022.1.3,MacIntel,59.84082341,62c50e9c1127f2cd403a315f,,,,,,,,,,,,,,,,,,,,,,,,,,,,,,,,,,,,,,,,,,,,,,,,,,,,,,,,,,,,,,,,,,,,,,,,,,,,,,,,,,,,,,,,,,,,,,,,,,,,,,,,,,,,,,,,,,,,,,,,,,,,,,,,,,,,,,,,,,,,,,,,,,,,,,,,,,,,,,,,,,,
0,75,75,36,1,,610646ad915f5d7bac572e30,62c538cdac5d8d31fb792f3d,2022-07-06_10h25.27.219,Colour_Asymmetry_Pilot,2022.1.3,MacIntel,59.84082341,62c50e9c1127f2cd403a315f,,,,,,,,,,,,,,,,,,,,,,,,,,,,,,,,,,,,,,,,,,,,,,,,,,,,,,,,,,,,,,,,,,,,,,,,,,,,,,,,,,,,,,,,,,,,,,,,,,,,,,,,,,,,,,,,,,,,,,,,,,,,,,,,,,,,,,,,,,,,,,,,,,,,,,,,,,,,,,,,,,,
0,76,76,38,1,,610646ad915f5d7bac572e30,62c538cdac5d8d31fb792f3d,2022-07-06_10h25.27.219,Colour_Asymmetry_Pilot,2022.1.3,MacIntel,59.84082341,62c50e9c1127f2cd403a315f,,,,,,,,,,,,,,,,,,,,,,,,,,,,,,,,,,,,,,,,,,,,,,,,,,,,,,,,,,,,,,,,,,,,,,,,,,,,,,,,,,,,,,,,,,,,,,,,,,,,,,,,,,,,,,,,,,,,,,,,,,,,,,,,,,,,,,,,,,,,,,,,,,,,,,,,,,,,,,,,,,,
0,77,77,12,1,,610646ad915f5d7bac572e30,62c538cdac5d8d31fb792f3d,2022-07-06_10h25.27.219,Colour_Asymmetry_Pilot,2022.1.3,MacIntel,59.84082341,62c50e9c1127f2cd403a315f,,,,,,,,,,,,,,,,,,,,,,,,,,,,,,,,,,,,,,,,,,,,,,,,,,,,,,,,,,,,,,,,,,,,,,,,,,,,,,,,,,,,,,,,,,,,,,,,,,,,,,,,,,,,,,,,,,,,,,,,,,,,,,,,,,,,,,,,,,,,,,,,,,,,,,,,,,,,,,,,,,,
0,78,78,77,1,,610646ad915f5d7bac572e30,62c538cdac5d8d31fb792f3d,2022-07-06_10h25.27.219,Colour_Asymmetry_Pilot,2022.1.3,MacIntel,59.84082341,62c50e9c1127f2cd403a315f,,,,,,,,,,,,,,,,,,,,,,,,,,,,,,,,,,,,,,,,,,,,,,,,,,,,,,,,,,,,,,,,,,,,,,,,,,,,,,,,,,,,,,,,,,,,,,,,,,,,,,,,,,,,,,,,,,,,,,,,,,,,,,,,,,,,,,,,,,,,,,,,,,,,,,,,,,,,,,,,,,,
0,79,79,83,1,,610646ad915f5d7bac572e30,62c538cdac5d8d31fb792f3d,2022-07-06_10h25.27.219,Colour_Asymmetry_Pilot,2022.1.3,MacIntel,59.84082341,62c50e9c1127f2cd403a315f,,,,,,,,,,,,,,,,,,,,,,,,,,,,,,,,,,,,,,,,,,,,,,,,,,,,,,,,,,,,,,,,,,,,,,,,,,,,,,,,,,,,,,,,,,,,,,,,,,,,,,,,,,,,,,,,,,,,,,,,,,,,,,,,,,,,,,,,,,,,,,,,,,,,,,,,,,,,,,,,,,,
0,80,80,58,1,,610646ad915f5d7bac572e30,62c538cdac5d8d31fb792f3d,2022-07-06_10h25.27.219,Colour_Asymmetry_Pilot,2022.1.3,MacIntel,59.84082341,62c50e9c1127f2cd403a315f,,,,,,,,,,,,,,,,,,,,,,,,,,,,,,,,,,,,,,,,,,,,,,,,,,,,,,,,,,,,,,,,,,,,,,,,,,,,,,,,,,,,,,,,,,,,,,,,,,,,,,,,,,,,,,,,,,,,,,,,,,,,,,,,,,,,,,,,,,,,,,,,,,,,,,,,,,,,,,,,,,,
0,81,81,82,1,,610646ad915f5d7bac572e30,62c538cdac5d8d31fb792f3d,2022-07-06_10h25.27.219,Colour_Asymmetry_Pilot,2022.1.3,MacIntel,59.84082341,62c50e9c1127f2cd403a315f,,,,,,,,,,,,,,,,,,,,,,,,,,,,,,,,,,,,,,,,,,,,,,,,,,,,,,,,,,,,,,,,,,,,,,,,,,,,,,,,,,,,,,,,,,,,,,,,,,,,,,,,,,,,,,,,,,,,,,,,,,,,,,,,,,,,,,,,,,,,,,,,,,,,,,,,,,,,,,,,,,,
0,82,82,65,1,,610646ad915f5d7bac572e30,62c538cdac5d8d31fb792f3d,2022-07-06_10h25.27.219,Colour_Asymmetry_Pilot,2022.1.3,MacIntel,59.84082341,62c50e9c1127f2cd403a315f,,,,,,,,,,,,,,,,,,,,,,,,,,,,,,,,,,,,,,,,,,,,,,,,,,,,,,,,,,,,,,,,,,,,,,,,,,,,,,,,,,,,,,,,,,,,,,,,,,,,,,,,,,,,,,,,,,,,,,,,,,,,,,,,,,,,,,,,,,,,,,,,,,,,,,,,,,,,,,,,,,,
0,83,83,80,1,,610646ad915f5d7bac572e30,62c538cdac5d8d31fb792f3d,2022-07-06_10h25.27.219,Colour_Asymmetry_Pilot,2022.1.3,MacIntel,59.84082341,62c50e9c1127f2cd403a315f,,,,,,,,,,,,,,,,,,,,,,,,,,,,,,,,,,,,,,,,,,,,,,,,,,,,,,,,,,,,,,,,,,,,,,,,,,,,,,,,,,,,,,,,,,,,,,,,,,,,,,,,,,,,,,,,,,,,,,,,,,,,,,,,,,,,,,,,,,,,,,,,,,,,,,,,,,,,,,,,,,,
0,84,84,31,1,,610646ad915f5d7bac572e30,62c538cdac5d8d31fb792f3d,2022-07-06_10h25.27.219,Colour_Asymmetry_Pilot,2022.1.3,MacIntel,59.84082341,62c50e9c1127f2cd403a315f,,,,,,,,,,,,,,,,,,,,,,,,,,,,,,,,,,,,,,,,,,,,,,,,,,,,,,,,,,,,,,,,,,,,,,,,,,,,,,,,,,,,,,,,,,,,,,,,,,,,,,,,,,,,,,,,,,,,,,,,,,,,,,,,,,,,,,,,,,,,,,,,,,,,,,,,,,,,,,,,,,,
0,85,85,48,1,,610646ad915f5d7bac572e30,62c538cdac5d8d31fb792f3d,2022-07-06_10h25.27.219,Colour_Asymmetry_Pilot,2022.1.3,MacIntel,59.84082341,62c50e9c1127f2cd403a315f,,,,,,,,,,,,,,,,,,,,,,,,,,,,,,,,,,,,,,,,,,,,,,,,,,,,,,,,,,,,,,,,,,,,,,,,,,,,,,,,,,,,,,,,,,,,,,,,,,,,,,,,,,,,,,,,,,,,,,,,,,,,,,,,,,,,,,,,,,,,,,,,,,,,,,,,,,,,,,,,,,,
0,86,86,20,1,,610646ad915f5d7bac572e30,62c538cdac5d8d31fb792f3d,2022-07-06_10h25.27.219,Colour_Asymmetry_Pilot,2022.1.3,MacIntel,59.84082341,62c50e9c1127f2cd403a315f,,,,,,,,,,,,,,,,,,,,,,,,,,,,,,,,,,,,,,,,,,,,,,,,,,,,,,,,,,,,,,,,,,,,,,,,,,,,,,,,,,,,,,,,,,,,,,,,,,,,,,,,,,,,,,,,,,,,,,,,,,,,,,,,,,,,,,,,,,,,,,,,,,,,,,,,,,,,,,,,,,,
0,87,87,42,1,,610646ad915f5d7bac572e30,62c538cdac5d8d31fb792f3d,2022-07-06_10h25.27.219,Colour_Asymmetry_Pilot,2022.1.3,MacIntel,59.84082341,62c50e9c1127f2cd403a315f,,,,,,,,,,,,,,,,,,,,,,,,,,,,,,,,,,,,,,,,,,,,,,,,,,,,,,,,,,,,,,,,,,,,,,,,,,,,,,,,,,,,,,,,,,,,,,,,,,,,,,,,,,,,,,,,,,,,,,,,,,,,,,,,,,,,,,,,,,,,,,,,,,,,,,,,,,,,,,,,,,,
0,88,88,23,1,,610646ad915f5d7bac572e30,62c538cdac5d8d31fb792f3d,2022-07-06_10h25.27.219,Colour_Asymmetry_Pilot,2022.1.3,MacIntel,59.84082341,62c50e9c1127f2cd403a315f,,,,,,,,,,,,,,,,,,,,,,,,,,,,,,,,,,,,,,,,,,,,,,,,,,,,,,,,,,,,,,,,,,,,,,,,,,,,,,,,,,,,,,,,,,,,,,,,,,,,,,,,,,,,,,,,,,,,,,,,,,,,,,,,,,,,,,,,,,,,,,,,,,,,,,,,,,,,,,,,,,,
0,89,89,91,1,,610646ad915f5d7bac572e30,62c538cdac5d8d31fb792f3d,2022-07-06_10h25.27.219,Colour_Asymmetry_Pilot,2022.1.3,MacIntel,59.84082341,62c50e9c1127f2cd403a315f,,,,,,,,,,,,,,,,,,,,,,,,,,,,,,,,,,,,,,,,,,,,,,,,,,,,,,,,,,,,,,,,,,,,,,,,,,,,,,,,,,,,,,,,,,,,,,,,,,,,,,,,,,,,,,,,,,,,,,,,,,,,,,,,,,,,,,,,,,,,,,,,,,,,,,,,,,,,,,,,,,,
0,90,90,2,1,,610646ad915f5d7bac572e30,62c538cdac5d8d31fb792f3d,2022-07-06_10h25.27.219,Colour_Asymmetry_Pilot,2022.1.3,MacIntel,59.84082341,62c50e9c1127f2cd403a315f,,,,,,,,,,,,,,,,,,,,,,,,,,,,,,,,,,,,,,,,,,,,,,,,,,,,,,,,,,,,,,,,,,,,,,,,,,,,,,,,,,,,,,,,,,,,,,,,,,,,,,,,,,,,,,,,,,,,,,,,,,,,,,,,,,,,,,,,,,,,,,,,,,,,,,,,,,,,,,,,,,,
0,91,91,69,1,,610646ad915f5d7bac572e30,62c538cdac5d8d31fb792f3d,2022-07-06_10h25.27.219,Colour_Asymmetry_Pilot,2022.1.3,MacIntel,59.84082341,62c50e9c1127f2cd403a315f,,,,,,,,,,,,,,,,,,,,,,,,,,,,,,,,,,,,,,,,,,,,,,,,,,,,,,,,,,,,,,,,,,,,,,,,,,,,,,,,,,,,,,,,,,,,,,,,,,,,,,,,,,,,,,,,,,,,,,,,,,,,,,,,,,,,,,,,,,,,,,,,,,,,,,,,,,,,,,,,,,,
0,92,92,15,1,,610646ad915f5d7bac572e30,62c538cdac5d8d31fb792f3d,2022-07-06_10h25.27.219,Colour_Asymmetry_Pilot,2022.1.3,MacIntel,59.84082341,62c50e9c1127f2cd403a315f,,,,,,,,,,,,,,,,,,,,,,,,,,,,,,,,,,,,,,,,,,,,,,,,,,,,,,,,,,,,,,,,,,,,,,,,,,,,,,,,,,,,,,,,,,,,,,,,,,,,,,,,,,,,,,,,,,,,,,,,,,,,,,,,,,,,,,,,,,,,,,,,,,,,,,,,,,,,,,,,,,,
,,,,,,610646ad915f5d7bac572e30,62c538cdac5d8d31fb792f3d,2022-07-06_10h25.27.219,Colour_Asymmetry_Pilot,2022.1.3,MacIntel,59.84082341,62c50e9c1127f2cd403a315f,0,0,0,51,1,twofour,,,,,,,,,,,,,,,,,,,,,,,,,,,,,,,,,,,,,,,,,,,,,,,,,,,,,,,,,,,,,,,,,,,,,,,,,,,,,,,,,,,,,,,,,,,,,,,,,,,,,,,,,,,,,,,,,,,,,,,,,,,,,,,,,,,,,,,,,,,,,,,,,,,,,,,,,,,,,
,,,,,,610646ad915f5d7bac572e30,62c538cdac5d8d31fb792f3d,2022-07-06_10h25.27.219,Colour_Asymmetry_Pilot,2022.1.3,MacIntel,59.84082341,62c50e9c1127f2cd403a315f,0,1,1,139,1,twofour,,,,,,,,,,,,,,,,,,,,,,,,,,,,,,,,,,,,,,,,,,,,,,,,,,,,,,,,,,,,,,,,,,,,,,,,,,,,,,,,,,,,,,,,,,,,,,,,,,,,,,,,,,,,,,,,,,,,,,,,,,,,,,,,,,,,,,,,,,,,,,,,,,,,,,,,,,,,,
,,,,,,610646ad915f5d7bac572e30,62c538cdac5d8d31fb792f3d,2022-07-06_10h25.27.219,Colour_Asymmetry_Pilot,2022.1.3,MacIntel,59.84082341,62c50e9c1127f2cd403a315f,0,2,2,75,1,twofour,,,,,,,,,,,,,,,,,,,,,,,,,,,,,,,,,,,,,,,,,,,,,,,,,,,,,,,,,,,,,,,,,,,,,,,,,,,,,,,,,,,,,,,,,,,,,,,,,,,,,,,,,,,,,,,,,,,,,,,,,,,,,,,,,,,,,,,,,,,,,,,,,,,,,,,,,,,,,
,,,,,,610646ad915f5d7bac572e30,62c538cdac5d8d31fb792f3d,2022-07-06_10h25.27.219,Colour_Asymmetry_Pilot,2022.1.3,MacIntel,59.84082341,62c50e9c1127f2cd403a315f,0,3,3,22,1,fourtwo,,,,,,,,,,,,,,,,,,,,,,,,,,,,,,,,,,,,,,,,,,,,,,,,,,,,,,,,,,,,,,,,,,,,,,,,,,,,,,,,,,,,,,,,,,,,,,,,,,,,,,,,,,,,,,,,,,,,,,,,,,,,,,,,,,,,,,,,,,,,,,,,,,,,,,,,,,,,,
,,,,,,610646ad915f5d7bac572e30,62c538cdac5d8d31fb792f3d,2022-07-06_10h25.27.219,Colour_Asymmetry_Pilot,2022.1.3,MacIntel,59.84082341,62c50e9c1127f2cd403a315f,0,4,4,32,1,onetwo,,,,,,,,,,,,,,,,,,,,,,,,,,,,,,,,,,,,,,,,,,,,,,,,,,,,,,,,,,,,,,,,,,,,,,,,,,,,,,,,,,,,,,,,,,,,,,,,,,,,,,,,,,,,,,,,,,,,,,,,,,,,,,,,,,,,,,,,,,,,,,,,,,,,,,,,,,,,,
,,,,,,610646ad915f5d7bac572e30,62c538cdac5d8d31fb792f3d,2022-07-06_10h25.27.219,Colour_Asymmetry_Pilot,2022.1.3,MacIntel,59.84082341,62c50e9c1127f2cd403a315f,0,5,5,147,1,twofour,,,,,,,,,,,,,,,,,,,,,,,,,,,,,,,,,,,,,,,,,,,,,,,,,,,,,,,,,,,,,,,,,,,,,,,,,,,,,,,,,,,,,,,,,,,,,,,,,,,,,,,,,,,,,,,,,,,,,,,,,,,,,,,,,,,,,,,,,,,,,,,,,,,,,,,,,,,,,
,,,,,,610646ad915f5d7bac572e30,62c538cdac5d8d31fb792f3d,2022-07-06_10h25.27.219,Colour_Asymmetry_Pilot,2022.1.3,MacIntel,59.84082341,62c50e9c1127f2cd403a315f,0,6,6,95,1,fourthree,,,,,,,,,,,,,,,,,,,,,,,,,,,,,,,,,,,,,,,,,,,,,,,,,,,,,,,,,,,,,,,,,,,,,,,,,,,,,,,,,,,,,,,,,,,,,,,,,,,,,,,,,,,,,,,,,,,,,,,,,,,,,,,,,,,,,,,,,,,,,,,,,,,,,,,,,,,,,
,,,,,,610646ad915f5d7bac572e30,62c538cdac5d8d31fb792f3d,2022-07-06_10h25.27.219,Colour_Asymmetry_Pilot,2022.1.3,MacIntel,59.84082341,62c50e9c1127f2cd403a315f,0,7,7,111,1,fourthree,,,,,,,,,,,,,,,,,,,,,,,,,,,,,,,,,,,,,,,,,,,,,,,,,,,,,,,,,,,,,,,,,,,,,,,,,,,,,,,,,,,,,,,,,,,,,,,,,,,,,,,,,,,,,,,,,,,,,,,,,,,,,,,,,,,,,,,,,,,,,,,,,,,,,,,,,,,,,
,,,,,,610646ad915f5d7bac572e30,62c538cdac5d8d31fb792f3d,2022-07-06_10h25.27.219,Colour_Asymmetry_Pilot,2022.1.3,MacIntel,59.84082341,62c50e9c1127f2cd403a315f,0,8,8,90,1,twoone,,,,,,,,,,,,,,,,,,,,,,,,,,,,,,,,,,,,,,,,,,,,,,,,,,,,,,,,,,,,,,,,,,,,,,,,,,,,,,,,,,,,,,,,,,,,,,,,,,,,,,,,,,,,,,,,,,,,,,,,,,,,,,,,,,,,,,,,,,,,,,,,,,,,,,,,,,,,,
,,,,,,610646ad915f5d7bac572e30,62c538cdac5d8d31fb792f3d,2022-07-06_10h25.27.219,Colour_Asymmetry_Pilot,2022.1.3,MacIntel,59.84082341,62c50e9c1127f2cd403a315f,0,9,9,1,1,onethree,,,,,,,,,,,,,,,,,,,,,,,,,,,,,,,,,,,,,,,,,,,,,,,,,,,,,,,,,,,,,,,,,,,,,,,,,,,,,,,,,,,,,,,,,,,,,,,,,,,,,,,,,,,,,,,,,,,,,,,,,,,,,,,,,,,,,,,,,,,,,,,,,,,,,,,,,,,,,
,,,,,,610646ad915f5d7bac572e30,62c538cdac5d8d31fb792f3d,2022-07-06_10h25.27.219,Colour_Asymmetry_Pilot,2022.1.3,MacIntel,59.84082341,62c50e9c1127f2cd403a315f,0,10,10,119,1,fourthree,,,,,,,,,,,,,,,,,,,,,,,,,,,,,,,,,,,,,,,,,,,,,,,,,,,,,,,,,,,,,,,,,,,,,,,,,,,,,,,,,,,,,,,,,,,,,,,,,,,,,,,,,,,,,,,,,,,,,,,,,,,,,,,,,,,,,,,,,,,,,,,,,,,,,,,,,,,,,
,,,,,,610646ad915f5d7bac572e30,62c538cdac5d8d31fb792f3d,2022-07-06_10h25.27.219,Colour_Asymmetry_Pilot,2022.1.3,MacIntel,59.84082341,62c50e9c1127f2cd403a315f,0,11,11,21,1,threefour,,,,,,,,,,,,,,,,,,,,,,,,,,,,,,,,,,,,,,,,,,,,,,,,,,,,,,,,,,,,,,,,,,,,,,,,,,,,,,,,,,,,,,,,,,,,,,,,,,,,,,,,,,,,,,,,,,,,,,,,,,,,,,,,,,,,,,,,,,,,,,,,,,,,,,,,,,,,,
,,,,,,610646ad915f5d7bac572e30,62c538cdac5d8d31fb792f3d,2022-07-06_10h25.27.219,Colour_Asymmetry_Pilot,2022.1.3,MacIntel,59.84082341,62c50e9c1127f2cd403a315f,0,12,12,91,1,twofour,,,,,,,,,,,,,,,,,,,,,,,,,,,,,,,,,,,,,,,,,,,,,,,,,,,,,,,,,,,,,,,,,,,,,,,,,,,,,,,,,,,,,,,,,,,,,,,,,,,,,,,,,,,,,,,,,,,,,,,,,,,,,,,,,,,,,,,,,,,,,,,,,,,,,,,,,,,,,
,,,,,,610646ad915f5d7bac572e30,62c538cdac5d8d31fb792f3d,2022-07-06_10h25.27.219,Colour_Asymmetry_Pilot,2022.1.3,MacIntel,59.84082341,62c50e9c1127f2cd403a315f,0,13,13,28,1,threeone,,,,,,,,,,,,,,,,,,,,,,,,,,,,,,,,,,,,,,,,,,,,,,,,,,,,,,,,,,,,,,,,,,,,,,,,,,,,,,,,,,,,,,,,,,,,,,,,,,,,,,,,,,,,,,,,,,,,,,,,,,,,,,,,,,,,,,,,,,,,,,,,,,,,,,,,,,,,,
,,,,,,610646ad915f5d7bac572e30,62c538cdac5d8d31fb792f3d,2022-07-06_10h25.27.219,Colour_Asymmetry_Pilot,2022.1.3,MacIntel,59.84082341,62c50e9c1127f2cd403a315f,0,14,14,62,1,fourtwo,,,,,,,,,,,,,,,,,,,,,,,,,,,,,,,,,,,,,,,,,,,,,,,,,,,,,,,,,,,,,,,,,,,,,,,,,,,,,,,,,,,,,,,,,,,,,,,,,,,,,,,,,,,,,,,,,,,,,,,,,,,,,,,,,,,,,,,,,,,,,,,,,,,,,,,,,,,,,
,,,,,,610646ad915f5d7bac572e30,62c538cdac5d8d31fb792f3d,2022-07-06_10h25.27.219,Colour_Asymmetry_Pilot,2022.1.3,MacIntel,59.84082341,62c50e9c1127f2cd403a315f,0,15,15,0,1,onetwo,,,,,,,,,,,,,,,,,,,,,,,,,,,,,,,,,,,,,,,,,,,,,,,,,,,,,,,,,,,,,,,,,,,,,,,,,,,,,,,,,,,,,,,,,,,,,,,,,,,,,,,,,,,,,,,,,,,,,,,,,,,,,,,,,,,,,,,,,,,,,,,,,,,,,,,,,,,,,
,,,,,,610646ad915f5d7bac572e30,62c538cdac5d8d31fb792f3d,2022-07-06_10h25.27.219,Colour_Asymmetry_Pilot,2022.1.3,MacIntel,59.84082341,62c50e9c1127f2cd403a315f,0,16,16,158,1,fourtwo,,,,,,,,,,,,,,,,,,,,,,,,,,,,,,,,,,,,,,,,,,,,,,,,,,,,,,,,,,,,,,,,,,,,,,,,,,,,,,,,,,,,,,,,,,,,,,,,,,,,,,,,,,,,,,,,,,,,,,,,,,,,,,,,,,,,,,,,,,,,,,,,,,,,,,,,,,,,,
,,,,,,610646ad915f5d7bac572e30,62c538cdac5d8d31fb792f3d,2022-07-06_10h25.27.219,Colour_Asymmetry_Pilot,2022.1.3,MacIntel,59.84082341,62c50e9c1127f2cd403a315f,0,17,17,26,1,twoone,,,,,,,,,,,,,,,,,,,,,,,,,,,,,,,,,,,,,,,,,,,,,,,,,,,,,,,,,,,,,,,,,,,,,,,,,,,,,,,,,,,,,,,,,,,,,,,,,,,,,,,,,,,,,,,,,,,,,,,,,,,,,,,,,,,,,,,,,,,,,,,,,,,,,,,,,,,,,
,,,,,,610646ad915f5d7bac572e30,62c538cdac5d8d31fb792f3d,2022-07-06_10h25.27.219,Colour_Asymmetry_Pilot,2022.1.3,MacIntel,59.84082341,62c50e9c1127f2cd403a315f,0,18,18,145,1,onethree,,,,,,,,,,,,,,,,,,,,,,,,,,,,,,,,,,,,,,,,,,,,,,,,,,,,,,,,,,,,,,,,,,,,,,,,,,,,,,,,,,,,,,,,,,,,,,,,,,,,,,,,,,,,,,,,,,,,,,,,,,,,,,,,,,,,,,,,,,,,,,,,,,,,,,,,,,,,,
,,,,,,610646ad915f5d7bac572e30,62c538cdac5d8d31fb792f3d,2022-07-06_10h25.27.219,Colour_Asymmetry_Pilot,2022.1.3,MacIntel,59.84082341,62c50e9c1127f2cd403a315f,0,19,19,82,1,twoone,,,,,,,,,,,,,,,,,,,,,,,,,,,,,,,,,,,,,,,,,,,,,,,,,,,,,,,,,,,,,,,,,,,,,,,,,,,,,,,,,,,,,,,,,,,,,,,,,,,,,,,,,,,,,,,,,,,,,,,,,,,,,,,,,,,,,,,,,,,,,,,,,,,,,,,,,,,,,
,,,,,,610646ad915f5d7bac572e30,62c538cdac5d8d31fb792f3d,2022-07-06_10h25.27.219,Colour_Asymmetry_Pilot,2022.1.3,MacIntel,59.84082341,62c50e9c1127f2cd403a315f,0,20,20,27,1,twofour,,,,,,,,,,,,,,,,,,,,,,,,,,,,,,,,,,,,,,,,,,,,,,,,,,,,,,,,,,,,,,,,,,,,,,,,,,,,,,,,,,,,,,,,,,,,,,,,,,,,,,,,,,,,,,,,,,,,,,,,,,,,,,,,,,,,,,,,,,,,,,,,,,,,,,,,,,,,,
,,,,,,610646ad915f5d7bac572e30,62c538cdac5d8d31fb792f3d,2022-07-06_10h25.27.219,Colour_Asymmetry_Pilot,2022.1.3,MacIntel,59.84082341,62c50e9c1127f2cd403a315f,0,21,21,42,1,twoone,,,,,,,,,,,,,,,,,,,,,,,,,,,,,,,,,,,,,,,,,,,,,,,,,,,,,,,,,,,,,,,,,,,,,,,,,,,,,,,,,,,,,,,,,,,,,,,,,,,,,,,,,,,,,,,,,,,,,,,,,,,,,,,,,,,,,,,,,,,,,,,,,,,,,,,,,,,,,
,,,,,,610646ad915f5d7bac572e30,62c538cdac5d8d31fb792f3d,2022-07-06_10h25.27.219,Colour_Asymmetry_Pilot,2022.1.3,MacIntel,59.84082341,62c50e9c1127f2cd403a315f,0,22,22,83,1,twofour,,,,,,,,,,,,,,,,,,,,,,,,,,,,,,,,,,,,,,,,,,,,,,,,,,,,,,,,,,,,,,,,,,,,,,,,,,,,,,,,,,,,,,,,,,,,,,,,,,,,,,,,,,,,,,,,,,,,,,,,,,,,,,,,,,,,,,,,,,,,,,,,,,,,,,,,,,,,,
,,,,,,610646ad915f5d7bac572e30,62c538cdac5d8d31fb792f3d,2022-07-06_10h25.27.219,Colour_Asymmetry_Pilot,2022.1.3,MacIntel,59.84082341,62c50e9c1127f2cd403a315f,0,23,23,128,1,onetwo,,,,,,,,,,,,,,,,,,,,,,,,,,,,,,,,,,,,,,,,,,,,,,,,,,,,,,,,,,,,,,,,,,,,,,,,,,,,,,,,,,,,,,,,,,,,,,,,,,,,,,,,,,,,,,,,,,,,,,,,,,,,,,,,,,,,,,,,,,,,,,,,,,,,,,,,,,,,,
,,,,,,610646ad915f5d7bac572e30,62c538cdac5d8d31fb792f3d,2022-07-06_10h25.27.219,Colour_Asymmetry_Pilot,2022.1.3,MacIntel,59.84082341,62c50e9c1127f2cd403a315f,0,24,24,36,1,threeone,,,,,,,,,,,,,,,,,,,,,,,,,,,,,,,,,,,,,,,,,,,,,,,,,,,,,,,,,,,,,,,,,,,,,,,,,,,,,,,,,,,,,,,,,,,,,,,,,,,,,,,,,,,,,,,,,,,,,,,,,,,,,,,,,,,,,,,,,,,,,,,,,,,,,,,,,,,,,
,,,,,,610646ad915f5d7bac572e30,62c538cdac5d8d31fb792f3d,2022-07-06_10h25.27.219,Colour_Asymmetry_Pilot,2022.1.3,MacIntel,59.84082341,62c50e9c1127f2cd403a315f,0,25,25,134,1,fourtwo,,,,,,,,,,,,,,,,,,,,,,,,,,,,,,,,,,,,,,,,,,,,,,,,,,,,,,,,,,,,,,,,,,,,,,,,,,,,,,,,,,,,,,,,,,,,,,,,,,,,,,,,,,,,,,,,,,,,,,,,,,,,,,,,,,,,,,,,,,,,,,,,,,,,,,,,,,,,,
,,,,,,610646ad915f5d7bac572e30,62c538cdac5d8d31fb792f3d,2022-07-06_10h25.27.219,Colour_Asymmetry_Pilot,2022.1.3,MacIntel,59.84082341,62c50e9c1127f2cd403a315f,0,26,26,159,1,fourthree,,,,,,,,,,,,,,,,,,,,,,,,,,,,,,,,,,,,,,,,,,,,,,,,,,,,,,,,,,,,,,,,,,,,,,,,,,,,,,,,,,,,,,,,,,,,,,,,,,,,,,,,,,,,,,,,,,,,,,,,,,,,,,,,,,,,,,,,,,,,,,,,,,,,,,,,,,,,,
,,,,,,610646ad915f5d7bac572e30,62c538cdac5d8d31fb792f3d,2022-07-06_10h25.27.219,Colour_Asymmetry_Pilot,2022.1.3,MacIntel,59.84082341,62c50e9c1127f2cd403a315f,0,27,27,14,1,fourtwo,,,,,,,,,,,,,,,,,,,,,,,,,,,,,,,,,,,,,,,,,,,,,,,,,,,,,,,,,,,,,,,,,,,,,,,,,,,,,,,,,,,,,,,,,,,,,,,,,,,,,,,,,,,,,,,,,,,,,,,,,,,,,,,,,,,,,,,,,,,,,,,,,,,,,,,,,,,,,
,,,,,,610646ad915f5d7bac572e30,62c538cdac5d8d31fb792f3d,2022-07-06_10h25.27.219,Colour_Asymmetry_Pilot,2022.1.3,MacIntel,59.84082341,62c50e9c1127f2cd403a315f,0,28,28,6,1,fourtwo,,,,,,,,,,,,,,,,,,,,,,,,,,,,,,,,,,,,,,,,,,,,,,,,,,,,,,,,,,,,,,,,,,,,,,,,,,,,,,,,,,,,,,,,,,,,,,,,,,,,,,,,,,,,,,,,,,,,,,,,,,,,,,,,,,,,,,,,,,,,,,,,,,,,,,,,,,,,,
,,,,,,610646ad915f5d7bac572e30,62c538cdac5d8d31fb792f3d,2022-07-06_10h25.27.219,Colour_Asymmetry_Pilot,2022.1.3,MacIntel,59.84082341,62c50e9c1127f2cd403a315f,0,29,29,24,1,onetwo,,,,,,,,,,,,,,,,,,,,,,,,,,,,,,,,,,,,,,,,,,,,,,,,,,,,,,,,,,,,,,,,,,,,,,,,,,,,,,,,,,,,,,,,,,,,,,,,,,,,,,,,,,,,,,,,,,,,,,,,,,,,,,,,,,,,,,,,,,,,,,,,,,,,,,,,,,,,,
,,,,,,610646ad915f5d7bac572e30,62c538cdac5d8d31fb792f3d,2022-07-06_10h25.27.219,Colour_Asymmetry_Pilot,2022.1.3,MacIntel,59.84082341,62c50e9c1127f2cd403a315f,0,30,30,98,1,twoone,,,,,,,,,,,,,,,,,,,,,,,,,,,,,,,,,,,,,,,,,,,,,,,,,,,,,,,,,,,,,,,,,,,,,,,,,,,,,,,,,,,,,,,,,,,,,,,,,,,,,,,,,,,,,,,,,,,,,,,,,,,,,,,,,,,,,,,,,,,,,,,,,,,,,,,,,,,,,
,,,,,,610646ad915f5d7bac572e30,62c538cdac5d8d31fb792f3d,2022-07-06_10h25.27.219,Colour_Asymmetry_Pilot,2022.1.3,MacIntel,59.84082341,62c50e9c1127f2cd403a315f,0,31,31,112,1,onetwo,,,,,,,,,,,,,,,,,,,,,,,,,,,,,,,,,,,,,,,,,,,,,,,,,,,,,,,,,,,,,,,,,,,,,,,,,,,,,,,,,,,,,,,,,,,,,,,,,,,,,,,,,,,,,,,,,,,,,,,,,,,,,,,,,,,,,,,,,,,,,,,,,,,,,,,,,,,,,
,,,,,,610646ad915f5d7bac572e30,62c538cdac5d8d31fb792f3d,2022-07-06_10h25.27.219,Colour_Asymmetry_Pilot,2022.1.3,MacIntel,59.84082341,62c50e9c1127f2cd403a315f,0,32,32,64,1,onetwo,,,,,,,,,,,,,,,,,,,,,,,,,,,,,,,,,,,,,,,,,,,,,,,,,,,,,,,,,,,,,,,,,,,,,,,,,,,,,,,,,,,,,,,,,,,,,,,,,,,,,,,,,,,,,,,,,,,,,,,,,,,,,,,,,,,,,,,,,,,,,,,,,,,,,,,,,,,,,
,,,,,,610646ad915f5d7bac572e30,62c538cdac5d8d31fb792f3d,2022-07-06_10h25.27.219,Colour_Asymmetry_Pilot,2022.1.3,MacIntel,59.84082341,62c50e9c1127f2cd403a315f,0,33,33,46,1,fourtwo,,,,,,,,,,,,,,,,,,,,,,,,,,,,,,,,,,,,,,,,,,,,,,,,,,,,,,,,,,,,,,,,,,,,,,,,,,,,,,,,,,,,,,,,,,,,,,,,,,,,,,,,,,,,,,,,,,,,,,,,,,,,,,,,,,,,,,,,,,,,,,,,,,,,,,,,,,,,,
,,,,,,610646ad915f5d7bac572e30,62c538cdac5d8d31fb792f3d,2022-07-06_10h25.27.219,Colour_Asymmetry_Pilot,2022.1.3,MacIntel,59.84082341,62c50e9c1127f2cd403a315f,0,34,34,141,1,threefour,,,,,,,,,,,,,,,,,,,,,,,,,,,,,,,,,,,,,,,,,,,,,,,,,,,,,,,,,,,,,,,,,,,,,,,,,,,,,,,,,,,,,,,,,,,,,,,,,,,,,,,,,,,,,,,,,,,,,,,,,,,,,,,,,,,,,,,,,,,,,,,,,,,,,,,,,,,,,
,,,,,,610646ad915f5d7bac572e30,62c538cdac5d8d31fb792f3d,2022-07-06_10h25.27.219,Colour_Asymmetry_Pilot,2022.1.3,MacIntel,59.84082341,62c50e9c1127f2cd403a315f,0,35,35,45,1,threefour,,,,,,,,,,,,,,,,,,,,,,,,,,,,,,,,,,,,,,,,,,,,,,,,,,,,,,,,,,,,,,,,,,,,,,,,,,,,,,,,,,,,,,,,,,,,,,,,,,,,,,,,,,,,,,,,,,,,,,,,,,,,,,,,,,,,,,,,,,,,,,,,,,,,,,,,,,,,,
,,,,,,610646ad915f5d7bac572e30,62c538cdac5d8d31fb792f3d,2022-07-06_10h25.27.219,Colour_Asymmetry_Pilot,2022.1.3,MacIntel,59.84082341,62c50e9c1127f2cd403a315f,0,36,36,80,1,onetwo,,,,,,,,,,,,,,,,,,,,,,,,,,,,,,,,,,,,,,,,,,,,,,,,,,,,,,,,,,,,,,,,,,,,,,,,,,,,,,,,,,,,,,,,,,,,,,,,,,,,,,,,,,,,,,,,,,,,,,,,,,,,,,,,,,,,,,,,,,,,,,,,,,,,,,,,,,,,,
,,,,,,610646ad915f5d7bac572e30,62c538cdac5d8d31fb792f3d,2022-07-06_10h25.27.219,Colour_Asymmetry_Pilot,2022.1.3,MacIntel,59.84082341,62c50e9c1127f2cd403a315f,0,37,37,99,1,twofour,,,,,,,,,,,,,,,,,,,,,,,,,,,,,,,,,,,,,,,,,,,,,,,,,,,,,,,,,,,,,,,,,,,,,,,,,,,,,,,,,,,,,,,,,,,,,,,,,,,,,,,,,,,,,,,,,,,,,,,,,,,,,,,,,,,,,,,,,,,,,,,,,,,,,,,,,,,,,
,,,,,,610646ad915f5d7bac572e30,62c538cdac5d8d31fb792f3d,2022-07-06_10h25.27.219,Colour_Asymmetry_Pilot,2022.1.3,MacIntel,59.84082341,62c50e9c1127f2cd403a315f,0,38,38,43,1,twofour,,,,,,,,,,,,,,,,,,,,,,,,,,,,,,,,,,,,,,,,,,,,,,,,,,,,,,,,,,,,,,,,,,,,,,,,,,,,,,,,,,,,,,,,,,,,,,,,,,,,,,,,,,,,,,,,,,,,,,,,,,,,,,,,,,,,,,,,,,,,,,,,,,,,,,,,,,,,,
,,,,,,610646ad915f5d7bac572e30,62c538cdac5d8d31fb792f3d,2022-07-06_10h25.27.219,Colour_Asymmetry_Pilot,2022.1.3,MacIntel,59.84082341,62c50e9c1127f2cd403a315f,0,39,39,65,1,onethree,,,,,,,,,,,,,,,,,,,,,,,,,,,,,,,,,,,,,,,,,,,,,,,,,,,,,,,,,,,,,,,,,,,,,,,,,,,,,,,,,,,,,,,,,,,,,,,,,,,,,,,,,,,,,,,,,,,,,,,,,,,,,,,,,,,,,,,,,,,,,,,,,,,,,,,,,,,,,
,,,,,,610646ad915f5d7bac572e30,62c538cdac5d8d31fb792f3d,2022-07-06_10h25.27.219,Colour_Asymmetry_Pilot,2022.1.3,MacIntel,59.84082341,62c50e9c1127f2cd403a315f,0,40,40,142,1,fourtwo,,,,,,,,,,,,,,,,,,,,,,,,,,,,,,,,,,,,,,,,,,,,,,,,,,,,,,,,,,,,,,,,,,,,,,,,,,,,,,,,,,,,,,,,,,,,,,,,,,,,,,,,,,,,,,,,,,,,,,,,,,,,,,,,,,,,,,,,,,,,,,,,,,,,,,,,,,,,,
,,,,,,610646ad915f5d7bac572e30,62c538cdac5d8d31fb792f3d,2022-07-06_10h25.27.219,Colour_Asymmetry_Pilot,2022.1.3,MacIntel,59.84082341,62c50e9c1127f2cd403a315f,0,41,41,61,1,threefour,,,,,,,,,,,,,,,,,,,,,,,,,,,,,,,,,,,,,,,,,,,,,,,,,,,,,,,,,,,,,,,,,,,,,,,,,,,,,,,,,,,,,,,,,,,,,,,,,,,,,,,,,,,,,,,,,,,,,,,,,,,,,,,,,,,,,,,,,,,,,,,,,,,,,,,,,,,,,
,,,,,,610646ad915f5d7bac572e30,62c538cdac5d8d31fb792f3d,2022-07-06_10h25.27.219,Colour_Asymmetry_Pilot,2022.1.3,MacIntel,59.84082341,62c50e9c1127f2cd403a315f,0,42,42,105,1,onethree,,,,,,,,,,,,,,,,,,,,,,,,,,,,,,,,,,,,,,,,,,,,,,,,,,,,,,,,,,,,,,,,,,,,,,,,,,,,,,,,,,,,,,,,,,,,,,,,,,,,,,,,,,,,,,,,,,,,,,,,,,,,,,,,,,,,,,,,,,,,,,,,,,,,,,,,,,,,,
,,,,,,610646ad915f5d7bac572e30,62c538cdac5d8d31fb792f3d,2022-07-06_10h25.27.219,Colour_Asymmetry_Pilot,2022.1.3,MacIntel,59.84082341,62c50e9c1127f2cd403a315f,0,43,43,88,1,onetwo,,,,,,,,,,,,,,,,,,,,,,,,,,,,,,,,,,,,,,,,,,,,,,,,,,,,,,,,,,,,,,,,,,,,,,,,,,,,,,,,,,,,,,,,,,,,,,,,,,,,,,,,,,,,,,,,,,,,,,,,,,,,,,,,,,,,,,,,,,,,,,,,,,,,,,,,,,,,,
,,,,,,610646ad915f5d7bac572e30,62c538cdac5d8d31fb792f3d,2022-07-06_10h25.27.219,Colour_Asymmetry_Pilot,2022.1.3,MacIntel,59.84082341,62c50e9c1127f2cd403a315f,0,44,44,154,1,twoone,,,,,,,,,,,,,,,,,,,,,,,,,,,,,,,,,,,,,,,,,,,,,,,,,,,,,,,,,,,,,,,,,,,,,,,,,,,,,,,,,,,,,,,,,,,,,,,,,,,,,,,,,,,,,,,,,,,,,,,,,,,,,,,,,,,,,,,,,,,,,,,,,,,,,,,,,,,,,
,,,,,,610646ad915f5d7bac572e30,62c538cdac5d8d31fb792f3d,2022-07-06_10h25.27.219,Colour_Asymmetry_Pilot,2022.1.3,MacIntel,59.84082341,62c50e9c1127f2cd403a315f,0,45,45,132,1,threeone,,,,,,,,,,,,,,,,,,,,,,,,,,,,,,,,,,,,,,,,,,,,,,,,,,,,,,,,,,,,,,,,,,,,,,,,,,,,,,,,,,,,,,,,,,,,,,,,,,,,,,,,,,,,,,,,,,,,,,,,,,,,,,,,,,,,,,,,,,,,,,,,,,,,,,,,,,,,,
,,,,,,610646ad915f5d7bac572e30,62c538cdac5d8d31fb792f3d,2022-07-06_10h25.27.219,Colour_Asymmetry_Pilot,2022.1.3,MacIntel,59.84082341,62c50e9c1127f2cd403a315f,0,46,46,35,1,twofour,,,,,,,,,,,,,,,,,,,,,,,,,,,,,,,,,,,,,,,,,,,,,,,,,,,,,,,,,,,,,,,,,,,,,,,,,,,,,,,,,,,,,,,,,,,,,,,,,,,,,,,,,,,,,,,,,,,,,,,,,,,,,,,,,,,,,,,,,,,,,,,,,,,,,,,,,,,,,
,,,,,,610646ad915f5d7bac572e30,62c538cdac5d8d31fb792f3d,2022-07-06_10h25.27.219,Colour_Asymmetry_Pilot,2022.1.3,MacIntel,59.84082341,62c50e9c1127f2cd403a315f,0,47,47,34,1,twoone,,,,,,,,,,,,,,,,,,,,,,,,,,,,,,,,,,,,,,,,,,,,,,,,,,,,,,,,,,,,,,,,,,,,,,,,,,,,,,,,,,,,,,,,,,,,,,,,,,,,,,,,,,,,,,,,,,,,,,,,,,,,,,,,,,,,,,,,,,,,,,,,,,,,,,,,,,,,,
,,,,,,610646ad915f5d7bac572e30,62c538cdac5d8d31fb792f3d,2022-07-06_10h25.27.219,Colour_Asymmetry_Pilot,2022.1.3,MacIntel,59.84082341,62c50e9c1127f2cd403a315f,0,48,48,149,1,threefour,,,,,,,,,,,,,,,,,,,,,,,,,,,,,,,,,,,,,,,,,,,,,,,,,,,,,,,,,,,,,,,,,,,,,,,,,,,,,,,,,,,,,,,,,,,,,,,,,,,,,,,,,,,,,,,,,,,,,,,,,,,,,,,,,,,,,,,,,,,,,,,,,,,,,,,,,,,,,
,,,,,,610646ad915f5d7bac572e30,62c538cdac5d8d31fb792f3d,2022-07-06_10h25.27.219,Colour_Asymmetry_Pilot,2022.1.3,MacIntel,59.84082341,62c50e9c1127f2cd403a315f,0,49,49,107,1,twofour,,,,,,,,,,,,,,,,,,,,,,,,,,,,,,,,,,,,,,,,,,,,,,,,,,,,,,,,,,,,,,,,,,,,,,,,,,,,,,,,,,,,,,,,,,,,,,,,,,,,,,,,,,,,,,,,,,,,,,,,,,,,,,,,,,,,,,,,,,,,,,,,,,,,,,,,,,,,,
,,,,,,610646ad915f5d7bac572e30,62c538cdac5d8d31fb792f3d,2022-07-06_10h25.27.219,Colour_Asymmetry_Pilot,2022.1.3,MacIntel,59.84082341,62c50e9c1127f2cd403a315f,0,50,50,76,1,threeone,,,,,,,,,,,,,,,,,,,,,,,,,,,,,,,,,,,,,,,,,,,,,,,,,,,,,,,,,,,,,,,,,,,,,,,,,,,,,,,,,,,,,,,,,,,,,,,,,,,,,,,,,,,,,,,,,,,,,,,,,,,,,,,,,,,,,,,,,,,,,,,,,,,,,,,,,,,,,
,,,,,,610646ad915f5d7bac572e30,62c538cdac5d8d31fb792f3d,2022-07-06_10h25.27.219,Colour_Asymmetry_Pilot,2022.1.3,MacIntel,59.84082341,62c50e9c1127f2cd403a315f,0,51,51,136,1,onetwo,,,,,,,,,,,,,,,,,,,,,,,,,,,,,,,,,,,,,,,,,,,,,,,,,,,,,,,,,,,,,,,,,,,,,,,,,,,,,,,,,,,,,,,,,,,,,,,,,,,,,,,,,,,,,,,,,,,,,,,,,,,,,,,,,,,,,,,,,,,,,,,,,,,,,,,,,,,,,
,,,,,,610646ad915f5d7bac572e30,62c538cdac5d8d31fb792f3d,2022-07-06_10h25.27.219,Colour_Asymmetry_Pilot,2022.1.3,MacIntel,59.84082341,62c50e9c1127f2cd403a315f,0,52,52,138,1,twoone,,,,,,,,,,,,,,,,,,,,,,,,,,,,,,,,,,,,,,,,,,,,,,,,,,,,,,,,,,,,,,,,,,,,,,,,,,,,,,,,,,,,,,,,,,,,,,,,,,,,,,,,,,,,,,,,,,,,,,,,,,,,,,,,,,,,,,,,,,,,,,,,,,,,,,,,,,,,,
,,,,,,610646ad915f5d7bac572e30,62c538cdac5d8d31fb792f3d,2022-07-06_10h25.27.219,Colour_Asymmetry_Pilot,2022.1.3,MacIntel,59.84082341,62c50e9c1127f2cd403a315f,0,53,53,12,1,threeone,,,,,,,,,,,,,,,,,,,,,,,,,,,,,,,,,,,,,,,,,,,,,,,,,,,,,,,,,,,,,,,,,,,,,,,,,,,,,,,,,,,,,,,,,,,,,,,,,,,,,,,,,,,,,,,,,,,,,,,,,,,,,,,,,,,,,,,,,,,,,,,,,,,,,,,,,,,,,
,,,,,,610646ad915f5d7bac572e30,62c538cdac5d8d31fb792f3d,2022-07-06_10h25.27.219,Colour_Asymmetry_Pilot,2022.1.3,MacIntel,59.84082341,62c50e9c1127f2cd403a315f,0,54,54,17,1,onethree,,,,,,,,,,,,,,,,,,,,,,,,,,,,,,,,,,,,,,,,,,,,,,,,,,,,,,,,,,,,,,,,,,,,,,,,,,,,,,,,,,,,,,,,,,,,,,,,,,,,,,,,,,,,,,,,,,,,,,,,,,,,,,,,,,,,,,,,,,,,,,,,,,,,,,,,,,,,,
,,,,,,610646ad915f5d7bac572e30,62c538cdac5d8d31fb792f3d,2022-07-06_10h25.27.219,Colour_Asymmetry_Pilot,2022.1.3,MacIntel,59.84082341,62c50e9c1127f2cd403a315f,0,55,55,11,1,twofour,,,,,,,,,,,,,,,,,,,,,,,,,,,,,,,,,,,,,,,,,,,,,,,,,,,,,,,,,,,,,,,,,,,,,,,,,,,,,,,,,,,,,,,,,,,,,,,,,,,,,,,,,,,,,,,,,,,,,,,,,,,,,,,,,,,,,,,,,,,,,,,,,,,,,,,,,,,,,
,,,,,,610646ad915f5d7bac572e30,62c538cdac5d8d31fb792f3d,2022-07-06_10h25.27.219,Colour_Asymmetry_Pilot,2022.1.3,MacIntel,59.84082341,62c50e9c1127f2cd403a315f,0,56,56,58,1,twoone,,,,,,,,,,,,,,,,,,,,,,,,,,,,,,,,,,,,,,,,,,,,,,,,,,,,,,,,,,,,,,,,,,,,,,,,,,,,,,,,,,,,,,,,,,,,,,,,,,,,,,,,,,,,,,,,,,,,,,,,,,,,,,,,,,,,,,,,,,,,,,,,,,,,,,,,,,,,,
,,,,,,610646ad915f5d7bac572e30,62c538cdac5d8d31fb792f3d,2022-07-06_10h25.27.219,Colour_Asymmetry_Pilot,2022.1.3,MacIntel,59.84082341,62c50e9c1127f2cd403a315f,0,57,57,55,1,fourthree,,,,,,,,,,,,,,,,,,,,,,,,,,,,,,,,,,,,,,,,,,,,,,,,,,,,,,,,,,,,,,,,,,,,,,,,,,,,,,,,,,,,,,,,,,,,,,,,,,,,,,,,,,,,,,,,,,,,,,,,,,,,,,,,,,,,,,,,,,,,,,,,,,,,,,,,,,,,,
,,,,,,610646ad915f5d7bac572e30,62c538cdac5d8d31fb792f3d,2022-07-06_10h25.27.219,Colour_Asymmetry_Pilot,2022.1.3,MacIntel,59.84082341,62c50e9c1127f2cd403a315f,0,58,58,126,1,fourtwo,,,,,,,,,,,,,,,,,,,,,,,,,,,,,,,,,,,,,,,,,,,,,,,,,,,,,,,,,,,,,,,,,,,,,,,,,,,,,,,,,,,,,,,,,,,,,,,,,,,,,,,,,,,,,,,,,,,,,,,,,,,,,,,,,,,,,,,,,,,,,,,,,,,,,,,,,,,,,
,,,,,,610646ad915f5d7bac572e30,62c538cdac5d8d31fb792f3d,2022-07-06_10h25.27.219,Colour_Asymmetry_Pilot,2022.1.3,MacIntel,59.84082341,62c50e9c1127f2cd403a315f,0,59,59,143,1,fourthree,,,,,,,,,,,,,,,,,,,,,,,,,,,,,,,,,,,,,,,,,,,,,,,,,,,,,,,,,,,,,,,,,,,,,,,,,,,,,,,,,,,,,,,,,,,,,,,,,,,,,,,,,,,,,,,,,,,,,,,,,,,,,,,,,,,,,,,,,,,,,,,,,,,,,,,,,,,,,
,,,,,,610646ad915f5d7bac572e30,62c538cdac5d8d31fb792f3d,2022-07-06_10h25.27.219,Colour_Asymmetry_Pilot,2022.1.3,MacIntel,59.84082341,62c50e9c1127f2cd403a315f,0,60,60,50,1,twoone,,,,,,,,,,,,,,,,,,,,,,,,,,,,,,,,,,,,,,,,,,,,,,,,,,,,,,,,,,,,,,,,,,,,,,,,,,,,,,,,,,,,,,,,,,,,,,,,,,,,,,,,,,,,,,,,,,,,,,,,,,,,,,,,,,,,,,,,,,,,,,,,,,,,,,,,,,,,,
,,,,,,610646ad915f5d7bac572e30,62c538cdac5d8d31fb792f3d,2022-07-06_10h25.27.219,Colour_Asymmetry_Pilot,2022.1.3,MacIntel,59.84082341,62c50e9c1127f2cd403a315f,0,61,61,115,1,twofour,,,,,,,,,,,,,,,,,,,,,,,,,,,,,,,,,,,,,,,,,,,,,,,,,,,,,,,,,,,,,,,,,,,,,,,,,,,,,,,,,,,,,,,,,,,,,,,,,,,,,,,,,,,,,,,,,,,,,,,,,,,,,,,,,,,,,,,,,,,,,,,,,,,,,,,,,,,,,
,,,,,,610646ad915f5d7bac572e30,62c538cdac5d8d31fb792f3d,2022-07-06_10h25.27.219,Colour_Asymmetry_Pilot,2022.1.3,MacIntel,59.84082341,62c50e9c1127f2cd403a315f,0,62,62,120,1,onetwo,,,,,,,,,,,,,,,,,,,,,,,,,,,,,,,,,,,,,,,,,,,,,,,,,,,,,,,,,,,,,,,,,,,,,,,,,,,,,,,,,,,,,,,,,,,,,,,,,,,,,,,,,,,,,,,,,,,,,,,,,,,,,,,,,,,,,,,,,,,,,,,,,,,,,,,,,,,,,
,,,,,,610646ad915f5d7bac572e30,62c538cdac5d8d31fb792f3d,2022-07-06_10h25.27.219,Colour_Asymmetry_Pilot,2022.1.3,MacIntel,59.84082341,62c50e9c1127f2cd403a315f,0,63,63,127,1,fourthree,,,,,,,,,,,,,,,,,,,,,,,,,,,,,,,,,,,,,,,,,,,,,,,,,,,,,,,,,,,,,,,,,,,,,,,,,,,,,,,,,,,,,,,,,,,,,,,,,,,,,,,,,,,,,,,,,,,,,,,,,,,,,,,,,,,,,,,,,,,,,,,,,,,,,,,,,,,,,
,,,,,,610646ad915f5d7bac572e30,62c538cdac5d8d31fb792f3d,2022-07-06_10h25.27.219,Colour_Asymmetry_Pilot,2022.1.3,MacIntel,59.84082341,62c50e9c1127f2cd403a315f,0,64,64,52,1,threeone,,,,,,,,,,,,,,,,,,,,,,,,,,,,,,,,,,,,,,,,,,,,,,,,,,,,,,,,,,,,,,,,,,,,,,,,,,,,,,,,,,,,,,,,,,,,,,,,,,,,,,,,,,,,,,,,,,,,,,,,,,,,,,,,,,,,,,,,,,,,,,,,,,,,,,,,,,,,,
,,,,,,610646ad915f5d7bac572e30,62c538cdac5d8d31fb792f3d,2022-07-06_10h25.27.219,Colour_Asymmetry_Pilot,2022.1.3,MacIntel,59.84082341,62c50e9c1127f2cd403a315f,0,65,65,70,1,fourtwo,,,,,,,,,,,,,,,,,,,,,,,,,,,,,,,,,,,,,,,,,,,,,,,,,,,,,,,,,,,,,,,,,,,,,,,,,,,,,,,,,,,,,,,,,,,,,,,,,,,,,,,,,,,,,,,,,,,,,,,,,,,,,,,,,,,,,,,,,,,,,,,,,,,,,,,,,,,,,
,,,,,,610646ad915f5d7bac572e30,62c538cdac5d8d31fb792f3d,2022-07-06_10h25.27.219,Colour_Asymmetry_Pilot,2022.1.3,MacIntel,59.84082341,62c50e9c1127f2cd403a315f,0,66,66,39,1,fourthree,,,,,,,,,,,,,,,,,,,,,,,,,,,,,,,,,,,,,,,,,,,,,,,,,,,,,,,,,,,,,,,,,,,,,,,,,,,,,,,,,,,,,,,,,,,,,,,,,,,,,,,,,,,,,,,,,,,,,,,,,,,,,,,,,,,,,,,,,,,,,,,,,,,,,,,,,,,,,
,,,,,,610646ad915f5d7bac572e30,62c538cdac5d8d31fb792f3d,2022-07-06_10h25.27.219,Colour_Asymmetry_Pilot,2022.1.3,MacIntel,59.84082341,62c50e9c1127f2cd403a315f,0,67,67,73,1,onethree,,,,,,,,,,,,,,,,,,,,,,,,,,,,,,,,,,,,,,,,,,,,,,,,,,,,,,,,,,,,,,,,,,,,,,,,,,,,,,,,,,,,,,,,,,,,,,,,,,,,,,,,,,,,,,,,,,,,,,,,,,,,,,,,,,,,,,,,,,,,,,,,,,,,,,,,,,,,,
,,,,,,610646ad915f5d7bac572e30,62c538cdac5d8d31fb792f3d,2022-07-06_10h25.27.219,Colour_Asymmetry_Pilot,2022.1.3,MacIntel,59.84082341,62c50e9c1127f2cd403a315f,0,68,68,155,1,twofour,,,,,,,,,,,,,,,,,,,,,,,,,,,,,,,,,,,,,,,,,,,,,,,,,,,,,,,,,,,,,,,,,,,,,,,,,,,,,,,,,,,,,,,,,,,,,,,,,,,,,,,,,,,,,,,,,,,,,,,,,,,,,,,,,,,,,,,,,,,,,,,,,,,,,,,,,,,,,
,,,,,,610646ad915f5d7bac572e30,62c538cdac5d8d31fb792f3d,2022-07-06_10h25.27.219,Colour_Asymmetry_Pilot,2022.1.3,MacIntel,59.84082341,62c50e9c1127f2cd403a315f,0,69,69,20,1,threeone,,,,,,,,,,,,,,,,,,,,,,,,,,,,,,,,,,,,,,,,,,,,,,,,,,,,,,,,,,,,,,,,,,,,,,,,,,,,,,,,,,,,,,,,,,,,,,,,,,,,,,,,,,,,,,,,,,,,,,,,,,,,,,,,,,,,,,,,,,,,,,,,,,,,,,,,,,,,,
,,,,,,610646ad915f5d7bac572e30,62c538cdac5d8d31fb792f3d,2022-07-06_10h25.27.219,Colour_Asymmetry_Pilot,2022.1.3,MacIntel,59.84082341,62c50e9c1127f2cd403a315f,0,70,70,93,1,threefour,,,,,,,,,,,,,,,,,,,,,,,,,,,,,,,,,,,,,,,,,,,,,,,,,,,,,,,,,,,,,,,,,,,,,,,,,,,,,,,,,,,,,,,,,,,,,,,,,,,,,,,,,,,,,,,,,,,,,,,,,,,,,,,,,,,,,,,,,,,,,,,,,,,,,,,,,,,,,
,,,,,,610646ad915f5d7bac572e30,62c538cdac5d8d31fb792f3d,2022-07-06_10h25.27.219,Colour_Asymmetry_Pilot,2022.1.3,MacIntel,59.84082341,62c50e9c1127f2cd403a315f,0,71,71,110,1,fourtwo,,,,,,,,,,,,,,,,,,,,,,,,,,,,,,,,,,,,,,,,,,,,,,,,,,,,,,,,,,,,,,,,,,,,,,,,,,,,,,,,,,,,,,,,,,,,,,,,,,,,,,,,,,,,,,,,,,,,,,,,,,,,,,,,,,,,,,,,,,,,,,,,,,,,,,,,,,,,,
,,,,,,610646ad915f5d7bac572e30,62c538cdac5d8d31fb792f3d,2022-07-06_10h25.27.219,Colour_Asymmetry_Pilot,2022.1.3,MacIntel,59.84082341,62c50e9c1127f2cd403a315f,0,72,72,153,1,onethree,,,,,,,,,,,,,,,,,,,,,,,,,,,,,,,,,,,,,,,,,,,,,,,,,,,,,,,,,,,,,,,,,,,,,,,,,,,,,,,,,,,,,,,,,,,,,,,,,,,,,,,,,,,,,,,,,,,,,,,,,,,,,,,,,,,,,,,,,,,,,,,,,,,,,,,,,,,,,
,,,,,,610646ad915f5d7bac572e30,62c538cdac5d8d31fb792f3d,2022-07-06_10h25.27.219,Colour_Asymmetry_Pilot,2022.1.3,MacIntel,59.84082341,62c50e9c1127f2cd403a315f,0,73,73,157,1,threefour,,,,,,,,,,,,,,,,,,,,,,,,,,,,,,,,,,,,,,,,,,,,,,,,,,,,,,,,,,,,,,,,,,,,,,,,,,,,,,,,,,,,,,,,,,,,,,,,,,,,,,,,,,,,,,,,,,,,,,,,,,,,,,,,,,,,,,,,,,,,,,,,,,,,,,,,,,,,,
,,,,,,610646ad915f5d7bac572e30,62c538cdac5d8d31fb792f3d,2022-07-06_10h25.27.219,Colour_Asymmetry_Pilot,2022.1.3,MacIntel,59.84082341,62c50e9c1127f2cd403a315f,0,74,74,37,1,threefour,,,,,,,,,,,,,,,,,,,,,,,,,,,,,,,,,,,,,,,,,,,,,,,,,,,,,,,,,,,,,,,,,,,,,,,,,,,,,,,,,,,,,,,,,,,,,,,,,,,,,,,,,,,,,,,,,,,,,,,,,,,,,,,,,,,,,,,,,,,,,,,,,,,,,,,,,,,,,
,,,,,,610646ad915f5d7bac572e30,62c538cdac5d8d31fb792f3d,2022-07-06_10h25.27.219,Colour_Asymmetry_Pilot,2022.1.3,MacIntel,59.84082341,62c50e9c1127f2cd403a315f,0,75,75,84,1,threeone,,,,,,,,,,,,,,,,,,,,,,,,,,,,,,,,,,,,,,,,,,,,,,,,,,,,,,,,,,,,,,,,,,,,,,,,,,,,,,,,,,,,,,,,,,,,,,,,,,,,,,,,,,,,,,,,,,,,,,,,,,,,,,,,,,,,,,,,,,,,,,,,,,,,,,,,,,,,,
,,,,,,610646ad915f5d7bac572e30,62c538cdac5d8d31fb792f3d,2022-07-06_10h25.27.219,Colour_Asymmetry_Pilot,2022.1.3,MacIntel,59.84082341,62c50e9c1127f2cd403a315f,0,76,76,144,1,onetwo,,,,,,,,,,,,,,,,,,,,,,,,,,,,,,,,,,,,,,,,,,,,,,,,,,,,,,,,,,,,,,,,,,,,,,,,,,,,,,,,,,,,,,,,,,,,,,,,,,,,,,,,,,,,,,,,,,,,,,,,,,,,,,,,,,,,,,,,,,,,,,,,,,,,,,,,,,,,,
,,,,,,610646ad915f5d7bac572e30,62c538cdac5d8d31fb792f3d,2022-07-06_10h25.27.219,Colour_Asymmetry_Pilot,2022.1.3,MacIntel,59.84082341,62c50e9c1127f2cd403a315f,0,77,77,18,1,twoone,,,,,,,,,,,,,,,,,,,,,,,,,,,,,,,,,,,,,,,,,,,,,,,,,,,,,,,,,,,,,,,,,,,,,,,,,,,,,,,,,,,,,,,,,,,,,,,,,,,,,,,,,,,,,,,,,,,,,,,,,,,,,,,,,,,,,,,,,,,,,,,,,,,,,,,,,,,,,
,,,,,,610646ad915f5d7bac572e30,62c538cdac5d8d31fb792f3d,2022-07-06_10h25.27.219,Colour_Asymmetry_Pilot,2022.1.3,MacIntel,59.84082341,62c50e9c1127f2cd403a315f,0,78,78,86,1,fourtwo,,,,,,,,,,,,,,,,,,,,,,,,,,,,,,,,,,,,,,,,,,,,,,,,,,,,,,,,,,,,,,,,,,,,,,,,,,,,,,,,,,,,,,,,,,,,,,,,,,,,,,,,,,,,,,,,,,,,,,,,,,,,,,,,,,,,,,,,,,,,,,,,,,,,,,,,,,,,,
,,,,,,610646ad915f5d7bac572e30,62c538cdac5d8d31fb792f3d,2022-07-06_10h25.27.219,Colour_Asymmetry_Pilot,2022.1.3,MacIntel,59.84082341,62c50e9c1127f2cd403a315f,0,79,79,29,1,threefour,,,,,,,,,,,,,,,,,,,,,,,,,,,,,,,,,,,,,,,,,,,,,,,,,,,,,,,,,,,,,,,,,,,,,,,,,,,,,,,,,,,,,,,,,,,,,,,,,,,,,,,,,,,,,,,,,,,,,,,,,,,,,,,,,,,,,,,,,,,,,,,,,,,,,,,,,,,,,
,,,,,,610646ad915f5d7bac572e30,62c538cdac5d8d31fb792f3d,2022-07-06_10h25.27.219,Colour_Asymmetry_Pilot,2022.1.3,MacIntel,59.84082341,62c50e9c1127f2cd403a315f,0,80,80,101,1,threefour,,,,,,,,,,,,,,,,,,,,,,,,,,,,,,,,,,,,,,,,,,,,,,,,,,,,,,,,,,,,,,,,,,,,,,,,,,,,,,,,,,,,,,,,,,,,,,,,,,,,,,,,,,,,,,,,,,,,,,,,,,,,,,,,,,,,,,,,,,,,,,,,,,,,,,,,,,,,,
,,,,,,610646ad915f5d7bac572e30,62c538cdac5d8d31fb792f3d,2022-07-06_10h25.27.219,Colour_Asymmetry_Pilot,2022.1.3,MacIntel,59.84082341,62c50e9c1127f2cd403a315f,0,81,81,9,1,onethree,,,,,,,,,,,,,,,,,,,,,,,,,,,,,,,,,,,,,,,,,,,,,,,,,,,,,,,,,,,,,,,,,,,,,,,,,,,,,,,,,,,,,,,,,,,,,,,,,,,,,,,,,,,,,,,,,,,,,,,,,,,,,,,,,,,,,,,,,,,,,,,,,,,,,,,,,,,,,
,,,,,,610646ad915f5d7bac572e30,62c538cdac5d8d31fb792f3d,2022-07-06_10h25.27.219,Colour_Asymmetry_Pilot,2022.1.3,MacIntel,59.84082341,62c50e9c1127f2cd403a315f,0,82,82,57,1,onethree,,,,,,,,,,,,,,,,,,,,,,,,,,,,,,,,,,,,,,,,,,,,,,,,,,,,,,,,,,,,,,,,,,,,,,,,,,,,,,,,,,,,,,,,,,,,,,,,,,,,,,,,,,,,,,,,,,,,,,,,,,,,,,,,,,,,,,,,,,,,,,,,,,,,,,,,,,,,,
,,,,,,610646ad915f5d7bac572e30,62c538cdac5d8d31fb792f3d,2022-07-06_10h25.27.219,Colour_Asymmetry_Pilot,2022.1.3,MacIntel,59.84082341,62c50e9c1127f2cd403a315f,0,83,83,109,1,threefour,,,,,,,,,,,,,,,,,,,,,,,,,,,,,,,,,,,,,,,,,,,,,,,,,,,,,,,,,,,,,,,,,,,,,,,,,,,,,,,,,,,,,,,,,,,,,,,,,,,,,,,,,,,,,,,,,,,,,,,,,,,,,,,,,,,,,,,,,,,,,,,,,,,,,,,,,,,,,
,,,,,,610646ad915f5d7bac572e30,62c538cdac5d8d31fb792f3d,2022-07-06_10h25.27.219,Colour_Asymmetry_Pilot,2022.1.3,MacIntel,59.84082341,62c50e9c1127f2cd403a315f,0,84,84,54,1,fourtwo,,,,,,,,,,,,,,,,,,,,,,,,,,,,,,,,,,,,,,,,,,,,,,,,,,,,,,,,,,,,,,,,,,,,,,,,,,,,,,,,,,,,,,,,,,,,,,,,,,,,,,,,,,,,,,,,,,,,,,,,,,,,,,,,,,,,,,,,,,,,,,,,,,,,,,,,,,,,,
,,,,,,610646ad915f5d7bac572e30,62c538cdac5d8d31fb792f3d,2022-07-06_10h25.27.219,Colour_Asymmetry_Pilot,2022.1.3,MacIntel,59.84082341,62c50e9c1127f2cd403a315f,0,85,85,33,1,onethree,,,,,,,,,,,,,,,,,,,,,,,,,,,,,,,,,,,,,,,,,,,,,,,,,,,,,,,,,,,,,,,,,,,,,,,,,,,,,,,,,,,,,,,,,,,,,,,,,,,,,,,,,,,,,,,,,,,,,,,,,,,,,,,,,,,,,,,,,,,,,,,,,,,,,,,,,,,,,
,,,,,,610646ad915f5d7bac572e30,62c538cdac5d8d31fb792f3d,2022-07-06_10h25.27.219,Colour_Asymmetry_Pilot,2022.1.3,MacIntel,59.84082341,62c50e9c1127f2cd403a315f,0,86,86,47,1,fourthree,,,,,,,,,,,,,,,,,,,,,,,,,,,,,,,,,,,,,,,,,,,,,,,,,,,,,,,,,,,,,,,,,,,,,,,,,,,,,,,,,,,,,,,,,,,,,,,,,,,,,,,,,,,,,,,,,,,,,,,,,,,,,,,,,,,,,,,,,,,,,,,,,,,,,,,,,,,,,
,,,,,,610646ad915f5d7bac572e30,62c538cdac5d8d31fb792f3d,2022-07-06_10h25.27.219,Colour_Asymmetry_Pilot,2022.1.3,MacIntel,59.84082341,62c50e9c1127f2cd403a315f,0,87,87,71,1,fourthree,,,,,,,,,,,,,,,,,,,,,,,,,,,,,,,,,,,,,,,,,,,,,,,,,,,,,,,,,,,,,,,,,,,,,,,,,,,,,,,,,,,,,,,,,,,,,,,,,,,,,,,,,,,,,,,,,,,,,,,,,,,,,,,,,,,,,,,,,,,,,,,,,,,,,,,,,,,,,
,,,,,,610646ad915f5d7bac572e30,62c538cdac5d8d31fb792f3d,2022-07-06_10h25.27.219,Colour_Asymmetry_Pilot,2022.1.3,MacIntel,59.84082341,62c50e9c1127f2cd403a315f,0,88,88,102,1,fourtwo,,,,,,,,,,,,,,,,,,,,,,,,,,,,,,,,,,,,,,,,,,,,,,,,,,,,,,,,,,,,,,,,,,,,,,,,,,,,,,,,,,,,,,,,,,,,,,,,,,,,,,,,,,,,,,,,,,,,,,,,,,,,,,,,,,,,,,,,,,,,,,,,,,,,,,,,,,,,,
,,,,,,610646ad915f5d7bac572e30,62c538cdac5d8d31fb792f3d,2022-07-06_10h25.27.219,Colour_Asymmetry_Pilot,2022.1.3,MacIntel,59.84082341,62c50e9c1127f2cd403a315f,0,89,89,60,1,threeone,,,,,,,,,,,,,,,,,,,,,,,,,,,,,,,,,,,,,,,,,,,,,,,,,,,,,,,,,,,,,,,,,,,,,,,,,,,,,,,,,,,,,,,,,,,,,,,,,,,,,,,,,,,,,,,,,,,,,,,,,,,,,,,,,,,,,,,,,,,,,,,,,,,,,,,,,,,,,
,,,,,,610646ad915f5d7bac572e30,62c538cdac5d8d31fb792f3d,2022-07-06_10h25.27.219,Colour_Asymmetry_Pilot,2022.1.3,MacIntel,59.84082341,62c50e9c1127f2cd403a315f,0,90,90,49,1,onethree,,,,,,,,,,,,,,,,,,,,,,,,,,,,,,,,,,,,,,,,,,,,,,,,,,,,,,,,,,,,,,,,,,,,,,,,,,,,,,,,,,,,,,,,,,,,,,,,,,,,,,,,,,,,,,,,,,,,,,,,,,,,,,,,,,,,,,,,,,,,,,,,,,,,,,,,,,,,,
,,,,,,610646ad915f5d7bac572e30,62c538cdac5d8d31fb792f3d,2022-07-06_10h25.27.219,Colour_Asymmetry_Pilot,2022.1.3,MacIntel,59.84082341,62c50e9c1127f2cd403a315f,0,91,91,137,1,onethree,,,,,,,,,,,,,,,,,,,,,,,,,,,,,,,,,,,,,,,,,,,,,,,,,,,,,,,,,,,,,,,,,,,,,,,,,,,,,,,,,,,,,,,,,,,,,,,,,,,,,,,,,,,,,,,,,,,,,,,,,,,,,,,,,,,,,,,,,,,,,,,,,,,,,,,,,,,,,
,,,,,,610646ad915f5d7bac572e30,62c538cdac5d8d31fb792f3d,2022-07-06_10h25.27.219,Colour_Asymmetry_Pilot,2022.1.3,MacIntel,59.84082341,62c50e9c1127f2cd403a315f,0,92,92,125,1,threefour,,,,,,,,,,,,,,,,,,,,,,,,,,,,,,,,,,,,,,,,,,,,,,,,,,,,,,,,,,,,,,,,,,,,,,,,,,,,,,,,,,,,,,,,,,,,,,,,,,,,,,,,,,,,,,,,,,,,,,,,,,,,,,,,,,,,,,,,,,,,,,,,,,,,,,,,,,,,,
,,,,,,610646ad915f5d7bac572e30,62c538cdac5d8d31fb792f3d,2022-07-06_10h25.27.219,Colour_Asymmetry_Pilot,2022.1.3,MacIntel,59.84082341,62c50e9c1127f2cd403a315f,0,93,93,129,1,onethree,,,,,,,,,,,,,,,,,,,,,,,,,,,,,,,,,,,,,,,,,,,,,,,,,,,,,,,,,,,,,,,,,,,,,,,,,,,,,,,,,,,,,,,,,,,,,,,,,,,,,,,,,,,,,,,,,,,,,,,,,,,,,,,,,,,,,,,,,,,,,,,,,,,,,,,,,,,,,
,,,,,,610646ad915f5d7bac572e30,62c538cdac5d8d31fb792f3d,2022-07-06_10h25.27.219,Colour_Asymmetry_Pilot,2022.1.3,MacIntel,59.84082341,62c50e9c1127f2cd403a315f,0,94,94,117,1,threefour,,,,,,,,,,,,,,,,,,,,,,,,,,,,,,,,,,,,,,,,,,,,,,,,,,,,,,,,,,,,,,,,,,,,,,,,,,,,,,,,,,,,,,,,,,,,,,,,,,,,,,,,,,,,,,,,,,,,,,,,,,,,,,,,,,,,,,,,,,,,,,,,,,,,,,,,,,,,,
,,,,,,610646ad915f5d7bac572e30,62c538cdac5d8d31fb792f3d,2022-07-06_10h25.27.219,Colour_Asymmetry_Pilot,2022.1.3,MacIntel,59.84082341,62c50e9c1127f2cd403a315f,0,95,95,103,1,fourthree,,,,,,,,,,,,,,,,,,,,,,,,,,,,,,,,,,,,,,,,,,,,,,,,,,,,,,,,,,,,,,,,,,,,,,,,,,,,,,,,,,,,,,,,,,,,,,,,,,,,,,,,,,,,,,,,,,,,,,,,,,,,,,,,,,,,,,,,,,,,,,,,,,,,,,,,,,,,,
,,,,,,610646ad915f5d7bac572e30,62c538cdac5d8d31fb792f3d,2022-07-06_10h25.27.219,Colour_Asymmetry_Pilot,2022.1.3,MacIntel,59.84082341,62c50e9c1127f2cd403a315f,0,96,96,10,1,twoone,,,,,,,,,,,,,,,,,,,,,,,,,,,,,,,,,,,,,,,,,,,,,,,,,,,,,,,,,,,,,,,,,,,,,,,,,,,,,,,,,,,,,,,,,,,,,,,,,,,,,,,,,,,,,,,,,,,,,,,,,,,,,,,,,,,,,,,,,,,,,,,,,,,,,,,,,,,,,
,,,,,,610646ad915f5d7bac572e30,62c538cdac5d8d31fb792f3d,2022-07-06_10h25.27.219,Colour_Asymmetry_Pilot,2022.1.3,MacIntel,59.84082341,62c50e9c1127f2cd403a315f,0,97,97,77,1,threefour,,,,,,,,,,,,,,,,,,,,,,,,,,,,,,,,,,,,,,,,,,,,,,,,,,,,,,,,,,,,,,,,,,,,,,,,,,,,,,,,,,,,,,,,,,,,,,,,,,,,,,,,,,,,,,,,,,,,,,,,,,,,,,,,,,,,,,,,,,,,,,,,,,,,,,,,,,,,,
,,,,,,610646ad915f5d7bac572e30,62c538cdac5d8d31fb792f3d,2022-07-06_10h25.27.219,Colour_Asymmetry_Pilot,2022.1.3,MacIntel,59.84082341,62c50e9c1127f2cd403a315f,0,98,98,87,1,fourthree,,,,,,,,,,,,,,,,,,,,,,,,,,,,,,,,,,,,,,,,,,,,,,,,,,,,,,,,,,,,,,,,,,,,,,,,,,,,,,,,,,,,,,,,,,,,,,,,,,,,,,,,,,,,,,,,,,,,,,,,,,,,,,,,,,,,,,,,,,,,,,,,,,,,,,,,,,,,,
,,,,,,610646ad915f5d7bac572e30,62c538cdac5d8d31fb792f3d,2022-07-06_10h25.27.219,Colour_Asymmetry_Pilot,2022.1.3,MacIntel,59.84082341,62c50e9c1127f2cd403a315f,0,99,99,121,1,onethree,,,,,,,,,,,,,,,,,,,,,,,,,,,,,,,,,,,,,,,,,,,,,,,,,,,,,,,,,,,,,,,,,,,,,,,,,,,,,,,,,,,,,,,,,,,,,,,,,,,,,,,,,,,,,,,,,,,,,,,,,,,,,,,,,,,,,,,,,,,,,,,,,,,,,,,,,,,,,
,,,,,,610646ad915f5d7bac572e30,62c538cdac5d8d31fb792f3d,2022-07-06_10h25.27.219,Colour_Asymmetry_Pilot,2022.1.3,MacIntel,59.84082341,62c50e9c1127f2cd403a315f,0,100,100,30,1,fourtwo,,,,,,,,,,,,,,,,,,,,,,,,,,,,,,,,,,,,,,,,,,,,,,,,,,,,,,,,,,,,,,,,,,,,,,,,,,,,,,,,,,,,,,,,,,,,,,,,,,,,,,,,,,,,,,,,,,,,,,,,,,,,,,,,,,,,,,,,,,,,,,,,,,,,,,,,,,,,,
,,,,,,610646ad915f5d7bac572e30,62c538cdac5d8d31fb792f3d,2022-07-06_10h25.27.219,Colour_Asymmetry_Pilot,2022.1.3,MacIntel,59.84082341,62c50e9c1127f2cd403a315f,0,101,101,48,1,onetwo,,,,,,,,,,,,,,,,,,,,,,,,,,,,,,,,,,,,,,,,,,,,,,,,,,,,,,,,,,,,,,,,,,,,,,,,,,,,,,,,,,,,,,,,,,,,,,,,,,,,,,,,,,,,,,,,,,,,,,,,,,,,,,,,,,,,,,,,,,,,,,,,,,,,,,,,,,,,,
,,,,,,610646ad915f5d7bac572e30,62c538cdac5d8d31fb792f3d,2022-07-06_10h25.27.219,Colour_Asymmetry_Pilot,2022.1.3,MacIntel,59.84082341,62c50e9c1127f2cd403a315f,0,102,102,23,1,fourthree,,,,,,,,,,,,,,,,,,,,,,,,,,,,,,,,,,,,,,,,,,,,,,,,,,,,,,,,,,,,,,,,,,,,,,,,,,,,,,,,,,,,,,,,,,,,,,,,,,,,,,,,,,,,,,,,,,,,,,,,,,,,,,,,,,,,,,,,,,,,,,,,,,,,,,,,,,,,,
,,,,,,610646ad915f5d7bac572e30,62c538cdac5d8d31fb792f3d,2022-07-06_10h25.27.219,Colour_Asymmetry_Pilot,2022.1.3,MacIntel,59.84082341,62c50e9c1127f2cd403a315f,0,103,103,124,1,threeone,,,,,,,,,,,,,,,,,,,,,,,,,,,,,,,,,,,,,,,,,,,,,,,,,,,,,,,,,,,,,,,,,,,,,,,,,,,,,,,,,,,,,,,,,,,,,,,,,,,,,,,,,,,,,,,,,,,,,,,,,,,,,,,,,,,,,,,,,,,,,,,,,,,,,,,,,,,,,
,,,,,,610646ad915f5d7bac572e30,62c538cdac5d8d31fb792f3d,2022-07-06_10h25.27.219,Colour_Asymmetry_Pilot,2022.1.3,MacIntel,59.84082341,62c50e9c1127f2cd403a315f,0,104,104,135,1,fourthree,,,,,,,,,,,,,,,,,,,,,,,,,,,,,,,,,,,,,,,,,,,,,,,,,,,,,,,,,,,,,,,,,,,,,,,,,,,,,,,,,,,,,,,,,,,,,,,,,,,,,,,,,,,,,,,,,,,,,,,,,,,,,,,,,,,,,,,,,,,,,,,,,,,,,,,,,,,,,
,,,,,,610646ad915f5d7bac572e30,62c538cdac5d8d31fb792f3d,2022-07-06_10h25.27.219,Colour_Asymmetry_Pilot,2022.1.3,MacIntel,59.84082341,62c50e9c1127f2cd403a315f,0,105,105,13,1,threefour,,,,,,,,,,,,,,,,,,,,,,,,,,,,,,,,,,,,,,,,,,,,,,,,,,,,,,,,,,,,,,,,,,,,,,,,,,,,,,,,,,,,,,,,,,,,,,,,,,,,,,,,,,,,,,,,,,,,,,,,,,,,,,,,,,,,,,,,,,,,,,,,,,,,,,,,,,,,,
,,,,,,610646ad915f5d7bac572e30,62c538cdac5d8d31fb792f3d,2022-07-06_10h25.27.219,Colour_Asymmetry_Pilot,2022.1.3,MacIntel,59.84082341,62c50e9c1127f2cd403a315f,0,106,106,66,1,twoone,,,,,,,,,,,,,,,,,,,,,,,,,,,,,,,,,,,,,,,,,,,,,,,,,,,,,,,,,,,,,,,,,,,,,,,,,,,,,,,,,,,,,,,,,,,,,,,,,,,,,,,,,,,,,,,,,,,,,,,,,,,,,,,,,,,,,,,,,,,,,,,,,,,,,,,,,,,,,
,,,,,,610646ad915f5d7bac572e30,62c538cdac5d8d31fb792f3d,2022-07-06_10h25.27.219,Colour_Asymmetry_Pilot,2022.1.3,MacIntel,59.84082341,62c50e9c1127f2cd403a315f,0,107,107,108,1,threeone,,,,,,,,,,,,,,,,,,,,,,,,,,,,,,,,,,,,,,,,,,,,,,,,,,,,,,,,,,,,,,,,,,,,,,,,,,,,,,,,,,,,,,,,,,,,,,,,,,,,,,,,,,,,,,,,,,,,,,,,,,,,,,,,,,,,,,,,,,,,,,,,,,,,,,,,,,,,,
,,,,,,610646ad915f5d7bac572e30,62c538cdac5d8d31fb792f3d,2022-07-06_10h25.27.219,Colour_Asymmetry_Pilot,2022.1.3,MacIntel,59.84082341,62c50e9c1127f2cd403a315f,0,108,108,114,1,twoone,,,,,,,,,,,,,,,,,,,,,,,,,,,,,,,,,,,,,,,,,,,,,,,,,,,,,,,,,,,,,,,,,,,,,,,,,,,,,,,,,,,,,,,,,,,,,,,,,,,,,,,,,,,,,,,,,,,,,,,,,,,,,,,,,,,,,,,,,,,,,,,,,,,,,,,,,,,,,
,,,,,,610646ad915f5d7bac572e30,62c538cdac5d8d31fb792f3d,2022-07-06_10h25.27.219,Colour_Asymmetry_Pilot,2022.1.3,MacIntel,59.84082341,62c50e9c1127f2cd403a315f,0,109,109,92,1,threeone,,,,,,,,,,,,,,,,,,,,,,,,,,,,,,,,,,,,,,,,,,,,,,,,,,,,,,,,,,,,,,,,,,,,,,,,,,,,,,,,,,,,,,,,,,,,,,,,,,,,,,,,,,,,,,,,,,,,,,,,,,,,,,,,,,,,,,,,,,,,,,,,,,,,,,,,,,,,,
,,,,,,610646ad915f5d7bac572e30,62c538cdac5d8d31fb792f3d,2022-07-06_10h25.27.219,Colour_Asymmetry_Pilot,2022.1.3,MacIntel,59.84082341,62c50e9c1127f2cd403a315f,0,110,110,96,1,onetwo,,,,,,,,,,,,,,,,,,,,,,,,,,,,,,,,,,,,,,,,,,,,,,,,,,,,,,,,,,,,,,,,,,,,,,,,,,,,,,,,,,,,,,,,,,,,,,,,,,,,,,,,,,,,,,,,,,,,,,,,,,,,,,,,,,,,,,,,,,,,,,,,,,,,,,,,,,,,,
,,,,,,610646ad915f5d7bac572e30,62c538cdac5d8d31fb792f3d,2022-07-06_10h25.27.219,Colour_Asymmetry_Pilot,2022.1.3,MacIntel,59.84082341,62c50e9c1127f2cd403a315f,0,111,111,85,1,threefour,,,,,,,,,,,,,,,,,,,,,,,,,,,,,,,,,,,,,,,,,,,,,,,,,,,,,,,,,,,,,,,,,,,,,,,,,,,,,,,,,,,,,,,,,,,,,,,,,,,,,,,,,,,,,,,,,,,,,,,,,,,,,,,,,,,,,,,,,,,,,,,,,,,,,,,,,,,,,
,,,,,,610646ad915f5d7bac572e30,62c538cdac5d8d31fb792f3d,2022-07-06_10h25.27.219,Colour_Asymmetry_Pilot,2022.1.3,MacIntel,59.84082341,62c50e9c1127f2cd403a315f,0,112,112,146,1,twoone,,,,,,,,,,,,,,,,,,,,,,,,,,,,,,,,,,,,,,,,,,,,,,,,,,,,,,,,,,,,,,,,,,,,,,,,,,,,,,,,,,,,,,,,,,,,,,,,,,,,,,,,,,,,,,,,,,,,,,,,,,,,,,,,,,,,,,,,,,,,,,,,,,,,,,,,,,,,,
,,,,,,610646ad915f5d7bac572e30,62c538cdac5d8d31fb792f3d,2022-07-06_10h25.27.219,Colour_Asymmetry_Pilot,2022.1.3,MacIntel,59.84082341,62c50e9c1127f2cd403a315f,0,113,113,151,1,fourthree,,,,,,,,,,,,,,,,,,,,,,,,,,,,,,,,,,,,,,,,,,,,,,,,,,,,,,,,,,,,,,,,,,,,,,,,,,,,,,,,,,,,,,,,,,,,,,,,,,,,,,,,,,,,,,,,,,,,,,,,,,,,,,,,,,,,,,,,,,,,,,,,,,,,,,,,,,,,,
,,,,,,610646ad915f5d7bac572e30,62c538cdac5d8d31fb792f3d,2022-07-06_10h25.27.219,Colour_Asymmetry_Pilot,2022.1.3,MacIntel,59.84082341,62c50e9c1127f2cd403a315f,0,114,114,41,1,onethree,,,,,,,,,,,,,,,,,,,,,,,,,,,,,,,,,,,,,,,,,,,,,,,,,,,,,,,,,,,,,,,,,,,,,,,,,,,,,,,,,,,,,,,,,,,,,,,,,,,,,,,,,,,,,,,,,,,,,,,,,,,,,,,,,,,,,,,,,,,,,,,,,,,,,,,,,,,,,
,,,,,,610646ad915f5d7bac572e30,62c538cdac5d8d31fb792f3d,2022-07-06_10h25.27.219,Colour_Asymmetry_Pilot,2022.1.3,MacIntel,59.84082341,62c50e9c1127f2cd403a315f,0,115,115,118,1,fourtwo,,,,,,,,,,,,,,,,,,,,,,,,,,,,,,,,,,,,,,,,,,,,,,,,,,,,,,,,,,,,,,,,,,,,,,,,,,,,,,,,,,,,,,,,,,,,,,,,,,,,,,,,,,,,,,,,,,,,,,,,,,,,,,,,,,,,,,,,,,,,,,,,,,,,,,,,,,,,,
,,,,,,610646ad915f5d7bac572e30,62c538cdac5d8d31fb792f3d,2022-07-06_10h25.27.219,Colour_Asymmetry_Pilot,2022.1.3,MacIntel,59.84082341,62c50e9c1127f2cd403a315f,0,116,116,69,1,threefour,,,,,,,,,,,,,,,,,,,,,,,,,,,,,,,,,,,,,,,,,,,,,,,,,,,,,,,,,,,,,,,,,,,,,,,,,,,,,,,,,,,,,,,,,,,,,,,,,,,,,,,,,,,,,,,,,,,,,,,,,,,,,,,,,,,,,,,,,,,,,,,,,,,,,,,,,,,,,
,,,,,,610646ad915f5d7bac572e30,62c538cdac5d8d31fb792f3d,2022-07-06_10h25.27.219,Colour_Asymmetry_Pilot,2022.1.3,MacIntel,59.84082341,62c50e9c1127f2cd403a315f,0,117,117,79,1,fourthree,,,,,,,,,,,,,,,,,,,,,,,,,,,,,,,,,,,,,,,,,,,,,,,,,,,,,,,,,,,,,,,,,,,,,,,,,,,,,,,,,,,,,,,,,,,,,,,,,,,,,,,,,,,,,,,,,,,,,,,,,,,,,,,,,,,,,,,,,,,,,,,,,,,,,,,,,,,,,
,,,,,,610646ad915f5d7bac572e30,62c538cdac5d8d31fb792f3d,2022-07-06_10h25.27.219,Colour_Asymmetry_Pilot,2022.1.3,MacIntel,59.84082341,62c50e9c1127f2cd403a315f,0,118,118,53,1,threefour,,,,,,,,,,,,,,,,,,,,,,,,,,,,,,,,,,,,,,,,,,,,,,,,,,,,,,,,,,,,,,,,,,,,,,,,,,,,,,,,,,,,,,,,,,,,,,,,,,,,,,,,,,,,,,,,,,,,,,,,,,,,,,,,,,,,,,,,,,,,,,,,,,,,,,,,,,,,,
,,,,,,610646ad915f5d7bac572e30,62c538cdac5d8d31fb792f3d,2022-07-06_10h25.27.219,Colour_Asymmetry_Pilot,2022.1.3,MacIntel,59.84082341,62c50e9c1127f2cd403a315f,0,119,119,104,1,onetwo,,,,,,,,,,,,,,,,,,,,,,,,,,,,,,,,,,,,,,,,,,,,,,,,,,,,,,,,,,,,,,,,,,,,,,,,,,,,,,,,,,,,,,,,,,,,,,,,,,,,,,,,,,,,,,,,,,,,,,,,,,,,,,,,,,,,,,,,,,,,,,,,,,,,,,,,,,,,,
,,,,,,610646ad915f5d7bac572e30,62c538cdac5d8d31fb792f3d,2022-07-06_10h25.27.219,Colour_Asymmetry_Pilot,2022.1.3,MacIntel,59.84082341,62c50e9c1127f2cd403a315f,0,120,120,148,1,threeone,,,,,,,,,,,,,,,,,,,,,,,,,,,,,,,,,,,,,,,,,,,,,,,,,,,,,,,,,,,,,,,,,,,,,,,,,,,,,,,,,,,,,,,,,,,,,,,,,,,,,,,,,,,,,,,,,,,,,,,,,,,,,,,,,,,,,,,,,,,,,,,,,,,,,,,,,,,,,
,,,,,,610646ad915f5d7bac572e30,62c538cdac5d8d31fb792f3d,2022-07-06_10h25.27.219,Colour_Asymmetry_Pilot,2022.1.3,MacIntel,59.84082341,62c50e9c1127f2cd403a315f,0,121,121,3,1,twofour,,,,,,,,,,,,,,,,,,,,,,,,,,,,,,,,,,,,,,,,,,,,,,,,,,,,,,,,,,,,,,,,,,,,,,,,,,,,,,,,,,,,,,,,,,,,,,,,,,,,,,,,,,,,,,,,,,,,,,,,,,,,,,,,,,,,,,,,,,,,,,,,,,,,,,,,,,,,,
,,,,,,610646ad915f5d7bac572e30,62c538cdac5d8d31fb792f3d,2022-07-06_10h25.27.219,Colour_Asymmetry_Pilot,2022.1.3,MacIntel,59.84082341,62c50e9c1127f2cd403a315f,0,122,122,161,1,onethree,,,,,,,,,,,,,,,,,,,,,,,,,,,,,,,,,,,,,,,,,,,,,,,,,,,,,,,,,,,,,,,,,,,,,,,,,,,,,,,,,,,,,,,,,,,,,,,,,,,,,,,,,,,,,,,,,,,,,,,,,,,,,,,,,,,,,,,,,,,,,,,,,,,,,,,,,,,,,
,,,,,,610646ad915f5d7bac572e30,62c538cdac5d8d31fb792f3d,2022-07-06_10h25.27.219,Colour_Asymmetry_Pilot,2022.1.3,MacIntel,59.84082341,62c50e9c1127f2cd403a315f,0,123,123,25,1,onethree,,,,,,,,,,,,,,,,,,,,,,,,,,,,,,,,,,,,,,,,,,,,,,,,,,,,,,,,,,,,,,,,,,,,,,,,,,,,,,,,,,,,,,,,,,,,,,,,,,,,,,,,,,,,,,,,,,,,,,,,,,,,,,,,,,,,,,,,,,,,,,,,,,,,,,,,,,,,,
,,,,,,610646ad915f5d7bac572e30,62c538cdac5d8d31fb792f3d,2022-07-06_10h25.27.219,Colour_Asymmetry_Pilot,2022.1.3,MacIntel,59.84082341,62c50e9c1127f2cd403a315f,0,124,124,160,1,onetwo,,,,,,,,,,,,,,,,,,,,,,,,,,,,,,,,,,,,,,,,,,,,,,,,,,,,,,,,,,,,,,,,,,,,,,,,,,,,,,,,,,,,,,,,,,,,,,,,,,,,,,,,,,,,,,,,,,,,,,,,,,,,,,,,,,,,,,,,,,,,,,,,,,,,,,,,,,,,,
,,,,,,610646ad915f5d7bac572e30,62c538cdac5d8d31fb792f3d,2022-07-06_10h25.27.219,Colour_Asymmetry_Pilot,2022.1.3,MacIntel,59.84082341,62c50e9c1127f2cd403a315f,0,125,125,100,1,threeone,,,,,,,,,,,,,,,,,,,,,,,,,,,,,,,,,,,,,,,,,,,,,,,,,,,,,,,,,,,,,,,,,,,,,,,,,,,,,,,,,,,,,,,,,,,,,,,,,,,,,,,,,,,,,,,,,,,,,,,,,,,,,,,,,,,,,,,,,,,,,,,,,,,,,,,,,,,,,
,,,,,,610646ad915f5d7bac572e30,62c538cdac5d8d31fb792f3d,2022-07-06_10h25.27.219,Colour_Asymmetry_Pilot,2022.1.3,MacIntel,59.84082341,62c50e9c1127f2cd403a315f,0,126,126,7,1,fourthree,,,,,,,,,,,,,,,,,,,,,,,,,,,,,,,,,,,,,,,,,,,,,,,,,,,,,,,,,,,,,,,,,,,,,,,,,,,,,,,,,,,,,,,,,,,,,,,,,,,,,,,,,,,,,,,,,,,,,,,,,,,,,,,,,,,,,,,,,,,,,,,,,,,,,,,,,,,,,
,,,,,,610646ad915f5d7bac572e30,62c538cdac5d8d31fb792f3d,2022-07-06_10h25.27.219,Colour_Asymmetry_Pilot,2022.1.3,MacIntel,59.84082341,62c50e9c1127f2cd403a315f,0,127,127,106,1,twoone,,,,,,,,,,,,,,,,,,,,,,,,,,,,,,,,,,,,,,,,,,,,,,,,,,,,,,,,,,,,,,,,,,,,,,,,,,,,,,,,,,,,,,,,,,,,,,,,,,,,,,,,,,,,,,,,,,,,,,,,,,,,,,,,,,,,,,,,,,,,,,,,,,,,,,,,,,,,,
,,,,,,610646ad915f5d7bac572e30,62c538cdac5d8d31fb792f3d,2022-07-06_10h25.27.219,Colour_Asymmetry_Pilot,2022.1.3,MacIntel,59.84082341,62c50e9c1127f2cd403a315f,0,128,128,97,1,onethree,,,,,,,,,,,,,,,,,,,,,,,,,,,,,,,,,,,,,,,,,,,,,,,,,,,,,,,,,,,,,,,,,,,,,,,,,,,,,,,,,,,,,,,,,,,,,,,,,,,,,,,,,,,,,,,,,,,,,,,,,,,,,,,,,,,,,,,,,,,,,,,,,,,,,,,,,,,,,
,,,,,,610646ad915f5d7bac572e30,62c538cdac5d8d31fb792f3d,2022-07-06_10h25.27.219,Colour_Asymmetry_Pilot,2022.1.3,MacIntel,59.84082341,62c50e9c1127f2cd403a315f,0,129,129,68,1,threeone,,,,,,,,,,,,,,,,,,,,,,,,,,,,,,,,,,,,,,,,,,,,,,,,,,,,,,,,,,,,,,,,,,,,,,,,,,,,,,,,,,,,,,,,,,,,,,,,,,,,,,,,,,,,,,,,,,,,,,,,,,,,,,,,,,,,,,,,,,,,,,,,,,,,,,,,,,,,,
,,,,,,610646ad915f5d7bac572e30,62c538cdac5d8d31fb792f3d,2022-07-06_10h25.27.219,Colour_Asymmetry_Pilot,2022.1.3,MacIntel,59.84082341,62c50e9c1127f2cd403a315f,0,130,130,72,1,onetwo,,,,,,,,,,,,,,,,,,,,,,,,,,,,,,,,,,,,,,,,,,,,,,,,,,,,,,,,,,,,,,,,,,,,,,,,,,,,,,,,,,,,,,,,,,,,,,,,,,,,,,,,,,,,,,,,,,,,,,,,,,,,,,,,,,,,,,,,,,,,,,,,,,,,,,,,,,,,,
,,,,,,610646ad915f5d7bac572e30,62c538cdac5d8d31fb792f3d,2022-07-06_10h25.27.219,Colour_Asymmetry_Pilot,2022.1.3,MacIntel,59.84082341,62c50e9c1127f2cd403a315f,0,131,131,123,1,twofour,,,,,,,,,,,,,,,,,,,,,,,,,,,,,,,,,,,,,,,,,,,,,,,,,,,,,,,,,,,,,,,,,,,,,,,,,,,,,,,,,,,,,,,,,,,,,,,,,,,,,,,,,,,,,,,,,,,,,,,,,,,,,,,,,,,,,,,,,,,,,,,,,,,,,,,,,,,,,
,,,,,,610646ad915f5d7bac572e30,62c538cdac5d8d31fb792f3d,2022-07-06_10h25.27.219,Colour_Asymmetry_Pilot,2022.1.3,MacIntel,59.84082341,62c50e9c1127f2cd403a315f,0,132,132,131,1,twofour,,,,,,,,,,,,,,,,,,,,,,,,,,,,,,,,,,,,,,,,,,,,,,,,,,,,,,,,,,,,,,,,,,,,,,,,,,,,,,,,,,,,,,,,,,,,,,,,,,,,,,,,,,,,,,,,,,,,,,,,,,,,,,,,,,,,,,,,,,,,,,,,,,,,,,,,,,,,,
,,,,,,610646ad915f5d7bac572e30,62c538cdac5d8d31fb792f3d,2022-07-06_10h25.27.219,Colour_Asymmetry_Pilot,2022.1.3,MacIntel,59.84082341,62c50e9c1127f2cd403a315f,0,133,133,130,1,twoone,,,,,,,,,,,,,,,,,,,,,,,,,,,,,,,,,,,,,,,,,,,,,,,,,,,,,,,,,,,,,,,,,,,,,,,,,,,,,,,,,,,,,,,,,,,,,,,,,,,,,,,,,,,,,,,,,,,,,,,,,,,,,,,,,,,,,,,,,,,,,,,,,,,,,,,,,,,,,
,,,,,,610646ad915f5d7bac572e30,62c538cdac5d8d31fb792f3d,2022-07-06_10h25.27.219,Colour_Asymmetry_Pilot,2022.1.3,MacIntel,59.84082341,62c50e9c1127f2cd403a315f,0,134,134,122,1,twoone,,,,,,,,,,,,,,,,,,,,,,,,,,,,,,,,,,,,,,,,,,,,,,,,,,,,,,,,,,,,,,,,,,,,,,,,,,,,,,,,,,,,,,,,,,,,,,,,,,,,,,,,,,,,,,,,,,,,,,,,,,,,,,,,,,,,,,,,,,,,,,,,,,,,,,,,,,,,,
,,,,,,610646ad915f5d7bac572e30,62c538cdac5d8d31fb792f3d,2022-07-06_10h25.27.219,Colour_Asymmetry_Pilot,2022.1.3,MacIntel,59.84082341,62c50e9c1127f2cd403a315f,0,135,135,16,1,onetwo,,,,,,,,,,,,,,,,,,,,,,,,,,,,,,,,,,,,,,,,,,,,,,,,,,,,,,,,,,,,,,,,,,,,,,,,,,,,,,,,,,,,,,,,,,,,,,,,,,,,,,,,,,,,,,,,,,,,,,,,,,,,,,,,,,,,,,,,,,,,,,,,,,,,,,,,,,,,,
,,,,,,610646ad915f5d7bac572e30,62c538cdac5d8d31fb792f3d,2022-07-06_10h25.27.219,Colour_Asymmetry_Pilot,2022.1.3,MacIntel,59.84082341,62c50e9c1127f2cd403a315f,0,136,136,2,1,twoone,,,,,,,,,,,,,,,,,,,,,,,,,,,,,,,,,,,,,,,,,,,,,,,,,,,,,,,,,,,,,,,,,,,,,,,,,,,,,,,,,,,,,,,,,,,,,,,,,,,,,,,,,,,,,,,,,,,,,,,,,,,,,,,,,,,,,,,,,,,,,,,,,,,,,,,,,,,,,
,,,,,,610646ad915f5d7bac572e30,62c538cdac5d8d31fb792f3d,2022-07-06_10h25.27.219,Colour_Asymmetry_Pilot,2022.1.3,MacIntel,59.84082341,62c50e9c1127f2cd403a315f,0,137,137,63,1,fourthree,,,,,,,,,,,,,,,,,,,,,,,,,,,,,,,,,,,,,,,,,,,,,,,,,,,,,,,,,,,,,,,,,,,,,,,,,,,,,,,,,,,,,,,,,,,,,,,,,,,,,,,,,,,,,,,,,,,,,,,,,,,,,,,,,,,,,,,,,,,,,,,,,,,,,,,,,,,,,
,,,,,,610646ad915f5d7bac572e30,62c538cdac5d8d31fb792f3d,2022-07-06_10h25.27.219,Colour_Asymmetry_Pilot,2022.1.3,MacIntel,59.84082341,62c50e9c1127f2cd403a315f,0,138,138,59,1,twofour,,,,,,,,,,,,,,,,,,,,,,,,,,,,,,,,,,,,,,,,,,,,,,,,,,,,,,,,,,,,,,,,,,,,,,,,,,,,,,,,,,,,,,,,,,,,,,,,,,,,,,,,,,,,,,,,,,,,,,,,,,,,,,,,,,,,,,,,,,,,,,,,,,,,,,,,,,,,,
,,,,,,610646ad915f5d7bac572e30,62c538cdac5d8d31fb792f3d,2022-07-06_10h25.27.219,Colour_Asymmetry_Pilot,2022.1.3,MacIntel,59.84082341,62c50e9c1127f2cd403a315f,0,139,139,67,1,twofour,,,,,,,,,,,,,,,,,,,,,,,,,,,,,,,,,,,,,,,,,,,,,,,,,,,,,,,,,,,,,,,,,,,,,,,,,,,,,,,,,,,,,,,,,,,,,,,,,,,,,,,,,,,,,,,,,,,,,,,,,,,,,,,,,,,,,,,,,,,,,,,,,,,,,,,,,,,,,
,,,,,,610646ad915f5d7bac572e30,62c538cdac5d8d31fb792f3d,2022-07-06_10h25.27.219,Colour_Asymmetry_Pilot,2022.1.3,MacIntel,59.84082341,62c50e9c1127f2cd403a315f,0,140,140,15,1,fourthree,,,,,,,,,,,,,,,,,,,,,,,,,,,,,,,,,,,,,,,,,,,,,,,,,,,,,,,,,,,,,,,,,,,,,,,,,,,,,,,,,,,,,,,,,,,,,,,,,,,,,,,,,,,,,,,,,,,,,,,,,,,,,,,,,,,,,,,,,,,,,,,,,,,,,,,,,,,,,
,,,,,,610646ad915f5d7bac572e30,62c538cdac5d8d31fb792f3d,2022-07-06_10h25.27.219,Colour_Asymmetry_Pilot,2022.1.3,MacIntel,59.84082341,62c50e9c1127f2cd403a315f,0,141,141,150,1,fourtwo,,,,,,,,,,,,,,,,,,,,,,,,,,,,,,,,,,,,,,,,,,,,,,,,,,,,,,,,,,,,,,,,,,,,,,,,,,,,,,,,,,,,,,,,,,,,,,,,,,,,,,,,,,,,,,,,,,,,,,,,,,,,,,,,,,,,,,,,,,,,,,,,,,,,,,,,,,,,,
,,,,,,610646ad915f5d7bac572e30,62c538cdac5d8d31fb792f3d,2022-07-06_10h25.27.219,Colour_Asymmetry_Pilot,2022.1.3,MacIntel,59.84082341,62c50e9c1127f2cd403a315f,0,142,142,19,1,twofour,,,,,,,,,,,,,,,,,,,,,,,,,,,,,,,,,,,,,,,,,,,,,,,,,,,,,,,,,,,,,,,,,,,,,,,,,,,,,,,,,,,,,,,,,,,,,,,,,,,,,,,,,,,,,,,,,,,,,,,,,,,,,,,,,,,,,,,,,,,,,,,,,,,,,,,,,,,,,
,,,,,,610646ad915f5d7bac572e30,62c538cdac5d8d31fb792f3d,2022-07-06_10h25.27.219,Colour_Asymmetry_Pilot,2022.1.3,MacIntel,59.84082341,62c50e9c1127f2cd403a315f,0,143,143,5,1,threefour,,,,,,,,,,,,,,,,,,,,,,,,,,,,,,,,,,,,,,,,,,,,,,,,,,,,,,,,,,,,,,,,,,,,,,,,,,,,,,,,,,,,,,,,,,,,,,,,,,,,,,,,,,,,,,,,,,,,,,,,,,,,,,,,,,,,,,,,,,,,,,,,,,,,,,,,,,,,,
,,,,,,610646ad915f5d7bac572e30,62c538cdac5d8d31fb792f3d,2022-07-06_10h25.27.219,Colour_Asymmetry_Pilot,2022.1.3,MacIntel,59.84082341,62c50e9c1127f2cd403a315f,0,144,144,140,1,threeone,,,,,,,,,,,,,,,,,,,,,,,,,,,,,,,,,,,,,,,,,,,,,,,,,,,,,,,,,,,,,,,,,,,,,,,,,,,,,,,,,,,,,,,,,,,,,,,,,,,,,,,,,,,,,,,,,,,,,,,,,,,,,,,,,,,,,,,,,,,,,,,,,,,,,,,,,,,,,
,,,,,,610646ad915f5d7bac572e30,62c538cdac5d8d31fb792f3d,2022-07-06_10h25.27.219,Colour_Asymmetry_Pilot,2022.1.3,MacIntel,59.84082341,62c50e9c1127f2cd403a315f,0,145,145,4,1,threeone,,,,,,,,,,,,,,,,,,,,,,,,,,,,,,,,,,,,,,,,,,,,,,,,,,,,,,,,,,,,,,,,,,,,,,,,,,,,,,,,,,,,,,,,,,,,,,,,,,,,,,,,,,,,,,,,,,,,,,,,,,,,,,,,,,,,,,,,,,,,,,,,,,,,,,,,,,,,,
,,,,,,610646ad915f5d7bac572e30,62c538cdac5d8d31fb792f3d,2022-07-06_10h25.27.219,Colour_Asymmetry_Pilot,2022.1.3,MacIntel,59.84082341,62c50e9c1127f2cd403a315f,0,146,146,152,1,onetwo,,,,,,,,,,,,,,,,,,,,,,,,,,,,,,,,,,,,,,,,,,,,,,,,,,,,,,,,,,,,,,,,,,,,,,,,,,,,,,,,,,,,,,,,,,,,,,,,,,,,,,,,,,,,,,,,,,,,,,,,,,,,,,,,,,,,,,,,,,,,,,,,,,,,,,,,,,,,,
,,,,,,610646ad915f5d7bac572e30,62c538cdac5d8d31fb792f3d,2022-07-06_10h25.27.219,Colour_Asymmetry_Pilot,2022.1.3,MacIntel,59.84082341,62c50e9c1127f2cd403a315f,0,147,147,40,1,onetwo,,,,,,,,,,,,,,,,,,,,,,,,,,,,,,,,,,,,,,,,,,,,,,,,,,,,,,,,,,,,,,,,,,,,,,,,,,,,,,,,,,,,,,,,,,,,,,,,,,,,,,,,,,,,,,,,,,,,,,,,,,,,,,,,,,,,,,,,,,,,,,,,,,,,,,,,,,,,,
,,,,,,610646ad915f5d7bac572e30,62c538cdac5d8d31fb792f3d,2022-07-06_10h25.27.219,Colour_Asymmetry_Pilot,2022.1.3,MacIntel,59.84082341,62c50e9c1127f2cd403a315f,0,148,148,94,1,fourtwo,,,,,,,,,,,,,,,,,,,,,,,,,,,,,,,,,,,,,,,,,,,,,,,,,,,,,,,,,,,,,,,,,,,,,,,,,,,,,,,,,,,,,,,,,,,,,,,,,,,,,,,,,,,,,,,,,,,,,,,,,,,,,,,,,,,,,,,,,,,,,,,,,,,,,,,,,,,,,
,,,,,,610646ad915f5d7bac572e30,62c538cdac5d8d31fb792f3d,2022-07-06_10h25.27.219,Colour_Asymmetry_Pilot,2022.1.3,MacIntel,59.84082341,62c50e9c1127f2cd403a315f,0,149,149,116,1,threeone,,,,,,,,,,,,,,,,,,,,,,,,,,,,,,,,,,,,,,,,,,,,,,,,,,,,,,,,,,,,,,,,,,,,,,,,,,,,,,,,,,,,,,,,,,,,,,,,,,,,,,,,,,,,,,,,,,,,,,,,,,,,,,,,,,,,,,,,,,,,,,,,,,,,,,,,,,,,,
,,,,,,610646ad915f5d7bac572e30,62c538cdac5d8d31fb792f3d,2022-07-06_10h25.27.219,Colour_Asymmetry_Pilot,2022.1.3,MacIntel,59.84082341,62c50e9c1127f2cd403a315f,0,150,150,81,1,onethree,,,,,,,,,,,,,,,,,,,,,,,,,,,,,,,,,,,,,,,,,,,,,,,,,,,,,,,,,,,,,,,,,,,,,,,,,,,,,,,,,,,,,,,,,,,,,,,,,,,,,,,,,,,,,,,,,,,,,,,,,,,,,,,,,,,,,,,,,,,,,,,,,,,,,,,,,,,,,
,,,,,,610646ad915f5d7bac572e30,62c538cdac5d8d31fb792f3d,2022-07-06_10h25.27.219,Colour_Asymmetry_Pilot,2022.1.3,MacIntel,59.84082341,62c50e9c1127f2cd403a315f,0,151,151,56,1,onetwo,,,,,,,,,,,,,,,,,,,,,,,,,,,,,,,,,,,,,,,,,,,,,,,,,,,,,,,,,,,,,,,,,,,,,,,,,,,,,,,,,,,,,,,,,,,,,,,,,,,,,,,,,,,,,,,,,,,,,,,,,,,,,,,,,,,,,,,,,,,,,,,,,,,,,,,,,,,,,
,,,,,,610646ad915f5d7bac572e30,62c538cdac5d8d31fb792f3d,2022-07-06_10h25.27.219,Colour_Asymmetry_Pilot,2022.1.3,MacIntel,59.84082341,62c50e9c1127f2cd403a315f,0,152,152,133,1,threefour,,,,,,,,,,,,,,,,,,,,,,,,,,,,,,,,,,,,,,,,,,,,,,,,,,,,,,,,,,,,,,,,,,,,,,,,,,,,,,,,,,,,,,,,,,,,,,,,,,,,,,,,,,,,,,,,,,,,,,,,,,,,,,,,,,,,,,,,,,,,,,,,,,,,,,,,,,,,,
,,,,,,610646ad915f5d7bac572e30,62c538cdac5d8d31fb792f3d,2022-07-06_10h25.27.219,Colour_Asymmetry_Pilot,2022.1.3,MacIntel,59.84082341,62c50e9c1127f2cd403a315f,0,153,153,44,1,threeone,,,,,,,,,,,,,,,,,,,,,,,,,,,,,,,,,,,,,,,,,,,,,,,,,,,,,,,,,,,,,,,,,,,,,,,,,,,,,,,,,,,,,,,,,,,,,,,,,,,,,,,,,,,,,,,,,,,,,,,,,,,,,,,,,,,,,,,,,,,,,,,,,,,,,,,,,,,,,
,,,,,,610646ad915f5d7bac572e30,62c538cdac5d8d31fb792f3d,2022-07-06_10h25.27.219,Colour_Asymmetry_Pilot,2022.1.3,MacIntel,59.84082341,62c50e9c1127f2cd403a315f,0,154,154,156,1,threeone,,,,,,,,,,,,,,,,,,,,,,,,,,,,,,,,,,,,,,,,,,,,,,,,,,,,,,,,,,,,,,,,,,,,,,,,,,,,,,,,,,,,,,,,,,,,,,,,,,,,,,,,,,,,,,,,,,,,,,,,,,,,,,,,,,,,,,,,,,,,,,,,,,,,,,,,,,,,,
,,,,,,610646ad915f5d7bac572e30,62c538cdac5d8d31fb792f3d,2022-07-06_10h25.27.219,Colour_Asymmetry_Pilot,2022.1.3,MacIntel,59.84082341,62c50e9c1127f2cd403a315f,0,155,155,89,1,onethree,,,,,,,,,,,,,,,,,,,,,,,,,,,,,,,,,,,,,,,,,,,,,,,,,,,,,,,,,,,,,,,,,,,,,,,,,,,,,,,,,,,,,,,,,,,,,,,,,,,,,,,,,,,,,,,,,,,,,,,,,,,,,,,,,,,,,,,,,,,,,,,,,,,,,,,,,,,,,
,,,,,,610646ad915f5d7bac572e30,62c538cdac5d8d31fb792f3d,2022-07-06_10h25.27.219,Colour_Asymmetry_Pilot,2022.1.3,MacIntel,59.84082341,62c50e9c1127f2cd403a315f,0,156,156,113,1,onethree,,,,,,,,,,,,,,,,,,,,,,,,,,,,,,,,,,,,,,,,,,,,,,,,,,,,,,,,,,,,,,,,,,,,,,,,,,,,,,,,,,,,,,,,,,,,,,,,,,,,,,,,,,,,,,,,,,,,,,,,,,,,,,,,,,,,,,,,,,,,,,,,,,,,,,,,,,,,,
,,,,,,610646ad915f5d7bac572e30,62c538cdac5d8d31fb792f3d,2022-07-06_10h25.27.219,Colour_Asymmetry_Pilot,2022.1.3,MacIntel,59.84082341,62c50e9c1127f2cd403a315f,0,157,157,31,1,fourthree,,,,,,,,,,,,,,,,,,,,,,,,,,,,,,,,,,,,,,,,,,,,,,,,,,,,,,,,,,,,,,,,,,,,,,,,,,,,,,,,,,,,,,,,,,,,,,,,,,,,,,,,,,,,,,,,,,,,,,,,,,,,,,,,,,,,,,,,,,,,,,,,,,,,,,,,,,,,,
,,,,,,610646ad915f5d7bac572e30,62c538cdac5d8d31fb792f3d,2022-07-06_10h25.27.219,Colour_Asymmetry_Pilot,2022.1.3,MacIntel,59.84082341,62c50e9c1127f2cd403a315f,0,158,158,78,1,fourtwo,,,,,,,,,,,,,,,,,,,,,,,,,,,,,,,,,,,,,,,,,,,,,,,,,,,,,,,,,,,,,,,,,,,,,,,,,,,,,,,,,,,,,,,,,,,,,,,,,,,,,,,,,,,,,,,,,,,,,,,,,,,,,,,,,,,,,,,,,,,,,,,,,,,,,,,,,,,,,
,,,,,,610646ad915f5d7bac572e30,62c538cdac5d8d31fb792f3d,2022-07-06_10h25.27.219,Colour_Asymmetry_Pilot,2022.1.3,MacIntel,59.84082341,62c50e9c1127f2cd403a315f,0,159,159,74,1,twoone,,,,,,,,,,,,,,,,,,,,,,,,,,,,,,,,,,,,,,,,,,,,,,,,,,,,,,,,,,,,,,,,,,,,,,,,,,,,,,,,,,,,,,,,,,,,,,,,,,,,,,,,,,,,,,,,,,,,,,,,,,,,,,,,,,,,,,,,,,,,,,,,,,,,,,,,,,,,,
,,,,,,610646ad915f5d7bac572e30,62c538cdac5d8d31fb792f3d,2022-07-06_10h25.27.219,Colour_Asymmetry_Pilot,2022.1.3,MacIntel,59.84082341,62c50e9c1127f2cd403a315f,0,160,160,8,1,onetwo,,,,,,,,,,,,,,,,,,,,,,,,,,,,,,,,,,,,,,,,,,,,,,,,,,,,,,,,,,,,,,,,,,,,,,,,,,,,,,,,,,,,,,,,,,,,,,,,,,,,,,,,,,,,,,,,,,,,,,,,,,,,,,,,,,,,,,,,,,,,,,,,,,,,,,,,,,,,,
,,,,,,610646ad915f5d7bac572e30,62c538cdac5d8d31fb792f3d,2022-07-06_10h25.27.219,Colour_Asymmetry_Pilot,2022.1.3,MacIntel,59.84082341,62c50e9c1127f2cd403a315f,0,161,161,38,1,fourtwo,,,,,,,,,,,,,,,,,,,,,,,,,,,,,,,,,,,,,,,,,,,,,,,,,,,,,,,,,,,,,,,,,,,,,,,,,,,,,,,,,,,,,,,,,,,,,,,,,,,,,,,,,,,,,,,,,,,,,,,,,,,,,,,,,,,,,,,,,,,,,,,,,,,,,,,,,,,,,
,,,,,,610646ad915f5d7bac572e30,62c538cdac5d8d31fb792f3d,2022-07-06_10h25.27.219,Colour_Asymmetry_Pilot,2022.1.3,MacIntel,59.84082341,62c50e9c1127f2cd403a315f,,,,,,,space,3.1647,space,31.0489,space,28.895,space,16.4111,space,1.7547,space,5.4319,"[-0.4276,0.0038000000000000256,-0.3256]",fourthree,"[0.7802,-0.23140000000000005,-0.20799999999999996]",-4,9.9773,-47.66015625,92.26171875,1,0,0,response7disk_5,3.21484375,-1.95703125,1,0,0,rectangle_8,3.21484375,-1.95703125,1,0,0,3,3.21484375,-1.95703125,1,0,0,0,0,0,0,1,,,,,,,,,,,,,,,,,,,,,,,,,,,,,,,,,,,,,,,,,,,,,,,,,,,,,,,,,,,,,,,,,,,,,,,,,,,,,,,,,,,,,,,,,,,,,,,,,,,,,,,,,,,,,,,,
,,,,,,610646ad915f5d7bac572e30,62c538cdac5d8d31fb792f3d,2022-07-06_10h25.27.219,Colour_Asymmetry_Pilot,2022.1.3,MacIntel,59.84082341,62c50e9c1127f2cd403a315f,,,,,,,,,,,,,,,,,,,"[0.5528,0.7409999999999999,-0.71]",onetwo,"[-0.9766,-0.6472,0.07440000000000002]",-3,4.1277,-88.6328125,47.08203125,1,0,0,response7disk_5,5.62109375,2.54296875,1,0,0,rectangle_8,93.23046875,25.31640625,1,0,0,3,-10.60546875,-7.765625,1,0,0,1,0,1,0,1,response1disk_7,6,rectangle_4,,,,,,,,,,,,,,,,,,,,,,,,,,,,,,,,,,,,,,,,,,,,,,,,,,,,,,,,,,,,,,,,,,,,,,,,,,,,,,,,,,,,,,,,,,,,,,,,,,,,,,,,,,,,,
,,,,,,610646ad915f5d7bac572e30,62c538cdac5d8d31fb792f3d,2022-07-06_10h25.27.219,Colour_Asymmetry_Pilot,2022.1.3,MacIntel,59.84082341,62c50e9c1127f2cd403a315f,,,,,,,,,,,,,,,,,,,"[1,0.12939999999999996,-1]",threeone,"[0.30180000000000007,-0.7884,-0.9844]",-2,2.5908,-85.32421875,-44.98828125,1,0,0,response5disk_5,5.75390625,-4.40625,1,0,0,rectangle_8,5.75390625,-4.40625,1,0,0,3,5.75390625,-4.40625,1,0,0,2,0,2,0,1,,,,,,,,,,,,,,,,,,,,,,,,,,,,,,,,,,,,,,,,,,,,,,,,,,,,,,,,,,,,,,,,,,,,,,,,,,,,,,,,,,,,,,,,,,,,,,,,,,,,,,,,,,,,,,,,
,,,,,,610646ad915f5d7bac572e30,62c538cdac5d8d31fb792f3d,2022-07-06_10h25.27.219,Colour_Asymmetry_Pilot,2022.1.3,MacIntel,59.84082341,62c50e9c1127f2cd403a315f,,,,,,,,,,,,,,,,,,,"[0.40379999999999994,0.09000000000000008,0.44300000000000006]",fourtwo,"[-0.011800000000000033,-0.906,-0.45100000000000007]",-1,5.8845,-30.93359375,-69.4140625,1,0,0,response5disk_5,10.3828125,7.55859375,1,0,0,rectangle_8,10.3828125,7.55859375,1,0,0,3,10.3828125,7.55859375,1,0,0,3,0,3,0,1,,,,,,,,,,,,,,,,,,,,,,,,,,,,,,,,,,,,,,,,,,,,,,,,,,,,,,,,,,,,,,,,,,,,,,,,,,,,,,,,,,,,,,,,,,,,,,,,,,,,,,,,,,,,,,,,
,,,,,,610646ad915f5d7bac572e30,62c538cdac5d8d31fb792f3d,2022-07-06_10h25.27.219,Colour_Asymmetry_Pilot,2022.1.3,MacIntel,59.84082341,62c50e9c1127f2cd403a315f,,,,,,,,,,,,,,,,,,,"[0.9686000000000001,0.3802000000000001,0.19999999999999996]",twofour,"[0.05879999999999996,0.2784,0.5841999999999998]",-4,2.0082,-44.140625,68.65625,1,0,0,response7disk_5,5.8359375,-9.98828125,1,0,0,rectangle_8,5.8359375,-9.98828125,1,0,0,3,5.8359375,-9.98828125,1,0,0,4,0,4,0,1,,,,,,,,,,,,,,,,,,,,,,,,,,,,,,,,,,,,,,,,,,,,,,,,,,,,,,,,,,,,,,,,,,,,,,,,,,,,,,,,,,,,,,,,,,,,,,,,,,,,,,,,,,,,,,,,
,,,,,,610646ad915f5d7bac572e30,62c538cdac5d8d31fb792f3d,2022-07-06_10h25.27.219,Colour_Asymmetry_Pilot,2022.1.3,MacIntel,59.84082341,62c50e9c1127f2cd403a315f,,,,,,,,,,,,,,,,,,,"[0.2784,-0.31000000000000005,-0.5452]",threeone,"[0.2784,-0.31000000000000005,-0.5452]",3,2.5403,95.87890625,61.6796875,1,0,0,response1disk_5,7.37890625,-2.48046875,1,0,0,rectangle_8,7.37890625,-2.48046875,1,0,0,3,7.37890625,-2.48046875,1,0,0,5,0,5,0,1,,,,,,,,,,,,,,,,,,,,,,,,,,,,,,,,,,,,,,,,,,,,,,,,,,,,,,,,,,,,,,,,,,,,,,,,,,,,,,,,,,,,,,,,,,,,,,,,,,,,,,,,,,,,,,,,
,,,,,,610646ad915f5d7bac572e30,62c538cdac5d8d31fb792f3d,2022-07-06_10h25.27.219,Colour_Asymmetry_Pilot,2022.1.3,MacIntel,59.84082341,62c50e9c1127f2cd403a315f,,,,,,,,,,,,,,,,,,,"[-0.20799999999999996,-0.655,-0.01980000000000004]",twofour,"[-0.26280000000000003,-0.2158,-0.3256]",-4,1.4369,-54.58984375,91.38671875,1,0,0,response7disk_5,0.83984375,-13.94921875,1,0,0,rectangle_8,0.83984375,-13.94921875,1,0,0,3,0.83984375,-13.94921875,1,0,0,6,0,6,0,1,,,,,,,,,,,,,,,,,,,,,,,,,,,,,,,,,,,,,,,,,,,,,,,,,,,,,,,,,,,,,,,,,,,,,,,,,,,,,,,,,,,,,,,,,,,,,,,,,,,,,,,,,,,,,,,,
,,,,,,610646ad915f5d7bac572e30,62c538cdac5d8d31fb792f3d,2022-07-06_10h25.27.219,Colour_Asymmetry_Pilot,2022.1.3,MacIntel,59.84082341,62c50e9c1127f2cd403a315f,,,,,,,,,,,,,,,,,,,,twofour,,-4,3.5629,,,,,,,,,,,,,,,,,,,,,,,,,,,,,,,,space,5.9675,"[0.9763999999999999,0.8588,-0.05900000000000005]","[0.9372,0.20779999999999998,0.2704]",-49.71484375,90.4921875,1,0,0,response7disk,8.93359375,1.9765625,1,0,0,rectangle,8.93359375,1.9765625,1,0,0,,1,0.0033,0,8.93359375,1.9765625,1,0,0,0,0,0,89,1,8,second,,,,,,,,,,,,,,,,,,,,,,,,,,,,,,,,,,,,,,,,,,,,,,,,,,,,,,,,,,,,,,,,,,,,,,,,
,,,,,,610646ad915f5d7bac572e30,62c538cdac5d8d31fb792f3d,2022-07-06_10h25.27.219,Colour_Asymmetry_Pilot,2022.1.3,MacIntel,59.84082341,62c50e9c1127f2cd403a315f,,,,,,,,,,,,,,,,,,,,twofour,,-4,0.8363,,,,,,,,,,,,,,,,,,,,,,,,,,,,,,,,,,"[-0.5922000000000001,-0.7492000000000001,-0.5296000000000001]","[-0.4276,0.0038000000000000256,-0.3256]",-34.15625,79.35546875,1,0,0,response7disk,-15.421875,8.125,1,0,0,rectangle,-15.421875,8.125,1,0,0,,3,0.0021,0,-15.421875,8.125,1,0,0,0,1,1,108,1,27,second,,,,,,,,,,,,,,,,,,,,,,,,,,,,,,,,,,,,,,,,,,,,,,,,,,,,,,,,,,,,,,,,,,,,,,,,
,,,,,,610646ad915f5d7bac572e30,62c538cdac5d8d31fb792f3d,2022-07-06_10h25.27.219,Colour_Asymmetry_Pilot,2022.1.3,MacIntel,59.84082341,62c50e9c1127f2cd403a315f,,,,,,,,,,,,,,,,,,,,twofour,,-4,1.2704,,,,,,,,,,,,,,,,,,,,,,,,,,,,,,,,,,"[-0.9688,-0.38039999999999996,-0.41979999999999995]","[-0.5922000000000001,-0.7492000000000001,-0.5296000000000001]",-42.14453125,65.58984375,1,0,0,response7disk,-17.19921875,4.16796875,1,0,0,rectangle,-17.19921875,4.16796875,1,0,0,,2,0.0018,0,-17.19921875,4.16796875,1,0,0,0,2,2,116,1,35,second,,,,,,,,,,,,,,,,,,,,,,,,,,,,,,,,,,,,,,,,,,,,,,,,,,,,,,,,,,,,,,,,,,,,,,,,
,,,,,,610646ad915f5d7bac572e30,62c538cdac5d8d31fb792f3d,2022-07-06_10h25.27.219,Colour_Asymmetry_Pilot,2022.1.3,MacIntel,59.84082341,62c50e9c1127f2cd403a315f,,,,,,,,,,,,,,,,,,,,fourtwo,,-4,1.4211,,,,,,,,,,,,,,,,,,,,,,,,,,,,,,,,,,"[-0.8118,-0.8198,-0.5452]","[0.34099999999999997,0.12939999999999996,-0.9766]",-38.0546875,70.72265625,1,0,0,response7disk,-10.74609375,6.42578125,1,0,0,rectangle,-10.74609375,6.42578125,1,0,0,,1,0.0022,0,-10.74609375,6.42578125,1,0,0,0,3,3,38,1,38,first,,,,,,,,,,,,,,,,,,,,,,,,,,,,,,,,,,,,,,,,,,,,,,,,,,,,,,,,,,,,,,,,,,,,,,,,
,,,,,,610646ad915f5d7bac572e30,62c538cdac5d8d31fb792f3d,2022-07-06_10h25.27.219,Colour_Asymmetry_Pilot,2022.1.3,MacIntel,59.84082341,62c50e9c1127f2cd403a315f,,,,,,,,,,,,,,,,,,,,onetwo,,-4,1.6383,,,,,,,,,,,,,,,,,,,,,,,,,,,,,,,,,,"[0.23120000000000007,-0.7726,-0.34120000000000006]","[0.2784,-0.31000000000000005,-0.5452]",-43.2265625,62.5078125,1,0,0,response7disk,-6.50390625,-0.81640625,1,0,0,rectangle,-6.50390625,-0.81640625,1,0,0,,1,0.0023,0,-6.50390625,-0.81640625,1,0,0,0,4,4,148,1,67,second,,,,,,,,,,,,,,,,,,,,,,,,,,,,,,,,,,,,,,,,,,,,,,,,,,,,,,,,,,,,,,,,,,,,,,,,
,,,,,,610646ad915f5d7bac572e30,62c538cdac5d8d31fb792f3d,2022-07-06_10h25.27.219,Colour_Asymmetry_Pilot,2022.1.3,MacIntel,59.84082341,62c50e9c1127f2cd403a315f,,,,,,,,,,,,,,,,,,,,twofour,,-4,1.2536,,,,,,,,,,,,,,,,,,,,,,,,,,,,,,,,,,"[-0.9766,-0.34920000000000007,0.2156]","[-0.01980000000000004,-0.5138,-0.38039999999999996]",-45.390625,85.11328125,1,0,0,response7disk,3.56640625,-1.046875,1,0,0,rectangle,3.56640625,-1.046875,1,0,0,,3,0.0022,0,3.56640625,-1.046875,1,0,0,0,5,5,10,1,10,first,,,,,,,,,,,,,,,,,,,,,,,,,,,,,,,,,,,,,,,,,,,,,,,,,,,,,,,,,,,,,,,,,,,,,,,,
,,,,,,610646ad915f5d7bac572e30,62c538cdac5d8d31fb792f3d,2022-07-06_10h25.27.219,Colour_Asymmetry_Pilot,2022.1.3,MacIntel,59.84082341,62c50e9c1127f2cd403a315f,,,,,,,,,,,,,,,,,,,,fourthree,,-4,1.1519,,,,,,,,,,,,,,,,,,,,,,,,,,,,,,,,,,"[-0.5688,-0.08239999999999992,-0.1844]","[-0.01980000000000004,-0.5138,-0.38039999999999996]",-49.2734375,72.05859375,1,0,0,response7disk,-0.43359375,5.015625,1,0,0,rectangle,-0.43359375,5.015625,1,0,0,,3,0.0002,0,-0.43359375,5.015625,1,0,0,0,6,6,58,1,58,first,,,,,,,,,,,,,,,,,,,,,,,,,,,,,,,,,,,,,,,,,,,,,,,,,,,,,,,,,,,,,,,,,,,,,,,,
,,,,,,610646ad915f5d7bac572e30,62c538cdac5d8d31fb792f3d,2022-07-06_10h25.27.219,Colour_Asymmetry_Pilot,2022.1.3,MacIntel,59.84082341,62c50e9c1127f2cd403a315f,,,,,,,,,,,,,,,,,,,,fourthree,,-4,1.0525,,,,,,,,,,,,,,,,,,,,,,,,,,,,,,,,,,"[-0.8198,-0.5138,-0.7492000000000001]","[-0.26280000000000003,-0.4746,-0.2158]",-43.7421875,59.31640625,1,0,0,response7disk,2.53125,-1.65234375,1,0,0,rectangle,2.53125,-1.65234375,1,0,0,,3,0.0012,0,2.53125,-1.65234375,1,0,0,0,7,7,41,1,41,first,,,,,,,,,,,,,,,,,,,,,,,,,,,,,,,,,,,,,,,,,,,,,,,,,,,,,,,,,,,,,,,,,,,,,,,,
,,,,,,610646ad915f5d7bac572e30,62c538cdac5d8d31fb792f3d,2022-07-06_10h25.27.219,Colour_Asymmetry_Pilot,2022.1.3,MacIntel,59.84082341,62c50e9c1127f2cd403a315f,,,,,,,,,,,,,,,,,,,,twoone,,3,0.8525,,,,,,,,,,,,,,,,,,,,,,,,,,,,,,,,,,"[0.12939999999999996,-0.2864,0.3253999999999999]","[-0.20799999999999996,-0.655,-0.01980000000000004]",80.79296875,54.01171875,1,0,0,response1disk,-1.8671875,-1.5625,1,0,0,rectangle,-1.8671875,-1.5625,1,0,0,,1,0.0021,0,-1.8671875,-1.5625,1,0,0,0,8,8,77,1,77,first,,,,,,,,,,,,,,,,,,,,,,,,,,,,,,,,,,,,,,,,,,,,,,,,,,,,,,,,,,,,,,,,,,,,,,,,
,,,,,,610646ad915f5d7bac572e30,62c538cdac5d8d31fb792f3d,2022-07-06_10h25.27.219,Colour_Asymmetry_Pilot,2022.1.3,MacIntel,59.84082341,62c50e9c1127f2cd403a315f,,,,,,,,,,,,,,,,,,,,onethree,,-4,1.3888,,,,,,,,,,,,,,,,,,,,,,,,,,,,,,,,,,"[-0.48240000000000005,0.3175999999999999,0.2156]","[0.7646000000000002,0.07440000000000002,0.2704]",-30.9453125,78.51953125,1,0,0,response7disk,-0.63671875,-3.24609375,1,0,0,rectangle,-0.63671875,-3.24609375,1,0,0,,3,0.0019,0,-0.63671875,-3.24609375,1,0,0,0,9,9,69,1,69,first,,,,,,,,,,,,,,,,,,,,,,,,,,,,,,,,,,,,,,,,,,,,,,,,,,,,,,,,,,,,,,,,,,,,,,,,
,,,,,,610646ad915f5d7bac572e30,62c538cdac5d8d31fb792f3d,2022-07-06_10h25.27.219,Colour_Asymmetry_Pilot,2022.1.3,MacIntel,59.84082341,62c50e9c1127f2cd403a315f,,,,,,,,,,,,,,,,,,,,fourthree,,1,5.8315,,,,,,,,,,,,,,,,,,,,,,,,,,,,,,,,,,"[0.19199999999999995,0.18419999999999992,0.5136000000000001]","[-0.5452,-0.608,0.2470000000000001]",48.08203125,-65.4453125,1,0,0,response3disk,1.421875,-1.23828125,1,0,0,rectangle,1.421875,-1.23828125,1,0,0,,1,0.0013,0,1.421875,-1.23828125,1,0,0,0,10,10,154,1,73,second,,,,,,,,,,,,,,,,,,,,,,,,,,,,,,,,,,,,,,,,,,,,,,,,,,,,,,,,,,,,,,,,,,,,,,,,
,,,,,,610646ad915f5d7bac572e30,62c538cdac5d8d31fb792f3d,2022-07-06_10h25.27.219,Colour_Asymmetry_Pilot,2022.1.3,MacIntel,59.84082341,62c50e9c1127f2cd403a315f,,,,,,,,,,,,,,,,,,,,threefour,,1,0.8858,,,,,,,,,,,,,,,,,,,,,,,,,,,,,,,,,,"[0.9686000000000001,0.3802000000000001,0.19999999999999996]","[0.9763999999999999,-0.1137999999999999,-0.6314]",40.0859375,-96.55078125,1,0,0,response3disk,-1.828125,-7.52734375,1,0,0,rectangle,-1.828125,-7.52734375,1,0,0,,1,0.0003,0,-1.828125,-7.52734375,1,0,0,0,11,11,22,1,22,first,,,,,,,,,,,,,,,,,,,,,,,,,,,,,,,,,,,,,,,,,,,,,,,,,,,,,,,,,,,,,,,,,,,,,,,,
,,,,,,610646ad915f5d7bac572e30,62c538cdac5d8d31fb792f3d,2022-07-06_10h25.27.219,Colour_Asymmetry_Pilot,2022.1.3,MacIntel,59.84082341,62c50e9c1127f2cd403a315f,,,,,,,,,,,,,,,,,,,,twofour,,-4,0.7354,,,,,,,,,,,,,,,,,,,,,,,,,,,,,,,,,,"[-0.26280000000000003,-0.4746,-0.2158]","[-0.8198,-0.5138,-0.7492000000000001]",-43.51953125,80,1,0,0,response7disk,2.96875,4.8125,1,0,0,rectangle,2.96875,4.8125,1,0,0,,1,0.0006,0,2.96875,4.8125,1,0,0,0,12,12,122,1,41,second,,,,,,,,,,,,,,,,,,,,,,,,,,,,,,,,,,,,,,,,,,,,,,,,,,,,,,,,,,,,,,,,,,,,,,,,
,,,,,,610646ad915f5d7bac572e30,62c538cdac5d8d31fb792f3d,2022-07-06_10h25.27.219,Colour_Asymmetry_Pilot,2022.1.3,MacIntel,59.84082341,62c50e9c1127f2cd403a315f,,,,,,,,,,,,,,,,,,,,threeone,,-4,1.138,,,,,,,,,,,,,,,,,,,,,,,,,,,,,,,,,,"[0.7176,-0.906,-0.6864]","[-0.9766,-0.6472,0.07440000000000002]",-43.94921875,59.92578125,1,0,0,response7disk,-4.5859375,-0.37890625,1,0,0,rectangle,-4.5859375,-0.37890625,1,0,0,,2,0.0015,0,-4.5859375,-0.37890625,1,0,0,0,13,13,127,1,46,second,,,,,,,,,,,,,,,,,,,,,,,,,,,,,,,,,,,,,,,,,,,,,,,,,,,,,,,,,,,,,,,,,,,,,,,,
