trials.thisRepN,trials.thisTrialN,trials.thisN,trials.thisIndex,trials.ran,Colourcodes,participant,session,date,expName,psychopyVersion,OS,frameRate,study_id,trials_4.thisRepN,trials_4.thisTrialN,trials_4.thisN,trials_4.thisIndex,trials_4.ran,StimulusPos,key_resp.keys,key_resp.rt,key_resp_2.keys,key_resp_2.rt,key_resp_15.keys,key_resp_15.rt,key_resp_17.keys,key_resp_17.rt,key_resp_9.keys,key_resp_9.rt,key_resp_10.keys,key_resp_10.rt,Circle1_col,Ecc,Circle2_col,similarity,response_time,mouse_5.x,mouse_5.y,mouse_5.leftButton,mouse_5.midButton,mouse_5.rightButton,mouse_5.clicked_name,mouse_10.x,mouse_10.y,mouse_10.leftButton,mouse_10.midButton,mouse_10.rightButton,mouse_10.clicked_name,mouse_7.x,mouse_7.y,mouse_7.leftButton,mouse_7.midButton,mouse_7.rightButton,catchnumberprac,mouse_6.x,mouse_6.y,mouse_6.leftButton,mouse_6.midButton,mouse_6.rightButton,duringprac.thisRepN,duringprac.thisTrialN,duringprac.thisN,duringprac.thisIndex,duringprac.ran,mouse_7.clicked_name,catchprac,mouse_6.clicked_name,key_resp_22.keys,key_resp_22.rt,Circle1_colour,Circle2_colour,mouse.x,mouse.y,mouse.leftButton,mouse.midButton,mouse.rightButton,mouse.clicked_name,mouse_2.x,mouse_2.y,mouse_2.leftButton,mouse_2.midButton,mouse_2.rightButton,mouse_2.clicked_name,mouse_3.x,mouse_3.y,mouse_3.leftButton,mouse_3.midButton,mouse_3.rightButton,catchresponse,catchnumber,response_time_catch,Catch,mouse_11.x,mouse_11.y,mouse_11.leftButton,mouse_11.midButton,mouse_11.rightButton,trials_2.thisRepN,trials_2.thisTrialN,trials_2.thisN,trials_2.thisIndex,trials_2.ran,Colourpair,Temporder,mouse_3.clicked_name,mouse_11.clicked_name,trials_3.thisRepN,trials_3.thisTrialN,trials_3.thisN,trials_3.thisIndex,trials_3.ran,key_resp_instr_Ishi.keys,key_resp_instr_Ishi.rt,Ishi_trial_keyresp.keys,Ishi_textbox.text,Ishi_mouse.x,Ishi_mouse.y,Ishi_mouse.leftButton,Ishi_mouse.midButton,Ishi_mouse.rightButton,Ishi_mouse.clicked_name,Ishi_loop.thisRepN,Ishi_loop.thisTrialN,Ishi_loop.thisN,Ishi_loop.thisIndex,Ishi_loop.ran,imageaddress,textbox.text,mouse_4.x,mouse_4.y,mouse_4.leftButton,mouse_4.midButton,mouse_4.rightButton,mouse_4.clicked_name,textbox_2.text,mouse_8.x,mouse_8.y,mouse_8.leftButton,mouse_8.midButton,mouse_8.rightButton,mouse_8.clicked_name,textbox_3.text,mouse_9.x,mouse_9.y,mouse_9.leftButton,mouse_9.midButton,mouse_9.rightButton,mouse_9.clicked_name,textbox_4.text,mouse_12.x,mouse_12.y,mouse_12.leftButton,mouse_12.midButton,mouse_12.rightButton,mouse_12.clicked_name,textbox_5.text,mouse_13.x,mouse_13.y,mouse_13.leftButton,mouse_13.midButton,mouse_13.rightButton,mouse_13.clicked_name,textbox_6.text,mouse_14.x,mouse_14.y,mouse_14.leftButton,mouse_14.midButton,mouse_14.rightButton,mouse_14.clicked_name,textbox_7.text,mouse_15.x,mouse_15.y,mouse_15.leftButton,mouse_15.midButton,mouse_15.rightButton,mouse_15.clicked_name
0,0,0,60,1,,615211c71871ab62cb14cbe1,62c53a67deca570d4abc80d1,2022-07-06_09h34.05.518,Colour_Asymmetry_Pilot,2022.1.3,Win32,59.61251863,62c50e9c1127f2cd403a315f,,,,,,,,,,,,,,,,,,,,,,,,,,,,,,,,,,,,,,,,,,,,,,,,,,,,,,,,,,,,,,,,,,,,,,,,,,,,,,,,,,,,,,,,,,,,,,,,,,,,,,,,,,,,,,,,,,,,,,,,,,,,,,,,,,,,,,,,,,,,,,,,,,,,,,,,,,,,,,,,,,,
0,1,1,61,1,,615211c71871ab62cb14cbe1,62c53a67deca570d4abc80d1,2022-07-06_09h34.05.518,Colour_Asymmetry_Pilot,2022.1.3,Win32,59.61251863,62c50e9c1127f2cd403a315f,,,,,,,,,,,,,,,,,,,,,,,,,,,,,,,,,,,,,,,,,,,,,,,,,,,,,,,,,,,,,,,,,,,,,,,,,,,,,,,,,,,,,,,,,,,,,,,,,,,,,,,,,,,,,,,,,,,,,,,,,,,,,,,,,,,,,,,,,,,,,,,,,,,,,,,,,,,,,,,,,,,
0,2,2,83,1,,615211c71871ab62cb14cbe1,62c53a67deca570d4abc80d1,2022-07-06_09h34.05.518,Colour_Asymmetry_Pilot,2022.1.3,Win32,59.61251863,62c50e9c1127f2cd403a315f,,,,,,,,,,,,,,,,,,,,,,,,,,,,,,,,,,,,,,,,,,,,,,,,,,,,,,,,,,,,,,,,,,,,,,,,,,,,,,,,,,,,,,,,,,,,,,,,,,,,,,,,,,,,,,,,,,,,,,,,,,,,,,,,,,,,,,,,,,,,,,,,,,,,,,,,,,,,,,,,,,,
0,3,3,87,1,,615211c71871ab62cb14cbe1,62c53a67deca570d4abc80d1,2022-07-06_09h34.05.518,Colour_Asymmetry_Pilot,2022.1.3,Win32,59.61251863,62c50e9c1127f2cd403a315f,,,,,,,,,,,,,,,,,,,,,,,,,,,,,,,,,,,,,,,,,,,,,,,,,,,,,,,,,,,,,,,,,,,,,,,,,,,,,,,,,,,,,,,,,,,,,,,,,,,,,,,,,,,,,,,,,,,,,,,,,,,,,,,,,,,,,,,,,,,,,,,,,,,,,,,,,,,,,,,,,,,
0,4,4,1,1,,615211c71871ab62cb14cbe1,62c53a67deca570d4abc80d1,2022-07-06_09h34.05.518,Colour_Asymmetry_Pilot,2022.1.3,Win32,59.61251863,62c50e9c1127f2cd403a315f,,,,,,,,,,,,,,,,,,,,,,,,,,,,,,,,,,,,,,,,,,,,,,,,,,,,,,,,,,,,,,,,,,,,,,,,,,,,,,,,,,,,,,,,,,,,,,,,,,,,,,,,,,,,,,,,,,,,,,,,,,,,,,,,,,,,,,,,,,,,,,,,,,,,,,,,,,,,,,,,,,,
0,5,5,89,1,,615211c71871ab62cb14cbe1,62c53a67deca570d4abc80d1,2022-07-06_09h34.05.518,Colour_Asymmetry_Pilot,2022.1.3,Win32,59.61251863,62c50e9c1127f2cd403a315f,,,,,,,,,,,,,,,,,,,,,,,,,,,,,,,,,,,,,,,,,,,,,,,,,,,,,,,,,,,,,,,,,,,,,,,,,,,,,,,,,,,,,,,,,,,,,,,,,,,,,,,,,,,,,,,,,,,,,,,,,,,,,,,,,,,,,,,,,,,,,,,,,,,,,,,,,,,,,,,,,,,
0,6,6,62,1,,615211c71871ab62cb14cbe1,62c53a67deca570d4abc80d1,2022-07-06_09h34.05.518,Colour_Asymmetry_Pilot,2022.1.3,Win32,59.61251863,62c50e9c1127f2cd403a315f,,,,,,,,,,,,,,,,,,,,,,,,,,,,,,,,,,,,,,,,,,,,,,,,,,,,,,,,,,,,,,,,,,,,,,,,,,,,,,,,,,,,,,,,,,,,,,,,,,,,,,,,,,,,,,,,,,,,,,,,,,,,,,,,,,,,,,,,,,,,,,,,,,,,,,,,,,,,,,,,,,,
0,7,7,8,1,,615211c71871ab62cb14cbe1,62c53a67deca570d4abc80d1,2022-07-06_09h34.05.518,Colour_Asymmetry_Pilot,2022.1.3,Win32,59.61251863,62c50e9c1127f2cd403a315f,,,,,,,,,,,,,,,,,,,,,,,,,,,,,,,,,,,,,,,,,,,,,,,,,,,,,,,,,,,,,,,,,,,,,,,,,,,,,,,,,,,,,,,,,,,,,,,,,,,,,,,,,,,,,,,,,,,,,,,,,,,,,,,,,,,,,,,,,,,,,,,,,,,,,,,,,,,,,,,,,,,
0,8,8,49,1,,615211c71871ab62cb14cbe1,62c53a67deca570d4abc80d1,2022-07-06_09h34.05.518,Colour_Asymmetry_Pilot,2022.1.3,Win32,59.61251863,62c50e9c1127f2cd403a315f,,,,,,,,,,,,,,,,,,,,,,,,,,,,,,,,,,,,,,,,,,,,,,,,,,,,,,,,,,,,,,,,,,,,,,,,,,,,,,,,,,,,,,,,,,,,,,,,,,,,,,,,,,,,,,,,,,,,,,,,,,,,,,,,,,,,,,,,,,,,,,,,,,,,,,,,,,,,,,,,,,,
0,9,9,80,1,,615211c71871ab62cb14cbe1,62c53a67deca570d4abc80d1,2022-07-06_09h34.05.518,Colour_Asymmetry_Pilot,2022.1.3,Win32,59.61251863,62c50e9c1127f2cd403a315f,,,,,,,,,,,,,,,,,,,,,,,,,,,,,,,,,,,,,,,,,,,,,,,,,,,,,,,,,,,,,,,,,,,,,,,,,,,,,,,,,,,,,,,,,,,,,,,,,,,,,,,,,,,,,,,,,,,,,,,,,,,,,,,,,,,,,,,,,,,,,,,,,,,,,,,,,,,,,,,,,,,
0,10,10,37,1,,615211c71871ab62cb14cbe1,62c53a67deca570d4abc80d1,2022-07-06_09h34.05.518,Colour_Asymmetry_Pilot,2022.1.3,Win32,59.61251863,62c50e9c1127f2cd403a315f,,,,,,,,,,,,,,,,,,,,,,,,,,,,,,,,,,,,,,,,,,,,,,,,,,,,,,,,,,,,,,,,,,,,,,,,,,,,,,,,,,,,,,,,,,,,,,,,,,,,,,,,,,,,,,,,,,,,,,,,,,,,,,,,,,,,,,,,,,,,,,,,,,,,,,,,,,,,,,,,,,,
0,11,11,64,1,,615211c71871ab62cb14cbe1,62c53a67deca570d4abc80d1,2022-07-06_09h34.05.518,Colour_Asymmetry_Pilot,2022.1.3,Win32,59.61251863,62c50e9c1127f2cd403a315f,,,,,,,,,,,,,,,,,,,,,,,,,,,,,,,,,,,,,,,,,,,,,,,,,,,,,,,,,,,,,,,,,,,,,,,,,,,,,,,,,,,,,,,,,,,,,,,,,,,,,,,,,,,,,,,,,,,,,,,,,,,,,,,,,,,,,,,,,,,,,,,,,,,,,,,,,,,,,,,,,,,
0,12,12,47,1,,615211c71871ab62cb14cbe1,62c53a67deca570d4abc80d1,2022-07-06_09h34.05.518,Colour_Asymmetry_Pilot,2022.1.3,Win32,59.61251863,62c50e9c1127f2cd403a315f,,,,,,,,,,,,,,,,,,,,,,,,,,,,,,,,,,,,,,,,,,,,,,,,,,,,,,,,,,,,,,,,,,,,,,,,,,,,,,,,,,,,,,,,,,,,,,,,,,,,,,,,,,,,,,,,,,,,,,,,,,,,,,,,,,,,,,,,,,,,,,,,,,,,,,,,,,,,,,,,,,,
0,13,13,74,1,,615211c71871ab62cb14cbe1,62c53a67deca570d4abc80d1,2022-07-06_09h34.05.518,Colour_Asymmetry_Pilot,2022.1.3,Win32,59.61251863,62c50e9c1127f2cd403a315f,,,,,,,,,,,,,,,,,,,,,,,,,,,,,,,,,,,,,,,,,,,,,,,,,,,,,,,,,,,,,,,,,,,,,,,,,,,,,,,,,,,,,,,,,,,,,,,,,,,,,,,,,,,,,,,,,,,,,,,,,,,,,,,,,,,,,,,,,,,,,,,,,,,,,,,,,,,,,,,,,,,
0,14,14,42,1,,615211c71871ab62cb14cbe1,62c53a67deca570d4abc80d1,2022-07-06_09h34.05.518,Colour_Asymmetry_Pilot,2022.1.3,Win32,59.61251863,62c50e9c1127f2cd403a315f,,,,,,,,,,,,,,,,,,,,,,,,,,,,,,,,,,,,,,,,,,,,,,,,,,,,,,,,,,,,,,,,,,,,,,,,,,,,,,,,,,,,,,,,,,,,,,,,,,,,,,,,,,,,,,,,,,,,,,,,,,,,,,,,,,,,,,,,,,,,,,,,,,,,,,,,,,,,,,,,,,,
0,15,15,2,1,,615211c71871ab62cb14cbe1,62c53a67deca570d4abc80d1,2022-07-06_09h34.05.518,Colour_Asymmetry_Pilot,2022.1.3,Win32,59.61251863,62c50e9c1127f2cd403a315f,,,,,,,,,,,,,,,,,,,,,,,,,,,,,,,,,,,,,,,,,,,,,,,,,,,,,,,,,,,,,,,,,,,,,,,,,,,,,,,,,,,,,,,,,,,,,,,,,,,,,,,,,,,,,,,,,,,,,,,,,,,,,,,,,,,,,,,,,,,,,,,,,,,,,,,,,,,,,,,,,,,
0,16,16,36,1,,615211c71871ab62cb14cbe1,62c53a67deca570d4abc80d1,2022-07-06_09h34.05.518,Colour_Asymmetry_Pilot,2022.1.3,Win32,59.61251863,62c50e9c1127f2cd403a315f,,,,,,,,,,,,,,,,,,,,,,,,,,,,,,,,,,,,,,,,,,,,,,,,,,,,,,,,,,,,,,,,,,,,,,,,,,,,,,,,,,,,,,,,,,,,,,,,,,,,,,,,,,,,,,,,,,,,,,,,,,,,,,,,,,,,,,,,,,,,,,,,,,,,,,,,,,,,,,,,,,,
0,17,17,70,1,,615211c71871ab62cb14cbe1,62c53a67deca570d4abc80d1,2022-07-06_09h34.05.518,Colour_Asymmetry_Pilot,2022.1.3,Win32,59.61251863,62c50e9c1127f2cd403a315f,,,,,,,,,,,,,,,,,,,,,,,,,,,,,,,,,,,,,,,,,,,,,,,,,,,,,,,,,,,,,,,,,,,,,,,,,,,,,,,,,,,,,,,,,,,,,,,,,,,,,,,,,,,,,,,,,,,,,,,,,,,,,,,,,,,,,,,,,,,,,,,,,,,,,,,,,,,,,,,,,,,
0,18,18,57,1,,615211c71871ab62cb14cbe1,62c53a67deca570d4abc80d1,2022-07-06_09h34.05.518,Colour_Asymmetry_Pilot,2022.1.3,Win32,59.61251863,62c50e9c1127f2cd403a315f,,,,,,,,,,,,,,,,,,,,,,,,,,,,,,,,,,,,,,,,,,,,,,,,,,,,,,,,,,,,,,,,,,,,,,,,,,,,,,,,,,,,,,,,,,,,,,,,,,,,,,,,,,,,,,,,,,,,,,,,,,,,,,,,,,,,,,,,,,,,,,,,,,,,,,,,,,,,,,,,,,,
0,19,19,77,1,,615211c71871ab62cb14cbe1,62c53a67deca570d4abc80d1,2022-07-06_09h34.05.518,Colour_Asymmetry_Pilot,2022.1.3,Win32,59.61251863,62c50e9c1127f2cd403a315f,,,,,,,,,,,,,,,,,,,,,,,,,,,,,,,,,,,,,,,,,,,,,,,,,,,,,,,,,,,,,,,,,,,,,,,,,,,,,,,,,,,,,,,,,,,,,,,,,,,,,,,,,,,,,,,,,,,,,,,,,,,,,,,,,,,,,,,,,,,,,,,,,,,,,,,,,,,,,,,,,,,
0,20,20,44,1,,615211c71871ab62cb14cbe1,62c53a67deca570d4abc80d1,2022-07-06_09h34.05.518,Colour_Asymmetry_Pilot,2022.1.3,Win32,59.61251863,62c50e9c1127f2cd403a315f,,,,,,,,,,,,,,,,,,,,,,,,,,,,,,,,,,,,,,,,,,,,,,,,,,,,,,,,,,,,,,,,,,,,,,,,,,,,,,,,,,,,,,,,,,,,,,,,,,,,,,,,,,,,,,,,,,,,,,,,,,,,,,,,,,,,,,,,,,,,,,,,,,,,,,,,,,,,,,,,,,,
0,21,21,45,1,,615211c71871ab62cb14cbe1,62c53a67deca570d4abc80d1,2022-07-06_09h34.05.518,Colour_Asymmetry_Pilot,2022.1.3,Win32,59.61251863,62c50e9c1127f2cd403a315f,,,,,,,,,,,,,,,,,,,,,,,,,,,,,,,,,,,,,,,,,,,,,,,,,,,,,,,,,,,,,,,,,,,,,,,,,,,,,,,,,,,,,,,,,,,,,,,,,,,,,,,,,,,,,,,,,,,,,,,,,,,,,,,,,,,,,,,,,,,,,,,,,,,,,,,,,,,,,,,,,,,
0,22,22,63,1,,615211c71871ab62cb14cbe1,62c53a67deca570d4abc80d1,2022-07-06_09h34.05.518,Colour_Asymmetry_Pilot,2022.1.3,Win32,59.61251863,62c50e9c1127f2cd403a315f,,,,,,,,,,,,,,,,,,,,,,,,,,,,,,,,,,,,,,,,,,,,,,,,,,,,,,,,,,,,,,,,,,,,,,,,,,,,,,,,,,,,,,,,,,,,,,,,,,,,,,,,,,,,,,,,,,,,,,,,,,,,,,,,,,,,,,,,,,,,,,,,,,,,,,,,,,,,,,,,,,,
0,23,23,51,1,,615211c71871ab62cb14cbe1,62c53a67deca570d4abc80d1,2022-07-06_09h34.05.518,Colour_Asymmetry_Pilot,2022.1.3,Win32,59.61251863,62c50e9c1127f2cd403a315f,,,,,,,,,,,,,,,,,,,,,,,,,,,,,,,,,,,,,,,,,,,,,,,,,,,,,,,,,,,,,,,,,,,,,,,,,,,,,,,,,,,,,,,,,,,,,,,,,,,,,,,,,,,,,,,,,,,,,,,,,,,,,,,,,,,,,,,,,,,,,,,,,,,,,,,,,,,,,,,,,,,
0,24,24,58,1,,615211c71871ab62cb14cbe1,62c53a67deca570d4abc80d1,2022-07-06_09h34.05.518,Colour_Asymmetry_Pilot,2022.1.3,Win32,59.61251863,62c50e9c1127f2cd403a315f,,,,,,,,,,,,,,,,,,,,,,,,,,,,,,,,,,,,,,,,,,,,,,,,,,,,,,,,,,,,,,,,,,,,,,,,,,,,,,,,,,,,,,,,,,,,,,,,,,,,,,,,,,,,,,,,,,,,,,,,,,,,,,,,,,,,,,,,,,,,,,,,,,,,,,,,,,,,,,,,,,,
0,25,25,17,1,,615211c71871ab62cb14cbe1,62c53a67deca570d4abc80d1,2022-07-06_09h34.05.518,Colour_Asymmetry_Pilot,2022.1.3,Win32,59.61251863,62c50e9c1127f2cd403a315f,,,,,,,,,,,,,,,,,,,,,,,,,,,,,,,,,,,,,,,,,,,,,,,,,,,,,,,,,,,,,,,,,,,,,,,,,,,,,,,,,,,,,,,,,,,,,,,,,,,,,,,,,,,,,,,,,,,,,,,,,,,,,,,,,,,,,,,,,,,,,,,,,,,,,,,,,,,,,,,,,,,
0,26,26,18,1,,615211c71871ab62cb14cbe1,62c53a67deca570d4abc80d1,2022-07-06_09h34.05.518,Colour_Asymmetry_Pilot,2022.1.3,Win32,59.61251863,62c50e9c1127f2cd403a315f,,,,,,,,,,,,,,,,,,,,,,,,,,,,,,,,,,,,,,,,,,,,,,,,,,,,,,,,,,,,,,,,,,,,,,,,,,,,,,,,,,,,,,,,,,,,,,,,,,,,,,,,,,,,,,,,,,,,,,,,,,,,,,,,,,,,,,,,,,,,,,,,,,,,,,,,,,,,,,,,,,,
0,27,27,22,1,,615211c71871ab62cb14cbe1,62c53a67deca570d4abc80d1,2022-07-06_09h34.05.518,Colour_Asymmetry_Pilot,2022.1.3,Win32,59.61251863,62c50e9c1127f2cd403a315f,,,,,,,,,,,,,,,,,,,,,,,,,,,,,,,,,,,,,,,,,,,,,,,,,,,,,,,,,,,,,,,,,,,,,,,,,,,,,,,,,,,,,,,,,,,,,,,,,,,,,,,,,,,,,,,,,,,,,,,,,,,,,,,,,,,,,,,,,,,,,,,,,,,,,,,,,,,,,,,,,,,
0,28,28,33,1,,615211c71871ab62cb14cbe1,62c53a67deca570d4abc80d1,2022-07-06_09h34.05.518,Colour_Asymmetry_Pilot,2022.1.3,Win32,59.61251863,62c50e9c1127f2cd403a315f,,,,,,,,,,,,,,,,,,,,,,,,,,,,,,,,,,,,,,,,,,,,,,,,,,,,,,,,,,,,,,,,,,,,,,,,,,,,,,,,,,,,,,,,,,,,,,,,,,,,,,,,,,,,,,,,,,,,,,,,,,,,,,,,,,,,,,,,,,,,,,,,,,,,,,,,,,,,,,,,,,,
0,29,29,65,1,,615211c71871ab62cb14cbe1,62c53a67deca570d4abc80d1,2022-07-06_09h34.05.518,Colour_Asymmetry_Pilot,2022.1.3,Win32,59.61251863,62c50e9c1127f2cd403a315f,,,,,,,,,,,,,,,,,,,,,,,,,,,,,,,,,,,,,,,,,,,,,,,,,,,,,,,,,,,,,,,,,,,,,,,,,,,,,,,,,,,,,,,,,,,,,,,,,,,,,,,,,,,,,,,,,,,,,,,,,,,,,,,,,,,,,,,,,,,,,,,,,,,,,,,,,,,,,,,,,,,
0,30,30,78,1,,615211c71871ab62cb14cbe1,62c53a67deca570d4abc80d1,2022-07-06_09h34.05.518,Colour_Asymmetry_Pilot,2022.1.3,Win32,59.61251863,62c50e9c1127f2cd403a315f,,,,,,,,,,,,,,,,,,,,,,,,,,,,,,,,,,,,,,,,,,,,,,,,,,,,,,,,,,,,,,,,,,,,,,,,,,,,,,,,,,,,,,,,,,,,,,,,,,,,,,,,,,,,,,,,,,,,,,,,,,,,,,,,,,,,,,,,,,,,,,,,,,,,,,,,,,,,,,,,,,,
0,31,31,35,1,,615211c71871ab62cb14cbe1,62c53a67deca570d4abc80d1,2022-07-06_09h34.05.518,Colour_Asymmetry_Pilot,2022.1.3,Win32,59.61251863,62c50e9c1127f2cd403a315f,,,,,,,,,,,,,,,,,,,,,,,,,,,,,,,,,,,,,,,,,,,,,,,,,,,,,,,,,,,,,,,,,,,,,,,,,,,,,,,,,,,,,,,,,,,,,,,,,,,,,,,,,,,,,,,,,,,,,,,,,,,,,,,,,,,,,,,,,,,,,,,,,,,,,,,,,,,,,,,,,,,
0,32,32,25,1,,615211c71871ab62cb14cbe1,62c53a67deca570d4abc80d1,2022-07-06_09h34.05.518,Colour_Asymmetry_Pilot,2022.1.3,Win32,59.61251863,62c50e9c1127f2cd403a315f,,,,,,,,,,,,,,,,,,,,,,,,,,,,,,,,,,,,,,,,,,,,,,,,,,,,,,,,,,,,,,,,,,,,,,,,,,,,,,,,,,,,,,,,,,,,,,,,,,,,,,,,,,,,,,,,,,,,,,,,,,,,,,,,,,,,,,,,,,,,,,,,,,,,,,,,,,,,,,,,,,,
0,33,33,46,1,,615211c71871ab62cb14cbe1,62c53a67deca570d4abc80d1,2022-07-06_09h34.05.518,Colour_Asymmetry_Pilot,2022.1.3,Win32,59.61251863,62c50e9c1127f2cd403a315f,,,,,,,,,,,,,,,,,,,,,,,,,,,,,,,,,,,,,,,,,,,,,,,,,,,,,,,,,,,,,,,,,,,,,,,,,,,,,,,,,,,,,,,,,,,,,,,,,,,,,,,,,,,,,,,,,,,,,,,,,,,,,,,,,,,,,,,,,,,,,,,,,,,,,,,,,,,,,,,,,,,
0,34,34,14,1,,615211c71871ab62cb14cbe1,62c53a67deca570d4abc80d1,2022-07-06_09h34.05.518,Colour_Asymmetry_Pilot,2022.1.3,Win32,59.61251863,62c50e9c1127f2cd403a315f,,,,,,,,,,,,,,,,,,,,,,,,,,,,,,,,,,,,,,,,,,,,,,,,,,,,,,,,,,,,,,,,,,,,,,,,,,,,,,,,,,,,,,,,,,,,,,,,,,,,,,,,,,,,,,,,,,,,,,,,,,,,,,,,,,,,,,,,,,,,,,,,,,,,,,,,,,,,,,,,,,,
0,35,35,53,1,,615211c71871ab62cb14cbe1,62c53a67deca570d4abc80d1,2022-07-06_09h34.05.518,Colour_Asymmetry_Pilot,2022.1.3,Win32,59.61251863,62c50e9c1127f2cd403a315f,,,,,,,,,,,,,,,,,,,,,,,,,,,,,,,,,,,,,,,,,,,,,,,,,,,,,,,,,,,,,,,,,,,,,,,,,,,,,,,,,,,,,,,,,,,,,,,,,,,,,,,,,,,,,,,,,,,,,,,,,,,,,,,,,,,,,,,,,,,,,,,,,,,,,,,,,,,,,,,,,,,
0,36,36,84,1,,615211c71871ab62cb14cbe1,62c53a67deca570d4abc80d1,2022-07-06_09h34.05.518,Colour_Asymmetry_Pilot,2022.1.3,Win32,59.61251863,62c50e9c1127f2cd403a315f,,,,,,,,,,,,,,,,,,,,,,,,,,,,,,,,,,,,,,,,,,,,,,,,,,,,,,,,,,,,,,,,,,,,,,,,,,,,,,,,,,,,,,,,,,,,,,,,,,,,,,,,,,,,,,,,,,,,,,,,,,,,,,,,,,,,,,,,,,,,,,,,,,,,,,,,,,,,,,,,,,,
0,37,37,48,1,,615211c71871ab62cb14cbe1,62c53a67deca570d4abc80d1,2022-07-06_09h34.05.518,Colour_Asymmetry_Pilot,2022.1.3,Win32,59.61251863,62c50e9c1127f2cd403a315f,,,,,,,,,,,,,,,,,,,,,,,,,,,,,,,,,,,,,,,,,,,,,,,,,,,,,,,,,,,,,,,,,,,,,,,,,,,,,,,,,,,,,,,,,,,,,,,,,,,,,,,,,,,,,,,,,,,,,,,,,,,,,,,,,,,,,,,,,,,,,,,,,,,,,,,,,,,,,,,,,,,
0,38,38,59,1,,615211c71871ab62cb14cbe1,62c53a67deca570d4abc80d1,2022-07-06_09h34.05.518,Colour_Asymmetry_Pilot,2022.1.3,Win32,59.61251863,62c50e9c1127f2cd403a315f,,,,,,,,,,,,,,,,,,,,,,,,,,,,,,,,,,,,,,,,,,,,,,,,,,,,,,,,,,,,,,,,,,,,,,,,,,,,,,,,,,,,,,,,,,,,,,,,,,,,,,,,,,,,,,,,,,,,,,,,,,,,,,,,,,,,,,,,,,,,,,,,,,,,,,,,,,,,,,,,,,,
0,39,39,4,1,,615211c71871ab62cb14cbe1,62c53a67deca570d4abc80d1,2022-07-06_09h34.05.518,Colour_Asymmetry_Pilot,2022.1.3,Win32,59.61251863,62c50e9c1127f2cd403a315f,,,,,,,,,,,,,,,,,,,,,,,,,,,,,,,,,,,,,,,,,,,,,,,,,,,,,,,,,,,,,,,,,,,,,,,,,,,,,,,,,,,,,,,,,,,,,,,,,,,,,,,,,,,,,,,,,,,,,,,,,,,,,,,,,,,,,,,,,,,,,,,,,,,,,,,,,,,,,,,,,,,
0,40,40,41,1,,615211c71871ab62cb14cbe1,62c53a67deca570d4abc80d1,2022-07-06_09h34.05.518,Colour_Asymmetry_Pilot,2022.1.3,Win32,59.61251863,62c50e9c1127f2cd403a315f,,,,,,,,,,,,,,,,,,,,,,,,,,,,,,,,,,,,,,,,,,,,,,,,,,,,,,,,,,,,,,,,,,,,,,,,,,,,,,,,,,,,,,,,,,,,,,,,,,,,,,,,,,,,,,,,,,,,,,,,,,,,,,,,,,,,,,,,,,,,,,,,,,,,,,,,,,,,,,,,,,,
0,41,41,24,1,,615211c71871ab62cb14cbe1,62c53a67deca570d4abc80d1,2022-07-06_09h34.05.518,Colour_Asymmetry_Pilot,2022.1.3,Win32,59.61251863,62c50e9c1127f2cd403a315f,,,,,,,,,,,,,,,,,,,,,,,,,,,,,,,,,,,,,,,,,,,,,,,,,,,,,,,,,,,,,,,,,,,,,,,,,,,,,,,,,,,,,,,,,,,,,,,,,,,,,,,,,,,,,,,,,,,,,,,,,,,,,,,,,,,,,,,,,,,,,,,,,,,,,,,,,,,,,,,,,,,
0,42,42,81,1,,615211c71871ab62cb14cbe1,62c53a67deca570d4abc80d1,2022-07-06_09h34.05.518,Colour_Asymmetry_Pilot,2022.1.3,Win32,59.61251863,62c50e9c1127f2cd403a315f,,,,,,,,,,,,,,,,,,,,,,,,,,,,,,,,,,,,,,,,,,,,,,,,,,,,,,,,,,,,,,,,,,,,,,,,,,,,,,,,,,,,,,,,,,,,,,,,,,,,,,,,,,,,,,,,,,,,,,,,,,,,,,,,,,,,,,,,,,,,,,,,,,,,,,,,,,,,,,,,,,,
0,43,43,73,1,,615211c71871ab62cb14cbe1,62c53a67deca570d4abc80d1,2022-07-06_09h34.05.518,Colour_Asymmetry_Pilot,2022.1.3,Win32,59.61251863,62c50e9c1127f2cd403a315f,,,,,,,,,,,,,,,,,,,,,,,,,,,,,,,,,,,,,,,,,,,,,,,,,,,,,,,,,,,,,,,,,,,,,,,,,,,,,,,,,,,,,,,,,,,,,,,,,,,,,,,,,,,,,,,,,,,,,,,,,,,,,,,,,,,,,,,,,,,,,,,,,,,,,,,,,,,,,,,,,,,
0,44,44,54,1,,615211c71871ab62cb14cbe1,62c53a67deca570d4abc80d1,2022-07-06_09h34.05.518,Colour_Asymmetry_Pilot,2022.1.3,Win32,59.61251863,62c50e9c1127f2cd403a315f,,,,,,,,,,,,,,,,,,,,,,,,,,,,,,,,,,,,,,,,,,,,,,,,,,,,,,,,,,,,,,,,,,,,,,,,,,,,,,,,,,,,,,,,,,,,,,,,,,,,,,,,,,,,,,,,,,,,,,,,,,,,,,,,,,,,,,,,,,,,,,,,,,,,,,,,,,,,,,,,,,,
0,45,45,75,1,,615211c71871ab62cb14cbe1,62c53a67deca570d4abc80d1,2022-07-06_09h34.05.518,Colour_Asymmetry_Pilot,2022.1.3,Win32,59.61251863,62c50e9c1127f2cd403a315f,,,,,,,,,,,,,,,,,,,,,,,,,,,,,,,,,,,,,,,,,,,,,,,,,,,,,,,,,,,,,,,,,,,,,,,,,,,,,,,,,,,,,,,,,,,,,,,,,,,,,,,,,,,,,,,,,,,,,,,,,,,,,,,,,,,,,,,,,,,,,,,,,,,,,,,,,,,,,,,,,,,
0,46,46,19,1,,615211c71871ab62cb14cbe1,62c53a67deca570d4abc80d1,2022-07-06_09h34.05.518,Colour_Asymmetry_Pilot,2022.1.3,Win32,59.61251863,62c50e9c1127f2cd403a315f,,,,,,,,,,,,,,,,,,,,,,,,,,,,,,,,,,,,,,,,,,,,,,,,,,,,,,,,,,,,,,,,,,,,,,,,,,,,,,,,,,,,,,,,,,,,,,,,,,,,,,,,,,,,,,,,,,,,,,,,,,,,,,,,,,,,,,,,,,,,,,,,,,,,,,,,,,,,,,,,,,,
0,47,47,68,1,,615211c71871ab62cb14cbe1,62c53a67deca570d4abc80d1,2022-07-06_09h34.05.518,Colour_Asymmetry_Pilot,2022.1.3,Win32,59.61251863,62c50e9c1127f2cd403a315f,,,,,,,,,,,,,,,,,,,,,,,,,,,,,,,,,,,,,,,,,,,,,,,,,,,,,,,,,,,,,,,,,,,,,,,,,,,,,,,,,,,,,,,,,,,,,,,,,,,,,,,,,,,,,,,,,,,,,,,,,,,,,,,,,,,,,,,,,,,,,,,,,,,,,,,,,,,,,,,,,,,
0,48,48,27,1,,615211c71871ab62cb14cbe1,62c53a67deca570d4abc80d1,2022-07-06_09h34.05.518,Colour_Asymmetry_Pilot,2022.1.3,Win32,59.61251863,62c50e9c1127f2cd403a315f,,,,,,,,,,,,,,,,,,,,,,,,,,,,,,,,,,,,,,,,,,,,,,,,,,,,,,,,,,,,,,,,,,,,,,,,,,,,,,,,,,,,,,,,,,,,,,,,,,,,,,,,,,,,,,,,,,,,,,,,,,,,,,,,,,,,,,,,,,,,,,,,,,,,,,,,,,,,,,,,,,,
0,49,49,52,1,,615211c71871ab62cb14cbe1,62c53a67deca570d4abc80d1,2022-07-06_09h34.05.518,Colour_Asymmetry_Pilot,2022.1.3,Win32,59.61251863,62c50e9c1127f2cd403a315f,,,,,,,,,,,,,,,,,,,,,,,,,,,,,,,,,,,,,,,,,,,,,,,,,,,,,,,,,,,,,,,,,,,,,,,,,,,,,,,,,,,,,,,,,,,,,,,,,,,,,,,,,,,,,,,,,,,,,,,,,,,,,,,,,,,,,,,,,,,,,,,,,,,,,,,,,,,,,,,,,,,
0,50,50,23,1,,615211c71871ab62cb14cbe1,62c53a67deca570d4abc80d1,2022-07-06_09h34.05.518,Colour_Asymmetry_Pilot,2022.1.3,Win32,59.61251863,62c50e9c1127f2cd403a315f,,,,,,,,,,,,,,,,,,,,,,,,,,,,,,,,,,,,,,,,,,,,,,,,,,,,,,,,,,,,,,,,,,,,,,,,,,,,,,,,,,,,,,,,,,,,,,,,,,,,,,,,,,,,,,,,,,,,,,,,,,,,,,,,,,,,,,,,,,,,,,,,,,,,,,,,,,,,,,,,,,,
0,51,51,86,1,,615211c71871ab62cb14cbe1,62c53a67deca570d4abc80d1,2022-07-06_09h34.05.518,Colour_Asymmetry_Pilot,2022.1.3,Win32,59.61251863,62c50e9c1127f2cd403a315f,,,,,,,,,,,,,,,,,,,,,,,,,,,,,,,,,,,,,,,,,,,,,,,,,,,,,,,,,,,,,,,,,,,,,,,,,,,,,,,,,,,,,,,,,,,,,,,,,,,,,,,,,,,,,,,,,,,,,,,,,,,,,,,,,,,,,,,,,,,,,,,,,,,,,,,,,,,,,,,,,,,
0,52,52,39,1,,615211c71871ab62cb14cbe1,62c53a67deca570d4abc80d1,2022-07-06_09h34.05.518,Colour_Asymmetry_Pilot,2022.1.3,Win32,59.61251863,62c50e9c1127f2cd403a315f,,,,,,,,,,,,,,,,,,,,,,,,,,,,,,,,,,,,,,,,,,,,,,,,,,,,,,,,,,,,,,,,,,,,,,,,,,,,,,,,,,,,,,,,,,,,,,,,,,,,,,,,,,,,,,,,,,,,,,,,,,,,,,,,,,,,,,,,,,,,,,,,,,,,,,,,,,,,,,,,,,,
0,53,53,40,1,,615211c71871ab62cb14cbe1,62c53a67deca570d4abc80d1,2022-07-06_09h34.05.518,Colour_Asymmetry_Pilot,2022.1.3,Win32,59.61251863,62c50e9c1127f2cd403a315f,,,,,,,,,,,,,,,,,,,,,,,,,,,,,,,,,,,,,,,,,,,,,,,,,,,,,,,,,,,,,,,,,,,,,,,,,,,,,,,,,,,,,,,,,,,,,,,,,,,,,,,,,,,,,,,,,,,,,,,,,,,,,,,,,,,,,,,,,,,,,,,,,,,,,,,,,,,,,,,,,,,
0,54,54,34,1,,615211c71871ab62cb14cbe1,62c53a67deca570d4abc80d1,2022-07-06_09h34.05.518,Colour_Asymmetry_Pilot,2022.1.3,Win32,59.61251863,62c50e9c1127f2cd403a315f,,,,,,,,,,,,,,,,,,,,,,,,,,,,,,,,,,,,,,,,,,,,,,,,,,,,,,,,,,,,,,,,,,,,,,,,,,,,,,,,,,,,,,,,,,,,,,,,,,,,,,,,,,,,,,,,,,,,,,,,,,,,,,,,,,,,,,,,,,,,,,,,,,,,,,,,,,,,,,,,,,,
0,55,55,56,1,,615211c71871ab62cb14cbe1,62c53a67deca570d4abc80d1,2022-07-06_09h34.05.518,Colour_Asymmetry_Pilot,2022.1.3,Win32,59.61251863,62c50e9c1127f2cd403a315f,,,,,,,,,,,,,,,,,,,,,,,,,,,,,,,,,,,,,,,,,,,,,,,,,,,,,,,,,,,,,,,,,,,,,,,,,,,,,,,,,,,,,,,,,,,,,,,,,,,,,,,,,,,,,,,,,,,,,,,,,,,,,,,,,,,,,,,,,,,,,,,,,,,,,,,,,,,,,,,,,,,
0,56,56,82,1,,615211c71871ab62cb14cbe1,62c53a67deca570d4abc80d1,2022-07-06_09h34.05.518,Colour_Asymmetry_Pilot,2022.1.3,Win32,59.61251863,62c50e9c1127f2cd403a315f,,,,,,,,,,,,,,,,,,,,,,,,,,,,,,,,,,,,,,,,,,,,,,,,,,,,,,,,,,,,,,,,,,,,,,,,,,,,,,,,,,,,,,,,,,,,,,,,,,,,,,,,,,,,,,,,,,,,,,,,,,,,,,,,,,,,,,,,,,,,,,,,,,,,,,,,,,,,,,,,,,,
0,57,57,15,1,,615211c71871ab62cb14cbe1,62c53a67deca570d4abc80d1,2022-07-06_09h34.05.518,Colour_Asymmetry_Pilot,2022.1.3,Win32,59.61251863,62c50e9c1127f2cd403a315f,,,,,,,,,,,,,,,,,,,,,,,,,,,,,,,,,,,,,,,,,,,,,,,,,,,,,,,,,,,,,,,,,,,,,,,,,,,,,,,,,,,,,,,,,,,,,,,,,,,,,,,,,,,,,,,,,,,,,,,,,,,,,,,,,,,,,,,,,,,,,,,,,,,,,,,,,,,,,,,,,,,
0,58,58,72,1,,615211c71871ab62cb14cbe1,62c53a67deca570d4abc80d1,2022-07-06_09h34.05.518,Colour_Asymmetry_Pilot,2022.1.3,Win32,59.61251863,62c50e9c1127f2cd403a315f,,,,,,,,,,,,,,,,,,,,,,,,,,,,,,,,,,,,,,,,,,,,,,,,,,,,,,,,,,,,,,,,,,,,,,,,,,,,,,,,,,,,,,,,,,,,,,,,,,,,,,,,,,,,,,,,,,,,,,,,,,,,,,,,,,,,,,,,,,,,,,,,,,,,,,,,,,,,,,,,,,,
0,59,59,92,1,,615211c71871ab62cb14cbe1,62c53a67deca570d4abc80d1,2022-07-06_09h34.05.518,Colour_Asymmetry_Pilot,2022.1.3,Win32,59.61251863,62c50e9c1127f2cd403a315f,,,,,,,,,,,,,,,,,,,,,,,,,,,,,,,,,,,,,,,,,,,,,,,,,,,,,,,,,,,,,,,,,,,,,,,,,,,,,,,,,,,,,,,,,,,,,,,,,,,,,,,,,,,,,,,,,,,,,,,,,,,,,,,,,,,,,,,,,,,,,,,,,,,,,,,,,,,,,,,,,,,
0,60,60,71,1,,615211c71871ab62cb14cbe1,62c53a67deca570d4abc80d1,2022-07-06_09h34.05.518,Colour_Asymmetry_Pilot,2022.1.3,Win32,59.61251863,62c50e9c1127f2cd403a315f,,,,,,,,,,,,,,,,,,,,,,,,,,,,,,,,,,,,,,,,,,,,,,,,,,,,,,,,,,,,,,,,,,,,,,,,,,,,,,,,,,,,,,,,,,,,,,,,,,,,,,,,,,,,,,,,,,,,,,,,,,,,,,,,,,,,,,,,,,,,,,,,,,,,,,,,,,,,,,,,,,,
0,61,61,5,1,,615211c71871ab62cb14cbe1,62c53a67deca570d4abc80d1,2022-07-06_09h34.05.518,Colour_Asymmetry_Pilot,2022.1.3,Win32,59.61251863,62c50e9c1127f2cd403a315f,,,,,,,,,,,,,,,,,,,,,,,,,,,,,,,,,,,,,,,,,,,,,,,,,,,,,,,,,,,,,,,,,,,,,,,,,,,,,,,,,,,,,,,,,,,,,,,,,,,,,,,,,,,,,,,,,,,,,,,,,,,,,,,,,,,,,,,,,,,,,,,,,,,,,,,,,,,,,,,,,,,
0,62,62,88,1,,615211c71871ab62cb14cbe1,62c53a67deca570d4abc80d1,2022-07-06_09h34.05.518,Colour_Asymmetry_Pilot,2022.1.3,Win32,59.61251863,62c50e9c1127f2cd403a315f,,,,,,,,,,,,,,,,,,,,,,,,,,,,,,,,,,,,,,,,,,,,,,,,,,,,,,,,,,,,,,,,,,,,,,,,,,,,,,,,,,,,,,,,,,,,,,,,,,,,,,,,,,,,,,,,,,,,,,,,,,,,,,,,,,,,,,,,,,,,,,,,,,,,,,,,,,,,,,,,,,,
0,63,63,26,1,,615211c71871ab62cb14cbe1,62c53a67deca570d4abc80d1,2022-07-06_09h34.05.518,Colour_Asymmetry_Pilot,2022.1.3,Win32,59.61251863,62c50e9c1127f2cd403a315f,,,,,,,,,,,,,,,,,,,,,,,,,,,,,,,,,,,,,,,,,,,,,,,,,,,,,,,,,,,,,,,,,,,,,,,,,,,,,,,,,,,,,,,,,,,,,,,,,,,,,,,,,,,,,,,,,,,,,,,,,,,,,,,,,,,,,,,,,,,,,,,,,,,,,,,,,,,,,,,,,,,
0,64,64,3,1,,615211c71871ab62cb14cbe1,62c53a67deca570d4abc80d1,2022-07-06_09h34.05.518,Colour_Asymmetry_Pilot,2022.1.3,Win32,59.61251863,62c50e9c1127f2cd403a315f,,,,,,,,,,,,,,,,,,,,,,,,,,,,,,,,,,,,,,,,,,,,,,,,,,,,,,,,,,,,,,,,,,,,,,,,,,,,,,,,,,,,,,,,,,,,,,,,,,,,,,,,,,,,,,,,,,,,,,,,,,,,,,,,,,,,,,,,,,,,,,,,,,,,,,,,,,,,,,,,,,,
0,65,65,21,1,,615211c71871ab62cb14cbe1,62c53a67deca570d4abc80d1,2022-07-06_09h34.05.518,Colour_Asymmetry_Pilot,2022.1.3,Win32,59.61251863,62c50e9c1127f2cd403a315f,,,,,,,,,,,,,,,,,,,,,,,,,,,,,,,,,,,,,,,,,,,,,,,,,,,,,,,,,,,,,,,,,,,,,,,,,,,,,,,,,,,,,,,,,,,,,,,,,,,,,,,,,,,,,,,,,,,,,,,,,,,,,,,,,,,,,,,,,,,,,,,,,,,,,,,,,,,,,,,,,,,
0,66,66,90,1,,615211c71871ab62cb14cbe1,62c53a67deca570d4abc80d1,2022-07-06_09h34.05.518,Colour_Asymmetry_Pilot,2022.1.3,Win32,59.61251863,62c50e9c1127f2cd403a315f,,,,,,,,,,,,,,,,,,,,,,,,,,,,,,,,,,,,,,,,,,,,,,,,,,,,,,,,,,,,,,,,,,,,,,,,,,,,,,,,,,,,,,,,,,,,,,,,,,,,,,,,,,,,,,,,,,,,,,,,,,,,,,,,,,,,,,,,,,,,,,,,,,,,,,,,,,,,,,,,,,,
0,67,67,76,1,,615211c71871ab62cb14cbe1,62c53a67deca570d4abc80d1,2022-07-06_09h34.05.518,Colour_Asymmetry_Pilot,2022.1.3,Win32,59.61251863,62c50e9c1127f2cd403a315f,,,,,,,,,,,,,,,,,,,,,,,,,,,,,,,,,,,,,,,,,,,,,,,,,,,,,,,,,,,,,,,,,,,,,,,,,,,,,,,,,,,,,,,,,,,,,,,,,,,,,,,,,,,,,,,,,,,,,,,,,,,,,,,,,,,,,,,,,,,,,,,,,,,,,,,,,,,,,,,,,,,
0,68,68,38,1,,615211c71871ab62cb14cbe1,62c53a67deca570d4abc80d1,2022-07-06_09h34.05.518,Colour_Asymmetry_Pilot,2022.1.3,Win32,59.61251863,62c50e9c1127f2cd403a315f,,,,,,,,,,,,,,,,,,,,,,,,,,,,,,,,,,,,,,,,,,,,,,,,,,,,,,,,,,,,,,,,,,,,,,,,,,,,,,,,,,,,,,,,,,,,,,,,,,,,,,,,,,,,,,,,,,,,,,,,,,,,,,,,,,,,,,,,,,,,,,,,,,,,,,,,,,,,,,,,,,,
0,69,69,6,1,,615211c71871ab62cb14cbe1,62c53a67deca570d4abc80d1,2022-07-06_09h34.05.518,Colour_Asymmetry_Pilot,2022.1.3,Win32,59.61251863,62c50e9c1127f2cd403a315f,,,,,,,,,,,,,,,,,,,,,,,,,,,,,,,,,,,,,,,,,,,,,,,,,,,,,,,,,,,,,,,,,,,,,,,,,,,,,,,,,,,,,,,,,,,,,,,,,,,,,,,,,,,,,,,,,,,,,,,,,,,,,,,,,,,,,,,,,,,,,,,,,,,,,,,,,,,,,,,,,,,
0,70,70,10,1,,615211c71871ab62cb14cbe1,62c53a67deca570d4abc80d1,2022-07-06_09h34.05.518,Colour_Asymmetry_Pilot,2022.1.3,Win32,59.61251863,62c50e9c1127f2cd403a315f,,,,,,,,,,,,,,,,,,,,,,,,,,,,,,,,,,,,,,,,,,,,,,,,,,,,,,,,,,,,,,,,,,,,,,,,,,,,,,,,,,,,,,,,,,,,,,,,,,,,,,,,,,,,,,,,,,,,,,,,,,,,,,,,,,,,,,,,,,,,,,,,,,,,,,,,,,,,,,,,,,,
0,71,71,30,1,,615211c71871ab62cb14cbe1,62c53a67deca570d4abc80d1,2022-07-06_09h34.05.518,Colour_Asymmetry_Pilot,2022.1.3,Win32,59.61251863,62c50e9c1127f2cd403a315f,,,,,,,,,,,,,,,,,,,,,,,,,,,,,,,,,,,,,,,,,,,,,,,,,,,,,,,,,,,,,,,,,,,,,,,,,,,,,,,,,,,,,,,,,,,,,,,,,,,,,,,,,,,,,,,,,,,,,,,,,,,,,,,,,,,,,,,,,,,,,,,,,,,,,,,,,,,,,,,,,,,
0,72,72,43,1,,615211c71871ab62cb14cbe1,62c53a67deca570d4abc80d1,2022-07-06_09h34.05.518,Colour_Asymmetry_Pilot,2022.1.3,Win32,59.61251863,62c50e9c1127f2cd403a315f,,,,,,,,,,,,,,,,,,,,,,,,,,,,,,,,,,,,,,,,,,,,,,,,,,,,,,,,,,,,,,,,,,,,,,,,,,,,,,,,,,,,,,,,,,,,,,,,,,,,,,,,,,,,,,,,,,,,,,,,,,,,,,,,,,,,,,,,,,,,,,,,,,,,,,,,,,,,,,,,,,,
0,73,73,66,1,,615211c71871ab62cb14cbe1,62c53a67deca570d4abc80d1,2022-07-06_09h34.05.518,Colour_Asymmetry_Pilot,2022.1.3,Win32,59.61251863,62c50e9c1127f2cd403a315f,,,,,,,,,,,,,,,,,,,,,,,,,,,,,,,,,,,,,,,,,,,,,,,,,,,,,,,,,,,,,,,,,,,,,,,,,,,,,,,,,,,,,,,,,,,,,,,,,,,,,,,,,,,,,,,,,,,,,,,,,,,,,,,,,,,,,,,,,,,,,,,,,,,,,,,,,,,,,,,,,,,
0,74,74,50,1,,615211c71871ab62cb14cbe1,62c53a67deca570d4abc80d1,2022-07-06_09h34.05.518,Colour_Asymmetry_Pilot,2022.1.3,Win32,59.61251863,62c50e9c1127f2cd403a315f,,,,,,,,,,,,,,,,,,,,,,,,,,,,,,,,,,,,,,,,,,,,,,,,,,,,,,,,,,,,,,,,,,,,,,,,,,,,,,,,,,,,,,,,,,,,,,,,,,,,,,,,,,,,,,,,,,,,,,,,,,,,,,,,,,,,,,,,,,,,,,,,,,,,,,,,,,,,,,,,,,,
0,75,75,32,1,,615211c71871ab62cb14cbe1,62c53a67deca570d4abc80d1,2022-07-06_09h34.05.518,Colour_Asymmetry_Pilot,2022.1.3,Win32,59.61251863,62c50e9c1127f2cd403a315f,,,,,,,,,,,,,,,,,,,,,,,,,,,,,,,,,,,,,,,,,,,,,,,,,,,,,,,,,,,,,,,,,,,,,,,,,,,,,,,,,,,,,,,,,,,,,,,,,,,,,,,,,,,,,,,,,,,,,,,,,,,,,,,,,,,,,,,,,,,,,,,,,,,,,,,,,,,,,,,,,,,
0,76,76,55,1,,615211c71871ab62cb14cbe1,62c53a67deca570d4abc80d1,2022-07-06_09h34.05.518,Colour_Asymmetry_Pilot,2022.1.3,Win32,59.61251863,62c50e9c1127f2cd403a315f,,,,,,,,,,,,,,,,,,,,,,,,,,,,,,,,,,,,,,,,,,,,,,,,,,,,,,,,,,,,,,,,,,,,,,,,,,,,,,,,,,,,,,,,,,,,,,,,,,,,,,,,,,,,,,,,,,,,,,,,,,,,,,,,,,,,,,,,,,,,,,,,,,,,,,,,,,,,,,,,,,,
0,77,77,91,1,,615211c71871ab62cb14cbe1,62c53a67deca570d4abc80d1,2022-07-06_09h34.05.518,Colour_Asymmetry_Pilot,2022.1.3,Win32,59.61251863,62c50e9c1127f2cd403a315f,,,,,,,,,,,,,,,,,,,,,,,,,,,,,,,,,,,,,,,,,,,,,,,,,,,,,,,,,,,,,,,,,,,,,,,,,,,,,,,,,,,,,,,,,,,,,,,,,,,,,,,,,,,,,,,,,,,,,,,,,,,,,,,,,,,,,,,,,,,,,,,,,,,,,,,,,,,,,,,,,,,
0,78,78,28,1,,615211c71871ab62cb14cbe1,62c53a67deca570d4abc80d1,2022-07-06_09h34.05.518,Colour_Asymmetry_Pilot,2022.1.3,Win32,59.61251863,62c50e9c1127f2cd403a315f,,,,,,,,,,,,,,,,,,,,,,,,,,,,,,,,,,,,,,,,,,,,,,,,,,,,,,,,,,,,,,,,,,,,,,,,,,,,,,,,,,,,,,,,,,,,,,,,,,,,,,,,,,,,,,,,,,,,,,,,,,,,,,,,,,,,,,,,,,,,,,,,,,,,,,,,,,,,,,,,,,,
0,79,79,0,1,,615211c71871ab62cb14cbe1,62c53a67deca570d4abc80d1,2022-07-06_09h34.05.518,Colour_Asymmetry_Pilot,2022.1.3,Win32,59.61251863,62c50e9c1127f2cd403a315f,,,,,,,,,,,,,,,,,,,,,,,,,,,,,,,,,,,,,,,,,,,,,,,,,,,,,,,,,,,,,,,,,,,,,,,,,,,,,,,,,,,,,,,,,,,,,,,,,,,,,,,,,,,,,,,,,,,,,,,,,,,,,,,,,,,,,,,,,,,,,,,,,,,,,,,,,,,,,,,,,,,
0,80,80,29,1,,615211c71871ab62cb14cbe1,62c53a67deca570d4abc80d1,2022-07-06_09h34.05.518,Colour_Asymmetry_Pilot,2022.1.3,Win32,59.61251863,62c50e9c1127f2cd403a315f,,,,,,,,,,,,,,,,,,,,,,,,,,,,,,,,,,,,,,,,,,,,,,,,,,,,,,,,,,,,,,,,,,,,,,,,,,,,,,,,,,,,,,,,,,,,,,,,,,,,,,,,,,,,,,,,,,,,,,,,,,,,,,,,,,,,,,,,,,,,,,,,,,,,,,,,,,,,,,,,,,,
0,81,81,20,1,,615211c71871ab62cb14cbe1,62c53a67deca570d4abc80d1,2022-07-06_09h34.05.518,Colour_Asymmetry_Pilot,2022.1.3,Win32,59.61251863,62c50e9c1127f2cd403a315f,,,,,,,,,,,,,,,,,,,,,,,,,,,,,,,,,,,,,,,,,,,,,,,,,,,,,,,,,,,,,,,,,,,,,,,,,,,,,,,,,,,,,,,,,,,,,,,,,,,,,,,,,,,,,,,,,,,,,,,,,,,,,,,,,,,,,,,,,,,,,,,,,,,,,,,,,,,,,,,,,,,
0,82,82,7,1,,615211c71871ab62cb14cbe1,62c53a67deca570d4abc80d1,2022-07-06_09h34.05.518,Colour_Asymmetry_Pilot,2022.1.3,Win32,59.61251863,62c50e9c1127f2cd403a315f,,,,,,,,,,,,,,,,,,,,,,,,,,,,,,,,,,,,,,,,,,,,,,,,,,,,,,,,,,,,,,,,,,,,,,,,,,,,,,,,,,,,,,,,,,,,,,,,,,,,,,,,,,,,,,,,,,,,,,,,,,,,,,,,,,,,,,,,,,,,,,,,,,,,,,,,,,,,,,,,,,,
0,83,83,79,1,,615211c71871ab62cb14cbe1,62c53a67deca570d4abc80d1,2022-07-06_09h34.05.518,Colour_Asymmetry_Pilot,2022.1.3,Win32,59.61251863,62c50e9c1127f2cd403a315f,,,,,,,,,,,,,,,,,,,,,,,,,,,,,,,,,,,,,,,,,,,,,,,,,,,,,,,,,,,,,,,,,,,,,,,,,,,,,,,,,,,,,,,,,,,,,,,,,,,,,,,,,,,,,,,,,,,,,,,,,,,,,,,,,,,,,,,,,,,,,,,,,,,,,,,,,,,,,,,,,,,
0,84,84,85,1,,615211c71871ab62cb14cbe1,62c53a67deca570d4abc80d1,2022-07-06_09h34.05.518,Colour_Asymmetry_Pilot,2022.1.3,Win32,59.61251863,62c50e9c1127f2cd403a315f,,,,,,,,,,,,,,,,,,,,,,,,,,,,,,,,,,,,,,,,,,,,,,,,,,,,,,,,,,,,,,,,,,,,,,,,,,,,,,,,,,,,,,,,,,,,,,,,,,,,,,,,,,,,,,,,,,,,,,,,,,,,,,,,,,,,,,,,,,,,,,,,,,,,,,,,,,,,,,,,,,,
0,85,85,67,1,,615211c71871ab62cb14cbe1,62c53a67deca570d4abc80d1,2022-07-06_09h34.05.518,Colour_Asymmetry_Pilot,2022.1.3,Win32,59.61251863,62c50e9c1127f2cd403a315f,,,,,,,,,,,,,,,,,,,,,,,,,,,,,,,,,,,,,,,,,,,,,,,,,,,,,,,,,,,,,,,,,,,,,,,,,,,,,,,,,,,,,,,,,,,,,,,,,,,,,,,,,,,,,,,,,,,,,,,,,,,,,,,,,,,,,,,,,,,,,,,,,,,,,,,,,,,,,,,,,,,
0,86,86,16,1,,615211c71871ab62cb14cbe1,62c53a67deca570d4abc80d1,2022-07-06_09h34.05.518,Colour_Asymmetry_Pilot,2022.1.3,Win32,59.61251863,62c50e9c1127f2cd403a315f,,,,,,,,,,,,,,,,,,,,,,,,,,,,,,,,,,,,,,,,,,,,,,,,,,,,,,,,,,,,,,,,,,,,,,,,,,,,,,,,,,,,,,,,,,,,,,,,,,,,,,,,,,,,,,,,,,,,,,,,,,,,,,,,,,,,,,,,,,,,,,,,,,,,,,,,,,,,,,,,,,,
0,87,87,13,1,,615211c71871ab62cb14cbe1,62c53a67deca570d4abc80d1,2022-07-06_09h34.05.518,Colour_Asymmetry_Pilot,2022.1.3,Win32,59.61251863,62c50e9c1127f2cd403a315f,,,,,,,,,,,,,,,,,,,,,,,,,,,,,,,,,,,,,,,,,,,,,,,,,,,,,,,,,,,,,,,,,,,,,,,,,,,,,,,,,,,,,,,,,,,,,,,,,,,,,,,,,,,,,,,,,,,,,,,,,,,,,,,,,,,,,,,,,,,,,,,,,,,,,,,,,,,,,,,,,,,
0,88,88,12,1,,615211c71871ab62cb14cbe1,62c53a67deca570d4abc80d1,2022-07-06_09h34.05.518,Colour_Asymmetry_Pilot,2022.1.3,Win32,59.61251863,62c50e9c1127f2cd403a315f,,,,,,,,,,,,,,,,,,,,,,,,,,,,,,,,,,,,,,,,,,,,,,,,,,,,,,,,,,,,,,,,,,,,,,,,,,,,,,,,,,,,,,,,,,,,,,,,,,,,,,,,,,,,,,,,,,,,,,,,,,,,,,,,,,,,,,,,,,,,,,,,,,,,,,,,,,,,,,,,,,,
0,89,89,69,1,,615211c71871ab62cb14cbe1,62c53a67deca570d4abc80d1,2022-07-06_09h34.05.518,Colour_Asymmetry_Pilot,2022.1.3,Win32,59.61251863,62c50e9c1127f2cd403a315f,,,,,,,,,,,,,,,,,,,,,,,,,,,,,,,,,,,,,,,,,,,,,,,,,,,,,,,,,,,,,,,,,,,,,,,,,,,,,,,,,,,,,,,,,,,,,,,,,,,,,,,,,,,,,,,,,,,,,,,,,,,,,,,,,,,,,,,,,,,,,,,,,,,,,,,,,,,,,,,,,,,
0,90,90,9,1,,615211c71871ab62cb14cbe1,62c53a67deca570d4abc80d1,2022-07-06_09h34.05.518,Colour_Asymmetry_Pilot,2022.1.3,Win32,59.61251863,62c50e9c1127f2cd403a315f,,,,,,,,,,,,,,,,,,,,,,,,,,,,,,,,,,,,,,,,,,,,,,,,,,,,,,,,,,,,,,,,,,,,,,,,,,,,,,,,,,,,,,,,,,,,,,,,,,,,,,,,,,,,,,,,,,,,,,,,,,,,,,,,,,,,,,,,,,,,,,,,,,,,,,,,,,,,,,,,,,,
0,91,91,11,1,,615211c71871ab62cb14cbe1,62c53a67deca570d4abc80d1,2022-07-06_09h34.05.518,Colour_Asymmetry_Pilot,2022.1.3,Win32,59.61251863,62c50e9c1127f2cd403a315f,,,,,,,,,,,,,,,,,,,,,,,,,,,,,,,,,,,,,,,,,,,,,,,,,,,,,,,,,,,,,,,,,,,,,,,,,,,,,,,,,,,,,,,,,,,,,,,,,,,,,,,,,,,,,,,,,,,,,,,,,,,,,,,,,,,,,,,,,,,,,,,,,,,,,,,,,,,,,,,,,,,
0,92,92,31,1,,615211c71871ab62cb14cbe1,62c53a67deca570d4abc80d1,2022-07-06_09h34.05.518,Colour_Asymmetry_Pilot,2022.1.3,Win32,59.61251863,62c50e9c1127f2cd403a315f,,,,,,,,,,,,,,,,,,,,,,,,,,,,,,,,,,,,,,,,,,,,,,,,,,,,,,,,,,,,,,,,,,,,,,,,,,,,,,,,,,,,,,,,,,,,,,,,,,,,,,,,,,,,,,,,,,,,,,,,,,,,,,,,,,,,,,,,,,,,,,,,,,,,,,,,,,,,,,,,,,,
,,,,,,615211c71871ab62cb14cbe1,62c53a67deca570d4abc80d1,2022-07-06_09h34.05.518,Colour_Asymmetry_Pilot,2022.1.3,Win32,59.61251863,62c50e9c1127f2cd403a315f,0,0,0,147,1,twofour,,,,,,,,,,,,,,,,,,,,,,,,,,,,,,,,,,,,,,,,,,,,,,,,,,,,,,,,,,,,,,,,,,,,,,,,,,,,,,,,,,,,,,,,,,,,,,,,,,,,,,,,,,,,,,,,,,,,,,,,,,,,,,,,,,,,,,,,,,,,,,,,,,,,,,,,,,,,,
,,,,,,615211c71871ab62cb14cbe1,62c53a67deca570d4abc80d1,2022-07-06_09h34.05.518,Colour_Asymmetry_Pilot,2022.1.3,Win32,59.61251863,62c50e9c1127f2cd403a315f,0,1,1,55,1,fourthree,,,,,,,,,,,,,,,,,,,,,,,,,,,,,,,,,,,,,,,,,,,,,,,,,,,,,,,,,,,,,,,,,,,,,,,,,,,,,,,,,,,,,,,,,,,,,,,,,,,,,,,,,,,,,,,,,,,,,,,,,,,,,,,,,,,,,,,,,,,,,,,,,,,,,,,,,,,,,
,,,,,,615211c71871ab62cb14cbe1,62c53a67deca570d4abc80d1,2022-07-06_09h34.05.518,Colour_Asymmetry_Pilot,2022.1.3,Win32,59.61251863,62c50e9c1127f2cd403a315f,0,2,2,123,1,twofour,,,,,,,,,,,,,,,,,,,,,,,,,,,,,,,,,,,,,,,,,,,,,,,,,,,,,,,,,,,,,,,,,,,,,,,,,,,,,,,,,,,,,,,,,,,,,,,,,,,,,,,,,,,,,,,,,,,,,,,,,,,,,,,,,,,,,,,,,,,,,,,,,,,,,,,,,,,,,
,,,,,,615211c71871ab62cb14cbe1,62c53a67deca570d4abc80d1,2022-07-06_09h34.05.518,Colour_Asymmetry_Pilot,2022.1.3,Win32,59.61251863,62c50e9c1127f2cd403a315f,0,3,3,57,1,onethree,,,,,,,,,,,,,,,,,,,,,,,,,,,,,,,,,,,,,,,,,,,,,,,,,,,,,,,,,,,,,,,,,,,,,,,,,,,,,,,,,,,,,,,,,,,,,,,,,,,,,,,,,,,,,,,,,,,,,,,,,,,,,,,,,,,,,,,,,,,,,,,,,,,,,,,,,,,,,
,,,,,,615211c71871ab62cb14cbe1,62c53a67deca570d4abc80d1,2022-07-06_09h34.05.518,Colour_Asymmetry_Pilot,2022.1.3,Win32,59.61251863,62c50e9c1127f2cd403a315f,0,4,4,153,1,onethree,,,,,,,,,,,,,,,,,,,,,,,,,,,,,,,,,,,,,,,,,,,,,,,,,,,,,,,,,,,,,,,,,,,,,,,,,,,,,,,,,,,,,,,,,,,,,,,,,,,,,,,,,,,,,,,,,,,,,,,,,,,,,,,,,,,,,,,,,,,,,,,,,,,,,,,,,,,,,
,,,,,,615211c71871ab62cb14cbe1,62c53a67deca570d4abc80d1,2022-07-06_09h34.05.518,Colour_Asymmetry_Pilot,2022.1.3,Win32,59.61251863,62c50e9c1127f2cd403a315f,0,5,5,157,1,threefour,,,,,,,,,,,,,,,,,,,,,,,,,,,,,,,,,,,,,,,,,,,,,,,,,,,,,,,,,,,,,,,,,,,,,,,,,,,,,,,,,,,,,,,,,,,,,,,,,,,,,,,,,,,,,,,,,,,,,,,,,,,,,,,,,,,,,,,,,,,,,,,,,,,,,,,,,,,,,
,,,,,,615211c71871ab62cb14cbe1,62c53a67deca570d4abc80d1,2022-07-06_09h34.05.518,Colour_Asymmetry_Pilot,2022.1.3,Win32,59.61251863,62c50e9c1127f2cd403a315f,0,6,6,43,1,twofour,,,,,,,,,,,,,,,,,,,,,,,,,,,,,,,,,,,,,,,,,,,,,,,,,,,,,,,,,,,,,,,,,,,,,,,,,,,,,,,,,,,,,,,,,,,,,,,,,,,,,,,,,,,,,,,,,,,,,,,,,,,,,,,,,,,,,,,,,,,,,,,,,,,,,,,,,,,,,
,,,,,,615211c71871ab62cb14cbe1,62c53a67deca570d4abc80d1,2022-07-06_09h34.05.518,Colour_Asymmetry_Pilot,2022.1.3,Win32,59.61251863,62c50e9c1127f2cd403a315f,0,7,7,45,1,threefour,,,,,,,,,,,,,,,,,,,,,,,,,,,,,,,,,,,,,,,,,,,,,,,,,,,,,,,,,,,,,,,,,,,,,,,,,,,,,,,,,,,,,,,,,,,,,,,,,,,,,,,,,,,,,,,,,,,,,,,,,,,,,,,,,,,,,,,,,,,,,,,,,,,,,,,,,,,,,
,,,,,,615211c71871ab62cb14cbe1,62c53a67deca570d4abc80d1,2022-07-06_09h34.05.518,Colour_Asymmetry_Pilot,2022.1.3,Win32,59.61251863,62c50e9c1127f2cd403a315f,0,8,8,27,1,twofour,,,,,,,,,,,,,,,,,,,,,,,,,,,,,,,,,,,,,,,,,,,,,,,,,,,,,,,,,,,,,,,,,,,,,,,,,,,,,,,,,,,,,,,,,,,,,,,,,,,,,,,,,,,,,,,,,,,,,,,,,,,,,,,,,,,,,,,,,,,,,,,,,,,,,,,,,,,,,
,,,,,,615211c71871ab62cb14cbe1,62c53a67deca570d4abc80d1,2022-07-06_09h34.05.518,Colour_Asymmetry_Pilot,2022.1.3,Win32,59.61251863,62c50e9c1127f2cd403a315f,0,9,9,130,1,twoone,,,,,,,,,,,,,,,,,,,,,,,,,,,,,,,,,,,,,,,,,,,,,,,,,,,,,,,,,,,,,,,,,,,,,,,,,,,,,,,,,,,,,,,,,,,,,,,,,,,,,,,,,,,,,,,,,,,,,,,,,,,,,,,,,,,,,,,,,,,,,,,,,,,,,,,,,,,,,
,,,,,,615211c71871ab62cb14cbe1,62c53a67deca570d4abc80d1,2022-07-06_09h34.05.518,Colour_Asymmetry_Pilot,2022.1.3,Win32,59.61251863,62c50e9c1127f2cd403a315f,0,10,10,149,1,threefour,,,,,,,,,,,,,,,,,,,,,,,,,,,,,,,,,,,,,,,,,,,,,,,,,,,,,,,,,,,,,,,,,,,,,,,,,,,,,,,,,,,,,,,,,,,,,,,,,,,,,,,,,,,,,,,,,,,,,,,,,,,,,,,,,,,,,,,,,,,,,,,,,,,,,,,,,,,,,
,,,,,,615211c71871ab62cb14cbe1,62c53a67deca570d4abc80d1,2022-07-06_09h34.05.518,Colour_Asymmetry_Pilot,2022.1.3,Win32,59.61251863,62c50e9c1127f2cd403a315f,0,11,11,2,1,twoone,,,,,,,,,,,,,,,,,,,,,,,,,,,,,,,,,,,,,,,,,,,,,,,,,,,,,,,,,,,,,,,,,,,,,,,,,,,,,,,,,,,,,,,,,,,,,,,,,,,,,,,,,,,,,,,,,,,,,,,,,,,,,,,,,,,,,,,,,,,,,,,,,,,,,,,,,,,,,
,,,,,,615211c71871ab62cb14cbe1,62c53a67deca570d4abc80d1,2022-07-06_09h34.05.518,Colour_Asymmetry_Pilot,2022.1.3,Win32,59.61251863,62c50e9c1127f2cd403a315f,0,12,12,28,1,threeone,,,,,,,,,,,,,,,,,,,,,,,,,,,,,,,,,,,,,,,,,,,,,,,,,,,,,,,,,,,,,,,,,,,,,,,,,,,,,,,,,,,,,,,,,,,,,,,,,,,,,,,,,,,,,,,,,,,,,,,,,,,,,,,,,,,,,,,,,,,,,,,,,,,,,,,,,,,,,
,,,,,,615211c71871ab62cb14cbe1,62c53a67deca570d4abc80d1,2022-07-06_09h34.05.518,Colour_Asymmetry_Pilot,2022.1.3,Win32,59.61251863,62c50e9c1127f2cd403a315f,0,13,13,125,1,threefour,,,,,,,,,,,,,,,,,,,,,,,,,,,,,,,,,,,,,,,,,,,,,,,,,,,,,,,,,,,,,,,,,,,,,,,,,,,,,,,,,,,,,,,,,,,,,,,,,,,,,,,,,,,,,,,,,,,,,,,,,,,,,,,,,,,,,,,,,,,,,,,,,,,,,,,,,,,,,
,,,,,,615211c71871ab62cb14cbe1,62c53a67deca570d4abc80d1,2022-07-06_09h34.05.518,Colour_Asymmetry_Pilot,2022.1.3,Win32,59.61251863,62c50e9c1127f2cd403a315f,0,14,14,74,1,twoone,,,,,,,,,,,,,,,,,,,,,,,,,,,,,,,,,,,,,,,,,,,,,,,,,,,,,,,,,,,,,,,,,,,,,,,,,,,,,,,,,,,,,,,,,,,,,,,,,,,,,,,,,,,,,,,,,,,,,,,,,,,,,,,,,,,,,,,,,,,,,,,,,,,,,,,,,,,,,
,,,,,,615211c71871ab62cb14cbe1,62c53a67deca570d4abc80d1,2022-07-06_09h34.05.518,Colour_Asymmetry_Pilot,2022.1.3,Win32,59.61251863,62c50e9c1127f2cd403a315f,0,15,15,41,1,onethree,,,,,,,,,,,,,,,,,,,,,,,,,,,,,,,,,,,,,,,,,,,,,,,,,,,,,,,,,,,,,,,,,,,,,,,,,,,,,,,,,,,,,,,,,,,,,,,,,,,,,,,,,,,,,,,,,,,,,,,,,,,,,,,,,,,,,,,,,,,,,,,,,,,,,,,,,,,,,
,,,,,,615211c71871ab62cb14cbe1,62c53a67deca570d4abc80d1,2022-07-06_09h34.05.518,Colour_Asymmetry_Pilot,2022.1.3,Win32,59.61251863,62c50e9c1127f2cd403a315f,0,16,16,52,1,threeone,,,,,,,,,,,,,,,,,,,,,,,,,,,,,,,,,,,,,,,,,,,,,,,,,,,,,,,,,,,,,,,,,,,,,,,,,,,,,,,,,,,,,,,,,,,,,,,,,,,,,,,,,,,,,,,,,,,,,,,,,,,,,,,,,,,,,,,,,,,,,,,,,,,,,,,,,,,,,
,,,,,,615211c71871ab62cb14cbe1,62c53a67deca570d4abc80d1,2022-07-06_09h34.05.518,Colour_Asymmetry_Pilot,2022.1.3,Win32,59.61251863,62c50e9c1127f2cd403a315f,0,17,17,47,1,fourthree,,,,,,,,,,,,,,,,,,,,,,,,,,,,,,,,,,,,,,,,,,,,,,,,,,,,,,,,,,,,,,,,,,,,,,,,,,,,,,,,,,,,,,,,,,,,,,,,,,,,,,,,,,,,,,,,,,,,,,,,,,,,,,,,,,,,,,,,,,,,,,,,,,,,,,,,,,,,,
,,,,,,615211c71871ab62cb14cbe1,62c53a67deca570d4abc80d1,2022-07-06_09h34.05.518,Colour_Asymmetry_Pilot,2022.1.3,Win32,59.61251863,62c50e9c1127f2cd403a315f,0,18,18,134,1,fourtwo,,,,,,,,,,,,,,,,,,,,,,,,,,,,,,,,,,,,,,,,,,,,,,,,,,,,,,,,,,,,,,,,,,,,,,,,,,,,,,,,,,,,,,,,,,,,,,,,,,,,,,,,,,,,,,,,,,,,,,,,,,,,,,,,,,,,,,,,,,,,,,,,,,,,,,,,,,,,,
,,,,,,615211c71871ab62cb14cbe1,62c53a67deca570d4abc80d1,2022-07-06_09h34.05.518,Colour_Asymmetry_Pilot,2022.1.3,Win32,59.61251863,62c50e9c1127f2cd403a315f,0,19,19,75,1,twofour,,,,,,,,,,,,,,,,,,,,,,,,,,,,,,,,,,,,,,,,,,,,,,,,,,,,,,,,,,,,,,,,,,,,,,,,,,,,,,,,,,,,,,,,,,,,,,,,,,,,,,,,,,,,,,,,,,,,,,,,,,,,,,,,,,,,,,,,,,,,,,,,,,,,,,,,,,,,,
,,,,,,615211c71871ab62cb14cbe1,62c53a67deca570d4abc80d1,2022-07-06_09h34.05.518,Colour_Asymmetry_Pilot,2022.1.3,Win32,59.61251863,62c50e9c1127f2cd403a315f,0,20,20,59,1,twofour,,,,,,,,,,,,,,,,,,,,,,,,,,,,,,,,,,,,,,,,,,,,,,,,,,,,,,,,,,,,,,,,,,,,,,,,,,,,,,,,,,,,,,,,,,,,,,,,,,,,,,,,,,,,,,,,,,,,,,,,,,,,,,,,,,,,,,,,,,,,,,,,,,,,,,,,,,,,,
,,,,,,615211c71871ab62cb14cbe1,62c53a67deca570d4abc80d1,2022-07-06_09h34.05.518,Colour_Asymmetry_Pilot,2022.1.3,Win32,59.61251863,62c50e9c1127f2cd403a315f,0,21,21,92,1,threeone,,,,,,,,,,,,,,,,,,,,,,,,,,,,,,,,,,,,,,,,,,,,,,,,,,,,,,,,,,,,,,,,,,,,,,,,,,,,,,,,,,,,,,,,,,,,,,,,,,,,,,,,,,,,,,,,,,,,,,,,,,,,,,,,,,,,,,,,,,,,,,,,,,,,,,,,,,,,,
,,,,,,615211c71871ab62cb14cbe1,62c53a67deca570d4abc80d1,2022-07-06_09h34.05.518,Colour_Asymmetry_Pilot,2022.1.3,Win32,59.61251863,62c50e9c1127f2cd403a315f,0,22,22,40,1,onetwo,,,,,,,,,,,,,,,,,,,,,,,,,,,,,,,,,,,,,,,,,,,,,,,,,,,,,,,,,,,,,,,,,,,,,,,,,,,,,,,,,,,,,,,,,,,,,,,,,,,,,,,,,,,,,,,,,,,,,,,,,,,,,,,,,,,,,,,,,,,,,,,,,,,,,,,,,,,,,
,,,,,,615211c71871ab62cb14cbe1,62c53a67deca570d4abc80d1,2022-07-06_09h34.05.518,Colour_Asymmetry_Pilot,2022.1.3,Win32,59.61251863,62c50e9c1127f2cd403a315f,0,23,23,71,1,fourthree,,,,,,,,,,,,,,,,,,,,,,,,,,,,,,,,,,,,,,,,,,,,,,,,,,,,,,,,,,,,,,,,,,,,,,,,,,,,,,,,,,,,,,,,,,,,,,,,,,,,,,,,,,,,,,,,,,,,,,,,,,,,,,,,,,,,,,,,,,,,,,,,,,,,,,,,,,,,,
,,,,,,615211c71871ab62cb14cbe1,62c53a67deca570d4abc80d1,2022-07-06_09h34.05.518,Colour_Asymmetry_Pilot,2022.1.3,Win32,59.61251863,62c50e9c1127f2cd403a315f,0,24,24,129,1,onethree,,,,,,,,,,,,,,,,,,,,,,,,,,,,,,,,,,,,,,,,,,,,,,,,,,,,,,,,,,,,,,,,,,,,,,,,,,,,,,,,,,,,,,,,,,,,,,,,,,,,,,,,,,,,,,,,,,,,,,,,,,,,,,,,,,,,,,,,,,,,,,,,,,,,,,,,,,,,,
,,,,,,615211c71871ab62cb14cbe1,62c53a67deca570d4abc80d1,2022-07-06_09h34.05.518,Colour_Asymmetry_Pilot,2022.1.3,Win32,59.61251863,62c50e9c1127f2cd403a315f,0,25,25,7,1,fourthree,,,,,,,,,,,,,,,,,,,,,,,,,,,,,,,,,,,,,,,,,,,,,,,,,,,,,,,,,,,,,,,,,,,,,,,,,,,,,,,,,,,,,,,,,,,,,,,,,,,,,,,,,,,,,,,,,,,,,,,,,,,,,,,,,,,,,,,,,,,,,,,,,,,,,,,,,,,,,
,,,,,,615211c71871ab62cb14cbe1,62c53a67deca570d4abc80d1,2022-07-06_09h34.05.518,Colour_Asymmetry_Pilot,2022.1.3,Win32,59.61251863,62c50e9c1127f2cd403a315f,0,26,26,159,1,fourthree,,,,,,,,,,,,,,,,,,,,,,,,,,,,,,,,,,,,,,,,,,,,,,,,,,,,,,,,,,,,,,,,,,,,,,,,,,,,,,,,,,,,,,,,,,,,,,,,,,,,,,,,,,,,,,,,,,,,,,,,,,,,,,,,,,,,,,,,,,,,,,,,,,,,,,,,,,,,,
,,,,,,615211c71871ab62cb14cbe1,62c53a67deca570d4abc80d1,2022-07-06_09h34.05.518,Colour_Asymmetry_Pilot,2022.1.3,Win32,59.61251863,62c50e9c1127f2cd403a315f,0,27,27,99,1,twofour,,,,,,,,,,,,,,,,,,,,,,,,,,,,,,,,,,,,,,,,,,,,,,,,,,,,,,,,,,,,,,,,,,,,,,,,,,,,,,,,,,,,,,,,,,,,,,,,,,,,,,,,,,,,,,,,,,,,,,,,,,,,,,,,,,,,,,,,,,,,,,,,,,,,,,,,,,,,,
,,,,,,615211c71871ab62cb14cbe1,62c53a67deca570d4abc80d1,2022-07-06_09h34.05.518,Colour_Asymmetry_Pilot,2022.1.3,Win32,59.61251863,62c50e9c1127f2cd403a315f,0,28,28,160,1,onetwo,,,,,,,,,,,,,,,,,,,,,,,,,,,,,,,,,,,,,,,,,,,,,,,,,,,,,,,,,,,,,,,,,,,,,,,,,,,,,,,,,,,,,,,,,,,,,,,,,,,,,,,,,,,,,,,,,,,,,,,,,,,,,,,,,,,,,,,,,,,,,,,,,,,,,,,,,,,,,
,,,,,,615211c71871ab62cb14cbe1,62c53a67deca570d4abc80d1,2022-07-06_09h34.05.518,Colour_Asymmetry_Pilot,2022.1.3,Win32,59.61251863,62c50e9c1127f2cd403a315f,0,29,29,143,1,fourthree,,,,,,,,,,,,,,,,,,,,,,,,,,,,,,,,,,,,,,,,,,,,,,,,,,,,,,,,,,,,,,,,,,,,,,,,,,,,,,,,,,,,,,,,,,,,,,,,,,,,,,,,,,,,,,,,,,,,,,,,,,,,,,,,,,,,,,,,,,,,,,,,,,,,,,,,,,,,,
,,,,,,615211c71871ab62cb14cbe1,62c53a67deca570d4abc80d1,2022-07-06_09h34.05.518,Colour_Asymmetry_Pilot,2022.1.3,Win32,59.61251863,62c50e9c1127f2cd403a315f,0,30,30,39,1,fourthree,,,,,,,,,,,,,,,,,,,,,,,,,,,,,,,,,,,,,,,,,,,,,,,,,,,,,,,,,,,,,,,,,,,,,,,,,,,,,,,,,,,,,,,,,,,,,,,,,,,,,,,,,,,,,,,,,,,,,,,,,,,,,,,,,,,,,,,,,,,,,,,,,,,,,,,,,,,,,
,,,,,,615211c71871ab62cb14cbe1,62c53a67deca570d4abc80d1,2022-07-06_09h34.05.518,Colour_Asymmetry_Pilot,2022.1.3,Win32,59.61251863,62c50e9c1127f2cd403a315f,0,31,31,4,1,threeone,,,,,,,,,,,,,,,,,,,,,,,,,,,,,,,,,,,,,,,,,,,,,,,,,,,,,,,,,,,,,,,,,,,,,,,,,,,,,,,,,,,,,,,,,,,,,,,,,,,,,,,,,,,,,,,,,,,,,,,,,,,,,,,,,,,,,,,,,,,,,,,,,,,,,,,,,,,,,
,,,,,,615211c71871ab62cb14cbe1,62c53a67deca570d4abc80d1,2022-07-06_09h34.05.518,Colour_Asymmetry_Pilot,2022.1.3,Win32,59.61251863,62c50e9c1127f2cd403a315f,0,32,32,113,1,onethree,,,,,,,,,,,,,,,,,,,,,,,,,,,,,,,,,,,,,,,,,,,,,,,,,,,,,,,,,,,,,,,,,,,,,,,,,,,,,,,,,,,,,,,,,,,,,,,,,,,,,,,,,,,,,,,,,,,,,,,,,,,,,,,,,,,,,,,,,,,,,,,,,,,,,,,,,,,,,
,,,,,,615211c71871ab62cb14cbe1,62c53a67deca570d4abc80d1,2022-07-06_09h34.05.518,Colour_Asymmetry_Pilot,2022.1.3,Win32,59.61251863,62c50e9c1127f2cd403a315f,0,33,33,117,1,threefour,,,,,,,,,,,,,,,,,,,,,,,,,,,,,,,,,,,,,,,,,,,,,,,,,,,,,,,,,,,,,,,,,,,,,,,,,,,,,,,,,,,,,,,,,,,,,,,,,,,,,,,,,,,,,,,,,,,,,,,,,,,,,,,,,,,,,,,,,,,,,,,,,,,,,,,,,,,,,
,,,,,,615211c71871ab62cb14cbe1,62c53a67deca570d4abc80d1,2022-07-06_09h34.05.518,Colour_Asymmetry_Pilot,2022.1.3,Win32,59.61251863,62c50e9c1127f2cd403a315f,0,34,34,151,1,fourthree,,,,,,,,,,,,,,,,,,,,,,,,,,,,,,,,,,,,,,,,,,,,,,,,,,,,,,,,,,,,,,,,,,,,,,,,,,,,,,,,,,,,,,,,,,,,,,,,,,,,,,,,,,,,,,,,,,,,,,,,,,,,,,,,,,,,,,,,,,,,,,,,,,,,,,,,,,,,,
,,,,,,615211c71871ab62cb14cbe1,62c53a67deca570d4abc80d1,2022-07-06_09h34.05.518,Colour_Asymmetry_Pilot,2022.1.3,Win32,59.61251863,62c50e9c1127f2cd403a315f,0,35,35,73,1,onethree,,,,,,,,,,,,,,,,,,,,,,,,,,,,,,,,,,,,,,,,,,,,,,,,,,,,,,,,,,,,,,,,,,,,,,,,,,,,,,,,,,,,,,,,,,,,,,,,,,,,,,,,,,,,,,,,,,,,,,,,,,,,,,,,,,,,,,,,,,,,,,,,,,,,,,,,,,,,,
,,,,,,615211c71871ab62cb14cbe1,62c53a67deca570d4abc80d1,2022-07-06_09h34.05.518,Colour_Asymmetry_Pilot,2022.1.3,Win32,59.61251863,62c50e9c1127f2cd403a315f,0,36,36,6,1,fourtwo,,,,,,,,,,,,,,,,,,,,,,,,,,,,,,,,,,,,,,,,,,,,,,,,,,,,,,,,,,,,,,,,,,,,,,,,,,,,,,,,,,,,,,,,,,,,,,,,,,,,,,,,,,,,,,,,,,,,,,,,,,,,,,,,,,,,,,,,,,,,,,,,,,,,,,,,,,,,,
,,,,,,615211c71871ab62cb14cbe1,62c53a67deca570d4abc80d1,2022-07-06_09h34.05.518,Colour_Asymmetry_Pilot,2022.1.3,Win32,59.61251863,62c50e9c1127f2cd403a315f,0,37,37,138,1,twoone,,,,,,,,,,,,,,,,,,,,,,,,,,,,,,,,,,,,,,,,,,,,,,,,,,,,,,,,,,,,,,,,,,,,,,,,,,,,,,,,,,,,,,,,,,,,,,,,,,,,,,,,,,,,,,,,,,,,,,,,,,,,,,,,,,,,,,,,,,,,,,,,,,,,,,,,,,,,,
,,,,,,615211c71871ab62cb14cbe1,62c53a67deca570d4abc80d1,2022-07-06_09h34.05.518,Colour_Asymmetry_Pilot,2022.1.3,Win32,59.61251863,62c50e9c1127f2cd403a315f,0,38,38,94,1,fourtwo,,,,,,,,,,,,,,,,,,,,,,,,,,,,,,,,,,,,,,,,,,,,,,,,,,,,,,,,,,,,,,,,,,,,,,,,,,,,,,,,,,,,,,,,,,,,,,,,,,,,,,,,,,,,,,,,,,,,,,,,,,,,,,,,,,,,,,,,,,,,,,,,,,,,,,,,,,,,,
,,,,,,615211c71871ab62cb14cbe1,62c53a67deca570d4abc80d1,2022-07-06_09h34.05.518,Colour_Asymmetry_Pilot,2022.1.3,Win32,59.61251863,62c50e9c1127f2cd403a315f,0,39,39,95,1,fourthree,,,,,,,,,,,,,,,,,,,,,,,,,,,,,,,,,,,,,,,,,,,,,,,,,,,,,,,,,,,,,,,,,,,,,,,,,,,,,,,,,,,,,,,,,,,,,,,,,,,,,,,,,,,,,,,,,,,,,,,,,,,,,,,,,,,,,,,,,,,,,,,,,,,,,,,,,,,,,
,,,,,,615211c71871ab62cb14cbe1,62c53a67deca570d4abc80d1,2022-07-06_09h34.05.518,Colour_Asymmetry_Pilot,2022.1.3,Win32,59.61251863,62c50e9c1127f2cd403a315f,0,40,40,87,1,fourthree,,,,,,,,,,,,,,,,,,,,,,,,,,,,,,,,,,,,,,,,,,,,,,,,,,,,,,,,,,,,,,,,,,,,,,,,,,,,,,,,,,,,,,,,,,,,,,,,,,,,,,,,,,,,,,,,,,,,,,,,,,,,,,,,,,,,,,,,,,,,,,,,,,,,,,,,,,,,,
,,,,,,615211c71871ab62cb14cbe1,62c53a67deca570d4abc80d1,2022-07-06_09h34.05.518,Colour_Asymmetry_Pilot,2022.1.3,Win32,59.61251863,62c50e9c1127f2cd403a315f,0,41,41,96,1,onetwo,,,,,,,,,,,,,,,,,,,,,,,,,,,,,,,,,,,,,,,,,,,,,,,,,,,,,,,,,,,,,,,,,,,,,,,,,,,,,,,,,,,,,,,,,,,,,,,,,,,,,,,,,,,,,,,,,,,,,,,,,,,,,,,,,,,,,,,,,,,,,,,,,,,,,,,,,,,,,
,,,,,,615211c71871ab62cb14cbe1,62c53a67deca570d4abc80d1,2022-07-06_09h34.05.518,Colour_Asymmetry_Pilot,2022.1.3,Win32,59.61251863,62c50e9c1127f2cd403a315f,0,42,42,145,1,onethree,,,,,,,,,,,,,,,,,,,,,,,,,,,,,,,,,,,,,,,,,,,,,,,,,,,,,,,,,,,,,,,,,,,,,,,,,,,,,,,,,,,,,,,,,,,,,,,,,,,,,,,,,,,,,,,,,,,,,,,,,,,,,,,,,,,,,,,,,,,,,,,,,,,,,,,,,,,,,
,,,,,,615211c71871ab62cb14cbe1,62c53a67deca570d4abc80d1,2022-07-06_09h34.05.518,Colour_Asymmetry_Pilot,2022.1.3,Win32,59.61251863,62c50e9c1127f2cd403a315f,0,43,43,110,1,fourtwo,,,,,,,,,,,,,,,,,,,,,,,,,,,,,,,,,,,,,,,,,,,,,,,,,,,,,,,,,,,,,,,,,,,,,,,,,,,,,,,,,,,,,,,,,,,,,,,,,,,,,,,,,,,,,,,,,,,,,,,,,,,,,,,,,,,,,,,,,,,,,,,,,,,,,,,,,,,,,
,,,,,,615211c71871ab62cb14cbe1,62c53a67deca570d4abc80d1,2022-07-06_09h34.05.518,Colour_Asymmetry_Pilot,2022.1.3,Win32,59.61251863,62c50e9c1127f2cd403a315f,0,44,44,58,1,twoone,,,,,,,,,,,,,,,,,,,,,,,,,,,,,,,,,,,,,,,,,,,,,,,,,,,,,,,,,,,,,,,,,,,,,,,,,,,,,,,,,,,,,,,,,,,,,,,,,,,,,,,,,,,,,,,,,,,,,,,,,,,,,,,,,,,,,,,,,,,,,,,,,,,,,,,,,,,,,
,,,,,,615211c71871ab62cb14cbe1,62c53a67deca570d4abc80d1,2022-07-06_09h34.05.518,Colour_Asymmetry_Pilot,2022.1.3,Win32,59.61251863,62c50e9c1127f2cd403a315f,0,45,45,56,1,onetwo,,,,,,,,,,,,,,,,,,,,,,,,,,,,,,,,,,,,,,,,,,,,,,,,,,,,,,,,,,,,,,,,,,,,,,,,,,,,,,,,,,,,,,,,,,,,,,,,,,,,,,,,,,,,,,,,,,,,,,,,,,,,,,,,,,,,,,,,,,,,,,,,,,,,,,,,,,,,,
,,,,,,615211c71871ab62cb14cbe1,62c53a67deca570d4abc80d1,2022-07-06_09h34.05.518,Colour_Asymmetry_Pilot,2022.1.3,Win32,59.61251863,62c50e9c1127f2cd403a315f,0,46,46,34,1,twoone,,,,,,,,,,,,,,,,,,,,,,,,,,,,,,,,,,,,,,,,,,,,,,,,,,,,,,,,,,,,,,,,,,,,,,,,,,,,,,,,,,,,,,,,,,,,,,,,,,,,,,,,,,,,,,,,,,,,,,,,,,,,,,,,,,,,,,,,,,,,,,,,,,,,,,,,,,,,,
,,,,,,615211c71871ab62cb14cbe1,62c53a67deca570d4abc80d1,2022-07-06_09h34.05.518,Colour_Asymmetry_Pilot,2022.1.3,Win32,59.61251863,62c50e9c1127f2cd403a315f,0,47,47,79,1,fourthree,,,,,,,,,,,,,,,,,,,,,,,,,,,,,,,,,,,,,,,,,,,,,,,,,,,,,,,,,,,,,,,,,,,,,,,,,,,,,,,,,,,,,,,,,,,,,,,,,,,,,,,,,,,,,,,,,,,,,,,,,,,,,,,,,,,,,,,,,,,,,,,,,,,,,,,,,,,,,
,,,,,,615211c71871ab62cb14cbe1,62c53a67deca570d4abc80d1,2022-07-06_09h34.05.518,Colour_Asymmetry_Pilot,2022.1.3,Win32,59.61251863,62c50e9c1127f2cd403a315f,0,48,48,116,1,threeone,,,,,,,,,,,,,,,,,,,,,,,,,,,,,,,,,,,,,,,,,,,,,,,,,,,,,,,,,,,,,,,,,,,,,,,,,,,,,,,,,,,,,,,,,,,,,,,,,,,,,,,,,,,,,,,,,,,,,,,,,,,,,,,,,,,,,,,,,,,,,,,,,,,,,,,,,,,,,
,,,,,,615211c71871ab62cb14cbe1,62c53a67deca570d4abc80d1,2022-07-06_09h34.05.518,Colour_Asymmetry_Pilot,2022.1.3,Win32,59.61251863,62c50e9c1127f2cd403a315f,0,49,49,118,1,fourtwo,,,,,,,,,,,,,,,,,,,,,,,,,,,,,,,,,,,,,,,,,,,,,,,,,,,,,,,,,,,,,,,,,,,,,,,,,,,,,,,,,,,,,,,,,,,,,,,,,,,,,,,,,,,,,,,,,,,,,,,,,,,,,,,,,,,,,,,,,,,,,,,,,,,,,,,,,,,,,
,,,,,,615211c71871ab62cb14cbe1,62c53a67deca570d4abc80d1,2022-07-06_09h34.05.518,Colour_Asymmetry_Pilot,2022.1.3,Win32,59.61251863,62c50e9c1127f2cd403a315f,0,50,50,61,1,threefour,,,,,,,,,,,,,,,,,,,,,,,,,,,,,,,,,,,,,,,,,,,,,,,,,,,,,,,,,,,,,,,,,,,,,,,,,,,,,,,,,,,,,,,,,,,,,,,,,,,,,,,,,,,,,,,,,,,,,,,,,,,,,,,,,,,,,,,,,,,,,,,,,,,,,,,,,,,,,
,,,,,,615211c71871ab62cb14cbe1,62c53a67deca570d4abc80d1,2022-07-06_09h34.05.518,Colour_Asymmetry_Pilot,2022.1.3,Win32,59.61251863,62c50e9c1127f2cd403a315f,0,51,51,26,1,twoone,,,,,,,,,,,,,,,,,,,,,,,,,,,,,,,,,,,,,,,,,,,,,,,,,,,,,,,,,,,,,,,,,,,,,,,,,,,,,,,,,,,,,,,,,,,,,,,,,,,,,,,,,,,,,,,,,,,,,,,,,,,,,,,,,,,,,,,,,,,,,,,,,,,,,,,,,,,,,
,,,,,,615211c71871ab62cb14cbe1,62c53a67deca570d4abc80d1,2022-07-06_09h34.05.518,Colour_Asymmetry_Pilot,2022.1.3,Win32,59.61251863,62c50e9c1127f2cd403a315f,0,52,52,152,1,onetwo,,,,,,,,,,,,,,,,,,,,,,,,,,,,,,,,,,,,,,,,,,,,,,,,,,,,,,,,,,,,,,,,,,,,,,,,,,,,,,,,,,,,,,,,,,,,,,,,,,,,,,,,,,,,,,,,,,,,,,,,,,,,,,,,,,,,,,,,,,,,,,,,,,,,,,,,,,,,,
,,,,,,615211c71871ab62cb14cbe1,62c53a67deca570d4abc80d1,2022-07-06_09h34.05.518,Colour_Asymmetry_Pilot,2022.1.3,Win32,59.61251863,62c50e9c1127f2cd403a315f,0,53,53,30,1,fourtwo,,,,,,,,,,,,,,,,,,,,,,,,,,,,,,,,,,,,,,,,,,,,,,,,,,,,,,,,,,,,,,,,,,,,,,,,,,,,,,,,,,,,,,,,,,,,,,,,,,,,,,,,,,,,,,,,,,,,,,,,,,,,,,,,,,,,,,,,,,,,,,,,,,,,,,,,,,,,,
,,,,,,615211c71871ab62cb14cbe1,62c53a67deca570d4abc80d1,2022-07-06_09h34.05.518,Colour_Asymmetry_Pilot,2022.1.3,Win32,59.61251863,62c50e9c1127f2cd403a315f,0,54,54,109,1,threefour,,,,,,,,,,,,,,,,,,,,,,,,,,,,,,,,,,,,,,,,,,,,,,,,,,,,,,,,,,,,,,,,,,,,,,,,,,,,,,,,,,,,,,,,,,,,,,,,,,,,,,,,,,,,,,,,,,,,,,,,,,,,,,,,,,,,,,,,,,,,,,,,,,,,,,,,,,,,,
,,,,,,615211c71871ab62cb14cbe1,62c53a67deca570d4abc80d1,2022-07-06_09h34.05.518,Colour_Asymmetry_Pilot,2022.1.3,Win32,59.61251863,62c50e9c1127f2cd403a315f,0,55,55,44,1,threeone,,,,,,,,,,,,,,,,,,,,,,,,,,,,,,,,,,,,,,,,,,,,,,,,,,,,,,,,,,,,,,,,,,,,,,,,,,,,,,,,,,,,,,,,,,,,,,,,,,,,,,,,,,,,,,,,,,,,,,,,,,,,,,,,,,,,,,,,,,,,,,,,,,,,,,,,,,,,,
,,,,,,615211c71871ab62cb14cbe1,62c53a67deca570d4abc80d1,2022-07-06_09h34.05.518,Colour_Asymmetry_Pilot,2022.1.3,Win32,59.61251863,62c50e9c1127f2cd403a315f,0,56,56,126,1,fourtwo,,,,,,,,,,,,,,,,,,,,,,,,,,,,,,,,,,,,,,,,,,,,,,,,,,,,,,,,,,,,,,,,,,,,,,,,,,,,,,,,,,,,,,,,,,,,,,,,,,,,,,,,,,,,,,,,,,,,,,,,,,,,,,,,,,,,,,,,,,,,,,,,,,,,,,,,,,,,,
,,,,,,615211c71871ab62cb14cbe1,62c53a67deca570d4abc80d1,2022-07-06_09h34.05.518,Colour_Asymmetry_Pilot,2022.1.3,Win32,59.61251863,62c50e9c1127f2cd403a315f,0,57,57,67,1,twofour,,,,,,,,,,,,,,,,,,,,,,,,,,,,,,,,,,,,,,,,,,,,,,,,,,,,,,,,,,,,,,,,,,,,,,,,,,,,,,,,,,,,,,,,,,,,,,,,,,,,,,,,,,,,,,,,,,,,,,,,,,,,,,,,,,,,,,,,,,,,,,,,,,,,,,,,,,,,,
,,,,,,615211c71871ab62cb14cbe1,62c53a67deca570d4abc80d1,2022-07-06_09h34.05.518,Colour_Asymmetry_Pilot,2022.1.3,Win32,59.61251863,62c50e9c1127f2cd403a315f,0,58,58,14,1,fourtwo,,,,,,,,,,,,,,,,,,,,,,,,,,,,,,,,,,,,,,,,,,,,,,,,,,,,,,,,,,,,,,,,,,,,,,,,,,,,,,,,,,,,,,,,,,,,,,,,,,,,,,,,,,,,,,,,,,,,,,,,,,,,,,,,,,,,,,,,,,,,,,,,,,,,,,,,,,,,,
,,,,,,615211c71871ab62cb14cbe1,62c53a67deca570d4abc80d1,2022-07-06_09h34.05.518,Colour_Asymmetry_Pilot,2022.1.3,Win32,59.61251863,62c50e9c1127f2cd403a315f,0,59,59,102,1,fourtwo,,,,,,,,,,,,,,,,,,,,,,,,,,,,,,,,,,,,,,,,,,,,,,,,,,,,,,,,,,,,,,,,,,,,,,,,,,,,,,,,,,,,,,,,,,,,,,,,,,,,,,,,,,,,,,,,,,,,,,,,,,,,,,,,,,,,,,,,,,,,,,,,,,,,,,,,,,,,,
,,,,,,615211c71871ab62cb14cbe1,62c53a67deca570d4abc80d1,2022-07-06_09h34.05.518,Colour_Asymmetry_Pilot,2022.1.3,Win32,59.61251863,62c50e9c1127f2cd403a315f,0,60,60,144,1,onetwo,,,,,,,,,,,,,,,,,,,,,,,,,,,,,,,,,,,,,,,,,,,,,,,,,,,,,,,,,,,,,,,,,,,,,,,,,,,,,,,,,,,,,,,,,,,,,,,,,,,,,,,,,,,,,,,,,,,,,,,,,,,,,,,,,,,,,,,,,,,,,,,,,,,,,,,,,,,,,
,,,,,,615211c71871ab62cb14cbe1,62c53a67deca570d4abc80d1,2022-07-06_09h34.05.518,Colour_Asymmetry_Pilot,2022.1.3,Win32,59.61251863,62c50e9c1127f2cd403a315f,0,61,61,156,1,threeone,,,,,,,,,,,,,,,,,,,,,,,,,,,,,,,,,,,,,,,,,,,,,,,,,,,,,,,,,,,,,,,,,,,,,,,,,,,,,,,,,,,,,,,,,,,,,,,,,,,,,,,,,,,,,,,,,,,,,,,,,,,,,,,,,,,,,,,,,,,,,,,,,,,,,,,,,,,,,
,,,,,,615211c71871ab62cb14cbe1,62c53a67deca570d4abc80d1,2022-07-06_09h34.05.518,Colour_Asymmetry_Pilot,2022.1.3,Win32,59.61251863,62c50e9c1127f2cd403a315f,0,62,62,29,1,threefour,,,,,,,,,,,,,,,,,,,,,,,,,,,,,,,,,,,,,,,,,,,,,,,,,,,,,,,,,,,,,,,,,,,,,,,,,,,,,,,,,,,,,,,,,,,,,,,,,,,,,,,,,,,,,,,,,,,,,,,,,,,,,,,,,,,,,,,,,,,,,,,,,,,,,,,,,,,,,
,,,,,,615211c71871ab62cb14cbe1,62c53a67deca570d4abc80d1,2022-07-06_09h34.05.518,Colour_Asymmetry_Pilot,2022.1.3,Win32,59.61251863,62c50e9c1127f2cd403a315f,0,63,63,33,1,onethree,,,,,,,,,,,,,,,,,,,,,,,,,,,,,,,,,,,,,,,,,,,,,,,,,,,,,,,,,,,,,,,,,,,,,,,,,,,,,,,,,,,,,,,,,,,,,,,,,,,,,,,,,,,,,,,,,,,,,,,,,,,,,,,,,,,,,,,,,,,,,,,,,,,,,,,,,,,,,
,,,,,,615211c71871ab62cb14cbe1,62c53a67deca570d4abc80d1,2022-07-06_09h34.05.518,Colour_Asymmetry_Pilot,2022.1.3,Win32,59.61251863,62c50e9c1127f2cd403a315f,0,64,64,69,1,threefour,,,,,,,,,,,,,,,,,,,,,,,,,,,,,,,,,,,,,,,,,,,,,,,,,,,,,,,,,,,,,,,,,,,,,,,,,,,,,,,,,,,,,,,,,,,,,,,,,,,,,,,,,,,,,,,,,,,,,,,,,,,,,,,,,,,,,,,,,,,,,,,,,,,,,,,,,,,,,
,,,,,,615211c71871ab62cb14cbe1,62c53a67deca570d4abc80d1,2022-07-06_09h34.05.518,Colour_Asymmetry_Pilot,2022.1.3,Win32,59.61251863,62c50e9c1127f2cd403a315f,0,65,65,35,1,twofour,,,,,,,,,,,,,,,,,,,,,,,,,,,,,,,,,,,,,,,,,,,,,,,,,,,,,,,,,,,,,,,,,,,,,,,,,,,,,,,,,,,,,,,,,,,,,,,,,,,,,,,,,,,,,,,,,,,,,,,,,,,,,,,,,,,,,,,,,,,,,,,,,,,,,,,,,,,,,
,,,,,,615211c71871ab62cb14cbe1,62c53a67deca570d4abc80d1,2022-07-06_09h34.05.518,Colour_Asymmetry_Pilot,2022.1.3,Win32,59.61251863,62c50e9c1127f2cd403a315f,0,66,66,66,1,twoone,,,,,,,,,,,,,,,,,,,,,,,,,,,,,,,,,,,,,,,,,,,,,,,,,,,,,,,,,,,,,,,,,,,,,,,,,,,,,,,,,,,,,,,,,,,,,,,,,,,,,,,,,,,,,,,,,,,,,,,,,,,,,,,,,,,,,,,,,,,,,,,,,,,,,,,,,,,,,
,,,,,,615211c71871ab62cb14cbe1,62c53a67deca570d4abc80d1,2022-07-06_09h34.05.518,Colour_Asymmetry_Pilot,2022.1.3,Win32,59.61251863,62c50e9c1127f2cd403a315f,0,67,67,88,1,onetwo,,,,,,,,,,,,,,,,,,,,,,,,,,,,,,,,,,,,,,,,,,,,,,,,,,,,,,,,,,,,,,,,,,,,,,,,,,,,,,,,,,,,,,,,,,,,,,,,,,,,,,,,,,,,,,,,,,,,,,,,,,,,,,,,,,,,,,,,,,,,,,,,,,,,,,,,,,,,,
,,,,,,615211c71871ab62cb14cbe1,62c53a67deca570d4abc80d1,2022-07-06_09h34.05.518,Colour_Asymmetry_Pilot,2022.1.3,Win32,59.61251863,62c50e9c1127f2cd403a315f,0,68,68,112,1,onetwo,,,,,,,,,,,,,,,,,,,,,,,,,,,,,,,,,,,,,,,,,,,,,,,,,,,,,,,,,,,,,,,,,,,,,,,,,,,,,,,,,,,,,,,,,,,,,,,,,,,,,,,,,,,,,,,,,,,,,,,,,,,,,,,,,,,,,,,,,,,,,,,,,,,,,,,,,,,,,
,,,,,,615211c71871ab62cb14cbe1,62c53a67deca570d4abc80d1,2022-07-06_09h34.05.518,Colour_Asymmetry_Pilot,2022.1.3,Win32,59.61251863,62c50e9c1127f2cd403a315f,0,69,69,137,1,onethree,,,,,,,,,,,,,,,,,,,,,,,,,,,,,,,,,,,,,,,,,,,,,,,,,,,,,,,,,,,,,,,,,,,,,,,,,,,,,,,,,,,,,,,,,,,,,,,,,,,,,,,,,,,,,,,,,,,,,,,,,,,,,,,,,,,,,,,,,,,,,,,,,,,,,,,,,,,,,
,,,,,,615211c71871ab62cb14cbe1,62c53a67deca570d4abc80d1,2022-07-06_09h34.05.518,Colour_Asymmetry_Pilot,2022.1.3,Win32,59.61251863,62c50e9c1127f2cd403a315f,0,70,70,11,1,twofour,,,,,,,,,,,,,,,,,,,,,,,,,,,,,,,,,,,,,,,,,,,,,,,,,,,,,,,,,,,,,,,,,,,,,,,,,,,,,,,,,,,,,,,,,,,,,,,,,,,,,,,,,,,,,,,,,,,,,,,,,,,,,,,,,,,,,,,,,,,,,,,,,,,,,,,,,,,,,
,,,,,,615211c71871ab62cb14cbe1,62c53a67deca570d4abc80d1,2022-07-06_09h34.05.518,Colour_Asymmetry_Pilot,2022.1.3,Win32,59.61251863,62c50e9c1127f2cd403a315f,0,71,71,62,1,fourtwo,,,,,,,,,,,,,,,,,,,,,,,,,,,,,,,,,,,,,,,,,,,,,,,,,,,,,,,,,,,,,,,,,,,,,,,,,,,,,,,,,,,,,,,,,,,,,,,,,,,,,,,,,,,,,,,,,,,,,,,,,,,,,,,,,,,,,,,,,,,,,,,,,,,,,,,,,,,,,
,,,,,,615211c71871ab62cb14cbe1,62c53a67deca570d4abc80d1,2022-07-06_09h34.05.518,Colour_Asymmetry_Pilot,2022.1.3,Win32,59.61251863,62c50e9c1127f2cd403a315f,0,72,72,24,1,onetwo,,,,,,,,,,,,,,,,,,,,,,,,,,,,,,,,,,,,,,,,,,,,,,,,,,,,,,,,,,,,,,,,,,,,,,,,,,,,,,,,,,,,,,,,,,,,,,,,,,,,,,,,,,,,,,,,,,,,,,,,,,,,,,,,,,,,,,,,,,,,,,,,,,,,,,,,,,,,,
,,,,,,615211c71871ab62cb14cbe1,62c53a67deca570d4abc80d1,2022-07-06_09h34.05.518,Colour_Asymmetry_Pilot,2022.1.3,Win32,59.61251863,62c50e9c1127f2cd403a315f,0,73,73,124,1,threeone,,,,,,,,,,,,,,,,,,,,,,,,,,,,,,,,,,,,,,,,,,,,,,,,,,,,,,,,,,,,,,,,,,,,,,,,,,,,,,,,,,,,,,,,,,,,,,,,,,,,,,,,,,,,,,,,,,,,,,,,,,,,,,,,,,,,,,,,,,,,,,,,,,,,,,,,,,,,,
,,,,,,615211c71871ab62cb14cbe1,62c53a67deca570d4abc80d1,2022-07-06_09h34.05.518,Colour_Asymmetry_Pilot,2022.1.3,Win32,59.61251863,62c50e9c1127f2cd403a315f,0,74,74,135,1,fourthree,,,,,,,,,,,,,,,,,,,,,,,,,,,,,,,,,,,,,,,,,,,,,,,,,,,,,,,,,,,,,,,,,,,,,,,,,,,,,,,,,,,,,,,,,,,,,,,,,,,,,,,,,,,,,,,,,,,,,,,,,,,,,,,,,,,,,,,,,,,,,,,,,,,,,,,,,,,,,
,,,,,,615211c71871ab62cb14cbe1,62c53a67deca570d4abc80d1,2022-07-06_09h34.05.518,Colour_Asymmetry_Pilot,2022.1.3,Win32,59.61251863,62c50e9c1127f2cd403a315f,0,75,75,12,1,threeone,,,,,,,,,,,,,,,,,,,,,,,,,,,,,,,,,,,,,,,,,,,,,,,,,,,,,,,,,,,,,,,,,,,,,,,,,,,,,,,,,,,,,,,,,,,,,,,,,,,,,,,,,,,,,,,,,,,,,,,,,,,,,,,,,,,,,,,,,,,,,,,,,,,,,,,,,,,,,
,,,,,,615211c71871ab62cb14cbe1,62c53a67deca570d4abc80d1,2022-07-06_09h34.05.518,Colour_Asymmetry_Pilot,2022.1.3,Win32,59.61251863,62c50e9c1127f2cd403a315f,0,76,76,21,1,threefour,,,,,,,,,,,,,,,,,,,,,,,,,,,,,,,,,,,,,,,,,,,,,,,,,,,,,,,,,,,,,,,,,,,,,,,,,,,,,,,,,,,,,,,,,,,,,,,,,,,,,,,,,,,,,,,,,,,,,,,,,,,,,,,,,,,,,,,,,,,,,,,,,,,,,,,,,,,,,
,,,,,,615211c71871ab62cb14cbe1,62c53a67deca570d4abc80d1,2022-07-06_09h34.05.518,Colour_Asymmetry_Pilot,2022.1.3,Win32,59.61251863,62c50e9c1127f2cd403a315f,0,77,77,90,1,twoone,,,,,,,,,,,,,,,,,,,,,,,,,,,,,,,,,,,,,,,,,,,,,,,,,,,,,,,,,,,,,,,,,,,,,,,,,,,,,,,,,,,,,,,,,,,,,,,,,,,,,,,,,,,,,,,,,,,,,,,,,,,,,,,,,,,,,,,,,,,,,,,,,,,,,,,,,,,,,
,,,,,,615211c71871ab62cb14cbe1,62c53a67deca570d4abc80d1,2022-07-06_09h34.05.518,Colour_Asymmetry_Pilot,2022.1.3,Win32,59.61251863,62c50e9c1127f2cd403a315f,0,78,78,32,1,onetwo,,,,,,,,,,,,,,,,,,,,,,,,,,,,,,,,,,,,,,,,,,,,,,,,,,,,,,,,,,,,,,,,,,,,,,,,,,,,,,,,,,,,,,,,,,,,,,,,,,,,,,,,,,,,,,,,,,,,,,,,,,,,,,,,,,,,,,,,,,,,,,,,,,,,,,,,,,,,,
,,,,,,615211c71871ab62cb14cbe1,62c53a67deca570d4abc80d1,2022-07-06_09h34.05.518,Colour_Asymmetry_Pilot,2022.1.3,Win32,59.61251863,62c50e9c1127f2cd403a315f,0,79,79,18,1,twoone,,,,,,,,,,,,,,,,,,,,,,,,,,,,,,,,,,,,,,,,,,,,,,,,,,,,,,,,,,,,,,,,,,,,,,,,,,,,,,,,,,,,,,,,,,,,,,,,,,,,,,,,,,,,,,,,,,,,,,,,,,,,,,,,,,,,,,,,,,,,,,,,,,,,,,,,,,,,,
,,,,,,615211c71871ab62cb14cbe1,62c53a67deca570d4abc80d1,2022-07-06_09h34.05.518,Colour_Asymmetry_Pilot,2022.1.3,Win32,59.61251863,62c50e9c1127f2cd403a315f,0,80,80,132,1,threeone,,,,,,,,,,,,,,,,,,,,,,,,,,,,,,,,,,,,,,,,,,,,,,,,,,,,,,,,,,,,,,,,,,,,,,,,,,,,,,,,,,,,,,,,,,,,,,,,,,,,,,,,,,,,,,,,,,,,,,,,,,,,,,,,,,,,,,,,,,,,,,,,,,,,,,,,,,,,,
,,,,,,615211c71871ab62cb14cbe1,62c53a67deca570d4abc80d1,2022-07-06_09h34.05.518,Colour_Asymmetry_Pilot,2022.1.3,Win32,59.61251863,62c50e9c1127f2cd403a315f,0,81,81,3,1,twofour,,,,,,,,,,,,,,,,,,,,,,,,,,,,,,,,,,,,,,,,,,,,,,,,,,,,,,,,,,,,,,,,,,,,,,,,,,,,,,,,,,,,,,,,,,,,,,,,,,,,,,,,,,,,,,,,,,,,,,,,,,,,,,,,,,,,,,,,,,,,,,,,,,,,,,,,,,,,,
,,,,,,615211c71871ab62cb14cbe1,62c53a67deca570d4abc80d1,2022-07-06_09h34.05.518,Colour_Asymmetry_Pilot,2022.1.3,Win32,59.61251863,62c50e9c1127f2cd403a315f,0,82,82,70,1,fourtwo,,,,,,,,,,,,,,,,,,,,,,,,,,,,,,,,,,,,,,,,,,,,,,,,,,,,,,,,,,,,,,,,,,,,,,,,,,,,,,,,,,,,,,,,,,,,,,,,,,,,,,,,,,,,,,,,,,,,,,,,,,,,,,,,,,,,,,,,,,,,,,,,,,,,,,,,,,,,,
,,,,,,615211c71871ab62cb14cbe1,62c53a67deca570d4abc80d1,2022-07-06_09h34.05.518,Colour_Asymmetry_Pilot,2022.1.3,Win32,59.61251863,62c50e9c1127f2cd403a315f,0,83,83,13,1,threefour,,,,,,,,,,,,,,,,,,,,,,,,,,,,,,,,,,,,,,,,,,,,,,,,,,,,,,,,,,,,,,,,,,,,,,,,,,,,,,,,,,,,,,,,,,,,,,,,,,,,,,,,,,,,,,,,,,,,,,,,,,,,,,,,,,,,,,,,,,,,,,,,,,,,,,,,,,,,,
,,,,,,615211c71871ab62cb14cbe1,62c53a67deca570d4abc80d1,2022-07-06_09h34.05.518,Colour_Asymmetry_Pilot,2022.1.3,Win32,59.61251863,62c50e9c1127f2cd403a315f,0,84,84,146,1,twoone,,,,,,,,,,,,,,,,,,,,,,,,,,,,,,,,,,,,,,,,,,,,,,,,,,,,,,,,,,,,,,,,,,,,,,,,,,,,,,,,,,,,,,,,,,,,,,,,,,,,,,,,,,,,,,,,,,,,,,,,,,,,,,,,,,,,,,,,,,,,,,,,,,,,,,,,,,,,,
,,,,,,615211c71871ab62cb14cbe1,62c53a67deca570d4abc80d1,2022-07-06_09h34.05.518,Colour_Asymmetry_Pilot,2022.1.3,Win32,59.61251863,62c50e9c1127f2cd403a315f,0,85,85,105,1,onethree,,,,,,,,,,,,,,,,,,,,,,,,,,,,,,,,,,,,,,,,,,,,,,,,,,,,,,,,,,,,,,,,,,,,,,,,,,,,,,,,,,,,,,,,,,,,,,,,,,,,,,,,,,,,,,,,,,,,,,,,,,,,,,,,,,,,,,,,,,,,,,,,,,,,,,,,,,,,,
,,,,,,615211c71871ab62cb14cbe1,62c53a67deca570d4abc80d1,2022-07-06_09h34.05.518,Colour_Asymmetry_Pilot,2022.1.3,Win32,59.61251863,62c50e9c1127f2cd403a315f,0,86,86,84,1,threeone,,,,,,,,,,,,,,,,,,,,,,,,,,,,,,,,,,,,,,,,,,,,,,,,,,,,,,,,,,,,,,,,,,,,,,,,,,,,,,,,,,,,,,,,,,,,,,,,,,,,,,,,,,,,,,,,,,,,,,,,,,,,,,,,,,,,,,,,,,,,,,,,,,,,,,,,,,,,,
,,,,,,615211c71871ab62cb14cbe1,62c53a67deca570d4abc80d1,2022-07-06_09h34.05.518,Colour_Asymmetry_Pilot,2022.1.3,Win32,59.61251863,62c50e9c1127f2cd403a315f,0,87,87,65,1,onethree,,,,,,,,,,,,,,,,,,,,,,,,,,,,,,,,,,,,,,,,,,,,,,,,,,,,,,,,,,,,,,,,,,,,,,,,,,,,,,,,,,,,,,,,,,,,,,,,,,,,,,,,,,,,,,,,,,,,,,,,,,,,,,,,,,,,,,,,,,,,,,,,,,,,,,,,,,,,,
,,,,,,615211c71871ab62cb14cbe1,62c53a67deca570d4abc80d1,2022-07-06_09h34.05.518,Colour_Asymmetry_Pilot,2022.1.3,Win32,59.61251863,62c50e9c1127f2cd403a315f,0,88,88,155,1,twofour,,,,,,,,,,,,,,,,,,,,,,,,,,,,,,,,,,,,,,,,,,,,,,,,,,,,,,,,,,,,,,,,,,,,,,,,,,,,,,,,,,,,,,,,,,,,,,,,,,,,,,,,,,,,,,,,,,,,,,,,,,,,,,,,,,,,,,,,,,,,,,,,,,,,,,,,,,,,,
,,,,,,615211c71871ab62cb14cbe1,62c53a67deca570d4abc80d1,2022-07-06_09h34.05.518,Colour_Asymmetry_Pilot,2022.1.3,Win32,59.61251863,62c50e9c1127f2cd403a315f,0,89,89,36,1,threeone,,,,,,,,,,,,,,,,,,,,,,,,,,,,,,,,,,,,,,,,,,,,,,,,,,,,,,,,,,,,,,,,,,,,,,,,,,,,,,,,,,,,,,,,,,,,,,,,,,,,,,,,,,,,,,,,,,,,,,,,,,,,,,,,,,,,,,,,,,,,,,,,,,,,,,,,,,,,,
,,,,,,615211c71871ab62cb14cbe1,62c53a67deca570d4abc80d1,2022-07-06_09h34.05.518,Colour_Asymmetry_Pilot,2022.1.3,Win32,59.61251863,62c50e9c1127f2cd403a315f,0,90,90,121,1,onethree,,,,,,,,,,,,,,,,,,,,,,,,,,,,,,,,,,,,,,,,,,,,,,,,,,,,,,,,,,,,,,,,,,,,,,,,,,,,,,,,,,,,,,,,,,,,,,,,,,,,,,,,,,,,,,,,,,,,,,,,,,,,,,,,,,,,,,,,,,,,,,,,,,,,,,,,,,,,,
,,,,,,615211c71871ab62cb14cbe1,62c53a67deca570d4abc80d1,2022-07-06_09h34.05.518,Colour_Asymmetry_Pilot,2022.1.3,Win32,59.61251863,62c50e9c1127f2cd403a315f,0,91,91,15,1,fourthree,,,,,,,,,,,,,,,,,,,,,,,,,,,,,,,,,,,,,,,,,,,,,,,,,,,,,,,,,,,,,,,,,,,,,,,,,,,,,,,,,,,,,,,,,,,,,,,,,,,,,,,,,,,,,,,,,,,,,,,,,,,,,,,,,,,,,,,,,,,,,,,,,,,,,,,,,,,,,
,,,,,,615211c71871ab62cb14cbe1,62c53a67deca570d4abc80d1,2022-07-06_09h34.05.518,Colour_Asymmetry_Pilot,2022.1.3,Win32,59.61251863,62c50e9c1127f2cd403a315f,0,92,92,9,1,onethree,,,,,,,,,,,,,,,,,,,,,,,,,,,,,,,,,,,,,,,,,,,,,,,,,,,,,,,,,,,,,,,,,,,,,,,,,,,,,,,,,,,,,,,,,,,,,,,,,,,,,,,,,,,,,,,,,,,,,,,,,,,,,,,,,,,,,,,,,,,,,,,,,,,,,,,,,,,,,
,,,,,,615211c71871ab62cb14cbe1,62c53a67deca570d4abc80d1,2022-07-06_09h34.05.518,Colour_Asymmetry_Pilot,2022.1.3,Win32,59.61251863,62c50e9c1127f2cd403a315f,0,93,93,72,1,onetwo,,,,,,,,,,,,,,,,,,,,,,,,,,,,,,,,,,,,,,,,,,,,,,,,,,,,,,,,,,,,,,,,,,,,,,,,,,,,,,,,,,,,,,,,,,,,,,,,,,,,,,,,,,,,,,,,,,,,,,,,,,,,,,,,,,,,,,,,,,,,,,,,,,,,,,,,,,,,,
,,,,,,615211c71871ab62cb14cbe1,62c53a67deca570d4abc80d1,2022-07-06_09h34.05.518,Colour_Asymmetry_Pilot,2022.1.3,Win32,59.61251863,62c50e9c1127f2cd403a315f,0,94,94,128,1,onetwo,,,,,,,,,,,,,,,,,,,,,,,,,,,,,,,,,,,,,,,,,,,,,,,,,,,,,,,,,,,,,,,,,,,,,,,,,,,,,,,,,,,,,,,,,,,,,,,,,,,,,,,,,,,,,,,,,,,,,,,,,,,,,,,,,,,,,,,,,,,,,,,,,,,,,,,,,,,,,
,,,,,,615211c71871ab62cb14cbe1,62c53a67deca570d4abc80d1,2022-07-06_09h34.05.518,Colour_Asymmetry_Pilot,2022.1.3,Win32,59.61251863,62c50e9c1127f2cd403a315f,0,95,95,22,1,fourtwo,,,,,,,,,,,,,,,,,,,,,,,,,,,,,,,,,,,,,,,,,,,,,,,,,,,,,,,,,,,,,,,,,,,,,,,,,,,,,,,,,,,,,,,,,,,,,,,,,,,,,,,,,,,,,,,,,,,,,,,,,,,,,,,,,,,,,,,,,,,,,,,,,,,,,,,,,,,,,
,,,,,,615211c71871ab62cb14cbe1,62c53a67deca570d4abc80d1,2022-07-06_09h34.05.518,Colour_Asymmetry_Pilot,2022.1.3,Win32,59.61251863,62c50e9c1127f2cd403a315f,0,96,96,48,1,onetwo,,,,,,,,,,,,,,,,,,,,,,,,,,,,,,,,,,,,,,,,,,,,,,,,,,,,,,,,,,,,,,,,,,,,,,,,,,,,,,,,,,,,,,,,,,,,,,,,,,,,,,,,,,,,,,,,,,,,,,,,,,,,,,,,,,,,,,,,,,,,,,,,,,,,,,,,,,,,,
,,,,,,615211c71871ab62cb14cbe1,62c53a67deca570d4abc80d1,2022-07-06_09h34.05.518,Colour_Asymmetry_Pilot,2022.1.3,Win32,59.61251863,62c50e9c1127f2cd403a315f,0,97,97,78,1,fourtwo,,,,,,,,,,,,,,,,,,,,,,,,,,,,,,,,,,,,,,,,,,,,,,,,,,,,,,,,,,,,,,,,,,,,,,,,,,,,,,,,,,,,,,,,,,,,,,,,,,,,,,,,,,,,,,,,,,,,,,,,,,,,,,,,,,,,,,,,,,,,,,,,,,,,,,,,,,,,,
,,,,,,615211c71871ab62cb14cbe1,62c53a67deca570d4abc80d1,2022-07-06_09h34.05.518,Colour_Asymmetry_Pilot,2022.1.3,Win32,59.61251863,62c50e9c1127f2cd403a315f,0,98,98,63,1,fourthree,,,,,,,,,,,,,,,,,,,,,,,,,,,,,,,,,,,,,,,,,,,,,,,,,,,,,,,,,,,,,,,,,,,,,,,,,,,,,,,,,,,,,,,,,,,,,,,,,,,,,,,,,,,,,,,,,,,,,,,,,,,,,,,,,,,,,,,,,,,,,,,,,,,,,,,,,,,,,
,,,,,,615211c71871ab62cb14cbe1,62c53a67deca570d4abc80d1,2022-07-06_09h34.05.518,Colour_Asymmetry_Pilot,2022.1.3,Win32,59.61251863,62c50e9c1127f2cd403a315f,0,99,99,108,1,threeone,,,,,,,,,,,,,,,,,,,,,,,,,,,,,,,,,,,,,,,,,,,,,,,,,,,,,,,,,,,,,,,,,,,,,,,,,,,,,,,,,,,,,,,,,,,,,,,,,,,,,,,,,,,,,,,,,,,,,,,,,,,,,,,,,,,,,,,,,,,,,,,,,,,,,,,,,,,,,
,,,,,,615211c71871ab62cb14cbe1,62c53a67deca570d4abc80d1,2022-07-06_09h34.05.518,Colour_Asymmetry_Pilot,2022.1.3,Win32,59.61251863,62c50e9c1127f2cd403a315f,0,100,100,68,1,threeone,,,,,,,,,,,,,,,,,,,,,,,,,,,,,,,,,,,,,,,,,,,,,,,,,,,,,,,,,,,,,,,,,,,,,,,,,,,,,,,,,,,,,,,,,,,,,,,,,,,,,,,,,,,,,,,,,,,,,,,,,,,,,,,,,,,,,,,,,,,,,,,,,,,,,,,,,,,,,
,,,,,,615211c71871ab62cb14cbe1,62c53a67deca570d4abc80d1,2022-07-06_09h34.05.518,Colour_Asymmetry_Pilot,2022.1.3,Win32,59.61251863,62c50e9c1127f2cd403a315f,0,101,101,150,1,fourtwo,,,,,,,,,,,,,,,,,,,,,,,,,,,,,,,,,,,,,,,,,,,,,,,,,,,,,,,,,,,,,,,,,,,,,,,,,,,,,,,,,,,,,,,,,,,,,,,,,,,,,,,,,,,,,,,,,,,,,,,,,,,,,,,,,,,,,,,,,,,,,,,,,,,,,,,,,,,,,
,,,,,,615211c71871ab62cb14cbe1,62c53a67deca570d4abc80d1,2022-07-06_09h34.05.518,Colour_Asymmetry_Pilot,2022.1.3,Win32,59.61251863,62c50e9c1127f2cd403a315f,0,102,102,141,1,threefour,,,,,,,,,,,,,,,,,,,,,,,,,,,,,,,,,,,,,,,,,,,,,,,,,,,,,,,,,,,,,,,,,,,,,,,,,,,,,,,,,,,,,,,,,,,,,,,,,,,,,,,,,,,,,,,,,,,,,,,,,,,,,,,,,,,,,,,,,,,,,,,,,,,,,,,,,,,,,
,,,,,,615211c71871ab62cb14cbe1,62c53a67deca570d4abc80d1,2022-07-06_09h34.05.518,Colour_Asymmetry_Pilot,2022.1.3,Win32,59.61251863,62c50e9c1127f2cd403a315f,0,103,103,158,1,fourtwo,,,,,,,,,,,,,,,,,,,,,,,,,,,,,,,,,,,,,,,,,,,,,,,,,,,,,,,,,,,,,,,,,,,,,,,,,,,,,,,,,,,,,,,,,,,,,,,,,,,,,,,,,,,,,,,,,,,,,,,,,,,,,,,,,,,,,,,,,,,,,,,,,,,,,,,,,,,,,
,,,,,,615211c71871ab62cb14cbe1,62c53a67deca570d4abc80d1,2022-07-06_09h34.05.518,Colour_Asymmetry_Pilot,2022.1.3,Win32,59.61251863,62c50e9c1127f2cd403a315f,0,104,104,49,1,onethree,,,,,,,,,,,,,,,,,,,,,,,,,,,,,,,,,,,,,,,,,,,,,,,,,,,,,,,,,,,,,,,,,,,,,,,,,,,,,,,,,,,,,,,,,,,,,,,,,,,,,,,,,,,,,,,,,,,,,,,,,,,,,,,,,,,,,,,,,,,,,,,,,,,,,,,,,,,,,
,,,,,,615211c71871ab62cb14cbe1,62c53a67deca570d4abc80d1,2022-07-06_09h34.05.518,Colour_Asymmetry_Pilot,2022.1.3,Win32,59.61251863,62c50e9c1127f2cd403a315f,0,105,105,139,1,twofour,,,,,,,,,,,,,,,,,,,,,,,,,,,,,,,,,,,,,,,,,,,,,,,,,,,,,,,,,,,,,,,,,,,,,,,,,,,,,,,,,,,,,,,,,,,,,,,,,,,,,,,,,,,,,,,,,,,,,,,,,,,,,,,,,,,,,,,,,,,,,,,,,,,,,,,,,,,,,
,,,,,,615211c71871ab62cb14cbe1,62c53a67deca570d4abc80d1,2022-07-06_09h34.05.518,Colour_Asymmetry_Pilot,2022.1.3,Win32,59.61251863,62c50e9c1127f2cd403a315f,0,106,106,93,1,threefour,,,,,,,,,,,,,,,,,,,,,,,,,,,,,,,,,,,,,,,,,,,,,,,,,,,,,,,,,,,,,,,,,,,,,,,,,,,,,,,,,,,,,,,,,,,,,,,,,,,,,,,,,,,,,,,,,,,,,,,,,,,,,,,,,,,,,,,,,,,,,,,,,,,,,,,,,,,,,
,,,,,,615211c71871ab62cb14cbe1,62c53a67deca570d4abc80d1,2022-07-06_09h34.05.518,Colour_Asymmetry_Pilot,2022.1.3,Win32,59.61251863,62c50e9c1127f2cd403a315f,0,107,107,154,1,twoone,,,,,,,,,,,,,,,,,,,,,,,,,,,,,,,,,,,,,,,,,,,,,,,,,,,,,,,,,,,,,,,,,,,,,,,,,,,,,,,,,,,,,,,,,,,,,,,,,,,,,,,,,,,,,,,,,,,,,,,,,,,,,,,,,,,,,,,,,,,,,,,,,,,,,,,,,,,,,
,,,,,,615211c71871ab62cb14cbe1,62c53a67deca570d4abc80d1,2022-07-06_09h34.05.518,Colour_Asymmetry_Pilot,2022.1.3,Win32,59.61251863,62c50e9c1127f2cd403a315f,0,108,108,38,1,fourtwo,,,,,,,,,,,,,,,,,,,,,,,,,,,,,,,,,,,,,,,,,,,,,,,,,,,,,,,,,,,,,,,,,,,,,,,,,,,,,,,,,,,,,,,,,,,,,,,,,,,,,,,,,,,,,,,,,,,,,,,,,,,,,,,,,,,,,,,,,,,,,,,,,,,,,,,,,,,,,
,,,,,,615211c71871ab62cb14cbe1,62c53a67deca570d4abc80d1,2022-07-06_09h34.05.518,Colour_Asymmetry_Pilot,2022.1.3,Win32,59.61251863,62c50e9c1127f2cd403a315f,0,109,109,100,1,threeone,,,,,,,,,,,,,,,,,,,,,,,,,,,,,,,,,,,,,,,,,,,,,,,,,,,,,,,,,,,,,,,,,,,,,,,,,,,,,,,,,,,,,,,,,,,,,,,,,,,,,,,,,,,,,,,,,,,,,,,,,,,,,,,,,,,,,,,,,,,,,,,,,,,,,,,,,,,,,
,,,,,,615211c71871ab62cb14cbe1,62c53a67deca570d4abc80d1,2022-07-06_09h34.05.518,Colour_Asymmetry_Pilot,2022.1.3,Win32,59.61251863,62c50e9c1127f2cd403a315f,0,110,110,115,1,twofour,,,,,,,,,,,,,,,,,,,,,,,,,,,,,,,,,,,,,,,,,,,,,,,,,,,,,,,,,,,,,,,,,,,,,,,,,,,,,,,,,,,,,,,,,,,,,,,,,,,,,,,,,,,,,,,,,,,,,,,,,,,,,,,,,,,,,,,,,,,,,,,,,,,,,,,,,,,,,
,,,,,,615211c71871ab62cb14cbe1,62c53a67deca570d4abc80d1,2022-07-06_09h34.05.518,Colour_Asymmetry_Pilot,2022.1.3,Win32,59.61251863,62c50e9c1127f2cd403a315f,0,111,111,120,1,onetwo,,,,,,,,,,,,,,,,,,,,,,,,,,,,,,,,,,,,,,,,,,,,,,,,,,,,,,,,,,,,,,,,,,,,,,,,,,,,,,,,,,,,,,,,,,,,,,,,,,,,,,,,,,,,,,,,,,,,,,,,,,,,,,,,,,,,,,,,,,,,,,,,,,,,,,,,,,,,,
,,,,,,615211c71871ab62cb14cbe1,62c53a67deca570d4abc80d1,2022-07-06_09h34.05.518,Colour_Asymmetry_Pilot,2022.1.3,Win32,59.61251863,62c50e9c1127f2cd403a315f,0,112,112,89,1,onethree,,,,,,,,,,,,,,,,,,,,,,,,,,,,,,,,,,,,,,,,,,,,,,,,,,,,,,,,,,,,,,,,,,,,,,,,,,,,,,,,,,,,,,,,,,,,,,,,,,,,,,,,,,,,,,,,,,,,,,,,,,,,,,,,,,,,,,,,,,,,,,,,,,,,,,,,,,,,,
,,,,,,615211c71871ab62cb14cbe1,62c53a67deca570d4abc80d1,2022-07-06_09h34.05.518,Colour_Asymmetry_Pilot,2022.1.3,Win32,59.61251863,62c50e9c1127f2cd403a315f,0,113,113,81,1,onethree,,,,,,,,,,,,,,,,,,,,,,,,,,,,,,,,,,,,,,,,,,,,,,,,,,,,,,,,,,,,,,,,,,,,,,,,,,,,,,,,,,,,,,,,,,,,,,,,,,,,,,,,,,,,,,,,,,,,,,,,,,,,,,,,,,,,,,,,,,,,,,,,,,,,,,,,,,,,,
,,,,,,615211c71871ab62cb14cbe1,62c53a67deca570d4abc80d1,2022-07-06_09h34.05.518,Colour_Asymmetry_Pilot,2022.1.3,Win32,59.61251863,62c50e9c1127f2cd403a315f,0,114,114,5,1,threefour,,,,,,,,,,,,,,,,,,,,,,,,,,,,,,,,,,,,,,,,,,,,,,,,,,,,,,,,,,,,,,,,,,,,,,,,,,,,,,,,,,,,,,,,,,,,,,,,,,,,,,,,,,,,,,,,,,,,,,,,,,,,,,,,,,,,,,,,,,,,,,,,,,,,,,,,,,,,,
,,,,,,615211c71871ab62cb14cbe1,62c53a67deca570d4abc80d1,2022-07-06_09h34.05.518,Colour_Asymmetry_Pilot,2022.1.3,Win32,59.61251863,62c50e9c1127f2cd403a315f,0,115,115,46,1,fourtwo,,,,,,,,,,,,,,,,,,,,,,,,,,,,,,,,,,,,,,,,,,,,,,,,,,,,,,,,,,,,,,,,,,,,,,,,,,,,,,,,,,,,,,,,,,,,,,,,,,,,,,,,,,,,,,,,,,,,,,,,,,,,,,,,,,,,,,,,,,,,,,,,,,,,,,,,,,,,,
,,,,,,615211c71871ab62cb14cbe1,62c53a67deca570d4abc80d1,2022-07-06_09h34.05.518,Colour_Asymmetry_Pilot,2022.1.3,Win32,59.61251863,62c50e9c1127f2cd403a315f,0,116,116,37,1,threefour,,,,,,,,,,,,,,,,,,,,,,,,,,,,,,,,,,,,,,,,,,,,,,,,,,,,,,,,,,,,,,,,,,,,,,,,,,,,,,,,,,,,,,,,,,,,,,,,,,,,,,,,,,,,,,,,,,,,,,,,,,,,,,,,,,,,,,,,,,,,,,,,,,,,,,,,,,,,,
,,,,,,615211c71871ab62cb14cbe1,62c53a67deca570d4abc80d1,2022-07-06_09h34.05.518,Colour_Asymmetry_Pilot,2022.1.3,Win32,59.61251863,62c50e9c1127f2cd403a315f,0,117,117,17,1,onethree,,,,,,,,,,,,,,,,,,,,,,,,,,,,,,,,,,,,,,,,,,,,,,,,,,,,,,,,,,,,,,,,,,,,,,,,,,,,,,,,,,,,,,,,,,,,,,,,,,,,,,,,,,,,,,,,,,,,,,,,,,,,,,,,,,,,,,,,,,,,,,,,,,,,,,,,,,,,,
,,,,,,615211c71871ab62cb14cbe1,62c53a67deca570d4abc80d1,2022-07-06_09h34.05.518,Colour_Asymmetry_Pilot,2022.1.3,Win32,59.61251863,62c50e9c1127f2cd403a315f,0,118,118,50,1,twoone,,,,,,,,,,,,,,,,,,,,,,,,,,,,,,,,,,,,,,,,,,,,,,,,,,,,,,,,,,,,,,,,,,,,,,,,,,,,,,,,,,,,,,,,,,,,,,,,,,,,,,,,,,,,,,,,,,,,,,,,,,,,,,,,,,,,,,,,,,,,,,,,,,,,,,,,,,,,,
,,,,,,615211c71871ab62cb14cbe1,62c53a67deca570d4abc80d1,2022-07-06_09h34.05.518,Colour_Asymmetry_Pilot,2022.1.3,Win32,59.61251863,62c50e9c1127f2cd403a315f,0,119,119,131,1,twofour,,,,,,,,,,,,,,,,,,,,,,,,,,,,,,,,,,,,,,,,,,,,,,,,,,,,,,,,,,,,,,,,,,,,,,,,,,,,,,,,,,,,,,,,,,,,,,,,,,,,,,,,,,,,,,,,,,,,,,,,,,,,,,,,,,,,,,,,,,,,,,,,,,,,,,,,,,,,,
,,,,,,615211c71871ab62cb14cbe1,62c53a67deca570d4abc80d1,2022-07-06_09h34.05.518,Colour_Asymmetry_Pilot,2022.1.3,Win32,59.61251863,62c50e9c1127f2cd403a315f,0,120,120,85,1,threefour,,,,,,,,,,,,,,,,,,,,,,,,,,,,,,,,,,,,,,,,,,,,,,,,,,,,,,,,,,,,,,,,,,,,,,,,,,,,,,,,,,,,,,,,,,,,,,,,,,,,,,,,,,,,,,,,,,,,,,,,,,,,,,,,,,,,,,,,,,,,,,,,,,,,,,,,,,,,,
,,,,,,615211c71871ab62cb14cbe1,62c53a67deca570d4abc80d1,2022-07-06_09h34.05.518,Colour_Asymmetry_Pilot,2022.1.3,Win32,59.61251863,62c50e9c1127f2cd403a315f,0,121,121,86,1,fourtwo,,,,,,,,,,,,,,,,,,,,,,,,,,,,,,,,,,,,,,,,,,,,,,,,,,,,,,,,,,,,,,,,,,,,,,,,,,,,,,,,,,,,,,,,,,,,,,,,,,,,,,,,,,,,,,,,,,,,,,,,,,,,,,,,,,,,,,,,,,,,,,,,,,,,,,,,,,,,,
,,,,,,615211c71871ab62cb14cbe1,62c53a67deca570d4abc80d1,2022-07-06_09h34.05.518,Colour_Asymmetry_Pilot,2022.1.3,Win32,59.61251863,62c50e9c1127f2cd403a315f,0,122,122,77,1,threefour,,,,,,,,,,,,,,,,,,,,,,,,,,,,,,,,,,,,,,,,,,,,,,,,,,,,,,,,,,,,,,,,,,,,,,,,,,,,,,,,,,,,,,,,,,,,,,,,,,,,,,,,,,,,,,,,,,,,,,,,,,,,,,,,,,,,,,,,,,,,,,,,,,,,,,,,,,,,,
,,,,,,615211c71871ab62cb14cbe1,62c53a67deca570d4abc80d1,2022-07-06_09h34.05.518,Colour_Asymmetry_Pilot,2022.1.3,Win32,59.61251863,62c50e9c1127f2cd403a315f,0,123,123,161,1,onethree,,,,,,,,,,,,,,,,,,,,,,,,,,,,,,,,,,,,,,,,,,,,,,,,,,,,,,,,,,,,,,,,,,,,,,,,,,,,,,,,,,,,,,,,,,,,,,,,,,,,,,,,,,,,,,,,,,,,,,,,,,,,,,,,,,,,,,,,,,,,,,,,,,,,,,,,,,,,,
,,,,,,615211c71871ab62cb14cbe1,62c53a67deca570d4abc80d1,2022-07-06_09h34.05.518,Colour_Asymmetry_Pilot,2022.1.3,Win32,59.61251863,62c50e9c1127f2cd403a315f,0,124,124,16,1,onetwo,,,,,,,,,,,,,,,,,,,,,,,,,,,,,,,,,,,,,,,,,,,,,,,,,,,,,,,,,,,,,,,,,,,,,,,,,,,,,,,,,,,,,,,,,,,,,,,,,,,,,,,,,,,,,,,,,,,,,,,,,,,,,,,,,,,,,,,,,,,,,,,,,,,,,,,,,,,,,
,,,,,,615211c71871ab62cb14cbe1,62c53a67deca570d4abc80d1,2022-07-06_09h34.05.518,Colour_Asymmetry_Pilot,2022.1.3,Win32,59.61251863,62c50e9c1127f2cd403a315f,0,125,125,111,1,fourthree,,,,,,,,,,,,,,,,,,,,,,,,,,,,,,,,,,,,,,,,,,,,,,,,,,,,,,,,,,,,,,,,,,,,,,,,,,,,,,,,,,,,,,,,,,,,,,,,,,,,,,,,,,,,,,,,,,,,,,,,,,,,,,,,,,,,,,,,,,,,,,,,,,,,,,,,,,,,,
,,,,,,615211c71871ab62cb14cbe1,62c53a67deca570d4abc80d1,2022-07-06_09h34.05.518,Colour_Asymmetry_Pilot,2022.1.3,Win32,59.61251863,62c50e9c1127f2cd403a315f,0,126,126,83,1,twofour,,,,,,,,,,,,,,,,,,,,,,,,,,,,,,,,,,,,,,,,,,,,,,,,,,,,,,,,,,,,,,,,,,,,,,,,,,,,,,,,,,,,,,,,,,,,,,,,,,,,,,,,,,,,,,,,,,,,,,,,,,,,,,,,,,,,,,,,,,,,,,,,,,,,,,,,,,,,,
,,,,,,615211c71871ab62cb14cbe1,62c53a67deca570d4abc80d1,2022-07-06_09h34.05.518,Colour_Asymmetry_Pilot,2022.1.3,Win32,59.61251863,62c50e9c1127f2cd403a315f,0,127,127,80,1,onetwo,,,,,,,,,,,,,,,,,,,,,,,,,,,,,,,,,,,,,,,,,,,,,,,,,,,,,,,,,,,,,,,,,,,,,,,,,,,,,,,,,,,,,,,,,,,,,,,,,,,,,,,,,,,,,,,,,,,,,,,,,,,,,,,,,,,,,,,,,,,,,,,,,,,,,,,,,,,,,
,,,,,,615211c71871ab62cb14cbe1,62c53a67deca570d4abc80d1,2022-07-06_09h34.05.518,Colour_Asymmetry_Pilot,2022.1.3,Win32,59.61251863,62c50e9c1127f2cd403a315f,0,128,128,1,1,onethree,,,,,,,,,,,,,,,,,,,,,,,,,,,,,,,,,,,,,,,,,,,,,,,,,,,,,,,,,,,,,,,,,,,,,,,,,,,,,,,,,,,,,,,,,,,,,,,,,,,,,,,,,,,,,,,,,,,,,,,,,,,,,,,,,,,,,,,,,,,,,,,,,,,,,,,,,,,,,
,,,,,,615211c71871ab62cb14cbe1,62c53a67deca570d4abc80d1,2022-07-06_09h34.05.518,Colour_Asymmetry_Pilot,2022.1.3,Win32,59.61251863,62c50e9c1127f2cd403a315f,0,129,129,127,1,fourthree,,,,,,,,,,,,,,,,,,,,,,,,,,,,,,,,,,,,,,,,,,,,,,,,,,,,,,,,,,,,,,,,,,,,,,,,,,,,,,,,,,,,,,,,,,,,,,,,,,,,,,,,,,,,,,,,,,,,,,,,,,,,,,,,,,,,,,,,,,,,,,,,,,,,,,,,,,,,,
,,,,,,615211c71871ab62cb14cbe1,62c53a67deca570d4abc80d1,2022-07-06_09h34.05.518,Colour_Asymmetry_Pilot,2022.1.3,Win32,59.61251863,62c50e9c1127f2cd403a315f,0,130,130,8,1,onetwo,,,,,,,,,,,,,,,,,,,,,,,,,,,,,,,,,,,,,,,,,,,,,,,,,,,,,,,,,,,,,,,,,,,,,,,,,,,,,,,,,,,,,,,,,,,,,,,,,,,,,,,,,,,,,,,,,,,,,,,,,,,,,,,,,,,,,,,,,,,,,,,,,,,,,,,,,,,,,
,,,,,,615211c71871ab62cb14cbe1,62c53a67deca570d4abc80d1,2022-07-06_09h34.05.518,Colour_Asymmetry_Pilot,2022.1.3,Win32,59.61251863,62c50e9c1127f2cd403a315f,0,131,131,106,1,twoone,,,,,,,,,,,,,,,,,,,,,,,,,,,,,,,,,,,,,,,,,,,,,,,,,,,,,,,,,,,,,,,,,,,,,,,,,,,,,,,,,,,,,,,,,,,,,,,,,,,,,,,,,,,,,,,,,,,,,,,,,,,,,,,,,,,,,,,,,,,,,,,,,,,,,,,,,,,,,
,,,,,,615211c71871ab62cb14cbe1,62c53a67deca570d4abc80d1,2022-07-06_09h34.05.518,Colour_Asymmetry_Pilot,2022.1.3,Win32,59.61251863,62c50e9c1127f2cd403a315f,0,132,132,142,1,fourtwo,,,,,,,,,,,,,,,,,,,,,,,,,,,,,,,,,,,,,,,,,,,,,,,,,,,,,,,,,,,,,,,,,,,,,,,,,,,,,,,,,,,,,,,,,,,,,,,,,,,,,,,,,,,,,,,,,,,,,,,,,,,,,,,,,,,,,,,,,,,,,,,,,,,,,,,,,,,,,
,,,,,,615211c71871ab62cb14cbe1,62c53a67deca570d4abc80d1,2022-07-06_09h34.05.518,Colour_Asymmetry_Pilot,2022.1.3,Win32,59.61251863,62c50e9c1127f2cd403a315f,0,133,133,19,1,twofour,,,,,,,,,,,,,,,,,,,,,,,,,,,,,,,,,,,,,,,,,,,,,,,,,,,,,,,,,,,,,,,,,,,,,,,,,,,,,,,,,,,,,,,,,,,,,,,,,,,,,,,,,,,,,,,,,,,,,,,,,,,,,,,,,,,,,,,,,,,,,,,,,,,,,,,,,,,,,
,,,,,,615211c71871ab62cb14cbe1,62c53a67deca570d4abc80d1,2022-07-06_09h34.05.518,Colour_Asymmetry_Pilot,2022.1.3,Win32,59.61251863,62c50e9c1127f2cd403a315f,0,134,134,42,1,twoone,,,,,,,,,,,,,,,,,,,,,,,,,,,,,,,,,,,,,,,,,,,,,,,,,,,,,,,,,,,,,,,,,,,,,,,,,,,,,,,,,,,,,,,,,,,,,,,,,,,,,,,,,,,,,,,,,,,,,,,,,,,,,,,,,,,,,,,,,,,,,,,,,,,,,,,,,,,,,
,,,,,,615211c71871ab62cb14cbe1,62c53a67deca570d4abc80d1,2022-07-06_09h34.05.518,Colour_Asymmetry_Pilot,2022.1.3,Win32,59.61251863,62c50e9c1127f2cd403a315f,0,135,135,0,1,onetwo,,,,,,,,,,,,,,,,,,,,,,,,,,,,,,,,,,,,,,,,,,,,,,,,,,,,,,,,,,,,,,,,,,,,,,,,,,,,,,,,,,,,,,,,,,,,,,,,,,,,,,,,,,,,,,,,,,,,,,,,,,,,,,,,,,,,,,,,,,,,,,,,,,,,,,,,,,,,,
,,,,,,615211c71871ab62cb14cbe1,62c53a67deca570d4abc80d1,2022-07-06_09h34.05.518,Colour_Asymmetry_Pilot,2022.1.3,Win32,59.61251863,62c50e9c1127f2cd403a315f,0,136,136,82,1,twoone,,,,,,,,,,,,,,,,,,,,,,,,,,,,,,,,,,,,,,,,,,,,,,,,,,,,,,,,,,,,,,,,,,,,,,,,,,,,,,,,,,,,,,,,,,,,,,,,,,,,,,,,,,,,,,,,,,,,,,,,,,,,,,,,,,,,,,,,,,,,,,,,,,,,,,,,,,,,,
,,,,,,615211c71871ab62cb14cbe1,62c53a67deca570d4abc80d1,2022-07-06_09h34.05.518,Colour_Asymmetry_Pilot,2022.1.3,Win32,59.61251863,62c50e9c1127f2cd403a315f,0,137,137,91,1,twofour,,,,,,,,,,,,,,,,,,,,,,,,,,,,,,,,,,,,,,,,,,,,,,,,,,,,,,,,,,,,,,,,,,,,,,,,,,,,,,,,,,,,,,,,,,,,,,,,,,,,,,,,,,,,,,,,,,,,,,,,,,,,,,,,,,,,,,,,,,,,,,,,,,,,,,,,,,,,,
,,,,,,615211c71871ab62cb14cbe1,62c53a67deca570d4abc80d1,2022-07-06_09h34.05.518,Colour_Asymmetry_Pilot,2022.1.3,Win32,59.61251863,62c50e9c1127f2cd403a315f,0,138,138,136,1,onetwo,,,,,,,,,,,,,,,,,,,,,,,,,,,,,,,,,,,,,,,,,,,,,,,,,,,,,,,,,,,,,,,,,,,,,,,,,,,,,,,,,,,,,,,,,,,,,,,,,,,,,,,,,,,,,,,,,,,,,,,,,,,,,,,,,,,,,,,,,,,,,,,,,,,,,,,,,,,,,
,,,,,,615211c71871ab62cb14cbe1,62c53a67deca570d4abc80d1,2022-07-06_09h34.05.518,Colour_Asymmetry_Pilot,2022.1.3,Win32,59.61251863,62c50e9c1127f2cd403a315f,0,139,139,54,1,fourtwo,,,,,,,,,,,,,,,,,,,,,,,,,,,,,,,,,,,,,,,,,,,,,,,,,,,,,,,,,,,,,,,,,,,,,,,,,,,,,,,,,,,,,,,,,,,,,,,,,,,,,,,,,,,,,,,,,,,,,,,,,,,,,,,,,,,,,,,,,,,,,,,,,,,,,,,,,,,,,
,,,,,,615211c71871ab62cb14cbe1,62c53a67deca570d4abc80d1,2022-07-06_09h34.05.518,Colour_Asymmetry_Pilot,2022.1.3,Win32,59.61251863,62c50e9c1127f2cd403a315f,0,140,140,10,1,twoone,,,,,,,,,,,,,,,,,,,,,,,,,,,,,,,,,,,,,,,,,,,,,,,,,,,,,,,,,,,,,,,,,,,,,,,,,,,,,,,,,,,,,,,,,,,,,,,,,,,,,,,,,,,,,,,,,,,,,,,,,,,,,,,,,,,,,,,,,,,,,,,,,,,,,,,,,,,,,
,,,,,,615211c71871ab62cb14cbe1,62c53a67deca570d4abc80d1,2022-07-06_09h34.05.518,Colour_Asymmetry_Pilot,2022.1.3,Win32,59.61251863,62c50e9c1127f2cd403a315f,0,141,141,64,1,onetwo,,,,,,,,,,,,,,,,,,,,,,,,,,,,,,,,,,,,,,,,,,,,,,,,,,,,,,,,,,,,,,,,,,,,,,,,,,,,,,,,,,,,,,,,,,,,,,,,,,,,,,,,,,,,,,,,,,,,,,,,,,,,,,,,,,,,,,,,,,,,,,,,,,,,,,,,,,,,,
,,,,,,615211c71871ab62cb14cbe1,62c53a67deca570d4abc80d1,2022-07-06_09h34.05.518,Colour_Asymmetry_Pilot,2022.1.3,Win32,59.61251863,62c50e9c1127f2cd403a315f,0,142,142,20,1,threeone,,,,,,,,,,,,,,,,,,,,,,,,,,,,,,,,,,,,,,,,,,,,,,,,,,,,,,,,,,,,,,,,,,,,,,,,,,,,,,,,,,,,,,,,,,,,,,,,,,,,,,,,,,,,,,,,,,,,,,,,,,,,,,,,,,,,,,,,,,,,,,,,,,,,,,,,,,,,,
,,,,,,615211c71871ab62cb14cbe1,62c53a67deca570d4abc80d1,2022-07-06_09h34.05.518,Colour_Asymmetry_Pilot,2022.1.3,Win32,59.61251863,62c50e9c1127f2cd403a315f,0,143,143,119,1,fourthree,,,,,,,,,,,,,,,,,,,,,,,,,,,,,,,,,,,,,,,,,,,,,,,,,,,,,,,,,,,,,,,,,,,,,,,,,,,,,,,,,,,,,,,,,,,,,,,,,,,,,,,,,,,,,,,,,,,,,,,,,,,,,,,,,,,,,,,,,,,,,,,,,,,,,,,,,,,,,
,,,,,,615211c71871ab62cb14cbe1,62c53a67deca570d4abc80d1,2022-07-06_09h34.05.518,Colour_Asymmetry_Pilot,2022.1.3,Win32,59.61251863,62c50e9c1127f2cd403a315f,0,144,144,31,1,fourthree,,,,,,,,,,,,,,,,,,,,,,,,,,,,,,,,,,,,,,,,,,,,,,,,,,,,,,,,,,,,,,,,,,,,,,,,,,,,,,,,,,,,,,,,,,,,,,,,,,,,,,,,,,,,,,,,,,,,,,,,,,,,,,,,,,,,,,,,,,,,,,,,,,,,,,,,,,,,,
,,,,,,615211c71871ab62cb14cbe1,62c53a67deca570d4abc80d1,2022-07-06_09h34.05.518,Colour_Asymmetry_Pilot,2022.1.3,Win32,59.61251863,62c50e9c1127f2cd403a315f,0,145,145,140,1,threeone,,,,,,,,,,,,,,,,,,,,,,,,,,,,,,,,,,,,,,,,,,,,,,,,,,,,,,,,,,,,,,,,,,,,,,,,,,,,,,,,,,,,,,,,,,,,,,,,,,,,,,,,,,,,,,,,,,,,,,,,,,,,,,,,,,,,,,,,,,,,,,,,,,,,,,,,,,,,,
,,,,,,615211c71871ab62cb14cbe1,62c53a67deca570d4abc80d1,2022-07-06_09h34.05.518,Colour_Asymmetry_Pilot,2022.1.3,Win32,59.61251863,62c50e9c1127f2cd403a315f,0,146,146,103,1,fourthree,,,,,,,,,,,,,,,,,,,,,,,,,,,,,,,,,,,,,,,,,,,,,,,,,,,,,,,,,,,,,,,,,,,,,,,,,,,,,,,,,,,,,,,,,,,,,,,,,,,,,,,,,,,,,,,,,,,,,,,,,,,,,,,,,,,,,,,,,,,,,,,,,,,,,,,,,,,,,
,,,,,,615211c71871ab62cb14cbe1,62c53a67deca570d4abc80d1,2022-07-06_09h34.05.518,Colour_Asymmetry_Pilot,2022.1.3,Win32,59.61251863,62c50e9c1127f2cd403a315f,0,147,147,25,1,onethree,,,,,,,,,,,,,,,,,,,,,,,,,,,,,,,,,,,,,,,,,,,,,,,,,,,,,,,,,,,,,,,,,,,,,,,,,,,,,,,,,,,,,,,,,,,,,,,,,,,,,,,,,,,,,,,,,,,,,,,,,,,,,,,,,,,,,,,,,,,,,,,,,,,,,,,,,,,,,
,,,,,,615211c71871ab62cb14cbe1,62c53a67deca570d4abc80d1,2022-07-06_09h34.05.518,Colour_Asymmetry_Pilot,2022.1.3,Win32,59.61251863,62c50e9c1127f2cd403a315f,0,148,148,60,1,threeone,,,,,,,,,,,,,,,,,,,,,,,,,,,,,,,,,,,,,,,,,,,,,,,,,,,,,,,,,,,,,,,,,,,,,,,,,,,,,,,,,,,,,,,,,,,,,,,,,,,,,,,,,,,,,,,,,,,,,,,,,,,,,,,,,,,,,,,,,,,,,,,,,,,,,,,,,,,,,
,,,,,,615211c71871ab62cb14cbe1,62c53a67deca570d4abc80d1,2022-07-06_09h34.05.518,Colour_Asymmetry_Pilot,2022.1.3,Win32,59.61251863,62c50e9c1127f2cd403a315f,0,149,149,133,1,threefour,,,,,,,,,,,,,,,,,,,,,,,,,,,,,,,,,,,,,,,,,,,,,,,,,,,,,,,,,,,,,,,,,,,,,,,,,,,,,,,,,,,,,,,,,,,,,,,,,,,,,,,,,,,,,,,,,,,,,,,,,,,,,,,,,,,,,,,,,,,,,,,,,,,,,,,,,,,,,
,,,,,,615211c71871ab62cb14cbe1,62c53a67deca570d4abc80d1,2022-07-06_09h34.05.518,Colour_Asymmetry_Pilot,2022.1.3,Win32,59.61251863,62c50e9c1127f2cd403a315f,0,150,150,51,1,twofour,,,,,,,,,,,,,,,,,,,,,,,,,,,,,,,,,,,,,,,,,,,,,,,,,,,,,,,,,,,,,,,,,,,,,,,,,,,,,,,,,,,,,,,,,,,,,,,,,,,,,,,,,,,,,,,,,,,,,,,,,,,,,,,,,,,,,,,,,,,,,,,,,,,,,,,,,,,,,
,,,,,,615211c71871ab62cb14cbe1,62c53a67deca570d4abc80d1,2022-07-06_09h34.05.518,Colour_Asymmetry_Pilot,2022.1.3,Win32,59.61251863,62c50e9c1127f2cd403a315f,0,151,151,53,1,threefour,,,,,,,,,,,,,,,,,,,,,,,,,,,,,,,,,,,,,,,,,,,,,,,,,,,,,,,,,,,,,,,,,,,,,,,,,,,,,,,,,,,,,,,,,,,,,,,,,,,,,,,,,,,,,,,,,,,,,,,,,,,,,,,,,,,,,,,,,,,,,,,,,,,,,,,,,,,,,
,,,,,,615211c71871ab62cb14cbe1,62c53a67deca570d4abc80d1,2022-07-06_09h34.05.518,Colour_Asymmetry_Pilot,2022.1.3,Win32,59.61251863,62c50e9c1127f2cd403a315f,0,152,152,107,1,twofour,,,,,,,,,,,,,,,,,,,,,,,,,,,,,,,,,,,,,,,,,,,,,,,,,,,,,,,,,,,,,,,,,,,,,,,,,,,,,,,,,,,,,,,,,,,,,,,,,,,,,,,,,,,,,,,,,,,,,,,,,,,,,,,,,,,,,,,,,,,,,,,,,,,,,,,,,,,,,
,,,,,,615211c71871ab62cb14cbe1,62c53a67deca570d4abc80d1,2022-07-06_09h34.05.518,Colour_Asymmetry_Pilot,2022.1.3,Win32,59.61251863,62c50e9c1127f2cd403a315f,0,153,153,98,1,twoone,,,,,,,,,,,,,,,,,,,,,,,,,,,,,,,,,,,,,,,,,,,,,,,,,,,,,,,,,,,,,,,,,,,,,,,,,,,,,,,,,,,,,,,,,,,,,,,,,,,,,,,,,,,,,,,,,,,,,,,,,,,,,,,,,,,,,,,,,,,,,,,,,,,,,,,,,,,,,
,,,,,,615211c71871ab62cb14cbe1,62c53a67deca570d4abc80d1,2022-07-06_09h34.05.518,Colour_Asymmetry_Pilot,2022.1.3,Win32,59.61251863,62c50e9c1127f2cd403a315f,0,154,154,114,1,twoone,,,,,,,,,,,,,,,,,,,,,,,,,,,,,,,,,,,,,,,,,,,,,,,,,,,,,,,,,,,,,,,,,,,,,,,,,,,,,,,,,,,,,,,,,,,,,,,,,,,,,,,,,,,,,,,,,,,,,,,,,,,,,,,,,,,,,,,,,,,,,,,,,,,,,,,,,,,,,
,,,,,,615211c71871ab62cb14cbe1,62c53a67deca570d4abc80d1,2022-07-06_09h34.05.518,Colour_Asymmetry_Pilot,2022.1.3,Win32,59.61251863,62c50e9c1127f2cd403a315f,0,155,155,148,1,threeone,,,,,,,,,,,,,,,,,,,,,,,,,,,,,,,,,,,,,,,,,,,,,,,,,,,,,,,,,,,,,,,,,,,,,,,,,,,,,,,,,,,,,,,,,,,,,,,,,,,,,,,,,,,,,,,,,,,,,,,,,,,,,,,,,,,,,,,,,,,,,,,,,,,,,,,,,,,,,
,,,,,,615211c71871ab62cb14cbe1,62c53a67deca570d4abc80d1,2022-07-06_09h34.05.518,Colour_Asymmetry_Pilot,2022.1.3,Win32,59.61251863,62c50e9c1127f2cd403a315f,0,156,156,101,1,threefour,,,,,,,,,,,,,,,,,,,,,,,,,,,,,,,,,,,,,,,,,,,,,,,,,,,,,,,,,,,,,,,,,,,,,,,,,,,,,,,,,,,,,,,,,,,,,,,,,,,,,,,,,,,,,,,,,,,,,,,,,,,,,,,,,,,,,,,,,,,,,,,,,,,,,,,,,,,,,
,,,,,,615211c71871ab62cb14cbe1,62c53a67deca570d4abc80d1,2022-07-06_09h34.05.518,Colour_Asymmetry_Pilot,2022.1.3,Win32,59.61251863,62c50e9c1127f2cd403a315f,0,157,157,122,1,twoone,,,,,,,,,,,,,,,,,,,,,,,,,,,,,,,,,,,,,,,,,,,,,,,,,,,,,,,,,,,,,,,,,,,,,,,,,,,,,,,,,,,,,,,,,,,,,,,,,,,,,,,,,,,,,,,,,,,,,,,,,,,,,,,,,,,,,,,,,,,,,,,,,,,,,,,,,,,,,
,,,,,,615211c71871ab62cb14cbe1,62c53a67deca570d4abc80d1,2022-07-06_09h34.05.518,Colour_Asymmetry_Pilot,2022.1.3,Win32,59.61251863,62c50e9c1127f2cd403a315f,0,158,158,76,1,threeone,,,,,,,,,,,,,,,,,,,,,,,,,,,,,,,,,,,,,,,,,,,,,,,,,,,,,,,,,,,,,,,,,,,,,,,,,,,,,,,,,,,,,,,,,,,,,,,,,,,,,,,,,,,,,,,,,,,,,,,,,,,,,,,,,,,,,,,,,,,,,,,,,,,,,,,,,,,,,
,,,,,,615211c71871ab62cb14cbe1,62c53a67deca570d4abc80d1,2022-07-06_09h34.05.518,Colour_Asymmetry_Pilot,2022.1.3,Win32,59.61251863,62c50e9c1127f2cd403a315f,0,159,159,23,1,fourthree,,,,,,,,,,,,,,,,,,,,,,,,,,,,,,,,,,,,,,,,,,,,,,,,,,,,,,,,,,,,,,,,,,,,,,,,,,,,,,,,,,,,,,,,,,,,,,,,,,,,,,,,,,,,,,,,,,,,,,,,,,,,,,,,,,,,,,,,,,,,,,,,,,,,,,,,,,,,,
,,,,,,615211c71871ab62cb14cbe1,62c53a67deca570d4abc80d1,2022-07-06_09h34.05.518,Colour_Asymmetry_Pilot,2022.1.3,Win32,59.61251863,62c50e9c1127f2cd403a315f,0,160,160,104,1,onetwo,,,,,,,,,,,,,,,,,,,,,,,,,,,,,,,,,,,,,,,,,,,,,,,,,,,,,,,,,,,,,,,,,,,,,,,,,,,,,,,,,,,,,,,,,,,,,,,,,,,,,,,,,,,,,,,,,,,,,,,,,,,,,,,,,,,,,,,,,,,,,,,,,,,,,,,,,,,,,
,,,,,,615211c71871ab62cb14cbe1,62c53a67deca570d4abc80d1,2022-07-06_09h34.05.518,Colour_Asymmetry_Pilot,2022.1.3,Win32,59.61251863,62c50e9c1127f2cd403a315f,0,161,161,97,1,onethree,,,,,,,,,,,,,,,,,,,,,,,,,,,,,,,,,,,,,,,,,,,,,,,,,,,,,,,,,,,,,,,,,,,,,,,,,,,,,,,,,,,,,,,,,,,,,,,,,,,,,,,,,,,,,,,,,,,,,,,,,,,,,,,,,,,,,,,,,,,,,,,,,,,,,,,,,,,,,
,,,,,,615211c71871ab62cb14cbe1,62c53a67deca570d4abc80d1,2022-07-06_09h34.05.518,Colour_Asymmetry_Pilot,2022.1.3,Win32,59.61251863,62c50e9c1127f2cd403a315f,,,,,,,space,10.7473,space,11.0832,space,24.0582,space,12.801,space,2.0264,space,3.2747,"[-0.9296,-0.12959999999999994,-0.043199999999999905]",fourthree,"[-0.4276,0.0038000000000000256,-0.3256]",2,8.5899,101.6000366,-43.20001221,1,0,0,response3disk_5,0,-1.600006104,1,0,0,rectangle_8,0,-1.600006104,1,0,0,1,0,-1.600006104,1,0,0,0,0,0,0,1,,,,,,,,,,,,,,,,,,,,,,,,,,,,,,,,,,,,,,,,,,,,,,,,,,,,,,,,,,,,,,,,,,,,,,,,,,,,,,,,,,,,,,,,,,,,,,,,,,,,,,,,,,,,,,,,
,,,,,,615211c71871ab62cb14cbe1,62c53a67deca570d4abc80d1,2022-07-06_09h34.05.518,Colour_Asymmetry_Pilot,2022.1.3,Win32,59.61251863,62c50e9c1127f2cd403a315f,,,,,,,,,,,,,,,,,,,"[0.19199999999999995,0.18419999999999992,0.5136000000000001]",threeone,"[0.9372,0.20779999999999998,0.2704]",1,5.3662,63.20001221,-112,1,0,0,response3disk_5,-7.200012207,3.199981689,1,0,0,rectangle_8,-7.200012207,3.199981689,1,0,0,1,-7.200012207,3.199981689,1,0,0,1,0,1,0,1,,,,,,,,,,,,,,,,,,,,,,,,,,,,,,,,,,,,,,,,,,,,,,,,,,,,,,,,,,,,,,,,,,,,,,,,,,,,,,,,,,,,,,,,,,,,,,,,,,,,,,,,,,,,,,,,
,,,,,,615211c71871ab62cb14cbe1,62c53a67deca570d4abc80d1,2022-07-06_09h34.05.518,Colour_Asymmetry_Pilot,2022.1.3,Win32,59.61251863,62c50e9c1127f2cd403a315f,,,,,,,,,,,,,,,,,,,"[-0.30200000000000005,0.14500000000000002,0.2784]",onethree,"[-0.8118,-0.8198,-0.5452]",-1,1.567,-60,-70.3999939,1,0,0,response5disk_5,-35.20001221,4,1,0,0,rectangle_8,64.79998779,-115.2000427,1,0,0,1,18.40002441,1.599975586,1,0,0,2,0,2,0,1,response3disk_7,4,rectangle_4,,,,,,,,,,,,,,,,,,,,,,,,,,,,,,,,,,,,,,,,,,,,,,,,,,,,,,,,,,,,,,,,,,,,,,,,,,,,,,,,,,,,,,,,,,,,,,,,,,,,,,,,,,,,,
,,,,,,615211c71871ab62cb14cbe1,62c53a67deca570d4abc80d1,2022-07-06_09h34.05.518,Colour_Asymmetry_Pilot,2022.1.3,Win32,59.61251863,62c50e9c1127f2cd403a315f,,,,,,,,,,,,,,,,,,,"[0.2862,0.7802,0.3568]",fourtwo,"[-0.34920000000000007,-0.702,-0.5216]",-2,1.6998,-120.7999878,-52.80001831,1,0,0,response5disk_5,14.40002441,5.599975586,1,0,0,rectangle_8,74.40002441,-116,1,0,0,1,1.600036621,6.399993896,1,0,0,3,0,3,0,1,response3disk_7,4,rectangle_4,,,,,,,,,,,,,,,,,,,,,,,,,,,,,,,,,,,,,,,,,,,,,,,,,,,,,,,,,,,,,,,,,,,,,,,,,,,,,,,,,,,,,,,,,,,,,,,,,,,,,,,,,,,,,
,,,,,,615211c71871ab62cb14cbe1,62c53a67deca570d4abc80d1,2022-07-06_09h34.05.518,Colour_Asymmetry_Pilot,2022.1.3,Win32,59.61251863,62c50e9c1127f2cd403a315f,,,,,,,,,,,,,,,,,,,"[-0.2942,-0.24719999999999998,-0.357]",fourtwo,"[0.9763999999999999,-0.1137999999999999,-0.6314]",-3,3.0349,-102.3999634,52.79998779,1,0,0,response7disk_5,16.79998779,-13.6000061,1,0,0,rectangle_8,16.79998779,-13.6000061,1,0,0,1,16.79998779,-13.6000061,1,0,0,4,0,4,0,1,,,,,,,,,,,,,,,,,,,,,,,,,,,,,,,,,,,,,,,,,,,,,,,,,,,,,,,,,,,,,,,,,,,,,,,,,,,,,,,,,,,,,,,,,,,,,,,,,,,,,,,,,,,,,,,,
,,,,,,615211c71871ab62cb14cbe1,62c53a67deca570d4abc80d1,2022-07-06_09h34.05.518,Colour_Asymmetry_Pilot,2022.1.3,Win32,59.61251863,62c50e9c1127f2cd403a315f,,,,,,,,,,,,,,,,,,,"[-0.4746,-0.0354000000000001,0.5449999999999999]",twofour,"[-0.2942,-0.7648,-0.7492000000000001]",-3,1.3501,-125.5999756,61.59997559,1,0,0,response7disk_5,-9.599975586,-8,1,0,0,rectangle_8,-9.599975586,-8,1,0,0,1,-9.599975586,-8,1,0,0,5,0,5,0,1,,,,,,,,,,,,,,,,,,,,,,,,,,,,,,,,,,,,,,,,,,,,,,,,,,,,,,,,,,,,,,,,,,,,,,,,,,,,,,,,,,,,,,,,,,,,,,,,,,,,,,,,,,,,,,,,
,,,,,,615211c71871ab62cb14cbe1,62c53a67deca570d4abc80d1,2022-07-06_09h34.05.518,Colour_Asymmetry_Pilot,2022.1.3,Win32,59.61251863,62c50e9c1127f2cd403a315f,,,,,,,,,,,,,,,,,,,"[0.9763999999999999,0.30979999999999985,-0.6786]",fourthree,"[0.7802,-0.23140000000000005,-0.20799999999999996]",2,1.55,76,-55.20001221,1,0,0,response3disk_5,0.799987793,-4.800018311,1,0,0,rectangle_8,0.799987793,-4.800018311,1,0,0,1,0.799987793,-4.800018311,1,0,0,6,0,6,0,1,,,,,,,,,,,,,,,,,,,,,,,,,,,,,,,,,,,,,,,,,,,,,,,,,,,,,,,,,,,,,,,,,,,,,,,,,,,,,,,,,,,,,,,,,,,,,,,,,,,,,,,,,,,,,,,,
,,,,,,615211c71871ab62cb14cbe1,62c53a67deca570d4abc80d1,2022-07-06_09h34.05.518,Colour_Asymmetry_Pilot,2022.1.3,Win32,59.61251863,62c50e9c1127f2cd403a315f,,,,,,,,,,,,,,,,,,,,twofour,,3,0.9837,,,,,,,,,,,,,,,,,,,,,,,,,,,,,,,,space,4.0537,"[0.8274000000000001,-0.5844,-0.9452]","[0.9763999999999999,0.30979999999999985,-0.6786]",79.20001221,28.79998779,1,0,0,response1disk,-3.200012207,0.799987793,1,0,0,rectangle,-3.200012207,0.799987793,1,0,0,,3,0.0023,0,-3.200012207,0.799987793,1,0,0,0,0,0,49,1,49,first,,,,,,,,,,,,,,,,,,,,,,,,,,,,,,,,,,,,,,,,,,,,,,,,,,,,,,,,,,,,,,,,,,,,,,,,
,,,,,,615211c71871ab62cb14cbe1,62c53a67deca570d4abc80d1,2022-07-06_09h34.05.518,Colour_Asymmetry_Pilot,2022.1.3,Win32,59.61251863,62c50e9c1127f2cd403a315f,,,,,,,,,,,,,,,,,,,,fourthree,,2,3.2658,,,,,,,,,,,,,,,,,,,,,,,,,,,,,,,,,,"[0.22340000000000004,-0.9296,-0.7884]","[0.9372,0.20779999999999998,0.2704]",105.6000366,-40.80001831,1,0,0,response3disk,-7.200012207,12,1,0,0,rectangle,-7.200012207,12,1,0,0,,3,0.0003,0,-7.200012207,12,1,0,0,0,1,1,28,1,28,first,,,,,,,,,,,,,,,,,,,,,,,,,,,,,,,,,,,,,,,,,,,,,,,,,,,,,,,,,,,,,,,,,,,,,,,,
,,,,,,615211c71871ab62cb14cbe1,62c53a67deca570d4abc80d1,2022-07-06_09h34.05.518,Colour_Asymmetry_Pilot,2022.1.3,Win32,59.61251863,62c50e9c1127f2cd403a315f,,,,,,,,,,,,,,,,,,,,twofour,,-2,0.8666,,,,,,,,,,,,,,,,,,,,,,,,,,,,,,,,,,"[-0.4746,-0.0354000000000001,0.5449999999999999]","[-0.9688,-0.7412000000000001,-0.4902000000000001]",-68,-56,1,0,0,response5disk,29.60003662,12.79998779,1,0,0,rectangle,93.60003662,32,1,0,0,3,3,2.3672,1,11.20001221,0,1,0,0,0,2,2,36,1,36,first,response1disk_3,rectangle,,,,,,,,,,,,,,,,,,,,,,,,,,,,,,,,,,,,,,,,,,,,,,,,,,,,,,,,,,,,,,,,,,,,,,
,,,,,,615211c71871ab62cb14cbe1,62c53a67deca570d4abc80d1,2022-07-06_09h34.05.518,Colour_Asymmetry_Pilot,2022.1.3,Win32,59.61251863,62c50e9c1127f2cd403a315f,,,,,,,,,,,,,,,,,,,,onethree,,3,0.7832,,,,,,,,,,,,,,,,,,,,,,,,,,,,,,,,,,"[-0.011800000000000033,-0.906,-0.45100000000000007]","[-0.9844,-0.9688,-0.9922]",111.2000122,48,1,0,0,response1disk,16,-3.200012207,1,0,0,rectangle,16,-3.200012207,1,0,0,3,2,0.0008,0,16,-3.200012207,1,0,0,0,3,3,74,1,74,first,,,,,,,,,,,,,,,,,,,,,,,,,,,,,,,,,,,,,,,,,,,,,,,,,,,,,,,,,,,,,,,,,,,,,,,,
,,,,,,615211c71871ab62cb14cbe1,62c53a67deca570d4abc80d1,2022-07-06_09h34.05.518,Colour_Asymmetry_Pilot,2022.1.3,Win32,59.61251863,62c50e9c1127f2cd403a315f,,,,,,,,,,,,,,,,,,,,onethree,,2,2.4335,,,,,,,,,,,,,,,,,,,,,,,,,,,,,,,,,,"[0.796,0.2156,-0.27859999999999996]","[-0.07459999999999989,0.12139999999999995,-0.9922]",71.20001221,-43.20001221,1,0,0,response3disk,18.40002441,4.799987793,1,0,0,rectangle,18.40002441,4.799987793,1,0,0,3,1,0.0008,0,18.40002441,4.799987793,1,0,0,0,4,4,66,1,66,first,,,,,,,,,,,,,,,,,,,,,,,,,,,,,,,,,,,,,,,,,,,,,,,,,,,,,,,,,,,,,,,,,,,,,,,,
,,,,,,615211c71871ab62cb14cbe1,62c53a67deca570d4abc80d1,2022-07-06_09h34.05.518,Colour_Asymmetry_Pilot,2022.1.3,Win32,59.61251863,62c50e9c1127f2cd403a315f,,,,,,,,,,,,,,,,,,,,threefour,,-3,2.133,,,,,,,,,,,,,,,,,,,,,,,,,,,,,,,,,,"[-0.24719999999999998,0.5213999999999999,-0.12959999999999994]","[-0.4746,-0.0354000000000001,0.5449999999999999]",-92,44.79998779,1,0,0,response7disk,9.600036621,-7.200012207,1,0,0,rectangle,9.600036621,-7.200012207,1,0,0,3,1,1E-04,0,9.600036621,-7.200012207,1,0,0,0,5,5,83,1,2,second,,,,,,,,,,,,,,,,,,,,,,,,,,,,,,,,,,,,,,,,,,,,,,,,,,,,,,,,,,,,,,,,,,,,,,,,
,,,,,,615211c71871ab62cb14cbe1,62c53a67deca570d4abc80d1,2022-07-06_09h34.05.518,Colour_Asymmetry_Pilot,2022.1.3,Win32,59.61251863,62c50e9c1127f2cd403a315f,,,,,,,,,,,,,,,,,,,,twofour,,3,0.8169,,,,,,,,,,,,,,,,,,,,,,,,,,,,,,,,,,"[0.09799999999999986,-0.24719999999999998,0.15280000000000005]","[0.40379999999999994,0.09000000000000008,0.44300000000000006]",88.79998779,52,1,0,0,response1disk,8.799987793,-0.800018311,1,0,0,rectangle,8.799987793,-0.800018311,1,0,0,3,3,0.0007,0,8.799987793,-0.800018311,1,0,0,0,6,6,106,1,25,second,,,,,,,,,,,,,,,,,,,,,,,,,,,,,,,,,,,,,,,,,,,,,,,,,,,,,,,,,,,,,,,,,,,,,,,,
,,,,,,615211c71871ab62cb14cbe1,62c53a67deca570d4abc80d1,2022-07-06_09h34.05.518,Colour_Asymmetry_Pilot,2022.1.3,Win32,59.61251863,62c50e9c1127f2cd403a315f,,,,,,,,,,,,,,,,,,,,threefour,,4,0.7665,,,,,,,,,,,,,,,,,,,,,,,,,,,,,,,,,,"[0.9763999999999999,0.30979999999999985,-0.6786]","[0.34099999999999997,0.12939999999999996,-0.9766]",70.40002441,85.59997559,1,0,0,response1disk,17.60003662,7.199981689,1,0,0,rectangle,17.60003662,7.199981689,1,0,0,3,3,0.0002,0,17.60003662,7.199981689,1,0,0,0,7,7,84,1,3,second,,,,,,,,,,,,,,,,,,,,,,,,,,,,,,,,,,,,,,,,,,,,,,,,,,,,,,,,,,,,,,,,,,,,,,,,
,,,,,,615211c71871ab62cb14cbe1,62c53a67deca570d4abc80d1,2022-07-06_09h34.05.518,Colour_Asymmetry_Pilot,2022.1.3,Win32,59.61251863,62c50e9c1127f2cd403a315f,,,,,,,,,,,,,,,,,,,,twofour,,3,0.6,,,,,,,,,,,,,,,,,,,,,,,,,,,,,,,,,,"[0.9763999999999999,0.8588,-0.05900000000000005]","[0.7018,0.7176,0.6155999999999999]",82.40002441,47.19998169,1,0,0,response1disk,12.79998779,0,1,0,0,rectangle,12.79998779,0,1,0,0,3,1,0.0016,0,12.79998779,0,1,0,0,0,8,8,69,1,69,first,,,,,,,,,,,,,,,,,,,,,,,,,,,,,,,,,,,,,,,,,,,,,,,,,,,,,,,,,,,,,,,,,,,,,,,,
,,,,,,615211c71871ab62cb14cbe1,62c53a67deca570d4abc80d1,2022-07-06_09h34.05.518,Colour_Asymmetry_Pilot,2022.1.3,Win32,59.61251863,62c50e9c1127f2cd403a315f,,,,,,,,,,,,,,,,,,,,twoone,,-2,0.6668,,,,,,,,,,,,,,,,,,,,,,,,,,,,,,,,,,"[0.23920000000000008,0.2704,0.16060000000000008]","[0.6547999999999998,-0.043199999999999905,-0.011800000000000033]",-60.79998779,-41.6000061,1,0,0,response5disk,6.400024414,4.799987793,1,0,0,rectangle,6.400024414,4.799987793,1,0,0,3,1,0.0002,0,6.400024414,4.799987793,1,0,0,0,9,9,138,1,57,second,,,,,,,,,,,,,,,,,,,,,,,,,,,,,,,,,,,,,,,,,,,,,,,,,,,,,,,,,,,,,,,,,,,,,,,,
,,,,,,615211c71871ab62cb14cbe1,62c53a67deca570d4abc80d1,2022-07-06_09h34.05.518,Colour_Asymmetry_Pilot,2022.1.3,Win32,59.61251863,62c50e9c1127f2cd403a315f,,,,,,,,,,,,,,,,,,,,threefour,,1,5.133,,,,,,,,,,,,,,,,,,,,,,,,,,,,,,,,,,"[-0.4902000000000001,0.2704,-0.45899999999999996]","[0.8115999999999999,-0.0040000000000000036,-0.09819999999999995]",54.40002441,-79.20001221,1,0,0,response3disk,-12,-6.400024414,1,0,0,rectangle,103.2000122,-52,1,0,0,2,2,2.7494,1,24,3.199981689,1,0,0,0,10,10,104,1,23,second,response3disk_3,rectangle,,,,,,,,,,,,,,,,,,,,,,,,,,,,,,,,,,,,,,,,,,,,,,,,,,,,,,,,,,,,,,,,,,,,,,
,,,,,,615211c71871ab62cb14cbe1,62c53a67deca570d4abc80d1,2022-07-06_09h34.05.518,Colour_Asymmetry_Pilot,2022.1.3,Win32,59.61251863,62c50e9c1127f2cd403a315f,,,,,,,,,,,,,,,,,,,,twoone,,2,2.8329,,,,,,,,,,,,,,,,,,,,,,,,,,,,,,,,,,"[-0.9216,-0.5529999999999999,-0.3962]","[-0.01980000000000004,-0.5138,-0.38039999999999996]",106.4000244,-37.6000061,1,0,0,response3disk,-17.59997559,4.799987793,1,0,0,rectangle,-17.59997559,4.799987793,1,0,0,2,1,0.001,0,-17.59997559,4.799987793,1,0,0,0,11,11,153,1,72,second,,,,,,,,,,,,,,,,,,,,,,,,,,,,,,,,,,,,,,,,,,,,,,,,,,,,,,,,,,,,,,,,,,,,,,,,
,,,,,,615211c71871ab62cb14cbe1,62c53a67deca570d4abc80d1,2022-07-06_09h34.05.518,Colour_Asymmetry_Pilot,2022.1.3,Win32,59.61251863,62c50e9c1127f2cd403a315f,,,,,,,,,,,,,,,,,,,,threeone,,3,1.4499,,,,,,,,,,,,,,,,,,,,,,,,,,,,,,,,,,"[0.9763999999999999,0.30979999999999985,-0.6786]","[0.5449999999999999,-0.31000000000000005,-0.0354000000000001]",99.20001221,54.3999939,1,0,0,response1disk,11.20001221,-1.600006104,1,0,0,rectangle,11.20001221,-1.600006104,1,0,0,2,3,0.0007,0,11.20001221,-1.600006104,1,0,0,0,12,12,81,1,0,second,,,,,,,,,,,,,,,,,,,,,,,,,,,,,,,,,,,,,,,,,,,,,,,,,,,,,,,,,,,,,,,,,,,,,,,,
,,,,,,615211c71871ab62cb14cbe1,62c53a67deca570d4abc80d1,2022-07-06_09h34.05.518,Colour_Asymmetry_Pilot,2022.1.3,Win32,59.61251863,62c50e9c1127f2cd403a315f,,,,,,,,,,,,,,,,,,,,threefour,,2,1.1,,,,,,,,,,,,,,,,,,,,,,,,,,,,,,,,,,"[-0.30200000000000005,0.14500000000000002,0.2784]","[-0.9766,-0.6472,0.07440000000000002]",72,-47.20001221,1,0,0,response3disk,11.20001221,-5.600006104,1,0,0,rectangle,11.20001221,-5.600006104,1,0,0,2,2,0.001,0,11.20001221,-5.600006104,1,0,0,0,13,13,141,1,60,second,,,,,,,,,,,,,,,,,,,,,,,,,,,,,,,,,,,,,,,,,,,,,,,,,,,,,,,,,,,,,,,,,,,,,,,,
,,,,,,615211c71871ab62cb14cbe1,62c53a67deca570d4abc80d1,2022-07-06_09h34.05.518,Colour_Asymmetry_Pilot,2022.1.3,Win32,59.61251863,62c50e9c1127f2cd403a315f,,,,,,,,,,,,,,,,,,,,twoone,,1,2.0663,,,,,,,,,,,,,,,,,,,,,,,,,,,,,,,,,,"[0.9372,0.20779999999999998,0.2704]","[0.7018,0.7802,-0.16079999999999994]",84,-98.3999939,1,0,0,response3disk,9.600036621,-4,1,0,0,rectangle,9.600036621,-4,1,0,0,2,3,0.0008,0,9.600036621,-4,1,0,0,0,14,14,42,1,42,first,,,,,,,,,,,,,,,,,,,,,,,,,,,,,,,,,,,,,,,,,,,,,,,,,,,,,,,,,,,,,,,,,,,,,,,,
