trials.thisRepN,trials.thisTrialN,trials.thisN,trials.thisIndex,trials.ran,Colourcodes,participant,session,date,expName,psychopyVersion,OS,frameRate,study_id,trials_4.thisRepN,trials_4.thisTrialN,trials_4.thisN,trials_4.thisIndex,trials_4.ran,StimulusPos,key_resp.keys,key_resp.rt,key_resp_2.keys,key_resp_2.rt,key_resp_15.keys,key_resp_15.rt,key_resp_17.keys,key_resp_17.rt,key_resp_9.keys,key_resp_9.rt,key_resp_10.keys,key_resp_10.rt,Circle1_col,Ecc,Circle2_col,similarity,response_time,mouse_5.x,mouse_5.y,mouse_5.leftButton,mouse_5.midButton,mouse_5.rightButton,mouse_5.clicked_name,mouse_10.x,mouse_10.y,mouse_10.leftButton,mouse_10.midButton,mouse_10.rightButton,mouse_10.clicked_name,mouse_7.x,mouse_7.y,mouse_7.leftButton,mouse_7.midButton,mouse_7.rightButton,mouse_7.clicked_name,catchprac,catchnumberprac,mouse_6.x,mouse_6.y,mouse_6.leftButton,mouse_6.midButton,mouse_6.rightButton,mouse_6.clicked_name,duringprac.thisRepN,duringprac.thisTrialN,duringprac.thisN,duringprac.thisIndex,duringprac.ran,key_resp_22.keys,key_resp_22.rt,Circle1_colour,Circle2_colour,mouse.x,mouse.y,mouse.leftButton,mouse.midButton,mouse.rightButton,mouse.clicked_name,mouse_2.x,mouse_2.y,mouse_2.leftButton,mouse_2.midButton,mouse_2.rightButton,mouse_2.clicked_name,mouse_3.x,mouse_3.y,mouse_3.leftButton,mouse_3.midButton,mouse_3.rightButton,catchresponse,catchnumber,response_time_catch,Catch,mouse_11.x,mouse_11.y,mouse_11.leftButton,mouse_11.midButton,mouse_11.rightButton,trials_2.thisRepN,trials_2.thisTrialN,trials_2.thisN,trials_2.thisIndex,trials_2.ran,Colourpair,Temporder,mouse_3.clicked_name,mouse_11.clicked_name,trials_3.thisRepN,trials_3.thisTrialN,trials_3.thisN,trials_3.thisIndex,trials_3.ran,key_resp_instr_Ishi.keys,key_resp_instr_Ishi.rt,Ishi_trial_keyresp.keys,Ishi_textbox.text,Ishi_mouse.x,Ishi_mouse.y,Ishi_mouse.leftButton,Ishi_mouse.midButton,Ishi_mouse.rightButton,Ishi_mouse.clicked_name,Ishi_loop.thisRepN,Ishi_loop.thisTrialN,Ishi_loop.thisN,Ishi_loop.thisIndex,Ishi_loop.ran,imageaddress,textbox.text,mouse_4.x,mouse_4.y,mouse_4.leftButton,mouse_4.midButton,mouse_4.rightButton,mouse_4.clicked_name,textbox_2.text,mouse_8.x,mouse_8.y,mouse_8.leftButton,mouse_8.midButton,mouse_8.rightButton,mouse_8.clicked_name,textbox_3.text,mouse_9.x,mouse_9.y,mouse_9.leftButton,mouse_9.midButton,mouse_9.rightButton,mouse_9.clicked_name,textbox_4.text,mouse_12.x,mouse_12.y,mouse_12.leftButton,mouse_12.midButton,mouse_12.rightButton,mouse_12.clicked_name,textbox_5.text,mouse_13.x,mouse_13.y,mouse_13.leftButton,mouse_13.midButton,mouse_13.rightButton,mouse_13.clicked_name,textbox_6.text,mouse_14.x,mouse_14.y,mouse_14.leftButton,mouse_14.midButton,mouse_14.rightButton,mouse_14.clicked_name,textbox_7.text,mouse_15.x,mouse_15.y,mouse_15.leftButton,mouse_15.midButton,mouse_15.rightButton,mouse_15.clicked_name
0,0,0,52,1,,60943427c11ddfd172f619e3,62c53a5258c7705bdcbb4b3a,2022-07-06_02h31.56.961,Colour_Asymmetry_Pilot,2022.1.3,Win32,60.21919788,62c50e9c1127f2cd403a315f,,,,,,,,,,,,,,,,,,,,,,,,,,,,,,,,,,,,,,,,,,,,,,,,,,,,,,,,,,,,,,,,,,,,,,,,,,,,,,,,,,,,,,,,,,,,,,,,,,,,,,,,,,,,,,,,,,,,,,,,,,,,,,,,,,,,,,,,,,,,,,,,,,,,,,,,,,,,,,,,,,,
0,1,1,8,1,,60943427c11ddfd172f619e3,62c53a5258c7705bdcbb4b3a,2022-07-06_02h31.56.961,Colour_Asymmetry_Pilot,2022.1.3,Win32,60.21919788,62c50e9c1127f2cd403a315f,,,,,,,,,,,,,,,,,,,,,,,,,,,,,,,,,,,,,,,,,,,,,,,,,,,,,,,,,,,,,,,,,,,,,,,,,,,,,,,,,,,,,,,,,,,,,,,,,,,,,,,,,,,,,,,,,,,,,,,,,,,,,,,,,,,,,,,,,,,,,,,,,,,,,,,,,,,,,,,,,,,
0,2,2,10,1,,60943427c11ddfd172f619e3,62c53a5258c7705bdcbb4b3a,2022-07-06_02h31.56.961,Colour_Asymmetry_Pilot,2022.1.3,Win32,60.21919788,62c50e9c1127f2cd403a315f,,,,,,,,,,,,,,,,,,,,,,,,,,,,,,,,,,,,,,,,,,,,,,,,,,,,,,,,,,,,,,,,,,,,,,,,,,,,,,,,,,,,,,,,,,,,,,,,,,,,,,,,,,,,,,,,,,,,,,,,,,,,,,,,,,,,,,,,,,,,,,,,,,,,,,,,,,,,,,,,,,,
0,3,3,30,1,,60943427c11ddfd172f619e3,62c53a5258c7705bdcbb4b3a,2022-07-06_02h31.56.961,Colour_Asymmetry_Pilot,2022.1.3,Win32,60.21919788,62c50e9c1127f2cd403a315f,,,,,,,,,,,,,,,,,,,,,,,,,,,,,,,,,,,,,,,,,,,,,,,,,,,,,,,,,,,,,,,,,,,,,,,,,,,,,,,,,,,,,,,,,,,,,,,,,,,,,,,,,,,,,,,,,,,,,,,,,,,,,,,,,,,,,,,,,,,,,,,,,,,,,,,,,,,,,,,,,,,
0,4,4,59,1,,60943427c11ddfd172f619e3,62c53a5258c7705bdcbb4b3a,2022-07-06_02h31.56.961,Colour_Asymmetry_Pilot,2022.1.3,Win32,60.21919788,62c50e9c1127f2cd403a315f,,,,,,,,,,,,,,,,,,,,,,,,,,,,,,,,,,,,,,,,,,,,,,,,,,,,,,,,,,,,,,,,,,,,,,,,,,,,,,,,,,,,,,,,,,,,,,,,,,,,,,,,,,,,,,,,,,,,,,,,,,,,,,,,,,,,,,,,,,,,,,,,,,,,,,,,,,,,,,,,,,,
0,5,5,21,1,,60943427c11ddfd172f619e3,62c53a5258c7705bdcbb4b3a,2022-07-06_02h31.56.961,Colour_Asymmetry_Pilot,2022.1.3,Win32,60.21919788,62c50e9c1127f2cd403a315f,,,,,,,,,,,,,,,,,,,,,,,,,,,,,,,,,,,,,,,,,,,,,,,,,,,,,,,,,,,,,,,,,,,,,,,,,,,,,,,,,,,,,,,,,,,,,,,,,,,,,,,,,,,,,,,,,,,,,,,,,,,,,,,,,,,,,,,,,,,,,,,,,,,,,,,,,,,,,,,,,,,
0,6,6,47,1,,60943427c11ddfd172f619e3,62c53a5258c7705bdcbb4b3a,2022-07-06_02h31.56.961,Colour_Asymmetry_Pilot,2022.1.3,Win32,60.21919788,62c50e9c1127f2cd403a315f,,,,,,,,,,,,,,,,,,,,,,,,,,,,,,,,,,,,,,,,,,,,,,,,,,,,,,,,,,,,,,,,,,,,,,,,,,,,,,,,,,,,,,,,,,,,,,,,,,,,,,,,,,,,,,,,,,,,,,,,,,,,,,,,,,,,,,,,,,,,,,,,,,,,,,,,,,,,,,,,,,,
0,7,7,19,1,,60943427c11ddfd172f619e3,62c53a5258c7705bdcbb4b3a,2022-07-06_02h31.56.961,Colour_Asymmetry_Pilot,2022.1.3,Win32,60.21919788,62c50e9c1127f2cd403a315f,,,,,,,,,,,,,,,,,,,,,,,,,,,,,,,,,,,,,,,,,,,,,,,,,,,,,,,,,,,,,,,,,,,,,,,,,,,,,,,,,,,,,,,,,,,,,,,,,,,,,,,,,,,,,,,,,,,,,,,,,,,,,,,,,,,,,,,,,,,,,,,,,,,,,,,,,,,,,,,,,,,
0,8,8,82,1,,60943427c11ddfd172f619e3,62c53a5258c7705bdcbb4b3a,2022-07-06_02h31.56.961,Colour_Asymmetry_Pilot,2022.1.3,Win32,60.21919788,62c50e9c1127f2cd403a315f,,,,,,,,,,,,,,,,,,,,,,,,,,,,,,,,,,,,,,,,,,,,,,,,,,,,,,,,,,,,,,,,,,,,,,,,,,,,,,,,,,,,,,,,,,,,,,,,,,,,,,,,,,,,,,,,,,,,,,,,,,,,,,,,,,,,,,,,,,,,,,,,,,,,,,,,,,,,,,,,,,,
0,9,9,65,1,,60943427c11ddfd172f619e3,62c53a5258c7705bdcbb4b3a,2022-07-06_02h31.56.961,Colour_Asymmetry_Pilot,2022.1.3,Win32,60.21919788,62c50e9c1127f2cd403a315f,,,,,,,,,,,,,,,,,,,,,,,,,,,,,,,,,,,,,,,,,,,,,,,,,,,,,,,,,,,,,,,,,,,,,,,,,,,,,,,,,,,,,,,,,,,,,,,,,,,,,,,,,,,,,,,,,,,,,,,,,,,,,,,,,,,,,,,,,,,,,,,,,,,,,,,,,,,,,,,,,,,
0,10,10,58,1,,60943427c11ddfd172f619e3,62c53a5258c7705bdcbb4b3a,2022-07-06_02h31.56.961,Colour_Asymmetry_Pilot,2022.1.3,Win32,60.21919788,62c50e9c1127f2cd403a315f,,,,,,,,,,,,,,,,,,,,,,,,,,,,,,,,,,,,,,,,,,,,,,,,,,,,,,,,,,,,,,,,,,,,,,,,,,,,,,,,,,,,,,,,,,,,,,,,,,,,,,,,,,,,,,,,,,,,,,,,,,,,,,,,,,,,,,,,,,,,,,,,,,,,,,,,,,,,,,,,,,,
0,11,11,16,1,,60943427c11ddfd172f619e3,62c53a5258c7705bdcbb4b3a,2022-07-06_02h31.56.961,Colour_Asymmetry_Pilot,2022.1.3,Win32,60.21919788,62c50e9c1127f2cd403a315f,,,,,,,,,,,,,,,,,,,,,,,,,,,,,,,,,,,,,,,,,,,,,,,,,,,,,,,,,,,,,,,,,,,,,,,,,,,,,,,,,,,,,,,,,,,,,,,,,,,,,,,,,,,,,,,,,,,,,,,,,,,,,,,,,,,,,,,,,,,,,,,,,,,,,,,,,,,,,,,,,,,
0,12,12,37,1,,60943427c11ddfd172f619e3,62c53a5258c7705bdcbb4b3a,2022-07-06_02h31.56.961,Colour_Asymmetry_Pilot,2022.1.3,Win32,60.21919788,62c50e9c1127f2cd403a315f,,,,,,,,,,,,,,,,,,,,,,,,,,,,,,,,,,,,,,,,,,,,,,,,,,,,,,,,,,,,,,,,,,,,,,,,,,,,,,,,,,,,,,,,,,,,,,,,,,,,,,,,,,,,,,,,,,,,,,,,,,,,,,,,,,,,,,,,,,,,,,,,,,,,,,,,,,,,,,,,,,,
0,13,13,39,1,,60943427c11ddfd172f619e3,62c53a5258c7705bdcbb4b3a,2022-07-06_02h31.56.961,Colour_Asymmetry_Pilot,2022.1.3,Win32,60.21919788,62c50e9c1127f2cd403a315f,,,,,,,,,,,,,,,,,,,,,,,,,,,,,,,,,,,,,,,,,,,,,,,,,,,,,,,,,,,,,,,,,,,,,,,,,,,,,,,,,,,,,,,,,,,,,,,,,,,,,,,,,,,,,,,,,,,,,,,,,,,,,,,,,,,,,,,,,,,,,,,,,,,,,,,,,,,,,,,,,,,
0,14,14,53,1,,60943427c11ddfd172f619e3,62c53a5258c7705bdcbb4b3a,2022-07-06_02h31.56.961,Colour_Asymmetry_Pilot,2022.1.3,Win32,60.21919788,62c50e9c1127f2cd403a315f,,,,,,,,,,,,,,,,,,,,,,,,,,,,,,,,,,,,,,,,,,,,,,,,,,,,,,,,,,,,,,,,,,,,,,,,,,,,,,,,,,,,,,,,,,,,,,,,,,,,,,,,,,,,,,,,,,,,,,,,,,,,,,,,,,,,,,,,,,,,,,,,,,,,,,,,,,,,,,,,,,,
0,15,15,75,1,,60943427c11ddfd172f619e3,62c53a5258c7705bdcbb4b3a,2022-07-06_02h31.56.961,Colour_Asymmetry_Pilot,2022.1.3,Win32,60.21919788,62c50e9c1127f2cd403a315f,,,,,,,,,,,,,,,,,,,,,,,,,,,,,,,,,,,,,,,,,,,,,,,,,,,,,,,,,,,,,,,,,,,,,,,,,,,,,,,,,,,,,,,,,,,,,,,,,,,,,,,,,,,,,,,,,,,,,,,,,,,,,,,,,,,,,,,,,,,,,,,,,,,,,,,,,,,,,,,,,,,
0,16,16,31,1,,60943427c11ddfd172f619e3,62c53a5258c7705bdcbb4b3a,2022-07-06_02h31.56.961,Colour_Asymmetry_Pilot,2022.1.3,Win32,60.21919788,62c50e9c1127f2cd403a315f,,,,,,,,,,,,,,,,,,,,,,,,,,,,,,,,,,,,,,,,,,,,,,,,,,,,,,,,,,,,,,,,,,,,,,,,,,,,,,,,,,,,,,,,,,,,,,,,,,,,,,,,,,,,,,,,,,,,,,,,,,,,,,,,,,,,,,,,,,,,,,,,,,,,,,,,,,,,,,,,,,,
0,17,17,61,1,,60943427c11ddfd172f619e3,62c53a5258c7705bdcbb4b3a,2022-07-06_02h31.56.961,Colour_Asymmetry_Pilot,2022.1.3,Win32,60.21919788,62c50e9c1127f2cd403a315f,,,,,,,,,,,,,,,,,,,,,,,,,,,,,,,,,,,,,,,,,,,,,,,,,,,,,,,,,,,,,,,,,,,,,,,,,,,,,,,,,,,,,,,,,,,,,,,,,,,,,,,,,,,,,,,,,,,,,,,,,,,,,,,,,,,,,,,,,,,,,,,,,,,,,,,,,,,,,,,,,,,
0,18,18,18,1,,60943427c11ddfd172f619e3,62c53a5258c7705bdcbb4b3a,2022-07-06_02h31.56.961,Colour_Asymmetry_Pilot,2022.1.3,Win32,60.21919788,62c50e9c1127f2cd403a315f,,,,,,,,,,,,,,,,,,,,,,,,,,,,,,,,,,,,,,,,,,,,,,,,,,,,,,,,,,,,,,,,,,,,,,,,,,,,,,,,,,,,,,,,,,,,,,,,,,,,,,,,,,,,,,,,,,,,,,,,,,,,,,,,,,,,,,,,,,,,,,,,,,,,,,,,,,,,,,,,,,,
0,19,19,15,1,,60943427c11ddfd172f619e3,62c53a5258c7705bdcbb4b3a,2022-07-06_02h31.56.961,Colour_Asymmetry_Pilot,2022.1.3,Win32,60.21919788,62c50e9c1127f2cd403a315f,,,,,,,,,,,,,,,,,,,,,,,,,,,,,,,,,,,,,,,,,,,,,,,,,,,,,,,,,,,,,,,,,,,,,,,,,,,,,,,,,,,,,,,,,,,,,,,,,,,,,,,,,,,,,,,,,,,,,,,,,,,,,,,,,,,,,,,,,,,,,,,,,,,,,,,,,,,,,,,,,,,
0,20,20,17,1,,60943427c11ddfd172f619e3,62c53a5258c7705bdcbb4b3a,2022-07-06_02h31.56.961,Colour_Asymmetry_Pilot,2022.1.3,Win32,60.21919788,62c50e9c1127f2cd403a315f,,,,,,,,,,,,,,,,,,,,,,,,,,,,,,,,,,,,,,,,,,,,,,,,,,,,,,,,,,,,,,,,,,,,,,,,,,,,,,,,,,,,,,,,,,,,,,,,,,,,,,,,,,,,,,,,,,,,,,,,,,,,,,,,,,,,,,,,,,,,,,,,,,,,,,,,,,,,,,,,,,,
0,21,21,57,1,,60943427c11ddfd172f619e3,62c53a5258c7705bdcbb4b3a,2022-07-06_02h31.56.961,Colour_Asymmetry_Pilot,2022.1.3,Win32,60.21919788,62c50e9c1127f2cd403a315f,,,,,,,,,,,,,,,,,,,,,,,,,,,,,,,,,,,,,,,,,,,,,,,,,,,,,,,,,,,,,,,,,,,,,,,,,,,,,,,,,,,,,,,,,,,,,,,,,,,,,,,,,,,,,,,,,,,,,,,,,,,,,,,,,,,,,,,,,,,,,,,,,,,,,,,,,,,,,,,,,,,
0,22,22,67,1,,60943427c11ddfd172f619e3,62c53a5258c7705bdcbb4b3a,2022-07-06_02h31.56.961,Colour_Asymmetry_Pilot,2022.1.3,Win32,60.21919788,62c50e9c1127f2cd403a315f,,,,,,,,,,,,,,,,,,,,,,,,,,,,,,,,,,,,,,,,,,,,,,,,,,,,,,,,,,,,,,,,,,,,,,,,,,,,,,,,,,,,,,,,,,,,,,,,,,,,,,,,,,,,,,,,,,,,,,,,,,,,,,,,,,,,,,,,,,,,,,,,,,,,,,,,,,,,,,,,,,,
0,23,23,43,1,,60943427c11ddfd172f619e3,62c53a5258c7705bdcbb4b3a,2022-07-06_02h31.56.961,Colour_Asymmetry_Pilot,2022.1.3,Win32,60.21919788,62c50e9c1127f2cd403a315f,,,,,,,,,,,,,,,,,,,,,,,,,,,,,,,,,,,,,,,,,,,,,,,,,,,,,,,,,,,,,,,,,,,,,,,,,,,,,,,,,,,,,,,,,,,,,,,,,,,,,,,,,,,,,,,,,,,,,,,,,,,,,,,,,,,,,,,,,,,,,,,,,,,,,,,,,,,,,,,,,,,
0,24,24,13,1,,60943427c11ddfd172f619e3,62c53a5258c7705bdcbb4b3a,2022-07-06_02h31.56.961,Colour_Asymmetry_Pilot,2022.1.3,Win32,60.21919788,62c50e9c1127f2cd403a315f,,,,,,,,,,,,,,,,,,,,,,,,,,,,,,,,,,,,,,,,,,,,,,,,,,,,,,,,,,,,,,,,,,,,,,,,,,,,,,,,,,,,,,,,,,,,,,,,,,,,,,,,,,,,,,,,,,,,,,,,,,,,,,,,,,,,,,,,,,,,,,,,,,,,,,,,,,,,,,,,,,,
0,25,25,24,1,,60943427c11ddfd172f619e3,62c53a5258c7705bdcbb4b3a,2022-07-06_02h31.56.961,Colour_Asymmetry_Pilot,2022.1.3,Win32,60.21919788,62c50e9c1127f2cd403a315f,,,,,,,,,,,,,,,,,,,,,,,,,,,,,,,,,,,,,,,,,,,,,,,,,,,,,,,,,,,,,,,,,,,,,,,,,,,,,,,,,,,,,,,,,,,,,,,,,,,,,,,,,,,,,,,,,,,,,,,,,,,,,,,,,,,,,,,,,,,,,,,,,,,,,,,,,,,,,,,,,,,
0,26,26,84,1,,60943427c11ddfd172f619e3,62c53a5258c7705bdcbb4b3a,2022-07-06_02h31.56.961,Colour_Asymmetry_Pilot,2022.1.3,Win32,60.21919788,62c50e9c1127f2cd403a315f,,,,,,,,,,,,,,,,,,,,,,,,,,,,,,,,,,,,,,,,,,,,,,,,,,,,,,,,,,,,,,,,,,,,,,,,,,,,,,,,,,,,,,,,,,,,,,,,,,,,,,,,,,,,,,,,,,,,,,,,,,,,,,,,,,,,,,,,,,,,,,,,,,,,,,,,,,,,,,,,,,,
0,27,27,49,1,,60943427c11ddfd172f619e3,62c53a5258c7705bdcbb4b3a,2022-07-06_02h31.56.961,Colour_Asymmetry_Pilot,2022.1.3,Win32,60.21919788,62c50e9c1127f2cd403a315f,,,,,,,,,,,,,,,,,,,,,,,,,,,,,,,,,,,,,,,,,,,,,,,,,,,,,,,,,,,,,,,,,,,,,,,,,,,,,,,,,,,,,,,,,,,,,,,,,,,,,,,,,,,,,,,,,,,,,,,,,,,,,,,,,,,,,,,,,,,,,,,,,,,,,,,,,,,,,,,,,,,
0,28,28,73,1,,60943427c11ddfd172f619e3,62c53a5258c7705bdcbb4b3a,2022-07-06_02h31.56.961,Colour_Asymmetry_Pilot,2022.1.3,Win32,60.21919788,62c50e9c1127f2cd403a315f,,,,,,,,,,,,,,,,,,,,,,,,,,,,,,,,,,,,,,,,,,,,,,,,,,,,,,,,,,,,,,,,,,,,,,,,,,,,,,,,,,,,,,,,,,,,,,,,,,,,,,,,,,,,,,,,,,,,,,,,,,,,,,,,,,,,,,,,,,,,,,,,,,,,,,,,,,,,,,,,,,,
0,29,29,28,1,,60943427c11ddfd172f619e3,62c53a5258c7705bdcbb4b3a,2022-07-06_02h31.56.961,Colour_Asymmetry_Pilot,2022.1.3,Win32,60.21919788,62c50e9c1127f2cd403a315f,,,,,,,,,,,,,,,,,,,,,,,,,,,,,,,,,,,,,,,,,,,,,,,,,,,,,,,,,,,,,,,,,,,,,,,,,,,,,,,,,,,,,,,,,,,,,,,,,,,,,,,,,,,,,,,,,,,,,,,,,,,,,,,,,,,,,,,,,,,,,,,,,,,,,,,,,,,,,,,,,,,
0,30,30,81,1,,60943427c11ddfd172f619e3,62c53a5258c7705bdcbb4b3a,2022-07-06_02h31.56.961,Colour_Asymmetry_Pilot,2022.1.3,Win32,60.21919788,62c50e9c1127f2cd403a315f,,,,,,,,,,,,,,,,,,,,,,,,,,,,,,,,,,,,,,,,,,,,,,,,,,,,,,,,,,,,,,,,,,,,,,,,,,,,,,,,,,,,,,,,,,,,,,,,,,,,,,,,,,,,,,,,,,,,,,,,,,,,,,,,,,,,,,,,,,,,,,,,,,,,,,,,,,,,,,,,,,,
0,31,31,66,1,,60943427c11ddfd172f619e3,62c53a5258c7705bdcbb4b3a,2022-07-06_02h31.56.961,Colour_Asymmetry_Pilot,2022.1.3,Win32,60.21919788,62c50e9c1127f2cd403a315f,,,,,,,,,,,,,,,,,,,,,,,,,,,,,,,,,,,,,,,,,,,,,,,,,,,,,,,,,,,,,,,,,,,,,,,,,,,,,,,,,,,,,,,,,,,,,,,,,,,,,,,,,,,,,,,,,,,,,,,,,,,,,,,,,,,,,,,,,,,,,,,,,,,,,,,,,,,,,,,,,,,
0,32,32,41,1,,60943427c11ddfd172f619e3,62c53a5258c7705bdcbb4b3a,2022-07-06_02h31.56.961,Colour_Asymmetry_Pilot,2022.1.3,Win32,60.21919788,62c50e9c1127f2cd403a315f,,,,,,,,,,,,,,,,,,,,,,,,,,,,,,,,,,,,,,,,,,,,,,,,,,,,,,,,,,,,,,,,,,,,,,,,,,,,,,,,,,,,,,,,,,,,,,,,,,,,,,,,,,,,,,,,,,,,,,,,,,,,,,,,,,,,,,,,,,,,,,,,,,,,,,,,,,,,,,,,,,,
0,33,33,1,1,,60943427c11ddfd172f619e3,62c53a5258c7705bdcbb4b3a,2022-07-06_02h31.56.961,Colour_Asymmetry_Pilot,2022.1.3,Win32,60.21919788,62c50e9c1127f2cd403a315f,,,,,,,,,,,,,,,,,,,,,,,,,,,,,,,,,,,,,,,,,,,,,,,,,,,,,,,,,,,,,,,,,,,,,,,,,,,,,,,,,,,,,,,,,,,,,,,,,,,,,,,,,,,,,,,,,,,,,,,,,,,,,,,,,,,,,,,,,,,,,,,,,,,,,,,,,,,,,,,,,,,
0,34,34,4,1,,60943427c11ddfd172f619e3,62c53a5258c7705bdcbb4b3a,2022-07-06_02h31.56.961,Colour_Asymmetry_Pilot,2022.1.3,Win32,60.21919788,62c50e9c1127f2cd403a315f,,,,,,,,,,,,,,,,,,,,,,,,,,,,,,,,,,,,,,,,,,,,,,,,,,,,,,,,,,,,,,,,,,,,,,,,,,,,,,,,,,,,,,,,,,,,,,,,,,,,,,,,,,,,,,,,,,,,,,,,,,,,,,,,,,,,,,,,,,,,,,,,,,,,,,,,,,,,,,,,,,,
0,35,35,20,1,,60943427c11ddfd172f619e3,62c53a5258c7705bdcbb4b3a,2022-07-06_02h31.56.961,Colour_Asymmetry_Pilot,2022.1.3,Win32,60.21919788,62c50e9c1127f2cd403a315f,,,,,,,,,,,,,,,,,,,,,,,,,,,,,,,,,,,,,,,,,,,,,,,,,,,,,,,,,,,,,,,,,,,,,,,,,,,,,,,,,,,,,,,,,,,,,,,,,,,,,,,,,,,,,,,,,,,,,,,,,,,,,,,,,,,,,,,,,,,,,,,,,,,,,,,,,,,,,,,,,,,
0,36,36,12,1,,60943427c11ddfd172f619e3,62c53a5258c7705bdcbb4b3a,2022-07-06_02h31.56.961,Colour_Asymmetry_Pilot,2022.1.3,Win32,60.21919788,62c50e9c1127f2cd403a315f,,,,,,,,,,,,,,,,,,,,,,,,,,,,,,,,,,,,,,,,,,,,,,,,,,,,,,,,,,,,,,,,,,,,,,,,,,,,,,,,,,,,,,,,,,,,,,,,,,,,,,,,,,,,,,,,,,,,,,,,,,,,,,,,,,,,,,,,,,,,,,,,,,,,,,,,,,,,,,,,,,,
0,37,37,54,1,,60943427c11ddfd172f619e3,62c53a5258c7705bdcbb4b3a,2022-07-06_02h31.56.961,Colour_Asymmetry_Pilot,2022.1.3,Win32,60.21919788,62c50e9c1127f2cd403a315f,,,,,,,,,,,,,,,,,,,,,,,,,,,,,,,,,,,,,,,,,,,,,,,,,,,,,,,,,,,,,,,,,,,,,,,,,,,,,,,,,,,,,,,,,,,,,,,,,,,,,,,,,,,,,,,,,,,,,,,,,,,,,,,,,,,,,,,,,,,,,,,,,,,,,,,,,,,,,,,,,,,
0,38,38,86,1,,60943427c11ddfd172f619e3,62c53a5258c7705bdcbb4b3a,2022-07-06_02h31.56.961,Colour_Asymmetry_Pilot,2022.1.3,Win32,60.21919788,62c50e9c1127f2cd403a315f,,,,,,,,,,,,,,,,,,,,,,,,,,,,,,,,,,,,,,,,,,,,,,,,,,,,,,,,,,,,,,,,,,,,,,,,,,,,,,,,,,,,,,,,,,,,,,,,,,,,,,,,,,,,,,,,,,,,,,,,,,,,,,,,,,,,,,,,,,,,,,,,,,,,,,,,,,,,,,,,,,,
0,39,39,83,1,,60943427c11ddfd172f619e3,62c53a5258c7705bdcbb4b3a,2022-07-06_02h31.56.961,Colour_Asymmetry_Pilot,2022.1.3,Win32,60.21919788,62c50e9c1127f2cd403a315f,,,,,,,,,,,,,,,,,,,,,,,,,,,,,,,,,,,,,,,,,,,,,,,,,,,,,,,,,,,,,,,,,,,,,,,,,,,,,,,,,,,,,,,,,,,,,,,,,,,,,,,,,,,,,,,,,,,,,,,,,,,,,,,,,,,,,,,,,,,,,,,,,,,,,,,,,,,,,,,,,,,
0,40,40,55,1,,60943427c11ddfd172f619e3,62c53a5258c7705bdcbb4b3a,2022-07-06_02h31.56.961,Colour_Asymmetry_Pilot,2022.1.3,Win32,60.21919788,62c50e9c1127f2cd403a315f,,,,,,,,,,,,,,,,,,,,,,,,,,,,,,,,,,,,,,,,,,,,,,,,,,,,,,,,,,,,,,,,,,,,,,,,,,,,,,,,,,,,,,,,,,,,,,,,,,,,,,,,,,,,,,,,,,,,,,,,,,,,,,,,,,,,,,,,,,,,,,,,,,,,,,,,,,,,,,,,,,,
0,41,41,22,1,,60943427c11ddfd172f619e3,62c53a5258c7705bdcbb4b3a,2022-07-06_02h31.56.961,Colour_Asymmetry_Pilot,2022.1.3,Win32,60.21919788,62c50e9c1127f2cd403a315f,,,,,,,,,,,,,,,,,,,,,,,,,,,,,,,,,,,,,,,,,,,,,,,,,,,,,,,,,,,,,,,,,,,,,,,,,,,,,,,,,,,,,,,,,,,,,,,,,,,,,,,,,,,,,,,,,,,,,,,,,,,,,,,,,,,,,,,,,,,,,,,,,,,,,,,,,,,,,,,,,,,
0,42,42,14,1,,60943427c11ddfd172f619e3,62c53a5258c7705bdcbb4b3a,2022-07-06_02h31.56.961,Colour_Asymmetry_Pilot,2022.1.3,Win32,60.21919788,62c50e9c1127f2cd403a315f,,,,,,,,,,,,,,,,,,,,,,,,,,,,,,,,,,,,,,,,,,,,,,,,,,,,,,,,,,,,,,,,,,,,,,,,,,,,,,,,,,,,,,,,,,,,,,,,,,,,,,,,,,,,,,,,,,,,,,,,,,,,,,,,,,,,,,,,,,,,,,,,,,,,,,,,,,,,,,,,,,,
0,43,43,76,1,,60943427c11ddfd172f619e3,62c53a5258c7705bdcbb4b3a,2022-07-06_02h31.56.961,Colour_Asymmetry_Pilot,2022.1.3,Win32,60.21919788,62c50e9c1127f2cd403a315f,,,,,,,,,,,,,,,,,,,,,,,,,,,,,,,,,,,,,,,,,,,,,,,,,,,,,,,,,,,,,,,,,,,,,,,,,,,,,,,,,,,,,,,,,,,,,,,,,,,,,,,,,,,,,,,,,,,,,,,,,,,,,,,,,,,,,,,,,,,,,,,,,,,,,,,,,,,,,,,,,,,
0,44,44,9,1,,60943427c11ddfd172f619e3,62c53a5258c7705bdcbb4b3a,2022-07-06_02h31.56.961,Colour_Asymmetry_Pilot,2022.1.3,Win32,60.21919788,62c50e9c1127f2cd403a315f,,,,,,,,,,,,,,,,,,,,,,,,,,,,,,,,,,,,,,,,,,,,,,,,,,,,,,,,,,,,,,,,,,,,,,,,,,,,,,,,,,,,,,,,,,,,,,,,,,,,,,,,,,,,,,,,,,,,,,,,,,,,,,,,,,,,,,,,,,,,,,,,,,,,,,,,,,,,,,,,,,,
0,45,45,23,1,,60943427c11ddfd172f619e3,62c53a5258c7705bdcbb4b3a,2022-07-06_02h31.56.961,Colour_Asymmetry_Pilot,2022.1.3,Win32,60.21919788,62c50e9c1127f2cd403a315f,,,,,,,,,,,,,,,,,,,,,,,,,,,,,,,,,,,,,,,,,,,,,,,,,,,,,,,,,,,,,,,,,,,,,,,,,,,,,,,,,,,,,,,,,,,,,,,,,,,,,,,,,,,,,,,,,,,,,,,,,,,,,,,,,,,,,,,,,,,,,,,,,,,,,,,,,,,,,,,,,,,
0,46,46,64,1,,60943427c11ddfd172f619e3,62c53a5258c7705bdcbb4b3a,2022-07-06_02h31.56.961,Colour_Asymmetry_Pilot,2022.1.3,Win32,60.21919788,62c50e9c1127f2cd403a315f,,,,,,,,,,,,,,,,,,,,,,,,,,,,,,,,,,,,,,,,,,,,,,,,,,,,,,,,,,,,,,,,,,,,,,,,,,,,,,,,,,,,,,,,,,,,,,,,,,,,,,,,,,,,,,,,,,,,,,,,,,,,,,,,,,,,,,,,,,,,,,,,,,,,,,,,,,,,,,,,,,,
0,47,47,51,1,,60943427c11ddfd172f619e3,62c53a5258c7705bdcbb4b3a,2022-07-06_02h31.56.961,Colour_Asymmetry_Pilot,2022.1.3,Win32,60.21919788,62c50e9c1127f2cd403a315f,,,,,,,,,,,,,,,,,,,,,,,,,,,,,,,,,,,,,,,,,,,,,,,,,,,,,,,,,,,,,,,,,,,,,,,,,,,,,,,,,,,,,,,,,,,,,,,,,,,,,,,,,,,,,,,,,,,,,,,,,,,,,,,,,,,,,,,,,,,,,,,,,,,,,,,,,,,,,,,,,,,
0,48,48,77,1,,60943427c11ddfd172f619e3,62c53a5258c7705bdcbb4b3a,2022-07-06_02h31.56.961,Colour_Asymmetry_Pilot,2022.1.3,Win32,60.21919788,62c50e9c1127f2cd403a315f,,,,,,,,,,,,,,,,,,,,,,,,,,,,,,,,,,,,,,,,,,,,,,,,,,,,,,,,,,,,,,,,,,,,,,,,,,,,,,,,,,,,,,,,,,,,,,,,,,,,,,,,,,,,,,,,,,,,,,,,,,,,,,,,,,,,,,,,,,,,,,,,,,,,,,,,,,,,,,,,,,,
0,49,49,11,1,,60943427c11ddfd172f619e3,62c53a5258c7705bdcbb4b3a,2022-07-06_02h31.56.961,Colour_Asymmetry_Pilot,2022.1.3,Win32,60.21919788,62c50e9c1127f2cd403a315f,,,,,,,,,,,,,,,,,,,,,,,,,,,,,,,,,,,,,,,,,,,,,,,,,,,,,,,,,,,,,,,,,,,,,,,,,,,,,,,,,,,,,,,,,,,,,,,,,,,,,,,,,,,,,,,,,,,,,,,,,,,,,,,,,,,,,,,,,,,,,,,,,,,,,,,,,,,,,,,,,,,
0,50,50,74,1,,60943427c11ddfd172f619e3,62c53a5258c7705bdcbb4b3a,2022-07-06_02h31.56.961,Colour_Asymmetry_Pilot,2022.1.3,Win32,60.21919788,62c50e9c1127f2cd403a315f,,,,,,,,,,,,,,,,,,,,,,,,,,,,,,,,,,,,,,,,,,,,,,,,,,,,,,,,,,,,,,,,,,,,,,,,,,,,,,,,,,,,,,,,,,,,,,,,,,,,,,,,,,,,,,,,,,,,,,,,,,,,,,,,,,,,,,,,,,,,,,,,,,,,,,,,,,,,,,,,,,,
0,51,51,87,1,,60943427c11ddfd172f619e3,62c53a5258c7705bdcbb4b3a,2022-07-06_02h31.56.961,Colour_Asymmetry_Pilot,2022.1.3,Win32,60.21919788,62c50e9c1127f2cd403a315f,,,,,,,,,,,,,,,,,,,,,,,,,,,,,,,,,,,,,,,,,,,,,,,,,,,,,,,,,,,,,,,,,,,,,,,,,,,,,,,,,,,,,,,,,,,,,,,,,,,,,,,,,,,,,,,,,,,,,,,,,,,,,,,,,,,,,,,,,,,,,,,,,,,,,,,,,,,,,,,,,,,
0,52,52,80,1,,60943427c11ddfd172f619e3,62c53a5258c7705bdcbb4b3a,2022-07-06_02h31.56.961,Colour_Asymmetry_Pilot,2022.1.3,Win32,60.21919788,62c50e9c1127f2cd403a315f,,,,,,,,,,,,,,,,,,,,,,,,,,,,,,,,,,,,,,,,,,,,,,,,,,,,,,,,,,,,,,,,,,,,,,,,,,,,,,,,,,,,,,,,,,,,,,,,,,,,,,,,,,,,,,,,,,,,,,,,,,,,,,,,,,,,,,,,,,,,,,,,,,,,,,,,,,,,,,,,,,,
0,53,53,6,1,,60943427c11ddfd172f619e3,62c53a5258c7705bdcbb4b3a,2022-07-06_02h31.56.961,Colour_Asymmetry_Pilot,2022.1.3,Win32,60.21919788,62c50e9c1127f2cd403a315f,,,,,,,,,,,,,,,,,,,,,,,,,,,,,,,,,,,,,,,,,,,,,,,,,,,,,,,,,,,,,,,,,,,,,,,,,,,,,,,,,,,,,,,,,,,,,,,,,,,,,,,,,,,,,,,,,,,,,,,,,,,,,,,,,,,,,,,,,,,,,,,,,,,,,,,,,,,,,,,,,,,
0,54,54,72,1,,60943427c11ddfd172f619e3,62c53a5258c7705bdcbb4b3a,2022-07-06_02h31.56.961,Colour_Asymmetry_Pilot,2022.1.3,Win32,60.21919788,62c50e9c1127f2cd403a315f,,,,,,,,,,,,,,,,,,,,,,,,,,,,,,,,,,,,,,,,,,,,,,,,,,,,,,,,,,,,,,,,,,,,,,,,,,,,,,,,,,,,,,,,,,,,,,,,,,,,,,,,,,,,,,,,,,,,,,,,,,,,,,,,,,,,,,,,,,,,,,,,,,,,,,,,,,,,,,,,,,,
0,55,55,91,1,,60943427c11ddfd172f619e3,62c53a5258c7705bdcbb4b3a,2022-07-06_02h31.56.961,Colour_Asymmetry_Pilot,2022.1.3,Win32,60.21919788,62c50e9c1127f2cd403a315f,,,,,,,,,,,,,,,,,,,,,,,,,,,,,,,,,,,,,,,,,,,,,,,,,,,,,,,,,,,,,,,,,,,,,,,,,,,,,,,,,,,,,,,,,,,,,,,,,,,,,,,,,,,,,,,,,,,,,,,,,,,,,,,,,,,,,,,,,,,,,,,,,,,,,,,,,,,,,,,,,,,
0,56,56,78,1,,60943427c11ddfd172f619e3,62c53a5258c7705bdcbb4b3a,2022-07-06_02h31.56.961,Colour_Asymmetry_Pilot,2022.1.3,Win32,60.21919788,62c50e9c1127f2cd403a315f,,,,,,,,,,,,,,,,,,,,,,,,,,,,,,,,,,,,,,,,,,,,,,,,,,,,,,,,,,,,,,,,,,,,,,,,,,,,,,,,,,,,,,,,,,,,,,,,,,,,,,,,,,,,,,,,,,,,,,,,,,,,,,,,,,,,,,,,,,,,,,,,,,,,,,,,,,,,,,,,,,,
0,57,57,71,1,,60943427c11ddfd172f619e3,62c53a5258c7705bdcbb4b3a,2022-07-06_02h31.56.961,Colour_Asymmetry_Pilot,2022.1.3,Win32,60.21919788,62c50e9c1127f2cd403a315f,,,,,,,,,,,,,,,,,,,,,,,,,,,,,,,,,,,,,,,,,,,,,,,,,,,,,,,,,,,,,,,,,,,,,,,,,,,,,,,,,,,,,,,,,,,,,,,,,,,,,,,,,,,,,,,,,,,,,,,,,,,,,,,,,,,,,,,,,,,,,,,,,,,,,,,,,,,,,,,,,,,
0,58,58,85,1,,60943427c11ddfd172f619e3,62c53a5258c7705bdcbb4b3a,2022-07-06_02h31.56.961,Colour_Asymmetry_Pilot,2022.1.3,Win32,60.21919788,62c50e9c1127f2cd403a315f,,,,,,,,,,,,,,,,,,,,,,,,,,,,,,,,,,,,,,,,,,,,,,,,,,,,,,,,,,,,,,,,,,,,,,,,,,,,,,,,,,,,,,,,,,,,,,,,,,,,,,,,,,,,,,,,,,,,,,,,,,,,,,,,,,,,,,,,,,,,,,,,,,,,,,,,,,,,,,,,,,,
0,59,59,7,1,,60943427c11ddfd172f619e3,62c53a5258c7705bdcbb4b3a,2022-07-06_02h31.56.961,Colour_Asymmetry_Pilot,2022.1.3,Win32,60.21919788,62c50e9c1127f2cd403a315f,,,,,,,,,,,,,,,,,,,,,,,,,,,,,,,,,,,,,,,,,,,,,,,,,,,,,,,,,,,,,,,,,,,,,,,,,,,,,,,,,,,,,,,,,,,,,,,,,,,,,,,,,,,,,,,,,,,,,,,,,,,,,,,,,,,,,,,,,,,,,,,,,,,,,,,,,,,,,,,,,,,
0,60,60,62,1,,60943427c11ddfd172f619e3,62c53a5258c7705bdcbb4b3a,2022-07-06_02h31.56.961,Colour_Asymmetry_Pilot,2022.1.3,Win32,60.21919788,62c50e9c1127f2cd403a315f,,,,,,,,,,,,,,,,,,,,,,,,,,,,,,,,,,,,,,,,,,,,,,,,,,,,,,,,,,,,,,,,,,,,,,,,,,,,,,,,,,,,,,,,,,,,,,,,,,,,,,,,,,,,,,,,,,,,,,,,,,,,,,,,,,,,,,,,,,,,,,,,,,,,,,,,,,,,,,,,,,,
0,61,61,32,1,,60943427c11ddfd172f619e3,62c53a5258c7705bdcbb4b3a,2022-07-06_02h31.56.961,Colour_Asymmetry_Pilot,2022.1.3,Win32,60.21919788,62c50e9c1127f2cd403a315f,,,,,,,,,,,,,,,,,,,,,,,,,,,,,,,,,,,,,,,,,,,,,,,,,,,,,,,,,,,,,,,,,,,,,,,,,,,,,,,,,,,,,,,,,,,,,,,,,,,,,,,,,,,,,,,,,,,,,,,,,,,,,,,,,,,,,,,,,,,,,,,,,,,,,,,,,,,,,,,,,,,
0,62,62,50,1,,60943427c11ddfd172f619e3,62c53a5258c7705bdcbb4b3a,2022-07-06_02h31.56.961,Colour_Asymmetry_Pilot,2022.1.3,Win32,60.21919788,62c50e9c1127f2cd403a315f,,,,,,,,,,,,,,,,,,,,,,,,,,,,,,,,,,,,,,,,,,,,,,,,,,,,,,,,,,,,,,,,,,,,,,,,,,,,,,,,,,,,,,,,,,,,,,,,,,,,,,,,,,,,,,,,,,,,,,,,,,,,,,,,,,,,,,,,,,,,,,,,,,,,,,,,,,,,,,,,,,,
0,63,63,79,1,,60943427c11ddfd172f619e3,62c53a5258c7705bdcbb4b3a,2022-07-06_02h31.56.961,Colour_Asymmetry_Pilot,2022.1.3,Win32,60.21919788,62c50e9c1127f2cd403a315f,,,,,,,,,,,,,,,,,,,,,,,,,,,,,,,,,,,,,,,,,,,,,,,,,,,,,,,,,,,,,,,,,,,,,,,,,,,,,,,,,,,,,,,,,,,,,,,,,,,,,,,,,,,,,,,,,,,,,,,,,,,,,,,,,,,,,,,,,,,,,,,,,,,,,,,,,,,,,,,,,,,
0,64,64,27,1,,60943427c11ddfd172f619e3,62c53a5258c7705bdcbb4b3a,2022-07-06_02h31.56.961,Colour_Asymmetry_Pilot,2022.1.3,Win32,60.21919788,62c50e9c1127f2cd403a315f,,,,,,,,,,,,,,,,,,,,,,,,,,,,,,,,,,,,,,,,,,,,,,,,,,,,,,,,,,,,,,,,,,,,,,,,,,,,,,,,,,,,,,,,,,,,,,,,,,,,,,,,,,,,,,,,,,,,,,,,,,,,,,,,,,,,,,,,,,,,,,,,,,,,,,,,,,,,,,,,,,,
0,65,65,0,1,,60943427c11ddfd172f619e3,62c53a5258c7705bdcbb4b3a,2022-07-06_02h31.56.961,Colour_Asymmetry_Pilot,2022.1.3,Win32,60.21919788,62c50e9c1127f2cd403a315f,,,,,,,,,,,,,,,,,,,,,,,,,,,,,,,,,,,,,,,,,,,,,,,,,,,,,,,,,,,,,,,,,,,,,,,,,,,,,,,,,,,,,,,,,,,,,,,,,,,,,,,,,,,,,,,,,,,,,,,,,,,,,,,,,,,,,,,,,,,,,,,,,,,,,,,,,,,,,,,,,,,
0,66,66,40,1,,60943427c11ddfd172f619e3,62c53a5258c7705bdcbb4b3a,2022-07-06_02h31.56.961,Colour_Asymmetry_Pilot,2022.1.3,Win32,60.21919788,62c50e9c1127f2cd403a315f,,,,,,,,,,,,,,,,,,,,,,,,,,,,,,,,,,,,,,,,,,,,,,,,,,,,,,,,,,,,,,,,,,,,,,,,,,,,,,,,,,,,,,,,,,,,,,,,,,,,,,,,,,,,,,,,,,,,,,,,,,,,,,,,,,,,,,,,,,,,,,,,,,,,,,,,,,,,,,,,,,,
0,67,67,44,1,,60943427c11ddfd172f619e3,62c53a5258c7705bdcbb4b3a,2022-07-06_02h31.56.961,Colour_Asymmetry_Pilot,2022.1.3,Win32,60.21919788,62c50e9c1127f2cd403a315f,,,,,,,,,,,,,,,,,,,,,,,,,,,,,,,,,,,,,,,,,,,,,,,,,,,,,,,,,,,,,,,,,,,,,,,,,,,,,,,,,,,,,,,,,,,,,,,,,,,,,,,,,,,,,,,,,,,,,,,,,,,,,,,,,,,,,,,,,,,,,,,,,,,,,,,,,,,,,,,,,,,
0,68,68,46,1,,60943427c11ddfd172f619e3,62c53a5258c7705bdcbb4b3a,2022-07-06_02h31.56.961,Colour_Asymmetry_Pilot,2022.1.3,Win32,60.21919788,62c50e9c1127f2cd403a315f,,,,,,,,,,,,,,,,,,,,,,,,,,,,,,,,,,,,,,,,,,,,,,,,,,,,,,,,,,,,,,,,,,,,,,,,,,,,,,,,,,,,,,,,,,,,,,,,,,,,,,,,,,,,,,,,,,,,,,,,,,,,,,,,,,,,,,,,,,,,,,,,,,,,,,,,,,,,,,,,,,,
0,69,69,5,1,,60943427c11ddfd172f619e3,62c53a5258c7705bdcbb4b3a,2022-07-06_02h31.56.961,Colour_Asymmetry_Pilot,2022.1.3,Win32,60.21919788,62c50e9c1127f2cd403a315f,,,,,,,,,,,,,,,,,,,,,,,,,,,,,,,,,,,,,,,,,,,,,,,,,,,,,,,,,,,,,,,,,,,,,,,,,,,,,,,,,,,,,,,,,,,,,,,,,,,,,,,,,,,,,,,,,,,,,,,,,,,,,,,,,,,,,,,,,,,,,,,,,,,,,,,,,,,,,,,,,,,
0,70,70,89,1,,60943427c11ddfd172f619e3,62c53a5258c7705bdcbb4b3a,2022-07-06_02h31.56.961,Colour_Asymmetry_Pilot,2022.1.3,Win32,60.21919788,62c50e9c1127f2cd403a315f,,,,,,,,,,,,,,,,,,,,,,,,,,,,,,,,,,,,,,,,,,,,,,,,,,,,,,,,,,,,,,,,,,,,,,,,,,,,,,,,,,,,,,,,,,,,,,,,,,,,,,,,,,,,,,,,,,,,,,,,,,,,,,,,,,,,,,,,,,,,,,,,,,,,,,,,,,,,,,,,,,,
0,71,71,26,1,,60943427c11ddfd172f619e3,62c53a5258c7705bdcbb4b3a,2022-07-06_02h31.56.961,Colour_Asymmetry_Pilot,2022.1.3,Win32,60.21919788,62c50e9c1127f2cd403a315f,,,,,,,,,,,,,,,,,,,,,,,,,,,,,,,,,,,,,,,,,,,,,,,,,,,,,,,,,,,,,,,,,,,,,,,,,,,,,,,,,,,,,,,,,,,,,,,,,,,,,,,,,,,,,,,,,,,,,,,,,,,,,,,,,,,,,,,,,,,,,,,,,,,,,,,,,,,,,,,,,,,
0,72,72,36,1,,60943427c11ddfd172f619e3,62c53a5258c7705bdcbb4b3a,2022-07-06_02h31.56.961,Colour_Asymmetry_Pilot,2022.1.3,Win32,60.21919788,62c50e9c1127f2cd403a315f,,,,,,,,,,,,,,,,,,,,,,,,,,,,,,,,,,,,,,,,,,,,,,,,,,,,,,,,,,,,,,,,,,,,,,,,,,,,,,,,,,,,,,,,,,,,,,,,,,,,,,,,,,,,,,,,,,,,,,,,,,,,,,,,,,,,,,,,,,,,,,,,,,,,,,,,,,,,,,,,,,,
0,73,73,34,1,,60943427c11ddfd172f619e3,62c53a5258c7705bdcbb4b3a,2022-07-06_02h31.56.961,Colour_Asymmetry_Pilot,2022.1.3,Win32,60.21919788,62c50e9c1127f2cd403a315f,,,,,,,,,,,,,,,,,,,,,,,,,,,,,,,,,,,,,,,,,,,,,,,,,,,,,,,,,,,,,,,,,,,,,,,,,,,,,,,,,,,,,,,,,,,,,,,,,,,,,,,,,,,,,,,,,,,,,,,,,,,,,,,,,,,,,,,,,,,,,,,,,,,,,,,,,,,,,,,,,,,
0,74,74,60,1,,60943427c11ddfd172f619e3,62c53a5258c7705bdcbb4b3a,2022-07-06_02h31.56.961,Colour_Asymmetry_Pilot,2022.1.3,Win32,60.21919788,62c50e9c1127f2cd403a315f,,,,,,,,,,,,,,,,,,,,,,,,,,,,,,,,,,,,,,,,,,,,,,,,,,,,,,,,,,,,,,,,,,,,,,,,,,,,,,,,,,,,,,,,,,,,,,,,,,,,,,,,,,,,,,,,,,,,,,,,,,,,,,,,,,,,,,,,,,,,,,,,,,,,,,,,,,,,,,,,,,,
0,75,75,25,1,,60943427c11ddfd172f619e3,62c53a5258c7705bdcbb4b3a,2022-07-06_02h31.56.961,Colour_Asymmetry_Pilot,2022.1.3,Win32,60.21919788,62c50e9c1127f2cd403a315f,,,,,,,,,,,,,,,,,,,,,,,,,,,,,,,,,,,,,,,,,,,,,,,,,,,,,,,,,,,,,,,,,,,,,,,,,,,,,,,,,,,,,,,,,,,,,,,,,,,,,,,,,,,,,,,,,,,,,,,,,,,,,,,,,,,,,,,,,,,,,,,,,,,,,,,,,,,,,,,,,,,
0,76,76,69,1,,60943427c11ddfd172f619e3,62c53a5258c7705bdcbb4b3a,2022-07-06_02h31.56.961,Colour_Asymmetry_Pilot,2022.1.3,Win32,60.21919788,62c50e9c1127f2cd403a315f,,,,,,,,,,,,,,,,,,,,,,,,,,,,,,,,,,,,,,,,,,,,,,,,,,,,,,,,,,,,,,,,,,,,,,,,,,,,,,,,,,,,,,,,,,,,,,,,,,,,,,,,,,,,,,,,,,,,,,,,,,,,,,,,,,,,,,,,,,,,,,,,,,,,,,,,,,,,,,,,,,,
0,77,77,2,1,,60943427c11ddfd172f619e3,62c53a5258c7705bdcbb4b3a,2022-07-06_02h31.56.961,Colour_Asymmetry_Pilot,2022.1.3,Win32,60.21919788,62c50e9c1127f2cd403a315f,,,,,,,,,,,,,,,,,,,,,,,,,,,,,,,,,,,,,,,,,,,,,,,,,,,,,,,,,,,,,,,,,,,,,,,,,,,,,,,,,,,,,,,,,,,,,,,,,,,,,,,,,,,,,,,,,,,,,,,,,,,,,,,,,,,,,,,,,,,,,,,,,,,,,,,,,,,,,,,,,,,
0,78,78,3,1,,60943427c11ddfd172f619e3,62c53a5258c7705bdcbb4b3a,2022-07-06_02h31.56.961,Colour_Asymmetry_Pilot,2022.1.3,Win32,60.21919788,62c50e9c1127f2cd403a315f,,,,,,,,,,,,,,,,,,,,,,,,,,,,,,,,,,,,,,,,,,,,,,,,,,,,,,,,,,,,,,,,,,,,,,,,,,,,,,,,,,,,,,,,,,,,,,,,,,,,,,,,,,,,,,,,,,,,,,,,,,,,,,,,,,,,,,,,,,,,,,,,,,,,,,,,,,,,,,,,,,,
0,79,79,70,1,,60943427c11ddfd172f619e3,62c53a5258c7705bdcbb4b3a,2022-07-06_02h31.56.961,Colour_Asymmetry_Pilot,2022.1.3,Win32,60.21919788,62c50e9c1127f2cd403a315f,,,,,,,,,,,,,,,,,,,,,,,,,,,,,,,,,,,,,,,,,,,,,,,,,,,,,,,,,,,,,,,,,,,,,,,,,,,,,,,,,,,,,,,,,,,,,,,,,,,,,,,,,,,,,,,,,,,,,,,,,,,,,,,,,,,,,,,,,,,,,,,,,,,,,,,,,,,,,,,,,,,
0,80,80,88,1,,60943427c11ddfd172f619e3,62c53a5258c7705bdcbb4b3a,2022-07-06_02h31.56.961,Colour_Asymmetry_Pilot,2022.1.3,Win32,60.21919788,62c50e9c1127f2cd403a315f,,,,,,,,,,,,,,,,,,,,,,,,,,,,,,,,,,,,,,,,,,,,,,,,,,,,,,,,,,,,,,,,,,,,,,,,,,,,,,,,,,,,,,,,,,,,,,,,,,,,,,,,,,,,,,,,,,,,,,,,,,,,,,,,,,,,,,,,,,,,,,,,,,,,,,,,,,,,,,,,,,,
0,81,81,29,1,,60943427c11ddfd172f619e3,62c53a5258c7705bdcbb4b3a,2022-07-06_02h31.56.961,Colour_Asymmetry_Pilot,2022.1.3,Win32,60.21919788,62c50e9c1127f2cd403a315f,,,,,,,,,,,,,,,,,,,,,,,,,,,,,,,,,,,,,,,,,,,,,,,,,,,,,,,,,,,,,,,,,,,,,,,,,,,,,,,,,,,,,,,,,,,,,,,,,,,,,,,,,,,,,,,,,,,,,,,,,,,,,,,,,,,,,,,,,,,,,,,,,,,,,,,,,,,,,,,,,,,
0,82,82,90,1,,60943427c11ddfd172f619e3,62c53a5258c7705bdcbb4b3a,2022-07-06_02h31.56.961,Colour_Asymmetry_Pilot,2022.1.3,Win32,60.21919788,62c50e9c1127f2cd403a315f,,,,,,,,,,,,,,,,,,,,,,,,,,,,,,,,,,,,,,,,,,,,,,,,,,,,,,,,,,,,,,,,,,,,,,,,,,,,,,,,,,,,,,,,,,,,,,,,,,,,,,,,,,,,,,,,,,,,,,,,,,,,,,,,,,,,,,,,,,,,,,,,,,,,,,,,,,,,,,,,,,,
0,83,83,48,1,,60943427c11ddfd172f619e3,62c53a5258c7705bdcbb4b3a,2022-07-06_02h31.56.961,Colour_Asymmetry_Pilot,2022.1.3,Win32,60.21919788,62c50e9c1127f2cd403a315f,,,,,,,,,,,,,,,,,,,,,,,,,,,,,,,,,,,,,,,,,,,,,,,,,,,,,,,,,,,,,,,,,,,,,,,,,,,,,,,,,,,,,,,,,,,,,,,,,,,,,,,,,,,,,,,,,,,,,,,,,,,,,,,,,,,,,,,,,,,,,,,,,,,,,,,,,,,,,,,,,,,
0,84,84,33,1,,60943427c11ddfd172f619e3,62c53a5258c7705bdcbb4b3a,2022-07-06_02h31.56.961,Colour_Asymmetry_Pilot,2022.1.3,Win32,60.21919788,62c50e9c1127f2cd403a315f,,,,,,,,,,,,,,,,,,,,,,,,,,,,,,,,,,,,,,,,,,,,,,,,,,,,,,,,,,,,,,,,,,,,,,,,,,,,,,,,,,,,,,,,,,,,,,,,,,,,,,,,,,,,,,,,,,,,,,,,,,,,,,,,,,,,,,,,,,,,,,,,,,,,,,,,,,,,,,,,,,,
0,85,85,42,1,,60943427c11ddfd172f619e3,62c53a5258c7705bdcbb4b3a,2022-07-06_02h31.56.961,Colour_Asymmetry_Pilot,2022.1.3,Win32,60.21919788,62c50e9c1127f2cd403a315f,,,,,,,,,,,,,,,,,,,,,,,,,,,,,,,,,,,,,,,,,,,,,,,,,,,,,,,,,,,,,,,,,,,,,,,,,,,,,,,,,,,,,,,,,,,,,,,,,,,,,,,,,,,,,,,,,,,,,,,,,,,,,,,,,,,,,,,,,,,,,,,,,,,,,,,,,,,,,,,,,,,
0,86,86,68,1,,60943427c11ddfd172f619e3,62c53a5258c7705bdcbb4b3a,2022-07-06_02h31.56.961,Colour_Asymmetry_Pilot,2022.1.3,Win32,60.21919788,62c50e9c1127f2cd403a315f,,,,,,,,,,,,,,,,,,,,,,,,,,,,,,,,,,,,,,,,,,,,,,,,,,,,,,,,,,,,,,,,,,,,,,,,,,,,,,,,,,,,,,,,,,,,,,,,,,,,,,,,,,,,,,,,,,,,,,,,,,,,,,,,,,,,,,,,,,,,,,,,,,,,,,,,,,,,,,,,,,,
0,87,87,38,1,,60943427c11ddfd172f619e3,62c53a5258c7705bdcbb4b3a,2022-07-06_02h31.56.961,Colour_Asymmetry_Pilot,2022.1.3,Win32,60.21919788,62c50e9c1127f2cd403a315f,,,,,,,,,,,,,,,,,,,,,,,,,,,,,,,,,,,,,,,,,,,,,,,,,,,,,,,,,,,,,,,,,,,,,,,,,,,,,,,,,,,,,,,,,,,,,,,,,,,,,,,,,,,,,,,,,,,,,,,,,,,,,,,,,,,,,,,,,,,,,,,,,,,,,,,,,,,,,,,,,,,
0,88,88,35,1,,60943427c11ddfd172f619e3,62c53a5258c7705bdcbb4b3a,2022-07-06_02h31.56.961,Colour_Asymmetry_Pilot,2022.1.3,Win32,60.21919788,62c50e9c1127f2cd403a315f,,,,,,,,,,,,,,,,,,,,,,,,,,,,,,,,,,,,,,,,,,,,,,,,,,,,,,,,,,,,,,,,,,,,,,,,,,,,,,,,,,,,,,,,,,,,,,,,,,,,,,,,,,,,,,,,,,,,,,,,,,,,,,,,,,,,,,,,,,,,,,,,,,,,,,,,,,,,,,,,,,,
0,89,89,45,1,,60943427c11ddfd172f619e3,62c53a5258c7705bdcbb4b3a,2022-07-06_02h31.56.961,Colour_Asymmetry_Pilot,2022.1.3,Win32,60.21919788,62c50e9c1127f2cd403a315f,,,,,,,,,,,,,,,,,,,,,,,,,,,,,,,,,,,,,,,,,,,,,,,,,,,,,,,,,,,,,,,,,,,,,,,,,,,,,,,,,,,,,,,,,,,,,,,,,,,,,,,,,,,,,,,,,,,,,,,,,,,,,,,,,,,,,,,,,,,,,,,,,,,,,,,,,,,,,,,,,,,
0,90,90,56,1,,60943427c11ddfd172f619e3,62c53a5258c7705bdcbb4b3a,2022-07-06_02h31.56.961,Colour_Asymmetry_Pilot,2022.1.3,Win32,60.21919788,62c50e9c1127f2cd403a315f,,,,,,,,,,,,,,,,,,,,,,,,,,,,,,,,,,,,,,,,,,,,,,,,,,,,,,,,,,,,,,,,,,,,,,,,,,,,,,,,,,,,,,,,,,,,,,,,,,,,,,,,,,,,,,,,,,,,,,,,,,,,,,,,,,,,,,,,,,,,,,,,,,,,,,,,,,,,,,,,,,,
0,91,91,63,1,,60943427c11ddfd172f619e3,62c53a5258c7705bdcbb4b3a,2022-07-06_02h31.56.961,Colour_Asymmetry_Pilot,2022.1.3,Win32,60.21919788,62c50e9c1127f2cd403a315f,,,,,,,,,,,,,,,,,,,,,,,,,,,,,,,,,,,,,,,,,,,,,,,,,,,,,,,,,,,,,,,,,,,,,,,,,,,,,,,,,,,,,,,,,,,,,,,,,,,,,,,,,,,,,,,,,,,,,,,,,,,,,,,,,,,,,,,,,,,,,,,,,,,,,,,,,,,,,,,,,,,
0,92,92,92,1,,60943427c11ddfd172f619e3,62c53a5258c7705bdcbb4b3a,2022-07-06_02h31.56.961,Colour_Asymmetry_Pilot,2022.1.3,Win32,60.21919788,62c50e9c1127f2cd403a315f,,,,,,,,,,,,,,,,,,,,,,,,,,,,,,,,,,,,,,,,,,,,,,,,,,,,,,,,,,,,,,,,,,,,,,,,,,,,,,,,,,,,,,,,,,,,,,,,,,,,,,,,,,,,,,,,,,,,,,,,,,,,,,,,,,,,,,,,,,,,,,,,,,,,,,,,,,,,,,,,,,,
,,,,,,60943427c11ddfd172f619e3,62c53a5258c7705bdcbb4b3a,2022-07-06_02h31.56.961,Colour_Asymmetry_Pilot,2022.1.3,Win32,60.21919788,62c50e9c1127f2cd403a315f,0,0,0,55,1,fourthree,,,,,,,,,,,,,,,,,,,,,,,,,,,,,,,,,,,,,,,,,,,,,,,,,,,,,,,,,,,,,,,,,,,,,,,,,,,,,,,,,,,,,,,,,,,,,,,,,,,,,,,,,,,,,,,,,,,,,,,,,,,,,,,,,,,,,,,,,,,,,,,,,,,,,,,,,,,,,
,,,,,,60943427c11ddfd172f619e3,62c53a5258c7705bdcbb4b3a,2022-07-06_02h31.56.961,Colour_Asymmetry_Pilot,2022.1.3,Win32,60.21919788,62c50e9c1127f2cd403a315f,0,1,1,5,1,threefour,,,,,,,,,,,,,,,,,,,,,,,,,,,,,,,,,,,,,,,,,,,,,,,,,,,,,,,,,,,,,,,,,,,,,,,,,,,,,,,,,,,,,,,,,,,,,,,,,,,,,,,,,,,,,,,,,,,,,,,,,,,,,,,,,,,,,,,,,,,,,,,,,,,,,,,,,,,,,
,,,,,,60943427c11ddfd172f619e3,62c53a5258c7705bdcbb4b3a,2022-07-06_02h31.56.961,Colour_Asymmetry_Pilot,2022.1.3,Win32,60.21919788,62c50e9c1127f2cd403a315f,0,2,2,157,1,threefour,,,,,,,,,,,,,,,,,,,,,,,,,,,,,,,,,,,,,,,,,,,,,,,,,,,,,,,,,,,,,,,,,,,,,,,,,,,,,,,,,,,,,,,,,,,,,,,,,,,,,,,,,,,,,,,,,,,,,,,,,,,,,,,,,,,,,,,,,,,,,,,,,,,,,,,,,,,,,
,,,,,,60943427c11ddfd172f619e3,62c53a5258c7705bdcbb4b3a,2022-07-06_02h31.56.961,Colour_Asymmetry_Pilot,2022.1.3,Win32,60.21919788,62c50e9c1127f2cd403a315f,0,3,3,158,1,fourtwo,,,,,,,,,,,,,,,,,,,,,,,,,,,,,,,,,,,,,,,,,,,,,,,,,,,,,,,,,,,,,,,,,,,,,,,,,,,,,,,,,,,,,,,,,,,,,,,,,,,,,,,,,,,,,,,,,,,,,,,,,,,,,,,,,,,,,,,,,,,,,,,,,,,,,,,,,,,,,
,,,,,,60943427c11ddfd172f619e3,62c53a5258c7705bdcbb4b3a,2022-07-06_02h31.56.961,Colour_Asymmetry_Pilot,2022.1.3,Win32,60.21919788,62c50e9c1127f2cd403a315f,0,4,4,143,1,fourthree,,,,,,,,,,,,,,,,,,,,,,,,,,,,,,,,,,,,,,,,,,,,,,,,,,,,,,,,,,,,,,,,,,,,,,,,,,,,,,,,,,,,,,,,,,,,,,,,,,,,,,,,,,,,,,,,,,,,,,,,,,,,,,,,,,,,,,,,,,,,,,,,,,,,,,,,,,,,,
,,,,,,60943427c11ddfd172f619e3,62c53a5258c7705bdcbb4b3a,2022-07-06_02h31.56.961,Colour_Asymmetry_Pilot,2022.1.3,Win32,60.21919788,62c50e9c1127f2cd403a315f,0,5,5,58,1,twoone,,,,,,,,,,,,,,,,,,,,,,,,,,,,,,,,,,,,,,,,,,,,,,,,,,,,,,,,,,,,,,,,,,,,,,,,,,,,,,,,,,,,,,,,,,,,,,,,,,,,,,,,,,,,,,,,,,,,,,,,,,,,,,,,,,,,,,,,,,,,,,,,,,,,,,,,,,,,,
,,,,,,60943427c11ddfd172f619e3,62c53a5258c7705bdcbb4b3a,2022-07-06_02h31.56.961,Colour_Asymmetry_Pilot,2022.1.3,Win32,60.21919788,62c50e9c1127f2cd403a315f,0,6,6,69,1,threefour,,,,,,,,,,,,,,,,,,,,,,,,,,,,,,,,,,,,,,,,,,,,,,,,,,,,,,,,,,,,,,,,,,,,,,,,,,,,,,,,,,,,,,,,,,,,,,,,,,,,,,,,,,,,,,,,,,,,,,,,,,,,,,,,,,,,,,,,,,,,,,,,,,,,,,,,,,,,,
,,,,,,60943427c11ddfd172f619e3,62c53a5258c7705bdcbb4b3a,2022-07-06_02h31.56.961,Colour_Asymmetry_Pilot,2022.1.3,Win32,60.21919788,62c50e9c1127f2cd403a315f,0,7,7,52,1,threeone,,,,,,,,,,,,,,,,,,,,,,,,,,,,,,,,,,,,,,,,,,,,,,,,,,,,,,,,,,,,,,,,,,,,,,,,,,,,,,,,,,,,,,,,,,,,,,,,,,,,,,,,,,,,,,,,,,,,,,,,,,,,,,,,,,,,,,,,,,,,,,,,,,,,,,,,,,,,,
,,,,,,60943427c11ddfd172f619e3,62c53a5258c7705bdcbb4b3a,2022-07-06_02h31.56.961,Colour_Asymmetry_Pilot,2022.1.3,Win32,60.21919788,62c50e9c1127f2cd403a315f,0,8,8,7,1,fourthree,,,,,,,,,,,,,,,,,,,,,,,,,,,,,,,,,,,,,,,,,,,,,,,,,,,,,,,,,,,,,,,,,,,,,,,,,,,,,,,,,,,,,,,,,,,,,,,,,,,,,,,,,,,,,,,,,,,,,,,,,,,,,,,,,,,,,,,,,,,,,,,,,,,,,,,,,,,,,
,,,,,,60943427c11ddfd172f619e3,62c53a5258c7705bdcbb4b3a,2022-07-06_02h31.56.961,Colour_Asymmetry_Pilot,2022.1.3,Win32,60.21919788,62c50e9c1127f2cd403a315f,0,9,9,41,1,onethree,,,,,,,,,,,,,,,,,,,,,,,,,,,,,,,,,,,,,,,,,,,,,,,,,,,,,,,,,,,,,,,,,,,,,,,,,,,,,,,,,,,,,,,,,,,,,,,,,,,,,,,,,,,,,,,,,,,,,,,,,,,,,,,,,,,,,,,,,,,,,,,,,,,,,,,,,,,,,
,,,,,,60943427c11ddfd172f619e3,62c53a5258c7705bdcbb4b3a,2022-07-06_02h31.56.961,Colour_Asymmetry_Pilot,2022.1.3,Win32,60.21919788,62c50e9c1127f2cd403a315f,0,10,10,118,1,fourtwo,,,,,,,,,,,,,,,,,,,,,,,,,,,,,,,,,,,,,,,,,,,,,,,,,,,,,,,,,,,,,,,,,,,,,,,,,,,,,,,,,,,,,,,,,,,,,,,,,,,,,,,,,,,,,,,,,,,,,,,,,,,,,,,,,,,,,,,,,,,,,,,,,,,,,,,,,,,,,
,,,,,,60943427c11ddfd172f619e3,62c53a5258c7705bdcbb4b3a,2022-07-06_02h31.56.961,Colour_Asymmetry_Pilot,2022.1.3,Win32,60.21919788,62c50e9c1127f2cd403a315f,0,11,11,134,1,fourtwo,,,,,,,,,,,,,,,,,,,,,,,,,,,,,,,,,,,,,,,,,,,,,,,,,,,,,,,,,,,,,,,,,,,,,,,,,,,,,,,,,,,,,,,,,,,,,,,,,,,,,,,,,,,,,,,,,,,,,,,,,,,,,,,,,,,,,,,,,,,,,,,,,,,,,,,,,,,,,
,,,,,,60943427c11ddfd172f619e3,62c53a5258c7705bdcbb4b3a,2022-07-06_02h31.56.961,Colour_Asymmetry_Pilot,2022.1.3,Win32,60.21919788,62c50e9c1127f2cd403a315f,0,12,12,147,1,twofour,,,,,,,,,,,,,,,,,,,,,,,,,,,,,,,,,,,,,,,,,,,,,,,,,,,,,,,,,,,,,,,,,,,,,,,,,,,,,,,,,,,,,,,,,,,,,,,,,,,,,,,,,,,,,,,,,,,,,,,,,,,,,,,,,,,,,,,,,,,,,,,,,,,,,,,,,,,,,
,,,,,,60943427c11ddfd172f619e3,62c53a5258c7705bdcbb4b3a,2022-07-06_02h31.56.961,Colour_Asymmetry_Pilot,2022.1.3,Win32,60.21919788,62c50e9c1127f2cd403a315f,0,13,13,126,1,fourtwo,,,,,,,,,,,,,,,,,,,,,,,,,,,,,,,,,,,,,,,,,,,,,,,,,,,,,,,,,,,,,,,,,,,,,,,,,,,,,,,,,,,,,,,,,,,,,,,,,,,,,,,,,,,,,,,,,,,,,,,,,,,,,,,,,,,,,,,,,,,,,,,,,,,,,,,,,,,,,
,,,,,,60943427c11ddfd172f619e3,62c53a5258c7705bdcbb4b3a,2022-07-06_02h31.56.961,Colour_Asymmetry_Pilot,2022.1.3,Win32,60.21919788,62c50e9c1127f2cd403a315f,0,14,14,54,1,fourtwo,,,,,,,,,,,,,,,,,,,,,,,,,,,,,,,,,,,,,,,,,,,,,,,,,,,,,,,,,,,,,,,,,,,,,,,,,,,,,,,,,,,,,,,,,,,,,,,,,,,,,,,,,,,,,,,,,,,,,,,,,,,,,,,,,,,,,,,,,,,,,,,,,,,,,,,,,,,,,
,,,,,,60943427c11ddfd172f619e3,62c53a5258c7705bdcbb4b3a,2022-07-06_02h31.56.961,Colour_Asymmetry_Pilot,2022.1.3,Win32,60.21919788,62c50e9c1127f2cd403a315f,0,15,15,136,1,onetwo,,,,,,,,,,,,,,,,,,,,,,,,,,,,,,,,,,,,,,,,,,,,,,,,,,,,,,,,,,,,,,,,,,,,,,,,,,,,,,,,,,,,,,,,,,,,,,,,,,,,,,,,,,,,,,,,,,,,,,,,,,,,,,,,,,,,,,,,,,,,,,,,,,,,,,,,,,,,,
,,,,,,60943427c11ddfd172f619e3,62c53a5258c7705bdcbb4b3a,2022-07-06_02h31.56.961,Colour_Asymmetry_Pilot,2022.1.3,Win32,60.21919788,62c50e9c1127f2cd403a315f,0,16,16,68,1,threeone,,,,,,,,,,,,,,,,,,,,,,,,,,,,,,,,,,,,,,,,,,,,,,,,,,,,,,,,,,,,,,,,,,,,,,,,,,,,,,,,,,,,,,,,,,,,,,,,,,,,,,,,,,,,,,,,,,,,,,,,,,,,,,,,,,,,,,,,,,,,,,,,,,,,,,,,,,,,,
,,,,,,60943427c11ddfd172f619e3,62c53a5258c7705bdcbb4b3a,2022-07-06_02h31.56.961,Colour_Asymmetry_Pilot,2022.1.3,Win32,60.21919788,62c50e9c1127f2cd403a315f,0,17,17,101,1,threefour,,,,,,,,,,,,,,,,,,,,,,,,,,,,,,,,,,,,,,,,,,,,,,,,,,,,,,,,,,,,,,,,,,,,,,,,,,,,,,,,,,,,,,,,,,,,,,,,,,,,,,,,,,,,,,,,,,,,,,,,,,,,,,,,,,,,,,,,,,,,,,,,,,,,,,,,,,,,,
,,,,,,60943427c11ddfd172f619e3,62c53a5258c7705bdcbb4b3a,2022-07-06_02h31.56.961,Colour_Asymmetry_Pilot,2022.1.3,Win32,60.21919788,62c50e9c1127f2cd403a315f,0,18,18,9,1,onethree,,,,,,,,,,,,,,,,,,,,,,,,,,,,,,,,,,,,,,,,,,,,,,,,,,,,,,,,,,,,,,,,,,,,,,,,,,,,,,,,,,,,,,,,,,,,,,,,,,,,,,,,,,,,,,,,,,,,,,,,,,,,,,,,,,,,,,,,,,,,,,,,,,,,,,,,,,,,,
,,,,,,60943427c11ddfd172f619e3,62c53a5258c7705bdcbb4b3a,2022-07-06_02h31.56.961,Colour_Asymmetry_Pilot,2022.1.3,Win32,60.21919788,62c50e9c1127f2cd403a315f,0,19,19,15,1,fourthree,,,,,,,,,,,,,,,,,,,,,,,,,,,,,,,,,,,,,,,,,,,,,,,,,,,,,,,,,,,,,,,,,,,,,,,,,,,,,,,,,,,,,,,,,,,,,,,,,,,,,,,,,,,,,,,,,,,,,,,,,,,,,,,,,,,,,,,,,,,,,,,,,,,,,,,,,,,,,
,,,,,,60943427c11ddfd172f619e3,62c53a5258c7705bdcbb4b3a,2022-07-06_02h31.56.961,Colour_Asymmetry_Pilot,2022.1.3,Win32,60.21919788,62c50e9c1127f2cd403a315f,0,20,20,141,1,threefour,,,,,,,,,,,,,,,,,,,,,,,,,,,,,,,,,,,,,,,,,,,,,,,,,,,,,,,,,,,,,,,,,,,,,,,,,,,,,,,,,,,,,,,,,,,,,,,,,,,,,,,,,,,,,,,,,,,,,,,,,,,,,,,,,,,,,,,,,,,,,,,,,,,,,,,,,,,,,
,,,,,,60943427c11ddfd172f619e3,62c53a5258c7705bdcbb4b3a,2022-07-06_02h31.56.961,Colour_Asymmetry_Pilot,2022.1.3,Win32,60.21919788,62c50e9c1127f2cd403a315f,0,21,21,42,1,twoone,,,,,,,,,,,,,,,,,,,,,,,,,,,,,,,,,,,,,,,,,,,,,,,,,,,,,,,,,,,,,,,,,,,,,,,,,,,,,,,,,,,,,,,,,,,,,,,,,,,,,,,,,,,,,,,,,,,,,,,,,,,,,,,,,,,,,,,,,,,,,,,,,,,,,,,,,,,,,
,,,,,,60943427c11ddfd172f619e3,62c53a5258c7705bdcbb4b3a,2022-07-06_02h31.56.961,Colour_Asymmetry_Pilot,2022.1.3,Win32,60.21919788,62c50e9c1127f2cd403a315f,0,22,22,79,1,fourthree,,,,,,,,,,,,,,,,,,,,,,,,,,,,,,,,,,,,,,,,,,,,,,,,,,,,,,,,,,,,,,,,,,,,,,,,,,,,,,,,,,,,,,,,,,,,,,,,,,,,,,,,,,,,,,,,,,,,,,,,,,,,,,,,,,,,,,,,,,,,,,,,,,,,,,,,,,,,,
,,,,,,60943427c11ddfd172f619e3,62c53a5258c7705bdcbb4b3a,2022-07-06_02h31.56.961,Colour_Asymmetry_Pilot,2022.1.3,Win32,60.21919788,62c50e9c1127f2cd403a315f,0,23,23,87,1,fourthree,,,,,,,,,,,,,,,,,,,,,,,,,,,,,,,,,,,,,,,,,,,,,,,,,,,,,,,,,,,,,,,,,,,,,,,,,,,,,,,,,,,,,,,,,,,,,,,,,,,,,,,,,,,,,,,,,,,,,,,,,,,,,,,,,,,,,,,,,,,,,,,,,,,,,,,,,,,,,
,,,,,,60943427c11ddfd172f619e3,62c53a5258c7705bdcbb4b3a,2022-07-06_02h31.56.961,Colour_Asymmetry_Pilot,2022.1.3,Win32,60.21919788,62c50e9c1127f2cd403a315f,0,24,24,43,1,twofour,,,,,,,,,,,,,,,,,,,,,,,,,,,,,,,,,,,,,,,,,,,,,,,,,,,,,,,,,,,,,,,,,,,,,,,,,,,,,,,,,,,,,,,,,,,,,,,,,,,,,,,,,,,,,,,,,,,,,,,,,,,,,,,,,,,,,,,,,,,,,,,,,,,,,,,,,,,,,
,,,,,,60943427c11ddfd172f619e3,62c53a5258c7705bdcbb4b3a,2022-07-06_02h31.56.961,Colour_Asymmetry_Pilot,2022.1.3,Win32,60.21919788,62c50e9c1127f2cd403a315f,0,25,25,160,1,onetwo,,,,,,,,,,,,,,,,,,,,,,,,,,,,,,,,,,,,,,,,,,,,,,,,,,,,,,,,,,,,,,,,,,,,,,,,,,,,,,,,,,,,,,,,,,,,,,,,,,,,,,,,,,,,,,,,,,,,,,,,,,,,,,,,,,,,,,,,,,,,,,,,,,,,,,,,,,,,,
,,,,,,60943427c11ddfd172f619e3,62c53a5258c7705bdcbb4b3a,2022-07-06_02h31.56.961,Colour_Asymmetry_Pilot,2022.1.3,Win32,60.21919788,62c50e9c1127f2cd403a315f,0,26,26,98,1,twoone,,,,,,,,,,,,,,,,,,,,,,,,,,,,,,,,,,,,,,,,,,,,,,,,,,,,,,,,,,,,,,,,,,,,,,,,,,,,,,,,,,,,,,,,,,,,,,,,,,,,,,,,,,,,,,,,,,,,,,,,,,,,,,,,,,,,,,,,,,,,,,,,,,,,,,,,,,,,,
,,,,,,60943427c11ddfd172f619e3,62c53a5258c7705bdcbb4b3a,2022-07-06_02h31.56.961,Colour_Asymmetry_Pilot,2022.1.3,Win32,60.21919788,62c50e9c1127f2cd403a315f,0,27,27,35,1,twofour,,,,,,,,,,,,,,,,,,,,,,,,,,,,,,,,,,,,,,,,,,,,,,,,,,,,,,,,,,,,,,,,,,,,,,,,,,,,,,,,,,,,,,,,,,,,,,,,,,,,,,,,,,,,,,,,,,,,,,,,,,,,,,,,,,,,,,,,,,,,,,,,,,,,,,,,,,,,,
,,,,,,60943427c11ddfd172f619e3,62c53a5258c7705bdcbb4b3a,2022-07-06_02h31.56.961,Colour_Asymmetry_Pilot,2022.1.3,Win32,60.21919788,62c50e9c1127f2cd403a315f,0,28,28,109,1,threefour,,,,,,,,,,,,,,,,,,,,,,,,,,,,,,,,,,,,,,,,,,,,,,,,,,,,,,,,,,,,,,,,,,,,,,,,,,,,,,,,,,,,,,,,,,,,,,,,,,,,,,,,,,,,,,,,,,,,,,,,,,,,,,,,,,,,,,,,,,,,,,,,,,,,,,,,,,,,,
,,,,,,60943427c11ddfd172f619e3,62c53a5258c7705bdcbb4b3a,2022-07-06_02h31.56.961,Colour_Asymmetry_Pilot,2022.1.3,Win32,60.21919788,62c50e9c1127f2cd403a315f,0,29,29,45,1,threefour,,,,,,,,,,,,,,,,,,,,,,,,,,,,,,,,,,,,,,,,,,,,,,,,,,,,,,,,,,,,,,,,,,,,,,,,,,,,,,,,,,,,,,,,,,,,,,,,,,,,,,,,,,,,,,,,,,,,,,,,,,,,,,,,,,,,,,,,,,,,,,,,,,,,,,,,,,,,,
,,,,,,60943427c11ddfd172f619e3,62c53a5258c7705bdcbb4b3a,2022-07-06_02h31.56.961,Colour_Asymmetry_Pilot,2022.1.3,Win32,60.21919788,62c50e9c1127f2cd403a315f,0,30,30,51,1,twofour,,,,,,,,,,,,,,,,,,,,,,,,,,,,,,,,,,,,,,,,,,,,,,,,,,,,,,,,,,,,,,,,,,,,,,,,,,,,,,,,,,,,,,,,,,,,,,,,,,,,,,,,,,,,,,,,,,,,,,,,,,,,,,,,,,,,,,,,,,,,,,,,,,,,,,,,,,,,,
,,,,,,60943427c11ddfd172f619e3,62c53a5258c7705bdcbb4b3a,2022-07-06_02h31.56.961,Colour_Asymmetry_Pilot,2022.1.3,Win32,60.21919788,62c50e9c1127f2cd403a315f,0,31,31,153,1,onethree,,,,,,,,,,,,,,,,,,,,,,,,,,,,,,,,,,,,,,,,,,,,,,,,,,,,,,,,,,,,,,,,,,,,,,,,,,,,,,,,,,,,,,,,,,,,,,,,,,,,,,,,,,,,,,,,,,,,,,,,,,,,,,,,,,,,,,,,,,,,,,,,,,,,,,,,,,,,,
,,,,,,60943427c11ddfd172f619e3,62c53a5258c7705bdcbb4b3a,2022-07-06_02h31.56.961,Colour_Asymmetry_Pilot,2022.1.3,Win32,60.21919788,62c50e9c1127f2cd403a315f,0,32,32,62,1,fourtwo,,,,,,,,,,,,,,,,,,,,,,,,,,,,,,,,,,,,,,,,,,,,,,,,,,,,,,,,,,,,,,,,,,,,,,,,,,,,,,,,,,,,,,,,,,,,,,,,,,,,,,,,,,,,,,,,,,,,,,,,,,,,,,,,,,,,,,,,,,,,,,,,,,,,,,,,,,,,,
,,,,,,60943427c11ddfd172f619e3,62c53a5258c7705bdcbb4b3a,2022-07-06_02h31.56.961,Colour_Asymmetry_Pilot,2022.1.3,Win32,60.21919788,62c50e9c1127f2cd403a315f,0,33,33,60,1,threeone,,,,,,,,,,,,,,,,,,,,,,,,,,,,,,,,,,,,,,,,,,,,,,,,,,,,,,,,,,,,,,,,,,,,,,,,,,,,,,,,,,,,,,,,,,,,,,,,,,,,,,,,,,,,,,,,,,,,,,,,,,,,,,,,,,,,,,,,,,,,,,,,,,,,,,,,,,,,,
,,,,,,60943427c11ddfd172f619e3,62c53a5258c7705bdcbb4b3a,2022-07-06_02h31.56.961,Colour_Asymmetry_Pilot,2022.1.3,Win32,60.21919788,62c50e9c1127f2cd403a315f,0,34,34,11,1,twofour,,,,,,,,,,,,,,,,,,,,,,,,,,,,,,,,,,,,,,,,,,,,,,,,,,,,,,,,,,,,,,,,,,,,,,,,,,,,,,,,,,,,,,,,,,,,,,,,,,,,,,,,,,,,,,,,,,,,,,,,,,,,,,,,,,,,,,,,,,,,,,,,,,,,,,,,,,,,,
,,,,,,60943427c11ddfd172f619e3,62c53a5258c7705bdcbb4b3a,2022-07-06_02h31.56.961,Colour_Asymmetry_Pilot,2022.1.3,Win32,60.21919788,62c50e9c1127f2cd403a315f,0,35,35,71,1,fourthree,,,,,,,,,,,,,,,,,,,,,,,,,,,,,,,,,,,,,,,,,,,,,,,,,,,,,,,,,,,,,,,,,,,,,,,,,,,,,,,,,,,,,,,,,,,,,,,,,,,,,,,,,,,,,,,,,,,,,,,,,,,,,,,,,,,,,,,,,,,,,,,,,,,,,,,,,,,,,
,,,,,,60943427c11ddfd172f619e3,62c53a5258c7705bdcbb4b3a,2022-07-06_02h31.56.961,Colour_Asymmetry_Pilot,2022.1.3,Win32,60.21919788,62c50e9c1127f2cd403a315f,0,36,36,152,1,onetwo,,,,,,,,,,,,,,,,,,,,,,,,,,,,,,,,,,,,,,,,,,,,,,,,,,,,,,,,,,,,,,,,,,,,,,,,,,,,,,,,,,,,,,,,,,,,,,,,,,,,,,,,,,,,,,,,,,,,,,,,,,,,,,,,,,,,,,,,,,,,,,,,,,,,,,,,,,,,,
,,,,,,60943427c11ddfd172f619e3,62c53a5258c7705bdcbb4b3a,2022-07-06_02h31.56.961,Colour_Asymmetry_Pilot,2022.1.3,Win32,60.21919788,62c50e9c1127f2cd403a315f,0,37,37,123,1,twofour,,,,,,,,,,,,,,,,,,,,,,,,,,,,,,,,,,,,,,,,,,,,,,,,,,,,,,,,,,,,,,,,,,,,,,,,,,,,,,,,,,,,,,,,,,,,,,,,,,,,,,,,,,,,,,,,,,,,,,,,,,,,,,,,,,,,,,,,,,,,,,,,,,,,,,,,,,,,,
,,,,,,60943427c11ddfd172f619e3,62c53a5258c7705bdcbb4b3a,2022-07-06_02h31.56.961,Colour_Asymmetry_Pilot,2022.1.3,Win32,60.21919788,62c50e9c1127f2cd403a315f,0,38,38,155,1,twofour,,,,,,,,,,,,,,,,,,,,,,,,,,,,,,,,,,,,,,,,,,,,,,,,,,,,,,,,,,,,,,,,,,,,,,,,,,,,,,,,,,,,,,,,,,,,,,,,,,,,,,,,,,,,,,,,,,,,,,,,,,,,,,,,,,,,,,,,,,,,,,,,,,,,,,,,,,,,,
,,,,,,60943427c11ddfd172f619e3,62c53a5258c7705bdcbb4b3a,2022-07-06_02h31.56.961,Colour_Asymmetry_Pilot,2022.1.3,Win32,60.21919788,62c50e9c1127f2cd403a315f,0,39,39,82,1,twoone,,,,,,,,,,,,,,,,,,,,,,,,,,,,,,,,,,,,,,,,,,,,,,,,,,,,,,,,,,,,,,,,,,,,,,,,,,,,,,,,,,,,,,,,,,,,,,,,,,,,,,,,,,,,,,,,,,,,,,,,,,,,,,,,,,,,,,,,,,,,,,,,,,,,,,,,,,,,,
,,,,,,60943427c11ddfd172f619e3,62c53a5258c7705bdcbb4b3a,2022-07-06_02h31.56.961,Colour_Asymmetry_Pilot,2022.1.3,Win32,60.21919788,62c50e9c1127f2cd403a315f,0,40,40,161,1,onethree,,,,,,,,,,,,,,,,,,,,,,,,,,,,,,,,,,,,,,,,,,,,,,,,,,,,,,,,,,,,,,,,,,,,,,,,,,,,,,,,,,,,,,,,,,,,,,,,,,,,,,,,,,,,,,,,,,,,,,,,,,,,,,,,,,,,,,,,,,,,,,,,,,,,,,,,,,,,,
,,,,,,60943427c11ddfd172f619e3,62c53a5258c7705bdcbb4b3a,2022-07-06_02h31.56.961,Colour_Asymmetry_Pilot,2022.1.3,Win32,60.21919788,62c50e9c1127f2cd403a315f,0,41,41,74,1,twoone,,,,,,,,,,,,,,,,,,,,,,,,,,,,,,,,,,,,,,,,,,,,,,,,,,,,,,,,,,,,,,,,,,,,,,,,,,,,,,,,,,,,,,,,,,,,,,,,,,,,,,,,,,,,,,,,,,,,,,,,,,,,,,,,,,,,,,,,,,,,,,,,,,,,,,,,,,,,,
,,,,,,60943427c11ddfd172f619e3,62c53a5258c7705bdcbb4b3a,2022-07-06_02h31.56.961,Colour_Asymmetry_Pilot,2022.1.3,Win32,60.21919788,62c50e9c1127f2cd403a315f,0,42,42,33,1,onethree,,,,,,,,,,,,,,,,,,,,,,,,,,,,,,,,,,,,,,,,,,,,,,,,,,,,,,,,,,,,,,,,,,,,,,,,,,,,,,,,,,,,,,,,,,,,,,,,,,,,,,,,,,,,,,,,,,,,,,,,,,,,,,,,,,,,,,,,,,,,,,,,,,,,,,,,,,,,,
,,,,,,60943427c11ddfd172f619e3,62c53a5258c7705bdcbb4b3a,2022-07-06_02h31.56.961,Colour_Asymmetry_Pilot,2022.1.3,Win32,60.21919788,62c50e9c1127f2cd403a315f,0,43,43,47,1,fourthree,,,,,,,,,,,,,,,,,,,,,,,,,,,,,,,,,,,,,,,,,,,,,,,,,,,,,,,,,,,,,,,,,,,,,,,,,,,,,,,,,,,,,,,,,,,,,,,,,,,,,,,,,,,,,,,,,,,,,,,,,,,,,,,,,,,,,,,,,,,,,,,,,,,,,,,,,,,,,
,,,,,,60943427c11ddfd172f619e3,62c53a5258c7705bdcbb4b3a,2022-07-06_02h31.56.961,Colour_Asymmetry_Pilot,2022.1.3,Win32,60.21919788,62c50e9c1127f2cd403a315f,0,44,44,64,1,onetwo,,,,,,,,,,,,,,,,,,,,,,,,,,,,,,,,,,,,,,,,,,,,,,,,,,,,,,,,,,,,,,,,,,,,,,,,,,,,,,,,,,,,,,,,,,,,,,,,,,,,,,,,,,,,,,,,,,,,,,,,,,,,,,,,,,,,,,,,,,,,,,,,,,,,,,,,,,,,,
,,,,,,60943427c11ddfd172f619e3,62c53a5258c7705bdcbb4b3a,2022-07-06_02h31.56.961,Colour_Asymmetry_Pilot,2022.1.3,Win32,60.21919788,62c50e9c1127f2cd403a315f,0,45,45,25,1,onethree,,,,,,,,,,,,,,,,,,,,,,,,,,,,,,,,,,,,,,,,,,,,,,,,,,,,,,,,,,,,,,,,,,,,,,,,,,,,,,,,,,,,,,,,,,,,,,,,,,,,,,,,,,,,,,,,,,,,,,,,,,,,,,,,,,,,,,,,,,,,,,,,,,,,,,,,,,,,,
,,,,,,60943427c11ddfd172f619e3,62c53a5258c7705bdcbb4b3a,2022-07-06_02h31.56.961,Colour_Asymmetry_Pilot,2022.1.3,Win32,60.21919788,62c50e9c1127f2cd403a315f,0,46,46,154,1,twoone,,,,,,,,,,,,,,,,,,,,,,,,,,,,,,,,,,,,,,,,,,,,,,,,,,,,,,,,,,,,,,,,,,,,,,,,,,,,,,,,,,,,,,,,,,,,,,,,,,,,,,,,,,,,,,,,,,,,,,,,,,,,,,,,,,,,,,,,,,,,,,,,,,,,,,,,,,,,,
,,,,,,60943427c11ddfd172f619e3,62c53a5258c7705bdcbb4b3a,2022-07-06_02h31.56.961,Colour_Asymmetry_Pilot,2022.1.3,Win32,60.21919788,62c50e9c1127f2cd403a315f,0,47,47,2,1,twoone,,,,,,,,,,,,,,,,,,,,,,,,,,,,,,,,,,,,,,,,,,,,,,,,,,,,,,,,,,,,,,,,,,,,,,,,,,,,,,,,,,,,,,,,,,,,,,,,,,,,,,,,,,,,,,,,,,,,,,,,,,,,,,,,,,,,,,,,,,,,,,,,,,,,,,,,,,,,,
,,,,,,60943427c11ddfd172f619e3,62c53a5258c7705bdcbb4b3a,2022-07-06_02h31.56.961,Colour_Asymmetry_Pilot,2022.1.3,Win32,60.21919788,62c50e9c1127f2cd403a315f,0,48,48,3,1,twofour,,,,,,,,,,,,,,,,,,,,,,,,,,,,,,,,,,,,,,,,,,,,,,,,,,,,,,,,,,,,,,,,,,,,,,,,,,,,,,,,,,,,,,,,,,,,,,,,,,,,,,,,,,,,,,,,,,,,,,,,,,,,,,,,,,,,,,,,,,,,,,,,,,,,,,,,,,,,,
,,,,,,60943427c11ddfd172f619e3,62c53a5258c7705bdcbb4b3a,2022-07-06_02h31.56.961,Colour_Asymmetry_Pilot,2022.1.3,Win32,60.21919788,62c50e9c1127f2cd403a315f,0,49,49,22,1,fourtwo,,,,,,,,,,,,,,,,,,,,,,,,,,,,,,,,,,,,,,,,,,,,,,,,,,,,,,,,,,,,,,,,,,,,,,,,,,,,,,,,,,,,,,,,,,,,,,,,,,,,,,,,,,,,,,,,,,,,,,,,,,,,,,,,,,,,,,,,,,,,,,,,,,,,,,,,,,,,,
,,,,,,60943427c11ddfd172f619e3,62c53a5258c7705bdcbb4b3a,2022-07-06_02h31.56.961,Colour_Asymmetry_Pilot,2022.1.3,Win32,60.21919788,62c50e9c1127f2cd403a315f,0,50,50,145,1,onethree,,,,,,,,,,,,,,,,,,,,,,,,,,,,,,,,,,,,,,,,,,,,,,,,,,,,,,,,,,,,,,,,,,,,,,,,,,,,,,,,,,,,,,,,,,,,,,,,,,,,,,,,,,,,,,,,,,,,,,,,,,,,,,,,,,,,,,,,,,,,,,,,,,,,,,,,,,,,,
,,,,,,60943427c11ddfd172f619e3,62c53a5258c7705bdcbb4b3a,2022-07-06_02h31.56.961,Colour_Asymmetry_Pilot,2022.1.3,Win32,60.21919788,62c50e9c1127f2cd403a315f,0,51,51,65,1,onethree,,,,,,,,,,,,,,,,,,,,,,,,,,,,,,,,,,,,,,,,,,,,,,,,,,,,,,,,,,,,,,,,,,,,,,,,,,,,,,,,,,,,,,,,,,,,,,,,,,,,,,,,,,,,,,,,,,,,,,,,,,,,,,,,,,,,,,,,,,,,,,,,,,,,,,,,,,,,,
,,,,,,60943427c11ddfd172f619e3,62c53a5258c7705bdcbb4b3a,2022-07-06_02h31.56.961,Colour_Asymmetry_Pilot,2022.1.3,Win32,60.21919788,62c50e9c1127f2cd403a315f,0,52,52,114,1,twoone,,,,,,,,,,,,,,,,,,,,,,,,,,,,,,,,,,,,,,,,,,,,,,,,,,,,,,,,,,,,,,,,,,,,,,,,,,,,,,,,,,,,,,,,,,,,,,,,,,,,,,,,,,,,,,,,,,,,,,,,,,,,,,,,,,,,,,,,,,,,,,,,,,,,,,,,,,,,,
,,,,,,60943427c11ddfd172f619e3,62c53a5258c7705bdcbb4b3a,2022-07-06_02h31.56.961,Colour_Asymmetry_Pilot,2022.1.3,Win32,60.21919788,62c50e9c1127f2cd403a315f,0,53,53,105,1,onethree,,,,,,,,,,,,,,,,,,,,,,,,,,,,,,,,,,,,,,,,,,,,,,,,,,,,,,,,,,,,,,,,,,,,,,,,,,,,,,,,,,,,,,,,,,,,,,,,,,,,,,,,,,,,,,,,,,,,,,,,,,,,,,,,,,,,,,,,,,,,,,,,,,,,,,,,,,,,,
,,,,,,60943427c11ddfd172f619e3,62c53a5258c7705bdcbb4b3a,2022-07-06_02h31.56.961,Colour_Asymmetry_Pilot,2022.1.3,Win32,60.21919788,62c50e9c1127f2cd403a315f,0,54,54,135,1,fourthree,,,,,,,,,,,,,,,,,,,,,,,,,,,,,,,,,,,,,,,,,,,,,,,,,,,,,,,,,,,,,,,,,,,,,,,,,,,,,,,,,,,,,,,,,,,,,,,,,,,,,,,,,,,,,,,,,,,,,,,,,,,,,,,,,,,,,,,,,,,,,,,,,,,,,,,,,,,,,
,,,,,,60943427c11ddfd172f619e3,62c53a5258c7705bdcbb4b3a,2022-07-06_02h31.56.961,Colour_Asymmetry_Pilot,2022.1.3,Win32,60.21919788,62c50e9c1127f2cd403a315f,0,55,55,29,1,threefour,,,,,,,,,,,,,,,,,,,,,,,,,,,,,,,,,,,,,,,,,,,,,,,,,,,,,,,,,,,,,,,,,,,,,,,,,,,,,,,,,,,,,,,,,,,,,,,,,,,,,,,,,,,,,,,,,,,,,,,,,,,,,,,,,,,,,,,,,,,,,,,,,,,,,,,,,,,,,
,,,,,,60943427c11ddfd172f619e3,62c53a5258c7705bdcbb4b3a,2022-07-06_02h31.56.961,Colour_Asymmetry_Pilot,2022.1.3,Win32,60.21919788,62c50e9c1127f2cd403a315f,0,56,56,112,1,onetwo,,,,,,,,,,,,,,,,,,,,,,,,,,,,,,,,,,,,,,,,,,,,,,,,,,,,,,,,,,,,,,,,,,,,,,,,,,,,,,,,,,,,,,,,,,,,,,,,,,,,,,,,,,,,,,,,,,,,,,,,,,,,,,,,,,,,,,,,,,,,,,,,,,,,,,,,,,,,,
,,,,,,60943427c11ddfd172f619e3,62c53a5258c7705bdcbb4b3a,2022-07-06_02h31.56.961,Colour_Asymmetry_Pilot,2022.1.3,Win32,60.21919788,62c50e9c1127f2cd403a315f,0,57,57,73,1,onethree,,,,,,,,,,,,,,,,,,,,,,,,,,,,,,,,,,,,,,,,,,,,,,,,,,,,,,,,,,,,,,,,,,,,,,,,,,,,,,,,,,,,,,,,,,,,,,,,,,,,,,,,,,,,,,,,,,,,,,,,,,,,,,,,,,,,,,,,,,,,,,,,,,,,,,,,,,,,,
,,,,,,60943427c11ddfd172f619e3,62c53a5258c7705bdcbb4b3a,2022-07-06_02h31.56.961,Colour_Asymmetry_Pilot,2022.1.3,Win32,60.21919788,62c50e9c1127f2cd403a315f,0,58,58,142,1,fourtwo,,,,,,,,,,,,,,,,,,,,,,,,,,,,,,,,,,,,,,,,,,,,,,,,,,,,,,,,,,,,,,,,,,,,,,,,,,,,,,,,,,,,,,,,,,,,,,,,,,,,,,,,,,,,,,,,,,,,,,,,,,,,,,,,,,,,,,,,,,,,,,,,,,,,,,,,,,,,,
,,,,,,60943427c11ddfd172f619e3,62c53a5258c7705bdcbb4b3a,2022-07-06_02h31.56.961,Colour_Asymmetry_Pilot,2022.1.3,Win32,60.21919788,62c50e9c1127f2cd403a315f,0,59,59,90,1,twoone,,,,,,,,,,,,,,,,,,,,,,,,,,,,,,,,,,,,,,,,,,,,,,,,,,,,,,,,,,,,,,,,,,,,,,,,,,,,,,,,,,,,,,,,,,,,,,,,,,,,,,,,,,,,,,,,,,,,,,,,,,,,,,,,,,,,,,,,,,,,,,,,,,,,,,,,,,,,,
,,,,,,60943427c11ddfd172f619e3,62c53a5258c7705bdcbb4b3a,2022-07-06_02h31.56.961,Colour_Asymmetry_Pilot,2022.1.3,Win32,60.21919788,62c50e9c1127f2cd403a315f,0,60,60,18,1,twoone,,,,,,,,,,,,,,,,,,,,,,,,,,,,,,,,,,,,,,,,,,,,,,,,,,,,,,,,,,,,,,,,,,,,,,,,,,,,,,,,,,,,,,,,,,,,,,,,,,,,,,,,,,,,,,,,,,,,,,,,,,,,,,,,,,,,,,,,,,,,,,,,,,,,,,,,,,,,,
,,,,,,60943427c11ddfd172f619e3,62c53a5258c7705bdcbb4b3a,2022-07-06_02h31.56.961,Colour_Asymmetry_Pilot,2022.1.3,Win32,60.21919788,62c50e9c1127f2cd403a315f,0,61,61,67,1,twofour,,,,,,,,,,,,,,,,,,,,,,,,,,,,,,,,,,,,,,,,,,,,,,,,,,,,,,,,,,,,,,,,,,,,,,,,,,,,,,,,,,,,,,,,,,,,,,,,,,,,,,,,,,,,,,,,,,,,,,,,,,,,,,,,,,,,,,,,,,,,,,,,,,,,,,,,,,,,,
,,,,,,60943427c11ddfd172f619e3,62c53a5258c7705bdcbb4b3a,2022-07-06_02h31.56.961,Colour_Asymmetry_Pilot,2022.1.3,Win32,60.21919788,62c50e9c1127f2cd403a315f,0,62,62,107,1,twofour,,,,,,,,,,,,,,,,,,,,,,,,,,,,,,,,,,,,,,,,,,,,,,,,,,,,,,,,,,,,,,,,,,,,,,,,,,,,,,,,,,,,,,,,,,,,,,,,,,,,,,,,,,,,,,,,,,,,,,,,,,,,,,,,,,,,,,,,,,,,,,,,,,,,,,,,,,,,,
,,,,,,60943427c11ddfd172f619e3,62c53a5258c7705bdcbb4b3a,2022-07-06_02h31.56.961,Colour_Asymmetry_Pilot,2022.1.3,Win32,60.21919788,62c50e9c1127f2cd403a315f,0,63,63,76,1,threeone,,,,,,,,,,,,,,,,,,,,,,,,,,,,,,,,,,,,,,,,,,,,,,,,,,,,,,,,,,,,,,,,,,,,,,,,,,,,,,,,,,,,,,,,,,,,,,,,,,,,,,,,,,,,,,,,,,,,,,,,,,,,,,,,,,,,,,,,,,,,,,,,,,,,,,,,,,,,,
,,,,,,60943427c11ddfd172f619e3,62c53a5258c7705bdcbb4b3a,2022-07-06_02h31.56.961,Colour_Asymmetry_Pilot,2022.1.3,Win32,60.21919788,62c50e9c1127f2cd403a315f,0,64,64,115,1,twofour,,,,,,,,,,,,,,,,,,,,,,,,,,,,,,,,,,,,,,,,,,,,,,,,,,,,,,,,,,,,,,,,,,,,,,,,,,,,,,,,,,,,,,,,,,,,,,,,,,,,,,,,,,,,,,,,,,,,,,,,,,,,,,,,,,,,,,,,,,,,,,,,,,,,,,,,,,,,,
,,,,,,60943427c11ddfd172f619e3,62c53a5258c7705bdcbb4b3a,2022-07-06_02h31.56.961,Colour_Asymmetry_Pilot,2022.1.3,Win32,60.21919788,62c50e9c1127f2cd403a315f,0,65,65,113,1,onethree,,,,,,,,,,,,,,,,,,,,,,,,,,,,,,,,,,,,,,,,,,,,,,,,,,,,,,,,,,,,,,,,,,,,,,,,,,,,,,,,,,,,,,,,,,,,,,,,,,,,,,,,,,,,,,,,,,,,,,,,,,,,,,,,,,,,,,,,,,,,,,,,,,,,,,,,,,,,,
,,,,,,60943427c11ddfd172f619e3,62c53a5258c7705bdcbb4b3a,2022-07-06_02h31.56.961,Colour_Asymmetry_Pilot,2022.1.3,Win32,60.21919788,62c50e9c1127f2cd403a315f,0,66,66,27,1,twofour,,,,,,,,,,,,,,,,,,,,,,,,,,,,,,,,,,,,,,,,,,,,,,,,,,,,,,,,,,,,,,,,,,,,,,,,,,,,,,,,,,,,,,,,,,,,,,,,,,,,,,,,,,,,,,,,,,,,,,,,,,,,,,,,,,,,,,,,,,,,,,,,,,,,,,,,,,,,,
,,,,,,60943427c11ddfd172f619e3,62c53a5258c7705bdcbb4b3a,2022-07-06_02h31.56.961,Colour_Asymmetry_Pilot,2022.1.3,Win32,60.21919788,62c50e9c1127f2cd403a315f,0,67,67,61,1,threefour,,,,,,,,,,,,,,,,,,,,,,,,,,,,,,,,,,,,,,,,,,,,,,,,,,,,,,,,,,,,,,,,,,,,,,,,,,,,,,,,,,,,,,,,,,,,,,,,,,,,,,,,,,,,,,,,,,,,,,,,,,,,,,,,,,,,,,,,,,,,,,,,,,,,,,,,,,,,,
,,,,,,60943427c11ddfd172f619e3,62c53a5258c7705bdcbb4b3a,2022-07-06_02h31.56.961,Colour_Asymmetry_Pilot,2022.1.3,Win32,60.21919788,62c50e9c1127f2cd403a315f,0,68,68,106,1,twoone,,,,,,,,,,,,,,,,,,,,,,,,,,,,,,,,,,,,,,,,,,,,,,,,,,,,,,,,,,,,,,,,,,,,,,,,,,,,,,,,,,,,,,,,,,,,,,,,,,,,,,,,,,,,,,,,,,,,,,,,,,,,,,,,,,,,,,,,,,,,,,,,,,,,,,,,,,,,,
,,,,,,60943427c11ddfd172f619e3,62c53a5258c7705bdcbb4b3a,2022-07-06_02h31.56.961,Colour_Asymmetry_Pilot,2022.1.3,Win32,60.21919788,62c50e9c1127f2cd403a315f,0,69,69,88,1,onetwo,,,,,,,,,,,,,,,,,,,,,,,,,,,,,,,,,,,,,,,,,,,,,,,,,,,,,,,,,,,,,,,,,,,,,,,,,,,,,,,,,,,,,,,,,,,,,,,,,,,,,,,,,,,,,,,,,,,,,,,,,,,,,,,,,,,,,,,,,,,,,,,,,,,,,,,,,,,,,
,,,,,,60943427c11ddfd172f619e3,62c53a5258c7705bdcbb4b3a,2022-07-06_02h31.56.961,Colour_Asymmetry_Pilot,2022.1.3,Win32,60.21919788,62c50e9c1127f2cd403a315f,0,70,70,21,1,threefour,,,,,,,,,,,,,,,,,,,,,,,,,,,,,,,,,,,,,,,,,,,,,,,,,,,,,,,,,,,,,,,,,,,,,,,,,,,,,,,,,,,,,,,,,,,,,,,,,,,,,,,,,,,,,,,,,,,,,,,,,,,,,,,,,,,,,,,,,,,,,,,,,,,,,,,,,,,,,
,,,,,,60943427c11ddfd172f619e3,62c53a5258c7705bdcbb4b3a,2022-07-06_02h31.56.961,Colour_Asymmetry_Pilot,2022.1.3,Win32,60.21919788,62c50e9c1127f2cd403a315f,0,71,71,133,1,threefour,,,,,,,,,,,,,,,,,,,,,,,,,,,,,,,,,,,,,,,,,,,,,,,,,,,,,,,,,,,,,,,,,,,,,,,,,,,,,,,,,,,,,,,,,,,,,,,,,,,,,,,,,,,,,,,,,,,,,,,,,,,,,,,,,,,,,,,,,,,,,,,,,,,,,,,,,,,,,
,,,,,,60943427c11ddfd172f619e3,62c53a5258c7705bdcbb4b3a,2022-07-06_02h31.56.961,Colour_Asymmetry_Pilot,2022.1.3,Win32,60.21919788,62c50e9c1127f2cd403a315f,0,72,72,77,1,threefour,,,,,,,,,,,,,,,,,,,,,,,,,,,,,,,,,,,,,,,,,,,,,,,,,,,,,,,,,,,,,,,,,,,,,,,,,,,,,,,,,,,,,,,,,,,,,,,,,,,,,,,,,,,,,,,,,,,,,,,,,,,,,,,,,,,,,,,,,,,,,,,,,,,,,,,,,,,,,
,,,,,,60943427c11ddfd172f619e3,62c53a5258c7705bdcbb4b3a,2022-07-06_02h31.56.961,Colour_Asymmetry_Pilot,2022.1.3,Win32,60.21919788,62c50e9c1127f2cd403a315f,0,73,73,108,1,threeone,,,,,,,,,,,,,,,,,,,,,,,,,,,,,,,,,,,,,,,,,,,,,,,,,,,,,,,,,,,,,,,,,,,,,,,,,,,,,,,,,,,,,,,,,,,,,,,,,,,,,,,,,,,,,,,,,,,,,,,,,,,,,,,,,,,,,,,,,,,,,,,,,,,,,,,,,,,,,
,,,,,,60943427c11ddfd172f619e3,62c53a5258c7705bdcbb4b3a,2022-07-06_02h31.56.961,Colour_Asymmetry_Pilot,2022.1.3,Win32,60.21919788,62c50e9c1127f2cd403a315f,0,74,74,102,1,fourtwo,,,,,,,,,,,,,,,,,,,,,,,,,,,,,,,,,,,,,,,,,,,,,,,,,,,,,,,,,,,,,,,,,,,,,,,,,,,,,,,,,,,,,,,,,,,,,,,,,,,,,,,,,,,,,,,,,,,,,,,,,,,,,,,,,,,,,,,,,,,,,,,,,,,,,,,,,,,,,
,,,,,,60943427c11ddfd172f619e3,62c53a5258c7705bdcbb4b3a,2022-07-06_02h31.56.961,Colour_Asymmetry_Pilot,2022.1.3,Win32,60.21919788,62c50e9c1127f2cd403a315f,0,75,75,146,1,twoone,,,,,,,,,,,,,,,,,,,,,,,,,,,,,,,,,,,,,,,,,,,,,,,,,,,,,,,,,,,,,,,,,,,,,,,,,,,,,,,,,,,,,,,,,,,,,,,,,,,,,,,,,,,,,,,,,,,,,,,,,,,,,,,,,,,,,,,,,,,,,,,,,,,,,,,,,,,,,
,,,,,,60943427c11ddfd172f619e3,62c53a5258c7705bdcbb4b3a,2022-07-06_02h31.56.961,Colour_Asymmetry_Pilot,2022.1.3,Win32,60.21919788,62c50e9c1127f2cd403a315f,0,76,76,159,1,fourthree,,,,,,,,,,,,,,,,,,,,,,,,,,,,,,,,,,,,,,,,,,,,,,,,,,,,,,,,,,,,,,,,,,,,,,,,,,,,,,,,,,,,,,,,,,,,,,,,,,,,,,,,,,,,,,,,,,,,,,,,,,,,,,,,,,,,,,,,,,,,,,,,,,,,,,,,,,,,,
,,,,,,60943427c11ddfd172f619e3,62c53a5258c7705bdcbb4b3a,2022-07-06_02h31.56.961,Colour_Asymmetry_Pilot,2022.1.3,Win32,60.21919788,62c50e9c1127f2cd403a315f,0,77,77,150,1,fourtwo,,,,,,,,,,,,,,,,,,,,,,,,,,,,,,,,,,,,,,,,,,,,,,,,,,,,,,,,,,,,,,,,,,,,,,,,,,,,,,,,,,,,,,,,,,,,,,,,,,,,,,,,,,,,,,,,,,,,,,,,,,,,,,,,,,,,,,,,,,,,,,,,,,,,,,,,,,,,,
,,,,,,60943427c11ddfd172f619e3,62c53a5258c7705bdcbb4b3a,2022-07-06_02h31.56.961,Colour_Asymmetry_Pilot,2022.1.3,Win32,60.21919788,62c50e9c1127f2cd403a315f,0,78,78,0,1,onetwo,,,,,,,,,,,,,,,,,,,,,,,,,,,,,,,,,,,,,,,,,,,,,,,,,,,,,,,,,,,,,,,,,,,,,,,,,,,,,,,,,,,,,,,,,,,,,,,,,,,,,,,,,,,,,,,,,,,,,,,,,,,,,,,,,,,,,,,,,,,,,,,,,,,,,,,,,,,,,
,,,,,,60943427c11ddfd172f619e3,62c53a5258c7705bdcbb4b3a,2022-07-06_02h31.56.961,Colour_Asymmetry_Pilot,2022.1.3,Win32,60.21919788,62c50e9c1127f2cd403a315f,0,79,79,129,1,onethree,,,,,,,,,,,,,,,,,,,,,,,,,,,,,,,,,,,,,,,,,,,,,,,,,,,,,,,,,,,,,,,,,,,,,,,,,,,,,,,,,,,,,,,,,,,,,,,,,,,,,,,,,,,,,,,,,,,,,,,,,,,,,,,,,,,,,,,,,,,,,,,,,,,,,,,,,,,,,
,,,,,,60943427c11ddfd172f619e3,62c53a5258c7705bdcbb4b3a,2022-07-06_02h31.56.961,Colour_Asymmetry_Pilot,2022.1.3,Win32,60.21919788,62c50e9c1127f2cd403a315f,0,80,80,16,1,onetwo,,,,,,,,,,,,,,,,,,,,,,,,,,,,,,,,,,,,,,,,,,,,,,,,,,,,,,,,,,,,,,,,,,,,,,,,,,,,,,,,,,,,,,,,,,,,,,,,,,,,,,,,,,,,,,,,,,,,,,,,,,,,,,,,,,,,,,,,,,,,,,,,,,,,,,,,,,,,,
,,,,,,60943427c11ddfd172f619e3,62c53a5258c7705bdcbb4b3a,2022-07-06_02h31.56.961,Colour_Asymmetry_Pilot,2022.1.3,Win32,60.21919788,62c50e9c1127f2cd403a315f,0,81,81,17,1,onethree,,,,,,,,,,,,,,,,,,,,,,,,,,,,,,,,,,,,,,,,,,,,,,,,,,,,,,,,,,,,,,,,,,,,,,,,,,,,,,,,,,,,,,,,,,,,,,,,,,,,,,,,,,,,,,,,,,,,,,,,,,,,,,,,,,,,,,,,,,,,,,,,,,,,,,,,,,,,,
,,,,,,60943427c11ddfd172f619e3,62c53a5258c7705bdcbb4b3a,2022-07-06_02h31.56.961,Colour_Asymmetry_Pilot,2022.1.3,Win32,60.21919788,62c50e9c1127f2cd403a315f,0,82,82,32,1,onetwo,,,,,,,,,,,,,,,,,,,,,,,,,,,,,,,,,,,,,,,,,,,,,,,,,,,,,,,,,,,,,,,,,,,,,,,,,,,,,,,,,,,,,,,,,,,,,,,,,,,,,,,,,,,,,,,,,,,,,,,,,,,,,,,,,,,,,,,,,,,,,,,,,,,,,,,,,,,,,
,,,,,,60943427c11ddfd172f619e3,62c53a5258c7705bdcbb4b3a,2022-07-06_02h31.56.961,Colour_Asymmetry_Pilot,2022.1.3,Win32,60.21919788,62c50e9c1127f2cd403a315f,0,83,83,119,1,fourthree,,,,,,,,,,,,,,,,,,,,,,,,,,,,,,,,,,,,,,,,,,,,,,,,,,,,,,,,,,,,,,,,,,,,,,,,,,,,,,,,,,,,,,,,,,,,,,,,,,,,,,,,,,,,,,,,,,,,,,,,,,,,,,,,,,,,,,,,,,,,,,,,,,,,,,,,,,,,,
,,,,,,60943427c11ddfd172f619e3,62c53a5258c7705bdcbb4b3a,2022-07-06_02h31.56.961,Colour_Asymmetry_Pilot,2022.1.3,Win32,60.21919788,62c50e9c1127f2cd403a315f,0,84,84,94,1,fourtwo,,,,,,,,,,,,,,,,,,,,,,,,,,,,,,,,,,,,,,,,,,,,,,,,,,,,,,,,,,,,,,,,,,,,,,,,,,,,,,,,,,,,,,,,,,,,,,,,,,,,,,,,,,,,,,,,,,,,,,,,,,,,,,,,,,,,,,,,,,,,,,,,,,,,,,,,,,,,,
,,,,,,60943427c11ddfd172f619e3,62c53a5258c7705bdcbb4b3a,2022-07-06_02h31.56.961,Colour_Asymmetry_Pilot,2022.1.3,Win32,60.21919788,62c50e9c1127f2cd403a315f,0,85,85,8,1,onetwo,,,,,,,,,,,,,,,,,,,,,,,,,,,,,,,,,,,,,,,,,,,,,,,,,,,,,,,,,,,,,,,,,,,,,,,,,,,,,,,,,,,,,,,,,,,,,,,,,,,,,,,,,,,,,,,,,,,,,,,,,,,,,,,,,,,,,,,,,,,,,,,,,,,,,,,,,,,,,
,,,,,,60943427c11ddfd172f619e3,62c53a5258c7705bdcbb4b3a,2022-07-06_02h31.56.961,Colour_Asymmetry_Pilot,2022.1.3,Win32,60.21919788,62c50e9c1127f2cd403a315f,0,86,86,14,1,fourtwo,,,,,,,,,,,,,,,,,,,,,,,,,,,,,,,,,,,,,,,,,,,,,,,,,,,,,,,,,,,,,,,,,,,,,,,,,,,,,,,,,,,,,,,,,,,,,,,,,,,,,,,,,,,,,,,,,,,,,,,,,,,,,,,,,,,,,,,,,,,,,,,,,,,,,,,,,,,,,
,,,,,,60943427c11ddfd172f619e3,62c53a5258c7705bdcbb4b3a,2022-07-06_02h31.56.961,Colour_Asymmetry_Pilot,2022.1.3,Win32,60.21919788,62c50e9c1127f2cd403a315f,0,87,87,20,1,threeone,,,,,,,,,,,,,,,,,,,,,,,,,,,,,,,,,,,,,,,,,,,,,,,,,,,,,,,,,,,,,,,,,,,,,,,,,,,,,,,,,,,,,,,,,,,,,,,,,,,,,,,,,,,,,,,,,,,,,,,,,,,,,,,,,,,,,,,,,,,,,,,,,,,,,,,,,,,,,
,,,,,,60943427c11ddfd172f619e3,62c53a5258c7705bdcbb4b3a,2022-07-06_02h31.56.961,Colour_Asymmetry_Pilot,2022.1.3,Win32,60.21919788,62c50e9c1127f2cd403a315f,0,88,88,149,1,threefour,,,,,,,,,,,,,,,,,,,,,,,,,,,,,,,,,,,,,,,,,,,,,,,,,,,,,,,,,,,,,,,,,,,,,,,,,,,,,,,,,,,,,,,,,,,,,,,,,,,,,,,,,,,,,,,,,,,,,,,,,,,,,,,,,,,,,,,,,,,,,,,,,,,,,,,,,,,,,
,,,,,,60943427c11ddfd172f619e3,62c53a5258c7705bdcbb4b3a,2022-07-06_02h31.56.961,Colour_Asymmetry_Pilot,2022.1.3,Win32,60.21919788,62c50e9c1127f2cd403a315f,0,89,89,66,1,twoone,,,,,,,,,,,,,,,,,,,,,,,,,,,,,,,,,,,,,,,,,,,,,,,,,,,,,,,,,,,,,,,,,,,,,,,,,,,,,,,,,,,,,,,,,,,,,,,,,,,,,,,,,,,,,,,,,,,,,,,,,,,,,,,,,,,,,,,,,,,,,,,,,,,,,,,,,,,,,
,,,,,,60943427c11ddfd172f619e3,62c53a5258c7705bdcbb4b3a,2022-07-06_02h31.56.961,Colour_Asymmetry_Pilot,2022.1.3,Win32,60.21919788,62c50e9c1127f2cd403a315f,0,90,90,138,1,twoone,,,,,,,,,,,,,,,,,,,,,,,,,,,,,,,,,,,,,,,,,,,,,,,,,,,,,,,,,,,,,,,,,,,,,,,,,,,,,,,,,,,,,,,,,,,,,,,,,,,,,,,,,,,,,,,,,,,,,,,,,,,,,,,,,,,,,,,,,,,,,,,,,,,,,,,,,,,,,
,,,,,,60943427c11ddfd172f619e3,62c53a5258c7705bdcbb4b3a,2022-07-06_02h31.56.961,Colour_Asymmetry_Pilot,2022.1.3,Win32,60.21919788,62c50e9c1127f2cd403a315f,0,91,91,40,1,onetwo,,,,,,,,,,,,,,,,,,,,,,,,,,,,,,,,,,,,,,,,,,,,,,,,,,,,,,,,,,,,,,,,,,,,,,,,,,,,,,,,,,,,,,,,,,,,,,,,,,,,,,,,,,,,,,,,,,,,,,,,,,,,,,,,,,,,,,,,,,,,,,,,,,,,,,,,,,,,,
,,,,,,60943427c11ddfd172f619e3,62c53a5258c7705bdcbb4b3a,2022-07-06_02h31.56.961,Colour_Asymmetry_Pilot,2022.1.3,Win32,60.21919788,62c50e9c1127f2cd403a315f,0,92,92,99,1,twofour,,,,,,,,,,,,,,,,,,,,,,,,,,,,,,,,,,,,,,,,,,,,,,,,,,,,,,,,,,,,,,,,,,,,,,,,,,,,,,,,,,,,,,,,,,,,,,,,,,,,,,,,,,,,,,,,,,,,,,,,,,,,,,,,,,,,,,,,,,,,,,,,,,,,,,,,,,,,,
,,,,,,60943427c11ddfd172f619e3,62c53a5258c7705bdcbb4b3a,2022-07-06_02h31.56.961,Colour_Asymmetry_Pilot,2022.1.3,Win32,60.21919788,62c50e9c1127f2cd403a315f,0,93,93,57,1,onethree,,,,,,,,,,,,,,,,,,,,,,,,,,,,,,,,,,,,,,,,,,,,,,,,,,,,,,,,,,,,,,,,,,,,,,,,,,,,,,,,,,,,,,,,,,,,,,,,,,,,,,,,,,,,,,,,,,,,,,,,,,,,,,,,,,,,,,,,,,,,,,,,,,,,,,,,,,,,,
,,,,,,60943427c11ddfd172f619e3,62c53a5258c7705bdcbb4b3a,2022-07-06_02h31.56.961,Colour_Asymmetry_Pilot,2022.1.3,Win32,60.21919788,62c50e9c1127f2cd403a315f,0,94,94,30,1,fourtwo,,,,,,,,,,,,,,,,,,,,,,,,,,,,,,,,,,,,,,,,,,,,,,,,,,,,,,,,,,,,,,,,,,,,,,,,,,,,,,,,,,,,,,,,,,,,,,,,,,,,,,,,,,,,,,,,,,,,,,,,,,,,,,,,,,,,,,,,,,,,,,,,,,,,,,,,,,,,,
,,,,,,60943427c11ddfd172f619e3,62c53a5258c7705bdcbb4b3a,2022-07-06_02h31.56.961,Colour_Asymmetry_Pilot,2022.1.3,Win32,60.21919788,62c50e9c1127f2cd403a315f,0,95,95,39,1,fourthree,,,,,,,,,,,,,,,,,,,,,,,,,,,,,,,,,,,,,,,,,,,,,,,,,,,,,,,,,,,,,,,,,,,,,,,,,,,,,,,,,,,,,,,,,,,,,,,,,,,,,,,,,,,,,,,,,,,,,,,,,,,,,,,,,,,,,,,,,,,,,,,,,,,,,,,,,,,,,
,,,,,,60943427c11ddfd172f619e3,62c53a5258c7705bdcbb4b3a,2022-07-06_02h31.56.961,Colour_Asymmetry_Pilot,2022.1.3,Win32,60.21919788,62c50e9c1127f2cd403a315f,0,96,96,48,1,onetwo,,,,,,,,,,,,,,,,,,,,,,,,,,,,,,,,,,,,,,,,,,,,,,,,,,,,,,,,,,,,,,,,,,,,,,,,,,,,,,,,,,,,,,,,,,,,,,,,,,,,,,,,,,,,,,,,,,,,,,,,,,,,,,,,,,,,,,,,,,,,,,,,,,,,,,,,,,,,,
,,,,,,60943427c11ddfd172f619e3,62c53a5258c7705bdcbb4b3a,2022-07-06_02h31.56.961,Colour_Asymmetry_Pilot,2022.1.3,Win32,60.21919788,62c50e9c1127f2cd403a315f,0,97,97,124,1,threeone,,,,,,,,,,,,,,,,,,,,,,,,,,,,,,,,,,,,,,,,,,,,,,,,,,,,,,,,,,,,,,,,,,,,,,,,,,,,,,,,,,,,,,,,,,,,,,,,,,,,,,,,,,,,,,,,,,,,,,,,,,,,,,,,,,,,,,,,,,,,,,,,,,,,,,,,,,,,,
,,,,,,60943427c11ddfd172f619e3,62c53a5258c7705bdcbb4b3a,2022-07-06_02h31.56.961,Colour_Asymmetry_Pilot,2022.1.3,Win32,60.21919788,62c50e9c1127f2cd403a315f,0,98,98,63,1,fourthree,,,,,,,,,,,,,,,,,,,,,,,,,,,,,,,,,,,,,,,,,,,,,,,,,,,,,,,,,,,,,,,,,,,,,,,,,,,,,,,,,,,,,,,,,,,,,,,,,,,,,,,,,,,,,,,,,,,,,,,,,,,,,,,,,,,,,,,,,,,,,,,,,,,,,,,,,,,,,
,,,,,,60943427c11ddfd172f619e3,62c53a5258c7705bdcbb4b3a,2022-07-06_02h31.56.961,Colour_Asymmetry_Pilot,2022.1.3,Win32,60.21919788,62c50e9c1127f2cd403a315f,0,99,99,130,1,twoone,,,,,,,,,,,,,,,,,,,,,,,,,,,,,,,,,,,,,,,,,,,,,,,,,,,,,,,,,,,,,,,,,,,,,,,,,,,,,,,,,,,,,,,,,,,,,,,,,,,,,,,,,,,,,,,,,,,,,,,,,,,,,,,,,,,,,,,,,,,,,,,,,,,,,,,,,,,,,
,,,,,,60943427c11ddfd172f619e3,62c53a5258c7705bdcbb4b3a,2022-07-06_02h31.56.961,Colour_Asymmetry_Pilot,2022.1.3,Win32,60.21919788,62c50e9c1127f2cd403a315f,0,100,100,70,1,fourtwo,,,,,,,,,,,,,,,,,,,,,,,,,,,,,,,,,,,,,,,,,,,,,,,,,,,,,,,,,,,,,,,,,,,,,,,,,,,,,,,,,,,,,,,,,,,,,,,,,,,,,,,,,,,,,,,,,,,,,,,,,,,,,,,,,,,,,,,,,,,,,,,,,,,,,,,,,,,,,
,,,,,,60943427c11ddfd172f619e3,62c53a5258c7705bdcbb4b3a,2022-07-06_02h31.56.961,Colour_Asymmetry_Pilot,2022.1.3,Win32,60.21919788,62c50e9c1127f2cd403a315f,0,101,101,4,1,threeone,,,,,,,,,,,,,,,,,,,,,,,,,,,,,,,,,,,,,,,,,,,,,,,,,,,,,,,,,,,,,,,,,,,,,,,,,,,,,,,,,,,,,,,,,,,,,,,,,,,,,,,,,,,,,,,,,,,,,,,,,,,,,,,,,,,,,,,,,,,,,,,,,,,,,,,,,,,,,
,,,,,,60943427c11ddfd172f619e3,62c53a5258c7705bdcbb4b3a,2022-07-06_02h31.56.961,Colour_Asymmetry_Pilot,2022.1.3,Win32,60.21919788,62c50e9c1127f2cd403a315f,0,102,102,12,1,threeone,,,,,,,,,,,,,,,,,,,,,,,,,,,,,,,,,,,,,,,,,,,,,,,,,,,,,,,,,,,,,,,,,,,,,,,,,,,,,,,,,,,,,,,,,,,,,,,,,,,,,,,,,,,,,,,,,,,,,,,,,,,,,,,,,,,,,,,,,,,,,,,,,,,,,,,,,,,,,
,,,,,,60943427c11ddfd172f619e3,62c53a5258c7705bdcbb4b3a,2022-07-06_02h31.56.961,Colour_Asymmetry_Pilot,2022.1.3,Win32,60.21919788,62c50e9c1127f2cd403a315f,0,103,103,56,1,onetwo,,,,,,,,,,,,,,,,,,,,,,,,,,,,,,,,,,,,,,,,,,,,,,,,,,,,,,,,,,,,,,,,,,,,,,,,,,,,,,,,,,,,,,,,,,,,,,,,,,,,,,,,,,,,,,,,,,,,,,,,,,,,,,,,,,,,,,,,,,,,,,,,,,,,,,,,,,,,,
,,,,,,60943427c11ddfd172f619e3,62c53a5258c7705bdcbb4b3a,2022-07-06_02h31.56.961,Colour_Asymmetry_Pilot,2022.1.3,Win32,60.21919788,62c50e9c1127f2cd403a315f,0,104,104,151,1,fourthree,,,,,,,,,,,,,,,,,,,,,,,,,,,,,,,,,,,,,,,,,,,,,,,,,,,,,,,,,,,,,,,,,,,,,,,,,,,,,,,,,,,,,,,,,,,,,,,,,,,,,,,,,,,,,,,,,,,,,,,,,,,,,,,,,,,,,,,,,,,,,,,,,,,,,,,,,,,,,
,,,,,,60943427c11ddfd172f619e3,62c53a5258c7705bdcbb4b3a,2022-07-06_02h31.56.961,Colour_Asymmetry_Pilot,2022.1.3,Win32,60.21919788,62c50e9c1127f2cd403a315f,0,105,105,23,1,fourthree,,,,,,,,,,,,,,,,,,,,,,,,,,,,,,,,,,,,,,,,,,,,,,,,,,,,,,,,,,,,,,,,,,,,,,,,,,,,,,,,,,,,,,,,,,,,,,,,,,,,,,,,,,,,,,,,,,,,,,,,,,,,,,,,,,,,,,,,,,,,,,,,,,,,,,,,,,,,,
,,,,,,60943427c11ddfd172f619e3,62c53a5258c7705bdcbb4b3a,2022-07-06_02h31.56.961,Colour_Asymmetry_Pilot,2022.1.3,Win32,60.21919788,62c50e9c1127f2cd403a315f,0,106,106,144,1,onetwo,,,,,,,,,,,,,,,,,,,,,,,,,,,,,,,,,,,,,,,,,,,,,,,,,,,,,,,,,,,,,,,,,,,,,,,,,,,,,,,,,,,,,,,,,,,,,,,,,,,,,,,,,,,,,,,,,,,,,,,,,,,,,,,,,,,,,,,,,,,,,,,,,,,,,,,,,,,,,
,,,,,,60943427c11ddfd172f619e3,62c53a5258c7705bdcbb4b3a,2022-07-06_02h31.56.961,Colour_Asymmetry_Pilot,2022.1.3,Win32,60.21919788,62c50e9c1127f2cd403a315f,0,107,107,156,1,threeone,,,,,,,,,,,,,,,,,,,,,,,,,,,,,,,,,,,,,,,,,,,,,,,,,,,,,,,,,,,,,,,,,,,,,,,,,,,,,,,,,,,,,,,,,,,,,,,,,,,,,,,,,,,,,,,,,,,,,,,,,,,,,,,,,,,,,,,,,,,,,,,,,,,,,,,,,,,,,
,,,,,,60943427c11ddfd172f619e3,62c53a5258c7705bdcbb4b3a,2022-07-06_02h31.56.961,Colour_Asymmetry_Pilot,2022.1.3,Win32,60.21919788,62c50e9c1127f2cd403a315f,0,108,108,36,1,threeone,,,,,,,,,,,,,,,,,,,,,,,,,,,,,,,,,,,,,,,,,,,,,,,,,,,,,,,,,,,,,,,,,,,,,,,,,,,,,,,,,,,,,,,,,,,,,,,,,,,,,,,,,,,,,,,,,,,,,,,,,,,,,,,,,,,,,,,,,,,,,,,,,,,,,,,,,,,,,
,,,,,,60943427c11ddfd172f619e3,62c53a5258c7705bdcbb4b3a,2022-07-06_02h31.56.961,Colour_Asymmetry_Pilot,2022.1.3,Win32,60.21919788,62c50e9c1127f2cd403a315f,0,109,109,6,1,fourtwo,,,,,,,,,,,,,,,,,,,,,,,,,,,,,,,,,,,,,,,,,,,,,,,,,,,,,,,,,,,,,,,,,,,,,,,,,,,,,,,,,,,,,,,,,,,,,,,,,,,,,,,,,,,,,,,,,,,,,,,,,,,,,,,,,,,,,,,,,,,,,,,,,,,,,,,,,,,,,
,,,,,,60943427c11ddfd172f619e3,62c53a5258c7705bdcbb4b3a,2022-07-06_02h31.56.961,Colour_Asymmetry_Pilot,2022.1.3,Win32,60.21919788,62c50e9c1127f2cd403a315f,0,110,110,131,1,twofour,,,,,,,,,,,,,,,,,,,,,,,,,,,,,,,,,,,,,,,,,,,,,,,,,,,,,,,,,,,,,,,,,,,,,,,,,,,,,,,,,,,,,,,,,,,,,,,,,,,,,,,,,,,,,,,,,,,,,,,,,,,,,,,,,,,,,,,,,,,,,,,,,,,,,,,,,,,,,
,,,,,,60943427c11ddfd172f619e3,62c53a5258c7705bdcbb4b3a,2022-07-06_02h31.56.961,Colour_Asymmetry_Pilot,2022.1.3,Win32,60.21919788,62c50e9c1127f2cd403a315f,0,111,111,59,1,twofour,,,,,,,,,,,,,,,,,,,,,,,,,,,,,,,,,,,,,,,,,,,,,,,,,,,,,,,,,,,,,,,,,,,,,,,,,,,,,,,,,,,,,,,,,,,,,,,,,,,,,,,,,,,,,,,,,,,,,,,,,,,,,,,,,,,,,,,,,,,,,,,,,,,,,,,,,,,,,
,,,,,,60943427c11ddfd172f619e3,62c53a5258c7705bdcbb4b3a,2022-07-06_02h31.56.961,Colour_Asymmetry_Pilot,2022.1.3,Win32,60.21919788,62c50e9c1127f2cd403a315f,0,112,112,72,1,onetwo,,,,,,,,,,,,,,,,,,,,,,,,,,,,,,,,,,,,,,,,,,,,,,,,,,,,,,,,,,,,,,,,,,,,,,,,,,,,,,,,,,,,,,,,,,,,,,,,,,,,,,,,,,,,,,,,,,,,,,,,,,,,,,,,,,,,,,,,,,,,,,,,,,,,,,,,,,,,,
,,,,,,60943427c11ddfd172f619e3,62c53a5258c7705bdcbb4b3a,2022-07-06_02h31.56.961,Colour_Asymmetry_Pilot,2022.1.3,Win32,60.21919788,62c50e9c1127f2cd403a315f,0,113,113,117,1,threefour,,,,,,,,,,,,,,,,,,,,,,,,,,,,,,,,,,,,,,,,,,,,,,,,,,,,,,,,,,,,,,,,,,,,,,,,,,,,,,,,,,,,,,,,,,,,,,,,,,,,,,,,,,,,,,,,,,,,,,,,,,,,,,,,,,,,,,,,,,,,,,,,,,,,,,,,,,,,,
,,,,,,60943427c11ddfd172f619e3,62c53a5258c7705bdcbb4b3a,2022-07-06_02h31.56.961,Colour_Asymmetry_Pilot,2022.1.3,Win32,60.21919788,62c50e9c1127f2cd403a315f,0,114,114,78,1,fourtwo,,,,,,,,,,,,,,,,,,,,,,,,,,,,,,,,,,,,,,,,,,,,,,,,,,,,,,,,,,,,,,,,,,,,,,,,,,,,,,,,,,,,,,,,,,,,,,,,,,,,,,,,,,,,,,,,,,,,,,,,,,,,,,,,,,,,,,,,,,,,,,,,,,,,,,,,,,,,,
,,,,,,60943427c11ddfd172f619e3,62c53a5258c7705bdcbb4b3a,2022-07-06_02h31.56.961,Colour_Asymmetry_Pilot,2022.1.3,Win32,60.21919788,62c50e9c1127f2cd403a315f,0,115,115,139,1,twofour,,,,,,,,,,,,,,,,,,,,,,,,,,,,,,,,,,,,,,,,,,,,,,,,,,,,,,,,,,,,,,,,,,,,,,,,,,,,,,,,,,,,,,,,,,,,,,,,,,,,,,,,,,,,,,,,,,,,,,,,,,,,,,,,,,,,,,,,,,,,,,,,,,,,,,,,,,,,,
,,,,,,60943427c11ddfd172f619e3,62c53a5258c7705bdcbb4b3a,2022-07-06_02h31.56.961,Colour_Asymmetry_Pilot,2022.1.3,Win32,60.21919788,62c50e9c1127f2cd403a315f,0,116,116,24,1,onetwo,,,,,,,,,,,,,,,,,,,,,,,,,,,,,,,,,,,,,,,,,,,,,,,,,,,,,,,,,,,,,,,,,,,,,,,,,,,,,,,,,,,,,,,,,,,,,,,,,,,,,,,,,,,,,,,,,,,,,,,,,,,,,,,,,,,,,,,,,,,,,,,,,,,,,,,,,,,,,
,,,,,,60943427c11ddfd172f619e3,62c53a5258c7705bdcbb4b3a,2022-07-06_02h31.56.961,Colour_Asymmetry_Pilot,2022.1.3,Win32,60.21919788,62c50e9c1127f2cd403a315f,0,117,117,96,1,onetwo,,,,,,,,,,,,,,,,,,,,,,,,,,,,,,,,,,,,,,,,,,,,,,,,,,,,,,,,,,,,,,,,,,,,,,,,,,,,,,,,,,,,,,,,,,,,,,,,,,,,,,,,,,,,,,,,,,,,,,,,,,,,,,,,,,,,,,,,,,,,,,,,,,,,,,,,,,,,,
,,,,,,60943427c11ddfd172f619e3,62c53a5258c7705bdcbb4b3a,2022-07-06_02h31.56.961,Colour_Asymmetry_Pilot,2022.1.3,Win32,60.21919788,62c50e9c1127f2cd403a315f,0,118,118,110,1,fourtwo,,,,,,,,,,,,,,,,,,,,,,,,,,,,,,,,,,,,,,,,,,,,,,,,,,,,,,,,,,,,,,,,,,,,,,,,,,,,,,,,,,,,,,,,,,,,,,,,,,,,,,,,,,,,,,,,,,,,,,,,,,,,,,,,,,,,,,,,,,,,,,,,,,,,,,,,,,,,,
,,,,,,60943427c11ddfd172f619e3,62c53a5258c7705bdcbb4b3a,2022-07-06_02h31.56.961,Colour_Asymmetry_Pilot,2022.1.3,Win32,60.21919788,62c50e9c1127f2cd403a315f,0,119,119,85,1,threefour,,,,,,,,,,,,,,,,,,,,,,,,,,,,,,,,,,,,,,,,,,,,,,,,,,,,,,,,,,,,,,,,,,,,,,,,,,,,,,,,,,,,,,,,,,,,,,,,,,,,,,,,,,,,,,,,,,,,,,,,,,,,,,,,,,,,,,,,,,,,,,,,,,,,,,,,,,,,,
,,,,,,60943427c11ddfd172f619e3,62c53a5258c7705bdcbb4b3a,2022-07-06_02h31.56.961,Colour_Asymmetry_Pilot,2022.1.3,Win32,60.21919788,62c50e9c1127f2cd403a315f,0,120,120,104,1,onetwo,,,,,,,,,,,,,,,,,,,,,,,,,,,,,,,,,,,,,,,,,,,,,,,,,,,,,,,,,,,,,,,,,,,,,,,,,,,,,,,,,,,,,,,,,,,,,,,,,,,,,,,,,,,,,,,,,,,,,,,,,,,,,,,,,,,,,,,,,,,,,,,,,,,,,,,,,,,,,
,,,,,,60943427c11ddfd172f619e3,62c53a5258c7705bdcbb4b3a,2022-07-06_02h31.56.961,Colour_Asymmetry_Pilot,2022.1.3,Win32,60.21919788,62c50e9c1127f2cd403a315f,0,121,121,31,1,fourthree,,,,,,,,,,,,,,,,,,,,,,,,,,,,,,,,,,,,,,,,,,,,,,,,,,,,,,,,,,,,,,,,,,,,,,,,,,,,,,,,,,,,,,,,,,,,,,,,,,,,,,,,,,,,,,,,,,,,,,,,,,,,,,,,,,,,,,,,,,,,,,,,,,,,,,,,,,,,,
,,,,,,60943427c11ddfd172f619e3,62c53a5258c7705bdcbb4b3a,2022-07-06_02h31.56.961,Colour_Asymmetry_Pilot,2022.1.3,Win32,60.21919788,62c50e9c1127f2cd403a315f,0,122,122,28,1,threeone,,,,,,,,,,,,,,,,,,,,,,,,,,,,,,,,,,,,,,,,,,,,,,,,,,,,,,,,,,,,,,,,,,,,,,,,,,,,,,,,,,,,,,,,,,,,,,,,,,,,,,,,,,,,,,,,,,,,,,,,,,,,,,,,,,,,,,,,,,,,,,,,,,,,,,,,,,,,,
,,,,,,60943427c11ddfd172f619e3,62c53a5258c7705bdcbb4b3a,2022-07-06_02h31.56.961,Colour_Asymmetry_Pilot,2022.1.3,Win32,60.21919788,62c50e9c1127f2cd403a315f,0,123,123,111,1,fourthree,,,,,,,,,,,,,,,,,,,,,,,,,,,,,,,,,,,,,,,,,,,,,,,,,,,,,,,,,,,,,,,,,,,,,,,,,,,,,,,,,,,,,,,,,,,,,,,,,,,,,,,,,,,,,,,,,,,,,,,,,,,,,,,,,,,,,,,,,,,,,,,,,,,,,,,,,,,,,
,,,,,,60943427c11ddfd172f619e3,62c53a5258c7705bdcbb4b3a,2022-07-06_02h31.56.961,Colour_Asymmetry_Pilot,2022.1.3,Win32,60.21919788,62c50e9c1127f2cd403a315f,0,124,124,122,1,twoone,,,,,,,,,,,,,,,,,,,,,,,,,,,,,,,,,,,,,,,,,,,,,,,,,,,,,,,,,,,,,,,,,,,,,,,,,,,,,,,,,,,,,,,,,,,,,,,,,,,,,,,,,,,,,,,,,,,,,,,,,,,,,,,,,,,,,,,,,,,,,,,,,,,,,,,,,,,,,
,,,,,,60943427c11ddfd172f619e3,62c53a5258c7705bdcbb4b3a,2022-07-06_02h31.56.961,Colour_Asymmetry_Pilot,2022.1.3,Win32,60.21919788,62c50e9c1127f2cd403a315f,0,125,125,92,1,threeone,,,,,,,,,,,,,,,,,,,,,,,,,,,,,,,,,,,,,,,,,,,,,,,,,,,,,,,,,,,,,,,,,,,,,,,,,,,,,,,,,,,,,,,,,,,,,,,,,,,,,,,,,,,,,,,,,,,,,,,,,,,,,,,,,,,,,,,,,,,,,,,,,,,,,,,,,,,,,
,,,,,,60943427c11ddfd172f619e3,62c53a5258c7705bdcbb4b3a,2022-07-06_02h31.56.961,Colour_Asymmetry_Pilot,2022.1.3,Win32,60.21919788,62c50e9c1127f2cd403a315f,0,126,126,80,1,onetwo,,,,,,,,,,,,,,,,,,,,,,,,,,,,,,,,,,,,,,,,,,,,,,,,,,,,,,,,,,,,,,,,,,,,,,,,,,,,,,,,,,,,,,,,,,,,,,,,,,,,,,,,,,,,,,,,,,,,,,,,,,,,,,,,,,,,,,,,,,,,,,,,,,,,,,,,,,,,,
,,,,,,60943427c11ddfd172f619e3,62c53a5258c7705bdcbb4b3a,2022-07-06_02h31.56.961,Colour_Asymmetry_Pilot,2022.1.3,Win32,60.21919788,62c50e9c1127f2cd403a315f,0,127,127,10,1,twoone,,,,,,,,,,,,,,,,,,,,,,,,,,,,,,,,,,,,,,,,,,,,,,,,,,,,,,,,,,,,,,,,,,,,,,,,,,,,,,,,,,,,,,,,,,,,,,,,,,,,,,,,,,,,,,,,,,,,,,,,,,,,,,,,,,,,,,,,,,,,,,,,,,,,,,,,,,,,,
,,,,,,60943427c11ddfd172f619e3,62c53a5258c7705bdcbb4b3a,2022-07-06_02h31.56.961,Colour_Asymmetry_Pilot,2022.1.3,Win32,60.21919788,62c50e9c1127f2cd403a315f,0,128,128,34,1,twoone,,,,,,,,,,,,,,,,,,,,,,,,,,,,,,,,,,,,,,,,,,,,,,,,,,,,,,,,,,,,,,,,,,,,,,,,,,,,,,,,,,,,,,,,,,,,,,,,,,,,,,,,,,,,,,,,,,,,,,,,,,,,,,,,,,,,,,,,,,,,,,,,,,,,,,,,,,,,,
,,,,,,60943427c11ddfd172f619e3,62c53a5258c7705bdcbb4b3a,2022-07-06_02h31.56.961,Colour_Asymmetry_Pilot,2022.1.3,Win32,60.21919788,62c50e9c1127f2cd403a315f,0,129,129,44,1,threeone,,,,,,,,,,,,,,,,,,,,,,,,,,,,,,,,,,,,,,,,,,,,,,,,,,,,,,,,,,,,,,,,,,,,,,,,,,,,,,,,,,,,,,,,,,,,,,,,,,,,,,,,,,,,,,,,,,,,,,,,,,,,,,,,,,,,,,,,,,,,,,,,,,,,,,,,,,,,,
,,,,,,60943427c11ddfd172f619e3,62c53a5258c7705bdcbb4b3a,2022-07-06_02h31.56.961,Colour_Asymmetry_Pilot,2022.1.3,Win32,60.21919788,62c50e9c1127f2cd403a315f,0,130,130,81,1,onethree,,,,,,,,,,,,,,,,,,,,,,,,,,,,,,,,,,,,,,,,,,,,,,,,,,,,,,,,,,,,,,,,,,,,,,,,,,,,,,,,,,,,,,,,,,,,,,,,,,,,,,,,,,,,,,,,,,,,,,,,,,,,,,,,,,,,,,,,,,,,,,,,,,,,,,,,,,,,,
,,,,,,60943427c11ddfd172f619e3,62c53a5258c7705bdcbb4b3a,2022-07-06_02h31.56.961,Colour_Asymmetry_Pilot,2022.1.3,Win32,60.21919788,62c50e9c1127f2cd403a315f,0,131,131,121,1,onethree,,,,,,,,,,,,,,,,,,,,,,,,,,,,,,,,,,,,,,,,,,,,,,,,,,,,,,,,,,,,,,,,,,,,,,,,,,,,,,,,,,,,,,,,,,,,,,,,,,,,,,,,,,,,,,,,,,,,,,,,,,,,,,,,,,,,,,,,,,,,,,,,,,,,,,,,,,,,,
,,,,,,60943427c11ddfd172f619e3,62c53a5258c7705bdcbb4b3a,2022-07-06_02h31.56.961,Colour_Asymmetry_Pilot,2022.1.3,Win32,60.21919788,62c50e9c1127f2cd403a315f,0,132,132,46,1,fourtwo,,,,,,,,,,,,,,,,,,,,,,,,,,,,,,,,,,,,,,,,,,,,,,,,,,,,,,,,,,,,,,,,,,,,,,,,,,,,,,,,,,,,,,,,,,,,,,,,,,,,,,,,,,,,,,,,,,,,,,,,,,,,,,,,,,,,,,,,,,,,,,,,,,,,,,,,,,,,,
,,,,,,60943427c11ddfd172f619e3,62c53a5258c7705bdcbb4b3a,2022-07-06_02h31.56.961,Colour_Asymmetry_Pilot,2022.1.3,Win32,60.21919788,62c50e9c1127f2cd403a315f,0,133,133,137,1,onethree,,,,,,,,,,,,,,,,,,,,,,,,,,,,,,,,,,,,,,,,,,,,,,,,,,,,,,,,,,,,,,,,,,,,,,,,,,,,,,,,,,,,,,,,,,,,,,,,,,,,,,,,,,,,,,,,,,,,,,,,,,,,,,,,,,,,,,,,,,,,,,,,,,,,,,,,,,,,,
,,,,,,60943427c11ddfd172f619e3,62c53a5258c7705bdcbb4b3a,2022-07-06_02h31.56.961,Colour_Asymmetry_Pilot,2022.1.3,Win32,60.21919788,62c50e9c1127f2cd403a315f,0,134,134,89,1,onethree,,,,,,,,,,,,,,,,,,,,,,,,,,,,,,,,,,,,,,,,,,,,,,,,,,,,,,,,,,,,,,,,,,,,,,,,,,,,,,,,,,,,,,,,,,,,,,,,,,,,,,,,,,,,,,,,,,,,,,,,,,,,,,,,,,,,,,,,,,,,,,,,,,,,,,,,,,,,,
,,,,,,60943427c11ddfd172f619e3,62c53a5258c7705bdcbb4b3a,2022-07-06_02h31.56.961,Colour_Asymmetry_Pilot,2022.1.3,Win32,60.21919788,62c50e9c1127f2cd403a315f,0,135,135,95,1,fourthree,,,,,,,,,,,,,,,,,,,,,,,,,,,,,,,,,,,,,,,,,,,,,,,,,,,,,,,,,,,,,,,,,,,,,,,,,,,,,,,,,,,,,,,,,,,,,,,,,,,,,,,,,,,,,,,,,,,,,,,,,,,,,,,,,,,,,,,,,,,,,,,,,,,,,,,,,,,,,
,,,,,,60943427c11ddfd172f619e3,62c53a5258c7705bdcbb4b3a,2022-07-06_02h31.56.961,Colour_Asymmetry_Pilot,2022.1.3,Win32,60.21919788,62c50e9c1127f2cd403a315f,0,136,136,19,1,twofour,,,,,,,,,,,,,,,,,,,,,,,,,,,,,,,,,,,,,,,,,,,,,,,,,,,,,,,,,,,,,,,,,,,,,,,,,,,,,,,,,,,,,,,,,,,,,,,,,,,,,,,,,,,,,,,,,,,,,,,,,,,,,,,,,,,,,,,,,,,,,,,,,,,,,,,,,,,,,
,,,,,,60943427c11ddfd172f619e3,62c53a5258c7705bdcbb4b3a,2022-07-06_02h31.56.961,Colour_Asymmetry_Pilot,2022.1.3,Win32,60.21919788,62c50e9c1127f2cd403a315f,0,137,137,75,1,twofour,,,,,,,,,,,,,,,,,,,,,,,,,,,,,,,,,,,,,,,,,,,,,,,,,,,,,,,,,,,,,,,,,,,,,,,,,,,,,,,,,,,,,,,,,,,,,,,,,,,,,,,,,,,,,,,,,,,,,,,,,,,,,,,,,,,,,,,,,,,,,,,,,,,,,,,,,,,,,
,,,,,,60943427c11ddfd172f619e3,62c53a5258c7705bdcbb4b3a,2022-07-06_02h31.56.961,Colour_Asymmetry_Pilot,2022.1.3,Win32,60.21919788,62c50e9c1127f2cd403a315f,0,138,138,127,1,fourthree,,,,,,,,,,,,,,,,,,,,,,,,,,,,,,,,,,,,,,,,,,,,,,,,,,,,,,,,,,,,,,,,,,,,,,,,,,,,,,,,,,,,,,,,,,,,,,,,,,,,,,,,,,,,,,,,,,,,,,,,,,,,,,,,,,,,,,,,,,,,,,,,,,,,,,,,,,,,,
,,,,,,60943427c11ddfd172f619e3,62c53a5258c7705bdcbb4b3a,2022-07-06_02h31.56.961,Colour_Asymmetry_Pilot,2022.1.3,Win32,60.21919788,62c50e9c1127f2cd403a315f,0,139,139,26,1,twoone,,,,,,,,,,,,,,,,,,,,,,,,,,,,,,,,,,,,,,,,,,,,,,,,,,,,,,,,,,,,,,,,,,,,,,,,,,,,,,,,,,,,,,,,,,,,,,,,,,,,,,,,,,,,,,,,,,,,,,,,,,,,,,,,,,,,,,,,,,,,,,,,,,,,,,,,,,,,,
,,,,,,60943427c11ddfd172f619e3,62c53a5258c7705bdcbb4b3a,2022-07-06_02h31.56.961,Colour_Asymmetry_Pilot,2022.1.3,Win32,60.21919788,62c50e9c1127f2cd403a315f,0,140,140,38,1,fourtwo,,,,,,,,,,,,,,,,,,,,,,,,,,,,,,,,,,,,,,,,,,,,,,,,,,,,,,,,,,,,,,,,,,,,,,,,,,,,,,,,,,,,,,,,,,,,,,,,,,,,,,,,,,,,,,,,,,,,,,,,,,,,,,,,,,,,,,,,,,,,,,,,,,,,,,,,,,,,,
,,,,,,60943427c11ddfd172f619e3,62c53a5258c7705bdcbb4b3a,2022-07-06_02h31.56.961,Colour_Asymmetry_Pilot,2022.1.3,Win32,60.21919788,62c50e9c1127f2cd403a315f,0,141,141,83,1,twofour,,,,,,,,,,,,,,,,,,,,,,,,,,,,,,,,,,,,,,,,,,,,,,,,,,,,,,,,,,,,,,,,,,,,,,,,,,,,,,,,,,,,,,,,,,,,,,,,,,,,,,,,,,,,,,,,,,,,,,,,,,,,,,,,,,,,,,,,,,,,,,,,,,,,,,,,,,,,,
,,,,,,60943427c11ddfd172f619e3,62c53a5258c7705bdcbb4b3a,2022-07-06_02h31.56.961,Colour_Asymmetry_Pilot,2022.1.3,Win32,60.21919788,62c50e9c1127f2cd403a315f,0,142,142,37,1,threefour,,,,,,,,,,,,,,,,,,,,,,,,,,,,,,,,,,,,,,,,,,,,,,,,,,,,,,,,,,,,,,,,,,,,,,,,,,,,,,,,,,,,,,,,,,,,,,,,,,,,,,,,,,,,,,,,,,,,,,,,,,,,,,,,,,,,,,,,,,,,,,,,,,,,,,,,,,,,,
,,,,,,60943427c11ddfd172f619e3,62c53a5258c7705bdcbb4b3a,2022-07-06_02h31.56.961,Colour_Asymmetry_Pilot,2022.1.3,Win32,60.21919788,62c50e9c1127f2cd403a315f,0,143,143,1,1,onethree,,,,,,,,,,,,,,,,,,,,,,,,,,,,,,,,,,,,,,,,,,,,,,,,,,,,,,,,,,,,,,,,,,,,,,,,,,,,,,,,,,,,,,,,,,,,,,,,,,,,,,,,,,,,,,,,,,,,,,,,,,,,,,,,,,,,,,,,,,,,,,,,,,,,,,,,,,,,,
,,,,,,60943427c11ddfd172f619e3,62c53a5258c7705bdcbb4b3a,2022-07-06_02h31.56.961,Colour_Asymmetry_Pilot,2022.1.3,Win32,60.21919788,62c50e9c1127f2cd403a315f,0,144,144,97,1,onethree,,,,,,,,,,,,,,,,,,,,,,,,,,,,,,,,,,,,,,,,,,,,,,,,,,,,,,,,,,,,,,,,,,,,,,,,,,,,,,,,,,,,,,,,,,,,,,,,,,,,,,,,,,,,,,,,,,,,,,,,,,,,,,,,,,,,,,,,,,,,,,,,,,,,,,,,,,,,,
,,,,,,60943427c11ddfd172f619e3,62c53a5258c7705bdcbb4b3a,2022-07-06_02h31.56.961,Colour_Asymmetry_Pilot,2022.1.3,Win32,60.21919788,62c50e9c1127f2cd403a315f,0,145,145,49,1,onethree,,,,,,,,,,,,,,,,,,,,,,,,,,,,,,,,,,,,,,,,,,,,,,,,,,,,,,,,,,,,,,,,,,,,,,,,,,,,,,,,,,,,,,,,,,,,,,,,,,,,,,,,,,,,,,,,,,,,,,,,,,,,,,,,,,,,,,,,,,,,,,,,,,,,,,,,,,,,,
,,,,,,60943427c11ddfd172f619e3,62c53a5258c7705bdcbb4b3a,2022-07-06_02h31.56.961,Colour_Asymmetry_Pilot,2022.1.3,Win32,60.21919788,62c50e9c1127f2cd403a315f,0,146,146,140,1,threeone,,,,,,,,,,,,,,,,,,,,,,,,,,,,,,,,,,,,,,,,,,,,,,,,,,,,,,,,,,,,,,,,,,,,,,,,,,,,,,,,,,,,,,,,,,,,,,,,,,,,,,,,,,,,,,,,,,,,,,,,,,,,,,,,,,,,,,,,,,,,,,,,,,,,,,,,,,,,,
,,,,,,60943427c11ddfd172f619e3,62c53a5258c7705bdcbb4b3a,2022-07-06_02h31.56.961,Colour_Asymmetry_Pilot,2022.1.3,Win32,60.21919788,62c50e9c1127f2cd403a315f,0,147,147,91,1,twofour,,,,,,,,,,,,,,,,,,,,,,,,,,,,,,,,,,,,,,,,,,,,,,,,,,,,,,,,,,,,,,,,,,,,,,,,,,,,,,,,,,,,,,,,,,,,,,,,,,,,,,,,,,,,,,,,,,,,,,,,,,,,,,,,,,,,,,,,,,,,,,,,,,,,,,,,,,,,,
,,,,,,60943427c11ddfd172f619e3,62c53a5258c7705bdcbb4b3a,2022-07-06_02h31.56.961,Colour_Asymmetry_Pilot,2022.1.3,Win32,60.21919788,62c50e9c1127f2cd403a315f,0,148,148,128,1,onetwo,,,,,,,,,,,,,,,,,,,,,,,,,,,,,,,,,,,,,,,,,,,,,,,,,,,,,,,,,,,,,,,,,,,,,,,,,,,,,,,,,,,,,,,,,,,,,,,,,,,,,,,,,,,,,,,,,,,,,,,,,,,,,,,,,,,,,,,,,,,,,,,,,,,,,,,,,,,,,
,,,,,,60943427c11ddfd172f619e3,62c53a5258c7705bdcbb4b3a,2022-07-06_02h31.56.961,Colour_Asymmetry_Pilot,2022.1.3,Win32,60.21919788,62c50e9c1127f2cd403a315f,0,149,149,13,1,threefour,,,,,,,,,,,,,,,,,,,,,,,,,,,,,,,,,,,,,,,,,,,,,,,,,,,,,,,,,,,,,,,,,,,,,,,,,,,,,,,,,,,,,,,,,,,,,,,,,,,,,,,,,,,,,,,,,,,,,,,,,,,,,,,,,,,,,,,,,,,,,,,,,,,,,,,,,,,,,
,,,,,,60943427c11ddfd172f619e3,62c53a5258c7705bdcbb4b3a,2022-07-06_02h31.56.961,Colour_Asymmetry_Pilot,2022.1.3,Win32,60.21919788,62c50e9c1127f2cd403a315f,0,150,150,125,1,threefour,,,,,,,,,,,,,,,,,,,,,,,,,,,,,,,,,,,,,,,,,,,,,,,,,,,,,,,,,,,,,,,,,,,,,,,,,,,,,,,,,,,,,,,,,,,,,,,,,,,,,,,,,,,,,,,,,,,,,,,,,,,,,,,,,,,,,,,,,,,,,,,,,,,,,,,,,,,,,
,,,,,,60943427c11ddfd172f619e3,62c53a5258c7705bdcbb4b3a,2022-07-06_02h31.56.961,Colour_Asymmetry_Pilot,2022.1.3,Win32,60.21919788,62c50e9c1127f2cd403a315f,0,151,151,50,1,twoone,,,,,,,,,,,,,,,,,,,,,,,,,,,,,,,,,,,,,,,,,,,,,,,,,,,,,,,,,,,,,,,,,,,,,,,,,,,,,,,,,,,,,,,,,,,,,,,,,,,,,,,,,,,,,,,,,,,,,,,,,,,,,,,,,,,,,,,,,,,,,,,,,,,,,,,,,,,,,
,,,,,,60943427c11ddfd172f619e3,62c53a5258c7705bdcbb4b3a,2022-07-06_02h31.56.961,Colour_Asymmetry_Pilot,2022.1.3,Win32,60.21919788,62c50e9c1127f2cd403a315f,0,152,152,53,1,threefour,,,,,,,,,,,,,,,,,,,,,,,,,,,,,,,,,,,,,,,,,,,,,,,,,,,,,,,,,,,,,,,,,,,,,,,,,,,,,,,,,,,,,,,,,,,,,,,,,,,,,,,,,,,,,,,,,,,,,,,,,,,,,,,,,,,,,,,,,,,,,,,,,,,,,,,,,,,,,
,,,,,,60943427c11ddfd172f619e3,62c53a5258c7705bdcbb4b3a,2022-07-06_02h31.56.961,Colour_Asymmetry_Pilot,2022.1.3,Win32,60.21919788,62c50e9c1127f2cd403a315f,0,153,153,116,1,threeone,,,,,,,,,,,,,,,,,,,,,,,,,,,,,,,,,,,,,,,,,,,,,,,,,,,,,,,,,,,,,,,,,,,,,,,,,,,,,,,,,,,,,,,,,,,,,,,,,,,,,,,,,,,,,,,,,,,,,,,,,,,,,,,,,,,,,,,,,,,,,,,,,,,,,,,,,,,,,
,,,,,,60943427c11ddfd172f619e3,62c53a5258c7705bdcbb4b3a,2022-07-06_02h31.56.961,Colour_Asymmetry_Pilot,2022.1.3,Win32,60.21919788,62c50e9c1127f2cd403a315f,0,154,154,86,1,fourtwo,,,,,,,,,,,,,,,,,,,,,,,,,,,,,,,,,,,,,,,,,,,,,,,,,,,,,,,,,,,,,,,,,,,,,,,,,,,,,,,,,,,,,,,,,,,,,,,,,,,,,,,,,,,,,,,,,,,,,,,,,,,,,,,,,,,,,,,,,,,,,,,,,,,,,,,,,,,,,
,,,,,,60943427c11ddfd172f619e3,62c53a5258c7705bdcbb4b3a,2022-07-06_02h31.56.961,Colour_Asymmetry_Pilot,2022.1.3,Win32,60.21919788,62c50e9c1127f2cd403a315f,0,155,155,100,1,threeone,,,,,,,,,,,,,,,,,,,,,,,,,,,,,,,,,,,,,,,,,,,,,,,,,,,,,,,,,,,,,,,,,,,,,,,,,,,,,,,,,,,,,,,,,,,,,,,,,,,,,,,,,,,,,,,,,,,,,,,,,,,,,,,,,,,,,,,,,,,,,,,,,,,,,,,,,,,,,
,,,,,,60943427c11ddfd172f619e3,62c53a5258c7705bdcbb4b3a,2022-07-06_02h31.56.961,Colour_Asymmetry_Pilot,2022.1.3,Win32,60.21919788,62c50e9c1127f2cd403a315f,0,156,156,132,1,threeone,,,,,,,,,,,,,,,,,,,,,,,,,,,,,,,,,,,,,,,,,,,,,,,,,,,,,,,,,,,,,,,,,,,,,,,,,,,,,,,,,,,,,,,,,,,,,,,,,,,,,,,,,,,,,,,,,,,,,,,,,,,,,,,,,,,,,,,,,,,,,,,,,,,,,,,,,,,,,
,,,,,,60943427c11ddfd172f619e3,62c53a5258c7705bdcbb4b3a,2022-07-06_02h31.56.961,Colour_Asymmetry_Pilot,2022.1.3,Win32,60.21919788,62c50e9c1127f2cd403a315f,0,157,157,148,1,threeone,,,,,,,,,,,,,,,,,,,,,,,,,,,,,,,,,,,,,,,,,,,,,,,,,,,,,,,,,,,,,,,,,,,,,,,,,,,,,,,,,,,,,,,,,,,,,,,,,,,,,,,,,,,,,,,,,,,,,,,,,,,,,,,,,,,,,,,,,,,,,,,,,,,,,,,,,,,,,
,,,,,,60943427c11ddfd172f619e3,62c53a5258c7705bdcbb4b3a,2022-07-06_02h31.56.961,Colour_Asymmetry_Pilot,2022.1.3,Win32,60.21919788,62c50e9c1127f2cd403a315f,0,158,158,103,1,fourthree,,,,,,,,,,,,,,,,,,,,,,,,,,,,,,,,,,,,,,,,,,,,,,,,,,,,,,,,,,,,,,,,,,,,,,,,,,,,,,,,,,,,,,,,,,,,,,,,,,,,,,,,,,,,,,,,,,,,,,,,,,,,,,,,,,,,,,,,,,,,,,,,,,,,,,,,,,,,,
,,,,,,60943427c11ddfd172f619e3,62c53a5258c7705bdcbb4b3a,2022-07-06_02h31.56.961,Colour_Asymmetry_Pilot,2022.1.3,Win32,60.21919788,62c50e9c1127f2cd403a315f,0,159,159,120,1,onetwo,,,,,,,,,,,,,,,,,,,,,,,,,,,,,,,,,,,,,,,,,,,,,,,,,,,,,,,,,,,,,,,,,,,,,,,,,,,,,,,,,,,,,,,,,,,,,,,,,,,,,,,,,,,,,,,,,,,,,,,,,,,,,,,,,,,,,,,,,,,,,,,,,,,,,,,,,,,,,
,,,,,,60943427c11ddfd172f619e3,62c53a5258c7705bdcbb4b3a,2022-07-06_02h31.56.961,Colour_Asymmetry_Pilot,2022.1.3,Win32,60.21919788,62c50e9c1127f2cd403a315f,0,160,160,84,1,threeone,,,,,,,,,,,,,,,,,,,,,,,,,,,,,,,,,,,,,,,,,,,,,,,,,,,,,,,,,,,,,,,,,,,,,,,,,,,,,,,,,,,,,,,,,,,,,,,,,,,,,,,,,,,,,,,,,,,,,,,,,,,,,,,,,,,,,,,,,,,,,,,,,,,,,,,,,,,,,
,,,,,,60943427c11ddfd172f619e3,62c53a5258c7705bdcbb4b3a,2022-07-06_02h31.56.961,Colour_Asymmetry_Pilot,2022.1.3,Win32,60.21919788,62c50e9c1127f2cd403a315f,0,161,161,93,1,threefour,,,,,,,,,,,,,,,,,,,,,,,,,,,,,,,,,,,,,,,,,,,,,,,,,,,,,,,,,,,,,,,,,,,,,,,,,,,,,,,,,,,,,,,,,,,,,,,,,,,,,,,,,,,,,,,,,,,,,,,,,,,,,,,,,,,,,,,,,,,,,,,,,,,,,,,,,,,,,
,,,,,,60943427c11ddfd172f619e3,62c53a5258c7705bdcbb4b3a,2022-07-06_02h31.56.961,Colour_Asymmetry_Pilot,2022.1.3,Win32,60.21919788,62c50e9c1127f2cd403a315f,,,,,,,space,1.0171,space,1.5233,space,4.9572,space,3.5778,space,394.9834,space,1.7125,"[-0.4746,-0.0354000000000001,0.5449999999999999]",threefour,"[-0.9766,-0.6472,0.07440000000000002]",2,21.5412,125.6000366,-52.80001831,1,0,0,response3disk_5,-2.399963379,-8,1,0,0,rectangle_8,119.2000122,47.19998169,1,0,0,response1disk_7,6,3,-2.399963379,6.399993896,1,0,0,rectangle_4,0,0,0,0,1,,,,,,,,,,,,,,,,,,,,,,,,,,,,,,,,,,,,,,,,,,,,,,,,,,,,,,,,,,,,,,,,,,,,,,,,,,,,,,,,,,,,,,,,,,,,,,,,,,,,,,,,,,,,,
,,,,,,60943427c11ddfd172f619e3,62c53a5258c7705bdcbb4b3a,2022-07-06_02h31.56.961,Colour_Asymmetry_Pilot,2022.1.3,Win32,60.21919788,62c50e9c1127f2cd403a315f,,,,,,,,,,,,,,,,,,,"[0.5449999999999999,-0.31000000000000005,-0.0354000000000001]",fourthree,"[-0.9216,-0.5529999999999999,-0.3962]",-4,4.2099,-66.39996338,102.3999939,1,0,0,response7disk_5,13.60003662,1.600006104,1,0,0,rectangle_8,13.60003662,1.600006104,1,0,0,,,3,13.60003662,1.600006104,1,0,0,,1,0,1,0,1,,,,,,,,,,,,,,,,,,,,,,,,,,,,,,,,,,,,,,,,,,,,,,,,,,,,,,,,,,,,,,,,,,,,,,,,,,,,,,,,,,,,,,,,,,,,,,,,,,,,,,,,,,,,,
,,,,,,60943427c11ddfd172f619e3,62c53a5258c7705bdcbb4b3a,2022-07-06_02h31.56.961,Colour_Asymmetry_Pilot,2022.1.3,Win32,60.21919788,62c50e9c1127f2cd403a315f,,,,,,,,,,,,,,,,,,,"[-0.5688,-0.08239999999999992,-0.1844]",onethree,"[-0.17659999999999998,0.3253999999999999,0.19999999999999996]",2,2.2964,96.79998779,-43.20001221,1,0,0,response3disk_5,-0.799987793,4.799987793,1,0,0,rectangle_8,-0.799987793,4.799987793,1,0,0,,,3,-0.799987793,4.799987793,1,0,0,,2,0,2,0,1,,,,,,,,,,,,,,,,,,,,,,,,,,,,,,,,,,,,,,,,,,,,,,,,,,,,,,,,,,,,,,,,,,,,,,,,,,,,,,,,,,,,,,,,,,,,,,,,,,,,,,,,,,,,,
,,,,,,60943427c11ddfd172f619e3,62c53a5258c7705bdcbb4b3a,2022-07-06_02h31.56.961,Colour_Asymmetry_Pilot,2022.1.3,Win32,60.21919788,62c50e9c1127f2cd403a315f,,,,,,,,,,,,,,,,,,,"[0.9686000000000001,0.3802000000000001,0.19999999999999996]",onetwo,"[0.9686000000000001,0.5763999999999998,0.11359999999999992]",3,2.2465,78.40002441,24.79998779,1,0,0,response1disk_5,-7.200012207,6.399993896,1,0,0,rectangle_8,-7.200012207,6.399993896,1,0,0,,,3,-7.200012207,6.399993896,1,0,0,,3,0,3,0,1,,,,,,,,,,,,,,,,,,,,,,,,,,,,,,,,,,,,,,,,,,,,,,,,,,,,,,,,,,,,,,,,,,,,,,,,,,,,,,,,,,,,,,,,,,,,,,,,,,,,,,,,,,,,,
,,,,,,60943427c11ddfd172f619e3,62c53a5258c7705bdcbb4b3a,2022-07-06_02h31.56.961,Colour_Asymmetry_Pilot,2022.1.3,Win32,60.21919788,62c50e9c1127f2cd403a315f,,,,,,,,,,,,,,,,,,,"[0.05879999999999996,0.2784,0.5841999999999998]",threeone,"[-0.9766,-0.6472,0.07440000000000002]",-2,4.2765,-134.3999634,-52.80001831,1,0,0,response5disk_5,11.20001221,-4,1,0,0,rectangle_8,103.2000122,71.19998169,1,0,0,response1disk_7,6,3,19.20001221,-6.399993896,1,0,0,rectangle_4,4,0,4,0,1,,,,,,,,,,,,,,,,,,,,,,,,,,,,,,,,,,,,,,,,,,,,,,,,,,,,,,,,,,,,,,,,,,,,,,,,,,,,,,,,,,,,,,,,,,,,,,,,,,,,,,,,,,,,,
,,,,,,60943427c11ddfd172f619e3,62c53a5258c7705bdcbb4b3a,2022-07-06_02h31.56.961,Colour_Asymmetry_Pilot,2022.1.3,Win32,60.21919788,62c50e9c1127f2cd403a315f,,,,,,,,,,,,,,,,,,,"[-0.10599999999999998,-0.10599999999999998,0.5841999999999998]",onethree,"[0.8274000000000001,-0.5844,-0.9452]",-4,2.6291,-33.59997559,87.19998169,1,0,0,response7disk_5,24,2.399993896,1,0,0,rectangle_8,24,2.399993896,1,0,0,,,3,24,2.399993896,1,0,0,,5,0,5,0,1,,,,,,,,,,,,,,,,,,,,,,,,,,,,,,,,,,,,,,,,,,,,,,,,,,,,,,,,,,,,,,,,,,,,,,,,,,,,,,,,,,,,,,,,,,,,,,,,,,,,,,,,,,,,,
,,,,,,60943427c11ddfd172f619e3,62c53a5258c7705bdcbb4b3a,2022-07-06_02h31.56.961,Colour_Asymmetry_Pilot,2022.1.3,Win32,60.21919788,62c50e9c1127f2cd403a315f,,,,,,,,,,,,,,,,,,,"[-0.6,0.16860000000000008,0.44300000000000006]",twoone,"[-0.8198,-0.5138,-0.7492000000000001]",-2,3.0782,-81.59997559,-21.6000061,1,0,0,response5disk_5,2.400024414,3.199981689,1,0,0,rectangle_8,2.400024414,3.199981689,1,0,0,,,3,2.400024414,3.199981689,1,0,0,,6,0,6,0,1,,,,,,,,,,,,,,,,,,,,,,,,,,,,,,,,,,,,,,,,,,,,,,,,,,,,,,,,,,,,,,,,,,,,,,,,,,,,,,,,,,,,,,,,,,,,,,,,,,,,,,,,,,,,,
,,,,,,60943427c11ddfd172f619e3,62c53a5258c7705bdcbb4b3a,2022-07-06_02h31.56.961,Colour_Asymmetry_Pilot,2022.1.3,Win32,60.21919788,62c50e9c1127f2cd403a315f,,,,,,,,,,,,,,,,,,,,fourthree,,-4,1.0268,,,,,,,,,,,,,,,,,,,,,,,,,,,,,,,,space,198.1523,"[0.9686000000000001,0.5763999999999998,0.11359999999999992]","[-0.4276,0.0038000000000000256,-0.3256]",-37.59997559,104,1,0,0,response7disk,27.20001221,8,1,0,0,rectangle,27.20001221,8,1,0,0,,3,0.0014,0,27.20001221,8,1,0,0,0,0,0,100,1,19,second,,,,,,,,,,,,,,,,,,,,,,,,,,,,,,,,,,,,,,,,,,,,,,,,,,,,,,,,,,,,,,,,,,,,,,,,
,,,,,,60943427c11ddfd172f619e3,62c53a5258c7705bdcbb4b3a,2022-07-06_02h31.56.961,Colour_Asymmetry_Pilot,2022.1.3,Win32,60.21919788,62c50e9c1127f2cd403a315f,,,,,,,,,,,,,,,,,,,,threefour,,-4,0.6471,,,,,,,,,,,,,,,,,,,,,,,,,,,,,,,,,,"[-0.9688,-0.7412000000000001,-0.4902000000000001]","[-0.17659999999999998,-0.2864,-0.8354]",-29.59997559,67.19998169,1,0,0,response7disk,-18.39996338,6.399993896,1,0,0,rectangle,-18.39996338,6.399993896,1,0,0,,3,0.0005,0,-18.39996338,6.399993896,1,0,0,0,1,1,34,1,34,first,,,,,,,,,,,,,,,,,,,,,,,,,,,,,,,,,,,,,,,,,,,,,,,,,,,,,,,,,,,,,,,,,,,,,,,,
,,,,,,60943427c11ddfd172f619e3,62c53a5258c7705bdcbb4b3a,2022-07-06_02h31.56.961,Colour_Asymmetry_Pilot,2022.1.3,Win32,60.21919788,62c50e9c1127f2cd403a315f,,,,,,,,,,,,,,,,,,,,threefour,,-4,0.5158,,,,,,,,,,,,,,,,,,,,,,,,,,,,,,,,,,"[0.796,0.2156,-0.27859999999999996]","[-0.5452,-0.608,0.2470000000000001]",-63.20001221,88.79998779,1,0,0,response7disk,-6.399963379,5.600006104,1,0,0,rectangle,-6.399963379,5.600006104,1,0,0,,2,0.0021,0,-6.399963379,5.600006104,1,0,0,0,2,2,40,1,40,first,,,,,,,,,,,,,,,,,,,,,,,,,,,,,,,,,,,,,,,,,,,,,,,,,,,,,,,,,,,,,,,,,,,,,,,,
,,,,,,60943427c11ddfd172f619e3,62c53a5258c7705bdcbb4b3a,2022-07-06_02h31.56.961,Colour_Asymmetry_Pilot,2022.1.3,Win32,60.21919788,62c50e9c1127f2cd403a315f,,,,,,,,,,,,,,,,,,,,fourtwo,,4,1.2971,,,,,,,,,,,,,,,,,,,,,,,,,,,,,,,,,,"[-0.17659999999999998,0.3253999999999999,0.19999999999999996]","[-0.48240000000000005,0.3175999999999999,0.2156]",54.40002441,77.6000061,1,0,0,response1disk,-10.39996338,5.600006104,1,0,0,rectangle,-10.39996338,5.600006104,1,0,0,,1,0.0011,0,-10.39996338,5.600006104,1,0,0,0,3,3,24,1,24,first,,,,,,,,,,,,,,,,,,,,,,,,,,,,,,,,,,,,,,,,,,,,,,,,,,,,,,,,,,,,,,,,,,,,,,,,
,,,,,,60943427c11ddfd172f619e3,62c53a5258c7705bdcbb4b3a,2022-07-06_02h31.56.961,Colour_Asymmetry_Pilot,2022.1.3,Win32,60.21919788,62c50e9c1127f2cd403a315f,,,,,,,,,,,,,,,,,,,,fourthree,,4,0.8295,,,,,,,,,,,,,,,,,,,,,,,,,,,,,,,,,,"[0.40379999999999994,0.09000000000000008,0.44300000000000006]","[0.40379999999999994,0.09000000000000008,0.44300000000000006]",62.40002441,91.19998169,1,0,0,response1disk,-16.79998779,-7.200012207,1,0,0,rectangle,-16.79998779,-7.200012207,1,0,0,,1,0.0002,0,-16.79998779,-7.200012207,1,0,0,0,4,4,152,1,71,second,,,,,,,,,,,,,,,,,,,,,,,,,,,,,,,,,,,,,,,,,,,,,,,,,,,,,,,,,,,,,,,,,,,,,,,,
,,,,,,60943427c11ddfd172f619e3,62c53a5258c7705bdcbb4b3a,2022-07-06_02h31.56.961,Colour_Asymmetry_Pilot,2022.1.3,Win32,60.21919788,62c50e9c1127f2cd403a315f,,,,,,,,,,,,,,,,,,,,twoone,,-4,0.899,,,,,,,,,,,,,,,,,,,,,,,,,,,,,,,,,,"[-0.48240000000000005,0.3175999999999999,0.2156]","[-0.26280000000000003,-0.4746,-0.2158]",-29.59997559,47.19998169,1,0,0,response7disk,18.40002441,2.399993896,1,0,0,rectangle,18.40002441,2.399993896,1,0,0,,1,0.0008,0,18.40002441,2.399993896,1,0,0,0,5,5,122,1,41,second,,,,,,,,,,,,,,,,,,,,,,,,,,,,,,,,,,,,,,,,,,,,,,,,,,,,,,,,,,,,,,,,,,,,,,,,
,,,,,,60943427c11ddfd172f619e3,62c53a5258c7705bdcbb4b3a,2022-07-06_02h31.56.961,Colour_Asymmetry_Pilot,2022.1.3,Win32,60.21919788,62c50e9c1127f2cd403a315f,,,,,,,,,,,,,,,,,,,,threefour,,-4,0.7309,,,,,,,,,,,,,,,,,,,,,,,,,,,,,,,,,,"[0.9213999999999998,0.6391999999999998,-0.9922]","[0.09799999999999986,-0.24719999999999998,0.15280000000000005]",-44.79998779,58.3999939,1,0,0,response7disk,1.600036621,-11.20001221,1,0,0,rectangle,1.600036621,-11.20001221,1,0,0,,2,0.0006,0,1.600036621,-11.20001221,1,0,0,0,6,6,134,1,53,second,,,,,,,,,,,,,,,,,,,,,,,,,,,,,,,,,,,,,,,,,,,,,,,,,,,,,,,,,,,,,,,,,,,,,,,,
,,,,,,60943427c11ddfd172f619e3,62c53a5258c7705bdcbb4b3a,2022-07-06_02h31.56.961,Colour_Asymmetry_Pilot,2022.1.3,Win32,60.21919788,62c50e9c1127f2cd403a315f,,,,,,,,,,,,,,,,,,,,threeone,,3,1.8131,,,,,,,,,,,,,,,,,,,,,,,,,,,,,,,,,,"[-0.17659999999999998,-0.2864,-0.8354]","[-0.45899999999999996,-0.3256,-0.9374]",107.2000122,26.3999939,1,0,0,response1disk,-4.799987793,-4,1,0,0,rectangle,98.40002441,75.19998169,1,0,0,3,3,2.8653,1,20,-2.399993896,1,0,0,0,7,7,161,1,80,second,response1disk_3,rectangle,,,,,,,,,,,,,,,,,,,,,,,,,,,,,,,,,,,,,,,,,,,,,,,,,,,,,,,,,,,,,,,,,,,,,,
,,,,,,60943427c11ddfd172f619e3,62c53a5258c7705bdcbb4b3a,2022-07-06_02h31.56.961,Colour_Asymmetry_Pilot,2022.1.3,Win32,60.21919788,62c50e9c1127f2cd403a315f,,,,,,,,,,,,,,,,,,,,fourthree,,-4,0.4967,,,,,,,,,,,,,,,,,,,,,,,,,,,,,,,,,,"[-0.9766,-0.6472,0.07440000000000002]","[0.9763999999999999,-0.1137999999999999,-0.6314]",-52,111.1999817,1,0,0,response7disk,-21.59997559,8.799987793,1,0,0,rectangle,-21.59997559,8.799987793,1,0,0,3,3,0.0001,0,-21.59997559,8.799987793,1,0,0,0,8,8,26,1,26,first,,,,,,,,,,,,,,,,,,,,,,,,,,,,,,,,,,,,,,,,,,,,,,,,,,,,,,,,,,,,,,,,,,,,,,,,
,,,,,,60943427c11ddfd172f619e3,62c53a5258c7705bdcbb4b3a,2022-07-06_02h31.56.961,Colour_Asymmetry_Pilot,2022.1.3,Win32,60.21919788,62c50e9c1127f2cd403a315f,,,,,,,,,,,,,,,,,,,,onethree,,3,1.2481,,,,,,,,,,,,,,,,,,,,,,,,,,,,,,,,,,"[0.3802000000000001,0.19199999999999995,-0.6394]","[0.04299999999999993,0.16060000000000008,-0.6628000000000001]",129.6000366,37.6000061,1,0,0,response1disk,19.20001221,6.399993896,1,0,0,rectangle,19.20001221,6.399993896,1,0,0,3,3,0.0003,0,19.20001221,6.399993896,1,0,0,0,9,9,95,1,14,second,,,,,,,,,,,,,,,,,,,,,,,,,,,,,,,,,,,,,,,,,,,,,,,,,,,,,,,,,,,,,,,,,,,,,,,,
,,,,,,60943427c11ddfd172f619e3,62c53a5258c7705bdcbb4b3a,2022-07-06_02h31.56.961,Colour_Asymmetry_Pilot,2022.1.3,Win32,60.21919788,62c50e9c1127f2cd403a315f,,,,,,,,,,,,,,,,,,,,fourtwo,,-4,0.7656,,,,,,,,,,,,,,,,,,,,,,,,,,,,,,,,,,"[0.9372,0.9450000000000001,0.8980000000000001]","[-0.9688,-0.4902000000000001,-0.12159999999999993]",-58.39996338,96.79998779,1,0,0,response7disk,1.600036621,15.19998169,1,0,0,rectangle,1.600036621,15.19998169,1,0,0,3,3,0.0002,0,1.600036621,15.19998169,1,0,0,0,10,10,2,1,2,first,,,,,,,,,,,,,,,,,,,,,,,,,,,,,,,,,,,,,,,,,,,,,,,,,,,,,,,,,,,,,,,,,,,,,,,,
,,,,,,60943427c11ddfd172f619e3,62c53a5258c7705bdcbb4b3a,2022-07-06_02h31.56.961,Colour_Asymmetry_Pilot,2022.1.3,Win32,60.21919788,62c50e9c1127f2cd403a315f,,,,,,,,,,,,,,,,,,,,fourtwo,,-4,1.9804,,,,,,,,,,,,,,,,,,,,,,,,,,,,,,,,,,"[0.22340000000000004,-0.9296,-0.7884]","[-0.07459999999999989,0.12139999999999995,-0.9922]",-61.59997559,115.1999817,1,0,0,response7disk,0,10.3999939,1,0,0,rectangle,0,10.3999939,1,0,0,3,3,9.99999E-05,0,0,10.3999939,1,0,0,0,11,11,13,1,13,first,,,,,,,,,,,,,,,,,,,,,,,,,,,,,,,,,,,,,,,,,,,,,,,,,,,,,,,,,,,,,,,,,,,,,,,,
,,,,,,60943427c11ddfd172f619e3,62c53a5258c7705bdcbb4b3a,2022-07-06_02h31.56.961,Colour_Asymmetry_Pilot,2022.1.3,Win32,60.21919788,62c50e9c1127f2cd403a315f,,,,,,,,,,,,,,,,,,,,twofour,,-4,1.0317,,,,,,,,,,,,,,,,,,,,,,,,,,,,,,,,,,"[0.6625999999999999,0.4980000000000002,-0.357]","[0.9372,0.20779999999999998,0.2704]",-20,81.6000061,1,0,0,response7disk,-18.39996338,-4.800018311,1,0,0,rectangle,-18.39996338,-4.800018311,1,0,0,3,2,0.0012,0,-18.39996338,-4.800018311,1,0,0,0,12,12,101,1,20,second,,,,,,,,,,,,,,,,,,,,,,,,,,,,,,,,,,,,,,,,,,,,,,,,,,,,,,,,,,,,,,,,,,,,,,,,
,,,,,,60943427c11ddfd172f619e3,62c53a5258c7705bdcbb4b3a,2022-07-06_02h31.56.961,Colour_Asymmetry_Pilot,2022.1.3,Win32,60.21919788,62c50e9c1127f2cd403a315f,,,,,,,,,,,,,,,,,,,,fourtwo,,-4,0.4991,,,,,,,,,,,,,,,,,,,,,,,,,,,,,,,,,,"[0.19199999999999995,0.18419999999999992,0.5136000000000001]","[0.9213999999999998,0.6391999999999998,-0.9922]",-48.79998779,74.3999939,1,0,0,response7disk,-12,2.399993896,1,0,0,rectangle,-12,2.399993896,1,0,0,3,1,0.0041,0,-12,2.399993896,1,0,0,0,13,13,72,1,72,first,,,,,,,,,,,,,,,,,,,,,,,,,,,,,,,,,,,,,,,,,,,,,,,,,,,,,,,,,,,,,,,,,,,,,,,,
,,,,,,60943427c11ddfd172f619e3,62c53a5258c7705bdcbb4b3a,2022-07-06_02h31.56.961,Colour_Asymmetry_Pilot,2022.1.3,Win32,60.21919788,62c50e9c1127f2cd403a315f,,,,,,,,,,,,,,,,,,,,fourtwo,,-4,0.3828,,,,,,,,,,,,,,,,,,,,,,,,,,,,,,,,,,"[0.23120000000000007,-0.7726,-0.34120000000000006]","[-0.09019999999999995,0.44300000000000006,0.5371999999999999]",-43.20001221,66.3999939,1,0,0,response7disk,-23.20001221,3.199981689,1,0,0,rectangle,-23.20001221,3.199981689,1,0,0,3,3,0.0009,0,-23.20001221,3.199981689,1,0,0,0,14,14,23,1,23,first,,,,,,,,,,,,,,,,,,,,,,,,,,,,,,,,,,,,,,,,,,,,,,,,,,,,,,,,,,,,,,,,,,,,,,,,
