trials.thisRepN,trials.thisTrialN,trials.thisN,trials.thisIndex,trials.ran,Colourcodes,participant,session,date,expName,psychopyVersion,OS,frameRate,study_id,trials_4.thisRepN,trials_4.thisTrialN,trials_4.thisN,trials_4.thisIndex,trials_4.ran,StimulusPos,key_resp.keys,key_resp.rt,key_resp_2.keys,key_resp_2.rt,key_resp_15.keys,key_resp_15.rt,key_resp_17.keys,key_resp_17.rt,key_resp_9.keys,key_resp_9.rt,key_resp_10.keys,key_resp_10.rt,Circle1_col,Ecc,Circle2_col,similarity,response_time,mouse_5.x,mouse_5.y,mouse_5.leftButton,mouse_5.midButton,mouse_5.rightButton,mouse_5.clicked_name,mouse_10.x,mouse_10.y,mouse_10.leftButton,mouse_10.midButton,mouse_10.rightButton,mouse_10.clicked_name,mouse_7.x,mouse_7.y,mouse_7.leftButton,mouse_7.midButton,mouse_7.rightButton,catchnumberprac,mouse_6.x,mouse_6.y,mouse_6.leftButton,mouse_6.midButton,mouse_6.rightButton,duringprac.thisRepN,duringprac.thisTrialN,duringprac.thisN,duringprac.thisIndex,duringprac.ran,mouse_7.clicked_name,catchprac,mouse_6.clicked_name,key_resp_22.keys,key_resp_22.rt,Circle1_colour,Circle2_colour,mouse.x,mouse.y,mouse.leftButton,mouse.midButton,mouse.rightButton,mouse.clicked_name,mouse_2.x,mouse_2.y,mouse_2.leftButton,mouse_2.midButton,mouse_2.rightButton,mouse_2.clicked_name,mouse_3.x,mouse_3.y,mouse_3.leftButton,mouse_3.midButton,mouse_3.rightButton,catchresponse,catchnumber,response_time_catch,Catch,mouse_11.x,mouse_11.y,mouse_11.leftButton,mouse_11.midButton,mouse_11.rightButton,trials_2.thisRepN,trials_2.thisTrialN,trials_2.thisN,trials_2.thisIndex,trials_2.ran,Colourpair,Temporder,mouse_3.clicked_name,mouse_11.clicked_name,trials_3.thisRepN,trials_3.thisTrialN,trials_3.thisN,trials_3.thisIndex,trials_3.ran,key_resp_instr_Ishi.keys,key_resp_instr_Ishi.rt,Ishi_trial_keyresp.keys,Ishi_textbox.text,Ishi_mouse.x,Ishi_mouse.y,Ishi_mouse.leftButton,Ishi_mouse.midButton,Ishi_mouse.rightButton,Ishi_mouse.clicked_name,Ishi_loop.thisRepN,Ishi_loop.thisTrialN,Ishi_loop.thisN,Ishi_loop.thisIndex,Ishi_loop.ran,imageaddress,textbox.text,mouse_4.x,mouse_4.y,mouse_4.leftButton,mouse_4.midButton,mouse_4.rightButton,mouse_4.clicked_name,textbox_2.text,mouse_8.x,mouse_8.y,mouse_8.leftButton,mouse_8.midButton,mouse_8.rightButton,mouse_8.clicked_name,textbox_3.text,mouse_9.x,mouse_9.y,mouse_9.leftButton,mouse_9.midButton,mouse_9.rightButton,mouse_9.clicked_name,textbox_4.text,mouse_12.x,mouse_12.y,mouse_12.leftButton,mouse_12.midButton,mouse_12.rightButton,mouse_12.clicked_name,textbox_5.text,mouse_13.x,mouse_13.y,mouse_13.leftButton,mouse_13.midButton,mouse_13.rightButton,mouse_13.clicked_name,textbox_6.text,mouse_14.x,mouse_14.y,mouse_14.leftButton,mouse_14.midButton,mouse_14.rightButton,mouse_14.clicked_name,textbox_7.text,mouse_15.x,mouse_15.y,mouse_15.leftButton,mouse_15.midButton,mouse_15.rightButton,mouse_15.clicked_name
0,0,0,39,1,,6154d702c164d49259d6cc20,62c53a59f799e9c1f976a8f6,2022-07-06_09h31.51.324,Colour_Asymmetry_Pilot,2022.1.3,Win32,144.0714594,62c50e9c1127f2cd403a315f,,,,,,,,,,,,,,,,,,,,,,,,,,,,,,,,,,,,,,,,,,,,,,,,,,,,,,,,,,,,,,,,,,,,,,,,,,,,,,,,,,,,,,,,,,,,,,,,,,,,,,,,,,,,,,,,,,,,,,,,,,,,,,,,,,,,,,,,,,,,,,,,,,,,,,,,,,,,,,,,,,,
0,1,1,36,1,,6154d702c164d49259d6cc20,62c53a59f799e9c1f976a8f6,2022-07-06_09h31.51.324,Colour_Asymmetry_Pilot,2022.1.3,Win32,144.0714594,62c50e9c1127f2cd403a315f,,,,,,,,,,,,,,,,,,,,,,,,,,,,,,,,,,,,,,,,,,,,,,,,,,,,,,,,,,,,,,,,,,,,,,,,,,,,,,,,,,,,,,,,,,,,,,,,,,,,,,,,,,,,,,,,,,,,,,,,,,,,,,,,,,,,,,,,,,,,,,,,,,,,,,,,,,,,,,,,,,,
0,2,2,20,1,,6154d702c164d49259d6cc20,62c53a59f799e9c1f976a8f6,2022-07-06_09h31.51.324,Colour_Asymmetry_Pilot,2022.1.3,Win32,144.0714594,62c50e9c1127f2cd403a315f,,,,,,,,,,,,,,,,,,,,,,,,,,,,,,,,,,,,,,,,,,,,,,,,,,,,,,,,,,,,,,,,,,,,,,,,,,,,,,,,,,,,,,,,,,,,,,,,,,,,,,,,,,,,,,,,,,,,,,,,,,,,,,,,,,,,,,,,,,,,,,,,,,,,,,,,,,,,,,,,,,,
0,3,3,49,1,,6154d702c164d49259d6cc20,62c53a59f799e9c1f976a8f6,2022-07-06_09h31.51.324,Colour_Asymmetry_Pilot,2022.1.3,Win32,144.0714594,62c50e9c1127f2cd403a315f,,,,,,,,,,,,,,,,,,,,,,,,,,,,,,,,,,,,,,,,,,,,,,,,,,,,,,,,,,,,,,,,,,,,,,,,,,,,,,,,,,,,,,,,,,,,,,,,,,,,,,,,,,,,,,,,,,,,,,,,,,,,,,,,,,,,,,,,,,,,,,,,,,,,,,,,,,,,,,,,,,,
0,4,4,52,1,,6154d702c164d49259d6cc20,62c53a59f799e9c1f976a8f6,2022-07-06_09h31.51.324,Colour_Asymmetry_Pilot,2022.1.3,Win32,144.0714594,62c50e9c1127f2cd403a315f,,,,,,,,,,,,,,,,,,,,,,,,,,,,,,,,,,,,,,,,,,,,,,,,,,,,,,,,,,,,,,,,,,,,,,,,,,,,,,,,,,,,,,,,,,,,,,,,,,,,,,,,,,,,,,,,,,,,,,,,,,,,,,,,,,,,,,,,,,,,,,,,,,,,,,,,,,,,,,,,,,,
0,5,5,11,1,,6154d702c164d49259d6cc20,62c53a59f799e9c1f976a8f6,2022-07-06_09h31.51.324,Colour_Asymmetry_Pilot,2022.1.3,Win32,144.0714594,62c50e9c1127f2cd403a315f,,,,,,,,,,,,,,,,,,,,,,,,,,,,,,,,,,,,,,,,,,,,,,,,,,,,,,,,,,,,,,,,,,,,,,,,,,,,,,,,,,,,,,,,,,,,,,,,,,,,,,,,,,,,,,,,,,,,,,,,,,,,,,,,,,,,,,,,,,,,,,,,,,,,,,,,,,,,,,,,,,,
0,6,6,50,1,,6154d702c164d49259d6cc20,62c53a59f799e9c1f976a8f6,2022-07-06_09h31.51.324,Colour_Asymmetry_Pilot,2022.1.3,Win32,144.0714594,62c50e9c1127f2cd403a315f,,,,,,,,,,,,,,,,,,,,,,,,,,,,,,,,,,,,,,,,,,,,,,,,,,,,,,,,,,,,,,,,,,,,,,,,,,,,,,,,,,,,,,,,,,,,,,,,,,,,,,,,,,,,,,,,,,,,,,,,,,,,,,,,,,,,,,,,,,,,,,,,,,,,,,,,,,,,,,,,,,,
0,7,7,21,1,,6154d702c164d49259d6cc20,62c53a59f799e9c1f976a8f6,2022-07-06_09h31.51.324,Colour_Asymmetry_Pilot,2022.1.3,Win32,144.0714594,62c50e9c1127f2cd403a315f,,,,,,,,,,,,,,,,,,,,,,,,,,,,,,,,,,,,,,,,,,,,,,,,,,,,,,,,,,,,,,,,,,,,,,,,,,,,,,,,,,,,,,,,,,,,,,,,,,,,,,,,,,,,,,,,,,,,,,,,,,,,,,,,,,,,,,,,,,,,,,,,,,,,,,,,,,,,,,,,,,,
0,8,8,85,1,,6154d702c164d49259d6cc20,62c53a59f799e9c1f976a8f6,2022-07-06_09h31.51.324,Colour_Asymmetry_Pilot,2022.1.3,Win32,144.0714594,62c50e9c1127f2cd403a315f,,,,,,,,,,,,,,,,,,,,,,,,,,,,,,,,,,,,,,,,,,,,,,,,,,,,,,,,,,,,,,,,,,,,,,,,,,,,,,,,,,,,,,,,,,,,,,,,,,,,,,,,,,,,,,,,,,,,,,,,,,,,,,,,,,,,,,,,,,,,,,,,,,,,,,,,,,,,,,,,,,,
0,9,9,87,1,,6154d702c164d49259d6cc20,62c53a59f799e9c1f976a8f6,2022-07-06_09h31.51.324,Colour_Asymmetry_Pilot,2022.1.3,Win32,144.0714594,62c50e9c1127f2cd403a315f,,,,,,,,,,,,,,,,,,,,,,,,,,,,,,,,,,,,,,,,,,,,,,,,,,,,,,,,,,,,,,,,,,,,,,,,,,,,,,,,,,,,,,,,,,,,,,,,,,,,,,,,,,,,,,,,,,,,,,,,,,,,,,,,,,,,,,,,,,,,,,,,,,,,,,,,,,,,,,,,,,,
0,10,10,79,1,,6154d702c164d49259d6cc20,62c53a59f799e9c1f976a8f6,2022-07-06_09h31.51.324,Colour_Asymmetry_Pilot,2022.1.3,Win32,144.0714594,62c50e9c1127f2cd403a315f,,,,,,,,,,,,,,,,,,,,,,,,,,,,,,,,,,,,,,,,,,,,,,,,,,,,,,,,,,,,,,,,,,,,,,,,,,,,,,,,,,,,,,,,,,,,,,,,,,,,,,,,,,,,,,,,,,,,,,,,,,,,,,,,,,,,,,,,,,,,,,,,,,,,,,,,,,,,,,,,,,,
0,11,11,71,1,,6154d702c164d49259d6cc20,62c53a59f799e9c1f976a8f6,2022-07-06_09h31.51.324,Colour_Asymmetry_Pilot,2022.1.3,Win32,144.0714594,62c50e9c1127f2cd403a315f,,,,,,,,,,,,,,,,,,,,,,,,,,,,,,,,,,,,,,,,,,,,,,,,,,,,,,,,,,,,,,,,,,,,,,,,,,,,,,,,,,,,,,,,,,,,,,,,,,,,,,,,,,,,,,,,,,,,,,,,,,,,,,,,,,,,,,,,,,,,,,,,,,,,,,,,,,,,,,,,,,,
0,12,12,19,1,,6154d702c164d49259d6cc20,62c53a59f799e9c1f976a8f6,2022-07-06_09h31.51.324,Colour_Asymmetry_Pilot,2022.1.3,Win32,144.0714594,62c50e9c1127f2cd403a315f,,,,,,,,,,,,,,,,,,,,,,,,,,,,,,,,,,,,,,,,,,,,,,,,,,,,,,,,,,,,,,,,,,,,,,,,,,,,,,,,,,,,,,,,,,,,,,,,,,,,,,,,,,,,,,,,,,,,,,,,,,,,,,,,,,,,,,,,,,,,,,,,,,,,,,,,,,,,,,,,,,,
0,13,13,4,1,,6154d702c164d49259d6cc20,62c53a59f799e9c1f976a8f6,2022-07-06_09h31.51.324,Colour_Asymmetry_Pilot,2022.1.3,Win32,144.0714594,62c50e9c1127f2cd403a315f,,,,,,,,,,,,,,,,,,,,,,,,,,,,,,,,,,,,,,,,,,,,,,,,,,,,,,,,,,,,,,,,,,,,,,,,,,,,,,,,,,,,,,,,,,,,,,,,,,,,,,,,,,,,,,,,,,,,,,,,,,,,,,,,,,,,,,,,,,,,,,,,,,,,,,,,,,,,,,,,,,,
0,14,14,53,1,,6154d702c164d49259d6cc20,62c53a59f799e9c1f976a8f6,2022-07-06_09h31.51.324,Colour_Asymmetry_Pilot,2022.1.3,Win32,144.0714594,62c50e9c1127f2cd403a315f,,,,,,,,,,,,,,,,,,,,,,,,,,,,,,,,,,,,,,,,,,,,,,,,,,,,,,,,,,,,,,,,,,,,,,,,,,,,,,,,,,,,,,,,,,,,,,,,,,,,,,,,,,,,,,,,,,,,,,,,,,,,,,,,,,,,,,,,,,,,,,,,,,,,,,,,,,,,,,,,,,,
0,15,15,74,1,,6154d702c164d49259d6cc20,62c53a59f799e9c1f976a8f6,2022-07-06_09h31.51.324,Colour_Asymmetry_Pilot,2022.1.3,Win32,144.0714594,62c50e9c1127f2cd403a315f,,,,,,,,,,,,,,,,,,,,,,,,,,,,,,,,,,,,,,,,,,,,,,,,,,,,,,,,,,,,,,,,,,,,,,,,,,,,,,,,,,,,,,,,,,,,,,,,,,,,,,,,,,,,,,,,,,,,,,,,,,,,,,,,,,,,,,,,,,,,,,,,,,,,,,,,,,,,,,,,,,,
0,16,16,80,1,,6154d702c164d49259d6cc20,62c53a59f799e9c1f976a8f6,2022-07-06_09h31.51.324,Colour_Asymmetry_Pilot,2022.1.3,Win32,144.0714594,62c50e9c1127f2cd403a315f,,,,,,,,,,,,,,,,,,,,,,,,,,,,,,,,,,,,,,,,,,,,,,,,,,,,,,,,,,,,,,,,,,,,,,,,,,,,,,,,,,,,,,,,,,,,,,,,,,,,,,,,,,,,,,,,,,,,,,,,,,,,,,,,,,,,,,,,,,,,,,,,,,,,,,,,,,,,,,,,,,,
0,17,17,91,1,,6154d702c164d49259d6cc20,62c53a59f799e9c1f976a8f6,2022-07-06_09h31.51.324,Colour_Asymmetry_Pilot,2022.1.3,Win32,144.0714594,62c50e9c1127f2cd403a315f,,,,,,,,,,,,,,,,,,,,,,,,,,,,,,,,,,,,,,,,,,,,,,,,,,,,,,,,,,,,,,,,,,,,,,,,,,,,,,,,,,,,,,,,,,,,,,,,,,,,,,,,,,,,,,,,,,,,,,,,,,,,,,,,,,,,,,,,,,,,,,,,,,,,,,,,,,,,,,,,,,,
0,18,18,9,1,,6154d702c164d49259d6cc20,62c53a59f799e9c1f976a8f6,2022-07-06_09h31.51.324,Colour_Asymmetry_Pilot,2022.1.3,Win32,144.0714594,62c50e9c1127f2cd403a315f,,,,,,,,,,,,,,,,,,,,,,,,,,,,,,,,,,,,,,,,,,,,,,,,,,,,,,,,,,,,,,,,,,,,,,,,,,,,,,,,,,,,,,,,,,,,,,,,,,,,,,,,,,,,,,,,,,,,,,,,,,,,,,,,,,,,,,,,,,,,,,,,,,,,,,,,,,,,,,,,,,,
0,19,19,54,1,,6154d702c164d49259d6cc20,62c53a59f799e9c1f976a8f6,2022-07-06_09h31.51.324,Colour_Asymmetry_Pilot,2022.1.3,Win32,144.0714594,62c50e9c1127f2cd403a315f,,,,,,,,,,,,,,,,,,,,,,,,,,,,,,,,,,,,,,,,,,,,,,,,,,,,,,,,,,,,,,,,,,,,,,,,,,,,,,,,,,,,,,,,,,,,,,,,,,,,,,,,,,,,,,,,,,,,,,,,,,,,,,,,,,,,,,,,,,,,,,,,,,,,,,,,,,,,,,,,,,,
0,20,20,62,1,,6154d702c164d49259d6cc20,62c53a59f799e9c1f976a8f6,2022-07-06_09h31.51.324,Colour_Asymmetry_Pilot,2022.1.3,Win32,144.0714594,62c50e9c1127f2cd403a315f,,,,,,,,,,,,,,,,,,,,,,,,,,,,,,,,,,,,,,,,,,,,,,,,,,,,,,,,,,,,,,,,,,,,,,,,,,,,,,,,,,,,,,,,,,,,,,,,,,,,,,,,,,,,,,,,,,,,,,,,,,,,,,,,,,,,,,,,,,,,,,,,,,,,,,,,,,,,,,,,,,,
0,21,21,58,1,,6154d702c164d49259d6cc20,62c53a59f799e9c1f976a8f6,2022-07-06_09h31.51.324,Colour_Asymmetry_Pilot,2022.1.3,Win32,144.0714594,62c50e9c1127f2cd403a315f,,,,,,,,,,,,,,,,,,,,,,,,,,,,,,,,,,,,,,,,,,,,,,,,,,,,,,,,,,,,,,,,,,,,,,,,,,,,,,,,,,,,,,,,,,,,,,,,,,,,,,,,,,,,,,,,,,,,,,,,,,,,,,,,,,,,,,,,,,,,,,,,,,,,,,,,,,,,,,,,,,,
0,22,22,84,1,,6154d702c164d49259d6cc20,62c53a59f799e9c1f976a8f6,2022-07-06_09h31.51.324,Colour_Asymmetry_Pilot,2022.1.3,Win32,144.0714594,62c50e9c1127f2cd403a315f,,,,,,,,,,,,,,,,,,,,,,,,,,,,,,,,,,,,,,,,,,,,,,,,,,,,,,,,,,,,,,,,,,,,,,,,,,,,,,,,,,,,,,,,,,,,,,,,,,,,,,,,,,,,,,,,,,,,,,,,,,,,,,,,,,,,,,,,,,,,,,,,,,,,,,,,,,,,,,,,,,,
0,23,23,33,1,,6154d702c164d49259d6cc20,62c53a59f799e9c1f976a8f6,2022-07-06_09h31.51.324,Colour_Asymmetry_Pilot,2022.1.3,Win32,144.0714594,62c50e9c1127f2cd403a315f,,,,,,,,,,,,,,,,,,,,,,,,,,,,,,,,,,,,,,,,,,,,,,,,,,,,,,,,,,,,,,,,,,,,,,,,,,,,,,,,,,,,,,,,,,,,,,,,,,,,,,,,,,,,,,,,,,,,,,,,,,,,,,,,,,,,,,,,,,,,,,,,,,,,,,,,,,,,,,,,,,,
0,24,24,25,1,,6154d702c164d49259d6cc20,62c53a59f799e9c1f976a8f6,2022-07-06_09h31.51.324,Colour_Asymmetry_Pilot,2022.1.3,Win32,144.0714594,62c50e9c1127f2cd403a315f,,,,,,,,,,,,,,,,,,,,,,,,,,,,,,,,,,,,,,,,,,,,,,,,,,,,,,,,,,,,,,,,,,,,,,,,,,,,,,,,,,,,,,,,,,,,,,,,,,,,,,,,,,,,,,,,,,,,,,,,,,,,,,,,,,,,,,,,,,,,,,,,,,,,,,,,,,,,,,,,,,,
0,25,25,45,1,,6154d702c164d49259d6cc20,62c53a59f799e9c1f976a8f6,2022-07-06_09h31.51.324,Colour_Asymmetry_Pilot,2022.1.3,Win32,144.0714594,62c50e9c1127f2cd403a315f,,,,,,,,,,,,,,,,,,,,,,,,,,,,,,,,,,,,,,,,,,,,,,,,,,,,,,,,,,,,,,,,,,,,,,,,,,,,,,,,,,,,,,,,,,,,,,,,,,,,,,,,,,,,,,,,,,,,,,,,,,,,,,,,,,,,,,,,,,,,,,,,,,,,,,,,,,,,,,,,,,,
0,26,26,23,1,,6154d702c164d49259d6cc20,62c53a59f799e9c1f976a8f6,2022-07-06_09h31.51.324,Colour_Asymmetry_Pilot,2022.1.3,Win32,144.0714594,62c50e9c1127f2cd403a315f,,,,,,,,,,,,,,,,,,,,,,,,,,,,,,,,,,,,,,,,,,,,,,,,,,,,,,,,,,,,,,,,,,,,,,,,,,,,,,,,,,,,,,,,,,,,,,,,,,,,,,,,,,,,,,,,,,,,,,,,,,,,,,,,,,,,,,,,,,,,,,,,,,,,,,,,,,,,,,,,,,,
0,27,27,48,1,,6154d702c164d49259d6cc20,62c53a59f799e9c1f976a8f6,2022-07-06_09h31.51.324,Colour_Asymmetry_Pilot,2022.1.3,Win32,144.0714594,62c50e9c1127f2cd403a315f,,,,,,,,,,,,,,,,,,,,,,,,,,,,,,,,,,,,,,,,,,,,,,,,,,,,,,,,,,,,,,,,,,,,,,,,,,,,,,,,,,,,,,,,,,,,,,,,,,,,,,,,,,,,,,,,,,,,,,,,,,,,,,,,,,,,,,,,,,,,,,,,,,,,,,,,,,,,,,,,,,,
0,28,28,7,1,,6154d702c164d49259d6cc20,62c53a59f799e9c1f976a8f6,2022-07-06_09h31.51.324,Colour_Asymmetry_Pilot,2022.1.3,Win32,144.0714594,62c50e9c1127f2cd403a315f,,,,,,,,,,,,,,,,,,,,,,,,,,,,,,,,,,,,,,,,,,,,,,,,,,,,,,,,,,,,,,,,,,,,,,,,,,,,,,,,,,,,,,,,,,,,,,,,,,,,,,,,,,,,,,,,,,,,,,,,,,,,,,,,,,,,,,,,,,,,,,,,,,,,,,,,,,,,,,,,,,,
0,29,29,56,1,,6154d702c164d49259d6cc20,62c53a59f799e9c1f976a8f6,2022-07-06_09h31.51.324,Colour_Asymmetry_Pilot,2022.1.3,Win32,144.0714594,62c50e9c1127f2cd403a315f,,,,,,,,,,,,,,,,,,,,,,,,,,,,,,,,,,,,,,,,,,,,,,,,,,,,,,,,,,,,,,,,,,,,,,,,,,,,,,,,,,,,,,,,,,,,,,,,,,,,,,,,,,,,,,,,,,,,,,,,,,,,,,,,,,,,,,,,,,,,,,,,,,,,,,,,,,,,,,,,,,,
0,30,30,1,1,,6154d702c164d49259d6cc20,62c53a59f799e9c1f976a8f6,2022-07-06_09h31.51.324,Colour_Asymmetry_Pilot,2022.1.3,Win32,144.0714594,62c50e9c1127f2cd403a315f,,,,,,,,,,,,,,,,,,,,,,,,,,,,,,,,,,,,,,,,,,,,,,,,,,,,,,,,,,,,,,,,,,,,,,,,,,,,,,,,,,,,,,,,,,,,,,,,,,,,,,,,,,,,,,,,,,,,,,,,,,,,,,,,,,,,,,,,,,,,,,,,,,,,,,,,,,,,,,,,,,,
0,31,31,44,1,,6154d702c164d49259d6cc20,62c53a59f799e9c1f976a8f6,2022-07-06_09h31.51.324,Colour_Asymmetry_Pilot,2022.1.3,Win32,144.0714594,62c50e9c1127f2cd403a315f,,,,,,,,,,,,,,,,,,,,,,,,,,,,,,,,,,,,,,,,,,,,,,,,,,,,,,,,,,,,,,,,,,,,,,,,,,,,,,,,,,,,,,,,,,,,,,,,,,,,,,,,,,,,,,,,,,,,,,,,,,,,,,,,,,,,,,,,,,,,,,,,,,,,,,,,,,,,,,,,,,,
0,32,32,51,1,,6154d702c164d49259d6cc20,62c53a59f799e9c1f976a8f6,2022-07-06_09h31.51.324,Colour_Asymmetry_Pilot,2022.1.3,Win32,144.0714594,62c50e9c1127f2cd403a315f,,,,,,,,,,,,,,,,,,,,,,,,,,,,,,,,,,,,,,,,,,,,,,,,,,,,,,,,,,,,,,,,,,,,,,,,,,,,,,,,,,,,,,,,,,,,,,,,,,,,,,,,,,,,,,,,,,,,,,,,,,,,,,,,,,,,,,,,,,,,,,,,,,,,,,,,,,,,,,,,,,,
0,33,33,76,1,,6154d702c164d49259d6cc20,62c53a59f799e9c1f976a8f6,2022-07-06_09h31.51.324,Colour_Asymmetry_Pilot,2022.1.3,Win32,144.0714594,62c50e9c1127f2cd403a315f,,,,,,,,,,,,,,,,,,,,,,,,,,,,,,,,,,,,,,,,,,,,,,,,,,,,,,,,,,,,,,,,,,,,,,,,,,,,,,,,,,,,,,,,,,,,,,,,,,,,,,,,,,,,,,,,,,,,,,,,,,,,,,,,,,,,,,,,,,,,,,,,,,,,,,,,,,,,,,,,,,,
0,34,34,42,1,,6154d702c164d49259d6cc20,62c53a59f799e9c1f976a8f6,2022-07-06_09h31.51.324,Colour_Asymmetry_Pilot,2022.1.3,Win32,144.0714594,62c50e9c1127f2cd403a315f,,,,,,,,,,,,,,,,,,,,,,,,,,,,,,,,,,,,,,,,,,,,,,,,,,,,,,,,,,,,,,,,,,,,,,,,,,,,,,,,,,,,,,,,,,,,,,,,,,,,,,,,,,,,,,,,,,,,,,,,,,,,,,,,,,,,,,,,,,,,,,,,,,,,,,,,,,,,,,,,,,,
0,35,35,69,1,,6154d702c164d49259d6cc20,62c53a59f799e9c1f976a8f6,2022-07-06_09h31.51.324,Colour_Asymmetry_Pilot,2022.1.3,Win32,144.0714594,62c50e9c1127f2cd403a315f,,,,,,,,,,,,,,,,,,,,,,,,,,,,,,,,,,,,,,,,,,,,,,,,,,,,,,,,,,,,,,,,,,,,,,,,,,,,,,,,,,,,,,,,,,,,,,,,,,,,,,,,,,,,,,,,,,,,,,,,,,,,,,,,,,,,,,,,,,,,,,,,,,,,,,,,,,,,,,,,,,,
0,36,36,18,1,,6154d702c164d49259d6cc20,62c53a59f799e9c1f976a8f6,2022-07-06_09h31.51.324,Colour_Asymmetry_Pilot,2022.1.3,Win32,144.0714594,62c50e9c1127f2cd403a315f,,,,,,,,,,,,,,,,,,,,,,,,,,,,,,,,,,,,,,,,,,,,,,,,,,,,,,,,,,,,,,,,,,,,,,,,,,,,,,,,,,,,,,,,,,,,,,,,,,,,,,,,,,,,,,,,,,,,,,,,,,,,,,,,,,,,,,,,,,,,,,,,,,,,,,,,,,,,,,,,,,,
0,37,37,34,1,,6154d702c164d49259d6cc20,62c53a59f799e9c1f976a8f6,2022-07-06_09h31.51.324,Colour_Asymmetry_Pilot,2022.1.3,Win32,144.0714594,62c50e9c1127f2cd403a315f,,,,,,,,,,,,,,,,,,,,,,,,,,,,,,,,,,,,,,,,,,,,,,,,,,,,,,,,,,,,,,,,,,,,,,,,,,,,,,,,,,,,,,,,,,,,,,,,,,,,,,,,,,,,,,,,,,,,,,,,,,,,,,,,,,,,,,,,,,,,,,,,,,,,,,,,,,,,,,,,,,,
0,38,38,15,1,,6154d702c164d49259d6cc20,62c53a59f799e9c1f976a8f6,2022-07-06_09h31.51.324,Colour_Asymmetry_Pilot,2022.1.3,Win32,144.0714594,62c50e9c1127f2cd403a315f,,,,,,,,,,,,,,,,,,,,,,,,,,,,,,,,,,,,,,,,,,,,,,,,,,,,,,,,,,,,,,,,,,,,,,,,,,,,,,,,,,,,,,,,,,,,,,,,,,,,,,,,,,,,,,,,,,,,,,,,,,,,,,,,,,,,,,,,,,,,,,,,,,,,,,,,,,,,,,,,,,,
0,39,39,28,1,,6154d702c164d49259d6cc20,62c53a59f799e9c1f976a8f6,2022-07-06_09h31.51.324,Colour_Asymmetry_Pilot,2022.1.3,Win32,144.0714594,62c50e9c1127f2cd403a315f,,,,,,,,,,,,,,,,,,,,,,,,,,,,,,,,,,,,,,,,,,,,,,,,,,,,,,,,,,,,,,,,,,,,,,,,,,,,,,,,,,,,,,,,,,,,,,,,,,,,,,,,,,,,,,,,,,,,,,,,,,,,,,,,,,,,,,,,,,,,,,,,,,,,,,,,,,,,,,,,,,,
0,40,40,32,1,,6154d702c164d49259d6cc20,62c53a59f799e9c1f976a8f6,2022-07-06_09h31.51.324,Colour_Asymmetry_Pilot,2022.1.3,Win32,144.0714594,62c50e9c1127f2cd403a315f,,,,,,,,,,,,,,,,,,,,,,,,,,,,,,,,,,,,,,,,,,,,,,,,,,,,,,,,,,,,,,,,,,,,,,,,,,,,,,,,,,,,,,,,,,,,,,,,,,,,,,,,,,,,,,,,,,,,,,,,,,,,,,,,,,,,,,,,,,,,,,,,,,,,,,,,,,,,,,,,,,,
0,41,41,90,1,,6154d702c164d49259d6cc20,62c53a59f799e9c1f976a8f6,2022-07-06_09h31.51.324,Colour_Asymmetry_Pilot,2022.1.3,Win32,144.0714594,62c50e9c1127f2cd403a315f,,,,,,,,,,,,,,,,,,,,,,,,,,,,,,,,,,,,,,,,,,,,,,,,,,,,,,,,,,,,,,,,,,,,,,,,,,,,,,,,,,,,,,,,,,,,,,,,,,,,,,,,,,,,,,,,,,,,,,,,,,,,,,,,,,,,,,,,,,,,,,,,,,,,,,,,,,,,,,,,,,,
0,42,42,78,1,,6154d702c164d49259d6cc20,62c53a59f799e9c1f976a8f6,2022-07-06_09h31.51.324,Colour_Asymmetry_Pilot,2022.1.3,Win32,144.0714594,62c50e9c1127f2cd403a315f,,,,,,,,,,,,,,,,,,,,,,,,,,,,,,,,,,,,,,,,,,,,,,,,,,,,,,,,,,,,,,,,,,,,,,,,,,,,,,,,,,,,,,,,,,,,,,,,,,,,,,,,,,,,,,,,,,,,,,,,,,,,,,,,,,,,,,,,,,,,,,,,,,,,,,,,,,,,,,,,,,,
0,43,43,66,1,,6154d702c164d49259d6cc20,62c53a59f799e9c1f976a8f6,2022-07-06_09h31.51.324,Colour_Asymmetry_Pilot,2022.1.3,Win32,144.0714594,62c50e9c1127f2cd403a315f,,,,,,,,,,,,,,,,,,,,,,,,,,,,,,,,,,,,,,,,,,,,,,,,,,,,,,,,,,,,,,,,,,,,,,,,,,,,,,,,,,,,,,,,,,,,,,,,,,,,,,,,,,,,,,,,,,,,,,,,,,,,,,,,,,,,,,,,,,,,,,,,,,,,,,,,,,,,,,,,,,,
0,44,44,47,1,,6154d702c164d49259d6cc20,62c53a59f799e9c1f976a8f6,2022-07-06_09h31.51.324,Colour_Asymmetry_Pilot,2022.1.3,Win32,144.0714594,62c50e9c1127f2cd403a315f,,,,,,,,,,,,,,,,,,,,,,,,,,,,,,,,,,,,,,,,,,,,,,,,,,,,,,,,,,,,,,,,,,,,,,,,,,,,,,,,,,,,,,,,,,,,,,,,,,,,,,,,,,,,,,,,,,,,,,,,,,,,,,,,,,,,,,,,,,,,,,,,,,,,,,,,,,,,,,,,,,,
0,45,45,24,1,,6154d702c164d49259d6cc20,62c53a59f799e9c1f976a8f6,2022-07-06_09h31.51.324,Colour_Asymmetry_Pilot,2022.1.3,Win32,144.0714594,62c50e9c1127f2cd403a315f,,,,,,,,,,,,,,,,,,,,,,,,,,,,,,,,,,,,,,,,,,,,,,,,,,,,,,,,,,,,,,,,,,,,,,,,,,,,,,,,,,,,,,,,,,,,,,,,,,,,,,,,,,,,,,,,,,,,,,,,,,,,,,,,,,,,,,,,,,,,,,,,,,,,,,,,,,,,,,,,,,,
0,46,46,16,1,,6154d702c164d49259d6cc20,62c53a59f799e9c1f976a8f6,2022-07-06_09h31.51.324,Colour_Asymmetry_Pilot,2022.1.3,Win32,144.0714594,62c50e9c1127f2cd403a315f,,,,,,,,,,,,,,,,,,,,,,,,,,,,,,,,,,,,,,,,,,,,,,,,,,,,,,,,,,,,,,,,,,,,,,,,,,,,,,,,,,,,,,,,,,,,,,,,,,,,,,,,,,,,,,,,,,,,,,,,,,,,,,,,,,,,,,,,,,,,,,,,,,,,,,,,,,,,,,,,,,,
0,47,47,61,1,,6154d702c164d49259d6cc20,62c53a59f799e9c1f976a8f6,2022-07-06_09h31.51.324,Colour_Asymmetry_Pilot,2022.1.3,Win32,144.0714594,62c50e9c1127f2cd403a315f,,,,,,,,,,,,,,,,,,,,,,,,,,,,,,,,,,,,,,,,,,,,,,,,,,,,,,,,,,,,,,,,,,,,,,,,,,,,,,,,,,,,,,,,,,,,,,,,,,,,,,,,,,,,,,,,,,,,,,,,,,,,,,,,,,,,,,,,,,,,,,,,,,,,,,,,,,,,,,,,,,,
0,48,48,6,1,,6154d702c164d49259d6cc20,62c53a59f799e9c1f976a8f6,2022-07-06_09h31.51.324,Colour_Asymmetry_Pilot,2022.1.3,Win32,144.0714594,62c50e9c1127f2cd403a315f,,,,,,,,,,,,,,,,,,,,,,,,,,,,,,,,,,,,,,,,,,,,,,,,,,,,,,,,,,,,,,,,,,,,,,,,,,,,,,,,,,,,,,,,,,,,,,,,,,,,,,,,,,,,,,,,,,,,,,,,,,,,,,,,,,,,,,,,,,,,,,,,,,,,,,,,,,,,,,,,,,,
0,49,49,43,1,,6154d702c164d49259d6cc20,62c53a59f799e9c1f976a8f6,2022-07-06_09h31.51.324,Colour_Asymmetry_Pilot,2022.1.3,Win32,144.0714594,62c50e9c1127f2cd403a315f,,,,,,,,,,,,,,,,,,,,,,,,,,,,,,,,,,,,,,,,,,,,,,,,,,,,,,,,,,,,,,,,,,,,,,,,,,,,,,,,,,,,,,,,,,,,,,,,,,,,,,,,,,,,,,,,,,,,,,,,,,,,,,,,,,,,,,,,,,,,,,,,,,,,,,,,,,,,,,,,,,,
0,50,50,27,1,,6154d702c164d49259d6cc20,62c53a59f799e9c1f976a8f6,2022-07-06_09h31.51.324,Colour_Asymmetry_Pilot,2022.1.3,Win32,144.0714594,62c50e9c1127f2cd403a315f,,,,,,,,,,,,,,,,,,,,,,,,,,,,,,,,,,,,,,,,,,,,,,,,,,,,,,,,,,,,,,,,,,,,,,,,,,,,,,,,,,,,,,,,,,,,,,,,,,,,,,,,,,,,,,,,,,,,,,,,,,,,,,,,,,,,,,,,,,,,,,,,,,,,,,,,,,,,,,,,,,,
0,51,51,0,1,,6154d702c164d49259d6cc20,62c53a59f799e9c1f976a8f6,2022-07-06_09h31.51.324,Colour_Asymmetry_Pilot,2022.1.3,Win32,144.0714594,62c50e9c1127f2cd403a315f,,,,,,,,,,,,,,,,,,,,,,,,,,,,,,,,,,,,,,,,,,,,,,,,,,,,,,,,,,,,,,,,,,,,,,,,,,,,,,,,,,,,,,,,,,,,,,,,,,,,,,,,,,,,,,,,,,,,,,,,,,,,,,,,,,,,,,,,,,,,,,,,,,,,,,,,,,,,,,,,,,,
0,52,52,13,1,,6154d702c164d49259d6cc20,62c53a59f799e9c1f976a8f6,2022-07-06_09h31.51.324,Colour_Asymmetry_Pilot,2022.1.3,Win32,144.0714594,62c50e9c1127f2cd403a315f,,,,,,,,,,,,,,,,,,,,,,,,,,,,,,,,,,,,,,,,,,,,,,,,,,,,,,,,,,,,,,,,,,,,,,,,,,,,,,,,,,,,,,,,,,,,,,,,,,,,,,,,,,,,,,,,,,,,,,,,,,,,,,,,,,,,,,,,,,,,,,,,,,,,,,,,,,,,,,,,,,,
0,53,53,70,1,,6154d702c164d49259d6cc20,62c53a59f799e9c1f976a8f6,2022-07-06_09h31.51.324,Colour_Asymmetry_Pilot,2022.1.3,Win32,144.0714594,62c50e9c1127f2cd403a315f,,,,,,,,,,,,,,,,,,,,,,,,,,,,,,,,,,,,,,,,,,,,,,,,,,,,,,,,,,,,,,,,,,,,,,,,,,,,,,,,,,,,,,,,,,,,,,,,,,,,,,,,,,,,,,,,,,,,,,,,,,,,,,,,,,,,,,,,,,,,,,,,,,,,,,,,,,,,,,,,,,,
0,54,54,5,1,,6154d702c164d49259d6cc20,62c53a59f799e9c1f976a8f6,2022-07-06_09h31.51.324,Colour_Asymmetry_Pilot,2022.1.3,Win32,144.0714594,62c50e9c1127f2cd403a315f,,,,,,,,,,,,,,,,,,,,,,,,,,,,,,,,,,,,,,,,,,,,,,,,,,,,,,,,,,,,,,,,,,,,,,,,,,,,,,,,,,,,,,,,,,,,,,,,,,,,,,,,,,,,,,,,,,,,,,,,,,,,,,,,,,,,,,,,,,,,,,,,,,,,,,,,,,,,,,,,,,,
0,55,55,38,1,,6154d702c164d49259d6cc20,62c53a59f799e9c1f976a8f6,2022-07-06_09h31.51.324,Colour_Asymmetry_Pilot,2022.1.3,Win32,144.0714594,62c50e9c1127f2cd403a315f,,,,,,,,,,,,,,,,,,,,,,,,,,,,,,,,,,,,,,,,,,,,,,,,,,,,,,,,,,,,,,,,,,,,,,,,,,,,,,,,,,,,,,,,,,,,,,,,,,,,,,,,,,,,,,,,,,,,,,,,,,,,,,,,,,,,,,,,,,,,,,,,,,,,,,,,,,,,,,,,,,,
0,56,56,81,1,,6154d702c164d49259d6cc20,62c53a59f799e9c1f976a8f6,2022-07-06_09h31.51.324,Colour_Asymmetry_Pilot,2022.1.3,Win32,144.0714594,62c50e9c1127f2cd403a315f,,,,,,,,,,,,,,,,,,,,,,,,,,,,,,,,,,,,,,,,,,,,,,,,,,,,,,,,,,,,,,,,,,,,,,,,,,,,,,,,,,,,,,,,,,,,,,,,,,,,,,,,,,,,,,,,,,,,,,,,,,,,,,,,,,,,,,,,,,,,,,,,,,,,,,,,,,,,,,,,,,,
0,57,57,59,1,,6154d702c164d49259d6cc20,62c53a59f799e9c1f976a8f6,2022-07-06_09h31.51.324,Colour_Asymmetry_Pilot,2022.1.3,Win32,144.0714594,62c50e9c1127f2cd403a315f,,,,,,,,,,,,,,,,,,,,,,,,,,,,,,,,,,,,,,,,,,,,,,,,,,,,,,,,,,,,,,,,,,,,,,,,,,,,,,,,,,,,,,,,,,,,,,,,,,,,,,,,,,,,,,,,,,,,,,,,,,,,,,,,,,,,,,,,,,,,,,,,,,,,,,,,,,,,,,,,,,,
0,58,58,46,1,,6154d702c164d49259d6cc20,62c53a59f799e9c1f976a8f6,2022-07-06_09h31.51.324,Colour_Asymmetry_Pilot,2022.1.3,Win32,144.0714594,62c50e9c1127f2cd403a315f,,,,,,,,,,,,,,,,,,,,,,,,,,,,,,,,,,,,,,,,,,,,,,,,,,,,,,,,,,,,,,,,,,,,,,,,,,,,,,,,,,,,,,,,,,,,,,,,,,,,,,,,,,,,,,,,,,,,,,,,,,,,,,,,,,,,,,,,,,,,,,,,,,,,,,,,,,,,,,,,,,,
0,59,59,22,1,,6154d702c164d49259d6cc20,62c53a59f799e9c1f976a8f6,2022-07-06_09h31.51.324,Colour_Asymmetry_Pilot,2022.1.3,Win32,144.0714594,62c50e9c1127f2cd403a315f,,,,,,,,,,,,,,,,,,,,,,,,,,,,,,,,,,,,,,,,,,,,,,,,,,,,,,,,,,,,,,,,,,,,,,,,,,,,,,,,,,,,,,,,,,,,,,,,,,,,,,,,,,,,,,,,,,,,,,,,,,,,,,,,,,,,,,,,,,,,,,,,,,,,,,,,,,,,,,,,,,,
0,60,60,3,1,,6154d702c164d49259d6cc20,62c53a59f799e9c1f976a8f6,2022-07-06_09h31.51.324,Colour_Asymmetry_Pilot,2022.1.3,Win32,144.0714594,62c50e9c1127f2cd403a315f,,,,,,,,,,,,,,,,,,,,,,,,,,,,,,,,,,,,,,,,,,,,,,,,,,,,,,,,,,,,,,,,,,,,,,,,,,,,,,,,,,,,,,,,,,,,,,,,,,,,,,,,,,,,,,,,,,,,,,,,,,,,,,,,,,,,,,,,,,,,,,,,,,,,,,,,,,,,,,,,,,,
0,61,61,89,1,,6154d702c164d49259d6cc20,62c53a59f799e9c1f976a8f6,2022-07-06_09h31.51.324,Colour_Asymmetry_Pilot,2022.1.3,Win32,144.0714594,62c50e9c1127f2cd403a315f,,,,,,,,,,,,,,,,,,,,,,,,,,,,,,,,,,,,,,,,,,,,,,,,,,,,,,,,,,,,,,,,,,,,,,,,,,,,,,,,,,,,,,,,,,,,,,,,,,,,,,,,,,,,,,,,,,,,,,,,,,,,,,,,,,,,,,,,,,,,,,,,,,,,,,,,,,,,,,,,,,,
0,62,62,75,1,,6154d702c164d49259d6cc20,62c53a59f799e9c1f976a8f6,2022-07-06_09h31.51.324,Colour_Asymmetry_Pilot,2022.1.3,Win32,144.0714594,62c50e9c1127f2cd403a315f,,,,,,,,,,,,,,,,,,,,,,,,,,,,,,,,,,,,,,,,,,,,,,,,,,,,,,,,,,,,,,,,,,,,,,,,,,,,,,,,,,,,,,,,,,,,,,,,,,,,,,,,,,,,,,,,,,,,,,,,,,,,,,,,,,,,,,,,,,,,,,,,,,,,,,,,,,,,,,,,,,,
0,63,63,72,1,,6154d702c164d49259d6cc20,62c53a59f799e9c1f976a8f6,2022-07-06_09h31.51.324,Colour_Asymmetry_Pilot,2022.1.3,Win32,144.0714594,62c50e9c1127f2cd403a315f,,,,,,,,,,,,,,,,,,,,,,,,,,,,,,,,,,,,,,,,,,,,,,,,,,,,,,,,,,,,,,,,,,,,,,,,,,,,,,,,,,,,,,,,,,,,,,,,,,,,,,,,,,,,,,,,,,,,,,,,,,,,,,,,,,,,,,,,,,,,,,,,,,,,,,,,,,,,,,,,,,,
0,64,64,88,1,,6154d702c164d49259d6cc20,62c53a59f799e9c1f976a8f6,2022-07-06_09h31.51.324,Colour_Asymmetry_Pilot,2022.1.3,Win32,144.0714594,62c50e9c1127f2cd403a315f,,,,,,,,,,,,,,,,,,,,,,,,,,,,,,,,,,,,,,,,,,,,,,,,,,,,,,,,,,,,,,,,,,,,,,,,,,,,,,,,,,,,,,,,,,,,,,,,,,,,,,,,,,,,,,,,,,,,,,,,,,,,,,,,,,,,,,,,,,,,,,,,,,,,,,,,,,,,,,,,,,,
0,65,65,65,1,,6154d702c164d49259d6cc20,62c53a59f799e9c1f976a8f6,2022-07-06_09h31.51.324,Colour_Asymmetry_Pilot,2022.1.3,Win32,144.0714594,62c50e9c1127f2cd403a315f,,,,,,,,,,,,,,,,,,,,,,,,,,,,,,,,,,,,,,,,,,,,,,,,,,,,,,,,,,,,,,,,,,,,,,,,,,,,,,,,,,,,,,,,,,,,,,,,,,,,,,,,,,,,,,,,,,,,,,,,,,,,,,,,,,,,,,,,,,,,,,,,,,,,,,,,,,,,,,,,,,,
0,66,66,2,1,,6154d702c164d49259d6cc20,62c53a59f799e9c1f976a8f6,2022-07-06_09h31.51.324,Colour_Asymmetry_Pilot,2022.1.3,Win32,144.0714594,62c50e9c1127f2cd403a315f,,,,,,,,,,,,,,,,,,,,,,,,,,,,,,,,,,,,,,,,,,,,,,,,,,,,,,,,,,,,,,,,,,,,,,,,,,,,,,,,,,,,,,,,,,,,,,,,,,,,,,,,,,,,,,,,,,,,,,,,,,,,,,,,,,,,,,,,,,,,,,,,,,,,,,,,,,,,,,,,,,,
0,67,67,17,1,,6154d702c164d49259d6cc20,62c53a59f799e9c1f976a8f6,2022-07-06_09h31.51.324,Colour_Asymmetry_Pilot,2022.1.3,Win32,144.0714594,62c50e9c1127f2cd403a315f,,,,,,,,,,,,,,,,,,,,,,,,,,,,,,,,,,,,,,,,,,,,,,,,,,,,,,,,,,,,,,,,,,,,,,,,,,,,,,,,,,,,,,,,,,,,,,,,,,,,,,,,,,,,,,,,,,,,,,,,,,,,,,,,,,,,,,,,,,,,,,,,,,,,,,,,,,,,,,,,,,,
0,68,68,40,1,,6154d702c164d49259d6cc20,62c53a59f799e9c1f976a8f6,2022-07-06_09h31.51.324,Colour_Asymmetry_Pilot,2022.1.3,Win32,144.0714594,62c50e9c1127f2cd403a315f,,,,,,,,,,,,,,,,,,,,,,,,,,,,,,,,,,,,,,,,,,,,,,,,,,,,,,,,,,,,,,,,,,,,,,,,,,,,,,,,,,,,,,,,,,,,,,,,,,,,,,,,,,,,,,,,,,,,,,,,,,,,,,,,,,,,,,,,,,,,,,,,,,,,,,,,,,,,,,,,,,,
0,69,69,57,1,,6154d702c164d49259d6cc20,62c53a59f799e9c1f976a8f6,2022-07-06_09h31.51.324,Colour_Asymmetry_Pilot,2022.1.3,Win32,144.0714594,62c50e9c1127f2cd403a315f,,,,,,,,,,,,,,,,,,,,,,,,,,,,,,,,,,,,,,,,,,,,,,,,,,,,,,,,,,,,,,,,,,,,,,,,,,,,,,,,,,,,,,,,,,,,,,,,,,,,,,,,,,,,,,,,,,,,,,,,,,,,,,,,,,,,,,,,,,,,,,,,,,,,,,,,,,,,,,,,,,,
0,70,70,86,1,,6154d702c164d49259d6cc20,62c53a59f799e9c1f976a8f6,2022-07-06_09h31.51.324,Colour_Asymmetry_Pilot,2022.1.3,Win32,144.0714594,62c50e9c1127f2cd403a315f,,,,,,,,,,,,,,,,,,,,,,,,,,,,,,,,,,,,,,,,,,,,,,,,,,,,,,,,,,,,,,,,,,,,,,,,,,,,,,,,,,,,,,,,,,,,,,,,,,,,,,,,,,,,,,,,,,,,,,,,,,,,,,,,,,,,,,,,,,,,,,,,,,,,,,,,,,,,,,,,,,,
0,71,71,14,1,,6154d702c164d49259d6cc20,62c53a59f799e9c1f976a8f6,2022-07-06_09h31.51.324,Colour_Asymmetry_Pilot,2022.1.3,Win32,144.0714594,62c50e9c1127f2cd403a315f,,,,,,,,,,,,,,,,,,,,,,,,,,,,,,,,,,,,,,,,,,,,,,,,,,,,,,,,,,,,,,,,,,,,,,,,,,,,,,,,,,,,,,,,,,,,,,,,,,,,,,,,,,,,,,,,,,,,,,,,,,,,,,,,,,,,,,,,,,,,,,,,,,,,,,,,,,,,,,,,,,,
0,72,72,55,1,,6154d702c164d49259d6cc20,62c53a59f799e9c1f976a8f6,2022-07-06_09h31.51.324,Colour_Asymmetry_Pilot,2022.1.3,Win32,144.0714594,62c50e9c1127f2cd403a315f,,,,,,,,,,,,,,,,,,,,,,,,,,,,,,,,,,,,,,,,,,,,,,,,,,,,,,,,,,,,,,,,,,,,,,,,,,,,,,,,,,,,,,,,,,,,,,,,,,,,,,,,,,,,,,,,,,,,,,,,,,,,,,,,,,,,,,,,,,,,,,,,,,,,,,,,,,,,,,,,,,,
0,73,73,31,1,,6154d702c164d49259d6cc20,62c53a59f799e9c1f976a8f6,2022-07-06_09h31.51.324,Colour_Asymmetry_Pilot,2022.1.3,Win32,144.0714594,62c50e9c1127f2cd403a315f,,,,,,,,,,,,,,,,,,,,,,,,,,,,,,,,,,,,,,,,,,,,,,,,,,,,,,,,,,,,,,,,,,,,,,,,,,,,,,,,,,,,,,,,,,,,,,,,,,,,,,,,,,,,,,,,,,,,,,,,,,,,,,,,,,,,,,,,,,,,,,,,,,,,,,,,,,,,,,,,,,,
0,74,74,8,1,,6154d702c164d49259d6cc20,62c53a59f799e9c1f976a8f6,2022-07-06_09h31.51.324,Colour_Asymmetry_Pilot,2022.1.3,Win32,144.0714594,62c50e9c1127f2cd403a315f,,,,,,,,,,,,,,,,,,,,,,,,,,,,,,,,,,,,,,,,,,,,,,,,,,,,,,,,,,,,,,,,,,,,,,,,,,,,,,,,,,,,,,,,,,,,,,,,,,,,,,,,,,,,,,,,,,,,,,,,,,,,,,,,,,,,,,,,,,,,,,,,,,,,,,,,,,,,,,,,,,,
0,75,75,60,1,,6154d702c164d49259d6cc20,62c53a59f799e9c1f976a8f6,2022-07-06_09h31.51.324,Colour_Asymmetry_Pilot,2022.1.3,Win32,144.0714594,62c50e9c1127f2cd403a315f,,,,,,,,,,,,,,,,,,,,,,,,,,,,,,,,,,,,,,,,,,,,,,,,,,,,,,,,,,,,,,,,,,,,,,,,,,,,,,,,,,,,,,,,,,,,,,,,,,,,,,,,,,,,,,,,,,,,,,,,,,,,,,,,,,,,,,,,,,,,,,,,,,,,,,,,,,,,,,,,,,,
0,76,76,26,1,,6154d702c164d49259d6cc20,62c53a59f799e9c1f976a8f6,2022-07-06_09h31.51.324,Colour_Asymmetry_Pilot,2022.1.3,Win32,144.0714594,62c50e9c1127f2cd403a315f,,,,,,,,,,,,,,,,,,,,,,,,,,,,,,,,,,,,,,,,,,,,,,,,,,,,,,,,,,,,,,,,,,,,,,,,,,,,,,,,,,,,,,,,,,,,,,,,,,,,,,,,,,,,,,,,,,,,,,,,,,,,,,,,,,,,,,,,,,,,,,,,,,,,,,,,,,,,,,,,,,,
0,77,77,77,1,,6154d702c164d49259d6cc20,62c53a59f799e9c1f976a8f6,2022-07-06_09h31.51.324,Colour_Asymmetry_Pilot,2022.1.3,Win32,144.0714594,62c50e9c1127f2cd403a315f,,,,,,,,,,,,,,,,,,,,,,,,,,,,,,,,,,,,,,,,,,,,,,,,,,,,,,,,,,,,,,,,,,,,,,,,,,,,,,,,,,,,,,,,,,,,,,,,,,,,,,,,,,,,,,,,,,,,,,,,,,,,,,,,,,,,,,,,,,,,,,,,,,,,,,,,,,,,,,,,,,,
0,78,78,92,1,,6154d702c164d49259d6cc20,62c53a59f799e9c1f976a8f6,2022-07-06_09h31.51.324,Colour_Asymmetry_Pilot,2022.1.3,Win32,144.0714594,62c50e9c1127f2cd403a315f,,,,,,,,,,,,,,,,,,,,,,,,,,,,,,,,,,,,,,,,,,,,,,,,,,,,,,,,,,,,,,,,,,,,,,,,,,,,,,,,,,,,,,,,,,,,,,,,,,,,,,,,,,,,,,,,,,,,,,,,,,,,,,,,,,,,,,,,,,,,,,,,,,,,,,,,,,,,,,,,,,,
0,79,79,68,1,,6154d702c164d49259d6cc20,62c53a59f799e9c1f976a8f6,2022-07-06_09h31.51.324,Colour_Asymmetry_Pilot,2022.1.3,Win32,144.0714594,62c50e9c1127f2cd403a315f,,,,,,,,,,,,,,,,,,,,,,,,,,,,,,,,,,,,,,,,,,,,,,,,,,,,,,,,,,,,,,,,,,,,,,,,,,,,,,,,,,,,,,,,,,,,,,,,,,,,,,,,,,,,,,,,,,,,,,,,,,,,,,,,,,,,,,,,,,,,,,,,,,,,,,,,,,,,,,,,,,,
0,80,80,35,1,,6154d702c164d49259d6cc20,62c53a59f799e9c1f976a8f6,2022-07-06_09h31.51.324,Colour_Asymmetry_Pilot,2022.1.3,Win32,144.0714594,62c50e9c1127f2cd403a315f,,,,,,,,,,,,,,,,,,,,,,,,,,,,,,,,,,,,,,,,,,,,,,,,,,,,,,,,,,,,,,,,,,,,,,,,,,,,,,,,,,,,,,,,,,,,,,,,,,,,,,,,,,,,,,,,,,,,,,,,,,,,,,,,,,,,,,,,,,,,,,,,,,,,,,,,,,,,,,,,,,,
0,81,81,30,1,,6154d702c164d49259d6cc20,62c53a59f799e9c1f976a8f6,2022-07-06_09h31.51.324,Colour_Asymmetry_Pilot,2022.1.3,Win32,144.0714594,62c50e9c1127f2cd403a315f,,,,,,,,,,,,,,,,,,,,,,,,,,,,,,,,,,,,,,,,,,,,,,,,,,,,,,,,,,,,,,,,,,,,,,,,,,,,,,,,,,,,,,,,,,,,,,,,,,,,,,,,,,,,,,,,,,,,,,,,,,,,,,,,,,,,,,,,,,,,,,,,,,,,,,,,,,,,,,,,,,,
0,82,82,82,1,,6154d702c164d49259d6cc20,62c53a59f799e9c1f976a8f6,2022-07-06_09h31.51.324,Colour_Asymmetry_Pilot,2022.1.3,Win32,144.0714594,62c50e9c1127f2cd403a315f,,,,,,,,,,,,,,,,,,,,,,,,,,,,,,,,,,,,,,,,,,,,,,,,,,,,,,,,,,,,,,,,,,,,,,,,,,,,,,,,,,,,,,,,,,,,,,,,,,,,,,,,,,,,,,,,,,,,,,,,,,,,,,,,,,,,,,,,,,,,,,,,,,,,,,,,,,,,,,,,,,,
0,83,83,83,1,,6154d702c164d49259d6cc20,62c53a59f799e9c1f976a8f6,2022-07-06_09h31.51.324,Colour_Asymmetry_Pilot,2022.1.3,Win32,144.0714594,62c50e9c1127f2cd403a315f,,,,,,,,,,,,,,,,,,,,,,,,,,,,,,,,,,,,,,,,,,,,,,,,,,,,,,,,,,,,,,,,,,,,,,,,,,,,,,,,,,,,,,,,,,,,,,,,,,,,,,,,,,,,,,,,,,,,,,,,,,,,,,,,,,,,,,,,,,,,,,,,,,,,,,,,,,,,,,,,,,,
0,84,84,73,1,,6154d702c164d49259d6cc20,62c53a59f799e9c1f976a8f6,2022-07-06_09h31.51.324,Colour_Asymmetry_Pilot,2022.1.3,Win32,144.0714594,62c50e9c1127f2cd403a315f,,,,,,,,,,,,,,,,,,,,,,,,,,,,,,,,,,,,,,,,,,,,,,,,,,,,,,,,,,,,,,,,,,,,,,,,,,,,,,,,,,,,,,,,,,,,,,,,,,,,,,,,,,,,,,,,,,,,,,,,,,,,,,,,,,,,,,,,,,,,,,,,,,,,,,,,,,,,,,,,,,,
0,85,85,67,1,,6154d702c164d49259d6cc20,62c53a59f799e9c1f976a8f6,2022-07-06_09h31.51.324,Colour_Asymmetry_Pilot,2022.1.3,Win32,144.0714594,62c50e9c1127f2cd403a315f,,,,,,,,,,,,,,,,,,,,,,,,,,,,,,,,,,,,,,,,,,,,,,,,,,,,,,,,,,,,,,,,,,,,,,,,,,,,,,,,,,,,,,,,,,,,,,,,,,,,,,,,,,,,,,,,,,,,,,,,,,,,,,,,,,,,,,,,,,,,,,,,,,,,,,,,,,,,,,,,,,,
0,86,86,10,1,,6154d702c164d49259d6cc20,62c53a59f799e9c1f976a8f6,2022-07-06_09h31.51.324,Colour_Asymmetry_Pilot,2022.1.3,Win32,144.0714594,62c50e9c1127f2cd403a315f,,,,,,,,,,,,,,,,,,,,,,,,,,,,,,,,,,,,,,,,,,,,,,,,,,,,,,,,,,,,,,,,,,,,,,,,,,,,,,,,,,,,,,,,,,,,,,,,,,,,,,,,,,,,,,,,,,,,,,,,,,,,,,,,,,,,,,,,,,,,,,,,,,,,,,,,,,,,,,,,,,,
0,87,87,29,1,,6154d702c164d49259d6cc20,62c53a59f799e9c1f976a8f6,2022-07-06_09h31.51.324,Colour_Asymmetry_Pilot,2022.1.3,Win32,144.0714594,62c50e9c1127f2cd403a315f,,,,,,,,,,,,,,,,,,,,,,,,,,,,,,,,,,,,,,,,,,,,,,,,,,,,,,,,,,,,,,,,,,,,,,,,,,,,,,,,,,,,,,,,,,,,,,,,,,,,,,,,,,,,,,,,,,,,,,,,,,,,,,,,,,,,,,,,,,,,,,,,,,,,,,,,,,,,,,,,,,,
0,88,88,64,1,,6154d702c164d49259d6cc20,62c53a59f799e9c1f976a8f6,2022-07-06_09h31.51.324,Colour_Asymmetry_Pilot,2022.1.3,Win32,144.0714594,62c50e9c1127f2cd403a315f,,,,,,,,,,,,,,,,,,,,,,,,,,,,,,,,,,,,,,,,,,,,,,,,,,,,,,,,,,,,,,,,,,,,,,,,,,,,,,,,,,,,,,,,,,,,,,,,,,,,,,,,,,,,,,,,,,,,,,,,,,,,,,,,,,,,,,,,,,,,,,,,,,,,,,,,,,,,,,,,,,,
0,89,89,37,1,,6154d702c164d49259d6cc20,62c53a59f799e9c1f976a8f6,2022-07-06_09h31.51.324,Colour_Asymmetry_Pilot,2022.1.3,Win32,144.0714594,62c50e9c1127f2cd403a315f,,,,,,,,,,,,,,,,,,,,,,,,,,,,,,,,,,,,,,,,,,,,,,,,,,,,,,,,,,,,,,,,,,,,,,,,,,,,,,,,,,,,,,,,,,,,,,,,,,,,,,,,,,,,,,,,,,,,,,,,,,,,,,,,,,,,,,,,,,,,,,,,,,,,,,,,,,,,,,,,,,,
0,90,90,41,1,,6154d702c164d49259d6cc20,62c53a59f799e9c1f976a8f6,2022-07-06_09h31.51.324,Colour_Asymmetry_Pilot,2022.1.3,Win32,144.0714594,62c50e9c1127f2cd403a315f,,,,,,,,,,,,,,,,,,,,,,,,,,,,,,,,,,,,,,,,,,,,,,,,,,,,,,,,,,,,,,,,,,,,,,,,,,,,,,,,,,,,,,,,,,,,,,,,,,,,,,,,,,,,,,,,,,,,,,,,,,,,,,,,,,,,,,,,,,,,,,,,,,,,,,,,,,,,,,,,,,,
0,91,91,63,1,,6154d702c164d49259d6cc20,62c53a59f799e9c1f976a8f6,2022-07-06_09h31.51.324,Colour_Asymmetry_Pilot,2022.1.3,Win32,144.0714594,62c50e9c1127f2cd403a315f,,,,,,,,,,,,,,,,,,,,,,,,,,,,,,,,,,,,,,,,,,,,,,,,,,,,,,,,,,,,,,,,,,,,,,,,,,,,,,,,,,,,,,,,,,,,,,,,,,,,,,,,,,,,,,,,,,,,,,,,,,,,,,,,,,,,,,,,,,,,,,,,,,,,,,,,,,,,,,,,,,,
0,92,92,12,1,,6154d702c164d49259d6cc20,62c53a59f799e9c1f976a8f6,2022-07-06_09h31.51.324,Colour_Asymmetry_Pilot,2022.1.3,Win32,144.0714594,62c50e9c1127f2cd403a315f,,,,,,,,,,,,,,,,,,,,,,,,,,,,,,,,,,,,,,,,,,,,,,,,,,,,,,,,,,,,,,,,,,,,,,,,,,,,,,,,,,,,,,,,,,,,,,,,,,,,,,,,,,,,,,,,,,,,,,,,,,,,,,,,,,,,,,,,,,,,,,,,,,,,,,,,,,,,,,,,,,,
,,,,,,6154d702c164d49259d6cc20,62c53a59f799e9c1f976a8f6,2022-07-06_09h31.51.324,Colour_Asymmetry_Pilot,2022.1.3,Win32,144.0714594,62c50e9c1127f2cd403a315f,0,0,0,39,1,fourthree,,,,,,,,,,,,,,,,,,,,,,,,,,,,,,,,,,,,,,,,,,,,,,,,,,,,,,,,,,,,,,,,,,,,,,,,,,,,,,,,,,,,,,,,,,,,,,,,,,,,,,,,,,,,,,,,,,,,,,,,,,,,,,,,,,,,,,,,,,,,,,,,,,,,,,,,,,,,,
,,,,,,6154d702c164d49259d6cc20,62c53a59f799e9c1f976a8f6,2022-07-06_09h31.51.324,Colour_Asymmetry_Pilot,2022.1.3,Win32,144.0714594,62c50e9c1127f2cd403a315f,0,1,1,93,1,threefour,,,,,,,,,,,,,,,,,,,,,,,,,,,,,,,,,,,,,,,,,,,,,,,,,,,,,,,,,,,,,,,,,,,,,,,,,,,,,,,,,,,,,,,,,,,,,,,,,,,,,,,,,,,,,,,,,,,,,,,,,,,,,,,,,,,,,,,,,,,,,,,,,,,,,,,,,,,,,
,,,,,,6154d702c164d49259d6cc20,62c53a59f799e9c1f976a8f6,2022-07-06_09h31.51.324,Colour_Asymmetry_Pilot,2022.1.3,Win32,144.0714594,62c50e9c1127f2cd403a315f,0,2,2,156,1,threeone,,,,,,,,,,,,,,,,,,,,,,,,,,,,,,,,,,,,,,,,,,,,,,,,,,,,,,,,,,,,,,,,,,,,,,,,,,,,,,,,,,,,,,,,,,,,,,,,,,,,,,,,,,,,,,,,,,,,,,,,,,,,,,,,,,,,,,,,,,,,,,,,,,,,,,,,,,,,,
,,,,,,6154d702c164d49259d6cc20,62c53a59f799e9c1f976a8f6,2022-07-06_09h31.51.324,Colour_Asymmetry_Pilot,2022.1.3,Win32,144.0714594,62c50e9c1127f2cd403a315f,0,3,3,31,1,fourthree,,,,,,,,,,,,,,,,,,,,,,,,,,,,,,,,,,,,,,,,,,,,,,,,,,,,,,,,,,,,,,,,,,,,,,,,,,,,,,,,,,,,,,,,,,,,,,,,,,,,,,,,,,,,,,,,,,,,,,,,,,,,,,,,,,,,,,,,,,,,,,,,,,,,,,,,,,,,,
,,,,,,6154d702c164d49259d6cc20,62c53a59f799e9c1f976a8f6,2022-07-06_09h31.51.324,Colour_Asymmetry_Pilot,2022.1.3,Win32,144.0714594,62c50e9c1127f2cd403a315f,0,4,4,6,1,fourtwo,,,,,,,,,,,,,,,,,,,,,,,,,,,,,,,,,,,,,,,,,,,,,,,,,,,,,,,,,,,,,,,,,,,,,,,,,,,,,,,,,,,,,,,,,,,,,,,,,,,,,,,,,,,,,,,,,,,,,,,,,,,,,,,,,,,,,,,,,,,,,,,,,,,,,,,,,,,,,
,,,,,,6154d702c164d49259d6cc20,62c53a59f799e9c1f976a8f6,2022-07-06_09h31.51.324,Colour_Asymmetry_Pilot,2022.1.3,Win32,144.0714594,62c50e9c1127f2cd403a315f,0,5,5,63,1,fourthree,,,,,,,,,,,,,,,,,,,,,,,,,,,,,,,,,,,,,,,,,,,,,,,,,,,,,,,,,,,,,,,,,,,,,,,,,,,,,,,,,,,,,,,,,,,,,,,,,,,,,,,,,,,,,,,,,,,,,,,,,,,,,,,,,,,,,,,,,,,,,,,,,,,,,,,,,,,,,
,,,,,,6154d702c164d49259d6cc20,62c53a59f799e9c1f976a8f6,2022-07-06_09h31.51.324,Colour_Asymmetry_Pilot,2022.1.3,Win32,144.0714594,62c50e9c1127f2cd403a315f,0,6,6,134,1,fourtwo,,,,,,,,,,,,,,,,,,,,,,,,,,,,,,,,,,,,,,,,,,,,,,,,,,,,,,,,,,,,,,,,,,,,,,,,,,,,,,,,,,,,,,,,,,,,,,,,,,,,,,,,,,,,,,,,,,,,,,,,,,,,,,,,,,,,,,,,,,,,,,,,,,,,,,,,,,,,,
,,,,,,6154d702c164d49259d6cc20,62c53a59f799e9c1f976a8f6,2022-07-06_09h31.51.324,Colour_Asymmetry_Pilot,2022.1.3,Win32,144.0714594,62c50e9c1127f2cd403a315f,0,7,7,2,1,twoone,,,,,,,,,,,,,,,,,,,,,,,,,,,,,,,,,,,,,,,,,,,,,,,,,,,,,,,,,,,,,,,,,,,,,,,,,,,,,,,,,,,,,,,,,,,,,,,,,,,,,,,,,,,,,,,,,,,,,,,,,,,,,,,,,,,,,,,,,,,,,,,,,,,,,,,,,,,,,
,,,,,,6154d702c164d49259d6cc20,62c53a59f799e9c1f976a8f6,2022-07-06_09h31.51.324,Colour_Asymmetry_Pilot,2022.1.3,Win32,144.0714594,62c50e9c1127f2cd403a315f,0,8,8,102,1,fourtwo,,,,,,,,,,,,,,,,,,,,,,,,,,,,,,,,,,,,,,,,,,,,,,,,,,,,,,,,,,,,,,,,,,,,,,,,,,,,,,,,,,,,,,,,,,,,,,,,,,,,,,,,,,,,,,,,,,,,,,,,,,,,,,,,,,,,,,,,,,,,,,,,,,,,,,,,,,,,,
,,,,,,6154d702c164d49259d6cc20,62c53a59f799e9c1f976a8f6,2022-07-06_09h31.51.324,Colour_Asymmetry_Pilot,2022.1.3,Win32,144.0714594,62c50e9c1127f2cd403a315f,0,9,9,37,1,threefour,,,,,,,,,,,,,,,,,,,,,,,,,,,,,,,,,,,,,,,,,,,,,,,,,,,,,,,,,,,,,,,,,,,,,,,,,,,,,,,,,,,,,,,,,,,,,,,,,,,,,,,,,,,,,,,,,,,,,,,,,,,,,,,,,,,,,,,,,,,,,,,,,,,,,,,,,,,,,
,,,,,,6154d702c164d49259d6cc20,62c53a59f799e9c1f976a8f6,2022-07-06_09h31.51.324,Colour_Asymmetry_Pilot,2022.1.3,Win32,144.0714594,62c50e9c1127f2cd403a315f,0,10,10,5,1,threefour,,,,,,,,,,,,,,,,,,,,,,,,,,,,,,,,,,,,,,,,,,,,,,,,,,,,,,,,,,,,,,,,,,,,,,,,,,,,,,,,,,,,,,,,,,,,,,,,,,,,,,,,,,,,,,,,,,,,,,,,,,,,,,,,,,,,,,,,,,,,,,,,,,,,,,,,,,,,,
,,,,,,6154d702c164d49259d6cc20,62c53a59f799e9c1f976a8f6,2022-07-06_09h31.51.324,Colour_Asymmetry_Pilot,2022.1.3,Win32,144.0714594,62c50e9c1127f2cd403a315f,0,11,11,96,1,onetwo,,,,,,,,,,,,,,,,,,,,,,,,,,,,,,,,,,,,,,,,,,,,,,,,,,,,,,,,,,,,,,,,,,,,,,,,,,,,,,,,,,,,,,,,,,,,,,,,,,,,,,,,,,,,,,,,,,,,,,,,,,,,,,,,,,,,,,,,,,,,,,,,,,,,,,,,,,,,,
,,,,,,6154d702c164d49259d6cc20,62c53a59f799e9c1f976a8f6,2022-07-06_09h31.51.324,Colour_Asymmetry_Pilot,2022.1.3,Win32,144.0714594,62c50e9c1127f2cd403a315f,0,12,12,0,1,onetwo,,,,,,,,,,,,,,,,,,,,,,,,,,,,,,,,,,,,,,,,,,,,,,,,,,,,,,,,,,,,,,,,,,,,,,,,,,,,,,,,,,,,,,,,,,,,,,,,,,,,,,,,,,,,,,,,,,,,,,,,,,,,,,,,,,,,,,,,,,,,,,,,,,,,,,,,,,,,,
,,,,,,6154d702c164d49259d6cc20,62c53a59f799e9c1f976a8f6,2022-07-06_09h31.51.324,Colour_Asymmetry_Pilot,2022.1.3,Win32,144.0714594,62c50e9c1127f2cd403a315f,0,13,13,42,1,twoone,,,,,,,,,,,,,,,,,,,,,,,,,,,,,,,,,,,,,,,,,,,,,,,,,,,,,,,,,,,,,,,,,,,,,,,,,,,,,,,,,,,,,,,,,,,,,,,,,,,,,,,,,,,,,,,,,,,,,,,,,,,,,,,,,,,,,,,,,,,,,,,,,,,,,,,,,,,,,
,,,,,,6154d702c164d49259d6cc20,62c53a59f799e9c1f976a8f6,2022-07-06_09h31.51.324,Colour_Asymmetry_Pilot,2022.1.3,Win32,144.0714594,62c50e9c1127f2cd403a315f,0,14,14,78,1,fourtwo,,,,,,,,,,,,,,,,,,,,,,,,,,,,,,,,,,,,,,,,,,,,,,,,,,,,,,,,,,,,,,,,,,,,,,,,,,,,,,,,,,,,,,,,,,,,,,,,,,,,,,,,,,,,,,,,,,,,,,,,,,,,,,,,,,,,,,,,,,,,,,,,,,,,,,,,,,,,,
,,,,,,6154d702c164d49259d6cc20,62c53a59f799e9c1f976a8f6,2022-07-06_09h31.51.324,Colour_Asymmetry_Pilot,2022.1.3,Win32,144.0714594,62c50e9c1127f2cd403a315f,0,15,15,126,1,fourtwo,,,,,,,,,,,,,,,,,,,,,,,,,,,,,,,,,,,,,,,,,,,,,,,,,,,,,,,,,,,,,,,,,,,,,,,,,,,,,,,,,,,,,,,,,,,,,,,,,,,,,,,,,,,,,,,,,,,,,,,,,,,,,,,,,,,,,,,,,,,,,,,,,,,,,,,,,,,,,
,,,,,,6154d702c164d49259d6cc20,62c53a59f799e9c1f976a8f6,2022-07-06_09h31.51.324,Colour_Asymmetry_Pilot,2022.1.3,Win32,144.0714594,62c50e9c1127f2cd403a315f,0,16,16,98,1,twoone,,,,,,,,,,,,,,,,,,,,,,,,,,,,,,,,,,,,,,,,,,,,,,,,,,,,,,,,,,,,,,,,,,,,,,,,,,,,,,,,,,,,,,,,,,,,,,,,,,,,,,,,,,,,,,,,,,,,,,,,,,,,,,,,,,,,,,,,,,,,,,,,,,,,,,,,,,,,,
,,,,,,6154d702c164d49259d6cc20,62c53a59f799e9c1f976a8f6,2022-07-06_09h31.51.324,Colour_Asymmetry_Pilot,2022.1.3,Win32,144.0714594,62c50e9c1127f2cd403a315f,0,17,17,127,1,fourthree,,,,,,,,,,,,,,,,,,,,,,,,,,,,,,,,,,,,,,,,,,,,,,,,,,,,,,,,,,,,,,,,,,,,,,,,,,,,,,,,,,,,,,,,,,,,,,,,,,,,,,,,,,,,,,,,,,,,,,,,,,,,,,,,,,,,,,,,,,,,,,,,,,,,,,,,,,,,,
,,,,,,6154d702c164d49259d6cc20,62c53a59f799e9c1f976a8f6,2022-07-06_09h31.51.324,Colour_Asymmetry_Pilot,2022.1.3,Win32,144.0714594,62c50e9c1127f2cd403a315f,0,18,18,157,1,threefour,,,,,,,,,,,,,,,,,,,,,,,,,,,,,,,,,,,,,,,,,,,,,,,,,,,,,,,,,,,,,,,,,,,,,,,,,,,,,,,,,,,,,,,,,,,,,,,,,,,,,,,,,,,,,,,,,,,,,,,,,,,,,,,,,,,,,,,,,,,,,,,,,,,,,,,,,,,,,
,,,,,,6154d702c164d49259d6cc20,62c53a59f799e9c1f976a8f6,2022-07-06_09h31.51.324,Colour_Asymmetry_Pilot,2022.1.3,Win32,144.0714594,62c50e9c1127f2cd403a315f,0,19,19,53,1,threefour,,,,,,,,,,,,,,,,,,,,,,,,,,,,,,,,,,,,,,,,,,,,,,,,,,,,,,,,,,,,,,,,,,,,,,,,,,,,,,,,,,,,,,,,,,,,,,,,,,,,,,,,,,,,,,,,,,,,,,,,,,,,,,,,,,,,,,,,,,,,,,,,,,,,,,,,,,,,,
,,,,,,6154d702c164d49259d6cc20,62c53a59f799e9c1f976a8f6,2022-07-06_09h31.51.324,Colour_Asymmetry_Pilot,2022.1.3,Win32,144.0714594,62c50e9c1127f2cd403a315f,0,20,20,112,1,onetwo,,,,,,,,,,,,,,,,,,,,,,,,,,,,,,,,,,,,,,,,,,,,,,,,,,,,,,,,,,,,,,,,,,,,,,,,,,,,,,,,,,,,,,,,,,,,,,,,,,,,,,,,,,,,,,,,,,,,,,,,,,,,,,,,,,,,,,,,,,,,,,,,,,,,,,,,,,,,,
,,,,,,6154d702c164d49259d6cc20,62c53a59f799e9c1f976a8f6,2022-07-06_09h31.51.324,Colour_Asymmetry_Pilot,2022.1.3,Win32,144.0714594,62c50e9c1127f2cd403a315f,0,21,21,110,1,fourtwo,,,,,,,,,,,,,,,,,,,,,,,,,,,,,,,,,,,,,,,,,,,,,,,,,,,,,,,,,,,,,,,,,,,,,,,,,,,,,,,,,,,,,,,,,,,,,,,,,,,,,,,,,,,,,,,,,,,,,,,,,,,,,,,,,,,,,,,,,,,,,,,,,,,,,,,,,,,,,
,,,,,,6154d702c164d49259d6cc20,62c53a59f799e9c1f976a8f6,2022-07-06_09h31.51.324,Colour_Asymmetry_Pilot,2022.1.3,Win32,144.0714594,62c50e9c1127f2cd403a315f,0,22,22,159,1,fourthree,,,,,,,,,,,,,,,,,,,,,,,,,,,,,,,,,,,,,,,,,,,,,,,,,,,,,,,,,,,,,,,,,,,,,,,,,,,,,,,,,,,,,,,,,,,,,,,,,,,,,,,,,,,,,,,,,,,,,,,,,,,,,,,,,,,,,,,,,,,,,,,,,,,,,,,,,,,,,
,,,,,,6154d702c164d49259d6cc20,62c53a59f799e9c1f976a8f6,2022-07-06_09h31.51.324,Colour_Asymmetry_Pilot,2022.1.3,Win32,144.0714594,62c50e9c1127f2cd403a315f,0,23,23,89,1,onethree,,,,,,,,,,,,,,,,,,,,,,,,,,,,,,,,,,,,,,,,,,,,,,,,,,,,,,,,,,,,,,,,,,,,,,,,,,,,,,,,,,,,,,,,,,,,,,,,,,,,,,,,,,,,,,,,,,,,,,,,,,,,,,,,,,,,,,,,,,,,,,,,,,,,,,,,,,,,,
,,,,,,6154d702c164d49259d6cc20,62c53a59f799e9c1f976a8f6,2022-07-06_09h31.51.324,Colour_Asymmetry_Pilot,2022.1.3,Win32,144.0714594,62c50e9c1127f2cd403a315f,0,24,24,65,1,onethree,,,,,,,,,,,,,,,,,,,,,,,,,,,,,,,,,,,,,,,,,,,,,,,,,,,,,,,,,,,,,,,,,,,,,,,,,,,,,,,,,,,,,,,,,,,,,,,,,,,,,,,,,,,,,,,,,,,,,,,,,,,,,,,,,,,,,,,,,,,,,,,,,,,,,,,,,,,,,
,,,,,,6154d702c164d49259d6cc20,62c53a59f799e9c1f976a8f6,2022-07-06_09h31.51.324,Colour_Asymmetry_Pilot,2022.1.3,Win32,144.0714594,62c50e9c1127f2cd403a315f,0,25,25,1,1,onethree,,,,,,,,,,,,,,,,,,,,,,,,,,,,,,,,,,,,,,,,,,,,,,,,,,,,,,,,,,,,,,,,,,,,,,,,,,,,,,,,,,,,,,,,,,,,,,,,,,,,,,,,,,,,,,,,,,,,,,,,,,,,,,,,,,,,,,,,,,,,,,,,,,,,,,,,,,,,,
,,,,,,6154d702c164d49259d6cc20,62c53a59f799e9c1f976a8f6,2022-07-06_09h31.51.324,Colour_Asymmetry_Pilot,2022.1.3,Win32,144.0714594,62c50e9c1127f2cd403a315f,0,26,26,21,1,threefour,,,,,,,,,,,,,,,,,,,,,,,,,,,,,,,,,,,,,,,,,,,,,,,,,,,,,,,,,,,,,,,,,,,,,,,,,,,,,,,,,,,,,,,,,,,,,,,,,,,,,,,,,,,,,,,,,,,,,,,,,,,,,,,,,,,,,,,,,,,,,,,,,,,,,,,,,,,,,
,,,,,,6154d702c164d49259d6cc20,62c53a59f799e9c1f976a8f6,2022-07-06_09h31.51.324,Colour_Asymmetry_Pilot,2022.1.3,Win32,144.0714594,62c50e9c1127f2cd403a315f,0,27,27,32,1,onetwo,,,,,,,,,,,,,,,,,,,,,,,,,,,,,,,,,,,,,,,,,,,,,,,,,,,,,,,,,,,,,,,,,,,,,,,,,,,,,,,,,,,,,,,,,,,,,,,,,,,,,,,,,,,,,,,,,,,,,,,,,,,,,,,,,,,,,,,,,,,,,,,,,,,,,,,,,,,,,
,,,,,,6154d702c164d49259d6cc20,62c53a59f799e9c1f976a8f6,2022-07-06_09h31.51.324,Colour_Asymmetry_Pilot,2022.1.3,Win32,144.0714594,62c50e9c1127f2cd403a315f,0,28,28,150,1,fourtwo,,,,,,,,,,,,,,,,,,,,,,,,,,,,,,,,,,,,,,,,,,,,,,,,,,,,,,,,,,,,,,,,,,,,,,,,,,,,,,,,,,,,,,,,,,,,,,,,,,,,,,,,,,,,,,,,,,,,,,,,,,,,,,,,,,,,,,,,,,,,,,,,,,,,,,,,,,,,,
,,,,,,6154d702c164d49259d6cc20,62c53a59f799e9c1f976a8f6,2022-07-06_09h31.51.324,Colour_Asymmetry_Pilot,2022.1.3,Win32,144.0714594,62c50e9c1127f2cd403a315f,0,29,29,133,1,threefour,,,,,,,,,,,,,,,,,,,,,,,,,,,,,,,,,,,,,,,,,,,,,,,,,,,,,,,,,,,,,,,,,,,,,,,,,,,,,,,,,,,,,,,,,,,,,,,,,,,,,,,,,,,,,,,,,,,,,,,,,,,,,,,,,,,,,,,,,,,,,,,,,,,,,,,,,,,,,
,,,,,,6154d702c164d49259d6cc20,62c53a59f799e9c1f976a8f6,2022-07-06_09h31.51.324,Colour_Asymmetry_Pilot,2022.1.3,Win32,144.0714594,62c50e9c1127f2cd403a315f,0,30,30,137,1,onethree,,,,,,,,,,,,,,,,,,,,,,,,,,,,,,,,,,,,,,,,,,,,,,,,,,,,,,,,,,,,,,,,,,,,,,,,,,,,,,,,,,,,,,,,,,,,,,,,,,,,,,,,,,,,,,,,,,,,,,,,,,,,,,,,,,,,,,,,,,,,,,,,,,,,,,,,,,,,,
,,,,,,6154d702c164d49259d6cc20,62c53a59f799e9c1f976a8f6,2022-07-06_09h31.51.324,Colour_Asymmetry_Pilot,2022.1.3,Win32,144.0714594,62c50e9c1127f2cd403a315f,0,31,31,8,1,onetwo,,,,,,,,,,,,,,,,,,,,,,,,,,,,,,,,,,,,,,,,,,,,,,,,,,,,,,,,,,,,,,,,,,,,,,,,,,,,,,,,,,,,,,,,,,,,,,,,,,,,,,,,,,,,,,,,,,,,,,,,,,,,,,,,,,,,,,,,,,,,,,,,,,,,,,,,,,,,,
,,,,,,6154d702c164d49259d6cc20,62c53a59f799e9c1f976a8f6,2022-07-06_09h31.51.324,Colour_Asymmetry_Pilot,2022.1.3,Win32,144.0714594,62c50e9c1127f2cd403a315f,0,32,32,19,1,twofour,,,,,,,,,,,,,,,,,,,,,,,,,,,,,,,,,,,,,,,,,,,,,,,,,,,,,,,,,,,,,,,,,,,,,,,,,,,,,,,,,,,,,,,,,,,,,,,,,,,,,,,,,,,,,,,,,,,,,,,,,,,,,,,,,,,,,,,,,,,,,,,,,,,,,,,,,,,,,
,,,,,,6154d702c164d49259d6cc20,62c53a59f799e9c1f976a8f6,2022-07-06_09h31.51.324,Colour_Asymmetry_Pilot,2022.1.3,Win32,144.0714594,62c50e9c1127f2cd403a315f,0,33,33,86,1,fourtwo,,,,,,,,,,,,,,,,,,,,,,,,,,,,,,,,,,,,,,,,,,,,,,,,,,,,,,,,,,,,,,,,,,,,,,,,,,,,,,,,,,,,,,,,,,,,,,,,,,,,,,,,,,,,,,,,,,,,,,,,,,,,,,,,,,,,,,,,,,,,,,,,,,,,,,,,,,,,,
,,,,,,6154d702c164d49259d6cc20,62c53a59f799e9c1f976a8f6,2022-07-06_09h31.51.324,Colour_Asymmetry_Pilot,2022.1.3,Win32,144.0714594,62c50e9c1127f2cd403a315f,0,34,34,33,1,onethree,,,,,,,,,,,,,,,,,,,,,,,,,,,,,,,,,,,,,,,,,,,,,,,,,,,,,,,,,,,,,,,,,,,,,,,,,,,,,,,,,,,,,,,,,,,,,,,,,,,,,,,,,,,,,,,,,,,,,,,,,,,,,,,,,,,,,,,,,,,,,,,,,,,,,,,,,,,,,
,,,,,,6154d702c164d49259d6cc20,62c53a59f799e9c1f976a8f6,2022-07-06_09h31.51.324,Colour_Asymmetry_Pilot,2022.1.3,Win32,144.0714594,62c50e9c1127f2cd403a315f,0,35,35,58,1,twoone,,,,,,,,,,,,,,,,,,,,,,,,,,,,,,,,,,,,,,,,,,,,,,,,,,,,,,,,,,,,,,,,,,,,,,,,,,,,,,,,,,,,,,,,,,,,,,,,,,,,,,,,,,,,,,,,,,,,,,,,,,,,,,,,,,,,,,,,,,,,,,,,,,,,,,,,,,,,,
,,,,,,6154d702c164d49259d6cc20,62c53a59f799e9c1f976a8f6,2022-07-06_09h31.51.324,Colour_Asymmetry_Pilot,2022.1.3,Win32,144.0714594,62c50e9c1127f2cd403a315f,0,36,36,48,1,onetwo,,,,,,,,,,,,,,,,,,,,,,,,,,,,,,,,,,,,,,,,,,,,,,,,,,,,,,,,,,,,,,,,,,,,,,,,,,,,,,,,,,,,,,,,,,,,,,,,,,,,,,,,,,,,,,,,,,,,,,,,,,,,,,,,,,,,,,,,,,,,,,,,,,,,,,,,,,,,,
,,,,,,6154d702c164d49259d6cc20,62c53a59f799e9c1f976a8f6,2022-07-06_09h31.51.324,Colour_Asymmetry_Pilot,2022.1.3,Win32,144.0714594,62c50e9c1127f2cd403a315f,0,37,37,141,1,threefour,,,,,,,,,,,,,,,,,,,,,,,,,,,,,,,,,,,,,,,,,,,,,,,,,,,,,,,,,,,,,,,,,,,,,,,,,,,,,,,,,,,,,,,,,,,,,,,,,,,,,,,,,,,,,,,,,,,,,,,,,,,,,,,,,,,,,,,,,,,,,,,,,,,,,,,,,,,,,
,,,,,,6154d702c164d49259d6cc20,62c53a59f799e9c1f976a8f6,2022-07-06_09h31.51.324,Colour_Asymmetry_Pilot,2022.1.3,Win32,144.0714594,62c50e9c1127f2cd403a315f,0,38,38,124,1,threeone,,,,,,,,,,,,,,,,,,,,,,,,,,,,,,,,,,,,,,,,,,,,,,,,,,,,,,,,,,,,,,,,,,,,,,,,,,,,,,,,,,,,,,,,,,,,,,,,,,,,,,,,,,,,,,,,,,,,,,,,,,,,,,,,,,,,,,,,,,,,,,,,,,,,,,,,,,,,,
,,,,,,6154d702c164d49259d6cc20,62c53a59f799e9c1f976a8f6,2022-07-06_09h31.51.324,Colour_Asymmetry_Pilot,2022.1.3,Win32,144.0714594,62c50e9c1127f2cd403a315f,0,39,39,103,1,fourthree,,,,,,,,,,,,,,,,,,,,,,,,,,,,,,,,,,,,,,,,,,,,,,,,,,,,,,,,,,,,,,,,,,,,,,,,,,,,,,,,,,,,,,,,,,,,,,,,,,,,,,,,,,,,,,,,,,,,,,,,,,,,,,,,,,,,,,,,,,,,,,,,,,,,,,,,,,,,,
,,,,,,6154d702c164d49259d6cc20,62c53a59f799e9c1f976a8f6,2022-07-06_09h31.51.324,Colour_Asymmetry_Pilot,2022.1.3,Win32,144.0714594,62c50e9c1127f2cd403a315f,0,40,40,113,1,onethree,,,,,,,,,,,,,,,,,,,,,,,,,,,,,,,,,,,,,,,,,,,,,,,,,,,,,,,,,,,,,,,,,,,,,,,,,,,,,,,,,,,,,,,,,,,,,,,,,,,,,,,,,,,,,,,,,,,,,,,,,,,,,,,,,,,,,,,,,,,,,,,,,,,,,,,,,,,,,
,,,,,,6154d702c164d49259d6cc20,62c53a59f799e9c1f976a8f6,2022-07-06_09h31.51.324,Colour_Asymmetry_Pilot,2022.1.3,Win32,144.0714594,62c50e9c1127f2cd403a315f,0,41,41,47,1,fourthree,,,,,,,,,,,,,,,,,,,,,,,,,,,,,,,,,,,,,,,,,,,,,,,,,,,,,,,,,,,,,,,,,,,,,,,,,,,,,,,,,,,,,,,,,,,,,,,,,,,,,,,,,,,,,,,,,,,,,,,,,,,,,,,,,,,,,,,,,,,,,,,,,,,,,,,,,,,,,
,,,,,,6154d702c164d49259d6cc20,62c53a59f799e9c1f976a8f6,2022-07-06_09h31.51.324,Colour_Asymmetry_Pilot,2022.1.3,Win32,144.0714594,62c50e9c1127f2cd403a315f,0,42,42,36,1,threeone,,,,,,,,,,,,,,,,,,,,,,,,,,,,,,,,,,,,,,,,,,,,,,,,,,,,,,,,,,,,,,,,,,,,,,,,,,,,,,,,,,,,,,,,,,,,,,,,,,,,,,,,,,,,,,,,,,,,,,,,,,,,,,,,,,,,,,,,,,,,,,,,,,,,,,,,,,,,,
,,,,,,6154d702c164d49259d6cc20,62c53a59f799e9c1f976a8f6,2022-07-06_09h31.51.324,Colour_Asymmetry_Pilot,2022.1.3,Win32,144.0714594,62c50e9c1127f2cd403a315f,0,43,43,84,1,threeone,,,,,,,,,,,,,,,,,,,,,,,,,,,,,,,,,,,,,,,,,,,,,,,,,,,,,,,,,,,,,,,,,,,,,,,,,,,,,,,,,,,,,,,,,,,,,,,,,,,,,,,,,,,,,,,,,,,,,,,,,,,,,,,,,,,,,,,,,,,,,,,,,,,,,,,,,,,,,
,,,,,,6154d702c164d49259d6cc20,62c53a59f799e9c1f976a8f6,2022-07-06_09h31.51.324,Colour_Asymmetry_Pilot,2022.1.3,Win32,144.0714594,62c50e9c1127f2cd403a315f,0,44,44,64,1,onetwo,,,,,,,,,,,,,,,,,,,,,,,,,,,,,,,,,,,,,,,,,,,,,,,,,,,,,,,,,,,,,,,,,,,,,,,,,,,,,,,,,,,,,,,,,,,,,,,,,,,,,,,,,,,,,,,,,,,,,,,,,,,,,,,,,,,,,,,,,,,,,,,,,,,,,,,,,,,,,
,,,,,,6154d702c164d49259d6cc20,62c53a59f799e9c1f976a8f6,2022-07-06_09h31.51.324,Colour_Asymmetry_Pilot,2022.1.3,Win32,144.0714594,62c50e9c1127f2cd403a315f,0,45,45,52,1,threeone,,,,,,,,,,,,,,,,,,,,,,,,,,,,,,,,,,,,,,,,,,,,,,,,,,,,,,,,,,,,,,,,,,,,,,,,,,,,,,,,,,,,,,,,,,,,,,,,,,,,,,,,,,,,,,,,,,,,,,,,,,,,,,,,,,,,,,,,,,,,,,,,,,,,,,,,,,,,,
,,,,,,6154d702c164d49259d6cc20,62c53a59f799e9c1f976a8f6,2022-07-06_09h31.51.324,Colour_Asymmetry_Pilot,2022.1.3,Win32,144.0714594,62c50e9c1127f2cd403a315f,0,46,46,76,1,threeone,,,,,,,,,,,,,,,,,,,,,,,,,,,,,,,,,,,,,,,,,,,,,,,,,,,,,,,,,,,,,,,,,,,,,,,,,,,,,,,,,,,,,,,,,,,,,,,,,,,,,,,,,,,,,,,,,,,,,,,,,,,,,,,,,,,,,,,,,,,,,,,,,,,,,,,,,,,,,
,,,,,,6154d702c164d49259d6cc20,62c53a59f799e9c1f976a8f6,2022-07-06_09h31.51.324,Colour_Asymmetry_Pilot,2022.1.3,Win32,144.0714594,62c50e9c1127f2cd403a315f,0,47,47,44,1,threeone,,,,,,,,,,,,,,,,,,,,,,,,,,,,,,,,,,,,,,,,,,,,,,,,,,,,,,,,,,,,,,,,,,,,,,,,,,,,,,,,,,,,,,,,,,,,,,,,,,,,,,,,,,,,,,,,,,,,,,,,,,,,,,,,,,,,,,,,,,,,,,,,,,,,,,,,,,,,,
,,,,,,6154d702c164d49259d6cc20,62c53a59f799e9c1f976a8f6,2022-07-06_09h31.51.324,Colour_Asymmetry_Pilot,2022.1.3,Win32,144.0714594,62c50e9c1127f2cd403a315f,0,48,48,69,1,threefour,,,,,,,,,,,,,,,,,,,,,,,,,,,,,,,,,,,,,,,,,,,,,,,,,,,,,,,,,,,,,,,,,,,,,,,,,,,,,,,,,,,,,,,,,,,,,,,,,,,,,,,,,,,,,,,,,,,,,,,,,,,,,,,,,,,,,,,,,,,,,,,,,,,,,,,,,,,,,
,,,,,,6154d702c164d49259d6cc20,62c53a59f799e9c1f976a8f6,2022-07-06_09h31.51.324,Colour_Asymmetry_Pilot,2022.1.3,Win32,144.0714594,62c50e9c1127f2cd403a315f,0,49,49,161,1,onethree,,,,,,,,,,,,,,,,,,,,,,,,,,,,,,,,,,,,,,,,,,,,,,,,,,,,,,,,,,,,,,,,,,,,,,,,,,,,,,,,,,,,,,,,,,,,,,,,,,,,,,,,,,,,,,,,,,,,,,,,,,,,,,,,,,,,,,,,,,,,,,,,,,,,,,,,,,,,,
,,,,,,6154d702c164d49259d6cc20,62c53a59f799e9c1f976a8f6,2022-07-06_09h31.51.324,Colour_Asymmetry_Pilot,2022.1.3,Win32,144.0714594,62c50e9c1127f2cd403a315f,0,50,50,41,1,onethree,,,,,,,,,,,,,,,,,,,,,,,,,,,,,,,,,,,,,,,,,,,,,,,,,,,,,,,,,,,,,,,,,,,,,,,,,,,,,,,,,,,,,,,,,,,,,,,,,,,,,,,,,,,,,,,,,,,,,,,,,,,,,,,,,,,,,,,,,,,,,,,,,,,,,,,,,,,,,
,,,,,,6154d702c164d49259d6cc20,62c53a59f799e9c1f976a8f6,2022-07-06_09h31.51.324,Colour_Asymmetry_Pilot,2022.1.3,Win32,144.0714594,62c50e9c1127f2cd403a315f,0,51,51,59,1,twofour,,,,,,,,,,,,,,,,,,,,,,,,,,,,,,,,,,,,,,,,,,,,,,,,,,,,,,,,,,,,,,,,,,,,,,,,,,,,,,,,,,,,,,,,,,,,,,,,,,,,,,,,,,,,,,,,,,,,,,,,,,,,,,,,,,,,,,,,,,,,,,,,,,,,,,,,,,,,,
,,,,,,6154d702c164d49259d6cc20,62c53a59f799e9c1f976a8f6,2022-07-06_09h31.51.324,Colour_Asymmetry_Pilot,2022.1.3,Win32,144.0714594,62c50e9c1127f2cd403a315f,0,52,52,80,1,onetwo,,,,,,,,,,,,,,,,,,,,,,,,,,,,,,,,,,,,,,,,,,,,,,,,,,,,,,,,,,,,,,,,,,,,,,,,,,,,,,,,,,,,,,,,,,,,,,,,,,,,,,,,,,,,,,,,,,,,,,,,,,,,,,,,,,,,,,,,,,,,,,,,,,,,,,,,,,,,,
,,,,,,6154d702c164d49259d6cc20,62c53a59f799e9c1f976a8f6,2022-07-06_09h31.51.324,Colour_Asymmetry_Pilot,2022.1.3,Win32,144.0714594,62c50e9c1127f2cd403a315f,0,53,53,144,1,onetwo,,,,,,,,,,,,,,,,,,,,,,,,,,,,,,,,,,,,,,,,,,,,,,,,,,,,,,,,,,,,,,,,,,,,,,,,,,,,,,,,,,,,,,,,,,,,,,,,,,,,,,,,,,,,,,,,,,,,,,,,,,,,,,,,,,,,,,,,,,,,,,,,,,,,,,,,,,,,,
,,,,,,6154d702c164d49259d6cc20,62c53a59f799e9c1f976a8f6,2022-07-06_09h31.51.324,Colour_Asymmetry_Pilot,2022.1.3,Win32,144.0714594,62c50e9c1127f2cd403a315f,0,54,54,92,1,threeone,,,,,,,,,,,,,,,,,,,,,,,,,,,,,,,,,,,,,,,,,,,,,,,,,,,,,,,,,,,,,,,,,,,,,,,,,,,,,,,,,,,,,,,,,,,,,,,,,,,,,,,,,,,,,,,,,,,,,,,,,,,,,,,,,,,,,,,,,,,,,,,,,,,,,,,,,,,,,
,,,,,,6154d702c164d49259d6cc20,62c53a59f799e9c1f976a8f6,2022-07-06_09h31.51.324,Colour_Asymmetry_Pilot,2022.1.3,Win32,144.0714594,62c50e9c1127f2cd403a315f,0,55,55,14,1,fourtwo,,,,,,,,,,,,,,,,,,,,,,,,,,,,,,,,,,,,,,,,,,,,,,,,,,,,,,,,,,,,,,,,,,,,,,,,,,,,,,,,,,,,,,,,,,,,,,,,,,,,,,,,,,,,,,,,,,,,,,,,,,,,,,,,,,,,,,,,,,,,,,,,,,,,,,,,,,,,,
,,,,,,6154d702c164d49259d6cc20,62c53a59f799e9c1f976a8f6,2022-07-06_09h31.51.324,Colour_Asymmetry_Pilot,2022.1.3,Win32,144.0714594,62c50e9c1127f2cd403a315f,0,56,56,155,1,twofour,,,,,,,,,,,,,,,,,,,,,,,,,,,,,,,,,,,,,,,,,,,,,,,,,,,,,,,,,,,,,,,,,,,,,,,,,,,,,,,,,,,,,,,,,,,,,,,,,,,,,,,,,,,,,,,,,,,,,,,,,,,,,,,,,,,,,,,,,,,,,,,,,,,,,,,,,,,,,
,,,,,,6154d702c164d49259d6cc20,62c53a59f799e9c1f976a8f6,2022-07-06_09h31.51.324,Colour_Asymmetry_Pilot,2022.1.3,Win32,144.0714594,62c50e9c1127f2cd403a315f,0,57,57,54,1,fourtwo,,,,,,,,,,,,,,,,,,,,,,,,,,,,,,,,,,,,,,,,,,,,,,,,,,,,,,,,,,,,,,,,,,,,,,,,,,,,,,,,,,,,,,,,,,,,,,,,,,,,,,,,,,,,,,,,,,,,,,,,,,,,,,,,,,,,,,,,,,,,,,,,,,,,,,,,,,,,,
,,,,,,6154d702c164d49259d6cc20,62c53a59f799e9c1f976a8f6,2022-07-06_09h31.51.324,Colour_Asymmetry_Pilot,2022.1.3,Win32,144.0714594,62c50e9c1127f2cd403a315f,0,58,58,79,1,fourthree,,,,,,,,,,,,,,,,,,,,,,,,,,,,,,,,,,,,,,,,,,,,,,,,,,,,,,,,,,,,,,,,,,,,,,,,,,,,,,,,,,,,,,,,,,,,,,,,,,,,,,,,,,,,,,,,,,,,,,,,,,,,,,,,,,,,,,,,,,,,,,,,,,,,,,,,,,,,,
,,,,,,6154d702c164d49259d6cc20,62c53a59f799e9c1f976a8f6,2022-07-06_09h31.51.324,Colour_Asymmetry_Pilot,2022.1.3,Win32,144.0714594,62c50e9c1127f2cd403a315f,0,59,59,23,1,fourthree,,,,,,,,,,,,,,,,,,,,,,,,,,,,,,,,,,,,,,,,,,,,,,,,,,,,,,,,,,,,,,,,,,,,,,,,,,,,,,,,,,,,,,,,,,,,,,,,,,,,,,,,,,,,,,,,,,,,,,,,,,,,,,,,,,,,,,,,,,,,,,,,,,,,,,,,,,,,,
,,,,,,6154d702c164d49259d6cc20,62c53a59f799e9c1f976a8f6,2022-07-06_09h31.51.324,Colour_Asymmetry_Pilot,2022.1.3,Win32,144.0714594,62c50e9c1127f2cd403a315f,0,60,60,67,1,twofour,,,,,,,,,,,,,,,,,,,,,,,,,,,,,,,,,,,,,,,,,,,,,,,,,,,,,,,,,,,,,,,,,,,,,,,,,,,,,,,,,,,,,,,,,,,,,,,,,,,,,,,,,,,,,,,,,,,,,,,,,,,,,,,,,,,,,,,,,,,,,,,,,,,,,,,,,,,,,
,,,,,,6154d702c164d49259d6cc20,62c53a59f799e9c1f976a8f6,2022-07-06_09h31.51.324,Colour_Asymmetry_Pilot,2022.1.3,Win32,144.0714594,62c50e9c1127f2cd403a315f,0,61,61,100,1,threeone,,,,,,,,,,,,,,,,,,,,,,,,,,,,,,,,,,,,,,,,,,,,,,,,,,,,,,,,,,,,,,,,,,,,,,,,,,,,,,,,,,,,,,,,,,,,,,,,,,,,,,,,,,,,,,,,,,,,,,,,,,,,,,,,,,,,,,,,,,,,,,,,,,,,,,,,,,,,,
,,,,,,6154d702c164d49259d6cc20,62c53a59f799e9c1f976a8f6,2022-07-06_09h31.51.324,Colour_Asymmetry_Pilot,2022.1.3,Win32,144.0714594,62c50e9c1127f2cd403a315f,0,62,62,90,1,twoone,,,,,,,,,,,,,,,,,,,,,,,,,,,,,,,,,,,,,,,,,,,,,,,,,,,,,,,,,,,,,,,,,,,,,,,,,,,,,,,,,,,,,,,,,,,,,,,,,,,,,,,,,,,,,,,,,,,,,,,,,,,,,,,,,,,,,,,,,,,,,,,,,,,,,,,,,,,,,
,,,,,,6154d702c164d49259d6cc20,62c53a59f799e9c1f976a8f6,2022-07-06_09h31.51.324,Colour_Asymmetry_Pilot,2022.1.3,Win32,144.0714594,62c50e9c1127f2cd403a315f,0,63,63,17,1,onethree,,,,,,,,,,,,,,,,,,,,,,,,,,,,,,,,,,,,,,,,,,,,,,,,,,,,,,,,,,,,,,,,,,,,,,,,,,,,,,,,,,,,,,,,,,,,,,,,,,,,,,,,,,,,,,,,,,,,,,,,,,,,,,,,,,,,,,,,,,,,,,,,,,,,,,,,,,,,,
,,,,,,6154d702c164d49259d6cc20,62c53a59f799e9c1f976a8f6,2022-07-06_09h31.51.324,Colour_Asymmetry_Pilot,2022.1.3,Win32,144.0714594,62c50e9c1127f2cd403a315f,0,64,64,108,1,threeone,,,,,,,,,,,,,,,,,,,,,,,,,,,,,,,,,,,,,,,,,,,,,,,,,,,,,,,,,,,,,,,,,,,,,,,,,,,,,,,,,,,,,,,,,,,,,,,,,,,,,,,,,,,,,,,,,,,,,,,,,,,,,,,,,,,,,,,,,,,,,,,,,,,,,,,,,,,,,
,,,,,,6154d702c164d49259d6cc20,62c53a59f799e9c1f976a8f6,2022-07-06_09h31.51.324,Colour_Asymmetry_Pilot,2022.1.3,Win32,144.0714594,62c50e9c1127f2cd403a315f,0,65,65,131,1,twofour,,,,,,,,,,,,,,,,,,,,,,,,,,,,,,,,,,,,,,,,,,,,,,,,,,,,,,,,,,,,,,,,,,,,,,,,,,,,,,,,,,,,,,,,,,,,,,,,,,,,,,,,,,,,,,,,,,,,,,,,,,,,,,,,,,,,,,,,,,,,,,,,,,,,,,,,,,,,,
,,,,,,6154d702c164d49259d6cc20,62c53a59f799e9c1f976a8f6,2022-07-06_09h31.51.324,Colour_Asymmetry_Pilot,2022.1.3,Win32,144.0714594,62c50e9c1127f2cd403a315f,0,66,66,71,1,fourthree,,,,,,,,,,,,,,,,,,,,,,,,,,,,,,,,,,,,,,,,,,,,,,,,,,,,,,,,,,,,,,,,,,,,,,,,,,,,,,,,,,,,,,,,,,,,,,,,,,,,,,,,,,,,,,,,,,,,,,,,,,,,,,,,,,,,,,,,,,,,,,,,,,,,,,,,,,,,,
,,,,,,6154d702c164d49259d6cc20,62c53a59f799e9c1f976a8f6,2022-07-06_09h31.51.324,Colour_Asymmetry_Pilot,2022.1.3,Win32,144.0714594,62c50e9c1127f2cd403a315f,0,67,67,129,1,onethree,,,,,,,,,,,,,,,,,,,,,,,,,,,,,,,,,,,,,,,,,,,,,,,,,,,,,,,,,,,,,,,,,,,,,,,,,,,,,,,,,,,,,,,,,,,,,,,,,,,,,,,,,,,,,,,,,,,,,,,,,,,,,,,,,,,,,,,,,,,,,,,,,,,,,,,,,,,,,
,,,,,,6154d702c164d49259d6cc20,62c53a59f799e9c1f976a8f6,2022-07-06_09h31.51.324,Colour_Asymmetry_Pilot,2022.1.3,Win32,144.0714594,62c50e9c1127f2cd403a315f,0,68,68,20,1,threeone,,,,,,,,,,,,,,,,,,,,,,,,,,,,,,,,,,,,,,,,,,,,,,,,,,,,,,,,,,,,,,,,,,,,,,,,,,,,,,,,,,,,,,,,,,,,,,,,,,,,,,,,,,,,,,,,,,,,,,,,,,,,,,,,,,,,,,,,,,,,,,,,,,,,,,,,,,,,,
,,,,,,6154d702c164d49259d6cc20,62c53a59f799e9c1f976a8f6,2022-07-06_09h31.51.324,Colour_Asymmetry_Pilot,2022.1.3,Win32,144.0714594,62c50e9c1127f2cd403a315f,0,69,69,9,1,onethree,,,,,,,,,,,,,,,,,,,,,,,,,,,,,,,,,,,,,,,,,,,,,,,,,,,,,,,,,,,,,,,,,,,,,,,,,,,,,,,,,,,,,,,,,,,,,,,,,,,,,,,,,,,,,,,,,,,,,,,,,,,,,,,,,,,,,,,,,,,,,,,,,,,,,,,,,,,,,
,,,,,,6154d702c164d49259d6cc20,62c53a59f799e9c1f976a8f6,2022-07-06_09h31.51.324,Colour_Asymmetry_Pilot,2022.1.3,Win32,144.0714594,62c50e9c1127f2cd403a315f,0,70,70,11,1,twofour,,,,,,,,,,,,,,,,,,,,,,,,,,,,,,,,,,,,,,,,,,,,,,,,,,,,,,,,,,,,,,,,,,,,,,,,,,,,,,,,,,,,,,,,,,,,,,,,,,,,,,,,,,,,,,,,,,,,,,,,,,,,,,,,,,,,,,,,,,,,,,,,,,,,,,,,,,,,,
,,,,,,6154d702c164d49259d6cc20,62c53a59f799e9c1f976a8f6,2022-07-06_09h31.51.324,Colour_Asymmetry_Pilot,2022.1.3,Win32,144.0714594,62c50e9c1127f2cd403a315f,0,71,71,38,1,fourtwo,,,,,,,,,,,,,,,,,,,,,,,,,,,,,,,,,,,,,,,,,,,,,,,,,,,,,,,,,,,,,,,,,,,,,,,,,,,,,,,,,,,,,,,,,,,,,,,,,,,,,,,,,,,,,,,,,,,,,,,,,,,,,,,,,,,,,,,,,,,,,,,,,,,,,,,,,,,,,
,,,,,,6154d702c164d49259d6cc20,62c53a59f799e9c1f976a8f6,2022-07-06_09h31.51.324,Colour_Asymmetry_Pilot,2022.1.3,Win32,144.0714594,62c50e9c1127f2cd403a315f,0,72,72,12,1,threeone,,,,,,,,,,,,,,,,,,,,,,,,,,,,,,,,,,,,,,,,,,,,,,,,,,,,,,,,,,,,,,,,,,,,,,,,,,,,,,,,,,,,,,,,,,,,,,,,,,,,,,,,,,,,,,,,,,,,,,,,,,,,,,,,,,,,,,,,,,,,,,,,,,,,,,,,,,,,,
,,,,,,6154d702c164d49259d6cc20,62c53a59f799e9c1f976a8f6,2022-07-06_09h31.51.324,Colour_Asymmetry_Pilot,2022.1.3,Win32,144.0714594,62c50e9c1127f2cd403a315f,0,73,73,118,1,fourtwo,,,,,,,,,,,,,,,,,,,,,,,,,,,,,,,,,,,,,,,,,,,,,,,,,,,,,,,,,,,,,,,,,,,,,,,,,,,,,,,,,,,,,,,,,,,,,,,,,,,,,,,,,,,,,,,,,,,,,,,,,,,,,,,,,,,,,,,,,,,,,,,,,,,,,,,,,,,,,
,,,,,,6154d702c164d49259d6cc20,62c53a59f799e9c1f976a8f6,2022-07-06_09h31.51.324,Colour_Asymmetry_Pilot,2022.1.3,Win32,144.0714594,62c50e9c1127f2cd403a315f,0,74,74,73,1,onethree,,,,,,,,,,,,,,,,,,,,,,,,,,,,,,,,,,,,,,,,,,,,,,,,,,,,,,,,,,,,,,,,,,,,,,,,,,,,,,,,,,,,,,,,,,,,,,,,,,,,,,,,,,,,,,,,,,,,,,,,,,,,,,,,,,,,,,,,,,,,,,,,,,,,,,,,,,,,,
,,,,,,6154d702c164d49259d6cc20,62c53a59f799e9c1f976a8f6,2022-07-06_09h31.51.324,Colour_Asymmetry_Pilot,2022.1.3,Win32,144.0714594,62c50e9c1127f2cd403a315f,0,75,75,50,1,twoone,,,,,,,,,,,,,,,,,,,,,,,,,,,,,,,,,,,,,,,,,,,,,,,,,,,,,,,,,,,,,,,,,,,,,,,,,,,,,,,,,,,,,,,,,,,,,,,,,,,,,,,,,,,,,,,,,,,,,,,,,,,,,,,,,,,,,,,,,,,,,,,,,,,,,,,,,,,,,
,,,,,,6154d702c164d49259d6cc20,62c53a59f799e9c1f976a8f6,2022-07-06_09h31.51.324,Colour_Asymmetry_Pilot,2022.1.3,Win32,144.0714594,62c50e9c1127f2cd403a315f,0,76,76,149,1,threefour,,,,,,,,,,,,,,,,,,,,,,,,,,,,,,,,,,,,,,,,,,,,,,,,,,,,,,,,,,,,,,,,,,,,,,,,,,,,,,,,,,,,,,,,,,,,,,,,,,,,,,,,,,,,,,,,,,,,,,,,,,,,,,,,,,,,,,,,,,,,,,,,,,,,,,,,,,,,,
,,,,,,6154d702c164d49259d6cc20,62c53a59f799e9c1f976a8f6,2022-07-06_09h31.51.324,Colour_Asymmetry_Pilot,2022.1.3,Win32,144.0714594,62c50e9c1127f2cd403a315f,0,77,77,111,1,fourthree,,,,,,,,,,,,,,,,,,,,,,,,,,,,,,,,,,,,,,,,,,,,,,,,,,,,,,,,,,,,,,,,,,,,,,,,,,,,,,,,,,,,,,,,,,,,,,,,,,,,,,,,,,,,,,,,,,,,,,,,,,,,,,,,,,,,,,,,,,,,,,,,,,,,,,,,,,,,,
,,,,,,6154d702c164d49259d6cc20,62c53a59f799e9c1f976a8f6,2022-07-06_09h31.51.324,Colour_Asymmetry_Pilot,2022.1.3,Win32,144.0714594,62c50e9c1127f2cd403a315f,0,78,78,55,1,fourthree,,,,,,,,,,,,,,,,,,,,,,,,,,,,,,,,,,,,,,,,,,,,,,,,,,,,,,,,,,,,,,,,,,,,,,,,,,,,,,,,,,,,,,,,,,,,,,,,,,,,,,,,,,,,,,,,,,,,,,,,,,,,,,,,,,,,,,,,,,,,,,,,,,,,,,,,,,,,,
,,,,,,6154d702c164d49259d6cc20,62c53a59f799e9c1f976a8f6,2022-07-06_09h31.51.324,Colour_Asymmetry_Pilot,2022.1.3,Win32,144.0714594,62c50e9c1127f2cd403a315f,0,79,79,51,1,twofour,,,,,,,,,,,,,,,,,,,,,,,,,,,,,,,,,,,,,,,,,,,,,,,,,,,,,,,,,,,,,,,,,,,,,,,,,,,,,,,,,,,,,,,,,,,,,,,,,,,,,,,,,,,,,,,,,,,,,,,,,,,,,,,,,,,,,,,,,,,,,,,,,,,,,,,,,,,,,
,,,,,,6154d702c164d49259d6cc20,62c53a59f799e9c1f976a8f6,2022-07-06_09h31.51.324,Colour_Asymmetry_Pilot,2022.1.3,Win32,144.0714594,62c50e9c1127f2cd403a315f,0,80,80,145,1,onethree,,,,,,,,,,,,,,,,,,,,,,,,,,,,,,,,,,,,,,,,,,,,,,,,,,,,,,,,,,,,,,,,,,,,,,,,,,,,,,,,,,,,,,,,,,,,,,,,,,,,,,,,,,,,,,,,,,,,,,,,,,,,,,,,,,,,,,,,,,,,,,,,,,,,,,,,,,,,,
,,,,,,6154d702c164d49259d6cc20,62c53a59f799e9c1f976a8f6,2022-07-06_09h31.51.324,Colour_Asymmetry_Pilot,2022.1.3,Win32,144.0714594,62c50e9c1127f2cd403a315f,0,81,81,13,1,threefour,,,,,,,,,,,,,,,,,,,,,,,,,,,,,,,,,,,,,,,,,,,,,,,,,,,,,,,,,,,,,,,,,,,,,,,,,,,,,,,,,,,,,,,,,,,,,,,,,,,,,,,,,,,,,,,,,,,,,,,,,,,,,,,,,,,,,,,,,,,,,,,,,,,,,,,,,,,,,
,,,,,,6154d702c164d49259d6cc20,62c53a59f799e9c1f976a8f6,2022-07-06_09h31.51.324,Colour_Asymmetry_Pilot,2022.1.3,Win32,144.0714594,62c50e9c1127f2cd403a315f,0,82,82,135,1,fourthree,,,,,,,,,,,,,,,,,,,,,,,,,,,,,,,,,,,,,,,,,,,,,,,,,,,,,,,,,,,,,,,,,,,,,,,,,,,,,,,,,,,,,,,,,,,,,,,,,,,,,,,,,,,,,,,,,,,,,,,,,,,,,,,,,,,,,,,,,,,,,,,,,,,,,,,,,,,,,
,,,,,,6154d702c164d49259d6cc20,62c53a59f799e9c1f976a8f6,2022-07-06_09h31.51.324,Colour_Asymmetry_Pilot,2022.1.3,Win32,144.0714594,62c50e9c1127f2cd403a315f,0,83,83,57,1,onethree,,,,,,,,,,,,,,,,,,,,,,,,,,,,,,,,,,,,,,,,,,,,,,,,,,,,,,,,,,,,,,,,,,,,,,,,,,,,,,,,,,,,,,,,,,,,,,,,,,,,,,,,,,,,,,,,,,,,,,,,,,,,,,,,,,,,,,,,,,,,,,,,,,,,,,,,,,,,,
,,,,,,6154d702c164d49259d6cc20,62c53a59f799e9c1f976a8f6,2022-07-06_09h31.51.324,Colour_Asymmetry_Pilot,2022.1.3,Win32,144.0714594,62c50e9c1127f2cd403a315f,0,84,84,72,1,onetwo,,,,,,,,,,,,,,,,,,,,,,,,,,,,,,,,,,,,,,,,,,,,,,,,,,,,,,,,,,,,,,,,,,,,,,,,,,,,,,,,,,,,,,,,,,,,,,,,,,,,,,,,,,,,,,,,,,,,,,,,,,,,,,,,,,,,,,,,,,,,,,,,,,,,,,,,,,,,,
,,,,,,6154d702c164d49259d6cc20,62c53a59f799e9c1f976a8f6,2022-07-06_09h31.51.324,Colour_Asymmetry_Pilot,2022.1.3,Win32,144.0714594,62c50e9c1127f2cd403a315f,0,85,85,45,1,threefour,,,,,,,,,,,,,,,,,,,,,,,,,,,,,,,,,,,,,,,,,,,,,,,,,,,,,,,,,,,,,,,,,,,,,,,,,,,,,,,,,,,,,,,,,,,,,,,,,,,,,,,,,,,,,,,,,,,,,,,,,,,,,,,,,,,,,,,,,,,,,,,,,,,,,,,,,,,,,
,,,,,,6154d702c164d49259d6cc20,62c53a59f799e9c1f976a8f6,2022-07-06_09h31.51.324,Colour_Asymmetry_Pilot,2022.1.3,Win32,144.0714594,62c50e9c1127f2cd403a315f,0,86,86,152,1,onetwo,,,,,,,,,,,,,,,,,,,,,,,,,,,,,,,,,,,,,,,,,,,,,,,,,,,,,,,,,,,,,,,,,,,,,,,,,,,,,,,,,,,,,,,,,,,,,,,,,,,,,,,,,,,,,,,,,,,,,,,,,,,,,,,,,,,,,,,,,,,,,,,,,,,,,,,,,,,,,
,,,,,,6154d702c164d49259d6cc20,62c53a59f799e9c1f976a8f6,2022-07-06_09h31.51.324,Colour_Asymmetry_Pilot,2022.1.3,Win32,144.0714594,62c50e9c1127f2cd403a315f,0,87,87,140,1,threeone,,,,,,,,,,,,,,,,,,,,,,,,,,,,,,,,,,,,,,,,,,,,,,,,,,,,,,,,,,,,,,,,,,,,,,,,,,,,,,,,,,,,,,,,,,,,,,,,,,,,,,,,,,,,,,,,,,,,,,,,,,,,,,,,,,,,,,,,,,,,,,,,,,,,,,,,,,,,,
,,,,,,6154d702c164d49259d6cc20,62c53a59f799e9c1f976a8f6,2022-07-06_09h31.51.324,Colour_Asymmetry_Pilot,2022.1.3,Win32,144.0714594,62c50e9c1127f2cd403a315f,0,88,88,88,1,onetwo,,,,,,,,,,,,,,,,,,,,,,,,,,,,,,,,,,,,,,,,,,,,,,,,,,,,,,,,,,,,,,,,,,,,,,,,,,,,,,,,,,,,,,,,,,,,,,,,,,,,,,,,,,,,,,,,,,,,,,,,,,,,,,,,,,,,,,,,,,,,,,,,,,,,,,,,,,,,,
,,,,,,6154d702c164d49259d6cc20,62c53a59f799e9c1f976a8f6,2022-07-06_09h31.51.324,Colour_Asymmetry_Pilot,2022.1.3,Win32,144.0714594,62c50e9c1127f2cd403a315f,0,89,89,85,1,threefour,,,,,,,,,,,,,,,,,,,,,,,,,,,,,,,,,,,,,,,,,,,,,,,,,,,,,,,,,,,,,,,,,,,,,,,,,,,,,,,,,,,,,,,,,,,,,,,,,,,,,,,,,,,,,,,,,,,,,,,,,,,,,,,,,,,,,,,,,,,,,,,,,,,,,,,,,,,,,
,,,,,,6154d702c164d49259d6cc20,62c53a59f799e9c1f976a8f6,2022-07-06_09h31.51.324,Colour_Asymmetry_Pilot,2022.1.3,Win32,144.0714594,62c50e9c1127f2cd403a315f,0,90,90,83,1,twofour,,,,,,,,,,,,,,,,,,,,,,,,,,,,,,,,,,,,,,,,,,,,,,,,,,,,,,,,,,,,,,,,,,,,,,,,,,,,,,,,,,,,,,,,,,,,,,,,,,,,,,,,,,,,,,,,,,,,,,,,,,,,,,,,,,,,,,,,,,,,,,,,,,,,,,,,,,,,,
,,,,,,6154d702c164d49259d6cc20,62c53a59f799e9c1f976a8f6,2022-07-06_09h31.51.324,Colour_Asymmetry_Pilot,2022.1.3,Win32,144.0714594,62c50e9c1127f2cd403a315f,0,91,91,143,1,fourthree,,,,,,,,,,,,,,,,,,,,,,,,,,,,,,,,,,,,,,,,,,,,,,,,,,,,,,,,,,,,,,,,,,,,,,,,,,,,,,,,,,,,,,,,,,,,,,,,,,,,,,,,,,,,,,,,,,,,,,,,,,,,,,,,,,,,,,,,,,,,,,,,,,,,,,,,,,,,,
,,,,,,6154d702c164d49259d6cc20,62c53a59f799e9c1f976a8f6,2022-07-06_09h31.51.324,Colour_Asymmetry_Pilot,2022.1.3,Win32,144.0714594,62c50e9c1127f2cd403a315f,0,92,92,148,1,threeone,,,,,,,,,,,,,,,,,,,,,,,,,,,,,,,,,,,,,,,,,,,,,,,,,,,,,,,,,,,,,,,,,,,,,,,,,,,,,,,,,,,,,,,,,,,,,,,,,,,,,,,,,,,,,,,,,,,,,,,,,,,,,,,,,,,,,,,,,,,,,,,,,,,,,,,,,,,,,
,,,,,,6154d702c164d49259d6cc20,62c53a59f799e9c1f976a8f6,2022-07-06_09h31.51.324,Colour_Asymmetry_Pilot,2022.1.3,Win32,144.0714594,62c50e9c1127f2cd403a315f,0,93,93,146,1,twoone,,,,,,,,,,,,,,,,,,,,,,,,,,,,,,,,,,,,,,,,,,,,,,,,,,,,,,,,,,,,,,,,,,,,,,,,,,,,,,,,,,,,,,,,,,,,,,,,,,,,,,,,,,,,,,,,,,,,,,,,,,,,,,,,,,,,,,,,,,,,,,,,,,,,,,,,,,,,,
,,,,,,6154d702c164d49259d6cc20,62c53a59f799e9c1f976a8f6,2022-07-06_09h31.51.324,Colour_Asymmetry_Pilot,2022.1.3,Win32,144.0714594,62c50e9c1127f2cd403a315f,0,94,94,7,1,fourthree,,,,,,,,,,,,,,,,,,,,,,,,,,,,,,,,,,,,,,,,,,,,,,,,,,,,,,,,,,,,,,,,,,,,,,,,,,,,,,,,,,,,,,,,,,,,,,,,,,,,,,,,,,,,,,,,,,,,,,,,,,,,,,,,,,,,,,,,,,,,,,,,,,,,,,,,,,,,,
,,,,,,6154d702c164d49259d6cc20,62c53a59f799e9c1f976a8f6,2022-07-06_09h31.51.324,Colour_Asymmetry_Pilot,2022.1.3,Win32,144.0714594,62c50e9c1127f2cd403a315f,0,95,95,120,1,onetwo,,,,,,,,,,,,,,,,,,,,,,,,,,,,,,,,,,,,,,,,,,,,,,,,,,,,,,,,,,,,,,,,,,,,,,,,,,,,,,,,,,,,,,,,,,,,,,,,,,,,,,,,,,,,,,,,,,,,,,,,,,,,,,,,,,,,,,,,,,,,,,,,,,,,,,,,,,,,,
,,,,,,6154d702c164d49259d6cc20,62c53a59f799e9c1f976a8f6,2022-07-06_09h31.51.324,Colour_Asymmetry_Pilot,2022.1.3,Win32,144.0714594,62c50e9c1127f2cd403a315f,0,96,96,75,1,twofour,,,,,,,,,,,,,,,,,,,,,,,,,,,,,,,,,,,,,,,,,,,,,,,,,,,,,,,,,,,,,,,,,,,,,,,,,,,,,,,,,,,,,,,,,,,,,,,,,,,,,,,,,,,,,,,,,,,,,,,,,,,,,,,,,,,,,,,,,,,,,,,,,,,,,,,,,,,,,
,,,,,,6154d702c164d49259d6cc20,62c53a59f799e9c1f976a8f6,2022-07-06_09h31.51.324,Colour_Asymmetry_Pilot,2022.1.3,Win32,144.0714594,62c50e9c1127f2cd403a315f,0,97,97,81,1,onethree,,,,,,,,,,,,,,,,,,,,,,,,,,,,,,,,,,,,,,,,,,,,,,,,,,,,,,,,,,,,,,,,,,,,,,,,,,,,,,,,,,,,,,,,,,,,,,,,,,,,,,,,,,,,,,,,,,,,,,,,,,,,,,,,,,,,,,,,,,,,,,,,,,,,,,,,,,,,,
,,,,,,6154d702c164d49259d6cc20,62c53a59f799e9c1f976a8f6,2022-07-06_09h31.51.324,Colour_Asymmetry_Pilot,2022.1.3,Win32,144.0714594,62c50e9c1127f2cd403a315f,0,98,98,122,1,twoone,,,,,,,,,,,,,,,,,,,,,,,,,,,,,,,,,,,,,,,,,,,,,,,,,,,,,,,,,,,,,,,,,,,,,,,,,,,,,,,,,,,,,,,,,,,,,,,,,,,,,,,,,,,,,,,,,,,,,,,,,,,,,,,,,,,,,,,,,,,,,,,,,,,,,,,,,,,,,
,,,,,,6154d702c164d49259d6cc20,62c53a59f799e9c1f976a8f6,2022-07-06_09h31.51.324,Colour_Asymmetry_Pilot,2022.1.3,Win32,144.0714594,62c50e9c1127f2cd403a315f,0,99,99,95,1,fourthree,,,,,,,,,,,,,,,,,,,,,,,,,,,,,,,,,,,,,,,,,,,,,,,,,,,,,,,,,,,,,,,,,,,,,,,,,,,,,,,,,,,,,,,,,,,,,,,,,,,,,,,,,,,,,,,,,,,,,,,,,,,,,,,,,,,,,,,,,,,,,,,,,,,,,,,,,,,,,
,,,,,,6154d702c164d49259d6cc20,62c53a59f799e9c1f976a8f6,2022-07-06_09h31.51.324,Colour_Asymmetry_Pilot,2022.1.3,Win32,144.0714594,62c50e9c1127f2cd403a315f,0,100,100,87,1,fourthree,,,,,,,,,,,,,,,,,,,,,,,,,,,,,,,,,,,,,,,,,,,,,,,,,,,,,,,,,,,,,,,,,,,,,,,,,,,,,,,,,,,,,,,,,,,,,,,,,,,,,,,,,,,,,,,,,,,,,,,,,,,,,,,,,,,,,,,,,,,,,,,,,,,,,,,,,,,,,
,,,,,,6154d702c164d49259d6cc20,62c53a59f799e9c1f976a8f6,2022-07-06_09h31.51.324,Colour_Asymmetry_Pilot,2022.1.3,Win32,144.0714594,62c50e9c1127f2cd403a315f,0,101,101,147,1,twofour,,,,,,,,,,,,,,,,,,,,,,,,,,,,,,,,,,,,,,,,,,,,,,,,,,,,,,,,,,,,,,,,,,,,,,,,,,,,,,,,,,,,,,,,,,,,,,,,,,,,,,,,,,,,,,,,,,,,,,,,,,,,,,,,,,,,,,,,,,,,,,,,,,,,,,,,,,,,,
,,,,,,6154d702c164d49259d6cc20,62c53a59f799e9c1f976a8f6,2022-07-06_09h31.51.324,Colour_Asymmetry_Pilot,2022.1.3,Win32,144.0714594,62c50e9c1127f2cd403a315f,0,102,102,97,1,onethree,,,,,,,,,,,,,,,,,,,,,,,,,,,,,,,,,,,,,,,,,,,,,,,,,,,,,,,,,,,,,,,,,,,,,,,,,,,,,,,,,,,,,,,,,,,,,,,,,,,,,,,,,,,,,,,,,,,,,,,,,,,,,,,,,,,,,,,,,,,,,,,,,,,,,,,,,,,,,
,,,,,,6154d702c164d49259d6cc20,62c53a59f799e9c1f976a8f6,2022-07-06_09h31.51.324,Colour_Asymmetry_Pilot,2022.1.3,Win32,144.0714594,62c50e9c1127f2cd403a315f,0,103,103,105,1,onethree,,,,,,,,,,,,,,,,,,,,,,,,,,,,,,,,,,,,,,,,,,,,,,,,,,,,,,,,,,,,,,,,,,,,,,,,,,,,,,,,,,,,,,,,,,,,,,,,,,,,,,,,,,,,,,,,,,,,,,,,,,,,,,,,,,,,,,,,,,,,,,,,,,,,,,,,,,,,,
,,,,,,6154d702c164d49259d6cc20,62c53a59f799e9c1f976a8f6,2022-07-06_09h31.51.324,Colour_Asymmetry_Pilot,2022.1.3,Win32,144.0714594,62c50e9c1127f2cd403a315f,0,104,104,34,1,twoone,,,,,,,,,,,,,,,,,,,,,,,,,,,,,,,,,,,,,,,,,,,,,,,,,,,,,,,,,,,,,,,,,,,,,,,,,,,,,,,,,,,,,,,,,,,,,,,,,,,,,,,,,,,,,,,,,,,,,,,,,,,,,,,,,,,,,,,,,,,,,,,,,,,,,,,,,,,,,
,,,,,,6154d702c164d49259d6cc20,62c53a59f799e9c1f976a8f6,2022-07-06_09h31.51.324,Colour_Asymmetry_Pilot,2022.1.3,Win32,144.0714594,62c50e9c1127f2cd403a315f,0,105,105,136,1,onetwo,,,,,,,,,,,,,,,,,,,,,,,,,,,,,,,,,,,,,,,,,,,,,,,,,,,,,,,,,,,,,,,,,,,,,,,,,,,,,,,,,,,,,,,,,,,,,,,,,,,,,,,,,,,,,,,,,,,,,,,,,,,,,,,,,,,,,,,,,,,,,,,,,,,,,,,,,,,,,
,,,,,,6154d702c164d49259d6cc20,62c53a59f799e9c1f976a8f6,2022-07-06_09h31.51.324,Colour_Asymmetry_Pilot,2022.1.3,Win32,144.0714594,62c50e9c1127f2cd403a315f,0,106,106,153,1,onethree,,,,,,,,,,,,,,,,,,,,,,,,,,,,,,,,,,,,,,,,,,,,,,,,,,,,,,,,,,,,,,,,,,,,,,,,,,,,,,,,,,,,,,,,,,,,,,,,,,,,,,,,,,,,,,,,,,,,,,,,,,,,,,,,,,,,,,,,,,,,,,,,,,,,,,,,,,,,,
,,,,,,6154d702c164d49259d6cc20,62c53a59f799e9c1f976a8f6,2022-07-06_09h31.51.324,Colour_Asymmetry_Pilot,2022.1.3,Win32,144.0714594,62c50e9c1127f2cd403a315f,0,107,107,66,1,twoone,,,,,,,,,,,,,,,,,,,,,,,,,,,,,,,,,,,,,,,,,,,,,,,,,,,,,,,,,,,,,,,,,,,,,,,,,,,,,,,,,,,,,,,,,,,,,,,,,,,,,,,,,,,,,,,,,,,,,,,,,,,,,,,,,,,,,,,,,,,,,,,,,,,,,,,,,,,,,
,,,,,,6154d702c164d49259d6cc20,62c53a59f799e9c1f976a8f6,2022-07-06_09h31.51.324,Colour_Asymmetry_Pilot,2022.1.3,Win32,144.0714594,62c50e9c1127f2cd403a315f,0,108,108,56,1,onetwo,,,,,,,,,,,,,,,,,,,,,,,,,,,,,,,,,,,,,,,,,,,,,,,,,,,,,,,,,,,,,,,,,,,,,,,,,,,,,,,,,,,,,,,,,,,,,,,,,,,,,,,,,,,,,,,,,,,,,,,,,,,,,,,,,,,,,,,,,,,,,,,,,,,,,,,,,,,,,
,,,,,,6154d702c164d49259d6cc20,62c53a59f799e9c1f976a8f6,2022-07-06_09h31.51.324,Colour_Asymmetry_Pilot,2022.1.3,Win32,144.0714594,62c50e9c1127f2cd403a315f,0,109,109,115,1,twofour,,,,,,,,,,,,,,,,,,,,,,,,,,,,,,,,,,,,,,,,,,,,,,,,,,,,,,,,,,,,,,,,,,,,,,,,,,,,,,,,,,,,,,,,,,,,,,,,,,,,,,,,,,,,,,,,,,,,,,,,,,,,,,,,,,,,,,,,,,,,,,,,,,,,,,,,,,,,,
,,,,,,6154d702c164d49259d6cc20,62c53a59f799e9c1f976a8f6,2022-07-06_09h31.51.324,Colour_Asymmetry_Pilot,2022.1.3,Win32,144.0714594,62c50e9c1127f2cd403a315f,0,110,110,18,1,twoone,,,,,,,,,,,,,,,,,,,,,,,,,,,,,,,,,,,,,,,,,,,,,,,,,,,,,,,,,,,,,,,,,,,,,,,,,,,,,,,,,,,,,,,,,,,,,,,,,,,,,,,,,,,,,,,,,,,,,,,,,,,,,,,,,,,,,,,,,,,,,,,,,,,,,,,,,,,,,
,,,,,,6154d702c164d49259d6cc20,62c53a59f799e9c1f976a8f6,2022-07-06_09h31.51.324,Colour_Asymmetry_Pilot,2022.1.3,Win32,144.0714594,62c50e9c1127f2cd403a315f,0,111,111,68,1,threeone,,,,,,,,,,,,,,,,,,,,,,,,,,,,,,,,,,,,,,,,,,,,,,,,,,,,,,,,,,,,,,,,,,,,,,,,,,,,,,,,,,,,,,,,,,,,,,,,,,,,,,,,,,,,,,,,,,,,,,,,,,,,,,,,,,,,,,,,,,,,,,,,,,,,,,,,,,,,,
,,,,,,6154d702c164d49259d6cc20,62c53a59f799e9c1f976a8f6,2022-07-06_09h31.51.324,Colour_Asymmetry_Pilot,2022.1.3,Win32,144.0714594,62c50e9c1127f2cd403a315f,0,112,112,15,1,fourthree,,,,,,,,,,,,,,,,,,,,,,,,,,,,,,,,,,,,,,,,,,,,,,,,,,,,,,,,,,,,,,,,,,,,,,,,,,,,,,,,,,,,,,,,,,,,,,,,,,,,,,,,,,,,,,,,,,,,,,,,,,,,,,,,,,,,,,,,,,,,,,,,,,,,,,,,,,,,,
,,,,,,6154d702c164d49259d6cc20,62c53a59f799e9c1f976a8f6,2022-07-06_09h31.51.324,Colour_Asymmetry_Pilot,2022.1.3,Win32,144.0714594,62c50e9c1127f2cd403a315f,0,113,113,130,1,twoone,,,,,,,,,,,,,,,,,,,,,,,,,,,,,,,,,,,,,,,,,,,,,,,,,,,,,,,,,,,,,,,,,,,,,,,,,,,,,,,,,,,,,,,,,,,,,,,,,,,,,,,,,,,,,,,,,,,,,,,,,,,,,,,,,,,,,,,,,,,,,,,,,,,,,,,,,,,,,
,,,,,,6154d702c164d49259d6cc20,62c53a59f799e9c1f976a8f6,2022-07-06_09h31.51.324,Colour_Asymmetry_Pilot,2022.1.3,Win32,144.0714594,62c50e9c1127f2cd403a315f,0,114,114,77,1,threefour,,,,,,,,,,,,,,,,,,,,,,,,,,,,,,,,,,,,,,,,,,,,,,,,,,,,,,,,,,,,,,,,,,,,,,,,,,,,,,,,,,,,,,,,,,,,,,,,,,,,,,,,,,,,,,,,,,,,,,,,,,,,,,,,,,,,,,,,,,,,,,,,,,,,,,,,,,,,,
,,,,,,6154d702c164d49259d6cc20,62c53a59f799e9c1f976a8f6,2022-07-06_09h31.51.324,Colour_Asymmetry_Pilot,2022.1.3,Win32,144.0714594,62c50e9c1127f2cd403a315f,0,115,115,158,1,fourtwo,,,,,,,,,,,,,,,,,,,,,,,,,,,,,,,,,,,,,,,,,,,,,,,,,,,,,,,,,,,,,,,,,,,,,,,,,,,,,,,,,,,,,,,,,,,,,,,,,,,,,,,,,,,,,,,,,,,,,,,,,,,,,,,,,,,,,,,,,,,,,,,,,,,,,,,,,,,,,
,,,,,,6154d702c164d49259d6cc20,62c53a59f799e9c1f976a8f6,2022-07-06_09h31.51.324,Colour_Asymmetry_Pilot,2022.1.3,Win32,144.0714594,62c50e9c1127f2cd403a315f,0,116,116,154,1,twoone,,,,,,,,,,,,,,,,,,,,,,,,,,,,,,,,,,,,,,,,,,,,,,,,,,,,,,,,,,,,,,,,,,,,,,,,,,,,,,,,,,,,,,,,,,,,,,,,,,,,,,,,,,,,,,,,,,,,,,,,,,,,,,,,,,,,,,,,,,,,,,,,,,,,,,,,,,,,,
,,,,,,6154d702c164d49259d6cc20,62c53a59f799e9c1f976a8f6,2022-07-06_09h31.51.324,Colour_Asymmetry_Pilot,2022.1.3,Win32,144.0714594,62c50e9c1127f2cd403a315f,0,117,117,132,1,threeone,,,,,,,,,,,,,,,,,,,,,,,,,,,,,,,,,,,,,,,,,,,,,,,,,,,,,,,,,,,,,,,,,,,,,,,,,,,,,,,,,,,,,,,,,,,,,,,,,,,,,,,,,,,,,,,,,,,,,,,,,,,,,,,,,,,,,,,,,,,,,,,,,,,,,,,,,,,,,
,,,,,,6154d702c164d49259d6cc20,62c53a59f799e9c1f976a8f6,2022-07-06_09h31.51.324,Colour_Asymmetry_Pilot,2022.1.3,Win32,144.0714594,62c50e9c1127f2cd403a315f,0,118,118,117,1,threefour,,,,,,,,,,,,,,,,,,,,,,,,,,,,,,,,,,,,,,,,,,,,,,,,,,,,,,,,,,,,,,,,,,,,,,,,,,,,,,,,,,,,,,,,,,,,,,,,,,,,,,,,,,,,,,,,,,,,,,,,,,,,,,,,,,,,,,,,,,,,,,,,,,,,,,,,,,,,,
,,,,,,6154d702c164d49259d6cc20,62c53a59f799e9c1f976a8f6,2022-07-06_09h31.51.324,Colour_Asymmetry_Pilot,2022.1.3,Win32,144.0714594,62c50e9c1127f2cd403a315f,0,119,119,49,1,onethree,,,,,,,,,,,,,,,,,,,,,,,,,,,,,,,,,,,,,,,,,,,,,,,,,,,,,,,,,,,,,,,,,,,,,,,,,,,,,,,,,,,,,,,,,,,,,,,,,,,,,,,,,,,,,,,,,,,,,,,,,,,,,,,,,,,,,,,,,,,,,,,,,,,,,,,,,,,,,
,,,,,,6154d702c164d49259d6cc20,62c53a59f799e9c1f976a8f6,2022-07-06_09h31.51.324,Colour_Asymmetry_Pilot,2022.1.3,Win32,144.0714594,62c50e9c1127f2cd403a315f,0,120,120,160,1,onetwo,,,,,,,,,,,,,,,,,,,,,,,,,,,,,,,,,,,,,,,,,,,,,,,,,,,,,,,,,,,,,,,,,,,,,,,,,,,,,,,,,,,,,,,,,,,,,,,,,,,,,,,,,,,,,,,,,,,,,,,,,,,,,,,,,,,,,,,,,,,,,,,,,,,,,,,,,,,,,
,,,,,,6154d702c164d49259d6cc20,62c53a59f799e9c1f976a8f6,2022-07-06_09h31.51.324,Colour_Asymmetry_Pilot,2022.1.3,Win32,144.0714594,62c50e9c1127f2cd403a315f,0,121,121,101,1,threefour,,,,,,,,,,,,,,,,,,,,,,,,,,,,,,,,,,,,,,,,,,,,,,,,,,,,,,,,,,,,,,,,,,,,,,,,,,,,,,,,,,,,,,,,,,,,,,,,,,,,,,,,,,,,,,,,,,,,,,,,,,,,,,,,,,,,,,,,,,,,,,,,,,,,,,,,,,,,,
,,,,,,6154d702c164d49259d6cc20,62c53a59f799e9c1f976a8f6,2022-07-06_09h31.51.324,Colour_Asymmetry_Pilot,2022.1.3,Win32,144.0714594,62c50e9c1127f2cd403a315f,0,122,122,60,1,threeone,,,,,,,,,,,,,,,,,,,,,,,,,,,,,,,,,,,,,,,,,,,,,,,,,,,,,,,,,,,,,,,,,,,,,,,,,,,,,,,,,,,,,,,,,,,,,,,,,,,,,,,,,,,,,,,,,,,,,,,,,,,,,,,,,,,,,,,,,,,,,,,,,,,,,,,,,,,,,
,,,,,,6154d702c164d49259d6cc20,62c53a59f799e9c1f976a8f6,2022-07-06_09h31.51.324,Colour_Asymmetry_Pilot,2022.1.3,Win32,144.0714594,62c50e9c1127f2cd403a315f,0,123,123,142,1,fourtwo,,,,,,,,,,,,,,,,,,,,,,,,,,,,,,,,,,,,,,,,,,,,,,,,,,,,,,,,,,,,,,,,,,,,,,,,,,,,,,,,,,,,,,,,,,,,,,,,,,,,,,,,,,,,,,,,,,,,,,,,,,,,,,,,,,,,,,,,,,,,,,,,,,,,,,,,,,,,,
,,,,,,6154d702c164d49259d6cc20,62c53a59f799e9c1f976a8f6,2022-07-06_09h31.51.324,Colour_Asymmetry_Pilot,2022.1.3,Win32,144.0714594,62c50e9c1127f2cd403a315f,0,124,124,104,1,onetwo,,,,,,,,,,,,,,,,,,,,,,,,,,,,,,,,,,,,,,,,,,,,,,,,,,,,,,,,,,,,,,,,,,,,,,,,,,,,,,,,,,,,,,,,,,,,,,,,,,,,,,,,,,,,,,,,,,,,,,,,,,,,,,,,,,,,,,,,,,,,,,,,,,,,,,,,,,,,,
,,,,,,6154d702c164d49259d6cc20,62c53a59f799e9c1f976a8f6,2022-07-06_09h31.51.324,Colour_Asymmetry_Pilot,2022.1.3,Win32,144.0714594,62c50e9c1127f2cd403a315f,0,125,125,114,1,twoone,,,,,,,,,,,,,,,,,,,,,,,,,,,,,,,,,,,,,,,,,,,,,,,,,,,,,,,,,,,,,,,,,,,,,,,,,,,,,,,,,,,,,,,,,,,,,,,,,,,,,,,,,,,,,,,,,,,,,,,,,,,,,,,,,,,,,,,,,,,,,,,,,,,,,,,,,,,,,
,,,,,,6154d702c164d49259d6cc20,62c53a59f799e9c1f976a8f6,2022-07-06_09h31.51.324,Colour_Asymmetry_Pilot,2022.1.3,Win32,144.0714594,62c50e9c1127f2cd403a315f,0,126,126,109,1,threefour,,,,,,,,,,,,,,,,,,,,,,,,,,,,,,,,,,,,,,,,,,,,,,,,,,,,,,,,,,,,,,,,,,,,,,,,,,,,,,,,,,,,,,,,,,,,,,,,,,,,,,,,,,,,,,,,,,,,,,,,,,,,,,,,,,,,,,,,,,,,,,,,,,,,,,,,,,,,,
,,,,,,6154d702c164d49259d6cc20,62c53a59f799e9c1f976a8f6,2022-07-06_09h31.51.324,Colour_Asymmetry_Pilot,2022.1.3,Win32,144.0714594,62c50e9c1127f2cd403a315f,0,127,127,61,1,threefour,,,,,,,,,,,,,,,,,,,,,,,,,,,,,,,,,,,,,,,,,,,,,,,,,,,,,,,,,,,,,,,,,,,,,,,,,,,,,,,,,,,,,,,,,,,,,,,,,,,,,,,,,,,,,,,,,,,,,,,,,,,,,,,,,,,,,,,,,,,,,,,,,,,,,,,,,,,,,
,,,,,,6154d702c164d49259d6cc20,62c53a59f799e9c1f976a8f6,2022-07-06_09h31.51.324,Colour_Asymmetry_Pilot,2022.1.3,Win32,144.0714594,62c50e9c1127f2cd403a315f,0,128,128,29,1,threefour,,,,,,,,,,,,,,,,,,,,,,,,,,,,,,,,,,,,,,,,,,,,,,,,,,,,,,,,,,,,,,,,,,,,,,,,,,,,,,,,,,,,,,,,,,,,,,,,,,,,,,,,,,,,,,,,,,,,,,,,,,,,,,,,,,,,,,,,,,,,,,,,,,,,,,,,,,,,,
,,,,,,6154d702c164d49259d6cc20,62c53a59f799e9c1f976a8f6,2022-07-06_09h31.51.324,Colour_Asymmetry_Pilot,2022.1.3,Win32,144.0714594,62c50e9c1127f2cd403a315f,0,129,129,16,1,onetwo,,,,,,,,,,,,,,,,,,,,,,,,,,,,,,,,,,,,,,,,,,,,,,,,,,,,,,,,,,,,,,,,,,,,,,,,,,,,,,,,,,,,,,,,,,,,,,,,,,,,,,,,,,,,,,,,,,,,,,,,,,,,,,,,,,,,,,,,,,,,,,,,,,,,,,,,,,,,,
,,,,,,6154d702c164d49259d6cc20,62c53a59f799e9c1f976a8f6,2022-07-06_09h31.51.324,Colour_Asymmetry_Pilot,2022.1.3,Win32,144.0714594,62c50e9c1127f2cd403a315f,0,130,130,125,1,threefour,,,,,,,,,,,,,,,,,,,,,,,,,,,,,,,,,,,,,,,,,,,,,,,,,,,,,,,,,,,,,,,,,,,,,,,,,,,,,,,,,,,,,,,,,,,,,,,,,,,,,,,,,,,,,,,,,,,,,,,,,,,,,,,,,,,,,,,,,,,,,,,,,,,,,,,,,,,,,
,,,,,,6154d702c164d49259d6cc20,62c53a59f799e9c1f976a8f6,2022-07-06_09h31.51.324,Colour_Asymmetry_Pilot,2022.1.3,Win32,144.0714594,62c50e9c1127f2cd403a315f,0,131,131,24,1,onetwo,,,,,,,,,,,,,,,,,,,,,,,,,,,,,,,,,,,,,,,,,,,,,,,,,,,,,,,,,,,,,,,,,,,,,,,,,,,,,,,,,,,,,,,,,,,,,,,,,,,,,,,,,,,,,,,,,,,,,,,,,,,,,,,,,,,,,,,,,,,,,,,,,,,,,,,,,,,,,
,,,,,,6154d702c164d49259d6cc20,62c53a59f799e9c1f976a8f6,2022-07-06_09h31.51.324,Colour_Asymmetry_Pilot,2022.1.3,Win32,144.0714594,62c50e9c1127f2cd403a315f,0,132,132,139,1,twofour,,,,,,,,,,,,,,,,,,,,,,,,,,,,,,,,,,,,,,,,,,,,,,,,,,,,,,,,,,,,,,,,,,,,,,,,,,,,,,,,,,,,,,,,,,,,,,,,,,,,,,,,,,,,,,,,,,,,,,,,,,,,,,,,,,,,,,,,,,,,,,,,,,,,,,,,,,,,,
,,,,,,6154d702c164d49259d6cc20,62c53a59f799e9c1f976a8f6,2022-07-06_09h31.51.324,Colour_Asymmetry_Pilot,2022.1.3,Win32,144.0714594,62c50e9c1127f2cd403a315f,0,133,133,94,1,fourtwo,,,,,,,,,,,,,,,,,,,,,,,,,,,,,,,,,,,,,,,,,,,,,,,,,,,,,,,,,,,,,,,,,,,,,,,,,,,,,,,,,,,,,,,,,,,,,,,,,,,,,,,,,,,,,,,,,,,,,,,,,,,,,,,,,,,,,,,,,,,,,,,,,,,,,,,,,,,,,
,,,,,,6154d702c164d49259d6cc20,62c53a59f799e9c1f976a8f6,2022-07-06_09h31.51.324,Colour_Asymmetry_Pilot,2022.1.3,Win32,144.0714594,62c50e9c1127f2cd403a315f,0,134,134,107,1,twofour,,,,,,,,,,,,,,,,,,,,,,,,,,,,,,,,,,,,,,,,,,,,,,,,,,,,,,,,,,,,,,,,,,,,,,,,,,,,,,,,,,,,,,,,,,,,,,,,,,,,,,,,,,,,,,,,,,,,,,,,,,,,,,,,,,,,,,,,,,,,,,,,,,,,,,,,,,,,,
,,,,,,6154d702c164d49259d6cc20,62c53a59f799e9c1f976a8f6,2022-07-06_09h31.51.324,Colour_Asymmetry_Pilot,2022.1.3,Win32,144.0714594,62c50e9c1127f2cd403a315f,0,135,135,43,1,twofour,,,,,,,,,,,,,,,,,,,,,,,,,,,,,,,,,,,,,,,,,,,,,,,,,,,,,,,,,,,,,,,,,,,,,,,,,,,,,,,,,,,,,,,,,,,,,,,,,,,,,,,,,,,,,,,,,,,,,,,,,,,,,,,,,,,,,,,,,,,,,,,,,,,,,,,,,,,,,
,,,,,,6154d702c164d49259d6cc20,62c53a59f799e9c1f976a8f6,2022-07-06_09h31.51.324,Colour_Asymmetry_Pilot,2022.1.3,Win32,144.0714594,62c50e9c1127f2cd403a315f,0,136,136,35,1,twofour,,,,,,,,,,,,,,,,,,,,,,,,,,,,,,,,,,,,,,,,,,,,,,,,,,,,,,,,,,,,,,,,,,,,,,,,,,,,,,,,,,,,,,,,,,,,,,,,,,,,,,,,,,,,,,,,,,,,,,,,,,,,,,,,,,,,,,,,,,,,,,,,,,,,,,,,,,,,,
,,,,,,6154d702c164d49259d6cc20,62c53a59f799e9c1f976a8f6,2022-07-06_09h31.51.324,Colour_Asymmetry_Pilot,2022.1.3,Win32,144.0714594,62c50e9c1127f2cd403a315f,0,137,137,70,1,fourtwo,,,,,,,,,,,,,,,,,,,,,,,,,,,,,,,,,,,,,,,,,,,,,,,,,,,,,,,,,,,,,,,,,,,,,,,,,,,,,,,,,,,,,,,,,,,,,,,,,,,,,,,,,,,,,,,,,,,,,,,,,,,,,,,,,,,,,,,,,,,,,,,,,,,,,,,,,,,,,
,,,,,,6154d702c164d49259d6cc20,62c53a59f799e9c1f976a8f6,2022-07-06_09h31.51.324,Colour_Asymmetry_Pilot,2022.1.3,Win32,144.0714594,62c50e9c1127f2cd403a315f,0,138,138,106,1,twoone,,,,,,,,,,,,,,,,,,,,,,,,,,,,,,,,,,,,,,,,,,,,,,,,,,,,,,,,,,,,,,,,,,,,,,,,,,,,,,,,,,,,,,,,,,,,,,,,,,,,,,,,,,,,,,,,,,,,,,,,,,,,,,,,,,,,,,,,,,,,,,,,,,,,,,,,,,,,,
,,,,,,6154d702c164d49259d6cc20,62c53a59f799e9c1f976a8f6,2022-07-06_09h31.51.324,Colour_Asymmetry_Pilot,2022.1.3,Win32,144.0714594,62c50e9c1127f2cd403a315f,0,139,139,116,1,threeone,,,,,,,,,,,,,,,,,,,,,,,,,,,,,,,,,,,,,,,,,,,,,,,,,,,,,,,,,,,,,,,,,,,,,,,,,,,,,,,,,,,,,,,,,,,,,,,,,,,,,,,,,,,,,,,,,,,,,,,,,,,,,,,,,,,,,,,,,,,,,,,,,,,,,,,,,,,,,
,,,,,,6154d702c164d49259d6cc20,62c53a59f799e9c1f976a8f6,2022-07-06_09h31.51.324,Colour_Asymmetry_Pilot,2022.1.3,Win32,144.0714594,62c50e9c1127f2cd403a315f,0,140,140,28,1,threeone,,,,,,,,,,,,,,,,,,,,,,,,,,,,,,,,,,,,,,,,,,,,,,,,,,,,,,,,,,,,,,,,,,,,,,,,,,,,,,,,,,,,,,,,,,,,,,,,,,,,,,,,,,,,,,,,,,,,,,,,,,,,,,,,,,,,,,,,,,,,,,,,,,,,,,,,,,,,,
,,,,,,6154d702c164d49259d6cc20,62c53a59f799e9c1f976a8f6,2022-07-06_09h31.51.324,Colour_Asymmetry_Pilot,2022.1.3,Win32,144.0714594,62c50e9c1127f2cd403a315f,0,141,141,74,1,twoone,,,,,,,,,,,,,,,,,,,,,,,,,,,,,,,,,,,,,,,,,,,,,,,,,,,,,,,,,,,,,,,,,,,,,,,,,,,,,,,,,,,,,,,,,,,,,,,,,,,,,,,,,,,,,,,,,,,,,,,,,,,,,,,,,,,,,,,,,,,,,,,,,,,,,,,,,,,,,
,,,,,,6154d702c164d49259d6cc20,62c53a59f799e9c1f976a8f6,2022-07-06_09h31.51.324,Colour_Asymmetry_Pilot,2022.1.3,Win32,144.0714594,62c50e9c1127f2cd403a315f,0,142,142,82,1,twoone,,,,,,,,,,,,,,,,,,,,,,,,,,,,,,,,,,,,,,,,,,,,,,,,,,,,,,,,,,,,,,,,,,,,,,,,,,,,,,,,,,,,,,,,,,,,,,,,,,,,,,,,,,,,,,,,,,,,,,,,,,,,,,,,,,,,,,,,,,,,,,,,,,,,,,,,,,,,,
,,,,,,6154d702c164d49259d6cc20,62c53a59f799e9c1f976a8f6,2022-07-06_09h31.51.324,Colour_Asymmetry_Pilot,2022.1.3,Win32,144.0714594,62c50e9c1127f2cd403a315f,0,143,143,4,1,threeone,,,,,,,,,,,,,,,,,,,,,,,,,,,,,,,,,,,,,,,,,,,,,,,,,,,,,,,,,,,,,,,,,,,,,,,,,,,,,,,,,,,,,,,,,,,,,,,,,,,,,,,,,,,,,,,,,,,,,,,,,,,,,,,,,,,,,,,,,,,,,,,,,,,,,,,,,,,,,
,,,,,,6154d702c164d49259d6cc20,62c53a59f799e9c1f976a8f6,2022-07-06_09h31.51.324,Colour_Asymmetry_Pilot,2022.1.3,Win32,144.0714594,62c50e9c1127f2cd403a315f,0,144,144,119,1,fourthree,,,,,,,,,,,,,,,,,,,,,,,,,,,,,,,,,,,,,,,,,,,,,,,,,,,,,,,,,,,,,,,,,,,,,,,,,,,,,,,,,,,,,,,,,,,,,,,,,,,,,,,,,,,,,,,,,,,,,,,,,,,,,,,,,,,,,,,,,,,,,,,,,,,,,,,,,,,,,
,,,,,,6154d702c164d49259d6cc20,62c53a59f799e9c1f976a8f6,2022-07-06_09h31.51.324,Colour_Asymmetry_Pilot,2022.1.3,Win32,144.0714594,62c50e9c1127f2cd403a315f,0,145,145,26,1,twoone,,,,,,,,,,,,,,,,,,,,,,,,,,,,,,,,,,,,,,,,,,,,,,,,,,,,,,,,,,,,,,,,,,,,,,,,,,,,,,,,,,,,,,,,,,,,,,,,,,,,,,,,,,,,,,,,,,,,,,,,,,,,,,,,,,,,,,,,,,,,,,,,,,,,,,,,,,,,,
,,,,,,6154d702c164d49259d6cc20,62c53a59f799e9c1f976a8f6,2022-07-06_09h31.51.324,Colour_Asymmetry_Pilot,2022.1.3,Win32,144.0714594,62c50e9c1127f2cd403a315f,0,146,146,3,1,twofour,,,,,,,,,,,,,,,,,,,,,,,,,,,,,,,,,,,,,,,,,,,,,,,,,,,,,,,,,,,,,,,,,,,,,,,,,,,,,,,,,,,,,,,,,,,,,,,,,,,,,,,,,,,,,,,,,,,,,,,,,,,,,,,,,,,,,,,,,,,,,,,,,,,,,,,,,,,,,
,,,,,,6154d702c164d49259d6cc20,62c53a59f799e9c1f976a8f6,2022-07-06_09h31.51.324,Colour_Asymmetry_Pilot,2022.1.3,Win32,144.0714594,62c50e9c1127f2cd403a315f,0,147,147,91,1,twofour,,,,,,,,,,,,,,,,,,,,,,,,,,,,,,,,,,,,,,,,,,,,,,,,,,,,,,,,,,,,,,,,,,,,,,,,,,,,,,,,,,,,,,,,,,,,,,,,,,,,,,,,,,,,,,,,,,,,,,,,,,,,,,,,,,,,,,,,,,,,,,,,,,,,,,,,,,,,,
,,,,,,6154d702c164d49259d6cc20,62c53a59f799e9c1f976a8f6,2022-07-06_09h31.51.324,Colour_Asymmetry_Pilot,2022.1.3,Win32,144.0714594,62c50e9c1127f2cd403a315f,0,148,148,46,1,fourtwo,,,,,,,,,,,,,,,,,,,,,,,,,,,,,,,,,,,,,,,,,,,,,,,,,,,,,,,,,,,,,,,,,,,,,,,,,,,,,,,,,,,,,,,,,,,,,,,,,,,,,,,,,,,,,,,,,,,,,,,,,,,,,,,,,,,,,,,,,,,,,,,,,,,,,,,,,,,,,
,,,,,,6154d702c164d49259d6cc20,62c53a59f799e9c1f976a8f6,2022-07-06_09h31.51.324,Colour_Asymmetry_Pilot,2022.1.3,Win32,144.0714594,62c50e9c1127f2cd403a315f,0,149,149,40,1,onetwo,,,,,,,,,,,,,,,,,,,,,,,,,,,,,,,,,,,,,,,,,,,,,,,,,,,,,,,,,,,,,,,,,,,,,,,,,,,,,,,,,,,,,,,,,,,,,,,,,,,,,,,,,,,,,,,,,,,,,,,,,,,,,,,,,,,,,,,,,,,,,,,,,,,,,,,,,,,,,
,,,,,,6154d702c164d49259d6cc20,62c53a59f799e9c1f976a8f6,2022-07-06_09h31.51.324,Colour_Asymmetry_Pilot,2022.1.3,Win32,144.0714594,62c50e9c1127f2cd403a315f,0,150,150,121,1,onethree,,,,,,,,,,,,,,,,,,,,,,,,,,,,,,,,,,,,,,,,,,,,,,,,,,,,,,,,,,,,,,,,,,,,,,,,,,,,,,,,,,,,,,,,,,,,,,,,,,,,,,,,,,,,,,,,,,,,,,,,,,,,,,,,,,,,,,,,,,,,,,,,,,,,,,,,,,,,,
,,,,,,6154d702c164d49259d6cc20,62c53a59f799e9c1f976a8f6,2022-07-06_09h31.51.324,Colour_Asymmetry_Pilot,2022.1.3,Win32,144.0714594,62c50e9c1127f2cd403a315f,0,151,151,30,1,fourtwo,,,,,,,,,,,,,,,,,,,,,,,,,,,,,,,,,,,,,,,,,,,,,,,,,,,,,,,,,,,,,,,,,,,,,,,,,,,,,,,,,,,,,,,,,,,,,,,,,,,,,,,,,,,,,,,,,,,,,,,,,,,,,,,,,,,,,,,,,,,,,,,,,,,,,,,,,,,,,
,,,,,,6154d702c164d49259d6cc20,62c53a59f799e9c1f976a8f6,2022-07-06_09h31.51.324,Colour_Asymmetry_Pilot,2022.1.3,Win32,144.0714594,62c50e9c1127f2cd403a315f,0,152,152,128,1,onetwo,,,,,,,,,,,,,,,,,,,,,,,,,,,,,,,,,,,,,,,,,,,,,,,,,,,,,,,,,,,,,,,,,,,,,,,,,,,,,,,,,,,,,,,,,,,,,,,,,,,,,,,,,,,,,,,,,,,,,,,,,,,,,,,,,,,,,,,,,,,,,,,,,,,,,,,,,,,,,
,,,,,,6154d702c164d49259d6cc20,62c53a59f799e9c1f976a8f6,2022-07-06_09h31.51.324,Colour_Asymmetry_Pilot,2022.1.3,Win32,144.0714594,62c50e9c1127f2cd403a315f,0,153,153,123,1,twofour,,,,,,,,,,,,,,,,,,,,,,,,,,,,,,,,,,,,,,,,,,,,,,,,,,,,,,,,,,,,,,,,,,,,,,,,,,,,,,,,,,,,,,,,,,,,,,,,,,,,,,,,,,,,,,,,,,,,,,,,,,,,,,,,,,,,,,,,,,,,,,,,,,,,,,,,,,,,,
,,,,,,6154d702c164d49259d6cc20,62c53a59f799e9c1f976a8f6,2022-07-06_09h31.51.324,Colour_Asymmetry_Pilot,2022.1.3,Win32,144.0714594,62c50e9c1127f2cd403a315f,0,154,154,10,1,twoone,,,,,,,,,,,,,,,,,,,,,,,,,,,,,,,,,,,,,,,,,,,,,,,,,,,,,,,,,,,,,,,,,,,,,,,,,,,,,,,,,,,,,,,,,,,,,,,,,,,,,,,,,,,,,,,,,,,,,,,,,,,,,,,,,,,,,,,,,,,,,,,,,,,,,,,,,,,,,
,,,,,,6154d702c164d49259d6cc20,62c53a59f799e9c1f976a8f6,2022-07-06_09h31.51.324,Colour_Asymmetry_Pilot,2022.1.3,Win32,144.0714594,62c50e9c1127f2cd403a315f,0,155,155,138,1,twoone,,,,,,,,,,,,,,,,,,,,,,,,,,,,,,,,,,,,,,,,,,,,,,,,,,,,,,,,,,,,,,,,,,,,,,,,,,,,,,,,,,,,,,,,,,,,,,,,,,,,,,,,,,,,,,,,,,,,,,,,,,,,,,,,,,,,,,,,,,,,,,,,,,,,,,,,,,,,,
,,,,,,6154d702c164d49259d6cc20,62c53a59f799e9c1f976a8f6,2022-07-06_09h31.51.324,Colour_Asymmetry_Pilot,2022.1.3,Win32,144.0714594,62c50e9c1127f2cd403a315f,0,156,156,151,1,fourthree,,,,,,,,,,,,,,,,,,,,,,,,,,,,,,,,,,,,,,,,,,,,,,,,,,,,,,,,,,,,,,,,,,,,,,,,,,,,,,,,,,,,,,,,,,,,,,,,,,,,,,,,,,,,,,,,,,,,,,,,,,,,,,,,,,,,,,,,,,,,,,,,,,,,,,,,,,,,,
,,,,,,6154d702c164d49259d6cc20,62c53a59f799e9c1f976a8f6,2022-07-06_09h31.51.324,Colour_Asymmetry_Pilot,2022.1.3,Win32,144.0714594,62c50e9c1127f2cd403a315f,0,157,157,99,1,twofour,,,,,,,,,,,,,,,,,,,,,,,,,,,,,,,,,,,,,,,,,,,,,,,,,,,,,,,,,,,,,,,,,,,,,,,,,,,,,,,,,,,,,,,,,,,,,,,,,,,,,,,,,,,,,,,,,,,,,,,,,,,,,,,,,,,,,,,,,,,,,,,,,,,,,,,,,,,,,
,,,,,,6154d702c164d49259d6cc20,62c53a59f799e9c1f976a8f6,2022-07-06_09h31.51.324,Colour_Asymmetry_Pilot,2022.1.3,Win32,144.0714594,62c50e9c1127f2cd403a315f,0,158,158,25,1,onethree,,,,,,,,,,,,,,,,,,,,,,,,,,,,,,,,,,,,,,,,,,,,,,,,,,,,,,,,,,,,,,,,,,,,,,,,,,,,,,,,,,,,,,,,,,,,,,,,,,,,,,,,,,,,,,,,,,,,,,,,,,,,,,,,,,,,,,,,,,,,,,,,,,,,,,,,,,,,,
,,,,,,6154d702c164d49259d6cc20,62c53a59f799e9c1f976a8f6,2022-07-06_09h31.51.324,Colour_Asymmetry_Pilot,2022.1.3,Win32,144.0714594,62c50e9c1127f2cd403a315f,0,159,159,27,1,twofour,,,,,,,,,,,,,,,,,,,,,,,,,,,,,,,,,,,,,,,,,,,,,,,,,,,,,,,,,,,,,,,,,,,,,,,,,,,,,,,,,,,,,,,,,,,,,,,,,,,,,,,,,,,,,,,,,,,,,,,,,,,,,,,,,,,,,,,,,,,,,,,,,,,,,,,,,,,,,
,,,,,,6154d702c164d49259d6cc20,62c53a59f799e9c1f976a8f6,2022-07-06_09h31.51.324,Colour_Asymmetry_Pilot,2022.1.3,Win32,144.0714594,62c50e9c1127f2cd403a315f,0,160,160,22,1,fourtwo,,,,,,,,,,,,,,,,,,,,,,,,,,,,,,,,,,,,,,,,,,,,,,,,,,,,,,,,,,,,,,,,,,,,,,,,,,,,,,,,,,,,,,,,,,,,,,,,,,,,,,,,,,,,,,,,,,,,,,,,,,,,,,,,,,,,,,,,,,,,,,,,,,,,,,,,,,,,,
,,,,,,6154d702c164d49259d6cc20,62c53a59f799e9c1f976a8f6,2022-07-06_09h31.51.324,Colour_Asymmetry_Pilot,2022.1.3,Win32,144.0714594,62c50e9c1127f2cd403a315f,0,161,161,62,1,fourtwo,,,,,,,,,,,,,,,,,,,,,,,,,,,,,,,,,,,,,,,,,,,,,,,,,,,,,,,,,,,,,,,,,,,,,,,,,,,,,,,,,,,,,,,,,,,,,,,,,,,,,,,,,,,,,,,,,,,,,,,,,,,,,,,,,,,,,,,,,,,,,,,,,,,,,,,,,,,,,
,,,,,,6154d702c164d49259d6cc20,62c53a59f799e9c1f976a8f6,2022-07-06_09h31.51.324,Colour_Asymmetry_Pilot,2022.1.3,Win32,144.0714594,62c50e9c1127f2cd403a315f,,,,,,,space,3.1667,space,6.7128,space,35.2857,space,23.5487,space,1.9036,space,4.0079,"[-0.5922000000000001,-0.7492000000000001,-0.5296000000000001]",fourtwo,"[1,0.12939999999999996,-1]",-1,9.2151,-23.20001221,-46.3999939,1,0,0,response5disk_5,-4,4.799987793,1,0,0,rectangle_8,-4,4.799987793,1,0,0,4,-4,4.799987793,1,0,0,0,0,0,0,1,,,,,,,,,,,,,,,,,,,,,,,,,,,,,,,,,,,,,,,,,,,,,,,,,,,,,,,,,,,,,,,,,,,,,,,,,,,,,,,,,,,,,,,,,,,,,,,,,,,,,,,,,,,,,,,,
,,,,,,6154d702c164d49259d6cc20,62c53a59f799e9c1f976a8f6,2022-07-06_09h31.51.324,Colour_Asymmetry_Pilot,2022.1.3,Win32,144.0714594,62c50e9c1127f2cd403a315f,,,,,,,,,,,,,,,,,,,"[1,0.12939999999999996,-1]",threefour,"[0.9842,0.7409999999999999,-0.6628000000000001]",1,3.2882,21.60003662,-47.20001221,1,0,0,response3disk_5,11.20001221,8,1,0,0,rectangle_8,30.40002441,46.3999939,1,0,0,4,11.20001221,1.600006104,1,0,0,1,0,1,0,1,response1disk_7,7,rectangle_4,,,,,,,,,,,,,,,,,,,,,,,,,,,,,,,,,,,,,,,,,,,,,,,,,,,,,,,,,,,,,,,,,,,,,,,,,,,,,,,,,,,,,,,,,,,,,,,,,,,,,,,,,,,,,
,,,,,,6154d702c164d49259d6cc20,62c53a59f799e9c1f976a8f6,2022-07-06_09h31.51.324,Colour_Asymmetry_Pilot,2022.1.3,Win32,144.0714594,62c50e9c1127f2cd403a315f,,,,,,,,,,,,,,,,,,,"[0.9372,0.20779999999999998,0.2704]",onetwo,"[-0.2942,-0.7648,-0.7492000000000001]",-3,1.4856,-39.20001221,15.19998169,1,0,0,response7disk_5,25.60003662,-3.200012207,1,0,0,rectangle_8,32,56.79998779,1,0,0,4,0.799987793,-11.20001221,1,0,0,2,0,2,0,1,response1disk_7,7,rectangle_4,,,,,,,,,,,,,,,,,,,,,,,,,,,,,,,,,,,,,,,,,,,,,,,,,,,,,,,,,,,,,,,,,,,,,,,,,,,,,,,,,,,,,,,,,,,,,,,,,,,,,,,,,,,,,
,,,,,,6154d702c164d49259d6cc20,62c53a59f799e9c1f976a8f6,2022-07-06_09h31.51.324,Colour_Asymmetry_Pilot,2022.1.3,Win32,144.0714594,62c50e9c1127f2cd403a315f,,,,,,,,,,,,,,,,,,,"[-0.9688,-0.7412000000000001,-0.4902000000000001]",fourtwo,"[-0.45899999999999996,-0.3256,-0.9374]",-1,1.7225,-21.59997559,-52,1,0,0,response5disk_5,18.40002441,-7.200012207,1,0,0,rectangle_8,18.40002441,-7.200012207,1,0,0,4,18.40002441,-7.200012207,1,0,0,3,0,3,0,1,,,,,,,,,,,,,,,,,,,,,,,,,,,,,,,,,,,,,,,,,,,,,,,,,,,,,,,,,,,,,,,,,,,,,,,,,,,,,,,,,,,,,,,,,,,,,,,,,,,,,,,,,,,,,,,,
,,,,,,6154d702c164d49259d6cc20,62c53a59f799e9c1f976a8f6,2022-07-06_09h31.51.324,Colour_Asymmetry_Pilot,2022.1.3,Win32,144.0714594,62c50e9c1127f2cd403a315f,,,,,,,,,,,,,,,,,,,"[0.11359999999999992,0.6312,0.5213999999999999]",twofour,"[-0.45899999999999996,-0.3256,-0.9374]",-2,1.6661,-62.39996338,-22.3999939,1,0,0,response5disk_5,2.400024414,-6.399993896,1,0,0,rectangle_8,2.400024414,-6.399993896,1,0,0,4,2.400024414,-6.399993896,1,0,0,4,0,4,0,1,,,,,,,,,,,,,,,,,,,,,,,,,,,,,,,,,,,,,,,,,,,,,,,,,,,,,,,,,,,,,,,,,,,,,,,,,,,,,,,,,,,,,,,,,,,,,,,,,,,,,,,,,,,,,,,,
,,,,,,6154d702c164d49259d6cc20,62c53a59f799e9c1f976a8f6,2022-07-06_09h31.51.324,Colour_Asymmetry_Pilot,2022.1.3,Win32,144.0714594,62c50e9c1127f2cd403a315f,,,,,,,,,,,,,,,,,,,"[0.3881999999999999,-0.23939999999999995,-0.05040000000000011]",twoone,"[-0.26280000000000003,-0.4746,-0.2158]",2,1.3329,31.20001221,-15.20001221,1,0,0,response3disk_5,-6.399963379,-9.600006104,1,0,0,rectangle_8,-6.399963379,-9.600006104,1,0,0,4,-6.399963379,-9.600006104,1,0,0,5,0,5,0,1,,,,,,,,,,,,,,,,,,,,,,,,,,,,,,,,,,,,,,,,,,,,,,,,,,,,,,,,,,,,,,,,,,,,,,,,,,,,,,,,,,,,,,,,,,,,,,,,,,,,,,,,,,,,,,,,
,,,,,,6154d702c164d49259d6cc20,62c53a59f799e9c1f976a8f6,2022-07-06_09h31.51.324,Colour_Asymmetry_Pilot,2022.1.3,Win32,144.0714594,62c50e9c1127f2cd403a315f,,,,,,,,,,,,,,,,,,,"[0.9763999999999999,0.30979999999999985,-0.6786]",threefour,"[0.9686000000000001,0.3802000000000001,0.19999999999999996]",1,1.0207,20.79998779,-38.3999939,1,0,0,response3disk_5,4.799987793,-2.399993896,1,0,0,rectangle_8,4.799987793,-2.399993896,1,0,0,4,4.799987793,-2.399993896,1,0,0,6,0,6,0,1,,,,,,,,,,,,,,,,,,,,,,,,,,,,,,,,,,,,,,,,,,,,,,,,,,,,,,,,,,,,,,,,,,,,,,,,,,,,,,,,,,,,,,,,,,,,,,,,,,,,,,,,,,,,,,,,
,,,,,,6154d702c164d49259d6cc20,62c53a59f799e9c1f976a8f6,2022-07-06_09h31.51.324,Colour_Asymmetry_Pilot,2022.1.3,Win32,144.0714594,62c50e9c1127f2cd403a315f,,,,,,,,,,,,,,,,,,,,fourthree,,-1,9.8916,,,,,,,,,,,,,,,,,,,,,,,,,,,,,,,,space,15.9549,"[-0.0040000000000000036,0.02739999999999987,-0.08239999999999992]","[0.9686000000000001,0.3802000000000001,0.19999999999999996]",-38.39996338,-43.20001221,1,0,0,response5disk,-20.79998779,-2.399993896,1,0,0,rectangle,-20.79998779,-2.399993896,1,0,0,,1,0.0012,0,-20.79998779,-2.399993896,1,0,0,0,0,0,21,1,21,first,,,,,,,,,,,,,,,,,,,,,,,,,,,,,,,,,,,,,,,,,,,,,,,,,,,,,,,,,,,,,,,,,,,,,,,,
,,,,,,6154d702c164d49259d6cc20,62c53a59f799e9c1f976a8f6,2022-07-06_09h31.51.324,Colour_Asymmetry_Pilot,2022.1.3,Win32,144.0714594,62c50e9c1127f2cd403a315f,,,,,,,,,,,,,,,,,,,,threefour,,3,0.8329,,,,,,,,,,,,,,,,,,,,,,,,,,,,,,,,,,"[-0.9688,-0.4902000000000001,-0.12159999999999993]","[-0.5452,-0.608,0.2470000000000001]",44,19.19998169,1,0,0,response1disk,6.400024414,3.199981689,1,0,0,rectangle,6.400024414,3.199981689,1,0,0,,1,0.0003,0,6.400024414,3.199981689,1,0,0,0,1,1,99,1,18,second,,,,,,,,,,,,,,,,,,,,,,,,,,,,,,,,,,,,,,,,,,,,,,,,,,,,,,,,,,,,,,,,,,,,,,,,
,,,,,,6154d702c164d49259d6cc20,62c53a59f799e9c1f976a8f6,2022-07-06_09h31.51.324,Colour_Asymmetry_Pilot,2022.1.3,Win32,144.0714594,62c50e9c1127f2cd403a315f,,,,,,,,,,,,,,,,,,,,threeone,,-3,0.8124,,,,,,,,,,,,,,,,,,,,,,,,,,,,,,,,,,"[-0.011800000000000033,-0.906,-0.45100000000000007]","[0.34099999999999997,0.5841999999999998,-0.9844]",-40,11.19998169,1,0,0,response7disk,-12,-10.3999939,1,0,0,rectangle,-12,-10.3999939,1,0,0,-2,1,0,0,-12,-10.3999939,1,0,0,0,2,2,129,1,48,second,,,,,,,,,,,,,,,,,,,,,,,,,,,,,,,,,,,,,,,,,,,,,,,,,,,,,,,,,,,,,,,,,,,,,,,,
,,,,,,6154d702c164d49259d6cc20,62c53a59f799e9c1f976a8f6,2022-07-06_09h31.51.324,Colour_Asymmetry_Pilot,2022.1.3,Win32,144.0714594,62c50e9c1127f2cd403a315f,,,,,,,,,,,,,,,,,,,,fourthree,,-2,0.9543,,,,,,,,,,,,,,,,,,,,,,,,,,,,,,,,,,"[-0.09019999999999995,0.44300000000000006,0.5371999999999999]","[-0.26280000000000003,-0.2158,-0.3256]",-59.20001221,-36,1,0,0,response5disk,5.600036621,6.399993896,1,0,0,rectangle,5.600036621,6.399993896,1,0,0,-2,1,9.99999E-05,0,5.600036621,6.399993896,1,0,0,0,3,3,60,1,60,first,,,,,,,,,,,,,,,,,,,,,,,,,,,,,,,,,,,,,,,,,,,,,,,,,,,,,,,,,,,,,,,,,,,,,,,,
,,,,,,6154d702c164d49259d6cc20,62c53a59f799e9c1f976a8f6,2022-07-06_09h31.51.324,Colour_Asymmetry_Pilot,2022.1.3,Win32,144.0714594,62c50e9c1127f2cd403a315f,,,,,,,,,,,,,,,,,,,,fourtwo,,-4,0.6182,,,,,,,,,,,,,,,,,,,,,,,,,,,,,,,,,,"[0.8274000000000001,-0.5844,-0.9452]","[0.19199999999999995,0.18419999999999992,0.5136000000000001]",-16,46.3999939,1,0,0,response7disk,0.799987793,2.399993896,1,0,0,rectangle,0.799987793,2.399993896,1,0,0,-2,3,0.0007,0,0.799987793,2.399993896,1,0,0,0,4,4,121,1,40,second,,,,,,,,,,,,,,,,,,,,,,,,,,,,,,,,,,,,,,,,,,,,,,,,,,,,,,,,,,,,,,,,,,,,,,,,
,,,,,,6154d702c164d49259d6cc20,62c53a59f799e9c1f976a8f6,2022-07-06_09h31.51.324,Colour_Asymmetry_Pilot,2022.1.3,Win32,144.0714594,62c50e9c1127f2cd403a315f,,,,,,,,,,,,,,,,,,,,fourthree,,-4,0.4941,,,,,,,,,,,,,,,,,,,,,,,,,,,,,,,,,,"[0.7176,-0.906,-0.6864]","[-0.30200000000000005,0.14500000000000002,0.2784]",-32.79998779,41.6000061,1,0,0,response7disk,-12.79998779,4,1,0,0,rectangle,-12.79998779,4,1,0,0,-2,1,0.0006,0,-12.79998779,4,1,0,0,0,5,5,155,1,74,second,,,,,,,,,,,,,,,,,,,,,,,,,,,,,,,,,,,,,,,,,,,,,,,,,,,,,,,,,,,,,,,,,,,,,,,,
,,,,,,6154d702c164d49259d6cc20,62c53a59f799e9c1f976a8f6,2022-07-06_09h31.51.324,Colour_Asymmetry_Pilot,2022.1.3,Win32,144.0714594,62c50e9c1127f2cd403a315f,,,,,,,,,,,,,,,,,,,,fourtwo,,4,0.5967,,,,,,,,,,,,,,,,,,,,,,,,,,,,,,,,,,"[-0.6235999999999999,-0.6786,-0.08239999999999992]","[-0.6942,-0.7648,-0.12959999999999994]",29.60003662,47.19998169,1,0,0,response1disk,19.20001221,-1.600006104,1,0,0,rectangle,19.20001221,-1.600006104,1,0,0,-2,1,0.0002,0,19.20001221,-1.600006104,1,0,0,0,6,6,114,1,33,second,,,,,,,,,,,,,,,,,,,,,,,,,,,,,,,,,,,,,,,,,,,,,,,,,,,,,,,,,,,,,,,,,,,,,,,,
,,,,,,6154d702c164d49259d6cc20,62c53a59f799e9c1f976a8f6,2022-07-06_09h31.51.324,Colour_Asymmetry_Pilot,2022.1.3,Win32,144.0714594,62c50e9c1127f2cd403a315f,,,,,,,,,,,,,,,,,,,,twoone,,2,0.6319,,,,,,,,,,,,,,,,,,,,,,,,,,,,,,,,,,"[-0.48240000000000005,0.3175999999999999,0.2156]","[-0.9296,-0.12959999999999994,-0.043199999999999905]",30.40002441,-24.80001831,1,0,0,response3disk,6.400024414,-8,1,0,0,rectangle,6.400024414,-8,1,0,0,-2,1,0,0,6.400024414,-8,1,0,0,0,7,7,150,1,69,second,,,,,,,,,,,,,,,,,,,,,,,,,,,,,,,,,,,,,,,,,,,,,,,,,,,,,,,,,,,,,,,,,,,,,,,,
,,,,,,6154d702c164d49259d6cc20,62c53a59f799e9c1f976a8f6,2022-07-06_09h31.51.324,Colour_Asymmetry_Pilot,2022.1.3,Win32,144.0714594,62c50e9c1127f2cd403a315f,,,,,,,,,,,,,,,,,,,,fourtwo,,1,0.5924,,,,,,,,,,,,,,,,,,,,,,,,,,,,,,,,,,"[-0.4982,-0.2942,-0.0354000000000001]","[-0.4746,-0.0354000000000001,0.5449999999999999]",29.60003662,-52.80001831,1,0,0,response3disk,8.799987793,-4.800018311,1,0,0,rectangle,8.799987793,-4.800018311,1,0,0,-2,2,0.0007,0,8.799987793,-4.800018311,1,0,0,0,8,8,35,1,35,first,,,,,,,,,,,,,,,,,,,,,,,,,,,,,,,,,,,,,,,,,,,,,,,,,,,,,,,,,,,,,,,,,,,,,,,,
,,,,,,6154d702c164d49259d6cc20,62c53a59f799e9c1f976a8f6,2022-07-06_09h31.51.324,Colour_Asymmetry_Pilot,2022.1.3,Win32,144.0714594,62c50e9c1127f2cd403a315f,,,,,,,,,,,,,,,,,,,,threefour,,1,0.4584,,,,,,,,,,,,,,,,,,,,,,,,,,,,,,,,,,"[-0.5688,-0.08239999999999992,-0.1844]","[-0.9766,-0.34920000000000007,0.2156]",18.40002441,-44.80001831,1,0,0,response3disk,0.799987793,-7.200012207,1,0,0,rectangle,0.799987793,-7.200012207,1,0,0,-2,3,0.0005,0,0.799987793,-7.200012207,1,0,0,0,9,9,87,1,6,second,,,,,,,,,,,,,,,,,,,,,,,,,,,,,,,,,,,,,,,,,,,,,,,,,,,,,,,,,,,,,,,,,,,,,,,,
,,,,,,6154d702c164d49259d6cc20,62c53a59f799e9c1f976a8f6,2022-07-06_09h31.51.324,Colour_Asymmetry_Pilot,2022.1.3,Win32,144.0714594,62c50e9c1127f2cd403a315f,,,,,,,,,,,,,,,,,,,,threefour,,-2,0.8158,,,,,,,,,,,,,,,,,,,,,,,,,,,,,,,,,,"[-0.24719999999999998,-0.0354000000000001,0.3175999999999999]","[-0.9296,-0.12959999999999994,-0.043199999999999905]",-44,-28.80001831,1,0,0,response5disk,3.200012207,-4,1,0,0,rectangle,3.200012207,-4,1,0,0,-2,2,0.0007,0,3.200012207,-4,1,0,0,0,10,10,50,1,50,first,,,,,,,,,,,,,,,,,,,,,,,,,,,,,,,,,,,,,,,,,,,,,,,,,,,,,,,,,,,,,,,,,,,,,,,,
,,,,,,6154d702c164d49259d6cc20,62c53a59f799e9c1f976a8f6,2022-07-06_09h31.51.324,Colour_Asymmetry_Pilot,2022.1.3,Win32,144.0714594,62c50e9c1127f2cd403a315f,,,,,,,,,,,,,,,,,,,,onetwo,,-4,0.4446,,,,,,,,,,,,,,,,,,,,,,,,,,,,,,,,,,"[0.3802000000000001,0.19199999999999995,-0.6394]","[-0.9844,-0.9688,-0.9922]",-22.39996338,53.6000061,1,0,0,response7disk,8,-3.200012207,1,0,0,rectangle,8,-3.200012207,1,0,0,-2,2,9.99999E-05,0,8,-3.200012207,1,0,0,0,11,11,111,1,30,second,,,,,,,,,,,,,,,,,,,,,,,,,,,,,,,,,,,,,,,,,,,,,,,,,,,,,,,,,,,,,,,,,,,,,,,,
,,,,,,6154d702c164d49259d6cc20,62c53a59f799e9c1f976a8f6,2022-07-06_09h31.51.324,Colour_Asymmetry_Pilot,2022.1.3,Win32,144.0714594,62c50e9c1127f2cd403a315f,,,,,,,,,,,,,,,,,,,,onetwo,,-4,0.8815,,,,,,,,,,,,,,,,,,,,,,,,,,,,,,,,,,"[0.8115999999999999,-0.0040000000000000036,-0.09819999999999995]","[0.4196,0.4665999999999999,0.3568]",-28,28.79998779,1,0,0,response7disk,-22.39996338,-2.399993896,1,0,0,rectangle,-22.39996338,-2.399993896,1,0,0,-2,3,0.0009,0,-22.39996338,-2.399993896,1,0,0,0,12,12,81,1,0,second,,,,,,,,,,,,,,,,,,,,,,,,,,,,,,,,,,,,,,,,,,,,,,,,,,,,,,,,,,,,,,,,,,,,,,,,
,,,,,,6154d702c164d49259d6cc20,62c53a59f799e9c1f976a8f6,2022-07-06_09h31.51.324,Colour_Asymmetry_Pilot,2022.1.3,Win32,144.0714594,62c50e9c1127f2cd403a315f,,,,,,,,,,,,,,,,,,,,twoone,,-3,0.8144,,,,,,,,,,,,,,,,,,,,,,,,,,,,,,,,,,"[0.18419999999999992,-0.4276,-0.404]","[0.0351999999999999,0.41159999999999997,0.0038000000000000256]",-39.20001221,15.19998169,1,0,0,response7disk,-1.599975586,-2.399993896,1,0,0,rectangle,-1.599975586,-2.399993896,1,0,0,-2,3,0.0003,0,-1.599975586,-2.399993896,1,0,0,0,13,13,156,1,75,second,,,,,,,,,,,,,,,,,,,,,,,,,,,,,,,,,,,,,,,,,,,,,,,,,,,,,,,,,,,,,,,,,,,,,,,,
,,,,,,6154d702c164d49259d6cc20,62c53a59f799e9c1f976a8f6,2022-07-06_09h31.51.324,Colour_Asymmetry_Pilot,2022.1.3,Win32,144.0714594,62c50e9c1127f2cd403a315f,,,,,,,,,,,,,,,,,,,,fourtwo,,3,0.5832,,,,,,,,,,,,,,,,,,,,,,,,,,,,,,,,,,"[-0.38039999999999996,-0.4276,-0.1452]","[-0.5452,-0.608,0.2470000000000001]",45.60003662,19.19998169,1,0,0,response1disk,16,7.199981689,1,0,0,rectangle,16,7.199981689,1,0,0,-2,1,0.0008,0,16,7.199981689,1,0,0,0,14,14,100,1,19,second,,,,,,,,,,,,,,,,,,,,,,,,,,,,,,,,,,,,,,,,,,,,,,,,,,,,,,,,,,,,,,,,,,,,,,,,
