trials.thisRepN,trials.thisTrialN,trials.thisN,trials.thisIndex,trials.ran,Colourcodes,participant,session,date,expName,psychopyVersion,OS,frameRate,study_id,trials_4.thisRepN,trials_4.thisTrialN,trials_4.thisN,trials_4.thisIndex,trials_4.ran,StimulusPos,key_resp.keys,key_resp.rt,key_resp_2.keys,key_resp_2.rt,key_resp_15.keys,key_resp_15.rt,key_resp_17.keys,key_resp_17.rt,key_resp_9.keys,key_resp_9.rt,key_resp_10.keys,key_resp_10.rt,Circle1_col,Ecc,Circle2_col,similarity,response_time,mouse_5.x,mouse_5.y,mouse_5.leftButton,mouse_5.midButton,mouse_5.rightButton,mouse_5.clicked_name,mouse_10.x,mouse_10.y,mouse_10.leftButton,mouse_10.midButton,mouse_10.rightButton,mouse_10.clicked_name,mouse_7.x,mouse_7.y,mouse_7.leftButton,mouse_7.midButton,mouse_7.rightButton,catchnumberprac,mouse_6.x,mouse_6.y,mouse_6.leftButton,mouse_6.midButton,mouse_6.rightButton,duringprac.thisRepN,duringprac.thisTrialN,duringprac.thisN,duringprac.thisIndex,duringprac.ran,mouse_7.clicked_name,catchprac,mouse_6.clicked_name,key_resp_22.keys,key_resp_22.rt,Circle1_colour,Circle2_colour,mouse.x,mouse.y,mouse.leftButton,mouse.midButton,mouse.rightButton,mouse.clicked_name,mouse_2.x,mouse_2.y,mouse_2.leftButton,mouse_2.midButton,mouse_2.rightButton,mouse_2.clicked_name,mouse_3.x,mouse_3.y,mouse_3.leftButton,mouse_3.midButton,mouse_3.rightButton,catchresponse,catchnumber,response_time_catch,Catch,mouse_11.x,mouse_11.y,mouse_11.leftButton,mouse_11.midButton,mouse_11.rightButton,trials_2.thisRepN,trials_2.thisTrialN,trials_2.thisN,trials_2.thisIndex,trials_2.ran,Colourpair,Temporder,mouse_3.clicked_name,mouse_11.clicked_name,trials_3.thisRepN,trials_3.thisTrialN,trials_3.thisN,trials_3.thisIndex,trials_3.ran,key_resp_instr_Ishi.keys,key_resp_instr_Ishi.rt,Ishi_trial_keyresp.keys,Ishi_textbox.text,Ishi_mouse.x,Ishi_mouse.y,Ishi_mouse.leftButton,Ishi_mouse.midButton,Ishi_mouse.rightButton,Ishi_mouse.clicked_name,Ishi_loop.thisRepN,Ishi_loop.thisTrialN,Ishi_loop.thisN,Ishi_loop.thisIndex,Ishi_loop.ran,imageaddress,textbox.text,mouse_4.x,mouse_4.y,mouse_4.leftButton,mouse_4.midButton,mouse_4.rightButton,mouse_4.clicked_name,textbox_2.text,mouse_8.x,mouse_8.y,mouse_8.leftButton,mouse_8.midButton,mouse_8.rightButton,mouse_8.clicked_name,textbox_3.text,mouse_9.x,mouse_9.y,mouse_9.leftButton,mouse_9.midButton,mouse_9.rightButton,mouse_9.clicked_name,textbox_4.text,mouse_12.x,mouse_12.y,mouse_12.leftButton,mouse_12.midButton,mouse_12.rightButton,mouse_12.clicked_name,textbox_5.text,mouse_13.x,mouse_13.y,mouse_13.leftButton,mouse_13.midButton,mouse_13.rightButton,mouse_13.clicked_name,textbox_6.text,mouse_14.x,mouse_14.y,mouse_14.leftButton,mouse_14.midButton,mouse_14.rightButton,mouse_14.clicked_name,textbox_7.text,mouse_15.x,mouse_15.y,mouse_15.leftButton,mouse_15.midButton,mouse_15.rightButton,mouse_15.clicked_name
0,0,0,39,1,,61608282bfa4c871fdedef92,62c53995b36304f770c36670,2022-07-06_24h36.12.119,Colour_Asymmetry_Pilot,2022.1.3,Win32,60.0024001,62c50e9c1127f2cd403a315f,,,,,,,,,,,,,,,,,,,,,,,,,,,,,,,,,,,,,,,,,,,,,,,,,,,,,,,,,,,,,,,,,,,,,,,,,,,,,,,,,,,,,,,,,,,,,,,,,,,,,,,,,,,,,,,,,,,,,,,,,,,,,,,,,,,,,,,,,,,,,,,,,,,,,,,,,,,,,,,,,,,
0,1,1,23,1,,61608282bfa4c871fdedef92,62c53995b36304f770c36670,2022-07-06_24h36.12.119,Colour_Asymmetry_Pilot,2022.1.3,Win32,60.0024001,62c50e9c1127f2cd403a315f,,,,,,,,,,,,,,,,,,,,,,,,,,,,,,,,,,,,,,,,,,,,,,,,,,,,,,,,,,,,,,,,,,,,,,,,,,,,,,,,,,,,,,,,,,,,,,,,,,,,,,,,,,,,,,,,,,,,,,,,,,,,,,,,,,,,,,,,,,,,,,,,,,,,,,,,,,,,,,,,,,,
0,2,2,12,1,,61608282bfa4c871fdedef92,62c53995b36304f770c36670,2022-07-06_24h36.12.119,Colour_Asymmetry_Pilot,2022.1.3,Win32,60.0024001,62c50e9c1127f2cd403a315f,,,,,,,,,,,,,,,,,,,,,,,,,,,,,,,,,,,,,,,,,,,,,,,,,,,,,,,,,,,,,,,,,,,,,,,,,,,,,,,,,,,,,,,,,,,,,,,,,,,,,,,,,,,,,,,,,,,,,,,,,,,,,,,,,,,,,,,,,,,,,,,,,,,,,,,,,,,,,,,,,,,
0,3,3,19,1,,61608282bfa4c871fdedef92,62c53995b36304f770c36670,2022-07-06_24h36.12.119,Colour_Asymmetry_Pilot,2022.1.3,Win32,60.0024001,62c50e9c1127f2cd403a315f,,,,,,,,,,,,,,,,,,,,,,,,,,,,,,,,,,,,,,,,,,,,,,,,,,,,,,,,,,,,,,,,,,,,,,,,,,,,,,,,,,,,,,,,,,,,,,,,,,,,,,,,,,,,,,,,,,,,,,,,,,,,,,,,,,,,,,,,,,,,,,,,,,,,,,,,,,,,,,,,,,,
0,4,4,56,1,,61608282bfa4c871fdedef92,62c53995b36304f770c36670,2022-07-06_24h36.12.119,Colour_Asymmetry_Pilot,2022.1.3,Win32,60.0024001,62c50e9c1127f2cd403a315f,,,,,,,,,,,,,,,,,,,,,,,,,,,,,,,,,,,,,,,,,,,,,,,,,,,,,,,,,,,,,,,,,,,,,,,,,,,,,,,,,,,,,,,,,,,,,,,,,,,,,,,,,,,,,,,,,,,,,,,,,,,,,,,,,,,,,,,,,,,,,,,,,,,,,,,,,,,,,,,,,,,
0,5,5,49,1,,61608282bfa4c871fdedef92,62c53995b36304f770c36670,2022-07-06_24h36.12.119,Colour_Asymmetry_Pilot,2022.1.3,Win32,60.0024001,62c50e9c1127f2cd403a315f,,,,,,,,,,,,,,,,,,,,,,,,,,,,,,,,,,,,,,,,,,,,,,,,,,,,,,,,,,,,,,,,,,,,,,,,,,,,,,,,,,,,,,,,,,,,,,,,,,,,,,,,,,,,,,,,,,,,,,,,,,,,,,,,,,,,,,,,,,,,,,,,,,,,,,,,,,,,,,,,,,,
0,6,6,34,1,,61608282bfa4c871fdedef92,62c53995b36304f770c36670,2022-07-06_24h36.12.119,Colour_Asymmetry_Pilot,2022.1.3,Win32,60.0024001,62c50e9c1127f2cd403a315f,,,,,,,,,,,,,,,,,,,,,,,,,,,,,,,,,,,,,,,,,,,,,,,,,,,,,,,,,,,,,,,,,,,,,,,,,,,,,,,,,,,,,,,,,,,,,,,,,,,,,,,,,,,,,,,,,,,,,,,,,,,,,,,,,,,,,,,,,,,,,,,,,,,,,,,,,,,,,,,,,,,
0,7,7,18,1,,61608282bfa4c871fdedef92,62c53995b36304f770c36670,2022-07-06_24h36.12.119,Colour_Asymmetry_Pilot,2022.1.3,Win32,60.0024001,62c50e9c1127f2cd403a315f,,,,,,,,,,,,,,,,,,,,,,,,,,,,,,,,,,,,,,,,,,,,,,,,,,,,,,,,,,,,,,,,,,,,,,,,,,,,,,,,,,,,,,,,,,,,,,,,,,,,,,,,,,,,,,,,,,,,,,,,,,,,,,,,,,,,,,,,,,,,,,,,,,,,,,,,,,,,,,,,,,,
0,8,8,83,1,,61608282bfa4c871fdedef92,62c53995b36304f770c36670,2022-07-06_24h36.12.119,Colour_Asymmetry_Pilot,2022.1.3,Win32,60.0024001,62c50e9c1127f2cd403a315f,,,,,,,,,,,,,,,,,,,,,,,,,,,,,,,,,,,,,,,,,,,,,,,,,,,,,,,,,,,,,,,,,,,,,,,,,,,,,,,,,,,,,,,,,,,,,,,,,,,,,,,,,,,,,,,,,,,,,,,,,,,,,,,,,,,,,,,,,,,,,,,,,,,,,,,,,,,,,,,,,,,
0,9,9,31,1,,61608282bfa4c871fdedef92,62c53995b36304f770c36670,2022-07-06_24h36.12.119,Colour_Asymmetry_Pilot,2022.1.3,Win32,60.0024001,62c50e9c1127f2cd403a315f,,,,,,,,,,,,,,,,,,,,,,,,,,,,,,,,,,,,,,,,,,,,,,,,,,,,,,,,,,,,,,,,,,,,,,,,,,,,,,,,,,,,,,,,,,,,,,,,,,,,,,,,,,,,,,,,,,,,,,,,,,,,,,,,,,,,,,,,,,,,,,,,,,,,,,,,,,,,,,,,,,,
0,10,10,6,1,,61608282bfa4c871fdedef92,62c53995b36304f770c36670,2022-07-06_24h36.12.119,Colour_Asymmetry_Pilot,2022.1.3,Win32,60.0024001,62c50e9c1127f2cd403a315f,,,,,,,,,,,,,,,,,,,,,,,,,,,,,,,,,,,,,,,,,,,,,,,,,,,,,,,,,,,,,,,,,,,,,,,,,,,,,,,,,,,,,,,,,,,,,,,,,,,,,,,,,,,,,,,,,,,,,,,,,,,,,,,,,,,,,,,,,,,,,,,,,,,,,,,,,,,,,,,,,,,
0,11,11,1,1,,61608282bfa4c871fdedef92,62c53995b36304f770c36670,2022-07-06_24h36.12.119,Colour_Asymmetry_Pilot,2022.1.3,Win32,60.0024001,62c50e9c1127f2cd403a315f,,,,,,,,,,,,,,,,,,,,,,,,,,,,,,,,,,,,,,,,,,,,,,,,,,,,,,,,,,,,,,,,,,,,,,,,,,,,,,,,,,,,,,,,,,,,,,,,,,,,,,,,,,,,,,,,,,,,,,,,,,,,,,,,,,,,,,,,,,,,,,,,,,,,,,,,,,,,,,,,,,,
0,12,12,90,1,,61608282bfa4c871fdedef92,62c53995b36304f770c36670,2022-07-06_24h36.12.119,Colour_Asymmetry_Pilot,2022.1.3,Win32,60.0024001,62c50e9c1127f2cd403a315f,,,,,,,,,,,,,,,,,,,,,,,,,,,,,,,,,,,,,,,,,,,,,,,,,,,,,,,,,,,,,,,,,,,,,,,,,,,,,,,,,,,,,,,,,,,,,,,,,,,,,,,,,,,,,,,,,,,,,,,,,,,,,,,,,,,,,,,,,,,,,,,,,,,,,,,,,,,,,,,,,,,
0,13,13,20,1,,61608282bfa4c871fdedef92,62c53995b36304f770c36670,2022-07-06_24h36.12.119,Colour_Asymmetry_Pilot,2022.1.3,Win32,60.0024001,62c50e9c1127f2cd403a315f,,,,,,,,,,,,,,,,,,,,,,,,,,,,,,,,,,,,,,,,,,,,,,,,,,,,,,,,,,,,,,,,,,,,,,,,,,,,,,,,,,,,,,,,,,,,,,,,,,,,,,,,,,,,,,,,,,,,,,,,,,,,,,,,,,,,,,,,,,,,,,,,,,,,,,,,,,,,,,,,,,,
0,14,14,41,1,,61608282bfa4c871fdedef92,62c53995b36304f770c36670,2022-07-06_24h36.12.119,Colour_Asymmetry_Pilot,2022.1.3,Win32,60.0024001,62c50e9c1127f2cd403a315f,,,,,,,,,,,,,,,,,,,,,,,,,,,,,,,,,,,,,,,,,,,,,,,,,,,,,,,,,,,,,,,,,,,,,,,,,,,,,,,,,,,,,,,,,,,,,,,,,,,,,,,,,,,,,,,,,,,,,,,,,,,,,,,,,,,,,,,,,,,,,,,,,,,,,,,,,,,,,,,,,,,
0,15,15,85,1,,61608282bfa4c871fdedef92,62c53995b36304f770c36670,2022-07-06_24h36.12.119,Colour_Asymmetry_Pilot,2022.1.3,Win32,60.0024001,62c50e9c1127f2cd403a315f,,,,,,,,,,,,,,,,,,,,,,,,,,,,,,,,,,,,,,,,,,,,,,,,,,,,,,,,,,,,,,,,,,,,,,,,,,,,,,,,,,,,,,,,,,,,,,,,,,,,,,,,,,,,,,,,,,,,,,,,,,,,,,,,,,,,,,,,,,,,,,,,,,,,,,,,,,,,,,,,,,,
0,16,16,7,1,,61608282bfa4c871fdedef92,62c53995b36304f770c36670,2022-07-06_24h36.12.119,Colour_Asymmetry_Pilot,2022.1.3,Win32,60.0024001,62c50e9c1127f2cd403a315f,,,,,,,,,,,,,,,,,,,,,,,,,,,,,,,,,,,,,,,,,,,,,,,,,,,,,,,,,,,,,,,,,,,,,,,,,,,,,,,,,,,,,,,,,,,,,,,,,,,,,,,,,,,,,,,,,,,,,,,,,,,,,,,,,,,,,,,,,,,,,,,,,,,,,,,,,,,,,,,,,,,
0,17,17,13,1,,61608282bfa4c871fdedef92,62c53995b36304f770c36670,2022-07-06_24h36.12.119,Colour_Asymmetry_Pilot,2022.1.3,Win32,60.0024001,62c50e9c1127f2cd403a315f,,,,,,,,,,,,,,,,,,,,,,,,,,,,,,,,,,,,,,,,,,,,,,,,,,,,,,,,,,,,,,,,,,,,,,,,,,,,,,,,,,,,,,,,,,,,,,,,,,,,,,,,,,,,,,,,,,,,,,,,,,,,,,,,,,,,,,,,,,,,,,,,,,,,,,,,,,,,,,,,,,,
0,18,18,68,1,,61608282bfa4c871fdedef92,62c53995b36304f770c36670,2022-07-06_24h36.12.119,Colour_Asymmetry_Pilot,2022.1.3,Win32,60.0024001,62c50e9c1127f2cd403a315f,,,,,,,,,,,,,,,,,,,,,,,,,,,,,,,,,,,,,,,,,,,,,,,,,,,,,,,,,,,,,,,,,,,,,,,,,,,,,,,,,,,,,,,,,,,,,,,,,,,,,,,,,,,,,,,,,,,,,,,,,,,,,,,,,,,,,,,,,,,,,,,,,,,,,,,,,,,,,,,,,,,
0,19,19,40,1,,61608282bfa4c871fdedef92,62c53995b36304f770c36670,2022-07-06_24h36.12.119,Colour_Asymmetry_Pilot,2022.1.3,Win32,60.0024001,62c50e9c1127f2cd403a315f,,,,,,,,,,,,,,,,,,,,,,,,,,,,,,,,,,,,,,,,,,,,,,,,,,,,,,,,,,,,,,,,,,,,,,,,,,,,,,,,,,,,,,,,,,,,,,,,,,,,,,,,,,,,,,,,,,,,,,,,,,,,,,,,,,,,,,,,,,,,,,,,,,,,,,,,,,,,,,,,,,,
0,20,20,36,1,,61608282bfa4c871fdedef92,62c53995b36304f770c36670,2022-07-06_24h36.12.119,Colour_Asymmetry_Pilot,2022.1.3,Win32,60.0024001,62c50e9c1127f2cd403a315f,,,,,,,,,,,,,,,,,,,,,,,,,,,,,,,,,,,,,,,,,,,,,,,,,,,,,,,,,,,,,,,,,,,,,,,,,,,,,,,,,,,,,,,,,,,,,,,,,,,,,,,,,,,,,,,,,,,,,,,,,,,,,,,,,,,,,,,,,,,,,,,,,,,,,,,,,,,,,,,,,,,
0,21,21,67,1,,61608282bfa4c871fdedef92,62c53995b36304f770c36670,2022-07-06_24h36.12.119,Colour_Asymmetry_Pilot,2022.1.3,Win32,60.0024001,62c50e9c1127f2cd403a315f,,,,,,,,,,,,,,,,,,,,,,,,,,,,,,,,,,,,,,,,,,,,,,,,,,,,,,,,,,,,,,,,,,,,,,,,,,,,,,,,,,,,,,,,,,,,,,,,,,,,,,,,,,,,,,,,,,,,,,,,,,,,,,,,,,,,,,,,,,,,,,,,,,,,,,,,,,,,,,,,,,,
0,22,22,4,1,,61608282bfa4c871fdedef92,62c53995b36304f770c36670,2022-07-06_24h36.12.119,Colour_Asymmetry_Pilot,2022.1.3,Win32,60.0024001,62c50e9c1127f2cd403a315f,,,,,,,,,,,,,,,,,,,,,,,,,,,,,,,,,,,,,,,,,,,,,,,,,,,,,,,,,,,,,,,,,,,,,,,,,,,,,,,,,,,,,,,,,,,,,,,,,,,,,,,,,,,,,,,,,,,,,,,,,,,,,,,,,,,,,,,,,,,,,,,,,,,,,,,,,,,,,,,,,,,
0,23,23,25,1,,61608282bfa4c871fdedef92,62c53995b36304f770c36670,2022-07-06_24h36.12.119,Colour_Asymmetry_Pilot,2022.1.3,Win32,60.0024001,62c50e9c1127f2cd403a315f,,,,,,,,,,,,,,,,,,,,,,,,,,,,,,,,,,,,,,,,,,,,,,,,,,,,,,,,,,,,,,,,,,,,,,,,,,,,,,,,,,,,,,,,,,,,,,,,,,,,,,,,,,,,,,,,,,,,,,,,,,,,,,,,,,,,,,,,,,,,,,,,,,,,,,,,,,,,,,,,,,,
0,24,24,63,1,,61608282bfa4c871fdedef92,62c53995b36304f770c36670,2022-07-06_24h36.12.119,Colour_Asymmetry_Pilot,2022.1.3,Win32,60.0024001,62c50e9c1127f2cd403a315f,,,,,,,,,,,,,,,,,,,,,,,,,,,,,,,,,,,,,,,,,,,,,,,,,,,,,,,,,,,,,,,,,,,,,,,,,,,,,,,,,,,,,,,,,,,,,,,,,,,,,,,,,,,,,,,,,,,,,,,,,,,,,,,,,,,,,,,,,,,,,,,,,,,,,,,,,,,,,,,,,,,
0,25,25,38,1,,61608282bfa4c871fdedef92,62c53995b36304f770c36670,2022-07-06_24h36.12.119,Colour_Asymmetry_Pilot,2022.1.3,Win32,60.0024001,62c50e9c1127f2cd403a315f,,,,,,,,,,,,,,,,,,,,,,,,,,,,,,,,,,,,,,,,,,,,,,,,,,,,,,,,,,,,,,,,,,,,,,,,,,,,,,,,,,,,,,,,,,,,,,,,,,,,,,,,,,,,,,,,,,,,,,,,,,,,,,,,,,,,,,,,,,,,,,,,,,,,,,,,,,,,,,,,,,,
0,26,26,82,1,,61608282bfa4c871fdedef92,62c53995b36304f770c36670,2022-07-06_24h36.12.119,Colour_Asymmetry_Pilot,2022.1.3,Win32,60.0024001,62c50e9c1127f2cd403a315f,,,,,,,,,,,,,,,,,,,,,,,,,,,,,,,,,,,,,,,,,,,,,,,,,,,,,,,,,,,,,,,,,,,,,,,,,,,,,,,,,,,,,,,,,,,,,,,,,,,,,,,,,,,,,,,,,,,,,,,,,,,,,,,,,,,,,,,,,,,,,,,,,,,,,,,,,,,,,,,,,,,
0,27,27,5,1,,61608282bfa4c871fdedef92,62c53995b36304f770c36670,2022-07-06_24h36.12.119,Colour_Asymmetry_Pilot,2022.1.3,Win32,60.0024001,62c50e9c1127f2cd403a315f,,,,,,,,,,,,,,,,,,,,,,,,,,,,,,,,,,,,,,,,,,,,,,,,,,,,,,,,,,,,,,,,,,,,,,,,,,,,,,,,,,,,,,,,,,,,,,,,,,,,,,,,,,,,,,,,,,,,,,,,,,,,,,,,,,,,,,,,,,,,,,,,,,,,,,,,,,,,,,,,,,,
0,28,28,70,1,,61608282bfa4c871fdedef92,62c53995b36304f770c36670,2022-07-06_24h36.12.119,Colour_Asymmetry_Pilot,2022.1.3,Win32,60.0024001,62c50e9c1127f2cd403a315f,,,,,,,,,,,,,,,,,,,,,,,,,,,,,,,,,,,,,,,,,,,,,,,,,,,,,,,,,,,,,,,,,,,,,,,,,,,,,,,,,,,,,,,,,,,,,,,,,,,,,,,,,,,,,,,,,,,,,,,,,,,,,,,,,,,,,,,,,,,,,,,,,,,,,,,,,,,,,,,,,,,
0,29,29,30,1,,61608282bfa4c871fdedef92,62c53995b36304f770c36670,2022-07-06_24h36.12.119,Colour_Asymmetry_Pilot,2022.1.3,Win32,60.0024001,62c50e9c1127f2cd403a315f,,,,,,,,,,,,,,,,,,,,,,,,,,,,,,,,,,,,,,,,,,,,,,,,,,,,,,,,,,,,,,,,,,,,,,,,,,,,,,,,,,,,,,,,,,,,,,,,,,,,,,,,,,,,,,,,,,,,,,,,,,,,,,,,,,,,,,,,,,,,,,,,,,,,,,,,,,,,,,,,,,,
0,30,30,45,1,,61608282bfa4c871fdedef92,62c53995b36304f770c36670,2022-07-06_24h36.12.119,Colour_Asymmetry_Pilot,2022.1.3,Win32,60.0024001,62c50e9c1127f2cd403a315f,,,,,,,,,,,,,,,,,,,,,,,,,,,,,,,,,,,,,,,,,,,,,,,,,,,,,,,,,,,,,,,,,,,,,,,,,,,,,,,,,,,,,,,,,,,,,,,,,,,,,,,,,,,,,,,,,,,,,,,,,,,,,,,,,,,,,,,,,,,,,,,,,,,,,,,,,,,,,,,,,,,
0,31,31,69,1,,61608282bfa4c871fdedef92,62c53995b36304f770c36670,2022-07-06_24h36.12.119,Colour_Asymmetry_Pilot,2022.1.3,Win32,60.0024001,62c50e9c1127f2cd403a315f,,,,,,,,,,,,,,,,,,,,,,,,,,,,,,,,,,,,,,,,,,,,,,,,,,,,,,,,,,,,,,,,,,,,,,,,,,,,,,,,,,,,,,,,,,,,,,,,,,,,,,,,,,,,,,,,,,,,,,,,,,,,,,,,,,,,,,,,,,,,,,,,,,,,,,,,,,,,,,,,,,,
0,32,32,73,1,,61608282bfa4c871fdedef92,62c53995b36304f770c36670,2022-07-06_24h36.12.119,Colour_Asymmetry_Pilot,2022.1.3,Win32,60.0024001,62c50e9c1127f2cd403a315f,,,,,,,,,,,,,,,,,,,,,,,,,,,,,,,,,,,,,,,,,,,,,,,,,,,,,,,,,,,,,,,,,,,,,,,,,,,,,,,,,,,,,,,,,,,,,,,,,,,,,,,,,,,,,,,,,,,,,,,,,,,,,,,,,,,,,,,,,,,,,,,,,,,,,,,,,,,,,,,,,,,
0,33,33,21,1,,61608282bfa4c871fdedef92,62c53995b36304f770c36670,2022-07-06_24h36.12.119,Colour_Asymmetry_Pilot,2022.1.3,Win32,60.0024001,62c50e9c1127f2cd403a315f,,,,,,,,,,,,,,,,,,,,,,,,,,,,,,,,,,,,,,,,,,,,,,,,,,,,,,,,,,,,,,,,,,,,,,,,,,,,,,,,,,,,,,,,,,,,,,,,,,,,,,,,,,,,,,,,,,,,,,,,,,,,,,,,,,,,,,,,,,,,,,,,,,,,,,,,,,,,,,,,,,,
0,34,34,86,1,,61608282bfa4c871fdedef92,62c53995b36304f770c36670,2022-07-06_24h36.12.119,Colour_Asymmetry_Pilot,2022.1.3,Win32,60.0024001,62c50e9c1127f2cd403a315f,,,,,,,,,,,,,,,,,,,,,,,,,,,,,,,,,,,,,,,,,,,,,,,,,,,,,,,,,,,,,,,,,,,,,,,,,,,,,,,,,,,,,,,,,,,,,,,,,,,,,,,,,,,,,,,,,,,,,,,,,,,,,,,,,,,,,,,,,,,,,,,,,,,,,,,,,,,,,,,,,,,
0,35,35,44,1,,61608282bfa4c871fdedef92,62c53995b36304f770c36670,2022-07-06_24h36.12.119,Colour_Asymmetry_Pilot,2022.1.3,Win32,60.0024001,62c50e9c1127f2cd403a315f,,,,,,,,,,,,,,,,,,,,,,,,,,,,,,,,,,,,,,,,,,,,,,,,,,,,,,,,,,,,,,,,,,,,,,,,,,,,,,,,,,,,,,,,,,,,,,,,,,,,,,,,,,,,,,,,,,,,,,,,,,,,,,,,,,,,,,,,,,,,,,,,,,,,,,,,,,,,,,,,,,,
0,36,36,66,1,,61608282bfa4c871fdedef92,62c53995b36304f770c36670,2022-07-06_24h36.12.119,Colour_Asymmetry_Pilot,2022.1.3,Win32,60.0024001,62c50e9c1127f2cd403a315f,,,,,,,,,,,,,,,,,,,,,,,,,,,,,,,,,,,,,,,,,,,,,,,,,,,,,,,,,,,,,,,,,,,,,,,,,,,,,,,,,,,,,,,,,,,,,,,,,,,,,,,,,,,,,,,,,,,,,,,,,,,,,,,,,,,,,,,,,,,,,,,,,,,,,,,,,,,,,,,,,,,
0,37,37,3,1,,61608282bfa4c871fdedef92,62c53995b36304f770c36670,2022-07-06_24h36.12.119,Colour_Asymmetry_Pilot,2022.1.3,Win32,60.0024001,62c50e9c1127f2cd403a315f,,,,,,,,,,,,,,,,,,,,,,,,,,,,,,,,,,,,,,,,,,,,,,,,,,,,,,,,,,,,,,,,,,,,,,,,,,,,,,,,,,,,,,,,,,,,,,,,,,,,,,,,,,,,,,,,,,,,,,,,,,,,,,,,,,,,,,,,,,,,,,,,,,,,,,,,,,,,,,,,,,,
0,38,38,14,1,,61608282bfa4c871fdedef92,62c53995b36304f770c36670,2022-07-06_24h36.12.119,Colour_Asymmetry_Pilot,2022.1.3,Win32,60.0024001,62c50e9c1127f2cd403a315f,,,,,,,,,,,,,,,,,,,,,,,,,,,,,,,,,,,,,,,,,,,,,,,,,,,,,,,,,,,,,,,,,,,,,,,,,,,,,,,,,,,,,,,,,,,,,,,,,,,,,,,,,,,,,,,,,,,,,,,,,,,,,,,,,,,,,,,,,,,,,,,,,,,,,,,,,,,,,,,,,,,
0,39,39,64,1,,61608282bfa4c871fdedef92,62c53995b36304f770c36670,2022-07-06_24h36.12.119,Colour_Asymmetry_Pilot,2022.1.3,Win32,60.0024001,62c50e9c1127f2cd403a315f,,,,,,,,,,,,,,,,,,,,,,,,,,,,,,,,,,,,,,,,,,,,,,,,,,,,,,,,,,,,,,,,,,,,,,,,,,,,,,,,,,,,,,,,,,,,,,,,,,,,,,,,,,,,,,,,,,,,,,,,,,,,,,,,,,,,,,,,,,,,,,,,,,,,,,,,,,,,,,,,,,,
0,40,40,74,1,,61608282bfa4c871fdedef92,62c53995b36304f770c36670,2022-07-06_24h36.12.119,Colour_Asymmetry_Pilot,2022.1.3,Win32,60.0024001,62c50e9c1127f2cd403a315f,,,,,,,,,,,,,,,,,,,,,,,,,,,,,,,,,,,,,,,,,,,,,,,,,,,,,,,,,,,,,,,,,,,,,,,,,,,,,,,,,,,,,,,,,,,,,,,,,,,,,,,,,,,,,,,,,,,,,,,,,,,,,,,,,,,,,,,,,,,,,,,,,,,,,,,,,,,,,,,,,,,
0,41,41,2,1,,61608282bfa4c871fdedef92,62c53995b36304f770c36670,2022-07-06_24h36.12.119,Colour_Asymmetry_Pilot,2022.1.3,Win32,60.0024001,62c50e9c1127f2cd403a315f,,,,,,,,,,,,,,,,,,,,,,,,,,,,,,,,,,,,,,,,,,,,,,,,,,,,,,,,,,,,,,,,,,,,,,,,,,,,,,,,,,,,,,,,,,,,,,,,,,,,,,,,,,,,,,,,,,,,,,,,,,,,,,,,,,,,,,,,,,,,,,,,,,,,,,,,,,,,,,,,,,,
0,42,42,89,1,,61608282bfa4c871fdedef92,62c53995b36304f770c36670,2022-07-06_24h36.12.119,Colour_Asymmetry_Pilot,2022.1.3,Win32,60.0024001,62c50e9c1127f2cd403a315f,,,,,,,,,,,,,,,,,,,,,,,,,,,,,,,,,,,,,,,,,,,,,,,,,,,,,,,,,,,,,,,,,,,,,,,,,,,,,,,,,,,,,,,,,,,,,,,,,,,,,,,,,,,,,,,,,,,,,,,,,,,,,,,,,,,,,,,,,,,,,,,,,,,,,,,,,,,,,,,,,,,
0,43,43,79,1,,61608282bfa4c871fdedef92,62c53995b36304f770c36670,2022-07-06_24h36.12.119,Colour_Asymmetry_Pilot,2022.1.3,Win32,60.0024001,62c50e9c1127f2cd403a315f,,,,,,,,,,,,,,,,,,,,,,,,,,,,,,,,,,,,,,,,,,,,,,,,,,,,,,,,,,,,,,,,,,,,,,,,,,,,,,,,,,,,,,,,,,,,,,,,,,,,,,,,,,,,,,,,,,,,,,,,,,,,,,,,,,,,,,,,,,,,,,,,,,,,,,,,,,,,,,,,,,,
0,44,44,88,1,,61608282bfa4c871fdedef92,62c53995b36304f770c36670,2022-07-06_24h36.12.119,Colour_Asymmetry_Pilot,2022.1.3,Win32,60.0024001,62c50e9c1127f2cd403a315f,,,,,,,,,,,,,,,,,,,,,,,,,,,,,,,,,,,,,,,,,,,,,,,,,,,,,,,,,,,,,,,,,,,,,,,,,,,,,,,,,,,,,,,,,,,,,,,,,,,,,,,,,,,,,,,,,,,,,,,,,,,,,,,,,,,,,,,,,,,,,,,,,,,,,,,,,,,,,,,,,,,
0,45,45,46,1,,61608282bfa4c871fdedef92,62c53995b36304f770c36670,2022-07-06_24h36.12.119,Colour_Asymmetry_Pilot,2022.1.3,Win32,60.0024001,62c50e9c1127f2cd403a315f,,,,,,,,,,,,,,,,,,,,,,,,,,,,,,,,,,,,,,,,,,,,,,,,,,,,,,,,,,,,,,,,,,,,,,,,,,,,,,,,,,,,,,,,,,,,,,,,,,,,,,,,,,,,,,,,,,,,,,,,,,,,,,,,,,,,,,,,,,,,,,,,,,,,,,,,,,,,,,,,,,,
0,46,46,81,1,,61608282bfa4c871fdedef92,62c53995b36304f770c36670,2022-07-06_24h36.12.119,Colour_Asymmetry_Pilot,2022.1.3,Win32,60.0024001,62c50e9c1127f2cd403a315f,,,,,,,,,,,,,,,,,,,,,,,,,,,,,,,,,,,,,,,,,,,,,,,,,,,,,,,,,,,,,,,,,,,,,,,,,,,,,,,,,,,,,,,,,,,,,,,,,,,,,,,,,,,,,,,,,,,,,,,,,,,,,,,,,,,,,,,,,,,,,,,,,,,,,,,,,,,,,,,,,,,
0,47,47,55,1,,61608282bfa4c871fdedef92,62c53995b36304f770c36670,2022-07-06_24h36.12.119,Colour_Asymmetry_Pilot,2022.1.3,Win32,60.0024001,62c50e9c1127f2cd403a315f,,,,,,,,,,,,,,,,,,,,,,,,,,,,,,,,,,,,,,,,,,,,,,,,,,,,,,,,,,,,,,,,,,,,,,,,,,,,,,,,,,,,,,,,,,,,,,,,,,,,,,,,,,,,,,,,,,,,,,,,,,,,,,,,,,,,,,,,,,,,,,,,,,,,,,,,,,,,,,,,,,,
0,48,48,32,1,,61608282bfa4c871fdedef92,62c53995b36304f770c36670,2022-07-06_24h36.12.119,Colour_Asymmetry_Pilot,2022.1.3,Win32,60.0024001,62c50e9c1127f2cd403a315f,,,,,,,,,,,,,,,,,,,,,,,,,,,,,,,,,,,,,,,,,,,,,,,,,,,,,,,,,,,,,,,,,,,,,,,,,,,,,,,,,,,,,,,,,,,,,,,,,,,,,,,,,,,,,,,,,,,,,,,,,,,,,,,,,,,,,,,,,,,,,,,,,,,,,,,,,,,,,,,,,,,
0,49,49,51,1,,61608282bfa4c871fdedef92,62c53995b36304f770c36670,2022-07-06_24h36.12.119,Colour_Asymmetry_Pilot,2022.1.3,Win32,60.0024001,62c50e9c1127f2cd403a315f,,,,,,,,,,,,,,,,,,,,,,,,,,,,,,,,,,,,,,,,,,,,,,,,,,,,,,,,,,,,,,,,,,,,,,,,,,,,,,,,,,,,,,,,,,,,,,,,,,,,,,,,,,,,,,,,,,,,,,,,,,,,,,,,,,,,,,,,,,,,,,,,,,,,,,,,,,,,,,,,,,,
0,50,50,77,1,,61608282bfa4c871fdedef92,62c53995b36304f770c36670,2022-07-06_24h36.12.119,Colour_Asymmetry_Pilot,2022.1.3,Win32,60.0024001,62c50e9c1127f2cd403a315f,,,,,,,,,,,,,,,,,,,,,,,,,,,,,,,,,,,,,,,,,,,,,,,,,,,,,,,,,,,,,,,,,,,,,,,,,,,,,,,,,,,,,,,,,,,,,,,,,,,,,,,,,,,,,,,,,,,,,,,,,,,,,,,,,,,,,,,,,,,,,,,,,,,,,,,,,,,,,,,,,,,
0,51,51,75,1,,61608282bfa4c871fdedef92,62c53995b36304f770c36670,2022-07-06_24h36.12.119,Colour_Asymmetry_Pilot,2022.1.3,Win32,60.0024001,62c50e9c1127f2cd403a315f,,,,,,,,,,,,,,,,,,,,,,,,,,,,,,,,,,,,,,,,,,,,,,,,,,,,,,,,,,,,,,,,,,,,,,,,,,,,,,,,,,,,,,,,,,,,,,,,,,,,,,,,,,,,,,,,,,,,,,,,,,,,,,,,,,,,,,,,,,,,,,,,,,,,,,,,,,,,,,,,,,,
0,52,52,78,1,,61608282bfa4c871fdedef92,62c53995b36304f770c36670,2022-07-06_24h36.12.119,Colour_Asymmetry_Pilot,2022.1.3,Win32,60.0024001,62c50e9c1127f2cd403a315f,,,,,,,,,,,,,,,,,,,,,,,,,,,,,,,,,,,,,,,,,,,,,,,,,,,,,,,,,,,,,,,,,,,,,,,,,,,,,,,,,,,,,,,,,,,,,,,,,,,,,,,,,,,,,,,,,,,,,,,,,,,,,,,,,,,,,,,,,,,,,,,,,,,,,,,,,,,,,,,,,,,
0,53,53,29,1,,61608282bfa4c871fdedef92,62c53995b36304f770c36670,2022-07-06_24h36.12.119,Colour_Asymmetry_Pilot,2022.1.3,Win32,60.0024001,62c50e9c1127f2cd403a315f,,,,,,,,,,,,,,,,,,,,,,,,,,,,,,,,,,,,,,,,,,,,,,,,,,,,,,,,,,,,,,,,,,,,,,,,,,,,,,,,,,,,,,,,,,,,,,,,,,,,,,,,,,,,,,,,,,,,,,,,,,,,,,,,,,,,,,,,,,,,,,,,,,,,,,,,,,,,,,,,,,,
0,54,54,43,1,,61608282bfa4c871fdedef92,62c53995b36304f770c36670,2022-07-06_24h36.12.119,Colour_Asymmetry_Pilot,2022.1.3,Win32,60.0024001,62c50e9c1127f2cd403a315f,,,,,,,,,,,,,,,,,,,,,,,,,,,,,,,,,,,,,,,,,,,,,,,,,,,,,,,,,,,,,,,,,,,,,,,,,,,,,,,,,,,,,,,,,,,,,,,,,,,,,,,,,,,,,,,,,,,,,,,,,,,,,,,,,,,,,,,,,,,,,,,,,,,,,,,,,,,,,,,,,,,
0,55,55,61,1,,61608282bfa4c871fdedef92,62c53995b36304f770c36670,2022-07-06_24h36.12.119,Colour_Asymmetry_Pilot,2022.1.3,Win32,60.0024001,62c50e9c1127f2cd403a315f,,,,,,,,,,,,,,,,,,,,,,,,,,,,,,,,,,,,,,,,,,,,,,,,,,,,,,,,,,,,,,,,,,,,,,,,,,,,,,,,,,,,,,,,,,,,,,,,,,,,,,,,,,,,,,,,,,,,,,,,,,,,,,,,,,,,,,,,,,,,,,,,,,,,,,,,,,,,,,,,,,,
0,56,56,42,1,,61608282bfa4c871fdedef92,62c53995b36304f770c36670,2022-07-06_24h36.12.119,Colour_Asymmetry_Pilot,2022.1.3,Win32,60.0024001,62c50e9c1127f2cd403a315f,,,,,,,,,,,,,,,,,,,,,,,,,,,,,,,,,,,,,,,,,,,,,,,,,,,,,,,,,,,,,,,,,,,,,,,,,,,,,,,,,,,,,,,,,,,,,,,,,,,,,,,,,,,,,,,,,,,,,,,,,,,,,,,,,,,,,,,,,,,,,,,,,,,,,,,,,,,,,,,,,,,
0,57,57,9,1,,61608282bfa4c871fdedef92,62c53995b36304f770c36670,2022-07-06_24h36.12.119,Colour_Asymmetry_Pilot,2022.1.3,Win32,60.0024001,62c50e9c1127f2cd403a315f,,,,,,,,,,,,,,,,,,,,,,,,,,,,,,,,,,,,,,,,,,,,,,,,,,,,,,,,,,,,,,,,,,,,,,,,,,,,,,,,,,,,,,,,,,,,,,,,,,,,,,,,,,,,,,,,,,,,,,,,,,,,,,,,,,,,,,,,,,,,,,,,,,,,,,,,,,,,,,,,,,,
0,58,58,59,1,,61608282bfa4c871fdedef92,62c53995b36304f770c36670,2022-07-06_24h36.12.119,Colour_Asymmetry_Pilot,2022.1.3,Win32,60.0024001,62c50e9c1127f2cd403a315f,,,,,,,,,,,,,,,,,,,,,,,,,,,,,,,,,,,,,,,,,,,,,,,,,,,,,,,,,,,,,,,,,,,,,,,,,,,,,,,,,,,,,,,,,,,,,,,,,,,,,,,,,,,,,,,,,,,,,,,,,,,,,,,,,,,,,,,,,,,,,,,,,,,,,,,,,,,,,,,,,,,
0,59,59,60,1,,61608282bfa4c871fdedef92,62c53995b36304f770c36670,2022-07-06_24h36.12.119,Colour_Asymmetry_Pilot,2022.1.3,Win32,60.0024001,62c50e9c1127f2cd403a315f,,,,,,,,,,,,,,,,,,,,,,,,,,,,,,,,,,,,,,,,,,,,,,,,,,,,,,,,,,,,,,,,,,,,,,,,,,,,,,,,,,,,,,,,,,,,,,,,,,,,,,,,,,,,,,,,,,,,,,,,,,,,,,,,,,,,,,,,,,,,,,,,,,,,,,,,,,,,,,,,,,,
0,60,60,57,1,,61608282bfa4c871fdedef92,62c53995b36304f770c36670,2022-07-06_24h36.12.119,Colour_Asymmetry_Pilot,2022.1.3,Win32,60.0024001,62c50e9c1127f2cd403a315f,,,,,,,,,,,,,,,,,,,,,,,,,,,,,,,,,,,,,,,,,,,,,,,,,,,,,,,,,,,,,,,,,,,,,,,,,,,,,,,,,,,,,,,,,,,,,,,,,,,,,,,,,,,,,,,,,,,,,,,,,,,,,,,,,,,,,,,,,,,,,,,,,,,,,,,,,,,,,,,,,,,
0,61,61,58,1,,61608282bfa4c871fdedef92,62c53995b36304f770c36670,2022-07-06_24h36.12.119,Colour_Asymmetry_Pilot,2022.1.3,Win32,60.0024001,62c50e9c1127f2cd403a315f,,,,,,,,,,,,,,,,,,,,,,,,,,,,,,,,,,,,,,,,,,,,,,,,,,,,,,,,,,,,,,,,,,,,,,,,,,,,,,,,,,,,,,,,,,,,,,,,,,,,,,,,,,,,,,,,,,,,,,,,,,,,,,,,,,,,,,,,,,,,,,,,,,,,,,,,,,,,,,,,,,,
0,62,62,8,1,,61608282bfa4c871fdedef92,62c53995b36304f770c36670,2022-07-06_24h36.12.119,Colour_Asymmetry_Pilot,2022.1.3,Win32,60.0024001,62c50e9c1127f2cd403a315f,,,,,,,,,,,,,,,,,,,,,,,,,,,,,,,,,,,,,,,,,,,,,,,,,,,,,,,,,,,,,,,,,,,,,,,,,,,,,,,,,,,,,,,,,,,,,,,,,,,,,,,,,,,,,,,,,,,,,,,,,,,,,,,,,,,,,,,,,,,,,,,,,,,,,,,,,,,,,,,,,,,
0,63,63,15,1,,61608282bfa4c871fdedef92,62c53995b36304f770c36670,2022-07-06_24h36.12.119,Colour_Asymmetry_Pilot,2022.1.3,Win32,60.0024001,62c50e9c1127f2cd403a315f,,,,,,,,,,,,,,,,,,,,,,,,,,,,,,,,,,,,,,,,,,,,,,,,,,,,,,,,,,,,,,,,,,,,,,,,,,,,,,,,,,,,,,,,,,,,,,,,,,,,,,,,,,,,,,,,,,,,,,,,,,,,,,,,,,,,,,,,,,,,,,,,,,,,,,,,,,,,,,,,,,,
0,64,64,76,1,,61608282bfa4c871fdedef92,62c53995b36304f770c36670,2022-07-06_24h36.12.119,Colour_Asymmetry_Pilot,2022.1.3,Win32,60.0024001,62c50e9c1127f2cd403a315f,,,,,,,,,,,,,,,,,,,,,,,,,,,,,,,,,,,,,,,,,,,,,,,,,,,,,,,,,,,,,,,,,,,,,,,,,,,,,,,,,,,,,,,,,,,,,,,,,,,,,,,,,,,,,,,,,,,,,,,,,,,,,,,,,,,,,,,,,,,,,,,,,,,,,,,,,,,,,,,,,,,
0,65,65,48,1,,61608282bfa4c871fdedef92,62c53995b36304f770c36670,2022-07-06_24h36.12.119,Colour_Asymmetry_Pilot,2022.1.3,Win32,60.0024001,62c50e9c1127f2cd403a315f,,,,,,,,,,,,,,,,,,,,,,,,,,,,,,,,,,,,,,,,,,,,,,,,,,,,,,,,,,,,,,,,,,,,,,,,,,,,,,,,,,,,,,,,,,,,,,,,,,,,,,,,,,,,,,,,,,,,,,,,,,,,,,,,,,,,,,,,,,,,,,,,,,,,,,,,,,,,,,,,,,,
0,66,66,87,1,,61608282bfa4c871fdedef92,62c53995b36304f770c36670,2022-07-06_24h36.12.119,Colour_Asymmetry_Pilot,2022.1.3,Win32,60.0024001,62c50e9c1127f2cd403a315f,,,,,,,,,,,,,,,,,,,,,,,,,,,,,,,,,,,,,,,,,,,,,,,,,,,,,,,,,,,,,,,,,,,,,,,,,,,,,,,,,,,,,,,,,,,,,,,,,,,,,,,,,,,,,,,,,,,,,,,,,,,,,,,,,,,,,,,,,,,,,,,,,,,,,,,,,,,,,,,,,,,
0,67,67,17,1,,61608282bfa4c871fdedef92,62c53995b36304f770c36670,2022-07-06_24h36.12.119,Colour_Asymmetry_Pilot,2022.1.3,Win32,60.0024001,62c50e9c1127f2cd403a315f,,,,,,,,,,,,,,,,,,,,,,,,,,,,,,,,,,,,,,,,,,,,,,,,,,,,,,,,,,,,,,,,,,,,,,,,,,,,,,,,,,,,,,,,,,,,,,,,,,,,,,,,,,,,,,,,,,,,,,,,,,,,,,,,,,,,,,,,,,,,,,,,,,,,,,,,,,,,,,,,,,,
0,68,68,71,1,,61608282bfa4c871fdedef92,62c53995b36304f770c36670,2022-07-06_24h36.12.119,Colour_Asymmetry_Pilot,2022.1.3,Win32,60.0024001,62c50e9c1127f2cd403a315f,,,,,,,,,,,,,,,,,,,,,,,,,,,,,,,,,,,,,,,,,,,,,,,,,,,,,,,,,,,,,,,,,,,,,,,,,,,,,,,,,,,,,,,,,,,,,,,,,,,,,,,,,,,,,,,,,,,,,,,,,,,,,,,,,,,,,,,,,,,,,,,,,,,,,,,,,,,,,,,,,,,
0,69,69,0,1,,61608282bfa4c871fdedef92,62c53995b36304f770c36670,2022-07-06_24h36.12.119,Colour_Asymmetry_Pilot,2022.1.3,Win32,60.0024001,62c50e9c1127f2cd403a315f,,,,,,,,,,,,,,,,,,,,,,,,,,,,,,,,,,,,,,,,,,,,,,,,,,,,,,,,,,,,,,,,,,,,,,,,,,,,,,,,,,,,,,,,,,,,,,,,,,,,,,,,,,,,,,,,,,,,,,,,,,,,,,,,,,,,,,,,,,,,,,,,,,,,,,,,,,,,,,,,,,,
0,70,70,72,1,,61608282bfa4c871fdedef92,62c53995b36304f770c36670,2022-07-06_24h36.12.119,Colour_Asymmetry_Pilot,2022.1.3,Win32,60.0024001,62c50e9c1127f2cd403a315f,,,,,,,,,,,,,,,,,,,,,,,,,,,,,,,,,,,,,,,,,,,,,,,,,,,,,,,,,,,,,,,,,,,,,,,,,,,,,,,,,,,,,,,,,,,,,,,,,,,,,,,,,,,,,,,,,,,,,,,,,,,,,,,,,,,,,,,,,,,,,,,,,,,,,,,,,,,,,,,,,,,
0,71,71,16,1,,61608282bfa4c871fdedef92,62c53995b36304f770c36670,2022-07-06_24h36.12.119,Colour_Asymmetry_Pilot,2022.1.3,Win32,60.0024001,62c50e9c1127f2cd403a315f,,,,,,,,,,,,,,,,,,,,,,,,,,,,,,,,,,,,,,,,,,,,,,,,,,,,,,,,,,,,,,,,,,,,,,,,,,,,,,,,,,,,,,,,,,,,,,,,,,,,,,,,,,,,,,,,,,,,,,,,,,,,,,,,,,,,,,,,,,,,,,,,,,,,,,,,,,,,,,,,,,,
0,72,72,80,1,,61608282bfa4c871fdedef92,62c53995b36304f770c36670,2022-07-06_24h36.12.119,Colour_Asymmetry_Pilot,2022.1.3,Win32,60.0024001,62c50e9c1127f2cd403a315f,,,,,,,,,,,,,,,,,,,,,,,,,,,,,,,,,,,,,,,,,,,,,,,,,,,,,,,,,,,,,,,,,,,,,,,,,,,,,,,,,,,,,,,,,,,,,,,,,,,,,,,,,,,,,,,,,,,,,,,,,,,,,,,,,,,,,,,,,,,,,,,,,,,,,,,,,,,,,,,,,,,
0,73,73,10,1,,61608282bfa4c871fdedef92,62c53995b36304f770c36670,2022-07-06_24h36.12.119,Colour_Asymmetry_Pilot,2022.1.3,Win32,60.0024001,62c50e9c1127f2cd403a315f,,,,,,,,,,,,,,,,,,,,,,,,,,,,,,,,,,,,,,,,,,,,,,,,,,,,,,,,,,,,,,,,,,,,,,,,,,,,,,,,,,,,,,,,,,,,,,,,,,,,,,,,,,,,,,,,,,,,,,,,,,,,,,,,,,,,,,,,,,,,,,,,,,,,,,,,,,,,,,,,,,,
0,74,74,28,1,,61608282bfa4c871fdedef92,62c53995b36304f770c36670,2022-07-06_24h36.12.119,Colour_Asymmetry_Pilot,2022.1.3,Win32,60.0024001,62c50e9c1127f2cd403a315f,,,,,,,,,,,,,,,,,,,,,,,,,,,,,,,,,,,,,,,,,,,,,,,,,,,,,,,,,,,,,,,,,,,,,,,,,,,,,,,,,,,,,,,,,,,,,,,,,,,,,,,,,,,,,,,,,,,,,,,,,,,,,,,,,,,,,,,,,,,,,,,,,,,,,,,,,,,,,,,,,,,
0,75,75,91,1,,61608282bfa4c871fdedef92,62c53995b36304f770c36670,2022-07-06_24h36.12.119,Colour_Asymmetry_Pilot,2022.1.3,Win32,60.0024001,62c50e9c1127f2cd403a315f,,,,,,,,,,,,,,,,,,,,,,,,,,,,,,,,,,,,,,,,,,,,,,,,,,,,,,,,,,,,,,,,,,,,,,,,,,,,,,,,,,,,,,,,,,,,,,,,,,,,,,,,,,,,,,,,,,,,,,,,,,,,,,,,,,,,,,,,,,,,,,,,,,,,,,,,,,,,,,,,,,,
0,76,76,11,1,,61608282bfa4c871fdedef92,62c53995b36304f770c36670,2022-07-06_24h36.12.119,Colour_Asymmetry_Pilot,2022.1.3,Win32,60.0024001,62c50e9c1127f2cd403a315f,,,,,,,,,,,,,,,,,,,,,,,,,,,,,,,,,,,,,,,,,,,,,,,,,,,,,,,,,,,,,,,,,,,,,,,,,,,,,,,,,,,,,,,,,,,,,,,,,,,,,,,,,,,,,,,,,,,,,,,,,,,,,,,,,,,,,,,,,,,,,,,,,,,,,,,,,,,,,,,,,,,
0,77,77,62,1,,61608282bfa4c871fdedef92,62c53995b36304f770c36670,2022-07-06_24h36.12.119,Colour_Asymmetry_Pilot,2022.1.3,Win32,60.0024001,62c50e9c1127f2cd403a315f,,,,,,,,,,,,,,,,,,,,,,,,,,,,,,,,,,,,,,,,,,,,,,,,,,,,,,,,,,,,,,,,,,,,,,,,,,,,,,,,,,,,,,,,,,,,,,,,,,,,,,,,,,,,,,,,,,,,,,,,,,,,,,,,,,,,,,,,,,,,,,,,,,,,,,,,,,,,,,,,,,,
0,78,78,47,1,,61608282bfa4c871fdedef92,62c53995b36304f770c36670,2022-07-06_24h36.12.119,Colour_Asymmetry_Pilot,2022.1.3,Win32,60.0024001,62c50e9c1127f2cd403a315f,,,,,,,,,,,,,,,,,,,,,,,,,,,,,,,,,,,,,,,,,,,,,,,,,,,,,,,,,,,,,,,,,,,,,,,,,,,,,,,,,,,,,,,,,,,,,,,,,,,,,,,,,,,,,,,,,,,,,,,,,,,,,,,,,,,,,,,,,,,,,,,,,,,,,,,,,,,,,,,,,,,
0,79,79,92,1,,61608282bfa4c871fdedef92,62c53995b36304f770c36670,2022-07-06_24h36.12.119,Colour_Asymmetry_Pilot,2022.1.3,Win32,60.0024001,62c50e9c1127f2cd403a315f,,,,,,,,,,,,,,,,,,,,,,,,,,,,,,,,,,,,,,,,,,,,,,,,,,,,,,,,,,,,,,,,,,,,,,,,,,,,,,,,,,,,,,,,,,,,,,,,,,,,,,,,,,,,,,,,,,,,,,,,,,,,,,,,,,,,,,,,,,,,,,,,,,,,,,,,,,,,,,,,,,,
0,80,80,33,1,,61608282bfa4c871fdedef92,62c53995b36304f770c36670,2022-07-06_24h36.12.119,Colour_Asymmetry_Pilot,2022.1.3,Win32,60.0024001,62c50e9c1127f2cd403a315f,,,,,,,,,,,,,,,,,,,,,,,,,,,,,,,,,,,,,,,,,,,,,,,,,,,,,,,,,,,,,,,,,,,,,,,,,,,,,,,,,,,,,,,,,,,,,,,,,,,,,,,,,,,,,,,,,,,,,,,,,,,,,,,,,,,,,,,,,,,,,,,,,,,,,,,,,,,,,,,,,,,
0,81,81,26,1,,61608282bfa4c871fdedef92,62c53995b36304f770c36670,2022-07-06_24h36.12.119,Colour_Asymmetry_Pilot,2022.1.3,Win32,60.0024001,62c50e9c1127f2cd403a315f,,,,,,,,,,,,,,,,,,,,,,,,,,,,,,,,,,,,,,,,,,,,,,,,,,,,,,,,,,,,,,,,,,,,,,,,,,,,,,,,,,,,,,,,,,,,,,,,,,,,,,,,,,,,,,,,,,,,,,,,,,,,,,,,,,,,,,,,,,,,,,,,,,,,,,,,,,,,,,,,,,,
0,82,82,27,1,,61608282bfa4c871fdedef92,62c53995b36304f770c36670,2022-07-06_24h36.12.119,Colour_Asymmetry_Pilot,2022.1.3,Win32,60.0024001,62c50e9c1127f2cd403a315f,,,,,,,,,,,,,,,,,,,,,,,,,,,,,,,,,,,,,,,,,,,,,,,,,,,,,,,,,,,,,,,,,,,,,,,,,,,,,,,,,,,,,,,,,,,,,,,,,,,,,,,,,,,,,,,,,,,,,,,,,,,,,,,,,,,,,,,,,,,,,,,,,,,,,,,,,,,,,,,,,,,
0,83,83,22,1,,61608282bfa4c871fdedef92,62c53995b36304f770c36670,2022-07-06_24h36.12.119,Colour_Asymmetry_Pilot,2022.1.3,Win32,60.0024001,62c50e9c1127f2cd403a315f,,,,,,,,,,,,,,,,,,,,,,,,,,,,,,,,,,,,,,,,,,,,,,,,,,,,,,,,,,,,,,,,,,,,,,,,,,,,,,,,,,,,,,,,,,,,,,,,,,,,,,,,,,,,,,,,,,,,,,,,,,,,,,,,,,,,,,,,,,,,,,,,,,,,,,,,,,,,,,,,,,,
0,84,84,35,1,,61608282bfa4c871fdedef92,62c53995b36304f770c36670,2022-07-06_24h36.12.119,Colour_Asymmetry_Pilot,2022.1.3,Win32,60.0024001,62c50e9c1127f2cd403a315f,,,,,,,,,,,,,,,,,,,,,,,,,,,,,,,,,,,,,,,,,,,,,,,,,,,,,,,,,,,,,,,,,,,,,,,,,,,,,,,,,,,,,,,,,,,,,,,,,,,,,,,,,,,,,,,,,,,,,,,,,,,,,,,,,,,,,,,,,,,,,,,,,,,,,,,,,,,,,,,,,,,
0,85,85,37,1,,61608282bfa4c871fdedef92,62c53995b36304f770c36670,2022-07-06_24h36.12.119,Colour_Asymmetry_Pilot,2022.1.3,Win32,60.0024001,62c50e9c1127f2cd403a315f,,,,,,,,,,,,,,,,,,,,,,,,,,,,,,,,,,,,,,,,,,,,,,,,,,,,,,,,,,,,,,,,,,,,,,,,,,,,,,,,,,,,,,,,,,,,,,,,,,,,,,,,,,,,,,,,,,,,,,,,,,,,,,,,,,,,,,,,,,,,,,,,,,,,,,,,,,,,,,,,,,,
0,86,86,52,1,,61608282bfa4c871fdedef92,62c53995b36304f770c36670,2022-07-06_24h36.12.119,Colour_Asymmetry_Pilot,2022.1.3,Win32,60.0024001,62c50e9c1127f2cd403a315f,,,,,,,,,,,,,,,,,,,,,,,,,,,,,,,,,,,,,,,,,,,,,,,,,,,,,,,,,,,,,,,,,,,,,,,,,,,,,,,,,,,,,,,,,,,,,,,,,,,,,,,,,,,,,,,,,,,,,,,,,,,,,,,,,,,,,,,,,,,,,,,,,,,,,,,,,,,,,,,,,,,
0,87,87,53,1,,61608282bfa4c871fdedef92,62c53995b36304f770c36670,2022-07-06_24h36.12.119,Colour_Asymmetry_Pilot,2022.1.3,Win32,60.0024001,62c50e9c1127f2cd403a315f,,,,,,,,,,,,,,,,,,,,,,,,,,,,,,,,,,,,,,,,,,,,,,,,,,,,,,,,,,,,,,,,,,,,,,,,,,,,,,,,,,,,,,,,,,,,,,,,,,,,,,,,,,,,,,,,,,,,,,,,,,,,,,,,,,,,,,,,,,,,,,,,,,,,,,,,,,,,,,,,,,,
0,88,88,84,1,,61608282bfa4c871fdedef92,62c53995b36304f770c36670,2022-07-06_24h36.12.119,Colour_Asymmetry_Pilot,2022.1.3,Win32,60.0024001,62c50e9c1127f2cd403a315f,,,,,,,,,,,,,,,,,,,,,,,,,,,,,,,,,,,,,,,,,,,,,,,,,,,,,,,,,,,,,,,,,,,,,,,,,,,,,,,,,,,,,,,,,,,,,,,,,,,,,,,,,,,,,,,,,,,,,,,,,,,,,,,,,,,,,,,,,,,,,,,,,,,,,,,,,,,,,,,,,,,
0,89,89,24,1,,61608282bfa4c871fdedef92,62c53995b36304f770c36670,2022-07-06_24h36.12.119,Colour_Asymmetry_Pilot,2022.1.3,Win32,60.0024001,62c50e9c1127f2cd403a315f,,,,,,,,,,,,,,,,,,,,,,,,,,,,,,,,,,,,,,,,,,,,,,,,,,,,,,,,,,,,,,,,,,,,,,,,,,,,,,,,,,,,,,,,,,,,,,,,,,,,,,,,,,,,,,,,,,,,,,,,,,,,,,,,,,,,,,,,,,,,,,,,,,,,,,,,,,,,,,,,,,,
0,90,90,50,1,,61608282bfa4c871fdedef92,62c53995b36304f770c36670,2022-07-06_24h36.12.119,Colour_Asymmetry_Pilot,2022.1.3,Win32,60.0024001,62c50e9c1127f2cd403a315f,,,,,,,,,,,,,,,,,,,,,,,,,,,,,,,,,,,,,,,,,,,,,,,,,,,,,,,,,,,,,,,,,,,,,,,,,,,,,,,,,,,,,,,,,,,,,,,,,,,,,,,,,,,,,,,,,,,,,,,,,,,,,,,,,,,,,,,,,,,,,,,,,,,,,,,,,,,,,,,,,,,
0,91,91,54,1,,61608282bfa4c871fdedef92,62c53995b36304f770c36670,2022-07-06_24h36.12.119,Colour_Asymmetry_Pilot,2022.1.3,Win32,60.0024001,62c50e9c1127f2cd403a315f,,,,,,,,,,,,,,,,,,,,,,,,,,,,,,,,,,,,,,,,,,,,,,,,,,,,,,,,,,,,,,,,,,,,,,,,,,,,,,,,,,,,,,,,,,,,,,,,,,,,,,,,,,,,,,,,,,,,,,,,,,,,,,,,,,,,,,,,,,,,,,,,,,,,,,,,,,,,,,,,,,,
0,92,92,65,1,,61608282bfa4c871fdedef92,62c53995b36304f770c36670,2022-07-06_24h36.12.119,Colour_Asymmetry_Pilot,2022.1.3,Win32,60.0024001,62c50e9c1127f2cd403a315f,,,,,,,,,,,,,,,,,,,,,,,,,,,,,,,,,,,,,,,,,,,,,,,,,,,,,,,,,,,,,,,,,,,,,,,,,,,,,,,,,,,,,,,,,,,,,,,,,,,,,,,,,,,,,,,,,,,,,,,,,,,,,,,,,,,,,,,,,,,,,,,,,,,,,,,,,,,,,,,,,,,
,,,,,,61608282bfa4c871fdedef92,62c53995b36304f770c36670,2022-07-06_24h36.12.119,Colour_Asymmetry_Pilot,2022.1.3,Win32,60.0024001,62c50e9c1127f2cd403a315f,0,0,0,60,1,threeone,,,,,,,,,,,,,,,,,,,,,,,,,,,,,,,,,,,,,,,,,,,,,,,,,,,,,,,,,,,,,,,,,,,,,,,,,,,,,,,,,,,,,,,,,,,,,,,,,,,,,,,,,,,,,,,,,,,,,,,,,,,,,,,,,,,,,,,,,,,,,,,,,,,,,,,,,,,,,
,,,,,,61608282bfa4c871fdedef92,62c53995b36304f770c36670,2022-07-06_24h36.12.119,Colour_Asymmetry_Pilot,2022.1.3,Win32,60.0024001,62c50e9c1127f2cd403a315f,0,1,1,20,1,threeone,,,,,,,,,,,,,,,,,,,,,,,,,,,,,,,,,,,,,,,,,,,,,,,,,,,,,,,,,,,,,,,,,,,,,,,,,,,,,,,,,,,,,,,,,,,,,,,,,,,,,,,,,,,,,,,,,,,,,,,,,,,,,,,,,,,,,,,,,,,,,,,,,,,,,,,,,,,,,
,,,,,,61608282bfa4c871fdedef92,62c53995b36304f770c36670,2022-07-06_24h36.12.119,Colour_Asymmetry_Pilot,2022.1.3,Win32,60.0024001,62c50e9c1127f2cd403a315f,0,2,2,114,1,twoone,,,,,,,,,,,,,,,,,,,,,,,,,,,,,,,,,,,,,,,,,,,,,,,,,,,,,,,,,,,,,,,,,,,,,,,,,,,,,,,,,,,,,,,,,,,,,,,,,,,,,,,,,,,,,,,,,,,,,,,,,,,,,,,,,,,,,,,,,,,,,,,,,,,,,,,,,,,,,
,,,,,,61608282bfa4c871fdedef92,62c53995b36304f770c36670,2022-07-06_24h36.12.119,Colour_Asymmetry_Pilot,2022.1.3,Win32,60.0024001,62c50e9c1127f2cd403a315f,0,3,3,84,1,threeone,,,,,,,,,,,,,,,,,,,,,,,,,,,,,,,,,,,,,,,,,,,,,,,,,,,,,,,,,,,,,,,,,,,,,,,,,,,,,,,,,,,,,,,,,,,,,,,,,,,,,,,,,,,,,,,,,,,,,,,,,,,,,,,,,,,,,,,,,,,,,,,,,,,,,,,,,,,,,
,,,,,,61608282bfa4c871fdedef92,62c53995b36304f770c36670,2022-07-06_24h36.12.119,Colour_Asymmetry_Pilot,2022.1.3,Win32,60.0024001,62c50e9c1127f2cd403a315f,0,4,4,95,1,fourthree,,,,,,,,,,,,,,,,,,,,,,,,,,,,,,,,,,,,,,,,,,,,,,,,,,,,,,,,,,,,,,,,,,,,,,,,,,,,,,,,,,,,,,,,,,,,,,,,,,,,,,,,,,,,,,,,,,,,,,,,,,,,,,,,,,,,,,,,,,,,,,,,,,,,,,,,,,,,,
,,,,,,61608282bfa4c871fdedef92,62c53995b36304f770c36670,2022-07-06_24h36.12.119,Colour_Asymmetry_Pilot,2022.1.3,Win32,60.0024001,62c50e9c1127f2cd403a315f,0,5,5,8,1,onetwo,,,,,,,,,,,,,,,,,,,,,,,,,,,,,,,,,,,,,,,,,,,,,,,,,,,,,,,,,,,,,,,,,,,,,,,,,,,,,,,,,,,,,,,,,,,,,,,,,,,,,,,,,,,,,,,,,,,,,,,,,,,,,,,,,,,,,,,,,,,,,,,,,,,,,,,,,,,,,
,,,,,,61608282bfa4c871fdedef92,62c53995b36304f770c36670,2022-07-06_24h36.12.119,Colour_Asymmetry_Pilot,2022.1.3,Win32,60.0024001,62c50e9c1127f2cd403a315f,0,6,6,74,1,twoone,,,,,,,,,,,,,,,,,,,,,,,,,,,,,,,,,,,,,,,,,,,,,,,,,,,,,,,,,,,,,,,,,,,,,,,,,,,,,,,,,,,,,,,,,,,,,,,,,,,,,,,,,,,,,,,,,,,,,,,,,,,,,,,,,,,,,,,,,,,,,,,,,,,,,,,,,,,,,
,,,,,,61608282bfa4c871fdedef92,62c53995b36304f770c36670,2022-07-06_24h36.12.119,Colour_Asymmetry_Pilot,2022.1.3,Win32,60.0024001,62c50e9c1127f2cd403a315f,0,7,7,68,1,threeone,,,,,,,,,,,,,,,,,,,,,,,,,,,,,,,,,,,,,,,,,,,,,,,,,,,,,,,,,,,,,,,,,,,,,,,,,,,,,,,,,,,,,,,,,,,,,,,,,,,,,,,,,,,,,,,,,,,,,,,,,,,,,,,,,,,,,,,,,,,,,,,,,,,,,,,,,,,,,
,,,,,,61608282bfa4c871fdedef92,62c53995b36304f770c36670,2022-07-06_24h36.12.119,Colour_Asymmetry_Pilot,2022.1.3,Win32,60.0024001,62c50e9c1127f2cd403a315f,0,8,8,63,1,fourthree,,,,,,,,,,,,,,,,,,,,,,,,,,,,,,,,,,,,,,,,,,,,,,,,,,,,,,,,,,,,,,,,,,,,,,,,,,,,,,,,,,,,,,,,,,,,,,,,,,,,,,,,,,,,,,,,,,,,,,,,,,,,,,,,,,,,,,,,,,,,,,,,,,,,,,,,,,,,,
,,,,,,61608282bfa4c871fdedef92,62c53995b36304f770c36670,2022-07-06_24h36.12.119,Colour_Asymmetry_Pilot,2022.1.3,Win32,60.0024001,62c50e9c1127f2cd403a315f,0,9,9,106,1,twoone,,,,,,,,,,,,,,,,,,,,,,,,,,,,,,,,,,,,,,,,,,,,,,,,,,,,,,,,,,,,,,,,,,,,,,,,,,,,,,,,,,,,,,,,,,,,,,,,,,,,,,,,,,,,,,,,,,,,,,,,,,,,,,,,,,,,,,,,,,,,,,,,,,,,,,,,,,,,,
,,,,,,61608282bfa4c871fdedef92,62c53995b36304f770c36670,2022-07-06_24h36.12.119,Colour_Asymmetry_Pilot,2022.1.3,Win32,60.0024001,62c50e9c1127f2cd403a315f,0,10,10,110,1,fourtwo,,,,,,,,,,,,,,,,,,,,,,,,,,,,,,,,,,,,,,,,,,,,,,,,,,,,,,,,,,,,,,,,,,,,,,,,,,,,,,,,,,,,,,,,,,,,,,,,,,,,,,,,,,,,,,,,,,,,,,,,,,,,,,,,,,,,,,,,,,,,,,,,,,,,,,,,,,,,,
,,,,,,61608282bfa4c871fdedef92,62c53995b36304f770c36670,2022-07-06_24h36.12.119,Colour_Asymmetry_Pilot,2022.1.3,Win32,60.0024001,62c50e9c1127f2cd403a315f,0,11,11,5,1,threefour,,,,,,,,,,,,,,,,,,,,,,,,,,,,,,,,,,,,,,,,,,,,,,,,,,,,,,,,,,,,,,,,,,,,,,,,,,,,,,,,,,,,,,,,,,,,,,,,,,,,,,,,,,,,,,,,,,,,,,,,,,,,,,,,,,,,,,,,,,,,,,,,,,,,,,,,,,,,,
,,,,,,61608282bfa4c871fdedef92,62c53995b36304f770c36670,2022-07-06_24h36.12.119,Colour_Asymmetry_Pilot,2022.1.3,Win32,60.0024001,62c50e9c1127f2cd403a315f,0,12,12,51,1,twofour,,,,,,,,,,,,,,,,,,,,,,,,,,,,,,,,,,,,,,,,,,,,,,,,,,,,,,,,,,,,,,,,,,,,,,,,,,,,,,,,,,,,,,,,,,,,,,,,,,,,,,,,,,,,,,,,,,,,,,,,,,,,,,,,,,,,,,,,,,,,,,,,,,,,,,,,,,,,,
,,,,,,61608282bfa4c871fdedef92,62c53995b36304f770c36670,2022-07-06_24h36.12.119,Colour_Asymmetry_Pilot,2022.1.3,Win32,60.0024001,62c50e9c1127f2cd403a315f,0,13,13,29,1,threefour,,,,,,,,,,,,,,,,,,,,,,,,,,,,,,,,,,,,,,,,,,,,,,,,,,,,,,,,,,,,,,,,,,,,,,,,,,,,,,,,,,,,,,,,,,,,,,,,,,,,,,,,,,,,,,,,,,,,,,,,,,,,,,,,,,,,,,,,,,,,,,,,,,,,,,,,,,,,,
,,,,,,61608282bfa4c871fdedef92,62c53995b36304f770c36670,2022-07-06_24h36.12.119,Colour_Asymmetry_Pilot,2022.1.3,Win32,60.0024001,62c50e9c1127f2cd403a315f,0,14,14,43,1,twofour,,,,,,,,,,,,,,,,,,,,,,,,,,,,,,,,,,,,,,,,,,,,,,,,,,,,,,,,,,,,,,,,,,,,,,,,,,,,,,,,,,,,,,,,,,,,,,,,,,,,,,,,,,,,,,,,,,,,,,,,,,,,,,,,,,,,,,,,,,,,,,,,,,,,,,,,,,,,,
,,,,,,61608282bfa4c871fdedef92,62c53995b36304f770c36670,2022-07-06_24h36.12.119,Colour_Asymmetry_Pilot,2022.1.3,Win32,60.0024001,62c50e9c1127f2cd403a315f,0,15,15,157,1,threefour,,,,,,,,,,,,,,,,,,,,,,,,,,,,,,,,,,,,,,,,,,,,,,,,,,,,,,,,,,,,,,,,,,,,,,,,,,,,,,,,,,,,,,,,,,,,,,,,,,,,,,,,,,,,,,,,,,,,,,,,,,,,,,,,,,,,,,,,,,,,,,,,,,,,,,,,,,,,,
,,,,,,61608282bfa4c871fdedef92,62c53995b36304f770c36670,2022-07-06_24h36.12.119,Colour_Asymmetry_Pilot,2022.1.3,Win32,60.0024001,62c50e9c1127f2cd403a315f,0,16,16,87,1,fourthree,,,,,,,,,,,,,,,,,,,,,,,,,,,,,,,,,,,,,,,,,,,,,,,,,,,,,,,,,,,,,,,,,,,,,,,,,,,,,,,,,,,,,,,,,,,,,,,,,,,,,,,,,,,,,,,,,,,,,,,,,,,,,,,,,,,,,,,,,,,,,,,,,,,,,,,,,,,,,
,,,,,,61608282bfa4c871fdedef92,62c53995b36304f770c36670,2022-07-06_24h36.12.119,Colour_Asymmetry_Pilot,2022.1.3,Win32,60.0024001,62c50e9c1127f2cd403a315f,0,17,17,44,1,threeone,,,,,,,,,,,,,,,,,,,,,,,,,,,,,,,,,,,,,,,,,,,,,,,,,,,,,,,,,,,,,,,,,,,,,,,,,,,,,,,,,,,,,,,,,,,,,,,,,,,,,,,,,,,,,,,,,,,,,,,,,,,,,,,,,,,,,,,,,,,,,,,,,,,,,,,,,,,,,
,,,,,,61608282bfa4c871fdedef92,62c53995b36304f770c36670,2022-07-06_24h36.12.119,Colour_Asymmetry_Pilot,2022.1.3,Win32,60.0024001,62c50e9c1127f2cd403a315f,0,18,18,125,1,threefour,,,,,,,,,,,,,,,,,,,,,,,,,,,,,,,,,,,,,,,,,,,,,,,,,,,,,,,,,,,,,,,,,,,,,,,,,,,,,,,,,,,,,,,,,,,,,,,,,,,,,,,,,,,,,,,,,,,,,,,,,,,,,,,,,,,,,,,,,,,,,,,,,,,,,,,,,,,,,
,,,,,,61608282bfa4c871fdedef92,62c53995b36304f770c36670,2022-07-06_24h36.12.119,Colour_Asymmetry_Pilot,2022.1.3,Win32,60.0024001,62c50e9c1127f2cd403a315f,0,19,19,137,1,onethree,,,,,,,,,,,,,,,,,,,,,,,,,,,,,,,,,,,,,,,,,,,,,,,,,,,,,,,,,,,,,,,,,,,,,,,,,,,,,,,,,,,,,,,,,,,,,,,,,,,,,,,,,,,,,,,,,,,,,,,,,,,,,,,,,,,,,,,,,,,,,,,,,,,,,,,,,,,,,
,,,,,,61608282bfa4c871fdedef92,62c53995b36304f770c36670,2022-07-06_24h36.12.119,Colour_Asymmetry_Pilot,2022.1.3,Win32,60.0024001,62c50e9c1127f2cd403a315f,0,20,20,107,1,twofour,,,,,,,,,,,,,,,,,,,,,,,,,,,,,,,,,,,,,,,,,,,,,,,,,,,,,,,,,,,,,,,,,,,,,,,,,,,,,,,,,,,,,,,,,,,,,,,,,,,,,,,,,,,,,,,,,,,,,,,,,,,,,,,,,,,,,,,,,,,,,,,,,,,,,,,,,,,,,
,,,,,,61608282bfa4c871fdedef92,62c53995b36304f770c36670,2022-07-06_24h36.12.119,Colour_Asymmetry_Pilot,2022.1.3,Win32,60.0024001,62c50e9c1127f2cd403a315f,0,21,21,127,1,fourthree,,,,,,,,,,,,,,,,,,,,,,,,,,,,,,,,,,,,,,,,,,,,,,,,,,,,,,,,,,,,,,,,,,,,,,,,,,,,,,,,,,,,,,,,,,,,,,,,,,,,,,,,,,,,,,,,,,,,,,,,,,,,,,,,,,,,,,,,,,,,,,,,,,,,,,,,,,,,,
,,,,,,61608282bfa4c871fdedef92,62c53995b36304f770c36670,2022-07-06_24h36.12.119,Colour_Asymmetry_Pilot,2022.1.3,Win32,60.0024001,62c50e9c1127f2cd403a315f,0,22,22,123,1,twofour,,,,,,,,,,,,,,,,,,,,,,,,,,,,,,,,,,,,,,,,,,,,,,,,,,,,,,,,,,,,,,,,,,,,,,,,,,,,,,,,,,,,,,,,,,,,,,,,,,,,,,,,,,,,,,,,,,,,,,,,,,,,,,,,,,,,,,,,,,,,,,,,,,,,,,,,,,,,,
,,,,,,61608282bfa4c871fdedef92,62c53995b36304f770c36670,2022-07-06_24h36.12.119,Colour_Asymmetry_Pilot,2022.1.3,Win32,60.0024001,62c50e9c1127f2cd403a315f,0,23,23,116,1,threeone,,,,,,,,,,,,,,,,,,,,,,,,,,,,,,,,,,,,,,,,,,,,,,,,,,,,,,,,,,,,,,,,,,,,,,,,,,,,,,,,,,,,,,,,,,,,,,,,,,,,,,,,,,,,,,,,,,,,,,,,,,,,,,,,,,,,,,,,,,,,,,,,,,,,,,,,,,,,,
,,,,,,61608282bfa4c871fdedef92,62c53995b36304f770c36670,2022-07-06_24h36.12.119,Colour_Asymmetry_Pilot,2022.1.3,Win32,60.0024001,62c50e9c1127f2cd403a315f,0,24,24,93,1,threefour,,,,,,,,,,,,,,,,,,,,,,,,,,,,,,,,,,,,,,,,,,,,,,,,,,,,,,,,,,,,,,,,,,,,,,,,,,,,,,,,,,,,,,,,,,,,,,,,,,,,,,,,,,,,,,,,,,,,,,,,,,,,,,,,,,,,,,,,,,,,,,,,,,,,,,,,,,,,,
,,,,,,61608282bfa4c871fdedef92,62c53995b36304f770c36670,2022-07-06_24h36.12.119,Colour_Asymmetry_Pilot,2022.1.3,Win32,60.0024001,62c50e9c1127f2cd403a315f,0,25,25,158,1,fourtwo,,,,,,,,,,,,,,,,,,,,,,,,,,,,,,,,,,,,,,,,,,,,,,,,,,,,,,,,,,,,,,,,,,,,,,,,,,,,,,,,,,,,,,,,,,,,,,,,,,,,,,,,,,,,,,,,,,,,,,,,,,,,,,,,,,,,,,,,,,,,,,,,,,,,,,,,,,,,,
,,,,,,61608282bfa4c871fdedef92,62c53995b36304f770c36670,2022-07-06_24h36.12.119,Colour_Asymmetry_Pilot,2022.1.3,Win32,60.0024001,62c50e9c1127f2cd403a315f,0,26,26,54,1,fourtwo,,,,,,,,,,,,,,,,,,,,,,,,,,,,,,,,,,,,,,,,,,,,,,,,,,,,,,,,,,,,,,,,,,,,,,,,,,,,,,,,,,,,,,,,,,,,,,,,,,,,,,,,,,,,,,,,,,,,,,,,,,,,,,,,,,,,,,,,,,,,,,,,,,,,,,,,,,,,,
,,,,,,61608282bfa4c871fdedef92,62c53995b36304f770c36670,2022-07-06_24h36.12.119,Colour_Asymmetry_Pilot,2022.1.3,Win32,60.0024001,62c50e9c1127f2cd403a315f,0,27,27,24,1,onetwo,,,,,,,,,,,,,,,,,,,,,,,,,,,,,,,,,,,,,,,,,,,,,,,,,,,,,,,,,,,,,,,,,,,,,,,,,,,,,,,,,,,,,,,,,,,,,,,,,,,,,,,,,,,,,,,,,,,,,,,,,,,,,,,,,,,,,,,,,,,,,,,,,,,,,,,,,,,,,
,,,,,,61608282bfa4c871fdedef92,62c53995b36304f770c36670,2022-07-06_24h36.12.119,Colour_Asymmetry_Pilot,2022.1.3,Win32,60.0024001,62c50e9c1127f2cd403a315f,0,28,28,81,1,onethree,,,,,,,,,,,,,,,,,,,,,,,,,,,,,,,,,,,,,,,,,,,,,,,,,,,,,,,,,,,,,,,,,,,,,,,,,,,,,,,,,,,,,,,,,,,,,,,,,,,,,,,,,,,,,,,,,,,,,,,,,,,,,,,,,,,,,,,,,,,,,,,,,,,,,,,,,,,,,
,,,,,,61608282bfa4c871fdedef92,62c53995b36304f770c36670,2022-07-06_24h36.12.119,Colour_Asymmetry_Pilot,2022.1.3,Win32,60.0024001,62c50e9c1127f2cd403a315f,0,29,29,148,1,threeone,,,,,,,,,,,,,,,,,,,,,,,,,,,,,,,,,,,,,,,,,,,,,,,,,,,,,,,,,,,,,,,,,,,,,,,,,,,,,,,,,,,,,,,,,,,,,,,,,,,,,,,,,,,,,,,,,,,,,,,,,,,,,,,,,,,,,,,,,,,,,,,,,,,,,,,,,,,,,
,,,,,,61608282bfa4c871fdedef92,62c53995b36304f770c36670,2022-07-06_24h36.12.119,Colour_Asymmetry_Pilot,2022.1.3,Win32,60.0024001,62c50e9c1127f2cd403a315f,0,30,30,79,1,fourthree,,,,,,,,,,,,,,,,,,,,,,,,,,,,,,,,,,,,,,,,,,,,,,,,,,,,,,,,,,,,,,,,,,,,,,,,,,,,,,,,,,,,,,,,,,,,,,,,,,,,,,,,,,,,,,,,,,,,,,,,,,,,,,,,,,,,,,,,,,,,,,,,,,,,,,,,,,,,,
,,,,,,61608282bfa4c871fdedef92,62c53995b36304f770c36670,2022-07-06_24h36.12.119,Colour_Asymmetry_Pilot,2022.1.3,Win32,60.0024001,62c50e9c1127f2cd403a315f,0,31,31,3,1,twofour,,,,,,,,,,,,,,,,,,,,,,,,,,,,,,,,,,,,,,,,,,,,,,,,,,,,,,,,,,,,,,,,,,,,,,,,,,,,,,,,,,,,,,,,,,,,,,,,,,,,,,,,,,,,,,,,,,,,,,,,,,,,,,,,,,,,,,,,,,,,,,,,,,,,,,,,,,,,,
,,,,,,61608282bfa4c871fdedef92,62c53995b36304f770c36670,2022-07-06_24h36.12.119,Colour_Asymmetry_Pilot,2022.1.3,Win32,60.0024001,62c50e9c1127f2cd403a315f,0,32,32,159,1,fourthree,,,,,,,,,,,,,,,,,,,,,,,,,,,,,,,,,,,,,,,,,,,,,,,,,,,,,,,,,,,,,,,,,,,,,,,,,,,,,,,,,,,,,,,,,,,,,,,,,,,,,,,,,,,,,,,,,,,,,,,,,,,,,,,,,,,,,,,,,,,,,,,,,,,,,,,,,,,,,
,,,,,,61608282bfa4c871fdedef92,62c53995b36304f770c36670,2022-07-06_24h36.12.119,Colour_Asymmetry_Pilot,2022.1.3,Win32,60.0024001,62c50e9c1127f2cd403a315f,0,33,33,40,1,onetwo,,,,,,,,,,,,,,,,,,,,,,,,,,,,,,,,,,,,,,,,,,,,,,,,,,,,,,,,,,,,,,,,,,,,,,,,,,,,,,,,,,,,,,,,,,,,,,,,,,,,,,,,,,,,,,,,,,,,,,,,,,,,,,,,,,,,,,,,,,,,,,,,,,,,,,,,,,,,,
,,,,,,61608282bfa4c871fdedef92,62c53995b36304f770c36670,2022-07-06_24h36.12.119,Colour_Asymmetry_Pilot,2022.1.3,Win32,60.0024001,62c50e9c1127f2cd403a315f,0,34,34,147,1,twofour,,,,,,,,,,,,,,,,,,,,,,,,,,,,,,,,,,,,,,,,,,,,,,,,,,,,,,,,,,,,,,,,,,,,,,,,,,,,,,,,,,,,,,,,,,,,,,,,,,,,,,,,,,,,,,,,,,,,,,,,,,,,,,,,,,,,,,,,,,,,,,,,,,,,,,,,,,,,,
,,,,,,61608282bfa4c871fdedef92,62c53995b36304f770c36670,2022-07-06_24h36.12.119,Colour_Asymmetry_Pilot,2022.1.3,Win32,60.0024001,62c50e9c1127f2cd403a315f,0,35,35,82,1,twoone,,,,,,,,,,,,,,,,,,,,,,,,,,,,,,,,,,,,,,,,,,,,,,,,,,,,,,,,,,,,,,,,,,,,,,,,,,,,,,,,,,,,,,,,,,,,,,,,,,,,,,,,,,,,,,,,,,,,,,,,,,,,,,,,,,,,,,,,,,,,,,,,,,,,,,,,,,,,,
,,,,,,61608282bfa4c871fdedef92,62c53995b36304f770c36670,2022-07-06_24h36.12.119,Colour_Asymmetry_Pilot,2022.1.3,Win32,60.0024001,62c50e9c1127f2cd403a315f,0,36,36,120,1,onetwo,,,,,,,,,,,,,,,,,,,,,,,,,,,,,,,,,,,,,,,,,,,,,,,,,,,,,,,,,,,,,,,,,,,,,,,,,,,,,,,,,,,,,,,,,,,,,,,,,,,,,,,,,,,,,,,,,,,,,,,,,,,,,,,,,,,,,,,,,,,,,,,,,,,,,,,,,,,,,
,,,,,,61608282bfa4c871fdedef92,62c53995b36304f770c36670,2022-07-06_24h36.12.119,Colour_Asymmetry_Pilot,2022.1.3,Win32,60.0024001,62c50e9c1127f2cd403a315f,0,37,37,153,1,onethree,,,,,,,,,,,,,,,,,,,,,,,,,,,,,,,,,,,,,,,,,,,,,,,,,,,,,,,,,,,,,,,,,,,,,,,,,,,,,,,,,,,,,,,,,,,,,,,,,,,,,,,,,,,,,,,,,,,,,,,,,,,,,,,,,,,,,,,,,,,,,,,,,,,,,,,,,,,,,
,,,,,,61608282bfa4c871fdedef92,62c53995b36304f770c36670,2022-07-06_24h36.12.119,Colour_Asymmetry_Pilot,2022.1.3,Win32,60.0024001,62c50e9c1127f2cd403a315f,0,38,38,36,1,threeone,,,,,,,,,,,,,,,,,,,,,,,,,,,,,,,,,,,,,,,,,,,,,,,,,,,,,,,,,,,,,,,,,,,,,,,,,,,,,,,,,,,,,,,,,,,,,,,,,,,,,,,,,,,,,,,,,,,,,,,,,,,,,,,,,,,,,,,,,,,,,,,,,,,,,,,,,,,,,
,,,,,,61608282bfa4c871fdedef92,62c53995b36304f770c36670,2022-07-06_24h36.12.119,Colour_Asymmetry_Pilot,2022.1.3,Win32,60.0024001,62c50e9c1127f2cd403a315f,0,39,39,91,1,twofour,,,,,,,,,,,,,,,,,,,,,,,,,,,,,,,,,,,,,,,,,,,,,,,,,,,,,,,,,,,,,,,,,,,,,,,,,,,,,,,,,,,,,,,,,,,,,,,,,,,,,,,,,,,,,,,,,,,,,,,,,,,,,,,,,,,,,,,,,,,,,,,,,,,,,,,,,,,,,
,,,,,,61608282bfa4c871fdedef92,62c53995b36304f770c36670,2022-07-06_24h36.12.119,Colour_Asymmetry_Pilot,2022.1.3,Win32,60.0024001,62c50e9c1127f2cd403a315f,0,40,40,134,1,fourtwo,,,,,,,,,,,,,,,,,,,,,,,,,,,,,,,,,,,,,,,,,,,,,,,,,,,,,,,,,,,,,,,,,,,,,,,,,,,,,,,,,,,,,,,,,,,,,,,,,,,,,,,,,,,,,,,,,,,,,,,,,,,,,,,,,,,,,,,,,,,,,,,,,,,,,,,,,,,,,
,,,,,,61608282bfa4c871fdedef92,62c53995b36304f770c36670,2022-07-06_24h36.12.119,Colour_Asymmetry_Pilot,2022.1.3,Win32,60.0024001,62c50e9c1127f2cd403a315f,0,41,41,61,1,threefour,,,,,,,,,,,,,,,,,,,,,,,,,,,,,,,,,,,,,,,,,,,,,,,,,,,,,,,,,,,,,,,,,,,,,,,,,,,,,,,,,,,,,,,,,,,,,,,,,,,,,,,,,,,,,,,,,,,,,,,,,,,,,,,,,,,,,,,,,,,,,,,,,,,,,,,,,,,,,
,,,,,,61608282bfa4c871fdedef92,62c53995b36304f770c36670,2022-07-06_24h36.12.119,Colour_Asymmetry_Pilot,2022.1.3,Win32,60.0024001,62c50e9c1127f2cd403a315f,0,42,42,41,1,onethree,,,,,,,,,,,,,,,,,,,,,,,,,,,,,,,,,,,,,,,,,,,,,,,,,,,,,,,,,,,,,,,,,,,,,,,,,,,,,,,,,,,,,,,,,,,,,,,,,,,,,,,,,,,,,,,,,,,,,,,,,,,,,,,,,,,,,,,,,,,,,,,,,,,,,,,,,,,,,
,,,,,,61608282bfa4c871fdedef92,62c53995b36304f770c36670,2022-07-06_24h36.12.119,Colour_Asymmetry_Pilot,2022.1.3,Win32,60.0024001,62c50e9c1127f2cd403a315f,0,43,43,160,1,onetwo,,,,,,,,,,,,,,,,,,,,,,,,,,,,,,,,,,,,,,,,,,,,,,,,,,,,,,,,,,,,,,,,,,,,,,,,,,,,,,,,,,,,,,,,,,,,,,,,,,,,,,,,,,,,,,,,,,,,,,,,,,,,,,,,,,,,,,,,,,,,,,,,,,,,,,,,,,,,,
,,,,,,61608282bfa4c871fdedef92,62c53995b36304f770c36670,2022-07-06_24h36.12.119,Colour_Asymmetry_Pilot,2022.1.3,Win32,60.0024001,62c50e9c1127f2cd403a315f,0,44,44,21,1,threefour,,,,,,,,,,,,,,,,,,,,,,,,,,,,,,,,,,,,,,,,,,,,,,,,,,,,,,,,,,,,,,,,,,,,,,,,,,,,,,,,,,,,,,,,,,,,,,,,,,,,,,,,,,,,,,,,,,,,,,,,,,,,,,,,,,,,,,,,,,,,,,,,,,,,,,,,,,,,,
,,,,,,61608282bfa4c871fdedef92,62c53995b36304f770c36670,2022-07-06_24h36.12.119,Colour_Asymmetry_Pilot,2022.1.3,Win32,60.0024001,62c50e9c1127f2cd403a315f,0,45,45,13,1,threefour,,,,,,,,,,,,,,,,,,,,,,,,,,,,,,,,,,,,,,,,,,,,,,,,,,,,,,,,,,,,,,,,,,,,,,,,,,,,,,,,,,,,,,,,,,,,,,,,,,,,,,,,,,,,,,,,,,,,,,,,,,,,,,,,,,,,,,,,,,,,,,,,,,,,,,,,,,,,,
,,,,,,61608282bfa4c871fdedef92,62c53995b36304f770c36670,2022-07-06_24h36.12.119,Colour_Asymmetry_Pilot,2022.1.3,Win32,60.0024001,62c50e9c1127f2cd403a315f,0,46,46,9,1,onethree,,,,,,,,,,,,,,,,,,,,,,,,,,,,,,,,,,,,,,,,,,,,,,,,,,,,,,,,,,,,,,,,,,,,,,,,,,,,,,,,,,,,,,,,,,,,,,,,,,,,,,,,,,,,,,,,,,,,,,,,,,,,,,,,,,,,,,,,,,,,,,,,,,,,,,,,,,,,,
,,,,,,61608282bfa4c871fdedef92,62c53995b36304f770c36670,2022-07-06_24h36.12.119,Colour_Asymmetry_Pilot,2022.1.3,Win32,60.0024001,62c50e9c1127f2cd403a315f,0,47,47,11,1,twofour,,,,,,,,,,,,,,,,,,,,,,,,,,,,,,,,,,,,,,,,,,,,,,,,,,,,,,,,,,,,,,,,,,,,,,,,,,,,,,,,,,,,,,,,,,,,,,,,,,,,,,,,,,,,,,,,,,,,,,,,,,,,,,,,,,,,,,,,,,,,,,,,,,,,,,,,,,,,,
,,,,,,61608282bfa4c871fdedef92,62c53995b36304f770c36670,2022-07-06_24h36.12.119,Colour_Asymmetry_Pilot,2022.1.3,Win32,60.0024001,62c50e9c1127f2cd403a315f,0,48,48,135,1,fourthree,,,,,,,,,,,,,,,,,,,,,,,,,,,,,,,,,,,,,,,,,,,,,,,,,,,,,,,,,,,,,,,,,,,,,,,,,,,,,,,,,,,,,,,,,,,,,,,,,,,,,,,,,,,,,,,,,,,,,,,,,,,,,,,,,,,,,,,,,,,,,,,,,,,,,,,,,,,,,
,,,,,,61608282bfa4c871fdedef92,62c53995b36304f770c36670,2022-07-06_24h36.12.119,Colour_Asymmetry_Pilot,2022.1.3,Win32,60.0024001,62c50e9c1127f2cd403a315f,0,49,49,31,1,fourthree,,,,,,,,,,,,,,,,,,,,,,,,,,,,,,,,,,,,,,,,,,,,,,,,,,,,,,,,,,,,,,,,,,,,,,,,,,,,,,,,,,,,,,,,,,,,,,,,,,,,,,,,,,,,,,,,,,,,,,,,,,,,,,,,,,,,,,,,,,,,,,,,,,,,,,,,,,,,,
,,,,,,61608282bfa4c871fdedef92,62c53995b36304f770c36670,2022-07-06_24h36.12.119,Colour_Asymmetry_Pilot,2022.1.3,Win32,60.0024001,62c50e9c1127f2cd403a315f,0,50,50,67,1,twofour,,,,,,,,,,,,,,,,,,,,,,,,,,,,,,,,,,,,,,,,,,,,,,,,,,,,,,,,,,,,,,,,,,,,,,,,,,,,,,,,,,,,,,,,,,,,,,,,,,,,,,,,,,,,,,,,,,,,,,,,,,,,,,,,,,,,,,,,,,,,,,,,,,,,,,,,,,,,,
,,,,,,61608282bfa4c871fdedef92,62c53995b36304f770c36670,2022-07-06_24h36.12.119,Colour_Asymmetry_Pilot,2022.1.3,Win32,60.0024001,62c50e9c1127f2cd403a315f,0,51,51,19,1,twofour,,,,,,,,,,,,,,,,,,,,,,,,,,,,,,,,,,,,,,,,,,,,,,,,,,,,,,,,,,,,,,,,,,,,,,,,,,,,,,,,,,,,,,,,,,,,,,,,,,,,,,,,,,,,,,,,,,,,,,,,,,,,,,,,,,,,,,,,,,,,,,,,,,,,,,,,,,,,,
,,,,,,61608282bfa4c871fdedef92,62c53995b36304f770c36670,2022-07-06_24h36.12.119,Colour_Asymmetry_Pilot,2022.1.3,Win32,60.0024001,62c50e9c1127f2cd403a315f,0,52,52,128,1,onetwo,,,,,,,,,,,,,,,,,,,,,,,,,,,,,,,,,,,,,,,,,,,,,,,,,,,,,,,,,,,,,,,,,,,,,,,,,,,,,,,,,,,,,,,,,,,,,,,,,,,,,,,,,,,,,,,,,,,,,,,,,,,,,,,,,,,,,,,,,,,,,,,,,,,,,,,,,,,,,
,,,,,,61608282bfa4c871fdedef92,62c53995b36304f770c36670,2022-07-06_24h36.12.119,Colour_Asymmetry_Pilot,2022.1.3,Win32,60.0024001,62c50e9c1127f2cd403a315f,0,53,53,57,1,onethree,,,,,,,,,,,,,,,,,,,,,,,,,,,,,,,,,,,,,,,,,,,,,,,,,,,,,,,,,,,,,,,,,,,,,,,,,,,,,,,,,,,,,,,,,,,,,,,,,,,,,,,,,,,,,,,,,,,,,,,,,,,,,,,,,,,,,,,,,,,,,,,,,,,,,,,,,,,,,
,,,,,,61608282bfa4c871fdedef92,62c53995b36304f770c36670,2022-07-06_24h36.12.119,Colour_Asymmetry_Pilot,2022.1.3,Win32,60.0024001,62c50e9c1127f2cd403a315f,0,54,54,97,1,onethree,,,,,,,,,,,,,,,,,,,,,,,,,,,,,,,,,,,,,,,,,,,,,,,,,,,,,,,,,,,,,,,,,,,,,,,,,,,,,,,,,,,,,,,,,,,,,,,,,,,,,,,,,,,,,,,,,,,,,,,,,,,,,,,,,,,,,,,,,,,,,,,,,,,,,,,,,,,,,
,,,,,,61608282bfa4c871fdedef92,62c53995b36304f770c36670,2022-07-06_24h36.12.119,Colour_Asymmetry_Pilot,2022.1.3,Win32,60.0024001,62c50e9c1127f2cd403a315f,0,55,55,1,1,onethree,,,,,,,,,,,,,,,,,,,,,,,,,,,,,,,,,,,,,,,,,,,,,,,,,,,,,,,,,,,,,,,,,,,,,,,,,,,,,,,,,,,,,,,,,,,,,,,,,,,,,,,,,,,,,,,,,,,,,,,,,,,,,,,,,,,,,,,,,,,,,,,,,,,,,,,,,,,,,
,,,,,,61608282bfa4c871fdedef92,62c53995b36304f770c36670,2022-07-06_24h36.12.119,Colour_Asymmetry_Pilot,2022.1.3,Win32,60.0024001,62c50e9c1127f2cd403a315f,0,56,56,92,1,threeone,,,,,,,,,,,,,,,,,,,,,,,,,,,,,,,,,,,,,,,,,,,,,,,,,,,,,,,,,,,,,,,,,,,,,,,,,,,,,,,,,,,,,,,,,,,,,,,,,,,,,,,,,,,,,,,,,,,,,,,,,,,,,,,,,,,,,,,,,,,,,,,,,,,,,,,,,,,,,
,,,,,,61608282bfa4c871fdedef92,62c53995b36304f770c36670,2022-07-06_24h36.12.119,Colour_Asymmetry_Pilot,2022.1.3,Win32,60.0024001,62c50e9c1127f2cd403a315f,0,57,57,104,1,onetwo,,,,,,,,,,,,,,,,,,,,,,,,,,,,,,,,,,,,,,,,,,,,,,,,,,,,,,,,,,,,,,,,,,,,,,,,,,,,,,,,,,,,,,,,,,,,,,,,,,,,,,,,,,,,,,,,,,,,,,,,,,,,,,,,,,,,,,,,,,,,,,,,,,,,,,,,,,,,,
,,,,,,61608282bfa4c871fdedef92,62c53995b36304f770c36670,2022-07-06_24h36.12.119,Colour_Asymmetry_Pilot,2022.1.3,Win32,60.0024001,62c50e9c1127f2cd403a315f,0,58,58,90,1,twoone,,,,,,,,,,,,,,,,,,,,,,,,,,,,,,,,,,,,,,,,,,,,,,,,,,,,,,,,,,,,,,,,,,,,,,,,,,,,,,,,,,,,,,,,,,,,,,,,,,,,,,,,,,,,,,,,,,,,,,,,,,,,,,,,,,,,,,,,,,,,,,,,,,,,,,,,,,,,,
,,,,,,61608282bfa4c871fdedef92,62c53995b36304f770c36670,2022-07-06_24h36.12.119,Colour_Asymmetry_Pilot,2022.1.3,Win32,60.0024001,62c50e9c1127f2cd403a315f,0,59,59,105,1,onethree,,,,,,,,,,,,,,,,,,,,,,,,,,,,,,,,,,,,,,,,,,,,,,,,,,,,,,,,,,,,,,,,,,,,,,,,,,,,,,,,,,,,,,,,,,,,,,,,,,,,,,,,,,,,,,,,,,,,,,,,,,,,,,,,,,,,,,,,,,,,,,,,,,,,,,,,,,,,,
,,,,,,61608282bfa4c871fdedef92,62c53995b36304f770c36670,2022-07-06_24h36.12.119,Colour_Asymmetry_Pilot,2022.1.3,Win32,60.0024001,62c50e9c1127f2cd403a315f,0,60,60,161,1,onethree,,,,,,,,,,,,,,,,,,,,,,,,,,,,,,,,,,,,,,,,,,,,,,,,,,,,,,,,,,,,,,,,,,,,,,,,,,,,,,,,,,,,,,,,,,,,,,,,,,,,,,,,,,,,,,,,,,,,,,,,,,,,,,,,,,,,,,,,,,,,,,,,,,,,,,,,,,,,,
,,,,,,61608282bfa4c871fdedef92,62c53995b36304f770c36670,2022-07-06_24h36.12.119,Colour_Asymmetry_Pilot,2022.1.3,Win32,60.0024001,62c50e9c1127f2cd403a315f,0,61,61,69,1,threefour,,,,,,,,,,,,,,,,,,,,,,,,,,,,,,,,,,,,,,,,,,,,,,,,,,,,,,,,,,,,,,,,,,,,,,,,,,,,,,,,,,,,,,,,,,,,,,,,,,,,,,,,,,,,,,,,,,,,,,,,,,,,,,,,,,,,,,,,,,,,,,,,,,,,,,,,,,,,,
,,,,,,61608282bfa4c871fdedef92,62c53995b36304f770c36670,2022-07-06_24h36.12.119,Colour_Asymmetry_Pilot,2022.1.3,Win32,60.0024001,62c50e9c1127f2cd403a315f,0,62,62,28,1,threeone,,,,,,,,,,,,,,,,,,,,,,,,,,,,,,,,,,,,,,,,,,,,,,,,,,,,,,,,,,,,,,,,,,,,,,,,,,,,,,,,,,,,,,,,,,,,,,,,,,,,,,,,,,,,,,,,,,,,,,,,,,,,,,,,,,,,,,,,,,,,,,,,,,,,,,,,,,,,,
,,,,,,61608282bfa4c871fdedef92,62c53995b36304f770c36670,2022-07-06_24h36.12.119,Colour_Asymmetry_Pilot,2022.1.3,Win32,60.0024001,62c50e9c1127f2cd403a315f,0,63,63,58,1,twoone,,,,,,,,,,,,,,,,,,,,,,,,,,,,,,,,,,,,,,,,,,,,,,,,,,,,,,,,,,,,,,,,,,,,,,,,,,,,,,,,,,,,,,,,,,,,,,,,,,,,,,,,,,,,,,,,,,,,,,,,,,,,,,,,,,,,,,,,,,,,,,,,,,,,,,,,,,,,,
,,,,,,61608282bfa4c871fdedef92,62c53995b36304f770c36670,2022-07-06_24h36.12.119,Colour_Asymmetry_Pilot,2022.1.3,Win32,60.0024001,62c50e9c1127f2cd403a315f,0,64,64,132,1,threeone,,,,,,,,,,,,,,,,,,,,,,,,,,,,,,,,,,,,,,,,,,,,,,,,,,,,,,,,,,,,,,,,,,,,,,,,,,,,,,,,,,,,,,,,,,,,,,,,,,,,,,,,,,,,,,,,,,,,,,,,,,,,,,,,,,,,,,,,,,,,,,,,,,,,,,,,,,,,,
,,,,,,61608282bfa4c871fdedef92,62c53995b36304f770c36670,2022-07-06_24h36.12.119,Colour_Asymmetry_Pilot,2022.1.3,Win32,60.0024001,62c50e9c1127f2cd403a315f,0,65,65,47,1,fourthree,,,,,,,,,,,,,,,,,,,,,,,,,,,,,,,,,,,,,,,,,,,,,,,,,,,,,,,,,,,,,,,,,,,,,,,,,,,,,,,,,,,,,,,,,,,,,,,,,,,,,,,,,,,,,,,,,,,,,,,,,,,,,,,,,,,,,,,,,,,,,,,,,,,,,,,,,,,,,
,,,,,,61608282bfa4c871fdedef92,62c53995b36304f770c36670,2022-07-06_24h36.12.119,Colour_Asymmetry_Pilot,2022.1.3,Win32,60.0024001,62c50e9c1127f2cd403a315f,0,66,66,109,1,threefour,,,,,,,,,,,,,,,,,,,,,,,,,,,,,,,,,,,,,,,,,,,,,,,,,,,,,,,,,,,,,,,,,,,,,,,,,,,,,,,,,,,,,,,,,,,,,,,,,,,,,,,,,,,,,,,,,,,,,,,,,,,,,,,,,,,,,,,,,,,,,,,,,,,,,,,,,,,,,
,,,,,,61608282bfa4c871fdedef92,62c53995b36304f770c36670,2022-07-06_24h36.12.119,Colour_Asymmetry_Pilot,2022.1.3,Win32,60.0024001,62c50e9c1127f2cd403a315f,0,67,67,6,1,fourtwo,,,,,,,,,,,,,,,,,,,,,,,,,,,,,,,,,,,,,,,,,,,,,,,,,,,,,,,,,,,,,,,,,,,,,,,,,,,,,,,,,,,,,,,,,,,,,,,,,,,,,,,,,,,,,,,,,,,,,,,,,,,,,,,,,,,,,,,,,,,,,,,,,,,,,,,,,,,,,
,,,,,,61608282bfa4c871fdedef92,62c53995b36304f770c36670,2022-07-06_24h36.12.119,Colour_Asymmetry_Pilot,2022.1.3,Win32,60.0024001,62c50e9c1127f2cd403a315f,0,68,68,145,1,onethree,,,,,,,,,,,,,,,,,,,,,,,,,,,,,,,,,,,,,,,,,,,,,,,,,,,,,,,,,,,,,,,,,,,,,,,,,,,,,,,,,,,,,,,,,,,,,,,,,,,,,,,,,,,,,,,,,,,,,,,,,,,,,,,,,,,,,,,,,,,,,,,,,,,,,,,,,,,,,
,,,,,,61608282bfa4c871fdedef92,62c53995b36304f770c36670,2022-07-06_24h36.12.119,Colour_Asymmetry_Pilot,2022.1.3,Win32,60.0024001,62c50e9c1127f2cd403a315f,0,69,69,103,1,fourthree,,,,,,,,,,,,,,,,,,,,,,,,,,,,,,,,,,,,,,,,,,,,,,,,,,,,,,,,,,,,,,,,,,,,,,,,,,,,,,,,,,,,,,,,,,,,,,,,,,,,,,,,,,,,,,,,,,,,,,,,,,,,,,,,,,,,,,,,,,,,,,,,,,,,,,,,,,,,,
,,,,,,61608282bfa4c871fdedef92,62c53995b36304f770c36670,2022-07-06_24h36.12.119,Colour_Asymmetry_Pilot,2022.1.3,Win32,60.0024001,62c50e9c1127f2cd403a315f,0,70,70,149,1,threefour,,,,,,,,,,,,,,,,,,,,,,,,,,,,,,,,,,,,,,,,,,,,,,,,,,,,,,,,,,,,,,,,,,,,,,,,,,,,,,,,,,,,,,,,,,,,,,,,,,,,,,,,,,,,,,,,,,,,,,,,,,,,,,,,,,,,,,,,,,,,,,,,,,,,,,,,,,,,,
,,,,,,61608282bfa4c871fdedef92,62c53995b36304f770c36670,2022-07-06_24h36.12.119,Colour_Asymmetry_Pilot,2022.1.3,Win32,60.0024001,62c50e9c1127f2cd403a315f,0,71,71,101,1,threefour,,,,,,,,,,,,,,,,,,,,,,,,,,,,,,,,,,,,,,,,,,,,,,,,,,,,,,,,,,,,,,,,,,,,,,,,,,,,,,,,,,,,,,,,,,,,,,,,,,,,,,,,,,,,,,,,,,,,,,,,,,,,,,,,,,,,,,,,,,,,,,,,,,,,,,,,,,,,,
,,,,,,61608282bfa4c871fdedef92,62c53995b36304f770c36670,2022-07-06_24h36.12.119,Colour_Asymmetry_Pilot,2022.1.3,Win32,60.0024001,62c50e9c1127f2cd403a315f,0,72,72,85,1,threefour,,,,,,,,,,,,,,,,,,,,,,,,,,,,,,,,,,,,,,,,,,,,,,,,,,,,,,,,,,,,,,,,,,,,,,,,,,,,,,,,,,,,,,,,,,,,,,,,,,,,,,,,,,,,,,,,,,,,,,,,,,,,,,,,,,,,,,,,,,,,,,,,,,,,,,,,,,,,,
,,,,,,61608282bfa4c871fdedef92,62c53995b36304f770c36670,2022-07-06_24h36.12.119,Colour_Asymmetry_Pilot,2022.1.3,Win32,60.0024001,62c50e9c1127f2cd403a315f,0,73,73,59,1,twofour,,,,,,,,,,,,,,,,,,,,,,,,,,,,,,,,,,,,,,,,,,,,,,,,,,,,,,,,,,,,,,,,,,,,,,,,,,,,,,,,,,,,,,,,,,,,,,,,,,,,,,,,,,,,,,,,,,,,,,,,,,,,,,,,,,,,,,,,,,,,,,,,,,,,,,,,,,,,,
,,,,,,61608282bfa4c871fdedef92,62c53995b36304f770c36670,2022-07-06_24h36.12.119,Colour_Asymmetry_Pilot,2022.1.3,Win32,60.0024001,62c50e9c1127f2cd403a315f,0,74,74,124,1,threeone,,,,,,,,,,,,,,,,,,,,,,,,,,,,,,,,,,,,,,,,,,,,,,,,,,,,,,,,,,,,,,,,,,,,,,,,,,,,,,,,,,,,,,,,,,,,,,,,,,,,,,,,,,,,,,,,,,,,,,,,,,,,,,,,,,,,,,,,,,,,,,,,,,,,,,,,,,,,,
,,,,,,61608282bfa4c871fdedef92,62c53995b36304f770c36670,2022-07-06_24h36.12.119,Colour_Asymmetry_Pilot,2022.1.3,Win32,60.0024001,62c50e9c1127f2cd403a315f,0,75,75,129,1,onethree,,,,,,,,,,,,,,,,,,,,,,,,,,,,,,,,,,,,,,,,,,,,,,,,,,,,,,,,,,,,,,,,,,,,,,,,,,,,,,,,,,,,,,,,,,,,,,,,,,,,,,,,,,,,,,,,,,,,,,,,,,,,,,,,,,,,,,,,,,,,,,,,,,,,,,,,,,,,,
,,,,,,61608282bfa4c871fdedef92,62c53995b36304f770c36670,2022-07-06_24h36.12.119,Colour_Asymmetry_Pilot,2022.1.3,Win32,60.0024001,62c50e9c1127f2cd403a315f,0,76,76,16,1,onetwo,,,,,,,,,,,,,,,,,,,,,,,,,,,,,,,,,,,,,,,,,,,,,,,,,,,,,,,,,,,,,,,,,,,,,,,,,,,,,,,,,,,,,,,,,,,,,,,,,,,,,,,,,,,,,,,,,,,,,,,,,,,,,,,,,,,,,,,,,,,,,,,,,,,,,,,,,,,,,
,,,,,,61608282bfa4c871fdedef92,62c53995b36304f770c36670,2022-07-06_24h36.12.119,Colour_Asymmetry_Pilot,2022.1.3,Win32,60.0024001,62c50e9c1127f2cd403a315f,0,77,77,62,1,fourtwo,,,,,,,,,,,,,,,,,,,,,,,,,,,,,,,,,,,,,,,,,,,,,,,,,,,,,,,,,,,,,,,,,,,,,,,,,,,,,,,,,,,,,,,,,,,,,,,,,,,,,,,,,,,,,,,,,,,,,,,,,,,,,,,,,,,,,,,,,,,,,,,,,,,,,,,,,,,,,
,,,,,,61608282bfa4c871fdedef92,62c53995b36304f770c36670,2022-07-06_24h36.12.119,Colour_Asymmetry_Pilot,2022.1.3,Win32,60.0024001,62c50e9c1127f2cd403a315f,0,78,78,46,1,fourtwo,,,,,,,,,,,,,,,,,,,,,,,,,,,,,,,,,,,,,,,,,,,,,,,,,,,,,,,,,,,,,,,,,,,,,,,,,,,,,,,,,,,,,,,,,,,,,,,,,,,,,,,,,,,,,,,,,,,,,,,,,,,,,,,,,,,,,,,,,,,,,,,,,,,,,,,,,,,,,
,,,,,,61608282bfa4c871fdedef92,62c53995b36304f770c36670,2022-07-06_24h36.12.119,Colour_Asymmetry_Pilot,2022.1.3,Win32,60.0024001,62c50e9c1127f2cd403a315f,0,79,79,141,1,threefour,,,,,,,,,,,,,,,,,,,,,,,,,,,,,,,,,,,,,,,,,,,,,,,,,,,,,,,,,,,,,,,,,,,,,,,,,,,,,,,,,,,,,,,,,,,,,,,,,,,,,,,,,,,,,,,,,,,,,,,,,,,,,,,,,,,,,,,,,,,,,,,,,,,,,,,,,,,,,
,,,,,,61608282bfa4c871fdedef92,62c53995b36304f770c36670,2022-07-06_24h36.12.119,Colour_Asymmetry_Pilot,2022.1.3,Win32,60.0024001,62c50e9c1127f2cd403a315f,0,80,80,65,1,onethree,,,,,,,,,,,,,,,,,,,,,,,,,,,,,,,,,,,,,,,,,,,,,,,,,,,,,,,,,,,,,,,,,,,,,,,,,,,,,,,,,,,,,,,,,,,,,,,,,,,,,,,,,,,,,,,,,,,,,,,,,,,,,,,,,,,,,,,,,,,,,,,,,,,,,,,,,,,,,
,,,,,,61608282bfa4c871fdedef92,62c53995b36304f770c36670,2022-07-06_24h36.12.119,Colour_Asymmetry_Pilot,2022.1.3,Win32,60.0024001,62c50e9c1127f2cd403a315f,0,81,81,115,1,twofour,,,,,,,,,,,,,,,,,,,,,,,,,,,,,,,,,,,,,,,,,,,,,,,,,,,,,,,,,,,,,,,,,,,,,,,,,,,,,,,,,,,,,,,,,,,,,,,,,,,,,,,,,,,,,,,,,,,,,,,,,,,,,,,,,,,,,,,,,,,,,,,,,,,,,,,,,,,,,
,,,,,,61608282bfa4c871fdedef92,62c53995b36304f770c36670,2022-07-06_24h36.12.119,Colour_Asymmetry_Pilot,2022.1.3,Win32,60.0024001,62c50e9c1127f2cd403a315f,0,82,82,98,1,twoone,,,,,,,,,,,,,,,,,,,,,,,,,,,,,,,,,,,,,,,,,,,,,,,,,,,,,,,,,,,,,,,,,,,,,,,,,,,,,,,,,,,,,,,,,,,,,,,,,,,,,,,,,,,,,,,,,,,,,,,,,,,,,,,,,,,,,,,,,,,,,,,,,,,,,,,,,,,,,
,,,,,,61608282bfa4c871fdedef92,62c53995b36304f770c36670,2022-07-06_24h36.12.119,Colour_Asymmetry_Pilot,2022.1.3,Win32,60.0024001,62c50e9c1127f2cd403a315f,0,83,83,140,1,threeone,,,,,,,,,,,,,,,,,,,,,,,,,,,,,,,,,,,,,,,,,,,,,,,,,,,,,,,,,,,,,,,,,,,,,,,,,,,,,,,,,,,,,,,,,,,,,,,,,,,,,,,,,,,,,,,,,,,,,,,,,,,,,,,,,,,,,,,,,,,,,,,,,,,,,,,,,,,,,
,,,,,,61608282bfa4c871fdedef92,62c53995b36304f770c36670,2022-07-06_24h36.12.119,Colour_Asymmetry_Pilot,2022.1.3,Win32,60.0024001,62c50e9c1127f2cd403a315f,0,84,84,78,1,fourtwo,,,,,,,,,,,,,,,,,,,,,,,,,,,,,,,,,,,,,,,,,,,,,,,,,,,,,,,,,,,,,,,,,,,,,,,,,,,,,,,,,,,,,,,,,,,,,,,,,,,,,,,,,,,,,,,,,,,,,,,,,,,,,,,,,,,,,,,,,,,,,,,,,,,,,,,,,,,,,
,,,,,,61608282bfa4c871fdedef92,62c53995b36304f770c36670,2022-07-06_24h36.12.119,Colour_Asymmetry_Pilot,2022.1.3,Win32,60.0024001,62c50e9c1127f2cd403a315f,0,85,85,27,1,twofour,,,,,,,,,,,,,,,,,,,,,,,,,,,,,,,,,,,,,,,,,,,,,,,,,,,,,,,,,,,,,,,,,,,,,,,,,,,,,,,,,,,,,,,,,,,,,,,,,,,,,,,,,,,,,,,,,,,,,,,,,,,,,,,,,,,,,,,,,,,,,,,,,,,,,,,,,,,,,
,,,,,,61608282bfa4c871fdedef92,62c53995b36304f770c36670,2022-07-06_24h36.12.119,Colour_Asymmetry_Pilot,2022.1.3,Win32,60.0024001,62c50e9c1127f2cd403a315f,0,86,86,50,1,twoone,,,,,,,,,,,,,,,,,,,,,,,,,,,,,,,,,,,,,,,,,,,,,,,,,,,,,,,,,,,,,,,,,,,,,,,,,,,,,,,,,,,,,,,,,,,,,,,,,,,,,,,,,,,,,,,,,,,,,,,,,,,,,,,,,,,,,,,,,,,,,,,,,,,,,,,,,,,,,
,,,,,,61608282bfa4c871fdedef92,62c53995b36304f770c36670,2022-07-06_24h36.12.119,Colour_Asymmetry_Pilot,2022.1.3,Win32,60.0024001,62c50e9c1127f2cd403a315f,0,87,87,32,1,onetwo,,,,,,,,,,,,,,,,,,,,,,,,,,,,,,,,,,,,,,,,,,,,,,,,,,,,,,,,,,,,,,,,,,,,,,,,,,,,,,,,,,,,,,,,,,,,,,,,,,,,,,,,,,,,,,,,,,,,,,,,,,,,,,,,,,,,,,,,,,,,,,,,,,,,,,,,,,,,,
,,,,,,61608282bfa4c871fdedef92,62c53995b36304f770c36670,2022-07-06_24h36.12.119,Colour_Asymmetry_Pilot,2022.1.3,Win32,60.0024001,62c50e9c1127f2cd403a315f,0,88,88,45,1,threefour,,,,,,,,,,,,,,,,,,,,,,,,,,,,,,,,,,,,,,,,,,,,,,,,,,,,,,,,,,,,,,,,,,,,,,,,,,,,,,,,,,,,,,,,,,,,,,,,,,,,,,,,,,,,,,,,,,,,,,,,,,,,,,,,,,,,,,,,,,,,,,,,,,,,,,,,,,,,,
,,,,,,61608282bfa4c871fdedef92,62c53995b36304f770c36670,2022-07-06_24h36.12.119,Colour_Asymmetry_Pilot,2022.1.3,Win32,60.0024001,62c50e9c1127f2cd403a315f,0,89,89,102,1,fourtwo,,,,,,,,,,,,,,,,,,,,,,,,,,,,,,,,,,,,,,,,,,,,,,,,,,,,,,,,,,,,,,,,,,,,,,,,,,,,,,,,,,,,,,,,,,,,,,,,,,,,,,,,,,,,,,,,,,,,,,,,,,,,,,,,,,,,,,,,,,,,,,,,,,,,,,,,,,,,,
,,,,,,61608282bfa4c871fdedef92,62c53995b36304f770c36670,2022-07-06_24h36.12.119,Colour_Asymmetry_Pilot,2022.1.3,Win32,60.0024001,62c50e9c1127f2cd403a315f,0,90,90,56,1,onetwo,,,,,,,,,,,,,,,,,,,,,,,,,,,,,,,,,,,,,,,,,,,,,,,,,,,,,,,,,,,,,,,,,,,,,,,,,,,,,,,,,,,,,,,,,,,,,,,,,,,,,,,,,,,,,,,,,,,,,,,,,,,,,,,,,,,,,,,,,,,,,,,,,,,,,,,,,,,,,
,,,,,,61608282bfa4c871fdedef92,62c53995b36304f770c36670,2022-07-06_24h36.12.119,Colour_Asymmetry_Pilot,2022.1.3,Win32,60.0024001,62c50e9c1127f2cd403a315f,0,91,91,118,1,fourtwo,,,,,,,,,,,,,,,,,,,,,,,,,,,,,,,,,,,,,,,,,,,,,,,,,,,,,,,,,,,,,,,,,,,,,,,,,,,,,,,,,,,,,,,,,,,,,,,,,,,,,,,,,,,,,,,,,,,,,,,,,,,,,,,,,,,,,,,,,,,,,,,,,,,,,,,,,,,,,
,,,,,,61608282bfa4c871fdedef92,62c53995b36304f770c36670,2022-07-06_24h36.12.119,Colour_Asymmetry_Pilot,2022.1.3,Win32,60.0024001,62c50e9c1127f2cd403a315f,0,92,92,156,1,threeone,,,,,,,,,,,,,,,,,,,,,,,,,,,,,,,,,,,,,,,,,,,,,,,,,,,,,,,,,,,,,,,,,,,,,,,,,,,,,,,,,,,,,,,,,,,,,,,,,,,,,,,,,,,,,,,,,,,,,,,,,,,,,,,,,,,,,,,,,,,,,,,,,,,,,,,,,,,,,
,,,,,,61608282bfa4c871fdedef92,62c53995b36304f770c36670,2022-07-06_24h36.12.119,Colour_Asymmetry_Pilot,2022.1.3,Win32,60.0024001,62c50e9c1127f2cd403a315f,0,93,93,76,1,threeone,,,,,,,,,,,,,,,,,,,,,,,,,,,,,,,,,,,,,,,,,,,,,,,,,,,,,,,,,,,,,,,,,,,,,,,,,,,,,,,,,,,,,,,,,,,,,,,,,,,,,,,,,,,,,,,,,,,,,,,,,,,,,,,,,,,,,,,,,,,,,,,,,,,,,,,,,,,,,
,,,,,,61608282bfa4c871fdedef92,62c53995b36304f770c36670,2022-07-06_24h36.12.119,Colour_Asymmetry_Pilot,2022.1.3,Win32,60.0024001,62c50e9c1127f2cd403a315f,0,94,94,130,1,twoone,,,,,,,,,,,,,,,,,,,,,,,,,,,,,,,,,,,,,,,,,,,,,,,,,,,,,,,,,,,,,,,,,,,,,,,,,,,,,,,,,,,,,,,,,,,,,,,,,,,,,,,,,,,,,,,,,,,,,,,,,,,,,,,,,,,,,,,,,,,,,,,,,,,,,,,,,,,,,
,,,,,,61608282bfa4c871fdedef92,62c53995b36304f770c36670,2022-07-06_24h36.12.119,Colour_Asymmetry_Pilot,2022.1.3,Win32,60.0024001,62c50e9c1127f2cd403a315f,0,95,95,113,1,onethree,,,,,,,,,,,,,,,,,,,,,,,,,,,,,,,,,,,,,,,,,,,,,,,,,,,,,,,,,,,,,,,,,,,,,,,,,,,,,,,,,,,,,,,,,,,,,,,,,,,,,,,,,,,,,,,,,,,,,,,,,,,,,,,,,,,,,,,,,,,,,,,,,,,,,,,,,,,,,
,,,,,,61608282bfa4c871fdedef92,62c53995b36304f770c36670,2022-07-06_24h36.12.119,Colour_Asymmetry_Pilot,2022.1.3,Win32,60.0024001,62c50e9c1127f2cd403a315f,0,96,96,119,1,fourthree,,,,,,,,,,,,,,,,,,,,,,,,,,,,,,,,,,,,,,,,,,,,,,,,,,,,,,,,,,,,,,,,,,,,,,,,,,,,,,,,,,,,,,,,,,,,,,,,,,,,,,,,,,,,,,,,,,,,,,,,,,,,,,,,,,,,,,,,,,,,,,,,,,,,,,,,,,,,,
,,,,,,61608282bfa4c871fdedef92,62c53995b36304f770c36670,2022-07-06_24h36.12.119,Colour_Asymmetry_Pilot,2022.1.3,Win32,60.0024001,62c50e9c1127f2cd403a315f,0,97,97,38,1,fourtwo,,,,,,,,,,,,,,,,,,,,,,,,,,,,,,,,,,,,,,,,,,,,,,,,,,,,,,,,,,,,,,,,,,,,,,,,,,,,,,,,,,,,,,,,,,,,,,,,,,,,,,,,,,,,,,,,,,,,,,,,,,,,,,,,,,,,,,,,,,,,,,,,,,,,,,,,,,,,,
,,,,,,61608282bfa4c871fdedef92,62c53995b36304f770c36670,2022-07-06_24h36.12.119,Colour_Asymmetry_Pilot,2022.1.3,Win32,60.0024001,62c50e9c1127f2cd403a315f,0,98,98,52,1,threeone,,,,,,,,,,,,,,,,,,,,,,,,,,,,,,,,,,,,,,,,,,,,,,,,,,,,,,,,,,,,,,,,,,,,,,,,,,,,,,,,,,,,,,,,,,,,,,,,,,,,,,,,,,,,,,,,,,,,,,,,,,,,,,,,,,,,,,,,,,,,,,,,,,,,,,,,,,,,,
,,,,,,61608282bfa4c871fdedef92,62c53995b36304f770c36670,2022-07-06_24h36.12.119,Colour_Asymmetry_Pilot,2022.1.3,Win32,60.0024001,62c50e9c1127f2cd403a315f,0,99,99,7,1,fourthree,,,,,,,,,,,,,,,,,,,,,,,,,,,,,,,,,,,,,,,,,,,,,,,,,,,,,,,,,,,,,,,,,,,,,,,,,,,,,,,,,,,,,,,,,,,,,,,,,,,,,,,,,,,,,,,,,,,,,,,,,,,,,,,,,,,,,,,,,,,,,,,,,,,,,,,,,,,,,
,,,,,,61608282bfa4c871fdedef92,62c53995b36304f770c36670,2022-07-06_24h36.12.119,Colour_Asymmetry_Pilot,2022.1.3,Win32,60.0024001,62c50e9c1127f2cd403a315f,0,100,100,17,1,onethree,,,,,,,,,,,,,,,,,,,,,,,,,,,,,,,,,,,,,,,,,,,,,,,,,,,,,,,,,,,,,,,,,,,,,,,,,,,,,,,,,,,,,,,,,,,,,,,,,,,,,,,,,,,,,,,,,,,,,,,,,,,,,,,,,,,,,,,,,,,,,,,,,,,,,,,,,,,,,
,,,,,,61608282bfa4c871fdedef92,62c53995b36304f770c36670,2022-07-06_24h36.12.119,Colour_Asymmetry_Pilot,2022.1.3,Win32,60.0024001,62c50e9c1127f2cd403a315f,0,101,101,2,1,twoone,,,,,,,,,,,,,,,,,,,,,,,,,,,,,,,,,,,,,,,,,,,,,,,,,,,,,,,,,,,,,,,,,,,,,,,,,,,,,,,,,,,,,,,,,,,,,,,,,,,,,,,,,,,,,,,,,,,,,,,,,,,,,,,,,,,,,,,,,,,,,,,,,,,,,,,,,,,,,
,,,,,,61608282bfa4c871fdedef92,62c53995b36304f770c36670,2022-07-06_24h36.12.119,Colour_Asymmetry_Pilot,2022.1.3,Win32,60.0024001,62c50e9c1127f2cd403a315f,0,102,102,142,1,fourtwo,,,,,,,,,,,,,,,,,,,,,,,,,,,,,,,,,,,,,,,,,,,,,,,,,,,,,,,,,,,,,,,,,,,,,,,,,,,,,,,,,,,,,,,,,,,,,,,,,,,,,,,,,,,,,,,,,,,,,,,,,,,,,,,,,,,,,,,,,,,,,,,,,,,,,,,,,,,,,
,,,,,,61608282bfa4c871fdedef92,62c53995b36304f770c36670,2022-07-06_24h36.12.119,Colour_Asymmetry_Pilot,2022.1.3,Win32,60.0024001,62c50e9c1127f2cd403a315f,0,103,103,155,1,twofour,,,,,,,,,,,,,,,,,,,,,,,,,,,,,,,,,,,,,,,,,,,,,,,,,,,,,,,,,,,,,,,,,,,,,,,,,,,,,,,,,,,,,,,,,,,,,,,,,,,,,,,,,,,,,,,,,,,,,,,,,,,,,,,,,,,,,,,,,,,,,,,,,,,,,,,,,,,,,
,,,,,,61608282bfa4c871fdedef92,62c53995b36304f770c36670,2022-07-06_24h36.12.119,Colour_Asymmetry_Pilot,2022.1.3,Win32,60.0024001,62c50e9c1127f2cd403a315f,0,104,104,80,1,onetwo,,,,,,,,,,,,,,,,,,,,,,,,,,,,,,,,,,,,,,,,,,,,,,,,,,,,,,,,,,,,,,,,,,,,,,,,,,,,,,,,,,,,,,,,,,,,,,,,,,,,,,,,,,,,,,,,,,,,,,,,,,,,,,,,,,,,,,,,,,,,,,,,,,,,,,,,,,,,,
,,,,,,61608282bfa4c871fdedef92,62c53995b36304f770c36670,2022-07-06_24h36.12.119,Colour_Asymmetry_Pilot,2022.1.3,Win32,60.0024001,62c50e9c1127f2cd403a315f,0,105,105,122,1,twoone,,,,,,,,,,,,,,,,,,,,,,,,,,,,,,,,,,,,,,,,,,,,,,,,,,,,,,,,,,,,,,,,,,,,,,,,,,,,,,,,,,,,,,,,,,,,,,,,,,,,,,,,,,,,,,,,,,,,,,,,,,,,,,,,,,,,,,,,,,,,,,,,,,,,,,,,,,,,,
,,,,,,61608282bfa4c871fdedef92,62c53995b36304f770c36670,2022-07-06_24h36.12.119,Colour_Asymmetry_Pilot,2022.1.3,Win32,60.0024001,62c50e9c1127f2cd403a315f,0,106,106,136,1,onetwo,,,,,,,,,,,,,,,,,,,,,,,,,,,,,,,,,,,,,,,,,,,,,,,,,,,,,,,,,,,,,,,,,,,,,,,,,,,,,,,,,,,,,,,,,,,,,,,,,,,,,,,,,,,,,,,,,,,,,,,,,,,,,,,,,,,,,,,,,,,,,,,,,,,,,,,,,,,,,
,,,,,,61608282bfa4c871fdedef92,62c53995b36304f770c36670,2022-07-06_24h36.12.119,Colour_Asymmetry_Pilot,2022.1.3,Win32,60.0024001,62c50e9c1127f2cd403a315f,0,107,107,150,1,fourtwo,,,,,,,,,,,,,,,,,,,,,,,,,,,,,,,,,,,,,,,,,,,,,,,,,,,,,,,,,,,,,,,,,,,,,,,,,,,,,,,,,,,,,,,,,,,,,,,,,,,,,,,,,,,,,,,,,,,,,,,,,,,,,,,,,,,,,,,,,,,,,,,,,,,,,,,,,,,,,
,,,,,,61608282bfa4c871fdedef92,62c53995b36304f770c36670,2022-07-06_24h36.12.119,Colour_Asymmetry_Pilot,2022.1.3,Win32,60.0024001,62c50e9c1127f2cd403a315f,0,108,108,34,1,twoone,,,,,,,,,,,,,,,,,,,,,,,,,,,,,,,,,,,,,,,,,,,,,,,,,,,,,,,,,,,,,,,,,,,,,,,,,,,,,,,,,,,,,,,,,,,,,,,,,,,,,,,,,,,,,,,,,,,,,,,,,,,,,,,,,,,,,,,,,,,,,,,,,,,,,,,,,,,,,
,,,,,,61608282bfa4c871fdedef92,62c53995b36304f770c36670,2022-07-06_24h36.12.119,Colour_Asymmetry_Pilot,2022.1.3,Win32,60.0024001,62c50e9c1127f2cd403a315f,0,109,109,117,1,threefour,,,,,,,,,,,,,,,,,,,,,,,,,,,,,,,,,,,,,,,,,,,,,,,,,,,,,,,,,,,,,,,,,,,,,,,,,,,,,,,,,,,,,,,,,,,,,,,,,,,,,,,,,,,,,,,,,,,,,,,,,,,,,,,,,,,,,,,,,,,,,,,,,,,,,,,,,,,,,
,,,,,,61608282bfa4c871fdedef92,62c53995b36304f770c36670,2022-07-06_24h36.12.119,Colour_Asymmetry_Pilot,2022.1.3,Win32,60.0024001,62c50e9c1127f2cd403a315f,0,110,110,12,1,threeone,,,,,,,,,,,,,,,,,,,,,,,,,,,,,,,,,,,,,,,,,,,,,,,,,,,,,,,,,,,,,,,,,,,,,,,,,,,,,,,,,,,,,,,,,,,,,,,,,,,,,,,,,,,,,,,,,,,,,,,,,,,,,,,,,,,,,,,,,,,,,,,,,,,,,,,,,,,,,
,,,,,,61608282bfa4c871fdedef92,62c53995b36304f770c36670,2022-07-06_24h36.12.119,Colour_Asymmetry_Pilot,2022.1.3,Win32,60.0024001,62c50e9c1127f2cd403a315f,0,111,111,138,1,twoone,,,,,,,,,,,,,,,,,,,,,,,,,,,,,,,,,,,,,,,,,,,,,,,,,,,,,,,,,,,,,,,,,,,,,,,,,,,,,,,,,,,,,,,,,,,,,,,,,,,,,,,,,,,,,,,,,,,,,,,,,,,,,,,,,,,,,,,,,,,,,,,,,,,,,,,,,,,,,
,,,,,,61608282bfa4c871fdedef92,62c53995b36304f770c36670,2022-07-06_24h36.12.119,Colour_Asymmetry_Pilot,2022.1.3,Win32,60.0024001,62c50e9c1127f2cd403a315f,0,112,112,126,1,fourtwo,,,,,,,,,,,,,,,,,,,,,,,,,,,,,,,,,,,,,,,,,,,,,,,,,,,,,,,,,,,,,,,,,,,,,,,,,,,,,,,,,,,,,,,,,,,,,,,,,,,,,,,,,,,,,,,,,,,,,,,,,,,,,,,,,,,,,,,,,,,,,,,,,,,,,,,,,,,,,
,,,,,,61608282bfa4c871fdedef92,62c53995b36304f770c36670,2022-07-06_24h36.12.119,Colour_Asymmetry_Pilot,2022.1.3,Win32,60.0024001,62c50e9c1127f2cd403a315f,0,113,113,89,1,onethree,,,,,,,,,,,,,,,,,,,,,,,,,,,,,,,,,,,,,,,,,,,,,,,,,,,,,,,,,,,,,,,,,,,,,,,,,,,,,,,,,,,,,,,,,,,,,,,,,,,,,,,,,,,,,,,,,,,,,,,,,,,,,,,,,,,,,,,,,,,,,,,,,,,,,,,,,,,,,
,,,,,,61608282bfa4c871fdedef92,62c53995b36304f770c36670,2022-07-06_24h36.12.119,Colour_Asymmetry_Pilot,2022.1.3,Win32,60.0024001,62c50e9c1127f2cd403a315f,0,114,114,146,1,twoone,,,,,,,,,,,,,,,,,,,,,,,,,,,,,,,,,,,,,,,,,,,,,,,,,,,,,,,,,,,,,,,,,,,,,,,,,,,,,,,,,,,,,,,,,,,,,,,,,,,,,,,,,,,,,,,,,,,,,,,,,,,,,,,,,,,,,,,,,,,,,,,,,,,,,,,,,,,,,
,,,,,,61608282bfa4c871fdedef92,62c53995b36304f770c36670,2022-07-06_24h36.12.119,Colour_Asymmetry_Pilot,2022.1.3,Win32,60.0024001,62c50e9c1127f2cd403a315f,0,115,115,70,1,fourtwo,,,,,,,,,,,,,,,,,,,,,,,,,,,,,,,,,,,,,,,,,,,,,,,,,,,,,,,,,,,,,,,,,,,,,,,,,,,,,,,,,,,,,,,,,,,,,,,,,,,,,,,,,,,,,,,,,,,,,,,,,,,,,,,,,,,,,,,,,,,,,,,,,,,,,,,,,,,,,
,,,,,,61608282bfa4c871fdedef92,62c53995b36304f770c36670,2022-07-06_24h36.12.119,Colour_Asymmetry_Pilot,2022.1.3,Win32,60.0024001,62c50e9c1127f2cd403a315f,0,116,116,75,1,twofour,,,,,,,,,,,,,,,,,,,,,,,,,,,,,,,,,,,,,,,,,,,,,,,,,,,,,,,,,,,,,,,,,,,,,,,,,,,,,,,,,,,,,,,,,,,,,,,,,,,,,,,,,,,,,,,,,,,,,,,,,,,,,,,,,,,,,,,,,,,,,,,,,,,,,,,,,,,,,
,,,,,,61608282bfa4c871fdedef92,62c53995b36304f770c36670,2022-07-06_24h36.12.119,Colour_Asymmetry_Pilot,2022.1.3,Win32,60.0024001,62c50e9c1127f2cd403a315f,0,117,117,42,1,twoone,,,,,,,,,,,,,,,,,,,,,,,,,,,,,,,,,,,,,,,,,,,,,,,,,,,,,,,,,,,,,,,,,,,,,,,,,,,,,,,,,,,,,,,,,,,,,,,,,,,,,,,,,,,,,,,,,,,,,,,,,,,,,,,,,,,,,,,,,,,,,,,,,,,,,,,,,,,,,
,,,,,,61608282bfa4c871fdedef92,62c53995b36304f770c36670,2022-07-06_24h36.12.119,Colour_Asymmetry_Pilot,2022.1.3,Win32,60.0024001,62c50e9c1127f2cd403a315f,0,118,118,37,1,threefour,,,,,,,,,,,,,,,,,,,,,,,,,,,,,,,,,,,,,,,,,,,,,,,,,,,,,,,,,,,,,,,,,,,,,,,,,,,,,,,,,,,,,,,,,,,,,,,,,,,,,,,,,,,,,,,,,,,,,,,,,,,,,,,,,,,,,,,,,,,,,,,,,,,,,,,,,,,,,
,,,,,,61608282bfa4c871fdedef92,62c53995b36304f770c36670,2022-07-06_24h36.12.119,Colour_Asymmetry_Pilot,2022.1.3,Win32,60.0024001,62c50e9c1127f2cd403a315f,0,119,119,121,1,onethree,,,,,,,,,,,,,,,,,,,,,,,,,,,,,,,,,,,,,,,,,,,,,,,,,,,,,,,,,,,,,,,,,,,,,,,,,,,,,,,,,,,,,,,,,,,,,,,,,,,,,,,,,,,,,,,,,,,,,,,,,,,,,,,,,,,,,,,,,,,,,,,,,,,,,,,,,,,,,
,,,,,,61608282bfa4c871fdedef92,62c53995b36304f770c36670,2022-07-06_24h36.12.119,Colour_Asymmetry_Pilot,2022.1.3,Win32,60.0024001,62c50e9c1127f2cd403a315f,0,120,120,49,1,onethree,,,,,,,,,,,,,,,,,,,,,,,,,,,,,,,,,,,,,,,,,,,,,,,,,,,,,,,,,,,,,,,,,,,,,,,,,,,,,,,,,,,,,,,,,,,,,,,,,,,,,,,,,,,,,,,,,,,,,,,,,,,,,,,,,,,,,,,,,,,,,,,,,,,,,,,,,,,,,
,,,,,,61608282bfa4c871fdedef92,62c53995b36304f770c36670,2022-07-06_24h36.12.119,Colour_Asymmetry_Pilot,2022.1.3,Win32,60.0024001,62c50e9c1127f2cd403a315f,0,121,121,22,1,fourtwo,,,,,,,,,,,,,,,,,,,,,,,,,,,,,,,,,,,,,,,,,,,,,,,,,,,,,,,,,,,,,,,,,,,,,,,,,,,,,,,,,,,,,,,,,,,,,,,,,,,,,,,,,,,,,,,,,,,,,,,,,,,,,,,,,,,,,,,,,,,,,,,,,,,,,,,,,,,,,
,,,,,,61608282bfa4c871fdedef92,62c53995b36304f770c36670,2022-07-06_24h36.12.119,Colour_Asymmetry_Pilot,2022.1.3,Win32,60.0024001,62c50e9c1127f2cd403a315f,0,122,122,94,1,fourtwo,,,,,,,,,,,,,,,,,,,,,,,,,,,,,,,,,,,,,,,,,,,,,,,,,,,,,,,,,,,,,,,,,,,,,,,,,,,,,,,,,,,,,,,,,,,,,,,,,,,,,,,,,,,,,,,,,,,,,,,,,,,,,,,,,,,,,,,,,,,,,,,,,,,,,,,,,,,,,
,,,,,,61608282bfa4c871fdedef92,62c53995b36304f770c36670,2022-07-06_24h36.12.119,Colour_Asymmetry_Pilot,2022.1.3,Win32,60.0024001,62c50e9c1127f2cd403a315f,0,123,123,39,1,fourthree,,,,,,,,,,,,,,,,,,,,,,,,,,,,,,,,,,,,,,,,,,,,,,,,,,,,,,,,,,,,,,,,,,,,,,,,,,,,,,,,,,,,,,,,,,,,,,,,,,,,,,,,,,,,,,,,,,,,,,,,,,,,,,,,,,,,,,,,,,,,,,,,,,,,,,,,,,,,,
,,,,,,61608282bfa4c871fdedef92,62c53995b36304f770c36670,2022-07-06_24h36.12.119,Colour_Asymmetry_Pilot,2022.1.3,Win32,60.0024001,62c50e9c1127f2cd403a315f,0,124,124,151,1,fourthree,,,,,,,,,,,,,,,,,,,,,,,,,,,,,,,,,,,,,,,,,,,,,,,,,,,,,,,,,,,,,,,,,,,,,,,,,,,,,,,,,,,,,,,,,,,,,,,,,,,,,,,,,,,,,,,,,,,,,,,,,,,,,,,,,,,,,,,,,,,,,,,,,,,,,,,,,,,,,
,,,,,,61608282bfa4c871fdedef92,62c53995b36304f770c36670,2022-07-06_24h36.12.119,Colour_Asymmetry_Pilot,2022.1.3,Win32,60.0024001,62c50e9c1127f2cd403a315f,0,125,125,26,1,twoone,,,,,,,,,,,,,,,,,,,,,,,,,,,,,,,,,,,,,,,,,,,,,,,,,,,,,,,,,,,,,,,,,,,,,,,,,,,,,,,,,,,,,,,,,,,,,,,,,,,,,,,,,,,,,,,,,,,,,,,,,,,,,,,,,,,,,,,,,,,,,,,,,,,,,,,,,,,,,
,,,,,,61608282bfa4c871fdedef92,62c53995b36304f770c36670,2022-07-06_24h36.12.119,Colour_Asymmetry_Pilot,2022.1.3,Win32,60.0024001,62c50e9c1127f2cd403a315f,0,126,126,83,1,twofour,,,,,,,,,,,,,,,,,,,,,,,,,,,,,,,,,,,,,,,,,,,,,,,,,,,,,,,,,,,,,,,,,,,,,,,,,,,,,,,,,,,,,,,,,,,,,,,,,,,,,,,,,,,,,,,,,,,,,,,,,,,,,,,,,,,,,,,,,,,,,,,,,,,,,,,,,,,,,
,,,,,,61608282bfa4c871fdedef92,62c53995b36304f770c36670,2022-07-06_24h36.12.119,Colour_Asymmetry_Pilot,2022.1.3,Win32,60.0024001,62c50e9c1127f2cd403a315f,0,127,127,152,1,onetwo,,,,,,,,,,,,,,,,,,,,,,,,,,,,,,,,,,,,,,,,,,,,,,,,,,,,,,,,,,,,,,,,,,,,,,,,,,,,,,,,,,,,,,,,,,,,,,,,,,,,,,,,,,,,,,,,,,,,,,,,,,,,,,,,,,,,,,,,,,,,,,,,,,,,,,,,,,,,,
,,,,,,61608282bfa4c871fdedef92,62c53995b36304f770c36670,2022-07-06_24h36.12.119,Colour_Asymmetry_Pilot,2022.1.3,Win32,60.0024001,62c50e9c1127f2cd403a315f,0,128,128,64,1,onetwo,,,,,,,,,,,,,,,,,,,,,,,,,,,,,,,,,,,,,,,,,,,,,,,,,,,,,,,,,,,,,,,,,,,,,,,,,,,,,,,,,,,,,,,,,,,,,,,,,,,,,,,,,,,,,,,,,,,,,,,,,,,,,,,,,,,,,,,,,,,,,,,,,,,,,,,,,,,,,
,,,,,,61608282bfa4c871fdedef92,62c53995b36304f770c36670,2022-07-06_24h36.12.119,Colour_Asymmetry_Pilot,2022.1.3,Win32,60.0024001,62c50e9c1127f2cd403a315f,0,129,129,72,1,onetwo,,,,,,,,,,,,,,,,,,,,,,,,,,,,,,,,,,,,,,,,,,,,,,,,,,,,,,,,,,,,,,,,,,,,,,,,,,,,,,,,,,,,,,,,,,,,,,,,,,,,,,,,,,,,,,,,,,,,,,,,,,,,,,,,,,,,,,,,,,,,,,,,,,,,,,,,,,,,,
,,,,,,61608282bfa4c871fdedef92,62c53995b36304f770c36670,2022-07-06_24h36.12.119,Colour_Asymmetry_Pilot,2022.1.3,Win32,60.0024001,62c50e9c1127f2cd403a315f,0,130,130,133,1,threefour,,,,,,,,,,,,,,,,,,,,,,,,,,,,,,,,,,,,,,,,,,,,,,,,,,,,,,,,,,,,,,,,,,,,,,,,,,,,,,,,,,,,,,,,,,,,,,,,,,,,,,,,,,,,,,,,,,,,,,,,,,,,,,,,,,,,,,,,,,,,,,,,,,,,,,,,,,,,,
,,,,,,61608282bfa4c871fdedef92,62c53995b36304f770c36670,2022-07-06_24h36.12.119,Colour_Asymmetry_Pilot,2022.1.3,Win32,60.0024001,62c50e9c1127f2cd403a315f,0,131,131,88,1,onetwo,,,,,,,,,,,,,,,,,,,,,,,,,,,,,,,,,,,,,,,,,,,,,,,,,,,,,,,,,,,,,,,,,,,,,,,,,,,,,,,,,,,,,,,,,,,,,,,,,,,,,,,,,,,,,,,,,,,,,,,,,,,,,,,,,,,,,,,,,,,,,,,,,,,,,,,,,,,,,
,,,,,,61608282bfa4c871fdedef92,62c53995b36304f770c36670,2022-07-06_24h36.12.119,Colour_Asymmetry_Pilot,2022.1.3,Win32,60.0024001,62c50e9c1127f2cd403a315f,0,132,132,4,1,threeone,,,,,,,,,,,,,,,,,,,,,,,,,,,,,,,,,,,,,,,,,,,,,,,,,,,,,,,,,,,,,,,,,,,,,,,,,,,,,,,,,,,,,,,,,,,,,,,,,,,,,,,,,,,,,,,,,,,,,,,,,,,,,,,,,,,,,,,,,,,,,,,,,,,,,,,,,,,,,
,,,,,,61608282bfa4c871fdedef92,62c53995b36304f770c36670,2022-07-06_24h36.12.119,Colour_Asymmetry_Pilot,2022.1.3,Win32,60.0024001,62c50e9c1127f2cd403a315f,0,133,133,15,1,fourthree,,,,,,,,,,,,,,,,,,,,,,,,,,,,,,,,,,,,,,,,,,,,,,,,,,,,,,,,,,,,,,,,,,,,,,,,,,,,,,,,,,,,,,,,,,,,,,,,,,,,,,,,,,,,,,,,,,,,,,,,,,,,,,,,,,,,,,,,,,,,,,,,,,,,,,,,,,,,,
,,,,,,61608282bfa4c871fdedef92,62c53995b36304f770c36670,2022-07-06_24h36.12.119,Colour_Asymmetry_Pilot,2022.1.3,Win32,60.0024001,62c50e9c1127f2cd403a315f,0,134,134,111,1,fourthree,,,,,,,,,,,,,,,,,,,,,,,,,,,,,,,,,,,,,,,,,,,,,,,,,,,,,,,,,,,,,,,,,,,,,,,,,,,,,,,,,,,,,,,,,,,,,,,,,,,,,,,,,,,,,,,,,,,,,,,,,,,,,,,,,,,,,,,,,,,,,,,,,,,,,,,,,,,,,
,,,,,,61608282bfa4c871fdedef92,62c53995b36304f770c36670,2022-07-06_24h36.12.119,Colour_Asymmetry_Pilot,2022.1.3,Win32,60.0024001,62c50e9c1127f2cd403a315f,0,135,135,99,1,twofour,,,,,,,,,,,,,,,,,,,,,,,,,,,,,,,,,,,,,,,,,,,,,,,,,,,,,,,,,,,,,,,,,,,,,,,,,,,,,,,,,,,,,,,,,,,,,,,,,,,,,,,,,,,,,,,,,,,,,,,,,,,,,,,,,,,,,,,,,,,,,,,,,,,,,,,,,,,,,
,,,,,,61608282bfa4c871fdedef92,62c53995b36304f770c36670,2022-07-06_24h36.12.119,Colour_Asymmetry_Pilot,2022.1.3,Win32,60.0024001,62c50e9c1127f2cd403a315f,0,136,136,86,1,fourtwo,,,,,,,,,,,,,,,,,,,,,,,,,,,,,,,,,,,,,,,,,,,,,,,,,,,,,,,,,,,,,,,,,,,,,,,,,,,,,,,,,,,,,,,,,,,,,,,,,,,,,,,,,,,,,,,,,,,,,,,,,,,,,,,,,,,,,,,,,,,,,,,,,,,,,,,,,,,,,
,,,,,,61608282bfa4c871fdedef92,62c53995b36304f770c36670,2022-07-06_24h36.12.119,Colour_Asymmetry_Pilot,2022.1.3,Win32,60.0024001,62c50e9c1127f2cd403a315f,0,137,137,143,1,fourthree,,,,,,,,,,,,,,,,,,,,,,,,,,,,,,,,,,,,,,,,,,,,,,,,,,,,,,,,,,,,,,,,,,,,,,,,,,,,,,,,,,,,,,,,,,,,,,,,,,,,,,,,,,,,,,,,,,,,,,,,,,,,,,,,,,,,,,,,,,,,,,,,,,,,,,,,,,,,,
,,,,,,61608282bfa4c871fdedef92,62c53995b36304f770c36670,2022-07-06_24h36.12.119,Colour_Asymmetry_Pilot,2022.1.3,Win32,60.0024001,62c50e9c1127f2cd403a315f,0,138,138,77,1,threefour,,,,,,,,,,,,,,,,,,,,,,,,,,,,,,,,,,,,,,,,,,,,,,,,,,,,,,,,,,,,,,,,,,,,,,,,,,,,,,,,,,,,,,,,,,,,,,,,,,,,,,,,,,,,,,,,,,,,,,,,,,,,,,,,,,,,,,,,,,,,,,,,,,,,,,,,,,,,,
,,,,,,61608282bfa4c871fdedef92,62c53995b36304f770c36670,2022-07-06_24h36.12.119,Colour_Asymmetry_Pilot,2022.1.3,Win32,60.0024001,62c50e9c1127f2cd403a315f,0,139,139,100,1,threeone,,,,,,,,,,,,,,,,,,,,,,,,,,,,,,,,,,,,,,,,,,,,,,,,,,,,,,,,,,,,,,,,,,,,,,,,,,,,,,,,,,,,,,,,,,,,,,,,,,,,,,,,,,,,,,,,,,,,,,,,,,,,,,,,,,,,,,,,,,,,,,,,,,,,,,,,,,,,,
,,,,,,61608282bfa4c871fdedef92,62c53995b36304f770c36670,2022-07-06_24h36.12.119,Colour_Asymmetry_Pilot,2022.1.3,Win32,60.0024001,62c50e9c1127f2cd403a315f,0,140,140,73,1,onethree,,,,,,,,,,,,,,,,,,,,,,,,,,,,,,,,,,,,,,,,,,,,,,,,,,,,,,,,,,,,,,,,,,,,,,,,,,,,,,,,,,,,,,,,,,,,,,,,,,,,,,,,,,,,,,,,,,,,,,,,,,,,,,,,,,,,,,,,,,,,,,,,,,,,,,,,,,,,,
,,,,,,61608282bfa4c871fdedef92,62c53995b36304f770c36670,2022-07-06_24h36.12.119,Colour_Asymmetry_Pilot,2022.1.3,Win32,60.0024001,62c50e9c1127f2cd403a315f,0,141,141,71,1,fourthree,,,,,,,,,,,,,,,,,,,,,,,,,,,,,,,,,,,,,,,,,,,,,,,,,,,,,,,,,,,,,,,,,,,,,,,,,,,,,,,,,,,,,,,,,,,,,,,,,,,,,,,,,,,,,,,,,,,,,,,,,,,,,,,,,,,,,,,,,,,,,,,,,,,,,,,,,,,,,
,,,,,,61608282bfa4c871fdedef92,62c53995b36304f770c36670,2022-07-06_24h36.12.119,Colour_Asymmetry_Pilot,2022.1.3,Win32,60.0024001,62c50e9c1127f2cd403a315f,0,142,142,144,1,onetwo,,,,,,,,,,,,,,,,,,,,,,,,,,,,,,,,,,,,,,,,,,,,,,,,,,,,,,,,,,,,,,,,,,,,,,,,,,,,,,,,,,,,,,,,,,,,,,,,,,,,,,,,,,,,,,,,,,,,,,,,,,,,,,,,,,,,,,,,,,,,,,,,,,,,,,,,,,,,,
,,,,,,61608282bfa4c871fdedef92,62c53995b36304f770c36670,2022-07-06_24h36.12.119,Colour_Asymmetry_Pilot,2022.1.3,Win32,60.0024001,62c50e9c1127f2cd403a315f,0,143,143,25,1,onethree,,,,,,,,,,,,,,,,,,,,,,,,,,,,,,,,,,,,,,,,,,,,,,,,,,,,,,,,,,,,,,,,,,,,,,,,,,,,,,,,,,,,,,,,,,,,,,,,,,,,,,,,,,,,,,,,,,,,,,,,,,,,,,,,,,,,,,,,,,,,,,,,,,,,,,,,,,,,,
,,,,,,61608282bfa4c871fdedef92,62c53995b36304f770c36670,2022-07-06_24h36.12.119,Colour_Asymmetry_Pilot,2022.1.3,Win32,60.0024001,62c50e9c1127f2cd403a315f,0,144,144,131,1,twofour,,,,,,,,,,,,,,,,,,,,,,,,,,,,,,,,,,,,,,,,,,,,,,,,,,,,,,,,,,,,,,,,,,,,,,,,,,,,,,,,,,,,,,,,,,,,,,,,,,,,,,,,,,,,,,,,,,,,,,,,,,,,,,,,,,,,,,,,,,,,,,,,,,,,,,,,,,,,,
,,,,,,61608282bfa4c871fdedef92,62c53995b36304f770c36670,2022-07-06_24h36.12.119,Colour_Asymmetry_Pilot,2022.1.3,Win32,60.0024001,62c50e9c1127f2cd403a315f,0,145,145,33,1,onethree,,,,,,,,,,,,,,,,,,,,,,,,,,,,,,,,,,,,,,,,,,,,,,,,,,,,,,,,,,,,,,,,,,,,,,,,,,,,,,,,,,,,,,,,,,,,,,,,,,,,,,,,,,,,,,,,,,,,,,,,,,,,,,,,,,,,,,,,,,,,,,,,,,,,,,,,,,,,,
,,,,,,61608282bfa4c871fdedef92,62c53995b36304f770c36670,2022-07-06_24h36.12.119,Colour_Asymmetry_Pilot,2022.1.3,Win32,60.0024001,62c50e9c1127f2cd403a315f,0,146,146,48,1,onetwo,,,,,,,,,,,,,,,,,,,,,,,,,,,,,,,,,,,,,,,,,,,,,,,,,,,,,,,,,,,,,,,,,,,,,,,,,,,,,,,,,,,,,,,,,,,,,,,,,,,,,,,,,,,,,,,,,,,,,,,,,,,,,,,,,,,,,,,,,,,,,,,,,,,,,,,,,,,,,
,,,,,,61608282bfa4c871fdedef92,62c53995b36304f770c36670,2022-07-06_24h36.12.119,Colour_Asymmetry_Pilot,2022.1.3,Win32,60.0024001,62c50e9c1127f2cd403a315f,0,147,147,66,1,twoone,,,,,,,,,,,,,,,,,,,,,,,,,,,,,,,,,,,,,,,,,,,,,,,,,,,,,,,,,,,,,,,,,,,,,,,,,,,,,,,,,,,,,,,,,,,,,,,,,,,,,,,,,,,,,,,,,,,,,,,,,,,,,,,,,,,,,,,,,,,,,,,,,,,,,,,,,,,,,
,,,,,,61608282bfa4c871fdedef92,62c53995b36304f770c36670,2022-07-06_24h36.12.119,Colour_Asymmetry_Pilot,2022.1.3,Win32,60.0024001,62c50e9c1127f2cd403a315f,0,148,148,30,1,fourtwo,,,,,,,,,,,,,,,,,,,,,,,,,,,,,,,,,,,,,,,,,,,,,,,,,,,,,,,,,,,,,,,,,,,,,,,,,,,,,,,,,,,,,,,,,,,,,,,,,,,,,,,,,,,,,,,,,,,,,,,,,,,,,,,,,,,,,,,,,,,,,,,,,,,,,,,,,,,,,
,,,,,,61608282bfa4c871fdedef92,62c53995b36304f770c36670,2022-07-06_24h36.12.119,Colour_Asymmetry_Pilot,2022.1.3,Win32,60.0024001,62c50e9c1127f2cd403a315f,0,149,149,35,1,twofour,,,,,,,,,,,,,,,,,,,,,,,,,,,,,,,,,,,,,,,,,,,,,,,,,,,,,,,,,,,,,,,,,,,,,,,,,,,,,,,,,,,,,,,,,,,,,,,,,,,,,,,,,,,,,,,,,,,,,,,,,,,,,,,,,,,,,,,,,,,,,,,,,,,,,,,,,,,,,
,,,,,,61608282bfa4c871fdedef92,62c53995b36304f770c36670,2022-07-06_24h36.12.119,Colour_Asymmetry_Pilot,2022.1.3,Win32,60.0024001,62c50e9c1127f2cd403a315f,0,150,150,55,1,fourthree,,,,,,,,,,,,,,,,,,,,,,,,,,,,,,,,,,,,,,,,,,,,,,,,,,,,,,,,,,,,,,,,,,,,,,,,,,,,,,,,,,,,,,,,,,,,,,,,,,,,,,,,,,,,,,,,,,,,,,,,,,,,,,,,,,,,,,,,,,,,,,,,,,,,,,,,,,,,,
,,,,,,61608282bfa4c871fdedef92,62c53995b36304f770c36670,2022-07-06_24h36.12.119,Colour_Asymmetry_Pilot,2022.1.3,Win32,60.0024001,62c50e9c1127f2cd403a315f,0,151,151,154,1,twoone,,,,,,,,,,,,,,,,,,,,,,,,,,,,,,,,,,,,,,,,,,,,,,,,,,,,,,,,,,,,,,,,,,,,,,,,,,,,,,,,,,,,,,,,,,,,,,,,,,,,,,,,,,,,,,,,,,,,,,,,,,,,,,,,,,,,,,,,,,,,,,,,,,,,,,,,,,,,,
,,,,,,61608282bfa4c871fdedef92,62c53995b36304f770c36670,2022-07-06_24h36.12.119,Colour_Asymmetry_Pilot,2022.1.3,Win32,60.0024001,62c50e9c1127f2cd403a315f,0,152,152,108,1,threeone,,,,,,,,,,,,,,,,,,,,,,,,,,,,,,,,,,,,,,,,,,,,,,,,,,,,,,,,,,,,,,,,,,,,,,,,,,,,,,,,,,,,,,,,,,,,,,,,,,,,,,,,,,,,,,,,,,,,,,,,,,,,,,,,,,,,,,,,,,,,,,,,,,,,,,,,,,,,,
,,,,,,61608282bfa4c871fdedef92,62c53995b36304f770c36670,2022-07-06_24h36.12.119,Colour_Asymmetry_Pilot,2022.1.3,Win32,60.0024001,62c50e9c1127f2cd403a315f,0,153,153,53,1,threefour,,,,,,,,,,,,,,,,,,,,,,,,,,,,,,,,,,,,,,,,,,,,,,,,,,,,,,,,,,,,,,,,,,,,,,,,,,,,,,,,,,,,,,,,,,,,,,,,,,,,,,,,,,,,,,,,,,,,,,,,,,,,,,,,,,,,,,,,,,,,,,,,,,,,,,,,,,,,,
,,,,,,61608282bfa4c871fdedef92,62c53995b36304f770c36670,2022-07-06_24h36.12.119,Colour_Asymmetry_Pilot,2022.1.3,Win32,60.0024001,62c50e9c1127f2cd403a315f,0,154,154,18,1,twoone,,,,,,,,,,,,,,,,,,,,,,,,,,,,,,,,,,,,,,,,,,,,,,,,,,,,,,,,,,,,,,,,,,,,,,,,,,,,,,,,,,,,,,,,,,,,,,,,,,,,,,,,,,,,,,,,,,,,,,,,,,,,,,,,,,,,,,,,,,,,,,,,,,,,,,,,,,,,,
,,,,,,61608282bfa4c871fdedef92,62c53995b36304f770c36670,2022-07-06_24h36.12.119,Colour_Asymmetry_Pilot,2022.1.3,Win32,60.0024001,62c50e9c1127f2cd403a315f,0,155,155,139,1,twofour,,,,,,,,,,,,,,,,,,,,,,,,,,,,,,,,,,,,,,,,,,,,,,,,,,,,,,,,,,,,,,,,,,,,,,,,,,,,,,,,,,,,,,,,,,,,,,,,,,,,,,,,,,,,,,,,,,,,,,,,,,,,,,,,,,,,,,,,,,,,,,,,,,,,,,,,,,,,,
,,,,,,61608282bfa4c871fdedef92,62c53995b36304f770c36670,2022-07-06_24h36.12.119,Colour_Asymmetry_Pilot,2022.1.3,Win32,60.0024001,62c50e9c1127f2cd403a315f,0,156,156,14,1,fourtwo,,,,,,,,,,,,,,,,,,,,,,,,,,,,,,,,,,,,,,,,,,,,,,,,,,,,,,,,,,,,,,,,,,,,,,,,,,,,,,,,,,,,,,,,,,,,,,,,,,,,,,,,,,,,,,,,,,,,,,,,,,,,,,,,,,,,,,,,,,,,,,,,,,,,,,,,,,,,,
,,,,,,61608282bfa4c871fdedef92,62c53995b36304f770c36670,2022-07-06_24h36.12.119,Colour_Asymmetry_Pilot,2022.1.3,Win32,60.0024001,62c50e9c1127f2cd403a315f,0,157,157,10,1,twoone,,,,,,,,,,,,,,,,,,,,,,,,,,,,,,,,,,,,,,,,,,,,,,,,,,,,,,,,,,,,,,,,,,,,,,,,,,,,,,,,,,,,,,,,,,,,,,,,,,,,,,,,,,,,,,,,,,,,,,,,,,,,,,,,,,,,,,,,,,,,,,,,,,,,,,,,,,,,,
,,,,,,61608282bfa4c871fdedef92,62c53995b36304f770c36670,2022-07-06_24h36.12.119,Colour_Asymmetry_Pilot,2022.1.3,Win32,60.0024001,62c50e9c1127f2cd403a315f,0,158,158,96,1,onetwo,,,,,,,,,,,,,,,,,,,,,,,,,,,,,,,,,,,,,,,,,,,,,,,,,,,,,,,,,,,,,,,,,,,,,,,,,,,,,,,,,,,,,,,,,,,,,,,,,,,,,,,,,,,,,,,,,,,,,,,,,,,,,,,,,,,,,,,,,,,,,,,,,,,,,,,,,,,,,
,,,,,,61608282bfa4c871fdedef92,62c53995b36304f770c36670,2022-07-06_24h36.12.119,Colour_Asymmetry_Pilot,2022.1.3,Win32,60.0024001,62c50e9c1127f2cd403a315f,0,159,159,112,1,onetwo,,,,,,,,,,,,,,,,,,,,,,,,,,,,,,,,,,,,,,,,,,,,,,,,,,,,,,,,,,,,,,,,,,,,,,,,,,,,,,,,,,,,,,,,,,,,,,,,,,,,,,,,,,,,,,,,,,,,,,,,,,,,,,,,,,,,,,,,,,,,,,,,,,,,,,,,,,,,,
,,,,,,61608282bfa4c871fdedef92,62c53995b36304f770c36670,2022-07-06_24h36.12.119,Colour_Asymmetry_Pilot,2022.1.3,Win32,60.0024001,62c50e9c1127f2cd403a315f,0,160,160,23,1,fourthree,,,,,,,,,,,,,,,,,,,,,,,,,,,,,,,,,,,,,,,,,,,,,,,,,,,,,,,,,,,,,,,,,,,,,,,,,,,,,,,,,,,,,,,,,,,,,,,,,,,,,,,,,,,,,,,,,,,,,,,,,,,,,,,,,,,,,,,,,,,,,,,,,,,,,,,,,,,,,
,,,,,,61608282bfa4c871fdedef92,62c53995b36304f770c36670,2022-07-06_24h36.12.119,Colour_Asymmetry_Pilot,2022.1.3,Win32,60.0024001,62c50e9c1127f2cd403a315f,0,161,161,0,1,onetwo,,,,,,,,,,,,,,,,,,,,,,,,,,,,,,,,,,,,,,,,,,,,,,,,,,,,,,,,,,,,,,,,,,,,,,,,,,,,,,,,,,,,,,,,,,,,,,,,,,,,,,,,,,,,,,,,,,,,,,,,,,,,,,,,,,,,,,,,,,,,,,,,,,,,,,,,,,,,,
,,,,,,61608282bfa4c871fdedef92,62c53995b36304f770c36670,2022-07-06_24h36.12.119,Colour_Asymmetry_Pilot,2022.1.3,Win32,60.0024001,62c50e9c1127f2cd403a315f,,,,,,,space,9.4038,space,36.6263,space,190.2429,space,77.7091,space,6.5698,space,6.6437,"[-0.8982,-0.37259999999999993,0.2784]",onethree,"[0.9763999999999999,0.30979999999999985,-0.6786]",-4,10.7553,-47,80,1,0,0,response7disk_5,-10,13,1,0,0,rectangle_8,-10,13,1,0,0,4,-10,13,1,0,0,0,0,0,0,1,,,,,,,,,,,,,,,,,,,,,,,,,,,,,,,,,,,,,,,,,,,,,,,,,,,,,,,,,,,,,,,,,,,,,,,,,,,,,,,,,,,,,,,,,,,,,,,,,,,,,,,,,,,,,,,,
,,,,,,61608282bfa4c871fdedef92,62c53995b36304f770c36670,2022-07-06_24h36.12.119,Colour_Asymmetry_Pilot,2022.1.3,Win32,60.0024001,62c50e9c1127f2cd403a315f,,,,,,,,,,,,,,,,,,,"[0.6625999999999999,0.4980000000000002,-0.357]",fourthree,"[0.30180000000000007,-0.7884,-0.9844]",-4,7.6443,-40,89,1,0,0,response7disk_5,-5,-4,1,0,0,rectangle_8,-5,-4,1,0,0,4,-5,-4,1,0,0,1,0,1,0,1,,,,,,,,,,,,,,,,,,,,,,,,,,,,,,,,,,,,,,,,,,,,,,,,,,,,,,,,,,,,,,,,,,,,,,,,,,,,,,,,,,,,,,,,,,,,,,,,,,,,,,,,,,,,,,,,
,,,,,,61608282bfa4c871fdedef92,62c53995b36304f770c36670,2022-07-06_24h36.12.119,Colour_Asymmetry_Pilot,2022.1.3,Win32,60.0024001,62c50e9c1127f2cd403a315f,,,,,,,,,,,,,,,,,,,"[0.0351999999999999,0.41159999999999997,0.0038000000000000256]",onethree,"[0.8274000000000001,-0.5844,-0.9452]",-4,3.6797,-38,87,1,0,0,response7disk_5,-4,-4,1,0,0,rectangle_8,42,76,1,0,0,4,-3,1,1,0,0,2,0,2,0,1,response1disk_7,7,rectangle_4,,,,,,,,,,,,,,,,,,,,,,,,,,,,,,,,,,,,,,,,,,,,,,,,,,,,,,,,,,,,,,,,,,,,,,,,,,,,,,,,,,,,,,,,,,,,,,,,,,,,,,,,,,,,,
,,,,,,61608282bfa4c871fdedef92,62c53995b36304f770c36670,2022-07-06_24h36.12.119,Colour_Asymmetry_Pilot,2022.1.3,Win32,60.0024001,62c50e9c1127f2cd403a315f,,,,,,,,,,,,,,,,,,,"[0.5528,0.7409999999999999,-0.71]",fourthree,"[0.7802,-0.23140000000000005,-0.20799999999999996]",-3,12.3242,-65,20,1,0,0,response7disk_5,-21,-3,1,0,0,rectangle_8,-21,-3,1,0,0,4,-21,-3,1,0,0,3,0,3,0,1,,,,,,,,,,,,,,,,,,,,,,,,,,,,,,,,,,,,,,,,,,,,,,,,,,,,,,,,,,,,,,,,,,,,,,,,,,,,,,,,,,,,,,,,,,,,,,,,,,,,,,,,,,,,,,,,
,,,,,,61608282bfa4c871fdedef92,62c53995b36304f770c36670,2022-07-06_24h36.12.119,Colour_Asymmetry_Pilot,2022.1.3,Win32,60.0024001,62c50e9c1127f2cd403a315f,,,,,,,,,,,,,,,,,,,"[0.5528,0.7409999999999999,-0.71]",onetwo,"[-0.09019999999999995,0.44300000000000006,0.5371999999999999]",-4,5.0285,-49,92,1,0,0,response7disk_5,-22,13,1,0,0,rectangle_8,-22,13,1,0,0,4,-22,13,1,0,0,4,0,4,0,1,,,,,,,,,,,,,,,,,,,,,,,,,,,,,,,,,,,,,,,,,,,,,,,,,,,,,,,,,,,,,,,,,,,,,,,,,,,,,,,,,,,,,,,,,,,,,,,,,,,,,,,,,,,,,,,,
,,,,,,61608282bfa4c871fdedef92,62c53995b36304f770c36670,2022-07-06_24h36.12.119,Colour_Asymmetry_Pilot,2022.1.3,Win32,60.0024001,62c50e9c1127f2cd403a315f,,,,,,,,,,,,,,,,,,,"[0.37240000000000006,-0.050999999999999934,-0.5216]",onetwo,"[-0.8118,-0.8198,-0.5452]",-4,3.3107,-36,106,1,0,0,response7disk_5,-13,11,1,0,0,rectangle_8,30,62,1,0,0,4,0,7,1,0,0,5,0,5,0,1,response1disk_7,7,rectangle_4,,,,,,,,,,,,,,,,,,,,,,,,,,,,,,,,,,,,,,,,,,,,,,,,,,,,,,,,,,,,,,,,,,,,,,,,,,,,,,,,,,,,,,,,,,,,,,,,,,,,,,,,,,,,,
,,,,,,61608282bfa4c871fdedef92,62c53995b36304f770c36670,2022-07-06_24h36.12.119,Colour_Asymmetry_Pilot,2022.1.3,Win32,60.0024001,62c50e9c1127f2cd403a315f,,,,,,,,,,,,,,,,,,,"[0.2862,0.7802,0.3568]",onethree,"[-0.2942,-0.7648,-0.7492000000000001]",-4,1.9306,-30,79,1,0,0,response7disk_5,-18,4,1,0,0,rectangle_8,-18,4,1,0,0,4,-18,4,1,0,0,6,0,6,0,1,,,,,,,,,,,,,,,,,,,,,,,,,,,,,,,,,,,,,,,,,,,,,,,,,,,,,,,,,,,,,,,,,,,,,,,,,,,,,,,,,,,,,,,,,,,,,,,,,,,,,,,,,,,,,,,,
,,,,,,61608282bfa4c871fdedef92,62c53995b36304f770c36670,2022-07-06_24h36.12.119,Colour_Asymmetry_Pilot,2022.1.3,Win32,60.0024001,62c50e9c1127f2cd403a315f,,,,,,,,,,,,,,,,,,,,threeone,,-4,7.0378,,,,,,,,,,,,,,,,,,,,,,,,,,,,,,,,space,5.0455,"[-0.6,0.16860000000000008,0.44300000000000006]","[-0.20799999999999996,-0.655,-0.01980000000000004]",-41,84,1,0,0,response7disk,6,8,1,0,0,rectangle,6,8,1,0,0,,2,0.0041,0,6,8,1,0,0,0,0,0,116,1,35,second,,,,,,,,,,,,,,,,,,,,,,,,,,,,,,,,,,,,,,,,,,,,,,,,,,,,,,,,,,,,,,,,,,,,,,,,
,,,,,,61608282bfa4c871fdedef92,62c53995b36304f770c36670,2022-07-06_24h36.12.119,Colour_Asymmetry_Pilot,2022.1.3,Win32,60.0024001,62c50e9c1127f2cd403a315f,,,,,,,,,,,,,,,,,,,,threeone,,-4,2.5408,,,,,,,,,,,,,,,,,,,,,,,,,,,,,,,,,,"[-0.6942,-0.7648,-0.12959999999999994]","[0.5528,0.7409999999999999,-0.71]",-41,77,1,0,0,response7disk,6,-4,1,0,0,rectangle,6,-4,1,0,0,,1,0.002,0,6,-4,1,0,0,0,1,1,37,1,37,first,,,,,,,,,,,,,,,,,,,,,,,,,,,,,,,,,,,,,,,,,,,,,,,,,,,,,,,,,,,,,,,,,,,,,,,,
,,,,,,61608282bfa4c871fdedef92,62c53995b36304f770c36670,2022-07-06_24h36.12.119,Colour_Asymmetry_Pilot,2022.1.3,Win32,60.0024001,62c50e9c1127f2cd403a315f,,,,,,,,,,,,,,,,,,,,twoone,,1,5.608,,,,,,,,,,,,,,,,,,,,,,,,,,,,,,,,,,"[1,0.12939999999999996,-1]","[0.22340000000000004,-0.9296,-0.7884]",63,-102,1,0,0,response3disk,-7,-5,1,0,0,rectangle,-7,-5,1,0,0,,3,0.0021,0,-7,-5,1,0,0,0,2,2,81,1,0,second,,,,,,,,,,,,,,,,,,,,,,,,,,,,,,,,,,,,,,,,,,,,,,,,,,,,,,,,,,,,,,,,,,,,,,,,
,,,,,,61608282bfa4c871fdedef92,62c53995b36304f770c36670,2022-07-06_24h36.12.119,Colour_Asymmetry_Pilot,2022.1.3,Win32,60.0024001,62c50e9c1127f2cd403a315f,,,,,,,,,,,,,,,,,,,,threeone,,1,5.0571,,,,,,,,,,,,,,,,,,,,,,,,,,,,,,,,,,"[-0.9766,-0.34920000000000007,0.2156]","[0.04299999999999993,0.16060000000000008,-0.6628000000000001]",41,-71,1,0,0,response3disk,6,8,1,0,0,rectangle,6,8,1,0,0,,2,0.0022,0,6,8,1,0,0,0,3,3,71,1,71,first,,,,,,,,,,,,,,,,,,,,,,,,,,,,,,,,,,,,,,,,,,,,,,,,,,,,,,,,,,,,,,,,,,,,,,,,
,,,,,,61608282bfa4c871fdedef92,62c53995b36304f770c36670,2022-07-06_24h36.12.119,Colour_Asymmetry_Pilot,2022.1.3,Win32,60.0024001,62c50e9c1127f2cd403a315f,,,,,,,,,,,,,,,,,,,,fourthree,,4,1.64,,,,,,,,,,,,,,,,,,,,,,,,,,,,,,,,,,"[0.3568,-0.20799999999999996,-0.9844]","[0.3568,-0.20799999999999996,-0.9844]",43,94,1,0,0,response1disk,-11,9,1,0,0,rectangle,-11,9,1,0,0,,1,0.0023,0,-11,9,1,0,0,0,4,4,48,1,48,first,,,,,,,,,,,,,,,,,,,,,,,,,,,,,,,,,,,,,,,,,,,,,,,,,,,,,,,,,,,,,,,,,,,,,,,,
,,,,,,61608282bfa4c871fdedef92,62c53995b36304f770c36670,2022-07-06_24h36.12.119,Colour_Asymmetry_Pilot,2022.1.3,Win32,60.0024001,62c50e9c1127f2cd403a315f,,,,,,,,,,,,,,,,,,,,onetwo,,-4,1.2368,,,,,,,,,,,,,,,,,,,,,,,,,,,,,,,,,,"[-0.9138,-0.5296000000000001,-0.5529999999999999]","[0.8274000000000001,-0.5844,-0.9452]",-43,91,1,0,0,response7disk,11,-9,1,0,0,rectangle,11,-9,1,0,0,,1,0.0012,0,11,-9,1,0,0,0,5,5,30,1,30,first,,,,,,,,,,,,,,,,,,,,,,,,,,,,,,,,,,,,,,,,,,,,,,,,,,,,,,,,,,,,,,,,,,,,,,,,
,,,,,,61608282bfa4c871fdedef92,62c53995b36304f770c36670,2022-07-06_24h36.12.119,Colour_Asymmetry_Pilot,2022.1.3,Win32,60.0024001,62c50e9c1127f2cd403a315f,,,,,,,,,,,,,,,,,,,,twoone,,4,3.8382,,,,,,,,,,,,,,,,,,,,,,,,,,,,,,,,,,"[-0.9138,-0.5296000000000001,-0.5529999999999999]","[-0.8118,-0.8198,-0.5452]",47,60,1,0,0,response1disk,2,3,1,0,0,rectangle,2,3,1,0,0,,3,0.0022,0,2,3,1,0,0,0,6,6,24,1,24,first,,,,,,,,,,,,,,,,,,,,,,,,,,,,,,,,,,,,,,,,,,,,,,,,,,,,,,,,,,,,,,,,,,,,,,,,
,,,,,,61608282bfa4c871fdedef92,62c53995b36304f770c36670,2022-07-06_24h36.12.119,Colour_Asymmetry_Pilot,2022.1.3,Win32,60.0024001,62c50e9c1127f2cd403a315f,,,,,,,,,,,,,,,,,,,,threeone,,-4,1.2953,,,,,,,,,,,,,,,,,,,,,,,,,,,,,,,,,,"[-0.17659999999999998,-0.2864,-0.8354]","[0.18419999999999992,-0.4276,-0.404]",-52,102,1,0,0,response7disk,11,-4,1,0,0,rectangle,11,-4,1,0,0,,1,0.0021,0,11,-4,1,0,0,0,7,7,156,1,75,second,,,,,,,,,,,,,,,,,,,,,,,,,,,,,,,,,,,,,,,,,,,,,,,,,,,,,,,,,,,,,,,,,,,,,,,,
,,,,,,61608282bfa4c871fdedef92,62c53995b36304f770c36670,2022-07-06_24h36.12.119,Colour_Asymmetry_Pilot,2022.1.3,Win32,60.0024001,62c50e9c1127f2cd403a315f,,,,,,,,,,,,,,,,,,,,fourthree,,3,1.7121,,,,,,,,,,,,,,,,,,,,,,,,,,,,,,,,,,"[-0.8118,-0.8198,-0.5452]","[-0.9138,-0.5296000000000001,-0.5529999999999999]",101,29,1,0,0,response1disk,13,5,1,0,0,rectangle,13,5,1,0,0,,2,0.0022,0,13,5,1,0,0,0,8,8,105,1,24,second,,,,,,,,,,,,,,,,,,,,,,,,,,,,,,,,,,,,,,,,,,,,,,,,,,,,,,,,,,,,,,,,,,,,,,,,
,,,,,,61608282bfa4c871fdedef92,62c53995b36304f770c36670,2022-07-06_24h36.12.119,Colour_Asymmetry_Pilot,2022.1.3,Win32,60.0024001,62c50e9c1127f2cd403a315f,,,,,,,,,,,,,,,,,,,,twoone,,-4,1.2619,,,,,,,,,,,,,,,,,,,,,,,,,,,,,,,,,,"[-0.34920000000000007,-0.702,-0.5216]","[0.7018,0.7176,0.6155999999999999]",-29,71,1,0,0,response7disk,12,-5,1,0,0,rectangle,12,-5,1,0,0,,3,0.0021,0,12,-5,1,0,0,0,9,9,4,1,4,first,,,,,,,,,,,,,,,,,,,,,,,,,,,,,,,,,,,,,,,,,,,,,,,,,,,,,,,,,,,,,,,,,,,,,,,,
,,,,,,61608282bfa4c871fdedef92,62c53995b36304f770c36670,2022-07-06_24h36.12.119,Colour_Asymmetry_Pilot,2022.1.3,Win32,60.0024001,62c50e9c1127f2cd403a315f,,,,,,,,,,,,,,,,,,,,fourtwo,,4,1.1039,,,,,,,,,,,,,,,,,,,,,,,,,,,,,,,,,,"[-0.9688,-0.7412000000000001,-0.4902000000000001]","[-0.5922000000000001,-0.7492000000000001,-0.5296000000000001]",44,77,1,0,0,response1disk,-7,-5,1,0,0,rectangle,-7,-5,1,0,0,,2,0.0042,0,-7,-5,1,0,0,0,10,10,38,1,38,first,,,,,,,,,,,,,,,,,,,,,,,,,,,,,,,,,,,,,,,,,,,,,,,,,,,,,,,,,,,,,,,,,,,,,,,,
,,,,,,61608282bfa4c871fdedef92,62c53995b36304f770c36670,2022-07-06_24h36.12.119,Colour_Asymmetry_Pilot,2022.1.3,Win32,60.0024001,62c50e9c1127f2cd403a315f,,,,,,,,,,,,,,,,,,,,threefour,,-4,1.0404,,,,,,,,,,,,,,,,,,,,,,,,,,,,,,,,,,"[-0.4902000000000001,0.2704,-0.45899999999999996]","[-0.34920000000000007,-0.702,-0.5216]",-54,94,1,0,0,response7disk,-8,15,1,0,0,rectangle,-8,15,1,0,0,,3,0.0021,0,-8,15,1,0,0,0,11,11,135,1,54,second,,,,,,,,,,,,,,,,,,,,,,,,,,,,,,,,,,,,,,,,,,,,,,,,,,,,,,,,,,,,,,,,,,,,,,,,
,,,,,,61608282bfa4c871fdedef92,62c53995b36304f770c36670,2022-07-06_24h36.12.119,Colour_Asymmetry_Pilot,2022.1.3,Win32,60.0024001,62c50e9c1127f2cd403a315f,,,,,,,,,,,,,,,,,,,,twofour,,-4,1.5469,,,,,,,,,,,,,,,,,,,,,,,,,,,,,,,,,,"[0.7018,0.7802,-0.16079999999999994]","[0.09799999999999986,-0.24719999999999998,0.15280000000000005]",-24,46,1,0,0,response7disk,-7,14,1,0,0,rectangle,-7,14,1,0,0,,2,0.0021,0,-7,14,1,0,0,0,12,12,60,1,60,first,,,,,,,,,,,,,,,,,,,,,,,,,,,,,,,,,,,,,,,,,,,,,,,,,,,,,,,,,,,,,,,,,,,,,,,,
,,,,,,61608282bfa4c871fdedef92,62c53995b36304f770c36670,2022-07-06_24h36.12.119,Colour_Asymmetry_Pilot,2022.1.3,Win32,60.0024001,62c50e9c1127f2cd403a315f,,,,,,,,,,,,,,,,,,,,threefour,,4,1.3177,,,,,,,,,,,,,,,,,,,,,,,,,,,,,,,,,,"[-0.5922000000000001,-0.7492000000000001,-0.5296000000000001]","[-0.9688,-0.7412000000000001,-0.4902000000000001]",48,102,1,0,0,response1disk,-4,-2,1,0,0,rectangle,-4,-2,1,0,0,,1,0.0025,0,-4,-2,1,0,0,0,13,13,119,1,38,second,,,,,,,,,,,,,,,,,,,,,,,,,,,,,,,,,,,,,,,,,,,,,,,,,,,,,,,,,,,,,,,,,,,,,,,,
,,,,,,61608282bfa4c871fdedef92,62c53995b36304f770c36670,2022-07-06_24h36.12.119,Colour_Asymmetry_Pilot,2022.1.3,Win32,60.0024001,62c50e9c1127f2cd403a315f,,,,,,,,,,,,,,,,,,,,twofour,,2,2.0246,,,,,,,,,,,,,,,,,,,,,,,,,,,,,,,,,,"[0.796,0.2156,-0.27859999999999996]","[0.34099999999999997,0.5841999999999998,-0.9844]",83,-34,1,0,0,response3disk,10,2,1,0,0,rectangle,10,2,1,0,0,,1,0.0004,0,10,2,1,0,0,0,14,14,120,1,39,second,,,,,,,,,,,,,,,,,,,,,,,,,,,,,,,,,,,,,,,,,,,,,,,,,,,,,,,,,,,,,,,,,,,,,,,,
,,,,,,61608282bfa4c871fdedef92,62c53995b36304f770c36670,2022-07-06_24h36.12.119,Colour_Asymmetry_Pilot,2022.1.3,Win32,60.0024001,62c50e9c1127f2cd403a315f,,,,,,,,,,,,,,,,,,,,threefour,,3,1.9389,,,,,,,,,,,,,,,,,,,,,,,,,,,,,,,,,,"[-0.6706000000000001,-0.6157999999999999,-0.6786]","[-0.5922000000000001,-0.7492000000000001,-0.5296000000000001]",83,39,1,0,0,response1disk,-6,4,1,0,0,rectangle,-6,4,1,0,0,,3,0.003,0,-6,4,1,0,0,0,15,15,94,1,13,second,,,,,,,,,,,,,,,,,,,,,,,,,,,,,,,,,,,,,,,,,,,,,,,,,,,,,,,,,,,,,,,,,,,,,,,,
,,,,,,61608282bfa4c871fdedef92,62c53995b36304f770c36670,2022-07-06_24h36.12.119,Colour_Asymmetry_Pilot,2022.1.3,Win32,60.0024001,62c50e9c1127f2cd403a315f,,,,,,,,,,,,,,,,,,,,fourthree,,2,2.2471,,,,,,,,,,,,,,,,,,,,,,,,,,,,,,,,,,"[0.05879999999999996,0.2784,0.5841999999999998]","[-0.2942,-0.24719999999999998,-0.357]",65,-37,1,0,0,response3disk,0,1,1,0,0,rectangle,0,1,1,0,0,,1,0.0019,0,0,1,1,0,0,0,16,16,67,1,67,first,,,,,,,,,,,,,,,,,,,,,,,,,,,,,,,,,,,,,,,,,,,,,,,,,,,,,,,,,,,,,,,,,,,,,,,,
,,,,,,61608282bfa4c871fdedef92,62c53995b36304f770c36670,2022-07-06_24h36.12.119,Colour_Asymmetry_Pilot,2022.1.3,Win32,60.0024001,62c50e9c1127f2cd403a315f,,,,,,,,,,,,,,,,,,,,threeone,,1,1.4872,,,,,,,,,,,,,,,,,,,,,,,,,,,,,,,,,,"[-0.10599999999999998,-0.10599999999999998,0.5841999999999998]","[0.37240000000000006,0.4980000000000002,-0.2864]",37,-57,1,0,0,response3disk,7,14,1,0,0,rectangle,7,14,1,0,0,,3,0.0019,0,7,14,1,0,0,0,17,17,114,1,33,second,,,,,,,,,,,,,,,,,,,,,,,,,,,,,,,,,,,,,,,,,,,,,,,,,,,,,,,,,,,,,,,,,,,,,,,,
,,,,,,61608282bfa4c871fdedef92,62c53995b36304f770c36670,2022-07-06_24h36.12.119,Colour_Asymmetry_Pilot,2022.1.3,Win32,60.0024001,62c50e9c1127f2cd403a315f,,,,,,,,,,,,,,,,,,,,threefour,,-4,2.0575,,,,,,,,,,,,,,,,,,,,,,,,,,,,,,,,,,"[0.2862,0.7802,0.3568]","[-0.38039999999999996,-0.4276,-0.1452]",-34,77,1,0,0,response7disk,-5,12,1,0,0,rectangle,34,-83,1,0,0,1,1,7.7219,1,-10,6,1,0,0,0,18,18,161,1,80,second,response3disk_3,rectangle,,,,,,,,,,,,,,,,,,,,,,,,,,,,,,,,,,,,,,,,,,,,,,,,,,,,,,,,,,,,,,,,,,,,,,
