trials.thisRepN,trials.thisTrialN,trials.thisN,trials.thisIndex,trials.ran,Colourcodes,participant,session,date,expName,psychopyVersion,OS,frameRate,study_id,trials_4.thisRepN,trials_4.thisTrialN,trials_4.thisN,trials_4.thisIndex,trials_4.ran,StimulusPos,key_resp.keys,key_resp.rt,key_resp_2.keys,key_resp_2.rt,key_resp_15.keys,key_resp_15.rt,key_resp_17.keys,key_resp_17.rt,key_resp_9.keys,key_resp_9.rt,key_resp_10.keys,key_resp_10.rt,Circle1_col,Ecc,Circle2_col,similarity,response_time,mouse_5.x,mouse_5.y,mouse_5.leftButton,mouse_5.midButton,mouse_5.rightButton,mouse_5.clicked_name,mouse_10.x,mouse_10.y,mouse_10.leftButton,mouse_10.midButton,mouse_10.rightButton,mouse_10.clicked_name,mouse_7.x,mouse_7.y,mouse_7.leftButton,mouse_7.midButton,mouse_7.rightButton,mouse_7.clicked_name,catchprac,catchnumberprac,mouse_6.x,mouse_6.y,mouse_6.leftButton,mouse_6.midButton,mouse_6.rightButton,mouse_6.clicked_name,duringprac.thisRepN,duringprac.thisTrialN,duringprac.thisN,duringprac.thisIndex,duringprac.ran,key_resp_22.keys,key_resp_22.rt,Circle1_colour,Circle2_colour,mouse.x,mouse.y,mouse.leftButton,mouse.midButton,mouse.rightButton,mouse.clicked_name,mouse_2.x,mouse_2.y,mouse_2.leftButton,mouse_2.midButton,mouse_2.rightButton,mouse_2.clicked_name,mouse_3.x,mouse_3.y,mouse_3.leftButton,mouse_3.midButton,mouse_3.rightButton,catchresponse,catchnumber,response_time_catch,Catch,mouse_11.x,mouse_11.y,mouse_11.leftButton,mouse_11.midButton,mouse_11.rightButton,trials_2.thisRepN,trials_2.thisTrialN,trials_2.thisN,trials_2.thisIndex,trials_2.ran,Colourpair,Temporder,mouse_3.clicked_name,mouse_11.clicked_name,trials_3.thisRepN,trials_3.thisTrialN,trials_3.thisN,trials_3.thisIndex,trials_3.ran,key_resp_instr_Ishi.keys,key_resp_instr_Ishi.rt,Ishi_trial_keyresp.keys,Ishi_trial_keyresp.rt,Ishi_textbox.text,Ishi_mouse.x,Ishi_mouse.y,Ishi_mouse.leftButton,Ishi_mouse.midButton,Ishi_mouse.rightButton,Ishi_loop.thisRepN,Ishi_loop.thisTrialN,Ishi_loop.thisN,Ishi_loop.thisIndex,Ishi_loop.ran,imageaddress,textbox.text,mouse_4.x,mouse_4.y,mouse_4.leftButton,mouse_4.midButton,mouse_4.rightButton,mouse_4.clicked_name,textbox_2.text,mouse_8.x,mouse_8.y,mouse_8.leftButton,mouse_8.midButton,mouse_8.rightButton,mouse_8.clicked_name,textbox_3.text,mouse_9.x,mouse_9.y,mouse_9.leftButton,mouse_9.midButton,mouse_9.rightButton,mouse_9.clicked_name,textbox_4.text,mouse_12.x,mouse_12.y,mouse_12.leftButton,mouse_12.midButton,mouse_12.rightButton,mouse_12.clicked_name,textbox_5.text,mouse_13.x,mouse_13.y,mouse_13.leftButton,mouse_13.midButton,mouse_13.rightButton,mouse_13.clicked_name,textbox_6.text,mouse_14.x,mouse_14.y,mouse_14.leftButton,mouse_14.midButton,mouse_14.rightButton,mouse_14.clicked_name,textbox_7.text,mouse_15.x,mouse_15.y,mouse_15.leftButton,mouse_15.midButton,mouse_15.rightButton,mouse_15.clicked_name
0,0,0,77,1,,61529431424a44b8051adf15,62c53a84bd4e8d528a60b849,2022-07-06_09h32.38.571,Colour_Asymmetry_Pilot,2022.1.3,MacIntel,58.82352941,62c50e9c1127f2cd403a315f,,,,,,,,,,,,,,,,,,,,,,,,,,,,,,,,,,,,,,,,,,,,,,,,,,,,,,,,,,,,,,,,,,,,,,,,,,,,,,,,,,,,,,,,,,,,,,,,,,,,,,,,,,,,,,,,,,,,,,,,,,,,,,,,,,,,,,,,,,,,,,,,,,,,,,,,,,,,,,,,,,,
0,1,1,39,1,,61529431424a44b8051adf15,62c53a84bd4e8d528a60b849,2022-07-06_09h32.38.571,Colour_Asymmetry_Pilot,2022.1.3,MacIntel,58.82352941,62c50e9c1127f2cd403a315f,,,,,,,,,,,,,,,,,,,,,,,,,,,,,,,,,,,,,,,,,,,,,,,,,,,,,,,,,,,,,,,,,,,,,,,,,,,,,,,,,,,,,,,,,,,,,,,,,,,,,,,,,,,,,,,,,,,,,,,,,,,,,,,,,,,,,,,,,,,,,,,,,,,,,,,,,,,,,,,,,,,
0,2,2,4,1,,61529431424a44b8051adf15,62c53a84bd4e8d528a60b849,2022-07-06_09h32.38.571,Colour_Asymmetry_Pilot,2022.1.3,MacIntel,58.82352941,62c50e9c1127f2cd403a315f,,,,,,,,,,,,,,,,,,,,,,,,,,,,,,,,,,,,,,,,,,,,,,,,,,,,,,,,,,,,,,,,,,,,,,,,,,,,,,,,,,,,,,,,,,,,,,,,,,,,,,,,,,,,,,,,,,,,,,,,,,,,,,,,,,,,,,,,,,,,,,,,,,,,,,,,,,,,,,,,,,,
0,3,3,22,1,,61529431424a44b8051adf15,62c53a84bd4e8d528a60b849,2022-07-06_09h32.38.571,Colour_Asymmetry_Pilot,2022.1.3,MacIntel,58.82352941,62c50e9c1127f2cd403a315f,,,,,,,,,,,,,,,,,,,,,,,,,,,,,,,,,,,,,,,,,,,,,,,,,,,,,,,,,,,,,,,,,,,,,,,,,,,,,,,,,,,,,,,,,,,,,,,,,,,,,,,,,,,,,,,,,,,,,,,,,,,,,,,,,,,,,,,,,,,,,,,,,,,,,,,,,,,,,,,,,,,
0,4,4,23,1,,61529431424a44b8051adf15,62c53a84bd4e8d528a60b849,2022-07-06_09h32.38.571,Colour_Asymmetry_Pilot,2022.1.3,MacIntel,58.82352941,62c50e9c1127f2cd403a315f,,,,,,,,,,,,,,,,,,,,,,,,,,,,,,,,,,,,,,,,,,,,,,,,,,,,,,,,,,,,,,,,,,,,,,,,,,,,,,,,,,,,,,,,,,,,,,,,,,,,,,,,,,,,,,,,,,,,,,,,,,,,,,,,,,,,,,,,,,,,,,,,,,,,,,,,,,,,,,,,,,,
0,5,5,52,1,,61529431424a44b8051adf15,62c53a84bd4e8d528a60b849,2022-07-06_09h32.38.571,Colour_Asymmetry_Pilot,2022.1.3,MacIntel,58.82352941,62c50e9c1127f2cd403a315f,,,,,,,,,,,,,,,,,,,,,,,,,,,,,,,,,,,,,,,,,,,,,,,,,,,,,,,,,,,,,,,,,,,,,,,,,,,,,,,,,,,,,,,,,,,,,,,,,,,,,,,,,,,,,,,,,,,,,,,,,,,,,,,,,,,,,,,,,,,,,,,,,,,,,,,,,,,,,,,,,,,
0,6,6,91,1,,61529431424a44b8051adf15,62c53a84bd4e8d528a60b849,2022-07-06_09h32.38.571,Colour_Asymmetry_Pilot,2022.1.3,MacIntel,58.82352941,62c50e9c1127f2cd403a315f,,,,,,,,,,,,,,,,,,,,,,,,,,,,,,,,,,,,,,,,,,,,,,,,,,,,,,,,,,,,,,,,,,,,,,,,,,,,,,,,,,,,,,,,,,,,,,,,,,,,,,,,,,,,,,,,,,,,,,,,,,,,,,,,,,,,,,,,,,,,,,,,,,,,,,,,,,,,,,,,,,,
0,7,7,27,1,,61529431424a44b8051adf15,62c53a84bd4e8d528a60b849,2022-07-06_09h32.38.571,Colour_Asymmetry_Pilot,2022.1.3,MacIntel,58.82352941,62c50e9c1127f2cd403a315f,,,,,,,,,,,,,,,,,,,,,,,,,,,,,,,,,,,,,,,,,,,,,,,,,,,,,,,,,,,,,,,,,,,,,,,,,,,,,,,,,,,,,,,,,,,,,,,,,,,,,,,,,,,,,,,,,,,,,,,,,,,,,,,,,,,,,,,,,,,,,,,,,,,,,,,,,,,,,,,,,,,
0,8,8,42,1,,61529431424a44b8051adf15,62c53a84bd4e8d528a60b849,2022-07-06_09h32.38.571,Colour_Asymmetry_Pilot,2022.1.3,MacIntel,58.82352941,62c50e9c1127f2cd403a315f,,,,,,,,,,,,,,,,,,,,,,,,,,,,,,,,,,,,,,,,,,,,,,,,,,,,,,,,,,,,,,,,,,,,,,,,,,,,,,,,,,,,,,,,,,,,,,,,,,,,,,,,,,,,,,,,,,,,,,,,,,,,,,,,,,,,,,,,,,,,,,,,,,,,,,,,,,,,,,,,,,,
0,9,9,84,1,,61529431424a44b8051adf15,62c53a84bd4e8d528a60b849,2022-07-06_09h32.38.571,Colour_Asymmetry_Pilot,2022.1.3,MacIntel,58.82352941,62c50e9c1127f2cd403a315f,,,,,,,,,,,,,,,,,,,,,,,,,,,,,,,,,,,,,,,,,,,,,,,,,,,,,,,,,,,,,,,,,,,,,,,,,,,,,,,,,,,,,,,,,,,,,,,,,,,,,,,,,,,,,,,,,,,,,,,,,,,,,,,,,,,,,,,,,,,,,,,,,,,,,,,,,,,,,,,,,,,
0,10,10,78,1,,61529431424a44b8051adf15,62c53a84bd4e8d528a60b849,2022-07-06_09h32.38.571,Colour_Asymmetry_Pilot,2022.1.3,MacIntel,58.82352941,62c50e9c1127f2cd403a315f,,,,,,,,,,,,,,,,,,,,,,,,,,,,,,,,,,,,,,,,,,,,,,,,,,,,,,,,,,,,,,,,,,,,,,,,,,,,,,,,,,,,,,,,,,,,,,,,,,,,,,,,,,,,,,,,,,,,,,,,,,,,,,,,,,,,,,,,,,,,,,,,,,,,,,,,,,,,,,,,,,,
0,11,11,19,1,,61529431424a44b8051adf15,62c53a84bd4e8d528a60b849,2022-07-06_09h32.38.571,Colour_Asymmetry_Pilot,2022.1.3,MacIntel,58.82352941,62c50e9c1127f2cd403a315f,,,,,,,,,,,,,,,,,,,,,,,,,,,,,,,,,,,,,,,,,,,,,,,,,,,,,,,,,,,,,,,,,,,,,,,,,,,,,,,,,,,,,,,,,,,,,,,,,,,,,,,,,,,,,,,,,,,,,,,,,,,,,,,,,,,,,,,,,,,,,,,,,,,,,,,,,,,,,,,,,,,
0,12,12,35,1,,61529431424a44b8051adf15,62c53a84bd4e8d528a60b849,2022-07-06_09h32.38.571,Colour_Asymmetry_Pilot,2022.1.3,MacIntel,58.82352941,62c50e9c1127f2cd403a315f,,,,,,,,,,,,,,,,,,,,,,,,,,,,,,,,,,,,,,,,,,,,,,,,,,,,,,,,,,,,,,,,,,,,,,,,,,,,,,,,,,,,,,,,,,,,,,,,,,,,,,,,,,,,,,,,,,,,,,,,,,,,,,,,,,,,,,,,,,,,,,,,,,,,,,,,,,,,,,,,,,,
0,13,13,8,1,,61529431424a44b8051adf15,62c53a84bd4e8d528a60b849,2022-07-06_09h32.38.571,Colour_Asymmetry_Pilot,2022.1.3,MacIntel,58.82352941,62c50e9c1127f2cd403a315f,,,,,,,,,,,,,,,,,,,,,,,,,,,,,,,,,,,,,,,,,,,,,,,,,,,,,,,,,,,,,,,,,,,,,,,,,,,,,,,,,,,,,,,,,,,,,,,,,,,,,,,,,,,,,,,,,,,,,,,,,,,,,,,,,,,,,,,,,,,,,,,,,,,,,,,,,,,,,,,,,,,
0,14,14,57,1,,61529431424a44b8051adf15,62c53a84bd4e8d528a60b849,2022-07-06_09h32.38.571,Colour_Asymmetry_Pilot,2022.1.3,MacIntel,58.82352941,62c50e9c1127f2cd403a315f,,,,,,,,,,,,,,,,,,,,,,,,,,,,,,,,,,,,,,,,,,,,,,,,,,,,,,,,,,,,,,,,,,,,,,,,,,,,,,,,,,,,,,,,,,,,,,,,,,,,,,,,,,,,,,,,,,,,,,,,,,,,,,,,,,,,,,,,,,,,,,,,,,,,,,,,,,,,,,,,,,,
0,15,15,7,1,,61529431424a44b8051adf15,62c53a84bd4e8d528a60b849,2022-07-06_09h32.38.571,Colour_Asymmetry_Pilot,2022.1.3,MacIntel,58.82352941,62c50e9c1127f2cd403a315f,,,,,,,,,,,,,,,,,,,,,,,,,,,,,,,,,,,,,,,,,,,,,,,,,,,,,,,,,,,,,,,,,,,,,,,,,,,,,,,,,,,,,,,,,,,,,,,,,,,,,,,,,,,,,,,,,,,,,,,,,,,,,,,,,,,,,,,,,,,,,,,,,,,,,,,,,,,,,,,,,,,
0,16,16,45,1,,61529431424a44b8051adf15,62c53a84bd4e8d528a60b849,2022-07-06_09h32.38.571,Colour_Asymmetry_Pilot,2022.1.3,MacIntel,58.82352941,62c50e9c1127f2cd403a315f,,,,,,,,,,,,,,,,,,,,,,,,,,,,,,,,,,,,,,,,,,,,,,,,,,,,,,,,,,,,,,,,,,,,,,,,,,,,,,,,,,,,,,,,,,,,,,,,,,,,,,,,,,,,,,,,,,,,,,,,,,,,,,,,,,,,,,,,,,,,,,,,,,,,,,,,,,,,,,,,,,,
0,17,17,17,1,,61529431424a44b8051adf15,62c53a84bd4e8d528a60b849,2022-07-06_09h32.38.571,Colour_Asymmetry_Pilot,2022.1.3,MacIntel,58.82352941,62c50e9c1127f2cd403a315f,,,,,,,,,,,,,,,,,,,,,,,,,,,,,,,,,,,,,,,,,,,,,,,,,,,,,,,,,,,,,,,,,,,,,,,,,,,,,,,,,,,,,,,,,,,,,,,,,,,,,,,,,,,,,,,,,,,,,,,,,,,,,,,,,,,,,,,,,,,,,,,,,,,,,,,,,,,,,,,,,,,
0,18,18,56,1,,61529431424a44b8051adf15,62c53a84bd4e8d528a60b849,2022-07-06_09h32.38.571,Colour_Asymmetry_Pilot,2022.1.3,MacIntel,58.82352941,62c50e9c1127f2cd403a315f,,,,,,,,,,,,,,,,,,,,,,,,,,,,,,,,,,,,,,,,,,,,,,,,,,,,,,,,,,,,,,,,,,,,,,,,,,,,,,,,,,,,,,,,,,,,,,,,,,,,,,,,,,,,,,,,,,,,,,,,,,,,,,,,,,,,,,,,,,,,,,,,,,,,,,,,,,,,,,,,,,,
0,19,19,5,1,,61529431424a44b8051adf15,62c53a84bd4e8d528a60b849,2022-07-06_09h32.38.571,Colour_Asymmetry_Pilot,2022.1.3,MacIntel,58.82352941,62c50e9c1127f2cd403a315f,,,,,,,,,,,,,,,,,,,,,,,,,,,,,,,,,,,,,,,,,,,,,,,,,,,,,,,,,,,,,,,,,,,,,,,,,,,,,,,,,,,,,,,,,,,,,,,,,,,,,,,,,,,,,,,,,,,,,,,,,,,,,,,,,,,,,,,,,,,,,,,,,,,,,,,,,,,,,,,,,,,
0,20,20,81,1,,61529431424a44b8051adf15,62c53a84bd4e8d528a60b849,2022-07-06_09h32.38.571,Colour_Asymmetry_Pilot,2022.1.3,MacIntel,58.82352941,62c50e9c1127f2cd403a315f,,,,,,,,,,,,,,,,,,,,,,,,,,,,,,,,,,,,,,,,,,,,,,,,,,,,,,,,,,,,,,,,,,,,,,,,,,,,,,,,,,,,,,,,,,,,,,,,,,,,,,,,,,,,,,,,,,,,,,,,,,,,,,,,,,,,,,,,,,,,,,,,,,,,,,,,,,,,,,,,,,,
0,21,21,28,1,,61529431424a44b8051adf15,62c53a84bd4e8d528a60b849,2022-07-06_09h32.38.571,Colour_Asymmetry_Pilot,2022.1.3,MacIntel,58.82352941,62c50e9c1127f2cd403a315f,,,,,,,,,,,,,,,,,,,,,,,,,,,,,,,,,,,,,,,,,,,,,,,,,,,,,,,,,,,,,,,,,,,,,,,,,,,,,,,,,,,,,,,,,,,,,,,,,,,,,,,,,,,,,,,,,,,,,,,,,,,,,,,,,,,,,,,,,,,,,,,,,,,,,,,,,,,,,,,,,,,
0,22,22,29,1,,61529431424a44b8051adf15,62c53a84bd4e8d528a60b849,2022-07-06_09h32.38.571,Colour_Asymmetry_Pilot,2022.1.3,MacIntel,58.82352941,62c50e9c1127f2cd403a315f,,,,,,,,,,,,,,,,,,,,,,,,,,,,,,,,,,,,,,,,,,,,,,,,,,,,,,,,,,,,,,,,,,,,,,,,,,,,,,,,,,,,,,,,,,,,,,,,,,,,,,,,,,,,,,,,,,,,,,,,,,,,,,,,,,,,,,,,,,,,,,,,,,,,,,,,,,,,,,,,,,,
0,23,23,87,1,,61529431424a44b8051adf15,62c53a84bd4e8d528a60b849,2022-07-06_09h32.38.571,Colour_Asymmetry_Pilot,2022.1.3,MacIntel,58.82352941,62c50e9c1127f2cd403a315f,,,,,,,,,,,,,,,,,,,,,,,,,,,,,,,,,,,,,,,,,,,,,,,,,,,,,,,,,,,,,,,,,,,,,,,,,,,,,,,,,,,,,,,,,,,,,,,,,,,,,,,,,,,,,,,,,,,,,,,,,,,,,,,,,,,,,,,,,,,,,,,,,,,,,,,,,,,,,,,,,,,
0,24,24,70,1,,61529431424a44b8051adf15,62c53a84bd4e8d528a60b849,2022-07-06_09h32.38.571,Colour_Asymmetry_Pilot,2022.1.3,MacIntel,58.82352941,62c50e9c1127f2cd403a315f,,,,,,,,,,,,,,,,,,,,,,,,,,,,,,,,,,,,,,,,,,,,,,,,,,,,,,,,,,,,,,,,,,,,,,,,,,,,,,,,,,,,,,,,,,,,,,,,,,,,,,,,,,,,,,,,,,,,,,,,,,,,,,,,,,,,,,,,,,,,,,,,,,,,,,,,,,,,,,,,,,,
0,25,25,36,1,,61529431424a44b8051adf15,62c53a84bd4e8d528a60b849,2022-07-06_09h32.38.571,Colour_Asymmetry_Pilot,2022.1.3,MacIntel,58.82352941,62c50e9c1127f2cd403a315f,,,,,,,,,,,,,,,,,,,,,,,,,,,,,,,,,,,,,,,,,,,,,,,,,,,,,,,,,,,,,,,,,,,,,,,,,,,,,,,,,,,,,,,,,,,,,,,,,,,,,,,,,,,,,,,,,,,,,,,,,,,,,,,,,,,,,,,,,,,,,,,,,,,,,,,,,,,,,,,,,,,
0,26,26,67,1,,61529431424a44b8051adf15,62c53a84bd4e8d528a60b849,2022-07-06_09h32.38.571,Colour_Asymmetry_Pilot,2022.1.3,MacIntel,58.82352941,62c50e9c1127f2cd403a315f,,,,,,,,,,,,,,,,,,,,,,,,,,,,,,,,,,,,,,,,,,,,,,,,,,,,,,,,,,,,,,,,,,,,,,,,,,,,,,,,,,,,,,,,,,,,,,,,,,,,,,,,,,,,,,,,,,,,,,,,,,,,,,,,,,,,,,,,,,,,,,,,,,,,,,,,,,,,,,,,,,,
0,27,27,49,1,,61529431424a44b8051adf15,62c53a84bd4e8d528a60b849,2022-07-06_09h32.38.571,Colour_Asymmetry_Pilot,2022.1.3,MacIntel,58.82352941,62c50e9c1127f2cd403a315f,,,,,,,,,,,,,,,,,,,,,,,,,,,,,,,,,,,,,,,,,,,,,,,,,,,,,,,,,,,,,,,,,,,,,,,,,,,,,,,,,,,,,,,,,,,,,,,,,,,,,,,,,,,,,,,,,,,,,,,,,,,,,,,,,,,,,,,,,,,,,,,,,,,,,,,,,,,,,,,,,,,
0,28,28,66,1,,61529431424a44b8051adf15,62c53a84bd4e8d528a60b849,2022-07-06_09h32.38.571,Colour_Asymmetry_Pilot,2022.1.3,MacIntel,58.82352941,62c50e9c1127f2cd403a315f,,,,,,,,,,,,,,,,,,,,,,,,,,,,,,,,,,,,,,,,,,,,,,,,,,,,,,,,,,,,,,,,,,,,,,,,,,,,,,,,,,,,,,,,,,,,,,,,,,,,,,,,,,,,,,,,,,,,,,,,,,,,,,,,,,,,,,,,,,,,,,,,,,,,,,,,,,,,,,,,,,,
0,29,29,74,1,,61529431424a44b8051adf15,62c53a84bd4e8d528a60b849,2022-07-06_09h32.38.571,Colour_Asymmetry_Pilot,2022.1.3,MacIntel,58.82352941,62c50e9c1127f2cd403a315f,,,,,,,,,,,,,,,,,,,,,,,,,,,,,,,,,,,,,,,,,,,,,,,,,,,,,,,,,,,,,,,,,,,,,,,,,,,,,,,,,,,,,,,,,,,,,,,,,,,,,,,,,,,,,,,,,,,,,,,,,,,,,,,,,,,,,,,,,,,,,,,,,,,,,,,,,,,,,,,,,,,
0,30,30,54,1,,61529431424a44b8051adf15,62c53a84bd4e8d528a60b849,2022-07-06_09h32.38.571,Colour_Asymmetry_Pilot,2022.1.3,MacIntel,58.82352941,62c50e9c1127f2cd403a315f,,,,,,,,,,,,,,,,,,,,,,,,,,,,,,,,,,,,,,,,,,,,,,,,,,,,,,,,,,,,,,,,,,,,,,,,,,,,,,,,,,,,,,,,,,,,,,,,,,,,,,,,,,,,,,,,,,,,,,,,,,,,,,,,,,,,,,,,,,,,,,,,,,,,,,,,,,,,,,,,,,,
0,31,31,24,1,,61529431424a44b8051adf15,62c53a84bd4e8d528a60b849,2022-07-06_09h32.38.571,Colour_Asymmetry_Pilot,2022.1.3,MacIntel,58.82352941,62c50e9c1127f2cd403a315f,,,,,,,,,,,,,,,,,,,,,,,,,,,,,,,,,,,,,,,,,,,,,,,,,,,,,,,,,,,,,,,,,,,,,,,,,,,,,,,,,,,,,,,,,,,,,,,,,,,,,,,,,,,,,,,,,,,,,,,,,,,,,,,,,,,,,,,,,,,,,,,,,,,,,,,,,,,,,,,,,,,
0,32,32,10,1,,61529431424a44b8051adf15,62c53a84bd4e8d528a60b849,2022-07-06_09h32.38.571,Colour_Asymmetry_Pilot,2022.1.3,MacIntel,58.82352941,62c50e9c1127f2cd403a315f,,,,,,,,,,,,,,,,,,,,,,,,,,,,,,,,,,,,,,,,,,,,,,,,,,,,,,,,,,,,,,,,,,,,,,,,,,,,,,,,,,,,,,,,,,,,,,,,,,,,,,,,,,,,,,,,,,,,,,,,,,,,,,,,,,,,,,,,,,,,,,,,,,,,,,,,,,,,,,,,,,,
0,33,33,14,1,,61529431424a44b8051adf15,62c53a84bd4e8d528a60b849,2022-07-06_09h32.38.571,Colour_Asymmetry_Pilot,2022.1.3,MacIntel,58.82352941,62c50e9c1127f2cd403a315f,,,,,,,,,,,,,,,,,,,,,,,,,,,,,,,,,,,,,,,,,,,,,,,,,,,,,,,,,,,,,,,,,,,,,,,,,,,,,,,,,,,,,,,,,,,,,,,,,,,,,,,,,,,,,,,,,,,,,,,,,,,,,,,,,,,,,,,,,,,,,,,,,,,,,,,,,,,,,,,,,,,
0,34,34,33,1,,61529431424a44b8051adf15,62c53a84bd4e8d528a60b849,2022-07-06_09h32.38.571,Colour_Asymmetry_Pilot,2022.1.3,MacIntel,58.82352941,62c50e9c1127f2cd403a315f,,,,,,,,,,,,,,,,,,,,,,,,,,,,,,,,,,,,,,,,,,,,,,,,,,,,,,,,,,,,,,,,,,,,,,,,,,,,,,,,,,,,,,,,,,,,,,,,,,,,,,,,,,,,,,,,,,,,,,,,,,,,,,,,,,,,,,,,,,,,,,,,,,,,,,,,,,,,,,,,,,,
0,35,35,11,1,,61529431424a44b8051adf15,62c53a84bd4e8d528a60b849,2022-07-06_09h32.38.571,Colour_Asymmetry_Pilot,2022.1.3,MacIntel,58.82352941,62c50e9c1127f2cd403a315f,,,,,,,,,,,,,,,,,,,,,,,,,,,,,,,,,,,,,,,,,,,,,,,,,,,,,,,,,,,,,,,,,,,,,,,,,,,,,,,,,,,,,,,,,,,,,,,,,,,,,,,,,,,,,,,,,,,,,,,,,,,,,,,,,,,,,,,,,,,,,,,,,,,,,,,,,,,,,,,,,,,
0,36,36,58,1,,61529431424a44b8051adf15,62c53a84bd4e8d528a60b849,2022-07-06_09h32.38.571,Colour_Asymmetry_Pilot,2022.1.3,MacIntel,58.82352941,62c50e9c1127f2cd403a315f,,,,,,,,,,,,,,,,,,,,,,,,,,,,,,,,,,,,,,,,,,,,,,,,,,,,,,,,,,,,,,,,,,,,,,,,,,,,,,,,,,,,,,,,,,,,,,,,,,,,,,,,,,,,,,,,,,,,,,,,,,,,,,,,,,,,,,,,,,,,,,,,,,,,,,,,,,,,,,,,,,,
0,37,37,50,1,,61529431424a44b8051adf15,62c53a84bd4e8d528a60b849,2022-07-06_09h32.38.571,Colour_Asymmetry_Pilot,2022.1.3,MacIntel,58.82352941,62c50e9c1127f2cd403a315f,,,,,,,,,,,,,,,,,,,,,,,,,,,,,,,,,,,,,,,,,,,,,,,,,,,,,,,,,,,,,,,,,,,,,,,,,,,,,,,,,,,,,,,,,,,,,,,,,,,,,,,,,,,,,,,,,,,,,,,,,,,,,,,,,,,,,,,,,,,,,,,,,,,,,,,,,,,,,,,,,,,
0,38,38,60,1,,61529431424a44b8051adf15,62c53a84bd4e8d528a60b849,2022-07-06_09h32.38.571,Colour_Asymmetry_Pilot,2022.1.3,MacIntel,58.82352941,62c50e9c1127f2cd403a315f,,,,,,,,,,,,,,,,,,,,,,,,,,,,,,,,,,,,,,,,,,,,,,,,,,,,,,,,,,,,,,,,,,,,,,,,,,,,,,,,,,,,,,,,,,,,,,,,,,,,,,,,,,,,,,,,,,,,,,,,,,,,,,,,,,,,,,,,,,,,,,,,,,,,,,,,,,,,,,,,,,,
0,39,39,2,1,,61529431424a44b8051adf15,62c53a84bd4e8d528a60b849,2022-07-06_09h32.38.571,Colour_Asymmetry_Pilot,2022.1.3,MacIntel,58.82352941,62c50e9c1127f2cd403a315f,,,,,,,,,,,,,,,,,,,,,,,,,,,,,,,,,,,,,,,,,,,,,,,,,,,,,,,,,,,,,,,,,,,,,,,,,,,,,,,,,,,,,,,,,,,,,,,,,,,,,,,,,,,,,,,,,,,,,,,,,,,,,,,,,,,,,,,,,,,,,,,,,,,,,,,,,,,,,,,,,,,
0,40,40,21,1,,61529431424a44b8051adf15,62c53a84bd4e8d528a60b849,2022-07-06_09h32.38.571,Colour_Asymmetry_Pilot,2022.1.3,MacIntel,58.82352941,62c50e9c1127f2cd403a315f,,,,,,,,,,,,,,,,,,,,,,,,,,,,,,,,,,,,,,,,,,,,,,,,,,,,,,,,,,,,,,,,,,,,,,,,,,,,,,,,,,,,,,,,,,,,,,,,,,,,,,,,,,,,,,,,,,,,,,,,,,,,,,,,,,,,,,,,,,,,,,,,,,,,,,,,,,,,,,,,,,,
0,41,41,26,1,,61529431424a44b8051adf15,62c53a84bd4e8d528a60b849,2022-07-06_09h32.38.571,Colour_Asymmetry_Pilot,2022.1.3,MacIntel,58.82352941,62c50e9c1127f2cd403a315f,,,,,,,,,,,,,,,,,,,,,,,,,,,,,,,,,,,,,,,,,,,,,,,,,,,,,,,,,,,,,,,,,,,,,,,,,,,,,,,,,,,,,,,,,,,,,,,,,,,,,,,,,,,,,,,,,,,,,,,,,,,,,,,,,,,,,,,,,,,,,,,,,,,,,,,,,,,,,,,,,,,
0,42,42,13,1,,61529431424a44b8051adf15,62c53a84bd4e8d528a60b849,2022-07-06_09h32.38.571,Colour_Asymmetry_Pilot,2022.1.3,MacIntel,58.82352941,62c50e9c1127f2cd403a315f,,,,,,,,,,,,,,,,,,,,,,,,,,,,,,,,,,,,,,,,,,,,,,,,,,,,,,,,,,,,,,,,,,,,,,,,,,,,,,,,,,,,,,,,,,,,,,,,,,,,,,,,,,,,,,,,,,,,,,,,,,,,,,,,,,,,,,,,,,,,,,,,,,,,,,,,,,,,,,,,,,,
0,43,43,92,1,,61529431424a44b8051adf15,62c53a84bd4e8d528a60b849,2022-07-06_09h32.38.571,Colour_Asymmetry_Pilot,2022.1.3,MacIntel,58.82352941,62c50e9c1127f2cd403a315f,,,,,,,,,,,,,,,,,,,,,,,,,,,,,,,,,,,,,,,,,,,,,,,,,,,,,,,,,,,,,,,,,,,,,,,,,,,,,,,,,,,,,,,,,,,,,,,,,,,,,,,,,,,,,,,,,,,,,,,,,,,,,,,,,,,,,,,,,,,,,,,,,,,,,,,,,,,,,,,,,,,
0,44,44,90,1,,61529431424a44b8051adf15,62c53a84bd4e8d528a60b849,2022-07-06_09h32.38.571,Colour_Asymmetry_Pilot,2022.1.3,MacIntel,58.82352941,62c50e9c1127f2cd403a315f,,,,,,,,,,,,,,,,,,,,,,,,,,,,,,,,,,,,,,,,,,,,,,,,,,,,,,,,,,,,,,,,,,,,,,,,,,,,,,,,,,,,,,,,,,,,,,,,,,,,,,,,,,,,,,,,,,,,,,,,,,,,,,,,,,,,,,,,,,,,,,,,,,,,,,,,,,,,,,,,,,,
0,45,45,79,1,,61529431424a44b8051adf15,62c53a84bd4e8d528a60b849,2022-07-06_09h32.38.571,Colour_Asymmetry_Pilot,2022.1.3,MacIntel,58.82352941,62c50e9c1127f2cd403a315f,,,,,,,,,,,,,,,,,,,,,,,,,,,,,,,,,,,,,,,,,,,,,,,,,,,,,,,,,,,,,,,,,,,,,,,,,,,,,,,,,,,,,,,,,,,,,,,,,,,,,,,,,,,,,,,,,,,,,,,,,,,,,,,,,,,,,,,,,,,,,,,,,,,,,,,,,,,,,,,,,,,
0,46,46,68,1,,61529431424a44b8051adf15,62c53a84bd4e8d528a60b849,2022-07-06_09h32.38.571,Colour_Asymmetry_Pilot,2022.1.3,MacIntel,58.82352941,62c50e9c1127f2cd403a315f,,,,,,,,,,,,,,,,,,,,,,,,,,,,,,,,,,,,,,,,,,,,,,,,,,,,,,,,,,,,,,,,,,,,,,,,,,,,,,,,,,,,,,,,,,,,,,,,,,,,,,,,,,,,,,,,,,,,,,,,,,,,,,,,,,,,,,,,,,,,,,,,,,,,,,,,,,,,,,,,,,,
0,47,47,37,1,,61529431424a44b8051adf15,62c53a84bd4e8d528a60b849,2022-07-06_09h32.38.571,Colour_Asymmetry_Pilot,2022.1.3,MacIntel,58.82352941,62c50e9c1127f2cd403a315f,,,,,,,,,,,,,,,,,,,,,,,,,,,,,,,,,,,,,,,,,,,,,,,,,,,,,,,,,,,,,,,,,,,,,,,,,,,,,,,,,,,,,,,,,,,,,,,,,,,,,,,,,,,,,,,,,,,,,,,,,,,,,,,,,,,,,,,,,,,,,,,,,,,,,,,,,,,,,,,,,,,
0,48,48,48,1,,61529431424a44b8051adf15,62c53a84bd4e8d528a60b849,2022-07-06_09h32.38.571,Colour_Asymmetry_Pilot,2022.1.3,MacIntel,58.82352941,62c50e9c1127f2cd403a315f,,,,,,,,,,,,,,,,,,,,,,,,,,,,,,,,,,,,,,,,,,,,,,,,,,,,,,,,,,,,,,,,,,,,,,,,,,,,,,,,,,,,,,,,,,,,,,,,,,,,,,,,,,,,,,,,,,,,,,,,,,,,,,,,,,,,,,,,,,,,,,,,,,,,,,,,,,,,,,,,,,,
0,49,49,1,1,,61529431424a44b8051adf15,62c53a84bd4e8d528a60b849,2022-07-06_09h32.38.571,Colour_Asymmetry_Pilot,2022.1.3,MacIntel,58.82352941,62c50e9c1127f2cd403a315f,,,,,,,,,,,,,,,,,,,,,,,,,,,,,,,,,,,,,,,,,,,,,,,,,,,,,,,,,,,,,,,,,,,,,,,,,,,,,,,,,,,,,,,,,,,,,,,,,,,,,,,,,,,,,,,,,,,,,,,,,,,,,,,,,,,,,,,,,,,,,,,,,,,,,,,,,,,,,,,,,,,
0,50,50,69,1,,61529431424a44b8051adf15,62c53a84bd4e8d528a60b849,2022-07-06_09h32.38.571,Colour_Asymmetry_Pilot,2022.1.3,MacIntel,58.82352941,62c50e9c1127f2cd403a315f,,,,,,,,,,,,,,,,,,,,,,,,,,,,,,,,,,,,,,,,,,,,,,,,,,,,,,,,,,,,,,,,,,,,,,,,,,,,,,,,,,,,,,,,,,,,,,,,,,,,,,,,,,,,,,,,,,,,,,,,,,,,,,,,,,,,,,,,,,,,,,,,,,,,,,,,,,,,,,,,,,,
0,51,51,25,1,,61529431424a44b8051adf15,62c53a84bd4e8d528a60b849,2022-07-06_09h32.38.571,Colour_Asymmetry_Pilot,2022.1.3,MacIntel,58.82352941,62c50e9c1127f2cd403a315f,,,,,,,,,,,,,,,,,,,,,,,,,,,,,,,,,,,,,,,,,,,,,,,,,,,,,,,,,,,,,,,,,,,,,,,,,,,,,,,,,,,,,,,,,,,,,,,,,,,,,,,,,,,,,,,,,,,,,,,,,,,,,,,,,,,,,,,,,,,,,,,,,,,,,,,,,,,,,,,,,,,
0,52,52,40,1,,61529431424a44b8051adf15,62c53a84bd4e8d528a60b849,2022-07-06_09h32.38.571,Colour_Asymmetry_Pilot,2022.1.3,MacIntel,58.82352941,62c50e9c1127f2cd403a315f,,,,,,,,,,,,,,,,,,,,,,,,,,,,,,,,,,,,,,,,,,,,,,,,,,,,,,,,,,,,,,,,,,,,,,,,,,,,,,,,,,,,,,,,,,,,,,,,,,,,,,,,,,,,,,,,,,,,,,,,,,,,,,,,,,,,,,,,,,,,,,,,,,,,,,,,,,,,,,,,,,,
0,53,53,31,1,,61529431424a44b8051adf15,62c53a84bd4e8d528a60b849,2022-07-06_09h32.38.571,Colour_Asymmetry_Pilot,2022.1.3,MacIntel,58.82352941,62c50e9c1127f2cd403a315f,,,,,,,,,,,,,,,,,,,,,,,,,,,,,,,,,,,,,,,,,,,,,,,,,,,,,,,,,,,,,,,,,,,,,,,,,,,,,,,,,,,,,,,,,,,,,,,,,,,,,,,,,,,,,,,,,,,,,,,,,,,,,,,,,,,,,,,,,,,,,,,,,,,,,,,,,,,,,,,,,,,
0,54,54,12,1,,61529431424a44b8051adf15,62c53a84bd4e8d528a60b849,2022-07-06_09h32.38.571,Colour_Asymmetry_Pilot,2022.1.3,MacIntel,58.82352941,62c50e9c1127f2cd403a315f,,,,,,,,,,,,,,,,,,,,,,,,,,,,,,,,,,,,,,,,,,,,,,,,,,,,,,,,,,,,,,,,,,,,,,,,,,,,,,,,,,,,,,,,,,,,,,,,,,,,,,,,,,,,,,,,,,,,,,,,,,,,,,,,,,,,,,,,,,,,,,,,,,,,,,,,,,,,,,,,,,,
0,55,55,0,1,,61529431424a44b8051adf15,62c53a84bd4e8d528a60b849,2022-07-06_09h32.38.571,Colour_Asymmetry_Pilot,2022.1.3,MacIntel,58.82352941,62c50e9c1127f2cd403a315f,,,,,,,,,,,,,,,,,,,,,,,,,,,,,,,,,,,,,,,,,,,,,,,,,,,,,,,,,,,,,,,,,,,,,,,,,,,,,,,,,,,,,,,,,,,,,,,,,,,,,,,,,,,,,,,,,,,,,,,,,,,,,,,,,,,,,,,,,,,,,,,,,,,,,,,,,,,,,,,,,,,
0,56,56,51,1,,61529431424a44b8051adf15,62c53a84bd4e8d528a60b849,2022-07-06_09h32.38.571,Colour_Asymmetry_Pilot,2022.1.3,MacIntel,58.82352941,62c50e9c1127f2cd403a315f,,,,,,,,,,,,,,,,,,,,,,,,,,,,,,,,,,,,,,,,,,,,,,,,,,,,,,,,,,,,,,,,,,,,,,,,,,,,,,,,,,,,,,,,,,,,,,,,,,,,,,,,,,,,,,,,,,,,,,,,,,,,,,,,,,,,,,,,,,,,,,,,,,,,,,,,,,,,,,,,,,,
0,57,57,30,1,,61529431424a44b8051adf15,62c53a84bd4e8d528a60b849,2022-07-06_09h32.38.571,Colour_Asymmetry_Pilot,2022.1.3,MacIntel,58.82352941,62c50e9c1127f2cd403a315f,,,,,,,,,,,,,,,,,,,,,,,,,,,,,,,,,,,,,,,,,,,,,,,,,,,,,,,,,,,,,,,,,,,,,,,,,,,,,,,,,,,,,,,,,,,,,,,,,,,,,,,,,,,,,,,,,,,,,,,,,,,,,,,,,,,,,,,,,,,,,,,,,,,,,,,,,,,,,,,,,,,
0,58,58,80,1,,61529431424a44b8051adf15,62c53a84bd4e8d528a60b849,2022-07-06_09h32.38.571,Colour_Asymmetry_Pilot,2022.1.3,MacIntel,58.82352941,62c50e9c1127f2cd403a315f,,,,,,,,,,,,,,,,,,,,,,,,,,,,,,,,,,,,,,,,,,,,,,,,,,,,,,,,,,,,,,,,,,,,,,,,,,,,,,,,,,,,,,,,,,,,,,,,,,,,,,,,,,,,,,,,,,,,,,,,,,,,,,,,,,,,,,,,,,,,,,,,,,,,,,,,,,,,,,,,,,,
0,59,59,85,1,,61529431424a44b8051adf15,62c53a84bd4e8d528a60b849,2022-07-06_09h32.38.571,Colour_Asymmetry_Pilot,2022.1.3,MacIntel,58.82352941,62c50e9c1127f2cd403a315f,,,,,,,,,,,,,,,,,,,,,,,,,,,,,,,,,,,,,,,,,,,,,,,,,,,,,,,,,,,,,,,,,,,,,,,,,,,,,,,,,,,,,,,,,,,,,,,,,,,,,,,,,,,,,,,,,,,,,,,,,,,,,,,,,,,,,,,,,,,,,,,,,,,,,,,,,,,,,,,,,,,
0,60,60,47,1,,61529431424a44b8051adf15,62c53a84bd4e8d528a60b849,2022-07-06_09h32.38.571,Colour_Asymmetry_Pilot,2022.1.3,MacIntel,58.82352941,62c50e9c1127f2cd403a315f,,,,,,,,,,,,,,,,,,,,,,,,,,,,,,,,,,,,,,,,,,,,,,,,,,,,,,,,,,,,,,,,,,,,,,,,,,,,,,,,,,,,,,,,,,,,,,,,,,,,,,,,,,,,,,,,,,,,,,,,,,,,,,,,,,,,,,,,,,,,,,,,,,,,,,,,,,,,,,,,,,,
0,61,61,46,1,,61529431424a44b8051adf15,62c53a84bd4e8d528a60b849,2022-07-06_09h32.38.571,Colour_Asymmetry_Pilot,2022.1.3,MacIntel,58.82352941,62c50e9c1127f2cd403a315f,,,,,,,,,,,,,,,,,,,,,,,,,,,,,,,,,,,,,,,,,,,,,,,,,,,,,,,,,,,,,,,,,,,,,,,,,,,,,,,,,,,,,,,,,,,,,,,,,,,,,,,,,,,,,,,,,,,,,,,,,,,,,,,,,,,,,,,,,,,,,,,,,,,,,,,,,,,,,,,,,,,
0,62,62,83,1,,61529431424a44b8051adf15,62c53a84bd4e8d528a60b849,2022-07-06_09h32.38.571,Colour_Asymmetry_Pilot,2022.1.3,MacIntel,58.82352941,62c50e9c1127f2cd403a315f,,,,,,,,,,,,,,,,,,,,,,,,,,,,,,,,,,,,,,,,,,,,,,,,,,,,,,,,,,,,,,,,,,,,,,,,,,,,,,,,,,,,,,,,,,,,,,,,,,,,,,,,,,,,,,,,,,,,,,,,,,,,,,,,,,,,,,,,,,,,,,,,,,,,,,,,,,,,,,,,,,,
0,63,63,88,1,,61529431424a44b8051adf15,62c53a84bd4e8d528a60b849,2022-07-06_09h32.38.571,Colour_Asymmetry_Pilot,2022.1.3,MacIntel,58.82352941,62c50e9c1127f2cd403a315f,,,,,,,,,,,,,,,,,,,,,,,,,,,,,,,,,,,,,,,,,,,,,,,,,,,,,,,,,,,,,,,,,,,,,,,,,,,,,,,,,,,,,,,,,,,,,,,,,,,,,,,,,,,,,,,,,,,,,,,,,,,,,,,,,,,,,,,,,,,,,,,,,,,,,,,,,,,,,,,,,,,
0,64,64,65,1,,61529431424a44b8051adf15,62c53a84bd4e8d528a60b849,2022-07-06_09h32.38.571,Colour_Asymmetry_Pilot,2022.1.3,MacIntel,58.82352941,62c50e9c1127f2cd403a315f,,,,,,,,,,,,,,,,,,,,,,,,,,,,,,,,,,,,,,,,,,,,,,,,,,,,,,,,,,,,,,,,,,,,,,,,,,,,,,,,,,,,,,,,,,,,,,,,,,,,,,,,,,,,,,,,,,,,,,,,,,,,,,,,,,,,,,,,,,,,,,,,,,,,,,,,,,,,,,,,,,,
0,65,65,9,1,,61529431424a44b8051adf15,62c53a84bd4e8d528a60b849,2022-07-06_09h32.38.571,Colour_Asymmetry_Pilot,2022.1.3,MacIntel,58.82352941,62c50e9c1127f2cd403a315f,,,,,,,,,,,,,,,,,,,,,,,,,,,,,,,,,,,,,,,,,,,,,,,,,,,,,,,,,,,,,,,,,,,,,,,,,,,,,,,,,,,,,,,,,,,,,,,,,,,,,,,,,,,,,,,,,,,,,,,,,,,,,,,,,,,,,,,,,,,,,,,,,,,,,,,,,,,,,,,,,,,
0,66,66,53,1,,61529431424a44b8051adf15,62c53a84bd4e8d528a60b849,2022-07-06_09h32.38.571,Colour_Asymmetry_Pilot,2022.1.3,MacIntel,58.82352941,62c50e9c1127f2cd403a315f,,,,,,,,,,,,,,,,,,,,,,,,,,,,,,,,,,,,,,,,,,,,,,,,,,,,,,,,,,,,,,,,,,,,,,,,,,,,,,,,,,,,,,,,,,,,,,,,,,,,,,,,,,,,,,,,,,,,,,,,,,,,,,,,,,,,,,,,,,,,,,,,,,,,,,,,,,,,,,,,,,,
0,67,67,6,1,,61529431424a44b8051adf15,62c53a84bd4e8d528a60b849,2022-07-06_09h32.38.571,Colour_Asymmetry_Pilot,2022.1.3,MacIntel,58.82352941,62c50e9c1127f2cd403a315f,,,,,,,,,,,,,,,,,,,,,,,,,,,,,,,,,,,,,,,,,,,,,,,,,,,,,,,,,,,,,,,,,,,,,,,,,,,,,,,,,,,,,,,,,,,,,,,,,,,,,,,,,,,,,,,,,,,,,,,,,,,,,,,,,,,,,,,,,,,,,,,,,,,,,,,,,,,,,,,,,,,
0,68,68,44,1,,61529431424a44b8051adf15,62c53a84bd4e8d528a60b849,2022-07-06_09h32.38.571,Colour_Asymmetry_Pilot,2022.1.3,MacIntel,58.82352941,62c50e9c1127f2cd403a315f,,,,,,,,,,,,,,,,,,,,,,,,,,,,,,,,,,,,,,,,,,,,,,,,,,,,,,,,,,,,,,,,,,,,,,,,,,,,,,,,,,,,,,,,,,,,,,,,,,,,,,,,,,,,,,,,,,,,,,,,,,,,,,,,,,,,,,,,,,,,,,,,,,,,,,,,,,,,,,,,,,,
0,69,69,38,1,,61529431424a44b8051adf15,62c53a84bd4e8d528a60b849,2022-07-06_09h32.38.571,Colour_Asymmetry_Pilot,2022.1.3,MacIntel,58.82352941,62c50e9c1127f2cd403a315f,,,,,,,,,,,,,,,,,,,,,,,,,,,,,,,,,,,,,,,,,,,,,,,,,,,,,,,,,,,,,,,,,,,,,,,,,,,,,,,,,,,,,,,,,,,,,,,,,,,,,,,,,,,,,,,,,,,,,,,,,,,,,,,,,,,,,,,,,,,,,,,,,,,,,,,,,,,,,,,,,,,
0,70,70,3,1,,61529431424a44b8051adf15,62c53a84bd4e8d528a60b849,2022-07-06_09h32.38.571,Colour_Asymmetry_Pilot,2022.1.3,MacIntel,58.82352941,62c50e9c1127f2cd403a315f,,,,,,,,,,,,,,,,,,,,,,,,,,,,,,,,,,,,,,,,,,,,,,,,,,,,,,,,,,,,,,,,,,,,,,,,,,,,,,,,,,,,,,,,,,,,,,,,,,,,,,,,,,,,,,,,,,,,,,,,,,,,,,,,,,,,,,,,,,,,,,,,,,,,,,,,,,,,,,,,,,,
0,71,71,59,1,,61529431424a44b8051adf15,62c53a84bd4e8d528a60b849,2022-07-06_09h32.38.571,Colour_Asymmetry_Pilot,2022.1.3,MacIntel,58.82352941,62c50e9c1127f2cd403a315f,,,,,,,,,,,,,,,,,,,,,,,,,,,,,,,,,,,,,,,,,,,,,,,,,,,,,,,,,,,,,,,,,,,,,,,,,,,,,,,,,,,,,,,,,,,,,,,,,,,,,,,,,,,,,,,,,,,,,,,,,,,,,,,,,,,,,,,,,,,,,,,,,,,,,,,,,,,,,,,,,,,
0,72,72,63,1,,61529431424a44b8051adf15,62c53a84bd4e8d528a60b849,2022-07-06_09h32.38.571,Colour_Asymmetry_Pilot,2022.1.3,MacIntel,58.82352941,62c50e9c1127f2cd403a315f,,,,,,,,,,,,,,,,,,,,,,,,,,,,,,,,,,,,,,,,,,,,,,,,,,,,,,,,,,,,,,,,,,,,,,,,,,,,,,,,,,,,,,,,,,,,,,,,,,,,,,,,,,,,,,,,,,,,,,,,,,,,,,,,,,,,,,,,,,,,,,,,,,,,,,,,,,,,,,,,,,,
0,73,73,89,1,,61529431424a44b8051adf15,62c53a84bd4e8d528a60b849,2022-07-06_09h32.38.571,Colour_Asymmetry_Pilot,2022.1.3,MacIntel,58.82352941,62c50e9c1127f2cd403a315f,,,,,,,,,,,,,,,,,,,,,,,,,,,,,,,,,,,,,,,,,,,,,,,,,,,,,,,,,,,,,,,,,,,,,,,,,,,,,,,,,,,,,,,,,,,,,,,,,,,,,,,,,,,,,,,,,,,,,,,,,,,,,,,,,,,,,,,,,,,,,,,,,,,,,,,,,,,,,,,,,,,
0,74,74,62,1,,61529431424a44b8051adf15,62c53a84bd4e8d528a60b849,2022-07-06_09h32.38.571,Colour_Asymmetry_Pilot,2022.1.3,MacIntel,58.82352941,62c50e9c1127f2cd403a315f,,,,,,,,,,,,,,,,,,,,,,,,,,,,,,,,,,,,,,,,,,,,,,,,,,,,,,,,,,,,,,,,,,,,,,,,,,,,,,,,,,,,,,,,,,,,,,,,,,,,,,,,,,,,,,,,,,,,,,,,,,,,,,,,,,,,,,,,,,,,,,,,,,,,,,,,,,,,,,,,,,,
0,75,75,64,1,,61529431424a44b8051adf15,62c53a84bd4e8d528a60b849,2022-07-06_09h32.38.571,Colour_Asymmetry_Pilot,2022.1.3,MacIntel,58.82352941,62c50e9c1127f2cd403a315f,,,,,,,,,,,,,,,,,,,,,,,,,,,,,,,,,,,,,,,,,,,,,,,,,,,,,,,,,,,,,,,,,,,,,,,,,,,,,,,,,,,,,,,,,,,,,,,,,,,,,,,,,,,,,,,,,,,,,,,,,,,,,,,,,,,,,,,,,,,,,,,,,,,,,,,,,,,,,,,,,,,
0,76,76,86,1,,61529431424a44b8051adf15,62c53a84bd4e8d528a60b849,2022-07-06_09h32.38.571,Colour_Asymmetry_Pilot,2022.1.3,MacIntel,58.82352941,62c50e9c1127f2cd403a315f,,,,,,,,,,,,,,,,,,,,,,,,,,,,,,,,,,,,,,,,,,,,,,,,,,,,,,,,,,,,,,,,,,,,,,,,,,,,,,,,,,,,,,,,,,,,,,,,,,,,,,,,,,,,,,,,,,,,,,,,,,,,,,,,,,,,,,,,,,,,,,,,,,,,,,,,,,,,,,,,,,,
0,77,77,41,1,,61529431424a44b8051adf15,62c53a84bd4e8d528a60b849,2022-07-06_09h32.38.571,Colour_Asymmetry_Pilot,2022.1.3,MacIntel,58.82352941,62c50e9c1127f2cd403a315f,,,,,,,,,,,,,,,,,,,,,,,,,,,,,,,,,,,,,,,,,,,,,,,,,,,,,,,,,,,,,,,,,,,,,,,,,,,,,,,,,,,,,,,,,,,,,,,,,,,,,,,,,,,,,,,,,,,,,,,,,,,,,,,,,,,,,,,,,,,,,,,,,,,,,,,,,,,,,,,,,,,
0,78,78,75,1,,61529431424a44b8051adf15,62c53a84bd4e8d528a60b849,2022-07-06_09h32.38.571,Colour_Asymmetry_Pilot,2022.1.3,MacIntel,58.82352941,62c50e9c1127f2cd403a315f,,,,,,,,,,,,,,,,,,,,,,,,,,,,,,,,,,,,,,,,,,,,,,,,,,,,,,,,,,,,,,,,,,,,,,,,,,,,,,,,,,,,,,,,,,,,,,,,,,,,,,,,,,,,,,,,,,,,,,,,,,,,,,,,,,,,,,,,,,,,,,,,,,,,,,,,,,,,,,,,,,,
0,79,79,20,1,,61529431424a44b8051adf15,62c53a84bd4e8d528a60b849,2022-07-06_09h32.38.571,Colour_Asymmetry_Pilot,2022.1.3,MacIntel,58.82352941,62c50e9c1127f2cd403a315f,,,,,,,,,,,,,,,,,,,,,,,,,,,,,,,,,,,,,,,,,,,,,,,,,,,,,,,,,,,,,,,,,,,,,,,,,,,,,,,,,,,,,,,,,,,,,,,,,,,,,,,,,,,,,,,,,,,,,,,,,,,,,,,,,,,,,,,,,,,,,,,,,,,,,,,,,,,,,,,,,,,
0,80,80,16,1,,61529431424a44b8051adf15,62c53a84bd4e8d528a60b849,2022-07-06_09h32.38.571,Colour_Asymmetry_Pilot,2022.1.3,MacIntel,58.82352941,62c50e9c1127f2cd403a315f,,,,,,,,,,,,,,,,,,,,,,,,,,,,,,,,,,,,,,,,,,,,,,,,,,,,,,,,,,,,,,,,,,,,,,,,,,,,,,,,,,,,,,,,,,,,,,,,,,,,,,,,,,,,,,,,,,,,,,,,,,,,,,,,,,,,,,,,,,,,,,,,,,,,,,,,,,,,,,,,,,,
0,81,81,18,1,,61529431424a44b8051adf15,62c53a84bd4e8d528a60b849,2022-07-06_09h32.38.571,Colour_Asymmetry_Pilot,2022.1.3,MacIntel,58.82352941,62c50e9c1127f2cd403a315f,,,,,,,,,,,,,,,,,,,,,,,,,,,,,,,,,,,,,,,,,,,,,,,,,,,,,,,,,,,,,,,,,,,,,,,,,,,,,,,,,,,,,,,,,,,,,,,,,,,,,,,,,,,,,,,,,,,,,,,,,,,,,,,,,,,,,,,,,,,,,,,,,,,,,,,,,,,,,,,,,,,
0,82,82,82,1,,61529431424a44b8051adf15,62c53a84bd4e8d528a60b849,2022-07-06_09h32.38.571,Colour_Asymmetry_Pilot,2022.1.3,MacIntel,58.82352941,62c50e9c1127f2cd403a315f,,,,,,,,,,,,,,,,,,,,,,,,,,,,,,,,,,,,,,,,,,,,,,,,,,,,,,,,,,,,,,,,,,,,,,,,,,,,,,,,,,,,,,,,,,,,,,,,,,,,,,,,,,,,,,,,,,,,,,,,,,,,,,,,,,,,,,,,,,,,,,,,,,,,,,,,,,,,,,,,,,,
0,83,83,43,1,,61529431424a44b8051adf15,62c53a84bd4e8d528a60b849,2022-07-06_09h32.38.571,Colour_Asymmetry_Pilot,2022.1.3,MacIntel,58.82352941,62c50e9c1127f2cd403a315f,,,,,,,,,,,,,,,,,,,,,,,,,,,,,,,,,,,,,,,,,,,,,,,,,,,,,,,,,,,,,,,,,,,,,,,,,,,,,,,,,,,,,,,,,,,,,,,,,,,,,,,,,,,,,,,,,,,,,,,,,,,,,,,,,,,,,,,,,,,,,,,,,,,,,,,,,,,,,,,,,,,
0,84,84,71,1,,61529431424a44b8051adf15,62c53a84bd4e8d528a60b849,2022-07-06_09h32.38.571,Colour_Asymmetry_Pilot,2022.1.3,MacIntel,58.82352941,62c50e9c1127f2cd403a315f,,,,,,,,,,,,,,,,,,,,,,,,,,,,,,,,,,,,,,,,,,,,,,,,,,,,,,,,,,,,,,,,,,,,,,,,,,,,,,,,,,,,,,,,,,,,,,,,,,,,,,,,,,,,,,,,,,,,,,,,,,,,,,,,,,,,,,,,,,,,,,,,,,,,,,,,,,,,,,,,,,,
0,85,85,15,1,,61529431424a44b8051adf15,62c53a84bd4e8d528a60b849,2022-07-06_09h32.38.571,Colour_Asymmetry_Pilot,2022.1.3,MacIntel,58.82352941,62c50e9c1127f2cd403a315f,,,,,,,,,,,,,,,,,,,,,,,,,,,,,,,,,,,,,,,,,,,,,,,,,,,,,,,,,,,,,,,,,,,,,,,,,,,,,,,,,,,,,,,,,,,,,,,,,,,,,,,,,,,,,,,,,,,,,,,,,,,,,,,,,,,,,,,,,,,,,,,,,,,,,,,,,,,,,,,,,,,
0,86,86,34,1,,61529431424a44b8051adf15,62c53a84bd4e8d528a60b849,2022-07-06_09h32.38.571,Colour_Asymmetry_Pilot,2022.1.3,MacIntel,58.82352941,62c50e9c1127f2cd403a315f,,,,,,,,,,,,,,,,,,,,,,,,,,,,,,,,,,,,,,,,,,,,,,,,,,,,,,,,,,,,,,,,,,,,,,,,,,,,,,,,,,,,,,,,,,,,,,,,,,,,,,,,,,,,,,,,,,,,,,,,,,,,,,,,,,,,,,,,,,,,,,,,,,,,,,,,,,,,,,,,,,,
0,87,87,72,1,,61529431424a44b8051adf15,62c53a84bd4e8d528a60b849,2022-07-06_09h32.38.571,Colour_Asymmetry_Pilot,2022.1.3,MacIntel,58.82352941,62c50e9c1127f2cd403a315f,,,,,,,,,,,,,,,,,,,,,,,,,,,,,,,,,,,,,,,,,,,,,,,,,,,,,,,,,,,,,,,,,,,,,,,,,,,,,,,,,,,,,,,,,,,,,,,,,,,,,,,,,,,,,,,,,,,,,,,,,,,,,,,,,,,,,,,,,,,,,,,,,,,,,,,,,,,,,,,,,,,
0,88,88,73,1,,61529431424a44b8051adf15,62c53a84bd4e8d528a60b849,2022-07-06_09h32.38.571,Colour_Asymmetry_Pilot,2022.1.3,MacIntel,58.82352941,62c50e9c1127f2cd403a315f,,,,,,,,,,,,,,,,,,,,,,,,,,,,,,,,,,,,,,,,,,,,,,,,,,,,,,,,,,,,,,,,,,,,,,,,,,,,,,,,,,,,,,,,,,,,,,,,,,,,,,,,,,,,,,,,,,,,,,,,,,,,,,,,,,,,,,,,,,,,,,,,,,,,,,,,,,,,,,,,,,,
0,89,89,55,1,,61529431424a44b8051adf15,62c53a84bd4e8d528a60b849,2022-07-06_09h32.38.571,Colour_Asymmetry_Pilot,2022.1.3,MacIntel,58.82352941,62c50e9c1127f2cd403a315f,,,,,,,,,,,,,,,,,,,,,,,,,,,,,,,,,,,,,,,,,,,,,,,,,,,,,,,,,,,,,,,,,,,,,,,,,,,,,,,,,,,,,,,,,,,,,,,,,,,,,,,,,,,,,,,,,,,,,,,,,,,,,,,,,,,,,,,,,,,,,,,,,,,,,,,,,,,,,,,,,,,
0,90,90,61,1,,61529431424a44b8051adf15,62c53a84bd4e8d528a60b849,2022-07-06_09h32.38.571,Colour_Asymmetry_Pilot,2022.1.3,MacIntel,58.82352941,62c50e9c1127f2cd403a315f,,,,,,,,,,,,,,,,,,,,,,,,,,,,,,,,,,,,,,,,,,,,,,,,,,,,,,,,,,,,,,,,,,,,,,,,,,,,,,,,,,,,,,,,,,,,,,,,,,,,,,,,,,,,,,,,,,,,,,,,,,,,,,,,,,,,,,,,,,,,,,,,,,,,,,,,,,,,,,,,,,,
0,91,91,32,1,,61529431424a44b8051adf15,62c53a84bd4e8d528a60b849,2022-07-06_09h32.38.571,Colour_Asymmetry_Pilot,2022.1.3,MacIntel,58.82352941,62c50e9c1127f2cd403a315f,,,,,,,,,,,,,,,,,,,,,,,,,,,,,,,,,,,,,,,,,,,,,,,,,,,,,,,,,,,,,,,,,,,,,,,,,,,,,,,,,,,,,,,,,,,,,,,,,,,,,,,,,,,,,,,,,,,,,,,,,,,,,,,,,,,,,,,,,,,,,,,,,,,,,,,,,,,,,,,,,,,
0,92,92,76,1,,61529431424a44b8051adf15,62c53a84bd4e8d528a60b849,2022-07-06_09h32.38.571,Colour_Asymmetry_Pilot,2022.1.3,MacIntel,58.82352941,62c50e9c1127f2cd403a315f,,,,,,,,,,,,,,,,,,,,,,,,,,,,,,,,,,,,,,,,,,,,,,,,,,,,,,,,,,,,,,,,,,,,,,,,,,,,,,,,,,,,,,,,,,,,,,,,,,,,,,,,,,,,,,,,,,,,,,,,,,,,,,,,,,,,,,,,,,,,,,,,,,,,,,,,,,,,,,,,,,,
,,,,,,61529431424a44b8051adf15,62c53a84bd4e8d528a60b849,2022-07-06_09h32.38.571,Colour_Asymmetry_Pilot,2022.1.3,MacIntel,58.82352941,62c50e9c1127f2cd403a315f,0,0,0,55,1,fourthree,,,,,,,,,,,,,,,,,,,,,,,,,,,,,,,,,,,,,,,,,,,,,,,,,,,,,,,,,,,,,,,,,,,,,,,,,,,,,,,,,,,,,,,,,,,,,,,,,,,,,,,,,,,,,,,,,,,,,,,,,,,,,,,,,,,,,,,,,,,,,,,,,,,,,,,,,,,,,
,,,,,,61529431424a44b8051adf15,62c53a84bd4e8d528a60b849,2022-07-06_09h32.38.571,Colour_Asymmetry_Pilot,2022.1.3,MacIntel,58.82352941,62c50e9c1127f2cd403a315f,0,1,1,103,1,fourthree,,,,,,,,,,,,,,,,,,,,,,,,,,,,,,,,,,,,,,,,,,,,,,,,,,,,,,,,,,,,,,,,,,,,,,,,,,,,,,,,,,,,,,,,,,,,,,,,,,,,,,,,,,,,,,,,,,,,,,,,,,,,,,,,,,,,,,,,,,,,,,,,,,,,,,,,,,,,,
,,,,,,61529431424a44b8051adf15,62c53a84bd4e8d528a60b849,2022-07-06_09h32.38.571,Colour_Asymmetry_Pilot,2022.1.3,MacIntel,58.82352941,62c50e9c1127f2cd403a315f,0,2,2,152,1,onetwo,,,,,,,,,,,,,,,,,,,,,,,,,,,,,,,,,,,,,,,,,,,,,,,,,,,,,,,,,,,,,,,,,,,,,,,,,,,,,,,,,,,,,,,,,,,,,,,,,,,,,,,,,,,,,,,,,,,,,,,,,,,,,,,,,,,,,,,,,,,,,,,,,,,,,,,,,,,,,
,,,,,,61529431424a44b8051adf15,62c53a84bd4e8d528a60b849,2022-07-06_09h32.38.571,Colour_Asymmetry_Pilot,2022.1.3,MacIntel,58.82352941,62c50e9c1127f2cd403a315f,0,3,3,139,1,twofour,,,,,,,,,,,,,,,,,,,,,,,,,,,,,,,,,,,,,,,,,,,,,,,,,,,,,,,,,,,,,,,,,,,,,,,,,,,,,,,,,,,,,,,,,,,,,,,,,,,,,,,,,,,,,,,,,,,,,,,,,,,,,,,,,,,,,,,,,,,,,,,,,,,,,,,,,,,,,
,,,,,,61529431424a44b8051adf15,62c53a84bd4e8d528a60b849,2022-07-06_09h32.38.571,Colour_Asymmetry_Pilot,2022.1.3,MacIntel,58.82352941,62c50e9c1127f2cd403a315f,0,4,4,134,1,fourtwo,,,,,,,,,,,,,,,,,,,,,,,,,,,,,,,,,,,,,,,,,,,,,,,,,,,,,,,,,,,,,,,,,,,,,,,,,,,,,,,,,,,,,,,,,,,,,,,,,,,,,,,,,,,,,,,,,,,,,,,,,,,,,,,,,,,,,,,,,,,,,,,,,,,,,,,,,,,,,
,,,,,,61529431424a44b8051adf15,62c53a84bd4e8d528a60b849,2022-07-06_09h32.38.571,Colour_Asymmetry_Pilot,2022.1.3,MacIntel,58.82352941,62c50e9c1127f2cd403a315f,0,5,5,113,1,onethree,,,,,,,,,,,,,,,,,,,,,,,,,,,,,,,,,,,,,,,,,,,,,,,,,,,,,,,,,,,,,,,,,,,,,,,,,,,,,,,,,,,,,,,,,,,,,,,,,,,,,,,,,,,,,,,,,,,,,,,,,,,,,,,,,,,,,,,,,,,,,,,,,,,,,,,,,,,,,
,,,,,,61529431424a44b8051adf15,62c53a84bd4e8d528a60b849,2022-07-06_09h32.38.571,Colour_Asymmetry_Pilot,2022.1.3,MacIntel,58.82352941,62c50e9c1127f2cd403a315f,0,6,6,46,1,fourtwo,,,,,,,,,,,,,,,,,,,,,,,,,,,,,,,,,,,,,,,,,,,,,,,,,,,,,,,,,,,,,,,,,,,,,,,,,,,,,,,,,,,,,,,,,,,,,,,,,,,,,,,,,,,,,,,,,,,,,,,,,,,,,,,,,,,,,,,,,,,,,,,,,,,,,,,,,,,,,
,,,,,,61529431424a44b8051adf15,62c53a84bd4e8d528a60b849,2022-07-06_09h32.38.571,Colour_Asymmetry_Pilot,2022.1.3,MacIntel,58.82352941,62c50e9c1127f2cd403a315f,0,7,7,110,1,fourtwo,,,,,,,,,,,,,,,,,,,,,,,,,,,,,,,,,,,,,,,,,,,,,,,,,,,,,,,,,,,,,,,,,,,,,,,,,,,,,,,,,,,,,,,,,,,,,,,,,,,,,,,,,,,,,,,,,,,,,,,,,,,,,,,,,,,,,,,,,,,,,,,,,,,,,,,,,,,,,
,,,,,,61529431424a44b8051adf15,62c53a84bd4e8d528a60b849,2022-07-06_09h32.38.571,Colour_Asymmetry_Pilot,2022.1.3,MacIntel,58.82352941,62c50e9c1127f2cd403a315f,0,8,8,42,1,twoone,,,,,,,,,,,,,,,,,,,,,,,,,,,,,,,,,,,,,,,,,,,,,,,,,,,,,,,,,,,,,,,,,,,,,,,,,,,,,,,,,,,,,,,,,,,,,,,,,,,,,,,,,,,,,,,,,,,,,,,,,,,,,,,,,,,,,,,,,,,,,,,,,,,,,,,,,,,,,
,,,,,,61529431424a44b8051adf15,62c53a84bd4e8d528a60b849,2022-07-06_09h32.38.571,Colour_Asymmetry_Pilot,2022.1.3,MacIntel,58.82352941,62c50e9c1127f2cd403a315f,0,9,9,28,1,threeone,,,,,,,,,,,,,,,,,,,,,,,,,,,,,,,,,,,,,,,,,,,,,,,,,,,,,,,,,,,,,,,,,,,,,,,,,,,,,,,,,,,,,,,,,,,,,,,,,,,,,,,,,,,,,,,,,,,,,,,,,,,,,,,,,,,,,,,,,,,,,,,,,,,,,,,,,,,,,
,,,,,,61529431424a44b8051adf15,62c53a84bd4e8d528a60b849,2022-07-06_09h32.38.571,Colour_Asymmetry_Pilot,2022.1.3,MacIntel,58.82352941,62c50e9c1127f2cd403a315f,0,10,10,135,1,fourthree,,,,,,,,,,,,,,,,,,,,,,,,,,,,,,,,,,,,,,,,,,,,,,,,,,,,,,,,,,,,,,,,,,,,,,,,,,,,,,,,,,,,,,,,,,,,,,,,,,,,,,,,,,,,,,,,,,,,,,,,,,,,,,,,,,,,,,,,,,,,,,,,,,,,,,,,,,,,,
,,,,,,61529431424a44b8051adf15,62c53a84bd4e8d528a60b849,2022-07-06_09h32.38.571,Colour_Asymmetry_Pilot,2022.1.3,MacIntel,58.82352941,62c50e9c1127f2cd403a315f,0,11,11,24,1,onetwo,,,,,,,,,,,,,,,,,,,,,,,,,,,,,,,,,,,,,,,,,,,,,,,,,,,,,,,,,,,,,,,,,,,,,,,,,,,,,,,,,,,,,,,,,,,,,,,,,,,,,,,,,,,,,,,,,,,,,,,,,,,,,,,,,,,,,,,,,,,,,,,,,,,,,,,,,,,,,
,,,,,,61529431424a44b8051adf15,62c53a84bd4e8d528a60b849,2022-07-06_09h32.38.571,Colour_Asymmetry_Pilot,2022.1.3,MacIntel,58.82352941,62c50e9c1127f2cd403a315f,0,12,12,150,1,fourtwo,,,,,,,,,,,,,,,,,,,,,,,,,,,,,,,,,,,,,,,,,,,,,,,,,,,,,,,,,,,,,,,,,,,,,,,,,,,,,,,,,,,,,,,,,,,,,,,,,,,,,,,,,,,,,,,,,,,,,,,,,,,,,,,,,,,,,,,,,,,,,,,,,,,,,,,,,,,,,
,,,,,,61529431424a44b8051adf15,62c53a84bd4e8d528a60b849,2022-07-06_09h32.38.571,Colour_Asymmetry_Pilot,2022.1.3,MacIntel,58.82352941,62c50e9c1127f2cd403a315f,0,13,13,71,1,fourthree,,,,,,,,,,,,,,,,,,,,,,,,,,,,,,,,,,,,,,,,,,,,,,,,,,,,,,,,,,,,,,,,,,,,,,,,,,,,,,,,,,,,,,,,,,,,,,,,,,,,,,,,,,,,,,,,,,,,,,,,,,,,,,,,,,,,,,,,,,,,,,,,,,,,,,,,,,,,,
,,,,,,61529431424a44b8051adf15,62c53a84bd4e8d528a60b849,2022-07-06_09h32.38.571,Colour_Asymmetry_Pilot,2022.1.3,MacIntel,58.82352941,62c50e9c1127f2cd403a315f,0,14,14,138,1,twoone,,,,,,,,,,,,,,,,,,,,,,,,,,,,,,,,,,,,,,,,,,,,,,,,,,,,,,,,,,,,,,,,,,,,,,,,,,,,,,,,,,,,,,,,,,,,,,,,,,,,,,,,,,,,,,,,,,,,,,,,,,,,,,,,,,,,,,,,,,,,,,,,,,,,,,,,,,,,,
,,,,,,61529431424a44b8051adf15,62c53a84bd4e8d528a60b849,2022-07-06_09h32.38.571,Colour_Asymmetry_Pilot,2022.1.3,MacIntel,58.82352941,62c50e9c1127f2cd403a315f,0,15,15,53,1,threefour,,,,,,,,,,,,,,,,,,,,,,,,,,,,,,,,,,,,,,,,,,,,,,,,,,,,,,,,,,,,,,,,,,,,,,,,,,,,,,,,,,,,,,,,,,,,,,,,,,,,,,,,,,,,,,,,,,,,,,,,,,,,,,,,,,,,,,,,,,,,,,,,,,,,,,,,,,,,,
,,,,,,61529431424a44b8051adf15,62c53a84bd4e8d528a60b849,2022-07-06_09h32.38.571,Colour_Asymmetry_Pilot,2022.1.3,MacIntel,58.82352941,62c50e9c1127f2cd403a315f,0,16,16,37,1,threefour,,,,,,,,,,,,,,,,,,,,,,,,,,,,,,,,,,,,,,,,,,,,,,,,,,,,,,,,,,,,,,,,,,,,,,,,,,,,,,,,,,,,,,,,,,,,,,,,,,,,,,,,,,,,,,,,,,,,,,,,,,,,,,,,,,,,,,,,,,,,,,,,,,,,,,,,,,,,,
,,,,,,61529431424a44b8051adf15,62c53a84bd4e8d528a60b849,2022-07-06_09h32.38.571,Colour_Asymmetry_Pilot,2022.1.3,MacIntel,58.82352941,62c50e9c1127f2cd403a315f,0,17,17,0,1,onetwo,,,,,,,,,,,,,,,,,,,,,,,,,,,,,,,,,,,,,,,,,,,,,,,,,,,,,,,,,,,,,,,,,,,,,,,,,,,,,,,,,,,,,,,,,,,,,,,,,,,,,,,,,,,,,,,,,,,,,,,,,,,,,,,,,,,,,,,,,,,,,,,,,,,,,,,,,,,,,
,,,,,,61529431424a44b8051adf15,62c53a84bd4e8d528a60b849,2022-07-06_09h32.38.571,Colour_Asymmetry_Pilot,2022.1.3,MacIntel,58.82352941,62c50e9c1127f2cd403a315f,0,18,18,40,1,onetwo,,,,,,,,,,,,,,,,,,,,,,,,,,,,,,,,,,,,,,,,,,,,,,,,,,,,,,,,,,,,,,,,,,,,,,,,,,,,,,,,,,,,,,,,,,,,,,,,,,,,,,,,,,,,,,,,,,,,,,,,,,,,,,,,,,,,,,,,,,,,,,,,,,,,,,,,,,,,,
,,,,,,61529431424a44b8051adf15,62c53a84bd4e8d528a60b849,2022-07-06_09h32.38.571,Colour_Asymmetry_Pilot,2022.1.3,MacIntel,58.82352941,62c50e9c1127f2cd403a315f,0,19,19,5,1,threefour,,,,,,,,,,,,,,,,,,,,,,,,,,,,,,,,,,,,,,,,,,,,,,,,,,,,,,,,,,,,,,,,,,,,,,,,,,,,,,,,,,,,,,,,,,,,,,,,,,,,,,,,,,,,,,,,,,,,,,,,,,,,,,,,,,,,,,,,,,,,,,,,,,,,,,,,,,,,,
,,,,,,61529431424a44b8051adf15,62c53a84bd4e8d528a60b849,2022-07-06_09h32.38.571,Colour_Asymmetry_Pilot,2022.1.3,MacIntel,58.82352941,62c50e9c1127f2cd403a315f,0,20,20,22,1,fourtwo,,,,,,,,,,,,,,,,,,,,,,,,,,,,,,,,,,,,,,,,,,,,,,,,,,,,,,,,,,,,,,,,,,,,,,,,,,,,,,,,,,,,,,,,,,,,,,,,,,,,,,,,,,,,,,,,,,,,,,,,,,,,,,,,,,,,,,,,,,,,,,,,,,,,,,,,,,,,,
,,,,,,61529431424a44b8051adf15,62c53a84bd4e8d528a60b849,2022-07-06_09h32.38.571,Colour_Asymmetry_Pilot,2022.1.3,MacIntel,58.82352941,62c50e9c1127f2cd403a315f,0,21,21,25,1,onethree,,,,,,,,,,,,,,,,,,,,,,,,,,,,,,,,,,,,,,,,,,,,,,,,,,,,,,,,,,,,,,,,,,,,,,,,,,,,,,,,,,,,,,,,,,,,,,,,,,,,,,,,,,,,,,,,,,,,,,,,,,,,,,,,,,,,,,,,,,,,,,,,,,,,,,,,,,,,,
,,,,,,61529431424a44b8051adf15,62c53a84bd4e8d528a60b849,2022-07-06_09h32.38.571,Colour_Asymmetry_Pilot,2022.1.3,MacIntel,58.82352941,62c50e9c1127f2cd403a315f,0,22,22,63,1,fourthree,,,,,,,,,,,,,,,,,,,,,,,,,,,,,,,,,,,,,,,,,,,,,,,,,,,,,,,,,,,,,,,,,,,,,,,,,,,,,,,,,,,,,,,,,,,,,,,,,,,,,,,,,,,,,,,,,,,,,,,,,,,,,,,,,,,,,,,,,,,,,,,,,,,,,,,,,,,,,
,,,,,,61529431424a44b8051adf15,62c53a84bd4e8d528a60b849,2022-07-06_09h32.38.571,Colour_Asymmetry_Pilot,2022.1.3,MacIntel,58.82352941,62c50e9c1127f2cd403a315f,0,23,23,84,1,threeone,,,,,,,,,,,,,,,,,,,,,,,,,,,,,,,,,,,,,,,,,,,,,,,,,,,,,,,,,,,,,,,,,,,,,,,,,,,,,,,,,,,,,,,,,,,,,,,,,,,,,,,,,,,,,,,,,,,,,,,,,,,,,,,,,,,,,,,,,,,,,,,,,,,,,,,,,,,,,
,,,,,,61529431424a44b8051adf15,62c53a84bd4e8d528a60b849,2022-07-06_09h32.38.571,Colour_Asymmetry_Pilot,2022.1.3,MacIntel,58.82352941,62c50e9c1127f2cd403a315f,0,24,24,10,1,twoone,,,,,,,,,,,,,,,,,,,,,,,,,,,,,,,,,,,,,,,,,,,,,,,,,,,,,,,,,,,,,,,,,,,,,,,,,,,,,,,,,,,,,,,,,,,,,,,,,,,,,,,,,,,,,,,,,,,,,,,,,,,,,,,,,,,,,,,,,,,,,,,,,,,,,,,,,,,,,
,,,,,,61529431424a44b8051adf15,62c53a84bd4e8d528a60b849,2022-07-06_09h32.38.571,Colour_Asymmetry_Pilot,2022.1.3,MacIntel,58.82352941,62c50e9c1127f2cd403a315f,0,25,25,54,1,fourtwo,,,,,,,,,,,,,,,,,,,,,,,,,,,,,,,,,,,,,,,,,,,,,,,,,,,,,,,,,,,,,,,,,,,,,,,,,,,,,,,,,,,,,,,,,,,,,,,,,,,,,,,,,,,,,,,,,,,,,,,,,,,,,,,,,,,,,,,,,,,,,,,,,,,,,,,,,,,,,
,,,,,,61529431424a44b8051adf15,62c53a84bd4e8d528a60b849,2022-07-06_09h32.38.571,Colour_Asymmetry_Pilot,2022.1.3,MacIntel,58.82352941,62c50e9c1127f2cd403a315f,0,26,26,123,1,twofour,,,,,,,,,,,,,,,,,,,,,,,,,,,,,,,,,,,,,,,,,,,,,,,,,,,,,,,,,,,,,,,,,,,,,,,,,,,,,,,,,,,,,,,,,,,,,,,,,,,,,,,,,,,,,,,,,,,,,,,,,,,,,,,,,,,,,,,,,,,,,,,,,,,,,,,,,,,,,
,,,,,,61529431424a44b8051adf15,62c53a84bd4e8d528a60b849,2022-07-06_09h32.38.571,Colour_Asymmetry_Pilot,2022.1.3,MacIntel,58.82352941,62c50e9c1127f2cd403a315f,0,27,27,160,1,onetwo,,,,,,,,,,,,,,,,,,,,,,,,,,,,,,,,,,,,,,,,,,,,,,,,,,,,,,,,,,,,,,,,,,,,,,,,,,,,,,,,,,,,,,,,,,,,,,,,,,,,,,,,,,,,,,,,,,,,,,,,,,,,,,,,,,,,,,,,,,,,,,,,,,,,,,,,,,,,,
,,,,,,61529431424a44b8051adf15,62c53a84bd4e8d528a60b849,2022-07-06_09h32.38.571,Colour_Asymmetry_Pilot,2022.1.3,MacIntel,58.82352941,62c50e9c1127f2cd403a315f,0,28,28,132,1,threeone,,,,,,,,,,,,,,,,,,,,,,,,,,,,,,,,,,,,,,,,,,,,,,,,,,,,,,,,,,,,,,,,,,,,,,,,,,,,,,,,,,,,,,,,,,,,,,,,,,,,,,,,,,,,,,,,,,,,,,,,,,,,,,,,,,,,,,,,,,,,,,,,,,,,,,,,,,,,,
,,,,,,61529431424a44b8051adf15,62c53a84bd4e8d528a60b849,2022-07-06_09h32.38.571,Colour_Asymmetry_Pilot,2022.1.3,MacIntel,58.82352941,62c50e9c1127f2cd403a315f,0,29,29,86,1,fourtwo,,,,,,,,,,,,,,,,,,,,,,,,,,,,,,,,,,,,,,,,,,,,,,,,,,,,,,,,,,,,,,,,,,,,,,,,,,,,,,,,,,,,,,,,,,,,,,,,,,,,,,,,,,,,,,,,,,,,,,,,,,,,,,,,,,,,,,,,,,,,,,,,,,,,,,,,,,,,,
,,,,,,61529431424a44b8051adf15,62c53a84bd4e8d528a60b849,2022-07-06_09h32.38.571,Colour_Asymmetry_Pilot,2022.1.3,MacIntel,58.82352941,62c50e9c1127f2cd403a315f,0,30,30,146,1,twoone,,,,,,,,,,,,,,,,,,,,,,,,,,,,,,,,,,,,,,,,,,,,,,,,,,,,,,,,,,,,,,,,,,,,,,,,,,,,,,,,,,,,,,,,,,,,,,,,,,,,,,,,,,,,,,,,,,,,,,,,,,,,,,,,,,,,,,,,,,,,,,,,,,,,,,,,,,,,,
,,,,,,61529431424a44b8051adf15,62c53a84bd4e8d528a60b849,2022-07-06_09h32.38.571,Colour_Asymmetry_Pilot,2022.1.3,MacIntel,58.82352941,62c50e9c1127f2cd403a315f,0,31,31,23,1,fourthree,,,,,,,,,,,,,,,,,,,,,,,,,,,,,,,,,,,,,,,,,,,,,,,,,,,,,,,,,,,,,,,,,,,,,,,,,,,,,,,,,,,,,,,,,,,,,,,,,,,,,,,,,,,,,,,,,,,,,,,,,,,,,,,,,,,,,,,,,,,,,,,,,,,,,,,,,,,,,
,,,,,,61529431424a44b8051adf15,62c53a84bd4e8d528a60b849,2022-07-06_09h32.38.571,Colour_Asymmetry_Pilot,2022.1.3,MacIntel,58.82352941,62c50e9c1127f2cd403a315f,0,32,32,144,1,onetwo,,,,,,,,,,,,,,,,,,,,,,,,,,,,,,,,,,,,,,,,,,,,,,,,,,,,,,,,,,,,,,,,,,,,,,,,,,,,,,,,,,,,,,,,,,,,,,,,,,,,,,,,,,,,,,,,,,,,,,,,,,,,,,,,,,,,,,,,,,,,,,,,,,,,,,,,,,,,,
,,,,,,61529431424a44b8051adf15,62c53a84bd4e8d528a60b849,2022-07-06_09h32.38.571,Colour_Asymmetry_Pilot,2022.1.3,MacIntel,58.82352941,62c50e9c1127f2cd403a315f,0,33,33,87,1,fourthree,,,,,,,,,,,,,,,,,,,,,,,,,,,,,,,,,,,,,,,,,,,,,,,,,,,,,,,,,,,,,,,,,,,,,,,,,,,,,,,,,,,,,,,,,,,,,,,,,,,,,,,,,,,,,,,,,,,,,,,,,,,,,,,,,,,,,,,,,,,,,,,,,,,,,,,,,,,,,
,,,,,,61529431424a44b8051adf15,62c53a84bd4e8d528a60b849,2022-07-06_09h32.38.571,Colour_Asymmetry_Pilot,2022.1.3,MacIntel,58.82352941,62c50e9c1127f2cd403a315f,0,34,34,161,1,onethree,,,,,,,,,,,,,,,,,,,,,,,,,,,,,,,,,,,,,,,,,,,,,,,,,,,,,,,,,,,,,,,,,,,,,,,,,,,,,,,,,,,,,,,,,,,,,,,,,,,,,,,,,,,,,,,,,,,,,,,,,,,,,,,,,,,,,,,,,,,,,,,,,,,,,,,,,,,,,
,,,,,,61529431424a44b8051adf15,62c53a84bd4e8d528a60b849,2022-07-06_09h32.38.571,Colour_Asymmetry_Pilot,2022.1.3,MacIntel,58.82352941,62c50e9c1127f2cd403a315f,0,35,35,147,1,twofour,,,,,,,,,,,,,,,,,,,,,,,,,,,,,,,,,,,,,,,,,,,,,,,,,,,,,,,,,,,,,,,,,,,,,,,,,,,,,,,,,,,,,,,,,,,,,,,,,,,,,,,,,,,,,,,,,,,,,,,,,,,,,,,,,,,,,,,,,,,,,,,,,,,,,,,,,,,,,
,,,,,,61529431424a44b8051adf15,62c53a84bd4e8d528a60b849,2022-07-06_09h32.38.571,Colour_Asymmetry_Pilot,2022.1.3,MacIntel,58.82352941,62c50e9c1127f2cd403a315f,0,36,36,93,1,threefour,,,,,,,,,,,,,,,,,,,,,,,,,,,,,,,,,,,,,,,,,,,,,,,,,,,,,,,,,,,,,,,,,,,,,,,,,,,,,,,,,,,,,,,,,,,,,,,,,,,,,,,,,,,,,,,,,,,,,,,,,,,,,,,,,,,,,,,,,,,,,,,,,,,,,,,,,,,,,
,,,,,,61529431424a44b8051adf15,62c53a84bd4e8d528a60b849,2022-07-06_09h32.38.571,Colour_Asymmetry_Pilot,2022.1.3,MacIntel,58.82352941,62c50e9c1127f2cd403a315f,0,37,37,114,1,twoone,,,,,,,,,,,,,,,,,,,,,,,,,,,,,,,,,,,,,,,,,,,,,,,,,,,,,,,,,,,,,,,,,,,,,,,,,,,,,,,,,,,,,,,,,,,,,,,,,,,,,,,,,,,,,,,,,,,,,,,,,,,,,,,,,,,,,,,,,,,,,,,,,,,,,,,,,,,,,
,,,,,,61529431424a44b8051adf15,62c53a84bd4e8d528a60b849,2022-07-06_09h32.38.571,Colour_Asymmetry_Pilot,2022.1.3,MacIntel,58.82352941,62c50e9c1127f2cd403a315f,0,38,38,41,1,onethree,,,,,,,,,,,,,,,,,,,,,,,,,,,,,,,,,,,,,,,,,,,,,,,,,,,,,,,,,,,,,,,,,,,,,,,,,,,,,,,,,,,,,,,,,,,,,,,,,,,,,,,,,,,,,,,,,,,,,,,,,,,,,,,,,,,,,,,,,,,,,,,,,,,,,,,,,,,,,
,,,,,,61529431424a44b8051adf15,62c53a84bd4e8d528a60b849,2022-07-06_09h32.38.571,Colour_Asymmetry_Pilot,2022.1.3,MacIntel,58.82352941,62c50e9c1127f2cd403a315f,0,39,39,155,1,twofour,,,,,,,,,,,,,,,,,,,,,,,,,,,,,,,,,,,,,,,,,,,,,,,,,,,,,,,,,,,,,,,,,,,,,,,,,,,,,,,,,,,,,,,,,,,,,,,,,,,,,,,,,,,,,,,,,,,,,,,,,,,,,,,,,,,,,,,,,,,,,,,,,,,,,,,,,,,,,
,,,,,,61529431424a44b8051adf15,62c53a84bd4e8d528a60b849,2022-07-06_09h32.38.571,Colour_Asymmetry_Pilot,2022.1.3,MacIntel,58.82352941,62c50e9c1127f2cd403a315f,0,40,40,88,1,onetwo,,,,,,,,,,,,,,,,,,,,,,,,,,,,,,,,,,,,,,,,,,,,,,,,,,,,,,,,,,,,,,,,,,,,,,,,,,,,,,,,,,,,,,,,,,,,,,,,,,,,,,,,,,,,,,,,,,,,,,,,,,,,,,,,,,,,,,,,,,,,,,,,,,,,,,,,,,,,,
,,,,,,61529431424a44b8051adf15,62c53a84bd4e8d528a60b849,2022-07-06_09h32.38.571,Colour_Asymmetry_Pilot,2022.1.3,MacIntel,58.82352941,62c50e9c1127f2cd403a315f,0,41,41,148,1,threeone,,,,,,,,,,,,,,,,,,,,,,,,,,,,,,,,,,,,,,,,,,,,,,,,,,,,,,,,,,,,,,,,,,,,,,,,,,,,,,,,,,,,,,,,,,,,,,,,,,,,,,,,,,,,,,,,,,,,,,,,,,,,,,,,,,,,,,,,,,,,,,,,,,,,,,,,,,,,,
,,,,,,61529431424a44b8051adf15,62c53a84bd4e8d528a60b849,2022-07-06_09h32.38.571,Colour_Asymmetry_Pilot,2022.1.3,MacIntel,58.82352941,62c50e9c1127f2cd403a315f,0,42,42,90,1,twoone,,,,,,,,,,,,,,,,,,,,,,,,,,,,,,,,,,,,,,,,,,,,,,,,,,,,,,,,,,,,,,,,,,,,,,,,,,,,,,,,,,,,,,,,,,,,,,,,,,,,,,,,,,,,,,,,,,,,,,,,,,,,,,,,,,,,,,,,,,,,,,,,,,,,,,,,,,,,,
,,,,,,61529431424a44b8051adf15,62c53a84bd4e8d528a60b849,2022-07-06_09h32.38.571,Colour_Asymmetry_Pilot,2022.1.3,MacIntel,58.82352941,62c50e9c1127f2cd403a315f,0,43,43,27,1,twofour,,,,,,,,,,,,,,,,,,,,,,,,,,,,,,,,,,,,,,,,,,,,,,,,,,,,,,,,,,,,,,,,,,,,,,,,,,,,,,,,,,,,,,,,,,,,,,,,,,,,,,,,,,,,,,,,,,,,,,,,,,,,,,,,,,,,,,,,,,,,,,,,,,,,,,,,,,,,,
,,,,,,61529431424a44b8051adf15,62c53a84bd4e8d528a60b849,2022-07-06_09h32.38.571,Colour_Asymmetry_Pilot,2022.1.3,MacIntel,58.82352941,62c50e9c1127f2cd403a315f,0,44,44,50,1,twoone,,,,,,,,,,,,,,,,,,,,,,,,,,,,,,,,,,,,,,,,,,,,,,,,,,,,,,,,,,,,,,,,,,,,,,,,,,,,,,,,,,,,,,,,,,,,,,,,,,,,,,,,,,,,,,,,,,,,,,,,,,,,,,,,,,,,,,,,,,,,,,,,,,,,,,,,,,,,,
,,,,,,61529431424a44b8051adf15,62c53a84bd4e8d528a60b849,2022-07-06_09h32.38.571,Colour_Asymmetry_Pilot,2022.1.3,MacIntel,58.82352941,62c50e9c1127f2cd403a315f,0,45,45,8,1,onetwo,,,,,,,,,,,,,,,,,,,,,,,,,,,,,,,,,,,,,,,,,,,,,,,,,,,,,,,,,,,,,,,,,,,,,,,,,,,,,,,,,,,,,,,,,,,,,,,,,,,,,,,,,,,,,,,,,,,,,,,,,,,,,,,,,,,,,,,,,,,,,,,,,,,,,,,,,,,,,
,,,,,,61529431424a44b8051adf15,62c53a84bd4e8d528a60b849,2022-07-06_09h32.38.571,Colour_Asymmetry_Pilot,2022.1.3,MacIntel,58.82352941,62c50e9c1127f2cd403a315f,0,46,46,29,1,threefour,,,,,,,,,,,,,,,,,,,,,,,,,,,,,,,,,,,,,,,,,,,,,,,,,,,,,,,,,,,,,,,,,,,,,,,,,,,,,,,,,,,,,,,,,,,,,,,,,,,,,,,,,,,,,,,,,,,,,,,,,,,,,,,,,,,,,,,,,,,,,,,,,,,,,,,,,,,,,
,,,,,,61529431424a44b8051adf15,62c53a84bd4e8d528a60b849,2022-07-06_09h32.38.571,Colour_Asymmetry_Pilot,2022.1.3,MacIntel,58.82352941,62c50e9c1127f2cd403a315f,0,47,47,102,1,fourtwo,,,,,,,,,,,,,,,,,,,,,,,,,,,,,,,,,,,,,,,,,,,,,,,,,,,,,,,,,,,,,,,,,,,,,,,,,,,,,,,,,,,,,,,,,,,,,,,,,,,,,,,,,,,,,,,,,,,,,,,,,,,,,,,,,,,,,,,,,,,,,,,,,,,,,,,,,,,,,
,,,,,,61529431424a44b8051adf15,62c53a84bd4e8d528a60b849,2022-07-06_09h32.38.571,Colour_Asymmetry_Pilot,2022.1.3,MacIntel,58.82352941,62c50e9c1127f2cd403a315f,0,48,48,83,1,twofour,,,,,,,,,,,,,,,,,,,,,,,,,,,,,,,,,,,,,,,,,,,,,,,,,,,,,,,,,,,,,,,,,,,,,,,,,,,,,,,,,,,,,,,,,,,,,,,,,,,,,,,,,,,,,,,,,,,,,,,,,,,,,,,,,,,,,,,,,,,,,,,,,,,,,,,,,,,,,
,,,,,,61529431424a44b8051adf15,62c53a84bd4e8d528a60b849,2022-07-06_09h32.38.571,Colour_Asymmetry_Pilot,2022.1.3,MacIntel,58.82352941,62c50e9c1127f2cd403a315f,0,49,49,149,1,threefour,,,,,,,,,,,,,,,,,,,,,,,,,,,,,,,,,,,,,,,,,,,,,,,,,,,,,,,,,,,,,,,,,,,,,,,,,,,,,,,,,,,,,,,,,,,,,,,,,,,,,,,,,,,,,,,,,,,,,,,,,,,,,,,,,,,,,,,,,,,,,,,,,,,,,,,,,,,,,
,,,,,,61529431424a44b8051adf15,62c53a84bd4e8d528a60b849,2022-07-06_09h32.38.571,Colour_Asymmetry_Pilot,2022.1.3,MacIntel,58.82352941,62c50e9c1127f2cd403a315f,0,50,50,12,1,threeone,,,,,,,,,,,,,,,,,,,,,,,,,,,,,,,,,,,,,,,,,,,,,,,,,,,,,,,,,,,,,,,,,,,,,,,,,,,,,,,,,,,,,,,,,,,,,,,,,,,,,,,,,,,,,,,,,,,,,,,,,,,,,,,,,,,,,,,,,,,,,,,,,,,,,,,,,,,,,
,,,,,,61529431424a44b8051adf15,62c53a84bd4e8d528a60b849,2022-07-06_09h32.38.571,Colour_Asymmetry_Pilot,2022.1.3,MacIntel,58.82352941,62c50e9c1127f2cd403a315f,0,51,51,157,1,threefour,,,,,,,,,,,,,,,,,,,,,,,,,,,,,,,,,,,,,,,,,,,,,,,,,,,,,,,,,,,,,,,,,,,,,,,,,,,,,,,,,,,,,,,,,,,,,,,,,,,,,,,,,,,,,,,,,,,,,,,,,,,,,,,,,,,,,,,,,,,,,,,,,,,,,,,,,,,,,
,,,,,,61529431424a44b8051adf15,62c53a84bd4e8d528a60b849,2022-07-06_09h32.38.571,Colour_Asymmetry_Pilot,2022.1.3,MacIntel,58.82352941,62c50e9c1127f2cd403a315f,0,52,52,85,1,threefour,,,,,,,,,,,,,,,,,,,,,,,,,,,,,,,,,,,,,,,,,,,,,,,,,,,,,,,,,,,,,,,,,,,,,,,,,,,,,,,,,,,,,,,,,,,,,,,,,,,,,,,,,,,,,,,,,,,,,,,,,,,,,,,,,,,,,,,,,,,,,,,,,,,,,,,,,,,,,
,,,,,,61529431424a44b8051adf15,62c53a84bd4e8d528a60b849,2022-07-06_09h32.38.571,Colour_Asymmetry_Pilot,2022.1.3,MacIntel,58.82352941,62c50e9c1127f2cd403a315f,0,53,53,141,1,threefour,,,,,,,,,,,,,,,,,,,,,,,,,,,,,,,,,,,,,,,,,,,,,,,,,,,,,,,,,,,,,,,,,,,,,,,,,,,,,,,,,,,,,,,,,,,,,,,,,,,,,,,,,,,,,,,,,,,,,,,,,,,,,,,,,,,,,,,,,,,,,,,,,,,,,,,,,,,,,
,,,,,,61529431424a44b8051adf15,62c53a84bd4e8d528a60b849,2022-07-06_09h32.38.571,Colour_Asymmetry_Pilot,2022.1.3,MacIntel,58.82352941,62c50e9c1127f2cd403a315f,0,54,54,126,1,fourtwo,,,,,,,,,,,,,,,,,,,,,,,,,,,,,,,,,,,,,,,,,,,,,,,,,,,,,,,,,,,,,,,,,,,,,,,,,,,,,,,,,,,,,,,,,,,,,,,,,,,,,,,,,,,,,,,,,,,,,,,,,,,,,,,,,,,,,,,,,,,,,,,,,,,,,,,,,,,,,
,,,,,,61529431424a44b8051adf15,62c53a84bd4e8d528a60b849,2022-07-06_09h32.38.571,Colour_Asymmetry_Pilot,2022.1.3,MacIntel,58.82352941,62c50e9c1127f2cd403a315f,0,55,55,131,1,twofour,,,,,,,,,,,,,,,,,,,,,,,,,,,,,,,,,,,,,,,,,,,,,,,,,,,,,,,,,,,,,,,,,,,,,,,,,,,,,,,,,,,,,,,,,,,,,,,,,,,,,,,,,,,,,,,,,,,,,,,,,,,,,,,,,,,,,,,,,,,,,,,,,,,,,,,,,,,,,
,,,,,,61529431424a44b8051adf15,62c53a84bd4e8d528a60b849,2022-07-06_09h32.38.571,Colour_Asymmetry_Pilot,2022.1.3,MacIntel,58.82352941,62c50e9c1127f2cd403a315f,0,56,56,9,1,onethree,,,,,,,,,,,,,,,,,,,,,,,,,,,,,,,,,,,,,,,,,,,,,,,,,,,,,,,,,,,,,,,,,,,,,,,,,,,,,,,,,,,,,,,,,,,,,,,,,,,,,,,,,,,,,,,,,,,,,,,,,,,,,,,,,,,,,,,,,,,,,,,,,,,,,,,,,,,,,
,,,,,,61529431424a44b8051adf15,62c53a84bd4e8d528a60b849,2022-07-06_09h32.38.571,Colour_Asymmetry_Pilot,2022.1.3,MacIntel,58.82352941,62c50e9c1127f2cd403a315f,0,57,57,72,1,onetwo,,,,,,,,,,,,,,,,,,,,,,,,,,,,,,,,,,,,,,,,,,,,,,,,,,,,,,,,,,,,,,,,,,,,,,,,,,,,,,,,,,,,,,,,,,,,,,,,,,,,,,,,,,,,,,,,,,,,,,,,,,,,,,,,,,,,,,,,,,,,,,,,,,,,,,,,,,,,,
,,,,,,61529431424a44b8051adf15,62c53a84bd4e8d528a60b849,2022-07-06_09h32.38.571,Colour_Asymmetry_Pilot,2022.1.3,MacIntel,58.82352941,62c50e9c1127f2cd403a315f,0,58,58,26,1,twoone,,,,,,,,,,,,,,,,,,,,,,,,,,,,,,,,,,,,,,,,,,,,,,,,,,,,,,,,,,,,,,,,,,,,,,,,,,,,,,,,,,,,,,,,,,,,,,,,,,,,,,,,,,,,,,,,,,,,,,,,,,,,,,,,,,,,,,,,,,,,,,,,,,,,,,,,,,,,,
,,,,,,61529431424a44b8051adf15,62c53a84bd4e8d528a60b849,2022-07-06_09h32.38.571,Colour_Asymmetry_Pilot,2022.1.3,MacIntel,58.82352941,62c50e9c1127f2cd403a315f,0,59,59,81,1,onethree,,,,,,,,,,,,,,,,,,,,,,,,,,,,,,,,,,,,,,,,,,,,,,,,,,,,,,,,,,,,,,,,,,,,,,,,,,,,,,,,,,,,,,,,,,,,,,,,,,,,,,,,,,,,,,,,,,,,,,,,,,,,,,,,,,,,,,,,,,,,,,,,,,,,,,,,,,,,,
,,,,,,61529431424a44b8051adf15,62c53a84bd4e8d528a60b849,2022-07-06_09h32.38.571,Colour_Asymmetry_Pilot,2022.1.3,MacIntel,58.82352941,62c50e9c1127f2cd403a315f,0,60,60,100,1,threeone,,,,,,,,,,,,,,,,,,,,,,,,,,,,,,,,,,,,,,,,,,,,,,,,,,,,,,,,,,,,,,,,,,,,,,,,,,,,,,,,,,,,,,,,,,,,,,,,,,,,,,,,,,,,,,,,,,,,,,,,,,,,,,,,,,,,,,,,,,,,,,,,,,,,,,,,,,,,,
,,,,,,61529431424a44b8051adf15,62c53a84bd4e8d528a60b849,2022-07-06_09h32.38.571,Colour_Asymmetry_Pilot,2022.1.3,MacIntel,58.82352941,62c50e9c1127f2cd403a315f,0,61,61,44,1,threeone,,,,,,,,,,,,,,,,,,,,,,,,,,,,,,,,,,,,,,,,,,,,,,,,,,,,,,,,,,,,,,,,,,,,,,,,,,,,,,,,,,,,,,,,,,,,,,,,,,,,,,,,,,,,,,,,,,,,,,,,,,,,,,,,,,,,,,,,,,,,,,,,,,,,,,,,,,,,,
,,,,,,61529431424a44b8051adf15,62c53a84bd4e8d528a60b849,2022-07-06_09h32.38.571,Colour_Asymmetry_Pilot,2022.1.3,MacIntel,58.82352941,62c50e9c1127f2cd403a315f,0,62,62,33,1,onethree,,,,,,,,,,,,,,,,,,,,,,,,,,,,,,,,,,,,,,,,,,,,,,,,,,,,,,,,,,,,,,,,,,,,,,,,,,,,,,,,,,,,,,,,,,,,,,,,,,,,,,,,,,,,,,,,,,,,,,,,,,,,,,,,,,,,,,,,,,,,,,,,,,,,,,,,,,,,,
,,,,,,61529431424a44b8051adf15,62c53a84bd4e8d528a60b849,2022-07-06_09h32.38.571,Colour_Asymmetry_Pilot,2022.1.3,MacIntel,58.82352941,62c50e9c1127f2cd403a315f,0,63,63,97,1,onethree,,,,,,,,,,,,,,,,,,,,,,,,,,,,,,,,,,,,,,,,,,,,,,,,,,,,,,,,,,,,,,,,,,,,,,,,,,,,,,,,,,,,,,,,,,,,,,,,,,,,,,,,,,,,,,,,,,,,,,,,,,,,,,,,,,,,,,,,,,,,,,,,,,,,,,,,,,,,,
,,,,,,61529431424a44b8051adf15,62c53a84bd4e8d528a60b849,2022-07-06_09h32.38.571,Colour_Asymmetry_Pilot,2022.1.3,MacIntel,58.82352941,62c50e9c1127f2cd403a315f,0,64,64,19,1,twofour,,,,,,,,,,,,,,,,,,,,,,,,,,,,,,,,,,,,,,,,,,,,,,,,,,,,,,,,,,,,,,,,,,,,,,,,,,,,,,,,,,,,,,,,,,,,,,,,,,,,,,,,,,,,,,,,,,,,,,,,,,,,,,,,,,,,,,,,,,,,,,,,,,,,,,,,,,,,,
,,,,,,61529431424a44b8051adf15,62c53a84bd4e8d528a60b849,2022-07-06_09h32.38.571,Colour_Asymmetry_Pilot,2022.1.3,MacIntel,58.82352941,62c50e9c1127f2cd403a315f,0,65,65,145,1,onethree,,,,,,,,,,,,,,,,,,,,,,,,,,,,,,,,,,,,,,,,,,,,,,,,,,,,,,,,,,,,,,,,,,,,,,,,,,,,,,,,,,,,,,,,,,,,,,,,,,,,,,,,,,,,,,,,,,,,,,,,,,,,,,,,,,,,,,,,,,,,,,,,,,,,,,,,,,,,,
,,,,,,61529431424a44b8051adf15,62c53a84bd4e8d528a60b849,2022-07-06_09h32.38.571,Colour_Asymmetry_Pilot,2022.1.3,MacIntel,58.82352941,62c50e9c1127f2cd403a315f,0,66,66,119,1,fourthree,,,,,,,,,,,,,,,,,,,,,,,,,,,,,,,,,,,,,,,,,,,,,,,,,,,,,,,,,,,,,,,,,,,,,,,,,,,,,,,,,,,,,,,,,,,,,,,,,,,,,,,,,,,,,,,,,,,,,,,,,,,,,,,,,,,,,,,,,,,,,,,,,,,,,,,,,,,,,
,,,,,,61529431424a44b8051adf15,62c53a84bd4e8d528a60b849,2022-07-06_09h32.38.571,Colour_Asymmetry_Pilot,2022.1.3,MacIntel,58.82352941,62c50e9c1127f2cd403a315f,0,67,67,80,1,onetwo,,,,,,,,,,,,,,,,,,,,,,,,,,,,,,,,,,,,,,,,,,,,,,,,,,,,,,,,,,,,,,,,,,,,,,,,,,,,,,,,,,,,,,,,,,,,,,,,,,,,,,,,,,,,,,,,,,,,,,,,,,,,,,,,,,,,,,,,,,,,,,,,,,,,,,,,,,,,,
,,,,,,61529431424a44b8051adf15,62c53a84bd4e8d528a60b849,2022-07-06_09h32.38.571,Colour_Asymmetry_Pilot,2022.1.3,MacIntel,58.82352941,62c50e9c1127f2cd403a315f,0,68,68,129,1,onethree,,,,,,,,,,,,,,,,,,,,,,,,,,,,,,,,,,,,,,,,,,,,,,,,,,,,,,,,,,,,,,,,,,,,,,,,,,,,,,,,,,,,,,,,,,,,,,,,,,,,,,,,,,,,,,,,,,,,,,,,,,,,,,,,,,,,,,,,,,,,,,,,,,,,,,,,,,,,,
,,,,,,61529431424a44b8051adf15,62c53a84bd4e8d528a60b849,2022-07-06_09h32.38.571,Colour_Asymmetry_Pilot,2022.1.3,MacIntel,58.82352941,62c50e9c1127f2cd403a315f,0,69,69,43,1,twofour,,,,,,,,,,,,,,,,,,,,,,,,,,,,,,,,,,,,,,,,,,,,,,,,,,,,,,,,,,,,,,,,,,,,,,,,,,,,,,,,,,,,,,,,,,,,,,,,,,,,,,,,,,,,,,,,,,,,,,,,,,,,,,,,,,,,,,,,,,,,,,,,,,,,,,,,,,,,,
,,,,,,61529431424a44b8051adf15,62c53a84bd4e8d528a60b849,2022-07-06_09h32.38.571,Colour_Asymmetry_Pilot,2022.1.3,MacIntel,58.82352941,62c50e9c1127f2cd403a315f,0,70,70,56,1,onetwo,,,,,,,,,,,,,,,,,,,,,,,,,,,,,,,,,,,,,,,,,,,,,,,,,,,,,,,,,,,,,,,,,,,,,,,,,,,,,,,,,,,,,,,,,,,,,,,,,,,,,,,,,,,,,,,,,,,,,,,,,,,,,,,,,,,,,,,,,,,,,,,,,,,,,,,,,,,,,
,,,,,,61529431424a44b8051adf15,62c53a84bd4e8d528a60b849,2022-07-06_09h32.38.571,Colour_Asymmetry_Pilot,2022.1.3,MacIntel,58.82352941,62c50e9c1127f2cd403a315f,0,71,71,32,1,onetwo,,,,,,,,,,,,,,,,,,,,,,,,,,,,,,,,,,,,,,,,,,,,,,,,,,,,,,,,,,,,,,,,,,,,,,,,,,,,,,,,,,,,,,,,,,,,,,,,,,,,,,,,,,,,,,,,,,,,,,,,,,,,,,,,,,,,,,,,,,,,,,,,,,,,,,,,,,,,,
,,,,,,61529431424a44b8051adf15,62c53a84bd4e8d528a60b849,2022-07-06_09h32.38.571,Colour_Asymmetry_Pilot,2022.1.3,MacIntel,58.82352941,62c50e9c1127f2cd403a315f,0,72,72,52,1,threeone,,,,,,,,,,,,,,,,,,,,,,,,,,,,,,,,,,,,,,,,,,,,,,,,,,,,,,,,,,,,,,,,,,,,,,,,,,,,,,,,,,,,,,,,,,,,,,,,,,,,,,,,,,,,,,,,,,,,,,,,,,,,,,,,,,,,,,,,,,,,,,,,,,,,,,,,,,,,,
,,,,,,61529431424a44b8051adf15,62c53a84bd4e8d528a60b849,2022-07-06_09h32.38.571,Colour_Asymmetry_Pilot,2022.1.3,MacIntel,58.82352941,62c50e9c1127f2cd403a315f,0,73,73,116,1,threeone,,,,,,,,,,,,,,,,,,,,,,,,,,,,,,,,,,,,,,,,,,,,,,,,,,,,,,,,,,,,,,,,,,,,,,,,,,,,,,,,,,,,,,,,,,,,,,,,,,,,,,,,,,,,,,,,,,,,,,,,,,,,,,,,,,,,,,,,,,,,,,,,,,,,,,,,,,,,,
,,,,,,61529431424a44b8051adf15,62c53a84bd4e8d528a60b849,2022-07-06_09h32.38.571,Colour_Asymmetry_Pilot,2022.1.3,MacIntel,58.82352941,62c50e9c1127f2cd403a315f,0,74,74,69,1,threefour,,,,,,,,,,,,,,,,,,,,,,,,,,,,,,,,,,,,,,,,,,,,,,,,,,,,,,,,,,,,,,,,,,,,,,,,,,,,,,,,,,,,,,,,,,,,,,,,,,,,,,,,,,,,,,,,,,,,,,,,,,,,,,,,,,,,,,,,,,,,,,,,,,,,,,,,,,,,,
,,,,,,61529431424a44b8051adf15,62c53a84bd4e8d528a60b849,2022-07-06_09h32.38.571,Colour_Asymmetry_Pilot,2022.1.3,MacIntel,58.82352941,62c50e9c1127f2cd403a315f,0,75,75,115,1,twofour,,,,,,,,,,,,,,,,,,,,,,,,,,,,,,,,,,,,,,,,,,,,,,,,,,,,,,,,,,,,,,,,,,,,,,,,,,,,,,,,,,,,,,,,,,,,,,,,,,,,,,,,,,,,,,,,,,,,,,,,,,,,,,,,,,,,,,,,,,,,,,,,,,,,,,,,,,,,,
,,,,,,61529431424a44b8051adf15,62c53a84bd4e8d528a60b849,2022-07-06_09h32.38.571,Colour_Asymmetry_Pilot,2022.1.3,MacIntel,58.82352941,62c50e9c1127f2cd403a315f,0,76,76,127,1,fourthree,,,,,,,,,,,,,,,,,,,,,,,,,,,,,,,,,,,,,,,,,,,,,,,,,,,,,,,,,,,,,,,,,,,,,,,,,,,,,,,,,,,,,,,,,,,,,,,,,,,,,,,,,,,,,,,,,,,,,,,,,,,,,,,,,,,,,,,,,,,,,,,,,,,,,,,,,,,,,
,,,,,,61529431424a44b8051adf15,62c53a84bd4e8d528a60b849,2022-07-06_09h32.38.571,Colour_Asymmetry_Pilot,2022.1.3,MacIntel,58.82352941,62c50e9c1127f2cd403a315f,0,77,77,142,1,fourtwo,,,,,,,,,,,,,,,,,,,,,,,,,,,,,,,,,,,,,,,,,,,,,,,,,,,,,,,,,,,,,,,,,,,,,,,,,,,,,,,,,,,,,,,,,,,,,,,,,,,,,,,,,,,,,,,,,,,,,,,,,,,,,,,,,,,,,,,,,,,,,,,,,,,,,,,,,,,,,
,,,,,,61529431424a44b8051adf15,62c53a84bd4e8d528a60b849,2022-07-06_09h32.38.571,Colour_Asymmetry_Pilot,2022.1.3,MacIntel,58.82352941,62c50e9c1127f2cd403a315f,0,78,78,65,1,onethree,,,,,,,,,,,,,,,,,,,,,,,,,,,,,,,,,,,,,,,,,,,,,,,,,,,,,,,,,,,,,,,,,,,,,,,,,,,,,,,,,,,,,,,,,,,,,,,,,,,,,,,,,,,,,,,,,,,,,,,,,,,,,,,,,,,,,,,,,,,,,,,,,,,,,,,,,,,,,
,,,,,,61529431424a44b8051adf15,62c53a84bd4e8d528a60b849,2022-07-06_09h32.38.571,Colour_Asymmetry_Pilot,2022.1.3,MacIntel,58.82352941,62c50e9c1127f2cd403a315f,0,79,79,74,1,twoone,,,,,,,,,,,,,,,,,,,,,,,,,,,,,,,,,,,,,,,,,,,,,,,,,,,,,,,,,,,,,,,,,,,,,,,,,,,,,,,,,,,,,,,,,,,,,,,,,,,,,,,,,,,,,,,,,,,,,,,,,,,,,,,,,,,,,,,,,,,,,,,,,,,,,,,,,,,,,
,,,,,,61529431424a44b8051adf15,62c53a84bd4e8d528a60b849,2022-07-06_09h32.38.571,Colour_Asymmetry_Pilot,2022.1.3,MacIntel,58.82352941,62c50e9c1127f2cd403a315f,0,80,80,16,1,onetwo,,,,,,,,,,,,,,,,,,,,,,,,,,,,,,,,,,,,,,,,,,,,,,,,,,,,,,,,,,,,,,,,,,,,,,,,,,,,,,,,,,,,,,,,,,,,,,,,,,,,,,,,,,,,,,,,,,,,,,,,,,,,,,,,,,,,,,,,,,,,,,,,,,,,,,,,,,,,,
,,,,,,61529431424a44b8051adf15,62c53a84bd4e8d528a60b849,2022-07-06_09h32.38.571,Colour_Asymmetry_Pilot,2022.1.3,MacIntel,58.82352941,62c50e9c1127f2cd403a315f,0,81,81,78,1,fourtwo,,,,,,,,,,,,,,,,,,,,,,,,,,,,,,,,,,,,,,,,,,,,,,,,,,,,,,,,,,,,,,,,,,,,,,,,,,,,,,,,,,,,,,,,,,,,,,,,,,,,,,,,,,,,,,,,,,,,,,,,,,,,,,,,,,,,,,,,,,,,,,,,,,,,,,,,,,,,,
,,,,,,61529431424a44b8051adf15,62c53a84bd4e8d528a60b849,2022-07-06_09h32.38.571,Colour_Asymmetry_Pilot,2022.1.3,MacIntel,58.82352941,62c50e9c1127f2cd403a315f,0,82,82,77,1,threefour,,,,,,,,,,,,,,,,,,,,,,,,,,,,,,,,,,,,,,,,,,,,,,,,,,,,,,,,,,,,,,,,,,,,,,,,,,,,,,,,,,,,,,,,,,,,,,,,,,,,,,,,,,,,,,,,,,,,,,,,,,,,,,,,,,,,,,,,,,,,,,,,,,,,,,,,,,,,,
,,,,,,61529431424a44b8051adf15,62c53a84bd4e8d528a60b849,2022-07-06_09h32.38.571,Colour_Asymmetry_Pilot,2022.1.3,MacIntel,58.82352941,62c50e9c1127f2cd403a315f,0,83,83,118,1,fourtwo,,,,,,,,,,,,,,,,,,,,,,,,,,,,,,,,,,,,,,,,,,,,,,,,,,,,,,,,,,,,,,,,,,,,,,,,,,,,,,,,,,,,,,,,,,,,,,,,,,,,,,,,,,,,,,,,,,,,,,,,,,,,,,,,,,,,,,,,,,,,,,,,,,,,,,,,,,,,,
,,,,,,61529431424a44b8051adf15,62c53a84bd4e8d528a60b849,2022-07-06_09h32.38.571,Colour_Asymmetry_Pilot,2022.1.3,MacIntel,58.82352941,62c50e9c1127f2cd403a315f,0,84,84,120,1,onetwo,,,,,,,,,,,,,,,,,,,,,,,,,,,,,,,,,,,,,,,,,,,,,,,,,,,,,,,,,,,,,,,,,,,,,,,,,,,,,,,,,,,,,,,,,,,,,,,,,,,,,,,,,,,,,,,,,,,,,,,,,,,,,,,,,,,,,,,,,,,,,,,,,,,,,,,,,,,,,
,,,,,,61529431424a44b8051adf15,62c53a84bd4e8d528a60b849,2022-07-06_09h32.38.571,Colour_Asymmetry_Pilot,2022.1.3,MacIntel,58.82352941,62c50e9c1127f2cd403a315f,0,85,85,66,1,twoone,,,,,,,,,,,,,,,,,,,,,,,,,,,,,,,,,,,,,,,,,,,,,,,,,,,,,,,,,,,,,,,,,,,,,,,,,,,,,,,,,,,,,,,,,,,,,,,,,,,,,,,,,,,,,,,,,,,,,,,,,,,,,,,,,,,,,,,,,,,,,,,,,,,,,,,,,,,,,
,,,,,,61529431424a44b8051adf15,62c53a84bd4e8d528a60b849,2022-07-06_09h32.38.571,Colour_Asymmetry_Pilot,2022.1.3,MacIntel,58.82352941,62c50e9c1127f2cd403a315f,0,86,86,124,1,threeone,,,,,,,,,,,,,,,,,,,,,,,,,,,,,,,,,,,,,,,,,,,,,,,,,,,,,,,,,,,,,,,,,,,,,,,,,,,,,,,,,,,,,,,,,,,,,,,,,,,,,,,,,,,,,,,,,,,,,,,,,,,,,,,,,,,,,,,,,,,,,,,,,,,,,,,,,,,,,
,,,,,,61529431424a44b8051adf15,62c53a84bd4e8d528a60b849,2022-07-06_09h32.38.571,Colour_Asymmetry_Pilot,2022.1.3,MacIntel,58.82352941,62c50e9c1127f2cd403a315f,0,87,87,1,1,onethree,,,,,,,,,,,,,,,,,,,,,,,,,,,,,,,,,,,,,,,,,,,,,,,,,,,,,,,,,,,,,,,,,,,,,,,,,,,,,,,,,,,,,,,,,,,,,,,,,,,,,,,,,,,,,,,,,,,,,,,,,,,,,,,,,,,,,,,,,,,,,,,,,,,,,,,,,,,,,
,,,,,,61529431424a44b8051adf15,62c53a84bd4e8d528a60b849,2022-07-06_09h32.38.571,Colour_Asymmetry_Pilot,2022.1.3,MacIntel,58.82352941,62c50e9c1127f2cd403a315f,0,88,88,154,1,twoone,,,,,,,,,,,,,,,,,,,,,,,,,,,,,,,,,,,,,,,,,,,,,,,,,,,,,,,,,,,,,,,,,,,,,,,,,,,,,,,,,,,,,,,,,,,,,,,,,,,,,,,,,,,,,,,,,,,,,,,,,,,,,,,,,,,,,,,,,,,,,,,,,,,,,,,,,,,,,
,,,,,,61529431424a44b8051adf15,62c53a84bd4e8d528a60b849,2022-07-06_09h32.38.571,Colour_Asymmetry_Pilot,2022.1.3,MacIntel,58.82352941,62c50e9c1127f2cd403a315f,0,89,89,7,1,fourthree,,,,,,,,,,,,,,,,,,,,,,,,,,,,,,,,,,,,,,,,,,,,,,,,,,,,,,,,,,,,,,,,,,,,,,,,,,,,,,,,,,,,,,,,,,,,,,,,,,,,,,,,,,,,,,,,,,,,,,,,,,,,,,,,,,,,,,,,,,,,,,,,,,,,,,,,,,,,,
,,,,,,61529431424a44b8051adf15,62c53a84bd4e8d528a60b849,2022-07-06_09h32.38.571,Colour_Asymmetry_Pilot,2022.1.3,MacIntel,58.82352941,62c50e9c1127f2cd403a315f,0,90,90,108,1,threeone,,,,,,,,,,,,,,,,,,,,,,,,,,,,,,,,,,,,,,,,,,,,,,,,,,,,,,,,,,,,,,,,,,,,,,,,,,,,,,,,,,,,,,,,,,,,,,,,,,,,,,,,,,,,,,,,,,,,,,,,,,,,,,,,,,,,,,,,,,,,,,,,,,,,,,,,,,,,,
,,,,,,61529431424a44b8051adf15,62c53a84bd4e8d528a60b849,2022-07-06_09h32.38.571,Colour_Asymmetry_Pilot,2022.1.3,MacIntel,58.82352941,62c50e9c1127f2cd403a315f,0,91,91,35,1,twofour,,,,,,,,,,,,,,,,,,,,,,,,,,,,,,,,,,,,,,,,,,,,,,,,,,,,,,,,,,,,,,,,,,,,,,,,,,,,,,,,,,,,,,,,,,,,,,,,,,,,,,,,,,,,,,,,,,,,,,,,,,,,,,,,,,,,,,,,,,,,,,,,,,,,,,,,,,,,,
,,,,,,61529431424a44b8051adf15,62c53a84bd4e8d528a60b849,2022-07-06_09h32.38.571,Colour_Asymmetry_Pilot,2022.1.3,MacIntel,58.82352941,62c50e9c1127f2cd403a315f,0,92,92,51,1,twofour,,,,,,,,,,,,,,,,,,,,,,,,,,,,,,,,,,,,,,,,,,,,,,,,,,,,,,,,,,,,,,,,,,,,,,,,,,,,,,,,,,,,,,,,,,,,,,,,,,,,,,,,,,,,,,,,,,,,,,,,,,,,,,,,,,,,,,,,,,,,,,,,,,,,,,,,,,,,,
,,,,,,61529431424a44b8051adf15,62c53a84bd4e8d528a60b849,2022-07-06_09h32.38.571,Colour_Asymmetry_Pilot,2022.1.3,MacIntel,58.82352941,62c50e9c1127f2cd403a315f,0,93,93,107,1,twofour,,,,,,,,,,,,,,,,,,,,,,,,,,,,,,,,,,,,,,,,,,,,,,,,,,,,,,,,,,,,,,,,,,,,,,,,,,,,,,,,,,,,,,,,,,,,,,,,,,,,,,,,,,,,,,,,,,,,,,,,,,,,,,,,,,,,,,,,,,,,,,,,,,,,,,,,,,,,,
,,,,,,61529431424a44b8051adf15,62c53a84bd4e8d528a60b849,2022-07-06_09h32.38.571,Colour_Asymmetry_Pilot,2022.1.3,MacIntel,58.82352941,62c50e9c1127f2cd403a315f,0,94,94,143,1,fourthree,,,,,,,,,,,,,,,,,,,,,,,,,,,,,,,,,,,,,,,,,,,,,,,,,,,,,,,,,,,,,,,,,,,,,,,,,,,,,,,,,,,,,,,,,,,,,,,,,,,,,,,,,,,,,,,,,,,,,,,,,,,,,,,,,,,,,,,,,,,,,,,,,,,,,,,,,,,,,
,,,,,,61529431424a44b8051adf15,62c53a84bd4e8d528a60b849,2022-07-06_09h32.38.571,Colour_Asymmetry_Pilot,2022.1.3,MacIntel,58.82352941,62c50e9c1127f2cd403a315f,0,95,95,68,1,threeone,,,,,,,,,,,,,,,,,,,,,,,,,,,,,,,,,,,,,,,,,,,,,,,,,,,,,,,,,,,,,,,,,,,,,,,,,,,,,,,,,,,,,,,,,,,,,,,,,,,,,,,,,,,,,,,,,,,,,,,,,,,,,,,,,,,,,,,,,,,,,,,,,,,,,,,,,,,,,
,,,,,,61529431424a44b8051adf15,62c53a84bd4e8d528a60b849,2022-07-06_09h32.38.571,Colour_Asymmetry_Pilot,2022.1.3,MacIntel,58.82352941,62c50e9c1127f2cd403a315f,0,96,96,38,1,fourtwo,,,,,,,,,,,,,,,,,,,,,,,,,,,,,,,,,,,,,,,,,,,,,,,,,,,,,,,,,,,,,,,,,,,,,,,,,,,,,,,,,,,,,,,,,,,,,,,,,,,,,,,,,,,,,,,,,,,,,,,,,,,,,,,,,,,,,,,,,,,,,,,,,,,,,,,,,,,,,
,,,,,,61529431424a44b8051adf15,62c53a84bd4e8d528a60b849,2022-07-06_09h32.38.571,Colour_Asymmetry_Pilot,2022.1.3,MacIntel,58.82352941,62c50e9c1127f2cd403a315f,0,97,97,31,1,fourthree,,,,,,,,,,,,,,,,,,,,,,,,,,,,,,,,,,,,,,,,,,,,,,,,,,,,,,,,,,,,,,,,,,,,,,,,,,,,,,,,,,,,,,,,,,,,,,,,,,,,,,,,,,,,,,,,,,,,,,,,,,,,,,,,,,,,,,,,,,,,,,,,,,,,,,,,,,,,,
,,,,,,61529431424a44b8051adf15,62c53a84bd4e8d528a60b849,2022-07-06_09h32.38.571,Colour_Asymmetry_Pilot,2022.1.3,MacIntel,58.82352941,62c50e9c1127f2cd403a315f,0,98,98,133,1,threefour,,,,,,,,,,,,,,,,,,,,,,,,,,,,,,,,,,,,,,,,,,,,,,,,,,,,,,,,,,,,,,,,,,,,,,,,,,,,,,,,,,,,,,,,,,,,,,,,,,,,,,,,,,,,,,,,,,,,,,,,,,,,,,,,,,,,,,,,,,,,,,,,,,,,,,,,,,,,,
,,,,,,61529431424a44b8051adf15,62c53a84bd4e8d528a60b849,2022-07-06_09h32.38.571,Colour_Asymmetry_Pilot,2022.1.3,MacIntel,58.82352941,62c50e9c1127f2cd403a315f,0,99,99,159,1,fourthree,,,,,,,,,,,,,,,,,,,,,,,,,,,,,,,,,,,,,,,,,,,,,,,,,,,,,,,,,,,,,,,,,,,,,,,,,,,,,,,,,,,,,,,,,,,,,,,,,,,,,,,,,,,,,,,,,,,,,,,,,,,,,,,,,,,,,,,,,,,,,,,,,,,,,,,,,,,,,
,,,,,,61529431424a44b8051adf15,62c53a84bd4e8d528a60b849,2022-07-06_09h32.38.571,Colour_Asymmetry_Pilot,2022.1.3,MacIntel,58.82352941,62c50e9c1127f2cd403a315f,0,100,100,60,1,threeone,,,,,,,,,,,,,,,,,,,,,,,,,,,,,,,,,,,,,,,,,,,,,,,,,,,,,,,,,,,,,,,,,,,,,,,,,,,,,,,,,,,,,,,,,,,,,,,,,,,,,,,,,,,,,,,,,,,,,,,,,,,,,,,,,,,,,,,,,,,,,,,,,,,,,,,,,,,,,
,,,,,,61529431424a44b8051adf15,62c53a84bd4e8d528a60b849,2022-07-06_09h32.38.571,Colour_Asymmetry_Pilot,2022.1.3,MacIntel,58.82352941,62c50e9c1127f2cd403a315f,0,101,101,101,1,threefour,,,,,,,,,,,,,,,,,,,,,,,,,,,,,,,,,,,,,,,,,,,,,,,,,,,,,,,,,,,,,,,,,,,,,,,,,,,,,,,,,,,,,,,,,,,,,,,,,,,,,,,,,,,,,,,,,,,,,,,,,,,,,,,,,,,,,,,,,,,,,,,,,,,,,,,,,,,,,
,,,,,,61529431424a44b8051adf15,62c53a84bd4e8d528a60b849,2022-07-06_09h32.38.571,Colour_Asymmetry_Pilot,2022.1.3,MacIntel,58.82352941,62c50e9c1127f2cd403a315f,0,102,102,15,1,fourthree,,,,,,,,,,,,,,,,,,,,,,,,,,,,,,,,,,,,,,,,,,,,,,,,,,,,,,,,,,,,,,,,,,,,,,,,,,,,,,,,,,,,,,,,,,,,,,,,,,,,,,,,,,,,,,,,,,,,,,,,,,,,,,,,,,,,,,,,,,,,,,,,,,,,,,,,,,,,,
,,,,,,61529431424a44b8051adf15,62c53a84bd4e8d528a60b849,2022-07-06_09h32.38.571,Colour_Asymmetry_Pilot,2022.1.3,MacIntel,58.82352941,62c50e9c1127f2cd403a315f,0,103,103,39,1,fourthree,,,,,,,,,,,,,,,,,,,,,,,,,,,,,,,,,,,,,,,,,,,,,,,,,,,,,,,,,,,,,,,,,,,,,,,,,,,,,,,,,,,,,,,,,,,,,,,,,,,,,,,,,,,,,,,,,,,,,,,,,,,,,,,,,,,,,,,,,,,,,,,,,,,,,,,,,,,,,
,,,,,,61529431424a44b8051adf15,62c53a84bd4e8d528a60b849,2022-07-06_09h32.38.571,Colour_Asymmetry_Pilot,2022.1.3,MacIntel,58.82352941,62c50e9c1127f2cd403a315f,0,104,104,59,1,twofour,,,,,,,,,,,,,,,,,,,,,,,,,,,,,,,,,,,,,,,,,,,,,,,,,,,,,,,,,,,,,,,,,,,,,,,,,,,,,,,,,,,,,,,,,,,,,,,,,,,,,,,,,,,,,,,,,,,,,,,,,,,,,,,,,,,,,,,,,,,,,,,,,,,,,,,,,,,,,
,,,,,,61529431424a44b8051adf15,62c53a84bd4e8d528a60b849,2022-07-06_09h32.38.571,Colour_Asymmetry_Pilot,2022.1.3,MacIntel,58.82352941,62c50e9c1127f2cd403a315f,0,105,105,70,1,fourtwo,,,,,,,,,,,,,,,,,,,,,,,,,,,,,,,,,,,,,,,,,,,,,,,,,,,,,,,,,,,,,,,,,,,,,,,,,,,,,,,,,,,,,,,,,,,,,,,,,,,,,,,,,,,,,,,,,,,,,,,,,,,,,,,,,,,,,,,,,,,,,,,,,,,,,,,,,,,,,
,,,,,,61529431424a44b8051adf15,62c53a84bd4e8d528a60b849,2022-07-06_09h32.38.571,Colour_Asymmetry_Pilot,2022.1.3,MacIntel,58.82352941,62c50e9c1127f2cd403a315f,0,106,106,92,1,threeone,,,,,,,,,,,,,,,,,,,,,,,,,,,,,,,,,,,,,,,,,,,,,,,,,,,,,,,,,,,,,,,,,,,,,,,,,,,,,,,,,,,,,,,,,,,,,,,,,,,,,,,,,,,,,,,,,,,,,,,,,,,,,,,,,,,,,,,,,,,,,,,,,,,,,,,,,,,,,
,,,,,,61529431424a44b8051adf15,62c53a84bd4e8d528a60b849,2022-07-06_09h32.38.571,Colour_Asymmetry_Pilot,2022.1.3,MacIntel,58.82352941,62c50e9c1127f2cd403a315f,0,107,107,49,1,onethree,,,,,,,,,,,,,,,,,,,,,,,,,,,,,,,,,,,,,,,,,,,,,,,,,,,,,,,,,,,,,,,,,,,,,,,,,,,,,,,,,,,,,,,,,,,,,,,,,,,,,,,,,,,,,,,,,,,,,,,,,,,,,,,,,,,,,,,,,,,,,,,,,,,,,,,,,,,,,
,,,,,,61529431424a44b8051adf15,62c53a84bd4e8d528a60b849,2022-07-06_09h32.38.571,Colour_Asymmetry_Pilot,2022.1.3,MacIntel,58.82352941,62c50e9c1127f2cd403a315f,0,108,108,99,1,twofour,,,,,,,,,,,,,,,,,,,,,,,,,,,,,,,,,,,,,,,,,,,,,,,,,,,,,,,,,,,,,,,,,,,,,,,,,,,,,,,,,,,,,,,,,,,,,,,,,,,,,,,,,,,,,,,,,,,,,,,,,,,,,,,,,,,,,,,,,,,,,,,,,,,,,,,,,,,,,
,,,,,,61529431424a44b8051adf15,62c53a84bd4e8d528a60b849,2022-07-06_09h32.38.571,Colour_Asymmetry_Pilot,2022.1.3,MacIntel,58.82352941,62c50e9c1127f2cd403a315f,0,109,109,137,1,onethree,,,,,,,,,,,,,,,,,,,,,,,,,,,,,,,,,,,,,,,,,,,,,,,,,,,,,,,,,,,,,,,,,,,,,,,,,,,,,,,,,,,,,,,,,,,,,,,,,,,,,,,,,,,,,,,,,,,,,,,,,,,,,,,,,,,,,,,,,,,,,,,,,,,,,,,,,,,,,
,,,,,,61529431424a44b8051adf15,62c53a84bd4e8d528a60b849,2022-07-06_09h32.38.571,Colour_Asymmetry_Pilot,2022.1.3,MacIntel,58.82352941,62c50e9c1127f2cd403a315f,0,110,110,48,1,onetwo,,,,,,,,,,,,,,,,,,,,,,,,,,,,,,,,,,,,,,,,,,,,,,,,,,,,,,,,,,,,,,,,,,,,,,,,,,,,,,,,,,,,,,,,,,,,,,,,,,,,,,,,,,,,,,,,,,,,,,,,,,,,,,,,,,,,,,,,,,,,,,,,,,,,,,,,,,,,,
,,,,,,61529431424a44b8051adf15,62c53a84bd4e8d528a60b849,2022-07-06_09h32.38.571,Colour_Asymmetry_Pilot,2022.1.3,MacIntel,58.82352941,62c50e9c1127f2cd403a315f,0,111,111,73,1,onethree,,,,,,,,,,,,,,,,,,,,,,,,,,,,,,,,,,,,,,,,,,,,,,,,,,,,,,,,,,,,,,,,,,,,,,,,,,,,,,,,,,,,,,,,,,,,,,,,,,,,,,,,,,,,,,,,,,,,,,,,,,,,,,,,,,,,,,,,,,,,,,,,,,,,,,,,,,,,,
,,,,,,61529431424a44b8051adf15,62c53a84bd4e8d528a60b849,2022-07-06_09h32.38.571,Colour_Asymmetry_Pilot,2022.1.3,MacIntel,58.82352941,62c50e9c1127f2cd403a315f,0,112,112,104,1,onetwo,,,,,,,,,,,,,,,,,,,,,,,,,,,,,,,,,,,,,,,,,,,,,,,,,,,,,,,,,,,,,,,,,,,,,,,,,,,,,,,,,,,,,,,,,,,,,,,,,,,,,,,,,,,,,,,,,,,,,,,,,,,,,,,,,,,,,,,,,,,,,,,,,,,,,,,,,,,,,
,,,,,,61529431424a44b8051adf15,62c53a84bd4e8d528a60b849,2022-07-06_09h32.38.571,Colour_Asymmetry_Pilot,2022.1.3,MacIntel,58.82352941,62c50e9c1127f2cd403a315f,0,113,113,18,1,twoone,,,,,,,,,,,,,,,,,,,,,,,,,,,,,,,,,,,,,,,,,,,,,,,,,,,,,,,,,,,,,,,,,,,,,,,,,,,,,,,,,,,,,,,,,,,,,,,,,,,,,,,,,,,,,,,,,,,,,,,,,,,,,,,,,,,,,,,,,,,,,,,,,,,,,,,,,,,,,
,,,,,,61529431424a44b8051adf15,62c53a84bd4e8d528a60b849,2022-07-06_09h32.38.571,Colour_Asymmetry_Pilot,2022.1.3,MacIntel,58.82352941,62c50e9c1127f2cd403a315f,0,114,114,136,1,onetwo,,,,,,,,,,,,,,,,,,,,,,,,,,,,,,,,,,,,,,,,,,,,,,,,,,,,,,,,,,,,,,,,,,,,,,,,,,,,,,,,,,,,,,,,,,,,,,,,,,,,,,,,,,,,,,,,,,,,,,,,,,,,,,,,,,,,,,,,,,,,,,,,,,,,,,,,,,,,,
,,,,,,61529431424a44b8051adf15,62c53a84bd4e8d528a60b849,2022-07-06_09h32.38.571,Colour_Asymmetry_Pilot,2022.1.3,MacIntel,58.82352941,62c50e9c1127f2cd403a315f,0,115,115,151,1,fourthree,,,,,,,,,,,,,,,,,,,,,,,,,,,,,,,,,,,,,,,,,,,,,,,,,,,,,,,,,,,,,,,,,,,,,,,,,,,,,,,,,,,,,,,,,,,,,,,,,,,,,,,,,,,,,,,,,,,,,,,,,,,,,,,,,,,,,,,,,,,,,,,,,,,,,,,,,,,,,
,,,,,,61529431424a44b8051adf15,62c53a84bd4e8d528a60b849,2022-07-06_09h32.38.571,Colour_Asymmetry_Pilot,2022.1.3,MacIntel,58.82352941,62c50e9c1127f2cd403a315f,0,116,116,109,1,threefour,,,,,,,,,,,,,,,,,,,,,,,,,,,,,,,,,,,,,,,,,,,,,,,,,,,,,,,,,,,,,,,,,,,,,,,,,,,,,,,,,,,,,,,,,,,,,,,,,,,,,,,,,,,,,,,,,,,,,,,,,,,,,,,,,,,,,,,,,,,,,,,,,,,,,,,,,,,,,
,,,,,,61529431424a44b8051adf15,62c53a84bd4e8d528a60b849,2022-07-06_09h32.38.571,Colour_Asymmetry_Pilot,2022.1.3,MacIntel,58.82352941,62c50e9c1127f2cd403a315f,0,117,117,21,1,threefour,,,,,,,,,,,,,,,,,,,,,,,,,,,,,,,,,,,,,,,,,,,,,,,,,,,,,,,,,,,,,,,,,,,,,,,,,,,,,,,,,,,,,,,,,,,,,,,,,,,,,,,,,,,,,,,,,,,,,,,,,,,,,,,,,,,,,,,,,,,,,,,,,,,,,,,,,,,,,
,,,,,,61529431424a44b8051adf15,62c53a84bd4e8d528a60b849,2022-07-06_09h32.38.571,Colour_Asymmetry_Pilot,2022.1.3,MacIntel,58.82352941,62c50e9c1127f2cd403a315f,0,118,118,57,1,onethree,,,,,,,,,,,,,,,,,,,,,,,,,,,,,,,,,,,,,,,,,,,,,,,,,,,,,,,,,,,,,,,,,,,,,,,,,,,,,,,,,,,,,,,,,,,,,,,,,,,,,,,,,,,,,,,,,,,,,,,,,,,,,,,,,,,,,,,,,,,,,,,,,,,,,,,,,,,,,
,,,,,,61529431424a44b8051adf15,62c53a84bd4e8d528a60b849,2022-07-06_09h32.38.571,Colour_Asymmetry_Pilot,2022.1.3,MacIntel,58.82352941,62c50e9c1127f2cd403a315f,0,119,119,61,1,threefour,,,,,,,,,,,,,,,,,,,,,,,,,,,,,,,,,,,,,,,,,,,,,,,,,,,,,,,,,,,,,,,,,,,,,,,,,,,,,,,,,,,,,,,,,,,,,,,,,,,,,,,,,,,,,,,,,,,,,,,,,,,,,,,,,,,,,,,,,,,,,,,,,,,,,,,,,,,,,
,,,,,,61529431424a44b8051adf15,62c53a84bd4e8d528a60b849,2022-07-06_09h32.38.571,Colour_Asymmetry_Pilot,2022.1.3,MacIntel,58.82352941,62c50e9c1127f2cd403a315f,0,120,120,112,1,onetwo,,,,,,,,,,,,,,,,,,,,,,,,,,,,,,,,,,,,,,,,,,,,,,,,,,,,,,,,,,,,,,,,,,,,,,,,,,,,,,,,,,,,,,,,,,,,,,,,,,,,,,,,,,,,,,,,,,,,,,,,,,,,,,,,,,,,,,,,,,,,,,,,,,,,,,,,,,,,,
,,,,,,61529431424a44b8051adf15,62c53a84bd4e8d528a60b849,2022-07-06_09h32.38.571,Colour_Asymmetry_Pilot,2022.1.3,MacIntel,58.82352941,62c50e9c1127f2cd403a315f,0,121,121,96,1,onetwo,,,,,,,,,,,,,,,,,,,,,,,,,,,,,,,,,,,,,,,,,,,,,,,,,,,,,,,,,,,,,,,,,,,,,,,,,,,,,,,,,,,,,,,,,,,,,,,,,,,,,,,,,,,,,,,,,,,,,,,,,,,,,,,,,,,,,,,,,,,,,,,,,,,,,,,,,,,,,
,,,,,,61529431424a44b8051adf15,62c53a84bd4e8d528a60b849,2022-07-06_09h32.38.571,Colour_Asymmetry_Pilot,2022.1.3,MacIntel,58.82352941,62c50e9c1127f2cd403a315f,0,122,122,105,1,onethree,,,,,,,,,,,,,,,,,,,,,,,,,,,,,,,,,,,,,,,,,,,,,,,,,,,,,,,,,,,,,,,,,,,,,,,,,,,,,,,,,,,,,,,,,,,,,,,,,,,,,,,,,,,,,,,,,,,,,,,,,,,,,,,,,,,,,,,,,,,,,,,,,,,,,,,,,,,,,
,,,,,,61529431424a44b8051adf15,62c53a84bd4e8d528a60b849,2022-07-06_09h32.38.571,Colour_Asymmetry_Pilot,2022.1.3,MacIntel,58.82352941,62c50e9c1127f2cd403a315f,0,123,123,98,1,twoone,,,,,,,,,,,,,,,,,,,,,,,,,,,,,,,,,,,,,,,,,,,,,,,,,,,,,,,,,,,,,,,,,,,,,,,,,,,,,,,,,,,,,,,,,,,,,,,,,,,,,,,,,,,,,,,,,,,,,,,,,,,,,,,,,,,,,,,,,,,,,,,,,,,,,,,,,,,,,
,,,,,,61529431424a44b8051adf15,62c53a84bd4e8d528a60b849,2022-07-06_09h32.38.571,Colour_Asymmetry_Pilot,2022.1.3,MacIntel,58.82352941,62c50e9c1127f2cd403a315f,0,124,124,94,1,fourtwo,,,,,,,,,,,,,,,,,,,,,,,,,,,,,,,,,,,,,,,,,,,,,,,,,,,,,,,,,,,,,,,,,,,,,,,,,,,,,,,,,,,,,,,,,,,,,,,,,,,,,,,,,,,,,,,,,,,,,,,,,,,,,,,,,,,,,,,,,,,,,,,,,,,,,,,,,,,,,
,,,,,,61529431424a44b8051adf15,62c53a84bd4e8d528a60b849,2022-07-06_09h32.38.571,Colour_Asymmetry_Pilot,2022.1.3,MacIntel,58.82352941,62c50e9c1127f2cd403a315f,0,125,125,45,1,threefour,,,,,,,,,,,,,,,,,,,,,,,,,,,,,,,,,,,,,,,,,,,,,,,,,,,,,,,,,,,,,,,,,,,,,,,,,,,,,,,,,,,,,,,,,,,,,,,,,,,,,,,,,,,,,,,,,,,,,,,,,,,,,,,,,,,,,,,,,,,,,,,,,,,,,,,,,,,,,
,,,,,,61529431424a44b8051adf15,62c53a84bd4e8d528a60b849,2022-07-06_09h32.38.571,Colour_Asymmetry_Pilot,2022.1.3,MacIntel,58.82352941,62c50e9c1127f2cd403a315f,0,126,126,79,1,fourthree,,,,,,,,,,,,,,,,,,,,,,,,,,,,,,,,,,,,,,,,,,,,,,,,,,,,,,,,,,,,,,,,,,,,,,,,,,,,,,,,,,,,,,,,,,,,,,,,,,,,,,,,,,,,,,,,,,,,,,,,,,,,,,,,,,,,,,,,,,,,,,,,,,,,,,,,,,,,,
,,,,,,61529431424a44b8051adf15,62c53a84bd4e8d528a60b849,2022-07-06_09h32.38.571,Colour_Asymmetry_Pilot,2022.1.3,MacIntel,58.82352941,62c50e9c1127f2cd403a315f,0,127,127,36,1,threeone,,,,,,,,,,,,,,,,,,,,,,,,,,,,,,,,,,,,,,,,,,,,,,,,,,,,,,,,,,,,,,,,,,,,,,,,,,,,,,,,,,,,,,,,,,,,,,,,,,,,,,,,,,,,,,,,,,,,,,,,,,,,,,,,,,,,,,,,,,,,,,,,,,,,,,,,,,,,,
,,,,,,61529431424a44b8051adf15,62c53a84bd4e8d528a60b849,2022-07-06_09h32.38.571,Colour_Asymmetry_Pilot,2022.1.3,MacIntel,58.82352941,62c50e9c1127f2cd403a315f,0,128,128,156,1,threeone,,,,,,,,,,,,,,,,,,,,,,,,,,,,,,,,,,,,,,,,,,,,,,,,,,,,,,,,,,,,,,,,,,,,,,,,,,,,,,,,,,,,,,,,,,,,,,,,,,,,,,,,,,,,,,,,,,,,,,,,,,,,,,,,,,,,,,,,,,,,,,,,,,,,,,,,,,,,,
,,,,,,61529431424a44b8051adf15,62c53a84bd4e8d528a60b849,2022-07-06_09h32.38.571,Colour_Asymmetry_Pilot,2022.1.3,MacIntel,58.82352941,62c50e9c1127f2cd403a315f,0,129,129,153,1,onethree,,,,,,,,,,,,,,,,,,,,,,,,,,,,,,,,,,,,,,,,,,,,,,,,,,,,,,,,,,,,,,,,,,,,,,,,,,,,,,,,,,,,,,,,,,,,,,,,,,,,,,,,,,,,,,,,,,,,,,,,,,,,,,,,,,,,,,,,,,,,,,,,,,,,,,,,,,,,,
,,,,,,61529431424a44b8051adf15,62c53a84bd4e8d528a60b849,2022-07-06_09h32.38.571,Colour_Asymmetry_Pilot,2022.1.3,MacIntel,58.82352941,62c50e9c1127f2cd403a315f,0,130,130,62,1,fourtwo,,,,,,,,,,,,,,,,,,,,,,,,,,,,,,,,,,,,,,,,,,,,,,,,,,,,,,,,,,,,,,,,,,,,,,,,,,,,,,,,,,,,,,,,,,,,,,,,,,,,,,,,,,,,,,,,,,,,,,,,,,,,,,,,,,,,,,,,,,,,,,,,,,,,,,,,,,,,,
,,,,,,61529431424a44b8051adf15,62c53a84bd4e8d528a60b849,2022-07-06_09h32.38.571,Colour_Asymmetry_Pilot,2022.1.3,MacIntel,58.82352941,62c50e9c1127f2cd403a315f,0,131,131,58,1,twoone,,,,,,,,,,,,,,,,,,,,,,,,,,,,,,,,,,,,,,,,,,,,,,,,,,,,,,,,,,,,,,,,,,,,,,,,,,,,,,,,,,,,,,,,,,,,,,,,,,,,,,,,,,,,,,,,,,,,,,,,,,,,,,,,,,,,,,,,,,,,,,,,,,,,,,,,,,,,,
,,,,,,61529431424a44b8051adf15,62c53a84bd4e8d528a60b849,2022-07-06_09h32.38.571,Colour_Asymmetry_Pilot,2022.1.3,MacIntel,58.82352941,62c50e9c1127f2cd403a315f,0,132,132,14,1,fourtwo,,,,,,,,,,,,,,,,,,,,,,,,,,,,,,,,,,,,,,,,,,,,,,,,,,,,,,,,,,,,,,,,,,,,,,,,,,,,,,,,,,,,,,,,,,,,,,,,,,,,,,,,,,,,,,,,,,,,,,,,,,,,,,,,,,,,,,,,,,,,,,,,,,,,,,,,,,,,,
,,,,,,61529431424a44b8051adf15,62c53a84bd4e8d528a60b849,2022-07-06_09h32.38.571,Colour_Asymmetry_Pilot,2022.1.3,MacIntel,58.82352941,62c50e9c1127f2cd403a315f,0,133,133,3,1,twofour,,,,,,,,,,,,,,,,,,,,,,,,,,,,,,,,,,,,,,,,,,,,,,,,,,,,,,,,,,,,,,,,,,,,,,,,,,,,,,,,,,,,,,,,,,,,,,,,,,,,,,,,,,,,,,,,,,,,,,,,,,,,,,,,,,,,,,,,,,,,,,,,,,,,,,,,,,,,,
,,,,,,61529431424a44b8051adf15,62c53a84bd4e8d528a60b849,2022-07-06_09h32.38.571,Colour_Asymmetry_Pilot,2022.1.3,MacIntel,58.82352941,62c50e9c1127f2cd403a315f,0,134,134,64,1,onetwo,,,,,,,,,,,,,,,,,,,,,,,,,,,,,,,,,,,,,,,,,,,,,,,,,,,,,,,,,,,,,,,,,,,,,,,,,,,,,,,,,,,,,,,,,,,,,,,,,,,,,,,,,,,,,,,,,,,,,,,,,,,,,,,,,,,,,,,,,,,,,,,,,,,,,,,,,,,,,
,,,,,,61529431424a44b8051adf15,62c53a84bd4e8d528a60b849,2022-07-06_09h32.38.571,Colour_Asymmetry_Pilot,2022.1.3,MacIntel,58.82352941,62c50e9c1127f2cd403a315f,0,135,135,4,1,threeone,,,,,,,,,,,,,,,,,,,,,,,,,,,,,,,,,,,,,,,,,,,,,,,,,,,,,,,,,,,,,,,,,,,,,,,,,,,,,,,,,,,,,,,,,,,,,,,,,,,,,,,,,,,,,,,,,,,,,,,,,,,,,,,,,,,,,,,,,,,,,,,,,,,,,,,,,,,,,
,,,,,,61529431424a44b8051adf15,62c53a84bd4e8d528a60b849,2022-07-06_09h32.38.571,Colour_Asymmetry_Pilot,2022.1.3,MacIntel,58.82352941,62c50e9c1127f2cd403a315f,0,136,136,122,1,twoone,,,,,,,,,,,,,,,,,,,,,,,,,,,,,,,,,,,,,,,,,,,,,,,,,,,,,,,,,,,,,,,,,,,,,,,,,,,,,,,,,,,,,,,,,,,,,,,,,,,,,,,,,,,,,,,,,,,,,,,,,,,,,,,,,,,,,,,,,,,,,,,,,,,,,,,,,,,,,
,,,,,,61529431424a44b8051adf15,62c53a84bd4e8d528a60b849,2022-07-06_09h32.38.571,Colour_Asymmetry_Pilot,2022.1.3,MacIntel,58.82352941,62c50e9c1127f2cd403a315f,0,137,137,130,1,twoone,,,,,,,,,,,,,,,,,,,,,,,,,,,,,,,,,,,,,,,,,,,,,,,,,,,,,,,,,,,,,,,,,,,,,,,,,,,,,,,,,,,,,,,,,,,,,,,,,,,,,,,,,,,,,,,,,,,,,,,,,,,,,,,,,,,,,,,,,,,,,,,,,,,,,,,,,,,,,
,,,,,,61529431424a44b8051adf15,62c53a84bd4e8d528a60b849,2022-07-06_09h32.38.571,Colour_Asymmetry_Pilot,2022.1.3,MacIntel,58.82352941,62c50e9c1127f2cd403a315f,0,138,138,140,1,threeone,,,,,,,,,,,,,,,,,,,,,,,,,,,,,,,,,,,,,,,,,,,,,,,,,,,,,,,,,,,,,,,,,,,,,,,,,,,,,,,,,,,,,,,,,,,,,,,,,,,,,,,,,,,,,,,,,,,,,,,,,,,,,,,,,,,,,,,,,,,,,,,,,,,,,,,,,,,,,
,,,,,,61529431424a44b8051adf15,62c53a84bd4e8d528a60b849,2022-07-06_09h32.38.571,Colour_Asymmetry_Pilot,2022.1.3,MacIntel,58.82352941,62c50e9c1127f2cd403a315f,0,139,139,20,1,threeone,,,,,,,,,,,,,,,,,,,,,,,,,,,,,,,,,,,,,,,,,,,,,,,,,,,,,,,,,,,,,,,,,,,,,,,,,,,,,,,,,,,,,,,,,,,,,,,,,,,,,,,,,,,,,,,,,,,,,,,,,,,,,,,,,,,,,,,,,,,,,,,,,,,,,,,,,,,,,
,,,,,,61529431424a44b8051adf15,62c53a84bd4e8d528a60b849,2022-07-06_09h32.38.571,Colour_Asymmetry_Pilot,2022.1.3,MacIntel,58.82352941,62c50e9c1127f2cd403a315f,0,140,140,11,1,twofour,,,,,,,,,,,,,,,,,,,,,,,,,,,,,,,,,,,,,,,,,,,,,,,,,,,,,,,,,,,,,,,,,,,,,,,,,,,,,,,,,,,,,,,,,,,,,,,,,,,,,,,,,,,,,,,,,,,,,,,,,,,,,,,,,,,,,,,,,,,,,,,,,,,,,,,,,,,,,
,,,,,,61529431424a44b8051adf15,62c53a84bd4e8d528a60b849,2022-07-06_09h32.38.571,Colour_Asymmetry_Pilot,2022.1.3,MacIntel,58.82352941,62c50e9c1127f2cd403a315f,0,141,141,75,1,twofour,,,,,,,,,,,,,,,,,,,,,,,,,,,,,,,,,,,,,,,,,,,,,,,,,,,,,,,,,,,,,,,,,,,,,,,,,,,,,,,,,,,,,,,,,,,,,,,,,,,,,,,,,,,,,,,,,,,,,,,,,,,,,,,,,,,,,,,,,,,,,,,,,,,,,,,,,,,,,
,,,,,,61529431424a44b8051adf15,62c53a84bd4e8d528a60b849,2022-07-06_09h32.38.571,Colour_Asymmetry_Pilot,2022.1.3,MacIntel,58.82352941,62c50e9c1127f2cd403a315f,0,142,142,34,1,twoone,,,,,,,,,,,,,,,,,,,,,,,,,,,,,,,,,,,,,,,,,,,,,,,,,,,,,,,,,,,,,,,,,,,,,,,,,,,,,,,,,,,,,,,,,,,,,,,,,,,,,,,,,,,,,,,,,,,,,,,,,,,,,,,,,,,,,,,,,,,,,,,,,,,,,,,,,,,,,
,,,,,,61529431424a44b8051adf15,62c53a84bd4e8d528a60b849,2022-07-06_09h32.38.571,Colour_Asymmetry_Pilot,2022.1.3,MacIntel,58.82352941,62c50e9c1127f2cd403a315f,0,143,143,30,1,fourtwo,,,,,,,,,,,,,,,,,,,,,,,,,,,,,,,,,,,,,,,,,,,,,,,,,,,,,,,,,,,,,,,,,,,,,,,,,,,,,,,,,,,,,,,,,,,,,,,,,,,,,,,,,,,,,,,,,,,,,,,,,,,,,,,,,,,,,,,,,,,,,,,,,,,,,,,,,,,,,
,,,,,,61529431424a44b8051adf15,62c53a84bd4e8d528a60b849,2022-07-06_09h32.38.571,Colour_Asymmetry_Pilot,2022.1.3,MacIntel,58.82352941,62c50e9c1127f2cd403a315f,0,144,144,89,1,onethree,,,,,,,,,,,,,,,,,,,,,,,,,,,,,,,,,,,,,,,,,,,,,,,,,,,,,,,,,,,,,,,,,,,,,,,,,,,,,,,,,,,,,,,,,,,,,,,,,,,,,,,,,,,,,,,,,,,,,,,,,,,,,,,,,,,,,,,,,,,,,,,,,,,,,,,,,,,,,
,,,,,,61529431424a44b8051adf15,62c53a84bd4e8d528a60b849,2022-07-06_09h32.38.571,Colour_Asymmetry_Pilot,2022.1.3,MacIntel,58.82352941,62c50e9c1127f2cd403a315f,0,145,145,125,1,threefour,,,,,,,,,,,,,,,,,,,,,,,,,,,,,,,,,,,,,,,,,,,,,,,,,,,,,,,,,,,,,,,,,,,,,,,,,,,,,,,,,,,,,,,,,,,,,,,,,,,,,,,,,,,,,,,,,,,,,,,,,,,,,,,,,,,,,,,,,,,,,,,,,,,,,,,,,,,,,
,,,,,,61529431424a44b8051adf15,62c53a84bd4e8d528a60b849,2022-07-06_09h32.38.571,Colour_Asymmetry_Pilot,2022.1.3,MacIntel,58.82352941,62c50e9c1127f2cd403a315f,0,146,146,128,1,onetwo,,,,,,,,,,,,,,,,,,,,,,,,,,,,,,,,,,,,,,,,,,,,,,,,,,,,,,,,,,,,,,,,,,,,,,,,,,,,,,,,,,,,,,,,,,,,,,,,,,,,,,,,,,,,,,,,,,,,,,,,,,,,,,,,,,,,,,,,,,,,,,,,,,,,,,,,,,,,,
,,,,,,61529431424a44b8051adf15,62c53a84bd4e8d528a60b849,2022-07-06_09h32.38.571,Colour_Asymmetry_Pilot,2022.1.3,MacIntel,58.82352941,62c50e9c1127f2cd403a315f,0,147,147,158,1,fourtwo,,,,,,,,,,,,,,,,,,,,,,,,,,,,,,,,,,,,,,,,,,,,,,,,,,,,,,,,,,,,,,,,,,,,,,,,,,,,,,,,,,,,,,,,,,,,,,,,,,,,,,,,,,,,,,,,,,,,,,,,,,,,,,,,,,,,,,,,,,,,,,,,,,,,,,,,,,,,,
,,,,,,61529431424a44b8051adf15,62c53a84bd4e8d528a60b849,2022-07-06_09h32.38.571,Colour_Asymmetry_Pilot,2022.1.3,MacIntel,58.82352941,62c50e9c1127f2cd403a315f,0,148,148,82,1,twoone,,,,,,,,,,,,,,,,,,,,,,,,,,,,,,,,,,,,,,,,,,,,,,,,,,,,,,,,,,,,,,,,,,,,,,,,,,,,,,,,,,,,,,,,,,,,,,,,,,,,,,,,,,,,,,,,,,,,,,,,,,,,,,,,,,,,,,,,,,,,,,,,,,,,,,,,,,,,,
,,,,,,61529431424a44b8051adf15,62c53a84bd4e8d528a60b849,2022-07-06_09h32.38.571,Colour_Asymmetry_Pilot,2022.1.3,MacIntel,58.82352941,62c50e9c1127f2cd403a315f,0,149,149,76,1,threeone,,,,,,,,,,,,,,,,,,,,,,,,,,,,,,,,,,,,,,,,,,,,,,,,,,,,,,,,,,,,,,,,,,,,,,,,,,,,,,,,,,,,,,,,,,,,,,,,,,,,,,,,,,,,,,,,,,,,,,,,,,,,,,,,,,,,,,,,,,,,,,,,,,,,,,,,,,,,,
,,,,,,61529431424a44b8051adf15,62c53a84bd4e8d528a60b849,2022-07-06_09h32.38.571,Colour_Asymmetry_Pilot,2022.1.3,MacIntel,58.82352941,62c50e9c1127f2cd403a315f,0,150,150,47,1,fourthree,,,,,,,,,,,,,,,,,,,,,,,,,,,,,,,,,,,,,,,,,,,,,,,,,,,,,,,,,,,,,,,,,,,,,,,,,,,,,,,,,,,,,,,,,,,,,,,,,,,,,,,,,,,,,,,,,,,,,,,,,,,,,,,,,,,,,,,,,,,,,,,,,,,,,,,,,,,,,
,,,,,,61529431424a44b8051adf15,62c53a84bd4e8d528a60b849,2022-07-06_09h32.38.571,Colour_Asymmetry_Pilot,2022.1.3,MacIntel,58.82352941,62c50e9c1127f2cd403a315f,0,151,151,91,1,twofour,,,,,,,,,,,,,,,,,,,,,,,,,,,,,,,,,,,,,,,,,,,,,,,,,,,,,,,,,,,,,,,,,,,,,,,,,,,,,,,,,,,,,,,,,,,,,,,,,,,,,,,,,,,,,,,,,,,,,,,,,,,,,,,,,,,,,,,,,,,,,,,,,,,,,,,,,,,,,
,,,,,,61529431424a44b8051adf15,62c53a84bd4e8d528a60b849,2022-07-06_09h32.38.571,Colour_Asymmetry_Pilot,2022.1.3,MacIntel,58.82352941,62c50e9c1127f2cd403a315f,0,152,152,13,1,threefour,,,,,,,,,,,,,,,,,,,,,,,,,,,,,,,,,,,,,,,,,,,,,,,,,,,,,,,,,,,,,,,,,,,,,,,,,,,,,,,,,,,,,,,,,,,,,,,,,,,,,,,,,,,,,,,,,,,,,,,,,,,,,,,,,,,,,,,,,,,,,,,,,,,,,,,,,,,,,
,,,,,,61529431424a44b8051adf15,62c53a84bd4e8d528a60b849,2022-07-06_09h32.38.571,Colour_Asymmetry_Pilot,2022.1.3,MacIntel,58.82352941,62c50e9c1127f2cd403a315f,0,153,153,111,1,fourthree,,,,,,,,,,,,,,,,,,,,,,,,,,,,,,,,,,,,,,,,,,,,,,,,,,,,,,,,,,,,,,,,,,,,,,,,,,,,,,,,,,,,,,,,,,,,,,,,,,,,,,,,,,,,,,,,,,,,,,,,,,,,,,,,,,,,,,,,,,,,,,,,,,,,,,,,,,,,,
,,,,,,61529431424a44b8051adf15,62c53a84bd4e8d528a60b849,2022-07-06_09h32.38.571,Colour_Asymmetry_Pilot,2022.1.3,MacIntel,58.82352941,62c50e9c1127f2cd403a315f,0,154,154,117,1,threefour,,,,,,,,,,,,,,,,,,,,,,,,,,,,,,,,,,,,,,,,,,,,,,,,,,,,,,,,,,,,,,,,,,,,,,,,,,,,,,,,,,,,,,,,,,,,,,,,,,,,,,,,,,,,,,,,,,,,,,,,,,,,,,,,,,,,,,,,,,,,,,,,,,,,,,,,,,,,,
,,,,,,61529431424a44b8051adf15,62c53a84bd4e8d528a60b849,2022-07-06_09h32.38.571,Colour_Asymmetry_Pilot,2022.1.3,MacIntel,58.82352941,62c50e9c1127f2cd403a315f,0,155,155,121,1,onethree,,,,,,,,,,,,,,,,,,,,,,,,,,,,,,,,,,,,,,,,,,,,,,,,,,,,,,,,,,,,,,,,,,,,,,,,,,,,,,,,,,,,,,,,,,,,,,,,,,,,,,,,,,,,,,,,,,,,,,,,,,,,,,,,,,,,,,,,,,,,,,,,,,,,,,,,,,,,,
,,,,,,61529431424a44b8051adf15,62c53a84bd4e8d528a60b849,2022-07-06_09h32.38.571,Colour_Asymmetry_Pilot,2022.1.3,MacIntel,58.82352941,62c50e9c1127f2cd403a315f,0,156,156,67,1,twofour,,,,,,,,,,,,,,,,,,,,,,,,,,,,,,,,,,,,,,,,,,,,,,,,,,,,,,,,,,,,,,,,,,,,,,,,,,,,,,,,,,,,,,,,,,,,,,,,,,,,,,,,,,,,,,,,,,,,,,,,,,,,,,,,,,,,,,,,,,,,,,,,,,,,,,,,,,,,,
,,,,,,61529431424a44b8051adf15,62c53a84bd4e8d528a60b849,2022-07-06_09h32.38.571,Colour_Asymmetry_Pilot,2022.1.3,MacIntel,58.82352941,62c50e9c1127f2cd403a315f,0,157,157,2,1,twoone,,,,,,,,,,,,,,,,,,,,,,,,,,,,,,,,,,,,,,,,,,,,,,,,,,,,,,,,,,,,,,,,,,,,,,,,,,,,,,,,,,,,,,,,,,,,,,,,,,,,,,,,,,,,,,,,,,,,,,,,,,,,,,,,,,,,,,,,,,,,,,,,,,,,,,,,,,,,,
,,,,,,61529431424a44b8051adf15,62c53a84bd4e8d528a60b849,2022-07-06_09h32.38.571,Colour_Asymmetry_Pilot,2022.1.3,MacIntel,58.82352941,62c50e9c1127f2cd403a315f,0,158,158,95,1,fourthree,,,,,,,,,,,,,,,,,,,,,,,,,,,,,,,,,,,,,,,,,,,,,,,,,,,,,,,,,,,,,,,,,,,,,,,,,,,,,,,,,,,,,,,,,,,,,,,,,,,,,,,,,,,,,,,,,,,,,,,,,,,,,,,,,,,,,,,,,,,,,,,,,,,,,,,,,,,,,
,,,,,,61529431424a44b8051adf15,62c53a84bd4e8d528a60b849,2022-07-06_09h32.38.571,Colour_Asymmetry_Pilot,2022.1.3,MacIntel,58.82352941,62c50e9c1127f2cd403a315f,0,159,159,106,1,twoone,,,,,,,,,,,,,,,,,,,,,,,,,,,,,,,,,,,,,,,,,,,,,,,,,,,,,,,,,,,,,,,,,,,,,,,,,,,,,,,,,,,,,,,,,,,,,,,,,,,,,,,,,,,,,,,,,,,,,,,,,,,,,,,,,,,,,,,,,,,,,,,,,,,,,,,,,,,,,
,,,,,,61529431424a44b8051adf15,62c53a84bd4e8d528a60b849,2022-07-06_09h32.38.571,Colour_Asymmetry_Pilot,2022.1.3,MacIntel,58.82352941,62c50e9c1127f2cd403a315f,0,160,160,17,1,onethree,,,,,,,,,,,,,,,,,,,,,,,,,,,,,,,,,,,,,,,,,,,,,,,,,,,,,,,,,,,,,,,,,,,,,,,,,,,,,,,,,,,,,,,,,,,,,,,,,,,,,,,,,,,,,,,,,,,,,,,,,,,,,,,,,,,,,,,,,,,,,,,,,,,,,,,,,,,,,
,,,,,,61529431424a44b8051adf15,62c53a84bd4e8d528a60b849,2022-07-06_09h32.38.571,Colour_Asymmetry_Pilot,2022.1.3,MacIntel,58.82352941,62c50e9c1127f2cd403a315f,0,161,161,6,1,fourtwo,,,,,,,,,,,,,,,,,,,,,,,,,,,,,,,,,,,,,,,,,,,,,,,,,,,,,,,,,,,,,,,,,,,,,,,,,,,,,,,,,,,,,,,,,,,,,,,,,,,,,,,,,,,,,,,,,,,,,,,,,,,,,,,,,,,,,,,,,,,,,,,,,,,,,,,,,,,,,
,,,,,,61529431424a44b8051adf15,62c53a84bd4e8d528a60b849,2022-07-06_09h32.38.571,Colour_Asymmetry_Pilot,2022.1.3,MacIntel,58.82352941,62c50e9c1127f2cd403a315f,,,,,,,space,3.102,space,8.098,space,23.865,space,1.967,space,4.127,space,6.049,"[1,0.12939999999999996,-1]",fourtwo,"[-0.9216,-0.5529999999999999,-0.3962]",1,12.67,55,-92,1,0,0,response3disk_5,3,-7,1,0,0,rectangle_8,25,-118,1,0,0,response3disk_7,4,1,13,2,1,0,0,rectangle_4,0,0,0,0,1,,,,,,,,,,,,,,,,,,,,,,,,,,,,,,,,,,,,,,,,,,,,,,,,,,,,,,,,,,,,,,,,,,,,,,,,,,,,,,,,,,,,,,,,,,,,,,,,,,,,,,,,,,,,,
,,,,,,61529431424a44b8051adf15,62c53a84bd4e8d528a60b849,2022-07-06_09h32.38.571,Colour_Asymmetry_Pilot,2022.1.3,MacIntel,58.82352941,62c50e9c1127f2cd403a315f,,,,,,,,,,,,,,,,,,,"[-0.8982,-0.37259999999999993,0.2784]",threefour,"[0.0351999999999999,0.41159999999999997,0.0038000000000000256]",2,15.834,57,-42,1,0,0,response3disk_5,14,-2,1,0,0,rectangle_8,14,-2,1,0,0,,,1,14,-2,1,0,0,,1,0,1,0,1,,,,,,,,,,,,,,,,,,,,,,,,,,,,,,,,,,,,,,,,,,,,,,,,,,,,,,,,,,,,,,,,,,,,,,,,,,,,,,,,,,,,,,,,,,,,,,,,,,,,,,,,,,,,,
,,,,,,61529431424a44b8051adf15,62c53a84bd4e8d528a60b849,2022-07-06_09h32.38.571,Colour_Asymmetry_Pilot,2022.1.3,MacIntel,58.82352941,62c50e9c1127f2cd403a315f,,,,,,,,,,,,,,,,,,,"[-0.5688,-0.08239999999999992,-0.1844]",twofour,"[0.19199999999999995,0.18419999999999992,0.5136000000000001]",4,3.233,46,111,1,0,0,response1disk_5,7,-4,1,0,0,rectangle_8,26,-104,1,0,0,response3disk_7,4,1,12,5,1,0,0,rectangle_4,2,0,2,0,1,,,,,,,,,,,,,,,,,,,,,,,,,,,,,,,,,,,,,,,,,,,,,,,,,,,,,,,,,,,,,,,,,,,,,,,,,,,,,,,,,,,,,,,,,,,,,,,,,,,,,,,,,,,,,
,,,,,,61529431424a44b8051adf15,62c53a84bd4e8d528a60b849,2022-07-06_09h32.38.571,Colour_Asymmetry_Pilot,2022.1.3,MacIntel,58.82352941,62c50e9c1127f2cd403a315f,,,,,,,,,,,,,,,,,,,"[0.4196,0.4665999999999999,0.3568]",threeone,"[0.23920000000000008,0.2704,0.16060000000000008]",4,1.468,53,90,1,0,0,response1disk_5,4,-5,1,0,0,rectangle_8,4,-5,1,0,0,,,1,4,-5,1,0,0,,3,0,3,0,1,,,,,,,,,,,,,,,,,,,,,,,,,,,,,,,,,,,,,,,,,,,,,,,,,,,,,,,,,,,,,,,,,,,,,,,,,,,,,,,,,,,,,,,,,,,,,,,,,,,,,,,,,,,,,
,,,,,,61529431424a44b8051adf15,62c53a84bd4e8d528a60b849,2022-07-06_09h32.38.571,Colour_Asymmetry_Pilot,2022.1.3,MacIntel,58.82352941,62c50e9c1127f2cd403a315f,,,,,,,,,,,,,,,,,,,"[0.3802000000000001,0.19199999999999995,-0.6394]",threefour,"[0.3802000000000001,0.19199999999999995,-0.6394]",4,1.15,43,83,1,0,0,response1disk_5,11,-5,1,0,0,rectangle_8,11,-5,1,0,0,,,1,11,-5,1,0,0,,4,0,4,0,1,,,,,,,,,,,,,,,,,,,,,,,,,,,,,,,,,,,,,,,,,,,,,,,,,,,,,,,,,,,,,,,,,,,,,,,,,,,,,,,,,,,,,,,,,,,,,,,,,,,,,,,,,,,,,
,,,,,,61529431424a44b8051adf15,62c53a84bd4e8d528a60b849,2022-07-06_09h32.38.571,Colour_Asymmetry_Pilot,2022.1.3,MacIntel,58.82352941,62c50e9c1127f2cd403a315f,,,,,,,,,,,,,,,,,,,"[-0.10599999999999998,-0.15300000000000002,0.15280000000000005]",twoone,"[-0.10599999999999998,-0.15300000000000002,0.15280000000000005]",4,2.334,69,110,1,0,0,response1disk_5,7,-2,1,0,0,rectangle_8,7,-2,1,0,0,,,1,7,-2,1,0,0,,5,0,5,0,1,,,,,,,,,,,,,,,,,,,,,,,,,,,,,,,,,,,,,,,,,,,,,,,,,,,,,,,,,,,,,,,,,,,,,,,,,,,,,,,,,,,,,,,,,,,,,,,,,,,,,,,,,,,,,
,,,,,,61529431424a44b8051adf15,62c53a84bd4e8d528a60b849,2022-07-06_09h32.38.571,Colour_Asymmetry_Pilot,2022.1.3,MacIntel,58.82352941,62c50e9c1127f2cd403a315f,,,,,,,,,,,,,,,,,,,"[-0.9688,-0.4902000000000001,-0.12159999999999993]",twofour,"[0.22340000000000004,-0.9296,-0.7884]",-4,1.667,-42,89,1,0,0,response7disk_5,6,-6,1,0,0,rectangle_8,6,-6,1,0,0,,,1,6,-6,1,0,0,,6,0,6,0,1,,,,,,,,,,,,,,,,,,,,,,,,,,,,,,,,,,,,,,,,,,,,,,,,,,,,,,,,,,,,,,,,,,,,,,,,,,,,,,,,,,,,,,,,,,,,,,,,,,,,,,,,,,,,,
,,,,,,61529431424a44b8051adf15,62c53a84bd4e8d528a60b849,2022-07-06_09h32.38.571,Colour_Asymmetry_Pilot,2022.1.3,MacIntel,58.82352941,62c50e9c1127f2cd403a315f,,,,,,,,,,,,,,,,,,,,fourthree,,-4,3.268,,,,,,,,,,,,,,,,,,,,,,,,,,,,,,,,space,3.963,"[-0.34920000000000007,-0.702,-0.5216]","[0.04299999999999993,0.16060000000000008,-0.6628000000000001]",-40,101,1,0,0,response7disk,1,1,1,0,0,rectangle,1,1,1,0,0,,2,0.002,0,1,1,1,0,0,0,0,0,156,1,75,second,,,,,,,,,,,,,,,,,,,,,,,,,,,,,,,,,,,,,,,,,,,,,,,,,,,,,,,,,,,,,,,,,,,,,,,,
,,,,,,61529431424a44b8051adf15,62c53a84bd4e8d528a60b849,2022-07-06_09h32.38.571,Colour_Asymmetry_Pilot,2022.1.3,MacIntel,58.82352941,62c50e9c1127f2cd403a315f,,,,,,,,,,,,,,,,,,,,fourthree,,-3,1.266,,,,,,,,,,,,,,,,,,,,,,,,,,,,,,,,,,"[-0.9296,-0.12959999999999994,-0.043199999999999905]","[0.8274000000000001,-0.5844,-0.9452]",-81,34,1,0,0,response7disk,-9,3,1,0,0,rectangle,-9,3,1,0,0,,3,0.002,0,-9,3,1,0,0,0,1,1,121,1,40,second,,,,,,,,,,,,,,,,,,,,,,,,,,,,,,,,,,,,,,,,,,,,,,,,,,,,,,,,,,,,,,,,,,,,,,,,
,,,,,,61529431424a44b8051adf15,62c53a84bd4e8d528a60b849,2022-07-06_09h32.38.571,Colour_Asymmetry_Pilot,2022.1.3,MacIntel,58.82352941,62c50e9c1127f2cd403a315f,,,,,,,,,,,,,,,,,,,,onetwo,,-4,0.75,,,,,,,,,,,,,,,,,,,,,,,,,,,,,,,,,,"[0.7646000000000002,0.07440000000000002,0.2704]","[0.6625999999999999,0.4980000000000002,-0.357]",-55,79,1,0,0,response7disk,7,-6,1,0,0,rectangle,7,-6,1,0,0,,1,0.002,0,7,-6,1,0,0,0,2,2,27,1,27,first,,,,,,,,,,,,,,,,,,,,,,,,,,,,,,,,,,,,,,,,,,,,,,,,,,,,,,,,,,,,,,,,,,,,,,,,
,,,,,,61529431424a44b8051adf15,62c53a84bd4e8d528a60b849,2022-07-06_09h32.38.571,Colour_Asymmetry_Pilot,2022.1.3,MacIntel,58.82352941,62c50e9c1127f2cd403a315f,,,,,,,,,,,,,,,,,,,,twofour,,-2,3.017,,,,,,,,,,,,,,,,,,,,,,,,,,,,,,,,,,"[0.19199999999999995,0.18419999999999992,0.5136000000000001]","[0.11359999999999992,0.6312,0.5213999999999999]",-103,-51,1,0,0,response5disk,-12,-1,1,0,0,rectangle,-12,-1,1,0,0,,1,0,0,-12,-1,1,0,0,0,3,3,13,1,13,first,,,,,,,,,,,,,,,,,,,,,,,,,,,,,,,,,,,,,,,,,,,,,,,,,,,,,,,,,,,,,,,,,,,,,,,,
,,,,,,61529431424a44b8051adf15,62c53a84bd4e8d528a60b849,2022-07-06_09h32.38.571,Colour_Asymmetry_Pilot,2022.1.3,MacIntel,58.82352941,62c50e9c1127f2cd403a315f,,,,,,,,,,,,,,,,,,,,fourtwo,,-2,0.734,,,,,,,,,,,,,,,,,,,,,,,,,,,,,,,,,,"[-0.24719999999999998,0.5213999999999999,-0.12959999999999994]","[0.05879999999999996,0.2784,0.5841999999999998]",-88,-54,1,0,0,response5disk,-16,-1,1,0,0,rectangle,-16,-1,1,0,0,,3,0.003,0,-16,-1,1,0,0,0,4,4,4,1,4,first,,,,,,,,,,,,,,,,,,,,,,,,,,,,,,,,,,,,,,,,,,,,,,,,,,,,,,,,,,,,,,,,,,,,,,,,
,,,,,,61529431424a44b8051adf15,62c53a84bd4e8d528a60b849,2022-07-06_09h32.38.571,Colour_Asymmetry_Pilot,2022.1.3,MacIntel,58.82352941,62c50e9c1127f2cd403a315f,,,,,,,,,,,,,,,,,,,,onethree,,-1,0.933,,,,,,,,,,,,,,,,,,,,,,,,,,,,,,,,,,"[-0.9688,-0.4902000000000001,-0.12159999999999993]","[-0.9688,-0.38039999999999996,-0.41979999999999995]",-43,-86,1,0,0,response5disk,9,-16,1,0,0,rectangle,9,-16,1,0,0,,2,0.003,0,9,-16,1,0,0,0,5,5,25,1,25,first,,,,,,,,,,,,,,,,,,,,,,,,,,,,,,,,,,,,,,,,,,,,,,,,,,,,,,,,,,,,,,,,,,,,,,,,
,,,,,,61529431424a44b8051adf15,62c53a84bd4e8d528a60b849,2022-07-06_09h32.38.571,Colour_Asymmetry_Pilot,2022.1.3,MacIntel,58.82352941,62c50e9c1127f2cd403a315f,,,,,,,,,,,,,,,,,,,,fourtwo,,-1,0.666,,,,,,,,,,,,,,,,,,,,,,,,,,,,,,,,,,"[-0.9766,-0.34920000000000007,0.2156]","[-0.10599999999999998,-0.15300000000000002,0.15280000000000005]",-48,-84,1,0,0,response5disk,-2,-10,1,0,0,rectangle,-2,-10,1,0,0,,3,0.003,0,-2,-10,1,0,0,0,6,6,78,1,78,first,,,,,,,,,,,,,,,,,,,,,,,,,,,,,,,,,,,,,,,,,,,,,,,,,,,,,,,,,,,,,,,,,,,,,,,,
,,,,,,61529431424a44b8051adf15,62c53a84bd4e8d528a60b849,2022-07-06_09h32.38.571,Colour_Asymmetry_Pilot,2022.1.3,MacIntel,58.82352941,62c50e9c1127f2cd403a315f,,,,,,,,,,,,,,,,,,,,fourtwo,,-2,0.783,,,,,,,,,,,,,,,,,,,,,,,,,,,,,,,,,,"[0.23120000000000007,-0.7726,-0.34120000000000006]","[-0.06680000000000008,-0.45100000000000007,-0.906]",-90,-71,1,0,0,response5disk,-16,-17,1,0,0,rectangle,-16,-17,1,0,0,-1,3,0.001,0,-16,-17,1,0,0,0,7,7,109,1,28,second,,,,,,,,,,,,,,,,,,,,,,,,,,,,,,,,,,,,,,,,,,,,,,,,,,,,,,,,,,,,,,,,,,,,,,,,
,,,,,,61529431424a44b8051adf15,62c53a84bd4e8d528a60b849,2022-07-06_09h32.38.571,Colour_Asymmetry_Pilot,2022.1.3,MacIntel,58.82352941,62c50e9c1127f2cd403a315f,,,,,,,,,,,,,,,,,,,,twoone,,-3,1.434,,,,,,,,,,,,,,,,,,,,,,,,,,,,,,,,,,"[0.34099999999999997,0.5841999999999998,-0.9844]","[-0.9766,-0.34920000000000007,0.2156]",-82,35,1,0,0,response7disk,13,-2,1,0,0,rectangle,82,-48,1,0,0,2,2,3.184,1,10,6,1,0,0,0,8,8,97,1,16,second,response3disk_3,rectangle,,,,,,,,,,,,,,,,,,,,,,,,,,,,,,,,,,,,,,,,,,,,,,,,,,,,,,,,,,,,,,,,,,,,,,
,,,,,,61529431424a44b8051adf15,62c53a84bd4e8d528a60b849,2022-07-06_09h32.38.571,Colour_Asymmetry_Pilot,2022.1.3,MacIntel,58.82352941,62c50e9c1127f2cd403a315f,,,,,,,,,,,,,,,,,,,,threeone,,1,1.884,,,,,,,,,,,,,,,,,,,,,,,,,,,,,,,,,,"[-0.24719999999999998,-0.0354000000000001,0.3175999999999999]","[-0.8982,-0.37259999999999993,0.2784]",48,-81,1,0,0,response3disk,0,-1,1,0,0,rectangle,0,-1,1,0,0,2,2,0.001,0,0,-1,1,0,0,0,9,9,117,1,36,second,,,,,,,,,,,,,,,,,,,,,,,,,,,,,,,,,,,,,,,,,,,,,,,,,,,,,,,,,,,,,,,,,,,,,,,,
,,,,,,61529431424a44b8051adf15,62c53a84bd4e8d528a60b849,2022-07-06_09h32.38.571,Colour_Asymmetry_Pilot,2022.1.3,MacIntel,58.82352941,62c50e9c1127f2cd403a315f,,,,,,,,,,,,,,,,,,,,fourthree,,-3,0.75,,,,,,,,,,,,,,,,,,,,,,,,,,,,,,,,,,"[0.40379999999999994,0.09000000000000008,0.44300000000000006]","[0.34099999999999997,0.12939999999999996,-0.9766]",-86,27,1,0,0,response7disk,-18,-4,1,0,0,rectangle,-18,-4,1,0,0,2,1,0.002,0,-18,-4,1,0,0,0,10,10,79,1,79,first,,,,,,,,,,,,,,,,,,,,,,,,,,,,,,,,,,,,,,,,,,,,,,,,,,,,,,,,,,,,,,,,,,,,,,,,
,,,,,,61529431424a44b8051adf15,62c53a84bd4e8d528a60b849,2022-07-06_09h32.38.571,Colour_Asymmetry_Pilot,2022.1.3,MacIntel,58.82352941,62c50e9c1127f2cd403a315f,,,,,,,,,,,,,,,,,,,,onetwo,,-4,0.6,,,,,,,,,,,,,,,,,,,,,,,,,,,,,,,,,,"[1,0.12939999999999996,-1]","[-0.9216,-0.5529999999999999,-0.3962]",-29,70,1,0,0,response7disk,-10,-4,1,0,0,rectangle,-10,-4,1,0,0,2,3,0.003,0,-10,-4,1,0,0,0,11,11,125,1,44,second,,,,,,,,,,,,,,,,,,,,,,,,,,,,,,,,,,,,,,,,,,,,,,,,,,,,,,,,,,,,,,,,,,,,,,,,
,,,,,,61529431424a44b8051adf15,62c53a84bd4e8d528a60b849,2022-07-06_09h32.38.571,Colour_Asymmetry_Pilot,2022.1.3,MacIntel,58.82352941,62c50e9c1127f2cd403a315f,,,,,,,,,,,,,,,,,,,,fourtwo,,-4,0.383,,,,,,,,,,,,,,,,,,,,,,,,,,,,,,,,,,"[0.7176,-0.906,-0.6864]","[-0.5688,-0.08239999999999992,-0.1844]",-28,60,1,0,0,response7disk,-8,-1,1,0,0,rectangle,-8,-1,1,0,0,2,1,0.002,0,-8,-1,1,0,0,0,12,12,141,1,60,second,,,,,,,,,,,,,,,,,,,,,,,,,,,,,,,,,,,,,,,,,,,,,,,,,,,,,,,,,,,,,,,,,,,,,,,,
,,,,,,61529431424a44b8051adf15,62c53a84bd4e8d528a60b849,2022-07-06_09h32.38.571,Colour_Asymmetry_Pilot,2022.1.3,MacIntel,58.82352941,62c50e9c1127f2cd403a315f,,,,,,,,,,,,,,,,,,,,fourthree,,-3,0.85,,,,,,,,,,,,,,,,,,,,,,,,,,,,,,,,,,"[0.2784,-0.31000000000000005,-0.5452]","[-0.5688,-0.08239999999999992,-0.1844]",-78,32,1,0,0,response7disk,-9,-13,1,0,0,rectangle,-9,-13,1,0,0,2,2,0.003,0,-9,-13,1,0,0,0,13,13,69,1,69,first,,,,,,,,,,,,,,,,,,,,,,,,,,,,,,,,,,,,,,,,,,,,,,,,,,,,,,,,,,,,,,,,,,,,,,,,
,,,,,,61529431424a44b8051adf15,62c53a84bd4e8d528a60b849,2022-07-06_09h32.38.571,Colour_Asymmetry_Pilot,2022.1.3,MacIntel,58.82352941,62c50e9c1127f2cd403a315f,,,,,,,,,,,,,,,,,,,,twoone,,-2,0.434,,,,,,,,,,,,,,,,,,,,,,,,,,,,,,,,,,"[-0.2942,-0.24719999999999998,-0.357]","[0.19199999999999995,0.18419999999999992,0.5136000000000001]",-73,-58,1,0,0,response5disk,-5,-12,1,0,0,rectangle,-5,-12,1,0,0,2,3,0.002,0,-5,-12,1,0,0,0,14,14,88,1,7,second,,,,,,,,,,,,,,,,,,,,,,,,,,,,,,,,,,,,,,,,,,,,,,,,,,,,,,,,,,,,,,,,,,,,,,,,
,,,,,,61529431424a44b8051adf15,62c53a84bd4e8d528a60b849,2022-07-06_09h32.38.571,Colour_Asymmetry_Pilot,2022.1.3,MacIntel,58.82352941,62c50e9c1127f2cd403a315f,,,,,,,,,,,,,,,,,,,,threefour,,-2,0.483,,,,,,,,,,,,,,,,,,,,,,,,,,,,,,,,,,"[0.04299999999999993,0.16060000000000008,-0.6628000000000001]","[-0.01980000000000004,-0.5138,-0.38039999999999996]",-100,-60,1,0,0,response5disk,-12,-12,1,0,0,rectangle,-12,-12,1,0,0,2,1,0.002,0,-12,-12,1,0,0,0,15,15,19,1,19,first,,,,,,,,,,,,,,,,,,,,,,,,,,,,,,,,,,,,,,,,,,,,,,,,,,,,,,,,,,,,,,,,,,,,,,,,
