trials.thisRepN,trials.thisTrialN,trials.thisN,trials.thisIndex,trials.ran,Colourcodes,participant,session,date,expName,psychopyVersion,OS,frameRate,study_id,trials_4.thisRepN,trials_4.thisTrialN,trials_4.thisN,trials_4.thisIndex,trials_4.ran,StimulusPos,key_resp.keys,key_resp.rt,key_resp_2.keys,key_resp_2.rt,key_resp_15.keys,key_resp_15.rt,key_resp_17.keys,key_resp_17.rt,key_resp_9.keys,key_resp_9.rt,key_resp_10.keys,key_resp_10.rt,Circle1_col,Ecc,Circle2_col,similarity,response_time,mouse_5.x,mouse_5.y,mouse_5.leftButton,mouse_5.midButton,mouse_5.rightButton,mouse_5.clicked_name,mouse_10.x,mouse_10.y,mouse_10.leftButton,mouse_10.midButton,mouse_10.rightButton,mouse_10.clicked_name,mouse_7.x,mouse_7.y,mouse_7.leftButton,mouse_7.midButton,mouse_7.rightButton,mouse_7.clicked_name,catchprac,catchnumberprac,mouse_6.x,mouse_6.y,mouse_6.leftButton,mouse_6.midButton,mouse_6.rightButton,mouse_6.clicked_name,duringprac.thisRepN,duringprac.thisTrialN,duringprac.thisN,duringprac.thisIndex,duringprac.ran,key_resp_22.keys,key_resp_22.rt,Circle1_colour,Circle2_colour,mouse.x,mouse.y,mouse.leftButton,mouse.midButton,mouse.rightButton,mouse.clicked_name,mouse_2.x,mouse_2.y,mouse_2.leftButton,mouse_2.midButton,mouse_2.rightButton,mouse_2.clicked_name,mouse_3.x,mouse_3.y,mouse_3.leftButton,mouse_3.midButton,mouse_3.rightButton,catchresponse,catchnumber,response_time_catch,Catch,mouse_11.x,mouse_11.y,mouse_11.leftButton,mouse_11.midButton,mouse_11.rightButton,trials_2.thisRepN,trials_2.thisTrialN,trials_2.thisN,trials_2.thisIndex,trials_2.ran,Colourpair,Temporder,mouse_3.clicked_name,mouse_11.clicked_name,trials_3.thisRepN,trials_3.thisTrialN,trials_3.thisN,trials_3.thisIndex,trials_3.ran,key_resp_instr_Ishi.keys,key_resp_instr_Ishi.rt,Ishi_trial_keyresp.keys,Ishi_textbox.text,Ishi_mouse.x,Ishi_mouse.y,Ishi_mouse.leftButton,Ishi_mouse.midButton,Ishi_mouse.rightButton,Ishi_mouse.clicked_name,Ishi_loop.thisRepN,Ishi_loop.thisTrialN,Ishi_loop.thisN,Ishi_loop.thisIndex,Ishi_loop.ran,imageaddress,textbox.text,mouse_4.x,mouse_4.y,mouse_4.leftButton,mouse_4.midButton,mouse_4.rightButton,mouse_4.clicked_name,textbox_2.text,mouse_8.x,mouse_8.y,mouse_8.leftButton,mouse_8.midButton,mouse_8.rightButton,mouse_8.clicked_name,textbox_3.text,mouse_9.x,mouse_9.y,mouse_9.leftButton,mouse_9.midButton,mouse_9.rightButton,mouse_9.clicked_name,textbox_4.text,mouse_12.x,mouse_12.y,mouse_12.leftButton,mouse_12.midButton,mouse_12.rightButton,mouse_12.clicked_name,textbox_5.text,mouse_13.x,mouse_13.y,mouse_13.leftButton,mouse_13.midButton,mouse_13.rightButton,mouse_13.clicked_name,textbox_6.text,mouse_14.x,mouse_14.y,mouse_14.leftButton,mouse_14.midButton,mouse_14.rightButton,mouse_14.clicked_name,textbox_7.text,mouse_15.x,mouse_15.y,mouse_15.leftButton,mouse_15.midButton,mouse_15.rightButton,mouse_15.clicked_name
0,0,0,60,1,,5f502659e156d519cef558b7,62c53a55d053baede748cfe7,2022-07-06_09h31.52.204,Colour_Asymmetry_Pilot,2022.1.3,Win32,59.93407252,62c50e9c1127f2cd403a315f,,,,,,,,,,,,,,,,,,,,,,,,,,,,,,,,,,,,,,,,,,,,,,,,,,,,,,,,,,,,,,,,,,,,,,,,,,,,,,,,,,,,,,,,,,,,,,,,,,,,,,,,,,,,,,,,,,,,,,,,,,,,,,,,,,,,,,,,,,,,,,,,,,,,,,,,,,,,,,,,,,,
0,1,1,50,1,,5f502659e156d519cef558b7,62c53a55d053baede748cfe7,2022-07-06_09h31.52.204,Colour_Asymmetry_Pilot,2022.1.3,Win32,59.93407252,62c50e9c1127f2cd403a315f,,,,,,,,,,,,,,,,,,,,,,,,,,,,,,,,,,,,,,,,,,,,,,,,,,,,,,,,,,,,,,,,,,,,,,,,,,,,,,,,,,,,,,,,,,,,,,,,,,,,,,,,,,,,,,,,,,,,,,,,,,,,,,,,,,,,,,,,,,,,,,,,,,,,,,,,,,,,,,,,,,,
0,2,2,64,1,,5f502659e156d519cef558b7,62c53a55d053baede748cfe7,2022-07-06_09h31.52.204,Colour_Asymmetry_Pilot,2022.1.3,Win32,59.93407252,62c50e9c1127f2cd403a315f,,,,,,,,,,,,,,,,,,,,,,,,,,,,,,,,,,,,,,,,,,,,,,,,,,,,,,,,,,,,,,,,,,,,,,,,,,,,,,,,,,,,,,,,,,,,,,,,,,,,,,,,,,,,,,,,,,,,,,,,,,,,,,,,,,,,,,,,,,,,,,,,,,,,,,,,,,,,,,,,,,,
0,3,3,78,1,,5f502659e156d519cef558b7,62c53a55d053baede748cfe7,2022-07-06_09h31.52.204,Colour_Asymmetry_Pilot,2022.1.3,Win32,59.93407252,62c50e9c1127f2cd403a315f,,,,,,,,,,,,,,,,,,,,,,,,,,,,,,,,,,,,,,,,,,,,,,,,,,,,,,,,,,,,,,,,,,,,,,,,,,,,,,,,,,,,,,,,,,,,,,,,,,,,,,,,,,,,,,,,,,,,,,,,,,,,,,,,,,,,,,,,,,,,,,,,,,,,,,,,,,,,,,,,,,,
0,4,4,54,1,,5f502659e156d519cef558b7,62c53a55d053baede748cfe7,2022-07-06_09h31.52.204,Colour_Asymmetry_Pilot,2022.1.3,Win32,59.93407252,62c50e9c1127f2cd403a315f,,,,,,,,,,,,,,,,,,,,,,,,,,,,,,,,,,,,,,,,,,,,,,,,,,,,,,,,,,,,,,,,,,,,,,,,,,,,,,,,,,,,,,,,,,,,,,,,,,,,,,,,,,,,,,,,,,,,,,,,,,,,,,,,,,,,,,,,,,,,,,,,,,,,,,,,,,,,,,,,,,,
0,5,5,33,1,,5f502659e156d519cef558b7,62c53a55d053baede748cfe7,2022-07-06_09h31.52.204,Colour_Asymmetry_Pilot,2022.1.3,Win32,59.93407252,62c50e9c1127f2cd403a315f,,,,,,,,,,,,,,,,,,,,,,,,,,,,,,,,,,,,,,,,,,,,,,,,,,,,,,,,,,,,,,,,,,,,,,,,,,,,,,,,,,,,,,,,,,,,,,,,,,,,,,,,,,,,,,,,,,,,,,,,,,,,,,,,,,,,,,,,,,,,,,,,,,,,,,,,,,,,,,,,,,,
0,6,6,77,1,,5f502659e156d519cef558b7,62c53a55d053baede748cfe7,2022-07-06_09h31.52.204,Colour_Asymmetry_Pilot,2022.1.3,Win32,59.93407252,62c50e9c1127f2cd403a315f,,,,,,,,,,,,,,,,,,,,,,,,,,,,,,,,,,,,,,,,,,,,,,,,,,,,,,,,,,,,,,,,,,,,,,,,,,,,,,,,,,,,,,,,,,,,,,,,,,,,,,,,,,,,,,,,,,,,,,,,,,,,,,,,,,,,,,,,,,,,,,,,,,,,,,,,,,,,,,,,,,,
0,7,7,76,1,,5f502659e156d519cef558b7,62c53a55d053baede748cfe7,2022-07-06_09h31.52.204,Colour_Asymmetry_Pilot,2022.1.3,Win32,59.93407252,62c50e9c1127f2cd403a315f,,,,,,,,,,,,,,,,,,,,,,,,,,,,,,,,,,,,,,,,,,,,,,,,,,,,,,,,,,,,,,,,,,,,,,,,,,,,,,,,,,,,,,,,,,,,,,,,,,,,,,,,,,,,,,,,,,,,,,,,,,,,,,,,,,,,,,,,,,,,,,,,,,,,,,,,,,,,,,,,,,,
0,8,8,57,1,,5f502659e156d519cef558b7,62c53a55d053baede748cfe7,2022-07-06_09h31.52.204,Colour_Asymmetry_Pilot,2022.1.3,Win32,59.93407252,62c50e9c1127f2cd403a315f,,,,,,,,,,,,,,,,,,,,,,,,,,,,,,,,,,,,,,,,,,,,,,,,,,,,,,,,,,,,,,,,,,,,,,,,,,,,,,,,,,,,,,,,,,,,,,,,,,,,,,,,,,,,,,,,,,,,,,,,,,,,,,,,,,,,,,,,,,,,,,,,,,,,,,,,,,,,,,,,,,,
0,9,9,18,1,,5f502659e156d519cef558b7,62c53a55d053baede748cfe7,2022-07-06_09h31.52.204,Colour_Asymmetry_Pilot,2022.1.3,Win32,59.93407252,62c50e9c1127f2cd403a315f,,,,,,,,,,,,,,,,,,,,,,,,,,,,,,,,,,,,,,,,,,,,,,,,,,,,,,,,,,,,,,,,,,,,,,,,,,,,,,,,,,,,,,,,,,,,,,,,,,,,,,,,,,,,,,,,,,,,,,,,,,,,,,,,,,,,,,,,,,,,,,,,,,,,,,,,,,,,,,,,,,,
0,10,10,1,1,,5f502659e156d519cef558b7,62c53a55d053baede748cfe7,2022-07-06_09h31.52.204,Colour_Asymmetry_Pilot,2022.1.3,Win32,59.93407252,62c50e9c1127f2cd403a315f,,,,,,,,,,,,,,,,,,,,,,,,,,,,,,,,,,,,,,,,,,,,,,,,,,,,,,,,,,,,,,,,,,,,,,,,,,,,,,,,,,,,,,,,,,,,,,,,,,,,,,,,,,,,,,,,,,,,,,,,,,,,,,,,,,,,,,,,,,,,,,,,,,,,,,,,,,,,,,,,,,,
0,11,11,47,1,,5f502659e156d519cef558b7,62c53a55d053baede748cfe7,2022-07-06_09h31.52.204,Colour_Asymmetry_Pilot,2022.1.3,Win32,59.93407252,62c50e9c1127f2cd403a315f,,,,,,,,,,,,,,,,,,,,,,,,,,,,,,,,,,,,,,,,,,,,,,,,,,,,,,,,,,,,,,,,,,,,,,,,,,,,,,,,,,,,,,,,,,,,,,,,,,,,,,,,,,,,,,,,,,,,,,,,,,,,,,,,,,,,,,,,,,,,,,,,,,,,,,,,,,,,,,,,,,,
0,12,12,85,1,,5f502659e156d519cef558b7,62c53a55d053baede748cfe7,2022-07-06_09h31.52.204,Colour_Asymmetry_Pilot,2022.1.3,Win32,59.93407252,62c50e9c1127f2cd403a315f,,,,,,,,,,,,,,,,,,,,,,,,,,,,,,,,,,,,,,,,,,,,,,,,,,,,,,,,,,,,,,,,,,,,,,,,,,,,,,,,,,,,,,,,,,,,,,,,,,,,,,,,,,,,,,,,,,,,,,,,,,,,,,,,,,,,,,,,,,,,,,,,,,,,,,,,,,,,,,,,,,,
0,13,13,80,1,,5f502659e156d519cef558b7,62c53a55d053baede748cfe7,2022-07-06_09h31.52.204,Colour_Asymmetry_Pilot,2022.1.3,Win32,59.93407252,62c50e9c1127f2cd403a315f,,,,,,,,,,,,,,,,,,,,,,,,,,,,,,,,,,,,,,,,,,,,,,,,,,,,,,,,,,,,,,,,,,,,,,,,,,,,,,,,,,,,,,,,,,,,,,,,,,,,,,,,,,,,,,,,,,,,,,,,,,,,,,,,,,,,,,,,,,,,,,,,,,,,,,,,,,,,,,,,,,,
0,14,14,17,1,,5f502659e156d519cef558b7,62c53a55d053baede748cfe7,2022-07-06_09h31.52.204,Colour_Asymmetry_Pilot,2022.1.3,Win32,59.93407252,62c50e9c1127f2cd403a315f,,,,,,,,,,,,,,,,,,,,,,,,,,,,,,,,,,,,,,,,,,,,,,,,,,,,,,,,,,,,,,,,,,,,,,,,,,,,,,,,,,,,,,,,,,,,,,,,,,,,,,,,,,,,,,,,,,,,,,,,,,,,,,,,,,,,,,,,,,,,,,,,,,,,,,,,,,,,,,,,,,,
0,15,15,7,1,,5f502659e156d519cef558b7,62c53a55d053baede748cfe7,2022-07-06_09h31.52.204,Colour_Asymmetry_Pilot,2022.1.3,Win32,59.93407252,62c50e9c1127f2cd403a315f,,,,,,,,,,,,,,,,,,,,,,,,,,,,,,,,,,,,,,,,,,,,,,,,,,,,,,,,,,,,,,,,,,,,,,,,,,,,,,,,,,,,,,,,,,,,,,,,,,,,,,,,,,,,,,,,,,,,,,,,,,,,,,,,,,,,,,,,,,,,,,,,,,,,,,,,,,,,,,,,,,,
0,16,16,89,1,,5f502659e156d519cef558b7,62c53a55d053baede748cfe7,2022-07-06_09h31.52.204,Colour_Asymmetry_Pilot,2022.1.3,Win32,59.93407252,62c50e9c1127f2cd403a315f,,,,,,,,,,,,,,,,,,,,,,,,,,,,,,,,,,,,,,,,,,,,,,,,,,,,,,,,,,,,,,,,,,,,,,,,,,,,,,,,,,,,,,,,,,,,,,,,,,,,,,,,,,,,,,,,,,,,,,,,,,,,,,,,,,,,,,,,,,,,,,,,,,,,,,,,,,,,,,,,,,,
0,17,17,39,1,,5f502659e156d519cef558b7,62c53a55d053baede748cfe7,2022-07-06_09h31.52.204,Colour_Asymmetry_Pilot,2022.1.3,Win32,59.93407252,62c50e9c1127f2cd403a315f,,,,,,,,,,,,,,,,,,,,,,,,,,,,,,,,,,,,,,,,,,,,,,,,,,,,,,,,,,,,,,,,,,,,,,,,,,,,,,,,,,,,,,,,,,,,,,,,,,,,,,,,,,,,,,,,,,,,,,,,,,,,,,,,,,,,,,,,,,,,,,,,,,,,,,,,,,,,,,,,,,,
0,18,18,41,1,,5f502659e156d519cef558b7,62c53a55d053baede748cfe7,2022-07-06_09h31.52.204,Colour_Asymmetry_Pilot,2022.1.3,Win32,59.93407252,62c50e9c1127f2cd403a315f,,,,,,,,,,,,,,,,,,,,,,,,,,,,,,,,,,,,,,,,,,,,,,,,,,,,,,,,,,,,,,,,,,,,,,,,,,,,,,,,,,,,,,,,,,,,,,,,,,,,,,,,,,,,,,,,,,,,,,,,,,,,,,,,,,,,,,,,,,,,,,,,,,,,,,,,,,,,,,,,,,,
0,19,19,10,1,,5f502659e156d519cef558b7,62c53a55d053baede748cfe7,2022-07-06_09h31.52.204,Colour_Asymmetry_Pilot,2022.1.3,Win32,59.93407252,62c50e9c1127f2cd403a315f,,,,,,,,,,,,,,,,,,,,,,,,,,,,,,,,,,,,,,,,,,,,,,,,,,,,,,,,,,,,,,,,,,,,,,,,,,,,,,,,,,,,,,,,,,,,,,,,,,,,,,,,,,,,,,,,,,,,,,,,,,,,,,,,,,,,,,,,,,,,,,,,,,,,,,,,,,,,,,,,,,,
0,20,20,92,1,,5f502659e156d519cef558b7,62c53a55d053baede748cfe7,2022-07-06_09h31.52.204,Colour_Asymmetry_Pilot,2022.1.3,Win32,59.93407252,62c50e9c1127f2cd403a315f,,,,,,,,,,,,,,,,,,,,,,,,,,,,,,,,,,,,,,,,,,,,,,,,,,,,,,,,,,,,,,,,,,,,,,,,,,,,,,,,,,,,,,,,,,,,,,,,,,,,,,,,,,,,,,,,,,,,,,,,,,,,,,,,,,,,,,,,,,,,,,,,,,,,,,,,,,,,,,,,,,,
0,21,21,79,1,,5f502659e156d519cef558b7,62c53a55d053baede748cfe7,2022-07-06_09h31.52.204,Colour_Asymmetry_Pilot,2022.1.3,Win32,59.93407252,62c50e9c1127f2cd403a315f,,,,,,,,,,,,,,,,,,,,,,,,,,,,,,,,,,,,,,,,,,,,,,,,,,,,,,,,,,,,,,,,,,,,,,,,,,,,,,,,,,,,,,,,,,,,,,,,,,,,,,,,,,,,,,,,,,,,,,,,,,,,,,,,,,,,,,,,,,,,,,,,,,,,,,,,,,,,,,,,,,,
0,22,22,8,1,,5f502659e156d519cef558b7,62c53a55d053baede748cfe7,2022-07-06_09h31.52.204,Colour_Asymmetry_Pilot,2022.1.3,Win32,59.93407252,62c50e9c1127f2cd403a315f,,,,,,,,,,,,,,,,,,,,,,,,,,,,,,,,,,,,,,,,,,,,,,,,,,,,,,,,,,,,,,,,,,,,,,,,,,,,,,,,,,,,,,,,,,,,,,,,,,,,,,,,,,,,,,,,,,,,,,,,,,,,,,,,,,,,,,,,,,,,,,,,,,,,,,,,,,,,,,,,,,,
0,23,23,84,1,,5f502659e156d519cef558b7,62c53a55d053baede748cfe7,2022-07-06_09h31.52.204,Colour_Asymmetry_Pilot,2022.1.3,Win32,59.93407252,62c50e9c1127f2cd403a315f,,,,,,,,,,,,,,,,,,,,,,,,,,,,,,,,,,,,,,,,,,,,,,,,,,,,,,,,,,,,,,,,,,,,,,,,,,,,,,,,,,,,,,,,,,,,,,,,,,,,,,,,,,,,,,,,,,,,,,,,,,,,,,,,,,,,,,,,,,,,,,,,,,,,,,,,,,,,,,,,,,,
0,24,24,56,1,,5f502659e156d519cef558b7,62c53a55d053baede748cfe7,2022-07-06_09h31.52.204,Colour_Asymmetry_Pilot,2022.1.3,Win32,59.93407252,62c50e9c1127f2cd403a315f,,,,,,,,,,,,,,,,,,,,,,,,,,,,,,,,,,,,,,,,,,,,,,,,,,,,,,,,,,,,,,,,,,,,,,,,,,,,,,,,,,,,,,,,,,,,,,,,,,,,,,,,,,,,,,,,,,,,,,,,,,,,,,,,,,,,,,,,,,,,,,,,,,,,,,,,,,,,,,,,,,,
0,25,25,13,1,,5f502659e156d519cef558b7,62c53a55d053baede748cfe7,2022-07-06_09h31.52.204,Colour_Asymmetry_Pilot,2022.1.3,Win32,59.93407252,62c50e9c1127f2cd403a315f,,,,,,,,,,,,,,,,,,,,,,,,,,,,,,,,,,,,,,,,,,,,,,,,,,,,,,,,,,,,,,,,,,,,,,,,,,,,,,,,,,,,,,,,,,,,,,,,,,,,,,,,,,,,,,,,,,,,,,,,,,,,,,,,,,,,,,,,,,,,,,,,,,,,,,,,,,,,,,,,,,,
0,26,26,48,1,,5f502659e156d519cef558b7,62c53a55d053baede748cfe7,2022-07-06_09h31.52.204,Colour_Asymmetry_Pilot,2022.1.3,Win32,59.93407252,62c50e9c1127f2cd403a315f,,,,,,,,,,,,,,,,,,,,,,,,,,,,,,,,,,,,,,,,,,,,,,,,,,,,,,,,,,,,,,,,,,,,,,,,,,,,,,,,,,,,,,,,,,,,,,,,,,,,,,,,,,,,,,,,,,,,,,,,,,,,,,,,,,,,,,,,,,,,,,,,,,,,,,,,,,,,,,,,,,,
0,27,27,21,1,,5f502659e156d519cef558b7,62c53a55d053baede748cfe7,2022-07-06_09h31.52.204,Colour_Asymmetry_Pilot,2022.1.3,Win32,59.93407252,62c50e9c1127f2cd403a315f,,,,,,,,,,,,,,,,,,,,,,,,,,,,,,,,,,,,,,,,,,,,,,,,,,,,,,,,,,,,,,,,,,,,,,,,,,,,,,,,,,,,,,,,,,,,,,,,,,,,,,,,,,,,,,,,,,,,,,,,,,,,,,,,,,,,,,,,,,,,,,,,,,,,,,,,,,,,,,,,,,,
0,28,28,22,1,,5f502659e156d519cef558b7,62c53a55d053baede748cfe7,2022-07-06_09h31.52.204,Colour_Asymmetry_Pilot,2022.1.3,Win32,59.93407252,62c50e9c1127f2cd403a315f,,,,,,,,,,,,,,,,,,,,,,,,,,,,,,,,,,,,,,,,,,,,,,,,,,,,,,,,,,,,,,,,,,,,,,,,,,,,,,,,,,,,,,,,,,,,,,,,,,,,,,,,,,,,,,,,,,,,,,,,,,,,,,,,,,,,,,,,,,,,,,,,,,,,,,,,,,,,,,,,,,,
0,29,29,83,1,,5f502659e156d519cef558b7,62c53a55d053baede748cfe7,2022-07-06_09h31.52.204,Colour_Asymmetry_Pilot,2022.1.3,Win32,59.93407252,62c50e9c1127f2cd403a315f,,,,,,,,,,,,,,,,,,,,,,,,,,,,,,,,,,,,,,,,,,,,,,,,,,,,,,,,,,,,,,,,,,,,,,,,,,,,,,,,,,,,,,,,,,,,,,,,,,,,,,,,,,,,,,,,,,,,,,,,,,,,,,,,,,,,,,,,,,,,,,,,,,,,,,,,,,,,,,,,,,,
0,30,30,24,1,,5f502659e156d519cef558b7,62c53a55d053baede748cfe7,2022-07-06_09h31.52.204,Colour_Asymmetry_Pilot,2022.1.3,Win32,59.93407252,62c50e9c1127f2cd403a315f,,,,,,,,,,,,,,,,,,,,,,,,,,,,,,,,,,,,,,,,,,,,,,,,,,,,,,,,,,,,,,,,,,,,,,,,,,,,,,,,,,,,,,,,,,,,,,,,,,,,,,,,,,,,,,,,,,,,,,,,,,,,,,,,,,,,,,,,,,,,,,,,,,,,,,,,,,,,,,,,,,,
0,31,31,26,1,,5f502659e156d519cef558b7,62c53a55d053baede748cfe7,2022-07-06_09h31.52.204,Colour_Asymmetry_Pilot,2022.1.3,Win32,59.93407252,62c50e9c1127f2cd403a315f,,,,,,,,,,,,,,,,,,,,,,,,,,,,,,,,,,,,,,,,,,,,,,,,,,,,,,,,,,,,,,,,,,,,,,,,,,,,,,,,,,,,,,,,,,,,,,,,,,,,,,,,,,,,,,,,,,,,,,,,,,,,,,,,,,,,,,,,,,,,,,,,,,,,,,,,,,,,,,,,,,,
0,32,32,58,1,,5f502659e156d519cef558b7,62c53a55d053baede748cfe7,2022-07-06_09h31.52.204,Colour_Asymmetry_Pilot,2022.1.3,Win32,59.93407252,62c50e9c1127f2cd403a315f,,,,,,,,,,,,,,,,,,,,,,,,,,,,,,,,,,,,,,,,,,,,,,,,,,,,,,,,,,,,,,,,,,,,,,,,,,,,,,,,,,,,,,,,,,,,,,,,,,,,,,,,,,,,,,,,,,,,,,,,,,,,,,,,,,,,,,,,,,,,,,,,,,,,,,,,,,,,,,,,,,,
0,33,33,42,1,,5f502659e156d519cef558b7,62c53a55d053baede748cfe7,2022-07-06_09h31.52.204,Colour_Asymmetry_Pilot,2022.1.3,Win32,59.93407252,62c50e9c1127f2cd403a315f,,,,,,,,,,,,,,,,,,,,,,,,,,,,,,,,,,,,,,,,,,,,,,,,,,,,,,,,,,,,,,,,,,,,,,,,,,,,,,,,,,,,,,,,,,,,,,,,,,,,,,,,,,,,,,,,,,,,,,,,,,,,,,,,,,,,,,,,,,,,,,,,,,,,,,,,,,,,,,,,,,,
0,34,34,52,1,,5f502659e156d519cef558b7,62c53a55d053baede748cfe7,2022-07-06_09h31.52.204,Colour_Asymmetry_Pilot,2022.1.3,Win32,59.93407252,62c50e9c1127f2cd403a315f,,,,,,,,,,,,,,,,,,,,,,,,,,,,,,,,,,,,,,,,,,,,,,,,,,,,,,,,,,,,,,,,,,,,,,,,,,,,,,,,,,,,,,,,,,,,,,,,,,,,,,,,,,,,,,,,,,,,,,,,,,,,,,,,,,,,,,,,,,,,,,,,,,,,,,,,,,,,,,,,,,,
0,35,35,49,1,,5f502659e156d519cef558b7,62c53a55d053baede748cfe7,2022-07-06_09h31.52.204,Colour_Asymmetry_Pilot,2022.1.3,Win32,59.93407252,62c50e9c1127f2cd403a315f,,,,,,,,,,,,,,,,,,,,,,,,,,,,,,,,,,,,,,,,,,,,,,,,,,,,,,,,,,,,,,,,,,,,,,,,,,,,,,,,,,,,,,,,,,,,,,,,,,,,,,,,,,,,,,,,,,,,,,,,,,,,,,,,,,,,,,,,,,,,,,,,,,,,,,,,,,,,,,,,,,,
0,36,36,51,1,,5f502659e156d519cef558b7,62c53a55d053baede748cfe7,2022-07-06_09h31.52.204,Colour_Asymmetry_Pilot,2022.1.3,Win32,59.93407252,62c50e9c1127f2cd403a315f,,,,,,,,,,,,,,,,,,,,,,,,,,,,,,,,,,,,,,,,,,,,,,,,,,,,,,,,,,,,,,,,,,,,,,,,,,,,,,,,,,,,,,,,,,,,,,,,,,,,,,,,,,,,,,,,,,,,,,,,,,,,,,,,,,,,,,,,,,,,,,,,,,,,,,,,,,,,,,,,,,,
0,37,37,30,1,,5f502659e156d519cef558b7,62c53a55d053baede748cfe7,2022-07-06_09h31.52.204,Colour_Asymmetry_Pilot,2022.1.3,Win32,59.93407252,62c50e9c1127f2cd403a315f,,,,,,,,,,,,,,,,,,,,,,,,,,,,,,,,,,,,,,,,,,,,,,,,,,,,,,,,,,,,,,,,,,,,,,,,,,,,,,,,,,,,,,,,,,,,,,,,,,,,,,,,,,,,,,,,,,,,,,,,,,,,,,,,,,,,,,,,,,,,,,,,,,,,,,,,,,,,,,,,,,,
0,38,38,4,1,,5f502659e156d519cef558b7,62c53a55d053baede748cfe7,2022-07-06_09h31.52.204,Colour_Asymmetry_Pilot,2022.1.3,Win32,59.93407252,62c50e9c1127f2cd403a315f,,,,,,,,,,,,,,,,,,,,,,,,,,,,,,,,,,,,,,,,,,,,,,,,,,,,,,,,,,,,,,,,,,,,,,,,,,,,,,,,,,,,,,,,,,,,,,,,,,,,,,,,,,,,,,,,,,,,,,,,,,,,,,,,,,,,,,,,,,,,,,,,,,,,,,,,,,,,,,,,,,,
0,39,39,15,1,,5f502659e156d519cef558b7,62c53a55d053baede748cfe7,2022-07-06_09h31.52.204,Colour_Asymmetry_Pilot,2022.1.3,Win32,59.93407252,62c50e9c1127f2cd403a315f,,,,,,,,,,,,,,,,,,,,,,,,,,,,,,,,,,,,,,,,,,,,,,,,,,,,,,,,,,,,,,,,,,,,,,,,,,,,,,,,,,,,,,,,,,,,,,,,,,,,,,,,,,,,,,,,,,,,,,,,,,,,,,,,,,,,,,,,,,,,,,,,,,,,,,,,,,,,,,,,,,,
0,40,40,2,1,,5f502659e156d519cef558b7,62c53a55d053baede748cfe7,2022-07-06_09h31.52.204,Colour_Asymmetry_Pilot,2022.1.3,Win32,59.93407252,62c50e9c1127f2cd403a315f,,,,,,,,,,,,,,,,,,,,,,,,,,,,,,,,,,,,,,,,,,,,,,,,,,,,,,,,,,,,,,,,,,,,,,,,,,,,,,,,,,,,,,,,,,,,,,,,,,,,,,,,,,,,,,,,,,,,,,,,,,,,,,,,,,,,,,,,,,,,,,,,,,,,,,,,,,,,,,,,,,,
0,41,41,61,1,,5f502659e156d519cef558b7,62c53a55d053baede748cfe7,2022-07-06_09h31.52.204,Colour_Asymmetry_Pilot,2022.1.3,Win32,59.93407252,62c50e9c1127f2cd403a315f,,,,,,,,,,,,,,,,,,,,,,,,,,,,,,,,,,,,,,,,,,,,,,,,,,,,,,,,,,,,,,,,,,,,,,,,,,,,,,,,,,,,,,,,,,,,,,,,,,,,,,,,,,,,,,,,,,,,,,,,,,,,,,,,,,,,,,,,,,,,,,,,,,,,,,,,,,,,,,,,,,,
0,42,42,62,1,,5f502659e156d519cef558b7,62c53a55d053baede748cfe7,2022-07-06_09h31.52.204,Colour_Asymmetry_Pilot,2022.1.3,Win32,59.93407252,62c50e9c1127f2cd403a315f,,,,,,,,,,,,,,,,,,,,,,,,,,,,,,,,,,,,,,,,,,,,,,,,,,,,,,,,,,,,,,,,,,,,,,,,,,,,,,,,,,,,,,,,,,,,,,,,,,,,,,,,,,,,,,,,,,,,,,,,,,,,,,,,,,,,,,,,,,,,,,,,,,,,,,,,,,,,,,,,,,,
0,43,43,28,1,,5f502659e156d519cef558b7,62c53a55d053baede748cfe7,2022-07-06_09h31.52.204,Colour_Asymmetry_Pilot,2022.1.3,Win32,59.93407252,62c50e9c1127f2cd403a315f,,,,,,,,,,,,,,,,,,,,,,,,,,,,,,,,,,,,,,,,,,,,,,,,,,,,,,,,,,,,,,,,,,,,,,,,,,,,,,,,,,,,,,,,,,,,,,,,,,,,,,,,,,,,,,,,,,,,,,,,,,,,,,,,,,,,,,,,,,,,,,,,,,,,,,,,,,,,,,,,,,,
0,44,44,31,1,,5f502659e156d519cef558b7,62c53a55d053baede748cfe7,2022-07-06_09h31.52.204,Colour_Asymmetry_Pilot,2022.1.3,Win32,59.93407252,62c50e9c1127f2cd403a315f,,,,,,,,,,,,,,,,,,,,,,,,,,,,,,,,,,,,,,,,,,,,,,,,,,,,,,,,,,,,,,,,,,,,,,,,,,,,,,,,,,,,,,,,,,,,,,,,,,,,,,,,,,,,,,,,,,,,,,,,,,,,,,,,,,,,,,,,,,,,,,,,,,,,,,,,,,,,,,,,,,,
0,45,45,16,1,,5f502659e156d519cef558b7,62c53a55d053baede748cfe7,2022-07-06_09h31.52.204,Colour_Asymmetry_Pilot,2022.1.3,Win32,59.93407252,62c50e9c1127f2cd403a315f,,,,,,,,,,,,,,,,,,,,,,,,,,,,,,,,,,,,,,,,,,,,,,,,,,,,,,,,,,,,,,,,,,,,,,,,,,,,,,,,,,,,,,,,,,,,,,,,,,,,,,,,,,,,,,,,,,,,,,,,,,,,,,,,,,,,,,,,,,,,,,,,,,,,,,,,,,,,,,,,,,,
0,46,46,36,1,,5f502659e156d519cef558b7,62c53a55d053baede748cfe7,2022-07-06_09h31.52.204,Colour_Asymmetry_Pilot,2022.1.3,Win32,59.93407252,62c50e9c1127f2cd403a315f,,,,,,,,,,,,,,,,,,,,,,,,,,,,,,,,,,,,,,,,,,,,,,,,,,,,,,,,,,,,,,,,,,,,,,,,,,,,,,,,,,,,,,,,,,,,,,,,,,,,,,,,,,,,,,,,,,,,,,,,,,,,,,,,,,,,,,,,,,,,,,,,,,,,,,,,,,,,,,,,,,,
0,47,47,12,1,,5f502659e156d519cef558b7,62c53a55d053baede748cfe7,2022-07-06_09h31.52.204,Colour_Asymmetry_Pilot,2022.1.3,Win32,59.93407252,62c50e9c1127f2cd403a315f,,,,,,,,,,,,,,,,,,,,,,,,,,,,,,,,,,,,,,,,,,,,,,,,,,,,,,,,,,,,,,,,,,,,,,,,,,,,,,,,,,,,,,,,,,,,,,,,,,,,,,,,,,,,,,,,,,,,,,,,,,,,,,,,,,,,,,,,,,,,,,,,,,,,,,,,,,,,,,,,,,,
0,48,48,74,1,,5f502659e156d519cef558b7,62c53a55d053baede748cfe7,2022-07-06_09h31.52.204,Colour_Asymmetry_Pilot,2022.1.3,Win32,59.93407252,62c50e9c1127f2cd403a315f,,,,,,,,,,,,,,,,,,,,,,,,,,,,,,,,,,,,,,,,,,,,,,,,,,,,,,,,,,,,,,,,,,,,,,,,,,,,,,,,,,,,,,,,,,,,,,,,,,,,,,,,,,,,,,,,,,,,,,,,,,,,,,,,,,,,,,,,,,,,,,,,,,,,,,,,,,,,,,,,,,,
0,49,49,69,1,,5f502659e156d519cef558b7,62c53a55d053baede748cfe7,2022-07-06_09h31.52.204,Colour_Asymmetry_Pilot,2022.1.3,Win32,59.93407252,62c50e9c1127f2cd403a315f,,,,,,,,,,,,,,,,,,,,,,,,,,,,,,,,,,,,,,,,,,,,,,,,,,,,,,,,,,,,,,,,,,,,,,,,,,,,,,,,,,,,,,,,,,,,,,,,,,,,,,,,,,,,,,,,,,,,,,,,,,,,,,,,,,,,,,,,,,,,,,,,,,,,,,,,,,,,,,,,,,,
0,50,50,34,1,,5f502659e156d519cef558b7,62c53a55d053baede748cfe7,2022-07-06_09h31.52.204,Colour_Asymmetry_Pilot,2022.1.3,Win32,59.93407252,62c50e9c1127f2cd403a315f,,,,,,,,,,,,,,,,,,,,,,,,,,,,,,,,,,,,,,,,,,,,,,,,,,,,,,,,,,,,,,,,,,,,,,,,,,,,,,,,,,,,,,,,,,,,,,,,,,,,,,,,,,,,,,,,,,,,,,,,,,,,,,,,,,,,,,,,,,,,,,,,,,,,,,,,,,,,,,,,,,,
0,51,51,63,1,,5f502659e156d519cef558b7,62c53a55d053baede748cfe7,2022-07-06_09h31.52.204,Colour_Asymmetry_Pilot,2022.1.3,Win32,59.93407252,62c50e9c1127f2cd403a315f,,,,,,,,,,,,,,,,,,,,,,,,,,,,,,,,,,,,,,,,,,,,,,,,,,,,,,,,,,,,,,,,,,,,,,,,,,,,,,,,,,,,,,,,,,,,,,,,,,,,,,,,,,,,,,,,,,,,,,,,,,,,,,,,,,,,,,,,,,,,,,,,,,,,,,,,,,,,,,,,,,,
0,52,52,40,1,,5f502659e156d519cef558b7,62c53a55d053baede748cfe7,2022-07-06_09h31.52.204,Colour_Asymmetry_Pilot,2022.1.3,Win32,59.93407252,62c50e9c1127f2cd403a315f,,,,,,,,,,,,,,,,,,,,,,,,,,,,,,,,,,,,,,,,,,,,,,,,,,,,,,,,,,,,,,,,,,,,,,,,,,,,,,,,,,,,,,,,,,,,,,,,,,,,,,,,,,,,,,,,,,,,,,,,,,,,,,,,,,,,,,,,,,,,,,,,,,,,,,,,,,,,,,,,,,,
0,53,53,6,1,,5f502659e156d519cef558b7,62c53a55d053baede748cfe7,2022-07-06_09h31.52.204,Colour_Asymmetry_Pilot,2022.1.3,Win32,59.93407252,62c50e9c1127f2cd403a315f,,,,,,,,,,,,,,,,,,,,,,,,,,,,,,,,,,,,,,,,,,,,,,,,,,,,,,,,,,,,,,,,,,,,,,,,,,,,,,,,,,,,,,,,,,,,,,,,,,,,,,,,,,,,,,,,,,,,,,,,,,,,,,,,,,,,,,,,,,,,,,,,,,,,,,,,,,,,,,,,,,,
0,54,54,27,1,,5f502659e156d519cef558b7,62c53a55d053baede748cfe7,2022-07-06_09h31.52.204,Colour_Asymmetry_Pilot,2022.1.3,Win32,59.93407252,62c50e9c1127f2cd403a315f,,,,,,,,,,,,,,,,,,,,,,,,,,,,,,,,,,,,,,,,,,,,,,,,,,,,,,,,,,,,,,,,,,,,,,,,,,,,,,,,,,,,,,,,,,,,,,,,,,,,,,,,,,,,,,,,,,,,,,,,,,,,,,,,,,,,,,,,,,,,,,,,,,,,,,,,,,,,,,,,,,,
0,55,55,19,1,,5f502659e156d519cef558b7,62c53a55d053baede748cfe7,2022-07-06_09h31.52.204,Colour_Asymmetry_Pilot,2022.1.3,Win32,59.93407252,62c50e9c1127f2cd403a315f,,,,,,,,,,,,,,,,,,,,,,,,,,,,,,,,,,,,,,,,,,,,,,,,,,,,,,,,,,,,,,,,,,,,,,,,,,,,,,,,,,,,,,,,,,,,,,,,,,,,,,,,,,,,,,,,,,,,,,,,,,,,,,,,,,,,,,,,,,,,,,,,,,,,,,,,,,,,,,,,,,,
0,56,56,88,1,,5f502659e156d519cef558b7,62c53a55d053baede748cfe7,2022-07-06_09h31.52.204,Colour_Asymmetry_Pilot,2022.1.3,Win32,59.93407252,62c50e9c1127f2cd403a315f,,,,,,,,,,,,,,,,,,,,,,,,,,,,,,,,,,,,,,,,,,,,,,,,,,,,,,,,,,,,,,,,,,,,,,,,,,,,,,,,,,,,,,,,,,,,,,,,,,,,,,,,,,,,,,,,,,,,,,,,,,,,,,,,,,,,,,,,,,,,,,,,,,,,,,,,,,,,,,,,,,,
0,57,57,87,1,,5f502659e156d519cef558b7,62c53a55d053baede748cfe7,2022-07-06_09h31.52.204,Colour_Asymmetry_Pilot,2022.1.3,Win32,59.93407252,62c50e9c1127f2cd403a315f,,,,,,,,,,,,,,,,,,,,,,,,,,,,,,,,,,,,,,,,,,,,,,,,,,,,,,,,,,,,,,,,,,,,,,,,,,,,,,,,,,,,,,,,,,,,,,,,,,,,,,,,,,,,,,,,,,,,,,,,,,,,,,,,,,,,,,,,,,,,,,,,,,,,,,,,,,,,,,,,,,,
0,58,58,5,1,,5f502659e156d519cef558b7,62c53a55d053baede748cfe7,2022-07-06_09h31.52.204,Colour_Asymmetry_Pilot,2022.1.3,Win32,59.93407252,62c50e9c1127f2cd403a315f,,,,,,,,,,,,,,,,,,,,,,,,,,,,,,,,,,,,,,,,,,,,,,,,,,,,,,,,,,,,,,,,,,,,,,,,,,,,,,,,,,,,,,,,,,,,,,,,,,,,,,,,,,,,,,,,,,,,,,,,,,,,,,,,,,,,,,,,,,,,,,,,,,,,,,,,,,,,,,,,,,,
0,59,59,32,1,,5f502659e156d519cef558b7,62c53a55d053baede748cfe7,2022-07-06_09h31.52.204,Colour_Asymmetry_Pilot,2022.1.3,Win32,59.93407252,62c50e9c1127f2cd403a315f,,,,,,,,,,,,,,,,,,,,,,,,,,,,,,,,,,,,,,,,,,,,,,,,,,,,,,,,,,,,,,,,,,,,,,,,,,,,,,,,,,,,,,,,,,,,,,,,,,,,,,,,,,,,,,,,,,,,,,,,,,,,,,,,,,,,,,,,,,,,,,,,,,,,,,,,,,,,,,,,,,,
0,60,60,37,1,,5f502659e156d519cef558b7,62c53a55d053baede748cfe7,2022-07-06_09h31.52.204,Colour_Asymmetry_Pilot,2022.1.3,Win32,59.93407252,62c50e9c1127f2cd403a315f,,,,,,,,,,,,,,,,,,,,,,,,,,,,,,,,,,,,,,,,,,,,,,,,,,,,,,,,,,,,,,,,,,,,,,,,,,,,,,,,,,,,,,,,,,,,,,,,,,,,,,,,,,,,,,,,,,,,,,,,,,,,,,,,,,,,,,,,,,,,,,,,,,,,,,,,,,,,,,,,,,,
0,61,61,3,1,,5f502659e156d519cef558b7,62c53a55d053baede748cfe7,2022-07-06_09h31.52.204,Colour_Asymmetry_Pilot,2022.1.3,Win32,59.93407252,62c50e9c1127f2cd403a315f,,,,,,,,,,,,,,,,,,,,,,,,,,,,,,,,,,,,,,,,,,,,,,,,,,,,,,,,,,,,,,,,,,,,,,,,,,,,,,,,,,,,,,,,,,,,,,,,,,,,,,,,,,,,,,,,,,,,,,,,,,,,,,,,,,,,,,,,,,,,,,,,,,,,,,,,,,,,,,,,,,,
0,62,62,75,1,,5f502659e156d519cef558b7,62c53a55d053baede748cfe7,2022-07-06_09h31.52.204,Colour_Asymmetry_Pilot,2022.1.3,Win32,59.93407252,62c50e9c1127f2cd403a315f,,,,,,,,,,,,,,,,,,,,,,,,,,,,,,,,,,,,,,,,,,,,,,,,,,,,,,,,,,,,,,,,,,,,,,,,,,,,,,,,,,,,,,,,,,,,,,,,,,,,,,,,,,,,,,,,,,,,,,,,,,,,,,,,,,,,,,,,,,,,,,,,,,,,,,,,,,,,,,,,,,,
0,63,63,44,1,,5f502659e156d519cef558b7,62c53a55d053baede748cfe7,2022-07-06_09h31.52.204,Colour_Asymmetry_Pilot,2022.1.3,Win32,59.93407252,62c50e9c1127f2cd403a315f,,,,,,,,,,,,,,,,,,,,,,,,,,,,,,,,,,,,,,,,,,,,,,,,,,,,,,,,,,,,,,,,,,,,,,,,,,,,,,,,,,,,,,,,,,,,,,,,,,,,,,,,,,,,,,,,,,,,,,,,,,,,,,,,,,,,,,,,,,,,,,,,,,,,,,,,,,,,,,,,,,,
0,64,64,70,1,,5f502659e156d519cef558b7,62c53a55d053baede748cfe7,2022-07-06_09h31.52.204,Colour_Asymmetry_Pilot,2022.1.3,Win32,59.93407252,62c50e9c1127f2cd403a315f,,,,,,,,,,,,,,,,,,,,,,,,,,,,,,,,,,,,,,,,,,,,,,,,,,,,,,,,,,,,,,,,,,,,,,,,,,,,,,,,,,,,,,,,,,,,,,,,,,,,,,,,,,,,,,,,,,,,,,,,,,,,,,,,,,,,,,,,,,,,,,,,,,,,,,,,,,,,,,,,,,,
0,65,65,35,1,,5f502659e156d519cef558b7,62c53a55d053baede748cfe7,2022-07-06_09h31.52.204,Colour_Asymmetry_Pilot,2022.1.3,Win32,59.93407252,62c50e9c1127f2cd403a315f,,,,,,,,,,,,,,,,,,,,,,,,,,,,,,,,,,,,,,,,,,,,,,,,,,,,,,,,,,,,,,,,,,,,,,,,,,,,,,,,,,,,,,,,,,,,,,,,,,,,,,,,,,,,,,,,,,,,,,,,,,,,,,,,,,,,,,,,,,,,,,,,,,,,,,,,,,,,,,,,,,,
0,66,66,9,1,,5f502659e156d519cef558b7,62c53a55d053baede748cfe7,2022-07-06_09h31.52.204,Colour_Asymmetry_Pilot,2022.1.3,Win32,59.93407252,62c50e9c1127f2cd403a315f,,,,,,,,,,,,,,,,,,,,,,,,,,,,,,,,,,,,,,,,,,,,,,,,,,,,,,,,,,,,,,,,,,,,,,,,,,,,,,,,,,,,,,,,,,,,,,,,,,,,,,,,,,,,,,,,,,,,,,,,,,,,,,,,,,,,,,,,,,,,,,,,,,,,,,,,,,,,,,,,,,,
0,67,67,14,1,,5f502659e156d519cef558b7,62c53a55d053baede748cfe7,2022-07-06_09h31.52.204,Colour_Asymmetry_Pilot,2022.1.3,Win32,59.93407252,62c50e9c1127f2cd403a315f,,,,,,,,,,,,,,,,,,,,,,,,,,,,,,,,,,,,,,,,,,,,,,,,,,,,,,,,,,,,,,,,,,,,,,,,,,,,,,,,,,,,,,,,,,,,,,,,,,,,,,,,,,,,,,,,,,,,,,,,,,,,,,,,,,,,,,,,,,,,,,,,,,,,,,,,,,,,,,,,,,,
0,68,68,86,1,,5f502659e156d519cef558b7,62c53a55d053baede748cfe7,2022-07-06_09h31.52.204,Colour_Asymmetry_Pilot,2022.1.3,Win32,59.93407252,62c50e9c1127f2cd403a315f,,,,,,,,,,,,,,,,,,,,,,,,,,,,,,,,,,,,,,,,,,,,,,,,,,,,,,,,,,,,,,,,,,,,,,,,,,,,,,,,,,,,,,,,,,,,,,,,,,,,,,,,,,,,,,,,,,,,,,,,,,,,,,,,,,,,,,,,,,,,,,,,,,,,,,,,,,,,,,,,,,,
0,69,69,55,1,,5f502659e156d519cef558b7,62c53a55d053baede748cfe7,2022-07-06_09h31.52.204,Colour_Asymmetry_Pilot,2022.1.3,Win32,59.93407252,62c50e9c1127f2cd403a315f,,,,,,,,,,,,,,,,,,,,,,,,,,,,,,,,,,,,,,,,,,,,,,,,,,,,,,,,,,,,,,,,,,,,,,,,,,,,,,,,,,,,,,,,,,,,,,,,,,,,,,,,,,,,,,,,,,,,,,,,,,,,,,,,,,,,,,,,,,,,,,,,,,,,,,,,,,,,,,,,,,,
0,70,70,65,1,,5f502659e156d519cef558b7,62c53a55d053baede748cfe7,2022-07-06_09h31.52.204,Colour_Asymmetry_Pilot,2022.1.3,Win32,59.93407252,62c50e9c1127f2cd403a315f,,,,,,,,,,,,,,,,,,,,,,,,,,,,,,,,,,,,,,,,,,,,,,,,,,,,,,,,,,,,,,,,,,,,,,,,,,,,,,,,,,,,,,,,,,,,,,,,,,,,,,,,,,,,,,,,,,,,,,,,,,,,,,,,,,,,,,,,,,,,,,,,,,,,,,,,,,,,,,,,,,,
0,71,71,20,1,,5f502659e156d519cef558b7,62c53a55d053baede748cfe7,2022-07-06_09h31.52.204,Colour_Asymmetry_Pilot,2022.1.3,Win32,59.93407252,62c50e9c1127f2cd403a315f,,,,,,,,,,,,,,,,,,,,,,,,,,,,,,,,,,,,,,,,,,,,,,,,,,,,,,,,,,,,,,,,,,,,,,,,,,,,,,,,,,,,,,,,,,,,,,,,,,,,,,,,,,,,,,,,,,,,,,,,,,,,,,,,,,,,,,,,,,,,,,,,,,,,,,,,,,,,,,,,,,,
0,72,72,82,1,,5f502659e156d519cef558b7,62c53a55d053baede748cfe7,2022-07-06_09h31.52.204,Colour_Asymmetry_Pilot,2022.1.3,Win32,59.93407252,62c50e9c1127f2cd403a315f,,,,,,,,,,,,,,,,,,,,,,,,,,,,,,,,,,,,,,,,,,,,,,,,,,,,,,,,,,,,,,,,,,,,,,,,,,,,,,,,,,,,,,,,,,,,,,,,,,,,,,,,,,,,,,,,,,,,,,,,,,,,,,,,,,,,,,,,,,,,,,,,,,,,,,,,,,,,,,,,,,,
0,73,73,53,1,,5f502659e156d519cef558b7,62c53a55d053baede748cfe7,2022-07-06_09h31.52.204,Colour_Asymmetry_Pilot,2022.1.3,Win32,59.93407252,62c50e9c1127f2cd403a315f,,,,,,,,,,,,,,,,,,,,,,,,,,,,,,,,,,,,,,,,,,,,,,,,,,,,,,,,,,,,,,,,,,,,,,,,,,,,,,,,,,,,,,,,,,,,,,,,,,,,,,,,,,,,,,,,,,,,,,,,,,,,,,,,,,,,,,,,,,,,,,,,,,,,,,,,,,,,,,,,,,,
0,74,74,68,1,,5f502659e156d519cef558b7,62c53a55d053baede748cfe7,2022-07-06_09h31.52.204,Colour_Asymmetry_Pilot,2022.1.3,Win32,59.93407252,62c50e9c1127f2cd403a315f,,,,,,,,,,,,,,,,,,,,,,,,,,,,,,,,,,,,,,,,,,,,,,,,,,,,,,,,,,,,,,,,,,,,,,,,,,,,,,,,,,,,,,,,,,,,,,,,,,,,,,,,,,,,,,,,,,,,,,,,,,,,,,,,,,,,,,,,,,,,,,,,,,,,,,,,,,,,,,,,,,,
0,75,75,11,1,,5f502659e156d519cef558b7,62c53a55d053baede748cfe7,2022-07-06_09h31.52.204,Colour_Asymmetry_Pilot,2022.1.3,Win32,59.93407252,62c50e9c1127f2cd403a315f,,,,,,,,,,,,,,,,,,,,,,,,,,,,,,,,,,,,,,,,,,,,,,,,,,,,,,,,,,,,,,,,,,,,,,,,,,,,,,,,,,,,,,,,,,,,,,,,,,,,,,,,,,,,,,,,,,,,,,,,,,,,,,,,,,,,,,,,,,,,,,,,,,,,,,,,,,,,,,,,,,,
0,76,76,66,1,,5f502659e156d519cef558b7,62c53a55d053baede748cfe7,2022-07-06_09h31.52.204,Colour_Asymmetry_Pilot,2022.1.3,Win32,59.93407252,62c50e9c1127f2cd403a315f,,,,,,,,,,,,,,,,,,,,,,,,,,,,,,,,,,,,,,,,,,,,,,,,,,,,,,,,,,,,,,,,,,,,,,,,,,,,,,,,,,,,,,,,,,,,,,,,,,,,,,,,,,,,,,,,,,,,,,,,,,,,,,,,,,,,,,,,,,,,,,,,,,,,,,,,,,,,,,,,,,,
0,77,77,59,1,,5f502659e156d519cef558b7,62c53a55d053baede748cfe7,2022-07-06_09h31.52.204,Colour_Asymmetry_Pilot,2022.1.3,Win32,59.93407252,62c50e9c1127f2cd403a315f,,,,,,,,,,,,,,,,,,,,,,,,,,,,,,,,,,,,,,,,,,,,,,,,,,,,,,,,,,,,,,,,,,,,,,,,,,,,,,,,,,,,,,,,,,,,,,,,,,,,,,,,,,,,,,,,,,,,,,,,,,,,,,,,,,,,,,,,,,,,,,,,,,,,,,,,,,,,,,,,,,,
0,78,78,29,1,,5f502659e156d519cef558b7,62c53a55d053baede748cfe7,2022-07-06_09h31.52.204,Colour_Asymmetry_Pilot,2022.1.3,Win32,59.93407252,62c50e9c1127f2cd403a315f,,,,,,,,,,,,,,,,,,,,,,,,,,,,,,,,,,,,,,,,,,,,,,,,,,,,,,,,,,,,,,,,,,,,,,,,,,,,,,,,,,,,,,,,,,,,,,,,,,,,,,,,,,,,,,,,,,,,,,,,,,,,,,,,,,,,,,,,,,,,,,,,,,,,,,,,,,,,,,,,,,,
0,79,79,73,1,,5f502659e156d519cef558b7,62c53a55d053baede748cfe7,2022-07-06_09h31.52.204,Colour_Asymmetry_Pilot,2022.1.3,Win32,59.93407252,62c50e9c1127f2cd403a315f,,,,,,,,,,,,,,,,,,,,,,,,,,,,,,,,,,,,,,,,,,,,,,,,,,,,,,,,,,,,,,,,,,,,,,,,,,,,,,,,,,,,,,,,,,,,,,,,,,,,,,,,,,,,,,,,,,,,,,,,,,,,,,,,,,,,,,,,,,,,,,,,,,,,,,,,,,,,,,,,,,,
0,80,80,71,1,,5f502659e156d519cef558b7,62c53a55d053baede748cfe7,2022-07-06_09h31.52.204,Colour_Asymmetry_Pilot,2022.1.3,Win32,59.93407252,62c50e9c1127f2cd403a315f,,,,,,,,,,,,,,,,,,,,,,,,,,,,,,,,,,,,,,,,,,,,,,,,,,,,,,,,,,,,,,,,,,,,,,,,,,,,,,,,,,,,,,,,,,,,,,,,,,,,,,,,,,,,,,,,,,,,,,,,,,,,,,,,,,,,,,,,,,,,,,,,,,,,,,,,,,,,,,,,,,,
0,81,81,67,1,,5f502659e156d519cef558b7,62c53a55d053baede748cfe7,2022-07-06_09h31.52.204,Colour_Asymmetry_Pilot,2022.1.3,Win32,59.93407252,62c50e9c1127f2cd403a315f,,,,,,,,,,,,,,,,,,,,,,,,,,,,,,,,,,,,,,,,,,,,,,,,,,,,,,,,,,,,,,,,,,,,,,,,,,,,,,,,,,,,,,,,,,,,,,,,,,,,,,,,,,,,,,,,,,,,,,,,,,,,,,,,,,,,,,,,,,,,,,,,,,,,,,,,,,,,,,,,,,,
0,82,82,90,1,,5f502659e156d519cef558b7,62c53a55d053baede748cfe7,2022-07-06_09h31.52.204,Colour_Asymmetry_Pilot,2022.1.3,Win32,59.93407252,62c50e9c1127f2cd403a315f,,,,,,,,,,,,,,,,,,,,,,,,,,,,,,,,,,,,,,,,,,,,,,,,,,,,,,,,,,,,,,,,,,,,,,,,,,,,,,,,,,,,,,,,,,,,,,,,,,,,,,,,,,,,,,,,,,,,,,,,,,,,,,,,,,,,,,,,,,,,,,,,,,,,,,,,,,,,,,,,,,,
0,83,83,81,1,,5f502659e156d519cef558b7,62c53a55d053baede748cfe7,2022-07-06_09h31.52.204,Colour_Asymmetry_Pilot,2022.1.3,Win32,59.93407252,62c50e9c1127f2cd403a315f,,,,,,,,,,,,,,,,,,,,,,,,,,,,,,,,,,,,,,,,,,,,,,,,,,,,,,,,,,,,,,,,,,,,,,,,,,,,,,,,,,,,,,,,,,,,,,,,,,,,,,,,,,,,,,,,,,,,,,,,,,,,,,,,,,,,,,,,,,,,,,,,,,,,,,,,,,,,,,,,,,,
0,84,84,43,1,,5f502659e156d519cef558b7,62c53a55d053baede748cfe7,2022-07-06_09h31.52.204,Colour_Asymmetry_Pilot,2022.1.3,Win32,59.93407252,62c50e9c1127f2cd403a315f,,,,,,,,,,,,,,,,,,,,,,,,,,,,,,,,,,,,,,,,,,,,,,,,,,,,,,,,,,,,,,,,,,,,,,,,,,,,,,,,,,,,,,,,,,,,,,,,,,,,,,,,,,,,,,,,,,,,,,,,,,,,,,,,,,,,,,,,,,,,,,,,,,,,,,,,,,,,,,,,,,,
0,85,85,25,1,,5f502659e156d519cef558b7,62c53a55d053baede748cfe7,2022-07-06_09h31.52.204,Colour_Asymmetry_Pilot,2022.1.3,Win32,59.93407252,62c50e9c1127f2cd403a315f,,,,,,,,,,,,,,,,,,,,,,,,,,,,,,,,,,,,,,,,,,,,,,,,,,,,,,,,,,,,,,,,,,,,,,,,,,,,,,,,,,,,,,,,,,,,,,,,,,,,,,,,,,,,,,,,,,,,,,,,,,,,,,,,,,,,,,,,,,,,,,,,,,,,,,,,,,,,,,,,,,,
0,86,86,45,1,,5f502659e156d519cef558b7,62c53a55d053baede748cfe7,2022-07-06_09h31.52.204,Colour_Asymmetry_Pilot,2022.1.3,Win32,59.93407252,62c50e9c1127f2cd403a315f,,,,,,,,,,,,,,,,,,,,,,,,,,,,,,,,,,,,,,,,,,,,,,,,,,,,,,,,,,,,,,,,,,,,,,,,,,,,,,,,,,,,,,,,,,,,,,,,,,,,,,,,,,,,,,,,,,,,,,,,,,,,,,,,,,,,,,,,,,,,,,,,,,,,,,,,,,,,,,,,,,,
0,87,87,46,1,,5f502659e156d519cef558b7,62c53a55d053baede748cfe7,2022-07-06_09h31.52.204,Colour_Asymmetry_Pilot,2022.1.3,Win32,59.93407252,62c50e9c1127f2cd403a315f,,,,,,,,,,,,,,,,,,,,,,,,,,,,,,,,,,,,,,,,,,,,,,,,,,,,,,,,,,,,,,,,,,,,,,,,,,,,,,,,,,,,,,,,,,,,,,,,,,,,,,,,,,,,,,,,,,,,,,,,,,,,,,,,,,,,,,,,,,,,,,,,,,,,,,,,,,,,,,,,,,,
0,88,88,91,1,,5f502659e156d519cef558b7,62c53a55d053baede748cfe7,2022-07-06_09h31.52.204,Colour_Asymmetry_Pilot,2022.1.3,Win32,59.93407252,62c50e9c1127f2cd403a315f,,,,,,,,,,,,,,,,,,,,,,,,,,,,,,,,,,,,,,,,,,,,,,,,,,,,,,,,,,,,,,,,,,,,,,,,,,,,,,,,,,,,,,,,,,,,,,,,,,,,,,,,,,,,,,,,,,,,,,,,,,,,,,,,,,,,,,,,,,,,,,,,,,,,,,,,,,,,,,,,,,,
0,89,89,0,1,,5f502659e156d519cef558b7,62c53a55d053baede748cfe7,2022-07-06_09h31.52.204,Colour_Asymmetry_Pilot,2022.1.3,Win32,59.93407252,62c50e9c1127f2cd403a315f,,,,,,,,,,,,,,,,,,,,,,,,,,,,,,,,,,,,,,,,,,,,,,,,,,,,,,,,,,,,,,,,,,,,,,,,,,,,,,,,,,,,,,,,,,,,,,,,,,,,,,,,,,,,,,,,,,,,,,,,,,,,,,,,,,,,,,,,,,,,,,,,,,,,,,,,,,,,,,,,,,,
0,90,90,38,1,,5f502659e156d519cef558b7,62c53a55d053baede748cfe7,2022-07-06_09h31.52.204,Colour_Asymmetry_Pilot,2022.1.3,Win32,59.93407252,62c50e9c1127f2cd403a315f,,,,,,,,,,,,,,,,,,,,,,,,,,,,,,,,,,,,,,,,,,,,,,,,,,,,,,,,,,,,,,,,,,,,,,,,,,,,,,,,,,,,,,,,,,,,,,,,,,,,,,,,,,,,,,,,,,,,,,,,,,,,,,,,,,,,,,,,,,,,,,,,,,,,,,,,,,,,,,,,,,,
0,91,91,72,1,,5f502659e156d519cef558b7,62c53a55d053baede748cfe7,2022-07-06_09h31.52.204,Colour_Asymmetry_Pilot,2022.1.3,Win32,59.93407252,62c50e9c1127f2cd403a315f,,,,,,,,,,,,,,,,,,,,,,,,,,,,,,,,,,,,,,,,,,,,,,,,,,,,,,,,,,,,,,,,,,,,,,,,,,,,,,,,,,,,,,,,,,,,,,,,,,,,,,,,,,,,,,,,,,,,,,,,,,,,,,,,,,,,,,,,,,,,,,,,,,,,,,,,,,,,,,,,,,,
0,92,92,23,1,,5f502659e156d519cef558b7,62c53a55d053baede748cfe7,2022-07-06_09h31.52.204,Colour_Asymmetry_Pilot,2022.1.3,Win32,59.93407252,62c50e9c1127f2cd403a315f,,,,,,,,,,,,,,,,,,,,,,,,,,,,,,,,,,,,,,,,,,,,,,,,,,,,,,,,,,,,,,,,,,,,,,,,,,,,,,,,,,,,,,,,,,,,,,,,,,,,,,,,,,,,,,,,,,,,,,,,,,,,,,,,,,,,,,,,,,,,,,,,,,,,,,,,,,,,,,,,,,,
,,,,,,5f502659e156d519cef558b7,62c53a55d053baede748cfe7,2022-07-06_09h31.52.204,Colour_Asymmetry_Pilot,2022.1.3,Win32,59.93407252,62c50e9c1127f2cd403a315f,0,0,0,73,1,onethree,,,,,,,,,,,,,,,,,,,,,,,,,,,,,,,,,,,,,,,,,,,,,,,,,,,,,,,,,,,,,,,,,,,,,,,,,,,,,,,,,,,,,,,,,,,,,,,,,,,,,,,,,,,,,,,,,,,,,,,,,,,,,,,,,,,,,,,,,,,,,,,,,,,,,,,,,,,,,
,,,,,,5f502659e156d519cef558b7,62c53a55d053baede748cfe7,2022-07-06_09h31.52.204,Colour_Asymmetry_Pilot,2022.1.3,Win32,59.93407252,62c50e9c1127f2cd403a315f,0,1,1,29,1,threefour,,,,,,,,,,,,,,,,,,,,,,,,,,,,,,,,,,,,,,,,,,,,,,,,,,,,,,,,,,,,,,,,,,,,,,,,,,,,,,,,,,,,,,,,,,,,,,,,,,,,,,,,,,,,,,,,,,,,,,,,,,,,,,,,,,,,,,,,,,,,,,,,,,,,,,,,,,,,,
,,,,,,5f502659e156d519cef558b7,62c53a55d053baede748cfe7,2022-07-06_09h31.52.204,Colour_Asymmetry_Pilot,2022.1.3,Win32,59.93407252,62c50e9c1127f2cd403a315f,0,2,2,3,1,twofour,,,,,,,,,,,,,,,,,,,,,,,,,,,,,,,,,,,,,,,,,,,,,,,,,,,,,,,,,,,,,,,,,,,,,,,,,,,,,,,,,,,,,,,,,,,,,,,,,,,,,,,,,,,,,,,,,,,,,,,,,,,,,,,,,,,,,,,,,,,,,,,,,,,,,,,,,,,,,
,,,,,,5f502659e156d519cef558b7,62c53a55d053baede748cfe7,2022-07-06_09h31.52.204,Colour_Asymmetry_Pilot,2022.1.3,Win32,59.93407252,62c50e9c1127f2cd403a315f,0,3,3,107,1,twofour,,,,,,,,,,,,,,,,,,,,,,,,,,,,,,,,,,,,,,,,,,,,,,,,,,,,,,,,,,,,,,,,,,,,,,,,,,,,,,,,,,,,,,,,,,,,,,,,,,,,,,,,,,,,,,,,,,,,,,,,,,,,,,,,,,,,,,,,,,,,,,,,,,,,,,,,,,,,,
,,,,,,5f502659e156d519cef558b7,62c53a55d053baede748cfe7,2022-07-06_09h31.52.204,Colour_Asymmetry_Pilot,2022.1.3,Win32,59.93407252,62c50e9c1127f2cd403a315f,0,4,4,114,1,twoone,,,,,,,,,,,,,,,,,,,,,,,,,,,,,,,,,,,,,,,,,,,,,,,,,,,,,,,,,,,,,,,,,,,,,,,,,,,,,,,,,,,,,,,,,,,,,,,,,,,,,,,,,,,,,,,,,,,,,,,,,,,,,,,,,,,,,,,,,,,,,,,,,,,,,,,,,,,,,
,,,,,,5f502659e156d519cef558b7,62c53a55d053baede748cfe7,2022-07-06_09h31.52.204,Colour_Asymmetry_Pilot,2022.1.3,Win32,59.93407252,62c50e9c1127f2cd403a315f,0,5,5,10,1,twoone,,,,,,,,,,,,,,,,,,,,,,,,,,,,,,,,,,,,,,,,,,,,,,,,,,,,,,,,,,,,,,,,,,,,,,,,,,,,,,,,,,,,,,,,,,,,,,,,,,,,,,,,,,,,,,,,,,,,,,,,,,,,,,,,,,,,,,,,,,,,,,,,,,,,,,,,,,,,,
,,,,,,5f502659e156d519cef558b7,62c53a55d053baede748cfe7,2022-07-06_09h31.52.204,Colour_Asymmetry_Pilot,2022.1.3,Win32,59.93407252,62c50e9c1127f2cd403a315f,0,6,6,56,1,onetwo,,,,,,,,,,,,,,,,,,,,,,,,,,,,,,,,,,,,,,,,,,,,,,,,,,,,,,,,,,,,,,,,,,,,,,,,,,,,,,,,,,,,,,,,,,,,,,,,,,,,,,,,,,,,,,,,,,,,,,,,,,,,,,,,,,,,,,,,,,,,,,,,,,,,,,,,,,,,,
,,,,,,5f502659e156d519cef558b7,62c53a55d053baede748cfe7,2022-07-06_09h31.52.204,Colour_Asymmetry_Pilot,2022.1.3,Win32,59.93407252,62c50e9c1127f2cd403a315f,0,7,7,11,1,twofour,,,,,,,,,,,,,,,,,,,,,,,,,,,,,,,,,,,,,,,,,,,,,,,,,,,,,,,,,,,,,,,,,,,,,,,,,,,,,,,,,,,,,,,,,,,,,,,,,,,,,,,,,,,,,,,,,,,,,,,,,,,,,,,,,,,,,,,,,,,,,,,,,,,,,,,,,,,,,
,,,,,,5f502659e156d519cef558b7,62c53a55d053baede748cfe7,2022-07-06_09h31.52.204,Colour_Asymmetry_Pilot,2022.1.3,Win32,59.93407252,62c50e9c1127f2cd403a315f,0,8,8,123,1,twofour,,,,,,,,,,,,,,,,,,,,,,,,,,,,,,,,,,,,,,,,,,,,,,,,,,,,,,,,,,,,,,,,,,,,,,,,,,,,,,,,,,,,,,,,,,,,,,,,,,,,,,,,,,,,,,,,,,,,,,,,,,,,,,,,,,,,,,,,,,,,,,,,,,,,,,,,,,,,,
,,,,,,5f502659e156d519cef558b7,62c53a55d053baede748cfe7,2022-07-06_09h31.52.204,Colour_Asymmetry_Pilot,2022.1.3,Win32,59.93407252,62c50e9c1127f2cd403a315f,0,9,9,100,1,threeone,,,,,,,,,,,,,,,,,,,,,,,,,,,,,,,,,,,,,,,,,,,,,,,,,,,,,,,,,,,,,,,,,,,,,,,,,,,,,,,,,,,,,,,,,,,,,,,,,,,,,,,,,,,,,,,,,,,,,,,,,,,,,,,,,,,,,,,,,,,,,,,,,,,,,,,,,,,,,
,,,,,,5f502659e156d519cef558b7,62c53a55d053baede748cfe7,2022-07-06_09h31.52.204,Colour_Asymmetry_Pilot,2022.1.3,Win32,59.93407252,62c50e9c1127f2cd403a315f,0,10,10,40,1,onetwo,,,,,,,,,,,,,,,,,,,,,,,,,,,,,,,,,,,,,,,,,,,,,,,,,,,,,,,,,,,,,,,,,,,,,,,,,,,,,,,,,,,,,,,,,,,,,,,,,,,,,,,,,,,,,,,,,,,,,,,,,,,,,,,,,,,,,,,,,,,,,,,,,,,,,,,,,,,,,
,,,,,,5f502659e156d519cef558b7,62c53a55d053baede748cfe7,2022-07-06_09h31.52.204,Colour_Asymmetry_Pilot,2022.1.3,Win32,59.93407252,62c50e9c1127f2cd403a315f,0,11,11,54,1,fourtwo,,,,,,,,,,,,,,,,,,,,,,,,,,,,,,,,,,,,,,,,,,,,,,,,,,,,,,,,,,,,,,,,,,,,,,,,,,,,,,,,,,,,,,,,,,,,,,,,,,,,,,,,,,,,,,,,,,,,,,,,,,,,,,,,,,,,,,,,,,,,,,,,,,,,,,,,,,,,,
,,,,,,5f502659e156d519cef558b7,62c53a55d053baede748cfe7,2022-07-06_09h31.52.204,Colour_Asymmetry_Pilot,2022.1.3,Win32,59.93407252,62c50e9c1127f2cd403a315f,0,12,12,154,1,twoone,,,,,,,,,,,,,,,,,,,,,,,,,,,,,,,,,,,,,,,,,,,,,,,,,,,,,,,,,,,,,,,,,,,,,,,,,,,,,,,,,,,,,,,,,,,,,,,,,,,,,,,,,,,,,,,,,,,,,,,,,,,,,,,,,,,,,,,,,,,,,,,,,,,,,,,,,,,,,
,,,,,,5f502659e156d519cef558b7,62c53a55d053baede748cfe7,2022-07-06_09h31.52.204,Colour_Asymmetry_Pilot,2022.1.3,Win32,59.93407252,62c50e9c1127f2cd403a315f,0,13,13,128,1,onetwo,,,,,,,,,,,,,,,,,,,,,,,,,,,,,,,,,,,,,,,,,,,,,,,,,,,,,,,,,,,,,,,,,,,,,,,,,,,,,,,,,,,,,,,,,,,,,,,,,,,,,,,,,,,,,,,,,,,,,,,,,,,,,,,,,,,,,,,,,,,,,,,,,,,,,,,,,,,,,
,,,,,,5f502659e156d519cef558b7,62c53a55d053baede748cfe7,2022-07-06_09h31.52.204,Colour_Asymmetry_Pilot,2022.1.3,Win32,59.93407252,62c50e9c1127f2cd403a315f,0,14,14,8,1,onetwo,,,,,,,,,,,,,,,,,,,,,,,,,,,,,,,,,,,,,,,,,,,,,,,,,,,,,,,,,,,,,,,,,,,,,,,,,,,,,,,,,,,,,,,,,,,,,,,,,,,,,,,,,,,,,,,,,,,,,,,,,,,,,,,,,,,,,,,,,,,,,,,,,,,,,,,,,,,,,
,,,,,,5f502659e156d519cef558b7,62c53a55d053baede748cfe7,2022-07-06_09h31.52.204,Colour_Asymmetry_Pilot,2022.1.3,Win32,59.93407252,62c50e9c1127f2cd403a315f,0,15,15,55,1,fourthree,,,,,,,,,,,,,,,,,,,,,,,,,,,,,,,,,,,,,,,,,,,,,,,,,,,,,,,,,,,,,,,,,,,,,,,,,,,,,,,,,,,,,,,,,,,,,,,,,,,,,,,,,,,,,,,,,,,,,,,,,,,,,,,,,,,,,,,,,,,,,,,,,,,,,,,,,,,,,
,,,,,,5f502659e156d519cef558b7,62c53a55d053baede748cfe7,2022-07-06_09h31.52.204,Colour_Asymmetry_Pilot,2022.1.3,Win32,59.93407252,62c50e9c1127f2cd403a315f,0,16,16,28,1,threeone,,,,,,,,,,,,,,,,,,,,,,,,,,,,,,,,,,,,,,,,,,,,,,,,,,,,,,,,,,,,,,,,,,,,,,,,,,,,,,,,,,,,,,,,,,,,,,,,,,,,,,,,,,,,,,,,,,,,,,,,,,,,,,,,,,,,,,,,,,,,,,,,,,,,,,,,,,,,,
,,,,,,5f502659e156d519cef558b7,62c53a55d053baede748cfe7,2022-07-06_09h31.52.204,Colour_Asymmetry_Pilot,2022.1.3,Win32,59.93407252,62c50e9c1127f2cd403a315f,0,17,17,5,1,threefour,,,,,,,,,,,,,,,,,,,,,,,,,,,,,,,,,,,,,,,,,,,,,,,,,,,,,,,,,,,,,,,,,,,,,,,,,,,,,,,,,,,,,,,,,,,,,,,,,,,,,,,,,,,,,,,,,,,,,,,,,,,,,,,,,,,,,,,,,,,,,,,,,,,,,,,,,,,,,
,,,,,,5f502659e156d519cef558b7,62c53a55d053baede748cfe7,2022-07-06_09h31.52.204,Colour_Asymmetry_Pilot,2022.1.3,Win32,59.93407252,62c50e9c1127f2cd403a315f,0,18,18,131,1,twofour,,,,,,,,,,,,,,,,,,,,,,,,,,,,,,,,,,,,,,,,,,,,,,,,,,,,,,,,,,,,,,,,,,,,,,,,,,,,,,,,,,,,,,,,,,,,,,,,,,,,,,,,,,,,,,,,,,,,,,,,,,,,,,,,,,,,,,,,,,,,,,,,,,,,,,,,,,,,,
,,,,,,5f502659e156d519cef558b7,62c53a55d053baede748cfe7,2022-07-06_09h31.52.204,Colour_Asymmetry_Pilot,2022.1.3,Win32,59.93407252,62c50e9c1127f2cd403a315f,0,19,19,116,1,threeone,,,,,,,,,,,,,,,,,,,,,,,,,,,,,,,,,,,,,,,,,,,,,,,,,,,,,,,,,,,,,,,,,,,,,,,,,,,,,,,,,,,,,,,,,,,,,,,,,,,,,,,,,,,,,,,,,,,,,,,,,,,,,,,,,,,,,,,,,,,,,,,,,,,,,,,,,,,,,
,,,,,,5f502659e156d519cef558b7,62c53a55d053baede748cfe7,2022-07-06_09h31.52.204,Colour_Asymmetry_Pilot,2022.1.3,Win32,59.93407252,62c50e9c1127f2cd403a315f,0,20,20,158,1,fourtwo,,,,,,,,,,,,,,,,,,,,,,,,,,,,,,,,,,,,,,,,,,,,,,,,,,,,,,,,,,,,,,,,,,,,,,,,,,,,,,,,,,,,,,,,,,,,,,,,,,,,,,,,,,,,,,,,,,,,,,,,,,,,,,,,,,,,,,,,,,,,,,,,,,,,,,,,,,,,,
,,,,,,5f502659e156d519cef558b7,62c53a55d053baede748cfe7,2022-07-06_09h31.52.204,Colour_Asymmetry_Pilot,2022.1.3,Win32,59.93407252,62c50e9c1127f2cd403a315f,0,21,21,0,1,onetwo,,,,,,,,,,,,,,,,,,,,,,,,,,,,,,,,,,,,,,,,,,,,,,,,,,,,,,,,,,,,,,,,,,,,,,,,,,,,,,,,,,,,,,,,,,,,,,,,,,,,,,,,,,,,,,,,,,,,,,,,,,,,,,,,,,,,,,,,,,,,,,,,,,,,,,,,,,,,,
,,,,,,5f502659e156d519cef558b7,62c53a55d053baede748cfe7,2022-07-06_09h31.52.204,Colour_Asymmetry_Pilot,2022.1.3,Win32,59.93407252,62c50e9c1127f2cd403a315f,0,22,22,77,1,threefour,,,,,,,,,,,,,,,,,,,,,,,,,,,,,,,,,,,,,,,,,,,,,,,,,,,,,,,,,,,,,,,,,,,,,,,,,,,,,,,,,,,,,,,,,,,,,,,,,,,,,,,,,,,,,,,,,,,,,,,,,,,,,,,,,,,,,,,,,,,,,,,,,,,,,,,,,,,,,
,,,,,,5f502659e156d519cef558b7,62c53a55d053baede748cfe7,2022-07-06_09h31.52.204,Colour_Asymmetry_Pilot,2022.1.3,Win32,59.93407252,62c50e9c1127f2cd403a315f,0,23,23,130,1,twoone,,,,,,,,,,,,,,,,,,,,,,,,,,,,,,,,,,,,,,,,,,,,,,,,,,,,,,,,,,,,,,,,,,,,,,,,,,,,,,,,,,,,,,,,,,,,,,,,,,,,,,,,,,,,,,,,,,,,,,,,,,,,,,,,,,,,,,,,,,,,,,,,,,,,,,,,,,,,,
,,,,,,5f502659e156d519cef558b7,62c53a55d053baede748cfe7,2022-07-06_09h31.52.204,Colour_Asymmetry_Pilot,2022.1.3,Win32,59.93407252,62c50e9c1127f2cd403a315f,0,24,24,1,1,onethree,,,,,,,,,,,,,,,,,,,,,,,,,,,,,,,,,,,,,,,,,,,,,,,,,,,,,,,,,,,,,,,,,,,,,,,,,,,,,,,,,,,,,,,,,,,,,,,,,,,,,,,,,,,,,,,,,,,,,,,,,,,,,,,,,,,,,,,,,,,,,,,,,,,,,,,,,,,,,
,,,,,,5f502659e156d519cef558b7,62c53a55d053baede748cfe7,2022-07-06_09h31.52.204,Colour_Asymmetry_Pilot,2022.1.3,Win32,59.93407252,62c50e9c1127f2cd403a315f,0,25,25,74,1,twoone,,,,,,,,,,,,,,,,,,,,,,,,,,,,,,,,,,,,,,,,,,,,,,,,,,,,,,,,,,,,,,,,,,,,,,,,,,,,,,,,,,,,,,,,,,,,,,,,,,,,,,,,,,,,,,,,,,,,,,,,,,,,,,,,,,,,,,,,,,,,,,,,,,,,,,,,,,,,,
,,,,,,5f502659e156d519cef558b7,62c53a55d053baede748cfe7,2022-07-06_09h31.52.204,Colour_Asymmetry_Pilot,2022.1.3,Win32,59.93407252,62c50e9c1127f2cd403a315f,0,26,26,88,1,onetwo,,,,,,,,,,,,,,,,,,,,,,,,,,,,,,,,,,,,,,,,,,,,,,,,,,,,,,,,,,,,,,,,,,,,,,,,,,,,,,,,,,,,,,,,,,,,,,,,,,,,,,,,,,,,,,,,,,,,,,,,,,,,,,,,,,,,,,,,,,,,,,,,,,,,,,,,,,,,,
,,,,,,5f502659e156d519cef558b7,62c53a55d053baede748cfe7,2022-07-06_09h31.52.204,Colour_Asymmetry_Pilot,2022.1.3,Win32,59.93407252,62c50e9c1127f2cd403a315f,0,27,27,118,1,fourtwo,,,,,,,,,,,,,,,,,,,,,,,,,,,,,,,,,,,,,,,,,,,,,,,,,,,,,,,,,,,,,,,,,,,,,,,,,,,,,,,,,,,,,,,,,,,,,,,,,,,,,,,,,,,,,,,,,,,,,,,,,,,,,,,,,,,,,,,,,,,,,,,,,,,,,,,,,,,,,
,,,,,,5f502659e156d519cef558b7,62c53a55d053baede748cfe7,2022-07-06_09h31.52.204,Colour_Asymmetry_Pilot,2022.1.3,Win32,59.93407252,62c50e9c1127f2cd403a315f,0,28,28,98,1,twoone,,,,,,,,,,,,,,,,,,,,,,,,,,,,,,,,,,,,,,,,,,,,,,,,,,,,,,,,,,,,,,,,,,,,,,,,,,,,,,,,,,,,,,,,,,,,,,,,,,,,,,,,,,,,,,,,,,,,,,,,,,,,,,,,,,,,,,,,,,,,,,,,,,,,,,,,,,,,,
,,,,,,5f502659e156d519cef558b7,62c53a55d053baede748cfe7,2022-07-06_09h31.52.204,Colour_Asymmetry_Pilot,2022.1.3,Win32,59.93407252,62c50e9c1127f2cd403a315f,0,29,29,150,1,fourtwo,,,,,,,,,,,,,,,,,,,,,,,,,,,,,,,,,,,,,,,,,,,,,,,,,,,,,,,,,,,,,,,,,,,,,,,,,,,,,,,,,,,,,,,,,,,,,,,,,,,,,,,,,,,,,,,,,,,,,,,,,,,,,,,,,,,,,,,,,,,,,,,,,,,,,,,,,,,,,
,,,,,,5f502659e156d519cef558b7,62c53a55d053baede748cfe7,2022-07-06_09h31.52.204,Colour_Asymmetry_Pilot,2022.1.3,Win32,59.93407252,62c50e9c1127f2cd403a315f,0,30,30,18,1,twoone,,,,,,,,,,,,,,,,,,,,,,,,,,,,,,,,,,,,,,,,,,,,,,,,,,,,,,,,,,,,,,,,,,,,,,,,,,,,,,,,,,,,,,,,,,,,,,,,,,,,,,,,,,,,,,,,,,,,,,,,,,,,,,,,,,,,,,,,,,,,,,,,,,,,,,,,,,,,,
,,,,,,5f502659e156d519cef558b7,62c53a55d053baede748cfe7,2022-07-06_09h31.52.204,Colour_Asymmetry_Pilot,2022.1.3,Win32,59.93407252,62c50e9c1127f2cd403a315f,0,31,31,132,1,threeone,,,,,,,,,,,,,,,,,,,,,,,,,,,,,,,,,,,,,,,,,,,,,,,,,,,,,,,,,,,,,,,,,,,,,,,,,,,,,,,,,,,,,,,,,,,,,,,,,,,,,,,,,,,,,,,,,,,,,,,,,,,,,,,,,,,,,,,,,,,,,,,,,,,,,,,,,,,,,
,,,,,,5f502659e156d519cef558b7,62c53a55d053baede748cfe7,2022-07-06_09h31.52.204,Colour_Asymmetry_Pilot,2022.1.3,Win32,59.93407252,62c50e9c1127f2cd403a315f,0,32,32,121,1,onethree,,,,,,,,,,,,,,,,,,,,,,,,,,,,,,,,,,,,,,,,,,,,,,,,,,,,,,,,,,,,,,,,,,,,,,,,,,,,,,,,,,,,,,,,,,,,,,,,,,,,,,,,,,,,,,,,,,,,,,,,,,,,,,,,,,,,,,,,,,,,,,,,,,,,,,,,,,,,,
,,,,,,5f502659e156d519cef558b7,62c53a55d053baede748cfe7,2022-07-06_09h31.52.204,Colour_Asymmetry_Pilot,2022.1.3,Win32,59.93407252,62c50e9c1127f2cd403a315f,0,33,33,89,1,onethree,,,,,,,,,,,,,,,,,,,,,,,,,,,,,,,,,,,,,,,,,,,,,,,,,,,,,,,,,,,,,,,,,,,,,,,,,,,,,,,,,,,,,,,,,,,,,,,,,,,,,,,,,,,,,,,,,,,,,,,,,,,,,,,,,,,,,,,,,,,,,,,,,,,,,,,,,,,,,
,,,,,,5f502659e156d519cef558b7,62c53a55d053baede748cfe7,2022-07-06_09h31.52.204,Colour_Asymmetry_Pilot,2022.1.3,Win32,59.93407252,62c50e9c1127f2cd403a315f,0,34,34,108,1,threeone,,,,,,,,,,,,,,,,,,,,,,,,,,,,,,,,,,,,,,,,,,,,,,,,,,,,,,,,,,,,,,,,,,,,,,,,,,,,,,,,,,,,,,,,,,,,,,,,,,,,,,,,,,,,,,,,,,,,,,,,,,,,,,,,,,,,,,,,,,,,,,,,,,,,,,,,,,,,,
,,,,,,5f502659e156d519cef558b7,62c53a55d053baede748cfe7,2022-07-06_09h31.52.204,Colour_Asymmetry_Pilot,2022.1.3,Win32,59.93407252,62c50e9c1127f2cd403a315f,0,35,35,109,1,threefour,,,,,,,,,,,,,,,,,,,,,,,,,,,,,,,,,,,,,,,,,,,,,,,,,,,,,,,,,,,,,,,,,,,,,,,,,,,,,,,,,,,,,,,,,,,,,,,,,,,,,,,,,,,,,,,,,,,,,,,,,,,,,,,,,,,,,,,,,,,,,,,,,,,,,,,,,,,,,
,,,,,,5f502659e156d519cef558b7,62c53a55d053baede748cfe7,2022-07-06_09h31.52.204,Colour_Asymmetry_Pilot,2022.1.3,Win32,59.93407252,62c50e9c1127f2cd403a315f,0,36,36,64,1,onetwo,,,,,,,,,,,,,,,,,,,,,,,,,,,,,,,,,,,,,,,,,,,,,,,,,,,,,,,,,,,,,,,,,,,,,,,,,,,,,,,,,,,,,,,,,,,,,,,,,,,,,,,,,,,,,,,,,,,,,,,,,,,,,,,,,,,,,,,,,,,,,,,,,,,,,,,,,,,,,
,,,,,,5f502659e156d519cef558b7,62c53a55d053baede748cfe7,2022-07-06_09h31.52.204,Colour_Asymmetry_Pilot,2022.1.3,Win32,59.93407252,62c50e9c1127f2cd403a315f,0,37,37,136,1,onetwo,,,,,,,,,,,,,,,,,,,,,,,,,,,,,,,,,,,,,,,,,,,,,,,,,,,,,,,,,,,,,,,,,,,,,,,,,,,,,,,,,,,,,,,,,,,,,,,,,,,,,,,,,,,,,,,,,,,,,,,,,,,,,,,,,,,,,,,,,,,,,,,,,,,,,,,,,,,,,
,,,,,,5f502659e156d519cef558b7,62c53a55d053baede748cfe7,2022-07-06_09h31.52.204,Colour_Asymmetry_Pilot,2022.1.3,Win32,59.93407252,62c50e9c1127f2cd403a315f,0,38,38,61,1,threefour,,,,,,,,,,,,,,,,,,,,,,,,,,,,,,,,,,,,,,,,,,,,,,,,,,,,,,,,,,,,,,,,,,,,,,,,,,,,,,,,,,,,,,,,,,,,,,,,,,,,,,,,,,,,,,,,,,,,,,,,,,,,,,,,,,,,,,,,,,,,,,,,,,,,,,,,,,,,,
,,,,,,5f502659e156d519cef558b7,62c53a55d053baede748cfe7,2022-07-06_09h31.52.204,Colour_Asymmetry_Pilot,2022.1.3,Win32,59.93407252,62c50e9c1127f2cd403a315f,0,39,39,122,1,twoone,,,,,,,,,,,,,,,,,,,,,,,,,,,,,,,,,,,,,,,,,,,,,,,,,,,,,,,,,,,,,,,,,,,,,,,,,,,,,,,,,,,,,,,,,,,,,,,,,,,,,,,,,,,,,,,,,,,,,,,,,,,,,,,,,,,,,,,,,,,,,,,,,,,,,,,,,,,,,
,,,,,,5f502659e156d519cef558b7,62c53a55d053baede748cfe7,2022-07-06_09h31.52.204,Colour_Asymmetry_Pilot,2022.1.3,Win32,59.93407252,62c50e9c1127f2cd403a315f,0,40,40,33,1,onethree,,,,,,,,,,,,,,,,,,,,,,,,,,,,,,,,,,,,,,,,,,,,,,,,,,,,,,,,,,,,,,,,,,,,,,,,,,,,,,,,,,,,,,,,,,,,,,,,,,,,,,,,,,,,,,,,,,,,,,,,,,,,,,,,,,,,,,,,,,,,,,,,,,,,,,,,,,,,,
,,,,,,5f502659e156d519cef558b7,62c53a55d053baede748cfe7,2022-07-06_09h31.52.204,Colour_Asymmetry_Pilot,2022.1.3,Win32,59.93407252,62c50e9c1127f2cd403a315f,0,41,41,76,1,threeone,,,,,,,,,,,,,,,,,,,,,,,,,,,,,,,,,,,,,,,,,,,,,,,,,,,,,,,,,,,,,,,,,,,,,,,,,,,,,,,,,,,,,,,,,,,,,,,,,,,,,,,,,,,,,,,,,,,,,,,,,,,,,,,,,,,,,,,,,,,,,,,,,,,,,,,,,,,,,
,,,,,,5f502659e156d519cef558b7,62c53a55d053baede748cfe7,2022-07-06_09h31.52.204,Colour_Asymmetry_Pilot,2022.1.3,Win32,59.93407252,62c50e9c1127f2cd403a315f,0,42,42,15,1,fourthree,,,,,,,,,,,,,,,,,,,,,,,,,,,,,,,,,,,,,,,,,,,,,,,,,,,,,,,,,,,,,,,,,,,,,,,,,,,,,,,,,,,,,,,,,,,,,,,,,,,,,,,,,,,,,,,,,,,,,,,,,,,,,,,,,,,,,,,,,,,,,,,,,,,,,,,,,,,,,
,,,,,,5f502659e156d519cef558b7,62c53a55d053baede748cfe7,2022-07-06_09h31.52.204,Colour_Asymmetry_Pilot,2022.1.3,Win32,59.93407252,62c50e9c1127f2cd403a315f,0,43,43,105,1,onethree,,,,,,,,,,,,,,,,,,,,,,,,,,,,,,,,,,,,,,,,,,,,,,,,,,,,,,,,,,,,,,,,,,,,,,,,,,,,,,,,,,,,,,,,,,,,,,,,,,,,,,,,,,,,,,,,,,,,,,,,,,,,,,,,,,,,,,,,,,,,,,,,,,,,,,,,,,,,,
,,,,,,5f502659e156d519cef558b7,62c53a55d053baede748cfe7,2022-07-06_09h31.52.204,Colour_Asymmetry_Pilot,2022.1.3,Win32,59.93407252,62c50e9c1127f2cd403a315f,0,44,44,53,1,threefour,,,,,,,,,,,,,,,,,,,,,,,,,,,,,,,,,,,,,,,,,,,,,,,,,,,,,,,,,,,,,,,,,,,,,,,,,,,,,,,,,,,,,,,,,,,,,,,,,,,,,,,,,,,,,,,,,,,,,,,,,,,,,,,,,,,,,,,,,,,,,,,,,,,,,,,,,,,,,
,,,,,,5f502659e156d519cef558b7,62c53a55d053baede748cfe7,2022-07-06_09h31.52.204,Colour_Asymmetry_Pilot,2022.1.3,Win32,59.93407252,62c50e9c1127f2cd403a315f,0,45,45,62,1,fourtwo,,,,,,,,,,,,,,,,,,,,,,,,,,,,,,,,,,,,,,,,,,,,,,,,,,,,,,,,,,,,,,,,,,,,,,,,,,,,,,,,,,,,,,,,,,,,,,,,,,,,,,,,,,,,,,,,,,,,,,,,,,,,,,,,,,,,,,,,,,,,,,,,,,,,,,,,,,,,,
,,,,,,5f502659e156d519cef558b7,62c53a55d053baede748cfe7,2022-07-06_09h31.52.204,Colour_Asymmetry_Pilot,2022.1.3,Win32,59.93407252,62c50e9c1127f2cd403a315f,0,46,46,7,1,fourthree,,,,,,,,,,,,,,,,,,,,,,,,,,,,,,,,,,,,,,,,,,,,,,,,,,,,,,,,,,,,,,,,,,,,,,,,,,,,,,,,,,,,,,,,,,,,,,,,,,,,,,,,,,,,,,,,,,,,,,,,,,,,,,,,,,,,,,,,,,,,,,,,,,,,,,,,,,,,,
,,,,,,5f502659e156d519cef558b7,62c53a55d053baede748cfe7,2022-07-06_09h31.52.204,Colour_Asymmetry_Pilot,2022.1.3,Win32,59.93407252,62c50e9c1127f2cd403a315f,0,47,47,26,1,twoone,,,,,,,,,,,,,,,,,,,,,,,,,,,,,,,,,,,,,,,,,,,,,,,,,,,,,,,,,,,,,,,,,,,,,,,,,,,,,,,,,,,,,,,,,,,,,,,,,,,,,,,,,,,,,,,,,,,,,,,,,,,,,,,,,,,,,,,,,,,,,,,,,,,,,,,,,,,,,
,,,,,,5f502659e156d519cef558b7,62c53a55d053baede748cfe7,2022-07-06_09h31.52.204,Colour_Asymmetry_Pilot,2022.1.3,Win32,59.93407252,62c50e9c1127f2cd403a315f,0,48,48,133,1,threefour,,,,,,,,,,,,,,,,,,,,,,,,,,,,,,,,,,,,,,,,,,,,,,,,,,,,,,,,,,,,,,,,,,,,,,,,,,,,,,,,,,,,,,,,,,,,,,,,,,,,,,,,,,,,,,,,,,,,,,,,,,,,,,,,,,,,,,,,,,,,,,,,,,,,,,,,,,,,,
,,,,,,5f502659e156d519cef558b7,62c53a55d053baede748cfe7,2022-07-06_09h31.52.204,Colour_Asymmetry_Pilot,2022.1.3,Win32,59.93407252,62c50e9c1127f2cd403a315f,0,49,49,86,1,fourtwo,,,,,,,,,,,,,,,,,,,,,,,,,,,,,,,,,,,,,,,,,,,,,,,,,,,,,,,,,,,,,,,,,,,,,,,,,,,,,,,,,,,,,,,,,,,,,,,,,,,,,,,,,,,,,,,,,,,,,,,,,,,,,,,,,,,,,,,,,,,,,,,,,,,,,,,,,,,,,
,,,,,,5f502659e156d519cef558b7,62c53a55d053baede748cfe7,2022-07-06_09h31.52.204,Colour_Asymmetry_Pilot,2022.1.3,Win32,59.93407252,62c50e9c1127f2cd403a315f,0,50,50,117,1,threefour,,,,,,,,,,,,,,,,,,,,,,,,,,,,,,,,,,,,,,,,,,,,,,,,,,,,,,,,,,,,,,,,,,,,,,,,,,,,,,,,,,,,,,,,,,,,,,,,,,,,,,,,,,,,,,,,,,,,,,,,,,,,,,,,,,,,,,,,,,,,,,,,,,,,,,,,,,,,,
,,,,,,5f502659e156d519cef558b7,62c53a55d053baede748cfe7,2022-07-06_09h31.52.204,Colour_Asymmetry_Pilot,2022.1.3,Win32,59.93407252,62c50e9c1127f2cd403a315f,0,51,51,38,1,fourtwo,,,,,,,,,,,,,,,,,,,,,,,,,,,,,,,,,,,,,,,,,,,,,,,,,,,,,,,,,,,,,,,,,,,,,,,,,,,,,,,,,,,,,,,,,,,,,,,,,,,,,,,,,,,,,,,,,,,,,,,,,,,,,,,,,,,,,,,,,,,,,,,,,,,,,,,,,,,,,
,,,,,,5f502659e156d519cef558b7,62c53a55d053baede748cfe7,2022-07-06_09h31.52.204,Colour_Asymmetry_Pilot,2022.1.3,Win32,59.93407252,62c50e9c1127f2cd403a315f,0,52,52,49,1,onethree,,,,,,,,,,,,,,,,,,,,,,,,,,,,,,,,,,,,,,,,,,,,,,,,,,,,,,,,,,,,,,,,,,,,,,,,,,,,,,,,,,,,,,,,,,,,,,,,,,,,,,,,,,,,,,,,,,,,,,,,,,,,,,,,,,,,,,,,,,,,,,,,,,,,,,,,,,,,,
,,,,,,5f502659e156d519cef558b7,62c53a55d053baede748cfe7,2022-07-06_09h31.52.204,Colour_Asymmetry_Pilot,2022.1.3,Win32,59.93407252,62c50e9c1127f2cd403a315f,0,53,53,148,1,threeone,,,,,,,,,,,,,,,,,,,,,,,,,,,,,,,,,,,,,,,,,,,,,,,,,,,,,,,,,,,,,,,,,,,,,,,,,,,,,,,,,,,,,,,,,,,,,,,,,,,,,,,,,,,,,,,,,,,,,,,,,,,,,,,,,,,,,,,,,,,,,,,,,,,,,,,,,,,,,
,,,,,,5f502659e156d519cef558b7,62c53a55d053baede748cfe7,2022-07-06_09h31.52.204,Colour_Asymmetry_Pilot,2022.1.3,Win32,59.93407252,62c50e9c1127f2cd403a315f,0,54,54,43,1,twofour,,,,,,,,,,,,,,,,,,,,,,,,,,,,,,,,,,,,,,,,,,,,,,,,,,,,,,,,,,,,,,,,,,,,,,,,,,,,,,,,,,,,,,,,,,,,,,,,,,,,,,,,,,,,,,,,,,,,,,,,,,,,,,,,,,,,,,,,,,,,,,,,,,,,,,,,,,,,,
,,,,,,5f502659e156d519cef558b7,62c53a55d053baede748cfe7,2022-07-06_09h31.52.204,Colour_Asymmetry_Pilot,2022.1.3,Win32,59.93407252,62c50e9c1127f2cd403a315f,0,55,55,127,1,fourthree,,,,,,,,,,,,,,,,,,,,,,,,,,,,,,,,,,,,,,,,,,,,,,,,,,,,,,,,,,,,,,,,,,,,,,,,,,,,,,,,,,,,,,,,,,,,,,,,,,,,,,,,,,,,,,,,,,,,,,,,,,,,,,,,,,,,,,,,,,,,,,,,,,,,,,,,,,,,,
,,,,,,5f502659e156d519cef558b7,62c53a55d053baede748cfe7,2022-07-06_09h31.52.204,Colour_Asymmetry_Pilot,2022.1.3,Win32,59.93407252,62c50e9c1127f2cd403a315f,0,56,56,151,1,fourthree,,,,,,,,,,,,,,,,,,,,,,,,,,,,,,,,,,,,,,,,,,,,,,,,,,,,,,,,,,,,,,,,,,,,,,,,,,,,,,,,,,,,,,,,,,,,,,,,,,,,,,,,,,,,,,,,,,,,,,,,,,,,,,,,,,,,,,,,,,,,,,,,,,,,,,,,,,,,,
,,,,,,5f502659e156d519cef558b7,62c53a55d053baede748cfe7,2022-07-06_09h31.52.204,Colour_Asymmetry_Pilot,2022.1.3,Win32,59.93407252,62c50e9c1127f2cd403a315f,0,57,57,31,1,fourthree,,,,,,,,,,,,,,,,,,,,,,,,,,,,,,,,,,,,,,,,,,,,,,,,,,,,,,,,,,,,,,,,,,,,,,,,,,,,,,,,,,,,,,,,,,,,,,,,,,,,,,,,,,,,,,,,,,,,,,,,,,,,,,,,,,,,,,,,,,,,,,,,,,,,,,,,,,,,,
,,,,,,5f502659e156d519cef558b7,62c53a55d053baede748cfe7,2022-07-06_09h31.52.204,Colour_Asymmetry_Pilot,2022.1.3,Win32,59.93407252,62c50e9c1127f2cd403a315f,0,58,58,155,1,twofour,,,,,,,,,,,,,,,,,,,,,,,,,,,,,,,,,,,,,,,,,,,,,,,,,,,,,,,,,,,,,,,,,,,,,,,,,,,,,,,,,,,,,,,,,,,,,,,,,,,,,,,,,,,,,,,,,,,,,,,,,,,,,,,,,,,,,,,,,,,,,,,,,,,,,,,,,,,,,
,,,,,,5f502659e156d519cef558b7,62c53a55d053baede748cfe7,2022-07-06_09h31.52.204,Colour_Asymmetry_Pilot,2022.1.3,Win32,59.93407252,62c50e9c1127f2cd403a315f,0,59,59,112,1,onetwo,,,,,,,,,,,,,,,,,,,,,,,,,,,,,,,,,,,,,,,,,,,,,,,,,,,,,,,,,,,,,,,,,,,,,,,,,,,,,,,,,,,,,,,,,,,,,,,,,,,,,,,,,,,,,,,,,,,,,,,,,,,,,,,,,,,,,,,,,,,,,,,,,,,,,,,,,,,,,
,,,,,,5f502659e156d519cef558b7,62c53a55d053baede748cfe7,2022-07-06_09h31.52.204,Colour_Asymmetry_Pilot,2022.1.3,Win32,59.93407252,62c50e9c1127f2cd403a315f,0,60,60,44,1,threeone,,,,,,,,,,,,,,,,,,,,,,,,,,,,,,,,,,,,,,,,,,,,,,,,,,,,,,,,,,,,,,,,,,,,,,,,,,,,,,,,,,,,,,,,,,,,,,,,,,,,,,,,,,,,,,,,,,,,,,,,,,,,,,,,,,,,,,,,,,,,,,,,,,,,,,,,,,,,,
,,,,,,5f502659e156d519cef558b7,62c53a55d053baede748cfe7,2022-07-06_09h31.52.204,Colour_Asymmetry_Pilot,2022.1.3,Win32,59.93407252,62c50e9c1127f2cd403a315f,0,61,61,101,1,threefour,,,,,,,,,,,,,,,,,,,,,,,,,,,,,,,,,,,,,,,,,,,,,,,,,,,,,,,,,,,,,,,,,,,,,,,,,,,,,,,,,,,,,,,,,,,,,,,,,,,,,,,,,,,,,,,,,,,,,,,,,,,,,,,,,,,,,,,,,,,,,,,,,,,,,,,,,,,,,
,,,,,,5f502659e156d519cef558b7,62c53a55d053baede748cfe7,2022-07-06_09h31.52.204,Colour_Asymmetry_Pilot,2022.1.3,Win32,59.93407252,62c50e9c1127f2cd403a315f,0,62,62,159,1,fourthree,,,,,,,,,,,,,,,,,,,,,,,,,,,,,,,,,,,,,,,,,,,,,,,,,,,,,,,,,,,,,,,,,,,,,,,,,,,,,,,,,,,,,,,,,,,,,,,,,,,,,,,,,,,,,,,,,,,,,,,,,,,,,,,,,,,,,,,,,,,,,,,,,,,,,,,,,,,,,
,,,,,,5f502659e156d519cef558b7,62c53a55d053baede748cfe7,2022-07-06_09h31.52.204,Colour_Asymmetry_Pilot,2022.1.3,Win32,59.93407252,62c50e9c1127f2cd403a315f,0,63,63,23,1,fourthree,,,,,,,,,,,,,,,,,,,,,,,,,,,,,,,,,,,,,,,,,,,,,,,,,,,,,,,,,,,,,,,,,,,,,,,,,,,,,,,,,,,,,,,,,,,,,,,,,,,,,,,,,,,,,,,,,,,,,,,,,,,,,,,,,,,,,,,,,,,,,,,,,,,,,,,,,,,,,
,,,,,,5f502659e156d519cef558b7,62c53a55d053baede748cfe7,2022-07-06_09h31.52.204,Colour_Asymmetry_Pilot,2022.1.3,Win32,59.93407252,62c50e9c1127f2cd403a315f,0,64,64,99,1,twofour,,,,,,,,,,,,,,,,,,,,,,,,,,,,,,,,,,,,,,,,,,,,,,,,,,,,,,,,,,,,,,,,,,,,,,,,,,,,,,,,,,,,,,,,,,,,,,,,,,,,,,,,,,,,,,,,,,,,,,,,,,,,,,,,,,,,,,,,,,,,,,,,,,,,,,,,,,,,,
,,,,,,5f502659e156d519cef558b7,62c53a55d053baede748cfe7,2022-07-06_09h31.52.204,Colour_Asymmetry_Pilot,2022.1.3,Win32,59.93407252,62c50e9c1127f2cd403a315f,0,65,65,14,1,fourtwo,,,,,,,,,,,,,,,,,,,,,,,,,,,,,,,,,,,,,,,,,,,,,,,,,,,,,,,,,,,,,,,,,,,,,,,,,,,,,,,,,,,,,,,,,,,,,,,,,,,,,,,,,,,,,,,,,,,,,,,,,,,,,,,,,,,,,,,,,,,,,,,,,,,,,,,,,,,,,
,,,,,,5f502659e156d519cef558b7,62c53a55d053baede748cfe7,2022-07-06_09h31.52.204,Colour_Asymmetry_Pilot,2022.1.3,Win32,59.93407252,62c50e9c1127f2cd403a315f,0,66,66,81,1,onethree,,,,,,,,,,,,,,,,,,,,,,,,,,,,,,,,,,,,,,,,,,,,,,,,,,,,,,,,,,,,,,,,,,,,,,,,,,,,,,,,,,,,,,,,,,,,,,,,,,,,,,,,,,,,,,,,,,,,,,,,,,,,,,,,,,,,,,,,,,,,,,,,,,,,,,,,,,,,,
,,,,,,5f502659e156d519cef558b7,62c53a55d053baede748cfe7,2022-07-06_09h31.52.204,Colour_Asymmetry_Pilot,2022.1.3,Win32,59.93407252,62c50e9c1127f2cd403a315f,0,67,67,37,1,threefour,,,,,,,,,,,,,,,,,,,,,,,,,,,,,,,,,,,,,,,,,,,,,,,,,,,,,,,,,,,,,,,,,,,,,,,,,,,,,,,,,,,,,,,,,,,,,,,,,,,,,,,,,,,,,,,,,,,,,,,,,,,,,,,,,,,,,,,,,,,,,,,,,,,,,,,,,,,,,
,,,,,,5f502659e156d519cef558b7,62c53a55d053baede748cfe7,2022-07-06_09h31.52.204,Colour_Asymmetry_Pilot,2022.1.3,Win32,59.93407252,62c50e9c1127f2cd403a315f,0,68,68,32,1,onetwo,,,,,,,,,,,,,,,,,,,,,,,,,,,,,,,,,,,,,,,,,,,,,,,,,,,,,,,,,,,,,,,,,,,,,,,,,,,,,,,,,,,,,,,,,,,,,,,,,,,,,,,,,,,,,,,,,,,,,,,,,,,,,,,,,,,,,,,,,,,,,,,,,,,,,,,,,,,,,
,,,,,,5f502659e156d519cef558b7,62c53a55d053baede748cfe7,2022-07-06_09h31.52.204,Colour_Asymmetry_Pilot,2022.1.3,Win32,59.93407252,62c50e9c1127f2cd403a315f,0,69,69,21,1,threefour,,,,,,,,,,,,,,,,,,,,,,,,,,,,,,,,,,,,,,,,,,,,,,,,,,,,,,,,,,,,,,,,,,,,,,,,,,,,,,,,,,,,,,,,,,,,,,,,,,,,,,,,,,,,,,,,,,,,,,,,,,,,,,,,,,,,,,,,,,,,,,,,,,,,,,,,,,,,,
,,,,,,5f502659e156d519cef558b7,62c53a55d053baede748cfe7,2022-07-06_09h31.52.204,Colour_Asymmetry_Pilot,2022.1.3,Win32,59.93407252,62c50e9c1127f2cd403a315f,0,70,70,52,1,threeone,,,,,,,,,,,,,,,,,,,,,,,,,,,,,,,,,,,,,,,,,,,,,,,,,,,,,,,,,,,,,,,,,,,,,,,,,,,,,,,,,,,,,,,,,,,,,,,,,,,,,,,,,,,,,,,,,,,,,,,,,,,,,,,,,,,,,,,,,,,,,,,,,,,,,,,,,,,,,
,,,,,,5f502659e156d519cef558b7,62c53a55d053baede748cfe7,2022-07-06_09h31.52.204,Colour_Asymmetry_Pilot,2022.1.3,Win32,59.93407252,62c50e9c1127f2cd403a315f,0,71,71,75,1,twofour,,,,,,,,,,,,,,,,,,,,,,,,,,,,,,,,,,,,,,,,,,,,,,,,,,,,,,,,,,,,,,,,,,,,,,,,,,,,,,,,,,,,,,,,,,,,,,,,,,,,,,,,,,,,,,,,,,,,,,,,,,,,,,,,,,,,,,,,,,,,,,,,,,,,,,,,,,,,,
,,,,,,5f502659e156d519cef558b7,62c53a55d053baede748cfe7,2022-07-06_09h31.52.204,Colour_Asymmetry_Pilot,2022.1.3,Win32,59.93407252,62c50e9c1127f2cd403a315f,0,72,72,83,1,twofour,,,,,,,,,,,,,,,,,,,,,,,,,,,,,,,,,,,,,,,,,,,,,,,,,,,,,,,,,,,,,,,,,,,,,,,,,,,,,,,,,,,,,,,,,,,,,,,,,,,,,,,,,,,,,,,,,,,,,,,,,,,,,,,,,,,,,,,,,,,,,,,,,,,,,,,,,,,,,
,,,,,,5f502659e156d519cef558b7,62c53a55d053baede748cfe7,2022-07-06_09h31.52.204,Colour_Asymmetry_Pilot,2022.1.3,Win32,59.93407252,62c50e9c1127f2cd403a315f,0,73,73,153,1,onethree,,,,,,,,,,,,,,,,,,,,,,,,,,,,,,,,,,,,,,,,,,,,,,,,,,,,,,,,,,,,,,,,,,,,,,,,,,,,,,,,,,,,,,,,,,,,,,,,,,,,,,,,,,,,,,,,,,,,,,,,,,,,,,,,,,,,,,,,,,,,,,,,,,,,,,,,,,,,,
,,,,,,5f502659e156d519cef558b7,62c53a55d053baede748cfe7,2022-07-06_09h31.52.204,Colour_Asymmetry_Pilot,2022.1.3,Win32,59.93407252,62c50e9c1127f2cd403a315f,0,74,74,35,1,twofour,,,,,,,,,,,,,,,,,,,,,,,,,,,,,,,,,,,,,,,,,,,,,,,,,,,,,,,,,,,,,,,,,,,,,,,,,,,,,,,,,,,,,,,,,,,,,,,,,,,,,,,,,,,,,,,,,,,,,,,,,,,,,,,,,,,,,,,,,,,,,,,,,,,,,,,,,,,,,
,,,,,,5f502659e156d519cef558b7,62c53a55d053baede748cfe7,2022-07-06_09h31.52.204,Colour_Asymmetry_Pilot,2022.1.3,Win32,59.93407252,62c50e9c1127f2cd403a315f,0,75,75,125,1,threefour,,,,,,,,,,,,,,,,,,,,,,,,,,,,,,,,,,,,,,,,,,,,,,,,,,,,,,,,,,,,,,,,,,,,,,,,,,,,,,,,,,,,,,,,,,,,,,,,,,,,,,,,,,,,,,,,,,,,,,,,,,,,,,,,,,,,,,,,,,,,,,,,,,,,,,,,,,,,,
,,,,,,5f502659e156d519cef558b7,62c53a55d053baede748cfe7,2022-07-06_09h31.52.204,Colour_Asymmetry_Pilot,2022.1.3,Win32,59.93407252,62c50e9c1127f2cd403a315f,0,76,76,2,1,twoone,,,,,,,,,,,,,,,,,,,,,,,,,,,,,,,,,,,,,,,,,,,,,,,,,,,,,,,,,,,,,,,,,,,,,,,,,,,,,,,,,,,,,,,,,,,,,,,,,,,,,,,,,,,,,,,,,,,,,,,,,,,,,,,,,,,,,,,,,,,,,,,,,,,,,,,,,,,,,
,,,,,,5f502659e156d519cef558b7,62c53a55d053baede748cfe7,2022-07-06_09h31.52.204,Colour_Asymmetry_Pilot,2022.1.3,Win32,59.93407252,62c50e9c1127f2cd403a315f,0,77,77,45,1,threefour,,,,,,,,,,,,,,,,,,,,,,,,,,,,,,,,,,,,,,,,,,,,,,,,,,,,,,,,,,,,,,,,,,,,,,,,,,,,,,,,,,,,,,,,,,,,,,,,,,,,,,,,,,,,,,,,,,,,,,,,,,,,,,,,,,,,,,,,,,,,,,,,,,,,,,,,,,,,,
,,,,,,5f502659e156d519cef558b7,62c53a55d053baede748cfe7,2022-07-06_09h31.52.204,Colour_Asymmetry_Pilot,2022.1.3,Win32,59.93407252,62c50e9c1127f2cd403a315f,0,78,78,152,1,onetwo,,,,,,,,,,,,,,,,,,,,,,,,,,,,,,,,,,,,,,,,,,,,,,,,,,,,,,,,,,,,,,,,,,,,,,,,,,,,,,,,,,,,,,,,,,,,,,,,,,,,,,,,,,,,,,,,,,,,,,,,,,,,,,,,,,,,,,,,,,,,,,,,,,,,,,,,,,,,,
,,,,,,5f502659e156d519cef558b7,62c53a55d053baede748cfe7,2022-07-06_09h31.52.204,Colour_Asymmetry_Pilot,2022.1.3,Win32,59.93407252,62c50e9c1127f2cd403a315f,0,79,79,160,1,onetwo,,,,,,,,,,,,,,,,,,,,,,,,,,,,,,,,,,,,,,,,,,,,,,,,,,,,,,,,,,,,,,,,,,,,,,,,,,,,,,,,,,,,,,,,,,,,,,,,,,,,,,,,,,,,,,,,,,,,,,,,,,,,,,,,,,,,,,,,,,,,,,,,,,,,,,,,,,,,,
,,,,,,5f502659e156d519cef558b7,62c53a55d053baede748cfe7,2022-07-06_09h31.52.204,Colour_Asymmetry_Pilot,2022.1.3,Win32,59.93407252,62c50e9c1127f2cd403a315f,0,80,80,79,1,fourthree,,,,,,,,,,,,,,,,,,,,,,,,,,,,,,,,,,,,,,,,,,,,,,,,,,,,,,,,,,,,,,,,,,,,,,,,,,,,,,,,,,,,,,,,,,,,,,,,,,,,,,,,,,,,,,,,,,,,,,,,,,,,,,,,,,,,,,,,,,,,,,,,,,,,,,,,,,,,,
,,,,,,5f502659e156d519cef558b7,62c53a55d053baede748cfe7,2022-07-06_09h31.52.204,Colour_Asymmetry_Pilot,2022.1.3,Win32,59.93407252,62c50e9c1127f2cd403a315f,0,81,81,143,1,fourthree,,,,,,,,,,,,,,,,,,,,,,,,,,,,,,,,,,,,,,,,,,,,,,,,,,,,,,,,,,,,,,,,,,,,,,,,,,,,,,,,,,,,,,,,,,,,,,,,,,,,,,,,,,,,,,,,,,,,,,,,,,,,,,,,,,,,,,,,,,,,,,,,,,,,,,,,,,,,,
,,,,,,5f502659e156d519cef558b7,62c53a55d053baede748cfe7,2022-07-06_09h31.52.204,Colour_Asymmetry_Pilot,2022.1.3,Win32,59.93407252,62c50e9c1127f2cd403a315f,0,82,82,137,1,onethree,,,,,,,,,,,,,,,,,,,,,,,,,,,,,,,,,,,,,,,,,,,,,,,,,,,,,,,,,,,,,,,,,,,,,,,,,,,,,,,,,,,,,,,,,,,,,,,,,,,,,,,,,,,,,,,,,,,,,,,,,,,,,,,,,,,,,,,,,,,,,,,,,,,,,,,,,,,,,
,,,,,,5f502659e156d519cef558b7,62c53a55d053baede748cfe7,2022-07-06_09h31.52.204,Colour_Asymmetry_Pilot,2022.1.3,Win32,59.93407252,62c50e9c1127f2cd403a315f,0,83,83,50,1,twoone,,,,,,,,,,,,,,,,,,,,,,,,,,,,,,,,,,,,,,,,,,,,,,,,,,,,,,,,,,,,,,,,,,,,,,,,,,,,,,,,,,,,,,,,,,,,,,,,,,,,,,,,,,,,,,,,,,,,,,,,,,,,,,,,,,,,,,,,,,,,,,,,,,,,,,,,,,,,,
,,,,,,5f502659e156d519cef558b7,62c53a55d053baede748cfe7,2022-07-06_09h31.52.204,Colour_Asymmetry_Pilot,2022.1.3,Win32,59.93407252,62c50e9c1127f2cd403a315f,0,84,84,9,1,onethree,,,,,,,,,,,,,,,,,,,,,,,,,,,,,,,,,,,,,,,,,,,,,,,,,,,,,,,,,,,,,,,,,,,,,,,,,,,,,,,,,,,,,,,,,,,,,,,,,,,,,,,,,,,,,,,,,,,,,,,,,,,,,,,,,,,,,,,,,,,,,,,,,,,,,,,,,,,,,
,,,,,,5f502659e156d519cef558b7,62c53a55d053baede748cfe7,2022-07-06_09h31.52.204,Colour_Asymmetry_Pilot,2022.1.3,Win32,59.93407252,62c50e9c1127f2cd403a315f,0,85,85,12,1,threeone,,,,,,,,,,,,,,,,,,,,,,,,,,,,,,,,,,,,,,,,,,,,,,,,,,,,,,,,,,,,,,,,,,,,,,,,,,,,,,,,,,,,,,,,,,,,,,,,,,,,,,,,,,,,,,,,,,,,,,,,,,,,,,,,,,,,,,,,,,,,,,,,,,,,,,,,,,,,,
,,,,,,5f502659e156d519cef558b7,62c53a55d053baede748cfe7,2022-07-06_09h31.52.204,Colour_Asymmetry_Pilot,2022.1.3,Win32,59.93407252,62c50e9c1127f2cd403a315f,0,86,86,30,1,fourtwo,,,,,,,,,,,,,,,,,,,,,,,,,,,,,,,,,,,,,,,,,,,,,,,,,,,,,,,,,,,,,,,,,,,,,,,,,,,,,,,,,,,,,,,,,,,,,,,,,,,,,,,,,,,,,,,,,,,,,,,,,,,,,,,,,,,,,,,,,,,,,,,,,,,,,,,,,,,,,
,,,,,,5f502659e156d519cef558b7,62c53a55d053baede748cfe7,2022-07-06_09h31.52.204,Colour_Asymmetry_Pilot,2022.1.3,Win32,59.93407252,62c50e9c1127f2cd403a315f,0,87,87,138,1,twoone,,,,,,,,,,,,,,,,,,,,,,,,,,,,,,,,,,,,,,,,,,,,,,,,,,,,,,,,,,,,,,,,,,,,,,,,,,,,,,,,,,,,,,,,,,,,,,,,,,,,,,,,,,,,,,,,,,,,,,,,,,,,,,,,,,,,,,,,,,,,,,,,,,,,,,,,,,,,,
,,,,,,5f502659e156d519cef558b7,62c53a55d053baede748cfe7,2022-07-06_09h31.52.204,Colour_Asymmetry_Pilot,2022.1.3,Win32,59.93407252,62c50e9c1127f2cd403a315f,0,88,88,66,1,twoone,,,,,,,,,,,,,,,,,,,,,,,,,,,,,,,,,,,,,,,,,,,,,,,,,,,,,,,,,,,,,,,,,,,,,,,,,,,,,,,,,,,,,,,,,,,,,,,,,,,,,,,,,,,,,,,,,,,,,,,,,,,,,,,,,,,,,,,,,,,,,,,,,,,,,,,,,,,,,
,,,,,,5f502659e156d519cef558b7,62c53a55d053baede748cfe7,2022-07-06_09h31.52.204,Colour_Asymmetry_Pilot,2022.1.3,Win32,59.93407252,62c50e9c1127f2cd403a315f,0,89,89,157,1,threefour,,,,,,,,,,,,,,,,,,,,,,,,,,,,,,,,,,,,,,,,,,,,,,,,,,,,,,,,,,,,,,,,,,,,,,,,,,,,,,,,,,,,,,,,,,,,,,,,,,,,,,,,,,,,,,,,,,,,,,,,,,,,,,,,,,,,,,,,,,,,,,,,,,,,,,,,,,,,,
,,,,,,5f502659e156d519cef558b7,62c53a55d053baede748cfe7,2022-07-06_09h31.52.204,Colour_Asymmetry_Pilot,2022.1.3,Win32,59.93407252,62c50e9c1127f2cd403a315f,0,90,90,106,1,twoone,,,,,,,,,,,,,,,,,,,,,,,,,,,,,,,,,,,,,,,,,,,,,,,,,,,,,,,,,,,,,,,,,,,,,,,,,,,,,,,,,,,,,,,,,,,,,,,,,,,,,,,,,,,,,,,,,,,,,,,,,,,,,,,,,,,,,,,,,,,,,,,,,,,,,,,,,,,,,
,,,,,,5f502659e156d519cef558b7,62c53a55d053baede748cfe7,2022-07-06_09h31.52.204,Colour_Asymmetry_Pilot,2022.1.3,Win32,59.93407252,62c50e9c1127f2cd403a315f,0,91,91,67,1,twofour,,,,,,,,,,,,,,,,,,,,,,,,,,,,,,,,,,,,,,,,,,,,,,,,,,,,,,,,,,,,,,,,,,,,,,,,,,,,,,,,,,,,,,,,,,,,,,,,,,,,,,,,,,,,,,,,,,,,,,,,,,,,,,,,,,,,,,,,,,,,,,,,,,,,,,,,,,,,,
,,,,,,5f502659e156d519cef558b7,62c53a55d053baede748cfe7,2022-07-06_09h31.52.204,Colour_Asymmetry_Pilot,2022.1.3,Win32,59.93407252,62c50e9c1127f2cd403a315f,0,92,92,147,1,twofour,,,,,,,,,,,,,,,,,,,,,,,,,,,,,,,,,,,,,,,,,,,,,,,,,,,,,,,,,,,,,,,,,,,,,,,,,,,,,,,,,,,,,,,,,,,,,,,,,,,,,,,,,,,,,,,,,,,,,,,,,,,,,,,,,,,,,,,,,,,,,,,,,,,,,,,,,,,,,
,,,,,,5f502659e156d519cef558b7,62c53a55d053baede748cfe7,2022-07-06_09h31.52.204,Colour_Asymmetry_Pilot,2022.1.3,Win32,59.93407252,62c50e9c1127f2cd403a315f,0,93,93,24,1,onetwo,,,,,,,,,,,,,,,,,,,,,,,,,,,,,,,,,,,,,,,,,,,,,,,,,,,,,,,,,,,,,,,,,,,,,,,,,,,,,,,,,,,,,,,,,,,,,,,,,,,,,,,,,,,,,,,,,,,,,,,,,,,,,,,,,,,,,,,,,,,,,,,,,,,,,,,,,,,,,
,,,,,,5f502659e156d519cef558b7,62c53a55d053baede748cfe7,2022-07-06_09h31.52.204,Colour_Asymmetry_Pilot,2022.1.3,Win32,59.93407252,62c50e9c1127f2cd403a315f,0,94,94,103,1,fourthree,,,,,,,,,,,,,,,,,,,,,,,,,,,,,,,,,,,,,,,,,,,,,,,,,,,,,,,,,,,,,,,,,,,,,,,,,,,,,,,,,,,,,,,,,,,,,,,,,,,,,,,,,,,,,,,,,,,,,,,,,,,,,,,,,,,,,,,,,,,,,,,,,,,,,,,,,,,,,
,,,,,,5f502659e156d519cef558b7,62c53a55d053baede748cfe7,2022-07-06_09h31.52.204,Colour_Asymmetry_Pilot,2022.1.3,Win32,59.93407252,62c50e9c1127f2cd403a315f,0,95,95,87,1,fourthree,,,,,,,,,,,,,,,,,,,,,,,,,,,,,,,,,,,,,,,,,,,,,,,,,,,,,,,,,,,,,,,,,,,,,,,,,,,,,,,,,,,,,,,,,,,,,,,,,,,,,,,,,,,,,,,,,,,,,,,,,,,,,,,,,,,,,,,,,,,,,,,,,,,,,,,,,,,,,
,,,,,,5f502659e156d519cef558b7,62c53a55d053baede748cfe7,2022-07-06_09h31.52.204,Colour_Asymmetry_Pilot,2022.1.3,Win32,59.93407252,62c50e9c1127f2cd403a315f,0,96,96,41,1,onethree,,,,,,,,,,,,,,,,,,,,,,,,,,,,,,,,,,,,,,,,,,,,,,,,,,,,,,,,,,,,,,,,,,,,,,,,,,,,,,,,,,,,,,,,,,,,,,,,,,,,,,,,,,,,,,,,,,,,,,,,,,,,,,,,,,,,,,,,,,,,,,,,,,,,,,,,,,,,,
,,,,,,5f502659e156d519cef558b7,62c53a55d053baede748cfe7,2022-07-06_09h31.52.204,Colour_Asymmetry_Pilot,2022.1.3,Win32,59.93407252,62c50e9c1127f2cd403a315f,0,97,97,111,1,fourthree,,,,,,,,,,,,,,,,,,,,,,,,,,,,,,,,,,,,,,,,,,,,,,,,,,,,,,,,,,,,,,,,,,,,,,,,,,,,,,,,,,,,,,,,,,,,,,,,,,,,,,,,,,,,,,,,,,,,,,,,,,,,,,,,,,,,,,,,,,,,,,,,,,,,,,,,,,,,,
,,,,,,5f502659e156d519cef558b7,62c53a55d053baede748cfe7,2022-07-06_09h31.52.204,Colour_Asymmetry_Pilot,2022.1.3,Win32,59.93407252,62c50e9c1127f2cd403a315f,0,98,98,110,1,fourtwo,,,,,,,,,,,,,,,,,,,,,,,,,,,,,,,,,,,,,,,,,,,,,,,,,,,,,,,,,,,,,,,,,,,,,,,,,,,,,,,,,,,,,,,,,,,,,,,,,,,,,,,,,,,,,,,,,,,,,,,,,,,,,,,,,,,,,,,,,,,,,,,,,,,,,,,,,,,,,
,,,,,,5f502659e156d519cef558b7,62c53a55d053baede748cfe7,2022-07-06_09h31.52.204,Colour_Asymmetry_Pilot,2022.1.3,Win32,59.93407252,62c50e9c1127f2cd403a315f,0,99,99,46,1,fourtwo,,,,,,,,,,,,,,,,,,,,,,,,,,,,,,,,,,,,,,,,,,,,,,,,,,,,,,,,,,,,,,,,,,,,,,,,,,,,,,,,,,,,,,,,,,,,,,,,,,,,,,,,,,,,,,,,,,,,,,,,,,,,,,,,,,,,,,,,,,,,,,,,,,,,,,,,,,,,,
,,,,,,5f502659e156d519cef558b7,62c53a55d053baede748cfe7,2022-07-06_09h31.52.204,Colour_Asymmetry_Pilot,2022.1.3,Win32,59.93407252,62c50e9c1127f2cd403a315f,0,100,100,57,1,onethree,,,,,,,,,,,,,,,,,,,,,,,,,,,,,,,,,,,,,,,,,,,,,,,,,,,,,,,,,,,,,,,,,,,,,,,,,,,,,,,,,,,,,,,,,,,,,,,,,,,,,,,,,,,,,,,,,,,,,,,,,,,,,,,,,,,,,,,,,,,,,,,,,,,,,,,,,,,,,
,,,,,,5f502659e156d519cef558b7,62c53a55d053baede748cfe7,2022-07-06_09h31.52.204,Colour_Asymmetry_Pilot,2022.1.3,Win32,59.93407252,62c50e9c1127f2cd403a315f,0,101,101,69,1,threefour,,,,,,,,,,,,,,,,,,,,,,,,,,,,,,,,,,,,,,,,,,,,,,,,,,,,,,,,,,,,,,,,,,,,,,,,,,,,,,,,,,,,,,,,,,,,,,,,,,,,,,,,,,,,,,,,,,,,,,,,,,,,,,,,,,,,,,,,,,,,,,,,,,,,,,,,,,,,,
,,,,,,5f502659e156d519cef558b7,62c53a55d053baede748cfe7,2022-07-06_09h31.52.204,Colour_Asymmetry_Pilot,2022.1.3,Win32,59.93407252,62c50e9c1127f2cd403a315f,0,102,102,48,1,onetwo,,,,,,,,,,,,,,,,,,,,,,,,,,,,,,,,,,,,,,,,,,,,,,,,,,,,,,,,,,,,,,,,,,,,,,,,,,,,,,,,,,,,,,,,,,,,,,,,,,,,,,,,,,,,,,,,,,,,,,,,,,,,,,,,,,,,,,,,,,,,,,,,,,,,,,,,,,,,,
,,,,,,5f502659e156d519cef558b7,62c53a55d053baede748cfe7,2022-07-06_09h31.52.204,Colour_Asymmetry_Pilot,2022.1.3,Win32,59.93407252,62c50e9c1127f2cd403a315f,0,103,103,19,1,twofour,,,,,,,,,,,,,,,,,,,,,,,,,,,,,,,,,,,,,,,,,,,,,,,,,,,,,,,,,,,,,,,,,,,,,,,,,,,,,,,,,,,,,,,,,,,,,,,,,,,,,,,,,,,,,,,,,,,,,,,,,,,,,,,,,,,,,,,,,,,,,,,,,,,,,,,,,,,,,
,,,,,,5f502659e156d519cef558b7,62c53a55d053baede748cfe7,2022-07-06_09h31.52.204,Colour_Asymmetry_Pilot,2022.1.3,Win32,59.93407252,62c50e9c1127f2cd403a315f,0,104,104,141,1,threefour,,,,,,,,,,,,,,,,,,,,,,,,,,,,,,,,,,,,,,,,,,,,,,,,,,,,,,,,,,,,,,,,,,,,,,,,,,,,,,,,,,,,,,,,,,,,,,,,,,,,,,,,,,,,,,,,,,,,,,,,,,,,,,,,,,,,,,,,,,,,,,,,,,,,,,,,,,,,,
,,,,,,5f502659e156d519cef558b7,62c53a55d053baede748cfe7,2022-07-06_09h31.52.204,Colour_Asymmetry_Pilot,2022.1.3,Win32,59.93407252,62c50e9c1127f2cd403a315f,0,105,105,39,1,fourthree,,,,,,,,,,,,,,,,,,,,,,,,,,,,,,,,,,,,,,,,,,,,,,,,,,,,,,,,,,,,,,,,,,,,,,,,,,,,,,,,,,,,,,,,,,,,,,,,,,,,,,,,,,,,,,,,,,,,,,,,,,,,,,,,,,,,,,,,,,,,,,,,,,,,,,,,,,,,,
,,,,,,5f502659e156d519cef558b7,62c53a55d053baede748cfe7,2022-07-06_09h31.52.204,Colour_Asymmetry_Pilot,2022.1.3,Win32,59.93407252,62c50e9c1127f2cd403a315f,0,106,106,95,1,fourthree,,,,,,,,,,,,,,,,,,,,,,,,,,,,,,,,,,,,,,,,,,,,,,,,,,,,,,,,,,,,,,,,,,,,,,,,,,,,,,,,,,,,,,,,,,,,,,,,,,,,,,,,,,,,,,,,,,,,,,,,,,,,,,,,,,,,,,,,,,,,,,,,,,,,,,,,,,,,,
,,,,,,5f502659e156d519cef558b7,62c53a55d053baede748cfe7,2022-07-06_09h31.52.204,Colour_Asymmetry_Pilot,2022.1.3,Win32,59.93407252,62c50e9c1127f2cd403a315f,0,107,107,91,1,twofour,,,,,,,,,,,,,,,,,,,,,,,,,,,,,,,,,,,,,,,,,,,,,,,,,,,,,,,,,,,,,,,,,,,,,,,,,,,,,,,,,,,,,,,,,,,,,,,,,,,,,,,,,,,,,,,,,,,,,,,,,,,,,,,,,,,,,,,,,,,,,,,,,,,,,,,,,,,,,
,,,,,,5f502659e156d519cef558b7,62c53a55d053baede748cfe7,2022-07-06_09h31.52.204,Colour_Asymmetry_Pilot,2022.1.3,Win32,59.93407252,62c50e9c1127f2cd403a315f,0,108,108,156,1,threeone,,,,,,,,,,,,,,,,,,,,,,,,,,,,,,,,,,,,,,,,,,,,,,,,,,,,,,,,,,,,,,,,,,,,,,,,,,,,,,,,,,,,,,,,,,,,,,,,,,,,,,,,,,,,,,,,,,,,,,,,,,,,,,,,,,,,,,,,,,,,,,,,,,,,,,,,,,,,,
,,,,,,5f502659e156d519cef558b7,62c53a55d053baede748cfe7,2022-07-06_09h31.52.204,Colour_Asymmetry_Pilot,2022.1.3,Win32,59.93407252,62c50e9c1127f2cd403a315f,0,109,109,63,1,fourthree,,,,,,,,,,,,,,,,,,,,,,,,,,,,,,,,,,,,,,,,,,,,,,,,,,,,,,,,,,,,,,,,,,,,,,,,,,,,,,,,,,,,,,,,,,,,,,,,,,,,,,,,,,,,,,,,,,,,,,,,,,,,,,,,,,,,,,,,,,,,,,,,,,,,,,,,,,,,,
,,,,,,5f502659e156d519cef558b7,62c53a55d053baede748cfe7,2022-07-06_09h31.52.204,Colour_Asymmetry_Pilot,2022.1.3,Win32,59.93407252,62c50e9c1127f2cd403a315f,0,110,110,93,1,threefour,,,,,,,,,,,,,,,,,,,,,,,,,,,,,,,,,,,,,,,,,,,,,,,,,,,,,,,,,,,,,,,,,,,,,,,,,,,,,,,,,,,,,,,,,,,,,,,,,,,,,,,,,,,,,,,,,,,,,,,,,,,,,,,,,,,,,,,,,,,,,,,,,,,,,,,,,,,,,
,,,,,,5f502659e156d519cef558b7,62c53a55d053baede748cfe7,2022-07-06_09h31.52.204,Colour_Asymmetry_Pilot,2022.1.3,Win32,59.93407252,62c50e9c1127f2cd403a315f,0,111,111,120,1,onetwo,,,,,,,,,,,,,,,,,,,,,,,,,,,,,,,,,,,,,,,,,,,,,,,,,,,,,,,,,,,,,,,,,,,,,,,,,,,,,,,,,,,,,,,,,,,,,,,,,,,,,,,,,,,,,,,,,,,,,,,,,,,,,,,,,,,,,,,,,,,,,,,,,,,,,,,,,,,,,
,,,,,,5f502659e156d519cef558b7,62c53a55d053baede748cfe7,2022-07-06_09h31.52.204,Colour_Asymmetry_Pilot,2022.1.3,Win32,59.93407252,62c50e9c1127f2cd403a315f,0,112,112,126,1,fourtwo,,,,,,,,,,,,,,,,,,,,,,,,,,,,,,,,,,,,,,,,,,,,,,,,,,,,,,,,,,,,,,,,,,,,,,,,,,,,,,,,,,,,,,,,,,,,,,,,,,,,,,,,,,,,,,,,,,,,,,,,,,,,,,,,,,,,,,,,,,,,,,,,,,,,,,,,,,,,,
,,,,,,5f502659e156d519cef558b7,62c53a55d053baede748cfe7,2022-07-06_09h31.52.204,Colour_Asymmetry_Pilot,2022.1.3,Win32,59.93407252,62c50e9c1127f2cd403a315f,0,113,113,102,1,fourtwo,,,,,,,,,,,,,,,,,,,,,,,,,,,,,,,,,,,,,,,,,,,,,,,,,,,,,,,,,,,,,,,,,,,,,,,,,,,,,,,,,,,,,,,,,,,,,,,,,,,,,,,,,,,,,,,,,,,,,,,,,,,,,,,,,,,,,,,,,,,,,,,,,,,,,,,,,,,,,
,,,,,,5f502659e156d519cef558b7,62c53a55d053baede748cfe7,2022-07-06_09h31.52.204,Colour_Asymmetry_Pilot,2022.1.3,Win32,59.93407252,62c50e9c1127f2cd403a315f,0,114,114,6,1,fourtwo,,,,,,,,,,,,,,,,,,,,,,,,,,,,,,,,,,,,,,,,,,,,,,,,,,,,,,,,,,,,,,,,,,,,,,,,,,,,,,,,,,,,,,,,,,,,,,,,,,,,,,,,,,,,,,,,,,,,,,,,,,,,,,,,,,,,,,,,,,,,,,,,,,,,,,,,,,,,,
,,,,,,5f502659e156d519cef558b7,62c53a55d053baede748cfe7,2022-07-06_09h31.52.204,Colour_Asymmetry_Pilot,2022.1.3,Win32,59.93407252,62c50e9c1127f2cd403a315f,0,115,115,146,1,twoone,,,,,,,,,,,,,,,,,,,,,,,,,,,,,,,,,,,,,,,,,,,,,,,,,,,,,,,,,,,,,,,,,,,,,,,,,,,,,,,,,,,,,,,,,,,,,,,,,,,,,,,,,,,,,,,,,,,,,,,,,,,,,,,,,,,,,,,,,,,,,,,,,,,,,,,,,,,,,
,,,,,,5f502659e156d519cef558b7,62c53a55d053baede748cfe7,2022-07-06_09h31.52.204,Colour_Asymmetry_Pilot,2022.1.3,Win32,59.93407252,62c50e9c1127f2cd403a315f,0,116,116,140,1,threeone,,,,,,,,,,,,,,,,,,,,,,,,,,,,,,,,,,,,,,,,,,,,,,,,,,,,,,,,,,,,,,,,,,,,,,,,,,,,,,,,,,,,,,,,,,,,,,,,,,,,,,,,,,,,,,,,,,,,,,,,,,,,,,,,,,,,,,,,,,,,,,,,,,,,,,,,,,,,,
,,,,,,5f502659e156d519cef558b7,62c53a55d053baede748cfe7,2022-07-06_09h31.52.204,Colour_Asymmetry_Pilot,2022.1.3,Win32,59.93407252,62c50e9c1127f2cd403a315f,0,117,117,135,1,fourthree,,,,,,,,,,,,,,,,,,,,,,,,,,,,,,,,,,,,,,,,,,,,,,,,,,,,,,,,,,,,,,,,,,,,,,,,,,,,,,,,,,,,,,,,,,,,,,,,,,,,,,,,,,,,,,,,,,,,,,,,,,,,,,,,,,,,,,,,,,,,,,,,,,,,,,,,,,,,,
,,,,,,5f502659e156d519cef558b7,62c53a55d053baede748cfe7,2022-07-06_09h31.52.204,Colour_Asymmetry_Pilot,2022.1.3,Win32,59.93407252,62c50e9c1127f2cd403a315f,0,118,118,71,1,fourthree,,,,,,,,,,,,,,,,,,,,,,,,,,,,,,,,,,,,,,,,,,,,,,,,,,,,,,,,,,,,,,,,,,,,,,,,,,,,,,,,,,,,,,,,,,,,,,,,,,,,,,,,,,,,,,,,,,,,,,,,,,,,,,,,,,,,,,,,,,,,,,,,,,,,,,,,,,,,,
,,,,,,5f502659e156d519cef558b7,62c53a55d053baede748cfe7,2022-07-06_09h31.52.204,Colour_Asymmetry_Pilot,2022.1.3,Win32,59.93407252,62c50e9c1127f2cd403a315f,0,119,119,94,1,fourtwo,,,,,,,,,,,,,,,,,,,,,,,,,,,,,,,,,,,,,,,,,,,,,,,,,,,,,,,,,,,,,,,,,,,,,,,,,,,,,,,,,,,,,,,,,,,,,,,,,,,,,,,,,,,,,,,,,,,,,,,,,,,,,,,,,,,,,,,,,,,,,,,,,,,,,,,,,,,,,
,,,,,,5f502659e156d519cef558b7,62c53a55d053baede748cfe7,2022-07-06_09h31.52.204,Colour_Asymmetry_Pilot,2022.1.3,Win32,59.93407252,62c50e9c1127f2cd403a315f,0,120,120,82,1,twoone,,,,,,,,,,,,,,,,,,,,,,,,,,,,,,,,,,,,,,,,,,,,,,,,,,,,,,,,,,,,,,,,,,,,,,,,,,,,,,,,,,,,,,,,,,,,,,,,,,,,,,,,,,,,,,,,,,,,,,,,,,,,,,,,,,,,,,,,,,,,,,,,,,,,,,,,,,,,,
,,,,,,5f502659e156d519cef558b7,62c53a55d053baede748cfe7,2022-07-06_09h31.52.204,Colour_Asymmetry_Pilot,2022.1.3,Win32,59.93407252,62c50e9c1127f2cd403a315f,0,121,121,104,1,onetwo,,,,,,,,,,,,,,,,,,,,,,,,,,,,,,,,,,,,,,,,,,,,,,,,,,,,,,,,,,,,,,,,,,,,,,,,,,,,,,,,,,,,,,,,,,,,,,,,,,,,,,,,,,,,,,,,,,,,,,,,,,,,,,,,,,,,,,,,,,,,,,,,,,,,,,,,,,,,,
,,,,,,5f502659e156d519cef558b7,62c53a55d053baede748cfe7,2022-07-06_09h31.52.204,Colour_Asymmetry_Pilot,2022.1.3,Win32,59.93407252,62c50e9c1127f2cd403a315f,0,122,122,34,1,twoone,,,,,,,,,,,,,,,,,,,,,,,,,,,,,,,,,,,,,,,,,,,,,,,,,,,,,,,,,,,,,,,,,,,,,,,,,,,,,,,,,,,,,,,,,,,,,,,,,,,,,,,,,,,,,,,,,,,,,,,,,,,,,,,,,,,,,,,,,,,,,,,,,,,,,,,,,,,,,
,,,,,,5f502659e156d519cef558b7,62c53a55d053baede748cfe7,2022-07-06_09h31.52.204,Colour_Asymmetry_Pilot,2022.1.3,Win32,59.93407252,62c50e9c1127f2cd403a315f,0,123,123,161,1,onethree,,,,,,,,,,,,,,,,,,,,,,,,,,,,,,,,,,,,,,,,,,,,,,,,,,,,,,,,,,,,,,,,,,,,,,,,,,,,,,,,,,,,,,,,,,,,,,,,,,,,,,,,,,,,,,,,,,,,,,,,,,,,,,,,,,,,,,,,,,,,,,,,,,,,,,,,,,,,,
,,,,,,5f502659e156d519cef558b7,62c53a55d053baede748cfe7,2022-07-06_09h31.52.204,Colour_Asymmetry_Pilot,2022.1.3,Win32,59.93407252,62c50e9c1127f2cd403a315f,0,124,124,84,1,threeone,,,,,,,,,,,,,,,,,,,,,,,,,,,,,,,,,,,,,,,,,,,,,,,,,,,,,,,,,,,,,,,,,,,,,,,,,,,,,,,,,,,,,,,,,,,,,,,,,,,,,,,,,,,,,,,,,,,,,,,,,,,,,,,,,,,,,,,,,,,,,,,,,,,,,,,,,,,,,
,,,,,,5f502659e156d519cef558b7,62c53a55d053baede748cfe7,2022-07-06_09h31.52.204,Colour_Asymmetry_Pilot,2022.1.3,Win32,59.93407252,62c50e9c1127f2cd403a315f,0,125,125,144,1,onetwo,,,,,,,,,,,,,,,,,,,,,,,,,,,,,,,,,,,,,,,,,,,,,,,,,,,,,,,,,,,,,,,,,,,,,,,,,,,,,,,,,,,,,,,,,,,,,,,,,,,,,,,,,,,,,,,,,,,,,,,,,,,,,,,,,,,,,,,,,,,,,,,,,,,,,,,,,,,,,
,,,,,,5f502659e156d519cef558b7,62c53a55d053baede748cfe7,2022-07-06_09h31.52.204,Colour_Asymmetry_Pilot,2022.1.3,Win32,59.93407252,62c50e9c1127f2cd403a315f,0,126,126,72,1,onetwo,,,,,,,,,,,,,,,,,,,,,,,,,,,,,,,,,,,,,,,,,,,,,,,,,,,,,,,,,,,,,,,,,,,,,,,,,,,,,,,,,,,,,,,,,,,,,,,,,,,,,,,,,,,,,,,,,,,,,,,,,,,,,,,,,,,,,,,,,,,,,,,,,,,,,,,,,,,,,
,,,,,,5f502659e156d519cef558b7,62c53a55d053baede748cfe7,2022-07-06_09h31.52.204,Colour_Asymmetry_Pilot,2022.1.3,Win32,59.93407252,62c50e9c1127f2cd403a315f,0,127,127,20,1,threeone,,,,,,,,,,,,,,,,,,,,,,,,,,,,,,,,,,,,,,,,,,,,,,,,,,,,,,,,,,,,,,,,,,,,,,,,,,,,,,,,,,,,,,,,,,,,,,,,,,,,,,,,,,,,,,,,,,,,,,,,,,,,,,,,,,,,,,,,,,,,,,,,,,,,,,,,,,,,,
,,,,,,5f502659e156d519cef558b7,62c53a55d053baede748cfe7,2022-07-06_09h31.52.204,Colour_Asymmetry_Pilot,2022.1.3,Win32,59.93407252,62c50e9c1127f2cd403a315f,0,128,128,25,1,onethree,,,,,,,,,,,,,,,,,,,,,,,,,,,,,,,,,,,,,,,,,,,,,,,,,,,,,,,,,,,,,,,,,,,,,,,,,,,,,,,,,,,,,,,,,,,,,,,,,,,,,,,,,,,,,,,,,,,,,,,,,,,,,,,,,,,,,,,,,,,,,,,,,,,,,,,,,,,,,
,,,,,,5f502659e156d519cef558b7,62c53a55d053baede748cfe7,2022-07-06_09h31.52.204,Colour_Asymmetry_Pilot,2022.1.3,Win32,59.93407252,62c50e9c1127f2cd403a315f,0,129,129,60,1,threeone,,,,,,,,,,,,,,,,,,,,,,,,,,,,,,,,,,,,,,,,,,,,,,,,,,,,,,,,,,,,,,,,,,,,,,,,,,,,,,,,,,,,,,,,,,,,,,,,,,,,,,,,,,,,,,,,,,,,,,,,,,,,,,,,,,,,,,,,,,,,,,,,,,,,,,,,,,,,,
,,,,,,5f502659e156d519cef558b7,62c53a55d053baede748cfe7,2022-07-06_09h31.52.204,Colour_Asymmetry_Pilot,2022.1.3,Win32,59.93407252,62c50e9c1127f2cd403a315f,0,130,130,17,1,onethree,,,,,,,,,,,,,,,,,,,,,,,,,,,,,,,,,,,,,,,,,,,,,,,,,,,,,,,,,,,,,,,,,,,,,,,,,,,,,,,,,,,,,,,,,,,,,,,,,,,,,,,,,,,,,,,,,,,,,,,,,,,,,,,,,,,,,,,,,,,,,,,,,,,,,,,,,,,,,
,,,,,,5f502659e156d519cef558b7,62c53a55d053baede748cfe7,2022-07-06_09h31.52.204,Colour_Asymmetry_Pilot,2022.1.3,Win32,59.93407252,62c50e9c1127f2cd403a315f,0,131,131,65,1,onethree,,,,,,,,,,,,,,,,,,,,,,,,,,,,,,,,,,,,,,,,,,,,,,,,,,,,,,,,,,,,,,,,,,,,,,,,,,,,,,,,,,,,,,,,,,,,,,,,,,,,,,,,,,,,,,,,,,,,,,,,,,,,,,,,,,,,,,,,,,,,,,,,,,,,,,,,,,,,,
,,,,,,5f502659e156d519cef558b7,62c53a55d053baede748cfe7,2022-07-06_09h31.52.204,Colour_Asymmetry_Pilot,2022.1.3,Win32,59.93407252,62c50e9c1127f2cd403a315f,0,132,132,96,1,onetwo,,,,,,,,,,,,,,,,,,,,,,,,,,,,,,,,,,,,,,,,,,,,,,,,,,,,,,,,,,,,,,,,,,,,,,,,,,,,,,,,,,,,,,,,,,,,,,,,,,,,,,,,,,,,,,,,,,,,,,,,,,,,,,,,,,,,,,,,,,,,,,,,,,,,,,,,,,,,,
,,,,,,5f502659e156d519cef558b7,62c53a55d053baede748cfe7,2022-07-06_09h31.52.204,Colour_Asymmetry_Pilot,2022.1.3,Win32,59.93407252,62c50e9c1127f2cd403a315f,0,133,133,16,1,onetwo,,,,,,,,,,,,,,,,,,,,,,,,,,,,,,,,,,,,,,,,,,,,,,,,,,,,,,,,,,,,,,,,,,,,,,,,,,,,,,,,,,,,,,,,,,,,,,,,,,,,,,,,,,,,,,,,,,,,,,,,,,,,,,,,,,,,,,,,,,,,,,,,,,,,,,,,,,,,,
,,,,,,5f502659e156d519cef558b7,62c53a55d053baede748cfe7,2022-07-06_09h31.52.204,Colour_Asymmetry_Pilot,2022.1.3,Win32,59.93407252,62c50e9c1127f2cd403a315f,0,134,134,119,1,fourthree,,,,,,,,,,,,,,,,,,,,,,,,,,,,,,,,,,,,,,,,,,,,,,,,,,,,,,,,,,,,,,,,,,,,,,,,,,,,,,,,,,,,,,,,,,,,,,,,,,,,,,,,,,,,,,,,,,,,,,,,,,,,,,,,,,,,,,,,,,,,,,,,,,,,,,,,,,,,,
,,,,,,5f502659e156d519cef558b7,62c53a55d053baede748cfe7,2022-07-06_09h31.52.204,Colour_Asymmetry_Pilot,2022.1.3,Win32,59.93407252,62c50e9c1127f2cd403a315f,0,135,135,142,1,fourtwo,,,,,,,,,,,,,,,,,,,,,,,,,,,,,,,,,,,,,,,,,,,,,,,,,,,,,,,,,,,,,,,,,,,,,,,,,,,,,,,,,,,,,,,,,,,,,,,,,,,,,,,,,,,,,,,,,,,,,,,,,,,,,,,,,,,,,,,,,,,,,,,,,,,,,,,,,,,,,
,,,,,,5f502659e156d519cef558b7,62c53a55d053baede748cfe7,2022-07-06_09h31.52.204,Colour_Asymmetry_Pilot,2022.1.3,Win32,59.93407252,62c50e9c1127f2cd403a315f,0,136,136,149,1,threefour,,,,,,,,,,,,,,,,,,,,,,,,,,,,,,,,,,,,,,,,,,,,,,,,,,,,,,,,,,,,,,,,,,,,,,,,,,,,,,,,,,,,,,,,,,,,,,,,,,,,,,,,,,,,,,,,,,,,,,,,,,,,,,,,,,,,,,,,,,,,,,,,,,,,,,,,,,,,,
,,,,,,5f502659e156d519cef558b7,62c53a55d053baede748cfe7,2022-07-06_09h31.52.204,Colour_Asymmetry_Pilot,2022.1.3,Win32,59.93407252,62c50e9c1127f2cd403a315f,0,137,137,47,1,fourthree,,,,,,,,,,,,,,,,,,,,,,,,,,,,,,,,,,,,,,,,,,,,,,,,,,,,,,,,,,,,,,,,,,,,,,,,,,,,,,,,,,,,,,,,,,,,,,,,,,,,,,,,,,,,,,,,,,,,,,,,,,,,,,,,,,,,,,,,,,,,,,,,,,,,,,,,,,,,,
,,,,,,5f502659e156d519cef558b7,62c53a55d053baede748cfe7,2022-07-06_09h31.52.204,Colour_Asymmetry_Pilot,2022.1.3,Win32,59.93407252,62c50e9c1127f2cd403a315f,0,138,138,4,1,threeone,,,,,,,,,,,,,,,,,,,,,,,,,,,,,,,,,,,,,,,,,,,,,,,,,,,,,,,,,,,,,,,,,,,,,,,,,,,,,,,,,,,,,,,,,,,,,,,,,,,,,,,,,,,,,,,,,,,,,,,,,,,,,,,,,,,,,,,,,,,,,,,,,,,,,,,,,,,,,
,,,,,,5f502659e156d519cef558b7,62c53a55d053baede748cfe7,2022-07-06_09h31.52.204,Colour_Asymmetry_Pilot,2022.1.3,Win32,59.93407252,62c50e9c1127f2cd403a315f,0,139,139,134,1,fourtwo,,,,,,,,,,,,,,,,,,,,,,,,,,,,,,,,,,,,,,,,,,,,,,,,,,,,,,,,,,,,,,,,,,,,,,,,,,,,,,,,,,,,,,,,,,,,,,,,,,,,,,,,,,,,,,,,,,,,,,,,,,,,,,,,,,,,,,,,,,,,,,,,,,,,,,,,,,,,,
,,,,,,5f502659e156d519cef558b7,62c53a55d053baede748cfe7,2022-07-06_09h31.52.204,Colour_Asymmetry_Pilot,2022.1.3,Win32,59.93407252,62c50e9c1127f2cd403a315f,0,140,140,42,1,twoone,,,,,,,,,,,,,,,,,,,,,,,,,,,,,,,,,,,,,,,,,,,,,,,,,,,,,,,,,,,,,,,,,,,,,,,,,,,,,,,,,,,,,,,,,,,,,,,,,,,,,,,,,,,,,,,,,,,,,,,,,,,,,,,,,,,,,,,,,,,,,,,,,,,,,,,,,,,,,
,,,,,,5f502659e156d519cef558b7,62c53a55d053baede748cfe7,2022-07-06_09h31.52.204,Colour_Asymmetry_Pilot,2022.1.3,Win32,59.93407252,62c50e9c1127f2cd403a315f,0,141,141,13,1,threefour,,,,,,,,,,,,,,,,,,,,,,,,,,,,,,,,,,,,,,,,,,,,,,,,,,,,,,,,,,,,,,,,,,,,,,,,,,,,,,,,,,,,,,,,,,,,,,,,,,,,,,,,,,,,,,,,,,,,,,,,,,,,,,,,,,,,,,,,,,,,,,,,,,,,,,,,,,,,,
,,,,,,5f502659e156d519cef558b7,62c53a55d053baede748cfe7,2022-07-06_09h31.52.204,Colour_Asymmetry_Pilot,2022.1.3,Win32,59.93407252,62c50e9c1127f2cd403a315f,0,142,142,59,1,twofour,,,,,,,,,,,,,,,,,,,,,,,,,,,,,,,,,,,,,,,,,,,,,,,,,,,,,,,,,,,,,,,,,,,,,,,,,,,,,,,,,,,,,,,,,,,,,,,,,,,,,,,,,,,,,,,,,,,,,,,,,,,,,,,,,,,,,,,,,,,,,,,,,,,,,,,,,,,,,
,,,,,,5f502659e156d519cef558b7,62c53a55d053baede748cfe7,2022-07-06_09h31.52.204,Colour_Asymmetry_Pilot,2022.1.3,Win32,59.93407252,62c50e9c1127f2cd403a315f,0,143,143,80,1,onetwo,,,,,,,,,,,,,,,,,,,,,,,,,,,,,,,,,,,,,,,,,,,,,,,,,,,,,,,,,,,,,,,,,,,,,,,,,,,,,,,,,,,,,,,,,,,,,,,,,,,,,,,,,,,,,,,,,,,,,,,,,,,,,,,,,,,,,,,,,,,,,,,,,,,,,,,,,,,,,
,,,,,,5f502659e156d519cef558b7,62c53a55d053baede748cfe7,2022-07-06_09h31.52.204,Colour_Asymmetry_Pilot,2022.1.3,Win32,59.93407252,62c50e9c1127f2cd403a315f,0,144,144,145,1,onethree,,,,,,,,,,,,,,,,,,,,,,,,,,,,,,,,,,,,,,,,,,,,,,,,,,,,,,,,,,,,,,,,,,,,,,,,,,,,,,,,,,,,,,,,,,,,,,,,,,,,,,,,,,,,,,,,,,,,,,,,,,,,,,,,,,,,,,,,,,,,,,,,,,,,,,,,,,,,,
,,,,,,5f502659e156d519cef558b7,62c53a55d053baede748cfe7,2022-07-06_09h31.52.204,Colour_Asymmetry_Pilot,2022.1.3,Win32,59.93407252,62c50e9c1127f2cd403a315f,0,145,145,124,1,threeone,,,,,,,,,,,,,,,,,,,,,,,,,,,,,,,,,,,,,,,,,,,,,,,,,,,,,,,,,,,,,,,,,,,,,,,,,,,,,,,,,,,,,,,,,,,,,,,,,,,,,,,,,,,,,,,,,,,,,,,,,,,,,,,,,,,,,,,,,,,,,,,,,,,,,,,,,,,,,
,,,,,,5f502659e156d519cef558b7,62c53a55d053baede748cfe7,2022-07-06_09h31.52.204,Colour_Asymmetry_Pilot,2022.1.3,Win32,59.93407252,62c50e9c1127f2cd403a315f,0,146,146,70,1,fourtwo,,,,,,,,,,,,,,,,,,,,,,,,,,,,,,,,,,,,,,,,,,,,,,,,,,,,,,,,,,,,,,,,,,,,,,,,,,,,,,,,,,,,,,,,,,,,,,,,,,,,,,,,,,,,,,,,,,,,,,,,,,,,,,,,,,,,,,,,,,,,,,,,,,,,,,,,,,,,,
,,,,,,5f502659e156d519cef558b7,62c53a55d053baede748cfe7,2022-07-06_09h31.52.204,Colour_Asymmetry_Pilot,2022.1.3,Win32,59.93407252,62c50e9c1127f2cd403a315f,0,147,147,92,1,threeone,,,,,,,,,,,,,,,,,,,,,,,,,,,,,,,,,,,,,,,,,,,,,,,,,,,,,,,,,,,,,,,,,,,,,,,,,,,,,,,,,,,,,,,,,,,,,,,,,,,,,,,,,,,,,,,,,,,,,,,,,,,,,,,,,,,,,,,,,,,,,,,,,,,,,,,,,,,,,
,,,,,,5f502659e156d519cef558b7,62c53a55d053baede748cfe7,2022-07-06_09h31.52.204,Colour_Asymmetry_Pilot,2022.1.3,Win32,59.93407252,62c50e9c1127f2cd403a315f,0,148,148,58,1,twoone,,,,,,,,,,,,,,,,,,,,,,,,,,,,,,,,,,,,,,,,,,,,,,,,,,,,,,,,,,,,,,,,,,,,,,,,,,,,,,,,,,,,,,,,,,,,,,,,,,,,,,,,,,,,,,,,,,,,,,,,,,,,,,,,,,,,,,,,,,,,,,,,,,,,,,,,,,,,,
,,,,,,5f502659e156d519cef558b7,62c53a55d053baede748cfe7,2022-07-06_09h31.52.204,Colour_Asymmetry_Pilot,2022.1.3,Win32,59.93407252,62c50e9c1127f2cd403a315f,0,149,149,51,1,twofour,,,,,,,,,,,,,,,,,,,,,,,,,,,,,,,,,,,,,,,,,,,,,,,,,,,,,,,,,,,,,,,,,,,,,,,,,,,,,,,,,,,,,,,,,,,,,,,,,,,,,,,,,,,,,,,,,,,,,,,,,,,,,,,,,,,,,,,,,,,,,,,,,,,,,,,,,,,,,
,,,,,,5f502659e156d519cef558b7,62c53a55d053baede748cfe7,2022-07-06_09h31.52.204,Colour_Asymmetry_Pilot,2022.1.3,Win32,59.93407252,62c50e9c1127f2cd403a315f,0,150,150,36,1,threeone,,,,,,,,,,,,,,,,,,,,,,,,,,,,,,,,,,,,,,,,,,,,,,,,,,,,,,,,,,,,,,,,,,,,,,,,,,,,,,,,,,,,,,,,,,,,,,,,,,,,,,,,,,,,,,,,,,,,,,,,,,,,,,,,,,,,,,,,,,,,,,,,,,,,,,,,,,,,,
,,,,,,5f502659e156d519cef558b7,62c53a55d053baede748cfe7,2022-07-06_09h31.52.204,Colour_Asymmetry_Pilot,2022.1.3,Win32,59.93407252,62c50e9c1127f2cd403a315f,0,151,151,139,1,twofour,,,,,,,,,,,,,,,,,,,,,,,,,,,,,,,,,,,,,,,,,,,,,,,,,,,,,,,,,,,,,,,,,,,,,,,,,,,,,,,,,,,,,,,,,,,,,,,,,,,,,,,,,,,,,,,,,,,,,,,,,,,,,,,,,,,,,,,,,,,,,,,,,,,,,,,,,,,,,
,,,,,,5f502659e156d519cef558b7,62c53a55d053baede748cfe7,2022-07-06_09h31.52.204,Colour_Asymmetry_Pilot,2022.1.3,Win32,59.93407252,62c50e9c1127f2cd403a315f,0,152,152,27,1,twofour,,,,,,,,,,,,,,,,,,,,,,,,,,,,,,,,,,,,,,,,,,,,,,,,,,,,,,,,,,,,,,,,,,,,,,,,,,,,,,,,,,,,,,,,,,,,,,,,,,,,,,,,,,,,,,,,,,,,,,,,,,,,,,,,,,,,,,,,,,,,,,,,,,,,,,,,,,,,,
,,,,,,5f502659e156d519cef558b7,62c53a55d053baede748cfe7,2022-07-06_09h31.52.204,Colour_Asymmetry_Pilot,2022.1.3,Win32,59.93407252,62c50e9c1127f2cd403a315f,0,153,153,78,1,fourtwo,,,,,,,,,,,,,,,,,,,,,,,,,,,,,,,,,,,,,,,,,,,,,,,,,,,,,,,,,,,,,,,,,,,,,,,,,,,,,,,,,,,,,,,,,,,,,,,,,,,,,,,,,,,,,,,,,,,,,,,,,,,,,,,,,,,,,,,,,,,,,,,,,,,,,,,,,,,,,
,,,,,,5f502659e156d519cef558b7,62c53a55d053baede748cfe7,2022-07-06_09h31.52.204,Colour_Asymmetry_Pilot,2022.1.3,Win32,59.93407252,62c50e9c1127f2cd403a315f,0,154,154,68,1,threeone,,,,,,,,,,,,,,,,,,,,,,,,,,,,,,,,,,,,,,,,,,,,,,,,,,,,,,,,,,,,,,,,,,,,,,,,,,,,,,,,,,,,,,,,,,,,,,,,,,,,,,,,,,,,,,,,,,,,,,,,,,,,,,,,,,,,,,,,,,,,,,,,,,,,,,,,,,,,,
,,,,,,5f502659e156d519cef558b7,62c53a55d053baede748cfe7,2022-07-06_09h31.52.204,Colour_Asymmetry_Pilot,2022.1.3,Win32,59.93407252,62c50e9c1127f2cd403a315f,0,155,155,90,1,twoone,,,,,,,,,,,,,,,,,,,,,,,,,,,,,,,,,,,,,,,,,,,,,,,,,,,,,,,,,,,,,,,,,,,,,,,,,,,,,,,,,,,,,,,,,,,,,,,,,,,,,,,,,,,,,,,,,,,,,,,,,,,,,,,,,,,,,,,,,,,,,,,,,,,,,,,,,,,,,
,,,,,,5f502659e156d519cef558b7,62c53a55d053baede748cfe7,2022-07-06_09h31.52.204,Colour_Asymmetry_Pilot,2022.1.3,Win32,59.93407252,62c50e9c1127f2cd403a315f,0,156,156,115,1,twofour,,,,,,,,,,,,,,,,,,,,,,,,,,,,,,,,,,,,,,,,,,,,,,,,,,,,,,,,,,,,,,,,,,,,,,,,,,,,,,,,,,,,,,,,,,,,,,,,,,,,,,,,,,,,,,,,,,,,,,,,,,,,,,,,,,,,,,,,,,,,,,,,,,,,,,,,,,,,,
,,,,,,5f502659e156d519cef558b7,62c53a55d053baede748cfe7,2022-07-06_09h31.52.204,Colour_Asymmetry_Pilot,2022.1.3,Win32,59.93407252,62c50e9c1127f2cd403a315f,0,157,157,129,1,onethree,,,,,,,,,,,,,,,,,,,,,,,,,,,,,,,,,,,,,,,,,,,,,,,,,,,,,,,,,,,,,,,,,,,,,,,,,,,,,,,,,,,,,,,,,,,,,,,,,,,,,,,,,,,,,,,,,,,,,,,,,,,,,,,,,,,,,,,,,,,,,,,,,,,,,,,,,,,,,
,,,,,,5f502659e156d519cef558b7,62c53a55d053baede748cfe7,2022-07-06_09h31.52.204,Colour_Asymmetry_Pilot,2022.1.3,Win32,59.93407252,62c50e9c1127f2cd403a315f,0,158,158,97,1,onethree,,,,,,,,,,,,,,,,,,,,,,,,,,,,,,,,,,,,,,,,,,,,,,,,,,,,,,,,,,,,,,,,,,,,,,,,,,,,,,,,,,,,,,,,,,,,,,,,,,,,,,,,,,,,,,,,,,,,,,,,,,,,,,,,,,,,,,,,,,,,,,,,,,,,,,,,,,,,,
,,,,,,5f502659e156d519cef558b7,62c53a55d053baede748cfe7,2022-07-06_09h31.52.204,Colour_Asymmetry_Pilot,2022.1.3,Win32,59.93407252,62c50e9c1127f2cd403a315f,0,159,159,85,1,threefour,,,,,,,,,,,,,,,,,,,,,,,,,,,,,,,,,,,,,,,,,,,,,,,,,,,,,,,,,,,,,,,,,,,,,,,,,,,,,,,,,,,,,,,,,,,,,,,,,,,,,,,,,,,,,,,,,,,,,,,,,,,,,,,,,,,,,,,,,,,,,,,,,,,,,,,,,,,,,
,,,,,,5f502659e156d519cef558b7,62c53a55d053baede748cfe7,2022-07-06_09h31.52.204,Colour_Asymmetry_Pilot,2022.1.3,Win32,59.93407252,62c50e9c1127f2cd403a315f,0,160,160,113,1,onethree,,,,,,,,,,,,,,,,,,,,,,,,,,,,,,,,,,,,,,,,,,,,,,,,,,,,,,,,,,,,,,,,,,,,,,,,,,,,,,,,,,,,,,,,,,,,,,,,,,,,,,,,,,,,,,,,,,,,,,,,,,,,,,,,,,,,,,,,,,,,,,,,,,,,,,,,,,,,,
,,,,,,5f502659e156d519cef558b7,62c53a55d053baede748cfe7,2022-07-06_09h31.52.204,Colour_Asymmetry_Pilot,2022.1.3,Win32,59.93407252,62c50e9c1127f2cd403a315f,0,161,161,22,1,fourtwo,,,,,,,,,,,,,,,,,,,,,,,,,,,,,,,,,,,,,,,,,,,,,,,,,,,,,,,,,,,,,,,,,,,,,,,,,,,,,,,,,,,,,,,,,,,,,,,,,,,,,,,,,,,,,,,,,,,,,,,,,,,,,,,,,,,,,,,,,,,,,,,,,,,,,,,,,,,,,
,,,,,,5f502659e156d519cef558b7,62c53a55d053baede748cfe7,2022-07-06_09h31.52.204,Colour_Asymmetry_Pilot,2022.1.3,Win32,59.93407252,62c50e9c1127f2cd403a315f,,,,,,,space,4.4477,space,2.6262,space,28.4474,space,2.976,space,1.1258,space,4.0046,"[0.11359999999999992,0.6312,0.5213999999999999]",threefour,"[-0.09019999999999995,0.44300000000000006,0.5371999999999999]",4,6.5028,60,127,1,0,0,response1disk_5,3,-1,1,0,0,rectangle_8,82,-116,1,0,0,response3disk_7,4,1,-7,-4,1,0,0,rectangle_4,0,0,0,0,1,,,,,,,,,,,,,,,,,,,,,,,,,,,,,,,,,,,,,,,,,,,,,,,,,,,,,,,,,,,,,,,,,,,,,,,,,,,,,,,,,,,,,,,,,,,,,,,,,,,,,,,,,,,,,
,,,,,,5f502659e156d519cef558b7,62c53a55d053baede748cfe7,2022-07-06_09h31.52.204,Colour_Asymmetry_Pilot,2022.1.3,Win32,59.93407252,62c50e9c1127f2cd403a315f,,,,,,,,,,,,,,,,,,,"[0.9686000000000001,0.3802000000000001,0.19999999999999996]",twofour,"[0.9372,0.20779999999999998,0.2704]",1,4.4276,66,-108,1,0,0,response3disk_5,-4,-1,1,0,0,rectangle_8,-4,-1,1,0,0,,,1,-4,-1,1,0,0,,1,0,1,0,1,,,,,,,,,,,,,,,,,,,,,,,,,,,,,,,,,,,,,,,,,,,,,,,,,,,,,,,,,,,,,,,,,,,,,,,,,,,,,,,,,,,,,,,,,,,,,,,,,,,,,,,,,,,,,
,,,,,,5f502659e156d519cef558b7,62c53a55d053baede748cfe7,2022-07-06_09h31.52.204,Colour_Asymmetry_Pilot,2022.1.3,Win32,59.93407252,62c50e9c1127f2cd403a315f,,,,,,,,,,,,,,,,,,,"[-0.9688,-0.7412000000000001,-0.4902000000000001]",threeone,"[0.9763999999999999,0.8588,-0.05900000000000005]",-4,1.7181,-71,110,1,0,0,response7disk_5,2,6,1,0,0,rectangle_8,2,6,1,0,0,,,1,2,6,1,0,0,,2,0,2,0,1,,,,,,,,,,,,,,,,,,,,,,,,,,,,,,,,,,,,,,,,,,,,,,,,,,,,,,,,,,,,,,,,,,,,,,,,,,,,,,,,,,,,,,,,,,,,,,,,,,,,,,,,,,,,,
,,,,,,5f502659e156d519cef558b7,62c53a55d053baede748cfe7,2022-07-06_09h31.52.204,Colour_Asymmetry_Pilot,2022.1.3,Win32,59.93407252,62c50e9c1127f2cd403a315f,,,,,,,,,,,,,,,,,,,"[0.9763999999999999,0.30979999999999985,-0.6786]",twofour,"[-0.30200000000000005,0.14500000000000002,0.2784]",-2,1.4189,-110,-46,1,0,0,response5disk_5,5,-1,1,0,0,rectangle_8,5,-1,1,0,0,,,1,5,-1,1,0,0,,3,0,3,0,1,,,,,,,,,,,,,,,,,,,,,,,,,,,,,,,,,,,,,,,,,,,,,,,,,,,,,,,,,,,,,,,,,,,,,,,,,,,,,,,,,,,,,,,,,,,,,,,,,,,,,,,,,,,,,
,,,,,,5f502659e156d519cef558b7,62c53a55d053baede748cfe7,2022-07-06_09h31.52.204,Colour_Asymmetry_Pilot,2022.1.3,Win32,59.93407252,62c50e9c1127f2cd403a315f,,,,,,,,,,,,,,,,,,,"[0.30180000000000007,-0.7884,-0.9844]",threeone,"[-0.10599999999999998,-0.15300000000000002,0.15280000000000005]",-1,1.4757,-64,-96,1,0,0,response5disk_5,-8,-2,1,0,0,rectangle_8,-8,-2,1,0,0,,,1,-8,-2,1,0,0,,4,0,4,0,1,,,,,,,,,,,,,,,,,,,,,,,,,,,,,,,,,,,,,,,,,,,,,,,,,,,,,,,,,,,,,,,,,,,,,,,,,,,,,,,,,,,,,,,,,,,,,,,,,,,,,,,,,,,,,
,,,,,,5f502659e156d519cef558b7,62c53a55d053baede748cfe7,2022-07-06_09h31.52.204,Colour_Asymmetry_Pilot,2022.1.3,Win32,59.93407252,62c50e9c1127f2cd403a315f,,,,,,,,,,,,,,,,,,,"[0.9213999999999998,0.6391999999999998,-0.9922]",fourtwo,"[0.8115999999999999,-0.0040000000000000036,-0.09819999999999995]",-1,1.76,-39,-110,1,0,0,response5disk_5,10,11,1,0,0,rectangle_8,74,-107,1,0,0,response3disk_7,4,1,0,-7,1,0,0,rectangle_4,5,0,5,0,1,,,,,,,,,,,,,,,,,,,,,,,,,,,,,,,,,,,,,,,,,,,,,,,,,,,,,,,,,,,,,,,,,,,,,,,,,,,,,,,,,,,,,,,,,,,,,,,,,,,,,,,,,,,,,
,,,,,,5f502659e156d519cef558b7,62c53a55d053baede748cfe7,2022-07-06_09h31.52.204,Colour_Asymmetry_Pilot,2022.1.3,Win32,59.93407252,62c50e9c1127f2cd403a315f,,,,,,,,,,,,,,,,,,,"[0.2862,0.7802,0.3568]",onetwo,"[0.2862,0.7802,0.3568]",4,1.66,34,92,1,0,0,response1disk_5,-8,-7,1,0,0,rectangle_8,-8,-7,1,0,0,,,1,-8,-7,1,0,0,,6,0,6,0,1,,,,,,,,,,,,,,,,,,,,,,,,,,,,,,,,,,,,,,,,,,,,,,,,,,,,,,,,,,,,,,,,,,,,,,,,,,,,,,,,,,,,,,,,,,,,,,,,,,,,,,,,,,,,,
,,,,,,5f502659e156d519cef558b7,62c53a55d053baede748cfe7,2022-07-06_09h31.52.204,Colour_Asymmetry_Pilot,2022.1.3,Win32,59.93407252,62c50e9c1127f2cd403a315f,,,,,,,,,,,,,,,,,,,,onethree,,-3,1.8015,,,,,,,,,,,,,,,,,,,,,,,,,,,,,,,,space,3.1011,"[0.3802000000000001,0.19199999999999995,-0.6394]","[0.7176,-0.906,-0.6864]",-123,31,1,0,0,response7disk,-2,-4,1,0,0,rectangle,-2,-4,1,0,0,,3,0.0028,0,-2,-4,1,0,0,0,0,0,108,1,27,second,,,,,,,,,,,,,,,,,,,,,,,,,,,,,,,,,,,,,,,,,,,,,,,,,,,,,,,,,,,,,,,,,,,,,,,,
,,,,,,5f502659e156d519cef558b7,62c53a55d053baede748cfe7,2022-07-06_09h31.52.204,Colour_Asymmetry_Pilot,2022.1.3,Win32,59.93407252,62c50e9c1127f2cd403a315f,,,,,,,,,,,,,,,,,,,,threefour,,-4,0.8166,,,,,,,,,,,,,,,,,,,,,,,,,,,,,,,,,,"[-0.9766,-0.6472,0.07440000000000002]","[0.9686000000000001,0.5763999999999998,0.11359999999999992]",-52,98,1,0,0,response7disk,-4,-3,1,0,0,rectangle,-4,-3,1,0,0,,1,0.0007,0,-4,-3,1,0,0,0,1,1,126,1,45,second,,,,,,,,,,,,,,,,,,,,,,,,,,,,,,,,,,,,,,,,,,,,,,,,,,,,,,,,,,,,,,,,,,,,,,,,
,,,,,,5f502659e156d519cef558b7,62c53a55d053baede748cfe7,2022-07-06_09h31.52.204,Colour_Asymmetry_Pilot,2022.1.3,Win32,59.93407252,62c50e9c1127f2cd403a315f,,,,,,,,,,,,,,,,,,,,twofour,,-4,0.569,,,,,,,,,,,,,,,,,,,,,,,,,,,,,,,,,,"[-0.4746,-0.0354000000000001,0.5449999999999999]","[0.7018,0.7802,-0.16079999999999994]",-59,114,1,0,0,response7disk,-11,12,1,0,0,rectangle,-11,12,1,0,0,,2,0.0009,0,-11,12,1,0,0,0,2,2,109,1,28,second,,,,,,,,,,,,,,,,,,,,,,,,,,,,,,,,,,,,,,,,,,,,,,,,,,,,,,,,,,,,,,,,,,,,,,,,
,,,,,,5f502659e156d519cef558b7,62c53a55d053baede748cfe7,2022-07-06_09h31.52.204,Colour_Asymmetry_Pilot,2022.1.3,Win32,59.93407252,62c50e9c1127f2cd403a315f,,,,,,,,,,,,,,,,,,,,twofour,,-2,3.2685,,,,,,,,,,,,,,,,,,,,,,,,,,,,,,,,,,"[0.9686000000000001,0.3802000000000001,0.19999999999999996]","[-0.9688,-0.38039999999999996,-0.41979999999999995]",-116,-56,1,0,0,response5disk,-9,-4,1,0,0,rectangle,-9,-4,1,0,0,,1,0.001,0,-9,-4,1,0,0,0,3,3,99,1,18,second,,,,,,,,,,,,,,,,,,,,,,,,,,,,,,,,,,,,,,,,,,,,,,,,,,,,,,,,,,,,,,,,,,,,,,,,
,,,,,,5f502659e156d519cef558b7,62c53a55d053baede748cfe7,2022-07-06_09h31.52.204,Colour_Asymmetry_Pilot,2022.1.3,Win32,59.93407252,62c50e9c1127f2cd403a315f,,,,,,,,,,,,,,,,,,,,twoone,,-2,1.3497,,,,,,,,,,,,,,,,,,,,,,,,,,,,,,,,,,"[-0.5922000000000001,-0.7492000000000001,-0.5296000000000001]","[0.8274000000000001,-0.5844,-0.9452]",-78,-35,1,0,0,response5disk,-15,-7,1,0,0,rectangle,-15,-7,1,0,0,,2,0.0008,0,-15,-7,1,0,0,0,4,4,91,1,10,second,,,,,,,,,,,,,,,,,,,,,,,,,,,,,,,,,,,,,,,,,,,,,,,,,,,,,,,,,,,,,,,,,,,,,,,,
,,,,,,5f502659e156d519cef558b7,62c53a55d053baede748cfe7,2022-07-06_09h31.52.204,Colour_Asymmetry_Pilot,2022.1.3,Win32,59.93407252,62c50e9c1127f2cd403a315f,,,,,,,,,,,,,,,,,,,,twoone,,2,1.1649,,,,,,,,,,,,,,,,,,,,,,,,,,,,,,,,,,"[0.9763999999999999,0.8588,-0.05900000000000005]","[0.9763999999999999,0.30979999999999985,-0.6786]",116,-59,1,0,0,response3disk,25,-5,1,0,0,rectangle,25,-5,1,0,0,,2,0.0001,0,25,-5,1,0,0,0,5,5,123,1,42,second,,,,,,,,,,,,,,,,,,,,,,,,,,,,,,,,,,,,,,,,,,,,,,,,,,,,,,,,,,,,,,,,,,,,,,,,
,,,,,,5f502659e156d519cef558b7,62c53a55d053baede748cfe7,2022-07-06_09h31.52.204,Colour_Asymmetry_Pilot,2022.1.3,Win32,59.93407252,62c50e9c1127f2cd403a315f,,,,,,,,,,,,,,,,,,,,onetwo,,1,1.9506,,,,,,,,,,,,,,,,,,,,,,,,,,,,,,,,,,"[-0.06680000000000008,-0.45100000000000007,-0.906]","[0.6547999999999998,-0.043199999999999905,-0.011800000000000033]",32,-90,1,0,0,response3disk,-28,13,1,0,0,rectangle,-28,13,1,0,0,,3,0.0012,0,-28,13,1,0,0,0,6,6,87,1,6,second,,,,,,,,,,,,,,,,,,,,,,,,,,,,,,,,,,,,,,,,,,,,,,,,,,,,,,,,,,,,,,,,,,,,,,,,
,,,,,,5f502659e156d519cef558b7,62c53a55d053baede748cfe7,2022-07-06_09h31.52.204,Colour_Asymmetry_Pilot,2022.1.3,Win32,59.93407252,62c50e9c1127f2cd403a315f,,,,,,,,,,,,,,,,,,,,twofour,,-3,0.6486,,,,,,,,,,,,,,,,,,,,,,,,,,,,,,,,,,"[-0.34920000000000007,-0.702,-0.5216]","[0.6625999999999999,0.4980000000000002,-0.357]",-93,42,1,0,0,response7disk,-29,1,1,0,0,rectangle,-29,1,1,0,0,,2,0.001,0,-29,1,1,0,0,0,7,7,58,1,58,first,,,,,,,,,,,,,,,,,,,,,,,,,,,,,,,,,,,,,,,,,,,,,,,,,,,,,,,,,,,,,,,,,,,,,,,,
,,,,,,5f502659e156d519cef558b7,62c53a55d053baede748cfe7,2022-07-06_09h31.52.204,Colour_Asymmetry_Pilot,2022.1.3,Win32,59.93407252,62c50e9c1127f2cd403a315f,,,,,,,,,,,,,,,,,,,,twofour,,4,0.9292,,,,,,,,,,,,,,,,,,,,,,,,,,,,,,,,,,"[-0.7412000000000001,-0.08239999999999992,-0.6864]","[-0.7412000000000001,-0.08239999999999992,-0.6864]",42,105,1,0,0,response1disk,4,-12,1,0,0,rectangle,4,-12,1,0,0,,2,0.0002,0,4,-12,1,0,0,0,8,8,47,1,47,first,,,,,,,,,,,,,,,,,,,,,,,,,,,,,,,,,,,,,,,,,,,,,,,,,,,,,,,,,,,,,,,,,,,,,,,,
,,,,,,5f502659e156d519cef558b7,62c53a55d053baede748cfe7,2022-07-06_09h31.52.204,Colour_Asymmetry_Pilot,2022.1.3,Win32,59.93407252,62c50e9c1127f2cd403a315f,,,,,,,,,,,,,,,,,,,,threeone,,-4,1.239,,,,,,,,,,,,,,,,,,,,,,,,,,,,,,,,,,"[0.9763999999999999,-0.1137999999999999,-0.6314]","[-0.9766,-0.34920000000000007,0.2156]",-55,103,1,0,0,response7disk,-17,-1,1,0,0,rectangle,-17,-1,1,0,0,,1,0.0007,0,-17,-1,1,0,0,0,9,9,61,1,61,first,,,,,,,,,,,,,,,,,,,,,,,,,,,,,,,,,,,,,,,,,,,,,,,,,,,,,,,,,,,,,,,,,,,,,,,,
,,,,,,5f502659e156d519cef558b7,62c53a55d053baede748cfe7,2022-07-06_09h31.52.204,Colour_Asymmetry_Pilot,2022.1.3,Win32,59.93407252,62c50e9c1127f2cd403a315f,,,,,,,,,,,,,,,,,,,,onetwo,,4,0.4822,,,,,,,,,,,,,,,,,,,,,,,,,,,,,,,,,,"[-0.7412000000000001,-0.08239999999999992,-0.6864]","[-0.7412000000000001,-0.08239999999999992,-0.6864]",48,98,1,0,0,response1disk,14,13,1,0,0,rectangle,14,13,1,0,0,,3,0.0009,0,14,13,1,0,0,0,10,10,128,1,47,second,,,,,,,,,,,,,,,,,,,,,,,,,,,,,,,,,,,,,,,,,,,,,,,,,,,,,,,,,,,,,,,,,,,,,,,,
,,,,,,5f502659e156d519cef558b7,62c53a55d053baede748cfe7,2022-07-06_09h31.52.204,Colour_Asymmetry_Pilot,2022.1.3,Win32,59.93407252,62c50e9c1127f2cd403a315f,,,,,,,,,,,,,,,,,,,,fourtwo,,2,0.7645,,,,,,,,,,,,,,,,,,,,,,,,,,,,,,,,,,"[-0.10599999999999998,-0.10599999999999998,0.5841999999999998]","[-0.5452,-0.608,0.2470000000000001]",87,-38,1,0,0,response3disk,-2,11,1,0,0,rectangle,-2,11,1,0,0,,1,0.0007,0,-2,11,1,0,0,0,11,11,2,1,2,first,,,,,,,,,,,,,,,,,,,,,,,,,,,,,,,,,,,,,,,,,,,,,,,,,,,,,,,,,,,,,,,,,,,,,,,,
,,,,,,5f502659e156d519cef558b7,62c53a55d053baede748cfe7,2022-07-06_09h31.52.204,Colour_Asymmetry_Pilot,2022.1.3,Win32,59.93407252,62c50e9c1127f2cd403a315f,,,,,,,,,,,,,,,,,,,,twoone,,-1,0.797,,,,,,,,,,,,,,,,,,,,,,,,,,,,,,,,,,"[-0.24719999999999998,0.5213999999999999,-0.12959999999999994]","[-0.9216,-0.5529999999999999,-0.3962]",-52,-98,1,0,0,response5disk,-10,-3,1,0,0,rectangle,-10,-3,1,0,0,,2,0.0008,0,-10,-3,1,0,0,0,12,12,134,1,53,second,,,,,,,,,,,,,,,,,,,,,,,,,,,,,,,,,,,,,,,,,,,,,,,,,,,,,,,,,,,,,,,,,,,,,,,,
,,,,,,5f502659e156d519cef558b7,62c53a55d053baede748cfe7,2022-07-06_09h31.52.204,Colour_Asymmetry_Pilot,2022.1.3,Win32,59.93407252,62c50e9c1127f2cd403a315f,,,,,,,,,,,,,,,,,,,,onetwo,,1,0.9965,,,,,,,,,,,,,,,,,,,,,,,,,,,,,,,,,,"[-0.6235999999999999,-0.6786,-0.08239999999999992]","[-0.34920000000000007,-0.702,-0.5216]",55,-106,1,0,0,response3disk,10,-10,1,0,0,rectangle,10,-10,1,0,0,,3,0.001,0,10,-10,1,0,0,0,13,13,122,1,41,second,,,,,,,,,,,,,,,,,,,,,,,,,,,,,,,,,,,,,,,,,,,,,,,,,,,,,,,,,,,,,,,,,,,,,,,,
,,,,,,5f502659e156d519cef558b7,62c53a55d053baede748cfe7,2022-07-06_09h31.52.204,Colour_Asymmetry_Pilot,2022.1.3,Win32,59.93407252,62c50e9c1127f2cd403a315f,,,,,,,,,,,,,,,,,,,,onetwo,,2,0.7084,,,,,,,,,,,,,,,,,,,,,,,,,,,,,,,,,,"[-0.24719999999999998,-0.0354000000000001,0.3175999999999999]","[-0.9688,-0.4902000000000001,-0.12159999999999993]",86,-51,1,0,0,response3disk,15,13,1,0,0,rectangle,15,13,1,0,0,,3,0.0002,0,15,13,1,0,0,0,14,14,64,1,64,first,,,,,,,,,,,,,,,,,,,,,,,,,,,,,,,,,,,,,,,,,,,,,,,,,,,,,,,,,,,,,,,,,,,,,,,,
,,,,,,5f502659e156d519cef558b7,62c53a55d053baede748cfe7,2022-07-06_09h31.52.204,Colour_Asymmetry_Pilot,2022.1.3,Win32,59.93407252,62c50e9c1127f2cd403a315f,,,,,,,,,,,,,,,,,,,,fourthree,,3,0.5176,,,,,,,,,,,,,,,,,,,,,,,,,,,,,,,,,,"[0.5528,0.7409999999999999,-0.71]","[0.7018,0.7802,-0.16079999999999994]",106,49,1,0,0,response1disk,-4,5,1,0,0,rectangle,-4,5,1,0,0,,2,0.0006,0,-4,5,1,0,0,0,15,15,30,1,30,first,,,,,,,,,,,,,,,,,,,,,,,,,,,,,,,,,,,,,,,,,,,,,,,,,,,,,,,,,,,,,,,,,,,,,,,,
,,,,,,5f502659e156d519cef558b7,62c53a55d053baede748cfe7,2022-07-06_09h31.52.204,Colour_Asymmetry_Pilot,2022.1.3,Win32,59.93407252,62c50e9c1127f2cd403a315f,,,,,,,,,,,,,,,,,,,,threeone,,1,0.5014,,,,,,,,,,,,,,,,,,,,,,,,,,,,,,,,,,"[-0.9216,-0.5529999999999999,-0.3962]","[-0.09019999999999995,0.44300000000000006,0.5371999999999999]",32,-80,1,0,0,response3disk,-14,-6,1,0,0,rectangle,-14,-6,1,0,0,,3,0.0007,0,-14,-6,1,0,0,0,16,16,25,1,25,first,,,,,,,,,,,,,,,,,,,,,,,,,,,,,,,,,,,,,,,,,,,,,,,,,,,,,,,,,,,,,,,,,,,,,,,,
,,,,,,5f502659e156d519cef558b7,62c53a55d053baede748cfe7,2022-07-06_09h31.52.204,Colour_Asymmetry_Pilot,2022.1.3,Win32,59.93407252,62c50e9c1127f2cd403a315f,,,,,,,,,,,,,,,,,,,,threefour,,-1,5.2008,,,,,,,,,,,,,,,,,,,,,,,,,,,,,,,,,,"[0.3802000000000001,0.19199999999999995,-0.6394]","[-0.9766,-0.6472,0.07440000000000002]",-63,-89,1,0,0,response5disk,3,0,1,0,0,rectangle,3,0,1,0,0,,1,0.0009,0,3,0,1,0,0,0,17,17,113,1,32,second,,,,,,,,,,,,,,,,,,,,,,,,,,,,,,,,,,,,,,,,,,,,,,,,,,,,,,,,,,,,,,,,,,,,,,,,
