trials.thisRepN,trials.thisTrialN,trials.thisN,trials.thisIndex,trials.ran,Colourcodes,participant,session,date,expName,psychopyVersion,OS,frameRate,study_id,trials_4.thisRepN,trials_4.thisTrialN,trials_4.thisN,trials_4.thisIndex,trials_4.ran,StimulusPos,key_resp.keys,key_resp.rt,key_resp_2.keys,key_resp_2.rt,key_resp_15.keys,key_resp_15.rt,key_resp_17.keys,key_resp_17.rt,key_resp_9.keys,key_resp_9.rt,key_resp_10.keys,key_resp_10.rt,Circle1_col,Ecc,Circle2_col,similarity,response_time,mouse_5.x,mouse_5.y,mouse_5.leftButton,mouse_5.midButton,mouse_5.rightButton,mouse_5.clicked_name,mouse_10.x,mouse_10.y,mouse_10.leftButton,mouse_10.midButton,mouse_10.rightButton,mouse_10.clicked_name,mouse_7.x,mouse_7.y,mouse_7.leftButton,mouse_7.midButton,mouse_7.rightButton,catchnumberprac,mouse_6.x,mouse_6.y,mouse_6.leftButton,mouse_6.midButton,mouse_6.rightButton,duringprac.thisRepN,duringprac.thisTrialN,duringprac.thisN,duringprac.thisIndex,duringprac.ran,mouse_7.clicked_name,catchprac,mouse_6.clicked_name,key_resp_22.keys,key_resp_22.rt,Circle1_colour,Circle2_colour,mouse.x,mouse.y,mouse.leftButton,mouse.midButton,mouse.rightButton,mouse.clicked_name,mouse_2.x,mouse_2.y,mouse_2.leftButton,mouse_2.midButton,mouse_2.rightButton,mouse_2.clicked_name,mouse_3.x,mouse_3.y,mouse_3.leftButton,mouse_3.midButton,mouse_3.rightButton,catchresponse,catchnumber,response_time_catch,Catch,mouse_11.x,mouse_11.y,mouse_11.leftButton,mouse_11.midButton,mouse_11.rightButton,trials_2.thisRepN,trials_2.thisTrialN,trials_2.thisN,trials_2.thisIndex,trials_2.ran,Colourpair,Temporder,mouse_3.clicked_name,mouse_11.clicked_name,trials_3.thisRepN,trials_3.thisTrialN,trials_3.thisN,trials_3.thisIndex,trials_3.ran,key_resp_instr_Ishi.keys,key_resp_instr_Ishi.rt,Ishi_trial_keyresp.keys,Ishi_textbox.text,Ishi_mouse.x,Ishi_mouse.y,Ishi_mouse.leftButton,Ishi_mouse.midButton,Ishi_mouse.rightButton,Ishi_mouse.clicked_name,Ishi_loop.thisRepN,Ishi_loop.thisTrialN,Ishi_loop.thisN,Ishi_loop.thisIndex,Ishi_loop.ran,imageaddress,textbox.text,mouse_4.x,mouse_4.y,mouse_4.leftButton,mouse_4.midButton,mouse_4.rightButton,mouse_4.clicked_name,textbox_2.text,mouse_8.x,mouse_8.y,mouse_8.leftButton,mouse_8.midButton,mouse_8.rightButton,mouse_8.clicked_name,textbox_3.text,mouse_9.x,mouse_9.y,mouse_9.leftButton,mouse_9.midButton,mouse_9.rightButton,mouse_9.clicked_name,textbox_4.text,mouse_12.x,mouse_12.y,mouse_12.leftButton,mouse_12.midButton,mouse_12.rightButton,mouse_12.clicked_name,textbox_5.text,mouse_13.x,mouse_13.y,mouse_13.leftButton,mouse_13.midButton,mouse_13.rightButton,mouse_13.clicked_name,textbox_6.text,mouse_14.x,mouse_14.y,mouse_14.leftButton,mouse_14.midButton,mouse_14.rightButton,mouse_14.clicked_name,textbox_7.text,mouse_15.x,mouse_15.y,mouse_15.leftButton,mouse_15.midButton,mouse_15.rightButton,mouse_15.clicked_name
0,0,0,3,1,,61516c7d3c833383901cdb54,62c53aa0aa2bc9b5bcef82fa,2022-07-06_09h33.28.558,Colour_Asymmetry_Pilot,2022.1.3,Win32,60.09976561,62c50e9c1127f2cd403a315f,,,,,,,,,,,,,,,,,,,,,,,,,,,,,,,,,,,,,,,,,,,,,,,,,,,,,,,,,,,,,,,,,,,,,,,,,,,,,,,,,,,,,,,,,,,,,,,,,,,,,,,,,,,,,,,,,,,,,,,,,,,,,,,,,,,,,,,,,,,,,,,,,,,,,,,,,,,,,,,,,,,
0,1,1,78,1,,61516c7d3c833383901cdb54,62c53aa0aa2bc9b5bcef82fa,2022-07-06_09h33.28.558,Colour_Asymmetry_Pilot,2022.1.3,Win32,60.09976561,62c50e9c1127f2cd403a315f,,,,,,,,,,,,,,,,,,,,,,,,,,,,,,,,,,,,,,,,,,,,,,,,,,,,,,,,,,,,,,,,,,,,,,,,,,,,,,,,,,,,,,,,,,,,,,,,,,,,,,,,,,,,,,,,,,,,,,,,,,,,,,,,,,,,,,,,,,,,,,,,,,,,,,,,,,,,,,,,,,,
0,2,2,53,1,,61516c7d3c833383901cdb54,62c53aa0aa2bc9b5bcef82fa,2022-07-06_09h33.28.558,Colour_Asymmetry_Pilot,2022.1.3,Win32,60.09976561,62c50e9c1127f2cd403a315f,,,,,,,,,,,,,,,,,,,,,,,,,,,,,,,,,,,,,,,,,,,,,,,,,,,,,,,,,,,,,,,,,,,,,,,,,,,,,,,,,,,,,,,,,,,,,,,,,,,,,,,,,,,,,,,,,,,,,,,,,,,,,,,,,,,,,,,,,,,,,,,,,,,,,,,,,,,,,,,,,,,
0,3,3,51,1,,61516c7d3c833383901cdb54,62c53aa0aa2bc9b5bcef82fa,2022-07-06_09h33.28.558,Colour_Asymmetry_Pilot,2022.1.3,Win32,60.09976561,62c50e9c1127f2cd403a315f,,,,,,,,,,,,,,,,,,,,,,,,,,,,,,,,,,,,,,,,,,,,,,,,,,,,,,,,,,,,,,,,,,,,,,,,,,,,,,,,,,,,,,,,,,,,,,,,,,,,,,,,,,,,,,,,,,,,,,,,,,,,,,,,,,,,,,,,,,,,,,,,,,,,,,,,,,,,,,,,,,,
0,4,4,15,1,,61516c7d3c833383901cdb54,62c53aa0aa2bc9b5bcef82fa,2022-07-06_09h33.28.558,Colour_Asymmetry_Pilot,2022.1.3,Win32,60.09976561,62c50e9c1127f2cd403a315f,,,,,,,,,,,,,,,,,,,,,,,,,,,,,,,,,,,,,,,,,,,,,,,,,,,,,,,,,,,,,,,,,,,,,,,,,,,,,,,,,,,,,,,,,,,,,,,,,,,,,,,,,,,,,,,,,,,,,,,,,,,,,,,,,,,,,,,,,,,,,,,,,,,,,,,,,,,,,,,,,,,
0,5,5,28,1,,61516c7d3c833383901cdb54,62c53aa0aa2bc9b5bcef82fa,2022-07-06_09h33.28.558,Colour_Asymmetry_Pilot,2022.1.3,Win32,60.09976561,62c50e9c1127f2cd403a315f,,,,,,,,,,,,,,,,,,,,,,,,,,,,,,,,,,,,,,,,,,,,,,,,,,,,,,,,,,,,,,,,,,,,,,,,,,,,,,,,,,,,,,,,,,,,,,,,,,,,,,,,,,,,,,,,,,,,,,,,,,,,,,,,,,,,,,,,,,,,,,,,,,,,,,,,,,,,,,,,,,,
0,6,6,46,1,,61516c7d3c833383901cdb54,62c53aa0aa2bc9b5bcef82fa,2022-07-06_09h33.28.558,Colour_Asymmetry_Pilot,2022.1.3,Win32,60.09976561,62c50e9c1127f2cd403a315f,,,,,,,,,,,,,,,,,,,,,,,,,,,,,,,,,,,,,,,,,,,,,,,,,,,,,,,,,,,,,,,,,,,,,,,,,,,,,,,,,,,,,,,,,,,,,,,,,,,,,,,,,,,,,,,,,,,,,,,,,,,,,,,,,,,,,,,,,,,,,,,,,,,,,,,,,,,,,,,,,,,
0,7,7,60,1,,61516c7d3c833383901cdb54,62c53aa0aa2bc9b5bcef82fa,2022-07-06_09h33.28.558,Colour_Asymmetry_Pilot,2022.1.3,Win32,60.09976561,62c50e9c1127f2cd403a315f,,,,,,,,,,,,,,,,,,,,,,,,,,,,,,,,,,,,,,,,,,,,,,,,,,,,,,,,,,,,,,,,,,,,,,,,,,,,,,,,,,,,,,,,,,,,,,,,,,,,,,,,,,,,,,,,,,,,,,,,,,,,,,,,,,,,,,,,,,,,,,,,,,,,,,,,,,,,,,,,,,,
0,8,8,38,1,,61516c7d3c833383901cdb54,62c53aa0aa2bc9b5bcef82fa,2022-07-06_09h33.28.558,Colour_Asymmetry_Pilot,2022.1.3,Win32,60.09976561,62c50e9c1127f2cd403a315f,,,,,,,,,,,,,,,,,,,,,,,,,,,,,,,,,,,,,,,,,,,,,,,,,,,,,,,,,,,,,,,,,,,,,,,,,,,,,,,,,,,,,,,,,,,,,,,,,,,,,,,,,,,,,,,,,,,,,,,,,,,,,,,,,,,,,,,,,,,,,,,,,,,,,,,,,,,,,,,,,,,
0,9,9,26,1,,61516c7d3c833383901cdb54,62c53aa0aa2bc9b5bcef82fa,2022-07-06_09h33.28.558,Colour_Asymmetry_Pilot,2022.1.3,Win32,60.09976561,62c50e9c1127f2cd403a315f,,,,,,,,,,,,,,,,,,,,,,,,,,,,,,,,,,,,,,,,,,,,,,,,,,,,,,,,,,,,,,,,,,,,,,,,,,,,,,,,,,,,,,,,,,,,,,,,,,,,,,,,,,,,,,,,,,,,,,,,,,,,,,,,,,,,,,,,,,,,,,,,,,,,,,,,,,,,,,,,,,,
0,10,10,29,1,,61516c7d3c833383901cdb54,62c53aa0aa2bc9b5bcef82fa,2022-07-06_09h33.28.558,Colour_Asymmetry_Pilot,2022.1.3,Win32,60.09976561,62c50e9c1127f2cd403a315f,,,,,,,,,,,,,,,,,,,,,,,,,,,,,,,,,,,,,,,,,,,,,,,,,,,,,,,,,,,,,,,,,,,,,,,,,,,,,,,,,,,,,,,,,,,,,,,,,,,,,,,,,,,,,,,,,,,,,,,,,,,,,,,,,,,,,,,,,,,,,,,,,,,,,,,,,,,,,,,,,,,
0,11,11,40,1,,61516c7d3c833383901cdb54,62c53aa0aa2bc9b5bcef82fa,2022-07-06_09h33.28.558,Colour_Asymmetry_Pilot,2022.1.3,Win32,60.09976561,62c50e9c1127f2cd403a315f,,,,,,,,,,,,,,,,,,,,,,,,,,,,,,,,,,,,,,,,,,,,,,,,,,,,,,,,,,,,,,,,,,,,,,,,,,,,,,,,,,,,,,,,,,,,,,,,,,,,,,,,,,,,,,,,,,,,,,,,,,,,,,,,,,,,,,,,,,,,,,,,,,,,,,,,,,,,,,,,,,,
0,12,12,1,1,,61516c7d3c833383901cdb54,62c53aa0aa2bc9b5bcef82fa,2022-07-06_09h33.28.558,Colour_Asymmetry_Pilot,2022.1.3,Win32,60.09976561,62c50e9c1127f2cd403a315f,,,,,,,,,,,,,,,,,,,,,,,,,,,,,,,,,,,,,,,,,,,,,,,,,,,,,,,,,,,,,,,,,,,,,,,,,,,,,,,,,,,,,,,,,,,,,,,,,,,,,,,,,,,,,,,,,,,,,,,,,,,,,,,,,,,,,,,,,,,,,,,,,,,,,,,,,,,,,,,,,,,
0,13,13,76,1,,61516c7d3c833383901cdb54,62c53aa0aa2bc9b5bcef82fa,2022-07-06_09h33.28.558,Colour_Asymmetry_Pilot,2022.1.3,Win32,60.09976561,62c50e9c1127f2cd403a315f,,,,,,,,,,,,,,,,,,,,,,,,,,,,,,,,,,,,,,,,,,,,,,,,,,,,,,,,,,,,,,,,,,,,,,,,,,,,,,,,,,,,,,,,,,,,,,,,,,,,,,,,,,,,,,,,,,,,,,,,,,,,,,,,,,,,,,,,,,,,,,,,,,,,,,,,,,,,,,,,,,,
0,14,14,58,1,,61516c7d3c833383901cdb54,62c53aa0aa2bc9b5bcef82fa,2022-07-06_09h33.28.558,Colour_Asymmetry_Pilot,2022.1.3,Win32,60.09976561,62c50e9c1127f2cd403a315f,,,,,,,,,,,,,,,,,,,,,,,,,,,,,,,,,,,,,,,,,,,,,,,,,,,,,,,,,,,,,,,,,,,,,,,,,,,,,,,,,,,,,,,,,,,,,,,,,,,,,,,,,,,,,,,,,,,,,,,,,,,,,,,,,,,,,,,,,,,,,,,,,,,,,,,,,,,,,,,,,,,
0,15,15,67,1,,61516c7d3c833383901cdb54,62c53aa0aa2bc9b5bcef82fa,2022-07-06_09h33.28.558,Colour_Asymmetry_Pilot,2022.1.3,Win32,60.09976561,62c50e9c1127f2cd403a315f,,,,,,,,,,,,,,,,,,,,,,,,,,,,,,,,,,,,,,,,,,,,,,,,,,,,,,,,,,,,,,,,,,,,,,,,,,,,,,,,,,,,,,,,,,,,,,,,,,,,,,,,,,,,,,,,,,,,,,,,,,,,,,,,,,,,,,,,,,,,,,,,,,,,,,,,,,,,,,,,,,,
0,16,16,75,1,,61516c7d3c833383901cdb54,62c53aa0aa2bc9b5bcef82fa,2022-07-06_09h33.28.558,Colour_Asymmetry_Pilot,2022.1.3,Win32,60.09976561,62c50e9c1127f2cd403a315f,,,,,,,,,,,,,,,,,,,,,,,,,,,,,,,,,,,,,,,,,,,,,,,,,,,,,,,,,,,,,,,,,,,,,,,,,,,,,,,,,,,,,,,,,,,,,,,,,,,,,,,,,,,,,,,,,,,,,,,,,,,,,,,,,,,,,,,,,,,,,,,,,,,,,,,,,,,,,,,,,,,
0,17,17,88,1,,61516c7d3c833383901cdb54,62c53aa0aa2bc9b5bcef82fa,2022-07-06_09h33.28.558,Colour_Asymmetry_Pilot,2022.1.3,Win32,60.09976561,62c50e9c1127f2cd403a315f,,,,,,,,,,,,,,,,,,,,,,,,,,,,,,,,,,,,,,,,,,,,,,,,,,,,,,,,,,,,,,,,,,,,,,,,,,,,,,,,,,,,,,,,,,,,,,,,,,,,,,,,,,,,,,,,,,,,,,,,,,,,,,,,,,,,,,,,,,,,,,,,,,,,,,,,,,,,,,,,,,,
0,18,18,0,1,,61516c7d3c833383901cdb54,62c53aa0aa2bc9b5bcef82fa,2022-07-06_09h33.28.558,Colour_Asymmetry_Pilot,2022.1.3,Win32,60.09976561,62c50e9c1127f2cd403a315f,,,,,,,,,,,,,,,,,,,,,,,,,,,,,,,,,,,,,,,,,,,,,,,,,,,,,,,,,,,,,,,,,,,,,,,,,,,,,,,,,,,,,,,,,,,,,,,,,,,,,,,,,,,,,,,,,,,,,,,,,,,,,,,,,,,,,,,,,,,,,,,,,,,,,,,,,,,,,,,,,,,
0,19,19,83,1,,61516c7d3c833383901cdb54,62c53aa0aa2bc9b5bcef82fa,2022-07-06_09h33.28.558,Colour_Asymmetry_Pilot,2022.1.3,Win32,60.09976561,62c50e9c1127f2cd403a315f,,,,,,,,,,,,,,,,,,,,,,,,,,,,,,,,,,,,,,,,,,,,,,,,,,,,,,,,,,,,,,,,,,,,,,,,,,,,,,,,,,,,,,,,,,,,,,,,,,,,,,,,,,,,,,,,,,,,,,,,,,,,,,,,,,,,,,,,,,,,,,,,,,,,,,,,,,,,,,,,,,,
0,20,20,20,1,,61516c7d3c833383901cdb54,62c53aa0aa2bc9b5bcef82fa,2022-07-06_09h33.28.558,Colour_Asymmetry_Pilot,2022.1.3,Win32,60.09976561,62c50e9c1127f2cd403a315f,,,,,,,,,,,,,,,,,,,,,,,,,,,,,,,,,,,,,,,,,,,,,,,,,,,,,,,,,,,,,,,,,,,,,,,,,,,,,,,,,,,,,,,,,,,,,,,,,,,,,,,,,,,,,,,,,,,,,,,,,,,,,,,,,,,,,,,,,,,,,,,,,,,,,,,,,,,,,,,,,,,
0,21,21,14,1,,61516c7d3c833383901cdb54,62c53aa0aa2bc9b5bcef82fa,2022-07-06_09h33.28.558,Colour_Asymmetry_Pilot,2022.1.3,Win32,60.09976561,62c50e9c1127f2cd403a315f,,,,,,,,,,,,,,,,,,,,,,,,,,,,,,,,,,,,,,,,,,,,,,,,,,,,,,,,,,,,,,,,,,,,,,,,,,,,,,,,,,,,,,,,,,,,,,,,,,,,,,,,,,,,,,,,,,,,,,,,,,,,,,,,,,,,,,,,,,,,,,,,,,,,,,,,,,,,,,,,,,,
0,22,22,57,1,,61516c7d3c833383901cdb54,62c53aa0aa2bc9b5bcef82fa,2022-07-06_09h33.28.558,Colour_Asymmetry_Pilot,2022.1.3,Win32,60.09976561,62c50e9c1127f2cd403a315f,,,,,,,,,,,,,,,,,,,,,,,,,,,,,,,,,,,,,,,,,,,,,,,,,,,,,,,,,,,,,,,,,,,,,,,,,,,,,,,,,,,,,,,,,,,,,,,,,,,,,,,,,,,,,,,,,,,,,,,,,,,,,,,,,,,,,,,,,,,,,,,,,,,,,,,,,,,,,,,,,,,
0,23,23,42,1,,61516c7d3c833383901cdb54,62c53aa0aa2bc9b5bcef82fa,2022-07-06_09h33.28.558,Colour_Asymmetry_Pilot,2022.1.3,Win32,60.09976561,62c50e9c1127f2cd403a315f,,,,,,,,,,,,,,,,,,,,,,,,,,,,,,,,,,,,,,,,,,,,,,,,,,,,,,,,,,,,,,,,,,,,,,,,,,,,,,,,,,,,,,,,,,,,,,,,,,,,,,,,,,,,,,,,,,,,,,,,,,,,,,,,,,,,,,,,,,,,,,,,,,,,,,,,,,,,,,,,,,,
0,24,24,74,1,,61516c7d3c833383901cdb54,62c53aa0aa2bc9b5bcef82fa,2022-07-06_09h33.28.558,Colour_Asymmetry_Pilot,2022.1.3,Win32,60.09976561,62c50e9c1127f2cd403a315f,,,,,,,,,,,,,,,,,,,,,,,,,,,,,,,,,,,,,,,,,,,,,,,,,,,,,,,,,,,,,,,,,,,,,,,,,,,,,,,,,,,,,,,,,,,,,,,,,,,,,,,,,,,,,,,,,,,,,,,,,,,,,,,,,,,,,,,,,,,,,,,,,,,,,,,,,,,,,,,,,,,
0,25,25,79,1,,61516c7d3c833383901cdb54,62c53aa0aa2bc9b5bcef82fa,2022-07-06_09h33.28.558,Colour_Asymmetry_Pilot,2022.1.3,Win32,60.09976561,62c50e9c1127f2cd403a315f,,,,,,,,,,,,,,,,,,,,,,,,,,,,,,,,,,,,,,,,,,,,,,,,,,,,,,,,,,,,,,,,,,,,,,,,,,,,,,,,,,,,,,,,,,,,,,,,,,,,,,,,,,,,,,,,,,,,,,,,,,,,,,,,,,,,,,,,,,,,,,,,,,,,,,,,,,,,,,,,,,,
0,26,26,25,1,,61516c7d3c833383901cdb54,62c53aa0aa2bc9b5bcef82fa,2022-07-06_09h33.28.558,Colour_Asymmetry_Pilot,2022.1.3,Win32,60.09976561,62c50e9c1127f2cd403a315f,,,,,,,,,,,,,,,,,,,,,,,,,,,,,,,,,,,,,,,,,,,,,,,,,,,,,,,,,,,,,,,,,,,,,,,,,,,,,,,,,,,,,,,,,,,,,,,,,,,,,,,,,,,,,,,,,,,,,,,,,,,,,,,,,,,,,,,,,,,,,,,,,,,,,,,,,,,,,,,,,,,
0,27,27,45,1,,61516c7d3c833383901cdb54,62c53aa0aa2bc9b5bcef82fa,2022-07-06_09h33.28.558,Colour_Asymmetry_Pilot,2022.1.3,Win32,60.09976561,62c50e9c1127f2cd403a315f,,,,,,,,,,,,,,,,,,,,,,,,,,,,,,,,,,,,,,,,,,,,,,,,,,,,,,,,,,,,,,,,,,,,,,,,,,,,,,,,,,,,,,,,,,,,,,,,,,,,,,,,,,,,,,,,,,,,,,,,,,,,,,,,,,,,,,,,,,,,,,,,,,,,,,,,,,,,,,,,,,,
0,28,28,55,1,,61516c7d3c833383901cdb54,62c53aa0aa2bc9b5bcef82fa,2022-07-06_09h33.28.558,Colour_Asymmetry_Pilot,2022.1.3,Win32,60.09976561,62c50e9c1127f2cd403a315f,,,,,,,,,,,,,,,,,,,,,,,,,,,,,,,,,,,,,,,,,,,,,,,,,,,,,,,,,,,,,,,,,,,,,,,,,,,,,,,,,,,,,,,,,,,,,,,,,,,,,,,,,,,,,,,,,,,,,,,,,,,,,,,,,,,,,,,,,,,,,,,,,,,,,,,,,,,,,,,,,,,
0,29,29,33,1,,61516c7d3c833383901cdb54,62c53aa0aa2bc9b5bcef82fa,2022-07-06_09h33.28.558,Colour_Asymmetry_Pilot,2022.1.3,Win32,60.09976561,62c50e9c1127f2cd403a315f,,,,,,,,,,,,,,,,,,,,,,,,,,,,,,,,,,,,,,,,,,,,,,,,,,,,,,,,,,,,,,,,,,,,,,,,,,,,,,,,,,,,,,,,,,,,,,,,,,,,,,,,,,,,,,,,,,,,,,,,,,,,,,,,,,,,,,,,,,,,,,,,,,,,,,,,,,,,,,,,,,,
0,30,30,17,1,,61516c7d3c833383901cdb54,62c53aa0aa2bc9b5bcef82fa,2022-07-06_09h33.28.558,Colour_Asymmetry_Pilot,2022.1.3,Win32,60.09976561,62c50e9c1127f2cd403a315f,,,,,,,,,,,,,,,,,,,,,,,,,,,,,,,,,,,,,,,,,,,,,,,,,,,,,,,,,,,,,,,,,,,,,,,,,,,,,,,,,,,,,,,,,,,,,,,,,,,,,,,,,,,,,,,,,,,,,,,,,,,,,,,,,,,,,,,,,,,,,,,,,,,,,,,,,,,,,,,,,,,
0,31,31,92,1,,61516c7d3c833383901cdb54,62c53aa0aa2bc9b5bcef82fa,2022-07-06_09h33.28.558,Colour_Asymmetry_Pilot,2022.1.3,Win32,60.09976561,62c50e9c1127f2cd403a315f,,,,,,,,,,,,,,,,,,,,,,,,,,,,,,,,,,,,,,,,,,,,,,,,,,,,,,,,,,,,,,,,,,,,,,,,,,,,,,,,,,,,,,,,,,,,,,,,,,,,,,,,,,,,,,,,,,,,,,,,,,,,,,,,,,,,,,,,,,,,,,,,,,,,,,,,,,,,,,,,,,,
0,32,32,18,1,,61516c7d3c833383901cdb54,62c53aa0aa2bc9b5bcef82fa,2022-07-06_09h33.28.558,Colour_Asymmetry_Pilot,2022.1.3,Win32,60.09976561,62c50e9c1127f2cd403a315f,,,,,,,,,,,,,,,,,,,,,,,,,,,,,,,,,,,,,,,,,,,,,,,,,,,,,,,,,,,,,,,,,,,,,,,,,,,,,,,,,,,,,,,,,,,,,,,,,,,,,,,,,,,,,,,,,,,,,,,,,,,,,,,,,,,,,,,,,,,,,,,,,,,,,,,,,,,,,,,,,,,
0,33,33,34,1,,61516c7d3c833383901cdb54,62c53aa0aa2bc9b5bcef82fa,2022-07-06_09h33.28.558,Colour_Asymmetry_Pilot,2022.1.3,Win32,60.09976561,62c50e9c1127f2cd403a315f,,,,,,,,,,,,,,,,,,,,,,,,,,,,,,,,,,,,,,,,,,,,,,,,,,,,,,,,,,,,,,,,,,,,,,,,,,,,,,,,,,,,,,,,,,,,,,,,,,,,,,,,,,,,,,,,,,,,,,,,,,,,,,,,,,,,,,,,,,,,,,,,,,,,,,,,,,,,,,,,,,,
0,34,34,85,1,,61516c7d3c833383901cdb54,62c53aa0aa2bc9b5bcef82fa,2022-07-06_09h33.28.558,Colour_Asymmetry_Pilot,2022.1.3,Win32,60.09976561,62c50e9c1127f2cd403a315f,,,,,,,,,,,,,,,,,,,,,,,,,,,,,,,,,,,,,,,,,,,,,,,,,,,,,,,,,,,,,,,,,,,,,,,,,,,,,,,,,,,,,,,,,,,,,,,,,,,,,,,,,,,,,,,,,,,,,,,,,,,,,,,,,,,,,,,,,,,,,,,,,,,,,,,,,,,,,,,,,,,
0,35,35,49,1,,61516c7d3c833383901cdb54,62c53aa0aa2bc9b5bcef82fa,2022-07-06_09h33.28.558,Colour_Asymmetry_Pilot,2022.1.3,Win32,60.09976561,62c50e9c1127f2cd403a315f,,,,,,,,,,,,,,,,,,,,,,,,,,,,,,,,,,,,,,,,,,,,,,,,,,,,,,,,,,,,,,,,,,,,,,,,,,,,,,,,,,,,,,,,,,,,,,,,,,,,,,,,,,,,,,,,,,,,,,,,,,,,,,,,,,,,,,,,,,,,,,,,,,,,,,,,,,,,,,,,,,,
0,36,36,71,1,,61516c7d3c833383901cdb54,62c53aa0aa2bc9b5bcef82fa,2022-07-06_09h33.28.558,Colour_Asymmetry_Pilot,2022.1.3,Win32,60.09976561,62c50e9c1127f2cd403a315f,,,,,,,,,,,,,,,,,,,,,,,,,,,,,,,,,,,,,,,,,,,,,,,,,,,,,,,,,,,,,,,,,,,,,,,,,,,,,,,,,,,,,,,,,,,,,,,,,,,,,,,,,,,,,,,,,,,,,,,,,,,,,,,,,,,,,,,,,,,,,,,,,,,,,,,,,,,,,,,,,,,
0,37,37,4,1,,61516c7d3c833383901cdb54,62c53aa0aa2bc9b5bcef82fa,2022-07-06_09h33.28.558,Colour_Asymmetry_Pilot,2022.1.3,Win32,60.09976561,62c50e9c1127f2cd403a315f,,,,,,,,,,,,,,,,,,,,,,,,,,,,,,,,,,,,,,,,,,,,,,,,,,,,,,,,,,,,,,,,,,,,,,,,,,,,,,,,,,,,,,,,,,,,,,,,,,,,,,,,,,,,,,,,,,,,,,,,,,,,,,,,,,,,,,,,,,,,,,,,,,,,,,,,,,,,,,,,,,,
0,38,38,91,1,,61516c7d3c833383901cdb54,62c53aa0aa2bc9b5bcef82fa,2022-07-06_09h33.28.558,Colour_Asymmetry_Pilot,2022.1.3,Win32,60.09976561,62c50e9c1127f2cd403a315f,,,,,,,,,,,,,,,,,,,,,,,,,,,,,,,,,,,,,,,,,,,,,,,,,,,,,,,,,,,,,,,,,,,,,,,,,,,,,,,,,,,,,,,,,,,,,,,,,,,,,,,,,,,,,,,,,,,,,,,,,,,,,,,,,,,,,,,,,,,,,,,,,,,,,,,,,,,,,,,,,,,
0,39,39,2,1,,61516c7d3c833383901cdb54,62c53aa0aa2bc9b5bcef82fa,2022-07-06_09h33.28.558,Colour_Asymmetry_Pilot,2022.1.3,Win32,60.09976561,62c50e9c1127f2cd403a315f,,,,,,,,,,,,,,,,,,,,,,,,,,,,,,,,,,,,,,,,,,,,,,,,,,,,,,,,,,,,,,,,,,,,,,,,,,,,,,,,,,,,,,,,,,,,,,,,,,,,,,,,,,,,,,,,,,,,,,,,,,,,,,,,,,,,,,,,,,,,,,,,,,,,,,,,,,,,,,,,,,,
0,40,40,27,1,,61516c7d3c833383901cdb54,62c53aa0aa2bc9b5bcef82fa,2022-07-06_09h33.28.558,Colour_Asymmetry_Pilot,2022.1.3,Win32,60.09976561,62c50e9c1127f2cd403a315f,,,,,,,,,,,,,,,,,,,,,,,,,,,,,,,,,,,,,,,,,,,,,,,,,,,,,,,,,,,,,,,,,,,,,,,,,,,,,,,,,,,,,,,,,,,,,,,,,,,,,,,,,,,,,,,,,,,,,,,,,,,,,,,,,,,,,,,,,,,,,,,,,,,,,,,,,,,,,,,,,,,
0,41,41,16,1,,61516c7d3c833383901cdb54,62c53aa0aa2bc9b5bcef82fa,2022-07-06_09h33.28.558,Colour_Asymmetry_Pilot,2022.1.3,Win32,60.09976561,62c50e9c1127f2cd403a315f,,,,,,,,,,,,,,,,,,,,,,,,,,,,,,,,,,,,,,,,,,,,,,,,,,,,,,,,,,,,,,,,,,,,,,,,,,,,,,,,,,,,,,,,,,,,,,,,,,,,,,,,,,,,,,,,,,,,,,,,,,,,,,,,,,,,,,,,,,,,,,,,,,,,,,,,,,,,,,,,,,,
0,42,42,43,1,,61516c7d3c833383901cdb54,62c53aa0aa2bc9b5bcef82fa,2022-07-06_09h33.28.558,Colour_Asymmetry_Pilot,2022.1.3,Win32,60.09976561,62c50e9c1127f2cd403a315f,,,,,,,,,,,,,,,,,,,,,,,,,,,,,,,,,,,,,,,,,,,,,,,,,,,,,,,,,,,,,,,,,,,,,,,,,,,,,,,,,,,,,,,,,,,,,,,,,,,,,,,,,,,,,,,,,,,,,,,,,,,,,,,,,,,,,,,,,,,,,,,,,,,,,,,,,,,,,,,,,,,
0,43,43,8,1,,61516c7d3c833383901cdb54,62c53aa0aa2bc9b5bcef82fa,2022-07-06_09h33.28.558,Colour_Asymmetry_Pilot,2022.1.3,Win32,60.09976561,62c50e9c1127f2cd403a315f,,,,,,,,,,,,,,,,,,,,,,,,,,,,,,,,,,,,,,,,,,,,,,,,,,,,,,,,,,,,,,,,,,,,,,,,,,,,,,,,,,,,,,,,,,,,,,,,,,,,,,,,,,,,,,,,,,,,,,,,,,,,,,,,,,,,,,,,,,,,,,,,,,,,,,,,,,,,,,,,,,,
0,44,44,35,1,,61516c7d3c833383901cdb54,62c53aa0aa2bc9b5bcef82fa,2022-07-06_09h33.28.558,Colour_Asymmetry_Pilot,2022.1.3,Win32,60.09976561,62c50e9c1127f2cd403a315f,,,,,,,,,,,,,,,,,,,,,,,,,,,,,,,,,,,,,,,,,,,,,,,,,,,,,,,,,,,,,,,,,,,,,,,,,,,,,,,,,,,,,,,,,,,,,,,,,,,,,,,,,,,,,,,,,,,,,,,,,,,,,,,,,,,,,,,,,,,,,,,,,,,,,,,,,,,,,,,,,,,
0,45,45,50,1,,61516c7d3c833383901cdb54,62c53aa0aa2bc9b5bcef82fa,2022-07-06_09h33.28.558,Colour_Asymmetry_Pilot,2022.1.3,Win32,60.09976561,62c50e9c1127f2cd403a315f,,,,,,,,,,,,,,,,,,,,,,,,,,,,,,,,,,,,,,,,,,,,,,,,,,,,,,,,,,,,,,,,,,,,,,,,,,,,,,,,,,,,,,,,,,,,,,,,,,,,,,,,,,,,,,,,,,,,,,,,,,,,,,,,,,,,,,,,,,,,,,,,,,,,,,,,,,,,,,,,,,,
0,46,46,9,1,,61516c7d3c833383901cdb54,62c53aa0aa2bc9b5bcef82fa,2022-07-06_09h33.28.558,Colour_Asymmetry_Pilot,2022.1.3,Win32,60.09976561,62c50e9c1127f2cd403a315f,,,,,,,,,,,,,,,,,,,,,,,,,,,,,,,,,,,,,,,,,,,,,,,,,,,,,,,,,,,,,,,,,,,,,,,,,,,,,,,,,,,,,,,,,,,,,,,,,,,,,,,,,,,,,,,,,,,,,,,,,,,,,,,,,,,,,,,,,,,,,,,,,,,,,,,,,,,,,,,,,,,
0,47,47,37,1,,61516c7d3c833383901cdb54,62c53aa0aa2bc9b5bcef82fa,2022-07-06_09h33.28.558,Colour_Asymmetry_Pilot,2022.1.3,Win32,60.09976561,62c50e9c1127f2cd403a315f,,,,,,,,,,,,,,,,,,,,,,,,,,,,,,,,,,,,,,,,,,,,,,,,,,,,,,,,,,,,,,,,,,,,,,,,,,,,,,,,,,,,,,,,,,,,,,,,,,,,,,,,,,,,,,,,,,,,,,,,,,,,,,,,,,,,,,,,,,,,,,,,,,,,,,,,,,,,,,,,,,,
0,48,48,70,1,,61516c7d3c833383901cdb54,62c53aa0aa2bc9b5bcef82fa,2022-07-06_09h33.28.558,Colour_Asymmetry_Pilot,2022.1.3,Win32,60.09976561,62c50e9c1127f2cd403a315f,,,,,,,,,,,,,,,,,,,,,,,,,,,,,,,,,,,,,,,,,,,,,,,,,,,,,,,,,,,,,,,,,,,,,,,,,,,,,,,,,,,,,,,,,,,,,,,,,,,,,,,,,,,,,,,,,,,,,,,,,,,,,,,,,,,,,,,,,,,,,,,,,,,,,,,,,,,,,,,,,,,
0,49,49,65,1,,61516c7d3c833383901cdb54,62c53aa0aa2bc9b5bcef82fa,2022-07-06_09h33.28.558,Colour_Asymmetry_Pilot,2022.1.3,Win32,60.09976561,62c50e9c1127f2cd403a315f,,,,,,,,,,,,,,,,,,,,,,,,,,,,,,,,,,,,,,,,,,,,,,,,,,,,,,,,,,,,,,,,,,,,,,,,,,,,,,,,,,,,,,,,,,,,,,,,,,,,,,,,,,,,,,,,,,,,,,,,,,,,,,,,,,,,,,,,,,,,,,,,,,,,,,,,,,,,,,,,,,,
0,50,50,39,1,,61516c7d3c833383901cdb54,62c53aa0aa2bc9b5bcef82fa,2022-07-06_09h33.28.558,Colour_Asymmetry_Pilot,2022.1.3,Win32,60.09976561,62c50e9c1127f2cd403a315f,,,,,,,,,,,,,,,,,,,,,,,,,,,,,,,,,,,,,,,,,,,,,,,,,,,,,,,,,,,,,,,,,,,,,,,,,,,,,,,,,,,,,,,,,,,,,,,,,,,,,,,,,,,,,,,,,,,,,,,,,,,,,,,,,,,,,,,,,,,,,,,,,,,,,,,,,,,,,,,,,,,
0,51,51,13,1,,61516c7d3c833383901cdb54,62c53aa0aa2bc9b5bcef82fa,2022-07-06_09h33.28.558,Colour_Asymmetry_Pilot,2022.1.3,Win32,60.09976561,62c50e9c1127f2cd403a315f,,,,,,,,,,,,,,,,,,,,,,,,,,,,,,,,,,,,,,,,,,,,,,,,,,,,,,,,,,,,,,,,,,,,,,,,,,,,,,,,,,,,,,,,,,,,,,,,,,,,,,,,,,,,,,,,,,,,,,,,,,,,,,,,,,,,,,,,,,,,,,,,,,,,,,,,,,,,,,,,,,,
0,52,52,31,1,,61516c7d3c833383901cdb54,62c53aa0aa2bc9b5bcef82fa,2022-07-06_09h33.28.558,Colour_Asymmetry_Pilot,2022.1.3,Win32,60.09976561,62c50e9c1127f2cd403a315f,,,,,,,,,,,,,,,,,,,,,,,,,,,,,,,,,,,,,,,,,,,,,,,,,,,,,,,,,,,,,,,,,,,,,,,,,,,,,,,,,,,,,,,,,,,,,,,,,,,,,,,,,,,,,,,,,,,,,,,,,,,,,,,,,,,,,,,,,,,,,,,,,,,,,,,,,,,,,,,,,,,
0,53,53,77,1,,61516c7d3c833383901cdb54,62c53aa0aa2bc9b5bcef82fa,2022-07-06_09h33.28.558,Colour_Asymmetry_Pilot,2022.1.3,Win32,60.09976561,62c50e9c1127f2cd403a315f,,,,,,,,,,,,,,,,,,,,,,,,,,,,,,,,,,,,,,,,,,,,,,,,,,,,,,,,,,,,,,,,,,,,,,,,,,,,,,,,,,,,,,,,,,,,,,,,,,,,,,,,,,,,,,,,,,,,,,,,,,,,,,,,,,,,,,,,,,,,,,,,,,,,,,,,,,,,,,,,,,,
0,54,54,30,1,,61516c7d3c833383901cdb54,62c53aa0aa2bc9b5bcef82fa,2022-07-06_09h33.28.558,Colour_Asymmetry_Pilot,2022.1.3,Win32,60.09976561,62c50e9c1127f2cd403a315f,,,,,,,,,,,,,,,,,,,,,,,,,,,,,,,,,,,,,,,,,,,,,,,,,,,,,,,,,,,,,,,,,,,,,,,,,,,,,,,,,,,,,,,,,,,,,,,,,,,,,,,,,,,,,,,,,,,,,,,,,,,,,,,,,,,,,,,,,,,,,,,,,,,,,,,,,,,,,,,,,,,
0,55,55,68,1,,61516c7d3c833383901cdb54,62c53aa0aa2bc9b5bcef82fa,2022-07-06_09h33.28.558,Colour_Asymmetry_Pilot,2022.1.3,Win32,60.09976561,62c50e9c1127f2cd403a315f,,,,,,,,,,,,,,,,,,,,,,,,,,,,,,,,,,,,,,,,,,,,,,,,,,,,,,,,,,,,,,,,,,,,,,,,,,,,,,,,,,,,,,,,,,,,,,,,,,,,,,,,,,,,,,,,,,,,,,,,,,,,,,,,,,,,,,,,,,,,,,,,,,,,,,,,,,,,,,,,,,,
0,56,56,19,1,,61516c7d3c833383901cdb54,62c53aa0aa2bc9b5bcef82fa,2022-07-06_09h33.28.558,Colour_Asymmetry_Pilot,2022.1.3,Win32,60.09976561,62c50e9c1127f2cd403a315f,,,,,,,,,,,,,,,,,,,,,,,,,,,,,,,,,,,,,,,,,,,,,,,,,,,,,,,,,,,,,,,,,,,,,,,,,,,,,,,,,,,,,,,,,,,,,,,,,,,,,,,,,,,,,,,,,,,,,,,,,,,,,,,,,,,,,,,,,,,,,,,,,,,,,,,,,,,,,,,,,,,
0,57,57,73,1,,61516c7d3c833383901cdb54,62c53aa0aa2bc9b5bcef82fa,2022-07-06_09h33.28.558,Colour_Asymmetry_Pilot,2022.1.3,Win32,60.09976561,62c50e9c1127f2cd403a315f,,,,,,,,,,,,,,,,,,,,,,,,,,,,,,,,,,,,,,,,,,,,,,,,,,,,,,,,,,,,,,,,,,,,,,,,,,,,,,,,,,,,,,,,,,,,,,,,,,,,,,,,,,,,,,,,,,,,,,,,,,,,,,,,,,,,,,,,,,,,,,,,,,,,,,,,,,,,,,,,,,,
0,58,58,6,1,,61516c7d3c833383901cdb54,62c53aa0aa2bc9b5bcef82fa,2022-07-06_09h33.28.558,Colour_Asymmetry_Pilot,2022.1.3,Win32,60.09976561,62c50e9c1127f2cd403a315f,,,,,,,,,,,,,,,,,,,,,,,,,,,,,,,,,,,,,,,,,,,,,,,,,,,,,,,,,,,,,,,,,,,,,,,,,,,,,,,,,,,,,,,,,,,,,,,,,,,,,,,,,,,,,,,,,,,,,,,,,,,,,,,,,,,,,,,,,,,,,,,,,,,,,,,,,,,,,,,,,,,
0,59,59,22,1,,61516c7d3c833383901cdb54,62c53aa0aa2bc9b5bcef82fa,2022-07-06_09h33.28.558,Colour_Asymmetry_Pilot,2022.1.3,Win32,60.09976561,62c50e9c1127f2cd403a315f,,,,,,,,,,,,,,,,,,,,,,,,,,,,,,,,,,,,,,,,,,,,,,,,,,,,,,,,,,,,,,,,,,,,,,,,,,,,,,,,,,,,,,,,,,,,,,,,,,,,,,,,,,,,,,,,,,,,,,,,,,,,,,,,,,,,,,,,,,,,,,,,,,,,,,,,,,,,,,,,,,,
0,60,60,59,1,,61516c7d3c833383901cdb54,62c53aa0aa2bc9b5bcef82fa,2022-07-06_09h33.28.558,Colour_Asymmetry_Pilot,2022.1.3,Win32,60.09976561,62c50e9c1127f2cd403a315f,,,,,,,,,,,,,,,,,,,,,,,,,,,,,,,,,,,,,,,,,,,,,,,,,,,,,,,,,,,,,,,,,,,,,,,,,,,,,,,,,,,,,,,,,,,,,,,,,,,,,,,,,,,,,,,,,,,,,,,,,,,,,,,,,,,,,,,,,,,,,,,,,,,,,,,,,,,,,,,,,,,
0,61,61,80,1,,61516c7d3c833383901cdb54,62c53aa0aa2bc9b5bcef82fa,2022-07-06_09h33.28.558,Colour_Asymmetry_Pilot,2022.1.3,Win32,60.09976561,62c50e9c1127f2cd403a315f,,,,,,,,,,,,,,,,,,,,,,,,,,,,,,,,,,,,,,,,,,,,,,,,,,,,,,,,,,,,,,,,,,,,,,,,,,,,,,,,,,,,,,,,,,,,,,,,,,,,,,,,,,,,,,,,,,,,,,,,,,,,,,,,,,,,,,,,,,,,,,,,,,,,,,,,,,,,,,,,,,,
0,62,62,62,1,,61516c7d3c833383901cdb54,62c53aa0aa2bc9b5bcef82fa,2022-07-06_09h33.28.558,Colour_Asymmetry_Pilot,2022.1.3,Win32,60.09976561,62c50e9c1127f2cd403a315f,,,,,,,,,,,,,,,,,,,,,,,,,,,,,,,,,,,,,,,,,,,,,,,,,,,,,,,,,,,,,,,,,,,,,,,,,,,,,,,,,,,,,,,,,,,,,,,,,,,,,,,,,,,,,,,,,,,,,,,,,,,,,,,,,,,,,,,,,,,,,,,,,,,,,,,,,,,,,,,,,,,
0,63,63,23,1,,61516c7d3c833383901cdb54,62c53aa0aa2bc9b5bcef82fa,2022-07-06_09h33.28.558,Colour_Asymmetry_Pilot,2022.1.3,Win32,60.09976561,62c50e9c1127f2cd403a315f,,,,,,,,,,,,,,,,,,,,,,,,,,,,,,,,,,,,,,,,,,,,,,,,,,,,,,,,,,,,,,,,,,,,,,,,,,,,,,,,,,,,,,,,,,,,,,,,,,,,,,,,,,,,,,,,,,,,,,,,,,,,,,,,,,,,,,,,,,,,,,,,,,,,,,,,,,,,,,,,,,,
0,64,64,69,1,,61516c7d3c833383901cdb54,62c53aa0aa2bc9b5bcef82fa,2022-07-06_09h33.28.558,Colour_Asymmetry_Pilot,2022.1.3,Win32,60.09976561,62c50e9c1127f2cd403a315f,,,,,,,,,,,,,,,,,,,,,,,,,,,,,,,,,,,,,,,,,,,,,,,,,,,,,,,,,,,,,,,,,,,,,,,,,,,,,,,,,,,,,,,,,,,,,,,,,,,,,,,,,,,,,,,,,,,,,,,,,,,,,,,,,,,,,,,,,,,,,,,,,,,,,,,,,,,,,,,,,,,
0,65,65,10,1,,61516c7d3c833383901cdb54,62c53aa0aa2bc9b5bcef82fa,2022-07-06_09h33.28.558,Colour_Asymmetry_Pilot,2022.1.3,Win32,60.09976561,62c50e9c1127f2cd403a315f,,,,,,,,,,,,,,,,,,,,,,,,,,,,,,,,,,,,,,,,,,,,,,,,,,,,,,,,,,,,,,,,,,,,,,,,,,,,,,,,,,,,,,,,,,,,,,,,,,,,,,,,,,,,,,,,,,,,,,,,,,,,,,,,,,,,,,,,,,,,,,,,,,,,,,,,,,,,,,,,,,,
0,66,66,86,1,,61516c7d3c833383901cdb54,62c53aa0aa2bc9b5bcef82fa,2022-07-06_09h33.28.558,Colour_Asymmetry_Pilot,2022.1.3,Win32,60.09976561,62c50e9c1127f2cd403a315f,,,,,,,,,,,,,,,,,,,,,,,,,,,,,,,,,,,,,,,,,,,,,,,,,,,,,,,,,,,,,,,,,,,,,,,,,,,,,,,,,,,,,,,,,,,,,,,,,,,,,,,,,,,,,,,,,,,,,,,,,,,,,,,,,,,,,,,,,,,,,,,,,,,,,,,,,,,,,,,,,,,
0,67,67,90,1,,61516c7d3c833383901cdb54,62c53aa0aa2bc9b5bcef82fa,2022-07-06_09h33.28.558,Colour_Asymmetry_Pilot,2022.1.3,Win32,60.09976561,62c50e9c1127f2cd403a315f,,,,,,,,,,,,,,,,,,,,,,,,,,,,,,,,,,,,,,,,,,,,,,,,,,,,,,,,,,,,,,,,,,,,,,,,,,,,,,,,,,,,,,,,,,,,,,,,,,,,,,,,,,,,,,,,,,,,,,,,,,,,,,,,,,,,,,,,,,,,,,,,,,,,,,,,,,,,,,,,,,,
0,68,68,89,1,,61516c7d3c833383901cdb54,62c53aa0aa2bc9b5bcef82fa,2022-07-06_09h33.28.558,Colour_Asymmetry_Pilot,2022.1.3,Win32,60.09976561,62c50e9c1127f2cd403a315f,,,,,,,,,,,,,,,,,,,,,,,,,,,,,,,,,,,,,,,,,,,,,,,,,,,,,,,,,,,,,,,,,,,,,,,,,,,,,,,,,,,,,,,,,,,,,,,,,,,,,,,,,,,,,,,,,,,,,,,,,,,,,,,,,,,,,,,,,,,,,,,,,,,,,,,,,,,,,,,,,,,
0,69,69,5,1,,61516c7d3c833383901cdb54,62c53aa0aa2bc9b5bcef82fa,2022-07-06_09h33.28.558,Colour_Asymmetry_Pilot,2022.1.3,Win32,60.09976561,62c50e9c1127f2cd403a315f,,,,,,,,,,,,,,,,,,,,,,,,,,,,,,,,,,,,,,,,,,,,,,,,,,,,,,,,,,,,,,,,,,,,,,,,,,,,,,,,,,,,,,,,,,,,,,,,,,,,,,,,,,,,,,,,,,,,,,,,,,,,,,,,,,,,,,,,,,,,,,,,,,,,,,,,,,,,,,,,,,,
0,70,70,84,1,,61516c7d3c833383901cdb54,62c53aa0aa2bc9b5bcef82fa,2022-07-06_09h33.28.558,Colour_Asymmetry_Pilot,2022.1.3,Win32,60.09976561,62c50e9c1127f2cd403a315f,,,,,,,,,,,,,,,,,,,,,,,,,,,,,,,,,,,,,,,,,,,,,,,,,,,,,,,,,,,,,,,,,,,,,,,,,,,,,,,,,,,,,,,,,,,,,,,,,,,,,,,,,,,,,,,,,,,,,,,,,,,,,,,,,,,,,,,,,,,,,,,,,,,,,,,,,,,,,,,,,,,
0,71,71,81,1,,61516c7d3c833383901cdb54,62c53aa0aa2bc9b5bcef82fa,2022-07-06_09h33.28.558,Colour_Asymmetry_Pilot,2022.1.3,Win32,60.09976561,62c50e9c1127f2cd403a315f,,,,,,,,,,,,,,,,,,,,,,,,,,,,,,,,,,,,,,,,,,,,,,,,,,,,,,,,,,,,,,,,,,,,,,,,,,,,,,,,,,,,,,,,,,,,,,,,,,,,,,,,,,,,,,,,,,,,,,,,,,,,,,,,,,,,,,,,,,,,,,,,,,,,,,,,,,,,,,,,,,,
0,72,72,24,1,,61516c7d3c833383901cdb54,62c53aa0aa2bc9b5bcef82fa,2022-07-06_09h33.28.558,Colour_Asymmetry_Pilot,2022.1.3,Win32,60.09976561,62c50e9c1127f2cd403a315f,,,,,,,,,,,,,,,,,,,,,,,,,,,,,,,,,,,,,,,,,,,,,,,,,,,,,,,,,,,,,,,,,,,,,,,,,,,,,,,,,,,,,,,,,,,,,,,,,,,,,,,,,,,,,,,,,,,,,,,,,,,,,,,,,,,,,,,,,,,,,,,,,,,,,,,,,,,,,,,,,,,
0,73,73,32,1,,61516c7d3c833383901cdb54,62c53aa0aa2bc9b5bcef82fa,2022-07-06_09h33.28.558,Colour_Asymmetry_Pilot,2022.1.3,Win32,60.09976561,62c50e9c1127f2cd403a315f,,,,,,,,,,,,,,,,,,,,,,,,,,,,,,,,,,,,,,,,,,,,,,,,,,,,,,,,,,,,,,,,,,,,,,,,,,,,,,,,,,,,,,,,,,,,,,,,,,,,,,,,,,,,,,,,,,,,,,,,,,,,,,,,,,,,,,,,,,,,,,,,,,,,,,,,,,,,,,,,,,,
0,74,74,7,1,,61516c7d3c833383901cdb54,62c53aa0aa2bc9b5bcef82fa,2022-07-06_09h33.28.558,Colour_Asymmetry_Pilot,2022.1.3,Win32,60.09976561,62c50e9c1127f2cd403a315f,,,,,,,,,,,,,,,,,,,,,,,,,,,,,,,,,,,,,,,,,,,,,,,,,,,,,,,,,,,,,,,,,,,,,,,,,,,,,,,,,,,,,,,,,,,,,,,,,,,,,,,,,,,,,,,,,,,,,,,,,,,,,,,,,,,,,,,,,,,,,,,,,,,,,,,,,,,,,,,,,,,
0,75,75,64,1,,61516c7d3c833383901cdb54,62c53aa0aa2bc9b5bcef82fa,2022-07-06_09h33.28.558,Colour_Asymmetry_Pilot,2022.1.3,Win32,60.09976561,62c50e9c1127f2cd403a315f,,,,,,,,,,,,,,,,,,,,,,,,,,,,,,,,,,,,,,,,,,,,,,,,,,,,,,,,,,,,,,,,,,,,,,,,,,,,,,,,,,,,,,,,,,,,,,,,,,,,,,,,,,,,,,,,,,,,,,,,,,,,,,,,,,,,,,,,,,,,,,,,,,,,,,,,,,,,,,,,,,,
0,76,76,87,1,,61516c7d3c833383901cdb54,62c53aa0aa2bc9b5bcef82fa,2022-07-06_09h33.28.558,Colour_Asymmetry_Pilot,2022.1.3,Win32,60.09976561,62c50e9c1127f2cd403a315f,,,,,,,,,,,,,,,,,,,,,,,,,,,,,,,,,,,,,,,,,,,,,,,,,,,,,,,,,,,,,,,,,,,,,,,,,,,,,,,,,,,,,,,,,,,,,,,,,,,,,,,,,,,,,,,,,,,,,,,,,,,,,,,,,,,,,,,,,,,,,,,,,,,,,,,,,,,,,,,,,,,
0,77,77,63,1,,61516c7d3c833383901cdb54,62c53aa0aa2bc9b5bcef82fa,2022-07-06_09h33.28.558,Colour_Asymmetry_Pilot,2022.1.3,Win32,60.09976561,62c50e9c1127f2cd403a315f,,,,,,,,,,,,,,,,,,,,,,,,,,,,,,,,,,,,,,,,,,,,,,,,,,,,,,,,,,,,,,,,,,,,,,,,,,,,,,,,,,,,,,,,,,,,,,,,,,,,,,,,,,,,,,,,,,,,,,,,,,,,,,,,,,,,,,,,,,,,,,,,,,,,,,,,,,,,,,,,,,,
0,78,78,61,1,,61516c7d3c833383901cdb54,62c53aa0aa2bc9b5bcef82fa,2022-07-06_09h33.28.558,Colour_Asymmetry_Pilot,2022.1.3,Win32,60.09976561,62c50e9c1127f2cd403a315f,,,,,,,,,,,,,,,,,,,,,,,,,,,,,,,,,,,,,,,,,,,,,,,,,,,,,,,,,,,,,,,,,,,,,,,,,,,,,,,,,,,,,,,,,,,,,,,,,,,,,,,,,,,,,,,,,,,,,,,,,,,,,,,,,,,,,,,,,,,,,,,,,,,,,,,,,,,,,,,,,,,
0,79,79,48,1,,61516c7d3c833383901cdb54,62c53aa0aa2bc9b5bcef82fa,2022-07-06_09h33.28.558,Colour_Asymmetry_Pilot,2022.1.3,Win32,60.09976561,62c50e9c1127f2cd403a315f,,,,,,,,,,,,,,,,,,,,,,,,,,,,,,,,,,,,,,,,,,,,,,,,,,,,,,,,,,,,,,,,,,,,,,,,,,,,,,,,,,,,,,,,,,,,,,,,,,,,,,,,,,,,,,,,,,,,,,,,,,,,,,,,,,,,,,,,,,,,,,,,,,,,,,,,,,,,,,,,,,,
0,80,80,66,1,,61516c7d3c833383901cdb54,62c53aa0aa2bc9b5bcef82fa,2022-07-06_09h33.28.558,Colour_Asymmetry_Pilot,2022.1.3,Win32,60.09976561,62c50e9c1127f2cd403a315f,,,,,,,,,,,,,,,,,,,,,,,,,,,,,,,,,,,,,,,,,,,,,,,,,,,,,,,,,,,,,,,,,,,,,,,,,,,,,,,,,,,,,,,,,,,,,,,,,,,,,,,,,,,,,,,,,,,,,,,,,,,,,,,,,,,,,,,,,,,,,,,,,,,,,,,,,,,,,,,,,,,
0,81,81,11,1,,61516c7d3c833383901cdb54,62c53aa0aa2bc9b5bcef82fa,2022-07-06_09h33.28.558,Colour_Asymmetry_Pilot,2022.1.3,Win32,60.09976561,62c50e9c1127f2cd403a315f,,,,,,,,,,,,,,,,,,,,,,,,,,,,,,,,,,,,,,,,,,,,,,,,,,,,,,,,,,,,,,,,,,,,,,,,,,,,,,,,,,,,,,,,,,,,,,,,,,,,,,,,,,,,,,,,,,,,,,,,,,,,,,,,,,,,,,,,,,,,,,,,,,,,,,,,,,,,,,,,,,,
0,82,82,52,1,,61516c7d3c833383901cdb54,62c53aa0aa2bc9b5bcef82fa,2022-07-06_09h33.28.558,Colour_Asymmetry_Pilot,2022.1.3,Win32,60.09976561,62c50e9c1127f2cd403a315f,,,,,,,,,,,,,,,,,,,,,,,,,,,,,,,,,,,,,,,,,,,,,,,,,,,,,,,,,,,,,,,,,,,,,,,,,,,,,,,,,,,,,,,,,,,,,,,,,,,,,,,,,,,,,,,,,,,,,,,,,,,,,,,,,,,,,,,,,,,,,,,,,,,,,,,,,,,,,,,,,,,
0,83,83,36,1,,61516c7d3c833383901cdb54,62c53aa0aa2bc9b5bcef82fa,2022-07-06_09h33.28.558,Colour_Asymmetry_Pilot,2022.1.3,Win32,60.09976561,62c50e9c1127f2cd403a315f,,,,,,,,,,,,,,,,,,,,,,,,,,,,,,,,,,,,,,,,,,,,,,,,,,,,,,,,,,,,,,,,,,,,,,,,,,,,,,,,,,,,,,,,,,,,,,,,,,,,,,,,,,,,,,,,,,,,,,,,,,,,,,,,,,,,,,,,,,,,,,,,,,,,,,,,,,,,,,,,,,,
0,84,84,44,1,,61516c7d3c833383901cdb54,62c53aa0aa2bc9b5bcef82fa,2022-07-06_09h33.28.558,Colour_Asymmetry_Pilot,2022.1.3,Win32,60.09976561,62c50e9c1127f2cd403a315f,,,,,,,,,,,,,,,,,,,,,,,,,,,,,,,,,,,,,,,,,,,,,,,,,,,,,,,,,,,,,,,,,,,,,,,,,,,,,,,,,,,,,,,,,,,,,,,,,,,,,,,,,,,,,,,,,,,,,,,,,,,,,,,,,,,,,,,,,,,,,,,,,,,,,,,,,,,,,,,,,,,
0,85,85,41,1,,61516c7d3c833383901cdb54,62c53aa0aa2bc9b5bcef82fa,2022-07-06_09h33.28.558,Colour_Asymmetry_Pilot,2022.1.3,Win32,60.09976561,62c50e9c1127f2cd403a315f,,,,,,,,,,,,,,,,,,,,,,,,,,,,,,,,,,,,,,,,,,,,,,,,,,,,,,,,,,,,,,,,,,,,,,,,,,,,,,,,,,,,,,,,,,,,,,,,,,,,,,,,,,,,,,,,,,,,,,,,,,,,,,,,,,,,,,,,,,,,,,,,,,,,,,,,,,,,,,,,,,,
0,86,86,56,1,,61516c7d3c833383901cdb54,62c53aa0aa2bc9b5bcef82fa,2022-07-06_09h33.28.558,Colour_Asymmetry_Pilot,2022.1.3,Win32,60.09976561,62c50e9c1127f2cd403a315f,,,,,,,,,,,,,,,,,,,,,,,,,,,,,,,,,,,,,,,,,,,,,,,,,,,,,,,,,,,,,,,,,,,,,,,,,,,,,,,,,,,,,,,,,,,,,,,,,,,,,,,,,,,,,,,,,,,,,,,,,,,,,,,,,,,,,,,,,,,,,,,,,,,,,,,,,,,,,,,,,,,
0,87,87,54,1,,61516c7d3c833383901cdb54,62c53aa0aa2bc9b5bcef82fa,2022-07-06_09h33.28.558,Colour_Asymmetry_Pilot,2022.1.3,Win32,60.09976561,62c50e9c1127f2cd403a315f,,,,,,,,,,,,,,,,,,,,,,,,,,,,,,,,,,,,,,,,,,,,,,,,,,,,,,,,,,,,,,,,,,,,,,,,,,,,,,,,,,,,,,,,,,,,,,,,,,,,,,,,,,,,,,,,,,,,,,,,,,,,,,,,,,,,,,,,,,,,,,,,,,,,,,,,,,,,,,,,,,,
0,88,88,72,1,,61516c7d3c833383901cdb54,62c53aa0aa2bc9b5bcef82fa,2022-07-06_09h33.28.558,Colour_Asymmetry_Pilot,2022.1.3,Win32,60.09976561,62c50e9c1127f2cd403a315f,,,,,,,,,,,,,,,,,,,,,,,,,,,,,,,,,,,,,,,,,,,,,,,,,,,,,,,,,,,,,,,,,,,,,,,,,,,,,,,,,,,,,,,,,,,,,,,,,,,,,,,,,,,,,,,,,,,,,,,,,,,,,,,,,,,,,,,,,,,,,,,,,,,,,,,,,,,,,,,,,,,
0,89,89,21,1,,61516c7d3c833383901cdb54,62c53aa0aa2bc9b5bcef82fa,2022-07-06_09h33.28.558,Colour_Asymmetry_Pilot,2022.1.3,Win32,60.09976561,62c50e9c1127f2cd403a315f,,,,,,,,,,,,,,,,,,,,,,,,,,,,,,,,,,,,,,,,,,,,,,,,,,,,,,,,,,,,,,,,,,,,,,,,,,,,,,,,,,,,,,,,,,,,,,,,,,,,,,,,,,,,,,,,,,,,,,,,,,,,,,,,,,,,,,,,,,,,,,,,,,,,,,,,,,,,,,,,,,,
0,90,90,82,1,,61516c7d3c833383901cdb54,62c53aa0aa2bc9b5bcef82fa,2022-07-06_09h33.28.558,Colour_Asymmetry_Pilot,2022.1.3,Win32,60.09976561,62c50e9c1127f2cd403a315f,,,,,,,,,,,,,,,,,,,,,,,,,,,,,,,,,,,,,,,,,,,,,,,,,,,,,,,,,,,,,,,,,,,,,,,,,,,,,,,,,,,,,,,,,,,,,,,,,,,,,,,,,,,,,,,,,,,,,,,,,,,,,,,,,,,,,,,,,,,,,,,,,,,,,,,,,,,,,,,,,,,
0,91,91,12,1,,61516c7d3c833383901cdb54,62c53aa0aa2bc9b5bcef82fa,2022-07-06_09h33.28.558,Colour_Asymmetry_Pilot,2022.1.3,Win32,60.09976561,62c50e9c1127f2cd403a315f,,,,,,,,,,,,,,,,,,,,,,,,,,,,,,,,,,,,,,,,,,,,,,,,,,,,,,,,,,,,,,,,,,,,,,,,,,,,,,,,,,,,,,,,,,,,,,,,,,,,,,,,,,,,,,,,,,,,,,,,,,,,,,,,,,,,,,,,,,,,,,,,,,,,,,,,,,,,,,,,,,,
0,92,92,47,1,,61516c7d3c833383901cdb54,62c53aa0aa2bc9b5bcef82fa,2022-07-06_09h33.28.558,Colour_Asymmetry_Pilot,2022.1.3,Win32,60.09976561,62c50e9c1127f2cd403a315f,,,,,,,,,,,,,,,,,,,,,,,,,,,,,,,,,,,,,,,,,,,,,,,,,,,,,,,,,,,,,,,,,,,,,,,,,,,,,,,,,,,,,,,,,,,,,,,,,,,,,,,,,,,,,,,,,,,,,,,,,,,,,,,,,,,,,,,,,,,,,,,,,,,,,,,,,,,,,,,,,,,
,,,,,,61516c7d3c833383901cdb54,62c53aa0aa2bc9b5bcef82fa,2022-07-06_09h33.28.558,Colour_Asymmetry_Pilot,2022.1.3,Win32,60.09976561,62c50e9c1127f2cd403a315f,0,0,0,15,1,fourthree,,,,,,,,,,,,,,,,,,,,,,,,,,,,,,,,,,,,,,,,,,,,,,,,,,,,,,,,,,,,,,,,,,,,,,,,,,,,,,,,,,,,,,,,,,,,,,,,,,,,,,,,,,,,,,,,,,,,,,,,,,,,,,,,,,,,,,,,,,,,,,,,,,,,,,,,,,,,,
,,,,,,61516c7d3c833383901cdb54,62c53aa0aa2bc9b5bcef82fa,2022-07-06_09h33.28.558,Colour_Asymmetry_Pilot,2022.1.3,Win32,60.09976561,62c50e9c1127f2cd403a315f,0,1,1,152,1,onetwo,,,,,,,,,,,,,,,,,,,,,,,,,,,,,,,,,,,,,,,,,,,,,,,,,,,,,,,,,,,,,,,,,,,,,,,,,,,,,,,,,,,,,,,,,,,,,,,,,,,,,,,,,,,,,,,,,,,,,,,,,,,,,,,,,,,,,,,,,,,,,,,,,,,,,,,,,,,,,
,,,,,,61516c7d3c833383901cdb54,62c53aa0aa2bc9b5bcef82fa,2022-07-06_09h33.28.558,Colour_Asymmetry_Pilot,2022.1.3,Win32,60.09976561,62c50e9c1127f2cd403a315f,0,2,2,161,1,onethree,,,,,,,,,,,,,,,,,,,,,,,,,,,,,,,,,,,,,,,,,,,,,,,,,,,,,,,,,,,,,,,,,,,,,,,,,,,,,,,,,,,,,,,,,,,,,,,,,,,,,,,,,,,,,,,,,,,,,,,,,,,,,,,,,,,,,,,,,,,,,,,,,,,,,,,,,,,,,
,,,,,,61516c7d3c833383901cdb54,62c53aa0aa2bc9b5bcef82fa,2022-07-06_09h33.28.558,Colour_Asymmetry_Pilot,2022.1.3,Win32,60.09976561,62c50e9c1127f2cd403a315f,0,3,3,131,1,twofour,,,,,,,,,,,,,,,,,,,,,,,,,,,,,,,,,,,,,,,,,,,,,,,,,,,,,,,,,,,,,,,,,,,,,,,,,,,,,,,,,,,,,,,,,,,,,,,,,,,,,,,,,,,,,,,,,,,,,,,,,,,,,,,,,,,,,,,,,,,,,,,,,,,,,,,,,,,,,
,,,,,,61516c7d3c833383901cdb54,62c53aa0aa2bc9b5bcef82fa,2022-07-06_09h33.28.558,Colour_Asymmetry_Pilot,2022.1.3,Win32,60.09976561,62c50e9c1127f2cd403a315f,0,4,4,123,1,twofour,,,,,,,,,,,,,,,,,,,,,,,,,,,,,,,,,,,,,,,,,,,,,,,,,,,,,,,,,,,,,,,,,,,,,,,,,,,,,,,,,,,,,,,,,,,,,,,,,,,,,,,,,,,,,,,,,,,,,,,,,,,,,,,,,,,,,,,,,,,,,,,,,,,,,,,,,,,,,
,,,,,,61516c7d3c833383901cdb54,62c53aa0aa2bc9b5bcef82fa,2022-07-06_09h33.28.558,Colour_Asymmetry_Pilot,2022.1.3,Win32,60.09976561,62c50e9c1127f2cd403a315f,0,5,5,30,1,fourtwo,,,,,,,,,,,,,,,,,,,,,,,,,,,,,,,,,,,,,,,,,,,,,,,,,,,,,,,,,,,,,,,,,,,,,,,,,,,,,,,,,,,,,,,,,,,,,,,,,,,,,,,,,,,,,,,,,,,,,,,,,,,,,,,,,,,,,,,,,,,,,,,,,,,,,,,,,,,,,
,,,,,,61516c7d3c833383901cdb54,62c53aa0aa2bc9b5bcef82fa,2022-07-06_09h33.28.558,Colour_Asymmetry_Pilot,2022.1.3,Win32,60.09976561,62c50e9c1127f2cd403a315f,0,6,6,125,1,threefour,,,,,,,,,,,,,,,,,,,,,,,,,,,,,,,,,,,,,,,,,,,,,,,,,,,,,,,,,,,,,,,,,,,,,,,,,,,,,,,,,,,,,,,,,,,,,,,,,,,,,,,,,,,,,,,,,,,,,,,,,,,,,,,,,,,,,,,,,,,,,,,,,,,,,,,,,,,,,
,,,,,,61516c7d3c833383901cdb54,62c53aa0aa2bc9b5bcef82fa,2022-07-06_09h33.28.558,Colour_Asymmetry_Pilot,2022.1.3,Win32,60.09976561,62c50e9c1127f2cd403a315f,0,7,7,73,1,onethree,,,,,,,,,,,,,,,,,,,,,,,,,,,,,,,,,,,,,,,,,,,,,,,,,,,,,,,,,,,,,,,,,,,,,,,,,,,,,,,,,,,,,,,,,,,,,,,,,,,,,,,,,,,,,,,,,,,,,,,,,,,,,,,,,,,,,,,,,,,,,,,,,,,,,,,,,,,,,
,,,,,,61516c7d3c833383901cdb54,62c53aa0aa2bc9b5bcef82fa,2022-07-06_09h33.28.558,Colour_Asymmetry_Pilot,2022.1.3,Win32,60.09976561,62c50e9c1127f2cd403a315f,0,8,8,51,1,twofour,,,,,,,,,,,,,,,,,,,,,,,,,,,,,,,,,,,,,,,,,,,,,,,,,,,,,,,,,,,,,,,,,,,,,,,,,,,,,,,,,,,,,,,,,,,,,,,,,,,,,,,,,,,,,,,,,,,,,,,,,,,,,,,,,,,,,,,,,,,,,,,,,,,,,,,,,,,,,
,,,,,,61516c7d3c833383901cdb54,62c53aa0aa2bc9b5bcef82fa,2022-07-06_09h33.28.558,Colour_Asymmetry_Pilot,2022.1.3,Win32,60.09976561,62c50e9c1127f2cd403a315f,0,9,9,46,1,fourtwo,,,,,,,,,,,,,,,,,,,,,,,,,,,,,,,,,,,,,,,,,,,,,,,,,,,,,,,,,,,,,,,,,,,,,,,,,,,,,,,,,,,,,,,,,,,,,,,,,,,,,,,,,,,,,,,,,,,,,,,,,,,,,,,,,,,,,,,,,,,,,,,,,,,,,,,,,,,,,
,,,,,,61516c7d3c833383901cdb54,62c53aa0aa2bc9b5bcef82fa,2022-07-06_09h33.28.558,Colour_Asymmetry_Pilot,2022.1.3,Win32,60.09976561,62c50e9c1127f2cd403a315f,0,10,10,113,1,onethree,,,,,,,,,,,,,,,,,,,,,,,,,,,,,,,,,,,,,,,,,,,,,,,,,,,,,,,,,,,,,,,,,,,,,,,,,,,,,,,,,,,,,,,,,,,,,,,,,,,,,,,,,,,,,,,,,,,,,,,,,,,,,,,,,,,,,,,,,,,,,,,,,,,,,,,,,,,,,
,,,,,,61516c7d3c833383901cdb54,62c53aa0aa2bc9b5bcef82fa,2022-07-06_09h33.28.558,Colour_Asymmetry_Pilot,2022.1.3,Win32,60.09976561,62c50e9c1127f2cd403a315f,0,11,11,11,1,twofour,,,,,,,,,,,,,,,,,,,,,,,,,,,,,,,,,,,,,,,,,,,,,,,,,,,,,,,,,,,,,,,,,,,,,,,,,,,,,,,,,,,,,,,,,,,,,,,,,,,,,,,,,,,,,,,,,,,,,,,,,,,,,,,,,,,,,,,,,,,,,,,,,,,,,,,,,,,,,
,,,,,,61516c7d3c833383901cdb54,62c53aa0aa2bc9b5bcef82fa,2022-07-06_09h33.28.558,Colour_Asymmetry_Pilot,2022.1.3,Win32,60.09976561,62c50e9c1127f2cd403a315f,0,12,12,104,1,onetwo,,,,,,,,,,,,,,,,,,,,,,,,,,,,,,,,,,,,,,,,,,,,,,,,,,,,,,,,,,,,,,,,,,,,,,,,,,,,,,,,,,,,,,,,,,,,,,,,,,,,,,,,,,,,,,,,,,,,,,,,,,,,,,,,,,,,,,,,,,,,,,,,,,,,,,,,,,,,,
,,,,,,61516c7d3c833383901cdb54,62c53aa0aa2bc9b5bcef82fa,2022-07-06_09h33.28.558,Colour_Asymmetry_Pilot,2022.1.3,Win32,60.09976561,62c50e9c1127f2cd403a315f,0,13,13,42,1,twoone,,,,,,,,,,,,,,,,,,,,,,,,,,,,,,,,,,,,,,,,,,,,,,,,,,,,,,,,,,,,,,,,,,,,,,,,,,,,,,,,,,,,,,,,,,,,,,,,,,,,,,,,,,,,,,,,,,,,,,,,,,,,,,,,,,,,,,,,,,,,,,,,,,,,,,,,,,,,,
,,,,,,61516c7d3c833383901cdb54,62c53aa0aa2bc9b5bcef82fa,2022-07-06_09h33.28.558,Colour_Asymmetry_Pilot,2022.1.3,Win32,60.09976561,62c50e9c1127f2cd403a315f,0,14,14,76,1,threeone,,,,,,,,,,,,,,,,,,,,,,,,,,,,,,,,,,,,,,,,,,,,,,,,,,,,,,,,,,,,,,,,,,,,,,,,,,,,,,,,,,,,,,,,,,,,,,,,,,,,,,,,,,,,,,,,,,,,,,,,,,,,,,,,,,,,,,,,,,,,,,,,,,,,,,,,,,,,,
,,,,,,61516c7d3c833383901cdb54,62c53aa0aa2bc9b5bcef82fa,2022-07-06_09h33.28.558,Colour_Asymmetry_Pilot,2022.1.3,Win32,60.09976561,62c50e9c1127f2cd403a315f,0,15,15,101,1,threefour,,,,,,,,,,,,,,,,,,,,,,,,,,,,,,,,,,,,,,,,,,,,,,,,,,,,,,,,,,,,,,,,,,,,,,,,,,,,,,,,,,,,,,,,,,,,,,,,,,,,,,,,,,,,,,,,,,,,,,,,,,,,,,,,,,,,,,,,,,,,,,,,,,,,,,,,,,,,,
,,,,,,61516c7d3c833383901cdb54,62c53aa0aa2bc9b5bcef82fa,2022-07-06_09h33.28.558,Colour_Asymmetry_Pilot,2022.1.3,Win32,60.09976561,62c50e9c1127f2cd403a315f,0,16,16,74,1,twoone,,,,,,,,,,,,,,,,,,,,,,,,,,,,,,,,,,,,,,,,,,,,,,,,,,,,,,,,,,,,,,,,,,,,,,,,,,,,,,,,,,,,,,,,,,,,,,,,,,,,,,,,,,,,,,,,,,,,,,,,,,,,,,,,,,,,,,,,,,,,,,,,,,,,,,,,,,,,,
,,,,,,61516c7d3c833383901cdb54,62c53aa0aa2bc9b5bcef82fa,2022-07-06_09h33.28.558,Colour_Asymmetry_Pilot,2022.1.3,Win32,60.09976561,62c50e9c1127f2cd403a315f,0,17,17,49,1,onethree,,,,,,,,,,,,,,,,,,,,,,,,,,,,,,,,,,,,,,,,,,,,,,,,,,,,,,,,,,,,,,,,,,,,,,,,,,,,,,,,,,,,,,,,,,,,,,,,,,,,,,,,,,,,,,,,,,,,,,,,,,,,,,,,,,,,,,,,,,,,,,,,,,,,,,,,,,,,,
,,,,,,61516c7d3c833383901cdb54,62c53aa0aa2bc9b5bcef82fa,2022-07-06_09h33.28.558,Colour_Asymmetry_Pilot,2022.1.3,Win32,60.09976561,62c50e9c1127f2cd403a315f,0,18,18,128,1,onetwo,,,,,,,,,,,,,,,,,,,,,,,,,,,,,,,,,,,,,,,,,,,,,,,,,,,,,,,,,,,,,,,,,,,,,,,,,,,,,,,,,,,,,,,,,,,,,,,,,,,,,,,,,,,,,,,,,,,,,,,,,,,,,,,,,,,,,,,,,,,,,,,,,,,,,,,,,,,,,
,,,,,,61516c7d3c833383901cdb54,62c53aa0aa2bc9b5bcef82fa,2022-07-06_09h33.28.558,Colour_Asymmetry_Pilot,2022.1.3,Win32,60.09976561,62c50e9c1127f2cd403a315f,0,19,19,127,1,fourthree,,,,,,,,,,,,,,,,,,,,,,,,,,,,,,,,,,,,,,,,,,,,,,,,,,,,,,,,,,,,,,,,,,,,,,,,,,,,,,,,,,,,,,,,,,,,,,,,,,,,,,,,,,,,,,,,,,,,,,,,,,,,,,,,,,,,,,,,,,,,,,,,,,,,,,,,,,,,,
,,,,,,61516c7d3c833383901cdb54,62c53aa0aa2bc9b5bcef82fa,2022-07-06_09h33.28.558,Colour_Asymmetry_Pilot,2022.1.3,Win32,60.09976561,62c50e9c1127f2cd403a315f,0,20,20,61,1,threefour,,,,,,,,,,,,,,,,,,,,,,,,,,,,,,,,,,,,,,,,,,,,,,,,,,,,,,,,,,,,,,,,,,,,,,,,,,,,,,,,,,,,,,,,,,,,,,,,,,,,,,,,,,,,,,,,,,,,,,,,,,,,,,,,,,,,,,,,,,,,,,,,,,,,,,,,,,,,,
,,,,,,61516c7d3c833383901cdb54,62c53aa0aa2bc9b5bcef82fa,2022-07-06_09h33.28.558,Colour_Asymmetry_Pilot,2022.1.3,Win32,60.09976561,62c50e9c1127f2cd403a315f,0,21,21,43,1,twofour,,,,,,,,,,,,,,,,,,,,,,,,,,,,,,,,,,,,,,,,,,,,,,,,,,,,,,,,,,,,,,,,,,,,,,,,,,,,,,,,,,,,,,,,,,,,,,,,,,,,,,,,,,,,,,,,,,,,,,,,,,,,,,,,,,,,,,,,,,,,,,,,,,,,,,,,,,,,,
,,,,,,61516c7d3c833383901cdb54,62c53aa0aa2bc9b5bcef82fa,2022-07-06_09h33.28.558,Colour_Asymmetry_Pilot,2022.1.3,Win32,60.09976561,62c50e9c1127f2cd403a315f,0,22,22,22,1,fourtwo,,,,,,,,,,,,,,,,,,,,,,,,,,,,,,,,,,,,,,,,,,,,,,,,,,,,,,,,,,,,,,,,,,,,,,,,,,,,,,,,,,,,,,,,,,,,,,,,,,,,,,,,,,,,,,,,,,,,,,,,,,,,,,,,,,,,,,,,,,,,,,,,,,,,,,,,,,,,,
,,,,,,61516c7d3c833383901cdb54,62c53aa0aa2bc9b5bcef82fa,2022-07-06_09h33.28.558,Colour_Asymmetry_Pilot,2022.1.3,Win32,60.09976561,62c50e9c1127f2cd403a315f,0,23,23,50,1,twoone,,,,,,,,,,,,,,,,,,,,,,,,,,,,,,,,,,,,,,,,,,,,,,,,,,,,,,,,,,,,,,,,,,,,,,,,,,,,,,,,,,,,,,,,,,,,,,,,,,,,,,,,,,,,,,,,,,,,,,,,,,,,,,,,,,,,,,,,,,,,,,,,,,,,,,,,,,,,,
,,,,,,61516c7d3c833383901cdb54,62c53aa0aa2bc9b5bcef82fa,2022-07-06_09h33.28.558,Colour_Asymmetry_Pilot,2022.1.3,Win32,60.09976561,62c50e9c1127f2cd403a315f,0,24,24,146,1,twoone,,,,,,,,,,,,,,,,,,,,,,,,,,,,,,,,,,,,,,,,,,,,,,,,,,,,,,,,,,,,,,,,,,,,,,,,,,,,,,,,,,,,,,,,,,,,,,,,,,,,,,,,,,,,,,,,,,,,,,,,,,,,,,,,,,,,,,,,,,,,,,,,,,,,,,,,,,,,,
,,,,,,61516c7d3c833383901cdb54,62c53aa0aa2bc9b5bcef82fa,2022-07-06_09h33.28.558,Colour_Asymmetry_Pilot,2022.1.3,Win32,60.09976561,62c50e9c1127f2cd403a315f,0,25,25,16,1,onetwo,,,,,,,,,,,,,,,,,,,,,,,,,,,,,,,,,,,,,,,,,,,,,,,,,,,,,,,,,,,,,,,,,,,,,,,,,,,,,,,,,,,,,,,,,,,,,,,,,,,,,,,,,,,,,,,,,,,,,,,,,,,,,,,,,,,,,,,,,,,,,,,,,,,,,,,,,,,,,
,,,,,,61516c7d3c833383901cdb54,62c53aa0aa2bc9b5bcef82fa,2022-07-06_09h33.28.558,Colour_Asymmetry_Pilot,2022.1.3,Win32,60.09976561,62c50e9c1127f2cd403a315f,0,26,26,159,1,fourthree,,,,,,,,,,,,,,,,,,,,,,,,,,,,,,,,,,,,,,,,,,,,,,,,,,,,,,,,,,,,,,,,,,,,,,,,,,,,,,,,,,,,,,,,,,,,,,,,,,,,,,,,,,,,,,,,,,,,,,,,,,,,,,,,,,,,,,,,,,,,,,,,,,,,,,,,,,,,,
,,,,,,61516c7d3c833383901cdb54,62c53aa0aa2bc9b5bcef82fa,2022-07-06_09h33.28.558,Colour_Asymmetry_Pilot,2022.1.3,Win32,60.09976561,62c50e9c1127f2cd403a315f,0,27,27,85,1,threefour,,,,,,,,,,,,,,,,,,,,,,,,,,,,,,,,,,,,,,,,,,,,,,,,,,,,,,,,,,,,,,,,,,,,,,,,,,,,,,,,,,,,,,,,,,,,,,,,,,,,,,,,,,,,,,,,,,,,,,,,,,,,,,,,,,,,,,,,,,,,,,,,,,,,,,,,,,,,,
,,,,,,61516c7d3c833383901cdb54,62c53aa0aa2bc9b5bcef82fa,2022-07-06_09h33.28.558,Colour_Asymmetry_Pilot,2022.1.3,Win32,60.09976561,62c50e9c1127f2cd403a315f,0,28,28,57,1,onethree,,,,,,,,,,,,,,,,,,,,,,,,,,,,,,,,,,,,,,,,,,,,,,,,,,,,,,,,,,,,,,,,,,,,,,,,,,,,,,,,,,,,,,,,,,,,,,,,,,,,,,,,,,,,,,,,,,,,,,,,,,,,,,,,,,,,,,,,,,,,,,,,,,,,,,,,,,,,,
,,,,,,61516c7d3c833383901cdb54,62c53aa0aa2bc9b5bcef82fa,2022-07-06_09h33.28.558,Colour_Asymmetry_Pilot,2022.1.3,Win32,60.09976561,62c50e9c1127f2cd403a315f,0,29,29,23,1,fourthree,,,,,,,,,,,,,,,,,,,,,,,,,,,,,,,,,,,,,,,,,,,,,,,,,,,,,,,,,,,,,,,,,,,,,,,,,,,,,,,,,,,,,,,,,,,,,,,,,,,,,,,,,,,,,,,,,,,,,,,,,,,,,,,,,,,,,,,,,,,,,,,,,,,,,,,,,,,,,
,,,,,,61516c7d3c833383901cdb54,62c53aa0aa2bc9b5bcef82fa,2022-07-06_09h33.28.558,Colour_Asymmetry_Pilot,2022.1.3,Win32,60.09976561,62c50e9c1127f2cd403a315f,0,30,30,41,1,onethree,,,,,,,,,,,,,,,,,,,,,,,,,,,,,,,,,,,,,,,,,,,,,,,,,,,,,,,,,,,,,,,,,,,,,,,,,,,,,,,,,,,,,,,,,,,,,,,,,,,,,,,,,,,,,,,,,,,,,,,,,,,,,,,,,,,,,,,,,,,,,,,,,,,,,,,,,,,,,
,,,,,,61516c7d3c833383901cdb54,62c53aa0aa2bc9b5bcef82fa,2022-07-06_09h33.28.558,Colour_Asymmetry_Pilot,2022.1.3,Win32,60.09976561,62c50e9c1127f2cd403a315f,0,31,31,79,1,fourthree,,,,,,,,,,,,,,,,,,,,,,,,,,,,,,,,,,,,,,,,,,,,,,,,,,,,,,,,,,,,,,,,,,,,,,,,,,,,,,,,,,,,,,,,,,,,,,,,,,,,,,,,,,,,,,,,,,,,,,,,,,,,,,,,,,,,,,,,,,,,,,,,,,,,,,,,,,,,,
,,,,,,61516c7d3c833383901cdb54,62c53aa0aa2bc9b5bcef82fa,2022-07-06_09h33.28.558,Colour_Asymmetry_Pilot,2022.1.3,Win32,60.09976561,62c50e9c1127f2cd403a315f,0,32,32,56,1,onetwo,,,,,,,,,,,,,,,,,,,,,,,,,,,,,,,,,,,,,,,,,,,,,,,,,,,,,,,,,,,,,,,,,,,,,,,,,,,,,,,,,,,,,,,,,,,,,,,,,,,,,,,,,,,,,,,,,,,,,,,,,,,,,,,,,,,,,,,,,,,,,,,,,,,,,,,,,,,,,
,,,,,,61516c7d3c833383901cdb54,62c53aa0aa2bc9b5bcef82fa,2022-07-06_09h33.28.558,Colour_Asymmetry_Pilot,2022.1.3,Win32,60.09976561,62c50e9c1127f2cd403a315f,0,33,33,63,1,fourthree,,,,,,,,,,,,,,,,,,,,,,,,,,,,,,,,,,,,,,,,,,,,,,,,,,,,,,,,,,,,,,,,,,,,,,,,,,,,,,,,,,,,,,,,,,,,,,,,,,,,,,,,,,,,,,,,,,,,,,,,,,,,,,,,,,,,,,,,,,,,,,,,,,,,,,,,,,,,,
,,,,,,61516c7d3c833383901cdb54,62c53aa0aa2bc9b5bcef82fa,2022-07-06_09h33.28.558,Colour_Asymmetry_Pilot,2022.1.3,Win32,60.09976561,62c50e9c1127f2cd403a315f,0,34,34,132,1,threeone,,,,,,,,,,,,,,,,,,,,,,,,,,,,,,,,,,,,,,,,,,,,,,,,,,,,,,,,,,,,,,,,,,,,,,,,,,,,,,,,,,,,,,,,,,,,,,,,,,,,,,,,,,,,,,,,,,,,,,,,,,,,,,,,,,,,,,,,,,,,,,,,,,,,,,,,,,,,,
,,,,,,61516c7d3c833383901cdb54,62c53aa0aa2bc9b5bcef82fa,2022-07-06_09h33.28.558,Colour_Asymmetry_Pilot,2022.1.3,Win32,60.09976561,62c50e9c1127f2cd403a315f,0,35,35,48,1,onetwo,,,,,,,,,,,,,,,,,,,,,,,,,,,,,,,,,,,,,,,,,,,,,,,,,,,,,,,,,,,,,,,,,,,,,,,,,,,,,,,,,,,,,,,,,,,,,,,,,,,,,,,,,,,,,,,,,,,,,,,,,,,,,,,,,,,,,,,,,,,,,,,,,,,,,,,,,,,,,
,,,,,,61516c7d3c833383901cdb54,62c53aa0aa2bc9b5bcef82fa,2022-07-06_09h33.28.558,Colour_Asymmetry_Pilot,2022.1.3,Win32,60.09976561,62c50e9c1127f2cd403a315f,0,36,36,98,1,twoone,,,,,,,,,,,,,,,,,,,,,,,,,,,,,,,,,,,,,,,,,,,,,,,,,,,,,,,,,,,,,,,,,,,,,,,,,,,,,,,,,,,,,,,,,,,,,,,,,,,,,,,,,,,,,,,,,,,,,,,,,,,,,,,,,,,,,,,,,,,,,,,,,,,,,,,,,,,,,
,,,,,,61516c7d3c833383901cdb54,62c53aa0aa2bc9b5bcef82fa,2022-07-06_09h33.28.558,Colour_Asymmetry_Pilot,2022.1.3,Win32,60.09976561,62c50e9c1127f2cd403a315f,0,37,37,36,1,threeone,,,,,,,,,,,,,,,,,,,,,,,,,,,,,,,,,,,,,,,,,,,,,,,,,,,,,,,,,,,,,,,,,,,,,,,,,,,,,,,,,,,,,,,,,,,,,,,,,,,,,,,,,,,,,,,,,,,,,,,,,,,,,,,,,,,,,,,,,,,,,,,,,,,,,,,,,,,,,
,,,,,,61516c7d3c833383901cdb54,62c53aa0aa2bc9b5bcef82fa,2022-07-06_09h33.28.558,Colour_Asymmetry_Pilot,2022.1.3,Win32,60.09976561,62c50e9c1127f2cd403a315f,0,38,38,33,1,onethree,,,,,,,,,,,,,,,,,,,,,,,,,,,,,,,,,,,,,,,,,,,,,,,,,,,,,,,,,,,,,,,,,,,,,,,,,,,,,,,,,,,,,,,,,,,,,,,,,,,,,,,,,,,,,,,,,,,,,,,,,,,,,,,,,,,,,,,,,,,,,,,,,,,,,,,,,,,,,
,,,,,,61516c7d3c833383901cdb54,62c53aa0aa2bc9b5bcef82fa,2022-07-06_09h33.28.558,Colour_Asymmetry_Pilot,2022.1.3,Win32,60.09976561,62c50e9c1127f2cd403a315f,0,39,39,60,1,threeone,,,,,,,,,,,,,,,,,,,,,,,,,,,,,,,,,,,,,,,,,,,,,,,,,,,,,,,,,,,,,,,,,,,,,,,,,,,,,,,,,,,,,,,,,,,,,,,,,,,,,,,,,,,,,,,,,,,,,,,,,,,,,,,,,,,,,,,,,,,,,,,,,,,,,,,,,,,,,
,,,,,,61516c7d3c833383901cdb54,62c53aa0aa2bc9b5bcef82fa,2022-07-06_09h33.28.558,Colour_Asymmetry_Pilot,2022.1.3,Win32,60.09976561,62c50e9c1127f2cd403a315f,0,40,40,39,1,fourthree,,,,,,,,,,,,,,,,,,,,,,,,,,,,,,,,,,,,,,,,,,,,,,,,,,,,,,,,,,,,,,,,,,,,,,,,,,,,,,,,,,,,,,,,,,,,,,,,,,,,,,,,,,,,,,,,,,,,,,,,,,,,,,,,,,,,,,,,,,,,,,,,,,,,,,,,,,,,,
,,,,,,61516c7d3c833383901cdb54,62c53aa0aa2bc9b5bcef82fa,2022-07-06_09h33.28.558,Colour_Asymmetry_Pilot,2022.1.3,Win32,60.09976561,62c50e9c1127f2cd403a315f,0,41,41,24,1,onetwo,,,,,,,,,,,,,,,,,,,,,,,,,,,,,,,,,,,,,,,,,,,,,,,,,,,,,,,,,,,,,,,,,,,,,,,,,,,,,,,,,,,,,,,,,,,,,,,,,,,,,,,,,,,,,,,,,,,,,,,,,,,,,,,,,,,,,,,,,,,,,,,,,,,,,,,,,,,,,
,,,,,,61516c7d3c833383901cdb54,62c53aa0aa2bc9b5bcef82fa,2022-07-06_09h33.28.558,Colour_Asymmetry_Pilot,2022.1.3,Win32,60.09976561,62c50e9c1127f2cd403a315f,0,42,42,109,1,threefour,,,,,,,,,,,,,,,,,,,,,,,,,,,,,,,,,,,,,,,,,,,,,,,,,,,,,,,,,,,,,,,,,,,,,,,,,,,,,,,,,,,,,,,,,,,,,,,,,,,,,,,,,,,,,,,,,,,,,,,,,,,,,,,,,,,,,,,,,,,,,,,,,,,,,,,,,,,,,
,,,,,,61516c7d3c833383901cdb54,62c53aa0aa2bc9b5bcef82fa,2022-07-06_09h33.28.558,Colour_Asymmetry_Pilot,2022.1.3,Win32,60.09976561,62c50e9c1127f2cd403a315f,0,43,43,44,1,threeone,,,,,,,,,,,,,,,,,,,,,,,,,,,,,,,,,,,,,,,,,,,,,,,,,,,,,,,,,,,,,,,,,,,,,,,,,,,,,,,,,,,,,,,,,,,,,,,,,,,,,,,,,,,,,,,,,,,,,,,,,,,,,,,,,,,,,,,,,,,,,,,,,,,,,,,,,,,,,
,,,,,,61516c7d3c833383901cdb54,62c53aa0aa2bc9b5bcef82fa,2022-07-06_09h33.28.558,Colour_Asymmetry_Pilot,2022.1.3,Win32,60.09976561,62c50e9c1127f2cd403a315f,0,44,44,133,1,threefour,,,,,,,,,,,,,,,,,,,,,,,,,,,,,,,,,,,,,,,,,,,,,,,,,,,,,,,,,,,,,,,,,,,,,,,,,,,,,,,,,,,,,,,,,,,,,,,,,,,,,,,,,,,,,,,,,,,,,,,,,,,,,,,,,,,,,,,,,,,,,,,,,,,,,,,,,,,,,
,,,,,,61516c7d3c833383901cdb54,62c53aa0aa2bc9b5bcef82fa,2022-07-06_09h33.28.558,Colour_Asymmetry_Pilot,2022.1.3,Win32,60.09976561,62c50e9c1127f2cd403a315f,0,45,45,94,1,fourtwo,,,,,,,,,,,,,,,,,,,,,,,,,,,,,,,,,,,,,,,,,,,,,,,,,,,,,,,,,,,,,,,,,,,,,,,,,,,,,,,,,,,,,,,,,,,,,,,,,,,,,,,,,,,,,,,,,,,,,,,,,,,,,,,,,,,,,,,,,,,,,,,,,,,,,,,,,,,,,
,,,,,,61516c7d3c833383901cdb54,62c53aa0aa2bc9b5bcef82fa,2022-07-06_09h33.28.558,Colour_Asymmetry_Pilot,2022.1.3,Win32,60.09976561,62c50e9c1127f2cd403a315f,0,46,46,105,1,onethree,,,,,,,,,,,,,,,,,,,,,,,,,,,,,,,,,,,,,,,,,,,,,,,,,,,,,,,,,,,,,,,,,,,,,,,,,,,,,,,,,,,,,,,,,,,,,,,,,,,,,,,,,,,,,,,,,,,,,,,,,,,,,,,,,,,,,,,,,,,,,,,,,,,,,,,,,,,,,
,,,,,,61516c7d3c833383901cdb54,62c53aa0aa2bc9b5bcef82fa,2022-07-06_09h33.28.558,Colour_Asymmetry_Pilot,2022.1.3,Win32,60.09976561,62c50e9c1127f2cd403a315f,0,47,47,83,1,twofour,,,,,,,,,,,,,,,,,,,,,,,,,,,,,,,,,,,,,,,,,,,,,,,,,,,,,,,,,,,,,,,,,,,,,,,,,,,,,,,,,,,,,,,,,,,,,,,,,,,,,,,,,,,,,,,,,,,,,,,,,,,,,,,,,,,,,,,,,,,,,,,,,,,,,,,,,,,,,
,,,,,,61516c7d3c833383901cdb54,62c53aa0aa2bc9b5bcef82fa,2022-07-06_09h33.28.558,Colour_Asymmetry_Pilot,2022.1.3,Win32,60.09976561,62c50e9c1127f2cd403a315f,0,48,48,34,1,twoone,,,,,,,,,,,,,,,,,,,,,,,,,,,,,,,,,,,,,,,,,,,,,,,,,,,,,,,,,,,,,,,,,,,,,,,,,,,,,,,,,,,,,,,,,,,,,,,,,,,,,,,,,,,,,,,,,,,,,,,,,,,,,,,,,,,,,,,,,,,,,,,,,,,,,,,,,,,,,
,,,,,,61516c7d3c833383901cdb54,62c53aa0aa2bc9b5bcef82fa,2022-07-06_09h33.28.558,Colour_Asymmetry_Pilot,2022.1.3,Win32,60.09976561,62c50e9c1127f2cd403a315f,0,49,49,6,1,fourtwo,,,,,,,,,,,,,,,,,,,,,,,,,,,,,,,,,,,,,,,,,,,,,,,,,,,,,,,,,,,,,,,,,,,,,,,,,,,,,,,,,,,,,,,,,,,,,,,,,,,,,,,,,,,,,,,,,,,,,,,,,,,,,,,,,,,,,,,,,,,,,,,,,,,,,,,,,,,,,
,,,,,,61516c7d3c833383901cdb54,62c53aa0aa2bc9b5bcef82fa,2022-07-06_09h33.28.558,Colour_Asymmetry_Pilot,2022.1.3,Win32,60.09976561,62c50e9c1127f2cd403a315f,0,50,50,27,1,twofour,,,,,,,,,,,,,,,,,,,,,,,,,,,,,,,,,,,,,,,,,,,,,,,,,,,,,,,,,,,,,,,,,,,,,,,,,,,,,,,,,,,,,,,,,,,,,,,,,,,,,,,,,,,,,,,,,,,,,,,,,,,,,,,,,,,,,,,,,,,,,,,,,,,,,,,,,,,,,
,,,,,,61516c7d3c833383901cdb54,62c53aa0aa2bc9b5bcef82fa,2022-07-06_09h33.28.558,Colour_Asymmetry_Pilot,2022.1.3,Win32,60.09976561,62c50e9c1127f2cd403a315f,0,51,51,99,1,twofour,,,,,,,,,,,,,,,,,,,,,,,,,,,,,,,,,,,,,,,,,,,,,,,,,,,,,,,,,,,,,,,,,,,,,,,,,,,,,,,,,,,,,,,,,,,,,,,,,,,,,,,,,,,,,,,,,,,,,,,,,,,,,,,,,,,,,,,,,,,,,,,,,,,,,,,,,,,,,
,,,,,,61516c7d3c833383901cdb54,62c53aa0aa2bc9b5bcef82fa,2022-07-06_09h33.28.558,Colour_Asymmetry_Pilot,2022.1.3,Win32,60.09976561,62c50e9c1127f2cd403a315f,0,52,52,155,1,twofour,,,,,,,,,,,,,,,,,,,,,,,,,,,,,,,,,,,,,,,,,,,,,,,,,,,,,,,,,,,,,,,,,,,,,,,,,,,,,,,,,,,,,,,,,,,,,,,,,,,,,,,,,,,,,,,,,,,,,,,,,,,,,,,,,,,,,,,,,,,,,,,,,,,,,,,,,,,,,
,,,,,,61516c7d3c833383901cdb54,62c53aa0aa2bc9b5bcef82fa,2022-07-06_09h33.28.558,Colour_Asymmetry_Pilot,2022.1.3,Win32,60.09976561,62c50e9c1127f2cd403a315f,0,53,53,158,1,fourtwo,,,,,,,,,,,,,,,,,,,,,,,,,,,,,,,,,,,,,,,,,,,,,,,,,,,,,,,,,,,,,,,,,,,,,,,,,,,,,,,,,,,,,,,,,,,,,,,,,,,,,,,,,,,,,,,,,,,,,,,,,,,,,,,,,,,,,,,,,,,,,,,,,,,,,,,,,,,,,
,,,,,,61516c7d3c833383901cdb54,62c53aa0aa2bc9b5bcef82fa,2022-07-06_09h33.28.558,Colour_Asymmetry_Pilot,2022.1.3,Win32,60.09976561,62c50e9c1127f2cd403a315f,0,54,54,45,1,threefour,,,,,,,,,,,,,,,,,,,,,,,,,,,,,,,,,,,,,,,,,,,,,,,,,,,,,,,,,,,,,,,,,,,,,,,,,,,,,,,,,,,,,,,,,,,,,,,,,,,,,,,,,,,,,,,,,,,,,,,,,,,,,,,,,,,,,,,,,,,,,,,,,,,,,,,,,,,,,
,,,,,,61516c7d3c833383901cdb54,62c53aa0aa2bc9b5bcef82fa,2022-07-06_09h33.28.558,Colour_Asymmetry_Pilot,2022.1.3,Win32,60.09976561,62c50e9c1127f2cd403a315f,0,55,55,114,1,twoone,,,,,,,,,,,,,,,,,,,,,,,,,,,,,,,,,,,,,,,,,,,,,,,,,,,,,,,,,,,,,,,,,,,,,,,,,,,,,,,,,,,,,,,,,,,,,,,,,,,,,,,,,,,,,,,,,,,,,,,,,,,,,,,,,,,,,,,,,,,,,,,,,,,,,,,,,,,,,
,,,,,,61516c7d3c833383901cdb54,62c53aa0aa2bc9b5bcef82fa,2022-07-06_09h33.28.558,Colour_Asymmetry_Pilot,2022.1.3,Win32,60.09976561,62c50e9c1127f2cd403a315f,0,56,56,2,1,twoone,,,,,,,,,,,,,,,,,,,,,,,,,,,,,,,,,,,,,,,,,,,,,,,,,,,,,,,,,,,,,,,,,,,,,,,,,,,,,,,,,,,,,,,,,,,,,,,,,,,,,,,,,,,,,,,,,,,,,,,,,,,,,,,,,,,,,,,,,,,,,,,,,,,,,,,,,,,,,
,,,,,,61516c7d3c833383901cdb54,62c53aa0aa2bc9b5bcef82fa,2022-07-06_09h33.28.558,Colour_Asymmetry_Pilot,2022.1.3,Win32,60.09976561,62c50e9c1127f2cd403a315f,0,57,57,129,1,onethree,,,,,,,,,,,,,,,,,,,,,,,,,,,,,,,,,,,,,,,,,,,,,,,,,,,,,,,,,,,,,,,,,,,,,,,,,,,,,,,,,,,,,,,,,,,,,,,,,,,,,,,,,,,,,,,,,,,,,,,,,,,,,,,,,,,,,,,,,,,,,,,,,,,,,,,,,,,,,
,,,,,,61516c7d3c833383901cdb54,62c53aa0aa2bc9b5bcef82fa,2022-07-06_09h33.28.558,Colour_Asymmetry_Pilot,2022.1.3,Win32,60.09976561,62c50e9c1127f2cd403a315f,0,58,58,78,1,fourtwo,,,,,,,,,,,,,,,,,,,,,,,,,,,,,,,,,,,,,,,,,,,,,,,,,,,,,,,,,,,,,,,,,,,,,,,,,,,,,,,,,,,,,,,,,,,,,,,,,,,,,,,,,,,,,,,,,,,,,,,,,,,,,,,,,,,,,,,,,,,,,,,,,,,,,,,,,,,,,
,,,,,,61516c7d3c833383901cdb54,62c53aa0aa2bc9b5bcef82fa,2022-07-06_09h33.28.558,Colour_Asymmetry_Pilot,2022.1.3,Win32,60.09976561,62c50e9c1127f2cd403a315f,0,59,59,151,1,fourthree,,,,,,,,,,,,,,,,,,,,,,,,,,,,,,,,,,,,,,,,,,,,,,,,,,,,,,,,,,,,,,,,,,,,,,,,,,,,,,,,,,,,,,,,,,,,,,,,,,,,,,,,,,,,,,,,,,,,,,,,,,,,,,,,,,,,,,,,,,,,,,,,,,,,,,,,,,,,,
,,,,,,61516c7d3c833383901cdb54,62c53aa0aa2bc9b5bcef82fa,2022-07-06_09h33.28.558,Colour_Asymmetry_Pilot,2022.1.3,Win32,60.09976561,62c50e9c1127f2cd403a315f,0,60,60,110,1,fourtwo,,,,,,,,,,,,,,,,,,,,,,,,,,,,,,,,,,,,,,,,,,,,,,,,,,,,,,,,,,,,,,,,,,,,,,,,,,,,,,,,,,,,,,,,,,,,,,,,,,,,,,,,,,,,,,,,,,,,,,,,,,,,,,,,,,,,,,,,,,,,,,,,,,,,,,,,,,,,,
,,,,,,61516c7d3c833383901cdb54,62c53aa0aa2bc9b5bcef82fa,2022-07-06_09h33.28.558,Colour_Asymmetry_Pilot,2022.1.3,Win32,60.09976561,62c50e9c1127f2cd403a315f,0,61,61,67,1,twofour,,,,,,,,,,,,,,,,,,,,,,,,,,,,,,,,,,,,,,,,,,,,,,,,,,,,,,,,,,,,,,,,,,,,,,,,,,,,,,,,,,,,,,,,,,,,,,,,,,,,,,,,,,,,,,,,,,,,,,,,,,,,,,,,,,,,,,,,,,,,,,,,,,,,,,,,,,,,,
,,,,,,61516c7d3c833383901cdb54,62c53aa0aa2bc9b5bcef82fa,2022-07-06_09h33.28.558,Colour_Asymmetry_Pilot,2022.1.3,Win32,60.09976561,62c50e9c1127f2cd403a315f,0,62,62,136,1,onetwo,,,,,,,,,,,,,,,,,,,,,,,,,,,,,,,,,,,,,,,,,,,,,,,,,,,,,,,,,,,,,,,,,,,,,,,,,,,,,,,,,,,,,,,,,,,,,,,,,,,,,,,,,,,,,,,,,,,,,,,,,,,,,,,,,,,,,,,,,,,,,,,,,,,,,,,,,,,,,
,,,,,,61516c7d3c833383901cdb54,62c53aa0aa2bc9b5bcef82fa,2022-07-06_09h33.28.558,Colour_Asymmetry_Pilot,2022.1.3,Win32,60.09976561,62c50e9c1127f2cd403a315f,0,63,63,138,1,twoone,,,,,,,,,,,,,,,,,,,,,,,,,,,,,,,,,,,,,,,,,,,,,,,,,,,,,,,,,,,,,,,,,,,,,,,,,,,,,,,,,,,,,,,,,,,,,,,,,,,,,,,,,,,,,,,,,,,,,,,,,,,,,,,,,,,,,,,,,,,,,,,,,,,,,,,,,,,,,
,,,,,,61516c7d3c833383901cdb54,62c53aa0aa2bc9b5bcef82fa,2022-07-06_09h33.28.558,Colour_Asymmetry_Pilot,2022.1.3,Win32,60.09976561,62c50e9c1127f2cd403a315f,0,64,64,107,1,twofour,,,,,,,,,,,,,,,,,,,,,,,,,,,,,,,,,,,,,,,,,,,,,,,,,,,,,,,,,,,,,,,,,,,,,,,,,,,,,,,,,,,,,,,,,,,,,,,,,,,,,,,,,,,,,,,,,,,,,,,,,,,,,,,,,,,,,,,,,,,,,,,,,,,,,,,,,,,,,
,,,,,,61516c7d3c833383901cdb54,62c53aa0aa2bc9b5bcef82fa,2022-07-06_09h33.28.558,Colour_Asymmetry_Pilot,2022.1.3,Win32,60.09976561,62c50e9c1127f2cd403a315f,0,65,65,31,1,fourthree,,,,,,,,,,,,,,,,,,,,,,,,,,,,,,,,,,,,,,,,,,,,,,,,,,,,,,,,,,,,,,,,,,,,,,,,,,,,,,,,,,,,,,,,,,,,,,,,,,,,,,,,,,,,,,,,,,,,,,,,,,,,,,,,,,,,,,,,,,,,,,,,,,,,,,,,,,,,,
,,,,,,61516c7d3c833383901cdb54,62c53aa0aa2bc9b5bcef82fa,2022-07-06_09h33.28.558,Colour_Asymmetry_Pilot,2022.1.3,Win32,60.09976561,62c50e9c1127f2cd403a315f,0,66,66,142,1,fourtwo,,,,,,,,,,,,,,,,,,,,,,,,,,,,,,,,,,,,,,,,,,,,,,,,,,,,,,,,,,,,,,,,,,,,,,,,,,,,,,,,,,,,,,,,,,,,,,,,,,,,,,,,,,,,,,,,,,,,,,,,,,,,,,,,,,,,,,,,,,,,,,,,,,,,,,,,,,,,,
,,,,,,61516c7d3c833383901cdb54,62c53aa0aa2bc9b5bcef82fa,2022-07-06_09h33.28.558,Colour_Asymmetry_Pilot,2022.1.3,Win32,60.09976561,62c50e9c1127f2cd403a315f,0,67,67,89,1,onethree,,,,,,,,,,,,,,,,,,,,,,,,,,,,,,,,,,,,,,,,,,,,,,,,,,,,,,,,,,,,,,,,,,,,,,,,,,,,,,,,,,,,,,,,,,,,,,,,,,,,,,,,,,,,,,,,,,,,,,,,,,,,,,,,,,,,,,,,,,,,,,,,,,,,,,,,,,,,,
,,,,,,61516c7d3c833383901cdb54,62c53aa0aa2bc9b5bcef82fa,2022-07-06_09h33.28.558,Colour_Asymmetry_Pilot,2022.1.3,Win32,60.09976561,62c50e9c1127f2cd403a315f,0,68,68,47,1,fourthree,,,,,,,,,,,,,,,,,,,,,,,,,,,,,,,,,,,,,,,,,,,,,,,,,,,,,,,,,,,,,,,,,,,,,,,,,,,,,,,,,,,,,,,,,,,,,,,,,,,,,,,,,,,,,,,,,,,,,,,,,,,,,,,,,,,,,,,,,,,,,,,,,,,,,,,,,,,,,
,,,,,,61516c7d3c833383901cdb54,62c53aa0aa2bc9b5bcef82fa,2022-07-06_09h33.28.558,Colour_Asymmetry_Pilot,2022.1.3,Win32,60.09976561,62c50e9c1127f2cd403a315f,0,69,69,117,1,threefour,,,,,,,,,,,,,,,,,,,,,,,,,,,,,,,,,,,,,,,,,,,,,,,,,,,,,,,,,,,,,,,,,,,,,,,,,,,,,,,,,,,,,,,,,,,,,,,,,,,,,,,,,,,,,,,,,,,,,,,,,,,,,,,,,,,,,,,,,,,,,,,,,,,,,,,,,,,,,
,,,,,,61516c7d3c833383901cdb54,62c53aa0aa2bc9b5bcef82fa,2022-07-06_09h33.28.558,Colour_Asymmetry_Pilot,2022.1.3,Win32,60.09976561,62c50e9c1127f2cd403a315f,0,70,70,59,1,twofour,,,,,,,,,,,,,,,,,,,,,,,,,,,,,,,,,,,,,,,,,,,,,,,,,,,,,,,,,,,,,,,,,,,,,,,,,,,,,,,,,,,,,,,,,,,,,,,,,,,,,,,,,,,,,,,,,,,,,,,,,,,,,,,,,,,,,,,,,,,,,,,,,,,,,,,,,,,,,
,,,,,,61516c7d3c833383901cdb54,62c53aa0aa2bc9b5bcef82fa,2022-07-06_09h33.28.558,Colour_Asymmetry_Pilot,2022.1.3,Win32,60.09976561,62c50e9c1127f2cd403a315f,0,71,71,139,1,twofour,,,,,,,,,,,,,,,,,,,,,,,,,,,,,,,,,,,,,,,,,,,,,,,,,,,,,,,,,,,,,,,,,,,,,,,,,,,,,,,,,,,,,,,,,,,,,,,,,,,,,,,,,,,,,,,,,,,,,,,,,,,,,,,,,,,,,,,,,,,,,,,,,,,,,,,,,,,,,
,,,,,,61516c7d3c833383901cdb54,62c53aa0aa2bc9b5bcef82fa,2022-07-06_09h33.28.558,Colour_Asymmetry_Pilot,2022.1.3,Win32,60.09976561,62c50e9c1127f2cd403a315f,0,72,72,38,1,fourtwo,,,,,,,,,,,,,,,,,,,,,,,,,,,,,,,,,,,,,,,,,,,,,,,,,,,,,,,,,,,,,,,,,,,,,,,,,,,,,,,,,,,,,,,,,,,,,,,,,,,,,,,,,,,,,,,,,,,,,,,,,,,,,,,,,,,,,,,,,,,,,,,,,,,,,,,,,,,,,
,,,,,,61516c7d3c833383901cdb54,62c53aa0aa2bc9b5bcef82fa,2022-07-06_09h33.28.558,Colour_Asymmetry_Pilot,2022.1.3,Win32,60.09976561,62c50e9c1127f2cd403a315f,0,73,73,119,1,fourthree,,,,,,,,,,,,,,,,,,,,,,,,,,,,,,,,,,,,,,,,,,,,,,,,,,,,,,,,,,,,,,,,,,,,,,,,,,,,,,,,,,,,,,,,,,,,,,,,,,,,,,,,,,,,,,,,,,,,,,,,,,,,,,,,,,,,,,,,,,,,,,,,,,,,,,,,,,,,,
,,,,,,61516c7d3c833383901cdb54,62c53aa0aa2bc9b5bcef82fa,2022-07-06_09h33.28.558,Colour_Asymmetry_Pilot,2022.1.3,Win32,60.09976561,62c50e9c1127f2cd403a315f,0,74,74,65,1,onethree,,,,,,,,,,,,,,,,,,,,,,,,,,,,,,,,,,,,,,,,,,,,,,,,,,,,,,,,,,,,,,,,,,,,,,,,,,,,,,,,,,,,,,,,,,,,,,,,,,,,,,,,,,,,,,,,,,,,,,,,,,,,,,,,,,,,,,,,,,,,,,,,,,,,,,,,,,,,,
,,,,,,61516c7d3c833383901cdb54,62c53aa0aa2bc9b5bcef82fa,2022-07-06_09h33.28.558,Colour_Asymmetry_Pilot,2022.1.3,Win32,60.09976561,62c50e9c1127f2cd403a315f,0,75,75,106,1,twoone,,,,,,,,,,,,,,,,,,,,,,,,,,,,,,,,,,,,,,,,,,,,,,,,,,,,,,,,,,,,,,,,,,,,,,,,,,,,,,,,,,,,,,,,,,,,,,,,,,,,,,,,,,,,,,,,,,,,,,,,,,,,,,,,,,,,,,,,,,,,,,,,,,,,,,,,,,,,,
,,,,,,61516c7d3c833383901cdb54,62c53aa0aa2bc9b5bcef82fa,2022-07-06_09h33.28.558,Colour_Asymmetry_Pilot,2022.1.3,Win32,60.09976561,62c50e9c1127f2cd403a315f,0,76,76,111,1,fourthree,,,,,,,,,,,,,,,,,,,,,,,,,,,,,,,,,,,,,,,,,,,,,,,,,,,,,,,,,,,,,,,,,,,,,,,,,,,,,,,,,,,,,,,,,,,,,,,,,,,,,,,,,,,,,,,,,,,,,,,,,,,,,,,,,,,,,,,,,,,,,,,,,,,,,,,,,,,,,
,,,,,,61516c7d3c833383901cdb54,62c53aa0aa2bc9b5bcef82fa,2022-07-06_09h33.28.558,Colour_Asymmetry_Pilot,2022.1.3,Win32,60.09976561,62c50e9c1127f2cd403a315f,0,77,77,77,1,threefour,,,,,,,,,,,,,,,,,,,,,,,,,,,,,,,,,,,,,,,,,,,,,,,,,,,,,,,,,,,,,,,,,,,,,,,,,,,,,,,,,,,,,,,,,,,,,,,,,,,,,,,,,,,,,,,,,,,,,,,,,,,,,,,,,,,,,,,,,,,,,,,,,,,,,,,,,,,,,
,,,,,,61516c7d3c833383901cdb54,62c53aa0aa2bc9b5bcef82fa,2022-07-06_09h33.28.558,Colour_Asymmetry_Pilot,2022.1.3,Win32,60.09976561,62c50e9c1127f2cd403a315f,0,78,78,84,1,threeone,,,,,,,,,,,,,,,,,,,,,,,,,,,,,,,,,,,,,,,,,,,,,,,,,,,,,,,,,,,,,,,,,,,,,,,,,,,,,,,,,,,,,,,,,,,,,,,,,,,,,,,,,,,,,,,,,,,,,,,,,,,,,,,,,,,,,,,,,,,,,,,,,,,,,,,,,,,,,
,,,,,,61516c7d3c833383901cdb54,62c53aa0aa2bc9b5bcef82fa,2022-07-06_09h33.28.558,Colour_Asymmetry_Pilot,2022.1.3,Win32,60.09976561,62c50e9c1127f2cd403a315f,0,79,79,108,1,threeone,,,,,,,,,,,,,,,,,,,,,,,,,,,,,,,,,,,,,,,,,,,,,,,,,,,,,,,,,,,,,,,,,,,,,,,,,,,,,,,,,,,,,,,,,,,,,,,,,,,,,,,,,,,,,,,,,,,,,,,,,,,,,,,,,,,,,,,,,,,,,,,,,,,,,,,,,,,,,
,,,,,,61516c7d3c833383901cdb54,62c53aa0aa2bc9b5bcef82fa,2022-07-06_09h33.28.558,Colour_Asymmetry_Pilot,2022.1.3,Win32,60.09976561,62c50e9c1127f2cd403a315f,0,80,80,14,1,fourtwo,,,,,,,,,,,,,,,,,,,,,,,,,,,,,,,,,,,,,,,,,,,,,,,,,,,,,,,,,,,,,,,,,,,,,,,,,,,,,,,,,,,,,,,,,,,,,,,,,,,,,,,,,,,,,,,,,,,,,,,,,,,,,,,,,,,,,,,,,,,,,,,,,,,,,,,,,,,,,
,,,,,,61516c7d3c833383901cdb54,62c53aa0aa2bc9b5bcef82fa,2022-07-06_09h33.28.558,Colour_Asymmetry_Pilot,2022.1.3,Win32,60.09976561,62c50e9c1127f2cd403a315f,0,81,81,121,1,onethree,,,,,,,,,,,,,,,,,,,,,,,,,,,,,,,,,,,,,,,,,,,,,,,,,,,,,,,,,,,,,,,,,,,,,,,,,,,,,,,,,,,,,,,,,,,,,,,,,,,,,,,,,,,,,,,,,,,,,,,,,,,,,,,,,,,,,,,,,,,,,,,,,,,,,,,,,,,,,
,,,,,,61516c7d3c833383901cdb54,62c53aa0aa2bc9b5bcef82fa,2022-07-06_09h33.28.558,Colour_Asymmetry_Pilot,2022.1.3,Win32,60.09976561,62c50e9c1127f2cd403a315f,0,82,82,134,1,fourtwo,,,,,,,,,,,,,,,,,,,,,,,,,,,,,,,,,,,,,,,,,,,,,,,,,,,,,,,,,,,,,,,,,,,,,,,,,,,,,,,,,,,,,,,,,,,,,,,,,,,,,,,,,,,,,,,,,,,,,,,,,,,,,,,,,,,,,,,,,,,,,,,,,,,,,,,,,,,,,
,,,,,,61516c7d3c833383901cdb54,62c53aa0aa2bc9b5bcef82fa,2022-07-06_09h33.28.558,Colour_Asymmetry_Pilot,2022.1.3,Win32,60.09976561,62c50e9c1127f2cd403a315f,0,83,83,3,1,twofour,,,,,,,,,,,,,,,,,,,,,,,,,,,,,,,,,,,,,,,,,,,,,,,,,,,,,,,,,,,,,,,,,,,,,,,,,,,,,,,,,,,,,,,,,,,,,,,,,,,,,,,,,,,,,,,,,,,,,,,,,,,,,,,,,,,,,,,,,,,,,,,,,,,,,,,,,,,,,
,,,,,,61516c7d3c833383901cdb54,62c53aa0aa2bc9b5bcef82fa,2022-07-06_09h33.28.558,Colour_Asymmetry_Pilot,2022.1.3,Win32,60.09976561,62c50e9c1127f2cd403a315f,0,84,84,90,1,twoone,,,,,,,,,,,,,,,,,,,,,,,,,,,,,,,,,,,,,,,,,,,,,,,,,,,,,,,,,,,,,,,,,,,,,,,,,,,,,,,,,,,,,,,,,,,,,,,,,,,,,,,,,,,,,,,,,,,,,,,,,,,,,,,,,,,,,,,,,,,,,,,,,,,,,,,,,,,,,
,,,,,,61516c7d3c833383901cdb54,62c53aa0aa2bc9b5bcef82fa,2022-07-06_09h33.28.558,Colour_Asymmetry_Pilot,2022.1.3,Win32,60.09976561,62c50e9c1127f2cd403a315f,0,85,85,80,1,onetwo,,,,,,,,,,,,,,,,,,,,,,,,,,,,,,,,,,,,,,,,,,,,,,,,,,,,,,,,,,,,,,,,,,,,,,,,,,,,,,,,,,,,,,,,,,,,,,,,,,,,,,,,,,,,,,,,,,,,,,,,,,,,,,,,,,,,,,,,,,,,,,,,,,,,,,,,,,,,,
,,,,,,61516c7d3c833383901cdb54,62c53aa0aa2bc9b5bcef82fa,2022-07-06_09h33.28.558,Colour_Asymmetry_Pilot,2022.1.3,Win32,60.09976561,62c50e9c1127f2cd403a315f,0,86,86,148,1,threeone,,,,,,,,,,,,,,,,,,,,,,,,,,,,,,,,,,,,,,,,,,,,,,,,,,,,,,,,,,,,,,,,,,,,,,,,,,,,,,,,,,,,,,,,,,,,,,,,,,,,,,,,,,,,,,,,,,,,,,,,,,,,,,,,,,,,,,,,,,,,,,,,,,,,,,,,,,,,,
,,,,,,61516c7d3c833383901cdb54,62c53aa0aa2bc9b5bcef82fa,2022-07-06_09h33.28.558,Colour_Asymmetry_Pilot,2022.1.3,Win32,60.09976561,62c50e9c1127f2cd403a315f,0,87,87,97,1,onethree,,,,,,,,,,,,,,,,,,,,,,,,,,,,,,,,,,,,,,,,,,,,,,,,,,,,,,,,,,,,,,,,,,,,,,,,,,,,,,,,,,,,,,,,,,,,,,,,,,,,,,,,,,,,,,,,,,,,,,,,,,,,,,,,,,,,,,,,,,,,,,,,,,,,,,,,,,,,,
,,,,,,61516c7d3c833383901cdb54,62c53aa0aa2bc9b5bcef82fa,2022-07-06_09h33.28.558,Colour_Asymmetry_Pilot,2022.1.3,Win32,60.09976561,62c50e9c1127f2cd403a315f,0,88,88,154,1,twoone,,,,,,,,,,,,,,,,,,,,,,,,,,,,,,,,,,,,,,,,,,,,,,,,,,,,,,,,,,,,,,,,,,,,,,,,,,,,,,,,,,,,,,,,,,,,,,,,,,,,,,,,,,,,,,,,,,,,,,,,,,,,,,,,,,,,,,,,,,,,,,,,,,,,,,,,,,,,,
,,,,,,61516c7d3c833383901cdb54,62c53aa0aa2bc9b5bcef82fa,2022-07-06_09h33.28.558,Colour_Asymmetry_Pilot,2022.1.3,Win32,60.09976561,62c50e9c1127f2cd403a315f,0,89,89,1,1,onethree,,,,,,,,,,,,,,,,,,,,,,,,,,,,,,,,,,,,,,,,,,,,,,,,,,,,,,,,,,,,,,,,,,,,,,,,,,,,,,,,,,,,,,,,,,,,,,,,,,,,,,,,,,,,,,,,,,,,,,,,,,,,,,,,,,,,,,,,,,,,,,,,,,,,,,,,,,,,,
,,,,,,61516c7d3c833383901cdb54,62c53aa0aa2bc9b5bcef82fa,2022-07-06_09h33.28.558,Colour_Asymmetry_Pilot,2022.1.3,Win32,60.09976561,62c50e9c1127f2cd403a315f,0,90,90,29,1,threefour,,,,,,,,,,,,,,,,,,,,,,,,,,,,,,,,,,,,,,,,,,,,,,,,,,,,,,,,,,,,,,,,,,,,,,,,,,,,,,,,,,,,,,,,,,,,,,,,,,,,,,,,,,,,,,,,,,,,,,,,,,,,,,,,,,,,,,,,,,,,,,,,,,,,,,,,,,,,,
,,,,,,61516c7d3c833383901cdb54,62c53aa0aa2bc9b5bcef82fa,2022-07-06_09h33.28.558,Colour_Asymmetry_Pilot,2022.1.3,Win32,60.09976561,62c50e9c1127f2cd403a315f,0,91,91,120,1,onetwo,,,,,,,,,,,,,,,,,,,,,,,,,,,,,,,,,,,,,,,,,,,,,,,,,,,,,,,,,,,,,,,,,,,,,,,,,,,,,,,,,,,,,,,,,,,,,,,,,,,,,,,,,,,,,,,,,,,,,,,,,,,,,,,,,,,,,,,,,,,,,,,,,,,,,,,,,,,,,
,,,,,,61516c7d3c833383901cdb54,62c53aa0aa2bc9b5bcef82fa,2022-07-06_09h33.28.558,Colour_Asymmetry_Pilot,2022.1.3,Win32,60.09976561,62c50e9c1127f2cd403a315f,0,92,92,55,1,fourthree,,,,,,,,,,,,,,,,,,,,,,,,,,,,,,,,,,,,,,,,,,,,,,,,,,,,,,,,,,,,,,,,,,,,,,,,,,,,,,,,,,,,,,,,,,,,,,,,,,,,,,,,,,,,,,,,,,,,,,,,,,,,,,,,,,,,,,,,,,,,,,,,,,,,,,,,,,,,,
,,,,,,61516c7d3c833383901cdb54,62c53aa0aa2bc9b5bcef82fa,2022-07-06_09h33.28.558,Colour_Asymmetry_Pilot,2022.1.3,Win32,60.09976561,62c50e9c1127f2cd403a315f,0,93,93,53,1,threefour,,,,,,,,,,,,,,,,,,,,,,,,,,,,,,,,,,,,,,,,,,,,,,,,,,,,,,,,,,,,,,,,,,,,,,,,,,,,,,,,,,,,,,,,,,,,,,,,,,,,,,,,,,,,,,,,,,,,,,,,,,,,,,,,,,,,,,,,,,,,,,,,,,,,,,,,,,,,,
,,,,,,61516c7d3c833383901cdb54,62c53aa0aa2bc9b5bcef82fa,2022-07-06_09h33.28.558,Colour_Asymmetry_Pilot,2022.1.3,Win32,60.09976561,62c50e9c1127f2cd403a315f,0,94,94,115,1,twofour,,,,,,,,,,,,,,,,,,,,,,,,,,,,,,,,,,,,,,,,,,,,,,,,,,,,,,,,,,,,,,,,,,,,,,,,,,,,,,,,,,,,,,,,,,,,,,,,,,,,,,,,,,,,,,,,,,,,,,,,,,,,,,,,,,,,,,,,,,,,,,,,,,,,,,,,,,,,,
,,,,,,61516c7d3c833383901cdb54,62c53aa0aa2bc9b5bcef82fa,2022-07-06_09h33.28.558,Colour_Asymmetry_Pilot,2022.1.3,Win32,60.09976561,62c50e9c1127f2cd403a315f,0,95,95,4,1,threeone,,,,,,,,,,,,,,,,,,,,,,,,,,,,,,,,,,,,,,,,,,,,,,,,,,,,,,,,,,,,,,,,,,,,,,,,,,,,,,,,,,,,,,,,,,,,,,,,,,,,,,,,,,,,,,,,,,,,,,,,,,,,,,,,,,,,,,,,,,,,,,,,,,,,,,,,,,,,,
,,,,,,61516c7d3c833383901cdb54,62c53aa0aa2bc9b5bcef82fa,2022-07-06_09h33.28.558,Colour_Asymmetry_Pilot,2022.1.3,Win32,60.09976561,62c50e9c1127f2cd403a315f,0,96,96,93,1,threefour,,,,,,,,,,,,,,,,,,,,,,,,,,,,,,,,,,,,,,,,,,,,,,,,,,,,,,,,,,,,,,,,,,,,,,,,,,,,,,,,,,,,,,,,,,,,,,,,,,,,,,,,,,,,,,,,,,,,,,,,,,,,,,,,,,,,,,,,,,,,,,,,,,,,,,,,,,,,,
,,,,,,61516c7d3c833383901cdb54,62c53aa0aa2bc9b5bcef82fa,2022-07-06_09h33.28.558,Colour_Asymmetry_Pilot,2022.1.3,Win32,60.09976561,62c50e9c1127f2cd403a315f,0,97,97,96,1,onetwo,,,,,,,,,,,,,,,,,,,,,,,,,,,,,,,,,,,,,,,,,,,,,,,,,,,,,,,,,,,,,,,,,,,,,,,,,,,,,,,,,,,,,,,,,,,,,,,,,,,,,,,,,,,,,,,,,,,,,,,,,,,,,,,,,,,,,,,,,,,,,,,,,,,,,,,,,,,,,
,,,,,,61516c7d3c833383901cdb54,62c53aa0aa2bc9b5bcef82fa,2022-07-06_09h33.28.558,Colour_Asymmetry_Pilot,2022.1.3,Win32,60.09976561,62c50e9c1127f2cd403a315f,0,98,98,72,1,onetwo,,,,,,,,,,,,,,,,,,,,,,,,,,,,,,,,,,,,,,,,,,,,,,,,,,,,,,,,,,,,,,,,,,,,,,,,,,,,,,,,,,,,,,,,,,,,,,,,,,,,,,,,,,,,,,,,,,,,,,,,,,,,,,,,,,,,,,,,,,,,,,,,,,,,,,,,,,,,,
,,,,,,61516c7d3c833383901cdb54,62c53aa0aa2bc9b5bcef82fa,2022-07-06_09h33.28.558,Colour_Asymmetry_Pilot,2022.1.3,Win32,60.09976561,62c50e9c1127f2cd403a315f,0,99,99,81,1,onethree,,,,,,,,,,,,,,,,,,,,,,,,,,,,,,,,,,,,,,,,,,,,,,,,,,,,,,,,,,,,,,,,,,,,,,,,,,,,,,,,,,,,,,,,,,,,,,,,,,,,,,,,,,,,,,,,,,,,,,,,,,,,,,,,,,,,,,,,,,,,,,,,,,,,,,,,,,,,,
,,,,,,61516c7d3c833383901cdb54,62c53aa0aa2bc9b5bcef82fa,2022-07-06_09h33.28.558,Colour_Asymmetry_Pilot,2022.1.3,Win32,60.09976561,62c50e9c1127f2cd403a315f,0,100,100,21,1,threefour,,,,,,,,,,,,,,,,,,,,,,,,,,,,,,,,,,,,,,,,,,,,,,,,,,,,,,,,,,,,,,,,,,,,,,,,,,,,,,,,,,,,,,,,,,,,,,,,,,,,,,,,,,,,,,,,,,,,,,,,,,,,,,,,,,,,,,,,,,,,,,,,,,,,,,,,,,,,,
,,,,,,61516c7d3c833383901cdb54,62c53aa0aa2bc9b5bcef82fa,2022-07-06_09h33.28.558,Colour_Asymmetry_Pilot,2022.1.3,Win32,60.09976561,62c50e9c1127f2cd403a315f,0,101,101,10,1,twoone,,,,,,,,,,,,,,,,,,,,,,,,,,,,,,,,,,,,,,,,,,,,,,,,,,,,,,,,,,,,,,,,,,,,,,,,,,,,,,,,,,,,,,,,,,,,,,,,,,,,,,,,,,,,,,,,,,,,,,,,,,,,,,,,,,,,,,,,,,,,,,,,,,,,,,,,,,,,,
,,,,,,61516c7d3c833383901cdb54,62c53aa0aa2bc9b5bcef82fa,2022-07-06_09h33.28.558,Colour_Asymmetry_Pilot,2022.1.3,Win32,60.09976561,62c50e9c1127f2cd403a315f,0,102,102,8,1,onetwo,,,,,,,,,,,,,,,,,,,,,,,,,,,,,,,,,,,,,,,,,,,,,,,,,,,,,,,,,,,,,,,,,,,,,,,,,,,,,,,,,,,,,,,,,,,,,,,,,,,,,,,,,,,,,,,,,,,,,,,,,,,,,,,,,,,,,,,,,,,,,,,,,,,,,,,,,,,,,
,,,,,,61516c7d3c833383901cdb54,62c53aa0aa2bc9b5bcef82fa,2022-07-06_09h33.28.558,Colour_Asymmetry_Pilot,2022.1.3,Win32,60.09976561,62c50e9c1127f2cd403a315f,0,103,103,17,1,onethree,,,,,,,,,,,,,,,,,,,,,,,,,,,,,,,,,,,,,,,,,,,,,,,,,,,,,,,,,,,,,,,,,,,,,,,,,,,,,,,,,,,,,,,,,,,,,,,,,,,,,,,,,,,,,,,,,,,,,,,,,,,,,,,,,,,,,,,,,,,,,,,,,,,,,,,,,,,,,
,,,,,,61516c7d3c833383901cdb54,62c53aa0aa2bc9b5bcef82fa,2022-07-06_09h33.28.558,Colour_Asymmetry_Pilot,2022.1.3,Win32,60.09976561,62c50e9c1127f2cd403a315f,0,104,104,88,1,onetwo,,,,,,,,,,,,,,,,,,,,,,,,,,,,,,,,,,,,,,,,,,,,,,,,,,,,,,,,,,,,,,,,,,,,,,,,,,,,,,,,,,,,,,,,,,,,,,,,,,,,,,,,,,,,,,,,,,,,,,,,,,,,,,,,,,,,,,,,,,,,,,,,,,,,,,,,,,,,,
,,,,,,61516c7d3c833383901cdb54,62c53aa0aa2bc9b5bcef82fa,2022-07-06_09h33.28.558,Colour_Asymmetry_Pilot,2022.1.3,Win32,60.09976561,62c50e9c1127f2cd403a315f,0,105,105,68,1,threeone,,,,,,,,,,,,,,,,,,,,,,,,,,,,,,,,,,,,,,,,,,,,,,,,,,,,,,,,,,,,,,,,,,,,,,,,,,,,,,,,,,,,,,,,,,,,,,,,,,,,,,,,,,,,,,,,,,,,,,,,,,,,,,,,,,,,,,,,,,,,,,,,,,,,,,,,,,,,,
,,,,,,61516c7d3c833383901cdb54,62c53aa0aa2bc9b5bcef82fa,2022-07-06_09h33.28.558,Colour_Asymmetry_Pilot,2022.1.3,Win32,60.09976561,62c50e9c1127f2cd403a315f,0,106,106,147,1,twofour,,,,,,,,,,,,,,,,,,,,,,,,,,,,,,,,,,,,,,,,,,,,,,,,,,,,,,,,,,,,,,,,,,,,,,,,,,,,,,,,,,,,,,,,,,,,,,,,,,,,,,,,,,,,,,,,,,,,,,,,,,,,,,,,,,,,,,,,,,,,,,,,,,,,,,,,,,,,,
,,,,,,61516c7d3c833383901cdb54,62c53aa0aa2bc9b5bcef82fa,2022-07-06_09h33.28.558,Colour_Asymmetry_Pilot,2022.1.3,Win32,60.09976561,62c50e9c1127f2cd403a315f,0,107,107,143,1,fourthree,,,,,,,,,,,,,,,,,,,,,,,,,,,,,,,,,,,,,,,,,,,,,,,,,,,,,,,,,,,,,,,,,,,,,,,,,,,,,,,,,,,,,,,,,,,,,,,,,,,,,,,,,,,,,,,,,,,,,,,,,,,,,,,,,,,,,,,,,,,,,,,,,,,,,,,,,,,,,
,,,,,,61516c7d3c833383901cdb54,62c53aa0aa2bc9b5bcef82fa,2022-07-06_09h33.28.558,Colour_Asymmetry_Pilot,2022.1.3,Win32,60.09976561,62c50e9c1127f2cd403a315f,0,108,108,52,1,threeone,,,,,,,,,,,,,,,,,,,,,,,,,,,,,,,,,,,,,,,,,,,,,,,,,,,,,,,,,,,,,,,,,,,,,,,,,,,,,,,,,,,,,,,,,,,,,,,,,,,,,,,,,,,,,,,,,,,,,,,,,,,,,,,,,,,,,,,,,,,,,,,,,,,,,,,,,,,,,
,,,,,,61516c7d3c833383901cdb54,62c53aa0aa2bc9b5bcef82fa,2022-07-06_09h33.28.558,Colour_Asymmetry_Pilot,2022.1.3,Win32,60.09976561,62c50e9c1127f2cd403a315f,0,109,109,20,1,threeone,,,,,,,,,,,,,,,,,,,,,,,,,,,,,,,,,,,,,,,,,,,,,,,,,,,,,,,,,,,,,,,,,,,,,,,,,,,,,,,,,,,,,,,,,,,,,,,,,,,,,,,,,,,,,,,,,,,,,,,,,,,,,,,,,,,,,,,,,,,,,,,,,,,,,,,,,,,,,
,,,,,,61516c7d3c833383901cdb54,62c53aa0aa2bc9b5bcef82fa,2022-07-06_09h33.28.558,Colour_Asymmetry_Pilot,2022.1.3,Win32,60.09976561,62c50e9c1127f2cd403a315f,0,110,110,62,1,fourtwo,,,,,,,,,,,,,,,,,,,,,,,,,,,,,,,,,,,,,,,,,,,,,,,,,,,,,,,,,,,,,,,,,,,,,,,,,,,,,,,,,,,,,,,,,,,,,,,,,,,,,,,,,,,,,,,,,,,,,,,,,,,,,,,,,,,,,,,,,,,,,,,,,,,,,,,,,,,,,
,,,,,,61516c7d3c833383901cdb54,62c53aa0aa2bc9b5bcef82fa,2022-07-06_09h33.28.558,Colour_Asymmetry_Pilot,2022.1.3,Win32,60.09976561,62c50e9c1127f2cd403a315f,0,111,111,28,1,threeone,,,,,,,,,,,,,,,,,,,,,,,,,,,,,,,,,,,,,,,,,,,,,,,,,,,,,,,,,,,,,,,,,,,,,,,,,,,,,,,,,,,,,,,,,,,,,,,,,,,,,,,,,,,,,,,,,,,,,,,,,,,,,,,,,,,,,,,,,,,,,,,,,,,,,,,,,,,,,
,,,,,,61516c7d3c833383901cdb54,62c53aa0aa2bc9b5bcef82fa,2022-07-06_09h33.28.558,Colour_Asymmetry_Pilot,2022.1.3,Win32,60.09976561,62c50e9c1127f2cd403a315f,0,112,112,18,1,twoone,,,,,,,,,,,,,,,,,,,,,,,,,,,,,,,,,,,,,,,,,,,,,,,,,,,,,,,,,,,,,,,,,,,,,,,,,,,,,,,,,,,,,,,,,,,,,,,,,,,,,,,,,,,,,,,,,,,,,,,,,,,,,,,,,,,,,,,,,,,,,,,,,,,,,,,,,,,,,
,,,,,,61516c7d3c833383901cdb54,62c53aa0aa2bc9b5bcef82fa,2022-07-06_09h33.28.558,Colour_Asymmetry_Pilot,2022.1.3,Win32,60.09976561,62c50e9c1127f2cd403a315f,0,113,113,64,1,onetwo,,,,,,,,,,,,,,,,,,,,,,,,,,,,,,,,,,,,,,,,,,,,,,,,,,,,,,,,,,,,,,,,,,,,,,,,,,,,,,,,,,,,,,,,,,,,,,,,,,,,,,,,,,,,,,,,,,,,,,,,,,,,,,,,,,,,,,,,,,,,,,,,,,,,,,,,,,,,,
,,,,,,61516c7d3c833383901cdb54,62c53aa0aa2bc9b5bcef82fa,2022-07-06_09h33.28.558,Colour_Asymmetry_Pilot,2022.1.3,Win32,60.09976561,62c50e9c1127f2cd403a315f,0,114,114,5,1,threefour,,,,,,,,,,,,,,,,,,,,,,,,,,,,,,,,,,,,,,,,,,,,,,,,,,,,,,,,,,,,,,,,,,,,,,,,,,,,,,,,,,,,,,,,,,,,,,,,,,,,,,,,,,,,,,,,,,,,,,,,,,,,,,,,,,,,,,,,,,,,,,,,,,,,,,,,,,,,,
,,,,,,61516c7d3c833383901cdb54,62c53aa0aa2bc9b5bcef82fa,2022-07-06_09h33.28.558,Colour_Asymmetry_Pilot,2022.1.3,Win32,60.09976561,62c50e9c1127f2cd403a315f,0,115,115,69,1,threefour,,,,,,,,,,,,,,,,,,,,,,,,,,,,,,,,,,,,,,,,,,,,,,,,,,,,,,,,,,,,,,,,,,,,,,,,,,,,,,,,,,,,,,,,,,,,,,,,,,,,,,,,,,,,,,,,,,,,,,,,,,,,,,,,,,,,,,,,,,,,,,,,,,,,,,,,,,,,,
,,,,,,61516c7d3c833383901cdb54,62c53aa0aa2bc9b5bcef82fa,2022-07-06_09h33.28.558,Colour_Asymmetry_Pilot,2022.1.3,Win32,60.09976561,62c50e9c1127f2cd403a315f,0,116,116,124,1,threeone,,,,,,,,,,,,,,,,,,,,,,,,,,,,,,,,,,,,,,,,,,,,,,,,,,,,,,,,,,,,,,,,,,,,,,,,,,,,,,,,,,,,,,,,,,,,,,,,,,,,,,,,,,,,,,,,,,,,,,,,,,,,,,,,,,,,,,,,,,,,,,,,,,,,,,,,,,,,,
,,,,,,61516c7d3c833383901cdb54,62c53aa0aa2bc9b5bcef82fa,2022-07-06_09h33.28.558,Colour_Asymmetry_Pilot,2022.1.3,Win32,60.09976561,62c50e9c1127f2cd403a315f,0,117,117,130,1,twoone,,,,,,,,,,,,,,,,,,,,,,,,,,,,,,,,,,,,,,,,,,,,,,,,,,,,,,,,,,,,,,,,,,,,,,,,,,,,,,,,,,,,,,,,,,,,,,,,,,,,,,,,,,,,,,,,,,,,,,,,,,,,,,,,,,,,,,,,,,,,,,,,,,,,,,,,,,,,,
,,,,,,61516c7d3c833383901cdb54,62c53aa0aa2bc9b5bcef82fa,2022-07-06_09h33.28.558,Colour_Asymmetry_Pilot,2022.1.3,Win32,60.09976561,62c50e9c1127f2cd403a315f,0,118,118,54,1,fourtwo,,,,,,,,,,,,,,,,,,,,,,,,,,,,,,,,,,,,,,,,,,,,,,,,,,,,,,,,,,,,,,,,,,,,,,,,,,,,,,,,,,,,,,,,,,,,,,,,,,,,,,,,,,,,,,,,,,,,,,,,,,,,,,,,,,,,,,,,,,,,,,,,,,,,,,,,,,,,,
,,,,,,61516c7d3c833383901cdb54,62c53aa0aa2bc9b5bcef82fa,2022-07-06_09h33.28.558,Colour_Asymmetry_Pilot,2022.1.3,Win32,60.09976561,62c50e9c1127f2cd403a315f,0,119,119,157,1,threefour,,,,,,,,,,,,,,,,,,,,,,,,,,,,,,,,,,,,,,,,,,,,,,,,,,,,,,,,,,,,,,,,,,,,,,,,,,,,,,,,,,,,,,,,,,,,,,,,,,,,,,,,,,,,,,,,,,,,,,,,,,,,,,,,,,,,,,,,,,,,,,,,,,,,,,,,,,,,,
,,,,,,61516c7d3c833383901cdb54,62c53aa0aa2bc9b5bcef82fa,2022-07-06_09h33.28.558,Colour_Asymmetry_Pilot,2022.1.3,Win32,60.09976561,62c50e9c1127f2cd403a315f,0,120,120,103,1,fourthree,,,,,,,,,,,,,,,,,,,,,,,,,,,,,,,,,,,,,,,,,,,,,,,,,,,,,,,,,,,,,,,,,,,,,,,,,,,,,,,,,,,,,,,,,,,,,,,,,,,,,,,,,,,,,,,,,,,,,,,,,,,,,,,,,,,,,,,,,,,,,,,,,,,,,,,,,,,,,
,,,,,,61516c7d3c833383901cdb54,62c53aa0aa2bc9b5bcef82fa,2022-07-06_09h33.28.558,Colour_Asymmetry_Pilot,2022.1.3,Win32,60.09976561,62c50e9c1127f2cd403a315f,0,121,121,7,1,fourthree,,,,,,,,,,,,,,,,,,,,,,,,,,,,,,,,,,,,,,,,,,,,,,,,,,,,,,,,,,,,,,,,,,,,,,,,,,,,,,,,,,,,,,,,,,,,,,,,,,,,,,,,,,,,,,,,,,,,,,,,,,,,,,,,,,,,,,,,,,,,,,,,,,,,,,,,,,,,,
,,,,,,61516c7d3c833383901cdb54,62c53aa0aa2bc9b5bcef82fa,2022-07-06_09h33.28.558,Colour_Asymmetry_Pilot,2022.1.3,Win32,60.09976561,62c50e9c1127f2cd403a315f,0,122,122,40,1,onetwo,,,,,,,,,,,,,,,,,,,,,,,,,,,,,,,,,,,,,,,,,,,,,,,,,,,,,,,,,,,,,,,,,,,,,,,,,,,,,,,,,,,,,,,,,,,,,,,,,,,,,,,,,,,,,,,,,,,,,,,,,,,,,,,,,,,,,,,,,,,,,,,,,,,,,,,,,,,,,
,,,,,,61516c7d3c833383901cdb54,62c53aa0aa2bc9b5bcef82fa,2022-07-06_09h33.28.558,Colour_Asymmetry_Pilot,2022.1.3,Win32,60.09976561,62c50e9c1127f2cd403a315f,0,123,123,126,1,fourtwo,,,,,,,,,,,,,,,,,,,,,,,,,,,,,,,,,,,,,,,,,,,,,,,,,,,,,,,,,,,,,,,,,,,,,,,,,,,,,,,,,,,,,,,,,,,,,,,,,,,,,,,,,,,,,,,,,,,,,,,,,,,,,,,,,,,,,,,,,,,,,,,,,,,,,,,,,,,,,
,,,,,,61516c7d3c833383901cdb54,62c53aa0aa2bc9b5bcef82fa,2022-07-06_09h33.28.558,Colour_Asymmetry_Pilot,2022.1.3,Win32,60.09976561,62c50e9c1127f2cd403a315f,0,124,124,37,1,threefour,,,,,,,,,,,,,,,,,,,,,,,,,,,,,,,,,,,,,,,,,,,,,,,,,,,,,,,,,,,,,,,,,,,,,,,,,,,,,,,,,,,,,,,,,,,,,,,,,,,,,,,,,,,,,,,,,,,,,,,,,,,,,,,,,,,,,,,,,,,,,,,,,,,,,,,,,,,,,
,,,,,,61516c7d3c833383901cdb54,62c53aa0aa2bc9b5bcef82fa,2022-07-06_09h33.28.558,Colour_Asymmetry_Pilot,2022.1.3,Win32,60.09976561,62c50e9c1127f2cd403a315f,0,125,125,141,1,threefour,,,,,,,,,,,,,,,,,,,,,,,,,,,,,,,,,,,,,,,,,,,,,,,,,,,,,,,,,,,,,,,,,,,,,,,,,,,,,,,,,,,,,,,,,,,,,,,,,,,,,,,,,,,,,,,,,,,,,,,,,,,,,,,,,,,,,,,,,,,,,,,,,,,,,,,,,,,,,
,,,,,,61516c7d3c833383901cdb54,62c53aa0aa2bc9b5bcef82fa,2022-07-06_09h33.28.558,Colour_Asymmetry_Pilot,2022.1.3,Win32,60.09976561,62c50e9c1127f2cd403a315f,0,126,126,91,1,twofour,,,,,,,,,,,,,,,,,,,,,,,,,,,,,,,,,,,,,,,,,,,,,,,,,,,,,,,,,,,,,,,,,,,,,,,,,,,,,,,,,,,,,,,,,,,,,,,,,,,,,,,,,,,,,,,,,,,,,,,,,,,,,,,,,,,,,,,,,,,,,,,,,,,,,,,,,,,,,
,,,,,,61516c7d3c833383901cdb54,62c53aa0aa2bc9b5bcef82fa,2022-07-06_09h33.28.558,Colour_Asymmetry_Pilot,2022.1.3,Win32,60.09976561,62c50e9c1127f2cd403a315f,0,127,127,100,1,threeone,,,,,,,,,,,,,,,,,,,,,,,,,,,,,,,,,,,,,,,,,,,,,,,,,,,,,,,,,,,,,,,,,,,,,,,,,,,,,,,,,,,,,,,,,,,,,,,,,,,,,,,,,,,,,,,,,,,,,,,,,,,,,,,,,,,,,,,,,,,,,,,,,,,,,,,,,,,,,
,,,,,,61516c7d3c833383901cdb54,62c53aa0aa2bc9b5bcef82fa,2022-07-06_09h33.28.558,Colour_Asymmetry_Pilot,2022.1.3,Win32,60.09976561,62c50e9c1127f2cd403a315f,0,128,128,122,1,twoone,,,,,,,,,,,,,,,,,,,,,,,,,,,,,,,,,,,,,,,,,,,,,,,,,,,,,,,,,,,,,,,,,,,,,,,,,,,,,,,,,,,,,,,,,,,,,,,,,,,,,,,,,,,,,,,,,,,,,,,,,,,,,,,,,,,,,,,,,,,,,,,,,,,,,,,,,,,,,
,,,,,,61516c7d3c833383901cdb54,62c53aa0aa2bc9b5bcef82fa,2022-07-06_09h33.28.558,Colour_Asymmetry_Pilot,2022.1.3,Win32,60.09976561,62c50e9c1127f2cd403a315f,0,129,129,149,1,threefour,,,,,,,,,,,,,,,,,,,,,,,,,,,,,,,,,,,,,,,,,,,,,,,,,,,,,,,,,,,,,,,,,,,,,,,,,,,,,,,,,,,,,,,,,,,,,,,,,,,,,,,,,,,,,,,,,,,,,,,,,,,,,,,,,,,,,,,,,,,,,,,,,,,,,,,,,,,,,
,,,,,,61516c7d3c833383901cdb54,62c53aa0aa2bc9b5bcef82fa,2022-07-06_09h33.28.558,Colour_Asymmetry_Pilot,2022.1.3,Win32,60.09976561,62c50e9c1127f2cd403a315f,0,130,130,153,1,onethree,,,,,,,,,,,,,,,,,,,,,,,,,,,,,,,,,,,,,,,,,,,,,,,,,,,,,,,,,,,,,,,,,,,,,,,,,,,,,,,,,,,,,,,,,,,,,,,,,,,,,,,,,,,,,,,,,,,,,,,,,,,,,,,,,,,,,,,,,,,,,,,,,,,,,,,,,,,,,
,,,,,,61516c7d3c833383901cdb54,62c53aa0aa2bc9b5bcef82fa,2022-07-06_09h33.28.558,Colour_Asymmetry_Pilot,2022.1.3,Win32,60.09976561,62c50e9c1127f2cd403a315f,0,131,131,137,1,onethree,,,,,,,,,,,,,,,,,,,,,,,,,,,,,,,,,,,,,,,,,,,,,,,,,,,,,,,,,,,,,,,,,,,,,,,,,,,,,,,,,,,,,,,,,,,,,,,,,,,,,,,,,,,,,,,,,,,,,,,,,,,,,,,,,,,,,,,,,,,,,,,,,,,,,,,,,,,,,
,,,,,,61516c7d3c833383901cdb54,62c53aa0aa2bc9b5bcef82fa,2022-07-06_09h33.28.558,Colour_Asymmetry_Pilot,2022.1.3,Win32,60.09976561,62c50e9c1127f2cd403a315f,0,132,132,87,1,fourthree,,,,,,,,,,,,,,,,,,,,,,,,,,,,,,,,,,,,,,,,,,,,,,,,,,,,,,,,,,,,,,,,,,,,,,,,,,,,,,,,,,,,,,,,,,,,,,,,,,,,,,,,,,,,,,,,,,,,,,,,,,,,,,,,,,,,,,,,,,,,,,,,,,,,,,,,,,,,,
,,,,,,61516c7d3c833383901cdb54,62c53aa0aa2bc9b5bcef82fa,2022-07-06_09h33.28.558,Colour_Asymmetry_Pilot,2022.1.3,Win32,60.09976561,62c50e9c1127f2cd403a315f,0,133,133,95,1,fourthree,,,,,,,,,,,,,,,,,,,,,,,,,,,,,,,,,,,,,,,,,,,,,,,,,,,,,,,,,,,,,,,,,,,,,,,,,,,,,,,,,,,,,,,,,,,,,,,,,,,,,,,,,,,,,,,,,,,,,,,,,,,,,,,,,,,,,,,,,,,,,,,,,,,,,,,,,,,,,
,,,,,,61516c7d3c833383901cdb54,62c53aa0aa2bc9b5bcef82fa,2022-07-06_09h33.28.558,Colour_Asymmetry_Pilot,2022.1.3,Win32,60.09976561,62c50e9c1127f2cd403a315f,0,134,134,25,1,onethree,,,,,,,,,,,,,,,,,,,,,,,,,,,,,,,,,,,,,,,,,,,,,,,,,,,,,,,,,,,,,,,,,,,,,,,,,,,,,,,,,,,,,,,,,,,,,,,,,,,,,,,,,,,,,,,,,,,,,,,,,,,,,,,,,,,,,,,,,,,,,,,,,,,,,,,,,,,,,
,,,,,,61516c7d3c833383901cdb54,62c53aa0aa2bc9b5bcef82fa,2022-07-06_09h33.28.558,Colour_Asymmetry_Pilot,2022.1.3,Win32,60.09976561,62c50e9c1127f2cd403a315f,0,135,135,135,1,fourthree,,,,,,,,,,,,,,,,,,,,,,,,,,,,,,,,,,,,,,,,,,,,,,,,,,,,,,,,,,,,,,,,,,,,,,,,,,,,,,,,,,,,,,,,,,,,,,,,,,,,,,,,,,,,,,,,,,,,,,,,,,,,,,,,,,,,,,,,,,,,,,,,,,,,,,,,,,,,,
,,,,,,61516c7d3c833383901cdb54,62c53aa0aa2bc9b5bcef82fa,2022-07-06_09h33.28.558,Colour_Asymmetry_Pilot,2022.1.3,Win32,60.09976561,62c50e9c1127f2cd403a315f,0,136,136,118,1,fourtwo,,,,,,,,,,,,,,,,,,,,,,,,,,,,,,,,,,,,,,,,,,,,,,,,,,,,,,,,,,,,,,,,,,,,,,,,,,,,,,,,,,,,,,,,,,,,,,,,,,,,,,,,,,,,,,,,,,,,,,,,,,,,,,,,,,,,,,,,,,,,,,,,,,,,,,,,,,,,,
,,,,,,61516c7d3c833383901cdb54,62c53aa0aa2bc9b5bcef82fa,2022-07-06_09h33.28.558,Colour_Asymmetry_Pilot,2022.1.3,Win32,60.09976561,62c50e9c1127f2cd403a315f,0,137,137,19,1,twofour,,,,,,,,,,,,,,,,,,,,,,,,,,,,,,,,,,,,,,,,,,,,,,,,,,,,,,,,,,,,,,,,,,,,,,,,,,,,,,,,,,,,,,,,,,,,,,,,,,,,,,,,,,,,,,,,,,,,,,,,,,,,,,,,,,,,,,,,,,,,,,,,,,,,,,,,,,,,,
,,,,,,61516c7d3c833383901cdb54,62c53aa0aa2bc9b5bcef82fa,2022-07-06_09h33.28.558,Colour_Asymmetry_Pilot,2022.1.3,Win32,60.09976561,62c50e9c1127f2cd403a315f,0,138,138,70,1,fourtwo,,,,,,,,,,,,,,,,,,,,,,,,,,,,,,,,,,,,,,,,,,,,,,,,,,,,,,,,,,,,,,,,,,,,,,,,,,,,,,,,,,,,,,,,,,,,,,,,,,,,,,,,,,,,,,,,,,,,,,,,,,,,,,,,,,,,,,,,,,,,,,,,,,,,,,,,,,,,,
,,,,,,61516c7d3c833383901cdb54,62c53aa0aa2bc9b5bcef82fa,2022-07-06_09h33.28.558,Colour_Asymmetry_Pilot,2022.1.3,Win32,60.09976561,62c50e9c1127f2cd403a315f,0,139,139,71,1,fourthree,,,,,,,,,,,,,,,,,,,,,,,,,,,,,,,,,,,,,,,,,,,,,,,,,,,,,,,,,,,,,,,,,,,,,,,,,,,,,,,,,,,,,,,,,,,,,,,,,,,,,,,,,,,,,,,,,,,,,,,,,,,,,,,,,,,,,,,,,,,,,,,,,,,,,,,,,,,,,
,,,,,,61516c7d3c833383901cdb54,62c53aa0aa2bc9b5bcef82fa,2022-07-06_09h33.28.558,Colour_Asymmetry_Pilot,2022.1.3,Win32,60.09976561,62c50e9c1127f2cd403a315f,0,140,140,140,1,threeone,,,,,,,,,,,,,,,,,,,,,,,,,,,,,,,,,,,,,,,,,,,,,,,,,,,,,,,,,,,,,,,,,,,,,,,,,,,,,,,,,,,,,,,,,,,,,,,,,,,,,,,,,,,,,,,,,,,,,,,,,,,,,,,,,,,,,,,,,,,,,,,,,,,,,,,,,,,,,
,,,,,,61516c7d3c833383901cdb54,62c53aa0aa2bc9b5bcef82fa,2022-07-06_09h33.28.558,Colour_Asymmetry_Pilot,2022.1.3,Win32,60.09976561,62c50e9c1127f2cd403a315f,0,141,141,156,1,threeone,,,,,,,,,,,,,,,,,,,,,,,,,,,,,,,,,,,,,,,,,,,,,,,,,,,,,,,,,,,,,,,,,,,,,,,,,,,,,,,,,,,,,,,,,,,,,,,,,,,,,,,,,,,,,,,,,,,,,,,,,,,,,,,,,,,,,,,,,,,,,,,,,,,,,,,,,,,,,
,,,,,,61516c7d3c833383901cdb54,62c53aa0aa2bc9b5bcef82fa,2022-07-06_09h33.28.558,Colour_Asymmetry_Pilot,2022.1.3,Win32,60.09976561,62c50e9c1127f2cd403a315f,0,142,142,12,1,threeone,,,,,,,,,,,,,,,,,,,,,,,,,,,,,,,,,,,,,,,,,,,,,,,,,,,,,,,,,,,,,,,,,,,,,,,,,,,,,,,,,,,,,,,,,,,,,,,,,,,,,,,,,,,,,,,,,,,,,,,,,,,,,,,,,,,,,,,,,,,,,,,,,,,,,,,,,,,,,
,,,,,,61516c7d3c833383901cdb54,62c53aa0aa2bc9b5bcef82fa,2022-07-06_09h33.28.558,Colour_Asymmetry_Pilot,2022.1.3,Win32,60.09976561,62c50e9c1127f2cd403a315f,0,143,143,32,1,onetwo,,,,,,,,,,,,,,,,,,,,,,,,,,,,,,,,,,,,,,,,,,,,,,,,,,,,,,,,,,,,,,,,,,,,,,,,,,,,,,,,,,,,,,,,,,,,,,,,,,,,,,,,,,,,,,,,,,,,,,,,,,,,,,,,,,,,,,,,,,,,,,,,,,,,,,,,,,,,,
,,,,,,61516c7d3c833383901cdb54,62c53aa0aa2bc9b5bcef82fa,2022-07-06_09h33.28.558,Colour_Asymmetry_Pilot,2022.1.3,Win32,60.09976561,62c50e9c1127f2cd403a315f,0,144,144,0,1,onetwo,,,,,,,,,,,,,,,,,,,,,,,,,,,,,,,,,,,,,,,,,,,,,,,,,,,,,,,,,,,,,,,,,,,,,,,,,,,,,,,,,,,,,,,,,,,,,,,,,,,,,,,,,,,,,,,,,,,,,,,,,,,,,,,,,,,,,,,,,,,,,,,,,,,,,,,,,,,,,
,,,,,,61516c7d3c833383901cdb54,62c53aa0aa2bc9b5bcef82fa,2022-07-06_09h33.28.558,Colour_Asymmetry_Pilot,2022.1.3,Win32,60.09976561,62c50e9c1127f2cd403a315f,0,145,145,144,1,onetwo,,,,,,,,,,,,,,,,,,,,,,,,,,,,,,,,,,,,,,,,,,,,,,,,,,,,,,,,,,,,,,,,,,,,,,,,,,,,,,,,,,,,,,,,,,,,,,,,,,,,,,,,,,,,,,,,,,,,,,,,,,,,,,,,,,,,,,,,,,,,,,,,,,,,,,,,,,,,,
,,,,,,61516c7d3c833383901cdb54,62c53aa0aa2bc9b5bcef82fa,2022-07-06_09h33.28.558,Colour_Asymmetry_Pilot,2022.1.3,Win32,60.09976561,62c50e9c1127f2cd403a315f,0,146,146,58,1,twoone,,,,,,,,,,,,,,,,,,,,,,,,,,,,,,,,,,,,,,,,,,,,,,,,,,,,,,,,,,,,,,,,,,,,,,,,,,,,,,,,,,,,,,,,,,,,,,,,,,,,,,,,,,,,,,,,,,,,,,,,,,,,,,,,,,,,,,,,,,,,,,,,,,,,,,,,,,,,,
,,,,,,61516c7d3c833383901cdb54,62c53aa0aa2bc9b5bcef82fa,2022-07-06_09h33.28.558,Colour_Asymmetry_Pilot,2022.1.3,Win32,60.09976561,62c50e9c1127f2cd403a315f,0,147,147,75,1,twofour,,,,,,,,,,,,,,,,,,,,,,,,,,,,,,,,,,,,,,,,,,,,,,,,,,,,,,,,,,,,,,,,,,,,,,,,,,,,,,,,,,,,,,,,,,,,,,,,,,,,,,,,,,,,,,,,,,,,,,,,,,,,,,,,,,,,,,,,,,,,,,,,,,,,,,,,,,,,,
,,,,,,61516c7d3c833383901cdb54,62c53aa0aa2bc9b5bcef82fa,2022-07-06_09h33.28.558,Colour_Asymmetry_Pilot,2022.1.3,Win32,60.09976561,62c50e9c1127f2cd403a315f,0,148,148,150,1,fourtwo,,,,,,,,,,,,,,,,,,,,,,,,,,,,,,,,,,,,,,,,,,,,,,,,,,,,,,,,,,,,,,,,,,,,,,,,,,,,,,,,,,,,,,,,,,,,,,,,,,,,,,,,,,,,,,,,,,,,,,,,,,,,,,,,,,,,,,,,,,,,,,,,,,,,,,,,,,,,,
,,,,,,61516c7d3c833383901cdb54,62c53aa0aa2bc9b5bcef82fa,2022-07-06_09h33.28.558,Colour_Asymmetry_Pilot,2022.1.3,Win32,60.09976561,62c50e9c1127f2cd403a315f,0,149,149,116,1,threeone,,,,,,,,,,,,,,,,,,,,,,,,,,,,,,,,,,,,,,,,,,,,,,,,,,,,,,,,,,,,,,,,,,,,,,,,,,,,,,,,,,,,,,,,,,,,,,,,,,,,,,,,,,,,,,,,,,,,,,,,,,,,,,,,,,,,,,,,,,,,,,,,,,,,,,,,,,,,,
,,,,,,61516c7d3c833383901cdb54,62c53aa0aa2bc9b5bcef82fa,2022-07-06_09h33.28.558,Colour_Asymmetry_Pilot,2022.1.3,Win32,60.09976561,62c50e9c1127f2cd403a315f,0,150,150,145,1,onethree,,,,,,,,,,,,,,,,,,,,,,,,,,,,,,,,,,,,,,,,,,,,,,,,,,,,,,,,,,,,,,,,,,,,,,,,,,,,,,,,,,,,,,,,,,,,,,,,,,,,,,,,,,,,,,,,,,,,,,,,,,,,,,,,,,,,,,,,,,,,,,,,,,,,,,,,,,,,,
,,,,,,61516c7d3c833383901cdb54,62c53aa0aa2bc9b5bcef82fa,2022-07-06_09h33.28.558,Colour_Asymmetry_Pilot,2022.1.3,Win32,60.09976561,62c50e9c1127f2cd403a315f,0,151,151,35,1,twofour,,,,,,,,,,,,,,,,,,,,,,,,,,,,,,,,,,,,,,,,,,,,,,,,,,,,,,,,,,,,,,,,,,,,,,,,,,,,,,,,,,,,,,,,,,,,,,,,,,,,,,,,,,,,,,,,,,,,,,,,,,,,,,,,,,,,,,,,,,,,,,,,,,,,,,,,,,,,,
,,,,,,61516c7d3c833383901cdb54,62c53aa0aa2bc9b5bcef82fa,2022-07-06_09h33.28.558,Colour_Asymmetry_Pilot,2022.1.3,Win32,60.09976561,62c50e9c1127f2cd403a315f,0,152,152,112,1,onetwo,,,,,,,,,,,,,,,,,,,,,,,,,,,,,,,,,,,,,,,,,,,,,,,,,,,,,,,,,,,,,,,,,,,,,,,,,,,,,,,,,,,,,,,,,,,,,,,,,,,,,,,,,,,,,,,,,,,,,,,,,,,,,,,,,,,,,,,,,,,,,,,,,,,,,,,,,,,,,
,,,,,,61516c7d3c833383901cdb54,62c53aa0aa2bc9b5bcef82fa,2022-07-06_09h33.28.558,Colour_Asymmetry_Pilot,2022.1.3,Win32,60.09976561,62c50e9c1127f2cd403a315f,0,153,153,86,1,fourtwo,,,,,,,,,,,,,,,,,,,,,,,,,,,,,,,,,,,,,,,,,,,,,,,,,,,,,,,,,,,,,,,,,,,,,,,,,,,,,,,,,,,,,,,,,,,,,,,,,,,,,,,,,,,,,,,,,,,,,,,,,,,,,,,,,,,,,,,,,,,,,,,,,,,,,,,,,,,,,
,,,,,,61516c7d3c833383901cdb54,62c53aa0aa2bc9b5bcef82fa,2022-07-06_09h33.28.558,Colour_Asymmetry_Pilot,2022.1.3,Win32,60.09976561,62c50e9c1127f2cd403a315f,0,154,154,102,1,fourtwo,,,,,,,,,,,,,,,,,,,,,,,,,,,,,,,,,,,,,,,,,,,,,,,,,,,,,,,,,,,,,,,,,,,,,,,,,,,,,,,,,,,,,,,,,,,,,,,,,,,,,,,,,,,,,,,,,,,,,,,,,,,,,,,,,,,,,,,,,,,,,,,,,,,,,,,,,,,,,
,,,,,,61516c7d3c833383901cdb54,62c53aa0aa2bc9b5bcef82fa,2022-07-06_09h33.28.558,Colour_Asymmetry_Pilot,2022.1.3,Win32,60.09976561,62c50e9c1127f2cd403a315f,0,155,155,92,1,threeone,,,,,,,,,,,,,,,,,,,,,,,,,,,,,,,,,,,,,,,,,,,,,,,,,,,,,,,,,,,,,,,,,,,,,,,,,,,,,,,,,,,,,,,,,,,,,,,,,,,,,,,,,,,,,,,,,,,,,,,,,,,,,,,,,,,,,,,,,,,,,,,,,,,,,,,,,,,,,
,,,,,,61516c7d3c833383901cdb54,62c53aa0aa2bc9b5bcef82fa,2022-07-06_09h33.28.558,Colour_Asymmetry_Pilot,2022.1.3,Win32,60.09976561,62c50e9c1127f2cd403a315f,0,156,156,66,1,twoone,,,,,,,,,,,,,,,,,,,,,,,,,,,,,,,,,,,,,,,,,,,,,,,,,,,,,,,,,,,,,,,,,,,,,,,,,,,,,,,,,,,,,,,,,,,,,,,,,,,,,,,,,,,,,,,,,,,,,,,,,,,,,,,,,,,,,,,,,,,,,,,,,,,,,,,,,,,,,
,,,,,,61516c7d3c833383901cdb54,62c53aa0aa2bc9b5bcef82fa,2022-07-06_09h33.28.558,Colour_Asymmetry_Pilot,2022.1.3,Win32,60.09976561,62c50e9c1127f2cd403a315f,0,157,157,13,1,threefour,,,,,,,,,,,,,,,,,,,,,,,,,,,,,,,,,,,,,,,,,,,,,,,,,,,,,,,,,,,,,,,,,,,,,,,,,,,,,,,,,,,,,,,,,,,,,,,,,,,,,,,,,,,,,,,,,,,,,,,,,,,,,,,,,,,,,,,,,,,,,,,,,,,,,,,,,,,,,
,,,,,,61516c7d3c833383901cdb54,62c53aa0aa2bc9b5bcef82fa,2022-07-06_09h33.28.558,Colour_Asymmetry_Pilot,2022.1.3,Win32,60.09976561,62c50e9c1127f2cd403a315f,0,158,158,9,1,onethree,,,,,,,,,,,,,,,,,,,,,,,,,,,,,,,,,,,,,,,,,,,,,,,,,,,,,,,,,,,,,,,,,,,,,,,,,,,,,,,,,,,,,,,,,,,,,,,,,,,,,,,,,,,,,,,,,,,,,,,,,,,,,,,,,,,,,,,,,,,,,,,,,,,,,,,,,,,,,
,,,,,,61516c7d3c833383901cdb54,62c53aa0aa2bc9b5bcef82fa,2022-07-06_09h33.28.558,Colour_Asymmetry_Pilot,2022.1.3,Win32,60.09976561,62c50e9c1127f2cd403a315f,0,159,159,82,1,twoone,,,,,,,,,,,,,,,,,,,,,,,,,,,,,,,,,,,,,,,,,,,,,,,,,,,,,,,,,,,,,,,,,,,,,,,,,,,,,,,,,,,,,,,,,,,,,,,,,,,,,,,,,,,,,,,,,,,,,,,,,,,,,,,,,,,,,,,,,,,,,,,,,,,,,,,,,,,,,
,,,,,,61516c7d3c833383901cdb54,62c53aa0aa2bc9b5bcef82fa,2022-07-06_09h33.28.558,Colour_Asymmetry_Pilot,2022.1.3,Win32,60.09976561,62c50e9c1127f2cd403a315f,0,160,160,26,1,twoone,,,,,,,,,,,,,,,,,,,,,,,,,,,,,,,,,,,,,,,,,,,,,,,,,,,,,,,,,,,,,,,,,,,,,,,,,,,,,,,,,,,,,,,,,,,,,,,,,,,,,,,,,,,,,,,,,,,,,,,,,,,,,,,,,,,,,,,,,,,,,,,,,,,,,,,,,,,,,
,,,,,,61516c7d3c833383901cdb54,62c53aa0aa2bc9b5bcef82fa,2022-07-06_09h33.28.558,Colour_Asymmetry_Pilot,2022.1.3,Win32,60.09976561,62c50e9c1127f2cd403a315f,0,161,161,160,1,onetwo,,,,,,,,,,,,,,,,,,,,,,,,,,,,,,,,,,,,,,,,,,,,,,,,,,,,,,,,,,,,,,,,,,,,,,,,,,,,,,,,,,,,,,,,,,,,,,,,,,,,,,,,,,,,,,,,,,,,,,,,,,,,,,,,,,,,,,,,,,,,,,,,,,,,,,,,,,,,,
,,,,,,61516c7d3c833383901cdb54,62c53aa0aa2bc9b5bcef82fa,2022-07-06_09h33.28.558,Colour_Asymmetry_Pilot,2022.1.3,Win32,60.09976561,62c50e9c1127f2cd403a315f,,,,,,,space,6.9845,space,34.2425,space,51.6318,space,13.1887,space,2.9175,space,3.6711,"[0.7802,-0.23140000000000005,-0.20799999999999996]",fourtwo,"[0.34099999999999997,0.5841999999999998,-0.9844]",-3,8.1422,-174,147.5,1,0,0,response7disk_5,7,-5.5,1,0,0,rectangle_8,7,-5.5,1,0,0,1,7,-5.5,1,0,0,0,0,0,0,1,,,,,,,,,,,,,,,,,,,,,,,,,,,,,,,,,,,,,,,,,,,,,,,,,,,,,,,,,,,,,,,,,,,,,,,,,,,,,,,,,,,,,,,,,,,,,,,,,,,,,,,,,,,,,,,,
,,,,,,61516c7d3c833383901cdb54,62c53aa0aa2bc9b5bcef82fa,2022-07-06_09h33.28.558,Colour_Asymmetry_Pilot,2022.1.3,Win32,60.09976561,62c50e9c1127f2cd403a315f,,,,,,,,,,,,,,,,,,,"[-0.10599999999999998,-0.10599999999999998,0.5841999999999998]",onethree,"[0.7646000000000002,0.07440000000000002,0.2704]",-3,2.8519,-97,60.5,1,0,0,response7disk_5,-3,0.5,1,0,0,rectangle_8,-3,0.5,1,0,0,1,-3,0.5,1,0,0,1,0,1,0,1,,,,,,,,,,,,,,,,,,,,,,,,,,,,,,,,,,,,,,,,,,,,,,,,,,,,,,,,,,,,,,,,,,,,,,,,,,,,,,,,,,,,,,,,,,,,,,,,,,,,,,,,,,,,,,,,
,,,,,,61516c7d3c833383901cdb54,62c53aa0aa2bc9b5bcef82fa,2022-07-06_09h33.28.558,Colour_Asymmetry_Pilot,2022.1.3,Win32,60.09976561,62c50e9c1127f2cd403a315f,,,,,,,,,,,,,,,,,,,"[-0.9688,-0.4902000000000001,-0.12159999999999993]",twofour,"[0.04299999999999993,0.16060000000000008,-0.6628000000000001]",-3,1.9509,-77,73.5,1,0,0,response7disk_5,-12,-0.5,1,0,0,rectangle_8,-12,-0.5,1,0,0,1,-12,-0.5,1,0,0,2,0,2,0,1,,,,,,,,,,,,,,,,,,,,,,,,,,,,,,,,,,,,,,,,,,,,,,,,,,,,,,,,,,,,,,,,,,,,,,,,,,,,,,,,,,,,,,,,,,,,,,,,,,,,,,,,,,,,,,,,
,,,,,,61516c7d3c833383901cdb54,62c53aa0aa2bc9b5bcef82fa,2022-07-06_09h33.28.558,Colour_Asymmetry_Pilot,2022.1.3,Win32,60.09976561,62c50e9c1127f2cd403a315f,,,,,,,,,,,,,,,,,,,"[0.8274000000000001,-0.5844,-0.9452]",threefour,"[-0.4902000000000001,0.2704,-0.45899999999999996]",-4,0.8004,-110,111.5,1,0,0,response7disk_5,-23,-5.5,1,0,0,rectangle_8,108,-137.5,1,0,0,1,-4,9.5,1,0,0,3,0,3,0,1,response3disk_7,4,rectangle_4,,,,,,,,,,,,,,,,,,,,,,,,,,,,,,,,,,,,,,,,,,,,,,,,,,,,,,,,,,,,,,,,,,,,,,,,,,,,,,,,,,,,,,,,,,,,,,,,,,,,,,,,,,,,,
,,,,,,61516c7d3c833383901cdb54,62c53aa0aa2bc9b5bcef82fa,2022-07-06_09h33.28.558,Colour_Asymmetry_Pilot,2022.1.3,Win32,60.09976561,62c50e9c1127f2cd403a315f,,,,,,,,,,,,,,,,,,,"[-0.5922000000000001,-0.7492000000000001,-0.5296000000000001]",fourtwo,"[-0.24719999999999998,0.5213999999999999,-0.12959999999999994]",-3,1.0164,-138,115.5,1,0,0,response7disk_5,-13,-2.5,1,0,0,rectangle_8,-13,-2.5,1,0,0,1,-13,-2.5,1,0,0,4,0,4,0,1,,,,,,,,,,,,,,,,,,,,,,,,,,,,,,,,,,,,,,,,,,,,,,,,,,,,,,,,,,,,,,,,,,,,,,,,,,,,,,,,,,,,,,,,,,,,,,,,,,,,,,,,,,,,,,,,
,,,,,,61516c7d3c833383901cdb54,62c53aa0aa2bc9b5bcef82fa,2022-07-06_09h33.28.558,Colour_Asymmetry_Pilot,2022.1.3,Win32,60.09976561,62c50e9c1127f2cd403a315f,,,,,,,,,,,,,,,,,,,"[-0.6235999999999999,-0.6786,-0.08239999999999992]",threeone,"[0.9842,0.7409999999999999,-0.6628000000000001]",-3,0.9333,-153,122.5,1,0,0,response7disk_5,3,-2.5,1,0,0,rectangle_8,3,-2.5,1,0,0,1,3,-2.5,1,0,0,5,0,5,0,1,,,,,,,,,,,,,,,,,,,,,,,,,,,,,,,,,,,,,,,,,,,,,,,,,,,,,,,,,,,,,,,,,,,,,,,,,,,,,,,,,,,,,,,,,,,,,,,,,,,,,,,,,,,,,,,,
,,,,,,61516c7d3c833383901cdb54,62c53aa0aa2bc9b5bcef82fa,2022-07-06_09h33.28.558,Colour_Asymmetry_Pilot,2022.1.3,Win32,60.09976561,62c50e9c1127f2cd403a315f,,,,,,,,,,,,,,,,,,,"[-0.07459999999999989,0.12139999999999995,-0.9922]",threefour,"[0.7802,-0.23140000000000005,-0.20799999999999996]",-1,1.5342,-124,-125.5,1,0,0,response5disk_5,6,-16.5,1,0,0,rectangle_8,6,-16.5,1,0,0,1,6,-16.5,1,0,0,6,0,6,0,1,,,,,,,,,,,,,,,,,,,,,,,,,,,,,,,,,,,,,,,,,,,,,,,,,,,,,,,,,,,,,,,,,,,,,,,,,,,,,,,,,,,,,,,,,,,,,,,,,,,,,,,,,,,,,,,,
,,,,,,61516c7d3c833383901cdb54,62c53aa0aa2bc9b5bcef82fa,2022-07-06_09h33.28.558,Colour_Asymmetry_Pilot,2022.1.3,Win32,60.09976561,62c50e9c1127f2cd403a315f,,,,,,,,,,,,,,,,,,,,fourthree,,-2,1.3011,,,,,,,,,,,,,,,,,,,,,,,,,,,,,,,,space,389.3663,"[0.22340000000000004,-0.9296,-0.7884]","[-0.26280000000000003,-0.2158,-0.3256]",-116,-67.5,1,0,0,response5disk,-7,-12.5,1,0,0,rectangle,-7,-12.5,1,0,0,,3,0.0008,0,-7,-12.5,1,0,0,0,0,0,102,1,21,second,,,,,,,,,,,,,,,,,,,,,,,,,,,,,,,,,,,,,,,,,,,,,,,,,,,,,,,,,,,,,,,,,,,,,,,,
,,,,,,61516c7d3c833383901cdb54,62c53aa0aa2bc9b5bcef82fa,2022-07-06_09h33.28.558,Colour_Asymmetry_Pilot,2022.1.3,Win32,60.09976561,62c50e9c1127f2cd403a315f,,,,,,,,,,,,,,,,,,,,onetwo,,-2,1.1166,,,,,,,,,,,,,,,,,,,,,,,,,,,,,,,,,,"[-0.45899999999999996,-0.3256,-0.9374]","[0.9686000000000001,0.5763999999999998,0.11359999999999992]",-74,-58.5,1,0,0,response5disk,19,11.5,1,0,0,rectangle,19,11.5,1,0,0,,2,0.0005,0,19,11.5,1,0,0,0,1,1,139,1,58,second,,,,,,,,,,,,,,,,,,,,,,,,,,,,,,,,,,,,,,,,,,,,,,,,,,,,,,,,,,,,,,,,,,,,,,,,
,,,,,,61516c7d3c833383901cdb54,62c53aa0aa2bc9b5bcef82fa,2022-07-06_09h33.28.558,Colour_Asymmetry_Pilot,2022.1.3,Win32,60.09976561,62c50e9c1127f2cd403a315f,,,,,,,,,,,,,,,,,,,,onethree,,-4,1.5844,,,,,,,,,,,,,,,,,,,,,,,,,,,,,,,,,,"[-0.8982,-0.37259999999999993,0.2784]","[0.30180000000000007,-0.7884,-0.9844]",-106,115.5,1,0,0,response7disk,10,-4.5,1,0,0,rectangle,10,-4.5,1,0,0,,2,0,0,10,-4.5,1,0,0,0,2,2,12,1,12,first,,,,,,,,,,,,,,,,,,,,,,,,,,,,,,,,,,,,,,,,,,,,,,,,,,,,,,,,,,,,,,,,,,,,,,,,
,,,,,,61516c7d3c833383901cdb54,62c53aa0aa2bc9b5bcef82fa,2022-07-06_09h33.28.558,Colour_Asymmetry_Pilot,2022.1.3,Win32,60.09976561,62c50e9c1127f2cd403a315f,,,,,,,,,,,,,,,,,,,,twofour,,2,1.535,,,,,,,,,,,,,,,,,,,,,,,,,,,,,,,,,,"[0.3881999999999999,-0.23939999999999995,-0.05040000000000011]","[0.2784,-0.31000000000000005,-0.5452]",106,-77.5,1,0,0,response3disk,-2,6.5,1,0,0,rectangle,-2,6.5,1,0,0,,3,0.0006,0,-2,6.5,1,0,0,0,3,3,150,1,69,second,,,,,,,,,,,,,,,,,,,,,,,,,,,,,,,,,,,,,,,,,,,,,,,,,,,,,,,,,,,,,,,,,,,,,,,,
,,,,,,61516c7d3c833383901cdb54,62c53aa0aa2bc9b5bcef82fa,2022-07-06_09h33.28.558,Colour_Asymmetry_Pilot,2022.1.3,Win32,60.09976561,62c50e9c1127f2cd403a315f,,,,,,,,,,,,,,,,,,,,twofour,,2,0.8671,,,,,,,,,,,,,,,,,,,,,,,,,,,,,,,,,,"[-0.050999999999999934,-0.6706000000000001,-0.804]","[0.22340000000000004,-0.9296,-0.7884]",115,-52.5,1,0,0,response3disk,9,25.5,1,0,0,rectangle,9,25.5,1,0,0,,1,0.0006,0,9,25.5,1,0,0,0,4,4,42,1,42,first,,,,,,,,,,,,,,,,,,,,,,,,,,,,,,,,,,,,,,,,,,,,,,,,,,,,,,,,,,,,,,,,,,,,,,,,
,,,,,,61516c7d3c833383901cdb54,62c53aa0aa2bc9b5bcef82fa,2022-07-06_09h33.28.558,Colour_Asymmetry_Pilot,2022.1.3,Win32,60.09976561,62c50e9c1127f2cd403a315f,,,,,,,,,,,,,,,,,,,,fourtwo,,3,2.9027,,,,,,,,,,,,,,,,,,,,,,,,,,,,,,,,,,"[0.22340000000000004,-0.9296,-0.7884]","[-0.050999999999999934,-0.6706000000000001,-0.804]",112,104.5,1,0,0,response1disk,3,-7.5,1,0,0,rectangle,3,-7.5,1,0,0,,1,0,0,3,-7.5,1,0,0,0,5,5,123,1,42,second,,,,,,,,,,,,,,,,,,,,,,,,,,,,,,,,,,,,,,,,,,,,,,,,,,,,,,,,,,,,,,,,,,,,,,,,
,,,,,,61516c7d3c833383901cdb54,62c53aa0aa2bc9b5bcef82fa,2022-07-06_09h33.28.558,Colour_Asymmetry_Pilot,2022.1.3,Win32,60.09976561,62c50e9c1127f2cd403a315f,,,,,,,,,,,,,,,,,,,,threefour,,1,1.3169,,,,,,,,,,,,,,,,,,,,,,,,,,,,,,,,,,"[-0.2942,-0.24719999999999998,-0.357]","[-0.0040000000000000036,0.02739999999999987,-0.08239999999999992]",87,-158.5,1,0,0,response3disk,-6,6.5,1,0,0,rectangle,158,65.5,1,0,0,3,3,7.374,1,-12,-7.5,1,0,0,0,6,6,136,1,55,second,response1disk_3,rectangle,,,,,,,,,,,,,,,,,,,,,,,,,,,,,,,,,,,,,,,,,,,,,,,,,,,,,,,,,,,,,,,,,,,,,,
,,,,,,61516c7d3c833383901cdb54,62c53aa0aa2bc9b5bcef82fa,2022-07-06_09h33.28.558,Colour_Asymmetry_Pilot,2022.1.3,Win32,60.09976561,62c50e9c1127f2cd403a315f,,,,,,,,,,,,,,,,,,,,onethree,,-4,0.9169,,,,,,,,,,,,,,,,,,,,,,,,,,,,,,,,,,"[0.9372,0.9450000000000001,0.8980000000000001]","[-0.30200000000000005,0.14500000000000002,0.2784]",-62,77.5,1,0,0,response7disk,11,-16.5,1,0,0,rectangle,11,-16.5,1,0,0,3,1,0.0004,0,11,-16.5,1,0,0,0,7,7,143,1,62,second,,,,,,,,,,,,,,,,,,,,,,,,,,,,,,,,,,,,,,,,,,,,,,,,,,,,,,,,,,,,,,,,,,,,,,,,
,,,,,,61516c7d3c833383901cdb54,62c53aa0aa2bc9b5bcef82fa,2022-07-06_09h33.28.558,Colour_Asymmetry_Pilot,2022.1.3,Win32,60.09976561,62c50e9c1127f2cd403a315f,,,,,,,,,,,,,,,,,,,,twofour,,-4,0.4331,,,,,,,,,,,,,,,,,,,,,,,,,,,,,,,,,,"[0.37240000000000006,-0.050999999999999934,-0.5216]","[0.7802,-0.23140000000000005,-0.20799999999999996]",-78,80.5,1,0,0,response7disk,22,-19.5,1,0,0,rectangle,22,-19.5,1,0,0,3,2,0.0004,0,22,-19.5,1,0,0,0,8,8,137,1,56,second,,,,,,,,,,,,,,,,,,,,,,,,,,,,,,,,,,,,,,,,,,,,,,,,,,,,,,,,,,,,,,,,,,,,,,,,
,,,,,,61516c7d3c833383901cdb54,62c53aa0aa2bc9b5bcef82fa,2022-07-06_09h33.28.558,Colour_Asymmetry_Pilot,2022.1.3,Win32,60.09976561,62c50e9c1127f2cd403a315f,,,,,,,,,,,,,,,,,,,,fourtwo,,2,1.4674,,,,,,,,,,,,,,,,,,,,,,,,,,,,,,,,,,"[0.8115999999999999,-0.0040000000000000036,-0.09819999999999995]","[0.796,0.2156,-0.27859999999999996]",155,-109.5,1,0,0,response3disk,21,6.5,1,0,0,rectangle,21,6.5,1,0,0,3,1,0.0016,0,21,6.5,1,0,0,0,9,9,57,1,57,first,,,,,,,,,,,,,,,,,,,,,,,,,,,,,,,,,,,,,,,,,,,,,,,,,,,,,,,,,,,,,,,,,,,,,,,,
,,,,,,61516c7d3c833383901cdb54,62c53aa0aa2bc9b5bcef82fa,2022-07-06_09h33.28.558,Colour_Asymmetry_Pilot,2022.1.3,Win32,60.09976561,62c50e9c1127f2cd403a315f,,,,,,,,,,,,,,,,,,,,onethree,,-4,0.4125,,,,,,,,,,,,,,,,,,,,,,,,,,,,,,,,,,"[0.30180000000000007,-0.7884,-0.9844]","[-0.5688,-0.08239999999999992,-0.1844]",-63,78.5,1,0,0,response7disk,10,-1.5,1,0,0,rectangle,10,-1.5,1,0,0,3,1,0,0,10,-1.5,1,0,0,0,10,10,83,1,2,second,,,,,,,,,,,,,,,,,,,,,,,,,,,,,,,,,,,,,,,,,,,,,,,,,,,,,,,,,,,,,,,,,,,,,,,,
,,,,,,61516c7d3c833383901cdb54,62c53aa0aa2bc9b5bcef82fa,2022-07-06_09h33.28.558,Colour_Asymmetry_Pilot,2022.1.3,Win32,60.09976561,62c50e9c1127f2cd403a315f,,,,,,,,,,,,,,,,,,,,twofour,,-1,1.3172,,,,,,,,,,,,,,,,,,,,,,,,,,,,,,,,,,"[-0.38039999999999996,-0.4276,-0.1452]","[0.3881999999999999,-0.23939999999999995,-0.05040000000000011]",-71,-118.5,1,0,0,response5disk,1,-4.5,1,0,0,rectangle,1,-4.5,1,0,0,3,3,0.0005,0,1,-4.5,1,0,0,0,11,11,33,1,33,first,,,,,,,,,,,,,,,,,,,,,,,,,,,,,,,,,,,,,,,,,,,,,,,,,,,,,,,,,,,,,,,,,,,,,,,,
,,,,,,61516c7d3c833383901cdb54,62c53aa0aa2bc9b5bcef82fa,2022-07-06_09h33.28.558,Colour_Asymmetry_Pilot,2022.1.3,Win32,60.09976561,62c50e9c1127f2cd403a315f,,,,,,,,,,,,,,,,,,,,onetwo,,-3,0.3633,,,,,,,,,,,,,,,,,,,,,,,,,,,,,,,,,,"[-0.4276,0.0038000000000000256,-0.3256]","[0.23120000000000007,-0.7726,-0.34120000000000006]",-86,84.5,1,0,0,response7disk,-8,6.5,1,0,0,rectangle,-8,6.5,1,0,0,3,3,9.99999E-05,0,-8,6.5,1,0,0,0,12,12,98,1,17,second,,,,,,,,,,,,,,,,,,,,,,,,,,,,,,,,,,,,,,,,,,,,,,,,,,,,,,,,,,,,,,,,,,,,,,,,
,,,,,,61516c7d3c833383901cdb54,62c53aa0aa2bc9b5bcef82fa,2022-07-06_09h33.28.558,Colour_Asymmetry_Pilot,2022.1.3,Win32,60.09976561,62c50e9c1127f2cd403a315f,,,,,,,,,,,,,,,,,,,,twoone,,2,0.8801,,,,,,,,,,,,,,,,,,,,,,,,,,,,,,,,,,"[0.0351999999999999,0.41159999999999997,0.0038000000000000256]","[-0.6706000000000001,-0.6157999999999999,-0.6786]",125,-81.5,1,0,0,response3disk,-23,5.5,1,0,0,rectangle,-23,5.5,1,0,0,3,3,0.0005,0,-23,5.5,1,0,0,0,13,13,16,1,16,first,,,,,,,,,,,,,,,,,,,,,,,,,,,,,,,,,,,,,,,,,,,,,,,,,,,,,,,,,,,,,,,,,,,,,,,,
,,,,,,61516c7d3c833383901cdb54,62c53aa0aa2bc9b5bcef82fa,2022-07-06_09h33.28.558,Colour_Asymmetry_Pilot,2022.1.3,Win32,60.09976561,62c50e9c1127f2cd403a315f,,,,,,,,,,,,,,,,,,,,threeone,,-3,0.4468,,,,,,,,,,,,,,,,,,,,,,,,,,,,,,,,,,"[0.19199999999999995,0.18419999999999992,0.5136000000000001]","[-0.17659999999999998,-0.2864,-0.8354]",-73,69.5,1,0,0,response7disk,4,-2.5,1,0,0,rectangle,4,-2.5,1,0,0,3,2,0.0005,0,4,-2.5,1,0,0,0,14,14,105,1,24,second,,,,,,,,,,,,,,,,,,,,,,,,,,,,,,,,,,,,,,,,,,,,,,,,,,,,,,,,,,,,,,,,,,,,,,,,
,,,,,,61516c7d3c833383901cdb54,62c53aa0aa2bc9b5bcef82fa,2022-07-06_09h33.28.558,Colour_Asymmetry_Pilot,2022.1.3,Win32,60.09976561,62c50e9c1127f2cd403a315f,,,,,,,,,,,,,,,,,,,,threefour,,-4,0.3254,,,,,,,,,,,,,,,,,,,,,,,,,,,,,,,,,,"[0.9372,0.9450000000000001,0.8980000000000001]","[0.18419999999999992,-0.4276,-0.404]",-82,88.5,1,0,0,response7disk,-15,-12.5,1,0,0,rectangle,-15,-12.5,1,0,0,3,2,0.0001,0,-15,-12.5,1,0,0,0,15,15,82,1,1,second,,,,,,,,,,,,,,,,,,,,,,,,,,,,,,,,,,,,,,,,,,,,,,,,,,,,,,,,,,,,,,,,,,,,,,,,
,,,,,,61516c7d3c833383901cdb54,62c53aa0aa2bc9b5bcef82fa,2022-07-06_09h33.28.558,Colour_Asymmetry_Pilot,2022.1.3,Win32,60.09976561,62c50e9c1127f2cd403a315f,,,,,,,,,,,,,,,,,,,,twoone,,1,0.9665,,,,,,,,,,,,,,,,,,,,,,,,,,,,,,,,,,"[0.5528,0.7409999999999999,-0.71]","[-0.7412000000000001,-0.08239999999999992,-0.6864]",83,-122.5,1,0,0,response3disk,3,-12.5,1,0,0,rectangle,3,-12.5,1,0,0,3,2,9.99999E-05,0,3,-12.5,1,0,0,0,16,16,89,1,8,second,,,,,,,,,,,,,,,,,,,,,,,,,,,,,,,,,,,,,,,,,,,,,,,,,,,,,,,,,,,,,,,,,,,,,,,,
