trials.thisRepN,trials.thisTrialN,trials.thisN,trials.thisIndex,trials.ran,Colourcodes,participant,session,date,expName,psychopyVersion,OS,frameRate,study_id,trials_4.thisRepN,trials_4.thisTrialN,trials_4.thisN,trials_4.thisIndex,trials_4.ran,StimulusPos,key_resp.keys,key_resp.rt,key_resp_2.keys,key_resp_2.rt,key_resp_15.keys,key_resp_15.rt,key_resp_17.keys,key_resp_17.rt,key_resp_9.keys,key_resp_9.rt,key_resp_10.keys,key_resp_10.rt,Circle1_col,Ecc,Circle2_col,similarity,response_time,mouse_5.x,mouse_5.y,mouse_5.leftButton,mouse_5.midButton,mouse_5.rightButton,mouse_5.clicked_name,mouse_10.x,mouse_10.y,mouse_10.leftButton,mouse_10.midButton,mouse_10.rightButton,mouse_10.clicked_name,mouse_7.x,mouse_7.y,mouse_7.leftButton,mouse_7.midButton,mouse_7.rightButton,mouse_7.clicked_name,catchprac,catchnumberprac,mouse_6.x,mouse_6.y,mouse_6.leftButton,mouse_6.midButton,mouse_6.rightButton,mouse_6.clicked_name,duringprac.thisRepN,duringprac.thisTrialN,duringprac.thisN,duringprac.thisIndex,duringprac.ran,key_resp_22.keys,key_resp_22.rt,Circle1_colour,Circle2_colour,mouse.x,mouse.y,mouse.leftButton,mouse.midButton,mouse.rightButton,mouse.clicked_name,mouse_2.x,mouse_2.y,mouse_2.leftButton,mouse_2.midButton,mouse_2.rightButton,mouse_2.clicked_name,mouse_3.x,mouse_3.y,mouse_3.leftButton,mouse_3.midButton,mouse_3.rightButton,catchresponse,catchnumber,response_time_catch,Catch,mouse_11.x,mouse_11.y,mouse_11.leftButton,mouse_11.midButton,mouse_11.rightButton,trials_2.thisRepN,trials_2.thisTrialN,trials_2.thisN,trials_2.thisIndex,trials_2.ran,Colourpair,Temporder,mouse_3.clicked_name,mouse_11.clicked_name,trials_3.thisRepN,trials_3.thisTrialN,trials_3.thisN,trials_3.thisIndex,trials_3.ran,key_resp_instr_Ishi.keys,key_resp_instr_Ishi.rt,Ishi_trial_keyresp.keys,Ishi_textbox.text,Ishi_mouse.x,Ishi_mouse.y,Ishi_mouse.leftButton,Ishi_mouse.midButton,Ishi_mouse.rightButton,Ishi_mouse.clicked_name,Ishi_loop.thisRepN,Ishi_loop.thisTrialN,Ishi_loop.thisN,Ishi_loop.thisIndex,Ishi_loop.ran,imageaddress,textbox.text,mouse_4.x,mouse_4.y,mouse_4.leftButton,mouse_4.midButton,mouse_4.rightButton,mouse_4.clicked_name,textbox_2.text,mouse_8.x,mouse_8.y,mouse_8.leftButton,mouse_8.midButton,mouse_8.rightButton,mouse_8.clicked_name,textbox_3.text,mouse_9.x,mouse_9.y,mouse_9.leftButton,mouse_9.midButton,mouse_9.rightButton,mouse_9.clicked_name,textbox_4.text,mouse_12.x,mouse_12.y,mouse_12.leftButton,mouse_12.midButton,mouse_12.rightButton,mouse_12.clicked_name,textbox_5.text,mouse_13.x,mouse_13.y,mouse_13.leftButton,mouse_13.midButton,mouse_13.rightButton,mouse_13.clicked_name,textbox_6.text,mouse_14.x,mouse_14.y,mouse_14.leftButton,mouse_14.midButton,mouse_14.rightButton,mouse_14.clicked_name,textbox_7.text,mouse_15.x,mouse_15.y,mouse_15.leftButton,mouse_15.midButton,mouse_15.rightButton,mouse_15.clicked_name
0,0,0,84,1,,6155752fd8e4f079cb44557d,62c539dd7b979cb36aef82e3,2022-07-06_09h30.59.682,Colour_Asymmetry_Pilot,2022.1.3,Win32,60.44122091,62c50e9c1127f2cd403a315f,,,,,,,,,,,,,,,,,,,,,,,,,,,,,,,,,,,,,,,,,,,,,,,,,,,,,,,,,,,,,,,,,,,,,,,,,,,,,,,,,,,,,,,,,,,,,,,,,,,,,,,,,,,,,,,,,,,,,,,,,,,,,,,,,,,,,,,,,,,,,,,,,,,,,,,,,,,,,,,,,,,
0,1,1,89,1,,6155752fd8e4f079cb44557d,62c539dd7b979cb36aef82e3,2022-07-06_09h30.59.682,Colour_Asymmetry_Pilot,2022.1.3,Win32,60.44122091,62c50e9c1127f2cd403a315f,,,,,,,,,,,,,,,,,,,,,,,,,,,,,,,,,,,,,,,,,,,,,,,,,,,,,,,,,,,,,,,,,,,,,,,,,,,,,,,,,,,,,,,,,,,,,,,,,,,,,,,,,,,,,,,,,,,,,,,,,,,,,,,,,,,,,,,,,,,,,,,,,,,,,,,,,,,,,,,,,,,
0,2,2,29,1,,6155752fd8e4f079cb44557d,62c539dd7b979cb36aef82e3,2022-07-06_09h30.59.682,Colour_Asymmetry_Pilot,2022.1.3,Win32,60.44122091,62c50e9c1127f2cd403a315f,,,,,,,,,,,,,,,,,,,,,,,,,,,,,,,,,,,,,,,,,,,,,,,,,,,,,,,,,,,,,,,,,,,,,,,,,,,,,,,,,,,,,,,,,,,,,,,,,,,,,,,,,,,,,,,,,,,,,,,,,,,,,,,,,,,,,,,,,,,,,,,,,,,,,,,,,,,,,,,,,,,
0,3,3,23,1,,6155752fd8e4f079cb44557d,62c539dd7b979cb36aef82e3,2022-07-06_09h30.59.682,Colour_Asymmetry_Pilot,2022.1.3,Win32,60.44122091,62c50e9c1127f2cd403a315f,,,,,,,,,,,,,,,,,,,,,,,,,,,,,,,,,,,,,,,,,,,,,,,,,,,,,,,,,,,,,,,,,,,,,,,,,,,,,,,,,,,,,,,,,,,,,,,,,,,,,,,,,,,,,,,,,,,,,,,,,,,,,,,,,,,,,,,,,,,,,,,,,,,,,,,,,,,,,,,,,,,
0,4,4,6,1,,6155752fd8e4f079cb44557d,62c539dd7b979cb36aef82e3,2022-07-06_09h30.59.682,Colour_Asymmetry_Pilot,2022.1.3,Win32,60.44122091,62c50e9c1127f2cd403a315f,,,,,,,,,,,,,,,,,,,,,,,,,,,,,,,,,,,,,,,,,,,,,,,,,,,,,,,,,,,,,,,,,,,,,,,,,,,,,,,,,,,,,,,,,,,,,,,,,,,,,,,,,,,,,,,,,,,,,,,,,,,,,,,,,,,,,,,,,,,,,,,,,,,,,,,,,,,,,,,,,,,
0,5,5,18,1,,6155752fd8e4f079cb44557d,62c539dd7b979cb36aef82e3,2022-07-06_09h30.59.682,Colour_Asymmetry_Pilot,2022.1.3,Win32,60.44122091,62c50e9c1127f2cd403a315f,,,,,,,,,,,,,,,,,,,,,,,,,,,,,,,,,,,,,,,,,,,,,,,,,,,,,,,,,,,,,,,,,,,,,,,,,,,,,,,,,,,,,,,,,,,,,,,,,,,,,,,,,,,,,,,,,,,,,,,,,,,,,,,,,,,,,,,,,,,,,,,,,,,,,,,,,,,,,,,,,,,
0,6,6,45,1,,6155752fd8e4f079cb44557d,62c539dd7b979cb36aef82e3,2022-07-06_09h30.59.682,Colour_Asymmetry_Pilot,2022.1.3,Win32,60.44122091,62c50e9c1127f2cd403a315f,,,,,,,,,,,,,,,,,,,,,,,,,,,,,,,,,,,,,,,,,,,,,,,,,,,,,,,,,,,,,,,,,,,,,,,,,,,,,,,,,,,,,,,,,,,,,,,,,,,,,,,,,,,,,,,,,,,,,,,,,,,,,,,,,,,,,,,,,,,,,,,,,,,,,,,,,,,,,,,,,,,
0,7,7,14,1,,6155752fd8e4f079cb44557d,62c539dd7b979cb36aef82e3,2022-07-06_09h30.59.682,Colour_Asymmetry_Pilot,2022.1.3,Win32,60.44122091,62c50e9c1127f2cd403a315f,,,,,,,,,,,,,,,,,,,,,,,,,,,,,,,,,,,,,,,,,,,,,,,,,,,,,,,,,,,,,,,,,,,,,,,,,,,,,,,,,,,,,,,,,,,,,,,,,,,,,,,,,,,,,,,,,,,,,,,,,,,,,,,,,,,,,,,,,,,,,,,,,,,,,,,,,,,,,,,,,,,
0,8,8,52,1,,6155752fd8e4f079cb44557d,62c539dd7b979cb36aef82e3,2022-07-06_09h30.59.682,Colour_Asymmetry_Pilot,2022.1.3,Win32,60.44122091,62c50e9c1127f2cd403a315f,,,,,,,,,,,,,,,,,,,,,,,,,,,,,,,,,,,,,,,,,,,,,,,,,,,,,,,,,,,,,,,,,,,,,,,,,,,,,,,,,,,,,,,,,,,,,,,,,,,,,,,,,,,,,,,,,,,,,,,,,,,,,,,,,,,,,,,,,,,,,,,,,,,,,,,,,,,,,,,,,,,
0,9,9,34,1,,6155752fd8e4f079cb44557d,62c539dd7b979cb36aef82e3,2022-07-06_09h30.59.682,Colour_Asymmetry_Pilot,2022.1.3,Win32,60.44122091,62c50e9c1127f2cd403a315f,,,,,,,,,,,,,,,,,,,,,,,,,,,,,,,,,,,,,,,,,,,,,,,,,,,,,,,,,,,,,,,,,,,,,,,,,,,,,,,,,,,,,,,,,,,,,,,,,,,,,,,,,,,,,,,,,,,,,,,,,,,,,,,,,,,,,,,,,,,,,,,,,,,,,,,,,,,,,,,,,,,
0,10,10,42,1,,6155752fd8e4f079cb44557d,62c539dd7b979cb36aef82e3,2022-07-06_09h30.59.682,Colour_Asymmetry_Pilot,2022.1.3,Win32,60.44122091,62c50e9c1127f2cd403a315f,,,,,,,,,,,,,,,,,,,,,,,,,,,,,,,,,,,,,,,,,,,,,,,,,,,,,,,,,,,,,,,,,,,,,,,,,,,,,,,,,,,,,,,,,,,,,,,,,,,,,,,,,,,,,,,,,,,,,,,,,,,,,,,,,,,,,,,,,,,,,,,,,,,,,,,,,,,,,,,,,,,
0,11,11,79,1,,6155752fd8e4f079cb44557d,62c539dd7b979cb36aef82e3,2022-07-06_09h30.59.682,Colour_Asymmetry_Pilot,2022.1.3,Win32,60.44122091,62c50e9c1127f2cd403a315f,,,,,,,,,,,,,,,,,,,,,,,,,,,,,,,,,,,,,,,,,,,,,,,,,,,,,,,,,,,,,,,,,,,,,,,,,,,,,,,,,,,,,,,,,,,,,,,,,,,,,,,,,,,,,,,,,,,,,,,,,,,,,,,,,,,,,,,,,,,,,,,,,,,,,,,,,,,,,,,,,,,
0,12,12,51,1,,6155752fd8e4f079cb44557d,62c539dd7b979cb36aef82e3,2022-07-06_09h30.59.682,Colour_Asymmetry_Pilot,2022.1.3,Win32,60.44122091,62c50e9c1127f2cd403a315f,,,,,,,,,,,,,,,,,,,,,,,,,,,,,,,,,,,,,,,,,,,,,,,,,,,,,,,,,,,,,,,,,,,,,,,,,,,,,,,,,,,,,,,,,,,,,,,,,,,,,,,,,,,,,,,,,,,,,,,,,,,,,,,,,,,,,,,,,,,,,,,,,,,,,,,,,,,,,,,,,,,
0,13,13,28,1,,6155752fd8e4f079cb44557d,62c539dd7b979cb36aef82e3,2022-07-06_09h30.59.682,Colour_Asymmetry_Pilot,2022.1.3,Win32,60.44122091,62c50e9c1127f2cd403a315f,,,,,,,,,,,,,,,,,,,,,,,,,,,,,,,,,,,,,,,,,,,,,,,,,,,,,,,,,,,,,,,,,,,,,,,,,,,,,,,,,,,,,,,,,,,,,,,,,,,,,,,,,,,,,,,,,,,,,,,,,,,,,,,,,,,,,,,,,,,,,,,,,,,,,,,,,,,,,,,,,,,
0,14,14,86,1,,6155752fd8e4f079cb44557d,62c539dd7b979cb36aef82e3,2022-07-06_09h30.59.682,Colour_Asymmetry_Pilot,2022.1.3,Win32,60.44122091,62c50e9c1127f2cd403a315f,,,,,,,,,,,,,,,,,,,,,,,,,,,,,,,,,,,,,,,,,,,,,,,,,,,,,,,,,,,,,,,,,,,,,,,,,,,,,,,,,,,,,,,,,,,,,,,,,,,,,,,,,,,,,,,,,,,,,,,,,,,,,,,,,,,,,,,,,,,,,,,,,,,,,,,,,,,,,,,,,,,
0,15,15,26,1,,6155752fd8e4f079cb44557d,62c539dd7b979cb36aef82e3,2022-07-06_09h30.59.682,Colour_Asymmetry_Pilot,2022.1.3,Win32,60.44122091,62c50e9c1127f2cd403a315f,,,,,,,,,,,,,,,,,,,,,,,,,,,,,,,,,,,,,,,,,,,,,,,,,,,,,,,,,,,,,,,,,,,,,,,,,,,,,,,,,,,,,,,,,,,,,,,,,,,,,,,,,,,,,,,,,,,,,,,,,,,,,,,,,,,,,,,,,,,,,,,,,,,,,,,,,,,,,,,,,,,
0,16,16,10,1,,6155752fd8e4f079cb44557d,62c539dd7b979cb36aef82e3,2022-07-06_09h30.59.682,Colour_Asymmetry_Pilot,2022.1.3,Win32,60.44122091,62c50e9c1127f2cd403a315f,,,,,,,,,,,,,,,,,,,,,,,,,,,,,,,,,,,,,,,,,,,,,,,,,,,,,,,,,,,,,,,,,,,,,,,,,,,,,,,,,,,,,,,,,,,,,,,,,,,,,,,,,,,,,,,,,,,,,,,,,,,,,,,,,,,,,,,,,,,,,,,,,,,,,,,,,,,,,,,,,,,
0,17,17,71,1,,6155752fd8e4f079cb44557d,62c539dd7b979cb36aef82e3,2022-07-06_09h30.59.682,Colour_Asymmetry_Pilot,2022.1.3,Win32,60.44122091,62c50e9c1127f2cd403a315f,,,,,,,,,,,,,,,,,,,,,,,,,,,,,,,,,,,,,,,,,,,,,,,,,,,,,,,,,,,,,,,,,,,,,,,,,,,,,,,,,,,,,,,,,,,,,,,,,,,,,,,,,,,,,,,,,,,,,,,,,,,,,,,,,,,,,,,,,,,,,,,,,,,,,,,,,,,,,,,,,,,
0,18,18,88,1,,6155752fd8e4f079cb44557d,62c539dd7b979cb36aef82e3,2022-07-06_09h30.59.682,Colour_Asymmetry_Pilot,2022.1.3,Win32,60.44122091,62c50e9c1127f2cd403a315f,,,,,,,,,,,,,,,,,,,,,,,,,,,,,,,,,,,,,,,,,,,,,,,,,,,,,,,,,,,,,,,,,,,,,,,,,,,,,,,,,,,,,,,,,,,,,,,,,,,,,,,,,,,,,,,,,,,,,,,,,,,,,,,,,,,,,,,,,,,,,,,,,,,,,,,,,,,,,,,,,,,
0,19,19,82,1,,6155752fd8e4f079cb44557d,62c539dd7b979cb36aef82e3,2022-07-06_09h30.59.682,Colour_Asymmetry_Pilot,2022.1.3,Win32,60.44122091,62c50e9c1127f2cd403a315f,,,,,,,,,,,,,,,,,,,,,,,,,,,,,,,,,,,,,,,,,,,,,,,,,,,,,,,,,,,,,,,,,,,,,,,,,,,,,,,,,,,,,,,,,,,,,,,,,,,,,,,,,,,,,,,,,,,,,,,,,,,,,,,,,,,,,,,,,,,,,,,,,,,,,,,,,,,,,,,,,,,
0,20,20,63,1,,6155752fd8e4f079cb44557d,62c539dd7b979cb36aef82e3,2022-07-06_09h30.59.682,Colour_Asymmetry_Pilot,2022.1.3,Win32,60.44122091,62c50e9c1127f2cd403a315f,,,,,,,,,,,,,,,,,,,,,,,,,,,,,,,,,,,,,,,,,,,,,,,,,,,,,,,,,,,,,,,,,,,,,,,,,,,,,,,,,,,,,,,,,,,,,,,,,,,,,,,,,,,,,,,,,,,,,,,,,,,,,,,,,,,,,,,,,,,,,,,,,,,,,,,,,,,,,,,,,,,
0,21,21,44,1,,6155752fd8e4f079cb44557d,62c539dd7b979cb36aef82e3,2022-07-06_09h30.59.682,Colour_Asymmetry_Pilot,2022.1.3,Win32,60.44122091,62c50e9c1127f2cd403a315f,,,,,,,,,,,,,,,,,,,,,,,,,,,,,,,,,,,,,,,,,,,,,,,,,,,,,,,,,,,,,,,,,,,,,,,,,,,,,,,,,,,,,,,,,,,,,,,,,,,,,,,,,,,,,,,,,,,,,,,,,,,,,,,,,,,,,,,,,,,,,,,,,,,,,,,,,,,,,,,,,,,
0,22,22,43,1,,6155752fd8e4f079cb44557d,62c539dd7b979cb36aef82e3,2022-07-06_09h30.59.682,Colour_Asymmetry_Pilot,2022.1.3,Win32,60.44122091,62c50e9c1127f2cd403a315f,,,,,,,,,,,,,,,,,,,,,,,,,,,,,,,,,,,,,,,,,,,,,,,,,,,,,,,,,,,,,,,,,,,,,,,,,,,,,,,,,,,,,,,,,,,,,,,,,,,,,,,,,,,,,,,,,,,,,,,,,,,,,,,,,,,,,,,,,,,,,,,,,,,,,,,,,,,,,,,,,,,
0,23,23,92,1,,6155752fd8e4f079cb44557d,62c539dd7b979cb36aef82e3,2022-07-06_09h30.59.682,Colour_Asymmetry_Pilot,2022.1.3,Win32,60.44122091,62c50e9c1127f2cd403a315f,,,,,,,,,,,,,,,,,,,,,,,,,,,,,,,,,,,,,,,,,,,,,,,,,,,,,,,,,,,,,,,,,,,,,,,,,,,,,,,,,,,,,,,,,,,,,,,,,,,,,,,,,,,,,,,,,,,,,,,,,,,,,,,,,,,,,,,,,,,,,,,,,,,,,,,,,,,,,,,,,,,
0,24,24,67,1,,6155752fd8e4f079cb44557d,62c539dd7b979cb36aef82e3,2022-07-06_09h30.59.682,Colour_Asymmetry_Pilot,2022.1.3,Win32,60.44122091,62c50e9c1127f2cd403a315f,,,,,,,,,,,,,,,,,,,,,,,,,,,,,,,,,,,,,,,,,,,,,,,,,,,,,,,,,,,,,,,,,,,,,,,,,,,,,,,,,,,,,,,,,,,,,,,,,,,,,,,,,,,,,,,,,,,,,,,,,,,,,,,,,,,,,,,,,,,,,,,,,,,,,,,,,,,,,,,,,,,
0,25,25,49,1,,6155752fd8e4f079cb44557d,62c539dd7b979cb36aef82e3,2022-07-06_09h30.59.682,Colour_Asymmetry_Pilot,2022.1.3,Win32,60.44122091,62c50e9c1127f2cd403a315f,,,,,,,,,,,,,,,,,,,,,,,,,,,,,,,,,,,,,,,,,,,,,,,,,,,,,,,,,,,,,,,,,,,,,,,,,,,,,,,,,,,,,,,,,,,,,,,,,,,,,,,,,,,,,,,,,,,,,,,,,,,,,,,,,,,,,,,,,,,,,,,,,,,,,,,,,,,,,,,,,,,
0,26,26,4,1,,6155752fd8e4f079cb44557d,62c539dd7b979cb36aef82e3,2022-07-06_09h30.59.682,Colour_Asymmetry_Pilot,2022.1.3,Win32,60.44122091,62c50e9c1127f2cd403a315f,,,,,,,,,,,,,,,,,,,,,,,,,,,,,,,,,,,,,,,,,,,,,,,,,,,,,,,,,,,,,,,,,,,,,,,,,,,,,,,,,,,,,,,,,,,,,,,,,,,,,,,,,,,,,,,,,,,,,,,,,,,,,,,,,,,,,,,,,,,,,,,,,,,,,,,,,,,,,,,,,,,
0,27,27,12,1,,6155752fd8e4f079cb44557d,62c539dd7b979cb36aef82e3,2022-07-06_09h30.59.682,Colour_Asymmetry_Pilot,2022.1.3,Win32,60.44122091,62c50e9c1127f2cd403a315f,,,,,,,,,,,,,,,,,,,,,,,,,,,,,,,,,,,,,,,,,,,,,,,,,,,,,,,,,,,,,,,,,,,,,,,,,,,,,,,,,,,,,,,,,,,,,,,,,,,,,,,,,,,,,,,,,,,,,,,,,,,,,,,,,,,,,,,,,,,,,,,,,,,,,,,,,,,,,,,,,,,
0,28,28,80,1,,6155752fd8e4f079cb44557d,62c539dd7b979cb36aef82e3,2022-07-06_09h30.59.682,Colour_Asymmetry_Pilot,2022.1.3,Win32,60.44122091,62c50e9c1127f2cd403a315f,,,,,,,,,,,,,,,,,,,,,,,,,,,,,,,,,,,,,,,,,,,,,,,,,,,,,,,,,,,,,,,,,,,,,,,,,,,,,,,,,,,,,,,,,,,,,,,,,,,,,,,,,,,,,,,,,,,,,,,,,,,,,,,,,,,,,,,,,,,,,,,,,,,,,,,,,,,,,,,,,,,
0,29,29,19,1,,6155752fd8e4f079cb44557d,62c539dd7b979cb36aef82e3,2022-07-06_09h30.59.682,Colour_Asymmetry_Pilot,2022.1.3,Win32,60.44122091,62c50e9c1127f2cd403a315f,,,,,,,,,,,,,,,,,,,,,,,,,,,,,,,,,,,,,,,,,,,,,,,,,,,,,,,,,,,,,,,,,,,,,,,,,,,,,,,,,,,,,,,,,,,,,,,,,,,,,,,,,,,,,,,,,,,,,,,,,,,,,,,,,,,,,,,,,,,,,,,,,,,,,,,,,,,,,,,,,,,
0,30,30,35,1,,6155752fd8e4f079cb44557d,62c539dd7b979cb36aef82e3,2022-07-06_09h30.59.682,Colour_Asymmetry_Pilot,2022.1.3,Win32,60.44122091,62c50e9c1127f2cd403a315f,,,,,,,,,,,,,,,,,,,,,,,,,,,,,,,,,,,,,,,,,,,,,,,,,,,,,,,,,,,,,,,,,,,,,,,,,,,,,,,,,,,,,,,,,,,,,,,,,,,,,,,,,,,,,,,,,,,,,,,,,,,,,,,,,,,,,,,,,,,,,,,,,,,,,,,,,,,,,,,,,,,
0,31,31,85,1,,6155752fd8e4f079cb44557d,62c539dd7b979cb36aef82e3,2022-07-06_09h30.59.682,Colour_Asymmetry_Pilot,2022.1.3,Win32,60.44122091,62c50e9c1127f2cd403a315f,,,,,,,,,,,,,,,,,,,,,,,,,,,,,,,,,,,,,,,,,,,,,,,,,,,,,,,,,,,,,,,,,,,,,,,,,,,,,,,,,,,,,,,,,,,,,,,,,,,,,,,,,,,,,,,,,,,,,,,,,,,,,,,,,,,,,,,,,,,,,,,,,,,,,,,,,,,,,,,,,,,
0,32,32,81,1,,6155752fd8e4f079cb44557d,62c539dd7b979cb36aef82e3,2022-07-06_09h30.59.682,Colour_Asymmetry_Pilot,2022.1.3,Win32,60.44122091,62c50e9c1127f2cd403a315f,,,,,,,,,,,,,,,,,,,,,,,,,,,,,,,,,,,,,,,,,,,,,,,,,,,,,,,,,,,,,,,,,,,,,,,,,,,,,,,,,,,,,,,,,,,,,,,,,,,,,,,,,,,,,,,,,,,,,,,,,,,,,,,,,,,,,,,,,,,,,,,,,,,,,,,,,,,,,,,,,,,
0,33,33,77,1,,6155752fd8e4f079cb44557d,62c539dd7b979cb36aef82e3,2022-07-06_09h30.59.682,Colour_Asymmetry_Pilot,2022.1.3,Win32,60.44122091,62c50e9c1127f2cd403a315f,,,,,,,,,,,,,,,,,,,,,,,,,,,,,,,,,,,,,,,,,,,,,,,,,,,,,,,,,,,,,,,,,,,,,,,,,,,,,,,,,,,,,,,,,,,,,,,,,,,,,,,,,,,,,,,,,,,,,,,,,,,,,,,,,,,,,,,,,,,,,,,,,,,,,,,,,,,,,,,,,,,
0,34,34,90,1,,6155752fd8e4f079cb44557d,62c539dd7b979cb36aef82e3,2022-07-06_09h30.59.682,Colour_Asymmetry_Pilot,2022.1.3,Win32,60.44122091,62c50e9c1127f2cd403a315f,,,,,,,,,,,,,,,,,,,,,,,,,,,,,,,,,,,,,,,,,,,,,,,,,,,,,,,,,,,,,,,,,,,,,,,,,,,,,,,,,,,,,,,,,,,,,,,,,,,,,,,,,,,,,,,,,,,,,,,,,,,,,,,,,,,,,,,,,,,,,,,,,,,,,,,,,,,,,,,,,,,
0,35,35,5,1,,6155752fd8e4f079cb44557d,62c539dd7b979cb36aef82e3,2022-07-06_09h30.59.682,Colour_Asymmetry_Pilot,2022.1.3,Win32,60.44122091,62c50e9c1127f2cd403a315f,,,,,,,,,,,,,,,,,,,,,,,,,,,,,,,,,,,,,,,,,,,,,,,,,,,,,,,,,,,,,,,,,,,,,,,,,,,,,,,,,,,,,,,,,,,,,,,,,,,,,,,,,,,,,,,,,,,,,,,,,,,,,,,,,,,,,,,,,,,,,,,,,,,,,,,,,,,,,,,,,,,
0,36,36,36,1,,6155752fd8e4f079cb44557d,62c539dd7b979cb36aef82e3,2022-07-06_09h30.59.682,Colour_Asymmetry_Pilot,2022.1.3,Win32,60.44122091,62c50e9c1127f2cd403a315f,,,,,,,,,,,,,,,,,,,,,,,,,,,,,,,,,,,,,,,,,,,,,,,,,,,,,,,,,,,,,,,,,,,,,,,,,,,,,,,,,,,,,,,,,,,,,,,,,,,,,,,,,,,,,,,,,,,,,,,,,,,,,,,,,,,,,,,,,,,,,,,,,,,,,,,,,,,,,,,,,,,
0,37,37,57,1,,6155752fd8e4f079cb44557d,62c539dd7b979cb36aef82e3,2022-07-06_09h30.59.682,Colour_Asymmetry_Pilot,2022.1.3,Win32,60.44122091,62c50e9c1127f2cd403a315f,,,,,,,,,,,,,,,,,,,,,,,,,,,,,,,,,,,,,,,,,,,,,,,,,,,,,,,,,,,,,,,,,,,,,,,,,,,,,,,,,,,,,,,,,,,,,,,,,,,,,,,,,,,,,,,,,,,,,,,,,,,,,,,,,,,,,,,,,,,,,,,,,,,,,,,,,,,,,,,,,,,
0,38,38,0,1,,6155752fd8e4f079cb44557d,62c539dd7b979cb36aef82e3,2022-07-06_09h30.59.682,Colour_Asymmetry_Pilot,2022.1.3,Win32,60.44122091,62c50e9c1127f2cd403a315f,,,,,,,,,,,,,,,,,,,,,,,,,,,,,,,,,,,,,,,,,,,,,,,,,,,,,,,,,,,,,,,,,,,,,,,,,,,,,,,,,,,,,,,,,,,,,,,,,,,,,,,,,,,,,,,,,,,,,,,,,,,,,,,,,,,,,,,,,,,,,,,,,,,,,,,,,,,,,,,,,,,
0,39,39,83,1,,6155752fd8e4f079cb44557d,62c539dd7b979cb36aef82e3,2022-07-06_09h30.59.682,Colour_Asymmetry_Pilot,2022.1.3,Win32,60.44122091,62c50e9c1127f2cd403a315f,,,,,,,,,,,,,,,,,,,,,,,,,,,,,,,,,,,,,,,,,,,,,,,,,,,,,,,,,,,,,,,,,,,,,,,,,,,,,,,,,,,,,,,,,,,,,,,,,,,,,,,,,,,,,,,,,,,,,,,,,,,,,,,,,,,,,,,,,,,,,,,,,,,,,,,,,,,,,,,,,,,
0,40,40,2,1,,6155752fd8e4f079cb44557d,62c539dd7b979cb36aef82e3,2022-07-06_09h30.59.682,Colour_Asymmetry_Pilot,2022.1.3,Win32,60.44122091,62c50e9c1127f2cd403a315f,,,,,,,,,,,,,,,,,,,,,,,,,,,,,,,,,,,,,,,,,,,,,,,,,,,,,,,,,,,,,,,,,,,,,,,,,,,,,,,,,,,,,,,,,,,,,,,,,,,,,,,,,,,,,,,,,,,,,,,,,,,,,,,,,,,,,,,,,,,,,,,,,,,,,,,,,,,,,,,,,,,
0,41,41,40,1,,6155752fd8e4f079cb44557d,62c539dd7b979cb36aef82e3,2022-07-06_09h30.59.682,Colour_Asymmetry_Pilot,2022.1.3,Win32,60.44122091,62c50e9c1127f2cd403a315f,,,,,,,,,,,,,,,,,,,,,,,,,,,,,,,,,,,,,,,,,,,,,,,,,,,,,,,,,,,,,,,,,,,,,,,,,,,,,,,,,,,,,,,,,,,,,,,,,,,,,,,,,,,,,,,,,,,,,,,,,,,,,,,,,,,,,,,,,,,,,,,,,,,,,,,,,,,,,,,,,,,
0,42,42,75,1,,6155752fd8e4f079cb44557d,62c539dd7b979cb36aef82e3,2022-07-06_09h30.59.682,Colour_Asymmetry_Pilot,2022.1.3,Win32,60.44122091,62c50e9c1127f2cd403a315f,,,,,,,,,,,,,,,,,,,,,,,,,,,,,,,,,,,,,,,,,,,,,,,,,,,,,,,,,,,,,,,,,,,,,,,,,,,,,,,,,,,,,,,,,,,,,,,,,,,,,,,,,,,,,,,,,,,,,,,,,,,,,,,,,,,,,,,,,,,,,,,,,,,,,,,,,,,,,,,,,,,
0,43,43,11,1,,6155752fd8e4f079cb44557d,62c539dd7b979cb36aef82e3,2022-07-06_09h30.59.682,Colour_Asymmetry_Pilot,2022.1.3,Win32,60.44122091,62c50e9c1127f2cd403a315f,,,,,,,,,,,,,,,,,,,,,,,,,,,,,,,,,,,,,,,,,,,,,,,,,,,,,,,,,,,,,,,,,,,,,,,,,,,,,,,,,,,,,,,,,,,,,,,,,,,,,,,,,,,,,,,,,,,,,,,,,,,,,,,,,,,,,,,,,,,,,,,,,,,,,,,,,,,,,,,,,,,
0,44,44,76,1,,6155752fd8e4f079cb44557d,62c539dd7b979cb36aef82e3,2022-07-06_09h30.59.682,Colour_Asymmetry_Pilot,2022.1.3,Win32,60.44122091,62c50e9c1127f2cd403a315f,,,,,,,,,,,,,,,,,,,,,,,,,,,,,,,,,,,,,,,,,,,,,,,,,,,,,,,,,,,,,,,,,,,,,,,,,,,,,,,,,,,,,,,,,,,,,,,,,,,,,,,,,,,,,,,,,,,,,,,,,,,,,,,,,,,,,,,,,,,,,,,,,,,,,,,,,,,,,,,,,,,
0,45,45,1,1,,6155752fd8e4f079cb44557d,62c539dd7b979cb36aef82e3,2022-07-06_09h30.59.682,Colour_Asymmetry_Pilot,2022.1.3,Win32,60.44122091,62c50e9c1127f2cd403a315f,,,,,,,,,,,,,,,,,,,,,,,,,,,,,,,,,,,,,,,,,,,,,,,,,,,,,,,,,,,,,,,,,,,,,,,,,,,,,,,,,,,,,,,,,,,,,,,,,,,,,,,,,,,,,,,,,,,,,,,,,,,,,,,,,,,,,,,,,,,,,,,,,,,,,,,,,,,,,,,,,,,
0,46,46,22,1,,6155752fd8e4f079cb44557d,62c539dd7b979cb36aef82e3,2022-07-06_09h30.59.682,Colour_Asymmetry_Pilot,2022.1.3,Win32,60.44122091,62c50e9c1127f2cd403a315f,,,,,,,,,,,,,,,,,,,,,,,,,,,,,,,,,,,,,,,,,,,,,,,,,,,,,,,,,,,,,,,,,,,,,,,,,,,,,,,,,,,,,,,,,,,,,,,,,,,,,,,,,,,,,,,,,,,,,,,,,,,,,,,,,,,,,,,,,,,,,,,,,,,,,,,,,,,,,,,,,,,
0,47,47,33,1,,6155752fd8e4f079cb44557d,62c539dd7b979cb36aef82e3,2022-07-06_09h30.59.682,Colour_Asymmetry_Pilot,2022.1.3,Win32,60.44122091,62c50e9c1127f2cd403a315f,,,,,,,,,,,,,,,,,,,,,,,,,,,,,,,,,,,,,,,,,,,,,,,,,,,,,,,,,,,,,,,,,,,,,,,,,,,,,,,,,,,,,,,,,,,,,,,,,,,,,,,,,,,,,,,,,,,,,,,,,,,,,,,,,,,,,,,,,,,,,,,,,,,,,,,,,,,,,,,,,,,
0,48,48,48,1,,6155752fd8e4f079cb44557d,62c539dd7b979cb36aef82e3,2022-07-06_09h30.59.682,Colour_Asymmetry_Pilot,2022.1.3,Win32,60.44122091,62c50e9c1127f2cd403a315f,,,,,,,,,,,,,,,,,,,,,,,,,,,,,,,,,,,,,,,,,,,,,,,,,,,,,,,,,,,,,,,,,,,,,,,,,,,,,,,,,,,,,,,,,,,,,,,,,,,,,,,,,,,,,,,,,,,,,,,,,,,,,,,,,,,,,,,,,,,,,,,,,,,,,,,,,,,,,,,,,,,
0,49,49,39,1,,6155752fd8e4f079cb44557d,62c539dd7b979cb36aef82e3,2022-07-06_09h30.59.682,Colour_Asymmetry_Pilot,2022.1.3,Win32,60.44122091,62c50e9c1127f2cd403a315f,,,,,,,,,,,,,,,,,,,,,,,,,,,,,,,,,,,,,,,,,,,,,,,,,,,,,,,,,,,,,,,,,,,,,,,,,,,,,,,,,,,,,,,,,,,,,,,,,,,,,,,,,,,,,,,,,,,,,,,,,,,,,,,,,,,,,,,,,,,,,,,,,,,,,,,,,,,,,,,,,,,
0,50,50,27,1,,6155752fd8e4f079cb44557d,62c539dd7b979cb36aef82e3,2022-07-06_09h30.59.682,Colour_Asymmetry_Pilot,2022.1.3,Win32,60.44122091,62c50e9c1127f2cd403a315f,,,,,,,,,,,,,,,,,,,,,,,,,,,,,,,,,,,,,,,,,,,,,,,,,,,,,,,,,,,,,,,,,,,,,,,,,,,,,,,,,,,,,,,,,,,,,,,,,,,,,,,,,,,,,,,,,,,,,,,,,,,,,,,,,,,,,,,,,,,,,,,,,,,,,,,,,,,,,,,,,,,
0,51,51,46,1,,6155752fd8e4f079cb44557d,62c539dd7b979cb36aef82e3,2022-07-06_09h30.59.682,Colour_Asymmetry_Pilot,2022.1.3,Win32,60.44122091,62c50e9c1127f2cd403a315f,,,,,,,,,,,,,,,,,,,,,,,,,,,,,,,,,,,,,,,,,,,,,,,,,,,,,,,,,,,,,,,,,,,,,,,,,,,,,,,,,,,,,,,,,,,,,,,,,,,,,,,,,,,,,,,,,,,,,,,,,,,,,,,,,,,,,,,,,,,,,,,,,,,,,,,,,,,,,,,,,,,
0,52,52,24,1,,6155752fd8e4f079cb44557d,62c539dd7b979cb36aef82e3,2022-07-06_09h30.59.682,Colour_Asymmetry_Pilot,2022.1.3,Win32,60.44122091,62c50e9c1127f2cd403a315f,,,,,,,,,,,,,,,,,,,,,,,,,,,,,,,,,,,,,,,,,,,,,,,,,,,,,,,,,,,,,,,,,,,,,,,,,,,,,,,,,,,,,,,,,,,,,,,,,,,,,,,,,,,,,,,,,,,,,,,,,,,,,,,,,,,,,,,,,,,,,,,,,,,,,,,,,,,,,,,,,,,
0,53,53,15,1,,6155752fd8e4f079cb44557d,62c539dd7b979cb36aef82e3,2022-07-06_09h30.59.682,Colour_Asymmetry_Pilot,2022.1.3,Win32,60.44122091,62c50e9c1127f2cd403a315f,,,,,,,,,,,,,,,,,,,,,,,,,,,,,,,,,,,,,,,,,,,,,,,,,,,,,,,,,,,,,,,,,,,,,,,,,,,,,,,,,,,,,,,,,,,,,,,,,,,,,,,,,,,,,,,,,,,,,,,,,,,,,,,,,,,,,,,,,,,,,,,,,,,,,,,,,,,,,,,,,,,
0,54,54,65,1,,6155752fd8e4f079cb44557d,62c539dd7b979cb36aef82e3,2022-07-06_09h30.59.682,Colour_Asymmetry_Pilot,2022.1.3,Win32,60.44122091,62c50e9c1127f2cd403a315f,,,,,,,,,,,,,,,,,,,,,,,,,,,,,,,,,,,,,,,,,,,,,,,,,,,,,,,,,,,,,,,,,,,,,,,,,,,,,,,,,,,,,,,,,,,,,,,,,,,,,,,,,,,,,,,,,,,,,,,,,,,,,,,,,,,,,,,,,,,,,,,,,,,,,,,,,,,,,,,,,,,
0,55,55,9,1,,6155752fd8e4f079cb44557d,62c539dd7b979cb36aef82e3,2022-07-06_09h30.59.682,Colour_Asymmetry_Pilot,2022.1.3,Win32,60.44122091,62c50e9c1127f2cd403a315f,,,,,,,,,,,,,,,,,,,,,,,,,,,,,,,,,,,,,,,,,,,,,,,,,,,,,,,,,,,,,,,,,,,,,,,,,,,,,,,,,,,,,,,,,,,,,,,,,,,,,,,,,,,,,,,,,,,,,,,,,,,,,,,,,,,,,,,,,,,,,,,,,,,,,,,,,,,,,,,,,,,
0,56,56,55,1,,6155752fd8e4f079cb44557d,62c539dd7b979cb36aef82e3,2022-07-06_09h30.59.682,Colour_Asymmetry_Pilot,2022.1.3,Win32,60.44122091,62c50e9c1127f2cd403a315f,,,,,,,,,,,,,,,,,,,,,,,,,,,,,,,,,,,,,,,,,,,,,,,,,,,,,,,,,,,,,,,,,,,,,,,,,,,,,,,,,,,,,,,,,,,,,,,,,,,,,,,,,,,,,,,,,,,,,,,,,,,,,,,,,,,,,,,,,,,,,,,,,,,,,,,,,,,,,,,,,,,
0,57,57,13,1,,6155752fd8e4f079cb44557d,62c539dd7b979cb36aef82e3,2022-07-06_09h30.59.682,Colour_Asymmetry_Pilot,2022.1.3,Win32,60.44122091,62c50e9c1127f2cd403a315f,,,,,,,,,,,,,,,,,,,,,,,,,,,,,,,,,,,,,,,,,,,,,,,,,,,,,,,,,,,,,,,,,,,,,,,,,,,,,,,,,,,,,,,,,,,,,,,,,,,,,,,,,,,,,,,,,,,,,,,,,,,,,,,,,,,,,,,,,,,,,,,,,,,,,,,,,,,,,,,,,,,
0,58,58,59,1,,6155752fd8e4f079cb44557d,62c539dd7b979cb36aef82e3,2022-07-06_09h30.59.682,Colour_Asymmetry_Pilot,2022.1.3,Win32,60.44122091,62c50e9c1127f2cd403a315f,,,,,,,,,,,,,,,,,,,,,,,,,,,,,,,,,,,,,,,,,,,,,,,,,,,,,,,,,,,,,,,,,,,,,,,,,,,,,,,,,,,,,,,,,,,,,,,,,,,,,,,,,,,,,,,,,,,,,,,,,,,,,,,,,,,,,,,,,,,,,,,,,,,,,,,,,,,,,,,,,,,
0,59,59,3,1,,6155752fd8e4f079cb44557d,62c539dd7b979cb36aef82e3,2022-07-06_09h30.59.682,Colour_Asymmetry_Pilot,2022.1.3,Win32,60.44122091,62c50e9c1127f2cd403a315f,,,,,,,,,,,,,,,,,,,,,,,,,,,,,,,,,,,,,,,,,,,,,,,,,,,,,,,,,,,,,,,,,,,,,,,,,,,,,,,,,,,,,,,,,,,,,,,,,,,,,,,,,,,,,,,,,,,,,,,,,,,,,,,,,,,,,,,,,,,,,,,,,,,,,,,,,,,,,,,,,,,
0,60,60,60,1,,6155752fd8e4f079cb44557d,62c539dd7b979cb36aef82e3,2022-07-06_09h30.59.682,Colour_Asymmetry_Pilot,2022.1.3,Win32,60.44122091,62c50e9c1127f2cd403a315f,,,,,,,,,,,,,,,,,,,,,,,,,,,,,,,,,,,,,,,,,,,,,,,,,,,,,,,,,,,,,,,,,,,,,,,,,,,,,,,,,,,,,,,,,,,,,,,,,,,,,,,,,,,,,,,,,,,,,,,,,,,,,,,,,,,,,,,,,,,,,,,,,,,,,,,,,,,,,,,,,,,
0,61,61,68,1,,6155752fd8e4f079cb44557d,62c539dd7b979cb36aef82e3,2022-07-06_09h30.59.682,Colour_Asymmetry_Pilot,2022.1.3,Win32,60.44122091,62c50e9c1127f2cd403a315f,,,,,,,,,,,,,,,,,,,,,,,,,,,,,,,,,,,,,,,,,,,,,,,,,,,,,,,,,,,,,,,,,,,,,,,,,,,,,,,,,,,,,,,,,,,,,,,,,,,,,,,,,,,,,,,,,,,,,,,,,,,,,,,,,,,,,,,,,,,,,,,,,,,,,,,,,,,,,,,,,,,
0,62,62,66,1,,6155752fd8e4f079cb44557d,62c539dd7b979cb36aef82e3,2022-07-06_09h30.59.682,Colour_Asymmetry_Pilot,2022.1.3,Win32,60.44122091,62c50e9c1127f2cd403a315f,,,,,,,,,,,,,,,,,,,,,,,,,,,,,,,,,,,,,,,,,,,,,,,,,,,,,,,,,,,,,,,,,,,,,,,,,,,,,,,,,,,,,,,,,,,,,,,,,,,,,,,,,,,,,,,,,,,,,,,,,,,,,,,,,,,,,,,,,,,,,,,,,,,,,,,,,,,,,,,,,,,
0,63,63,38,1,,6155752fd8e4f079cb44557d,62c539dd7b979cb36aef82e3,2022-07-06_09h30.59.682,Colour_Asymmetry_Pilot,2022.1.3,Win32,60.44122091,62c50e9c1127f2cd403a315f,,,,,,,,,,,,,,,,,,,,,,,,,,,,,,,,,,,,,,,,,,,,,,,,,,,,,,,,,,,,,,,,,,,,,,,,,,,,,,,,,,,,,,,,,,,,,,,,,,,,,,,,,,,,,,,,,,,,,,,,,,,,,,,,,,,,,,,,,,,,,,,,,,,,,,,,,,,,,,,,,,,
0,64,64,31,1,,6155752fd8e4f079cb44557d,62c539dd7b979cb36aef82e3,2022-07-06_09h30.59.682,Colour_Asymmetry_Pilot,2022.1.3,Win32,60.44122091,62c50e9c1127f2cd403a315f,,,,,,,,,,,,,,,,,,,,,,,,,,,,,,,,,,,,,,,,,,,,,,,,,,,,,,,,,,,,,,,,,,,,,,,,,,,,,,,,,,,,,,,,,,,,,,,,,,,,,,,,,,,,,,,,,,,,,,,,,,,,,,,,,,,,,,,,,,,,,,,,,,,,,,,,,,,,,,,,,,,
0,65,65,32,1,,6155752fd8e4f079cb44557d,62c539dd7b979cb36aef82e3,2022-07-06_09h30.59.682,Colour_Asymmetry_Pilot,2022.1.3,Win32,60.44122091,62c50e9c1127f2cd403a315f,,,,,,,,,,,,,,,,,,,,,,,,,,,,,,,,,,,,,,,,,,,,,,,,,,,,,,,,,,,,,,,,,,,,,,,,,,,,,,,,,,,,,,,,,,,,,,,,,,,,,,,,,,,,,,,,,,,,,,,,,,,,,,,,,,,,,,,,,,,,,,,,,,,,,,,,,,,,,,,,,,,
0,66,66,56,1,,6155752fd8e4f079cb44557d,62c539dd7b979cb36aef82e3,2022-07-06_09h30.59.682,Colour_Asymmetry_Pilot,2022.1.3,Win32,60.44122091,62c50e9c1127f2cd403a315f,,,,,,,,,,,,,,,,,,,,,,,,,,,,,,,,,,,,,,,,,,,,,,,,,,,,,,,,,,,,,,,,,,,,,,,,,,,,,,,,,,,,,,,,,,,,,,,,,,,,,,,,,,,,,,,,,,,,,,,,,,,,,,,,,,,,,,,,,,,,,,,,,,,,,,,,,,,,,,,,,,,
0,67,67,91,1,,6155752fd8e4f079cb44557d,62c539dd7b979cb36aef82e3,2022-07-06_09h30.59.682,Colour_Asymmetry_Pilot,2022.1.3,Win32,60.44122091,62c50e9c1127f2cd403a315f,,,,,,,,,,,,,,,,,,,,,,,,,,,,,,,,,,,,,,,,,,,,,,,,,,,,,,,,,,,,,,,,,,,,,,,,,,,,,,,,,,,,,,,,,,,,,,,,,,,,,,,,,,,,,,,,,,,,,,,,,,,,,,,,,,,,,,,,,,,,,,,,,,,,,,,,,,,,,,,,,,,
0,68,68,70,1,,6155752fd8e4f079cb44557d,62c539dd7b979cb36aef82e3,2022-07-06_09h30.59.682,Colour_Asymmetry_Pilot,2022.1.3,Win32,60.44122091,62c50e9c1127f2cd403a315f,,,,,,,,,,,,,,,,,,,,,,,,,,,,,,,,,,,,,,,,,,,,,,,,,,,,,,,,,,,,,,,,,,,,,,,,,,,,,,,,,,,,,,,,,,,,,,,,,,,,,,,,,,,,,,,,,,,,,,,,,,,,,,,,,,,,,,,,,,,,,,,,,,,,,,,,,,,,,,,,,,,
0,69,69,30,1,,6155752fd8e4f079cb44557d,62c539dd7b979cb36aef82e3,2022-07-06_09h30.59.682,Colour_Asymmetry_Pilot,2022.1.3,Win32,60.44122091,62c50e9c1127f2cd403a315f,,,,,,,,,,,,,,,,,,,,,,,,,,,,,,,,,,,,,,,,,,,,,,,,,,,,,,,,,,,,,,,,,,,,,,,,,,,,,,,,,,,,,,,,,,,,,,,,,,,,,,,,,,,,,,,,,,,,,,,,,,,,,,,,,,,,,,,,,,,,,,,,,,,,,,,,,,,,,,,,,,,
0,70,70,41,1,,6155752fd8e4f079cb44557d,62c539dd7b979cb36aef82e3,2022-07-06_09h30.59.682,Colour_Asymmetry_Pilot,2022.1.3,Win32,60.44122091,62c50e9c1127f2cd403a315f,,,,,,,,,,,,,,,,,,,,,,,,,,,,,,,,,,,,,,,,,,,,,,,,,,,,,,,,,,,,,,,,,,,,,,,,,,,,,,,,,,,,,,,,,,,,,,,,,,,,,,,,,,,,,,,,,,,,,,,,,,,,,,,,,,,,,,,,,,,,,,,,,,,,,,,,,,,,,,,,,,,
0,71,71,73,1,,6155752fd8e4f079cb44557d,62c539dd7b979cb36aef82e3,2022-07-06_09h30.59.682,Colour_Asymmetry_Pilot,2022.1.3,Win32,60.44122091,62c50e9c1127f2cd403a315f,,,,,,,,,,,,,,,,,,,,,,,,,,,,,,,,,,,,,,,,,,,,,,,,,,,,,,,,,,,,,,,,,,,,,,,,,,,,,,,,,,,,,,,,,,,,,,,,,,,,,,,,,,,,,,,,,,,,,,,,,,,,,,,,,,,,,,,,,,,,,,,,,,,,,,,,,,,,,,,,,,,
0,72,72,58,1,,6155752fd8e4f079cb44557d,62c539dd7b979cb36aef82e3,2022-07-06_09h30.59.682,Colour_Asymmetry_Pilot,2022.1.3,Win32,60.44122091,62c50e9c1127f2cd403a315f,,,,,,,,,,,,,,,,,,,,,,,,,,,,,,,,,,,,,,,,,,,,,,,,,,,,,,,,,,,,,,,,,,,,,,,,,,,,,,,,,,,,,,,,,,,,,,,,,,,,,,,,,,,,,,,,,,,,,,,,,,,,,,,,,,,,,,,,,,,,,,,,,,,,,,,,,,,,,,,,,,,
0,73,73,25,1,,6155752fd8e4f079cb44557d,62c539dd7b979cb36aef82e3,2022-07-06_09h30.59.682,Colour_Asymmetry_Pilot,2022.1.3,Win32,60.44122091,62c50e9c1127f2cd403a315f,,,,,,,,,,,,,,,,,,,,,,,,,,,,,,,,,,,,,,,,,,,,,,,,,,,,,,,,,,,,,,,,,,,,,,,,,,,,,,,,,,,,,,,,,,,,,,,,,,,,,,,,,,,,,,,,,,,,,,,,,,,,,,,,,,,,,,,,,,,,,,,,,,,,,,,,,,,,,,,,,,,
0,74,74,78,1,,6155752fd8e4f079cb44557d,62c539dd7b979cb36aef82e3,2022-07-06_09h30.59.682,Colour_Asymmetry_Pilot,2022.1.3,Win32,60.44122091,62c50e9c1127f2cd403a315f,,,,,,,,,,,,,,,,,,,,,,,,,,,,,,,,,,,,,,,,,,,,,,,,,,,,,,,,,,,,,,,,,,,,,,,,,,,,,,,,,,,,,,,,,,,,,,,,,,,,,,,,,,,,,,,,,,,,,,,,,,,,,,,,,,,,,,,,,,,,,,,,,,,,,,,,,,,,,,,,,,,
0,75,75,37,1,,6155752fd8e4f079cb44557d,62c539dd7b979cb36aef82e3,2022-07-06_09h30.59.682,Colour_Asymmetry_Pilot,2022.1.3,Win32,60.44122091,62c50e9c1127f2cd403a315f,,,,,,,,,,,,,,,,,,,,,,,,,,,,,,,,,,,,,,,,,,,,,,,,,,,,,,,,,,,,,,,,,,,,,,,,,,,,,,,,,,,,,,,,,,,,,,,,,,,,,,,,,,,,,,,,,,,,,,,,,,,,,,,,,,,,,,,,,,,,,,,,,,,,,,,,,,,,,,,,,,,
0,76,76,8,1,,6155752fd8e4f079cb44557d,62c539dd7b979cb36aef82e3,2022-07-06_09h30.59.682,Colour_Asymmetry_Pilot,2022.1.3,Win32,60.44122091,62c50e9c1127f2cd403a315f,,,,,,,,,,,,,,,,,,,,,,,,,,,,,,,,,,,,,,,,,,,,,,,,,,,,,,,,,,,,,,,,,,,,,,,,,,,,,,,,,,,,,,,,,,,,,,,,,,,,,,,,,,,,,,,,,,,,,,,,,,,,,,,,,,,,,,,,,,,,,,,,,,,,,,,,,,,,,,,,,,,
0,77,77,50,1,,6155752fd8e4f079cb44557d,62c539dd7b979cb36aef82e3,2022-07-06_09h30.59.682,Colour_Asymmetry_Pilot,2022.1.3,Win32,60.44122091,62c50e9c1127f2cd403a315f,,,,,,,,,,,,,,,,,,,,,,,,,,,,,,,,,,,,,,,,,,,,,,,,,,,,,,,,,,,,,,,,,,,,,,,,,,,,,,,,,,,,,,,,,,,,,,,,,,,,,,,,,,,,,,,,,,,,,,,,,,,,,,,,,,,,,,,,,,,,,,,,,,,,,,,,,,,,,,,,,,,
0,78,78,69,1,,6155752fd8e4f079cb44557d,62c539dd7b979cb36aef82e3,2022-07-06_09h30.59.682,Colour_Asymmetry_Pilot,2022.1.3,Win32,60.44122091,62c50e9c1127f2cd403a315f,,,,,,,,,,,,,,,,,,,,,,,,,,,,,,,,,,,,,,,,,,,,,,,,,,,,,,,,,,,,,,,,,,,,,,,,,,,,,,,,,,,,,,,,,,,,,,,,,,,,,,,,,,,,,,,,,,,,,,,,,,,,,,,,,,,,,,,,,,,,,,,,,,,,,,,,,,,,,,,,,,,
0,79,79,64,1,,6155752fd8e4f079cb44557d,62c539dd7b979cb36aef82e3,2022-07-06_09h30.59.682,Colour_Asymmetry_Pilot,2022.1.3,Win32,60.44122091,62c50e9c1127f2cd403a315f,,,,,,,,,,,,,,,,,,,,,,,,,,,,,,,,,,,,,,,,,,,,,,,,,,,,,,,,,,,,,,,,,,,,,,,,,,,,,,,,,,,,,,,,,,,,,,,,,,,,,,,,,,,,,,,,,,,,,,,,,,,,,,,,,,,,,,,,,,,,,,,,,,,,,,,,,,,,,,,,,,,
0,80,80,87,1,,6155752fd8e4f079cb44557d,62c539dd7b979cb36aef82e3,2022-07-06_09h30.59.682,Colour_Asymmetry_Pilot,2022.1.3,Win32,60.44122091,62c50e9c1127f2cd403a315f,,,,,,,,,,,,,,,,,,,,,,,,,,,,,,,,,,,,,,,,,,,,,,,,,,,,,,,,,,,,,,,,,,,,,,,,,,,,,,,,,,,,,,,,,,,,,,,,,,,,,,,,,,,,,,,,,,,,,,,,,,,,,,,,,,,,,,,,,,,,,,,,,,,,,,,,,,,,,,,,,,,
0,81,81,74,1,,6155752fd8e4f079cb44557d,62c539dd7b979cb36aef82e3,2022-07-06_09h30.59.682,Colour_Asymmetry_Pilot,2022.1.3,Win32,60.44122091,62c50e9c1127f2cd403a315f,,,,,,,,,,,,,,,,,,,,,,,,,,,,,,,,,,,,,,,,,,,,,,,,,,,,,,,,,,,,,,,,,,,,,,,,,,,,,,,,,,,,,,,,,,,,,,,,,,,,,,,,,,,,,,,,,,,,,,,,,,,,,,,,,,,,,,,,,,,,,,,,,,,,,,,,,,,,,,,,,,,
0,82,82,62,1,,6155752fd8e4f079cb44557d,62c539dd7b979cb36aef82e3,2022-07-06_09h30.59.682,Colour_Asymmetry_Pilot,2022.1.3,Win32,60.44122091,62c50e9c1127f2cd403a315f,,,,,,,,,,,,,,,,,,,,,,,,,,,,,,,,,,,,,,,,,,,,,,,,,,,,,,,,,,,,,,,,,,,,,,,,,,,,,,,,,,,,,,,,,,,,,,,,,,,,,,,,,,,,,,,,,,,,,,,,,,,,,,,,,,,,,,,,,,,,,,,,,,,,,,,,,,,,,,,,,,,
0,83,83,17,1,,6155752fd8e4f079cb44557d,62c539dd7b979cb36aef82e3,2022-07-06_09h30.59.682,Colour_Asymmetry_Pilot,2022.1.3,Win32,60.44122091,62c50e9c1127f2cd403a315f,,,,,,,,,,,,,,,,,,,,,,,,,,,,,,,,,,,,,,,,,,,,,,,,,,,,,,,,,,,,,,,,,,,,,,,,,,,,,,,,,,,,,,,,,,,,,,,,,,,,,,,,,,,,,,,,,,,,,,,,,,,,,,,,,,,,,,,,,,,,,,,,,,,,,,,,,,,,,,,,,,,
0,84,84,61,1,,6155752fd8e4f079cb44557d,62c539dd7b979cb36aef82e3,2022-07-06_09h30.59.682,Colour_Asymmetry_Pilot,2022.1.3,Win32,60.44122091,62c50e9c1127f2cd403a315f,,,,,,,,,,,,,,,,,,,,,,,,,,,,,,,,,,,,,,,,,,,,,,,,,,,,,,,,,,,,,,,,,,,,,,,,,,,,,,,,,,,,,,,,,,,,,,,,,,,,,,,,,,,,,,,,,,,,,,,,,,,,,,,,,,,,,,,,,,,,,,,,,,,,,,,,,,,,,,,,,,,
0,85,85,16,1,,6155752fd8e4f079cb44557d,62c539dd7b979cb36aef82e3,2022-07-06_09h30.59.682,Colour_Asymmetry_Pilot,2022.1.3,Win32,60.44122091,62c50e9c1127f2cd403a315f,,,,,,,,,,,,,,,,,,,,,,,,,,,,,,,,,,,,,,,,,,,,,,,,,,,,,,,,,,,,,,,,,,,,,,,,,,,,,,,,,,,,,,,,,,,,,,,,,,,,,,,,,,,,,,,,,,,,,,,,,,,,,,,,,,,,,,,,,,,,,,,,,,,,,,,,,,,,,,,,,,,
0,86,86,20,1,,6155752fd8e4f079cb44557d,62c539dd7b979cb36aef82e3,2022-07-06_09h30.59.682,Colour_Asymmetry_Pilot,2022.1.3,Win32,60.44122091,62c50e9c1127f2cd403a315f,,,,,,,,,,,,,,,,,,,,,,,,,,,,,,,,,,,,,,,,,,,,,,,,,,,,,,,,,,,,,,,,,,,,,,,,,,,,,,,,,,,,,,,,,,,,,,,,,,,,,,,,,,,,,,,,,,,,,,,,,,,,,,,,,,,,,,,,,,,,,,,,,,,,,,,,,,,,,,,,,,,
0,87,87,54,1,,6155752fd8e4f079cb44557d,62c539dd7b979cb36aef82e3,2022-07-06_09h30.59.682,Colour_Asymmetry_Pilot,2022.1.3,Win32,60.44122091,62c50e9c1127f2cd403a315f,,,,,,,,,,,,,,,,,,,,,,,,,,,,,,,,,,,,,,,,,,,,,,,,,,,,,,,,,,,,,,,,,,,,,,,,,,,,,,,,,,,,,,,,,,,,,,,,,,,,,,,,,,,,,,,,,,,,,,,,,,,,,,,,,,,,,,,,,,,,,,,,,,,,,,,,,,,,,,,,,,,
0,88,88,7,1,,6155752fd8e4f079cb44557d,62c539dd7b979cb36aef82e3,2022-07-06_09h30.59.682,Colour_Asymmetry_Pilot,2022.1.3,Win32,60.44122091,62c50e9c1127f2cd403a315f,,,,,,,,,,,,,,,,,,,,,,,,,,,,,,,,,,,,,,,,,,,,,,,,,,,,,,,,,,,,,,,,,,,,,,,,,,,,,,,,,,,,,,,,,,,,,,,,,,,,,,,,,,,,,,,,,,,,,,,,,,,,,,,,,,,,,,,,,,,,,,,,,,,,,,,,,,,,,,,,,,,
0,89,89,47,1,,6155752fd8e4f079cb44557d,62c539dd7b979cb36aef82e3,2022-07-06_09h30.59.682,Colour_Asymmetry_Pilot,2022.1.3,Win32,60.44122091,62c50e9c1127f2cd403a315f,,,,,,,,,,,,,,,,,,,,,,,,,,,,,,,,,,,,,,,,,,,,,,,,,,,,,,,,,,,,,,,,,,,,,,,,,,,,,,,,,,,,,,,,,,,,,,,,,,,,,,,,,,,,,,,,,,,,,,,,,,,,,,,,,,,,,,,,,,,,,,,,,,,,,,,,,,,,,,,,,,,
0,90,90,53,1,,6155752fd8e4f079cb44557d,62c539dd7b979cb36aef82e3,2022-07-06_09h30.59.682,Colour_Asymmetry_Pilot,2022.1.3,Win32,60.44122091,62c50e9c1127f2cd403a315f,,,,,,,,,,,,,,,,,,,,,,,,,,,,,,,,,,,,,,,,,,,,,,,,,,,,,,,,,,,,,,,,,,,,,,,,,,,,,,,,,,,,,,,,,,,,,,,,,,,,,,,,,,,,,,,,,,,,,,,,,,,,,,,,,,,,,,,,,,,,,,,,,,,,,,,,,,,,,,,,,,,
0,91,91,21,1,,6155752fd8e4f079cb44557d,62c539dd7b979cb36aef82e3,2022-07-06_09h30.59.682,Colour_Asymmetry_Pilot,2022.1.3,Win32,60.44122091,62c50e9c1127f2cd403a315f,,,,,,,,,,,,,,,,,,,,,,,,,,,,,,,,,,,,,,,,,,,,,,,,,,,,,,,,,,,,,,,,,,,,,,,,,,,,,,,,,,,,,,,,,,,,,,,,,,,,,,,,,,,,,,,,,,,,,,,,,,,,,,,,,,,,,,,,,,,,,,,,,,,,,,,,,,,,,,,,,,,
0,92,92,72,1,,6155752fd8e4f079cb44557d,62c539dd7b979cb36aef82e3,2022-07-06_09h30.59.682,Colour_Asymmetry_Pilot,2022.1.3,Win32,60.44122091,62c50e9c1127f2cd403a315f,,,,,,,,,,,,,,,,,,,,,,,,,,,,,,,,,,,,,,,,,,,,,,,,,,,,,,,,,,,,,,,,,,,,,,,,,,,,,,,,,,,,,,,,,,,,,,,,,,,,,,,,,,,,,,,,,,,,,,,,,,,,,,,,,,,,,,,,,,,,,,,,,,,,,,,,,,,,,,,,,,,
,,,,,,6155752fd8e4f079cb44557d,62c539dd7b979cb36aef82e3,2022-07-06_09h30.59.682,Colour_Asymmetry_Pilot,2022.1.3,Win32,60.44122091,62c50e9c1127f2cd403a315f,0,0,0,70,1,fourtwo,,,,,,,,,,,,,,,,,,,,,,,,,,,,,,,,,,,,,,,,,,,,,,,,,,,,,,,,,,,,,,,,,,,,,,,,,,,,,,,,,,,,,,,,,,,,,,,,,,,,,,,,,,,,,,,,,,,,,,,,,,,,,,,,,,,,,,,,,,,,,,,,,,,,,,,,,,,,,
,,,,,,6155752fd8e4f079cb44557d,62c539dd7b979cb36aef82e3,2022-07-06_09h30.59.682,Colour_Asymmetry_Pilot,2022.1.3,Win32,60.44122091,62c50e9c1127f2cd403a315f,0,1,1,139,1,twofour,,,,,,,,,,,,,,,,,,,,,,,,,,,,,,,,,,,,,,,,,,,,,,,,,,,,,,,,,,,,,,,,,,,,,,,,,,,,,,,,,,,,,,,,,,,,,,,,,,,,,,,,,,,,,,,,,,,,,,,,,,,,,,,,,,,,,,,,,,,,,,,,,,,,,,,,,,,,,
,,,,,,6155752fd8e4f079cb44557d,62c539dd7b979cb36aef82e3,2022-07-06_09h30.59.682,Colour_Asymmetry_Pilot,2022.1.3,Win32,60.44122091,62c50e9c1127f2cd403a315f,0,2,2,112,1,onetwo,,,,,,,,,,,,,,,,,,,,,,,,,,,,,,,,,,,,,,,,,,,,,,,,,,,,,,,,,,,,,,,,,,,,,,,,,,,,,,,,,,,,,,,,,,,,,,,,,,,,,,,,,,,,,,,,,,,,,,,,,,,,,,,,,,,,,,,,,,,,,,,,,,,,,,,,,,,,,
,,,,,,6155752fd8e4f079cb44557d,62c539dd7b979cb36aef82e3,2022-07-06_09h30.59.682,Colour_Asymmetry_Pilot,2022.1.3,Win32,60.44122091,62c50e9c1127f2cd403a315f,0,3,3,126,1,fourtwo,,,,,,,,,,,,,,,,,,,,,,,,,,,,,,,,,,,,,,,,,,,,,,,,,,,,,,,,,,,,,,,,,,,,,,,,,,,,,,,,,,,,,,,,,,,,,,,,,,,,,,,,,,,,,,,,,,,,,,,,,,,,,,,,,,,,,,,,,,,,,,,,,,,,,,,,,,,,,
,,,,,,6155752fd8e4f079cb44557d,62c539dd7b979cb36aef82e3,2022-07-06_09h30.59.682,Colour_Asymmetry_Pilot,2022.1.3,Win32,60.44122091,62c50e9c1127f2cd403a315f,0,4,4,56,1,onetwo,,,,,,,,,,,,,,,,,,,,,,,,,,,,,,,,,,,,,,,,,,,,,,,,,,,,,,,,,,,,,,,,,,,,,,,,,,,,,,,,,,,,,,,,,,,,,,,,,,,,,,,,,,,,,,,,,,,,,,,,,,,,,,,,,,,,,,,,,,,,,,,,,,,,,,,,,,,,,
,,,,,,6155752fd8e4f079cb44557d,62c539dd7b979cb36aef82e3,2022-07-06_09h30.59.682,Colour_Asymmetry_Pilot,2022.1.3,Win32,60.44122091,62c50e9c1127f2cd403a315f,0,5,5,159,1,fourthree,,,,,,,,,,,,,,,,,,,,,,,,,,,,,,,,,,,,,,,,,,,,,,,,,,,,,,,,,,,,,,,,,,,,,,,,,,,,,,,,,,,,,,,,,,,,,,,,,,,,,,,,,,,,,,,,,,,,,,,,,,,,,,,,,,,,,,,,,,,,,,,,,,,,,,,,,,,,,
,,,,,,6155752fd8e4f079cb44557d,62c539dd7b979cb36aef82e3,2022-07-06_09h30.59.682,Colour_Asymmetry_Pilot,2022.1.3,Win32,60.44122091,62c50e9c1127f2cd403a315f,0,6,6,17,1,onethree,,,,,,,,,,,,,,,,,,,,,,,,,,,,,,,,,,,,,,,,,,,,,,,,,,,,,,,,,,,,,,,,,,,,,,,,,,,,,,,,,,,,,,,,,,,,,,,,,,,,,,,,,,,,,,,,,,,,,,,,,,,,,,,,,,,,,,,,,,,,,,,,,,,,,,,,,,,,,
,,,,,,6155752fd8e4f079cb44557d,62c539dd7b979cb36aef82e3,2022-07-06_09h30.59.682,Colour_Asymmetry_Pilot,2022.1.3,Win32,60.44122091,62c50e9c1127f2cd403a315f,0,7,7,155,1,twofour,,,,,,,,,,,,,,,,,,,,,,,,,,,,,,,,,,,,,,,,,,,,,,,,,,,,,,,,,,,,,,,,,,,,,,,,,,,,,,,,,,,,,,,,,,,,,,,,,,,,,,,,,,,,,,,,,,,,,,,,,,,,,,,,,,,,,,,,,,,,,,,,,,,,,,,,,,,,,
,,,,,,6155752fd8e4f079cb44557d,62c539dd7b979cb36aef82e3,2022-07-06_09h30.59.682,Colour_Asymmetry_Pilot,2022.1.3,Win32,60.44122091,62c50e9c1127f2cd403a315f,0,8,8,24,1,onetwo,,,,,,,,,,,,,,,,,,,,,,,,,,,,,,,,,,,,,,,,,,,,,,,,,,,,,,,,,,,,,,,,,,,,,,,,,,,,,,,,,,,,,,,,,,,,,,,,,,,,,,,,,,,,,,,,,,,,,,,,,,,,,,,,,,,,,,,,,,,,,,,,,,,,,,,,,,,,,
,,,,,,6155752fd8e4f079cb44557d,62c539dd7b979cb36aef82e3,2022-07-06_09h30.59.682,Colour_Asymmetry_Pilot,2022.1.3,Win32,60.44122091,62c50e9c1127f2cd403a315f,0,9,9,52,1,threeone,,,,,,,,,,,,,,,,,,,,,,,,,,,,,,,,,,,,,,,,,,,,,,,,,,,,,,,,,,,,,,,,,,,,,,,,,,,,,,,,,,,,,,,,,,,,,,,,,,,,,,,,,,,,,,,,,,,,,,,,,,,,,,,,,,,,,,,,,,,,,,,,,,,,,,,,,,,,,
,,,,,,6155752fd8e4f079cb44557d,62c539dd7b979cb36aef82e3,2022-07-06_09h30.59.682,Colour_Asymmetry_Pilot,2022.1.3,Win32,60.44122091,62c50e9c1127f2cd403a315f,0,10,10,19,1,twofour,,,,,,,,,,,,,,,,,,,,,,,,,,,,,,,,,,,,,,,,,,,,,,,,,,,,,,,,,,,,,,,,,,,,,,,,,,,,,,,,,,,,,,,,,,,,,,,,,,,,,,,,,,,,,,,,,,,,,,,,,,,,,,,,,,,,,,,,,,,,,,,,,,,,,,,,,,,,,
,,,,,,6155752fd8e4f079cb44557d,62c539dd7b979cb36aef82e3,2022-07-06_09h30.59.682,Colour_Asymmetry_Pilot,2022.1.3,Win32,60.44122091,62c50e9c1127f2cd403a315f,0,11,11,18,1,twoone,,,,,,,,,,,,,,,,,,,,,,,,,,,,,,,,,,,,,,,,,,,,,,,,,,,,,,,,,,,,,,,,,,,,,,,,,,,,,,,,,,,,,,,,,,,,,,,,,,,,,,,,,,,,,,,,,,,,,,,,,,,,,,,,,,,,,,,,,,,,,,,,,,,,,,,,,,,,,
,,,,,,6155752fd8e4f079cb44557d,62c539dd7b979cb36aef82e3,2022-07-06_09h30.59.682,Colour_Asymmetry_Pilot,2022.1.3,Win32,60.44122091,62c50e9c1127f2cd403a315f,0,12,12,62,1,fourtwo,,,,,,,,,,,,,,,,,,,,,,,,,,,,,,,,,,,,,,,,,,,,,,,,,,,,,,,,,,,,,,,,,,,,,,,,,,,,,,,,,,,,,,,,,,,,,,,,,,,,,,,,,,,,,,,,,,,,,,,,,,,,,,,,,,,,,,,,,,,,,,,,,,,,,,,,,,,,,
,,,,,,6155752fd8e4f079cb44557d,62c539dd7b979cb36aef82e3,2022-07-06_09h30.59.682,Colour_Asymmetry_Pilot,2022.1.3,Win32,60.44122091,62c50e9c1127f2cd403a315f,0,13,13,97,1,onethree,,,,,,,,,,,,,,,,,,,,,,,,,,,,,,,,,,,,,,,,,,,,,,,,,,,,,,,,,,,,,,,,,,,,,,,,,,,,,,,,,,,,,,,,,,,,,,,,,,,,,,,,,,,,,,,,,,,,,,,,,,,,,,,,,,,,,,,,,,,,,,,,,,,,,,,,,,,,,
,,,,,,6155752fd8e4f079cb44557d,62c539dd7b979cb36aef82e3,2022-07-06_09h30.59.682,Colour_Asymmetry_Pilot,2022.1.3,Win32,60.44122091,62c50e9c1127f2cd403a315f,0,14,14,42,1,twoone,,,,,,,,,,,,,,,,,,,,,,,,,,,,,,,,,,,,,,,,,,,,,,,,,,,,,,,,,,,,,,,,,,,,,,,,,,,,,,,,,,,,,,,,,,,,,,,,,,,,,,,,,,,,,,,,,,,,,,,,,,,,,,,,,,,,,,,,,,,,,,,,,,,,,,,,,,,,,
,,,,,,6155752fd8e4f079cb44557d,62c539dd7b979cb36aef82e3,2022-07-06_09h30.59.682,Colour_Asymmetry_Pilot,2022.1.3,Win32,60.44122091,62c50e9c1127f2cd403a315f,0,15,15,47,1,fourthree,,,,,,,,,,,,,,,,,,,,,,,,,,,,,,,,,,,,,,,,,,,,,,,,,,,,,,,,,,,,,,,,,,,,,,,,,,,,,,,,,,,,,,,,,,,,,,,,,,,,,,,,,,,,,,,,,,,,,,,,,,,,,,,,,,,,,,,,,,,,,,,,,,,,,,,,,,,,,
,,,,,,6155752fd8e4f079cb44557d,62c539dd7b979cb36aef82e3,2022-07-06_09h30.59.682,Colour_Asymmetry_Pilot,2022.1.3,Win32,60.44122091,62c50e9c1127f2cd403a315f,0,16,16,146,1,twoone,,,,,,,,,,,,,,,,,,,,,,,,,,,,,,,,,,,,,,,,,,,,,,,,,,,,,,,,,,,,,,,,,,,,,,,,,,,,,,,,,,,,,,,,,,,,,,,,,,,,,,,,,,,,,,,,,,,,,,,,,,,,,,,,,,,,,,,,,,,,,,,,,,,,,,,,,,,,,
,,,,,,6155752fd8e4f079cb44557d,62c539dd7b979cb36aef82e3,2022-07-06_09h30.59.682,Colour_Asymmetry_Pilot,2022.1.3,Win32,60.44122091,62c50e9c1127f2cd403a315f,0,17,17,125,1,threefour,,,,,,,,,,,,,,,,,,,,,,,,,,,,,,,,,,,,,,,,,,,,,,,,,,,,,,,,,,,,,,,,,,,,,,,,,,,,,,,,,,,,,,,,,,,,,,,,,,,,,,,,,,,,,,,,,,,,,,,,,,,,,,,,,,,,,,,,,,,,,,,,,,,,,,,,,,,,,
,,,,,,6155752fd8e4f079cb44557d,62c539dd7b979cb36aef82e3,2022-07-06_09h30.59.682,Colour_Asymmetry_Pilot,2022.1.3,Win32,60.44122091,62c50e9c1127f2cd403a315f,0,18,18,64,1,onetwo,,,,,,,,,,,,,,,,,,,,,,,,,,,,,,,,,,,,,,,,,,,,,,,,,,,,,,,,,,,,,,,,,,,,,,,,,,,,,,,,,,,,,,,,,,,,,,,,,,,,,,,,,,,,,,,,,,,,,,,,,,,,,,,,,,,,,,,,,,,,,,,,,,,,,,,,,,,,,
,,,,,,6155752fd8e4f079cb44557d,62c539dd7b979cb36aef82e3,2022-07-06_09h30.59.682,Colour_Asymmetry_Pilot,2022.1.3,Win32,60.44122091,62c50e9c1127f2cd403a315f,0,19,19,26,1,twoone,,,,,,,,,,,,,,,,,,,,,,,,,,,,,,,,,,,,,,,,,,,,,,,,,,,,,,,,,,,,,,,,,,,,,,,,,,,,,,,,,,,,,,,,,,,,,,,,,,,,,,,,,,,,,,,,,,,,,,,,,,,,,,,,,,,,,,,,,,,,,,,,,,,,,,,,,,,,,
,,,,,,6155752fd8e4f079cb44557d,62c539dd7b979cb36aef82e3,2022-07-06_09h30.59.682,Colour_Asymmetry_Pilot,2022.1.3,Win32,60.44122091,62c50e9c1127f2cd403a315f,0,20,20,21,1,threefour,,,,,,,,,,,,,,,,,,,,,,,,,,,,,,,,,,,,,,,,,,,,,,,,,,,,,,,,,,,,,,,,,,,,,,,,,,,,,,,,,,,,,,,,,,,,,,,,,,,,,,,,,,,,,,,,,,,,,,,,,,,,,,,,,,,,,,,,,,,,,,,,,,,,,,,,,,,,,
,,,,,,6155752fd8e4f079cb44557d,62c539dd7b979cb36aef82e3,2022-07-06_09h30.59.682,Colour_Asymmetry_Pilot,2022.1.3,Win32,60.44122091,62c50e9c1127f2cd403a315f,0,21,21,156,1,threeone,,,,,,,,,,,,,,,,,,,,,,,,,,,,,,,,,,,,,,,,,,,,,,,,,,,,,,,,,,,,,,,,,,,,,,,,,,,,,,,,,,,,,,,,,,,,,,,,,,,,,,,,,,,,,,,,,,,,,,,,,,,,,,,,,,,,,,,,,,,,,,,,,,,,,,,,,,,,,
,,,,,,6155752fd8e4f079cb44557d,62c539dd7b979cb36aef82e3,2022-07-06_09h30.59.682,Colour_Asymmetry_Pilot,2022.1.3,Win32,60.44122091,62c50e9c1127f2cd403a315f,0,22,22,140,1,threeone,,,,,,,,,,,,,,,,,,,,,,,,,,,,,,,,,,,,,,,,,,,,,,,,,,,,,,,,,,,,,,,,,,,,,,,,,,,,,,,,,,,,,,,,,,,,,,,,,,,,,,,,,,,,,,,,,,,,,,,,,,,,,,,,,,,,,,,,,,,,,,,,,,,,,,,,,,,,,
,,,,,,6155752fd8e4f079cb44557d,62c539dd7b979cb36aef82e3,2022-07-06_09h30.59.682,Colour_Asymmetry_Pilot,2022.1.3,Win32,60.44122091,62c50e9c1127f2cd403a315f,0,23,23,154,1,twoone,,,,,,,,,,,,,,,,,,,,,,,,,,,,,,,,,,,,,,,,,,,,,,,,,,,,,,,,,,,,,,,,,,,,,,,,,,,,,,,,,,,,,,,,,,,,,,,,,,,,,,,,,,,,,,,,,,,,,,,,,,,,,,,,,,,,,,,,,,,,,,,,,,,,,,,,,,,,,
,,,,,,6155752fd8e4f079cb44557d,62c539dd7b979cb36aef82e3,2022-07-06_09h30.59.682,Colour_Asymmetry_Pilot,2022.1.3,Win32,60.44122091,62c50e9c1127f2cd403a315f,0,24,24,14,1,fourtwo,,,,,,,,,,,,,,,,,,,,,,,,,,,,,,,,,,,,,,,,,,,,,,,,,,,,,,,,,,,,,,,,,,,,,,,,,,,,,,,,,,,,,,,,,,,,,,,,,,,,,,,,,,,,,,,,,,,,,,,,,,,,,,,,,,,,,,,,,,,,,,,,,,,,,,,,,,,,,
,,,,,,6155752fd8e4f079cb44557d,62c539dd7b979cb36aef82e3,2022-07-06_09h30.59.682,Colour_Asymmetry_Pilot,2022.1.3,Win32,60.44122091,62c50e9c1127f2cd403a315f,0,25,25,71,1,fourthree,,,,,,,,,,,,,,,,,,,,,,,,,,,,,,,,,,,,,,,,,,,,,,,,,,,,,,,,,,,,,,,,,,,,,,,,,,,,,,,,,,,,,,,,,,,,,,,,,,,,,,,,,,,,,,,,,,,,,,,,,,,,,,,,,,,,,,,,,,,,,,,,,,,,,,,,,,,,,
,,,,,,6155752fd8e4f079cb44557d,62c539dd7b979cb36aef82e3,2022-07-06_09h30.59.682,Colour_Asymmetry_Pilot,2022.1.3,Win32,60.44122091,62c50e9c1127f2cd403a315f,0,26,26,118,1,fourtwo,,,,,,,,,,,,,,,,,,,,,,,,,,,,,,,,,,,,,,,,,,,,,,,,,,,,,,,,,,,,,,,,,,,,,,,,,,,,,,,,,,,,,,,,,,,,,,,,,,,,,,,,,,,,,,,,,,,,,,,,,,,,,,,,,,,,,,,,,,,,,,,,,,,,,,,,,,,,,
,,,,,,6155752fd8e4f079cb44557d,62c539dd7b979cb36aef82e3,2022-07-06_09h30.59.682,Colour_Asymmetry_Pilot,2022.1.3,Win32,60.44122091,62c50e9c1127f2cd403a315f,0,27,27,131,1,twofour,,,,,,,,,,,,,,,,,,,,,,,,,,,,,,,,,,,,,,,,,,,,,,,,,,,,,,,,,,,,,,,,,,,,,,,,,,,,,,,,,,,,,,,,,,,,,,,,,,,,,,,,,,,,,,,,,,,,,,,,,,,,,,,,,,,,,,,,,,,,,,,,,,,,,,,,,,,,,
,,,,,,6155752fd8e4f079cb44557d,62c539dd7b979cb36aef82e3,2022-07-06_09h30.59.682,Colour_Asymmetry_Pilot,2022.1.3,Win32,60.44122091,62c50e9c1127f2cd403a315f,0,28,28,65,1,onethree,,,,,,,,,,,,,,,,,,,,,,,,,,,,,,,,,,,,,,,,,,,,,,,,,,,,,,,,,,,,,,,,,,,,,,,,,,,,,,,,,,,,,,,,,,,,,,,,,,,,,,,,,,,,,,,,,,,,,,,,,,,,,,,,,,,,,,,,,,,,,,,,,,,,,,,,,,,,,
,,,,,,6155752fd8e4f079cb44557d,62c539dd7b979cb36aef82e3,2022-07-06_09h30.59.682,Colour_Asymmetry_Pilot,2022.1.3,Win32,60.44122091,62c50e9c1127f2cd403a315f,0,29,29,149,1,threefour,,,,,,,,,,,,,,,,,,,,,,,,,,,,,,,,,,,,,,,,,,,,,,,,,,,,,,,,,,,,,,,,,,,,,,,,,,,,,,,,,,,,,,,,,,,,,,,,,,,,,,,,,,,,,,,,,,,,,,,,,,,,,,,,,,,,,,,,,,,,,,,,,,,,,,,,,,,,,
,,,,,,6155752fd8e4f079cb44557d,62c539dd7b979cb36aef82e3,2022-07-06_09h30.59.682,Colour_Asymmetry_Pilot,2022.1.3,Win32,60.44122091,62c50e9c1127f2cd403a315f,0,30,30,20,1,threeone,,,,,,,,,,,,,,,,,,,,,,,,,,,,,,,,,,,,,,,,,,,,,,,,,,,,,,,,,,,,,,,,,,,,,,,,,,,,,,,,,,,,,,,,,,,,,,,,,,,,,,,,,,,,,,,,,,,,,,,,,,,,,,,,,,,,,,,,,,,,,,,,,,,,,,,,,,,,,
,,,,,,6155752fd8e4f079cb44557d,62c539dd7b979cb36aef82e3,2022-07-06_09h30.59.682,Colour_Asymmetry_Pilot,2022.1.3,Win32,60.44122091,62c50e9c1127f2cd403a315f,0,31,31,73,1,onethree,,,,,,,,,,,,,,,,,,,,,,,,,,,,,,,,,,,,,,,,,,,,,,,,,,,,,,,,,,,,,,,,,,,,,,,,,,,,,,,,,,,,,,,,,,,,,,,,,,,,,,,,,,,,,,,,,,,,,,,,,,,,,,,,,,,,,,,,,,,,,,,,,,,,,,,,,,,,,
,,,,,,6155752fd8e4f079cb44557d,62c539dd7b979cb36aef82e3,2022-07-06_09h30.59.682,Colour_Asymmetry_Pilot,2022.1.3,Win32,60.44122091,62c50e9c1127f2cd403a315f,0,32,32,2,1,twoone,,,,,,,,,,,,,,,,,,,,,,,,,,,,,,,,,,,,,,,,,,,,,,,,,,,,,,,,,,,,,,,,,,,,,,,,,,,,,,,,,,,,,,,,,,,,,,,,,,,,,,,,,,,,,,,,,,,,,,,,,,,,,,,,,,,,,,,,,,,,,,,,,,,,,,,,,,,,,
,,,,,,6155752fd8e4f079cb44557d,62c539dd7b979cb36aef82e3,2022-07-06_09h30.59.682,Colour_Asymmetry_Pilot,2022.1.3,Win32,60.44122091,62c50e9c1127f2cd403a315f,0,33,33,141,1,threefour,,,,,,,,,,,,,,,,,,,,,,,,,,,,,,,,,,,,,,,,,,,,,,,,,,,,,,,,,,,,,,,,,,,,,,,,,,,,,,,,,,,,,,,,,,,,,,,,,,,,,,,,,,,,,,,,,,,,,,,,,,,,,,,,,,,,,,,,,,,,,,,,,,,,,,,,,,,,,
,,,,,,6155752fd8e4f079cb44557d,62c539dd7b979cb36aef82e3,2022-07-06_09h30.59.682,Colour_Asymmetry_Pilot,2022.1.3,Win32,60.44122091,62c50e9c1127f2cd403a315f,0,34,34,101,1,threefour,,,,,,,,,,,,,,,,,,,,,,,,,,,,,,,,,,,,,,,,,,,,,,,,,,,,,,,,,,,,,,,,,,,,,,,,,,,,,,,,,,,,,,,,,,,,,,,,,,,,,,,,,,,,,,,,,,,,,,,,,,,,,,,,,,,,,,,,,,,,,,,,,,,,,,,,,,,,,
,,,,,,6155752fd8e4f079cb44557d,62c539dd7b979cb36aef82e3,2022-07-06_09h30.59.682,Colour_Asymmetry_Pilot,2022.1.3,Win32,60.44122091,62c50e9c1127f2cd403a315f,0,35,35,92,1,threeone,,,,,,,,,,,,,,,,,,,,,,,,,,,,,,,,,,,,,,,,,,,,,,,,,,,,,,,,,,,,,,,,,,,,,,,,,,,,,,,,,,,,,,,,,,,,,,,,,,,,,,,,,,,,,,,,,,,,,,,,,,,,,,,,,,,,,,,,,,,,,,,,,,,,,,,,,,,,,
,,,,,,6155752fd8e4f079cb44557d,62c539dd7b979cb36aef82e3,2022-07-06_09h30.59.682,Colour_Asymmetry_Pilot,2022.1.3,Win32,60.44122091,62c50e9c1127f2cd403a315f,0,36,36,152,1,onetwo,,,,,,,,,,,,,,,,,,,,,,,,,,,,,,,,,,,,,,,,,,,,,,,,,,,,,,,,,,,,,,,,,,,,,,,,,,,,,,,,,,,,,,,,,,,,,,,,,,,,,,,,,,,,,,,,,,,,,,,,,,,,,,,,,,,,,,,,,,,,,,,,,,,,,,,,,,,,,
,,,,,,6155752fd8e4f079cb44557d,62c539dd7b979cb36aef82e3,2022-07-06_09h30.59.682,Colour_Asymmetry_Pilot,2022.1.3,Win32,60.44122091,62c50e9c1127f2cd403a315f,0,37,37,15,1,fourthree,,,,,,,,,,,,,,,,,,,,,,,,,,,,,,,,,,,,,,,,,,,,,,,,,,,,,,,,,,,,,,,,,,,,,,,,,,,,,,,,,,,,,,,,,,,,,,,,,,,,,,,,,,,,,,,,,,,,,,,,,,,,,,,,,,,,,,,,,,,,,,,,,,,,,,,,,,,,,
,,,,,,6155752fd8e4f079cb44557d,62c539dd7b979cb36aef82e3,2022-07-06_09h30.59.682,Colour_Asymmetry_Pilot,2022.1.3,Win32,60.44122091,62c50e9c1127f2cd403a315f,0,38,38,7,1,fourthree,,,,,,,,,,,,,,,,,,,,,,,,,,,,,,,,,,,,,,,,,,,,,,,,,,,,,,,,,,,,,,,,,,,,,,,,,,,,,,,,,,,,,,,,,,,,,,,,,,,,,,,,,,,,,,,,,,,,,,,,,,,,,,,,,,,,,,,,,,,,,,,,,,,,,,,,,,,,,
,,,,,,6155752fd8e4f079cb44557d,62c539dd7b979cb36aef82e3,2022-07-06_09h30.59.682,Colour_Asymmetry_Pilot,2022.1.3,Win32,60.44122091,62c50e9c1127f2cd403a315f,0,39,39,53,1,threefour,,,,,,,,,,,,,,,,,,,,,,,,,,,,,,,,,,,,,,,,,,,,,,,,,,,,,,,,,,,,,,,,,,,,,,,,,,,,,,,,,,,,,,,,,,,,,,,,,,,,,,,,,,,,,,,,,,,,,,,,,,,,,,,,,,,,,,,,,,,,,,,,,,,,,,,,,,,,,
,,,,,,6155752fd8e4f079cb44557d,62c539dd7b979cb36aef82e3,2022-07-06_09h30.59.682,Colour_Asymmetry_Pilot,2022.1.3,Win32,60.44122091,62c50e9c1127f2cd403a315f,0,40,40,31,1,fourthree,,,,,,,,,,,,,,,,,,,,,,,,,,,,,,,,,,,,,,,,,,,,,,,,,,,,,,,,,,,,,,,,,,,,,,,,,,,,,,,,,,,,,,,,,,,,,,,,,,,,,,,,,,,,,,,,,,,,,,,,,,,,,,,,,,,,,,,,,,,,,,,,,,,,,,,,,,,,,
,,,,,,6155752fd8e4f079cb44557d,62c539dd7b979cb36aef82e3,2022-07-06_09h30.59.682,Colour_Asymmetry_Pilot,2022.1.3,Win32,60.44122091,62c50e9c1127f2cd403a315f,0,41,41,60,1,threeone,,,,,,,,,,,,,,,,,,,,,,,,,,,,,,,,,,,,,,,,,,,,,,,,,,,,,,,,,,,,,,,,,,,,,,,,,,,,,,,,,,,,,,,,,,,,,,,,,,,,,,,,,,,,,,,,,,,,,,,,,,,,,,,,,,,,,,,,,,,,,,,,,,,,,,,,,,,,,
,,,,,,6155752fd8e4f079cb44557d,62c539dd7b979cb36aef82e3,2022-07-06_09h30.59.682,Colour_Asymmetry_Pilot,2022.1.3,Win32,60.44122091,62c50e9c1127f2cd403a315f,0,42,42,78,1,fourtwo,,,,,,,,,,,,,,,,,,,,,,,,,,,,,,,,,,,,,,,,,,,,,,,,,,,,,,,,,,,,,,,,,,,,,,,,,,,,,,,,,,,,,,,,,,,,,,,,,,,,,,,,,,,,,,,,,,,,,,,,,,,,,,,,,,,,,,,,,,,,,,,,,,,,,,,,,,,,,
,,,,,,6155752fd8e4f079cb44557d,62c539dd7b979cb36aef82e3,2022-07-06_09h30.59.682,Colour_Asymmetry_Pilot,2022.1.3,Win32,60.44122091,62c50e9c1127f2cd403a315f,0,43,43,127,1,fourthree,,,,,,,,,,,,,,,,,,,,,,,,,,,,,,,,,,,,,,,,,,,,,,,,,,,,,,,,,,,,,,,,,,,,,,,,,,,,,,,,,,,,,,,,,,,,,,,,,,,,,,,,,,,,,,,,,,,,,,,,,,,,,,,,,,,,,,,,,,,,,,,,,,,,,,,,,,,,,
,,,,,,6155752fd8e4f079cb44557d,62c539dd7b979cb36aef82e3,2022-07-06_09h30.59.682,Colour_Asymmetry_Pilot,2022.1.3,Win32,60.44122091,62c50e9c1127f2cd403a315f,0,44,44,33,1,onethree,,,,,,,,,,,,,,,,,,,,,,,,,,,,,,,,,,,,,,,,,,,,,,,,,,,,,,,,,,,,,,,,,,,,,,,,,,,,,,,,,,,,,,,,,,,,,,,,,,,,,,,,,,,,,,,,,,,,,,,,,,,,,,,,,,,,,,,,,,,,,,,,,,,,,,,,,,,,,
,,,,,,6155752fd8e4f079cb44557d,62c539dd7b979cb36aef82e3,2022-07-06_09h30.59.682,Colour_Asymmetry_Pilot,2022.1.3,Win32,60.44122091,62c50e9c1127f2cd403a315f,0,45,45,111,1,fourthree,,,,,,,,,,,,,,,,,,,,,,,,,,,,,,,,,,,,,,,,,,,,,,,,,,,,,,,,,,,,,,,,,,,,,,,,,,,,,,,,,,,,,,,,,,,,,,,,,,,,,,,,,,,,,,,,,,,,,,,,,,,,,,,,,,,,,,,,,,,,,,,,,,,,,,,,,,,,,
,,,,,,6155752fd8e4f079cb44557d,62c539dd7b979cb36aef82e3,2022-07-06_09h30.59.682,Colour_Asymmetry_Pilot,2022.1.3,Win32,60.44122091,62c50e9c1127f2cd403a315f,0,46,46,8,1,onetwo,,,,,,,,,,,,,,,,,,,,,,,,,,,,,,,,,,,,,,,,,,,,,,,,,,,,,,,,,,,,,,,,,,,,,,,,,,,,,,,,,,,,,,,,,,,,,,,,,,,,,,,,,,,,,,,,,,,,,,,,,,,,,,,,,,,,,,,,,,,,,,,,,,,,,,,,,,,,,
,,,,,,6155752fd8e4f079cb44557d,62c539dd7b979cb36aef82e3,2022-07-06_09h30.59.682,Colour_Asymmetry_Pilot,2022.1.3,Win32,60.44122091,62c50e9c1127f2cd403a315f,0,47,47,75,1,twofour,,,,,,,,,,,,,,,,,,,,,,,,,,,,,,,,,,,,,,,,,,,,,,,,,,,,,,,,,,,,,,,,,,,,,,,,,,,,,,,,,,,,,,,,,,,,,,,,,,,,,,,,,,,,,,,,,,,,,,,,,,,,,,,,,,,,,,,,,,,,,,,,,,,,,,,,,,,,,
,,,,,,6155752fd8e4f079cb44557d,62c539dd7b979cb36aef82e3,2022-07-06_09h30.59.682,Colour_Asymmetry_Pilot,2022.1.3,Win32,60.44122091,62c50e9c1127f2cd403a315f,0,48,48,88,1,onetwo,,,,,,,,,,,,,,,,,,,,,,,,,,,,,,,,,,,,,,,,,,,,,,,,,,,,,,,,,,,,,,,,,,,,,,,,,,,,,,,,,,,,,,,,,,,,,,,,,,,,,,,,,,,,,,,,,,,,,,,,,,,,,,,,,,,,,,,,,,,,,,,,,,,,,,,,,,,,,
,,,,,,6155752fd8e4f079cb44557d,62c539dd7b979cb36aef82e3,2022-07-06_09h30.59.682,Colour_Asymmetry_Pilot,2022.1.3,Win32,60.44122091,62c50e9c1127f2cd403a315f,0,49,49,133,1,threefour,,,,,,,,,,,,,,,,,,,,,,,,,,,,,,,,,,,,,,,,,,,,,,,,,,,,,,,,,,,,,,,,,,,,,,,,,,,,,,,,,,,,,,,,,,,,,,,,,,,,,,,,,,,,,,,,,,,,,,,,,,,,,,,,,,,,,,,,,,,,,,,,,,,,,,,,,,,,,
,,,,,,6155752fd8e4f079cb44557d,62c539dd7b979cb36aef82e3,2022-07-06_09h30.59.682,Colour_Asymmetry_Pilot,2022.1.3,Win32,60.44122091,62c50e9c1127f2cd403a315f,0,50,50,83,1,twofour,,,,,,,,,,,,,,,,,,,,,,,,,,,,,,,,,,,,,,,,,,,,,,,,,,,,,,,,,,,,,,,,,,,,,,,,,,,,,,,,,,,,,,,,,,,,,,,,,,,,,,,,,,,,,,,,,,,,,,,,,,,,,,,,,,,,,,,,,,,,,,,,,,,,,,,,,,,,,
,,,,,,6155752fd8e4f079cb44557d,62c539dd7b979cb36aef82e3,2022-07-06_09h30.59.682,Colour_Asymmetry_Pilot,2022.1.3,Win32,60.44122091,62c50e9c1127f2cd403a315f,0,51,51,120,1,onetwo,,,,,,,,,,,,,,,,,,,,,,,,,,,,,,,,,,,,,,,,,,,,,,,,,,,,,,,,,,,,,,,,,,,,,,,,,,,,,,,,,,,,,,,,,,,,,,,,,,,,,,,,,,,,,,,,,,,,,,,,,,,,,,,,,,,,,,,,,,,,,,,,,,,,,,,,,,,,,
,,,,,,6155752fd8e4f079cb44557d,62c539dd7b979cb36aef82e3,2022-07-06_09h30.59.682,Colour_Asymmetry_Pilot,2022.1.3,Win32,60.44122091,62c50e9c1127f2cd403a315f,0,52,52,90,1,twoone,,,,,,,,,,,,,,,,,,,,,,,,,,,,,,,,,,,,,,,,,,,,,,,,,,,,,,,,,,,,,,,,,,,,,,,,,,,,,,,,,,,,,,,,,,,,,,,,,,,,,,,,,,,,,,,,,,,,,,,,,,,,,,,,,,,,,,,,,,,,,,,,,,,,,,,,,,,,,
,,,,,,6155752fd8e4f079cb44557d,62c539dd7b979cb36aef82e3,2022-07-06_09h30.59.682,Colour_Asymmetry_Pilot,2022.1.3,Win32,60.44122091,62c50e9c1127f2cd403a315f,0,53,53,81,1,onethree,,,,,,,,,,,,,,,,,,,,,,,,,,,,,,,,,,,,,,,,,,,,,,,,,,,,,,,,,,,,,,,,,,,,,,,,,,,,,,,,,,,,,,,,,,,,,,,,,,,,,,,,,,,,,,,,,,,,,,,,,,,,,,,,,,,,,,,,,,,,,,,,,,,,,,,,,,,,,
,,,,,,6155752fd8e4f079cb44557d,62c539dd7b979cb36aef82e3,2022-07-06_09h30.59.682,Colour_Asymmetry_Pilot,2022.1.3,Win32,60.44122091,62c50e9c1127f2cd403a315f,0,54,54,93,1,threefour,,,,,,,,,,,,,,,,,,,,,,,,,,,,,,,,,,,,,,,,,,,,,,,,,,,,,,,,,,,,,,,,,,,,,,,,,,,,,,,,,,,,,,,,,,,,,,,,,,,,,,,,,,,,,,,,,,,,,,,,,,,,,,,,,,,,,,,,,,,,,,,,,,,,,,,,,,,,,
,,,,,,6155752fd8e4f079cb44557d,62c539dd7b979cb36aef82e3,2022-07-06_09h30.59.682,Colour_Asymmetry_Pilot,2022.1.3,Win32,60.44122091,62c50e9c1127f2cd403a315f,0,55,55,29,1,threefour,,,,,,,,,,,,,,,,,,,,,,,,,,,,,,,,,,,,,,,,,,,,,,,,,,,,,,,,,,,,,,,,,,,,,,,,,,,,,,,,,,,,,,,,,,,,,,,,,,,,,,,,,,,,,,,,,,,,,,,,,,,,,,,,,,,,,,,,,,,,,,,,,,,,,,,,,,,,,
,,,,,,6155752fd8e4f079cb44557d,62c539dd7b979cb36aef82e3,2022-07-06_09h30.59.682,Colour_Asymmetry_Pilot,2022.1.3,Win32,60.44122091,62c50e9c1127f2cd403a315f,0,56,56,158,1,fourtwo,,,,,,,,,,,,,,,,,,,,,,,,,,,,,,,,,,,,,,,,,,,,,,,,,,,,,,,,,,,,,,,,,,,,,,,,,,,,,,,,,,,,,,,,,,,,,,,,,,,,,,,,,,,,,,,,,,,,,,,,,,,,,,,,,,,,,,,,,,,,,,,,,,,,,,,,,,,,,
,,,,,,6155752fd8e4f079cb44557d,62c539dd7b979cb36aef82e3,2022-07-06_09h30.59.682,Colour_Asymmetry_Pilot,2022.1.3,Win32,60.44122091,62c50e9c1127f2cd403a315f,0,57,57,105,1,onethree,,,,,,,,,,,,,,,,,,,,,,,,,,,,,,,,,,,,,,,,,,,,,,,,,,,,,,,,,,,,,,,,,,,,,,,,,,,,,,,,,,,,,,,,,,,,,,,,,,,,,,,,,,,,,,,,,,,,,,,,,,,,,,,,,,,,,,,,,,,,,,,,,,,,,,,,,,,,,
,,,,,,6155752fd8e4f079cb44557d,62c539dd7b979cb36aef82e3,2022-07-06_09h30.59.682,Colour_Asymmetry_Pilot,2022.1.3,Win32,60.44122091,62c50e9c1127f2cd403a315f,0,58,58,41,1,onethree,,,,,,,,,,,,,,,,,,,,,,,,,,,,,,,,,,,,,,,,,,,,,,,,,,,,,,,,,,,,,,,,,,,,,,,,,,,,,,,,,,,,,,,,,,,,,,,,,,,,,,,,,,,,,,,,,,,,,,,,,,,,,,,,,,,,,,,,,,,,,,,,,,,,,,,,,,,,,
,,,,,,6155752fd8e4f079cb44557d,62c539dd7b979cb36aef82e3,2022-07-06_09h30.59.682,Colour_Asymmetry_Pilot,2022.1.3,Win32,60.44122091,62c50e9c1127f2cd403a315f,0,59,59,55,1,fourthree,,,,,,,,,,,,,,,,,,,,,,,,,,,,,,,,,,,,,,,,,,,,,,,,,,,,,,,,,,,,,,,,,,,,,,,,,,,,,,,,,,,,,,,,,,,,,,,,,,,,,,,,,,,,,,,,,,,,,,,,,,,,,,,,,,,,,,,,,,,,,,,,,,,,,,,,,,,,,
,,,,,,6155752fd8e4f079cb44557d,62c539dd7b979cb36aef82e3,2022-07-06_09h30.59.682,Colour_Asymmetry_Pilot,2022.1.3,Win32,60.44122091,62c50e9c1127f2cd403a315f,0,60,60,50,1,twoone,,,,,,,,,,,,,,,,,,,,,,,,,,,,,,,,,,,,,,,,,,,,,,,,,,,,,,,,,,,,,,,,,,,,,,,,,,,,,,,,,,,,,,,,,,,,,,,,,,,,,,,,,,,,,,,,,,,,,,,,,,,,,,,,,,,,,,,,,,,,,,,,,,,,,,,,,,,,,
,,,,,,6155752fd8e4f079cb44557d,62c539dd7b979cb36aef82e3,2022-07-06_09h30.59.682,Colour_Asymmetry_Pilot,2022.1.3,Win32,60.44122091,62c50e9c1127f2cd403a315f,0,61,61,137,1,onethree,,,,,,,,,,,,,,,,,,,,,,,,,,,,,,,,,,,,,,,,,,,,,,,,,,,,,,,,,,,,,,,,,,,,,,,,,,,,,,,,,,,,,,,,,,,,,,,,,,,,,,,,,,,,,,,,,,,,,,,,,,,,,,,,,,,,,,,,,,,,,,,,,,,,,,,,,,,,,
,,,,,,6155752fd8e4f079cb44557d,62c539dd7b979cb36aef82e3,2022-07-06_09h30.59.682,Colour_Asymmetry_Pilot,2022.1.3,Win32,60.44122091,62c50e9c1127f2cd403a315f,0,62,62,22,1,fourtwo,,,,,,,,,,,,,,,,,,,,,,,,,,,,,,,,,,,,,,,,,,,,,,,,,,,,,,,,,,,,,,,,,,,,,,,,,,,,,,,,,,,,,,,,,,,,,,,,,,,,,,,,,,,,,,,,,,,,,,,,,,,,,,,,,,,,,,,,,,,,,,,,,,,,,,,,,,,,,
,,,,,,6155752fd8e4f079cb44557d,62c539dd7b979cb36aef82e3,2022-07-06_09h30.59.682,Colour_Asymmetry_Pilot,2022.1.3,Win32,60.44122091,62c50e9c1127f2cd403a315f,0,63,63,85,1,threefour,,,,,,,,,,,,,,,,,,,,,,,,,,,,,,,,,,,,,,,,,,,,,,,,,,,,,,,,,,,,,,,,,,,,,,,,,,,,,,,,,,,,,,,,,,,,,,,,,,,,,,,,,,,,,,,,,,,,,,,,,,,,,,,,,,,,,,,,,,,,,,,,,,,,,,,,,,,,,
,,,,,,6155752fd8e4f079cb44557d,62c539dd7b979cb36aef82e3,2022-07-06_09h30.59.682,Colour_Asymmetry_Pilot,2022.1.3,Win32,60.44122091,62c50e9c1127f2cd403a315f,0,64,64,138,1,twoone,,,,,,,,,,,,,,,,,,,,,,,,,,,,,,,,,,,,,,,,,,,,,,,,,,,,,,,,,,,,,,,,,,,,,,,,,,,,,,,,,,,,,,,,,,,,,,,,,,,,,,,,,,,,,,,,,,,,,,,,,,,,,,,,,,,,,,,,,,,,,,,,,,,,,,,,,,,,,
,,,,,,6155752fd8e4f079cb44557d,62c539dd7b979cb36aef82e3,2022-07-06_09h30.59.682,Colour_Asymmetry_Pilot,2022.1.3,Win32,60.44122091,62c50e9c1127f2cd403a315f,0,65,65,161,1,onethree,,,,,,,,,,,,,,,,,,,,,,,,,,,,,,,,,,,,,,,,,,,,,,,,,,,,,,,,,,,,,,,,,,,,,,,,,,,,,,,,,,,,,,,,,,,,,,,,,,,,,,,,,,,,,,,,,,,,,,,,,,,,,,,,,,,,,,,,,,,,,,,,,,,,,,,,,,,,,
,,,,,,6155752fd8e4f079cb44557d,62c539dd7b979cb36aef82e3,2022-07-06_09h30.59.682,Colour_Asymmetry_Pilot,2022.1.3,Win32,60.44122091,62c50e9c1127f2cd403a315f,0,66,66,121,1,onethree,,,,,,,,,,,,,,,,,,,,,,,,,,,,,,,,,,,,,,,,,,,,,,,,,,,,,,,,,,,,,,,,,,,,,,,,,,,,,,,,,,,,,,,,,,,,,,,,,,,,,,,,,,,,,,,,,,,,,,,,,,,,,,,,,,,,,,,,,,,,,,,,,,,,,,,,,,,,,
,,,,,,6155752fd8e4f079cb44557d,62c539dd7b979cb36aef82e3,2022-07-06_09h30.59.682,Colour_Asymmetry_Pilot,2022.1.3,Win32,60.44122091,62c50e9c1127f2cd403a315f,0,67,67,122,1,twoone,,,,,,,,,,,,,,,,,,,,,,,,,,,,,,,,,,,,,,,,,,,,,,,,,,,,,,,,,,,,,,,,,,,,,,,,,,,,,,,,,,,,,,,,,,,,,,,,,,,,,,,,,,,,,,,,,,,,,,,,,,,,,,,,,,,,,,,,,,,,,,,,,,,,,,,,,,,,,
,,,,,,6155752fd8e4f079cb44557d,62c539dd7b979cb36aef82e3,2022-07-06_09h30.59.682,Colour_Asymmetry_Pilot,2022.1.3,Win32,60.44122091,62c50e9c1127f2cd403a315f,0,68,68,145,1,onethree,,,,,,,,,,,,,,,,,,,,,,,,,,,,,,,,,,,,,,,,,,,,,,,,,,,,,,,,,,,,,,,,,,,,,,,,,,,,,,,,,,,,,,,,,,,,,,,,,,,,,,,,,,,,,,,,,,,,,,,,,,,,,,,,,,,,,,,,,,,,,,,,,,,,,,,,,,,,,
,,,,,,6155752fd8e4f079cb44557d,62c539dd7b979cb36aef82e3,2022-07-06_09h30.59.682,Colour_Asymmetry_Pilot,2022.1.3,Win32,60.44122091,62c50e9c1127f2cd403a315f,0,69,69,157,1,threefour,,,,,,,,,,,,,,,,,,,,,,,,,,,,,,,,,,,,,,,,,,,,,,,,,,,,,,,,,,,,,,,,,,,,,,,,,,,,,,,,,,,,,,,,,,,,,,,,,,,,,,,,,,,,,,,,,,,,,,,,,,,,,,,,,,,,,,,,,,,,,,,,,,,,,,,,,,,,,
,,,,,,6155752fd8e4f079cb44557d,62c539dd7b979cb36aef82e3,2022-07-06_09h30.59.682,Colour_Asymmetry_Pilot,2022.1.3,Win32,60.44122091,62c50e9c1127f2cd403a315f,0,70,70,72,1,onetwo,,,,,,,,,,,,,,,,,,,,,,,,,,,,,,,,,,,,,,,,,,,,,,,,,,,,,,,,,,,,,,,,,,,,,,,,,,,,,,,,,,,,,,,,,,,,,,,,,,,,,,,,,,,,,,,,,,,,,,,,,,,,,,,,,,,,,,,,,,,,,,,,,,,,,,,,,,,,,
,,,,,,6155752fd8e4f079cb44557d,62c539dd7b979cb36aef82e3,2022-07-06_09h30.59.682,Colour_Asymmetry_Pilot,2022.1.3,Win32,60.44122091,62c50e9c1127f2cd403a315f,0,71,71,61,1,threefour,,,,,,,,,,,,,,,,,,,,,,,,,,,,,,,,,,,,,,,,,,,,,,,,,,,,,,,,,,,,,,,,,,,,,,,,,,,,,,,,,,,,,,,,,,,,,,,,,,,,,,,,,,,,,,,,,,,,,,,,,,,,,,,,,,,,,,,,,,,,,,,,,,,,,,,,,,,,,
,,,,,,6155752fd8e4f079cb44557d,62c539dd7b979cb36aef82e3,2022-07-06_09h30.59.682,Colour_Asymmetry_Pilot,2022.1.3,Win32,60.44122091,62c50e9c1127f2cd403a315f,0,72,72,148,1,threeone,,,,,,,,,,,,,,,,,,,,,,,,,,,,,,,,,,,,,,,,,,,,,,,,,,,,,,,,,,,,,,,,,,,,,,,,,,,,,,,,,,,,,,,,,,,,,,,,,,,,,,,,,,,,,,,,,,,,,,,,,,,,,,,,,,,,,,,,,,,,,,,,,,,,,,,,,,,,,
,,,,,,6155752fd8e4f079cb44557d,62c539dd7b979cb36aef82e3,2022-07-06_09h30.59.682,Colour_Asymmetry_Pilot,2022.1.3,Win32,60.44122091,62c50e9c1127f2cd403a315f,0,73,73,151,1,fourthree,,,,,,,,,,,,,,,,,,,,,,,,,,,,,,,,,,,,,,,,,,,,,,,,,,,,,,,,,,,,,,,,,,,,,,,,,,,,,,,,,,,,,,,,,,,,,,,,,,,,,,,,,,,,,,,,,,,,,,,,,,,,,,,,,,,,,,,,,,,,,,,,,,,,,,,,,,,,,
,,,,,,6155752fd8e4f079cb44557d,62c539dd7b979cb36aef82e3,2022-07-06_09h30.59.682,Colour_Asymmetry_Pilot,2022.1.3,Win32,60.44122091,62c50e9c1127f2cd403a315f,0,74,74,34,1,twoone,,,,,,,,,,,,,,,,,,,,,,,,,,,,,,,,,,,,,,,,,,,,,,,,,,,,,,,,,,,,,,,,,,,,,,,,,,,,,,,,,,,,,,,,,,,,,,,,,,,,,,,,,,,,,,,,,,,,,,,,,,,,,,,,,,,,,,,,,,,,,,,,,,,,,,,,,,,,,
,,,,,,6155752fd8e4f079cb44557d,62c539dd7b979cb36aef82e3,2022-07-06_09h30.59.682,Colour_Asymmetry_Pilot,2022.1.3,Win32,60.44122091,62c50e9c1127f2cd403a315f,0,75,75,12,1,threeone,,,,,,,,,,,,,,,,,,,,,,,,,,,,,,,,,,,,,,,,,,,,,,,,,,,,,,,,,,,,,,,,,,,,,,,,,,,,,,,,,,,,,,,,,,,,,,,,,,,,,,,,,,,,,,,,,,,,,,,,,,,,,,,,,,,,,,,,,,,,,,,,,,,,,,,,,,,,,
,,,,,,6155752fd8e4f079cb44557d,62c539dd7b979cb36aef82e3,2022-07-06_09h30.59.682,Colour_Asymmetry_Pilot,2022.1.3,Win32,60.44122091,62c50e9c1127f2cd403a315f,0,76,76,123,1,twofour,,,,,,,,,,,,,,,,,,,,,,,,,,,,,,,,,,,,,,,,,,,,,,,,,,,,,,,,,,,,,,,,,,,,,,,,,,,,,,,,,,,,,,,,,,,,,,,,,,,,,,,,,,,,,,,,,,,,,,,,,,,,,,,,,,,,,,,,,,,,,,,,,,,,,,,,,,,,,
,,,,,,6155752fd8e4f079cb44557d,62c539dd7b979cb36aef82e3,2022-07-06_09h30.59.682,Colour_Asymmetry_Pilot,2022.1.3,Win32,60.44122091,62c50e9c1127f2cd403a315f,0,77,77,10,1,twoone,,,,,,,,,,,,,,,,,,,,,,,,,,,,,,,,,,,,,,,,,,,,,,,,,,,,,,,,,,,,,,,,,,,,,,,,,,,,,,,,,,,,,,,,,,,,,,,,,,,,,,,,,,,,,,,,,,,,,,,,,,,,,,,,,,,,,,,,,,,,,,,,,,,,,,,,,,,,,
,,,,,,6155752fd8e4f079cb44557d,62c539dd7b979cb36aef82e3,2022-07-06_09h30.59.682,Colour_Asymmetry_Pilot,2022.1.3,Win32,60.44122091,62c50e9c1127f2cd403a315f,0,78,78,11,1,twofour,,,,,,,,,,,,,,,,,,,,,,,,,,,,,,,,,,,,,,,,,,,,,,,,,,,,,,,,,,,,,,,,,,,,,,,,,,,,,,,,,,,,,,,,,,,,,,,,,,,,,,,,,,,,,,,,,,,,,,,,,,,,,,,,,,,,,,,,,,,,,,,,,,,,,,,,,,,,,
,,,,,,6155752fd8e4f079cb44557d,62c539dd7b979cb36aef82e3,2022-07-06_09h30.59.682,Colour_Asymmetry_Pilot,2022.1.3,Win32,60.44122091,62c50e9c1127f2cd403a315f,0,79,79,28,1,threeone,,,,,,,,,,,,,,,,,,,,,,,,,,,,,,,,,,,,,,,,,,,,,,,,,,,,,,,,,,,,,,,,,,,,,,,,,,,,,,,,,,,,,,,,,,,,,,,,,,,,,,,,,,,,,,,,,,,,,,,,,,,,,,,,,,,,,,,,,,,,,,,,,,,,,,,,,,,,,
,,,,,,6155752fd8e4f079cb44557d,62c539dd7b979cb36aef82e3,2022-07-06_09h30.59.682,Colour_Asymmetry_Pilot,2022.1.3,Win32,60.44122091,62c50e9c1127f2cd403a315f,0,80,80,142,1,fourtwo,,,,,,,,,,,,,,,,,,,,,,,,,,,,,,,,,,,,,,,,,,,,,,,,,,,,,,,,,,,,,,,,,,,,,,,,,,,,,,,,,,,,,,,,,,,,,,,,,,,,,,,,,,,,,,,,,,,,,,,,,,,,,,,,,,,,,,,,,,,,,,,,,,,,,,,,,,,,,
,,,,,,6155752fd8e4f079cb44557d,62c539dd7b979cb36aef82e3,2022-07-06_09h30.59.682,Colour_Asymmetry_Pilot,2022.1.3,Win32,60.44122091,62c50e9c1127f2cd403a315f,0,81,81,153,1,onethree,,,,,,,,,,,,,,,,,,,,,,,,,,,,,,,,,,,,,,,,,,,,,,,,,,,,,,,,,,,,,,,,,,,,,,,,,,,,,,,,,,,,,,,,,,,,,,,,,,,,,,,,,,,,,,,,,,,,,,,,,,,,,,,,,,,,,,,,,,,,,,,,,,,,,,,,,,,,,
,,,,,,6155752fd8e4f079cb44557d,62c539dd7b979cb36aef82e3,2022-07-06_09h30.59.682,Colour_Asymmetry_Pilot,2022.1.3,Win32,60.44122091,62c50e9c1127f2cd403a315f,0,82,82,37,1,threefour,,,,,,,,,,,,,,,,,,,,,,,,,,,,,,,,,,,,,,,,,,,,,,,,,,,,,,,,,,,,,,,,,,,,,,,,,,,,,,,,,,,,,,,,,,,,,,,,,,,,,,,,,,,,,,,,,,,,,,,,,,,,,,,,,,,,,,,,,,,,,,,,,,,,,,,,,,,,,
,,,,,,6155752fd8e4f079cb44557d,62c539dd7b979cb36aef82e3,2022-07-06_09h30.59.682,Colour_Asymmetry_Pilot,2022.1.3,Win32,60.44122091,62c50e9c1127f2cd403a315f,0,83,83,49,1,onethree,,,,,,,,,,,,,,,,,,,,,,,,,,,,,,,,,,,,,,,,,,,,,,,,,,,,,,,,,,,,,,,,,,,,,,,,,,,,,,,,,,,,,,,,,,,,,,,,,,,,,,,,,,,,,,,,,,,,,,,,,,,,,,,,,,,,,,,,,,,,,,,,,,,,,,,,,,,,,
,,,,,,6155752fd8e4f079cb44557d,62c539dd7b979cb36aef82e3,2022-07-06_09h30.59.682,Colour_Asymmetry_Pilot,2022.1.3,Win32,60.44122091,62c50e9c1127f2cd403a315f,0,84,84,25,1,onethree,,,,,,,,,,,,,,,,,,,,,,,,,,,,,,,,,,,,,,,,,,,,,,,,,,,,,,,,,,,,,,,,,,,,,,,,,,,,,,,,,,,,,,,,,,,,,,,,,,,,,,,,,,,,,,,,,,,,,,,,,,,,,,,,,,,,,,,,,,,,,,,,,,,,,,,,,,,,,
,,,,,,6155752fd8e4f079cb44557d,62c539dd7b979cb36aef82e3,2022-07-06_09h30.59.682,Colour_Asymmetry_Pilot,2022.1.3,Win32,60.44122091,62c50e9c1127f2cd403a315f,0,85,85,119,1,fourthree,,,,,,,,,,,,,,,,,,,,,,,,,,,,,,,,,,,,,,,,,,,,,,,,,,,,,,,,,,,,,,,,,,,,,,,,,,,,,,,,,,,,,,,,,,,,,,,,,,,,,,,,,,,,,,,,,,,,,,,,,,,,,,,,,,,,,,,,,,,,,,,,,,,,,,,,,,,,,
,,,,,,6155752fd8e4f079cb44557d,62c539dd7b979cb36aef82e3,2022-07-06_09h30.59.682,Colour_Asymmetry_Pilot,2022.1.3,Win32,60.44122091,62c50e9c1127f2cd403a315f,0,86,86,23,1,fourthree,,,,,,,,,,,,,,,,,,,,,,,,,,,,,,,,,,,,,,,,,,,,,,,,,,,,,,,,,,,,,,,,,,,,,,,,,,,,,,,,,,,,,,,,,,,,,,,,,,,,,,,,,,,,,,,,,,,,,,,,,,,,,,,,,,,,,,,,,,,,,,,,,,,,,,,,,,,,,
,,,,,,6155752fd8e4f079cb44557d,62c539dd7b979cb36aef82e3,2022-07-06_09h30.59.682,Colour_Asymmetry_Pilot,2022.1.3,Win32,60.44122091,62c50e9c1127f2cd403a315f,0,87,87,3,1,twofour,,,,,,,,,,,,,,,,,,,,,,,,,,,,,,,,,,,,,,,,,,,,,,,,,,,,,,,,,,,,,,,,,,,,,,,,,,,,,,,,,,,,,,,,,,,,,,,,,,,,,,,,,,,,,,,,,,,,,,,,,,,,,,,,,,,,,,,,,,,,,,,,,,,,,,,,,,,,,
,,,,,,6155752fd8e4f079cb44557d,62c539dd7b979cb36aef82e3,2022-07-06_09h30.59.682,Colour_Asymmetry_Pilot,2022.1.3,Win32,60.44122091,62c50e9c1127f2cd403a315f,0,88,88,115,1,twofour,,,,,,,,,,,,,,,,,,,,,,,,,,,,,,,,,,,,,,,,,,,,,,,,,,,,,,,,,,,,,,,,,,,,,,,,,,,,,,,,,,,,,,,,,,,,,,,,,,,,,,,,,,,,,,,,,,,,,,,,,,,,,,,,,,,,,,,,,,,,,,,,,,,,,,,,,,,,,
,,,,,,6155752fd8e4f079cb44557d,62c539dd7b979cb36aef82e3,2022-07-06_09h30.59.682,Colour_Asymmetry_Pilot,2022.1.3,Win32,60.44122091,62c50e9c1127f2cd403a315f,0,89,89,135,1,fourthree,,,,,,,,,,,,,,,,,,,,,,,,,,,,,,,,,,,,,,,,,,,,,,,,,,,,,,,,,,,,,,,,,,,,,,,,,,,,,,,,,,,,,,,,,,,,,,,,,,,,,,,,,,,,,,,,,,,,,,,,,,,,,,,,,,,,,,,,,,,,,,,,,,,,,,,,,,,,,
,,,,,,6155752fd8e4f079cb44557d,62c539dd7b979cb36aef82e3,2022-07-06_09h30.59.682,Colour_Asymmetry_Pilot,2022.1.3,Win32,60.44122091,62c50e9c1127f2cd403a315f,0,90,90,102,1,fourtwo,,,,,,,,,,,,,,,,,,,,,,,,,,,,,,,,,,,,,,,,,,,,,,,,,,,,,,,,,,,,,,,,,,,,,,,,,,,,,,,,,,,,,,,,,,,,,,,,,,,,,,,,,,,,,,,,,,,,,,,,,,,,,,,,,,,,,,,,,,,,,,,,,,,,,,,,,,,,,
,,,,,,6155752fd8e4f079cb44557d,62c539dd7b979cb36aef82e3,2022-07-06_09h30.59.682,Colour_Asymmetry_Pilot,2022.1.3,Win32,60.44122091,62c50e9c1127f2cd403a315f,0,91,91,107,1,twofour,,,,,,,,,,,,,,,,,,,,,,,,,,,,,,,,,,,,,,,,,,,,,,,,,,,,,,,,,,,,,,,,,,,,,,,,,,,,,,,,,,,,,,,,,,,,,,,,,,,,,,,,,,,,,,,,,,,,,,,,,,,,,,,,,,,,,,,,,,,,,,,,,,,,,,,,,,,,,
,,,,,,6155752fd8e4f079cb44557d,62c539dd7b979cb36aef82e3,2022-07-06_09h30.59.682,Colour_Asymmetry_Pilot,2022.1.3,Win32,60.44122091,62c50e9c1127f2cd403a315f,0,92,92,13,1,threefour,,,,,,,,,,,,,,,,,,,,,,,,,,,,,,,,,,,,,,,,,,,,,,,,,,,,,,,,,,,,,,,,,,,,,,,,,,,,,,,,,,,,,,,,,,,,,,,,,,,,,,,,,,,,,,,,,,,,,,,,,,,,,,,,,,,,,,,,,,,,,,,,,,,,,,,,,,,,,
,,,,,,6155752fd8e4f079cb44557d,62c539dd7b979cb36aef82e3,2022-07-06_09h30.59.682,Colour_Asymmetry_Pilot,2022.1.3,Win32,60.44122091,62c50e9c1127f2cd403a315f,0,93,93,160,1,onetwo,,,,,,,,,,,,,,,,,,,,,,,,,,,,,,,,,,,,,,,,,,,,,,,,,,,,,,,,,,,,,,,,,,,,,,,,,,,,,,,,,,,,,,,,,,,,,,,,,,,,,,,,,,,,,,,,,,,,,,,,,,,,,,,,,,,,,,,,,,,,,,,,,,,,,,,,,,,,,
,,,,,,6155752fd8e4f079cb44557d,62c539dd7b979cb36aef82e3,2022-07-06_09h30.59.682,Colour_Asymmetry_Pilot,2022.1.3,Win32,60.44122091,62c50e9c1127f2cd403a315f,0,94,94,98,1,twoone,,,,,,,,,,,,,,,,,,,,,,,,,,,,,,,,,,,,,,,,,,,,,,,,,,,,,,,,,,,,,,,,,,,,,,,,,,,,,,,,,,,,,,,,,,,,,,,,,,,,,,,,,,,,,,,,,,,,,,,,,,,,,,,,,,,,,,,,,,,,,,,,,,,,,,,,,,,,,
,,,,,,6155752fd8e4f079cb44557d,62c539dd7b979cb36aef82e3,2022-07-06_09h30.59.682,Colour_Asymmetry_Pilot,2022.1.3,Win32,60.44122091,62c50e9c1127f2cd403a315f,0,95,95,82,1,twoone,,,,,,,,,,,,,,,,,,,,,,,,,,,,,,,,,,,,,,,,,,,,,,,,,,,,,,,,,,,,,,,,,,,,,,,,,,,,,,,,,,,,,,,,,,,,,,,,,,,,,,,,,,,,,,,,,,,,,,,,,,,,,,,,,,,,,,,,,,,,,,,,,,,,,,,,,,,,,
,,,,,,6155752fd8e4f079cb44557d,62c539dd7b979cb36aef82e3,2022-07-06_09h30.59.682,Colour_Asymmetry_Pilot,2022.1.3,Win32,60.44122091,62c50e9c1127f2cd403a315f,0,96,96,147,1,twofour,,,,,,,,,,,,,,,,,,,,,,,,,,,,,,,,,,,,,,,,,,,,,,,,,,,,,,,,,,,,,,,,,,,,,,,,,,,,,,,,,,,,,,,,,,,,,,,,,,,,,,,,,,,,,,,,,,,,,,,,,,,,,,,,,,,,,,,,,,,,,,,,,,,,,,,,,,,,,
,,,,,,6155752fd8e4f079cb44557d,62c539dd7b979cb36aef82e3,2022-07-06_09h30.59.682,Colour_Asymmetry_Pilot,2022.1.3,Win32,60.44122091,62c50e9c1127f2cd403a315f,0,97,97,66,1,twoone,,,,,,,,,,,,,,,,,,,,,,,,,,,,,,,,,,,,,,,,,,,,,,,,,,,,,,,,,,,,,,,,,,,,,,,,,,,,,,,,,,,,,,,,,,,,,,,,,,,,,,,,,,,,,,,,,,,,,,,,,,,,,,,,,,,,,,,,,,,,,,,,,,,,,,,,,,,,,
,,,,,,6155752fd8e4f079cb44557d,62c539dd7b979cb36aef82e3,2022-07-06_09h30.59.682,Colour_Asymmetry_Pilot,2022.1.3,Win32,60.44122091,62c50e9c1127f2cd403a315f,0,98,98,63,1,fourthree,,,,,,,,,,,,,,,,,,,,,,,,,,,,,,,,,,,,,,,,,,,,,,,,,,,,,,,,,,,,,,,,,,,,,,,,,,,,,,,,,,,,,,,,,,,,,,,,,,,,,,,,,,,,,,,,,,,,,,,,,,,,,,,,,,,,,,,,,,,,,,,,,,,,,,,,,,,,,
,,,,,,6155752fd8e4f079cb44557d,62c539dd7b979cb36aef82e3,2022-07-06_09h30.59.682,Colour_Asymmetry_Pilot,2022.1.3,Win32,60.44122091,62c50e9c1127f2cd403a315f,0,99,99,6,1,fourtwo,,,,,,,,,,,,,,,,,,,,,,,,,,,,,,,,,,,,,,,,,,,,,,,,,,,,,,,,,,,,,,,,,,,,,,,,,,,,,,,,,,,,,,,,,,,,,,,,,,,,,,,,,,,,,,,,,,,,,,,,,,,,,,,,,,,,,,,,,,,,,,,,,,,,,,,,,,,,,
,,,,,,6155752fd8e4f079cb44557d,62c539dd7b979cb36aef82e3,2022-07-06_09h30.59.682,Colour_Asymmetry_Pilot,2022.1.3,Win32,60.44122091,62c50e9c1127f2cd403a315f,0,100,100,91,1,twofour,,,,,,,,,,,,,,,,,,,,,,,,,,,,,,,,,,,,,,,,,,,,,,,,,,,,,,,,,,,,,,,,,,,,,,,,,,,,,,,,,,,,,,,,,,,,,,,,,,,,,,,,,,,,,,,,,,,,,,,,,,,,,,,,,,,,,,,,,,,,,,,,,,,,,,,,,,,,,
,,,,,,6155752fd8e4f079cb44557d,62c539dd7b979cb36aef82e3,2022-07-06_09h30.59.682,Colour_Asymmetry_Pilot,2022.1.3,Win32,60.44122091,62c50e9c1127f2cd403a315f,0,101,101,129,1,onethree,,,,,,,,,,,,,,,,,,,,,,,,,,,,,,,,,,,,,,,,,,,,,,,,,,,,,,,,,,,,,,,,,,,,,,,,,,,,,,,,,,,,,,,,,,,,,,,,,,,,,,,,,,,,,,,,,,,,,,,,,,,,,,,,,,,,,,,,,,,,,,,,,,,,,,,,,,,,,
,,,,,,6155752fd8e4f079cb44557d,62c539dd7b979cb36aef82e3,2022-07-06_09h30.59.682,Colour_Asymmetry_Pilot,2022.1.3,Win32,60.44122091,62c50e9c1127f2cd403a315f,0,102,102,43,1,twofour,,,,,,,,,,,,,,,,,,,,,,,,,,,,,,,,,,,,,,,,,,,,,,,,,,,,,,,,,,,,,,,,,,,,,,,,,,,,,,,,,,,,,,,,,,,,,,,,,,,,,,,,,,,,,,,,,,,,,,,,,,,,,,,,,,,,,,,,,,,,,,,,,,,,,,,,,,,,,
,,,,,,6155752fd8e4f079cb44557d,62c539dd7b979cb36aef82e3,2022-07-06_09h30.59.682,Colour_Asymmetry_Pilot,2022.1.3,Win32,60.44122091,62c50e9c1127f2cd403a315f,0,103,103,124,1,threeone,,,,,,,,,,,,,,,,,,,,,,,,,,,,,,,,,,,,,,,,,,,,,,,,,,,,,,,,,,,,,,,,,,,,,,,,,,,,,,,,,,,,,,,,,,,,,,,,,,,,,,,,,,,,,,,,,,,,,,,,,,,,,,,,,,,,,,,,,,,,,,,,,,,,,,,,,,,,,
,,,,,,6155752fd8e4f079cb44557d,62c539dd7b979cb36aef82e3,2022-07-06_09h30.59.682,Colour_Asymmetry_Pilot,2022.1.3,Win32,60.44122091,62c50e9c1127f2cd403a315f,0,104,104,103,1,fourthree,,,,,,,,,,,,,,,,,,,,,,,,,,,,,,,,,,,,,,,,,,,,,,,,,,,,,,,,,,,,,,,,,,,,,,,,,,,,,,,,,,,,,,,,,,,,,,,,,,,,,,,,,,,,,,,,,,,,,,,,,,,,,,,,,,,,,,,,,,,,,,,,,,,,,,,,,,,,,
,,,,,,6155752fd8e4f079cb44557d,62c539dd7b979cb36aef82e3,2022-07-06_09h30.59.682,Colour_Asymmetry_Pilot,2022.1.3,Win32,60.44122091,62c50e9c1127f2cd403a315f,0,105,105,109,1,threefour,,,,,,,,,,,,,,,,,,,,,,,,,,,,,,,,,,,,,,,,,,,,,,,,,,,,,,,,,,,,,,,,,,,,,,,,,,,,,,,,,,,,,,,,,,,,,,,,,,,,,,,,,,,,,,,,,,,,,,,,,,,,,,,,,,,,,,,,,,,,,,,,,,,,,,,,,,,,,
,,,,,,6155752fd8e4f079cb44557d,62c539dd7b979cb36aef82e3,2022-07-06_09h30.59.682,Colour_Asymmetry_Pilot,2022.1.3,Win32,60.44122091,62c50e9c1127f2cd403a315f,0,106,106,58,1,twoone,,,,,,,,,,,,,,,,,,,,,,,,,,,,,,,,,,,,,,,,,,,,,,,,,,,,,,,,,,,,,,,,,,,,,,,,,,,,,,,,,,,,,,,,,,,,,,,,,,,,,,,,,,,,,,,,,,,,,,,,,,,,,,,,,,,,,,,,,,,,,,,,,,,,,,,,,,,,,
,,,,,,6155752fd8e4f079cb44557d,62c539dd7b979cb36aef82e3,2022-07-06_09h30.59.682,Colour_Asymmetry_Pilot,2022.1.3,Win32,60.44122091,62c50e9c1127f2cd403a315f,0,107,107,114,1,twoone,,,,,,,,,,,,,,,,,,,,,,,,,,,,,,,,,,,,,,,,,,,,,,,,,,,,,,,,,,,,,,,,,,,,,,,,,,,,,,,,,,,,,,,,,,,,,,,,,,,,,,,,,,,,,,,,,,,,,,,,,,,,,,,,,,,,,,,,,,,,,,,,,,,,,,,,,,,,,
,,,,,,6155752fd8e4f079cb44557d,62c539dd7b979cb36aef82e3,2022-07-06_09h30.59.682,Colour_Asymmetry_Pilot,2022.1.3,Win32,60.44122091,62c50e9c1127f2cd403a315f,0,108,108,30,1,fourtwo,,,,,,,,,,,,,,,,,,,,,,,,,,,,,,,,,,,,,,,,,,,,,,,,,,,,,,,,,,,,,,,,,,,,,,,,,,,,,,,,,,,,,,,,,,,,,,,,,,,,,,,,,,,,,,,,,,,,,,,,,,,,,,,,,,,,,,,,,,,,,,,,,,,,,,,,,,,,,
,,,,,,6155752fd8e4f079cb44557d,62c539dd7b979cb36aef82e3,2022-07-06_09h30.59.682,Colour_Asymmetry_Pilot,2022.1.3,Win32,60.44122091,62c50e9c1127f2cd403a315f,0,109,109,116,1,threeone,,,,,,,,,,,,,,,,,,,,,,,,,,,,,,,,,,,,,,,,,,,,,,,,,,,,,,,,,,,,,,,,,,,,,,,,,,,,,,,,,,,,,,,,,,,,,,,,,,,,,,,,,,,,,,,,,,,,,,,,,,,,,,,,,,,,,,,,,,,,,,,,,,,,,,,,,,,,,
,,,,,,6155752fd8e4f079cb44557d,62c539dd7b979cb36aef82e3,2022-07-06_09h30.59.682,Colour_Asymmetry_Pilot,2022.1.3,Win32,60.44122091,62c50e9c1127f2cd403a315f,0,110,110,4,1,threeone,,,,,,,,,,,,,,,,,,,,,,,,,,,,,,,,,,,,,,,,,,,,,,,,,,,,,,,,,,,,,,,,,,,,,,,,,,,,,,,,,,,,,,,,,,,,,,,,,,,,,,,,,,,,,,,,,,,,,,,,,,,,,,,,,,,,,,,,,,,,,,,,,,,,,,,,,,,,,
,,,,,,6155752fd8e4f079cb44557d,62c539dd7b979cb36aef82e3,2022-07-06_09h30.59.682,Colour_Asymmetry_Pilot,2022.1.3,Win32,60.44122091,62c50e9c1127f2cd403a315f,0,111,111,67,1,twofour,,,,,,,,,,,,,,,,,,,,,,,,,,,,,,,,,,,,,,,,,,,,,,,,,,,,,,,,,,,,,,,,,,,,,,,,,,,,,,,,,,,,,,,,,,,,,,,,,,,,,,,,,,,,,,,,,,,,,,,,,,,,,,,,,,,,,,,,,,,,,,,,,,,,,,,,,,,,,
,,,,,,6155752fd8e4f079cb44557d,62c539dd7b979cb36aef82e3,2022-07-06_09h30.59.682,Colour_Asymmetry_Pilot,2022.1.3,Win32,60.44122091,62c50e9c1127f2cd403a315f,0,112,112,32,1,onetwo,,,,,,,,,,,,,,,,,,,,,,,,,,,,,,,,,,,,,,,,,,,,,,,,,,,,,,,,,,,,,,,,,,,,,,,,,,,,,,,,,,,,,,,,,,,,,,,,,,,,,,,,,,,,,,,,,,,,,,,,,,,,,,,,,,,,,,,,,,,,,,,,,,,,,,,,,,,,,
,,,,,,6155752fd8e4f079cb44557d,62c539dd7b979cb36aef82e3,2022-07-06_09h30.59.682,Colour_Asymmetry_Pilot,2022.1.3,Win32,60.44122091,62c50e9c1127f2cd403a315f,0,113,113,86,1,fourtwo,,,,,,,,,,,,,,,,,,,,,,,,,,,,,,,,,,,,,,,,,,,,,,,,,,,,,,,,,,,,,,,,,,,,,,,,,,,,,,,,,,,,,,,,,,,,,,,,,,,,,,,,,,,,,,,,,,,,,,,,,,,,,,,,,,,,,,,,,,,,,,,,,,,,,,,,,,,,,
,,,,,,6155752fd8e4f079cb44557d,62c539dd7b979cb36aef82e3,2022-07-06_09h30.59.682,Colour_Asymmetry_Pilot,2022.1.3,Win32,60.44122091,62c50e9c1127f2cd403a315f,0,114,114,44,1,threeone,,,,,,,,,,,,,,,,,,,,,,,,,,,,,,,,,,,,,,,,,,,,,,,,,,,,,,,,,,,,,,,,,,,,,,,,,,,,,,,,,,,,,,,,,,,,,,,,,,,,,,,,,,,,,,,,,,,,,,,,,,,,,,,,,,,,,,,,,,,,,,,,,,,,,,,,,,,,,
,,,,,,6155752fd8e4f079cb44557d,62c539dd7b979cb36aef82e3,2022-07-06_09h30.59.682,Colour_Asymmetry_Pilot,2022.1.3,Win32,60.44122091,62c50e9c1127f2cd403a315f,0,115,115,96,1,onetwo,,,,,,,,,,,,,,,,,,,,,,,,,,,,,,,,,,,,,,,,,,,,,,,,,,,,,,,,,,,,,,,,,,,,,,,,,,,,,,,,,,,,,,,,,,,,,,,,,,,,,,,,,,,,,,,,,,,,,,,,,,,,,,,,,,,,,,,,,,,,,,,,,,,,,,,,,,,,,
,,,,,,6155752fd8e4f079cb44557d,62c539dd7b979cb36aef82e3,2022-07-06_09h30.59.682,Colour_Asymmetry_Pilot,2022.1.3,Win32,60.44122091,62c50e9c1127f2cd403a315f,0,116,116,9,1,onethree,,,,,,,,,,,,,,,,,,,,,,,,,,,,,,,,,,,,,,,,,,,,,,,,,,,,,,,,,,,,,,,,,,,,,,,,,,,,,,,,,,,,,,,,,,,,,,,,,,,,,,,,,,,,,,,,,,,,,,,,,,,,,,,,,,,,,,,,,,,,,,,,,,,,,,,,,,,,,
,,,,,,6155752fd8e4f079cb44557d,62c539dd7b979cb36aef82e3,2022-07-06_09h30.59.682,Colour_Asymmetry_Pilot,2022.1.3,Win32,60.44122091,62c50e9c1127f2cd403a315f,0,117,117,132,1,threeone,,,,,,,,,,,,,,,,,,,,,,,,,,,,,,,,,,,,,,,,,,,,,,,,,,,,,,,,,,,,,,,,,,,,,,,,,,,,,,,,,,,,,,,,,,,,,,,,,,,,,,,,,,,,,,,,,,,,,,,,,,,,,,,,,,,,,,,,,,,,,,,,,,,,,,,,,,,,,
,,,,,,6155752fd8e4f079cb44557d,62c539dd7b979cb36aef82e3,2022-07-06_09h30.59.682,Colour_Asymmetry_Pilot,2022.1.3,Win32,60.44122091,62c50e9c1127f2cd403a315f,0,118,118,59,1,twofour,,,,,,,,,,,,,,,,,,,,,,,,,,,,,,,,,,,,,,,,,,,,,,,,,,,,,,,,,,,,,,,,,,,,,,,,,,,,,,,,,,,,,,,,,,,,,,,,,,,,,,,,,,,,,,,,,,,,,,,,,,,,,,,,,,,,,,,,,,,,,,,,,,,,,,,,,,,,,
,,,,,,6155752fd8e4f079cb44557d,62c539dd7b979cb36aef82e3,2022-07-06_09h30.59.682,Colour_Asymmetry_Pilot,2022.1.3,Win32,60.44122091,62c50e9c1127f2cd403a315f,0,119,119,108,1,threeone,,,,,,,,,,,,,,,,,,,,,,,,,,,,,,,,,,,,,,,,,,,,,,,,,,,,,,,,,,,,,,,,,,,,,,,,,,,,,,,,,,,,,,,,,,,,,,,,,,,,,,,,,,,,,,,,,,,,,,,,,,,,,,,,,,,,,,,,,,,,,,,,,,,,,,,,,,,,,
,,,,,,6155752fd8e4f079cb44557d,62c539dd7b979cb36aef82e3,2022-07-06_09h30.59.682,Colour_Asymmetry_Pilot,2022.1.3,Win32,60.44122091,62c50e9c1127f2cd403a315f,0,120,120,136,1,onetwo,,,,,,,,,,,,,,,,,,,,,,,,,,,,,,,,,,,,,,,,,,,,,,,,,,,,,,,,,,,,,,,,,,,,,,,,,,,,,,,,,,,,,,,,,,,,,,,,,,,,,,,,,,,,,,,,,,,,,,,,,,,,,,,,,,,,,,,,,,,,,,,,,,,,,,,,,,,,,
,,,,,,6155752fd8e4f079cb44557d,62c539dd7b979cb36aef82e3,2022-07-06_09h30.59.682,Colour_Asymmetry_Pilot,2022.1.3,Win32,60.44122091,62c50e9c1127f2cd403a315f,0,121,121,95,1,fourthree,,,,,,,,,,,,,,,,,,,,,,,,,,,,,,,,,,,,,,,,,,,,,,,,,,,,,,,,,,,,,,,,,,,,,,,,,,,,,,,,,,,,,,,,,,,,,,,,,,,,,,,,,,,,,,,,,,,,,,,,,,,,,,,,,,,,,,,,,,,,,,,,,,,,,,,,,,,,,
,,,,,,6155752fd8e4f079cb44557d,62c539dd7b979cb36aef82e3,2022-07-06_09h30.59.682,Colour_Asymmetry_Pilot,2022.1.3,Win32,60.44122091,62c50e9c1127f2cd403a315f,0,122,122,35,1,twofour,,,,,,,,,,,,,,,,,,,,,,,,,,,,,,,,,,,,,,,,,,,,,,,,,,,,,,,,,,,,,,,,,,,,,,,,,,,,,,,,,,,,,,,,,,,,,,,,,,,,,,,,,,,,,,,,,,,,,,,,,,,,,,,,,,,,,,,,,,,,,,,,,,,,,,,,,,,,,
,,,,,,6155752fd8e4f079cb44557d,62c539dd7b979cb36aef82e3,2022-07-06_09h30.59.682,Colour_Asymmetry_Pilot,2022.1.3,Win32,60.44122091,62c50e9c1127f2cd403a315f,0,123,123,77,1,threefour,,,,,,,,,,,,,,,,,,,,,,,,,,,,,,,,,,,,,,,,,,,,,,,,,,,,,,,,,,,,,,,,,,,,,,,,,,,,,,,,,,,,,,,,,,,,,,,,,,,,,,,,,,,,,,,,,,,,,,,,,,,,,,,,,,,,,,,,,,,,,,,,,,,,,,,,,,,,,
,,,,,,6155752fd8e4f079cb44557d,62c539dd7b979cb36aef82e3,2022-07-06_09h30.59.682,Colour_Asymmetry_Pilot,2022.1.3,Win32,60.44122091,62c50e9c1127f2cd403a315f,0,124,124,51,1,twofour,,,,,,,,,,,,,,,,,,,,,,,,,,,,,,,,,,,,,,,,,,,,,,,,,,,,,,,,,,,,,,,,,,,,,,,,,,,,,,,,,,,,,,,,,,,,,,,,,,,,,,,,,,,,,,,,,,,,,,,,,,,,,,,,,,,,,,,,,,,,,,,,,,,,,,,,,,,,,
,,,,,,6155752fd8e4f079cb44557d,62c539dd7b979cb36aef82e3,2022-07-06_09h30.59.682,Colour_Asymmetry_Pilot,2022.1.3,Win32,60.44122091,62c50e9c1127f2cd403a315f,0,125,125,39,1,fourthree,,,,,,,,,,,,,,,,,,,,,,,,,,,,,,,,,,,,,,,,,,,,,,,,,,,,,,,,,,,,,,,,,,,,,,,,,,,,,,,,,,,,,,,,,,,,,,,,,,,,,,,,,,,,,,,,,,,,,,,,,,,,,,,,,,,,,,,,,,,,,,,,,,,,,,,,,,,,,
,,,,,,6155752fd8e4f079cb44557d,62c539dd7b979cb36aef82e3,2022-07-06_09h30.59.682,Colour_Asymmetry_Pilot,2022.1.3,Win32,60.44122091,62c50e9c1127f2cd403a315f,0,126,126,84,1,threeone,,,,,,,,,,,,,,,,,,,,,,,,,,,,,,,,,,,,,,,,,,,,,,,,,,,,,,,,,,,,,,,,,,,,,,,,,,,,,,,,,,,,,,,,,,,,,,,,,,,,,,,,,,,,,,,,,,,,,,,,,,,,,,,,,,,,,,,,,,,,,,,,,,,,,,,,,,,,,
,,,,,,6155752fd8e4f079cb44557d,62c539dd7b979cb36aef82e3,2022-07-06_09h30.59.682,Colour_Asymmetry_Pilot,2022.1.3,Win32,60.44122091,62c50e9c1127f2cd403a315f,0,127,127,76,1,threeone,,,,,,,,,,,,,,,,,,,,,,,,,,,,,,,,,,,,,,,,,,,,,,,,,,,,,,,,,,,,,,,,,,,,,,,,,,,,,,,,,,,,,,,,,,,,,,,,,,,,,,,,,,,,,,,,,,,,,,,,,,,,,,,,,,,,,,,,,,,,,,,,,,,,,,,,,,,,,
,,,,,,6155752fd8e4f079cb44557d,62c539dd7b979cb36aef82e3,2022-07-06_09h30.59.682,Colour_Asymmetry_Pilot,2022.1.3,Win32,60.44122091,62c50e9c1127f2cd403a315f,0,128,128,16,1,onetwo,,,,,,,,,,,,,,,,,,,,,,,,,,,,,,,,,,,,,,,,,,,,,,,,,,,,,,,,,,,,,,,,,,,,,,,,,,,,,,,,,,,,,,,,,,,,,,,,,,,,,,,,,,,,,,,,,,,,,,,,,,,,,,,,,,,,,,,,,,,,,,,,,,,,,,,,,,,,,
,,,,,,6155752fd8e4f079cb44557d,62c539dd7b979cb36aef82e3,2022-07-06_09h30.59.682,Colour_Asymmetry_Pilot,2022.1.3,Win32,60.44122091,62c50e9c1127f2cd403a315f,0,129,129,89,1,onethree,,,,,,,,,,,,,,,,,,,,,,,,,,,,,,,,,,,,,,,,,,,,,,,,,,,,,,,,,,,,,,,,,,,,,,,,,,,,,,,,,,,,,,,,,,,,,,,,,,,,,,,,,,,,,,,,,,,,,,,,,,,,,,,,,,,,,,,,,,,,,,,,,,,,,,,,,,,,,
,,,,,,6155752fd8e4f079cb44557d,62c539dd7b979cb36aef82e3,2022-07-06_09h30.59.682,Colour_Asymmetry_Pilot,2022.1.3,Win32,60.44122091,62c50e9c1127f2cd403a315f,0,130,130,45,1,threefour,,,,,,,,,,,,,,,,,,,,,,,,,,,,,,,,,,,,,,,,,,,,,,,,,,,,,,,,,,,,,,,,,,,,,,,,,,,,,,,,,,,,,,,,,,,,,,,,,,,,,,,,,,,,,,,,,,,,,,,,,,,,,,,,,,,,,,,,,,,,,,,,,,,,,,,,,,,,,
,,,,,,6155752fd8e4f079cb44557d,62c539dd7b979cb36aef82e3,2022-07-06_09h30.59.682,Colour_Asymmetry_Pilot,2022.1.3,Win32,60.44122091,62c50e9c1127f2cd403a315f,0,131,131,99,1,twofour,,,,,,,,,,,,,,,,,,,,,,,,,,,,,,,,,,,,,,,,,,,,,,,,,,,,,,,,,,,,,,,,,,,,,,,,,,,,,,,,,,,,,,,,,,,,,,,,,,,,,,,,,,,,,,,,,,,,,,,,,,,,,,,,,,,,,,,,,,,,,,,,,,,,,,,,,,,,,
,,,,,,6155752fd8e4f079cb44557d,62c539dd7b979cb36aef82e3,2022-07-06_09h30.59.682,Colour_Asymmetry_Pilot,2022.1.3,Win32,60.44122091,62c50e9c1127f2cd403a315f,0,132,132,143,1,fourthree,,,,,,,,,,,,,,,,,,,,,,,,,,,,,,,,,,,,,,,,,,,,,,,,,,,,,,,,,,,,,,,,,,,,,,,,,,,,,,,,,,,,,,,,,,,,,,,,,,,,,,,,,,,,,,,,,,,,,,,,,,,,,,,,,,,,,,,,,,,,,,,,,,,,,,,,,,,,,
,,,,,,6155752fd8e4f079cb44557d,62c539dd7b979cb36aef82e3,2022-07-06_09h30.59.682,Colour_Asymmetry_Pilot,2022.1.3,Win32,60.44122091,62c50e9c1127f2cd403a315f,0,133,133,36,1,threeone,,,,,,,,,,,,,,,,,,,,,,,,,,,,,,,,,,,,,,,,,,,,,,,,,,,,,,,,,,,,,,,,,,,,,,,,,,,,,,,,,,,,,,,,,,,,,,,,,,,,,,,,,,,,,,,,,,,,,,,,,,,,,,,,,,,,,,,,,,,,,,,,,,,,,,,,,,,,,
,,,,,,6155752fd8e4f079cb44557d,62c539dd7b979cb36aef82e3,2022-07-06_09h30.59.682,Colour_Asymmetry_Pilot,2022.1.3,Win32,60.44122091,62c50e9c1127f2cd403a315f,0,134,134,128,1,onetwo,,,,,,,,,,,,,,,,,,,,,,,,,,,,,,,,,,,,,,,,,,,,,,,,,,,,,,,,,,,,,,,,,,,,,,,,,,,,,,,,,,,,,,,,,,,,,,,,,,,,,,,,,,,,,,,,,,,,,,,,,,,,,,,,,,,,,,,,,,,,,,,,,,,,,,,,,,,,,
,,,,,,6155752fd8e4f079cb44557d,62c539dd7b979cb36aef82e3,2022-07-06_09h30.59.682,Colour_Asymmetry_Pilot,2022.1.3,Win32,60.44122091,62c50e9c1127f2cd403a315f,0,135,135,54,1,fourtwo,,,,,,,,,,,,,,,,,,,,,,,,,,,,,,,,,,,,,,,,,,,,,,,,,,,,,,,,,,,,,,,,,,,,,,,,,,,,,,,,,,,,,,,,,,,,,,,,,,,,,,,,,,,,,,,,,,,,,,,,,,,,,,,,,,,,,,,,,,,,,,,,,,,,,,,,,,,,,
,,,,,,6155752fd8e4f079cb44557d,62c539dd7b979cb36aef82e3,2022-07-06_09h30.59.682,Colour_Asymmetry_Pilot,2022.1.3,Win32,60.44122091,62c50e9c1127f2cd403a315f,0,136,136,150,1,fourtwo,,,,,,,,,,,,,,,,,,,,,,,,,,,,,,,,,,,,,,,,,,,,,,,,,,,,,,,,,,,,,,,,,,,,,,,,,,,,,,,,,,,,,,,,,,,,,,,,,,,,,,,,,,,,,,,,,,,,,,,,,,,,,,,,,,,,,,,,,,,,,,,,,,,,,,,,,,,,,
,,,,,,6155752fd8e4f079cb44557d,62c539dd7b979cb36aef82e3,2022-07-06_09h30.59.682,Colour_Asymmetry_Pilot,2022.1.3,Win32,60.44122091,62c50e9c1127f2cd403a315f,0,137,137,40,1,onetwo,,,,,,,,,,,,,,,,,,,,,,,,,,,,,,,,,,,,,,,,,,,,,,,,,,,,,,,,,,,,,,,,,,,,,,,,,,,,,,,,,,,,,,,,,,,,,,,,,,,,,,,,,,,,,,,,,,,,,,,,,,,,,,,,,,,,,,,,,,,,,,,,,,,,,,,,,,,,,
,,,,,,6155752fd8e4f079cb44557d,62c539dd7b979cb36aef82e3,2022-07-06_09h30.59.682,Colour_Asymmetry_Pilot,2022.1.3,Win32,60.44122091,62c50e9c1127f2cd403a315f,0,138,138,46,1,fourtwo,,,,,,,,,,,,,,,,,,,,,,,,,,,,,,,,,,,,,,,,,,,,,,,,,,,,,,,,,,,,,,,,,,,,,,,,,,,,,,,,,,,,,,,,,,,,,,,,,,,,,,,,,,,,,,,,,,,,,,,,,,,,,,,,,,,,,,,,,,,,,,,,,,,,,,,,,,,,,
,,,,,,6155752fd8e4f079cb44557d,62c539dd7b979cb36aef82e3,2022-07-06_09h30.59.682,Colour_Asymmetry_Pilot,2022.1.3,Win32,60.44122091,62c50e9c1127f2cd403a315f,0,139,139,79,1,fourthree,,,,,,,,,,,,,,,,,,,,,,,,,,,,,,,,,,,,,,,,,,,,,,,,,,,,,,,,,,,,,,,,,,,,,,,,,,,,,,,,,,,,,,,,,,,,,,,,,,,,,,,,,,,,,,,,,,,,,,,,,,,,,,,,,,,,,,,,,,,,,,,,,,,,,,,,,,,,,
,,,,,,6155752fd8e4f079cb44557d,62c539dd7b979cb36aef82e3,2022-07-06_09h30.59.682,Colour_Asymmetry_Pilot,2022.1.3,Win32,60.44122091,62c50e9c1127f2cd403a315f,0,140,140,69,1,threefour,,,,,,,,,,,,,,,,,,,,,,,,,,,,,,,,,,,,,,,,,,,,,,,,,,,,,,,,,,,,,,,,,,,,,,,,,,,,,,,,,,,,,,,,,,,,,,,,,,,,,,,,,,,,,,,,,,,,,,,,,,,,,,,,,,,,,,,,,,,,,,,,,,,,,,,,,,,,,
,,,,,,6155752fd8e4f079cb44557d,62c539dd7b979cb36aef82e3,2022-07-06_09h30.59.682,Colour_Asymmetry_Pilot,2022.1.3,Win32,60.44122091,62c50e9c1127f2cd403a315f,0,141,141,134,1,fourtwo,,,,,,,,,,,,,,,,,,,,,,,,,,,,,,,,,,,,,,,,,,,,,,,,,,,,,,,,,,,,,,,,,,,,,,,,,,,,,,,,,,,,,,,,,,,,,,,,,,,,,,,,,,,,,,,,,,,,,,,,,,,,,,,,,,,,,,,,,,,,,,,,,,,,,,,,,,,,,
,,,,,,6155752fd8e4f079cb44557d,62c539dd7b979cb36aef82e3,2022-07-06_09h30.59.682,Colour_Asymmetry_Pilot,2022.1.3,Win32,60.44122091,62c50e9c1127f2cd403a315f,0,142,142,117,1,threefour,,,,,,,,,,,,,,,,,,,,,,,,,,,,,,,,,,,,,,,,,,,,,,,,,,,,,,,,,,,,,,,,,,,,,,,,,,,,,,,,,,,,,,,,,,,,,,,,,,,,,,,,,,,,,,,,,,,,,,,,,,,,,,,,,,,,,,,,,,,,,,,,,,,,,,,,,,,,,
,,,,,,6155752fd8e4f079cb44557d,62c539dd7b979cb36aef82e3,2022-07-06_09h30.59.682,Colour_Asymmetry_Pilot,2022.1.3,Win32,60.44122091,62c50e9c1127f2cd403a315f,0,143,143,87,1,fourthree,,,,,,,,,,,,,,,,,,,,,,,,,,,,,,,,,,,,,,,,,,,,,,,,,,,,,,,,,,,,,,,,,,,,,,,,,,,,,,,,,,,,,,,,,,,,,,,,,,,,,,,,,,,,,,,,,,,,,,,,,,,,,,,,,,,,,,,,,,,,,,,,,,,,,,,,,,,,,
,,,,,,6155752fd8e4f079cb44557d,62c539dd7b979cb36aef82e3,2022-07-06_09h30.59.682,Colour_Asymmetry_Pilot,2022.1.3,Win32,60.44122091,62c50e9c1127f2cd403a315f,0,144,144,94,1,fourtwo,,,,,,,,,,,,,,,,,,,,,,,,,,,,,,,,,,,,,,,,,,,,,,,,,,,,,,,,,,,,,,,,,,,,,,,,,,,,,,,,,,,,,,,,,,,,,,,,,,,,,,,,,,,,,,,,,,,,,,,,,,,,,,,,,,,,,,,,,,,,,,,,,,,,,,,,,,,,,
,,,,,,6155752fd8e4f079cb44557d,62c539dd7b979cb36aef82e3,2022-07-06_09h30.59.682,Colour_Asymmetry_Pilot,2022.1.3,Win32,60.44122091,62c50e9c1127f2cd403a315f,0,145,145,100,1,threeone,,,,,,,,,,,,,,,,,,,,,,,,,,,,,,,,,,,,,,,,,,,,,,,,,,,,,,,,,,,,,,,,,,,,,,,,,,,,,,,,,,,,,,,,,,,,,,,,,,,,,,,,,,,,,,,,,,,,,,,,,,,,,,,,,,,,,,,,,,,,,,,,,,,,,,,,,,,,,
,,,,,,6155752fd8e4f079cb44557d,62c539dd7b979cb36aef82e3,2022-07-06_09h30.59.682,Colour_Asymmetry_Pilot,2022.1.3,Win32,60.44122091,62c50e9c1127f2cd403a315f,0,146,146,57,1,onethree,,,,,,,,,,,,,,,,,,,,,,,,,,,,,,,,,,,,,,,,,,,,,,,,,,,,,,,,,,,,,,,,,,,,,,,,,,,,,,,,,,,,,,,,,,,,,,,,,,,,,,,,,,,,,,,,,,,,,,,,,,,,,,,,,,,,,,,,,,,,,,,,,,,,,,,,,,,,,
,,,,,,6155752fd8e4f079cb44557d,62c539dd7b979cb36aef82e3,2022-07-06_09h30.59.682,Colour_Asymmetry_Pilot,2022.1.3,Win32,60.44122091,62c50e9c1127f2cd403a315f,0,147,147,1,1,onethree,,,,,,,,,,,,,,,,,,,,,,,,,,,,,,,,,,,,,,,,,,,,,,,,,,,,,,,,,,,,,,,,,,,,,,,,,,,,,,,,,,,,,,,,,,,,,,,,,,,,,,,,,,,,,,,,,,,,,,,,,,,,,,,,,,,,,,,,,,,,,,,,,,,,,,,,,,,,,
,,,,,,6155752fd8e4f079cb44557d,62c539dd7b979cb36aef82e3,2022-07-06_09h30.59.682,Colour_Asymmetry_Pilot,2022.1.3,Win32,60.44122091,62c50e9c1127f2cd403a315f,0,148,148,48,1,onetwo,,,,,,,,,,,,,,,,,,,,,,,,,,,,,,,,,,,,,,,,,,,,,,,,,,,,,,,,,,,,,,,,,,,,,,,,,,,,,,,,,,,,,,,,,,,,,,,,,,,,,,,,,,,,,,,,,,,,,,,,,,,,,,,,,,,,,,,,,,,,,,,,,,,,,,,,,,,,,
,,,,,,6155752fd8e4f079cb44557d,62c539dd7b979cb36aef82e3,2022-07-06_09h30.59.682,Colour_Asymmetry_Pilot,2022.1.3,Win32,60.44122091,62c50e9c1127f2cd403a315f,0,149,149,68,1,threeone,,,,,,,,,,,,,,,,,,,,,,,,,,,,,,,,,,,,,,,,,,,,,,,,,,,,,,,,,,,,,,,,,,,,,,,,,,,,,,,,,,,,,,,,,,,,,,,,,,,,,,,,,,,,,,,,,,,,,,,,,,,,,,,,,,,,,,,,,,,,,,,,,,,,,,,,,,,,,
,,,,,,6155752fd8e4f079cb44557d,62c539dd7b979cb36aef82e3,2022-07-06_09h30.59.682,Colour_Asymmetry_Pilot,2022.1.3,Win32,60.44122091,62c50e9c1127f2cd403a315f,0,150,150,0,1,onetwo,,,,,,,,,,,,,,,,,,,,,,,,,,,,,,,,,,,,,,,,,,,,,,,,,,,,,,,,,,,,,,,,,,,,,,,,,,,,,,,,,,,,,,,,,,,,,,,,,,,,,,,,,,,,,,,,,,,,,,,,,,,,,,,,,,,,,,,,,,,,,,,,,,,,,,,,,,,,,
,,,,,,6155752fd8e4f079cb44557d,62c539dd7b979cb36aef82e3,2022-07-06_09h30.59.682,Colour_Asymmetry_Pilot,2022.1.3,Win32,60.44122091,62c50e9c1127f2cd403a315f,0,151,151,80,1,onetwo,,,,,,,,,,,,,,,,,,,,,,,,,,,,,,,,,,,,,,,,,,,,,,,,,,,,,,,,,,,,,,,,,,,,,,,,,,,,,,,,,,,,,,,,,,,,,,,,,,,,,,,,,,,,,,,,,,,,,,,,,,,,,,,,,,,,,,,,,,,,,,,,,,,,,,,,,,,,,
,,,,,,6155752fd8e4f079cb44557d,62c539dd7b979cb36aef82e3,2022-07-06_09h30.59.682,Colour_Asymmetry_Pilot,2022.1.3,Win32,60.44122091,62c50e9c1127f2cd403a315f,0,152,152,104,1,onetwo,,,,,,,,,,,,,,,,,,,,,,,,,,,,,,,,,,,,,,,,,,,,,,,,,,,,,,,,,,,,,,,,,,,,,,,,,,,,,,,,,,,,,,,,,,,,,,,,,,,,,,,,,,,,,,,,,,,,,,,,,,,,,,,,,,,,,,,,,,,,,,,,,,,,,,,,,,,,,
,,,,,,6155752fd8e4f079cb44557d,62c539dd7b979cb36aef82e3,2022-07-06_09h30.59.682,Colour_Asymmetry_Pilot,2022.1.3,Win32,60.44122091,62c50e9c1127f2cd403a315f,0,153,153,74,1,twoone,,,,,,,,,,,,,,,,,,,,,,,,,,,,,,,,,,,,,,,,,,,,,,,,,,,,,,,,,,,,,,,,,,,,,,,,,,,,,,,,,,,,,,,,,,,,,,,,,,,,,,,,,,,,,,,,,,,,,,,,,,,,,,,,,,,,,,,,,,,,,,,,,,,,,,,,,,,,,
,,,,,,6155752fd8e4f079cb44557d,62c539dd7b979cb36aef82e3,2022-07-06_09h30.59.682,Colour_Asymmetry_Pilot,2022.1.3,Win32,60.44122091,62c50e9c1127f2cd403a315f,0,154,154,110,1,fourtwo,,,,,,,,,,,,,,,,,,,,,,,,,,,,,,,,,,,,,,,,,,,,,,,,,,,,,,,,,,,,,,,,,,,,,,,,,,,,,,,,,,,,,,,,,,,,,,,,,,,,,,,,,,,,,,,,,,,,,,,,,,,,,,,,,,,,,,,,,,,,,,,,,,,,,,,,,,,,,
,,,,,,6155752fd8e4f079cb44557d,62c539dd7b979cb36aef82e3,2022-07-06_09h30.59.682,Colour_Asymmetry_Pilot,2022.1.3,Win32,60.44122091,62c50e9c1127f2cd403a315f,0,155,155,144,1,onetwo,,,,,,,,,,,,,,,,,,,,,,,,,,,,,,,,,,,,,,,,,,,,,,,,,,,,,,,,,,,,,,,,,,,,,,,,,,,,,,,,,,,,,,,,,,,,,,,,,,,,,,,,,,,,,,,,,,,,,,,,,,,,,,,,,,,,,,,,,,,,,,,,,,,,,,,,,,,,,
,,,,,,6155752fd8e4f079cb44557d,62c539dd7b979cb36aef82e3,2022-07-06_09h30.59.682,Colour_Asymmetry_Pilot,2022.1.3,Win32,60.44122091,62c50e9c1127f2cd403a315f,0,156,156,27,1,twofour,,,,,,,,,,,,,,,,,,,,,,,,,,,,,,,,,,,,,,,,,,,,,,,,,,,,,,,,,,,,,,,,,,,,,,,,,,,,,,,,,,,,,,,,,,,,,,,,,,,,,,,,,,,,,,,,,,,,,,,,,,,,,,,,,,,,,,,,,,,,,,,,,,,,,,,,,,,,,
,,,,,,6155752fd8e4f079cb44557d,62c539dd7b979cb36aef82e3,2022-07-06_09h30.59.682,Colour_Asymmetry_Pilot,2022.1.3,Win32,60.44122091,62c50e9c1127f2cd403a315f,0,157,157,5,1,threefour,,,,,,,,,,,,,,,,,,,,,,,,,,,,,,,,,,,,,,,,,,,,,,,,,,,,,,,,,,,,,,,,,,,,,,,,,,,,,,,,,,,,,,,,,,,,,,,,,,,,,,,,,,,,,,,,,,,,,,,,,,,,,,,,,,,,,,,,,,,,,,,,,,,,,,,,,,,,,
,,,,,,6155752fd8e4f079cb44557d,62c539dd7b979cb36aef82e3,2022-07-06_09h30.59.682,Colour_Asymmetry_Pilot,2022.1.3,Win32,60.44122091,62c50e9c1127f2cd403a315f,0,158,158,106,1,twoone,,,,,,,,,,,,,,,,,,,,,,,,,,,,,,,,,,,,,,,,,,,,,,,,,,,,,,,,,,,,,,,,,,,,,,,,,,,,,,,,,,,,,,,,,,,,,,,,,,,,,,,,,,,,,,,,,,,,,,,,,,,,,,,,,,,,,,,,,,,,,,,,,,,,,,,,,,,,,
,,,,,,6155752fd8e4f079cb44557d,62c539dd7b979cb36aef82e3,2022-07-06_09h30.59.682,Colour_Asymmetry_Pilot,2022.1.3,Win32,60.44122091,62c50e9c1127f2cd403a315f,0,159,159,130,1,twoone,,,,,,,,,,,,,,,,,,,,,,,,,,,,,,,,,,,,,,,,,,,,,,,,,,,,,,,,,,,,,,,,,,,,,,,,,,,,,,,,,,,,,,,,,,,,,,,,,,,,,,,,,,,,,,,,,,,,,,,,,,,,,,,,,,,,,,,,,,,,,,,,,,,,,,,,,,,,,
,,,,,,6155752fd8e4f079cb44557d,62c539dd7b979cb36aef82e3,2022-07-06_09h30.59.682,Colour_Asymmetry_Pilot,2022.1.3,Win32,60.44122091,62c50e9c1127f2cd403a315f,0,160,160,38,1,fourtwo,,,,,,,,,,,,,,,,,,,,,,,,,,,,,,,,,,,,,,,,,,,,,,,,,,,,,,,,,,,,,,,,,,,,,,,,,,,,,,,,,,,,,,,,,,,,,,,,,,,,,,,,,,,,,,,,,,,,,,,,,,,,,,,,,,,,,,,,,,,,,,,,,,,,,,,,,,,,,
,,,,,,6155752fd8e4f079cb44557d,62c539dd7b979cb36aef82e3,2022-07-06_09h30.59.682,Colour_Asymmetry_Pilot,2022.1.3,Win32,60.44122091,62c50e9c1127f2cd403a315f,0,161,161,113,1,onethree,,,,,,,,,,,,,,,,,,,,,,,,,,,,,,,,,,,,,,,,,,,,,,,,,,,,,,,,,,,,,,,,,,,,,,,,,,,,,,,,,,,,,,,,,,,,,,,,,,,,,,,,,,,,,,,,,,,,,,,,,,,,,,,,,,,,,,,,,,,,,,,,,,,,,,,,,,,,,
,,,,,,6155752fd8e4f079cb44557d,62c539dd7b979cb36aef82e3,2022-07-06_09h30.59.682,Colour_Asymmetry_Pilot,2022.1.3,Win32,60.44122091,62c50e9c1127f2cd403a315f,,,,,,,space,1.8242,space,4.17,space,27.8322,space,7.0331,space,1.7544,space,8.2489,"[-0.9688,-0.38039999999999996,-0.41979999999999995]",twofour,"[0.796,0.2156,-0.27859999999999996]",2,13.3514,103,-50,1,0,0,response3disk_5,0,-4,1,0,0,rectangle_8,-49,-114,1,0,0,response5disk_7,3,1,6,10,1,0,0,rectangle_4,0,0,0,0,1,,,,,,,,,,,,,,,,,,,,,,,,,,,,,,,,,,,,,,,,,,,,,,,,,,,,,,,,,,,,,,,,,,,,,,,,,,,,,,,,,,,,,,,,,,,,,,,,,,,,,,,,,,,,,
,,,,,,6155752fd8e4f079cb44557d,62c539dd7b979cb36aef82e3,2022-07-06_09h30.59.682,Colour_Asymmetry_Pilot,2022.1.3,Win32,60.44122091,62c50e9c1127f2cd403a315f,,,,,,,,,,,,,,,,,,,"[0.3881999999999999,-0.23939999999999995,-0.05040000000000011]",threefour,"[-0.5922000000000001,-0.7492000000000001,-0.5296000000000001]",-1,6.0164,-53,-100,1,0,0,response5disk_5,-1,-3,1,0,0,rectangle_8,-1,-3,1,0,0,,,1,-1,-3,1,0,0,,1,0,1,0,1,,,,,,,,,,,,,,,,,,,,,,,,,,,,,,,,,,,,,,,,,,,,,,,,,,,,,,,,,,,,,,,,,,,,,,,,,,,,,,,,,,,,,,,,,,,,,,,,,,,,,,,,,,,,,
,,,,,,6155752fd8e4f079cb44557d,62c539dd7b979cb36aef82e3,2022-07-06_09h30.59.682,Colour_Asymmetry_Pilot,2022.1.3,Win32,60.44122091,62c50e9c1127f2cd403a315f,,,,,,,,,,,,,,,,,,,"[0.9372,0.20779999999999998,0.2704]",threefour,"[0.9213999999999998,0.6391999999999998,-0.9922]",-3,2.1003,-81,43,1,0,0,response7disk_5,-6,6,1,0,0,rectangle_8,-6,6,1,0,0,,,1,-6,6,1,0,0,,2,0,2,0,1,,,,,,,,,,,,,,,,,,,,,,,,,,,,,,,,,,,,,,,,,,,,,,,,,,,,,,,,,,,,,,,,,,,,,,,,,,,,,,,,,,,,,,,,,,,,,,,,,,,,,,,,,,,,,
,,,,,,6155752fd8e4f079cb44557d,62c539dd7b979cb36aef82e3,2022-07-06_09h30.59.682,Colour_Asymmetry_Pilot,2022.1.3,Win32,60.44122091,62c50e9c1127f2cd403a315f,,,,,,,,,,,,,,,,,,,"[0.9842,0.7409999999999999,-0.6628000000000001]",onetwo,"[-0.4746,-0.0354000000000001,0.5449999999999999]",-4,1.7502,-38,73,1,0,0,response7disk_5,-6,-5,1,0,0,rectangle_8,-6,-5,1,0,0,,,1,-6,-5,1,0,0,,3,0,3,0,1,,,,,,,,,,,,,,,,,,,,,,,,,,,,,,,,,,,,,,,,,,,,,,,,,,,,,,,,,,,,,,,,,,,,,,,,,,,,,,,,,,,,,,,,,,,,,,,,,,,,,,,,,,,,,
,,,,,,6155752fd8e4f079cb44557d,62c539dd7b979cb36aef82e3,2022-07-06_09h30.59.682,Colour_Asymmetry_Pilot,2022.1.3,Win32,60.44122091,62c50e9c1127f2cd403a315f,,,,,,,,,,,,,,,,,,,"[-0.9138,-0.5296000000000001,-0.5529999999999999]",threeone,"[0.19199999999999995,0.18419999999999992,0.5136000000000001]",-3,2.8665,-90,34,1,0,0,response7disk_5,13,-6,1,0,0,rectangle_8,13,-6,1,0,0,,,1,13,-6,1,0,0,,4,0,4,0,1,,,,,,,,,,,,,,,,,,,,,,,,,,,,,,,,,,,,,,,,,,,,,,,,,,,,,,,,,,,,,,,,,,,,,,,,,,,,,,,,,,,,,,,,,,,,,,,,,,,,,,,,,,,,,
,,,,,,6155752fd8e4f079cb44557d,62c539dd7b979cb36aef82e3,2022-07-06_09h30.59.682,Colour_Asymmetry_Pilot,2022.1.3,Win32,60.44122091,62c50e9c1127f2cd403a315f,,,,,,,,,,,,,,,,,,,"[-0.24719999999999998,-0.0354000000000001,0.3175999999999999]",onetwo,"[0.9763999999999999,0.8588,-0.05900000000000005]",-3,3.8996,-75,42,1,0,0,response7disk_5,1,-7,1,0,0,rectangle_8,41,-115,1,0,0,response3disk_7,4,1,-5,1,1,0,0,rectangle_4,5,0,5,0,1,,,,,,,,,,,,,,,,,,,,,,,,,,,,,,,,,,,,,,,,,,,,,,,,,,,,,,,,,,,,,,,,,,,,,,,,,,,,,,,,,,,,,,,,,,,,,,,,,,,,,,,,,,,,,
,,,,,,6155752fd8e4f079cb44557d,62c539dd7b979cb36aef82e3,2022-07-06_09h30.59.682,Colour_Asymmetry_Pilot,2022.1.3,Win32,60.44122091,62c50e9c1127f2cd403a315f,,,,,,,,,,,,,,,,,,,"[-0.9766,-0.34920000000000007,0.2156]",fourthree,"[0.9686000000000001,0.5763999999999998,0.11359999999999992]",-4,1.317,-51,88,1,0,0,response7disk_5,-10,-1,1,0,0,rectangle_8,-10,-1,1,0,0,,,1,-10,-1,1,0,0,,6,0,6,0,1,,,,,,,,,,,,,,,,,,,,,,,,,,,,,,,,,,,,,,,,,,,,,,,,,,,,,,,,,,,,,,,,,,,,,,,,,,,,,,,,,,,,,,,,,,,,,,,,,,,,,,,,,,,,,
,,,,,,6155752fd8e4f079cb44557d,62c539dd7b979cb36aef82e3,2022-07-06_09h30.59.682,Colour_Asymmetry_Pilot,2022.1.3,Win32,60.44122091,62c50e9c1127f2cd403a315f,,,,,,,,,,,,,,,,,,,,fourtwo,,2,2.0494,,,,,,,,,,,,,,,,,,,,,,,,,,,,,,,,space,4.034,"[0.3802000000000001,0.19199999999999995,-0.6394]","[0.9763999999999999,0.30979999999999985,-0.6786]",108,-42,1,0,0,response3disk,-7,-5,1,0,0,rectangle,-7,-5,1,0,0,,1,0.0015,0,-7,-5,1,0,0,0,0,0,113,1,32,second,,,,,,,,,,,,,,,,,,,,,,,,,,,,,,,,,,,,,,,,,,,,,,,,,,,,,,,,,,,,,,,,,,,,,,,,
,,,,,,6155752fd8e4f079cb44557d,62c539dd7b979cb36aef82e3,2022-07-06_09h30.59.682,Colour_Asymmetry_Pilot,2022.1.3,Win32,60.44122091,62c50e9c1127f2cd403a315f,,,,,,,,,,,,,,,,,,,,twofour,,1,3.1662,,,,,,,,,,,,,,,,,,,,,,,,,,,,,,,,,,"[-0.0040000000000000036,0.02739999999999987,-0.08239999999999992]","[0.9763999999999999,0.30979999999999985,-0.6786]",61,-96,1,0,0,response3disk,17,-7,1,0,0,rectangle,17,-7,1,0,0,,1,0.0006,0,17,-7,1,0,0,0,1,1,126,1,45,second,,,,,,,,,,,,,,,,,,,,,,,,,,,,,,,,,,,,,,,,,,,,,,,,,,,,,,,,,,,,,,,,,,,,,,,,
,,,,,,6155752fd8e4f079cb44557d,62c539dd7b979cb36aef82e3,2022-07-06_09h30.59.682,Colour_Asymmetry_Pilot,2022.1.3,Win32,60.44122091,62c50e9c1127f2cd403a315f,,,,,,,,,,,,,,,,,,,,onetwo,,1,1.9663,,,,,,,,,,,,,,,,,,,,,,,,,,,,,,,,,,"[-0.050999999999999934,-0.6706000000000001,-0.804]","[-0.17659999999999998,-0.2864,-0.8354]",47,-89,1,0,0,response3disk,6,2,1,0,0,rectangle,6,2,1,0,0,,1,0.0004,0,6,2,1,0,0,0,2,2,144,1,63,second,,,,,,,,,,,,,,,,,,,,,,,,,,,,,,,,,,,,,,,,,,,,,,,,,,,,,,,,,,,,,,,,,,,,,,,,
,,,,,,6155752fd8e4f079cb44557d,62c539dd7b979cb36aef82e3,2022-07-06_09h30.59.682,Colour_Asymmetry_Pilot,2022.1.3,Win32,60.44122091,62c50e9c1127f2cd403a315f,,,,,,,,,,,,,,,,,,,,fourtwo,,2,3.1003,,,,,,,,,,,,,,,,,,,,,,,,,,,,,,,,,,"[-0.6,0.16860000000000008,0.44300000000000006]","[-0.9296,-0.12959999999999994,-0.043199999999999905]",120,-54,1,0,0,response3disk,1,-1,1,0,0,rectangle,1,-1,1,0,0,,3,0.0026,0,1,-1,1,0,0,0,3,3,44,1,44,first,,,,,,,,,,,,,,,,,,,,,,,,,,,,,,,,,,,,,,,,,,,,,,,,,,,,,,,,,,,,,,,,,,,,,,,,
,,,,,,6155752fd8e4f079cb44557d,62c539dd7b979cb36aef82e3,2022-07-06_09h30.59.682,Colour_Asymmetry_Pilot,2022.1.3,Win32,60.44122091,62c50e9c1127f2cd403a315f,,,,,,,,,,,,,,,,,,,,onetwo,,3,0.8321,,,,,,,,,,,,,,,,,,,,,,,,,,,,,,,,,,"[-0.4276,0.0038000000000000256,-0.3256]","[-0.5688,-0.08239999999999992,-0.1844]",95,38,1,0,0,response1disk,2,-9,1,0,0,rectangle,2,-9,1,0,0,,3,0.002,0,2,-9,1,0,0,0,4,4,22,1,22,first,,,,,,,,,,,,,,,,,,,,,,,,,,,,,,,,,,,,,,,,,,,,,,,,,,,,,,,,,,,,,,,,,,,,,,,,
,,,,,,6155752fd8e4f079cb44557d,62c539dd7b979cb36aef82e3,2022-07-06_09h30.59.682,Colour_Asymmetry_Pilot,2022.1.3,Win32,60.44122091,62c50e9c1127f2cd403a315f,,,,,,,,,,,,,,,,,,,,fourthree,,-1,1.143,,,,,,,,,,,,,,,,,,,,,,,,,,,,,,,,,,"[0.37240000000000006,-0.050999999999999934,-0.5216]","[0.9372,0.20779999999999998,0.2704]",-41,-103,1,0,0,response5disk,16,3,1,0,0,rectangle,16,3,1,0,0,,3,0.0004,0,16,3,1,0,0,0,5,5,92,1,11,second,,,,,,,,,,,,,,,,,,,,,,,,,,,,,,,,,,,,,,,,,,,,,,,,,,,,,,,,,,,,,,,,,,,,,,,,
,,,,,,6155752fd8e4f079cb44557d,62c539dd7b979cb36aef82e3,2022-07-06_09h30.59.682,Colour_Asymmetry_Pilot,2022.1.3,Win32,60.44122091,62c50e9c1127f2cd403a315f,,,,,,,,,,,,,,,,,,,,onethree,,-1,2.4666,,,,,,,,,,,,,,,,,,,,,,,,,,,,,,,,,,"[0.23120000000000007,-0.7726,-0.34120000000000006]","[0.3568,-0.20799999999999996,-0.9844]",-42,-65,1,0,0,response5disk,-3,-2,1,0,0,rectangle,-3,-2,1,0,0,,1,0.0021,0,-3,-2,1,0,0,0,6,6,9,1,9,first,,,,,,,,,,,,,,,,,,,,,,,,,,,,,,,,,,,,,,,,,,,,,,,,,,,,,,,,,,,,,,,,,,,,,,,,
,,,,,,6155752fd8e4f079cb44557d,62c539dd7b979cb36aef82e3,2022-07-06_09h30.59.682,Colour_Asymmetry_Pilot,2022.1.3,Win32,60.44122091,62c50e9c1127f2cd403a315f,,,,,,,,,,,,,,,,,,,,twofour,,-2,3.0492,,,,,,,,,,,,,,,,,,,,,,,,,,,,,,,,,,"[-0.0040000000000000036,0.02739999999999987,-0.08239999999999992]","[-0.17659999999999998,0.3253999999999999,0.19999999999999996]",-70,-50,1,0,0,response5disk,7,5,1,0,0,rectangle,7,5,1,0,0,,2,0.0026,0,7,5,1,0,0,0,7,7,54,1,54,first,,,,,,,,,,,,,,,,,,,,,,,,,,,,,,,,,,,,,,,,,,,,,,,,,,,,,,,,,,,,,,,,,,,,,,,,
,,,,,,6155752fd8e4f079cb44557d,62c539dd7b979cb36aef82e3,2022-07-06_09h30.59.682,Colour_Asymmetry_Pilot,2022.1.3,Win32,60.44122091,62c50e9c1127f2cd403a315f,,,,,,,,,,,,,,,,,,,,onetwo,,-2,2.2942,,,,,,,,,,,,,,,,,,,,,,,,,,,,,,,,,,"[0.2862,0.7802,0.3568]","[-0.10599999999999998,-0.10599999999999998,0.5841999999999998]",-95,-51,1,0,0,response5disk,12,-3,1,0,0,rectangle,12,-3,1,0,0,,1,0.0022,0,12,-3,1,0,0,0,8,8,28,1,28,first,,,,,,,,,,,,,,,,,,,,,,,,,,,,,,,,,,,,,,,,,,,,,,,,,,,,,,,,,,,,,,,,,,,,,,,,
,,,,,,6155752fd8e4f079cb44557d,62c539dd7b979cb36aef82e3,2022-07-06_09h30.59.682,Colour_Asymmetry_Pilot,2022.1.3,Win32,60.44122091,62c50e9c1127f2cd403a315f,,,,,,,,,,,,,,,,,,,,threeone,,3,1.5661,,,,,,,,,,,,,,,,,,,,,,,,,,,,,,,,,,"[-0.38039999999999996,-0.4276,-0.1452]","[-0.10599999999999998,-0.15300000000000002,0.15280000000000005]",102,24,1,0,0,response1disk,-32,3,1,0,0,rectangle,-32,3,1,0,0,,1,0.0001,0,-32,3,1,0,0,0,9,9,137,1,56,second,,,,,,,,,,,,,,,,,,,,,,,,,,,,,,,,,,,,,,,,,,,,,,,,,,,,,,,,,,,,,,,,,,,,,,,,
,,,,,,6155752fd8e4f079cb44557d,62c539dd7b979cb36aef82e3,2022-07-06_09h30.59.682,Colour_Asymmetry_Pilot,2022.1.3,Win32,60.44122091,62c50e9c1127f2cd403a315f,,,,,,,,,,,,,,,,,,,,twofour,,-2,0.7789,,,,,,,,,,,,,,,,,,,,,,,,,,,,,,,,,,"[-0.45899999999999996,-0.3256,-0.9374]","[-0.10599999999999998,-0.10599999999999998,0.5841999999999998]",-85,-42,1,0,0,response5disk,4,-3,1,0,0,rectangle,4,-3,1,0,0,,1,0.0004,0,4,-3,1,0,0,0,10,10,8,1,8,first,,,,,,,,,,,,,,,,,,,,,,,,,,,,,,,,,,,,,,,,,,,,,,,,,,,,,,,,,,,,,,,,,,,,,,,,
,,,,,,6155752fd8e4f079cb44557d,62c539dd7b979cb36aef82e3,2022-07-06_09h30.59.682,Colour_Asymmetry_Pilot,2022.1.3,Win32,60.44122091,62c50e9c1127f2cd403a315f,,,,,,,,,,,,,,,,,,,,twoone,,1,2.3999,,,,,,,,,,,,,,,,,,,,,,,,,,,,,,,,,,"[0.9763999999999999,0.30979999999999985,-0.6786]","[-0.0040000000000000036,0.02739999999999987,-0.08239999999999992]",40,-89,1,0,0,response3disk,0,7,1,0,0,rectangle,0,7,1,0,0,,1,0.0002,0,0,7,1,0,0,0,11,11,45,1,45,first,,,,,,,,,,,,,,,,,,,,,,,,,,,,,,,,,,,,,,,,,,,,,,,,,,,,,,,,,,,,,,,,,,,,,,,,
,,,,,,6155752fd8e4f079cb44557d,62c539dd7b979cb36aef82e3,2022-07-06_09h30.59.682,Colour_Asymmetry_Pilot,2022.1.3,Win32,60.44122091,62c50e9c1127f2cd403a315f,,,,,,,,,,,,,,,,,,,,fourtwo,,1,1.8834,,,,,,,,,,,,,,,,,,,,,,,,,,,,,,,,,,"[0.34099999999999997,0.12939999999999996,-0.9766]","[0.23920000000000008,0.2704,0.16060000000000008]",41,-82,1,0,0,response3disk,10,-11,1,0,0,rectangle,10,-11,1,0,0,,2,0.0017,0,10,-11,1,0,0,0,12,12,27,1,27,first,,,,,,,,,,,,,,,,,,,,,,,,,,,,,,,,,,,,,,,,,,,,,,,,,,,,,,,,,,,,,,,,,,,,,,,,
,,,,,,6155752fd8e4f079cb44557d,62c539dd7b979cb36aef82e3,2022-07-06_09h30.59.682,Colour_Asymmetry_Pilot,2022.1.3,Win32,60.44122091,62c50e9c1127f2cd403a315f,,,,,,,,,,,,,,,,,,,,onethree,,-2,0.6442,,,,,,,,,,,,,,,,,,,,,,,,,,,,,,,,,,"[0.18419999999999992,-0.4276,-0.404]","[-0.7412000000000001,-0.08239999999999992,-0.6864]",-84,-48,1,0,0,response5disk,-19,-4,1,0,0,rectangle,-19,-4,1,0,0,,1,0.0024,0,-19,-4,1,0,0,0,13,13,59,1,59,first,,,,,,,,,,,,,,,,,,,,,,,,,,,,,,,,,,,,,,,,,,,,,,,,,,,,,,,,,,,,,,,,,,,,,,,,
,,,,,,6155752fd8e4f079cb44557d,62c539dd7b979cb36aef82e3,2022-07-06_09h30.59.682,Colour_Asymmetry_Pilot,2022.1.3,Win32,60.44122091,62c50e9c1127f2cd403a315f,,,,,,,,,,,,,,,,,,,,twoone,,-3,1.6329,,,,,,,,,,,,,,,,,,,,,,,,,,,,,,,,,,"[-0.4668,-0.8746,-0.2942]","[-0.4902000000000001,0.2704,-0.45899999999999996]",-94,29,1,0,0,response7disk,5,-11,1,0,0,rectangle,5,-11,1,0,0,,2,0.0022,0,5,-11,1,0,0,0,14,14,65,1,65,first,,,,,,,,,,,,,,,,,,,,,,,,,,,,,,,,,,,,,,,,,,,,,,,,,,,,,,,,,,,,,,,,,,,,,,,,
,,,,,,6155752fd8e4f079cb44557d,62c539dd7b979cb36aef82e3,2022-07-06_09h30.59.682,Colour_Asymmetry_Pilot,2022.1.3,Win32,60.44122091,62c50e9c1127f2cd403a315f,,,,,,,,,,,,,,,,,,,,fourthree,,-4,0.7164,,,,,,,,,,,,,,,,,,,,,,,,,,,,,,,,,,"[-0.06680000000000008,-0.45100000000000007,-0.906]","[-0.4902000000000001,0.2704,-0.45899999999999996]",-56,77,1,0,0,response7disk,-6,-11,1,0,0,rectangle,-6,-11,1,0,0,,3,0.0012,0,-6,-11,1,0,0,0,15,15,153,1,72,second,,,,,,,,,,,,,,,,,,,,,,,,,,,,,,,,,,,,,,,,,,,,,,,,,,,,,,,,,,,,,,,,,,,,,,,,
,,,,,,6155752fd8e4f079cb44557d,62c539dd7b979cb36aef82e3,2022-07-06_09h30.59.682,Colour_Asymmetry_Pilot,2022.1.3,Win32,60.44122091,62c50e9c1127f2cd403a315f,,,,,,,,,,,,,,,,,,,,twoone,,4,0.6666,,,,,,,,,,,,,,,,,,,,,,,,,,,,,,,,,,"[-0.4668,-0.8746,-0.2942]","[-0.34920000000000007,-0.702,-0.5216]",49,85,1,0,0,response1disk,15,-1,1,0,0,rectangle,15,-1,1,0,0,,3,0.0003,0,15,-1,1,0,0,0,16,16,43,1,43,first,,,,,,,,,,,,,,,,,,,,,,,,,,,,,,,,,,,,,,,,,,,,,,,,,,,,,,,,,,,,,,,,,,,,,,,,
,,,,,,6155752fd8e4f079cb44557d,62c539dd7b979cb36aef82e3,2022-07-06_09h30.59.682,Colour_Asymmetry_Pilot,2022.1.3,Win32,60.44122091,62c50e9c1127f2cd403a315f,,,,,,,,,,,,,,,,,,,,threefour,,-3,0.8113,,,,,,,,,,,,,,,,,,,,,,,,,,,,,,,,,,"[-0.4668,-0.8746,-0.2942]","[-0.4902000000000001,0.2704,-0.45899999999999996]",-74,35,1,0,0,response7disk,-3,-6,1,0,0,rectangle,-3,-6,1,0,0,,3,0.0003,0,-3,-6,1,0,0,0,17,17,106,1,25,second,,,,,,,,,,,,,,,,,,,,,,,,,,,,,,,,,,,,,,,,,,,,,,,,,,,,,,,,,,,,,,,,,,,,,,,,
