trials.thisRepN,trials.thisTrialN,trials.thisN,trials.thisIndex,trials.ran,Colourcodes,participant,session,date,expName,psychopyVersion,OS,frameRate,study_id,trials_4.thisRepN,trials_4.thisTrialN,trials_4.thisN,trials_4.thisIndex,trials_4.ran,StimulusPos,key_resp.keys,key_resp.rt,key_resp_2.keys,key_resp_2.rt,key_resp_15.keys,key_resp_15.rt,key_resp_17.keys,key_resp_17.rt,key_resp_9.keys,key_resp_9.rt,key_resp_10.keys,key_resp_10.rt,Circle1_col,Ecc,Circle2_col,similarity,response_time,mouse_5.x,mouse_5.y,mouse_5.leftButton,mouse_5.midButton,mouse_5.rightButton,mouse_5.clicked_name,mouse_10.x,mouse_10.y,mouse_10.leftButton,mouse_10.midButton,mouse_10.rightButton,mouse_10.clicked_name,mouse_7.x,mouse_7.y,mouse_7.leftButton,mouse_7.midButton,mouse_7.rightButton,catchnumberprac,mouse_6.x,mouse_6.y,mouse_6.leftButton,mouse_6.midButton,mouse_6.rightButton,duringprac.thisRepN,duringprac.thisTrialN,duringprac.thisN,duringprac.thisIndex,duringprac.ran,mouse_7.clicked_name,catchprac,mouse_6.clicked_name,key_resp_22.keys,key_resp_22.rt,Circle1_colour,Circle2_colour,mouse.x,mouse.y,mouse.leftButton,mouse.midButton,mouse.rightButton,mouse.clicked_name,mouse_2.x,mouse_2.y,mouse_2.leftButton,mouse_2.midButton,mouse_2.rightButton,mouse_2.clicked_name,mouse_3.x,mouse_3.y,mouse_3.leftButton,mouse_3.midButton,mouse_3.rightButton,catchresponse,catchnumber,response_time_catch,Catch,mouse_11.x,mouse_11.y,mouse_11.leftButton,mouse_11.midButton,mouse_11.rightButton,trials_2.thisRepN,trials_2.thisTrialN,trials_2.thisN,trials_2.thisIndex,trials_2.ran,Colourpair,Temporder,mouse_3.clicked_name,mouse_11.clicked_name,trials_3.thisRepN,trials_3.thisTrialN,trials_3.thisN,trials_3.thisIndex,trials_3.ran,key_resp_instr_Ishi.keys,key_resp_instr_Ishi.rt,Ishi_trial_keyresp.keys,Ishi_textbox.text,Ishi_mouse.x,Ishi_mouse.y,Ishi_mouse.leftButton,Ishi_mouse.midButton,Ishi_mouse.rightButton,Ishi_mouse.clicked_name,Ishi_loop.thisRepN,Ishi_loop.thisTrialN,Ishi_loop.thisN,Ishi_loop.thisIndex,Ishi_loop.ran,imageaddress,textbox.text,mouse_4.x,mouse_4.y,mouse_4.leftButton,mouse_4.midButton,mouse_4.rightButton,mouse_4.clicked_name,textbox_2.text,mouse_8.x,mouse_8.y,mouse_8.leftButton,mouse_8.midButton,mouse_8.rightButton,mouse_8.clicked_name,textbox_3.text,mouse_9.x,mouse_9.y,mouse_9.leftButton,mouse_9.midButton,mouse_9.rightButton,mouse_9.clicked_name,textbox_4.text,mouse_12.x,mouse_12.y,mouse_12.leftButton,mouse_12.midButton,mouse_12.rightButton,mouse_12.clicked_name,textbox_5.text,mouse_13.x,mouse_13.y,mouse_13.leftButton,mouse_13.midButton,mouse_13.rightButton,mouse_13.clicked_name,textbox_6.text,mouse_14.x,mouse_14.y,mouse_14.leftButton,mouse_14.midButton,mouse_14.rightButton,mouse_14.clicked_name,textbox_7.text,mouse_15.x,mouse_15.y,mouse_15.leftButton,mouse_15.midButton,mouse_15.rightButton,mouse_15.clicked_name
0,0,0,32,1,,6145fd744ef9af2c44486e81,62c53b6ff6aa0dcafb182adb,2022-07-06_09h36.58.030,Colour_Asymmetry_Pilot,2022.1.3,Win32,60.67224851,62c50e9c1127f2cd403a315f,,,,,,,,,,,,,,,,,,,,,,,,,,,,,,,,,,,,,,,,,,,,,,,,,,,,,,,,,,,,,,,,,,,,,,,,,,,,,,,,,,,,,,,,,,,,,,,,,,,,,,,,,,,,,,,,,,,,,,,,,,,,,,,,,,,,,,,,,,,,,,,,,,,,,,,,,,,,,,,,,,,
0,1,1,22,1,,6145fd744ef9af2c44486e81,62c53b6ff6aa0dcafb182adb,2022-07-06_09h36.58.030,Colour_Asymmetry_Pilot,2022.1.3,Win32,60.67224851,62c50e9c1127f2cd403a315f,,,,,,,,,,,,,,,,,,,,,,,,,,,,,,,,,,,,,,,,,,,,,,,,,,,,,,,,,,,,,,,,,,,,,,,,,,,,,,,,,,,,,,,,,,,,,,,,,,,,,,,,,,,,,,,,,,,,,,,,,,,,,,,,,,,,,,,,,,,,,,,,,,,,,,,,,,,,,,,,,,,
0,2,2,71,1,,6145fd744ef9af2c44486e81,62c53b6ff6aa0dcafb182adb,2022-07-06_09h36.58.030,Colour_Asymmetry_Pilot,2022.1.3,Win32,60.67224851,62c50e9c1127f2cd403a315f,,,,,,,,,,,,,,,,,,,,,,,,,,,,,,,,,,,,,,,,,,,,,,,,,,,,,,,,,,,,,,,,,,,,,,,,,,,,,,,,,,,,,,,,,,,,,,,,,,,,,,,,,,,,,,,,,,,,,,,,,,,,,,,,,,,,,,,,,,,,,,,,,,,,,,,,,,,,,,,,,,,
0,3,3,43,1,,6145fd744ef9af2c44486e81,62c53b6ff6aa0dcafb182adb,2022-07-06_09h36.58.030,Colour_Asymmetry_Pilot,2022.1.3,Win32,60.67224851,62c50e9c1127f2cd403a315f,,,,,,,,,,,,,,,,,,,,,,,,,,,,,,,,,,,,,,,,,,,,,,,,,,,,,,,,,,,,,,,,,,,,,,,,,,,,,,,,,,,,,,,,,,,,,,,,,,,,,,,,,,,,,,,,,,,,,,,,,,,,,,,,,,,,,,,,,,,,,,,,,,,,,,,,,,,,,,,,,,,
0,4,4,18,1,,6145fd744ef9af2c44486e81,62c53b6ff6aa0dcafb182adb,2022-07-06_09h36.58.030,Colour_Asymmetry_Pilot,2022.1.3,Win32,60.67224851,62c50e9c1127f2cd403a315f,,,,,,,,,,,,,,,,,,,,,,,,,,,,,,,,,,,,,,,,,,,,,,,,,,,,,,,,,,,,,,,,,,,,,,,,,,,,,,,,,,,,,,,,,,,,,,,,,,,,,,,,,,,,,,,,,,,,,,,,,,,,,,,,,,,,,,,,,,,,,,,,,,,,,,,,,,,,,,,,,,,
0,5,5,45,1,,6145fd744ef9af2c44486e81,62c53b6ff6aa0dcafb182adb,2022-07-06_09h36.58.030,Colour_Asymmetry_Pilot,2022.1.3,Win32,60.67224851,62c50e9c1127f2cd403a315f,,,,,,,,,,,,,,,,,,,,,,,,,,,,,,,,,,,,,,,,,,,,,,,,,,,,,,,,,,,,,,,,,,,,,,,,,,,,,,,,,,,,,,,,,,,,,,,,,,,,,,,,,,,,,,,,,,,,,,,,,,,,,,,,,,,,,,,,,,,,,,,,,,,,,,,,,,,,,,,,,,,
0,6,6,49,1,,6145fd744ef9af2c44486e81,62c53b6ff6aa0dcafb182adb,2022-07-06_09h36.58.030,Colour_Asymmetry_Pilot,2022.1.3,Win32,60.67224851,62c50e9c1127f2cd403a315f,,,,,,,,,,,,,,,,,,,,,,,,,,,,,,,,,,,,,,,,,,,,,,,,,,,,,,,,,,,,,,,,,,,,,,,,,,,,,,,,,,,,,,,,,,,,,,,,,,,,,,,,,,,,,,,,,,,,,,,,,,,,,,,,,,,,,,,,,,,,,,,,,,,,,,,,,,,,,,,,,,,
0,7,7,51,1,,6145fd744ef9af2c44486e81,62c53b6ff6aa0dcafb182adb,2022-07-06_09h36.58.030,Colour_Asymmetry_Pilot,2022.1.3,Win32,60.67224851,62c50e9c1127f2cd403a315f,,,,,,,,,,,,,,,,,,,,,,,,,,,,,,,,,,,,,,,,,,,,,,,,,,,,,,,,,,,,,,,,,,,,,,,,,,,,,,,,,,,,,,,,,,,,,,,,,,,,,,,,,,,,,,,,,,,,,,,,,,,,,,,,,,,,,,,,,,,,,,,,,,,,,,,,,,,,,,,,,,,
0,8,8,69,1,,6145fd744ef9af2c44486e81,62c53b6ff6aa0dcafb182adb,2022-07-06_09h36.58.030,Colour_Asymmetry_Pilot,2022.1.3,Win32,60.67224851,62c50e9c1127f2cd403a315f,,,,,,,,,,,,,,,,,,,,,,,,,,,,,,,,,,,,,,,,,,,,,,,,,,,,,,,,,,,,,,,,,,,,,,,,,,,,,,,,,,,,,,,,,,,,,,,,,,,,,,,,,,,,,,,,,,,,,,,,,,,,,,,,,,,,,,,,,,,,,,,,,,,,,,,,,,,,,,,,,,,
0,9,9,10,1,,6145fd744ef9af2c44486e81,62c53b6ff6aa0dcafb182adb,2022-07-06_09h36.58.030,Colour_Asymmetry_Pilot,2022.1.3,Win32,60.67224851,62c50e9c1127f2cd403a315f,,,,,,,,,,,,,,,,,,,,,,,,,,,,,,,,,,,,,,,,,,,,,,,,,,,,,,,,,,,,,,,,,,,,,,,,,,,,,,,,,,,,,,,,,,,,,,,,,,,,,,,,,,,,,,,,,,,,,,,,,,,,,,,,,,,,,,,,,,,,,,,,,,,,,,,,,,,,,,,,,,,
0,10,10,62,1,,6145fd744ef9af2c44486e81,62c53b6ff6aa0dcafb182adb,2022-07-06_09h36.58.030,Colour_Asymmetry_Pilot,2022.1.3,Win32,60.67224851,62c50e9c1127f2cd403a315f,,,,,,,,,,,,,,,,,,,,,,,,,,,,,,,,,,,,,,,,,,,,,,,,,,,,,,,,,,,,,,,,,,,,,,,,,,,,,,,,,,,,,,,,,,,,,,,,,,,,,,,,,,,,,,,,,,,,,,,,,,,,,,,,,,,,,,,,,,,,,,,,,,,,,,,,,,,,,,,,,,,
0,11,11,75,1,,6145fd744ef9af2c44486e81,62c53b6ff6aa0dcafb182adb,2022-07-06_09h36.58.030,Colour_Asymmetry_Pilot,2022.1.3,Win32,60.67224851,62c50e9c1127f2cd403a315f,,,,,,,,,,,,,,,,,,,,,,,,,,,,,,,,,,,,,,,,,,,,,,,,,,,,,,,,,,,,,,,,,,,,,,,,,,,,,,,,,,,,,,,,,,,,,,,,,,,,,,,,,,,,,,,,,,,,,,,,,,,,,,,,,,,,,,,,,,,,,,,,,,,,,,,,,,,,,,,,,,,
0,12,12,34,1,,6145fd744ef9af2c44486e81,62c53b6ff6aa0dcafb182adb,2022-07-06_09h36.58.030,Colour_Asymmetry_Pilot,2022.1.3,Win32,60.67224851,62c50e9c1127f2cd403a315f,,,,,,,,,,,,,,,,,,,,,,,,,,,,,,,,,,,,,,,,,,,,,,,,,,,,,,,,,,,,,,,,,,,,,,,,,,,,,,,,,,,,,,,,,,,,,,,,,,,,,,,,,,,,,,,,,,,,,,,,,,,,,,,,,,,,,,,,,,,,,,,,,,,,,,,,,,,,,,,,,,,
0,13,13,80,1,,6145fd744ef9af2c44486e81,62c53b6ff6aa0dcafb182adb,2022-07-06_09h36.58.030,Colour_Asymmetry_Pilot,2022.1.3,Win32,60.67224851,62c50e9c1127f2cd403a315f,,,,,,,,,,,,,,,,,,,,,,,,,,,,,,,,,,,,,,,,,,,,,,,,,,,,,,,,,,,,,,,,,,,,,,,,,,,,,,,,,,,,,,,,,,,,,,,,,,,,,,,,,,,,,,,,,,,,,,,,,,,,,,,,,,,,,,,,,,,,,,,,,,,,,,,,,,,,,,,,,,,
0,14,14,14,1,,6145fd744ef9af2c44486e81,62c53b6ff6aa0dcafb182adb,2022-07-06_09h36.58.030,Colour_Asymmetry_Pilot,2022.1.3,Win32,60.67224851,62c50e9c1127f2cd403a315f,,,,,,,,,,,,,,,,,,,,,,,,,,,,,,,,,,,,,,,,,,,,,,,,,,,,,,,,,,,,,,,,,,,,,,,,,,,,,,,,,,,,,,,,,,,,,,,,,,,,,,,,,,,,,,,,,,,,,,,,,,,,,,,,,,,,,,,,,,,,,,,,,,,,,,,,,,,,,,,,,,,
0,15,15,23,1,,6145fd744ef9af2c44486e81,62c53b6ff6aa0dcafb182adb,2022-07-06_09h36.58.030,Colour_Asymmetry_Pilot,2022.1.3,Win32,60.67224851,62c50e9c1127f2cd403a315f,,,,,,,,,,,,,,,,,,,,,,,,,,,,,,,,,,,,,,,,,,,,,,,,,,,,,,,,,,,,,,,,,,,,,,,,,,,,,,,,,,,,,,,,,,,,,,,,,,,,,,,,,,,,,,,,,,,,,,,,,,,,,,,,,,,,,,,,,,,,,,,,,,,,,,,,,,,,,,,,,,,
0,16,16,70,1,,6145fd744ef9af2c44486e81,62c53b6ff6aa0dcafb182adb,2022-07-06_09h36.58.030,Colour_Asymmetry_Pilot,2022.1.3,Win32,60.67224851,62c50e9c1127f2cd403a315f,,,,,,,,,,,,,,,,,,,,,,,,,,,,,,,,,,,,,,,,,,,,,,,,,,,,,,,,,,,,,,,,,,,,,,,,,,,,,,,,,,,,,,,,,,,,,,,,,,,,,,,,,,,,,,,,,,,,,,,,,,,,,,,,,,,,,,,,,,,,,,,,,,,,,,,,,,,,,,,,,,,
0,17,17,56,1,,6145fd744ef9af2c44486e81,62c53b6ff6aa0dcafb182adb,2022-07-06_09h36.58.030,Colour_Asymmetry_Pilot,2022.1.3,Win32,60.67224851,62c50e9c1127f2cd403a315f,,,,,,,,,,,,,,,,,,,,,,,,,,,,,,,,,,,,,,,,,,,,,,,,,,,,,,,,,,,,,,,,,,,,,,,,,,,,,,,,,,,,,,,,,,,,,,,,,,,,,,,,,,,,,,,,,,,,,,,,,,,,,,,,,,,,,,,,,,,,,,,,,,,,,,,,,,,,,,,,,,,
0,18,18,50,1,,6145fd744ef9af2c44486e81,62c53b6ff6aa0dcafb182adb,2022-07-06_09h36.58.030,Colour_Asymmetry_Pilot,2022.1.3,Win32,60.67224851,62c50e9c1127f2cd403a315f,,,,,,,,,,,,,,,,,,,,,,,,,,,,,,,,,,,,,,,,,,,,,,,,,,,,,,,,,,,,,,,,,,,,,,,,,,,,,,,,,,,,,,,,,,,,,,,,,,,,,,,,,,,,,,,,,,,,,,,,,,,,,,,,,,,,,,,,,,,,,,,,,,,,,,,,,,,,,,,,,,,
0,19,19,55,1,,6145fd744ef9af2c44486e81,62c53b6ff6aa0dcafb182adb,2022-07-06_09h36.58.030,Colour_Asymmetry_Pilot,2022.1.3,Win32,60.67224851,62c50e9c1127f2cd403a315f,,,,,,,,,,,,,,,,,,,,,,,,,,,,,,,,,,,,,,,,,,,,,,,,,,,,,,,,,,,,,,,,,,,,,,,,,,,,,,,,,,,,,,,,,,,,,,,,,,,,,,,,,,,,,,,,,,,,,,,,,,,,,,,,,,,,,,,,,,,,,,,,,,,,,,,,,,,,,,,,,,,
0,20,20,78,1,,6145fd744ef9af2c44486e81,62c53b6ff6aa0dcafb182adb,2022-07-06_09h36.58.030,Colour_Asymmetry_Pilot,2022.1.3,Win32,60.67224851,62c50e9c1127f2cd403a315f,,,,,,,,,,,,,,,,,,,,,,,,,,,,,,,,,,,,,,,,,,,,,,,,,,,,,,,,,,,,,,,,,,,,,,,,,,,,,,,,,,,,,,,,,,,,,,,,,,,,,,,,,,,,,,,,,,,,,,,,,,,,,,,,,,,,,,,,,,,,,,,,,,,,,,,,,,,,,,,,,,,
0,21,21,3,1,,6145fd744ef9af2c44486e81,62c53b6ff6aa0dcafb182adb,2022-07-06_09h36.58.030,Colour_Asymmetry_Pilot,2022.1.3,Win32,60.67224851,62c50e9c1127f2cd403a315f,,,,,,,,,,,,,,,,,,,,,,,,,,,,,,,,,,,,,,,,,,,,,,,,,,,,,,,,,,,,,,,,,,,,,,,,,,,,,,,,,,,,,,,,,,,,,,,,,,,,,,,,,,,,,,,,,,,,,,,,,,,,,,,,,,,,,,,,,,,,,,,,,,,,,,,,,,,,,,,,,,,
0,22,22,4,1,,6145fd744ef9af2c44486e81,62c53b6ff6aa0dcafb182adb,2022-07-06_09h36.58.030,Colour_Asymmetry_Pilot,2022.1.3,Win32,60.67224851,62c50e9c1127f2cd403a315f,,,,,,,,,,,,,,,,,,,,,,,,,,,,,,,,,,,,,,,,,,,,,,,,,,,,,,,,,,,,,,,,,,,,,,,,,,,,,,,,,,,,,,,,,,,,,,,,,,,,,,,,,,,,,,,,,,,,,,,,,,,,,,,,,,,,,,,,,,,,,,,,,,,,,,,,,,,,,,,,,,,
0,23,23,82,1,,6145fd744ef9af2c44486e81,62c53b6ff6aa0dcafb182adb,2022-07-06_09h36.58.030,Colour_Asymmetry_Pilot,2022.1.3,Win32,60.67224851,62c50e9c1127f2cd403a315f,,,,,,,,,,,,,,,,,,,,,,,,,,,,,,,,,,,,,,,,,,,,,,,,,,,,,,,,,,,,,,,,,,,,,,,,,,,,,,,,,,,,,,,,,,,,,,,,,,,,,,,,,,,,,,,,,,,,,,,,,,,,,,,,,,,,,,,,,,,,,,,,,,,,,,,,,,,,,,,,,,,
0,24,24,92,1,,6145fd744ef9af2c44486e81,62c53b6ff6aa0dcafb182adb,2022-07-06_09h36.58.030,Colour_Asymmetry_Pilot,2022.1.3,Win32,60.67224851,62c50e9c1127f2cd403a315f,,,,,,,,,,,,,,,,,,,,,,,,,,,,,,,,,,,,,,,,,,,,,,,,,,,,,,,,,,,,,,,,,,,,,,,,,,,,,,,,,,,,,,,,,,,,,,,,,,,,,,,,,,,,,,,,,,,,,,,,,,,,,,,,,,,,,,,,,,,,,,,,,,,,,,,,,,,,,,,,,,,
0,25,25,31,1,,6145fd744ef9af2c44486e81,62c53b6ff6aa0dcafb182adb,2022-07-06_09h36.58.030,Colour_Asymmetry_Pilot,2022.1.3,Win32,60.67224851,62c50e9c1127f2cd403a315f,,,,,,,,,,,,,,,,,,,,,,,,,,,,,,,,,,,,,,,,,,,,,,,,,,,,,,,,,,,,,,,,,,,,,,,,,,,,,,,,,,,,,,,,,,,,,,,,,,,,,,,,,,,,,,,,,,,,,,,,,,,,,,,,,,,,,,,,,,,,,,,,,,,,,,,,,,,,,,,,,,,
0,26,26,60,1,,6145fd744ef9af2c44486e81,62c53b6ff6aa0dcafb182adb,2022-07-06_09h36.58.030,Colour_Asymmetry_Pilot,2022.1.3,Win32,60.67224851,62c50e9c1127f2cd403a315f,,,,,,,,,,,,,,,,,,,,,,,,,,,,,,,,,,,,,,,,,,,,,,,,,,,,,,,,,,,,,,,,,,,,,,,,,,,,,,,,,,,,,,,,,,,,,,,,,,,,,,,,,,,,,,,,,,,,,,,,,,,,,,,,,,,,,,,,,,,,,,,,,,,,,,,,,,,,,,,,,,,
0,27,27,57,1,,6145fd744ef9af2c44486e81,62c53b6ff6aa0dcafb182adb,2022-07-06_09h36.58.030,Colour_Asymmetry_Pilot,2022.1.3,Win32,60.67224851,62c50e9c1127f2cd403a315f,,,,,,,,,,,,,,,,,,,,,,,,,,,,,,,,,,,,,,,,,,,,,,,,,,,,,,,,,,,,,,,,,,,,,,,,,,,,,,,,,,,,,,,,,,,,,,,,,,,,,,,,,,,,,,,,,,,,,,,,,,,,,,,,,,,,,,,,,,,,,,,,,,,,,,,,,,,,,,,,,,,
0,28,28,30,1,,6145fd744ef9af2c44486e81,62c53b6ff6aa0dcafb182adb,2022-07-06_09h36.58.030,Colour_Asymmetry_Pilot,2022.1.3,Win32,60.67224851,62c50e9c1127f2cd403a315f,,,,,,,,,,,,,,,,,,,,,,,,,,,,,,,,,,,,,,,,,,,,,,,,,,,,,,,,,,,,,,,,,,,,,,,,,,,,,,,,,,,,,,,,,,,,,,,,,,,,,,,,,,,,,,,,,,,,,,,,,,,,,,,,,,,,,,,,,,,,,,,,,,,,,,,,,,,,,,,,,,,
0,29,29,54,1,,6145fd744ef9af2c44486e81,62c53b6ff6aa0dcafb182adb,2022-07-06_09h36.58.030,Colour_Asymmetry_Pilot,2022.1.3,Win32,60.67224851,62c50e9c1127f2cd403a315f,,,,,,,,,,,,,,,,,,,,,,,,,,,,,,,,,,,,,,,,,,,,,,,,,,,,,,,,,,,,,,,,,,,,,,,,,,,,,,,,,,,,,,,,,,,,,,,,,,,,,,,,,,,,,,,,,,,,,,,,,,,,,,,,,,,,,,,,,,,,,,,,,,,,,,,,,,,,,,,,,,,
0,30,30,77,1,,6145fd744ef9af2c44486e81,62c53b6ff6aa0dcafb182adb,2022-07-06_09h36.58.030,Colour_Asymmetry_Pilot,2022.1.3,Win32,60.67224851,62c50e9c1127f2cd403a315f,,,,,,,,,,,,,,,,,,,,,,,,,,,,,,,,,,,,,,,,,,,,,,,,,,,,,,,,,,,,,,,,,,,,,,,,,,,,,,,,,,,,,,,,,,,,,,,,,,,,,,,,,,,,,,,,,,,,,,,,,,,,,,,,,,,,,,,,,,,,,,,,,,,,,,,,,,,,,,,,,,,
0,31,31,67,1,,6145fd744ef9af2c44486e81,62c53b6ff6aa0dcafb182adb,2022-07-06_09h36.58.030,Colour_Asymmetry_Pilot,2022.1.3,Win32,60.67224851,62c50e9c1127f2cd403a315f,,,,,,,,,,,,,,,,,,,,,,,,,,,,,,,,,,,,,,,,,,,,,,,,,,,,,,,,,,,,,,,,,,,,,,,,,,,,,,,,,,,,,,,,,,,,,,,,,,,,,,,,,,,,,,,,,,,,,,,,,,,,,,,,,,,,,,,,,,,,,,,,,,,,,,,,,,,,,,,,,,,
0,32,32,13,1,,6145fd744ef9af2c44486e81,62c53b6ff6aa0dcafb182adb,2022-07-06_09h36.58.030,Colour_Asymmetry_Pilot,2022.1.3,Win32,60.67224851,62c50e9c1127f2cd403a315f,,,,,,,,,,,,,,,,,,,,,,,,,,,,,,,,,,,,,,,,,,,,,,,,,,,,,,,,,,,,,,,,,,,,,,,,,,,,,,,,,,,,,,,,,,,,,,,,,,,,,,,,,,,,,,,,,,,,,,,,,,,,,,,,,,,,,,,,,,,,,,,,,,,,,,,,,,,,,,,,,,,
0,33,33,44,1,,6145fd744ef9af2c44486e81,62c53b6ff6aa0dcafb182adb,2022-07-06_09h36.58.030,Colour_Asymmetry_Pilot,2022.1.3,Win32,60.67224851,62c50e9c1127f2cd403a315f,,,,,,,,,,,,,,,,,,,,,,,,,,,,,,,,,,,,,,,,,,,,,,,,,,,,,,,,,,,,,,,,,,,,,,,,,,,,,,,,,,,,,,,,,,,,,,,,,,,,,,,,,,,,,,,,,,,,,,,,,,,,,,,,,,,,,,,,,,,,,,,,,,,,,,,,,,,,,,,,,,,
0,34,34,74,1,,6145fd744ef9af2c44486e81,62c53b6ff6aa0dcafb182adb,2022-07-06_09h36.58.030,Colour_Asymmetry_Pilot,2022.1.3,Win32,60.67224851,62c50e9c1127f2cd403a315f,,,,,,,,,,,,,,,,,,,,,,,,,,,,,,,,,,,,,,,,,,,,,,,,,,,,,,,,,,,,,,,,,,,,,,,,,,,,,,,,,,,,,,,,,,,,,,,,,,,,,,,,,,,,,,,,,,,,,,,,,,,,,,,,,,,,,,,,,,,,,,,,,,,,,,,,,,,,,,,,,,,
0,35,35,8,1,,6145fd744ef9af2c44486e81,62c53b6ff6aa0dcafb182adb,2022-07-06_09h36.58.030,Colour_Asymmetry_Pilot,2022.1.3,Win32,60.67224851,62c50e9c1127f2cd403a315f,,,,,,,,,,,,,,,,,,,,,,,,,,,,,,,,,,,,,,,,,,,,,,,,,,,,,,,,,,,,,,,,,,,,,,,,,,,,,,,,,,,,,,,,,,,,,,,,,,,,,,,,,,,,,,,,,,,,,,,,,,,,,,,,,,,,,,,,,,,,,,,,,,,,,,,,,,,,,,,,,,,
0,36,36,37,1,,6145fd744ef9af2c44486e81,62c53b6ff6aa0dcafb182adb,2022-07-06_09h36.58.030,Colour_Asymmetry_Pilot,2022.1.3,Win32,60.67224851,62c50e9c1127f2cd403a315f,,,,,,,,,,,,,,,,,,,,,,,,,,,,,,,,,,,,,,,,,,,,,,,,,,,,,,,,,,,,,,,,,,,,,,,,,,,,,,,,,,,,,,,,,,,,,,,,,,,,,,,,,,,,,,,,,,,,,,,,,,,,,,,,,,,,,,,,,,,,,,,,,,,,,,,,,,,,,,,,,,,
0,37,37,24,1,,6145fd744ef9af2c44486e81,62c53b6ff6aa0dcafb182adb,2022-07-06_09h36.58.030,Colour_Asymmetry_Pilot,2022.1.3,Win32,60.67224851,62c50e9c1127f2cd403a315f,,,,,,,,,,,,,,,,,,,,,,,,,,,,,,,,,,,,,,,,,,,,,,,,,,,,,,,,,,,,,,,,,,,,,,,,,,,,,,,,,,,,,,,,,,,,,,,,,,,,,,,,,,,,,,,,,,,,,,,,,,,,,,,,,,,,,,,,,,,,,,,,,,,,,,,,,,,,,,,,,,,
0,38,38,11,1,,6145fd744ef9af2c44486e81,62c53b6ff6aa0dcafb182adb,2022-07-06_09h36.58.030,Colour_Asymmetry_Pilot,2022.1.3,Win32,60.67224851,62c50e9c1127f2cd403a315f,,,,,,,,,,,,,,,,,,,,,,,,,,,,,,,,,,,,,,,,,,,,,,,,,,,,,,,,,,,,,,,,,,,,,,,,,,,,,,,,,,,,,,,,,,,,,,,,,,,,,,,,,,,,,,,,,,,,,,,,,,,,,,,,,,,,,,,,,,,,,,,,,,,,,,,,,,,,,,,,,,,
0,39,39,29,1,,6145fd744ef9af2c44486e81,62c53b6ff6aa0dcafb182adb,2022-07-06_09h36.58.030,Colour_Asymmetry_Pilot,2022.1.3,Win32,60.67224851,62c50e9c1127f2cd403a315f,,,,,,,,,,,,,,,,,,,,,,,,,,,,,,,,,,,,,,,,,,,,,,,,,,,,,,,,,,,,,,,,,,,,,,,,,,,,,,,,,,,,,,,,,,,,,,,,,,,,,,,,,,,,,,,,,,,,,,,,,,,,,,,,,,,,,,,,,,,,,,,,,,,,,,,,,,,,,,,,,,,
0,40,40,90,1,,6145fd744ef9af2c44486e81,62c53b6ff6aa0dcafb182adb,2022-07-06_09h36.58.030,Colour_Asymmetry_Pilot,2022.1.3,Win32,60.67224851,62c50e9c1127f2cd403a315f,,,,,,,,,,,,,,,,,,,,,,,,,,,,,,,,,,,,,,,,,,,,,,,,,,,,,,,,,,,,,,,,,,,,,,,,,,,,,,,,,,,,,,,,,,,,,,,,,,,,,,,,,,,,,,,,,,,,,,,,,,,,,,,,,,,,,,,,,,,,,,,,,,,,,,,,,,,,,,,,,,,
0,41,41,15,1,,6145fd744ef9af2c44486e81,62c53b6ff6aa0dcafb182adb,2022-07-06_09h36.58.030,Colour_Asymmetry_Pilot,2022.1.3,Win32,60.67224851,62c50e9c1127f2cd403a315f,,,,,,,,,,,,,,,,,,,,,,,,,,,,,,,,,,,,,,,,,,,,,,,,,,,,,,,,,,,,,,,,,,,,,,,,,,,,,,,,,,,,,,,,,,,,,,,,,,,,,,,,,,,,,,,,,,,,,,,,,,,,,,,,,,,,,,,,,,,,,,,,,,,,,,,,,,,,,,,,,,,
0,42,42,72,1,,6145fd744ef9af2c44486e81,62c53b6ff6aa0dcafb182adb,2022-07-06_09h36.58.030,Colour_Asymmetry_Pilot,2022.1.3,Win32,60.67224851,62c50e9c1127f2cd403a315f,,,,,,,,,,,,,,,,,,,,,,,,,,,,,,,,,,,,,,,,,,,,,,,,,,,,,,,,,,,,,,,,,,,,,,,,,,,,,,,,,,,,,,,,,,,,,,,,,,,,,,,,,,,,,,,,,,,,,,,,,,,,,,,,,,,,,,,,,,,,,,,,,,,,,,,,,,,,,,,,,,,
0,43,43,52,1,,6145fd744ef9af2c44486e81,62c53b6ff6aa0dcafb182adb,2022-07-06_09h36.58.030,Colour_Asymmetry_Pilot,2022.1.3,Win32,60.67224851,62c50e9c1127f2cd403a315f,,,,,,,,,,,,,,,,,,,,,,,,,,,,,,,,,,,,,,,,,,,,,,,,,,,,,,,,,,,,,,,,,,,,,,,,,,,,,,,,,,,,,,,,,,,,,,,,,,,,,,,,,,,,,,,,,,,,,,,,,,,,,,,,,,,,,,,,,,,,,,,,,,,,,,,,,,,,,,,,,,,
0,44,44,27,1,,6145fd744ef9af2c44486e81,62c53b6ff6aa0dcafb182adb,2022-07-06_09h36.58.030,Colour_Asymmetry_Pilot,2022.1.3,Win32,60.67224851,62c50e9c1127f2cd403a315f,,,,,,,,,,,,,,,,,,,,,,,,,,,,,,,,,,,,,,,,,,,,,,,,,,,,,,,,,,,,,,,,,,,,,,,,,,,,,,,,,,,,,,,,,,,,,,,,,,,,,,,,,,,,,,,,,,,,,,,,,,,,,,,,,,,,,,,,,,,,,,,,,,,,,,,,,,,,,,,,,,,
0,45,45,20,1,,6145fd744ef9af2c44486e81,62c53b6ff6aa0dcafb182adb,2022-07-06_09h36.58.030,Colour_Asymmetry_Pilot,2022.1.3,Win32,60.67224851,62c50e9c1127f2cd403a315f,,,,,,,,,,,,,,,,,,,,,,,,,,,,,,,,,,,,,,,,,,,,,,,,,,,,,,,,,,,,,,,,,,,,,,,,,,,,,,,,,,,,,,,,,,,,,,,,,,,,,,,,,,,,,,,,,,,,,,,,,,,,,,,,,,,,,,,,,,,,,,,,,,,,,,,,,,,,,,,,,,,
0,46,46,35,1,,6145fd744ef9af2c44486e81,62c53b6ff6aa0dcafb182adb,2022-07-06_09h36.58.030,Colour_Asymmetry_Pilot,2022.1.3,Win32,60.67224851,62c50e9c1127f2cd403a315f,,,,,,,,,,,,,,,,,,,,,,,,,,,,,,,,,,,,,,,,,,,,,,,,,,,,,,,,,,,,,,,,,,,,,,,,,,,,,,,,,,,,,,,,,,,,,,,,,,,,,,,,,,,,,,,,,,,,,,,,,,,,,,,,,,,,,,,,,,,,,,,,,,,,,,,,,,,,,,,,,,,
0,47,47,28,1,,6145fd744ef9af2c44486e81,62c53b6ff6aa0dcafb182adb,2022-07-06_09h36.58.030,Colour_Asymmetry_Pilot,2022.1.3,Win32,60.67224851,62c50e9c1127f2cd403a315f,,,,,,,,,,,,,,,,,,,,,,,,,,,,,,,,,,,,,,,,,,,,,,,,,,,,,,,,,,,,,,,,,,,,,,,,,,,,,,,,,,,,,,,,,,,,,,,,,,,,,,,,,,,,,,,,,,,,,,,,,,,,,,,,,,,,,,,,,,,,,,,,,,,,,,,,,,,,,,,,,,,
0,48,48,2,1,,6145fd744ef9af2c44486e81,62c53b6ff6aa0dcafb182adb,2022-07-06_09h36.58.030,Colour_Asymmetry_Pilot,2022.1.3,Win32,60.67224851,62c50e9c1127f2cd403a315f,,,,,,,,,,,,,,,,,,,,,,,,,,,,,,,,,,,,,,,,,,,,,,,,,,,,,,,,,,,,,,,,,,,,,,,,,,,,,,,,,,,,,,,,,,,,,,,,,,,,,,,,,,,,,,,,,,,,,,,,,,,,,,,,,,,,,,,,,,,,,,,,,,,,,,,,,,,,,,,,,,,
0,49,49,36,1,,6145fd744ef9af2c44486e81,62c53b6ff6aa0dcafb182adb,2022-07-06_09h36.58.030,Colour_Asymmetry_Pilot,2022.1.3,Win32,60.67224851,62c50e9c1127f2cd403a315f,,,,,,,,,,,,,,,,,,,,,,,,,,,,,,,,,,,,,,,,,,,,,,,,,,,,,,,,,,,,,,,,,,,,,,,,,,,,,,,,,,,,,,,,,,,,,,,,,,,,,,,,,,,,,,,,,,,,,,,,,,,,,,,,,,,,,,,,,,,,,,,,,,,,,,,,,,,,,,,,,,,
0,50,50,41,1,,6145fd744ef9af2c44486e81,62c53b6ff6aa0dcafb182adb,2022-07-06_09h36.58.030,Colour_Asymmetry_Pilot,2022.1.3,Win32,60.67224851,62c50e9c1127f2cd403a315f,,,,,,,,,,,,,,,,,,,,,,,,,,,,,,,,,,,,,,,,,,,,,,,,,,,,,,,,,,,,,,,,,,,,,,,,,,,,,,,,,,,,,,,,,,,,,,,,,,,,,,,,,,,,,,,,,,,,,,,,,,,,,,,,,,,,,,,,,,,,,,,,,,,,,,,,,,,,,,,,,,,
0,51,51,25,1,,6145fd744ef9af2c44486e81,62c53b6ff6aa0dcafb182adb,2022-07-06_09h36.58.030,Colour_Asymmetry_Pilot,2022.1.3,Win32,60.67224851,62c50e9c1127f2cd403a315f,,,,,,,,,,,,,,,,,,,,,,,,,,,,,,,,,,,,,,,,,,,,,,,,,,,,,,,,,,,,,,,,,,,,,,,,,,,,,,,,,,,,,,,,,,,,,,,,,,,,,,,,,,,,,,,,,,,,,,,,,,,,,,,,,,,,,,,,,,,,,,,,,,,,,,,,,,,,,,,,,,,
0,52,52,58,1,,6145fd744ef9af2c44486e81,62c53b6ff6aa0dcafb182adb,2022-07-06_09h36.58.030,Colour_Asymmetry_Pilot,2022.1.3,Win32,60.67224851,62c50e9c1127f2cd403a315f,,,,,,,,,,,,,,,,,,,,,,,,,,,,,,,,,,,,,,,,,,,,,,,,,,,,,,,,,,,,,,,,,,,,,,,,,,,,,,,,,,,,,,,,,,,,,,,,,,,,,,,,,,,,,,,,,,,,,,,,,,,,,,,,,,,,,,,,,,,,,,,,,,,,,,,,,,,,,,,,,,,
0,53,53,40,1,,6145fd744ef9af2c44486e81,62c53b6ff6aa0dcafb182adb,2022-07-06_09h36.58.030,Colour_Asymmetry_Pilot,2022.1.3,Win32,60.67224851,62c50e9c1127f2cd403a315f,,,,,,,,,,,,,,,,,,,,,,,,,,,,,,,,,,,,,,,,,,,,,,,,,,,,,,,,,,,,,,,,,,,,,,,,,,,,,,,,,,,,,,,,,,,,,,,,,,,,,,,,,,,,,,,,,,,,,,,,,,,,,,,,,,,,,,,,,,,,,,,,,,,,,,,,,,,,,,,,,,,
0,54,54,66,1,,6145fd744ef9af2c44486e81,62c53b6ff6aa0dcafb182adb,2022-07-06_09h36.58.030,Colour_Asymmetry_Pilot,2022.1.3,Win32,60.67224851,62c50e9c1127f2cd403a315f,,,,,,,,,,,,,,,,,,,,,,,,,,,,,,,,,,,,,,,,,,,,,,,,,,,,,,,,,,,,,,,,,,,,,,,,,,,,,,,,,,,,,,,,,,,,,,,,,,,,,,,,,,,,,,,,,,,,,,,,,,,,,,,,,,,,,,,,,,,,,,,,,,,,,,,,,,,,,,,,,,,
0,55,55,26,1,,6145fd744ef9af2c44486e81,62c53b6ff6aa0dcafb182adb,2022-07-06_09h36.58.030,Colour_Asymmetry_Pilot,2022.1.3,Win32,60.67224851,62c50e9c1127f2cd403a315f,,,,,,,,,,,,,,,,,,,,,,,,,,,,,,,,,,,,,,,,,,,,,,,,,,,,,,,,,,,,,,,,,,,,,,,,,,,,,,,,,,,,,,,,,,,,,,,,,,,,,,,,,,,,,,,,,,,,,,,,,,,,,,,,,,,,,,,,,,,,,,,,,,,,,,,,,,,,,,,,,,,
0,56,56,84,1,,6145fd744ef9af2c44486e81,62c53b6ff6aa0dcafb182adb,2022-07-06_09h36.58.030,Colour_Asymmetry_Pilot,2022.1.3,Win32,60.67224851,62c50e9c1127f2cd403a315f,,,,,,,,,,,,,,,,,,,,,,,,,,,,,,,,,,,,,,,,,,,,,,,,,,,,,,,,,,,,,,,,,,,,,,,,,,,,,,,,,,,,,,,,,,,,,,,,,,,,,,,,,,,,,,,,,,,,,,,,,,,,,,,,,,,,,,,,,,,,,,,,,,,,,,,,,,,,,,,,,,,
0,57,57,79,1,,6145fd744ef9af2c44486e81,62c53b6ff6aa0dcafb182adb,2022-07-06_09h36.58.030,Colour_Asymmetry_Pilot,2022.1.3,Win32,60.67224851,62c50e9c1127f2cd403a315f,,,,,,,,,,,,,,,,,,,,,,,,,,,,,,,,,,,,,,,,,,,,,,,,,,,,,,,,,,,,,,,,,,,,,,,,,,,,,,,,,,,,,,,,,,,,,,,,,,,,,,,,,,,,,,,,,,,,,,,,,,,,,,,,,,,,,,,,,,,,,,,,,,,,,,,,,,,,,,,,,,,
0,58,58,91,1,,6145fd744ef9af2c44486e81,62c53b6ff6aa0dcafb182adb,2022-07-06_09h36.58.030,Colour_Asymmetry_Pilot,2022.1.3,Win32,60.67224851,62c50e9c1127f2cd403a315f,,,,,,,,,,,,,,,,,,,,,,,,,,,,,,,,,,,,,,,,,,,,,,,,,,,,,,,,,,,,,,,,,,,,,,,,,,,,,,,,,,,,,,,,,,,,,,,,,,,,,,,,,,,,,,,,,,,,,,,,,,,,,,,,,,,,,,,,,,,,,,,,,,,,,,,,,,,,,,,,,,,
0,59,59,16,1,,6145fd744ef9af2c44486e81,62c53b6ff6aa0dcafb182adb,2022-07-06_09h36.58.030,Colour_Asymmetry_Pilot,2022.1.3,Win32,60.67224851,62c50e9c1127f2cd403a315f,,,,,,,,,,,,,,,,,,,,,,,,,,,,,,,,,,,,,,,,,,,,,,,,,,,,,,,,,,,,,,,,,,,,,,,,,,,,,,,,,,,,,,,,,,,,,,,,,,,,,,,,,,,,,,,,,,,,,,,,,,,,,,,,,,,,,,,,,,,,,,,,,,,,,,,,,,,,,,,,,,,
0,60,60,6,1,,6145fd744ef9af2c44486e81,62c53b6ff6aa0dcafb182adb,2022-07-06_09h36.58.030,Colour_Asymmetry_Pilot,2022.1.3,Win32,60.67224851,62c50e9c1127f2cd403a315f,,,,,,,,,,,,,,,,,,,,,,,,,,,,,,,,,,,,,,,,,,,,,,,,,,,,,,,,,,,,,,,,,,,,,,,,,,,,,,,,,,,,,,,,,,,,,,,,,,,,,,,,,,,,,,,,,,,,,,,,,,,,,,,,,,,,,,,,,,,,,,,,,,,,,,,,,,,,,,,,,,,
0,61,61,73,1,,6145fd744ef9af2c44486e81,62c53b6ff6aa0dcafb182adb,2022-07-06_09h36.58.030,Colour_Asymmetry_Pilot,2022.1.3,Win32,60.67224851,62c50e9c1127f2cd403a315f,,,,,,,,,,,,,,,,,,,,,,,,,,,,,,,,,,,,,,,,,,,,,,,,,,,,,,,,,,,,,,,,,,,,,,,,,,,,,,,,,,,,,,,,,,,,,,,,,,,,,,,,,,,,,,,,,,,,,,,,,,,,,,,,,,,,,,,,,,,,,,,,,,,,,,,,,,,,,,,,,,,
0,62,62,39,1,,6145fd744ef9af2c44486e81,62c53b6ff6aa0dcafb182adb,2022-07-06_09h36.58.030,Colour_Asymmetry_Pilot,2022.1.3,Win32,60.67224851,62c50e9c1127f2cd403a315f,,,,,,,,,,,,,,,,,,,,,,,,,,,,,,,,,,,,,,,,,,,,,,,,,,,,,,,,,,,,,,,,,,,,,,,,,,,,,,,,,,,,,,,,,,,,,,,,,,,,,,,,,,,,,,,,,,,,,,,,,,,,,,,,,,,,,,,,,,,,,,,,,,,,,,,,,,,,,,,,,,,
0,63,63,42,1,,6145fd744ef9af2c44486e81,62c53b6ff6aa0dcafb182adb,2022-07-06_09h36.58.030,Colour_Asymmetry_Pilot,2022.1.3,Win32,60.67224851,62c50e9c1127f2cd403a315f,,,,,,,,,,,,,,,,,,,,,,,,,,,,,,,,,,,,,,,,,,,,,,,,,,,,,,,,,,,,,,,,,,,,,,,,,,,,,,,,,,,,,,,,,,,,,,,,,,,,,,,,,,,,,,,,,,,,,,,,,,,,,,,,,,,,,,,,,,,,,,,,,,,,,,,,,,,,,,,,,,,
0,64,64,19,1,,6145fd744ef9af2c44486e81,62c53b6ff6aa0dcafb182adb,2022-07-06_09h36.58.030,Colour_Asymmetry_Pilot,2022.1.3,Win32,60.67224851,62c50e9c1127f2cd403a315f,,,,,,,,,,,,,,,,,,,,,,,,,,,,,,,,,,,,,,,,,,,,,,,,,,,,,,,,,,,,,,,,,,,,,,,,,,,,,,,,,,,,,,,,,,,,,,,,,,,,,,,,,,,,,,,,,,,,,,,,,,,,,,,,,,,,,,,,,,,,,,,,,,,,,,,,,,,,,,,,,,,
0,65,65,47,1,,6145fd744ef9af2c44486e81,62c53b6ff6aa0dcafb182adb,2022-07-06_09h36.58.030,Colour_Asymmetry_Pilot,2022.1.3,Win32,60.67224851,62c50e9c1127f2cd403a315f,,,,,,,,,,,,,,,,,,,,,,,,,,,,,,,,,,,,,,,,,,,,,,,,,,,,,,,,,,,,,,,,,,,,,,,,,,,,,,,,,,,,,,,,,,,,,,,,,,,,,,,,,,,,,,,,,,,,,,,,,,,,,,,,,,,,,,,,,,,,,,,,,,,,,,,,,,,,,,,,,,,
0,66,66,81,1,,6145fd744ef9af2c44486e81,62c53b6ff6aa0dcafb182adb,2022-07-06_09h36.58.030,Colour_Asymmetry_Pilot,2022.1.3,Win32,60.67224851,62c50e9c1127f2cd403a315f,,,,,,,,,,,,,,,,,,,,,,,,,,,,,,,,,,,,,,,,,,,,,,,,,,,,,,,,,,,,,,,,,,,,,,,,,,,,,,,,,,,,,,,,,,,,,,,,,,,,,,,,,,,,,,,,,,,,,,,,,,,,,,,,,,,,,,,,,,,,,,,,,,,,,,,,,,,,,,,,,,,
0,67,67,61,1,,6145fd744ef9af2c44486e81,62c53b6ff6aa0dcafb182adb,2022-07-06_09h36.58.030,Colour_Asymmetry_Pilot,2022.1.3,Win32,60.67224851,62c50e9c1127f2cd403a315f,,,,,,,,,,,,,,,,,,,,,,,,,,,,,,,,,,,,,,,,,,,,,,,,,,,,,,,,,,,,,,,,,,,,,,,,,,,,,,,,,,,,,,,,,,,,,,,,,,,,,,,,,,,,,,,,,,,,,,,,,,,,,,,,,,,,,,,,,,,,,,,,,,,,,,,,,,,,,,,,,,,
0,68,68,76,1,,6145fd744ef9af2c44486e81,62c53b6ff6aa0dcafb182adb,2022-07-06_09h36.58.030,Colour_Asymmetry_Pilot,2022.1.3,Win32,60.67224851,62c50e9c1127f2cd403a315f,,,,,,,,,,,,,,,,,,,,,,,,,,,,,,,,,,,,,,,,,,,,,,,,,,,,,,,,,,,,,,,,,,,,,,,,,,,,,,,,,,,,,,,,,,,,,,,,,,,,,,,,,,,,,,,,,,,,,,,,,,,,,,,,,,,,,,,,,,,,,,,,,,,,,,,,,,,,,,,,,,,
0,69,69,9,1,,6145fd744ef9af2c44486e81,62c53b6ff6aa0dcafb182adb,2022-07-06_09h36.58.030,Colour_Asymmetry_Pilot,2022.1.3,Win32,60.67224851,62c50e9c1127f2cd403a315f,,,,,,,,,,,,,,,,,,,,,,,,,,,,,,,,,,,,,,,,,,,,,,,,,,,,,,,,,,,,,,,,,,,,,,,,,,,,,,,,,,,,,,,,,,,,,,,,,,,,,,,,,,,,,,,,,,,,,,,,,,,,,,,,,,,,,,,,,,,,,,,,,,,,,,,,,,,,,,,,,,,
0,70,70,48,1,,6145fd744ef9af2c44486e81,62c53b6ff6aa0dcafb182adb,2022-07-06_09h36.58.030,Colour_Asymmetry_Pilot,2022.1.3,Win32,60.67224851,62c50e9c1127f2cd403a315f,,,,,,,,,,,,,,,,,,,,,,,,,,,,,,,,,,,,,,,,,,,,,,,,,,,,,,,,,,,,,,,,,,,,,,,,,,,,,,,,,,,,,,,,,,,,,,,,,,,,,,,,,,,,,,,,,,,,,,,,,,,,,,,,,,,,,,,,,,,,,,,,,,,,,,,,,,,,,,,,,,,
0,71,71,53,1,,6145fd744ef9af2c44486e81,62c53b6ff6aa0dcafb182adb,2022-07-06_09h36.58.030,Colour_Asymmetry_Pilot,2022.1.3,Win32,60.67224851,62c50e9c1127f2cd403a315f,,,,,,,,,,,,,,,,,,,,,,,,,,,,,,,,,,,,,,,,,,,,,,,,,,,,,,,,,,,,,,,,,,,,,,,,,,,,,,,,,,,,,,,,,,,,,,,,,,,,,,,,,,,,,,,,,,,,,,,,,,,,,,,,,,,,,,,,,,,,,,,,,,,,,,,,,,,,,,,,,,,
0,72,72,21,1,,6145fd744ef9af2c44486e81,62c53b6ff6aa0dcafb182adb,2022-07-06_09h36.58.030,Colour_Asymmetry_Pilot,2022.1.3,Win32,60.67224851,62c50e9c1127f2cd403a315f,,,,,,,,,,,,,,,,,,,,,,,,,,,,,,,,,,,,,,,,,,,,,,,,,,,,,,,,,,,,,,,,,,,,,,,,,,,,,,,,,,,,,,,,,,,,,,,,,,,,,,,,,,,,,,,,,,,,,,,,,,,,,,,,,,,,,,,,,,,,,,,,,,,,,,,,,,,,,,,,,,,
0,73,73,5,1,,6145fd744ef9af2c44486e81,62c53b6ff6aa0dcafb182adb,2022-07-06_09h36.58.030,Colour_Asymmetry_Pilot,2022.1.3,Win32,60.67224851,62c50e9c1127f2cd403a315f,,,,,,,,,,,,,,,,,,,,,,,,,,,,,,,,,,,,,,,,,,,,,,,,,,,,,,,,,,,,,,,,,,,,,,,,,,,,,,,,,,,,,,,,,,,,,,,,,,,,,,,,,,,,,,,,,,,,,,,,,,,,,,,,,,,,,,,,,,,,,,,,,,,,,,,,,,,,,,,,,,,
0,74,74,86,1,,6145fd744ef9af2c44486e81,62c53b6ff6aa0dcafb182adb,2022-07-06_09h36.58.030,Colour_Asymmetry_Pilot,2022.1.3,Win32,60.67224851,62c50e9c1127f2cd403a315f,,,,,,,,,,,,,,,,,,,,,,,,,,,,,,,,,,,,,,,,,,,,,,,,,,,,,,,,,,,,,,,,,,,,,,,,,,,,,,,,,,,,,,,,,,,,,,,,,,,,,,,,,,,,,,,,,,,,,,,,,,,,,,,,,,,,,,,,,,,,,,,,,,,,,,,,,,,,,,,,,,,
0,75,75,38,1,,6145fd744ef9af2c44486e81,62c53b6ff6aa0dcafb182adb,2022-07-06_09h36.58.030,Colour_Asymmetry_Pilot,2022.1.3,Win32,60.67224851,62c50e9c1127f2cd403a315f,,,,,,,,,,,,,,,,,,,,,,,,,,,,,,,,,,,,,,,,,,,,,,,,,,,,,,,,,,,,,,,,,,,,,,,,,,,,,,,,,,,,,,,,,,,,,,,,,,,,,,,,,,,,,,,,,,,,,,,,,,,,,,,,,,,,,,,,,,,,,,,,,,,,,,,,,,,,,,,,,,,
0,76,76,33,1,,6145fd744ef9af2c44486e81,62c53b6ff6aa0dcafb182adb,2022-07-06_09h36.58.030,Colour_Asymmetry_Pilot,2022.1.3,Win32,60.67224851,62c50e9c1127f2cd403a315f,,,,,,,,,,,,,,,,,,,,,,,,,,,,,,,,,,,,,,,,,,,,,,,,,,,,,,,,,,,,,,,,,,,,,,,,,,,,,,,,,,,,,,,,,,,,,,,,,,,,,,,,,,,,,,,,,,,,,,,,,,,,,,,,,,,,,,,,,,,,,,,,,,,,,,,,,,,,,,,,,,,
0,77,77,87,1,,6145fd744ef9af2c44486e81,62c53b6ff6aa0dcafb182adb,2022-07-06_09h36.58.030,Colour_Asymmetry_Pilot,2022.1.3,Win32,60.67224851,62c50e9c1127f2cd403a315f,,,,,,,,,,,,,,,,,,,,,,,,,,,,,,,,,,,,,,,,,,,,,,,,,,,,,,,,,,,,,,,,,,,,,,,,,,,,,,,,,,,,,,,,,,,,,,,,,,,,,,,,,,,,,,,,,,,,,,,,,,,,,,,,,,,,,,,,,,,,,,,,,,,,,,,,,,,,,,,,,,,
0,78,78,46,1,,6145fd744ef9af2c44486e81,62c53b6ff6aa0dcafb182adb,2022-07-06_09h36.58.030,Colour_Asymmetry_Pilot,2022.1.3,Win32,60.67224851,62c50e9c1127f2cd403a315f,,,,,,,,,,,,,,,,,,,,,,,,,,,,,,,,,,,,,,,,,,,,,,,,,,,,,,,,,,,,,,,,,,,,,,,,,,,,,,,,,,,,,,,,,,,,,,,,,,,,,,,,,,,,,,,,,,,,,,,,,,,,,,,,,,,,,,,,,,,,,,,,,,,,,,,,,,,,,,,,,,,
0,79,79,88,1,,6145fd744ef9af2c44486e81,62c53b6ff6aa0dcafb182adb,2022-07-06_09h36.58.030,Colour_Asymmetry_Pilot,2022.1.3,Win32,60.67224851,62c50e9c1127f2cd403a315f,,,,,,,,,,,,,,,,,,,,,,,,,,,,,,,,,,,,,,,,,,,,,,,,,,,,,,,,,,,,,,,,,,,,,,,,,,,,,,,,,,,,,,,,,,,,,,,,,,,,,,,,,,,,,,,,,,,,,,,,,,,,,,,,,,,,,,,,,,,,,,,,,,,,,,,,,,,,,,,,,,,
0,80,80,63,1,,6145fd744ef9af2c44486e81,62c53b6ff6aa0dcafb182adb,2022-07-06_09h36.58.030,Colour_Asymmetry_Pilot,2022.1.3,Win32,60.67224851,62c50e9c1127f2cd403a315f,,,,,,,,,,,,,,,,,,,,,,,,,,,,,,,,,,,,,,,,,,,,,,,,,,,,,,,,,,,,,,,,,,,,,,,,,,,,,,,,,,,,,,,,,,,,,,,,,,,,,,,,,,,,,,,,,,,,,,,,,,,,,,,,,,,,,,,,,,,,,,,,,,,,,,,,,,,,,,,,,,,
0,81,81,64,1,,6145fd744ef9af2c44486e81,62c53b6ff6aa0dcafb182adb,2022-07-06_09h36.58.030,Colour_Asymmetry_Pilot,2022.1.3,Win32,60.67224851,62c50e9c1127f2cd403a315f,,,,,,,,,,,,,,,,,,,,,,,,,,,,,,,,,,,,,,,,,,,,,,,,,,,,,,,,,,,,,,,,,,,,,,,,,,,,,,,,,,,,,,,,,,,,,,,,,,,,,,,,,,,,,,,,,,,,,,,,,,,,,,,,,,,,,,,,,,,,,,,,,,,,,,,,,,,,,,,,,,,
0,82,82,85,1,,6145fd744ef9af2c44486e81,62c53b6ff6aa0dcafb182adb,2022-07-06_09h36.58.030,Colour_Asymmetry_Pilot,2022.1.3,Win32,60.67224851,62c50e9c1127f2cd403a315f,,,,,,,,,,,,,,,,,,,,,,,,,,,,,,,,,,,,,,,,,,,,,,,,,,,,,,,,,,,,,,,,,,,,,,,,,,,,,,,,,,,,,,,,,,,,,,,,,,,,,,,,,,,,,,,,,,,,,,,,,,,,,,,,,,,,,,,,,,,,,,,,,,,,,,,,,,,,,,,,,,,
0,83,83,83,1,,6145fd744ef9af2c44486e81,62c53b6ff6aa0dcafb182adb,2022-07-06_09h36.58.030,Colour_Asymmetry_Pilot,2022.1.3,Win32,60.67224851,62c50e9c1127f2cd403a315f,,,,,,,,,,,,,,,,,,,,,,,,,,,,,,,,,,,,,,,,,,,,,,,,,,,,,,,,,,,,,,,,,,,,,,,,,,,,,,,,,,,,,,,,,,,,,,,,,,,,,,,,,,,,,,,,,,,,,,,,,,,,,,,,,,,,,,,,,,,,,,,,,,,,,,,,,,,,,,,,,,,
0,84,84,0,1,,6145fd744ef9af2c44486e81,62c53b6ff6aa0dcafb182adb,2022-07-06_09h36.58.030,Colour_Asymmetry_Pilot,2022.1.3,Win32,60.67224851,62c50e9c1127f2cd403a315f,,,,,,,,,,,,,,,,,,,,,,,,,,,,,,,,,,,,,,,,,,,,,,,,,,,,,,,,,,,,,,,,,,,,,,,,,,,,,,,,,,,,,,,,,,,,,,,,,,,,,,,,,,,,,,,,,,,,,,,,,,,,,,,,,,,,,,,,,,,,,,,,,,,,,,,,,,,,,,,,,,,
0,85,85,17,1,,6145fd744ef9af2c44486e81,62c53b6ff6aa0dcafb182adb,2022-07-06_09h36.58.030,Colour_Asymmetry_Pilot,2022.1.3,Win32,60.67224851,62c50e9c1127f2cd403a315f,,,,,,,,,,,,,,,,,,,,,,,,,,,,,,,,,,,,,,,,,,,,,,,,,,,,,,,,,,,,,,,,,,,,,,,,,,,,,,,,,,,,,,,,,,,,,,,,,,,,,,,,,,,,,,,,,,,,,,,,,,,,,,,,,,,,,,,,,,,,,,,,,,,,,,,,,,,,,,,,,,,
0,86,86,59,1,,6145fd744ef9af2c44486e81,62c53b6ff6aa0dcafb182adb,2022-07-06_09h36.58.030,Colour_Asymmetry_Pilot,2022.1.3,Win32,60.67224851,62c50e9c1127f2cd403a315f,,,,,,,,,,,,,,,,,,,,,,,,,,,,,,,,,,,,,,,,,,,,,,,,,,,,,,,,,,,,,,,,,,,,,,,,,,,,,,,,,,,,,,,,,,,,,,,,,,,,,,,,,,,,,,,,,,,,,,,,,,,,,,,,,,,,,,,,,,,,,,,,,,,,,,,,,,,,,,,,,,,
0,87,87,68,1,,6145fd744ef9af2c44486e81,62c53b6ff6aa0dcafb182adb,2022-07-06_09h36.58.030,Colour_Asymmetry_Pilot,2022.1.3,Win32,60.67224851,62c50e9c1127f2cd403a315f,,,,,,,,,,,,,,,,,,,,,,,,,,,,,,,,,,,,,,,,,,,,,,,,,,,,,,,,,,,,,,,,,,,,,,,,,,,,,,,,,,,,,,,,,,,,,,,,,,,,,,,,,,,,,,,,,,,,,,,,,,,,,,,,,,,,,,,,,,,,,,,,,,,,,,,,,,,,,,,,,,,
0,88,88,7,1,,6145fd744ef9af2c44486e81,62c53b6ff6aa0dcafb182adb,2022-07-06_09h36.58.030,Colour_Asymmetry_Pilot,2022.1.3,Win32,60.67224851,62c50e9c1127f2cd403a315f,,,,,,,,,,,,,,,,,,,,,,,,,,,,,,,,,,,,,,,,,,,,,,,,,,,,,,,,,,,,,,,,,,,,,,,,,,,,,,,,,,,,,,,,,,,,,,,,,,,,,,,,,,,,,,,,,,,,,,,,,,,,,,,,,,,,,,,,,,,,,,,,,,,,,,,,,,,,,,,,,,,
0,89,89,89,1,,6145fd744ef9af2c44486e81,62c53b6ff6aa0dcafb182adb,2022-07-06_09h36.58.030,Colour_Asymmetry_Pilot,2022.1.3,Win32,60.67224851,62c50e9c1127f2cd403a315f,,,,,,,,,,,,,,,,,,,,,,,,,,,,,,,,,,,,,,,,,,,,,,,,,,,,,,,,,,,,,,,,,,,,,,,,,,,,,,,,,,,,,,,,,,,,,,,,,,,,,,,,,,,,,,,,,,,,,,,,,,,,,,,,,,,,,,,,,,,,,,,,,,,,,,,,,,,,,,,,,,,
0,90,90,1,1,,6145fd744ef9af2c44486e81,62c53b6ff6aa0dcafb182adb,2022-07-06_09h36.58.030,Colour_Asymmetry_Pilot,2022.1.3,Win32,60.67224851,62c50e9c1127f2cd403a315f,,,,,,,,,,,,,,,,,,,,,,,,,,,,,,,,,,,,,,,,,,,,,,,,,,,,,,,,,,,,,,,,,,,,,,,,,,,,,,,,,,,,,,,,,,,,,,,,,,,,,,,,,,,,,,,,,,,,,,,,,,,,,,,,,,,,,,,,,,,,,,,,,,,,,,,,,,,,,,,,,,,
0,91,91,65,1,,6145fd744ef9af2c44486e81,62c53b6ff6aa0dcafb182adb,2022-07-06_09h36.58.030,Colour_Asymmetry_Pilot,2022.1.3,Win32,60.67224851,62c50e9c1127f2cd403a315f,,,,,,,,,,,,,,,,,,,,,,,,,,,,,,,,,,,,,,,,,,,,,,,,,,,,,,,,,,,,,,,,,,,,,,,,,,,,,,,,,,,,,,,,,,,,,,,,,,,,,,,,,,,,,,,,,,,,,,,,,,,,,,,,,,,,,,,,,,,,,,,,,,,,,,,,,,,,,,,,,,,
0,92,92,12,1,,6145fd744ef9af2c44486e81,62c53b6ff6aa0dcafb182adb,2022-07-06_09h36.58.030,Colour_Asymmetry_Pilot,2022.1.3,Win32,60.67224851,62c50e9c1127f2cd403a315f,,,,,,,,,,,,,,,,,,,,,,,,,,,,,,,,,,,,,,,,,,,,,,,,,,,,,,,,,,,,,,,,,,,,,,,,,,,,,,,,,,,,,,,,,,,,,,,,,,,,,,,,,,,,,,,,,,,,,,,,,,,,,,,,,,,,,,,,,,,,,,,,,,,,,,,,,,,,,,,,,,,
,,,,,,6145fd744ef9af2c44486e81,62c53b6ff6aa0dcafb182adb,2022-07-06_09h36.58.030,Colour_Asymmetry_Pilot,2022.1.3,Win32,60.67224851,62c50e9c1127f2cd403a315f,0,0,0,69,1,threefour,,,,,,,,,,,,,,,,,,,,,,,,,,,,,,,,,,,,,,,,,,,,,,,,,,,,,,,,,,,,,,,,,,,,,,,,,,,,,,,,,,,,,,,,,,,,,,,,,,,,,,,,,,,,,,,,,,,,,,,,,,,,,,,,,,,,,,,,,,,,,,,,,,,,,,,,,,,,,
,,,,,,6145fd744ef9af2c44486e81,62c53b6ff6aa0dcafb182adb,2022-07-06_09h36.58.030,Colour_Asymmetry_Pilot,2022.1.3,Win32,60.67224851,62c50e9c1127f2cd403a315f,0,1,1,81,1,onethree,,,,,,,,,,,,,,,,,,,,,,,,,,,,,,,,,,,,,,,,,,,,,,,,,,,,,,,,,,,,,,,,,,,,,,,,,,,,,,,,,,,,,,,,,,,,,,,,,,,,,,,,,,,,,,,,,,,,,,,,,,,,,,,,,,,,,,,,,,,,,,,,,,,,,,,,,,,,,
,,,,,,6145fd744ef9af2c44486e81,62c53b6ff6aa0dcafb182adb,2022-07-06_09h36.58.030,Colour_Asymmetry_Pilot,2022.1.3,Win32,60.67224851,62c50e9c1127f2cd403a315f,0,2,2,84,1,threeone,,,,,,,,,,,,,,,,,,,,,,,,,,,,,,,,,,,,,,,,,,,,,,,,,,,,,,,,,,,,,,,,,,,,,,,,,,,,,,,,,,,,,,,,,,,,,,,,,,,,,,,,,,,,,,,,,,,,,,,,,,,,,,,,,,,,,,,,,,,,,,,,,,,,,,,,,,,,,
,,,,,,6145fd744ef9af2c44486e81,62c53b6ff6aa0dcafb182adb,2022-07-06_09h36.58.030,Colour_Asymmetry_Pilot,2022.1.3,Win32,60.67224851,62c50e9c1127f2cd403a315f,0,3,3,159,1,fourthree,,,,,,,,,,,,,,,,,,,,,,,,,,,,,,,,,,,,,,,,,,,,,,,,,,,,,,,,,,,,,,,,,,,,,,,,,,,,,,,,,,,,,,,,,,,,,,,,,,,,,,,,,,,,,,,,,,,,,,,,,,,,,,,,,,,,,,,,,,,,,,,,,,,,,,,,,,,,,
,,,,,,6145fd744ef9af2c44486e81,62c53b6ff6aa0dcafb182adb,2022-07-06_09h36.58.030,Colour_Asymmetry_Pilot,2022.1.3,Win32,60.67224851,62c50e9c1127f2cd403a315f,0,4,4,32,1,onetwo,,,,,,,,,,,,,,,,,,,,,,,,,,,,,,,,,,,,,,,,,,,,,,,,,,,,,,,,,,,,,,,,,,,,,,,,,,,,,,,,,,,,,,,,,,,,,,,,,,,,,,,,,,,,,,,,,,,,,,,,,,,,,,,,,,,,,,,,,,,,,,,,,,,,,,,,,,,,,
,,,,,,6145fd744ef9af2c44486e81,62c53b6ff6aa0dcafb182adb,2022-07-06_09h36.58.030,Colour_Asymmetry_Pilot,2022.1.3,Win32,60.67224851,62c50e9c1127f2cd403a315f,0,5,5,102,1,fourtwo,,,,,,,,,,,,,,,,,,,,,,,,,,,,,,,,,,,,,,,,,,,,,,,,,,,,,,,,,,,,,,,,,,,,,,,,,,,,,,,,,,,,,,,,,,,,,,,,,,,,,,,,,,,,,,,,,,,,,,,,,,,,,,,,,,,,,,,,,,,,,,,,,,,,,,,,,,,,,
,,,,,,6145fd744ef9af2c44486e81,62c53b6ff6aa0dcafb182adb,2022-07-06_09h36.58.030,Colour_Asymmetry_Pilot,2022.1.3,Win32,60.67224851,62c50e9c1127f2cd403a315f,0,6,6,13,1,threefour,,,,,,,,,,,,,,,,,,,,,,,,,,,,,,,,,,,,,,,,,,,,,,,,,,,,,,,,,,,,,,,,,,,,,,,,,,,,,,,,,,,,,,,,,,,,,,,,,,,,,,,,,,,,,,,,,,,,,,,,,,,,,,,,,,,,,,,,,,,,,,,,,,,,,,,,,,,,,
,,,,,,6145fd744ef9af2c44486e81,62c53b6ff6aa0dcafb182adb,2022-07-06_09h36.58.030,Colour_Asymmetry_Pilot,2022.1.3,Win32,60.67224851,62c50e9c1127f2cd403a315f,0,7,7,22,1,fourtwo,,,,,,,,,,,,,,,,,,,,,,,,,,,,,,,,,,,,,,,,,,,,,,,,,,,,,,,,,,,,,,,,,,,,,,,,,,,,,,,,,,,,,,,,,,,,,,,,,,,,,,,,,,,,,,,,,,,,,,,,,,,,,,,,,,,,,,,,,,,,,,,,,,,,,,,,,,,,,
,,,,,,6145fd744ef9af2c44486e81,62c53b6ff6aa0dcafb182adb,2022-07-06_09h36.58.030,Colour_Asymmetry_Pilot,2022.1.3,Win32,60.67224851,62c50e9c1127f2cd403a315f,0,8,8,122,1,twoone,,,,,,,,,,,,,,,,,,,,,,,,,,,,,,,,,,,,,,,,,,,,,,,,,,,,,,,,,,,,,,,,,,,,,,,,,,,,,,,,,,,,,,,,,,,,,,,,,,,,,,,,,,,,,,,,,,,,,,,,,,,,,,,,,,,,,,,,,,,,,,,,,,,,,,,,,,,,,
,,,,,,6145fd744ef9af2c44486e81,62c53b6ff6aa0dcafb182adb,2022-07-06_09h36.58.030,Colour_Asymmetry_Pilot,2022.1.3,Win32,60.67224851,62c50e9c1127f2cd403a315f,0,9,9,120,1,onetwo,,,,,,,,,,,,,,,,,,,,,,,,,,,,,,,,,,,,,,,,,,,,,,,,,,,,,,,,,,,,,,,,,,,,,,,,,,,,,,,,,,,,,,,,,,,,,,,,,,,,,,,,,,,,,,,,,,,,,,,,,,,,,,,,,,,,,,,,,,,,,,,,,,,,,,,,,,,,,
,,,,,,6145fd744ef9af2c44486e81,62c53b6ff6aa0dcafb182adb,2022-07-06_09h36.58.030,Colour_Asymmetry_Pilot,2022.1.3,Win32,60.67224851,62c50e9c1127f2cd403a315f,0,10,10,150,1,fourtwo,,,,,,,,,,,,,,,,,,,,,,,,,,,,,,,,,,,,,,,,,,,,,,,,,,,,,,,,,,,,,,,,,,,,,,,,,,,,,,,,,,,,,,,,,,,,,,,,,,,,,,,,,,,,,,,,,,,,,,,,,,,,,,,,,,,,,,,,,,,,,,,,,,,,,,,,,,,,,
,,,,,,6145fd744ef9af2c44486e81,62c53b6ff6aa0dcafb182adb,2022-07-06_09h36.58.030,Colour_Asymmetry_Pilot,2022.1.3,Win32,60.67224851,62c50e9c1127f2cd403a315f,0,11,11,113,1,onethree,,,,,,,,,,,,,,,,,,,,,,,,,,,,,,,,,,,,,,,,,,,,,,,,,,,,,,,,,,,,,,,,,,,,,,,,,,,,,,,,,,,,,,,,,,,,,,,,,,,,,,,,,,,,,,,,,,,,,,,,,,,,,,,,,,,,,,,,,,,,,,,,,,,,,,,,,,,,,
,,,,,,6145fd744ef9af2c44486e81,62c53b6ff6aa0dcafb182adb,2022-07-06_09h36.58.030,Colour_Asymmetry_Pilot,2022.1.3,Win32,60.67224851,62c50e9c1127f2cd403a315f,0,12,12,23,1,fourthree,,,,,,,,,,,,,,,,,,,,,,,,,,,,,,,,,,,,,,,,,,,,,,,,,,,,,,,,,,,,,,,,,,,,,,,,,,,,,,,,,,,,,,,,,,,,,,,,,,,,,,,,,,,,,,,,,,,,,,,,,,,,,,,,,,,,,,,,,,,,,,,,,,,,,,,,,,,,,
,,,,,,6145fd744ef9af2c44486e81,62c53b6ff6aa0dcafb182adb,2022-07-06_09h36.58.030,Colour_Asymmetry_Pilot,2022.1.3,Win32,60.67224851,62c50e9c1127f2cd403a315f,0,13,13,14,1,fourtwo,,,,,,,,,,,,,,,,,,,,,,,,,,,,,,,,,,,,,,,,,,,,,,,,,,,,,,,,,,,,,,,,,,,,,,,,,,,,,,,,,,,,,,,,,,,,,,,,,,,,,,,,,,,,,,,,,,,,,,,,,,,,,,,,,,,,,,,,,,,,,,,,,,,,,,,,,,,,,
,,,,,,6145fd744ef9af2c44486e81,62c53b6ff6aa0dcafb182adb,2022-07-06_09h36.58.030,Colour_Asymmetry_Pilot,2022.1.3,Win32,60.67224851,62c50e9c1127f2cd403a315f,0,14,14,149,1,threefour,,,,,,,,,,,,,,,,,,,,,,,,,,,,,,,,,,,,,,,,,,,,,,,,,,,,,,,,,,,,,,,,,,,,,,,,,,,,,,,,,,,,,,,,,,,,,,,,,,,,,,,,,,,,,,,,,,,,,,,,,,,,,,,,,,,,,,,,,,,,,,,,,,,,,,,,,,,,,
,,,,,,6145fd744ef9af2c44486e81,62c53b6ff6aa0dcafb182adb,2022-07-06_09h36.58.030,Colour_Asymmetry_Pilot,2022.1.3,Win32,60.67224851,62c50e9c1127f2cd403a315f,0,15,15,139,1,twofour,,,,,,,,,,,,,,,,,,,,,,,,,,,,,,,,,,,,,,,,,,,,,,,,,,,,,,,,,,,,,,,,,,,,,,,,,,,,,,,,,,,,,,,,,,,,,,,,,,,,,,,,,,,,,,,,,,,,,,,,,,,,,,,,,,,,,,,,,,,,,,,,,,,,,,,,,,,,,
,,,,,,6145fd744ef9af2c44486e81,62c53b6ff6aa0dcafb182adb,2022-07-06_09h36.58.030,Colour_Asymmetry_Pilot,2022.1.3,Win32,60.67224851,62c50e9c1127f2cd403a315f,0,16,16,57,1,onethree,,,,,,,,,,,,,,,,,,,,,,,,,,,,,,,,,,,,,,,,,,,,,,,,,,,,,,,,,,,,,,,,,,,,,,,,,,,,,,,,,,,,,,,,,,,,,,,,,,,,,,,,,,,,,,,,,,,,,,,,,,,,,,,,,,,,,,,,,,,,,,,,,,,,,,,,,,,,,
,,,,,,6145fd744ef9af2c44486e81,62c53b6ff6aa0dcafb182adb,2022-07-06_09h36.58.030,Colour_Asymmetry_Pilot,2022.1.3,Win32,60.67224851,62c50e9c1127f2cd403a315f,0,17,17,127,1,fourthree,,,,,,,,,,,,,,,,,,,,,,,,,,,,,,,,,,,,,,,,,,,,,,,,,,,,,,,,,,,,,,,,,,,,,,,,,,,,,,,,,,,,,,,,,,,,,,,,,,,,,,,,,,,,,,,,,,,,,,,,,,,,,,,,,,,,,,,,,,,,,,,,,,,,,,,,,,,,,
,,,,,,6145fd744ef9af2c44486e81,62c53b6ff6aa0dcafb182adb,2022-07-06_09h36.58.030,Colour_Asymmetry_Pilot,2022.1.3,Win32,60.67224851,62c50e9c1127f2cd403a315f,0,18,18,132,1,threeone,,,,,,,,,,,,,,,,,,,,,,,,,,,,,,,,,,,,,,,,,,,,,,,,,,,,,,,,,,,,,,,,,,,,,,,,,,,,,,,,,,,,,,,,,,,,,,,,,,,,,,,,,,,,,,,,,,,,,,,,,,,,,,,,,,,,,,,,,,,,,,,,,,,,,,,,,,,,,
,,,,,,6145fd744ef9af2c44486e81,62c53b6ff6aa0dcafb182adb,2022-07-06_09h36.58.030,Colour_Asymmetry_Pilot,2022.1.3,Win32,60.67224851,62c50e9c1127f2cd403a315f,0,19,19,98,1,twoone,,,,,,,,,,,,,,,,,,,,,,,,,,,,,,,,,,,,,,,,,,,,,,,,,,,,,,,,,,,,,,,,,,,,,,,,,,,,,,,,,,,,,,,,,,,,,,,,,,,,,,,,,,,,,,,,,,,,,,,,,,,,,,,,,,,,,,,,,,,,,,,,,,,,,,,,,,,,,
,,,,,,6145fd744ef9af2c44486e81,62c53b6ff6aa0dcafb182adb,2022-07-06_09h36.58.030,Colour_Asymmetry_Pilot,2022.1.3,Win32,60.67224851,62c50e9c1127f2cd403a315f,0,20,20,93,1,threefour,,,,,,,,,,,,,,,,,,,,,,,,,,,,,,,,,,,,,,,,,,,,,,,,,,,,,,,,,,,,,,,,,,,,,,,,,,,,,,,,,,,,,,,,,,,,,,,,,,,,,,,,,,,,,,,,,,,,,,,,,,,,,,,,,,,,,,,,,,,,,,,,,,,,,,,,,,,,,
,,,,,,6145fd744ef9af2c44486e81,62c53b6ff6aa0dcafb182adb,2022-07-06_09h36.58.030,Colour_Asymmetry_Pilot,2022.1.3,Win32,60.67224851,62c50e9c1127f2cd403a315f,0,21,21,94,1,fourtwo,,,,,,,,,,,,,,,,,,,,,,,,,,,,,,,,,,,,,,,,,,,,,,,,,,,,,,,,,,,,,,,,,,,,,,,,,,,,,,,,,,,,,,,,,,,,,,,,,,,,,,,,,,,,,,,,,,,,,,,,,,,,,,,,,,,,,,,,,,,,,,,,,,,,,,,,,,,,,
,,,,,,6145fd744ef9af2c44486e81,62c53b6ff6aa0dcafb182adb,2022-07-06_09h36.58.030,Colour_Asymmetry_Pilot,2022.1.3,Win32,60.67224851,62c50e9c1127f2cd403a315f,0,22,22,16,1,onetwo,,,,,,,,,,,,,,,,,,,,,,,,,,,,,,,,,,,,,,,,,,,,,,,,,,,,,,,,,,,,,,,,,,,,,,,,,,,,,,,,,,,,,,,,,,,,,,,,,,,,,,,,,,,,,,,,,,,,,,,,,,,,,,,,,,,,,,,,,,,,,,,,,,,,,,,,,,,,,
,,,,,,6145fd744ef9af2c44486e81,62c53b6ff6aa0dcafb182adb,2022-07-06_09h36.58.030,Colour_Asymmetry_Pilot,2022.1.3,Win32,60.67224851,62c50e9c1127f2cd403a315f,0,23,23,103,1,fourthree,,,,,,,,,,,,,,,,,,,,,,,,,,,,,,,,,,,,,,,,,,,,,,,,,,,,,,,,,,,,,,,,,,,,,,,,,,,,,,,,,,,,,,,,,,,,,,,,,,,,,,,,,,,,,,,,,,,,,,,,,,,,,,,,,,,,,,,,,,,,,,,,,,,,,,,,,,,,,
,,,,,,6145fd744ef9af2c44486e81,62c53b6ff6aa0dcafb182adb,2022-07-06_09h36.58.030,Colour_Asymmetry_Pilot,2022.1.3,Win32,60.67224851,62c50e9c1127f2cd403a315f,0,24,24,101,1,threefour,,,,,,,,,,,,,,,,,,,,,,,,,,,,,,,,,,,,,,,,,,,,,,,,,,,,,,,,,,,,,,,,,,,,,,,,,,,,,,,,,,,,,,,,,,,,,,,,,,,,,,,,,,,,,,,,,,,,,,,,,,,,,,,,,,,,,,,,,,,,,,,,,,,,,,,,,,,,,
,,,,,,6145fd744ef9af2c44486e81,62c53b6ff6aa0dcafb182adb,2022-07-06_09h36.58.030,Colour_Asymmetry_Pilot,2022.1.3,Win32,60.67224851,62c50e9c1127f2cd403a315f,0,25,25,152,1,onetwo,,,,,,,,,,,,,,,,,,,,,,,,,,,,,,,,,,,,,,,,,,,,,,,,,,,,,,,,,,,,,,,,,,,,,,,,,,,,,,,,,,,,,,,,,,,,,,,,,,,,,,,,,,,,,,,,,,,,,,,,,,,,,,,,,,,,,,,,,,,,,,,,,,,,,,,,,,,,,
,,,,,,6145fd744ef9af2c44486e81,62c53b6ff6aa0dcafb182adb,2022-07-06_09h36.58.030,Colour_Asymmetry_Pilot,2022.1.3,Win32,60.67224851,62c50e9c1127f2cd403a315f,0,26,26,0,1,onetwo,,,,,,,,,,,,,,,,,,,,,,,,,,,,,,,,,,,,,,,,,,,,,,,,,,,,,,,,,,,,,,,,,,,,,,,,,,,,,,,,,,,,,,,,,,,,,,,,,,,,,,,,,,,,,,,,,,,,,,,,,,,,,,,,,,,,,,,,,,,,,,,,,,,,,,,,,,,,,
,,,,,,6145fd744ef9af2c44486e81,62c53b6ff6aa0dcafb182adb,2022-07-06_09h36.58.030,Colour_Asymmetry_Pilot,2022.1.3,Win32,60.67224851,62c50e9c1127f2cd403a315f,0,27,27,51,1,twofour,,,,,,,,,,,,,,,,,,,,,,,,,,,,,,,,,,,,,,,,,,,,,,,,,,,,,,,,,,,,,,,,,,,,,,,,,,,,,,,,,,,,,,,,,,,,,,,,,,,,,,,,,,,,,,,,,,,,,,,,,,,,,,,,,,,,,,,,,,,,,,,,,,,,,,,,,,,,,
,,,,,,6145fd744ef9af2c44486e81,62c53b6ff6aa0dcafb182adb,2022-07-06_09h36.58.030,Colour_Asymmetry_Pilot,2022.1.3,Win32,60.67224851,62c50e9c1127f2cd403a315f,0,28,28,99,1,twofour,,,,,,,,,,,,,,,,,,,,,,,,,,,,,,,,,,,,,,,,,,,,,,,,,,,,,,,,,,,,,,,,,,,,,,,,,,,,,,,,,,,,,,,,,,,,,,,,,,,,,,,,,,,,,,,,,,,,,,,,,,,,,,,,,,,,,,,,,,,,,,,,,,,,,,,,,,,,,
,,,,,,6145fd744ef9af2c44486e81,62c53b6ff6aa0dcafb182adb,2022-07-06_09h36.58.030,Colour_Asymmetry_Pilot,2022.1.3,Win32,60.67224851,62c50e9c1127f2cd403a315f,0,29,29,77,1,threefour,,,,,,,,,,,,,,,,,,,,,,,,,,,,,,,,,,,,,,,,,,,,,,,,,,,,,,,,,,,,,,,,,,,,,,,,,,,,,,,,,,,,,,,,,,,,,,,,,,,,,,,,,,,,,,,,,,,,,,,,,,,,,,,,,,,,,,,,,,,,,,,,,,,,,,,,,,,,,
,,,,,,6145fd744ef9af2c44486e81,62c53b6ff6aa0dcafb182adb,2022-07-06_09h36.58.030,Colour_Asymmetry_Pilot,2022.1.3,Win32,60.67224851,62c50e9c1127f2cd403a315f,0,30,30,46,1,fourtwo,,,,,,,,,,,,,,,,,,,,,,,,,,,,,,,,,,,,,,,,,,,,,,,,,,,,,,,,,,,,,,,,,,,,,,,,,,,,,,,,,,,,,,,,,,,,,,,,,,,,,,,,,,,,,,,,,,,,,,,,,,,,,,,,,,,,,,,,,,,,,,,,,,,,,,,,,,,,,
,,,,,,6145fd744ef9af2c44486e81,62c53b6ff6aa0dcafb182adb,2022-07-06_09h36.58.030,Colour_Asymmetry_Pilot,2022.1.3,Win32,60.67224851,62c50e9c1127f2cd403a315f,0,31,31,4,1,threeone,,,,,,,,,,,,,,,,,,,,,,,,,,,,,,,,,,,,,,,,,,,,,,,,,,,,,,,,,,,,,,,,,,,,,,,,,,,,,,,,,,,,,,,,,,,,,,,,,,,,,,,,,,,,,,,,,,,,,,,,,,,,,,,,,,,,,,,,,,,,,,,,,,,,,,,,,,,,,
,,,,,,6145fd744ef9af2c44486e81,62c53b6ff6aa0dcafb182adb,2022-07-06_09h36.58.030,Colour_Asymmetry_Pilot,2022.1.3,Win32,60.67224851,62c50e9c1127f2cd403a315f,0,32,32,19,1,twofour,,,,,,,,,,,,,,,,,,,,,,,,,,,,,,,,,,,,,,,,,,,,,,,,,,,,,,,,,,,,,,,,,,,,,,,,,,,,,,,,,,,,,,,,,,,,,,,,,,,,,,,,,,,,,,,,,,,,,,,,,,,,,,,,,,,,,,,,,,,,,,,,,,,,,,,,,,,,,
,,,,,,6145fd744ef9af2c44486e81,62c53b6ff6aa0dcafb182adb,2022-07-06_09h36.58.030,Colour_Asymmetry_Pilot,2022.1.3,Win32,60.67224851,62c50e9c1127f2cd403a315f,0,33,33,157,1,threefour,,,,,,,,,,,,,,,,,,,,,,,,,,,,,,,,,,,,,,,,,,,,,,,,,,,,,,,,,,,,,,,,,,,,,,,,,,,,,,,,,,,,,,,,,,,,,,,,,,,,,,,,,,,,,,,,,,,,,,,,,,,,,,,,,,,,,,,,,,,,,,,,,,,,,,,,,,,,,
,,,,,,6145fd744ef9af2c44486e81,62c53b6ff6aa0dcafb182adb,2022-07-06_09h36.58.030,Colour_Asymmetry_Pilot,2022.1.3,Win32,60.67224851,62c50e9c1127f2cd403a315f,0,34,34,86,1,fourtwo,,,,,,,,,,,,,,,,,,,,,,,,,,,,,,,,,,,,,,,,,,,,,,,,,,,,,,,,,,,,,,,,,,,,,,,,,,,,,,,,,,,,,,,,,,,,,,,,,,,,,,,,,,,,,,,,,,,,,,,,,,,,,,,,,,,,,,,,,,,,,,,,,,,,,,,,,,,,,
,,,,,,6145fd744ef9af2c44486e81,62c53b6ff6aa0dcafb182adb,2022-07-06_09h36.58.030,Colour_Asymmetry_Pilot,2022.1.3,Win32,60.67224851,62c50e9c1127f2cd403a315f,0,35,35,44,1,threeone,,,,,,,,,,,,,,,,,,,,,,,,,,,,,,,,,,,,,,,,,,,,,,,,,,,,,,,,,,,,,,,,,,,,,,,,,,,,,,,,,,,,,,,,,,,,,,,,,,,,,,,,,,,,,,,,,,,,,,,,,,,,,,,,,,,,,,,,,,,,,,,,,,,,,,,,,,,,,
,,,,,,6145fd744ef9af2c44486e81,62c53b6ff6aa0dcafb182adb,2022-07-06_09h36.58.030,Colour_Asymmetry_Pilot,2022.1.3,Win32,60.67224851,62c50e9c1127f2cd403a315f,0,36,36,7,1,fourthree,,,,,,,,,,,,,,,,,,,,,,,,,,,,,,,,,,,,,,,,,,,,,,,,,,,,,,,,,,,,,,,,,,,,,,,,,,,,,,,,,,,,,,,,,,,,,,,,,,,,,,,,,,,,,,,,,,,,,,,,,,,,,,,,,,,,,,,,,,,,,,,,,,,,,,,,,,,,,
,,,,,,6145fd744ef9af2c44486e81,62c53b6ff6aa0dcafb182adb,2022-07-06_09h36.58.030,Colour_Asymmetry_Pilot,2022.1.3,Win32,60.67224851,62c50e9c1127f2cd403a315f,0,37,37,35,1,twofour,,,,,,,,,,,,,,,,,,,,,,,,,,,,,,,,,,,,,,,,,,,,,,,,,,,,,,,,,,,,,,,,,,,,,,,,,,,,,,,,,,,,,,,,,,,,,,,,,,,,,,,,,,,,,,,,,,,,,,,,,,,,,,,,,,,,,,,,,,,,,,,,,,,,,,,,,,,,,
,,,,,,6145fd744ef9af2c44486e81,62c53b6ff6aa0dcafb182adb,2022-07-06_09h36.58.030,Colour_Asymmetry_Pilot,2022.1.3,Win32,60.67224851,62c50e9c1127f2cd403a315f,0,38,38,134,1,fourtwo,,,,,,,,,,,,,,,,,,,,,,,,,,,,,,,,,,,,,,,,,,,,,,,,,,,,,,,,,,,,,,,,,,,,,,,,,,,,,,,,,,,,,,,,,,,,,,,,,,,,,,,,,,,,,,,,,,,,,,,,,,,,,,,,,,,,,,,,,,,,,,,,,,,,,,,,,,,,,
,,,,,,6145fd744ef9af2c44486e81,62c53b6ff6aa0dcafb182adb,2022-07-06_09h36.58.030,Colour_Asymmetry_Pilot,2022.1.3,Win32,60.67224851,62c50e9c1127f2cd403a315f,0,39,39,33,1,onethree,,,,,,,,,,,,,,,,,,,,,,,,,,,,,,,,,,,,,,,,,,,,,,,,,,,,,,,,,,,,,,,,,,,,,,,,,,,,,,,,,,,,,,,,,,,,,,,,,,,,,,,,,,,,,,,,,,,,,,,,,,,,,,,,,,,,,,,,,,,,,,,,,,,,,,,,,,,,,
,,,,,,6145fd744ef9af2c44486e81,62c53b6ff6aa0dcafb182adb,2022-07-06_09h36.58.030,Colour_Asymmetry_Pilot,2022.1.3,Win32,60.67224851,62c50e9c1127f2cd403a315f,0,40,40,12,1,threeone,,,,,,,,,,,,,,,,,,,,,,,,,,,,,,,,,,,,,,,,,,,,,,,,,,,,,,,,,,,,,,,,,,,,,,,,,,,,,,,,,,,,,,,,,,,,,,,,,,,,,,,,,,,,,,,,,,,,,,,,,,,,,,,,,,,,,,,,,,,,,,,,,,,,,,,,,,,,,
,,,,,,6145fd744ef9af2c44486e81,62c53b6ff6aa0dcafb182adb,2022-07-06_09h36.58.030,Colour_Asymmetry_Pilot,2022.1.3,Win32,60.67224851,62c50e9c1127f2cd403a315f,0,41,41,3,1,twofour,,,,,,,,,,,,,,,,,,,,,,,,,,,,,,,,,,,,,,,,,,,,,,,,,,,,,,,,,,,,,,,,,,,,,,,,,,,,,,,,,,,,,,,,,,,,,,,,,,,,,,,,,,,,,,,,,,,,,,,,,,,,,,,,,,,,,,,,,,,,,,,,,,,,,,,,,,,,,
,,,,,,6145fd744ef9af2c44486e81,62c53b6ff6aa0dcafb182adb,2022-07-06_09h36.58.030,Colour_Asymmetry_Pilot,2022.1.3,Win32,60.67224851,62c50e9c1127f2cd403a315f,0,42,42,135,1,fourthree,,,,,,,,,,,,,,,,,,,,,,,,,,,,,,,,,,,,,,,,,,,,,,,,,,,,,,,,,,,,,,,,,,,,,,,,,,,,,,,,,,,,,,,,,,,,,,,,,,,,,,,,,,,,,,,,,,,,,,,,,,,,,,,,,,,,,,,,,,,,,,,,,,,,,,,,,,,,,
,,,,,,6145fd744ef9af2c44486e81,62c53b6ff6aa0dcafb182adb,2022-07-06_09h36.58.030,Colour_Asymmetry_Pilot,2022.1.3,Win32,60.67224851,62c50e9c1127f2cd403a315f,0,43,43,21,1,threefour,,,,,,,,,,,,,,,,,,,,,,,,,,,,,,,,,,,,,,,,,,,,,,,,,,,,,,,,,,,,,,,,,,,,,,,,,,,,,,,,,,,,,,,,,,,,,,,,,,,,,,,,,,,,,,,,,,,,,,,,,,,,,,,,,,,,,,,,,,,,,,,,,,,,,,,,,,,,,
,,,,,,6145fd744ef9af2c44486e81,62c53b6ff6aa0dcafb182adb,2022-07-06_09h36.58.030,Colour_Asymmetry_Pilot,2022.1.3,Win32,60.67224851,62c50e9c1127f2cd403a315f,0,44,44,151,1,fourthree,,,,,,,,,,,,,,,,,,,,,,,,,,,,,,,,,,,,,,,,,,,,,,,,,,,,,,,,,,,,,,,,,,,,,,,,,,,,,,,,,,,,,,,,,,,,,,,,,,,,,,,,,,,,,,,,,,,,,,,,,,,,,,,,,,,,,,,,,,,,,,,,,,,,,,,,,,,,,
,,,,,,6145fd744ef9af2c44486e81,62c53b6ff6aa0dcafb182adb,2022-07-06_09h36.58.030,Colour_Asymmetry_Pilot,2022.1.3,Win32,60.67224851,62c50e9c1127f2cd403a315f,0,45,45,126,1,fourtwo,,,,,,,,,,,,,,,,,,,,,,,,,,,,,,,,,,,,,,,,,,,,,,,,,,,,,,,,,,,,,,,,,,,,,,,,,,,,,,,,,,,,,,,,,,,,,,,,,,,,,,,,,,,,,,,,,,,,,,,,,,,,,,,,,,,,,,,,,,,,,,,,,,,,,,,,,,,,,
,,,,,,6145fd744ef9af2c44486e81,62c53b6ff6aa0dcafb182adb,2022-07-06_09h36.58.030,Colour_Asymmetry_Pilot,2022.1.3,Win32,60.67224851,62c50e9c1127f2cd403a315f,0,46,46,37,1,threefour,,,,,,,,,,,,,,,,,,,,,,,,,,,,,,,,,,,,,,,,,,,,,,,,,,,,,,,,,,,,,,,,,,,,,,,,,,,,,,,,,,,,,,,,,,,,,,,,,,,,,,,,,,,,,,,,,,,,,,,,,,,,,,,,,,,,,,,,,,,,,,,,,,,,,,,,,,,,,
,,,,,,6145fd744ef9af2c44486e81,62c53b6ff6aa0dcafb182adb,2022-07-06_09h36.58.030,Colour_Asymmetry_Pilot,2022.1.3,Win32,60.67224851,62c50e9c1127f2cd403a315f,0,47,47,111,1,fourthree,,,,,,,,,,,,,,,,,,,,,,,,,,,,,,,,,,,,,,,,,,,,,,,,,,,,,,,,,,,,,,,,,,,,,,,,,,,,,,,,,,,,,,,,,,,,,,,,,,,,,,,,,,,,,,,,,,,,,,,,,,,,,,,,,,,,,,,,,,,,,,,,,,,,,,,,,,,,,
,,,,,,6145fd744ef9af2c44486e81,62c53b6ff6aa0dcafb182adb,2022-07-06_09h36.58.030,Colour_Asymmetry_Pilot,2022.1.3,Win32,60.67224851,62c50e9c1127f2cd403a315f,0,48,48,141,1,threefour,,,,,,,,,,,,,,,,,,,,,,,,,,,,,,,,,,,,,,,,,,,,,,,,,,,,,,,,,,,,,,,,,,,,,,,,,,,,,,,,,,,,,,,,,,,,,,,,,,,,,,,,,,,,,,,,,,,,,,,,,,,,,,,,,,,,,,,,,,,,,,,,,,,,,,,,,,,,,
,,,,,,6145fd744ef9af2c44486e81,62c53b6ff6aa0dcafb182adb,2022-07-06_09h36.58.030,Colour_Asymmetry_Pilot,2022.1.3,Win32,60.67224851,62c50e9c1127f2cd403a315f,0,49,49,156,1,threeone,,,,,,,,,,,,,,,,,,,,,,,,,,,,,,,,,,,,,,,,,,,,,,,,,,,,,,,,,,,,,,,,,,,,,,,,,,,,,,,,,,,,,,,,,,,,,,,,,,,,,,,,,,,,,,,,,,,,,,,,,,,,,,,,,,,,,,,,,,,,,,,,,,,,,,,,,,,,,
,,,,,,6145fd744ef9af2c44486e81,62c53b6ff6aa0dcafb182adb,2022-07-06_09h36.58.030,Colour_Asymmetry_Pilot,2022.1.3,Win32,60.67224851,62c50e9c1127f2cd403a315f,0,50,50,59,1,twofour,,,,,,,,,,,,,,,,,,,,,,,,,,,,,,,,,,,,,,,,,,,,,,,,,,,,,,,,,,,,,,,,,,,,,,,,,,,,,,,,,,,,,,,,,,,,,,,,,,,,,,,,,,,,,,,,,,,,,,,,,,,,,,,,,,,,,,,,,,,,,,,,,,,,,,,,,,,,,
,,,,,,6145fd744ef9af2c44486e81,62c53b6ff6aa0dcafb182adb,2022-07-06_09h36.58.030,Colour_Asymmetry_Pilot,2022.1.3,Win32,60.67224851,62c50e9c1127f2cd403a315f,0,51,51,26,1,twoone,,,,,,,,,,,,,,,,,,,,,,,,,,,,,,,,,,,,,,,,,,,,,,,,,,,,,,,,,,,,,,,,,,,,,,,,,,,,,,,,,,,,,,,,,,,,,,,,,,,,,,,,,,,,,,,,,,,,,,,,,,,,,,,,,,,,,,,,,,,,,,,,,,,,,,,,,,,,,
,,,,,,6145fd744ef9af2c44486e81,62c53b6ff6aa0dcafb182adb,2022-07-06_09h36.58.030,Colour_Asymmetry_Pilot,2022.1.3,Win32,60.67224851,62c50e9c1127f2cd403a315f,0,52,52,54,1,fourtwo,,,,,,,,,,,,,,,,,,,,,,,,,,,,,,,,,,,,,,,,,,,,,,,,,,,,,,,,,,,,,,,,,,,,,,,,,,,,,,,,,,,,,,,,,,,,,,,,,,,,,,,,,,,,,,,,,,,,,,,,,,,,,,,,,,,,,,,,,,,,,,,,,,,,,,,,,,,,,
,,,,,,6145fd744ef9af2c44486e81,62c53b6ff6aa0dcafb182adb,2022-07-06_09h36.58.030,Colour_Asymmetry_Pilot,2022.1.3,Win32,60.67224851,62c50e9c1127f2cd403a315f,0,53,53,34,1,twoone,,,,,,,,,,,,,,,,,,,,,,,,,,,,,,,,,,,,,,,,,,,,,,,,,,,,,,,,,,,,,,,,,,,,,,,,,,,,,,,,,,,,,,,,,,,,,,,,,,,,,,,,,,,,,,,,,,,,,,,,,,,,,,,,,,,,,,,,,,,,,,,,,,,,,,,,,,,,,
,,,,,,6145fd744ef9af2c44486e81,62c53b6ff6aa0dcafb182adb,2022-07-06_09h36.58.030,Colour_Asymmetry_Pilot,2022.1.3,Win32,60.67224851,62c50e9c1127f2cd403a315f,0,54,54,67,1,twofour,,,,,,,,,,,,,,,,,,,,,,,,,,,,,,,,,,,,,,,,,,,,,,,,,,,,,,,,,,,,,,,,,,,,,,,,,,,,,,,,,,,,,,,,,,,,,,,,,,,,,,,,,,,,,,,,,,,,,,,,,,,,,,,,,,,,,,,,,,,,,,,,,,,,,,,,,,,,,
,,,,,,6145fd744ef9af2c44486e81,62c53b6ff6aa0dcafb182adb,2022-07-06_09h36.58.030,Colour_Asymmetry_Pilot,2022.1.3,Win32,60.67224851,62c50e9c1127f2cd403a315f,0,55,55,109,1,threefour,,,,,,,,,,,,,,,,,,,,,,,,,,,,,,,,,,,,,,,,,,,,,,,,,,,,,,,,,,,,,,,,,,,,,,,,,,,,,,,,,,,,,,,,,,,,,,,,,,,,,,,,,,,,,,,,,,,,,,,,,,,,,,,,,,,,,,,,,,,,,,,,,,,,,,,,,,,,,
,,,,,,6145fd744ef9af2c44486e81,62c53b6ff6aa0dcafb182adb,2022-07-06_09h36.58.030,Colour_Asymmetry_Pilot,2022.1.3,Win32,60.67224851,62c50e9c1127f2cd403a315f,0,56,56,85,1,threefour,,,,,,,,,,,,,,,,,,,,,,,,,,,,,,,,,,,,,,,,,,,,,,,,,,,,,,,,,,,,,,,,,,,,,,,,,,,,,,,,,,,,,,,,,,,,,,,,,,,,,,,,,,,,,,,,,,,,,,,,,,,,,,,,,,,,,,,,,,,,,,,,,,,,,,,,,,,,,
,,,,,,6145fd744ef9af2c44486e81,62c53b6ff6aa0dcafb182adb,2022-07-06_09h36.58.030,Colour_Asymmetry_Pilot,2022.1.3,Win32,60.67224851,62c50e9c1127f2cd403a315f,0,57,57,147,1,twofour,,,,,,,,,,,,,,,,,,,,,,,,,,,,,,,,,,,,,,,,,,,,,,,,,,,,,,,,,,,,,,,,,,,,,,,,,,,,,,,,,,,,,,,,,,,,,,,,,,,,,,,,,,,,,,,,,,,,,,,,,,,,,,,,,,,,,,,,,,,,,,,,,,,,,,,,,,,,,
,,,,,,6145fd744ef9af2c44486e81,62c53b6ff6aa0dcafb182adb,2022-07-06_09h36.58.030,Colour_Asymmetry_Pilot,2022.1.3,Win32,60.67224851,62c50e9c1127f2cd403a315f,0,58,58,125,1,threefour,,,,,,,,,,,,,,,,,,,,,,,,,,,,,,,,,,,,,,,,,,,,,,,,,,,,,,,,,,,,,,,,,,,,,,,,,,,,,,,,,,,,,,,,,,,,,,,,,,,,,,,,,,,,,,,,,,,,,,,,,,,,,,,,,,,,,,,,,,,,,,,,,,,,,,,,,,,,,
,,,,,,6145fd744ef9af2c44486e81,62c53b6ff6aa0dcafb182adb,2022-07-06_09h36.58.030,Colour_Asymmetry_Pilot,2022.1.3,Win32,60.67224851,62c50e9c1127f2cd403a315f,0,59,59,130,1,twoone,,,,,,,,,,,,,,,,,,,,,,,,,,,,,,,,,,,,,,,,,,,,,,,,,,,,,,,,,,,,,,,,,,,,,,,,,,,,,,,,,,,,,,,,,,,,,,,,,,,,,,,,,,,,,,,,,,,,,,,,,,,,,,,,,,,,,,,,,,,,,,,,,,,,,,,,,,,,,
,,,,,,6145fd744ef9af2c44486e81,62c53b6ff6aa0dcafb182adb,2022-07-06_09h36.58.030,Colour_Asymmetry_Pilot,2022.1.3,Win32,60.67224851,62c50e9c1127f2cd403a315f,0,60,60,95,1,fourthree,,,,,,,,,,,,,,,,,,,,,,,,,,,,,,,,,,,,,,,,,,,,,,,,,,,,,,,,,,,,,,,,,,,,,,,,,,,,,,,,,,,,,,,,,,,,,,,,,,,,,,,,,,,,,,,,,,,,,,,,,,,,,,,,,,,,,,,,,,,,,,,,,,,,,,,,,,,,,
,,,,,,6145fd744ef9af2c44486e81,62c53b6ff6aa0dcafb182adb,2022-07-06_09h36.58.030,Colour_Asymmetry_Pilot,2022.1.3,Win32,60.67224851,62c50e9c1127f2cd403a315f,0,61,61,110,1,fourtwo,,,,,,,,,,,,,,,,,,,,,,,,,,,,,,,,,,,,,,,,,,,,,,,,,,,,,,,,,,,,,,,,,,,,,,,,,,,,,,,,,,,,,,,,,,,,,,,,,,,,,,,,,,,,,,,,,,,,,,,,,,,,,,,,,,,,,,,,,,,,,,,,,,,,,,,,,,,,,
,,,,,,6145fd744ef9af2c44486e81,62c53b6ff6aa0dcafb182adb,2022-07-06_09h36.58.030,Colour_Asymmetry_Pilot,2022.1.3,Win32,60.67224851,62c50e9c1127f2cd403a315f,0,62,62,25,1,onethree,,,,,,,,,,,,,,,,,,,,,,,,,,,,,,,,,,,,,,,,,,,,,,,,,,,,,,,,,,,,,,,,,,,,,,,,,,,,,,,,,,,,,,,,,,,,,,,,,,,,,,,,,,,,,,,,,,,,,,,,,,,,,,,,,,,,,,,,,,,,,,,,,,,,,,,,,,,,,
,,,,,,6145fd744ef9af2c44486e81,62c53b6ff6aa0dcafb182adb,2022-07-06_09h36.58.030,Colour_Asymmetry_Pilot,2022.1.3,Win32,60.67224851,62c50e9c1127f2cd403a315f,0,63,63,10,1,twoone,,,,,,,,,,,,,,,,,,,,,,,,,,,,,,,,,,,,,,,,,,,,,,,,,,,,,,,,,,,,,,,,,,,,,,,,,,,,,,,,,,,,,,,,,,,,,,,,,,,,,,,,,,,,,,,,,,,,,,,,,,,,,,,,,,,,,,,,,,,,,,,,,,,,,,,,,,,,,
,,,,,,6145fd744ef9af2c44486e81,62c53b6ff6aa0dcafb182adb,2022-07-06_09h36.58.030,Colour_Asymmetry_Pilot,2022.1.3,Win32,60.67224851,62c50e9c1127f2cd403a315f,0,64,64,161,1,onethree,,,,,,,,,,,,,,,,,,,,,,,,,,,,,,,,,,,,,,,,,,,,,,,,,,,,,,,,,,,,,,,,,,,,,,,,,,,,,,,,,,,,,,,,,,,,,,,,,,,,,,,,,,,,,,,,,,,,,,,,,,,,,,,,,,,,,,,,,,,,,,,,,,,,,,,,,,,,,
,,,,,,6145fd744ef9af2c44486e81,62c53b6ff6aa0dcafb182adb,2022-07-06_09h36.58.030,Colour_Asymmetry_Pilot,2022.1.3,Win32,60.67224851,62c50e9c1127f2cd403a315f,0,65,65,29,1,threefour,,,,,,,,,,,,,,,,,,,,,,,,,,,,,,,,,,,,,,,,,,,,,,,,,,,,,,,,,,,,,,,,,,,,,,,,,,,,,,,,,,,,,,,,,,,,,,,,,,,,,,,,,,,,,,,,,,,,,,,,,,,,,,,,,,,,,,,,,,,,,,,,,,,,,,,,,,,,,
,,,,,,6145fd744ef9af2c44486e81,62c53b6ff6aa0dcafb182adb,2022-07-06_09h36.58.030,Colour_Asymmetry_Pilot,2022.1.3,Win32,60.67224851,62c50e9c1127f2cd403a315f,0,66,66,106,1,twoone,,,,,,,,,,,,,,,,,,,,,,,,,,,,,,,,,,,,,,,,,,,,,,,,,,,,,,,,,,,,,,,,,,,,,,,,,,,,,,,,,,,,,,,,,,,,,,,,,,,,,,,,,,,,,,,,,,,,,,,,,,,,,,,,,,,,,,,,,,,,,,,,,,,,,,,,,,,,,
,,,,,,6145fd744ef9af2c44486e81,62c53b6ff6aa0dcafb182adb,2022-07-06_09h36.58.030,Colour_Asymmetry_Pilot,2022.1.3,Win32,60.67224851,62c50e9c1127f2cd403a315f,0,67,67,71,1,fourthree,,,,,,,,,,,,,,,,,,,,,,,,,,,,,,,,,,,,,,,,,,,,,,,,,,,,,,,,,,,,,,,,,,,,,,,,,,,,,,,,,,,,,,,,,,,,,,,,,,,,,,,,,,,,,,,,,,,,,,,,,,,,,,,,,,,,,,,,,,,,,,,,,,,,,,,,,,,,,
,,,,,,6145fd744ef9af2c44486e81,62c53b6ff6aa0dcafb182adb,2022-07-06_09h36.58.030,Colour_Asymmetry_Pilot,2022.1.3,Win32,60.67224851,62c50e9c1127f2cd403a315f,0,68,68,60,1,threeone,,,,,,,,,,,,,,,,,,,,,,,,,,,,,,,,,,,,,,,,,,,,,,,,,,,,,,,,,,,,,,,,,,,,,,,,,,,,,,,,,,,,,,,,,,,,,,,,,,,,,,,,,,,,,,,,,,,,,,,,,,,,,,,,,,,,,,,,,,,,,,,,,,,,,,,,,,,,,
,,,,,,6145fd744ef9af2c44486e81,62c53b6ff6aa0dcafb182adb,2022-07-06_09h36.58.030,Colour_Asymmetry_Pilot,2022.1.3,Win32,60.67224851,62c50e9c1127f2cd403a315f,0,69,69,43,1,twofour,,,,,,,,,,,,,,,,,,,,,,,,,,,,,,,,,,,,,,,,,,,,,,,,,,,,,,,,,,,,,,,,,,,,,,,,,,,,,,,,,,,,,,,,,,,,,,,,,,,,,,,,,,,,,,,,,,,,,,,,,,,,,,,,,,,,,,,,,,,,,,,,,,,,,,,,,,,,,
,,,,,,6145fd744ef9af2c44486e81,62c53b6ff6aa0dcafb182adb,2022-07-06_09h36.58.030,Colour_Asymmetry_Pilot,2022.1.3,Win32,60.67224851,62c50e9c1127f2cd403a315f,0,70,70,61,1,threefour,,,,,,,,,,,,,,,,,,,,,,,,,,,,,,,,,,,,,,,,,,,,,,,,,,,,,,,,,,,,,,,,,,,,,,,,,,,,,,,,,,,,,,,,,,,,,,,,,,,,,,,,,,,,,,,,,,,,,,,,,,,,,,,,,,,,,,,,,,,,,,,,,,,,,,,,,,,,,
,,,,,,6145fd744ef9af2c44486e81,62c53b6ff6aa0dcafb182adb,2022-07-06_09h36.58.030,Colour_Asymmetry_Pilot,2022.1.3,Win32,60.67224851,62c50e9c1127f2cd403a315f,0,71,71,121,1,onethree,,,,,,,,,,,,,,,,,,,,,,,,,,,,,,,,,,,,,,,,,,,,,,,,,,,,,,,,,,,,,,,,,,,,,,,,,,,,,,,,,,,,,,,,,,,,,,,,,,,,,,,,,,,,,,,,,,,,,,,,,,,,,,,,,,,,,,,,,,,,,,,,,,,,,,,,,,,,,
,,,,,,6145fd744ef9af2c44486e81,62c53b6ff6aa0dcafb182adb,2022-07-06_09h36.58.030,Colour_Asymmetry_Pilot,2022.1.3,Win32,60.67224851,62c50e9c1127f2cd403a315f,0,72,72,129,1,onethree,,,,,,,,,,,,,,,,,,,,,,,,,,,,,,,,,,,,,,,,,,,,,,,,,,,,,,,,,,,,,,,,,,,,,,,,,,,,,,,,,,,,,,,,,,,,,,,,,,,,,,,,,,,,,,,,,,,,,,,,,,,,,,,,,,,,,,,,,,,,,,,,,,,,,,,,,,,,,
,,,,,,6145fd744ef9af2c44486e81,62c53b6ff6aa0dcafb182adb,2022-07-06_09h36.58.030,Colour_Asymmetry_Pilot,2022.1.3,Win32,60.67224851,62c50e9c1127f2cd403a315f,0,73,73,30,1,fourtwo,,,,,,,,,,,,,,,,,,,,,,,,,,,,,,,,,,,,,,,,,,,,,,,,,,,,,,,,,,,,,,,,,,,,,,,,,,,,,,,,,,,,,,,,,,,,,,,,,,,,,,,,,,,,,,,,,,,,,,,,,,,,,,,,,,,,,,,,,,,,,,,,,,,,,,,,,,,,,
,,,,,,6145fd744ef9af2c44486e81,62c53b6ff6aa0dcafb182adb,2022-07-06_09h36.58.030,Colour_Asymmetry_Pilot,2022.1.3,Win32,60.67224851,62c50e9c1127f2cd403a315f,0,74,74,154,1,twoone,,,,,,,,,,,,,,,,,,,,,,,,,,,,,,,,,,,,,,,,,,,,,,,,,,,,,,,,,,,,,,,,,,,,,,,,,,,,,,,,,,,,,,,,,,,,,,,,,,,,,,,,,,,,,,,,,,,,,,,,,,,,,,,,,,,,,,,,,,,,,,,,,,,,,,,,,,,,,
,,,,,,6145fd744ef9af2c44486e81,62c53b6ff6aa0dcafb182adb,2022-07-06_09h36.58.030,Colour_Asymmetry_Pilot,2022.1.3,Win32,60.67224851,62c50e9c1127f2cd403a315f,0,75,75,112,1,onetwo,,,,,,,,,,,,,,,,,,,,,,,,,,,,,,,,,,,,,,,,,,,,,,,,,,,,,,,,,,,,,,,,,,,,,,,,,,,,,,,,,,,,,,,,,,,,,,,,,,,,,,,,,,,,,,,,,,,,,,,,,,,,,,,,,,,,,,,,,,,,,,,,,,,,,,,,,,,,,
,,,,,,6145fd744ef9af2c44486e81,62c53b6ff6aa0dcafb182adb,2022-07-06_09h36.58.030,Colour_Asymmetry_Pilot,2022.1.3,Win32,60.67224851,62c50e9c1127f2cd403a315f,0,76,76,6,1,fourtwo,,,,,,,,,,,,,,,,,,,,,,,,,,,,,,,,,,,,,,,,,,,,,,,,,,,,,,,,,,,,,,,,,,,,,,,,,,,,,,,,,,,,,,,,,,,,,,,,,,,,,,,,,,,,,,,,,,,,,,,,,,,,,,,,,,,,,,,,,,,,,,,,,,,,,,,,,,,,,
,,,,,,6145fd744ef9af2c44486e81,62c53b6ff6aa0dcafb182adb,2022-07-06_09h36.58.030,Colour_Asymmetry_Pilot,2022.1.3,Win32,60.67224851,62c50e9c1127f2cd403a315f,0,77,77,70,1,fourtwo,,,,,,,,,,,,,,,,,,,,,,,,,,,,,,,,,,,,,,,,,,,,,,,,,,,,,,,,,,,,,,,,,,,,,,,,,,,,,,,,,,,,,,,,,,,,,,,,,,,,,,,,,,,,,,,,,,,,,,,,,,,,,,,,,,,,,,,,,,,,,,,,,,,,,,,,,,,,,
,,,,,,6145fd744ef9af2c44486e81,62c53b6ff6aa0dcafb182adb,2022-07-06_09h36.58.030,Colour_Asymmetry_Pilot,2022.1.3,Win32,60.67224851,62c50e9c1127f2cd403a315f,0,78,78,48,1,onetwo,,,,,,,,,,,,,,,,,,,,,,,,,,,,,,,,,,,,,,,,,,,,,,,,,,,,,,,,,,,,,,,,,,,,,,,,,,,,,,,,,,,,,,,,,,,,,,,,,,,,,,,,,,,,,,,,,,,,,,,,,,,,,,,,,,,,,,,,,,,,,,,,,,,,,,,,,,,,,
,,,,,,6145fd744ef9af2c44486e81,62c53b6ff6aa0dcafb182adb,2022-07-06_09h36.58.030,Colour_Asymmetry_Pilot,2022.1.3,Win32,60.67224851,62c50e9c1127f2cd403a315f,0,79,79,38,1,fourtwo,,,,,,,,,,,,,,,,,,,,,,,,,,,,,,,,,,,,,,,,,,,,,,,,,,,,,,,,,,,,,,,,,,,,,,,,,,,,,,,,,,,,,,,,,,,,,,,,,,,,,,,,,,,,,,,,,,,,,,,,,,,,,,,,,,,,,,,,,,,,,,,,,,,,,,,,,,,,,
,,,,,,6145fd744ef9af2c44486e81,62c53b6ff6aa0dcafb182adb,2022-07-06_09h36.58.030,Colour_Asymmetry_Pilot,2022.1.3,Win32,60.67224851,62c50e9c1127f2cd403a315f,0,80,80,137,1,onethree,,,,,,,,,,,,,,,,,,,,,,,,,,,,,,,,,,,,,,,,,,,,,,,,,,,,,,,,,,,,,,,,,,,,,,,,,,,,,,,,,,,,,,,,,,,,,,,,,,,,,,,,,,,,,,,,,,,,,,,,,,,,,,,,,,,,,,,,,,,,,,,,,,,,,,,,,,,,,
,,,,,,6145fd744ef9af2c44486e81,62c53b6ff6aa0dcafb182adb,2022-07-06_09h36.58.030,Colour_Asymmetry_Pilot,2022.1.3,Win32,60.67224851,62c50e9c1127f2cd403a315f,0,81,81,118,1,fourtwo,,,,,,,,,,,,,,,,,,,,,,,,,,,,,,,,,,,,,,,,,,,,,,,,,,,,,,,,,,,,,,,,,,,,,,,,,,,,,,,,,,,,,,,,,,,,,,,,,,,,,,,,,,,,,,,,,,,,,,,,,,,,,,,,,,,,,,,,,,,,,,,,,,,,,,,,,,,,,
,,,,,,6145fd744ef9af2c44486e81,62c53b6ff6aa0dcafb182adb,2022-07-06_09h36.58.030,Colour_Asymmetry_Pilot,2022.1.3,Win32,60.67224851,62c50e9c1127f2cd403a315f,0,82,82,82,1,twoone,,,,,,,,,,,,,,,,,,,,,,,,,,,,,,,,,,,,,,,,,,,,,,,,,,,,,,,,,,,,,,,,,,,,,,,,,,,,,,,,,,,,,,,,,,,,,,,,,,,,,,,,,,,,,,,,,,,,,,,,,,,,,,,,,,,,,,,,,,,,,,,,,,,,,,,,,,,,,
,,,,,,6145fd744ef9af2c44486e81,62c53b6ff6aa0dcafb182adb,2022-07-06_09h36.58.030,Colour_Asymmetry_Pilot,2022.1.3,Win32,60.67224851,62c50e9c1127f2cd403a315f,0,83,83,45,1,threefour,,,,,,,,,,,,,,,,,,,,,,,,,,,,,,,,,,,,,,,,,,,,,,,,,,,,,,,,,,,,,,,,,,,,,,,,,,,,,,,,,,,,,,,,,,,,,,,,,,,,,,,,,,,,,,,,,,,,,,,,,,,,,,,,,,,,,,,,,,,,,,,,,,,,,,,,,,,,,
,,,,,,6145fd744ef9af2c44486e81,62c53b6ff6aa0dcafb182adb,2022-07-06_09h36.58.030,Colour_Asymmetry_Pilot,2022.1.3,Win32,60.67224851,62c50e9c1127f2cd403a315f,0,84,84,138,1,twoone,,,,,,,,,,,,,,,,,,,,,,,,,,,,,,,,,,,,,,,,,,,,,,,,,,,,,,,,,,,,,,,,,,,,,,,,,,,,,,,,,,,,,,,,,,,,,,,,,,,,,,,,,,,,,,,,,,,,,,,,,,,,,,,,,,,,,,,,,,,,,,,,,,,,,,,,,,,,,
,,,,,,6145fd744ef9af2c44486e81,62c53b6ff6aa0dcafb182adb,2022-07-06_09h36.58.030,Colour_Asymmetry_Pilot,2022.1.3,Win32,60.67224851,62c50e9c1127f2cd403a315f,0,85,85,91,1,twofour,,,,,,,,,,,,,,,,,,,,,,,,,,,,,,,,,,,,,,,,,,,,,,,,,,,,,,,,,,,,,,,,,,,,,,,,,,,,,,,,,,,,,,,,,,,,,,,,,,,,,,,,,,,,,,,,,,,,,,,,,,,,,,,,,,,,,,,,,,,,,,,,,,,,,,,,,,,,,
,,,,,,6145fd744ef9af2c44486e81,62c53b6ff6aa0dcafb182adb,2022-07-06_09h36.58.030,Colour_Asymmetry_Pilot,2022.1.3,Win32,60.67224851,62c50e9c1127f2cd403a315f,0,86,86,1,1,onethree,,,,,,,,,,,,,,,,,,,,,,,,,,,,,,,,,,,,,,,,,,,,,,,,,,,,,,,,,,,,,,,,,,,,,,,,,,,,,,,,,,,,,,,,,,,,,,,,,,,,,,,,,,,,,,,,,,,,,,,,,,,,,,,,,,,,,,,,,,,,,,,,,,,,,,,,,,,,,
,,,,,,6145fd744ef9af2c44486e81,62c53b6ff6aa0dcafb182adb,2022-07-06_09h36.58.030,Colour_Asymmetry_Pilot,2022.1.3,Win32,60.67224851,62c50e9c1127f2cd403a315f,0,87,87,40,1,onetwo,,,,,,,,,,,,,,,,,,,,,,,,,,,,,,,,,,,,,,,,,,,,,,,,,,,,,,,,,,,,,,,,,,,,,,,,,,,,,,,,,,,,,,,,,,,,,,,,,,,,,,,,,,,,,,,,,,,,,,,,,,,,,,,,,,,,,,,,,,,,,,,,,,,,,,,,,,,,,
,,,,,,6145fd744ef9af2c44486e81,62c53b6ff6aa0dcafb182adb,2022-07-06_09h36.58.030,Colour_Asymmetry_Pilot,2022.1.3,Win32,60.67224851,62c50e9c1127f2cd403a315f,0,88,88,24,1,onetwo,,,,,,,,,,,,,,,,,,,,,,,,,,,,,,,,,,,,,,,,,,,,,,,,,,,,,,,,,,,,,,,,,,,,,,,,,,,,,,,,,,,,,,,,,,,,,,,,,,,,,,,,,,,,,,,,,,,,,,,,,,,,,,,,,,,,,,,,,,,,,,,,,,,,,,,,,,,,,
,,,,,,6145fd744ef9af2c44486e81,62c53b6ff6aa0dcafb182adb,2022-07-06_09h36.58.030,Colour_Asymmetry_Pilot,2022.1.3,Win32,60.67224851,62c50e9c1127f2cd403a315f,0,89,89,128,1,onetwo,,,,,,,,,,,,,,,,,,,,,,,,,,,,,,,,,,,,,,,,,,,,,,,,,,,,,,,,,,,,,,,,,,,,,,,,,,,,,,,,,,,,,,,,,,,,,,,,,,,,,,,,,,,,,,,,,,,,,,,,,,,,,,,,,,,,,,,,,,,,,,,,,,,,,,,,,,,,,
,,,,,,6145fd744ef9af2c44486e81,62c53b6ff6aa0dcafb182adb,2022-07-06_09h36.58.030,Colour_Asymmetry_Pilot,2022.1.3,Win32,60.67224851,62c50e9c1127f2cd403a315f,0,90,90,131,1,twofour,,,,,,,,,,,,,,,,,,,,,,,,,,,,,,,,,,,,,,,,,,,,,,,,,,,,,,,,,,,,,,,,,,,,,,,,,,,,,,,,,,,,,,,,,,,,,,,,,,,,,,,,,,,,,,,,,,,,,,,,,,,,,,,,,,,,,,,,,,,,,,,,,,,,,,,,,,,,,
,,,,,,6145fd744ef9af2c44486e81,62c53b6ff6aa0dcafb182adb,2022-07-06_09h36.58.030,Colour_Asymmetry_Pilot,2022.1.3,Win32,60.67224851,62c50e9c1127f2cd403a315f,0,91,91,52,1,threeone,,,,,,,,,,,,,,,,,,,,,,,,,,,,,,,,,,,,,,,,,,,,,,,,,,,,,,,,,,,,,,,,,,,,,,,,,,,,,,,,,,,,,,,,,,,,,,,,,,,,,,,,,,,,,,,,,,,,,,,,,,,,,,,,,,,,,,,,,,,,,,,,,,,,,,,,,,,,,
,,,,,,6145fd744ef9af2c44486e81,62c53b6ff6aa0dcafb182adb,2022-07-06_09h36.58.030,Colour_Asymmetry_Pilot,2022.1.3,Win32,60.67224851,62c50e9c1127f2cd403a315f,0,92,92,92,1,threeone,,,,,,,,,,,,,,,,,,,,,,,,,,,,,,,,,,,,,,,,,,,,,,,,,,,,,,,,,,,,,,,,,,,,,,,,,,,,,,,,,,,,,,,,,,,,,,,,,,,,,,,,,,,,,,,,,,,,,,,,,,,,,,,,,,,,,,,,,,,,,,,,,,,,,,,,,,,,,
,,,,,,6145fd744ef9af2c44486e81,62c53b6ff6aa0dcafb182adb,2022-07-06_09h36.58.030,Colour_Asymmetry_Pilot,2022.1.3,Win32,60.67224851,62c50e9c1127f2cd403a315f,0,93,93,2,1,twoone,,,,,,,,,,,,,,,,,,,,,,,,,,,,,,,,,,,,,,,,,,,,,,,,,,,,,,,,,,,,,,,,,,,,,,,,,,,,,,,,,,,,,,,,,,,,,,,,,,,,,,,,,,,,,,,,,,,,,,,,,,,,,,,,,,,,,,,,,,,,,,,,,,,,,,,,,,,,,
,,,,,,6145fd744ef9af2c44486e81,62c53b6ff6aa0dcafb182adb,2022-07-06_09h36.58.030,Colour_Asymmetry_Pilot,2022.1.3,Win32,60.67224851,62c50e9c1127f2cd403a315f,0,94,94,158,1,fourtwo,,,,,,,,,,,,,,,,,,,,,,,,,,,,,,,,,,,,,,,,,,,,,,,,,,,,,,,,,,,,,,,,,,,,,,,,,,,,,,,,,,,,,,,,,,,,,,,,,,,,,,,,,,,,,,,,,,,,,,,,,,,,,,,,,,,,,,,,,,,,,,,,,,,,,,,,,,,,,
,,,,,,6145fd744ef9af2c44486e81,62c53b6ff6aa0dcafb182adb,2022-07-06_09h36.58.030,Colour_Asymmetry_Pilot,2022.1.3,Win32,60.67224851,62c50e9c1127f2cd403a315f,0,95,95,146,1,twoone,,,,,,,,,,,,,,,,,,,,,,,,,,,,,,,,,,,,,,,,,,,,,,,,,,,,,,,,,,,,,,,,,,,,,,,,,,,,,,,,,,,,,,,,,,,,,,,,,,,,,,,,,,,,,,,,,,,,,,,,,,,,,,,,,,,,,,,,,,,,,,,,,,,,,,,,,,,,,
,,,,,,6145fd744ef9af2c44486e81,62c53b6ff6aa0dcafb182adb,2022-07-06_09h36.58.030,Colour_Asymmetry_Pilot,2022.1.3,Win32,60.67224851,62c50e9c1127f2cd403a315f,0,96,96,68,1,threeone,,,,,,,,,,,,,,,,,,,,,,,,,,,,,,,,,,,,,,,,,,,,,,,,,,,,,,,,,,,,,,,,,,,,,,,,,,,,,,,,,,,,,,,,,,,,,,,,,,,,,,,,,,,,,,,,,,,,,,,,,,,,,,,,,,,,,,,,,,,,,,,,,,,,,,,,,,,,,
,,,,,,6145fd744ef9af2c44486e81,62c53b6ff6aa0dcafb182adb,2022-07-06_09h36.58.030,Colour_Asymmetry_Pilot,2022.1.3,Win32,60.67224851,62c50e9c1127f2cd403a315f,0,97,97,72,1,onetwo,,,,,,,,,,,,,,,,,,,,,,,,,,,,,,,,,,,,,,,,,,,,,,,,,,,,,,,,,,,,,,,,,,,,,,,,,,,,,,,,,,,,,,,,,,,,,,,,,,,,,,,,,,,,,,,,,,,,,,,,,,,,,,,,,,,,,,,,,,,,,,,,,,,,,,,,,,,,,
,,,,,,6145fd744ef9af2c44486e81,62c53b6ff6aa0dcafb182adb,2022-07-06_09h36.58.030,Colour_Asymmetry_Pilot,2022.1.3,Win32,60.67224851,62c50e9c1127f2cd403a315f,0,98,98,145,1,onethree,,,,,,,,,,,,,,,,,,,,,,,,,,,,,,,,,,,,,,,,,,,,,,,,,,,,,,,,,,,,,,,,,,,,,,,,,,,,,,,,,,,,,,,,,,,,,,,,,,,,,,,,,,,,,,,,,,,,,,,,,,,,,,,,,,,,,,,,,,,,,,,,,,,,,,,,,,,,,
,,,,,,6145fd744ef9af2c44486e81,62c53b6ff6aa0dcafb182adb,2022-07-06_09h36.58.030,Colour_Asymmetry_Pilot,2022.1.3,Win32,60.67224851,62c50e9c1127f2cd403a315f,0,99,99,15,1,fourthree,,,,,,,,,,,,,,,,,,,,,,,,,,,,,,,,,,,,,,,,,,,,,,,,,,,,,,,,,,,,,,,,,,,,,,,,,,,,,,,,,,,,,,,,,,,,,,,,,,,,,,,,,,,,,,,,,,,,,,,,,,,,,,,,,,,,,,,,,,,,,,,,,,,,,,,,,,,,,
,,,,,,6145fd744ef9af2c44486e81,62c53b6ff6aa0dcafb182adb,2022-07-06_09h36.58.030,Colour_Asymmetry_Pilot,2022.1.3,Win32,60.67224851,62c50e9c1127f2cd403a315f,0,100,100,88,1,onetwo,,,,,,,,,,,,,,,,,,,,,,,,,,,,,,,,,,,,,,,,,,,,,,,,,,,,,,,,,,,,,,,,,,,,,,,,,,,,,,,,,,,,,,,,,,,,,,,,,,,,,,,,,,,,,,,,,,,,,,,,,,,,,,,,,,,,,,,,,,,,,,,,,,,,,,,,,,,,,
,,,,,,6145fd744ef9af2c44486e81,62c53b6ff6aa0dcafb182adb,2022-07-06_09h36.58.030,Colour_Asymmetry_Pilot,2022.1.3,Win32,60.67224851,62c50e9c1127f2cd403a315f,0,101,101,136,1,onetwo,,,,,,,,,,,,,,,,,,,,,,,,,,,,,,,,,,,,,,,,,,,,,,,,,,,,,,,,,,,,,,,,,,,,,,,,,,,,,,,,,,,,,,,,,,,,,,,,,,,,,,,,,,,,,,,,,,,,,,,,,,,,,,,,,,,,,,,,,,,,,,,,,,,,,,,,,,,,,
,,,,,,6145fd744ef9af2c44486e81,62c53b6ff6aa0dcafb182adb,2022-07-06_09h36.58.030,Colour_Asymmetry_Pilot,2022.1.3,Win32,60.67224851,62c50e9c1127f2cd403a315f,0,102,102,90,1,twoone,,,,,,,,,,,,,,,,,,,,,,,,,,,,,,,,,,,,,,,,,,,,,,,,,,,,,,,,,,,,,,,,,,,,,,,,,,,,,,,,,,,,,,,,,,,,,,,,,,,,,,,,,,,,,,,,,,,,,,,,,,,,,,,,,,,,,,,,,,,,,,,,,,,,,,,,,,,,,
,,,,,,6145fd744ef9af2c44486e81,62c53b6ff6aa0dcafb182adb,2022-07-06_09h36.58.030,Colour_Asymmetry_Pilot,2022.1.3,Win32,60.67224851,62c50e9c1127f2cd403a315f,0,103,103,18,1,twoone,,,,,,,,,,,,,,,,,,,,,,,,,,,,,,,,,,,,,,,,,,,,,,,,,,,,,,,,,,,,,,,,,,,,,,,,,,,,,,,,,,,,,,,,,,,,,,,,,,,,,,,,,,,,,,,,,,,,,,,,,,,,,,,,,,,,,,,,,,,,,,,,,,,,,,,,,,,,,
,,,,,,6145fd744ef9af2c44486e81,62c53b6ff6aa0dcafb182adb,2022-07-06_09h36.58.030,Colour_Asymmetry_Pilot,2022.1.3,Win32,60.67224851,62c50e9c1127f2cd403a315f,0,104,104,62,1,fourtwo,,,,,,,,,,,,,,,,,,,,,,,,,,,,,,,,,,,,,,,,,,,,,,,,,,,,,,,,,,,,,,,,,,,,,,,,,,,,,,,,,,,,,,,,,,,,,,,,,,,,,,,,,,,,,,,,,,,,,,,,,,,,,,,,,,,,,,,,,,,,,,,,,,,,,,,,,,,,,
,,,,,,6145fd744ef9af2c44486e81,62c53b6ff6aa0dcafb182adb,2022-07-06_09h36.58.030,Colour_Asymmetry_Pilot,2022.1.3,Win32,60.67224851,62c50e9c1127f2cd403a315f,0,105,105,76,1,threeone,,,,,,,,,,,,,,,,,,,,,,,,,,,,,,,,,,,,,,,,,,,,,,,,,,,,,,,,,,,,,,,,,,,,,,,,,,,,,,,,,,,,,,,,,,,,,,,,,,,,,,,,,,,,,,,,,,,,,,,,,,,,,,,,,,,,,,,,,,,,,,,,,,,,,,,,,,,,,
,,,,,,6145fd744ef9af2c44486e81,62c53b6ff6aa0dcafb182adb,2022-07-06_09h36.58.030,Colour_Asymmetry_Pilot,2022.1.3,Win32,60.67224851,62c50e9c1127f2cd403a315f,0,106,106,75,1,twofour,,,,,,,,,,,,,,,,,,,,,,,,,,,,,,,,,,,,,,,,,,,,,,,,,,,,,,,,,,,,,,,,,,,,,,,,,,,,,,,,,,,,,,,,,,,,,,,,,,,,,,,,,,,,,,,,,,,,,,,,,,,,,,,,,,,,,,,,,,,,,,,,,,,,,,,,,,,,,
,,,,,,6145fd744ef9af2c44486e81,62c53b6ff6aa0dcafb182adb,2022-07-06_09h36.58.030,Colour_Asymmetry_Pilot,2022.1.3,Win32,60.67224851,62c50e9c1127f2cd403a315f,0,107,107,148,1,threeone,,,,,,,,,,,,,,,,,,,,,,,,,,,,,,,,,,,,,,,,,,,,,,,,,,,,,,,,,,,,,,,,,,,,,,,,,,,,,,,,,,,,,,,,,,,,,,,,,,,,,,,,,,,,,,,,,,,,,,,,,,,,,,,,,,,,,,,,,,,,,,,,,,,,,,,,,,,,,
,,,,,,6145fd744ef9af2c44486e81,62c53b6ff6aa0dcafb182adb,2022-07-06_09h36.58.030,Colour_Asymmetry_Pilot,2022.1.3,Win32,60.67224851,62c50e9c1127f2cd403a315f,0,108,108,56,1,onetwo,,,,,,,,,,,,,,,,,,,,,,,,,,,,,,,,,,,,,,,,,,,,,,,,,,,,,,,,,,,,,,,,,,,,,,,,,,,,,,,,,,,,,,,,,,,,,,,,,,,,,,,,,,,,,,,,,,,,,,,,,,,,,,,,,,,,,,,,,,,,,,,,,,,,,,,,,,,,,
,,,,,,6145fd744ef9af2c44486e81,62c53b6ff6aa0dcafb182adb,2022-07-06_09h36.58.030,Colour_Asymmetry_Pilot,2022.1.3,Win32,60.67224851,62c50e9c1127f2cd403a315f,0,109,109,116,1,threeone,,,,,,,,,,,,,,,,,,,,,,,,,,,,,,,,,,,,,,,,,,,,,,,,,,,,,,,,,,,,,,,,,,,,,,,,,,,,,,,,,,,,,,,,,,,,,,,,,,,,,,,,,,,,,,,,,,,,,,,,,,,,,,,,,,,,,,,,,,,,,,,,,,,,,,,,,,,,,
,,,,,,6145fd744ef9af2c44486e81,62c53b6ff6aa0dcafb182adb,2022-07-06_09h36.58.030,Colour_Asymmetry_Pilot,2022.1.3,Win32,60.67224851,62c50e9c1127f2cd403a315f,0,110,110,11,1,twofour,,,,,,,,,,,,,,,,,,,,,,,,,,,,,,,,,,,,,,,,,,,,,,,,,,,,,,,,,,,,,,,,,,,,,,,,,,,,,,,,,,,,,,,,,,,,,,,,,,,,,,,,,,,,,,,,,,,,,,,,,,,,,,,,,,,,,,,,,,,,,,,,,,,,,,,,,,,,,
,,,,,,6145fd744ef9af2c44486e81,62c53b6ff6aa0dcafb182adb,2022-07-06_09h36.58.030,Colour_Asymmetry_Pilot,2022.1.3,Win32,60.67224851,62c50e9c1127f2cd403a315f,0,111,111,96,1,onetwo,,,,,,,,,,,,,,,,,,,,,,,,,,,,,,,,,,,,,,,,,,,,,,,,,,,,,,,,,,,,,,,,,,,,,,,,,,,,,,,,,,,,,,,,,,,,,,,,,,,,,,,,,,,,,,,,,,,,,,,,,,,,,,,,,,,,,,,,,,,,,,,,,,,,,,,,,,,,,
,,,,,,6145fd744ef9af2c44486e81,62c53b6ff6aa0dcafb182adb,2022-07-06_09h36.58.030,Colour_Asymmetry_Pilot,2022.1.3,Win32,60.67224851,62c50e9c1127f2cd403a315f,0,112,112,143,1,fourthree,,,,,,,,,,,,,,,,,,,,,,,,,,,,,,,,,,,,,,,,,,,,,,,,,,,,,,,,,,,,,,,,,,,,,,,,,,,,,,,,,,,,,,,,,,,,,,,,,,,,,,,,,,,,,,,,,,,,,,,,,,,,,,,,,,,,,,,,,,,,,,,,,,,,,,,,,,,,,
,,,,,,6145fd744ef9af2c44486e81,62c53b6ff6aa0dcafb182adb,2022-07-06_09h36.58.030,Colour_Asymmetry_Pilot,2022.1.3,Win32,60.67224851,62c50e9c1127f2cd403a315f,0,113,113,144,1,onetwo,,,,,,,,,,,,,,,,,,,,,,,,,,,,,,,,,,,,,,,,,,,,,,,,,,,,,,,,,,,,,,,,,,,,,,,,,,,,,,,,,,,,,,,,,,,,,,,,,,,,,,,,,,,,,,,,,,,,,,,,,,,,,,,,,,,,,,,,,,,,,,,,,,,,,,,,,,,,,
,,,,,,6145fd744ef9af2c44486e81,62c53b6ff6aa0dcafb182adb,2022-07-06_09h36.58.030,Colour_Asymmetry_Pilot,2022.1.3,Win32,60.67224851,62c50e9c1127f2cd403a315f,0,114,114,140,1,threeone,,,,,,,,,,,,,,,,,,,,,,,,,,,,,,,,,,,,,,,,,,,,,,,,,,,,,,,,,,,,,,,,,,,,,,,,,,,,,,,,,,,,,,,,,,,,,,,,,,,,,,,,,,,,,,,,,,,,,,,,,,,,,,,,,,,,,,,,,,,,,,,,,,,,,,,,,,,,,
,,,,,,6145fd744ef9af2c44486e81,62c53b6ff6aa0dcafb182adb,2022-07-06_09h36.58.030,Colour_Asymmetry_Pilot,2022.1.3,Win32,60.67224851,62c50e9c1127f2cd403a315f,0,115,115,49,1,onethree,,,,,,,,,,,,,,,,,,,,,,,,,,,,,,,,,,,,,,,,,,,,,,,,,,,,,,,,,,,,,,,,,,,,,,,,,,,,,,,,,,,,,,,,,,,,,,,,,,,,,,,,,,,,,,,,,,,,,,,,,,,,,,,,,,,,,,,,,,,,,,,,,,,,,,,,,,,,,
,,,,,,6145fd744ef9af2c44486e81,62c53b6ff6aa0dcafb182adb,2022-07-06_09h36.58.030,Colour_Asymmetry_Pilot,2022.1.3,Win32,60.67224851,62c50e9c1127f2cd403a315f,0,116,116,8,1,onetwo,,,,,,,,,,,,,,,,,,,,,,,,,,,,,,,,,,,,,,,,,,,,,,,,,,,,,,,,,,,,,,,,,,,,,,,,,,,,,,,,,,,,,,,,,,,,,,,,,,,,,,,,,,,,,,,,,,,,,,,,,,,,,,,,,,,,,,,,,,,,,,,,,,,,,,,,,,,,,
,,,,,,6145fd744ef9af2c44486e81,62c53b6ff6aa0dcafb182adb,2022-07-06_09h36.58.030,Colour_Asymmetry_Pilot,2022.1.3,Win32,60.67224851,62c50e9c1127f2cd403a315f,0,117,117,124,1,threeone,,,,,,,,,,,,,,,,,,,,,,,,,,,,,,,,,,,,,,,,,,,,,,,,,,,,,,,,,,,,,,,,,,,,,,,,,,,,,,,,,,,,,,,,,,,,,,,,,,,,,,,,,,,,,,,,,,,,,,,,,,,,,,,,,,,,,,,,,,,,,,,,,,,,,,,,,,,,,
,,,,,,6145fd744ef9af2c44486e81,62c53b6ff6aa0dcafb182adb,2022-07-06_09h36.58.030,Colour_Asymmetry_Pilot,2022.1.3,Win32,60.67224851,62c50e9c1127f2cd403a315f,0,118,118,97,1,onethree,,,,,,,,,,,,,,,,,,,,,,,,,,,,,,,,,,,,,,,,,,,,,,,,,,,,,,,,,,,,,,,,,,,,,,,,,,,,,,,,,,,,,,,,,,,,,,,,,,,,,,,,,,,,,,,,,,,,,,,,,,,,,,,,,,,,,,,,,,,,,,,,,,,,,,,,,,,,,
,,,,,,6145fd744ef9af2c44486e81,62c53b6ff6aa0dcafb182adb,2022-07-06_09h36.58.030,Colour_Asymmetry_Pilot,2022.1.3,Win32,60.67224851,62c50e9c1127f2cd403a315f,0,119,119,108,1,threeone,,,,,,,,,,,,,,,,,,,,,,,,,,,,,,,,,,,,,,,,,,,,,,,,,,,,,,,,,,,,,,,,,,,,,,,,,,,,,,,,,,,,,,,,,,,,,,,,,,,,,,,,,,,,,,,,,,,,,,,,,,,,,,,,,,,,,,,,,,,,,,,,,,,,,,,,,,,,,
,,,,,,6145fd744ef9af2c44486e81,62c53b6ff6aa0dcafb182adb,2022-07-06_09h36.58.030,Colour_Asymmetry_Pilot,2022.1.3,Win32,60.67224851,62c50e9c1127f2cd403a315f,0,120,120,47,1,fourthree,,,,,,,,,,,,,,,,,,,,,,,,,,,,,,,,,,,,,,,,,,,,,,,,,,,,,,,,,,,,,,,,,,,,,,,,,,,,,,,,,,,,,,,,,,,,,,,,,,,,,,,,,,,,,,,,,,,,,,,,,,,,,,,,,,,,,,,,,,,,,,,,,,,,,,,,,,,,,
,,,,,,6145fd744ef9af2c44486e81,62c53b6ff6aa0dcafb182adb,2022-07-06_09h36.58.030,Colour_Asymmetry_Pilot,2022.1.3,Win32,60.67224851,62c50e9c1127f2cd403a315f,0,121,121,78,1,fourtwo,,,,,,,,,,,,,,,,,,,,,,,,,,,,,,,,,,,,,,,,,,,,,,,,,,,,,,,,,,,,,,,,,,,,,,,,,,,,,,,,,,,,,,,,,,,,,,,,,,,,,,,,,,,,,,,,,,,,,,,,,,,,,,,,,,,,,,,,,,,,,,,,,,,,,,,,,,,,,
,,,,,,6145fd744ef9af2c44486e81,62c53b6ff6aa0dcafb182adb,2022-07-06_09h36.58.030,Colour_Asymmetry_Pilot,2022.1.3,Win32,60.67224851,62c50e9c1127f2cd403a315f,0,122,122,28,1,threeone,,,,,,,,,,,,,,,,,,,,,,,,,,,,,,,,,,,,,,,,,,,,,,,,,,,,,,,,,,,,,,,,,,,,,,,,,,,,,,,,,,,,,,,,,,,,,,,,,,,,,,,,,,,,,,,,,,,,,,,,,,,,,,,,,,,,,,,,,,,,,,,,,,,,,,,,,,,,,
,,,,,,6145fd744ef9af2c44486e81,62c53b6ff6aa0dcafb182adb,2022-07-06_09h36.58.030,Colour_Asymmetry_Pilot,2022.1.3,Win32,60.67224851,62c50e9c1127f2cd403a315f,0,123,123,55,1,fourthree,,,,,,,,,,,,,,,,,,,,,,,,,,,,,,,,,,,,,,,,,,,,,,,,,,,,,,,,,,,,,,,,,,,,,,,,,,,,,,,,,,,,,,,,,,,,,,,,,,,,,,,,,,,,,,,,,,,,,,,,,,,,,,,,,,,,,,,,,,,,,,,,,,,,,,,,,,,,,
,,,,,,6145fd744ef9af2c44486e81,62c53b6ff6aa0dcafb182adb,2022-07-06_09h36.58.030,Colour_Asymmetry_Pilot,2022.1.3,Win32,60.67224851,62c50e9c1127f2cd403a315f,0,124,124,27,1,twofour,,,,,,,,,,,,,,,,,,,,,,,,,,,,,,,,,,,,,,,,,,,,,,,,,,,,,,,,,,,,,,,,,,,,,,,,,,,,,,,,,,,,,,,,,,,,,,,,,,,,,,,,,,,,,,,,,,,,,,,,,,,,,,,,,,,,,,,,,,,,,,,,,,,,,,,,,,,,,
,,,,,,6145fd744ef9af2c44486e81,62c53b6ff6aa0dcafb182adb,2022-07-06_09h36.58.030,Colour_Asymmetry_Pilot,2022.1.3,Win32,60.67224851,62c50e9c1127f2cd403a315f,0,125,125,39,1,fourthree,,,,,,,,,,,,,,,,,,,,,,,,,,,,,,,,,,,,,,,,,,,,,,,,,,,,,,,,,,,,,,,,,,,,,,,,,,,,,,,,,,,,,,,,,,,,,,,,,,,,,,,,,,,,,,,,,,,,,,,,,,,,,,,,,,,,,,,,,,,,,,,,,,,,,,,,,,,,,
,,,,,,6145fd744ef9af2c44486e81,62c53b6ff6aa0dcafb182adb,2022-07-06_09h36.58.030,Colour_Asymmetry_Pilot,2022.1.3,Win32,60.67224851,62c50e9c1127f2cd403a315f,0,126,126,79,1,fourthree,,,,,,,,,,,,,,,,,,,,,,,,,,,,,,,,,,,,,,,,,,,,,,,,,,,,,,,,,,,,,,,,,,,,,,,,,,,,,,,,,,,,,,,,,,,,,,,,,,,,,,,,,,,,,,,,,,,,,,,,,,,,,,,,,,,,,,,,,,,,,,,,,,,,,,,,,,,,,
,,,,,,6145fd744ef9af2c44486e81,62c53b6ff6aa0dcafb182adb,2022-07-06_09h36.58.030,Colour_Asymmetry_Pilot,2022.1.3,Win32,60.67224851,62c50e9c1127f2cd403a315f,0,127,127,119,1,fourthree,,,,,,,,,,,,,,,,,,,,,,,,,,,,,,,,,,,,,,,,,,,,,,,,,,,,,,,,,,,,,,,,,,,,,,,,,,,,,,,,,,,,,,,,,,,,,,,,,,,,,,,,,,,,,,,,,,,,,,,,,,,,,,,,,,,,,,,,,,,,,,,,,,,,,,,,,,,,,
,,,,,,6145fd744ef9af2c44486e81,62c53b6ff6aa0dcafb182adb,2022-07-06_09h36.58.030,Colour_Asymmetry_Pilot,2022.1.3,Win32,60.67224851,62c50e9c1127f2cd403a315f,0,128,128,100,1,threeone,,,,,,,,,,,,,,,,,,,,,,,,,,,,,,,,,,,,,,,,,,,,,,,,,,,,,,,,,,,,,,,,,,,,,,,,,,,,,,,,,,,,,,,,,,,,,,,,,,,,,,,,,,,,,,,,,,,,,,,,,,,,,,,,,,,,,,,,,,,,,,,,,,,,,,,,,,,,,
,,,,,,6145fd744ef9af2c44486e81,62c53b6ff6aa0dcafb182adb,2022-07-06_09h36.58.030,Colour_Asymmetry_Pilot,2022.1.3,Win32,60.67224851,62c50e9c1127f2cd403a315f,0,129,129,5,1,threefour,,,,,,,,,,,,,,,,,,,,,,,,,,,,,,,,,,,,,,,,,,,,,,,,,,,,,,,,,,,,,,,,,,,,,,,,,,,,,,,,,,,,,,,,,,,,,,,,,,,,,,,,,,,,,,,,,,,,,,,,,,,,,,,,,,,,,,,,,,,,,,,,,,,,,,,,,,,,,
,,,,,,6145fd744ef9af2c44486e81,62c53b6ff6aa0dcafb182adb,2022-07-06_09h36.58.030,Colour_Asymmetry_Pilot,2022.1.3,Win32,60.67224851,62c50e9c1127f2cd403a315f,0,130,130,73,1,onethree,,,,,,,,,,,,,,,,,,,,,,,,,,,,,,,,,,,,,,,,,,,,,,,,,,,,,,,,,,,,,,,,,,,,,,,,,,,,,,,,,,,,,,,,,,,,,,,,,,,,,,,,,,,,,,,,,,,,,,,,,,,,,,,,,,,,,,,,,,,,,,,,,,,,,,,,,,,,,
,,,,,,6145fd744ef9af2c44486e81,62c53b6ff6aa0dcafb182adb,2022-07-06_09h36.58.030,Colour_Asymmetry_Pilot,2022.1.3,Win32,60.67224851,62c50e9c1127f2cd403a315f,0,131,131,142,1,fourtwo,,,,,,,,,,,,,,,,,,,,,,,,,,,,,,,,,,,,,,,,,,,,,,,,,,,,,,,,,,,,,,,,,,,,,,,,,,,,,,,,,,,,,,,,,,,,,,,,,,,,,,,,,,,,,,,,,,,,,,,,,,,,,,,,,,,,,,,,,,,,,,,,,,,,,,,,,,,,,
,,,,,,6145fd744ef9af2c44486e81,62c53b6ff6aa0dcafb182adb,2022-07-06_09h36.58.030,Colour_Asymmetry_Pilot,2022.1.3,Win32,60.67224851,62c50e9c1127f2cd403a315f,0,132,132,66,1,twoone,,,,,,,,,,,,,,,,,,,,,,,,,,,,,,,,,,,,,,,,,,,,,,,,,,,,,,,,,,,,,,,,,,,,,,,,,,,,,,,,,,,,,,,,,,,,,,,,,,,,,,,,,,,,,,,,,,,,,,,,,,,,,,,,,,,,,,,,,,,,,,,,,,,,,,,,,,,,,
,,,,,,6145fd744ef9af2c44486e81,62c53b6ff6aa0dcafb182adb,2022-07-06_09h36.58.030,Colour_Asymmetry_Pilot,2022.1.3,Win32,60.67224851,62c50e9c1127f2cd403a315f,0,133,133,20,1,threeone,,,,,,,,,,,,,,,,,,,,,,,,,,,,,,,,,,,,,,,,,,,,,,,,,,,,,,,,,,,,,,,,,,,,,,,,,,,,,,,,,,,,,,,,,,,,,,,,,,,,,,,,,,,,,,,,,,,,,,,,,,,,,,,,,,,,,,,,,,,,,,,,,,,,,,,,,,,,,
,,,,,,6145fd744ef9af2c44486e81,62c53b6ff6aa0dcafb182adb,2022-07-06_09h36.58.030,Colour_Asymmetry_Pilot,2022.1.3,Win32,60.67224851,62c50e9c1127f2cd403a315f,0,134,134,160,1,onetwo,,,,,,,,,,,,,,,,,,,,,,,,,,,,,,,,,,,,,,,,,,,,,,,,,,,,,,,,,,,,,,,,,,,,,,,,,,,,,,,,,,,,,,,,,,,,,,,,,,,,,,,,,,,,,,,,,,,,,,,,,,,,,,,,,,,,,,,,,,,,,,,,,,,,,,,,,,,,,
,,,,,,6145fd744ef9af2c44486e81,62c53b6ff6aa0dcafb182adb,2022-07-06_09h36.58.030,Colour_Asymmetry_Pilot,2022.1.3,Win32,60.67224851,62c50e9c1127f2cd403a315f,0,135,135,31,1,fourthree,,,,,,,,,,,,,,,,,,,,,,,,,,,,,,,,,,,,,,,,,,,,,,,,,,,,,,,,,,,,,,,,,,,,,,,,,,,,,,,,,,,,,,,,,,,,,,,,,,,,,,,,,,,,,,,,,,,,,,,,,,,,,,,,,,,,,,,,,,,,,,,,,,,,,,,,,,,,,
,,,,,,6145fd744ef9af2c44486e81,62c53b6ff6aa0dcafb182adb,2022-07-06_09h36.58.030,Colour_Asymmetry_Pilot,2022.1.3,Win32,60.67224851,62c50e9c1127f2cd403a315f,0,136,136,50,1,twoone,,,,,,,,,,,,,,,,,,,,,,,,,,,,,,,,,,,,,,,,,,,,,,,,,,,,,,,,,,,,,,,,,,,,,,,,,,,,,,,,,,,,,,,,,,,,,,,,,,,,,,,,,,,,,,,,,,,,,,,,,,,,,,,,,,,,,,,,,,,,,,,,,,,,,,,,,,,,,
,,,,,,6145fd744ef9af2c44486e81,62c53b6ff6aa0dcafb182adb,2022-07-06_09h36.58.030,Colour_Asymmetry_Pilot,2022.1.3,Win32,60.67224851,62c50e9c1127f2cd403a315f,0,137,137,9,1,onethree,,,,,,,,,,,,,,,,,,,,,,,,,,,,,,,,,,,,,,,,,,,,,,,,,,,,,,,,,,,,,,,,,,,,,,,,,,,,,,,,,,,,,,,,,,,,,,,,,,,,,,,,,,,,,,,,,,,,,,,,,,,,,,,,,,,,,,,,,,,,,,,,,,,,,,,,,,,,,
,,,,,,6145fd744ef9af2c44486e81,62c53b6ff6aa0dcafb182adb,2022-07-06_09h36.58.030,Colour_Asymmetry_Pilot,2022.1.3,Win32,60.67224851,62c50e9c1127f2cd403a315f,0,138,138,153,1,onethree,,,,,,,,,,,,,,,,,,,,,,,,,,,,,,,,,,,,,,,,,,,,,,,,,,,,,,,,,,,,,,,,,,,,,,,,,,,,,,,,,,,,,,,,,,,,,,,,,,,,,,,,,,,,,,,,,,,,,,,,,,,,,,,,,,,,,,,,,,,,,,,,,,,,,,,,,,,,,
,,,,,,6145fd744ef9af2c44486e81,62c53b6ff6aa0dcafb182adb,2022-07-06_09h36.58.030,Colour_Asymmetry_Pilot,2022.1.3,Win32,60.67224851,62c50e9c1127f2cd403a315f,0,139,139,105,1,onethree,,,,,,,,,,,,,,,,,,,,,,,,,,,,,,,,,,,,,,,,,,,,,,,,,,,,,,,,,,,,,,,,,,,,,,,,,,,,,,,,,,,,,,,,,,,,,,,,,,,,,,,,,,,,,,,,,,,,,,,,,,,,,,,,,,,,,,,,,,,,,,,,,,,,,,,,,,,,,
,,,,,,6145fd744ef9af2c44486e81,62c53b6ff6aa0dcafb182adb,2022-07-06_09h36.58.030,Colour_Asymmetry_Pilot,2022.1.3,Win32,60.67224851,62c50e9c1127f2cd403a315f,0,140,140,58,1,twoone,,,,,,,,,,,,,,,,,,,,,,,,,,,,,,,,,,,,,,,,,,,,,,,,,,,,,,,,,,,,,,,,,,,,,,,,,,,,,,,,,,,,,,,,,,,,,,,,,,,,,,,,,,,,,,,,,,,,,,,,,,,,,,,,,,,,,,,,,,,,,,,,,,,,,,,,,,,,,
,,,,,,6145fd744ef9af2c44486e81,62c53b6ff6aa0dcafb182adb,2022-07-06_09h36.58.030,Colour_Asymmetry_Pilot,2022.1.3,Win32,60.67224851,62c50e9c1127f2cd403a315f,0,141,141,17,1,onethree,,,,,,,,,,,,,,,,,,,,,,,,,,,,,,,,,,,,,,,,,,,,,,,,,,,,,,,,,,,,,,,,,,,,,,,,,,,,,,,,,,,,,,,,,,,,,,,,,,,,,,,,,,,,,,,,,,,,,,,,,,,,,,,,,,,,,,,,,,,,,,,,,,,,,,,,,,,,,
,,,,,,6145fd744ef9af2c44486e81,62c53b6ff6aa0dcafb182adb,2022-07-06_09h36.58.030,Colour_Asymmetry_Pilot,2022.1.3,Win32,60.67224851,62c50e9c1127f2cd403a315f,0,142,142,104,1,onetwo,,,,,,,,,,,,,,,,,,,,,,,,,,,,,,,,,,,,,,,,,,,,,,,,,,,,,,,,,,,,,,,,,,,,,,,,,,,,,,,,,,,,,,,,,,,,,,,,,,,,,,,,,,,,,,,,,,,,,,,,,,,,,,,,,,,,,,,,,,,,,,,,,,,,,,,,,,,,,
,,,,,,6145fd744ef9af2c44486e81,62c53b6ff6aa0dcafb182adb,2022-07-06_09h36.58.030,Colour_Asymmetry_Pilot,2022.1.3,Win32,60.67224851,62c50e9c1127f2cd403a315f,0,143,143,117,1,threefour,,,,,,,,,,,,,,,,,,,,,,,,,,,,,,,,,,,,,,,,,,,,,,,,,,,,,,,,,,,,,,,,,,,,,,,,,,,,,,,,,,,,,,,,,,,,,,,,,,,,,,,,,,,,,,,,,,,,,,,,,,,,,,,,,,,,,,,,,,,,,,,,,,,,,,,,,,,,,
,,,,,,6145fd744ef9af2c44486e81,62c53b6ff6aa0dcafb182adb,2022-07-06_09h36.58.030,Colour_Asymmetry_Pilot,2022.1.3,Win32,60.67224851,62c50e9c1127f2cd403a315f,0,144,144,133,1,threefour,,,,,,,,,,,,,,,,,,,,,,,,,,,,,,,,,,,,,,,,,,,,,,,,,,,,,,,,,,,,,,,,,,,,,,,,,,,,,,,,,,,,,,,,,,,,,,,,,,,,,,,,,,,,,,,,,,,,,,,,,,,,,,,,,,,,,,,,,,,,,,,,,,,,,,,,,,,,,
,,,,,,6145fd744ef9af2c44486e81,62c53b6ff6aa0dcafb182adb,2022-07-06_09h36.58.030,Colour_Asymmetry_Pilot,2022.1.3,Win32,60.67224851,62c50e9c1127f2cd403a315f,0,145,145,64,1,onetwo,,,,,,,,,,,,,,,,,,,,,,,,,,,,,,,,,,,,,,,,,,,,,,,,,,,,,,,,,,,,,,,,,,,,,,,,,,,,,,,,,,,,,,,,,,,,,,,,,,,,,,,,,,,,,,,,,,,,,,,,,,,,,,,,,,,,,,,,,,,,,,,,,,,,,,,,,,,,,
,,,,,,6145fd744ef9af2c44486e81,62c53b6ff6aa0dcafb182adb,2022-07-06_09h36.58.030,Colour_Asymmetry_Pilot,2022.1.3,Win32,60.67224851,62c50e9c1127f2cd403a315f,0,146,146,87,1,fourthree,,,,,,,,,,,,,,,,,,,,,,,,,,,,,,,,,,,,,,,,,,,,,,,,,,,,,,,,,,,,,,,,,,,,,,,,,,,,,,,,,,,,,,,,,,,,,,,,,,,,,,,,,,,,,,,,,,,,,,,,,,,,,,,,,,,,,,,,,,,,,,,,,,,,,,,,,,,,,
,,,,,,6145fd744ef9af2c44486e81,62c53b6ff6aa0dcafb182adb,2022-07-06_09h36.58.030,Colour_Asymmetry_Pilot,2022.1.3,Win32,60.67224851,62c50e9c1127f2cd403a315f,0,147,147,80,1,onetwo,,,,,,,,,,,,,,,,,,,,,,,,,,,,,,,,,,,,,,,,,,,,,,,,,,,,,,,,,,,,,,,,,,,,,,,,,,,,,,,,,,,,,,,,,,,,,,,,,,,,,,,,,,,,,,,,,,,,,,,,,,,,,,,,,,,,,,,,,,,,,,,,,,,,,,,,,,,,,
,,,,,,6145fd744ef9af2c44486e81,62c53b6ff6aa0dcafb182adb,2022-07-06_09h36.58.030,Colour_Asymmetry_Pilot,2022.1.3,Win32,60.67224851,62c50e9c1127f2cd403a315f,0,148,148,155,1,twofour,,,,,,,,,,,,,,,,,,,,,,,,,,,,,,,,,,,,,,,,,,,,,,,,,,,,,,,,,,,,,,,,,,,,,,,,,,,,,,,,,,,,,,,,,,,,,,,,,,,,,,,,,,,,,,,,,,,,,,,,,,,,,,,,,,,,,,,,,,,,,,,,,,,,,,,,,,,,,
,,,,,,6145fd744ef9af2c44486e81,62c53b6ff6aa0dcafb182adb,2022-07-06_09h36.58.030,Colour_Asymmetry_Pilot,2022.1.3,Win32,60.67224851,62c50e9c1127f2cd403a315f,0,149,149,107,1,twofour,,,,,,,,,,,,,,,,,,,,,,,,,,,,,,,,,,,,,,,,,,,,,,,,,,,,,,,,,,,,,,,,,,,,,,,,,,,,,,,,,,,,,,,,,,,,,,,,,,,,,,,,,,,,,,,,,,,,,,,,,,,,,,,,,,,,,,,,,,,,,,,,,,,,,,,,,,,,,
,,,,,,6145fd744ef9af2c44486e81,62c53b6ff6aa0dcafb182adb,2022-07-06_09h36.58.030,Colour_Asymmetry_Pilot,2022.1.3,Win32,60.67224851,62c50e9c1127f2cd403a315f,0,150,150,65,1,onethree,,,,,,,,,,,,,,,,,,,,,,,,,,,,,,,,,,,,,,,,,,,,,,,,,,,,,,,,,,,,,,,,,,,,,,,,,,,,,,,,,,,,,,,,,,,,,,,,,,,,,,,,,,,,,,,,,,,,,,,,,,,,,,,,,,,,,,,,,,,,,,,,,,,,,,,,,,,,,
,,,,,,6145fd744ef9af2c44486e81,62c53b6ff6aa0dcafb182adb,2022-07-06_09h36.58.030,Colour_Asymmetry_Pilot,2022.1.3,Win32,60.67224851,62c50e9c1127f2cd403a315f,0,151,151,83,1,twofour,,,,,,,,,,,,,,,,,,,,,,,,,,,,,,,,,,,,,,,,,,,,,,,,,,,,,,,,,,,,,,,,,,,,,,,,,,,,,,,,,,,,,,,,,,,,,,,,,,,,,,,,,,,,,,,,,,,,,,,,,,,,,,,,,,,,,,,,,,,,,,,,,,,,,,,,,,,,,
,,,,,,6145fd744ef9af2c44486e81,62c53b6ff6aa0dcafb182adb,2022-07-06_09h36.58.030,Colour_Asymmetry_Pilot,2022.1.3,Win32,60.67224851,62c50e9c1127f2cd403a315f,0,152,152,89,1,onethree,,,,,,,,,,,,,,,,,,,,,,,,,,,,,,,,,,,,,,,,,,,,,,,,,,,,,,,,,,,,,,,,,,,,,,,,,,,,,,,,,,,,,,,,,,,,,,,,,,,,,,,,,,,,,,,,,,,,,,,,,,,,,,,,,,,,,,,,,,,,,,,,,,,,,,,,,,,,,
,,,,,,6145fd744ef9af2c44486e81,62c53b6ff6aa0dcafb182adb,2022-07-06_09h36.58.030,Colour_Asymmetry_Pilot,2022.1.3,Win32,60.67224851,62c50e9c1127f2cd403a315f,0,153,153,115,1,twofour,,,,,,,,,,,,,,,,,,,,,,,,,,,,,,,,,,,,,,,,,,,,,,,,,,,,,,,,,,,,,,,,,,,,,,,,,,,,,,,,,,,,,,,,,,,,,,,,,,,,,,,,,,,,,,,,,,,,,,,,,,,,,,,,,,,,,,,,,,,,,,,,,,,,,,,,,,,,,
,,,,,,6145fd744ef9af2c44486e81,62c53b6ff6aa0dcafb182adb,2022-07-06_09h36.58.030,Colour_Asymmetry_Pilot,2022.1.3,Win32,60.67224851,62c50e9c1127f2cd403a315f,0,154,154,42,1,twoone,,,,,,,,,,,,,,,,,,,,,,,,,,,,,,,,,,,,,,,,,,,,,,,,,,,,,,,,,,,,,,,,,,,,,,,,,,,,,,,,,,,,,,,,,,,,,,,,,,,,,,,,,,,,,,,,,,,,,,,,,,,,,,,,,,,,,,,,,,,,,,,,,,,,,,,,,,,,,
,,,,,,6145fd744ef9af2c44486e81,62c53b6ff6aa0dcafb182adb,2022-07-06_09h36.58.030,Colour_Asymmetry_Pilot,2022.1.3,Win32,60.67224851,62c50e9c1127f2cd403a315f,0,155,155,53,1,threefour,,,,,,,,,,,,,,,,,,,,,,,,,,,,,,,,,,,,,,,,,,,,,,,,,,,,,,,,,,,,,,,,,,,,,,,,,,,,,,,,,,,,,,,,,,,,,,,,,,,,,,,,,,,,,,,,,,,,,,,,,,,,,,,,,,,,,,,,,,,,,,,,,,,,,,,,,,,,,
,,,,,,6145fd744ef9af2c44486e81,62c53b6ff6aa0dcafb182adb,2022-07-06_09h36.58.030,Colour_Asymmetry_Pilot,2022.1.3,Win32,60.67224851,62c50e9c1127f2cd403a315f,0,156,156,41,1,onethree,,,,,,,,,,,,,,,,,,,,,,,,,,,,,,,,,,,,,,,,,,,,,,,,,,,,,,,,,,,,,,,,,,,,,,,,,,,,,,,,,,,,,,,,,,,,,,,,,,,,,,,,,,,,,,,,,,,,,,,,,,,,,,,,,,,,,,,,,,,,,,,,,,,,,,,,,,,,,
,,,,,,6145fd744ef9af2c44486e81,62c53b6ff6aa0dcafb182adb,2022-07-06_09h36.58.030,Colour_Asymmetry_Pilot,2022.1.3,Win32,60.67224851,62c50e9c1127f2cd403a315f,0,157,157,63,1,fourthree,,,,,,,,,,,,,,,,,,,,,,,,,,,,,,,,,,,,,,,,,,,,,,,,,,,,,,,,,,,,,,,,,,,,,,,,,,,,,,,,,,,,,,,,,,,,,,,,,,,,,,,,,,,,,,,,,,,,,,,,,,,,,,,,,,,,,,,,,,,,,,,,,,,,,,,,,,,,,
,,,,,,6145fd744ef9af2c44486e81,62c53b6ff6aa0dcafb182adb,2022-07-06_09h36.58.030,Colour_Asymmetry_Pilot,2022.1.3,Win32,60.67224851,62c50e9c1127f2cd403a315f,0,158,158,114,1,twoone,,,,,,,,,,,,,,,,,,,,,,,,,,,,,,,,,,,,,,,,,,,,,,,,,,,,,,,,,,,,,,,,,,,,,,,,,,,,,,,,,,,,,,,,,,,,,,,,,,,,,,,,,,,,,,,,,,,,,,,,,,,,,,,,,,,,,,,,,,,,,,,,,,,,,,,,,,,,,
,,,,,,6145fd744ef9af2c44486e81,62c53b6ff6aa0dcafb182adb,2022-07-06_09h36.58.030,Colour_Asymmetry_Pilot,2022.1.3,Win32,60.67224851,62c50e9c1127f2cd403a315f,0,159,159,123,1,twofour,,,,,,,,,,,,,,,,,,,,,,,,,,,,,,,,,,,,,,,,,,,,,,,,,,,,,,,,,,,,,,,,,,,,,,,,,,,,,,,,,,,,,,,,,,,,,,,,,,,,,,,,,,,,,,,,,,,,,,,,,,,,,,,,,,,,,,,,,,,,,,,,,,,,,,,,,,,,,
,,,,,,6145fd744ef9af2c44486e81,62c53b6ff6aa0dcafb182adb,2022-07-06_09h36.58.030,Colour_Asymmetry_Pilot,2022.1.3,Win32,60.67224851,62c50e9c1127f2cd403a315f,0,160,160,36,1,threeone,,,,,,,,,,,,,,,,,,,,,,,,,,,,,,,,,,,,,,,,,,,,,,,,,,,,,,,,,,,,,,,,,,,,,,,,,,,,,,,,,,,,,,,,,,,,,,,,,,,,,,,,,,,,,,,,,,,,,,,,,,,,,,,,,,,,,,,,,,,,,,,,,,,,,,,,,,,,,
,,,,,,6145fd744ef9af2c44486e81,62c53b6ff6aa0dcafb182adb,2022-07-06_09h36.58.030,Colour_Asymmetry_Pilot,2022.1.3,Win32,60.67224851,62c50e9c1127f2cd403a315f,0,161,161,74,1,twoone,,,,,,,,,,,,,,,,,,,,,,,,,,,,,,,,,,,,,,,,,,,,,,,,,,,,,,,,,,,,,,,,,,,,,,,,,,,,,,,,,,,,,,,,,,,,,,,,,,,,,,,,,,,,,,,,,,,,,,,,,,,,,,,,,,,,,,,,,,,,,,,,,,,,,,,,,,,,,
,,,,,,6145fd744ef9af2c44486e81,62c53b6ff6aa0dcafb182adb,2022-07-06_09h36.58.030,Colour_Asymmetry_Pilot,2022.1.3,Win32,60.67224851,62c50e9c1127f2cd403a315f,,,,,,,space,7.3674,space,37.3861,space,51.8487,space,18.2164,space,8.081,space,7.218,"[0.11359999999999992,0.6312,0.5213999999999999]",threefour,"[0.6547999999999998,-0.043199999999999905,-0.011800000000000033]",-4,21.1108,-30,81.33331299,1,0,0,response7disk_5,24.66668701,4.666656494,1,0,0,rectangle_8,24.66668701,4.666656494,1,0,0,2,24.66668701,4.666656494,1,0,0,0,0,0,0,1,,,,,,,,,,,,,,,,,,,,,,,,,,,,,,,,,,,,,,,,,,,,,,,,,,,,,,,,,,,,,,,,,,,,,,,,,,,,,,,,,,,,,,,,,,,,,,,,,,,,,,,,,,,,,,,,
,,,,,,6145fd744ef9af2c44486e81,62c53b6ff6aa0dcafb182adb,2022-07-06_09h36.58.030,Colour_Asymmetry_Pilot,2022.1.3,Win32,60.67224851,62c50e9c1127f2cd403a315f,,,,,,,,,,,,,,,,,,,"[0.6547999999999998,-0.043199999999999905,-0.011800000000000033]",threefour,"[-0.5688,-0.08239999999999992,-0.1844]",-4,4.4739,-30,63.33331299,1,0,0,response7disk_5,26.66668701,6.666656494,1,0,0,rectangle_8,64.66668701,-22,1,0,0,2,12.66668701,11.33331299,1,0,0,1,0,1,0,1,response3disk_7,5,rectangle_4,,,,,,,,,,,,,,,,,,,,,,,,,,,,,,,,,,,,,,,,,,,,,,,,,,,,,,,,,,,,,,,,,,,,,,,,,,,,,,,,,,,,,,,,,,,,,,,,,,,,,,,,,,,,,
,,,,,,6145fd744ef9af2c44486e81,62c53b6ff6aa0dcafb182adb,2022-07-06_09h36.58.030,Colour_Asymmetry_Pilot,2022.1.3,Win32,60.67224851,62c50e9c1127f2cd403a315f,,,,,,,,,,,,,,,,,,,"[-0.6942,-0.7648,-0.12959999999999994]",twofour,"[-0.24719999999999998,0.5213999999999999,-0.12959999999999994]",-3,2.4468,-61.33331299,30,1,0,0,response7disk_5,6.666687012,8,1,0,0,rectangle_8,6.666687012,8,1,0,0,2,6.666687012,8,1,0,0,2,0,2,0,1,,,,,,,,,,,,,,,,,,,,,,,,,,,,,,,,,,,,,,,,,,,,,,,,,,,,,,,,,,,,,,,,,,,,,,,,,,,,,,,,,,,,,,,,,,,,,,,,,,,,,,,,,,,,,,,,
,,,,,,6145fd744ef9af2c44486e81,62c53b6ff6aa0dcafb182adb,2022-07-06_09h36.58.030,Colour_Asymmetry_Pilot,2022.1.3,Win32,60.67224851,62c50e9c1127f2cd403a315f,,,,,,,,,,,,,,,,,,,"[0.8274000000000001,-0.5844,-0.9452]",onetwo,"[0.5449999999999999,-0.31000000000000005,-0.0354000000000001]",-1,7.1079,-18.66662598,-96,1,0,0,response5disk_5,6.666687012,-8.666687012,1,0,0,rectangle_8,80.66668701,-28.66668701,1,0,0,2,21.33337402,-8.666687012,1,0,0,3,0,3,0,1,response3disk_7,5,rectangle_4,,,,,,,,,,,,,,,,,,,,,,,,,,,,,,,,,,,,,,,,,,,,,,,,,,,,,,,,,,,,,,,,,,,,,,,,,,,,,,,,,,,,,,,,,,,,,,,,,,,,,,,,,,,,,
,,,,,,6145fd744ef9af2c44486e81,62c53b6ff6aa0dcafb182adb,2022-07-06_09h36.58.030,Colour_Asymmetry_Pilot,2022.1.3,Win32,60.67224851,62c50e9c1127f2cd403a315f,,,,,,,,,,,,,,,,,,,"[-0.9766,-0.34920000000000007,0.2156]",onethree,"[0.5449999999999999,-0.31000000000000005,-0.0354000000000001]",-4,1.6244,-61.33331299,78.66665649,1,0,0,response7disk_5,6.666687012,-11.33334351,1,0,0,rectangle_8,6.666687012,-11.33334351,1,0,0,2,6.666687012,-11.33334351,1,0,0,4,0,4,0,1,,,,,,,,,,,,,,,,,,,,,,,,,,,,,,,,,,,,,,,,,,,,,,,,,,,,,,,,,,,,,,,,,,,,,,,,,,,,,,,,,,,,,,,,,,,,,,,,,,,,,,,,,,,,,,,,
,,,,,,6145fd744ef9af2c44486e81,62c53b6ff6aa0dcafb182adb,2022-07-06_09h36.58.030,Colour_Asymmetry_Pilot,2022.1.3,Win32,60.67224851,62c50e9c1127f2cd403a315f,,,,,,,,,,,,,,,,,,,"[1,0.12939999999999996,-1]",onethree,"[0.22340000000000004,-0.9296,-0.7884]",-4,1.4639,-32.66662598,112,1,0,0,response7disk_5,-14,-4,1,0,0,rectangle_8,-14,-4,1,0,0,2,-14,-4,1,0,0,5,0,5,0,1,,,,,,,,,,,,,,,,,,,,,,,,,,,,,,,,,,,,,,,,,,,,,,,,,,,,,,,,,,,,,,,,,,,,,,,,,,,,,,,,,,,,,,,,,,,,,,,,,,,,,,,,,,,,,,,,
,,,,,,6145fd744ef9af2c44486e81,62c53b6ff6aa0dcafb182adb,2022-07-06_09h36.58.030,Colour_Asymmetry_Pilot,2022.1.3,Win32,60.67224851,62c50e9c1127f2cd403a315f,,,,,,,,,,,,,,,,,,,"[0.8274000000000001,-0.5844,-0.9452]",onetwo,"[0.18419999999999992,-0.4276,-0.404]",2,2.2041,81.33337402,-56,1,0,0,response3disk_5,13.33337402,0,1,0,0,rectangle_8,13.33337402,0,1,0,0,2,13.33337402,0,1,0,0,6,0,6,0,1,,,,,,,,,,,,,,,,,,,,,,,,,,,,,,,,,,,,,,,,,,,,,,,,,,,,,,,,,,,,,,,,,,,,,,,,,,,,,,,,,,,,,,,,,,,,,,,,,,,,,,,,,,,,,,,,
,,,,,,6145fd744ef9af2c44486e81,62c53b6ff6aa0dcafb182adb,2022-07-06_09h36.58.030,Colour_Asymmetry_Pilot,2022.1.3,Win32,60.67224851,62c50e9c1127f2cd403a315f,,,,,,,,,,,,,,,,,,,,threefour,,-3,1.9556,,,,,,,,,,,,,,,,,,,,,,,,,,,,,,,,space,5.3615,"[0.34099999999999997,0.12939999999999996,-0.9766]","[0.05879999999999996,0.2784,0.5841999999999998]",-73.33331299,32,1,0,0,response7disk,-20.66662598,12,1,0,0,rectangle,-20.66662598,12,1,0,0,,2,0.0047,0,-20.66662598,12,1,0,0,0,0,0,98,1,17,second,,,,,,,,,,,,,,,,,,,,,,,,,,,,,,,,,,,,,,,,,,,,,,,,,,,,,,,,,,,,,,,,,,,,,,,,
,,,,,,6145fd744ef9af2c44486e81,62c53b6ff6aa0dcafb182adb,2022-07-06_09h36.58.030,Colour_Asymmetry_Pilot,2022.1.3,Win32,60.67224851,62c50e9c1127f2cd403a315f,,,,,,,,,,,,,,,,,,,,onethree,,-3,1.9001,,,,,,,,,,,,,,,,,,,,,,,,,,,,,,,,,,"[-0.6,0.16860000000000008,0.44300000000000006]","[0.3881999999999999,-0.23939999999999995,-0.05040000000000011]",-66.66662598,25.33331299,1,0,0,response7disk,-4,5.333312988,1,0,0,rectangle,55.33337402,-88.66668701,1,0,0,1,1,4.7857,1,10,-2,1,0,0,0,1,1,159,1,78,second,response3disk_3,rectangle,,,,,,,,,,,,,,,,,,,,,,,,,,,,,,,,,,,,,,,,,,,,,,,,,,,,,,,,,,,,,,,,,,,,,,
,,,,,,6145fd744ef9af2c44486e81,62c53b6ff6aa0dcafb182adb,2022-07-06_09h36.58.030,Colour_Asymmetry_Pilot,2022.1.3,Win32,60.67224851,62c50e9c1127f2cd403a315f,,,,,,,,,,,,,,,,,,,,threeone,,-4,0.9734,,,,,,,,,,,,,,,,,,,,,,,,,,,,,,,,,,"[-0.9766,-0.6472,0.07440000000000002]","[0.34099999999999997,0.5841999999999998,-0.9844]",-26.66662598,54.66665649,1,0,0,response7disk,-4.666625977,2.666656494,1,0,0,rectangle,-4.666625977,2.666656494,1,0,0,1,2,0.0021,0,-4.666625977,2.666656494,1,0,0,0,2,2,107,1,26,second,,,,,,,,,,,,,,,,,,,,,,,,,,,,,,,,,,,,,,,,,,,,,,,,,,,,,,,,,,,,,,,,,,,,,,,,
,,,,,,6145fd744ef9af2c44486e81,62c53b6ff6aa0dcafb182adb,2022-07-06_09h36.58.030,Colour_Asymmetry_Pilot,2022.1.3,Win32,60.67224851,62c50e9c1127f2cd403a315f,,,,,,,,,,,,,,,,,,,,fourthree,,-4,2.8889,,,,,,,,,,,,,,,,,,,,,,,,,,,,,,,,,,"[0.19199999999999995,0.18419999999999992,0.5136000000000001]","[-0.26280000000000003,-0.2158,-0.3256]",-17.33331299,64.66665649,1,0,0,response7disk,4,2.666656494,1,0,0,rectangle,4,2.666656494,1,0,0,1,1,0.0013,0,4,2.666656494,1,0,0,0,3,3,0,1,0,first,,,,,,,,,,,,,,,,,,,,,,,,,,,,,,,,,,,,,,,,,,,,,,,,,,,,,,,,,,,,,,,,,,,,,,,,
,,,,,,6145fd744ef9af2c44486e81,62c53b6ff6aa0dcafb182adb,2022-07-06_09h36.58.030,Colour_Asymmetry_Pilot,2022.1.3,Win32,60.67224851,62c50e9c1127f2cd403a315f,,,,,,,,,,,,,,,,,,,,onetwo,,-4,1.7029,,,,,,,,,,,,,,,,,,,,,,,,,,,,,,,,,,"[-0.6,0.16860000000000008,0.44300000000000006]","[-0.9138,-0.5296000000000001,-0.5529999999999999]",-27.33331299,55.33331299,1,0,0,response7disk,-2.666625977,-8.666687012,1,0,0,rectangle,-2.666625977,-8.666687012,1,0,0,1,2,0.0022,0,-2.666625977,-8.666687012,1,0,0,0,4,4,61,1,61,first,,,,,,,,,,,,,,,,,,,,,,,,,,,,,,,,,,,,,,,,,,,,,,,,,,,,,,,,,,,,,,,,,,,,,,,,
,,,,,,6145fd744ef9af2c44486e81,62c53b6ff6aa0dcafb182adb,2022-07-06_09h36.58.030,Colour_Asymmetry_Pilot,2022.1.3,Win32,60.67224851,62c50e9c1127f2cd403a315f,,,,,,,,,,,,,,,,,,,,fourtwo,,-4,1.1579,,,,,,,,,,,,,,,,,,,,,,,,,,,,,,,,,,"[0.3568,-0.20799999999999996,-0.9844]","[-0.9688,-0.7412000000000001,-0.4902000000000001]",-32.66662598,42.66665649,1,0,0,response7disk,-9.333312988,-12,1,0,0,rectangle,-9.333312988,-12,1,0,0,1,3,0.0042,0,-9.333312988,-12,1,0,0,0,5,5,16,1,16,first,,,,,,,,,,,,,,,,,,,,,,,,,,,,,,,,,,,,,,,,,,,,,,,,,,,,,,,,,,,,,,,,,,,,,,,,
,,,,,,6145fd744ef9af2c44486e81,62c53b6ff6aa0dcafb182adb,2022-07-06_09h36.58.030,Colour_Asymmetry_Pilot,2022.1.3,Win32,60.67224851,62c50e9c1127f2cd403a315f,,,,,,,,,,,,,,,,,,,,threefour,,-1,1.5236,,,,,,,,,,,,,,,,,,,,,,,,,,,,,,,,,,"[0.9763999999999999,0.30979999999999985,-0.6786]","[0.7802,-0.23140000000000005,-0.20799999999999996]",-30,-71.33334351,1,0,0,response5disk,3.333374023,3.333312988,1,0,0,rectangle,3.333374023,3.333312988,1,0,0,1,3,0.0006,0,3.333374023,3.333312988,1,0,0,0,6,6,58,1,58,first,,,,,,,,,,,,,,,,,,,,,,,,,,,,,,,,,,,,,,,,,,,,,,,,,,,,,,,,,,,,,,,,,,,,,,,,
,,,,,,6145fd744ef9af2c44486e81,62c53b6ff6aa0dcafb182adb,2022-07-06_09h36.58.030,Colour_Asymmetry_Pilot,2022.1.3,Win32,60.67224851,62c50e9c1127f2cd403a315f,,,,,,,,,,,,,,,,,,,,fourtwo,,-1,7.7695,,,,,,,,,,,,,,,,,,,,,,,,,,,,,,,,,,"[0.12939999999999996,-0.2864,0.3253999999999999]","[-0.4902000000000001,0.2704,-0.45899999999999996]",-40,-88,1,0,0,response5disk,-4,10.66665649,1,0,0,rectangle,-4,10.66665649,1,0,0,1,3,0.0003,0,-4,10.66665649,1,0,0,0,7,7,115,1,34,second,,,,,,,,,,,,,,,,,,,,,,,,,,,,,,,,,,,,,,,,,,,,,,,,,,,,,,,,,,,,,,,,,,,,,,,,
,,,,,,6145fd744ef9af2c44486e81,62c53b6ff6aa0dcafb182adb,2022-07-06_09h36.58.030,Colour_Asymmetry_Pilot,2022.1.3,Win32,60.67224851,62c50e9c1127f2cd403a315f,,,,,,,,,,,,,,,,,,,,twoone,,-1,3.0029,,,,,,,,,,,,,,,,,,,,,,,,,,,,,,,,,,"[-0.7412000000000001,-0.08239999999999992,-0.6864]","[0.23120000000000007,-0.7726,-0.34120000000000006]",-62,-68,1,0,0,response5disk,7.333374023,-1.333343506,1,0,0,rectangle,7.333374023,-1.333343506,1,0,0,1,1,0.0021,0,7.333374023,-1.333343506,1,0,0,0,8,8,137,1,56,second,,,,,,,,,,,,,,,,,,,,,,,,,,,,,,,,,,,,,,,,,,,,,,,,,,,,,,,,,,,,,,,,,,,,,,,,
,,,,,,6145fd744ef9af2c44486e81,62c53b6ff6aa0dcafb182adb,2022-07-06_09h36.58.030,Colour_Asymmetry_Pilot,2022.1.3,Win32,60.67224851,62c50e9c1127f2cd403a315f,,,,,,,,,,,,,,,,,,,,onetwo,,3,1.4169,,,,,,,,,,,,,,,,,,,,,,,,,,,,,,,,,,"[-0.9296,-0.12959999999999994,-0.043199999999999905]","[-0.9688,-0.38039999999999996,-0.41979999999999995]",70,25.33331299,1,0,0,response1disk,-24,-13.33334351,1,0,0,rectangle,-24,-13.33334351,1,0,0,1,1,0.0008,0,-24,-13.33334351,1,0,0,0,9,9,53,1,53,first,,,,,,,,,,,,,,,,,,,,,,,,,,,,,,,,,,,,,,,,,,,,,,,,,,,,,,,,,,,,,,,,,,,,,,,,
,,,,,,6145fd744ef9af2c44486e81,62c53b6ff6aa0dcafb182adb,2022-07-06_09h36.58.030,Colour_Asymmetry_Pilot,2022.1.3,Win32,60.67224851,62c50e9c1127f2cd403a315f,,,,,,,,,,,,,,,,,,,,fourtwo,,-4,4.2039,,,,,,,,,,,,,,,,,,,,,,,,,,,,,,,,,,"[-0.8118,-0.8198,-0.5452]","[0.5528,0.7409999999999999,-0.71]",-46,81.33331299,1,0,0,response7disk,-20,10.66665649,1,0,0,rectangle,-20,10.66665649,1,0,0,1,3,0.0029,0,-20,10.66665649,1,0,0,0,10,10,103,1,22,second,,,,,,,,,,,,,,,,,,,,,,,,,,,,,,,,,,,,,,,,,,,,,,,,,,,,,,,,,,,,,,,,,,,,,,,,
,,,,,,6145fd744ef9af2c44486e81,62c53b6ff6aa0dcafb182adb,2022-07-06_09h36.58.030,Colour_Asymmetry_Pilot,2022.1.3,Win32,60.67224851,62c50e9c1127f2cd403a315f,,,,,,,,,,,,,,,,,,,,onethree,,3,1.5416,,,,,,,,,,,,,,,,,,,,,,,,,,,,,,,,,,"[0.9763999999999999,-0.1137999999999999,-0.6314]","[0.9763999999999999,-0.1137999999999999,-0.6314]",54.66668701,37.33331299,1,0,0,response1disk,9.333374023,-2.666687012,1,0,0,rectangle,9.333374023,-2.666687012,1,0,0,1,3,0.0002,0,9.333374023,-2.666687012,1,0,0,0,11,11,15,1,15,first,,,,,,,,,,,,,,,,,,,,,,,,,,,,,,,,,,,,,,,,,,,,,,,,,,,,,,,,,,,,,,,,,,,,,,,,
,,,,,,6145fd744ef9af2c44486e81,62c53b6ff6aa0dcafb182adb,2022-07-06_09h36.58.030,Colour_Asymmetry_Pilot,2022.1.3,Win32,60.67224851,62c50e9c1127f2cd403a315f,,,,,,,,,,,,,,,,,,,,fourthree,,1,1.0285,,,,,,,,,,,,,,,,,,,,,,,,,,,,,,,,,,"[0.30180000000000007,-0.7884,-0.9844]","[0.7802,-0.23140000000000005,-0.20799999999999996]",45.33337402,-56,1,0,0,response3disk,5.333374023,-10,1,0,0,rectangle,5.333374023,-10,1,0,0,1,1,0.0012,0,5.333374023,-10,1,0,0,0,12,12,122,1,41,second,,,,,,,,,,,,,,,,,,,,,,,,,,,,,,,,,,,,,,,,,,,,,,,,,,,,,,,,,,,,,,,,,,,,,,,,
,,,,,,6145fd744ef9af2c44486e81,62c53b6ff6aa0dcafb182adb,2022-07-06_09h36.58.030,Colour_Asymmetry_Pilot,2022.1.3,Win32,60.67224851,62c50e9c1127f2cd403a315f,,,,,,,,,,,,,,,,,,,,fourtwo,,-4,1.6523,,,,,,,,,,,,,,,,,,,,,,,,,,,,,,,,,,"[0.23120000000000007,-0.7726,-0.34120000000000006]","[-0.7412000000000001,-0.08239999999999992,-0.6864]",-48.66662598,55.33331299,1,0,0,response7disk,-0.666625977,6.666656494,1,0,0,rectangle,-0.666625977,6.666656494,1,0,0,1,3,0.0011,0,-0.666625977,6.666656494,1,0,0,0,13,13,56,1,56,first,,,,,,,,,,,,,,,,,,,,,,,,,,,,,,,,,,,,,,,,,,,,,,,,,,,,,,,,,,,,,,,,,,,,,,,,
,,,,,,6145fd744ef9af2c44486e81,62c53b6ff6aa0dcafb182adb,2022-07-06_09h36.58.030,Colour_Asymmetry_Pilot,2022.1.3,Win32,60.67224851,62c50e9c1127f2cd403a315f,,,,,,,,,,,,,,,,,,,,threefour,,-3,2.4484,,,,,,,,,,,,,,,,,,,,,,,,,,,,,,,,,,"[-0.5688,-0.08239999999999992,-0.1844]","[0.23920000000000008,0.2704,0.16060000000000008]",-83.33331299,18.66665649,1,0,0,response7disk,-11.33331299,-4,1,0,0,rectangle,-11.33331299,-4,1,0,0,1,1,0.0045,0,-11.33331299,-4,1,0,0,0,14,14,105,1,24,second,,,,,,,,,,,,,,,,,,,,,,,,,,,,,,,,,,,,,,,,,,,,,,,,,,,,,,,,,,,,,,,,,,,,,,,,
