trials.thisRepN,trials.thisTrialN,trials.thisN,trials.thisIndex,trials.ran,Colourcodes,participant,session,date,expName,psychopyVersion,OS,frameRate,study_id,trials_4.thisRepN,trials_4.thisTrialN,trials_4.thisN,trials_4.thisIndex,trials_4.ran,StimulusPos,key_resp.keys,key_resp.rt,key_resp_2.keys,key_resp_2.rt,key_resp_15.keys,key_resp_15.rt,key_resp_17.keys,key_resp_17.rt,key_resp_9.keys,key_resp_9.rt,key_resp_10.keys,key_resp_10.rt,Circle1_col,Ecc,Circle2_col,similarity,response_time,mouse_5.x,mouse_5.y,mouse_5.leftButton,mouse_5.midButton,mouse_5.rightButton,mouse_5.clicked_name,mouse_10.x,mouse_10.y,mouse_10.leftButton,mouse_10.midButton,mouse_10.rightButton,mouse_10.clicked_name,mouse_7.x,mouse_7.y,mouse_7.leftButton,mouse_7.midButton,mouse_7.rightButton,catchnumberprac,mouse_6.x,mouse_6.y,mouse_6.leftButton,mouse_6.midButton,mouse_6.rightButton,duringprac.thisRepN,duringprac.thisTrialN,duringprac.thisN,duringprac.thisIndex,duringprac.ran,mouse_7.clicked_name,catchprac,mouse_6.clicked_name,key_resp_22.keys,key_resp_22.rt,Circle1_colour,Circle2_colour,mouse.x,mouse.y,mouse.leftButton,mouse.midButton,mouse.rightButton,mouse.clicked_name,mouse_2.x,mouse_2.y,mouse_2.leftButton,mouse_2.midButton,mouse_2.rightButton,mouse_2.clicked_name,mouse_3.x,mouse_3.y,mouse_3.leftButton,mouse_3.midButton,mouse_3.rightButton,mouse_3.clicked_name,catchresponse,catchnumber,response_time_catch,Catch,mouse_11.x,mouse_11.y,mouse_11.leftButton,mouse_11.midButton,mouse_11.rightButton,mouse_11.clicked_name,trials_2.thisRepN,trials_2.thisTrialN,trials_2.thisN,trials_2.thisIndex,trials_2.ran,Colourpair,Temporder,trials_3.thisRepN,trials_3.thisTrialN,trials_3.thisN,trials_3.thisIndex,trials_3.ran,key_resp_instr_Ishi.keys,key_resp_instr_Ishi.rt,Ishi_trial_keyresp.keys,Ishi_textbox.text,Ishi_mouse.x,Ishi_mouse.y,Ishi_mouse.leftButton,Ishi_mouse.midButton,Ishi_mouse.rightButton,Ishi_mouse.clicked_name,Ishi_loop.thisRepN,Ishi_loop.thisTrialN,Ishi_loop.thisN,Ishi_loop.thisIndex,Ishi_loop.ran,imageaddress,textbox.text,mouse_4.x,mouse_4.y,mouse_4.leftButton,mouse_4.midButton,mouse_4.rightButton,mouse_4.clicked_name,textbox_2.text,mouse_8.x,mouse_8.y,mouse_8.leftButton,mouse_8.midButton,mouse_8.rightButton,mouse_8.clicked_name,textbox_3.text,mouse_9.x,mouse_9.y,mouse_9.leftButton,mouse_9.midButton,mouse_9.rightButton,mouse_9.clicked_name,textbox_4.text,mouse_12.x,mouse_12.y,mouse_12.leftButton,mouse_12.midButton,mouse_12.rightButton,mouse_12.clicked_name,textbox_5.text,mouse_13.x,mouse_13.y,mouse_13.leftButton,mouse_13.midButton,mouse_13.rightButton,mouse_13.clicked_name,textbox_6.text,mouse_14.x,mouse_14.y,mouse_14.leftButton,mouse_14.midButton,mouse_14.rightButton,mouse_14.clicked_name,textbox_7.text,mouse_15.x,mouse_15.y,mouse_15.leftButton,mouse_15.midButton,mouse_15.rightButton,mouse_15.clicked_name
0,0,0,53,1,,61641a12f14a6f1b08edd5bf,62c538c607160c13dfb487b6,2022-07-06_09h25.28.139,Colour_Asymmetry_Pilot,2022.1.3,Win32,59.24170616,62c50e9c1127f2cd403a315f,,,,,,,,,,,,,,,,,,,,,,,,,,,,,,,,,,,,,,,,,,,,,,,,,,,,,,,,,,,,,,,,,,,,,,,,,,,,,,,,,,,,,,,,,,,,,,,,,,,,,,,,,,,,,,,,,,,,,,,,,,,,,,,,,,,,,,,,,,,,,,,,,,,,,,,,,,,,,,,,,,,
0,1,1,16,1,,61641a12f14a6f1b08edd5bf,62c538c607160c13dfb487b6,2022-07-06_09h25.28.139,Colour_Asymmetry_Pilot,2022.1.3,Win32,59.24170616,62c50e9c1127f2cd403a315f,,,,,,,,,,,,,,,,,,,,,,,,,,,,,,,,,,,,,,,,,,,,,,,,,,,,,,,,,,,,,,,,,,,,,,,,,,,,,,,,,,,,,,,,,,,,,,,,,,,,,,,,,,,,,,,,,,,,,,,,,,,,,,,,,,,,,,,,,,,,,,,,,,,,,,,,,,,,,,,,,,,
0,2,2,74,1,,61641a12f14a6f1b08edd5bf,62c538c607160c13dfb487b6,2022-07-06_09h25.28.139,Colour_Asymmetry_Pilot,2022.1.3,Win32,59.24170616,62c50e9c1127f2cd403a315f,,,,,,,,,,,,,,,,,,,,,,,,,,,,,,,,,,,,,,,,,,,,,,,,,,,,,,,,,,,,,,,,,,,,,,,,,,,,,,,,,,,,,,,,,,,,,,,,,,,,,,,,,,,,,,,,,,,,,,,,,,,,,,,,,,,,,,,,,,,,,,,,,,,,,,,,,,,,,,,,,,,
0,3,3,55,1,,61641a12f14a6f1b08edd5bf,62c538c607160c13dfb487b6,2022-07-06_09h25.28.139,Colour_Asymmetry_Pilot,2022.1.3,Win32,59.24170616,62c50e9c1127f2cd403a315f,,,,,,,,,,,,,,,,,,,,,,,,,,,,,,,,,,,,,,,,,,,,,,,,,,,,,,,,,,,,,,,,,,,,,,,,,,,,,,,,,,,,,,,,,,,,,,,,,,,,,,,,,,,,,,,,,,,,,,,,,,,,,,,,,,,,,,,,,,,,,,,,,,,,,,,,,,,,,,,,,,,
0,4,4,31,1,,61641a12f14a6f1b08edd5bf,62c538c607160c13dfb487b6,2022-07-06_09h25.28.139,Colour_Asymmetry_Pilot,2022.1.3,Win32,59.24170616,62c50e9c1127f2cd403a315f,,,,,,,,,,,,,,,,,,,,,,,,,,,,,,,,,,,,,,,,,,,,,,,,,,,,,,,,,,,,,,,,,,,,,,,,,,,,,,,,,,,,,,,,,,,,,,,,,,,,,,,,,,,,,,,,,,,,,,,,,,,,,,,,,,,,,,,,,,,,,,,,,,,,,,,,,,,,,,,,,,,
0,5,5,62,1,,61641a12f14a6f1b08edd5bf,62c538c607160c13dfb487b6,2022-07-06_09h25.28.139,Colour_Asymmetry_Pilot,2022.1.3,Win32,59.24170616,62c50e9c1127f2cd403a315f,,,,,,,,,,,,,,,,,,,,,,,,,,,,,,,,,,,,,,,,,,,,,,,,,,,,,,,,,,,,,,,,,,,,,,,,,,,,,,,,,,,,,,,,,,,,,,,,,,,,,,,,,,,,,,,,,,,,,,,,,,,,,,,,,,,,,,,,,,,,,,,,,,,,,,,,,,,,,,,,,,,
0,6,6,35,1,,61641a12f14a6f1b08edd5bf,62c538c607160c13dfb487b6,2022-07-06_09h25.28.139,Colour_Asymmetry_Pilot,2022.1.3,Win32,59.24170616,62c50e9c1127f2cd403a315f,,,,,,,,,,,,,,,,,,,,,,,,,,,,,,,,,,,,,,,,,,,,,,,,,,,,,,,,,,,,,,,,,,,,,,,,,,,,,,,,,,,,,,,,,,,,,,,,,,,,,,,,,,,,,,,,,,,,,,,,,,,,,,,,,,,,,,,,,,,,,,,,,,,,,,,,,,,,,,,,,,,
0,7,7,89,1,,61641a12f14a6f1b08edd5bf,62c538c607160c13dfb487b6,2022-07-06_09h25.28.139,Colour_Asymmetry_Pilot,2022.1.3,Win32,59.24170616,62c50e9c1127f2cd403a315f,,,,,,,,,,,,,,,,,,,,,,,,,,,,,,,,,,,,,,,,,,,,,,,,,,,,,,,,,,,,,,,,,,,,,,,,,,,,,,,,,,,,,,,,,,,,,,,,,,,,,,,,,,,,,,,,,,,,,,,,,,,,,,,,,,,,,,,,,,,,,,,,,,,,,,,,,,,,,,,,,,,
0,8,8,0,1,,61641a12f14a6f1b08edd5bf,62c538c607160c13dfb487b6,2022-07-06_09h25.28.139,Colour_Asymmetry_Pilot,2022.1.3,Win32,59.24170616,62c50e9c1127f2cd403a315f,,,,,,,,,,,,,,,,,,,,,,,,,,,,,,,,,,,,,,,,,,,,,,,,,,,,,,,,,,,,,,,,,,,,,,,,,,,,,,,,,,,,,,,,,,,,,,,,,,,,,,,,,,,,,,,,,,,,,,,,,,,,,,,,,,,,,,,,,,,,,,,,,,,,,,,,,,,,,,,,,,,
0,9,9,47,1,,61641a12f14a6f1b08edd5bf,62c538c607160c13dfb487b6,2022-07-06_09h25.28.139,Colour_Asymmetry_Pilot,2022.1.3,Win32,59.24170616,62c50e9c1127f2cd403a315f,,,,,,,,,,,,,,,,,,,,,,,,,,,,,,,,,,,,,,,,,,,,,,,,,,,,,,,,,,,,,,,,,,,,,,,,,,,,,,,,,,,,,,,,,,,,,,,,,,,,,,,,,,,,,,,,,,,,,,,,,,,,,,,,,,,,,,,,,,,,,,,,,,,,,,,,,,,,,,,,,,,
0,10,10,65,1,,61641a12f14a6f1b08edd5bf,62c538c607160c13dfb487b6,2022-07-06_09h25.28.139,Colour_Asymmetry_Pilot,2022.1.3,Win32,59.24170616,62c50e9c1127f2cd403a315f,,,,,,,,,,,,,,,,,,,,,,,,,,,,,,,,,,,,,,,,,,,,,,,,,,,,,,,,,,,,,,,,,,,,,,,,,,,,,,,,,,,,,,,,,,,,,,,,,,,,,,,,,,,,,,,,,,,,,,,,,,,,,,,,,,,,,,,,,,,,,,,,,,,,,,,,,,,,,,,,,,,
0,11,11,9,1,,61641a12f14a6f1b08edd5bf,62c538c607160c13dfb487b6,2022-07-06_09h25.28.139,Colour_Asymmetry_Pilot,2022.1.3,Win32,59.24170616,62c50e9c1127f2cd403a315f,,,,,,,,,,,,,,,,,,,,,,,,,,,,,,,,,,,,,,,,,,,,,,,,,,,,,,,,,,,,,,,,,,,,,,,,,,,,,,,,,,,,,,,,,,,,,,,,,,,,,,,,,,,,,,,,,,,,,,,,,,,,,,,,,,,,,,,,,,,,,,,,,,,,,,,,,,,,,,,,,,,
0,12,12,29,1,,61641a12f14a6f1b08edd5bf,62c538c607160c13dfb487b6,2022-07-06_09h25.28.139,Colour_Asymmetry_Pilot,2022.1.3,Win32,59.24170616,62c50e9c1127f2cd403a315f,,,,,,,,,,,,,,,,,,,,,,,,,,,,,,,,,,,,,,,,,,,,,,,,,,,,,,,,,,,,,,,,,,,,,,,,,,,,,,,,,,,,,,,,,,,,,,,,,,,,,,,,,,,,,,,,,,,,,,,,,,,,,,,,,,,,,,,,,,,,,,,,,,,,,,,,,,,,,,,,,,,
0,13,13,2,1,,61641a12f14a6f1b08edd5bf,62c538c607160c13dfb487b6,2022-07-06_09h25.28.139,Colour_Asymmetry_Pilot,2022.1.3,Win32,59.24170616,62c50e9c1127f2cd403a315f,,,,,,,,,,,,,,,,,,,,,,,,,,,,,,,,,,,,,,,,,,,,,,,,,,,,,,,,,,,,,,,,,,,,,,,,,,,,,,,,,,,,,,,,,,,,,,,,,,,,,,,,,,,,,,,,,,,,,,,,,,,,,,,,,,,,,,,,,,,,,,,,,,,,,,,,,,,,,,,,,,,
0,14,14,17,1,,61641a12f14a6f1b08edd5bf,62c538c607160c13dfb487b6,2022-07-06_09h25.28.139,Colour_Asymmetry_Pilot,2022.1.3,Win32,59.24170616,62c50e9c1127f2cd403a315f,,,,,,,,,,,,,,,,,,,,,,,,,,,,,,,,,,,,,,,,,,,,,,,,,,,,,,,,,,,,,,,,,,,,,,,,,,,,,,,,,,,,,,,,,,,,,,,,,,,,,,,,,,,,,,,,,,,,,,,,,,,,,,,,,,,,,,,,,,,,,,,,,,,,,,,,,,,,,,,,,,,
0,15,15,70,1,,61641a12f14a6f1b08edd5bf,62c538c607160c13dfb487b6,2022-07-06_09h25.28.139,Colour_Asymmetry_Pilot,2022.1.3,Win32,59.24170616,62c50e9c1127f2cd403a315f,,,,,,,,,,,,,,,,,,,,,,,,,,,,,,,,,,,,,,,,,,,,,,,,,,,,,,,,,,,,,,,,,,,,,,,,,,,,,,,,,,,,,,,,,,,,,,,,,,,,,,,,,,,,,,,,,,,,,,,,,,,,,,,,,,,,,,,,,,,,,,,,,,,,,,,,,,,,,,,,,,,
0,16,16,21,1,,61641a12f14a6f1b08edd5bf,62c538c607160c13dfb487b6,2022-07-06_09h25.28.139,Colour_Asymmetry_Pilot,2022.1.3,Win32,59.24170616,62c50e9c1127f2cd403a315f,,,,,,,,,,,,,,,,,,,,,,,,,,,,,,,,,,,,,,,,,,,,,,,,,,,,,,,,,,,,,,,,,,,,,,,,,,,,,,,,,,,,,,,,,,,,,,,,,,,,,,,,,,,,,,,,,,,,,,,,,,,,,,,,,,,,,,,,,,,,,,,,,,,,,,,,,,,,,,,,,,,
0,17,17,61,1,,61641a12f14a6f1b08edd5bf,62c538c607160c13dfb487b6,2022-07-06_09h25.28.139,Colour_Asymmetry_Pilot,2022.1.3,Win32,59.24170616,62c50e9c1127f2cd403a315f,,,,,,,,,,,,,,,,,,,,,,,,,,,,,,,,,,,,,,,,,,,,,,,,,,,,,,,,,,,,,,,,,,,,,,,,,,,,,,,,,,,,,,,,,,,,,,,,,,,,,,,,,,,,,,,,,,,,,,,,,,,,,,,,,,,,,,,,,,,,,,,,,,,,,,,,,,,,,,,,,,,
0,18,18,39,1,,61641a12f14a6f1b08edd5bf,62c538c607160c13dfb487b6,2022-07-06_09h25.28.139,Colour_Asymmetry_Pilot,2022.1.3,Win32,59.24170616,62c50e9c1127f2cd403a315f,,,,,,,,,,,,,,,,,,,,,,,,,,,,,,,,,,,,,,,,,,,,,,,,,,,,,,,,,,,,,,,,,,,,,,,,,,,,,,,,,,,,,,,,,,,,,,,,,,,,,,,,,,,,,,,,,,,,,,,,,,,,,,,,,,,,,,,,,,,,,,,,,,,,,,,,,,,,,,,,,,,
0,19,19,48,1,,61641a12f14a6f1b08edd5bf,62c538c607160c13dfb487b6,2022-07-06_09h25.28.139,Colour_Asymmetry_Pilot,2022.1.3,Win32,59.24170616,62c50e9c1127f2cd403a315f,,,,,,,,,,,,,,,,,,,,,,,,,,,,,,,,,,,,,,,,,,,,,,,,,,,,,,,,,,,,,,,,,,,,,,,,,,,,,,,,,,,,,,,,,,,,,,,,,,,,,,,,,,,,,,,,,,,,,,,,,,,,,,,,,,,,,,,,,,,,,,,,,,,,,,,,,,,,,,,,,,,
0,20,20,6,1,,61641a12f14a6f1b08edd5bf,62c538c607160c13dfb487b6,2022-07-06_09h25.28.139,Colour_Asymmetry_Pilot,2022.1.3,Win32,59.24170616,62c50e9c1127f2cd403a315f,,,,,,,,,,,,,,,,,,,,,,,,,,,,,,,,,,,,,,,,,,,,,,,,,,,,,,,,,,,,,,,,,,,,,,,,,,,,,,,,,,,,,,,,,,,,,,,,,,,,,,,,,,,,,,,,,,,,,,,,,,,,,,,,,,,,,,,,,,,,,,,,,,,,,,,,,,,,,,,,,,,
0,21,21,4,1,,61641a12f14a6f1b08edd5bf,62c538c607160c13dfb487b6,2022-07-06_09h25.28.139,Colour_Asymmetry_Pilot,2022.1.3,Win32,59.24170616,62c50e9c1127f2cd403a315f,,,,,,,,,,,,,,,,,,,,,,,,,,,,,,,,,,,,,,,,,,,,,,,,,,,,,,,,,,,,,,,,,,,,,,,,,,,,,,,,,,,,,,,,,,,,,,,,,,,,,,,,,,,,,,,,,,,,,,,,,,,,,,,,,,,,,,,,,,,,,,,,,,,,,,,,,,,,,,,,,,,
0,22,22,56,1,,61641a12f14a6f1b08edd5bf,62c538c607160c13dfb487b6,2022-07-06_09h25.28.139,Colour_Asymmetry_Pilot,2022.1.3,Win32,59.24170616,62c50e9c1127f2cd403a315f,,,,,,,,,,,,,,,,,,,,,,,,,,,,,,,,,,,,,,,,,,,,,,,,,,,,,,,,,,,,,,,,,,,,,,,,,,,,,,,,,,,,,,,,,,,,,,,,,,,,,,,,,,,,,,,,,,,,,,,,,,,,,,,,,,,,,,,,,,,,,,,,,,,,,,,,,,,,,,,,,,,
0,23,23,22,1,,61641a12f14a6f1b08edd5bf,62c538c607160c13dfb487b6,2022-07-06_09h25.28.139,Colour_Asymmetry_Pilot,2022.1.3,Win32,59.24170616,62c50e9c1127f2cd403a315f,,,,,,,,,,,,,,,,,,,,,,,,,,,,,,,,,,,,,,,,,,,,,,,,,,,,,,,,,,,,,,,,,,,,,,,,,,,,,,,,,,,,,,,,,,,,,,,,,,,,,,,,,,,,,,,,,,,,,,,,,,,,,,,,,,,,,,,,,,,,,,,,,,,,,,,,,,,,,,,,,,,
0,24,24,72,1,,61641a12f14a6f1b08edd5bf,62c538c607160c13dfb487b6,2022-07-06_09h25.28.139,Colour_Asymmetry_Pilot,2022.1.3,Win32,59.24170616,62c50e9c1127f2cd403a315f,,,,,,,,,,,,,,,,,,,,,,,,,,,,,,,,,,,,,,,,,,,,,,,,,,,,,,,,,,,,,,,,,,,,,,,,,,,,,,,,,,,,,,,,,,,,,,,,,,,,,,,,,,,,,,,,,,,,,,,,,,,,,,,,,,,,,,,,,,,,,,,,,,,,,,,,,,,,,,,,,,,
0,25,25,11,1,,61641a12f14a6f1b08edd5bf,62c538c607160c13dfb487b6,2022-07-06_09h25.28.139,Colour_Asymmetry_Pilot,2022.1.3,Win32,59.24170616,62c50e9c1127f2cd403a315f,,,,,,,,,,,,,,,,,,,,,,,,,,,,,,,,,,,,,,,,,,,,,,,,,,,,,,,,,,,,,,,,,,,,,,,,,,,,,,,,,,,,,,,,,,,,,,,,,,,,,,,,,,,,,,,,,,,,,,,,,,,,,,,,,,,,,,,,,,,,,,,,,,,,,,,,,,,,,,,,,,,
0,26,26,86,1,,61641a12f14a6f1b08edd5bf,62c538c607160c13dfb487b6,2022-07-06_09h25.28.139,Colour_Asymmetry_Pilot,2022.1.3,Win32,59.24170616,62c50e9c1127f2cd403a315f,,,,,,,,,,,,,,,,,,,,,,,,,,,,,,,,,,,,,,,,,,,,,,,,,,,,,,,,,,,,,,,,,,,,,,,,,,,,,,,,,,,,,,,,,,,,,,,,,,,,,,,,,,,,,,,,,,,,,,,,,,,,,,,,,,,,,,,,,,,,,,,,,,,,,,,,,,,,,,,,,,,
0,27,27,54,1,,61641a12f14a6f1b08edd5bf,62c538c607160c13dfb487b6,2022-07-06_09h25.28.139,Colour_Asymmetry_Pilot,2022.1.3,Win32,59.24170616,62c50e9c1127f2cd403a315f,,,,,,,,,,,,,,,,,,,,,,,,,,,,,,,,,,,,,,,,,,,,,,,,,,,,,,,,,,,,,,,,,,,,,,,,,,,,,,,,,,,,,,,,,,,,,,,,,,,,,,,,,,,,,,,,,,,,,,,,,,,,,,,,,,,,,,,,,,,,,,,,,,,,,,,,,,,,,,,,,,,
0,28,28,63,1,,61641a12f14a6f1b08edd5bf,62c538c607160c13dfb487b6,2022-07-06_09h25.28.139,Colour_Asymmetry_Pilot,2022.1.3,Win32,59.24170616,62c50e9c1127f2cd403a315f,,,,,,,,,,,,,,,,,,,,,,,,,,,,,,,,,,,,,,,,,,,,,,,,,,,,,,,,,,,,,,,,,,,,,,,,,,,,,,,,,,,,,,,,,,,,,,,,,,,,,,,,,,,,,,,,,,,,,,,,,,,,,,,,,,,,,,,,,,,,,,,,,,,,,,,,,,,,,,,,,,,
0,29,29,12,1,,61641a12f14a6f1b08edd5bf,62c538c607160c13dfb487b6,2022-07-06_09h25.28.139,Colour_Asymmetry_Pilot,2022.1.3,Win32,59.24170616,62c50e9c1127f2cd403a315f,,,,,,,,,,,,,,,,,,,,,,,,,,,,,,,,,,,,,,,,,,,,,,,,,,,,,,,,,,,,,,,,,,,,,,,,,,,,,,,,,,,,,,,,,,,,,,,,,,,,,,,,,,,,,,,,,,,,,,,,,,,,,,,,,,,,,,,,,,,,,,,,,,,,,,,,,,,,,,,,,,,
0,30,30,8,1,,61641a12f14a6f1b08edd5bf,62c538c607160c13dfb487b6,2022-07-06_09h25.28.139,Colour_Asymmetry_Pilot,2022.1.3,Win32,59.24170616,62c50e9c1127f2cd403a315f,,,,,,,,,,,,,,,,,,,,,,,,,,,,,,,,,,,,,,,,,,,,,,,,,,,,,,,,,,,,,,,,,,,,,,,,,,,,,,,,,,,,,,,,,,,,,,,,,,,,,,,,,,,,,,,,,,,,,,,,,,,,,,,,,,,,,,,,,,,,,,,,,,,,,,,,,,,,,,,,,,,
0,31,31,44,1,,61641a12f14a6f1b08edd5bf,62c538c607160c13dfb487b6,2022-07-06_09h25.28.139,Colour_Asymmetry_Pilot,2022.1.3,Win32,59.24170616,62c50e9c1127f2cd403a315f,,,,,,,,,,,,,,,,,,,,,,,,,,,,,,,,,,,,,,,,,,,,,,,,,,,,,,,,,,,,,,,,,,,,,,,,,,,,,,,,,,,,,,,,,,,,,,,,,,,,,,,,,,,,,,,,,,,,,,,,,,,,,,,,,,,,,,,,,,,,,,,,,,,,,,,,,,,,,,,,,,,
0,32,32,67,1,,61641a12f14a6f1b08edd5bf,62c538c607160c13dfb487b6,2022-07-06_09h25.28.139,Colour_Asymmetry_Pilot,2022.1.3,Win32,59.24170616,62c50e9c1127f2cd403a315f,,,,,,,,,,,,,,,,,,,,,,,,,,,,,,,,,,,,,,,,,,,,,,,,,,,,,,,,,,,,,,,,,,,,,,,,,,,,,,,,,,,,,,,,,,,,,,,,,,,,,,,,,,,,,,,,,,,,,,,,,,,,,,,,,,,,,,,,,,,,,,,,,,,,,,,,,,,,,,,,,,,
0,33,33,5,1,,61641a12f14a6f1b08edd5bf,62c538c607160c13dfb487b6,2022-07-06_09h25.28.139,Colour_Asymmetry_Pilot,2022.1.3,Win32,59.24170616,62c50e9c1127f2cd403a315f,,,,,,,,,,,,,,,,,,,,,,,,,,,,,,,,,,,,,,,,,,,,,,,,,,,,,,,,,,,,,,,,,,,,,,,,,,,,,,,,,,,,,,,,,,,,,,,,,,,,,,,,,,,,,,,,,,,,,,,,,,,,,,,,,,,,,,,,,,,,,,,,,,,,,,,,,,,,,,,,,,,
0,34,34,37,1,,61641a12f14a6f1b08edd5bf,62c538c607160c13dfb487b6,2022-07-06_09h25.28.139,Colour_Asymmetry_Pilot,2022.1.3,Win32,59.24170616,62c50e9c1127f2cd403a315f,,,,,,,,,,,,,,,,,,,,,,,,,,,,,,,,,,,,,,,,,,,,,,,,,,,,,,,,,,,,,,,,,,,,,,,,,,,,,,,,,,,,,,,,,,,,,,,,,,,,,,,,,,,,,,,,,,,,,,,,,,,,,,,,,,,,,,,,,,,,,,,,,,,,,,,,,,,,,,,,,,,
0,35,35,40,1,,61641a12f14a6f1b08edd5bf,62c538c607160c13dfb487b6,2022-07-06_09h25.28.139,Colour_Asymmetry_Pilot,2022.1.3,Win32,59.24170616,62c50e9c1127f2cd403a315f,,,,,,,,,,,,,,,,,,,,,,,,,,,,,,,,,,,,,,,,,,,,,,,,,,,,,,,,,,,,,,,,,,,,,,,,,,,,,,,,,,,,,,,,,,,,,,,,,,,,,,,,,,,,,,,,,,,,,,,,,,,,,,,,,,,,,,,,,,,,,,,,,,,,,,,,,,,,,,,,,,,
0,36,36,57,1,,61641a12f14a6f1b08edd5bf,62c538c607160c13dfb487b6,2022-07-06_09h25.28.139,Colour_Asymmetry_Pilot,2022.1.3,Win32,59.24170616,62c50e9c1127f2cd403a315f,,,,,,,,,,,,,,,,,,,,,,,,,,,,,,,,,,,,,,,,,,,,,,,,,,,,,,,,,,,,,,,,,,,,,,,,,,,,,,,,,,,,,,,,,,,,,,,,,,,,,,,,,,,,,,,,,,,,,,,,,,,,,,,,,,,,,,,,,,,,,,,,,,,,,,,,,,,,,,,,,,,
0,37,37,87,1,,61641a12f14a6f1b08edd5bf,62c538c607160c13dfb487b6,2022-07-06_09h25.28.139,Colour_Asymmetry_Pilot,2022.1.3,Win32,59.24170616,62c50e9c1127f2cd403a315f,,,,,,,,,,,,,,,,,,,,,,,,,,,,,,,,,,,,,,,,,,,,,,,,,,,,,,,,,,,,,,,,,,,,,,,,,,,,,,,,,,,,,,,,,,,,,,,,,,,,,,,,,,,,,,,,,,,,,,,,,,,,,,,,,,,,,,,,,,,,,,,,,,,,,,,,,,,,,,,,,,,
0,38,38,1,1,,61641a12f14a6f1b08edd5bf,62c538c607160c13dfb487b6,2022-07-06_09h25.28.139,Colour_Asymmetry_Pilot,2022.1.3,Win32,59.24170616,62c50e9c1127f2cd403a315f,,,,,,,,,,,,,,,,,,,,,,,,,,,,,,,,,,,,,,,,,,,,,,,,,,,,,,,,,,,,,,,,,,,,,,,,,,,,,,,,,,,,,,,,,,,,,,,,,,,,,,,,,,,,,,,,,,,,,,,,,,,,,,,,,,,,,,,,,,,,,,,,,,,,,,,,,,,,,,,,,,,
0,39,39,51,1,,61641a12f14a6f1b08edd5bf,62c538c607160c13dfb487b6,2022-07-06_09h25.28.139,Colour_Asymmetry_Pilot,2022.1.3,Win32,59.24170616,62c50e9c1127f2cd403a315f,,,,,,,,,,,,,,,,,,,,,,,,,,,,,,,,,,,,,,,,,,,,,,,,,,,,,,,,,,,,,,,,,,,,,,,,,,,,,,,,,,,,,,,,,,,,,,,,,,,,,,,,,,,,,,,,,,,,,,,,,,,,,,,,,,,,,,,,,,,,,,,,,,,,,,,,,,,,,,,,,,,
0,40,40,14,1,,61641a12f14a6f1b08edd5bf,62c538c607160c13dfb487b6,2022-07-06_09h25.28.139,Colour_Asymmetry_Pilot,2022.1.3,Win32,59.24170616,62c50e9c1127f2cd403a315f,,,,,,,,,,,,,,,,,,,,,,,,,,,,,,,,,,,,,,,,,,,,,,,,,,,,,,,,,,,,,,,,,,,,,,,,,,,,,,,,,,,,,,,,,,,,,,,,,,,,,,,,,,,,,,,,,,,,,,,,,,,,,,,,,,,,,,,,,,,,,,,,,,,,,,,,,,,,,,,,,,,
0,41,41,49,1,,61641a12f14a6f1b08edd5bf,62c538c607160c13dfb487b6,2022-07-06_09h25.28.139,Colour_Asymmetry_Pilot,2022.1.3,Win32,59.24170616,62c50e9c1127f2cd403a315f,,,,,,,,,,,,,,,,,,,,,,,,,,,,,,,,,,,,,,,,,,,,,,,,,,,,,,,,,,,,,,,,,,,,,,,,,,,,,,,,,,,,,,,,,,,,,,,,,,,,,,,,,,,,,,,,,,,,,,,,,,,,,,,,,,,,,,,,,,,,,,,,,,,,,,,,,,,,,,,,,,,
0,42,42,84,1,,61641a12f14a6f1b08edd5bf,62c538c607160c13dfb487b6,2022-07-06_09h25.28.139,Colour_Asymmetry_Pilot,2022.1.3,Win32,59.24170616,62c50e9c1127f2cd403a315f,,,,,,,,,,,,,,,,,,,,,,,,,,,,,,,,,,,,,,,,,,,,,,,,,,,,,,,,,,,,,,,,,,,,,,,,,,,,,,,,,,,,,,,,,,,,,,,,,,,,,,,,,,,,,,,,,,,,,,,,,,,,,,,,,,,,,,,,,,,,,,,,,,,,,,,,,,,,,,,,,,,
0,43,43,66,1,,61641a12f14a6f1b08edd5bf,62c538c607160c13dfb487b6,2022-07-06_09h25.28.139,Colour_Asymmetry_Pilot,2022.1.3,Win32,59.24170616,62c50e9c1127f2cd403a315f,,,,,,,,,,,,,,,,,,,,,,,,,,,,,,,,,,,,,,,,,,,,,,,,,,,,,,,,,,,,,,,,,,,,,,,,,,,,,,,,,,,,,,,,,,,,,,,,,,,,,,,,,,,,,,,,,,,,,,,,,,,,,,,,,,,,,,,,,,,,,,,,,,,,,,,,,,,,,,,,,,,
0,44,44,78,1,,61641a12f14a6f1b08edd5bf,62c538c607160c13dfb487b6,2022-07-06_09h25.28.139,Colour_Asymmetry_Pilot,2022.1.3,Win32,59.24170616,62c50e9c1127f2cd403a315f,,,,,,,,,,,,,,,,,,,,,,,,,,,,,,,,,,,,,,,,,,,,,,,,,,,,,,,,,,,,,,,,,,,,,,,,,,,,,,,,,,,,,,,,,,,,,,,,,,,,,,,,,,,,,,,,,,,,,,,,,,,,,,,,,,,,,,,,,,,,,,,,,,,,,,,,,,,,,,,,,,,
0,45,45,33,1,,61641a12f14a6f1b08edd5bf,62c538c607160c13dfb487b6,2022-07-06_09h25.28.139,Colour_Asymmetry_Pilot,2022.1.3,Win32,59.24170616,62c50e9c1127f2cd403a315f,,,,,,,,,,,,,,,,,,,,,,,,,,,,,,,,,,,,,,,,,,,,,,,,,,,,,,,,,,,,,,,,,,,,,,,,,,,,,,,,,,,,,,,,,,,,,,,,,,,,,,,,,,,,,,,,,,,,,,,,,,,,,,,,,,,,,,,,,,,,,,,,,,,,,,,,,,,,,,,,,,,
0,46,46,75,1,,61641a12f14a6f1b08edd5bf,62c538c607160c13dfb487b6,2022-07-06_09h25.28.139,Colour_Asymmetry_Pilot,2022.1.3,Win32,59.24170616,62c50e9c1127f2cd403a315f,,,,,,,,,,,,,,,,,,,,,,,,,,,,,,,,,,,,,,,,,,,,,,,,,,,,,,,,,,,,,,,,,,,,,,,,,,,,,,,,,,,,,,,,,,,,,,,,,,,,,,,,,,,,,,,,,,,,,,,,,,,,,,,,,,,,,,,,,,,,,,,,,,,,,,,,,,,,,,,,,,,
0,47,47,30,1,,61641a12f14a6f1b08edd5bf,62c538c607160c13dfb487b6,2022-07-06_09h25.28.139,Colour_Asymmetry_Pilot,2022.1.3,Win32,59.24170616,62c50e9c1127f2cd403a315f,,,,,,,,,,,,,,,,,,,,,,,,,,,,,,,,,,,,,,,,,,,,,,,,,,,,,,,,,,,,,,,,,,,,,,,,,,,,,,,,,,,,,,,,,,,,,,,,,,,,,,,,,,,,,,,,,,,,,,,,,,,,,,,,,,,,,,,,,,,,,,,,,,,,,,,,,,,,,,,,,,,
0,48,48,52,1,,61641a12f14a6f1b08edd5bf,62c538c607160c13dfb487b6,2022-07-06_09h25.28.139,Colour_Asymmetry_Pilot,2022.1.3,Win32,59.24170616,62c50e9c1127f2cd403a315f,,,,,,,,,,,,,,,,,,,,,,,,,,,,,,,,,,,,,,,,,,,,,,,,,,,,,,,,,,,,,,,,,,,,,,,,,,,,,,,,,,,,,,,,,,,,,,,,,,,,,,,,,,,,,,,,,,,,,,,,,,,,,,,,,,,,,,,,,,,,,,,,,,,,,,,,,,,,,,,,,,,
0,49,49,13,1,,61641a12f14a6f1b08edd5bf,62c538c607160c13dfb487b6,2022-07-06_09h25.28.139,Colour_Asymmetry_Pilot,2022.1.3,Win32,59.24170616,62c50e9c1127f2cd403a315f,,,,,,,,,,,,,,,,,,,,,,,,,,,,,,,,,,,,,,,,,,,,,,,,,,,,,,,,,,,,,,,,,,,,,,,,,,,,,,,,,,,,,,,,,,,,,,,,,,,,,,,,,,,,,,,,,,,,,,,,,,,,,,,,,,,,,,,,,,,,,,,,,,,,,,,,,,,,,,,,,,,
0,50,50,27,1,,61641a12f14a6f1b08edd5bf,62c538c607160c13dfb487b6,2022-07-06_09h25.28.139,Colour_Asymmetry_Pilot,2022.1.3,Win32,59.24170616,62c50e9c1127f2cd403a315f,,,,,,,,,,,,,,,,,,,,,,,,,,,,,,,,,,,,,,,,,,,,,,,,,,,,,,,,,,,,,,,,,,,,,,,,,,,,,,,,,,,,,,,,,,,,,,,,,,,,,,,,,,,,,,,,,,,,,,,,,,,,,,,,,,,,,,,,,,,,,,,,,,,,,,,,,,,,,,,,,,,
0,51,51,41,1,,61641a12f14a6f1b08edd5bf,62c538c607160c13dfb487b6,2022-07-06_09h25.28.139,Colour_Asymmetry_Pilot,2022.1.3,Win32,59.24170616,62c50e9c1127f2cd403a315f,,,,,,,,,,,,,,,,,,,,,,,,,,,,,,,,,,,,,,,,,,,,,,,,,,,,,,,,,,,,,,,,,,,,,,,,,,,,,,,,,,,,,,,,,,,,,,,,,,,,,,,,,,,,,,,,,,,,,,,,,,,,,,,,,,,,,,,,,,,,,,,,,,,,,,,,,,,,,,,,,,,
0,52,52,36,1,,61641a12f14a6f1b08edd5bf,62c538c607160c13dfb487b6,2022-07-06_09h25.28.139,Colour_Asymmetry_Pilot,2022.1.3,Win32,59.24170616,62c50e9c1127f2cd403a315f,,,,,,,,,,,,,,,,,,,,,,,,,,,,,,,,,,,,,,,,,,,,,,,,,,,,,,,,,,,,,,,,,,,,,,,,,,,,,,,,,,,,,,,,,,,,,,,,,,,,,,,,,,,,,,,,,,,,,,,,,,,,,,,,,,,,,,,,,,,,,,,,,,,,,,,,,,,,,,,,,,,
0,53,53,18,1,,61641a12f14a6f1b08edd5bf,62c538c607160c13dfb487b6,2022-07-06_09h25.28.139,Colour_Asymmetry_Pilot,2022.1.3,Win32,59.24170616,62c50e9c1127f2cd403a315f,,,,,,,,,,,,,,,,,,,,,,,,,,,,,,,,,,,,,,,,,,,,,,,,,,,,,,,,,,,,,,,,,,,,,,,,,,,,,,,,,,,,,,,,,,,,,,,,,,,,,,,,,,,,,,,,,,,,,,,,,,,,,,,,,,,,,,,,,,,,,,,,,,,,,,,,,,,,,,,,,,,
0,54,54,23,1,,61641a12f14a6f1b08edd5bf,62c538c607160c13dfb487b6,2022-07-06_09h25.28.139,Colour_Asymmetry_Pilot,2022.1.3,Win32,59.24170616,62c50e9c1127f2cd403a315f,,,,,,,,,,,,,,,,,,,,,,,,,,,,,,,,,,,,,,,,,,,,,,,,,,,,,,,,,,,,,,,,,,,,,,,,,,,,,,,,,,,,,,,,,,,,,,,,,,,,,,,,,,,,,,,,,,,,,,,,,,,,,,,,,,,,,,,,,,,,,,,,,,,,,,,,,,,,,,,,,,,
0,55,55,26,1,,61641a12f14a6f1b08edd5bf,62c538c607160c13dfb487b6,2022-07-06_09h25.28.139,Colour_Asymmetry_Pilot,2022.1.3,Win32,59.24170616,62c50e9c1127f2cd403a315f,,,,,,,,,,,,,,,,,,,,,,,,,,,,,,,,,,,,,,,,,,,,,,,,,,,,,,,,,,,,,,,,,,,,,,,,,,,,,,,,,,,,,,,,,,,,,,,,,,,,,,,,,,,,,,,,,,,,,,,,,,,,,,,,,,,,,,,,,,,,,,,,,,,,,,,,,,,,,,,,,,,
0,56,56,68,1,,61641a12f14a6f1b08edd5bf,62c538c607160c13dfb487b6,2022-07-06_09h25.28.139,Colour_Asymmetry_Pilot,2022.1.3,Win32,59.24170616,62c50e9c1127f2cd403a315f,,,,,,,,,,,,,,,,,,,,,,,,,,,,,,,,,,,,,,,,,,,,,,,,,,,,,,,,,,,,,,,,,,,,,,,,,,,,,,,,,,,,,,,,,,,,,,,,,,,,,,,,,,,,,,,,,,,,,,,,,,,,,,,,,,,,,,,,,,,,,,,,,,,,,,,,,,,,,,,,,,,
0,57,57,81,1,,61641a12f14a6f1b08edd5bf,62c538c607160c13dfb487b6,2022-07-06_09h25.28.139,Colour_Asymmetry_Pilot,2022.1.3,Win32,59.24170616,62c50e9c1127f2cd403a315f,,,,,,,,,,,,,,,,,,,,,,,,,,,,,,,,,,,,,,,,,,,,,,,,,,,,,,,,,,,,,,,,,,,,,,,,,,,,,,,,,,,,,,,,,,,,,,,,,,,,,,,,,,,,,,,,,,,,,,,,,,,,,,,,,,,,,,,,,,,,,,,,,,,,,,,,,,,,,,,,,,,
0,58,58,88,1,,61641a12f14a6f1b08edd5bf,62c538c607160c13dfb487b6,2022-07-06_09h25.28.139,Colour_Asymmetry_Pilot,2022.1.3,Win32,59.24170616,62c50e9c1127f2cd403a315f,,,,,,,,,,,,,,,,,,,,,,,,,,,,,,,,,,,,,,,,,,,,,,,,,,,,,,,,,,,,,,,,,,,,,,,,,,,,,,,,,,,,,,,,,,,,,,,,,,,,,,,,,,,,,,,,,,,,,,,,,,,,,,,,,,,,,,,,,,,,,,,,,,,,,,,,,,,,,,,,,,,
0,59,59,76,1,,61641a12f14a6f1b08edd5bf,62c538c607160c13dfb487b6,2022-07-06_09h25.28.139,Colour_Asymmetry_Pilot,2022.1.3,Win32,59.24170616,62c50e9c1127f2cd403a315f,,,,,,,,,,,,,,,,,,,,,,,,,,,,,,,,,,,,,,,,,,,,,,,,,,,,,,,,,,,,,,,,,,,,,,,,,,,,,,,,,,,,,,,,,,,,,,,,,,,,,,,,,,,,,,,,,,,,,,,,,,,,,,,,,,,,,,,,,,,,,,,,,,,,,,,,,,,,,,,,,,,
0,60,60,32,1,,61641a12f14a6f1b08edd5bf,62c538c607160c13dfb487b6,2022-07-06_09h25.28.139,Colour_Asymmetry_Pilot,2022.1.3,Win32,59.24170616,62c50e9c1127f2cd403a315f,,,,,,,,,,,,,,,,,,,,,,,,,,,,,,,,,,,,,,,,,,,,,,,,,,,,,,,,,,,,,,,,,,,,,,,,,,,,,,,,,,,,,,,,,,,,,,,,,,,,,,,,,,,,,,,,,,,,,,,,,,,,,,,,,,,,,,,,,,,,,,,,,,,,,,,,,,,,,,,,,,,
0,61,61,80,1,,61641a12f14a6f1b08edd5bf,62c538c607160c13dfb487b6,2022-07-06_09h25.28.139,Colour_Asymmetry_Pilot,2022.1.3,Win32,59.24170616,62c50e9c1127f2cd403a315f,,,,,,,,,,,,,,,,,,,,,,,,,,,,,,,,,,,,,,,,,,,,,,,,,,,,,,,,,,,,,,,,,,,,,,,,,,,,,,,,,,,,,,,,,,,,,,,,,,,,,,,,,,,,,,,,,,,,,,,,,,,,,,,,,,,,,,,,,,,,,,,,,,,,,,,,,,,,,,,,,,,
0,62,62,45,1,,61641a12f14a6f1b08edd5bf,62c538c607160c13dfb487b6,2022-07-06_09h25.28.139,Colour_Asymmetry_Pilot,2022.1.3,Win32,59.24170616,62c50e9c1127f2cd403a315f,,,,,,,,,,,,,,,,,,,,,,,,,,,,,,,,,,,,,,,,,,,,,,,,,,,,,,,,,,,,,,,,,,,,,,,,,,,,,,,,,,,,,,,,,,,,,,,,,,,,,,,,,,,,,,,,,,,,,,,,,,,,,,,,,,,,,,,,,,,,,,,,,,,,,,,,,,,,,,,,,,,
0,63,63,58,1,,61641a12f14a6f1b08edd5bf,62c538c607160c13dfb487b6,2022-07-06_09h25.28.139,Colour_Asymmetry_Pilot,2022.1.3,Win32,59.24170616,62c50e9c1127f2cd403a315f,,,,,,,,,,,,,,,,,,,,,,,,,,,,,,,,,,,,,,,,,,,,,,,,,,,,,,,,,,,,,,,,,,,,,,,,,,,,,,,,,,,,,,,,,,,,,,,,,,,,,,,,,,,,,,,,,,,,,,,,,,,,,,,,,,,,,,,,,,,,,,,,,,,,,,,,,,,,,,,,,,,
0,64,64,43,1,,61641a12f14a6f1b08edd5bf,62c538c607160c13dfb487b6,2022-07-06_09h25.28.139,Colour_Asymmetry_Pilot,2022.1.3,Win32,59.24170616,62c50e9c1127f2cd403a315f,,,,,,,,,,,,,,,,,,,,,,,,,,,,,,,,,,,,,,,,,,,,,,,,,,,,,,,,,,,,,,,,,,,,,,,,,,,,,,,,,,,,,,,,,,,,,,,,,,,,,,,,,,,,,,,,,,,,,,,,,,,,,,,,,,,,,,,,,,,,,,,,,,,,,,,,,,,,,,,,,,,
0,65,65,46,1,,61641a12f14a6f1b08edd5bf,62c538c607160c13dfb487b6,2022-07-06_09h25.28.139,Colour_Asymmetry_Pilot,2022.1.3,Win32,59.24170616,62c50e9c1127f2cd403a315f,,,,,,,,,,,,,,,,,,,,,,,,,,,,,,,,,,,,,,,,,,,,,,,,,,,,,,,,,,,,,,,,,,,,,,,,,,,,,,,,,,,,,,,,,,,,,,,,,,,,,,,,,,,,,,,,,,,,,,,,,,,,,,,,,,,,,,,,,,,,,,,,,,,,,,,,,,,,,,,,,,,
0,66,66,34,1,,61641a12f14a6f1b08edd5bf,62c538c607160c13dfb487b6,2022-07-06_09h25.28.139,Colour_Asymmetry_Pilot,2022.1.3,Win32,59.24170616,62c50e9c1127f2cd403a315f,,,,,,,,,,,,,,,,,,,,,,,,,,,,,,,,,,,,,,,,,,,,,,,,,,,,,,,,,,,,,,,,,,,,,,,,,,,,,,,,,,,,,,,,,,,,,,,,,,,,,,,,,,,,,,,,,,,,,,,,,,,,,,,,,,,,,,,,,,,,,,,,,,,,,,,,,,,,,,,,,,,
0,67,67,20,1,,61641a12f14a6f1b08edd5bf,62c538c607160c13dfb487b6,2022-07-06_09h25.28.139,Colour_Asymmetry_Pilot,2022.1.3,Win32,59.24170616,62c50e9c1127f2cd403a315f,,,,,,,,,,,,,,,,,,,,,,,,,,,,,,,,,,,,,,,,,,,,,,,,,,,,,,,,,,,,,,,,,,,,,,,,,,,,,,,,,,,,,,,,,,,,,,,,,,,,,,,,,,,,,,,,,,,,,,,,,,,,,,,,,,,,,,,,,,,,,,,,,,,,,,,,,,,,,,,,,,,
0,68,68,3,1,,61641a12f14a6f1b08edd5bf,62c538c607160c13dfb487b6,2022-07-06_09h25.28.139,Colour_Asymmetry_Pilot,2022.1.3,Win32,59.24170616,62c50e9c1127f2cd403a315f,,,,,,,,,,,,,,,,,,,,,,,,,,,,,,,,,,,,,,,,,,,,,,,,,,,,,,,,,,,,,,,,,,,,,,,,,,,,,,,,,,,,,,,,,,,,,,,,,,,,,,,,,,,,,,,,,,,,,,,,,,,,,,,,,,,,,,,,,,,,,,,,,,,,,,,,,,,,,,,,,,,
0,69,69,24,1,,61641a12f14a6f1b08edd5bf,62c538c607160c13dfb487b6,2022-07-06_09h25.28.139,Colour_Asymmetry_Pilot,2022.1.3,Win32,59.24170616,62c50e9c1127f2cd403a315f,,,,,,,,,,,,,,,,,,,,,,,,,,,,,,,,,,,,,,,,,,,,,,,,,,,,,,,,,,,,,,,,,,,,,,,,,,,,,,,,,,,,,,,,,,,,,,,,,,,,,,,,,,,,,,,,,,,,,,,,,,,,,,,,,,,,,,,,,,,,,,,,,,,,,,,,,,,,,,,,,,,
0,70,70,85,1,,61641a12f14a6f1b08edd5bf,62c538c607160c13dfb487b6,2022-07-06_09h25.28.139,Colour_Asymmetry_Pilot,2022.1.3,Win32,59.24170616,62c50e9c1127f2cd403a315f,,,,,,,,,,,,,,,,,,,,,,,,,,,,,,,,,,,,,,,,,,,,,,,,,,,,,,,,,,,,,,,,,,,,,,,,,,,,,,,,,,,,,,,,,,,,,,,,,,,,,,,,,,,,,,,,,,,,,,,,,,,,,,,,,,,,,,,,,,,,,,,,,,,,,,,,,,,,,,,,,,,
0,71,71,59,1,,61641a12f14a6f1b08edd5bf,62c538c607160c13dfb487b6,2022-07-06_09h25.28.139,Colour_Asymmetry_Pilot,2022.1.3,Win32,59.24170616,62c50e9c1127f2cd403a315f,,,,,,,,,,,,,,,,,,,,,,,,,,,,,,,,,,,,,,,,,,,,,,,,,,,,,,,,,,,,,,,,,,,,,,,,,,,,,,,,,,,,,,,,,,,,,,,,,,,,,,,,,,,,,,,,,,,,,,,,,,,,,,,,,,,,,,,,,,,,,,,,,,,,,,,,,,,,,,,,,,,
0,72,72,92,1,,61641a12f14a6f1b08edd5bf,62c538c607160c13dfb487b6,2022-07-06_09h25.28.139,Colour_Asymmetry_Pilot,2022.1.3,Win32,59.24170616,62c50e9c1127f2cd403a315f,,,,,,,,,,,,,,,,,,,,,,,,,,,,,,,,,,,,,,,,,,,,,,,,,,,,,,,,,,,,,,,,,,,,,,,,,,,,,,,,,,,,,,,,,,,,,,,,,,,,,,,,,,,,,,,,,,,,,,,,,,,,,,,,,,,,,,,,,,,,,,,,,,,,,,,,,,,,,,,,,,,
0,73,73,60,1,,61641a12f14a6f1b08edd5bf,62c538c607160c13dfb487b6,2022-07-06_09h25.28.139,Colour_Asymmetry_Pilot,2022.1.3,Win32,59.24170616,62c50e9c1127f2cd403a315f,,,,,,,,,,,,,,,,,,,,,,,,,,,,,,,,,,,,,,,,,,,,,,,,,,,,,,,,,,,,,,,,,,,,,,,,,,,,,,,,,,,,,,,,,,,,,,,,,,,,,,,,,,,,,,,,,,,,,,,,,,,,,,,,,,,,,,,,,,,,,,,,,,,,,,,,,,,,,,,,,,,
0,74,74,19,1,,61641a12f14a6f1b08edd5bf,62c538c607160c13dfb487b6,2022-07-06_09h25.28.139,Colour_Asymmetry_Pilot,2022.1.3,Win32,59.24170616,62c50e9c1127f2cd403a315f,,,,,,,,,,,,,,,,,,,,,,,,,,,,,,,,,,,,,,,,,,,,,,,,,,,,,,,,,,,,,,,,,,,,,,,,,,,,,,,,,,,,,,,,,,,,,,,,,,,,,,,,,,,,,,,,,,,,,,,,,,,,,,,,,,,,,,,,,,,,,,,,,,,,,,,,,,,,,,,,,,,
0,75,75,73,1,,61641a12f14a6f1b08edd5bf,62c538c607160c13dfb487b6,2022-07-06_09h25.28.139,Colour_Asymmetry_Pilot,2022.1.3,Win32,59.24170616,62c50e9c1127f2cd403a315f,,,,,,,,,,,,,,,,,,,,,,,,,,,,,,,,,,,,,,,,,,,,,,,,,,,,,,,,,,,,,,,,,,,,,,,,,,,,,,,,,,,,,,,,,,,,,,,,,,,,,,,,,,,,,,,,,,,,,,,,,,,,,,,,,,,,,,,,,,,,,,,,,,,,,,,,,,,,,,,,,,,
0,76,76,77,1,,61641a12f14a6f1b08edd5bf,62c538c607160c13dfb487b6,2022-07-06_09h25.28.139,Colour_Asymmetry_Pilot,2022.1.3,Win32,59.24170616,62c50e9c1127f2cd403a315f,,,,,,,,,,,,,,,,,,,,,,,,,,,,,,,,,,,,,,,,,,,,,,,,,,,,,,,,,,,,,,,,,,,,,,,,,,,,,,,,,,,,,,,,,,,,,,,,,,,,,,,,,,,,,,,,,,,,,,,,,,,,,,,,,,,,,,,,,,,,,,,,,,,,,,,,,,,,,,,,,,,
0,77,77,82,1,,61641a12f14a6f1b08edd5bf,62c538c607160c13dfb487b6,2022-07-06_09h25.28.139,Colour_Asymmetry_Pilot,2022.1.3,Win32,59.24170616,62c50e9c1127f2cd403a315f,,,,,,,,,,,,,,,,,,,,,,,,,,,,,,,,,,,,,,,,,,,,,,,,,,,,,,,,,,,,,,,,,,,,,,,,,,,,,,,,,,,,,,,,,,,,,,,,,,,,,,,,,,,,,,,,,,,,,,,,,,,,,,,,,,,,,,,,,,,,,,,,,,,,,,,,,,,,,,,,,,,
0,78,78,7,1,,61641a12f14a6f1b08edd5bf,62c538c607160c13dfb487b6,2022-07-06_09h25.28.139,Colour_Asymmetry_Pilot,2022.1.3,Win32,59.24170616,62c50e9c1127f2cd403a315f,,,,,,,,,,,,,,,,,,,,,,,,,,,,,,,,,,,,,,,,,,,,,,,,,,,,,,,,,,,,,,,,,,,,,,,,,,,,,,,,,,,,,,,,,,,,,,,,,,,,,,,,,,,,,,,,,,,,,,,,,,,,,,,,,,,,,,,,,,,,,,,,,,,,,,,,,,,,,,,,,,,
0,79,79,79,1,,61641a12f14a6f1b08edd5bf,62c538c607160c13dfb487b6,2022-07-06_09h25.28.139,Colour_Asymmetry_Pilot,2022.1.3,Win32,59.24170616,62c50e9c1127f2cd403a315f,,,,,,,,,,,,,,,,,,,,,,,,,,,,,,,,,,,,,,,,,,,,,,,,,,,,,,,,,,,,,,,,,,,,,,,,,,,,,,,,,,,,,,,,,,,,,,,,,,,,,,,,,,,,,,,,,,,,,,,,,,,,,,,,,,,,,,,,,,,,,,,,,,,,,,,,,,,,,,,,,,,
0,80,80,25,1,,61641a12f14a6f1b08edd5bf,62c538c607160c13dfb487b6,2022-07-06_09h25.28.139,Colour_Asymmetry_Pilot,2022.1.3,Win32,59.24170616,62c50e9c1127f2cd403a315f,,,,,,,,,,,,,,,,,,,,,,,,,,,,,,,,,,,,,,,,,,,,,,,,,,,,,,,,,,,,,,,,,,,,,,,,,,,,,,,,,,,,,,,,,,,,,,,,,,,,,,,,,,,,,,,,,,,,,,,,,,,,,,,,,,,,,,,,,,,,,,,,,,,,,,,,,,,,,,,,,,,
0,81,81,38,1,,61641a12f14a6f1b08edd5bf,62c538c607160c13dfb487b6,2022-07-06_09h25.28.139,Colour_Asymmetry_Pilot,2022.1.3,Win32,59.24170616,62c50e9c1127f2cd403a315f,,,,,,,,,,,,,,,,,,,,,,,,,,,,,,,,,,,,,,,,,,,,,,,,,,,,,,,,,,,,,,,,,,,,,,,,,,,,,,,,,,,,,,,,,,,,,,,,,,,,,,,,,,,,,,,,,,,,,,,,,,,,,,,,,,,,,,,,,,,,,,,,,,,,,,,,,,,,,,,,,,,
0,82,82,90,1,,61641a12f14a6f1b08edd5bf,62c538c607160c13dfb487b6,2022-07-06_09h25.28.139,Colour_Asymmetry_Pilot,2022.1.3,Win32,59.24170616,62c50e9c1127f2cd403a315f,,,,,,,,,,,,,,,,,,,,,,,,,,,,,,,,,,,,,,,,,,,,,,,,,,,,,,,,,,,,,,,,,,,,,,,,,,,,,,,,,,,,,,,,,,,,,,,,,,,,,,,,,,,,,,,,,,,,,,,,,,,,,,,,,,,,,,,,,,,,,,,,,,,,,,,,,,,,,,,,,,,
0,83,83,91,1,,61641a12f14a6f1b08edd5bf,62c538c607160c13dfb487b6,2022-07-06_09h25.28.139,Colour_Asymmetry_Pilot,2022.1.3,Win32,59.24170616,62c50e9c1127f2cd403a315f,,,,,,,,,,,,,,,,,,,,,,,,,,,,,,,,,,,,,,,,,,,,,,,,,,,,,,,,,,,,,,,,,,,,,,,,,,,,,,,,,,,,,,,,,,,,,,,,,,,,,,,,,,,,,,,,,,,,,,,,,,,,,,,,,,,,,,,,,,,,,,,,,,,,,,,,,,,,,,,,,,,
0,84,84,64,1,,61641a12f14a6f1b08edd5bf,62c538c607160c13dfb487b6,2022-07-06_09h25.28.139,Colour_Asymmetry_Pilot,2022.1.3,Win32,59.24170616,62c50e9c1127f2cd403a315f,,,,,,,,,,,,,,,,,,,,,,,,,,,,,,,,,,,,,,,,,,,,,,,,,,,,,,,,,,,,,,,,,,,,,,,,,,,,,,,,,,,,,,,,,,,,,,,,,,,,,,,,,,,,,,,,,,,,,,,,,,,,,,,,,,,,,,,,,,,,,,,,,,,,,,,,,,,,,,,,,,,
0,85,85,50,1,,61641a12f14a6f1b08edd5bf,62c538c607160c13dfb487b6,2022-07-06_09h25.28.139,Colour_Asymmetry_Pilot,2022.1.3,Win32,59.24170616,62c50e9c1127f2cd403a315f,,,,,,,,,,,,,,,,,,,,,,,,,,,,,,,,,,,,,,,,,,,,,,,,,,,,,,,,,,,,,,,,,,,,,,,,,,,,,,,,,,,,,,,,,,,,,,,,,,,,,,,,,,,,,,,,,,,,,,,,,,,,,,,,,,,,,,,,,,,,,,,,,,,,,,,,,,,,,,,,,,,
0,86,86,83,1,,61641a12f14a6f1b08edd5bf,62c538c607160c13dfb487b6,2022-07-06_09h25.28.139,Colour_Asymmetry_Pilot,2022.1.3,Win32,59.24170616,62c50e9c1127f2cd403a315f,,,,,,,,,,,,,,,,,,,,,,,,,,,,,,,,,,,,,,,,,,,,,,,,,,,,,,,,,,,,,,,,,,,,,,,,,,,,,,,,,,,,,,,,,,,,,,,,,,,,,,,,,,,,,,,,,,,,,,,,,,,,,,,,,,,,,,,,,,,,,,,,,,,,,,,,,,,,,,,,,,,
0,87,87,69,1,,61641a12f14a6f1b08edd5bf,62c538c607160c13dfb487b6,2022-07-06_09h25.28.139,Colour_Asymmetry_Pilot,2022.1.3,Win32,59.24170616,62c50e9c1127f2cd403a315f,,,,,,,,,,,,,,,,,,,,,,,,,,,,,,,,,,,,,,,,,,,,,,,,,,,,,,,,,,,,,,,,,,,,,,,,,,,,,,,,,,,,,,,,,,,,,,,,,,,,,,,,,,,,,,,,,,,,,,,,,,,,,,,,,,,,,,,,,,,,,,,,,,,,,,,,,,,,,,,,,,,
0,88,88,71,1,,61641a12f14a6f1b08edd5bf,62c538c607160c13dfb487b6,2022-07-06_09h25.28.139,Colour_Asymmetry_Pilot,2022.1.3,Win32,59.24170616,62c50e9c1127f2cd403a315f,,,,,,,,,,,,,,,,,,,,,,,,,,,,,,,,,,,,,,,,,,,,,,,,,,,,,,,,,,,,,,,,,,,,,,,,,,,,,,,,,,,,,,,,,,,,,,,,,,,,,,,,,,,,,,,,,,,,,,,,,,,,,,,,,,,,,,,,,,,,,,,,,,,,,,,,,,,,,,,,,,,
0,89,89,42,1,,61641a12f14a6f1b08edd5bf,62c538c607160c13dfb487b6,2022-07-06_09h25.28.139,Colour_Asymmetry_Pilot,2022.1.3,Win32,59.24170616,62c50e9c1127f2cd403a315f,,,,,,,,,,,,,,,,,,,,,,,,,,,,,,,,,,,,,,,,,,,,,,,,,,,,,,,,,,,,,,,,,,,,,,,,,,,,,,,,,,,,,,,,,,,,,,,,,,,,,,,,,,,,,,,,,,,,,,,,,,,,,,,,,,,,,,,,,,,,,,,,,,,,,,,,,,,,,,,,,,,
0,90,90,15,1,,61641a12f14a6f1b08edd5bf,62c538c607160c13dfb487b6,2022-07-06_09h25.28.139,Colour_Asymmetry_Pilot,2022.1.3,Win32,59.24170616,62c50e9c1127f2cd403a315f,,,,,,,,,,,,,,,,,,,,,,,,,,,,,,,,,,,,,,,,,,,,,,,,,,,,,,,,,,,,,,,,,,,,,,,,,,,,,,,,,,,,,,,,,,,,,,,,,,,,,,,,,,,,,,,,,,,,,,,,,,,,,,,,,,,,,,,,,,,,,,,,,,,,,,,,,,,,,,,,,,,
0,91,91,28,1,,61641a12f14a6f1b08edd5bf,62c538c607160c13dfb487b6,2022-07-06_09h25.28.139,Colour_Asymmetry_Pilot,2022.1.3,Win32,59.24170616,62c50e9c1127f2cd403a315f,,,,,,,,,,,,,,,,,,,,,,,,,,,,,,,,,,,,,,,,,,,,,,,,,,,,,,,,,,,,,,,,,,,,,,,,,,,,,,,,,,,,,,,,,,,,,,,,,,,,,,,,,,,,,,,,,,,,,,,,,,,,,,,,,,,,,,,,,,,,,,,,,,,,,,,,,,,,,,,,,,,
0,92,92,10,1,,61641a12f14a6f1b08edd5bf,62c538c607160c13dfb487b6,2022-07-06_09h25.28.139,Colour_Asymmetry_Pilot,2022.1.3,Win32,59.24170616,62c50e9c1127f2cd403a315f,,,,,,,,,,,,,,,,,,,,,,,,,,,,,,,,,,,,,,,,,,,,,,,,,,,,,,,,,,,,,,,,,,,,,,,,,,,,,,,,,,,,,,,,,,,,,,,,,,,,,,,,,,,,,,,,,,,,,,,,,,,,,,,,,,,,,,,,,,,,,,,,,,,,,,,,,,,,,,,,,,,
,,,,,,61641a12f14a6f1b08edd5bf,62c538c607160c13dfb487b6,2022-07-06_09h25.28.139,Colour_Asymmetry_Pilot,2022.1.3,Win32,59.24170616,62c50e9c1127f2cd403a315f,0,0,0,99,1,twofour,,,,,,,,,,,,,,,,,,,,,,,,,,,,,,,,,,,,,,,,,,,,,,,,,,,,,,,,,,,,,,,,,,,,,,,,,,,,,,,,,,,,,,,,,,,,,,,,,,,,,,,,,,,,,,,,,,,,,,,,,,,,,,,,,,,,,,,,,,,,,,,,,,,,,,,,,,,,,
,,,,,,61641a12f14a6f1b08edd5bf,62c538c607160c13dfb487b6,2022-07-06_09h25.28.139,Colour_Asymmetry_Pilot,2022.1.3,Win32,59.24170616,62c50e9c1127f2cd403a315f,0,1,1,160,1,onetwo,,,,,,,,,,,,,,,,,,,,,,,,,,,,,,,,,,,,,,,,,,,,,,,,,,,,,,,,,,,,,,,,,,,,,,,,,,,,,,,,,,,,,,,,,,,,,,,,,,,,,,,,,,,,,,,,,,,,,,,,,,,,,,,,,,,,,,,,,,,,,,,,,,,,,,,,,,,,,
,,,,,,61641a12f14a6f1b08edd5bf,62c538c607160c13dfb487b6,2022-07-06_09h25.28.139,Colour_Asymmetry_Pilot,2022.1.3,Win32,59.24170616,62c50e9c1127f2cd403a315f,0,2,2,128,1,onetwo,,,,,,,,,,,,,,,,,,,,,,,,,,,,,,,,,,,,,,,,,,,,,,,,,,,,,,,,,,,,,,,,,,,,,,,,,,,,,,,,,,,,,,,,,,,,,,,,,,,,,,,,,,,,,,,,,,,,,,,,,,,,,,,,,,,,,,,,,,,,,,,,,,,,,,,,,,,,,
,,,,,,61641a12f14a6f1b08edd5bf,62c538c607160c13dfb487b6,2022-07-06_09h25.28.139,Colour_Asymmetry_Pilot,2022.1.3,Win32,59.24170616,62c50e9c1127f2cd403a315f,0,3,3,75,1,twofour,,,,,,,,,,,,,,,,,,,,,,,,,,,,,,,,,,,,,,,,,,,,,,,,,,,,,,,,,,,,,,,,,,,,,,,,,,,,,,,,,,,,,,,,,,,,,,,,,,,,,,,,,,,,,,,,,,,,,,,,,,,,,,,,,,,,,,,,,,,,,,,,,,,,,,,,,,,,,
,,,,,,61641a12f14a6f1b08edd5bf,62c538c607160c13dfb487b6,2022-07-06_09h25.28.139,Colour_Asymmetry_Pilot,2022.1.3,Win32,59.24170616,62c50e9c1127f2cd403a315f,0,4,4,27,1,twofour,,,,,,,,,,,,,,,,,,,,,,,,,,,,,,,,,,,,,,,,,,,,,,,,,,,,,,,,,,,,,,,,,,,,,,,,,,,,,,,,,,,,,,,,,,,,,,,,,,,,,,,,,,,,,,,,,,,,,,,,,,,,,,,,,,,,,,,,,,,,,,,,,,,,,,,,,,,,,
,,,,,,61641a12f14a6f1b08edd5bf,62c538c607160c13dfb487b6,2022-07-06_09h25.28.139,Colour_Asymmetry_Pilot,2022.1.3,Win32,59.24170616,62c50e9c1127f2cd403a315f,0,5,5,116,1,threeone,,,,,,,,,,,,,,,,,,,,,,,,,,,,,,,,,,,,,,,,,,,,,,,,,,,,,,,,,,,,,,,,,,,,,,,,,,,,,,,,,,,,,,,,,,,,,,,,,,,,,,,,,,,,,,,,,,,,,,,,,,,,,,,,,,,,,,,,,,,,,,,,,,,,,,,,,,,,,
,,,,,,61641a12f14a6f1b08edd5bf,62c538c607160c13dfb487b6,2022-07-06_09h25.28.139,Colour_Asymmetry_Pilot,2022.1.3,Win32,59.24170616,62c50e9c1127f2cd403a315f,0,6,6,0,1,onetwo,,,,,,,,,,,,,,,,,,,,,,,,,,,,,,,,,,,,,,,,,,,,,,,,,,,,,,,,,,,,,,,,,,,,,,,,,,,,,,,,,,,,,,,,,,,,,,,,,,,,,,,,,,,,,,,,,,,,,,,,,,,,,,,,,,,,,,,,,,,,,,,,,,,,,,,,,,,,,
,,,,,,61641a12f14a6f1b08edd5bf,62c538c607160c13dfb487b6,2022-07-06_09h25.28.139,Colour_Asymmetry_Pilot,2022.1.3,Win32,59.24170616,62c50e9c1127f2cd403a315f,0,7,7,26,1,twoone,,,,,,,,,,,,,,,,,,,,,,,,,,,,,,,,,,,,,,,,,,,,,,,,,,,,,,,,,,,,,,,,,,,,,,,,,,,,,,,,,,,,,,,,,,,,,,,,,,,,,,,,,,,,,,,,,,,,,,,,,,,,,,,,,,,,,,,,,,,,,,,,,,,,,,,,,,,,,
,,,,,,61641a12f14a6f1b08edd5bf,62c538c607160c13dfb487b6,2022-07-06_09h25.28.139,Colour_Asymmetry_Pilot,2022.1.3,Win32,59.24170616,62c50e9c1127f2cd403a315f,0,8,8,11,1,twofour,,,,,,,,,,,,,,,,,,,,,,,,,,,,,,,,,,,,,,,,,,,,,,,,,,,,,,,,,,,,,,,,,,,,,,,,,,,,,,,,,,,,,,,,,,,,,,,,,,,,,,,,,,,,,,,,,,,,,,,,,,,,,,,,,,,,,,,,,,,,,,,,,,,,,,,,,,,,,
,,,,,,61641a12f14a6f1b08edd5bf,62c538c607160c13dfb487b6,2022-07-06_09h25.28.139,Colour_Asymmetry_Pilot,2022.1.3,Win32,59.24170616,62c50e9c1127f2cd403a315f,0,9,9,83,1,twofour,,,,,,,,,,,,,,,,,,,,,,,,,,,,,,,,,,,,,,,,,,,,,,,,,,,,,,,,,,,,,,,,,,,,,,,,,,,,,,,,,,,,,,,,,,,,,,,,,,,,,,,,,,,,,,,,,,,,,,,,,,,,,,,,,,,,,,,,,,,,,,,,,,,,,,,,,,,,,
,,,,,,61641a12f14a6f1b08edd5bf,62c538c607160c13dfb487b6,2022-07-06_09h25.28.139,Colour_Asymmetry_Pilot,2022.1.3,Win32,59.24170616,62c50e9c1127f2cd403a315f,0,10,10,96,1,onetwo,,,,,,,,,,,,,,,,,,,,,,,,,,,,,,,,,,,,,,,,,,,,,,,,,,,,,,,,,,,,,,,,,,,,,,,,,,,,,,,,,,,,,,,,,,,,,,,,,,,,,,,,,,,,,,,,,,,,,,,,,,,,,,,,,,,,,,,,,,,,,,,,,,,,,,,,,,,,,
,,,,,,61641a12f14a6f1b08edd5bf,62c538c607160c13dfb487b6,2022-07-06_09h25.28.139,Colour_Asymmetry_Pilot,2022.1.3,Win32,59.24170616,62c50e9c1127f2cd403a315f,0,11,11,10,1,twoone,,,,,,,,,,,,,,,,,,,,,,,,,,,,,,,,,,,,,,,,,,,,,,,,,,,,,,,,,,,,,,,,,,,,,,,,,,,,,,,,,,,,,,,,,,,,,,,,,,,,,,,,,,,,,,,,,,,,,,,,,,,,,,,,,,,,,,,,,,,,,,,,,,,,,,,,,,,,,
,,,,,,61641a12f14a6f1b08edd5bf,62c538c607160c13dfb487b6,2022-07-06_09h25.28.139,Colour_Asymmetry_Pilot,2022.1.3,Win32,59.24170616,62c50e9c1127f2cd403a315f,0,12,12,39,1,fourthree,,,,,,,,,,,,,,,,,,,,,,,,,,,,,,,,,,,,,,,,,,,,,,,,,,,,,,,,,,,,,,,,,,,,,,,,,,,,,,,,,,,,,,,,,,,,,,,,,,,,,,,,,,,,,,,,,,,,,,,,,,,,,,,,,,,,,,,,,,,,,,,,,,,,,,,,,,,,,
,,,,,,61641a12f14a6f1b08edd5bf,62c538c607160c13dfb487b6,2022-07-06_09h25.28.139,Colour_Asymmetry_Pilot,2022.1.3,Win32,59.24170616,62c50e9c1127f2cd403a315f,0,13,13,119,1,fourthree,,,,,,,,,,,,,,,,,,,,,,,,,,,,,,,,,,,,,,,,,,,,,,,,,,,,,,,,,,,,,,,,,,,,,,,,,,,,,,,,,,,,,,,,,,,,,,,,,,,,,,,,,,,,,,,,,,,,,,,,,,,,,,,,,,,,,,,,,,,,,,,,,,,,,,,,,,,,,
,,,,,,61641a12f14a6f1b08edd5bf,62c538c607160c13dfb487b6,2022-07-06_09h25.28.139,Colour_Asymmetry_Pilot,2022.1.3,Win32,59.24170616,62c50e9c1127f2cd403a315f,0,14,14,142,1,fourtwo,,,,,,,,,,,,,,,,,,,,,,,,,,,,,,,,,,,,,,,,,,,,,,,,,,,,,,,,,,,,,,,,,,,,,,,,,,,,,,,,,,,,,,,,,,,,,,,,,,,,,,,,,,,,,,,,,,,,,,,,,,,,,,,,,,,,,,,,,,,,,,,,,,,,,,,,,,,,,
,,,,,,61641a12f14a6f1b08edd5bf,62c538c607160c13dfb487b6,2022-07-06_09h25.28.139,Colour_Asymmetry_Pilot,2022.1.3,Win32,59.24170616,62c50e9c1127f2cd403a315f,0,15,15,14,1,fourtwo,,,,,,,,,,,,,,,,,,,,,,,,,,,,,,,,,,,,,,,,,,,,,,,,,,,,,,,,,,,,,,,,,,,,,,,,,,,,,,,,,,,,,,,,,,,,,,,,,,,,,,,,,,,,,,,,,,,,,,,,,,,,,,,,,,,,,,,,,,,,,,,,,,,,,,,,,,,,,
,,,,,,61641a12f14a6f1b08edd5bf,62c538c607160c13dfb487b6,2022-07-06_09h25.28.139,Colour_Asymmetry_Pilot,2022.1.3,Win32,59.24170616,62c50e9c1127f2cd403a315f,0,16,16,7,1,fourthree,,,,,,,,,,,,,,,,,,,,,,,,,,,,,,,,,,,,,,,,,,,,,,,,,,,,,,,,,,,,,,,,,,,,,,,,,,,,,,,,,,,,,,,,,,,,,,,,,,,,,,,,,,,,,,,,,,,,,,,,,,,,,,,,,,,,,,,,,,,,,,,,,,,,,,,,,,,,,
,,,,,,61641a12f14a6f1b08edd5bf,62c538c607160c13dfb487b6,2022-07-06_09h25.28.139,Colour_Asymmetry_Pilot,2022.1.3,Win32,59.24170616,62c50e9c1127f2cd403a315f,0,17,17,1,1,onethree,,,,,,,,,,,,,,,,,,,,,,,,,,,,,,,,,,,,,,,,,,,,,,,,,,,,,,,,,,,,,,,,,,,,,,,,,,,,,,,,,,,,,,,,,,,,,,,,,,,,,,,,,,,,,,,,,,,,,,,,,,,,,,,,,,,,,,,,,,,,,,,,,,,,,,,,,,,,,
,,,,,,61641a12f14a6f1b08edd5bf,62c538c607160c13dfb487b6,2022-07-06_09h25.28.139,Colour_Asymmetry_Pilot,2022.1.3,Win32,59.24170616,62c50e9c1127f2cd403a315f,0,18,18,144,1,onetwo,,,,,,,,,,,,,,,,,,,,,,,,,,,,,,,,,,,,,,,,,,,,,,,,,,,,,,,,,,,,,,,,,,,,,,,,,,,,,,,,,,,,,,,,,,,,,,,,,,,,,,,,,,,,,,,,,,,,,,,,,,,,,,,,,,,,,,,,,,,,,,,,,,,,,,,,,,,,,
,,,,,,61641a12f14a6f1b08edd5bf,62c538c607160c13dfb487b6,2022-07-06_09h25.28.139,Colour_Asymmetry_Pilot,2022.1.3,Win32,59.24170616,62c50e9c1127f2cd403a315f,0,19,19,52,1,threeone,,,,,,,,,,,,,,,,,,,,,,,,,,,,,,,,,,,,,,,,,,,,,,,,,,,,,,,,,,,,,,,,,,,,,,,,,,,,,,,,,,,,,,,,,,,,,,,,,,,,,,,,,,,,,,,,,,,,,,,,,,,,,,,,,,,,,,,,,,,,,,,,,,,,,,,,,,,,,
,,,,,,61641a12f14a6f1b08edd5bf,62c538c607160c13dfb487b6,2022-07-06_09h25.28.139,Colour_Asymmetry_Pilot,2022.1.3,Win32,59.24170616,62c50e9c1127f2cd403a315f,0,20,20,152,1,onetwo,,,,,,,,,,,,,,,,,,,,,,,,,,,,,,,,,,,,,,,,,,,,,,,,,,,,,,,,,,,,,,,,,,,,,,,,,,,,,,,,,,,,,,,,,,,,,,,,,,,,,,,,,,,,,,,,,,,,,,,,,,,,,,,,,,,,,,,,,,,,,,,,,,,,,,,,,,,,,
,,,,,,61641a12f14a6f1b08edd5bf,62c538c607160c13dfb487b6,2022-07-06_09h25.28.139,Colour_Asymmetry_Pilot,2022.1.3,Win32,59.24170616,62c50e9c1127f2cd403a315f,0,21,21,32,1,onetwo,,,,,,,,,,,,,,,,,,,,,,,,,,,,,,,,,,,,,,,,,,,,,,,,,,,,,,,,,,,,,,,,,,,,,,,,,,,,,,,,,,,,,,,,,,,,,,,,,,,,,,,,,,,,,,,,,,,,,,,,,,,,,,,,,,,,,,,,,,,,,,,,,,,,,,,,,,,,,
,,,,,,61641a12f14a6f1b08edd5bf,62c538c607160c13dfb487b6,2022-07-06_09h25.28.139,Colour_Asymmetry_Pilot,2022.1.3,Win32,59.24170616,62c50e9c1127f2cd403a315f,0,22,22,64,1,onetwo,,,,,,,,,,,,,,,,,,,,,,,,,,,,,,,,,,,,,,,,,,,,,,,,,,,,,,,,,,,,,,,,,,,,,,,,,,,,,,,,,,,,,,,,,,,,,,,,,,,,,,,,,,,,,,,,,,,,,,,,,,,,,,,,,,,,,,,,,,,,,,,,,,,,,,,,,,,,,
,,,,,,61641a12f14a6f1b08edd5bf,62c538c607160c13dfb487b6,2022-07-06_09h25.28.139,Colour_Asymmetry_Pilot,2022.1.3,Win32,59.24170616,62c50e9c1127f2cd403a315f,0,23,23,18,1,twoone,,,,,,,,,,,,,,,,,,,,,,,,,,,,,,,,,,,,,,,,,,,,,,,,,,,,,,,,,,,,,,,,,,,,,,,,,,,,,,,,,,,,,,,,,,,,,,,,,,,,,,,,,,,,,,,,,,,,,,,,,,,,,,,,,,,,,,,,,,,,,,,,,,,,,,,,,,,,,
,,,,,,61641a12f14a6f1b08edd5bf,62c538c607160c13dfb487b6,2022-07-06_09h25.28.139,Colour_Asymmetry_Pilot,2022.1.3,Win32,59.24170616,62c50e9c1127f2cd403a315f,0,24,24,20,1,threeone,,,,,,,,,,,,,,,,,,,,,,,,,,,,,,,,,,,,,,,,,,,,,,,,,,,,,,,,,,,,,,,,,,,,,,,,,,,,,,,,,,,,,,,,,,,,,,,,,,,,,,,,,,,,,,,,,,,,,,,,,,,,,,,,,,,,,,,,,,,,,,,,,,,,,,,,,,,,,
,,,,,,61641a12f14a6f1b08edd5bf,62c538c607160c13dfb487b6,2022-07-06_09h25.28.139,Colour_Asymmetry_Pilot,2022.1.3,Win32,59.24170616,62c50e9c1127f2cd403a315f,0,25,25,110,1,fourtwo,,,,,,,,,,,,,,,,,,,,,,,,,,,,,,,,,,,,,,,,,,,,,,,,,,,,,,,,,,,,,,,,,,,,,,,,,,,,,,,,,,,,,,,,,,,,,,,,,,,,,,,,,,,,,,,,,,,,,,,,,,,,,,,,,,,,,,,,,,,,,,,,,,,,,,,,,,,,,
,,,,,,61641a12f14a6f1b08edd5bf,62c538c607160c13dfb487b6,2022-07-06_09h25.28.139,Colour_Asymmetry_Pilot,2022.1.3,Win32,59.24170616,62c50e9c1127f2cd403a315f,0,26,26,5,1,threefour,,,,,,,,,,,,,,,,,,,,,,,,,,,,,,,,,,,,,,,,,,,,,,,,,,,,,,,,,,,,,,,,,,,,,,,,,,,,,,,,,,,,,,,,,,,,,,,,,,,,,,,,,,,,,,,,,,,,,,,,,,,,,,,,,,,,,,,,,,,,,,,,,,,,,,,,,,,,,
,,,,,,61641a12f14a6f1b08edd5bf,62c538c607160c13dfb487b6,2022-07-06_09h25.28.139,Colour_Asymmetry_Pilot,2022.1.3,Win32,59.24170616,62c50e9c1127f2cd403a315f,0,27,27,105,1,onethree,,,,,,,,,,,,,,,,,,,,,,,,,,,,,,,,,,,,,,,,,,,,,,,,,,,,,,,,,,,,,,,,,,,,,,,,,,,,,,,,,,,,,,,,,,,,,,,,,,,,,,,,,,,,,,,,,,,,,,,,,,,,,,,,,,,,,,,,,,,,,,,,,,,,,,,,,,,,,
,,,,,,61641a12f14a6f1b08edd5bf,62c538c607160c13dfb487b6,2022-07-06_09h25.28.139,Colour_Asymmetry_Pilot,2022.1.3,Win32,59.24170616,62c50e9c1127f2cd403a315f,0,28,28,149,1,threefour,,,,,,,,,,,,,,,,,,,,,,,,,,,,,,,,,,,,,,,,,,,,,,,,,,,,,,,,,,,,,,,,,,,,,,,,,,,,,,,,,,,,,,,,,,,,,,,,,,,,,,,,,,,,,,,,,,,,,,,,,,,,,,,,,,,,,,,,,,,,,,,,,,,,,,,,,,,,,
,,,,,,61641a12f14a6f1b08edd5bf,62c538c607160c13dfb487b6,2022-07-06_09h25.28.139,Colour_Asymmetry_Pilot,2022.1.3,Win32,59.24170616,62c50e9c1127f2cd403a315f,0,29,29,74,1,twoone,,,,,,,,,,,,,,,,,,,,,,,,,,,,,,,,,,,,,,,,,,,,,,,,,,,,,,,,,,,,,,,,,,,,,,,,,,,,,,,,,,,,,,,,,,,,,,,,,,,,,,,,,,,,,,,,,,,,,,,,,,,,,,,,,,,,,,,,,,,,,,,,,,,,,,,,,,,,,
,,,,,,61641a12f14a6f1b08edd5bf,62c538c607160c13dfb487b6,2022-07-06_09h25.28.139,Colour_Asymmetry_Pilot,2022.1.3,Win32,59.24170616,62c50e9c1127f2cd403a315f,0,30,30,92,1,threeone,,,,,,,,,,,,,,,,,,,,,,,,,,,,,,,,,,,,,,,,,,,,,,,,,,,,,,,,,,,,,,,,,,,,,,,,,,,,,,,,,,,,,,,,,,,,,,,,,,,,,,,,,,,,,,,,,,,,,,,,,,,,,,,,,,,,,,,,,,,,,,,,,,,,,,,,,,,,,
,,,,,,61641a12f14a6f1b08edd5bf,62c538c607160c13dfb487b6,2022-07-06_09h25.28.139,Colour_Asymmetry_Pilot,2022.1.3,Win32,59.24170616,62c50e9c1127f2cd403a315f,0,31,31,72,1,onetwo,,,,,,,,,,,,,,,,,,,,,,,,,,,,,,,,,,,,,,,,,,,,,,,,,,,,,,,,,,,,,,,,,,,,,,,,,,,,,,,,,,,,,,,,,,,,,,,,,,,,,,,,,,,,,,,,,,,,,,,,,,,,,,,,,,,,,,,,,,,,,,,,,,,,,,,,,,,,,
,,,,,,61641a12f14a6f1b08edd5bf,62c538c607160c13dfb487b6,2022-07-06_09h25.28.139,Colour_Asymmetry_Pilot,2022.1.3,Win32,59.24170616,62c50e9c1127f2cd403a315f,0,32,32,63,1,fourthree,,,,,,,,,,,,,,,,,,,,,,,,,,,,,,,,,,,,,,,,,,,,,,,,,,,,,,,,,,,,,,,,,,,,,,,,,,,,,,,,,,,,,,,,,,,,,,,,,,,,,,,,,,,,,,,,,,,,,,,,,,,,,,,,,,,,,,,,,,,,,,,,,,,,,,,,,,,,,
,,,,,,61641a12f14a6f1b08edd5bf,62c538c607160c13dfb487b6,2022-07-06_09h25.28.139,Colour_Asymmetry_Pilot,2022.1.3,Win32,59.24170616,62c50e9c1127f2cd403a315f,0,33,33,53,1,threefour,,,,,,,,,,,,,,,,,,,,,,,,,,,,,,,,,,,,,,,,,,,,,,,,,,,,,,,,,,,,,,,,,,,,,,,,,,,,,,,,,,,,,,,,,,,,,,,,,,,,,,,,,,,,,,,,,,,,,,,,,,,,,,,,,,,,,,,,,,,,,,,,,,,,,,,,,,,,,
,,,,,,61641a12f14a6f1b08edd5bf,62c538c607160c13dfb487b6,2022-07-06_09h25.28.139,Colour_Asymmetry_Pilot,2022.1.3,Win32,59.24170616,62c50e9c1127f2cd403a315f,0,34,34,159,1,fourthree,,,,,,,,,,,,,,,,,,,,,,,,,,,,,,,,,,,,,,,,,,,,,,,,,,,,,,,,,,,,,,,,,,,,,,,,,,,,,,,,,,,,,,,,,,,,,,,,,,,,,,,,,,,,,,,,,,,,,,,,,,,,,,,,,,,,,,,,,,,,,,,,,,,,,,,,,,,,,
,,,,,,61641a12f14a6f1b08edd5bf,62c538c607160c13dfb487b6,2022-07-06_09h25.28.139,Colour_Asymmetry_Pilot,2022.1.3,Win32,59.24170616,62c50e9c1127f2cd403a315f,0,35,35,51,1,twofour,,,,,,,,,,,,,,,,,,,,,,,,,,,,,,,,,,,,,,,,,,,,,,,,,,,,,,,,,,,,,,,,,,,,,,,,,,,,,,,,,,,,,,,,,,,,,,,,,,,,,,,,,,,,,,,,,,,,,,,,,,,,,,,,,,,,,,,,,,,,,,,,,,,,,,,,,,,,,
,,,,,,61641a12f14a6f1b08edd5bf,62c538c607160c13dfb487b6,2022-07-06_09h25.28.139,Colour_Asymmetry_Pilot,2022.1.3,Win32,59.24170616,62c50e9c1127f2cd403a315f,0,36,36,70,1,fourtwo,,,,,,,,,,,,,,,,,,,,,,,,,,,,,,,,,,,,,,,,,,,,,,,,,,,,,,,,,,,,,,,,,,,,,,,,,,,,,,,,,,,,,,,,,,,,,,,,,,,,,,,,,,,,,,,,,,,,,,,,,,,,,,,,,,,,,,,,,,,,,,,,,,,,,,,,,,,,,
,,,,,,61641a12f14a6f1b08edd5bf,62c538c607160c13dfb487b6,2022-07-06_09h25.28.139,Colour_Asymmetry_Pilot,2022.1.3,Win32,59.24170616,62c50e9c1127f2cd403a315f,0,37,37,55,1,fourthree,,,,,,,,,,,,,,,,,,,,,,,,,,,,,,,,,,,,,,,,,,,,,,,,,,,,,,,,,,,,,,,,,,,,,,,,,,,,,,,,,,,,,,,,,,,,,,,,,,,,,,,,,,,,,,,,,,,,,,,,,,,,,,,,,,,,,,,,,,,,,,,,,,,,,,,,,,,,,
,,,,,,61641a12f14a6f1b08edd5bf,62c538c607160c13dfb487b6,2022-07-06_09h25.28.139,Colour_Asymmetry_Pilot,2022.1.3,Win32,59.24170616,62c50e9c1127f2cd403a315f,0,38,38,77,1,threefour,,,,,,,,,,,,,,,,,,,,,,,,,,,,,,,,,,,,,,,,,,,,,,,,,,,,,,,,,,,,,,,,,,,,,,,,,,,,,,,,,,,,,,,,,,,,,,,,,,,,,,,,,,,,,,,,,,,,,,,,,,,,,,,,,,,,,,,,,,,,,,,,,,,,,,,,,,,,,
,,,,,,61641a12f14a6f1b08edd5bf,62c538c607160c13dfb487b6,2022-07-06_09h25.28.139,Colour_Asymmetry_Pilot,2022.1.3,Win32,59.24170616,62c50e9c1127f2cd403a315f,0,39,39,103,1,fourthree,,,,,,,,,,,,,,,,,,,,,,,,,,,,,,,,,,,,,,,,,,,,,,,,,,,,,,,,,,,,,,,,,,,,,,,,,,,,,,,,,,,,,,,,,,,,,,,,,,,,,,,,,,,,,,,,,,,,,,,,,,,,,,,,,,,,,,,,,,,,,,,,,,,,,,,,,,,,,
,,,,,,61641a12f14a6f1b08edd5bf,62c538c607160c13dfb487b6,2022-07-06_09h25.28.139,Colour_Asymmetry_Pilot,2022.1.3,Win32,59.24170616,62c50e9c1127f2cd403a315f,0,40,40,33,1,onethree,,,,,,,,,,,,,,,,,,,,,,,,,,,,,,,,,,,,,,,,,,,,,,,,,,,,,,,,,,,,,,,,,,,,,,,,,,,,,,,,,,,,,,,,,,,,,,,,,,,,,,,,,,,,,,,,,,,,,,,,,,,,,,,,,,,,,,,,,,,,,,,,,,,,,,,,,,,,,
,,,,,,61641a12f14a6f1b08edd5bf,62c538c607160c13dfb487b6,2022-07-06_09h25.28.139,Colour_Asymmetry_Pilot,2022.1.3,Win32,59.24170616,62c50e9c1127f2cd403a315f,0,41,41,106,1,twoone,,,,,,,,,,,,,,,,,,,,,,,,,,,,,,,,,,,,,,,,,,,,,,,,,,,,,,,,,,,,,,,,,,,,,,,,,,,,,,,,,,,,,,,,,,,,,,,,,,,,,,,,,,,,,,,,,,,,,,,,,,,,,,,,,,,,,,,,,,,,,,,,,,,,,,,,,,,,,
,,,,,,61641a12f14a6f1b08edd5bf,62c538c607160c13dfb487b6,2022-07-06_09h25.28.139,Colour_Asymmetry_Pilot,2022.1.3,Win32,59.24170616,62c50e9c1127f2cd403a315f,0,42,42,8,1,onetwo,,,,,,,,,,,,,,,,,,,,,,,,,,,,,,,,,,,,,,,,,,,,,,,,,,,,,,,,,,,,,,,,,,,,,,,,,,,,,,,,,,,,,,,,,,,,,,,,,,,,,,,,,,,,,,,,,,,,,,,,,,,,,,,,,,,,,,,,,,,,,,,,,,,,,,,,,,,,,
,,,,,,61641a12f14a6f1b08edd5bf,62c538c607160c13dfb487b6,2022-07-06_09h25.28.139,Colour_Asymmetry_Pilot,2022.1.3,Win32,59.24170616,62c50e9c1127f2cd403a315f,0,43,43,138,1,twoone,,,,,,,,,,,,,,,,,,,,,,,,,,,,,,,,,,,,,,,,,,,,,,,,,,,,,,,,,,,,,,,,,,,,,,,,,,,,,,,,,,,,,,,,,,,,,,,,,,,,,,,,,,,,,,,,,,,,,,,,,,,,,,,,,,,,,,,,,,,,,,,,,,,,,,,,,,,,,
,,,,,,61641a12f14a6f1b08edd5bf,62c538c607160c13dfb487b6,2022-07-06_09h25.28.139,Colour_Asymmetry_Pilot,2022.1.3,Win32,59.24170616,62c50e9c1127f2cd403a315f,0,44,44,66,1,twoone,,,,,,,,,,,,,,,,,,,,,,,,,,,,,,,,,,,,,,,,,,,,,,,,,,,,,,,,,,,,,,,,,,,,,,,,,,,,,,,,,,,,,,,,,,,,,,,,,,,,,,,,,,,,,,,,,,,,,,,,,,,,,,,,,,,,,,,,,,,,,,,,,,,,,,,,,,,,,
,,,,,,61641a12f14a6f1b08edd5bf,62c538c607160c13dfb487b6,2022-07-06_09h25.28.139,Colour_Asymmetry_Pilot,2022.1.3,Win32,59.24170616,62c50e9c1127f2cd403a315f,0,45,45,84,1,threeone,,,,,,,,,,,,,,,,,,,,,,,,,,,,,,,,,,,,,,,,,,,,,,,,,,,,,,,,,,,,,,,,,,,,,,,,,,,,,,,,,,,,,,,,,,,,,,,,,,,,,,,,,,,,,,,,,,,,,,,,,,,,,,,,,,,,,,,,,,,,,,,,,,,,,,,,,,,,,
,,,,,,61641a12f14a6f1b08edd5bf,62c538c607160c13dfb487b6,2022-07-06_09h25.28.139,Colour_Asymmetry_Pilot,2022.1.3,Win32,59.24170616,62c50e9c1127f2cd403a315f,0,46,46,102,1,fourtwo,,,,,,,,,,,,,,,,,,,,,,,,,,,,,,,,,,,,,,,,,,,,,,,,,,,,,,,,,,,,,,,,,,,,,,,,,,,,,,,,,,,,,,,,,,,,,,,,,,,,,,,,,,,,,,,,,,,,,,,,,,,,,,,,,,,,,,,,,,,,,,,,,,,,,,,,,,,,,
,,,,,,61641a12f14a6f1b08edd5bf,62c538c607160c13dfb487b6,2022-07-06_09h25.28.139,Colour_Asymmetry_Pilot,2022.1.3,Win32,59.24170616,62c50e9c1127f2cd403a315f,0,47,47,16,1,onetwo,,,,,,,,,,,,,,,,,,,,,,,,,,,,,,,,,,,,,,,,,,,,,,,,,,,,,,,,,,,,,,,,,,,,,,,,,,,,,,,,,,,,,,,,,,,,,,,,,,,,,,,,,,,,,,,,,,,,,,,,,,,,,,,,,,,,,,,,,,,,,,,,,,,,,,,,,,,,,
,,,,,,61641a12f14a6f1b08edd5bf,62c538c607160c13dfb487b6,2022-07-06_09h25.28.139,Colour_Asymmetry_Pilot,2022.1.3,Win32,59.24170616,62c50e9c1127f2cd403a315f,0,48,48,145,1,onethree,,,,,,,,,,,,,,,,,,,,,,,,,,,,,,,,,,,,,,,,,,,,,,,,,,,,,,,,,,,,,,,,,,,,,,,,,,,,,,,,,,,,,,,,,,,,,,,,,,,,,,,,,,,,,,,,,,,,,,,,,,,,,,,,,,,,,,,,,,,,,,,,,,,,,,,,,,,,,
,,,,,,61641a12f14a6f1b08edd5bf,62c538c607160c13dfb487b6,2022-07-06_09h25.28.139,Colour_Asymmetry_Pilot,2022.1.3,Win32,59.24170616,62c50e9c1127f2cd403a315f,0,49,49,13,1,threefour,,,,,,,,,,,,,,,,,,,,,,,,,,,,,,,,,,,,,,,,,,,,,,,,,,,,,,,,,,,,,,,,,,,,,,,,,,,,,,,,,,,,,,,,,,,,,,,,,,,,,,,,,,,,,,,,,,,,,,,,,,,,,,,,,,,,,,,,,,,,,,,,,,,,,,,,,,,,,
,,,,,,61641a12f14a6f1b08edd5bf,62c538c607160c13dfb487b6,2022-07-06_09h25.28.139,Colour_Asymmetry_Pilot,2022.1.3,Win32,59.24170616,62c50e9c1127f2cd403a315f,0,50,50,2,1,twoone,,,,,,,,,,,,,,,,,,,,,,,,,,,,,,,,,,,,,,,,,,,,,,,,,,,,,,,,,,,,,,,,,,,,,,,,,,,,,,,,,,,,,,,,,,,,,,,,,,,,,,,,,,,,,,,,,,,,,,,,,,,,,,,,,,,,,,,,,,,,,,,,,,,,,,,,,,,,,
,,,,,,61641a12f14a6f1b08edd5bf,62c538c607160c13dfb487b6,2022-07-06_09h25.28.139,Colour_Asymmetry_Pilot,2022.1.3,Win32,59.24170616,62c50e9c1127f2cd403a315f,0,51,51,101,1,threefour,,,,,,,,,,,,,,,,,,,,,,,,,,,,,,,,,,,,,,,,,,,,,,,,,,,,,,,,,,,,,,,,,,,,,,,,,,,,,,,,,,,,,,,,,,,,,,,,,,,,,,,,,,,,,,,,,,,,,,,,,,,,,,,,,,,,,,,,,,,,,,,,,,,,,,,,,,,,,
,,,,,,61641a12f14a6f1b08edd5bf,62c538c607160c13dfb487b6,2022-07-06_09h25.28.139,Colour_Asymmetry_Pilot,2022.1.3,Win32,59.24170616,62c50e9c1127f2cd403a315f,0,52,52,28,1,threeone,,,,,,,,,,,,,,,,,,,,,,,,,,,,,,,,,,,,,,,,,,,,,,,,,,,,,,,,,,,,,,,,,,,,,,,,,,,,,,,,,,,,,,,,,,,,,,,,,,,,,,,,,,,,,,,,,,,,,,,,,,,,,,,,,,,,,,,,,,,,,,,,,,,,,,,,,,,,,
,,,,,,61641a12f14a6f1b08edd5bf,62c538c607160c13dfb487b6,2022-07-06_09h25.28.139,Colour_Asymmetry_Pilot,2022.1.3,Win32,59.24170616,62c50e9c1127f2cd403a315f,0,53,53,61,1,threefour,,,,,,,,,,,,,,,,,,,,,,,,,,,,,,,,,,,,,,,,,,,,,,,,,,,,,,,,,,,,,,,,,,,,,,,,,,,,,,,,,,,,,,,,,,,,,,,,,,,,,,,,,,,,,,,,,,,,,,,,,,,,,,,,,,,,,,,,,,,,,,,,,,,,,,,,,,,,,
,,,,,,61641a12f14a6f1b08edd5bf,62c538c607160c13dfb487b6,2022-07-06_09h25.28.139,Colour_Asymmetry_Pilot,2022.1.3,Win32,59.24170616,62c50e9c1127f2cd403a315f,0,54,54,90,1,twoone,,,,,,,,,,,,,,,,,,,,,,,,,,,,,,,,,,,,,,,,,,,,,,,,,,,,,,,,,,,,,,,,,,,,,,,,,,,,,,,,,,,,,,,,,,,,,,,,,,,,,,,,,,,,,,,,,,,,,,,,,,,,,,,,,,,,,,,,,,,,,,,,,,,,,,,,,,,,,
,,,,,,61641a12f14a6f1b08edd5bf,62c538c607160c13dfb487b6,2022-07-06_09h25.28.139,Colour_Asymmetry_Pilot,2022.1.3,Win32,59.24170616,62c50e9c1127f2cd403a315f,0,55,55,140,1,threeone,,,,,,,,,,,,,,,,,,,,,,,,,,,,,,,,,,,,,,,,,,,,,,,,,,,,,,,,,,,,,,,,,,,,,,,,,,,,,,,,,,,,,,,,,,,,,,,,,,,,,,,,,,,,,,,,,,,,,,,,,,,,,,,,,,,,,,,,,,,,,,,,,,,,,,,,,,,,,
,,,,,,61641a12f14a6f1b08edd5bf,62c538c607160c13dfb487b6,2022-07-06_09h25.28.139,Colour_Asymmetry_Pilot,2022.1.3,Win32,59.24170616,62c50e9c1127f2cd403a315f,0,56,56,161,1,onethree,,,,,,,,,,,,,,,,,,,,,,,,,,,,,,,,,,,,,,,,,,,,,,,,,,,,,,,,,,,,,,,,,,,,,,,,,,,,,,,,,,,,,,,,,,,,,,,,,,,,,,,,,,,,,,,,,,,,,,,,,,,,,,,,,,,,,,,,,,,,,,,,,,,,,,,,,,,,,
,,,,,,61641a12f14a6f1b08edd5bf,62c538c607160c13dfb487b6,2022-07-06_09h25.28.139,Colour_Asymmetry_Pilot,2022.1.3,Win32,59.24170616,62c50e9c1127f2cd403a315f,0,57,57,114,1,twoone,,,,,,,,,,,,,,,,,,,,,,,,,,,,,,,,,,,,,,,,,,,,,,,,,,,,,,,,,,,,,,,,,,,,,,,,,,,,,,,,,,,,,,,,,,,,,,,,,,,,,,,,,,,,,,,,,,,,,,,,,,,,,,,,,,,,,,,,,,,,,,,,,,,,,,,,,,,,,
,,,,,,61641a12f14a6f1b08edd5bf,62c538c607160c13dfb487b6,2022-07-06_09h25.28.139,Colour_Asymmetry_Pilot,2022.1.3,Win32,59.24170616,62c50e9c1127f2cd403a315f,0,58,58,146,1,twoone,,,,,,,,,,,,,,,,,,,,,,,,,,,,,,,,,,,,,,,,,,,,,,,,,,,,,,,,,,,,,,,,,,,,,,,,,,,,,,,,,,,,,,,,,,,,,,,,,,,,,,,,,,,,,,,,,,,,,,,,,,,,,,,,,,,,,,,,,,,,,,,,,,,,,,,,,,,,,
,,,,,,61641a12f14a6f1b08edd5bf,62c538c607160c13dfb487b6,2022-07-06_09h25.28.139,Colour_Asymmetry_Pilot,2022.1.3,Win32,59.24170616,62c50e9c1127f2cd403a315f,0,59,59,47,1,fourthree,,,,,,,,,,,,,,,,,,,,,,,,,,,,,,,,,,,,,,,,,,,,,,,,,,,,,,,,,,,,,,,,,,,,,,,,,,,,,,,,,,,,,,,,,,,,,,,,,,,,,,,,,,,,,,,,,,,,,,,,,,,,,,,,,,,,,,,,,,,,,,,,,,,,,,,,,,,,,
,,,,,,61641a12f14a6f1b08edd5bf,62c538c607160c13dfb487b6,2022-07-06_09h25.28.139,Colour_Asymmetry_Pilot,2022.1.3,Win32,59.24170616,62c50e9c1127f2cd403a315f,0,60,60,3,1,twofour,,,,,,,,,,,,,,,,,,,,,,,,,,,,,,,,,,,,,,,,,,,,,,,,,,,,,,,,,,,,,,,,,,,,,,,,,,,,,,,,,,,,,,,,,,,,,,,,,,,,,,,,,,,,,,,,,,,,,,,,,,,,,,,,,,,,,,,,,,,,,,,,,,,,,,,,,,,,,
,,,,,,61641a12f14a6f1b08edd5bf,62c538c607160c13dfb487b6,2022-07-06_09h25.28.139,Colour_Asymmetry_Pilot,2022.1.3,Win32,59.24170616,62c50e9c1127f2cd403a315f,0,61,61,147,1,twofour,,,,,,,,,,,,,,,,,,,,,,,,,,,,,,,,,,,,,,,,,,,,,,,,,,,,,,,,,,,,,,,,,,,,,,,,,,,,,,,,,,,,,,,,,,,,,,,,,,,,,,,,,,,,,,,,,,,,,,,,,,,,,,,,,,,,,,,,,,,,,,,,,,,,,,,,,,,,,
,,,,,,61641a12f14a6f1b08edd5bf,62c538c607160c13dfb487b6,2022-07-06_09h25.28.139,Colour_Asymmetry_Pilot,2022.1.3,Win32,59.24170616,62c50e9c1127f2cd403a315f,0,62,62,79,1,fourthree,,,,,,,,,,,,,,,,,,,,,,,,,,,,,,,,,,,,,,,,,,,,,,,,,,,,,,,,,,,,,,,,,,,,,,,,,,,,,,,,,,,,,,,,,,,,,,,,,,,,,,,,,,,,,,,,,,,,,,,,,,,,,,,,,,,,,,,,,,,,,,,,,,,,,,,,,,,,,
,,,,,,61641a12f14a6f1b08edd5bf,62c538c607160c13dfb487b6,2022-07-06_09h25.28.139,Colour_Asymmetry_Pilot,2022.1.3,Win32,59.24170616,62c50e9c1127f2cd403a315f,0,63,63,80,1,onetwo,,,,,,,,,,,,,,,,,,,,,,,,,,,,,,,,,,,,,,,,,,,,,,,,,,,,,,,,,,,,,,,,,,,,,,,,,,,,,,,,,,,,,,,,,,,,,,,,,,,,,,,,,,,,,,,,,,,,,,,,,,,,,,,,,,,,,,,,,,,,,,,,,,,,,,,,,,,,,
,,,,,,61641a12f14a6f1b08edd5bf,62c538c607160c13dfb487b6,2022-07-06_09h25.28.139,Colour_Asymmetry_Pilot,2022.1.3,Win32,59.24170616,62c50e9c1127f2cd403a315f,0,64,64,122,1,twoone,,,,,,,,,,,,,,,,,,,,,,,,,,,,,,,,,,,,,,,,,,,,,,,,,,,,,,,,,,,,,,,,,,,,,,,,,,,,,,,,,,,,,,,,,,,,,,,,,,,,,,,,,,,,,,,,,,,,,,,,,,,,,,,,,,,,,,,,,,,,,,,,,,,,,,,,,,,,,
,,,,,,61641a12f14a6f1b08edd5bf,62c538c607160c13dfb487b6,2022-07-06_09h25.28.139,Colour_Asymmetry_Pilot,2022.1.3,Win32,59.24170616,62c50e9c1127f2cd403a315f,0,65,65,68,1,threeone,,,,,,,,,,,,,,,,,,,,,,,,,,,,,,,,,,,,,,,,,,,,,,,,,,,,,,,,,,,,,,,,,,,,,,,,,,,,,,,,,,,,,,,,,,,,,,,,,,,,,,,,,,,,,,,,,,,,,,,,,,,,,,,,,,,,,,,,,,,,,,,,,,,,,,,,,,,,,
,,,,,,61641a12f14a6f1b08edd5bf,62c538c607160c13dfb487b6,2022-07-06_09h25.28.139,Colour_Asymmetry_Pilot,2022.1.3,Win32,59.24170616,62c50e9c1127f2cd403a315f,0,66,66,143,1,fourthree,,,,,,,,,,,,,,,,,,,,,,,,,,,,,,,,,,,,,,,,,,,,,,,,,,,,,,,,,,,,,,,,,,,,,,,,,,,,,,,,,,,,,,,,,,,,,,,,,,,,,,,,,,,,,,,,,,,,,,,,,,,,,,,,,,,,,,,,,,,,,,,,,,,,,,,,,,,,,
,,,,,,61641a12f14a6f1b08edd5bf,62c538c607160c13dfb487b6,2022-07-06_09h25.28.139,Colour_Asymmetry_Pilot,2022.1.3,Win32,59.24170616,62c50e9c1127f2cd403a315f,0,67,67,30,1,fourtwo,,,,,,,,,,,,,,,,,,,,,,,,,,,,,,,,,,,,,,,,,,,,,,,,,,,,,,,,,,,,,,,,,,,,,,,,,,,,,,,,,,,,,,,,,,,,,,,,,,,,,,,,,,,,,,,,,,,,,,,,,,,,,,,,,,,,,,,,,,,,,,,,,,,,,,,,,,,,,
,,,,,,61641a12f14a6f1b08edd5bf,62c538c607160c13dfb487b6,2022-07-06_09h25.28.139,Colour_Asymmetry_Pilot,2022.1.3,Win32,59.24170616,62c50e9c1127f2cd403a315f,0,68,68,127,1,fourthree,,,,,,,,,,,,,,,,,,,,,,,,,,,,,,,,,,,,,,,,,,,,,,,,,,,,,,,,,,,,,,,,,,,,,,,,,,,,,,,,,,,,,,,,,,,,,,,,,,,,,,,,,,,,,,,,,,,,,,,,,,,,,,,,,,,,,,,,,,,,,,,,,,,,,,,,,,,,,
,,,,,,61641a12f14a6f1b08edd5bf,62c538c607160c13dfb487b6,2022-07-06_09h25.28.139,Colour_Asymmetry_Pilot,2022.1.3,Win32,59.24170616,62c50e9c1127f2cd403a315f,0,69,69,36,1,threeone,,,,,,,,,,,,,,,,,,,,,,,,,,,,,,,,,,,,,,,,,,,,,,,,,,,,,,,,,,,,,,,,,,,,,,,,,,,,,,,,,,,,,,,,,,,,,,,,,,,,,,,,,,,,,,,,,,,,,,,,,,,,,,,,,,,,,,,,,,,,,,,,,,,,,,,,,,,,,
,,,,,,61641a12f14a6f1b08edd5bf,62c538c607160c13dfb487b6,2022-07-06_09h25.28.139,Colour_Asymmetry_Pilot,2022.1.3,Win32,59.24170616,62c50e9c1127f2cd403a315f,0,70,70,57,1,onethree,,,,,,,,,,,,,,,,,,,,,,,,,,,,,,,,,,,,,,,,,,,,,,,,,,,,,,,,,,,,,,,,,,,,,,,,,,,,,,,,,,,,,,,,,,,,,,,,,,,,,,,,,,,,,,,,,,,,,,,,,,,,,,,,,,,,,,,,,,,,,,,,,,,,,,,,,,,,,
,,,,,,61641a12f14a6f1b08edd5bf,62c538c607160c13dfb487b6,2022-07-06_09h25.28.139,Colour_Asymmetry_Pilot,2022.1.3,Win32,59.24170616,62c50e9c1127f2cd403a315f,0,71,71,112,1,onetwo,,,,,,,,,,,,,,,,,,,,,,,,,,,,,,,,,,,,,,,,,,,,,,,,,,,,,,,,,,,,,,,,,,,,,,,,,,,,,,,,,,,,,,,,,,,,,,,,,,,,,,,,,,,,,,,,,,,,,,,,,,,,,,,,,,,,,,,,,,,,,,,,,,,,,,,,,,,,,
,,,,,,61641a12f14a6f1b08edd5bf,62c538c607160c13dfb487b6,2022-07-06_09h25.28.139,Colour_Asymmetry_Pilot,2022.1.3,Win32,59.24170616,62c50e9c1127f2cd403a315f,0,72,72,123,1,twofour,,,,,,,,,,,,,,,,,,,,,,,,,,,,,,,,,,,,,,,,,,,,,,,,,,,,,,,,,,,,,,,,,,,,,,,,,,,,,,,,,,,,,,,,,,,,,,,,,,,,,,,,,,,,,,,,,,,,,,,,,,,,,,,,,,,,,,,,,,,,,,,,,,,,,,,,,,,,,
,,,,,,61641a12f14a6f1b08edd5bf,62c538c607160c13dfb487b6,2022-07-06_09h25.28.139,Colour_Asymmetry_Pilot,2022.1.3,Win32,59.24170616,62c50e9c1127f2cd403a315f,0,73,73,25,1,onethree,,,,,,,,,,,,,,,,,,,,,,,,,,,,,,,,,,,,,,,,,,,,,,,,,,,,,,,,,,,,,,,,,,,,,,,,,,,,,,,,,,,,,,,,,,,,,,,,,,,,,,,,,,,,,,,,,,,,,,,,,,,,,,,,,,,,,,,,,,,,,,,,,,,,,,,,,,,,,
,,,,,,61641a12f14a6f1b08edd5bf,62c538c607160c13dfb487b6,2022-07-06_09h25.28.139,Colour_Asymmetry_Pilot,2022.1.3,Win32,59.24170616,62c50e9c1127f2cd403a315f,0,74,74,88,1,onetwo,,,,,,,,,,,,,,,,,,,,,,,,,,,,,,,,,,,,,,,,,,,,,,,,,,,,,,,,,,,,,,,,,,,,,,,,,,,,,,,,,,,,,,,,,,,,,,,,,,,,,,,,,,,,,,,,,,,,,,,,,,,,,,,,,,,,,,,,,,,,,,,,,,,,,,,,,,,,,
,,,,,,61641a12f14a6f1b08edd5bf,62c538c607160c13dfb487b6,2022-07-06_09h25.28.139,Colour_Asymmetry_Pilot,2022.1.3,Win32,59.24170616,62c50e9c1127f2cd403a315f,0,75,75,69,1,threefour,,,,,,,,,,,,,,,,,,,,,,,,,,,,,,,,,,,,,,,,,,,,,,,,,,,,,,,,,,,,,,,,,,,,,,,,,,,,,,,,,,,,,,,,,,,,,,,,,,,,,,,,,,,,,,,,,,,,,,,,,,,,,,,,,,,,,,,,,,,,,,,,,,,,,,,,,,,,,
,,,,,,61641a12f14a6f1b08edd5bf,62c538c607160c13dfb487b6,2022-07-06_09h25.28.139,Colour_Asymmetry_Pilot,2022.1.3,Win32,59.24170616,62c50e9c1127f2cd403a315f,0,76,76,50,1,twoone,,,,,,,,,,,,,,,,,,,,,,,,,,,,,,,,,,,,,,,,,,,,,,,,,,,,,,,,,,,,,,,,,,,,,,,,,,,,,,,,,,,,,,,,,,,,,,,,,,,,,,,,,,,,,,,,,,,,,,,,,,,,,,,,,,,,,,,,,,,,,,,,,,,,,,,,,,,,,
,,,,,,61641a12f14a6f1b08edd5bf,62c538c607160c13dfb487b6,2022-07-06_09h25.28.139,Colour_Asymmetry_Pilot,2022.1.3,Win32,59.24170616,62c50e9c1127f2cd403a315f,0,77,77,67,1,twofour,,,,,,,,,,,,,,,,,,,,,,,,,,,,,,,,,,,,,,,,,,,,,,,,,,,,,,,,,,,,,,,,,,,,,,,,,,,,,,,,,,,,,,,,,,,,,,,,,,,,,,,,,,,,,,,,,,,,,,,,,,,,,,,,,,,,,,,,,,,,,,,,,,,,,,,,,,,,,
,,,,,,61641a12f14a6f1b08edd5bf,62c538c607160c13dfb487b6,2022-07-06_09h25.28.139,Colour_Asymmetry_Pilot,2022.1.3,Win32,59.24170616,62c50e9c1127f2cd403a315f,0,78,78,9,1,onethree,,,,,,,,,,,,,,,,,,,,,,,,,,,,,,,,,,,,,,,,,,,,,,,,,,,,,,,,,,,,,,,,,,,,,,,,,,,,,,,,,,,,,,,,,,,,,,,,,,,,,,,,,,,,,,,,,,,,,,,,,,,,,,,,,,,,,,,,,,,,,,,,,,,,,,,,,,,,,
,,,,,,61641a12f14a6f1b08edd5bf,62c538c607160c13dfb487b6,2022-07-06_09h25.28.139,Colour_Asymmetry_Pilot,2022.1.3,Win32,59.24170616,62c50e9c1127f2cd403a315f,0,79,79,113,1,onethree,,,,,,,,,,,,,,,,,,,,,,,,,,,,,,,,,,,,,,,,,,,,,,,,,,,,,,,,,,,,,,,,,,,,,,,,,,,,,,,,,,,,,,,,,,,,,,,,,,,,,,,,,,,,,,,,,,,,,,,,,,,,,,,,,,,,,,,,,,,,,,,,,,,,,,,,,,,,,
,,,,,,61641a12f14a6f1b08edd5bf,62c538c607160c13dfb487b6,2022-07-06_09h25.28.139,Colour_Asymmetry_Pilot,2022.1.3,Win32,59.24170616,62c50e9c1127f2cd403a315f,0,80,80,15,1,fourthree,,,,,,,,,,,,,,,,,,,,,,,,,,,,,,,,,,,,,,,,,,,,,,,,,,,,,,,,,,,,,,,,,,,,,,,,,,,,,,,,,,,,,,,,,,,,,,,,,,,,,,,,,,,,,,,,,,,,,,,,,,,,,,,,,,,,,,,,,,,,,,,,,,,,,,,,,,,,,
,,,,,,61641a12f14a6f1b08edd5bf,62c538c607160c13dfb487b6,2022-07-06_09h25.28.139,Colour_Asymmetry_Pilot,2022.1.3,Win32,59.24170616,62c50e9c1127f2cd403a315f,0,81,81,54,1,fourtwo,,,,,,,,,,,,,,,,,,,,,,,,,,,,,,,,,,,,,,,,,,,,,,,,,,,,,,,,,,,,,,,,,,,,,,,,,,,,,,,,,,,,,,,,,,,,,,,,,,,,,,,,,,,,,,,,,,,,,,,,,,,,,,,,,,,,,,,,,,,,,,,,,,,,,,,,,,,,,
,,,,,,61641a12f14a6f1b08edd5bf,62c538c607160c13dfb487b6,2022-07-06_09h25.28.139,Colour_Asymmetry_Pilot,2022.1.3,Win32,59.24170616,62c50e9c1127f2cd403a315f,0,82,82,45,1,threefour,,,,,,,,,,,,,,,,,,,,,,,,,,,,,,,,,,,,,,,,,,,,,,,,,,,,,,,,,,,,,,,,,,,,,,,,,,,,,,,,,,,,,,,,,,,,,,,,,,,,,,,,,,,,,,,,,,,,,,,,,,,,,,,,,,,,,,,,,,,,,,,,,,,,,,,,,,,,,
,,,,,,61641a12f14a6f1b08edd5bf,62c538c607160c13dfb487b6,2022-07-06_09h25.28.139,Colour_Asymmetry_Pilot,2022.1.3,Win32,59.24170616,62c50e9c1127f2cd403a315f,0,83,83,100,1,threeone,,,,,,,,,,,,,,,,,,,,,,,,,,,,,,,,,,,,,,,,,,,,,,,,,,,,,,,,,,,,,,,,,,,,,,,,,,,,,,,,,,,,,,,,,,,,,,,,,,,,,,,,,,,,,,,,,,,,,,,,,,,,,,,,,,,,,,,,,,,,,,,,,,,,,,,,,,,,,
,,,,,,61641a12f14a6f1b08edd5bf,62c538c607160c13dfb487b6,2022-07-06_09h25.28.139,Colour_Asymmetry_Pilot,2022.1.3,Win32,59.24170616,62c50e9c1127f2cd403a315f,0,84,84,155,1,twofour,,,,,,,,,,,,,,,,,,,,,,,,,,,,,,,,,,,,,,,,,,,,,,,,,,,,,,,,,,,,,,,,,,,,,,,,,,,,,,,,,,,,,,,,,,,,,,,,,,,,,,,,,,,,,,,,,,,,,,,,,,,,,,,,,,,,,,,,,,,,,,,,,,,,,,,,,,,,,
,,,,,,61641a12f14a6f1b08edd5bf,62c538c607160c13dfb487b6,2022-07-06_09h25.28.139,Colour_Asymmetry_Pilot,2022.1.3,Win32,59.24170616,62c50e9c1127f2cd403a315f,0,85,85,150,1,fourtwo,,,,,,,,,,,,,,,,,,,,,,,,,,,,,,,,,,,,,,,,,,,,,,,,,,,,,,,,,,,,,,,,,,,,,,,,,,,,,,,,,,,,,,,,,,,,,,,,,,,,,,,,,,,,,,,,,,,,,,,,,,,,,,,,,,,,,,,,,,,,,,,,,,,,,,,,,,,,,
,,,,,,61641a12f14a6f1b08edd5bf,62c538c607160c13dfb487b6,2022-07-06_09h25.28.139,Colour_Asymmetry_Pilot,2022.1.3,Win32,59.24170616,62c50e9c1127f2cd403a315f,0,86,86,59,1,twofour,,,,,,,,,,,,,,,,,,,,,,,,,,,,,,,,,,,,,,,,,,,,,,,,,,,,,,,,,,,,,,,,,,,,,,,,,,,,,,,,,,,,,,,,,,,,,,,,,,,,,,,,,,,,,,,,,,,,,,,,,,,,,,,,,,,,,,,,,,,,,,,,,,,,,,,,,,,,,
,,,,,,61641a12f14a6f1b08edd5bf,62c538c607160c13dfb487b6,2022-07-06_09h25.28.139,Colour_Asymmetry_Pilot,2022.1.3,Win32,59.24170616,62c50e9c1127f2cd403a315f,0,87,87,126,1,fourtwo,,,,,,,,,,,,,,,,,,,,,,,,,,,,,,,,,,,,,,,,,,,,,,,,,,,,,,,,,,,,,,,,,,,,,,,,,,,,,,,,,,,,,,,,,,,,,,,,,,,,,,,,,,,,,,,,,,,,,,,,,,,,,,,,,,,,,,,,,,,,,,,,,,,,,,,,,,,,,
,,,,,,61641a12f14a6f1b08edd5bf,62c538c607160c13dfb487b6,2022-07-06_09h25.28.139,Colour_Asymmetry_Pilot,2022.1.3,Win32,59.24170616,62c50e9c1127f2cd403a315f,0,88,88,71,1,fourthree,,,,,,,,,,,,,,,,,,,,,,,,,,,,,,,,,,,,,,,,,,,,,,,,,,,,,,,,,,,,,,,,,,,,,,,,,,,,,,,,,,,,,,,,,,,,,,,,,,,,,,,,,,,,,,,,,,,,,,,,,,,,,,,,,,,,,,,,,,,,,,,,,,,,,,,,,,,,,
,,,,,,61641a12f14a6f1b08edd5bf,62c538c607160c13dfb487b6,2022-07-06_09h25.28.139,Colour_Asymmetry_Pilot,2022.1.3,Win32,59.24170616,62c50e9c1127f2cd403a315f,0,89,89,153,1,onethree,,,,,,,,,,,,,,,,,,,,,,,,,,,,,,,,,,,,,,,,,,,,,,,,,,,,,,,,,,,,,,,,,,,,,,,,,,,,,,,,,,,,,,,,,,,,,,,,,,,,,,,,,,,,,,,,,,,,,,,,,,,,,,,,,,,,,,,,,,,,,,,,,,,,,,,,,,,,,
,,,,,,61641a12f14a6f1b08edd5bf,62c538c607160c13dfb487b6,2022-07-06_09h25.28.139,Colour_Asymmetry_Pilot,2022.1.3,Win32,59.24170616,62c50e9c1127f2cd403a315f,0,90,90,89,1,onethree,,,,,,,,,,,,,,,,,,,,,,,,,,,,,,,,,,,,,,,,,,,,,,,,,,,,,,,,,,,,,,,,,,,,,,,,,,,,,,,,,,,,,,,,,,,,,,,,,,,,,,,,,,,,,,,,,,,,,,,,,,,,,,,,,,,,,,,,,,,,,,,,,,,,,,,,,,,,,
,,,,,,61641a12f14a6f1b08edd5bf,62c538c607160c13dfb487b6,2022-07-06_09h25.28.139,Colour_Asymmetry_Pilot,2022.1.3,Win32,59.24170616,62c50e9c1127f2cd403a315f,0,91,91,4,1,threeone,,,,,,,,,,,,,,,,,,,,,,,,,,,,,,,,,,,,,,,,,,,,,,,,,,,,,,,,,,,,,,,,,,,,,,,,,,,,,,,,,,,,,,,,,,,,,,,,,,,,,,,,,,,,,,,,,,,,,,,,,,,,,,,,,,,,,,,,,,,,,,,,,,,,,,,,,,,,,
,,,,,,61641a12f14a6f1b08edd5bf,62c538c607160c13dfb487b6,2022-07-06_09h25.28.139,Colour_Asymmetry_Pilot,2022.1.3,Win32,59.24170616,62c50e9c1127f2cd403a315f,0,92,92,98,1,twoone,,,,,,,,,,,,,,,,,,,,,,,,,,,,,,,,,,,,,,,,,,,,,,,,,,,,,,,,,,,,,,,,,,,,,,,,,,,,,,,,,,,,,,,,,,,,,,,,,,,,,,,,,,,,,,,,,,,,,,,,,,,,,,,,,,,,,,,,,,,,,,,,,,,,,,,,,,,,,
,,,,,,61641a12f14a6f1b08edd5bf,62c538c607160c13dfb487b6,2022-07-06_09h25.28.139,Colour_Asymmetry_Pilot,2022.1.3,Win32,59.24170616,62c50e9c1127f2cd403a315f,0,93,93,31,1,fourthree,,,,,,,,,,,,,,,,,,,,,,,,,,,,,,,,,,,,,,,,,,,,,,,,,,,,,,,,,,,,,,,,,,,,,,,,,,,,,,,,,,,,,,,,,,,,,,,,,,,,,,,,,,,,,,,,,,,,,,,,,,,,,,,,,,,,,,,,,,,,,,,,,,,,,,,,,,,,,
,,,,,,61641a12f14a6f1b08edd5bf,62c538c607160c13dfb487b6,2022-07-06_09h25.28.139,Colour_Asymmetry_Pilot,2022.1.3,Win32,59.24170616,62c50e9c1127f2cd403a315f,0,94,94,41,1,onethree,,,,,,,,,,,,,,,,,,,,,,,,,,,,,,,,,,,,,,,,,,,,,,,,,,,,,,,,,,,,,,,,,,,,,,,,,,,,,,,,,,,,,,,,,,,,,,,,,,,,,,,,,,,,,,,,,,,,,,,,,,,,,,,,,,,,,,,,,,,,,,,,,,,,,,,,,,,,,
,,,,,,61641a12f14a6f1b08edd5bf,62c538c607160c13dfb487b6,2022-07-06_09h25.28.139,Colour_Asymmetry_Pilot,2022.1.3,Win32,59.24170616,62c50e9c1127f2cd403a315f,0,95,95,125,1,threefour,,,,,,,,,,,,,,,,,,,,,,,,,,,,,,,,,,,,,,,,,,,,,,,,,,,,,,,,,,,,,,,,,,,,,,,,,,,,,,,,,,,,,,,,,,,,,,,,,,,,,,,,,,,,,,,,,,,,,,,,,,,,,,,,,,,,,,,,,,,,,,,,,,,,,,,,,,,,,
,,,,,,61641a12f14a6f1b08edd5bf,62c538c607160c13dfb487b6,2022-07-06_09h25.28.139,Colour_Asymmetry_Pilot,2022.1.3,Win32,59.24170616,62c50e9c1127f2cd403a315f,0,96,96,151,1,fourthree,,,,,,,,,,,,,,,,,,,,,,,,,,,,,,,,,,,,,,,,,,,,,,,,,,,,,,,,,,,,,,,,,,,,,,,,,,,,,,,,,,,,,,,,,,,,,,,,,,,,,,,,,,,,,,,,,,,,,,,,,,,,,,,,,,,,,,,,,,,,,,,,,,,,,,,,,,,,,
,,,,,,61641a12f14a6f1b08edd5bf,62c538c607160c13dfb487b6,2022-07-06_09h25.28.139,Colour_Asymmetry_Pilot,2022.1.3,Win32,59.24170616,62c50e9c1127f2cd403a315f,0,97,97,17,1,onethree,,,,,,,,,,,,,,,,,,,,,,,,,,,,,,,,,,,,,,,,,,,,,,,,,,,,,,,,,,,,,,,,,,,,,,,,,,,,,,,,,,,,,,,,,,,,,,,,,,,,,,,,,,,,,,,,,,,,,,,,,,,,,,,,,,,,,,,,,,,,,,,,,,,,,,,,,,,,,
,,,,,,61641a12f14a6f1b08edd5bf,62c538c607160c13dfb487b6,2022-07-06_09h25.28.139,Colour_Asymmetry_Pilot,2022.1.3,Win32,59.24170616,62c50e9c1127f2cd403a315f,0,98,98,85,1,threefour,,,,,,,,,,,,,,,,,,,,,,,,,,,,,,,,,,,,,,,,,,,,,,,,,,,,,,,,,,,,,,,,,,,,,,,,,,,,,,,,,,,,,,,,,,,,,,,,,,,,,,,,,,,,,,,,,,,,,,,,,,,,,,,,,,,,,,,,,,,,,,,,,,,,,,,,,,,,,
,,,,,,61641a12f14a6f1b08edd5bf,62c538c607160c13dfb487b6,2022-07-06_09h25.28.139,Colour_Asymmetry_Pilot,2022.1.3,Win32,59.24170616,62c50e9c1127f2cd403a315f,0,99,99,136,1,onetwo,,,,,,,,,,,,,,,,,,,,,,,,,,,,,,,,,,,,,,,,,,,,,,,,,,,,,,,,,,,,,,,,,,,,,,,,,,,,,,,,,,,,,,,,,,,,,,,,,,,,,,,,,,,,,,,,,,,,,,,,,,,,,,,,,,,,,,,,,,,,,,,,,,,,,,,,,,,,,
,,,,,,61641a12f14a6f1b08edd5bf,62c538c607160c13dfb487b6,2022-07-06_09h25.28.139,Colour_Asymmetry_Pilot,2022.1.3,Win32,59.24170616,62c50e9c1127f2cd403a315f,0,100,100,35,1,twofour,,,,,,,,,,,,,,,,,,,,,,,,,,,,,,,,,,,,,,,,,,,,,,,,,,,,,,,,,,,,,,,,,,,,,,,,,,,,,,,,,,,,,,,,,,,,,,,,,,,,,,,,,,,,,,,,,,,,,,,,,,,,,,,,,,,,,,,,,,,,,,,,,,,,,,,,,,,,,
,,,,,,61641a12f14a6f1b08edd5bf,62c538c607160c13dfb487b6,2022-07-06_09h25.28.139,Colour_Asymmetry_Pilot,2022.1.3,Win32,59.24170616,62c50e9c1127f2cd403a315f,0,101,101,107,1,twofour,,,,,,,,,,,,,,,,,,,,,,,,,,,,,,,,,,,,,,,,,,,,,,,,,,,,,,,,,,,,,,,,,,,,,,,,,,,,,,,,,,,,,,,,,,,,,,,,,,,,,,,,,,,,,,,,,,,,,,,,,,,,,,,,,,,,,,,,,,,,,,,,,,,,,,,,,,,,,
,,,,,,61641a12f14a6f1b08edd5bf,62c538c607160c13dfb487b6,2022-07-06_09h25.28.139,Colour_Asymmetry_Pilot,2022.1.3,Win32,59.24170616,62c50e9c1127f2cd403a315f,0,102,102,48,1,onetwo,,,,,,,,,,,,,,,,,,,,,,,,,,,,,,,,,,,,,,,,,,,,,,,,,,,,,,,,,,,,,,,,,,,,,,,,,,,,,,,,,,,,,,,,,,,,,,,,,,,,,,,,,,,,,,,,,,,,,,,,,,,,,,,,,,,,,,,,,,,,,,,,,,,,,,,,,,,,,
,,,,,,61641a12f14a6f1b08edd5bf,62c538c607160c13dfb487b6,2022-07-06_09h25.28.139,Colour_Asymmetry_Pilot,2022.1.3,Win32,59.24170616,62c50e9c1127f2cd403a315f,0,103,103,95,1,fourthree,,,,,,,,,,,,,,,,,,,,,,,,,,,,,,,,,,,,,,,,,,,,,,,,,,,,,,,,,,,,,,,,,,,,,,,,,,,,,,,,,,,,,,,,,,,,,,,,,,,,,,,,,,,,,,,,,,,,,,,,,,,,,,,,,,,,,,,,,,,,,,,,,,,,,,,,,,,,,
,,,,,,61641a12f14a6f1b08edd5bf,62c538c607160c13dfb487b6,2022-07-06_09h25.28.139,Colour_Asymmetry_Pilot,2022.1.3,Win32,59.24170616,62c50e9c1127f2cd403a315f,0,104,104,22,1,fourtwo,,,,,,,,,,,,,,,,,,,,,,,,,,,,,,,,,,,,,,,,,,,,,,,,,,,,,,,,,,,,,,,,,,,,,,,,,,,,,,,,,,,,,,,,,,,,,,,,,,,,,,,,,,,,,,,,,,,,,,,,,,,,,,,,,,,,,,,,,,,,,,,,,,,,,,,,,,,,,
,,,,,,61641a12f14a6f1b08edd5bf,62c538c607160c13dfb487b6,2022-07-06_09h25.28.139,Colour_Asymmetry_Pilot,2022.1.3,Win32,59.24170616,62c50e9c1127f2cd403a315f,0,105,105,94,1,fourtwo,,,,,,,,,,,,,,,,,,,,,,,,,,,,,,,,,,,,,,,,,,,,,,,,,,,,,,,,,,,,,,,,,,,,,,,,,,,,,,,,,,,,,,,,,,,,,,,,,,,,,,,,,,,,,,,,,,,,,,,,,,,,,,,,,,,,,,,,,,,,,,,,,,,,,,,,,,,,,
,,,,,,61641a12f14a6f1b08edd5bf,62c538c607160c13dfb487b6,2022-07-06_09h25.28.139,Colour_Asymmetry_Pilot,2022.1.3,Win32,59.24170616,62c50e9c1127f2cd403a315f,0,106,106,158,1,fourtwo,,,,,,,,,,,,,,,,,,,,,,,,,,,,,,,,,,,,,,,,,,,,,,,,,,,,,,,,,,,,,,,,,,,,,,,,,,,,,,,,,,,,,,,,,,,,,,,,,,,,,,,,,,,,,,,,,,,,,,,,,,,,,,,,,,,,,,,,,,,,,,,,,,,,,,,,,,,,,
,,,,,,61641a12f14a6f1b08edd5bf,62c538c607160c13dfb487b6,2022-07-06_09h25.28.139,Colour_Asymmetry_Pilot,2022.1.3,Win32,59.24170616,62c50e9c1127f2cd403a315f,0,107,107,44,1,threeone,,,,,,,,,,,,,,,,,,,,,,,,,,,,,,,,,,,,,,,,,,,,,,,,,,,,,,,,,,,,,,,,,,,,,,,,,,,,,,,,,,,,,,,,,,,,,,,,,,,,,,,,,,,,,,,,,,,,,,,,,,,,,,,,,,,,,,,,,,,,,,,,,,,,,,,,,,,,,
,,,,,,61641a12f14a6f1b08edd5bf,62c538c607160c13dfb487b6,2022-07-06_09h25.28.139,Colour_Asymmetry_Pilot,2022.1.3,Win32,59.24170616,62c50e9c1127f2cd403a315f,0,108,108,132,1,threeone,,,,,,,,,,,,,,,,,,,,,,,,,,,,,,,,,,,,,,,,,,,,,,,,,,,,,,,,,,,,,,,,,,,,,,,,,,,,,,,,,,,,,,,,,,,,,,,,,,,,,,,,,,,,,,,,,,,,,,,,,,,,,,,,,,,,,,,,,,,,,,,,,,,,,,,,,,,,,
,,,,,,61641a12f14a6f1b08edd5bf,62c538c607160c13dfb487b6,2022-07-06_09h25.28.139,Colour_Asymmetry_Pilot,2022.1.3,Win32,59.24170616,62c50e9c1127f2cd403a315f,0,109,109,46,1,fourtwo,,,,,,,,,,,,,,,,,,,,,,,,,,,,,,,,,,,,,,,,,,,,,,,,,,,,,,,,,,,,,,,,,,,,,,,,,,,,,,,,,,,,,,,,,,,,,,,,,,,,,,,,,,,,,,,,,,,,,,,,,,,,,,,,,,,,,,,,,,,,,,,,,,,,,,,,,,,,,
,,,,,,61641a12f14a6f1b08edd5bf,62c538c607160c13dfb487b6,2022-07-06_09h25.28.139,Colour_Asymmetry_Pilot,2022.1.3,Win32,59.24170616,62c50e9c1127f2cd403a315f,0,110,110,124,1,threeone,,,,,,,,,,,,,,,,,,,,,,,,,,,,,,,,,,,,,,,,,,,,,,,,,,,,,,,,,,,,,,,,,,,,,,,,,,,,,,,,,,,,,,,,,,,,,,,,,,,,,,,,,,,,,,,,,,,,,,,,,,,,,,,,,,,,,,,,,,,,,,,,,,,,,,,,,,,,,
,,,,,,61641a12f14a6f1b08edd5bf,62c538c607160c13dfb487b6,2022-07-06_09h25.28.139,Colour_Asymmetry_Pilot,2022.1.3,Win32,59.24170616,62c50e9c1127f2cd403a315f,0,111,111,12,1,threeone,,,,,,,,,,,,,,,,,,,,,,,,,,,,,,,,,,,,,,,,,,,,,,,,,,,,,,,,,,,,,,,,,,,,,,,,,,,,,,,,,,,,,,,,,,,,,,,,,,,,,,,,,,,,,,,,,,,,,,,,,,,,,,,,,,,,,,,,,,,,,,,,,,,,,,,,,,,,,
,,,,,,61641a12f14a6f1b08edd5bf,62c538c607160c13dfb487b6,2022-07-06_09h25.28.139,Colour_Asymmetry_Pilot,2022.1.3,Win32,59.24170616,62c50e9c1127f2cd403a315f,0,112,112,82,1,twoone,,,,,,,,,,,,,,,,,,,,,,,,,,,,,,,,,,,,,,,,,,,,,,,,,,,,,,,,,,,,,,,,,,,,,,,,,,,,,,,,,,,,,,,,,,,,,,,,,,,,,,,,,,,,,,,,,,,,,,,,,,,,,,,,,,,,,,,,,,,,,,,,,,,,,,,,,,,,,
,,,,,,61641a12f14a6f1b08edd5bf,62c538c607160c13dfb487b6,2022-07-06_09h25.28.139,Colour_Asymmetry_Pilot,2022.1.3,Win32,59.24170616,62c50e9c1127f2cd403a315f,0,113,113,43,1,twofour,,,,,,,,,,,,,,,,,,,,,,,,,,,,,,,,,,,,,,,,,,,,,,,,,,,,,,,,,,,,,,,,,,,,,,,,,,,,,,,,,,,,,,,,,,,,,,,,,,,,,,,,,,,,,,,,,,,,,,,,,,,,,,,,,,,,,,,,,,,,,,,,,,,,,,,,,,,,,
,,,,,,61641a12f14a6f1b08edd5bf,62c538c607160c13dfb487b6,2022-07-06_09h25.28.139,Colour_Asymmetry_Pilot,2022.1.3,Win32,59.24170616,62c50e9c1127f2cd403a315f,0,114,114,130,1,twoone,,,,,,,,,,,,,,,,,,,,,,,,,,,,,,,,,,,,,,,,,,,,,,,,,,,,,,,,,,,,,,,,,,,,,,,,,,,,,,,,,,,,,,,,,,,,,,,,,,,,,,,,,,,,,,,,,,,,,,,,,,,,,,,,,,,,,,,,,,,,,,,,,,,,,,,,,,,,,
,,,,,,61641a12f14a6f1b08edd5bf,62c538c607160c13dfb487b6,2022-07-06_09h25.28.139,Colour_Asymmetry_Pilot,2022.1.3,Win32,59.24170616,62c50e9c1127f2cd403a315f,0,115,115,133,1,threefour,,,,,,,,,,,,,,,,,,,,,,,,,,,,,,,,,,,,,,,,,,,,,,,,,,,,,,,,,,,,,,,,,,,,,,,,,,,,,,,,,,,,,,,,,,,,,,,,,,,,,,,,,,,,,,,,,,,,,,,,,,,,,,,,,,,,,,,,,,,,,,,,,,,,,,,,,,,,,
,,,,,,61641a12f14a6f1b08edd5bf,62c538c607160c13dfb487b6,2022-07-06_09h25.28.139,Colour_Asymmetry_Pilot,2022.1.3,Win32,59.24170616,62c50e9c1127f2cd403a315f,0,116,116,29,1,threefour,,,,,,,,,,,,,,,,,,,,,,,,,,,,,,,,,,,,,,,,,,,,,,,,,,,,,,,,,,,,,,,,,,,,,,,,,,,,,,,,,,,,,,,,,,,,,,,,,,,,,,,,,,,,,,,,,,,,,,,,,,,,,,,,,,,,,,,,,,,,,,,,,,,,,,,,,,,,,
,,,,,,61641a12f14a6f1b08edd5bf,62c538c607160c13dfb487b6,2022-07-06_09h25.28.139,Colour_Asymmetry_Pilot,2022.1.3,Win32,59.24170616,62c50e9c1127f2cd403a315f,0,117,117,58,1,twoone,,,,,,,,,,,,,,,,,,,,,,,,,,,,,,,,,,,,,,,,,,,,,,,,,,,,,,,,,,,,,,,,,,,,,,,,,,,,,,,,,,,,,,,,,,,,,,,,,,,,,,,,,,,,,,,,,,,,,,,,,,,,,,,,,,,,,,,,,,,,,,,,,,,,,,,,,,,,,
,,,,,,61641a12f14a6f1b08edd5bf,62c538c607160c13dfb487b6,2022-07-06_09h25.28.139,Colour_Asymmetry_Pilot,2022.1.3,Win32,59.24170616,62c50e9c1127f2cd403a315f,0,118,118,91,1,twofour,,,,,,,,,,,,,,,,,,,,,,,,,,,,,,,,,,,,,,,,,,,,,,,,,,,,,,,,,,,,,,,,,,,,,,,,,,,,,,,,,,,,,,,,,,,,,,,,,,,,,,,,,,,,,,,,,,,,,,,,,,,,,,,,,,,,,,,,,,,,,,,,,,,,,,,,,,,,,
,,,,,,61641a12f14a6f1b08edd5bf,62c538c607160c13dfb487b6,2022-07-06_09h25.28.139,Colour_Asymmetry_Pilot,2022.1.3,Win32,59.24170616,62c50e9c1127f2cd403a315f,0,119,119,141,1,threefour,,,,,,,,,,,,,,,,,,,,,,,,,,,,,,,,,,,,,,,,,,,,,,,,,,,,,,,,,,,,,,,,,,,,,,,,,,,,,,,,,,,,,,,,,,,,,,,,,,,,,,,,,,,,,,,,,,,,,,,,,,,,,,,,,,,,,,,,,,,,,,,,,,,,,,,,,,,,,
,,,,,,61641a12f14a6f1b08edd5bf,62c538c607160c13dfb487b6,2022-07-06_09h25.28.139,Colour_Asymmetry_Pilot,2022.1.3,Win32,59.24170616,62c50e9c1127f2cd403a315f,0,120,120,81,1,onethree,,,,,,,,,,,,,,,,,,,,,,,,,,,,,,,,,,,,,,,,,,,,,,,,,,,,,,,,,,,,,,,,,,,,,,,,,,,,,,,,,,,,,,,,,,,,,,,,,,,,,,,,,,,,,,,,,,,,,,,,,,,,,,,,,,,,,,,,,,,,,,,,,,,,,,,,,,,,,
,,,,,,61641a12f14a6f1b08edd5bf,62c538c607160c13dfb487b6,2022-07-06_09h25.28.139,Colour_Asymmetry_Pilot,2022.1.3,Win32,59.24170616,62c50e9c1127f2cd403a315f,0,121,121,115,1,twofour,,,,,,,,,,,,,,,,,,,,,,,,,,,,,,,,,,,,,,,,,,,,,,,,,,,,,,,,,,,,,,,,,,,,,,,,,,,,,,,,,,,,,,,,,,,,,,,,,,,,,,,,,,,,,,,,,,,,,,,,,,,,,,,,,,,,,,,,,,,,,,,,,,,,,,,,,,,,,
,,,,,,61641a12f14a6f1b08edd5bf,62c538c607160c13dfb487b6,2022-07-06_09h25.28.139,Colour_Asymmetry_Pilot,2022.1.3,Win32,59.24170616,62c50e9c1127f2cd403a315f,0,122,122,65,1,onethree,,,,,,,,,,,,,,,,,,,,,,,,,,,,,,,,,,,,,,,,,,,,,,,,,,,,,,,,,,,,,,,,,,,,,,,,,,,,,,,,,,,,,,,,,,,,,,,,,,,,,,,,,,,,,,,,,,,,,,,,,,,,,,,,,,,,,,,,,,,,,,,,,,,,,,,,,,,,,
,,,,,,61641a12f14a6f1b08edd5bf,62c538c607160c13dfb487b6,2022-07-06_09h25.28.139,Colour_Asymmetry_Pilot,2022.1.3,Win32,59.24170616,62c50e9c1127f2cd403a315f,0,123,123,131,1,twofour,,,,,,,,,,,,,,,,,,,,,,,,,,,,,,,,,,,,,,,,,,,,,,,,,,,,,,,,,,,,,,,,,,,,,,,,,,,,,,,,,,,,,,,,,,,,,,,,,,,,,,,,,,,,,,,,,,,,,,,,,,,,,,,,,,,,,,,,,,,,,,,,,,,,,,,,,,,,,
,,,,,,61641a12f14a6f1b08edd5bf,62c538c607160c13dfb487b6,2022-07-06_09h25.28.139,Colour_Asymmetry_Pilot,2022.1.3,Win32,59.24170616,62c50e9c1127f2cd403a315f,0,124,124,56,1,onetwo,,,,,,,,,,,,,,,,,,,,,,,,,,,,,,,,,,,,,,,,,,,,,,,,,,,,,,,,,,,,,,,,,,,,,,,,,,,,,,,,,,,,,,,,,,,,,,,,,,,,,,,,,,,,,,,,,,,,,,,,,,,,,,,,,,,,,,,,,,,,,,,,,,,,,,,,,,,,,
,,,,,,61641a12f14a6f1b08edd5bf,62c538c607160c13dfb487b6,2022-07-06_09h25.28.139,Colour_Asymmetry_Pilot,2022.1.3,Win32,59.24170616,62c50e9c1127f2cd403a315f,0,125,125,78,1,fourtwo,,,,,,,,,,,,,,,,,,,,,,,,,,,,,,,,,,,,,,,,,,,,,,,,,,,,,,,,,,,,,,,,,,,,,,,,,,,,,,,,,,,,,,,,,,,,,,,,,,,,,,,,,,,,,,,,,,,,,,,,,,,,,,,,,,,,,,,,,,,,,,,,,,,,,,,,,,,,,
,,,,,,61641a12f14a6f1b08edd5bf,62c538c607160c13dfb487b6,2022-07-06_09h25.28.139,Colour_Asymmetry_Pilot,2022.1.3,Win32,59.24170616,62c50e9c1127f2cd403a315f,0,126,126,21,1,threefour,,,,,,,,,,,,,,,,,,,,,,,,,,,,,,,,,,,,,,,,,,,,,,,,,,,,,,,,,,,,,,,,,,,,,,,,,,,,,,,,,,,,,,,,,,,,,,,,,,,,,,,,,,,,,,,,,,,,,,,,,,,,,,,,,,,,,,,,,,,,,,,,,,,,,,,,,,,,,
,,,,,,61641a12f14a6f1b08edd5bf,62c538c607160c13dfb487b6,2022-07-06_09h25.28.139,Colour_Asymmetry_Pilot,2022.1.3,Win32,59.24170616,62c50e9c1127f2cd403a315f,0,127,127,86,1,fourtwo,,,,,,,,,,,,,,,,,,,,,,,,,,,,,,,,,,,,,,,,,,,,,,,,,,,,,,,,,,,,,,,,,,,,,,,,,,,,,,,,,,,,,,,,,,,,,,,,,,,,,,,,,,,,,,,,,,,,,,,,,,,,,,,,,,,,,,,,,,,,,,,,,,,,,,,,,,,,,
,,,,,,61641a12f14a6f1b08edd5bf,62c538c607160c13dfb487b6,2022-07-06_09h25.28.139,Colour_Asymmetry_Pilot,2022.1.3,Win32,59.24170616,62c50e9c1127f2cd403a315f,0,128,128,60,1,threeone,,,,,,,,,,,,,,,,,,,,,,,,,,,,,,,,,,,,,,,,,,,,,,,,,,,,,,,,,,,,,,,,,,,,,,,,,,,,,,,,,,,,,,,,,,,,,,,,,,,,,,,,,,,,,,,,,,,,,,,,,,,,,,,,,,,,,,,,,,,,,,,,,,,,,,,,,,,,,
,,,,,,61641a12f14a6f1b08edd5bf,62c538c607160c13dfb487b6,2022-07-06_09h25.28.139,Colour_Asymmetry_Pilot,2022.1.3,Win32,59.24170616,62c50e9c1127f2cd403a315f,0,129,129,120,1,onetwo,,,,,,,,,,,,,,,,,,,,,,,,,,,,,,,,,,,,,,,,,,,,,,,,,,,,,,,,,,,,,,,,,,,,,,,,,,,,,,,,,,,,,,,,,,,,,,,,,,,,,,,,,,,,,,,,,,,,,,,,,,,,,,,,,,,,,,,,,,,,,,,,,,,,,,,,,,,,,
,,,,,,61641a12f14a6f1b08edd5bf,62c538c607160c13dfb487b6,2022-07-06_09h25.28.139,Colour_Asymmetry_Pilot,2022.1.3,Win32,59.24170616,62c50e9c1127f2cd403a315f,0,130,130,49,1,onethree,,,,,,,,,,,,,,,,,,,,,,,,,,,,,,,,,,,,,,,,,,,,,,,,,,,,,,,,,,,,,,,,,,,,,,,,,,,,,,,,,,,,,,,,,,,,,,,,,,,,,,,,,,,,,,,,,,,,,,,,,,,,,,,,,,,,,,,,,,,,,,,,,,,,,,,,,,,,,
,,,,,,61641a12f14a6f1b08edd5bf,62c538c607160c13dfb487b6,2022-07-06_09h25.28.139,Colour_Asymmetry_Pilot,2022.1.3,Win32,59.24170616,62c50e9c1127f2cd403a315f,0,131,131,37,1,threefour,,,,,,,,,,,,,,,,,,,,,,,,,,,,,,,,,,,,,,,,,,,,,,,,,,,,,,,,,,,,,,,,,,,,,,,,,,,,,,,,,,,,,,,,,,,,,,,,,,,,,,,,,,,,,,,,,,,,,,,,,,,,,,,,,,,,,,,,,,,,,,,,,,,,,,,,,,,,,
,,,,,,61641a12f14a6f1b08edd5bf,62c538c607160c13dfb487b6,2022-07-06_09h25.28.139,Colour_Asymmetry_Pilot,2022.1.3,Win32,59.24170616,62c50e9c1127f2cd403a315f,0,132,132,118,1,fourtwo,,,,,,,,,,,,,,,,,,,,,,,,,,,,,,,,,,,,,,,,,,,,,,,,,,,,,,,,,,,,,,,,,,,,,,,,,,,,,,,,,,,,,,,,,,,,,,,,,,,,,,,,,,,,,,,,,,,,,,,,,,,,,,,,,,,,,,,,,,,,,,,,,,,,,,,,,,,,,
,,,,,,61641a12f14a6f1b08edd5bf,62c538c607160c13dfb487b6,2022-07-06_09h25.28.139,Colour_Asymmetry_Pilot,2022.1.3,Win32,59.24170616,62c50e9c1127f2cd403a315f,0,133,133,104,1,onetwo,,,,,,,,,,,,,,,,,,,,,,,,,,,,,,,,,,,,,,,,,,,,,,,,,,,,,,,,,,,,,,,,,,,,,,,,,,,,,,,,,,,,,,,,,,,,,,,,,,,,,,,,,,,,,,,,,,,,,,,,,,,,,,,,,,,,,,,,,,,,,,,,,,,,,,,,,,,,,
,,,,,,61641a12f14a6f1b08edd5bf,62c538c607160c13dfb487b6,2022-07-06_09h25.28.139,Colour_Asymmetry_Pilot,2022.1.3,Win32,59.24170616,62c50e9c1127f2cd403a315f,0,134,134,117,1,threefour,,,,,,,,,,,,,,,,,,,,,,,,,,,,,,,,,,,,,,,,,,,,,,,,,,,,,,,,,,,,,,,,,,,,,,,,,,,,,,,,,,,,,,,,,,,,,,,,,,,,,,,,,,,,,,,,,,,,,,,,,,,,,,,,,,,,,,,,,,,,,,,,,,,,,,,,,,,,,
,,,,,,61641a12f14a6f1b08edd5bf,62c538c607160c13dfb487b6,2022-07-06_09h25.28.139,Colour_Asymmetry_Pilot,2022.1.3,Win32,59.24170616,62c50e9c1127f2cd403a315f,0,135,135,62,1,fourtwo,,,,,,,,,,,,,,,,,,,,,,,,,,,,,,,,,,,,,,,,,,,,,,,,,,,,,,,,,,,,,,,,,,,,,,,,,,,,,,,,,,,,,,,,,,,,,,,,,,,,,,,,,,,,,,,,,,,,,,,,,,,,,,,,,,,,,,,,,,,,,,,,,,,,,,,,,,,,,
,,,,,,61641a12f14a6f1b08edd5bf,62c538c607160c13dfb487b6,2022-07-06_09h25.28.139,Colour_Asymmetry_Pilot,2022.1.3,Win32,59.24170616,62c50e9c1127f2cd403a315f,0,136,136,111,1,fourthree,,,,,,,,,,,,,,,,,,,,,,,,,,,,,,,,,,,,,,,,,,,,,,,,,,,,,,,,,,,,,,,,,,,,,,,,,,,,,,,,,,,,,,,,,,,,,,,,,,,,,,,,,,,,,,,,,,,,,,,,,,,,,,,,,,,,,,,,,,,,,,,,,,,,,,,,,,,,,
,,,,,,61641a12f14a6f1b08edd5bf,62c538c607160c13dfb487b6,2022-07-06_09h25.28.139,Colour_Asymmetry_Pilot,2022.1.3,Win32,59.24170616,62c50e9c1127f2cd403a315f,0,137,137,134,1,fourtwo,,,,,,,,,,,,,,,,,,,,,,,,,,,,,,,,,,,,,,,,,,,,,,,,,,,,,,,,,,,,,,,,,,,,,,,,,,,,,,,,,,,,,,,,,,,,,,,,,,,,,,,,,,,,,,,,,,,,,,,,,,,,,,,,,,,,,,,,,,,,,,,,,,,,,,,,,,,,,
,,,,,,61641a12f14a6f1b08edd5bf,62c538c607160c13dfb487b6,2022-07-06_09h25.28.139,Colour_Asymmetry_Pilot,2022.1.3,Win32,59.24170616,62c50e9c1127f2cd403a315f,0,138,138,34,1,twoone,,,,,,,,,,,,,,,,,,,,,,,,,,,,,,,,,,,,,,,,,,,,,,,,,,,,,,,,,,,,,,,,,,,,,,,,,,,,,,,,,,,,,,,,,,,,,,,,,,,,,,,,,,,,,,,,,,,,,,,,,,,,,,,,,,,,,,,,,,,,,,,,,,,,,,,,,,,,,
,,,,,,61641a12f14a6f1b08edd5bf,62c538c607160c13dfb487b6,2022-07-06_09h25.28.139,Colour_Asymmetry_Pilot,2022.1.3,Win32,59.24170616,62c50e9c1127f2cd403a315f,0,139,139,38,1,fourtwo,,,,,,,,,,,,,,,,,,,,,,,,,,,,,,,,,,,,,,,,,,,,,,,,,,,,,,,,,,,,,,,,,,,,,,,,,,,,,,,,,,,,,,,,,,,,,,,,,,,,,,,,,,,,,,,,,,,,,,,,,,,,,,,,,,,,,,,,,,,,,,,,,,,,,,,,,,,,,
,,,,,,61641a12f14a6f1b08edd5bf,62c538c607160c13dfb487b6,2022-07-06_09h25.28.139,Colour_Asymmetry_Pilot,2022.1.3,Win32,59.24170616,62c50e9c1127f2cd403a315f,0,140,140,23,1,fourthree,,,,,,,,,,,,,,,,,,,,,,,,,,,,,,,,,,,,,,,,,,,,,,,,,,,,,,,,,,,,,,,,,,,,,,,,,,,,,,,,,,,,,,,,,,,,,,,,,,,,,,,,,,,,,,,,,,,,,,,,,,,,,,,,,,,,,,,,,,,,,,,,,,,,,,,,,,,,,
,,,,,,61641a12f14a6f1b08edd5bf,62c538c607160c13dfb487b6,2022-07-06_09h25.28.139,Colour_Asymmetry_Pilot,2022.1.3,Win32,59.24170616,62c50e9c1127f2cd403a315f,0,141,141,108,1,threeone,,,,,,,,,,,,,,,,,,,,,,,,,,,,,,,,,,,,,,,,,,,,,,,,,,,,,,,,,,,,,,,,,,,,,,,,,,,,,,,,,,,,,,,,,,,,,,,,,,,,,,,,,,,,,,,,,,,,,,,,,,,,,,,,,,,,,,,,,,,,,,,,,,,,,,,,,,,,,
,,,,,,61641a12f14a6f1b08edd5bf,62c538c607160c13dfb487b6,2022-07-06_09h25.28.139,Colour_Asymmetry_Pilot,2022.1.3,Win32,59.24170616,62c50e9c1127f2cd403a315f,0,142,142,109,1,threefour,,,,,,,,,,,,,,,,,,,,,,,,,,,,,,,,,,,,,,,,,,,,,,,,,,,,,,,,,,,,,,,,,,,,,,,,,,,,,,,,,,,,,,,,,,,,,,,,,,,,,,,,,,,,,,,,,,,,,,,,,,,,,,,,,,,,,,,,,,,,,,,,,,,,,,,,,,,,,
,,,,,,61641a12f14a6f1b08edd5bf,62c538c607160c13dfb487b6,2022-07-06_09h25.28.139,Colour_Asymmetry_Pilot,2022.1.3,Win32,59.24170616,62c50e9c1127f2cd403a315f,0,143,143,157,1,threefour,,,,,,,,,,,,,,,,,,,,,,,,,,,,,,,,,,,,,,,,,,,,,,,,,,,,,,,,,,,,,,,,,,,,,,,,,,,,,,,,,,,,,,,,,,,,,,,,,,,,,,,,,,,,,,,,,,,,,,,,,,,,,,,,,,,,,,,,,,,,,,,,,,,,,,,,,,,,,
,,,,,,61641a12f14a6f1b08edd5bf,62c538c607160c13dfb487b6,2022-07-06_09h25.28.139,Colour_Asymmetry_Pilot,2022.1.3,Win32,59.24170616,62c50e9c1127f2cd403a315f,0,144,144,42,1,twoone,,,,,,,,,,,,,,,,,,,,,,,,,,,,,,,,,,,,,,,,,,,,,,,,,,,,,,,,,,,,,,,,,,,,,,,,,,,,,,,,,,,,,,,,,,,,,,,,,,,,,,,,,,,,,,,,,,,,,,,,,,,,,,,,,,,,,,,,,,,,,,,,,,,,,,,,,,,,,
,,,,,,61641a12f14a6f1b08edd5bf,62c538c607160c13dfb487b6,2022-07-06_09h25.28.139,Colour_Asymmetry_Pilot,2022.1.3,Win32,59.24170616,62c50e9c1127f2cd403a315f,0,145,145,148,1,threeone,,,,,,,,,,,,,,,,,,,,,,,,,,,,,,,,,,,,,,,,,,,,,,,,,,,,,,,,,,,,,,,,,,,,,,,,,,,,,,,,,,,,,,,,,,,,,,,,,,,,,,,,,,,,,,,,,,,,,,,,,,,,,,,,,,,,,,,,,,,,,,,,,,,,,,,,,,,,,
,,,,,,61641a12f14a6f1b08edd5bf,62c538c607160c13dfb487b6,2022-07-06_09h25.28.139,Colour_Asymmetry_Pilot,2022.1.3,Win32,59.24170616,62c50e9c1127f2cd403a315f,0,146,146,24,1,onetwo,,,,,,,,,,,,,,,,,,,,,,,,,,,,,,,,,,,,,,,,,,,,,,,,,,,,,,,,,,,,,,,,,,,,,,,,,,,,,,,,,,,,,,,,,,,,,,,,,,,,,,,,,,,,,,,,,,,,,,,,,,,,,,,,,,,,,,,,,,,,,,,,,,,,,,,,,,,,,
,,,,,,61641a12f14a6f1b08edd5bf,62c538c607160c13dfb487b6,2022-07-06_09h25.28.139,Colour_Asymmetry_Pilot,2022.1.3,Win32,59.24170616,62c50e9c1127f2cd403a315f,0,147,147,137,1,onethree,,,,,,,,,,,,,,,,,,,,,,,,,,,,,,,,,,,,,,,,,,,,,,,,,,,,,,,,,,,,,,,,,,,,,,,,,,,,,,,,,,,,,,,,,,,,,,,,,,,,,,,,,,,,,,,,,,,,,,,,,,,,,,,,,,,,,,,,,,,,,,,,,,,,,,,,,,,,,
,,,,,,61641a12f14a6f1b08edd5bf,62c538c607160c13dfb487b6,2022-07-06_09h25.28.139,Colour_Asymmetry_Pilot,2022.1.3,Win32,59.24170616,62c50e9c1127f2cd403a315f,0,148,148,19,1,twofour,,,,,,,,,,,,,,,,,,,,,,,,,,,,,,,,,,,,,,,,,,,,,,,,,,,,,,,,,,,,,,,,,,,,,,,,,,,,,,,,,,,,,,,,,,,,,,,,,,,,,,,,,,,,,,,,,,,,,,,,,,,,,,,,,,,,,,,,,,,,,,,,,,,,,,,,,,,,,
,,,,,,61641a12f14a6f1b08edd5bf,62c538c607160c13dfb487b6,2022-07-06_09h25.28.139,Colour_Asymmetry_Pilot,2022.1.3,Win32,59.24170616,62c50e9c1127f2cd403a315f,0,149,149,156,1,threeone,,,,,,,,,,,,,,,,,,,,,,,,,,,,,,,,,,,,,,,,,,,,,,,,,,,,,,,,,,,,,,,,,,,,,,,,,,,,,,,,,,,,,,,,,,,,,,,,,,,,,,,,,,,,,,,,,,,,,,,,,,,,,,,,,,,,,,,,,,,,,,,,,,,,,,,,,,,,,
,,,,,,61641a12f14a6f1b08edd5bf,62c538c607160c13dfb487b6,2022-07-06_09h25.28.139,Colour_Asymmetry_Pilot,2022.1.3,Win32,59.24170616,62c50e9c1127f2cd403a315f,0,150,150,76,1,threeone,,,,,,,,,,,,,,,,,,,,,,,,,,,,,,,,,,,,,,,,,,,,,,,,,,,,,,,,,,,,,,,,,,,,,,,,,,,,,,,,,,,,,,,,,,,,,,,,,,,,,,,,,,,,,,,,,,,,,,,,,,,,,,,,,,,,,,,,,,,,,,,,,,,,,,,,,,,,,
,,,,,,61641a12f14a6f1b08edd5bf,62c538c607160c13dfb487b6,2022-07-06_09h25.28.139,Colour_Asymmetry_Pilot,2022.1.3,Win32,59.24170616,62c50e9c1127f2cd403a315f,0,151,151,87,1,fourthree,,,,,,,,,,,,,,,,,,,,,,,,,,,,,,,,,,,,,,,,,,,,,,,,,,,,,,,,,,,,,,,,,,,,,,,,,,,,,,,,,,,,,,,,,,,,,,,,,,,,,,,,,,,,,,,,,,,,,,,,,,,,,,,,,,,,,,,,,,,,,,,,,,,,,,,,,,,,,
,,,,,,61641a12f14a6f1b08edd5bf,62c538c607160c13dfb487b6,2022-07-06_09h25.28.139,Colour_Asymmetry_Pilot,2022.1.3,Win32,59.24170616,62c50e9c1127f2cd403a315f,0,152,152,93,1,threefour,,,,,,,,,,,,,,,,,,,,,,,,,,,,,,,,,,,,,,,,,,,,,,,,,,,,,,,,,,,,,,,,,,,,,,,,,,,,,,,,,,,,,,,,,,,,,,,,,,,,,,,,,,,,,,,,,,,,,,,,,,,,,,,,,,,,,,,,,,,,,,,,,,,,,,,,,,,,,
,,,,,,61641a12f14a6f1b08edd5bf,62c538c607160c13dfb487b6,2022-07-06_09h25.28.139,Colour_Asymmetry_Pilot,2022.1.3,Win32,59.24170616,62c50e9c1127f2cd403a315f,0,153,153,129,1,onethree,,,,,,,,,,,,,,,,,,,,,,,,,,,,,,,,,,,,,,,,,,,,,,,,,,,,,,,,,,,,,,,,,,,,,,,,,,,,,,,,,,,,,,,,,,,,,,,,,,,,,,,,,,,,,,,,,,,,,,,,,,,,,,,,,,,,,,,,,,,,,,,,,,,,,,,,,,,,,
,,,,,,61641a12f14a6f1b08edd5bf,62c538c607160c13dfb487b6,2022-07-06_09h25.28.139,Colour_Asymmetry_Pilot,2022.1.3,Win32,59.24170616,62c50e9c1127f2cd403a315f,0,154,154,40,1,onetwo,,,,,,,,,,,,,,,,,,,,,,,,,,,,,,,,,,,,,,,,,,,,,,,,,,,,,,,,,,,,,,,,,,,,,,,,,,,,,,,,,,,,,,,,,,,,,,,,,,,,,,,,,,,,,,,,,,,,,,,,,,,,,,,,,,,,,,,,,,,,,,,,,,,,,,,,,,,,,
,,,,,,61641a12f14a6f1b08edd5bf,62c538c607160c13dfb487b6,2022-07-06_09h25.28.139,Colour_Asymmetry_Pilot,2022.1.3,Win32,59.24170616,62c50e9c1127f2cd403a315f,0,155,155,97,1,onethree,,,,,,,,,,,,,,,,,,,,,,,,,,,,,,,,,,,,,,,,,,,,,,,,,,,,,,,,,,,,,,,,,,,,,,,,,,,,,,,,,,,,,,,,,,,,,,,,,,,,,,,,,,,,,,,,,,,,,,,,,,,,,,,,,,,,,,,,,,,,,,,,,,,,,,,,,,,,,
,,,,,,61641a12f14a6f1b08edd5bf,62c538c607160c13dfb487b6,2022-07-06_09h25.28.139,Colour_Asymmetry_Pilot,2022.1.3,Win32,59.24170616,62c50e9c1127f2cd403a315f,0,156,156,135,1,fourthree,,,,,,,,,,,,,,,,,,,,,,,,,,,,,,,,,,,,,,,,,,,,,,,,,,,,,,,,,,,,,,,,,,,,,,,,,,,,,,,,,,,,,,,,,,,,,,,,,,,,,,,,,,,,,,,,,,,,,,,,,,,,,,,,,,,,,,,,,,,,,,,,,,,,,,,,,,,,,
,,,,,,61641a12f14a6f1b08edd5bf,62c538c607160c13dfb487b6,2022-07-06_09h25.28.139,Colour_Asymmetry_Pilot,2022.1.3,Win32,59.24170616,62c50e9c1127f2cd403a315f,0,157,157,154,1,twoone,,,,,,,,,,,,,,,,,,,,,,,,,,,,,,,,,,,,,,,,,,,,,,,,,,,,,,,,,,,,,,,,,,,,,,,,,,,,,,,,,,,,,,,,,,,,,,,,,,,,,,,,,,,,,,,,,,,,,,,,,,,,,,,,,,,,,,,,,,,,,,,,,,,,,,,,,,,,,
,,,,,,61641a12f14a6f1b08edd5bf,62c538c607160c13dfb487b6,2022-07-06_09h25.28.139,Colour_Asymmetry_Pilot,2022.1.3,Win32,59.24170616,62c50e9c1127f2cd403a315f,0,158,158,73,1,onethree,,,,,,,,,,,,,,,,,,,,,,,,,,,,,,,,,,,,,,,,,,,,,,,,,,,,,,,,,,,,,,,,,,,,,,,,,,,,,,,,,,,,,,,,,,,,,,,,,,,,,,,,,,,,,,,,,,,,,,,,,,,,,,,,,,,,,,,,,,,,,,,,,,,,,,,,,,,,,
,,,,,,61641a12f14a6f1b08edd5bf,62c538c607160c13dfb487b6,2022-07-06_09h25.28.139,Colour_Asymmetry_Pilot,2022.1.3,Win32,59.24170616,62c50e9c1127f2cd403a315f,0,159,159,139,1,twofour,,,,,,,,,,,,,,,,,,,,,,,,,,,,,,,,,,,,,,,,,,,,,,,,,,,,,,,,,,,,,,,,,,,,,,,,,,,,,,,,,,,,,,,,,,,,,,,,,,,,,,,,,,,,,,,,,,,,,,,,,,,,,,,,,,,,,,,,,,,,,,,,,,,,,,,,,,,,,
,,,,,,61641a12f14a6f1b08edd5bf,62c538c607160c13dfb487b6,2022-07-06_09h25.28.139,Colour_Asymmetry_Pilot,2022.1.3,Win32,59.24170616,62c50e9c1127f2cd403a315f,0,160,160,6,1,fourtwo,,,,,,,,,,,,,,,,,,,,,,,,,,,,,,,,,,,,,,,,,,,,,,,,,,,,,,,,,,,,,,,,,,,,,,,,,,,,,,,,,,,,,,,,,,,,,,,,,,,,,,,,,,,,,,,,,,,,,,,,,,,,,,,,,,,,,,,,,,,,,,,,,,,,,,,,,,,,,
,,,,,,61641a12f14a6f1b08edd5bf,62c538c607160c13dfb487b6,2022-07-06_09h25.28.139,Colour_Asymmetry_Pilot,2022.1.3,Win32,59.24170616,62c50e9c1127f2cd403a315f,0,161,161,121,1,onethree,,,,,,,,,,,,,,,,,,,,,,,,,,,,,,,,,,,,,,,,,,,,,,,,,,,,,,,,,,,,,,,,,,,,,,,,,,,,,,,,,,,,,,,,,,,,,,,,,,,,,,,,,,,,,,,,,,,,,,,,,,,,,,,,,,,,,,,,,,,,,,,,,,,,,,,,,,,,,
,,,,,,61641a12f14a6f1b08edd5bf,62c538c607160c13dfb487b6,2022-07-06_09h25.28.139,Colour_Asymmetry_Pilot,2022.1.3,Win32,59.24170616,62c50e9c1127f2cd403a315f,,,,,,,space,12.0406,space,22.0214,space,47.7589,space,17.5837,space,10.8296,space,9.1431,"[0.796,0.2156,-0.27859999999999996]",threefour,"[0.22340000000000004,-0.9296,-0.7884]",4,19.2021,40,87,1,0,0,response1disk_5,-11,7,1,0,0,rectangle_8,-11,7,1,0,0,2,-11,7,1,0,0,0,0,0,0,1,,,,,,,,,,,,,,,,,,,,,,,,,,,,,,,,,,,,,,,,,,,,,,,,,,,,,,,,,,,,,,,,,,,,,,,,,,,,,,,,,,,,,,,,,,,,,,,,,,,,,,,,,,,,,,,,
,,,,,,61641a12f14a6f1b08edd5bf,62c538c607160c13dfb487b6,2022-07-06_09h25.28.139,Colour_Asymmetry_Pilot,2022.1.3,Win32,59.24170616,62c50e9c1127f2cd403a315f,,,,,,,,,,,,,,,,,,,"[-0.5688,-0.08239999999999992,-0.1844]",twoone,"[-0.9296,-0.12959999999999994,-0.043199999999999905]",4,3.3284,43,91,1,0,0,response1disk_5,6,-3,1,0,0,rectangle_8,85,-36,1,0,0,2,-15,4,1,0,0,1,0,1,0,1,response3disk_7,5,rectangle_4,,,,,,,,,,,,,,,,,,,,,,,,,,,,,,,,,,,,,,,,,,,,,,,,,,,,,,,,,,,,,,,,,,,,,,,,,,,,,,,,,,,,,,,,,,,,,,,,,,,,,,,,,,,,,
,,,,,,61641a12f14a6f1b08edd5bf,62c538c607160c13dfb487b6,2022-07-06_09h25.28.139,Colour_Asymmetry_Pilot,2022.1.3,Win32,59.24170616,62c50e9c1127f2cd403a315f,,,,,,,,,,,,,,,,,,,"[0.30180000000000007,-0.7884,-0.9844]",fourthree,"[-0.9138,-0.5296000000000001,-0.5529999999999999]",-4,3.4123,-41,97,1,0,0,response7disk_5,-1,1,1,0,0,rectangle_8,87,-35,1,0,0,2,5,2,1,0,0,2,0,2,0,1,response3disk_7,5,rectangle_4,,,,,,,,,,,,,,,,,,,,,,,,,,,,,,,,,,,,,,,,,,,,,,,,,,,,,,,,,,,,,,,,,,,,,,,,,,,,,,,,,,,,,,,,,,,,,,,,,,,,,,,,,,,,,
,,,,,,61641a12f14a6f1b08edd5bf,62c538c607160c13dfb487b6,2022-07-06_09h25.28.139,Colour_Asymmetry_Pilot,2022.1.3,Win32,59.24170616,62c50e9c1127f2cd403a315f,,,,,,,,,,,,,,,,,,,"[0.40379999999999994,0.09000000000000008,0.44300000000000006]",onethree,"[-0.24719999999999998,-0.0354000000000001,0.3175999999999999]",-4,4.1142,-41,98,1,0,0,response7disk_5,2,5,1,0,0,rectangle_8,2,5,1,0,0,2,2,5,1,0,0,3,0,3,0,1,,,,,,,,,,,,,,,,,,,,,,,,,,,,,,,,,,,,,,,,,,,,,,,,,,,,,,,,,,,,,,,,,,,,,,,,,,,,,,,,,,,,,,,,,,,,,,,,,,,,,,,,,,,,,,,,
,,,,,,61641a12f14a6f1b08edd5bf,62c538c607160c13dfb487b6,2022-07-06_09h25.28.139,Colour_Asymmetry_Pilot,2022.1.3,Win32,59.24170616,62c50e9c1127f2cd403a315f,,,,,,,,,,,,,,,,,,,"[-0.0040000000000000036,0.02739999999999987,-0.08239999999999992]",onethree,"[0.2862,0.7802,0.3568]",-4,7.8778,-43,99,1,0,0,response7disk_5,3,-4,1,0,0,rectangle_8,3,-4,1,0,0,2,3,-4,1,0,0,4,0,4,0,1,,,,,,,,,,,,,,,,,,,,,,,,,,,,,,,,,,,,,,,,,,,,,,,,,,,,,,,,,,,,,,,,,,,,,,,,,,,,,,,,,,,,,,,,,,,,,,,,,,,,,,,,,,,,,,,,
,,,,,,61641a12f14a6f1b08edd5bf,62c538c607160c13dfb487b6,2022-07-06_09h25.28.139,Colour_Asymmetry_Pilot,2022.1.3,Win32,59.24170616,62c50e9c1127f2cd403a315f,,,,,,,,,,,,,,,,,,,"[-0.9688,-0.38039999999999996,-0.41979999999999995]",fourtwo,"[-0.09019999999999995,0.44300000000000006,0.5371999999999999]",-4,2.3079,-47,104,1,0,0,response7disk_5,6,-2,1,0,0,rectangle_8,6,-2,1,0,0,2,6,-2,1,0,0,5,0,5,0,1,,,,,,,,,,,,,,,,,,,,,,,,,,,,,,,,,,,,,,,,,,,,,,,,,,,,,,,,,,,,,,,,,,,,,,,,,,,,,,,,,,,,,,,,,,,,,,,,,,,,,,,,,,,,,,,,
,,,,,,61641a12f14a6f1b08edd5bf,62c538c607160c13dfb487b6,2022-07-06_09h25.28.139,Colour_Asymmetry_Pilot,2022.1.3,Win32,59.24170616,62c50e9c1127f2cd403a315f,,,,,,,,,,,,,,,,,,,"[0.9686000000000001,0.3802000000000001,0.19999999999999996]",onetwo,"[0.796,0.2156,-0.27859999999999996]",4,1.9235,37,92,1,0,0,response1disk_5,2,-1,1,0,0,rectangle_8,2,-1,1,0,0,2,2,-1,1,0,0,6,0,6,0,1,,,,,,,,,,,,,,,,,,,,,,,,,,,,,,,,,,,,,,,,,,,,,,,,,,,,,,,,,,,,,,,,,,,,,,,,,,,,,,,,,,,,,,,,,,,,,,,,,,,,,,,,,,,,,,,,
,,,,,,61641a12f14a6f1b08edd5bf,62c538c607160c13dfb487b6,2022-07-06_09h25.28.139,Colour_Asymmetry_Pilot,2022.1.3,Win32,59.24170616,62c50e9c1127f2cd403a315f,,,,,,,,,,,,,,,,,,,,twofour,,-4,1.2558,,,,,,,,,,,,,,,,,,,,,,,,,,,,,,,,space,9.5247,"[-0.10599999999999998,-0.10599999999999998,0.5841999999999998]","[-0.4276,0.0038000000000000256,-0.3256]",-36,98,1,0,0,response7disk,-7,3,1,0,0,rectangle,99,36,1,0,0,response1disk_3,3,3,9.002,1,15,4,1,0,0,rectangle,0,0,0,36,1,36,first,,,,,,,,,,,,,,,,,,,,,,,,,,,,,,,,,,,,,,,,,,,,,,,,,,,,,,,,,,,,,,,,,,,,,,
,,,,,,61641a12f14a6f1b08edd5bf,62c538c607160c13dfb487b6,2022-07-06_09h25.28.139,Colour_Asymmetry_Pilot,2022.1.3,Win32,59.24170616,62c50e9c1127f2cd403a315f,,,,,,,,,,,,,,,,,,,,onetwo,,4,1.8611,,,,,,,,,,,,,,,,,,,,,,,,,,,,,,,,,,"[-0.6235999999999999,-0.6786,-0.08239999999999992]","[-0.5452,-0.608,0.2470000000000001]",36,99,1,0,0,response1disk,-1,-10,1,0,0,rectangle,-1,-10,1,0,0,,3,2,0.0012,0,-1,-10,1,0,0,,0,1,1,132,1,51,second,,,,,,,,,,,,,,,,,,,,,,,,,,,,,,,,,,,,,,,,,,,,,,,,,,,,,,,,,,,,,,,,,,,,,,
,,,,,,61641a12f14a6f1b08edd5bf,62c538c607160c13dfb487b6,2022-07-06_09h25.28.139,Colour_Asymmetry_Pilot,2022.1.3,Win32,59.24170616,62c50e9c1127f2cd403a315f,,,,,,,,,,,,,,,,,,,,onetwo,,-4,5.4559,,,,,,,,,,,,,,,,,,,,,,,,,,,,,,,,,,"[0.7018,0.7802,-0.16079999999999994]","[-0.6706000000000001,-0.6157999999999999,-0.6786]",-44,94,1,0,0,response7disk,15,0,1,0,0,rectangle,15,0,1,0,0,,3,3,0.0012,0,15,0,1,0,0,,0,2,2,17,1,17,first,,,,,,,,,,,,,,,,,,,,,,,,,,,,,,,,,,,,,,,,,,,,,,,,,,,,,,,,,,,,,,,,,,,,,,
,,,,,,61641a12f14a6f1b08edd5bf,62c538c607160c13dfb487b6,2022-07-06_09h25.28.139,Colour_Asymmetry_Pilot,2022.1.3,Win32,59.24170616,62c50e9c1127f2cd403a315f,,,,,,,,,,,,,,,,,,,,twofour,,-4,2.2705,,,,,,,,,,,,,,,,,,,,,,,,,,,,,,,,,,"[0.8115999999999999,-0.0040000000000000036,-0.09819999999999995]","[-0.7412000000000001,-0.08239999999999992,-0.6864]",-42,103,1,0,0,response7disk,4,-1,1,0,0,rectangle,4,-1,1,0,0,,3,3,0.0005,0,4,-1,1,0,0,,0,3,3,83,1,2,second,,,,,,,,,,,,,,,,,,,,,,,,,,,,,,,,,,,,,,,,,,,,,,,,,,,,,,,,,,,,,,,,,,,,,,
,,,,,,61641a12f14a6f1b08edd5bf,62c538c607160c13dfb487b6,2022-07-06_09h25.28.139,Colour_Asymmetry_Pilot,2022.1.3,Win32,59.24170616,62c50e9c1127f2cd403a315f,,,,,,,,,,,,,,,,,,,,twofour,,-4,0.9705,,,,,,,,,,,,,,,,,,,,,,,,,,,,,,,,,,"[0.30180000000000007,-0.7884,-0.9844]","[0.9686000000000001,0.5763999999999998,0.11359999999999992]",-37,99,1,0,0,response7disk,-6,-5,1,0,0,rectangle,-6,-5,1,0,0,,3,2,0.0011,0,-6,-5,1,0,0,,0,4,4,121,1,40,second,,,,,,,,,,,,,,,,,,,,,,,,,,,,,,,,,,,,,,,,,,,,,,,,,,,,,,,,,,,,,,,,,,,,,,
,,,,,,61641a12f14a6f1b08edd5bf,62c538c607160c13dfb487b6,2022-07-06_09h25.28.139,Colour_Asymmetry_Pilot,2022.1.3,Win32,59.24170616,62c50e9c1127f2cd403a315f,,,,,,,,,,,,,,,,,,,,threeone,,-4,1.159,,,,,,,,,,,,,,,,,,,,,,,,,,,,,,,,,,"[0.9372,0.20779999999999998,0.2704]","[-0.4982,-0.2942,-0.0354000000000001]",-42,95,1,0,0,response7disk,-3,-2,1,0,0,rectangle,-3,-2,1,0,0,,3,2,0.0002,0,-3,-2,1,0,0,,0,5,5,26,1,26,first,,,,,,,,,,,,,,,,,,,,,,,,,,,,,,,,,,,,,,,,,,,,,,,,,,,,,,,,,,,,,,,,,,,,,,
,,,,,,61641a12f14a6f1b08edd5bf,62c538c607160c13dfb487b6,2022-07-06_09h25.28.139,Colour_Asymmetry_Pilot,2022.1.3,Win32,59.24170616,62c50e9c1127f2cd403a315f,,,,,,,,,,,,,,,,,,,,onetwo,,4,1.6598,,,,,,,,,,,,,,,,,,,,,,,,,,,,,,,,,,"[-0.5452,-0.608,0.2470000000000001]","[-0.6235999999999999,-0.6786,-0.08239999999999992]",46,104,1,0,0,response1disk,-8,8,1,0,0,rectangle,-8,8,1,0,0,,3,3,0.0011,0,-8,8,1,0,0,,0,6,6,51,1,51,first,,,,,,,,,,,,,,,,,,,,,,,,,,,,,,,,,,,,,,,,,,,,,,,,,,,,,,,,,,,,,,,,,,,,,,
,,,,,,61641a12f14a6f1b08edd5bf,62c538c607160c13dfb487b6,2022-07-06_09h25.28.139,Colour_Asymmetry_Pilot,2022.1.3,Win32,59.24170616,62c50e9c1127f2cd403a315f,,,,,,,,,,,,,,,,,,,,twoone,,4,7.2265,,,,,,,,,,,,,,,,,,,,,,,,,,,,,,,,,,"[-0.10599999999999998,-0.15300000000000002,0.15280000000000005]","[-0.8982,-0.37259999999999993,0.2784]",36,102,1,0,0,response1disk,-3,-5,1,0,0,rectangle,-3,-5,1,0,0,,3,2,0.0014,0,-3,-5,1,0,0,,0,7,7,15,1,15,first,,,,,,,,,,,,,,,,,,,,,,,,,,,,,,,,,,,,,,,,,,,,,,,,,,,,,,,,,,,,,,,,,,,,,,
,,,,,,61641a12f14a6f1b08edd5bf,62c538c607160c13dfb487b6,2022-07-06_09h25.28.139,Colour_Asymmetry_Pilot,2022.1.3,Win32,59.24170616,62c50e9c1127f2cd403a315f,,,,,,,,,,,,,,,,,,,,twofour,,-4,1.5602,,,,,,,,,,,,,,,,,,,,,,,,,,,,,,,,,,"[0.9763999999999999,0.30979999999999985,-0.6786]","[0.7646000000000002,0.07440000000000002,0.2704]",-43,104,1,0,0,response7disk,3,2,1,0,0,rectangle,3,2,1,0,0,,3,1,0.0011,0,3,2,1,0,0,,0,8,8,85,1,4,second,,,,,,,,,,,,,,,,,,,,,,,,,,,,,,,,,,,,,,,,,,,,,,,,,,,,,,,,,,,,,,,,,,,,,,
,,,,,,61641a12f14a6f1b08edd5bf,62c538c607160c13dfb487b6,2022-07-06_09h25.28.139,Colour_Asymmetry_Pilot,2022.1.3,Win32,59.24170616,62c50e9c1127f2cd403a315f,,,,,,,,,,,,,,,,,,,,twofour,,-4,2.6598,,,,,,,,,,,,,,,,,,,,,,,,,,,,,,,,,,"[-0.0040000000000000036,0.02739999999999987,-0.08239999999999992]","[-0.38039999999999996,-0.4276,-0.1452]",-43,105,1,0,0,response7disk,-5,2,1,0,0,rectangle,-5,2,1,0,0,,3,2,0.001,0,-5,2,1,0,0,,0,9,9,68,1,68,first,,,,,,,,,,,,,,,,,,,,,,,,,,,,,,,,,,,,,,,,,,,,,,,,,,,,,,,,,,,,,,,,,,,,,,
,,,,,,61641a12f14a6f1b08edd5bf,62c538c607160c13dfb487b6,2022-07-06_09h25.28.139,Colour_Asymmetry_Pilot,2022.1.3,Win32,59.24170616,62c50e9c1127f2cd403a315f,,,,,,,,,,,,,,,,,,,,onetwo,,-4,1.3762,,,,,,,,,,,,,,,,,,,,,,,,,,,,,,,,,,"[-0.6,0.16860000000000008,0.44300000000000006]","[-0.9688,-0.38039999999999996,-0.41979999999999995]",-40,103,1,0,0,response7disk,4,0,1,0,0,rectangle,4,0,1,0,0,,3,2,0.0001,0,4,0,1,0,0,,0,10,10,144,1,63,second,,,,,,,,,,,,,,,,,,,,,,,,,,,,,,,,,,,,,,,,,,,,,,,,,,,,,,,,,,,,,,,,,,,,,,
,,,,,,61641a12f14a6f1b08edd5bf,62c538c607160c13dfb487b6,2022-07-06_09h25.28.139,Colour_Asymmetry_Pilot,2022.1.3,Win32,59.24170616,62c50e9c1127f2cd403a315f,,,,,,,,,,,,,,,,,,,,twoone,,-4,1.0739,,,,,,,,,,,,,,,,,,,,,,,,,,,,,,,,,,"[-0.9688,-0.38039999999999996,-0.41979999999999995]","[-0.26280000000000003,-0.4746,-0.2158]",-45,100,1,0,0,response7disk,11,-2,1,0,0,rectangle,11,-2,1,0,0,,3,3,0.001,0,11,-2,1,0,0,,0,11,11,139,1,58,second,,,,,,,,,,,,,,,,,,,,,,,,,,,,,,,,,,,,,,,,,,,,,,,,,,,,,,,,,,,,,,,,,,,,,,
,,,,,,61641a12f14a6f1b08edd5bf,62c538c607160c13dfb487b6,2022-07-06_09h25.28.139,Colour_Asymmetry_Pilot,2022.1.3,Win32,59.24170616,62c50e9c1127f2cd403a315f,,,,,,,,,,,,,,,,,,,,fourthree,,-4,1.8909,,,,,,,,,,,,,,,,,,,,,,,,,,,,,,,,,,"[1,0.12939999999999996,-1]","[0.9213999999999998,0.6391999999999998,-0.9922]",-39,104,1,0,0,response7disk,4,-4,1,0,0,rectangle,4,-4,1,0,0,,3,3,0.0002,0,4,-4,1,0,0,,0,12,12,12,1,12,first,,,,,,,,,,,,,,,,,,,,,,,,,,,,,,,,,,,,,,,,,,,,,,,,,,,,,,,,,,,,,,,,,,,,,,
,,,,,,61641a12f14a6f1b08edd5bf,62c538c607160c13dfb487b6,2022-07-06_09h25.28.139,Colour_Asymmetry_Pilot,2022.1.3,Win32,59.24170616,62c50e9c1127f2cd403a315f,,,,,,,,,,,,,,,,,,,,fourthree,,-4,0.547,,,,,,,,,,,,,,,,,,,,,,,,,,,,,,,,,,"[-0.4982,-0.2942,-0.0354000000000001]","[0.6625999999999999,0.4980000000000002,-0.357]",-61,89,1,0,0,response7disk,12,3,1,0,0,rectangle,12,3,1,0,0,,3,2,0.0009,0,12,3,1,0,0,,0,13,13,153,1,72,second,,,,,,,,,,,,,,,,,,,,,,,,,,,,,,,,,,,,,,,,,,,,,,,,,,,,,,,,,,,,,,,,,,,,,,
,,,,,,61641a12f14a6f1b08edd5bf,62c538c607160c13dfb487b6,2022-07-06_09h25.28.139,Colour_Asymmetry_Pilot,2022.1.3,Win32,59.24170616,62c50e9c1127f2cd403a315f,,,,,,,,,,,,,,,,,,,,fourtwo,,-4,0.6819,,,,,,,,,,,,,,,,,,,,,,,,,,,,,,,,,,"[-0.8198,-0.5138,-0.7492000000000001]","[-0.050999999999999934,-0.6706000000000001,-0.804]",-50,94,1,0,0,response7disk,2,5,1,0,0,rectangle,2,5,1,0,0,,3,2,0.0002,0,2,5,1,0,0,,0,14,14,145,1,64,second,,,,,,,,,,,,,,,,,,,,,,,,,,,,,,,,,,,,,,,,,,,,,,,,,,,,,,,,,,,,,,,,,,,,,,
,,,,,,61641a12f14a6f1b08edd5bf,62c538c607160c13dfb487b6,2022-07-06_09h25.28.139,Colour_Asymmetry_Pilot,2022.1.3,Win32,59.24170616,62c50e9c1127f2cd403a315f,,,,,,,,,,,,,,,,,,,,fourtwo,,-4,1.4887,,,,,,,,,,,,,,,,,,,,,,,,,,,,,,,,,,"[0.9213999999999998,0.6391999999999998,-0.9922]","[1,0.12939999999999996,-1]",-42,103,1,0,0,response7disk,14,-5,1,0,0,rectangle,14,-5,1,0,0,,3,3,0.0013,0,14,-5,1,0,0,,0,15,15,93,1,12,second,,,,,,,,,,,,,,,,,,,,,,,,,,,,,,,,,,,,,,,,,,,,,,,,,,,,,,,,,,,,,,,,,,,,,,
,,,,,,61641a12f14a6f1b08edd5bf,62c538c607160c13dfb487b6,2022-07-06_09h25.28.139,Colour_Asymmetry_Pilot,2022.1.3,Win32,59.24170616,62c50e9c1127f2cd403a315f,,,,,,,,,,,,,,,,,,,,fourthree,,-4,0.891,,,,,,,,,,,,,,,,,,,,,,,,,,,,,,,,,,"[0.09799999999999986,-0.24719999999999998,0.15280000000000005]","[0.22340000000000004,-0.9296,-0.7884]",-38,96,1,0,0,response7disk,9,-5,1,0,0,rectangle,9,-5,1,0,0,,3,1,0.0013,0,9,-5,1,0,0,,0,16,16,21,1,21,first,,,,,,,,,,,,,,,,,,,,,,,,,,,,,,,,,,,,,,,,,,,,,,,,,,,,,,,,,,,,,,,,,,,,,,
,,,,,,61641a12f14a6f1b08edd5bf,62c538c607160c13dfb487b6,2022-07-06_09h25.28.139,Colour_Asymmetry_Pilot,2022.1.3,Win32,59.24170616,62c50e9c1127f2cd403a315f,,,,,,,,,,,,,,,,,,,,onethree,,-4,1.3842,,,,,,,,,,,,,,,,,,,,,,,,,,,,,,,,,,"[-0.6942,-0.7648,-0.12959999999999994]","[-0.01980000000000004,-0.5138,-0.38039999999999996]",-42,95,1,0,0,response7disk,0,0,1,0,0,rectangle,0,0,1,0,0,,3,1,1E-04,0,0,0,1,0,0,,0,17,17,5,1,5,first,,,,,,,,,,,,,,,,,,,,,,,,,,,,,,,,,,,,,,,,,,,,,,,,,,,,,,,,,,,,,,,,,,,,,,
