trials.thisRepN,trials.thisTrialN,trials.thisN,trials.thisIndex,trials.ran,Colourcodes,participant,session,date,expName,psychopyVersion,OS,frameRate,study_id,trials_4.thisRepN,trials_4.thisTrialN,trials_4.thisN,trials_4.thisIndex,trials_4.ran,StimulusPos,key_resp.keys,key_resp.rt,key_resp_2.keys,key_resp_2.rt,key_resp_15.keys,key_resp_15.rt,key_resp_17.keys,key_resp_17.rt,key_resp_9.keys,key_resp_9.rt,key_resp_10.keys,key_resp_10.rt,Circle1_col,Ecc,Circle2_col,similarity,response_time,mouse_5.x,mouse_5.y,mouse_5.leftButton,mouse_5.midButton,mouse_5.rightButton,mouse_5.clicked_name,mouse_10.x,mouse_10.y,mouse_10.leftButton,mouse_10.midButton,mouse_10.rightButton,mouse_10.clicked_name,mouse_7.x,mouse_7.y,mouse_7.leftButton,mouse_7.midButton,mouse_7.rightButton,catchnumberprac,mouse_6.x,mouse_6.y,mouse_6.leftButton,mouse_6.midButton,mouse_6.rightButton,duringprac.thisRepN,duringprac.thisTrialN,duringprac.thisN,duringprac.thisIndex,duringprac.ran,mouse_7.clicked_name,catchprac,mouse_6.clicked_name,key_resp_22.keys,key_resp_22.rt,Circle1_colour,Circle2_colour,mouse.x,mouse.y,mouse.leftButton,mouse.midButton,mouse.rightButton,mouse.clicked_name,mouse_2.x,mouse_2.y,mouse_2.leftButton,mouse_2.midButton,mouse_2.rightButton,mouse_2.clicked_name,mouse_3.x,mouse_3.y,mouse_3.leftButton,mouse_3.midButton,mouse_3.rightButton,catchresponse,catchnumber,response_time_catch,Catch,mouse_11.x,mouse_11.y,mouse_11.leftButton,mouse_11.midButton,mouse_11.rightButton,trials_2.thisRepN,trials_2.thisTrialN,trials_2.thisN,trials_2.thisIndex,trials_2.ran,Colourpair,Temporder,mouse_3.clicked_name,mouse_11.clicked_name,trials_3.thisRepN,trials_3.thisTrialN,trials_3.thisN,trials_3.thisIndex,trials_3.ran,key_resp_instr_Ishi.keys,key_resp_instr_Ishi.rt,Ishi_trial_keyresp.keys,Ishi_textbox.text,Ishi_mouse.x,Ishi_mouse.y,Ishi_mouse.leftButton,Ishi_mouse.midButton,Ishi_mouse.rightButton,Ishi_mouse.clicked_name,Ishi_loop.thisRepN,Ishi_loop.thisTrialN,Ishi_loop.thisN,Ishi_loop.thisIndex,Ishi_loop.ran,imageaddress,textbox.text,mouse_4.x,mouse_4.y,mouse_4.leftButton,mouse_4.midButton,mouse_4.rightButton,mouse_4.clicked_name,textbox_2.text,mouse_8.x,mouse_8.y,mouse_8.leftButton,mouse_8.midButton,mouse_8.rightButton,mouse_8.clicked_name,textbox_3.text,mouse_9.x,mouse_9.y,mouse_9.leftButton,mouse_9.midButton,mouse_9.rightButton,mouse_9.clicked_name,textbox_4.text,mouse_12.x,mouse_12.y,mouse_12.leftButton,mouse_12.midButton,mouse_12.rightButton,mouse_12.clicked_name,textbox_5.text,mouse_13.x,mouse_13.y,mouse_13.leftButton,mouse_13.midButton,mouse_13.rightButton,mouse_13.clicked_name,textbox_6.text,mouse_14.x,mouse_14.y,mouse_14.leftButton,mouse_14.midButton,mouse_14.rightButton,mouse_14.clicked_name,textbox_7.text,mouse_15.x,mouse_15.y,mouse_15.leftButton,mouse_15.midButton,mouse_15.rightButton,mouse_15.clicked_name
0,0,0,47,1,,603e51684835eaca90562e76,62c53a7d710891b46175a7d9,2022-07-06_09h43.02.054,Colour_Asymmetry_Pilot,2022.1.3,Win32,61.17704637,62c50e9c1127f2cd403a315f,,,,,,,,,,,,,,,,,,,,,,,,,,,,,,,,,,,,,,,,,,,,,,,,,,,,,,,,,,,,,,,,,,,,,,,,,,,,,,,,,,,,,,,,,,,,,,,,,,,,,,,,,,,,,,,,,,,,,,,,,,,,,,,,,,,,,,,,,,,,,,,,,,,,,,,,,,,,,,,,,,,
0,1,1,12,1,,603e51684835eaca90562e76,62c53a7d710891b46175a7d9,2022-07-06_09h43.02.054,Colour_Asymmetry_Pilot,2022.1.3,Win32,61.17704637,62c50e9c1127f2cd403a315f,,,,,,,,,,,,,,,,,,,,,,,,,,,,,,,,,,,,,,,,,,,,,,,,,,,,,,,,,,,,,,,,,,,,,,,,,,,,,,,,,,,,,,,,,,,,,,,,,,,,,,,,,,,,,,,,,,,,,,,,,,,,,,,,,,,,,,,,,,,,,,,,,,,,,,,,,,,,,,,,,,,
0,2,2,91,1,,603e51684835eaca90562e76,62c53a7d710891b46175a7d9,2022-07-06_09h43.02.054,Colour_Asymmetry_Pilot,2022.1.3,Win32,61.17704637,62c50e9c1127f2cd403a315f,,,,,,,,,,,,,,,,,,,,,,,,,,,,,,,,,,,,,,,,,,,,,,,,,,,,,,,,,,,,,,,,,,,,,,,,,,,,,,,,,,,,,,,,,,,,,,,,,,,,,,,,,,,,,,,,,,,,,,,,,,,,,,,,,,,,,,,,,,,,,,,,,,,,,,,,,,,,,,,,,,,
0,3,3,35,1,,603e51684835eaca90562e76,62c53a7d710891b46175a7d9,2022-07-06_09h43.02.054,Colour_Asymmetry_Pilot,2022.1.3,Win32,61.17704637,62c50e9c1127f2cd403a315f,,,,,,,,,,,,,,,,,,,,,,,,,,,,,,,,,,,,,,,,,,,,,,,,,,,,,,,,,,,,,,,,,,,,,,,,,,,,,,,,,,,,,,,,,,,,,,,,,,,,,,,,,,,,,,,,,,,,,,,,,,,,,,,,,,,,,,,,,,,,,,,,,,,,,,,,,,,,,,,,,,,
0,4,4,7,1,,603e51684835eaca90562e76,62c53a7d710891b46175a7d9,2022-07-06_09h43.02.054,Colour_Asymmetry_Pilot,2022.1.3,Win32,61.17704637,62c50e9c1127f2cd403a315f,,,,,,,,,,,,,,,,,,,,,,,,,,,,,,,,,,,,,,,,,,,,,,,,,,,,,,,,,,,,,,,,,,,,,,,,,,,,,,,,,,,,,,,,,,,,,,,,,,,,,,,,,,,,,,,,,,,,,,,,,,,,,,,,,,,,,,,,,,,,,,,,,,,,,,,,,,,,,,,,,,,
0,5,5,14,1,,603e51684835eaca90562e76,62c53a7d710891b46175a7d9,2022-07-06_09h43.02.054,Colour_Asymmetry_Pilot,2022.1.3,Win32,61.17704637,62c50e9c1127f2cd403a315f,,,,,,,,,,,,,,,,,,,,,,,,,,,,,,,,,,,,,,,,,,,,,,,,,,,,,,,,,,,,,,,,,,,,,,,,,,,,,,,,,,,,,,,,,,,,,,,,,,,,,,,,,,,,,,,,,,,,,,,,,,,,,,,,,,,,,,,,,,,,,,,,,,,,,,,,,,,,,,,,,,,
0,6,6,80,1,,603e51684835eaca90562e76,62c53a7d710891b46175a7d9,2022-07-06_09h43.02.054,Colour_Asymmetry_Pilot,2022.1.3,Win32,61.17704637,62c50e9c1127f2cd403a315f,,,,,,,,,,,,,,,,,,,,,,,,,,,,,,,,,,,,,,,,,,,,,,,,,,,,,,,,,,,,,,,,,,,,,,,,,,,,,,,,,,,,,,,,,,,,,,,,,,,,,,,,,,,,,,,,,,,,,,,,,,,,,,,,,,,,,,,,,,,,,,,,,,,,,,,,,,,,,,,,,,,
0,7,7,88,1,,603e51684835eaca90562e76,62c53a7d710891b46175a7d9,2022-07-06_09h43.02.054,Colour_Asymmetry_Pilot,2022.1.3,Win32,61.17704637,62c50e9c1127f2cd403a315f,,,,,,,,,,,,,,,,,,,,,,,,,,,,,,,,,,,,,,,,,,,,,,,,,,,,,,,,,,,,,,,,,,,,,,,,,,,,,,,,,,,,,,,,,,,,,,,,,,,,,,,,,,,,,,,,,,,,,,,,,,,,,,,,,,,,,,,,,,,,,,,,,,,,,,,,,,,,,,,,,,,
0,8,8,31,1,,603e51684835eaca90562e76,62c53a7d710891b46175a7d9,2022-07-06_09h43.02.054,Colour_Asymmetry_Pilot,2022.1.3,Win32,61.17704637,62c50e9c1127f2cd403a315f,,,,,,,,,,,,,,,,,,,,,,,,,,,,,,,,,,,,,,,,,,,,,,,,,,,,,,,,,,,,,,,,,,,,,,,,,,,,,,,,,,,,,,,,,,,,,,,,,,,,,,,,,,,,,,,,,,,,,,,,,,,,,,,,,,,,,,,,,,,,,,,,,,,,,,,,,,,,,,,,,,,
0,9,9,22,1,,603e51684835eaca90562e76,62c53a7d710891b46175a7d9,2022-07-06_09h43.02.054,Colour_Asymmetry_Pilot,2022.1.3,Win32,61.17704637,62c50e9c1127f2cd403a315f,,,,,,,,,,,,,,,,,,,,,,,,,,,,,,,,,,,,,,,,,,,,,,,,,,,,,,,,,,,,,,,,,,,,,,,,,,,,,,,,,,,,,,,,,,,,,,,,,,,,,,,,,,,,,,,,,,,,,,,,,,,,,,,,,,,,,,,,,,,,,,,,,,,,,,,,,,,,,,,,,,,
0,10,10,61,1,,603e51684835eaca90562e76,62c53a7d710891b46175a7d9,2022-07-06_09h43.02.054,Colour_Asymmetry_Pilot,2022.1.3,Win32,61.17704637,62c50e9c1127f2cd403a315f,,,,,,,,,,,,,,,,,,,,,,,,,,,,,,,,,,,,,,,,,,,,,,,,,,,,,,,,,,,,,,,,,,,,,,,,,,,,,,,,,,,,,,,,,,,,,,,,,,,,,,,,,,,,,,,,,,,,,,,,,,,,,,,,,,,,,,,,,,,,,,,,,,,,,,,,,,,,,,,,,,,
0,11,11,55,1,,603e51684835eaca90562e76,62c53a7d710891b46175a7d9,2022-07-06_09h43.02.054,Colour_Asymmetry_Pilot,2022.1.3,Win32,61.17704637,62c50e9c1127f2cd403a315f,,,,,,,,,,,,,,,,,,,,,,,,,,,,,,,,,,,,,,,,,,,,,,,,,,,,,,,,,,,,,,,,,,,,,,,,,,,,,,,,,,,,,,,,,,,,,,,,,,,,,,,,,,,,,,,,,,,,,,,,,,,,,,,,,,,,,,,,,,,,,,,,,,,,,,,,,,,,,,,,,,,
0,12,12,10,1,,603e51684835eaca90562e76,62c53a7d710891b46175a7d9,2022-07-06_09h43.02.054,Colour_Asymmetry_Pilot,2022.1.3,Win32,61.17704637,62c50e9c1127f2cd403a315f,,,,,,,,,,,,,,,,,,,,,,,,,,,,,,,,,,,,,,,,,,,,,,,,,,,,,,,,,,,,,,,,,,,,,,,,,,,,,,,,,,,,,,,,,,,,,,,,,,,,,,,,,,,,,,,,,,,,,,,,,,,,,,,,,,,,,,,,,,,,,,,,,,,,,,,,,,,,,,,,,,,
0,13,13,28,1,,603e51684835eaca90562e76,62c53a7d710891b46175a7d9,2022-07-06_09h43.02.054,Colour_Asymmetry_Pilot,2022.1.3,Win32,61.17704637,62c50e9c1127f2cd403a315f,,,,,,,,,,,,,,,,,,,,,,,,,,,,,,,,,,,,,,,,,,,,,,,,,,,,,,,,,,,,,,,,,,,,,,,,,,,,,,,,,,,,,,,,,,,,,,,,,,,,,,,,,,,,,,,,,,,,,,,,,,,,,,,,,,,,,,,,,,,,,,,,,,,,,,,,,,,,,,,,,,,
0,14,14,45,1,,603e51684835eaca90562e76,62c53a7d710891b46175a7d9,2022-07-06_09h43.02.054,Colour_Asymmetry_Pilot,2022.1.3,Win32,61.17704637,62c50e9c1127f2cd403a315f,,,,,,,,,,,,,,,,,,,,,,,,,,,,,,,,,,,,,,,,,,,,,,,,,,,,,,,,,,,,,,,,,,,,,,,,,,,,,,,,,,,,,,,,,,,,,,,,,,,,,,,,,,,,,,,,,,,,,,,,,,,,,,,,,,,,,,,,,,,,,,,,,,,,,,,,,,,,,,,,,,,
0,15,15,77,1,,603e51684835eaca90562e76,62c53a7d710891b46175a7d9,2022-07-06_09h43.02.054,Colour_Asymmetry_Pilot,2022.1.3,Win32,61.17704637,62c50e9c1127f2cd403a315f,,,,,,,,,,,,,,,,,,,,,,,,,,,,,,,,,,,,,,,,,,,,,,,,,,,,,,,,,,,,,,,,,,,,,,,,,,,,,,,,,,,,,,,,,,,,,,,,,,,,,,,,,,,,,,,,,,,,,,,,,,,,,,,,,,,,,,,,,,,,,,,,,,,,,,,,,,,,,,,,,,,
0,16,16,72,1,,603e51684835eaca90562e76,62c53a7d710891b46175a7d9,2022-07-06_09h43.02.054,Colour_Asymmetry_Pilot,2022.1.3,Win32,61.17704637,62c50e9c1127f2cd403a315f,,,,,,,,,,,,,,,,,,,,,,,,,,,,,,,,,,,,,,,,,,,,,,,,,,,,,,,,,,,,,,,,,,,,,,,,,,,,,,,,,,,,,,,,,,,,,,,,,,,,,,,,,,,,,,,,,,,,,,,,,,,,,,,,,,,,,,,,,,,,,,,,,,,,,,,,,,,,,,,,,,,
0,17,17,79,1,,603e51684835eaca90562e76,62c53a7d710891b46175a7d9,2022-07-06_09h43.02.054,Colour_Asymmetry_Pilot,2022.1.3,Win32,61.17704637,62c50e9c1127f2cd403a315f,,,,,,,,,,,,,,,,,,,,,,,,,,,,,,,,,,,,,,,,,,,,,,,,,,,,,,,,,,,,,,,,,,,,,,,,,,,,,,,,,,,,,,,,,,,,,,,,,,,,,,,,,,,,,,,,,,,,,,,,,,,,,,,,,,,,,,,,,,,,,,,,,,,,,,,,,,,,,,,,,,,
0,18,18,33,1,,603e51684835eaca90562e76,62c53a7d710891b46175a7d9,2022-07-06_09h43.02.054,Colour_Asymmetry_Pilot,2022.1.3,Win32,61.17704637,62c50e9c1127f2cd403a315f,,,,,,,,,,,,,,,,,,,,,,,,,,,,,,,,,,,,,,,,,,,,,,,,,,,,,,,,,,,,,,,,,,,,,,,,,,,,,,,,,,,,,,,,,,,,,,,,,,,,,,,,,,,,,,,,,,,,,,,,,,,,,,,,,,,,,,,,,,,,,,,,,,,,,,,,,,,,,,,,,,,
0,19,19,51,1,,603e51684835eaca90562e76,62c53a7d710891b46175a7d9,2022-07-06_09h43.02.054,Colour_Asymmetry_Pilot,2022.1.3,Win32,61.17704637,62c50e9c1127f2cd403a315f,,,,,,,,,,,,,,,,,,,,,,,,,,,,,,,,,,,,,,,,,,,,,,,,,,,,,,,,,,,,,,,,,,,,,,,,,,,,,,,,,,,,,,,,,,,,,,,,,,,,,,,,,,,,,,,,,,,,,,,,,,,,,,,,,,,,,,,,,,,,,,,,,,,,,,,,,,,,,,,,,,,
0,20,20,38,1,,603e51684835eaca90562e76,62c53a7d710891b46175a7d9,2022-07-06_09h43.02.054,Colour_Asymmetry_Pilot,2022.1.3,Win32,61.17704637,62c50e9c1127f2cd403a315f,,,,,,,,,,,,,,,,,,,,,,,,,,,,,,,,,,,,,,,,,,,,,,,,,,,,,,,,,,,,,,,,,,,,,,,,,,,,,,,,,,,,,,,,,,,,,,,,,,,,,,,,,,,,,,,,,,,,,,,,,,,,,,,,,,,,,,,,,,,,,,,,,,,,,,,,,,,,,,,,,,,
0,21,21,62,1,,603e51684835eaca90562e76,62c53a7d710891b46175a7d9,2022-07-06_09h43.02.054,Colour_Asymmetry_Pilot,2022.1.3,Win32,61.17704637,62c50e9c1127f2cd403a315f,,,,,,,,,,,,,,,,,,,,,,,,,,,,,,,,,,,,,,,,,,,,,,,,,,,,,,,,,,,,,,,,,,,,,,,,,,,,,,,,,,,,,,,,,,,,,,,,,,,,,,,,,,,,,,,,,,,,,,,,,,,,,,,,,,,,,,,,,,,,,,,,,,,,,,,,,,,,,,,,,,,
0,22,22,71,1,,603e51684835eaca90562e76,62c53a7d710891b46175a7d9,2022-07-06_09h43.02.054,Colour_Asymmetry_Pilot,2022.1.3,Win32,61.17704637,62c50e9c1127f2cd403a315f,,,,,,,,,,,,,,,,,,,,,,,,,,,,,,,,,,,,,,,,,,,,,,,,,,,,,,,,,,,,,,,,,,,,,,,,,,,,,,,,,,,,,,,,,,,,,,,,,,,,,,,,,,,,,,,,,,,,,,,,,,,,,,,,,,,,,,,,,,,,,,,,,,,,,,,,,,,,,,,,,,,
0,23,23,6,1,,603e51684835eaca90562e76,62c53a7d710891b46175a7d9,2022-07-06_09h43.02.054,Colour_Asymmetry_Pilot,2022.1.3,Win32,61.17704637,62c50e9c1127f2cd403a315f,,,,,,,,,,,,,,,,,,,,,,,,,,,,,,,,,,,,,,,,,,,,,,,,,,,,,,,,,,,,,,,,,,,,,,,,,,,,,,,,,,,,,,,,,,,,,,,,,,,,,,,,,,,,,,,,,,,,,,,,,,,,,,,,,,,,,,,,,,,,,,,,,,,,,,,,,,,,,,,,,,,
0,24,24,82,1,,603e51684835eaca90562e76,62c53a7d710891b46175a7d9,2022-07-06_09h43.02.054,Colour_Asymmetry_Pilot,2022.1.3,Win32,61.17704637,62c50e9c1127f2cd403a315f,,,,,,,,,,,,,,,,,,,,,,,,,,,,,,,,,,,,,,,,,,,,,,,,,,,,,,,,,,,,,,,,,,,,,,,,,,,,,,,,,,,,,,,,,,,,,,,,,,,,,,,,,,,,,,,,,,,,,,,,,,,,,,,,,,,,,,,,,,,,,,,,,,,,,,,,,,,,,,,,,,,
0,25,25,16,1,,603e51684835eaca90562e76,62c53a7d710891b46175a7d9,2022-07-06_09h43.02.054,Colour_Asymmetry_Pilot,2022.1.3,Win32,61.17704637,62c50e9c1127f2cd403a315f,,,,,,,,,,,,,,,,,,,,,,,,,,,,,,,,,,,,,,,,,,,,,,,,,,,,,,,,,,,,,,,,,,,,,,,,,,,,,,,,,,,,,,,,,,,,,,,,,,,,,,,,,,,,,,,,,,,,,,,,,,,,,,,,,,,,,,,,,,,,,,,,,,,,,,,,,,,,,,,,,,,
0,26,26,13,1,,603e51684835eaca90562e76,62c53a7d710891b46175a7d9,2022-07-06_09h43.02.054,Colour_Asymmetry_Pilot,2022.1.3,Win32,61.17704637,62c50e9c1127f2cd403a315f,,,,,,,,,,,,,,,,,,,,,,,,,,,,,,,,,,,,,,,,,,,,,,,,,,,,,,,,,,,,,,,,,,,,,,,,,,,,,,,,,,,,,,,,,,,,,,,,,,,,,,,,,,,,,,,,,,,,,,,,,,,,,,,,,,,,,,,,,,,,,,,,,,,,,,,,,,,,,,,,,,,
0,27,27,41,1,,603e51684835eaca90562e76,62c53a7d710891b46175a7d9,2022-07-06_09h43.02.054,Colour_Asymmetry_Pilot,2022.1.3,Win32,61.17704637,62c50e9c1127f2cd403a315f,,,,,,,,,,,,,,,,,,,,,,,,,,,,,,,,,,,,,,,,,,,,,,,,,,,,,,,,,,,,,,,,,,,,,,,,,,,,,,,,,,,,,,,,,,,,,,,,,,,,,,,,,,,,,,,,,,,,,,,,,,,,,,,,,,,,,,,,,,,,,,,,,,,,,,,,,,,,,,,,,,,
0,28,28,87,1,,603e51684835eaca90562e76,62c53a7d710891b46175a7d9,2022-07-06_09h43.02.054,Colour_Asymmetry_Pilot,2022.1.3,Win32,61.17704637,62c50e9c1127f2cd403a315f,,,,,,,,,,,,,,,,,,,,,,,,,,,,,,,,,,,,,,,,,,,,,,,,,,,,,,,,,,,,,,,,,,,,,,,,,,,,,,,,,,,,,,,,,,,,,,,,,,,,,,,,,,,,,,,,,,,,,,,,,,,,,,,,,,,,,,,,,,,,,,,,,,,,,,,,,,,,,,,,,,,
0,29,29,32,1,,603e51684835eaca90562e76,62c53a7d710891b46175a7d9,2022-07-06_09h43.02.054,Colour_Asymmetry_Pilot,2022.1.3,Win32,61.17704637,62c50e9c1127f2cd403a315f,,,,,,,,,,,,,,,,,,,,,,,,,,,,,,,,,,,,,,,,,,,,,,,,,,,,,,,,,,,,,,,,,,,,,,,,,,,,,,,,,,,,,,,,,,,,,,,,,,,,,,,,,,,,,,,,,,,,,,,,,,,,,,,,,,,,,,,,,,,,,,,,,,,,,,,,,,,,,,,,,,,
0,30,30,23,1,,603e51684835eaca90562e76,62c53a7d710891b46175a7d9,2022-07-06_09h43.02.054,Colour_Asymmetry_Pilot,2022.1.3,Win32,61.17704637,62c50e9c1127f2cd403a315f,,,,,,,,,,,,,,,,,,,,,,,,,,,,,,,,,,,,,,,,,,,,,,,,,,,,,,,,,,,,,,,,,,,,,,,,,,,,,,,,,,,,,,,,,,,,,,,,,,,,,,,,,,,,,,,,,,,,,,,,,,,,,,,,,,,,,,,,,,,,,,,,,,,,,,,,,,,,,,,,,,,
0,31,31,54,1,,603e51684835eaca90562e76,62c53a7d710891b46175a7d9,2022-07-06_09h43.02.054,Colour_Asymmetry_Pilot,2022.1.3,Win32,61.17704637,62c50e9c1127f2cd403a315f,,,,,,,,,,,,,,,,,,,,,,,,,,,,,,,,,,,,,,,,,,,,,,,,,,,,,,,,,,,,,,,,,,,,,,,,,,,,,,,,,,,,,,,,,,,,,,,,,,,,,,,,,,,,,,,,,,,,,,,,,,,,,,,,,,,,,,,,,,,,,,,,,,,,,,,,,,,,,,,,,,,
0,32,32,29,1,,603e51684835eaca90562e76,62c53a7d710891b46175a7d9,2022-07-06_09h43.02.054,Colour_Asymmetry_Pilot,2022.1.3,Win32,61.17704637,62c50e9c1127f2cd403a315f,,,,,,,,,,,,,,,,,,,,,,,,,,,,,,,,,,,,,,,,,,,,,,,,,,,,,,,,,,,,,,,,,,,,,,,,,,,,,,,,,,,,,,,,,,,,,,,,,,,,,,,,,,,,,,,,,,,,,,,,,,,,,,,,,,,,,,,,,,,,,,,,,,,,,,,,,,,,,,,,,,,
0,33,33,60,1,,603e51684835eaca90562e76,62c53a7d710891b46175a7d9,2022-07-06_09h43.02.054,Colour_Asymmetry_Pilot,2022.1.3,Win32,61.17704637,62c50e9c1127f2cd403a315f,,,,,,,,,,,,,,,,,,,,,,,,,,,,,,,,,,,,,,,,,,,,,,,,,,,,,,,,,,,,,,,,,,,,,,,,,,,,,,,,,,,,,,,,,,,,,,,,,,,,,,,,,,,,,,,,,,,,,,,,,,,,,,,,,,,,,,,,,,,,,,,,,,,,,,,,,,,,,,,,,,,
0,34,34,40,1,,603e51684835eaca90562e76,62c53a7d710891b46175a7d9,2022-07-06_09h43.02.054,Colour_Asymmetry_Pilot,2022.1.3,Win32,61.17704637,62c50e9c1127f2cd403a315f,,,,,,,,,,,,,,,,,,,,,,,,,,,,,,,,,,,,,,,,,,,,,,,,,,,,,,,,,,,,,,,,,,,,,,,,,,,,,,,,,,,,,,,,,,,,,,,,,,,,,,,,,,,,,,,,,,,,,,,,,,,,,,,,,,,,,,,,,,,,,,,,,,,,,,,,,,,,,,,,,,,
0,35,35,25,1,,603e51684835eaca90562e76,62c53a7d710891b46175a7d9,2022-07-06_09h43.02.054,Colour_Asymmetry_Pilot,2022.1.3,Win32,61.17704637,62c50e9c1127f2cd403a315f,,,,,,,,,,,,,,,,,,,,,,,,,,,,,,,,,,,,,,,,,,,,,,,,,,,,,,,,,,,,,,,,,,,,,,,,,,,,,,,,,,,,,,,,,,,,,,,,,,,,,,,,,,,,,,,,,,,,,,,,,,,,,,,,,,,,,,,,,,,,,,,,,,,,,,,,,,,,,,,,,,,
0,36,36,56,1,,603e51684835eaca90562e76,62c53a7d710891b46175a7d9,2022-07-06_09h43.02.054,Colour_Asymmetry_Pilot,2022.1.3,Win32,61.17704637,62c50e9c1127f2cd403a315f,,,,,,,,,,,,,,,,,,,,,,,,,,,,,,,,,,,,,,,,,,,,,,,,,,,,,,,,,,,,,,,,,,,,,,,,,,,,,,,,,,,,,,,,,,,,,,,,,,,,,,,,,,,,,,,,,,,,,,,,,,,,,,,,,,,,,,,,,,,,,,,,,,,,,,,,,,,,,,,,,,,
0,37,37,42,1,,603e51684835eaca90562e76,62c53a7d710891b46175a7d9,2022-07-06_09h43.02.054,Colour_Asymmetry_Pilot,2022.1.3,Win32,61.17704637,62c50e9c1127f2cd403a315f,,,,,,,,,,,,,,,,,,,,,,,,,,,,,,,,,,,,,,,,,,,,,,,,,,,,,,,,,,,,,,,,,,,,,,,,,,,,,,,,,,,,,,,,,,,,,,,,,,,,,,,,,,,,,,,,,,,,,,,,,,,,,,,,,,,,,,,,,,,,,,,,,,,,,,,,,,,,,,,,,,,
0,38,38,48,1,,603e51684835eaca90562e76,62c53a7d710891b46175a7d9,2022-07-06_09h43.02.054,Colour_Asymmetry_Pilot,2022.1.3,Win32,61.17704637,62c50e9c1127f2cd403a315f,,,,,,,,,,,,,,,,,,,,,,,,,,,,,,,,,,,,,,,,,,,,,,,,,,,,,,,,,,,,,,,,,,,,,,,,,,,,,,,,,,,,,,,,,,,,,,,,,,,,,,,,,,,,,,,,,,,,,,,,,,,,,,,,,,,,,,,,,,,,,,,,,,,,,,,,,,,,,,,,,,,
0,39,39,34,1,,603e51684835eaca90562e76,62c53a7d710891b46175a7d9,2022-07-06_09h43.02.054,Colour_Asymmetry_Pilot,2022.1.3,Win32,61.17704637,62c50e9c1127f2cd403a315f,,,,,,,,,,,,,,,,,,,,,,,,,,,,,,,,,,,,,,,,,,,,,,,,,,,,,,,,,,,,,,,,,,,,,,,,,,,,,,,,,,,,,,,,,,,,,,,,,,,,,,,,,,,,,,,,,,,,,,,,,,,,,,,,,,,,,,,,,,,,,,,,,,,,,,,,,,,,,,,,,,,
0,40,40,74,1,,603e51684835eaca90562e76,62c53a7d710891b46175a7d9,2022-07-06_09h43.02.054,Colour_Asymmetry_Pilot,2022.1.3,Win32,61.17704637,62c50e9c1127f2cd403a315f,,,,,,,,,,,,,,,,,,,,,,,,,,,,,,,,,,,,,,,,,,,,,,,,,,,,,,,,,,,,,,,,,,,,,,,,,,,,,,,,,,,,,,,,,,,,,,,,,,,,,,,,,,,,,,,,,,,,,,,,,,,,,,,,,,,,,,,,,,,,,,,,,,,,,,,,,,,,,,,,,,,
0,41,41,17,1,,603e51684835eaca90562e76,62c53a7d710891b46175a7d9,2022-07-06_09h43.02.054,Colour_Asymmetry_Pilot,2022.1.3,Win32,61.17704637,62c50e9c1127f2cd403a315f,,,,,,,,,,,,,,,,,,,,,,,,,,,,,,,,,,,,,,,,,,,,,,,,,,,,,,,,,,,,,,,,,,,,,,,,,,,,,,,,,,,,,,,,,,,,,,,,,,,,,,,,,,,,,,,,,,,,,,,,,,,,,,,,,,,,,,,,,,,,,,,,,,,,,,,,,,,,,,,,,,,
0,42,42,2,1,,603e51684835eaca90562e76,62c53a7d710891b46175a7d9,2022-07-06_09h43.02.054,Colour_Asymmetry_Pilot,2022.1.3,Win32,61.17704637,62c50e9c1127f2cd403a315f,,,,,,,,,,,,,,,,,,,,,,,,,,,,,,,,,,,,,,,,,,,,,,,,,,,,,,,,,,,,,,,,,,,,,,,,,,,,,,,,,,,,,,,,,,,,,,,,,,,,,,,,,,,,,,,,,,,,,,,,,,,,,,,,,,,,,,,,,,,,,,,,,,,,,,,,,,,,,,,,,,,
0,43,43,75,1,,603e51684835eaca90562e76,62c53a7d710891b46175a7d9,2022-07-06_09h43.02.054,Colour_Asymmetry_Pilot,2022.1.3,Win32,61.17704637,62c50e9c1127f2cd403a315f,,,,,,,,,,,,,,,,,,,,,,,,,,,,,,,,,,,,,,,,,,,,,,,,,,,,,,,,,,,,,,,,,,,,,,,,,,,,,,,,,,,,,,,,,,,,,,,,,,,,,,,,,,,,,,,,,,,,,,,,,,,,,,,,,,,,,,,,,,,,,,,,,,,,,,,,,,,,,,,,,,,
0,44,44,67,1,,603e51684835eaca90562e76,62c53a7d710891b46175a7d9,2022-07-06_09h43.02.054,Colour_Asymmetry_Pilot,2022.1.3,Win32,61.17704637,62c50e9c1127f2cd403a315f,,,,,,,,,,,,,,,,,,,,,,,,,,,,,,,,,,,,,,,,,,,,,,,,,,,,,,,,,,,,,,,,,,,,,,,,,,,,,,,,,,,,,,,,,,,,,,,,,,,,,,,,,,,,,,,,,,,,,,,,,,,,,,,,,,,,,,,,,,,,,,,,,,,,,,,,,,,,,,,,,,,
0,45,45,24,1,,603e51684835eaca90562e76,62c53a7d710891b46175a7d9,2022-07-06_09h43.02.054,Colour_Asymmetry_Pilot,2022.1.3,Win32,61.17704637,62c50e9c1127f2cd403a315f,,,,,,,,,,,,,,,,,,,,,,,,,,,,,,,,,,,,,,,,,,,,,,,,,,,,,,,,,,,,,,,,,,,,,,,,,,,,,,,,,,,,,,,,,,,,,,,,,,,,,,,,,,,,,,,,,,,,,,,,,,,,,,,,,,,,,,,,,,,,,,,,,,,,,,,,,,,,,,,,,,,
0,46,46,65,1,,603e51684835eaca90562e76,62c53a7d710891b46175a7d9,2022-07-06_09h43.02.054,Colour_Asymmetry_Pilot,2022.1.3,Win32,61.17704637,62c50e9c1127f2cd403a315f,,,,,,,,,,,,,,,,,,,,,,,,,,,,,,,,,,,,,,,,,,,,,,,,,,,,,,,,,,,,,,,,,,,,,,,,,,,,,,,,,,,,,,,,,,,,,,,,,,,,,,,,,,,,,,,,,,,,,,,,,,,,,,,,,,,,,,,,,,,,,,,,,,,,,,,,,,,,,,,,,,,
0,47,47,83,1,,603e51684835eaca90562e76,62c53a7d710891b46175a7d9,2022-07-06_09h43.02.054,Colour_Asymmetry_Pilot,2022.1.3,Win32,61.17704637,62c50e9c1127f2cd403a315f,,,,,,,,,,,,,,,,,,,,,,,,,,,,,,,,,,,,,,,,,,,,,,,,,,,,,,,,,,,,,,,,,,,,,,,,,,,,,,,,,,,,,,,,,,,,,,,,,,,,,,,,,,,,,,,,,,,,,,,,,,,,,,,,,,,,,,,,,,,,,,,,,,,,,,,,,,,,,,,,,,,
0,48,48,3,1,,603e51684835eaca90562e76,62c53a7d710891b46175a7d9,2022-07-06_09h43.02.054,Colour_Asymmetry_Pilot,2022.1.3,Win32,61.17704637,62c50e9c1127f2cd403a315f,,,,,,,,,,,,,,,,,,,,,,,,,,,,,,,,,,,,,,,,,,,,,,,,,,,,,,,,,,,,,,,,,,,,,,,,,,,,,,,,,,,,,,,,,,,,,,,,,,,,,,,,,,,,,,,,,,,,,,,,,,,,,,,,,,,,,,,,,,,,,,,,,,,,,,,,,,,,,,,,,,,
0,49,49,90,1,,603e51684835eaca90562e76,62c53a7d710891b46175a7d9,2022-07-06_09h43.02.054,Colour_Asymmetry_Pilot,2022.1.3,Win32,61.17704637,62c50e9c1127f2cd403a315f,,,,,,,,,,,,,,,,,,,,,,,,,,,,,,,,,,,,,,,,,,,,,,,,,,,,,,,,,,,,,,,,,,,,,,,,,,,,,,,,,,,,,,,,,,,,,,,,,,,,,,,,,,,,,,,,,,,,,,,,,,,,,,,,,,,,,,,,,,,,,,,,,,,,,,,,,,,,,,,,,,,
0,50,50,86,1,,603e51684835eaca90562e76,62c53a7d710891b46175a7d9,2022-07-06_09h43.02.054,Colour_Asymmetry_Pilot,2022.1.3,Win32,61.17704637,62c50e9c1127f2cd403a315f,,,,,,,,,,,,,,,,,,,,,,,,,,,,,,,,,,,,,,,,,,,,,,,,,,,,,,,,,,,,,,,,,,,,,,,,,,,,,,,,,,,,,,,,,,,,,,,,,,,,,,,,,,,,,,,,,,,,,,,,,,,,,,,,,,,,,,,,,,,,,,,,,,,,,,,,,,,,,,,,,,,
0,51,51,46,1,,603e51684835eaca90562e76,62c53a7d710891b46175a7d9,2022-07-06_09h43.02.054,Colour_Asymmetry_Pilot,2022.1.3,Win32,61.17704637,62c50e9c1127f2cd403a315f,,,,,,,,,,,,,,,,,,,,,,,,,,,,,,,,,,,,,,,,,,,,,,,,,,,,,,,,,,,,,,,,,,,,,,,,,,,,,,,,,,,,,,,,,,,,,,,,,,,,,,,,,,,,,,,,,,,,,,,,,,,,,,,,,,,,,,,,,,,,,,,,,,,,,,,,,,,,,,,,,,,
0,52,52,85,1,,603e51684835eaca90562e76,62c53a7d710891b46175a7d9,2022-07-06_09h43.02.054,Colour_Asymmetry_Pilot,2022.1.3,Win32,61.17704637,62c50e9c1127f2cd403a315f,,,,,,,,,,,,,,,,,,,,,,,,,,,,,,,,,,,,,,,,,,,,,,,,,,,,,,,,,,,,,,,,,,,,,,,,,,,,,,,,,,,,,,,,,,,,,,,,,,,,,,,,,,,,,,,,,,,,,,,,,,,,,,,,,,,,,,,,,,,,,,,,,,,,,,,,,,,,,,,,,,,
0,53,53,21,1,,603e51684835eaca90562e76,62c53a7d710891b46175a7d9,2022-07-06_09h43.02.054,Colour_Asymmetry_Pilot,2022.1.3,Win32,61.17704637,62c50e9c1127f2cd403a315f,,,,,,,,,,,,,,,,,,,,,,,,,,,,,,,,,,,,,,,,,,,,,,,,,,,,,,,,,,,,,,,,,,,,,,,,,,,,,,,,,,,,,,,,,,,,,,,,,,,,,,,,,,,,,,,,,,,,,,,,,,,,,,,,,,,,,,,,,,,,,,,,,,,,,,,,,,,,,,,,,,,
0,54,54,27,1,,603e51684835eaca90562e76,62c53a7d710891b46175a7d9,2022-07-06_09h43.02.054,Colour_Asymmetry_Pilot,2022.1.3,Win32,61.17704637,62c50e9c1127f2cd403a315f,,,,,,,,,,,,,,,,,,,,,,,,,,,,,,,,,,,,,,,,,,,,,,,,,,,,,,,,,,,,,,,,,,,,,,,,,,,,,,,,,,,,,,,,,,,,,,,,,,,,,,,,,,,,,,,,,,,,,,,,,,,,,,,,,,,,,,,,,,,,,,,,,,,,,,,,,,,,,,,,,,,
0,55,55,5,1,,603e51684835eaca90562e76,62c53a7d710891b46175a7d9,2022-07-06_09h43.02.054,Colour_Asymmetry_Pilot,2022.1.3,Win32,61.17704637,62c50e9c1127f2cd403a315f,,,,,,,,,,,,,,,,,,,,,,,,,,,,,,,,,,,,,,,,,,,,,,,,,,,,,,,,,,,,,,,,,,,,,,,,,,,,,,,,,,,,,,,,,,,,,,,,,,,,,,,,,,,,,,,,,,,,,,,,,,,,,,,,,,,,,,,,,,,,,,,,,,,,,,,,,,,,,,,,,,,
0,56,56,15,1,,603e51684835eaca90562e76,62c53a7d710891b46175a7d9,2022-07-06_09h43.02.054,Colour_Asymmetry_Pilot,2022.1.3,Win32,61.17704637,62c50e9c1127f2cd403a315f,,,,,,,,,,,,,,,,,,,,,,,,,,,,,,,,,,,,,,,,,,,,,,,,,,,,,,,,,,,,,,,,,,,,,,,,,,,,,,,,,,,,,,,,,,,,,,,,,,,,,,,,,,,,,,,,,,,,,,,,,,,,,,,,,,,,,,,,,,,,,,,,,,,,,,,,,,,,,,,,,,,
0,57,57,69,1,,603e51684835eaca90562e76,62c53a7d710891b46175a7d9,2022-07-06_09h43.02.054,Colour_Asymmetry_Pilot,2022.1.3,Win32,61.17704637,62c50e9c1127f2cd403a315f,,,,,,,,,,,,,,,,,,,,,,,,,,,,,,,,,,,,,,,,,,,,,,,,,,,,,,,,,,,,,,,,,,,,,,,,,,,,,,,,,,,,,,,,,,,,,,,,,,,,,,,,,,,,,,,,,,,,,,,,,,,,,,,,,,,,,,,,,,,,,,,,,,,,,,,,,,,,,,,,,,,
0,58,58,50,1,,603e51684835eaca90562e76,62c53a7d710891b46175a7d9,2022-07-06_09h43.02.054,Colour_Asymmetry_Pilot,2022.1.3,Win32,61.17704637,62c50e9c1127f2cd403a315f,,,,,,,,,,,,,,,,,,,,,,,,,,,,,,,,,,,,,,,,,,,,,,,,,,,,,,,,,,,,,,,,,,,,,,,,,,,,,,,,,,,,,,,,,,,,,,,,,,,,,,,,,,,,,,,,,,,,,,,,,,,,,,,,,,,,,,,,,,,,,,,,,,,,,,,,,,,,,,,,,,,
0,59,59,18,1,,603e51684835eaca90562e76,62c53a7d710891b46175a7d9,2022-07-06_09h43.02.054,Colour_Asymmetry_Pilot,2022.1.3,Win32,61.17704637,62c50e9c1127f2cd403a315f,,,,,,,,,,,,,,,,,,,,,,,,,,,,,,,,,,,,,,,,,,,,,,,,,,,,,,,,,,,,,,,,,,,,,,,,,,,,,,,,,,,,,,,,,,,,,,,,,,,,,,,,,,,,,,,,,,,,,,,,,,,,,,,,,,,,,,,,,,,,,,,,,,,,,,,,,,,,,,,,,,,
0,60,60,43,1,,603e51684835eaca90562e76,62c53a7d710891b46175a7d9,2022-07-06_09h43.02.054,Colour_Asymmetry_Pilot,2022.1.3,Win32,61.17704637,62c50e9c1127f2cd403a315f,,,,,,,,,,,,,,,,,,,,,,,,,,,,,,,,,,,,,,,,,,,,,,,,,,,,,,,,,,,,,,,,,,,,,,,,,,,,,,,,,,,,,,,,,,,,,,,,,,,,,,,,,,,,,,,,,,,,,,,,,,,,,,,,,,,,,,,,,,,,,,,,,,,,,,,,,,,,,,,,,,,
0,61,61,30,1,,603e51684835eaca90562e76,62c53a7d710891b46175a7d9,2022-07-06_09h43.02.054,Colour_Asymmetry_Pilot,2022.1.3,Win32,61.17704637,62c50e9c1127f2cd403a315f,,,,,,,,,,,,,,,,,,,,,,,,,,,,,,,,,,,,,,,,,,,,,,,,,,,,,,,,,,,,,,,,,,,,,,,,,,,,,,,,,,,,,,,,,,,,,,,,,,,,,,,,,,,,,,,,,,,,,,,,,,,,,,,,,,,,,,,,,,,,,,,,,,,,,,,,,,,,,,,,,,,
0,62,62,9,1,,603e51684835eaca90562e76,62c53a7d710891b46175a7d9,2022-07-06_09h43.02.054,Colour_Asymmetry_Pilot,2022.1.3,Win32,61.17704637,62c50e9c1127f2cd403a315f,,,,,,,,,,,,,,,,,,,,,,,,,,,,,,,,,,,,,,,,,,,,,,,,,,,,,,,,,,,,,,,,,,,,,,,,,,,,,,,,,,,,,,,,,,,,,,,,,,,,,,,,,,,,,,,,,,,,,,,,,,,,,,,,,,,,,,,,,,,,,,,,,,,,,,,,,,,,,,,,,,,
0,63,63,68,1,,603e51684835eaca90562e76,62c53a7d710891b46175a7d9,2022-07-06_09h43.02.054,Colour_Asymmetry_Pilot,2022.1.3,Win32,61.17704637,62c50e9c1127f2cd403a315f,,,,,,,,,,,,,,,,,,,,,,,,,,,,,,,,,,,,,,,,,,,,,,,,,,,,,,,,,,,,,,,,,,,,,,,,,,,,,,,,,,,,,,,,,,,,,,,,,,,,,,,,,,,,,,,,,,,,,,,,,,,,,,,,,,,,,,,,,,,,,,,,,,,,,,,,,,,,,,,,,,,
0,64,64,89,1,,603e51684835eaca90562e76,62c53a7d710891b46175a7d9,2022-07-06_09h43.02.054,Colour_Asymmetry_Pilot,2022.1.3,Win32,61.17704637,62c50e9c1127f2cd403a315f,,,,,,,,,,,,,,,,,,,,,,,,,,,,,,,,,,,,,,,,,,,,,,,,,,,,,,,,,,,,,,,,,,,,,,,,,,,,,,,,,,,,,,,,,,,,,,,,,,,,,,,,,,,,,,,,,,,,,,,,,,,,,,,,,,,,,,,,,,,,,,,,,,,,,,,,,,,,,,,,,,,
0,65,65,37,1,,603e51684835eaca90562e76,62c53a7d710891b46175a7d9,2022-07-06_09h43.02.054,Colour_Asymmetry_Pilot,2022.1.3,Win32,61.17704637,62c50e9c1127f2cd403a315f,,,,,,,,,,,,,,,,,,,,,,,,,,,,,,,,,,,,,,,,,,,,,,,,,,,,,,,,,,,,,,,,,,,,,,,,,,,,,,,,,,,,,,,,,,,,,,,,,,,,,,,,,,,,,,,,,,,,,,,,,,,,,,,,,,,,,,,,,,,,,,,,,,,,,,,,,,,,,,,,,,,
0,66,66,92,1,,603e51684835eaca90562e76,62c53a7d710891b46175a7d9,2022-07-06_09h43.02.054,Colour_Asymmetry_Pilot,2022.1.3,Win32,61.17704637,62c50e9c1127f2cd403a315f,,,,,,,,,,,,,,,,,,,,,,,,,,,,,,,,,,,,,,,,,,,,,,,,,,,,,,,,,,,,,,,,,,,,,,,,,,,,,,,,,,,,,,,,,,,,,,,,,,,,,,,,,,,,,,,,,,,,,,,,,,,,,,,,,,,,,,,,,,,,,,,,,,,,,,,,,,,,,,,,,,,
0,67,67,49,1,,603e51684835eaca90562e76,62c53a7d710891b46175a7d9,2022-07-06_09h43.02.054,Colour_Asymmetry_Pilot,2022.1.3,Win32,61.17704637,62c50e9c1127f2cd403a315f,,,,,,,,,,,,,,,,,,,,,,,,,,,,,,,,,,,,,,,,,,,,,,,,,,,,,,,,,,,,,,,,,,,,,,,,,,,,,,,,,,,,,,,,,,,,,,,,,,,,,,,,,,,,,,,,,,,,,,,,,,,,,,,,,,,,,,,,,,,,,,,,,,,,,,,,,,,,,,,,,,,
0,68,68,53,1,,603e51684835eaca90562e76,62c53a7d710891b46175a7d9,2022-07-06_09h43.02.054,Colour_Asymmetry_Pilot,2022.1.3,Win32,61.17704637,62c50e9c1127f2cd403a315f,,,,,,,,,,,,,,,,,,,,,,,,,,,,,,,,,,,,,,,,,,,,,,,,,,,,,,,,,,,,,,,,,,,,,,,,,,,,,,,,,,,,,,,,,,,,,,,,,,,,,,,,,,,,,,,,,,,,,,,,,,,,,,,,,,,,,,,,,,,,,,,,,,,,,,,,,,,,,,,,,,,
0,69,69,66,1,,603e51684835eaca90562e76,62c53a7d710891b46175a7d9,2022-07-06_09h43.02.054,Colour_Asymmetry_Pilot,2022.1.3,Win32,61.17704637,62c50e9c1127f2cd403a315f,,,,,,,,,,,,,,,,,,,,,,,,,,,,,,,,,,,,,,,,,,,,,,,,,,,,,,,,,,,,,,,,,,,,,,,,,,,,,,,,,,,,,,,,,,,,,,,,,,,,,,,,,,,,,,,,,,,,,,,,,,,,,,,,,,,,,,,,,,,,,,,,,,,,,,,,,,,,,,,,,,,
0,70,70,19,1,,603e51684835eaca90562e76,62c53a7d710891b46175a7d9,2022-07-06_09h43.02.054,Colour_Asymmetry_Pilot,2022.1.3,Win32,61.17704637,62c50e9c1127f2cd403a315f,,,,,,,,,,,,,,,,,,,,,,,,,,,,,,,,,,,,,,,,,,,,,,,,,,,,,,,,,,,,,,,,,,,,,,,,,,,,,,,,,,,,,,,,,,,,,,,,,,,,,,,,,,,,,,,,,,,,,,,,,,,,,,,,,,,,,,,,,,,,,,,,,,,,,,,,,,,,,,,,,,,
0,71,71,39,1,,603e51684835eaca90562e76,62c53a7d710891b46175a7d9,2022-07-06_09h43.02.054,Colour_Asymmetry_Pilot,2022.1.3,Win32,61.17704637,62c50e9c1127f2cd403a315f,,,,,,,,,,,,,,,,,,,,,,,,,,,,,,,,,,,,,,,,,,,,,,,,,,,,,,,,,,,,,,,,,,,,,,,,,,,,,,,,,,,,,,,,,,,,,,,,,,,,,,,,,,,,,,,,,,,,,,,,,,,,,,,,,,,,,,,,,,,,,,,,,,,,,,,,,,,,,,,,,,,
0,72,72,26,1,,603e51684835eaca90562e76,62c53a7d710891b46175a7d9,2022-07-06_09h43.02.054,Colour_Asymmetry_Pilot,2022.1.3,Win32,61.17704637,62c50e9c1127f2cd403a315f,,,,,,,,,,,,,,,,,,,,,,,,,,,,,,,,,,,,,,,,,,,,,,,,,,,,,,,,,,,,,,,,,,,,,,,,,,,,,,,,,,,,,,,,,,,,,,,,,,,,,,,,,,,,,,,,,,,,,,,,,,,,,,,,,,,,,,,,,,,,,,,,,,,,,,,,,,,,,,,,,,,
0,73,73,70,1,,603e51684835eaca90562e76,62c53a7d710891b46175a7d9,2022-07-06_09h43.02.054,Colour_Asymmetry_Pilot,2022.1.3,Win32,61.17704637,62c50e9c1127f2cd403a315f,,,,,,,,,,,,,,,,,,,,,,,,,,,,,,,,,,,,,,,,,,,,,,,,,,,,,,,,,,,,,,,,,,,,,,,,,,,,,,,,,,,,,,,,,,,,,,,,,,,,,,,,,,,,,,,,,,,,,,,,,,,,,,,,,,,,,,,,,,,,,,,,,,,,,,,,,,,,,,,,,,,
0,74,74,58,1,,603e51684835eaca90562e76,62c53a7d710891b46175a7d9,2022-07-06_09h43.02.054,Colour_Asymmetry_Pilot,2022.1.3,Win32,61.17704637,62c50e9c1127f2cd403a315f,,,,,,,,,,,,,,,,,,,,,,,,,,,,,,,,,,,,,,,,,,,,,,,,,,,,,,,,,,,,,,,,,,,,,,,,,,,,,,,,,,,,,,,,,,,,,,,,,,,,,,,,,,,,,,,,,,,,,,,,,,,,,,,,,,,,,,,,,,,,,,,,,,,,,,,,,,,,,,,,,,,
0,75,75,11,1,,603e51684835eaca90562e76,62c53a7d710891b46175a7d9,2022-07-06_09h43.02.054,Colour_Asymmetry_Pilot,2022.1.3,Win32,61.17704637,62c50e9c1127f2cd403a315f,,,,,,,,,,,,,,,,,,,,,,,,,,,,,,,,,,,,,,,,,,,,,,,,,,,,,,,,,,,,,,,,,,,,,,,,,,,,,,,,,,,,,,,,,,,,,,,,,,,,,,,,,,,,,,,,,,,,,,,,,,,,,,,,,,,,,,,,,,,,,,,,,,,,,,,,,,,,,,,,,,,
0,76,76,63,1,,603e51684835eaca90562e76,62c53a7d710891b46175a7d9,2022-07-06_09h43.02.054,Colour_Asymmetry_Pilot,2022.1.3,Win32,61.17704637,62c50e9c1127f2cd403a315f,,,,,,,,,,,,,,,,,,,,,,,,,,,,,,,,,,,,,,,,,,,,,,,,,,,,,,,,,,,,,,,,,,,,,,,,,,,,,,,,,,,,,,,,,,,,,,,,,,,,,,,,,,,,,,,,,,,,,,,,,,,,,,,,,,,,,,,,,,,,,,,,,,,,,,,,,,,,,,,,,,,
0,77,77,78,1,,603e51684835eaca90562e76,62c53a7d710891b46175a7d9,2022-07-06_09h43.02.054,Colour_Asymmetry_Pilot,2022.1.3,Win32,61.17704637,62c50e9c1127f2cd403a315f,,,,,,,,,,,,,,,,,,,,,,,,,,,,,,,,,,,,,,,,,,,,,,,,,,,,,,,,,,,,,,,,,,,,,,,,,,,,,,,,,,,,,,,,,,,,,,,,,,,,,,,,,,,,,,,,,,,,,,,,,,,,,,,,,,,,,,,,,,,,,,,,,,,,,,,,,,,,,,,,,,,
0,78,78,73,1,,603e51684835eaca90562e76,62c53a7d710891b46175a7d9,2022-07-06_09h43.02.054,Colour_Asymmetry_Pilot,2022.1.3,Win32,61.17704637,62c50e9c1127f2cd403a315f,,,,,,,,,,,,,,,,,,,,,,,,,,,,,,,,,,,,,,,,,,,,,,,,,,,,,,,,,,,,,,,,,,,,,,,,,,,,,,,,,,,,,,,,,,,,,,,,,,,,,,,,,,,,,,,,,,,,,,,,,,,,,,,,,,,,,,,,,,,,,,,,,,,,,,,,,,,,,,,,,,,
0,79,79,57,1,,603e51684835eaca90562e76,62c53a7d710891b46175a7d9,2022-07-06_09h43.02.054,Colour_Asymmetry_Pilot,2022.1.3,Win32,61.17704637,62c50e9c1127f2cd403a315f,,,,,,,,,,,,,,,,,,,,,,,,,,,,,,,,,,,,,,,,,,,,,,,,,,,,,,,,,,,,,,,,,,,,,,,,,,,,,,,,,,,,,,,,,,,,,,,,,,,,,,,,,,,,,,,,,,,,,,,,,,,,,,,,,,,,,,,,,,,,,,,,,,,,,,,,,,,,,,,,,,,
0,80,80,84,1,,603e51684835eaca90562e76,62c53a7d710891b46175a7d9,2022-07-06_09h43.02.054,Colour_Asymmetry_Pilot,2022.1.3,Win32,61.17704637,62c50e9c1127f2cd403a315f,,,,,,,,,,,,,,,,,,,,,,,,,,,,,,,,,,,,,,,,,,,,,,,,,,,,,,,,,,,,,,,,,,,,,,,,,,,,,,,,,,,,,,,,,,,,,,,,,,,,,,,,,,,,,,,,,,,,,,,,,,,,,,,,,,,,,,,,,,,,,,,,,,,,,,,,,,,,,,,,,,,
0,81,81,4,1,,603e51684835eaca90562e76,62c53a7d710891b46175a7d9,2022-07-06_09h43.02.054,Colour_Asymmetry_Pilot,2022.1.3,Win32,61.17704637,62c50e9c1127f2cd403a315f,,,,,,,,,,,,,,,,,,,,,,,,,,,,,,,,,,,,,,,,,,,,,,,,,,,,,,,,,,,,,,,,,,,,,,,,,,,,,,,,,,,,,,,,,,,,,,,,,,,,,,,,,,,,,,,,,,,,,,,,,,,,,,,,,,,,,,,,,,,,,,,,,,,,,,,,,,,,,,,,,,,
0,82,82,81,1,,603e51684835eaca90562e76,62c53a7d710891b46175a7d9,2022-07-06_09h43.02.054,Colour_Asymmetry_Pilot,2022.1.3,Win32,61.17704637,62c50e9c1127f2cd403a315f,,,,,,,,,,,,,,,,,,,,,,,,,,,,,,,,,,,,,,,,,,,,,,,,,,,,,,,,,,,,,,,,,,,,,,,,,,,,,,,,,,,,,,,,,,,,,,,,,,,,,,,,,,,,,,,,,,,,,,,,,,,,,,,,,,,,,,,,,,,,,,,,,,,,,,,,,,,,,,,,,,,
0,83,83,0,1,,603e51684835eaca90562e76,62c53a7d710891b46175a7d9,2022-07-06_09h43.02.054,Colour_Asymmetry_Pilot,2022.1.3,Win32,61.17704637,62c50e9c1127f2cd403a315f,,,,,,,,,,,,,,,,,,,,,,,,,,,,,,,,,,,,,,,,,,,,,,,,,,,,,,,,,,,,,,,,,,,,,,,,,,,,,,,,,,,,,,,,,,,,,,,,,,,,,,,,,,,,,,,,,,,,,,,,,,,,,,,,,,,,,,,,,,,,,,,,,,,,,,,,,,,,,,,,,,,
0,84,84,36,1,,603e51684835eaca90562e76,62c53a7d710891b46175a7d9,2022-07-06_09h43.02.054,Colour_Asymmetry_Pilot,2022.1.3,Win32,61.17704637,62c50e9c1127f2cd403a315f,,,,,,,,,,,,,,,,,,,,,,,,,,,,,,,,,,,,,,,,,,,,,,,,,,,,,,,,,,,,,,,,,,,,,,,,,,,,,,,,,,,,,,,,,,,,,,,,,,,,,,,,,,,,,,,,,,,,,,,,,,,,,,,,,,,,,,,,,,,,,,,,,,,,,,,,,,,,,,,,,,,
0,85,85,59,1,,603e51684835eaca90562e76,62c53a7d710891b46175a7d9,2022-07-06_09h43.02.054,Colour_Asymmetry_Pilot,2022.1.3,Win32,61.17704637,62c50e9c1127f2cd403a315f,,,,,,,,,,,,,,,,,,,,,,,,,,,,,,,,,,,,,,,,,,,,,,,,,,,,,,,,,,,,,,,,,,,,,,,,,,,,,,,,,,,,,,,,,,,,,,,,,,,,,,,,,,,,,,,,,,,,,,,,,,,,,,,,,,,,,,,,,,,,,,,,,,,,,,,,,,,,,,,,,,,
0,86,86,20,1,,603e51684835eaca90562e76,62c53a7d710891b46175a7d9,2022-07-06_09h43.02.054,Colour_Asymmetry_Pilot,2022.1.3,Win32,61.17704637,62c50e9c1127f2cd403a315f,,,,,,,,,,,,,,,,,,,,,,,,,,,,,,,,,,,,,,,,,,,,,,,,,,,,,,,,,,,,,,,,,,,,,,,,,,,,,,,,,,,,,,,,,,,,,,,,,,,,,,,,,,,,,,,,,,,,,,,,,,,,,,,,,,,,,,,,,,,,,,,,,,,,,,,,,,,,,,,,,,,
0,87,87,76,1,,603e51684835eaca90562e76,62c53a7d710891b46175a7d9,2022-07-06_09h43.02.054,Colour_Asymmetry_Pilot,2022.1.3,Win32,61.17704637,62c50e9c1127f2cd403a315f,,,,,,,,,,,,,,,,,,,,,,,,,,,,,,,,,,,,,,,,,,,,,,,,,,,,,,,,,,,,,,,,,,,,,,,,,,,,,,,,,,,,,,,,,,,,,,,,,,,,,,,,,,,,,,,,,,,,,,,,,,,,,,,,,,,,,,,,,,,,,,,,,,,,,,,,,,,,,,,,,,,
0,88,88,52,1,,603e51684835eaca90562e76,62c53a7d710891b46175a7d9,2022-07-06_09h43.02.054,Colour_Asymmetry_Pilot,2022.1.3,Win32,61.17704637,62c50e9c1127f2cd403a315f,,,,,,,,,,,,,,,,,,,,,,,,,,,,,,,,,,,,,,,,,,,,,,,,,,,,,,,,,,,,,,,,,,,,,,,,,,,,,,,,,,,,,,,,,,,,,,,,,,,,,,,,,,,,,,,,,,,,,,,,,,,,,,,,,,,,,,,,,,,,,,,,,,,,,,,,,,,,,,,,,,,
0,89,89,1,1,,603e51684835eaca90562e76,62c53a7d710891b46175a7d9,2022-07-06_09h43.02.054,Colour_Asymmetry_Pilot,2022.1.3,Win32,61.17704637,62c50e9c1127f2cd403a315f,,,,,,,,,,,,,,,,,,,,,,,,,,,,,,,,,,,,,,,,,,,,,,,,,,,,,,,,,,,,,,,,,,,,,,,,,,,,,,,,,,,,,,,,,,,,,,,,,,,,,,,,,,,,,,,,,,,,,,,,,,,,,,,,,,,,,,,,,,,,,,,,,,,,,,,,,,,,,,,,,,,
0,90,90,8,1,,603e51684835eaca90562e76,62c53a7d710891b46175a7d9,2022-07-06_09h43.02.054,Colour_Asymmetry_Pilot,2022.1.3,Win32,61.17704637,62c50e9c1127f2cd403a315f,,,,,,,,,,,,,,,,,,,,,,,,,,,,,,,,,,,,,,,,,,,,,,,,,,,,,,,,,,,,,,,,,,,,,,,,,,,,,,,,,,,,,,,,,,,,,,,,,,,,,,,,,,,,,,,,,,,,,,,,,,,,,,,,,,,,,,,,,,,,,,,,,,,,,,,,,,,,,,,,,,,
0,91,91,64,1,,603e51684835eaca90562e76,62c53a7d710891b46175a7d9,2022-07-06_09h43.02.054,Colour_Asymmetry_Pilot,2022.1.3,Win32,61.17704637,62c50e9c1127f2cd403a315f,,,,,,,,,,,,,,,,,,,,,,,,,,,,,,,,,,,,,,,,,,,,,,,,,,,,,,,,,,,,,,,,,,,,,,,,,,,,,,,,,,,,,,,,,,,,,,,,,,,,,,,,,,,,,,,,,,,,,,,,,,,,,,,,,,,,,,,,,,,,,,,,,,,,,,,,,,,,,,,,,,,
0,92,92,44,1,,603e51684835eaca90562e76,62c53a7d710891b46175a7d9,2022-07-06_09h43.02.054,Colour_Asymmetry_Pilot,2022.1.3,Win32,61.17704637,62c50e9c1127f2cd403a315f,,,,,,,,,,,,,,,,,,,,,,,,,,,,,,,,,,,,,,,,,,,,,,,,,,,,,,,,,,,,,,,,,,,,,,,,,,,,,,,,,,,,,,,,,,,,,,,,,,,,,,,,,,,,,,,,,,,,,,,,,,,,,,,,,,,,,,,,,,,,,,,,,,,,,,,,,,,,,,,,,,,
,,,,,,603e51684835eaca90562e76,62c53a7d710891b46175a7d9,2022-07-06_09h43.02.054,Colour_Asymmetry_Pilot,2022.1.3,Win32,61.17704637,62c50e9c1127f2cd403a315f,0,0,0,118,1,fourtwo,,,,,,,,,,,,,,,,,,,,,,,,,,,,,,,,,,,,,,,,,,,,,,,,,,,,,,,,,,,,,,,,,,,,,,,,,,,,,,,,,,,,,,,,,,,,,,,,,,,,,,,,,,,,,,,,,,,,,,,,,,,,,,,,,,,,,,,,,,,,,,,,,,,,,,,,,,,,,
,,,,,,603e51684835eaca90562e76,62c53a7d710891b46175a7d9,2022-07-06_09h43.02.054,Colour_Asymmetry_Pilot,2022.1.3,Win32,61.17704637,62c50e9c1127f2cd403a315f,0,1,1,155,1,twofour,,,,,,,,,,,,,,,,,,,,,,,,,,,,,,,,,,,,,,,,,,,,,,,,,,,,,,,,,,,,,,,,,,,,,,,,,,,,,,,,,,,,,,,,,,,,,,,,,,,,,,,,,,,,,,,,,,,,,,,,,,,,,,,,,,,,,,,,,,,,,,,,,,,,,,,,,,,,,
,,,,,,603e51684835eaca90562e76,62c53a7d710891b46175a7d9,2022-07-06_09h43.02.054,Colour_Asymmetry_Pilot,2022.1.3,Win32,61.17704637,62c50e9c1127f2cd403a315f,0,2,2,132,1,threeone,,,,,,,,,,,,,,,,,,,,,,,,,,,,,,,,,,,,,,,,,,,,,,,,,,,,,,,,,,,,,,,,,,,,,,,,,,,,,,,,,,,,,,,,,,,,,,,,,,,,,,,,,,,,,,,,,,,,,,,,,,,,,,,,,,,,,,,,,,,,,,,,,,,,,,,,,,,,,
,,,,,,603e51684835eaca90562e76,62c53a7d710891b46175a7d9,2022-07-06_09h43.02.054,Colour_Asymmetry_Pilot,2022.1.3,Win32,61.17704637,62c50e9c1127f2cd403a315f,0,3,3,81,1,onethree,,,,,,,,,,,,,,,,,,,,,,,,,,,,,,,,,,,,,,,,,,,,,,,,,,,,,,,,,,,,,,,,,,,,,,,,,,,,,,,,,,,,,,,,,,,,,,,,,,,,,,,,,,,,,,,,,,,,,,,,,,,,,,,,,,,,,,,,,,,,,,,,,,,,,,,,,,,,,
,,,,,,603e51684835eaca90562e76,62c53a7d710891b46175a7d9,2022-07-06_09h43.02.054,Colour_Asymmetry_Pilot,2022.1.3,Win32,61.17704637,62c50e9c1127f2cd403a315f,0,4,4,122,1,twoone,,,,,,,,,,,,,,,,,,,,,,,,,,,,,,,,,,,,,,,,,,,,,,,,,,,,,,,,,,,,,,,,,,,,,,,,,,,,,,,,,,,,,,,,,,,,,,,,,,,,,,,,,,,,,,,,,,,,,,,,,,,,,,,,,,,,,,,,,,,,,,,,,,,,,,,,,,,,,
,,,,,,603e51684835eaca90562e76,62c53a7d710891b46175a7d9,2022-07-06_09h43.02.054,Colour_Asymmetry_Pilot,2022.1.3,Win32,61.17704637,62c50e9c1127f2cd403a315f,0,5,5,144,1,onetwo,,,,,,,,,,,,,,,,,,,,,,,,,,,,,,,,,,,,,,,,,,,,,,,,,,,,,,,,,,,,,,,,,,,,,,,,,,,,,,,,,,,,,,,,,,,,,,,,,,,,,,,,,,,,,,,,,,,,,,,,,,,,,,,,,,,,,,,,,,,,,,,,,,,,,,,,,,,,,
,,,,,,603e51684835eaca90562e76,62c53a7d710891b46175a7d9,2022-07-06_09h43.02.054,Colour_Asymmetry_Pilot,2022.1.3,Win32,61.17704637,62c50e9c1127f2cd403a315f,0,6,6,115,1,twofour,,,,,,,,,,,,,,,,,,,,,,,,,,,,,,,,,,,,,,,,,,,,,,,,,,,,,,,,,,,,,,,,,,,,,,,,,,,,,,,,,,,,,,,,,,,,,,,,,,,,,,,,,,,,,,,,,,,,,,,,,,,,,,,,,,,,,,,,,,,,,,,,,,,,,,,,,,,,,
,,,,,,603e51684835eaca90562e76,62c53a7d710891b46175a7d9,2022-07-06_09h43.02.054,Colour_Asymmetry_Pilot,2022.1.3,Win32,61.17704637,62c50e9c1127f2cd403a315f,0,7,7,4,1,threeone,,,,,,,,,,,,,,,,,,,,,,,,,,,,,,,,,,,,,,,,,,,,,,,,,,,,,,,,,,,,,,,,,,,,,,,,,,,,,,,,,,,,,,,,,,,,,,,,,,,,,,,,,,,,,,,,,,,,,,,,,,,,,,,,,,,,,,,,,,,,,,,,,,,,,,,,,,,,,
,,,,,,603e51684835eaca90562e76,62c53a7d710891b46175a7d9,2022-07-06_09h43.02.054,Colour_Asymmetry_Pilot,2022.1.3,Win32,61.17704637,62c50e9c1127f2cd403a315f,0,8,8,123,1,twofour,,,,,,,,,,,,,,,,,,,,,,,,,,,,,,,,,,,,,,,,,,,,,,,,,,,,,,,,,,,,,,,,,,,,,,,,,,,,,,,,,,,,,,,,,,,,,,,,,,,,,,,,,,,,,,,,,,,,,,,,,,,,,,,,,,,,,,,,,,,,,,,,,,,,,,,,,,,,,
,,,,,,603e51684835eaca90562e76,62c53a7d710891b46175a7d9,2022-07-06_09h43.02.054,Colour_Asymmetry_Pilot,2022.1.3,Win32,61.17704637,62c50e9c1127f2cd403a315f,0,9,9,99,1,twofour,,,,,,,,,,,,,,,,,,,,,,,,,,,,,,,,,,,,,,,,,,,,,,,,,,,,,,,,,,,,,,,,,,,,,,,,,,,,,,,,,,,,,,,,,,,,,,,,,,,,,,,,,,,,,,,,,,,,,,,,,,,,,,,,,,,,,,,,,,,,,,,,,,,,,,,,,,,,,
,,,,,,603e51684835eaca90562e76,62c53a7d710891b46175a7d9,2022-07-06_09h43.02.054,Colour_Asymmetry_Pilot,2022.1.3,Win32,61.17704637,62c50e9c1127f2cd403a315f,0,10,10,150,1,fourtwo,,,,,,,,,,,,,,,,,,,,,,,,,,,,,,,,,,,,,,,,,,,,,,,,,,,,,,,,,,,,,,,,,,,,,,,,,,,,,,,,,,,,,,,,,,,,,,,,,,,,,,,,,,,,,,,,,,,,,,,,,,,,,,,,,,,,,,,,,,,,,,,,,,,,,,,,,,,,,
,,,,,,603e51684835eaca90562e76,62c53a7d710891b46175a7d9,2022-07-06_09h43.02.054,Colour_Asymmetry_Pilot,2022.1.3,Win32,61.17704637,62c50e9c1127f2cd403a315f,0,11,11,38,1,fourtwo,,,,,,,,,,,,,,,,,,,,,,,,,,,,,,,,,,,,,,,,,,,,,,,,,,,,,,,,,,,,,,,,,,,,,,,,,,,,,,,,,,,,,,,,,,,,,,,,,,,,,,,,,,,,,,,,,,,,,,,,,,,,,,,,,,,,,,,,,,,,,,,,,,,,,,,,,,,,,
,,,,,,603e51684835eaca90562e76,62c53a7d710891b46175a7d9,2022-07-06_09h43.02.054,Colour_Asymmetry_Pilot,2022.1.3,Win32,61.17704637,62c50e9c1127f2cd403a315f,0,12,12,160,1,onetwo,,,,,,,,,,,,,,,,,,,,,,,,,,,,,,,,,,,,,,,,,,,,,,,,,,,,,,,,,,,,,,,,,,,,,,,,,,,,,,,,,,,,,,,,,,,,,,,,,,,,,,,,,,,,,,,,,,,,,,,,,,,,,,,,,,,,,,,,,,,,,,,,,,,,,,,,,,,,,
,,,,,,603e51684835eaca90562e76,62c53a7d710891b46175a7d9,2022-07-06_09h43.02.054,Colour_Asymmetry_Pilot,2022.1.3,Win32,61.17704637,62c50e9c1127f2cd403a315f,0,13,13,36,1,threeone,,,,,,,,,,,,,,,,,,,,,,,,,,,,,,,,,,,,,,,,,,,,,,,,,,,,,,,,,,,,,,,,,,,,,,,,,,,,,,,,,,,,,,,,,,,,,,,,,,,,,,,,,,,,,,,,,,,,,,,,,,,,,,,,,,,,,,,,,,,,,,,,,,,,,,,,,,,,,
,,,,,,603e51684835eaca90562e76,62c53a7d710891b46175a7d9,2022-07-06_09h43.02.054,Colour_Asymmetry_Pilot,2022.1.3,Win32,61.17704637,62c50e9c1127f2cd403a315f,0,14,14,152,1,onetwo,,,,,,,,,,,,,,,,,,,,,,,,,,,,,,,,,,,,,,,,,,,,,,,,,,,,,,,,,,,,,,,,,,,,,,,,,,,,,,,,,,,,,,,,,,,,,,,,,,,,,,,,,,,,,,,,,,,,,,,,,,,,,,,,,,,,,,,,,,,,,,,,,,,,,,,,,,,,,
,,,,,,603e51684835eaca90562e76,62c53a7d710891b46175a7d9,2022-07-06_09h43.02.054,Colour_Asymmetry_Pilot,2022.1.3,Win32,61.17704637,62c50e9c1127f2cd403a315f,0,15,15,108,1,threeone,,,,,,,,,,,,,,,,,,,,,,,,,,,,,,,,,,,,,,,,,,,,,,,,,,,,,,,,,,,,,,,,,,,,,,,,,,,,,,,,,,,,,,,,,,,,,,,,,,,,,,,,,,,,,,,,,,,,,,,,,,,,,,,,,,,,,,,,,,,,,,,,,,,,,,,,,,,,,
,,,,,,603e51684835eaca90562e76,62c53a7d710891b46175a7d9,2022-07-06_09h43.02.054,Colour_Asymmetry_Pilot,2022.1.3,Win32,61.17704637,62c50e9c1127f2cd403a315f,0,16,16,141,1,threefour,,,,,,,,,,,,,,,,,,,,,,,,,,,,,,,,,,,,,,,,,,,,,,,,,,,,,,,,,,,,,,,,,,,,,,,,,,,,,,,,,,,,,,,,,,,,,,,,,,,,,,,,,,,,,,,,,,,,,,,,,,,,,,,,,,,,,,,,,,,,,,,,,,,,,,,,,,,,,
,,,,,,603e51684835eaca90562e76,62c53a7d710891b46175a7d9,2022-07-06_09h43.02.054,Colour_Asymmetry_Pilot,2022.1.3,Win32,61.17704637,62c50e9c1127f2cd403a315f,0,17,17,5,1,threefour,,,,,,,,,,,,,,,,,,,,,,,,,,,,,,,,,,,,,,,,,,,,,,,,,,,,,,,,,,,,,,,,,,,,,,,,,,,,,,,,,,,,,,,,,,,,,,,,,,,,,,,,,,,,,,,,,,,,,,,,,,,,,,,,,,,,,,,,,,,,,,,,,,,,,,,,,,,,,
,,,,,,603e51684835eaca90562e76,62c53a7d710891b46175a7d9,2022-07-06_09h43.02.054,Colour_Asymmetry_Pilot,2022.1.3,Win32,61.17704637,62c50e9c1127f2cd403a315f,0,18,18,161,1,onethree,,,,,,,,,,,,,,,,,,,,,,,,,,,,,,,,,,,,,,,,,,,,,,,,,,,,,,,,,,,,,,,,,,,,,,,,,,,,,,,,,,,,,,,,,,,,,,,,,,,,,,,,,,,,,,,,,,,,,,,,,,,,,,,,,,,,,,,,,,,,,,,,,,,,,,,,,,,,,
,,,,,,603e51684835eaca90562e76,62c53a7d710891b46175a7d9,2022-07-06_09h43.02.054,Colour_Asymmetry_Pilot,2022.1.3,Win32,61.17704637,62c50e9c1127f2cd403a315f,0,19,19,140,1,threeone,,,,,,,,,,,,,,,,,,,,,,,,,,,,,,,,,,,,,,,,,,,,,,,,,,,,,,,,,,,,,,,,,,,,,,,,,,,,,,,,,,,,,,,,,,,,,,,,,,,,,,,,,,,,,,,,,,,,,,,,,,,,,,,,,,,,,,,,,,,,,,,,,,,,,,,,,,,,,
,,,,,,603e51684835eaca90562e76,62c53a7d710891b46175a7d9,2022-07-06_09h43.02.054,Colour_Asymmetry_Pilot,2022.1.3,Win32,61.17704637,62c50e9c1127f2cd403a315f,0,20,20,158,1,fourtwo,,,,,,,,,,,,,,,,,,,,,,,,,,,,,,,,,,,,,,,,,,,,,,,,,,,,,,,,,,,,,,,,,,,,,,,,,,,,,,,,,,,,,,,,,,,,,,,,,,,,,,,,,,,,,,,,,,,,,,,,,,,,,,,,,,,,,,,,,,,,,,,,,,,,,,,,,,,,,
,,,,,,603e51684835eaca90562e76,62c53a7d710891b46175a7d9,2022-07-06_09h43.02.054,Colour_Asymmetry_Pilot,2022.1.3,Win32,61.17704637,62c50e9c1127f2cd403a315f,0,21,21,44,1,threeone,,,,,,,,,,,,,,,,,,,,,,,,,,,,,,,,,,,,,,,,,,,,,,,,,,,,,,,,,,,,,,,,,,,,,,,,,,,,,,,,,,,,,,,,,,,,,,,,,,,,,,,,,,,,,,,,,,,,,,,,,,,,,,,,,,,,,,,,,,,,,,,,,,,,,,,,,,,,,
,,,,,,603e51684835eaca90562e76,62c53a7d710891b46175a7d9,2022-07-06_09h43.02.054,Colour_Asymmetry_Pilot,2022.1.3,Win32,61.17704637,62c50e9c1127f2cd403a315f,0,22,22,102,1,fourtwo,,,,,,,,,,,,,,,,,,,,,,,,,,,,,,,,,,,,,,,,,,,,,,,,,,,,,,,,,,,,,,,,,,,,,,,,,,,,,,,,,,,,,,,,,,,,,,,,,,,,,,,,,,,,,,,,,,,,,,,,,,,,,,,,,,,,,,,,,,,,,,,,,,,,,,,,,,,,,
,,,,,,603e51684835eaca90562e76,62c53a7d710891b46175a7d9,2022-07-06_09h43.02.054,Colour_Asymmetry_Pilot,2022.1.3,Win32,61.17704637,62c50e9c1127f2cd403a315f,0,23,23,19,1,twofour,,,,,,,,,,,,,,,,,,,,,,,,,,,,,,,,,,,,,,,,,,,,,,,,,,,,,,,,,,,,,,,,,,,,,,,,,,,,,,,,,,,,,,,,,,,,,,,,,,,,,,,,,,,,,,,,,,,,,,,,,,,,,,,,,,,,,,,,,,,,,,,,,,,,,,,,,,,,,
,,,,,,603e51684835eaca90562e76,62c53a7d710891b46175a7d9,2022-07-06_09h43.02.054,Colour_Asymmetry_Pilot,2022.1.3,Win32,61.17704637,62c50e9c1127f2cd403a315f,0,24,24,138,1,twoone,,,,,,,,,,,,,,,,,,,,,,,,,,,,,,,,,,,,,,,,,,,,,,,,,,,,,,,,,,,,,,,,,,,,,,,,,,,,,,,,,,,,,,,,,,,,,,,,,,,,,,,,,,,,,,,,,,,,,,,,,,,,,,,,,,,,,,,,,,,,,,,,,,,,,,,,,,,,,
,,,,,,603e51684835eaca90562e76,62c53a7d710891b46175a7d9,2022-07-06_09h43.02.054,Colour_Asymmetry_Pilot,2022.1.3,Win32,61.17704637,62c50e9c1127f2cd403a315f,0,25,25,151,1,fourthree,,,,,,,,,,,,,,,,,,,,,,,,,,,,,,,,,,,,,,,,,,,,,,,,,,,,,,,,,,,,,,,,,,,,,,,,,,,,,,,,,,,,,,,,,,,,,,,,,,,,,,,,,,,,,,,,,,,,,,,,,,,,,,,,,,,,,,,,,,,,,,,,,,,,,,,,,,,,,
,,,,,,603e51684835eaca90562e76,62c53a7d710891b46175a7d9,2022-07-06_09h43.02.054,Colour_Asymmetry_Pilot,2022.1.3,Win32,61.17704637,62c50e9c1127f2cd403a315f,0,26,26,133,1,threefour,,,,,,,,,,,,,,,,,,,,,,,,,,,,,,,,,,,,,,,,,,,,,,,,,,,,,,,,,,,,,,,,,,,,,,,,,,,,,,,,,,,,,,,,,,,,,,,,,,,,,,,,,,,,,,,,,,,,,,,,,,,,,,,,,,,,,,,,,,,,,,,,,,,,,,,,,,,,,
,,,,,,603e51684835eaca90562e76,62c53a7d710891b46175a7d9,2022-07-06_09h43.02.054,Colour_Asymmetry_Pilot,2022.1.3,Win32,61.17704637,62c50e9c1127f2cd403a315f,0,27,27,1,1,onethree,,,,,,,,,,,,,,,,,,,,,,,,,,,,,,,,,,,,,,,,,,,,,,,,,,,,,,,,,,,,,,,,,,,,,,,,,,,,,,,,,,,,,,,,,,,,,,,,,,,,,,,,,,,,,,,,,,,,,,,,,,,,,,,,,,,,,,,,,,,,,,,,,,,,,,,,,,,,,
,,,,,,603e51684835eaca90562e76,62c53a7d710891b46175a7d9,2022-07-06_09h43.02.054,Colour_Asymmetry_Pilot,2022.1.3,Win32,61.17704637,62c50e9c1127f2cd403a315f,0,28,28,114,1,twoone,,,,,,,,,,,,,,,,,,,,,,,,,,,,,,,,,,,,,,,,,,,,,,,,,,,,,,,,,,,,,,,,,,,,,,,,,,,,,,,,,,,,,,,,,,,,,,,,,,,,,,,,,,,,,,,,,,,,,,,,,,,,,,,,,,,,,,,,,,,,,,,,,,,,,,,,,,,,,
,,,,,,603e51684835eaca90562e76,62c53a7d710891b46175a7d9,2022-07-06_09h43.02.054,Colour_Asymmetry_Pilot,2022.1.3,Win32,61.17704637,62c50e9c1127f2cd403a315f,0,29,29,125,1,threefour,,,,,,,,,,,,,,,,,,,,,,,,,,,,,,,,,,,,,,,,,,,,,,,,,,,,,,,,,,,,,,,,,,,,,,,,,,,,,,,,,,,,,,,,,,,,,,,,,,,,,,,,,,,,,,,,,,,,,,,,,,,,,,,,,,,,,,,,,,,,,,,,,,,,,,,,,,,,,
,,,,,,603e51684835eaca90562e76,62c53a7d710891b46175a7d9,2022-07-06_09h43.02.054,Colour_Asymmetry_Pilot,2022.1.3,Win32,61.17704637,62c50e9c1127f2cd403a315f,0,30,30,33,1,onethree,,,,,,,,,,,,,,,,,,,,,,,,,,,,,,,,,,,,,,,,,,,,,,,,,,,,,,,,,,,,,,,,,,,,,,,,,,,,,,,,,,,,,,,,,,,,,,,,,,,,,,,,,,,,,,,,,,,,,,,,,,,,,,,,,,,,,,,,,,,,,,,,,,,,,,,,,,,,,
,,,,,,603e51684835eaca90562e76,62c53a7d710891b46175a7d9,2022-07-06_09h43.02.054,Colour_Asymmetry_Pilot,2022.1.3,Win32,61.17704637,62c50e9c1127f2cd403a315f,0,31,31,10,1,twoone,,,,,,,,,,,,,,,,,,,,,,,,,,,,,,,,,,,,,,,,,,,,,,,,,,,,,,,,,,,,,,,,,,,,,,,,,,,,,,,,,,,,,,,,,,,,,,,,,,,,,,,,,,,,,,,,,,,,,,,,,,,,,,,,,,,,,,,,,,,,,,,,,,,,,,,,,,,,,
,,,,,,603e51684835eaca90562e76,62c53a7d710891b46175a7d9,2022-07-06_09h43.02.054,Colour_Asymmetry_Pilot,2022.1.3,Win32,61.17704637,62c50e9c1127f2cd403a315f,0,32,32,79,1,fourthree,,,,,,,,,,,,,,,,,,,,,,,,,,,,,,,,,,,,,,,,,,,,,,,,,,,,,,,,,,,,,,,,,,,,,,,,,,,,,,,,,,,,,,,,,,,,,,,,,,,,,,,,,,,,,,,,,,,,,,,,,,,,,,,,,,,,,,,,,,,,,,,,,,,,,,,,,,,,,
,,,,,,603e51684835eaca90562e76,62c53a7d710891b46175a7d9,2022-07-06_09h43.02.054,Colour_Asymmetry_Pilot,2022.1.3,Win32,61.17704637,62c50e9c1127f2cd403a315f,0,33,33,119,1,fourthree,,,,,,,,,,,,,,,,,,,,,,,,,,,,,,,,,,,,,,,,,,,,,,,,,,,,,,,,,,,,,,,,,,,,,,,,,,,,,,,,,,,,,,,,,,,,,,,,,,,,,,,,,,,,,,,,,,,,,,,,,,,,,,,,,,,,,,,,,,,,,,,,,,,,,,,,,,,,,
,,,,,,603e51684835eaca90562e76,62c53a7d710891b46175a7d9,2022-07-06_09h43.02.054,Colour_Asymmetry_Pilot,2022.1.3,Win32,61.17704637,62c50e9c1127f2cd403a315f,0,34,34,117,1,threefour,,,,,,,,,,,,,,,,,,,,,,,,,,,,,,,,,,,,,,,,,,,,,,,,,,,,,,,,,,,,,,,,,,,,,,,,,,,,,,,,,,,,,,,,,,,,,,,,,,,,,,,,,,,,,,,,,,,,,,,,,,,,,,,,,,,,,,,,,,,,,,,,,,,,,,,,,,,,,
,,,,,,603e51684835eaca90562e76,62c53a7d710891b46175a7d9,2022-07-06_09h43.02.054,Colour_Asymmetry_Pilot,2022.1.3,Win32,61.17704637,62c50e9c1127f2cd403a315f,0,35,35,20,1,threeone,,,,,,,,,,,,,,,,,,,,,,,,,,,,,,,,,,,,,,,,,,,,,,,,,,,,,,,,,,,,,,,,,,,,,,,,,,,,,,,,,,,,,,,,,,,,,,,,,,,,,,,,,,,,,,,,,,,,,,,,,,,,,,,,,,,,,,,,,,,,,,,,,,,,,,,,,,,,,
,,,,,,603e51684835eaca90562e76,62c53a7d710891b46175a7d9,2022-07-06_09h43.02.054,Colour_Asymmetry_Pilot,2022.1.3,Win32,61.17704637,62c50e9c1127f2cd403a315f,0,36,36,147,1,twofour,,,,,,,,,,,,,,,,,,,,,,,,,,,,,,,,,,,,,,,,,,,,,,,,,,,,,,,,,,,,,,,,,,,,,,,,,,,,,,,,,,,,,,,,,,,,,,,,,,,,,,,,,,,,,,,,,,,,,,,,,,,,,,,,,,,,,,,,,,,,,,,,,,,,,,,,,,,,,
,,,,,,603e51684835eaca90562e76,62c53a7d710891b46175a7d9,2022-07-06_09h43.02.054,Colour_Asymmetry_Pilot,2022.1.3,Win32,61.17704637,62c50e9c1127f2cd403a315f,0,37,37,80,1,onetwo,,,,,,,,,,,,,,,,,,,,,,,,,,,,,,,,,,,,,,,,,,,,,,,,,,,,,,,,,,,,,,,,,,,,,,,,,,,,,,,,,,,,,,,,,,,,,,,,,,,,,,,,,,,,,,,,,,,,,,,,,,,,,,,,,,,,,,,,,,,,,,,,,,,,,,,,,,,,,
,,,,,,603e51684835eaca90562e76,62c53a7d710891b46175a7d9,2022-07-06_09h43.02.054,Colour_Asymmetry_Pilot,2022.1.3,Win32,61.17704637,62c50e9c1127f2cd403a315f,0,38,38,18,1,twoone,,,,,,,,,,,,,,,,,,,,,,,,,,,,,,,,,,,,,,,,,,,,,,,,,,,,,,,,,,,,,,,,,,,,,,,,,,,,,,,,,,,,,,,,,,,,,,,,,,,,,,,,,,,,,,,,,,,,,,,,,,,,,,,,,,,,,,,,,,,,,,,,,,,,,,,,,,,,,
,,,,,,603e51684835eaca90562e76,62c53a7d710891b46175a7d9,2022-07-06_09h43.02.054,Colour_Asymmetry_Pilot,2022.1.3,Win32,61.17704637,62c50e9c1127f2cd403a315f,0,39,39,128,1,onetwo,,,,,,,,,,,,,,,,,,,,,,,,,,,,,,,,,,,,,,,,,,,,,,,,,,,,,,,,,,,,,,,,,,,,,,,,,,,,,,,,,,,,,,,,,,,,,,,,,,,,,,,,,,,,,,,,,,,,,,,,,,,,,,,,,,,,,,,,,,,,,,,,,,,,,,,,,,,,,
,,,,,,603e51684835eaca90562e76,62c53a7d710891b46175a7d9,2022-07-06_09h43.02.054,Colour_Asymmetry_Pilot,2022.1.3,Win32,61.17704637,62c50e9c1127f2cd403a315f,0,40,40,14,1,fourtwo,,,,,,,,,,,,,,,,,,,,,,,,,,,,,,,,,,,,,,,,,,,,,,,,,,,,,,,,,,,,,,,,,,,,,,,,,,,,,,,,,,,,,,,,,,,,,,,,,,,,,,,,,,,,,,,,,,,,,,,,,,,,,,,,,,,,,,,,,,,,,,,,,,,,,,,,,,,,,
,,,,,,603e51684835eaca90562e76,62c53a7d710891b46175a7d9,2022-07-06_09h43.02.054,Colour_Asymmetry_Pilot,2022.1.3,Win32,61.17704637,62c50e9c1127f2cd403a315f,0,41,41,75,1,twofour,,,,,,,,,,,,,,,,,,,,,,,,,,,,,,,,,,,,,,,,,,,,,,,,,,,,,,,,,,,,,,,,,,,,,,,,,,,,,,,,,,,,,,,,,,,,,,,,,,,,,,,,,,,,,,,,,,,,,,,,,,,,,,,,,,,,,,,,,,,,,,,,,,,,,,,,,,,,,
,,,,,,603e51684835eaca90562e76,62c53a7d710891b46175a7d9,2022-07-06_09h43.02.054,Colour_Asymmetry_Pilot,2022.1.3,Win32,61.17704637,62c50e9c1127f2cd403a315f,0,42,42,22,1,fourtwo,,,,,,,,,,,,,,,,,,,,,,,,,,,,,,,,,,,,,,,,,,,,,,,,,,,,,,,,,,,,,,,,,,,,,,,,,,,,,,,,,,,,,,,,,,,,,,,,,,,,,,,,,,,,,,,,,,,,,,,,,,,,,,,,,,,,,,,,,,,,,,,,,,,,,,,,,,,,,
,,,,,,603e51684835eaca90562e76,62c53a7d710891b46175a7d9,2022-07-06_09h43.02.054,Colour_Asymmetry_Pilot,2022.1.3,Win32,61.17704637,62c50e9c1127f2cd403a315f,0,43,43,69,1,threefour,,,,,,,,,,,,,,,,,,,,,,,,,,,,,,,,,,,,,,,,,,,,,,,,,,,,,,,,,,,,,,,,,,,,,,,,,,,,,,,,,,,,,,,,,,,,,,,,,,,,,,,,,,,,,,,,,,,,,,,,,,,,,,,,,,,,,,,,,,,,,,,,,,,,,,,,,,,,,
,,,,,,603e51684835eaca90562e76,62c53a7d710891b46175a7d9,2022-07-06_09h43.02.054,Colour_Asymmetry_Pilot,2022.1.3,Win32,61.17704637,62c50e9c1127f2cd403a315f,0,44,44,121,1,onethree,,,,,,,,,,,,,,,,,,,,,,,,,,,,,,,,,,,,,,,,,,,,,,,,,,,,,,,,,,,,,,,,,,,,,,,,,,,,,,,,,,,,,,,,,,,,,,,,,,,,,,,,,,,,,,,,,,,,,,,,,,,,,,,,,,,,,,,,,,,,,,,,,,,,,,,,,,,,,
,,,,,,603e51684835eaca90562e76,62c53a7d710891b46175a7d9,2022-07-06_09h43.02.054,Colour_Asymmetry_Pilot,2022.1.3,Win32,61.17704637,62c50e9c1127f2cd403a315f,0,45,45,93,1,threefour,,,,,,,,,,,,,,,,,,,,,,,,,,,,,,,,,,,,,,,,,,,,,,,,,,,,,,,,,,,,,,,,,,,,,,,,,,,,,,,,,,,,,,,,,,,,,,,,,,,,,,,,,,,,,,,,,,,,,,,,,,,,,,,,,,,,,,,,,,,,,,,,,,,,,,,,,,,,,
,,,,,,603e51684835eaca90562e76,62c53a7d710891b46175a7d9,2022-07-06_09h43.02.054,Colour_Asymmetry_Pilot,2022.1.3,Win32,61.17704637,62c50e9c1127f2cd403a315f,0,46,46,31,1,fourthree,,,,,,,,,,,,,,,,,,,,,,,,,,,,,,,,,,,,,,,,,,,,,,,,,,,,,,,,,,,,,,,,,,,,,,,,,,,,,,,,,,,,,,,,,,,,,,,,,,,,,,,,,,,,,,,,,,,,,,,,,,,,,,,,,,,,,,,,,,,,,,,,,,,,,,,,,,,,,
,,,,,,603e51684835eaca90562e76,62c53a7d710891b46175a7d9,2022-07-06_09h43.02.054,Colour_Asymmetry_Pilot,2022.1.3,Win32,61.17704637,62c50e9c1127f2cd403a315f,0,47,47,54,1,fourtwo,,,,,,,,,,,,,,,,,,,,,,,,,,,,,,,,,,,,,,,,,,,,,,,,,,,,,,,,,,,,,,,,,,,,,,,,,,,,,,,,,,,,,,,,,,,,,,,,,,,,,,,,,,,,,,,,,,,,,,,,,,,,,,,,,,,,,,,,,,,,,,,,,,,,,,,,,,,,,
,,,,,,603e51684835eaca90562e76,62c53a7d710891b46175a7d9,2022-07-06_09h43.02.054,Colour_Asymmetry_Pilot,2022.1.3,Win32,61.17704637,62c50e9c1127f2cd403a315f,0,48,48,51,1,twofour,,,,,,,,,,,,,,,,,,,,,,,,,,,,,,,,,,,,,,,,,,,,,,,,,,,,,,,,,,,,,,,,,,,,,,,,,,,,,,,,,,,,,,,,,,,,,,,,,,,,,,,,,,,,,,,,,,,,,,,,,,,,,,,,,,,,,,,,,,,,,,,,,,,,,,,,,,,,,
,,,,,,603e51684835eaca90562e76,62c53a7d710891b46175a7d9,2022-07-06_09h43.02.054,Colour_Asymmetry_Pilot,2022.1.3,Win32,61.17704637,62c50e9c1127f2cd403a315f,0,49,49,43,1,twofour,,,,,,,,,,,,,,,,,,,,,,,,,,,,,,,,,,,,,,,,,,,,,,,,,,,,,,,,,,,,,,,,,,,,,,,,,,,,,,,,,,,,,,,,,,,,,,,,,,,,,,,,,,,,,,,,,,,,,,,,,,,,,,,,,,,,,,,,,,,,,,,,,,,,,,,,,,,,,
,,,,,,603e51684835eaca90562e76,62c53a7d710891b46175a7d9,2022-07-06_09h43.02.054,Colour_Asymmetry_Pilot,2022.1.3,Win32,61.17704637,62c50e9c1127f2cd403a315f,0,50,50,61,1,threefour,,,,,,,,,,,,,,,,,,,,,,,,,,,,,,,,,,,,,,,,,,,,,,,,,,,,,,,,,,,,,,,,,,,,,,,,,,,,,,,,,,,,,,,,,,,,,,,,,,,,,,,,,,,,,,,,,,,,,,,,,,,,,,,,,,,,,,,,,,,,,,,,,,,,,,,,,,,,,
,,,,,,603e51684835eaca90562e76,62c53a7d710891b46175a7d9,2022-07-06_09h43.02.054,Colour_Asymmetry_Pilot,2022.1.3,Win32,61.17704637,62c50e9c1127f2cd403a315f,0,51,51,90,1,twoone,,,,,,,,,,,,,,,,,,,,,,,,,,,,,,,,,,,,,,,,,,,,,,,,,,,,,,,,,,,,,,,,,,,,,,,,,,,,,,,,,,,,,,,,,,,,,,,,,,,,,,,,,,,,,,,,,,,,,,,,,,,,,,,,,,,,,,,,,,,,,,,,,,,,,,,,,,,,,
,,,,,,603e51684835eaca90562e76,62c53a7d710891b46175a7d9,2022-07-06_09h43.02.054,Colour_Asymmetry_Pilot,2022.1.3,Win32,61.17704637,62c50e9c1127f2cd403a315f,0,52,52,40,1,onetwo,,,,,,,,,,,,,,,,,,,,,,,,,,,,,,,,,,,,,,,,,,,,,,,,,,,,,,,,,,,,,,,,,,,,,,,,,,,,,,,,,,,,,,,,,,,,,,,,,,,,,,,,,,,,,,,,,,,,,,,,,,,,,,,,,,,,,,,,,,,,,,,,,,,,,,,,,,,,,
,,,,,,603e51684835eaca90562e76,62c53a7d710891b46175a7d9,2022-07-06_09h43.02.054,Colour_Asymmetry_Pilot,2022.1.3,Win32,61.17704637,62c50e9c1127f2cd403a315f,0,53,53,78,1,fourtwo,,,,,,,,,,,,,,,,,,,,,,,,,,,,,,,,,,,,,,,,,,,,,,,,,,,,,,,,,,,,,,,,,,,,,,,,,,,,,,,,,,,,,,,,,,,,,,,,,,,,,,,,,,,,,,,,,,,,,,,,,,,,,,,,,,,,,,,,,,,,,,,,,,,,,,,,,,,,,
,,,,,,603e51684835eaca90562e76,62c53a7d710891b46175a7d9,2022-07-06_09h43.02.054,Colour_Asymmetry_Pilot,2022.1.3,Win32,61.17704637,62c50e9c1127f2cd403a315f,0,54,54,27,1,twofour,,,,,,,,,,,,,,,,,,,,,,,,,,,,,,,,,,,,,,,,,,,,,,,,,,,,,,,,,,,,,,,,,,,,,,,,,,,,,,,,,,,,,,,,,,,,,,,,,,,,,,,,,,,,,,,,,,,,,,,,,,,,,,,,,,,,,,,,,,,,,,,,,,,,,,,,,,,,,
,,,,,,603e51684835eaca90562e76,62c53a7d710891b46175a7d9,2022-07-06_09h43.02.054,Colour_Asymmetry_Pilot,2022.1.3,Win32,61.17704637,62c50e9c1127f2cd403a315f,0,55,55,134,1,fourtwo,,,,,,,,,,,,,,,,,,,,,,,,,,,,,,,,,,,,,,,,,,,,,,,,,,,,,,,,,,,,,,,,,,,,,,,,,,,,,,,,,,,,,,,,,,,,,,,,,,,,,,,,,,,,,,,,,,,,,,,,,,,,,,,,,,,,,,,,,,,,,,,,,,,,,,,,,,,,,
,,,,,,603e51684835eaca90562e76,62c53a7d710891b46175a7d9,2022-07-06_09h43.02.054,Colour_Asymmetry_Pilot,2022.1.3,Win32,61.17704637,62c50e9c1127f2cd403a315f,0,56,56,49,1,onethree,,,,,,,,,,,,,,,,,,,,,,,,,,,,,,,,,,,,,,,,,,,,,,,,,,,,,,,,,,,,,,,,,,,,,,,,,,,,,,,,,,,,,,,,,,,,,,,,,,,,,,,,,,,,,,,,,,,,,,,,,,,,,,,,,,,,,,,,,,,,,,,,,,,,,,,,,,,,,
,,,,,,603e51684835eaca90562e76,62c53a7d710891b46175a7d9,2022-07-06_09h43.02.054,Colour_Asymmetry_Pilot,2022.1.3,Win32,61.17704637,62c50e9c1127f2cd403a315f,0,57,57,47,1,fourthree,,,,,,,,,,,,,,,,,,,,,,,,,,,,,,,,,,,,,,,,,,,,,,,,,,,,,,,,,,,,,,,,,,,,,,,,,,,,,,,,,,,,,,,,,,,,,,,,,,,,,,,,,,,,,,,,,,,,,,,,,,,,,,,,,,,,,,,,,,,,,,,,,,,,,,,,,,,,,
,,,,,,603e51684835eaca90562e76,62c53a7d710891b46175a7d9,2022-07-06_09h43.02.054,Colour_Asymmetry_Pilot,2022.1.3,Win32,61.17704637,62c50e9c1127f2cd403a315f,0,58,58,3,1,twofour,,,,,,,,,,,,,,,,,,,,,,,,,,,,,,,,,,,,,,,,,,,,,,,,,,,,,,,,,,,,,,,,,,,,,,,,,,,,,,,,,,,,,,,,,,,,,,,,,,,,,,,,,,,,,,,,,,,,,,,,,,,,,,,,,,,,,,,,,,,,,,,,,,,,,,,,,,,,,
,,,,,,603e51684835eaca90562e76,62c53a7d710891b46175a7d9,2022-07-06_09h43.02.054,Colour_Asymmetry_Pilot,2022.1.3,Win32,61.17704637,62c50e9c1127f2cd403a315f,0,59,59,148,1,threeone,,,,,,,,,,,,,,,,,,,,,,,,,,,,,,,,,,,,,,,,,,,,,,,,,,,,,,,,,,,,,,,,,,,,,,,,,,,,,,,,,,,,,,,,,,,,,,,,,,,,,,,,,,,,,,,,,,,,,,,,,,,,,,,,,,,,,,,,,,,,,,,,,,,,,,,,,,,,,
,,,,,,603e51684835eaca90562e76,62c53a7d710891b46175a7d9,2022-07-06_09h43.02.054,Colour_Asymmetry_Pilot,2022.1.3,Win32,61.17704637,62c50e9c1127f2cd403a315f,0,60,60,96,1,onetwo,,,,,,,,,,,,,,,,,,,,,,,,,,,,,,,,,,,,,,,,,,,,,,,,,,,,,,,,,,,,,,,,,,,,,,,,,,,,,,,,,,,,,,,,,,,,,,,,,,,,,,,,,,,,,,,,,,,,,,,,,,,,,,,,,,,,,,,,,,,,,,,,,,,,,,,,,,,,,
,,,,,,603e51684835eaca90562e76,62c53a7d710891b46175a7d9,2022-07-06_09h43.02.054,Colour_Asymmetry_Pilot,2022.1.3,Win32,61.17704637,62c50e9c1127f2cd403a315f,0,61,61,130,1,twoone,,,,,,,,,,,,,,,,,,,,,,,,,,,,,,,,,,,,,,,,,,,,,,,,,,,,,,,,,,,,,,,,,,,,,,,,,,,,,,,,,,,,,,,,,,,,,,,,,,,,,,,,,,,,,,,,,,,,,,,,,,,,,,,,,,,,,,,,,,,,,,,,,,,,,,,,,,,,,
,,,,,,603e51684835eaca90562e76,62c53a7d710891b46175a7d9,2022-07-06_09h43.02.054,Colour_Asymmetry_Pilot,2022.1.3,Win32,61.17704637,62c50e9c1127f2cd403a315f,0,62,62,98,1,twoone,,,,,,,,,,,,,,,,,,,,,,,,,,,,,,,,,,,,,,,,,,,,,,,,,,,,,,,,,,,,,,,,,,,,,,,,,,,,,,,,,,,,,,,,,,,,,,,,,,,,,,,,,,,,,,,,,,,,,,,,,,,,,,,,,,,,,,,,,,,,,,,,,,,,,,,,,,,,,
,,,,,,603e51684835eaca90562e76,62c53a7d710891b46175a7d9,2022-07-06_09h43.02.054,Colour_Asymmetry_Pilot,2022.1.3,Win32,61.17704637,62c50e9c1127f2cd403a315f,0,63,63,124,1,threeone,,,,,,,,,,,,,,,,,,,,,,,,,,,,,,,,,,,,,,,,,,,,,,,,,,,,,,,,,,,,,,,,,,,,,,,,,,,,,,,,,,,,,,,,,,,,,,,,,,,,,,,,,,,,,,,,,,,,,,,,,,,,,,,,,,,,,,,,,,,,,,,,,,,,,,,,,,,,,
,,,,,,603e51684835eaca90562e76,62c53a7d710891b46175a7d9,2022-07-06_09h43.02.054,Colour_Asymmetry_Pilot,2022.1.3,Win32,61.17704637,62c50e9c1127f2cd403a315f,0,64,64,87,1,fourthree,,,,,,,,,,,,,,,,,,,,,,,,,,,,,,,,,,,,,,,,,,,,,,,,,,,,,,,,,,,,,,,,,,,,,,,,,,,,,,,,,,,,,,,,,,,,,,,,,,,,,,,,,,,,,,,,,,,,,,,,,,,,,,,,,,,,,,,,,,,,,,,,,,,,,,,,,,,,,
,,,,,,603e51684835eaca90562e76,62c53a7d710891b46175a7d9,2022-07-06_09h43.02.054,Colour_Asymmetry_Pilot,2022.1.3,Win32,61.17704637,62c50e9c1127f2cd403a315f,0,65,65,34,1,twoone,,,,,,,,,,,,,,,,,,,,,,,,,,,,,,,,,,,,,,,,,,,,,,,,,,,,,,,,,,,,,,,,,,,,,,,,,,,,,,,,,,,,,,,,,,,,,,,,,,,,,,,,,,,,,,,,,,,,,,,,,,,,,,,,,,,,,,,,,,,,,,,,,,,,,,,,,,,,,
,,,,,,603e51684835eaca90562e76,62c53a7d710891b46175a7d9,2022-07-06_09h43.02.054,Colour_Asymmetry_Pilot,2022.1.3,Win32,61.17704637,62c50e9c1127f2cd403a315f,0,66,66,111,1,fourthree,,,,,,,,,,,,,,,,,,,,,,,,,,,,,,,,,,,,,,,,,,,,,,,,,,,,,,,,,,,,,,,,,,,,,,,,,,,,,,,,,,,,,,,,,,,,,,,,,,,,,,,,,,,,,,,,,,,,,,,,,,,,,,,,,,,,,,,,,,,,,,,,,,,,,,,,,,,,,
,,,,,,603e51684835eaca90562e76,62c53a7d710891b46175a7d9,2022-07-06_09h43.02.054,Colour_Asymmetry_Pilot,2022.1.3,Win32,61.17704637,62c50e9c1127f2cd403a315f,0,67,67,42,1,twoone,,,,,,,,,,,,,,,,,,,,,,,,,,,,,,,,,,,,,,,,,,,,,,,,,,,,,,,,,,,,,,,,,,,,,,,,,,,,,,,,,,,,,,,,,,,,,,,,,,,,,,,,,,,,,,,,,,,,,,,,,,,,,,,,,,,,,,,,,,,,,,,,,,,,,,,,,,,,,
,,,,,,603e51684835eaca90562e76,62c53a7d710891b46175a7d9,2022-07-06_09h43.02.054,Colour_Asymmetry_Pilot,2022.1.3,Win32,61.17704637,62c50e9c1127f2cd403a315f,0,68,68,95,1,fourthree,,,,,,,,,,,,,,,,,,,,,,,,,,,,,,,,,,,,,,,,,,,,,,,,,,,,,,,,,,,,,,,,,,,,,,,,,,,,,,,,,,,,,,,,,,,,,,,,,,,,,,,,,,,,,,,,,,,,,,,,,,,,,,,,,,,,,,,,,,,,,,,,,,,,,,,,,,,,,
,,,,,,603e51684835eaca90562e76,62c53a7d710891b46175a7d9,2022-07-06_09h43.02.054,Colour_Asymmetry_Pilot,2022.1.3,Win32,61.17704637,62c50e9c1127f2cd403a315f,0,69,69,64,1,onetwo,,,,,,,,,,,,,,,,,,,,,,,,,,,,,,,,,,,,,,,,,,,,,,,,,,,,,,,,,,,,,,,,,,,,,,,,,,,,,,,,,,,,,,,,,,,,,,,,,,,,,,,,,,,,,,,,,,,,,,,,,,,,,,,,,,,,,,,,,,,,,,,,,,,,,,,,,,,,,
,,,,,,603e51684835eaca90562e76,62c53a7d710891b46175a7d9,2022-07-06_09h43.02.054,Colour_Asymmetry_Pilot,2022.1.3,Win32,61.17704637,62c50e9c1127f2cd403a315f,0,70,70,62,1,fourtwo,,,,,,,,,,,,,,,,,,,,,,,,,,,,,,,,,,,,,,,,,,,,,,,,,,,,,,,,,,,,,,,,,,,,,,,,,,,,,,,,,,,,,,,,,,,,,,,,,,,,,,,,,,,,,,,,,,,,,,,,,,,,,,,,,,,,,,,,,,,,,,,,,,,,,,,,,,,,,
,,,,,,603e51684835eaca90562e76,62c53a7d710891b46175a7d9,2022-07-06_09h43.02.054,Colour_Asymmetry_Pilot,2022.1.3,Win32,61.17704637,62c50e9c1127f2cd403a315f,0,71,71,67,1,twofour,,,,,,,,,,,,,,,,,,,,,,,,,,,,,,,,,,,,,,,,,,,,,,,,,,,,,,,,,,,,,,,,,,,,,,,,,,,,,,,,,,,,,,,,,,,,,,,,,,,,,,,,,,,,,,,,,,,,,,,,,,,,,,,,,,,,,,,,,,,,,,,,,,,,,,,,,,,,,
,,,,,,603e51684835eaca90562e76,62c53a7d710891b46175a7d9,2022-07-06_09h43.02.054,Colour_Asymmetry_Pilot,2022.1.3,Win32,61.17704637,62c50e9c1127f2cd403a315f,0,72,72,100,1,threeone,,,,,,,,,,,,,,,,,,,,,,,,,,,,,,,,,,,,,,,,,,,,,,,,,,,,,,,,,,,,,,,,,,,,,,,,,,,,,,,,,,,,,,,,,,,,,,,,,,,,,,,,,,,,,,,,,,,,,,,,,,,,,,,,,,,,,,,,,,,,,,,,,,,,,,,,,,,,,
,,,,,,603e51684835eaca90562e76,62c53a7d710891b46175a7d9,2022-07-06_09h43.02.054,Colour_Asymmetry_Pilot,2022.1.3,Win32,61.17704637,62c50e9c1127f2cd403a315f,0,73,73,146,1,twoone,,,,,,,,,,,,,,,,,,,,,,,,,,,,,,,,,,,,,,,,,,,,,,,,,,,,,,,,,,,,,,,,,,,,,,,,,,,,,,,,,,,,,,,,,,,,,,,,,,,,,,,,,,,,,,,,,,,,,,,,,,,,,,,,,,,,,,,,,,,,,,,,,,,,,,,,,,,,,
,,,,,,603e51684835eaca90562e76,62c53a7d710891b46175a7d9,2022-07-06_09h43.02.054,Colour_Asymmetry_Pilot,2022.1.3,Win32,61.17704637,62c50e9c1127f2cd403a315f,0,74,74,71,1,fourthree,,,,,,,,,,,,,,,,,,,,,,,,,,,,,,,,,,,,,,,,,,,,,,,,,,,,,,,,,,,,,,,,,,,,,,,,,,,,,,,,,,,,,,,,,,,,,,,,,,,,,,,,,,,,,,,,,,,,,,,,,,,,,,,,,,,,,,,,,,,,,,,,,,,,,,,,,,,,,
,,,,,,603e51684835eaca90562e76,62c53a7d710891b46175a7d9,2022-07-06_09h43.02.054,Colour_Asymmetry_Pilot,2022.1.3,Win32,61.17704637,62c50e9c1127f2cd403a315f,0,75,75,153,1,onethree,,,,,,,,,,,,,,,,,,,,,,,,,,,,,,,,,,,,,,,,,,,,,,,,,,,,,,,,,,,,,,,,,,,,,,,,,,,,,,,,,,,,,,,,,,,,,,,,,,,,,,,,,,,,,,,,,,,,,,,,,,,,,,,,,,,,,,,,,,,,,,,,,,,,,,,,,,,,,
,,,,,,603e51684835eaca90562e76,62c53a7d710891b46175a7d9,2022-07-06_09h43.02.054,Colour_Asymmetry_Pilot,2022.1.3,Win32,61.17704637,62c50e9c1127f2cd403a315f,0,76,76,73,1,onethree,,,,,,,,,,,,,,,,,,,,,,,,,,,,,,,,,,,,,,,,,,,,,,,,,,,,,,,,,,,,,,,,,,,,,,,,,,,,,,,,,,,,,,,,,,,,,,,,,,,,,,,,,,,,,,,,,,,,,,,,,,,,,,,,,,,,,,,,,,,,,,,,,,,,,,,,,,,,,
,,,,,,603e51684835eaca90562e76,62c53a7d710891b46175a7d9,2022-07-06_09h43.02.054,Colour_Asymmetry_Pilot,2022.1.3,Win32,61.17704637,62c50e9c1127f2cd403a315f,0,77,77,55,1,fourthree,,,,,,,,,,,,,,,,,,,,,,,,,,,,,,,,,,,,,,,,,,,,,,,,,,,,,,,,,,,,,,,,,,,,,,,,,,,,,,,,,,,,,,,,,,,,,,,,,,,,,,,,,,,,,,,,,,,,,,,,,,,,,,,,,,,,,,,,,,,,,,,,,,,,,,,,,,,,,
,,,,,,603e51684835eaca90562e76,62c53a7d710891b46175a7d9,2022-07-06_09h43.02.054,Colour_Asymmetry_Pilot,2022.1.3,Win32,61.17704637,62c50e9c1127f2cd403a315f,0,78,78,53,1,threefour,,,,,,,,,,,,,,,,,,,,,,,,,,,,,,,,,,,,,,,,,,,,,,,,,,,,,,,,,,,,,,,,,,,,,,,,,,,,,,,,,,,,,,,,,,,,,,,,,,,,,,,,,,,,,,,,,,,,,,,,,,,,,,,,,,,,,,,,,,,,,,,,,,,,,,,,,,,,,
,,,,,,603e51684835eaca90562e76,62c53a7d710891b46175a7d9,2022-07-06_09h43.02.054,Colour_Asymmetry_Pilot,2022.1.3,Win32,61.17704637,62c50e9c1127f2cd403a315f,0,79,79,15,1,fourthree,,,,,,,,,,,,,,,,,,,,,,,,,,,,,,,,,,,,,,,,,,,,,,,,,,,,,,,,,,,,,,,,,,,,,,,,,,,,,,,,,,,,,,,,,,,,,,,,,,,,,,,,,,,,,,,,,,,,,,,,,,,,,,,,,,,,,,,,,,,,,,,,,,,,,,,,,,,,,
,,,,,,603e51684835eaca90562e76,62c53a7d710891b46175a7d9,2022-07-06_09h43.02.054,Colour_Asymmetry_Pilot,2022.1.3,Win32,61.17704637,62c50e9c1127f2cd403a315f,0,80,80,35,1,twofour,,,,,,,,,,,,,,,,,,,,,,,,,,,,,,,,,,,,,,,,,,,,,,,,,,,,,,,,,,,,,,,,,,,,,,,,,,,,,,,,,,,,,,,,,,,,,,,,,,,,,,,,,,,,,,,,,,,,,,,,,,,,,,,,,,,,,,,,,,,,,,,,,,,,,,,,,,,,,
,,,,,,603e51684835eaca90562e76,62c53a7d710891b46175a7d9,2022-07-06_09h43.02.054,Colour_Asymmetry_Pilot,2022.1.3,Win32,61.17704637,62c50e9c1127f2cd403a315f,0,81,81,76,1,threeone,,,,,,,,,,,,,,,,,,,,,,,,,,,,,,,,,,,,,,,,,,,,,,,,,,,,,,,,,,,,,,,,,,,,,,,,,,,,,,,,,,,,,,,,,,,,,,,,,,,,,,,,,,,,,,,,,,,,,,,,,,,,,,,,,,,,,,,,,,,,,,,,,,,,,,,,,,,,,
,,,,,,603e51684835eaca90562e76,62c53a7d710891b46175a7d9,2022-07-06_09h43.02.054,Colour_Asymmetry_Pilot,2022.1.3,Win32,61.17704637,62c50e9c1127f2cd403a315f,0,82,82,159,1,fourthree,,,,,,,,,,,,,,,,,,,,,,,,,,,,,,,,,,,,,,,,,,,,,,,,,,,,,,,,,,,,,,,,,,,,,,,,,,,,,,,,,,,,,,,,,,,,,,,,,,,,,,,,,,,,,,,,,,,,,,,,,,,,,,,,,,,,,,,,,,,,,,,,,,,,,,,,,,,,,
,,,,,,603e51684835eaca90562e76,62c53a7d710891b46175a7d9,2022-07-06_09h43.02.054,Colour_Asymmetry_Pilot,2022.1.3,Win32,61.17704637,62c50e9c1127f2cd403a315f,0,83,83,97,1,onethree,,,,,,,,,,,,,,,,,,,,,,,,,,,,,,,,,,,,,,,,,,,,,,,,,,,,,,,,,,,,,,,,,,,,,,,,,,,,,,,,,,,,,,,,,,,,,,,,,,,,,,,,,,,,,,,,,,,,,,,,,,,,,,,,,,,,,,,,,,,,,,,,,,,,,,,,,,,,,
,,,,,,603e51684835eaca90562e76,62c53a7d710891b46175a7d9,2022-07-06_09h43.02.054,Colour_Asymmetry_Pilot,2022.1.3,Win32,61.17704637,62c50e9c1127f2cd403a315f,0,84,84,21,1,threefour,,,,,,,,,,,,,,,,,,,,,,,,,,,,,,,,,,,,,,,,,,,,,,,,,,,,,,,,,,,,,,,,,,,,,,,,,,,,,,,,,,,,,,,,,,,,,,,,,,,,,,,,,,,,,,,,,,,,,,,,,,,,,,,,,,,,,,,,,,,,,,,,,,,,,,,,,,,,,
,,,,,,603e51684835eaca90562e76,62c53a7d710891b46175a7d9,2022-07-06_09h43.02.054,Colour_Asymmetry_Pilot,2022.1.3,Win32,61.17704637,62c50e9c1127f2cd403a315f,0,85,85,25,1,onethree,,,,,,,,,,,,,,,,,,,,,,,,,,,,,,,,,,,,,,,,,,,,,,,,,,,,,,,,,,,,,,,,,,,,,,,,,,,,,,,,,,,,,,,,,,,,,,,,,,,,,,,,,,,,,,,,,,,,,,,,,,,,,,,,,,,,,,,,,,,,,,,,,,,,,,,,,,,,,
,,,,,,603e51684835eaca90562e76,62c53a7d710891b46175a7d9,2022-07-06_09h43.02.054,Colour_Asymmetry_Pilot,2022.1.3,Win32,61.17704637,62c50e9c1127f2cd403a315f,0,86,86,104,1,onetwo,,,,,,,,,,,,,,,,,,,,,,,,,,,,,,,,,,,,,,,,,,,,,,,,,,,,,,,,,,,,,,,,,,,,,,,,,,,,,,,,,,,,,,,,,,,,,,,,,,,,,,,,,,,,,,,,,,,,,,,,,,,,,,,,,,,,,,,,,,,,,,,,,,,,,,,,,,,,,
,,,,,,603e51684835eaca90562e76,62c53a7d710891b46175a7d9,2022-07-06_09h43.02.054,Colour_Asymmetry_Pilot,2022.1.3,Win32,61.17704637,62c50e9c1127f2cd403a315f,0,87,87,142,1,fourtwo,,,,,,,,,,,,,,,,,,,,,,,,,,,,,,,,,,,,,,,,,,,,,,,,,,,,,,,,,,,,,,,,,,,,,,,,,,,,,,,,,,,,,,,,,,,,,,,,,,,,,,,,,,,,,,,,,,,,,,,,,,,,,,,,,,,,,,,,,,,,,,,,,,,,,,,,,,,,,
,,,,,,603e51684835eaca90562e76,62c53a7d710891b46175a7d9,2022-07-06_09h43.02.054,Colour_Asymmetry_Pilot,2022.1.3,Win32,61.17704637,62c50e9c1127f2cd403a315f,0,88,88,145,1,onethree,,,,,,,,,,,,,,,,,,,,,,,,,,,,,,,,,,,,,,,,,,,,,,,,,,,,,,,,,,,,,,,,,,,,,,,,,,,,,,,,,,,,,,,,,,,,,,,,,,,,,,,,,,,,,,,,,,,,,,,,,,,,,,,,,,,,,,,,,,,,,,,,,,,,,,,,,,,,,
,,,,,,603e51684835eaca90562e76,62c53a7d710891b46175a7d9,2022-07-06_09h43.02.054,Colour_Asymmetry_Pilot,2022.1.3,Win32,61.17704637,62c50e9c1127f2cd403a315f,0,89,89,120,1,onetwo,,,,,,,,,,,,,,,,,,,,,,,,,,,,,,,,,,,,,,,,,,,,,,,,,,,,,,,,,,,,,,,,,,,,,,,,,,,,,,,,,,,,,,,,,,,,,,,,,,,,,,,,,,,,,,,,,,,,,,,,,,,,,,,,,,,,,,,,,,,,,,,,,,,,,,,,,,,,,
,,,,,,603e51684835eaca90562e76,62c53a7d710891b46175a7d9,2022-07-06_09h43.02.054,Colour_Asymmetry_Pilot,2022.1.3,Win32,61.17704637,62c50e9c1127f2cd403a315f,0,90,90,70,1,fourtwo,,,,,,,,,,,,,,,,,,,,,,,,,,,,,,,,,,,,,,,,,,,,,,,,,,,,,,,,,,,,,,,,,,,,,,,,,,,,,,,,,,,,,,,,,,,,,,,,,,,,,,,,,,,,,,,,,,,,,,,,,,,,,,,,,,,,,,,,,,,,,,,,,,,,,,,,,,,,,
,,,,,,603e51684835eaca90562e76,62c53a7d710891b46175a7d9,2022-07-06_09h43.02.054,Colour_Asymmetry_Pilot,2022.1.3,Win32,61.17704637,62c50e9c1127f2cd403a315f,0,91,91,66,1,twoone,,,,,,,,,,,,,,,,,,,,,,,,,,,,,,,,,,,,,,,,,,,,,,,,,,,,,,,,,,,,,,,,,,,,,,,,,,,,,,,,,,,,,,,,,,,,,,,,,,,,,,,,,,,,,,,,,,,,,,,,,,,,,,,,,,,,,,,,,,,,,,,,,,,,,,,,,,,,,
,,,,,,603e51684835eaca90562e76,62c53a7d710891b46175a7d9,2022-07-06_09h43.02.054,Colour_Asymmetry_Pilot,2022.1.3,Win32,61.17704637,62c50e9c1127f2cd403a315f,0,92,92,50,1,twoone,,,,,,,,,,,,,,,,,,,,,,,,,,,,,,,,,,,,,,,,,,,,,,,,,,,,,,,,,,,,,,,,,,,,,,,,,,,,,,,,,,,,,,,,,,,,,,,,,,,,,,,,,,,,,,,,,,,,,,,,,,,,,,,,,,,,,,,,,,,,,,,,,,,,,,,,,,,,,
,,,,,,603e51684835eaca90562e76,62c53a7d710891b46175a7d9,2022-07-06_09h43.02.054,Colour_Asymmetry_Pilot,2022.1.3,Win32,61.17704637,62c50e9c1127f2cd403a315f,0,93,93,8,1,onetwo,,,,,,,,,,,,,,,,,,,,,,,,,,,,,,,,,,,,,,,,,,,,,,,,,,,,,,,,,,,,,,,,,,,,,,,,,,,,,,,,,,,,,,,,,,,,,,,,,,,,,,,,,,,,,,,,,,,,,,,,,,,,,,,,,,,,,,,,,,,,,,,,,,,,,,,,,,,,,
,,,,,,603e51684835eaca90562e76,62c53a7d710891b46175a7d9,2022-07-06_09h43.02.054,Colour_Asymmetry_Pilot,2022.1.3,Win32,61.17704637,62c50e9c1127f2cd403a315f,0,94,94,0,1,onetwo,,,,,,,,,,,,,,,,,,,,,,,,,,,,,,,,,,,,,,,,,,,,,,,,,,,,,,,,,,,,,,,,,,,,,,,,,,,,,,,,,,,,,,,,,,,,,,,,,,,,,,,,,,,,,,,,,,,,,,,,,,,,,,,,,,,,,,,,,,,,,,,,,,,,,,,,,,,,,
,,,,,,603e51684835eaca90562e76,62c53a7d710891b46175a7d9,2022-07-06_09h43.02.054,Colour_Asymmetry_Pilot,2022.1.3,Win32,61.17704637,62c50e9c1127f2cd403a315f,0,95,95,28,1,threeone,,,,,,,,,,,,,,,,,,,,,,,,,,,,,,,,,,,,,,,,,,,,,,,,,,,,,,,,,,,,,,,,,,,,,,,,,,,,,,,,,,,,,,,,,,,,,,,,,,,,,,,,,,,,,,,,,,,,,,,,,,,,,,,,,,,,,,,,,,,,,,,,,,,,,,,,,,,,,
,,,,,,603e51684835eaca90562e76,62c53a7d710891b46175a7d9,2022-07-06_09h43.02.054,Colour_Asymmetry_Pilot,2022.1.3,Win32,61.17704637,62c50e9c1127f2cd403a315f,0,96,96,56,1,onetwo,,,,,,,,,,,,,,,,,,,,,,,,,,,,,,,,,,,,,,,,,,,,,,,,,,,,,,,,,,,,,,,,,,,,,,,,,,,,,,,,,,,,,,,,,,,,,,,,,,,,,,,,,,,,,,,,,,,,,,,,,,,,,,,,,,,,,,,,,,,,,,,,,,,,,,,,,,,,,
,,,,,,603e51684835eaca90562e76,62c53a7d710891b46175a7d9,2022-07-06_09h43.02.054,Colour_Asymmetry_Pilot,2022.1.3,Win32,61.17704637,62c50e9c1127f2cd403a315f,0,97,97,149,1,threefour,,,,,,,,,,,,,,,,,,,,,,,,,,,,,,,,,,,,,,,,,,,,,,,,,,,,,,,,,,,,,,,,,,,,,,,,,,,,,,,,,,,,,,,,,,,,,,,,,,,,,,,,,,,,,,,,,,,,,,,,,,,,,,,,,,,,,,,,,,,,,,,,,,,,,,,,,,,,,
,,,,,,603e51684835eaca90562e76,62c53a7d710891b46175a7d9,2022-07-06_09h43.02.054,Colour_Asymmetry_Pilot,2022.1.3,Win32,61.17704637,62c50e9c1127f2cd403a315f,0,98,98,129,1,onethree,,,,,,,,,,,,,,,,,,,,,,,,,,,,,,,,,,,,,,,,,,,,,,,,,,,,,,,,,,,,,,,,,,,,,,,,,,,,,,,,,,,,,,,,,,,,,,,,,,,,,,,,,,,,,,,,,,,,,,,,,,,,,,,,,,,,,,,,,,,,,,,,,,,,,,,,,,,,,
,,,,,,603e51684835eaca90562e76,62c53a7d710891b46175a7d9,2022-07-06_09h43.02.054,Colour_Asymmetry_Pilot,2022.1.3,Win32,61.17704637,62c50e9c1127f2cd403a315f,0,99,99,60,1,threeone,,,,,,,,,,,,,,,,,,,,,,,,,,,,,,,,,,,,,,,,,,,,,,,,,,,,,,,,,,,,,,,,,,,,,,,,,,,,,,,,,,,,,,,,,,,,,,,,,,,,,,,,,,,,,,,,,,,,,,,,,,,,,,,,,,,,,,,,,,,,,,,,,,,,,,,,,,,,,
,,,,,,603e51684835eaca90562e76,62c53a7d710891b46175a7d9,2022-07-06_09h43.02.054,Colour_Asymmetry_Pilot,2022.1.3,Win32,61.17704637,62c50e9c1127f2cd403a315f,0,100,100,101,1,threefour,,,,,,,,,,,,,,,,,,,,,,,,,,,,,,,,,,,,,,,,,,,,,,,,,,,,,,,,,,,,,,,,,,,,,,,,,,,,,,,,,,,,,,,,,,,,,,,,,,,,,,,,,,,,,,,,,,,,,,,,,,,,,,,,,,,,,,,,,,,,,,,,,,,,,,,,,,,,,
,,,,,,603e51684835eaca90562e76,62c53a7d710891b46175a7d9,2022-07-06_09h43.02.054,Colour_Asymmetry_Pilot,2022.1.3,Win32,61.17704637,62c50e9c1127f2cd403a315f,0,101,101,156,1,threeone,,,,,,,,,,,,,,,,,,,,,,,,,,,,,,,,,,,,,,,,,,,,,,,,,,,,,,,,,,,,,,,,,,,,,,,,,,,,,,,,,,,,,,,,,,,,,,,,,,,,,,,,,,,,,,,,,,,,,,,,,,,,,,,,,,,,,,,,,,,,,,,,,,,,,,,,,,,,,
,,,,,,603e51684835eaca90562e76,62c53a7d710891b46175a7d9,2022-07-06_09h43.02.054,Colour_Asymmetry_Pilot,2022.1.3,Win32,61.17704637,62c50e9c1127f2cd403a315f,0,102,102,126,1,fourtwo,,,,,,,,,,,,,,,,,,,,,,,,,,,,,,,,,,,,,,,,,,,,,,,,,,,,,,,,,,,,,,,,,,,,,,,,,,,,,,,,,,,,,,,,,,,,,,,,,,,,,,,,,,,,,,,,,,,,,,,,,,,,,,,,,,,,,,,,,,,,,,,,,,,,,,,,,,,,,
,,,,,,603e51684835eaca90562e76,62c53a7d710891b46175a7d9,2022-07-06_09h43.02.054,Colour_Asymmetry_Pilot,2022.1.3,Win32,61.17704637,62c50e9c1127f2cd403a315f,0,103,103,92,1,threeone,,,,,,,,,,,,,,,,,,,,,,,,,,,,,,,,,,,,,,,,,,,,,,,,,,,,,,,,,,,,,,,,,,,,,,,,,,,,,,,,,,,,,,,,,,,,,,,,,,,,,,,,,,,,,,,,,,,,,,,,,,,,,,,,,,,,,,,,,,,,,,,,,,,,,,,,,,,,,
,,,,,,603e51684835eaca90562e76,62c53a7d710891b46175a7d9,2022-07-06_09h43.02.054,Colour_Asymmetry_Pilot,2022.1.3,Win32,61.17704637,62c50e9c1127f2cd403a315f,0,104,104,103,1,fourthree,,,,,,,,,,,,,,,,,,,,,,,,,,,,,,,,,,,,,,,,,,,,,,,,,,,,,,,,,,,,,,,,,,,,,,,,,,,,,,,,,,,,,,,,,,,,,,,,,,,,,,,,,,,,,,,,,,,,,,,,,,,,,,,,,,,,,,,,,,,,,,,,,,,,,,,,,,,,,
,,,,,,603e51684835eaca90562e76,62c53a7d710891b46175a7d9,2022-07-06_09h43.02.054,Colour_Asymmetry_Pilot,2022.1.3,Win32,61.17704637,62c50e9c1127f2cd403a315f,0,105,105,7,1,fourthree,,,,,,,,,,,,,,,,,,,,,,,,,,,,,,,,,,,,,,,,,,,,,,,,,,,,,,,,,,,,,,,,,,,,,,,,,,,,,,,,,,,,,,,,,,,,,,,,,,,,,,,,,,,,,,,,,,,,,,,,,,,,,,,,,,,,,,,,,,,,,,,,,,,,,,,,,,,,,
,,,,,,603e51684835eaca90562e76,62c53a7d710891b46175a7d9,2022-07-06_09h43.02.054,Colour_Asymmetry_Pilot,2022.1.3,Win32,61.17704637,62c50e9c1127f2cd403a315f,0,106,106,24,1,onetwo,,,,,,,,,,,,,,,,,,,,,,,,,,,,,,,,,,,,,,,,,,,,,,,,,,,,,,,,,,,,,,,,,,,,,,,,,,,,,,,,,,,,,,,,,,,,,,,,,,,,,,,,,,,,,,,,,,,,,,,,,,,,,,,,,,,,,,,,,,,,,,,,,,,,,,,,,,,,,
,,,,,,603e51684835eaca90562e76,62c53a7d710891b46175a7d9,2022-07-06_09h43.02.054,Colour_Asymmetry_Pilot,2022.1.3,Win32,61.17704637,62c50e9c1127f2cd403a315f,0,107,107,88,1,onetwo,,,,,,,,,,,,,,,,,,,,,,,,,,,,,,,,,,,,,,,,,,,,,,,,,,,,,,,,,,,,,,,,,,,,,,,,,,,,,,,,,,,,,,,,,,,,,,,,,,,,,,,,,,,,,,,,,,,,,,,,,,,,,,,,,,,,,,,,,,,,,,,,,,,,,,,,,,,,,
,,,,,,603e51684835eaca90562e76,62c53a7d710891b46175a7d9,2022-07-06_09h43.02.054,Colour_Asymmetry_Pilot,2022.1.3,Win32,61.17704637,62c50e9c1127f2cd403a315f,0,108,108,157,1,threefour,,,,,,,,,,,,,,,,,,,,,,,,,,,,,,,,,,,,,,,,,,,,,,,,,,,,,,,,,,,,,,,,,,,,,,,,,,,,,,,,,,,,,,,,,,,,,,,,,,,,,,,,,,,,,,,,,,,,,,,,,,,,,,,,,,,,,,,,,,,,,,,,,,,,,,,,,,,,,
,,,,,,603e51684835eaca90562e76,62c53a7d710891b46175a7d9,2022-07-06_09h43.02.054,Colour_Asymmetry_Pilot,2022.1.3,Win32,61.17704637,62c50e9c1127f2cd403a315f,0,109,109,32,1,onetwo,,,,,,,,,,,,,,,,,,,,,,,,,,,,,,,,,,,,,,,,,,,,,,,,,,,,,,,,,,,,,,,,,,,,,,,,,,,,,,,,,,,,,,,,,,,,,,,,,,,,,,,,,,,,,,,,,,,,,,,,,,,,,,,,,,,,,,,,,,,,,,,,,,,,,,,,,,,,,
,,,,,,603e51684835eaca90562e76,62c53a7d710891b46175a7d9,2022-07-06_09h43.02.054,Colour_Asymmetry_Pilot,2022.1.3,Win32,61.17704637,62c50e9c1127f2cd403a315f,0,110,110,113,1,onethree,,,,,,,,,,,,,,,,,,,,,,,,,,,,,,,,,,,,,,,,,,,,,,,,,,,,,,,,,,,,,,,,,,,,,,,,,,,,,,,,,,,,,,,,,,,,,,,,,,,,,,,,,,,,,,,,,,,,,,,,,,,,,,,,,,,,,,,,,,,,,,,,,,,,,,,,,,,,,
,,,,,,603e51684835eaca90562e76,62c53a7d710891b46175a7d9,2022-07-06_09h43.02.054,Colour_Asymmetry_Pilot,2022.1.3,Win32,61.17704637,62c50e9c1127f2cd403a315f,0,111,111,12,1,threeone,,,,,,,,,,,,,,,,,,,,,,,,,,,,,,,,,,,,,,,,,,,,,,,,,,,,,,,,,,,,,,,,,,,,,,,,,,,,,,,,,,,,,,,,,,,,,,,,,,,,,,,,,,,,,,,,,,,,,,,,,,,,,,,,,,,,,,,,,,,,,,,,,,,,,,,,,,,,,
,,,,,,603e51684835eaca90562e76,62c53a7d710891b46175a7d9,2022-07-06_09h43.02.054,Colour_Asymmetry_Pilot,2022.1.3,Win32,61.17704637,62c50e9c1127f2cd403a315f,0,112,112,13,1,threefour,,,,,,,,,,,,,,,,,,,,,,,,,,,,,,,,,,,,,,,,,,,,,,,,,,,,,,,,,,,,,,,,,,,,,,,,,,,,,,,,,,,,,,,,,,,,,,,,,,,,,,,,,,,,,,,,,,,,,,,,,,,,,,,,,,,,,,,,,,,,,,,,,,,,,,,,,,,,,
,,,,,,603e51684835eaca90562e76,62c53a7d710891b46175a7d9,2022-07-06_09h43.02.054,Colour_Asymmetry_Pilot,2022.1.3,Win32,61.17704637,62c50e9c1127f2cd403a315f,0,113,113,137,1,onethree,,,,,,,,,,,,,,,,,,,,,,,,,,,,,,,,,,,,,,,,,,,,,,,,,,,,,,,,,,,,,,,,,,,,,,,,,,,,,,,,,,,,,,,,,,,,,,,,,,,,,,,,,,,,,,,,,,,,,,,,,,,,,,,,,,,,,,,,,,,,,,,,,,,,,,,,,,,,,
,,,,,,603e51684835eaca90562e76,62c53a7d710891b46175a7d9,2022-07-06_09h43.02.054,Colour_Asymmetry_Pilot,2022.1.3,Win32,61.17704637,62c50e9c1127f2cd403a315f,0,114,114,127,1,fourthree,,,,,,,,,,,,,,,,,,,,,,,,,,,,,,,,,,,,,,,,,,,,,,,,,,,,,,,,,,,,,,,,,,,,,,,,,,,,,,,,,,,,,,,,,,,,,,,,,,,,,,,,,,,,,,,,,,,,,,,,,,,,,,,,,,,,,,,,,,,,,,,,,,,,,,,,,,,,,
,,,,,,603e51684835eaca90562e76,62c53a7d710891b46175a7d9,2022-07-06_09h43.02.054,Colour_Asymmetry_Pilot,2022.1.3,Win32,61.17704637,62c50e9c1127f2cd403a315f,0,115,115,29,1,threefour,,,,,,,,,,,,,,,,,,,,,,,,,,,,,,,,,,,,,,,,,,,,,,,,,,,,,,,,,,,,,,,,,,,,,,,,,,,,,,,,,,,,,,,,,,,,,,,,,,,,,,,,,,,,,,,,,,,,,,,,,,,,,,,,,,,,,,,,,,,,,,,,,,,,,,,,,,,,,
,,,,,,603e51684835eaca90562e76,62c53a7d710891b46175a7d9,2022-07-06_09h43.02.054,Colour_Asymmetry_Pilot,2022.1.3,Win32,61.17704637,62c50e9c1127f2cd403a315f,0,116,116,68,1,threeone,,,,,,,,,,,,,,,,,,,,,,,,,,,,,,,,,,,,,,,,,,,,,,,,,,,,,,,,,,,,,,,,,,,,,,,,,,,,,,,,,,,,,,,,,,,,,,,,,,,,,,,,,,,,,,,,,,,,,,,,,,,,,,,,,,,,,,,,,,,,,,,,,,,,,,,,,,,,,
,,,,,,603e51684835eaca90562e76,62c53a7d710891b46175a7d9,2022-07-06_09h43.02.054,Colour_Asymmetry_Pilot,2022.1.3,Win32,61.17704637,62c50e9c1127f2cd403a315f,0,117,117,59,1,twofour,,,,,,,,,,,,,,,,,,,,,,,,,,,,,,,,,,,,,,,,,,,,,,,,,,,,,,,,,,,,,,,,,,,,,,,,,,,,,,,,,,,,,,,,,,,,,,,,,,,,,,,,,,,,,,,,,,,,,,,,,,,,,,,,,,,,,,,,,,,,,,,,,,,,,,,,,,,,,
,,,,,,603e51684835eaca90562e76,62c53a7d710891b46175a7d9,2022-07-06_09h43.02.054,Colour_Asymmetry_Pilot,2022.1.3,Win32,61.17704637,62c50e9c1127f2cd403a315f,0,118,118,116,1,threeone,,,,,,,,,,,,,,,,,,,,,,,,,,,,,,,,,,,,,,,,,,,,,,,,,,,,,,,,,,,,,,,,,,,,,,,,,,,,,,,,,,,,,,,,,,,,,,,,,,,,,,,,,,,,,,,,,,,,,,,,,,,,,,,,,,,,,,,,,,,,,,,,,,,,,,,,,,,,,
,,,,,,603e51684835eaca90562e76,62c53a7d710891b46175a7d9,2022-07-06_09h43.02.054,Colour_Asymmetry_Pilot,2022.1.3,Win32,61.17704637,62c50e9c1127f2cd403a315f,0,119,119,16,1,onetwo,,,,,,,,,,,,,,,,,,,,,,,,,,,,,,,,,,,,,,,,,,,,,,,,,,,,,,,,,,,,,,,,,,,,,,,,,,,,,,,,,,,,,,,,,,,,,,,,,,,,,,,,,,,,,,,,,,,,,,,,,,,,,,,,,,,,,,,,,,,,,,,,,,,,,,,,,,,,,
,,,,,,603e51684835eaca90562e76,62c53a7d710891b46175a7d9,2022-07-06_09h43.02.054,Colour_Asymmetry_Pilot,2022.1.3,Win32,61.17704637,62c50e9c1127f2cd403a315f,0,120,120,63,1,fourthree,,,,,,,,,,,,,,,,,,,,,,,,,,,,,,,,,,,,,,,,,,,,,,,,,,,,,,,,,,,,,,,,,,,,,,,,,,,,,,,,,,,,,,,,,,,,,,,,,,,,,,,,,,,,,,,,,,,,,,,,,,,,,,,,,,,,,,,,,,,,,,,,,,,,,,,,,,,,,
,,,,,,603e51684835eaca90562e76,62c53a7d710891b46175a7d9,2022-07-06_09h43.02.054,Colour_Asymmetry_Pilot,2022.1.3,Win32,61.17704637,62c50e9c1127f2cd403a315f,0,121,121,37,1,threefour,,,,,,,,,,,,,,,,,,,,,,,,,,,,,,,,,,,,,,,,,,,,,,,,,,,,,,,,,,,,,,,,,,,,,,,,,,,,,,,,,,,,,,,,,,,,,,,,,,,,,,,,,,,,,,,,,,,,,,,,,,,,,,,,,,,,,,,,,,,,,,,,,,,,,,,,,,,,,
,,,,,,603e51684835eaca90562e76,62c53a7d710891b46175a7d9,2022-07-06_09h43.02.054,Colour_Asymmetry_Pilot,2022.1.3,Win32,61.17704637,62c50e9c1127f2cd403a315f,0,122,122,154,1,twoone,,,,,,,,,,,,,,,,,,,,,,,,,,,,,,,,,,,,,,,,,,,,,,,,,,,,,,,,,,,,,,,,,,,,,,,,,,,,,,,,,,,,,,,,,,,,,,,,,,,,,,,,,,,,,,,,,,,,,,,,,,,,,,,,,,,,,,,,,,,,,,,,,,,,,,,,,,,,,
,,,,,,603e51684835eaca90562e76,62c53a7d710891b46175a7d9,2022-07-06_09h43.02.054,Colour_Asymmetry_Pilot,2022.1.3,Win32,61.17704637,62c50e9c1127f2cd403a315f,0,123,123,106,1,twoone,,,,,,,,,,,,,,,,,,,,,,,,,,,,,,,,,,,,,,,,,,,,,,,,,,,,,,,,,,,,,,,,,,,,,,,,,,,,,,,,,,,,,,,,,,,,,,,,,,,,,,,,,,,,,,,,,,,,,,,,,,,,,,,,,,,,,,,,,,,,,,,,,,,,,,,,,,,,,
,,,,,,603e51684835eaca90562e76,62c53a7d710891b46175a7d9,2022-07-06_09h43.02.054,Colour_Asymmetry_Pilot,2022.1.3,Win32,61.17704637,62c50e9c1127f2cd403a315f,0,124,124,89,1,onethree,,,,,,,,,,,,,,,,,,,,,,,,,,,,,,,,,,,,,,,,,,,,,,,,,,,,,,,,,,,,,,,,,,,,,,,,,,,,,,,,,,,,,,,,,,,,,,,,,,,,,,,,,,,,,,,,,,,,,,,,,,,,,,,,,,,,,,,,,,,,,,,,,,,,,,,,,,,,,
,,,,,,603e51684835eaca90562e76,62c53a7d710891b46175a7d9,2022-07-06_09h43.02.054,Colour_Asymmetry_Pilot,2022.1.3,Win32,61.17704637,62c50e9c1127f2cd403a315f,0,125,125,11,1,twofour,,,,,,,,,,,,,,,,,,,,,,,,,,,,,,,,,,,,,,,,,,,,,,,,,,,,,,,,,,,,,,,,,,,,,,,,,,,,,,,,,,,,,,,,,,,,,,,,,,,,,,,,,,,,,,,,,,,,,,,,,,,,,,,,,,,,,,,,,,,,,,,,,,,,,,,,,,,,,
,,,,,,603e51684835eaca90562e76,62c53a7d710891b46175a7d9,2022-07-06_09h43.02.054,Colour_Asymmetry_Pilot,2022.1.3,Win32,61.17704637,62c50e9c1127f2cd403a315f,0,126,126,17,1,onethree,,,,,,,,,,,,,,,,,,,,,,,,,,,,,,,,,,,,,,,,,,,,,,,,,,,,,,,,,,,,,,,,,,,,,,,,,,,,,,,,,,,,,,,,,,,,,,,,,,,,,,,,,,,,,,,,,,,,,,,,,,,,,,,,,,,,,,,,,,,,,,,,,,,,,,,,,,,,,
,,,,,,603e51684835eaca90562e76,62c53a7d710891b46175a7d9,2022-07-06_09h43.02.054,Colour_Asymmetry_Pilot,2022.1.3,Win32,61.17704637,62c50e9c1127f2cd403a315f,0,127,127,85,1,threefour,,,,,,,,,,,,,,,,,,,,,,,,,,,,,,,,,,,,,,,,,,,,,,,,,,,,,,,,,,,,,,,,,,,,,,,,,,,,,,,,,,,,,,,,,,,,,,,,,,,,,,,,,,,,,,,,,,,,,,,,,,,,,,,,,,,,,,,,,,,,,,,,,,,,,,,,,,,,,
,,,,,,603e51684835eaca90562e76,62c53a7d710891b46175a7d9,2022-07-06_09h43.02.054,Colour_Asymmetry_Pilot,2022.1.3,Win32,61.17704637,62c50e9c1127f2cd403a315f,0,128,128,83,1,twofour,,,,,,,,,,,,,,,,,,,,,,,,,,,,,,,,,,,,,,,,,,,,,,,,,,,,,,,,,,,,,,,,,,,,,,,,,,,,,,,,,,,,,,,,,,,,,,,,,,,,,,,,,,,,,,,,,,,,,,,,,,,,,,,,,,,,,,,,,,,,,,,,,,,,,,,,,,,,,
,,,,,,603e51684835eaca90562e76,62c53a7d710891b46175a7d9,2022-07-06_09h43.02.054,Colour_Asymmetry_Pilot,2022.1.3,Win32,61.17704637,62c50e9c1127f2cd403a315f,0,129,129,91,1,twofour,,,,,,,,,,,,,,,,,,,,,,,,,,,,,,,,,,,,,,,,,,,,,,,,,,,,,,,,,,,,,,,,,,,,,,,,,,,,,,,,,,,,,,,,,,,,,,,,,,,,,,,,,,,,,,,,,,,,,,,,,,,,,,,,,,,,,,,,,,,,,,,,,,,,,,,,,,,,,
,,,,,,603e51684835eaca90562e76,62c53a7d710891b46175a7d9,2022-07-06_09h43.02.054,Colour_Asymmetry_Pilot,2022.1.3,Win32,61.17704637,62c50e9c1127f2cd403a315f,0,130,130,26,1,twoone,,,,,,,,,,,,,,,,,,,,,,,,,,,,,,,,,,,,,,,,,,,,,,,,,,,,,,,,,,,,,,,,,,,,,,,,,,,,,,,,,,,,,,,,,,,,,,,,,,,,,,,,,,,,,,,,,,,,,,,,,,,,,,,,,,,,,,,,,,,,,,,,,,,,,,,,,,,,,
,,,,,,603e51684835eaca90562e76,62c53a7d710891b46175a7d9,2022-07-06_09h43.02.054,Colour_Asymmetry_Pilot,2022.1.3,Win32,61.17704637,62c50e9c1127f2cd403a315f,0,131,131,131,1,twofour,,,,,,,,,,,,,,,,,,,,,,,,,,,,,,,,,,,,,,,,,,,,,,,,,,,,,,,,,,,,,,,,,,,,,,,,,,,,,,,,,,,,,,,,,,,,,,,,,,,,,,,,,,,,,,,,,,,,,,,,,,,,,,,,,,,,,,,,,,,,,,,,,,,,,,,,,,,,,
,,,,,,603e51684835eaca90562e76,62c53a7d710891b46175a7d9,2022-07-06_09h43.02.054,Colour_Asymmetry_Pilot,2022.1.3,Win32,61.17704637,62c50e9c1127f2cd403a315f,0,132,132,110,1,fourtwo,,,,,,,,,,,,,,,,,,,,,,,,,,,,,,,,,,,,,,,,,,,,,,,,,,,,,,,,,,,,,,,,,,,,,,,,,,,,,,,,,,,,,,,,,,,,,,,,,,,,,,,,,,,,,,,,,,,,,,,,,,,,,,,,,,,,,,,,,,,,,,,,,,,,,,,,,,,,,
,,,,,,603e51684835eaca90562e76,62c53a7d710891b46175a7d9,2022-07-06_09h43.02.054,Colour_Asymmetry_Pilot,2022.1.3,Win32,61.17704637,62c50e9c1127f2cd403a315f,0,133,133,86,1,fourtwo,,,,,,,,,,,,,,,,,,,,,,,,,,,,,,,,,,,,,,,,,,,,,,,,,,,,,,,,,,,,,,,,,,,,,,,,,,,,,,,,,,,,,,,,,,,,,,,,,,,,,,,,,,,,,,,,,,,,,,,,,,,,,,,,,,,,,,,,,,,,,,,,,,,,,,,,,,,,,
,,,,,,603e51684835eaca90562e76,62c53a7d710891b46175a7d9,2022-07-06_09h43.02.054,Colour_Asymmetry_Pilot,2022.1.3,Win32,61.17704637,62c50e9c1127f2cd403a315f,0,134,134,84,1,threeone,,,,,,,,,,,,,,,,,,,,,,,,,,,,,,,,,,,,,,,,,,,,,,,,,,,,,,,,,,,,,,,,,,,,,,,,,,,,,,,,,,,,,,,,,,,,,,,,,,,,,,,,,,,,,,,,,,,,,,,,,,,,,,,,,,,,,,,,,,,,,,,,,,,,,,,,,,,,,
,,,,,,603e51684835eaca90562e76,62c53a7d710891b46175a7d9,2022-07-06_09h43.02.054,Colour_Asymmetry_Pilot,2022.1.3,Win32,61.17704637,62c50e9c1127f2cd403a315f,0,135,135,77,1,threefour,,,,,,,,,,,,,,,,,,,,,,,,,,,,,,,,,,,,,,,,,,,,,,,,,,,,,,,,,,,,,,,,,,,,,,,,,,,,,,,,,,,,,,,,,,,,,,,,,,,,,,,,,,,,,,,,,,,,,,,,,,,,,,,,,,,,,,,,,,,,,,,,,,,,,,,,,,,,,
,,,,,,603e51684835eaca90562e76,62c53a7d710891b46175a7d9,2022-07-06_09h43.02.054,Colour_Asymmetry_Pilot,2022.1.3,Win32,61.17704637,62c50e9c1127f2cd403a315f,0,136,136,48,1,onetwo,,,,,,,,,,,,,,,,,,,,,,,,,,,,,,,,,,,,,,,,,,,,,,,,,,,,,,,,,,,,,,,,,,,,,,,,,,,,,,,,,,,,,,,,,,,,,,,,,,,,,,,,,,,,,,,,,,,,,,,,,,,,,,,,,,,,,,,,,,,,,,,,,,,,,,,,,,,,,
,,,,,,603e51684835eaca90562e76,62c53a7d710891b46175a7d9,2022-07-06_09h43.02.054,Colour_Asymmetry_Pilot,2022.1.3,Win32,61.17704637,62c50e9c1127f2cd403a315f,0,137,137,72,1,onetwo,,,,,,,,,,,,,,,,,,,,,,,,,,,,,,,,,,,,,,,,,,,,,,,,,,,,,,,,,,,,,,,,,,,,,,,,,,,,,,,,,,,,,,,,,,,,,,,,,,,,,,,,,,,,,,,,,,,,,,,,,,,,,,,,,,,,,,,,,,,,,,,,,,,,,,,,,,,,,
,,,,,,603e51684835eaca90562e76,62c53a7d710891b46175a7d9,2022-07-06_09h43.02.054,Colour_Asymmetry_Pilot,2022.1.3,Win32,61.17704637,62c50e9c1127f2cd403a315f,0,138,138,46,1,fourtwo,,,,,,,,,,,,,,,,,,,,,,,,,,,,,,,,,,,,,,,,,,,,,,,,,,,,,,,,,,,,,,,,,,,,,,,,,,,,,,,,,,,,,,,,,,,,,,,,,,,,,,,,,,,,,,,,,,,,,,,,,,,,,,,,,,,,,,,,,,,,,,,,,,,,,,,,,,,,,
,,,,,,603e51684835eaca90562e76,62c53a7d710891b46175a7d9,2022-07-06_09h43.02.054,Colour_Asymmetry_Pilot,2022.1.3,Win32,61.17704637,62c50e9c1127f2cd403a315f,0,139,139,39,1,fourthree,,,,,,,,,,,,,,,,,,,,,,,,,,,,,,,,,,,,,,,,,,,,,,,,,,,,,,,,,,,,,,,,,,,,,,,,,,,,,,,,,,,,,,,,,,,,,,,,,,,,,,,,,,,,,,,,,,,,,,,,,,,,,,,,,,,,,,,,,,,,,,,,,,,,,,,,,,,,,
,,,,,,603e51684835eaca90562e76,62c53a7d710891b46175a7d9,2022-07-06_09h43.02.054,Colour_Asymmetry_Pilot,2022.1.3,Win32,61.17704637,62c50e9c1127f2cd403a315f,0,140,140,82,1,twoone,,,,,,,,,,,,,,,,,,,,,,,,,,,,,,,,,,,,,,,,,,,,,,,,,,,,,,,,,,,,,,,,,,,,,,,,,,,,,,,,,,,,,,,,,,,,,,,,,,,,,,,,,,,,,,,,,,,,,,,,,,,,,,,,,,,,,,,,,,,,,,,,,,,,,,,,,,,,,
,,,,,,603e51684835eaca90562e76,62c53a7d710891b46175a7d9,2022-07-06_09h43.02.054,Colour_Asymmetry_Pilot,2022.1.3,Win32,61.17704637,62c50e9c1127f2cd403a315f,0,141,141,57,1,onethree,,,,,,,,,,,,,,,,,,,,,,,,,,,,,,,,,,,,,,,,,,,,,,,,,,,,,,,,,,,,,,,,,,,,,,,,,,,,,,,,,,,,,,,,,,,,,,,,,,,,,,,,,,,,,,,,,,,,,,,,,,,,,,,,,,,,,,,,,,,,,,,,,,,,,,,,,,,,,
,,,,,,603e51684835eaca90562e76,62c53a7d710891b46175a7d9,2022-07-06_09h43.02.054,Colour_Asymmetry_Pilot,2022.1.3,Win32,61.17704637,62c50e9c1127f2cd403a315f,0,142,142,30,1,fourtwo,,,,,,,,,,,,,,,,,,,,,,,,,,,,,,,,,,,,,,,,,,,,,,,,,,,,,,,,,,,,,,,,,,,,,,,,,,,,,,,,,,,,,,,,,,,,,,,,,,,,,,,,,,,,,,,,,,,,,,,,,,,,,,,,,,,,,,,,,,,,,,,,,,,,,,,,,,,,,
,,,,,,603e51684835eaca90562e76,62c53a7d710891b46175a7d9,2022-07-06_09h43.02.054,Colour_Asymmetry_Pilot,2022.1.3,Win32,61.17704637,62c50e9c1127f2cd403a315f,0,143,143,52,1,threeone,,,,,,,,,,,,,,,,,,,,,,,,,,,,,,,,,,,,,,,,,,,,,,,,,,,,,,,,,,,,,,,,,,,,,,,,,,,,,,,,,,,,,,,,,,,,,,,,,,,,,,,,,,,,,,,,,,,,,,,,,,,,,,,,,,,,,,,,,,,,,,,,,,,,,,,,,,,,,
,,,,,,603e51684835eaca90562e76,62c53a7d710891b46175a7d9,2022-07-06_09h43.02.054,Colour_Asymmetry_Pilot,2022.1.3,Win32,61.17704637,62c50e9c1127f2cd403a315f,0,144,144,9,1,onethree,,,,,,,,,,,,,,,,,,,,,,,,,,,,,,,,,,,,,,,,,,,,,,,,,,,,,,,,,,,,,,,,,,,,,,,,,,,,,,,,,,,,,,,,,,,,,,,,,,,,,,,,,,,,,,,,,,,,,,,,,,,,,,,,,,,,,,,,,,,,,,,,,,,,,,,,,,,,,
,,,,,,603e51684835eaca90562e76,62c53a7d710891b46175a7d9,2022-07-06_09h43.02.054,Colour_Asymmetry_Pilot,2022.1.3,Win32,61.17704637,62c50e9c1127f2cd403a315f,0,145,145,109,1,threefour,,,,,,,,,,,,,,,,,,,,,,,,,,,,,,,,,,,,,,,,,,,,,,,,,,,,,,,,,,,,,,,,,,,,,,,,,,,,,,,,,,,,,,,,,,,,,,,,,,,,,,,,,,,,,,,,,,,,,,,,,,,,,,,,,,,,,,,,,,,,,,,,,,,,,,,,,,,,,
,,,,,,603e51684835eaca90562e76,62c53a7d710891b46175a7d9,2022-07-06_09h43.02.054,Colour_Asymmetry_Pilot,2022.1.3,Win32,61.17704637,62c50e9c1127f2cd403a315f,0,146,146,45,1,threefour,,,,,,,,,,,,,,,,,,,,,,,,,,,,,,,,,,,,,,,,,,,,,,,,,,,,,,,,,,,,,,,,,,,,,,,,,,,,,,,,,,,,,,,,,,,,,,,,,,,,,,,,,,,,,,,,,,,,,,,,,,,,,,,,,,,,,,,,,,,,,,,,,,,,,,,,,,,,,
,,,,,,603e51684835eaca90562e76,62c53a7d710891b46175a7d9,2022-07-06_09h43.02.054,Colour_Asymmetry_Pilot,2022.1.3,Win32,61.17704637,62c50e9c1127f2cd403a315f,0,147,147,136,1,onetwo,,,,,,,,,,,,,,,,,,,,,,,,,,,,,,,,,,,,,,,,,,,,,,,,,,,,,,,,,,,,,,,,,,,,,,,,,,,,,,,,,,,,,,,,,,,,,,,,,,,,,,,,,,,,,,,,,,,,,,,,,,,,,,,,,,,,,,,,,,,,,,,,,,,,,,,,,,,,,
,,,,,,603e51684835eaca90562e76,62c53a7d710891b46175a7d9,2022-07-06_09h43.02.054,Colour_Asymmetry_Pilot,2022.1.3,Win32,61.17704637,62c50e9c1127f2cd403a315f,0,148,148,23,1,fourthree,,,,,,,,,,,,,,,,,,,,,,,,,,,,,,,,,,,,,,,,,,,,,,,,,,,,,,,,,,,,,,,,,,,,,,,,,,,,,,,,,,,,,,,,,,,,,,,,,,,,,,,,,,,,,,,,,,,,,,,,,,,,,,,,,,,,,,,,,,,,,,,,,,,,,,,,,,,,,
,,,,,,603e51684835eaca90562e76,62c53a7d710891b46175a7d9,2022-07-06_09h43.02.054,Colour_Asymmetry_Pilot,2022.1.3,Win32,61.17704637,62c50e9c1127f2cd403a315f,0,149,149,112,1,onetwo,,,,,,,,,,,,,,,,,,,,,,,,,,,,,,,,,,,,,,,,,,,,,,,,,,,,,,,,,,,,,,,,,,,,,,,,,,,,,,,,,,,,,,,,,,,,,,,,,,,,,,,,,,,,,,,,,,,,,,,,,,,,,,,,,,,,,,,,,,,,,,,,,,,,,,,,,,,,,
,,,,,,603e51684835eaca90562e76,62c53a7d710891b46175a7d9,2022-07-06_09h43.02.054,Colour_Asymmetry_Pilot,2022.1.3,Win32,61.17704637,62c50e9c1127f2cd403a315f,0,150,150,65,1,onethree,,,,,,,,,,,,,,,,,,,,,,,,,,,,,,,,,,,,,,,,,,,,,,,,,,,,,,,,,,,,,,,,,,,,,,,,,,,,,,,,,,,,,,,,,,,,,,,,,,,,,,,,,,,,,,,,,,,,,,,,,,,,,,,,,,,,,,,,,,,,,,,,,,,,,,,,,,,,,
,,,,,,603e51684835eaca90562e76,62c53a7d710891b46175a7d9,2022-07-06_09h43.02.054,Colour_Asymmetry_Pilot,2022.1.3,Win32,61.17704637,62c50e9c1127f2cd403a315f,0,151,151,139,1,twofour,,,,,,,,,,,,,,,,,,,,,,,,,,,,,,,,,,,,,,,,,,,,,,,,,,,,,,,,,,,,,,,,,,,,,,,,,,,,,,,,,,,,,,,,,,,,,,,,,,,,,,,,,,,,,,,,,,,,,,,,,,,,,,,,,,,,,,,,,,,,,,,,,,,,,,,,,,,,,
,,,,,,603e51684835eaca90562e76,62c53a7d710891b46175a7d9,2022-07-06_09h43.02.054,Colour_Asymmetry_Pilot,2022.1.3,Win32,61.17704637,62c50e9c1127f2cd403a315f,0,152,152,135,1,fourthree,,,,,,,,,,,,,,,,,,,,,,,,,,,,,,,,,,,,,,,,,,,,,,,,,,,,,,,,,,,,,,,,,,,,,,,,,,,,,,,,,,,,,,,,,,,,,,,,,,,,,,,,,,,,,,,,,,,,,,,,,,,,,,,,,,,,,,,,,,,,,,,,,,,,,,,,,,,,,
,,,,,,603e51684835eaca90562e76,62c53a7d710891b46175a7d9,2022-07-06_09h43.02.054,Colour_Asymmetry_Pilot,2022.1.3,Win32,61.17704637,62c50e9c1127f2cd403a315f,0,153,153,41,1,onethree,,,,,,,,,,,,,,,,,,,,,,,,,,,,,,,,,,,,,,,,,,,,,,,,,,,,,,,,,,,,,,,,,,,,,,,,,,,,,,,,,,,,,,,,,,,,,,,,,,,,,,,,,,,,,,,,,,,,,,,,,,,,,,,,,,,,,,,,,,,,,,,,,,,,,,,,,,,,,
,,,,,,603e51684835eaca90562e76,62c53a7d710891b46175a7d9,2022-07-06_09h43.02.054,Colour_Asymmetry_Pilot,2022.1.3,Win32,61.17704637,62c50e9c1127f2cd403a315f,0,154,154,6,1,fourtwo,,,,,,,,,,,,,,,,,,,,,,,,,,,,,,,,,,,,,,,,,,,,,,,,,,,,,,,,,,,,,,,,,,,,,,,,,,,,,,,,,,,,,,,,,,,,,,,,,,,,,,,,,,,,,,,,,,,,,,,,,,,,,,,,,,,,,,,,,,,,,,,,,,,,,,,,,,,,,
,,,,,,603e51684835eaca90562e76,62c53a7d710891b46175a7d9,2022-07-06_09h43.02.054,Colour_Asymmetry_Pilot,2022.1.3,Win32,61.17704637,62c50e9c1127f2cd403a315f,0,155,155,58,1,twoone,,,,,,,,,,,,,,,,,,,,,,,,,,,,,,,,,,,,,,,,,,,,,,,,,,,,,,,,,,,,,,,,,,,,,,,,,,,,,,,,,,,,,,,,,,,,,,,,,,,,,,,,,,,,,,,,,,,,,,,,,,,,,,,,,,,,,,,,,,,,,,,,,,,,,,,,,,,,,
,,,,,,603e51684835eaca90562e76,62c53a7d710891b46175a7d9,2022-07-06_09h43.02.054,Colour_Asymmetry_Pilot,2022.1.3,Win32,61.17704637,62c50e9c1127f2cd403a315f,0,156,156,143,1,fourthree,,,,,,,,,,,,,,,,,,,,,,,,,,,,,,,,,,,,,,,,,,,,,,,,,,,,,,,,,,,,,,,,,,,,,,,,,,,,,,,,,,,,,,,,,,,,,,,,,,,,,,,,,,,,,,,,,,,,,,,,,,,,,,,,,,,,,,,,,,,,,,,,,,,,,,,,,,,,,
,,,,,,603e51684835eaca90562e76,62c53a7d710891b46175a7d9,2022-07-06_09h43.02.054,Colour_Asymmetry_Pilot,2022.1.3,Win32,61.17704637,62c50e9c1127f2cd403a315f,0,157,157,74,1,twoone,,,,,,,,,,,,,,,,,,,,,,,,,,,,,,,,,,,,,,,,,,,,,,,,,,,,,,,,,,,,,,,,,,,,,,,,,,,,,,,,,,,,,,,,,,,,,,,,,,,,,,,,,,,,,,,,,,,,,,,,,,,,,,,,,,,,,,,,,,,,,,,,,,,,,,,,,,,,,
,,,,,,603e51684835eaca90562e76,62c53a7d710891b46175a7d9,2022-07-06_09h43.02.054,Colour_Asymmetry_Pilot,2022.1.3,Win32,61.17704637,62c50e9c1127f2cd403a315f,0,158,158,107,1,twofour,,,,,,,,,,,,,,,,,,,,,,,,,,,,,,,,,,,,,,,,,,,,,,,,,,,,,,,,,,,,,,,,,,,,,,,,,,,,,,,,,,,,,,,,,,,,,,,,,,,,,,,,,,,,,,,,,,,,,,,,,,,,,,,,,,,,,,,,,,,,,,,,,,,,,,,,,,,,,
,,,,,,603e51684835eaca90562e76,62c53a7d710891b46175a7d9,2022-07-06_09h43.02.054,Colour_Asymmetry_Pilot,2022.1.3,Win32,61.17704637,62c50e9c1127f2cd403a315f,0,159,159,2,1,twoone,,,,,,,,,,,,,,,,,,,,,,,,,,,,,,,,,,,,,,,,,,,,,,,,,,,,,,,,,,,,,,,,,,,,,,,,,,,,,,,,,,,,,,,,,,,,,,,,,,,,,,,,,,,,,,,,,,,,,,,,,,,,,,,,,,,,,,,,,,,,,,,,,,,,,,,,,,,,,
,,,,,,603e51684835eaca90562e76,62c53a7d710891b46175a7d9,2022-07-06_09h43.02.054,Colour_Asymmetry_Pilot,2022.1.3,Win32,61.17704637,62c50e9c1127f2cd403a315f,0,160,160,105,1,onethree,,,,,,,,,,,,,,,,,,,,,,,,,,,,,,,,,,,,,,,,,,,,,,,,,,,,,,,,,,,,,,,,,,,,,,,,,,,,,,,,,,,,,,,,,,,,,,,,,,,,,,,,,,,,,,,,,,,,,,,,,,,,,,,,,,,,,,,,,,,,,,,,,,,,,,,,,,,,,
,,,,,,603e51684835eaca90562e76,62c53a7d710891b46175a7d9,2022-07-06_09h43.02.054,Colour_Asymmetry_Pilot,2022.1.3,Win32,61.17704637,62c50e9c1127f2cd403a315f,0,161,161,94,1,fourtwo,,,,,,,,,,,,,,,,,,,,,,,,,,,,,,,,,,,,,,,,,,,,,,,,,,,,,,,,,,,,,,,,,,,,,,,,,,,,,,,,,,,,,,,,,,,,,,,,,,,,,,,,,,,,,,,,,,,,,,,,,,,,,,,,,,,,,,,,,,,,,,,,,,,,,,,,,,,,,
,,,,,,603e51684835eaca90562e76,62c53a7d710891b46175a7d9,2022-07-06_09h43.02.054,Colour_Asymmetry_Pilot,2022.1.3,Win32,61.17704637,62c50e9c1127f2cd403a315f,,,,,,,space,0.8851,space,3.5235,space,25.6062,space,5.1797,space,0.3003,space,3.4803,"[0.3881999999999999,-0.23939999999999995,-0.05040000000000011]",onethree,"[-0.10599999999999998,-0.10599999999999998,0.5841999999999998]",2,13.4751,95.20001221,-53.6000061,1,0,0,response3disk_5,-5.599975586,-2.399993896,1,0,0,rectangle_8,-5.599975586,-2.399993896,1,0,0,1,-5.599975586,-2.399993896,1,0,0,0,0,0,0,1,,,,,,,,,,,,,,,,,,,,,,,,,,,,,,,,,,,,,,,,,,,,,,,,,,,,,,,,,,,,,,,,,,,,,,,,,,,,,,,,,,,,,,,,,,,,,,,,,,,,,,,,,,,,,,,,
,,,,,,603e51684835eaca90562e76,62c53a7d710891b46175a7d9,2022-07-06_09h43.02.054,Colour_Asymmetry_Pilot,2022.1.3,Win32,61.17704637,62c50e9c1127f2cd403a315f,,,,,,,,,,,,,,,,,,,"[0.34099999999999997,0.5841999999999998,-0.9844]",fourtwo,"[-0.9296,-0.12959999999999994,-0.043199999999999905]",-4,5.7186,-54.39996338,95.19998169,1,0,0,response7disk_5,-2.399963379,-0.800018311,1,0,0,rectangle_8,-2.399963379,-0.800018311,1,0,0,1,-2.399963379,-0.800018311,1,0,0,1,0,1,0,1,,,,,,,,,,,,,,,,,,,,,,,,,,,,,,,,,,,,,,,,,,,,,,,,,,,,,,,,,,,,,,,,,,,,,,,,,,,,,,,,,,,,,,,,,,,,,,,,,,,,,,,,,,,,,,,,
,,,,,,603e51684835eaca90562e76,62c53a7d710891b46175a7d9,2022-07-06_09h43.02.054,Colour_Asymmetry_Pilot,2022.1.3,Win32,61.17704637,62c50e9c1127f2cd403a315f,,,,,,,,,,,,,,,,,,,"[-0.0040000000000000036,0.02739999999999987,-0.08239999999999992]",onetwo,"[0.6547999999999998,-0.043199999999999905,-0.011800000000000033]",3,3.2862,48,20.79998779,1,0,0,response1disk_5,2.400024414,1.600006104,1,0,0,rectangle_8,2.400024414,1.600006104,1,0,0,1,2.400024414,1.600006104,1,0,0,2,0,2,0,1,,,,,,,,,,,,,,,,,,,,,,,,,,,,,,,,,,,,,,,,,,,,,,,,,,,,,,,,,,,,,,,,,,,,,,,,,,,,,,,,,,,,,,,,,,,,,,,,,,,,,,,,,,,,,,,,
,,,,,,603e51684835eaca90562e76,62c53a7d710891b46175a7d9,2022-07-06_09h43.02.054,Colour_Asymmetry_Pilot,2022.1.3,Win32,61.17704637,62c50e9c1127f2cd403a315f,,,,,,,,,,,,,,,,,,,"[0.9763999999999999,0.8588,-0.05900000000000005]",onetwo,"[0.7802,-0.23140000000000005,-0.20799999999999996]",-4,3.7197,-50.39996338,109.6000061,1,0,0,response7disk_5,8.799987793,0.799987793,1,0,0,rectangle_8,8.799987793,0.799987793,1,0,0,1,8.799987793,0.799987793,1,0,0,3,0,3,0,1,,,,,,,,,,,,,,,,,,,,,,,,,,,,,,,,,,,,,,,,,,,,,,,,,,,,,,,,,,,,,,,,,,,,,,,,,,,,,,,,,,,,,,,,,,,,,,,,,,,,,,,,,,,,,,,,
,,,,,,603e51684835eaca90562e76,62c53a7d710891b46175a7d9,2022-07-06_09h43.02.054,Colour_Asymmetry_Pilot,2022.1.3,Win32,61.17704637,62c50e9c1127f2cd403a315f,,,,,,,,,,,,,,,,,,,"[0.37240000000000006,-0.050999999999999934,-0.5216]",twofour,"[0.7018,0.7802,-0.16079999999999994]",2,2.5679,93.60003662,-49.6000061,1,0,0,response3disk_5,12.79998779,2.399993896,1,0,0,rectangle_8,12.79998779,2.399993896,1,0,0,1,12.79998779,2.399993896,1,0,0,4,0,4,0,1,,,,,,,,,,,,,,,,,,,,,,,,,,,,,,,,,,,,,,,,,,,,,,,,,,,,,,,,,,,,,,,,,,,,,,,,,,,,,,,,,,,,,,,,,,,,,,,,,,,,,,,,,,,,,,,,
,,,,,,603e51684835eaca90562e76,62c53a7d710891b46175a7d9,2022-07-06_09h43.02.054,Colour_Asymmetry_Pilot,2022.1.3,Win32,61.17704637,62c50e9c1127f2cd403a315f,,,,,,,,,,,,,,,,,,,"[0.23120000000000007,-0.7726,-0.34120000000000006]",threeone,"[0.11359999999999992,0.6312,0.5213999999999999]",-4,1.801,-64,103.1999817,1,0,0,response7disk_5,-6.399963379,0,1,0,0,rectangle_8,65.60003662,-104.7999878,1,0,0,1,4.799987793,9.600006104,1,0,0,5,0,5,0,1,response3disk_7,4,rectangle_4,,,,,,,,,,,,,,,,,,,,,,,,,,,,,,,,,,,,,,,,,,,,,,,,,,,,,,,,,,,,,,,,,,,,,,,,,,,,,,,,,,,,,,,,,,,,,,,,,,,,,,,,,,,,,
,,,,,,603e51684835eaca90562e76,62c53a7d710891b46175a7d9,2022-07-06_09h43.02.054,Colour_Asymmetry_Pilot,2022.1.3,Win32,61.17704637,62c50e9c1127f2cd403a315f,,,,,,,,,,,,,,,,,,,"[-0.9766,-0.6472,0.07440000000000002]",threeone,"[-0.34920000000000007,-0.702,-0.5216]",1,2.4174,32,-92,1,0,0,response3disk_5,-3.200012207,1.600006104,1,0,0,rectangle_8,-3.200012207,1.600006104,1,0,0,1,-3.200012207,1.600006104,1,0,0,6,0,6,0,1,,,,,,,,,,,,,,,,,,,,,,,,,,,,,,,,,,,,,,,,,,,,,,,,,,,,,,,,,,,,,,,,,,,,,,,,,,,,,,,,,,,,,,,,,,,,,,,,,,,,,,,,,,,,,,,,
,,,,,,603e51684835eaca90562e76,62c53a7d710891b46175a7d9,2022-07-06_09h43.02.054,Colour_Asymmetry_Pilot,2022.1.3,Win32,61.17704637,62c50e9c1127f2cd403a315f,,,,,,,,,,,,,,,,,,,,fourtwo,,3,2.5684,,,,,,,,,,,,,,,,,,,,,,,,,,,,,,,,space,3.0764,"[-0.6942,-0.7648,-0.12959999999999994]","[-0.5922000000000001,-0.7492000000000001,-0.5296000000000001]",110.4000244,55.19998169,1,0,0,response1disk,1.600036621,0,1,0,0,rectangle,1.600036621,0,1,0,0,,1,0.0045,0,1.600036621,0,1,0,0,0,0,0,124,1,43,second,,,,,,,,,,,,,,,,,,,,,,,,,,,,,,,,,,,,,,,,,,,,,,,,,,,,,,,,,,,,,,,,,,,,,,,,
,,,,,,603e51684835eaca90562e76,62c53a7d710891b46175a7d9,2022-07-06_09h43.02.054,Colour_Asymmetry_Pilot,2022.1.3,Win32,61.17704637,62c50e9c1127f2cd403a315f,,,,,,,,,,,,,,,,,,,,twofour,,3,0.7173,,,,,,,,,,,,,,,,,,,,,,,,,,,,,,,,,,"[-0.4746,-0.0354000000000001,0.5449999999999999]","[0.19199999999999995,0.18419999999999992,0.5136000000000001]",105.6000366,40,1,0,0,response1disk,10.40002441,5.600006104,1,0,0,rectangle,10.40002441,5.600006104,1,0,0,,1,0.0005,0,10.40002441,5.600006104,1,0,0,0,1,1,99,1,18,second,,,,,,,,,,,,,,,,,,,,,,,,,,,,,,,,,,,,,,,,,,,,,,,,,,,,,,,,,,,,,,,,,,,,,,,,
,,,,,,603e51684835eaca90562e76,62c53a7d710891b46175a7d9,2022-07-06_09h43.02.054,Colour_Asymmetry_Pilot,2022.1.3,Win32,61.17704637,62c50e9c1127f2cd403a315f,,,,,,,,,,,,,,,,,,,,threeone,,-3,1.1508,,,,,,,,,,,,,,,,,,,,,,,,,,,,,,,,,,"[0.23120000000000007,-0.7726,-0.34120000000000006]","[-0.8982,-0.37259999999999993,0.2784]",-101.5999756,56,1,0,0,response7disk,-0.799987793,-8,1,0,0,rectangle,-0.799987793,-8,1,0,0,,1,0.0004,0,-0.799987793,-8,1,0,0,0,2,2,142,1,61,second,,,,,,,,,,,,,,,,,,,,,,,,,,,,,,,,,,,,,,,,,,,,,,,,,,,,,,,,,,,,,,,,,,,,,,,,
,,,,,,603e51684835eaca90562e76,62c53a7d710891b46175a7d9,2022-07-06_09h43.02.054,Colour_Asymmetry_Pilot,2022.1.3,Win32,61.17704637,62c50e9c1127f2cd403a315f,,,,,,,,,,,,,,,,,,,,onethree,,-2,3.5345,,,,,,,,,,,,,,,,,,,,,,,,,,,,,,,,,,"[0.9763999999999999,0.30979999999999985,-0.6786]","[-0.4276,0.0038000000000000256,-0.3256]",-78.39996338,-37.6000061,1,0,0,response5disk,0,1.600006104,1,0,0,rectangle,0,1.600006104,1,0,0,,2,0.0034,0,0,1.600006104,1,0,0,0,3,3,73,1,73,first,,,,,,,,,,,,,,,,,,,,,,,,,,,,,,,,,,,,,,,,,,,,,,,,,,,,,,,,,,,,,,,,,,,,,,,,
,,,,,,603e51684835eaca90562e76,62c53a7d710891b46175a7d9,2022-07-06_09h43.02.054,Colour_Asymmetry_Pilot,2022.1.3,Win32,61.17704637,62c50e9c1127f2cd403a315f,,,,,,,,,,,,,,,,,,,,twoone,,3,0.6661,,,,,,,,,,,,,,,,,,,,,,,,,,,,,,,,,,"[0.6625999999999999,0.4980000000000002,-0.357]","[0.9686000000000001,0.5763999999999998,0.11359999999999992]",105.6000366,45.6000061,1,0,0,response1disk,9.600036621,3.199981689,1,0,0,rectangle,41.60003662,-86.40002441,1,0,0,1,1,2.1702,1,-8.799987793,1.600006104,1,0,0,0,4,4,161,1,80,second,response3disk_3,rectangle,,,,,,,,,,,,,,,,,,,,,,,,,,,,,,,,,,,,,,,,,,,,,,,,,,,,,,,,,,,,,,,,,,,,,,
,,,,,,603e51684835eaca90562e76,62c53a7d710891b46175a7d9,2022-07-06_09h43.02.054,Colour_Asymmetry_Pilot,2022.1.3,Win32,61.17704637,62c50e9c1127f2cd403a315f,,,,,,,,,,,,,,,,,,,,onetwo,,1,1.4007,,,,,,,,,,,,,,,,,,,,,,,,,,,,,,,,,,"[-0.45899999999999996,-0.3256,-0.9374]","[-0.4902000000000001,0.2704,-0.45899999999999996]",63.20001221,-108.7999878,1,0,0,response3disk,10.40002441,-0.800018311,1,0,0,rectangle,84.79998779,-49.6000061,1,0,0,2,2,1.9156,1,3.200012207,4,1,0,0,0,5,5,159,1,78,second,response3disk_3,rectangle,,,,,,,,,,,,,,,,,,,,,,,,,,,,,,,,,,,,,,,,,,,,,,,,,,,,,,,,,,,,,,,,,,,,,,
,,,,,,603e51684835eaca90562e76,62c53a7d710891b46175a7d9,2022-07-06_09h43.02.054,Colour_Asymmetry_Pilot,2022.1.3,Win32,61.17704637,62c50e9c1127f2cd403a315f,,,,,,,,,,,,,,,,,,,,twofour,,3,1.6671,,,,,,,,,,,,,,,,,,,,,,,,,,,,,,,,,,"[0.23120000000000007,-0.7726,-0.34120000000000006]","[0.22340000000000004,-0.9296,-0.7884]",78.40002441,48,1,0,0,response1disk,-12.79998779,0,1,0,0,rectangle,-12.79998779,0,1,0,0,2,1,0.0034,0,-12.79998779,0,1,0,0,0,6,6,75,1,75,first,,,,,,,,,,,,,,,,,,,,,,,,,,,,,,,,,,,,,,,,,,,,,,,,,,,,,,,,,,,,,,,,,,,,,,,,
,,,,,,603e51684835eaca90562e76,62c53a7d710891b46175a7d9,2022-07-06_09h43.02.054,Colour_Asymmetry_Pilot,2022.1.3,Win32,61.17704637,62c50e9c1127f2cd403a315f,,,,,,,,,,,,,,,,,,,,threeone,,-3,1.4343,,,,,,,,,,,,,,,,,,,,,,,,,,,,,,,,,,"[-0.9688,-0.4902000000000001,-0.12159999999999993]","[0.7018,0.7802,-0.16079999999999994]",-105.5999756,50.3999939,1,0,0,response7disk,-2.399963379,9.600006104,1,0,0,rectangle,-2.399963379,9.600006104,1,0,0,2,2,0.0033,0,-2.399963379,9.600006104,1,0,0,0,7,7,101,1,20,second,,,,,,,,,,,,,,,,,,,,,,,,,,,,,,,,,,,,,,,,,,,,,,,,,,,,,,,,,,,,,,,,,,,,,,,,
,,,,,,603e51684835eaca90562e76,62c53a7d710891b46175a7d9,2022-07-06_09h43.02.054,Colour_Asymmetry_Pilot,2022.1.3,Win32,61.17704637,62c50e9c1127f2cd403a315f,,,,,,,,,,,,,,,,,,,,twofour,,-2,2.1335,,,,,,,,,,,,,,,,,,,,,,,,,,,,,,,,,,"[-0.4982,-0.2942,-0.0354000000000001]","[-0.050999999999999934,-0.6706000000000001,-0.804]",-80.79998779,-32.80001831,1,0,0,response5disk,0,2.399993896,1,0,0,rectangle,0,2.399993896,1,0,0,2,1,0.004,0,0,2.399993896,1,0,0,0,8,8,64,1,64,first,,,,,,,,,,,,,,,,,,,,,,,,,,,,,,,,,,,,,,,,,,,,,,,,,,,,,,,,,,,,,,,,,,,,,,,,
,,,,,,603e51684835eaca90562e76,62c53a7d710891b46175a7d9,2022-07-06_09h43.02.054,Colour_Asymmetry_Pilot,2022.1.3,Win32,61.17704637,62c50e9c1127f2cd403a315f,,,,,,,,,,,,,,,,,,,,twofour,,-1,1.3833,,,,,,,,,,,,,,,,,,,,,,,,,,,,,,,,,,"[0.9686000000000001,0.3802000000000001,0.19999999999999996]","[0.9763999999999999,0.30979999999999985,-0.6786]",-43.20001221,-100.7999878,1,0,0,response5disk,6.400024414,8,1,0,0,rectangle,6.400024414,8,1,0,0,2,3,0.0034,0,6.400024414,8,1,0,0,0,9,9,126,1,45,second,,,,,,,,,,,,,,,,,,,,,,,,,,,,,,,,,,,,,,,,,,,,,,,,,,,,,,,,,,,,,,,,,,,,,,,,
,,,,,,603e51684835eaca90562e76,62c53a7d710891b46175a7d9,2022-07-06_09h43.02.054,Colour_Asymmetry_Pilot,2022.1.3,Win32,61.17704637,62c50e9c1127f2cd403a315f,,,,,,,,,,,,,,,,,,,,fourtwo,,1,1.1509,,,,,,,,,,,,,,,,,,,,,,,,,,,,,,,,,,"[-0.2942,-0.24719999999999998,-0.357]","[-0.38039999999999996,-0.4276,-0.1452]",53.60003662,-88,1,0,0,response3disk,-2.399963379,5.600006104,1,0,0,rectangle,-2.399963379,5.600006104,1,0,0,2,1,0.0035,0,-2.399963379,5.600006104,1,0,0,0,10,10,23,1,23,first,,,,,,,,,,,,,,,,,,,,,,,,,,,,,,,,,,,,,,,,,,,,,,,,,,,,,,,,,,,,,,,,,,,,,,,,
,,,,,,603e51684835eaca90562e76,62c53a7d710891b46175a7d9,2022-07-06_09h43.02.054,Colour_Asymmetry_Pilot,2022.1.3,Win32,61.17704637,62c50e9c1127f2cd403a315f,,,,,,,,,,,,,,,,,,,,fourtwo,,1,0.5333,,,,,,,,,,,,,,,,,,,,,,,,,,,,,,,,,,"[0.3802000000000001,0.19199999999999995,-0.6394]","[-0.38039999999999996,-0.4276,-0.1452]",52.79998779,-92.79998779,1,0,0,response3disk,-4,0,1,0,0,rectangle,-4,0,1,0,0,2,3,0.0041,0,-4,0,1,0,0,0,11,11,109,1,28,second,,,,,,,,,,,,,,,,,,,,,,,,,,,,,,,,,,,,,,,,,,,,,,,,,,,,,,,,,,,,,,,,,,,,,,,,
,,,,,,603e51684835eaca90562e76,62c53a7d710891b46175a7d9,2022-07-06_09h43.02.054,Colour_Asymmetry_Pilot,2022.1.3,Win32,61.17704637,62c50e9c1127f2cd403a315f,,,,,,,,,,,,,,,,,,,,onetwo,,3,1.3501,,,,,,,,,,,,,,,,,,,,,,,,,,,,,,,,,,"[0.9763999999999999,0.30979999999999985,-0.6786]","[0.3802000000000001,0.19199999999999995,-0.6394]",84,43.19998169,1,0,0,response1disk,-8,4,1,0,0,rectangle,-8,4,1,0,0,2,2,0.004,0,-8,4,1,0,0,0,12,12,6,1,6,first,,,,,,,,,,,,,,,,,,,,,,,,,,,,,,,,,,,,,,,,,,,,,,,,,,,,,,,,,,,,,,,,,,,,,,,,
,,,,,,603e51684835eaca90562e76,62c53a7d710891b46175a7d9,2022-07-06_09h43.02.054,Colour_Asymmetry_Pilot,2022.1.3,Win32,61.17704637,62c50e9c1127f2cd403a315f,,,,,,,,,,,,,,,,,,,,threeone,,2,1.0002,,,,,,,,,,,,,,,,,,,,,,,,,,,,,,,,,,"[0.6547999999999998,-0.043199999999999905,-0.011800000000000033]","[0.9686000000000001,0.5763999999999998,0.11359999999999992]",59.20001221,-52.80001831,1,0,0,response3disk,3.200012207,-3.200012207,1,0,0,rectangle,3.200012207,-3.200012207,1,0,0,2,1,0.0035,0,3.200012207,-3.200012207,1,0,0,0,13,13,38,1,38,first,,,,,,,,,,,,,,,,,,,,,,,,,,,,,,,,,,,,,,,,,,,,,,,,,,,,,,,,,,,,,,,,,,,,,,,,
,,,,,,603e51684835eaca90562e76,62c53a7d710891b46175a7d9,2022-07-06_09h43.02.054,Colour_Asymmetry_Pilot,2022.1.3,Win32,61.17704637,62c50e9c1127f2cd403a315f,,,,,,,,,,,,,,,,,,,,onetwo,,-2,1.9169,,,,,,,,,,,,,,,,,,,,,,,,,,,,,,,,,,"[0.12939999999999996,-0.2864,0.3253999999999999]","[-0.24719999999999998,0.5213999999999999,-0.12959999999999994]",-91.20001221,-47.20001221,1,0,0,response5disk,15.20001221,-1.600006104,1,0,0,rectangle,15.20001221,-1.600006104,1,0,0,2,3,0.004,0,15.20001221,-1.600006104,1,0,0,0,14,14,158,1,77,second,,,,,,,,,,,,,,,,,,,,,,,,,,,,,,,,,,,,,,,,,,,,,,,,,,,,,,,,,,,,,,,,,,,,,,,,
