trials.thisRepN,trials.thisTrialN,trials.thisN,trials.thisIndex,trials.ran,Colourcodes,participant,session,date,expName,psychopyVersion,OS,frameRate,study_id,trials_4.thisRepN,trials_4.thisTrialN,trials_4.thisN,trials_4.thisIndex,trials_4.ran,StimulusPos,key_resp.keys,key_resp.rt,key_resp_2.keys,key_resp_2.rt,key_resp_15.keys,key_resp_15.rt,key_resp_17.keys,key_resp_17.rt,key_resp_9.keys,key_resp_9.rt,key_resp_10.keys,key_resp_10.rt,Circle1_col,Ecc,Circle2_col,similarity,response_time,mouse_5.x,mouse_5.y,mouse_5.leftButton,mouse_5.midButton,mouse_5.rightButton,mouse_5.clicked_name,mouse_10.x,mouse_10.y,mouse_10.leftButton,mouse_10.midButton,mouse_10.rightButton,mouse_10.clicked_name,mouse_7.x,mouse_7.y,mouse_7.leftButton,mouse_7.midButton,mouse_7.rightButton,mouse_7.clicked_name,catchprac,catchnumberprac,mouse_6.x,mouse_6.y,mouse_6.leftButton,mouse_6.midButton,mouse_6.rightButton,mouse_6.clicked_name,duringprac.thisRepN,duringprac.thisTrialN,duringprac.thisN,duringprac.thisIndex,duringprac.ran,key_resp_22.keys,key_resp_22.rt,Circle1_colour,Circle2_colour,mouse.x,mouse.y,mouse.leftButton,mouse.midButton,mouse.rightButton,mouse.clicked_name,mouse_2.x,mouse_2.y,mouse_2.leftButton,mouse_2.midButton,mouse_2.rightButton,mouse_2.clicked_name,mouse_3.x,mouse_3.y,mouse_3.leftButton,mouse_3.midButton,mouse_3.rightButton,catchresponse,catchnumber,response_time_catch,Catch,mouse_11.x,mouse_11.y,mouse_11.leftButton,mouse_11.midButton,mouse_11.rightButton,trials_2.thisRepN,trials_2.thisTrialN,trials_2.thisN,trials_2.thisIndex,trials_2.ran,Colourpair,Temporder,mouse_3.clicked_name,mouse_11.clicked_name,trials_3.thisRepN,trials_3.thisTrialN,trials_3.thisN,trials_3.thisIndex,trials_3.ran,key_resp_instr_Ishi.keys,key_resp_instr_Ishi.rt,Ishi_trial_keyresp.keys,Ishi_textbox.text,Ishi_mouse.x,Ishi_mouse.y,Ishi_mouse.leftButton,Ishi_mouse.midButton,Ishi_mouse.rightButton,Ishi_mouse.clicked_name,Ishi_loop.thisRepN,Ishi_loop.thisTrialN,Ishi_loop.thisN,Ishi_loop.thisIndex,Ishi_loop.ran,imageaddress,textbox.text,mouse_4.x,mouse_4.y,mouse_4.leftButton,mouse_4.midButton,mouse_4.rightButton,mouse_4.clicked_name,textbox_2.text,mouse_8.x,mouse_8.y,mouse_8.leftButton,mouse_8.midButton,mouse_8.rightButton,mouse_8.clicked_name,textbox_3.text,mouse_9.x,mouse_9.y,mouse_9.leftButton,mouse_9.midButton,mouse_9.rightButton,mouse_9.clicked_name,textbox_4.text,mouse_12.x,mouse_12.y,mouse_12.leftButton,mouse_12.midButton,mouse_12.rightButton,mouse_12.clicked_name,textbox_5.text,mouse_13.x,mouse_13.y,mouse_13.leftButton,mouse_13.midButton,mouse_13.rightButton,mouse_13.clicked_name,textbox_6.text,mouse_14.x,mouse_14.y,mouse_14.leftButton,mouse_14.midButton,mouse_14.rightButton,mouse_14.clicked_name,textbox_7.text,mouse_15.x,mouse_15.y,mouse_15.leftButton,mouse_15.midButton,mouse_15.rightButton,mouse_15.clicked_name
0,0,0,6,1,,61715532205e28ec88b6903c,62c5387c505ca495f1f3dbcf,2022-07-06_09h24.31.525,Colour_Asymmetry_Pilot,2022.1.3,MacIntel,59.99880002,62c50e9c1127f2cd403a315f,,,,,,,,,,,,,,,,,,,,,,,,,,,,,,,,,,,,,,,,,,,,,,,,,,,,,,,,,,,,,,,,,,,,,,,,,,,,,,,,,,,,,,,,,,,,,,,,,,,,,,,,,,,,,,,,,,,,,,,,,,,,,,,,,,,,,,,,,,,,,,,,,,,,,,,,,,,,,,,,,,,
0,1,1,4,1,,61715532205e28ec88b6903c,62c5387c505ca495f1f3dbcf,2022-07-06_09h24.31.525,Colour_Asymmetry_Pilot,2022.1.3,MacIntel,59.99880002,62c50e9c1127f2cd403a315f,,,,,,,,,,,,,,,,,,,,,,,,,,,,,,,,,,,,,,,,,,,,,,,,,,,,,,,,,,,,,,,,,,,,,,,,,,,,,,,,,,,,,,,,,,,,,,,,,,,,,,,,,,,,,,,,,,,,,,,,,,,,,,,,,,,,,,,,,,,,,,,,,,,,,,,,,,,,,,,,,,,
0,2,2,55,1,,61715532205e28ec88b6903c,62c5387c505ca495f1f3dbcf,2022-07-06_09h24.31.525,Colour_Asymmetry_Pilot,2022.1.3,MacIntel,59.99880002,62c50e9c1127f2cd403a315f,,,,,,,,,,,,,,,,,,,,,,,,,,,,,,,,,,,,,,,,,,,,,,,,,,,,,,,,,,,,,,,,,,,,,,,,,,,,,,,,,,,,,,,,,,,,,,,,,,,,,,,,,,,,,,,,,,,,,,,,,,,,,,,,,,,,,,,,,,,,,,,,,,,,,,,,,,,,,,,,,,,
0,3,3,16,1,,61715532205e28ec88b6903c,62c5387c505ca495f1f3dbcf,2022-07-06_09h24.31.525,Colour_Asymmetry_Pilot,2022.1.3,MacIntel,59.99880002,62c50e9c1127f2cd403a315f,,,,,,,,,,,,,,,,,,,,,,,,,,,,,,,,,,,,,,,,,,,,,,,,,,,,,,,,,,,,,,,,,,,,,,,,,,,,,,,,,,,,,,,,,,,,,,,,,,,,,,,,,,,,,,,,,,,,,,,,,,,,,,,,,,,,,,,,,,,,,,,,,,,,,,,,,,,,,,,,,,,
0,4,4,5,1,,61715532205e28ec88b6903c,62c5387c505ca495f1f3dbcf,2022-07-06_09h24.31.525,Colour_Asymmetry_Pilot,2022.1.3,MacIntel,59.99880002,62c50e9c1127f2cd403a315f,,,,,,,,,,,,,,,,,,,,,,,,,,,,,,,,,,,,,,,,,,,,,,,,,,,,,,,,,,,,,,,,,,,,,,,,,,,,,,,,,,,,,,,,,,,,,,,,,,,,,,,,,,,,,,,,,,,,,,,,,,,,,,,,,,,,,,,,,,,,,,,,,,,,,,,,,,,,,,,,,,,
0,5,5,21,1,,61715532205e28ec88b6903c,62c5387c505ca495f1f3dbcf,2022-07-06_09h24.31.525,Colour_Asymmetry_Pilot,2022.1.3,MacIntel,59.99880002,62c50e9c1127f2cd403a315f,,,,,,,,,,,,,,,,,,,,,,,,,,,,,,,,,,,,,,,,,,,,,,,,,,,,,,,,,,,,,,,,,,,,,,,,,,,,,,,,,,,,,,,,,,,,,,,,,,,,,,,,,,,,,,,,,,,,,,,,,,,,,,,,,,,,,,,,,,,,,,,,,,,,,,,,,,,,,,,,,,,
0,6,6,37,1,,61715532205e28ec88b6903c,62c5387c505ca495f1f3dbcf,2022-07-06_09h24.31.525,Colour_Asymmetry_Pilot,2022.1.3,MacIntel,59.99880002,62c50e9c1127f2cd403a315f,,,,,,,,,,,,,,,,,,,,,,,,,,,,,,,,,,,,,,,,,,,,,,,,,,,,,,,,,,,,,,,,,,,,,,,,,,,,,,,,,,,,,,,,,,,,,,,,,,,,,,,,,,,,,,,,,,,,,,,,,,,,,,,,,,,,,,,,,,,,,,,,,,,,,,,,,,,,,,,,,,,
0,7,7,8,1,,61715532205e28ec88b6903c,62c5387c505ca495f1f3dbcf,2022-07-06_09h24.31.525,Colour_Asymmetry_Pilot,2022.1.3,MacIntel,59.99880002,62c50e9c1127f2cd403a315f,,,,,,,,,,,,,,,,,,,,,,,,,,,,,,,,,,,,,,,,,,,,,,,,,,,,,,,,,,,,,,,,,,,,,,,,,,,,,,,,,,,,,,,,,,,,,,,,,,,,,,,,,,,,,,,,,,,,,,,,,,,,,,,,,,,,,,,,,,,,,,,,,,,,,,,,,,,,,,,,,,,
0,8,8,58,1,,61715532205e28ec88b6903c,62c5387c505ca495f1f3dbcf,2022-07-06_09h24.31.525,Colour_Asymmetry_Pilot,2022.1.3,MacIntel,59.99880002,62c50e9c1127f2cd403a315f,,,,,,,,,,,,,,,,,,,,,,,,,,,,,,,,,,,,,,,,,,,,,,,,,,,,,,,,,,,,,,,,,,,,,,,,,,,,,,,,,,,,,,,,,,,,,,,,,,,,,,,,,,,,,,,,,,,,,,,,,,,,,,,,,,,,,,,,,,,,,,,,,,,,,,,,,,,,,,,,,,,
0,9,9,84,1,,61715532205e28ec88b6903c,62c5387c505ca495f1f3dbcf,2022-07-06_09h24.31.525,Colour_Asymmetry_Pilot,2022.1.3,MacIntel,59.99880002,62c50e9c1127f2cd403a315f,,,,,,,,,,,,,,,,,,,,,,,,,,,,,,,,,,,,,,,,,,,,,,,,,,,,,,,,,,,,,,,,,,,,,,,,,,,,,,,,,,,,,,,,,,,,,,,,,,,,,,,,,,,,,,,,,,,,,,,,,,,,,,,,,,,,,,,,,,,,,,,,,,,,,,,,,,,,,,,,,,,
0,10,10,70,1,,61715532205e28ec88b6903c,62c5387c505ca495f1f3dbcf,2022-07-06_09h24.31.525,Colour_Asymmetry_Pilot,2022.1.3,MacIntel,59.99880002,62c50e9c1127f2cd403a315f,,,,,,,,,,,,,,,,,,,,,,,,,,,,,,,,,,,,,,,,,,,,,,,,,,,,,,,,,,,,,,,,,,,,,,,,,,,,,,,,,,,,,,,,,,,,,,,,,,,,,,,,,,,,,,,,,,,,,,,,,,,,,,,,,,,,,,,,,,,,,,,,,,,,,,,,,,,,,,,,,,,
0,11,11,32,1,,61715532205e28ec88b6903c,62c5387c505ca495f1f3dbcf,2022-07-06_09h24.31.525,Colour_Asymmetry_Pilot,2022.1.3,MacIntel,59.99880002,62c50e9c1127f2cd403a315f,,,,,,,,,,,,,,,,,,,,,,,,,,,,,,,,,,,,,,,,,,,,,,,,,,,,,,,,,,,,,,,,,,,,,,,,,,,,,,,,,,,,,,,,,,,,,,,,,,,,,,,,,,,,,,,,,,,,,,,,,,,,,,,,,,,,,,,,,,,,,,,,,,,,,,,,,,,,,,,,,,,
0,12,12,83,1,,61715532205e28ec88b6903c,62c5387c505ca495f1f3dbcf,2022-07-06_09h24.31.525,Colour_Asymmetry_Pilot,2022.1.3,MacIntel,59.99880002,62c50e9c1127f2cd403a315f,,,,,,,,,,,,,,,,,,,,,,,,,,,,,,,,,,,,,,,,,,,,,,,,,,,,,,,,,,,,,,,,,,,,,,,,,,,,,,,,,,,,,,,,,,,,,,,,,,,,,,,,,,,,,,,,,,,,,,,,,,,,,,,,,,,,,,,,,,,,,,,,,,,,,,,,,,,,,,,,,,,
0,13,13,43,1,,61715532205e28ec88b6903c,62c5387c505ca495f1f3dbcf,2022-07-06_09h24.31.525,Colour_Asymmetry_Pilot,2022.1.3,MacIntel,59.99880002,62c50e9c1127f2cd403a315f,,,,,,,,,,,,,,,,,,,,,,,,,,,,,,,,,,,,,,,,,,,,,,,,,,,,,,,,,,,,,,,,,,,,,,,,,,,,,,,,,,,,,,,,,,,,,,,,,,,,,,,,,,,,,,,,,,,,,,,,,,,,,,,,,,,,,,,,,,,,,,,,,,,,,,,,,,,,,,,,,,,
0,14,14,12,1,,61715532205e28ec88b6903c,62c5387c505ca495f1f3dbcf,2022-07-06_09h24.31.525,Colour_Asymmetry_Pilot,2022.1.3,MacIntel,59.99880002,62c50e9c1127f2cd403a315f,,,,,,,,,,,,,,,,,,,,,,,,,,,,,,,,,,,,,,,,,,,,,,,,,,,,,,,,,,,,,,,,,,,,,,,,,,,,,,,,,,,,,,,,,,,,,,,,,,,,,,,,,,,,,,,,,,,,,,,,,,,,,,,,,,,,,,,,,,,,,,,,,,,,,,,,,,,,,,,,,,,
0,15,15,22,1,,61715532205e28ec88b6903c,62c5387c505ca495f1f3dbcf,2022-07-06_09h24.31.525,Colour_Asymmetry_Pilot,2022.1.3,MacIntel,59.99880002,62c50e9c1127f2cd403a315f,,,,,,,,,,,,,,,,,,,,,,,,,,,,,,,,,,,,,,,,,,,,,,,,,,,,,,,,,,,,,,,,,,,,,,,,,,,,,,,,,,,,,,,,,,,,,,,,,,,,,,,,,,,,,,,,,,,,,,,,,,,,,,,,,,,,,,,,,,,,,,,,,,,,,,,,,,,,,,,,,,,
0,16,16,90,1,,61715532205e28ec88b6903c,62c5387c505ca495f1f3dbcf,2022-07-06_09h24.31.525,Colour_Asymmetry_Pilot,2022.1.3,MacIntel,59.99880002,62c50e9c1127f2cd403a315f,,,,,,,,,,,,,,,,,,,,,,,,,,,,,,,,,,,,,,,,,,,,,,,,,,,,,,,,,,,,,,,,,,,,,,,,,,,,,,,,,,,,,,,,,,,,,,,,,,,,,,,,,,,,,,,,,,,,,,,,,,,,,,,,,,,,,,,,,,,,,,,,,,,,,,,,,,,,,,,,,,,
0,17,17,45,1,,61715532205e28ec88b6903c,62c5387c505ca495f1f3dbcf,2022-07-06_09h24.31.525,Colour_Asymmetry_Pilot,2022.1.3,MacIntel,59.99880002,62c50e9c1127f2cd403a315f,,,,,,,,,,,,,,,,,,,,,,,,,,,,,,,,,,,,,,,,,,,,,,,,,,,,,,,,,,,,,,,,,,,,,,,,,,,,,,,,,,,,,,,,,,,,,,,,,,,,,,,,,,,,,,,,,,,,,,,,,,,,,,,,,,,,,,,,,,,,,,,,,,,,,,,,,,,,,,,,,,,
0,18,18,20,1,,61715532205e28ec88b6903c,62c5387c505ca495f1f3dbcf,2022-07-06_09h24.31.525,Colour_Asymmetry_Pilot,2022.1.3,MacIntel,59.99880002,62c50e9c1127f2cd403a315f,,,,,,,,,,,,,,,,,,,,,,,,,,,,,,,,,,,,,,,,,,,,,,,,,,,,,,,,,,,,,,,,,,,,,,,,,,,,,,,,,,,,,,,,,,,,,,,,,,,,,,,,,,,,,,,,,,,,,,,,,,,,,,,,,,,,,,,,,,,,,,,,,,,,,,,,,,,,,,,,,,,
0,19,19,34,1,,61715532205e28ec88b6903c,62c5387c505ca495f1f3dbcf,2022-07-06_09h24.31.525,Colour_Asymmetry_Pilot,2022.1.3,MacIntel,59.99880002,62c50e9c1127f2cd403a315f,,,,,,,,,,,,,,,,,,,,,,,,,,,,,,,,,,,,,,,,,,,,,,,,,,,,,,,,,,,,,,,,,,,,,,,,,,,,,,,,,,,,,,,,,,,,,,,,,,,,,,,,,,,,,,,,,,,,,,,,,,,,,,,,,,,,,,,,,,,,,,,,,,,,,,,,,,,,,,,,,,,
0,20,20,13,1,,61715532205e28ec88b6903c,62c5387c505ca495f1f3dbcf,2022-07-06_09h24.31.525,Colour_Asymmetry_Pilot,2022.1.3,MacIntel,59.99880002,62c50e9c1127f2cd403a315f,,,,,,,,,,,,,,,,,,,,,,,,,,,,,,,,,,,,,,,,,,,,,,,,,,,,,,,,,,,,,,,,,,,,,,,,,,,,,,,,,,,,,,,,,,,,,,,,,,,,,,,,,,,,,,,,,,,,,,,,,,,,,,,,,,,,,,,,,,,,,,,,,,,,,,,,,,,,,,,,,,,
0,21,21,19,1,,61715532205e28ec88b6903c,62c5387c505ca495f1f3dbcf,2022-07-06_09h24.31.525,Colour_Asymmetry_Pilot,2022.1.3,MacIntel,59.99880002,62c50e9c1127f2cd403a315f,,,,,,,,,,,,,,,,,,,,,,,,,,,,,,,,,,,,,,,,,,,,,,,,,,,,,,,,,,,,,,,,,,,,,,,,,,,,,,,,,,,,,,,,,,,,,,,,,,,,,,,,,,,,,,,,,,,,,,,,,,,,,,,,,,,,,,,,,,,,,,,,,,,,,,,,,,,,,,,,,,,
0,22,22,92,1,,61715532205e28ec88b6903c,62c5387c505ca495f1f3dbcf,2022-07-06_09h24.31.525,Colour_Asymmetry_Pilot,2022.1.3,MacIntel,59.99880002,62c50e9c1127f2cd403a315f,,,,,,,,,,,,,,,,,,,,,,,,,,,,,,,,,,,,,,,,,,,,,,,,,,,,,,,,,,,,,,,,,,,,,,,,,,,,,,,,,,,,,,,,,,,,,,,,,,,,,,,,,,,,,,,,,,,,,,,,,,,,,,,,,,,,,,,,,,,,,,,,,,,,,,,,,,,,,,,,,,,
0,23,23,71,1,,61715532205e28ec88b6903c,62c5387c505ca495f1f3dbcf,2022-07-06_09h24.31.525,Colour_Asymmetry_Pilot,2022.1.3,MacIntel,59.99880002,62c50e9c1127f2cd403a315f,,,,,,,,,,,,,,,,,,,,,,,,,,,,,,,,,,,,,,,,,,,,,,,,,,,,,,,,,,,,,,,,,,,,,,,,,,,,,,,,,,,,,,,,,,,,,,,,,,,,,,,,,,,,,,,,,,,,,,,,,,,,,,,,,,,,,,,,,,,,,,,,,,,,,,,,,,,,,,,,,,,
0,24,24,80,1,,61715532205e28ec88b6903c,62c5387c505ca495f1f3dbcf,2022-07-06_09h24.31.525,Colour_Asymmetry_Pilot,2022.1.3,MacIntel,59.99880002,62c50e9c1127f2cd403a315f,,,,,,,,,,,,,,,,,,,,,,,,,,,,,,,,,,,,,,,,,,,,,,,,,,,,,,,,,,,,,,,,,,,,,,,,,,,,,,,,,,,,,,,,,,,,,,,,,,,,,,,,,,,,,,,,,,,,,,,,,,,,,,,,,,,,,,,,,,,,,,,,,,,,,,,,,,,,,,,,,,,
0,25,25,65,1,,61715532205e28ec88b6903c,62c5387c505ca495f1f3dbcf,2022-07-06_09h24.31.525,Colour_Asymmetry_Pilot,2022.1.3,MacIntel,59.99880002,62c50e9c1127f2cd403a315f,,,,,,,,,,,,,,,,,,,,,,,,,,,,,,,,,,,,,,,,,,,,,,,,,,,,,,,,,,,,,,,,,,,,,,,,,,,,,,,,,,,,,,,,,,,,,,,,,,,,,,,,,,,,,,,,,,,,,,,,,,,,,,,,,,,,,,,,,,,,,,,,,,,,,,,,,,,,,,,,,,,
0,26,26,51,1,,61715532205e28ec88b6903c,62c5387c505ca495f1f3dbcf,2022-07-06_09h24.31.525,Colour_Asymmetry_Pilot,2022.1.3,MacIntel,59.99880002,62c50e9c1127f2cd403a315f,,,,,,,,,,,,,,,,,,,,,,,,,,,,,,,,,,,,,,,,,,,,,,,,,,,,,,,,,,,,,,,,,,,,,,,,,,,,,,,,,,,,,,,,,,,,,,,,,,,,,,,,,,,,,,,,,,,,,,,,,,,,,,,,,,,,,,,,,,,,,,,,,,,,,,,,,,,,,,,,,,,
0,27,27,77,1,,61715532205e28ec88b6903c,62c5387c505ca495f1f3dbcf,2022-07-06_09h24.31.525,Colour_Asymmetry_Pilot,2022.1.3,MacIntel,59.99880002,62c50e9c1127f2cd403a315f,,,,,,,,,,,,,,,,,,,,,,,,,,,,,,,,,,,,,,,,,,,,,,,,,,,,,,,,,,,,,,,,,,,,,,,,,,,,,,,,,,,,,,,,,,,,,,,,,,,,,,,,,,,,,,,,,,,,,,,,,,,,,,,,,,,,,,,,,,,,,,,,,,,,,,,,,,,,,,,,,,,
0,28,28,63,1,,61715532205e28ec88b6903c,62c5387c505ca495f1f3dbcf,2022-07-06_09h24.31.525,Colour_Asymmetry_Pilot,2022.1.3,MacIntel,59.99880002,62c50e9c1127f2cd403a315f,,,,,,,,,,,,,,,,,,,,,,,,,,,,,,,,,,,,,,,,,,,,,,,,,,,,,,,,,,,,,,,,,,,,,,,,,,,,,,,,,,,,,,,,,,,,,,,,,,,,,,,,,,,,,,,,,,,,,,,,,,,,,,,,,,,,,,,,,,,,,,,,,,,,,,,,,,,,,,,,,,,
0,29,29,40,1,,61715532205e28ec88b6903c,62c5387c505ca495f1f3dbcf,2022-07-06_09h24.31.525,Colour_Asymmetry_Pilot,2022.1.3,MacIntel,59.99880002,62c50e9c1127f2cd403a315f,,,,,,,,,,,,,,,,,,,,,,,,,,,,,,,,,,,,,,,,,,,,,,,,,,,,,,,,,,,,,,,,,,,,,,,,,,,,,,,,,,,,,,,,,,,,,,,,,,,,,,,,,,,,,,,,,,,,,,,,,,,,,,,,,,,,,,,,,,,,,,,,,,,,,,,,,,,,,,,,,,,
0,30,30,11,1,,61715532205e28ec88b6903c,62c5387c505ca495f1f3dbcf,2022-07-06_09h24.31.525,Colour_Asymmetry_Pilot,2022.1.3,MacIntel,59.99880002,62c50e9c1127f2cd403a315f,,,,,,,,,,,,,,,,,,,,,,,,,,,,,,,,,,,,,,,,,,,,,,,,,,,,,,,,,,,,,,,,,,,,,,,,,,,,,,,,,,,,,,,,,,,,,,,,,,,,,,,,,,,,,,,,,,,,,,,,,,,,,,,,,,,,,,,,,,,,,,,,,,,,,,,,,,,,,,,,,,,
0,31,31,31,1,,61715532205e28ec88b6903c,62c5387c505ca495f1f3dbcf,2022-07-06_09h24.31.525,Colour_Asymmetry_Pilot,2022.1.3,MacIntel,59.99880002,62c50e9c1127f2cd403a315f,,,,,,,,,,,,,,,,,,,,,,,,,,,,,,,,,,,,,,,,,,,,,,,,,,,,,,,,,,,,,,,,,,,,,,,,,,,,,,,,,,,,,,,,,,,,,,,,,,,,,,,,,,,,,,,,,,,,,,,,,,,,,,,,,,,,,,,,,,,,,,,,,,,,,,,,,,,,,,,,,,,
0,32,32,87,1,,61715532205e28ec88b6903c,62c5387c505ca495f1f3dbcf,2022-07-06_09h24.31.525,Colour_Asymmetry_Pilot,2022.1.3,MacIntel,59.99880002,62c50e9c1127f2cd403a315f,,,,,,,,,,,,,,,,,,,,,,,,,,,,,,,,,,,,,,,,,,,,,,,,,,,,,,,,,,,,,,,,,,,,,,,,,,,,,,,,,,,,,,,,,,,,,,,,,,,,,,,,,,,,,,,,,,,,,,,,,,,,,,,,,,,,,,,,,,,,,,,,,,,,,,,,,,,,,,,,,,,
0,33,33,59,1,,61715532205e28ec88b6903c,62c5387c505ca495f1f3dbcf,2022-07-06_09h24.31.525,Colour_Asymmetry_Pilot,2022.1.3,MacIntel,59.99880002,62c50e9c1127f2cd403a315f,,,,,,,,,,,,,,,,,,,,,,,,,,,,,,,,,,,,,,,,,,,,,,,,,,,,,,,,,,,,,,,,,,,,,,,,,,,,,,,,,,,,,,,,,,,,,,,,,,,,,,,,,,,,,,,,,,,,,,,,,,,,,,,,,,,,,,,,,,,,,,,,,,,,,,,,,,,,,,,,,,,
0,34,34,18,1,,61715532205e28ec88b6903c,62c5387c505ca495f1f3dbcf,2022-07-06_09h24.31.525,Colour_Asymmetry_Pilot,2022.1.3,MacIntel,59.99880002,62c50e9c1127f2cd403a315f,,,,,,,,,,,,,,,,,,,,,,,,,,,,,,,,,,,,,,,,,,,,,,,,,,,,,,,,,,,,,,,,,,,,,,,,,,,,,,,,,,,,,,,,,,,,,,,,,,,,,,,,,,,,,,,,,,,,,,,,,,,,,,,,,,,,,,,,,,,,,,,,,,,,,,,,,,,,,,,,,,,
0,35,35,15,1,,61715532205e28ec88b6903c,62c5387c505ca495f1f3dbcf,2022-07-06_09h24.31.525,Colour_Asymmetry_Pilot,2022.1.3,MacIntel,59.99880002,62c50e9c1127f2cd403a315f,,,,,,,,,,,,,,,,,,,,,,,,,,,,,,,,,,,,,,,,,,,,,,,,,,,,,,,,,,,,,,,,,,,,,,,,,,,,,,,,,,,,,,,,,,,,,,,,,,,,,,,,,,,,,,,,,,,,,,,,,,,,,,,,,,,,,,,,,,,,,,,,,,,,,,,,,,,,,,,,,,,
0,36,36,57,1,,61715532205e28ec88b6903c,62c5387c505ca495f1f3dbcf,2022-07-06_09h24.31.525,Colour_Asymmetry_Pilot,2022.1.3,MacIntel,59.99880002,62c50e9c1127f2cd403a315f,,,,,,,,,,,,,,,,,,,,,,,,,,,,,,,,,,,,,,,,,,,,,,,,,,,,,,,,,,,,,,,,,,,,,,,,,,,,,,,,,,,,,,,,,,,,,,,,,,,,,,,,,,,,,,,,,,,,,,,,,,,,,,,,,,,,,,,,,,,,,,,,,,,,,,,,,,,,,,,,,,,
0,37,37,48,1,,61715532205e28ec88b6903c,62c5387c505ca495f1f3dbcf,2022-07-06_09h24.31.525,Colour_Asymmetry_Pilot,2022.1.3,MacIntel,59.99880002,62c50e9c1127f2cd403a315f,,,,,,,,,,,,,,,,,,,,,,,,,,,,,,,,,,,,,,,,,,,,,,,,,,,,,,,,,,,,,,,,,,,,,,,,,,,,,,,,,,,,,,,,,,,,,,,,,,,,,,,,,,,,,,,,,,,,,,,,,,,,,,,,,,,,,,,,,,,,,,,,,,,,,,,,,,,,,,,,,,,
0,38,38,25,1,,61715532205e28ec88b6903c,62c5387c505ca495f1f3dbcf,2022-07-06_09h24.31.525,Colour_Asymmetry_Pilot,2022.1.3,MacIntel,59.99880002,62c50e9c1127f2cd403a315f,,,,,,,,,,,,,,,,,,,,,,,,,,,,,,,,,,,,,,,,,,,,,,,,,,,,,,,,,,,,,,,,,,,,,,,,,,,,,,,,,,,,,,,,,,,,,,,,,,,,,,,,,,,,,,,,,,,,,,,,,,,,,,,,,,,,,,,,,,,,,,,,,,,,,,,,,,,,,,,,,,,
0,39,39,66,1,,61715532205e28ec88b6903c,62c5387c505ca495f1f3dbcf,2022-07-06_09h24.31.525,Colour_Asymmetry_Pilot,2022.1.3,MacIntel,59.99880002,62c50e9c1127f2cd403a315f,,,,,,,,,,,,,,,,,,,,,,,,,,,,,,,,,,,,,,,,,,,,,,,,,,,,,,,,,,,,,,,,,,,,,,,,,,,,,,,,,,,,,,,,,,,,,,,,,,,,,,,,,,,,,,,,,,,,,,,,,,,,,,,,,,,,,,,,,,,,,,,,,,,,,,,,,,,,,,,,,,,
0,40,40,67,1,,61715532205e28ec88b6903c,62c5387c505ca495f1f3dbcf,2022-07-06_09h24.31.525,Colour_Asymmetry_Pilot,2022.1.3,MacIntel,59.99880002,62c50e9c1127f2cd403a315f,,,,,,,,,,,,,,,,,,,,,,,,,,,,,,,,,,,,,,,,,,,,,,,,,,,,,,,,,,,,,,,,,,,,,,,,,,,,,,,,,,,,,,,,,,,,,,,,,,,,,,,,,,,,,,,,,,,,,,,,,,,,,,,,,,,,,,,,,,,,,,,,,,,,,,,,,,,,,,,,,,,
0,41,41,17,1,,61715532205e28ec88b6903c,62c5387c505ca495f1f3dbcf,2022-07-06_09h24.31.525,Colour_Asymmetry_Pilot,2022.1.3,MacIntel,59.99880002,62c50e9c1127f2cd403a315f,,,,,,,,,,,,,,,,,,,,,,,,,,,,,,,,,,,,,,,,,,,,,,,,,,,,,,,,,,,,,,,,,,,,,,,,,,,,,,,,,,,,,,,,,,,,,,,,,,,,,,,,,,,,,,,,,,,,,,,,,,,,,,,,,,,,,,,,,,,,,,,,,,,,,,,,,,,,,,,,,,,
0,42,42,69,1,,61715532205e28ec88b6903c,62c5387c505ca495f1f3dbcf,2022-07-06_09h24.31.525,Colour_Asymmetry_Pilot,2022.1.3,MacIntel,59.99880002,62c50e9c1127f2cd403a315f,,,,,,,,,,,,,,,,,,,,,,,,,,,,,,,,,,,,,,,,,,,,,,,,,,,,,,,,,,,,,,,,,,,,,,,,,,,,,,,,,,,,,,,,,,,,,,,,,,,,,,,,,,,,,,,,,,,,,,,,,,,,,,,,,,,,,,,,,,,,,,,,,,,,,,,,,,,,,,,,,,,
0,43,43,23,1,,61715532205e28ec88b6903c,62c5387c505ca495f1f3dbcf,2022-07-06_09h24.31.525,Colour_Asymmetry_Pilot,2022.1.3,MacIntel,59.99880002,62c50e9c1127f2cd403a315f,,,,,,,,,,,,,,,,,,,,,,,,,,,,,,,,,,,,,,,,,,,,,,,,,,,,,,,,,,,,,,,,,,,,,,,,,,,,,,,,,,,,,,,,,,,,,,,,,,,,,,,,,,,,,,,,,,,,,,,,,,,,,,,,,,,,,,,,,,,,,,,,,,,,,,,,,,,,,,,,,,,
0,44,44,52,1,,61715532205e28ec88b6903c,62c5387c505ca495f1f3dbcf,2022-07-06_09h24.31.525,Colour_Asymmetry_Pilot,2022.1.3,MacIntel,59.99880002,62c50e9c1127f2cd403a315f,,,,,,,,,,,,,,,,,,,,,,,,,,,,,,,,,,,,,,,,,,,,,,,,,,,,,,,,,,,,,,,,,,,,,,,,,,,,,,,,,,,,,,,,,,,,,,,,,,,,,,,,,,,,,,,,,,,,,,,,,,,,,,,,,,,,,,,,,,,,,,,,,,,,,,,,,,,,,,,,,,,
0,45,45,1,1,,61715532205e28ec88b6903c,62c5387c505ca495f1f3dbcf,2022-07-06_09h24.31.525,Colour_Asymmetry_Pilot,2022.1.3,MacIntel,59.99880002,62c50e9c1127f2cd403a315f,,,,,,,,,,,,,,,,,,,,,,,,,,,,,,,,,,,,,,,,,,,,,,,,,,,,,,,,,,,,,,,,,,,,,,,,,,,,,,,,,,,,,,,,,,,,,,,,,,,,,,,,,,,,,,,,,,,,,,,,,,,,,,,,,,,,,,,,,,,,,,,,,,,,,,,,,,,,,,,,,,,
0,46,46,36,1,,61715532205e28ec88b6903c,62c5387c505ca495f1f3dbcf,2022-07-06_09h24.31.525,Colour_Asymmetry_Pilot,2022.1.3,MacIntel,59.99880002,62c50e9c1127f2cd403a315f,,,,,,,,,,,,,,,,,,,,,,,,,,,,,,,,,,,,,,,,,,,,,,,,,,,,,,,,,,,,,,,,,,,,,,,,,,,,,,,,,,,,,,,,,,,,,,,,,,,,,,,,,,,,,,,,,,,,,,,,,,,,,,,,,,,,,,,,,,,,,,,,,,,,,,,,,,,,,,,,,,,
0,47,47,73,1,,61715532205e28ec88b6903c,62c5387c505ca495f1f3dbcf,2022-07-06_09h24.31.525,Colour_Asymmetry_Pilot,2022.1.3,MacIntel,59.99880002,62c50e9c1127f2cd403a315f,,,,,,,,,,,,,,,,,,,,,,,,,,,,,,,,,,,,,,,,,,,,,,,,,,,,,,,,,,,,,,,,,,,,,,,,,,,,,,,,,,,,,,,,,,,,,,,,,,,,,,,,,,,,,,,,,,,,,,,,,,,,,,,,,,,,,,,,,,,,,,,,,,,,,,,,,,,,,,,,,,,
0,48,48,41,1,,61715532205e28ec88b6903c,62c5387c505ca495f1f3dbcf,2022-07-06_09h24.31.525,Colour_Asymmetry_Pilot,2022.1.3,MacIntel,59.99880002,62c50e9c1127f2cd403a315f,,,,,,,,,,,,,,,,,,,,,,,,,,,,,,,,,,,,,,,,,,,,,,,,,,,,,,,,,,,,,,,,,,,,,,,,,,,,,,,,,,,,,,,,,,,,,,,,,,,,,,,,,,,,,,,,,,,,,,,,,,,,,,,,,,,,,,,,,,,,,,,,,,,,,,,,,,,,,,,,,,,
0,49,49,46,1,,61715532205e28ec88b6903c,62c5387c505ca495f1f3dbcf,2022-07-06_09h24.31.525,Colour_Asymmetry_Pilot,2022.1.3,MacIntel,59.99880002,62c50e9c1127f2cd403a315f,,,,,,,,,,,,,,,,,,,,,,,,,,,,,,,,,,,,,,,,,,,,,,,,,,,,,,,,,,,,,,,,,,,,,,,,,,,,,,,,,,,,,,,,,,,,,,,,,,,,,,,,,,,,,,,,,,,,,,,,,,,,,,,,,,,,,,,,,,,,,,,,,,,,,,,,,,,,,,,,,,,
0,50,50,86,1,,61715532205e28ec88b6903c,62c5387c505ca495f1f3dbcf,2022-07-06_09h24.31.525,Colour_Asymmetry_Pilot,2022.1.3,MacIntel,59.99880002,62c50e9c1127f2cd403a315f,,,,,,,,,,,,,,,,,,,,,,,,,,,,,,,,,,,,,,,,,,,,,,,,,,,,,,,,,,,,,,,,,,,,,,,,,,,,,,,,,,,,,,,,,,,,,,,,,,,,,,,,,,,,,,,,,,,,,,,,,,,,,,,,,,,,,,,,,,,,,,,,,,,,,,,,,,,,,,,,,,,
0,51,51,64,1,,61715532205e28ec88b6903c,62c5387c505ca495f1f3dbcf,2022-07-06_09h24.31.525,Colour_Asymmetry_Pilot,2022.1.3,MacIntel,59.99880002,62c50e9c1127f2cd403a315f,,,,,,,,,,,,,,,,,,,,,,,,,,,,,,,,,,,,,,,,,,,,,,,,,,,,,,,,,,,,,,,,,,,,,,,,,,,,,,,,,,,,,,,,,,,,,,,,,,,,,,,,,,,,,,,,,,,,,,,,,,,,,,,,,,,,,,,,,,,,,,,,,,,,,,,,,,,,,,,,,,,
0,52,52,89,1,,61715532205e28ec88b6903c,62c5387c505ca495f1f3dbcf,2022-07-06_09h24.31.525,Colour_Asymmetry_Pilot,2022.1.3,MacIntel,59.99880002,62c50e9c1127f2cd403a315f,,,,,,,,,,,,,,,,,,,,,,,,,,,,,,,,,,,,,,,,,,,,,,,,,,,,,,,,,,,,,,,,,,,,,,,,,,,,,,,,,,,,,,,,,,,,,,,,,,,,,,,,,,,,,,,,,,,,,,,,,,,,,,,,,,,,,,,,,,,,,,,,,,,,,,,,,,,,,,,,,,,
0,53,53,3,1,,61715532205e28ec88b6903c,62c5387c505ca495f1f3dbcf,2022-07-06_09h24.31.525,Colour_Asymmetry_Pilot,2022.1.3,MacIntel,59.99880002,62c50e9c1127f2cd403a315f,,,,,,,,,,,,,,,,,,,,,,,,,,,,,,,,,,,,,,,,,,,,,,,,,,,,,,,,,,,,,,,,,,,,,,,,,,,,,,,,,,,,,,,,,,,,,,,,,,,,,,,,,,,,,,,,,,,,,,,,,,,,,,,,,,,,,,,,,,,,,,,,,,,,,,,,,,,,,,,,,,,
0,54,54,14,1,,61715532205e28ec88b6903c,62c5387c505ca495f1f3dbcf,2022-07-06_09h24.31.525,Colour_Asymmetry_Pilot,2022.1.3,MacIntel,59.99880002,62c50e9c1127f2cd403a315f,,,,,,,,,,,,,,,,,,,,,,,,,,,,,,,,,,,,,,,,,,,,,,,,,,,,,,,,,,,,,,,,,,,,,,,,,,,,,,,,,,,,,,,,,,,,,,,,,,,,,,,,,,,,,,,,,,,,,,,,,,,,,,,,,,,,,,,,,,,,,,,,,,,,,,,,,,,,,,,,,,,
0,55,55,81,1,,61715532205e28ec88b6903c,62c5387c505ca495f1f3dbcf,2022-07-06_09h24.31.525,Colour_Asymmetry_Pilot,2022.1.3,MacIntel,59.99880002,62c50e9c1127f2cd403a315f,,,,,,,,,,,,,,,,,,,,,,,,,,,,,,,,,,,,,,,,,,,,,,,,,,,,,,,,,,,,,,,,,,,,,,,,,,,,,,,,,,,,,,,,,,,,,,,,,,,,,,,,,,,,,,,,,,,,,,,,,,,,,,,,,,,,,,,,,,,,,,,,,,,,,,,,,,,,,,,,,,,
0,56,56,30,1,,61715532205e28ec88b6903c,62c5387c505ca495f1f3dbcf,2022-07-06_09h24.31.525,Colour_Asymmetry_Pilot,2022.1.3,MacIntel,59.99880002,62c50e9c1127f2cd403a315f,,,,,,,,,,,,,,,,,,,,,,,,,,,,,,,,,,,,,,,,,,,,,,,,,,,,,,,,,,,,,,,,,,,,,,,,,,,,,,,,,,,,,,,,,,,,,,,,,,,,,,,,,,,,,,,,,,,,,,,,,,,,,,,,,,,,,,,,,,,,,,,,,,,,,,,,,,,,,,,,,,,
0,57,57,50,1,,61715532205e28ec88b6903c,62c5387c505ca495f1f3dbcf,2022-07-06_09h24.31.525,Colour_Asymmetry_Pilot,2022.1.3,MacIntel,59.99880002,62c50e9c1127f2cd403a315f,,,,,,,,,,,,,,,,,,,,,,,,,,,,,,,,,,,,,,,,,,,,,,,,,,,,,,,,,,,,,,,,,,,,,,,,,,,,,,,,,,,,,,,,,,,,,,,,,,,,,,,,,,,,,,,,,,,,,,,,,,,,,,,,,,,,,,,,,,,,,,,,,,,,,,,,,,,,,,,,,,,
0,58,58,47,1,,61715532205e28ec88b6903c,62c5387c505ca495f1f3dbcf,2022-07-06_09h24.31.525,Colour_Asymmetry_Pilot,2022.1.3,MacIntel,59.99880002,62c50e9c1127f2cd403a315f,,,,,,,,,,,,,,,,,,,,,,,,,,,,,,,,,,,,,,,,,,,,,,,,,,,,,,,,,,,,,,,,,,,,,,,,,,,,,,,,,,,,,,,,,,,,,,,,,,,,,,,,,,,,,,,,,,,,,,,,,,,,,,,,,,,,,,,,,,,,,,,,,,,,,,,,,,,,,,,,,,,
0,59,59,60,1,,61715532205e28ec88b6903c,62c5387c505ca495f1f3dbcf,2022-07-06_09h24.31.525,Colour_Asymmetry_Pilot,2022.1.3,MacIntel,59.99880002,62c50e9c1127f2cd403a315f,,,,,,,,,,,,,,,,,,,,,,,,,,,,,,,,,,,,,,,,,,,,,,,,,,,,,,,,,,,,,,,,,,,,,,,,,,,,,,,,,,,,,,,,,,,,,,,,,,,,,,,,,,,,,,,,,,,,,,,,,,,,,,,,,,,,,,,,,,,,,,,,,,,,,,,,,,,,,,,,,,,
0,60,60,56,1,,61715532205e28ec88b6903c,62c5387c505ca495f1f3dbcf,2022-07-06_09h24.31.525,Colour_Asymmetry_Pilot,2022.1.3,MacIntel,59.99880002,62c50e9c1127f2cd403a315f,,,,,,,,,,,,,,,,,,,,,,,,,,,,,,,,,,,,,,,,,,,,,,,,,,,,,,,,,,,,,,,,,,,,,,,,,,,,,,,,,,,,,,,,,,,,,,,,,,,,,,,,,,,,,,,,,,,,,,,,,,,,,,,,,,,,,,,,,,,,,,,,,,,,,,,,,,,,,,,,,,,
0,61,61,49,1,,61715532205e28ec88b6903c,62c5387c505ca495f1f3dbcf,2022-07-06_09h24.31.525,Colour_Asymmetry_Pilot,2022.1.3,MacIntel,59.99880002,62c50e9c1127f2cd403a315f,,,,,,,,,,,,,,,,,,,,,,,,,,,,,,,,,,,,,,,,,,,,,,,,,,,,,,,,,,,,,,,,,,,,,,,,,,,,,,,,,,,,,,,,,,,,,,,,,,,,,,,,,,,,,,,,,,,,,,,,,,,,,,,,,,,,,,,,,,,,,,,,,,,,,,,,,,,,,,,,,,,
0,62,62,72,1,,61715532205e28ec88b6903c,62c5387c505ca495f1f3dbcf,2022-07-06_09h24.31.525,Colour_Asymmetry_Pilot,2022.1.3,MacIntel,59.99880002,62c50e9c1127f2cd403a315f,,,,,,,,,,,,,,,,,,,,,,,,,,,,,,,,,,,,,,,,,,,,,,,,,,,,,,,,,,,,,,,,,,,,,,,,,,,,,,,,,,,,,,,,,,,,,,,,,,,,,,,,,,,,,,,,,,,,,,,,,,,,,,,,,,,,,,,,,,,,,,,,,,,,,,,,,,,,,,,,,,,
0,63,63,7,1,,61715532205e28ec88b6903c,62c5387c505ca495f1f3dbcf,2022-07-06_09h24.31.525,Colour_Asymmetry_Pilot,2022.1.3,MacIntel,59.99880002,62c50e9c1127f2cd403a315f,,,,,,,,,,,,,,,,,,,,,,,,,,,,,,,,,,,,,,,,,,,,,,,,,,,,,,,,,,,,,,,,,,,,,,,,,,,,,,,,,,,,,,,,,,,,,,,,,,,,,,,,,,,,,,,,,,,,,,,,,,,,,,,,,,,,,,,,,,,,,,,,,,,,,,,,,,,,,,,,,,,
0,64,64,26,1,,61715532205e28ec88b6903c,62c5387c505ca495f1f3dbcf,2022-07-06_09h24.31.525,Colour_Asymmetry_Pilot,2022.1.3,MacIntel,59.99880002,62c50e9c1127f2cd403a315f,,,,,,,,,,,,,,,,,,,,,,,,,,,,,,,,,,,,,,,,,,,,,,,,,,,,,,,,,,,,,,,,,,,,,,,,,,,,,,,,,,,,,,,,,,,,,,,,,,,,,,,,,,,,,,,,,,,,,,,,,,,,,,,,,,,,,,,,,,,,,,,,,,,,,,,,,,,,,,,,,,,
0,65,65,53,1,,61715532205e28ec88b6903c,62c5387c505ca495f1f3dbcf,2022-07-06_09h24.31.525,Colour_Asymmetry_Pilot,2022.1.3,MacIntel,59.99880002,62c50e9c1127f2cd403a315f,,,,,,,,,,,,,,,,,,,,,,,,,,,,,,,,,,,,,,,,,,,,,,,,,,,,,,,,,,,,,,,,,,,,,,,,,,,,,,,,,,,,,,,,,,,,,,,,,,,,,,,,,,,,,,,,,,,,,,,,,,,,,,,,,,,,,,,,,,,,,,,,,,,,,,,,,,,,,,,,,,,
0,66,66,2,1,,61715532205e28ec88b6903c,62c5387c505ca495f1f3dbcf,2022-07-06_09h24.31.525,Colour_Asymmetry_Pilot,2022.1.3,MacIntel,59.99880002,62c50e9c1127f2cd403a315f,,,,,,,,,,,,,,,,,,,,,,,,,,,,,,,,,,,,,,,,,,,,,,,,,,,,,,,,,,,,,,,,,,,,,,,,,,,,,,,,,,,,,,,,,,,,,,,,,,,,,,,,,,,,,,,,,,,,,,,,,,,,,,,,,,,,,,,,,,,,,,,,,,,,,,,,,,,,,,,,,,,
0,67,67,10,1,,61715532205e28ec88b6903c,62c5387c505ca495f1f3dbcf,2022-07-06_09h24.31.525,Colour_Asymmetry_Pilot,2022.1.3,MacIntel,59.99880002,62c50e9c1127f2cd403a315f,,,,,,,,,,,,,,,,,,,,,,,,,,,,,,,,,,,,,,,,,,,,,,,,,,,,,,,,,,,,,,,,,,,,,,,,,,,,,,,,,,,,,,,,,,,,,,,,,,,,,,,,,,,,,,,,,,,,,,,,,,,,,,,,,,,,,,,,,,,,,,,,,,,,,,,,,,,,,,,,,,,
0,68,68,33,1,,61715532205e28ec88b6903c,62c5387c505ca495f1f3dbcf,2022-07-06_09h24.31.525,Colour_Asymmetry_Pilot,2022.1.3,MacIntel,59.99880002,62c50e9c1127f2cd403a315f,,,,,,,,,,,,,,,,,,,,,,,,,,,,,,,,,,,,,,,,,,,,,,,,,,,,,,,,,,,,,,,,,,,,,,,,,,,,,,,,,,,,,,,,,,,,,,,,,,,,,,,,,,,,,,,,,,,,,,,,,,,,,,,,,,,,,,,,,,,,,,,,,,,,,,,,,,,,,,,,,,,
0,69,69,62,1,,61715532205e28ec88b6903c,62c5387c505ca495f1f3dbcf,2022-07-06_09h24.31.525,Colour_Asymmetry_Pilot,2022.1.3,MacIntel,59.99880002,62c50e9c1127f2cd403a315f,,,,,,,,,,,,,,,,,,,,,,,,,,,,,,,,,,,,,,,,,,,,,,,,,,,,,,,,,,,,,,,,,,,,,,,,,,,,,,,,,,,,,,,,,,,,,,,,,,,,,,,,,,,,,,,,,,,,,,,,,,,,,,,,,,,,,,,,,,,,,,,,,,,,,,,,,,,,,,,,,,,
0,70,70,44,1,,61715532205e28ec88b6903c,62c5387c505ca495f1f3dbcf,2022-07-06_09h24.31.525,Colour_Asymmetry_Pilot,2022.1.3,MacIntel,59.99880002,62c50e9c1127f2cd403a315f,,,,,,,,,,,,,,,,,,,,,,,,,,,,,,,,,,,,,,,,,,,,,,,,,,,,,,,,,,,,,,,,,,,,,,,,,,,,,,,,,,,,,,,,,,,,,,,,,,,,,,,,,,,,,,,,,,,,,,,,,,,,,,,,,,,,,,,,,,,,,,,,,,,,,,,,,,,,,,,,,,,
0,71,71,54,1,,61715532205e28ec88b6903c,62c5387c505ca495f1f3dbcf,2022-07-06_09h24.31.525,Colour_Asymmetry_Pilot,2022.1.3,MacIntel,59.99880002,62c50e9c1127f2cd403a315f,,,,,,,,,,,,,,,,,,,,,,,,,,,,,,,,,,,,,,,,,,,,,,,,,,,,,,,,,,,,,,,,,,,,,,,,,,,,,,,,,,,,,,,,,,,,,,,,,,,,,,,,,,,,,,,,,,,,,,,,,,,,,,,,,,,,,,,,,,,,,,,,,,,,,,,,,,,,,,,,,,,
0,72,72,39,1,,61715532205e28ec88b6903c,62c5387c505ca495f1f3dbcf,2022-07-06_09h24.31.525,Colour_Asymmetry_Pilot,2022.1.3,MacIntel,59.99880002,62c50e9c1127f2cd403a315f,,,,,,,,,,,,,,,,,,,,,,,,,,,,,,,,,,,,,,,,,,,,,,,,,,,,,,,,,,,,,,,,,,,,,,,,,,,,,,,,,,,,,,,,,,,,,,,,,,,,,,,,,,,,,,,,,,,,,,,,,,,,,,,,,,,,,,,,,,,,,,,,,,,,,,,,,,,,,,,,,,,
0,73,73,61,1,,61715532205e28ec88b6903c,62c5387c505ca495f1f3dbcf,2022-07-06_09h24.31.525,Colour_Asymmetry_Pilot,2022.1.3,MacIntel,59.99880002,62c50e9c1127f2cd403a315f,,,,,,,,,,,,,,,,,,,,,,,,,,,,,,,,,,,,,,,,,,,,,,,,,,,,,,,,,,,,,,,,,,,,,,,,,,,,,,,,,,,,,,,,,,,,,,,,,,,,,,,,,,,,,,,,,,,,,,,,,,,,,,,,,,,,,,,,,,,,,,,,,,,,,,,,,,,,,,,,,,,
0,74,74,88,1,,61715532205e28ec88b6903c,62c5387c505ca495f1f3dbcf,2022-07-06_09h24.31.525,Colour_Asymmetry_Pilot,2022.1.3,MacIntel,59.99880002,62c50e9c1127f2cd403a315f,,,,,,,,,,,,,,,,,,,,,,,,,,,,,,,,,,,,,,,,,,,,,,,,,,,,,,,,,,,,,,,,,,,,,,,,,,,,,,,,,,,,,,,,,,,,,,,,,,,,,,,,,,,,,,,,,,,,,,,,,,,,,,,,,,,,,,,,,,,,,,,,,,,,,,,,,,,,,,,,,,,
0,75,75,85,1,,61715532205e28ec88b6903c,62c5387c505ca495f1f3dbcf,2022-07-06_09h24.31.525,Colour_Asymmetry_Pilot,2022.1.3,MacIntel,59.99880002,62c50e9c1127f2cd403a315f,,,,,,,,,,,,,,,,,,,,,,,,,,,,,,,,,,,,,,,,,,,,,,,,,,,,,,,,,,,,,,,,,,,,,,,,,,,,,,,,,,,,,,,,,,,,,,,,,,,,,,,,,,,,,,,,,,,,,,,,,,,,,,,,,,,,,,,,,,,,,,,,,,,,,,,,,,,,,,,,,,,
0,76,76,28,1,,61715532205e28ec88b6903c,62c5387c505ca495f1f3dbcf,2022-07-06_09h24.31.525,Colour_Asymmetry_Pilot,2022.1.3,MacIntel,59.99880002,62c50e9c1127f2cd403a315f,,,,,,,,,,,,,,,,,,,,,,,,,,,,,,,,,,,,,,,,,,,,,,,,,,,,,,,,,,,,,,,,,,,,,,,,,,,,,,,,,,,,,,,,,,,,,,,,,,,,,,,,,,,,,,,,,,,,,,,,,,,,,,,,,,,,,,,,,,,,,,,,,,,,,,,,,,,,,,,,,,,
0,77,77,68,1,,61715532205e28ec88b6903c,62c5387c505ca495f1f3dbcf,2022-07-06_09h24.31.525,Colour_Asymmetry_Pilot,2022.1.3,MacIntel,59.99880002,62c50e9c1127f2cd403a315f,,,,,,,,,,,,,,,,,,,,,,,,,,,,,,,,,,,,,,,,,,,,,,,,,,,,,,,,,,,,,,,,,,,,,,,,,,,,,,,,,,,,,,,,,,,,,,,,,,,,,,,,,,,,,,,,,,,,,,,,,,,,,,,,,,,,,,,,,,,,,,,,,,,,,,,,,,,,,,,,,,,
0,78,78,38,1,,61715532205e28ec88b6903c,62c5387c505ca495f1f3dbcf,2022-07-06_09h24.31.525,Colour_Asymmetry_Pilot,2022.1.3,MacIntel,59.99880002,62c50e9c1127f2cd403a315f,,,,,,,,,,,,,,,,,,,,,,,,,,,,,,,,,,,,,,,,,,,,,,,,,,,,,,,,,,,,,,,,,,,,,,,,,,,,,,,,,,,,,,,,,,,,,,,,,,,,,,,,,,,,,,,,,,,,,,,,,,,,,,,,,,,,,,,,,,,,,,,,,,,,,,,,,,,,,,,,,,,
0,79,79,82,1,,61715532205e28ec88b6903c,62c5387c505ca495f1f3dbcf,2022-07-06_09h24.31.525,Colour_Asymmetry_Pilot,2022.1.3,MacIntel,59.99880002,62c50e9c1127f2cd403a315f,,,,,,,,,,,,,,,,,,,,,,,,,,,,,,,,,,,,,,,,,,,,,,,,,,,,,,,,,,,,,,,,,,,,,,,,,,,,,,,,,,,,,,,,,,,,,,,,,,,,,,,,,,,,,,,,,,,,,,,,,,,,,,,,,,,,,,,,,,,,,,,,,,,,,,,,,,,,,,,,,,,
0,80,80,78,1,,61715532205e28ec88b6903c,62c5387c505ca495f1f3dbcf,2022-07-06_09h24.31.525,Colour_Asymmetry_Pilot,2022.1.3,MacIntel,59.99880002,62c50e9c1127f2cd403a315f,,,,,,,,,,,,,,,,,,,,,,,,,,,,,,,,,,,,,,,,,,,,,,,,,,,,,,,,,,,,,,,,,,,,,,,,,,,,,,,,,,,,,,,,,,,,,,,,,,,,,,,,,,,,,,,,,,,,,,,,,,,,,,,,,,,,,,,,,,,,,,,,,,,,,,,,,,,,,,,,,,,
0,81,81,29,1,,61715532205e28ec88b6903c,62c5387c505ca495f1f3dbcf,2022-07-06_09h24.31.525,Colour_Asymmetry_Pilot,2022.1.3,MacIntel,59.99880002,62c50e9c1127f2cd403a315f,,,,,,,,,,,,,,,,,,,,,,,,,,,,,,,,,,,,,,,,,,,,,,,,,,,,,,,,,,,,,,,,,,,,,,,,,,,,,,,,,,,,,,,,,,,,,,,,,,,,,,,,,,,,,,,,,,,,,,,,,,,,,,,,,,,,,,,,,,,,,,,,,,,,,,,,,,,,,,,,,,,
0,82,82,27,1,,61715532205e28ec88b6903c,62c5387c505ca495f1f3dbcf,2022-07-06_09h24.31.525,Colour_Asymmetry_Pilot,2022.1.3,MacIntel,59.99880002,62c50e9c1127f2cd403a315f,,,,,,,,,,,,,,,,,,,,,,,,,,,,,,,,,,,,,,,,,,,,,,,,,,,,,,,,,,,,,,,,,,,,,,,,,,,,,,,,,,,,,,,,,,,,,,,,,,,,,,,,,,,,,,,,,,,,,,,,,,,,,,,,,,,,,,,,,,,,,,,,,,,,,,,,,,,,,,,,,,,
0,83,83,76,1,,61715532205e28ec88b6903c,62c5387c505ca495f1f3dbcf,2022-07-06_09h24.31.525,Colour_Asymmetry_Pilot,2022.1.3,MacIntel,59.99880002,62c50e9c1127f2cd403a315f,,,,,,,,,,,,,,,,,,,,,,,,,,,,,,,,,,,,,,,,,,,,,,,,,,,,,,,,,,,,,,,,,,,,,,,,,,,,,,,,,,,,,,,,,,,,,,,,,,,,,,,,,,,,,,,,,,,,,,,,,,,,,,,,,,,,,,,,,,,,,,,,,,,,,,,,,,,,,,,,,,,
0,84,84,91,1,,61715532205e28ec88b6903c,62c5387c505ca495f1f3dbcf,2022-07-06_09h24.31.525,Colour_Asymmetry_Pilot,2022.1.3,MacIntel,59.99880002,62c50e9c1127f2cd403a315f,,,,,,,,,,,,,,,,,,,,,,,,,,,,,,,,,,,,,,,,,,,,,,,,,,,,,,,,,,,,,,,,,,,,,,,,,,,,,,,,,,,,,,,,,,,,,,,,,,,,,,,,,,,,,,,,,,,,,,,,,,,,,,,,,,,,,,,,,,,,,,,,,,,,,,,,,,,,,,,,,,,
0,85,85,0,1,,61715532205e28ec88b6903c,62c5387c505ca495f1f3dbcf,2022-07-06_09h24.31.525,Colour_Asymmetry_Pilot,2022.1.3,MacIntel,59.99880002,62c50e9c1127f2cd403a315f,,,,,,,,,,,,,,,,,,,,,,,,,,,,,,,,,,,,,,,,,,,,,,,,,,,,,,,,,,,,,,,,,,,,,,,,,,,,,,,,,,,,,,,,,,,,,,,,,,,,,,,,,,,,,,,,,,,,,,,,,,,,,,,,,,,,,,,,,,,,,,,,,,,,,,,,,,,,,,,,,,,
0,86,86,42,1,,61715532205e28ec88b6903c,62c5387c505ca495f1f3dbcf,2022-07-06_09h24.31.525,Colour_Asymmetry_Pilot,2022.1.3,MacIntel,59.99880002,62c50e9c1127f2cd403a315f,,,,,,,,,,,,,,,,,,,,,,,,,,,,,,,,,,,,,,,,,,,,,,,,,,,,,,,,,,,,,,,,,,,,,,,,,,,,,,,,,,,,,,,,,,,,,,,,,,,,,,,,,,,,,,,,,,,,,,,,,,,,,,,,,,,,,,,,,,,,,,,,,,,,,,,,,,,,,,,,,,,
0,87,87,24,1,,61715532205e28ec88b6903c,62c5387c505ca495f1f3dbcf,2022-07-06_09h24.31.525,Colour_Asymmetry_Pilot,2022.1.3,MacIntel,59.99880002,62c50e9c1127f2cd403a315f,,,,,,,,,,,,,,,,,,,,,,,,,,,,,,,,,,,,,,,,,,,,,,,,,,,,,,,,,,,,,,,,,,,,,,,,,,,,,,,,,,,,,,,,,,,,,,,,,,,,,,,,,,,,,,,,,,,,,,,,,,,,,,,,,,,,,,,,,,,,,,,,,,,,,,,,,,,,,,,,,,,
0,88,88,79,1,,61715532205e28ec88b6903c,62c5387c505ca495f1f3dbcf,2022-07-06_09h24.31.525,Colour_Asymmetry_Pilot,2022.1.3,MacIntel,59.99880002,62c50e9c1127f2cd403a315f,,,,,,,,,,,,,,,,,,,,,,,,,,,,,,,,,,,,,,,,,,,,,,,,,,,,,,,,,,,,,,,,,,,,,,,,,,,,,,,,,,,,,,,,,,,,,,,,,,,,,,,,,,,,,,,,,,,,,,,,,,,,,,,,,,,,,,,,,,,,,,,,,,,,,,,,,,,,,,,,,,,
0,89,89,35,1,,61715532205e28ec88b6903c,62c5387c505ca495f1f3dbcf,2022-07-06_09h24.31.525,Colour_Asymmetry_Pilot,2022.1.3,MacIntel,59.99880002,62c50e9c1127f2cd403a315f,,,,,,,,,,,,,,,,,,,,,,,,,,,,,,,,,,,,,,,,,,,,,,,,,,,,,,,,,,,,,,,,,,,,,,,,,,,,,,,,,,,,,,,,,,,,,,,,,,,,,,,,,,,,,,,,,,,,,,,,,,,,,,,,,,,,,,,,,,,,,,,,,,,,,,,,,,,,,,,,,,,
0,90,90,74,1,,61715532205e28ec88b6903c,62c5387c505ca495f1f3dbcf,2022-07-06_09h24.31.525,Colour_Asymmetry_Pilot,2022.1.3,MacIntel,59.99880002,62c50e9c1127f2cd403a315f,,,,,,,,,,,,,,,,,,,,,,,,,,,,,,,,,,,,,,,,,,,,,,,,,,,,,,,,,,,,,,,,,,,,,,,,,,,,,,,,,,,,,,,,,,,,,,,,,,,,,,,,,,,,,,,,,,,,,,,,,,,,,,,,,,,,,,,,,,,,,,,,,,,,,,,,,,,,,,,,,,,
0,91,91,75,1,,61715532205e28ec88b6903c,62c5387c505ca495f1f3dbcf,2022-07-06_09h24.31.525,Colour_Asymmetry_Pilot,2022.1.3,MacIntel,59.99880002,62c50e9c1127f2cd403a315f,,,,,,,,,,,,,,,,,,,,,,,,,,,,,,,,,,,,,,,,,,,,,,,,,,,,,,,,,,,,,,,,,,,,,,,,,,,,,,,,,,,,,,,,,,,,,,,,,,,,,,,,,,,,,,,,,,,,,,,,,,,,,,,,,,,,,,,,,,,,,,,,,,,,,,,,,,,,,,,,,,,
0,92,92,9,1,,61715532205e28ec88b6903c,62c5387c505ca495f1f3dbcf,2022-07-06_09h24.31.525,Colour_Asymmetry_Pilot,2022.1.3,MacIntel,59.99880002,62c50e9c1127f2cd403a315f,,,,,,,,,,,,,,,,,,,,,,,,,,,,,,,,,,,,,,,,,,,,,,,,,,,,,,,,,,,,,,,,,,,,,,,,,,,,,,,,,,,,,,,,,,,,,,,,,,,,,,,,,,,,,,,,,,,,,,,,,,,,,,,,,,,,,,,,,,,,,,,,,,,,,,,,,,,,,,,,,,,
,,,,,,61715532205e28ec88b6903c,62c5387c505ca495f1f3dbcf,2022-07-06_09h24.31.525,Colour_Asymmetry_Pilot,2022.1.3,MacIntel,59.99880002,62c50e9c1127f2cd403a315f,0,0,0,13,1,threefour,,,,,,,,,,,,,,,,,,,,,,,,,,,,,,,,,,,,,,,,,,,,,,,,,,,,,,,,,,,,,,,,,,,,,,,,,,,,,,,,,,,,,,,,,,,,,,,,,,,,,,,,,,,,,,,,,,,,,,,,,,,,,,,,,,,,,,,,,,,,,,,,,,,,,,,,,,,,,
,,,,,,61715532205e28ec88b6903c,62c5387c505ca495f1f3dbcf,2022-07-06_09h24.31.525,Colour_Asymmetry_Pilot,2022.1.3,MacIntel,59.99880002,62c50e9c1127f2cd403a315f,0,1,1,32,1,onetwo,,,,,,,,,,,,,,,,,,,,,,,,,,,,,,,,,,,,,,,,,,,,,,,,,,,,,,,,,,,,,,,,,,,,,,,,,,,,,,,,,,,,,,,,,,,,,,,,,,,,,,,,,,,,,,,,,,,,,,,,,,,,,,,,,,,,,,,,,,,,,,,,,,,,,,,,,,,,,
,,,,,,61715532205e28ec88b6903c,62c5387c505ca495f1f3dbcf,2022-07-06_09h24.31.525,Colour_Asymmetry_Pilot,2022.1.3,MacIntel,59.99880002,62c50e9c1127f2cd403a315f,0,2,2,139,1,twofour,,,,,,,,,,,,,,,,,,,,,,,,,,,,,,,,,,,,,,,,,,,,,,,,,,,,,,,,,,,,,,,,,,,,,,,,,,,,,,,,,,,,,,,,,,,,,,,,,,,,,,,,,,,,,,,,,,,,,,,,,,,,,,,,,,,,,,,,,,,,,,,,,,,,,,,,,,,,,
,,,,,,61715532205e28ec88b6903c,62c5387c505ca495f1f3dbcf,2022-07-06_09h24.31.525,Colour_Asymmetry_Pilot,2022.1.3,MacIntel,59.99880002,62c50e9c1127f2cd403a315f,0,3,3,127,1,fourthree,,,,,,,,,,,,,,,,,,,,,,,,,,,,,,,,,,,,,,,,,,,,,,,,,,,,,,,,,,,,,,,,,,,,,,,,,,,,,,,,,,,,,,,,,,,,,,,,,,,,,,,,,,,,,,,,,,,,,,,,,,,,,,,,,,,,,,,,,,,,,,,,,,,,,,,,,,,,,
,,,,,,61715532205e28ec88b6903c,62c5387c505ca495f1f3dbcf,2022-07-06_09h24.31.525,Colour_Asymmetry_Pilot,2022.1.3,MacIntel,59.99880002,62c50e9c1127f2cd403a315f,0,4,4,147,1,twofour,,,,,,,,,,,,,,,,,,,,,,,,,,,,,,,,,,,,,,,,,,,,,,,,,,,,,,,,,,,,,,,,,,,,,,,,,,,,,,,,,,,,,,,,,,,,,,,,,,,,,,,,,,,,,,,,,,,,,,,,,,,,,,,,,,,,,,,,,,,,,,,,,,,,,,,,,,,,,
,,,,,,61715532205e28ec88b6903c,62c5387c505ca495f1f3dbcf,2022-07-06_09h24.31.525,Colour_Asymmetry_Pilot,2022.1.3,MacIntel,59.99880002,62c50e9c1127f2cd403a315f,0,5,5,15,1,fourthree,,,,,,,,,,,,,,,,,,,,,,,,,,,,,,,,,,,,,,,,,,,,,,,,,,,,,,,,,,,,,,,,,,,,,,,,,,,,,,,,,,,,,,,,,,,,,,,,,,,,,,,,,,,,,,,,,,,,,,,,,,,,,,,,,,,,,,,,,,,,,,,,,,,,,,,,,,,,,
,,,,,,61715532205e28ec88b6903c,62c5387c505ca495f1f3dbcf,2022-07-06_09h24.31.525,Colour_Asymmetry_Pilot,2022.1.3,MacIntel,59.99880002,62c50e9c1127f2cd403a315f,0,6,6,30,1,fourtwo,,,,,,,,,,,,,,,,,,,,,,,,,,,,,,,,,,,,,,,,,,,,,,,,,,,,,,,,,,,,,,,,,,,,,,,,,,,,,,,,,,,,,,,,,,,,,,,,,,,,,,,,,,,,,,,,,,,,,,,,,,,,,,,,,,,,,,,,,,,,,,,,,,,,,,,,,,,,,
,,,,,,61715532205e28ec88b6903c,62c5387c505ca495f1f3dbcf,2022-07-06_09h24.31.525,Colour_Asymmetry_Pilot,2022.1.3,MacIntel,59.99880002,62c50e9c1127f2cd403a315f,0,7,7,6,1,fourtwo,,,,,,,,,,,,,,,,,,,,,,,,,,,,,,,,,,,,,,,,,,,,,,,,,,,,,,,,,,,,,,,,,,,,,,,,,,,,,,,,,,,,,,,,,,,,,,,,,,,,,,,,,,,,,,,,,,,,,,,,,,,,,,,,,,,,,,,,,,,,,,,,,,,,,,,,,,,,,
,,,,,,61715532205e28ec88b6903c,62c5387c505ca495f1f3dbcf,2022-07-06_09h24.31.525,Colour_Asymmetry_Pilot,2022.1.3,MacIntel,59.99880002,62c50e9c1127f2cd403a315f,0,8,8,38,1,fourtwo,,,,,,,,,,,,,,,,,,,,,,,,,,,,,,,,,,,,,,,,,,,,,,,,,,,,,,,,,,,,,,,,,,,,,,,,,,,,,,,,,,,,,,,,,,,,,,,,,,,,,,,,,,,,,,,,,,,,,,,,,,,,,,,,,,,,,,,,,,,,,,,,,,,,,,,,,,,,,
,,,,,,61715532205e28ec88b6903c,62c5387c505ca495f1f3dbcf,2022-07-06_09h24.31.525,Colour_Asymmetry_Pilot,2022.1.3,MacIntel,59.99880002,62c50e9c1127f2cd403a315f,0,9,9,104,1,onetwo,,,,,,,,,,,,,,,,,,,,,,,,,,,,,,,,,,,,,,,,,,,,,,,,,,,,,,,,,,,,,,,,,,,,,,,,,,,,,,,,,,,,,,,,,,,,,,,,,,,,,,,,,,,,,,,,,,,,,,,,,,,,,,,,,,,,,,,,,,,,,,,,,,,,,,,,,,,,,
,,,,,,61715532205e28ec88b6903c,62c5387c505ca495f1f3dbcf,2022-07-06_09h24.31.525,Colour_Asymmetry_Pilot,2022.1.3,MacIntel,59.99880002,62c50e9c1127f2cd403a315f,0,10,10,107,1,twofour,,,,,,,,,,,,,,,,,,,,,,,,,,,,,,,,,,,,,,,,,,,,,,,,,,,,,,,,,,,,,,,,,,,,,,,,,,,,,,,,,,,,,,,,,,,,,,,,,,,,,,,,,,,,,,,,,,,,,,,,,,,,,,,,,,,,,,,,,,,,,,,,,,,,,,,,,,,,,
,,,,,,61715532205e28ec88b6903c,62c5387c505ca495f1f3dbcf,2022-07-06_09h24.31.525,Colour_Asymmetry_Pilot,2022.1.3,MacIntel,59.99880002,62c50e9c1127f2cd403a315f,0,11,11,62,1,fourtwo,,,,,,,,,,,,,,,,,,,,,,,,,,,,,,,,,,,,,,,,,,,,,,,,,,,,,,,,,,,,,,,,,,,,,,,,,,,,,,,,,,,,,,,,,,,,,,,,,,,,,,,,,,,,,,,,,,,,,,,,,,,,,,,,,,,,,,,,,,,,,,,,,,,,,,,,,,,,,
,,,,,,61715532205e28ec88b6903c,62c5387c505ca495f1f3dbcf,2022-07-06_09h24.31.525,Colour_Asymmetry_Pilot,2022.1.3,MacIntel,59.99880002,62c50e9c1127f2cd403a315f,0,12,12,1,1,onethree,,,,,,,,,,,,,,,,,,,,,,,,,,,,,,,,,,,,,,,,,,,,,,,,,,,,,,,,,,,,,,,,,,,,,,,,,,,,,,,,,,,,,,,,,,,,,,,,,,,,,,,,,,,,,,,,,,,,,,,,,,,,,,,,,,,,,,,,,,,,,,,,,,,,,,,,,,,,,
,,,,,,61715532205e28ec88b6903c,62c5387c505ca495f1f3dbcf,2022-07-06_09h24.31.525,Colour_Asymmetry_Pilot,2022.1.3,MacIntel,59.99880002,62c50e9c1127f2cd403a315f,0,13,13,101,1,threefour,,,,,,,,,,,,,,,,,,,,,,,,,,,,,,,,,,,,,,,,,,,,,,,,,,,,,,,,,,,,,,,,,,,,,,,,,,,,,,,,,,,,,,,,,,,,,,,,,,,,,,,,,,,,,,,,,,,,,,,,,,,,,,,,,,,,,,,,,,,,,,,,,,,,,,,,,,,,,
,,,,,,61715532205e28ec88b6903c,62c5387c505ca495f1f3dbcf,2022-07-06_09h24.31.525,Colour_Asymmetry_Pilot,2022.1.3,MacIntel,59.99880002,62c50e9c1127f2cd403a315f,0,14,14,126,1,fourtwo,,,,,,,,,,,,,,,,,,,,,,,,,,,,,,,,,,,,,,,,,,,,,,,,,,,,,,,,,,,,,,,,,,,,,,,,,,,,,,,,,,,,,,,,,,,,,,,,,,,,,,,,,,,,,,,,,,,,,,,,,,,,,,,,,,,,,,,,,,,,,,,,,,,,,,,,,,,,,
,,,,,,61715532205e28ec88b6903c,62c5387c505ca495f1f3dbcf,2022-07-06_09h24.31.525,Colour_Asymmetry_Pilot,2022.1.3,MacIntel,59.99880002,62c50e9c1127f2cd403a315f,0,15,15,118,1,fourtwo,,,,,,,,,,,,,,,,,,,,,,,,,,,,,,,,,,,,,,,,,,,,,,,,,,,,,,,,,,,,,,,,,,,,,,,,,,,,,,,,,,,,,,,,,,,,,,,,,,,,,,,,,,,,,,,,,,,,,,,,,,,,,,,,,,,,,,,,,,,,,,,,,,,,,,,,,,,,,
,,,,,,61715532205e28ec88b6903c,62c5387c505ca495f1f3dbcf,2022-07-06_09h24.31.525,Colour_Asymmetry_Pilot,2022.1.3,MacIntel,59.99880002,62c50e9c1127f2cd403a315f,0,16,16,37,1,threefour,,,,,,,,,,,,,,,,,,,,,,,,,,,,,,,,,,,,,,,,,,,,,,,,,,,,,,,,,,,,,,,,,,,,,,,,,,,,,,,,,,,,,,,,,,,,,,,,,,,,,,,,,,,,,,,,,,,,,,,,,,,,,,,,,,,,,,,,,,,,,,,,,,,,,,,,,,,,,
,,,,,,61715532205e28ec88b6903c,62c5387c505ca495f1f3dbcf,2022-07-06_09h24.31.525,Colour_Asymmetry_Pilot,2022.1.3,MacIntel,59.99880002,62c50e9c1127f2cd403a315f,0,17,17,49,1,onethree,,,,,,,,,,,,,,,,,,,,,,,,,,,,,,,,,,,,,,,,,,,,,,,,,,,,,,,,,,,,,,,,,,,,,,,,,,,,,,,,,,,,,,,,,,,,,,,,,,,,,,,,,,,,,,,,,,,,,,,,,,,,,,,,,,,,,,,,,,,,,,,,,,,,,,,,,,,,,
,,,,,,61715532205e28ec88b6903c,62c5387c505ca495f1f3dbcf,2022-07-06_09h24.31.525,Colour_Asymmetry_Pilot,2022.1.3,MacIntel,59.99880002,62c50e9c1127f2cd403a315f,0,18,18,154,1,twoone,,,,,,,,,,,,,,,,,,,,,,,,,,,,,,,,,,,,,,,,,,,,,,,,,,,,,,,,,,,,,,,,,,,,,,,,,,,,,,,,,,,,,,,,,,,,,,,,,,,,,,,,,,,,,,,,,,,,,,,,,,,,,,,,,,,,,,,,,,,,,,,,,,,,,,,,,,,,,
,,,,,,61715532205e28ec88b6903c,62c5387c505ca495f1f3dbcf,2022-07-06_09h24.31.525,Colour_Asymmetry_Pilot,2022.1.3,MacIntel,59.99880002,62c50e9c1127f2cd403a315f,0,19,19,11,1,twofour,,,,,,,,,,,,,,,,,,,,,,,,,,,,,,,,,,,,,,,,,,,,,,,,,,,,,,,,,,,,,,,,,,,,,,,,,,,,,,,,,,,,,,,,,,,,,,,,,,,,,,,,,,,,,,,,,,,,,,,,,,,,,,,,,,,,,,,,,,,,,,,,,,,,,,,,,,,,,
,,,,,,61715532205e28ec88b6903c,62c5387c505ca495f1f3dbcf,2022-07-06_09h24.31.525,Colour_Asymmetry_Pilot,2022.1.3,MacIntel,59.99880002,62c50e9c1127f2cd403a315f,0,20,20,92,1,threeone,,,,,,,,,,,,,,,,,,,,,,,,,,,,,,,,,,,,,,,,,,,,,,,,,,,,,,,,,,,,,,,,,,,,,,,,,,,,,,,,,,,,,,,,,,,,,,,,,,,,,,,,,,,,,,,,,,,,,,,,,,,,,,,,,,,,,,,,,,,,,,,,,,,,,,,,,,,,,
,,,,,,61715532205e28ec88b6903c,62c5387c505ca495f1f3dbcf,2022-07-06_09h24.31.525,Colour_Asymmetry_Pilot,2022.1.3,MacIntel,59.99880002,62c50e9c1127f2cd403a315f,0,21,21,72,1,onetwo,,,,,,,,,,,,,,,,,,,,,,,,,,,,,,,,,,,,,,,,,,,,,,,,,,,,,,,,,,,,,,,,,,,,,,,,,,,,,,,,,,,,,,,,,,,,,,,,,,,,,,,,,,,,,,,,,,,,,,,,,,,,,,,,,,,,,,,,,,,,,,,,,,,,,,,,,,,,,
,,,,,,61715532205e28ec88b6903c,62c5387c505ca495f1f3dbcf,2022-07-06_09h24.31.525,Colour_Asymmetry_Pilot,2022.1.3,MacIntel,59.99880002,62c50e9c1127f2cd403a315f,0,22,22,16,1,onetwo,,,,,,,,,,,,,,,,,,,,,,,,,,,,,,,,,,,,,,,,,,,,,,,,,,,,,,,,,,,,,,,,,,,,,,,,,,,,,,,,,,,,,,,,,,,,,,,,,,,,,,,,,,,,,,,,,,,,,,,,,,,,,,,,,,,,,,,,,,,,,,,,,,,,,,,,,,,,,
,,,,,,61715532205e28ec88b6903c,62c5387c505ca495f1f3dbcf,2022-07-06_09h24.31.525,Colour_Asymmetry_Pilot,2022.1.3,MacIntel,59.99880002,62c50e9c1127f2cd403a315f,0,23,23,145,1,onethree,,,,,,,,,,,,,,,,,,,,,,,,,,,,,,,,,,,,,,,,,,,,,,,,,,,,,,,,,,,,,,,,,,,,,,,,,,,,,,,,,,,,,,,,,,,,,,,,,,,,,,,,,,,,,,,,,,,,,,,,,,,,,,,,,,,,,,,,,,,,,,,,,,,,,,,,,,,,,
,,,,,,61715532205e28ec88b6903c,62c5387c505ca495f1f3dbcf,2022-07-06_09h24.31.525,Colour_Asymmetry_Pilot,2022.1.3,MacIntel,59.99880002,62c50e9c1127f2cd403a315f,0,24,24,134,1,fourtwo,,,,,,,,,,,,,,,,,,,,,,,,,,,,,,,,,,,,,,,,,,,,,,,,,,,,,,,,,,,,,,,,,,,,,,,,,,,,,,,,,,,,,,,,,,,,,,,,,,,,,,,,,,,,,,,,,,,,,,,,,,,,,,,,,,,,,,,,,,,,,,,,,,,,,,,,,,,,,
,,,,,,61715532205e28ec88b6903c,62c5387c505ca495f1f3dbcf,2022-07-06_09h24.31.525,Colour_Asymmetry_Pilot,2022.1.3,MacIntel,59.99880002,62c50e9c1127f2cd403a315f,0,25,25,4,1,threeone,,,,,,,,,,,,,,,,,,,,,,,,,,,,,,,,,,,,,,,,,,,,,,,,,,,,,,,,,,,,,,,,,,,,,,,,,,,,,,,,,,,,,,,,,,,,,,,,,,,,,,,,,,,,,,,,,,,,,,,,,,,,,,,,,,,,,,,,,,,,,,,,,,,,,,,,,,,,,
,,,,,,61715532205e28ec88b6903c,62c5387c505ca495f1f3dbcf,2022-07-06_09h24.31.525,Colour_Asymmetry_Pilot,2022.1.3,MacIntel,59.99880002,62c50e9c1127f2cd403a315f,0,26,26,26,1,twoone,,,,,,,,,,,,,,,,,,,,,,,,,,,,,,,,,,,,,,,,,,,,,,,,,,,,,,,,,,,,,,,,,,,,,,,,,,,,,,,,,,,,,,,,,,,,,,,,,,,,,,,,,,,,,,,,,,,,,,,,,,,,,,,,,,,,,,,,,,,,,,,,,,,,,,,,,,,,,
,,,,,,61715532205e28ec88b6903c,62c5387c505ca495f1f3dbcf,2022-07-06_09h24.31.525,Colour_Asymmetry_Pilot,2022.1.3,MacIntel,59.99880002,62c50e9c1127f2cd403a315f,0,27,27,97,1,onethree,,,,,,,,,,,,,,,,,,,,,,,,,,,,,,,,,,,,,,,,,,,,,,,,,,,,,,,,,,,,,,,,,,,,,,,,,,,,,,,,,,,,,,,,,,,,,,,,,,,,,,,,,,,,,,,,,,,,,,,,,,,,,,,,,,,,,,,,,,,,,,,,,,,,,,,,,,,,,
,,,,,,61715532205e28ec88b6903c,62c5387c505ca495f1f3dbcf,2022-07-06_09h24.31.525,Colour_Asymmetry_Pilot,2022.1.3,MacIntel,59.99880002,62c50e9c1127f2cd403a315f,0,28,28,18,1,twoone,,,,,,,,,,,,,,,,,,,,,,,,,,,,,,,,,,,,,,,,,,,,,,,,,,,,,,,,,,,,,,,,,,,,,,,,,,,,,,,,,,,,,,,,,,,,,,,,,,,,,,,,,,,,,,,,,,,,,,,,,,,,,,,,,,,,,,,,,,,,,,,,,,,,,,,,,,,,,
,,,,,,61715532205e28ec88b6903c,62c5387c505ca495f1f3dbcf,2022-07-06_09h24.31.525,Colour_Asymmetry_Pilot,2022.1.3,MacIntel,59.99880002,62c50e9c1127f2cd403a315f,0,29,29,27,1,twofour,,,,,,,,,,,,,,,,,,,,,,,,,,,,,,,,,,,,,,,,,,,,,,,,,,,,,,,,,,,,,,,,,,,,,,,,,,,,,,,,,,,,,,,,,,,,,,,,,,,,,,,,,,,,,,,,,,,,,,,,,,,,,,,,,,,,,,,,,,,,,,,,,,,,,,,,,,,,,
,,,,,,61715532205e28ec88b6903c,62c5387c505ca495f1f3dbcf,2022-07-06_09h24.31.525,Colour_Asymmetry_Pilot,2022.1.3,MacIntel,59.99880002,62c50e9c1127f2cd403a315f,0,30,30,17,1,onethree,,,,,,,,,,,,,,,,,,,,,,,,,,,,,,,,,,,,,,,,,,,,,,,,,,,,,,,,,,,,,,,,,,,,,,,,,,,,,,,,,,,,,,,,,,,,,,,,,,,,,,,,,,,,,,,,,,,,,,,,,,,,,,,,,,,,,,,,,,,,,,,,,,,,,,,,,,,,,
,,,,,,61715532205e28ec88b6903c,62c5387c505ca495f1f3dbcf,2022-07-06_09h24.31.525,Colour_Asymmetry_Pilot,2022.1.3,MacIntel,59.99880002,62c50e9c1127f2cd403a315f,0,31,31,74,1,twoone,,,,,,,,,,,,,,,,,,,,,,,,,,,,,,,,,,,,,,,,,,,,,,,,,,,,,,,,,,,,,,,,,,,,,,,,,,,,,,,,,,,,,,,,,,,,,,,,,,,,,,,,,,,,,,,,,,,,,,,,,,,,,,,,,,,,,,,,,,,,,,,,,,,,,,,,,,,,,
,,,,,,61715532205e28ec88b6903c,62c5387c505ca495f1f3dbcf,2022-07-06_09h24.31.525,Colour_Asymmetry_Pilot,2022.1.3,MacIntel,59.99880002,62c50e9c1127f2cd403a315f,0,32,32,58,1,twoone,,,,,,,,,,,,,,,,,,,,,,,,,,,,,,,,,,,,,,,,,,,,,,,,,,,,,,,,,,,,,,,,,,,,,,,,,,,,,,,,,,,,,,,,,,,,,,,,,,,,,,,,,,,,,,,,,,,,,,,,,,,,,,,,,,,,,,,,,,,,,,,,,,,,,,,,,,,,,
,,,,,,61715532205e28ec88b6903c,62c5387c505ca495f1f3dbcf,2022-07-06_09h24.31.525,Colour_Asymmetry_Pilot,2022.1.3,MacIntel,59.99880002,62c50e9c1127f2cd403a315f,0,33,33,10,1,twoone,,,,,,,,,,,,,,,,,,,,,,,,,,,,,,,,,,,,,,,,,,,,,,,,,,,,,,,,,,,,,,,,,,,,,,,,,,,,,,,,,,,,,,,,,,,,,,,,,,,,,,,,,,,,,,,,,,,,,,,,,,,,,,,,,,,,,,,,,,,,,,,,,,,,,,,,,,,,,
,,,,,,61715532205e28ec88b6903c,62c5387c505ca495f1f3dbcf,2022-07-06_09h24.31.525,Colour_Asymmetry_Pilot,2022.1.3,MacIntel,59.99880002,62c50e9c1127f2cd403a315f,0,34,34,158,1,fourtwo,,,,,,,,,,,,,,,,,,,,,,,,,,,,,,,,,,,,,,,,,,,,,,,,,,,,,,,,,,,,,,,,,,,,,,,,,,,,,,,,,,,,,,,,,,,,,,,,,,,,,,,,,,,,,,,,,,,,,,,,,,,,,,,,,,,,,,,,,,,,,,,,,,,,,,,,,,,,,
,,,,,,61715532205e28ec88b6903c,62c5387c505ca495f1f3dbcf,2022-07-06_09h24.31.525,Colour_Asymmetry_Pilot,2022.1.3,MacIntel,59.99880002,62c50e9c1127f2cd403a315f,0,35,35,40,1,onetwo,,,,,,,,,,,,,,,,,,,,,,,,,,,,,,,,,,,,,,,,,,,,,,,,,,,,,,,,,,,,,,,,,,,,,,,,,,,,,,,,,,,,,,,,,,,,,,,,,,,,,,,,,,,,,,,,,,,,,,,,,,,,,,,,,,,,,,,,,,,,,,,,,,,,,,,,,,,,,
,,,,,,61715532205e28ec88b6903c,62c5387c505ca495f1f3dbcf,2022-07-06_09h24.31.525,Colour_Asymmetry_Pilot,2022.1.3,MacIntel,59.99880002,62c50e9c1127f2cd403a315f,0,36,36,129,1,onethree,,,,,,,,,,,,,,,,,,,,,,,,,,,,,,,,,,,,,,,,,,,,,,,,,,,,,,,,,,,,,,,,,,,,,,,,,,,,,,,,,,,,,,,,,,,,,,,,,,,,,,,,,,,,,,,,,,,,,,,,,,,,,,,,,,,,,,,,,,,,,,,,,,,,,,,,,,,,,
,,,,,,61715532205e28ec88b6903c,62c5387c505ca495f1f3dbcf,2022-07-06_09h24.31.525,Colour_Asymmetry_Pilot,2022.1.3,MacIntel,59.99880002,62c50e9c1127f2cd403a315f,0,37,37,55,1,fourthree,,,,,,,,,,,,,,,,,,,,,,,,,,,,,,,,,,,,,,,,,,,,,,,,,,,,,,,,,,,,,,,,,,,,,,,,,,,,,,,,,,,,,,,,,,,,,,,,,,,,,,,,,,,,,,,,,,,,,,,,,,,,,,,,,,,,,,,,,,,,,,,,,,,,,,,,,,,,,
,,,,,,61715532205e28ec88b6903c,62c5387c505ca495f1f3dbcf,2022-07-06_09h24.31.525,Colour_Asymmetry_Pilot,2022.1.3,MacIntel,59.99880002,62c50e9c1127f2cd403a315f,0,38,38,94,1,fourtwo,,,,,,,,,,,,,,,,,,,,,,,,,,,,,,,,,,,,,,,,,,,,,,,,,,,,,,,,,,,,,,,,,,,,,,,,,,,,,,,,,,,,,,,,,,,,,,,,,,,,,,,,,,,,,,,,,,,,,,,,,,,,,,,,,,,,,,,,,,,,,,,,,,,,,,,,,,,,,
,,,,,,61715532205e28ec88b6903c,62c5387c505ca495f1f3dbcf,2022-07-06_09h24.31.525,Colour_Asymmetry_Pilot,2022.1.3,MacIntel,59.99880002,62c50e9c1127f2cd403a315f,0,39,39,125,1,threefour,,,,,,,,,,,,,,,,,,,,,,,,,,,,,,,,,,,,,,,,,,,,,,,,,,,,,,,,,,,,,,,,,,,,,,,,,,,,,,,,,,,,,,,,,,,,,,,,,,,,,,,,,,,,,,,,,,,,,,,,,,,,,,,,,,,,,,,,,,,,,,,,,,,,,,,,,,,,,
,,,,,,61715532205e28ec88b6903c,62c5387c505ca495f1f3dbcf,2022-07-06_09h24.31.525,Colour_Asymmetry_Pilot,2022.1.3,MacIntel,59.99880002,62c50e9c1127f2cd403a315f,0,40,40,90,1,twoone,,,,,,,,,,,,,,,,,,,,,,,,,,,,,,,,,,,,,,,,,,,,,,,,,,,,,,,,,,,,,,,,,,,,,,,,,,,,,,,,,,,,,,,,,,,,,,,,,,,,,,,,,,,,,,,,,,,,,,,,,,,,,,,,,,,,,,,,,,,,,,,,,,,,,,,,,,,,,
,,,,,,61715532205e28ec88b6903c,62c5387c505ca495f1f3dbcf,2022-07-06_09h24.31.525,Colour_Asymmetry_Pilot,2022.1.3,MacIntel,59.99880002,62c50e9c1127f2cd403a315f,0,41,41,31,1,fourthree,,,,,,,,,,,,,,,,,,,,,,,,,,,,,,,,,,,,,,,,,,,,,,,,,,,,,,,,,,,,,,,,,,,,,,,,,,,,,,,,,,,,,,,,,,,,,,,,,,,,,,,,,,,,,,,,,,,,,,,,,,,,,,,,,,,,,,,,,,,,,,,,,,,,,,,,,,,,,
,,,,,,61715532205e28ec88b6903c,62c5387c505ca495f1f3dbcf,2022-07-06_09h24.31.525,Colour_Asymmetry_Pilot,2022.1.3,MacIntel,59.99880002,62c50e9c1127f2cd403a315f,0,42,42,71,1,fourthree,,,,,,,,,,,,,,,,,,,,,,,,,,,,,,,,,,,,,,,,,,,,,,,,,,,,,,,,,,,,,,,,,,,,,,,,,,,,,,,,,,,,,,,,,,,,,,,,,,,,,,,,,,,,,,,,,,,,,,,,,,,,,,,,,,,,,,,,,,,,,,,,,,,,,,,,,,,,,
,,,,,,61715532205e28ec88b6903c,62c5387c505ca495f1f3dbcf,2022-07-06_09h24.31.525,Colour_Asymmetry_Pilot,2022.1.3,MacIntel,59.99880002,62c50e9c1127f2cd403a315f,0,43,43,105,1,onethree,,,,,,,,,,,,,,,,,,,,,,,,,,,,,,,,,,,,,,,,,,,,,,,,,,,,,,,,,,,,,,,,,,,,,,,,,,,,,,,,,,,,,,,,,,,,,,,,,,,,,,,,,,,,,,,,,,,,,,,,,,,,,,,,,,,,,,,,,,,,,,,,,,,,,,,,,,,,,
,,,,,,61715532205e28ec88b6903c,62c5387c505ca495f1f3dbcf,2022-07-06_09h24.31.525,Colour_Asymmetry_Pilot,2022.1.3,MacIntel,59.99880002,62c50e9c1127f2cd403a315f,0,44,44,161,1,onethree,,,,,,,,,,,,,,,,,,,,,,,,,,,,,,,,,,,,,,,,,,,,,,,,,,,,,,,,,,,,,,,,,,,,,,,,,,,,,,,,,,,,,,,,,,,,,,,,,,,,,,,,,,,,,,,,,,,,,,,,,,,,,,,,,,,,,,,,,,,,,,,,,,,,,,,,,,,,,
,,,,,,61715532205e28ec88b6903c,62c5387c505ca495f1f3dbcf,2022-07-06_09h24.31.525,Colour_Asymmetry_Pilot,2022.1.3,MacIntel,59.99880002,62c50e9c1127f2cd403a315f,0,45,45,87,1,fourthree,,,,,,,,,,,,,,,,,,,,,,,,,,,,,,,,,,,,,,,,,,,,,,,,,,,,,,,,,,,,,,,,,,,,,,,,,,,,,,,,,,,,,,,,,,,,,,,,,,,,,,,,,,,,,,,,,,,,,,,,,,,,,,,,,,,,,,,,,,,,,,,,,,,,,,,,,,,,,
,,,,,,61715532205e28ec88b6903c,62c5387c505ca495f1f3dbcf,2022-07-06_09h24.31.525,Colour_Asymmetry_Pilot,2022.1.3,MacIntel,59.99880002,62c50e9c1127f2cd403a315f,0,46,46,112,1,onetwo,,,,,,,,,,,,,,,,,,,,,,,,,,,,,,,,,,,,,,,,,,,,,,,,,,,,,,,,,,,,,,,,,,,,,,,,,,,,,,,,,,,,,,,,,,,,,,,,,,,,,,,,,,,,,,,,,,,,,,,,,,,,,,,,,,,,,,,,,,,,,,,,,,,,,,,,,,,,,
,,,,,,61715532205e28ec88b6903c,62c5387c505ca495f1f3dbcf,2022-07-06_09h24.31.525,Colour_Asymmetry_Pilot,2022.1.3,MacIntel,59.99880002,62c50e9c1127f2cd403a315f,0,47,47,95,1,fourthree,,,,,,,,,,,,,,,,,,,,,,,,,,,,,,,,,,,,,,,,,,,,,,,,,,,,,,,,,,,,,,,,,,,,,,,,,,,,,,,,,,,,,,,,,,,,,,,,,,,,,,,,,,,,,,,,,,,,,,,,,,,,,,,,,,,,,,,,,,,,,,,,,,,,,,,,,,,,,
,,,,,,61715532205e28ec88b6903c,62c5387c505ca495f1f3dbcf,2022-07-06_09h24.31.525,Colour_Asymmetry_Pilot,2022.1.3,MacIntel,59.99880002,62c50e9c1127f2cd403a315f,0,48,48,142,1,fourtwo,,,,,,,,,,,,,,,,,,,,,,,,,,,,,,,,,,,,,,,,,,,,,,,,,,,,,,,,,,,,,,,,,,,,,,,,,,,,,,,,,,,,,,,,,,,,,,,,,,,,,,,,,,,,,,,,,,,,,,,,,,,,,,,,,,,,,,,,,,,,,,,,,,,,,,,,,,,,,
,,,,,,61715532205e28ec88b6903c,62c5387c505ca495f1f3dbcf,2022-07-06_09h24.31.525,Colour_Asymmetry_Pilot,2022.1.3,MacIntel,59.99880002,62c50e9c1127f2cd403a315f,0,49,49,82,1,twoone,,,,,,,,,,,,,,,,,,,,,,,,,,,,,,,,,,,,,,,,,,,,,,,,,,,,,,,,,,,,,,,,,,,,,,,,,,,,,,,,,,,,,,,,,,,,,,,,,,,,,,,,,,,,,,,,,,,,,,,,,,,,,,,,,,,,,,,,,,,,,,,,,,,,,,,,,,,,,
,,,,,,61715532205e28ec88b6903c,62c5387c505ca495f1f3dbcf,2022-07-06_09h24.31.525,Colour_Asymmetry_Pilot,2022.1.3,MacIntel,59.99880002,62c50e9c1127f2cd403a315f,0,50,50,36,1,threeone,,,,,,,,,,,,,,,,,,,,,,,,,,,,,,,,,,,,,,,,,,,,,,,,,,,,,,,,,,,,,,,,,,,,,,,,,,,,,,,,,,,,,,,,,,,,,,,,,,,,,,,,,,,,,,,,,,,,,,,,,,,,,,,,,,,,,,,,,,,,,,,,,,,,,,,,,,,,,
,,,,,,61715532205e28ec88b6903c,62c5387c505ca495f1f3dbcf,2022-07-06_09h24.31.525,Colour_Asymmetry_Pilot,2022.1.3,MacIntel,59.99880002,62c50e9c1127f2cd403a315f,0,51,51,41,1,onethree,,,,,,,,,,,,,,,,,,,,,,,,,,,,,,,,,,,,,,,,,,,,,,,,,,,,,,,,,,,,,,,,,,,,,,,,,,,,,,,,,,,,,,,,,,,,,,,,,,,,,,,,,,,,,,,,,,,,,,,,,,,,,,,,,,,,,,,,,,,,,,,,,,,,,,,,,,,,,
,,,,,,61715532205e28ec88b6903c,62c5387c505ca495f1f3dbcf,2022-07-06_09h24.31.525,Colour_Asymmetry_Pilot,2022.1.3,MacIntel,59.99880002,62c50e9c1127f2cd403a315f,0,52,52,157,1,threefour,,,,,,,,,,,,,,,,,,,,,,,,,,,,,,,,,,,,,,,,,,,,,,,,,,,,,,,,,,,,,,,,,,,,,,,,,,,,,,,,,,,,,,,,,,,,,,,,,,,,,,,,,,,,,,,,,,,,,,,,,,,,,,,,,,,,,,,,,,,,,,,,,,,,,,,,,,,,,
,,,,,,61715532205e28ec88b6903c,62c5387c505ca495f1f3dbcf,2022-07-06_09h24.31.525,Colour_Asymmetry_Pilot,2022.1.3,MacIntel,59.99880002,62c50e9c1127f2cd403a315f,0,53,53,122,1,twoone,,,,,,,,,,,,,,,,,,,,,,,,,,,,,,,,,,,,,,,,,,,,,,,,,,,,,,,,,,,,,,,,,,,,,,,,,,,,,,,,,,,,,,,,,,,,,,,,,,,,,,,,,,,,,,,,,,,,,,,,,,,,,,,,,,,,,,,,,,,,,,,,,,,,,,,,,,,,,
,,,,,,61715532205e28ec88b6903c,62c5387c505ca495f1f3dbcf,2022-07-06_09h24.31.525,Colour_Asymmetry_Pilot,2022.1.3,MacIntel,59.99880002,62c50e9c1127f2cd403a315f,0,54,54,141,1,threefour,,,,,,,,,,,,,,,,,,,,,,,,,,,,,,,,,,,,,,,,,,,,,,,,,,,,,,,,,,,,,,,,,,,,,,,,,,,,,,,,,,,,,,,,,,,,,,,,,,,,,,,,,,,,,,,,,,,,,,,,,,,,,,,,,,,,,,,,,,,,,,,,,,,,,,,,,,,,,
,,,,,,61715532205e28ec88b6903c,62c5387c505ca495f1f3dbcf,2022-07-06_09h24.31.525,Colour_Asymmetry_Pilot,2022.1.3,MacIntel,59.99880002,62c50e9c1127f2cd403a315f,0,55,55,120,1,onetwo,,,,,,,,,,,,,,,,,,,,,,,,,,,,,,,,,,,,,,,,,,,,,,,,,,,,,,,,,,,,,,,,,,,,,,,,,,,,,,,,,,,,,,,,,,,,,,,,,,,,,,,,,,,,,,,,,,,,,,,,,,,,,,,,,,,,,,,,,,,,,,,,,,,,,,,,,,,,,
,,,,,,61715532205e28ec88b6903c,62c5387c505ca495f1f3dbcf,2022-07-06_09h24.31.525,Colour_Asymmetry_Pilot,2022.1.3,MacIntel,59.99880002,62c50e9c1127f2cd403a315f,0,56,56,61,1,threefour,,,,,,,,,,,,,,,,,,,,,,,,,,,,,,,,,,,,,,,,,,,,,,,,,,,,,,,,,,,,,,,,,,,,,,,,,,,,,,,,,,,,,,,,,,,,,,,,,,,,,,,,,,,,,,,,,,,,,,,,,,,,,,,,,,,,,,,,,,,,,,,,,,,,,,,,,,,,,
,,,,,,61715532205e28ec88b6903c,62c5387c505ca495f1f3dbcf,2022-07-06_09h24.31.525,Colour_Asymmetry_Pilot,2022.1.3,MacIntel,59.99880002,62c50e9c1127f2cd403a315f,0,57,57,131,1,twofour,,,,,,,,,,,,,,,,,,,,,,,,,,,,,,,,,,,,,,,,,,,,,,,,,,,,,,,,,,,,,,,,,,,,,,,,,,,,,,,,,,,,,,,,,,,,,,,,,,,,,,,,,,,,,,,,,,,,,,,,,,,,,,,,,,,,,,,,,,,,,,,,,,,,,,,,,,,,,
,,,,,,61715532205e28ec88b6903c,62c5387c505ca495f1f3dbcf,2022-07-06_09h24.31.525,Colour_Asymmetry_Pilot,2022.1.3,MacIntel,59.99880002,62c50e9c1127f2cd403a315f,0,58,58,106,1,twoone,,,,,,,,,,,,,,,,,,,,,,,,,,,,,,,,,,,,,,,,,,,,,,,,,,,,,,,,,,,,,,,,,,,,,,,,,,,,,,,,,,,,,,,,,,,,,,,,,,,,,,,,,,,,,,,,,,,,,,,,,,,,,,,,,,,,,,,,,,,,,,,,,,,,,,,,,,,,,
,,,,,,61715532205e28ec88b6903c,62c5387c505ca495f1f3dbcf,2022-07-06_09h24.31.525,Colour_Asymmetry_Pilot,2022.1.3,MacIntel,59.99880002,62c50e9c1127f2cd403a315f,0,59,59,89,1,onethree,,,,,,,,,,,,,,,,,,,,,,,,,,,,,,,,,,,,,,,,,,,,,,,,,,,,,,,,,,,,,,,,,,,,,,,,,,,,,,,,,,,,,,,,,,,,,,,,,,,,,,,,,,,,,,,,,,,,,,,,,,,,,,,,,,,,,,,,,,,,,,,,,,,,,,,,,,,,,
,,,,,,61715532205e28ec88b6903c,62c5387c505ca495f1f3dbcf,2022-07-06_09h24.31.525,Colour_Asymmetry_Pilot,2022.1.3,MacIntel,59.99880002,62c50e9c1127f2cd403a315f,0,60,60,22,1,fourtwo,,,,,,,,,,,,,,,,,,,,,,,,,,,,,,,,,,,,,,,,,,,,,,,,,,,,,,,,,,,,,,,,,,,,,,,,,,,,,,,,,,,,,,,,,,,,,,,,,,,,,,,,,,,,,,,,,,,,,,,,,,,,,,,,,,,,,,,,,,,,,,,,,,,,,,,,,,,,,
,,,,,,61715532205e28ec88b6903c,62c5387c505ca495f1f3dbcf,2022-07-06_09h24.31.525,Colour_Asymmetry_Pilot,2022.1.3,MacIntel,59.99880002,62c50e9c1127f2cd403a315f,0,61,61,24,1,onetwo,,,,,,,,,,,,,,,,,,,,,,,,,,,,,,,,,,,,,,,,,,,,,,,,,,,,,,,,,,,,,,,,,,,,,,,,,,,,,,,,,,,,,,,,,,,,,,,,,,,,,,,,,,,,,,,,,,,,,,,,,,,,,,,,,,,,,,,,,,,,,,,,,,,,,,,,,,,,,
,,,,,,61715532205e28ec88b6903c,62c5387c505ca495f1f3dbcf,2022-07-06_09h24.31.525,Colour_Asymmetry_Pilot,2022.1.3,MacIntel,59.99880002,62c50e9c1127f2cd403a315f,0,62,62,70,1,fourtwo,,,,,,,,,,,,,,,,,,,,,,,,,,,,,,,,,,,,,,,,,,,,,,,,,,,,,,,,,,,,,,,,,,,,,,,,,,,,,,,,,,,,,,,,,,,,,,,,,,,,,,,,,,,,,,,,,,,,,,,,,,,,,,,,,,,,,,,,,,,,,,,,,,,,,,,,,,,,,
,,,,,,61715532205e28ec88b6903c,62c5387c505ca495f1f3dbcf,2022-07-06_09h24.31.525,Colour_Asymmetry_Pilot,2022.1.3,MacIntel,59.99880002,62c50e9c1127f2cd403a315f,0,63,63,100,1,threeone,,,,,,,,,,,,,,,,,,,,,,,,,,,,,,,,,,,,,,,,,,,,,,,,,,,,,,,,,,,,,,,,,,,,,,,,,,,,,,,,,,,,,,,,,,,,,,,,,,,,,,,,,,,,,,,,,,,,,,,,,,,,,,,,,,,,,,,,,,,,,,,,,,,,,,,,,,,,,
,,,,,,61715532205e28ec88b6903c,62c5387c505ca495f1f3dbcf,2022-07-06_09h24.31.525,Colour_Asymmetry_Pilot,2022.1.3,MacIntel,59.99880002,62c50e9c1127f2cd403a315f,0,64,64,109,1,threefour,,,,,,,,,,,,,,,,,,,,,,,,,,,,,,,,,,,,,,,,,,,,,,,,,,,,,,,,,,,,,,,,,,,,,,,,,,,,,,,,,,,,,,,,,,,,,,,,,,,,,,,,,,,,,,,,,,,,,,,,,,,,,,,,,,,,,,,,,,,,,,,,,,,,,,,,,,,,,
,,,,,,61715532205e28ec88b6903c,62c5387c505ca495f1f3dbcf,2022-07-06_09h24.31.525,Colour_Asymmetry_Pilot,2022.1.3,MacIntel,59.99880002,62c50e9c1127f2cd403a315f,0,65,65,76,1,threeone,,,,,,,,,,,,,,,,,,,,,,,,,,,,,,,,,,,,,,,,,,,,,,,,,,,,,,,,,,,,,,,,,,,,,,,,,,,,,,,,,,,,,,,,,,,,,,,,,,,,,,,,,,,,,,,,,,,,,,,,,,,,,,,,,,,,,,,,,,,,,,,,,,,,,,,,,,,,,
,,,,,,61715532205e28ec88b6903c,62c5387c505ca495f1f3dbcf,2022-07-06_09h24.31.525,Colour_Asymmetry_Pilot,2022.1.3,MacIntel,59.99880002,62c50e9c1127f2cd403a315f,0,66,66,160,1,onetwo,,,,,,,,,,,,,,,,,,,,,,,,,,,,,,,,,,,,,,,,,,,,,,,,,,,,,,,,,,,,,,,,,,,,,,,,,,,,,,,,,,,,,,,,,,,,,,,,,,,,,,,,,,,,,,,,,,,,,,,,,,,,,,,,,,,,,,,,,,,,,,,,,,,,,,,,,,,,,
,,,,,,61715532205e28ec88b6903c,62c5387c505ca495f1f3dbcf,2022-07-06_09h24.31.525,Colour_Asymmetry_Pilot,2022.1.3,MacIntel,59.99880002,62c50e9c1127f2cd403a315f,0,67,67,88,1,onetwo,,,,,,,,,,,,,,,,,,,,,,,,,,,,,,,,,,,,,,,,,,,,,,,,,,,,,,,,,,,,,,,,,,,,,,,,,,,,,,,,,,,,,,,,,,,,,,,,,,,,,,,,,,,,,,,,,,,,,,,,,,,,,,,,,,,,,,,,,,,,,,,,,,,,,,,,,,,,,
,,,,,,61715532205e28ec88b6903c,62c5387c505ca495f1f3dbcf,2022-07-06_09h24.31.525,Colour_Asymmetry_Pilot,2022.1.3,MacIntel,59.99880002,62c50e9c1127f2cd403a315f,0,68,68,98,1,twoone,,,,,,,,,,,,,,,,,,,,,,,,,,,,,,,,,,,,,,,,,,,,,,,,,,,,,,,,,,,,,,,,,,,,,,,,,,,,,,,,,,,,,,,,,,,,,,,,,,,,,,,,,,,,,,,,,,,,,,,,,,,,,,,,,,,,,,,,,,,,,,,,,,,,,,,,,,,,,
,,,,,,61715532205e28ec88b6903c,62c5387c505ca495f1f3dbcf,2022-07-06_09h24.31.525,Colour_Asymmetry_Pilot,2022.1.3,MacIntel,59.99880002,62c50e9c1127f2cd403a315f,0,69,69,111,1,fourthree,,,,,,,,,,,,,,,,,,,,,,,,,,,,,,,,,,,,,,,,,,,,,,,,,,,,,,,,,,,,,,,,,,,,,,,,,,,,,,,,,,,,,,,,,,,,,,,,,,,,,,,,,,,,,,,,,,,,,,,,,,,,,,,,,,,,,,,,,,,,,,,,,,,,,,,,,,,,,
,,,,,,61715532205e28ec88b6903c,62c5387c505ca495f1f3dbcf,2022-07-06_09h24.31.525,Colour_Asymmetry_Pilot,2022.1.3,MacIntel,59.99880002,62c50e9c1127f2cd403a315f,0,70,70,56,1,onetwo,,,,,,,,,,,,,,,,,,,,,,,,,,,,,,,,,,,,,,,,,,,,,,,,,,,,,,,,,,,,,,,,,,,,,,,,,,,,,,,,,,,,,,,,,,,,,,,,,,,,,,,,,,,,,,,,,,,,,,,,,,,,,,,,,,,,,,,,,,,,,,,,,,,,,,,,,,,,,
,,,,,,61715532205e28ec88b6903c,62c5387c505ca495f1f3dbcf,2022-07-06_09h24.31.525,Colour_Asymmetry_Pilot,2022.1.3,MacIntel,59.99880002,62c50e9c1127f2cd403a315f,0,71,71,150,1,fourtwo,,,,,,,,,,,,,,,,,,,,,,,,,,,,,,,,,,,,,,,,,,,,,,,,,,,,,,,,,,,,,,,,,,,,,,,,,,,,,,,,,,,,,,,,,,,,,,,,,,,,,,,,,,,,,,,,,,,,,,,,,,,,,,,,,,,,,,,,,,,,,,,,,,,,,,,,,,,,,
,,,,,,61715532205e28ec88b6903c,62c5387c505ca495f1f3dbcf,2022-07-06_09h24.31.525,Colour_Asymmetry_Pilot,2022.1.3,MacIntel,59.99880002,62c50e9c1127f2cd403a315f,0,72,72,42,1,twoone,,,,,,,,,,,,,,,,,,,,,,,,,,,,,,,,,,,,,,,,,,,,,,,,,,,,,,,,,,,,,,,,,,,,,,,,,,,,,,,,,,,,,,,,,,,,,,,,,,,,,,,,,,,,,,,,,,,,,,,,,,,,,,,,,,,,,,,,,,,,,,,,,,,,,,,,,,,,,
,,,,,,61715532205e28ec88b6903c,62c5387c505ca495f1f3dbcf,2022-07-06_09h24.31.525,Colour_Asymmetry_Pilot,2022.1.3,MacIntel,59.99880002,62c50e9c1127f2cd403a315f,0,73,73,29,1,threefour,,,,,,,,,,,,,,,,,,,,,,,,,,,,,,,,,,,,,,,,,,,,,,,,,,,,,,,,,,,,,,,,,,,,,,,,,,,,,,,,,,,,,,,,,,,,,,,,,,,,,,,,,,,,,,,,,,,,,,,,,,,,,,,,,,,,,,,,,,,,,,,,,,,,,,,,,,,,,
,,,,,,61715532205e28ec88b6903c,62c5387c505ca495f1f3dbcf,2022-07-06_09h24.31.525,Colour_Asymmetry_Pilot,2022.1.3,MacIntel,59.99880002,62c50e9c1127f2cd403a315f,0,74,74,123,1,twofour,,,,,,,,,,,,,,,,,,,,,,,,,,,,,,,,,,,,,,,,,,,,,,,,,,,,,,,,,,,,,,,,,,,,,,,,,,,,,,,,,,,,,,,,,,,,,,,,,,,,,,,,,,,,,,,,,,,,,,,,,,,,,,,,,,,,,,,,,,,,,,,,,,,,,,,,,,,,,
,,,,,,61715532205e28ec88b6903c,62c5387c505ca495f1f3dbcf,2022-07-06_09h24.31.525,Colour_Asymmetry_Pilot,2022.1.3,MacIntel,59.99880002,62c50e9c1127f2cd403a315f,0,75,75,128,1,onetwo,,,,,,,,,,,,,,,,,,,,,,,,,,,,,,,,,,,,,,,,,,,,,,,,,,,,,,,,,,,,,,,,,,,,,,,,,,,,,,,,,,,,,,,,,,,,,,,,,,,,,,,,,,,,,,,,,,,,,,,,,,,,,,,,,,,,,,,,,,,,,,,,,,,,,,,,,,,,,
,,,,,,61715532205e28ec88b6903c,62c5387c505ca495f1f3dbcf,2022-07-06_09h24.31.525,Colour_Asymmetry_Pilot,2022.1.3,MacIntel,59.99880002,62c50e9c1127f2cd403a315f,0,76,76,96,1,onetwo,,,,,,,,,,,,,,,,,,,,,,,,,,,,,,,,,,,,,,,,,,,,,,,,,,,,,,,,,,,,,,,,,,,,,,,,,,,,,,,,,,,,,,,,,,,,,,,,,,,,,,,,,,,,,,,,,,,,,,,,,,,,,,,,,,,,,,,,,,,,,,,,,,,,,,,,,,,,,
,,,,,,61715532205e28ec88b6903c,62c5387c505ca495f1f3dbcf,2022-07-06_09h24.31.525,Colour_Asymmetry_Pilot,2022.1.3,MacIntel,59.99880002,62c50e9c1127f2cd403a315f,0,77,77,64,1,onetwo,,,,,,,,,,,,,,,,,,,,,,,,,,,,,,,,,,,,,,,,,,,,,,,,,,,,,,,,,,,,,,,,,,,,,,,,,,,,,,,,,,,,,,,,,,,,,,,,,,,,,,,,,,,,,,,,,,,,,,,,,,,,,,,,,,,,,,,,,,,,,,,,,,,,,,,,,,,,,
,,,,,,61715532205e28ec88b6903c,62c5387c505ca495f1f3dbcf,2022-07-06_09h24.31.525,Colour_Asymmetry_Pilot,2022.1.3,MacIntel,59.99880002,62c50e9c1127f2cd403a315f,0,78,78,148,1,threeone,,,,,,,,,,,,,,,,,,,,,,,,,,,,,,,,,,,,,,,,,,,,,,,,,,,,,,,,,,,,,,,,,,,,,,,,,,,,,,,,,,,,,,,,,,,,,,,,,,,,,,,,,,,,,,,,,,,,,,,,,,,,,,,,,,,,,,,,,,,,,,,,,,,,,,,,,,,,,
,,,,,,61715532205e28ec88b6903c,62c5387c505ca495f1f3dbcf,2022-07-06_09h24.31.525,Colour_Asymmetry_Pilot,2022.1.3,MacIntel,59.99880002,62c50e9c1127f2cd403a315f,0,79,79,7,1,fourthree,,,,,,,,,,,,,,,,,,,,,,,,,,,,,,,,,,,,,,,,,,,,,,,,,,,,,,,,,,,,,,,,,,,,,,,,,,,,,,,,,,,,,,,,,,,,,,,,,,,,,,,,,,,,,,,,,,,,,,,,,,,,,,,,,,,,,,,,,,,,,,,,,,,,,,,,,,,,,
,,,,,,61715532205e28ec88b6903c,62c5387c505ca495f1f3dbcf,2022-07-06_09h24.31.525,Colour_Asymmetry_Pilot,2022.1.3,MacIntel,59.99880002,62c50e9c1127f2cd403a315f,0,80,80,45,1,threefour,,,,,,,,,,,,,,,,,,,,,,,,,,,,,,,,,,,,,,,,,,,,,,,,,,,,,,,,,,,,,,,,,,,,,,,,,,,,,,,,,,,,,,,,,,,,,,,,,,,,,,,,,,,,,,,,,,,,,,,,,,,,,,,,,,,,,,,,,,,,,,,,,,,,,,,,,,,,,
,,,,,,61715532205e28ec88b6903c,62c5387c505ca495f1f3dbcf,2022-07-06_09h24.31.525,Colour_Asymmetry_Pilot,2022.1.3,MacIntel,59.99880002,62c50e9c1127f2cd403a315f,0,81,81,14,1,fourtwo,,,,,,,,,,,,,,,,,,,,,,,,,,,,,,,,,,,,,,,,,,,,,,,,,,,,,,,,,,,,,,,,,,,,,,,,,,,,,,,,,,,,,,,,,,,,,,,,,,,,,,,,,,,,,,,,,,,,,,,,,,,,,,,,,,,,,,,,,,,,,,,,,,,,,,,,,,,,,
,,,,,,61715532205e28ec88b6903c,62c5387c505ca495f1f3dbcf,2022-07-06_09h24.31.525,Colour_Asymmetry_Pilot,2022.1.3,MacIntel,59.99880002,62c50e9c1127f2cd403a315f,0,82,82,116,1,threeone,,,,,,,,,,,,,,,,,,,,,,,,,,,,,,,,,,,,,,,,,,,,,,,,,,,,,,,,,,,,,,,,,,,,,,,,,,,,,,,,,,,,,,,,,,,,,,,,,,,,,,,,,,,,,,,,,,,,,,,,,,,,,,,,,,,,,,,,,,,,,,,,,,,,,,,,,,,,,
,,,,,,61715532205e28ec88b6903c,62c5387c505ca495f1f3dbcf,2022-07-06_09h24.31.525,Colour_Asymmetry_Pilot,2022.1.3,MacIntel,59.99880002,62c50e9c1127f2cd403a315f,0,83,83,124,1,threeone,,,,,,,,,,,,,,,,,,,,,,,,,,,,,,,,,,,,,,,,,,,,,,,,,,,,,,,,,,,,,,,,,,,,,,,,,,,,,,,,,,,,,,,,,,,,,,,,,,,,,,,,,,,,,,,,,,,,,,,,,,,,,,,,,,,,,,,,,,,,,,,,,,,,,,,,,,,,,
,,,,,,61715532205e28ec88b6903c,62c5387c505ca495f1f3dbcf,2022-07-06_09h24.31.525,Colour_Asymmetry_Pilot,2022.1.3,MacIntel,59.99880002,62c50e9c1127f2cd403a315f,0,84,84,69,1,threefour,,,,,,,,,,,,,,,,,,,,,,,,,,,,,,,,,,,,,,,,,,,,,,,,,,,,,,,,,,,,,,,,,,,,,,,,,,,,,,,,,,,,,,,,,,,,,,,,,,,,,,,,,,,,,,,,,,,,,,,,,,,,,,,,,,,,,,,,,,,,,,,,,,,,,,,,,,,,,
,,,,,,61715532205e28ec88b6903c,62c5387c505ca495f1f3dbcf,2022-07-06_09h24.31.525,Colour_Asymmetry_Pilot,2022.1.3,MacIntel,59.99880002,62c50e9c1127f2cd403a315f,0,85,85,54,1,fourtwo,,,,,,,,,,,,,,,,,,,,,,,,,,,,,,,,,,,,,,,,,,,,,,,,,,,,,,,,,,,,,,,,,,,,,,,,,,,,,,,,,,,,,,,,,,,,,,,,,,,,,,,,,,,,,,,,,,,,,,,,,,,,,,,,,,,,,,,,,,,,,,,,,,,,,,,,,,,,,
,,,,,,61715532205e28ec88b6903c,62c5387c505ca495f1f3dbcf,2022-07-06_09h24.31.525,Colour_Asymmetry_Pilot,2022.1.3,MacIntel,59.99880002,62c50e9c1127f2cd403a315f,0,86,86,133,1,threefour,,,,,,,,,,,,,,,,,,,,,,,,,,,,,,,,,,,,,,,,,,,,,,,,,,,,,,,,,,,,,,,,,,,,,,,,,,,,,,,,,,,,,,,,,,,,,,,,,,,,,,,,,,,,,,,,,,,,,,,,,,,,,,,,,,,,,,,,,,,,,,,,,,,,,,,,,,,,,
,,,,,,61715532205e28ec88b6903c,62c5387c505ca495f1f3dbcf,2022-07-06_09h24.31.525,Colour_Asymmetry_Pilot,2022.1.3,MacIntel,59.99880002,62c50e9c1127f2cd403a315f,0,87,87,156,1,threeone,,,,,,,,,,,,,,,,,,,,,,,,,,,,,,,,,,,,,,,,,,,,,,,,,,,,,,,,,,,,,,,,,,,,,,,,,,,,,,,,,,,,,,,,,,,,,,,,,,,,,,,,,,,,,,,,,,,,,,,,,,,,,,,,,,,,,,,,,,,,,,,,,,,,,,,,,,,,,
,,,,,,61715532205e28ec88b6903c,62c5387c505ca495f1f3dbcf,2022-07-06_09h24.31.525,Colour_Asymmetry_Pilot,2022.1.3,MacIntel,59.99880002,62c50e9c1127f2cd403a315f,0,88,88,85,1,threefour,,,,,,,,,,,,,,,,,,,,,,,,,,,,,,,,,,,,,,,,,,,,,,,,,,,,,,,,,,,,,,,,,,,,,,,,,,,,,,,,,,,,,,,,,,,,,,,,,,,,,,,,,,,,,,,,,,,,,,,,,,,,,,,,,,,,,,,,,,,,,,,,,,,,,,,,,,,,,
,,,,,,61715532205e28ec88b6903c,62c5387c505ca495f1f3dbcf,2022-07-06_09h24.31.525,Colour_Asymmetry_Pilot,2022.1.3,MacIntel,59.99880002,62c50e9c1127f2cd403a315f,0,89,89,48,1,onetwo,,,,,,,,,,,,,,,,,,,,,,,,,,,,,,,,,,,,,,,,,,,,,,,,,,,,,,,,,,,,,,,,,,,,,,,,,,,,,,,,,,,,,,,,,,,,,,,,,,,,,,,,,,,,,,,,,,,,,,,,,,,,,,,,,,,,,,,,,,,,,,,,,,,,,,,,,,,,,
,,,,,,61715532205e28ec88b6903c,62c5387c505ca495f1f3dbcf,2022-07-06_09h24.31.525,Colour_Asymmetry_Pilot,2022.1.3,MacIntel,59.99880002,62c50e9c1127f2cd403a315f,0,90,90,0,1,onetwo,,,,,,,,,,,,,,,,,,,,,,,,,,,,,,,,,,,,,,,,,,,,,,,,,,,,,,,,,,,,,,,,,,,,,,,,,,,,,,,,,,,,,,,,,,,,,,,,,,,,,,,,,,,,,,,,,,,,,,,,,,,,,,,,,,,,,,,,,,,,,,,,,,,,,,,,,,,,,
,,,,,,61715532205e28ec88b6903c,62c5387c505ca495f1f3dbcf,2022-07-06_09h24.31.525,Colour_Asymmetry_Pilot,2022.1.3,MacIntel,59.99880002,62c50e9c1127f2cd403a315f,0,91,91,155,1,twofour,,,,,,,,,,,,,,,,,,,,,,,,,,,,,,,,,,,,,,,,,,,,,,,,,,,,,,,,,,,,,,,,,,,,,,,,,,,,,,,,,,,,,,,,,,,,,,,,,,,,,,,,,,,,,,,,,,,,,,,,,,,,,,,,,,,,,,,,,,,,,,,,,,,,,,,,,,,,,
,,,,,,61715532205e28ec88b6903c,62c5387c505ca495f1f3dbcf,2022-07-06_09h24.31.525,Colour_Asymmetry_Pilot,2022.1.3,MacIntel,59.99880002,62c50e9c1127f2cd403a315f,0,92,92,113,1,onethree,,,,,,,,,,,,,,,,,,,,,,,,,,,,,,,,,,,,,,,,,,,,,,,,,,,,,,,,,,,,,,,,,,,,,,,,,,,,,,,,,,,,,,,,,,,,,,,,,,,,,,,,,,,,,,,,,,,,,,,,,,,,,,,,,,,,,,,,,,,,,,,,,,,,,,,,,,,,,
,,,,,,61715532205e28ec88b6903c,62c5387c505ca495f1f3dbcf,2022-07-06_09h24.31.525,Colour_Asymmetry_Pilot,2022.1.3,MacIntel,59.99880002,62c50e9c1127f2cd403a315f,0,93,93,135,1,fourthree,,,,,,,,,,,,,,,,,,,,,,,,,,,,,,,,,,,,,,,,,,,,,,,,,,,,,,,,,,,,,,,,,,,,,,,,,,,,,,,,,,,,,,,,,,,,,,,,,,,,,,,,,,,,,,,,,,,,,,,,,,,,,,,,,,,,,,,,,,,,,,,,,,,,,,,,,,,,,
,,,,,,61715532205e28ec88b6903c,62c5387c505ca495f1f3dbcf,2022-07-06_09h24.31.525,Colour_Asymmetry_Pilot,2022.1.3,MacIntel,59.99880002,62c50e9c1127f2cd403a315f,0,94,94,67,1,twofour,,,,,,,,,,,,,,,,,,,,,,,,,,,,,,,,,,,,,,,,,,,,,,,,,,,,,,,,,,,,,,,,,,,,,,,,,,,,,,,,,,,,,,,,,,,,,,,,,,,,,,,,,,,,,,,,,,,,,,,,,,,,,,,,,,,,,,,,,,,,,,,,,,,,,,,,,,,,,
,,,,,,61715532205e28ec88b6903c,62c5387c505ca495f1f3dbcf,2022-07-06_09h24.31.525,Colour_Asymmetry_Pilot,2022.1.3,MacIntel,59.99880002,62c50e9c1127f2cd403a315f,0,95,95,25,1,onethree,,,,,,,,,,,,,,,,,,,,,,,,,,,,,,,,,,,,,,,,,,,,,,,,,,,,,,,,,,,,,,,,,,,,,,,,,,,,,,,,,,,,,,,,,,,,,,,,,,,,,,,,,,,,,,,,,,,,,,,,,,,,,,,,,,,,,,,,,,,,,,,,,,,,,,,,,,,,,
,,,,,,61715532205e28ec88b6903c,62c5387c505ca495f1f3dbcf,2022-07-06_09h24.31.525,Colour_Asymmetry_Pilot,2022.1.3,MacIntel,59.99880002,62c50e9c1127f2cd403a315f,0,96,96,12,1,threeone,,,,,,,,,,,,,,,,,,,,,,,,,,,,,,,,,,,,,,,,,,,,,,,,,,,,,,,,,,,,,,,,,,,,,,,,,,,,,,,,,,,,,,,,,,,,,,,,,,,,,,,,,,,,,,,,,,,,,,,,,,,,,,,,,,,,,,,,,,,,,,,,,,,,,,,,,,,,,
,,,,,,61715532205e28ec88b6903c,62c5387c505ca495f1f3dbcf,2022-07-06_09h24.31.525,Colour_Asymmetry_Pilot,2022.1.3,MacIntel,59.99880002,62c50e9c1127f2cd403a315f,0,97,97,79,1,fourthree,,,,,,,,,,,,,,,,,,,,,,,,,,,,,,,,,,,,,,,,,,,,,,,,,,,,,,,,,,,,,,,,,,,,,,,,,,,,,,,,,,,,,,,,,,,,,,,,,,,,,,,,,,,,,,,,,,,,,,,,,,,,,,,,,,,,,,,,,,,,,,,,,,,,,,,,,,,,,
,,,,,,61715532205e28ec88b6903c,62c5387c505ca495f1f3dbcf,2022-07-06_09h24.31.525,Colour_Asymmetry_Pilot,2022.1.3,MacIntel,59.99880002,62c50e9c1127f2cd403a315f,0,98,98,108,1,threeone,,,,,,,,,,,,,,,,,,,,,,,,,,,,,,,,,,,,,,,,,,,,,,,,,,,,,,,,,,,,,,,,,,,,,,,,,,,,,,,,,,,,,,,,,,,,,,,,,,,,,,,,,,,,,,,,,,,,,,,,,,,,,,,,,,,,,,,,,,,,,,,,,,,,,,,,,,,,,
,,,,,,61715532205e28ec88b6903c,62c5387c505ca495f1f3dbcf,2022-07-06_09h24.31.525,Colour_Asymmetry_Pilot,2022.1.3,MacIntel,59.99880002,62c50e9c1127f2cd403a315f,0,99,99,59,1,twofour,,,,,,,,,,,,,,,,,,,,,,,,,,,,,,,,,,,,,,,,,,,,,,,,,,,,,,,,,,,,,,,,,,,,,,,,,,,,,,,,,,,,,,,,,,,,,,,,,,,,,,,,,,,,,,,,,,,,,,,,,,,,,,,,,,,,,,,,,,,,,,,,,,,,,,,,,,,,,
,,,,,,61715532205e28ec88b6903c,62c5387c505ca495f1f3dbcf,2022-07-06_09h24.31.525,Colour_Asymmetry_Pilot,2022.1.3,MacIntel,59.99880002,62c50e9c1127f2cd403a315f,0,100,100,86,1,fourtwo,,,,,,,,,,,,,,,,,,,,,,,,,,,,,,,,,,,,,,,,,,,,,,,,,,,,,,,,,,,,,,,,,,,,,,,,,,,,,,,,,,,,,,,,,,,,,,,,,,,,,,,,,,,,,,,,,,,,,,,,,,,,,,,,,,,,,,,,,,,,,,,,,,,,,,,,,,,,,
,,,,,,61715532205e28ec88b6903c,62c5387c505ca495f1f3dbcf,2022-07-06_09h24.31.525,Colour_Asymmetry_Pilot,2022.1.3,MacIntel,59.99880002,62c50e9c1127f2cd403a315f,0,101,101,159,1,fourthree,,,,,,,,,,,,,,,,,,,,,,,,,,,,,,,,,,,,,,,,,,,,,,,,,,,,,,,,,,,,,,,,,,,,,,,,,,,,,,,,,,,,,,,,,,,,,,,,,,,,,,,,,,,,,,,,,,,,,,,,,,,,,,,,,,,,,,,,,,,,,,,,,,,,,,,,,,,,,
,,,,,,61715532205e28ec88b6903c,62c5387c505ca495f1f3dbcf,2022-07-06_09h24.31.525,Colour_Asymmetry_Pilot,2022.1.3,MacIntel,59.99880002,62c50e9c1127f2cd403a315f,0,102,102,51,1,twofour,,,,,,,,,,,,,,,,,,,,,,,,,,,,,,,,,,,,,,,,,,,,,,,,,,,,,,,,,,,,,,,,,,,,,,,,,,,,,,,,,,,,,,,,,,,,,,,,,,,,,,,,,,,,,,,,,,,,,,,,,,,,,,,,,,,,,,,,,,,,,,,,,,,,,,,,,,,,,
,,,,,,61715532205e28ec88b6903c,62c5387c505ca495f1f3dbcf,2022-07-06_09h24.31.525,Colour_Asymmetry_Pilot,2022.1.3,MacIntel,59.99880002,62c50e9c1127f2cd403a315f,0,103,103,73,1,onethree,,,,,,,,,,,,,,,,,,,,,,,,,,,,,,,,,,,,,,,,,,,,,,,,,,,,,,,,,,,,,,,,,,,,,,,,,,,,,,,,,,,,,,,,,,,,,,,,,,,,,,,,,,,,,,,,,,,,,,,,,,,,,,,,,,,,,,,,,,,,,,,,,,,,,,,,,,,,,
,,,,,,61715532205e28ec88b6903c,62c5387c505ca495f1f3dbcf,2022-07-06_09h24.31.525,Colour_Asymmetry_Pilot,2022.1.3,MacIntel,59.99880002,62c50e9c1127f2cd403a315f,0,104,104,65,1,onethree,,,,,,,,,,,,,,,,,,,,,,,,,,,,,,,,,,,,,,,,,,,,,,,,,,,,,,,,,,,,,,,,,,,,,,,,,,,,,,,,,,,,,,,,,,,,,,,,,,,,,,,,,,,,,,,,,,,,,,,,,,,,,,,,,,,,,,,,,,,,,,,,,,,,,,,,,,,,,
,,,,,,61715532205e28ec88b6903c,62c5387c505ca495f1f3dbcf,2022-07-06_09h24.31.525,Colour_Asymmetry_Pilot,2022.1.3,MacIntel,59.99880002,62c50e9c1127f2cd403a315f,0,105,105,146,1,twoone,,,,,,,,,,,,,,,,,,,,,,,,,,,,,,,,,,,,,,,,,,,,,,,,,,,,,,,,,,,,,,,,,,,,,,,,,,,,,,,,,,,,,,,,,,,,,,,,,,,,,,,,,,,,,,,,,,,,,,,,,,,,,,,,,,,,,,,,,,,,,,,,,,,,,,,,,,,,,
,,,,,,61715532205e28ec88b6903c,62c5387c505ca495f1f3dbcf,2022-07-06_09h24.31.525,Colour_Asymmetry_Pilot,2022.1.3,MacIntel,59.99880002,62c50e9c1127f2cd403a315f,0,106,106,117,1,threefour,,,,,,,,,,,,,,,,,,,,,,,,,,,,,,,,,,,,,,,,,,,,,,,,,,,,,,,,,,,,,,,,,,,,,,,,,,,,,,,,,,,,,,,,,,,,,,,,,,,,,,,,,,,,,,,,,,,,,,,,,,,,,,,,,,,,,,,,,,,,,,,,,,,,,,,,,,,,,
,,,,,,61715532205e28ec88b6903c,62c5387c505ca495f1f3dbcf,2022-07-06_09h24.31.525,Colour_Asymmetry_Pilot,2022.1.3,MacIntel,59.99880002,62c50e9c1127f2cd403a315f,0,107,107,33,1,onethree,,,,,,,,,,,,,,,,,,,,,,,,,,,,,,,,,,,,,,,,,,,,,,,,,,,,,,,,,,,,,,,,,,,,,,,,,,,,,,,,,,,,,,,,,,,,,,,,,,,,,,,,,,,,,,,,,,,,,,,,,,,,,,,,,,,,,,,,,,,,,,,,,,,,,,,,,,,,,
,,,,,,61715532205e28ec88b6903c,62c5387c505ca495f1f3dbcf,2022-07-06_09h24.31.525,Colour_Asymmetry_Pilot,2022.1.3,MacIntel,59.99880002,62c50e9c1127f2cd403a315f,0,108,108,114,1,twoone,,,,,,,,,,,,,,,,,,,,,,,,,,,,,,,,,,,,,,,,,,,,,,,,,,,,,,,,,,,,,,,,,,,,,,,,,,,,,,,,,,,,,,,,,,,,,,,,,,,,,,,,,,,,,,,,,,,,,,,,,,,,,,,,,,,,,,,,,,,,,,,,,,,,,,,,,,,,,
,,,,,,61715532205e28ec88b6903c,62c5387c505ca495f1f3dbcf,2022-07-06_09h24.31.525,Colour_Asymmetry_Pilot,2022.1.3,MacIntel,59.99880002,62c50e9c1127f2cd403a315f,0,109,109,115,1,twofour,,,,,,,,,,,,,,,,,,,,,,,,,,,,,,,,,,,,,,,,,,,,,,,,,,,,,,,,,,,,,,,,,,,,,,,,,,,,,,,,,,,,,,,,,,,,,,,,,,,,,,,,,,,,,,,,,,,,,,,,,,,,,,,,,,,,,,,,,,,,,,,,,,,,,,,,,,,,,
,,,,,,61715532205e28ec88b6903c,62c5387c505ca495f1f3dbcf,2022-07-06_09h24.31.525,Colour_Asymmetry_Pilot,2022.1.3,MacIntel,59.99880002,62c50e9c1127f2cd403a315f,0,110,110,53,1,threefour,,,,,,,,,,,,,,,,,,,,,,,,,,,,,,,,,,,,,,,,,,,,,,,,,,,,,,,,,,,,,,,,,,,,,,,,,,,,,,,,,,,,,,,,,,,,,,,,,,,,,,,,,,,,,,,,,,,,,,,,,,,,,,,,,,,,,,,,,,,,,,,,,,,,,,,,,,,,,
,,,,,,61715532205e28ec88b6903c,62c5387c505ca495f1f3dbcf,2022-07-06_09h24.31.525,Colour_Asymmetry_Pilot,2022.1.3,MacIntel,59.99880002,62c50e9c1127f2cd403a315f,0,111,111,66,1,twoone,,,,,,,,,,,,,,,,,,,,,,,,,,,,,,,,,,,,,,,,,,,,,,,,,,,,,,,,,,,,,,,,,,,,,,,,,,,,,,,,,,,,,,,,,,,,,,,,,,,,,,,,,,,,,,,,,,,,,,,,,,,,,,,,,,,,,,,,,,,,,,,,,,,,,,,,,,,,,
,,,,,,61715532205e28ec88b6903c,62c5387c505ca495f1f3dbcf,2022-07-06_09h24.31.525,Colour_Asymmetry_Pilot,2022.1.3,MacIntel,59.99880002,62c50e9c1127f2cd403a315f,0,112,112,93,1,threefour,,,,,,,,,,,,,,,,,,,,,,,,,,,,,,,,,,,,,,,,,,,,,,,,,,,,,,,,,,,,,,,,,,,,,,,,,,,,,,,,,,,,,,,,,,,,,,,,,,,,,,,,,,,,,,,,,,,,,,,,,,,,,,,,,,,,,,,,,,,,,,,,,,,,,,,,,,,,,
,,,,,,61715532205e28ec88b6903c,62c5387c505ca495f1f3dbcf,2022-07-06_09h24.31.525,Colour_Asymmetry_Pilot,2022.1.3,MacIntel,59.99880002,62c50e9c1127f2cd403a315f,0,113,113,103,1,fourthree,,,,,,,,,,,,,,,,,,,,,,,,,,,,,,,,,,,,,,,,,,,,,,,,,,,,,,,,,,,,,,,,,,,,,,,,,,,,,,,,,,,,,,,,,,,,,,,,,,,,,,,,,,,,,,,,,,,,,,,,,,,,,,,,,,,,,,,,,,,,,,,,,,,,,,,,,,,,,
,,,,,,61715532205e28ec88b6903c,62c5387c505ca495f1f3dbcf,2022-07-06_09h24.31.525,Colour_Asymmetry_Pilot,2022.1.3,MacIntel,59.99880002,62c50e9c1127f2cd403a315f,0,114,114,57,1,onethree,,,,,,,,,,,,,,,,,,,,,,,,,,,,,,,,,,,,,,,,,,,,,,,,,,,,,,,,,,,,,,,,,,,,,,,,,,,,,,,,,,,,,,,,,,,,,,,,,,,,,,,,,,,,,,,,,,,,,,,,,,,,,,,,,,,,,,,,,,,,,,,,,,,,,,,,,,,,,
,,,,,,61715532205e28ec88b6903c,62c5387c505ca495f1f3dbcf,2022-07-06_09h24.31.525,Colour_Asymmetry_Pilot,2022.1.3,MacIntel,59.99880002,62c50e9c1127f2cd403a315f,0,115,115,19,1,twofour,,,,,,,,,,,,,,,,,,,,,,,,,,,,,,,,,,,,,,,,,,,,,,,,,,,,,,,,,,,,,,,,,,,,,,,,,,,,,,,,,,,,,,,,,,,,,,,,,,,,,,,,,,,,,,,,,,,,,,,,,,,,,,,,,,,,,,,,,,,,,,,,,,,,,,,,,,,,,
,,,,,,61715532205e28ec88b6903c,62c5387c505ca495f1f3dbcf,2022-07-06_09h24.31.525,Colour_Asymmetry_Pilot,2022.1.3,MacIntel,59.99880002,62c50e9c1127f2cd403a315f,0,116,116,34,1,twoone,,,,,,,,,,,,,,,,,,,,,,,,,,,,,,,,,,,,,,,,,,,,,,,,,,,,,,,,,,,,,,,,,,,,,,,,,,,,,,,,,,,,,,,,,,,,,,,,,,,,,,,,,,,,,,,,,,,,,,,,,,,,,,,,,,,,,,,,,,,,,,,,,,,,,,,,,,,,,
,,,,,,61715532205e28ec88b6903c,62c5387c505ca495f1f3dbcf,2022-07-06_09h24.31.525,Colour_Asymmetry_Pilot,2022.1.3,MacIntel,59.99880002,62c50e9c1127f2cd403a315f,0,117,117,132,1,threeone,,,,,,,,,,,,,,,,,,,,,,,,,,,,,,,,,,,,,,,,,,,,,,,,,,,,,,,,,,,,,,,,,,,,,,,,,,,,,,,,,,,,,,,,,,,,,,,,,,,,,,,,,,,,,,,,,,,,,,,,,,,,,,,,,,,,,,,,,,,,,,,,,,,,,,,,,,,,,
,,,,,,61715532205e28ec88b6903c,62c5387c505ca495f1f3dbcf,2022-07-06_09h24.31.525,Colour_Asymmetry_Pilot,2022.1.3,MacIntel,59.99880002,62c50e9c1127f2cd403a315f,0,118,118,84,1,threeone,,,,,,,,,,,,,,,,,,,,,,,,,,,,,,,,,,,,,,,,,,,,,,,,,,,,,,,,,,,,,,,,,,,,,,,,,,,,,,,,,,,,,,,,,,,,,,,,,,,,,,,,,,,,,,,,,,,,,,,,,,,,,,,,,,,,,,,,,,,,,,,,,,,,,,,,,,,,,
,,,,,,61715532205e28ec88b6903c,62c5387c505ca495f1f3dbcf,2022-07-06_09h24.31.525,Colour_Asymmetry_Pilot,2022.1.3,MacIntel,59.99880002,62c50e9c1127f2cd403a315f,0,119,119,50,1,twoone,,,,,,,,,,,,,,,,,,,,,,,,,,,,,,,,,,,,,,,,,,,,,,,,,,,,,,,,,,,,,,,,,,,,,,,,,,,,,,,,,,,,,,,,,,,,,,,,,,,,,,,,,,,,,,,,,,,,,,,,,,,,,,,,,,,,,,,,,,,,,,,,,,,,,,,,,,,,,
,,,,,,61715532205e28ec88b6903c,62c5387c505ca495f1f3dbcf,2022-07-06_09h24.31.525,Colour_Asymmetry_Pilot,2022.1.3,MacIntel,59.99880002,62c50e9c1127f2cd403a315f,0,120,120,119,1,fourthree,,,,,,,,,,,,,,,,,,,,,,,,,,,,,,,,,,,,,,,,,,,,,,,,,,,,,,,,,,,,,,,,,,,,,,,,,,,,,,,,,,,,,,,,,,,,,,,,,,,,,,,,,,,,,,,,,,,,,,,,,,,,,,,,,,,,,,,,,,,,,,,,,,,,,,,,,,,,,
,,,,,,61715532205e28ec88b6903c,62c5387c505ca495f1f3dbcf,2022-07-06_09h24.31.525,Colour_Asymmetry_Pilot,2022.1.3,MacIntel,59.99880002,62c50e9c1127f2cd403a315f,0,121,121,28,1,threeone,,,,,,,,,,,,,,,,,,,,,,,,,,,,,,,,,,,,,,,,,,,,,,,,,,,,,,,,,,,,,,,,,,,,,,,,,,,,,,,,,,,,,,,,,,,,,,,,,,,,,,,,,,,,,,,,,,,,,,,,,,,,,,,,,,,,,,,,,,,,,,,,,,,,,,,,,,,,,
,,,,,,61715532205e28ec88b6903c,62c5387c505ca495f1f3dbcf,2022-07-06_09h24.31.525,Colour_Asymmetry_Pilot,2022.1.3,MacIntel,59.99880002,62c50e9c1127f2cd403a315f,0,122,122,68,1,threeone,,,,,,,,,,,,,,,,,,,,,,,,,,,,,,,,,,,,,,,,,,,,,,,,,,,,,,,,,,,,,,,,,,,,,,,,,,,,,,,,,,,,,,,,,,,,,,,,,,,,,,,,,,,,,,,,,,,,,,,,,,,,,,,,,,,,,,,,,,,,,,,,,,,,,,,,,,,,,
,,,,,,61715532205e28ec88b6903c,62c5387c505ca495f1f3dbcf,2022-07-06_09h24.31.525,Colour_Asymmetry_Pilot,2022.1.3,MacIntel,59.99880002,62c50e9c1127f2cd403a315f,0,123,123,78,1,fourtwo,,,,,,,,,,,,,,,,,,,,,,,,,,,,,,,,,,,,,,,,,,,,,,,,,,,,,,,,,,,,,,,,,,,,,,,,,,,,,,,,,,,,,,,,,,,,,,,,,,,,,,,,,,,,,,,,,,,,,,,,,,,,,,,,,,,,,,,,,,,,,,,,,,,,,,,,,,,,,
,,,,,,61715532205e28ec88b6903c,62c5387c505ca495f1f3dbcf,2022-07-06_09h24.31.525,Colour_Asymmetry_Pilot,2022.1.3,MacIntel,59.99880002,62c50e9c1127f2cd403a315f,0,124,124,60,1,threeone,,,,,,,,,,,,,,,,,,,,,,,,,,,,,,,,,,,,,,,,,,,,,,,,,,,,,,,,,,,,,,,,,,,,,,,,,,,,,,,,,,,,,,,,,,,,,,,,,,,,,,,,,,,,,,,,,,,,,,,,,,,,,,,,,,,,,,,,,,,,,,,,,,,,,,,,,,,,,
,,,,,,61715532205e28ec88b6903c,62c5387c505ca495f1f3dbcf,2022-07-06_09h24.31.525,Colour_Asymmetry_Pilot,2022.1.3,MacIntel,59.99880002,62c50e9c1127f2cd403a315f,0,125,125,43,1,twofour,,,,,,,,,,,,,,,,,,,,,,,,,,,,,,,,,,,,,,,,,,,,,,,,,,,,,,,,,,,,,,,,,,,,,,,,,,,,,,,,,,,,,,,,,,,,,,,,,,,,,,,,,,,,,,,,,,,,,,,,,,,,,,,,,,,,,,,,,,,,,,,,,,,,,,,,,,,,,
,,,,,,61715532205e28ec88b6903c,62c5387c505ca495f1f3dbcf,2022-07-06_09h24.31.525,Colour_Asymmetry_Pilot,2022.1.3,MacIntel,59.99880002,62c50e9c1127f2cd403a315f,0,126,126,44,1,threeone,,,,,,,,,,,,,,,,,,,,,,,,,,,,,,,,,,,,,,,,,,,,,,,,,,,,,,,,,,,,,,,,,,,,,,,,,,,,,,,,,,,,,,,,,,,,,,,,,,,,,,,,,,,,,,,,,,,,,,,,,,,,,,,,,,,,,,,,,,,,,,,,,,,,,,,,,,,,,
,,,,,,61715532205e28ec88b6903c,62c5387c505ca495f1f3dbcf,2022-07-06_09h24.31.525,Colour_Asymmetry_Pilot,2022.1.3,MacIntel,59.99880002,62c50e9c1127f2cd403a315f,0,127,127,47,1,fourthree,,,,,,,,,,,,,,,,,,,,,,,,,,,,,,,,,,,,,,,,,,,,,,,,,,,,,,,,,,,,,,,,,,,,,,,,,,,,,,,,,,,,,,,,,,,,,,,,,,,,,,,,,,,,,,,,,,,,,,,,,,,,,,,,,,,,,,,,,,,,,,,,,,,,,,,,,,,,,
,,,,,,61715532205e28ec88b6903c,62c5387c505ca495f1f3dbcf,2022-07-06_09h24.31.525,Colour_Asymmetry_Pilot,2022.1.3,MacIntel,59.99880002,62c50e9c1127f2cd403a315f,0,128,128,151,1,fourthree,,,,,,,,,,,,,,,,,,,,,,,,,,,,,,,,,,,,,,,,,,,,,,,,,,,,,,,,,,,,,,,,,,,,,,,,,,,,,,,,,,,,,,,,,,,,,,,,,,,,,,,,,,,,,,,,,,,,,,,,,,,,,,,,,,,,,,,,,,,,,,,,,,,,,,,,,,,,,
,,,,,,61715532205e28ec88b6903c,62c5387c505ca495f1f3dbcf,2022-07-06_09h24.31.525,Colour_Asymmetry_Pilot,2022.1.3,MacIntel,59.99880002,62c50e9c1127f2cd403a315f,0,129,129,75,1,twofour,,,,,,,,,,,,,,,,,,,,,,,,,,,,,,,,,,,,,,,,,,,,,,,,,,,,,,,,,,,,,,,,,,,,,,,,,,,,,,,,,,,,,,,,,,,,,,,,,,,,,,,,,,,,,,,,,,,,,,,,,,,,,,,,,,,,,,,,,,,,,,,,,,,,,,,,,,,,,
,,,,,,61715532205e28ec88b6903c,62c5387c505ca495f1f3dbcf,2022-07-06_09h24.31.525,Colour_Asymmetry_Pilot,2022.1.3,MacIntel,59.99880002,62c50e9c1127f2cd403a315f,0,130,130,80,1,onetwo,,,,,,,,,,,,,,,,,,,,,,,,,,,,,,,,,,,,,,,,,,,,,,,,,,,,,,,,,,,,,,,,,,,,,,,,,,,,,,,,,,,,,,,,,,,,,,,,,,,,,,,,,,,,,,,,,,,,,,,,,,,,,,,,,,,,,,,,,,,,,,,,,,,,,,,,,,,,,
,,,,,,61715532205e28ec88b6903c,62c5387c505ca495f1f3dbcf,2022-07-06_09h24.31.525,Colour_Asymmetry_Pilot,2022.1.3,MacIntel,59.99880002,62c50e9c1127f2cd403a315f,0,131,131,99,1,twofour,,,,,,,,,,,,,,,,,,,,,,,,,,,,,,,,,,,,,,,,,,,,,,,,,,,,,,,,,,,,,,,,,,,,,,,,,,,,,,,,,,,,,,,,,,,,,,,,,,,,,,,,,,,,,,,,,,,,,,,,,,,,,,,,,,,,,,,,,,,,,,,,,,,,,,,,,,,,,
,,,,,,61715532205e28ec88b6903c,62c5387c505ca495f1f3dbcf,2022-07-06_09h24.31.525,Colour_Asymmetry_Pilot,2022.1.3,MacIntel,59.99880002,62c50e9c1127f2cd403a315f,0,132,132,5,1,threefour,,,,,,,,,,,,,,,,,,,,,,,,,,,,,,,,,,,,,,,,,,,,,,,,,,,,,,,,,,,,,,,,,,,,,,,,,,,,,,,,,,,,,,,,,,,,,,,,,,,,,,,,,,,,,,,,,,,,,,,,,,,,,,,,,,,,,,,,,,,,,,,,,,,,,,,,,,,,,
,,,,,,61715532205e28ec88b6903c,62c5387c505ca495f1f3dbcf,2022-07-06_09h24.31.525,Colour_Asymmetry_Pilot,2022.1.3,MacIntel,59.99880002,62c50e9c1127f2cd403a315f,0,133,133,137,1,onethree,,,,,,,,,,,,,,,,,,,,,,,,,,,,,,,,,,,,,,,,,,,,,,,,,,,,,,,,,,,,,,,,,,,,,,,,,,,,,,,,,,,,,,,,,,,,,,,,,,,,,,,,,,,,,,,,,,,,,,,,,,,,,,,,,,,,,,,,,,,,,,,,,,,,,,,,,,,,,
,,,,,,61715532205e28ec88b6903c,62c5387c505ca495f1f3dbcf,2022-07-06_09h24.31.525,Colour_Asymmetry_Pilot,2022.1.3,MacIntel,59.99880002,62c50e9c1127f2cd403a315f,0,134,134,102,1,fourtwo,,,,,,,,,,,,,,,,,,,,,,,,,,,,,,,,,,,,,,,,,,,,,,,,,,,,,,,,,,,,,,,,,,,,,,,,,,,,,,,,,,,,,,,,,,,,,,,,,,,,,,,,,,,,,,,,,,,,,,,,,,,,,,,,,,,,,,,,,,,,,,,,,,,,,,,,,,,,,
,,,,,,61715532205e28ec88b6903c,62c5387c505ca495f1f3dbcf,2022-07-06_09h24.31.525,Colour_Asymmetry_Pilot,2022.1.3,MacIntel,59.99880002,62c50e9c1127f2cd403a315f,0,135,135,81,1,onethree,,,,,,,,,,,,,,,,,,,,,,,,,,,,,,,,,,,,,,,,,,,,,,,,,,,,,,,,,,,,,,,,,,,,,,,,,,,,,,,,,,,,,,,,,,,,,,,,,,,,,,,,,,,,,,,,,,,,,,,,,,,,,,,,,,,,,,,,,,,,,,,,,,,,,,,,,,,,,
,,,,,,61715532205e28ec88b6903c,62c5387c505ca495f1f3dbcf,2022-07-06_09h24.31.525,Colour_Asymmetry_Pilot,2022.1.3,MacIntel,59.99880002,62c50e9c1127f2cd403a315f,0,136,136,91,1,twofour,,,,,,,,,,,,,,,,,,,,,,,,,,,,,,,,,,,,,,,,,,,,,,,,,,,,,,,,,,,,,,,,,,,,,,,,,,,,,,,,,,,,,,,,,,,,,,,,,,,,,,,,,,,,,,,,,,,,,,,,,,,,,,,,,,,,,,,,,,,,,,,,,,,,,,,,,,,,,
,,,,,,61715532205e28ec88b6903c,62c5387c505ca495f1f3dbcf,2022-07-06_09h24.31.525,Colour_Asymmetry_Pilot,2022.1.3,MacIntel,59.99880002,62c50e9c1127f2cd403a315f,0,137,137,149,1,threefour,,,,,,,,,,,,,,,,,,,,,,,,,,,,,,,,,,,,,,,,,,,,,,,,,,,,,,,,,,,,,,,,,,,,,,,,,,,,,,,,,,,,,,,,,,,,,,,,,,,,,,,,,,,,,,,,,,,,,,,,,,,,,,,,,,,,,,,,,,,,,,,,,,,,,,,,,,,,,
,,,,,,61715532205e28ec88b6903c,62c5387c505ca495f1f3dbcf,2022-07-06_09h24.31.525,Colour_Asymmetry_Pilot,2022.1.3,MacIntel,59.99880002,62c50e9c1127f2cd403a315f,0,138,138,110,1,fourtwo,,,,,,,,,,,,,,,,,,,,,,,,,,,,,,,,,,,,,,,,,,,,,,,,,,,,,,,,,,,,,,,,,,,,,,,,,,,,,,,,,,,,,,,,,,,,,,,,,,,,,,,,,,,,,,,,,,,,,,,,,,,,,,,,,,,,,,,,,,,,,,,,,,,,,,,,,,,,,
,,,,,,61715532205e28ec88b6903c,62c5387c505ca495f1f3dbcf,2022-07-06_09h24.31.525,Colour_Asymmetry_Pilot,2022.1.3,MacIntel,59.99880002,62c50e9c1127f2cd403a315f,0,139,139,63,1,fourthree,,,,,,,,,,,,,,,,,,,,,,,,,,,,,,,,,,,,,,,,,,,,,,,,,,,,,,,,,,,,,,,,,,,,,,,,,,,,,,,,,,,,,,,,,,,,,,,,,,,,,,,,,,,,,,,,,,,,,,,,,,,,,,,,,,,,,,,,,,,,,,,,,,,,,,,,,,,,,
,,,,,,61715532205e28ec88b6903c,62c5387c505ca495f1f3dbcf,2022-07-06_09h24.31.525,Colour_Asymmetry_Pilot,2022.1.3,MacIntel,59.99880002,62c50e9c1127f2cd403a315f,0,140,140,140,1,threeone,,,,,,,,,,,,,,,,,,,,,,,,,,,,,,,,,,,,,,,,,,,,,,,,,,,,,,,,,,,,,,,,,,,,,,,,,,,,,,,,,,,,,,,,,,,,,,,,,,,,,,,,,,,,,,,,,,,,,,,,,,,,,,,,,,,,,,,,,,,,,,,,,,,,,,,,,,,,,
,,,,,,61715532205e28ec88b6903c,62c5387c505ca495f1f3dbcf,2022-07-06_09h24.31.525,Colour_Asymmetry_Pilot,2022.1.3,MacIntel,59.99880002,62c50e9c1127f2cd403a315f,0,141,141,121,1,onethree,,,,,,,,,,,,,,,,,,,,,,,,,,,,,,,,,,,,,,,,,,,,,,,,,,,,,,,,,,,,,,,,,,,,,,,,,,,,,,,,,,,,,,,,,,,,,,,,,,,,,,,,,,,,,,,,,,,,,,,,,,,,,,,,,,,,,,,,,,,,,,,,,,,,,,,,,,,,,
,,,,,,61715532205e28ec88b6903c,62c5387c505ca495f1f3dbcf,2022-07-06_09h24.31.525,Colour_Asymmetry_Pilot,2022.1.3,MacIntel,59.99880002,62c50e9c1127f2cd403a315f,0,142,142,9,1,onethree,,,,,,,,,,,,,,,,,,,,,,,,,,,,,,,,,,,,,,,,,,,,,,,,,,,,,,,,,,,,,,,,,,,,,,,,,,,,,,,,,,,,,,,,,,,,,,,,,,,,,,,,,,,,,,,,,,,,,,,,,,,,,,,,,,,,,,,,,,,,,,,,,,,,,,,,,,,,,
,,,,,,61715532205e28ec88b6903c,62c5387c505ca495f1f3dbcf,2022-07-06_09h24.31.525,Colour_Asymmetry_Pilot,2022.1.3,MacIntel,59.99880002,62c50e9c1127f2cd403a315f,0,143,143,144,1,onetwo,,,,,,,,,,,,,,,,,,,,,,,,,,,,,,,,,,,,,,,,,,,,,,,,,,,,,,,,,,,,,,,,,,,,,,,,,,,,,,,,,,,,,,,,,,,,,,,,,,,,,,,,,,,,,,,,,,,,,,,,,,,,,,,,,,,,,,,,,,,,,,,,,,,,,,,,,,,,,
,,,,,,61715532205e28ec88b6903c,62c5387c505ca495f1f3dbcf,2022-07-06_09h24.31.525,Colour_Asymmetry_Pilot,2022.1.3,MacIntel,59.99880002,62c50e9c1127f2cd403a315f,0,144,144,3,1,twofour,,,,,,,,,,,,,,,,,,,,,,,,,,,,,,,,,,,,,,,,,,,,,,,,,,,,,,,,,,,,,,,,,,,,,,,,,,,,,,,,,,,,,,,,,,,,,,,,,,,,,,,,,,,,,,,,,,,,,,,,,,,,,,,,,,,,,,,,,,,,,,,,,,,,,,,,,,,,,
,,,,,,61715532205e28ec88b6903c,62c5387c505ca495f1f3dbcf,2022-07-06_09h24.31.525,Colour_Asymmetry_Pilot,2022.1.3,MacIntel,59.99880002,62c50e9c1127f2cd403a315f,0,145,145,143,1,fourthree,,,,,,,,,,,,,,,,,,,,,,,,,,,,,,,,,,,,,,,,,,,,,,,,,,,,,,,,,,,,,,,,,,,,,,,,,,,,,,,,,,,,,,,,,,,,,,,,,,,,,,,,,,,,,,,,,,,,,,,,,,,,,,,,,,,,,,,,,,,,,,,,,,,,,,,,,,,,,
,,,,,,61715532205e28ec88b6903c,62c5387c505ca495f1f3dbcf,2022-07-06_09h24.31.525,Colour_Asymmetry_Pilot,2022.1.3,MacIntel,59.99880002,62c50e9c1127f2cd403a315f,0,146,146,153,1,onethree,,,,,,,,,,,,,,,,,,,,,,,,,,,,,,,,,,,,,,,,,,,,,,,,,,,,,,,,,,,,,,,,,,,,,,,,,,,,,,,,,,,,,,,,,,,,,,,,,,,,,,,,,,,,,,,,,,,,,,,,,,,,,,,,,,,,,,,,,,,,,,,,,,,,,,,,,,,,,
,,,,,,61715532205e28ec88b6903c,62c5387c505ca495f1f3dbcf,2022-07-06_09h24.31.525,Colour_Asymmetry_Pilot,2022.1.3,MacIntel,59.99880002,62c50e9c1127f2cd403a315f,0,147,147,39,1,fourthree,,,,,,,,,,,,,,,,,,,,,,,,,,,,,,,,,,,,,,,,,,,,,,,,,,,,,,,,,,,,,,,,,,,,,,,,,,,,,,,,,,,,,,,,,,,,,,,,,,,,,,,,,,,,,,,,,,,,,,,,,,,,,,,,,,,,,,,,,,,,,,,,,,,,,,,,,,,,,
,,,,,,61715532205e28ec88b6903c,62c5387c505ca495f1f3dbcf,2022-07-06_09h24.31.525,Colour_Asymmetry_Pilot,2022.1.3,MacIntel,59.99880002,62c50e9c1127f2cd403a315f,0,148,148,23,1,fourthree,,,,,,,,,,,,,,,,,,,,,,,,,,,,,,,,,,,,,,,,,,,,,,,,,,,,,,,,,,,,,,,,,,,,,,,,,,,,,,,,,,,,,,,,,,,,,,,,,,,,,,,,,,,,,,,,,,,,,,,,,,,,,,,,,,,,,,,,,,,,,,,,,,,,,,,,,,,,,
,,,,,,61715532205e28ec88b6903c,62c5387c505ca495f1f3dbcf,2022-07-06_09h24.31.525,Colour_Asymmetry_Pilot,2022.1.3,MacIntel,59.99880002,62c50e9c1127f2cd403a315f,0,149,149,52,1,threeone,,,,,,,,,,,,,,,,,,,,,,,,,,,,,,,,,,,,,,,,,,,,,,,,,,,,,,,,,,,,,,,,,,,,,,,,,,,,,,,,,,,,,,,,,,,,,,,,,,,,,,,,,,,,,,,,,,,,,,,,,,,,,,,,,,,,,,,,,,,,,,,,,,,,,,,,,,,,,
,,,,,,61715532205e28ec88b6903c,62c5387c505ca495f1f3dbcf,2022-07-06_09h24.31.525,Colour_Asymmetry_Pilot,2022.1.3,MacIntel,59.99880002,62c50e9c1127f2cd403a315f,0,150,150,152,1,onetwo,,,,,,,,,,,,,,,,,,,,,,,,,,,,,,,,,,,,,,,,,,,,,,,,,,,,,,,,,,,,,,,,,,,,,,,,,,,,,,,,,,,,,,,,,,,,,,,,,,,,,,,,,,,,,,,,,,,,,,,,,,,,,,,,,,,,,,,,,,,,,,,,,,,,,,,,,,,,,
,,,,,,61715532205e28ec88b6903c,62c5387c505ca495f1f3dbcf,2022-07-06_09h24.31.525,Colour_Asymmetry_Pilot,2022.1.3,MacIntel,59.99880002,62c50e9c1127f2cd403a315f,0,151,151,8,1,onetwo,,,,,,,,,,,,,,,,,,,,,,,,,,,,,,,,,,,,,,,,,,,,,,,,,,,,,,,,,,,,,,,,,,,,,,,,,,,,,,,,,,,,,,,,,,,,,,,,,,,,,,,,,,,,,,,,,,,,,,,,,,,,,,,,,,,,,,,,,,,,,,,,,,,,,,,,,,,,,
,,,,,,61715532205e28ec88b6903c,62c5387c505ca495f1f3dbcf,2022-07-06_09h24.31.525,Colour_Asymmetry_Pilot,2022.1.3,MacIntel,59.99880002,62c50e9c1127f2cd403a315f,0,152,152,21,1,threefour,,,,,,,,,,,,,,,,,,,,,,,,,,,,,,,,,,,,,,,,,,,,,,,,,,,,,,,,,,,,,,,,,,,,,,,,,,,,,,,,,,,,,,,,,,,,,,,,,,,,,,,,,,,,,,,,,,,,,,,,,,,,,,,,,,,,,,,,,,,,,,,,,,,,,,,,,,,,,
,,,,,,61715532205e28ec88b6903c,62c5387c505ca495f1f3dbcf,2022-07-06_09h24.31.525,Colour_Asymmetry_Pilot,2022.1.3,MacIntel,59.99880002,62c50e9c1127f2cd403a315f,0,153,153,130,1,twoone,,,,,,,,,,,,,,,,,,,,,,,,,,,,,,,,,,,,,,,,,,,,,,,,,,,,,,,,,,,,,,,,,,,,,,,,,,,,,,,,,,,,,,,,,,,,,,,,,,,,,,,,,,,,,,,,,,,,,,,,,,,,,,,,,,,,,,,,,,,,,,,,,,,,,,,,,,,,,
,,,,,,61715532205e28ec88b6903c,62c5387c505ca495f1f3dbcf,2022-07-06_09h24.31.525,Colour_Asymmetry_Pilot,2022.1.3,MacIntel,59.99880002,62c50e9c1127f2cd403a315f,0,154,154,2,1,twoone,,,,,,,,,,,,,,,,,,,,,,,,,,,,,,,,,,,,,,,,,,,,,,,,,,,,,,,,,,,,,,,,,,,,,,,,,,,,,,,,,,,,,,,,,,,,,,,,,,,,,,,,,,,,,,,,,,,,,,,,,,,,,,,,,,,,,,,,,,,,,,,,,,,,,,,,,,,,,
,,,,,,61715532205e28ec88b6903c,62c5387c505ca495f1f3dbcf,2022-07-06_09h24.31.525,Colour_Asymmetry_Pilot,2022.1.3,MacIntel,59.99880002,62c50e9c1127f2cd403a315f,0,155,155,35,1,twofour,,,,,,,,,,,,,,,,,,,,,,,,,,,,,,,,,,,,,,,,,,,,,,,,,,,,,,,,,,,,,,,,,,,,,,,,,,,,,,,,,,,,,,,,,,,,,,,,,,,,,,,,,,,,,,,,,,,,,,,,,,,,,,,,,,,,,,,,,,,,,,,,,,,,,,,,,,,,,
,,,,,,61715532205e28ec88b6903c,62c5387c505ca495f1f3dbcf,2022-07-06_09h24.31.525,Colour_Asymmetry_Pilot,2022.1.3,MacIntel,59.99880002,62c50e9c1127f2cd403a315f,0,156,156,83,1,twofour,,,,,,,,,,,,,,,,,,,,,,,,,,,,,,,,,,,,,,,,,,,,,,,,,,,,,,,,,,,,,,,,,,,,,,,,,,,,,,,,,,,,,,,,,,,,,,,,,,,,,,,,,,,,,,,,,,,,,,,,,,,,,,,,,,,,,,,,,,,,,,,,,,,,,,,,,,,,,
,,,,,,61715532205e28ec88b6903c,62c5387c505ca495f1f3dbcf,2022-07-06_09h24.31.525,Colour_Asymmetry_Pilot,2022.1.3,MacIntel,59.99880002,62c50e9c1127f2cd403a315f,0,157,157,138,1,twoone,,,,,,,,,,,,,,,,,,,,,,,,,,,,,,,,,,,,,,,,,,,,,,,,,,,,,,,,,,,,,,,,,,,,,,,,,,,,,,,,,,,,,,,,,,,,,,,,,,,,,,,,,,,,,,,,,,,,,,,,,,,,,,,,,,,,,,,,,,,,,,,,,,,,,,,,,,,,,
,,,,,,61715532205e28ec88b6903c,62c5387c505ca495f1f3dbcf,2022-07-06_09h24.31.525,Colour_Asymmetry_Pilot,2022.1.3,MacIntel,59.99880002,62c50e9c1127f2cd403a315f,0,158,158,20,1,threeone,,,,,,,,,,,,,,,,,,,,,,,,,,,,,,,,,,,,,,,,,,,,,,,,,,,,,,,,,,,,,,,,,,,,,,,,,,,,,,,,,,,,,,,,,,,,,,,,,,,,,,,,,,,,,,,,,,,,,,,,,,,,,,,,,,,,,,,,,,,,,,,,,,,,,,,,,,,,,
,,,,,,61715532205e28ec88b6903c,62c5387c505ca495f1f3dbcf,2022-07-06_09h24.31.525,Colour_Asymmetry_Pilot,2022.1.3,MacIntel,59.99880002,62c50e9c1127f2cd403a315f,0,159,159,136,1,onetwo,,,,,,,,,,,,,,,,,,,,,,,,,,,,,,,,,,,,,,,,,,,,,,,,,,,,,,,,,,,,,,,,,,,,,,,,,,,,,,,,,,,,,,,,,,,,,,,,,,,,,,,,,,,,,,,,,,,,,,,,,,,,,,,,,,,,,,,,,,,,,,,,,,,,,,,,,,,,,
,,,,,,61715532205e28ec88b6903c,62c5387c505ca495f1f3dbcf,2022-07-06_09h24.31.525,Colour_Asymmetry_Pilot,2022.1.3,MacIntel,59.99880002,62c50e9c1127f2cd403a315f,0,160,160,46,1,fourtwo,,,,,,,,,,,,,,,,,,,,,,,,,,,,,,,,,,,,,,,,,,,,,,,,,,,,,,,,,,,,,,,,,,,,,,,,,,,,,,,,,,,,,,,,,,,,,,,,,,,,,,,,,,,,,,,,,,,,,,,,,,,,,,,,,,,,,,,,,,,,,,,,,,,,,,,,,,,,,
,,,,,,61715532205e28ec88b6903c,62c5387c505ca495f1f3dbcf,2022-07-06_09h24.31.525,Colour_Asymmetry_Pilot,2022.1.3,MacIntel,59.99880002,62c50e9c1127f2cd403a315f,0,161,161,77,1,threefour,,,,,,,,,,,,,,,,,,,,,,,,,,,,,,,,,,,,,,,,,,,,,,,,,,,,,,,,,,,,,,,,,,,,,,,,,,,,,,,,,,,,,,,,,,,,,,,,,,,,,,,,,,,,,,,,,,,,,,,,,,,,,,,,,,,,,,,,,,,,,,,,,,,,,,,,,,,,,
,,,,,,61715532205e28ec88b6903c,62c5387c505ca495f1f3dbcf,2022-07-06_09h24.31.525,Colour_Asymmetry_Pilot,2022.1.3,MacIntel,59.99880002,62c50e9c1127f2cd403a315f,,,,,,,space,3.423,space,2.0423,space,29.7033,space,11.0035,space,1.7981,space,5.1353,"[-0.8982,-0.37259999999999993,0.2784]",fourtwo,"[-0.8118,-0.8198,-0.5452]",2,23.848,82.70812988,-46.7421875,1,0,0,response3disk_5,2.895568848,1.903076172,1,0,0,rectangle_8,79.58435059,37.52017212,1,0,0,response1disk_7,6,3,-1.323242188,-5.611480713,1,0,0,rectangle_4,0,0,0,0,1,,,,,,,,,,,,,,,,,,,,,,,,,,,,,,,,,,,,,,,,,,,,,,,,,,,,,,,,,,,,,,,,,,,,,,,,,,,,,,,,,,,,,,,,,,,,,,,,,,,,,,,,,,,,,
,,,,,,61715532205e28ec88b6903c,62c5387c505ca495f1f3dbcf,2022-07-06_09h24.31.525,Colour_Asymmetry_Pilot,2022.1.3,MacIntel,59.99880002,62c50e9c1127f2cd403a315f,,,,,,,,,,,,,,,,,,,"[-0.6,0.16860000000000008,0.44300000000000006]",twoone,"[0.11359999999999992,0.6312,0.5213999999999999]",-1,5.7837,-42.99511719,-105.8057251,1,0,0,response5disk_5,-12.90802002,5.863464355,1,0,0,rectangle_8,-12.90802002,5.863464355,1,0,0,,,3,-12.90802002,5.863464355,1,0,0,,1,0,1,0,1,,,,,,,,,,,,,,,,,,,,,,,,,,,,,,,,,,,,,,,,,,,,,,,,,,,,,,,,,,,,,,,,,,,,,,,,,,,,,,,,,,,,,,,,,,,,,,,,,,,,,,,,,,,,,
,,,,,,61715532205e28ec88b6903c,62c5387c505ca495f1f3dbcf,2022-07-06_09h24.31.525,Colour_Asymmetry_Pilot,2022.1.3,MacIntel,59.99880002,62c50e9c1127f2cd403a315f,,,,,,,,,,,,,,,,,,,"[-0.6942,-0.7648,-0.12959999999999994]",twofour,"[-0.6706000000000001,-0.6157999999999999,-0.6786]",-4,3.5516,-31.5234375,75.93106079,1,0,0,response7disk_5,9.060058594,5.247955322,1,0,0,rectangle_8,9.060058594,5.247955322,1,0,0,,,3,9.060058594,5.247955322,1,0,0,,2,0,2,0,1,,,,,,,,,,,,,,,,,,,,,,,,,,,,,,,,,,,,,,,,,,,,,,,,,,,,,,,,,,,,,,,,,,,,,,,,,,,,,,,,,,,,,,,,,,,,,,,,,,,,,,,,,,,,,
,,,,,,61715532205e28ec88b6903c,62c5387c505ca495f1f3dbcf,2022-07-06_09h24.31.525,Colour_Asymmetry_Pilot,2022.1.3,MacIntel,59.99880002,62c50e9c1127f2cd403a315f,,,,,,,,,,,,,,,,,,,"[0.4196,0.4665999999999999,0.3568]",twoone,"[0.34099999999999997,0.5841999999999998,-0.9844]",1,2.1003,42.15997314,-81.75634766,1,0,0,response3disk_5,0.584777832,-8.765014648,1,0,0,rectangle_8,0.584777832,-8.765014648,1,0,0,,,3,0.584777832,-8.765014648,1,0,0,,3,0,3,0,1,,,,,,,,,,,,,,,,,,,,,,,,,,,,,,,,,,,,,,,,,,,,,,,,,,,,,,,,,,,,,,,,,,,,,,,,,,,,,,,,,,,,,,,,,,,,,,,,,,,,,,,,,,,,,
,,,,,,61715532205e28ec88b6903c,62c5387c505ca495f1f3dbcf,2022-07-06_09h24.31.525,Colour_Asymmetry_Pilot,2022.1.3,MacIntel,59.99880002,62c50e9c1127f2cd403a315f,,,,,,,,,,,,,,,,,,,"[-0.6,0.16860000000000008,0.44300000000000006]",onetwo,"[0.0351999999999999,0.41159999999999997,0.0038000000000000256]",-1,1.5345,-48.3571167,-81.04290771,1,0,0,response5disk_5,-14.87316895,9.249847412,1,0,0,rectangle_8,-14.87316895,9.249847412,1,0,0,,,3,-14.87316895,9.249847412,1,0,0,,4,0,4,0,1,,,,,,,,,,,,,,,,,,,,,,,,,,,,,,,,,,,,,,,,,,,,,,,,,,,,,,,,,,,,,,,,,,,,,,,,,,,,,,,,,,,,,,,,,,,,,,,,,,,,,,,,,,,,,
,,,,,,61715532205e28ec88b6903c,62c5387c505ca495f1f3dbcf,2022-07-06_09h24.31.525,Colour_Asymmetry_Pilot,2022.1.3,MacIntel,59.99880002,62c50e9c1127f2cd403a315f,,,,,,,,,,,,,,,,,,,"[-0.4668,-0.8746,-0.2942]",twoone,"[0.8274000000000001,-0.5844,-0.9452]",-3,1.9172,-87.91064453,30.37884521,1,0,0,response7disk_5,-8.951293945,2.978942871,1,0,0,rectangle_8,91.17492676,39.67883301,1,0,0,response1disk_7,6,3,1.90826416,-2.248260498,1,0,0,rectangle_4,5,0,5,0,1,,,,,,,,,,,,,,,,,,,,,,,,,,,,,,,,,,,,,,,,,,,,,,,,,,,,,,,,,,,,,,,,,,,,,,,,,,,,,,,,,,,,,,,,,,,,,,,,,,,,,,,,,,,,,
,,,,,,61715532205e28ec88b6903c,62c5387c505ca495f1f3dbcf,2022-07-06_09h24.31.525,Colour_Asymmetry_Pilot,2022.1.3,MacIntel,59.99880002,62c50e9c1127f2cd403a315f,,,,,,,,,,,,,,,,,,,"[0.23120000000000007,-0.7726,-0.34120000000000006]",onetwo,"[0.34099999999999997,0.12939999999999996,-0.9766]",1,3.2863,33.04772949,-88.91650391,1,0,0,response3disk_5,-3.33416748,-7.985778809,1,0,0,rectangle_8,-3.33416748,-7.985778809,1,0,0,,,3,-3.33416748,-7.985778809,1,0,0,,6,0,6,0,1,,,,,,,,,,,,,,,,,,,,,,,,,,,,,,,,,,,,,,,,,,,,,,,,,,,,,,,,,,,,,,,,,,,,,,,,,,,,,,,,,,,,,,,,,,,,,,,,,,,,,,,,,,,,,
,,,,,,61715532205e28ec88b6903c,62c5387c505ca495f1f3dbcf,2022-07-06_09h24.31.525,Colour_Asymmetry_Pilot,2022.1.3,MacIntel,59.99880002,62c50e9c1127f2cd403a315f,,,,,,,,,,,,,,,,,,,,threefour,,2,0.9828,,,,,,,,,,,,,,,,,,,,,,,,,,,,,,,,space,9.7104,"[-0.8118,-0.8198,-0.5452]","[-0.5452,-0.608,0.2470000000000001]",87.40332031,-56.93927002,1,0,0,response3disk,-12.1305542,13.93041992,1,0,0,rectangle,-12.1305542,13.93041992,1,0,0,,2,0.0026,0,-12.1305542,13.93041992,1,0,0,0,0,0,102,1,21,second,,,,,,,,,,,,,,,,,,,,,,,,,,,,,,,,,,,,,,,,,,,,,,,,,,,,,,,,,,,,,,,,,,,,,,,,
,,,,,,61715532205e28ec88b6903c,62c5387c505ca495f1f3dbcf,2022-07-06_09h24.31.525,Colour_Asymmetry_Pilot,2022.1.3,MacIntel,59.99880002,62c50e9c1127f2cd403a315f,,,,,,,,,,,,,,,,,,,,onetwo,,-3,1.0668,,,,,,,,,,,,,,,,,,,,,,,,,,,,,,,,,,"[0.4196,0.4665999999999999,0.3568]","[0.5449999999999999,-0.31000000000000005,-0.0354000000000001]",-69.43481445,41.75231934,1,0,0,response7disk,12.78137207,-0.842529297,1,0,0,rectangle,12.78137207,-0.842529297,1,0,0,,1,0.0019,0,12.78137207,-0.842529297,1,0,0,0,1,1,139,1,58,second,,,,,,,,,,,,,,,,,,,,,,,,,,,,,,,,,,,,,,,,,,,,,,,,,,,,,,,,,,,,,,,,,,,,,,,,
,,,,,,61715532205e28ec88b6903c,62c5387c505ca495f1f3dbcf,2022-07-06_09h24.31.525,Colour_Asymmetry_Pilot,2022.1.3,MacIntel,59.99880002,62c50e9c1127f2cd403a315f,,,,,,,,,,,,,,,,,,,,twofour,,-3,1.3518,,,,,,,,,,,,,,,,,,,,,,,,,,,,,,,,,,"[-0.9688,-0.38039999999999996,-0.41979999999999995]","[-0.10599999999999998,-0.10599999999999998,0.5841999999999998]",-71.79534912,44.93771362,1,0,0,response7disk,-11.69134521,5.558929443,1,0,0,rectangle,-11.69134521,5.558929443,1,0,0,,3,0.0016,0,-11.69134521,5.558929443,1,0,0,0,2,2,12,1,12,first,,,,,,,,,,,,,,,,,,,,,,,,,,,,,,,,,,,,,,,,,,,,,,,,,,,,,,,,,,,,,,,,,,,,,,,,
,,,,,,61715532205e28ec88b6903c,62c5387c505ca495f1f3dbcf,2022-07-06_09h24.31.525,Colour_Asymmetry_Pilot,2022.1.3,MacIntel,59.99880002,62c50e9c1127f2cd403a315f,,,,,,,,,,,,,,,,,,,,fourthree,,2,0.999,,,,,,,,,,,,,,,,,,,,,,,,,,,,,,,,,,"[-0.4746,-0.0354000000000001,0.5449999999999999]","[-0.48240000000000005,0.3175999999999999,0.2156]",85.20196533,-41.43304443,1,0,0,response3disk,3.602416992,1.725311279,1,0,0,rectangle,3.602416992,1.725311279,1,0,0,,3,0.0002,0,3.602416992,1.725311279,1,0,0,0,3,3,150,1,69,second,,,,,,,,,,,,,,,,,,,,,,,,,,,,,,,,,,,,,,,,,,,,,,,,,,,,,,,,,,,,,,,,,,,,,,,,
,,,,,,61715532205e28ec88b6903c,62c5387c505ca495f1f3dbcf,2022-07-06_09h24.31.525,Colour_Asymmetry_Pilot,2022.1.3,MacIntel,59.99880002,62c50e9c1127f2cd403a315f,,,,,,,,,,,,,,,,,,,,twofour,,-2,1.1182,,,,,,,,,,,,,,,,,,,,,,,,,,,,,,,,,,"[-0.4902000000000001,0.2704,-0.45899999999999996]","[-0.17659999999999998,-0.2864,-0.8354]",-95.70941162,-61.20581055,1,0,0,response5disk,-0.232666016,2.230926514,1,0,0,rectangle,-0.232666016,2.230926514,1,0,0,,1,0.0016,0,-0.232666016,2.230926514,1,0,0,0,4,4,42,1,42,first,,,,,,,,,,,,,,,,,,,,,,,,,,,,,,,,,,,,,,,,,,,,,,,,,,,,,,,,,,,,,,,,,,,,,,,,
,,,,,,61715532205e28ec88b6903c,62c5387c505ca495f1f3dbcf,2022-07-06_09h24.31.525,Colour_Asymmetry_Pilot,2022.1.3,MacIntel,59.99880002,62c50e9c1127f2cd403a315f,,,,,,,,,,,,,,,,,,,,fourthree,,-3,1.1015,,,,,,,,,,,,,,,,,,,,,,,,,,,,,,,,,,"[-0.17659999999999998,-0.2864,-0.8354]","[-0.4902000000000001,0.2704,-0.45899999999999996]",-80.50506592,28.2482605,1,0,0,response7disk,-33.24841309,8.735717773,1,0,0,rectangle,-33.24841309,8.735717773,1,0,0,,3,0.0013,0,-33.24841309,8.735717773,1,0,0,0,5,5,123,1,42,second,,,,,,,,,,,,,,,,,,,,,,,,,,,,,,,,,,,,,,,,,,,,,,,,,,,,,,,,,,,,,,,,,,,,,,,,
,,,,,,61715532205e28ec88b6903c,62c5387c505ca495f1f3dbcf,2022-07-06_09h24.31.525,Colour_Asymmetry_Pilot,2022.1.3,MacIntel,59.99880002,62c50e9c1127f2cd403a315f,,,,,,,,,,,,,,,,,,,,fourtwo,,-4,1.2501,,,,,,,,,,,,,,,,,,,,,,,,,,,,,,,,,,"[0.12939999999999996,-0.2864,0.3253999999999999]","[0.11359999999999992,0.6312,0.5213999999999999]",-43.64556885,89.27441406,1,0,0,response7disk,0.331542969,7.963684082,1,0,0,rectangle,39.6050415,-94.38787842,1,0,0,1,1,4.6794,1,-4.678222656,1.052764893,1,0,0,0,6,6,136,1,55,second,response3disk_3,rectangle,,,,,,,,,,,,,,,,,,,,,,,,,,,,,,,,,,,,,,,,,,,,,,,,,,,,,,,,,,,,,,,,,,,,,,
,,,,,,61715532205e28ec88b6903c,62c5387c505ca495f1f3dbcf,2022-07-06_09h24.31.525,Colour_Asymmetry_Pilot,2022.1.3,MacIntel,59.99880002,62c50e9c1127f2cd403a315f,,,,,,,,,,,,,,,,,,,,fourtwo,,-4,1.3643,,,,,,,,,,,,,,,,,,,,,,,,,,,,,,,,,,"[-0.07459999999999989,0.12139999999999995,-0.9922]","[-0.34920000000000007,-0.702,-0.5216]",-32.54827881,86.96350098,1,0,0,response7disk,22.43676758,5.550109863,1,0,0,rectangle,22.43676758,5.550109863,1,0,0,1,1,0.0003,0,22.43676758,5.550109863,1,0,0,0,7,7,143,1,62,second,,,,,,,,,,,,,,,,,,,,,,,,,,,,,,,,,,,,,,,,,,,,,,,,,,,,,,,,,,,,,,,,,,,,,,,,
,,,,,,61715532205e28ec88b6903c,62c5387c505ca495f1f3dbcf,2022-07-06_09h24.31.525,Colour_Asymmetry_Pilot,2022.1.3,MacIntel,59.99880002,62c50e9c1127f2cd403a315f,,,,,,,,,,,,,,,,,,,,fourtwo,,-4,0.6467,,,,,,,,,,,,,,,,,,,,,,,,,,,,,,,,,,"[1,0.12939999999999996,-1]","[-0.9296,-0.12959999999999994,-0.043199999999999905]",-38.12786865,102.4317627,1,0,0,response7disk,5.807739258,4.449920654,1,0,0,rectangle,5.807739258,4.449920654,1,0,0,1,1,0.0001,0,5.807739258,4.449920654,1,0,0,0,8,8,137,1,56,second,,,,,,,,,,,,,,,,,,,,,,,,,,,,,,,,,,,,,,,,,,,,,,,,,,,,,,,,,,,,,,,,,,,,,,,,
,,,,,,61715532205e28ec88b6903c,62c5387c505ca495f1f3dbcf,2022-07-06_09h24.31.525,Colour_Asymmetry_Pilot,2022.1.3,MacIntel,59.99880002,62c50e9c1127f2cd403a315f,,,,,,,,,,,,,,,,,,,,onetwo,,-4,4.0523,,,,,,,,,,,,,,,,,,,,,,,,,,,,,,,,,,"[-0.0040000000000000036,0.02739999999999987,-0.08239999999999992]","[-0.38039999999999996,-0.4276,-0.1452]",-41.54345703,100.1545715,1,0,0,response7disk,-0.782592773,-0.892089844,1,0,0,rectangle,-0.782592773,-0.892089844,1,0,0,1,1,0.0002,0,-0.782592773,-0.892089844,1,0,0,0,9,9,57,1,57,first,,,,,,,,,,,,,,,,,,,,,,,,,,,,,,,,,,,,,,,,,,,,,,,,,,,,,,,,,,,,,,,,,,,,,,,,
,,,,,,61715532205e28ec88b6903c,62c5387c505ca495f1f3dbcf,2022-07-06_09h24.31.525,Colour_Asymmetry_Pilot,2022.1.3,MacIntel,59.99880002,62c50e9c1127f2cd403a315f,,,,,,,,,,,,,,,,,,,,twofour,,-1,1.5333,,,,,,,,,,,,,,,,,,,,,,,,,,,,,,,,,,"[-0.9216,-0.5529999999999999,-0.3962]","[-0.6942,-0.7648,-0.12959999999999994]",-35.33422852,-72.64813232,1,0,0,response5disk,-2.683349609,5.301483154,1,0,0,rectangle,-2.683349609,5.301483154,1,0,0,1,3,0.0023,0,-2.683349609,5.301483154,1,0,0,0,10,10,83,1,2,second,,,,,,,,,,,,,,,,,,,,,,,,,,,,,,,,,,,,,,,,,,,,,,,,,,,,,,,,,,,,,,,,,,,,,,,,
,,,,,,61715532205e28ec88b6903c,62c5387c505ca495f1f3dbcf,2022-07-06_09h24.31.525,Colour_Asymmetry_Pilot,2022.1.3,MacIntel,59.99880002,62c50e9c1127f2cd403a315f,,,,,,,,,,,,,,,,,,,,fourtwo,,-2,0.9018,,,,,,,,,,,,,,,,,,,,,,,,,,,,,,,,,,"[-0.5922000000000001,-0.7492000000000001,-0.5296000000000001]","[-0.8198,-0.5138,-0.7492000000000001]",-71.66369629,-55.60400391,1,0,0,response5disk,-11.20220947,4.207092285,1,0,0,rectangle,-11.20220947,4.207092285,1,0,0,1,1,0.0014,0,-11.20220947,4.207092285,1,0,0,0,11,11,33,1,33,first,,,,,,,,,,,,,,,,,,,,,,,,,,,,,,,,,,,,,,,,,,,,,,,,,,,,,,,,,,,,,,,,,,,,,,,,
,,,,,,61715532205e28ec88b6903c,62c5387c505ca495f1f3dbcf,2022-07-06_09h24.31.525,Colour_Asymmetry_Pilot,2022.1.3,MacIntel,59.99880002,62c50e9c1127f2cd403a315f,,,,,,,,,,,,,,,,,,,,onethree,,-4,0.8334,,,,,,,,,,,,,,,,,,,,,,,,,,,,,,,,,,"[-0.9766,-0.6472,0.07440000000000002]","[0.7646000000000002,0.07440000000000002,0.2704]",-36.56262207,96.30300903,1,0,0,response7disk,-6.221740723,-7.939453125,1,0,0,rectangle,-6.221740723,-7.939453125,1,0,0,1,2,0.003,0,-6.221740723,-7.939453125,1,0,0,0,12,12,98,1,17,second,,,,,,,,,,,,,,,,,,,,,,,,,,,,,,,,,,,,,,,,,,,,,,,,,,,,,,,,,,,,,,,,,,,,,,,,
