trials.thisRepN,trials.thisTrialN,trials.thisN,trials.thisIndex,trials.ran,Colourcodes,participant,session,date,expName,psychopyVersion,OS,frameRate,study_id,trials_4.thisRepN,trials_4.thisTrialN,trials_4.thisN,trials_4.thisIndex,trials_4.ran,StimulusPos,key_resp.keys,key_resp.rt,key_resp_2.keys,key_resp_2.rt,key_resp_15.keys,key_resp_15.rt,key_resp_17.keys,key_resp_17.rt,key_resp_9.keys,key_resp_9.rt,key_resp_10.keys,key_resp_10.rt,Circle1_col,Ecc,Circle2_col,similarity,response_time,mouse_5.x,mouse_5.y,mouse_5.leftButton,mouse_5.midButton,mouse_5.rightButton,mouse_5.clicked_name,mouse_10.x,mouse_10.y,mouse_10.leftButton,mouse_10.midButton,mouse_10.rightButton,mouse_10.clicked_name,mouse_7.x,mouse_7.y,mouse_7.leftButton,mouse_7.midButton,mouse_7.rightButton,catchnumberprac,mouse_6.x,mouse_6.y,mouse_6.leftButton,mouse_6.midButton,mouse_6.rightButton,duringprac.thisRepN,duringprac.thisTrialN,duringprac.thisN,duringprac.thisIndex,duringprac.ran,mouse_7.clicked_name,catchprac,mouse_6.clicked_name,key_resp_22.keys,key_resp_22.rt,Circle1_colour,Circle2_colour,mouse.x,mouse.y,mouse.leftButton,mouse.midButton,mouse.rightButton,mouse.clicked_name,mouse_2.x,mouse_2.y,mouse_2.leftButton,mouse_2.midButton,mouse_2.rightButton,mouse_2.clicked_name,mouse_3.x,mouse_3.y,mouse_3.leftButton,mouse_3.midButton,mouse_3.rightButton,catchresponse,catchnumber,response_time_catch,Catch,mouse_11.x,mouse_11.y,mouse_11.leftButton,mouse_11.midButton,mouse_11.rightButton,trials_2.thisRepN,trials_2.thisTrialN,trials_2.thisN,trials_2.thisIndex,trials_2.ran,Colourpair,Temporder,mouse_3.clicked_name,mouse_11.clicked_name,trials_3.thisRepN,trials_3.thisTrialN,trials_3.thisN,trials_3.thisIndex,trials_3.ran,key_resp_instr_Ishi.keys,key_resp_instr_Ishi.rt,Ishi_trial_keyresp.keys,Ishi_textbox.text,Ishi_mouse.x,Ishi_mouse.y,Ishi_mouse.leftButton,Ishi_mouse.midButton,Ishi_mouse.rightButton,Ishi_mouse.clicked_name,Ishi_loop.thisRepN,Ishi_loop.thisTrialN,Ishi_loop.thisN,Ishi_loop.thisIndex,Ishi_loop.ran,imageaddress,textbox.text,mouse_4.x,mouse_4.y,mouse_4.leftButton,mouse_4.midButton,mouse_4.rightButton,mouse_4.clicked_name,textbox_2.text,mouse_8.x,mouse_8.y,mouse_8.leftButton,mouse_8.midButton,mouse_8.rightButton,mouse_8.clicked_name,textbox_3.text,mouse_9.x,mouse_9.y,mouse_9.leftButton,mouse_9.midButton,mouse_9.rightButton,mouse_9.clicked_name,textbox_4.text,mouse_12.x,mouse_12.y,mouse_12.leftButton,mouse_12.midButton,mouse_12.rightButton,mouse_12.clicked_name,textbox_5.text,mouse_13.x,mouse_13.y,mouse_13.leftButton,mouse_13.midButton,mouse_13.rightButton,mouse_13.clicked_name,textbox_6.text,mouse_14.x,mouse_14.y,mouse_14.leftButton,mouse_14.midButton,mouse_14.rightButton,mouse_14.clicked_name,textbox_7.text,mouse_15.x,mouse_15.y,mouse_15.leftButton,mouse_15.midButton,mouse_15.rightButton,mouse_15.clicked_name
0,0,0,50,1,,60ddfb3db6a71ad9ba75e387,62c5561f19b9e62dca3133ef,2022-07-06_11h30.57.438,Colour_Asymmetry_Pilot,2022.1.3,Win32,60.16485169,62c50e9c1127f2cd403a315f,,,,,,,,,,,,,,,,,,,,,,,,,,,,,,,,,,,,,,,,,,,,,,,,,,,,,,,,,,,,,,,,,,,,,,,,,,,,,,,,,,,,,,,,,,,,,,,,,,,,,,,,,,,,,,,,,,,,,,,,,,,,,,,,,,,,,,,,,,,,,,,,,,,,,,,,,,,,,,,,,,,
0,1,1,57,1,,60ddfb3db6a71ad9ba75e387,62c5561f19b9e62dca3133ef,2022-07-06_11h30.57.438,Colour_Asymmetry_Pilot,2022.1.3,Win32,60.16485169,62c50e9c1127f2cd403a315f,,,,,,,,,,,,,,,,,,,,,,,,,,,,,,,,,,,,,,,,,,,,,,,,,,,,,,,,,,,,,,,,,,,,,,,,,,,,,,,,,,,,,,,,,,,,,,,,,,,,,,,,,,,,,,,,,,,,,,,,,,,,,,,,,,,,,,,,,,,,,,,,,,,,,,,,,,,,,,,,,,,
0,2,2,24,1,,60ddfb3db6a71ad9ba75e387,62c5561f19b9e62dca3133ef,2022-07-06_11h30.57.438,Colour_Asymmetry_Pilot,2022.1.3,Win32,60.16485169,62c50e9c1127f2cd403a315f,,,,,,,,,,,,,,,,,,,,,,,,,,,,,,,,,,,,,,,,,,,,,,,,,,,,,,,,,,,,,,,,,,,,,,,,,,,,,,,,,,,,,,,,,,,,,,,,,,,,,,,,,,,,,,,,,,,,,,,,,,,,,,,,,,,,,,,,,,,,,,,,,,,,,,,,,,,,,,,,,,,
0,3,3,29,1,,60ddfb3db6a71ad9ba75e387,62c5561f19b9e62dca3133ef,2022-07-06_11h30.57.438,Colour_Asymmetry_Pilot,2022.1.3,Win32,60.16485169,62c50e9c1127f2cd403a315f,,,,,,,,,,,,,,,,,,,,,,,,,,,,,,,,,,,,,,,,,,,,,,,,,,,,,,,,,,,,,,,,,,,,,,,,,,,,,,,,,,,,,,,,,,,,,,,,,,,,,,,,,,,,,,,,,,,,,,,,,,,,,,,,,,,,,,,,,,,,,,,,,,,,,,,,,,,,,,,,,,,
0,4,4,22,1,,60ddfb3db6a71ad9ba75e387,62c5561f19b9e62dca3133ef,2022-07-06_11h30.57.438,Colour_Asymmetry_Pilot,2022.1.3,Win32,60.16485169,62c50e9c1127f2cd403a315f,,,,,,,,,,,,,,,,,,,,,,,,,,,,,,,,,,,,,,,,,,,,,,,,,,,,,,,,,,,,,,,,,,,,,,,,,,,,,,,,,,,,,,,,,,,,,,,,,,,,,,,,,,,,,,,,,,,,,,,,,,,,,,,,,,,,,,,,,,,,,,,,,,,,,,,,,,,,,,,,,,,
0,5,5,42,1,,60ddfb3db6a71ad9ba75e387,62c5561f19b9e62dca3133ef,2022-07-06_11h30.57.438,Colour_Asymmetry_Pilot,2022.1.3,Win32,60.16485169,62c50e9c1127f2cd403a315f,,,,,,,,,,,,,,,,,,,,,,,,,,,,,,,,,,,,,,,,,,,,,,,,,,,,,,,,,,,,,,,,,,,,,,,,,,,,,,,,,,,,,,,,,,,,,,,,,,,,,,,,,,,,,,,,,,,,,,,,,,,,,,,,,,,,,,,,,,,,,,,,,,,,,,,,,,,,,,,,,,,
0,6,6,5,1,,60ddfb3db6a71ad9ba75e387,62c5561f19b9e62dca3133ef,2022-07-06_11h30.57.438,Colour_Asymmetry_Pilot,2022.1.3,Win32,60.16485169,62c50e9c1127f2cd403a315f,,,,,,,,,,,,,,,,,,,,,,,,,,,,,,,,,,,,,,,,,,,,,,,,,,,,,,,,,,,,,,,,,,,,,,,,,,,,,,,,,,,,,,,,,,,,,,,,,,,,,,,,,,,,,,,,,,,,,,,,,,,,,,,,,,,,,,,,,,,,,,,,,,,,,,,,,,,,,,,,,,,
0,7,7,53,1,,60ddfb3db6a71ad9ba75e387,62c5561f19b9e62dca3133ef,2022-07-06_11h30.57.438,Colour_Asymmetry_Pilot,2022.1.3,Win32,60.16485169,62c50e9c1127f2cd403a315f,,,,,,,,,,,,,,,,,,,,,,,,,,,,,,,,,,,,,,,,,,,,,,,,,,,,,,,,,,,,,,,,,,,,,,,,,,,,,,,,,,,,,,,,,,,,,,,,,,,,,,,,,,,,,,,,,,,,,,,,,,,,,,,,,,,,,,,,,,,,,,,,,,,,,,,,,,,,,,,,,,,
0,8,8,75,1,,60ddfb3db6a71ad9ba75e387,62c5561f19b9e62dca3133ef,2022-07-06_11h30.57.438,Colour_Asymmetry_Pilot,2022.1.3,Win32,60.16485169,62c50e9c1127f2cd403a315f,,,,,,,,,,,,,,,,,,,,,,,,,,,,,,,,,,,,,,,,,,,,,,,,,,,,,,,,,,,,,,,,,,,,,,,,,,,,,,,,,,,,,,,,,,,,,,,,,,,,,,,,,,,,,,,,,,,,,,,,,,,,,,,,,,,,,,,,,,,,,,,,,,,,,,,,,,,,,,,,,,,
0,9,9,92,1,,60ddfb3db6a71ad9ba75e387,62c5561f19b9e62dca3133ef,2022-07-06_11h30.57.438,Colour_Asymmetry_Pilot,2022.1.3,Win32,60.16485169,62c50e9c1127f2cd403a315f,,,,,,,,,,,,,,,,,,,,,,,,,,,,,,,,,,,,,,,,,,,,,,,,,,,,,,,,,,,,,,,,,,,,,,,,,,,,,,,,,,,,,,,,,,,,,,,,,,,,,,,,,,,,,,,,,,,,,,,,,,,,,,,,,,,,,,,,,,,,,,,,,,,,,,,,,,,,,,,,,,,
0,10,10,78,1,,60ddfb3db6a71ad9ba75e387,62c5561f19b9e62dca3133ef,2022-07-06_11h30.57.438,Colour_Asymmetry_Pilot,2022.1.3,Win32,60.16485169,62c50e9c1127f2cd403a315f,,,,,,,,,,,,,,,,,,,,,,,,,,,,,,,,,,,,,,,,,,,,,,,,,,,,,,,,,,,,,,,,,,,,,,,,,,,,,,,,,,,,,,,,,,,,,,,,,,,,,,,,,,,,,,,,,,,,,,,,,,,,,,,,,,,,,,,,,,,,,,,,,,,,,,,,,,,,,,,,,,,
0,11,11,16,1,,60ddfb3db6a71ad9ba75e387,62c5561f19b9e62dca3133ef,2022-07-06_11h30.57.438,Colour_Asymmetry_Pilot,2022.1.3,Win32,60.16485169,62c50e9c1127f2cd403a315f,,,,,,,,,,,,,,,,,,,,,,,,,,,,,,,,,,,,,,,,,,,,,,,,,,,,,,,,,,,,,,,,,,,,,,,,,,,,,,,,,,,,,,,,,,,,,,,,,,,,,,,,,,,,,,,,,,,,,,,,,,,,,,,,,,,,,,,,,,,,,,,,,,,,,,,,,,,,,,,,,,,
0,12,12,39,1,,60ddfb3db6a71ad9ba75e387,62c5561f19b9e62dca3133ef,2022-07-06_11h30.57.438,Colour_Asymmetry_Pilot,2022.1.3,Win32,60.16485169,62c50e9c1127f2cd403a315f,,,,,,,,,,,,,,,,,,,,,,,,,,,,,,,,,,,,,,,,,,,,,,,,,,,,,,,,,,,,,,,,,,,,,,,,,,,,,,,,,,,,,,,,,,,,,,,,,,,,,,,,,,,,,,,,,,,,,,,,,,,,,,,,,,,,,,,,,,,,,,,,,,,,,,,,,,,,,,,,,,,
0,13,13,89,1,,60ddfb3db6a71ad9ba75e387,62c5561f19b9e62dca3133ef,2022-07-06_11h30.57.438,Colour_Asymmetry_Pilot,2022.1.3,Win32,60.16485169,62c50e9c1127f2cd403a315f,,,,,,,,,,,,,,,,,,,,,,,,,,,,,,,,,,,,,,,,,,,,,,,,,,,,,,,,,,,,,,,,,,,,,,,,,,,,,,,,,,,,,,,,,,,,,,,,,,,,,,,,,,,,,,,,,,,,,,,,,,,,,,,,,,,,,,,,,,,,,,,,,,,,,,,,,,,,,,,,,,,
0,14,14,28,1,,60ddfb3db6a71ad9ba75e387,62c5561f19b9e62dca3133ef,2022-07-06_11h30.57.438,Colour_Asymmetry_Pilot,2022.1.3,Win32,60.16485169,62c50e9c1127f2cd403a315f,,,,,,,,,,,,,,,,,,,,,,,,,,,,,,,,,,,,,,,,,,,,,,,,,,,,,,,,,,,,,,,,,,,,,,,,,,,,,,,,,,,,,,,,,,,,,,,,,,,,,,,,,,,,,,,,,,,,,,,,,,,,,,,,,,,,,,,,,,,,,,,,,,,,,,,,,,,,,,,,,,,
0,15,15,49,1,,60ddfb3db6a71ad9ba75e387,62c5561f19b9e62dca3133ef,2022-07-06_11h30.57.438,Colour_Asymmetry_Pilot,2022.1.3,Win32,60.16485169,62c50e9c1127f2cd403a315f,,,,,,,,,,,,,,,,,,,,,,,,,,,,,,,,,,,,,,,,,,,,,,,,,,,,,,,,,,,,,,,,,,,,,,,,,,,,,,,,,,,,,,,,,,,,,,,,,,,,,,,,,,,,,,,,,,,,,,,,,,,,,,,,,,,,,,,,,,,,,,,,,,,,,,,,,,,,,,,,,,,
0,16,16,30,1,,60ddfb3db6a71ad9ba75e387,62c5561f19b9e62dca3133ef,2022-07-06_11h30.57.438,Colour_Asymmetry_Pilot,2022.1.3,Win32,60.16485169,62c50e9c1127f2cd403a315f,,,,,,,,,,,,,,,,,,,,,,,,,,,,,,,,,,,,,,,,,,,,,,,,,,,,,,,,,,,,,,,,,,,,,,,,,,,,,,,,,,,,,,,,,,,,,,,,,,,,,,,,,,,,,,,,,,,,,,,,,,,,,,,,,,,,,,,,,,,,,,,,,,,,,,,,,,,,,,,,,,,
0,17,17,4,1,,60ddfb3db6a71ad9ba75e387,62c5561f19b9e62dca3133ef,2022-07-06_11h30.57.438,Colour_Asymmetry_Pilot,2022.1.3,Win32,60.16485169,62c50e9c1127f2cd403a315f,,,,,,,,,,,,,,,,,,,,,,,,,,,,,,,,,,,,,,,,,,,,,,,,,,,,,,,,,,,,,,,,,,,,,,,,,,,,,,,,,,,,,,,,,,,,,,,,,,,,,,,,,,,,,,,,,,,,,,,,,,,,,,,,,,,,,,,,,,,,,,,,,,,,,,,,,,,,,,,,,,,
0,18,18,56,1,,60ddfb3db6a71ad9ba75e387,62c5561f19b9e62dca3133ef,2022-07-06_11h30.57.438,Colour_Asymmetry_Pilot,2022.1.3,Win32,60.16485169,62c50e9c1127f2cd403a315f,,,,,,,,,,,,,,,,,,,,,,,,,,,,,,,,,,,,,,,,,,,,,,,,,,,,,,,,,,,,,,,,,,,,,,,,,,,,,,,,,,,,,,,,,,,,,,,,,,,,,,,,,,,,,,,,,,,,,,,,,,,,,,,,,,,,,,,,,,,,,,,,,,,,,,,,,,,,,,,,,,,
0,19,19,74,1,,60ddfb3db6a71ad9ba75e387,62c5561f19b9e62dca3133ef,2022-07-06_11h30.57.438,Colour_Asymmetry_Pilot,2022.1.3,Win32,60.16485169,62c50e9c1127f2cd403a315f,,,,,,,,,,,,,,,,,,,,,,,,,,,,,,,,,,,,,,,,,,,,,,,,,,,,,,,,,,,,,,,,,,,,,,,,,,,,,,,,,,,,,,,,,,,,,,,,,,,,,,,,,,,,,,,,,,,,,,,,,,,,,,,,,,,,,,,,,,,,,,,,,,,,,,,,,,,,,,,,,,,
0,20,20,32,1,,60ddfb3db6a71ad9ba75e387,62c5561f19b9e62dca3133ef,2022-07-06_11h30.57.438,Colour_Asymmetry_Pilot,2022.1.3,Win32,60.16485169,62c50e9c1127f2cd403a315f,,,,,,,,,,,,,,,,,,,,,,,,,,,,,,,,,,,,,,,,,,,,,,,,,,,,,,,,,,,,,,,,,,,,,,,,,,,,,,,,,,,,,,,,,,,,,,,,,,,,,,,,,,,,,,,,,,,,,,,,,,,,,,,,,,,,,,,,,,,,,,,,,,,,,,,,,,,,,,,,,,,
0,21,21,12,1,,60ddfb3db6a71ad9ba75e387,62c5561f19b9e62dca3133ef,2022-07-06_11h30.57.438,Colour_Asymmetry_Pilot,2022.1.3,Win32,60.16485169,62c50e9c1127f2cd403a315f,,,,,,,,,,,,,,,,,,,,,,,,,,,,,,,,,,,,,,,,,,,,,,,,,,,,,,,,,,,,,,,,,,,,,,,,,,,,,,,,,,,,,,,,,,,,,,,,,,,,,,,,,,,,,,,,,,,,,,,,,,,,,,,,,,,,,,,,,,,,,,,,,,,,,,,,,,,,,,,,,,,
0,22,22,88,1,,60ddfb3db6a71ad9ba75e387,62c5561f19b9e62dca3133ef,2022-07-06_11h30.57.438,Colour_Asymmetry_Pilot,2022.1.3,Win32,60.16485169,62c50e9c1127f2cd403a315f,,,,,,,,,,,,,,,,,,,,,,,,,,,,,,,,,,,,,,,,,,,,,,,,,,,,,,,,,,,,,,,,,,,,,,,,,,,,,,,,,,,,,,,,,,,,,,,,,,,,,,,,,,,,,,,,,,,,,,,,,,,,,,,,,,,,,,,,,,,,,,,,,,,,,,,,,,,,,,,,,,,
0,23,23,67,1,,60ddfb3db6a71ad9ba75e387,62c5561f19b9e62dca3133ef,2022-07-06_11h30.57.438,Colour_Asymmetry_Pilot,2022.1.3,Win32,60.16485169,62c50e9c1127f2cd403a315f,,,,,,,,,,,,,,,,,,,,,,,,,,,,,,,,,,,,,,,,,,,,,,,,,,,,,,,,,,,,,,,,,,,,,,,,,,,,,,,,,,,,,,,,,,,,,,,,,,,,,,,,,,,,,,,,,,,,,,,,,,,,,,,,,,,,,,,,,,,,,,,,,,,,,,,,,,,,,,,,,,,
0,24,24,10,1,,60ddfb3db6a71ad9ba75e387,62c5561f19b9e62dca3133ef,2022-07-06_11h30.57.438,Colour_Asymmetry_Pilot,2022.1.3,Win32,60.16485169,62c50e9c1127f2cd403a315f,,,,,,,,,,,,,,,,,,,,,,,,,,,,,,,,,,,,,,,,,,,,,,,,,,,,,,,,,,,,,,,,,,,,,,,,,,,,,,,,,,,,,,,,,,,,,,,,,,,,,,,,,,,,,,,,,,,,,,,,,,,,,,,,,,,,,,,,,,,,,,,,,,,,,,,,,,,,,,,,,,,
0,25,25,11,1,,60ddfb3db6a71ad9ba75e387,62c5561f19b9e62dca3133ef,2022-07-06_11h30.57.438,Colour_Asymmetry_Pilot,2022.1.3,Win32,60.16485169,62c50e9c1127f2cd403a315f,,,,,,,,,,,,,,,,,,,,,,,,,,,,,,,,,,,,,,,,,,,,,,,,,,,,,,,,,,,,,,,,,,,,,,,,,,,,,,,,,,,,,,,,,,,,,,,,,,,,,,,,,,,,,,,,,,,,,,,,,,,,,,,,,,,,,,,,,,,,,,,,,,,,,,,,,,,,,,,,,,,
0,26,26,72,1,,60ddfb3db6a71ad9ba75e387,62c5561f19b9e62dca3133ef,2022-07-06_11h30.57.438,Colour_Asymmetry_Pilot,2022.1.3,Win32,60.16485169,62c50e9c1127f2cd403a315f,,,,,,,,,,,,,,,,,,,,,,,,,,,,,,,,,,,,,,,,,,,,,,,,,,,,,,,,,,,,,,,,,,,,,,,,,,,,,,,,,,,,,,,,,,,,,,,,,,,,,,,,,,,,,,,,,,,,,,,,,,,,,,,,,,,,,,,,,,,,,,,,,,,,,,,,,,,,,,,,,,,
0,27,27,14,1,,60ddfb3db6a71ad9ba75e387,62c5561f19b9e62dca3133ef,2022-07-06_11h30.57.438,Colour_Asymmetry_Pilot,2022.1.3,Win32,60.16485169,62c50e9c1127f2cd403a315f,,,,,,,,,,,,,,,,,,,,,,,,,,,,,,,,,,,,,,,,,,,,,,,,,,,,,,,,,,,,,,,,,,,,,,,,,,,,,,,,,,,,,,,,,,,,,,,,,,,,,,,,,,,,,,,,,,,,,,,,,,,,,,,,,,,,,,,,,,,,,,,,,,,,,,,,,,,,,,,,,,,
0,28,28,47,1,,60ddfb3db6a71ad9ba75e387,62c5561f19b9e62dca3133ef,2022-07-06_11h30.57.438,Colour_Asymmetry_Pilot,2022.1.3,Win32,60.16485169,62c50e9c1127f2cd403a315f,,,,,,,,,,,,,,,,,,,,,,,,,,,,,,,,,,,,,,,,,,,,,,,,,,,,,,,,,,,,,,,,,,,,,,,,,,,,,,,,,,,,,,,,,,,,,,,,,,,,,,,,,,,,,,,,,,,,,,,,,,,,,,,,,,,,,,,,,,,,,,,,,,,,,,,,,,,,,,,,,,,
0,29,29,18,1,,60ddfb3db6a71ad9ba75e387,62c5561f19b9e62dca3133ef,2022-07-06_11h30.57.438,Colour_Asymmetry_Pilot,2022.1.3,Win32,60.16485169,62c50e9c1127f2cd403a315f,,,,,,,,,,,,,,,,,,,,,,,,,,,,,,,,,,,,,,,,,,,,,,,,,,,,,,,,,,,,,,,,,,,,,,,,,,,,,,,,,,,,,,,,,,,,,,,,,,,,,,,,,,,,,,,,,,,,,,,,,,,,,,,,,,,,,,,,,,,,,,,,,,,,,,,,,,,,,,,,,,,
0,30,30,27,1,,60ddfb3db6a71ad9ba75e387,62c5561f19b9e62dca3133ef,2022-07-06_11h30.57.438,Colour_Asymmetry_Pilot,2022.1.3,Win32,60.16485169,62c50e9c1127f2cd403a315f,,,,,,,,,,,,,,,,,,,,,,,,,,,,,,,,,,,,,,,,,,,,,,,,,,,,,,,,,,,,,,,,,,,,,,,,,,,,,,,,,,,,,,,,,,,,,,,,,,,,,,,,,,,,,,,,,,,,,,,,,,,,,,,,,,,,,,,,,,,,,,,,,,,,,,,,,,,,,,,,,,,
0,31,31,68,1,,60ddfb3db6a71ad9ba75e387,62c5561f19b9e62dca3133ef,2022-07-06_11h30.57.438,Colour_Asymmetry_Pilot,2022.1.3,Win32,60.16485169,62c50e9c1127f2cd403a315f,,,,,,,,,,,,,,,,,,,,,,,,,,,,,,,,,,,,,,,,,,,,,,,,,,,,,,,,,,,,,,,,,,,,,,,,,,,,,,,,,,,,,,,,,,,,,,,,,,,,,,,,,,,,,,,,,,,,,,,,,,,,,,,,,,,,,,,,,,,,,,,,,,,,,,,,,,,,,,,,,,,
0,32,32,25,1,,60ddfb3db6a71ad9ba75e387,62c5561f19b9e62dca3133ef,2022-07-06_11h30.57.438,Colour_Asymmetry_Pilot,2022.1.3,Win32,60.16485169,62c50e9c1127f2cd403a315f,,,,,,,,,,,,,,,,,,,,,,,,,,,,,,,,,,,,,,,,,,,,,,,,,,,,,,,,,,,,,,,,,,,,,,,,,,,,,,,,,,,,,,,,,,,,,,,,,,,,,,,,,,,,,,,,,,,,,,,,,,,,,,,,,,,,,,,,,,,,,,,,,,,,,,,,,,,,,,,,,,,
0,33,33,61,1,,60ddfb3db6a71ad9ba75e387,62c5561f19b9e62dca3133ef,2022-07-06_11h30.57.438,Colour_Asymmetry_Pilot,2022.1.3,Win32,60.16485169,62c50e9c1127f2cd403a315f,,,,,,,,,,,,,,,,,,,,,,,,,,,,,,,,,,,,,,,,,,,,,,,,,,,,,,,,,,,,,,,,,,,,,,,,,,,,,,,,,,,,,,,,,,,,,,,,,,,,,,,,,,,,,,,,,,,,,,,,,,,,,,,,,,,,,,,,,,,,,,,,,,,,,,,,,,,,,,,,,,,
0,34,34,21,1,,60ddfb3db6a71ad9ba75e387,62c5561f19b9e62dca3133ef,2022-07-06_11h30.57.438,Colour_Asymmetry_Pilot,2022.1.3,Win32,60.16485169,62c50e9c1127f2cd403a315f,,,,,,,,,,,,,,,,,,,,,,,,,,,,,,,,,,,,,,,,,,,,,,,,,,,,,,,,,,,,,,,,,,,,,,,,,,,,,,,,,,,,,,,,,,,,,,,,,,,,,,,,,,,,,,,,,,,,,,,,,,,,,,,,,,,,,,,,,,,,,,,,,,,,,,,,,,,,,,,,,,,
0,35,35,13,1,,60ddfb3db6a71ad9ba75e387,62c5561f19b9e62dca3133ef,2022-07-06_11h30.57.438,Colour_Asymmetry_Pilot,2022.1.3,Win32,60.16485169,62c50e9c1127f2cd403a315f,,,,,,,,,,,,,,,,,,,,,,,,,,,,,,,,,,,,,,,,,,,,,,,,,,,,,,,,,,,,,,,,,,,,,,,,,,,,,,,,,,,,,,,,,,,,,,,,,,,,,,,,,,,,,,,,,,,,,,,,,,,,,,,,,,,,,,,,,,,,,,,,,,,,,,,,,,,,,,,,,,,
0,36,36,9,1,,60ddfb3db6a71ad9ba75e387,62c5561f19b9e62dca3133ef,2022-07-06_11h30.57.438,Colour_Asymmetry_Pilot,2022.1.3,Win32,60.16485169,62c50e9c1127f2cd403a315f,,,,,,,,,,,,,,,,,,,,,,,,,,,,,,,,,,,,,,,,,,,,,,,,,,,,,,,,,,,,,,,,,,,,,,,,,,,,,,,,,,,,,,,,,,,,,,,,,,,,,,,,,,,,,,,,,,,,,,,,,,,,,,,,,,,,,,,,,,,,,,,,,,,,,,,,,,,,,,,,,,,
0,37,37,69,1,,60ddfb3db6a71ad9ba75e387,62c5561f19b9e62dca3133ef,2022-07-06_11h30.57.438,Colour_Asymmetry_Pilot,2022.1.3,Win32,60.16485169,62c50e9c1127f2cd403a315f,,,,,,,,,,,,,,,,,,,,,,,,,,,,,,,,,,,,,,,,,,,,,,,,,,,,,,,,,,,,,,,,,,,,,,,,,,,,,,,,,,,,,,,,,,,,,,,,,,,,,,,,,,,,,,,,,,,,,,,,,,,,,,,,,,,,,,,,,,,,,,,,,,,,,,,,,,,,,,,,,,,
0,38,38,81,1,,60ddfb3db6a71ad9ba75e387,62c5561f19b9e62dca3133ef,2022-07-06_11h30.57.438,Colour_Asymmetry_Pilot,2022.1.3,Win32,60.16485169,62c50e9c1127f2cd403a315f,,,,,,,,,,,,,,,,,,,,,,,,,,,,,,,,,,,,,,,,,,,,,,,,,,,,,,,,,,,,,,,,,,,,,,,,,,,,,,,,,,,,,,,,,,,,,,,,,,,,,,,,,,,,,,,,,,,,,,,,,,,,,,,,,,,,,,,,,,,,,,,,,,,,,,,,,,,,,,,,,,,
0,39,39,3,1,,60ddfb3db6a71ad9ba75e387,62c5561f19b9e62dca3133ef,2022-07-06_11h30.57.438,Colour_Asymmetry_Pilot,2022.1.3,Win32,60.16485169,62c50e9c1127f2cd403a315f,,,,,,,,,,,,,,,,,,,,,,,,,,,,,,,,,,,,,,,,,,,,,,,,,,,,,,,,,,,,,,,,,,,,,,,,,,,,,,,,,,,,,,,,,,,,,,,,,,,,,,,,,,,,,,,,,,,,,,,,,,,,,,,,,,,,,,,,,,,,,,,,,,,,,,,,,,,,,,,,,,,
0,40,40,76,1,,60ddfb3db6a71ad9ba75e387,62c5561f19b9e62dca3133ef,2022-07-06_11h30.57.438,Colour_Asymmetry_Pilot,2022.1.3,Win32,60.16485169,62c50e9c1127f2cd403a315f,,,,,,,,,,,,,,,,,,,,,,,,,,,,,,,,,,,,,,,,,,,,,,,,,,,,,,,,,,,,,,,,,,,,,,,,,,,,,,,,,,,,,,,,,,,,,,,,,,,,,,,,,,,,,,,,,,,,,,,,,,,,,,,,,,,,,,,,,,,,,,,,,,,,,,,,,,,,,,,,,,,
0,41,41,84,1,,60ddfb3db6a71ad9ba75e387,62c5561f19b9e62dca3133ef,2022-07-06_11h30.57.438,Colour_Asymmetry_Pilot,2022.1.3,Win32,60.16485169,62c50e9c1127f2cd403a315f,,,,,,,,,,,,,,,,,,,,,,,,,,,,,,,,,,,,,,,,,,,,,,,,,,,,,,,,,,,,,,,,,,,,,,,,,,,,,,,,,,,,,,,,,,,,,,,,,,,,,,,,,,,,,,,,,,,,,,,,,,,,,,,,,,,,,,,,,,,,,,,,,,,,,,,,,,,,,,,,,,,
0,42,42,70,1,,60ddfb3db6a71ad9ba75e387,62c5561f19b9e62dca3133ef,2022-07-06_11h30.57.438,Colour_Asymmetry_Pilot,2022.1.3,Win32,60.16485169,62c50e9c1127f2cd403a315f,,,,,,,,,,,,,,,,,,,,,,,,,,,,,,,,,,,,,,,,,,,,,,,,,,,,,,,,,,,,,,,,,,,,,,,,,,,,,,,,,,,,,,,,,,,,,,,,,,,,,,,,,,,,,,,,,,,,,,,,,,,,,,,,,,,,,,,,,,,,,,,,,,,,,,,,,,,,,,,,,,,
0,43,43,90,1,,60ddfb3db6a71ad9ba75e387,62c5561f19b9e62dca3133ef,2022-07-06_11h30.57.438,Colour_Asymmetry_Pilot,2022.1.3,Win32,60.16485169,62c50e9c1127f2cd403a315f,,,,,,,,,,,,,,,,,,,,,,,,,,,,,,,,,,,,,,,,,,,,,,,,,,,,,,,,,,,,,,,,,,,,,,,,,,,,,,,,,,,,,,,,,,,,,,,,,,,,,,,,,,,,,,,,,,,,,,,,,,,,,,,,,,,,,,,,,,,,,,,,,,,,,,,,,,,,,,,,,,,
0,44,44,2,1,,60ddfb3db6a71ad9ba75e387,62c5561f19b9e62dca3133ef,2022-07-06_11h30.57.438,Colour_Asymmetry_Pilot,2022.1.3,Win32,60.16485169,62c50e9c1127f2cd403a315f,,,,,,,,,,,,,,,,,,,,,,,,,,,,,,,,,,,,,,,,,,,,,,,,,,,,,,,,,,,,,,,,,,,,,,,,,,,,,,,,,,,,,,,,,,,,,,,,,,,,,,,,,,,,,,,,,,,,,,,,,,,,,,,,,,,,,,,,,,,,,,,,,,,,,,,,,,,,,,,,,,,
0,45,45,37,1,,60ddfb3db6a71ad9ba75e387,62c5561f19b9e62dca3133ef,2022-07-06_11h30.57.438,Colour_Asymmetry_Pilot,2022.1.3,Win32,60.16485169,62c50e9c1127f2cd403a315f,,,,,,,,,,,,,,,,,,,,,,,,,,,,,,,,,,,,,,,,,,,,,,,,,,,,,,,,,,,,,,,,,,,,,,,,,,,,,,,,,,,,,,,,,,,,,,,,,,,,,,,,,,,,,,,,,,,,,,,,,,,,,,,,,,,,,,,,,,,,,,,,,,,,,,,,,,,,,,,,,,,
0,46,46,87,1,,60ddfb3db6a71ad9ba75e387,62c5561f19b9e62dca3133ef,2022-07-06_11h30.57.438,Colour_Asymmetry_Pilot,2022.1.3,Win32,60.16485169,62c50e9c1127f2cd403a315f,,,,,,,,,,,,,,,,,,,,,,,,,,,,,,,,,,,,,,,,,,,,,,,,,,,,,,,,,,,,,,,,,,,,,,,,,,,,,,,,,,,,,,,,,,,,,,,,,,,,,,,,,,,,,,,,,,,,,,,,,,,,,,,,,,,,,,,,,,,,,,,,,,,,,,,,,,,,,,,,,,,
0,47,47,79,1,,60ddfb3db6a71ad9ba75e387,62c5561f19b9e62dca3133ef,2022-07-06_11h30.57.438,Colour_Asymmetry_Pilot,2022.1.3,Win32,60.16485169,62c50e9c1127f2cd403a315f,,,,,,,,,,,,,,,,,,,,,,,,,,,,,,,,,,,,,,,,,,,,,,,,,,,,,,,,,,,,,,,,,,,,,,,,,,,,,,,,,,,,,,,,,,,,,,,,,,,,,,,,,,,,,,,,,,,,,,,,,,,,,,,,,,,,,,,,,,,,,,,,,,,,,,,,,,,,,,,,,,,
0,48,48,48,1,,60ddfb3db6a71ad9ba75e387,62c5561f19b9e62dca3133ef,2022-07-06_11h30.57.438,Colour_Asymmetry_Pilot,2022.1.3,Win32,60.16485169,62c50e9c1127f2cd403a315f,,,,,,,,,,,,,,,,,,,,,,,,,,,,,,,,,,,,,,,,,,,,,,,,,,,,,,,,,,,,,,,,,,,,,,,,,,,,,,,,,,,,,,,,,,,,,,,,,,,,,,,,,,,,,,,,,,,,,,,,,,,,,,,,,,,,,,,,,,,,,,,,,,,,,,,,,,,,,,,,,,,
0,49,49,0,1,,60ddfb3db6a71ad9ba75e387,62c5561f19b9e62dca3133ef,2022-07-06_11h30.57.438,Colour_Asymmetry_Pilot,2022.1.3,Win32,60.16485169,62c50e9c1127f2cd403a315f,,,,,,,,,,,,,,,,,,,,,,,,,,,,,,,,,,,,,,,,,,,,,,,,,,,,,,,,,,,,,,,,,,,,,,,,,,,,,,,,,,,,,,,,,,,,,,,,,,,,,,,,,,,,,,,,,,,,,,,,,,,,,,,,,,,,,,,,,,,,,,,,,,,,,,,,,,,,,,,,,,,
0,50,50,63,1,,60ddfb3db6a71ad9ba75e387,62c5561f19b9e62dca3133ef,2022-07-06_11h30.57.438,Colour_Asymmetry_Pilot,2022.1.3,Win32,60.16485169,62c50e9c1127f2cd403a315f,,,,,,,,,,,,,,,,,,,,,,,,,,,,,,,,,,,,,,,,,,,,,,,,,,,,,,,,,,,,,,,,,,,,,,,,,,,,,,,,,,,,,,,,,,,,,,,,,,,,,,,,,,,,,,,,,,,,,,,,,,,,,,,,,,,,,,,,,,,,,,,,,,,,,,,,,,,,,,,,,,,
0,51,51,55,1,,60ddfb3db6a71ad9ba75e387,62c5561f19b9e62dca3133ef,2022-07-06_11h30.57.438,Colour_Asymmetry_Pilot,2022.1.3,Win32,60.16485169,62c50e9c1127f2cd403a315f,,,,,,,,,,,,,,,,,,,,,,,,,,,,,,,,,,,,,,,,,,,,,,,,,,,,,,,,,,,,,,,,,,,,,,,,,,,,,,,,,,,,,,,,,,,,,,,,,,,,,,,,,,,,,,,,,,,,,,,,,,,,,,,,,,,,,,,,,,,,,,,,,,,,,,,,,,,,,,,,,,,
0,52,52,45,1,,60ddfb3db6a71ad9ba75e387,62c5561f19b9e62dca3133ef,2022-07-06_11h30.57.438,Colour_Asymmetry_Pilot,2022.1.3,Win32,60.16485169,62c50e9c1127f2cd403a315f,,,,,,,,,,,,,,,,,,,,,,,,,,,,,,,,,,,,,,,,,,,,,,,,,,,,,,,,,,,,,,,,,,,,,,,,,,,,,,,,,,,,,,,,,,,,,,,,,,,,,,,,,,,,,,,,,,,,,,,,,,,,,,,,,,,,,,,,,,,,,,,,,,,,,,,,,,,,,,,,,,,
0,53,53,7,1,,60ddfb3db6a71ad9ba75e387,62c5561f19b9e62dca3133ef,2022-07-06_11h30.57.438,Colour_Asymmetry_Pilot,2022.1.3,Win32,60.16485169,62c50e9c1127f2cd403a315f,,,,,,,,,,,,,,,,,,,,,,,,,,,,,,,,,,,,,,,,,,,,,,,,,,,,,,,,,,,,,,,,,,,,,,,,,,,,,,,,,,,,,,,,,,,,,,,,,,,,,,,,,,,,,,,,,,,,,,,,,,,,,,,,,,,,,,,,,,,,,,,,,,,,,,,,,,,,,,,,,,,
0,54,54,46,1,,60ddfb3db6a71ad9ba75e387,62c5561f19b9e62dca3133ef,2022-07-06_11h30.57.438,Colour_Asymmetry_Pilot,2022.1.3,Win32,60.16485169,62c50e9c1127f2cd403a315f,,,,,,,,,,,,,,,,,,,,,,,,,,,,,,,,,,,,,,,,,,,,,,,,,,,,,,,,,,,,,,,,,,,,,,,,,,,,,,,,,,,,,,,,,,,,,,,,,,,,,,,,,,,,,,,,,,,,,,,,,,,,,,,,,,,,,,,,,,,,,,,,,,,,,,,,,,,,,,,,,,,
0,55,55,62,1,,60ddfb3db6a71ad9ba75e387,62c5561f19b9e62dca3133ef,2022-07-06_11h30.57.438,Colour_Asymmetry_Pilot,2022.1.3,Win32,60.16485169,62c50e9c1127f2cd403a315f,,,,,,,,,,,,,,,,,,,,,,,,,,,,,,,,,,,,,,,,,,,,,,,,,,,,,,,,,,,,,,,,,,,,,,,,,,,,,,,,,,,,,,,,,,,,,,,,,,,,,,,,,,,,,,,,,,,,,,,,,,,,,,,,,,,,,,,,,,,,,,,,,,,,,,,,,,,,,,,,,,,
0,56,56,64,1,,60ddfb3db6a71ad9ba75e387,62c5561f19b9e62dca3133ef,2022-07-06_11h30.57.438,Colour_Asymmetry_Pilot,2022.1.3,Win32,60.16485169,62c50e9c1127f2cd403a315f,,,,,,,,,,,,,,,,,,,,,,,,,,,,,,,,,,,,,,,,,,,,,,,,,,,,,,,,,,,,,,,,,,,,,,,,,,,,,,,,,,,,,,,,,,,,,,,,,,,,,,,,,,,,,,,,,,,,,,,,,,,,,,,,,,,,,,,,,,,,,,,,,,,,,,,,,,,,,,,,,,,
0,57,57,38,1,,60ddfb3db6a71ad9ba75e387,62c5561f19b9e62dca3133ef,2022-07-06_11h30.57.438,Colour_Asymmetry_Pilot,2022.1.3,Win32,60.16485169,62c50e9c1127f2cd403a315f,,,,,,,,,,,,,,,,,,,,,,,,,,,,,,,,,,,,,,,,,,,,,,,,,,,,,,,,,,,,,,,,,,,,,,,,,,,,,,,,,,,,,,,,,,,,,,,,,,,,,,,,,,,,,,,,,,,,,,,,,,,,,,,,,,,,,,,,,,,,,,,,,,,,,,,,,,,,,,,,,,,
0,58,58,52,1,,60ddfb3db6a71ad9ba75e387,62c5561f19b9e62dca3133ef,2022-07-06_11h30.57.438,Colour_Asymmetry_Pilot,2022.1.3,Win32,60.16485169,62c50e9c1127f2cd403a315f,,,,,,,,,,,,,,,,,,,,,,,,,,,,,,,,,,,,,,,,,,,,,,,,,,,,,,,,,,,,,,,,,,,,,,,,,,,,,,,,,,,,,,,,,,,,,,,,,,,,,,,,,,,,,,,,,,,,,,,,,,,,,,,,,,,,,,,,,,,,,,,,,,,,,,,,,,,,,,,,,,,
0,59,59,36,1,,60ddfb3db6a71ad9ba75e387,62c5561f19b9e62dca3133ef,2022-07-06_11h30.57.438,Colour_Asymmetry_Pilot,2022.1.3,Win32,60.16485169,62c50e9c1127f2cd403a315f,,,,,,,,,,,,,,,,,,,,,,,,,,,,,,,,,,,,,,,,,,,,,,,,,,,,,,,,,,,,,,,,,,,,,,,,,,,,,,,,,,,,,,,,,,,,,,,,,,,,,,,,,,,,,,,,,,,,,,,,,,,,,,,,,,,,,,,,,,,,,,,,,,,,,,,,,,,,,,,,,,,
0,60,60,77,1,,60ddfb3db6a71ad9ba75e387,62c5561f19b9e62dca3133ef,2022-07-06_11h30.57.438,Colour_Asymmetry_Pilot,2022.1.3,Win32,60.16485169,62c50e9c1127f2cd403a315f,,,,,,,,,,,,,,,,,,,,,,,,,,,,,,,,,,,,,,,,,,,,,,,,,,,,,,,,,,,,,,,,,,,,,,,,,,,,,,,,,,,,,,,,,,,,,,,,,,,,,,,,,,,,,,,,,,,,,,,,,,,,,,,,,,,,,,,,,,,,,,,,,,,,,,,,,,,,,,,,,,,
0,61,61,31,1,,60ddfb3db6a71ad9ba75e387,62c5561f19b9e62dca3133ef,2022-07-06_11h30.57.438,Colour_Asymmetry_Pilot,2022.1.3,Win32,60.16485169,62c50e9c1127f2cd403a315f,,,,,,,,,,,,,,,,,,,,,,,,,,,,,,,,,,,,,,,,,,,,,,,,,,,,,,,,,,,,,,,,,,,,,,,,,,,,,,,,,,,,,,,,,,,,,,,,,,,,,,,,,,,,,,,,,,,,,,,,,,,,,,,,,,,,,,,,,,,,,,,,,,,,,,,,,,,,,,,,,,,
0,62,62,85,1,,60ddfb3db6a71ad9ba75e387,62c5561f19b9e62dca3133ef,2022-07-06_11h30.57.438,Colour_Asymmetry_Pilot,2022.1.3,Win32,60.16485169,62c50e9c1127f2cd403a315f,,,,,,,,,,,,,,,,,,,,,,,,,,,,,,,,,,,,,,,,,,,,,,,,,,,,,,,,,,,,,,,,,,,,,,,,,,,,,,,,,,,,,,,,,,,,,,,,,,,,,,,,,,,,,,,,,,,,,,,,,,,,,,,,,,,,,,,,,,,,,,,,,,,,,,,,,,,,,,,,,,,
0,63,63,41,1,,60ddfb3db6a71ad9ba75e387,62c5561f19b9e62dca3133ef,2022-07-06_11h30.57.438,Colour_Asymmetry_Pilot,2022.1.3,Win32,60.16485169,62c50e9c1127f2cd403a315f,,,,,,,,,,,,,,,,,,,,,,,,,,,,,,,,,,,,,,,,,,,,,,,,,,,,,,,,,,,,,,,,,,,,,,,,,,,,,,,,,,,,,,,,,,,,,,,,,,,,,,,,,,,,,,,,,,,,,,,,,,,,,,,,,,,,,,,,,,,,,,,,,,,,,,,,,,,,,,,,,,,
0,64,64,51,1,,60ddfb3db6a71ad9ba75e387,62c5561f19b9e62dca3133ef,2022-07-06_11h30.57.438,Colour_Asymmetry_Pilot,2022.1.3,Win32,60.16485169,62c50e9c1127f2cd403a315f,,,,,,,,,,,,,,,,,,,,,,,,,,,,,,,,,,,,,,,,,,,,,,,,,,,,,,,,,,,,,,,,,,,,,,,,,,,,,,,,,,,,,,,,,,,,,,,,,,,,,,,,,,,,,,,,,,,,,,,,,,,,,,,,,,,,,,,,,,,,,,,,,,,,,,,,,,,,,,,,,,,
0,65,65,80,1,,60ddfb3db6a71ad9ba75e387,62c5561f19b9e62dca3133ef,2022-07-06_11h30.57.438,Colour_Asymmetry_Pilot,2022.1.3,Win32,60.16485169,62c50e9c1127f2cd403a315f,,,,,,,,,,,,,,,,,,,,,,,,,,,,,,,,,,,,,,,,,,,,,,,,,,,,,,,,,,,,,,,,,,,,,,,,,,,,,,,,,,,,,,,,,,,,,,,,,,,,,,,,,,,,,,,,,,,,,,,,,,,,,,,,,,,,,,,,,,,,,,,,,,,,,,,,,,,,,,,,,,,
0,66,66,86,1,,60ddfb3db6a71ad9ba75e387,62c5561f19b9e62dca3133ef,2022-07-06_11h30.57.438,Colour_Asymmetry_Pilot,2022.1.3,Win32,60.16485169,62c50e9c1127f2cd403a315f,,,,,,,,,,,,,,,,,,,,,,,,,,,,,,,,,,,,,,,,,,,,,,,,,,,,,,,,,,,,,,,,,,,,,,,,,,,,,,,,,,,,,,,,,,,,,,,,,,,,,,,,,,,,,,,,,,,,,,,,,,,,,,,,,,,,,,,,,,,,,,,,,,,,,,,,,,,,,,,,,,,
0,67,67,19,1,,60ddfb3db6a71ad9ba75e387,62c5561f19b9e62dca3133ef,2022-07-06_11h30.57.438,Colour_Asymmetry_Pilot,2022.1.3,Win32,60.16485169,62c50e9c1127f2cd403a315f,,,,,,,,,,,,,,,,,,,,,,,,,,,,,,,,,,,,,,,,,,,,,,,,,,,,,,,,,,,,,,,,,,,,,,,,,,,,,,,,,,,,,,,,,,,,,,,,,,,,,,,,,,,,,,,,,,,,,,,,,,,,,,,,,,,,,,,,,,,,,,,,,,,,,,,,,,,,,,,,,,,
0,68,68,58,1,,60ddfb3db6a71ad9ba75e387,62c5561f19b9e62dca3133ef,2022-07-06_11h30.57.438,Colour_Asymmetry_Pilot,2022.1.3,Win32,60.16485169,62c50e9c1127f2cd403a315f,,,,,,,,,,,,,,,,,,,,,,,,,,,,,,,,,,,,,,,,,,,,,,,,,,,,,,,,,,,,,,,,,,,,,,,,,,,,,,,,,,,,,,,,,,,,,,,,,,,,,,,,,,,,,,,,,,,,,,,,,,,,,,,,,,,,,,,,,,,,,,,,,,,,,,,,,,,,,,,,,,,
0,69,69,1,1,,60ddfb3db6a71ad9ba75e387,62c5561f19b9e62dca3133ef,2022-07-06_11h30.57.438,Colour_Asymmetry_Pilot,2022.1.3,Win32,60.16485169,62c50e9c1127f2cd403a315f,,,,,,,,,,,,,,,,,,,,,,,,,,,,,,,,,,,,,,,,,,,,,,,,,,,,,,,,,,,,,,,,,,,,,,,,,,,,,,,,,,,,,,,,,,,,,,,,,,,,,,,,,,,,,,,,,,,,,,,,,,,,,,,,,,,,,,,,,,,,,,,,,,,,,,,,,,,,,,,,,,,
0,70,70,17,1,,60ddfb3db6a71ad9ba75e387,62c5561f19b9e62dca3133ef,2022-07-06_11h30.57.438,Colour_Asymmetry_Pilot,2022.1.3,Win32,60.16485169,62c50e9c1127f2cd403a315f,,,,,,,,,,,,,,,,,,,,,,,,,,,,,,,,,,,,,,,,,,,,,,,,,,,,,,,,,,,,,,,,,,,,,,,,,,,,,,,,,,,,,,,,,,,,,,,,,,,,,,,,,,,,,,,,,,,,,,,,,,,,,,,,,,,,,,,,,,,,,,,,,,,,,,,,,,,,,,,,,,,
0,71,71,54,1,,60ddfb3db6a71ad9ba75e387,62c5561f19b9e62dca3133ef,2022-07-06_11h30.57.438,Colour_Asymmetry_Pilot,2022.1.3,Win32,60.16485169,62c50e9c1127f2cd403a315f,,,,,,,,,,,,,,,,,,,,,,,,,,,,,,,,,,,,,,,,,,,,,,,,,,,,,,,,,,,,,,,,,,,,,,,,,,,,,,,,,,,,,,,,,,,,,,,,,,,,,,,,,,,,,,,,,,,,,,,,,,,,,,,,,,,,,,,,,,,,,,,,,,,,,,,,,,,,,,,,,,,
0,72,72,60,1,,60ddfb3db6a71ad9ba75e387,62c5561f19b9e62dca3133ef,2022-07-06_11h30.57.438,Colour_Asymmetry_Pilot,2022.1.3,Win32,60.16485169,62c50e9c1127f2cd403a315f,,,,,,,,,,,,,,,,,,,,,,,,,,,,,,,,,,,,,,,,,,,,,,,,,,,,,,,,,,,,,,,,,,,,,,,,,,,,,,,,,,,,,,,,,,,,,,,,,,,,,,,,,,,,,,,,,,,,,,,,,,,,,,,,,,,,,,,,,,,,,,,,,,,,,,,,,,,,,,,,,,,
0,73,73,8,1,,60ddfb3db6a71ad9ba75e387,62c5561f19b9e62dca3133ef,2022-07-06_11h30.57.438,Colour_Asymmetry_Pilot,2022.1.3,Win32,60.16485169,62c50e9c1127f2cd403a315f,,,,,,,,,,,,,,,,,,,,,,,,,,,,,,,,,,,,,,,,,,,,,,,,,,,,,,,,,,,,,,,,,,,,,,,,,,,,,,,,,,,,,,,,,,,,,,,,,,,,,,,,,,,,,,,,,,,,,,,,,,,,,,,,,,,,,,,,,,,,,,,,,,,,,,,,,,,,,,,,,,,
0,74,74,6,1,,60ddfb3db6a71ad9ba75e387,62c5561f19b9e62dca3133ef,2022-07-06_11h30.57.438,Colour_Asymmetry_Pilot,2022.1.3,Win32,60.16485169,62c50e9c1127f2cd403a315f,,,,,,,,,,,,,,,,,,,,,,,,,,,,,,,,,,,,,,,,,,,,,,,,,,,,,,,,,,,,,,,,,,,,,,,,,,,,,,,,,,,,,,,,,,,,,,,,,,,,,,,,,,,,,,,,,,,,,,,,,,,,,,,,,,,,,,,,,,,,,,,,,,,,,,,,,,,,,,,,,,,
0,75,75,71,1,,60ddfb3db6a71ad9ba75e387,62c5561f19b9e62dca3133ef,2022-07-06_11h30.57.438,Colour_Asymmetry_Pilot,2022.1.3,Win32,60.16485169,62c50e9c1127f2cd403a315f,,,,,,,,,,,,,,,,,,,,,,,,,,,,,,,,,,,,,,,,,,,,,,,,,,,,,,,,,,,,,,,,,,,,,,,,,,,,,,,,,,,,,,,,,,,,,,,,,,,,,,,,,,,,,,,,,,,,,,,,,,,,,,,,,,,,,,,,,,,,,,,,,,,,,,,,,,,,,,,,,,,
0,76,76,59,1,,60ddfb3db6a71ad9ba75e387,62c5561f19b9e62dca3133ef,2022-07-06_11h30.57.438,Colour_Asymmetry_Pilot,2022.1.3,Win32,60.16485169,62c50e9c1127f2cd403a315f,,,,,,,,,,,,,,,,,,,,,,,,,,,,,,,,,,,,,,,,,,,,,,,,,,,,,,,,,,,,,,,,,,,,,,,,,,,,,,,,,,,,,,,,,,,,,,,,,,,,,,,,,,,,,,,,,,,,,,,,,,,,,,,,,,,,,,,,,,,,,,,,,,,,,,,,,,,,,,,,,,,
0,77,77,15,1,,60ddfb3db6a71ad9ba75e387,62c5561f19b9e62dca3133ef,2022-07-06_11h30.57.438,Colour_Asymmetry_Pilot,2022.1.3,Win32,60.16485169,62c50e9c1127f2cd403a315f,,,,,,,,,,,,,,,,,,,,,,,,,,,,,,,,,,,,,,,,,,,,,,,,,,,,,,,,,,,,,,,,,,,,,,,,,,,,,,,,,,,,,,,,,,,,,,,,,,,,,,,,,,,,,,,,,,,,,,,,,,,,,,,,,,,,,,,,,,,,,,,,,,,,,,,,,,,,,,,,,,,
0,78,78,43,1,,60ddfb3db6a71ad9ba75e387,62c5561f19b9e62dca3133ef,2022-07-06_11h30.57.438,Colour_Asymmetry_Pilot,2022.1.3,Win32,60.16485169,62c50e9c1127f2cd403a315f,,,,,,,,,,,,,,,,,,,,,,,,,,,,,,,,,,,,,,,,,,,,,,,,,,,,,,,,,,,,,,,,,,,,,,,,,,,,,,,,,,,,,,,,,,,,,,,,,,,,,,,,,,,,,,,,,,,,,,,,,,,,,,,,,,,,,,,,,,,,,,,,,,,,,,,,,,,,,,,,,,,
0,79,79,82,1,,60ddfb3db6a71ad9ba75e387,62c5561f19b9e62dca3133ef,2022-07-06_11h30.57.438,Colour_Asymmetry_Pilot,2022.1.3,Win32,60.16485169,62c50e9c1127f2cd403a315f,,,,,,,,,,,,,,,,,,,,,,,,,,,,,,,,,,,,,,,,,,,,,,,,,,,,,,,,,,,,,,,,,,,,,,,,,,,,,,,,,,,,,,,,,,,,,,,,,,,,,,,,,,,,,,,,,,,,,,,,,,,,,,,,,,,,,,,,,,,,,,,,,,,,,,,,,,,,,,,,,,,
0,80,80,26,1,,60ddfb3db6a71ad9ba75e387,62c5561f19b9e62dca3133ef,2022-07-06_11h30.57.438,Colour_Asymmetry_Pilot,2022.1.3,Win32,60.16485169,62c50e9c1127f2cd403a315f,,,,,,,,,,,,,,,,,,,,,,,,,,,,,,,,,,,,,,,,,,,,,,,,,,,,,,,,,,,,,,,,,,,,,,,,,,,,,,,,,,,,,,,,,,,,,,,,,,,,,,,,,,,,,,,,,,,,,,,,,,,,,,,,,,,,,,,,,,,,,,,,,,,,,,,,,,,,,,,,,,,
0,81,81,91,1,,60ddfb3db6a71ad9ba75e387,62c5561f19b9e62dca3133ef,2022-07-06_11h30.57.438,Colour_Asymmetry_Pilot,2022.1.3,Win32,60.16485169,62c50e9c1127f2cd403a315f,,,,,,,,,,,,,,,,,,,,,,,,,,,,,,,,,,,,,,,,,,,,,,,,,,,,,,,,,,,,,,,,,,,,,,,,,,,,,,,,,,,,,,,,,,,,,,,,,,,,,,,,,,,,,,,,,,,,,,,,,,,,,,,,,,,,,,,,,,,,,,,,,,,,,,,,,,,,,,,,,,,
0,82,82,23,1,,60ddfb3db6a71ad9ba75e387,62c5561f19b9e62dca3133ef,2022-07-06_11h30.57.438,Colour_Asymmetry_Pilot,2022.1.3,Win32,60.16485169,62c50e9c1127f2cd403a315f,,,,,,,,,,,,,,,,,,,,,,,,,,,,,,,,,,,,,,,,,,,,,,,,,,,,,,,,,,,,,,,,,,,,,,,,,,,,,,,,,,,,,,,,,,,,,,,,,,,,,,,,,,,,,,,,,,,,,,,,,,,,,,,,,,,,,,,,,,,,,,,,,,,,,,,,,,,,,,,,,,,
0,83,83,66,1,,60ddfb3db6a71ad9ba75e387,62c5561f19b9e62dca3133ef,2022-07-06_11h30.57.438,Colour_Asymmetry_Pilot,2022.1.3,Win32,60.16485169,62c50e9c1127f2cd403a315f,,,,,,,,,,,,,,,,,,,,,,,,,,,,,,,,,,,,,,,,,,,,,,,,,,,,,,,,,,,,,,,,,,,,,,,,,,,,,,,,,,,,,,,,,,,,,,,,,,,,,,,,,,,,,,,,,,,,,,,,,,,,,,,,,,,,,,,,,,,,,,,,,,,,,,,,,,,,,,,,,,,
0,84,84,73,1,,60ddfb3db6a71ad9ba75e387,62c5561f19b9e62dca3133ef,2022-07-06_11h30.57.438,Colour_Asymmetry_Pilot,2022.1.3,Win32,60.16485169,62c50e9c1127f2cd403a315f,,,,,,,,,,,,,,,,,,,,,,,,,,,,,,,,,,,,,,,,,,,,,,,,,,,,,,,,,,,,,,,,,,,,,,,,,,,,,,,,,,,,,,,,,,,,,,,,,,,,,,,,,,,,,,,,,,,,,,,,,,,,,,,,,,,,,,,,,,,,,,,,,,,,,,,,,,,,,,,,,,,
0,85,85,44,1,,60ddfb3db6a71ad9ba75e387,62c5561f19b9e62dca3133ef,2022-07-06_11h30.57.438,Colour_Asymmetry_Pilot,2022.1.3,Win32,60.16485169,62c50e9c1127f2cd403a315f,,,,,,,,,,,,,,,,,,,,,,,,,,,,,,,,,,,,,,,,,,,,,,,,,,,,,,,,,,,,,,,,,,,,,,,,,,,,,,,,,,,,,,,,,,,,,,,,,,,,,,,,,,,,,,,,,,,,,,,,,,,,,,,,,,,,,,,,,,,,,,,,,,,,,,,,,,,,,,,,,,,
0,86,86,20,1,,60ddfb3db6a71ad9ba75e387,62c5561f19b9e62dca3133ef,2022-07-06_11h30.57.438,Colour_Asymmetry_Pilot,2022.1.3,Win32,60.16485169,62c50e9c1127f2cd403a315f,,,,,,,,,,,,,,,,,,,,,,,,,,,,,,,,,,,,,,,,,,,,,,,,,,,,,,,,,,,,,,,,,,,,,,,,,,,,,,,,,,,,,,,,,,,,,,,,,,,,,,,,,,,,,,,,,,,,,,,,,,,,,,,,,,,,,,,,,,,,,,,,,,,,,,,,,,,,,,,,,,,
0,87,87,35,1,,60ddfb3db6a71ad9ba75e387,62c5561f19b9e62dca3133ef,2022-07-06_11h30.57.438,Colour_Asymmetry_Pilot,2022.1.3,Win32,60.16485169,62c50e9c1127f2cd403a315f,,,,,,,,,,,,,,,,,,,,,,,,,,,,,,,,,,,,,,,,,,,,,,,,,,,,,,,,,,,,,,,,,,,,,,,,,,,,,,,,,,,,,,,,,,,,,,,,,,,,,,,,,,,,,,,,,,,,,,,,,,,,,,,,,,,,,,,,,,,,,,,,,,,,,,,,,,,,,,,,,,,
0,88,88,40,1,,60ddfb3db6a71ad9ba75e387,62c5561f19b9e62dca3133ef,2022-07-06_11h30.57.438,Colour_Asymmetry_Pilot,2022.1.3,Win32,60.16485169,62c50e9c1127f2cd403a315f,,,,,,,,,,,,,,,,,,,,,,,,,,,,,,,,,,,,,,,,,,,,,,,,,,,,,,,,,,,,,,,,,,,,,,,,,,,,,,,,,,,,,,,,,,,,,,,,,,,,,,,,,,,,,,,,,,,,,,,,,,,,,,,,,,,,,,,,,,,,,,,,,,,,,,,,,,,,,,,,,,,
0,89,89,83,1,,60ddfb3db6a71ad9ba75e387,62c5561f19b9e62dca3133ef,2022-07-06_11h30.57.438,Colour_Asymmetry_Pilot,2022.1.3,Win32,60.16485169,62c50e9c1127f2cd403a315f,,,,,,,,,,,,,,,,,,,,,,,,,,,,,,,,,,,,,,,,,,,,,,,,,,,,,,,,,,,,,,,,,,,,,,,,,,,,,,,,,,,,,,,,,,,,,,,,,,,,,,,,,,,,,,,,,,,,,,,,,,,,,,,,,,,,,,,,,,,,,,,,,,,,,,,,,,,,,,,,,,,
0,90,90,34,1,,60ddfb3db6a71ad9ba75e387,62c5561f19b9e62dca3133ef,2022-07-06_11h30.57.438,Colour_Asymmetry_Pilot,2022.1.3,Win32,60.16485169,62c50e9c1127f2cd403a315f,,,,,,,,,,,,,,,,,,,,,,,,,,,,,,,,,,,,,,,,,,,,,,,,,,,,,,,,,,,,,,,,,,,,,,,,,,,,,,,,,,,,,,,,,,,,,,,,,,,,,,,,,,,,,,,,,,,,,,,,,,,,,,,,,,,,,,,,,,,,,,,,,,,,,,,,,,,,,,,,,,,
0,91,91,65,1,,60ddfb3db6a71ad9ba75e387,62c5561f19b9e62dca3133ef,2022-07-06_11h30.57.438,Colour_Asymmetry_Pilot,2022.1.3,Win32,60.16485169,62c50e9c1127f2cd403a315f,,,,,,,,,,,,,,,,,,,,,,,,,,,,,,,,,,,,,,,,,,,,,,,,,,,,,,,,,,,,,,,,,,,,,,,,,,,,,,,,,,,,,,,,,,,,,,,,,,,,,,,,,,,,,,,,,,,,,,,,,,,,,,,,,,,,,,,,,,,,,,,,,,,,,,,,,,,,,,,,,,,
0,92,92,33,1,,60ddfb3db6a71ad9ba75e387,62c5561f19b9e62dca3133ef,2022-07-06_11h30.57.438,Colour_Asymmetry_Pilot,2022.1.3,Win32,60.16485169,62c50e9c1127f2cd403a315f,,,,,,,,,,,,,,,,,,,,,,,,,,,,,,,,,,,,,,,,,,,,,,,,,,,,,,,,,,,,,,,,,,,,,,,,,,,,,,,,,,,,,,,,,,,,,,,,,,,,,,,,,,,,,,,,,,,,,,,,,,,,,,,,,,,,,,,,,,,,,,,,,,,,,,,,,,,,,,,,,,,
,,,,,,60ddfb3db6a71ad9ba75e387,62c5561f19b9e62dca3133ef,2022-07-06_11h30.57.438,Colour_Asymmetry_Pilot,2022.1.3,Win32,60.16485169,62c50e9c1127f2cd403a315f,0,0,0,2,1,twoone,,,,,,,,,,,,,,,,,,,,,,,,,,,,,,,,,,,,,,,,,,,,,,,,,,,,,,,,,,,,,,,,,,,,,,,,,,,,,,,,,,,,,,,,,,,,,,,,,,,,,,,,,,,,,,,,,,,,,,,,,,,,,,,,,,,,,,,,,,,,,,,,,,,,,,,,,,,,,
,,,,,,60ddfb3db6a71ad9ba75e387,62c5561f19b9e62dca3133ef,2022-07-06_11h30.57.438,Colour_Asymmetry_Pilot,2022.1.3,Win32,60.16485169,62c50e9c1127f2cd403a315f,0,1,1,61,1,threefour,,,,,,,,,,,,,,,,,,,,,,,,,,,,,,,,,,,,,,,,,,,,,,,,,,,,,,,,,,,,,,,,,,,,,,,,,,,,,,,,,,,,,,,,,,,,,,,,,,,,,,,,,,,,,,,,,,,,,,,,,,,,,,,,,,,,,,,,,,,,,,,,,,,,,,,,,,,,,
,,,,,,60ddfb3db6a71ad9ba75e387,62c5561f19b9e62dca3133ef,2022-07-06_11h30.57.438,Colour_Asymmetry_Pilot,2022.1.3,Win32,60.16485169,62c50e9c1127f2cd403a315f,0,2,2,86,1,fourtwo,,,,,,,,,,,,,,,,,,,,,,,,,,,,,,,,,,,,,,,,,,,,,,,,,,,,,,,,,,,,,,,,,,,,,,,,,,,,,,,,,,,,,,,,,,,,,,,,,,,,,,,,,,,,,,,,,,,,,,,,,,,,,,,,,,,,,,,,,,,,,,,,,,,,,,,,,,,,,
,,,,,,60ddfb3db6a71ad9ba75e387,62c5561f19b9e62dca3133ef,2022-07-06_11h30.57.438,Colour_Asymmetry_Pilot,2022.1.3,Win32,60.16485169,62c50e9c1127f2cd403a315f,0,3,3,99,1,twofour,,,,,,,,,,,,,,,,,,,,,,,,,,,,,,,,,,,,,,,,,,,,,,,,,,,,,,,,,,,,,,,,,,,,,,,,,,,,,,,,,,,,,,,,,,,,,,,,,,,,,,,,,,,,,,,,,,,,,,,,,,,,,,,,,,,,,,,,,,,,,,,,,,,,,,,,,,,,,
,,,,,,60ddfb3db6a71ad9ba75e387,62c5561f19b9e62dca3133ef,2022-07-06_11h30.57.438,Colour_Asymmetry_Pilot,2022.1.3,Win32,60.16485169,62c50e9c1127f2cd403a315f,0,4,4,66,1,twoone,,,,,,,,,,,,,,,,,,,,,,,,,,,,,,,,,,,,,,,,,,,,,,,,,,,,,,,,,,,,,,,,,,,,,,,,,,,,,,,,,,,,,,,,,,,,,,,,,,,,,,,,,,,,,,,,,,,,,,,,,,,,,,,,,,,,,,,,,,,,,,,,,,,,,,,,,,,,,
,,,,,,60ddfb3db6a71ad9ba75e387,62c5561f19b9e62dca3133ef,2022-07-06_11h30.57.438,Colour_Asymmetry_Pilot,2022.1.3,Win32,60.16485169,62c50e9c1127f2cd403a315f,0,5,5,94,1,fourtwo,,,,,,,,,,,,,,,,,,,,,,,,,,,,,,,,,,,,,,,,,,,,,,,,,,,,,,,,,,,,,,,,,,,,,,,,,,,,,,,,,,,,,,,,,,,,,,,,,,,,,,,,,,,,,,,,,,,,,,,,,,,,,,,,,,,,,,,,,,,,,,,,,,,,,,,,,,,,,
,,,,,,60ddfb3db6a71ad9ba75e387,62c5561f19b9e62dca3133ef,2022-07-06_11h30.57.438,Colour_Asymmetry_Pilot,2022.1.3,Win32,60.16485169,62c50e9c1127f2cd403a315f,0,6,6,103,1,fourthree,,,,,,,,,,,,,,,,,,,,,,,,,,,,,,,,,,,,,,,,,,,,,,,,,,,,,,,,,,,,,,,,,,,,,,,,,,,,,,,,,,,,,,,,,,,,,,,,,,,,,,,,,,,,,,,,,,,,,,,,,,,,,,,,,,,,,,,,,,,,,,,,,,,,,,,,,,,,,
,,,,,,60ddfb3db6a71ad9ba75e387,62c5561f19b9e62dca3133ef,2022-07-06_11h30.57.438,Colour_Asymmetry_Pilot,2022.1.3,Win32,60.16485169,62c50e9c1127f2cd403a315f,0,7,7,80,1,onetwo,,,,,,,,,,,,,,,,,,,,,,,,,,,,,,,,,,,,,,,,,,,,,,,,,,,,,,,,,,,,,,,,,,,,,,,,,,,,,,,,,,,,,,,,,,,,,,,,,,,,,,,,,,,,,,,,,,,,,,,,,,,,,,,,,,,,,,,,,,,,,,,,,,,,,,,,,,,,,
,,,,,,60ddfb3db6a71ad9ba75e387,62c5561f19b9e62dca3133ef,2022-07-06_11h30.57.438,Colour_Asymmetry_Pilot,2022.1.3,Win32,60.16485169,62c50e9c1127f2cd403a315f,0,8,8,150,1,fourtwo,,,,,,,,,,,,,,,,,,,,,,,,,,,,,,,,,,,,,,,,,,,,,,,,,,,,,,,,,,,,,,,,,,,,,,,,,,,,,,,,,,,,,,,,,,,,,,,,,,,,,,,,,,,,,,,,,,,,,,,,,,,,,,,,,,,,,,,,,,,,,,,,,,,,,,,,,,,,,
,,,,,,60ddfb3db6a71ad9ba75e387,62c5561f19b9e62dca3133ef,2022-07-06_11h30.57.438,Colour_Asymmetry_Pilot,2022.1.3,Win32,60.16485169,62c50e9c1127f2cd403a315f,0,9,9,84,1,threeone,,,,,,,,,,,,,,,,,,,,,,,,,,,,,,,,,,,,,,,,,,,,,,,,,,,,,,,,,,,,,,,,,,,,,,,,,,,,,,,,,,,,,,,,,,,,,,,,,,,,,,,,,,,,,,,,,,,,,,,,,,,,,,,,,,,,,,,,,,,,,,,,,,,,,,,,,,,,,
,,,,,,60ddfb3db6a71ad9ba75e387,62c5561f19b9e62dca3133ef,2022-07-06_11h30.57.438,Colour_Asymmetry_Pilot,2022.1.3,Win32,60.16485169,62c50e9c1127f2cd403a315f,0,10,10,156,1,threeone,,,,,,,,,,,,,,,,,,,,,,,,,,,,,,,,,,,,,,,,,,,,,,,,,,,,,,,,,,,,,,,,,,,,,,,,,,,,,,,,,,,,,,,,,,,,,,,,,,,,,,,,,,,,,,,,,,,,,,,,,,,,,,,,,,,,,,,,,,,,,,,,,,,,,,,,,,,,,
,,,,,,60ddfb3db6a71ad9ba75e387,62c5561f19b9e62dca3133ef,2022-07-06_11h30.57.438,Colour_Asymmetry_Pilot,2022.1.3,Win32,60.16485169,62c50e9c1127f2cd403a315f,0,11,11,89,1,onethree,,,,,,,,,,,,,,,,,,,,,,,,,,,,,,,,,,,,,,,,,,,,,,,,,,,,,,,,,,,,,,,,,,,,,,,,,,,,,,,,,,,,,,,,,,,,,,,,,,,,,,,,,,,,,,,,,,,,,,,,,,,,,,,,,,,,,,,,,,,,,,,,,,,,,,,,,,,,,
,,,,,,60ddfb3db6a71ad9ba75e387,62c5561f19b9e62dca3133ef,2022-07-06_11h30.57.438,Colour_Asymmetry_Pilot,2022.1.3,Win32,60.16485169,62c50e9c1127f2cd403a315f,0,12,12,114,1,twoone,,,,,,,,,,,,,,,,,,,,,,,,,,,,,,,,,,,,,,,,,,,,,,,,,,,,,,,,,,,,,,,,,,,,,,,,,,,,,,,,,,,,,,,,,,,,,,,,,,,,,,,,,,,,,,,,,,,,,,,,,,,,,,,,,,,,,,,,,,,,,,,,,,,,,,,,,,,,,
,,,,,,60ddfb3db6a71ad9ba75e387,62c5561f19b9e62dca3133ef,2022-07-06_11h30.57.438,Colour_Asymmetry_Pilot,2022.1.3,Win32,60.16485169,62c50e9c1127f2cd403a315f,0,13,13,136,1,onetwo,,,,,,,,,,,,,,,,,,,,,,,,,,,,,,,,,,,,,,,,,,,,,,,,,,,,,,,,,,,,,,,,,,,,,,,,,,,,,,,,,,,,,,,,,,,,,,,,,,,,,,,,,,,,,,,,,,,,,,,,,,,,,,,,,,,,,,,,,,,,,,,,,,,,,,,,,,,,,
,,,,,,60ddfb3db6a71ad9ba75e387,62c5561f19b9e62dca3133ef,2022-07-06_11h30.57.438,Colour_Asymmetry_Pilot,2022.1.3,Win32,60.16485169,62c50e9c1127f2cd403a315f,0,14,14,49,1,onethree,,,,,,,,,,,,,,,,,,,,,,,,,,,,,,,,,,,,,,,,,,,,,,,,,,,,,,,,,,,,,,,,,,,,,,,,,,,,,,,,,,,,,,,,,,,,,,,,,,,,,,,,,,,,,,,,,,,,,,,,,,,,,,,,,,,,,,,,,,,,,,,,,,,,,,,,,,,,,
,,,,,,60ddfb3db6a71ad9ba75e387,62c5561f19b9e62dca3133ef,2022-07-06_11h30.57.438,Colour_Asymmetry_Pilot,2022.1.3,Win32,60.16485169,62c50e9c1127f2cd403a315f,0,15,15,140,1,threeone,,,,,,,,,,,,,,,,,,,,,,,,,,,,,,,,,,,,,,,,,,,,,,,,,,,,,,,,,,,,,,,,,,,,,,,,,,,,,,,,,,,,,,,,,,,,,,,,,,,,,,,,,,,,,,,,,,,,,,,,,,,,,,,,,,,,,,,,,,,,,,,,,,,,,,,,,,,,,
,,,,,,60ddfb3db6a71ad9ba75e387,62c5561f19b9e62dca3133ef,2022-07-06_11h30.57.438,Colour_Asymmetry_Pilot,2022.1.3,Win32,60.16485169,62c50e9c1127f2cd403a315f,0,16,16,108,1,threeone,,,,,,,,,,,,,,,,,,,,,,,,,,,,,,,,,,,,,,,,,,,,,,,,,,,,,,,,,,,,,,,,,,,,,,,,,,,,,,,,,,,,,,,,,,,,,,,,,,,,,,,,,,,,,,,,,,,,,,,,,,,,,,,,,,,,,,,,,,,,,,,,,,,,,,,,,,,,,
,,,,,,60ddfb3db6a71ad9ba75e387,62c5561f19b9e62dca3133ef,2022-07-06_11h30.57.438,Colour_Asymmetry_Pilot,2022.1.3,Win32,60.16485169,62c50e9c1127f2cd403a315f,0,17,17,71,1,fourthree,,,,,,,,,,,,,,,,,,,,,,,,,,,,,,,,,,,,,,,,,,,,,,,,,,,,,,,,,,,,,,,,,,,,,,,,,,,,,,,,,,,,,,,,,,,,,,,,,,,,,,,,,,,,,,,,,,,,,,,,,,,,,,,,,,,,,,,,,,,,,,,,,,,,,,,,,,,,,
,,,,,,60ddfb3db6a71ad9ba75e387,62c5561f19b9e62dca3133ef,2022-07-06_11h30.57.438,Colour_Asymmetry_Pilot,2022.1.3,Win32,60.16485169,62c50e9c1127f2cd403a315f,0,18,18,11,1,twofour,,,,,,,,,,,,,,,,,,,,,,,,,,,,,,,,,,,,,,,,,,,,,,,,,,,,,,,,,,,,,,,,,,,,,,,,,,,,,,,,,,,,,,,,,,,,,,,,,,,,,,,,,,,,,,,,,,,,,,,,,,,,,,,,,,,,,,,,,,,,,,,,,,,,,,,,,,,,,
,,,,,,60ddfb3db6a71ad9ba75e387,62c5561f19b9e62dca3133ef,2022-07-06_11h30.57.438,Colour_Asymmetry_Pilot,2022.1.3,Win32,60.16485169,62c50e9c1127f2cd403a315f,0,19,19,18,1,twoone,,,,,,,,,,,,,,,,,,,,,,,,,,,,,,,,,,,,,,,,,,,,,,,,,,,,,,,,,,,,,,,,,,,,,,,,,,,,,,,,,,,,,,,,,,,,,,,,,,,,,,,,,,,,,,,,,,,,,,,,,,,,,,,,,,,,,,,,,,,,,,,,,,,,,,,,,,,,,
,,,,,,60ddfb3db6a71ad9ba75e387,62c5561f19b9e62dca3133ef,2022-07-06_11h30.57.438,Colour_Asymmetry_Pilot,2022.1.3,Win32,60.16485169,62c50e9c1127f2cd403a315f,0,20,20,137,1,onethree,,,,,,,,,,,,,,,,,,,,,,,,,,,,,,,,,,,,,,,,,,,,,,,,,,,,,,,,,,,,,,,,,,,,,,,,,,,,,,,,,,,,,,,,,,,,,,,,,,,,,,,,,,,,,,,,,,,,,,,,,,,,,,,,,,,,,,,,,,,,,,,,,,,,,,,,,,,,,
,,,,,,60ddfb3db6a71ad9ba75e387,62c5561f19b9e62dca3133ef,2022-07-06_11h30.57.438,Colour_Asymmetry_Pilot,2022.1.3,Win32,60.16485169,62c50e9c1127f2cd403a315f,0,21,21,1,1,onethree,,,,,,,,,,,,,,,,,,,,,,,,,,,,,,,,,,,,,,,,,,,,,,,,,,,,,,,,,,,,,,,,,,,,,,,,,,,,,,,,,,,,,,,,,,,,,,,,,,,,,,,,,,,,,,,,,,,,,,,,,,,,,,,,,,,,,,,,,,,,,,,,,,,,,,,,,,,,,
,,,,,,60ddfb3db6a71ad9ba75e387,62c5561f19b9e62dca3133ef,2022-07-06_11h30.57.438,Colour_Asymmetry_Pilot,2022.1.3,Win32,60.16485169,62c50e9c1127f2cd403a315f,0,22,22,52,1,threeone,,,,,,,,,,,,,,,,,,,,,,,,,,,,,,,,,,,,,,,,,,,,,,,,,,,,,,,,,,,,,,,,,,,,,,,,,,,,,,,,,,,,,,,,,,,,,,,,,,,,,,,,,,,,,,,,,,,,,,,,,,,,,,,,,,,,,,,,,,,,,,,,,,,,,,,,,,,,,
,,,,,,60ddfb3db6a71ad9ba75e387,62c5561f19b9e62dca3133ef,2022-07-06_11h30.57.438,Colour_Asymmetry_Pilot,2022.1.3,Win32,60.16485169,62c50e9c1127f2cd403a315f,0,23,23,106,1,twoone,,,,,,,,,,,,,,,,,,,,,,,,,,,,,,,,,,,,,,,,,,,,,,,,,,,,,,,,,,,,,,,,,,,,,,,,,,,,,,,,,,,,,,,,,,,,,,,,,,,,,,,,,,,,,,,,,,,,,,,,,,,,,,,,,,,,,,,,,,,,,,,,,,,,,,,,,,,,,
,,,,,,60ddfb3db6a71ad9ba75e387,62c5561f19b9e62dca3133ef,2022-07-06_11h30.57.438,Colour_Asymmetry_Pilot,2022.1.3,Win32,60.16485169,62c50e9c1127f2cd403a315f,0,24,24,27,1,twofour,,,,,,,,,,,,,,,,,,,,,,,,,,,,,,,,,,,,,,,,,,,,,,,,,,,,,,,,,,,,,,,,,,,,,,,,,,,,,,,,,,,,,,,,,,,,,,,,,,,,,,,,,,,,,,,,,,,,,,,,,,,,,,,,,,,,,,,,,,,,,,,,,,,,,,,,,,,,,
,,,,,,60ddfb3db6a71ad9ba75e387,62c5561f19b9e62dca3133ef,2022-07-06_11h30.57.438,Colour_Asymmetry_Pilot,2022.1.3,Win32,60.16485169,62c50e9c1127f2cd403a315f,0,25,25,109,1,threefour,,,,,,,,,,,,,,,,,,,,,,,,,,,,,,,,,,,,,,,,,,,,,,,,,,,,,,,,,,,,,,,,,,,,,,,,,,,,,,,,,,,,,,,,,,,,,,,,,,,,,,,,,,,,,,,,,,,,,,,,,,,,,,,,,,,,,,,,,,,,,,,,,,,,,,,,,,,,,
,,,,,,60ddfb3db6a71ad9ba75e387,62c5561f19b9e62dca3133ef,2022-07-06_11h30.57.438,Colour_Asymmetry_Pilot,2022.1.3,Win32,60.16485169,62c50e9c1127f2cd403a315f,0,26,26,131,1,twofour,,,,,,,,,,,,,,,,,,,,,,,,,,,,,,,,,,,,,,,,,,,,,,,,,,,,,,,,,,,,,,,,,,,,,,,,,,,,,,,,,,,,,,,,,,,,,,,,,,,,,,,,,,,,,,,,,,,,,,,,,,,,,,,,,,,,,,,,,,,,,,,,,,,,,,,,,,,,,
,,,,,,60ddfb3db6a71ad9ba75e387,62c5561f19b9e62dca3133ef,2022-07-06_11h30.57.438,Colour_Asymmetry_Pilot,2022.1.3,Win32,60.16485169,62c50e9c1127f2cd403a315f,0,27,27,4,1,threeone,,,,,,,,,,,,,,,,,,,,,,,,,,,,,,,,,,,,,,,,,,,,,,,,,,,,,,,,,,,,,,,,,,,,,,,,,,,,,,,,,,,,,,,,,,,,,,,,,,,,,,,,,,,,,,,,,,,,,,,,,,,,,,,,,,,,,,,,,,,,,,,,,,,,,,,,,,,,,
,,,,,,60ddfb3db6a71ad9ba75e387,62c5561f19b9e62dca3133ef,2022-07-06_11h30.57.438,Colour_Asymmetry_Pilot,2022.1.3,Win32,60.16485169,62c50e9c1127f2cd403a315f,0,28,28,29,1,threefour,,,,,,,,,,,,,,,,,,,,,,,,,,,,,,,,,,,,,,,,,,,,,,,,,,,,,,,,,,,,,,,,,,,,,,,,,,,,,,,,,,,,,,,,,,,,,,,,,,,,,,,,,,,,,,,,,,,,,,,,,,,,,,,,,,,,,,,,,,,,,,,,,,,,,,,,,,,,,
,,,,,,60ddfb3db6a71ad9ba75e387,62c5561f19b9e62dca3133ef,2022-07-06_11h30.57.438,Colour_Asymmetry_Pilot,2022.1.3,Win32,60.16485169,62c50e9c1127f2cd403a315f,0,29,29,160,1,onetwo,,,,,,,,,,,,,,,,,,,,,,,,,,,,,,,,,,,,,,,,,,,,,,,,,,,,,,,,,,,,,,,,,,,,,,,,,,,,,,,,,,,,,,,,,,,,,,,,,,,,,,,,,,,,,,,,,,,,,,,,,,,,,,,,,,,,,,,,,,,,,,,,,,,,,,,,,,,,,
,,,,,,60ddfb3db6a71ad9ba75e387,62c5561f19b9e62dca3133ef,2022-07-06_11h30.57.438,Colour_Asymmetry_Pilot,2022.1.3,Win32,60.16485169,62c50e9c1127f2cd403a315f,0,30,30,154,1,twoone,,,,,,,,,,,,,,,,,,,,,,,,,,,,,,,,,,,,,,,,,,,,,,,,,,,,,,,,,,,,,,,,,,,,,,,,,,,,,,,,,,,,,,,,,,,,,,,,,,,,,,,,,,,,,,,,,,,,,,,,,,,,,,,,,,,,,,,,,,,,,,,,,,,,,,,,,,,,,
,,,,,,60ddfb3db6a71ad9ba75e387,62c5561f19b9e62dca3133ef,2022-07-06_11h30.57.438,Colour_Asymmetry_Pilot,2022.1.3,Win32,60.16485169,62c50e9c1127f2cd403a315f,0,31,31,45,1,threefour,,,,,,,,,,,,,,,,,,,,,,,,,,,,,,,,,,,,,,,,,,,,,,,,,,,,,,,,,,,,,,,,,,,,,,,,,,,,,,,,,,,,,,,,,,,,,,,,,,,,,,,,,,,,,,,,,,,,,,,,,,,,,,,,,,,,,,,,,,,,,,,,,,,,,,,,,,,,,
,,,,,,60ddfb3db6a71ad9ba75e387,62c5561f19b9e62dca3133ef,2022-07-06_11h30.57.438,Colour_Asymmetry_Pilot,2022.1.3,Win32,60.16485169,62c50e9c1127f2cd403a315f,0,32,32,132,1,threeone,,,,,,,,,,,,,,,,,,,,,,,,,,,,,,,,,,,,,,,,,,,,,,,,,,,,,,,,,,,,,,,,,,,,,,,,,,,,,,,,,,,,,,,,,,,,,,,,,,,,,,,,,,,,,,,,,,,,,,,,,,,,,,,,,,,,,,,,,,,,,,,,,,,,,,,,,,,,,
,,,,,,60ddfb3db6a71ad9ba75e387,62c5561f19b9e62dca3133ef,2022-07-06_11h30.57.438,Colour_Asymmetry_Pilot,2022.1.3,Win32,60.16485169,62c50e9c1127f2cd403a315f,0,33,33,19,1,twofour,,,,,,,,,,,,,,,,,,,,,,,,,,,,,,,,,,,,,,,,,,,,,,,,,,,,,,,,,,,,,,,,,,,,,,,,,,,,,,,,,,,,,,,,,,,,,,,,,,,,,,,,,,,,,,,,,,,,,,,,,,,,,,,,,,,,,,,,,,,,,,,,,,,,,,,,,,,,,
,,,,,,60ddfb3db6a71ad9ba75e387,62c5561f19b9e62dca3133ef,2022-07-06_11h30.57.438,Colour_Asymmetry_Pilot,2022.1.3,Win32,60.16485169,62c50e9c1127f2cd403a315f,0,34,34,35,1,twofour,,,,,,,,,,,,,,,,,,,,,,,,,,,,,,,,,,,,,,,,,,,,,,,,,,,,,,,,,,,,,,,,,,,,,,,,,,,,,,,,,,,,,,,,,,,,,,,,,,,,,,,,,,,,,,,,,,,,,,,,,,,,,,,,,,,,,,,,,,,,,,,,,,,,,,,,,,,,,
,,,,,,60ddfb3db6a71ad9ba75e387,62c5561f19b9e62dca3133ef,2022-07-06_11h30.57.438,Colour_Asymmetry_Pilot,2022.1.3,Win32,60.16485169,62c50e9c1127f2cd403a315f,0,35,35,121,1,onethree,,,,,,,,,,,,,,,,,,,,,,,,,,,,,,,,,,,,,,,,,,,,,,,,,,,,,,,,,,,,,,,,,,,,,,,,,,,,,,,,,,,,,,,,,,,,,,,,,,,,,,,,,,,,,,,,,,,,,,,,,,,,,,,,,,,,,,,,,,,,,,,,,,,,,,,,,,,,,
,,,,,,60ddfb3db6a71ad9ba75e387,62c5561f19b9e62dca3133ef,2022-07-06_11h30.57.438,Colour_Asymmetry_Pilot,2022.1.3,Win32,60.16485169,62c50e9c1127f2cd403a315f,0,36,36,68,1,threeone,,,,,,,,,,,,,,,,,,,,,,,,,,,,,,,,,,,,,,,,,,,,,,,,,,,,,,,,,,,,,,,,,,,,,,,,,,,,,,,,,,,,,,,,,,,,,,,,,,,,,,,,,,,,,,,,,,,,,,,,,,,,,,,,,,,,,,,,,,,,,,,,,,,,,,,,,,,,,
,,,,,,60ddfb3db6a71ad9ba75e387,62c5561f19b9e62dca3133ef,2022-07-06_11h30.57.438,Colour_Asymmetry_Pilot,2022.1.3,Win32,60.16485169,62c50e9c1127f2cd403a315f,0,37,37,159,1,fourthree,,,,,,,,,,,,,,,,,,,,,,,,,,,,,,,,,,,,,,,,,,,,,,,,,,,,,,,,,,,,,,,,,,,,,,,,,,,,,,,,,,,,,,,,,,,,,,,,,,,,,,,,,,,,,,,,,,,,,,,,,,,,,,,,,,,,,,,,,,,,,,,,,,,,,,,,,,,,,
,,,,,,60ddfb3db6a71ad9ba75e387,62c5561f19b9e62dca3133ef,2022-07-06_11h30.57.438,Colour_Asymmetry_Pilot,2022.1.3,Win32,60.16485169,62c50e9c1127f2cd403a315f,0,38,38,152,1,onetwo,,,,,,,,,,,,,,,,,,,,,,,,,,,,,,,,,,,,,,,,,,,,,,,,,,,,,,,,,,,,,,,,,,,,,,,,,,,,,,,,,,,,,,,,,,,,,,,,,,,,,,,,,,,,,,,,,,,,,,,,,,,,,,,,,,,,,,,,,,,,,,,,,,,,,,,,,,,,,
,,,,,,60ddfb3db6a71ad9ba75e387,62c5561f19b9e62dca3133ef,2022-07-06_11h30.57.438,Colour_Asymmetry_Pilot,2022.1.3,Win32,60.16485169,62c50e9c1127f2cd403a315f,0,39,39,125,1,threefour,,,,,,,,,,,,,,,,,,,,,,,,,,,,,,,,,,,,,,,,,,,,,,,,,,,,,,,,,,,,,,,,,,,,,,,,,,,,,,,,,,,,,,,,,,,,,,,,,,,,,,,,,,,,,,,,,,,,,,,,,,,,,,,,,,,,,,,,,,,,,,,,,,,,,,,,,,,,,
,,,,,,60ddfb3db6a71ad9ba75e387,62c5561f19b9e62dca3133ef,2022-07-06_11h30.57.438,Colour_Asymmetry_Pilot,2022.1.3,Win32,60.16485169,62c50e9c1127f2cd403a315f,0,40,40,26,1,twoone,,,,,,,,,,,,,,,,,,,,,,,,,,,,,,,,,,,,,,,,,,,,,,,,,,,,,,,,,,,,,,,,,,,,,,,,,,,,,,,,,,,,,,,,,,,,,,,,,,,,,,,,,,,,,,,,,,,,,,,,,,,,,,,,,,,,,,,,,,,,,,,,,,,,,,,,,,,,,
,,,,,,60ddfb3db6a71ad9ba75e387,62c5561f19b9e62dca3133ef,2022-07-06_11h30.57.438,Colour_Asymmetry_Pilot,2022.1.3,Win32,60.16485169,62c50e9c1127f2cd403a315f,0,41,41,30,1,fourtwo,,,,,,,,,,,,,,,,,,,,,,,,,,,,,,,,,,,,,,,,,,,,,,,,,,,,,,,,,,,,,,,,,,,,,,,,,,,,,,,,,,,,,,,,,,,,,,,,,,,,,,,,,,,,,,,,,,,,,,,,,,,,,,,,,,,,,,,,,,,,,,,,,,,,,,,,,,,,,
,,,,,,60ddfb3db6a71ad9ba75e387,62c5561f19b9e62dca3133ef,2022-07-06_11h30.57.438,Colour_Asymmetry_Pilot,2022.1.3,Win32,60.16485169,62c50e9c1127f2cd403a315f,0,42,42,33,1,onethree,,,,,,,,,,,,,,,,,,,,,,,,,,,,,,,,,,,,,,,,,,,,,,,,,,,,,,,,,,,,,,,,,,,,,,,,,,,,,,,,,,,,,,,,,,,,,,,,,,,,,,,,,,,,,,,,,,,,,,,,,,,,,,,,,,,,,,,,,,,,,,,,,,,,,,,,,,,,,
,,,,,,60ddfb3db6a71ad9ba75e387,62c5561f19b9e62dca3133ef,2022-07-06_11h30.57.438,Colour_Asymmetry_Pilot,2022.1.3,Win32,60.16485169,62c50e9c1127f2cd403a315f,0,43,43,144,1,onetwo,,,,,,,,,,,,,,,,,,,,,,,,,,,,,,,,,,,,,,,,,,,,,,,,,,,,,,,,,,,,,,,,,,,,,,,,,,,,,,,,,,,,,,,,,,,,,,,,,,,,,,,,,,,,,,,,,,,,,,,,,,,,,,,,,,,,,,,,,,,,,,,,,,,,,,,,,,,,,
,,,,,,60ddfb3db6a71ad9ba75e387,62c5561f19b9e62dca3133ef,2022-07-06_11h30.57.438,Colour_Asymmetry_Pilot,2022.1.3,Win32,60.16485169,62c50e9c1127f2cd403a315f,0,44,44,87,1,fourthree,,,,,,,,,,,,,,,,,,,,,,,,,,,,,,,,,,,,,,,,,,,,,,,,,,,,,,,,,,,,,,,,,,,,,,,,,,,,,,,,,,,,,,,,,,,,,,,,,,,,,,,,,,,,,,,,,,,,,,,,,,,,,,,,,,,,,,,,,,,,,,,,,,,,,,,,,,,,,
,,,,,,60ddfb3db6a71ad9ba75e387,62c5561f19b9e62dca3133ef,2022-07-06_11h30.57.438,Colour_Asymmetry_Pilot,2022.1.3,Win32,60.16485169,62c50e9c1127f2cd403a315f,0,45,45,124,1,threeone,,,,,,,,,,,,,,,,,,,,,,,,,,,,,,,,,,,,,,,,,,,,,,,,,,,,,,,,,,,,,,,,,,,,,,,,,,,,,,,,,,,,,,,,,,,,,,,,,,,,,,,,,,,,,,,,,,,,,,,,,,,,,,,,,,,,,,,,,,,,,,,,,,,,,,,,,,,,,
,,,,,,60ddfb3db6a71ad9ba75e387,62c5561f19b9e62dca3133ef,2022-07-06_11h30.57.438,Colour_Asymmetry_Pilot,2022.1.3,Win32,60.16485169,62c50e9c1127f2cd403a315f,0,46,46,17,1,onethree,,,,,,,,,,,,,,,,,,,,,,,,,,,,,,,,,,,,,,,,,,,,,,,,,,,,,,,,,,,,,,,,,,,,,,,,,,,,,,,,,,,,,,,,,,,,,,,,,,,,,,,,,,,,,,,,,,,,,,,,,,,,,,,,,,,,,,,,,,,,,,,,,,,,,,,,,,,,,
,,,,,,60ddfb3db6a71ad9ba75e387,62c5561f19b9e62dca3133ef,2022-07-06_11h30.57.438,Colour_Asymmetry_Pilot,2022.1.3,Win32,60.16485169,62c50e9c1127f2cd403a315f,0,47,47,16,1,onetwo,,,,,,,,,,,,,,,,,,,,,,,,,,,,,,,,,,,,,,,,,,,,,,,,,,,,,,,,,,,,,,,,,,,,,,,,,,,,,,,,,,,,,,,,,,,,,,,,,,,,,,,,,,,,,,,,,,,,,,,,,,,,,,,,,,,,,,,,,,,,,,,,,,,,,,,,,,,,,
,,,,,,60ddfb3db6a71ad9ba75e387,62c5561f19b9e62dca3133ef,2022-07-06_11h30.57.438,Colour_Asymmetry_Pilot,2022.1.3,Win32,60.16485169,62c50e9c1127f2cd403a315f,0,48,48,105,1,onethree,,,,,,,,,,,,,,,,,,,,,,,,,,,,,,,,,,,,,,,,,,,,,,,,,,,,,,,,,,,,,,,,,,,,,,,,,,,,,,,,,,,,,,,,,,,,,,,,,,,,,,,,,,,,,,,,,,,,,,,,,,,,,,,,,,,,,,,,,,,,,,,,,,,,,,,,,,,,,
,,,,,,60ddfb3db6a71ad9ba75e387,62c5561f19b9e62dca3133ef,2022-07-06_11h30.57.438,Colour_Asymmetry_Pilot,2022.1.3,Win32,60.16485169,62c50e9c1127f2cd403a315f,0,49,49,134,1,fourtwo,,,,,,,,,,,,,,,,,,,,,,,,,,,,,,,,,,,,,,,,,,,,,,,,,,,,,,,,,,,,,,,,,,,,,,,,,,,,,,,,,,,,,,,,,,,,,,,,,,,,,,,,,,,,,,,,,,,,,,,,,,,,,,,,,,,,,,,,,,,,,,,,,,,,,,,,,,,,,
,,,,,,60ddfb3db6a71ad9ba75e387,62c5561f19b9e62dca3133ef,2022-07-06_11h30.57.438,Colour_Asymmetry_Pilot,2022.1.3,Win32,60.16485169,62c50e9c1127f2cd403a315f,0,50,50,147,1,twofour,,,,,,,,,,,,,,,,,,,,,,,,,,,,,,,,,,,,,,,,,,,,,,,,,,,,,,,,,,,,,,,,,,,,,,,,,,,,,,,,,,,,,,,,,,,,,,,,,,,,,,,,,,,,,,,,,,,,,,,,,,,,,,,,,,,,,,,,,,,,,,,,,,,,,,,,,,,,,
,,,,,,60ddfb3db6a71ad9ba75e387,62c5561f19b9e62dca3133ef,2022-07-06_11h30.57.438,Colour_Asymmetry_Pilot,2022.1.3,Win32,60.16485169,62c50e9c1127f2cd403a315f,0,51,51,6,1,fourtwo,,,,,,,,,,,,,,,,,,,,,,,,,,,,,,,,,,,,,,,,,,,,,,,,,,,,,,,,,,,,,,,,,,,,,,,,,,,,,,,,,,,,,,,,,,,,,,,,,,,,,,,,,,,,,,,,,,,,,,,,,,,,,,,,,,,,,,,,,,,,,,,,,,,,,,,,,,,,,
,,,,,,60ddfb3db6a71ad9ba75e387,62c5561f19b9e62dca3133ef,2022-07-06_11h30.57.438,Colour_Asymmetry_Pilot,2022.1.3,Win32,60.16485169,62c50e9c1127f2cd403a315f,0,52,52,60,1,threeone,,,,,,,,,,,,,,,,,,,,,,,,,,,,,,,,,,,,,,,,,,,,,,,,,,,,,,,,,,,,,,,,,,,,,,,,,,,,,,,,,,,,,,,,,,,,,,,,,,,,,,,,,,,,,,,,,,,,,,,,,,,,,,,,,,,,,,,,,,,,,,,,,,,,,,,,,,,,,
,,,,,,60ddfb3db6a71ad9ba75e387,62c5561f19b9e62dca3133ef,2022-07-06_11h30.57.438,Colour_Asymmetry_Pilot,2022.1.3,Win32,60.16485169,62c50e9c1127f2cd403a315f,0,53,53,104,1,onetwo,,,,,,,,,,,,,,,,,,,,,,,,,,,,,,,,,,,,,,,,,,,,,,,,,,,,,,,,,,,,,,,,,,,,,,,,,,,,,,,,,,,,,,,,,,,,,,,,,,,,,,,,,,,,,,,,,,,,,,,,,,,,,,,,,,,,,,,,,,,,,,,,,,,,,,,,,,,,,
,,,,,,60ddfb3db6a71ad9ba75e387,62c5561f19b9e62dca3133ef,2022-07-06_11h30.57.438,Colour_Asymmetry_Pilot,2022.1.3,Win32,60.16485169,62c50e9c1127f2cd403a315f,0,54,54,96,1,onetwo,,,,,,,,,,,,,,,,,,,,,,,,,,,,,,,,,,,,,,,,,,,,,,,,,,,,,,,,,,,,,,,,,,,,,,,,,,,,,,,,,,,,,,,,,,,,,,,,,,,,,,,,,,,,,,,,,,,,,,,,,,,,,,,,,,,,,,,,,,,,,,,,,,,,,,,,,,,,,
,,,,,,60ddfb3db6a71ad9ba75e387,62c5561f19b9e62dca3133ef,2022-07-06_11h30.57.438,Colour_Asymmetry_Pilot,2022.1.3,Win32,60.16485169,62c50e9c1127f2cd403a315f,0,55,55,130,1,twoone,,,,,,,,,,,,,,,,,,,,,,,,,,,,,,,,,,,,,,,,,,,,,,,,,,,,,,,,,,,,,,,,,,,,,,,,,,,,,,,,,,,,,,,,,,,,,,,,,,,,,,,,,,,,,,,,,,,,,,,,,,,,,,,,,,,,,,,,,,,,,,,,,,,,,,,,,,,,,
,,,,,,60ddfb3db6a71ad9ba75e387,62c5561f19b9e62dca3133ef,2022-07-06_11h30.57.438,Colour_Asymmetry_Pilot,2022.1.3,Win32,60.16485169,62c50e9c1127f2cd403a315f,0,56,56,3,1,twofour,,,,,,,,,,,,,,,,,,,,,,,,,,,,,,,,,,,,,,,,,,,,,,,,,,,,,,,,,,,,,,,,,,,,,,,,,,,,,,,,,,,,,,,,,,,,,,,,,,,,,,,,,,,,,,,,,,,,,,,,,,,,,,,,,,,,,,,,,,,,,,,,,,,,,,,,,,,,,
,,,,,,60ddfb3db6a71ad9ba75e387,62c5561f19b9e62dca3133ef,2022-07-06_11h30.57.438,Colour_Asymmetry_Pilot,2022.1.3,Win32,60.16485169,62c50e9c1127f2cd403a315f,0,57,57,128,1,onetwo,,,,,,,,,,,,,,,,,,,,,,,,,,,,,,,,,,,,,,,,,,,,,,,,,,,,,,,,,,,,,,,,,,,,,,,,,,,,,,,,,,,,,,,,,,,,,,,,,,,,,,,,,,,,,,,,,,,,,,,,,,,,,,,,,,,,,,,,,,,,,,,,,,,,,,,,,,,,,
,,,,,,60ddfb3db6a71ad9ba75e387,62c5561f19b9e62dca3133ef,2022-07-06_11h30.57.438,Colour_Asymmetry_Pilot,2022.1.3,Win32,60.16485169,62c50e9c1127f2cd403a315f,0,58,58,151,1,fourthree,,,,,,,,,,,,,,,,,,,,,,,,,,,,,,,,,,,,,,,,,,,,,,,,,,,,,,,,,,,,,,,,,,,,,,,,,,,,,,,,,,,,,,,,,,,,,,,,,,,,,,,,,,,,,,,,,,,,,,,,,,,,,,,,,,,,,,,,,,,,,,,,,,,,,,,,,,,,,
,,,,,,60ddfb3db6a71ad9ba75e387,62c5561f19b9e62dca3133ef,2022-07-06_11h30.57.438,Colour_Asymmetry_Pilot,2022.1.3,Win32,60.16485169,62c50e9c1127f2cd403a315f,0,59,59,63,1,fourthree,,,,,,,,,,,,,,,,,,,,,,,,,,,,,,,,,,,,,,,,,,,,,,,,,,,,,,,,,,,,,,,,,,,,,,,,,,,,,,,,,,,,,,,,,,,,,,,,,,,,,,,,,,,,,,,,,,,,,,,,,,,,,,,,,,,,,,,,,,,,,,,,,,,,,,,,,,,,,
,,,,,,60ddfb3db6a71ad9ba75e387,62c5561f19b9e62dca3133ef,2022-07-06_11h30.57.438,Colour_Asymmetry_Pilot,2022.1.3,Win32,60.16485169,62c50e9c1127f2cd403a315f,0,60,60,95,1,fourthree,,,,,,,,,,,,,,,,,,,,,,,,,,,,,,,,,,,,,,,,,,,,,,,,,,,,,,,,,,,,,,,,,,,,,,,,,,,,,,,,,,,,,,,,,,,,,,,,,,,,,,,,,,,,,,,,,,,,,,,,,,,,,,,,,,,,,,,,,,,,,,,,,,,,,,,,,,,,,
,,,,,,60ddfb3db6a71ad9ba75e387,62c5561f19b9e62dca3133ef,2022-07-06_11h30.57.438,Colour_Asymmetry_Pilot,2022.1.3,Win32,60.16485169,62c50e9c1127f2cd403a315f,0,61,61,7,1,fourthree,,,,,,,,,,,,,,,,,,,,,,,,,,,,,,,,,,,,,,,,,,,,,,,,,,,,,,,,,,,,,,,,,,,,,,,,,,,,,,,,,,,,,,,,,,,,,,,,,,,,,,,,,,,,,,,,,,,,,,,,,,,,,,,,,,,,,,,,,,,,,,,,,,,,,,,,,,,,,
,,,,,,60ddfb3db6a71ad9ba75e387,62c5561f19b9e62dca3133ef,2022-07-06_11h30.57.438,Colour_Asymmetry_Pilot,2022.1.3,Win32,60.16485169,62c50e9c1127f2cd403a315f,0,62,62,21,1,threefour,,,,,,,,,,,,,,,,,,,,,,,,,,,,,,,,,,,,,,,,,,,,,,,,,,,,,,,,,,,,,,,,,,,,,,,,,,,,,,,,,,,,,,,,,,,,,,,,,,,,,,,,,,,,,,,,,,,,,,,,,,,,,,,,,,,,,,,,,,,,,,,,,,,,,,,,,,,,,
,,,,,,60ddfb3db6a71ad9ba75e387,62c5561f19b9e62dca3133ef,2022-07-06_11h30.57.438,Colour_Asymmetry_Pilot,2022.1.3,Win32,60.16485169,62c50e9c1127f2cd403a315f,0,63,63,32,1,onetwo,,,,,,,,,,,,,,,,,,,,,,,,,,,,,,,,,,,,,,,,,,,,,,,,,,,,,,,,,,,,,,,,,,,,,,,,,,,,,,,,,,,,,,,,,,,,,,,,,,,,,,,,,,,,,,,,,,,,,,,,,,,,,,,,,,,,,,,,,,,,,,,,,,,,,,,,,,,,,
,,,,,,60ddfb3db6a71ad9ba75e387,62c5561f19b9e62dca3133ef,2022-07-06_11h30.57.438,Colour_Asymmetry_Pilot,2022.1.3,Win32,60.16485169,62c50e9c1127f2cd403a315f,0,64,64,41,1,onethree,,,,,,,,,,,,,,,,,,,,,,,,,,,,,,,,,,,,,,,,,,,,,,,,,,,,,,,,,,,,,,,,,,,,,,,,,,,,,,,,,,,,,,,,,,,,,,,,,,,,,,,,,,,,,,,,,,,,,,,,,,,,,,,,,,,,,,,,,,,,,,,,,,,,,,,,,,,,,
,,,,,,60ddfb3db6a71ad9ba75e387,62c5561f19b9e62dca3133ef,2022-07-06_11h30.57.438,Colour_Asymmetry_Pilot,2022.1.3,Win32,60.16485169,62c50e9c1127f2cd403a315f,0,65,65,93,1,threefour,,,,,,,,,,,,,,,,,,,,,,,,,,,,,,,,,,,,,,,,,,,,,,,,,,,,,,,,,,,,,,,,,,,,,,,,,,,,,,,,,,,,,,,,,,,,,,,,,,,,,,,,,,,,,,,,,,,,,,,,,,,,,,,,,,,,,,,,,,,,,,,,,,,,,,,,,,,,,
,,,,,,60ddfb3db6a71ad9ba75e387,62c5561f19b9e62dca3133ef,2022-07-06_11h30.57.438,Colour_Asymmetry_Pilot,2022.1.3,Win32,60.16485169,62c50e9c1127f2cd403a315f,0,66,66,81,1,onethree,,,,,,,,,,,,,,,,,,,,,,,,,,,,,,,,,,,,,,,,,,,,,,,,,,,,,,,,,,,,,,,,,,,,,,,,,,,,,,,,,,,,,,,,,,,,,,,,,,,,,,,,,,,,,,,,,,,,,,,,,,,,,,,,,,,,,,,,,,,,,,,,,,,,,,,,,,,,,
,,,,,,60ddfb3db6a71ad9ba75e387,62c5561f19b9e62dca3133ef,2022-07-06_11h30.57.438,Colour_Asymmetry_Pilot,2022.1.3,Win32,60.16485169,62c50e9c1127f2cd403a315f,0,67,67,120,1,onetwo,,,,,,,,,,,,,,,,,,,,,,,,,,,,,,,,,,,,,,,,,,,,,,,,,,,,,,,,,,,,,,,,,,,,,,,,,,,,,,,,,,,,,,,,,,,,,,,,,,,,,,,,,,,,,,,,,,,,,,,,,,,,,,,,,,,,,,,,,,,,,,,,,,,,,,,,,,,,,
,,,,,,60ddfb3db6a71ad9ba75e387,62c5561f19b9e62dca3133ef,2022-07-06_11h30.57.438,Colour_Asymmetry_Pilot,2022.1.3,Win32,60.16485169,62c50e9c1127f2cd403a315f,0,68,68,43,1,twofour,,,,,,,,,,,,,,,,,,,,,,,,,,,,,,,,,,,,,,,,,,,,,,,,,,,,,,,,,,,,,,,,,,,,,,,,,,,,,,,,,,,,,,,,,,,,,,,,,,,,,,,,,,,,,,,,,,,,,,,,,,,,,,,,,,,,,,,,,,,,,,,,,,,,,,,,,,,,,
,,,,,,60ddfb3db6a71ad9ba75e387,62c5561f19b9e62dca3133ef,2022-07-06_11h30.57.438,Colour_Asymmetry_Pilot,2022.1.3,Win32,60.16485169,62c50e9c1127f2cd403a315f,0,69,69,36,1,threeone,,,,,,,,,,,,,,,,,,,,,,,,,,,,,,,,,,,,,,,,,,,,,,,,,,,,,,,,,,,,,,,,,,,,,,,,,,,,,,,,,,,,,,,,,,,,,,,,,,,,,,,,,,,,,,,,,,,,,,,,,,,,,,,,,,,,,,,,,,,,,,,,,,,,,,,,,,,,,
,,,,,,60ddfb3db6a71ad9ba75e387,62c5561f19b9e62dca3133ef,2022-07-06_11h30.57.438,Colour_Asymmetry_Pilot,2022.1.3,Win32,60.16485169,62c50e9c1127f2cd403a315f,0,70,70,92,1,threeone,,,,,,,,,,,,,,,,,,,,,,,,,,,,,,,,,,,,,,,,,,,,,,,,,,,,,,,,,,,,,,,,,,,,,,,,,,,,,,,,,,,,,,,,,,,,,,,,,,,,,,,,,,,,,,,,,,,,,,,,,,,,,,,,,,,,,,,,,,,,,,,,,,,,,,,,,,,,,
,,,,,,60ddfb3db6a71ad9ba75e387,62c5561f19b9e62dca3133ef,2022-07-06_11h30.57.438,Colour_Asymmetry_Pilot,2022.1.3,Win32,60.16485169,62c50e9c1127f2cd403a315f,0,71,71,111,1,fourthree,,,,,,,,,,,,,,,,,,,,,,,,,,,,,,,,,,,,,,,,,,,,,,,,,,,,,,,,,,,,,,,,,,,,,,,,,,,,,,,,,,,,,,,,,,,,,,,,,,,,,,,,,,,,,,,,,,,,,,,,,,,,,,,,,,,,,,,,,,,,,,,,,,,,,,,,,,,,,
,,,,,,60ddfb3db6a71ad9ba75e387,62c5561f19b9e62dca3133ef,2022-07-06_11h30.57.438,Colour_Asymmetry_Pilot,2022.1.3,Win32,60.16485169,62c50e9c1127f2cd403a315f,0,72,72,155,1,twofour,,,,,,,,,,,,,,,,,,,,,,,,,,,,,,,,,,,,,,,,,,,,,,,,,,,,,,,,,,,,,,,,,,,,,,,,,,,,,,,,,,,,,,,,,,,,,,,,,,,,,,,,,,,,,,,,,,,,,,,,,,,,,,,,,,,,,,,,,,,,,,,,,,,,,,,,,,,,,
,,,,,,60ddfb3db6a71ad9ba75e387,62c5561f19b9e62dca3133ef,2022-07-06_11h30.57.438,Colour_Asymmetry_Pilot,2022.1.3,Win32,60.16485169,62c50e9c1127f2cd403a315f,0,73,73,91,1,twofour,,,,,,,,,,,,,,,,,,,,,,,,,,,,,,,,,,,,,,,,,,,,,,,,,,,,,,,,,,,,,,,,,,,,,,,,,,,,,,,,,,,,,,,,,,,,,,,,,,,,,,,,,,,,,,,,,,,,,,,,,,,,,,,,,,,,,,,,,,,,,,,,,,,,,,,,,,,,,
,,,,,,60ddfb3db6a71ad9ba75e387,62c5561f19b9e62dca3133ef,2022-07-06_11h30.57.438,Colour_Asymmetry_Pilot,2022.1.3,Win32,60.16485169,62c50e9c1127f2cd403a315f,0,74,74,153,1,onethree,,,,,,,,,,,,,,,,,,,,,,,,,,,,,,,,,,,,,,,,,,,,,,,,,,,,,,,,,,,,,,,,,,,,,,,,,,,,,,,,,,,,,,,,,,,,,,,,,,,,,,,,,,,,,,,,,,,,,,,,,,,,,,,,,,,,,,,,,,,,,,,,,,,,,,,,,,,,,
,,,,,,60ddfb3db6a71ad9ba75e387,62c5561f19b9e62dca3133ef,2022-07-06_11h30.57.438,Colour_Asymmetry_Pilot,2022.1.3,Win32,60.16485169,62c50e9c1127f2cd403a315f,0,75,75,135,1,fourthree,,,,,,,,,,,,,,,,,,,,,,,,,,,,,,,,,,,,,,,,,,,,,,,,,,,,,,,,,,,,,,,,,,,,,,,,,,,,,,,,,,,,,,,,,,,,,,,,,,,,,,,,,,,,,,,,,,,,,,,,,,,,,,,,,,,,,,,,,,,,,,,,,,,,,,,,,,,,,
,,,,,,60ddfb3db6a71ad9ba75e387,62c5561f19b9e62dca3133ef,2022-07-06_11h30.57.438,Colour_Asymmetry_Pilot,2022.1.3,Win32,60.16485169,62c50e9c1127f2cd403a315f,0,76,76,5,1,threefour,,,,,,,,,,,,,,,,,,,,,,,,,,,,,,,,,,,,,,,,,,,,,,,,,,,,,,,,,,,,,,,,,,,,,,,,,,,,,,,,,,,,,,,,,,,,,,,,,,,,,,,,,,,,,,,,,,,,,,,,,,,,,,,,,,,,,,,,,,,,,,,,,,,,,,,,,,,,,
,,,,,,60ddfb3db6a71ad9ba75e387,62c5561f19b9e62dca3133ef,2022-07-06_11h30.57.438,Colour_Asymmetry_Pilot,2022.1.3,Win32,60.16485169,62c50e9c1127f2cd403a315f,0,77,77,56,1,onetwo,,,,,,,,,,,,,,,,,,,,,,,,,,,,,,,,,,,,,,,,,,,,,,,,,,,,,,,,,,,,,,,,,,,,,,,,,,,,,,,,,,,,,,,,,,,,,,,,,,,,,,,,,,,,,,,,,,,,,,,,,,,,,,,,,,,,,,,,,,,,,,,,,,,,,,,,,,,,,
,,,,,,60ddfb3db6a71ad9ba75e387,62c5561f19b9e62dca3133ef,2022-07-06_11h30.57.438,Colour_Asymmetry_Pilot,2022.1.3,Win32,60.16485169,62c50e9c1127f2cd403a315f,0,78,78,50,1,twoone,,,,,,,,,,,,,,,,,,,,,,,,,,,,,,,,,,,,,,,,,,,,,,,,,,,,,,,,,,,,,,,,,,,,,,,,,,,,,,,,,,,,,,,,,,,,,,,,,,,,,,,,,,,,,,,,,,,,,,,,,,,,,,,,,,,,,,,,,,,,,,,,,,,,,,,,,,,,,
,,,,,,60ddfb3db6a71ad9ba75e387,62c5561f19b9e62dca3133ef,2022-07-06_11h30.57.438,Colour_Asymmetry_Pilot,2022.1.3,Win32,60.16485169,62c50e9c1127f2cd403a315f,0,79,79,161,1,onethree,,,,,,,,,,,,,,,,,,,,,,,,,,,,,,,,,,,,,,,,,,,,,,,,,,,,,,,,,,,,,,,,,,,,,,,,,,,,,,,,,,,,,,,,,,,,,,,,,,,,,,,,,,,,,,,,,,,,,,,,,,,,,,,,,,,,,,,,,,,,,,,,,,,,,,,,,,,,,
,,,,,,60ddfb3db6a71ad9ba75e387,62c5561f19b9e62dca3133ef,2022-07-06_11h30.57.438,Colour_Asymmetry_Pilot,2022.1.3,Win32,60.16485169,62c50e9c1127f2cd403a315f,0,80,80,122,1,twoone,,,,,,,,,,,,,,,,,,,,,,,,,,,,,,,,,,,,,,,,,,,,,,,,,,,,,,,,,,,,,,,,,,,,,,,,,,,,,,,,,,,,,,,,,,,,,,,,,,,,,,,,,,,,,,,,,,,,,,,,,,,,,,,,,,,,,,,,,,,,,,,,,,,,,,,,,,,,,
,,,,,,60ddfb3db6a71ad9ba75e387,62c5561f19b9e62dca3133ef,2022-07-06_11h30.57.438,Colour_Asymmetry_Pilot,2022.1.3,Win32,60.16485169,62c50e9c1127f2cd403a315f,0,81,81,115,1,twofour,,,,,,,,,,,,,,,,,,,,,,,,,,,,,,,,,,,,,,,,,,,,,,,,,,,,,,,,,,,,,,,,,,,,,,,,,,,,,,,,,,,,,,,,,,,,,,,,,,,,,,,,,,,,,,,,,,,,,,,,,,,,,,,,,,,,,,,,,,,,,,,,,,,,,,,,,,,,,
,,,,,,60ddfb3db6a71ad9ba75e387,62c5561f19b9e62dca3133ef,2022-07-06_11h30.57.438,Colour_Asymmetry_Pilot,2022.1.3,Win32,60.16485169,62c50e9c1127f2cd403a315f,0,82,82,64,1,onetwo,,,,,,,,,,,,,,,,,,,,,,,,,,,,,,,,,,,,,,,,,,,,,,,,,,,,,,,,,,,,,,,,,,,,,,,,,,,,,,,,,,,,,,,,,,,,,,,,,,,,,,,,,,,,,,,,,,,,,,,,,,,,,,,,,,,,,,,,,,,,,,,,,,,,,,,,,,,,,
,,,,,,60ddfb3db6a71ad9ba75e387,62c5561f19b9e62dca3133ef,2022-07-06_11h30.57.438,Colour_Asymmetry_Pilot,2022.1.3,Win32,60.16485169,62c50e9c1127f2cd403a315f,0,83,83,20,1,threeone,,,,,,,,,,,,,,,,,,,,,,,,,,,,,,,,,,,,,,,,,,,,,,,,,,,,,,,,,,,,,,,,,,,,,,,,,,,,,,,,,,,,,,,,,,,,,,,,,,,,,,,,,,,,,,,,,,,,,,,,,,,,,,,,,,,,,,,,,,,,,,,,,,,,,,,,,,,,,
,,,,,,60ddfb3db6a71ad9ba75e387,62c5561f19b9e62dca3133ef,2022-07-06_11h30.57.438,Colour_Asymmetry_Pilot,2022.1.3,Win32,60.16485169,62c50e9c1127f2cd403a315f,0,84,84,126,1,fourtwo,,,,,,,,,,,,,,,,,,,,,,,,,,,,,,,,,,,,,,,,,,,,,,,,,,,,,,,,,,,,,,,,,,,,,,,,,,,,,,,,,,,,,,,,,,,,,,,,,,,,,,,,,,,,,,,,,,,,,,,,,,,,,,,,,,,,,,,,,,,,,,,,,,,,,,,,,,,,,
,,,,,,60ddfb3db6a71ad9ba75e387,62c5561f19b9e62dca3133ef,2022-07-06_11h30.57.438,Colour_Asymmetry_Pilot,2022.1.3,Win32,60.16485169,62c50e9c1127f2cd403a315f,0,85,85,55,1,fourthree,,,,,,,,,,,,,,,,,,,,,,,,,,,,,,,,,,,,,,,,,,,,,,,,,,,,,,,,,,,,,,,,,,,,,,,,,,,,,,,,,,,,,,,,,,,,,,,,,,,,,,,,,,,,,,,,,,,,,,,,,,,,,,,,,,,,,,,,,,,,,,,,,,,,,,,,,,,,,
,,,,,,60ddfb3db6a71ad9ba75e387,62c5561f19b9e62dca3133ef,2022-07-06_11h30.57.438,Colour_Asymmetry_Pilot,2022.1.3,Win32,60.16485169,62c50e9c1127f2cd403a315f,0,86,86,100,1,threeone,,,,,,,,,,,,,,,,,,,,,,,,,,,,,,,,,,,,,,,,,,,,,,,,,,,,,,,,,,,,,,,,,,,,,,,,,,,,,,,,,,,,,,,,,,,,,,,,,,,,,,,,,,,,,,,,,,,,,,,,,,,,,,,,,,,,,,,,,,,,,,,,,,,,,,,,,,,,,
,,,,,,60ddfb3db6a71ad9ba75e387,62c5561f19b9e62dca3133ef,2022-07-06_11h30.57.438,Colour_Asymmetry_Pilot,2022.1.3,Win32,60.16485169,62c50e9c1127f2cd403a315f,0,87,87,79,1,fourthree,,,,,,,,,,,,,,,,,,,,,,,,,,,,,,,,,,,,,,,,,,,,,,,,,,,,,,,,,,,,,,,,,,,,,,,,,,,,,,,,,,,,,,,,,,,,,,,,,,,,,,,,,,,,,,,,,,,,,,,,,,,,,,,,,,,,,,,,,,,,,,,,,,,,,,,,,,,,,
,,,,,,60ddfb3db6a71ad9ba75e387,62c5561f19b9e62dca3133ef,2022-07-06_11h30.57.438,Colour_Asymmetry_Pilot,2022.1.3,Win32,60.16485169,62c50e9c1127f2cd403a315f,0,88,88,28,1,threeone,,,,,,,,,,,,,,,,,,,,,,,,,,,,,,,,,,,,,,,,,,,,,,,,,,,,,,,,,,,,,,,,,,,,,,,,,,,,,,,,,,,,,,,,,,,,,,,,,,,,,,,,,,,,,,,,,,,,,,,,,,,,,,,,,,,,,,,,,,,,,,,,,,,,,,,,,,,,,
,,,,,,60ddfb3db6a71ad9ba75e387,62c5561f19b9e62dca3133ef,2022-07-06_11h30.57.438,Colour_Asymmetry_Pilot,2022.1.3,Win32,60.16485169,62c50e9c1127f2cd403a315f,0,89,89,47,1,fourthree,,,,,,,,,,,,,,,,,,,,,,,,,,,,,,,,,,,,,,,,,,,,,,,,,,,,,,,,,,,,,,,,,,,,,,,,,,,,,,,,,,,,,,,,,,,,,,,,,,,,,,,,,,,,,,,,,,,,,,,,,,,,,,,,,,,,,,,,,,,,,,,,,,,,,,,,,,,,,
,,,,,,60ddfb3db6a71ad9ba75e387,62c5561f19b9e62dca3133ef,2022-07-06_11h30.57.438,Colour_Asymmetry_Pilot,2022.1.3,Win32,60.16485169,62c50e9c1127f2cd403a315f,0,90,90,119,1,fourthree,,,,,,,,,,,,,,,,,,,,,,,,,,,,,,,,,,,,,,,,,,,,,,,,,,,,,,,,,,,,,,,,,,,,,,,,,,,,,,,,,,,,,,,,,,,,,,,,,,,,,,,,,,,,,,,,,,,,,,,,,,,,,,,,,,,,,,,,,,,,,,,,,,,,,,,,,,,,,
,,,,,,60ddfb3db6a71ad9ba75e387,62c5561f19b9e62dca3133ef,2022-07-06_11h30.57.438,Colour_Asymmetry_Pilot,2022.1.3,Win32,60.16485169,62c50e9c1127f2cd403a315f,0,91,91,70,1,fourtwo,,,,,,,,,,,,,,,,,,,,,,,,,,,,,,,,,,,,,,,,,,,,,,,,,,,,,,,,,,,,,,,,,,,,,,,,,,,,,,,,,,,,,,,,,,,,,,,,,,,,,,,,,,,,,,,,,,,,,,,,,,,,,,,,,,,,,,,,,,,,,,,,,,,,,,,,,,,,,
,,,,,,60ddfb3db6a71ad9ba75e387,62c5561f19b9e62dca3133ef,2022-07-06_11h30.57.438,Colour_Asymmetry_Pilot,2022.1.3,Win32,60.16485169,62c50e9c1127f2cd403a315f,0,92,92,59,1,twofour,,,,,,,,,,,,,,,,,,,,,,,,,,,,,,,,,,,,,,,,,,,,,,,,,,,,,,,,,,,,,,,,,,,,,,,,,,,,,,,,,,,,,,,,,,,,,,,,,,,,,,,,,,,,,,,,,,,,,,,,,,,,,,,,,,,,,,,,,,,,,,,,,,,,,,,,,,,,,
,,,,,,60ddfb3db6a71ad9ba75e387,62c5561f19b9e62dca3133ef,2022-07-06_11h30.57.438,Colour_Asymmetry_Pilot,2022.1.3,Win32,60.16485169,62c50e9c1127f2cd403a315f,0,93,93,14,1,fourtwo,,,,,,,,,,,,,,,,,,,,,,,,,,,,,,,,,,,,,,,,,,,,,,,,,,,,,,,,,,,,,,,,,,,,,,,,,,,,,,,,,,,,,,,,,,,,,,,,,,,,,,,,,,,,,,,,,,,,,,,,,,,,,,,,,,,,,,,,,,,,,,,,,,,,,,,,,,,,,
,,,,,,60ddfb3db6a71ad9ba75e387,62c5561f19b9e62dca3133ef,2022-07-06_11h30.57.438,Colour_Asymmetry_Pilot,2022.1.3,Win32,60.16485169,62c50e9c1127f2cd403a315f,0,94,94,44,1,threeone,,,,,,,,,,,,,,,,,,,,,,,,,,,,,,,,,,,,,,,,,,,,,,,,,,,,,,,,,,,,,,,,,,,,,,,,,,,,,,,,,,,,,,,,,,,,,,,,,,,,,,,,,,,,,,,,,,,,,,,,,,,,,,,,,,,,,,,,,,,,,,,,,,,,,,,,,,,,,
,,,,,,60ddfb3db6a71ad9ba75e387,62c5561f19b9e62dca3133ef,2022-07-06_11h30.57.438,Colour_Asymmetry_Pilot,2022.1.3,Win32,60.16485169,62c50e9c1127f2cd403a315f,0,95,95,46,1,fourtwo,,,,,,,,,,,,,,,,,,,,,,,,,,,,,,,,,,,,,,,,,,,,,,,,,,,,,,,,,,,,,,,,,,,,,,,,,,,,,,,,,,,,,,,,,,,,,,,,,,,,,,,,,,,,,,,,,,,,,,,,,,,,,,,,,,,,,,,,,,,,,,,,,,,,,,,,,,,,,
,,,,,,60ddfb3db6a71ad9ba75e387,62c5561f19b9e62dca3133ef,2022-07-06_11h30.57.438,Colour_Asymmetry_Pilot,2022.1.3,Win32,60.16485169,62c50e9c1127f2cd403a315f,0,96,96,58,1,twoone,,,,,,,,,,,,,,,,,,,,,,,,,,,,,,,,,,,,,,,,,,,,,,,,,,,,,,,,,,,,,,,,,,,,,,,,,,,,,,,,,,,,,,,,,,,,,,,,,,,,,,,,,,,,,,,,,,,,,,,,,,,,,,,,,,,,,,,,,,,,,,,,,,,,,,,,,,,,,
,,,,,,60ddfb3db6a71ad9ba75e387,62c5561f19b9e62dca3133ef,2022-07-06_11h30.57.438,Colour_Asymmetry_Pilot,2022.1.3,Win32,60.16485169,62c50e9c1127f2cd403a315f,0,97,97,149,1,threefour,,,,,,,,,,,,,,,,,,,,,,,,,,,,,,,,,,,,,,,,,,,,,,,,,,,,,,,,,,,,,,,,,,,,,,,,,,,,,,,,,,,,,,,,,,,,,,,,,,,,,,,,,,,,,,,,,,,,,,,,,,,,,,,,,,,,,,,,,,,,,,,,,,,,,,,,,,,,,
,,,,,,60ddfb3db6a71ad9ba75e387,62c5561f19b9e62dca3133ef,2022-07-06_11h30.57.438,Colour_Asymmetry_Pilot,2022.1.3,Win32,60.16485169,62c50e9c1127f2cd403a315f,0,98,98,65,1,onethree,,,,,,,,,,,,,,,,,,,,,,,,,,,,,,,,,,,,,,,,,,,,,,,,,,,,,,,,,,,,,,,,,,,,,,,,,,,,,,,,,,,,,,,,,,,,,,,,,,,,,,,,,,,,,,,,,,,,,,,,,,,,,,,,,,,,,,,,,,,,,,,,,,,,,,,,,,,,,
,,,,,,60ddfb3db6a71ad9ba75e387,62c5561f19b9e62dca3133ef,2022-07-06_11h30.57.438,Colour_Asymmetry_Pilot,2022.1.3,Win32,60.16485169,62c50e9c1127f2cd403a315f,0,99,99,127,1,fourthree,,,,,,,,,,,,,,,,,,,,,,,,,,,,,,,,,,,,,,,,,,,,,,,,,,,,,,,,,,,,,,,,,,,,,,,,,,,,,,,,,,,,,,,,,,,,,,,,,,,,,,,,,,,,,,,,,,,,,,,,,,,,,,,,,,,,,,,,,,,,,,,,,,,,,,,,,,,,,
,,,,,,60ddfb3db6a71ad9ba75e387,62c5561f19b9e62dca3133ef,2022-07-06_11h30.57.438,Colour_Asymmetry_Pilot,2022.1.3,Win32,60.16485169,62c50e9c1127f2cd403a315f,0,100,100,110,1,fourtwo,,,,,,,,,,,,,,,,,,,,,,,,,,,,,,,,,,,,,,,,,,,,,,,,,,,,,,,,,,,,,,,,,,,,,,,,,,,,,,,,,,,,,,,,,,,,,,,,,,,,,,,,,,,,,,,,,,,,,,,,,,,,,,,,,,,,,,,,,,,,,,,,,,,,,,,,,,,,,
,,,,,,60ddfb3db6a71ad9ba75e387,62c5561f19b9e62dca3133ef,2022-07-06_11h30.57.438,Colour_Asymmetry_Pilot,2022.1.3,Win32,60.16485169,62c50e9c1127f2cd403a315f,0,101,101,62,1,fourtwo,,,,,,,,,,,,,,,,,,,,,,,,,,,,,,,,,,,,,,,,,,,,,,,,,,,,,,,,,,,,,,,,,,,,,,,,,,,,,,,,,,,,,,,,,,,,,,,,,,,,,,,,,,,,,,,,,,,,,,,,,,,,,,,,,,,,,,,,,,,,,,,,,,,,,,,,,,,,,
,,,,,,60ddfb3db6a71ad9ba75e387,62c5561f19b9e62dca3133ef,2022-07-06_11h30.57.438,Colour_Asymmetry_Pilot,2022.1.3,Win32,60.16485169,62c50e9c1127f2cd403a315f,0,102,102,98,1,twoone,,,,,,,,,,,,,,,,,,,,,,,,,,,,,,,,,,,,,,,,,,,,,,,,,,,,,,,,,,,,,,,,,,,,,,,,,,,,,,,,,,,,,,,,,,,,,,,,,,,,,,,,,,,,,,,,,,,,,,,,,,,,,,,,,,,,,,,,,,,,,,,,,,,,,,,,,,,,,
,,,,,,60ddfb3db6a71ad9ba75e387,62c5561f19b9e62dca3133ef,2022-07-06_11h30.57.438,Colour_Asymmetry_Pilot,2022.1.3,Win32,60.16485169,62c50e9c1127f2cd403a315f,0,103,103,9,1,onethree,,,,,,,,,,,,,,,,,,,,,,,,,,,,,,,,,,,,,,,,,,,,,,,,,,,,,,,,,,,,,,,,,,,,,,,,,,,,,,,,,,,,,,,,,,,,,,,,,,,,,,,,,,,,,,,,,,,,,,,,,,,,,,,,,,,,,,,,,,,,,,,,,,,,,,,,,,,,,
,,,,,,60ddfb3db6a71ad9ba75e387,62c5561f19b9e62dca3133ef,2022-07-06_11h30.57.438,Colour_Asymmetry_Pilot,2022.1.3,Win32,60.16485169,62c50e9c1127f2cd403a315f,0,104,104,123,1,twofour,,,,,,,,,,,,,,,,,,,,,,,,,,,,,,,,,,,,,,,,,,,,,,,,,,,,,,,,,,,,,,,,,,,,,,,,,,,,,,,,,,,,,,,,,,,,,,,,,,,,,,,,,,,,,,,,,,,,,,,,,,,,,,,,,,,,,,,,,,,,,,,,,,,,,,,,,,,,,
,,,,,,60ddfb3db6a71ad9ba75e387,62c5561f19b9e62dca3133ef,2022-07-06_11h30.57.438,Colour_Asymmetry_Pilot,2022.1.3,Win32,60.16485169,62c50e9c1127f2cd403a315f,0,105,105,142,1,fourtwo,,,,,,,,,,,,,,,,,,,,,,,,,,,,,,,,,,,,,,,,,,,,,,,,,,,,,,,,,,,,,,,,,,,,,,,,,,,,,,,,,,,,,,,,,,,,,,,,,,,,,,,,,,,,,,,,,,,,,,,,,,,,,,,,,,,,,,,,,,,,,,,,,,,,,,,,,,,,,
,,,,,,60ddfb3db6a71ad9ba75e387,62c5561f19b9e62dca3133ef,2022-07-06_11h30.57.438,Colour_Asymmetry_Pilot,2022.1.3,Win32,60.16485169,62c50e9c1127f2cd403a315f,0,106,106,118,1,fourtwo,,,,,,,,,,,,,,,,,,,,,,,,,,,,,,,,,,,,,,,,,,,,,,,,,,,,,,,,,,,,,,,,,,,,,,,,,,,,,,,,,,,,,,,,,,,,,,,,,,,,,,,,,,,,,,,,,,,,,,,,,,,,,,,,,,,,,,,,,,,,,,,,,,,,,,,,,,,,,
,,,,,,60ddfb3db6a71ad9ba75e387,62c5561f19b9e62dca3133ef,2022-07-06_11h30.57.438,Colour_Asymmetry_Pilot,2022.1.3,Win32,60.16485169,62c50e9c1127f2cd403a315f,0,107,107,112,1,onetwo,,,,,,,,,,,,,,,,,,,,,,,,,,,,,,,,,,,,,,,,,,,,,,,,,,,,,,,,,,,,,,,,,,,,,,,,,,,,,,,,,,,,,,,,,,,,,,,,,,,,,,,,,,,,,,,,,,,,,,,,,,,,,,,,,,,,,,,,,,,,,,,,,,,,,,,,,,,,,
,,,,,,60ddfb3db6a71ad9ba75e387,62c5561f19b9e62dca3133ef,2022-07-06_11h30.57.438,Colour_Asymmetry_Pilot,2022.1.3,Win32,60.16485169,62c50e9c1127f2cd403a315f,0,108,108,73,1,onethree,,,,,,,,,,,,,,,,,,,,,,,,,,,,,,,,,,,,,,,,,,,,,,,,,,,,,,,,,,,,,,,,,,,,,,,,,,,,,,,,,,,,,,,,,,,,,,,,,,,,,,,,,,,,,,,,,,,,,,,,,,,,,,,,,,,,,,,,,,,,,,,,,,,,,,,,,,,,,
,,,,,,60ddfb3db6a71ad9ba75e387,62c5561f19b9e62dca3133ef,2022-07-06_11h30.57.438,Colour_Asymmetry_Pilot,2022.1.3,Win32,60.16485169,62c50e9c1127f2cd403a315f,0,109,109,69,1,threefour,,,,,,,,,,,,,,,,,,,,,,,,,,,,,,,,,,,,,,,,,,,,,,,,,,,,,,,,,,,,,,,,,,,,,,,,,,,,,,,,,,,,,,,,,,,,,,,,,,,,,,,,,,,,,,,,,,,,,,,,,,,,,,,,,,,,,,,,,,,,,,,,,,,,,,,,,,,,,
,,,,,,60ddfb3db6a71ad9ba75e387,62c5561f19b9e62dca3133ef,2022-07-06_11h30.57.438,Colour_Asymmetry_Pilot,2022.1.3,Win32,60.16485169,62c50e9c1127f2cd403a315f,0,110,110,107,1,twofour,,,,,,,,,,,,,,,,,,,,,,,,,,,,,,,,,,,,,,,,,,,,,,,,,,,,,,,,,,,,,,,,,,,,,,,,,,,,,,,,,,,,,,,,,,,,,,,,,,,,,,,,,,,,,,,,,,,,,,,,,,,,,,,,,,,,,,,,,,,,,,,,,,,,,,,,,,,,,
,,,,,,60ddfb3db6a71ad9ba75e387,62c5561f19b9e62dca3133ef,2022-07-06_11h30.57.438,Colour_Asymmetry_Pilot,2022.1.3,Win32,60.16485169,62c50e9c1127f2cd403a315f,0,111,111,148,1,threeone,,,,,,,,,,,,,,,,,,,,,,,,,,,,,,,,,,,,,,,,,,,,,,,,,,,,,,,,,,,,,,,,,,,,,,,,,,,,,,,,,,,,,,,,,,,,,,,,,,,,,,,,,,,,,,,,,,,,,,,,,,,,,,,,,,,,,,,,,,,,,,,,,,,,,,,,,,,,,
,,,,,,60ddfb3db6a71ad9ba75e387,62c5561f19b9e62dca3133ef,2022-07-06_11h30.57.438,Colour_Asymmetry_Pilot,2022.1.3,Win32,60.16485169,62c50e9c1127f2cd403a315f,0,112,112,157,1,threefour,,,,,,,,,,,,,,,,,,,,,,,,,,,,,,,,,,,,,,,,,,,,,,,,,,,,,,,,,,,,,,,,,,,,,,,,,,,,,,,,,,,,,,,,,,,,,,,,,,,,,,,,,,,,,,,,,,,,,,,,,,,,,,,,,,,,,,,,,,,,,,,,,,,,,,,,,,,,,
,,,,,,60ddfb3db6a71ad9ba75e387,62c5561f19b9e62dca3133ef,2022-07-06_11h30.57.438,Colour_Asymmetry_Pilot,2022.1.3,Win32,60.16485169,62c50e9c1127f2cd403a315f,0,113,113,90,1,twoone,,,,,,,,,,,,,,,,,,,,,,,,,,,,,,,,,,,,,,,,,,,,,,,,,,,,,,,,,,,,,,,,,,,,,,,,,,,,,,,,,,,,,,,,,,,,,,,,,,,,,,,,,,,,,,,,,,,,,,,,,,,,,,,,,,,,,,,,,,,,,,,,,,,,,,,,,,,,,
,,,,,,60ddfb3db6a71ad9ba75e387,62c5561f19b9e62dca3133ef,2022-07-06_11h30.57.438,Colour_Asymmetry_Pilot,2022.1.3,Win32,60.16485169,62c50e9c1127f2cd403a315f,0,114,114,53,1,threefour,,,,,,,,,,,,,,,,,,,,,,,,,,,,,,,,,,,,,,,,,,,,,,,,,,,,,,,,,,,,,,,,,,,,,,,,,,,,,,,,,,,,,,,,,,,,,,,,,,,,,,,,,,,,,,,,,,,,,,,,,,,,,,,,,,,,,,,,,,,,,,,,,,,,,,,,,,,,,
,,,,,,60ddfb3db6a71ad9ba75e387,62c5561f19b9e62dca3133ef,2022-07-06_11h30.57.438,Colour_Asymmetry_Pilot,2022.1.3,Win32,60.16485169,62c50e9c1127f2cd403a315f,0,115,115,8,1,onetwo,,,,,,,,,,,,,,,,,,,,,,,,,,,,,,,,,,,,,,,,,,,,,,,,,,,,,,,,,,,,,,,,,,,,,,,,,,,,,,,,,,,,,,,,,,,,,,,,,,,,,,,,,,,,,,,,,,,,,,,,,,,,,,,,,,,,,,,,,,,,,,,,,,,,,,,,,,,,,
,,,,,,60ddfb3db6a71ad9ba75e387,62c5561f19b9e62dca3133ef,2022-07-06_11h30.57.438,Colour_Asymmetry_Pilot,2022.1.3,Win32,60.16485169,62c50e9c1127f2cd403a315f,0,116,116,82,1,twoone,,,,,,,,,,,,,,,,,,,,,,,,,,,,,,,,,,,,,,,,,,,,,,,,,,,,,,,,,,,,,,,,,,,,,,,,,,,,,,,,,,,,,,,,,,,,,,,,,,,,,,,,,,,,,,,,,,,,,,,,,,,,,,,,,,,,,,,,,,,,,,,,,,,,,,,,,,,,,
,,,,,,60ddfb3db6a71ad9ba75e387,62c5561f19b9e62dca3133ef,2022-07-06_11h30.57.438,Colour_Asymmetry_Pilot,2022.1.3,Win32,60.16485169,62c50e9c1127f2cd403a315f,0,117,117,146,1,twoone,,,,,,,,,,,,,,,,,,,,,,,,,,,,,,,,,,,,,,,,,,,,,,,,,,,,,,,,,,,,,,,,,,,,,,,,,,,,,,,,,,,,,,,,,,,,,,,,,,,,,,,,,,,,,,,,,,,,,,,,,,,,,,,,,,,,,,,,,,,,,,,,,,,,,,,,,,,,,
,,,,,,60ddfb3db6a71ad9ba75e387,62c5561f19b9e62dca3133ef,2022-07-06_11h30.57.438,Colour_Asymmetry_Pilot,2022.1.3,Win32,60.16485169,62c50e9c1127f2cd403a315f,0,118,118,12,1,threeone,,,,,,,,,,,,,,,,,,,,,,,,,,,,,,,,,,,,,,,,,,,,,,,,,,,,,,,,,,,,,,,,,,,,,,,,,,,,,,,,,,,,,,,,,,,,,,,,,,,,,,,,,,,,,,,,,,,,,,,,,,,,,,,,,,,,,,,,,,,,,,,,,,,,,,,,,,,,,
,,,,,,60ddfb3db6a71ad9ba75e387,62c5561f19b9e62dca3133ef,2022-07-06_11h30.57.438,Colour_Asymmetry_Pilot,2022.1.3,Win32,60.16485169,62c50e9c1127f2cd403a315f,0,119,119,117,1,threefour,,,,,,,,,,,,,,,,,,,,,,,,,,,,,,,,,,,,,,,,,,,,,,,,,,,,,,,,,,,,,,,,,,,,,,,,,,,,,,,,,,,,,,,,,,,,,,,,,,,,,,,,,,,,,,,,,,,,,,,,,,,,,,,,,,,,,,,,,,,,,,,,,,,,,,,,,,,,,
,,,,,,60ddfb3db6a71ad9ba75e387,62c5561f19b9e62dca3133ef,2022-07-06_11h30.57.438,Colour_Asymmetry_Pilot,2022.1.3,Win32,60.16485169,62c50e9c1127f2cd403a315f,0,120,120,97,1,onethree,,,,,,,,,,,,,,,,,,,,,,,,,,,,,,,,,,,,,,,,,,,,,,,,,,,,,,,,,,,,,,,,,,,,,,,,,,,,,,,,,,,,,,,,,,,,,,,,,,,,,,,,,,,,,,,,,,,,,,,,,,,,,,,,,,,,,,,,,,,,,,,,,,,,,,,,,,,,,
,,,,,,60ddfb3db6a71ad9ba75e387,62c5561f19b9e62dca3133ef,2022-07-06_11h30.57.438,Colour_Asymmetry_Pilot,2022.1.3,Win32,60.16485169,62c50e9c1127f2cd403a315f,0,121,121,143,1,fourthree,,,,,,,,,,,,,,,,,,,,,,,,,,,,,,,,,,,,,,,,,,,,,,,,,,,,,,,,,,,,,,,,,,,,,,,,,,,,,,,,,,,,,,,,,,,,,,,,,,,,,,,,,,,,,,,,,,,,,,,,,,,,,,,,,,,,,,,,,,,,,,,,,,,,,,,,,,,,,
,,,,,,60ddfb3db6a71ad9ba75e387,62c5561f19b9e62dca3133ef,2022-07-06_11h30.57.438,Colour_Asymmetry_Pilot,2022.1.3,Win32,60.16485169,62c50e9c1127f2cd403a315f,0,122,122,23,1,fourthree,,,,,,,,,,,,,,,,,,,,,,,,,,,,,,,,,,,,,,,,,,,,,,,,,,,,,,,,,,,,,,,,,,,,,,,,,,,,,,,,,,,,,,,,,,,,,,,,,,,,,,,,,,,,,,,,,,,,,,,,,,,,,,,,,,,,,,,,,,,,,,,,,,,,,,,,,,,,,
,,,,,,60ddfb3db6a71ad9ba75e387,62c5561f19b9e62dca3133ef,2022-07-06_11h30.57.438,Colour_Asymmetry_Pilot,2022.1.3,Win32,60.16485169,62c50e9c1127f2cd403a315f,0,123,123,72,1,onetwo,,,,,,,,,,,,,,,,,,,,,,,,,,,,,,,,,,,,,,,,,,,,,,,,,,,,,,,,,,,,,,,,,,,,,,,,,,,,,,,,,,,,,,,,,,,,,,,,,,,,,,,,,,,,,,,,,,,,,,,,,,,,,,,,,,,,,,,,,,,,,,,,,,,,,,,,,,,,,
,,,,,,60ddfb3db6a71ad9ba75e387,62c5561f19b9e62dca3133ef,2022-07-06_11h30.57.438,Colour_Asymmetry_Pilot,2022.1.3,Win32,60.16485169,62c50e9c1127f2cd403a315f,0,124,124,34,1,twoone,,,,,,,,,,,,,,,,,,,,,,,,,,,,,,,,,,,,,,,,,,,,,,,,,,,,,,,,,,,,,,,,,,,,,,,,,,,,,,,,,,,,,,,,,,,,,,,,,,,,,,,,,,,,,,,,,,,,,,,,,,,,,,,,,,,,,,,,,,,,,,,,,,,,,,,,,,,,,
,,,,,,60ddfb3db6a71ad9ba75e387,62c5561f19b9e62dca3133ef,2022-07-06_11h30.57.438,Colour_Asymmetry_Pilot,2022.1.3,Win32,60.16485169,62c50e9c1127f2cd403a315f,0,125,125,158,1,fourtwo,,,,,,,,,,,,,,,,,,,,,,,,,,,,,,,,,,,,,,,,,,,,,,,,,,,,,,,,,,,,,,,,,,,,,,,,,,,,,,,,,,,,,,,,,,,,,,,,,,,,,,,,,,,,,,,,,,,,,,,,,,,,,,,,,,,,,,,,,,,,,,,,,,,,,,,,,,,,,
,,,,,,60ddfb3db6a71ad9ba75e387,62c5561f19b9e62dca3133ef,2022-07-06_11h30.57.438,Colour_Asymmetry_Pilot,2022.1.3,Win32,60.16485169,62c50e9c1127f2cd403a315f,0,126,126,15,1,fourthree,,,,,,,,,,,,,,,,,,,,,,,,,,,,,,,,,,,,,,,,,,,,,,,,,,,,,,,,,,,,,,,,,,,,,,,,,,,,,,,,,,,,,,,,,,,,,,,,,,,,,,,,,,,,,,,,,,,,,,,,,,,,,,,,,,,,,,,,,,,,,,,,,,,,,,,,,,,,,
,,,,,,60ddfb3db6a71ad9ba75e387,62c5561f19b9e62dca3133ef,2022-07-06_11h30.57.438,Colour_Asymmetry_Pilot,2022.1.3,Win32,60.16485169,62c50e9c1127f2cd403a315f,0,127,127,139,1,twofour,,,,,,,,,,,,,,,,,,,,,,,,,,,,,,,,,,,,,,,,,,,,,,,,,,,,,,,,,,,,,,,,,,,,,,,,,,,,,,,,,,,,,,,,,,,,,,,,,,,,,,,,,,,,,,,,,,,,,,,,,,,,,,,,,,,,,,,,,,,,,,,,,,,,,,,,,,,,,
,,,,,,60ddfb3db6a71ad9ba75e387,62c5561f19b9e62dca3133ef,2022-07-06_11h30.57.438,Colour_Asymmetry_Pilot,2022.1.3,Win32,60.16485169,62c50e9c1127f2cd403a315f,0,128,128,74,1,twoone,,,,,,,,,,,,,,,,,,,,,,,,,,,,,,,,,,,,,,,,,,,,,,,,,,,,,,,,,,,,,,,,,,,,,,,,,,,,,,,,,,,,,,,,,,,,,,,,,,,,,,,,,,,,,,,,,,,,,,,,,,,,,,,,,,,,,,,,,,,,,,,,,,,,,,,,,,,,,
,,,,,,60ddfb3db6a71ad9ba75e387,62c5561f19b9e62dca3133ef,2022-07-06_11h30.57.438,Colour_Asymmetry_Pilot,2022.1.3,Win32,60.16485169,62c50e9c1127f2cd403a315f,0,129,129,138,1,twoone,,,,,,,,,,,,,,,,,,,,,,,,,,,,,,,,,,,,,,,,,,,,,,,,,,,,,,,,,,,,,,,,,,,,,,,,,,,,,,,,,,,,,,,,,,,,,,,,,,,,,,,,,,,,,,,,,,,,,,,,,,,,,,,,,,,,,,,,,,,,,,,,,,,,,,,,,,,,,
,,,,,,60ddfb3db6a71ad9ba75e387,62c5561f19b9e62dca3133ef,2022-07-06_11h30.57.438,Colour_Asymmetry_Pilot,2022.1.3,Win32,60.16485169,62c50e9c1127f2cd403a315f,0,130,130,76,1,threeone,,,,,,,,,,,,,,,,,,,,,,,,,,,,,,,,,,,,,,,,,,,,,,,,,,,,,,,,,,,,,,,,,,,,,,,,,,,,,,,,,,,,,,,,,,,,,,,,,,,,,,,,,,,,,,,,,,,,,,,,,,,,,,,,,,,,,,,,,,,,,,,,,,,,,,,,,,,,,
,,,,,,60ddfb3db6a71ad9ba75e387,62c5561f19b9e62dca3133ef,2022-07-06_11h30.57.438,Colour_Asymmetry_Pilot,2022.1.3,Win32,60.16485169,62c50e9c1127f2cd403a315f,0,131,131,83,1,twofour,,,,,,,,,,,,,,,,,,,,,,,,,,,,,,,,,,,,,,,,,,,,,,,,,,,,,,,,,,,,,,,,,,,,,,,,,,,,,,,,,,,,,,,,,,,,,,,,,,,,,,,,,,,,,,,,,,,,,,,,,,,,,,,,,,,,,,,,,,,,,,,,,,,,,,,,,,,,,
,,,,,,60ddfb3db6a71ad9ba75e387,62c5561f19b9e62dca3133ef,2022-07-06_11h30.57.438,Colour_Asymmetry_Pilot,2022.1.3,Win32,60.16485169,62c50e9c1127f2cd403a315f,0,132,132,54,1,fourtwo,,,,,,,,,,,,,,,,,,,,,,,,,,,,,,,,,,,,,,,,,,,,,,,,,,,,,,,,,,,,,,,,,,,,,,,,,,,,,,,,,,,,,,,,,,,,,,,,,,,,,,,,,,,,,,,,,,,,,,,,,,,,,,,,,,,,,,,,,,,,,,,,,,,,,,,,,,,,,
,,,,,,60ddfb3db6a71ad9ba75e387,62c5561f19b9e62dca3133ef,2022-07-06_11h30.57.438,Colour_Asymmetry_Pilot,2022.1.3,Win32,60.16485169,62c50e9c1127f2cd403a315f,0,133,133,102,1,fourtwo,,,,,,,,,,,,,,,,,,,,,,,,,,,,,,,,,,,,,,,,,,,,,,,,,,,,,,,,,,,,,,,,,,,,,,,,,,,,,,,,,,,,,,,,,,,,,,,,,,,,,,,,,,,,,,,,,,,,,,,,,,,,,,,,,,,,,,,,,,,,,,,,,,,,,,,,,,,,,
,,,,,,60ddfb3db6a71ad9ba75e387,62c5561f19b9e62dca3133ef,2022-07-06_11h30.57.438,Colour_Asymmetry_Pilot,2022.1.3,Win32,60.16485169,62c50e9c1127f2cd403a315f,0,134,134,129,1,onethree,,,,,,,,,,,,,,,,,,,,,,,,,,,,,,,,,,,,,,,,,,,,,,,,,,,,,,,,,,,,,,,,,,,,,,,,,,,,,,,,,,,,,,,,,,,,,,,,,,,,,,,,,,,,,,,,,,,,,,,,,,,,,,,,,,,,,,,,,,,,,,,,,,,,,,,,,,,,,
,,,,,,60ddfb3db6a71ad9ba75e387,62c5561f19b9e62dca3133ef,2022-07-06_11h30.57.438,Colour_Asymmetry_Pilot,2022.1.3,Win32,60.16485169,62c50e9c1127f2cd403a315f,0,135,135,10,1,twoone,,,,,,,,,,,,,,,,,,,,,,,,,,,,,,,,,,,,,,,,,,,,,,,,,,,,,,,,,,,,,,,,,,,,,,,,,,,,,,,,,,,,,,,,,,,,,,,,,,,,,,,,,,,,,,,,,,,,,,,,,,,,,,,,,,,,,,,,,,,,,,,,,,,,,,,,,,,,,
,,,,,,60ddfb3db6a71ad9ba75e387,62c5561f19b9e62dca3133ef,2022-07-06_11h30.57.438,Colour_Asymmetry_Pilot,2022.1.3,Win32,60.16485169,62c50e9c1127f2cd403a315f,0,136,136,78,1,fourtwo,,,,,,,,,,,,,,,,,,,,,,,,,,,,,,,,,,,,,,,,,,,,,,,,,,,,,,,,,,,,,,,,,,,,,,,,,,,,,,,,,,,,,,,,,,,,,,,,,,,,,,,,,,,,,,,,,,,,,,,,,,,,,,,,,,,,,,,,,,,,,,,,,,,,,,,,,,,,,
,,,,,,60ddfb3db6a71ad9ba75e387,62c5561f19b9e62dca3133ef,2022-07-06_11h30.57.438,Colour_Asymmetry_Pilot,2022.1.3,Win32,60.16485169,62c50e9c1127f2cd403a315f,0,137,137,113,1,onethree,,,,,,,,,,,,,,,,,,,,,,,,,,,,,,,,,,,,,,,,,,,,,,,,,,,,,,,,,,,,,,,,,,,,,,,,,,,,,,,,,,,,,,,,,,,,,,,,,,,,,,,,,,,,,,,,,,,,,,,,,,,,,,,,,,,,,,,,,,,,,,,,,,,,,,,,,,,,,
,,,,,,60ddfb3db6a71ad9ba75e387,62c5561f19b9e62dca3133ef,2022-07-06_11h30.57.438,Colour_Asymmetry_Pilot,2022.1.3,Win32,60.16485169,62c50e9c1127f2cd403a315f,0,138,138,88,1,onetwo,,,,,,,,,,,,,,,,,,,,,,,,,,,,,,,,,,,,,,,,,,,,,,,,,,,,,,,,,,,,,,,,,,,,,,,,,,,,,,,,,,,,,,,,,,,,,,,,,,,,,,,,,,,,,,,,,,,,,,,,,,,,,,,,,,,,,,,,,,,,,,,,,,,,,,,,,,,,,
,,,,,,60ddfb3db6a71ad9ba75e387,62c5561f19b9e62dca3133ef,2022-07-06_11h30.57.438,Colour_Asymmetry_Pilot,2022.1.3,Win32,60.16485169,62c50e9c1127f2cd403a315f,0,139,139,13,1,threefour,,,,,,,,,,,,,,,,,,,,,,,,,,,,,,,,,,,,,,,,,,,,,,,,,,,,,,,,,,,,,,,,,,,,,,,,,,,,,,,,,,,,,,,,,,,,,,,,,,,,,,,,,,,,,,,,,,,,,,,,,,,,,,,,,,,,,,,,,,,,,,,,,,,,,,,,,,,,,
,,,,,,60ddfb3db6a71ad9ba75e387,62c5561f19b9e62dca3133ef,2022-07-06_11h30.57.438,Colour_Asymmetry_Pilot,2022.1.3,Win32,60.16485169,62c50e9c1127f2cd403a315f,0,140,140,77,1,threefour,,,,,,,,,,,,,,,,,,,,,,,,,,,,,,,,,,,,,,,,,,,,,,,,,,,,,,,,,,,,,,,,,,,,,,,,,,,,,,,,,,,,,,,,,,,,,,,,,,,,,,,,,,,,,,,,,,,,,,,,,,,,,,,,,,,,,,,,,,,,,,,,,,,,,,,,,,,,,
,,,,,,60ddfb3db6a71ad9ba75e387,62c5561f19b9e62dca3133ef,2022-07-06_11h30.57.438,Colour_Asymmetry_Pilot,2022.1.3,Win32,60.16485169,62c50e9c1127f2cd403a315f,0,141,141,42,1,twoone,,,,,,,,,,,,,,,,,,,,,,,,,,,,,,,,,,,,,,,,,,,,,,,,,,,,,,,,,,,,,,,,,,,,,,,,,,,,,,,,,,,,,,,,,,,,,,,,,,,,,,,,,,,,,,,,,,,,,,,,,,,,,,,,,,,,,,,,,,,,,,,,,,,,,,,,,,,,,
,,,,,,60ddfb3db6a71ad9ba75e387,62c5561f19b9e62dca3133ef,2022-07-06_11h30.57.438,Colour_Asymmetry_Pilot,2022.1.3,Win32,60.16485169,62c50e9c1127f2cd403a315f,0,142,142,116,1,threeone,,,,,,,,,,,,,,,,,,,,,,,,,,,,,,,,,,,,,,,,,,,,,,,,,,,,,,,,,,,,,,,,,,,,,,,,,,,,,,,,,,,,,,,,,,,,,,,,,,,,,,,,,,,,,,,,,,,,,,,,,,,,,,,,,,,,,,,,,,,,,,,,,,,,,,,,,,,,,
,,,,,,60ddfb3db6a71ad9ba75e387,62c5561f19b9e62dca3133ef,2022-07-06_11h30.57.438,Colour_Asymmetry_Pilot,2022.1.3,Win32,60.16485169,62c50e9c1127f2cd403a315f,0,143,143,40,1,onetwo,,,,,,,,,,,,,,,,,,,,,,,,,,,,,,,,,,,,,,,,,,,,,,,,,,,,,,,,,,,,,,,,,,,,,,,,,,,,,,,,,,,,,,,,,,,,,,,,,,,,,,,,,,,,,,,,,,,,,,,,,,,,,,,,,,,,,,,,,,,,,,,,,,,,,,,,,,,,,
,,,,,,60ddfb3db6a71ad9ba75e387,62c5561f19b9e62dca3133ef,2022-07-06_11h30.57.438,Colour_Asymmetry_Pilot,2022.1.3,Win32,60.16485169,62c50e9c1127f2cd403a315f,0,144,144,38,1,fourtwo,,,,,,,,,,,,,,,,,,,,,,,,,,,,,,,,,,,,,,,,,,,,,,,,,,,,,,,,,,,,,,,,,,,,,,,,,,,,,,,,,,,,,,,,,,,,,,,,,,,,,,,,,,,,,,,,,,,,,,,,,,,,,,,,,,,,,,,,,,,,,,,,,,,,,,,,,,,,,
,,,,,,60ddfb3db6a71ad9ba75e387,62c5561f19b9e62dca3133ef,2022-07-06_11h30.57.438,Colour_Asymmetry_Pilot,2022.1.3,Win32,60.16485169,62c50e9c1127f2cd403a315f,0,145,145,141,1,threefour,,,,,,,,,,,,,,,,,,,,,,,,,,,,,,,,,,,,,,,,,,,,,,,,,,,,,,,,,,,,,,,,,,,,,,,,,,,,,,,,,,,,,,,,,,,,,,,,,,,,,,,,,,,,,,,,,,,,,,,,,,,,,,,,,,,,,,,,,,,,,,,,,,,,,,,,,,,,,
,,,,,,60ddfb3db6a71ad9ba75e387,62c5561f19b9e62dca3133ef,2022-07-06_11h30.57.438,Colour_Asymmetry_Pilot,2022.1.3,Win32,60.16485169,62c50e9c1127f2cd403a315f,0,146,146,25,1,onethree,,,,,,,,,,,,,,,,,,,,,,,,,,,,,,,,,,,,,,,,,,,,,,,,,,,,,,,,,,,,,,,,,,,,,,,,,,,,,,,,,,,,,,,,,,,,,,,,,,,,,,,,,,,,,,,,,,,,,,,,,,,,,,,,,,,,,,,,,,,,,,,,,,,,,,,,,,,,,
,,,,,,60ddfb3db6a71ad9ba75e387,62c5561f19b9e62dca3133ef,2022-07-06_11h30.57.438,Colour_Asymmetry_Pilot,2022.1.3,Win32,60.16485169,62c50e9c1127f2cd403a315f,0,147,147,48,1,onetwo,,,,,,,,,,,,,,,,,,,,,,,,,,,,,,,,,,,,,,,,,,,,,,,,,,,,,,,,,,,,,,,,,,,,,,,,,,,,,,,,,,,,,,,,,,,,,,,,,,,,,,,,,,,,,,,,,,,,,,,,,,,,,,,,,,,,,,,,,,,,,,,,,,,,,,,,,,,,,
,,,,,,60ddfb3db6a71ad9ba75e387,62c5561f19b9e62dca3133ef,2022-07-06_11h30.57.438,Colour_Asymmetry_Pilot,2022.1.3,Win32,60.16485169,62c50e9c1127f2cd403a315f,0,148,148,24,1,onetwo,,,,,,,,,,,,,,,,,,,,,,,,,,,,,,,,,,,,,,,,,,,,,,,,,,,,,,,,,,,,,,,,,,,,,,,,,,,,,,,,,,,,,,,,,,,,,,,,,,,,,,,,,,,,,,,,,,,,,,,,,,,,,,,,,,,,,,,,,,,,,,,,,,,,,,,,,,,,,
,,,,,,60ddfb3db6a71ad9ba75e387,62c5561f19b9e62dca3133ef,2022-07-06_11h30.57.438,Colour_Asymmetry_Pilot,2022.1.3,Win32,60.16485169,62c50e9c1127f2cd403a315f,0,149,149,101,1,threefour,,,,,,,,,,,,,,,,,,,,,,,,,,,,,,,,,,,,,,,,,,,,,,,,,,,,,,,,,,,,,,,,,,,,,,,,,,,,,,,,,,,,,,,,,,,,,,,,,,,,,,,,,,,,,,,,,,,,,,,,,,,,,,,,,,,,,,,,,,,,,,,,,,,,,,,,,,,,,
,,,,,,60ddfb3db6a71ad9ba75e387,62c5561f19b9e62dca3133ef,2022-07-06_11h30.57.438,Colour_Asymmetry_Pilot,2022.1.3,Win32,60.16485169,62c50e9c1127f2cd403a315f,0,150,150,85,1,threefour,,,,,,,,,,,,,,,,,,,,,,,,,,,,,,,,,,,,,,,,,,,,,,,,,,,,,,,,,,,,,,,,,,,,,,,,,,,,,,,,,,,,,,,,,,,,,,,,,,,,,,,,,,,,,,,,,,,,,,,,,,,,,,,,,,,,,,,,,,,,,,,,,,,,,,,,,,,,,
,,,,,,60ddfb3db6a71ad9ba75e387,62c5561f19b9e62dca3133ef,2022-07-06_11h30.57.438,Colour_Asymmetry_Pilot,2022.1.3,Win32,60.16485169,62c50e9c1127f2cd403a315f,0,151,151,133,1,threefour,,,,,,,,,,,,,,,,,,,,,,,,,,,,,,,,,,,,,,,,,,,,,,,,,,,,,,,,,,,,,,,,,,,,,,,,,,,,,,,,,,,,,,,,,,,,,,,,,,,,,,,,,,,,,,,,,,,,,,,,,,,,,,,,,,,,,,,,,,,,,,,,,,,,,,,,,,,,,
,,,,,,60ddfb3db6a71ad9ba75e387,62c5561f19b9e62dca3133ef,2022-07-06_11h30.57.438,Colour_Asymmetry_Pilot,2022.1.3,Win32,60.16485169,62c50e9c1127f2cd403a315f,0,152,152,145,1,onethree,,,,,,,,,,,,,,,,,,,,,,,,,,,,,,,,,,,,,,,,,,,,,,,,,,,,,,,,,,,,,,,,,,,,,,,,,,,,,,,,,,,,,,,,,,,,,,,,,,,,,,,,,,,,,,,,,,,,,,,,,,,,,,,,,,,,,,,,,,,,,,,,,,,,,,,,,,,,,
,,,,,,60ddfb3db6a71ad9ba75e387,62c5561f19b9e62dca3133ef,2022-07-06_11h30.57.438,Colour_Asymmetry_Pilot,2022.1.3,Win32,60.16485169,62c50e9c1127f2cd403a315f,0,153,153,75,1,twofour,,,,,,,,,,,,,,,,,,,,,,,,,,,,,,,,,,,,,,,,,,,,,,,,,,,,,,,,,,,,,,,,,,,,,,,,,,,,,,,,,,,,,,,,,,,,,,,,,,,,,,,,,,,,,,,,,,,,,,,,,,,,,,,,,,,,,,,,,,,,,,,,,,,,,,,,,,,,,
,,,,,,60ddfb3db6a71ad9ba75e387,62c5561f19b9e62dca3133ef,2022-07-06_11h30.57.438,Colour_Asymmetry_Pilot,2022.1.3,Win32,60.16485169,62c50e9c1127f2cd403a315f,0,154,154,31,1,fourthree,,,,,,,,,,,,,,,,,,,,,,,,,,,,,,,,,,,,,,,,,,,,,,,,,,,,,,,,,,,,,,,,,,,,,,,,,,,,,,,,,,,,,,,,,,,,,,,,,,,,,,,,,,,,,,,,,,,,,,,,,,,,,,,,,,,,,,,,,,,,,,,,,,,,,,,,,,,,,
,,,,,,60ddfb3db6a71ad9ba75e387,62c5561f19b9e62dca3133ef,2022-07-06_11h30.57.438,Colour_Asymmetry_Pilot,2022.1.3,Win32,60.16485169,62c50e9c1127f2cd403a315f,0,155,155,51,1,twofour,,,,,,,,,,,,,,,,,,,,,,,,,,,,,,,,,,,,,,,,,,,,,,,,,,,,,,,,,,,,,,,,,,,,,,,,,,,,,,,,,,,,,,,,,,,,,,,,,,,,,,,,,,,,,,,,,,,,,,,,,,,,,,,,,,,,,,,,,,,,,,,,,,,,,,,,,,,,,
,,,,,,60ddfb3db6a71ad9ba75e387,62c5561f19b9e62dca3133ef,2022-07-06_11h30.57.438,Colour_Asymmetry_Pilot,2022.1.3,Win32,60.16485169,62c50e9c1127f2cd403a315f,0,156,156,57,1,onethree,,,,,,,,,,,,,,,,,,,,,,,,,,,,,,,,,,,,,,,,,,,,,,,,,,,,,,,,,,,,,,,,,,,,,,,,,,,,,,,,,,,,,,,,,,,,,,,,,,,,,,,,,,,,,,,,,,,,,,,,,,,,,,,,,,,,,,,,,,,,,,,,,,,,,,,,,,,,,
,,,,,,60ddfb3db6a71ad9ba75e387,62c5561f19b9e62dca3133ef,2022-07-06_11h30.57.438,Colour_Asymmetry_Pilot,2022.1.3,Win32,60.16485169,62c50e9c1127f2cd403a315f,0,157,157,39,1,fourthree,,,,,,,,,,,,,,,,,,,,,,,,,,,,,,,,,,,,,,,,,,,,,,,,,,,,,,,,,,,,,,,,,,,,,,,,,,,,,,,,,,,,,,,,,,,,,,,,,,,,,,,,,,,,,,,,,,,,,,,,,,,,,,,,,,,,,,,,,,,,,,,,,,,,,,,,,,,,,
,,,,,,60ddfb3db6a71ad9ba75e387,62c5561f19b9e62dca3133ef,2022-07-06_11h30.57.438,Colour_Asymmetry_Pilot,2022.1.3,Win32,60.16485169,62c50e9c1127f2cd403a315f,0,158,158,22,1,fourtwo,,,,,,,,,,,,,,,,,,,,,,,,,,,,,,,,,,,,,,,,,,,,,,,,,,,,,,,,,,,,,,,,,,,,,,,,,,,,,,,,,,,,,,,,,,,,,,,,,,,,,,,,,,,,,,,,,,,,,,,,,,,,,,,,,,,,,,,,,,,,,,,,,,,,,,,,,,,,,
,,,,,,60ddfb3db6a71ad9ba75e387,62c5561f19b9e62dca3133ef,2022-07-06_11h30.57.438,Colour_Asymmetry_Pilot,2022.1.3,Win32,60.16485169,62c50e9c1127f2cd403a315f,0,159,159,37,1,threefour,,,,,,,,,,,,,,,,,,,,,,,,,,,,,,,,,,,,,,,,,,,,,,,,,,,,,,,,,,,,,,,,,,,,,,,,,,,,,,,,,,,,,,,,,,,,,,,,,,,,,,,,,,,,,,,,,,,,,,,,,,,,,,,,,,,,,,,,,,,,,,,,,,,,,,,,,,,,,
,,,,,,60ddfb3db6a71ad9ba75e387,62c5561f19b9e62dca3133ef,2022-07-06_11h30.57.438,Colour_Asymmetry_Pilot,2022.1.3,Win32,60.16485169,62c50e9c1127f2cd403a315f,0,160,160,67,1,twofour,,,,,,,,,,,,,,,,,,,,,,,,,,,,,,,,,,,,,,,,,,,,,,,,,,,,,,,,,,,,,,,,,,,,,,,,,,,,,,,,,,,,,,,,,,,,,,,,,,,,,,,,,,,,,,,,,,,,,,,,,,,,,,,,,,,,,,,,,,,,,,,,,,,,,,,,,,,,,
,,,,,,60ddfb3db6a71ad9ba75e387,62c5561f19b9e62dca3133ef,2022-07-06_11h30.57.438,Colour_Asymmetry_Pilot,2022.1.3,Win32,60.16485169,62c50e9c1127f2cd403a315f,0,161,161,0,1,onetwo,,,,,,,,,,,,,,,,,,,,,,,,,,,,,,,,,,,,,,,,,,,,,,,,,,,,,,,,,,,,,,,,,,,,,,,,,,,,,,,,,,,,,,,,,,,,,,,,,,,,,,,,,,,,,,,,,,,,,,,,,,,,,,,,,,,,,,,,,,,,,,,,,,,,,,,,,,,,,
,,,,,,60ddfb3db6a71ad9ba75e387,62c5561f19b9e62dca3133ef,2022-07-06_11h30.57.438,Colour_Asymmetry_Pilot,2022.1.3,Win32,60.16485169,62c50e9c1127f2cd403a315f,,,,,,,space,516.1486,space,4.8045,space,98.2015,space,18.4157,space,2.6931,space,4.3779,"[0.05879999999999996,0.2784,0.5841999999999998]",twofour,"[-0.2942,-0.7648,-0.7492000000000001]",-4,3.0335,-44,81,1,0,0,response7disk_5,-1,6,1,0,0,rectangle_8,-1,6,1,0,0,1,-1,6,1,0,0,0,0,0,0,1,,,,,,,,,,,,,,,,,,,,,,,,,,,,,,,,,,,,,,,,,,,,,,,,,,,,,,,,,,,,,,,,,,,,,,,,,,,,,,,,,,,,,,,,,,,,,,,,,,,,,,,,,,,,,,,,
,,,,,,60ddfb3db6a71ad9ba75e387,62c5561f19b9e62dca3133ef,2022-07-06_11h30.57.438,Colour_Asymmetry_Pilot,2022.1.3,Win32,60.16485169,62c50e9c1127f2cd403a315f,,,,,,,,,,,,,,,,,,,"[-0.6235999999999999,-0.6786,-0.08239999999999992]",threefour,"[0.9686000000000001,0.5763999999999998,0.11359999999999992]",-3,1.9666,-77,42,1,0,0,response7disk_5,3,-2,1,0,0,rectangle_8,47,-95,1,0,0,1,-2,6,1,0,0,1,0,1,0,1,response3disk_7,4,rectangle_4,,,,,,,,,,,,,,,,,,,,,,,,,,,,,,,,,,,,,,,,,,,,,,,,,,,,,,,,,,,,,,,,,,,,,,,,,,,,,,,,,,,,,,,,,,,,,,,,,,,,,,,,,,,,,
,,,,,,60ddfb3db6a71ad9ba75e387,62c5561f19b9e62dca3133ef,2022-07-06_11h30.57.438,Colour_Asymmetry_Pilot,2022.1.3,Win32,60.16485169,62c50e9c1127f2cd403a315f,,,,,,,,,,,,,,,,,,,"[-0.8982,-0.37259999999999993,0.2784]",threeone,"[-0.5688,-0.08239999999999992,-0.1844]",1,2.6167,47,-61,1,0,0,response3disk_5,-5.333312988,2,1,0,0,rectangle_8,-5.333312988,2,1,0,0,1,-5.333312988,2,1,0,0,2,0,2,0,1,,,,,,,,,,,,,,,,,,,,,,,,,,,,,,,,,,,,,,,,,,,,,,,,,,,,,,,,,,,,,,,,,,,,,,,,,,,,,,,,,,,,,,,,,,,,,,,,,,,,,,,,,,,,,,,,
,,,,,,60ddfb3db6a71ad9ba75e387,62c5561f19b9e62dca3133ef,2022-07-06_11h30.57.438,Colour_Asymmetry_Pilot,2022.1.3,Win32,60.16485169,62c50e9c1127f2cd403a315f,,,,,,,,,,,,,,,,,,,"[-0.17659999999999998,-0.2864,-0.8354]",threeone,"[-0.48240000000000005,0.3175999999999999,0.2156]",-1,5.6666,-47.33331299,-66,1,0,0,response5disk_5,1.333374023,0.666656494,1,0,0,rectangle_8,40.66668701,-89.33334351,1,0,0,1,0,-5.333343506,1,0,0,3,0,3,0,1,response3disk_7,4,rectangle_4,,,,,,,,,,,,,,,,,,,,,,,,,,,,,,,,,,,,,,,,,,,,,,,,,,,,,,,,,,,,,,,,,,,,,,,,,,,,,,,,,,,,,,,,,,,,,,,,,,,,,,,,,,,,,
,,,,,,60ddfb3db6a71ad9ba75e387,62c5561f19b9e62dca3133ef,2022-07-06_11h30.57.438,Colour_Asymmetry_Pilot,2022.1.3,Win32,60.16485169,62c50e9c1127f2cd403a315f,,,,,,,,,,,,,,,,,,,"[-0.34920000000000007,-0.702,-0.5216]",fourtwo,"[-0.6235999999999999,-0.6786,-0.08239999999999992]",-1,5.0168,-48,-62.66668701,1,0,0,response5disk_5,-4,-1.333343506,1,0,0,rectangle_8,-4,-1.333343506,1,0,0,1,-4,-1.333343506,1,0,0,4,0,4,0,1,,,,,,,,,,,,,,,,,,,,,,,,,,,,,,,,,,,,,,,,,,,,,,,,,,,,,,,,,,,,,,,,,,,,,,,,,,,,,,,,,,,,,,,,,,,,,,,,,,,,,,,,,,,,,,,,
,,,,,,60ddfb3db6a71ad9ba75e387,62c5561f19b9e62dca3133ef,2022-07-06_11h30.57.438,Colour_Asymmetry_Pilot,2022.1.3,Win32,60.16485169,62c50e9c1127f2cd403a315f,,,,,,,,,,,,,,,,,,,"[0.7018,0.7802,-0.16079999999999994]",twoone,"[0.09799999999999986,-0.24719999999999998,0.15280000000000005]",-1,1.1491,-42,-62,1,0,0,response5disk_5,-5.333312988,1.333312988,1,0,0,rectangle_8,-5.333312988,1.333312988,1,0,0,1,-5.333312988,1.333312988,1,0,0,5,0,5,0,1,,,,,,,,,,,,,,,,,,,,,,,,,,,,,,,,,,,,,,,,,,,,,,,,,,,,,,,,,,,,,,,,,,,,,,,,,,,,,,,,,,,,,,,,,,,,,,,,,,,,,,,,,,,,,,,,
,,,,,,60ddfb3db6a71ad9ba75e387,62c5561f19b9e62dca3133ef,2022-07-06_11h30.57.438,Colour_Asymmetry_Pilot,2022.1.3,Win32,60.16485169,62c50e9c1127f2cd403a315f,,,,,,,,,,,,,,,,,,,"[-0.01980000000000004,-0.5138,-0.38039999999999996]",onetwo,"[-0.07459999999999989,0.12139999999999995,-0.9922]",-1,1.0004,-28,-72,1,0,0,response5disk_5,-2.666625977,-1.333343506,1,0,0,rectangle_8,-2.666625977,-1.333343506,1,0,0,1,-2.666625977,-1.333343506,1,0,0,6,0,6,0,1,,,,,,,,,,,,,,,,,,,,,,,,,,,,,,,,,,,,,,,,,,,,,,,,,,,,,,,,,,,,,,,,,,,,,,,,,,,,,,,,,,,,,,,,,,,,,,,,,,,,,,,,,,,,,,,,
,,,,,,60ddfb3db6a71ad9ba75e387,62c5561f19b9e62dca3133ef,2022-07-06_11h30.57.438,Colour_Asymmetry_Pilot,2022.1.3,Win32,60.16485169,62c50e9c1127f2cd403a315f,,,,,,,,,,,,,,,,,,,,twoone,,-1,1.8501,,,,,,,,,,,,,,,,,,,,,,,,,,,,,,,,space,4.9976,"[0.9763999999999999,0.30979999999999985,-0.6786]","[0.05879999999999996,0.2784,0.5841999999999998]",-34.66662598,-76.66668701,1,0,0,response5disk,-2.666625977,4,1,0,0,rectangle,-2.666625977,4,1,0,0,,2,0.0017,0,-2.666625977,4,1,0,0,0,0,0,113,1,32,second,,,,,,,,,,,,,,,,,,,,,,,,,,,,,,,,,,,,,,,,,,,,,,,,,,,,,,,,,,,,,,,,,,,,,,,,
,,,,,,60ddfb3db6a71ad9ba75e387,62c5561f19b9e62dca3133ef,2022-07-06_11h30.57.438,Colour_Asymmetry_Pilot,2022.1.3,Win32,60.16485169,62c50e9c1127f2cd403a315f,,,,,,,,,,,,,,,,,,,,threefour,,-1,0.5834,,,,,,,,,,,,,,,,,,,,,,,,,,,,,,,,,,"[-0.4668,-0.8746,-0.2942]","[0.9372,0.9450000000000001,0.8980000000000001]",-44,-70,1,0,0,response5disk,-4,8.666656494,1,0,0,rectangle,-4,8.666656494,1,0,0,,2,0.0002,0,-4,8.666656494,1,0,0,0,1,1,60,1,60,first,,,,,,,,,,,,,,,,,,,,,,,,,,,,,,,,,,,,,,,,,,,,,,,,,,,,,,,,,,,,,,,,,,,,,,,,
,,,,,,60ddfb3db6a71ad9ba75e387,62c5561f19b9e62dca3133ef,2022-07-06_11h30.57.438,Colour_Asymmetry_Pilot,2022.1.3,Win32,60.16485169,62c50e9c1127f2cd403a315f,,,,,,,,,,,,,,,,,,,,fourtwo,,-2,0.6167,,,,,,,,,,,,,,,,,,,,,,,,,,,,,,,,,,"[0.34099999999999997,0.12939999999999996,-0.9766]","[-0.9844,-0.9688,-0.9922]",-75.33331299,-39.33334351,1,0,0,response5disk,-0.666625977,0.666656494,1,0,0,rectangle,-0.666625977,0.666656494,1,0,0,,3,0.0006,0,-0.666625977,0.666656494,1,0,0,0,2,2,7,1,7,first,,,,,,,,,,,,,,,,,,,,,,,,,,,,,,,,,,,,,,,,,,,,,,,,,,,,,,,,,,,,,,,,,,,,,,,,
,,,,,,60ddfb3db6a71ad9ba75e387,62c5561f19b9e62dca3133ef,2022-07-06_11h30.57.438,Colour_Asymmetry_Pilot,2022.1.3,Win32,60.16485169,62c50e9c1127f2cd403a315f,,,,,,,,,,,,,,,,,,,,twofour,,-3,1.4332,,,,,,,,,,,,,,,,,,,,,,,,,,,,,,,,,,"[-0.9766,-0.6472,0.07440000000000002]","[0.18419999999999992,-0.4276,-0.404]",-56,30.66665649,1,0,0,response7disk,-6,-2,1,0,0,rectangle,-6,-2,1,0,0,,2,0.0005,0,-6,-2,1,0,0,0,3,3,56,1,56,first,,,,,,,,,,,,,,,,,,,,,,,,,,,,,,,,,,,,,,,,,,,,,,,,,,,,,,,,,,,,,,,,,,,,,,,,
,,,,,,60ddfb3db6a71ad9ba75e387,62c5561f19b9e62dca3133ef,2022-07-06_11h30.57.438,Colour_Asymmetry_Pilot,2022.1.3,Win32,60.16485169,62c50e9c1127f2cd403a315f,,,,,,,,,,,,,,,,,,,,twoone,,-1,0.8839,,,,,,,,,,,,,,,,,,,,,,,,,,,,,,,,,,"[0.9842,0.7409999999999999,-0.6628000000000001]","[0.23120000000000007,-0.7726,-0.34120000000000006]",-63.33331299,-71.33334351,1,0,0,response5disk,-0.666625977,4.666656494,1,0,0,rectangle,-0.666625977,4.666656494,1,0,0,,1,0.0005,0,-0.666625977,4.666656494,1,0,0,0,4,4,2,1,2,first,,,,,,,,,,,,,,,,,,,,,,,,,,,,,,,,,,,,,,,,,,,,,,,,,,,,,,,,,,,,,,,,,,,,,,,,
,,,,,,60ddfb3db6a71ad9ba75e387,62c5561f19b9e62dca3133ef,2022-07-06_11h30.57.438,Colour_Asymmetry_Pilot,2022.1.3,Win32,60.16485169,62c50e9c1127f2cd403a315f,,,,,,,,,,,,,,,,,,,,fourtwo,,1,0.5002,,,,,,,,,,,,,,,,,,,,,,,,,,,,,,,,,,"[-0.9688,-0.4902000000000001,-0.12159999999999993]","[0.9686000000000001,0.5763999999999998,0.11359999999999992]",37.33337402,-77.33334351,1,0,0,response3disk,-4,0.666656494,1,0,0,rectangle,-4,0.666656494,1,0,0,,1,0,0,-4,0.666656494,1,0,0,0,5,5,68,1,68,first,,,,,,,,,,,,,,,,,,,,,,,,,,,,,,,,,,,,,,,,,,,,,,,,,,,,,,,,,,,,,,,,,,,,,,,,
,,,,,,60ddfb3db6a71ad9ba75e387,62c5561f19b9e62dca3133ef,2022-07-06_11h30.57.438,Colour_Asymmetry_Pilot,2022.1.3,Win32,60.16485169,62c50e9c1127f2cd403a315f,,,,,,,,,,,,,,,,,,,,fourthree,,-1,1.5,,,,,,,,,,,,,,,,,,,,,,,,,,,,,,,,,,"[-0.9296,-0.12959999999999994,-0.043199999999999905]","[0.9686000000000001,0.3802000000000001,0.19999999999999996]",-28.66662598,-78,1,0,0,response5disk,-0.666625977,-2.666687012,1,0,0,rectangle,-0.666625977,-2.666687012,1,0,0,,2,0.0005,0,-0.666625977,-2.666687012,1,0,0,0,6,6,92,1,11,second,,,,,,,,,,,,,,,,,,,,,,,,,,,,,,,,,,,,,,,,,,,,,,,,,,,,,,,,,,,,,,,,,,,,,,,,
,,,,,,60ddfb3db6a71ad9ba75e387,62c5561f19b9e62dca3133ef,2022-07-06_11h30.57.438,Colour_Asymmetry_Pilot,2022.1.3,Win32,60.16485169,62c50e9c1127f2cd403a315f,,,,,,,,,,,,,,,,,,,,onetwo,,-1,0.4332,,,,,,,,,,,,,,,,,,,,,,,,,,,,,,,,,,"[0.9686000000000001,0.5763999999999998,0.11359999999999992]","[-0.8198,-0.5138,-0.7492000000000001]",-46.66662598,-75.33334351,1,0,0,response5disk,0,4.666656494,1,0,0,rectangle,0,4.666656494,1,0,0,,1,0.0003,0,0,4.666656494,1,0,0,0,7,7,148,1,67,second,,,,,,,,,,,,,,,,,,,,,,,,,,,,,,,,,,,,,,,,,,,,,,,,,,,,,,,,,,,,,,,,,,,,,,,,
,,,,,,60ddfb3db6a71ad9ba75e387,62c5561f19b9e62dca3133ef,2022-07-06_11h30.57.438,Colour_Asymmetry_Pilot,2022.1.3,Win32,60.16485169,62c50e9c1127f2cd403a315f,,,,,,,,,,,,,,,,,,,,fourtwo,,2,1.7499,,,,,,,,,,,,,,,,,,,,,,,,,,,,,,,,,,"[-0.06680000000000008,-0.45100000000000007,-0.906]","[0.5449999999999999,-0.31000000000000005,-0.0354000000000001]",66,-39.33334351,1,0,0,response3disk,-4,-3.333343506,1,0,0,rectangle,-4,-3.333343506,1,0,0,,2,0.0005,0,-4,-3.333343506,1,0,0,0,8,8,48,1,48,first,,,,,,,,,,,,,,,,,,,,,,,,,,,,,,,,,,,,,,,,,,,,,,,,,,,,,,,,,,,,,,,,,,,,,,,,
,,,,,,60ddfb3db6a71ad9ba75e387,62c5561f19b9e62dca3133ef,2022-07-06_11h30.57.438,Colour_Asymmetry_Pilot,2022.1.3,Win32,60.16485169,62c50e9c1127f2cd403a315f,,,,,,,,,,,,,,,,,,,,threeone,,1,1.5664,,,,,,,,,,,,,,,,,,,,,,,,,,,,,,,,,,"[-0.06680000000000008,-0.45100000000000007,-0.906]","[0.9686000000000001,0.3802000000000001,0.19999999999999996]",40.66668701,-93.33334351,1,0,0,response3disk,-3.333312988,9.333312988,1,0,0,rectangle,-3.333312988,9.333312988,1,0,0,,1,0.0011,0,-3.333312988,9.333312988,1,0,0,0,9,9,5,1,5,first,,,,,,,,,,,,,,,,,,,,,,,,,,,,,,,,,,,,,,,,,,,,,,,,,,,,,,,,,,,,,,,,,,,,,,,,
,,,,,,60ddfb3db6a71ad9ba75e387,62c5561f19b9e62dca3133ef,2022-07-06_11h30.57.438,Colour_Asymmetry_Pilot,2022.1.3,Win32,60.16485169,62c50e9c1127f2cd403a315f,,,,,,,,,,,,,,,,,,,,threeone,,-1,0.4498,,,,,,,,,,,,,,,,,,,,,,,,,,,,,,,,,,"[0.3802000000000001,0.19199999999999995,-0.6394]","[0.23920000000000008,0.2704,0.16060000000000008]",-38.66662598,-61.33334351,1,0,0,response5disk,-4,8.666656494,1,0,0,rectangle,-4,8.666656494,1,0,0,,2,0.0006,0,-4,8.666656494,1,0,0,0,10,10,70,1,70,first,,,,,,,,,,,,,,,,,,,,,,,,,,,,,,,,,,,,,,,,,,,,,,,,,,,,,,,,,,,,,,,,,,,,,,,,
,,,,,,60ddfb3db6a71ad9ba75e387,62c5561f19b9e62dca3133ef,2022-07-06_11h30.57.438,Colour_Asymmetry_Pilot,2022.1.3,Win32,60.16485169,62c50e9c1127f2cd403a315f,,,,,,,,,,,,,,,,,,,,onethree,,1,1.7498,,,,,,,,,,,,,,,,,,,,,,,,,,,,,,,,,,"[0.37240000000000006,0.4980000000000002,-0.2864]","[0.9842,0.7409999999999999,-0.6628000000000001]",34,-86.66668701,1,0,0,response3disk,-1.333312988,-1.333343506,1,0,0,rectangle,-1.333312988,-1.333343506,1,0,0,,3,0.0005,0,-1.333312988,-1.333343506,1,0,0,0,11,11,45,1,45,first,,,,,,,,,,,,,,,,,,,,,,,,,,,,,,,,,,,,,,,,,,,,,,,,,,,,,,,,,,,,,,,,,,,,,,,,
,,,,,,60ddfb3db6a71ad9ba75e387,62c5561f19b9e62dca3133ef,2022-07-06_11h30.57.438,Colour_Asymmetry_Pilot,2022.1.3,Win32,60.16485169,62c50e9c1127f2cd403a315f,,,,,,,,,,,,,,,,,,,,twoone,,1,1.2834,,,,,,,,,,,,,,,,,,,,,,,,,,,,,,,,,,"[0.23920000000000008,0.2704,0.16060000000000008]","[0.3802000000000001,0.19199999999999995,-0.6394]",42.66668701,-79.33334351,1,0,0,response3disk,2,2,1,0,0,rectangle,2,2,1,0,0,,2,0.0004,0,2,2,1,0,0,0,12,12,151,1,70,second,,,,,,,,,,,,,,,,,,,,,,,,,,,,,,,,,,,,,,,,,,,,,,,,,,,,,,,,,,,,,,,,,,,,,,,,
,,,,,,60ddfb3db6a71ad9ba75e387,62c5561f19b9e62dca3133ef,2022-07-06_11h30.57.438,Colour_Asymmetry_Pilot,2022.1.3,Win32,60.16485169,62c50e9c1127f2cd403a315f,,,,,,,,,,,,,,,,,,,,onetwo,,1,0.3998,,,,,,,,,,,,,,,,,,,,,,,,,,,,,,,,,,"[0.3802000000000001,0.19199999999999995,-0.6394]","[0.22340000000000004,-0.9296,-0.7884]",36.66668701,-90.66668701,1,0,0,response3disk,-11.33331299,6.666656494,1,0,0,rectangle,-11.33331299,6.666656494,1,0,0,,3,0.0006,0,-11.33331299,6.666656494,1,0,0,0,13,13,108,1,27,second,,,,,,,,,,,,,,,,,,,,,,,,,,,,,,,,,,,,,,,,,,,,,,,,,,,,,,,,,,,,,,,,,,,,,,,,
,,,,,,60ddfb3db6a71ad9ba75e387,62c5561f19b9e62dca3133ef,2022-07-06_11h30.57.438,Colour_Asymmetry_Pilot,2022.1.3,Win32,60.16485169,62c50e9c1127f2cd403a315f,,,,,,,,,,,,,,,,,,,,onethree,,2,0.4998,,,,,,,,,,,,,,,,,,,,,,,,,,,,,,,,,,"[0.6547999999999998,-0.043199999999999905,-0.011800000000000033]","[-0.09019999999999995,0.44300000000000006,0.5371999999999999]",80.66668701,-32.66668701,1,0,0,response3disk,-9.333312988,13.33331299,1,0,0,rectangle,-9.333312988,13.33331299,1,0,0,,1,0.0005,0,-9.333312988,13.33331299,1,0,0,0,14,14,132,1,51,second,,,,,,,,,,,,,,,,,,,,,,,,,,,,,,,,,,,,,,,,,,,,,,,,,,,,,,,,,,,,,,,,,,,,,,,,
