trials.thisRepN,trials.thisTrialN,trials.thisN,trials.thisIndex,trials.ran,Colourcodes,participant,session,date,expName,psychopyVersion,OS,frameRate,study_id,trials_4.thisRepN,trials_4.thisTrialN,trials_4.thisN,trials_4.thisIndex,trials_4.ran,StimulusPos,key_resp.keys,key_resp.rt,key_resp_2.keys,key_resp_2.rt,key_resp_15.keys,key_resp_15.rt,key_resp_17.keys,key_resp_17.rt,key_resp_9.keys,key_resp_9.rt,key_resp_10.keys,key_resp_10.rt,Circle1_col,Ecc,Circle2_col,similarity,response_time,mouse_5.x,mouse_5.y,mouse_5.leftButton,mouse_5.midButton,mouse_5.rightButton,mouse_5.clicked_name,mouse_10.x,mouse_10.y,mouse_10.leftButton,mouse_10.midButton,mouse_10.rightButton,mouse_10.clicked_name,mouse_7.x,mouse_7.y,mouse_7.leftButton,mouse_7.midButton,mouse_7.rightButton,catchnumberprac,mouse_6.x,mouse_6.y,mouse_6.leftButton,mouse_6.midButton,mouse_6.rightButton,duringprac.thisRepN,duringprac.thisTrialN,duringprac.thisN,duringprac.thisIndex,duringprac.ran,mouse_7.clicked_name,catchprac,mouse_6.clicked_name,key_resp_22.keys,key_resp_22.rt,Circle1_colour,Circle2_colour,mouse.x,mouse.y,mouse.leftButton,mouse.midButton,mouse.rightButton,mouse.clicked_name,mouse_2.x,mouse_2.y,mouse_2.leftButton,mouse_2.midButton,mouse_2.rightButton,mouse_2.clicked_name,mouse_3.x,mouse_3.y,mouse_3.leftButton,mouse_3.midButton,mouse_3.rightButton,catchresponse,catchnumber,response_time_catch,Catch,mouse_11.x,mouse_11.y,mouse_11.leftButton,mouse_11.midButton,mouse_11.rightButton,trials_2.thisRepN,trials_2.thisTrialN,trials_2.thisN,trials_2.thisIndex,trials_2.ran,Colourpair,Temporder,mouse_3.clicked_name,mouse_11.clicked_name,trials_3.thisRepN,trials_3.thisTrialN,trials_3.thisN,trials_3.thisIndex,trials_3.ran,key_resp_instr_Ishi.keys,key_resp_instr_Ishi.rt,Ishi_trial_keyresp.keys,Ishi_textbox.text,Ishi_mouse.x,Ishi_mouse.y,Ishi_mouse.leftButton,Ishi_mouse.midButton,Ishi_mouse.rightButton,Ishi_mouse.clicked_name,Ishi_loop.thisRepN,Ishi_loop.thisTrialN,Ishi_loop.thisN,Ishi_loop.thisIndex,Ishi_loop.ran,imageaddress,textbox.text,mouse_4.x,mouse_4.y,mouse_4.leftButton,mouse_4.midButton,mouse_4.rightButton,mouse_4.clicked_name,textbox_2.text,mouse_8.x,mouse_8.y,mouse_8.leftButton,mouse_8.midButton,mouse_8.rightButton,mouse_8.clicked_name,textbox_3.text,mouse_9.x,mouse_9.y,mouse_9.leftButton,mouse_9.midButton,mouse_9.rightButton,mouse_9.clicked_name,textbox_4.text,mouse_12.x,mouse_12.y,mouse_12.leftButton,mouse_12.midButton,mouse_12.rightButton,mouse_12.clicked_name,textbox_5.text,mouse_13.x,mouse_13.y,mouse_13.leftButton,mouse_13.midButton,mouse_13.rightButton,mouse_13.clicked_name,textbox_6.text,mouse_14.x,mouse_14.y,mouse_14.leftButton,mouse_14.midButton,mouse_14.rightButton,mouse_14.clicked_name,textbox_7.text,mouse_15.x,mouse_15.y,mouse_15.leftButton,mouse_15.midButton,mouse_15.rightButton,mouse_15.clicked_name
0,0,0,79,1,,607417a6a2b03d66922db6c1,62c53a8b270234594f182ae9,2022-07-06_09h32.51.637,Colour_Asymmetry_Pilot,2022.1.3,Win32,60.11783095,62c50e9c1127f2cd403a315f,,,,,,,,,,,,,,,,,,,,,,,,,,,,,,,,,,,,,,,,,,,,,,,,,,,,,,,,,,,,,,,,,,,,,,,,,,,,,,,,,,,,,,,,,,,,,,,,,,,,,,,,,,,,,,,,,,,,,,,,,,,,,,,,,,,,,,,,,,,,,,,,,,,,,,,,,,,,,,,,,,,
0,1,1,16,1,,607417a6a2b03d66922db6c1,62c53a8b270234594f182ae9,2022-07-06_09h32.51.637,Colour_Asymmetry_Pilot,2022.1.3,Win32,60.11783095,62c50e9c1127f2cd403a315f,,,,,,,,,,,,,,,,,,,,,,,,,,,,,,,,,,,,,,,,,,,,,,,,,,,,,,,,,,,,,,,,,,,,,,,,,,,,,,,,,,,,,,,,,,,,,,,,,,,,,,,,,,,,,,,,,,,,,,,,,,,,,,,,,,,,,,,,,,,,,,,,,,,,,,,,,,,,,,,,,,,
0,2,2,24,1,,607417a6a2b03d66922db6c1,62c53a8b270234594f182ae9,2022-07-06_09h32.51.637,Colour_Asymmetry_Pilot,2022.1.3,Win32,60.11783095,62c50e9c1127f2cd403a315f,,,,,,,,,,,,,,,,,,,,,,,,,,,,,,,,,,,,,,,,,,,,,,,,,,,,,,,,,,,,,,,,,,,,,,,,,,,,,,,,,,,,,,,,,,,,,,,,,,,,,,,,,,,,,,,,,,,,,,,,,,,,,,,,,,,,,,,,,,,,,,,,,,,,,,,,,,,,,,,,,,,
0,3,3,82,1,,607417a6a2b03d66922db6c1,62c53a8b270234594f182ae9,2022-07-06_09h32.51.637,Colour_Asymmetry_Pilot,2022.1.3,Win32,60.11783095,62c50e9c1127f2cd403a315f,,,,,,,,,,,,,,,,,,,,,,,,,,,,,,,,,,,,,,,,,,,,,,,,,,,,,,,,,,,,,,,,,,,,,,,,,,,,,,,,,,,,,,,,,,,,,,,,,,,,,,,,,,,,,,,,,,,,,,,,,,,,,,,,,,,,,,,,,,,,,,,,,,,,,,,,,,,,,,,,,,,
0,4,4,92,1,,607417a6a2b03d66922db6c1,62c53a8b270234594f182ae9,2022-07-06_09h32.51.637,Colour_Asymmetry_Pilot,2022.1.3,Win32,60.11783095,62c50e9c1127f2cd403a315f,,,,,,,,,,,,,,,,,,,,,,,,,,,,,,,,,,,,,,,,,,,,,,,,,,,,,,,,,,,,,,,,,,,,,,,,,,,,,,,,,,,,,,,,,,,,,,,,,,,,,,,,,,,,,,,,,,,,,,,,,,,,,,,,,,,,,,,,,,,,,,,,,,,,,,,,,,,,,,,,,,,
0,5,5,71,1,,607417a6a2b03d66922db6c1,62c53a8b270234594f182ae9,2022-07-06_09h32.51.637,Colour_Asymmetry_Pilot,2022.1.3,Win32,60.11783095,62c50e9c1127f2cd403a315f,,,,,,,,,,,,,,,,,,,,,,,,,,,,,,,,,,,,,,,,,,,,,,,,,,,,,,,,,,,,,,,,,,,,,,,,,,,,,,,,,,,,,,,,,,,,,,,,,,,,,,,,,,,,,,,,,,,,,,,,,,,,,,,,,,,,,,,,,,,,,,,,,,,,,,,,,,,,,,,,,,,
0,6,6,17,1,,607417a6a2b03d66922db6c1,62c53a8b270234594f182ae9,2022-07-06_09h32.51.637,Colour_Asymmetry_Pilot,2022.1.3,Win32,60.11783095,62c50e9c1127f2cd403a315f,,,,,,,,,,,,,,,,,,,,,,,,,,,,,,,,,,,,,,,,,,,,,,,,,,,,,,,,,,,,,,,,,,,,,,,,,,,,,,,,,,,,,,,,,,,,,,,,,,,,,,,,,,,,,,,,,,,,,,,,,,,,,,,,,,,,,,,,,,,,,,,,,,,,,,,,,,,,,,,,,,,
0,7,7,74,1,,607417a6a2b03d66922db6c1,62c53a8b270234594f182ae9,2022-07-06_09h32.51.637,Colour_Asymmetry_Pilot,2022.1.3,Win32,60.11783095,62c50e9c1127f2cd403a315f,,,,,,,,,,,,,,,,,,,,,,,,,,,,,,,,,,,,,,,,,,,,,,,,,,,,,,,,,,,,,,,,,,,,,,,,,,,,,,,,,,,,,,,,,,,,,,,,,,,,,,,,,,,,,,,,,,,,,,,,,,,,,,,,,,,,,,,,,,,,,,,,,,,,,,,,,,,,,,,,,,,
0,8,8,55,1,,607417a6a2b03d66922db6c1,62c53a8b270234594f182ae9,2022-07-06_09h32.51.637,Colour_Asymmetry_Pilot,2022.1.3,Win32,60.11783095,62c50e9c1127f2cd403a315f,,,,,,,,,,,,,,,,,,,,,,,,,,,,,,,,,,,,,,,,,,,,,,,,,,,,,,,,,,,,,,,,,,,,,,,,,,,,,,,,,,,,,,,,,,,,,,,,,,,,,,,,,,,,,,,,,,,,,,,,,,,,,,,,,,,,,,,,,,,,,,,,,,,,,,,,,,,,,,,,,,,
0,9,9,84,1,,607417a6a2b03d66922db6c1,62c53a8b270234594f182ae9,2022-07-06_09h32.51.637,Colour_Asymmetry_Pilot,2022.1.3,Win32,60.11783095,62c50e9c1127f2cd403a315f,,,,,,,,,,,,,,,,,,,,,,,,,,,,,,,,,,,,,,,,,,,,,,,,,,,,,,,,,,,,,,,,,,,,,,,,,,,,,,,,,,,,,,,,,,,,,,,,,,,,,,,,,,,,,,,,,,,,,,,,,,,,,,,,,,,,,,,,,,,,,,,,,,,,,,,,,,,,,,,,,,,
0,10,10,5,1,,607417a6a2b03d66922db6c1,62c53a8b270234594f182ae9,2022-07-06_09h32.51.637,Colour_Asymmetry_Pilot,2022.1.3,Win32,60.11783095,62c50e9c1127f2cd403a315f,,,,,,,,,,,,,,,,,,,,,,,,,,,,,,,,,,,,,,,,,,,,,,,,,,,,,,,,,,,,,,,,,,,,,,,,,,,,,,,,,,,,,,,,,,,,,,,,,,,,,,,,,,,,,,,,,,,,,,,,,,,,,,,,,,,,,,,,,,,,,,,,,,,,,,,,,,,,,,,,,,,
0,11,11,61,1,,607417a6a2b03d66922db6c1,62c53a8b270234594f182ae9,2022-07-06_09h32.51.637,Colour_Asymmetry_Pilot,2022.1.3,Win32,60.11783095,62c50e9c1127f2cd403a315f,,,,,,,,,,,,,,,,,,,,,,,,,,,,,,,,,,,,,,,,,,,,,,,,,,,,,,,,,,,,,,,,,,,,,,,,,,,,,,,,,,,,,,,,,,,,,,,,,,,,,,,,,,,,,,,,,,,,,,,,,,,,,,,,,,,,,,,,,,,,,,,,,,,,,,,,,,,,,,,,,,,
0,12,12,59,1,,607417a6a2b03d66922db6c1,62c53a8b270234594f182ae9,2022-07-06_09h32.51.637,Colour_Asymmetry_Pilot,2022.1.3,Win32,60.11783095,62c50e9c1127f2cd403a315f,,,,,,,,,,,,,,,,,,,,,,,,,,,,,,,,,,,,,,,,,,,,,,,,,,,,,,,,,,,,,,,,,,,,,,,,,,,,,,,,,,,,,,,,,,,,,,,,,,,,,,,,,,,,,,,,,,,,,,,,,,,,,,,,,,,,,,,,,,,,,,,,,,,,,,,,,,,,,,,,,,,
0,13,13,21,1,,607417a6a2b03d66922db6c1,62c53a8b270234594f182ae9,2022-07-06_09h32.51.637,Colour_Asymmetry_Pilot,2022.1.3,Win32,60.11783095,62c50e9c1127f2cd403a315f,,,,,,,,,,,,,,,,,,,,,,,,,,,,,,,,,,,,,,,,,,,,,,,,,,,,,,,,,,,,,,,,,,,,,,,,,,,,,,,,,,,,,,,,,,,,,,,,,,,,,,,,,,,,,,,,,,,,,,,,,,,,,,,,,,,,,,,,,,,,,,,,,,,,,,,,,,,,,,,,,,,
0,14,14,31,1,,607417a6a2b03d66922db6c1,62c53a8b270234594f182ae9,2022-07-06_09h32.51.637,Colour_Asymmetry_Pilot,2022.1.3,Win32,60.11783095,62c50e9c1127f2cd403a315f,,,,,,,,,,,,,,,,,,,,,,,,,,,,,,,,,,,,,,,,,,,,,,,,,,,,,,,,,,,,,,,,,,,,,,,,,,,,,,,,,,,,,,,,,,,,,,,,,,,,,,,,,,,,,,,,,,,,,,,,,,,,,,,,,,,,,,,,,,,,,,,,,,,,,,,,,,,,,,,,,,,
0,15,15,60,1,,607417a6a2b03d66922db6c1,62c53a8b270234594f182ae9,2022-07-06_09h32.51.637,Colour_Asymmetry_Pilot,2022.1.3,Win32,60.11783095,62c50e9c1127f2cd403a315f,,,,,,,,,,,,,,,,,,,,,,,,,,,,,,,,,,,,,,,,,,,,,,,,,,,,,,,,,,,,,,,,,,,,,,,,,,,,,,,,,,,,,,,,,,,,,,,,,,,,,,,,,,,,,,,,,,,,,,,,,,,,,,,,,,,,,,,,,,,,,,,,,,,,,,,,,,,,,,,,,,,
0,16,16,81,1,,607417a6a2b03d66922db6c1,62c53a8b270234594f182ae9,2022-07-06_09h32.51.637,Colour_Asymmetry_Pilot,2022.1.3,Win32,60.11783095,62c50e9c1127f2cd403a315f,,,,,,,,,,,,,,,,,,,,,,,,,,,,,,,,,,,,,,,,,,,,,,,,,,,,,,,,,,,,,,,,,,,,,,,,,,,,,,,,,,,,,,,,,,,,,,,,,,,,,,,,,,,,,,,,,,,,,,,,,,,,,,,,,,,,,,,,,,,,,,,,,,,,,,,,,,,,,,,,,,,
0,17,17,37,1,,607417a6a2b03d66922db6c1,62c53a8b270234594f182ae9,2022-07-06_09h32.51.637,Colour_Asymmetry_Pilot,2022.1.3,Win32,60.11783095,62c50e9c1127f2cd403a315f,,,,,,,,,,,,,,,,,,,,,,,,,,,,,,,,,,,,,,,,,,,,,,,,,,,,,,,,,,,,,,,,,,,,,,,,,,,,,,,,,,,,,,,,,,,,,,,,,,,,,,,,,,,,,,,,,,,,,,,,,,,,,,,,,,,,,,,,,,,,,,,,,,,,,,,,,,,,,,,,,,,
0,18,18,4,1,,607417a6a2b03d66922db6c1,62c53a8b270234594f182ae9,2022-07-06_09h32.51.637,Colour_Asymmetry_Pilot,2022.1.3,Win32,60.11783095,62c50e9c1127f2cd403a315f,,,,,,,,,,,,,,,,,,,,,,,,,,,,,,,,,,,,,,,,,,,,,,,,,,,,,,,,,,,,,,,,,,,,,,,,,,,,,,,,,,,,,,,,,,,,,,,,,,,,,,,,,,,,,,,,,,,,,,,,,,,,,,,,,,,,,,,,,,,,,,,,,,,,,,,,,,,,,,,,,,,
0,19,19,68,1,,607417a6a2b03d66922db6c1,62c53a8b270234594f182ae9,2022-07-06_09h32.51.637,Colour_Asymmetry_Pilot,2022.1.3,Win32,60.11783095,62c50e9c1127f2cd403a315f,,,,,,,,,,,,,,,,,,,,,,,,,,,,,,,,,,,,,,,,,,,,,,,,,,,,,,,,,,,,,,,,,,,,,,,,,,,,,,,,,,,,,,,,,,,,,,,,,,,,,,,,,,,,,,,,,,,,,,,,,,,,,,,,,,,,,,,,,,,,,,,,,,,,,,,,,,,,,,,,,,,
0,20,20,40,1,,607417a6a2b03d66922db6c1,62c53a8b270234594f182ae9,2022-07-06_09h32.51.637,Colour_Asymmetry_Pilot,2022.1.3,Win32,60.11783095,62c50e9c1127f2cd403a315f,,,,,,,,,,,,,,,,,,,,,,,,,,,,,,,,,,,,,,,,,,,,,,,,,,,,,,,,,,,,,,,,,,,,,,,,,,,,,,,,,,,,,,,,,,,,,,,,,,,,,,,,,,,,,,,,,,,,,,,,,,,,,,,,,,,,,,,,,,,,,,,,,,,,,,,,,,,,,,,,,,,
0,21,21,70,1,,607417a6a2b03d66922db6c1,62c53a8b270234594f182ae9,2022-07-06_09h32.51.637,Colour_Asymmetry_Pilot,2022.1.3,Win32,60.11783095,62c50e9c1127f2cd403a315f,,,,,,,,,,,,,,,,,,,,,,,,,,,,,,,,,,,,,,,,,,,,,,,,,,,,,,,,,,,,,,,,,,,,,,,,,,,,,,,,,,,,,,,,,,,,,,,,,,,,,,,,,,,,,,,,,,,,,,,,,,,,,,,,,,,,,,,,,,,,,,,,,,,,,,,,,,,,,,,,,,,
0,22,22,3,1,,607417a6a2b03d66922db6c1,62c53a8b270234594f182ae9,2022-07-06_09h32.51.637,Colour_Asymmetry_Pilot,2022.1.3,Win32,60.11783095,62c50e9c1127f2cd403a315f,,,,,,,,,,,,,,,,,,,,,,,,,,,,,,,,,,,,,,,,,,,,,,,,,,,,,,,,,,,,,,,,,,,,,,,,,,,,,,,,,,,,,,,,,,,,,,,,,,,,,,,,,,,,,,,,,,,,,,,,,,,,,,,,,,,,,,,,,,,,,,,,,,,,,,,,,,,,,,,,,,,
0,23,23,42,1,,607417a6a2b03d66922db6c1,62c53a8b270234594f182ae9,2022-07-06_09h32.51.637,Colour_Asymmetry_Pilot,2022.1.3,Win32,60.11783095,62c50e9c1127f2cd403a315f,,,,,,,,,,,,,,,,,,,,,,,,,,,,,,,,,,,,,,,,,,,,,,,,,,,,,,,,,,,,,,,,,,,,,,,,,,,,,,,,,,,,,,,,,,,,,,,,,,,,,,,,,,,,,,,,,,,,,,,,,,,,,,,,,,,,,,,,,,,,,,,,,,,,,,,,,,,,,,,,,,,
0,24,24,13,1,,607417a6a2b03d66922db6c1,62c53a8b270234594f182ae9,2022-07-06_09h32.51.637,Colour_Asymmetry_Pilot,2022.1.3,Win32,60.11783095,62c50e9c1127f2cd403a315f,,,,,,,,,,,,,,,,,,,,,,,,,,,,,,,,,,,,,,,,,,,,,,,,,,,,,,,,,,,,,,,,,,,,,,,,,,,,,,,,,,,,,,,,,,,,,,,,,,,,,,,,,,,,,,,,,,,,,,,,,,,,,,,,,,,,,,,,,,,,,,,,,,,,,,,,,,,,,,,,,,,
0,25,25,2,1,,607417a6a2b03d66922db6c1,62c53a8b270234594f182ae9,2022-07-06_09h32.51.637,Colour_Asymmetry_Pilot,2022.1.3,Win32,60.11783095,62c50e9c1127f2cd403a315f,,,,,,,,,,,,,,,,,,,,,,,,,,,,,,,,,,,,,,,,,,,,,,,,,,,,,,,,,,,,,,,,,,,,,,,,,,,,,,,,,,,,,,,,,,,,,,,,,,,,,,,,,,,,,,,,,,,,,,,,,,,,,,,,,,,,,,,,,,,,,,,,,,,,,,,,,,,,,,,,,,,
0,26,26,64,1,,607417a6a2b03d66922db6c1,62c53a8b270234594f182ae9,2022-07-06_09h32.51.637,Colour_Asymmetry_Pilot,2022.1.3,Win32,60.11783095,62c50e9c1127f2cd403a315f,,,,,,,,,,,,,,,,,,,,,,,,,,,,,,,,,,,,,,,,,,,,,,,,,,,,,,,,,,,,,,,,,,,,,,,,,,,,,,,,,,,,,,,,,,,,,,,,,,,,,,,,,,,,,,,,,,,,,,,,,,,,,,,,,,,,,,,,,,,,,,,,,,,,,,,,,,,,,,,,,,,
0,27,27,57,1,,607417a6a2b03d66922db6c1,62c53a8b270234594f182ae9,2022-07-06_09h32.51.637,Colour_Asymmetry_Pilot,2022.1.3,Win32,60.11783095,62c50e9c1127f2cd403a315f,,,,,,,,,,,,,,,,,,,,,,,,,,,,,,,,,,,,,,,,,,,,,,,,,,,,,,,,,,,,,,,,,,,,,,,,,,,,,,,,,,,,,,,,,,,,,,,,,,,,,,,,,,,,,,,,,,,,,,,,,,,,,,,,,,,,,,,,,,,,,,,,,,,,,,,,,,,,,,,,,,,
0,28,28,56,1,,607417a6a2b03d66922db6c1,62c53a8b270234594f182ae9,2022-07-06_09h32.51.637,Colour_Asymmetry_Pilot,2022.1.3,Win32,60.11783095,62c50e9c1127f2cd403a315f,,,,,,,,,,,,,,,,,,,,,,,,,,,,,,,,,,,,,,,,,,,,,,,,,,,,,,,,,,,,,,,,,,,,,,,,,,,,,,,,,,,,,,,,,,,,,,,,,,,,,,,,,,,,,,,,,,,,,,,,,,,,,,,,,,,,,,,,,,,,,,,,,,,,,,,,,,,,,,,,,,,
0,29,29,38,1,,607417a6a2b03d66922db6c1,62c53a8b270234594f182ae9,2022-07-06_09h32.51.637,Colour_Asymmetry_Pilot,2022.1.3,Win32,60.11783095,62c50e9c1127f2cd403a315f,,,,,,,,,,,,,,,,,,,,,,,,,,,,,,,,,,,,,,,,,,,,,,,,,,,,,,,,,,,,,,,,,,,,,,,,,,,,,,,,,,,,,,,,,,,,,,,,,,,,,,,,,,,,,,,,,,,,,,,,,,,,,,,,,,,,,,,,,,,,,,,,,,,,,,,,,,,,,,,,,,,
0,30,30,33,1,,607417a6a2b03d66922db6c1,62c53a8b270234594f182ae9,2022-07-06_09h32.51.637,Colour_Asymmetry_Pilot,2022.1.3,Win32,60.11783095,62c50e9c1127f2cd403a315f,,,,,,,,,,,,,,,,,,,,,,,,,,,,,,,,,,,,,,,,,,,,,,,,,,,,,,,,,,,,,,,,,,,,,,,,,,,,,,,,,,,,,,,,,,,,,,,,,,,,,,,,,,,,,,,,,,,,,,,,,,,,,,,,,,,,,,,,,,,,,,,,,,,,,,,,,,,,,,,,,,,
0,31,31,89,1,,607417a6a2b03d66922db6c1,62c53a8b270234594f182ae9,2022-07-06_09h32.51.637,Colour_Asymmetry_Pilot,2022.1.3,Win32,60.11783095,62c50e9c1127f2cd403a315f,,,,,,,,,,,,,,,,,,,,,,,,,,,,,,,,,,,,,,,,,,,,,,,,,,,,,,,,,,,,,,,,,,,,,,,,,,,,,,,,,,,,,,,,,,,,,,,,,,,,,,,,,,,,,,,,,,,,,,,,,,,,,,,,,,,,,,,,,,,,,,,,,,,,,,,,,,,,,,,,,,,
0,32,32,86,1,,607417a6a2b03d66922db6c1,62c53a8b270234594f182ae9,2022-07-06_09h32.51.637,Colour_Asymmetry_Pilot,2022.1.3,Win32,60.11783095,62c50e9c1127f2cd403a315f,,,,,,,,,,,,,,,,,,,,,,,,,,,,,,,,,,,,,,,,,,,,,,,,,,,,,,,,,,,,,,,,,,,,,,,,,,,,,,,,,,,,,,,,,,,,,,,,,,,,,,,,,,,,,,,,,,,,,,,,,,,,,,,,,,,,,,,,,,,,,,,,,,,,,,,,,,,,,,,,,,,
0,33,33,0,1,,607417a6a2b03d66922db6c1,62c53a8b270234594f182ae9,2022-07-06_09h32.51.637,Colour_Asymmetry_Pilot,2022.1.3,Win32,60.11783095,62c50e9c1127f2cd403a315f,,,,,,,,,,,,,,,,,,,,,,,,,,,,,,,,,,,,,,,,,,,,,,,,,,,,,,,,,,,,,,,,,,,,,,,,,,,,,,,,,,,,,,,,,,,,,,,,,,,,,,,,,,,,,,,,,,,,,,,,,,,,,,,,,,,,,,,,,,,,,,,,,,,,,,,,,,,,,,,,,,,
0,34,34,35,1,,607417a6a2b03d66922db6c1,62c53a8b270234594f182ae9,2022-07-06_09h32.51.637,Colour_Asymmetry_Pilot,2022.1.3,Win32,60.11783095,62c50e9c1127f2cd403a315f,,,,,,,,,,,,,,,,,,,,,,,,,,,,,,,,,,,,,,,,,,,,,,,,,,,,,,,,,,,,,,,,,,,,,,,,,,,,,,,,,,,,,,,,,,,,,,,,,,,,,,,,,,,,,,,,,,,,,,,,,,,,,,,,,,,,,,,,,,,,,,,,,,,,,,,,,,,,,,,,,,,
0,35,35,39,1,,607417a6a2b03d66922db6c1,62c53a8b270234594f182ae9,2022-07-06_09h32.51.637,Colour_Asymmetry_Pilot,2022.1.3,Win32,60.11783095,62c50e9c1127f2cd403a315f,,,,,,,,,,,,,,,,,,,,,,,,,,,,,,,,,,,,,,,,,,,,,,,,,,,,,,,,,,,,,,,,,,,,,,,,,,,,,,,,,,,,,,,,,,,,,,,,,,,,,,,,,,,,,,,,,,,,,,,,,,,,,,,,,,,,,,,,,,,,,,,,,,,,,,,,,,,,,,,,,,,
0,36,36,90,1,,607417a6a2b03d66922db6c1,62c53a8b270234594f182ae9,2022-07-06_09h32.51.637,Colour_Asymmetry_Pilot,2022.1.3,Win32,60.11783095,62c50e9c1127f2cd403a315f,,,,,,,,,,,,,,,,,,,,,,,,,,,,,,,,,,,,,,,,,,,,,,,,,,,,,,,,,,,,,,,,,,,,,,,,,,,,,,,,,,,,,,,,,,,,,,,,,,,,,,,,,,,,,,,,,,,,,,,,,,,,,,,,,,,,,,,,,,,,,,,,,,,,,,,,,,,,,,,,,,,
0,37,37,6,1,,607417a6a2b03d66922db6c1,62c53a8b270234594f182ae9,2022-07-06_09h32.51.637,Colour_Asymmetry_Pilot,2022.1.3,Win32,60.11783095,62c50e9c1127f2cd403a315f,,,,,,,,,,,,,,,,,,,,,,,,,,,,,,,,,,,,,,,,,,,,,,,,,,,,,,,,,,,,,,,,,,,,,,,,,,,,,,,,,,,,,,,,,,,,,,,,,,,,,,,,,,,,,,,,,,,,,,,,,,,,,,,,,,,,,,,,,,,,,,,,,,,,,,,,,,,,,,,,,,,
0,38,38,41,1,,607417a6a2b03d66922db6c1,62c53a8b270234594f182ae9,2022-07-06_09h32.51.637,Colour_Asymmetry_Pilot,2022.1.3,Win32,60.11783095,62c50e9c1127f2cd403a315f,,,,,,,,,,,,,,,,,,,,,,,,,,,,,,,,,,,,,,,,,,,,,,,,,,,,,,,,,,,,,,,,,,,,,,,,,,,,,,,,,,,,,,,,,,,,,,,,,,,,,,,,,,,,,,,,,,,,,,,,,,,,,,,,,,,,,,,,,,,,,,,,,,,,,,,,,,,,,,,,,,,
0,39,39,25,1,,607417a6a2b03d66922db6c1,62c53a8b270234594f182ae9,2022-07-06_09h32.51.637,Colour_Asymmetry_Pilot,2022.1.3,Win32,60.11783095,62c50e9c1127f2cd403a315f,,,,,,,,,,,,,,,,,,,,,,,,,,,,,,,,,,,,,,,,,,,,,,,,,,,,,,,,,,,,,,,,,,,,,,,,,,,,,,,,,,,,,,,,,,,,,,,,,,,,,,,,,,,,,,,,,,,,,,,,,,,,,,,,,,,,,,,,,,,,,,,,,,,,,,,,,,,,,,,,,,,
0,40,40,47,1,,607417a6a2b03d66922db6c1,62c53a8b270234594f182ae9,2022-07-06_09h32.51.637,Colour_Asymmetry_Pilot,2022.1.3,Win32,60.11783095,62c50e9c1127f2cd403a315f,,,,,,,,,,,,,,,,,,,,,,,,,,,,,,,,,,,,,,,,,,,,,,,,,,,,,,,,,,,,,,,,,,,,,,,,,,,,,,,,,,,,,,,,,,,,,,,,,,,,,,,,,,,,,,,,,,,,,,,,,,,,,,,,,,,,,,,,,,,,,,,,,,,,,,,,,,,,,,,,,,,
0,41,41,52,1,,607417a6a2b03d66922db6c1,62c53a8b270234594f182ae9,2022-07-06_09h32.51.637,Colour_Asymmetry_Pilot,2022.1.3,Win32,60.11783095,62c50e9c1127f2cd403a315f,,,,,,,,,,,,,,,,,,,,,,,,,,,,,,,,,,,,,,,,,,,,,,,,,,,,,,,,,,,,,,,,,,,,,,,,,,,,,,,,,,,,,,,,,,,,,,,,,,,,,,,,,,,,,,,,,,,,,,,,,,,,,,,,,,,,,,,,,,,,,,,,,,,,,,,,,,,,,,,,,,,
0,42,42,50,1,,607417a6a2b03d66922db6c1,62c53a8b270234594f182ae9,2022-07-06_09h32.51.637,Colour_Asymmetry_Pilot,2022.1.3,Win32,60.11783095,62c50e9c1127f2cd403a315f,,,,,,,,,,,,,,,,,,,,,,,,,,,,,,,,,,,,,,,,,,,,,,,,,,,,,,,,,,,,,,,,,,,,,,,,,,,,,,,,,,,,,,,,,,,,,,,,,,,,,,,,,,,,,,,,,,,,,,,,,,,,,,,,,,,,,,,,,,,,,,,,,,,,,,,,,,,,,,,,,,,
0,43,43,83,1,,607417a6a2b03d66922db6c1,62c53a8b270234594f182ae9,2022-07-06_09h32.51.637,Colour_Asymmetry_Pilot,2022.1.3,Win32,60.11783095,62c50e9c1127f2cd403a315f,,,,,,,,,,,,,,,,,,,,,,,,,,,,,,,,,,,,,,,,,,,,,,,,,,,,,,,,,,,,,,,,,,,,,,,,,,,,,,,,,,,,,,,,,,,,,,,,,,,,,,,,,,,,,,,,,,,,,,,,,,,,,,,,,,,,,,,,,,,,,,,,,,,,,,,,,,,,,,,,,,,
0,44,44,72,1,,607417a6a2b03d66922db6c1,62c53a8b270234594f182ae9,2022-07-06_09h32.51.637,Colour_Asymmetry_Pilot,2022.1.3,Win32,60.11783095,62c50e9c1127f2cd403a315f,,,,,,,,,,,,,,,,,,,,,,,,,,,,,,,,,,,,,,,,,,,,,,,,,,,,,,,,,,,,,,,,,,,,,,,,,,,,,,,,,,,,,,,,,,,,,,,,,,,,,,,,,,,,,,,,,,,,,,,,,,,,,,,,,,,,,,,,,,,,,,,,,,,,,,,,,,,,,,,,,,,
0,45,45,26,1,,607417a6a2b03d66922db6c1,62c53a8b270234594f182ae9,2022-07-06_09h32.51.637,Colour_Asymmetry_Pilot,2022.1.3,Win32,60.11783095,62c50e9c1127f2cd403a315f,,,,,,,,,,,,,,,,,,,,,,,,,,,,,,,,,,,,,,,,,,,,,,,,,,,,,,,,,,,,,,,,,,,,,,,,,,,,,,,,,,,,,,,,,,,,,,,,,,,,,,,,,,,,,,,,,,,,,,,,,,,,,,,,,,,,,,,,,,,,,,,,,,,,,,,,,,,,,,,,,,,
0,46,46,43,1,,607417a6a2b03d66922db6c1,62c53a8b270234594f182ae9,2022-07-06_09h32.51.637,Colour_Asymmetry_Pilot,2022.1.3,Win32,60.11783095,62c50e9c1127f2cd403a315f,,,,,,,,,,,,,,,,,,,,,,,,,,,,,,,,,,,,,,,,,,,,,,,,,,,,,,,,,,,,,,,,,,,,,,,,,,,,,,,,,,,,,,,,,,,,,,,,,,,,,,,,,,,,,,,,,,,,,,,,,,,,,,,,,,,,,,,,,,,,,,,,,,,,,,,,,,,,,,,,,,,
0,47,47,20,1,,607417a6a2b03d66922db6c1,62c53a8b270234594f182ae9,2022-07-06_09h32.51.637,Colour_Asymmetry_Pilot,2022.1.3,Win32,60.11783095,62c50e9c1127f2cd403a315f,,,,,,,,,,,,,,,,,,,,,,,,,,,,,,,,,,,,,,,,,,,,,,,,,,,,,,,,,,,,,,,,,,,,,,,,,,,,,,,,,,,,,,,,,,,,,,,,,,,,,,,,,,,,,,,,,,,,,,,,,,,,,,,,,,,,,,,,,,,,,,,,,,,,,,,,,,,,,,,,,,,
0,48,48,80,1,,607417a6a2b03d66922db6c1,62c53a8b270234594f182ae9,2022-07-06_09h32.51.637,Colour_Asymmetry_Pilot,2022.1.3,Win32,60.11783095,62c50e9c1127f2cd403a315f,,,,,,,,,,,,,,,,,,,,,,,,,,,,,,,,,,,,,,,,,,,,,,,,,,,,,,,,,,,,,,,,,,,,,,,,,,,,,,,,,,,,,,,,,,,,,,,,,,,,,,,,,,,,,,,,,,,,,,,,,,,,,,,,,,,,,,,,,,,,,,,,,,,,,,,,,,,,,,,,,,,
0,49,49,45,1,,607417a6a2b03d66922db6c1,62c53a8b270234594f182ae9,2022-07-06_09h32.51.637,Colour_Asymmetry_Pilot,2022.1.3,Win32,60.11783095,62c50e9c1127f2cd403a315f,,,,,,,,,,,,,,,,,,,,,,,,,,,,,,,,,,,,,,,,,,,,,,,,,,,,,,,,,,,,,,,,,,,,,,,,,,,,,,,,,,,,,,,,,,,,,,,,,,,,,,,,,,,,,,,,,,,,,,,,,,,,,,,,,,,,,,,,,,,,,,,,,,,,,,,,,,,,,,,,,,,
0,50,50,65,1,,607417a6a2b03d66922db6c1,62c53a8b270234594f182ae9,2022-07-06_09h32.51.637,Colour_Asymmetry_Pilot,2022.1.3,Win32,60.11783095,62c50e9c1127f2cd403a315f,,,,,,,,,,,,,,,,,,,,,,,,,,,,,,,,,,,,,,,,,,,,,,,,,,,,,,,,,,,,,,,,,,,,,,,,,,,,,,,,,,,,,,,,,,,,,,,,,,,,,,,,,,,,,,,,,,,,,,,,,,,,,,,,,,,,,,,,,,,,,,,,,,,,,,,,,,,,,,,,,,,
0,51,51,10,1,,607417a6a2b03d66922db6c1,62c53a8b270234594f182ae9,2022-07-06_09h32.51.637,Colour_Asymmetry_Pilot,2022.1.3,Win32,60.11783095,62c50e9c1127f2cd403a315f,,,,,,,,,,,,,,,,,,,,,,,,,,,,,,,,,,,,,,,,,,,,,,,,,,,,,,,,,,,,,,,,,,,,,,,,,,,,,,,,,,,,,,,,,,,,,,,,,,,,,,,,,,,,,,,,,,,,,,,,,,,,,,,,,,,,,,,,,,,,,,,,,,,,,,,,,,,,,,,,,,,
0,52,52,14,1,,607417a6a2b03d66922db6c1,62c53a8b270234594f182ae9,2022-07-06_09h32.51.637,Colour_Asymmetry_Pilot,2022.1.3,Win32,60.11783095,62c50e9c1127f2cd403a315f,,,,,,,,,,,,,,,,,,,,,,,,,,,,,,,,,,,,,,,,,,,,,,,,,,,,,,,,,,,,,,,,,,,,,,,,,,,,,,,,,,,,,,,,,,,,,,,,,,,,,,,,,,,,,,,,,,,,,,,,,,,,,,,,,,,,,,,,,,,,,,,,,,,,,,,,,,,,,,,,,,,
0,53,53,27,1,,607417a6a2b03d66922db6c1,62c53a8b270234594f182ae9,2022-07-06_09h32.51.637,Colour_Asymmetry_Pilot,2022.1.3,Win32,60.11783095,62c50e9c1127f2cd403a315f,,,,,,,,,,,,,,,,,,,,,,,,,,,,,,,,,,,,,,,,,,,,,,,,,,,,,,,,,,,,,,,,,,,,,,,,,,,,,,,,,,,,,,,,,,,,,,,,,,,,,,,,,,,,,,,,,,,,,,,,,,,,,,,,,,,,,,,,,,,,,,,,,,,,,,,,,,,,,,,,,,,
0,54,54,30,1,,607417a6a2b03d66922db6c1,62c53a8b270234594f182ae9,2022-07-06_09h32.51.637,Colour_Asymmetry_Pilot,2022.1.3,Win32,60.11783095,62c50e9c1127f2cd403a315f,,,,,,,,,,,,,,,,,,,,,,,,,,,,,,,,,,,,,,,,,,,,,,,,,,,,,,,,,,,,,,,,,,,,,,,,,,,,,,,,,,,,,,,,,,,,,,,,,,,,,,,,,,,,,,,,,,,,,,,,,,,,,,,,,,,,,,,,,,,,,,,,,,,,,,,,,,,,,,,,,,,
0,55,55,19,1,,607417a6a2b03d66922db6c1,62c53a8b270234594f182ae9,2022-07-06_09h32.51.637,Colour_Asymmetry_Pilot,2022.1.3,Win32,60.11783095,62c50e9c1127f2cd403a315f,,,,,,,,,,,,,,,,,,,,,,,,,,,,,,,,,,,,,,,,,,,,,,,,,,,,,,,,,,,,,,,,,,,,,,,,,,,,,,,,,,,,,,,,,,,,,,,,,,,,,,,,,,,,,,,,,,,,,,,,,,,,,,,,,,,,,,,,,,,,,,,,,,,,,,,,,,,,,,,,,,,
0,56,56,49,1,,607417a6a2b03d66922db6c1,62c53a8b270234594f182ae9,2022-07-06_09h32.51.637,Colour_Asymmetry_Pilot,2022.1.3,Win32,60.11783095,62c50e9c1127f2cd403a315f,,,,,,,,,,,,,,,,,,,,,,,,,,,,,,,,,,,,,,,,,,,,,,,,,,,,,,,,,,,,,,,,,,,,,,,,,,,,,,,,,,,,,,,,,,,,,,,,,,,,,,,,,,,,,,,,,,,,,,,,,,,,,,,,,,,,,,,,,,,,,,,,,,,,,,,,,,,,,,,,,,,
0,57,57,63,1,,607417a6a2b03d66922db6c1,62c53a8b270234594f182ae9,2022-07-06_09h32.51.637,Colour_Asymmetry_Pilot,2022.1.3,Win32,60.11783095,62c50e9c1127f2cd403a315f,,,,,,,,,,,,,,,,,,,,,,,,,,,,,,,,,,,,,,,,,,,,,,,,,,,,,,,,,,,,,,,,,,,,,,,,,,,,,,,,,,,,,,,,,,,,,,,,,,,,,,,,,,,,,,,,,,,,,,,,,,,,,,,,,,,,,,,,,,,,,,,,,,,,,,,,,,,,,,,,,,,
0,58,58,58,1,,607417a6a2b03d66922db6c1,62c53a8b270234594f182ae9,2022-07-06_09h32.51.637,Colour_Asymmetry_Pilot,2022.1.3,Win32,60.11783095,62c50e9c1127f2cd403a315f,,,,,,,,,,,,,,,,,,,,,,,,,,,,,,,,,,,,,,,,,,,,,,,,,,,,,,,,,,,,,,,,,,,,,,,,,,,,,,,,,,,,,,,,,,,,,,,,,,,,,,,,,,,,,,,,,,,,,,,,,,,,,,,,,,,,,,,,,,,,,,,,,,,,,,,,,,,,,,,,,,,
0,59,59,44,1,,607417a6a2b03d66922db6c1,62c53a8b270234594f182ae9,2022-07-06_09h32.51.637,Colour_Asymmetry_Pilot,2022.1.3,Win32,60.11783095,62c50e9c1127f2cd403a315f,,,,,,,,,,,,,,,,,,,,,,,,,,,,,,,,,,,,,,,,,,,,,,,,,,,,,,,,,,,,,,,,,,,,,,,,,,,,,,,,,,,,,,,,,,,,,,,,,,,,,,,,,,,,,,,,,,,,,,,,,,,,,,,,,,,,,,,,,,,,,,,,,,,,,,,,,,,,,,,,,,,
0,60,60,15,1,,607417a6a2b03d66922db6c1,62c53a8b270234594f182ae9,2022-07-06_09h32.51.637,Colour_Asymmetry_Pilot,2022.1.3,Win32,60.11783095,62c50e9c1127f2cd403a315f,,,,,,,,,,,,,,,,,,,,,,,,,,,,,,,,,,,,,,,,,,,,,,,,,,,,,,,,,,,,,,,,,,,,,,,,,,,,,,,,,,,,,,,,,,,,,,,,,,,,,,,,,,,,,,,,,,,,,,,,,,,,,,,,,,,,,,,,,,,,,,,,,,,,,,,,,,,,,,,,,,,
0,61,61,51,1,,607417a6a2b03d66922db6c1,62c53a8b270234594f182ae9,2022-07-06_09h32.51.637,Colour_Asymmetry_Pilot,2022.1.3,Win32,60.11783095,62c50e9c1127f2cd403a315f,,,,,,,,,,,,,,,,,,,,,,,,,,,,,,,,,,,,,,,,,,,,,,,,,,,,,,,,,,,,,,,,,,,,,,,,,,,,,,,,,,,,,,,,,,,,,,,,,,,,,,,,,,,,,,,,,,,,,,,,,,,,,,,,,,,,,,,,,,,,,,,,,,,,,,,,,,,,,,,,,,,
0,62,62,11,1,,607417a6a2b03d66922db6c1,62c53a8b270234594f182ae9,2022-07-06_09h32.51.637,Colour_Asymmetry_Pilot,2022.1.3,Win32,60.11783095,62c50e9c1127f2cd403a315f,,,,,,,,,,,,,,,,,,,,,,,,,,,,,,,,,,,,,,,,,,,,,,,,,,,,,,,,,,,,,,,,,,,,,,,,,,,,,,,,,,,,,,,,,,,,,,,,,,,,,,,,,,,,,,,,,,,,,,,,,,,,,,,,,,,,,,,,,,,,,,,,,,,,,,,,,,,,,,,,,,,
0,63,63,73,1,,607417a6a2b03d66922db6c1,62c53a8b270234594f182ae9,2022-07-06_09h32.51.637,Colour_Asymmetry_Pilot,2022.1.3,Win32,60.11783095,62c50e9c1127f2cd403a315f,,,,,,,,,,,,,,,,,,,,,,,,,,,,,,,,,,,,,,,,,,,,,,,,,,,,,,,,,,,,,,,,,,,,,,,,,,,,,,,,,,,,,,,,,,,,,,,,,,,,,,,,,,,,,,,,,,,,,,,,,,,,,,,,,,,,,,,,,,,,,,,,,,,,,,,,,,,,,,,,,,,
0,64,64,46,1,,607417a6a2b03d66922db6c1,62c53a8b270234594f182ae9,2022-07-06_09h32.51.637,Colour_Asymmetry_Pilot,2022.1.3,Win32,60.11783095,62c50e9c1127f2cd403a315f,,,,,,,,,,,,,,,,,,,,,,,,,,,,,,,,,,,,,,,,,,,,,,,,,,,,,,,,,,,,,,,,,,,,,,,,,,,,,,,,,,,,,,,,,,,,,,,,,,,,,,,,,,,,,,,,,,,,,,,,,,,,,,,,,,,,,,,,,,,,,,,,,,,,,,,,,,,,,,,,,,,
0,65,65,7,1,,607417a6a2b03d66922db6c1,62c53a8b270234594f182ae9,2022-07-06_09h32.51.637,Colour_Asymmetry_Pilot,2022.1.3,Win32,60.11783095,62c50e9c1127f2cd403a315f,,,,,,,,,,,,,,,,,,,,,,,,,,,,,,,,,,,,,,,,,,,,,,,,,,,,,,,,,,,,,,,,,,,,,,,,,,,,,,,,,,,,,,,,,,,,,,,,,,,,,,,,,,,,,,,,,,,,,,,,,,,,,,,,,,,,,,,,,,,,,,,,,,,,,,,,,,,,,,,,,,,
0,66,66,69,1,,607417a6a2b03d66922db6c1,62c53a8b270234594f182ae9,2022-07-06_09h32.51.637,Colour_Asymmetry_Pilot,2022.1.3,Win32,60.11783095,62c50e9c1127f2cd403a315f,,,,,,,,,,,,,,,,,,,,,,,,,,,,,,,,,,,,,,,,,,,,,,,,,,,,,,,,,,,,,,,,,,,,,,,,,,,,,,,,,,,,,,,,,,,,,,,,,,,,,,,,,,,,,,,,,,,,,,,,,,,,,,,,,,,,,,,,,,,,,,,,,,,,,,,,,,,,,,,,,,,
0,67,67,23,1,,607417a6a2b03d66922db6c1,62c53a8b270234594f182ae9,2022-07-06_09h32.51.637,Colour_Asymmetry_Pilot,2022.1.3,Win32,60.11783095,62c50e9c1127f2cd403a315f,,,,,,,,,,,,,,,,,,,,,,,,,,,,,,,,,,,,,,,,,,,,,,,,,,,,,,,,,,,,,,,,,,,,,,,,,,,,,,,,,,,,,,,,,,,,,,,,,,,,,,,,,,,,,,,,,,,,,,,,,,,,,,,,,,,,,,,,,,,,,,,,,,,,,,,,,,,,,,,,,,,
0,68,68,34,1,,607417a6a2b03d66922db6c1,62c53a8b270234594f182ae9,2022-07-06_09h32.51.637,Colour_Asymmetry_Pilot,2022.1.3,Win32,60.11783095,62c50e9c1127f2cd403a315f,,,,,,,,,,,,,,,,,,,,,,,,,,,,,,,,,,,,,,,,,,,,,,,,,,,,,,,,,,,,,,,,,,,,,,,,,,,,,,,,,,,,,,,,,,,,,,,,,,,,,,,,,,,,,,,,,,,,,,,,,,,,,,,,,,,,,,,,,,,,,,,,,,,,,,,,,,,,,,,,,,,
0,69,69,8,1,,607417a6a2b03d66922db6c1,62c53a8b270234594f182ae9,2022-07-06_09h32.51.637,Colour_Asymmetry_Pilot,2022.1.3,Win32,60.11783095,62c50e9c1127f2cd403a315f,,,,,,,,,,,,,,,,,,,,,,,,,,,,,,,,,,,,,,,,,,,,,,,,,,,,,,,,,,,,,,,,,,,,,,,,,,,,,,,,,,,,,,,,,,,,,,,,,,,,,,,,,,,,,,,,,,,,,,,,,,,,,,,,,,,,,,,,,,,,,,,,,,,,,,,,,,,,,,,,,,,
0,70,70,77,1,,607417a6a2b03d66922db6c1,62c53a8b270234594f182ae9,2022-07-06_09h32.51.637,Colour_Asymmetry_Pilot,2022.1.3,Win32,60.11783095,62c50e9c1127f2cd403a315f,,,,,,,,,,,,,,,,,,,,,,,,,,,,,,,,,,,,,,,,,,,,,,,,,,,,,,,,,,,,,,,,,,,,,,,,,,,,,,,,,,,,,,,,,,,,,,,,,,,,,,,,,,,,,,,,,,,,,,,,,,,,,,,,,,,,,,,,,,,,,,,,,,,,,,,,,,,,,,,,,,,
0,71,71,28,1,,607417a6a2b03d66922db6c1,62c53a8b270234594f182ae9,2022-07-06_09h32.51.637,Colour_Asymmetry_Pilot,2022.1.3,Win32,60.11783095,62c50e9c1127f2cd403a315f,,,,,,,,,,,,,,,,,,,,,,,,,,,,,,,,,,,,,,,,,,,,,,,,,,,,,,,,,,,,,,,,,,,,,,,,,,,,,,,,,,,,,,,,,,,,,,,,,,,,,,,,,,,,,,,,,,,,,,,,,,,,,,,,,,,,,,,,,,,,,,,,,,,,,,,,,,,,,,,,,,,
0,72,72,88,1,,607417a6a2b03d66922db6c1,62c53a8b270234594f182ae9,2022-07-06_09h32.51.637,Colour_Asymmetry_Pilot,2022.1.3,Win32,60.11783095,62c50e9c1127f2cd403a315f,,,,,,,,,,,,,,,,,,,,,,,,,,,,,,,,,,,,,,,,,,,,,,,,,,,,,,,,,,,,,,,,,,,,,,,,,,,,,,,,,,,,,,,,,,,,,,,,,,,,,,,,,,,,,,,,,,,,,,,,,,,,,,,,,,,,,,,,,,,,,,,,,,,,,,,,,,,,,,,,,,,
0,73,73,12,1,,607417a6a2b03d66922db6c1,62c53a8b270234594f182ae9,2022-07-06_09h32.51.637,Colour_Asymmetry_Pilot,2022.1.3,Win32,60.11783095,62c50e9c1127f2cd403a315f,,,,,,,,,,,,,,,,,,,,,,,,,,,,,,,,,,,,,,,,,,,,,,,,,,,,,,,,,,,,,,,,,,,,,,,,,,,,,,,,,,,,,,,,,,,,,,,,,,,,,,,,,,,,,,,,,,,,,,,,,,,,,,,,,,,,,,,,,,,,,,,,,,,,,,,,,,,,,,,,,,,
0,74,74,53,1,,607417a6a2b03d66922db6c1,62c53a8b270234594f182ae9,2022-07-06_09h32.51.637,Colour_Asymmetry_Pilot,2022.1.3,Win32,60.11783095,62c50e9c1127f2cd403a315f,,,,,,,,,,,,,,,,,,,,,,,,,,,,,,,,,,,,,,,,,,,,,,,,,,,,,,,,,,,,,,,,,,,,,,,,,,,,,,,,,,,,,,,,,,,,,,,,,,,,,,,,,,,,,,,,,,,,,,,,,,,,,,,,,,,,,,,,,,,,,,,,,,,,,,,,,,,,,,,,,,,
0,75,75,67,1,,607417a6a2b03d66922db6c1,62c53a8b270234594f182ae9,2022-07-06_09h32.51.637,Colour_Asymmetry_Pilot,2022.1.3,Win32,60.11783095,62c50e9c1127f2cd403a315f,,,,,,,,,,,,,,,,,,,,,,,,,,,,,,,,,,,,,,,,,,,,,,,,,,,,,,,,,,,,,,,,,,,,,,,,,,,,,,,,,,,,,,,,,,,,,,,,,,,,,,,,,,,,,,,,,,,,,,,,,,,,,,,,,,,,,,,,,,,,,,,,,,,,,,,,,,,,,,,,,,,
0,76,76,54,1,,607417a6a2b03d66922db6c1,62c53a8b270234594f182ae9,2022-07-06_09h32.51.637,Colour_Asymmetry_Pilot,2022.1.3,Win32,60.11783095,62c50e9c1127f2cd403a315f,,,,,,,,,,,,,,,,,,,,,,,,,,,,,,,,,,,,,,,,,,,,,,,,,,,,,,,,,,,,,,,,,,,,,,,,,,,,,,,,,,,,,,,,,,,,,,,,,,,,,,,,,,,,,,,,,,,,,,,,,,,,,,,,,,,,,,,,,,,,,,,,,,,,,,,,,,,,,,,,,,,
0,77,77,29,1,,607417a6a2b03d66922db6c1,62c53a8b270234594f182ae9,2022-07-06_09h32.51.637,Colour_Asymmetry_Pilot,2022.1.3,Win32,60.11783095,62c50e9c1127f2cd403a315f,,,,,,,,,,,,,,,,,,,,,,,,,,,,,,,,,,,,,,,,,,,,,,,,,,,,,,,,,,,,,,,,,,,,,,,,,,,,,,,,,,,,,,,,,,,,,,,,,,,,,,,,,,,,,,,,,,,,,,,,,,,,,,,,,,,,,,,,,,,,,,,,,,,,,,,,,,,,,,,,,,,
0,78,78,75,1,,607417a6a2b03d66922db6c1,62c53a8b270234594f182ae9,2022-07-06_09h32.51.637,Colour_Asymmetry_Pilot,2022.1.3,Win32,60.11783095,62c50e9c1127f2cd403a315f,,,,,,,,,,,,,,,,,,,,,,,,,,,,,,,,,,,,,,,,,,,,,,,,,,,,,,,,,,,,,,,,,,,,,,,,,,,,,,,,,,,,,,,,,,,,,,,,,,,,,,,,,,,,,,,,,,,,,,,,,,,,,,,,,,,,,,,,,,,,,,,,,,,,,,,,,,,,,,,,,,,
0,79,79,91,1,,607417a6a2b03d66922db6c1,62c53a8b270234594f182ae9,2022-07-06_09h32.51.637,Colour_Asymmetry_Pilot,2022.1.3,Win32,60.11783095,62c50e9c1127f2cd403a315f,,,,,,,,,,,,,,,,,,,,,,,,,,,,,,,,,,,,,,,,,,,,,,,,,,,,,,,,,,,,,,,,,,,,,,,,,,,,,,,,,,,,,,,,,,,,,,,,,,,,,,,,,,,,,,,,,,,,,,,,,,,,,,,,,,,,,,,,,,,,,,,,,,,,,,,,,,,,,,,,,,,
0,80,80,76,1,,607417a6a2b03d66922db6c1,62c53a8b270234594f182ae9,2022-07-06_09h32.51.637,Colour_Asymmetry_Pilot,2022.1.3,Win32,60.11783095,62c50e9c1127f2cd403a315f,,,,,,,,,,,,,,,,,,,,,,,,,,,,,,,,,,,,,,,,,,,,,,,,,,,,,,,,,,,,,,,,,,,,,,,,,,,,,,,,,,,,,,,,,,,,,,,,,,,,,,,,,,,,,,,,,,,,,,,,,,,,,,,,,,,,,,,,,,,,,,,,,,,,,,,,,,,,,,,,,,,
0,81,81,62,1,,607417a6a2b03d66922db6c1,62c53a8b270234594f182ae9,2022-07-06_09h32.51.637,Colour_Asymmetry_Pilot,2022.1.3,Win32,60.11783095,62c50e9c1127f2cd403a315f,,,,,,,,,,,,,,,,,,,,,,,,,,,,,,,,,,,,,,,,,,,,,,,,,,,,,,,,,,,,,,,,,,,,,,,,,,,,,,,,,,,,,,,,,,,,,,,,,,,,,,,,,,,,,,,,,,,,,,,,,,,,,,,,,,,,,,,,,,,,,,,,,,,,,,,,,,,,,,,,,,,
0,82,82,85,1,,607417a6a2b03d66922db6c1,62c53a8b270234594f182ae9,2022-07-06_09h32.51.637,Colour_Asymmetry_Pilot,2022.1.3,Win32,60.11783095,62c50e9c1127f2cd403a315f,,,,,,,,,,,,,,,,,,,,,,,,,,,,,,,,,,,,,,,,,,,,,,,,,,,,,,,,,,,,,,,,,,,,,,,,,,,,,,,,,,,,,,,,,,,,,,,,,,,,,,,,,,,,,,,,,,,,,,,,,,,,,,,,,,,,,,,,,,,,,,,,,,,,,,,,,,,,,,,,,,,
0,83,83,36,1,,607417a6a2b03d66922db6c1,62c53a8b270234594f182ae9,2022-07-06_09h32.51.637,Colour_Asymmetry_Pilot,2022.1.3,Win32,60.11783095,62c50e9c1127f2cd403a315f,,,,,,,,,,,,,,,,,,,,,,,,,,,,,,,,,,,,,,,,,,,,,,,,,,,,,,,,,,,,,,,,,,,,,,,,,,,,,,,,,,,,,,,,,,,,,,,,,,,,,,,,,,,,,,,,,,,,,,,,,,,,,,,,,,,,,,,,,,,,,,,,,,,,,,,,,,,,,,,,,,,
0,84,84,18,1,,607417a6a2b03d66922db6c1,62c53a8b270234594f182ae9,2022-07-06_09h32.51.637,Colour_Asymmetry_Pilot,2022.1.3,Win32,60.11783095,62c50e9c1127f2cd403a315f,,,,,,,,,,,,,,,,,,,,,,,,,,,,,,,,,,,,,,,,,,,,,,,,,,,,,,,,,,,,,,,,,,,,,,,,,,,,,,,,,,,,,,,,,,,,,,,,,,,,,,,,,,,,,,,,,,,,,,,,,,,,,,,,,,,,,,,,,,,,,,,,,,,,,,,,,,,,,,,,,,,
0,85,85,32,1,,607417a6a2b03d66922db6c1,62c53a8b270234594f182ae9,2022-07-06_09h32.51.637,Colour_Asymmetry_Pilot,2022.1.3,Win32,60.11783095,62c50e9c1127f2cd403a315f,,,,,,,,,,,,,,,,,,,,,,,,,,,,,,,,,,,,,,,,,,,,,,,,,,,,,,,,,,,,,,,,,,,,,,,,,,,,,,,,,,,,,,,,,,,,,,,,,,,,,,,,,,,,,,,,,,,,,,,,,,,,,,,,,,,,,,,,,,,,,,,,,,,,,,,,,,,,,,,,,,,
0,86,86,66,1,,607417a6a2b03d66922db6c1,62c53a8b270234594f182ae9,2022-07-06_09h32.51.637,Colour_Asymmetry_Pilot,2022.1.3,Win32,60.11783095,62c50e9c1127f2cd403a315f,,,,,,,,,,,,,,,,,,,,,,,,,,,,,,,,,,,,,,,,,,,,,,,,,,,,,,,,,,,,,,,,,,,,,,,,,,,,,,,,,,,,,,,,,,,,,,,,,,,,,,,,,,,,,,,,,,,,,,,,,,,,,,,,,,,,,,,,,,,,,,,,,,,,,,,,,,,,,,,,,,,
0,87,87,87,1,,607417a6a2b03d66922db6c1,62c53a8b270234594f182ae9,2022-07-06_09h32.51.637,Colour_Asymmetry_Pilot,2022.1.3,Win32,60.11783095,62c50e9c1127f2cd403a315f,,,,,,,,,,,,,,,,,,,,,,,,,,,,,,,,,,,,,,,,,,,,,,,,,,,,,,,,,,,,,,,,,,,,,,,,,,,,,,,,,,,,,,,,,,,,,,,,,,,,,,,,,,,,,,,,,,,,,,,,,,,,,,,,,,,,,,,,,,,,,,,,,,,,,,,,,,,,,,,,,,,
0,88,88,22,1,,607417a6a2b03d66922db6c1,62c53a8b270234594f182ae9,2022-07-06_09h32.51.637,Colour_Asymmetry_Pilot,2022.1.3,Win32,60.11783095,62c50e9c1127f2cd403a315f,,,,,,,,,,,,,,,,,,,,,,,,,,,,,,,,,,,,,,,,,,,,,,,,,,,,,,,,,,,,,,,,,,,,,,,,,,,,,,,,,,,,,,,,,,,,,,,,,,,,,,,,,,,,,,,,,,,,,,,,,,,,,,,,,,,,,,,,,,,,,,,,,,,,,,,,,,,,,,,,,,,
0,89,89,1,1,,607417a6a2b03d66922db6c1,62c53a8b270234594f182ae9,2022-07-06_09h32.51.637,Colour_Asymmetry_Pilot,2022.1.3,Win32,60.11783095,62c50e9c1127f2cd403a315f,,,,,,,,,,,,,,,,,,,,,,,,,,,,,,,,,,,,,,,,,,,,,,,,,,,,,,,,,,,,,,,,,,,,,,,,,,,,,,,,,,,,,,,,,,,,,,,,,,,,,,,,,,,,,,,,,,,,,,,,,,,,,,,,,,,,,,,,,,,,,,,,,,,,,,,,,,,,,,,,,,,
0,90,90,9,1,,607417a6a2b03d66922db6c1,62c53a8b270234594f182ae9,2022-07-06_09h32.51.637,Colour_Asymmetry_Pilot,2022.1.3,Win32,60.11783095,62c50e9c1127f2cd403a315f,,,,,,,,,,,,,,,,,,,,,,,,,,,,,,,,,,,,,,,,,,,,,,,,,,,,,,,,,,,,,,,,,,,,,,,,,,,,,,,,,,,,,,,,,,,,,,,,,,,,,,,,,,,,,,,,,,,,,,,,,,,,,,,,,,,,,,,,,,,,,,,,,,,,,,,,,,,,,,,,,,,
0,91,91,48,1,,607417a6a2b03d66922db6c1,62c53a8b270234594f182ae9,2022-07-06_09h32.51.637,Colour_Asymmetry_Pilot,2022.1.3,Win32,60.11783095,62c50e9c1127f2cd403a315f,,,,,,,,,,,,,,,,,,,,,,,,,,,,,,,,,,,,,,,,,,,,,,,,,,,,,,,,,,,,,,,,,,,,,,,,,,,,,,,,,,,,,,,,,,,,,,,,,,,,,,,,,,,,,,,,,,,,,,,,,,,,,,,,,,,,,,,,,,,,,,,,,,,,,,,,,,,,,,,,,,,
0,92,92,78,1,,607417a6a2b03d66922db6c1,62c53a8b270234594f182ae9,2022-07-06_09h32.51.637,Colour_Asymmetry_Pilot,2022.1.3,Win32,60.11783095,62c50e9c1127f2cd403a315f,,,,,,,,,,,,,,,,,,,,,,,,,,,,,,,,,,,,,,,,,,,,,,,,,,,,,,,,,,,,,,,,,,,,,,,,,,,,,,,,,,,,,,,,,,,,,,,,,,,,,,,,,,,,,,,,,,,,,,,,,,,,,,,,,,,,,,,,,,,,,,,,,,,,,,,,,,,,,,,,,,,
,,,,,,607417a6a2b03d66922db6c1,62c53a8b270234594f182ae9,2022-07-06_09h32.51.637,Colour_Asymmetry_Pilot,2022.1.3,Win32,60.11783095,62c50e9c1127f2cd403a315f,0,0,0,132,1,threeone,,,,,,,,,,,,,,,,,,,,,,,,,,,,,,,,,,,,,,,,,,,,,,,,,,,,,,,,,,,,,,,,,,,,,,,,,,,,,,,,,,,,,,,,,,,,,,,,,,,,,,,,,,,,,,,,,,,,,,,,,,,,,,,,,,,,,,,,,,,,,,,,,,,,,,,,,,,,,
,,,,,,607417a6a2b03d66922db6c1,62c53a8b270234594f182ae9,2022-07-06_09h32.51.637,Colour_Asymmetry_Pilot,2022.1.3,Win32,60.11783095,62c50e9c1127f2cd403a315f,0,1,1,29,1,threefour,,,,,,,,,,,,,,,,,,,,,,,,,,,,,,,,,,,,,,,,,,,,,,,,,,,,,,,,,,,,,,,,,,,,,,,,,,,,,,,,,,,,,,,,,,,,,,,,,,,,,,,,,,,,,,,,,,,,,,,,,,,,,,,,,,,,,,,,,,,,,,,,,,,,,,,,,,,,,
,,,,,,607417a6a2b03d66922db6c1,62c53a8b270234594f182ae9,2022-07-06_09h32.51.637,Colour_Asymmetry_Pilot,2022.1.3,Win32,60.11783095,62c50e9c1127f2cd403a315f,0,2,2,64,1,onetwo,,,,,,,,,,,,,,,,,,,,,,,,,,,,,,,,,,,,,,,,,,,,,,,,,,,,,,,,,,,,,,,,,,,,,,,,,,,,,,,,,,,,,,,,,,,,,,,,,,,,,,,,,,,,,,,,,,,,,,,,,,,,,,,,,,,,,,,,,,,,,,,,,,,,,,,,,,,,,
,,,,,,607417a6a2b03d66922db6c1,62c53a8b270234594f182ae9,2022-07-06_09h32.51.637,Colour_Asymmetry_Pilot,2022.1.3,Win32,60.11783095,62c50e9c1127f2cd403a315f,0,3,3,106,1,twoone,,,,,,,,,,,,,,,,,,,,,,,,,,,,,,,,,,,,,,,,,,,,,,,,,,,,,,,,,,,,,,,,,,,,,,,,,,,,,,,,,,,,,,,,,,,,,,,,,,,,,,,,,,,,,,,,,,,,,,,,,,,,,,,,,,,,,,,,,,,,,,,,,,,,,,,,,,,,,
,,,,,,607417a6a2b03d66922db6c1,62c53a8b270234594f182ae9,2022-07-06_09h32.51.637,Colour_Asymmetry_Pilot,2022.1.3,Win32,60.11783095,62c50e9c1127f2cd403a315f,0,4,4,114,1,twoone,,,,,,,,,,,,,,,,,,,,,,,,,,,,,,,,,,,,,,,,,,,,,,,,,,,,,,,,,,,,,,,,,,,,,,,,,,,,,,,,,,,,,,,,,,,,,,,,,,,,,,,,,,,,,,,,,,,,,,,,,,,,,,,,,,,,,,,,,,,,,,,,,,,,,,,,,,,,,
,,,,,,607417a6a2b03d66922db6c1,62c53a8b270234594f182ae9,2022-07-06_09h32.51.637,Colour_Asymmetry_Pilot,2022.1.3,Win32,60.11783095,62c50e9c1127f2cd403a315f,0,5,5,4,1,threeone,,,,,,,,,,,,,,,,,,,,,,,,,,,,,,,,,,,,,,,,,,,,,,,,,,,,,,,,,,,,,,,,,,,,,,,,,,,,,,,,,,,,,,,,,,,,,,,,,,,,,,,,,,,,,,,,,,,,,,,,,,,,,,,,,,,,,,,,,,,,,,,,,,,,,,,,,,,,,
,,,,,,607417a6a2b03d66922db6c1,62c53a8b270234594f182ae9,2022-07-06_09h32.51.637,Colour_Asymmetry_Pilot,2022.1.3,Win32,60.11783095,62c50e9c1127f2cd403a315f,0,6,6,115,1,twofour,,,,,,,,,,,,,,,,,,,,,,,,,,,,,,,,,,,,,,,,,,,,,,,,,,,,,,,,,,,,,,,,,,,,,,,,,,,,,,,,,,,,,,,,,,,,,,,,,,,,,,,,,,,,,,,,,,,,,,,,,,,,,,,,,,,,,,,,,,,,,,,,,,,,,,,,,,,,,
,,,,,,607417a6a2b03d66922db6c1,62c53a8b270234594f182ae9,2022-07-06_09h32.51.637,Colour_Asymmetry_Pilot,2022.1.3,Win32,60.11783095,62c50e9c1127f2cd403a315f,0,7,7,18,1,twoone,,,,,,,,,,,,,,,,,,,,,,,,,,,,,,,,,,,,,,,,,,,,,,,,,,,,,,,,,,,,,,,,,,,,,,,,,,,,,,,,,,,,,,,,,,,,,,,,,,,,,,,,,,,,,,,,,,,,,,,,,,,,,,,,,,,,,,,,,,,,,,,,,,,,,,,,,,,,,
,,,,,,607417a6a2b03d66922db6c1,62c53a8b270234594f182ae9,2022-07-06_09h32.51.637,Colour_Asymmetry_Pilot,2022.1.3,Win32,60.11783095,62c50e9c1127f2cd403a315f,0,8,8,15,1,fourthree,,,,,,,,,,,,,,,,,,,,,,,,,,,,,,,,,,,,,,,,,,,,,,,,,,,,,,,,,,,,,,,,,,,,,,,,,,,,,,,,,,,,,,,,,,,,,,,,,,,,,,,,,,,,,,,,,,,,,,,,,,,,,,,,,,,,,,,,,,,,,,,,,,,,,,,,,,,,,
,,,,,,607417a6a2b03d66922db6c1,62c53a8b270234594f182ae9,2022-07-06_09h32.51.637,Colour_Asymmetry_Pilot,2022.1.3,Win32,60.11783095,62c50e9c1127f2cd403a315f,0,9,9,93,1,threefour,,,,,,,,,,,,,,,,,,,,,,,,,,,,,,,,,,,,,,,,,,,,,,,,,,,,,,,,,,,,,,,,,,,,,,,,,,,,,,,,,,,,,,,,,,,,,,,,,,,,,,,,,,,,,,,,,,,,,,,,,,,,,,,,,,,,,,,,,,,,,,,,,,,,,,,,,,,,,
,,,,,,607417a6a2b03d66922db6c1,62c53a8b270234594f182ae9,2022-07-06_09h32.51.637,Colour_Asymmetry_Pilot,2022.1.3,Win32,60.11783095,62c50e9c1127f2cd403a315f,0,10,10,121,1,onethree,,,,,,,,,,,,,,,,,,,,,,,,,,,,,,,,,,,,,,,,,,,,,,,,,,,,,,,,,,,,,,,,,,,,,,,,,,,,,,,,,,,,,,,,,,,,,,,,,,,,,,,,,,,,,,,,,,,,,,,,,,,,,,,,,,,,,,,,,,,,,,,,,,,,,,,,,,,,,
,,,,,,607417a6a2b03d66922db6c1,62c53a8b270234594f182ae9,2022-07-06_09h32.51.637,Colour_Asymmetry_Pilot,2022.1.3,Win32,60.11783095,62c50e9c1127f2cd403a315f,0,11,11,48,1,onetwo,,,,,,,,,,,,,,,,,,,,,,,,,,,,,,,,,,,,,,,,,,,,,,,,,,,,,,,,,,,,,,,,,,,,,,,,,,,,,,,,,,,,,,,,,,,,,,,,,,,,,,,,,,,,,,,,,,,,,,,,,,,,,,,,,,,,,,,,,,,,,,,,,,,,,,,,,,,,,
,,,,,,607417a6a2b03d66922db6c1,62c53a8b270234594f182ae9,2022-07-06_09h32.51.637,Colour_Asymmetry_Pilot,2022.1.3,Win32,60.11783095,62c50e9c1127f2cd403a315f,0,12,12,43,1,twofour,,,,,,,,,,,,,,,,,,,,,,,,,,,,,,,,,,,,,,,,,,,,,,,,,,,,,,,,,,,,,,,,,,,,,,,,,,,,,,,,,,,,,,,,,,,,,,,,,,,,,,,,,,,,,,,,,,,,,,,,,,,,,,,,,,,,,,,,,,,,,,,,,,,,,,,,,,,,,
,,,,,,607417a6a2b03d66922db6c1,62c53a8b270234594f182ae9,2022-07-06_09h32.51.637,Colour_Asymmetry_Pilot,2022.1.3,Win32,60.11783095,62c50e9c1127f2cd403a315f,0,13,13,154,1,twoone,,,,,,,,,,,,,,,,,,,,,,,,,,,,,,,,,,,,,,,,,,,,,,,,,,,,,,,,,,,,,,,,,,,,,,,,,,,,,,,,,,,,,,,,,,,,,,,,,,,,,,,,,,,,,,,,,,,,,,,,,,,,,,,,,,,,,,,,,,,,,,,,,,,,,,,,,,,,,
,,,,,,607417a6a2b03d66922db6c1,62c53a8b270234594f182ae9,2022-07-06_09h32.51.637,Colour_Asymmetry_Pilot,2022.1.3,Win32,60.11783095,62c50e9c1127f2cd403a315f,0,14,14,5,1,threefour,,,,,,,,,,,,,,,,,,,,,,,,,,,,,,,,,,,,,,,,,,,,,,,,,,,,,,,,,,,,,,,,,,,,,,,,,,,,,,,,,,,,,,,,,,,,,,,,,,,,,,,,,,,,,,,,,,,,,,,,,,,,,,,,,,,,,,,,,,,,,,,,,,,,,,,,,,,,,
,,,,,,607417a6a2b03d66922db6c1,62c53a8b270234594f182ae9,2022-07-06_09h32.51.637,Colour_Asymmetry_Pilot,2022.1.3,Win32,60.11783095,62c50e9c1127f2cd403a315f,0,15,15,129,1,onethree,,,,,,,,,,,,,,,,,,,,,,,,,,,,,,,,,,,,,,,,,,,,,,,,,,,,,,,,,,,,,,,,,,,,,,,,,,,,,,,,,,,,,,,,,,,,,,,,,,,,,,,,,,,,,,,,,,,,,,,,,,,,,,,,,,,,,,,,,,,,,,,,,,,,,,,,,,,,,
,,,,,,607417a6a2b03d66922db6c1,62c53a8b270234594f182ae9,2022-07-06_09h32.51.637,Colour_Asymmetry_Pilot,2022.1.3,Win32,60.11783095,62c50e9c1127f2cd403a315f,0,16,16,119,1,fourthree,,,,,,,,,,,,,,,,,,,,,,,,,,,,,,,,,,,,,,,,,,,,,,,,,,,,,,,,,,,,,,,,,,,,,,,,,,,,,,,,,,,,,,,,,,,,,,,,,,,,,,,,,,,,,,,,,,,,,,,,,,,,,,,,,,,,,,,,,,,,,,,,,,,,,,,,,,,,,
,,,,,,607417a6a2b03d66922db6c1,62c53a8b270234594f182ae9,2022-07-06_09h32.51.637,Colour_Asymmetry_Pilot,2022.1.3,Win32,60.11783095,62c50e9c1127f2cd403a315f,0,17,17,135,1,fourthree,,,,,,,,,,,,,,,,,,,,,,,,,,,,,,,,,,,,,,,,,,,,,,,,,,,,,,,,,,,,,,,,,,,,,,,,,,,,,,,,,,,,,,,,,,,,,,,,,,,,,,,,,,,,,,,,,,,,,,,,,,,,,,,,,,,,,,,,,,,,,,,,,,,,,,,,,,,,,
,,,,,,607417a6a2b03d66922db6c1,62c53a8b270234594f182ae9,2022-07-06_09h32.51.637,Colour_Asymmetry_Pilot,2022.1.3,Win32,60.11783095,62c50e9c1127f2cd403a315f,0,18,18,133,1,threefour,,,,,,,,,,,,,,,,,,,,,,,,,,,,,,,,,,,,,,,,,,,,,,,,,,,,,,,,,,,,,,,,,,,,,,,,,,,,,,,,,,,,,,,,,,,,,,,,,,,,,,,,,,,,,,,,,,,,,,,,,,,,,,,,,,,,,,,,,,,,,,,,,,,,,,,,,,,,,
,,,,,,607417a6a2b03d66922db6c1,62c53a8b270234594f182ae9,2022-07-06_09h32.51.637,Colour_Asymmetry_Pilot,2022.1.3,Win32,60.11783095,62c50e9c1127f2cd403a315f,0,19,19,19,1,twofour,,,,,,,,,,,,,,,,,,,,,,,,,,,,,,,,,,,,,,,,,,,,,,,,,,,,,,,,,,,,,,,,,,,,,,,,,,,,,,,,,,,,,,,,,,,,,,,,,,,,,,,,,,,,,,,,,,,,,,,,,,,,,,,,,,,,,,,,,,,,,,,,,,,,,,,,,,,,,
,,,,,,607417a6a2b03d66922db6c1,62c53a8b270234594f182ae9,2022-07-06_09h32.51.637,Colour_Asymmetry_Pilot,2022.1.3,Win32,60.11783095,62c50e9c1127f2cd403a315f,0,20,20,72,1,onetwo,,,,,,,,,,,,,,,,,,,,,,,,,,,,,,,,,,,,,,,,,,,,,,,,,,,,,,,,,,,,,,,,,,,,,,,,,,,,,,,,,,,,,,,,,,,,,,,,,,,,,,,,,,,,,,,,,,,,,,,,,,,,,,,,,,,,,,,,,,,,,,,,,,,,,,,,,,,,,
,,,,,,607417a6a2b03d66922db6c1,62c53a8b270234594f182ae9,2022-07-06_09h32.51.637,Colour_Asymmetry_Pilot,2022.1.3,Win32,60.11783095,62c50e9c1127f2cd403a315f,0,21,21,96,1,onetwo,,,,,,,,,,,,,,,,,,,,,,,,,,,,,,,,,,,,,,,,,,,,,,,,,,,,,,,,,,,,,,,,,,,,,,,,,,,,,,,,,,,,,,,,,,,,,,,,,,,,,,,,,,,,,,,,,,,,,,,,,,,,,,,,,,,,,,,,,,,,,,,,,,,,,,,,,,,,,
,,,,,,607417a6a2b03d66922db6c1,62c53a8b270234594f182ae9,2022-07-06_09h32.51.637,Colour_Asymmetry_Pilot,2022.1.3,Win32,60.11783095,62c50e9c1127f2cd403a315f,0,22,22,92,1,threeone,,,,,,,,,,,,,,,,,,,,,,,,,,,,,,,,,,,,,,,,,,,,,,,,,,,,,,,,,,,,,,,,,,,,,,,,,,,,,,,,,,,,,,,,,,,,,,,,,,,,,,,,,,,,,,,,,,,,,,,,,,,,,,,,,,,,,,,,,,,,,,,,,,,,,,,,,,,,,
,,,,,,607417a6a2b03d66922db6c1,62c53a8b270234594f182ae9,2022-07-06_09h32.51.637,Colour_Asymmetry_Pilot,2022.1.3,Win32,60.11783095,62c50e9c1127f2cd403a315f,0,23,23,31,1,fourthree,,,,,,,,,,,,,,,,,,,,,,,,,,,,,,,,,,,,,,,,,,,,,,,,,,,,,,,,,,,,,,,,,,,,,,,,,,,,,,,,,,,,,,,,,,,,,,,,,,,,,,,,,,,,,,,,,,,,,,,,,,,,,,,,,,,,,,,,,,,,,,,,,,,,,,,,,,,,,
,,,,,,607417a6a2b03d66922db6c1,62c53a8b270234594f182ae9,2022-07-06_09h32.51.637,Colour_Asymmetry_Pilot,2022.1.3,Win32,60.11783095,62c50e9c1127f2cd403a315f,0,24,24,66,1,twoone,,,,,,,,,,,,,,,,,,,,,,,,,,,,,,,,,,,,,,,,,,,,,,,,,,,,,,,,,,,,,,,,,,,,,,,,,,,,,,,,,,,,,,,,,,,,,,,,,,,,,,,,,,,,,,,,,,,,,,,,,,,,,,,,,,,,,,,,,,,,,,,,,,,,,,,,,,,,,
,,,,,,607417a6a2b03d66922db6c1,62c53a8b270234594f182ae9,2022-07-06_09h32.51.637,Colour_Asymmetry_Pilot,2022.1.3,Win32,60.11783095,62c50e9c1127f2cd403a315f,0,25,25,153,1,onethree,,,,,,,,,,,,,,,,,,,,,,,,,,,,,,,,,,,,,,,,,,,,,,,,,,,,,,,,,,,,,,,,,,,,,,,,,,,,,,,,,,,,,,,,,,,,,,,,,,,,,,,,,,,,,,,,,,,,,,,,,,,,,,,,,,,,,,,,,,,,,,,,,,,,,,,,,,,,,
,,,,,,607417a6a2b03d66922db6c1,62c53a8b270234594f182ae9,2022-07-06_09h32.51.637,Colour_Asymmetry_Pilot,2022.1.3,Win32,60.11783095,62c50e9c1127f2cd403a315f,0,26,26,84,1,threeone,,,,,,,,,,,,,,,,,,,,,,,,,,,,,,,,,,,,,,,,,,,,,,,,,,,,,,,,,,,,,,,,,,,,,,,,,,,,,,,,,,,,,,,,,,,,,,,,,,,,,,,,,,,,,,,,,,,,,,,,,,,,,,,,,,,,,,,,,,,,,,,,,,,,,,,,,,,,,
,,,,,,607417a6a2b03d66922db6c1,62c53a8b270234594f182ae9,2022-07-06_09h32.51.637,Colour_Asymmetry_Pilot,2022.1.3,Win32,60.11783095,62c50e9c1127f2cd403a315f,0,27,27,61,1,threefour,,,,,,,,,,,,,,,,,,,,,,,,,,,,,,,,,,,,,,,,,,,,,,,,,,,,,,,,,,,,,,,,,,,,,,,,,,,,,,,,,,,,,,,,,,,,,,,,,,,,,,,,,,,,,,,,,,,,,,,,,,,,,,,,,,,,,,,,,,,,,,,,,,,,,,,,,,,,,
,,,,,,607417a6a2b03d66922db6c1,62c53a8b270234594f182ae9,2022-07-06_09h32.51.637,Colour_Asymmetry_Pilot,2022.1.3,Win32,60.11783095,62c50e9c1127f2cd403a315f,0,28,28,71,1,fourthree,,,,,,,,,,,,,,,,,,,,,,,,,,,,,,,,,,,,,,,,,,,,,,,,,,,,,,,,,,,,,,,,,,,,,,,,,,,,,,,,,,,,,,,,,,,,,,,,,,,,,,,,,,,,,,,,,,,,,,,,,,,,,,,,,,,,,,,,,,,,,,,,,,,,,,,,,,,,,
,,,,,,607417a6a2b03d66922db6c1,62c53a8b270234594f182ae9,2022-07-06_09h32.51.637,Colour_Asymmetry_Pilot,2022.1.3,Win32,60.11783095,62c50e9c1127f2cd403a315f,0,29,29,120,1,onetwo,,,,,,,,,,,,,,,,,,,,,,,,,,,,,,,,,,,,,,,,,,,,,,,,,,,,,,,,,,,,,,,,,,,,,,,,,,,,,,,,,,,,,,,,,,,,,,,,,,,,,,,,,,,,,,,,,,,,,,,,,,,,,,,,,,,,,,,,,,,,,,,,,,,,,,,,,,,,,
,,,,,,607417a6a2b03d66922db6c1,62c53a8b270234594f182ae9,2022-07-06_09h32.51.637,Colour_Asymmetry_Pilot,2022.1.3,Win32,60.11783095,62c50e9c1127f2cd403a315f,0,30,30,156,1,threeone,,,,,,,,,,,,,,,,,,,,,,,,,,,,,,,,,,,,,,,,,,,,,,,,,,,,,,,,,,,,,,,,,,,,,,,,,,,,,,,,,,,,,,,,,,,,,,,,,,,,,,,,,,,,,,,,,,,,,,,,,,,,,,,,,,,,,,,,,,,,,,,,,,,,,,,,,,,,,
,,,,,,607417a6a2b03d66922db6c1,62c53a8b270234594f182ae9,2022-07-06_09h32.51.637,Colour_Asymmetry_Pilot,2022.1.3,Win32,60.11783095,62c50e9c1127f2cd403a315f,0,31,31,77,1,threefour,,,,,,,,,,,,,,,,,,,,,,,,,,,,,,,,,,,,,,,,,,,,,,,,,,,,,,,,,,,,,,,,,,,,,,,,,,,,,,,,,,,,,,,,,,,,,,,,,,,,,,,,,,,,,,,,,,,,,,,,,,,,,,,,,,,,,,,,,,,,,,,,,,,,,,,,,,,,,
,,,,,,607417a6a2b03d66922db6c1,62c53a8b270234594f182ae9,2022-07-06_09h32.51.637,Colour_Asymmetry_Pilot,2022.1.3,Win32,60.11783095,62c50e9c1127f2cd403a315f,0,32,32,126,1,fourtwo,,,,,,,,,,,,,,,,,,,,,,,,,,,,,,,,,,,,,,,,,,,,,,,,,,,,,,,,,,,,,,,,,,,,,,,,,,,,,,,,,,,,,,,,,,,,,,,,,,,,,,,,,,,,,,,,,,,,,,,,,,,,,,,,,,,,,,,,,,,,,,,,,,,,,,,,,,,,,
,,,,,,607417a6a2b03d66922db6c1,62c53a8b270234594f182ae9,2022-07-06_09h32.51.637,Colour_Asymmetry_Pilot,2022.1.3,Win32,60.11783095,62c50e9c1127f2cd403a315f,0,33,33,117,1,threefour,,,,,,,,,,,,,,,,,,,,,,,,,,,,,,,,,,,,,,,,,,,,,,,,,,,,,,,,,,,,,,,,,,,,,,,,,,,,,,,,,,,,,,,,,,,,,,,,,,,,,,,,,,,,,,,,,,,,,,,,,,,,,,,,,,,,,,,,,,,,,,,,,,,,,,,,,,,,,
,,,,,,607417a6a2b03d66922db6c1,62c53a8b270234594f182ae9,2022-07-06_09h32.51.637,Colour_Asymmetry_Pilot,2022.1.3,Win32,60.11783095,62c50e9c1127f2cd403a315f,0,34,34,94,1,fourtwo,,,,,,,,,,,,,,,,,,,,,,,,,,,,,,,,,,,,,,,,,,,,,,,,,,,,,,,,,,,,,,,,,,,,,,,,,,,,,,,,,,,,,,,,,,,,,,,,,,,,,,,,,,,,,,,,,,,,,,,,,,,,,,,,,,,,,,,,,,,,,,,,,,,,,,,,,,,,,
,,,,,,607417a6a2b03d66922db6c1,62c53a8b270234594f182ae9,2022-07-06_09h32.51.637,Colour_Asymmetry_Pilot,2022.1.3,Win32,60.11783095,62c50e9c1127f2cd403a315f,0,35,35,113,1,onethree,,,,,,,,,,,,,,,,,,,,,,,,,,,,,,,,,,,,,,,,,,,,,,,,,,,,,,,,,,,,,,,,,,,,,,,,,,,,,,,,,,,,,,,,,,,,,,,,,,,,,,,,,,,,,,,,,,,,,,,,,,,,,,,,,,,,,,,,,,,,,,,,,,,,,,,,,,,,,
,,,,,,607417a6a2b03d66922db6c1,62c53a8b270234594f182ae9,2022-07-06_09h32.51.637,Colour_Asymmetry_Pilot,2022.1.3,Win32,60.11783095,62c50e9c1127f2cd403a315f,0,36,36,74,1,twoone,,,,,,,,,,,,,,,,,,,,,,,,,,,,,,,,,,,,,,,,,,,,,,,,,,,,,,,,,,,,,,,,,,,,,,,,,,,,,,,,,,,,,,,,,,,,,,,,,,,,,,,,,,,,,,,,,,,,,,,,,,,,,,,,,,,,,,,,,,,,,,,,,,,,,,,,,,,,,
,,,,,,607417a6a2b03d66922db6c1,62c53a8b270234594f182ae9,2022-07-06_09h32.51.637,Colour_Asymmetry_Pilot,2022.1.3,Win32,60.11783095,62c50e9c1127f2cd403a315f,0,37,37,89,1,onethree,,,,,,,,,,,,,,,,,,,,,,,,,,,,,,,,,,,,,,,,,,,,,,,,,,,,,,,,,,,,,,,,,,,,,,,,,,,,,,,,,,,,,,,,,,,,,,,,,,,,,,,,,,,,,,,,,,,,,,,,,,,,,,,,,,,,,,,,,,,,,,,,,,,,,,,,,,,,,
,,,,,,607417a6a2b03d66922db6c1,62c53a8b270234594f182ae9,2022-07-06_09h32.51.637,Colour_Asymmetry_Pilot,2022.1.3,Win32,60.11783095,62c50e9c1127f2cd403a315f,0,38,38,59,1,twofour,,,,,,,,,,,,,,,,,,,,,,,,,,,,,,,,,,,,,,,,,,,,,,,,,,,,,,,,,,,,,,,,,,,,,,,,,,,,,,,,,,,,,,,,,,,,,,,,,,,,,,,,,,,,,,,,,,,,,,,,,,,,,,,,,,,,,,,,,,,,,,,,,,,,,,,,,,,,,
,,,,,,607417a6a2b03d66922db6c1,62c53a8b270234594f182ae9,2022-07-06_09h32.51.637,Colour_Asymmetry_Pilot,2022.1.3,Win32,60.11783095,62c50e9c1127f2cd403a315f,0,39,39,75,1,twofour,,,,,,,,,,,,,,,,,,,,,,,,,,,,,,,,,,,,,,,,,,,,,,,,,,,,,,,,,,,,,,,,,,,,,,,,,,,,,,,,,,,,,,,,,,,,,,,,,,,,,,,,,,,,,,,,,,,,,,,,,,,,,,,,,,,,,,,,,,,,,,,,,,,,,,,,,,,,,
,,,,,,607417a6a2b03d66922db6c1,62c53a8b270234594f182ae9,2022-07-06_09h32.51.637,Colour_Asymmetry_Pilot,2022.1.3,Win32,60.11783095,62c50e9c1127f2cd403a315f,0,40,40,149,1,threefour,,,,,,,,,,,,,,,,,,,,,,,,,,,,,,,,,,,,,,,,,,,,,,,,,,,,,,,,,,,,,,,,,,,,,,,,,,,,,,,,,,,,,,,,,,,,,,,,,,,,,,,,,,,,,,,,,,,,,,,,,,,,,,,,,,,,,,,,,,,,,,,,,,,,,,,,,,,,,
,,,,,,607417a6a2b03d66922db6c1,62c53a8b270234594f182ae9,2022-07-06_09h32.51.637,Colour_Asymmetry_Pilot,2022.1.3,Win32,60.11783095,62c50e9c1127f2cd403a315f,0,41,41,39,1,fourthree,,,,,,,,,,,,,,,,,,,,,,,,,,,,,,,,,,,,,,,,,,,,,,,,,,,,,,,,,,,,,,,,,,,,,,,,,,,,,,,,,,,,,,,,,,,,,,,,,,,,,,,,,,,,,,,,,,,,,,,,,,,,,,,,,,,,,,,,,,,,,,,,,,,,,,,,,,,,,
,,,,,,607417a6a2b03d66922db6c1,62c53a8b270234594f182ae9,2022-07-06_09h32.51.637,Colour_Asymmetry_Pilot,2022.1.3,Win32,60.11783095,62c50e9c1127f2cd403a315f,0,42,42,91,1,twofour,,,,,,,,,,,,,,,,,,,,,,,,,,,,,,,,,,,,,,,,,,,,,,,,,,,,,,,,,,,,,,,,,,,,,,,,,,,,,,,,,,,,,,,,,,,,,,,,,,,,,,,,,,,,,,,,,,,,,,,,,,,,,,,,,,,,,,,,,,,,,,,,,,,,,,,,,,,,,
,,,,,,607417a6a2b03d66922db6c1,62c53a8b270234594f182ae9,2022-07-06_09h32.51.637,Colour_Asymmetry_Pilot,2022.1.3,Win32,60.11783095,62c50e9c1127f2cd403a315f,0,43,43,32,1,onetwo,,,,,,,,,,,,,,,,,,,,,,,,,,,,,,,,,,,,,,,,,,,,,,,,,,,,,,,,,,,,,,,,,,,,,,,,,,,,,,,,,,,,,,,,,,,,,,,,,,,,,,,,,,,,,,,,,,,,,,,,,,,,,,,,,,,,,,,,,,,,,,,,,,,,,,,,,,,,,
,,,,,,607417a6a2b03d66922db6c1,62c53a8b270234594f182ae9,2022-07-06_09h32.51.637,Colour_Asymmetry_Pilot,2022.1.3,Win32,60.11783095,62c50e9c1127f2cd403a315f,0,44,44,87,1,fourthree,,,,,,,,,,,,,,,,,,,,,,,,,,,,,,,,,,,,,,,,,,,,,,,,,,,,,,,,,,,,,,,,,,,,,,,,,,,,,,,,,,,,,,,,,,,,,,,,,,,,,,,,,,,,,,,,,,,,,,,,,,,,,,,,,,,,,,,,,,,,,,,,,,,,,,,,,,,,,
,,,,,,607417a6a2b03d66922db6c1,62c53a8b270234594f182ae9,2022-07-06_09h32.51.637,Colour_Asymmetry_Pilot,2022.1.3,Win32,60.11783095,62c50e9c1127f2cd403a315f,0,45,45,110,1,fourtwo,,,,,,,,,,,,,,,,,,,,,,,,,,,,,,,,,,,,,,,,,,,,,,,,,,,,,,,,,,,,,,,,,,,,,,,,,,,,,,,,,,,,,,,,,,,,,,,,,,,,,,,,,,,,,,,,,,,,,,,,,,,,,,,,,,,,,,,,,,,,,,,,,,,,,,,,,,,,,
,,,,,,607417a6a2b03d66922db6c1,62c53a8b270234594f182ae9,2022-07-06_09h32.51.637,Colour_Asymmetry_Pilot,2022.1.3,Win32,60.11783095,62c50e9c1127f2cd403a315f,0,46,46,34,1,twoone,,,,,,,,,,,,,,,,,,,,,,,,,,,,,,,,,,,,,,,,,,,,,,,,,,,,,,,,,,,,,,,,,,,,,,,,,,,,,,,,,,,,,,,,,,,,,,,,,,,,,,,,,,,,,,,,,,,,,,,,,,,,,,,,,,,,,,,,,,,,,,,,,,,,,,,,,,,,,
,,,,,,607417a6a2b03d66922db6c1,62c53a8b270234594f182ae9,2022-07-06_09h32.51.637,Colour_Asymmetry_Pilot,2022.1.3,Win32,60.11783095,62c50e9c1127f2cd403a315f,0,47,47,41,1,onethree,,,,,,,,,,,,,,,,,,,,,,,,,,,,,,,,,,,,,,,,,,,,,,,,,,,,,,,,,,,,,,,,,,,,,,,,,,,,,,,,,,,,,,,,,,,,,,,,,,,,,,,,,,,,,,,,,,,,,,,,,,,,,,,,,,,,,,,,,,,,,,,,,,,,,,,,,,,,,
,,,,,,607417a6a2b03d66922db6c1,62c53a8b270234594f182ae9,2022-07-06_09h32.51.637,Colour_Asymmetry_Pilot,2022.1.3,Win32,60.11783095,62c50e9c1127f2cd403a315f,0,48,48,70,1,fourtwo,,,,,,,,,,,,,,,,,,,,,,,,,,,,,,,,,,,,,,,,,,,,,,,,,,,,,,,,,,,,,,,,,,,,,,,,,,,,,,,,,,,,,,,,,,,,,,,,,,,,,,,,,,,,,,,,,,,,,,,,,,,,,,,,,,,,,,,,,,,,,,,,,,,,,,,,,,,,,
,,,,,,607417a6a2b03d66922db6c1,62c53a8b270234594f182ae9,2022-07-06_09h32.51.637,Colour_Asymmetry_Pilot,2022.1.3,Win32,60.11783095,62c50e9c1127f2cd403a315f,0,49,49,0,1,onetwo,,,,,,,,,,,,,,,,,,,,,,,,,,,,,,,,,,,,,,,,,,,,,,,,,,,,,,,,,,,,,,,,,,,,,,,,,,,,,,,,,,,,,,,,,,,,,,,,,,,,,,,,,,,,,,,,,,,,,,,,,,,,,,,,,,,,,,,,,,,,,,,,,,,,,,,,,,,,,
,,,,,,607417a6a2b03d66922db6c1,62c53a8b270234594f182ae9,2022-07-06_09h32.51.637,Colour_Asymmetry_Pilot,2022.1.3,Win32,60.11783095,62c50e9c1127f2cd403a315f,0,50,50,141,1,threefour,,,,,,,,,,,,,,,,,,,,,,,,,,,,,,,,,,,,,,,,,,,,,,,,,,,,,,,,,,,,,,,,,,,,,,,,,,,,,,,,,,,,,,,,,,,,,,,,,,,,,,,,,,,,,,,,,,,,,,,,,,,,,,,,,,,,,,,,,,,,,,,,,,,,,,,,,,,,,
,,,,,,607417a6a2b03d66922db6c1,62c53a8b270234594f182ae9,2022-07-06_09h32.51.637,Colour_Asymmetry_Pilot,2022.1.3,Win32,60.11783095,62c50e9c1127f2cd403a315f,0,51,51,40,1,onetwo,,,,,,,,,,,,,,,,,,,,,,,,,,,,,,,,,,,,,,,,,,,,,,,,,,,,,,,,,,,,,,,,,,,,,,,,,,,,,,,,,,,,,,,,,,,,,,,,,,,,,,,,,,,,,,,,,,,,,,,,,,,,,,,,,,,,,,,,,,,,,,,,,,,,,,,,,,,,,
,,,,,,607417a6a2b03d66922db6c1,62c53a8b270234594f182ae9,2022-07-06_09h32.51.637,Colour_Asymmetry_Pilot,2022.1.3,Win32,60.11783095,62c50e9c1127f2cd403a315f,0,52,52,58,1,twoone,,,,,,,,,,,,,,,,,,,,,,,,,,,,,,,,,,,,,,,,,,,,,,,,,,,,,,,,,,,,,,,,,,,,,,,,,,,,,,,,,,,,,,,,,,,,,,,,,,,,,,,,,,,,,,,,,,,,,,,,,,,,,,,,,,,,,,,,,,,,,,,,,,,,,,,,,,,,,
,,,,,,607417a6a2b03d66922db6c1,62c53a8b270234594f182ae9,2022-07-06_09h32.51.637,Colour_Asymmetry_Pilot,2022.1.3,Win32,60.11783095,62c50e9c1127f2cd403a315f,0,53,53,108,1,threeone,,,,,,,,,,,,,,,,,,,,,,,,,,,,,,,,,,,,,,,,,,,,,,,,,,,,,,,,,,,,,,,,,,,,,,,,,,,,,,,,,,,,,,,,,,,,,,,,,,,,,,,,,,,,,,,,,,,,,,,,,,,,,,,,,,,,,,,,,,,,,,,,,,,,,,,,,,,,,
,,,,,,607417a6a2b03d66922db6c1,62c53a8b270234594f182ae9,2022-07-06_09h32.51.637,Colour_Asymmetry_Pilot,2022.1.3,Win32,60.11783095,62c50e9c1127f2cd403a315f,0,54,54,42,1,twoone,,,,,,,,,,,,,,,,,,,,,,,,,,,,,,,,,,,,,,,,,,,,,,,,,,,,,,,,,,,,,,,,,,,,,,,,,,,,,,,,,,,,,,,,,,,,,,,,,,,,,,,,,,,,,,,,,,,,,,,,,,,,,,,,,,,,,,,,,,,,,,,,,,,,,,,,,,,,,
,,,,,,607417a6a2b03d66922db6c1,62c53a8b270234594f182ae9,2022-07-06_09h32.51.637,Colour_Asymmetry_Pilot,2022.1.3,Win32,60.11783095,62c50e9c1127f2cd403a315f,0,55,55,16,1,onetwo,,,,,,,,,,,,,,,,,,,,,,,,,,,,,,,,,,,,,,,,,,,,,,,,,,,,,,,,,,,,,,,,,,,,,,,,,,,,,,,,,,,,,,,,,,,,,,,,,,,,,,,,,,,,,,,,,,,,,,,,,,,,,,,,,,,,,,,,,,,,,,,,,,,,,,,,,,,,,
,,,,,,607417a6a2b03d66922db6c1,62c53a8b270234594f182ae9,2022-07-06_09h32.51.637,Colour_Asymmetry_Pilot,2022.1.3,Win32,60.11783095,62c50e9c1127f2cd403a315f,0,56,56,76,1,threeone,,,,,,,,,,,,,,,,,,,,,,,,,,,,,,,,,,,,,,,,,,,,,,,,,,,,,,,,,,,,,,,,,,,,,,,,,,,,,,,,,,,,,,,,,,,,,,,,,,,,,,,,,,,,,,,,,,,,,,,,,,,,,,,,,,,,,,,,,,,,,,,,,,,,,,,,,,,,,
,,,,,,607417a6a2b03d66922db6c1,62c53a8b270234594f182ae9,2022-07-06_09h32.51.637,Colour_Asymmetry_Pilot,2022.1.3,Win32,60.11783095,62c50e9c1127f2cd403a315f,0,57,57,158,1,fourtwo,,,,,,,,,,,,,,,,,,,,,,,,,,,,,,,,,,,,,,,,,,,,,,,,,,,,,,,,,,,,,,,,,,,,,,,,,,,,,,,,,,,,,,,,,,,,,,,,,,,,,,,,,,,,,,,,,,,,,,,,,,,,,,,,,,,,,,,,,,,,,,,,,,,,,,,,,,,,,
,,,,,,607417a6a2b03d66922db6c1,62c53a8b270234594f182ae9,2022-07-06_09h32.51.637,Colour_Asymmetry_Pilot,2022.1.3,Win32,60.11783095,62c50e9c1127f2cd403a315f,0,58,58,9,1,onethree,,,,,,,,,,,,,,,,,,,,,,,,,,,,,,,,,,,,,,,,,,,,,,,,,,,,,,,,,,,,,,,,,,,,,,,,,,,,,,,,,,,,,,,,,,,,,,,,,,,,,,,,,,,,,,,,,,,,,,,,,,,,,,,,,,,,,,,,,,,,,,,,,,,,,,,,,,,,,
,,,,,,607417a6a2b03d66922db6c1,62c53a8b270234594f182ae9,2022-07-06_09h32.51.637,Colour_Asymmetry_Pilot,2022.1.3,Win32,60.11783095,62c50e9c1127f2cd403a315f,0,59,59,122,1,twoone,,,,,,,,,,,,,,,,,,,,,,,,,,,,,,,,,,,,,,,,,,,,,,,,,,,,,,,,,,,,,,,,,,,,,,,,,,,,,,,,,,,,,,,,,,,,,,,,,,,,,,,,,,,,,,,,,,,,,,,,,,,,,,,,,,,,,,,,,,,,,,,,,,,,,,,,,,,,,
,,,,,,607417a6a2b03d66922db6c1,62c53a8b270234594f182ae9,2022-07-06_09h32.51.637,Colour_Asymmetry_Pilot,2022.1.3,Win32,60.11783095,62c50e9c1127f2cd403a315f,0,60,60,73,1,onethree,,,,,,,,,,,,,,,,,,,,,,,,,,,,,,,,,,,,,,,,,,,,,,,,,,,,,,,,,,,,,,,,,,,,,,,,,,,,,,,,,,,,,,,,,,,,,,,,,,,,,,,,,,,,,,,,,,,,,,,,,,,,,,,,,,,,,,,,,,,,,,,,,,,,,,,,,,,,,
,,,,,,607417a6a2b03d66922db6c1,62c53a8b270234594f182ae9,2022-07-06_09h32.51.637,Colour_Asymmetry_Pilot,2022.1.3,Win32,60.11783095,62c50e9c1127f2cd403a315f,0,61,61,160,1,onetwo,,,,,,,,,,,,,,,,,,,,,,,,,,,,,,,,,,,,,,,,,,,,,,,,,,,,,,,,,,,,,,,,,,,,,,,,,,,,,,,,,,,,,,,,,,,,,,,,,,,,,,,,,,,,,,,,,,,,,,,,,,,,,,,,,,,,,,,,,,,,,,,,,,,,,,,,,,,,,
,,,,,,607417a6a2b03d66922db6c1,62c53a8b270234594f182ae9,2022-07-06_09h32.51.637,Colour_Asymmetry_Pilot,2022.1.3,Win32,60.11783095,62c50e9c1127f2cd403a315f,0,62,62,27,1,twofour,,,,,,,,,,,,,,,,,,,,,,,,,,,,,,,,,,,,,,,,,,,,,,,,,,,,,,,,,,,,,,,,,,,,,,,,,,,,,,,,,,,,,,,,,,,,,,,,,,,,,,,,,,,,,,,,,,,,,,,,,,,,,,,,,,,,,,,,,,,,,,,,,,,,,,,,,,,,,
,,,,,,607417a6a2b03d66922db6c1,62c53a8b270234594f182ae9,2022-07-06_09h32.51.637,Colour_Asymmetry_Pilot,2022.1.3,Win32,60.11783095,62c50e9c1127f2cd403a315f,0,63,63,45,1,threefour,,,,,,,,,,,,,,,,,,,,,,,,,,,,,,,,,,,,,,,,,,,,,,,,,,,,,,,,,,,,,,,,,,,,,,,,,,,,,,,,,,,,,,,,,,,,,,,,,,,,,,,,,,,,,,,,,,,,,,,,,,,,,,,,,,,,,,,,,,,,,,,,,,,,,,,,,,,,,
,,,,,,607417a6a2b03d66922db6c1,62c53a8b270234594f182ae9,2022-07-06_09h32.51.637,Colour_Asymmetry_Pilot,2022.1.3,Win32,60.11783095,62c50e9c1127f2cd403a315f,0,64,64,80,1,onetwo,,,,,,,,,,,,,,,,,,,,,,,,,,,,,,,,,,,,,,,,,,,,,,,,,,,,,,,,,,,,,,,,,,,,,,,,,,,,,,,,,,,,,,,,,,,,,,,,,,,,,,,,,,,,,,,,,,,,,,,,,,,,,,,,,,,,,,,,,,,,,,,,,,,,,,,,,,,,,
,,,,,,607417a6a2b03d66922db6c1,62c53a8b270234594f182ae9,2022-07-06_09h32.51.637,Colour_Asymmetry_Pilot,2022.1.3,Win32,60.11783095,62c50e9c1127f2cd403a315f,0,65,65,104,1,onetwo,,,,,,,,,,,,,,,,,,,,,,,,,,,,,,,,,,,,,,,,,,,,,,,,,,,,,,,,,,,,,,,,,,,,,,,,,,,,,,,,,,,,,,,,,,,,,,,,,,,,,,,,,,,,,,,,,,,,,,,,,,,,,,,,,,,,,,,,,,,,,,,,,,,,,,,,,,,,,
,,,,,,607417a6a2b03d66922db6c1,62c53a8b270234594f182ae9,2022-07-06_09h32.51.637,Colour_Asymmetry_Pilot,2022.1.3,Win32,60.11783095,62c50e9c1127f2cd403a315f,0,66,66,57,1,onethree,,,,,,,,,,,,,,,,,,,,,,,,,,,,,,,,,,,,,,,,,,,,,,,,,,,,,,,,,,,,,,,,,,,,,,,,,,,,,,,,,,,,,,,,,,,,,,,,,,,,,,,,,,,,,,,,,,,,,,,,,,,,,,,,,,,,,,,,,,,,,,,,,,,,,,,,,,,,,
,,,,,,607417a6a2b03d66922db6c1,62c53a8b270234594f182ae9,2022-07-06_09h32.51.637,Colour_Asymmetry_Pilot,2022.1.3,Win32,60.11783095,62c50e9c1127f2cd403a315f,0,67,67,98,1,twoone,,,,,,,,,,,,,,,,,,,,,,,,,,,,,,,,,,,,,,,,,,,,,,,,,,,,,,,,,,,,,,,,,,,,,,,,,,,,,,,,,,,,,,,,,,,,,,,,,,,,,,,,,,,,,,,,,,,,,,,,,,,,,,,,,,,,,,,,,,,,,,,,,,,,,,,,,,,,,
,,,,,,607417a6a2b03d66922db6c1,62c53a8b270234594f182ae9,2022-07-06_09h32.51.637,Colour_Asymmetry_Pilot,2022.1.3,Win32,60.11783095,62c50e9c1127f2cd403a315f,0,68,68,1,1,onethree,,,,,,,,,,,,,,,,,,,,,,,,,,,,,,,,,,,,,,,,,,,,,,,,,,,,,,,,,,,,,,,,,,,,,,,,,,,,,,,,,,,,,,,,,,,,,,,,,,,,,,,,,,,,,,,,,,,,,,,,,,,,,,,,,,,,,,,,,,,,,,,,,,,,,,,,,,,,,
,,,,,,607417a6a2b03d66922db6c1,62c53a8b270234594f182ae9,2022-07-06_09h32.51.637,Colour_Asymmetry_Pilot,2022.1.3,Win32,60.11783095,62c50e9c1127f2cd403a315f,0,69,69,100,1,threeone,,,,,,,,,,,,,,,,,,,,,,,,,,,,,,,,,,,,,,,,,,,,,,,,,,,,,,,,,,,,,,,,,,,,,,,,,,,,,,,,,,,,,,,,,,,,,,,,,,,,,,,,,,,,,,,,,,,,,,,,,,,,,,,,,,,,,,,,,,,,,,,,,,,,,,,,,,,,,
,,,,,,607417a6a2b03d66922db6c1,62c53a8b270234594f182ae9,2022-07-06_09h32.51.637,Colour_Asymmetry_Pilot,2022.1.3,Win32,60.11783095,62c50e9c1127f2cd403a315f,0,70,70,56,1,onetwo,,,,,,,,,,,,,,,,,,,,,,,,,,,,,,,,,,,,,,,,,,,,,,,,,,,,,,,,,,,,,,,,,,,,,,,,,,,,,,,,,,,,,,,,,,,,,,,,,,,,,,,,,,,,,,,,,,,,,,,,,,,,,,,,,,,,,,,,,,,,,,,,,,,,,,,,,,,,,
,,,,,,607417a6a2b03d66922db6c1,62c53a8b270234594f182ae9,2022-07-06_09h32.51.637,Colour_Asymmetry_Pilot,2022.1.3,Win32,60.11783095,62c50e9c1127f2cd403a315f,0,71,71,131,1,twofour,,,,,,,,,,,,,,,,,,,,,,,,,,,,,,,,,,,,,,,,,,,,,,,,,,,,,,,,,,,,,,,,,,,,,,,,,,,,,,,,,,,,,,,,,,,,,,,,,,,,,,,,,,,,,,,,,,,,,,,,,,,,,,,,,,,,,,,,,,,,,,,,,,,,,,,,,,,,,
,,,,,,607417a6a2b03d66922db6c1,62c53a8b270234594f182ae9,2022-07-06_09h32.51.637,Colour_Asymmetry_Pilot,2022.1.3,Win32,60.11783095,62c50e9c1127f2cd403a315f,0,72,72,2,1,twoone,,,,,,,,,,,,,,,,,,,,,,,,,,,,,,,,,,,,,,,,,,,,,,,,,,,,,,,,,,,,,,,,,,,,,,,,,,,,,,,,,,,,,,,,,,,,,,,,,,,,,,,,,,,,,,,,,,,,,,,,,,,,,,,,,,,,,,,,,,,,,,,,,,,,,,,,,,,,,
,,,,,,607417a6a2b03d66922db6c1,62c53a8b270234594f182ae9,2022-07-06_09h32.51.637,Colour_Asymmetry_Pilot,2022.1.3,Win32,60.11783095,62c50e9c1127f2cd403a315f,0,73,73,116,1,threeone,,,,,,,,,,,,,,,,,,,,,,,,,,,,,,,,,,,,,,,,,,,,,,,,,,,,,,,,,,,,,,,,,,,,,,,,,,,,,,,,,,,,,,,,,,,,,,,,,,,,,,,,,,,,,,,,,,,,,,,,,,,,,,,,,,,,,,,,,,,,,,,,,,,,,,,,,,,,,
,,,,,,607417a6a2b03d66922db6c1,62c53a8b270234594f182ae9,2022-07-06_09h32.51.637,Colour_Asymmetry_Pilot,2022.1.3,Win32,60.11783095,62c50e9c1127f2cd403a315f,0,74,74,109,1,threefour,,,,,,,,,,,,,,,,,,,,,,,,,,,,,,,,,,,,,,,,,,,,,,,,,,,,,,,,,,,,,,,,,,,,,,,,,,,,,,,,,,,,,,,,,,,,,,,,,,,,,,,,,,,,,,,,,,,,,,,,,,,,,,,,,,,,,,,,,,,,,,,,,,,,,,,,,,,,,
,,,,,,607417a6a2b03d66922db6c1,62c53a8b270234594f182ae9,2022-07-06_09h32.51.637,Colour_Asymmetry_Pilot,2022.1.3,Win32,60.11783095,62c50e9c1127f2cd403a315f,0,75,75,111,1,fourthree,,,,,,,,,,,,,,,,,,,,,,,,,,,,,,,,,,,,,,,,,,,,,,,,,,,,,,,,,,,,,,,,,,,,,,,,,,,,,,,,,,,,,,,,,,,,,,,,,,,,,,,,,,,,,,,,,,,,,,,,,,,,,,,,,,,,,,,,,,,,,,,,,,,,,,,,,,,,,
,,,,,,607417a6a2b03d66922db6c1,62c53a8b270234594f182ae9,2022-07-06_09h32.51.637,Colour_Asymmetry_Pilot,2022.1.3,Win32,60.11783095,62c50e9c1127f2cd403a315f,0,76,76,134,1,fourtwo,,,,,,,,,,,,,,,,,,,,,,,,,,,,,,,,,,,,,,,,,,,,,,,,,,,,,,,,,,,,,,,,,,,,,,,,,,,,,,,,,,,,,,,,,,,,,,,,,,,,,,,,,,,,,,,,,,,,,,,,,,,,,,,,,,,,,,,,,,,,,,,,,,,,,,,,,,,,,
,,,,,,607417a6a2b03d66922db6c1,62c53a8b270234594f182ae9,2022-07-06_09h32.51.637,Colour_Asymmetry_Pilot,2022.1.3,Win32,60.11783095,62c50e9c1127f2cd403a315f,0,77,77,95,1,fourthree,,,,,,,,,,,,,,,,,,,,,,,,,,,,,,,,,,,,,,,,,,,,,,,,,,,,,,,,,,,,,,,,,,,,,,,,,,,,,,,,,,,,,,,,,,,,,,,,,,,,,,,,,,,,,,,,,,,,,,,,,,,,,,,,,,,,,,,,,,,,,,,,,,,,,,,,,,,,,
,,,,,,607417a6a2b03d66922db6c1,62c53a8b270234594f182ae9,2022-07-06_09h32.51.637,Colour_Asymmetry_Pilot,2022.1.3,Win32,60.11783095,62c50e9c1127f2cd403a315f,0,78,78,22,1,fourtwo,,,,,,,,,,,,,,,,,,,,,,,,,,,,,,,,,,,,,,,,,,,,,,,,,,,,,,,,,,,,,,,,,,,,,,,,,,,,,,,,,,,,,,,,,,,,,,,,,,,,,,,,,,,,,,,,,,,,,,,,,,,,,,,,,,,,,,,,,,,,,,,,,,,,,,,,,,,,,
,,,,,,607417a6a2b03d66922db6c1,62c53a8b270234594f182ae9,2022-07-06_09h32.51.637,Colour_Asymmetry_Pilot,2022.1.3,Win32,60.11783095,62c50e9c1127f2cd403a315f,0,79,79,101,1,threefour,,,,,,,,,,,,,,,,,,,,,,,,,,,,,,,,,,,,,,,,,,,,,,,,,,,,,,,,,,,,,,,,,,,,,,,,,,,,,,,,,,,,,,,,,,,,,,,,,,,,,,,,,,,,,,,,,,,,,,,,,,,,,,,,,,,,,,,,,,,,,,,,,,,,,,,,,,,,,
,,,,,,607417a6a2b03d66922db6c1,62c53a8b270234594f182ae9,2022-07-06_09h32.51.637,Colour_Asymmetry_Pilot,2022.1.3,Win32,60.11783095,62c50e9c1127f2cd403a315f,0,80,80,20,1,threeone,,,,,,,,,,,,,,,,,,,,,,,,,,,,,,,,,,,,,,,,,,,,,,,,,,,,,,,,,,,,,,,,,,,,,,,,,,,,,,,,,,,,,,,,,,,,,,,,,,,,,,,,,,,,,,,,,,,,,,,,,,,,,,,,,,,,,,,,,,,,,,,,,,,,,,,,,,,,,
,,,,,,607417a6a2b03d66922db6c1,62c53a8b270234594f182ae9,2022-07-06_09h32.51.637,Colour_Asymmetry_Pilot,2022.1.3,Win32,60.11783095,62c50e9c1127f2cd403a315f,0,81,81,143,1,fourthree,,,,,,,,,,,,,,,,,,,,,,,,,,,,,,,,,,,,,,,,,,,,,,,,,,,,,,,,,,,,,,,,,,,,,,,,,,,,,,,,,,,,,,,,,,,,,,,,,,,,,,,,,,,,,,,,,,,,,,,,,,,,,,,,,,,,,,,,,,,,,,,,,,,,,,,,,,,,,
,,,,,,607417a6a2b03d66922db6c1,62c53a8b270234594f182ae9,2022-07-06_09h32.51.637,Colour_Asymmetry_Pilot,2022.1.3,Win32,60.11783095,62c50e9c1127f2cd403a315f,0,82,82,128,1,onetwo,,,,,,,,,,,,,,,,,,,,,,,,,,,,,,,,,,,,,,,,,,,,,,,,,,,,,,,,,,,,,,,,,,,,,,,,,,,,,,,,,,,,,,,,,,,,,,,,,,,,,,,,,,,,,,,,,,,,,,,,,,,,,,,,,,,,,,,,,,,,,,,,,,,,,,,,,,,,,
,,,,,,607417a6a2b03d66922db6c1,62c53a8b270234594f182ae9,2022-07-06_09h32.51.637,Colour_Asymmetry_Pilot,2022.1.3,Win32,60.11783095,62c50e9c1127f2cd403a315f,0,83,83,124,1,threeone,,,,,,,,,,,,,,,,,,,,,,,,,,,,,,,,,,,,,,,,,,,,,,,,,,,,,,,,,,,,,,,,,,,,,,,,,,,,,,,,,,,,,,,,,,,,,,,,,,,,,,,,,,,,,,,,,,,,,,,,,,,,,,,,,,,,,,,,,,,,,,,,,,,,,,,,,,,,,
,,,,,,607417a6a2b03d66922db6c1,62c53a8b270234594f182ae9,2022-07-06_09h32.51.637,Colour_Asymmetry_Pilot,2022.1.3,Win32,60.11783095,62c50e9c1127f2cd403a315f,0,84,84,83,1,twofour,,,,,,,,,,,,,,,,,,,,,,,,,,,,,,,,,,,,,,,,,,,,,,,,,,,,,,,,,,,,,,,,,,,,,,,,,,,,,,,,,,,,,,,,,,,,,,,,,,,,,,,,,,,,,,,,,,,,,,,,,,,,,,,,,,,,,,,,,,,,,,,,,,,,,,,,,,,,,
,,,,,,607417a6a2b03d66922db6c1,62c53a8b270234594f182ae9,2022-07-06_09h32.51.637,Colour_Asymmetry_Pilot,2022.1.3,Win32,60.11783095,62c50e9c1127f2cd403a315f,0,85,85,14,1,fourtwo,,,,,,,,,,,,,,,,,,,,,,,,,,,,,,,,,,,,,,,,,,,,,,,,,,,,,,,,,,,,,,,,,,,,,,,,,,,,,,,,,,,,,,,,,,,,,,,,,,,,,,,,,,,,,,,,,,,,,,,,,,,,,,,,,,,,,,,,,,,,,,,,,,,,,,,,,,,,,
,,,,,,607417a6a2b03d66922db6c1,62c53a8b270234594f182ae9,2022-07-06_09h32.51.637,Colour_Asymmetry_Pilot,2022.1.3,Win32,60.11783095,62c50e9c1127f2cd403a315f,0,86,86,36,1,threeone,,,,,,,,,,,,,,,,,,,,,,,,,,,,,,,,,,,,,,,,,,,,,,,,,,,,,,,,,,,,,,,,,,,,,,,,,,,,,,,,,,,,,,,,,,,,,,,,,,,,,,,,,,,,,,,,,,,,,,,,,,,,,,,,,,,,,,,,,,,,,,,,,,,,,,,,,,,,,
,,,,,,607417a6a2b03d66922db6c1,62c53a8b270234594f182ae9,2022-07-06_09h32.51.637,Colour_Asymmetry_Pilot,2022.1.3,Win32,60.11783095,62c50e9c1127f2cd403a315f,0,87,87,102,1,fourtwo,,,,,,,,,,,,,,,,,,,,,,,,,,,,,,,,,,,,,,,,,,,,,,,,,,,,,,,,,,,,,,,,,,,,,,,,,,,,,,,,,,,,,,,,,,,,,,,,,,,,,,,,,,,,,,,,,,,,,,,,,,,,,,,,,,,,,,,,,,,,,,,,,,,,,,,,,,,,,
,,,,,,607417a6a2b03d66922db6c1,62c53a8b270234594f182ae9,2022-07-06_09h32.51.637,Colour_Asymmetry_Pilot,2022.1.3,Win32,60.11783095,62c50e9c1127f2cd403a315f,0,88,88,44,1,threeone,,,,,,,,,,,,,,,,,,,,,,,,,,,,,,,,,,,,,,,,,,,,,,,,,,,,,,,,,,,,,,,,,,,,,,,,,,,,,,,,,,,,,,,,,,,,,,,,,,,,,,,,,,,,,,,,,,,,,,,,,,,,,,,,,,,,,,,,,,,,,,,,,,,,,,,,,,,,,
,,,,,,607417a6a2b03d66922db6c1,62c53a8b270234594f182ae9,2022-07-06_09h32.51.637,Colour_Asymmetry_Pilot,2022.1.3,Win32,60.11783095,62c50e9c1127f2cd403a315f,0,89,89,24,1,onetwo,,,,,,,,,,,,,,,,,,,,,,,,,,,,,,,,,,,,,,,,,,,,,,,,,,,,,,,,,,,,,,,,,,,,,,,,,,,,,,,,,,,,,,,,,,,,,,,,,,,,,,,,,,,,,,,,,,,,,,,,,,,,,,,,,,,,,,,,,,,,,,,,,,,,,,,,,,,,,
,,,,,,607417a6a2b03d66922db6c1,62c53a8b270234594f182ae9,2022-07-06_09h32.51.637,Colour_Asymmetry_Pilot,2022.1.3,Win32,60.11783095,62c50e9c1127f2cd403a315f,0,90,90,130,1,twoone,,,,,,,,,,,,,,,,,,,,,,,,,,,,,,,,,,,,,,,,,,,,,,,,,,,,,,,,,,,,,,,,,,,,,,,,,,,,,,,,,,,,,,,,,,,,,,,,,,,,,,,,,,,,,,,,,,,,,,,,,,,,,,,,,,,,,,,,,,,,,,,,,,,,,,,,,,,,,
,,,,,,607417a6a2b03d66922db6c1,62c53a8b270234594f182ae9,2022-07-06_09h32.51.637,Colour_Asymmetry_Pilot,2022.1.3,Win32,60.11783095,62c50e9c1127f2cd403a315f,0,91,91,8,1,onetwo,,,,,,,,,,,,,,,,,,,,,,,,,,,,,,,,,,,,,,,,,,,,,,,,,,,,,,,,,,,,,,,,,,,,,,,,,,,,,,,,,,,,,,,,,,,,,,,,,,,,,,,,,,,,,,,,,,,,,,,,,,,,,,,,,,,,,,,,,,,,,,,,,,,,,,,,,,,,,
,,,,,,607417a6a2b03d66922db6c1,62c53a8b270234594f182ae9,2022-07-06_09h32.51.637,Colour_Asymmetry_Pilot,2022.1.3,Win32,60.11783095,62c50e9c1127f2cd403a315f,0,92,92,137,1,onethree,,,,,,,,,,,,,,,,,,,,,,,,,,,,,,,,,,,,,,,,,,,,,,,,,,,,,,,,,,,,,,,,,,,,,,,,,,,,,,,,,,,,,,,,,,,,,,,,,,,,,,,,,,,,,,,,,,,,,,,,,,,,,,,,,,,,,,,,,,,,,,,,,,,,,,,,,,,,,
,,,,,,607417a6a2b03d66922db6c1,62c53a8b270234594f182ae9,2022-07-06_09h32.51.637,Colour_Asymmetry_Pilot,2022.1.3,Win32,60.11783095,62c50e9c1127f2cd403a315f,0,93,93,47,1,fourthree,,,,,,,,,,,,,,,,,,,,,,,,,,,,,,,,,,,,,,,,,,,,,,,,,,,,,,,,,,,,,,,,,,,,,,,,,,,,,,,,,,,,,,,,,,,,,,,,,,,,,,,,,,,,,,,,,,,,,,,,,,,,,,,,,,,,,,,,,,,,,,,,,,,,,,,,,,,,,
,,,,,,607417a6a2b03d66922db6c1,62c53a8b270234594f182ae9,2022-07-06_09h32.51.637,Colour_Asymmetry_Pilot,2022.1.3,Win32,60.11783095,62c50e9c1127f2cd403a315f,0,94,94,85,1,threefour,,,,,,,,,,,,,,,,,,,,,,,,,,,,,,,,,,,,,,,,,,,,,,,,,,,,,,,,,,,,,,,,,,,,,,,,,,,,,,,,,,,,,,,,,,,,,,,,,,,,,,,,,,,,,,,,,,,,,,,,,,,,,,,,,,,,,,,,,,,,,,,,,,,,,,,,,,,,,
,,,,,,607417a6a2b03d66922db6c1,62c53a8b270234594f182ae9,2022-07-06_09h32.51.637,Colour_Asymmetry_Pilot,2022.1.3,Win32,60.11783095,62c50e9c1127f2cd403a315f,0,95,95,147,1,twofour,,,,,,,,,,,,,,,,,,,,,,,,,,,,,,,,,,,,,,,,,,,,,,,,,,,,,,,,,,,,,,,,,,,,,,,,,,,,,,,,,,,,,,,,,,,,,,,,,,,,,,,,,,,,,,,,,,,,,,,,,,,,,,,,,,,,,,,,,,,,,,,,,,,,,,,,,,,,,
,,,,,,607417a6a2b03d66922db6c1,62c53a8b270234594f182ae9,2022-07-06_09h32.51.637,Colour_Asymmetry_Pilot,2022.1.3,Win32,60.11783095,62c50e9c1127f2cd403a315f,0,96,96,88,1,onetwo,,,,,,,,,,,,,,,,,,,,,,,,,,,,,,,,,,,,,,,,,,,,,,,,,,,,,,,,,,,,,,,,,,,,,,,,,,,,,,,,,,,,,,,,,,,,,,,,,,,,,,,,,,,,,,,,,,,,,,,,,,,,,,,,,,,,,,,,,,,,,,,,,,,,,,,,,,,,,
,,,,,,607417a6a2b03d66922db6c1,62c53a8b270234594f182ae9,2022-07-06_09h32.51.637,Colour_Asymmetry_Pilot,2022.1.3,Win32,60.11783095,62c50e9c1127f2cd403a315f,0,97,97,17,1,onethree,,,,,,,,,,,,,,,,,,,,,,,,,,,,,,,,,,,,,,,,,,,,,,,,,,,,,,,,,,,,,,,,,,,,,,,,,,,,,,,,,,,,,,,,,,,,,,,,,,,,,,,,,,,,,,,,,,,,,,,,,,,,,,,,,,,,,,,,,,,,,,,,,,,,,,,,,,,,,
,,,,,,607417a6a2b03d66922db6c1,62c53a8b270234594f182ae9,2022-07-06_09h32.51.637,Colour_Asymmetry_Pilot,2022.1.3,Win32,60.11783095,62c50e9c1127f2cd403a315f,0,98,98,26,1,twoone,,,,,,,,,,,,,,,,,,,,,,,,,,,,,,,,,,,,,,,,,,,,,,,,,,,,,,,,,,,,,,,,,,,,,,,,,,,,,,,,,,,,,,,,,,,,,,,,,,,,,,,,,,,,,,,,,,,,,,,,,,,,,,,,,,,,,,,,,,,,,,,,,,,,,,,,,,,,,
,,,,,,607417a6a2b03d66922db6c1,62c53a8b270234594f182ae9,2022-07-06_09h32.51.637,Colour_Asymmetry_Pilot,2022.1.3,Win32,60.11783095,62c50e9c1127f2cd403a315f,0,99,99,13,1,threefour,,,,,,,,,,,,,,,,,,,,,,,,,,,,,,,,,,,,,,,,,,,,,,,,,,,,,,,,,,,,,,,,,,,,,,,,,,,,,,,,,,,,,,,,,,,,,,,,,,,,,,,,,,,,,,,,,,,,,,,,,,,,,,,,,,,,,,,,,,,,,,,,,,,,,,,,,,,,,
,,,,,,607417a6a2b03d66922db6c1,62c53a8b270234594f182ae9,2022-07-06_09h32.51.637,Colour_Asymmetry_Pilot,2022.1.3,Win32,60.11783095,62c50e9c1127f2cd403a315f,0,100,100,12,1,threeone,,,,,,,,,,,,,,,,,,,,,,,,,,,,,,,,,,,,,,,,,,,,,,,,,,,,,,,,,,,,,,,,,,,,,,,,,,,,,,,,,,,,,,,,,,,,,,,,,,,,,,,,,,,,,,,,,,,,,,,,,,,,,,,,,,,,,,,,,,,,,,,,,,,,,,,,,,,,,
,,,,,,607417a6a2b03d66922db6c1,62c53a8b270234594f182ae9,2022-07-06_09h32.51.637,Colour_Asymmetry_Pilot,2022.1.3,Win32,60.11783095,62c50e9c1127f2cd403a315f,0,101,101,46,1,fourtwo,,,,,,,,,,,,,,,,,,,,,,,,,,,,,,,,,,,,,,,,,,,,,,,,,,,,,,,,,,,,,,,,,,,,,,,,,,,,,,,,,,,,,,,,,,,,,,,,,,,,,,,,,,,,,,,,,,,,,,,,,,,,,,,,,,,,,,,,,,,,,,,,,,,,,,,,,,,,,
,,,,,,607417a6a2b03d66922db6c1,62c53a8b270234594f182ae9,2022-07-06_09h32.51.637,Colour_Asymmetry_Pilot,2022.1.3,Win32,60.11783095,62c50e9c1127f2cd403a315f,0,102,102,144,1,onetwo,,,,,,,,,,,,,,,,,,,,,,,,,,,,,,,,,,,,,,,,,,,,,,,,,,,,,,,,,,,,,,,,,,,,,,,,,,,,,,,,,,,,,,,,,,,,,,,,,,,,,,,,,,,,,,,,,,,,,,,,,,,,,,,,,,,,,,,,,,,,,,,,,,,,,,,,,,,,,
,,,,,,607417a6a2b03d66922db6c1,62c53a8b270234594f182ae9,2022-07-06_09h32.51.637,Colour_Asymmetry_Pilot,2022.1.3,Win32,60.11783095,62c50e9c1127f2cd403a315f,0,103,103,79,1,fourthree,,,,,,,,,,,,,,,,,,,,,,,,,,,,,,,,,,,,,,,,,,,,,,,,,,,,,,,,,,,,,,,,,,,,,,,,,,,,,,,,,,,,,,,,,,,,,,,,,,,,,,,,,,,,,,,,,,,,,,,,,,,,,,,,,,,,,,,,,,,,,,,,,,,,,,,,,,,,,
,,,,,,607417a6a2b03d66922db6c1,62c53a8b270234594f182ae9,2022-07-06_09h32.51.637,Colour_Asymmetry_Pilot,2022.1.3,Win32,60.11783095,62c50e9c1127f2cd403a315f,0,104,104,63,1,fourthree,,,,,,,,,,,,,,,,,,,,,,,,,,,,,,,,,,,,,,,,,,,,,,,,,,,,,,,,,,,,,,,,,,,,,,,,,,,,,,,,,,,,,,,,,,,,,,,,,,,,,,,,,,,,,,,,,,,,,,,,,,,,,,,,,,,,,,,,,,,,,,,,,,,,,,,,,,,,,
,,,,,,607417a6a2b03d66922db6c1,62c53a8b270234594f182ae9,2022-07-06_09h32.51.637,Colour_Asymmetry_Pilot,2022.1.3,Win32,60.11783095,62c50e9c1127f2cd403a315f,0,105,105,21,1,threefour,,,,,,,,,,,,,,,,,,,,,,,,,,,,,,,,,,,,,,,,,,,,,,,,,,,,,,,,,,,,,,,,,,,,,,,,,,,,,,,,,,,,,,,,,,,,,,,,,,,,,,,,,,,,,,,,,,,,,,,,,,,,,,,,,,,,,,,,,,,,,,,,,,,,,,,,,,,,,
,,,,,,607417a6a2b03d66922db6c1,62c53a8b270234594f182ae9,2022-07-06_09h32.51.637,Colour_Asymmetry_Pilot,2022.1.3,Win32,60.11783095,62c50e9c1127f2cd403a315f,0,106,106,150,1,fourtwo,,,,,,,,,,,,,,,,,,,,,,,,,,,,,,,,,,,,,,,,,,,,,,,,,,,,,,,,,,,,,,,,,,,,,,,,,,,,,,,,,,,,,,,,,,,,,,,,,,,,,,,,,,,,,,,,,,,,,,,,,,,,,,,,,,,,,,,,,,,,,,,,,,,,,,,,,,,,,
,,,,,,607417a6a2b03d66922db6c1,62c53a8b270234594f182ae9,2022-07-06_09h32.51.637,Colour_Asymmetry_Pilot,2022.1.3,Win32,60.11783095,62c50e9c1127f2cd403a315f,0,107,107,145,1,onethree,,,,,,,,,,,,,,,,,,,,,,,,,,,,,,,,,,,,,,,,,,,,,,,,,,,,,,,,,,,,,,,,,,,,,,,,,,,,,,,,,,,,,,,,,,,,,,,,,,,,,,,,,,,,,,,,,,,,,,,,,,,,,,,,,,,,,,,,,,,,,,,,,,,,,,,,,,,,,
,,,,,,607417a6a2b03d66922db6c1,62c53a8b270234594f182ae9,2022-07-06_09h32.51.637,Colour_Asymmetry_Pilot,2022.1.3,Win32,60.11783095,62c50e9c1127f2cd403a315f,0,108,108,23,1,fourthree,,,,,,,,,,,,,,,,,,,,,,,,,,,,,,,,,,,,,,,,,,,,,,,,,,,,,,,,,,,,,,,,,,,,,,,,,,,,,,,,,,,,,,,,,,,,,,,,,,,,,,,,,,,,,,,,,,,,,,,,,,,,,,,,,,,,,,,,,,,,,,,,,,,,,,,,,,,,,
,,,,,,607417a6a2b03d66922db6c1,62c53a8b270234594f182ae9,2022-07-06_09h32.51.637,Colour_Asymmetry_Pilot,2022.1.3,Win32,60.11783095,62c50e9c1127f2cd403a315f,0,109,109,105,1,onethree,,,,,,,,,,,,,,,,,,,,,,,,,,,,,,,,,,,,,,,,,,,,,,,,,,,,,,,,,,,,,,,,,,,,,,,,,,,,,,,,,,,,,,,,,,,,,,,,,,,,,,,,,,,,,,,,,,,,,,,,,,,,,,,,,,,,,,,,,,,,,,,,,,,,,,,,,,,,,
,,,,,,607417a6a2b03d66922db6c1,62c53a8b270234594f182ae9,2022-07-06_09h32.51.637,Colour_Asymmetry_Pilot,2022.1.3,Win32,60.11783095,62c50e9c1127f2cd403a315f,0,110,110,127,1,fourthree,,,,,,,,,,,,,,,,,,,,,,,,,,,,,,,,,,,,,,,,,,,,,,,,,,,,,,,,,,,,,,,,,,,,,,,,,,,,,,,,,,,,,,,,,,,,,,,,,,,,,,,,,,,,,,,,,,,,,,,,,,,,,,,,,,,,,,,,,,,,,,,,,,,,,,,,,,,,,
,,,,,,607417a6a2b03d66922db6c1,62c53a8b270234594f182ae9,2022-07-06_09h32.51.637,Colour_Asymmetry_Pilot,2022.1.3,Win32,60.11783095,62c50e9c1127f2cd403a315f,0,111,111,142,1,fourtwo,,,,,,,,,,,,,,,,,,,,,,,,,,,,,,,,,,,,,,,,,,,,,,,,,,,,,,,,,,,,,,,,,,,,,,,,,,,,,,,,,,,,,,,,,,,,,,,,,,,,,,,,,,,,,,,,,,,,,,,,,,,,,,,,,,,,,,,,,,,,,,,,,,,,,,,,,,,,,
,,,,,,607417a6a2b03d66922db6c1,62c53a8b270234594f182ae9,2022-07-06_09h32.51.637,Colour_Asymmetry_Pilot,2022.1.3,Win32,60.11783095,62c50e9c1127f2cd403a315f,0,112,112,97,1,onethree,,,,,,,,,,,,,,,,,,,,,,,,,,,,,,,,,,,,,,,,,,,,,,,,,,,,,,,,,,,,,,,,,,,,,,,,,,,,,,,,,,,,,,,,,,,,,,,,,,,,,,,,,,,,,,,,,,,,,,,,,,,,,,,,,,,,,,,,,,,,,,,,,,,,,,,,,,,,,
,,,,,,607417a6a2b03d66922db6c1,62c53a8b270234594f182ae9,2022-07-06_09h32.51.637,Colour_Asymmetry_Pilot,2022.1.3,Win32,60.11783095,62c50e9c1127f2cd403a315f,0,113,113,52,1,threeone,,,,,,,,,,,,,,,,,,,,,,,,,,,,,,,,,,,,,,,,,,,,,,,,,,,,,,,,,,,,,,,,,,,,,,,,,,,,,,,,,,,,,,,,,,,,,,,,,,,,,,,,,,,,,,,,,,,,,,,,,,,,,,,,,,,,,,,,,,,,,,,,,,,,,,,,,,,,,
,,,,,,607417a6a2b03d66922db6c1,62c53a8b270234594f182ae9,2022-07-06_09h32.51.637,Colour_Asymmetry_Pilot,2022.1.3,Win32,60.11783095,62c50e9c1127f2cd403a315f,0,114,114,103,1,fourthree,,,,,,,,,,,,,,,,,,,,,,,,,,,,,,,,,,,,,,,,,,,,,,,,,,,,,,,,,,,,,,,,,,,,,,,,,,,,,,,,,,,,,,,,,,,,,,,,,,,,,,,,,,,,,,,,,,,,,,,,,,,,,,,,,,,,,,,,,,,,,,,,,,,,,,,,,,,,,
,,,,,,607417a6a2b03d66922db6c1,62c53a8b270234594f182ae9,2022-07-06_09h32.51.637,Colour_Asymmetry_Pilot,2022.1.3,Win32,60.11783095,62c50e9c1127f2cd403a315f,0,115,115,123,1,twofour,,,,,,,,,,,,,,,,,,,,,,,,,,,,,,,,,,,,,,,,,,,,,,,,,,,,,,,,,,,,,,,,,,,,,,,,,,,,,,,,,,,,,,,,,,,,,,,,,,,,,,,,,,,,,,,,,,,,,,,,,,,,,,,,,,,,,,,,,,,,,,,,,,,,,,,,,,,,,
,,,,,,607417a6a2b03d66922db6c1,62c53a8b270234594f182ae9,2022-07-06_09h32.51.637,Colour_Asymmetry_Pilot,2022.1.3,Win32,60.11783095,62c50e9c1127f2cd403a315f,0,116,116,11,1,twofour,,,,,,,,,,,,,,,,,,,,,,,,,,,,,,,,,,,,,,,,,,,,,,,,,,,,,,,,,,,,,,,,,,,,,,,,,,,,,,,,,,,,,,,,,,,,,,,,,,,,,,,,,,,,,,,,,,,,,,,,,,,,,,,,,,,,,,,,,,,,,,,,,,,,,,,,,,,,,
,,,,,,607417a6a2b03d66922db6c1,62c53a8b270234594f182ae9,2022-07-06_09h32.51.637,Colour_Asymmetry_Pilot,2022.1.3,Win32,60.11783095,62c50e9c1127f2cd403a315f,0,117,117,38,1,fourtwo,,,,,,,,,,,,,,,,,,,,,,,,,,,,,,,,,,,,,,,,,,,,,,,,,,,,,,,,,,,,,,,,,,,,,,,,,,,,,,,,,,,,,,,,,,,,,,,,,,,,,,,,,,,,,,,,,,,,,,,,,,,,,,,,,,,,,,,,,,,,,,,,,,,,,,,,,,,,,
,,,,,,607417a6a2b03d66922db6c1,62c53a8b270234594f182ae9,2022-07-06_09h32.51.637,Colour_Asymmetry_Pilot,2022.1.3,Win32,60.11783095,62c50e9c1127f2cd403a315f,0,118,118,138,1,twoone,,,,,,,,,,,,,,,,,,,,,,,,,,,,,,,,,,,,,,,,,,,,,,,,,,,,,,,,,,,,,,,,,,,,,,,,,,,,,,,,,,,,,,,,,,,,,,,,,,,,,,,,,,,,,,,,,,,,,,,,,,,,,,,,,,,,,,,,,,,,,,,,,,,,,,,,,,,,,
,,,,,,607417a6a2b03d66922db6c1,62c53a8b270234594f182ae9,2022-07-06_09h32.51.637,Colour_Asymmetry_Pilot,2022.1.3,Win32,60.11783095,62c50e9c1127f2cd403a315f,0,119,119,53,1,threefour,,,,,,,,,,,,,,,,,,,,,,,,,,,,,,,,,,,,,,,,,,,,,,,,,,,,,,,,,,,,,,,,,,,,,,,,,,,,,,,,,,,,,,,,,,,,,,,,,,,,,,,,,,,,,,,,,,,,,,,,,,,,,,,,,,,,,,,,,,,,,,,,,,,,,,,,,,,,,
,,,,,,607417a6a2b03d66922db6c1,62c53a8b270234594f182ae9,2022-07-06_09h32.51.637,Colour_Asymmetry_Pilot,2022.1.3,Win32,60.11783095,62c50e9c1127f2cd403a315f,0,120,120,33,1,onethree,,,,,,,,,,,,,,,,,,,,,,,,,,,,,,,,,,,,,,,,,,,,,,,,,,,,,,,,,,,,,,,,,,,,,,,,,,,,,,,,,,,,,,,,,,,,,,,,,,,,,,,,,,,,,,,,,,,,,,,,,,,,,,,,,,,,,,,,,,,,,,,,,,,,,,,,,,,,,
,,,,,,607417a6a2b03d66922db6c1,62c53a8b270234594f182ae9,2022-07-06_09h32.51.637,Colour_Asymmetry_Pilot,2022.1.3,Win32,60.11783095,62c50e9c1127f2cd403a315f,0,121,121,65,1,onethree,,,,,,,,,,,,,,,,,,,,,,,,,,,,,,,,,,,,,,,,,,,,,,,,,,,,,,,,,,,,,,,,,,,,,,,,,,,,,,,,,,,,,,,,,,,,,,,,,,,,,,,,,,,,,,,,,,,,,,,,,,,,,,,,,,,,,,,,,,,,,,,,,,,,,,,,,,,,,
,,,,,,607417a6a2b03d66922db6c1,62c53a8b270234594f182ae9,2022-07-06_09h32.51.637,Colour_Asymmetry_Pilot,2022.1.3,Win32,60.11783095,62c50e9c1127f2cd403a315f,0,122,122,152,1,onetwo,,,,,,,,,,,,,,,,,,,,,,,,,,,,,,,,,,,,,,,,,,,,,,,,,,,,,,,,,,,,,,,,,,,,,,,,,,,,,,,,,,,,,,,,,,,,,,,,,,,,,,,,,,,,,,,,,,,,,,,,,,,,,,,,,,,,,,,,,,,,,,,,,,,,,,,,,,,,,
,,,,,,607417a6a2b03d66922db6c1,62c53a8b270234594f182ae9,2022-07-06_09h32.51.637,Colour_Asymmetry_Pilot,2022.1.3,Win32,60.11783095,62c50e9c1127f2cd403a315f,0,123,123,82,1,twoone,,,,,,,,,,,,,,,,,,,,,,,,,,,,,,,,,,,,,,,,,,,,,,,,,,,,,,,,,,,,,,,,,,,,,,,,,,,,,,,,,,,,,,,,,,,,,,,,,,,,,,,,,,,,,,,,,,,,,,,,,,,,,,,,,,,,,,,,,,,,,,,,,,,,,,,,,,,,,
,,,,,,607417a6a2b03d66922db6c1,62c53a8b270234594f182ae9,2022-07-06_09h32.51.637,Colour_Asymmetry_Pilot,2022.1.3,Win32,60.11783095,62c50e9c1127f2cd403a315f,0,124,124,54,1,fourtwo,,,,,,,,,,,,,,,,,,,,,,,,,,,,,,,,,,,,,,,,,,,,,,,,,,,,,,,,,,,,,,,,,,,,,,,,,,,,,,,,,,,,,,,,,,,,,,,,,,,,,,,,,,,,,,,,,,,,,,,,,,,,,,,,,,,,,,,,,,,,,,,,,,,,,,,,,,,,,
,,,,,,607417a6a2b03d66922db6c1,62c53a8b270234594f182ae9,2022-07-06_09h32.51.637,Colour_Asymmetry_Pilot,2022.1.3,Win32,60.11783095,62c50e9c1127f2cd403a315f,0,125,125,60,1,threeone,,,,,,,,,,,,,,,,,,,,,,,,,,,,,,,,,,,,,,,,,,,,,,,,,,,,,,,,,,,,,,,,,,,,,,,,,,,,,,,,,,,,,,,,,,,,,,,,,,,,,,,,,,,,,,,,,,,,,,,,,,,,,,,,,,,,,,,,,,,,,,,,,,,,,,,,,,,,,
,,,,,,607417a6a2b03d66922db6c1,62c53a8b270234594f182ae9,2022-07-06_09h32.51.637,Colour_Asymmetry_Pilot,2022.1.3,Win32,60.11783095,62c50e9c1127f2cd403a315f,0,126,126,35,1,twofour,,,,,,,,,,,,,,,,,,,,,,,,,,,,,,,,,,,,,,,,,,,,,,,,,,,,,,,,,,,,,,,,,,,,,,,,,,,,,,,,,,,,,,,,,,,,,,,,,,,,,,,,,,,,,,,,,,,,,,,,,,,,,,,,,,,,,,,,,,,,,,,,,,,,,,,,,,,,,
,,,,,,607417a6a2b03d66922db6c1,62c53a8b270234594f182ae9,2022-07-06_09h32.51.637,Colour_Asymmetry_Pilot,2022.1.3,Win32,60.11783095,62c50e9c1127f2cd403a315f,0,127,127,136,1,onetwo,,,,,,,,,,,,,,,,,,,,,,,,,,,,,,,,,,,,,,,,,,,,,,,,,,,,,,,,,,,,,,,,,,,,,,,,,,,,,,,,,,,,,,,,,,,,,,,,,,,,,,,,,,,,,,,,,,,,,,,,,,,,,,,,,,,,,,,,,,,,,,,,,,,,,,,,,,,,,
,,,,,,607417a6a2b03d66922db6c1,62c53a8b270234594f182ae9,2022-07-06_09h32.51.637,Colour_Asymmetry_Pilot,2022.1.3,Win32,60.11783095,62c50e9c1127f2cd403a315f,0,128,128,148,1,threeone,,,,,,,,,,,,,,,,,,,,,,,,,,,,,,,,,,,,,,,,,,,,,,,,,,,,,,,,,,,,,,,,,,,,,,,,,,,,,,,,,,,,,,,,,,,,,,,,,,,,,,,,,,,,,,,,,,,,,,,,,,,,,,,,,,,,,,,,,,,,,,,,,,,,,,,,,,,,,
,,,,,,607417a6a2b03d66922db6c1,62c53a8b270234594f182ae9,2022-07-06_09h32.51.637,Colour_Asymmetry_Pilot,2022.1.3,Win32,60.11783095,62c50e9c1127f2cd403a315f,0,129,129,78,1,fourtwo,,,,,,,,,,,,,,,,,,,,,,,,,,,,,,,,,,,,,,,,,,,,,,,,,,,,,,,,,,,,,,,,,,,,,,,,,,,,,,,,,,,,,,,,,,,,,,,,,,,,,,,,,,,,,,,,,,,,,,,,,,,,,,,,,,,,,,,,,,,,,,,,,,,,,,,,,,,,,
,,,,,,607417a6a2b03d66922db6c1,62c53a8b270234594f182ae9,2022-07-06_09h32.51.637,Colour_Asymmetry_Pilot,2022.1.3,Win32,60.11783095,62c50e9c1127f2cd403a315f,0,130,130,7,1,fourthree,,,,,,,,,,,,,,,,,,,,,,,,,,,,,,,,,,,,,,,,,,,,,,,,,,,,,,,,,,,,,,,,,,,,,,,,,,,,,,,,,,,,,,,,,,,,,,,,,,,,,,,,,,,,,,,,,,,,,,,,,,,,,,,,,,,,,,,,,,,,,,,,,,,,,,,,,,,,,
,,,,,,607417a6a2b03d66922db6c1,62c53a8b270234594f182ae9,2022-07-06_09h32.51.637,Colour_Asymmetry_Pilot,2022.1.3,Win32,60.11783095,62c50e9c1127f2cd403a315f,0,131,131,28,1,threeone,,,,,,,,,,,,,,,,,,,,,,,,,,,,,,,,,,,,,,,,,,,,,,,,,,,,,,,,,,,,,,,,,,,,,,,,,,,,,,,,,,,,,,,,,,,,,,,,,,,,,,,,,,,,,,,,,,,,,,,,,,,,,,,,,,,,,,,,,,,,,,,,,,,,,,,,,,,,,
,,,,,,607417a6a2b03d66922db6c1,62c53a8b270234594f182ae9,2022-07-06_09h32.51.637,Colour_Asymmetry_Pilot,2022.1.3,Win32,60.11783095,62c50e9c1127f2cd403a315f,0,132,132,49,1,onethree,,,,,,,,,,,,,,,,,,,,,,,,,,,,,,,,,,,,,,,,,,,,,,,,,,,,,,,,,,,,,,,,,,,,,,,,,,,,,,,,,,,,,,,,,,,,,,,,,,,,,,,,,,,,,,,,,,,,,,,,,,,,,,,,,,,,,,,,,,,,,,,,,,,,,,,,,,,,,
,,,,,,607417a6a2b03d66922db6c1,62c53a8b270234594f182ae9,2022-07-06_09h32.51.637,Colour_Asymmetry_Pilot,2022.1.3,Win32,60.11783095,62c50e9c1127f2cd403a315f,0,133,133,25,1,onethree,,,,,,,,,,,,,,,,,,,,,,,,,,,,,,,,,,,,,,,,,,,,,,,,,,,,,,,,,,,,,,,,,,,,,,,,,,,,,,,,,,,,,,,,,,,,,,,,,,,,,,,,,,,,,,,,,,,,,,,,,,,,,,,,,,,,,,,,,,,,,,,,,,,,,,,,,,,,,
,,,,,,607417a6a2b03d66922db6c1,62c53a8b270234594f182ae9,2022-07-06_09h32.51.637,Colour_Asymmetry_Pilot,2022.1.3,Win32,60.11783095,62c50e9c1127f2cd403a315f,0,134,134,139,1,twofour,,,,,,,,,,,,,,,,,,,,,,,,,,,,,,,,,,,,,,,,,,,,,,,,,,,,,,,,,,,,,,,,,,,,,,,,,,,,,,,,,,,,,,,,,,,,,,,,,,,,,,,,,,,,,,,,,,,,,,,,,,,,,,,,,,,,,,,,,,,,,,,,,,,,,,,,,,,,,
,,,,,,607417a6a2b03d66922db6c1,62c53a8b270234594f182ae9,2022-07-06_09h32.51.637,Colour_Asymmetry_Pilot,2022.1.3,Win32,60.11783095,62c50e9c1127f2cd403a315f,0,135,135,10,1,twoone,,,,,,,,,,,,,,,,,,,,,,,,,,,,,,,,,,,,,,,,,,,,,,,,,,,,,,,,,,,,,,,,,,,,,,,,,,,,,,,,,,,,,,,,,,,,,,,,,,,,,,,,,,,,,,,,,,,,,,,,,,,,,,,,,,,,,,,,,,,,,,,,,,,,,,,,,,,,,
,,,,,,607417a6a2b03d66922db6c1,62c53a8b270234594f182ae9,2022-07-06_09h32.51.637,Colour_Asymmetry_Pilot,2022.1.3,Win32,60.11783095,62c50e9c1127f2cd403a315f,0,136,136,6,1,fourtwo,,,,,,,,,,,,,,,,,,,,,,,,,,,,,,,,,,,,,,,,,,,,,,,,,,,,,,,,,,,,,,,,,,,,,,,,,,,,,,,,,,,,,,,,,,,,,,,,,,,,,,,,,,,,,,,,,,,,,,,,,,,,,,,,,,,,,,,,,,,,,,,,,,,,,,,,,,,,,
,,,,,,607417a6a2b03d66922db6c1,62c53a8b270234594f182ae9,2022-07-06_09h32.51.637,Colour_Asymmetry_Pilot,2022.1.3,Win32,60.11783095,62c50e9c1127f2cd403a315f,0,137,137,107,1,twofour,,,,,,,,,,,,,,,,,,,,,,,,,,,,,,,,,,,,,,,,,,,,,,,,,,,,,,,,,,,,,,,,,,,,,,,,,,,,,,,,,,,,,,,,,,,,,,,,,,,,,,,,,,,,,,,,,,,,,,,,,,,,,,,,,,,,,,,,,,,,,,,,,,,,,,,,,,,,,
,,,,,,607417a6a2b03d66922db6c1,62c53a8b270234594f182ae9,2022-07-06_09h32.51.637,Colour_Asymmetry_Pilot,2022.1.3,Win32,60.11783095,62c50e9c1127f2cd403a315f,0,138,138,118,1,fourtwo,,,,,,,,,,,,,,,,,,,,,,,,,,,,,,,,,,,,,,,,,,,,,,,,,,,,,,,,,,,,,,,,,,,,,,,,,,,,,,,,,,,,,,,,,,,,,,,,,,,,,,,,,,,,,,,,,,,,,,,,,,,,,,,,,,,,,,,,,,,,,,,,,,,,,,,,,,,,,
,,,,,,607417a6a2b03d66922db6c1,62c53a8b270234594f182ae9,2022-07-06_09h32.51.637,Colour_Asymmetry_Pilot,2022.1.3,Win32,60.11783095,62c50e9c1127f2cd403a315f,0,139,139,30,1,fourtwo,,,,,,,,,,,,,,,,,,,,,,,,,,,,,,,,,,,,,,,,,,,,,,,,,,,,,,,,,,,,,,,,,,,,,,,,,,,,,,,,,,,,,,,,,,,,,,,,,,,,,,,,,,,,,,,,,,,,,,,,,,,,,,,,,,,,,,,,,,,,,,,,,,,,,,,,,,,,,
,,,,,,607417a6a2b03d66922db6c1,62c53a8b270234594f182ae9,2022-07-06_09h32.51.637,Colour_Asymmetry_Pilot,2022.1.3,Win32,60.11783095,62c50e9c1127f2cd403a315f,0,140,140,140,1,threeone,,,,,,,,,,,,,,,,,,,,,,,,,,,,,,,,,,,,,,,,,,,,,,,,,,,,,,,,,,,,,,,,,,,,,,,,,,,,,,,,,,,,,,,,,,,,,,,,,,,,,,,,,,,,,,,,,,,,,,,,,,,,,,,,,,,,,,,,,,,,,,,,,,,,,,,,,,,,,
,,,,,,607417a6a2b03d66922db6c1,62c53a8b270234594f182ae9,2022-07-06_09h32.51.637,Colour_Asymmetry_Pilot,2022.1.3,Win32,60.11783095,62c50e9c1127f2cd403a315f,0,141,141,151,1,fourthree,,,,,,,,,,,,,,,,,,,,,,,,,,,,,,,,,,,,,,,,,,,,,,,,,,,,,,,,,,,,,,,,,,,,,,,,,,,,,,,,,,,,,,,,,,,,,,,,,,,,,,,,,,,,,,,,,,,,,,,,,,,,,,,,,,,,,,,,,,,,,,,,,,,,,,,,,,,,,
,,,,,,607417a6a2b03d66922db6c1,62c53a8b270234594f182ae9,2022-07-06_09h32.51.637,Colour_Asymmetry_Pilot,2022.1.3,Win32,60.11783095,62c50e9c1127f2cd403a315f,0,142,142,68,1,threeone,,,,,,,,,,,,,,,,,,,,,,,,,,,,,,,,,,,,,,,,,,,,,,,,,,,,,,,,,,,,,,,,,,,,,,,,,,,,,,,,,,,,,,,,,,,,,,,,,,,,,,,,,,,,,,,,,,,,,,,,,,,,,,,,,,,,,,,,,,,,,,,,,,,,,,,,,,,,,
,,,,,,607417a6a2b03d66922db6c1,62c53a8b270234594f182ae9,2022-07-06_09h32.51.637,Colour_Asymmetry_Pilot,2022.1.3,Win32,60.11783095,62c50e9c1127f2cd403a315f,0,143,143,155,1,twofour,,,,,,,,,,,,,,,,,,,,,,,,,,,,,,,,,,,,,,,,,,,,,,,,,,,,,,,,,,,,,,,,,,,,,,,,,,,,,,,,,,,,,,,,,,,,,,,,,,,,,,,,,,,,,,,,,,,,,,,,,,,,,,,,,,,,,,,,,,,,,,,,,,,,,,,,,,,,,
,,,,,,607417a6a2b03d66922db6c1,62c53a8b270234594f182ae9,2022-07-06_09h32.51.637,Colour_Asymmetry_Pilot,2022.1.3,Win32,60.11783095,62c50e9c1127f2cd403a315f,0,144,144,157,1,threefour,,,,,,,,,,,,,,,,,,,,,,,,,,,,,,,,,,,,,,,,,,,,,,,,,,,,,,,,,,,,,,,,,,,,,,,,,,,,,,,,,,,,,,,,,,,,,,,,,,,,,,,,,,,,,,,,,,,,,,,,,,,,,,,,,,,,,,,,,,,,,,,,,,,,,,,,,,,,,
,,,,,,607417a6a2b03d66922db6c1,62c53a8b270234594f182ae9,2022-07-06_09h32.51.637,Colour_Asymmetry_Pilot,2022.1.3,Win32,60.11783095,62c50e9c1127f2cd403a315f,0,145,145,51,1,twofour,,,,,,,,,,,,,,,,,,,,,,,,,,,,,,,,,,,,,,,,,,,,,,,,,,,,,,,,,,,,,,,,,,,,,,,,,,,,,,,,,,,,,,,,,,,,,,,,,,,,,,,,,,,,,,,,,,,,,,,,,,,,,,,,,,,,,,,,,,,,,,,,,,,,,,,,,,,,,
,,,,,,607417a6a2b03d66922db6c1,62c53a8b270234594f182ae9,2022-07-06_09h32.51.637,Colour_Asymmetry_Pilot,2022.1.3,Win32,60.11783095,62c50e9c1127f2cd403a315f,0,146,146,37,1,threefour,,,,,,,,,,,,,,,,,,,,,,,,,,,,,,,,,,,,,,,,,,,,,,,,,,,,,,,,,,,,,,,,,,,,,,,,,,,,,,,,,,,,,,,,,,,,,,,,,,,,,,,,,,,,,,,,,,,,,,,,,,,,,,,,,,,,,,,,,,,,,,,,,,,,,,,,,,,,,
,,,,,,607417a6a2b03d66922db6c1,62c53a8b270234594f182ae9,2022-07-06_09h32.51.637,Colour_Asymmetry_Pilot,2022.1.3,Win32,60.11783095,62c50e9c1127f2cd403a315f,0,147,147,99,1,twofour,,,,,,,,,,,,,,,,,,,,,,,,,,,,,,,,,,,,,,,,,,,,,,,,,,,,,,,,,,,,,,,,,,,,,,,,,,,,,,,,,,,,,,,,,,,,,,,,,,,,,,,,,,,,,,,,,,,,,,,,,,,,,,,,,,,,,,,,,,,,,,,,,,,,,,,,,,,,,
,,,,,,607417a6a2b03d66922db6c1,62c53a8b270234594f182ae9,2022-07-06_09h32.51.637,Colour_Asymmetry_Pilot,2022.1.3,Win32,60.11783095,62c50e9c1127f2cd403a315f,0,148,148,3,1,twofour,,,,,,,,,,,,,,,,,,,,,,,,,,,,,,,,,,,,,,,,,,,,,,,,,,,,,,,,,,,,,,,,,,,,,,,,,,,,,,,,,,,,,,,,,,,,,,,,,,,,,,,,,,,,,,,,,,,,,,,,,,,,,,,,,,,,,,,,,,,,,,,,,,,,,,,,,,,,,
,,,,,,607417a6a2b03d66922db6c1,62c53a8b270234594f182ae9,2022-07-06_09h32.51.637,Colour_Asymmetry_Pilot,2022.1.3,Win32,60.11783095,62c50e9c1127f2cd403a315f,0,149,149,62,1,fourtwo,,,,,,,,,,,,,,,,,,,,,,,,,,,,,,,,,,,,,,,,,,,,,,,,,,,,,,,,,,,,,,,,,,,,,,,,,,,,,,,,,,,,,,,,,,,,,,,,,,,,,,,,,,,,,,,,,,,,,,,,,,,,,,,,,,,,,,,,,,,,,,,,,,,,,,,,,,,,,
,,,,,,607417a6a2b03d66922db6c1,62c53a8b270234594f182ae9,2022-07-06_09h32.51.637,Colour_Asymmetry_Pilot,2022.1.3,Win32,60.11783095,62c50e9c1127f2cd403a315f,0,150,150,50,1,twoone,,,,,,,,,,,,,,,,,,,,,,,,,,,,,,,,,,,,,,,,,,,,,,,,,,,,,,,,,,,,,,,,,,,,,,,,,,,,,,,,,,,,,,,,,,,,,,,,,,,,,,,,,,,,,,,,,,,,,,,,,,,,,,,,,,,,,,,,,,,,,,,,,,,,,,,,,,,,,
,,,,,,607417a6a2b03d66922db6c1,62c53a8b270234594f182ae9,2022-07-06_09h32.51.637,Colour_Asymmetry_Pilot,2022.1.3,Win32,60.11783095,62c50e9c1127f2cd403a315f,0,151,151,81,1,onethree,,,,,,,,,,,,,,,,,,,,,,,,,,,,,,,,,,,,,,,,,,,,,,,,,,,,,,,,,,,,,,,,,,,,,,,,,,,,,,,,,,,,,,,,,,,,,,,,,,,,,,,,,,,,,,,,,,,,,,,,,,,,,,,,,,,,,,,,,,,,,,,,,,,,,,,,,,,,,
,,,,,,607417a6a2b03d66922db6c1,62c53a8b270234594f182ae9,2022-07-06_09h32.51.637,Colour_Asymmetry_Pilot,2022.1.3,Win32,60.11783095,62c50e9c1127f2cd403a315f,0,152,152,159,1,fourthree,,,,,,,,,,,,,,,,,,,,,,,,,,,,,,,,,,,,,,,,,,,,,,,,,,,,,,,,,,,,,,,,,,,,,,,,,,,,,,,,,,,,,,,,,,,,,,,,,,,,,,,,,,,,,,,,,,,,,,,,,,,,,,,,,,,,,,,,,,,,,,,,,,,,,,,,,,,,,
,,,,,,607417a6a2b03d66922db6c1,62c53a8b270234594f182ae9,2022-07-06_09h32.51.637,Colour_Asymmetry_Pilot,2022.1.3,Win32,60.11783095,62c50e9c1127f2cd403a315f,0,153,153,67,1,twofour,,,,,,,,,,,,,,,,,,,,,,,,,,,,,,,,,,,,,,,,,,,,,,,,,,,,,,,,,,,,,,,,,,,,,,,,,,,,,,,,,,,,,,,,,,,,,,,,,,,,,,,,,,,,,,,,,,,,,,,,,,,,,,,,,,,,,,,,,,,,,,,,,,,,,,,,,,,,,
,,,,,,607417a6a2b03d66922db6c1,62c53a8b270234594f182ae9,2022-07-06_09h32.51.637,Colour_Asymmetry_Pilot,2022.1.3,Win32,60.11783095,62c50e9c1127f2cd403a315f,0,154,154,69,1,threefour,,,,,,,,,,,,,,,,,,,,,,,,,,,,,,,,,,,,,,,,,,,,,,,,,,,,,,,,,,,,,,,,,,,,,,,,,,,,,,,,,,,,,,,,,,,,,,,,,,,,,,,,,,,,,,,,,,,,,,,,,,,,,,,,,,,,,,,,,,,,,,,,,,,,,,,,,,,,,
,,,,,,607417a6a2b03d66922db6c1,62c53a8b270234594f182ae9,2022-07-06_09h32.51.637,Colour_Asymmetry_Pilot,2022.1.3,Win32,60.11783095,62c50e9c1127f2cd403a315f,0,155,155,112,1,onetwo,,,,,,,,,,,,,,,,,,,,,,,,,,,,,,,,,,,,,,,,,,,,,,,,,,,,,,,,,,,,,,,,,,,,,,,,,,,,,,,,,,,,,,,,,,,,,,,,,,,,,,,,,,,,,,,,,,,,,,,,,,,,,,,,,,,,,,,,,,,,,,,,,,,,,,,,,,,,,
,,,,,,607417a6a2b03d66922db6c1,62c53a8b270234594f182ae9,2022-07-06_09h32.51.637,Colour_Asymmetry_Pilot,2022.1.3,Win32,60.11783095,62c50e9c1127f2cd403a315f,0,156,156,55,1,fourthree,,,,,,,,,,,,,,,,,,,,,,,,,,,,,,,,,,,,,,,,,,,,,,,,,,,,,,,,,,,,,,,,,,,,,,,,,,,,,,,,,,,,,,,,,,,,,,,,,,,,,,,,,,,,,,,,,,,,,,,,,,,,,,,,,,,,,,,,,,,,,,,,,,,,,,,,,,,,,
,,,,,,607417a6a2b03d66922db6c1,62c53a8b270234594f182ae9,2022-07-06_09h32.51.637,Colour_Asymmetry_Pilot,2022.1.3,Win32,60.11783095,62c50e9c1127f2cd403a315f,0,157,157,86,1,fourtwo,,,,,,,,,,,,,,,,,,,,,,,,,,,,,,,,,,,,,,,,,,,,,,,,,,,,,,,,,,,,,,,,,,,,,,,,,,,,,,,,,,,,,,,,,,,,,,,,,,,,,,,,,,,,,,,,,,,,,,,,,,,,,,,,,,,,,,,,,,,,,,,,,,,,,,,,,,,,,
,,,,,,607417a6a2b03d66922db6c1,62c53a8b270234594f182ae9,2022-07-06_09h32.51.637,Colour_Asymmetry_Pilot,2022.1.3,Win32,60.11783095,62c50e9c1127f2cd403a315f,0,158,158,161,1,onethree,,,,,,,,,,,,,,,,,,,,,,,,,,,,,,,,,,,,,,,,,,,,,,,,,,,,,,,,,,,,,,,,,,,,,,,,,,,,,,,,,,,,,,,,,,,,,,,,,,,,,,,,,,,,,,,,,,,,,,,,,,,,,,,,,,,,,,,,,,,,,,,,,,,,,,,,,,,,,
,,,,,,607417a6a2b03d66922db6c1,62c53a8b270234594f182ae9,2022-07-06_09h32.51.637,Colour_Asymmetry_Pilot,2022.1.3,Win32,60.11783095,62c50e9c1127f2cd403a315f,0,159,159,146,1,twoone,,,,,,,,,,,,,,,,,,,,,,,,,,,,,,,,,,,,,,,,,,,,,,,,,,,,,,,,,,,,,,,,,,,,,,,,,,,,,,,,,,,,,,,,,,,,,,,,,,,,,,,,,,,,,,,,,,,,,,,,,,,,,,,,,,,,,,,,,,,,,,,,,,,,,,,,,,,,,
,,,,,,607417a6a2b03d66922db6c1,62c53a8b270234594f182ae9,2022-07-06_09h32.51.637,Colour_Asymmetry_Pilot,2022.1.3,Win32,60.11783095,62c50e9c1127f2cd403a315f,0,160,160,125,1,threefour,,,,,,,,,,,,,,,,,,,,,,,,,,,,,,,,,,,,,,,,,,,,,,,,,,,,,,,,,,,,,,,,,,,,,,,,,,,,,,,,,,,,,,,,,,,,,,,,,,,,,,,,,,,,,,,,,,,,,,,,,,,,,,,,,,,,,,,,,,,,,,,,,,,,,,,,,,,,,
,,,,,,607417a6a2b03d66922db6c1,62c53a8b270234594f182ae9,2022-07-06_09h32.51.637,Colour_Asymmetry_Pilot,2022.1.3,Win32,60.11783095,62c50e9c1127f2cd403a315f,0,161,161,90,1,twoone,,,,,,,,,,,,,,,,,,,,,,,,,,,,,,,,,,,,,,,,,,,,,,,,,,,,,,,,,,,,,,,,,,,,,,,,,,,,,,,,,,,,,,,,,,,,,,,,,,,,,,,,,,,,,,,,,,,,,,,,,,,,,,,,,,,,,,,,,,,,,,,,,,,,,,,,,,,,,
,,,,,,607417a6a2b03d66922db6c1,62c53a8b270234594f182ae9,2022-07-06_09h32.51.637,Colour_Asymmetry_Pilot,2022.1.3,Win32,60.11783095,62c50e9c1127f2cd403a315f,,,,,,,space,2.4051,space,3.7013,space,22.9376,space,4.7466,space,1.8435,space,3.1736,"[-0.5922000000000001,-0.7492000000000001,-0.5296000000000001]",onethree,"[0.23920000000000008,0.2704,0.16060000000000008]",-4,7.8432,-37.95458984,131.9091187,1,0,0,response7disk_5,-10.68182373,-6.272705078,1,0,0,rectangle_8,-10.68182373,-6.272705078,1,0,0,3,-10.68182373,-6.272705078,1,0,0,0,0,0,0,1,,,,,,,,,,,,,,,,,,,,,,,,,,,,,,,,,,,,,,,,,,,,,,,,,,,,,,,,,,,,,,,,,,,,,,,,,,,,,,,,,,,,,,,,,,,,,,,,,,,,,,,,,,,,,,,,
,,,,,,607417a6a2b03d66922db6c1,62c53a8b270234594f182ae9,2022-07-06_09h32.51.637,Colour_Asymmetry_Pilot,2022.1.3,Win32,60.11783095,62c50e9c1127f2cd403a315f,,,,,,,,,,,,,,,,,,,"[-0.8118,-0.8198,-0.5452]",twoone,"[0.6547999999999998,-0.043199999999999905,-0.011800000000000033]",-4,0.9431,-31.59094238,101,1,0,0,response7disk_5,-11.59094238,-8.090881348,1,0,0,rectangle_8,-11.59094238,-8.090881348,1,0,0,3,-11.59094238,-8.090881348,1,0,0,1,0,1,0,1,,,,,,,,,,,,,,,,,,,,,,,,,,,,,,,,,,,,,,,,,,,,,,,,,,,,,,,,,,,,,,,,,,,,,,,,,,,,,,,,,,,,,,,,,,,,,,,,,,,,,,,,,,,,,,,,
,,,,,,607417a6a2b03d66922db6c1,62c53a8b270234594f182ae9,2022-07-06_09h32.51.637,Colour_Asymmetry_Pilot,2022.1.3,Win32,60.11783095,62c50e9c1127f2cd403a315f,,,,,,,,,,,,,,,,,,,"[0.9763999999999999,-0.1137999999999999,-0.6314]",twofour,"[0.9763999999999999,-0.1137999999999999,-0.6314]",4,1.2333,59.31817627,71.90911865,1,0,0,response1disk_5,1.136352539,-0.81817627,1,0,0,rectangle_8,1.136352539,-0.81817627,1,0,0,3,1.136352539,-0.81817627,1,0,0,2,0,2,0,1,,,,,,,,,,,,,,,,,,,,,,,,,,,,,,,,,,,,,,,,,,,,,,,,,,,,,,,,,,,,,,,,,,,,,,,,,,,,,,,,,,,,,,,,,,,,,,,,,,,,,,,,,,,,,,,,
,,,,,,607417a6a2b03d66922db6c1,62c53a8b270234594f182ae9,2022-07-06_09h32.51.637,Colour_Asymmetry_Pilot,2022.1.3,Win32,60.11783095,62c50e9c1127f2cd403a315f,,,,,,,,,,,,,,,,,,,"[1,0.12939999999999996,-1]",fourthree,"[0.9213999999999998,0.6391999999999998,-0.9922]",-2,1.789,-71.59094238,-32.63635254,1,0,0,response5disk_5,-31.59094238,-2.636352539,1,0,0,rectangle_8,-31.59094238,-2.636352539,1,0,0,3,-31.59094238,-2.636352539,1,0,0,3,0,3,0,1,,,,,,,,,,,,,,,,,,,,,,,,,,,,,,,,,,,,,,,,,,,,,,,,,,,,,,,,,,,,,,,,,,,,,,,,,,,,,,,,,,,,,,,,,,,,,,,,,,,,,,,,,,,,,,,,
,,,,,,607417a6a2b03d66922db6c1,62c53a8b270234594f182ae9,2022-07-06_09h32.51.637,Colour_Asymmetry_Pilot,2022.1.3,Win32,60.11783095,62c50e9c1127f2cd403a315f,,,,,,,,,,,,,,,,,,,"[-0.09019999999999995,0.44300000000000006,0.5371999999999999]",threefour,"[-0.38039999999999996,-0.4276,-0.1452]",-4,1.5155,-30.68182373,62.8182373,1,0,0,response7disk_5,-29.77276611,-15.36361694,1,0,0,rectangle_8,-29.77276611,-15.36361694,1,0,0,3,-29.77276611,-15.36361694,1,0,0,4,0,4,0,1,,,,,,,,,,,,,,,,,,,,,,,,,,,,,,,,,,,,,,,,,,,,,,,,,,,,,,,,,,,,,,,,,,,,,,,,,,,,,,,,,,,,,,,,,,,,,,,,,,,,,,,,,,,,,,,,
,,,,,,607417a6a2b03d66922db6c1,62c53a8b270234594f182ae9,2022-07-06_09h32.51.637,Colour_Asymmetry_Pilot,2022.1.3,Win32,60.11783095,62c50e9c1127f2cd403a315f,,,,,,,,,,,,,,,,,,,"[0.5449999999999999,-0.31000000000000005,-0.0354000000000001]",twoone,"[0.9763999999999999,0.30979999999999985,-0.6786]",-2,1.9997,-79.77276611,-42.63635254,1,0,0,response5disk_5,-4.31829834,4.636383057,1,0,0,rectangle_8,100.2272339,59.18182373,1,0,0,3,-4.31829834,2.818206787,1,0,0,5,0,5,0,1,response1disk_7,6,rectangle_4,,,,,,,,,,,,,,,,,,,,,,,,,,,,,,,,,,,,,,,,,,,,,,,,,,,,,,,,,,,,,,,,,,,,,,,,,,,,,,,,,,,,,,,,,,,,,,,,,,,,,,,,,,,,,
,,,,,,607417a6a2b03d66922db6c1,62c53a8b270234594f182ae9,2022-07-06_09h32.51.637,Colour_Asymmetry_Pilot,2022.1.3,Win32,60.11783095,62c50e9c1127f2cd403a315f,,,,,,,,,,,,,,,,,,,"[-0.6942,-0.7648,-0.12959999999999994]",threefour,"[-0.8118,-0.8198,-0.5452]",3,1.7331,58.40905762,37.36364746,1,0,0,response1disk_5,-15.22729492,-9.909088135,1,0,0,rectangle_8,-15.22729492,-9.909088135,1,0,0,3,-15.22729492,-9.909088135,1,0,0,6,0,6,0,1,,,,,,,,,,,,,,,,,,,,,,,,,,,,,,,,,,,,,,,,,,,,,,,,,,,,,,,,,,,,,,,,,,,,,,,,,,,,,,,,,,,,,,,,,,,,,,,,,,,,,,,,,,,,,,,,
,,,,,,607417a6a2b03d66922db6c1,62c53a8b270234594f182ae9,2022-07-06_09h32.51.637,Colour_Asymmetry_Pilot,2022.1.3,Win32,60.11783095,62c50e9c1127f2cd403a315f,,,,,,,,,,,,,,,,,,,,threeone,,-4,1.0669,,,,,,,,,,,,,,,,,,,,,,,,,,,,,,,,space,3.379,"[0.9213999999999998,0.6391999999999998,-0.9922]","[-0.4668,-0.8746,-0.2942]",-42.5,96.45455933,1,0,0,response7disk,-7.045471191,-3.545440674,1,0,0,rectangle,-7.045471191,-3.545440674,1,0,0,,3,0.0048,0,-7.045471191,-3.545440674,1,0,0,0,0,0,150,1,69,second,,,,,,,,,,,,,,,,,,,,,,,,,,,,,,,,,,,,,,,,,,,,,,,,,,,,,,,,,,,,,,,,,,,,,,,,
,,,,,,607417a6a2b03d66922db6c1,62c53a8b270234594f182ae9,2022-07-06_09h32.51.637,Colour_Asymmetry_Pilot,2022.1.3,Win32,60.11783095,62c50e9c1127f2cd403a315f,,,,,,,,,,,,,,,,,,,,threefour,,-4,0.4834,,,,,,,,,,,,,,,,,,,,,,,,,,,,,,,,,,"[0.8274000000000001,-0.5844,-0.9452]","[-0.26280000000000003,-0.2158,-0.3256]",-57.04547119,86.45455933,1,0,0,response7disk,-17.04547119,-1.727264404,1,0,0,rectangle,-17.04547119,-1.727264404,1,0,0,,1,0.0034,0,-17.04547119,-1.727264404,1,0,0,0,1,1,28,1,28,first,,,,,,,,,,,,,,,,,,,,,,,,,,,,,,,,,,,,,,,,,,,,,,,,,,,,,,,,,,,,,,,,,,,,,,,,
,,,,,,607417a6a2b03d66922db6c1,62c53a8b270234594f182ae9,2022-07-06_09h32.51.637,Colour_Asymmetry_Pilot,2022.1.3,Win32,60.11783095,62c50e9c1127f2cd403a315f,,,,,,,,,,,,,,,,,,,,onetwo,,-3,1.1163,,,,,,,,,,,,,,,,,,,,,,,,,,,,,,,,,,"[0.9763999999999999,0.30979999999999985,-0.6786]","[-0.0040000000000000036,0.02739999999999987,-0.08239999999999992]",-104.3182373,34.63638306,1,0,0,response7disk,5.68170166,1.000030518,1,0,0,rectangle,5.68170166,1.000030518,1,0,0,,3,0.0034,0,5.68170166,1.000030518,1,0,0,0,2,2,146,1,65,second,,,,,,,,,,,,,,,,,,,,,,,,,,,,,,,,,,,,,,,,,,,,,,,,,,,,,,,,,,,,,,,,,,,,,,,,
,,,,,,607417a6a2b03d66922db6c1,62c53a8b270234594f182ae9,2022-07-06_09h32.51.637,Colour_Asymmetry_Pilot,2022.1.3,Win32,60.11783095,62c50e9c1127f2cd403a315f,,,,,,,,,,,,,,,,,,,,twoone,,-4,0.6335,,,,,,,,,,,,,,,,,,,,,,,,,,,,,,,,,,"[-0.20799999999999996,-0.655,-0.01980000000000004]","[-0.26280000000000003,-0.2158,-0.3256]",-32.5,88.2727356,1,0,0,response7disk,13.86352539,-0.81817627,1,0,0,rectangle,13.86352539,-0.81817627,1,0,0,,1,0.0037,0,13.86352539,-0.81817627,1,0,0,0,3,3,13,1,13,first,,,,,,,,,,,,,,,,,,,,,,,,,,,,,,,,,,,,,,,,,,,,,,,,,,,,,,,,,,,,,,,,,,,,,,,,
,,,,,,607417a6a2b03d66922db6c1,62c53a8b270234594f182ae9,2022-07-06_09h32.51.637,Colour_Asymmetry_Pilot,2022.1.3,Win32,60.11783095,62c50e9c1127f2cd403a315f,,,,,,,,,,,,,,,,,,,,twoone,,-4,0.8995,,,,,,,,,,,,,,,,,,,,,,,,,,,,,,,,,,"[-0.9138,-0.5296000000000001,-0.5529999999999999]","[0.19199999999999995,0.18419999999999992,0.5136000000000001]",-30.68182373,63.72729492,1,0,0,response7disk,-5.227294922,4.636383057,1,0,0,rectangle,-5.227294922,4.636383057,1,0,0,,2,0.0034,0,-5.227294922,4.636383057,1,0,0,0,4,4,52,1,52,first,,,,,,,,,,,,,,,,,,,,,,,,,,,,,,,,,,,,,,,,,,,,,,,,,,,,,,,,,,,,,,,,,,,,,,,,
,,,,,,607417a6a2b03d66922db6c1,62c53a8b270234594f182ae9,2022-07-06_09h32.51.637,Colour_Asymmetry_Pilot,2022.1.3,Win32,60.11783095,62c50e9c1127f2cd403a315f,,,,,,,,,,,,,,,,,,,,threeone,,-4,0.5851,,,,,,,,,,,,,,,,,,,,,,,,,,,,,,,,,,"[0.37240000000000006,0.4980000000000002,-0.2864]","[0.7176,-0.906,-0.6864]",-60.68182373,149.1818237,1,0,0,response7disk,-4.31829834,3.727294922,1,0,0,rectangle,-4.31829834,3.727294922,1,0,0,,1,0.0037,0,-4.31829834,3.727294922,1,0,0,0,5,5,127,1,46,second,,,,,,,,,,,,,,,,,,,,,,,,,,,,,,,,,,,,,,,,,,,,,,,,,,,,,,,,,,,,,,,,,,,,,,,,
,,,,,,607417a6a2b03d66922db6c1,62c53a8b270234594f182ae9,2022-07-06_09h32.51.637,Colour_Asymmetry_Pilot,2022.1.3,Win32,60.11783095,62c50e9c1127f2cd403a315f,,,,,,,,,,,,,,,,,,,,twofour,,-3,1.4662,,,,,,,,,,,,,,,,,,,,,,,,,,,,,,,,,,"[0.3802000000000001,0.19199999999999995,-0.6394]","[-0.0040000000000000036,0.02739999999999987,-0.08239999999999992]",-62.5,37.36364746,1,0,0,response7disk,7.499938965,5.545471191,1,0,0,rectangle,7.499938965,5.545471191,1,0,0,,2,0.0039,0,7.499938965,5.545471191,1,0,0,0,6,6,105,1,24,second,,,,,,,,,,,,,,,,,,,,,,,,,,,,,,,,,,,,,,,,,,,,,,,,,,,,,,,,,,,,,,,,,,,,,,,,
,,,,,,607417a6a2b03d66922db6c1,62c53a8b270234594f182ae9,2022-07-06_09h32.51.637,Colour_Asymmetry_Pilot,2022.1.3,Win32,60.11783095,62c50e9c1127f2cd403a315f,,,,,,,,,,,,,,,,,,,,twoone,,-4,0.3661,,,,,,,,,,,,,,,,,,,,,,,,,,,,,,,,,,"[-0.4746,-0.0354000000000001,0.5449999999999999]","[0.30180000000000007,-0.7884,-0.9844]",-49.77276611,99.18182373,1,0,0,response7disk,8.409057617,-0.81817627,1,0,0,rectangle,8.409057617,-0.81817627,1,0,0,,3,0.0036,0,8.409057617,-0.81817627,1,0,0,0,7,7,124,1,43,second,,,,,,,,,,,,,,,,,,,,,,,,,,,,,,,,,,,,,,,,,,,,,,,,,,,,,,,,,,,,,,,,,,,,,,,,
,,,,,,607417a6a2b03d66922db6c1,62c53a8b270234594f182ae9,2022-07-06_09h32.51.637,Colour_Asymmetry_Pilot,2022.1.3,Win32,60.11783095,62c50e9c1127f2cd403a315f,,,,,,,,,,,,,,,,,,,,fourthree,,-3,0.5997,,,,,,,,,,,,,,,,,,,,,,,,,,,,,,,,,,"[-0.6706000000000001,-0.6157999999999999,-0.6786]","[0.3568,-0.20799999999999996,-0.9844]",-107.0454712,38.2727356,1,0,0,response7disk,18.40905762,4.636383057,1,0,0,rectangle,18.40905762,4.636383057,1,0,0,,2,0.0036,0,18.40905762,4.636383057,1,0,0,0,8,8,132,1,51,second,,,,,,,,,,,,,,,,,,,,,,,,,,,,,,,,,,,,,,,,,,,,,,,,,,,,,,,,,,,,,,,,,,,,,,,,
,,,,,,607417a6a2b03d66922db6c1,62c53a8b270234594f182ae9,2022-07-06_09h32.51.637,Colour_Asymmetry_Pilot,2022.1.3,Win32,60.11783095,62c50e9c1127f2cd403a315f,,,,,,,,,,,,,,,,,,,,threefour,,-2,0.7169,,,,,,,,,,,,,,,,,,,,,,,,,,,,,,,,,,"[0.5528,0.7409999999999999,-0.71]","[0.9686000000000001,0.5763999999999998,0.11359999999999992]",-43.40911865,-29,1,0,0,response5disk,-11.59094238,15.54547119,1,0,0,rectangle,-11.59094238,15.54547119,1,0,0,,2,0.0005,0,-11.59094238,15.54547119,1,0,0,0,9,9,138,1,57,second,,,,,,,,,,,,,,,,,,,,,,,,,,,,,,,,,,,,,,,,,,,,,,,,,,,,,,,,,,,,,,,,,,,,,,,,
,,,,,,607417a6a2b03d66922db6c1,62c53a8b270234594f182ae9,2022-07-06_09h32.51.637,Colour_Asymmetry_Pilot,2022.1.3,Win32,60.11783095,62c50e9c1127f2cd403a315f,,,,,,,,,,,,,,,,,,,,onethree,,-3,1.1335,,,,,,,,,,,,,,,,,,,,,,,,,,,,,,,,,,"[-0.9688,-0.38039999999999996,-0.41979999999999995]","[-0.2942,-0.7648,-0.7492000000000001]",-64.3182373,32.8182373,1,0,0,response7disk,19.31817627,1.000030518,1,0,0,rectangle,19.31817627,1.000030518,1,0,0,,1,0.0042,0,19.31817627,1.000030518,1,0,0,0,10,10,27,1,27,first,,,,,,,,,,,,,,,,,,,,,,,,,,,,,,,,,,,,,,,,,,,,,,,,,,,,,,,,,,,,,,,,,,,,,,,,
,,,,,,607417a6a2b03d66922db6c1,62c53a8b270234594f182ae9,2022-07-06_09h32.51.637,Colour_Asymmetry_Pilot,2022.1.3,Win32,60.11783095,62c50e9c1127f2cd403a315f,,,,,,,,,,,,,,,,,,,,onetwo,,-1,1.7994,,,,,,,,,,,,,,,,,,,,,,,,,,,,,,,,,,"[0.09799999999999986,-0.24719999999999998,0.15280000000000005]","[0.18419999999999992,-0.4276,-0.404]",-49.77276611,-54.45452881,1,0,0,response5disk,-12.50006104,-0.81817627,1,0,0,rectangle,-12.50006104,-0.81817627,1,0,0,,2,0.0032,0,-12.50006104,-0.81817627,1,0,0,0,11,11,143,1,62,second,,,,,,,,,,,,,,,,,,,,,,,,,,,,,,,,,,,,,,,,,,,,,,,,,,,,,,,,,,,,,,,,,,,,,,,,
,,,,,,607417a6a2b03d66922db6c1,62c53a8b270234594f182ae9,2022-07-06_09h32.51.637,Colour_Asymmetry_Pilot,2022.1.3,Win32,60.11783095,62c50e9c1127f2cd403a315f,,,,,,,,,,,,,,,,,,,,twofour,,1,1.3665,,,,,,,,,,,,,,,,,,,,,,,,,,,,,,,,,,"[-0.6706000000000001,-0.6157999999999999,-0.6786]","[-0.8118,-0.8198,-0.5452]",32.04541016,-58.09088135,1,0,0,response3disk,-3.409118652,0.090911865,1,0,0,rectangle,-3.409118652,0.090911865,1,0,0,,1,0.0061,0,-3.409118652,0.090911865,1,0,0,0,12,12,157,1,76,second,,,,,,,,,,,,,,,,,,,,,,,,,,,,,,,,,,,,,,,,,,,,,,,,,,,,,,,,,,,,,,,,,,,,,,,,
,,,,,,607417a6a2b03d66922db6c1,62c53a8b270234594f182ae9,2022-07-06_09h32.51.637,Colour_Asymmetry_Pilot,2022.1.3,Win32,60.11783095,62c50e9c1127f2cd403a315f,,,,,,,,,,,,,,,,,,,,twoone,,-4,0.3667,,,,,,,,,,,,,,,,,,,,,,,,,,,,,,,,,,"[0.0351999999999999,0.41159999999999997,0.0038000000000000256]","[-0.8118,-0.8198,-0.5452]",-68.86364746,107.3636475,1,0,0,response7disk,-15.22729492,0.090911865,1,0,0,rectangle,-15.22729492,0.090911865,1,0,0,,3,0.0068,0,-15.22729492,0.090911865,1,0,0,0,13,13,40,1,40,first,,,,,,,,,,,,,,,,,,,,,,,,,,,,,,,,,,,,,,,,,,,,,,,,,,,,,,,,,,,,,,,,,,,,,,,,
,,,,,,607417a6a2b03d66922db6c1,62c53a8b270234594f182ae9,2022-07-06_09h32.51.637,Colour_Asymmetry_Pilot,2022.1.3,Win32,60.11783095,62c50e9c1127f2cd403a315f,,,,,,,,,,,,,,,,,,,,threefour,,-4,0.4166,,,,,,,,,,,,,,,,,,,,,,,,,,,,,,,,,,"[-0.4902000000000001,0.2704,-0.45899999999999996]","[-0.9766,-0.6472,0.07440000000000002]",-37.04547119,65.54547119,1,0,0,response7disk,2.954528809,-9.909088135,1,0,0,rectangle,2.954528809,-9.909088135,1,0,0,,3,0.0004,0,2.954528809,-9.909088135,1,0,0,0,14,14,42,1,42,first,,,,,,,,,,,,,,,,,,,,,,,,,,,,,,,,,,,,,,,,,,,,,,,,,,,,,,,,,,,,,,,,,,,,,,,,
