trials.thisRepN,trials.thisTrialN,trials.thisN,trials.thisIndex,trials.ran,Colourcodes,participant,session,date,expName,psychopyVersion,OS,frameRate,study_id,trials_4.thisRepN,trials_4.thisTrialN,trials_4.thisN,trials_4.thisIndex,trials_4.ran,StimulusPos,key_resp.keys,key_resp.rt,key_resp_2.keys,key_resp_2.rt,key_resp_15.keys,key_resp_15.rt,key_resp_17.keys,key_resp_17.rt,key_resp_9.keys,key_resp_9.rt,key_resp_10.keys,key_resp_10.rt,Circle1_col,Ecc,Circle2_col,similarity,response_time,mouse_5.x,mouse_5.y,mouse_5.leftButton,mouse_5.midButton,mouse_5.rightButton,mouse_5.clicked_name,mouse_10.x,mouse_10.y,mouse_10.leftButton,mouse_10.midButton,mouse_10.rightButton,mouse_10.clicked_name,mouse_7.x,mouse_7.y,mouse_7.leftButton,mouse_7.midButton,mouse_7.rightButton,mouse_7.clicked_name,catchprac,catchnumberprac,mouse_6.x,mouse_6.y,mouse_6.leftButton,mouse_6.midButton,mouse_6.rightButton,mouse_6.clicked_name,duringprac.thisRepN,duringprac.thisTrialN,duringprac.thisN,duringprac.thisIndex,duringprac.ran,key_resp_22.keys,key_resp_22.rt,Circle1_colour,Circle2_colour,mouse.x,mouse.y,mouse.leftButton,mouse.midButton,mouse.rightButton,mouse.clicked_name,mouse_2.x,mouse_2.y,mouse_2.leftButton,mouse_2.midButton,mouse_2.rightButton,mouse_2.clicked_name,mouse_3.x,mouse_3.y,mouse_3.leftButton,mouse_3.midButton,mouse_3.rightButton,catchresponse,catchnumber,response_time_catch,Catch,mouse_11.x,mouse_11.y,mouse_11.leftButton,mouse_11.midButton,mouse_11.rightButton,trials_2.thisRepN,trials_2.thisTrialN,trials_2.thisN,trials_2.thisIndex,trials_2.ran,Colourpair,Temporder,mouse_3.clicked_name,mouse_11.clicked_name,trials_3.thisRepN,trials_3.thisTrialN,trials_3.thisN,trials_3.thisIndex,trials_3.ran,key_resp_instr_Ishi.keys,key_resp_instr_Ishi.rt,Ishi_trial_keyresp.keys,Ishi_textbox.text,Ishi_mouse.x,Ishi_mouse.y,Ishi_mouse.leftButton,Ishi_mouse.midButton,Ishi_mouse.rightButton,Ishi_mouse.clicked_name,Ishi_loop.thisRepN,Ishi_loop.thisTrialN,Ishi_loop.thisN,Ishi_loop.thisIndex,Ishi_loop.ran,imageaddress,textbox.text,mouse_4.x,mouse_4.y,mouse_4.leftButton,mouse_4.midButton,mouse_4.rightButton,mouse_4.clicked_name,textbox_2.text,mouse_8.x,mouse_8.y,mouse_8.leftButton,mouse_8.midButton,mouse_8.rightButton,mouse_8.clicked_name,textbox_3.text,mouse_9.x,mouse_9.y,mouse_9.leftButton,mouse_9.midButton,mouse_9.rightButton,mouse_9.clicked_name,textbox_4.text,mouse_12.x,mouse_12.y,mouse_12.leftButton,mouse_12.midButton,mouse_12.rightButton,mouse_12.clicked_name,textbox_5.text,mouse_13.x,mouse_13.y,mouse_13.leftButton,mouse_13.midButton,mouse_13.rightButton,mouse_13.clicked_name,textbox_6.text,mouse_14.x,mouse_14.y,mouse_14.leftButton,mouse_14.midButton,mouse_14.rightButton,mouse_14.clicked_name,textbox_7.text,mouse_15.x,mouse_15.y,mouse_15.leftButton,mouse_15.midButton,mouse_15.rightButton,mouse_15.clicked_name
0,0,0,14,1,,5f5286c9fe322954c5256681,62c539a225cc44bfddb0f10b,2022-07-06_09h28.45.815,Colour_Asymmetry_Pilot,2022.1.3,Win32,59.75143403,62c50e9c1127f2cd403a315f,,,,,,,,,,,,,,,,,,,,,,,,,,,,,,,,,,,,,,,,,,,,,,,,,,,,,,,,,,,,,,,,,,,,,,,,,,,,,,,,,,,,,,,,,,,,,,,,,,,,,,,,,,,,,,,,,,,,,,,,,,,,,,,,,,,,,,,,,,,,,,,,,,,,,,,,,,,,,,,,,,,
0,1,1,87,1,,5f5286c9fe322954c5256681,62c539a225cc44bfddb0f10b,2022-07-06_09h28.45.815,Colour_Asymmetry_Pilot,2022.1.3,Win32,59.75143403,62c50e9c1127f2cd403a315f,,,,,,,,,,,,,,,,,,,,,,,,,,,,,,,,,,,,,,,,,,,,,,,,,,,,,,,,,,,,,,,,,,,,,,,,,,,,,,,,,,,,,,,,,,,,,,,,,,,,,,,,,,,,,,,,,,,,,,,,,,,,,,,,,,,,,,,,,,,,,,,,,,,,,,,,,,,,,,,,,,,
0,2,2,88,1,,5f5286c9fe322954c5256681,62c539a225cc44bfddb0f10b,2022-07-06_09h28.45.815,Colour_Asymmetry_Pilot,2022.1.3,Win32,59.75143403,62c50e9c1127f2cd403a315f,,,,,,,,,,,,,,,,,,,,,,,,,,,,,,,,,,,,,,,,,,,,,,,,,,,,,,,,,,,,,,,,,,,,,,,,,,,,,,,,,,,,,,,,,,,,,,,,,,,,,,,,,,,,,,,,,,,,,,,,,,,,,,,,,,,,,,,,,,,,,,,,,,,,,,,,,,,,,,,,,,,
0,3,3,42,1,,5f5286c9fe322954c5256681,62c539a225cc44bfddb0f10b,2022-07-06_09h28.45.815,Colour_Asymmetry_Pilot,2022.1.3,Win32,59.75143403,62c50e9c1127f2cd403a315f,,,,,,,,,,,,,,,,,,,,,,,,,,,,,,,,,,,,,,,,,,,,,,,,,,,,,,,,,,,,,,,,,,,,,,,,,,,,,,,,,,,,,,,,,,,,,,,,,,,,,,,,,,,,,,,,,,,,,,,,,,,,,,,,,,,,,,,,,,,,,,,,,,,,,,,,,,,,,,,,,,,
0,4,4,33,1,,5f5286c9fe322954c5256681,62c539a225cc44bfddb0f10b,2022-07-06_09h28.45.815,Colour_Asymmetry_Pilot,2022.1.3,Win32,59.75143403,62c50e9c1127f2cd403a315f,,,,,,,,,,,,,,,,,,,,,,,,,,,,,,,,,,,,,,,,,,,,,,,,,,,,,,,,,,,,,,,,,,,,,,,,,,,,,,,,,,,,,,,,,,,,,,,,,,,,,,,,,,,,,,,,,,,,,,,,,,,,,,,,,,,,,,,,,,,,,,,,,,,,,,,,,,,,,,,,,,,
0,5,5,6,1,,5f5286c9fe322954c5256681,62c539a225cc44bfddb0f10b,2022-07-06_09h28.45.815,Colour_Asymmetry_Pilot,2022.1.3,Win32,59.75143403,62c50e9c1127f2cd403a315f,,,,,,,,,,,,,,,,,,,,,,,,,,,,,,,,,,,,,,,,,,,,,,,,,,,,,,,,,,,,,,,,,,,,,,,,,,,,,,,,,,,,,,,,,,,,,,,,,,,,,,,,,,,,,,,,,,,,,,,,,,,,,,,,,,,,,,,,,,,,,,,,,,,,,,,,,,,,,,,,,,,
0,6,6,64,1,,5f5286c9fe322954c5256681,62c539a225cc44bfddb0f10b,2022-07-06_09h28.45.815,Colour_Asymmetry_Pilot,2022.1.3,Win32,59.75143403,62c50e9c1127f2cd403a315f,,,,,,,,,,,,,,,,,,,,,,,,,,,,,,,,,,,,,,,,,,,,,,,,,,,,,,,,,,,,,,,,,,,,,,,,,,,,,,,,,,,,,,,,,,,,,,,,,,,,,,,,,,,,,,,,,,,,,,,,,,,,,,,,,,,,,,,,,,,,,,,,,,,,,,,,,,,,,,,,,,,
0,7,7,38,1,,5f5286c9fe322954c5256681,62c539a225cc44bfddb0f10b,2022-07-06_09h28.45.815,Colour_Asymmetry_Pilot,2022.1.3,Win32,59.75143403,62c50e9c1127f2cd403a315f,,,,,,,,,,,,,,,,,,,,,,,,,,,,,,,,,,,,,,,,,,,,,,,,,,,,,,,,,,,,,,,,,,,,,,,,,,,,,,,,,,,,,,,,,,,,,,,,,,,,,,,,,,,,,,,,,,,,,,,,,,,,,,,,,,,,,,,,,,,,,,,,,,,,,,,,,,,,,,,,,,,
0,8,8,61,1,,5f5286c9fe322954c5256681,62c539a225cc44bfddb0f10b,2022-07-06_09h28.45.815,Colour_Asymmetry_Pilot,2022.1.3,Win32,59.75143403,62c50e9c1127f2cd403a315f,,,,,,,,,,,,,,,,,,,,,,,,,,,,,,,,,,,,,,,,,,,,,,,,,,,,,,,,,,,,,,,,,,,,,,,,,,,,,,,,,,,,,,,,,,,,,,,,,,,,,,,,,,,,,,,,,,,,,,,,,,,,,,,,,,,,,,,,,,,,,,,,,,,,,,,,,,,,,,,,,,,
0,9,9,56,1,,5f5286c9fe322954c5256681,62c539a225cc44bfddb0f10b,2022-07-06_09h28.45.815,Colour_Asymmetry_Pilot,2022.1.3,Win32,59.75143403,62c50e9c1127f2cd403a315f,,,,,,,,,,,,,,,,,,,,,,,,,,,,,,,,,,,,,,,,,,,,,,,,,,,,,,,,,,,,,,,,,,,,,,,,,,,,,,,,,,,,,,,,,,,,,,,,,,,,,,,,,,,,,,,,,,,,,,,,,,,,,,,,,,,,,,,,,,,,,,,,,,,,,,,,,,,,,,,,,,,
0,10,10,37,1,,5f5286c9fe322954c5256681,62c539a225cc44bfddb0f10b,2022-07-06_09h28.45.815,Colour_Asymmetry_Pilot,2022.1.3,Win32,59.75143403,62c50e9c1127f2cd403a315f,,,,,,,,,,,,,,,,,,,,,,,,,,,,,,,,,,,,,,,,,,,,,,,,,,,,,,,,,,,,,,,,,,,,,,,,,,,,,,,,,,,,,,,,,,,,,,,,,,,,,,,,,,,,,,,,,,,,,,,,,,,,,,,,,,,,,,,,,,,,,,,,,,,,,,,,,,,,,,,,,,,
0,11,11,41,1,,5f5286c9fe322954c5256681,62c539a225cc44bfddb0f10b,2022-07-06_09h28.45.815,Colour_Asymmetry_Pilot,2022.1.3,Win32,59.75143403,62c50e9c1127f2cd403a315f,,,,,,,,,,,,,,,,,,,,,,,,,,,,,,,,,,,,,,,,,,,,,,,,,,,,,,,,,,,,,,,,,,,,,,,,,,,,,,,,,,,,,,,,,,,,,,,,,,,,,,,,,,,,,,,,,,,,,,,,,,,,,,,,,,,,,,,,,,,,,,,,,,,,,,,,,,,,,,,,,,,
0,12,12,4,1,,5f5286c9fe322954c5256681,62c539a225cc44bfddb0f10b,2022-07-06_09h28.45.815,Colour_Asymmetry_Pilot,2022.1.3,Win32,59.75143403,62c50e9c1127f2cd403a315f,,,,,,,,,,,,,,,,,,,,,,,,,,,,,,,,,,,,,,,,,,,,,,,,,,,,,,,,,,,,,,,,,,,,,,,,,,,,,,,,,,,,,,,,,,,,,,,,,,,,,,,,,,,,,,,,,,,,,,,,,,,,,,,,,,,,,,,,,,,,,,,,,,,,,,,,,,,,,,,,,,,
0,13,13,84,1,,5f5286c9fe322954c5256681,62c539a225cc44bfddb0f10b,2022-07-06_09h28.45.815,Colour_Asymmetry_Pilot,2022.1.3,Win32,59.75143403,62c50e9c1127f2cd403a315f,,,,,,,,,,,,,,,,,,,,,,,,,,,,,,,,,,,,,,,,,,,,,,,,,,,,,,,,,,,,,,,,,,,,,,,,,,,,,,,,,,,,,,,,,,,,,,,,,,,,,,,,,,,,,,,,,,,,,,,,,,,,,,,,,,,,,,,,,,,,,,,,,,,,,,,,,,,,,,,,,,,
0,14,14,75,1,,5f5286c9fe322954c5256681,62c539a225cc44bfddb0f10b,2022-07-06_09h28.45.815,Colour_Asymmetry_Pilot,2022.1.3,Win32,59.75143403,62c50e9c1127f2cd403a315f,,,,,,,,,,,,,,,,,,,,,,,,,,,,,,,,,,,,,,,,,,,,,,,,,,,,,,,,,,,,,,,,,,,,,,,,,,,,,,,,,,,,,,,,,,,,,,,,,,,,,,,,,,,,,,,,,,,,,,,,,,,,,,,,,,,,,,,,,,,,,,,,,,,,,,,,,,,,,,,,,,,
0,15,15,5,1,,5f5286c9fe322954c5256681,62c539a225cc44bfddb0f10b,2022-07-06_09h28.45.815,Colour_Asymmetry_Pilot,2022.1.3,Win32,59.75143403,62c50e9c1127f2cd403a315f,,,,,,,,,,,,,,,,,,,,,,,,,,,,,,,,,,,,,,,,,,,,,,,,,,,,,,,,,,,,,,,,,,,,,,,,,,,,,,,,,,,,,,,,,,,,,,,,,,,,,,,,,,,,,,,,,,,,,,,,,,,,,,,,,,,,,,,,,,,,,,,,,,,,,,,,,,,,,,,,,,,
0,16,16,36,1,,5f5286c9fe322954c5256681,62c539a225cc44bfddb0f10b,2022-07-06_09h28.45.815,Colour_Asymmetry_Pilot,2022.1.3,Win32,59.75143403,62c50e9c1127f2cd403a315f,,,,,,,,,,,,,,,,,,,,,,,,,,,,,,,,,,,,,,,,,,,,,,,,,,,,,,,,,,,,,,,,,,,,,,,,,,,,,,,,,,,,,,,,,,,,,,,,,,,,,,,,,,,,,,,,,,,,,,,,,,,,,,,,,,,,,,,,,,,,,,,,,,,,,,,,,,,,,,,,,,,
0,17,17,43,1,,5f5286c9fe322954c5256681,62c539a225cc44bfddb0f10b,2022-07-06_09h28.45.815,Colour_Asymmetry_Pilot,2022.1.3,Win32,59.75143403,62c50e9c1127f2cd403a315f,,,,,,,,,,,,,,,,,,,,,,,,,,,,,,,,,,,,,,,,,,,,,,,,,,,,,,,,,,,,,,,,,,,,,,,,,,,,,,,,,,,,,,,,,,,,,,,,,,,,,,,,,,,,,,,,,,,,,,,,,,,,,,,,,,,,,,,,,,,,,,,,,,,,,,,,,,,,,,,,,,,
0,18,18,1,1,,5f5286c9fe322954c5256681,62c539a225cc44bfddb0f10b,2022-07-06_09h28.45.815,Colour_Asymmetry_Pilot,2022.1.3,Win32,59.75143403,62c50e9c1127f2cd403a315f,,,,,,,,,,,,,,,,,,,,,,,,,,,,,,,,,,,,,,,,,,,,,,,,,,,,,,,,,,,,,,,,,,,,,,,,,,,,,,,,,,,,,,,,,,,,,,,,,,,,,,,,,,,,,,,,,,,,,,,,,,,,,,,,,,,,,,,,,,,,,,,,,,,,,,,,,,,,,,,,,,,
0,19,19,0,1,,5f5286c9fe322954c5256681,62c539a225cc44bfddb0f10b,2022-07-06_09h28.45.815,Colour_Asymmetry_Pilot,2022.1.3,Win32,59.75143403,62c50e9c1127f2cd403a315f,,,,,,,,,,,,,,,,,,,,,,,,,,,,,,,,,,,,,,,,,,,,,,,,,,,,,,,,,,,,,,,,,,,,,,,,,,,,,,,,,,,,,,,,,,,,,,,,,,,,,,,,,,,,,,,,,,,,,,,,,,,,,,,,,,,,,,,,,,,,,,,,,,,,,,,,,,,,,,,,,,,
0,20,20,28,1,,5f5286c9fe322954c5256681,62c539a225cc44bfddb0f10b,2022-07-06_09h28.45.815,Colour_Asymmetry_Pilot,2022.1.3,Win32,59.75143403,62c50e9c1127f2cd403a315f,,,,,,,,,,,,,,,,,,,,,,,,,,,,,,,,,,,,,,,,,,,,,,,,,,,,,,,,,,,,,,,,,,,,,,,,,,,,,,,,,,,,,,,,,,,,,,,,,,,,,,,,,,,,,,,,,,,,,,,,,,,,,,,,,,,,,,,,,,,,,,,,,,,,,,,,,,,,,,,,,,,
0,21,21,71,1,,5f5286c9fe322954c5256681,62c539a225cc44bfddb0f10b,2022-07-06_09h28.45.815,Colour_Asymmetry_Pilot,2022.1.3,Win32,59.75143403,62c50e9c1127f2cd403a315f,,,,,,,,,,,,,,,,,,,,,,,,,,,,,,,,,,,,,,,,,,,,,,,,,,,,,,,,,,,,,,,,,,,,,,,,,,,,,,,,,,,,,,,,,,,,,,,,,,,,,,,,,,,,,,,,,,,,,,,,,,,,,,,,,,,,,,,,,,,,,,,,,,,,,,,,,,,,,,,,,,,
0,22,22,78,1,,5f5286c9fe322954c5256681,62c539a225cc44bfddb0f10b,2022-07-06_09h28.45.815,Colour_Asymmetry_Pilot,2022.1.3,Win32,59.75143403,62c50e9c1127f2cd403a315f,,,,,,,,,,,,,,,,,,,,,,,,,,,,,,,,,,,,,,,,,,,,,,,,,,,,,,,,,,,,,,,,,,,,,,,,,,,,,,,,,,,,,,,,,,,,,,,,,,,,,,,,,,,,,,,,,,,,,,,,,,,,,,,,,,,,,,,,,,,,,,,,,,,,,,,,,,,,,,,,,,,
0,23,23,23,1,,5f5286c9fe322954c5256681,62c539a225cc44bfddb0f10b,2022-07-06_09h28.45.815,Colour_Asymmetry_Pilot,2022.1.3,Win32,59.75143403,62c50e9c1127f2cd403a315f,,,,,,,,,,,,,,,,,,,,,,,,,,,,,,,,,,,,,,,,,,,,,,,,,,,,,,,,,,,,,,,,,,,,,,,,,,,,,,,,,,,,,,,,,,,,,,,,,,,,,,,,,,,,,,,,,,,,,,,,,,,,,,,,,,,,,,,,,,,,,,,,,,,,,,,,,,,,,,,,,,,
0,24,24,24,1,,5f5286c9fe322954c5256681,62c539a225cc44bfddb0f10b,2022-07-06_09h28.45.815,Colour_Asymmetry_Pilot,2022.1.3,Win32,59.75143403,62c50e9c1127f2cd403a315f,,,,,,,,,,,,,,,,,,,,,,,,,,,,,,,,,,,,,,,,,,,,,,,,,,,,,,,,,,,,,,,,,,,,,,,,,,,,,,,,,,,,,,,,,,,,,,,,,,,,,,,,,,,,,,,,,,,,,,,,,,,,,,,,,,,,,,,,,,,,,,,,,,,,,,,,,,,,,,,,,,,
0,25,25,39,1,,5f5286c9fe322954c5256681,62c539a225cc44bfddb0f10b,2022-07-06_09h28.45.815,Colour_Asymmetry_Pilot,2022.1.3,Win32,59.75143403,62c50e9c1127f2cd403a315f,,,,,,,,,,,,,,,,,,,,,,,,,,,,,,,,,,,,,,,,,,,,,,,,,,,,,,,,,,,,,,,,,,,,,,,,,,,,,,,,,,,,,,,,,,,,,,,,,,,,,,,,,,,,,,,,,,,,,,,,,,,,,,,,,,,,,,,,,,,,,,,,,,,,,,,,,,,,,,,,,,,
0,26,26,32,1,,5f5286c9fe322954c5256681,62c539a225cc44bfddb0f10b,2022-07-06_09h28.45.815,Colour_Asymmetry_Pilot,2022.1.3,Win32,59.75143403,62c50e9c1127f2cd403a315f,,,,,,,,,,,,,,,,,,,,,,,,,,,,,,,,,,,,,,,,,,,,,,,,,,,,,,,,,,,,,,,,,,,,,,,,,,,,,,,,,,,,,,,,,,,,,,,,,,,,,,,,,,,,,,,,,,,,,,,,,,,,,,,,,,,,,,,,,,,,,,,,,,,,,,,,,,,,,,,,,,,
0,27,27,55,1,,5f5286c9fe322954c5256681,62c539a225cc44bfddb0f10b,2022-07-06_09h28.45.815,Colour_Asymmetry_Pilot,2022.1.3,Win32,59.75143403,62c50e9c1127f2cd403a315f,,,,,,,,,,,,,,,,,,,,,,,,,,,,,,,,,,,,,,,,,,,,,,,,,,,,,,,,,,,,,,,,,,,,,,,,,,,,,,,,,,,,,,,,,,,,,,,,,,,,,,,,,,,,,,,,,,,,,,,,,,,,,,,,,,,,,,,,,,,,,,,,,,,,,,,,,,,,,,,,,,,
0,28,28,73,1,,5f5286c9fe322954c5256681,62c539a225cc44bfddb0f10b,2022-07-06_09h28.45.815,Colour_Asymmetry_Pilot,2022.1.3,Win32,59.75143403,62c50e9c1127f2cd403a315f,,,,,,,,,,,,,,,,,,,,,,,,,,,,,,,,,,,,,,,,,,,,,,,,,,,,,,,,,,,,,,,,,,,,,,,,,,,,,,,,,,,,,,,,,,,,,,,,,,,,,,,,,,,,,,,,,,,,,,,,,,,,,,,,,,,,,,,,,,,,,,,,,,,,,,,,,,,,,,,,,,,
0,29,29,65,1,,5f5286c9fe322954c5256681,62c539a225cc44bfddb0f10b,2022-07-06_09h28.45.815,Colour_Asymmetry_Pilot,2022.1.3,Win32,59.75143403,62c50e9c1127f2cd403a315f,,,,,,,,,,,,,,,,,,,,,,,,,,,,,,,,,,,,,,,,,,,,,,,,,,,,,,,,,,,,,,,,,,,,,,,,,,,,,,,,,,,,,,,,,,,,,,,,,,,,,,,,,,,,,,,,,,,,,,,,,,,,,,,,,,,,,,,,,,,,,,,,,,,,,,,,,,,,,,,,,,,
0,30,30,83,1,,5f5286c9fe322954c5256681,62c539a225cc44bfddb0f10b,2022-07-06_09h28.45.815,Colour_Asymmetry_Pilot,2022.1.3,Win32,59.75143403,62c50e9c1127f2cd403a315f,,,,,,,,,,,,,,,,,,,,,,,,,,,,,,,,,,,,,,,,,,,,,,,,,,,,,,,,,,,,,,,,,,,,,,,,,,,,,,,,,,,,,,,,,,,,,,,,,,,,,,,,,,,,,,,,,,,,,,,,,,,,,,,,,,,,,,,,,,,,,,,,,,,,,,,,,,,,,,,,,,,
0,31,31,8,1,,5f5286c9fe322954c5256681,62c539a225cc44bfddb0f10b,2022-07-06_09h28.45.815,Colour_Asymmetry_Pilot,2022.1.3,Win32,59.75143403,62c50e9c1127f2cd403a315f,,,,,,,,,,,,,,,,,,,,,,,,,,,,,,,,,,,,,,,,,,,,,,,,,,,,,,,,,,,,,,,,,,,,,,,,,,,,,,,,,,,,,,,,,,,,,,,,,,,,,,,,,,,,,,,,,,,,,,,,,,,,,,,,,,,,,,,,,,,,,,,,,,,,,,,,,,,,,,,,,,,
0,32,32,13,1,,5f5286c9fe322954c5256681,62c539a225cc44bfddb0f10b,2022-07-06_09h28.45.815,Colour_Asymmetry_Pilot,2022.1.3,Win32,59.75143403,62c50e9c1127f2cd403a315f,,,,,,,,,,,,,,,,,,,,,,,,,,,,,,,,,,,,,,,,,,,,,,,,,,,,,,,,,,,,,,,,,,,,,,,,,,,,,,,,,,,,,,,,,,,,,,,,,,,,,,,,,,,,,,,,,,,,,,,,,,,,,,,,,,,,,,,,,,,,,,,,,,,,,,,,,,,,,,,,,,,
0,33,33,69,1,,5f5286c9fe322954c5256681,62c539a225cc44bfddb0f10b,2022-07-06_09h28.45.815,Colour_Asymmetry_Pilot,2022.1.3,Win32,59.75143403,62c50e9c1127f2cd403a315f,,,,,,,,,,,,,,,,,,,,,,,,,,,,,,,,,,,,,,,,,,,,,,,,,,,,,,,,,,,,,,,,,,,,,,,,,,,,,,,,,,,,,,,,,,,,,,,,,,,,,,,,,,,,,,,,,,,,,,,,,,,,,,,,,,,,,,,,,,,,,,,,,,,,,,,,,,,,,,,,,,,
0,34,34,52,1,,5f5286c9fe322954c5256681,62c539a225cc44bfddb0f10b,2022-07-06_09h28.45.815,Colour_Asymmetry_Pilot,2022.1.3,Win32,59.75143403,62c50e9c1127f2cd403a315f,,,,,,,,,,,,,,,,,,,,,,,,,,,,,,,,,,,,,,,,,,,,,,,,,,,,,,,,,,,,,,,,,,,,,,,,,,,,,,,,,,,,,,,,,,,,,,,,,,,,,,,,,,,,,,,,,,,,,,,,,,,,,,,,,,,,,,,,,,,,,,,,,,,,,,,,,,,,,,,,,,,
0,35,35,54,1,,5f5286c9fe322954c5256681,62c539a225cc44bfddb0f10b,2022-07-06_09h28.45.815,Colour_Asymmetry_Pilot,2022.1.3,Win32,59.75143403,62c50e9c1127f2cd403a315f,,,,,,,,,,,,,,,,,,,,,,,,,,,,,,,,,,,,,,,,,,,,,,,,,,,,,,,,,,,,,,,,,,,,,,,,,,,,,,,,,,,,,,,,,,,,,,,,,,,,,,,,,,,,,,,,,,,,,,,,,,,,,,,,,,,,,,,,,,,,,,,,,,,,,,,,,,,,,,,,,,,
0,36,36,18,1,,5f5286c9fe322954c5256681,62c539a225cc44bfddb0f10b,2022-07-06_09h28.45.815,Colour_Asymmetry_Pilot,2022.1.3,Win32,59.75143403,62c50e9c1127f2cd403a315f,,,,,,,,,,,,,,,,,,,,,,,,,,,,,,,,,,,,,,,,,,,,,,,,,,,,,,,,,,,,,,,,,,,,,,,,,,,,,,,,,,,,,,,,,,,,,,,,,,,,,,,,,,,,,,,,,,,,,,,,,,,,,,,,,,,,,,,,,,,,,,,,,,,,,,,,,,,,,,,,,,,
0,37,37,60,1,,5f5286c9fe322954c5256681,62c539a225cc44bfddb0f10b,2022-07-06_09h28.45.815,Colour_Asymmetry_Pilot,2022.1.3,Win32,59.75143403,62c50e9c1127f2cd403a315f,,,,,,,,,,,,,,,,,,,,,,,,,,,,,,,,,,,,,,,,,,,,,,,,,,,,,,,,,,,,,,,,,,,,,,,,,,,,,,,,,,,,,,,,,,,,,,,,,,,,,,,,,,,,,,,,,,,,,,,,,,,,,,,,,,,,,,,,,,,,,,,,,,,,,,,,,,,,,,,,,,,
0,38,38,29,1,,5f5286c9fe322954c5256681,62c539a225cc44bfddb0f10b,2022-07-06_09h28.45.815,Colour_Asymmetry_Pilot,2022.1.3,Win32,59.75143403,62c50e9c1127f2cd403a315f,,,,,,,,,,,,,,,,,,,,,,,,,,,,,,,,,,,,,,,,,,,,,,,,,,,,,,,,,,,,,,,,,,,,,,,,,,,,,,,,,,,,,,,,,,,,,,,,,,,,,,,,,,,,,,,,,,,,,,,,,,,,,,,,,,,,,,,,,,,,,,,,,,,,,,,,,,,,,,,,,,,
0,39,39,21,1,,5f5286c9fe322954c5256681,62c539a225cc44bfddb0f10b,2022-07-06_09h28.45.815,Colour_Asymmetry_Pilot,2022.1.3,Win32,59.75143403,62c50e9c1127f2cd403a315f,,,,,,,,,,,,,,,,,,,,,,,,,,,,,,,,,,,,,,,,,,,,,,,,,,,,,,,,,,,,,,,,,,,,,,,,,,,,,,,,,,,,,,,,,,,,,,,,,,,,,,,,,,,,,,,,,,,,,,,,,,,,,,,,,,,,,,,,,,,,,,,,,,,,,,,,,,,,,,,,,,,
0,40,40,34,1,,5f5286c9fe322954c5256681,62c539a225cc44bfddb0f10b,2022-07-06_09h28.45.815,Colour_Asymmetry_Pilot,2022.1.3,Win32,59.75143403,62c50e9c1127f2cd403a315f,,,,,,,,,,,,,,,,,,,,,,,,,,,,,,,,,,,,,,,,,,,,,,,,,,,,,,,,,,,,,,,,,,,,,,,,,,,,,,,,,,,,,,,,,,,,,,,,,,,,,,,,,,,,,,,,,,,,,,,,,,,,,,,,,,,,,,,,,,,,,,,,,,,,,,,,,,,,,,,,,,,
0,41,41,9,1,,5f5286c9fe322954c5256681,62c539a225cc44bfddb0f10b,2022-07-06_09h28.45.815,Colour_Asymmetry_Pilot,2022.1.3,Win32,59.75143403,62c50e9c1127f2cd403a315f,,,,,,,,,,,,,,,,,,,,,,,,,,,,,,,,,,,,,,,,,,,,,,,,,,,,,,,,,,,,,,,,,,,,,,,,,,,,,,,,,,,,,,,,,,,,,,,,,,,,,,,,,,,,,,,,,,,,,,,,,,,,,,,,,,,,,,,,,,,,,,,,,,,,,,,,,,,,,,,,,,,
0,42,42,57,1,,5f5286c9fe322954c5256681,62c539a225cc44bfddb0f10b,2022-07-06_09h28.45.815,Colour_Asymmetry_Pilot,2022.1.3,Win32,59.75143403,62c50e9c1127f2cd403a315f,,,,,,,,,,,,,,,,,,,,,,,,,,,,,,,,,,,,,,,,,,,,,,,,,,,,,,,,,,,,,,,,,,,,,,,,,,,,,,,,,,,,,,,,,,,,,,,,,,,,,,,,,,,,,,,,,,,,,,,,,,,,,,,,,,,,,,,,,,,,,,,,,,,,,,,,,,,,,,,,,,,
0,43,43,30,1,,5f5286c9fe322954c5256681,62c539a225cc44bfddb0f10b,2022-07-06_09h28.45.815,Colour_Asymmetry_Pilot,2022.1.3,Win32,59.75143403,62c50e9c1127f2cd403a315f,,,,,,,,,,,,,,,,,,,,,,,,,,,,,,,,,,,,,,,,,,,,,,,,,,,,,,,,,,,,,,,,,,,,,,,,,,,,,,,,,,,,,,,,,,,,,,,,,,,,,,,,,,,,,,,,,,,,,,,,,,,,,,,,,,,,,,,,,,,,,,,,,,,,,,,,,,,,,,,,,,,
0,44,44,10,1,,5f5286c9fe322954c5256681,62c539a225cc44bfddb0f10b,2022-07-06_09h28.45.815,Colour_Asymmetry_Pilot,2022.1.3,Win32,59.75143403,62c50e9c1127f2cd403a315f,,,,,,,,,,,,,,,,,,,,,,,,,,,,,,,,,,,,,,,,,,,,,,,,,,,,,,,,,,,,,,,,,,,,,,,,,,,,,,,,,,,,,,,,,,,,,,,,,,,,,,,,,,,,,,,,,,,,,,,,,,,,,,,,,,,,,,,,,,,,,,,,,,,,,,,,,,,,,,,,,,,
0,45,45,90,1,,5f5286c9fe322954c5256681,62c539a225cc44bfddb0f10b,2022-07-06_09h28.45.815,Colour_Asymmetry_Pilot,2022.1.3,Win32,59.75143403,62c50e9c1127f2cd403a315f,,,,,,,,,,,,,,,,,,,,,,,,,,,,,,,,,,,,,,,,,,,,,,,,,,,,,,,,,,,,,,,,,,,,,,,,,,,,,,,,,,,,,,,,,,,,,,,,,,,,,,,,,,,,,,,,,,,,,,,,,,,,,,,,,,,,,,,,,,,,,,,,,,,,,,,,,,,,,,,,,,,
0,46,46,25,1,,5f5286c9fe322954c5256681,62c539a225cc44bfddb0f10b,2022-07-06_09h28.45.815,Colour_Asymmetry_Pilot,2022.1.3,Win32,59.75143403,62c50e9c1127f2cd403a315f,,,,,,,,,,,,,,,,,,,,,,,,,,,,,,,,,,,,,,,,,,,,,,,,,,,,,,,,,,,,,,,,,,,,,,,,,,,,,,,,,,,,,,,,,,,,,,,,,,,,,,,,,,,,,,,,,,,,,,,,,,,,,,,,,,,,,,,,,,,,,,,,,,,,,,,,,,,,,,,,,,,
0,47,47,63,1,,5f5286c9fe322954c5256681,62c539a225cc44bfddb0f10b,2022-07-06_09h28.45.815,Colour_Asymmetry_Pilot,2022.1.3,Win32,59.75143403,62c50e9c1127f2cd403a315f,,,,,,,,,,,,,,,,,,,,,,,,,,,,,,,,,,,,,,,,,,,,,,,,,,,,,,,,,,,,,,,,,,,,,,,,,,,,,,,,,,,,,,,,,,,,,,,,,,,,,,,,,,,,,,,,,,,,,,,,,,,,,,,,,,,,,,,,,,,,,,,,,,,,,,,,,,,,,,,,,,,
0,48,48,26,1,,5f5286c9fe322954c5256681,62c539a225cc44bfddb0f10b,2022-07-06_09h28.45.815,Colour_Asymmetry_Pilot,2022.1.3,Win32,59.75143403,62c50e9c1127f2cd403a315f,,,,,,,,,,,,,,,,,,,,,,,,,,,,,,,,,,,,,,,,,,,,,,,,,,,,,,,,,,,,,,,,,,,,,,,,,,,,,,,,,,,,,,,,,,,,,,,,,,,,,,,,,,,,,,,,,,,,,,,,,,,,,,,,,,,,,,,,,,,,,,,,,,,,,,,,,,,,,,,,,,,
0,49,49,76,1,,5f5286c9fe322954c5256681,62c539a225cc44bfddb0f10b,2022-07-06_09h28.45.815,Colour_Asymmetry_Pilot,2022.1.3,Win32,59.75143403,62c50e9c1127f2cd403a315f,,,,,,,,,,,,,,,,,,,,,,,,,,,,,,,,,,,,,,,,,,,,,,,,,,,,,,,,,,,,,,,,,,,,,,,,,,,,,,,,,,,,,,,,,,,,,,,,,,,,,,,,,,,,,,,,,,,,,,,,,,,,,,,,,,,,,,,,,,,,,,,,,,,,,,,,,,,,,,,,,,,
0,50,50,16,1,,5f5286c9fe322954c5256681,62c539a225cc44bfddb0f10b,2022-07-06_09h28.45.815,Colour_Asymmetry_Pilot,2022.1.3,Win32,59.75143403,62c50e9c1127f2cd403a315f,,,,,,,,,,,,,,,,,,,,,,,,,,,,,,,,,,,,,,,,,,,,,,,,,,,,,,,,,,,,,,,,,,,,,,,,,,,,,,,,,,,,,,,,,,,,,,,,,,,,,,,,,,,,,,,,,,,,,,,,,,,,,,,,,,,,,,,,,,,,,,,,,,,,,,,,,,,,,,,,,,,
0,51,51,70,1,,5f5286c9fe322954c5256681,62c539a225cc44bfddb0f10b,2022-07-06_09h28.45.815,Colour_Asymmetry_Pilot,2022.1.3,Win32,59.75143403,62c50e9c1127f2cd403a315f,,,,,,,,,,,,,,,,,,,,,,,,,,,,,,,,,,,,,,,,,,,,,,,,,,,,,,,,,,,,,,,,,,,,,,,,,,,,,,,,,,,,,,,,,,,,,,,,,,,,,,,,,,,,,,,,,,,,,,,,,,,,,,,,,,,,,,,,,,,,,,,,,,,,,,,,,,,,,,,,,,,
0,52,52,58,1,,5f5286c9fe322954c5256681,62c539a225cc44bfddb0f10b,2022-07-06_09h28.45.815,Colour_Asymmetry_Pilot,2022.1.3,Win32,59.75143403,62c50e9c1127f2cd403a315f,,,,,,,,,,,,,,,,,,,,,,,,,,,,,,,,,,,,,,,,,,,,,,,,,,,,,,,,,,,,,,,,,,,,,,,,,,,,,,,,,,,,,,,,,,,,,,,,,,,,,,,,,,,,,,,,,,,,,,,,,,,,,,,,,,,,,,,,,,,,,,,,,,,,,,,,,,,,,,,,,,,
0,53,53,91,1,,5f5286c9fe322954c5256681,62c539a225cc44bfddb0f10b,2022-07-06_09h28.45.815,Colour_Asymmetry_Pilot,2022.1.3,Win32,59.75143403,62c50e9c1127f2cd403a315f,,,,,,,,,,,,,,,,,,,,,,,,,,,,,,,,,,,,,,,,,,,,,,,,,,,,,,,,,,,,,,,,,,,,,,,,,,,,,,,,,,,,,,,,,,,,,,,,,,,,,,,,,,,,,,,,,,,,,,,,,,,,,,,,,,,,,,,,,,,,,,,,,,,,,,,,,,,,,,,,,,,
0,54,54,51,1,,5f5286c9fe322954c5256681,62c539a225cc44bfddb0f10b,2022-07-06_09h28.45.815,Colour_Asymmetry_Pilot,2022.1.3,Win32,59.75143403,62c50e9c1127f2cd403a315f,,,,,,,,,,,,,,,,,,,,,,,,,,,,,,,,,,,,,,,,,,,,,,,,,,,,,,,,,,,,,,,,,,,,,,,,,,,,,,,,,,,,,,,,,,,,,,,,,,,,,,,,,,,,,,,,,,,,,,,,,,,,,,,,,,,,,,,,,,,,,,,,,,,,,,,,,,,,,,,,,,,
0,55,55,86,1,,5f5286c9fe322954c5256681,62c539a225cc44bfddb0f10b,2022-07-06_09h28.45.815,Colour_Asymmetry_Pilot,2022.1.3,Win32,59.75143403,62c50e9c1127f2cd403a315f,,,,,,,,,,,,,,,,,,,,,,,,,,,,,,,,,,,,,,,,,,,,,,,,,,,,,,,,,,,,,,,,,,,,,,,,,,,,,,,,,,,,,,,,,,,,,,,,,,,,,,,,,,,,,,,,,,,,,,,,,,,,,,,,,,,,,,,,,,,,,,,,,,,,,,,,,,,,,,,,,,,
0,56,56,59,1,,5f5286c9fe322954c5256681,62c539a225cc44bfddb0f10b,2022-07-06_09h28.45.815,Colour_Asymmetry_Pilot,2022.1.3,Win32,59.75143403,62c50e9c1127f2cd403a315f,,,,,,,,,,,,,,,,,,,,,,,,,,,,,,,,,,,,,,,,,,,,,,,,,,,,,,,,,,,,,,,,,,,,,,,,,,,,,,,,,,,,,,,,,,,,,,,,,,,,,,,,,,,,,,,,,,,,,,,,,,,,,,,,,,,,,,,,,,,,,,,,,,,,,,,,,,,,,,,,,,,
0,57,57,47,1,,5f5286c9fe322954c5256681,62c539a225cc44bfddb0f10b,2022-07-06_09h28.45.815,Colour_Asymmetry_Pilot,2022.1.3,Win32,59.75143403,62c50e9c1127f2cd403a315f,,,,,,,,,,,,,,,,,,,,,,,,,,,,,,,,,,,,,,,,,,,,,,,,,,,,,,,,,,,,,,,,,,,,,,,,,,,,,,,,,,,,,,,,,,,,,,,,,,,,,,,,,,,,,,,,,,,,,,,,,,,,,,,,,,,,,,,,,,,,,,,,,,,,,,,,,,,,,,,,,,,
0,58,58,22,1,,5f5286c9fe322954c5256681,62c539a225cc44bfddb0f10b,2022-07-06_09h28.45.815,Colour_Asymmetry_Pilot,2022.1.3,Win32,59.75143403,62c50e9c1127f2cd403a315f,,,,,,,,,,,,,,,,,,,,,,,,,,,,,,,,,,,,,,,,,,,,,,,,,,,,,,,,,,,,,,,,,,,,,,,,,,,,,,,,,,,,,,,,,,,,,,,,,,,,,,,,,,,,,,,,,,,,,,,,,,,,,,,,,,,,,,,,,,,,,,,,,,,,,,,,,,,,,,,,,,,
0,59,59,27,1,,5f5286c9fe322954c5256681,62c539a225cc44bfddb0f10b,2022-07-06_09h28.45.815,Colour_Asymmetry_Pilot,2022.1.3,Win32,59.75143403,62c50e9c1127f2cd403a315f,,,,,,,,,,,,,,,,,,,,,,,,,,,,,,,,,,,,,,,,,,,,,,,,,,,,,,,,,,,,,,,,,,,,,,,,,,,,,,,,,,,,,,,,,,,,,,,,,,,,,,,,,,,,,,,,,,,,,,,,,,,,,,,,,,,,,,,,,,,,,,,,,,,,,,,,,,,,,,,,,,,
0,60,60,40,1,,5f5286c9fe322954c5256681,62c539a225cc44bfddb0f10b,2022-07-06_09h28.45.815,Colour_Asymmetry_Pilot,2022.1.3,Win32,59.75143403,62c50e9c1127f2cd403a315f,,,,,,,,,,,,,,,,,,,,,,,,,,,,,,,,,,,,,,,,,,,,,,,,,,,,,,,,,,,,,,,,,,,,,,,,,,,,,,,,,,,,,,,,,,,,,,,,,,,,,,,,,,,,,,,,,,,,,,,,,,,,,,,,,,,,,,,,,,,,,,,,,,,,,,,,,,,,,,,,,,,
0,61,61,48,1,,5f5286c9fe322954c5256681,62c539a225cc44bfddb0f10b,2022-07-06_09h28.45.815,Colour_Asymmetry_Pilot,2022.1.3,Win32,59.75143403,62c50e9c1127f2cd403a315f,,,,,,,,,,,,,,,,,,,,,,,,,,,,,,,,,,,,,,,,,,,,,,,,,,,,,,,,,,,,,,,,,,,,,,,,,,,,,,,,,,,,,,,,,,,,,,,,,,,,,,,,,,,,,,,,,,,,,,,,,,,,,,,,,,,,,,,,,,,,,,,,,,,,,,,,,,,,,,,,,,,
0,62,62,67,1,,5f5286c9fe322954c5256681,62c539a225cc44bfddb0f10b,2022-07-06_09h28.45.815,Colour_Asymmetry_Pilot,2022.1.3,Win32,59.75143403,62c50e9c1127f2cd403a315f,,,,,,,,,,,,,,,,,,,,,,,,,,,,,,,,,,,,,,,,,,,,,,,,,,,,,,,,,,,,,,,,,,,,,,,,,,,,,,,,,,,,,,,,,,,,,,,,,,,,,,,,,,,,,,,,,,,,,,,,,,,,,,,,,,,,,,,,,,,,,,,,,,,,,,,,,,,,,,,,,,,
0,63,63,15,1,,5f5286c9fe322954c5256681,62c539a225cc44bfddb0f10b,2022-07-06_09h28.45.815,Colour_Asymmetry_Pilot,2022.1.3,Win32,59.75143403,62c50e9c1127f2cd403a315f,,,,,,,,,,,,,,,,,,,,,,,,,,,,,,,,,,,,,,,,,,,,,,,,,,,,,,,,,,,,,,,,,,,,,,,,,,,,,,,,,,,,,,,,,,,,,,,,,,,,,,,,,,,,,,,,,,,,,,,,,,,,,,,,,,,,,,,,,,,,,,,,,,,,,,,,,,,,,,,,,,,
0,64,64,85,1,,5f5286c9fe322954c5256681,62c539a225cc44bfddb0f10b,2022-07-06_09h28.45.815,Colour_Asymmetry_Pilot,2022.1.3,Win32,59.75143403,62c50e9c1127f2cd403a315f,,,,,,,,,,,,,,,,,,,,,,,,,,,,,,,,,,,,,,,,,,,,,,,,,,,,,,,,,,,,,,,,,,,,,,,,,,,,,,,,,,,,,,,,,,,,,,,,,,,,,,,,,,,,,,,,,,,,,,,,,,,,,,,,,,,,,,,,,,,,,,,,,,,,,,,,,,,,,,,,,,,
0,65,65,17,1,,5f5286c9fe322954c5256681,62c539a225cc44bfddb0f10b,2022-07-06_09h28.45.815,Colour_Asymmetry_Pilot,2022.1.3,Win32,59.75143403,62c50e9c1127f2cd403a315f,,,,,,,,,,,,,,,,,,,,,,,,,,,,,,,,,,,,,,,,,,,,,,,,,,,,,,,,,,,,,,,,,,,,,,,,,,,,,,,,,,,,,,,,,,,,,,,,,,,,,,,,,,,,,,,,,,,,,,,,,,,,,,,,,,,,,,,,,,,,,,,,,,,,,,,,,,,,,,,,,,,
0,66,66,62,1,,5f5286c9fe322954c5256681,62c539a225cc44bfddb0f10b,2022-07-06_09h28.45.815,Colour_Asymmetry_Pilot,2022.1.3,Win32,59.75143403,62c50e9c1127f2cd403a315f,,,,,,,,,,,,,,,,,,,,,,,,,,,,,,,,,,,,,,,,,,,,,,,,,,,,,,,,,,,,,,,,,,,,,,,,,,,,,,,,,,,,,,,,,,,,,,,,,,,,,,,,,,,,,,,,,,,,,,,,,,,,,,,,,,,,,,,,,,,,,,,,,,,,,,,,,,,,,,,,,,,
0,67,67,49,1,,5f5286c9fe322954c5256681,62c539a225cc44bfddb0f10b,2022-07-06_09h28.45.815,Colour_Asymmetry_Pilot,2022.1.3,Win32,59.75143403,62c50e9c1127f2cd403a315f,,,,,,,,,,,,,,,,,,,,,,,,,,,,,,,,,,,,,,,,,,,,,,,,,,,,,,,,,,,,,,,,,,,,,,,,,,,,,,,,,,,,,,,,,,,,,,,,,,,,,,,,,,,,,,,,,,,,,,,,,,,,,,,,,,,,,,,,,,,,,,,,,,,,,,,,,,,,,,,,,,,
0,68,68,74,1,,5f5286c9fe322954c5256681,62c539a225cc44bfddb0f10b,2022-07-06_09h28.45.815,Colour_Asymmetry_Pilot,2022.1.3,Win32,59.75143403,62c50e9c1127f2cd403a315f,,,,,,,,,,,,,,,,,,,,,,,,,,,,,,,,,,,,,,,,,,,,,,,,,,,,,,,,,,,,,,,,,,,,,,,,,,,,,,,,,,,,,,,,,,,,,,,,,,,,,,,,,,,,,,,,,,,,,,,,,,,,,,,,,,,,,,,,,,,,,,,,,,,,,,,,,,,,,,,,,,,
0,69,69,68,1,,5f5286c9fe322954c5256681,62c539a225cc44bfddb0f10b,2022-07-06_09h28.45.815,Colour_Asymmetry_Pilot,2022.1.3,Win32,59.75143403,62c50e9c1127f2cd403a315f,,,,,,,,,,,,,,,,,,,,,,,,,,,,,,,,,,,,,,,,,,,,,,,,,,,,,,,,,,,,,,,,,,,,,,,,,,,,,,,,,,,,,,,,,,,,,,,,,,,,,,,,,,,,,,,,,,,,,,,,,,,,,,,,,,,,,,,,,,,,,,,,,,,,,,,,,,,,,,,,,,,
0,70,70,50,1,,5f5286c9fe322954c5256681,62c539a225cc44bfddb0f10b,2022-07-06_09h28.45.815,Colour_Asymmetry_Pilot,2022.1.3,Win32,59.75143403,62c50e9c1127f2cd403a315f,,,,,,,,,,,,,,,,,,,,,,,,,,,,,,,,,,,,,,,,,,,,,,,,,,,,,,,,,,,,,,,,,,,,,,,,,,,,,,,,,,,,,,,,,,,,,,,,,,,,,,,,,,,,,,,,,,,,,,,,,,,,,,,,,,,,,,,,,,,,,,,,,,,,,,,,,,,,,,,,,,,
0,71,71,82,1,,5f5286c9fe322954c5256681,62c539a225cc44bfddb0f10b,2022-07-06_09h28.45.815,Colour_Asymmetry_Pilot,2022.1.3,Win32,59.75143403,62c50e9c1127f2cd403a315f,,,,,,,,,,,,,,,,,,,,,,,,,,,,,,,,,,,,,,,,,,,,,,,,,,,,,,,,,,,,,,,,,,,,,,,,,,,,,,,,,,,,,,,,,,,,,,,,,,,,,,,,,,,,,,,,,,,,,,,,,,,,,,,,,,,,,,,,,,,,,,,,,,,,,,,,,,,,,,,,,,,
0,72,72,80,1,,5f5286c9fe322954c5256681,62c539a225cc44bfddb0f10b,2022-07-06_09h28.45.815,Colour_Asymmetry_Pilot,2022.1.3,Win32,59.75143403,62c50e9c1127f2cd403a315f,,,,,,,,,,,,,,,,,,,,,,,,,,,,,,,,,,,,,,,,,,,,,,,,,,,,,,,,,,,,,,,,,,,,,,,,,,,,,,,,,,,,,,,,,,,,,,,,,,,,,,,,,,,,,,,,,,,,,,,,,,,,,,,,,,,,,,,,,,,,,,,,,,,,,,,,,,,,,,,,,,,
0,73,73,44,1,,5f5286c9fe322954c5256681,62c539a225cc44bfddb0f10b,2022-07-06_09h28.45.815,Colour_Asymmetry_Pilot,2022.1.3,Win32,59.75143403,62c50e9c1127f2cd403a315f,,,,,,,,,,,,,,,,,,,,,,,,,,,,,,,,,,,,,,,,,,,,,,,,,,,,,,,,,,,,,,,,,,,,,,,,,,,,,,,,,,,,,,,,,,,,,,,,,,,,,,,,,,,,,,,,,,,,,,,,,,,,,,,,,,,,,,,,,,,,,,,,,,,,,,,,,,,,,,,,,,,
0,74,74,46,1,,5f5286c9fe322954c5256681,62c539a225cc44bfddb0f10b,2022-07-06_09h28.45.815,Colour_Asymmetry_Pilot,2022.1.3,Win32,59.75143403,62c50e9c1127f2cd403a315f,,,,,,,,,,,,,,,,,,,,,,,,,,,,,,,,,,,,,,,,,,,,,,,,,,,,,,,,,,,,,,,,,,,,,,,,,,,,,,,,,,,,,,,,,,,,,,,,,,,,,,,,,,,,,,,,,,,,,,,,,,,,,,,,,,,,,,,,,,,,,,,,,,,,,,,,,,,,,,,,,,,
0,75,75,92,1,,5f5286c9fe322954c5256681,62c539a225cc44bfddb0f10b,2022-07-06_09h28.45.815,Colour_Asymmetry_Pilot,2022.1.3,Win32,59.75143403,62c50e9c1127f2cd403a315f,,,,,,,,,,,,,,,,,,,,,,,,,,,,,,,,,,,,,,,,,,,,,,,,,,,,,,,,,,,,,,,,,,,,,,,,,,,,,,,,,,,,,,,,,,,,,,,,,,,,,,,,,,,,,,,,,,,,,,,,,,,,,,,,,,,,,,,,,,,,,,,,,,,,,,,,,,,,,,,,,,,
0,76,76,11,1,,5f5286c9fe322954c5256681,62c539a225cc44bfddb0f10b,2022-07-06_09h28.45.815,Colour_Asymmetry_Pilot,2022.1.3,Win32,59.75143403,62c50e9c1127f2cd403a315f,,,,,,,,,,,,,,,,,,,,,,,,,,,,,,,,,,,,,,,,,,,,,,,,,,,,,,,,,,,,,,,,,,,,,,,,,,,,,,,,,,,,,,,,,,,,,,,,,,,,,,,,,,,,,,,,,,,,,,,,,,,,,,,,,,,,,,,,,,,,,,,,,,,,,,,,,,,,,,,,,,,
0,77,77,66,1,,5f5286c9fe322954c5256681,62c539a225cc44bfddb0f10b,2022-07-06_09h28.45.815,Colour_Asymmetry_Pilot,2022.1.3,Win32,59.75143403,62c50e9c1127f2cd403a315f,,,,,,,,,,,,,,,,,,,,,,,,,,,,,,,,,,,,,,,,,,,,,,,,,,,,,,,,,,,,,,,,,,,,,,,,,,,,,,,,,,,,,,,,,,,,,,,,,,,,,,,,,,,,,,,,,,,,,,,,,,,,,,,,,,,,,,,,,,,,,,,,,,,,,,,,,,,,,,,,,,,
0,78,78,19,1,,5f5286c9fe322954c5256681,62c539a225cc44bfddb0f10b,2022-07-06_09h28.45.815,Colour_Asymmetry_Pilot,2022.1.3,Win32,59.75143403,62c50e9c1127f2cd403a315f,,,,,,,,,,,,,,,,,,,,,,,,,,,,,,,,,,,,,,,,,,,,,,,,,,,,,,,,,,,,,,,,,,,,,,,,,,,,,,,,,,,,,,,,,,,,,,,,,,,,,,,,,,,,,,,,,,,,,,,,,,,,,,,,,,,,,,,,,,,,,,,,,,,,,,,,,,,,,,,,,,,
0,79,79,31,1,,5f5286c9fe322954c5256681,62c539a225cc44bfddb0f10b,2022-07-06_09h28.45.815,Colour_Asymmetry_Pilot,2022.1.3,Win32,59.75143403,62c50e9c1127f2cd403a315f,,,,,,,,,,,,,,,,,,,,,,,,,,,,,,,,,,,,,,,,,,,,,,,,,,,,,,,,,,,,,,,,,,,,,,,,,,,,,,,,,,,,,,,,,,,,,,,,,,,,,,,,,,,,,,,,,,,,,,,,,,,,,,,,,,,,,,,,,,,,,,,,,,,,,,,,,,,,,,,,,,,
0,80,80,45,1,,5f5286c9fe322954c5256681,62c539a225cc44bfddb0f10b,2022-07-06_09h28.45.815,Colour_Asymmetry_Pilot,2022.1.3,Win32,59.75143403,62c50e9c1127f2cd403a315f,,,,,,,,,,,,,,,,,,,,,,,,,,,,,,,,,,,,,,,,,,,,,,,,,,,,,,,,,,,,,,,,,,,,,,,,,,,,,,,,,,,,,,,,,,,,,,,,,,,,,,,,,,,,,,,,,,,,,,,,,,,,,,,,,,,,,,,,,,,,,,,,,,,,,,,,,,,,,,,,,,,
0,81,81,7,1,,5f5286c9fe322954c5256681,62c539a225cc44bfddb0f10b,2022-07-06_09h28.45.815,Colour_Asymmetry_Pilot,2022.1.3,Win32,59.75143403,62c50e9c1127f2cd403a315f,,,,,,,,,,,,,,,,,,,,,,,,,,,,,,,,,,,,,,,,,,,,,,,,,,,,,,,,,,,,,,,,,,,,,,,,,,,,,,,,,,,,,,,,,,,,,,,,,,,,,,,,,,,,,,,,,,,,,,,,,,,,,,,,,,,,,,,,,,,,,,,,,,,,,,,,,,,,,,,,,,,
0,82,82,3,1,,5f5286c9fe322954c5256681,62c539a225cc44bfddb0f10b,2022-07-06_09h28.45.815,Colour_Asymmetry_Pilot,2022.1.3,Win32,59.75143403,62c50e9c1127f2cd403a315f,,,,,,,,,,,,,,,,,,,,,,,,,,,,,,,,,,,,,,,,,,,,,,,,,,,,,,,,,,,,,,,,,,,,,,,,,,,,,,,,,,,,,,,,,,,,,,,,,,,,,,,,,,,,,,,,,,,,,,,,,,,,,,,,,,,,,,,,,,,,,,,,,,,,,,,,,,,,,,,,,,,
0,83,83,2,1,,5f5286c9fe322954c5256681,62c539a225cc44bfddb0f10b,2022-07-06_09h28.45.815,Colour_Asymmetry_Pilot,2022.1.3,Win32,59.75143403,62c50e9c1127f2cd403a315f,,,,,,,,,,,,,,,,,,,,,,,,,,,,,,,,,,,,,,,,,,,,,,,,,,,,,,,,,,,,,,,,,,,,,,,,,,,,,,,,,,,,,,,,,,,,,,,,,,,,,,,,,,,,,,,,,,,,,,,,,,,,,,,,,,,,,,,,,,,,,,,,,,,,,,,,,,,,,,,,,,,
0,84,84,81,1,,5f5286c9fe322954c5256681,62c539a225cc44bfddb0f10b,2022-07-06_09h28.45.815,Colour_Asymmetry_Pilot,2022.1.3,Win32,59.75143403,62c50e9c1127f2cd403a315f,,,,,,,,,,,,,,,,,,,,,,,,,,,,,,,,,,,,,,,,,,,,,,,,,,,,,,,,,,,,,,,,,,,,,,,,,,,,,,,,,,,,,,,,,,,,,,,,,,,,,,,,,,,,,,,,,,,,,,,,,,,,,,,,,,,,,,,,,,,,,,,,,,,,,,,,,,,,,,,,,,,
0,85,85,53,1,,5f5286c9fe322954c5256681,62c539a225cc44bfddb0f10b,2022-07-06_09h28.45.815,Colour_Asymmetry_Pilot,2022.1.3,Win32,59.75143403,62c50e9c1127f2cd403a315f,,,,,,,,,,,,,,,,,,,,,,,,,,,,,,,,,,,,,,,,,,,,,,,,,,,,,,,,,,,,,,,,,,,,,,,,,,,,,,,,,,,,,,,,,,,,,,,,,,,,,,,,,,,,,,,,,,,,,,,,,,,,,,,,,,,,,,,,,,,,,,,,,,,,,,,,,,,,,,,,,,,
0,86,86,20,1,,5f5286c9fe322954c5256681,62c539a225cc44bfddb0f10b,2022-07-06_09h28.45.815,Colour_Asymmetry_Pilot,2022.1.3,Win32,59.75143403,62c50e9c1127f2cd403a315f,,,,,,,,,,,,,,,,,,,,,,,,,,,,,,,,,,,,,,,,,,,,,,,,,,,,,,,,,,,,,,,,,,,,,,,,,,,,,,,,,,,,,,,,,,,,,,,,,,,,,,,,,,,,,,,,,,,,,,,,,,,,,,,,,,,,,,,,,,,,,,,,,,,,,,,,,,,,,,,,,,,
0,87,87,12,1,,5f5286c9fe322954c5256681,62c539a225cc44bfddb0f10b,2022-07-06_09h28.45.815,Colour_Asymmetry_Pilot,2022.1.3,Win32,59.75143403,62c50e9c1127f2cd403a315f,,,,,,,,,,,,,,,,,,,,,,,,,,,,,,,,,,,,,,,,,,,,,,,,,,,,,,,,,,,,,,,,,,,,,,,,,,,,,,,,,,,,,,,,,,,,,,,,,,,,,,,,,,,,,,,,,,,,,,,,,,,,,,,,,,,,,,,,,,,,,,,,,,,,,,,,,,,,,,,,,,,
0,88,88,77,1,,5f5286c9fe322954c5256681,62c539a225cc44bfddb0f10b,2022-07-06_09h28.45.815,Colour_Asymmetry_Pilot,2022.1.3,Win32,59.75143403,62c50e9c1127f2cd403a315f,,,,,,,,,,,,,,,,,,,,,,,,,,,,,,,,,,,,,,,,,,,,,,,,,,,,,,,,,,,,,,,,,,,,,,,,,,,,,,,,,,,,,,,,,,,,,,,,,,,,,,,,,,,,,,,,,,,,,,,,,,,,,,,,,,,,,,,,,,,,,,,,,,,,,,,,,,,,,,,,,,,
0,89,89,79,1,,5f5286c9fe322954c5256681,62c539a225cc44bfddb0f10b,2022-07-06_09h28.45.815,Colour_Asymmetry_Pilot,2022.1.3,Win32,59.75143403,62c50e9c1127f2cd403a315f,,,,,,,,,,,,,,,,,,,,,,,,,,,,,,,,,,,,,,,,,,,,,,,,,,,,,,,,,,,,,,,,,,,,,,,,,,,,,,,,,,,,,,,,,,,,,,,,,,,,,,,,,,,,,,,,,,,,,,,,,,,,,,,,,,,,,,,,,,,,,,,,,,,,,,,,,,,,,,,,,,,
0,90,90,35,1,,5f5286c9fe322954c5256681,62c539a225cc44bfddb0f10b,2022-07-06_09h28.45.815,Colour_Asymmetry_Pilot,2022.1.3,Win32,59.75143403,62c50e9c1127f2cd403a315f,,,,,,,,,,,,,,,,,,,,,,,,,,,,,,,,,,,,,,,,,,,,,,,,,,,,,,,,,,,,,,,,,,,,,,,,,,,,,,,,,,,,,,,,,,,,,,,,,,,,,,,,,,,,,,,,,,,,,,,,,,,,,,,,,,,,,,,,,,,,,,,,,,,,,,,,,,,,,,,,,,,
0,91,91,72,1,,5f5286c9fe322954c5256681,62c539a225cc44bfddb0f10b,2022-07-06_09h28.45.815,Colour_Asymmetry_Pilot,2022.1.3,Win32,59.75143403,62c50e9c1127f2cd403a315f,,,,,,,,,,,,,,,,,,,,,,,,,,,,,,,,,,,,,,,,,,,,,,,,,,,,,,,,,,,,,,,,,,,,,,,,,,,,,,,,,,,,,,,,,,,,,,,,,,,,,,,,,,,,,,,,,,,,,,,,,,,,,,,,,,,,,,,,,,,,,,,,,,,,,,,,,,,,,,,,,,,
0,92,92,89,1,,5f5286c9fe322954c5256681,62c539a225cc44bfddb0f10b,2022-07-06_09h28.45.815,Colour_Asymmetry_Pilot,2022.1.3,Win32,59.75143403,62c50e9c1127f2cd403a315f,,,,,,,,,,,,,,,,,,,,,,,,,,,,,,,,,,,,,,,,,,,,,,,,,,,,,,,,,,,,,,,,,,,,,,,,,,,,,,,,,,,,,,,,,,,,,,,,,,,,,,,,,,,,,,,,,,,,,,,,,,,,,,,,,,,,,,,,,,,,,,,,,,,,,,,,,,,,,,,,,,,
,,,,,,5f5286c9fe322954c5256681,62c539a225cc44bfddb0f10b,2022-07-06_09h28.45.815,Colour_Asymmetry_Pilot,2022.1.3,Win32,59.75143403,62c50e9c1127f2cd403a315f,0,0,0,156,1,threeone,,,,,,,,,,,,,,,,,,,,,,,,,,,,,,,,,,,,,,,,,,,,,,,,,,,,,,,,,,,,,,,,,,,,,,,,,,,,,,,,,,,,,,,,,,,,,,,,,,,,,,,,,,,,,,,,,,,,,,,,,,,,,,,,,,,,,,,,,,,,,,,,,,,,,,,,,,,,,
,,,,,,5f5286c9fe322954c5256681,62c539a225cc44bfddb0f10b,2022-07-06_09h28.45.815,Colour_Asymmetry_Pilot,2022.1.3,Win32,59.75143403,62c50e9c1127f2cd403a315f,0,1,1,118,1,fourtwo,,,,,,,,,,,,,,,,,,,,,,,,,,,,,,,,,,,,,,,,,,,,,,,,,,,,,,,,,,,,,,,,,,,,,,,,,,,,,,,,,,,,,,,,,,,,,,,,,,,,,,,,,,,,,,,,,,,,,,,,,,,,,,,,,,,,,,,,,,,,,,,,,,,,,,,,,,,,,
,,,,,,5f5286c9fe322954c5256681,62c539a225cc44bfddb0f10b,2022-07-06_09h28.45.815,Colour_Asymmetry_Pilot,2022.1.3,Win32,59.75143403,62c50e9c1127f2cd403a315f,0,2,2,18,1,twoone,,,,,,,,,,,,,,,,,,,,,,,,,,,,,,,,,,,,,,,,,,,,,,,,,,,,,,,,,,,,,,,,,,,,,,,,,,,,,,,,,,,,,,,,,,,,,,,,,,,,,,,,,,,,,,,,,,,,,,,,,,,,,,,,,,,,,,,,,,,,,,,,,,,,,,,,,,,,,
,,,,,,5f5286c9fe322954c5256681,62c539a225cc44bfddb0f10b,2022-07-06_09h28.45.815,Colour_Asymmetry_Pilot,2022.1.3,Win32,59.75143403,62c50e9c1127f2cd403a315f,0,3,3,82,1,twoone,,,,,,,,,,,,,,,,,,,,,,,,,,,,,,,,,,,,,,,,,,,,,,,,,,,,,,,,,,,,,,,,,,,,,,,,,,,,,,,,,,,,,,,,,,,,,,,,,,,,,,,,,,,,,,,,,,,,,,,,,,,,,,,,,,,,,,,,,,,,,,,,,,,,,,,,,,,,,
,,,,,,5f5286c9fe322954c5256681,62c539a225cc44bfddb0f10b,2022-07-06_09h28.45.815,Colour_Asymmetry_Pilot,2022.1.3,Win32,59.75143403,62c50e9c1127f2cd403a315f,0,4,4,136,1,onetwo,,,,,,,,,,,,,,,,,,,,,,,,,,,,,,,,,,,,,,,,,,,,,,,,,,,,,,,,,,,,,,,,,,,,,,,,,,,,,,,,,,,,,,,,,,,,,,,,,,,,,,,,,,,,,,,,,,,,,,,,,,,,,,,,,,,,,,,,,,,,,,,,,,,,,,,,,,,,,
,,,,,,5f5286c9fe322954c5256681,62c539a225cc44bfddb0f10b,2022-07-06_09h28.45.815,Colour_Asymmetry_Pilot,2022.1.3,Win32,59.75143403,62c50e9c1127f2cd403a315f,0,5,5,122,1,twoone,,,,,,,,,,,,,,,,,,,,,,,,,,,,,,,,,,,,,,,,,,,,,,,,,,,,,,,,,,,,,,,,,,,,,,,,,,,,,,,,,,,,,,,,,,,,,,,,,,,,,,,,,,,,,,,,,,,,,,,,,,,,,,,,,,,,,,,,,,,,,,,,,,,,,,,,,,,,,
,,,,,,5f5286c9fe322954c5256681,62c539a225cc44bfddb0f10b,2022-07-06_09h28.45.815,Colour_Asymmetry_Pilot,2022.1.3,Win32,59.75143403,62c50e9c1127f2cd403a315f,0,6,6,17,1,onethree,,,,,,,,,,,,,,,,,,,,,,,,,,,,,,,,,,,,,,,,,,,,,,,,,,,,,,,,,,,,,,,,,,,,,,,,,,,,,,,,,,,,,,,,,,,,,,,,,,,,,,,,,,,,,,,,,,,,,,,,,,,,,,,,,,,,,,,,,,,,,,,,,,,,,,,,,,,,,
,,,,,,5f5286c9fe322954c5256681,62c539a225cc44bfddb0f10b,2022-07-06_09h28.45.815,Colour_Asymmetry_Pilot,2022.1.3,Win32,59.75143403,62c50e9c1127f2cd403a315f,0,7,7,99,1,twofour,,,,,,,,,,,,,,,,,,,,,,,,,,,,,,,,,,,,,,,,,,,,,,,,,,,,,,,,,,,,,,,,,,,,,,,,,,,,,,,,,,,,,,,,,,,,,,,,,,,,,,,,,,,,,,,,,,,,,,,,,,,,,,,,,,,,,,,,,,,,,,,,,,,,,,,,,,,,,
,,,,,,5f5286c9fe322954c5256681,62c539a225cc44bfddb0f10b,2022-07-06_09h28.45.815,Colour_Asymmetry_Pilot,2022.1.3,Win32,59.75143403,62c50e9c1127f2cd403a315f,0,8,8,101,1,threefour,,,,,,,,,,,,,,,,,,,,,,,,,,,,,,,,,,,,,,,,,,,,,,,,,,,,,,,,,,,,,,,,,,,,,,,,,,,,,,,,,,,,,,,,,,,,,,,,,,,,,,,,,,,,,,,,,,,,,,,,,,,,,,,,,,,,,,,,,,,,,,,,,,,,,,,,,,,,,
,,,,,,5f5286c9fe322954c5256681,62c539a225cc44bfddb0f10b,2022-07-06_09h28.45.815,Colour_Asymmetry_Pilot,2022.1.3,Win32,59.75143403,62c50e9c1127f2cd403a315f,0,9,9,158,1,fourtwo,,,,,,,,,,,,,,,,,,,,,,,,,,,,,,,,,,,,,,,,,,,,,,,,,,,,,,,,,,,,,,,,,,,,,,,,,,,,,,,,,,,,,,,,,,,,,,,,,,,,,,,,,,,,,,,,,,,,,,,,,,,,,,,,,,,,,,,,,,,,,,,,,,,,,,,,,,,,,
,,,,,,5f5286c9fe322954c5256681,62c539a225cc44bfddb0f10b,2022-07-06_09h28.45.815,Colour_Asymmetry_Pilot,2022.1.3,Win32,59.75143403,62c50e9c1127f2cd403a315f,0,10,10,134,1,fourtwo,,,,,,,,,,,,,,,,,,,,,,,,,,,,,,,,,,,,,,,,,,,,,,,,,,,,,,,,,,,,,,,,,,,,,,,,,,,,,,,,,,,,,,,,,,,,,,,,,,,,,,,,,,,,,,,,,,,,,,,,,,,,,,,,,,,,,,,,,,,,,,,,,,,,,,,,,,,,,
,,,,,,5f5286c9fe322954c5256681,62c539a225cc44bfddb0f10b,2022-07-06_09h28.45.815,Colour_Asymmetry_Pilot,2022.1.3,Win32,59.75143403,62c50e9c1127f2cd403a315f,0,11,11,62,1,fourtwo,,,,,,,,,,,,,,,,,,,,,,,,,,,,,,,,,,,,,,,,,,,,,,,,,,,,,,,,,,,,,,,,,,,,,,,,,,,,,,,,,,,,,,,,,,,,,,,,,,,,,,,,,,,,,,,,,,,,,,,,,,,,,,,,,,,,,,,,,,,,,,,,,,,,,,,,,,,,,
,,,,,,5f5286c9fe322954c5256681,62c539a225cc44bfddb0f10b,2022-07-06_09h28.45.815,Colour_Asymmetry_Pilot,2022.1.3,Win32,59.75143403,62c50e9c1127f2cd403a315f,0,12,12,116,1,threeone,,,,,,,,,,,,,,,,,,,,,,,,,,,,,,,,,,,,,,,,,,,,,,,,,,,,,,,,,,,,,,,,,,,,,,,,,,,,,,,,,,,,,,,,,,,,,,,,,,,,,,,,,,,,,,,,,,,,,,,,,,,,,,,,,,,,,,,,,,,,,,,,,,,,,,,,,,,,,
,,,,,,5f5286c9fe322954c5256681,62c539a225cc44bfddb0f10b,2022-07-06_09h28.45.815,Colour_Asymmetry_Pilot,2022.1.3,Win32,59.75143403,62c50e9c1127f2cd403a315f,0,13,13,85,1,threefour,,,,,,,,,,,,,,,,,,,,,,,,,,,,,,,,,,,,,,,,,,,,,,,,,,,,,,,,,,,,,,,,,,,,,,,,,,,,,,,,,,,,,,,,,,,,,,,,,,,,,,,,,,,,,,,,,,,,,,,,,,,,,,,,,,,,,,,,,,,,,,,,,,,,,,,,,,,,,
,,,,,,5f5286c9fe322954c5256681,62c539a225cc44bfddb0f10b,2022-07-06_09h28.45.815,Colour_Asymmetry_Pilot,2022.1.3,Win32,59.75143403,62c50e9c1127f2cd403a315f,0,14,14,130,1,twoone,,,,,,,,,,,,,,,,,,,,,,,,,,,,,,,,,,,,,,,,,,,,,,,,,,,,,,,,,,,,,,,,,,,,,,,,,,,,,,,,,,,,,,,,,,,,,,,,,,,,,,,,,,,,,,,,,,,,,,,,,,,,,,,,,,,,,,,,,,,,,,,,,,,,,,,,,,,,,
,,,,,,5f5286c9fe322954c5256681,62c539a225cc44bfddb0f10b,2022-07-06_09h28.45.815,Colour_Asymmetry_Pilot,2022.1.3,Win32,59.75143403,62c50e9c1127f2cd403a315f,0,15,15,84,1,threeone,,,,,,,,,,,,,,,,,,,,,,,,,,,,,,,,,,,,,,,,,,,,,,,,,,,,,,,,,,,,,,,,,,,,,,,,,,,,,,,,,,,,,,,,,,,,,,,,,,,,,,,,,,,,,,,,,,,,,,,,,,,,,,,,,,,,,,,,,,,,,,,,,,,,,,,,,,,,,
,,,,,,5f5286c9fe322954c5256681,62c539a225cc44bfddb0f10b,2022-07-06_09h28.45.815,Colour_Asymmetry_Pilot,2022.1.3,Win32,59.75143403,62c50e9c1127f2cd403a315f,0,16,16,138,1,twoone,,,,,,,,,,,,,,,,,,,,,,,,,,,,,,,,,,,,,,,,,,,,,,,,,,,,,,,,,,,,,,,,,,,,,,,,,,,,,,,,,,,,,,,,,,,,,,,,,,,,,,,,,,,,,,,,,,,,,,,,,,,,,,,,,,,,,,,,,,,,,,,,,,,,,,,,,,,,,
,,,,,,5f5286c9fe322954c5256681,62c539a225cc44bfddb0f10b,2022-07-06_09h28.45.815,Colour_Asymmetry_Pilot,2022.1.3,Win32,59.75143403,62c50e9c1127f2cd403a315f,0,17,17,88,1,onetwo,,,,,,,,,,,,,,,,,,,,,,,,,,,,,,,,,,,,,,,,,,,,,,,,,,,,,,,,,,,,,,,,,,,,,,,,,,,,,,,,,,,,,,,,,,,,,,,,,,,,,,,,,,,,,,,,,,,,,,,,,,,,,,,,,,,,,,,,,,,,,,,,,,,,,,,,,,,,,
,,,,,,5f5286c9fe322954c5256681,62c539a225cc44bfddb0f10b,2022-07-06_09h28.45.815,Colour_Asymmetry_Pilot,2022.1.3,Win32,59.75143403,62c50e9c1127f2cd403a315f,0,18,18,121,1,onethree,,,,,,,,,,,,,,,,,,,,,,,,,,,,,,,,,,,,,,,,,,,,,,,,,,,,,,,,,,,,,,,,,,,,,,,,,,,,,,,,,,,,,,,,,,,,,,,,,,,,,,,,,,,,,,,,,,,,,,,,,,,,,,,,,,,,,,,,,,,,,,,,,,,,,,,,,,,,,
,,,,,,5f5286c9fe322954c5256681,62c539a225cc44bfddb0f10b,2022-07-06_09h28.45.815,Colour_Asymmetry_Pilot,2022.1.3,Win32,59.75143403,62c50e9c1127f2cd403a315f,0,19,19,30,1,fourtwo,,,,,,,,,,,,,,,,,,,,,,,,,,,,,,,,,,,,,,,,,,,,,,,,,,,,,,,,,,,,,,,,,,,,,,,,,,,,,,,,,,,,,,,,,,,,,,,,,,,,,,,,,,,,,,,,,,,,,,,,,,,,,,,,,,,,,,,,,,,,,,,,,,,,,,,,,,,,,
,,,,,,5f5286c9fe322954c5256681,62c539a225cc44bfddb0f10b,2022-07-06_09h28.45.815,Colour_Asymmetry_Pilot,2022.1.3,Win32,59.75143403,62c50e9c1127f2cd403a315f,0,20,20,60,1,threeone,,,,,,,,,,,,,,,,,,,,,,,,,,,,,,,,,,,,,,,,,,,,,,,,,,,,,,,,,,,,,,,,,,,,,,,,,,,,,,,,,,,,,,,,,,,,,,,,,,,,,,,,,,,,,,,,,,,,,,,,,,,,,,,,,,,,,,,,,,,,,,,,,,,,,,,,,,,,,
,,,,,,5f5286c9fe322954c5256681,62c539a225cc44bfddb0f10b,2022-07-06_09h28.45.815,Colour_Asymmetry_Pilot,2022.1.3,Win32,59.75143403,62c50e9c1127f2cd403a315f,0,21,21,78,1,fourtwo,,,,,,,,,,,,,,,,,,,,,,,,,,,,,,,,,,,,,,,,,,,,,,,,,,,,,,,,,,,,,,,,,,,,,,,,,,,,,,,,,,,,,,,,,,,,,,,,,,,,,,,,,,,,,,,,,,,,,,,,,,,,,,,,,,,,,,,,,,,,,,,,,,,,,,,,,,,,,
,,,,,,5f5286c9fe322954c5256681,62c539a225cc44bfddb0f10b,2022-07-06_09h28.45.815,Colour_Asymmetry_Pilot,2022.1.3,Win32,59.75143403,62c50e9c1127f2cd403a315f,0,22,22,95,1,fourthree,,,,,,,,,,,,,,,,,,,,,,,,,,,,,,,,,,,,,,,,,,,,,,,,,,,,,,,,,,,,,,,,,,,,,,,,,,,,,,,,,,,,,,,,,,,,,,,,,,,,,,,,,,,,,,,,,,,,,,,,,,,,,,,,,,,,,,,,,,,,,,,,,,,,,,,,,,,,,
,,,,,,5f5286c9fe322954c5256681,62c539a225cc44bfddb0f10b,2022-07-06_09h28.45.815,Colour_Asymmetry_Pilot,2022.1.3,Win32,59.75143403,62c50e9c1127f2cd403a315f,0,23,23,144,1,onetwo,,,,,,,,,,,,,,,,,,,,,,,,,,,,,,,,,,,,,,,,,,,,,,,,,,,,,,,,,,,,,,,,,,,,,,,,,,,,,,,,,,,,,,,,,,,,,,,,,,,,,,,,,,,,,,,,,,,,,,,,,,,,,,,,,,,,,,,,,,,,,,,,,,,,,,,,,,,,,
,,,,,,5f5286c9fe322954c5256681,62c539a225cc44bfddb0f10b,2022-07-06_09h28.45.815,Colour_Asymmetry_Pilot,2022.1.3,Win32,59.75143403,62c50e9c1127f2cd403a315f,0,24,24,16,1,onetwo,,,,,,,,,,,,,,,,,,,,,,,,,,,,,,,,,,,,,,,,,,,,,,,,,,,,,,,,,,,,,,,,,,,,,,,,,,,,,,,,,,,,,,,,,,,,,,,,,,,,,,,,,,,,,,,,,,,,,,,,,,,,,,,,,,,,,,,,,,,,,,,,,,,,,,,,,,,,,
,,,,,,5f5286c9fe322954c5256681,62c539a225cc44bfddb0f10b,2022-07-06_09h28.45.815,Colour_Asymmetry_Pilot,2022.1.3,Win32,59.75143403,62c50e9c1127f2cd403a315f,0,25,25,32,1,onetwo,,,,,,,,,,,,,,,,,,,,,,,,,,,,,,,,,,,,,,,,,,,,,,,,,,,,,,,,,,,,,,,,,,,,,,,,,,,,,,,,,,,,,,,,,,,,,,,,,,,,,,,,,,,,,,,,,,,,,,,,,,,,,,,,,,,,,,,,,,,,,,,,,,,,,,,,,,,,,
,,,,,,5f5286c9fe322954c5256681,62c539a225cc44bfddb0f10b,2022-07-06_09h28.45.815,Colour_Asymmetry_Pilot,2022.1.3,Win32,59.75143403,62c50e9c1127f2cd403a315f,0,26,26,112,1,onetwo,,,,,,,,,,,,,,,,,,,,,,,,,,,,,,,,,,,,,,,,,,,,,,,,,,,,,,,,,,,,,,,,,,,,,,,,,,,,,,,,,,,,,,,,,,,,,,,,,,,,,,,,,,,,,,,,,,,,,,,,,,,,,,,,,,,,,,,,,,,,,,,,,,,,,,,,,,,,,
,,,,,,5f5286c9fe322954c5256681,62c539a225cc44bfddb0f10b,2022-07-06_09h28.45.815,Colour_Asymmetry_Pilot,2022.1.3,Win32,59.75143403,62c50e9c1127f2cd403a315f,0,27,27,35,1,twofour,,,,,,,,,,,,,,,,,,,,,,,,,,,,,,,,,,,,,,,,,,,,,,,,,,,,,,,,,,,,,,,,,,,,,,,,,,,,,,,,,,,,,,,,,,,,,,,,,,,,,,,,,,,,,,,,,,,,,,,,,,,,,,,,,,,,,,,,,,,,,,,,,,,,,,,,,,,,,
,,,,,,5f5286c9fe322954c5256681,62c539a225cc44bfddb0f10b,2022-07-06_09h28.45.815,Colour_Asymmetry_Pilot,2022.1.3,Win32,59.75143403,62c50e9c1127f2cd403a315f,0,28,28,38,1,fourtwo,,,,,,,,,,,,,,,,,,,,,,,,,,,,,,,,,,,,,,,,,,,,,,,,,,,,,,,,,,,,,,,,,,,,,,,,,,,,,,,,,,,,,,,,,,,,,,,,,,,,,,,,,,,,,,,,,,,,,,,,,,,,,,,,,,,,,,,,,,,,,,,,,,,,,,,,,,,,,
,,,,,,5f5286c9fe322954c5256681,62c539a225cc44bfddb0f10b,2022-07-06_09h28.45.815,Colour_Asymmetry_Pilot,2022.1.3,Win32,59.75143403,62c50e9c1127f2cd403a315f,0,29,29,3,1,twofour,,,,,,,,,,,,,,,,,,,,,,,,,,,,,,,,,,,,,,,,,,,,,,,,,,,,,,,,,,,,,,,,,,,,,,,,,,,,,,,,,,,,,,,,,,,,,,,,,,,,,,,,,,,,,,,,,,,,,,,,,,,,,,,,,,,,,,,,,,,,,,,,,,,,,,,,,,,,,
,,,,,,5f5286c9fe322954c5256681,62c539a225cc44bfddb0f10b,2022-07-06_09h28.45.815,Colour_Asymmetry_Pilot,2022.1.3,Win32,59.75143403,62c50e9c1127f2cd403a315f,0,30,30,113,1,onethree,,,,,,,,,,,,,,,,,,,,,,,,,,,,,,,,,,,,,,,,,,,,,,,,,,,,,,,,,,,,,,,,,,,,,,,,,,,,,,,,,,,,,,,,,,,,,,,,,,,,,,,,,,,,,,,,,,,,,,,,,,,,,,,,,,,,,,,,,,,,,,,,,,,,,,,,,,,,,
,,,,,,5f5286c9fe322954c5256681,62c539a225cc44bfddb0f10b,2022-07-06_09h28.45.815,Colour_Asymmetry_Pilot,2022.1.3,Win32,59.75143403,62c50e9c1127f2cd403a315f,0,31,31,42,1,twoone,,,,,,,,,,,,,,,,,,,,,,,,,,,,,,,,,,,,,,,,,,,,,,,,,,,,,,,,,,,,,,,,,,,,,,,,,,,,,,,,,,,,,,,,,,,,,,,,,,,,,,,,,,,,,,,,,,,,,,,,,,,,,,,,,,,,,,,,,,,,,,,,,,,,,,,,,,,,,
,,,,,,5f5286c9fe322954c5256681,62c539a225cc44bfddb0f10b,2022-07-06_09h28.45.815,Colour_Asymmetry_Pilot,2022.1.3,Win32,59.75143403,62c50e9c1127f2cd403a315f,0,32,32,159,1,fourthree,,,,,,,,,,,,,,,,,,,,,,,,,,,,,,,,,,,,,,,,,,,,,,,,,,,,,,,,,,,,,,,,,,,,,,,,,,,,,,,,,,,,,,,,,,,,,,,,,,,,,,,,,,,,,,,,,,,,,,,,,,,,,,,,,,,,,,,,,,,,,,,,,,,,,,,,,,,,,
,,,,,,5f5286c9fe322954c5256681,62c539a225cc44bfddb0f10b,2022-07-06_09h28.45.815,Colour_Asymmetry_Pilot,2022.1.3,Win32,59.75143403,62c50e9c1127f2cd403a315f,0,33,33,110,1,fourtwo,,,,,,,,,,,,,,,,,,,,,,,,,,,,,,,,,,,,,,,,,,,,,,,,,,,,,,,,,,,,,,,,,,,,,,,,,,,,,,,,,,,,,,,,,,,,,,,,,,,,,,,,,,,,,,,,,,,,,,,,,,,,,,,,,,,,,,,,,,,,,,,,,,,,,,,,,,,,,
,,,,,,5f5286c9fe322954c5256681,62c539a225cc44bfddb0f10b,2022-07-06_09h28.45.815,Colour_Asymmetry_Pilot,2022.1.3,Win32,59.75143403,62c50e9c1127f2cd403a315f,0,34,34,148,1,threeone,,,,,,,,,,,,,,,,,,,,,,,,,,,,,,,,,,,,,,,,,,,,,,,,,,,,,,,,,,,,,,,,,,,,,,,,,,,,,,,,,,,,,,,,,,,,,,,,,,,,,,,,,,,,,,,,,,,,,,,,,,,,,,,,,,,,,,,,,,,,,,,,,,,,,,,,,,,,,
,,,,,,5f5286c9fe322954c5256681,62c539a225cc44bfddb0f10b,2022-07-06_09h28.45.815,Colour_Asymmetry_Pilot,2022.1.3,Win32,59.75143403,62c50e9c1127f2cd403a315f,0,35,35,127,1,fourthree,,,,,,,,,,,,,,,,,,,,,,,,,,,,,,,,,,,,,,,,,,,,,,,,,,,,,,,,,,,,,,,,,,,,,,,,,,,,,,,,,,,,,,,,,,,,,,,,,,,,,,,,,,,,,,,,,,,,,,,,,,,,,,,,,,,,,,,,,,,,,,,,,,,,,,,,,,,,,
,,,,,,5f5286c9fe322954c5256681,62c539a225cc44bfddb0f10b,2022-07-06_09h28.45.815,Colour_Asymmetry_Pilot,2022.1.3,Win32,59.75143403,62c50e9c1127f2cd403a315f,0,36,36,149,1,threefour,,,,,,,,,,,,,,,,,,,,,,,,,,,,,,,,,,,,,,,,,,,,,,,,,,,,,,,,,,,,,,,,,,,,,,,,,,,,,,,,,,,,,,,,,,,,,,,,,,,,,,,,,,,,,,,,,,,,,,,,,,,,,,,,,,,,,,,,,,,,,,,,,,,,,,,,,,,,,
,,,,,,5f5286c9fe322954c5256681,62c539a225cc44bfddb0f10b,2022-07-06_09h28.45.815,Colour_Asymmetry_Pilot,2022.1.3,Win32,59.75143403,62c50e9c1127f2cd403a315f,0,37,37,123,1,twofour,,,,,,,,,,,,,,,,,,,,,,,,,,,,,,,,,,,,,,,,,,,,,,,,,,,,,,,,,,,,,,,,,,,,,,,,,,,,,,,,,,,,,,,,,,,,,,,,,,,,,,,,,,,,,,,,,,,,,,,,,,,,,,,,,,,,,,,,,,,,,,,,,,,,,,,,,,,,,
,,,,,,5f5286c9fe322954c5256681,62c539a225cc44bfddb0f10b,2022-07-06_09h28.45.815,Colour_Asymmetry_Pilot,2022.1.3,Win32,59.75143403,62c50e9c1127f2cd403a315f,0,38,38,115,1,twofour,,,,,,,,,,,,,,,,,,,,,,,,,,,,,,,,,,,,,,,,,,,,,,,,,,,,,,,,,,,,,,,,,,,,,,,,,,,,,,,,,,,,,,,,,,,,,,,,,,,,,,,,,,,,,,,,,,,,,,,,,,,,,,,,,,,,,,,,,,,,,,,,,,,,,,,,,,,,,
,,,,,,5f5286c9fe322954c5256681,62c539a225cc44bfddb0f10b,2022-07-06_09h28.45.815,Colour_Asymmetry_Pilot,2022.1.3,Win32,59.75143403,62c50e9c1127f2cd403a315f,0,39,39,74,1,twoone,,,,,,,,,,,,,,,,,,,,,,,,,,,,,,,,,,,,,,,,,,,,,,,,,,,,,,,,,,,,,,,,,,,,,,,,,,,,,,,,,,,,,,,,,,,,,,,,,,,,,,,,,,,,,,,,,,,,,,,,,,,,,,,,,,,,,,,,,,,,,,,,,,,,,,,,,,,,,
,,,,,,5f5286c9fe322954c5256681,62c539a225cc44bfddb0f10b,2022-07-06_09h28.45.815,Colour_Asymmetry_Pilot,2022.1.3,Win32,59.75143403,62c50e9c1127f2cd403a315f,0,40,40,141,1,threefour,,,,,,,,,,,,,,,,,,,,,,,,,,,,,,,,,,,,,,,,,,,,,,,,,,,,,,,,,,,,,,,,,,,,,,,,,,,,,,,,,,,,,,,,,,,,,,,,,,,,,,,,,,,,,,,,,,,,,,,,,,,,,,,,,,,,,,,,,,,,,,,,,,,,,,,,,,,,,
,,,,,,5f5286c9fe322954c5256681,62c539a225cc44bfddb0f10b,2022-07-06_09h28.45.815,Colour_Asymmetry_Pilot,2022.1.3,Win32,59.75143403,62c50e9c1127f2cd403a315f,0,41,41,68,1,threeone,,,,,,,,,,,,,,,,,,,,,,,,,,,,,,,,,,,,,,,,,,,,,,,,,,,,,,,,,,,,,,,,,,,,,,,,,,,,,,,,,,,,,,,,,,,,,,,,,,,,,,,,,,,,,,,,,,,,,,,,,,,,,,,,,,,,,,,,,,,,,,,,,,,,,,,,,,,,,
,,,,,,5f5286c9fe322954c5256681,62c539a225cc44bfddb0f10b,2022-07-06_09h28.45.815,Colour_Asymmetry_Pilot,2022.1.3,Win32,59.75143403,62c50e9c1127f2cd403a315f,0,42,42,66,1,twoone,,,,,,,,,,,,,,,,,,,,,,,,,,,,,,,,,,,,,,,,,,,,,,,,,,,,,,,,,,,,,,,,,,,,,,,,,,,,,,,,,,,,,,,,,,,,,,,,,,,,,,,,,,,,,,,,,,,,,,,,,,,,,,,,,,,,,,,,,,,,,,,,,,,,,,,,,,,,,
,,,,,,5f5286c9fe322954c5256681,62c539a225cc44bfddb0f10b,2022-07-06_09h28.45.815,Colour_Asymmetry_Pilot,2022.1.3,Win32,59.75143403,62c50e9c1127f2cd403a315f,0,43,43,120,1,onetwo,,,,,,,,,,,,,,,,,,,,,,,,,,,,,,,,,,,,,,,,,,,,,,,,,,,,,,,,,,,,,,,,,,,,,,,,,,,,,,,,,,,,,,,,,,,,,,,,,,,,,,,,,,,,,,,,,,,,,,,,,,,,,,,,,,,,,,,,,,,,,,,,,,,,,,,,,,,,,
,,,,,,5f5286c9fe322954c5256681,62c539a225cc44bfddb0f10b,2022-07-06_09h28.45.815,Colour_Asymmetry_Pilot,2022.1.3,Win32,59.75143403,62c50e9c1127f2cd403a315f,0,44,44,100,1,threeone,,,,,,,,,,,,,,,,,,,,,,,,,,,,,,,,,,,,,,,,,,,,,,,,,,,,,,,,,,,,,,,,,,,,,,,,,,,,,,,,,,,,,,,,,,,,,,,,,,,,,,,,,,,,,,,,,,,,,,,,,,,,,,,,,,,,,,,,,,,,,,,,,,,,,,,,,,,,,
,,,,,,5f5286c9fe322954c5256681,62c539a225cc44bfddb0f10b,2022-07-06_09h28.45.815,Colour_Asymmetry_Pilot,2022.1.3,Win32,59.75143403,62c50e9c1127f2cd403a315f,0,45,45,21,1,threefour,,,,,,,,,,,,,,,,,,,,,,,,,,,,,,,,,,,,,,,,,,,,,,,,,,,,,,,,,,,,,,,,,,,,,,,,,,,,,,,,,,,,,,,,,,,,,,,,,,,,,,,,,,,,,,,,,,,,,,,,,,,,,,,,,,,,,,,,,,,,,,,,,,,,,,,,,,,,,
,,,,,,5f5286c9fe322954c5256681,62c539a225cc44bfddb0f10b,2022-07-06_09h28.45.815,Colour_Asymmetry_Pilot,2022.1.3,Win32,59.75143403,62c50e9c1127f2cd403a315f,0,46,46,20,1,threeone,,,,,,,,,,,,,,,,,,,,,,,,,,,,,,,,,,,,,,,,,,,,,,,,,,,,,,,,,,,,,,,,,,,,,,,,,,,,,,,,,,,,,,,,,,,,,,,,,,,,,,,,,,,,,,,,,,,,,,,,,,,,,,,,,,,,,,,,,,,,,,,,,,,,,,,,,,,,,
,,,,,,5f5286c9fe322954c5256681,62c539a225cc44bfddb0f10b,2022-07-06_09h28.45.815,Colour_Asymmetry_Pilot,2022.1.3,Win32,59.75143403,62c50e9c1127f2cd403a315f,0,47,47,94,1,fourtwo,,,,,,,,,,,,,,,,,,,,,,,,,,,,,,,,,,,,,,,,,,,,,,,,,,,,,,,,,,,,,,,,,,,,,,,,,,,,,,,,,,,,,,,,,,,,,,,,,,,,,,,,,,,,,,,,,,,,,,,,,,,,,,,,,,,,,,,,,,,,,,,,,,,,,,,,,,,,,
,,,,,,5f5286c9fe322954c5256681,62c539a225cc44bfddb0f10b,2022-07-06_09h28.45.815,Colour_Asymmetry_Pilot,2022.1.3,Win32,59.75143403,62c50e9c1127f2cd403a315f,0,48,48,98,1,twoone,,,,,,,,,,,,,,,,,,,,,,,,,,,,,,,,,,,,,,,,,,,,,,,,,,,,,,,,,,,,,,,,,,,,,,,,,,,,,,,,,,,,,,,,,,,,,,,,,,,,,,,,,,,,,,,,,,,,,,,,,,,,,,,,,,,,,,,,,,,,,,,,,,,,,,,,,,,,,
,,,,,,5f5286c9fe322954c5256681,62c539a225cc44bfddb0f10b,2022-07-06_09h28.45.815,Colour_Asymmetry_Pilot,2022.1.3,Win32,59.75143403,62c50e9c1127f2cd403a315f,0,49,49,55,1,fourthree,,,,,,,,,,,,,,,,,,,,,,,,,,,,,,,,,,,,,,,,,,,,,,,,,,,,,,,,,,,,,,,,,,,,,,,,,,,,,,,,,,,,,,,,,,,,,,,,,,,,,,,,,,,,,,,,,,,,,,,,,,,,,,,,,,,,,,,,,,,,,,,,,,,,,,,,,,,,,
,,,,,,5f5286c9fe322954c5256681,62c539a225cc44bfddb0f10b,2022-07-06_09h28.45.815,Colour_Asymmetry_Pilot,2022.1.3,Win32,59.75143403,62c50e9c1127f2cd403a315f,0,50,50,161,1,onethree,,,,,,,,,,,,,,,,,,,,,,,,,,,,,,,,,,,,,,,,,,,,,,,,,,,,,,,,,,,,,,,,,,,,,,,,,,,,,,,,,,,,,,,,,,,,,,,,,,,,,,,,,,,,,,,,,,,,,,,,,,,,,,,,,,,,,,,,,,,,,,,,,,,,,,,,,,,,,
,,,,,,5f5286c9fe322954c5256681,62c539a225cc44bfddb0f10b,2022-07-06_09h28.45.815,Colour_Asymmetry_Pilot,2022.1.3,Win32,59.75143403,62c50e9c1127f2cd403a315f,0,51,51,19,1,twofour,,,,,,,,,,,,,,,,,,,,,,,,,,,,,,,,,,,,,,,,,,,,,,,,,,,,,,,,,,,,,,,,,,,,,,,,,,,,,,,,,,,,,,,,,,,,,,,,,,,,,,,,,,,,,,,,,,,,,,,,,,,,,,,,,,,,,,,,,,,,,,,,,,,,,,,,,,,,,
,,,,,,5f5286c9fe322954c5256681,62c539a225cc44bfddb0f10b,2022-07-06_09h28.45.815,Colour_Asymmetry_Pilot,2022.1.3,Win32,59.75143403,62c50e9c1127f2cd403a315f,0,52,52,11,1,twofour,,,,,,,,,,,,,,,,,,,,,,,,,,,,,,,,,,,,,,,,,,,,,,,,,,,,,,,,,,,,,,,,,,,,,,,,,,,,,,,,,,,,,,,,,,,,,,,,,,,,,,,,,,,,,,,,,,,,,,,,,,,,,,,,,,,,,,,,,,,,,,,,,,,,,,,,,,,,,
,,,,,,5f5286c9fe322954c5256681,62c539a225cc44bfddb0f10b,2022-07-06_09h28.45.815,Colour_Asymmetry_Pilot,2022.1.3,Win32,59.75143403,62c50e9c1127f2cd403a315f,0,53,53,79,1,fourthree,,,,,,,,,,,,,,,,,,,,,,,,,,,,,,,,,,,,,,,,,,,,,,,,,,,,,,,,,,,,,,,,,,,,,,,,,,,,,,,,,,,,,,,,,,,,,,,,,,,,,,,,,,,,,,,,,,,,,,,,,,,,,,,,,,,,,,,,,,,,,,,,,,,,,,,,,,,,,
,,,,,,5f5286c9fe322954c5256681,62c539a225cc44bfddb0f10b,2022-07-06_09h28.45.815,Colour_Asymmetry_Pilot,2022.1.3,Win32,59.75143403,62c50e9c1127f2cd403a315f,0,54,54,51,1,twofour,,,,,,,,,,,,,,,,,,,,,,,,,,,,,,,,,,,,,,,,,,,,,,,,,,,,,,,,,,,,,,,,,,,,,,,,,,,,,,,,,,,,,,,,,,,,,,,,,,,,,,,,,,,,,,,,,,,,,,,,,,,,,,,,,,,,,,,,,,,,,,,,,,,,,,,,,,,,,
,,,,,,5f5286c9fe322954c5256681,62c539a225cc44bfddb0f10b,2022-07-06_09h28.45.815,Colour_Asymmetry_Pilot,2022.1.3,Win32,59.75143403,62c50e9c1127f2cd403a315f,0,55,55,77,1,threefour,,,,,,,,,,,,,,,,,,,,,,,,,,,,,,,,,,,,,,,,,,,,,,,,,,,,,,,,,,,,,,,,,,,,,,,,,,,,,,,,,,,,,,,,,,,,,,,,,,,,,,,,,,,,,,,,,,,,,,,,,,,,,,,,,,,,,,,,,,,,,,,,,,,,,,,,,,,,,
,,,,,,5f5286c9fe322954c5256681,62c539a225cc44bfddb0f10b,2022-07-06_09h28.45.815,Colour_Asymmetry_Pilot,2022.1.3,Win32,59.75143403,62c50e9c1127f2cd403a315f,0,56,56,132,1,threeone,,,,,,,,,,,,,,,,,,,,,,,,,,,,,,,,,,,,,,,,,,,,,,,,,,,,,,,,,,,,,,,,,,,,,,,,,,,,,,,,,,,,,,,,,,,,,,,,,,,,,,,,,,,,,,,,,,,,,,,,,,,,,,,,,,,,,,,,,,,,,,,,,,,,,,,,,,,,,
,,,,,,5f5286c9fe322954c5256681,62c539a225cc44bfddb0f10b,2022-07-06_09h28.45.815,Colour_Asymmetry_Pilot,2022.1.3,Win32,59.75143403,62c50e9c1127f2cd403a315f,0,57,57,125,1,threefour,,,,,,,,,,,,,,,,,,,,,,,,,,,,,,,,,,,,,,,,,,,,,,,,,,,,,,,,,,,,,,,,,,,,,,,,,,,,,,,,,,,,,,,,,,,,,,,,,,,,,,,,,,,,,,,,,,,,,,,,,,,,,,,,,,,,,,,,,,,,,,,,,,,,,,,,,,,,,
,,,,,,5f5286c9fe322954c5256681,62c539a225cc44bfddb0f10b,2022-07-06_09h28.45.815,Colour_Asymmetry_Pilot,2022.1.3,Win32,59.75143403,62c50e9c1127f2cd403a315f,0,58,58,2,1,twoone,,,,,,,,,,,,,,,,,,,,,,,,,,,,,,,,,,,,,,,,,,,,,,,,,,,,,,,,,,,,,,,,,,,,,,,,,,,,,,,,,,,,,,,,,,,,,,,,,,,,,,,,,,,,,,,,,,,,,,,,,,,,,,,,,,,,,,,,,,,,,,,,,,,,,,,,,,,,,
,,,,,,5f5286c9fe322954c5256681,62c539a225cc44bfddb0f10b,2022-07-06_09h28.45.815,Colour_Asymmetry_Pilot,2022.1.3,Win32,59.75143403,62c50e9c1127f2cd403a315f,0,59,59,81,1,onethree,,,,,,,,,,,,,,,,,,,,,,,,,,,,,,,,,,,,,,,,,,,,,,,,,,,,,,,,,,,,,,,,,,,,,,,,,,,,,,,,,,,,,,,,,,,,,,,,,,,,,,,,,,,,,,,,,,,,,,,,,,,,,,,,,,,,,,,,,,,,,,,,,,,,,,,,,,,,,
,,,,,,5f5286c9fe322954c5256681,62c539a225cc44bfddb0f10b,2022-07-06_09h28.45.815,Colour_Asymmetry_Pilot,2022.1.3,Win32,59.75143403,62c50e9c1127f2cd403a315f,0,60,60,76,1,threeone,,,,,,,,,,,,,,,,,,,,,,,,,,,,,,,,,,,,,,,,,,,,,,,,,,,,,,,,,,,,,,,,,,,,,,,,,,,,,,,,,,,,,,,,,,,,,,,,,,,,,,,,,,,,,,,,,,,,,,,,,,,,,,,,,,,,,,,,,,,,,,,,,,,,,,,,,,,,,
,,,,,,5f5286c9fe322954c5256681,62c539a225cc44bfddb0f10b,2022-07-06_09h28.45.815,Colour_Asymmetry_Pilot,2022.1.3,Win32,59.75143403,62c50e9c1127f2cd403a315f,0,61,61,22,1,fourtwo,,,,,,,,,,,,,,,,,,,,,,,,,,,,,,,,,,,,,,,,,,,,,,,,,,,,,,,,,,,,,,,,,,,,,,,,,,,,,,,,,,,,,,,,,,,,,,,,,,,,,,,,,,,,,,,,,,,,,,,,,,,,,,,,,,,,,,,,,,,,,,,,,,,,,,,,,,,,,
,,,,,,5f5286c9fe322954c5256681,62c539a225cc44bfddb0f10b,2022-07-06_09h28.45.815,Colour_Asymmetry_Pilot,2022.1.3,Win32,59.75143403,62c50e9c1127f2cd403a315f,0,62,62,139,1,twofour,,,,,,,,,,,,,,,,,,,,,,,,,,,,,,,,,,,,,,,,,,,,,,,,,,,,,,,,,,,,,,,,,,,,,,,,,,,,,,,,,,,,,,,,,,,,,,,,,,,,,,,,,,,,,,,,,,,,,,,,,,,,,,,,,,,,,,,,,,,,,,,,,,,,,,,,,,,,,
,,,,,,5f5286c9fe322954c5256681,62c539a225cc44bfddb0f10b,2022-07-06_09h28.45.815,Colour_Asymmetry_Pilot,2022.1.3,Win32,59.75143403,62c50e9c1127f2cd403a315f,0,63,63,15,1,fourthree,,,,,,,,,,,,,,,,,,,,,,,,,,,,,,,,,,,,,,,,,,,,,,,,,,,,,,,,,,,,,,,,,,,,,,,,,,,,,,,,,,,,,,,,,,,,,,,,,,,,,,,,,,,,,,,,,,,,,,,,,,,,,,,,,,,,,,,,,,,,,,,,,,,,,,,,,,,,,
,,,,,,5f5286c9fe322954c5256681,62c539a225cc44bfddb0f10b,2022-07-06_09h28.45.815,Colour_Asymmetry_Pilot,2022.1.3,Win32,59.75143403,62c50e9c1127f2cd403a315f,0,64,64,153,1,onethree,,,,,,,,,,,,,,,,,,,,,,,,,,,,,,,,,,,,,,,,,,,,,,,,,,,,,,,,,,,,,,,,,,,,,,,,,,,,,,,,,,,,,,,,,,,,,,,,,,,,,,,,,,,,,,,,,,,,,,,,,,,,,,,,,,,,,,,,,,,,,,,,,,,,,,,,,,,,,
,,,,,,5f5286c9fe322954c5256681,62c539a225cc44bfddb0f10b,2022-07-06_09h28.45.815,Colour_Asymmetry_Pilot,2022.1.3,Win32,59.75143403,62c50e9c1127f2cd403a315f,0,65,65,140,1,threeone,,,,,,,,,,,,,,,,,,,,,,,,,,,,,,,,,,,,,,,,,,,,,,,,,,,,,,,,,,,,,,,,,,,,,,,,,,,,,,,,,,,,,,,,,,,,,,,,,,,,,,,,,,,,,,,,,,,,,,,,,,,,,,,,,,,,,,,,,,,,,,,,,,,,,,,,,,,,,
,,,,,,5f5286c9fe322954c5256681,62c539a225cc44bfddb0f10b,2022-07-06_09h28.45.815,Colour_Asymmetry_Pilot,2022.1.3,Win32,59.75143403,62c50e9c1127f2cd403a315f,0,66,66,143,1,fourthree,,,,,,,,,,,,,,,,,,,,,,,,,,,,,,,,,,,,,,,,,,,,,,,,,,,,,,,,,,,,,,,,,,,,,,,,,,,,,,,,,,,,,,,,,,,,,,,,,,,,,,,,,,,,,,,,,,,,,,,,,,,,,,,,,,,,,,,,,,,,,,,,,,,,,,,,,,,,,
,,,,,,5f5286c9fe322954c5256681,62c539a225cc44bfddb0f10b,2022-07-06_09h28.45.815,Colour_Asymmetry_Pilot,2022.1.3,Win32,59.75143403,62c50e9c1127f2cd403a315f,0,67,67,47,1,fourthree,,,,,,,,,,,,,,,,,,,,,,,,,,,,,,,,,,,,,,,,,,,,,,,,,,,,,,,,,,,,,,,,,,,,,,,,,,,,,,,,,,,,,,,,,,,,,,,,,,,,,,,,,,,,,,,,,,,,,,,,,,,,,,,,,,,,,,,,,,,,,,,,,,,,,,,,,,,,,
,,,,,,5f5286c9fe322954c5256681,62c539a225cc44bfddb0f10b,2022-07-06_09h28.45.815,Colour_Asymmetry_Pilot,2022.1.3,Win32,59.75143403,62c50e9c1127f2cd403a315f,0,68,68,135,1,fourthree,,,,,,,,,,,,,,,,,,,,,,,,,,,,,,,,,,,,,,,,,,,,,,,,,,,,,,,,,,,,,,,,,,,,,,,,,,,,,,,,,,,,,,,,,,,,,,,,,,,,,,,,,,,,,,,,,,,,,,,,,,,,,,,,,,,,,,,,,,,,,,,,,,,,,,,,,,,,,
,,,,,,5f5286c9fe322954c5256681,62c539a225cc44bfddb0f10b,2022-07-06_09h28.45.815,Colour_Asymmetry_Pilot,2022.1.3,Win32,59.75143403,62c50e9c1127f2cd403a315f,0,69,69,124,1,threeone,,,,,,,,,,,,,,,,,,,,,,,,,,,,,,,,,,,,,,,,,,,,,,,,,,,,,,,,,,,,,,,,,,,,,,,,,,,,,,,,,,,,,,,,,,,,,,,,,,,,,,,,,,,,,,,,,,,,,,,,,,,,,,,,,,,,,,,,,,,,,,,,,,,,,,,,,,,,,
,,,,,,5f5286c9fe322954c5256681,62c539a225cc44bfddb0f10b,2022-07-06_09h28.45.815,Colour_Asymmetry_Pilot,2022.1.3,Win32,59.75143403,62c50e9c1127f2cd403a315f,0,70,70,114,1,twoone,,,,,,,,,,,,,,,,,,,,,,,,,,,,,,,,,,,,,,,,,,,,,,,,,,,,,,,,,,,,,,,,,,,,,,,,,,,,,,,,,,,,,,,,,,,,,,,,,,,,,,,,,,,,,,,,,,,,,,,,,,,,,,,,,,,,,,,,,,,,,,,,,,,,,,,,,,,,,
,,,,,,5f5286c9fe322954c5256681,62c539a225cc44bfddb0f10b,2022-07-06_09h28.45.815,Colour_Asymmetry_Pilot,2022.1.3,Win32,59.75143403,62c50e9c1127f2cd403a315f,0,71,71,111,1,fourthree,,,,,,,,,,,,,,,,,,,,,,,,,,,,,,,,,,,,,,,,,,,,,,,,,,,,,,,,,,,,,,,,,,,,,,,,,,,,,,,,,,,,,,,,,,,,,,,,,,,,,,,,,,,,,,,,,,,,,,,,,,,,,,,,,,,,,,,,,,,,,,,,,,,,,,,,,,,,,
,,,,,,5f5286c9fe322954c5256681,62c539a225cc44bfddb0f10b,2022-07-06_09h28.45.815,Colour_Asymmetry_Pilot,2022.1.3,Win32,59.75143403,62c50e9c1127f2cd403a315f,0,72,72,9,1,onethree,,,,,,,,,,,,,,,,,,,,,,,,,,,,,,,,,,,,,,,,,,,,,,,,,,,,,,,,,,,,,,,,,,,,,,,,,,,,,,,,,,,,,,,,,,,,,,,,,,,,,,,,,,,,,,,,,,,,,,,,,,,,,,,,,,,,,,,,,,,,,,,,,,,,,,,,,,,,,
,,,,,,5f5286c9fe322954c5256681,62c539a225cc44bfddb0f10b,2022-07-06_09h28.45.815,Colour_Asymmetry_Pilot,2022.1.3,Win32,59.75143403,62c50e9c1127f2cd403a315f,0,73,73,0,1,onetwo,,,,,,,,,,,,,,,,,,,,,,,,,,,,,,,,,,,,,,,,,,,,,,,,,,,,,,,,,,,,,,,,,,,,,,,,,,,,,,,,,,,,,,,,,,,,,,,,,,,,,,,,,,,,,,,,,,,,,,,,,,,,,,,,,,,,,,,,,,,,,,,,,,,,,,,,,,,,,
,,,,,,5f5286c9fe322954c5256681,62c539a225cc44bfddb0f10b,2022-07-06_09h28.45.815,Colour_Asymmetry_Pilot,2022.1.3,Win32,59.75143403,62c50e9c1127f2cd403a315f,0,74,74,117,1,threefour,,,,,,,,,,,,,,,,,,,,,,,,,,,,,,,,,,,,,,,,,,,,,,,,,,,,,,,,,,,,,,,,,,,,,,,,,,,,,,,,,,,,,,,,,,,,,,,,,,,,,,,,,,,,,,,,,,,,,,,,,,,,,,,,,,,,,,,,,,,,,,,,,,,,,,,,,,,,,
,,,,,,5f5286c9fe322954c5256681,62c539a225cc44bfddb0f10b,2022-07-06_09h28.45.815,Colour_Asymmetry_Pilot,2022.1.3,Win32,59.75143403,62c50e9c1127f2cd403a315f,0,75,75,96,1,onetwo,,,,,,,,,,,,,,,,,,,,,,,,,,,,,,,,,,,,,,,,,,,,,,,,,,,,,,,,,,,,,,,,,,,,,,,,,,,,,,,,,,,,,,,,,,,,,,,,,,,,,,,,,,,,,,,,,,,,,,,,,,,,,,,,,,,,,,,,,,,,,,,,,,,,,,,,,,,,,
,,,,,,5f5286c9fe322954c5256681,62c539a225cc44bfddb0f10b,2022-07-06_09h28.45.815,Colour_Asymmetry_Pilot,2022.1.3,Win32,59.75143403,62c50e9c1127f2cd403a315f,0,76,76,87,1,fourthree,,,,,,,,,,,,,,,,,,,,,,,,,,,,,,,,,,,,,,,,,,,,,,,,,,,,,,,,,,,,,,,,,,,,,,,,,,,,,,,,,,,,,,,,,,,,,,,,,,,,,,,,,,,,,,,,,,,,,,,,,,,,,,,,,,,,,,,,,,,,,,,,,,,,,,,,,,,,,
,,,,,,5f5286c9fe322954c5256681,62c539a225cc44bfddb0f10b,2022-07-06_09h28.45.815,Colour_Asymmetry_Pilot,2022.1.3,Win32,59.75143403,62c50e9c1127f2cd403a315f,0,77,77,56,1,onetwo,,,,,,,,,,,,,,,,,,,,,,,,,,,,,,,,,,,,,,,,,,,,,,,,,,,,,,,,,,,,,,,,,,,,,,,,,,,,,,,,,,,,,,,,,,,,,,,,,,,,,,,,,,,,,,,,,,,,,,,,,,,,,,,,,,,,,,,,,,,,,,,,,,,,,,,,,,,,,
,,,,,,5f5286c9fe322954c5256681,62c539a225cc44bfddb0f10b,2022-07-06_09h28.45.815,Colour_Asymmetry_Pilot,2022.1.3,Win32,59.75143403,62c50e9c1127f2cd403a315f,0,78,78,69,1,threefour,,,,,,,,,,,,,,,,,,,,,,,,,,,,,,,,,,,,,,,,,,,,,,,,,,,,,,,,,,,,,,,,,,,,,,,,,,,,,,,,,,,,,,,,,,,,,,,,,,,,,,,,,,,,,,,,,,,,,,,,,,,,,,,,,,,,,,,,,,,,,,,,,,,,,,,,,,,,,
,,,,,,5f5286c9fe322954c5256681,62c539a225cc44bfddb0f10b,2022-07-06_09h28.45.815,Colour_Asymmetry_Pilot,2022.1.3,Win32,59.75143403,62c50e9c1127f2cd403a315f,0,79,79,53,1,threefour,,,,,,,,,,,,,,,,,,,,,,,,,,,,,,,,,,,,,,,,,,,,,,,,,,,,,,,,,,,,,,,,,,,,,,,,,,,,,,,,,,,,,,,,,,,,,,,,,,,,,,,,,,,,,,,,,,,,,,,,,,,,,,,,,,,,,,,,,,,,,,,,,,,,,,,,,,,,,
,,,,,,5f5286c9fe322954c5256681,62c539a225cc44bfddb0f10b,2022-07-06_09h28.45.815,Colour_Asymmetry_Pilot,2022.1.3,Win32,59.75143403,62c50e9c1127f2cd403a315f,0,80,80,54,1,fourtwo,,,,,,,,,,,,,,,,,,,,,,,,,,,,,,,,,,,,,,,,,,,,,,,,,,,,,,,,,,,,,,,,,,,,,,,,,,,,,,,,,,,,,,,,,,,,,,,,,,,,,,,,,,,,,,,,,,,,,,,,,,,,,,,,,,,,,,,,,,,,,,,,,,,,,,,,,,,,,
,,,,,,5f5286c9fe322954c5256681,62c539a225cc44bfddb0f10b,2022-07-06_09h28.45.815,Colour_Asymmetry_Pilot,2022.1.3,Win32,59.75143403,62c50e9c1127f2cd403a315f,0,81,81,34,1,twoone,,,,,,,,,,,,,,,,,,,,,,,,,,,,,,,,,,,,,,,,,,,,,,,,,,,,,,,,,,,,,,,,,,,,,,,,,,,,,,,,,,,,,,,,,,,,,,,,,,,,,,,,,,,,,,,,,,,,,,,,,,,,,,,,,,,,,,,,,,,,,,,,,,,,,,,,,,,,,
,,,,,,5f5286c9fe322954c5256681,62c539a225cc44bfddb0f10b,2022-07-06_09h28.45.815,Colour_Asymmetry_Pilot,2022.1.3,Win32,59.75143403,62c50e9c1127f2cd403a315f,0,82,82,25,1,onethree,,,,,,,,,,,,,,,,,,,,,,,,,,,,,,,,,,,,,,,,,,,,,,,,,,,,,,,,,,,,,,,,,,,,,,,,,,,,,,,,,,,,,,,,,,,,,,,,,,,,,,,,,,,,,,,,,,,,,,,,,,,,,,,,,,,,,,,,,,,,,,,,,,,,,,,,,,,,,
,,,,,,5f5286c9fe322954c5256681,62c539a225cc44bfddb0f10b,2022-07-06_09h28.45.815,Colour_Asymmetry_Pilot,2022.1.3,Win32,59.75143403,62c50e9c1127f2cd403a315f,0,83,83,93,1,threefour,,,,,,,,,,,,,,,,,,,,,,,,,,,,,,,,,,,,,,,,,,,,,,,,,,,,,,,,,,,,,,,,,,,,,,,,,,,,,,,,,,,,,,,,,,,,,,,,,,,,,,,,,,,,,,,,,,,,,,,,,,,,,,,,,,,,,,,,,,,,,,,,,,,,,,,,,,,,,
,,,,,,5f5286c9fe322954c5256681,62c539a225cc44bfddb0f10b,2022-07-06_09h28.45.815,Colour_Asymmetry_Pilot,2022.1.3,Win32,59.75143403,62c50e9c1127f2cd403a315f,0,84,84,10,1,twoone,,,,,,,,,,,,,,,,,,,,,,,,,,,,,,,,,,,,,,,,,,,,,,,,,,,,,,,,,,,,,,,,,,,,,,,,,,,,,,,,,,,,,,,,,,,,,,,,,,,,,,,,,,,,,,,,,,,,,,,,,,,,,,,,,,,,,,,,,,,,,,,,,,,,,,,,,,,,,
,,,,,,5f5286c9fe322954c5256681,62c539a225cc44bfddb0f10b,2022-07-06_09h28.45.815,Colour_Asymmetry_Pilot,2022.1.3,Win32,59.75143403,62c50e9c1127f2cd403a315f,0,85,85,65,1,onethree,,,,,,,,,,,,,,,,,,,,,,,,,,,,,,,,,,,,,,,,,,,,,,,,,,,,,,,,,,,,,,,,,,,,,,,,,,,,,,,,,,,,,,,,,,,,,,,,,,,,,,,,,,,,,,,,,,,,,,,,,,,,,,,,,,,,,,,,,,,,,,,,,,,,,,,,,,,,,
,,,,,,5f5286c9fe322954c5256681,62c539a225cc44bfddb0f10b,2022-07-06_09h28.45.815,Colour_Asymmetry_Pilot,2022.1.3,Win32,59.75143403,62c50e9c1127f2cd403a315f,0,86,86,72,1,onetwo,,,,,,,,,,,,,,,,,,,,,,,,,,,,,,,,,,,,,,,,,,,,,,,,,,,,,,,,,,,,,,,,,,,,,,,,,,,,,,,,,,,,,,,,,,,,,,,,,,,,,,,,,,,,,,,,,,,,,,,,,,,,,,,,,,,,,,,,,,,,,,,,,,,,,,,,,,,,,
,,,,,,5f5286c9fe322954c5256681,62c539a225cc44bfddb0f10b,2022-07-06_09h28.45.815,Colour_Asymmetry_Pilot,2022.1.3,Win32,59.75143403,62c50e9c1127f2cd403a315f,0,87,87,39,1,fourthree,,,,,,,,,,,,,,,,,,,,,,,,,,,,,,,,,,,,,,,,,,,,,,,,,,,,,,,,,,,,,,,,,,,,,,,,,,,,,,,,,,,,,,,,,,,,,,,,,,,,,,,,,,,,,,,,,,,,,,,,,,,,,,,,,,,,,,,,,,,,,,,,,,,,,,,,,,,,,
,,,,,,5f5286c9fe322954c5256681,62c539a225cc44bfddb0f10b,2022-07-06_09h28.45.815,Colour_Asymmetry_Pilot,2022.1.3,Win32,59.75143403,62c50e9c1127f2cd403a315f,0,88,88,108,1,threeone,,,,,,,,,,,,,,,,,,,,,,,,,,,,,,,,,,,,,,,,,,,,,,,,,,,,,,,,,,,,,,,,,,,,,,,,,,,,,,,,,,,,,,,,,,,,,,,,,,,,,,,,,,,,,,,,,,,,,,,,,,,,,,,,,,,,,,,,,,,,,,,,,,,,,,,,,,,,,
,,,,,,5f5286c9fe322954c5256681,62c539a225cc44bfddb0f10b,2022-07-06_09h28.45.815,Colour_Asymmetry_Pilot,2022.1.3,Win32,59.75143403,62c50e9c1127f2cd403a315f,0,89,89,64,1,onetwo,,,,,,,,,,,,,,,,,,,,,,,,,,,,,,,,,,,,,,,,,,,,,,,,,,,,,,,,,,,,,,,,,,,,,,,,,,,,,,,,,,,,,,,,,,,,,,,,,,,,,,,,,,,,,,,,,,,,,,,,,,,,,,,,,,,,,,,,,,,,,,,,,,,,,,,,,,,,,
,,,,,,5f5286c9fe322954c5256681,62c539a225cc44bfddb0f10b,2022-07-06_09h28.45.815,Colour_Asymmetry_Pilot,2022.1.3,Win32,59.75143403,62c50e9c1127f2cd403a315f,0,90,90,1,1,onethree,,,,,,,,,,,,,,,,,,,,,,,,,,,,,,,,,,,,,,,,,,,,,,,,,,,,,,,,,,,,,,,,,,,,,,,,,,,,,,,,,,,,,,,,,,,,,,,,,,,,,,,,,,,,,,,,,,,,,,,,,,,,,,,,,,,,,,,,,,,,,,,,,,,,,,,,,,,,,
,,,,,,5f5286c9fe322954c5256681,62c539a225cc44bfddb0f10b,2022-07-06_09h28.45.815,Colour_Asymmetry_Pilot,2022.1.3,Win32,59.75143403,62c50e9c1127f2cd403a315f,0,91,91,5,1,threefour,,,,,,,,,,,,,,,,,,,,,,,,,,,,,,,,,,,,,,,,,,,,,,,,,,,,,,,,,,,,,,,,,,,,,,,,,,,,,,,,,,,,,,,,,,,,,,,,,,,,,,,,,,,,,,,,,,,,,,,,,,,,,,,,,,,,,,,,,,,,,,,,,,,,,,,,,,,,,
,,,,,,5f5286c9fe322954c5256681,62c539a225cc44bfddb0f10b,2022-07-06_09h28.45.815,Colour_Asymmetry_Pilot,2022.1.3,Win32,59.75143403,62c50e9c1127f2cd403a315f,0,92,92,142,1,fourtwo,,,,,,,,,,,,,,,,,,,,,,,,,,,,,,,,,,,,,,,,,,,,,,,,,,,,,,,,,,,,,,,,,,,,,,,,,,,,,,,,,,,,,,,,,,,,,,,,,,,,,,,,,,,,,,,,,,,,,,,,,,,,,,,,,,,,,,,,,,,,,,,,,,,,,,,,,,,,,
,,,,,,5f5286c9fe322954c5256681,62c539a225cc44bfddb0f10b,2022-07-06_09h28.45.815,Colour_Asymmetry_Pilot,2022.1.3,Win32,59.75143403,62c50e9c1127f2cd403a315f,0,93,93,131,1,twofour,,,,,,,,,,,,,,,,,,,,,,,,,,,,,,,,,,,,,,,,,,,,,,,,,,,,,,,,,,,,,,,,,,,,,,,,,,,,,,,,,,,,,,,,,,,,,,,,,,,,,,,,,,,,,,,,,,,,,,,,,,,,,,,,,,,,,,,,,,,,,,,,,,,,,,,,,,,,,
,,,,,,5f5286c9fe322954c5256681,62c539a225cc44bfddb0f10b,2022-07-06_09h28.45.815,Colour_Asymmetry_Pilot,2022.1.3,Win32,59.75143403,62c50e9c1127f2cd403a315f,0,94,94,63,1,fourthree,,,,,,,,,,,,,,,,,,,,,,,,,,,,,,,,,,,,,,,,,,,,,,,,,,,,,,,,,,,,,,,,,,,,,,,,,,,,,,,,,,,,,,,,,,,,,,,,,,,,,,,,,,,,,,,,,,,,,,,,,,,,,,,,,,,,,,,,,,,,,,,,,,,,,,,,,,,,,
,,,,,,5f5286c9fe322954c5256681,62c539a225cc44bfddb0f10b,2022-07-06_09h28.45.815,Colour_Asymmetry_Pilot,2022.1.3,Win32,59.75143403,62c50e9c1127f2cd403a315f,0,95,95,73,1,onethree,,,,,,,,,,,,,,,,,,,,,,,,,,,,,,,,,,,,,,,,,,,,,,,,,,,,,,,,,,,,,,,,,,,,,,,,,,,,,,,,,,,,,,,,,,,,,,,,,,,,,,,,,,,,,,,,,,,,,,,,,,,,,,,,,,,,,,,,,,,,,,,,,,,,,,,,,,,,,
,,,,,,5f5286c9fe322954c5256681,62c539a225cc44bfddb0f10b,2022-07-06_09h28.45.815,Colour_Asymmetry_Pilot,2022.1.3,Win32,59.75143403,62c50e9c1127f2cd403a315f,0,96,96,126,1,fourtwo,,,,,,,,,,,,,,,,,,,,,,,,,,,,,,,,,,,,,,,,,,,,,,,,,,,,,,,,,,,,,,,,,,,,,,,,,,,,,,,,,,,,,,,,,,,,,,,,,,,,,,,,,,,,,,,,,,,,,,,,,,,,,,,,,,,,,,,,,,,,,,,,,,,,,,,,,,,,,
,,,,,,5f5286c9fe322954c5256681,62c539a225cc44bfddb0f10b,2022-07-06_09h28.45.815,Colour_Asymmetry_Pilot,2022.1.3,Win32,59.75143403,62c50e9c1127f2cd403a315f,0,97,97,137,1,onethree,,,,,,,,,,,,,,,,,,,,,,,,,,,,,,,,,,,,,,,,,,,,,,,,,,,,,,,,,,,,,,,,,,,,,,,,,,,,,,,,,,,,,,,,,,,,,,,,,,,,,,,,,,,,,,,,,,,,,,,,,,,,,,,,,,,,,,,,,,,,,,,,,,,,,,,,,,,,,
,,,,,,5f5286c9fe322954c5256681,62c539a225cc44bfddb0f10b,2022-07-06_09h28.45.815,Colour_Asymmetry_Pilot,2022.1.3,Win32,59.75143403,62c50e9c1127f2cd403a315f,0,98,98,128,1,onetwo,,,,,,,,,,,,,,,,,,,,,,,,,,,,,,,,,,,,,,,,,,,,,,,,,,,,,,,,,,,,,,,,,,,,,,,,,,,,,,,,,,,,,,,,,,,,,,,,,,,,,,,,,,,,,,,,,,,,,,,,,,,,,,,,,,,,,,,,,,,,,,,,,,,,,,,,,,,,,
,,,,,,5f5286c9fe322954c5256681,62c539a225cc44bfddb0f10b,2022-07-06_09h28.45.815,Colour_Asymmetry_Pilot,2022.1.3,Win32,59.75143403,62c50e9c1127f2cd403a315f,0,99,99,6,1,fourtwo,,,,,,,,,,,,,,,,,,,,,,,,,,,,,,,,,,,,,,,,,,,,,,,,,,,,,,,,,,,,,,,,,,,,,,,,,,,,,,,,,,,,,,,,,,,,,,,,,,,,,,,,,,,,,,,,,,,,,,,,,,,,,,,,,,,,,,,,,,,,,,,,,,,,,,,,,,,,,
,,,,,,5f5286c9fe322954c5256681,62c539a225cc44bfddb0f10b,2022-07-06_09h28.45.815,Colour_Asymmetry_Pilot,2022.1.3,Win32,59.75143403,62c50e9c1127f2cd403a315f,0,100,100,90,1,twoone,,,,,,,,,,,,,,,,,,,,,,,,,,,,,,,,,,,,,,,,,,,,,,,,,,,,,,,,,,,,,,,,,,,,,,,,,,,,,,,,,,,,,,,,,,,,,,,,,,,,,,,,,,,,,,,,,,,,,,,,,,,,,,,,,,,,,,,,,,,,,,,,,,,,,,,,,,,,,
,,,,,,5f5286c9fe322954c5256681,62c539a225cc44bfddb0f10b,2022-07-06_09h28.45.815,Colour_Asymmetry_Pilot,2022.1.3,Win32,59.75143403,62c50e9c1127f2cd403a315f,0,101,101,67,1,twofour,,,,,,,,,,,,,,,,,,,,,,,,,,,,,,,,,,,,,,,,,,,,,,,,,,,,,,,,,,,,,,,,,,,,,,,,,,,,,,,,,,,,,,,,,,,,,,,,,,,,,,,,,,,,,,,,,,,,,,,,,,,,,,,,,,,,,,,,,,,,,,,,,,,,,,,,,,,,,
,,,,,,5f5286c9fe322954c5256681,62c539a225cc44bfddb0f10b,2022-07-06_09h28.45.815,Colour_Asymmetry_Pilot,2022.1.3,Win32,59.75143403,62c50e9c1127f2cd403a315f,0,102,102,145,1,onethree,,,,,,,,,,,,,,,,,,,,,,,,,,,,,,,,,,,,,,,,,,,,,,,,,,,,,,,,,,,,,,,,,,,,,,,,,,,,,,,,,,,,,,,,,,,,,,,,,,,,,,,,,,,,,,,,,,,,,,,,,,,,,,,,,,,,,,,,,,,,,,,,,,,,,,,,,,,,,
,,,,,,5f5286c9fe322954c5256681,62c539a225cc44bfddb0f10b,2022-07-06_09h28.45.815,Colour_Asymmetry_Pilot,2022.1.3,Win32,59.75143403,62c50e9c1127f2cd403a315f,0,103,103,97,1,onethree,,,,,,,,,,,,,,,,,,,,,,,,,,,,,,,,,,,,,,,,,,,,,,,,,,,,,,,,,,,,,,,,,,,,,,,,,,,,,,,,,,,,,,,,,,,,,,,,,,,,,,,,,,,,,,,,,,,,,,,,,,,,,,,,,,,,,,,,,,,,,,,,,,,,,,,,,,,,,
,,,,,,5f5286c9fe322954c5256681,62c539a225cc44bfddb0f10b,2022-07-06_09h28.45.815,Colour_Asymmetry_Pilot,2022.1.3,Win32,59.75143403,62c50e9c1127f2cd403a315f,0,104,104,13,1,threefour,,,,,,,,,,,,,,,,,,,,,,,,,,,,,,,,,,,,,,,,,,,,,,,,,,,,,,,,,,,,,,,,,,,,,,,,,,,,,,,,,,,,,,,,,,,,,,,,,,,,,,,,,,,,,,,,,,,,,,,,,,,,,,,,,,,,,,,,,,,,,,,,,,,,,,,,,,,,,
,,,,,,5f5286c9fe322954c5256681,62c539a225cc44bfddb0f10b,2022-07-06_09h28.45.815,Colour_Asymmetry_Pilot,2022.1.3,Win32,59.75143403,62c50e9c1127f2cd403a315f,0,105,105,61,1,threefour,,,,,,,,,,,,,,,,,,,,,,,,,,,,,,,,,,,,,,,,,,,,,,,,,,,,,,,,,,,,,,,,,,,,,,,,,,,,,,,,,,,,,,,,,,,,,,,,,,,,,,,,,,,,,,,,,,,,,,,,,,,,,,,,,,,,,,,,,,,,,,,,,,,,,,,,,,,,,
,,,,,,5f5286c9fe322954c5256681,62c539a225cc44bfddb0f10b,2022-07-06_09h28.45.815,Colour_Asymmetry_Pilot,2022.1.3,Win32,59.75143403,62c50e9c1127f2cd403a315f,0,106,106,107,1,twofour,,,,,,,,,,,,,,,,,,,,,,,,,,,,,,,,,,,,,,,,,,,,,,,,,,,,,,,,,,,,,,,,,,,,,,,,,,,,,,,,,,,,,,,,,,,,,,,,,,,,,,,,,,,,,,,,,,,,,,,,,,,,,,,,,,,,,,,,,,,,,,,,,,,,,,,,,,,,,
,,,,,,5f5286c9fe322954c5256681,62c539a225cc44bfddb0f10b,2022-07-06_09h28.45.815,Colour_Asymmetry_Pilot,2022.1.3,Win32,59.75143403,62c50e9c1127f2cd403a315f,0,107,107,45,1,threefour,,,,,,,,,,,,,,,,,,,,,,,,,,,,,,,,,,,,,,,,,,,,,,,,,,,,,,,,,,,,,,,,,,,,,,,,,,,,,,,,,,,,,,,,,,,,,,,,,,,,,,,,,,,,,,,,,,,,,,,,,,,,,,,,,,,,,,,,,,,,,,,,,,,,,,,,,,,,,
,,,,,,5f5286c9fe322954c5256681,62c539a225cc44bfddb0f10b,2022-07-06_09h28.45.815,Colour_Asymmetry_Pilot,2022.1.3,Win32,59.75143403,62c50e9c1127f2cd403a315f,0,108,108,41,1,onethree,,,,,,,,,,,,,,,,,,,,,,,,,,,,,,,,,,,,,,,,,,,,,,,,,,,,,,,,,,,,,,,,,,,,,,,,,,,,,,,,,,,,,,,,,,,,,,,,,,,,,,,,,,,,,,,,,,,,,,,,,,,,,,,,,,,,,,,,,,,,,,,,,,,,,,,,,,,,,
,,,,,,5f5286c9fe322954c5256681,62c539a225cc44bfddb0f10b,2022-07-06_09h28.45.815,Colour_Asymmetry_Pilot,2022.1.3,Win32,59.75143403,62c50e9c1127f2cd403a315f,0,109,109,28,1,threeone,,,,,,,,,,,,,,,,,,,,,,,,,,,,,,,,,,,,,,,,,,,,,,,,,,,,,,,,,,,,,,,,,,,,,,,,,,,,,,,,,,,,,,,,,,,,,,,,,,,,,,,,,,,,,,,,,,,,,,,,,,,,,,,,,,,,,,,,,,,,,,,,,,,,,,,,,,,,,
,,,,,,5f5286c9fe322954c5256681,62c539a225cc44bfddb0f10b,2022-07-06_09h28.45.815,Colour_Asymmetry_Pilot,2022.1.3,Win32,59.75143403,62c50e9c1127f2cd403a315f,0,110,110,86,1,fourtwo,,,,,,,,,,,,,,,,,,,,,,,,,,,,,,,,,,,,,,,,,,,,,,,,,,,,,,,,,,,,,,,,,,,,,,,,,,,,,,,,,,,,,,,,,,,,,,,,,,,,,,,,,,,,,,,,,,,,,,,,,,,,,,,,,,,,,,,,,,,,,,,,,,,,,,,,,,,,,
,,,,,,5f5286c9fe322954c5256681,62c539a225cc44bfddb0f10b,2022-07-06_09h28.45.815,Colour_Asymmetry_Pilot,2022.1.3,Win32,59.75143403,62c50e9c1127f2cd403a315f,0,111,111,146,1,twoone,,,,,,,,,,,,,,,,,,,,,,,,,,,,,,,,,,,,,,,,,,,,,,,,,,,,,,,,,,,,,,,,,,,,,,,,,,,,,,,,,,,,,,,,,,,,,,,,,,,,,,,,,,,,,,,,,,,,,,,,,,,,,,,,,,,,,,,,,,,,,,,,,,,,,,,,,,,,,
,,,,,,5f5286c9fe322954c5256681,62c539a225cc44bfddb0f10b,2022-07-06_09h28.45.815,Colour_Asymmetry_Pilot,2022.1.3,Win32,59.75143403,62c50e9c1127f2cd403a315f,0,112,112,33,1,onethree,,,,,,,,,,,,,,,,,,,,,,,,,,,,,,,,,,,,,,,,,,,,,,,,,,,,,,,,,,,,,,,,,,,,,,,,,,,,,,,,,,,,,,,,,,,,,,,,,,,,,,,,,,,,,,,,,,,,,,,,,,,,,,,,,,,,,,,,,,,,,,,,,,,,,,,,,,,,,
,,,,,,5f5286c9fe322954c5256681,62c539a225cc44bfddb0f10b,2022-07-06_09h28.45.815,Colour_Asymmetry_Pilot,2022.1.3,Win32,59.75143403,62c50e9c1127f2cd403a315f,0,113,113,14,1,fourtwo,,,,,,,,,,,,,,,,,,,,,,,,,,,,,,,,,,,,,,,,,,,,,,,,,,,,,,,,,,,,,,,,,,,,,,,,,,,,,,,,,,,,,,,,,,,,,,,,,,,,,,,,,,,,,,,,,,,,,,,,,,,,,,,,,,,,,,,,,,,,,,,,,,,,,,,,,,,,,
,,,,,,5f5286c9fe322954c5256681,62c539a225cc44bfddb0f10b,2022-07-06_09h28.45.815,Colour_Asymmetry_Pilot,2022.1.3,Win32,59.75143403,62c50e9c1127f2cd403a315f,0,114,114,92,1,threeone,,,,,,,,,,,,,,,,,,,,,,,,,,,,,,,,,,,,,,,,,,,,,,,,,,,,,,,,,,,,,,,,,,,,,,,,,,,,,,,,,,,,,,,,,,,,,,,,,,,,,,,,,,,,,,,,,,,,,,,,,,,,,,,,,,,,,,,,,,,,,,,,,,,,,,,,,,,,,
,,,,,,5f5286c9fe322954c5256681,62c539a225cc44bfddb0f10b,2022-07-06_09h28.45.815,Colour_Asymmetry_Pilot,2022.1.3,Win32,59.75143403,62c50e9c1127f2cd403a315f,0,115,115,29,1,threefour,,,,,,,,,,,,,,,,,,,,,,,,,,,,,,,,,,,,,,,,,,,,,,,,,,,,,,,,,,,,,,,,,,,,,,,,,,,,,,,,,,,,,,,,,,,,,,,,,,,,,,,,,,,,,,,,,,,,,,,,,,,,,,,,,,,,,,,,,,,,,,,,,,,,,,,,,,,,,
,,,,,,5f5286c9fe322954c5256681,62c539a225cc44bfddb0f10b,2022-07-06_09h28.45.815,Colour_Asymmetry_Pilot,2022.1.3,Win32,59.75143403,62c50e9c1127f2cd403a315f,0,116,116,102,1,fourtwo,,,,,,,,,,,,,,,,,,,,,,,,,,,,,,,,,,,,,,,,,,,,,,,,,,,,,,,,,,,,,,,,,,,,,,,,,,,,,,,,,,,,,,,,,,,,,,,,,,,,,,,,,,,,,,,,,,,,,,,,,,,,,,,,,,,,,,,,,,,,,,,,,,,,,,,,,,,,,
,,,,,,5f5286c9fe322954c5256681,62c539a225cc44bfddb0f10b,2022-07-06_09h28.45.815,Colour_Asymmetry_Pilot,2022.1.3,Win32,59.75143403,62c50e9c1127f2cd403a315f,0,117,117,109,1,threefour,,,,,,,,,,,,,,,,,,,,,,,,,,,,,,,,,,,,,,,,,,,,,,,,,,,,,,,,,,,,,,,,,,,,,,,,,,,,,,,,,,,,,,,,,,,,,,,,,,,,,,,,,,,,,,,,,,,,,,,,,,,,,,,,,,,,,,,,,,,,,,,,,,,,,,,,,,,,,
,,,,,,5f5286c9fe322954c5256681,62c539a225cc44bfddb0f10b,2022-07-06_09h28.45.815,Colour_Asymmetry_Pilot,2022.1.3,Win32,59.75143403,62c50e9c1127f2cd403a315f,0,118,118,129,1,onethree,,,,,,,,,,,,,,,,,,,,,,,,,,,,,,,,,,,,,,,,,,,,,,,,,,,,,,,,,,,,,,,,,,,,,,,,,,,,,,,,,,,,,,,,,,,,,,,,,,,,,,,,,,,,,,,,,,,,,,,,,,,,,,,,,,,,,,,,,,,,,,,,,,,,,,,,,,,,,
,,,,,,5f5286c9fe322954c5256681,62c539a225cc44bfddb0f10b,2022-07-06_09h28.45.815,Colour_Asymmetry_Pilot,2022.1.3,Win32,59.75143403,62c50e9c1127f2cd403a315f,0,119,119,49,1,onethree,,,,,,,,,,,,,,,,,,,,,,,,,,,,,,,,,,,,,,,,,,,,,,,,,,,,,,,,,,,,,,,,,,,,,,,,,,,,,,,,,,,,,,,,,,,,,,,,,,,,,,,,,,,,,,,,,,,,,,,,,,,,,,,,,,,,,,,,,,,,,,,,,,,,,,,,,,,,,
,,,,,,5f5286c9fe322954c5256681,62c539a225cc44bfddb0f10b,2022-07-06_09h28.45.815,Colour_Asymmetry_Pilot,2022.1.3,Win32,59.75143403,62c50e9c1127f2cd403a315f,0,120,120,103,1,fourthree,,,,,,,,,,,,,,,,,,,,,,,,,,,,,,,,,,,,,,,,,,,,,,,,,,,,,,,,,,,,,,,,,,,,,,,,,,,,,,,,,,,,,,,,,,,,,,,,,,,,,,,,,,,,,,,,,,,,,,,,,,,,,,,,,,,,,,,,,,,,,,,,,,,,,,,,,,,,,
,,,,,,5f5286c9fe322954c5256681,62c539a225cc44bfddb0f10b,2022-07-06_09h28.45.815,Colour_Asymmetry_Pilot,2022.1.3,Win32,59.75143403,62c50e9c1127f2cd403a315f,0,121,121,23,1,fourthree,,,,,,,,,,,,,,,,,,,,,,,,,,,,,,,,,,,,,,,,,,,,,,,,,,,,,,,,,,,,,,,,,,,,,,,,,,,,,,,,,,,,,,,,,,,,,,,,,,,,,,,,,,,,,,,,,,,,,,,,,,,,,,,,,,,,,,,,,,,,,,,,,,,,,,,,,,,,,
,,,,,,5f5286c9fe322954c5256681,62c539a225cc44bfddb0f10b,2022-07-06_09h28.45.815,Colour_Asymmetry_Pilot,2022.1.3,Win32,59.75143403,62c50e9c1127f2cd403a315f,0,122,122,48,1,onetwo,,,,,,,,,,,,,,,,,,,,,,,,,,,,,,,,,,,,,,,,,,,,,,,,,,,,,,,,,,,,,,,,,,,,,,,,,,,,,,,,,,,,,,,,,,,,,,,,,,,,,,,,,,,,,,,,,,,,,,,,,,,,,,,,,,,,,,,,,,,,,,,,,,,,,,,,,,,,,
,,,,,,5f5286c9fe322954c5256681,62c539a225cc44bfddb0f10b,2022-07-06_09h28.45.815,Colour_Asymmetry_Pilot,2022.1.3,Win32,59.75143403,62c50e9c1127f2cd403a315f,0,123,123,43,1,twofour,,,,,,,,,,,,,,,,,,,,,,,,,,,,,,,,,,,,,,,,,,,,,,,,,,,,,,,,,,,,,,,,,,,,,,,,,,,,,,,,,,,,,,,,,,,,,,,,,,,,,,,,,,,,,,,,,,,,,,,,,,,,,,,,,,,,,,,,,,,,,,,,,,,,,,,,,,,,,
,,,,,,5f5286c9fe322954c5256681,62c539a225cc44bfddb0f10b,2022-07-06_09h28.45.815,Colour_Asymmetry_Pilot,2022.1.3,Win32,59.75143403,62c50e9c1127f2cd403a315f,0,124,124,58,1,twoone,,,,,,,,,,,,,,,,,,,,,,,,,,,,,,,,,,,,,,,,,,,,,,,,,,,,,,,,,,,,,,,,,,,,,,,,,,,,,,,,,,,,,,,,,,,,,,,,,,,,,,,,,,,,,,,,,,,,,,,,,,,,,,,,,,,,,,,,,,,,,,,,,,,,,,,,,,,,,
,,,,,,5f5286c9fe322954c5256681,62c539a225cc44bfddb0f10b,2022-07-06_09h28.45.815,Colour_Asymmetry_Pilot,2022.1.3,Win32,59.75143403,62c50e9c1127f2cd403a315f,0,125,125,106,1,twoone,,,,,,,,,,,,,,,,,,,,,,,,,,,,,,,,,,,,,,,,,,,,,,,,,,,,,,,,,,,,,,,,,,,,,,,,,,,,,,,,,,,,,,,,,,,,,,,,,,,,,,,,,,,,,,,,,,,,,,,,,,,,,,,,,,,,,,,,,,,,,,,,,,,,,,,,,,,,,
,,,,,,5f5286c9fe322954c5256681,62c539a225cc44bfddb0f10b,2022-07-06_09h28.45.815,Colour_Asymmetry_Pilot,2022.1.3,Win32,59.75143403,62c50e9c1127f2cd403a315f,0,126,126,119,1,fourthree,,,,,,,,,,,,,,,,,,,,,,,,,,,,,,,,,,,,,,,,,,,,,,,,,,,,,,,,,,,,,,,,,,,,,,,,,,,,,,,,,,,,,,,,,,,,,,,,,,,,,,,,,,,,,,,,,,,,,,,,,,,,,,,,,,,,,,,,,,,,,,,,,,,,,,,,,,,,,
,,,,,,5f5286c9fe322954c5256681,62c539a225cc44bfddb0f10b,2022-07-06_09h28.45.815,Colour_Asymmetry_Pilot,2022.1.3,Win32,59.75143403,62c50e9c1127f2cd403a315f,0,127,127,151,1,fourthree,,,,,,,,,,,,,,,,,,,,,,,,,,,,,,,,,,,,,,,,,,,,,,,,,,,,,,,,,,,,,,,,,,,,,,,,,,,,,,,,,,,,,,,,,,,,,,,,,,,,,,,,,,,,,,,,,,,,,,,,,,,,,,,,,,,,,,,,,,,,,,,,,,,,,,,,,,,,,
,,,,,,5f5286c9fe322954c5256681,62c539a225cc44bfddb0f10b,2022-07-06_09h28.45.815,Colour_Asymmetry_Pilot,2022.1.3,Win32,59.75143403,62c50e9c1127f2cd403a315f,0,128,128,152,1,onetwo,,,,,,,,,,,,,,,,,,,,,,,,,,,,,,,,,,,,,,,,,,,,,,,,,,,,,,,,,,,,,,,,,,,,,,,,,,,,,,,,,,,,,,,,,,,,,,,,,,,,,,,,,,,,,,,,,,,,,,,,,,,,,,,,,,,,,,,,,,,,,,,,,,,,,,,,,,,,,
,,,,,,5f5286c9fe322954c5256681,62c539a225cc44bfddb0f10b,2022-07-06_09h28.45.815,Colour_Asymmetry_Pilot,2022.1.3,Win32,59.75143403,62c50e9c1127f2cd403a315f,0,129,129,80,1,onetwo,,,,,,,,,,,,,,,,,,,,,,,,,,,,,,,,,,,,,,,,,,,,,,,,,,,,,,,,,,,,,,,,,,,,,,,,,,,,,,,,,,,,,,,,,,,,,,,,,,,,,,,,,,,,,,,,,,,,,,,,,,,,,,,,,,,,,,,,,,,,,,,,,,,,,,,,,,,,,
,,,,,,5f5286c9fe322954c5256681,62c539a225cc44bfddb0f10b,2022-07-06_09h28.45.815,Colour_Asymmetry_Pilot,2022.1.3,Win32,59.75143403,62c50e9c1127f2cd403a315f,0,130,130,147,1,twofour,,,,,,,,,,,,,,,,,,,,,,,,,,,,,,,,,,,,,,,,,,,,,,,,,,,,,,,,,,,,,,,,,,,,,,,,,,,,,,,,,,,,,,,,,,,,,,,,,,,,,,,,,,,,,,,,,,,,,,,,,,,,,,,,,,,,,,,,,,,,,,,,,,,,,,,,,,,,,
,,,,,,5f5286c9fe322954c5256681,62c539a225cc44bfddb0f10b,2022-07-06_09h28.45.815,Colour_Asymmetry_Pilot,2022.1.3,Win32,59.75143403,62c50e9c1127f2cd403a315f,0,131,131,160,1,onetwo,,,,,,,,,,,,,,,,,,,,,,,,,,,,,,,,,,,,,,,,,,,,,,,,,,,,,,,,,,,,,,,,,,,,,,,,,,,,,,,,,,,,,,,,,,,,,,,,,,,,,,,,,,,,,,,,,,,,,,,,,,,,,,,,,,,,,,,,,,,,,,,,,,,,,,,,,,,,,
,,,,,,5f5286c9fe322954c5256681,62c539a225cc44bfddb0f10b,2022-07-06_09h28.45.815,Colour_Asymmetry_Pilot,2022.1.3,Win32,59.75143403,62c50e9c1127f2cd403a315f,0,132,132,150,1,fourtwo,,,,,,,,,,,,,,,,,,,,,,,,,,,,,,,,,,,,,,,,,,,,,,,,,,,,,,,,,,,,,,,,,,,,,,,,,,,,,,,,,,,,,,,,,,,,,,,,,,,,,,,,,,,,,,,,,,,,,,,,,,,,,,,,,,,,,,,,,,,,,,,,,,,,,,,,,,,,,
,,,,,,5f5286c9fe322954c5256681,62c539a225cc44bfddb0f10b,2022-07-06_09h28.45.815,Colour_Asymmetry_Pilot,2022.1.3,Win32,59.75143403,62c50e9c1127f2cd403a315f,0,133,133,57,1,onethree,,,,,,,,,,,,,,,,,,,,,,,,,,,,,,,,,,,,,,,,,,,,,,,,,,,,,,,,,,,,,,,,,,,,,,,,,,,,,,,,,,,,,,,,,,,,,,,,,,,,,,,,,,,,,,,,,,,,,,,,,,,,,,,,,,,,,,,,,,,,,,,,,,,,,,,,,,,,,
,,,,,,5f5286c9fe322954c5256681,62c539a225cc44bfddb0f10b,2022-07-06_09h28.45.815,Colour_Asymmetry_Pilot,2022.1.3,Win32,59.75143403,62c50e9c1127f2cd403a315f,0,134,134,71,1,fourthree,,,,,,,,,,,,,,,,,,,,,,,,,,,,,,,,,,,,,,,,,,,,,,,,,,,,,,,,,,,,,,,,,,,,,,,,,,,,,,,,,,,,,,,,,,,,,,,,,,,,,,,,,,,,,,,,,,,,,,,,,,,,,,,,,,,,,,,,,,,,,,,,,,,,,,,,,,,,,
,,,,,,5f5286c9fe322954c5256681,62c539a225cc44bfddb0f10b,2022-07-06_09h28.45.815,Colour_Asymmetry_Pilot,2022.1.3,Win32,59.75143403,62c50e9c1127f2cd403a315f,0,135,135,70,1,fourtwo,,,,,,,,,,,,,,,,,,,,,,,,,,,,,,,,,,,,,,,,,,,,,,,,,,,,,,,,,,,,,,,,,,,,,,,,,,,,,,,,,,,,,,,,,,,,,,,,,,,,,,,,,,,,,,,,,,,,,,,,,,,,,,,,,,,,,,,,,,,,,,,,,,,,,,,,,,,,,
,,,,,,5f5286c9fe322954c5256681,62c539a225cc44bfddb0f10b,2022-07-06_09h28.45.815,Colour_Asymmetry_Pilot,2022.1.3,Win32,59.75143403,62c50e9c1127f2cd403a315f,0,136,136,105,1,onethree,,,,,,,,,,,,,,,,,,,,,,,,,,,,,,,,,,,,,,,,,,,,,,,,,,,,,,,,,,,,,,,,,,,,,,,,,,,,,,,,,,,,,,,,,,,,,,,,,,,,,,,,,,,,,,,,,,,,,,,,,,,,,,,,,,,,,,,,,,,,,,,,,,,,,,,,,,,,,
,,,,,,5f5286c9fe322954c5256681,62c539a225cc44bfddb0f10b,2022-07-06_09h28.45.815,Colour_Asymmetry_Pilot,2022.1.3,Win32,59.75143403,62c50e9c1127f2cd403a315f,0,137,137,31,1,fourthree,,,,,,,,,,,,,,,,,,,,,,,,,,,,,,,,,,,,,,,,,,,,,,,,,,,,,,,,,,,,,,,,,,,,,,,,,,,,,,,,,,,,,,,,,,,,,,,,,,,,,,,,,,,,,,,,,,,,,,,,,,,,,,,,,,,,,,,,,,,,,,,,,,,,,,,,,,,,,
,,,,,,5f5286c9fe322954c5256681,62c539a225cc44bfddb0f10b,2022-07-06_09h28.45.815,Colour_Asymmetry_Pilot,2022.1.3,Win32,59.75143403,62c50e9c1127f2cd403a315f,0,138,138,157,1,threefour,,,,,,,,,,,,,,,,,,,,,,,,,,,,,,,,,,,,,,,,,,,,,,,,,,,,,,,,,,,,,,,,,,,,,,,,,,,,,,,,,,,,,,,,,,,,,,,,,,,,,,,,,,,,,,,,,,,,,,,,,,,,,,,,,,,,,,,,,,,,,,,,,,,,,,,,,,,,,
,,,,,,5f5286c9fe322954c5256681,62c539a225cc44bfddb0f10b,2022-07-06_09h28.45.815,Colour_Asymmetry_Pilot,2022.1.3,Win32,59.75143403,62c50e9c1127f2cd403a315f,0,139,139,46,1,fourtwo,,,,,,,,,,,,,,,,,,,,,,,,,,,,,,,,,,,,,,,,,,,,,,,,,,,,,,,,,,,,,,,,,,,,,,,,,,,,,,,,,,,,,,,,,,,,,,,,,,,,,,,,,,,,,,,,,,,,,,,,,,,,,,,,,,,,,,,,,,,,,,,,,,,,,,,,,,,,,
,,,,,,5f5286c9fe322954c5256681,62c539a225cc44bfddb0f10b,2022-07-06_09h28.45.815,Colour_Asymmetry_Pilot,2022.1.3,Win32,59.75143403,62c50e9c1127f2cd403a315f,0,140,140,12,1,threeone,,,,,,,,,,,,,,,,,,,,,,,,,,,,,,,,,,,,,,,,,,,,,,,,,,,,,,,,,,,,,,,,,,,,,,,,,,,,,,,,,,,,,,,,,,,,,,,,,,,,,,,,,,,,,,,,,,,,,,,,,,,,,,,,,,,,,,,,,,,,,,,,,,,,,,,,,,,,,
,,,,,,5f5286c9fe322954c5256681,62c539a225cc44bfddb0f10b,2022-07-06_09h28.45.815,Colour_Asymmetry_Pilot,2022.1.3,Win32,59.75143403,62c50e9c1127f2cd403a315f,0,141,141,133,1,threefour,,,,,,,,,,,,,,,,,,,,,,,,,,,,,,,,,,,,,,,,,,,,,,,,,,,,,,,,,,,,,,,,,,,,,,,,,,,,,,,,,,,,,,,,,,,,,,,,,,,,,,,,,,,,,,,,,,,,,,,,,,,,,,,,,,,,,,,,,,,,,,,,,,,,,,,,,,,,,
,,,,,,5f5286c9fe322954c5256681,62c539a225cc44bfddb0f10b,2022-07-06_09h28.45.815,Colour_Asymmetry_Pilot,2022.1.3,Win32,59.75143403,62c50e9c1127f2cd403a315f,0,142,142,104,1,onetwo,,,,,,,,,,,,,,,,,,,,,,,,,,,,,,,,,,,,,,,,,,,,,,,,,,,,,,,,,,,,,,,,,,,,,,,,,,,,,,,,,,,,,,,,,,,,,,,,,,,,,,,,,,,,,,,,,,,,,,,,,,,,,,,,,,,,,,,,,,,,,,,,,,,,,,,,,,,,,
,,,,,,5f5286c9fe322954c5256681,62c539a225cc44bfddb0f10b,2022-07-06_09h28.45.815,Colour_Asymmetry_Pilot,2022.1.3,Win32,59.75143403,62c50e9c1127f2cd403a315f,0,143,143,7,1,fourthree,,,,,,,,,,,,,,,,,,,,,,,,,,,,,,,,,,,,,,,,,,,,,,,,,,,,,,,,,,,,,,,,,,,,,,,,,,,,,,,,,,,,,,,,,,,,,,,,,,,,,,,,,,,,,,,,,,,,,,,,,,,,,,,,,,,,,,,,,,,,,,,,,,,,,,,,,,,,,
,,,,,,5f5286c9fe322954c5256681,62c539a225cc44bfddb0f10b,2022-07-06_09h28.45.815,Colour_Asymmetry_Pilot,2022.1.3,Win32,59.75143403,62c50e9c1127f2cd403a315f,0,144,144,40,1,onetwo,,,,,,,,,,,,,,,,,,,,,,,,,,,,,,,,,,,,,,,,,,,,,,,,,,,,,,,,,,,,,,,,,,,,,,,,,,,,,,,,,,,,,,,,,,,,,,,,,,,,,,,,,,,,,,,,,,,,,,,,,,,,,,,,,,,,,,,,,,,,,,,,,,,,,,,,,,,,,
,,,,,,5f5286c9fe322954c5256681,62c539a225cc44bfddb0f10b,2022-07-06_09h28.45.815,Colour_Asymmetry_Pilot,2022.1.3,Win32,59.75143403,62c50e9c1127f2cd403a315f,0,145,145,37,1,threefour,,,,,,,,,,,,,,,,,,,,,,,,,,,,,,,,,,,,,,,,,,,,,,,,,,,,,,,,,,,,,,,,,,,,,,,,,,,,,,,,,,,,,,,,,,,,,,,,,,,,,,,,,,,,,,,,,,,,,,,,,,,,,,,,,,,,,,,,,,,,,,,,,,,,,,,,,,,,,
,,,,,,5f5286c9fe322954c5256681,62c539a225cc44bfddb0f10b,2022-07-06_09h28.45.815,Colour_Asymmetry_Pilot,2022.1.3,Win32,59.75143403,62c50e9c1127f2cd403a315f,0,146,146,155,1,twofour,,,,,,,,,,,,,,,,,,,,,,,,,,,,,,,,,,,,,,,,,,,,,,,,,,,,,,,,,,,,,,,,,,,,,,,,,,,,,,,,,,,,,,,,,,,,,,,,,,,,,,,,,,,,,,,,,,,,,,,,,,,,,,,,,,,,,,,,,,,,,,,,,,,,,,,,,,,,,
,,,,,,5f5286c9fe322954c5256681,62c539a225cc44bfddb0f10b,2022-07-06_09h28.45.815,Colour_Asymmetry_Pilot,2022.1.3,Win32,59.75143403,62c50e9c1127f2cd403a315f,0,147,147,59,1,twofour,,,,,,,,,,,,,,,,,,,,,,,,,,,,,,,,,,,,,,,,,,,,,,,,,,,,,,,,,,,,,,,,,,,,,,,,,,,,,,,,,,,,,,,,,,,,,,,,,,,,,,,,,,,,,,,,,,,,,,,,,,,,,,,,,,,,,,,,,,,,,,,,,,,,,,,,,,,,,
,,,,,,5f5286c9fe322954c5256681,62c539a225cc44bfddb0f10b,2022-07-06_09h28.45.815,Colour_Asymmetry_Pilot,2022.1.3,Win32,59.75143403,62c50e9c1127f2cd403a315f,0,148,148,89,1,onethree,,,,,,,,,,,,,,,,,,,,,,,,,,,,,,,,,,,,,,,,,,,,,,,,,,,,,,,,,,,,,,,,,,,,,,,,,,,,,,,,,,,,,,,,,,,,,,,,,,,,,,,,,,,,,,,,,,,,,,,,,,,,,,,,,,,,,,,,,,,,,,,,,,,,,,,,,,,,,
,,,,,,5f5286c9fe322954c5256681,62c539a225cc44bfddb0f10b,2022-07-06_09h28.45.815,Colour_Asymmetry_Pilot,2022.1.3,Win32,59.75143403,62c50e9c1127f2cd403a315f,0,149,149,91,1,twofour,,,,,,,,,,,,,,,,,,,,,,,,,,,,,,,,,,,,,,,,,,,,,,,,,,,,,,,,,,,,,,,,,,,,,,,,,,,,,,,,,,,,,,,,,,,,,,,,,,,,,,,,,,,,,,,,,,,,,,,,,,,,,,,,,,,,,,,,,,,,,,,,,,,,,,,,,,,,,
,,,,,,5f5286c9fe322954c5256681,62c539a225cc44bfddb0f10b,2022-07-06_09h28.45.815,Colour_Asymmetry_Pilot,2022.1.3,Win32,59.75143403,62c50e9c1127f2cd403a315f,0,150,150,154,1,twoone,,,,,,,,,,,,,,,,,,,,,,,,,,,,,,,,,,,,,,,,,,,,,,,,,,,,,,,,,,,,,,,,,,,,,,,,,,,,,,,,,,,,,,,,,,,,,,,,,,,,,,,,,,,,,,,,,,,,,,,,,,,,,,,,,,,,,,,,,,,,,,,,,,,,,,,,,,,,,
,,,,,,5f5286c9fe322954c5256681,62c539a225cc44bfddb0f10b,2022-07-06_09h28.45.815,Colour_Asymmetry_Pilot,2022.1.3,Win32,59.75143403,62c50e9c1127f2cd403a315f,0,151,151,75,1,twofour,,,,,,,,,,,,,,,,,,,,,,,,,,,,,,,,,,,,,,,,,,,,,,,,,,,,,,,,,,,,,,,,,,,,,,,,,,,,,,,,,,,,,,,,,,,,,,,,,,,,,,,,,,,,,,,,,,,,,,,,,,,,,,,,,,,,,,,,,,,,,,,,,,,,,,,,,,,,,
,,,,,,5f5286c9fe322954c5256681,62c539a225cc44bfddb0f10b,2022-07-06_09h28.45.815,Colour_Asymmetry_Pilot,2022.1.3,Win32,59.75143403,62c50e9c1127f2cd403a315f,0,152,152,36,1,threeone,,,,,,,,,,,,,,,,,,,,,,,,,,,,,,,,,,,,,,,,,,,,,,,,,,,,,,,,,,,,,,,,,,,,,,,,,,,,,,,,,,,,,,,,,,,,,,,,,,,,,,,,,,,,,,,,,,,,,,,,,,,,,,,,,,,,,,,,,,,,,,,,,,,,,,,,,,,,,
,,,,,,5f5286c9fe322954c5256681,62c539a225cc44bfddb0f10b,2022-07-06_09h28.45.815,Colour_Asymmetry_Pilot,2022.1.3,Win32,59.75143403,62c50e9c1127f2cd403a315f,0,153,153,83,1,twofour,,,,,,,,,,,,,,,,,,,,,,,,,,,,,,,,,,,,,,,,,,,,,,,,,,,,,,,,,,,,,,,,,,,,,,,,,,,,,,,,,,,,,,,,,,,,,,,,,,,,,,,,,,,,,,,,,,,,,,,,,,,,,,,,,,,,,,,,,,,,,,,,,,,,,,,,,,,,,
,,,,,,5f5286c9fe322954c5256681,62c539a225cc44bfddb0f10b,2022-07-06_09h28.45.815,Colour_Asymmetry_Pilot,2022.1.3,Win32,59.75143403,62c50e9c1127f2cd403a315f,0,154,154,26,1,twoone,,,,,,,,,,,,,,,,,,,,,,,,,,,,,,,,,,,,,,,,,,,,,,,,,,,,,,,,,,,,,,,,,,,,,,,,,,,,,,,,,,,,,,,,,,,,,,,,,,,,,,,,,,,,,,,,,,,,,,,,,,,,,,,,,,,,,,,,,,,,,,,,,,,,,,,,,,,,,
,,,,,,5f5286c9fe322954c5256681,62c539a225cc44bfddb0f10b,2022-07-06_09h28.45.815,Colour_Asymmetry_Pilot,2022.1.3,Win32,59.75143403,62c50e9c1127f2cd403a315f,0,155,155,4,1,threeone,,,,,,,,,,,,,,,,,,,,,,,,,,,,,,,,,,,,,,,,,,,,,,,,,,,,,,,,,,,,,,,,,,,,,,,,,,,,,,,,,,,,,,,,,,,,,,,,,,,,,,,,,,,,,,,,,,,,,,,,,,,,,,,,,,,,,,,,,,,,,,,,,,,,,,,,,,,,,
,,,,,,5f5286c9fe322954c5256681,62c539a225cc44bfddb0f10b,2022-07-06_09h28.45.815,Colour_Asymmetry_Pilot,2022.1.3,Win32,59.75143403,62c50e9c1127f2cd403a315f,0,156,156,44,1,threeone,,,,,,,,,,,,,,,,,,,,,,,,,,,,,,,,,,,,,,,,,,,,,,,,,,,,,,,,,,,,,,,,,,,,,,,,,,,,,,,,,,,,,,,,,,,,,,,,,,,,,,,,,,,,,,,,,,,,,,,,,,,,,,,,,,,,,,,,,,,,,,,,,,,,,,,,,,,,,
,,,,,,5f5286c9fe322954c5256681,62c539a225cc44bfddb0f10b,2022-07-06_09h28.45.815,Colour_Asymmetry_Pilot,2022.1.3,Win32,59.75143403,62c50e9c1127f2cd403a315f,0,157,157,8,1,onetwo,,,,,,,,,,,,,,,,,,,,,,,,,,,,,,,,,,,,,,,,,,,,,,,,,,,,,,,,,,,,,,,,,,,,,,,,,,,,,,,,,,,,,,,,,,,,,,,,,,,,,,,,,,,,,,,,,,,,,,,,,,,,,,,,,,,,,,,,,,,,,,,,,,,,,,,,,,,,,
,,,,,,5f5286c9fe322954c5256681,62c539a225cc44bfddb0f10b,2022-07-06_09h28.45.815,Colour_Asymmetry_Pilot,2022.1.3,Win32,59.75143403,62c50e9c1127f2cd403a315f,0,158,158,50,1,twoone,,,,,,,,,,,,,,,,,,,,,,,,,,,,,,,,,,,,,,,,,,,,,,,,,,,,,,,,,,,,,,,,,,,,,,,,,,,,,,,,,,,,,,,,,,,,,,,,,,,,,,,,,,,,,,,,,,,,,,,,,,,,,,,,,,,,,,,,,,,,,,,,,,,,,,,,,,,,,
,,,,,,5f5286c9fe322954c5256681,62c539a225cc44bfddb0f10b,2022-07-06_09h28.45.815,Colour_Asymmetry_Pilot,2022.1.3,Win32,59.75143403,62c50e9c1127f2cd403a315f,0,159,159,24,1,onetwo,,,,,,,,,,,,,,,,,,,,,,,,,,,,,,,,,,,,,,,,,,,,,,,,,,,,,,,,,,,,,,,,,,,,,,,,,,,,,,,,,,,,,,,,,,,,,,,,,,,,,,,,,,,,,,,,,,,,,,,,,,,,,,,,,,,,,,,,,,,,,,,,,,,,,,,,,,,,,
,,,,,,5f5286c9fe322954c5256681,62c539a225cc44bfddb0f10b,2022-07-06_09h28.45.815,Colour_Asymmetry_Pilot,2022.1.3,Win32,59.75143403,62c50e9c1127f2cd403a315f,0,160,160,52,1,threeone,,,,,,,,,,,,,,,,,,,,,,,,,,,,,,,,,,,,,,,,,,,,,,,,,,,,,,,,,,,,,,,,,,,,,,,,,,,,,,,,,,,,,,,,,,,,,,,,,,,,,,,,,,,,,,,,,,,,,,,,,,,,,,,,,,,,,,,,,,,,,,,,,,,,,,,,,,,,,
,,,,,,5f5286c9fe322954c5256681,62c539a225cc44bfddb0f10b,2022-07-06_09h28.45.815,Colour_Asymmetry_Pilot,2022.1.3,Win32,59.75143403,62c50e9c1127f2cd403a315f,0,161,161,27,1,twofour,,,,,,,,,,,,,,,,,,,,,,,,,,,,,,,,,,,,,,,,,,,,,,,,,,,,,,,,,,,,,,,,,,,,,,,,,,,,,,,,,,,,,,,,,,,,,,,,,,,,,,,,,,,,,,,,,,,,,,,,,,,,,,,,,,,,,,,,,,,,,,,,,,,,,,,,,,,,,
,,,,,,5f5286c9fe322954c5256681,62c539a225cc44bfddb0f10b,2022-07-06_09h28.45.815,Colour_Asymmetry_Pilot,2022.1.3,Win32,59.75143403,62c50e9c1127f2cd403a315f,,,,,,,space,2.4306,space,1.1918,space,22.6147,space,6.301,space,4.5695,space,4.2859,"[0.9763999999999999,0.30979999999999985,-0.6786]",onetwo,"[-0.48240000000000005,0.3175999999999999,0.2156]",-3,0.8681,-100,73,1,0,0,response7disk_5,-17,-6,1,0,0,rectangle_8,117,-51,1,0,0,response3disk_7,5,2,18,-6,1,0,0,rectangle_4,0,0,0,0,1,,,,,,,,,,,,,,,,,,,,,,,,,,,,,,,,,,,,,,,,,,,,,,,,,,,,,,,,,,,,,,,,,,,,,,,,,,,,,,,,,,,,,,,,,,,,,,,,,,,,,,,,,,,,,
,,,,,,5f5286c9fe322954c5256681,62c539a225cc44bfddb0f10b,2022-07-06_09h28.45.815,Colour_Asymmetry_Pilot,2022.1.3,Win32,59.75143403,62c50e9c1127f2cd403a315f,,,,,,,,,,,,,,,,,,,"[-0.011800000000000033,-0.906,-0.45100000000000007]",twoone,"[0.9842,0.7409999999999999,-0.6628000000000001]",4,3.9404,60,119,1,0,0,response1disk_5,20,-9,1,0,0,rectangle_8,20,-9,1,0,0,,,2,20,-9,1,0,0,,1,0,1,0,1,,,,,,,,,,,,,,,,,,,,,,,,,,,,,,,,,,,,,,,,,,,,,,,,,,,,,,,,,,,,,,,,,,,,,,,,,,,,,,,,,,,,,,,,,,,,,,,,,,,,,,,,,,,,,
,,,,,,5f5286c9fe322954c5256681,62c539a225cc44bfddb0f10b,2022-07-06_09h28.45.815,Colour_Asymmetry_Pilot,2022.1.3,Win32,59.75143403,62c50e9c1127f2cd403a315f,,,,,,,,,,,,,,,,,,,"[-0.01980000000000004,-0.5138,-0.38039999999999996]",fourthree,"[-0.2942,-0.7648,-0.7492000000000001]",1,0.7836,97,-103,1,0,0,response3disk_5,18,12,1,0,0,rectangle_8,18,12,1,0,0,,,2,18,12,1,0,0,,2,0,2,0,1,,,,,,,,,,,,,,,,,,,,,,,,,,,,,,,,,,,,,,,,,,,,,,,,,,,,,,,,,,,,,,,,,,,,,,,,,,,,,,,,,,,,,,,,,,,,,,,,,,,,,,,,,,,,,
,,,,,,5f5286c9fe322954c5256681,62c539a225cc44bfddb0f10b,2022-07-06_09h28.45.815,Colour_Asymmetry_Pilot,2022.1.3,Win32,59.75143403,62c50e9c1127f2cd403a315f,,,,,,,,,,,,,,,,,,,"[0.23120000000000007,-0.7726,-0.34120000000000006]",fourthree,"[-0.17659999999999998,-0.2864,-0.8354]",-4,8.3994,-61,141,1,0,0,response7disk_5,14,6,1,0,0,rectangle_8,14,6,1,0,0,,,2,14,6,1,0,0,,3,0,3,0,1,,,,,,,,,,,,,,,,,,,,,,,,,,,,,,,,,,,,,,,,,,,,,,,,,,,,,,,,,,,,,,,,,,,,,,,,,,,,,,,,,,,,,,,,,,,,,,,,,,,,,,,,,,,,,
,,,,,,5f5286c9fe322954c5256681,62c539a225cc44bfddb0f10b,2022-07-06_09h28.45.815,Colour_Asymmetry_Pilot,2022.1.3,Win32,59.75143403,62c50e9c1127f2cd403a315f,,,,,,,,,,,,,,,,,,,"[-0.5922000000000001,-0.7492000000000001,-0.5296000000000001]",threefour,"[-0.5452,-0.608,0.2470000000000001]",-4,16.1333,-63,138,1,0,0,response7disk_5,-6,-3,1,0,0,rectangle_8,-6,-3,1,0,0,,,2,-6,-3,1,0,0,,4,0,4,0,1,,,,,,,,,,,,,,,,,,,,,,,,,,,,,,,,,,,,,,,,,,,,,,,,,,,,,,,,,,,,,,,,,,,,,,,,,,,,,,,,,,,,,,,,,,,,,,,,,,,,,,,,,,,,,
,,,,,,5f5286c9fe322954c5256681,62c539a225cc44bfddb0f10b,2022-07-06_09h28.45.815,Colour_Asymmetry_Pilot,2022.1.3,Win32,59.75143403,62c50e9c1127f2cd403a315f,,,,,,,,,,,,,,,,,,,"[-0.17659999999999998,-0.2864,-0.8354]",threeone,"[-0.09019999999999995,0.44300000000000006,0.5371999999999999]",-4,2.8178,-69,144,1,0,0,response7disk_5,-2,9,1,0,0,rectangle_8,-2,9,1,0,0,,,2,-2,9,1,0,0,,5,0,5,0,1,,,,,,,,,,,,,,,,,,,,,,,,,,,,,,,,,,,,,,,,,,,,,,,,,,,,,,,,,,,,,,,,,,,,,,,,,,,,,,,,,,,,,,,,,,,,,,,,,,,,,,,,,,,,,
,,,,,,5f5286c9fe322954c5256681,62c539a225cc44bfddb0f10b,2022-07-06_09h28.45.815,Colour_Asymmetry_Pilot,2022.1.3,Win32,59.75143403,62c50e9c1127f2cd403a315f,,,,,,,,,,,,,,,,,,,"[-0.8118,-0.8198,-0.5452]",twoone,"[0.9372,0.9450000000000001,0.8980000000000001]",-4,0.717,-62,115,1,0,0,response7disk_5,-5,10,1,0,0,rectangle_8,-5,10,1,0,0,,,2,-5,10,1,0,0,,6,0,6,0,1,,,,,,,,,,,,,,,,,,,,,,,,,,,,,,,,,,,,,,,,,,,,,,,,,,,,,,,,,,,,,,,,,,,,,,,,,,,,,,,,,,,,,,,,,,,,,,,,,,,,,,,,,,,,,
,,,,,,5f5286c9fe322954c5256681,62c539a225cc44bfddb0f10b,2022-07-06_09h28.45.815,Colour_Asymmetry_Pilot,2022.1.3,Win32,59.75143403,62c50e9c1127f2cd403a315f,,,,,,,,,,,,,,,,,,,,threeone,,-4,1.2483,,,,,,,,,,,,,,,,,,,,,,,,,,,,,,,,space,4.9837,"[0.7646000000000002,0.07440000000000002,0.2704]","[-0.24719999999999998,-0.0354000000000001,0.3175999999999999]",-55,122,1,0,0,response7disk,4,6,1,0,0,rectangle,4,6,1,0,0,,2,0.004,0,4,6,1,0,0,0,0,0,158,1,77,second,,,,,,,,,,,,,,,,,,,,,,,,,,,,,,,,,,,,,,,,,,,,,,,,,,,,,,,,,,,,,,,,,,,,,,,,
,,,,,,5f5286c9fe322954c5256681,62c539a225cc44bfddb0f10b,2022-07-06_09h28.45.815,Colour_Asymmetry_Pilot,2022.1.3,Win32,59.75143403,62c50e9c1127f2cd403a315f,,,,,,,,,,,,,,,,,,,,fourtwo,,-4,0.4339,,,,,,,,,,,,,,,,,,,,,,,,,,,,,,,,,,"[0.3568,-0.20799999999999996,-0.9844]","[-0.2942,-0.7648,-0.7492000000000001]",-64,120,1,0,0,response7disk,-25,-2,1,0,0,rectangle,-25,-2,1,0,0,,2,0.0005,0,-25,-2,1,0,0,0,1,1,68,1,68,first,,,,,,,,,,,,,,,,,,,,,,,,,,,,,,,,,,,,,,,,,,,,,,,,,,,,,,,,,,,,,,,,,,,,,,,,
,,,,,,5f5286c9fe322954c5256681,62c539a225cc44bfddb0f10b,2022-07-06_09h28.45.815,Colour_Asymmetry_Pilot,2022.1.3,Win32,59.75143403,62c50e9c1127f2cd403a315f,,,,,,,,,,,,,,,,,,,,twoone,,-4,0.3506,,,,,,,,,,,,,,,,,,,,,,,,,,,,,,,,,,"[0.40379999999999994,0.09000000000000008,0.44300000000000006]","[1,0.12939999999999996,-1]",-54,100,1,0,0,response7disk,-16,1,1,0,0,rectangle,-16,1,1,0,0,,3,0.0018,0,-16,1,1,0,0,0,2,2,59,1,59,first,,,,,,,,,,,,,,,,,,,,,,,,,,,,,,,,,,,,,,,,,,,,,,,,,,,,,,,,,,,,,,,,,,,,,,,,
,,,,,,5f5286c9fe322954c5256681,62c539a225cc44bfddb0f10b,2022-07-06_09h28.45.815,Colour_Asymmetry_Pilot,2022.1.3,Win32,59.75143403,62c50e9c1127f2cd403a315f,,,,,,,,,,,,,,,,,,,,twoone,,4,1.1336,,,,,,,,,,,,,,,,,,,,,,,,,,,,,,,,,,"[0.9842,0.7409999999999999,-0.6628000000000001]","[0.9763999999999999,0.8588,-0.05900000000000005]",51,154,1,0,0,response1disk,25,4,1,0,0,rectangle,25,4,1,0,0,,3,0.0002,0,25,4,1,0,0,0,3,3,107,1,26,second,,,,,,,,,,,,,,,,,,,,,,,,,,,,,,,,,,,,,,,,,,,,,,,,,,,,,,,,,,,,,,,,,,,,,,,,
,,,,,,5f5286c9fe322954c5256681,62c539a225cc44bfddb0f10b,2022-07-06_09h28.45.815,Colour_Asymmetry_Pilot,2022.1.3,Win32,59.75143403,62c50e9c1127f2cd403a315f,,,,,,,,,,,,,,,,,,,,onetwo,,-4,0.3988,,,,,,,,,,,,,,,,,,,,,,,,,,,,,,,,,,"[-0.011800000000000033,-0.906,-0.45100000000000007]","[-0.4746,-0.0354000000000001,0.5449999999999999]",-65,119,1,0,0,response7disk,4,5,1,0,0,rectangle,-52,104,1,0,0,-4,1,4.4986,1,-3,-1,1,0,0,0,4,4,97,1,16,second,response7disk_3,rectangle,,,,,,,,,,,,,,,,,,,,,,,,,,,,,,,,,,,,,,,,,,,,,,,,,,,,,,,,,,,,,,,,,,,,,,
,,,,,,5f5286c9fe322954c5256681,62c539a225cc44bfddb0f10b,2022-07-06_09h28.45.815,Colour_Asymmetry_Pilot,2022.1.3,Win32,59.75143403,62c50e9c1127f2cd403a315f,,,,,,,,,,,,,,,,,,,,twoone,,-4,2.4319,,,,,,,,,,,,,,,,,,,,,,,,,,,,,,,,,,"[-0.0040000000000000036,0.02739999999999987,-0.08239999999999992]","[-0.10599999999999998,-0.10599999999999998,0.5841999999999998]",-65,161,1,0,0,response7disk,2,2,1,0,0,rectangle,129,56,1,0,0,3,3,8.9004,1,22,3,1,0,0,0,5,5,55,1,55,first,response1disk_3,rectangle,,,,,,,,,,,,,,,,,,,,,,,,,,,,,,,,,,,,,,,,,,,,,,,,,,,,,,,,,,,,,,,,,,,,,,
,,,,,,5f5286c9fe322954c5256681,62c539a225cc44bfddb0f10b,2022-07-06_09h28.45.815,Colour_Asymmetry_Pilot,2022.1.3,Win32,59.75143403,62c50e9c1127f2cd403a315f,,,,,,,,,,,,,,,,,,,,onethree,,-4,0.8996,,,,,,,,,,,,,,,,,,,,,,,,,,,,,,,,,,"[-0.9216,-0.5529999999999999,-0.3962]","[0.3568,-0.20799999999999996,-0.9844]",-53,112,1,0,0,response7disk,-5,12,1,0,0,rectangle,-5,12,1,0,0,3,1,0.0021,0,-5,12,1,0,0,0,6,6,146,1,65,second,,,,,,,,,,,,,,,,,,,,,,,,,,,,,,,,,,,,,,,,,,,,,,,,,,,,,,,,,,,,,,,,,,,,,,,,
,,,,,,5f5286c9fe322954c5256681,62c539a225cc44bfddb0f10b,2022-07-06_09h28.45.815,Colour_Asymmetry_Pilot,2022.1.3,Win32,59.75143403,62c50e9c1127f2cd403a315f,,,,,,,,,,,,,,,,,,,,twofour,,4,1.6009,,,,,,,,,,,,,,,,,,,,,,,,,,,,,,,,,,"[0.04299999999999993,0.16060000000000008,-0.6628000000000001]","[-0.4276,0.0038000000000000256,-0.3256]",43,95,1,0,0,response1disk,7,7,1,0,0,rectangle,7,7,1,0,0,3,3,0.002,0,7,7,1,0,0,0,7,7,8,1,8,first,,,,,,,,,,,,,,,,,,,,,,,,,,,,,,,,,,,,,,,,,,,,,,,,,,,,,,,,,,,,,,,,,,,,,,,,
,,,,,,5f5286c9fe322954c5256681,62c539a225cc44bfddb0f10b,2022-07-06_09h28.45.815,Colour_Asymmetry_Pilot,2022.1.3,Win32,59.75143403,62c50e9c1127f2cd403a315f,,,,,,,,,,,,,,,,,,,,threefour,,-4,0.4153,,,,,,,,,,,,,,,,,,,,,,,,,,,,,,,,,,"[0.2784,-0.31000000000000005,-0.5452]","[-0.26280000000000003,-0.4746,-0.2158]",-61,101,1,0,0,response7disk,-10,3,1,0,0,rectangle,-10,3,1,0,0,3,3,0.0005,0,-10,3,1,0,0,0,8,8,64,1,64,first,,,,,,,,,,,,,,,,,,,,,,,,,,,,,,,,,,,,,,,,,,,,,,,,,,,,,,,,,,,,,,,,,,,,,,,,
,,,,,,5f5286c9fe322954c5256681,62c539a225cc44bfddb0f10b,2022-07-06_09h28.45.815,Colour_Asymmetry_Pilot,2022.1.3,Win32,59.75143403,62c50e9c1127f2cd403a315f,,,,,,,,,,,,,,,,,,,,fourtwo,,-4,0.417,,,,,,,,,,,,,,,,,,,,,,,,,,,,,,,,,,"[0.8115999999999999,-0.0040000000000000036,-0.09819999999999995]","[0.9842,0.7409999999999999,-0.6628000000000001]",-57,98,1,0,0,response7disk,-5,9,1,0,0,rectangle,-5,9,1,0,0,3,2,0.0016,0,-5,9,1,0,0,0,9,9,106,1,25,second,,,,,,,,,,,,,,,,,,,,,,,,,,,,,,,,,,,,,,,,,,,,,,,,,,,,,,,,,,,,,,,,,,,,,,,,
,,,,,,5f5286c9fe322954c5256681,62c539a225cc44bfddb0f10b,2022-07-06_09h28.45.815,Colour_Asymmetry_Pilot,2022.1.3,Win32,59.75143403,62c50e9c1127f2cd403a315f,,,,,,,,,,,,,,,,,,,,fourtwo,,-4,0.8664,,,,,,,,,,,,,,,,,,,,,,,,,,,,,,,,,,"[-0.26280000000000003,-0.4746,-0.2158]","[-0.24719999999999998,-0.0354000000000001,0.3175999999999999]",-24,106,1,0,0,response7disk,17,9,1,0,0,rectangle,17,9,1,0,0,3,1,0.0013,0,17,9,1,0,0,0,10,10,29,1,29,first,,,,,,,,,,,,,,,,,,,,,,,,,,,,,,,,,,,,,,,,,,,,,,,,,,,,,,,,,,,,,,,,,,,,,,,,
,,,,,,5f5286c9fe322954c5256681,62c539a225cc44bfddb0f10b,2022-07-06_09h28.45.815,Colour_Asymmetry_Pilot,2022.1.3,Win32,59.75143403,62c50e9c1127f2cd403a315f,,,,,,,,,,,,,,,,,,,,fourtwo,,-4,0.3669,,,,,,,,,,,,,,,,,,,,,,,,,,,,,,,,,,"[0.5528,0.7409999999999999,-0.71]","[0.7176,-0.906,-0.6864]",-50,80,1,0,0,response7disk,-9,11,1,0,0,rectangle,-9,11,1,0,0,3,3,0.0011,0,-9,11,1,0,0,0,11,11,90,1,9,second,,,,,,,,,,,,,,,,,,,,,,,,,,,,,,,,,,,,,,,,,,,,,,,,,,,,,,,,,,,,,,,,,,,,,,,,
,,,,,,5f5286c9fe322954c5256681,62c539a225cc44bfddb0f10b,2022-07-06_09h28.45.815,Colour_Asymmetry_Pilot,2022.1.3,Win32,59.75143403,62c50e9c1127f2cd403a315f,,,,,,,,,,,,,,,,,,,,threeone,,4,0.4154,,,,,,,,,,,,,,,,,,,,,,,,,,,,,,,,,,"[-0.2942,-0.7648,-0.7492000000000001]","[0.5449999999999999,-0.31000000000000005,-0.0354000000000001]",34,79,1,0,0,response1disk,16,0,1,0,0,rectangle,16,0,1,0,0,3,2,0.0013,0,16,0,1,0,0,0,12,12,45,1,45,first,,,,,,,,,,,,,,,,,,,,,,,,,,,,,,,,,,,,,,,,,,,,,,,,,,,,,,,,,,,,,,,,,,,,,,,,
,,,,,,5f5286c9fe322954c5256681,62c539a225cc44bfddb0f10b,2022-07-06_09h28.45.815,Colour_Asymmetry_Pilot,2022.1.3,Win32,59.75143403,62c50e9c1127f2cd403a315f,,,,,,,,,,,,,,,,,,,,threefour,,-4,0.5315,,,,,,,,,,,,,,,,,,,,,,,,,,,,,,,,,,"[1,0.12939999999999996,-1]","[0.40379999999999994,0.09000000000000008,0.44300000000000006]",-42,114,1,0,0,response7disk,-4,11,1,0,0,rectangle,-4,11,1,0,0,3,1,0.0012,0,-4,11,1,0,0,0,13,13,140,1,59,second,,,,,,,,,,,,,,,,,,,,,,,,,,,,,,,,,,,,,,,,,,,,,,,,,,,,,,,,,,,,,,,,,,,,,,,,
,,,,,,5f5286c9fe322954c5256681,62c539a225cc44bfddb0f10b,2022-07-06_09h28.45.815,Colour_Asymmetry_Pilot,2022.1.3,Win32,59.75143403,62c50e9c1127f2cd403a315f,,,,,,,,,,,,,,,,,,,,twoone,,-4,0.3155,,,,,,,,,,,,,,,,,,,,,,,,,,,,,,,,,,"[0.37240000000000006,-0.050999999999999934,-0.5216]","[-0.9766,-0.34920000000000007,0.2156]",-47,96,1,0,0,response7disk,11,4,1,0,0,rectangle,11,4,1,0,0,3,1,0.0003,0,11,4,1,0,0,0,14,14,135,1,54,second,,,,,,,,,,,,,,,,,,,,,,,,,,,,,,,,,,,,,,,,,,,,,,,,,,,,,,,,,,,,,,,,,,,,,,,,
,,,,,,5f5286c9fe322954c5256681,62c539a225cc44bfddb0f10b,2022-07-06_09h28.45.815,Colour_Asymmetry_Pilot,2022.1.3,Win32,59.75143403,62c50e9c1127f2cd403a315f,,,,,,,,,,,,,,,,,,,,threeone,,-4,0.2822,,,,,,,,,,,,,,,,,,,,,,,,,,,,,,,,,,"[0.4196,0.4665999999999999,0.3568]","[-0.30200000000000005,0.14500000000000002,0.2784]",-48,97,1,0,0,response7disk,-17,-1,1,0,0,rectangle,-17,-1,1,0,0,3,2,0.0016,0,-17,-1,1,0,0,0,15,15,81,1,0,second,,,,,,,,,,,,,,,,,,,,,,,,,,,,,,,,,,,,,,,,,,,,,,,,,,,,,,,,,,,,,,,,,,,,,,,,
,,,,,,5f5286c9fe322954c5256681,62c539a225cc44bfddb0f10b,2022-07-06_09h28.45.815,Colour_Asymmetry_Pilot,2022.1.3,Win32,59.75143403,62c50e9c1127f2cd403a315f,,,,,,,,,,,,,,,,,,,,twoone,,-4,0.9163,,,,,,,,,,,,,,,,,,,,,,,,,,,,,,,,,,"[-0.0040000000000000036,0.02739999999999987,-0.08239999999999992]","[0.9842,0.7409999999999999,-0.6628000000000001]",-32,92,1,0,0,response7disk,15,5,1,0,0,rectangle,15,5,1,0,0,3,3,0.002,0,15,5,1,0,0,0,16,16,155,1,74,second,,,,,,,,,,,,,,,,,,,,,,,,,,,,,,,,,,,,,,,,,,,,,,,,,,,,,,,,,,,,,,,,,,,,,,,,
,,,,,,5f5286c9fe322954c5256681,62c539a225cc44bfddb0f10b,2022-07-06_09h28.45.815,Colour_Asymmetry_Pilot,2022.1.3,Win32,59.75143403,62c50e9c1127f2cd403a315f,,,,,,,,,,,,,,,,,,,,onetwo,,4,0.3322,,,,,,,,,,,,,,,,,,,,,,,,,,,,,,,,,,"[0.19199999999999995,0.18419999999999992,0.5136000000000001]","[-0.38039999999999996,-0.4276,-0.1452]",59,105,1,0,0,response1disk,37,1,1,0,0,rectangle,37,1,1,0,0,3,1,0.0019,0,37,1,1,0,0,0,17,17,147,1,66,second,,,,,,,,,,,,,,,,,,,,,,,,,,,,,,,,,,,,,,,,,,,,,,,,,,,,,,,,,,,,,,,,,,,,,,,,
