trials.thisRepN,trials.thisTrialN,trials.thisN,trials.thisIndex,trials.ran,Colourcodes,participant,session,date,expName,psychopyVersion,OS,frameRate,study_id,trials_4.thisRepN,trials_4.thisTrialN,trials_4.thisN,trials_4.thisIndex,trials_4.ran,StimulusPos,key_resp.keys,key_resp.rt,key_resp_2.keys,key_resp_2.rt,key_resp_15.keys,key_resp_15.rt,key_resp_17.keys,key_resp_17.rt,key_resp_9.keys,key_resp_9.rt,key_resp_10.keys,key_resp_10.rt,Circle1_col,Ecc,Circle2_col,similarity,response_time,mouse_5.x,mouse_5.y,mouse_5.leftButton,mouse_5.midButton,mouse_5.rightButton,mouse_5.clicked_name,mouse_10.x,mouse_10.y,mouse_10.leftButton,mouse_10.midButton,mouse_10.rightButton,mouse_10.clicked_name,mouse_7.x,mouse_7.y,mouse_7.leftButton,mouse_7.midButton,mouse_7.rightButton,mouse_7.clicked_name,catchprac,catchnumberprac,mouse_6.x,mouse_6.y,mouse_6.leftButton,mouse_6.midButton,mouse_6.rightButton,mouse_6.clicked_name,duringprac.thisRepN,duringprac.thisTrialN,duringprac.thisN,duringprac.thisIndex,duringprac.ran,key_resp_22.keys,key_resp_22.rt,Circle1_colour,Circle2_colour,mouse.x,mouse.y,mouse.leftButton,mouse.midButton,mouse.rightButton,mouse.clicked_name,mouse_2.x,mouse_2.y,mouse_2.leftButton,mouse_2.midButton,mouse_2.rightButton,mouse_2.clicked_name,mouse_3.x,mouse_3.y,mouse_3.leftButton,mouse_3.midButton,mouse_3.rightButton,catchresponse,catchnumber,response_time_catch,Catch,mouse_11.x,mouse_11.y,mouse_11.leftButton,mouse_11.midButton,mouse_11.rightButton,trials_2.thisRepN,trials_2.thisTrialN,trials_2.thisN,trials_2.thisIndex,trials_2.ran,Colourpair,Temporder,mouse_3.clicked_name,mouse_11.clicked_name,trials_3.thisRepN,trials_3.thisTrialN,trials_3.thisN,trials_3.thisIndex,trials_3.ran,key_resp_instr_Ishi.keys,key_resp_instr_Ishi.rt,Ishi_trial_keyresp.keys,Ishi_textbox.text,Ishi_mouse.x,Ishi_mouse.y,Ishi_mouse.leftButton,Ishi_mouse.midButton,Ishi_mouse.rightButton,Ishi_mouse.clicked_name,Ishi_loop.thisRepN,Ishi_loop.thisTrialN,Ishi_loop.thisN,Ishi_loop.thisIndex,Ishi_loop.ran,imageaddress,textbox.text,mouse_4.x,mouse_4.y,mouse_4.leftButton,mouse_4.midButton,mouse_4.rightButton,mouse_4.clicked_name,textbox_2.text,mouse_8.x,mouse_8.y,mouse_8.leftButton,mouse_8.midButton,mouse_8.rightButton,mouse_8.clicked_name,textbox_3.text,mouse_9.x,mouse_9.y,mouse_9.leftButton,mouse_9.midButton,mouse_9.rightButton,mouse_9.clicked_name,textbox_4.text,mouse_12.x,mouse_12.y,mouse_12.leftButton,mouse_12.midButton,mouse_12.rightButton,mouse_12.clicked_name,textbox_5.text,mouse_13.x,mouse_13.y,mouse_13.leftButton,mouse_13.midButton,mouse_13.rightButton,mouse_13.clicked_name,textbox_6.text,mouse_14.x,mouse_14.y,mouse_14.leftButton,mouse_14.midButton,mouse_14.rightButton,mouse_14.clicked_name,textbox_7.text,mouse_15.x,mouse_15.y,mouse_15.leftButton,mouse_15.midButton,mouse_15.rightButton,mouse_15.clicked_name
0,0,0,69,1,,5f78f9ddcb63b34f243d2239,62c538b64547859c154cde66,2022-07-06_10h11.36.107,Colour_Asymmetry_Pilot,2022.1.3,Win32,59.99160118,62c50e9c1127f2cd403a315f,,,,,,,,,,,,,,,,,,,,,,,,,,,,,,,,,,,,,,,,,,,,,,,,,,,,,,,,,,,,,,,,,,,,,,,,,,,,,,,,,,,,,,,,,,,,,,,,,,,,,,,,,,,,,,,,,,,,,,,,,,,,,,,,,,,,,,,,,,,,,,,,,,,,,,,,,,,,,,,,,,,
0,1,1,67,1,,5f78f9ddcb63b34f243d2239,62c538b64547859c154cde66,2022-07-06_10h11.36.107,Colour_Asymmetry_Pilot,2022.1.3,Win32,59.99160118,62c50e9c1127f2cd403a315f,,,,,,,,,,,,,,,,,,,,,,,,,,,,,,,,,,,,,,,,,,,,,,,,,,,,,,,,,,,,,,,,,,,,,,,,,,,,,,,,,,,,,,,,,,,,,,,,,,,,,,,,,,,,,,,,,,,,,,,,,,,,,,,,,,,,,,,,,,,,,,,,,,,,,,,,,,,,,,,,,,,
0,2,2,63,1,,5f78f9ddcb63b34f243d2239,62c538b64547859c154cde66,2022-07-06_10h11.36.107,Colour_Asymmetry_Pilot,2022.1.3,Win32,59.99160118,62c50e9c1127f2cd403a315f,,,,,,,,,,,,,,,,,,,,,,,,,,,,,,,,,,,,,,,,,,,,,,,,,,,,,,,,,,,,,,,,,,,,,,,,,,,,,,,,,,,,,,,,,,,,,,,,,,,,,,,,,,,,,,,,,,,,,,,,,,,,,,,,,,,,,,,,,,,,,,,,,,,,,,,,,,,,,,,,,,,
0,3,3,7,1,,5f78f9ddcb63b34f243d2239,62c538b64547859c154cde66,2022-07-06_10h11.36.107,Colour_Asymmetry_Pilot,2022.1.3,Win32,59.99160118,62c50e9c1127f2cd403a315f,,,,,,,,,,,,,,,,,,,,,,,,,,,,,,,,,,,,,,,,,,,,,,,,,,,,,,,,,,,,,,,,,,,,,,,,,,,,,,,,,,,,,,,,,,,,,,,,,,,,,,,,,,,,,,,,,,,,,,,,,,,,,,,,,,,,,,,,,,,,,,,,,,,,,,,,,,,,,,,,,,,
0,4,4,22,1,,5f78f9ddcb63b34f243d2239,62c538b64547859c154cde66,2022-07-06_10h11.36.107,Colour_Asymmetry_Pilot,2022.1.3,Win32,59.99160118,62c50e9c1127f2cd403a315f,,,,,,,,,,,,,,,,,,,,,,,,,,,,,,,,,,,,,,,,,,,,,,,,,,,,,,,,,,,,,,,,,,,,,,,,,,,,,,,,,,,,,,,,,,,,,,,,,,,,,,,,,,,,,,,,,,,,,,,,,,,,,,,,,,,,,,,,,,,,,,,,,,,,,,,,,,,,,,,,,,,
0,5,5,47,1,,5f78f9ddcb63b34f243d2239,62c538b64547859c154cde66,2022-07-06_10h11.36.107,Colour_Asymmetry_Pilot,2022.1.3,Win32,59.99160118,62c50e9c1127f2cd403a315f,,,,,,,,,,,,,,,,,,,,,,,,,,,,,,,,,,,,,,,,,,,,,,,,,,,,,,,,,,,,,,,,,,,,,,,,,,,,,,,,,,,,,,,,,,,,,,,,,,,,,,,,,,,,,,,,,,,,,,,,,,,,,,,,,,,,,,,,,,,,,,,,,,,,,,,,,,,,,,,,,,,
0,6,6,91,1,,5f78f9ddcb63b34f243d2239,62c538b64547859c154cde66,2022-07-06_10h11.36.107,Colour_Asymmetry_Pilot,2022.1.3,Win32,59.99160118,62c50e9c1127f2cd403a315f,,,,,,,,,,,,,,,,,,,,,,,,,,,,,,,,,,,,,,,,,,,,,,,,,,,,,,,,,,,,,,,,,,,,,,,,,,,,,,,,,,,,,,,,,,,,,,,,,,,,,,,,,,,,,,,,,,,,,,,,,,,,,,,,,,,,,,,,,,,,,,,,,,,,,,,,,,,,,,,,,,,
0,7,7,92,1,,5f78f9ddcb63b34f243d2239,62c538b64547859c154cde66,2022-07-06_10h11.36.107,Colour_Asymmetry_Pilot,2022.1.3,Win32,59.99160118,62c50e9c1127f2cd403a315f,,,,,,,,,,,,,,,,,,,,,,,,,,,,,,,,,,,,,,,,,,,,,,,,,,,,,,,,,,,,,,,,,,,,,,,,,,,,,,,,,,,,,,,,,,,,,,,,,,,,,,,,,,,,,,,,,,,,,,,,,,,,,,,,,,,,,,,,,,,,,,,,,,,,,,,,,,,,,,,,,,,
0,8,8,33,1,,5f78f9ddcb63b34f243d2239,62c538b64547859c154cde66,2022-07-06_10h11.36.107,Colour_Asymmetry_Pilot,2022.1.3,Win32,59.99160118,62c50e9c1127f2cd403a315f,,,,,,,,,,,,,,,,,,,,,,,,,,,,,,,,,,,,,,,,,,,,,,,,,,,,,,,,,,,,,,,,,,,,,,,,,,,,,,,,,,,,,,,,,,,,,,,,,,,,,,,,,,,,,,,,,,,,,,,,,,,,,,,,,,,,,,,,,,,,,,,,,,,,,,,,,,,,,,,,,,,
0,9,9,87,1,,5f78f9ddcb63b34f243d2239,62c538b64547859c154cde66,2022-07-06_10h11.36.107,Colour_Asymmetry_Pilot,2022.1.3,Win32,59.99160118,62c50e9c1127f2cd403a315f,,,,,,,,,,,,,,,,,,,,,,,,,,,,,,,,,,,,,,,,,,,,,,,,,,,,,,,,,,,,,,,,,,,,,,,,,,,,,,,,,,,,,,,,,,,,,,,,,,,,,,,,,,,,,,,,,,,,,,,,,,,,,,,,,,,,,,,,,,,,,,,,,,,,,,,,,,,,,,,,,,,
0,10,10,50,1,,5f78f9ddcb63b34f243d2239,62c538b64547859c154cde66,2022-07-06_10h11.36.107,Colour_Asymmetry_Pilot,2022.1.3,Win32,59.99160118,62c50e9c1127f2cd403a315f,,,,,,,,,,,,,,,,,,,,,,,,,,,,,,,,,,,,,,,,,,,,,,,,,,,,,,,,,,,,,,,,,,,,,,,,,,,,,,,,,,,,,,,,,,,,,,,,,,,,,,,,,,,,,,,,,,,,,,,,,,,,,,,,,,,,,,,,,,,,,,,,,,,,,,,,,,,,,,,,,,,
0,11,11,1,1,,5f78f9ddcb63b34f243d2239,62c538b64547859c154cde66,2022-07-06_10h11.36.107,Colour_Asymmetry_Pilot,2022.1.3,Win32,59.99160118,62c50e9c1127f2cd403a315f,,,,,,,,,,,,,,,,,,,,,,,,,,,,,,,,,,,,,,,,,,,,,,,,,,,,,,,,,,,,,,,,,,,,,,,,,,,,,,,,,,,,,,,,,,,,,,,,,,,,,,,,,,,,,,,,,,,,,,,,,,,,,,,,,,,,,,,,,,,,,,,,,,,,,,,,,,,,,,,,,,,
0,12,12,85,1,,5f78f9ddcb63b34f243d2239,62c538b64547859c154cde66,2022-07-06_10h11.36.107,Colour_Asymmetry_Pilot,2022.1.3,Win32,59.99160118,62c50e9c1127f2cd403a315f,,,,,,,,,,,,,,,,,,,,,,,,,,,,,,,,,,,,,,,,,,,,,,,,,,,,,,,,,,,,,,,,,,,,,,,,,,,,,,,,,,,,,,,,,,,,,,,,,,,,,,,,,,,,,,,,,,,,,,,,,,,,,,,,,,,,,,,,,,,,,,,,,,,,,,,,,,,,,,,,,,,
0,13,13,39,1,,5f78f9ddcb63b34f243d2239,62c538b64547859c154cde66,2022-07-06_10h11.36.107,Colour_Asymmetry_Pilot,2022.1.3,Win32,59.99160118,62c50e9c1127f2cd403a315f,,,,,,,,,,,,,,,,,,,,,,,,,,,,,,,,,,,,,,,,,,,,,,,,,,,,,,,,,,,,,,,,,,,,,,,,,,,,,,,,,,,,,,,,,,,,,,,,,,,,,,,,,,,,,,,,,,,,,,,,,,,,,,,,,,,,,,,,,,,,,,,,,,,,,,,,,,,,,,,,,,,
0,14,14,61,1,,5f78f9ddcb63b34f243d2239,62c538b64547859c154cde66,2022-07-06_10h11.36.107,Colour_Asymmetry_Pilot,2022.1.3,Win32,59.99160118,62c50e9c1127f2cd403a315f,,,,,,,,,,,,,,,,,,,,,,,,,,,,,,,,,,,,,,,,,,,,,,,,,,,,,,,,,,,,,,,,,,,,,,,,,,,,,,,,,,,,,,,,,,,,,,,,,,,,,,,,,,,,,,,,,,,,,,,,,,,,,,,,,,,,,,,,,,,,,,,,,,,,,,,,,,,,,,,,,,,
0,15,15,84,1,,5f78f9ddcb63b34f243d2239,62c538b64547859c154cde66,2022-07-06_10h11.36.107,Colour_Asymmetry_Pilot,2022.1.3,Win32,59.99160118,62c50e9c1127f2cd403a315f,,,,,,,,,,,,,,,,,,,,,,,,,,,,,,,,,,,,,,,,,,,,,,,,,,,,,,,,,,,,,,,,,,,,,,,,,,,,,,,,,,,,,,,,,,,,,,,,,,,,,,,,,,,,,,,,,,,,,,,,,,,,,,,,,,,,,,,,,,,,,,,,,,,,,,,,,,,,,,,,,,,
0,16,16,54,1,,5f78f9ddcb63b34f243d2239,62c538b64547859c154cde66,2022-07-06_10h11.36.107,Colour_Asymmetry_Pilot,2022.1.3,Win32,59.99160118,62c50e9c1127f2cd403a315f,,,,,,,,,,,,,,,,,,,,,,,,,,,,,,,,,,,,,,,,,,,,,,,,,,,,,,,,,,,,,,,,,,,,,,,,,,,,,,,,,,,,,,,,,,,,,,,,,,,,,,,,,,,,,,,,,,,,,,,,,,,,,,,,,,,,,,,,,,,,,,,,,,,,,,,,,,,,,,,,,,,
0,17,17,86,1,,5f78f9ddcb63b34f243d2239,62c538b64547859c154cde66,2022-07-06_10h11.36.107,Colour_Asymmetry_Pilot,2022.1.3,Win32,59.99160118,62c50e9c1127f2cd403a315f,,,,,,,,,,,,,,,,,,,,,,,,,,,,,,,,,,,,,,,,,,,,,,,,,,,,,,,,,,,,,,,,,,,,,,,,,,,,,,,,,,,,,,,,,,,,,,,,,,,,,,,,,,,,,,,,,,,,,,,,,,,,,,,,,,,,,,,,,,,,,,,,,,,,,,,,,,,,,,,,,,,
0,18,18,35,1,,5f78f9ddcb63b34f243d2239,62c538b64547859c154cde66,2022-07-06_10h11.36.107,Colour_Asymmetry_Pilot,2022.1.3,Win32,59.99160118,62c50e9c1127f2cd403a315f,,,,,,,,,,,,,,,,,,,,,,,,,,,,,,,,,,,,,,,,,,,,,,,,,,,,,,,,,,,,,,,,,,,,,,,,,,,,,,,,,,,,,,,,,,,,,,,,,,,,,,,,,,,,,,,,,,,,,,,,,,,,,,,,,,,,,,,,,,,,,,,,,,,,,,,,,,,,,,,,,,,
0,19,19,71,1,,5f78f9ddcb63b34f243d2239,62c538b64547859c154cde66,2022-07-06_10h11.36.107,Colour_Asymmetry_Pilot,2022.1.3,Win32,59.99160118,62c50e9c1127f2cd403a315f,,,,,,,,,,,,,,,,,,,,,,,,,,,,,,,,,,,,,,,,,,,,,,,,,,,,,,,,,,,,,,,,,,,,,,,,,,,,,,,,,,,,,,,,,,,,,,,,,,,,,,,,,,,,,,,,,,,,,,,,,,,,,,,,,,,,,,,,,,,,,,,,,,,,,,,,,,,,,,,,,,,
0,20,20,34,1,,5f78f9ddcb63b34f243d2239,62c538b64547859c154cde66,2022-07-06_10h11.36.107,Colour_Asymmetry_Pilot,2022.1.3,Win32,59.99160118,62c50e9c1127f2cd403a315f,,,,,,,,,,,,,,,,,,,,,,,,,,,,,,,,,,,,,,,,,,,,,,,,,,,,,,,,,,,,,,,,,,,,,,,,,,,,,,,,,,,,,,,,,,,,,,,,,,,,,,,,,,,,,,,,,,,,,,,,,,,,,,,,,,,,,,,,,,,,,,,,,,,,,,,,,,,,,,,,,,,
0,21,21,15,1,,5f78f9ddcb63b34f243d2239,62c538b64547859c154cde66,2022-07-06_10h11.36.107,Colour_Asymmetry_Pilot,2022.1.3,Win32,59.99160118,62c50e9c1127f2cd403a315f,,,,,,,,,,,,,,,,,,,,,,,,,,,,,,,,,,,,,,,,,,,,,,,,,,,,,,,,,,,,,,,,,,,,,,,,,,,,,,,,,,,,,,,,,,,,,,,,,,,,,,,,,,,,,,,,,,,,,,,,,,,,,,,,,,,,,,,,,,,,,,,,,,,,,,,,,,,,,,,,,,,
0,22,22,59,1,,5f78f9ddcb63b34f243d2239,62c538b64547859c154cde66,2022-07-06_10h11.36.107,Colour_Asymmetry_Pilot,2022.1.3,Win32,59.99160118,62c50e9c1127f2cd403a315f,,,,,,,,,,,,,,,,,,,,,,,,,,,,,,,,,,,,,,,,,,,,,,,,,,,,,,,,,,,,,,,,,,,,,,,,,,,,,,,,,,,,,,,,,,,,,,,,,,,,,,,,,,,,,,,,,,,,,,,,,,,,,,,,,,,,,,,,,,,,,,,,,,,,,,,,,,,,,,,,,,,
0,23,23,2,1,,5f78f9ddcb63b34f243d2239,62c538b64547859c154cde66,2022-07-06_10h11.36.107,Colour_Asymmetry_Pilot,2022.1.3,Win32,59.99160118,62c50e9c1127f2cd403a315f,,,,,,,,,,,,,,,,,,,,,,,,,,,,,,,,,,,,,,,,,,,,,,,,,,,,,,,,,,,,,,,,,,,,,,,,,,,,,,,,,,,,,,,,,,,,,,,,,,,,,,,,,,,,,,,,,,,,,,,,,,,,,,,,,,,,,,,,,,,,,,,,,,,,,,,,,,,,,,,,,,,
0,24,24,73,1,,5f78f9ddcb63b34f243d2239,62c538b64547859c154cde66,2022-07-06_10h11.36.107,Colour_Asymmetry_Pilot,2022.1.3,Win32,59.99160118,62c50e9c1127f2cd403a315f,,,,,,,,,,,,,,,,,,,,,,,,,,,,,,,,,,,,,,,,,,,,,,,,,,,,,,,,,,,,,,,,,,,,,,,,,,,,,,,,,,,,,,,,,,,,,,,,,,,,,,,,,,,,,,,,,,,,,,,,,,,,,,,,,,,,,,,,,,,,,,,,,,,,,,,,,,,,,,,,,,,
0,25,25,79,1,,5f78f9ddcb63b34f243d2239,62c538b64547859c154cde66,2022-07-06_10h11.36.107,Colour_Asymmetry_Pilot,2022.1.3,Win32,59.99160118,62c50e9c1127f2cd403a315f,,,,,,,,,,,,,,,,,,,,,,,,,,,,,,,,,,,,,,,,,,,,,,,,,,,,,,,,,,,,,,,,,,,,,,,,,,,,,,,,,,,,,,,,,,,,,,,,,,,,,,,,,,,,,,,,,,,,,,,,,,,,,,,,,,,,,,,,,,,,,,,,,,,,,,,,,,,,,,,,,,,
0,26,26,8,1,,5f78f9ddcb63b34f243d2239,62c538b64547859c154cde66,2022-07-06_10h11.36.107,Colour_Asymmetry_Pilot,2022.1.3,Win32,59.99160118,62c50e9c1127f2cd403a315f,,,,,,,,,,,,,,,,,,,,,,,,,,,,,,,,,,,,,,,,,,,,,,,,,,,,,,,,,,,,,,,,,,,,,,,,,,,,,,,,,,,,,,,,,,,,,,,,,,,,,,,,,,,,,,,,,,,,,,,,,,,,,,,,,,,,,,,,,,,,,,,,,,,,,,,,,,,,,,,,,,,
0,27,27,77,1,,5f78f9ddcb63b34f243d2239,62c538b64547859c154cde66,2022-07-06_10h11.36.107,Colour_Asymmetry_Pilot,2022.1.3,Win32,59.99160118,62c50e9c1127f2cd403a315f,,,,,,,,,,,,,,,,,,,,,,,,,,,,,,,,,,,,,,,,,,,,,,,,,,,,,,,,,,,,,,,,,,,,,,,,,,,,,,,,,,,,,,,,,,,,,,,,,,,,,,,,,,,,,,,,,,,,,,,,,,,,,,,,,,,,,,,,,,,,,,,,,,,,,,,,,,,,,,,,,,,
0,28,28,3,1,,5f78f9ddcb63b34f243d2239,62c538b64547859c154cde66,2022-07-06_10h11.36.107,Colour_Asymmetry_Pilot,2022.1.3,Win32,59.99160118,62c50e9c1127f2cd403a315f,,,,,,,,,,,,,,,,,,,,,,,,,,,,,,,,,,,,,,,,,,,,,,,,,,,,,,,,,,,,,,,,,,,,,,,,,,,,,,,,,,,,,,,,,,,,,,,,,,,,,,,,,,,,,,,,,,,,,,,,,,,,,,,,,,,,,,,,,,,,,,,,,,,,,,,,,,,,,,,,,,,
0,29,29,45,1,,5f78f9ddcb63b34f243d2239,62c538b64547859c154cde66,2022-07-06_10h11.36.107,Colour_Asymmetry_Pilot,2022.1.3,Win32,59.99160118,62c50e9c1127f2cd403a315f,,,,,,,,,,,,,,,,,,,,,,,,,,,,,,,,,,,,,,,,,,,,,,,,,,,,,,,,,,,,,,,,,,,,,,,,,,,,,,,,,,,,,,,,,,,,,,,,,,,,,,,,,,,,,,,,,,,,,,,,,,,,,,,,,,,,,,,,,,,,,,,,,,,,,,,,,,,,,,,,,,,
0,30,30,19,1,,5f78f9ddcb63b34f243d2239,62c538b64547859c154cde66,2022-07-06_10h11.36.107,Colour_Asymmetry_Pilot,2022.1.3,Win32,59.99160118,62c50e9c1127f2cd403a315f,,,,,,,,,,,,,,,,,,,,,,,,,,,,,,,,,,,,,,,,,,,,,,,,,,,,,,,,,,,,,,,,,,,,,,,,,,,,,,,,,,,,,,,,,,,,,,,,,,,,,,,,,,,,,,,,,,,,,,,,,,,,,,,,,,,,,,,,,,,,,,,,,,,,,,,,,,,,,,,,,,,
0,31,31,24,1,,5f78f9ddcb63b34f243d2239,62c538b64547859c154cde66,2022-07-06_10h11.36.107,Colour_Asymmetry_Pilot,2022.1.3,Win32,59.99160118,62c50e9c1127f2cd403a315f,,,,,,,,,,,,,,,,,,,,,,,,,,,,,,,,,,,,,,,,,,,,,,,,,,,,,,,,,,,,,,,,,,,,,,,,,,,,,,,,,,,,,,,,,,,,,,,,,,,,,,,,,,,,,,,,,,,,,,,,,,,,,,,,,,,,,,,,,,,,,,,,,,,,,,,,,,,,,,,,,,,
0,32,32,6,1,,5f78f9ddcb63b34f243d2239,62c538b64547859c154cde66,2022-07-06_10h11.36.107,Colour_Asymmetry_Pilot,2022.1.3,Win32,59.99160118,62c50e9c1127f2cd403a315f,,,,,,,,,,,,,,,,,,,,,,,,,,,,,,,,,,,,,,,,,,,,,,,,,,,,,,,,,,,,,,,,,,,,,,,,,,,,,,,,,,,,,,,,,,,,,,,,,,,,,,,,,,,,,,,,,,,,,,,,,,,,,,,,,,,,,,,,,,,,,,,,,,,,,,,,,,,,,,,,,,,
0,33,33,29,1,,5f78f9ddcb63b34f243d2239,62c538b64547859c154cde66,2022-07-06_10h11.36.107,Colour_Asymmetry_Pilot,2022.1.3,Win32,59.99160118,62c50e9c1127f2cd403a315f,,,,,,,,,,,,,,,,,,,,,,,,,,,,,,,,,,,,,,,,,,,,,,,,,,,,,,,,,,,,,,,,,,,,,,,,,,,,,,,,,,,,,,,,,,,,,,,,,,,,,,,,,,,,,,,,,,,,,,,,,,,,,,,,,,,,,,,,,,,,,,,,,,,,,,,,,,,,,,,,,,,
0,34,34,56,1,,5f78f9ddcb63b34f243d2239,62c538b64547859c154cde66,2022-07-06_10h11.36.107,Colour_Asymmetry_Pilot,2022.1.3,Win32,59.99160118,62c50e9c1127f2cd403a315f,,,,,,,,,,,,,,,,,,,,,,,,,,,,,,,,,,,,,,,,,,,,,,,,,,,,,,,,,,,,,,,,,,,,,,,,,,,,,,,,,,,,,,,,,,,,,,,,,,,,,,,,,,,,,,,,,,,,,,,,,,,,,,,,,,,,,,,,,,,,,,,,,,,,,,,,,,,,,,,,,,,
0,35,35,37,1,,5f78f9ddcb63b34f243d2239,62c538b64547859c154cde66,2022-07-06_10h11.36.107,Colour_Asymmetry_Pilot,2022.1.3,Win32,59.99160118,62c50e9c1127f2cd403a315f,,,,,,,,,,,,,,,,,,,,,,,,,,,,,,,,,,,,,,,,,,,,,,,,,,,,,,,,,,,,,,,,,,,,,,,,,,,,,,,,,,,,,,,,,,,,,,,,,,,,,,,,,,,,,,,,,,,,,,,,,,,,,,,,,,,,,,,,,,,,,,,,,,,,,,,,,,,,,,,,,,,
0,36,36,14,1,,5f78f9ddcb63b34f243d2239,62c538b64547859c154cde66,2022-07-06_10h11.36.107,Colour_Asymmetry_Pilot,2022.1.3,Win32,59.99160118,62c50e9c1127f2cd403a315f,,,,,,,,,,,,,,,,,,,,,,,,,,,,,,,,,,,,,,,,,,,,,,,,,,,,,,,,,,,,,,,,,,,,,,,,,,,,,,,,,,,,,,,,,,,,,,,,,,,,,,,,,,,,,,,,,,,,,,,,,,,,,,,,,,,,,,,,,,,,,,,,,,,,,,,,,,,,,,,,,,,
0,37,37,60,1,,5f78f9ddcb63b34f243d2239,62c538b64547859c154cde66,2022-07-06_10h11.36.107,Colour_Asymmetry_Pilot,2022.1.3,Win32,59.99160118,62c50e9c1127f2cd403a315f,,,,,,,,,,,,,,,,,,,,,,,,,,,,,,,,,,,,,,,,,,,,,,,,,,,,,,,,,,,,,,,,,,,,,,,,,,,,,,,,,,,,,,,,,,,,,,,,,,,,,,,,,,,,,,,,,,,,,,,,,,,,,,,,,,,,,,,,,,,,,,,,,,,,,,,,,,,,,,,,,,,
0,38,38,53,1,,5f78f9ddcb63b34f243d2239,62c538b64547859c154cde66,2022-07-06_10h11.36.107,Colour_Asymmetry_Pilot,2022.1.3,Win32,59.99160118,62c50e9c1127f2cd403a315f,,,,,,,,,,,,,,,,,,,,,,,,,,,,,,,,,,,,,,,,,,,,,,,,,,,,,,,,,,,,,,,,,,,,,,,,,,,,,,,,,,,,,,,,,,,,,,,,,,,,,,,,,,,,,,,,,,,,,,,,,,,,,,,,,,,,,,,,,,,,,,,,,,,,,,,,,,,,,,,,,,,
0,39,39,20,1,,5f78f9ddcb63b34f243d2239,62c538b64547859c154cde66,2022-07-06_10h11.36.107,Colour_Asymmetry_Pilot,2022.1.3,Win32,59.99160118,62c50e9c1127f2cd403a315f,,,,,,,,,,,,,,,,,,,,,,,,,,,,,,,,,,,,,,,,,,,,,,,,,,,,,,,,,,,,,,,,,,,,,,,,,,,,,,,,,,,,,,,,,,,,,,,,,,,,,,,,,,,,,,,,,,,,,,,,,,,,,,,,,,,,,,,,,,,,,,,,,,,,,,,,,,,,,,,,,,,
0,40,40,9,1,,5f78f9ddcb63b34f243d2239,62c538b64547859c154cde66,2022-07-06_10h11.36.107,Colour_Asymmetry_Pilot,2022.1.3,Win32,59.99160118,62c50e9c1127f2cd403a315f,,,,,,,,,,,,,,,,,,,,,,,,,,,,,,,,,,,,,,,,,,,,,,,,,,,,,,,,,,,,,,,,,,,,,,,,,,,,,,,,,,,,,,,,,,,,,,,,,,,,,,,,,,,,,,,,,,,,,,,,,,,,,,,,,,,,,,,,,,,,,,,,,,,,,,,,,,,,,,,,,,,
0,41,41,42,1,,5f78f9ddcb63b34f243d2239,62c538b64547859c154cde66,2022-07-06_10h11.36.107,Colour_Asymmetry_Pilot,2022.1.3,Win32,59.99160118,62c50e9c1127f2cd403a315f,,,,,,,,,,,,,,,,,,,,,,,,,,,,,,,,,,,,,,,,,,,,,,,,,,,,,,,,,,,,,,,,,,,,,,,,,,,,,,,,,,,,,,,,,,,,,,,,,,,,,,,,,,,,,,,,,,,,,,,,,,,,,,,,,,,,,,,,,,,,,,,,,,,,,,,,,,,,,,,,,,,
0,42,42,12,1,,5f78f9ddcb63b34f243d2239,62c538b64547859c154cde66,2022-07-06_10h11.36.107,Colour_Asymmetry_Pilot,2022.1.3,Win32,59.99160118,62c50e9c1127f2cd403a315f,,,,,,,,,,,,,,,,,,,,,,,,,,,,,,,,,,,,,,,,,,,,,,,,,,,,,,,,,,,,,,,,,,,,,,,,,,,,,,,,,,,,,,,,,,,,,,,,,,,,,,,,,,,,,,,,,,,,,,,,,,,,,,,,,,,,,,,,,,,,,,,,,,,,,,,,,,,,,,,,,,,
0,43,43,49,1,,5f78f9ddcb63b34f243d2239,62c538b64547859c154cde66,2022-07-06_10h11.36.107,Colour_Asymmetry_Pilot,2022.1.3,Win32,59.99160118,62c50e9c1127f2cd403a315f,,,,,,,,,,,,,,,,,,,,,,,,,,,,,,,,,,,,,,,,,,,,,,,,,,,,,,,,,,,,,,,,,,,,,,,,,,,,,,,,,,,,,,,,,,,,,,,,,,,,,,,,,,,,,,,,,,,,,,,,,,,,,,,,,,,,,,,,,,,,,,,,,,,,,,,,,,,,,,,,,,,
0,44,44,31,1,,5f78f9ddcb63b34f243d2239,62c538b64547859c154cde66,2022-07-06_10h11.36.107,Colour_Asymmetry_Pilot,2022.1.3,Win32,59.99160118,62c50e9c1127f2cd403a315f,,,,,,,,,,,,,,,,,,,,,,,,,,,,,,,,,,,,,,,,,,,,,,,,,,,,,,,,,,,,,,,,,,,,,,,,,,,,,,,,,,,,,,,,,,,,,,,,,,,,,,,,,,,,,,,,,,,,,,,,,,,,,,,,,,,,,,,,,,,,,,,,,,,,,,,,,,,,,,,,,,,
0,45,45,48,1,,5f78f9ddcb63b34f243d2239,62c538b64547859c154cde66,2022-07-06_10h11.36.107,Colour_Asymmetry_Pilot,2022.1.3,Win32,59.99160118,62c50e9c1127f2cd403a315f,,,,,,,,,,,,,,,,,,,,,,,,,,,,,,,,,,,,,,,,,,,,,,,,,,,,,,,,,,,,,,,,,,,,,,,,,,,,,,,,,,,,,,,,,,,,,,,,,,,,,,,,,,,,,,,,,,,,,,,,,,,,,,,,,,,,,,,,,,,,,,,,,,,,,,,,,,,,,,,,,,,
0,46,46,10,1,,5f78f9ddcb63b34f243d2239,62c538b64547859c154cde66,2022-07-06_10h11.36.107,Colour_Asymmetry_Pilot,2022.1.3,Win32,59.99160118,62c50e9c1127f2cd403a315f,,,,,,,,,,,,,,,,,,,,,,,,,,,,,,,,,,,,,,,,,,,,,,,,,,,,,,,,,,,,,,,,,,,,,,,,,,,,,,,,,,,,,,,,,,,,,,,,,,,,,,,,,,,,,,,,,,,,,,,,,,,,,,,,,,,,,,,,,,,,,,,,,,,,,,,,,,,,,,,,,,,
0,47,47,78,1,,5f78f9ddcb63b34f243d2239,62c538b64547859c154cde66,2022-07-06_10h11.36.107,Colour_Asymmetry_Pilot,2022.1.3,Win32,59.99160118,62c50e9c1127f2cd403a315f,,,,,,,,,,,,,,,,,,,,,,,,,,,,,,,,,,,,,,,,,,,,,,,,,,,,,,,,,,,,,,,,,,,,,,,,,,,,,,,,,,,,,,,,,,,,,,,,,,,,,,,,,,,,,,,,,,,,,,,,,,,,,,,,,,,,,,,,,,,,,,,,,,,,,,,,,,,,,,,,,,,
0,48,48,25,1,,5f78f9ddcb63b34f243d2239,62c538b64547859c154cde66,2022-07-06_10h11.36.107,Colour_Asymmetry_Pilot,2022.1.3,Win32,59.99160118,62c50e9c1127f2cd403a315f,,,,,,,,,,,,,,,,,,,,,,,,,,,,,,,,,,,,,,,,,,,,,,,,,,,,,,,,,,,,,,,,,,,,,,,,,,,,,,,,,,,,,,,,,,,,,,,,,,,,,,,,,,,,,,,,,,,,,,,,,,,,,,,,,,,,,,,,,,,,,,,,,,,,,,,,,,,,,,,,,,,
0,49,49,74,1,,5f78f9ddcb63b34f243d2239,62c538b64547859c154cde66,2022-07-06_10h11.36.107,Colour_Asymmetry_Pilot,2022.1.3,Win32,59.99160118,62c50e9c1127f2cd403a315f,,,,,,,,,,,,,,,,,,,,,,,,,,,,,,,,,,,,,,,,,,,,,,,,,,,,,,,,,,,,,,,,,,,,,,,,,,,,,,,,,,,,,,,,,,,,,,,,,,,,,,,,,,,,,,,,,,,,,,,,,,,,,,,,,,,,,,,,,,,,,,,,,,,,,,,,,,,,,,,,,,,
0,50,50,83,1,,5f78f9ddcb63b34f243d2239,62c538b64547859c154cde66,2022-07-06_10h11.36.107,Colour_Asymmetry_Pilot,2022.1.3,Win32,59.99160118,62c50e9c1127f2cd403a315f,,,,,,,,,,,,,,,,,,,,,,,,,,,,,,,,,,,,,,,,,,,,,,,,,,,,,,,,,,,,,,,,,,,,,,,,,,,,,,,,,,,,,,,,,,,,,,,,,,,,,,,,,,,,,,,,,,,,,,,,,,,,,,,,,,,,,,,,,,,,,,,,,,,,,,,,,,,,,,,,,,,
0,51,51,27,1,,5f78f9ddcb63b34f243d2239,62c538b64547859c154cde66,2022-07-06_10h11.36.107,Colour_Asymmetry_Pilot,2022.1.3,Win32,59.99160118,62c50e9c1127f2cd403a315f,,,,,,,,,,,,,,,,,,,,,,,,,,,,,,,,,,,,,,,,,,,,,,,,,,,,,,,,,,,,,,,,,,,,,,,,,,,,,,,,,,,,,,,,,,,,,,,,,,,,,,,,,,,,,,,,,,,,,,,,,,,,,,,,,,,,,,,,,,,,,,,,,,,,,,,,,,,,,,,,,,,
0,52,52,57,1,,5f78f9ddcb63b34f243d2239,62c538b64547859c154cde66,2022-07-06_10h11.36.107,Colour_Asymmetry_Pilot,2022.1.3,Win32,59.99160118,62c50e9c1127f2cd403a315f,,,,,,,,,,,,,,,,,,,,,,,,,,,,,,,,,,,,,,,,,,,,,,,,,,,,,,,,,,,,,,,,,,,,,,,,,,,,,,,,,,,,,,,,,,,,,,,,,,,,,,,,,,,,,,,,,,,,,,,,,,,,,,,,,,,,,,,,,,,,,,,,,,,,,,,,,,,,,,,,,,,
0,53,53,4,1,,5f78f9ddcb63b34f243d2239,62c538b64547859c154cde66,2022-07-06_10h11.36.107,Colour_Asymmetry_Pilot,2022.1.3,Win32,59.99160118,62c50e9c1127f2cd403a315f,,,,,,,,,,,,,,,,,,,,,,,,,,,,,,,,,,,,,,,,,,,,,,,,,,,,,,,,,,,,,,,,,,,,,,,,,,,,,,,,,,,,,,,,,,,,,,,,,,,,,,,,,,,,,,,,,,,,,,,,,,,,,,,,,,,,,,,,,,,,,,,,,,,,,,,,,,,,,,,,,,,
0,54,54,90,1,,5f78f9ddcb63b34f243d2239,62c538b64547859c154cde66,2022-07-06_10h11.36.107,Colour_Asymmetry_Pilot,2022.1.3,Win32,59.99160118,62c50e9c1127f2cd403a315f,,,,,,,,,,,,,,,,,,,,,,,,,,,,,,,,,,,,,,,,,,,,,,,,,,,,,,,,,,,,,,,,,,,,,,,,,,,,,,,,,,,,,,,,,,,,,,,,,,,,,,,,,,,,,,,,,,,,,,,,,,,,,,,,,,,,,,,,,,,,,,,,,,,,,,,,,,,,,,,,,,,
0,55,55,76,1,,5f78f9ddcb63b34f243d2239,62c538b64547859c154cde66,2022-07-06_10h11.36.107,Colour_Asymmetry_Pilot,2022.1.3,Win32,59.99160118,62c50e9c1127f2cd403a315f,,,,,,,,,,,,,,,,,,,,,,,,,,,,,,,,,,,,,,,,,,,,,,,,,,,,,,,,,,,,,,,,,,,,,,,,,,,,,,,,,,,,,,,,,,,,,,,,,,,,,,,,,,,,,,,,,,,,,,,,,,,,,,,,,,,,,,,,,,,,,,,,,,,,,,,,,,,,,,,,,,,
0,56,56,72,1,,5f78f9ddcb63b34f243d2239,62c538b64547859c154cde66,2022-07-06_10h11.36.107,Colour_Asymmetry_Pilot,2022.1.3,Win32,59.99160118,62c50e9c1127f2cd403a315f,,,,,,,,,,,,,,,,,,,,,,,,,,,,,,,,,,,,,,,,,,,,,,,,,,,,,,,,,,,,,,,,,,,,,,,,,,,,,,,,,,,,,,,,,,,,,,,,,,,,,,,,,,,,,,,,,,,,,,,,,,,,,,,,,,,,,,,,,,,,,,,,,,,,,,,,,,,,,,,,,,,
0,57,57,88,1,,5f78f9ddcb63b34f243d2239,62c538b64547859c154cde66,2022-07-06_10h11.36.107,Colour_Asymmetry_Pilot,2022.1.3,Win32,59.99160118,62c50e9c1127f2cd403a315f,,,,,,,,,,,,,,,,,,,,,,,,,,,,,,,,,,,,,,,,,,,,,,,,,,,,,,,,,,,,,,,,,,,,,,,,,,,,,,,,,,,,,,,,,,,,,,,,,,,,,,,,,,,,,,,,,,,,,,,,,,,,,,,,,,,,,,,,,,,,,,,,,,,,,,,,,,,,,,,,,,,
0,58,58,66,1,,5f78f9ddcb63b34f243d2239,62c538b64547859c154cde66,2022-07-06_10h11.36.107,Colour_Asymmetry_Pilot,2022.1.3,Win32,59.99160118,62c50e9c1127f2cd403a315f,,,,,,,,,,,,,,,,,,,,,,,,,,,,,,,,,,,,,,,,,,,,,,,,,,,,,,,,,,,,,,,,,,,,,,,,,,,,,,,,,,,,,,,,,,,,,,,,,,,,,,,,,,,,,,,,,,,,,,,,,,,,,,,,,,,,,,,,,,,,,,,,,,,,,,,,,,,,,,,,,,,
0,59,59,44,1,,5f78f9ddcb63b34f243d2239,62c538b64547859c154cde66,2022-07-06_10h11.36.107,Colour_Asymmetry_Pilot,2022.1.3,Win32,59.99160118,62c50e9c1127f2cd403a315f,,,,,,,,,,,,,,,,,,,,,,,,,,,,,,,,,,,,,,,,,,,,,,,,,,,,,,,,,,,,,,,,,,,,,,,,,,,,,,,,,,,,,,,,,,,,,,,,,,,,,,,,,,,,,,,,,,,,,,,,,,,,,,,,,,,,,,,,,,,,,,,,,,,,,,,,,,,,,,,,,,,
0,60,60,70,1,,5f78f9ddcb63b34f243d2239,62c538b64547859c154cde66,2022-07-06_10h11.36.107,Colour_Asymmetry_Pilot,2022.1.3,Win32,59.99160118,62c50e9c1127f2cd403a315f,,,,,,,,,,,,,,,,,,,,,,,,,,,,,,,,,,,,,,,,,,,,,,,,,,,,,,,,,,,,,,,,,,,,,,,,,,,,,,,,,,,,,,,,,,,,,,,,,,,,,,,,,,,,,,,,,,,,,,,,,,,,,,,,,,,,,,,,,,,,,,,,,,,,,,,,,,,,,,,,,,,
0,61,61,55,1,,5f78f9ddcb63b34f243d2239,62c538b64547859c154cde66,2022-07-06_10h11.36.107,Colour_Asymmetry_Pilot,2022.1.3,Win32,59.99160118,62c50e9c1127f2cd403a315f,,,,,,,,,,,,,,,,,,,,,,,,,,,,,,,,,,,,,,,,,,,,,,,,,,,,,,,,,,,,,,,,,,,,,,,,,,,,,,,,,,,,,,,,,,,,,,,,,,,,,,,,,,,,,,,,,,,,,,,,,,,,,,,,,,,,,,,,,,,,,,,,,,,,,,,,,,,,,,,,,,,
0,62,62,11,1,,5f78f9ddcb63b34f243d2239,62c538b64547859c154cde66,2022-07-06_10h11.36.107,Colour_Asymmetry_Pilot,2022.1.3,Win32,59.99160118,62c50e9c1127f2cd403a315f,,,,,,,,,,,,,,,,,,,,,,,,,,,,,,,,,,,,,,,,,,,,,,,,,,,,,,,,,,,,,,,,,,,,,,,,,,,,,,,,,,,,,,,,,,,,,,,,,,,,,,,,,,,,,,,,,,,,,,,,,,,,,,,,,,,,,,,,,,,,,,,,,,,,,,,,,,,,,,,,,,,
0,63,63,0,1,,5f78f9ddcb63b34f243d2239,62c538b64547859c154cde66,2022-07-06_10h11.36.107,Colour_Asymmetry_Pilot,2022.1.3,Win32,59.99160118,62c50e9c1127f2cd403a315f,,,,,,,,,,,,,,,,,,,,,,,,,,,,,,,,,,,,,,,,,,,,,,,,,,,,,,,,,,,,,,,,,,,,,,,,,,,,,,,,,,,,,,,,,,,,,,,,,,,,,,,,,,,,,,,,,,,,,,,,,,,,,,,,,,,,,,,,,,,,,,,,,,,,,,,,,,,,,,,,,,,
0,64,64,89,1,,5f78f9ddcb63b34f243d2239,62c538b64547859c154cde66,2022-07-06_10h11.36.107,Colour_Asymmetry_Pilot,2022.1.3,Win32,59.99160118,62c50e9c1127f2cd403a315f,,,,,,,,,,,,,,,,,,,,,,,,,,,,,,,,,,,,,,,,,,,,,,,,,,,,,,,,,,,,,,,,,,,,,,,,,,,,,,,,,,,,,,,,,,,,,,,,,,,,,,,,,,,,,,,,,,,,,,,,,,,,,,,,,,,,,,,,,,,,,,,,,,,,,,,,,,,,,,,,,,,
0,65,65,46,1,,5f78f9ddcb63b34f243d2239,62c538b64547859c154cde66,2022-07-06_10h11.36.107,Colour_Asymmetry_Pilot,2022.1.3,Win32,59.99160118,62c50e9c1127f2cd403a315f,,,,,,,,,,,,,,,,,,,,,,,,,,,,,,,,,,,,,,,,,,,,,,,,,,,,,,,,,,,,,,,,,,,,,,,,,,,,,,,,,,,,,,,,,,,,,,,,,,,,,,,,,,,,,,,,,,,,,,,,,,,,,,,,,,,,,,,,,,,,,,,,,,,,,,,,,,,,,,,,,,,
0,66,66,68,1,,5f78f9ddcb63b34f243d2239,62c538b64547859c154cde66,2022-07-06_10h11.36.107,Colour_Asymmetry_Pilot,2022.1.3,Win32,59.99160118,62c50e9c1127f2cd403a315f,,,,,,,,,,,,,,,,,,,,,,,,,,,,,,,,,,,,,,,,,,,,,,,,,,,,,,,,,,,,,,,,,,,,,,,,,,,,,,,,,,,,,,,,,,,,,,,,,,,,,,,,,,,,,,,,,,,,,,,,,,,,,,,,,,,,,,,,,,,,,,,,,,,,,,,,,,,,,,,,,,,
0,67,67,58,1,,5f78f9ddcb63b34f243d2239,62c538b64547859c154cde66,2022-07-06_10h11.36.107,Colour_Asymmetry_Pilot,2022.1.3,Win32,59.99160118,62c50e9c1127f2cd403a315f,,,,,,,,,,,,,,,,,,,,,,,,,,,,,,,,,,,,,,,,,,,,,,,,,,,,,,,,,,,,,,,,,,,,,,,,,,,,,,,,,,,,,,,,,,,,,,,,,,,,,,,,,,,,,,,,,,,,,,,,,,,,,,,,,,,,,,,,,,,,,,,,,,,,,,,,,,,,,,,,,,,
0,68,68,28,1,,5f78f9ddcb63b34f243d2239,62c538b64547859c154cde66,2022-07-06_10h11.36.107,Colour_Asymmetry_Pilot,2022.1.3,Win32,59.99160118,62c50e9c1127f2cd403a315f,,,,,,,,,,,,,,,,,,,,,,,,,,,,,,,,,,,,,,,,,,,,,,,,,,,,,,,,,,,,,,,,,,,,,,,,,,,,,,,,,,,,,,,,,,,,,,,,,,,,,,,,,,,,,,,,,,,,,,,,,,,,,,,,,,,,,,,,,,,,,,,,,,,,,,,,,,,,,,,,,,,
0,69,69,23,1,,5f78f9ddcb63b34f243d2239,62c538b64547859c154cde66,2022-07-06_10h11.36.107,Colour_Asymmetry_Pilot,2022.1.3,Win32,59.99160118,62c50e9c1127f2cd403a315f,,,,,,,,,,,,,,,,,,,,,,,,,,,,,,,,,,,,,,,,,,,,,,,,,,,,,,,,,,,,,,,,,,,,,,,,,,,,,,,,,,,,,,,,,,,,,,,,,,,,,,,,,,,,,,,,,,,,,,,,,,,,,,,,,,,,,,,,,,,,,,,,,,,,,,,,,,,,,,,,,,,
0,70,70,38,1,,5f78f9ddcb63b34f243d2239,62c538b64547859c154cde66,2022-07-06_10h11.36.107,Colour_Asymmetry_Pilot,2022.1.3,Win32,59.99160118,62c50e9c1127f2cd403a315f,,,,,,,,,,,,,,,,,,,,,,,,,,,,,,,,,,,,,,,,,,,,,,,,,,,,,,,,,,,,,,,,,,,,,,,,,,,,,,,,,,,,,,,,,,,,,,,,,,,,,,,,,,,,,,,,,,,,,,,,,,,,,,,,,,,,,,,,,,,,,,,,,,,,,,,,,,,,,,,,,,,
0,71,71,21,1,,5f78f9ddcb63b34f243d2239,62c538b64547859c154cde66,2022-07-06_10h11.36.107,Colour_Asymmetry_Pilot,2022.1.3,Win32,59.99160118,62c50e9c1127f2cd403a315f,,,,,,,,,,,,,,,,,,,,,,,,,,,,,,,,,,,,,,,,,,,,,,,,,,,,,,,,,,,,,,,,,,,,,,,,,,,,,,,,,,,,,,,,,,,,,,,,,,,,,,,,,,,,,,,,,,,,,,,,,,,,,,,,,,,,,,,,,,,,,,,,,,,,,,,,,,,,,,,,,,,
0,72,72,5,1,,5f78f9ddcb63b34f243d2239,62c538b64547859c154cde66,2022-07-06_10h11.36.107,Colour_Asymmetry_Pilot,2022.1.3,Win32,59.99160118,62c50e9c1127f2cd403a315f,,,,,,,,,,,,,,,,,,,,,,,,,,,,,,,,,,,,,,,,,,,,,,,,,,,,,,,,,,,,,,,,,,,,,,,,,,,,,,,,,,,,,,,,,,,,,,,,,,,,,,,,,,,,,,,,,,,,,,,,,,,,,,,,,,,,,,,,,,,,,,,,,,,,,,,,,,,,,,,,,,,
0,73,73,52,1,,5f78f9ddcb63b34f243d2239,62c538b64547859c154cde66,2022-07-06_10h11.36.107,Colour_Asymmetry_Pilot,2022.1.3,Win32,59.99160118,62c50e9c1127f2cd403a315f,,,,,,,,,,,,,,,,,,,,,,,,,,,,,,,,,,,,,,,,,,,,,,,,,,,,,,,,,,,,,,,,,,,,,,,,,,,,,,,,,,,,,,,,,,,,,,,,,,,,,,,,,,,,,,,,,,,,,,,,,,,,,,,,,,,,,,,,,,,,,,,,,,,,,,,,,,,,,,,,,,,
0,74,74,75,1,,5f78f9ddcb63b34f243d2239,62c538b64547859c154cde66,2022-07-06_10h11.36.107,Colour_Asymmetry_Pilot,2022.1.3,Win32,59.99160118,62c50e9c1127f2cd403a315f,,,,,,,,,,,,,,,,,,,,,,,,,,,,,,,,,,,,,,,,,,,,,,,,,,,,,,,,,,,,,,,,,,,,,,,,,,,,,,,,,,,,,,,,,,,,,,,,,,,,,,,,,,,,,,,,,,,,,,,,,,,,,,,,,,,,,,,,,,,,,,,,,,,,,,,,,,,,,,,,,,,
0,75,75,40,1,,5f78f9ddcb63b34f243d2239,62c538b64547859c154cde66,2022-07-06_10h11.36.107,Colour_Asymmetry_Pilot,2022.1.3,Win32,59.99160118,62c50e9c1127f2cd403a315f,,,,,,,,,,,,,,,,,,,,,,,,,,,,,,,,,,,,,,,,,,,,,,,,,,,,,,,,,,,,,,,,,,,,,,,,,,,,,,,,,,,,,,,,,,,,,,,,,,,,,,,,,,,,,,,,,,,,,,,,,,,,,,,,,,,,,,,,,,,,,,,,,,,,,,,,,,,,,,,,,,,
0,76,76,80,1,,5f78f9ddcb63b34f243d2239,62c538b64547859c154cde66,2022-07-06_10h11.36.107,Colour_Asymmetry_Pilot,2022.1.3,Win32,59.99160118,62c50e9c1127f2cd403a315f,,,,,,,,,,,,,,,,,,,,,,,,,,,,,,,,,,,,,,,,,,,,,,,,,,,,,,,,,,,,,,,,,,,,,,,,,,,,,,,,,,,,,,,,,,,,,,,,,,,,,,,,,,,,,,,,,,,,,,,,,,,,,,,,,,,,,,,,,,,,,,,,,,,,,,,,,,,,,,,,,,,
0,77,77,32,1,,5f78f9ddcb63b34f243d2239,62c538b64547859c154cde66,2022-07-06_10h11.36.107,Colour_Asymmetry_Pilot,2022.1.3,Win32,59.99160118,62c50e9c1127f2cd403a315f,,,,,,,,,,,,,,,,,,,,,,,,,,,,,,,,,,,,,,,,,,,,,,,,,,,,,,,,,,,,,,,,,,,,,,,,,,,,,,,,,,,,,,,,,,,,,,,,,,,,,,,,,,,,,,,,,,,,,,,,,,,,,,,,,,,,,,,,,,,,,,,,,,,,,,,,,,,,,,,,,,,
0,78,78,30,1,,5f78f9ddcb63b34f243d2239,62c538b64547859c154cde66,2022-07-06_10h11.36.107,Colour_Asymmetry_Pilot,2022.1.3,Win32,59.99160118,62c50e9c1127f2cd403a315f,,,,,,,,,,,,,,,,,,,,,,,,,,,,,,,,,,,,,,,,,,,,,,,,,,,,,,,,,,,,,,,,,,,,,,,,,,,,,,,,,,,,,,,,,,,,,,,,,,,,,,,,,,,,,,,,,,,,,,,,,,,,,,,,,,,,,,,,,,,,,,,,,,,,,,,,,,,,,,,,,,,
0,79,79,13,1,,5f78f9ddcb63b34f243d2239,62c538b64547859c154cde66,2022-07-06_10h11.36.107,Colour_Asymmetry_Pilot,2022.1.3,Win32,59.99160118,62c50e9c1127f2cd403a315f,,,,,,,,,,,,,,,,,,,,,,,,,,,,,,,,,,,,,,,,,,,,,,,,,,,,,,,,,,,,,,,,,,,,,,,,,,,,,,,,,,,,,,,,,,,,,,,,,,,,,,,,,,,,,,,,,,,,,,,,,,,,,,,,,,,,,,,,,,,,,,,,,,,,,,,,,,,,,,,,,,,
0,80,80,16,1,,5f78f9ddcb63b34f243d2239,62c538b64547859c154cde66,2022-07-06_10h11.36.107,Colour_Asymmetry_Pilot,2022.1.3,Win32,59.99160118,62c50e9c1127f2cd403a315f,,,,,,,,,,,,,,,,,,,,,,,,,,,,,,,,,,,,,,,,,,,,,,,,,,,,,,,,,,,,,,,,,,,,,,,,,,,,,,,,,,,,,,,,,,,,,,,,,,,,,,,,,,,,,,,,,,,,,,,,,,,,,,,,,,,,,,,,,,,,,,,,,,,,,,,,,,,,,,,,,,,
0,81,81,41,1,,5f78f9ddcb63b34f243d2239,62c538b64547859c154cde66,2022-07-06_10h11.36.107,Colour_Asymmetry_Pilot,2022.1.3,Win32,59.99160118,62c50e9c1127f2cd403a315f,,,,,,,,,,,,,,,,,,,,,,,,,,,,,,,,,,,,,,,,,,,,,,,,,,,,,,,,,,,,,,,,,,,,,,,,,,,,,,,,,,,,,,,,,,,,,,,,,,,,,,,,,,,,,,,,,,,,,,,,,,,,,,,,,,,,,,,,,,,,,,,,,,,,,,,,,,,,,,,,,,,
0,82,82,26,1,,5f78f9ddcb63b34f243d2239,62c538b64547859c154cde66,2022-07-06_10h11.36.107,Colour_Asymmetry_Pilot,2022.1.3,Win32,59.99160118,62c50e9c1127f2cd403a315f,,,,,,,,,,,,,,,,,,,,,,,,,,,,,,,,,,,,,,,,,,,,,,,,,,,,,,,,,,,,,,,,,,,,,,,,,,,,,,,,,,,,,,,,,,,,,,,,,,,,,,,,,,,,,,,,,,,,,,,,,,,,,,,,,,,,,,,,,,,,,,,,,,,,,,,,,,,,,,,,,,,
0,83,83,81,1,,5f78f9ddcb63b34f243d2239,62c538b64547859c154cde66,2022-07-06_10h11.36.107,Colour_Asymmetry_Pilot,2022.1.3,Win32,59.99160118,62c50e9c1127f2cd403a315f,,,,,,,,,,,,,,,,,,,,,,,,,,,,,,,,,,,,,,,,,,,,,,,,,,,,,,,,,,,,,,,,,,,,,,,,,,,,,,,,,,,,,,,,,,,,,,,,,,,,,,,,,,,,,,,,,,,,,,,,,,,,,,,,,,,,,,,,,,,,,,,,,,,,,,,,,,,,,,,,,,,
0,84,84,82,1,,5f78f9ddcb63b34f243d2239,62c538b64547859c154cde66,2022-07-06_10h11.36.107,Colour_Asymmetry_Pilot,2022.1.3,Win32,59.99160118,62c50e9c1127f2cd403a315f,,,,,,,,,,,,,,,,,,,,,,,,,,,,,,,,,,,,,,,,,,,,,,,,,,,,,,,,,,,,,,,,,,,,,,,,,,,,,,,,,,,,,,,,,,,,,,,,,,,,,,,,,,,,,,,,,,,,,,,,,,,,,,,,,,,,,,,,,,,,,,,,,,,,,,,,,,,,,,,,,,,
0,85,85,43,1,,5f78f9ddcb63b34f243d2239,62c538b64547859c154cde66,2022-07-06_10h11.36.107,Colour_Asymmetry_Pilot,2022.1.3,Win32,59.99160118,62c50e9c1127f2cd403a315f,,,,,,,,,,,,,,,,,,,,,,,,,,,,,,,,,,,,,,,,,,,,,,,,,,,,,,,,,,,,,,,,,,,,,,,,,,,,,,,,,,,,,,,,,,,,,,,,,,,,,,,,,,,,,,,,,,,,,,,,,,,,,,,,,,,,,,,,,,,,,,,,,,,,,,,,,,,,,,,,,,,
0,86,86,51,1,,5f78f9ddcb63b34f243d2239,62c538b64547859c154cde66,2022-07-06_10h11.36.107,Colour_Asymmetry_Pilot,2022.1.3,Win32,59.99160118,62c50e9c1127f2cd403a315f,,,,,,,,,,,,,,,,,,,,,,,,,,,,,,,,,,,,,,,,,,,,,,,,,,,,,,,,,,,,,,,,,,,,,,,,,,,,,,,,,,,,,,,,,,,,,,,,,,,,,,,,,,,,,,,,,,,,,,,,,,,,,,,,,,,,,,,,,,,,,,,,,,,,,,,,,,,,,,,,,,,
0,87,87,62,1,,5f78f9ddcb63b34f243d2239,62c538b64547859c154cde66,2022-07-06_10h11.36.107,Colour_Asymmetry_Pilot,2022.1.3,Win32,59.99160118,62c50e9c1127f2cd403a315f,,,,,,,,,,,,,,,,,,,,,,,,,,,,,,,,,,,,,,,,,,,,,,,,,,,,,,,,,,,,,,,,,,,,,,,,,,,,,,,,,,,,,,,,,,,,,,,,,,,,,,,,,,,,,,,,,,,,,,,,,,,,,,,,,,,,,,,,,,,,,,,,,,,,,,,,,,,,,,,,,,,
0,88,88,17,1,,5f78f9ddcb63b34f243d2239,62c538b64547859c154cde66,2022-07-06_10h11.36.107,Colour_Asymmetry_Pilot,2022.1.3,Win32,59.99160118,62c50e9c1127f2cd403a315f,,,,,,,,,,,,,,,,,,,,,,,,,,,,,,,,,,,,,,,,,,,,,,,,,,,,,,,,,,,,,,,,,,,,,,,,,,,,,,,,,,,,,,,,,,,,,,,,,,,,,,,,,,,,,,,,,,,,,,,,,,,,,,,,,,,,,,,,,,,,,,,,,,,,,,,,,,,,,,,,,,,
0,89,89,36,1,,5f78f9ddcb63b34f243d2239,62c538b64547859c154cde66,2022-07-06_10h11.36.107,Colour_Asymmetry_Pilot,2022.1.3,Win32,59.99160118,62c50e9c1127f2cd403a315f,,,,,,,,,,,,,,,,,,,,,,,,,,,,,,,,,,,,,,,,,,,,,,,,,,,,,,,,,,,,,,,,,,,,,,,,,,,,,,,,,,,,,,,,,,,,,,,,,,,,,,,,,,,,,,,,,,,,,,,,,,,,,,,,,,,,,,,,,,,,,,,,,,,,,,,,,,,,,,,,,,,
0,90,90,64,1,,5f78f9ddcb63b34f243d2239,62c538b64547859c154cde66,2022-07-06_10h11.36.107,Colour_Asymmetry_Pilot,2022.1.3,Win32,59.99160118,62c50e9c1127f2cd403a315f,,,,,,,,,,,,,,,,,,,,,,,,,,,,,,,,,,,,,,,,,,,,,,,,,,,,,,,,,,,,,,,,,,,,,,,,,,,,,,,,,,,,,,,,,,,,,,,,,,,,,,,,,,,,,,,,,,,,,,,,,,,,,,,,,,,,,,,,,,,,,,,,,,,,,,,,,,,,,,,,,,,
0,91,91,65,1,,5f78f9ddcb63b34f243d2239,62c538b64547859c154cde66,2022-07-06_10h11.36.107,Colour_Asymmetry_Pilot,2022.1.3,Win32,59.99160118,62c50e9c1127f2cd403a315f,,,,,,,,,,,,,,,,,,,,,,,,,,,,,,,,,,,,,,,,,,,,,,,,,,,,,,,,,,,,,,,,,,,,,,,,,,,,,,,,,,,,,,,,,,,,,,,,,,,,,,,,,,,,,,,,,,,,,,,,,,,,,,,,,,,,,,,,,,,,,,,,,,,,,,,,,,,,,,,,,,,
0,92,92,18,1,,5f78f9ddcb63b34f243d2239,62c538b64547859c154cde66,2022-07-06_10h11.36.107,Colour_Asymmetry_Pilot,2022.1.3,Win32,59.99160118,62c50e9c1127f2cd403a315f,,,,,,,,,,,,,,,,,,,,,,,,,,,,,,,,,,,,,,,,,,,,,,,,,,,,,,,,,,,,,,,,,,,,,,,,,,,,,,,,,,,,,,,,,,,,,,,,,,,,,,,,,,,,,,,,,,,,,,,,,,,,,,,,,,,,,,,,,,,,,,,,,,,,,,,,,,,,,,,,,,,
,,,,,,5f78f9ddcb63b34f243d2239,62c538b64547859c154cde66,2022-07-06_10h11.36.107,Colour_Asymmetry_Pilot,2022.1.3,Win32,59.99160118,62c50e9c1127f2cd403a315f,0,0,0,80,1,onetwo,,,,,,,,,,,,,,,,,,,,,,,,,,,,,,,,,,,,,,,,,,,,,,,,,,,,,,,,,,,,,,,,,,,,,,,,,,,,,,,,,,,,,,,,,,,,,,,,,,,,,,,,,,,,,,,,,,,,,,,,,,,,,,,,,,,,,,,,,,,,,,,,,,,,,,,,,,,,,
,,,,,,5f78f9ddcb63b34f243d2239,62c538b64547859c154cde66,2022-07-06_10h11.36.107,Colour_Asymmetry_Pilot,2022.1.3,Win32,59.99160118,62c50e9c1127f2cd403a315f,0,1,1,84,1,threeone,,,,,,,,,,,,,,,,,,,,,,,,,,,,,,,,,,,,,,,,,,,,,,,,,,,,,,,,,,,,,,,,,,,,,,,,,,,,,,,,,,,,,,,,,,,,,,,,,,,,,,,,,,,,,,,,,,,,,,,,,,,,,,,,,,,,,,,,,,,,,,,,,,,,,,,,,,,,,
,,,,,,5f78f9ddcb63b34f243d2239,62c538b64547859c154cde66,2022-07-06_10h11.36.107,Colour_Asymmetry_Pilot,2022.1.3,Win32,59.99160118,62c50e9c1127f2cd403a315f,0,2,2,66,1,twoone,,,,,,,,,,,,,,,,,,,,,,,,,,,,,,,,,,,,,,,,,,,,,,,,,,,,,,,,,,,,,,,,,,,,,,,,,,,,,,,,,,,,,,,,,,,,,,,,,,,,,,,,,,,,,,,,,,,,,,,,,,,,,,,,,,,,,,,,,,,,,,,,,,,,,,,,,,,,,
,,,,,,5f78f9ddcb63b34f243d2239,62c538b64547859c154cde66,2022-07-06_10h11.36.107,Colour_Asymmetry_Pilot,2022.1.3,Win32,59.99160118,62c50e9c1127f2cd403a315f,0,3,3,107,1,twofour,,,,,,,,,,,,,,,,,,,,,,,,,,,,,,,,,,,,,,,,,,,,,,,,,,,,,,,,,,,,,,,,,,,,,,,,,,,,,,,,,,,,,,,,,,,,,,,,,,,,,,,,,,,,,,,,,,,,,,,,,,,,,,,,,,,,,,,,,,,,,,,,,,,,,,,,,,,,,
,,,,,,5f78f9ddcb63b34f243d2239,62c538b64547859c154cde66,2022-07-06_10h11.36.107,Colour_Asymmetry_Pilot,2022.1.3,Win32,59.99160118,62c50e9c1127f2cd403a315f,0,4,4,24,1,onetwo,,,,,,,,,,,,,,,,,,,,,,,,,,,,,,,,,,,,,,,,,,,,,,,,,,,,,,,,,,,,,,,,,,,,,,,,,,,,,,,,,,,,,,,,,,,,,,,,,,,,,,,,,,,,,,,,,,,,,,,,,,,,,,,,,,,,,,,,,,,,,,,,,,,,,,,,,,,,,
,,,,,,5f78f9ddcb63b34f243d2239,62c538b64547859c154cde66,2022-07-06_10h11.36.107,Colour_Asymmetry_Pilot,2022.1.3,Win32,59.99160118,62c50e9c1127f2cd403a315f,0,5,5,37,1,threefour,,,,,,,,,,,,,,,,,,,,,,,,,,,,,,,,,,,,,,,,,,,,,,,,,,,,,,,,,,,,,,,,,,,,,,,,,,,,,,,,,,,,,,,,,,,,,,,,,,,,,,,,,,,,,,,,,,,,,,,,,,,,,,,,,,,,,,,,,,,,,,,,,,,,,,,,,,,,,
,,,,,,5f78f9ddcb63b34f243d2239,62c538b64547859c154cde66,2022-07-06_10h11.36.107,Colour_Asymmetry_Pilot,2022.1.3,Win32,59.99160118,62c50e9c1127f2cd403a315f,0,6,6,71,1,fourthree,,,,,,,,,,,,,,,,,,,,,,,,,,,,,,,,,,,,,,,,,,,,,,,,,,,,,,,,,,,,,,,,,,,,,,,,,,,,,,,,,,,,,,,,,,,,,,,,,,,,,,,,,,,,,,,,,,,,,,,,,,,,,,,,,,,,,,,,,,,,,,,,,,,,,,,,,,,,,
,,,,,,5f78f9ddcb63b34f243d2239,62c538b64547859c154cde66,2022-07-06_10h11.36.107,Colour_Asymmetry_Pilot,2022.1.3,Win32,59.99160118,62c50e9c1127f2cd403a315f,0,7,7,120,1,onetwo,,,,,,,,,,,,,,,,,,,,,,,,,,,,,,,,,,,,,,,,,,,,,,,,,,,,,,,,,,,,,,,,,,,,,,,,,,,,,,,,,,,,,,,,,,,,,,,,,,,,,,,,,,,,,,,,,,,,,,,,,,,,,,,,,,,,,,,,,,,,,,,,,,,,,,,,,,,,,
,,,,,,5f78f9ddcb63b34f243d2239,62c538b64547859c154cde66,2022-07-06_10h11.36.107,Colour_Asymmetry_Pilot,2022.1.3,Win32,59.99160118,62c50e9c1127f2cd403a315f,0,8,8,65,1,onethree,,,,,,,,,,,,,,,,,,,,,,,,,,,,,,,,,,,,,,,,,,,,,,,,,,,,,,,,,,,,,,,,,,,,,,,,,,,,,,,,,,,,,,,,,,,,,,,,,,,,,,,,,,,,,,,,,,,,,,,,,,,,,,,,,,,,,,,,,,,,,,,,,,,,,,,,,,,,,
,,,,,,5f78f9ddcb63b34f243d2239,62c538b64547859c154cde66,2022-07-06_10h11.36.107,Colour_Asymmetry_Pilot,2022.1.3,Win32,59.99160118,62c50e9c1127f2cd403a315f,0,9,9,45,1,threefour,,,,,,,,,,,,,,,,,,,,,,,,,,,,,,,,,,,,,,,,,,,,,,,,,,,,,,,,,,,,,,,,,,,,,,,,,,,,,,,,,,,,,,,,,,,,,,,,,,,,,,,,,,,,,,,,,,,,,,,,,,,,,,,,,,,,,,,,,,,,,,,,,,,,,,,,,,,,,
,,,,,,5f78f9ddcb63b34f243d2239,62c538b64547859c154cde66,2022-07-06_10h11.36.107,Colour_Asymmetry_Pilot,2022.1.3,Win32,59.99160118,62c50e9c1127f2cd403a315f,0,10,10,4,1,threeone,,,,,,,,,,,,,,,,,,,,,,,,,,,,,,,,,,,,,,,,,,,,,,,,,,,,,,,,,,,,,,,,,,,,,,,,,,,,,,,,,,,,,,,,,,,,,,,,,,,,,,,,,,,,,,,,,,,,,,,,,,,,,,,,,,,,,,,,,,,,,,,,,,,,,,,,,,,,,
,,,,,,5f78f9ddcb63b34f243d2239,62c538b64547859c154cde66,2022-07-06_10h11.36.107,Colour_Asymmetry_Pilot,2022.1.3,Win32,59.99160118,62c50e9c1127f2cd403a315f,0,11,11,43,1,twofour,,,,,,,,,,,,,,,,,,,,,,,,,,,,,,,,,,,,,,,,,,,,,,,,,,,,,,,,,,,,,,,,,,,,,,,,,,,,,,,,,,,,,,,,,,,,,,,,,,,,,,,,,,,,,,,,,,,,,,,,,,,,,,,,,,,,,,,,,,,,,,,,,,,,,,,,,,,,,
,,,,,,5f78f9ddcb63b34f243d2239,62c538b64547859c154cde66,2022-07-06_10h11.36.107,Colour_Asymmetry_Pilot,2022.1.3,Win32,59.99160118,62c50e9c1127f2cd403a315f,0,12,12,51,1,twofour,,,,,,,,,,,,,,,,,,,,,,,,,,,,,,,,,,,,,,,,,,,,,,,,,,,,,,,,,,,,,,,,,,,,,,,,,,,,,,,,,,,,,,,,,,,,,,,,,,,,,,,,,,,,,,,,,,,,,,,,,,,,,,,,,,,,,,,,,,,,,,,,,,,,,,,,,,,,,
,,,,,,5f78f9ddcb63b34f243d2239,62c538b64547859c154cde66,2022-07-06_10h11.36.107,Colour_Asymmetry_Pilot,2022.1.3,Win32,59.99160118,62c50e9c1127f2cd403a315f,0,13,13,13,1,threefour,,,,,,,,,,,,,,,,,,,,,,,,,,,,,,,,,,,,,,,,,,,,,,,,,,,,,,,,,,,,,,,,,,,,,,,,,,,,,,,,,,,,,,,,,,,,,,,,,,,,,,,,,,,,,,,,,,,,,,,,,,,,,,,,,,,,,,,,,,,,,,,,,,,,,,,,,,,,,
,,,,,,5f78f9ddcb63b34f243d2239,62c538b64547859c154cde66,2022-07-06_10h11.36.107,Colour_Asymmetry_Pilot,2022.1.3,Win32,59.99160118,62c50e9c1127f2cd403a315f,0,14,14,89,1,onethree,,,,,,,,,,,,,,,,,,,,,,,,,,,,,,,,,,,,,,,,,,,,,,,,,,,,,,,,,,,,,,,,,,,,,,,,,,,,,,,,,,,,,,,,,,,,,,,,,,,,,,,,,,,,,,,,,,,,,,,,,,,,,,,,,,,,,,,,,,,,,,,,,,,,,,,,,,,,,
,,,,,,5f78f9ddcb63b34f243d2239,62c538b64547859c154cde66,2022-07-06_10h11.36.107,Colour_Asymmetry_Pilot,2022.1.3,Win32,59.99160118,62c50e9c1127f2cd403a315f,0,15,15,114,1,twoone,,,,,,,,,,,,,,,,,,,,,,,,,,,,,,,,,,,,,,,,,,,,,,,,,,,,,,,,,,,,,,,,,,,,,,,,,,,,,,,,,,,,,,,,,,,,,,,,,,,,,,,,,,,,,,,,,,,,,,,,,,,,,,,,,,,,,,,,,,,,,,,,,,,,,,,,,,,,,
,,,,,,5f78f9ddcb63b34f243d2239,62c538b64547859c154cde66,2022-07-06_10h11.36.107,Colour_Asymmetry_Pilot,2022.1.3,Win32,59.99160118,62c50e9c1127f2cd403a315f,0,16,16,42,1,twoone,,,,,,,,,,,,,,,,,,,,,,,,,,,,,,,,,,,,,,,,,,,,,,,,,,,,,,,,,,,,,,,,,,,,,,,,,,,,,,,,,,,,,,,,,,,,,,,,,,,,,,,,,,,,,,,,,,,,,,,,,,,,,,,,,,,,,,,,,,,,,,,,,,,,,,,,,,,,,
,,,,,,5f78f9ddcb63b34f243d2239,62c538b64547859c154cde66,2022-07-06_10h11.36.107,Colour_Asymmetry_Pilot,2022.1.3,Win32,59.99160118,62c50e9c1127f2cd403a315f,0,17,17,154,1,twoone,,,,,,,,,,,,,,,,,,,,,,,,,,,,,,,,,,,,,,,,,,,,,,,,,,,,,,,,,,,,,,,,,,,,,,,,,,,,,,,,,,,,,,,,,,,,,,,,,,,,,,,,,,,,,,,,,,,,,,,,,,,,,,,,,,,,,,,,,,,,,,,,,,,,,,,,,,,,,
,,,,,,5f78f9ddcb63b34f243d2239,62c538b64547859c154cde66,2022-07-06_10h11.36.107,Colour_Asymmetry_Pilot,2022.1.3,Win32,59.99160118,62c50e9c1127f2cd403a315f,0,18,18,86,1,fourtwo,,,,,,,,,,,,,,,,,,,,,,,,,,,,,,,,,,,,,,,,,,,,,,,,,,,,,,,,,,,,,,,,,,,,,,,,,,,,,,,,,,,,,,,,,,,,,,,,,,,,,,,,,,,,,,,,,,,,,,,,,,,,,,,,,,,,,,,,,,,,,,,,,,,,,,,,,,,,,
,,,,,,5f78f9ddcb63b34f243d2239,62c538b64547859c154cde66,2022-07-06_10h11.36.107,Colour_Asymmetry_Pilot,2022.1.3,Win32,59.99160118,62c50e9c1127f2cd403a315f,0,19,19,76,1,threeone,,,,,,,,,,,,,,,,,,,,,,,,,,,,,,,,,,,,,,,,,,,,,,,,,,,,,,,,,,,,,,,,,,,,,,,,,,,,,,,,,,,,,,,,,,,,,,,,,,,,,,,,,,,,,,,,,,,,,,,,,,,,,,,,,,,,,,,,,,,,,,,,,,,,,,,,,,,,,
,,,,,,5f78f9ddcb63b34f243d2239,62c538b64547859c154cde66,2022-07-06_10h11.36.107,Colour_Asymmetry_Pilot,2022.1.3,Win32,59.99160118,62c50e9c1127f2cd403a315f,0,20,20,149,1,threefour,,,,,,,,,,,,,,,,,,,,,,,,,,,,,,,,,,,,,,,,,,,,,,,,,,,,,,,,,,,,,,,,,,,,,,,,,,,,,,,,,,,,,,,,,,,,,,,,,,,,,,,,,,,,,,,,,,,,,,,,,,,,,,,,,,,,,,,,,,,,,,,,,,,,,,,,,,,,,
,,,,,,5f78f9ddcb63b34f243d2239,62c538b64547859c154cde66,2022-07-06_10h11.36.107,Colour_Asymmetry_Pilot,2022.1.3,Win32,59.99160118,62c50e9c1127f2cd403a315f,0,21,21,138,1,twoone,,,,,,,,,,,,,,,,,,,,,,,,,,,,,,,,,,,,,,,,,,,,,,,,,,,,,,,,,,,,,,,,,,,,,,,,,,,,,,,,,,,,,,,,,,,,,,,,,,,,,,,,,,,,,,,,,,,,,,,,,,,,,,,,,,,,,,,,,,,,,,,,,,,,,,,,,,,,,
,,,,,,5f78f9ddcb63b34f243d2239,62c538b64547859c154cde66,2022-07-06_10h11.36.107,Colour_Asymmetry_Pilot,2022.1.3,Win32,59.99160118,62c50e9c1127f2cd403a315f,0,22,22,122,1,twoone,,,,,,,,,,,,,,,,,,,,,,,,,,,,,,,,,,,,,,,,,,,,,,,,,,,,,,,,,,,,,,,,,,,,,,,,,,,,,,,,,,,,,,,,,,,,,,,,,,,,,,,,,,,,,,,,,,,,,,,,,,,,,,,,,,,,,,,,,,,,,,,,,,,,,,,,,,,,,
,,,,,,5f78f9ddcb63b34f243d2239,62c538b64547859c154cde66,2022-07-06_10h11.36.107,Colour_Asymmetry_Pilot,2022.1.3,Win32,59.99160118,62c50e9c1127f2cd403a315f,0,23,23,18,1,twoone,,,,,,,,,,,,,,,,,,,,,,,,,,,,,,,,,,,,,,,,,,,,,,,,,,,,,,,,,,,,,,,,,,,,,,,,,,,,,,,,,,,,,,,,,,,,,,,,,,,,,,,,,,,,,,,,,,,,,,,,,,,,,,,,,,,,,,,,,,,,,,,,,,,,,,,,,,,,,
,,,,,,5f78f9ddcb63b34f243d2239,62c538b64547859c154cde66,2022-07-06_10h11.36.107,Colour_Asymmetry_Pilot,2022.1.3,Win32,59.99160118,62c50e9c1127f2cd403a315f,0,24,24,11,1,twofour,,,,,,,,,,,,,,,,,,,,,,,,,,,,,,,,,,,,,,,,,,,,,,,,,,,,,,,,,,,,,,,,,,,,,,,,,,,,,,,,,,,,,,,,,,,,,,,,,,,,,,,,,,,,,,,,,,,,,,,,,,,,,,,,,,,,,,,,,,,,,,,,,,,,,,,,,,,,,
,,,,,,5f78f9ddcb63b34f243d2239,62c538b64547859c154cde66,2022-07-06_10h11.36.107,Colour_Asymmetry_Pilot,2022.1.3,Win32,59.99160118,62c50e9c1127f2cd403a315f,0,25,25,69,1,threefour,,,,,,,,,,,,,,,,,,,,,,,,,,,,,,,,,,,,,,,,,,,,,,,,,,,,,,,,,,,,,,,,,,,,,,,,,,,,,,,,,,,,,,,,,,,,,,,,,,,,,,,,,,,,,,,,,,,,,,,,,,,,,,,,,,,,,,,,,,,,,,,,,,,,,,,,,,,,,
,,,,,,5f78f9ddcb63b34f243d2239,62c538b64547859c154cde66,2022-07-06_10h11.36.107,Colour_Asymmetry_Pilot,2022.1.3,Win32,59.99160118,62c50e9c1127f2cd403a315f,0,26,26,111,1,fourthree,,,,,,,,,,,,,,,,,,,,,,,,,,,,,,,,,,,,,,,,,,,,,,,,,,,,,,,,,,,,,,,,,,,,,,,,,,,,,,,,,,,,,,,,,,,,,,,,,,,,,,,,,,,,,,,,,,,,,,,,,,,,,,,,,,,,,,,,,,,,,,,,,,,,,,,,,,,,,
,,,,,,5f78f9ddcb63b34f243d2239,62c538b64547859c154cde66,2022-07-06_10h11.36.107,Colour_Asymmetry_Pilot,2022.1.3,Win32,59.99160118,62c50e9c1127f2cd403a315f,0,27,27,48,1,onetwo,,,,,,,,,,,,,,,,,,,,,,,,,,,,,,,,,,,,,,,,,,,,,,,,,,,,,,,,,,,,,,,,,,,,,,,,,,,,,,,,,,,,,,,,,,,,,,,,,,,,,,,,,,,,,,,,,,,,,,,,,,,,,,,,,,,,,,,,,,,,,,,,,,,,,,,,,,,,,
,,,,,,5f78f9ddcb63b34f243d2239,62c538b64547859c154cde66,2022-07-06_10h11.36.107,Colour_Asymmetry_Pilot,2022.1.3,Win32,59.99160118,62c50e9c1127f2cd403a315f,0,28,28,36,1,threeone,,,,,,,,,,,,,,,,,,,,,,,,,,,,,,,,,,,,,,,,,,,,,,,,,,,,,,,,,,,,,,,,,,,,,,,,,,,,,,,,,,,,,,,,,,,,,,,,,,,,,,,,,,,,,,,,,,,,,,,,,,,,,,,,,,,,,,,,,,,,,,,,,,,,,,,,,,,,,
,,,,,,5f78f9ddcb63b34f243d2239,62c538b64547859c154cde66,2022-07-06_10h11.36.107,Colour_Asymmetry_Pilot,2022.1.3,Win32,59.99160118,62c50e9c1127f2cd403a315f,0,29,29,129,1,onethree,,,,,,,,,,,,,,,,,,,,,,,,,,,,,,,,,,,,,,,,,,,,,,,,,,,,,,,,,,,,,,,,,,,,,,,,,,,,,,,,,,,,,,,,,,,,,,,,,,,,,,,,,,,,,,,,,,,,,,,,,,,,,,,,,,,,,,,,,,,,,,,,,,,,,,,,,,,,,
,,,,,,5f78f9ddcb63b34f243d2239,62c538b64547859c154cde66,2022-07-06_10h11.36.107,Colour_Asymmetry_Pilot,2022.1.3,Win32,59.99160118,62c50e9c1127f2cd403a315f,0,30,30,40,1,onetwo,,,,,,,,,,,,,,,,,,,,,,,,,,,,,,,,,,,,,,,,,,,,,,,,,,,,,,,,,,,,,,,,,,,,,,,,,,,,,,,,,,,,,,,,,,,,,,,,,,,,,,,,,,,,,,,,,,,,,,,,,,,,,,,,,,,,,,,,,,,,,,,,,,,,,,,,,,,,,
,,,,,,5f78f9ddcb63b34f243d2239,62c538b64547859c154cde66,2022-07-06_10h11.36.107,Colour_Asymmetry_Pilot,2022.1.3,Win32,59.99160118,62c50e9c1127f2cd403a315f,0,31,31,74,1,twoone,,,,,,,,,,,,,,,,,,,,,,,,,,,,,,,,,,,,,,,,,,,,,,,,,,,,,,,,,,,,,,,,,,,,,,,,,,,,,,,,,,,,,,,,,,,,,,,,,,,,,,,,,,,,,,,,,,,,,,,,,,,,,,,,,,,,,,,,,,,,,,,,,,,,,,,,,,,,,
,,,,,,5f78f9ddcb63b34f243d2239,62c538b64547859c154cde66,2022-07-06_10h11.36.107,Colour_Asymmetry_Pilot,2022.1.3,Win32,59.99160118,62c50e9c1127f2cd403a315f,0,32,32,121,1,onethree,,,,,,,,,,,,,,,,,,,,,,,,,,,,,,,,,,,,,,,,,,,,,,,,,,,,,,,,,,,,,,,,,,,,,,,,,,,,,,,,,,,,,,,,,,,,,,,,,,,,,,,,,,,,,,,,,,,,,,,,,,,,,,,,,,,,,,,,,,,,,,,,,,,,,,,,,,,,,
,,,,,,5f78f9ddcb63b34f243d2239,62c538b64547859c154cde66,2022-07-06_10h11.36.107,Colour_Asymmetry_Pilot,2022.1.3,Win32,59.99160118,62c50e9c1127f2cd403a315f,0,33,33,142,1,fourtwo,,,,,,,,,,,,,,,,,,,,,,,,,,,,,,,,,,,,,,,,,,,,,,,,,,,,,,,,,,,,,,,,,,,,,,,,,,,,,,,,,,,,,,,,,,,,,,,,,,,,,,,,,,,,,,,,,,,,,,,,,,,,,,,,,,,,,,,,,,,,,,,,,,,,,,,,,,,,,
,,,,,,5f78f9ddcb63b34f243d2239,62c538b64547859c154cde66,2022-07-06_10h11.36.107,Colour_Asymmetry_Pilot,2022.1.3,Win32,59.99160118,62c50e9c1127f2cd403a315f,0,34,34,8,1,onetwo,,,,,,,,,,,,,,,,,,,,,,,,,,,,,,,,,,,,,,,,,,,,,,,,,,,,,,,,,,,,,,,,,,,,,,,,,,,,,,,,,,,,,,,,,,,,,,,,,,,,,,,,,,,,,,,,,,,,,,,,,,,,,,,,,,,,,,,,,,,,,,,,,,,,,,,,,,,,,
,,,,,,5f78f9ddcb63b34f243d2239,62c538b64547859c154cde66,2022-07-06_10h11.36.107,Colour_Asymmetry_Pilot,2022.1.3,Win32,59.99160118,62c50e9c1127f2cd403a315f,0,35,35,160,1,onetwo,,,,,,,,,,,,,,,,,,,,,,,,,,,,,,,,,,,,,,,,,,,,,,,,,,,,,,,,,,,,,,,,,,,,,,,,,,,,,,,,,,,,,,,,,,,,,,,,,,,,,,,,,,,,,,,,,,,,,,,,,,,,,,,,,,,,,,,,,,,,,,,,,,,,,,,,,,,,,
,,,,,,5f78f9ddcb63b34f243d2239,62c538b64547859c154cde66,2022-07-06_10h11.36.107,Colour_Asymmetry_Pilot,2022.1.3,Win32,59.99160118,62c50e9c1127f2cd403a315f,0,36,36,30,1,fourtwo,,,,,,,,,,,,,,,,,,,,,,,,,,,,,,,,,,,,,,,,,,,,,,,,,,,,,,,,,,,,,,,,,,,,,,,,,,,,,,,,,,,,,,,,,,,,,,,,,,,,,,,,,,,,,,,,,,,,,,,,,,,,,,,,,,,,,,,,,,,,,,,,,,,,,,,,,,,,,
,,,,,,5f78f9ddcb63b34f243d2239,62c538b64547859c154cde66,2022-07-06_10h11.36.107,Colour_Asymmetry_Pilot,2022.1.3,Win32,59.99160118,62c50e9c1127f2cd403a315f,0,37,37,98,1,twoone,,,,,,,,,,,,,,,,,,,,,,,,,,,,,,,,,,,,,,,,,,,,,,,,,,,,,,,,,,,,,,,,,,,,,,,,,,,,,,,,,,,,,,,,,,,,,,,,,,,,,,,,,,,,,,,,,,,,,,,,,,,,,,,,,,,,,,,,,,,,,,,,,,,,,,,,,,,,,
,,,,,,5f78f9ddcb63b34f243d2239,62c538b64547859c154cde66,2022-07-06_10h11.36.107,Colour_Asymmetry_Pilot,2022.1.3,Win32,59.99160118,62c50e9c1127f2cd403a315f,0,38,38,151,1,fourthree,,,,,,,,,,,,,,,,,,,,,,,,,,,,,,,,,,,,,,,,,,,,,,,,,,,,,,,,,,,,,,,,,,,,,,,,,,,,,,,,,,,,,,,,,,,,,,,,,,,,,,,,,,,,,,,,,,,,,,,,,,,,,,,,,,,,,,,,,,,,,,,,,,,,,,,,,,,,,
,,,,,,5f78f9ddcb63b34f243d2239,62c538b64547859c154cde66,2022-07-06_10h11.36.107,Colour_Asymmetry_Pilot,2022.1.3,Win32,59.99160118,62c50e9c1127f2cd403a315f,0,39,39,139,1,twofour,,,,,,,,,,,,,,,,,,,,,,,,,,,,,,,,,,,,,,,,,,,,,,,,,,,,,,,,,,,,,,,,,,,,,,,,,,,,,,,,,,,,,,,,,,,,,,,,,,,,,,,,,,,,,,,,,,,,,,,,,,,,,,,,,,,,,,,,,,,,,,,,,,,,,,,,,,,,,
,,,,,,5f78f9ddcb63b34f243d2239,62c538b64547859c154cde66,2022-07-06_10h11.36.107,Colour_Asymmetry_Pilot,2022.1.3,Win32,59.99160118,62c50e9c1127f2cd403a315f,0,40,40,29,1,threefour,,,,,,,,,,,,,,,,,,,,,,,,,,,,,,,,,,,,,,,,,,,,,,,,,,,,,,,,,,,,,,,,,,,,,,,,,,,,,,,,,,,,,,,,,,,,,,,,,,,,,,,,,,,,,,,,,,,,,,,,,,,,,,,,,,,,,,,,,,,,,,,,,,,,,,,,,,,,,
,,,,,,5f78f9ddcb63b34f243d2239,62c538b64547859c154cde66,2022-07-06_10h11.36.107,Colour_Asymmetry_Pilot,2022.1.3,Win32,59.99160118,62c50e9c1127f2cd403a315f,0,41,41,26,1,twoone,,,,,,,,,,,,,,,,,,,,,,,,,,,,,,,,,,,,,,,,,,,,,,,,,,,,,,,,,,,,,,,,,,,,,,,,,,,,,,,,,,,,,,,,,,,,,,,,,,,,,,,,,,,,,,,,,,,,,,,,,,,,,,,,,,,,,,,,,,,,,,,,,,,,,,,,,,,,,
,,,,,,5f78f9ddcb63b34f243d2239,62c538b64547859c154cde66,2022-07-06_10h11.36.107,Colour_Asymmetry_Pilot,2022.1.3,Win32,59.99160118,62c50e9c1127f2cd403a315f,0,42,42,140,1,threeone,,,,,,,,,,,,,,,,,,,,,,,,,,,,,,,,,,,,,,,,,,,,,,,,,,,,,,,,,,,,,,,,,,,,,,,,,,,,,,,,,,,,,,,,,,,,,,,,,,,,,,,,,,,,,,,,,,,,,,,,,,,,,,,,,,,,,,,,,,,,,,,,,,,,,,,,,,,,,
,,,,,,5f78f9ddcb63b34f243d2239,62c538b64547859c154cde66,2022-07-06_10h11.36.107,Colour_Asymmetry_Pilot,2022.1.3,Win32,59.99160118,62c50e9c1127f2cd403a315f,0,43,43,102,1,fourtwo,,,,,,,,,,,,,,,,,,,,,,,,,,,,,,,,,,,,,,,,,,,,,,,,,,,,,,,,,,,,,,,,,,,,,,,,,,,,,,,,,,,,,,,,,,,,,,,,,,,,,,,,,,,,,,,,,,,,,,,,,,,,,,,,,,,,,,,,,,,,,,,,,,,,,,,,,,,,,
,,,,,,5f78f9ddcb63b34f243d2239,62c538b64547859c154cde66,2022-07-06_10h11.36.107,Colour_Asymmetry_Pilot,2022.1.3,Win32,59.99160118,62c50e9c1127f2cd403a315f,0,44,44,54,1,fourtwo,,,,,,,,,,,,,,,,,,,,,,,,,,,,,,,,,,,,,,,,,,,,,,,,,,,,,,,,,,,,,,,,,,,,,,,,,,,,,,,,,,,,,,,,,,,,,,,,,,,,,,,,,,,,,,,,,,,,,,,,,,,,,,,,,,,,,,,,,,,,,,,,,,,,,,,,,,,,,
,,,,,,5f78f9ddcb63b34f243d2239,62c538b64547859c154cde66,2022-07-06_10h11.36.107,Colour_Asymmetry_Pilot,2022.1.3,Win32,59.99160118,62c50e9c1127f2cd403a315f,0,45,45,83,1,twofour,,,,,,,,,,,,,,,,,,,,,,,,,,,,,,,,,,,,,,,,,,,,,,,,,,,,,,,,,,,,,,,,,,,,,,,,,,,,,,,,,,,,,,,,,,,,,,,,,,,,,,,,,,,,,,,,,,,,,,,,,,,,,,,,,,,,,,,,,,,,,,,,,,,,,,,,,,,,,
,,,,,,5f78f9ddcb63b34f243d2239,62c538b64547859c154cde66,2022-07-06_10h11.36.107,Colour_Asymmetry_Pilot,2022.1.3,Win32,59.99160118,62c50e9c1127f2cd403a315f,0,46,46,7,1,fourthree,,,,,,,,,,,,,,,,,,,,,,,,,,,,,,,,,,,,,,,,,,,,,,,,,,,,,,,,,,,,,,,,,,,,,,,,,,,,,,,,,,,,,,,,,,,,,,,,,,,,,,,,,,,,,,,,,,,,,,,,,,,,,,,,,,,,,,,,,,,,,,,,,,,,,,,,,,,,,
,,,,,,5f78f9ddcb63b34f243d2239,62c538b64547859c154cde66,2022-07-06_10h11.36.107,Colour_Asymmetry_Pilot,2022.1.3,Win32,59.99160118,62c50e9c1127f2cd403a315f,0,47,47,49,1,onethree,,,,,,,,,,,,,,,,,,,,,,,,,,,,,,,,,,,,,,,,,,,,,,,,,,,,,,,,,,,,,,,,,,,,,,,,,,,,,,,,,,,,,,,,,,,,,,,,,,,,,,,,,,,,,,,,,,,,,,,,,,,,,,,,,,,,,,,,,,,,,,,,,,,,,,,,,,,,,
,,,,,,5f78f9ddcb63b34f243d2239,62c538b64547859c154cde66,2022-07-06_10h11.36.107,Colour_Asymmetry_Pilot,2022.1.3,Win32,59.99160118,62c50e9c1127f2cd403a315f,0,48,48,19,1,twofour,,,,,,,,,,,,,,,,,,,,,,,,,,,,,,,,,,,,,,,,,,,,,,,,,,,,,,,,,,,,,,,,,,,,,,,,,,,,,,,,,,,,,,,,,,,,,,,,,,,,,,,,,,,,,,,,,,,,,,,,,,,,,,,,,,,,,,,,,,,,,,,,,,,,,,,,,,,,,
,,,,,,5f78f9ddcb63b34f243d2239,62c538b64547859c154cde66,2022-07-06_10h11.36.107,Colour_Asymmetry_Pilot,2022.1.3,Win32,59.99160118,62c50e9c1127f2cd403a315f,0,49,49,157,1,threefour,,,,,,,,,,,,,,,,,,,,,,,,,,,,,,,,,,,,,,,,,,,,,,,,,,,,,,,,,,,,,,,,,,,,,,,,,,,,,,,,,,,,,,,,,,,,,,,,,,,,,,,,,,,,,,,,,,,,,,,,,,,,,,,,,,,,,,,,,,,,,,,,,,,,,,,,,,,,,
,,,,,,5f78f9ddcb63b34f243d2239,62c538b64547859c154cde66,2022-07-06_10h11.36.107,Colour_Asymmetry_Pilot,2022.1.3,Win32,59.99160118,62c50e9c1127f2cd403a315f,0,50,50,123,1,twofour,,,,,,,,,,,,,,,,,,,,,,,,,,,,,,,,,,,,,,,,,,,,,,,,,,,,,,,,,,,,,,,,,,,,,,,,,,,,,,,,,,,,,,,,,,,,,,,,,,,,,,,,,,,,,,,,,,,,,,,,,,,,,,,,,,,,,,,,,,,,,,,,,,,,,,,,,,,,,
,,,,,,5f78f9ddcb63b34f243d2239,62c538b64547859c154cde66,2022-07-06_10h11.36.107,Colour_Asymmetry_Pilot,2022.1.3,Win32,59.99160118,62c50e9c1127f2cd403a315f,0,51,51,39,1,fourthree,,,,,,,,,,,,,,,,,,,,,,,,,,,,,,,,,,,,,,,,,,,,,,,,,,,,,,,,,,,,,,,,,,,,,,,,,,,,,,,,,,,,,,,,,,,,,,,,,,,,,,,,,,,,,,,,,,,,,,,,,,,,,,,,,,,,,,,,,,,,,,,,,,,,,,,,,,,,,
,,,,,,5f78f9ddcb63b34f243d2239,62c538b64547859c154cde66,2022-07-06_10h11.36.107,Colour_Asymmetry_Pilot,2022.1.3,Win32,59.99160118,62c50e9c1127f2cd403a315f,0,52,52,79,1,fourthree,,,,,,,,,,,,,,,,,,,,,,,,,,,,,,,,,,,,,,,,,,,,,,,,,,,,,,,,,,,,,,,,,,,,,,,,,,,,,,,,,,,,,,,,,,,,,,,,,,,,,,,,,,,,,,,,,,,,,,,,,,,,,,,,,,,,,,,,,,,,,,,,,,,,,,,,,,,,,
,,,,,,5f78f9ddcb63b34f243d2239,62c538b64547859c154cde66,2022-07-06_10h11.36.107,Colour_Asymmetry_Pilot,2022.1.3,Win32,59.99160118,62c50e9c1127f2cd403a315f,0,53,53,130,1,twoone,,,,,,,,,,,,,,,,,,,,,,,,,,,,,,,,,,,,,,,,,,,,,,,,,,,,,,,,,,,,,,,,,,,,,,,,,,,,,,,,,,,,,,,,,,,,,,,,,,,,,,,,,,,,,,,,,,,,,,,,,,,,,,,,,,,,,,,,,,,,,,,,,,,,,,,,,,,,,
,,,,,,5f78f9ddcb63b34f243d2239,62c538b64547859c154cde66,2022-07-06_10h11.36.107,Colour_Asymmetry_Pilot,2022.1.3,Win32,59.99160118,62c50e9c1127f2cd403a315f,0,54,54,9,1,onethree,,,,,,,,,,,,,,,,,,,,,,,,,,,,,,,,,,,,,,,,,,,,,,,,,,,,,,,,,,,,,,,,,,,,,,,,,,,,,,,,,,,,,,,,,,,,,,,,,,,,,,,,,,,,,,,,,,,,,,,,,,,,,,,,,,,,,,,,,,,,,,,,,,,,,,,,,,,,,
,,,,,,5f78f9ddcb63b34f243d2239,62c538b64547859c154cde66,2022-07-06_10h11.36.107,Colour_Asymmetry_Pilot,2022.1.3,Win32,59.99160118,62c50e9c1127f2cd403a315f,0,55,55,32,1,onetwo,,,,,,,,,,,,,,,,,,,,,,,,,,,,,,,,,,,,,,,,,,,,,,,,,,,,,,,,,,,,,,,,,,,,,,,,,,,,,,,,,,,,,,,,,,,,,,,,,,,,,,,,,,,,,,,,,,,,,,,,,,,,,,,,,,,,,,,,,,,,,,,,,,,,,,,,,,,,,
,,,,,,5f78f9ddcb63b34f243d2239,62c538b64547859c154cde66,2022-07-06_10h11.36.107,Colour_Asymmetry_Pilot,2022.1.3,Win32,59.99160118,62c50e9c1127f2cd403a315f,0,56,56,146,1,twoone,,,,,,,,,,,,,,,,,,,,,,,,,,,,,,,,,,,,,,,,,,,,,,,,,,,,,,,,,,,,,,,,,,,,,,,,,,,,,,,,,,,,,,,,,,,,,,,,,,,,,,,,,,,,,,,,,,,,,,,,,,,,,,,,,,,,,,,,,,,,,,,,,,,,,,,,,,,,,
,,,,,,5f78f9ddcb63b34f243d2239,62c538b64547859c154cde66,2022-07-06_10h11.36.107,Colour_Asymmetry_Pilot,2022.1.3,Win32,59.99160118,62c50e9c1127f2cd403a315f,0,57,57,109,1,threefour,,,,,,,,,,,,,,,,,,,,,,,,,,,,,,,,,,,,,,,,,,,,,,,,,,,,,,,,,,,,,,,,,,,,,,,,,,,,,,,,,,,,,,,,,,,,,,,,,,,,,,,,,,,,,,,,,,,,,,,,,,,,,,,,,,,,,,,,,,,,,,,,,,,,,,,,,,,,,
,,,,,,5f78f9ddcb63b34f243d2239,62c538b64547859c154cde66,2022-07-06_10h11.36.107,Colour_Asymmetry_Pilot,2022.1.3,Win32,59.99160118,62c50e9c1127f2cd403a315f,0,58,58,27,1,twofour,,,,,,,,,,,,,,,,,,,,,,,,,,,,,,,,,,,,,,,,,,,,,,,,,,,,,,,,,,,,,,,,,,,,,,,,,,,,,,,,,,,,,,,,,,,,,,,,,,,,,,,,,,,,,,,,,,,,,,,,,,,,,,,,,,,,,,,,,,,,,,,,,,,,,,,,,,,,,
,,,,,,5f78f9ddcb63b34f243d2239,62c538b64547859c154cde66,2022-07-06_10h11.36.107,Colour_Asymmetry_Pilot,2022.1.3,Win32,59.99160118,62c50e9c1127f2cd403a315f,0,59,59,62,1,fourtwo,,,,,,,,,,,,,,,,,,,,,,,,,,,,,,,,,,,,,,,,,,,,,,,,,,,,,,,,,,,,,,,,,,,,,,,,,,,,,,,,,,,,,,,,,,,,,,,,,,,,,,,,,,,,,,,,,,,,,,,,,,,,,,,,,,,,,,,,,,,,,,,,,,,,,,,,,,,,,
,,,,,,5f78f9ddcb63b34f243d2239,62c538b64547859c154cde66,2022-07-06_10h11.36.107,Colour_Asymmetry_Pilot,2022.1.3,Win32,59.99160118,62c50e9c1127f2cd403a315f,0,60,60,94,1,fourtwo,,,,,,,,,,,,,,,,,,,,,,,,,,,,,,,,,,,,,,,,,,,,,,,,,,,,,,,,,,,,,,,,,,,,,,,,,,,,,,,,,,,,,,,,,,,,,,,,,,,,,,,,,,,,,,,,,,,,,,,,,,,,,,,,,,,,,,,,,,,,,,,,,,,,,,,,,,,,,
,,,,,,5f78f9ddcb63b34f243d2239,62c538b64547859c154cde66,2022-07-06_10h11.36.107,Colour_Asymmetry_Pilot,2022.1.3,Win32,59.99160118,62c50e9c1127f2cd403a315f,0,61,61,35,1,twofour,,,,,,,,,,,,,,,,,,,,,,,,,,,,,,,,,,,,,,,,,,,,,,,,,,,,,,,,,,,,,,,,,,,,,,,,,,,,,,,,,,,,,,,,,,,,,,,,,,,,,,,,,,,,,,,,,,,,,,,,,,,,,,,,,,,,,,,,,,,,,,,,,,,,,,,,,,,,,
,,,,,,5f78f9ddcb63b34f243d2239,62c538b64547859c154cde66,2022-07-06_10h11.36.107,Colour_Asymmetry_Pilot,2022.1.3,Win32,59.99160118,62c50e9c1127f2cd403a315f,0,62,62,99,1,twofour,,,,,,,,,,,,,,,,,,,,,,,,,,,,,,,,,,,,,,,,,,,,,,,,,,,,,,,,,,,,,,,,,,,,,,,,,,,,,,,,,,,,,,,,,,,,,,,,,,,,,,,,,,,,,,,,,,,,,,,,,,,,,,,,,,,,,,,,,,,,,,,,,,,,,,,,,,,,,
,,,,,,5f78f9ddcb63b34f243d2239,62c538b64547859c154cde66,2022-07-06_10h11.36.107,Colour_Asymmetry_Pilot,2022.1.3,Win32,59.99160118,62c50e9c1127f2cd403a315f,0,63,63,60,1,threeone,,,,,,,,,,,,,,,,,,,,,,,,,,,,,,,,,,,,,,,,,,,,,,,,,,,,,,,,,,,,,,,,,,,,,,,,,,,,,,,,,,,,,,,,,,,,,,,,,,,,,,,,,,,,,,,,,,,,,,,,,,,,,,,,,,,,,,,,,,,,,,,,,,,,,,,,,,,,,
,,,,,,5f78f9ddcb63b34f243d2239,62c538b64547859c154cde66,2022-07-06_10h11.36.107,Colour_Asymmetry_Pilot,2022.1.3,Win32,59.99160118,62c50e9c1127f2cd403a315f,0,64,64,90,1,twoone,,,,,,,,,,,,,,,,,,,,,,,,,,,,,,,,,,,,,,,,,,,,,,,,,,,,,,,,,,,,,,,,,,,,,,,,,,,,,,,,,,,,,,,,,,,,,,,,,,,,,,,,,,,,,,,,,,,,,,,,,,,,,,,,,,,,,,,,,,,,,,,,,,,,,,,,,,,,,
,,,,,,5f78f9ddcb63b34f243d2239,62c538b64547859c154cde66,2022-07-06_10h11.36.107,Colour_Asymmetry_Pilot,2022.1.3,Win32,59.99160118,62c50e9c1127f2cd403a315f,0,65,65,5,1,threefour,,,,,,,,,,,,,,,,,,,,,,,,,,,,,,,,,,,,,,,,,,,,,,,,,,,,,,,,,,,,,,,,,,,,,,,,,,,,,,,,,,,,,,,,,,,,,,,,,,,,,,,,,,,,,,,,,,,,,,,,,,,,,,,,,,,,,,,,,,,,,,,,,,,,,,,,,,,,,
,,,,,,5f78f9ddcb63b34f243d2239,62c538b64547859c154cde66,2022-07-06_10h11.36.107,Colour_Asymmetry_Pilot,2022.1.3,Win32,59.99160118,62c50e9c1127f2cd403a315f,0,66,66,113,1,onethree,,,,,,,,,,,,,,,,,,,,,,,,,,,,,,,,,,,,,,,,,,,,,,,,,,,,,,,,,,,,,,,,,,,,,,,,,,,,,,,,,,,,,,,,,,,,,,,,,,,,,,,,,,,,,,,,,,,,,,,,,,,,,,,,,,,,,,,,,,,,,,,,,,,,,,,,,,,,,
,,,,,,5f78f9ddcb63b34f243d2239,62c538b64547859c154cde66,2022-07-06_10h11.36.107,Colour_Asymmetry_Pilot,2022.1.3,Win32,59.99160118,62c50e9c1127f2cd403a315f,0,67,67,108,1,threeone,,,,,,,,,,,,,,,,,,,,,,,,,,,,,,,,,,,,,,,,,,,,,,,,,,,,,,,,,,,,,,,,,,,,,,,,,,,,,,,,,,,,,,,,,,,,,,,,,,,,,,,,,,,,,,,,,,,,,,,,,,,,,,,,,,,,,,,,,,,,,,,,,,,,,,,,,,,,,
,,,,,,5f78f9ddcb63b34f243d2239,62c538b64547859c154cde66,2022-07-06_10h11.36.107,Colour_Asymmetry_Pilot,2022.1.3,Win32,59.99160118,62c50e9c1127f2cd403a315f,0,68,68,55,1,fourthree,,,,,,,,,,,,,,,,,,,,,,,,,,,,,,,,,,,,,,,,,,,,,,,,,,,,,,,,,,,,,,,,,,,,,,,,,,,,,,,,,,,,,,,,,,,,,,,,,,,,,,,,,,,,,,,,,,,,,,,,,,,,,,,,,,,,,,,,,,,,,,,,,,,,,,,,,,,,,
,,,,,,5f78f9ddcb63b34f243d2239,62c538b64547859c154cde66,2022-07-06_10h11.36.107,Colour_Asymmetry_Pilot,2022.1.3,Win32,59.99160118,62c50e9c1127f2cd403a315f,0,69,69,137,1,onethree,,,,,,,,,,,,,,,,,,,,,,,,,,,,,,,,,,,,,,,,,,,,,,,,,,,,,,,,,,,,,,,,,,,,,,,,,,,,,,,,,,,,,,,,,,,,,,,,,,,,,,,,,,,,,,,,,,,,,,,,,,,,,,,,,,,,,,,,,,,,,,,,,,,,,,,,,,,,,
,,,,,,5f78f9ddcb63b34f243d2239,62c538b64547859c154cde66,2022-07-06_10h11.36.107,Colour_Asymmetry_Pilot,2022.1.3,Win32,59.99160118,62c50e9c1127f2cd403a315f,0,70,70,63,1,fourthree,,,,,,,,,,,,,,,,,,,,,,,,,,,,,,,,,,,,,,,,,,,,,,,,,,,,,,,,,,,,,,,,,,,,,,,,,,,,,,,,,,,,,,,,,,,,,,,,,,,,,,,,,,,,,,,,,,,,,,,,,,,,,,,,,,,,,,,,,,,,,,,,,,,,,,,,,,,,,
,,,,,,5f78f9ddcb63b34f243d2239,62c538b64547859c154cde66,2022-07-06_10h11.36.107,Colour_Asymmetry_Pilot,2022.1.3,Win32,59.99160118,62c50e9c1127f2cd403a315f,0,71,71,101,1,threefour,,,,,,,,,,,,,,,,,,,,,,,,,,,,,,,,,,,,,,,,,,,,,,,,,,,,,,,,,,,,,,,,,,,,,,,,,,,,,,,,,,,,,,,,,,,,,,,,,,,,,,,,,,,,,,,,,,,,,,,,,,,,,,,,,,,,,,,,,,,,,,,,,,,,,,,,,,,,,
,,,,,,5f78f9ddcb63b34f243d2239,62c538b64547859c154cde66,2022-07-06_10h11.36.107,Colour_Asymmetry_Pilot,2022.1.3,Win32,59.99160118,62c50e9c1127f2cd403a315f,0,72,72,158,1,fourtwo,,,,,,,,,,,,,,,,,,,,,,,,,,,,,,,,,,,,,,,,,,,,,,,,,,,,,,,,,,,,,,,,,,,,,,,,,,,,,,,,,,,,,,,,,,,,,,,,,,,,,,,,,,,,,,,,,,,,,,,,,,,,,,,,,,,,,,,,,,,,,,,,,,,,,,,,,,,,,
,,,,,,5f78f9ddcb63b34f243d2239,62c538b64547859c154cde66,2022-07-06_10h11.36.107,Colour_Asymmetry_Pilot,2022.1.3,Win32,59.99160118,62c50e9c1127f2cd403a315f,0,73,73,147,1,twofour,,,,,,,,,,,,,,,,,,,,,,,,,,,,,,,,,,,,,,,,,,,,,,,,,,,,,,,,,,,,,,,,,,,,,,,,,,,,,,,,,,,,,,,,,,,,,,,,,,,,,,,,,,,,,,,,,,,,,,,,,,,,,,,,,,,,,,,,,,,,,,,,,,,,,,,,,,,,,
,,,,,,5f78f9ddcb63b34f243d2239,62c538b64547859c154cde66,2022-07-06_10h11.36.107,Colour_Asymmetry_Pilot,2022.1.3,Win32,59.99160118,62c50e9c1127f2cd403a315f,0,74,74,126,1,fourtwo,,,,,,,,,,,,,,,,,,,,,,,,,,,,,,,,,,,,,,,,,,,,,,,,,,,,,,,,,,,,,,,,,,,,,,,,,,,,,,,,,,,,,,,,,,,,,,,,,,,,,,,,,,,,,,,,,,,,,,,,,,,,,,,,,,,,,,,,,,,,,,,,,,,,,,,,,,,,,
,,,,,,5f78f9ddcb63b34f243d2239,62c538b64547859c154cde66,2022-07-06_10h11.36.107,Colour_Asymmetry_Pilot,2022.1.3,Win32,59.99160118,62c50e9c1127f2cd403a315f,0,75,75,72,1,onetwo,,,,,,,,,,,,,,,,,,,,,,,,,,,,,,,,,,,,,,,,,,,,,,,,,,,,,,,,,,,,,,,,,,,,,,,,,,,,,,,,,,,,,,,,,,,,,,,,,,,,,,,,,,,,,,,,,,,,,,,,,,,,,,,,,,,,,,,,,,,,,,,,,,,,,,,,,,,,,
,,,,,,5f78f9ddcb63b34f243d2239,62c538b64547859c154cde66,2022-07-06_10h11.36.107,Colour_Asymmetry_Pilot,2022.1.3,Win32,59.99160118,62c50e9c1127f2cd403a315f,0,76,76,67,1,twofour,,,,,,,,,,,,,,,,,,,,,,,,,,,,,,,,,,,,,,,,,,,,,,,,,,,,,,,,,,,,,,,,,,,,,,,,,,,,,,,,,,,,,,,,,,,,,,,,,,,,,,,,,,,,,,,,,,,,,,,,,,,,,,,,,,,,,,,,,,,,,,,,,,,,,,,,,,,,,
,,,,,,5f78f9ddcb63b34f243d2239,62c538b64547859c154cde66,2022-07-06_10h11.36.107,Colour_Asymmetry_Pilot,2022.1.3,Win32,59.99160118,62c50e9c1127f2cd403a315f,0,77,77,75,1,twofour,,,,,,,,,,,,,,,,,,,,,,,,,,,,,,,,,,,,,,,,,,,,,,,,,,,,,,,,,,,,,,,,,,,,,,,,,,,,,,,,,,,,,,,,,,,,,,,,,,,,,,,,,,,,,,,,,,,,,,,,,,,,,,,,,,,,,,,,,,,,,,,,,,,,,,,,,,,,,
,,,,,,5f78f9ddcb63b34f243d2239,62c538b64547859c154cde66,2022-07-06_10h11.36.107,Colour_Asymmetry_Pilot,2022.1.3,Win32,59.99160118,62c50e9c1127f2cd403a315f,0,78,78,150,1,fourtwo,,,,,,,,,,,,,,,,,,,,,,,,,,,,,,,,,,,,,,,,,,,,,,,,,,,,,,,,,,,,,,,,,,,,,,,,,,,,,,,,,,,,,,,,,,,,,,,,,,,,,,,,,,,,,,,,,,,,,,,,,,,,,,,,,,,,,,,,,,,,,,,,,,,,,,,,,,,,,
,,,,,,5f78f9ddcb63b34f243d2239,62c538b64547859c154cde66,2022-07-06_10h11.36.107,Colour_Asymmetry_Pilot,2022.1.3,Win32,59.99160118,62c50e9c1127f2cd403a315f,0,79,79,93,1,threefour,,,,,,,,,,,,,,,,,,,,,,,,,,,,,,,,,,,,,,,,,,,,,,,,,,,,,,,,,,,,,,,,,,,,,,,,,,,,,,,,,,,,,,,,,,,,,,,,,,,,,,,,,,,,,,,,,,,,,,,,,,,,,,,,,,,,,,,,,,,,,,,,,,,,,,,,,,,,,
,,,,,,5f78f9ddcb63b34f243d2239,62c538b64547859c154cde66,2022-07-06_10h11.36.107,Colour_Asymmetry_Pilot,2022.1.3,Win32,59.99160118,62c50e9c1127f2cd403a315f,0,80,80,131,1,twofour,,,,,,,,,,,,,,,,,,,,,,,,,,,,,,,,,,,,,,,,,,,,,,,,,,,,,,,,,,,,,,,,,,,,,,,,,,,,,,,,,,,,,,,,,,,,,,,,,,,,,,,,,,,,,,,,,,,,,,,,,,,,,,,,,,,,,,,,,,,,,,,,,,,,,,,,,,,,,
,,,,,,5f78f9ddcb63b34f243d2239,62c538b64547859c154cde66,2022-07-06_10h11.36.107,Colour_Asymmetry_Pilot,2022.1.3,Win32,59.99160118,62c50e9c1127f2cd403a315f,0,81,81,15,1,fourthree,,,,,,,,,,,,,,,,,,,,,,,,,,,,,,,,,,,,,,,,,,,,,,,,,,,,,,,,,,,,,,,,,,,,,,,,,,,,,,,,,,,,,,,,,,,,,,,,,,,,,,,,,,,,,,,,,,,,,,,,,,,,,,,,,,,,,,,,,,,,,,,,,,,,,,,,,,,,,
,,,,,,5f78f9ddcb63b34f243d2239,62c538b64547859c154cde66,2022-07-06_10h11.36.107,Colour_Asymmetry_Pilot,2022.1.3,Win32,59.99160118,62c50e9c1127f2cd403a315f,0,82,82,115,1,twofour,,,,,,,,,,,,,,,,,,,,,,,,,,,,,,,,,,,,,,,,,,,,,,,,,,,,,,,,,,,,,,,,,,,,,,,,,,,,,,,,,,,,,,,,,,,,,,,,,,,,,,,,,,,,,,,,,,,,,,,,,,,,,,,,,,,,,,,,,,,,,,,,,,,,,,,,,,,,,
,,,,,,5f78f9ddcb63b34f243d2239,62c538b64547859c154cde66,2022-07-06_10h11.36.107,Colour_Asymmetry_Pilot,2022.1.3,Win32,59.99160118,62c50e9c1127f2cd403a315f,0,83,83,21,1,threefour,,,,,,,,,,,,,,,,,,,,,,,,,,,,,,,,,,,,,,,,,,,,,,,,,,,,,,,,,,,,,,,,,,,,,,,,,,,,,,,,,,,,,,,,,,,,,,,,,,,,,,,,,,,,,,,,,,,,,,,,,,,,,,,,,,,,,,,,,,,,,,,,,,,,,,,,,,,,,
,,,,,,5f78f9ddcb63b34f243d2239,62c538b64547859c154cde66,2022-07-06_10h11.36.107,Colour_Asymmetry_Pilot,2022.1.3,Win32,59.99160118,62c50e9c1127f2cd403a315f,0,84,84,104,1,onetwo,,,,,,,,,,,,,,,,,,,,,,,,,,,,,,,,,,,,,,,,,,,,,,,,,,,,,,,,,,,,,,,,,,,,,,,,,,,,,,,,,,,,,,,,,,,,,,,,,,,,,,,,,,,,,,,,,,,,,,,,,,,,,,,,,,,,,,,,,,,,,,,,,,,,,,,,,,,,,
,,,,,,5f78f9ddcb63b34f243d2239,62c538b64547859c154cde66,2022-07-06_10h11.36.107,Colour_Asymmetry_Pilot,2022.1.3,Win32,59.99160118,62c50e9c1127f2cd403a315f,0,85,85,161,1,onethree,,,,,,,,,,,,,,,,,,,,,,,,,,,,,,,,,,,,,,,,,,,,,,,,,,,,,,,,,,,,,,,,,,,,,,,,,,,,,,,,,,,,,,,,,,,,,,,,,,,,,,,,,,,,,,,,,,,,,,,,,,,,,,,,,,,,,,,,,,,,,,,,,,,,,,,,,,,,,
,,,,,,5f78f9ddcb63b34f243d2239,62c538b64547859c154cde66,2022-07-06_10h11.36.107,Colour_Asymmetry_Pilot,2022.1.3,Win32,59.99160118,62c50e9c1127f2cd403a315f,0,86,86,100,1,threeone,,,,,,,,,,,,,,,,,,,,,,,,,,,,,,,,,,,,,,,,,,,,,,,,,,,,,,,,,,,,,,,,,,,,,,,,,,,,,,,,,,,,,,,,,,,,,,,,,,,,,,,,,,,,,,,,,,,,,,,,,,,,,,,,,,,,,,,,,,,,,,,,,,,,,,,,,,,,,
,,,,,,5f78f9ddcb63b34f243d2239,62c538b64547859c154cde66,2022-07-06_10h11.36.107,Colour_Asymmetry_Pilot,2022.1.3,Win32,59.99160118,62c50e9c1127f2cd403a315f,0,87,87,14,1,fourtwo,,,,,,,,,,,,,,,,,,,,,,,,,,,,,,,,,,,,,,,,,,,,,,,,,,,,,,,,,,,,,,,,,,,,,,,,,,,,,,,,,,,,,,,,,,,,,,,,,,,,,,,,,,,,,,,,,,,,,,,,,,,,,,,,,,,,,,,,,,,,,,,,,,,,,,,,,,,,,
,,,,,,5f78f9ddcb63b34f243d2239,62c538b64547859c154cde66,2022-07-06_10h11.36.107,Colour_Asymmetry_Pilot,2022.1.3,Win32,59.99160118,62c50e9c1127f2cd403a315f,0,88,88,96,1,onetwo,,,,,,,,,,,,,,,,,,,,,,,,,,,,,,,,,,,,,,,,,,,,,,,,,,,,,,,,,,,,,,,,,,,,,,,,,,,,,,,,,,,,,,,,,,,,,,,,,,,,,,,,,,,,,,,,,,,,,,,,,,,,,,,,,,,,,,,,,,,,,,,,,,,,,,,,,,,,,
,,,,,,5f78f9ddcb63b34f243d2239,62c538b64547859c154cde66,2022-07-06_10h11.36.107,Colour_Asymmetry_Pilot,2022.1.3,Win32,59.99160118,62c50e9c1127f2cd403a315f,0,89,89,58,1,twoone,,,,,,,,,,,,,,,,,,,,,,,,,,,,,,,,,,,,,,,,,,,,,,,,,,,,,,,,,,,,,,,,,,,,,,,,,,,,,,,,,,,,,,,,,,,,,,,,,,,,,,,,,,,,,,,,,,,,,,,,,,,,,,,,,,,,,,,,,,,,,,,,,,,,,,,,,,,,,
,,,,,,5f78f9ddcb63b34f243d2239,62c538b64547859c154cde66,2022-07-06_10h11.36.107,Colour_Asymmetry_Pilot,2022.1.3,Win32,59.99160118,62c50e9c1127f2cd403a315f,0,90,90,95,1,fourthree,,,,,,,,,,,,,,,,,,,,,,,,,,,,,,,,,,,,,,,,,,,,,,,,,,,,,,,,,,,,,,,,,,,,,,,,,,,,,,,,,,,,,,,,,,,,,,,,,,,,,,,,,,,,,,,,,,,,,,,,,,,,,,,,,,,,,,,,,,,,,,,,,,,,,,,,,,,,,
,,,,,,5f78f9ddcb63b34f243d2239,62c538b64547859c154cde66,2022-07-06_10h11.36.107,Colour_Asymmetry_Pilot,2022.1.3,Win32,59.99160118,62c50e9c1127f2cd403a315f,0,91,91,44,1,threeone,,,,,,,,,,,,,,,,,,,,,,,,,,,,,,,,,,,,,,,,,,,,,,,,,,,,,,,,,,,,,,,,,,,,,,,,,,,,,,,,,,,,,,,,,,,,,,,,,,,,,,,,,,,,,,,,,,,,,,,,,,,,,,,,,,,,,,,,,,,,,,,,,,,,,,,,,,,,,
,,,,,,5f78f9ddcb63b34f243d2239,62c538b64547859c154cde66,2022-07-06_10h11.36.107,Colour_Asymmetry_Pilot,2022.1.3,Win32,59.99160118,62c50e9c1127f2cd403a315f,0,92,92,159,1,fourthree,,,,,,,,,,,,,,,,,,,,,,,,,,,,,,,,,,,,,,,,,,,,,,,,,,,,,,,,,,,,,,,,,,,,,,,,,,,,,,,,,,,,,,,,,,,,,,,,,,,,,,,,,,,,,,,,,,,,,,,,,,,,,,,,,,,,,,,,,,,,,,,,,,,,,,,,,,,,,
,,,,,,5f78f9ddcb63b34f243d2239,62c538b64547859c154cde66,2022-07-06_10h11.36.107,Colour_Asymmetry_Pilot,2022.1.3,Win32,59.99160118,62c50e9c1127f2cd403a315f,0,93,93,106,1,twoone,,,,,,,,,,,,,,,,,,,,,,,,,,,,,,,,,,,,,,,,,,,,,,,,,,,,,,,,,,,,,,,,,,,,,,,,,,,,,,,,,,,,,,,,,,,,,,,,,,,,,,,,,,,,,,,,,,,,,,,,,,,,,,,,,,,,,,,,,,,,,,,,,,,,,,,,,,,,,
,,,,,,5f78f9ddcb63b34f243d2239,62c538b64547859c154cde66,2022-07-06_10h11.36.107,Colour_Asymmetry_Pilot,2022.1.3,Win32,59.99160118,62c50e9c1127f2cd403a315f,0,94,94,22,1,fourtwo,,,,,,,,,,,,,,,,,,,,,,,,,,,,,,,,,,,,,,,,,,,,,,,,,,,,,,,,,,,,,,,,,,,,,,,,,,,,,,,,,,,,,,,,,,,,,,,,,,,,,,,,,,,,,,,,,,,,,,,,,,,,,,,,,,,,,,,,,,,,,,,,,,,,,,,,,,,,,
,,,,,,5f78f9ddcb63b34f243d2239,62c538b64547859c154cde66,2022-07-06_10h11.36.107,Colour_Asymmetry_Pilot,2022.1.3,Win32,59.99160118,62c50e9c1127f2cd403a315f,0,95,95,34,1,twoone,,,,,,,,,,,,,,,,,,,,,,,,,,,,,,,,,,,,,,,,,,,,,,,,,,,,,,,,,,,,,,,,,,,,,,,,,,,,,,,,,,,,,,,,,,,,,,,,,,,,,,,,,,,,,,,,,,,,,,,,,,,,,,,,,,,,,,,,,,,,,,,,,,,,,,,,,,,,,
,,,,,,5f78f9ddcb63b34f243d2239,62c538b64547859c154cde66,2022-07-06_10h11.36.107,Colour_Asymmetry_Pilot,2022.1.3,Win32,59.99160118,62c50e9c1127f2cd403a315f,0,96,96,68,1,threeone,,,,,,,,,,,,,,,,,,,,,,,,,,,,,,,,,,,,,,,,,,,,,,,,,,,,,,,,,,,,,,,,,,,,,,,,,,,,,,,,,,,,,,,,,,,,,,,,,,,,,,,,,,,,,,,,,,,,,,,,,,,,,,,,,,,,,,,,,,,,,,,,,,,,,,,,,,,,,
,,,,,,5f78f9ddcb63b34f243d2239,62c538b64547859c154cde66,2022-07-06_10h11.36.107,Colour_Asymmetry_Pilot,2022.1.3,Win32,59.99160118,62c50e9c1127f2cd403a315f,0,97,97,116,1,threeone,,,,,,,,,,,,,,,,,,,,,,,,,,,,,,,,,,,,,,,,,,,,,,,,,,,,,,,,,,,,,,,,,,,,,,,,,,,,,,,,,,,,,,,,,,,,,,,,,,,,,,,,,,,,,,,,,,,,,,,,,,,,,,,,,,,,,,,,,,,,,,,,,,,,,,,,,,,,,
,,,,,,5f78f9ddcb63b34f243d2239,62c538b64547859c154cde66,2022-07-06_10h11.36.107,Colour_Asymmetry_Pilot,2022.1.3,Win32,59.99160118,62c50e9c1127f2cd403a315f,0,98,98,25,1,onethree,,,,,,,,,,,,,,,,,,,,,,,,,,,,,,,,,,,,,,,,,,,,,,,,,,,,,,,,,,,,,,,,,,,,,,,,,,,,,,,,,,,,,,,,,,,,,,,,,,,,,,,,,,,,,,,,,,,,,,,,,,,,,,,,,,,,,,,,,,,,,,,,,,,,,,,,,,,,,
,,,,,,5f78f9ddcb63b34f243d2239,62c538b64547859c154cde66,2022-07-06_10h11.36.107,Colour_Asymmetry_Pilot,2022.1.3,Win32,59.99160118,62c50e9c1127f2cd403a315f,0,99,99,6,1,fourtwo,,,,,,,,,,,,,,,,,,,,,,,,,,,,,,,,,,,,,,,,,,,,,,,,,,,,,,,,,,,,,,,,,,,,,,,,,,,,,,,,,,,,,,,,,,,,,,,,,,,,,,,,,,,,,,,,,,,,,,,,,,,,,,,,,,,,,,,,,,,,,,,,,,,,,,,,,,,,,
,,,,,,5f78f9ddcb63b34f243d2239,62c538b64547859c154cde66,2022-07-06_10h11.36.107,Colour_Asymmetry_Pilot,2022.1.3,Win32,59.99160118,62c50e9c1127f2cd403a315f,0,100,100,152,1,onetwo,,,,,,,,,,,,,,,,,,,,,,,,,,,,,,,,,,,,,,,,,,,,,,,,,,,,,,,,,,,,,,,,,,,,,,,,,,,,,,,,,,,,,,,,,,,,,,,,,,,,,,,,,,,,,,,,,,,,,,,,,,,,,,,,,,,,,,,,,,,,,,,,,,,,,,,,,,,,,
,,,,,,5f78f9ddcb63b34f243d2239,62c538b64547859c154cde66,2022-07-06_10h11.36.107,Colour_Asymmetry_Pilot,2022.1.3,Win32,59.99160118,62c50e9c1127f2cd403a315f,0,101,101,124,1,threeone,,,,,,,,,,,,,,,,,,,,,,,,,,,,,,,,,,,,,,,,,,,,,,,,,,,,,,,,,,,,,,,,,,,,,,,,,,,,,,,,,,,,,,,,,,,,,,,,,,,,,,,,,,,,,,,,,,,,,,,,,,,,,,,,,,,,,,,,,,,,,,,,,,,,,,,,,,,,,
,,,,,,5f78f9ddcb63b34f243d2239,62c538b64547859c154cde66,2022-07-06_10h11.36.107,Colour_Asymmetry_Pilot,2022.1.3,Win32,59.99160118,62c50e9c1127f2cd403a315f,0,102,102,134,1,fourtwo,,,,,,,,,,,,,,,,,,,,,,,,,,,,,,,,,,,,,,,,,,,,,,,,,,,,,,,,,,,,,,,,,,,,,,,,,,,,,,,,,,,,,,,,,,,,,,,,,,,,,,,,,,,,,,,,,,,,,,,,,,,,,,,,,,,,,,,,,,,,,,,,,,,,,,,,,,,,,
,,,,,,5f78f9ddcb63b34f243d2239,62c538b64547859c154cde66,2022-07-06_10h11.36.107,Colour_Asymmetry_Pilot,2022.1.3,Win32,59.99160118,62c50e9c1127f2cd403a315f,0,103,103,56,1,onetwo,,,,,,,,,,,,,,,,,,,,,,,,,,,,,,,,,,,,,,,,,,,,,,,,,,,,,,,,,,,,,,,,,,,,,,,,,,,,,,,,,,,,,,,,,,,,,,,,,,,,,,,,,,,,,,,,,,,,,,,,,,,,,,,,,,,,,,,,,,,,,,,,,,,,,,,,,,,,,
,,,,,,5f78f9ddcb63b34f243d2239,62c538b64547859c154cde66,2022-07-06_10h11.36.107,Colour_Asymmetry_Pilot,2022.1.3,Win32,59.99160118,62c50e9c1127f2cd403a315f,0,104,104,53,1,threefour,,,,,,,,,,,,,,,,,,,,,,,,,,,,,,,,,,,,,,,,,,,,,,,,,,,,,,,,,,,,,,,,,,,,,,,,,,,,,,,,,,,,,,,,,,,,,,,,,,,,,,,,,,,,,,,,,,,,,,,,,,,,,,,,,,,,,,,,,,,,,,,,,,,,,,,,,,,,,
,,,,,,5f78f9ddcb63b34f243d2239,62c538b64547859c154cde66,2022-07-06_10h11.36.107,Colour_Asymmetry_Pilot,2022.1.3,Win32,59.99160118,62c50e9c1127f2cd403a315f,0,105,105,10,1,twoone,,,,,,,,,,,,,,,,,,,,,,,,,,,,,,,,,,,,,,,,,,,,,,,,,,,,,,,,,,,,,,,,,,,,,,,,,,,,,,,,,,,,,,,,,,,,,,,,,,,,,,,,,,,,,,,,,,,,,,,,,,,,,,,,,,,,,,,,,,,,,,,,,,,,,,,,,,,,,
,,,,,,5f78f9ddcb63b34f243d2239,62c538b64547859c154cde66,2022-07-06_10h11.36.107,Colour_Asymmetry_Pilot,2022.1.3,Win32,59.99160118,62c50e9c1127f2cd403a315f,0,106,106,82,1,twoone,,,,,,,,,,,,,,,,,,,,,,,,,,,,,,,,,,,,,,,,,,,,,,,,,,,,,,,,,,,,,,,,,,,,,,,,,,,,,,,,,,,,,,,,,,,,,,,,,,,,,,,,,,,,,,,,,,,,,,,,,,,,,,,,,,,,,,,,,,,,,,,,,,,,,,,,,,,,,
,,,,,,5f78f9ddcb63b34f243d2239,62c538b64547859c154cde66,2022-07-06_10h11.36.107,Colour_Asymmetry_Pilot,2022.1.3,Win32,59.99160118,62c50e9c1127f2cd403a315f,0,107,107,77,1,threefour,,,,,,,,,,,,,,,,,,,,,,,,,,,,,,,,,,,,,,,,,,,,,,,,,,,,,,,,,,,,,,,,,,,,,,,,,,,,,,,,,,,,,,,,,,,,,,,,,,,,,,,,,,,,,,,,,,,,,,,,,,,,,,,,,,,,,,,,,,,,,,,,,,,,,,,,,,,,,
,,,,,,5f78f9ddcb63b34f243d2239,62c538b64547859c154cde66,2022-07-06_10h11.36.107,Colour_Asymmetry_Pilot,2022.1.3,Win32,59.99160118,62c50e9c1127f2cd403a315f,0,108,108,52,1,threeone,,,,,,,,,,,,,,,,,,,,,,,,,,,,,,,,,,,,,,,,,,,,,,,,,,,,,,,,,,,,,,,,,,,,,,,,,,,,,,,,,,,,,,,,,,,,,,,,,,,,,,,,,,,,,,,,,,,,,,,,,,,,,,,,,,,,,,,,,,,,,,,,,,,,,,,,,,,,,
,,,,,,5f78f9ddcb63b34f243d2239,62c538b64547859c154cde66,2022-07-06_10h11.36.107,Colour_Asymmetry_Pilot,2022.1.3,Win32,59.99160118,62c50e9c1127f2cd403a315f,0,109,109,118,1,fourtwo,,,,,,,,,,,,,,,,,,,,,,,,,,,,,,,,,,,,,,,,,,,,,,,,,,,,,,,,,,,,,,,,,,,,,,,,,,,,,,,,,,,,,,,,,,,,,,,,,,,,,,,,,,,,,,,,,,,,,,,,,,,,,,,,,,,,,,,,,,,,,,,,,,,,,,,,,,,,,
,,,,,,5f78f9ddcb63b34f243d2239,62c538b64547859c154cde66,2022-07-06_10h11.36.107,Colour_Asymmetry_Pilot,2022.1.3,Win32,59.99160118,62c50e9c1127f2cd403a315f,0,110,110,47,1,fourthree,,,,,,,,,,,,,,,,,,,,,,,,,,,,,,,,,,,,,,,,,,,,,,,,,,,,,,,,,,,,,,,,,,,,,,,,,,,,,,,,,,,,,,,,,,,,,,,,,,,,,,,,,,,,,,,,,,,,,,,,,,,,,,,,,,,,,,,,,,,,,,,,,,,,,,,,,,,,,
,,,,,,5f78f9ddcb63b34f243d2239,62c538b64547859c154cde66,2022-07-06_10h11.36.107,Colour_Asymmetry_Pilot,2022.1.3,Win32,59.99160118,62c50e9c1127f2cd403a315f,0,111,111,46,1,fourtwo,,,,,,,,,,,,,,,,,,,,,,,,,,,,,,,,,,,,,,,,,,,,,,,,,,,,,,,,,,,,,,,,,,,,,,,,,,,,,,,,,,,,,,,,,,,,,,,,,,,,,,,,,,,,,,,,,,,,,,,,,,,,,,,,,,,,,,,,,,,,,,,,,,,,,,,,,,,,,
,,,,,,5f78f9ddcb63b34f243d2239,62c538b64547859c154cde66,2022-07-06_10h11.36.107,Colour_Asymmetry_Pilot,2022.1.3,Win32,59.99160118,62c50e9c1127f2cd403a315f,0,112,112,17,1,onethree,,,,,,,,,,,,,,,,,,,,,,,,,,,,,,,,,,,,,,,,,,,,,,,,,,,,,,,,,,,,,,,,,,,,,,,,,,,,,,,,,,,,,,,,,,,,,,,,,,,,,,,,,,,,,,,,,,,,,,,,,,,,,,,,,,,,,,,,,,,,,,,,,,,,,,,,,,,,,
,,,,,,5f78f9ddcb63b34f243d2239,62c538b64547859c154cde66,2022-07-06_10h11.36.107,Colour_Asymmetry_Pilot,2022.1.3,Win32,59.99160118,62c50e9c1127f2cd403a315f,0,113,113,148,1,threeone,,,,,,,,,,,,,,,,,,,,,,,,,,,,,,,,,,,,,,,,,,,,,,,,,,,,,,,,,,,,,,,,,,,,,,,,,,,,,,,,,,,,,,,,,,,,,,,,,,,,,,,,,,,,,,,,,,,,,,,,,,,,,,,,,,,,,,,,,,,,,,,,,,,,,,,,,,,,,
,,,,,,5f78f9ddcb63b34f243d2239,62c538b64547859c154cde66,2022-07-06_10h11.36.107,Colour_Asymmetry_Pilot,2022.1.3,Win32,59.99160118,62c50e9c1127f2cd403a315f,0,114,114,143,1,fourthree,,,,,,,,,,,,,,,,,,,,,,,,,,,,,,,,,,,,,,,,,,,,,,,,,,,,,,,,,,,,,,,,,,,,,,,,,,,,,,,,,,,,,,,,,,,,,,,,,,,,,,,,,,,,,,,,,,,,,,,,,,,,,,,,,,,,,,,,,,,,,,,,,,,,,,,,,,,,,
,,,,,,5f78f9ddcb63b34f243d2239,62c538b64547859c154cde66,2022-07-06_10h11.36.107,Colour_Asymmetry_Pilot,2022.1.3,Win32,59.99160118,62c50e9c1127f2cd403a315f,0,115,115,133,1,threefour,,,,,,,,,,,,,,,,,,,,,,,,,,,,,,,,,,,,,,,,,,,,,,,,,,,,,,,,,,,,,,,,,,,,,,,,,,,,,,,,,,,,,,,,,,,,,,,,,,,,,,,,,,,,,,,,,,,,,,,,,,,,,,,,,,,,,,,,,,,,,,,,,,,,,,,,,,,,,
,,,,,,5f78f9ddcb63b34f243d2239,62c538b64547859c154cde66,2022-07-06_10h11.36.107,Colour_Asymmetry_Pilot,2022.1.3,Win32,59.99160118,62c50e9c1127f2cd403a315f,0,116,116,23,1,fourthree,,,,,,,,,,,,,,,,,,,,,,,,,,,,,,,,,,,,,,,,,,,,,,,,,,,,,,,,,,,,,,,,,,,,,,,,,,,,,,,,,,,,,,,,,,,,,,,,,,,,,,,,,,,,,,,,,,,,,,,,,,,,,,,,,,,,,,,,,,,,,,,,,,,,,,,,,,,,,
,,,,,,5f78f9ddcb63b34f243d2239,62c538b64547859c154cde66,2022-07-06_10h11.36.107,Colour_Asymmetry_Pilot,2022.1.3,Win32,59.99160118,62c50e9c1127f2cd403a315f,0,117,117,57,1,onethree,,,,,,,,,,,,,,,,,,,,,,,,,,,,,,,,,,,,,,,,,,,,,,,,,,,,,,,,,,,,,,,,,,,,,,,,,,,,,,,,,,,,,,,,,,,,,,,,,,,,,,,,,,,,,,,,,,,,,,,,,,,,,,,,,,,,,,,,,,,,,,,,,,,,,,,,,,,,,
,,,,,,5f78f9ddcb63b34f243d2239,62c538b64547859c154cde66,2022-07-06_10h11.36.107,Colour_Asymmetry_Pilot,2022.1.3,Win32,59.99160118,62c50e9c1127f2cd403a315f,0,118,118,2,1,twoone,,,,,,,,,,,,,,,,,,,,,,,,,,,,,,,,,,,,,,,,,,,,,,,,,,,,,,,,,,,,,,,,,,,,,,,,,,,,,,,,,,,,,,,,,,,,,,,,,,,,,,,,,,,,,,,,,,,,,,,,,,,,,,,,,,,,,,,,,,,,,,,,,,,,,,,,,,,,,
,,,,,,5f78f9ddcb63b34f243d2239,62c538b64547859c154cde66,2022-07-06_10h11.36.107,Colour_Asymmetry_Pilot,2022.1.3,Win32,59.99160118,62c50e9c1127f2cd403a315f,0,119,119,61,1,threefour,,,,,,,,,,,,,,,,,,,,,,,,,,,,,,,,,,,,,,,,,,,,,,,,,,,,,,,,,,,,,,,,,,,,,,,,,,,,,,,,,,,,,,,,,,,,,,,,,,,,,,,,,,,,,,,,,,,,,,,,,,,,,,,,,,,,,,,,,,,,,,,,,,,,,,,,,,,,,
,,,,,,5f78f9ddcb63b34f243d2239,62c538b64547859c154cde66,2022-07-06_10h11.36.107,Colour_Asymmetry_Pilot,2022.1.3,Win32,59.99160118,62c50e9c1127f2cd403a315f,0,120,120,125,1,threefour,,,,,,,,,,,,,,,,,,,,,,,,,,,,,,,,,,,,,,,,,,,,,,,,,,,,,,,,,,,,,,,,,,,,,,,,,,,,,,,,,,,,,,,,,,,,,,,,,,,,,,,,,,,,,,,,,,,,,,,,,,,,,,,,,,,,,,,,,,,,,,,,,,,,,,,,,,,,,
,,,,,,5f78f9ddcb63b34f243d2239,62c538b64547859c154cde66,2022-07-06_10h11.36.107,Colour_Asymmetry_Pilot,2022.1.3,Win32,59.99160118,62c50e9c1127f2cd403a315f,0,121,121,103,1,fourthree,,,,,,,,,,,,,,,,,,,,,,,,,,,,,,,,,,,,,,,,,,,,,,,,,,,,,,,,,,,,,,,,,,,,,,,,,,,,,,,,,,,,,,,,,,,,,,,,,,,,,,,,,,,,,,,,,,,,,,,,,,,,,,,,,,,,,,,,,,,,,,,,,,,,,,,,,,,,,
,,,,,,5f78f9ddcb63b34f243d2239,62c538b64547859c154cde66,2022-07-06_10h11.36.107,Colour_Asymmetry_Pilot,2022.1.3,Win32,59.99160118,62c50e9c1127f2cd403a315f,0,122,122,117,1,threefour,,,,,,,,,,,,,,,,,,,,,,,,,,,,,,,,,,,,,,,,,,,,,,,,,,,,,,,,,,,,,,,,,,,,,,,,,,,,,,,,,,,,,,,,,,,,,,,,,,,,,,,,,,,,,,,,,,,,,,,,,,,,,,,,,,,,,,,,,,,,,,,,,,,,,,,,,,,,,
,,,,,,5f78f9ddcb63b34f243d2239,62c538b64547859c154cde66,2022-07-06_10h11.36.107,Colour_Asymmetry_Pilot,2022.1.3,Win32,59.99160118,62c50e9c1127f2cd403a315f,0,123,123,127,1,fourthree,,,,,,,,,,,,,,,,,,,,,,,,,,,,,,,,,,,,,,,,,,,,,,,,,,,,,,,,,,,,,,,,,,,,,,,,,,,,,,,,,,,,,,,,,,,,,,,,,,,,,,,,,,,,,,,,,,,,,,,,,,,,,,,,,,,,,,,,,,,,,,,,,,,,,,,,,,,,,
,,,,,,5f78f9ddcb63b34f243d2239,62c538b64547859c154cde66,2022-07-06_10h11.36.107,Colour_Asymmetry_Pilot,2022.1.3,Win32,59.99160118,62c50e9c1127f2cd403a315f,0,124,124,50,1,twoone,,,,,,,,,,,,,,,,,,,,,,,,,,,,,,,,,,,,,,,,,,,,,,,,,,,,,,,,,,,,,,,,,,,,,,,,,,,,,,,,,,,,,,,,,,,,,,,,,,,,,,,,,,,,,,,,,,,,,,,,,,,,,,,,,,,,,,,,,,,,,,,,,,,,,,,,,,,,,
,,,,,,5f78f9ddcb63b34f243d2239,62c538b64547859c154cde66,2022-07-06_10h11.36.107,Colour_Asymmetry_Pilot,2022.1.3,Win32,59.99160118,62c50e9c1127f2cd403a315f,0,125,125,135,1,fourthree,,,,,,,,,,,,,,,,,,,,,,,,,,,,,,,,,,,,,,,,,,,,,,,,,,,,,,,,,,,,,,,,,,,,,,,,,,,,,,,,,,,,,,,,,,,,,,,,,,,,,,,,,,,,,,,,,,,,,,,,,,,,,,,,,,,,,,,,,,,,,,,,,,,,,,,,,,,,,
,,,,,,5f78f9ddcb63b34f243d2239,62c538b64547859c154cde66,2022-07-06_10h11.36.107,Colour_Asymmetry_Pilot,2022.1.3,Win32,59.99160118,62c50e9c1127f2cd403a315f,0,126,126,73,1,onethree,,,,,,,,,,,,,,,,,,,,,,,,,,,,,,,,,,,,,,,,,,,,,,,,,,,,,,,,,,,,,,,,,,,,,,,,,,,,,,,,,,,,,,,,,,,,,,,,,,,,,,,,,,,,,,,,,,,,,,,,,,,,,,,,,,,,,,,,,,,,,,,,,,,,,,,,,,,,,
,,,,,,5f78f9ddcb63b34f243d2239,62c538b64547859c154cde66,2022-07-06_10h11.36.107,Colour_Asymmetry_Pilot,2022.1.3,Win32,59.99160118,62c50e9c1127f2cd403a315f,0,127,127,128,1,onetwo,,,,,,,,,,,,,,,,,,,,,,,,,,,,,,,,,,,,,,,,,,,,,,,,,,,,,,,,,,,,,,,,,,,,,,,,,,,,,,,,,,,,,,,,,,,,,,,,,,,,,,,,,,,,,,,,,,,,,,,,,,,,,,,,,,,,,,,,,,,,,,,,,,,,,,,,,,,,,
,,,,,,5f78f9ddcb63b34f243d2239,62c538b64547859c154cde66,2022-07-06_10h11.36.107,Colour_Asymmetry_Pilot,2022.1.3,Win32,59.99160118,62c50e9c1127f2cd403a315f,0,128,128,31,1,fourthree,,,,,,,,,,,,,,,,,,,,,,,,,,,,,,,,,,,,,,,,,,,,,,,,,,,,,,,,,,,,,,,,,,,,,,,,,,,,,,,,,,,,,,,,,,,,,,,,,,,,,,,,,,,,,,,,,,,,,,,,,,,,,,,,,,,,,,,,,,,,,,,,,,,,,,,,,,,,,
,,,,,,5f78f9ddcb63b34f243d2239,62c538b64547859c154cde66,2022-07-06_10h11.36.107,Colour_Asymmetry_Pilot,2022.1.3,Win32,59.99160118,62c50e9c1127f2cd403a315f,0,129,129,41,1,onethree,,,,,,,,,,,,,,,,,,,,,,,,,,,,,,,,,,,,,,,,,,,,,,,,,,,,,,,,,,,,,,,,,,,,,,,,,,,,,,,,,,,,,,,,,,,,,,,,,,,,,,,,,,,,,,,,,,,,,,,,,,,,,,,,,,,,,,,,,,,,,,,,,,,,,,,,,,,,,
,,,,,,5f78f9ddcb63b34f243d2239,62c538b64547859c154cde66,2022-07-06_10h11.36.107,Colour_Asymmetry_Pilot,2022.1.3,Win32,59.99160118,62c50e9c1127f2cd403a315f,0,130,130,88,1,onetwo,,,,,,,,,,,,,,,,,,,,,,,,,,,,,,,,,,,,,,,,,,,,,,,,,,,,,,,,,,,,,,,,,,,,,,,,,,,,,,,,,,,,,,,,,,,,,,,,,,,,,,,,,,,,,,,,,,,,,,,,,,,,,,,,,,,,,,,,,,,,,,,,,,,,,,,,,,,,,
,,,,,,5f78f9ddcb63b34f243d2239,62c538b64547859c154cde66,2022-07-06_10h11.36.107,Colour_Asymmetry_Pilot,2022.1.3,Win32,59.99160118,62c50e9c1127f2cd403a315f,0,131,131,1,1,onethree,,,,,,,,,,,,,,,,,,,,,,,,,,,,,,,,,,,,,,,,,,,,,,,,,,,,,,,,,,,,,,,,,,,,,,,,,,,,,,,,,,,,,,,,,,,,,,,,,,,,,,,,,,,,,,,,,,,,,,,,,,,,,,,,,,,,,,,,,,,,,,,,,,,,,,,,,,,,,
,,,,,,5f78f9ddcb63b34f243d2239,62c538b64547859c154cde66,2022-07-06_10h11.36.107,Colour_Asymmetry_Pilot,2022.1.3,Win32,59.99160118,62c50e9c1127f2cd403a315f,0,132,132,87,1,fourthree,,,,,,,,,,,,,,,,,,,,,,,,,,,,,,,,,,,,,,,,,,,,,,,,,,,,,,,,,,,,,,,,,,,,,,,,,,,,,,,,,,,,,,,,,,,,,,,,,,,,,,,,,,,,,,,,,,,,,,,,,,,,,,,,,,,,,,,,,,,,,,,,,,,,,,,,,,,,,
,,,,,,5f78f9ddcb63b34f243d2239,62c538b64547859c154cde66,2022-07-06_10h11.36.107,Colour_Asymmetry_Pilot,2022.1.3,Win32,59.99160118,62c50e9c1127f2cd403a315f,0,133,133,78,1,fourtwo,,,,,,,,,,,,,,,,,,,,,,,,,,,,,,,,,,,,,,,,,,,,,,,,,,,,,,,,,,,,,,,,,,,,,,,,,,,,,,,,,,,,,,,,,,,,,,,,,,,,,,,,,,,,,,,,,,,,,,,,,,,,,,,,,,,,,,,,,,,,,,,,,,,,,,,,,,,,,
,,,,,,5f78f9ddcb63b34f243d2239,62c538b64547859c154cde66,2022-07-06_10h11.36.107,Colour_Asymmetry_Pilot,2022.1.3,Win32,59.99160118,62c50e9c1127f2cd403a315f,0,134,134,91,1,twofour,,,,,,,,,,,,,,,,,,,,,,,,,,,,,,,,,,,,,,,,,,,,,,,,,,,,,,,,,,,,,,,,,,,,,,,,,,,,,,,,,,,,,,,,,,,,,,,,,,,,,,,,,,,,,,,,,,,,,,,,,,,,,,,,,,,,,,,,,,,,,,,,,,,,,,,,,,,,,
,,,,,,5f78f9ddcb63b34f243d2239,62c538b64547859c154cde66,2022-07-06_10h11.36.107,Colour_Asymmetry_Pilot,2022.1.3,Win32,59.99160118,62c50e9c1127f2cd403a315f,0,135,135,16,1,onetwo,,,,,,,,,,,,,,,,,,,,,,,,,,,,,,,,,,,,,,,,,,,,,,,,,,,,,,,,,,,,,,,,,,,,,,,,,,,,,,,,,,,,,,,,,,,,,,,,,,,,,,,,,,,,,,,,,,,,,,,,,,,,,,,,,,,,,,,,,,,,,,,,,,,,,,,,,,,,,
,,,,,,5f78f9ddcb63b34f243d2239,62c538b64547859c154cde66,2022-07-06_10h11.36.107,Colour_Asymmetry_Pilot,2022.1.3,Win32,59.99160118,62c50e9c1127f2cd403a315f,0,136,136,144,1,onetwo,,,,,,,,,,,,,,,,,,,,,,,,,,,,,,,,,,,,,,,,,,,,,,,,,,,,,,,,,,,,,,,,,,,,,,,,,,,,,,,,,,,,,,,,,,,,,,,,,,,,,,,,,,,,,,,,,,,,,,,,,,,,,,,,,,,,,,,,,,,,,,,,,,,,,,,,,,,,,
,,,,,,5f78f9ddcb63b34f243d2239,62c538b64547859c154cde66,2022-07-06_10h11.36.107,Colour_Asymmetry_Pilot,2022.1.3,Win32,59.99160118,62c50e9c1127f2cd403a315f,0,137,137,132,1,threeone,,,,,,,,,,,,,,,,,,,,,,,,,,,,,,,,,,,,,,,,,,,,,,,,,,,,,,,,,,,,,,,,,,,,,,,,,,,,,,,,,,,,,,,,,,,,,,,,,,,,,,,,,,,,,,,,,,,,,,,,,,,,,,,,,,,,,,,,,,,,,,,,,,,,,,,,,,,,,
,,,,,,5f78f9ddcb63b34f243d2239,62c538b64547859c154cde66,2022-07-06_10h11.36.107,Colour_Asymmetry_Pilot,2022.1.3,Win32,59.99160118,62c50e9c1127f2cd403a315f,0,138,138,38,1,fourtwo,,,,,,,,,,,,,,,,,,,,,,,,,,,,,,,,,,,,,,,,,,,,,,,,,,,,,,,,,,,,,,,,,,,,,,,,,,,,,,,,,,,,,,,,,,,,,,,,,,,,,,,,,,,,,,,,,,,,,,,,,,,,,,,,,,,,,,,,,,,,,,,,,,,,,,,,,,,,,
,,,,,,5f78f9ddcb63b34f243d2239,62c538b64547859c154cde66,2022-07-06_10h11.36.107,Colour_Asymmetry_Pilot,2022.1.3,Win32,59.99160118,62c50e9c1127f2cd403a315f,0,139,139,59,1,twofour,,,,,,,,,,,,,,,,,,,,,,,,,,,,,,,,,,,,,,,,,,,,,,,,,,,,,,,,,,,,,,,,,,,,,,,,,,,,,,,,,,,,,,,,,,,,,,,,,,,,,,,,,,,,,,,,,,,,,,,,,,,,,,,,,,,,,,,,,,,,,,,,,,,,,,,,,,,,,
,,,,,,5f78f9ddcb63b34f243d2239,62c538b64547859c154cde66,2022-07-06_10h11.36.107,Colour_Asymmetry_Pilot,2022.1.3,Win32,59.99160118,62c50e9c1127f2cd403a315f,0,140,140,3,1,twofour,,,,,,,,,,,,,,,,,,,,,,,,,,,,,,,,,,,,,,,,,,,,,,,,,,,,,,,,,,,,,,,,,,,,,,,,,,,,,,,,,,,,,,,,,,,,,,,,,,,,,,,,,,,,,,,,,,,,,,,,,,,,,,,,,,,,,,,,,,,,,,,,,,,,,,,,,,,,,
,,,,,,5f78f9ddcb63b34f243d2239,62c538b64547859c154cde66,2022-07-06_10h11.36.107,Colour_Asymmetry_Pilot,2022.1.3,Win32,59.99160118,62c50e9c1127f2cd403a315f,0,141,141,141,1,threefour,,,,,,,,,,,,,,,,,,,,,,,,,,,,,,,,,,,,,,,,,,,,,,,,,,,,,,,,,,,,,,,,,,,,,,,,,,,,,,,,,,,,,,,,,,,,,,,,,,,,,,,,,,,,,,,,,,,,,,,,,,,,,,,,,,,,,,,,,,,,,,,,,,,,,,,,,,,,,
,,,,,,5f78f9ddcb63b34f243d2239,62c538b64547859c154cde66,2022-07-06_10h11.36.107,Colour_Asymmetry_Pilot,2022.1.3,Win32,59.99160118,62c50e9c1127f2cd403a315f,0,142,142,33,1,onethree,,,,,,,,,,,,,,,,,,,,,,,,,,,,,,,,,,,,,,,,,,,,,,,,,,,,,,,,,,,,,,,,,,,,,,,,,,,,,,,,,,,,,,,,,,,,,,,,,,,,,,,,,,,,,,,,,,,,,,,,,,,,,,,,,,,,,,,,,,,,,,,,,,,,,,,,,,,,,
,,,,,,5f78f9ddcb63b34f243d2239,62c538b64547859c154cde66,2022-07-06_10h11.36.107,Colour_Asymmetry_Pilot,2022.1.3,Win32,59.99160118,62c50e9c1127f2cd403a315f,0,143,143,20,1,threeone,,,,,,,,,,,,,,,,,,,,,,,,,,,,,,,,,,,,,,,,,,,,,,,,,,,,,,,,,,,,,,,,,,,,,,,,,,,,,,,,,,,,,,,,,,,,,,,,,,,,,,,,,,,,,,,,,,,,,,,,,,,,,,,,,,,,,,,,,,,,,,,,,,,,,,,,,,,,,
,,,,,,5f78f9ddcb63b34f243d2239,62c538b64547859c154cde66,2022-07-06_10h11.36.107,Colour_Asymmetry_Pilot,2022.1.3,Win32,59.99160118,62c50e9c1127f2cd403a315f,0,144,144,28,1,threeone,,,,,,,,,,,,,,,,,,,,,,,,,,,,,,,,,,,,,,,,,,,,,,,,,,,,,,,,,,,,,,,,,,,,,,,,,,,,,,,,,,,,,,,,,,,,,,,,,,,,,,,,,,,,,,,,,,,,,,,,,,,,,,,,,,,,,,,,,,,,,,,,,,,,,,,,,,,,,
,,,,,,5f78f9ddcb63b34f243d2239,62c538b64547859c154cde66,2022-07-06_10h11.36.107,Colour_Asymmetry_Pilot,2022.1.3,Win32,59.99160118,62c50e9c1127f2cd403a315f,0,145,145,119,1,fourthree,,,,,,,,,,,,,,,,,,,,,,,,,,,,,,,,,,,,,,,,,,,,,,,,,,,,,,,,,,,,,,,,,,,,,,,,,,,,,,,,,,,,,,,,,,,,,,,,,,,,,,,,,,,,,,,,,,,,,,,,,,,,,,,,,,,,,,,,,,,,,,,,,,,,,,,,,,,,,
,,,,,,5f78f9ddcb63b34f243d2239,62c538b64547859c154cde66,2022-07-06_10h11.36.107,Colour_Asymmetry_Pilot,2022.1.3,Win32,59.99160118,62c50e9c1127f2cd403a315f,0,146,146,156,1,threeone,,,,,,,,,,,,,,,,,,,,,,,,,,,,,,,,,,,,,,,,,,,,,,,,,,,,,,,,,,,,,,,,,,,,,,,,,,,,,,,,,,,,,,,,,,,,,,,,,,,,,,,,,,,,,,,,,,,,,,,,,,,,,,,,,,,,,,,,,,,,,,,,,,,,,,,,,,,,,
,,,,,,5f78f9ddcb63b34f243d2239,62c538b64547859c154cde66,2022-07-06_10h11.36.107,Colour_Asymmetry_Pilot,2022.1.3,Win32,59.99160118,62c50e9c1127f2cd403a315f,0,147,147,155,1,twofour,,,,,,,,,,,,,,,,,,,,,,,,,,,,,,,,,,,,,,,,,,,,,,,,,,,,,,,,,,,,,,,,,,,,,,,,,,,,,,,,,,,,,,,,,,,,,,,,,,,,,,,,,,,,,,,,,,,,,,,,,,,,,,,,,,,,,,,,,,,,,,,,,,,,,,,,,,,,,
,,,,,,5f78f9ddcb63b34f243d2239,62c538b64547859c154cde66,2022-07-06_10h11.36.107,Colour_Asymmetry_Pilot,2022.1.3,Win32,59.99160118,62c50e9c1127f2cd403a315f,0,148,148,81,1,onethree,,,,,,,,,,,,,,,,,,,,,,,,,,,,,,,,,,,,,,,,,,,,,,,,,,,,,,,,,,,,,,,,,,,,,,,,,,,,,,,,,,,,,,,,,,,,,,,,,,,,,,,,,,,,,,,,,,,,,,,,,,,,,,,,,,,,,,,,,,,,,,,,,,,,,,,,,,,,,
,,,,,,5f78f9ddcb63b34f243d2239,62c538b64547859c154cde66,2022-07-06_10h11.36.107,Colour_Asymmetry_Pilot,2022.1.3,Win32,59.99160118,62c50e9c1127f2cd403a315f,0,149,149,12,1,threeone,,,,,,,,,,,,,,,,,,,,,,,,,,,,,,,,,,,,,,,,,,,,,,,,,,,,,,,,,,,,,,,,,,,,,,,,,,,,,,,,,,,,,,,,,,,,,,,,,,,,,,,,,,,,,,,,,,,,,,,,,,,,,,,,,,,,,,,,,,,,,,,,,,,,,,,,,,,,,
,,,,,,5f78f9ddcb63b34f243d2239,62c538b64547859c154cde66,2022-07-06_10h11.36.107,Colour_Asymmetry_Pilot,2022.1.3,Win32,59.99160118,62c50e9c1127f2cd403a315f,0,150,150,110,1,fourtwo,,,,,,,,,,,,,,,,,,,,,,,,,,,,,,,,,,,,,,,,,,,,,,,,,,,,,,,,,,,,,,,,,,,,,,,,,,,,,,,,,,,,,,,,,,,,,,,,,,,,,,,,,,,,,,,,,,,,,,,,,,,,,,,,,,,,,,,,,,,,,,,,,,,,,,,,,,,,,
,,,,,,5f78f9ddcb63b34f243d2239,62c538b64547859c154cde66,2022-07-06_10h11.36.107,Colour_Asymmetry_Pilot,2022.1.3,Win32,59.99160118,62c50e9c1127f2cd403a315f,0,151,151,0,1,onetwo,,,,,,,,,,,,,,,,,,,,,,,,,,,,,,,,,,,,,,,,,,,,,,,,,,,,,,,,,,,,,,,,,,,,,,,,,,,,,,,,,,,,,,,,,,,,,,,,,,,,,,,,,,,,,,,,,,,,,,,,,,,,,,,,,,,,,,,,,,,,,,,,,,,,,,,,,,,,,
,,,,,,5f78f9ddcb63b34f243d2239,62c538b64547859c154cde66,2022-07-06_10h11.36.107,Colour_Asymmetry_Pilot,2022.1.3,Win32,59.99160118,62c50e9c1127f2cd403a315f,0,152,152,97,1,onethree,,,,,,,,,,,,,,,,,,,,,,,,,,,,,,,,,,,,,,,,,,,,,,,,,,,,,,,,,,,,,,,,,,,,,,,,,,,,,,,,,,,,,,,,,,,,,,,,,,,,,,,,,,,,,,,,,,,,,,,,,,,,,,,,,,,,,,,,,,,,,,,,,,,,,,,,,,,,,
,,,,,,5f78f9ddcb63b34f243d2239,62c538b64547859c154cde66,2022-07-06_10h11.36.107,Colour_Asymmetry_Pilot,2022.1.3,Win32,59.99160118,62c50e9c1127f2cd403a315f,0,153,153,145,1,onethree,,,,,,,,,,,,,,,,,,,,,,,,,,,,,,,,,,,,,,,,,,,,,,,,,,,,,,,,,,,,,,,,,,,,,,,,,,,,,,,,,,,,,,,,,,,,,,,,,,,,,,,,,,,,,,,,,,,,,,,,,,,,,,,,,,,,,,,,,,,,,,,,,,,,,,,,,,,,,
,,,,,,5f78f9ddcb63b34f243d2239,62c538b64547859c154cde66,2022-07-06_10h11.36.107,Colour_Asymmetry_Pilot,2022.1.3,Win32,59.99160118,62c50e9c1127f2cd403a315f,0,154,154,92,1,threeone,,,,,,,,,,,,,,,,,,,,,,,,,,,,,,,,,,,,,,,,,,,,,,,,,,,,,,,,,,,,,,,,,,,,,,,,,,,,,,,,,,,,,,,,,,,,,,,,,,,,,,,,,,,,,,,,,,,,,,,,,,,,,,,,,,,,,,,,,,,,,,,,,,,,,,,,,,,,,
,,,,,,5f78f9ddcb63b34f243d2239,62c538b64547859c154cde66,2022-07-06_10h11.36.107,Colour_Asymmetry_Pilot,2022.1.3,Win32,59.99160118,62c50e9c1127f2cd403a315f,0,155,155,85,1,threefour,,,,,,,,,,,,,,,,,,,,,,,,,,,,,,,,,,,,,,,,,,,,,,,,,,,,,,,,,,,,,,,,,,,,,,,,,,,,,,,,,,,,,,,,,,,,,,,,,,,,,,,,,,,,,,,,,,,,,,,,,,,,,,,,,,,,,,,,,,,,,,,,,,,,,,,,,,,,,
,,,,,,5f78f9ddcb63b34f243d2239,62c538b64547859c154cde66,2022-07-06_10h11.36.107,Colour_Asymmetry_Pilot,2022.1.3,Win32,59.99160118,62c50e9c1127f2cd403a315f,0,156,156,105,1,onethree,,,,,,,,,,,,,,,,,,,,,,,,,,,,,,,,,,,,,,,,,,,,,,,,,,,,,,,,,,,,,,,,,,,,,,,,,,,,,,,,,,,,,,,,,,,,,,,,,,,,,,,,,,,,,,,,,,,,,,,,,,,,,,,,,,,,,,,,,,,,,,,,,,,,,,,,,,,,,
,,,,,,5f78f9ddcb63b34f243d2239,62c538b64547859c154cde66,2022-07-06_10h11.36.107,Colour_Asymmetry_Pilot,2022.1.3,Win32,59.99160118,62c50e9c1127f2cd403a315f,0,157,157,64,1,onetwo,,,,,,,,,,,,,,,,,,,,,,,,,,,,,,,,,,,,,,,,,,,,,,,,,,,,,,,,,,,,,,,,,,,,,,,,,,,,,,,,,,,,,,,,,,,,,,,,,,,,,,,,,,,,,,,,,,,,,,,,,,,,,,,,,,,,,,,,,,,,,,,,,,,,,,,,,,,,,
,,,,,,5f78f9ddcb63b34f243d2239,62c538b64547859c154cde66,2022-07-06_10h11.36.107,Colour_Asymmetry_Pilot,2022.1.3,Win32,59.99160118,62c50e9c1127f2cd403a315f,0,158,158,153,1,onethree,,,,,,,,,,,,,,,,,,,,,,,,,,,,,,,,,,,,,,,,,,,,,,,,,,,,,,,,,,,,,,,,,,,,,,,,,,,,,,,,,,,,,,,,,,,,,,,,,,,,,,,,,,,,,,,,,,,,,,,,,,,,,,,,,,,,,,,,,,,,,,,,,,,,,,,,,,,,,
,,,,,,5f78f9ddcb63b34f243d2239,62c538b64547859c154cde66,2022-07-06_10h11.36.107,Colour_Asymmetry_Pilot,2022.1.3,Win32,59.99160118,62c50e9c1127f2cd403a315f,0,159,159,70,1,fourtwo,,,,,,,,,,,,,,,,,,,,,,,,,,,,,,,,,,,,,,,,,,,,,,,,,,,,,,,,,,,,,,,,,,,,,,,,,,,,,,,,,,,,,,,,,,,,,,,,,,,,,,,,,,,,,,,,,,,,,,,,,,,,,,,,,,,,,,,,,,,,,,,,,,,,,,,,,,,,,
,,,,,,5f78f9ddcb63b34f243d2239,62c538b64547859c154cde66,2022-07-06_10h11.36.107,Colour_Asymmetry_Pilot,2022.1.3,Win32,59.99160118,62c50e9c1127f2cd403a315f,0,160,160,136,1,onetwo,,,,,,,,,,,,,,,,,,,,,,,,,,,,,,,,,,,,,,,,,,,,,,,,,,,,,,,,,,,,,,,,,,,,,,,,,,,,,,,,,,,,,,,,,,,,,,,,,,,,,,,,,,,,,,,,,,,,,,,,,,,,,,,,,,,,,,,,,,,,,,,,,,,,,,,,,,,,,
,,,,,,5f78f9ddcb63b34f243d2239,62c538b64547859c154cde66,2022-07-06_10h11.36.107,Colour_Asymmetry_Pilot,2022.1.3,Win32,59.99160118,62c50e9c1127f2cd403a315f,0,161,161,112,1,onetwo,,,,,,,,,,,,,,,,,,,,,,,,,,,,,,,,,,,,,,,,,,,,,,,,,,,,,,,,,,,,,,,,,,,,,,,,,,,,,,,,,,,,,,,,,,,,,,,,,,,,,,,,,,,,,,,,,,,,,,,,,,,,,,,,,,,,,,,,,,,,,,,,,,,,,,,,,,,,,
,,,,,,5f78f9ddcb63b34f243d2239,62c538b64547859c154cde66,2022-07-06_10h11.36.107,Colour_Asymmetry_Pilot,2022.1.3,Win32,59.99160118,62c50e9c1127f2cd403a315f,,,,,,,space,1.7061,space,58.796,space,25.1814,space,6.0543,space,2.9308,space,4.9651,"[-0.9766,-0.34920000000000007,0.2156]",onethree,"[-0.26280000000000003,-0.4746,-0.2158]",4,17.1556,58,90,1,0,0,response1disk_5,-6,-2,1,0,0,rectangle_8,54,110,1,0,0,response1disk_7,7,4,6,0,1,0,0,rectangle_4,0,0,0,0,1,,,,,,,,,,,,,,,,,,,,,,,,,,,,,,,,,,,,,,,,,,,,,,,,,,,,,,,,,,,,,,,,,,,,,,,,,,,,,,,,,,,,,,,,,,,,,,,,,,,,,,,,,,,,,
,,,,,,5f78f9ddcb63b34f243d2239,62c538b64547859c154cde66,2022-07-06_10h11.36.107,Colour_Asymmetry_Pilot,2022.1.3,Win32,59.99160118,62c50e9c1127f2cd403a315f,,,,,,,,,,,,,,,,,,,"[0.2862,0.7802,0.3568]",onetwo,"[-0.9688,-0.4902000000000001,-0.12159999999999993]",4,11.4649,30,111,1,0,0,response1disk_5,-4,5,1,0,0,rectangle_8,-4,5,1,0,0,,,4,-4,5,1,0,0,,1,0,1,0,1,,,,,,,,,,,,,,,,,,,,,,,,,,,,,,,,,,,,,,,,,,,,,,,,,,,,,,,,,,,,,,,,,,,,,,,,,,,,,,,,,,,,,,,,,,,,,,,,,,,,,,,,,,,,,
,,,,,,5f78f9ddcb63b34f243d2239,62c538b64547859c154cde66,2022-07-06_10h11.36.107,Colour_Asymmetry_Pilot,2022.1.3,Win32,59.99160118,62c50e9c1127f2cd403a315f,,,,,,,,,,,,,,,,,,,"[-0.48240000000000005,0.3175999999999999,0.2156]",onethree,"[-0.10599999999999998,-0.15300000000000002,0.15280000000000005]",-4,3.9489,-46,85,1,0,0,response7disk_5,2,7,1,0,0,rectangle_8,2,7,1,0,0,,,4,2,7,1,0,0,,2,0,2,0,1,,,,,,,,,,,,,,,,,,,,,,,,,,,,,,,,,,,,,,,,,,,,,,,,,,,,,,,,,,,,,,,,,,,,,,,,,,,,,,,,,,,,,,,,,,,,,,,,,,,,,,,,,,,,,
,,,,,,5f78f9ddcb63b34f243d2239,62c538b64547859c154cde66,2022-07-06_10h11.36.107,Colour_Asymmetry_Pilot,2022.1.3,Win32,59.99160118,62c50e9c1127f2cd403a315f,,,,,,,,,,,,,,,,,,,"[0.3568,-0.20799999999999996,-0.9844]",fourtwo,"[0.22340000000000004,-0.9296,-0.7884]",4,3.1351,60,104,1,0,0,response1disk_5,0,12,1,0,0,rectangle_8,0,12,1,0,0,,,4,0,12,1,0,0,,3,0,3,0,1,,,,,,,,,,,,,,,,,,,,,,,,,,,,,,,,,,,,,,,,,,,,,,,,,,,,,,,,,,,,,,,,,,,,,,,,,,,,,,,,,,,,,,,,,,,,,,,,,,,,,,,,,,,,,
,,,,,,5f78f9ddcb63b34f243d2239,62c538b64547859c154cde66,2022-07-06_10h11.36.107,Colour_Asymmetry_Pilot,2022.1.3,Win32,59.99160118,62c50e9c1127f2cd403a315f,,,,,,,,,,,,,,,,,,,"[0.3568,-0.20799999999999996,-0.9844]",twoone,"[0.796,0.2156,-0.27859999999999996]",4,2.0182,36,70,1,0,0,response1disk_5,10,3,1,0,0,rectangle_8,10,3,1,0,0,,,4,10,3,1,0,0,,4,0,4,0,1,,,,,,,,,,,,,,,,,,,,,,,,,,,,,,,,,,,,,,,,,,,,,,,,,,,,,,,,,,,,,,,,,,,,,,,,,,,,,,,,,,,,,,,,,,,,,,,,,,,,,,,,,,,,,
,,,,,,5f78f9ddcb63b34f243d2239,62c538b64547859c154cde66,2022-07-06_10h11.36.107,Colour_Asymmetry_Pilot,2022.1.3,Win32,59.99160118,62c50e9c1127f2cd403a315f,,,,,,,,,,,,,,,,,,,"[-0.4668,-0.8746,-0.2942]",fourthree,"[0.6547999999999998,-0.043199999999999905,-0.011800000000000033]",4,1.7846,34,75,1,0,0,response1disk_5,-4,-1,1,0,0,rectangle_8,50,91,1,0,0,response1disk_7,7,4,14,3,1,0,0,rectangle_4,5,0,5,0,1,,,,,,,,,,,,,,,,,,,,,,,,,,,,,,,,,,,,,,,,,,,,,,,,,,,,,,,,,,,,,,,,,,,,,,,,,,,,,,,,,,,,,,,,,,,,,,,,,,,,,,,,,,,,,
,,,,,,5f78f9ddcb63b34f243d2239,62c538b64547859c154cde66,2022-07-06_10h11.36.107,Colour_Asymmetry_Pilot,2022.1.3,Win32,59.99160118,62c50e9c1127f2cd403a315f,,,,,,,,,,,,,,,,,,,"[-0.26280000000000003,-0.4746,-0.2158]",threefour,"[0.4196,0.4665999999999999,0.3568]",-3,6.122,-109,42,1,0,0,response7disk_5,-6,6,1,0,0,rectangle_8,-6,6,1,0,0,,,4,-6,6,1,0,0,,6,0,6,0,1,,,,,,,,,,,,,,,,,,,,,,,,,,,,,,,,,,,,,,,,,,,,,,,,,,,,,,,,,,,,,,,,,,,,,,,,,,,,,,,,,,,,,,,,,,,,,,,,,,,,,,,,,,,,,
,,,,,,5f78f9ddcb63b34f243d2239,62c538b64547859c154cde66,2022-07-06_10h11.36.107,Colour_Asymmetry_Pilot,2022.1.3,Win32,59.99160118,62c50e9c1127f2cd403a315f,,,,,,,,,,,,,,,,,,,,onetwo,,-4,4.438,,,,,,,,,,,,,,,,,,,,,,,,,,,,,,,,space,4.5093,"[0.6625999999999999,0.4980000000000002,-0.357]","[-0.24719999999999998,-0.0354000000000001,0.3175999999999999]",-34,77,1,0,0,response7disk,0,2,1,0,0,rectangle,0,2,1,0,0,,2,0.0033,0,0,2,1,0,0,0,0,0,49,1,49,first,,,,,,,,,,,,,,,,,,,,,,,,,,,,,,,,,,,,,,,,,,,,,,,,,,,,,,,,,,,,,,,,,,,,,,,,
,,,,,,5f78f9ddcb63b34f243d2239,62c538b64547859c154cde66,2022-07-06_10h11.36.107,Colour_Asymmetry_Pilot,2022.1.3,Win32,59.99160118,62c50e9c1127f2cd403a315f,,,,,,,,,,,,,,,,,,,,threeone,,4,1.7669,,,,,,,,,,,,,,,,,,,,,,,,,,,,,,,,,,"[0.30180000000000007,-0.7884,-0.9844]","[0.30180000000000007,-0.7884,-0.9844]",39,76,1,0,0,response1disk,-13,-4,1,0,0,rectangle,-13,-4,1,0,0,,1,0.0016,0,-13,-4,1,0,0,0,1,1,28,1,28,first,,,,,,,,,,,,,,,,,,,,,,,,,,,,,,,,,,,,,,,,,,,,,,,,,,,,,,,,,,,,,,,,,,,,,,,,
,,,,,,5f78f9ddcb63b34f243d2239,62c538b64547859c154cde66,2022-07-06_10h11.36.107,Colour_Asymmetry_Pilot,2022.1.3,Win32,59.99160118,62c50e9c1127f2cd403a315f,,,,,,,,,,,,,,,,,,,,twoone,,-2,5.0333,,,,,,,,,,,,,,,,,,,,,,,,,,,,,,,,,,"[-0.38039999999999996,-0.4276,-0.1452]","[0.5449999999999999,-0.31000000000000005,-0.0354000000000001]",-99,-48,1,0,0,response5disk,-9,-1,1,0,0,rectangle,103,49,1,0,0,3,3,3.8188,1,16,-1,1,0,0,0,2,2,36,1,36,first,response1disk_3,rectangle,,,,,,,,,,,,,,,,,,,,,,,,,,,,,,,,,,,,,,,,,,,,,,,,,,,,,,,,,,,,,,,,,,,,,,
,,,,,,5f78f9ddcb63b34f243d2239,62c538b64547859c154cde66,2022-07-06_10h11.36.107,Colour_Asymmetry_Pilot,2022.1.3,Win32,59.99160118,62c50e9c1127f2cd403a315f,,,,,,,,,,,,,,,,,,,,twofour,,4,1.4339,,,,,,,,,,,,,,,,,,,,,,,,,,,,,,,,,,"[-0.9688,-0.4902000000000001,-0.12159999999999993]","[-0.4982,-0.2942,-0.0354000000000001]",24,78,1,0,0,response1disk,-4,-3,1,0,0,rectangle,-4,-3,1,0,0,3,3,0.0017,0,-4,-3,1,0,0,0,3,3,74,1,74,first,,,,,,,,,,,,,,,,,,,,,,,,,,,,,,,,,,,,,,,,,,,,,,,,,,,,,,,,,,,,,,,,,,,,,,,,
,,,,,,5f78f9ddcb63b34f243d2239,62c538b64547859c154cde66,2022-07-06_10h11.36.107,Colour_Asymmetry_Pilot,2022.1.3,Win32,59.99160118,62c50e9c1127f2cd403a315f,,,,,,,,,,,,,,,,,,,,onetwo,,-4,2.9193,,,,,,,,,,,,,,,,,,,,,,,,,,,,,,,,,,"[-0.4668,-0.8746,-0.2942]","[0.9686000000000001,0.3802000000000001,0.19999999999999996]",-47,87,1,0,0,response7disk,8,10,1,0,0,rectangle,8,10,1,0,0,3,2,0.0017,0,8,10,1,0,0,0,4,4,66,1,66,first,,,,,,,,,,,,,,,,,,,,,,,,,,,,,,,,,,,,,,,,,,,,,,,,,,,,,,,,,,,,,,,,,,,,,,,,
,,,,,,5f78f9ddcb63b34f243d2239,62c538b64547859c154cde66,2022-07-06_10h11.36.107,Colour_Asymmetry_Pilot,2022.1.3,Win32,59.99160118,62c50e9c1127f2cd403a315f,,,,,,,,,,,,,,,,,,,,threefour,,3,4.2833,,,,,,,,,,,,,,,,,,,,,,,,,,,,,,,,,,"[-0.4668,-0.8746,-0.2942]","[-0.8118,-0.8198,-0.5452]",100,47,1,0,0,response1disk,11,-6,1,0,0,rectangle,11,-6,1,0,0,3,3,0.0015,0,11,-6,1,0,0,0,5,5,83,1,2,second,,,,,,,,,,,,,,,,,,,,,,,,,,,,,,,,,,,,,,,,,,,,,,,,,,,,,,,,,,,,,,,,,,,,,,,,
,,,,,,5f78f9ddcb63b34f243d2239,62c538b64547859c154cde66,2022-07-06_10h11.36.107,Colour_Asymmetry_Pilot,2022.1.3,Win32,59.99160118,62c50e9c1127f2cd403a315f,,,,,,,,,,,,,,,,,,,,fourthree,,-4,2.05,,,,,,,,,,,,,,,,,,,,,,,,,,,,,,,,,,"[-0.9688,-0.4902000000000001,-0.12159999999999993]","[0.5449999999999999,-0.31000000000000005,-0.0354000000000001]",-50,120,1,0,0,response7disk,6,-2,1,0,0,rectangle,6,-2,1,0,0,3,3,0.0032,0,6,-2,1,0,0,0,6,6,106,1,25,second,,,,,,,,,,,,,,,,,,,,,,,,,,,,,,,,,,,,,,,,,,,,,,,,,,,,,,,,,,,,,,,,,,,,,,,,
,,,,,,5f78f9ddcb63b34f243d2239,62c538b64547859c154cde66,2022-07-06_10h11.36.107,Colour_Asymmetry_Pilot,2022.1.3,Win32,59.99160118,62c50e9c1127f2cd403a315f,,,,,,,,,,,,,,,,,,,,onetwo,,-4,2.5993,,,,,,,,,,,,,,,,,,,,,,,,,,,,,,,,,,"[-0.6,0.16860000000000008,0.44300000000000006]","[0.5449999999999999,-0.31000000000000005,-0.0354000000000001]",-48,90,1,0,0,response7disk,8,9,1,0,0,rectangle,8,9,1,0,0,3,3,0.0013,0,8,9,1,0,0,0,7,7,84,1,3,second,,,,,,,,,,,,,,,,,,,,,,,,,,,,,,,,,,,,,,,,,,,,,,,,,,,,,,,,,,,,,,,,,,,,,,,,
,,,,,,5f78f9ddcb63b34f243d2239,62c538b64547859c154cde66,2022-07-06_10h11.36.107,Colour_Asymmetry_Pilot,2022.1.3,Win32,59.99160118,62c50e9c1127f2cd403a315f,,,,,,,,,,,,,,,,,,,,onethree,,-3,1.3192,,,,,,,,,,,,,,,,,,,,,,,,,,,,,,,,,,"[-0.9688,-0.7412000000000001,-0.4902000000000001]","[-0.8982,-0.37259999999999993,0.2784]",-96,43,1,0,0,response7disk,-4,2,1,0,0,rectangle,-4,2,1,0,0,3,3,0.0012,0,-4,2,1,0,0,0,8,8,69,1,69,first,,,,,,,,,,,,,,,,,,,,,,,,,,,,,,,,,,,,,,,,,,,,,,,,,,,,,,,,,,,,,,,,,,,,,,,,
,,,,,,5f78f9ddcb63b34f243d2239,62c538b64547859c154cde66,2022-07-06_10h11.36.107,Colour_Asymmetry_Pilot,2022.1.3,Win32,59.99160118,62c50e9c1127f2cd403a315f,,,,,,,,,,,,,,,,,,,,threefour,,-4,1.8148,,,,,,,,,,,,,,,,,,,,,,,,,,,,,,,,,,"[0.6547999999999998,-0.043199999999999905,-0.011800000000000033]","[-0.4746,-0.0354000000000001,0.5449999999999999]",-37,105,1,0,0,response7disk,2,7,1,0,0,rectangle,2,7,1,0,0,3,1,0.004,0,2,7,1,0,0,0,9,9,138,1,57,second,,,,,,,,,,,,,,,,,,,,,,,,,,,,,,,,,,,,,,,,,,,,,,,,,,,,,,,,,,,,,,,,,,,,,,,,
,,,,,,5f78f9ddcb63b34f243d2239,62c538b64547859c154cde66,2022-07-06_10h11.36.107,Colour_Asymmetry_Pilot,2022.1.3,Win32,59.99160118,62c50e9c1127f2cd403a315f,,,,,,,,,,,,,,,,,,,,threeone,,4,1.9166,,,,,,,,,,,,,,,,,,,,,,,,,,,,,,,,,,"[-0.45899999999999996,-0.3256,-0.9374]","[0.37240000000000006,0.4980000000000002,-0.2864]",54,77,1,0,0,response1disk,9,8,1,0,0,rectangle,97,57,1,0,0,3,3,1.8444,1,20,5,1,0,0,0,10,10,104,1,23,second,response1disk_3,rectangle,,,,,,,,,,,,,,,,,,,,,,,,,,,,,,,,,,,,,,,,,,,,,,,,,,,,,,,,,,,,,,,,,,,,,,
,,,,,,5f78f9ddcb63b34f243d2239,62c538b64547859c154cde66,2022-07-06_10h11.36.107,Colour_Asymmetry_Pilot,2022.1.3,Win32,59.99160118,62c50e9c1127f2cd403a315f,,,,,,,,,,,,,,,,,,,,twofour,,2,2.3141,,,,,,,,,,,,,,,,,,,,,,,,,,,,,,,,,,"[0.0351999999999999,0.41159999999999997,0.0038000000000000256]","[-0.9296,-0.12959999999999994,-0.043199999999999905]",84,-50,1,0,0,response3disk,5,4,1,0,0,rectangle,5,4,1,0,0,3,2,0.0028,0,5,4,1,0,0,0,11,11,153,1,72,second,,,,,,,,,,,,,,,,,,,,,,,,,,,,,,,,,,,,,,,,,,,,,,,,,,,,,,,,,,,,,,,,,,,,,,,,
,,,,,,5f78f9ddcb63b34f243d2239,62c538b64547859c154cde66,2022-07-06_10h11.36.107,Colour_Asymmetry_Pilot,2022.1.3,Win32,59.99160118,62c50e9c1127f2cd403a315f,,,,,,,,,,,,,,,,,,,,twofour,,-4,1.8497,,,,,,,,,,,,,,,,,,,,,,,,,,,,,,,,,,"[0.05879999999999996,0.2784,0.5841999999999998]","[0.09799999999999986,-0.24719999999999998,0.15280000000000005]",-50,60,1,0,0,response7disk,-16,-11,1,0,0,rectangle,-16,-11,1,0,0,3,3,0.0014,0,-16,-11,1,0,0,0,12,12,81,1,0,second,,,,,,,,,,,,,,,,,,,,,,,,,,,,,,,,,,,,,,,,,,,,,,,,,,,,,,,,,,,,,,,,,,,,,,,,
,,,,,,5f78f9ddcb63b34f243d2239,62c538b64547859c154cde66,2022-07-06_10h11.36.107,Colour_Asymmetry_Pilot,2022.1.3,Win32,59.99160118,62c50e9c1127f2cd403a315f,,,,,,,,,,,,,,,,,,,,threefour,,3,4.2322,,,,,,,,,,,,,,,,,,,,,,,,,,,,,,,,,,"[0.23920000000000008,0.2704,0.16060000000000008]","[-0.9138,-0.5296000000000001,-0.5529999999999999]",111,46,1,0,0,response1disk,17,10,1,0,0,rectangle,17,10,1,0,0,3,2,0.0014,0,17,10,1,0,0,0,13,13,141,1,60,second,,,,,,,,,,,,,,,,,,,,,,,,,,,,,,,,,,,,,,,,,,,,,,,,,,,,,,,,,,,,,,,,,,,,,,,,
,,,,,,5f78f9ddcb63b34f243d2239,62c538b64547859c154cde66,2022-07-06_10h11.36.107,Colour_Asymmetry_Pilot,2022.1.3,Win32,59.99160118,62c50e9c1127f2cd403a315f,,,,,,,,,,,,,,,,,,,,onethree,,-4,2.9552,,,,,,,,,,,,,,,,,,,,,,,,,,,,,,,,,,"[0.9213999999999998,0.6391999999999998,-0.9922]","[-0.10599999999999998,-0.10599999999999998,0.5841999999999998]",-49,94,1,0,0,response7disk,7,5,1,0,0,rectangle,7,5,1,0,0,3,3,0.0014,0,7,5,1,0,0,0,14,14,42,1,42,first,,,,,,,,,,,,,,,,,,,,,,,,,,,,,,,,,,,,,,,,,,,,,,,,,,,,,,,,,,,,,,,,,,,,,,,,
,,,,,,5f78f9ddcb63b34f243d2239,62c538b64547859c154cde66,2022-07-06_10h11.36.107,Colour_Asymmetry_Pilot,2022.1.3,Win32,59.99160118,62c50e9c1127f2cd403a315f,,,,,,,,,,,,,,,,,,,,twoone,,-4,1.1391,,,,,,,,,,,,,,,,,,,,,,,,,,,,,,,,,,"[-0.9688,-0.7412000000000001,-0.4902000000000001]","[0.2784,-0.31000000000000005,-0.5452]",-72,102,1,0,0,response7disk,-5,2,1,0,0,rectangle,-5,2,1,0,0,3,2,0.0018,0,-5,2,1,0,0,0,15,15,78,1,78,first,,,,,,,,,,,,,,,,,,,,,,,,,,,,,,,,,,,,,,,,,,,,,,,,,,,,,,,,,,,,,,,,,,,,,,,,
,,,,,,5f78f9ddcb63b34f243d2239,62c538b64547859c154cde66,2022-07-06_10h11.36.107,Colour_Asymmetry_Pilot,2022.1.3,Win32,59.99160118,62c50e9c1127f2cd403a315f,,,,,,,,,,,,,,,,,,,,twoone,,-4,0.457,,,,,,,,,,,,,,,,,,,,,,,,,,,,,,,,,,"[-0.6235999999999999,-0.6786,-0.08239999999999992]","[-0.9844,-0.9688,-0.9922]",-57,98,1,0,0,response7disk,-5,13,1,0,0,rectangle,-5,13,1,0,0,3,2,0.0018,0,-5,13,1,0,0,0,16,16,80,1,80,first,,,,,,,,,,,,,,,,,,,,,,,,,,,,,,,,,,,,,,,,,,,,,,,,,,,,,,,,,,,,,,,,,,,,,,,,
,,,,,,5f78f9ddcb63b34f243d2239,62c538b64547859c154cde66,2022-07-06_10h11.36.107,Colour_Asymmetry_Pilot,2022.1.3,Win32,59.99160118,62c50e9c1127f2cd403a315f,,,,,,,,,,,,,,,,,,,,twoone,,-4,0.432,,,,,,,,,,,,,,,,,,,,,,,,,,,,,,,,,,"[0.9372,0.20779999999999998,0.2704]","[-0.6706000000000001,-0.6157999999999999,-0.6786]",-46,82,1,0,0,response7disk,2,3,1,0,0,rectangle,2,3,1,0,0,3,1,0.0015,0,2,3,1,0,0,0,17,17,101,1,20,second,,,,,,,,,,,,,,,,,,,,,,,,,,,,,,,,,,,,,,,,,,,,,,,,,,,,,,,,,,,,,,,,,,,,,,,,
