trials.thisRepN,trials.thisTrialN,trials.thisN,trials.thisIndex,trials.ran,Colourcodes,participant,session,date,expName,psychopyVersion,OS,frameRate,study_id,trials_4.thisRepN,trials_4.thisTrialN,trials_4.thisN,trials_4.thisIndex,trials_4.ran,StimulusPos,key_resp.keys,key_resp.rt,key_resp_2.keys,key_resp_2.rt,key_resp_15.keys,key_resp_15.rt,key_resp_17.keys,key_resp_17.rt,key_resp_9.keys,key_resp_9.rt,key_resp_10.keys,key_resp_10.rt,Circle1_col,Ecc,Circle2_col,similarity,response_time,mouse_5.x,mouse_5.y,mouse_5.leftButton,mouse_5.midButton,mouse_5.rightButton,mouse_5.clicked_name,mouse_10.x,mouse_10.y,mouse_10.leftButton,mouse_10.midButton,mouse_10.rightButton,mouse_10.clicked_name,mouse_7.x,mouse_7.y,mouse_7.leftButton,mouse_7.midButton,mouse_7.rightButton,catchnumberprac,mouse_6.x,mouse_6.y,mouse_6.leftButton,mouse_6.midButton,mouse_6.rightButton,duringprac.thisRepN,duringprac.thisTrialN,duringprac.thisN,duringprac.thisIndex,duringprac.ran,mouse_7.clicked_name,catchprac,mouse_6.clicked_name,key_resp_22.keys,key_resp_22.rt,Circle1_colour,Circle2_colour,mouse.x,mouse.y,mouse.leftButton,mouse.midButton,mouse.rightButton,mouse.clicked_name,mouse_2.x,mouse_2.y,mouse_2.leftButton,mouse_2.midButton,mouse_2.rightButton,mouse_2.clicked_name,mouse_3.x,mouse_3.y,mouse_3.leftButton,mouse_3.midButton,mouse_3.rightButton,mouse_3.clicked_name,catchresponse,catchnumber,response_time_catch,Catch,mouse_11.x,mouse_11.y,mouse_11.leftButton,mouse_11.midButton,mouse_11.rightButton,mouse_11.clicked_name,trials_2.thisRepN,trials_2.thisTrialN,trials_2.thisN,trials_2.thisIndex,trials_2.ran,Colourpair,Temporder,trials_3.thisRepN,trials_3.thisTrialN,trials_3.thisN,trials_3.thisIndex,trials_3.ran,key_resp_instr_Ishi.keys,key_resp_instr_Ishi.rt,Ishi_trial_keyresp.keys,Ishi_textbox.text,Ishi_mouse.x,Ishi_mouse.y,Ishi_mouse.leftButton,Ishi_mouse.midButton,Ishi_mouse.rightButton,Ishi_mouse.clicked_name,Ishi_loop.thisRepN,Ishi_loop.thisTrialN,Ishi_loop.thisN,Ishi_loop.thisIndex,Ishi_loop.ran,imageaddress,textbox.text,mouse_4.x,mouse_4.y,mouse_4.leftButton,mouse_4.midButton,mouse_4.rightButton,mouse_4.clicked_name,textbox_2.text,mouse_8.x,mouse_8.y,mouse_8.leftButton,mouse_8.midButton,mouse_8.rightButton,mouse_8.clicked_name,textbox_3.text,mouse_9.x,mouse_9.y,mouse_9.leftButton,mouse_9.midButton,mouse_9.rightButton,mouse_9.clicked_name,textbox_4.text,mouse_12.x,mouse_12.y,mouse_12.leftButton,mouse_12.midButton,mouse_12.rightButton,mouse_12.clicked_name,textbox_5.text,mouse_13.x,mouse_13.y,mouse_13.leftButton,mouse_13.midButton,mouse_13.rightButton,mouse_13.clicked_name,textbox_6.text,mouse_14.x,mouse_14.y,mouse_14.leftButton,mouse_14.midButton,mouse_14.rightButton,mouse_14.clicked_name,textbox_7.text,mouse_15.x,mouse_15.y,mouse_15.leftButton,mouse_15.midButton,mouse_15.rightButton,mouse_15.clicked_name
0,0,0,85,1,,60fabe7bd32b2ed831d38885,62c53877d6dd7e51736dafa2,2022-07-06_09h24.34.906,Colour_Asymmetry_Pilot,2022.1.3,Win32,60.38647343,62c50e9c1127f2cd403a315f,,,,,,,,,,,,,,,,,,,,,,,,,,,,,,,,,,,,,,,,,,,,,,,,,,,,,,,,,,,,,,,,,,,,,,,,,,,,,,,,,,,,,,,,,,,,,,,,,,,,,,,,,,,,,,,,,,,,,,,,,,,,,,,,,,,,,,,,,,,,,,,,,,,,,,,,,,,,,,,,,,,
0,1,1,7,1,,60fabe7bd32b2ed831d38885,62c53877d6dd7e51736dafa2,2022-07-06_09h24.34.906,Colour_Asymmetry_Pilot,2022.1.3,Win32,60.38647343,62c50e9c1127f2cd403a315f,,,,,,,,,,,,,,,,,,,,,,,,,,,,,,,,,,,,,,,,,,,,,,,,,,,,,,,,,,,,,,,,,,,,,,,,,,,,,,,,,,,,,,,,,,,,,,,,,,,,,,,,,,,,,,,,,,,,,,,,,,,,,,,,,,,,,,,,,,,,,,,,,,,,,,,,,,,,,,,,,,,
0,2,2,31,1,,60fabe7bd32b2ed831d38885,62c53877d6dd7e51736dafa2,2022-07-06_09h24.34.906,Colour_Asymmetry_Pilot,2022.1.3,Win32,60.38647343,62c50e9c1127f2cd403a315f,,,,,,,,,,,,,,,,,,,,,,,,,,,,,,,,,,,,,,,,,,,,,,,,,,,,,,,,,,,,,,,,,,,,,,,,,,,,,,,,,,,,,,,,,,,,,,,,,,,,,,,,,,,,,,,,,,,,,,,,,,,,,,,,,,,,,,,,,,,,,,,,,,,,,,,,,,,,,,,,,,,
0,3,3,74,1,,60fabe7bd32b2ed831d38885,62c53877d6dd7e51736dafa2,2022-07-06_09h24.34.906,Colour_Asymmetry_Pilot,2022.1.3,Win32,60.38647343,62c50e9c1127f2cd403a315f,,,,,,,,,,,,,,,,,,,,,,,,,,,,,,,,,,,,,,,,,,,,,,,,,,,,,,,,,,,,,,,,,,,,,,,,,,,,,,,,,,,,,,,,,,,,,,,,,,,,,,,,,,,,,,,,,,,,,,,,,,,,,,,,,,,,,,,,,,,,,,,,,,,,,,,,,,,,,,,,,,,
0,4,4,56,1,,60fabe7bd32b2ed831d38885,62c53877d6dd7e51736dafa2,2022-07-06_09h24.34.906,Colour_Asymmetry_Pilot,2022.1.3,Win32,60.38647343,62c50e9c1127f2cd403a315f,,,,,,,,,,,,,,,,,,,,,,,,,,,,,,,,,,,,,,,,,,,,,,,,,,,,,,,,,,,,,,,,,,,,,,,,,,,,,,,,,,,,,,,,,,,,,,,,,,,,,,,,,,,,,,,,,,,,,,,,,,,,,,,,,,,,,,,,,,,,,,,,,,,,,,,,,,,,,,,,,,,
0,5,5,2,1,,60fabe7bd32b2ed831d38885,62c53877d6dd7e51736dafa2,2022-07-06_09h24.34.906,Colour_Asymmetry_Pilot,2022.1.3,Win32,60.38647343,62c50e9c1127f2cd403a315f,,,,,,,,,,,,,,,,,,,,,,,,,,,,,,,,,,,,,,,,,,,,,,,,,,,,,,,,,,,,,,,,,,,,,,,,,,,,,,,,,,,,,,,,,,,,,,,,,,,,,,,,,,,,,,,,,,,,,,,,,,,,,,,,,,,,,,,,,,,,,,,,,,,,,,,,,,,,,,,,,,,
0,6,6,53,1,,60fabe7bd32b2ed831d38885,62c53877d6dd7e51736dafa2,2022-07-06_09h24.34.906,Colour_Asymmetry_Pilot,2022.1.3,Win32,60.38647343,62c50e9c1127f2cd403a315f,,,,,,,,,,,,,,,,,,,,,,,,,,,,,,,,,,,,,,,,,,,,,,,,,,,,,,,,,,,,,,,,,,,,,,,,,,,,,,,,,,,,,,,,,,,,,,,,,,,,,,,,,,,,,,,,,,,,,,,,,,,,,,,,,,,,,,,,,,,,,,,,,,,,,,,,,,,,,,,,,,,
0,7,7,29,1,,60fabe7bd32b2ed831d38885,62c53877d6dd7e51736dafa2,2022-07-06_09h24.34.906,Colour_Asymmetry_Pilot,2022.1.3,Win32,60.38647343,62c50e9c1127f2cd403a315f,,,,,,,,,,,,,,,,,,,,,,,,,,,,,,,,,,,,,,,,,,,,,,,,,,,,,,,,,,,,,,,,,,,,,,,,,,,,,,,,,,,,,,,,,,,,,,,,,,,,,,,,,,,,,,,,,,,,,,,,,,,,,,,,,,,,,,,,,,,,,,,,,,,,,,,,,,,,,,,,,,,
0,8,8,47,1,,60fabe7bd32b2ed831d38885,62c53877d6dd7e51736dafa2,2022-07-06_09h24.34.906,Colour_Asymmetry_Pilot,2022.1.3,Win32,60.38647343,62c50e9c1127f2cd403a315f,,,,,,,,,,,,,,,,,,,,,,,,,,,,,,,,,,,,,,,,,,,,,,,,,,,,,,,,,,,,,,,,,,,,,,,,,,,,,,,,,,,,,,,,,,,,,,,,,,,,,,,,,,,,,,,,,,,,,,,,,,,,,,,,,,,,,,,,,,,,,,,,,,,,,,,,,,,,,,,,,,,
0,9,9,28,1,,60fabe7bd32b2ed831d38885,62c53877d6dd7e51736dafa2,2022-07-06_09h24.34.906,Colour_Asymmetry_Pilot,2022.1.3,Win32,60.38647343,62c50e9c1127f2cd403a315f,,,,,,,,,,,,,,,,,,,,,,,,,,,,,,,,,,,,,,,,,,,,,,,,,,,,,,,,,,,,,,,,,,,,,,,,,,,,,,,,,,,,,,,,,,,,,,,,,,,,,,,,,,,,,,,,,,,,,,,,,,,,,,,,,,,,,,,,,,,,,,,,,,,,,,,,,,,,,,,,,,,
0,10,10,60,1,,60fabe7bd32b2ed831d38885,62c53877d6dd7e51736dafa2,2022-07-06_09h24.34.906,Colour_Asymmetry_Pilot,2022.1.3,Win32,60.38647343,62c50e9c1127f2cd403a315f,,,,,,,,,,,,,,,,,,,,,,,,,,,,,,,,,,,,,,,,,,,,,,,,,,,,,,,,,,,,,,,,,,,,,,,,,,,,,,,,,,,,,,,,,,,,,,,,,,,,,,,,,,,,,,,,,,,,,,,,,,,,,,,,,,,,,,,,,,,,,,,,,,,,,,,,,,,,,,,,,,,
0,11,11,12,1,,60fabe7bd32b2ed831d38885,62c53877d6dd7e51736dafa2,2022-07-06_09h24.34.906,Colour_Asymmetry_Pilot,2022.1.3,Win32,60.38647343,62c50e9c1127f2cd403a315f,,,,,,,,,,,,,,,,,,,,,,,,,,,,,,,,,,,,,,,,,,,,,,,,,,,,,,,,,,,,,,,,,,,,,,,,,,,,,,,,,,,,,,,,,,,,,,,,,,,,,,,,,,,,,,,,,,,,,,,,,,,,,,,,,,,,,,,,,,,,,,,,,,,,,,,,,,,,,,,,,,,
0,12,12,1,1,,60fabe7bd32b2ed831d38885,62c53877d6dd7e51736dafa2,2022-07-06_09h24.34.906,Colour_Asymmetry_Pilot,2022.1.3,Win32,60.38647343,62c50e9c1127f2cd403a315f,,,,,,,,,,,,,,,,,,,,,,,,,,,,,,,,,,,,,,,,,,,,,,,,,,,,,,,,,,,,,,,,,,,,,,,,,,,,,,,,,,,,,,,,,,,,,,,,,,,,,,,,,,,,,,,,,,,,,,,,,,,,,,,,,,,,,,,,,,,,,,,,,,,,,,,,,,,,,,,,,,,
0,13,13,61,1,,60fabe7bd32b2ed831d38885,62c53877d6dd7e51736dafa2,2022-07-06_09h24.34.906,Colour_Asymmetry_Pilot,2022.1.3,Win32,60.38647343,62c50e9c1127f2cd403a315f,,,,,,,,,,,,,,,,,,,,,,,,,,,,,,,,,,,,,,,,,,,,,,,,,,,,,,,,,,,,,,,,,,,,,,,,,,,,,,,,,,,,,,,,,,,,,,,,,,,,,,,,,,,,,,,,,,,,,,,,,,,,,,,,,,,,,,,,,,,,,,,,,,,,,,,,,,,,,,,,,,,
0,14,14,22,1,,60fabe7bd32b2ed831d38885,62c53877d6dd7e51736dafa2,2022-07-06_09h24.34.906,Colour_Asymmetry_Pilot,2022.1.3,Win32,60.38647343,62c50e9c1127f2cd403a315f,,,,,,,,,,,,,,,,,,,,,,,,,,,,,,,,,,,,,,,,,,,,,,,,,,,,,,,,,,,,,,,,,,,,,,,,,,,,,,,,,,,,,,,,,,,,,,,,,,,,,,,,,,,,,,,,,,,,,,,,,,,,,,,,,,,,,,,,,,,,,,,,,,,,,,,,,,,,,,,,,,,
0,15,15,9,1,,60fabe7bd32b2ed831d38885,62c53877d6dd7e51736dafa2,2022-07-06_09h24.34.906,Colour_Asymmetry_Pilot,2022.1.3,Win32,60.38647343,62c50e9c1127f2cd403a315f,,,,,,,,,,,,,,,,,,,,,,,,,,,,,,,,,,,,,,,,,,,,,,,,,,,,,,,,,,,,,,,,,,,,,,,,,,,,,,,,,,,,,,,,,,,,,,,,,,,,,,,,,,,,,,,,,,,,,,,,,,,,,,,,,,,,,,,,,,,,,,,,,,,,,,,,,,,,,,,,,,,
0,16,16,87,1,,60fabe7bd32b2ed831d38885,62c53877d6dd7e51736dafa2,2022-07-06_09h24.34.906,Colour_Asymmetry_Pilot,2022.1.3,Win32,60.38647343,62c50e9c1127f2cd403a315f,,,,,,,,,,,,,,,,,,,,,,,,,,,,,,,,,,,,,,,,,,,,,,,,,,,,,,,,,,,,,,,,,,,,,,,,,,,,,,,,,,,,,,,,,,,,,,,,,,,,,,,,,,,,,,,,,,,,,,,,,,,,,,,,,,,,,,,,,,,,,,,,,,,,,,,,,,,,,,,,,,,
0,17,17,16,1,,60fabe7bd32b2ed831d38885,62c53877d6dd7e51736dafa2,2022-07-06_09h24.34.906,Colour_Asymmetry_Pilot,2022.1.3,Win32,60.38647343,62c50e9c1127f2cd403a315f,,,,,,,,,,,,,,,,,,,,,,,,,,,,,,,,,,,,,,,,,,,,,,,,,,,,,,,,,,,,,,,,,,,,,,,,,,,,,,,,,,,,,,,,,,,,,,,,,,,,,,,,,,,,,,,,,,,,,,,,,,,,,,,,,,,,,,,,,,,,,,,,,,,,,,,,,,,,,,,,,,,
0,18,18,15,1,,60fabe7bd32b2ed831d38885,62c53877d6dd7e51736dafa2,2022-07-06_09h24.34.906,Colour_Asymmetry_Pilot,2022.1.3,Win32,60.38647343,62c50e9c1127f2cd403a315f,,,,,,,,,,,,,,,,,,,,,,,,,,,,,,,,,,,,,,,,,,,,,,,,,,,,,,,,,,,,,,,,,,,,,,,,,,,,,,,,,,,,,,,,,,,,,,,,,,,,,,,,,,,,,,,,,,,,,,,,,,,,,,,,,,,,,,,,,,,,,,,,,,,,,,,,,,,,,,,,,,,
0,19,19,90,1,,60fabe7bd32b2ed831d38885,62c53877d6dd7e51736dafa2,2022-07-06_09h24.34.906,Colour_Asymmetry_Pilot,2022.1.3,Win32,60.38647343,62c50e9c1127f2cd403a315f,,,,,,,,,,,,,,,,,,,,,,,,,,,,,,,,,,,,,,,,,,,,,,,,,,,,,,,,,,,,,,,,,,,,,,,,,,,,,,,,,,,,,,,,,,,,,,,,,,,,,,,,,,,,,,,,,,,,,,,,,,,,,,,,,,,,,,,,,,,,,,,,,,,,,,,,,,,,,,,,,,,
0,20,20,45,1,,60fabe7bd32b2ed831d38885,62c53877d6dd7e51736dafa2,2022-07-06_09h24.34.906,Colour_Asymmetry_Pilot,2022.1.3,Win32,60.38647343,62c50e9c1127f2cd403a315f,,,,,,,,,,,,,,,,,,,,,,,,,,,,,,,,,,,,,,,,,,,,,,,,,,,,,,,,,,,,,,,,,,,,,,,,,,,,,,,,,,,,,,,,,,,,,,,,,,,,,,,,,,,,,,,,,,,,,,,,,,,,,,,,,,,,,,,,,,,,,,,,,,,,,,,,,,,,,,,,,,,
0,21,21,36,1,,60fabe7bd32b2ed831d38885,62c53877d6dd7e51736dafa2,2022-07-06_09h24.34.906,Colour_Asymmetry_Pilot,2022.1.3,Win32,60.38647343,62c50e9c1127f2cd403a315f,,,,,,,,,,,,,,,,,,,,,,,,,,,,,,,,,,,,,,,,,,,,,,,,,,,,,,,,,,,,,,,,,,,,,,,,,,,,,,,,,,,,,,,,,,,,,,,,,,,,,,,,,,,,,,,,,,,,,,,,,,,,,,,,,,,,,,,,,,,,,,,,,,,,,,,,,,,,,,,,,,,
0,22,22,84,1,,60fabe7bd32b2ed831d38885,62c53877d6dd7e51736dafa2,2022-07-06_09h24.34.906,Colour_Asymmetry_Pilot,2022.1.3,Win32,60.38647343,62c50e9c1127f2cd403a315f,,,,,,,,,,,,,,,,,,,,,,,,,,,,,,,,,,,,,,,,,,,,,,,,,,,,,,,,,,,,,,,,,,,,,,,,,,,,,,,,,,,,,,,,,,,,,,,,,,,,,,,,,,,,,,,,,,,,,,,,,,,,,,,,,,,,,,,,,,,,,,,,,,,,,,,,,,,,,,,,,,,
0,23,23,11,1,,60fabe7bd32b2ed831d38885,62c53877d6dd7e51736dafa2,2022-07-06_09h24.34.906,Colour_Asymmetry_Pilot,2022.1.3,Win32,60.38647343,62c50e9c1127f2cd403a315f,,,,,,,,,,,,,,,,,,,,,,,,,,,,,,,,,,,,,,,,,,,,,,,,,,,,,,,,,,,,,,,,,,,,,,,,,,,,,,,,,,,,,,,,,,,,,,,,,,,,,,,,,,,,,,,,,,,,,,,,,,,,,,,,,,,,,,,,,,,,,,,,,,,,,,,,,,,,,,,,,,,
0,24,24,51,1,,60fabe7bd32b2ed831d38885,62c53877d6dd7e51736dafa2,2022-07-06_09h24.34.906,Colour_Asymmetry_Pilot,2022.1.3,Win32,60.38647343,62c50e9c1127f2cd403a315f,,,,,,,,,,,,,,,,,,,,,,,,,,,,,,,,,,,,,,,,,,,,,,,,,,,,,,,,,,,,,,,,,,,,,,,,,,,,,,,,,,,,,,,,,,,,,,,,,,,,,,,,,,,,,,,,,,,,,,,,,,,,,,,,,,,,,,,,,,,,,,,,,,,,,,,,,,,,,,,,,,,
0,25,25,6,1,,60fabe7bd32b2ed831d38885,62c53877d6dd7e51736dafa2,2022-07-06_09h24.34.906,Colour_Asymmetry_Pilot,2022.1.3,Win32,60.38647343,62c50e9c1127f2cd403a315f,,,,,,,,,,,,,,,,,,,,,,,,,,,,,,,,,,,,,,,,,,,,,,,,,,,,,,,,,,,,,,,,,,,,,,,,,,,,,,,,,,,,,,,,,,,,,,,,,,,,,,,,,,,,,,,,,,,,,,,,,,,,,,,,,,,,,,,,,,,,,,,,,,,,,,,,,,,,,,,,,,,
0,26,26,63,1,,60fabe7bd32b2ed831d38885,62c53877d6dd7e51736dafa2,2022-07-06_09h24.34.906,Colour_Asymmetry_Pilot,2022.1.3,Win32,60.38647343,62c50e9c1127f2cd403a315f,,,,,,,,,,,,,,,,,,,,,,,,,,,,,,,,,,,,,,,,,,,,,,,,,,,,,,,,,,,,,,,,,,,,,,,,,,,,,,,,,,,,,,,,,,,,,,,,,,,,,,,,,,,,,,,,,,,,,,,,,,,,,,,,,,,,,,,,,,,,,,,,,,,,,,,,,,,,,,,,,,,
0,27,27,35,1,,60fabe7bd32b2ed831d38885,62c53877d6dd7e51736dafa2,2022-07-06_09h24.34.906,Colour_Asymmetry_Pilot,2022.1.3,Win32,60.38647343,62c50e9c1127f2cd403a315f,,,,,,,,,,,,,,,,,,,,,,,,,,,,,,,,,,,,,,,,,,,,,,,,,,,,,,,,,,,,,,,,,,,,,,,,,,,,,,,,,,,,,,,,,,,,,,,,,,,,,,,,,,,,,,,,,,,,,,,,,,,,,,,,,,,,,,,,,,,,,,,,,,,,,,,,,,,,,,,,,,,
0,28,28,68,1,,60fabe7bd32b2ed831d38885,62c53877d6dd7e51736dafa2,2022-07-06_09h24.34.906,Colour_Asymmetry_Pilot,2022.1.3,Win32,60.38647343,62c50e9c1127f2cd403a315f,,,,,,,,,,,,,,,,,,,,,,,,,,,,,,,,,,,,,,,,,,,,,,,,,,,,,,,,,,,,,,,,,,,,,,,,,,,,,,,,,,,,,,,,,,,,,,,,,,,,,,,,,,,,,,,,,,,,,,,,,,,,,,,,,,,,,,,,,,,,,,,,,,,,,,,,,,,,,,,,,,,
0,29,29,23,1,,60fabe7bd32b2ed831d38885,62c53877d6dd7e51736dafa2,2022-07-06_09h24.34.906,Colour_Asymmetry_Pilot,2022.1.3,Win32,60.38647343,62c50e9c1127f2cd403a315f,,,,,,,,,,,,,,,,,,,,,,,,,,,,,,,,,,,,,,,,,,,,,,,,,,,,,,,,,,,,,,,,,,,,,,,,,,,,,,,,,,,,,,,,,,,,,,,,,,,,,,,,,,,,,,,,,,,,,,,,,,,,,,,,,,,,,,,,,,,,,,,,,,,,,,,,,,,,,,,,,,,
0,30,30,71,1,,60fabe7bd32b2ed831d38885,62c53877d6dd7e51736dafa2,2022-07-06_09h24.34.906,Colour_Asymmetry_Pilot,2022.1.3,Win32,60.38647343,62c50e9c1127f2cd403a315f,,,,,,,,,,,,,,,,,,,,,,,,,,,,,,,,,,,,,,,,,,,,,,,,,,,,,,,,,,,,,,,,,,,,,,,,,,,,,,,,,,,,,,,,,,,,,,,,,,,,,,,,,,,,,,,,,,,,,,,,,,,,,,,,,,,,,,,,,,,,,,,,,,,,,,,,,,,,,,,,,,,
0,31,31,77,1,,60fabe7bd32b2ed831d38885,62c53877d6dd7e51736dafa2,2022-07-06_09h24.34.906,Colour_Asymmetry_Pilot,2022.1.3,Win32,60.38647343,62c50e9c1127f2cd403a315f,,,,,,,,,,,,,,,,,,,,,,,,,,,,,,,,,,,,,,,,,,,,,,,,,,,,,,,,,,,,,,,,,,,,,,,,,,,,,,,,,,,,,,,,,,,,,,,,,,,,,,,,,,,,,,,,,,,,,,,,,,,,,,,,,,,,,,,,,,,,,,,,,,,,,,,,,,,,,,,,,,,
0,32,32,82,1,,60fabe7bd32b2ed831d38885,62c53877d6dd7e51736dafa2,2022-07-06_09h24.34.906,Colour_Asymmetry_Pilot,2022.1.3,Win32,60.38647343,62c50e9c1127f2cd403a315f,,,,,,,,,,,,,,,,,,,,,,,,,,,,,,,,,,,,,,,,,,,,,,,,,,,,,,,,,,,,,,,,,,,,,,,,,,,,,,,,,,,,,,,,,,,,,,,,,,,,,,,,,,,,,,,,,,,,,,,,,,,,,,,,,,,,,,,,,,,,,,,,,,,,,,,,,,,,,,,,,,,
0,33,33,91,1,,60fabe7bd32b2ed831d38885,62c53877d6dd7e51736dafa2,2022-07-06_09h24.34.906,Colour_Asymmetry_Pilot,2022.1.3,Win32,60.38647343,62c50e9c1127f2cd403a315f,,,,,,,,,,,,,,,,,,,,,,,,,,,,,,,,,,,,,,,,,,,,,,,,,,,,,,,,,,,,,,,,,,,,,,,,,,,,,,,,,,,,,,,,,,,,,,,,,,,,,,,,,,,,,,,,,,,,,,,,,,,,,,,,,,,,,,,,,,,,,,,,,,,,,,,,,,,,,,,,,,,
0,34,34,33,1,,60fabe7bd32b2ed831d38885,62c53877d6dd7e51736dafa2,2022-07-06_09h24.34.906,Colour_Asymmetry_Pilot,2022.1.3,Win32,60.38647343,62c50e9c1127f2cd403a315f,,,,,,,,,,,,,,,,,,,,,,,,,,,,,,,,,,,,,,,,,,,,,,,,,,,,,,,,,,,,,,,,,,,,,,,,,,,,,,,,,,,,,,,,,,,,,,,,,,,,,,,,,,,,,,,,,,,,,,,,,,,,,,,,,,,,,,,,,,,,,,,,,,,,,,,,,,,,,,,,,,,
0,35,35,62,1,,60fabe7bd32b2ed831d38885,62c53877d6dd7e51736dafa2,2022-07-06_09h24.34.906,Colour_Asymmetry_Pilot,2022.1.3,Win32,60.38647343,62c50e9c1127f2cd403a315f,,,,,,,,,,,,,,,,,,,,,,,,,,,,,,,,,,,,,,,,,,,,,,,,,,,,,,,,,,,,,,,,,,,,,,,,,,,,,,,,,,,,,,,,,,,,,,,,,,,,,,,,,,,,,,,,,,,,,,,,,,,,,,,,,,,,,,,,,,,,,,,,,,,,,,,,,,,,,,,,,,,
0,36,36,79,1,,60fabe7bd32b2ed831d38885,62c53877d6dd7e51736dafa2,2022-07-06_09h24.34.906,Colour_Asymmetry_Pilot,2022.1.3,Win32,60.38647343,62c50e9c1127f2cd403a315f,,,,,,,,,,,,,,,,,,,,,,,,,,,,,,,,,,,,,,,,,,,,,,,,,,,,,,,,,,,,,,,,,,,,,,,,,,,,,,,,,,,,,,,,,,,,,,,,,,,,,,,,,,,,,,,,,,,,,,,,,,,,,,,,,,,,,,,,,,,,,,,,,,,,,,,,,,,,,,,,,,,
0,37,37,42,1,,60fabe7bd32b2ed831d38885,62c53877d6dd7e51736dafa2,2022-07-06_09h24.34.906,Colour_Asymmetry_Pilot,2022.1.3,Win32,60.38647343,62c50e9c1127f2cd403a315f,,,,,,,,,,,,,,,,,,,,,,,,,,,,,,,,,,,,,,,,,,,,,,,,,,,,,,,,,,,,,,,,,,,,,,,,,,,,,,,,,,,,,,,,,,,,,,,,,,,,,,,,,,,,,,,,,,,,,,,,,,,,,,,,,,,,,,,,,,,,,,,,,,,,,,,,,,,,,,,,,,,
0,38,38,92,1,,60fabe7bd32b2ed831d38885,62c53877d6dd7e51736dafa2,2022-07-06_09h24.34.906,Colour_Asymmetry_Pilot,2022.1.3,Win32,60.38647343,62c50e9c1127f2cd403a315f,,,,,,,,,,,,,,,,,,,,,,,,,,,,,,,,,,,,,,,,,,,,,,,,,,,,,,,,,,,,,,,,,,,,,,,,,,,,,,,,,,,,,,,,,,,,,,,,,,,,,,,,,,,,,,,,,,,,,,,,,,,,,,,,,,,,,,,,,,,,,,,,,,,,,,,,,,,,,,,,,,,
0,39,39,65,1,,60fabe7bd32b2ed831d38885,62c53877d6dd7e51736dafa2,2022-07-06_09h24.34.906,Colour_Asymmetry_Pilot,2022.1.3,Win32,60.38647343,62c50e9c1127f2cd403a315f,,,,,,,,,,,,,,,,,,,,,,,,,,,,,,,,,,,,,,,,,,,,,,,,,,,,,,,,,,,,,,,,,,,,,,,,,,,,,,,,,,,,,,,,,,,,,,,,,,,,,,,,,,,,,,,,,,,,,,,,,,,,,,,,,,,,,,,,,,,,,,,,,,,,,,,,,,,,,,,,,,,
0,40,40,49,1,,60fabe7bd32b2ed831d38885,62c53877d6dd7e51736dafa2,2022-07-06_09h24.34.906,Colour_Asymmetry_Pilot,2022.1.3,Win32,60.38647343,62c50e9c1127f2cd403a315f,,,,,,,,,,,,,,,,,,,,,,,,,,,,,,,,,,,,,,,,,,,,,,,,,,,,,,,,,,,,,,,,,,,,,,,,,,,,,,,,,,,,,,,,,,,,,,,,,,,,,,,,,,,,,,,,,,,,,,,,,,,,,,,,,,,,,,,,,,,,,,,,,,,,,,,,,,,,,,,,,,,
0,41,41,81,1,,60fabe7bd32b2ed831d38885,62c53877d6dd7e51736dafa2,2022-07-06_09h24.34.906,Colour_Asymmetry_Pilot,2022.1.3,Win32,60.38647343,62c50e9c1127f2cd403a315f,,,,,,,,,,,,,,,,,,,,,,,,,,,,,,,,,,,,,,,,,,,,,,,,,,,,,,,,,,,,,,,,,,,,,,,,,,,,,,,,,,,,,,,,,,,,,,,,,,,,,,,,,,,,,,,,,,,,,,,,,,,,,,,,,,,,,,,,,,,,,,,,,,,,,,,,,,,,,,,,,,,
0,42,42,19,1,,60fabe7bd32b2ed831d38885,62c53877d6dd7e51736dafa2,2022-07-06_09h24.34.906,Colour_Asymmetry_Pilot,2022.1.3,Win32,60.38647343,62c50e9c1127f2cd403a315f,,,,,,,,,,,,,,,,,,,,,,,,,,,,,,,,,,,,,,,,,,,,,,,,,,,,,,,,,,,,,,,,,,,,,,,,,,,,,,,,,,,,,,,,,,,,,,,,,,,,,,,,,,,,,,,,,,,,,,,,,,,,,,,,,,,,,,,,,,,,,,,,,,,,,,,,,,,,,,,,,,,
0,43,43,3,1,,60fabe7bd32b2ed831d38885,62c53877d6dd7e51736dafa2,2022-07-06_09h24.34.906,Colour_Asymmetry_Pilot,2022.1.3,Win32,60.38647343,62c50e9c1127f2cd403a315f,,,,,,,,,,,,,,,,,,,,,,,,,,,,,,,,,,,,,,,,,,,,,,,,,,,,,,,,,,,,,,,,,,,,,,,,,,,,,,,,,,,,,,,,,,,,,,,,,,,,,,,,,,,,,,,,,,,,,,,,,,,,,,,,,,,,,,,,,,,,,,,,,,,,,,,,,,,,,,,,,,,
0,44,44,58,1,,60fabe7bd32b2ed831d38885,62c53877d6dd7e51736dafa2,2022-07-06_09h24.34.906,Colour_Asymmetry_Pilot,2022.1.3,Win32,60.38647343,62c50e9c1127f2cd403a315f,,,,,,,,,,,,,,,,,,,,,,,,,,,,,,,,,,,,,,,,,,,,,,,,,,,,,,,,,,,,,,,,,,,,,,,,,,,,,,,,,,,,,,,,,,,,,,,,,,,,,,,,,,,,,,,,,,,,,,,,,,,,,,,,,,,,,,,,,,,,,,,,,,,,,,,,,,,,,,,,,,,
0,45,45,52,1,,60fabe7bd32b2ed831d38885,62c53877d6dd7e51736dafa2,2022-07-06_09h24.34.906,Colour_Asymmetry_Pilot,2022.1.3,Win32,60.38647343,62c50e9c1127f2cd403a315f,,,,,,,,,,,,,,,,,,,,,,,,,,,,,,,,,,,,,,,,,,,,,,,,,,,,,,,,,,,,,,,,,,,,,,,,,,,,,,,,,,,,,,,,,,,,,,,,,,,,,,,,,,,,,,,,,,,,,,,,,,,,,,,,,,,,,,,,,,,,,,,,,,,,,,,,,,,,,,,,,,,
0,46,46,4,1,,60fabe7bd32b2ed831d38885,62c53877d6dd7e51736dafa2,2022-07-06_09h24.34.906,Colour_Asymmetry_Pilot,2022.1.3,Win32,60.38647343,62c50e9c1127f2cd403a315f,,,,,,,,,,,,,,,,,,,,,,,,,,,,,,,,,,,,,,,,,,,,,,,,,,,,,,,,,,,,,,,,,,,,,,,,,,,,,,,,,,,,,,,,,,,,,,,,,,,,,,,,,,,,,,,,,,,,,,,,,,,,,,,,,,,,,,,,,,,,,,,,,,,,,,,,,,,,,,,,,,,
0,47,47,48,1,,60fabe7bd32b2ed831d38885,62c53877d6dd7e51736dafa2,2022-07-06_09h24.34.906,Colour_Asymmetry_Pilot,2022.1.3,Win32,60.38647343,62c50e9c1127f2cd403a315f,,,,,,,,,,,,,,,,,,,,,,,,,,,,,,,,,,,,,,,,,,,,,,,,,,,,,,,,,,,,,,,,,,,,,,,,,,,,,,,,,,,,,,,,,,,,,,,,,,,,,,,,,,,,,,,,,,,,,,,,,,,,,,,,,,,,,,,,,,,,,,,,,,,,,,,,,,,,,,,,,,,
0,48,48,37,1,,60fabe7bd32b2ed831d38885,62c53877d6dd7e51736dafa2,2022-07-06_09h24.34.906,Colour_Asymmetry_Pilot,2022.1.3,Win32,60.38647343,62c50e9c1127f2cd403a315f,,,,,,,,,,,,,,,,,,,,,,,,,,,,,,,,,,,,,,,,,,,,,,,,,,,,,,,,,,,,,,,,,,,,,,,,,,,,,,,,,,,,,,,,,,,,,,,,,,,,,,,,,,,,,,,,,,,,,,,,,,,,,,,,,,,,,,,,,,,,,,,,,,,,,,,,,,,,,,,,,,,
0,49,49,64,1,,60fabe7bd32b2ed831d38885,62c53877d6dd7e51736dafa2,2022-07-06_09h24.34.906,Colour_Asymmetry_Pilot,2022.1.3,Win32,60.38647343,62c50e9c1127f2cd403a315f,,,,,,,,,,,,,,,,,,,,,,,,,,,,,,,,,,,,,,,,,,,,,,,,,,,,,,,,,,,,,,,,,,,,,,,,,,,,,,,,,,,,,,,,,,,,,,,,,,,,,,,,,,,,,,,,,,,,,,,,,,,,,,,,,,,,,,,,,,,,,,,,,,,,,,,,,,,,,,,,,,,
0,50,50,80,1,,60fabe7bd32b2ed831d38885,62c53877d6dd7e51736dafa2,2022-07-06_09h24.34.906,Colour_Asymmetry_Pilot,2022.1.3,Win32,60.38647343,62c50e9c1127f2cd403a315f,,,,,,,,,,,,,,,,,,,,,,,,,,,,,,,,,,,,,,,,,,,,,,,,,,,,,,,,,,,,,,,,,,,,,,,,,,,,,,,,,,,,,,,,,,,,,,,,,,,,,,,,,,,,,,,,,,,,,,,,,,,,,,,,,,,,,,,,,,,,,,,,,,,,,,,,,,,,,,,,,,,
0,51,51,20,1,,60fabe7bd32b2ed831d38885,62c53877d6dd7e51736dafa2,2022-07-06_09h24.34.906,Colour_Asymmetry_Pilot,2022.1.3,Win32,60.38647343,62c50e9c1127f2cd403a315f,,,,,,,,,,,,,,,,,,,,,,,,,,,,,,,,,,,,,,,,,,,,,,,,,,,,,,,,,,,,,,,,,,,,,,,,,,,,,,,,,,,,,,,,,,,,,,,,,,,,,,,,,,,,,,,,,,,,,,,,,,,,,,,,,,,,,,,,,,,,,,,,,,,,,,,,,,,,,,,,,,,
0,52,52,89,1,,60fabe7bd32b2ed831d38885,62c53877d6dd7e51736dafa2,2022-07-06_09h24.34.906,Colour_Asymmetry_Pilot,2022.1.3,Win32,60.38647343,62c50e9c1127f2cd403a315f,,,,,,,,,,,,,,,,,,,,,,,,,,,,,,,,,,,,,,,,,,,,,,,,,,,,,,,,,,,,,,,,,,,,,,,,,,,,,,,,,,,,,,,,,,,,,,,,,,,,,,,,,,,,,,,,,,,,,,,,,,,,,,,,,,,,,,,,,,,,,,,,,,,,,,,,,,,,,,,,,,,
0,53,53,73,1,,60fabe7bd32b2ed831d38885,62c53877d6dd7e51736dafa2,2022-07-06_09h24.34.906,Colour_Asymmetry_Pilot,2022.1.3,Win32,60.38647343,62c50e9c1127f2cd403a315f,,,,,,,,,,,,,,,,,,,,,,,,,,,,,,,,,,,,,,,,,,,,,,,,,,,,,,,,,,,,,,,,,,,,,,,,,,,,,,,,,,,,,,,,,,,,,,,,,,,,,,,,,,,,,,,,,,,,,,,,,,,,,,,,,,,,,,,,,,,,,,,,,,,,,,,,,,,,,,,,,,,
0,54,54,39,1,,60fabe7bd32b2ed831d38885,62c53877d6dd7e51736dafa2,2022-07-06_09h24.34.906,Colour_Asymmetry_Pilot,2022.1.3,Win32,60.38647343,62c50e9c1127f2cd403a315f,,,,,,,,,,,,,,,,,,,,,,,,,,,,,,,,,,,,,,,,,,,,,,,,,,,,,,,,,,,,,,,,,,,,,,,,,,,,,,,,,,,,,,,,,,,,,,,,,,,,,,,,,,,,,,,,,,,,,,,,,,,,,,,,,,,,,,,,,,,,,,,,,,,,,,,,,,,,,,,,,,,
0,55,55,75,1,,60fabe7bd32b2ed831d38885,62c53877d6dd7e51736dafa2,2022-07-06_09h24.34.906,Colour_Asymmetry_Pilot,2022.1.3,Win32,60.38647343,62c50e9c1127f2cd403a315f,,,,,,,,,,,,,,,,,,,,,,,,,,,,,,,,,,,,,,,,,,,,,,,,,,,,,,,,,,,,,,,,,,,,,,,,,,,,,,,,,,,,,,,,,,,,,,,,,,,,,,,,,,,,,,,,,,,,,,,,,,,,,,,,,,,,,,,,,,,,,,,,,,,,,,,,,,,,,,,,,,,
0,56,56,21,1,,60fabe7bd32b2ed831d38885,62c53877d6dd7e51736dafa2,2022-07-06_09h24.34.906,Colour_Asymmetry_Pilot,2022.1.3,Win32,60.38647343,62c50e9c1127f2cd403a315f,,,,,,,,,,,,,,,,,,,,,,,,,,,,,,,,,,,,,,,,,,,,,,,,,,,,,,,,,,,,,,,,,,,,,,,,,,,,,,,,,,,,,,,,,,,,,,,,,,,,,,,,,,,,,,,,,,,,,,,,,,,,,,,,,,,,,,,,,,,,,,,,,,,,,,,,,,,,,,,,,,,
0,57,57,72,1,,60fabe7bd32b2ed831d38885,62c53877d6dd7e51736dafa2,2022-07-06_09h24.34.906,Colour_Asymmetry_Pilot,2022.1.3,Win32,60.38647343,62c50e9c1127f2cd403a315f,,,,,,,,,,,,,,,,,,,,,,,,,,,,,,,,,,,,,,,,,,,,,,,,,,,,,,,,,,,,,,,,,,,,,,,,,,,,,,,,,,,,,,,,,,,,,,,,,,,,,,,,,,,,,,,,,,,,,,,,,,,,,,,,,,,,,,,,,,,,,,,,,,,,,,,,,,,,,,,,,,,
0,58,58,40,1,,60fabe7bd32b2ed831d38885,62c53877d6dd7e51736dafa2,2022-07-06_09h24.34.906,Colour_Asymmetry_Pilot,2022.1.3,Win32,60.38647343,62c50e9c1127f2cd403a315f,,,,,,,,,,,,,,,,,,,,,,,,,,,,,,,,,,,,,,,,,,,,,,,,,,,,,,,,,,,,,,,,,,,,,,,,,,,,,,,,,,,,,,,,,,,,,,,,,,,,,,,,,,,,,,,,,,,,,,,,,,,,,,,,,,,,,,,,,,,,,,,,,,,,,,,,,,,,,,,,,,,
0,59,59,25,1,,60fabe7bd32b2ed831d38885,62c53877d6dd7e51736dafa2,2022-07-06_09h24.34.906,Colour_Asymmetry_Pilot,2022.1.3,Win32,60.38647343,62c50e9c1127f2cd403a315f,,,,,,,,,,,,,,,,,,,,,,,,,,,,,,,,,,,,,,,,,,,,,,,,,,,,,,,,,,,,,,,,,,,,,,,,,,,,,,,,,,,,,,,,,,,,,,,,,,,,,,,,,,,,,,,,,,,,,,,,,,,,,,,,,,,,,,,,,,,,,,,,,,,,,,,,,,,,,,,,,,,
0,60,60,44,1,,60fabe7bd32b2ed831d38885,62c53877d6dd7e51736dafa2,2022-07-06_09h24.34.906,Colour_Asymmetry_Pilot,2022.1.3,Win32,60.38647343,62c50e9c1127f2cd403a315f,,,,,,,,,,,,,,,,,,,,,,,,,,,,,,,,,,,,,,,,,,,,,,,,,,,,,,,,,,,,,,,,,,,,,,,,,,,,,,,,,,,,,,,,,,,,,,,,,,,,,,,,,,,,,,,,,,,,,,,,,,,,,,,,,,,,,,,,,,,,,,,,,,,,,,,,,,,,,,,,,,,
0,61,61,8,1,,60fabe7bd32b2ed831d38885,62c53877d6dd7e51736dafa2,2022-07-06_09h24.34.906,Colour_Asymmetry_Pilot,2022.1.3,Win32,60.38647343,62c50e9c1127f2cd403a315f,,,,,,,,,,,,,,,,,,,,,,,,,,,,,,,,,,,,,,,,,,,,,,,,,,,,,,,,,,,,,,,,,,,,,,,,,,,,,,,,,,,,,,,,,,,,,,,,,,,,,,,,,,,,,,,,,,,,,,,,,,,,,,,,,,,,,,,,,,,,,,,,,,,,,,,,,,,,,,,,,,,
0,62,62,5,1,,60fabe7bd32b2ed831d38885,62c53877d6dd7e51736dafa2,2022-07-06_09h24.34.906,Colour_Asymmetry_Pilot,2022.1.3,Win32,60.38647343,62c50e9c1127f2cd403a315f,,,,,,,,,,,,,,,,,,,,,,,,,,,,,,,,,,,,,,,,,,,,,,,,,,,,,,,,,,,,,,,,,,,,,,,,,,,,,,,,,,,,,,,,,,,,,,,,,,,,,,,,,,,,,,,,,,,,,,,,,,,,,,,,,,,,,,,,,,,,,,,,,,,,,,,,,,,,,,,,,,,
0,63,63,43,1,,60fabe7bd32b2ed831d38885,62c53877d6dd7e51736dafa2,2022-07-06_09h24.34.906,Colour_Asymmetry_Pilot,2022.1.3,Win32,60.38647343,62c50e9c1127f2cd403a315f,,,,,,,,,,,,,,,,,,,,,,,,,,,,,,,,,,,,,,,,,,,,,,,,,,,,,,,,,,,,,,,,,,,,,,,,,,,,,,,,,,,,,,,,,,,,,,,,,,,,,,,,,,,,,,,,,,,,,,,,,,,,,,,,,,,,,,,,,,,,,,,,,,,,,,,,,,,,,,,,,,,
0,64,64,70,1,,60fabe7bd32b2ed831d38885,62c53877d6dd7e51736dafa2,2022-07-06_09h24.34.906,Colour_Asymmetry_Pilot,2022.1.3,Win32,60.38647343,62c50e9c1127f2cd403a315f,,,,,,,,,,,,,,,,,,,,,,,,,,,,,,,,,,,,,,,,,,,,,,,,,,,,,,,,,,,,,,,,,,,,,,,,,,,,,,,,,,,,,,,,,,,,,,,,,,,,,,,,,,,,,,,,,,,,,,,,,,,,,,,,,,,,,,,,,,,,,,,,,,,,,,,,,,,,,,,,,,,
0,65,65,34,1,,60fabe7bd32b2ed831d38885,62c53877d6dd7e51736dafa2,2022-07-06_09h24.34.906,Colour_Asymmetry_Pilot,2022.1.3,Win32,60.38647343,62c50e9c1127f2cd403a315f,,,,,,,,,,,,,,,,,,,,,,,,,,,,,,,,,,,,,,,,,,,,,,,,,,,,,,,,,,,,,,,,,,,,,,,,,,,,,,,,,,,,,,,,,,,,,,,,,,,,,,,,,,,,,,,,,,,,,,,,,,,,,,,,,,,,,,,,,,,,,,,,,,,,,,,,,,,,,,,,,,,
0,66,66,38,1,,60fabe7bd32b2ed831d38885,62c53877d6dd7e51736dafa2,2022-07-06_09h24.34.906,Colour_Asymmetry_Pilot,2022.1.3,Win32,60.38647343,62c50e9c1127f2cd403a315f,,,,,,,,,,,,,,,,,,,,,,,,,,,,,,,,,,,,,,,,,,,,,,,,,,,,,,,,,,,,,,,,,,,,,,,,,,,,,,,,,,,,,,,,,,,,,,,,,,,,,,,,,,,,,,,,,,,,,,,,,,,,,,,,,,,,,,,,,,,,,,,,,,,,,,,,,,,,,,,,,,,
0,67,67,57,1,,60fabe7bd32b2ed831d38885,62c53877d6dd7e51736dafa2,2022-07-06_09h24.34.906,Colour_Asymmetry_Pilot,2022.1.3,Win32,60.38647343,62c50e9c1127f2cd403a315f,,,,,,,,,,,,,,,,,,,,,,,,,,,,,,,,,,,,,,,,,,,,,,,,,,,,,,,,,,,,,,,,,,,,,,,,,,,,,,,,,,,,,,,,,,,,,,,,,,,,,,,,,,,,,,,,,,,,,,,,,,,,,,,,,,,,,,,,,,,,,,,,,,,,,,,,,,,,,,,,,,,
0,68,68,14,1,,60fabe7bd32b2ed831d38885,62c53877d6dd7e51736dafa2,2022-07-06_09h24.34.906,Colour_Asymmetry_Pilot,2022.1.3,Win32,60.38647343,62c50e9c1127f2cd403a315f,,,,,,,,,,,,,,,,,,,,,,,,,,,,,,,,,,,,,,,,,,,,,,,,,,,,,,,,,,,,,,,,,,,,,,,,,,,,,,,,,,,,,,,,,,,,,,,,,,,,,,,,,,,,,,,,,,,,,,,,,,,,,,,,,,,,,,,,,,,,,,,,,,,,,,,,,,,,,,,,,,,
0,69,69,17,1,,60fabe7bd32b2ed831d38885,62c53877d6dd7e51736dafa2,2022-07-06_09h24.34.906,Colour_Asymmetry_Pilot,2022.1.3,Win32,60.38647343,62c50e9c1127f2cd403a315f,,,,,,,,,,,,,,,,,,,,,,,,,,,,,,,,,,,,,,,,,,,,,,,,,,,,,,,,,,,,,,,,,,,,,,,,,,,,,,,,,,,,,,,,,,,,,,,,,,,,,,,,,,,,,,,,,,,,,,,,,,,,,,,,,,,,,,,,,,,,,,,,,,,,,,,,,,,,,,,,,,,
0,70,70,30,1,,60fabe7bd32b2ed831d38885,62c53877d6dd7e51736dafa2,2022-07-06_09h24.34.906,Colour_Asymmetry_Pilot,2022.1.3,Win32,60.38647343,62c50e9c1127f2cd403a315f,,,,,,,,,,,,,,,,,,,,,,,,,,,,,,,,,,,,,,,,,,,,,,,,,,,,,,,,,,,,,,,,,,,,,,,,,,,,,,,,,,,,,,,,,,,,,,,,,,,,,,,,,,,,,,,,,,,,,,,,,,,,,,,,,,,,,,,,,,,,,,,,,,,,,,,,,,,,,,,,,,,
0,71,71,26,1,,60fabe7bd32b2ed831d38885,62c53877d6dd7e51736dafa2,2022-07-06_09h24.34.906,Colour_Asymmetry_Pilot,2022.1.3,Win32,60.38647343,62c50e9c1127f2cd403a315f,,,,,,,,,,,,,,,,,,,,,,,,,,,,,,,,,,,,,,,,,,,,,,,,,,,,,,,,,,,,,,,,,,,,,,,,,,,,,,,,,,,,,,,,,,,,,,,,,,,,,,,,,,,,,,,,,,,,,,,,,,,,,,,,,,,,,,,,,,,,,,,,,,,,,,,,,,,,,,,,,,,
0,72,72,59,1,,60fabe7bd32b2ed831d38885,62c53877d6dd7e51736dafa2,2022-07-06_09h24.34.906,Colour_Asymmetry_Pilot,2022.1.3,Win32,60.38647343,62c50e9c1127f2cd403a315f,,,,,,,,,,,,,,,,,,,,,,,,,,,,,,,,,,,,,,,,,,,,,,,,,,,,,,,,,,,,,,,,,,,,,,,,,,,,,,,,,,,,,,,,,,,,,,,,,,,,,,,,,,,,,,,,,,,,,,,,,,,,,,,,,,,,,,,,,,,,,,,,,,,,,,,,,,,,,,,,,,,
0,73,73,0,1,,60fabe7bd32b2ed831d38885,62c53877d6dd7e51736dafa2,2022-07-06_09h24.34.906,Colour_Asymmetry_Pilot,2022.1.3,Win32,60.38647343,62c50e9c1127f2cd403a315f,,,,,,,,,,,,,,,,,,,,,,,,,,,,,,,,,,,,,,,,,,,,,,,,,,,,,,,,,,,,,,,,,,,,,,,,,,,,,,,,,,,,,,,,,,,,,,,,,,,,,,,,,,,,,,,,,,,,,,,,,,,,,,,,,,,,,,,,,,,,,,,,,,,,,,,,,,,,,,,,,,,
0,74,74,69,1,,60fabe7bd32b2ed831d38885,62c53877d6dd7e51736dafa2,2022-07-06_09h24.34.906,Colour_Asymmetry_Pilot,2022.1.3,Win32,60.38647343,62c50e9c1127f2cd403a315f,,,,,,,,,,,,,,,,,,,,,,,,,,,,,,,,,,,,,,,,,,,,,,,,,,,,,,,,,,,,,,,,,,,,,,,,,,,,,,,,,,,,,,,,,,,,,,,,,,,,,,,,,,,,,,,,,,,,,,,,,,,,,,,,,,,,,,,,,,,,,,,,,,,,,,,,,,,,,,,,,,,
0,75,75,32,1,,60fabe7bd32b2ed831d38885,62c53877d6dd7e51736dafa2,2022-07-06_09h24.34.906,Colour_Asymmetry_Pilot,2022.1.3,Win32,60.38647343,62c50e9c1127f2cd403a315f,,,,,,,,,,,,,,,,,,,,,,,,,,,,,,,,,,,,,,,,,,,,,,,,,,,,,,,,,,,,,,,,,,,,,,,,,,,,,,,,,,,,,,,,,,,,,,,,,,,,,,,,,,,,,,,,,,,,,,,,,,,,,,,,,,,,,,,,,,,,,,,,,,,,,,,,,,,,,,,,,,,
0,76,76,50,1,,60fabe7bd32b2ed831d38885,62c53877d6dd7e51736dafa2,2022-07-06_09h24.34.906,Colour_Asymmetry_Pilot,2022.1.3,Win32,60.38647343,62c50e9c1127f2cd403a315f,,,,,,,,,,,,,,,,,,,,,,,,,,,,,,,,,,,,,,,,,,,,,,,,,,,,,,,,,,,,,,,,,,,,,,,,,,,,,,,,,,,,,,,,,,,,,,,,,,,,,,,,,,,,,,,,,,,,,,,,,,,,,,,,,,,,,,,,,,,,,,,,,,,,,,,,,,,,,,,,,,,
0,77,77,46,1,,60fabe7bd32b2ed831d38885,62c53877d6dd7e51736dafa2,2022-07-06_09h24.34.906,Colour_Asymmetry_Pilot,2022.1.3,Win32,60.38647343,62c50e9c1127f2cd403a315f,,,,,,,,,,,,,,,,,,,,,,,,,,,,,,,,,,,,,,,,,,,,,,,,,,,,,,,,,,,,,,,,,,,,,,,,,,,,,,,,,,,,,,,,,,,,,,,,,,,,,,,,,,,,,,,,,,,,,,,,,,,,,,,,,,,,,,,,,,,,,,,,,,,,,,,,,,,,,,,,,,,
0,78,78,18,1,,60fabe7bd32b2ed831d38885,62c53877d6dd7e51736dafa2,2022-07-06_09h24.34.906,Colour_Asymmetry_Pilot,2022.1.3,Win32,60.38647343,62c50e9c1127f2cd403a315f,,,,,,,,,,,,,,,,,,,,,,,,,,,,,,,,,,,,,,,,,,,,,,,,,,,,,,,,,,,,,,,,,,,,,,,,,,,,,,,,,,,,,,,,,,,,,,,,,,,,,,,,,,,,,,,,,,,,,,,,,,,,,,,,,,,,,,,,,,,,,,,,,,,,,,,,,,,,,,,,,,,
0,79,79,67,1,,60fabe7bd32b2ed831d38885,62c53877d6dd7e51736dafa2,2022-07-06_09h24.34.906,Colour_Asymmetry_Pilot,2022.1.3,Win32,60.38647343,62c50e9c1127f2cd403a315f,,,,,,,,,,,,,,,,,,,,,,,,,,,,,,,,,,,,,,,,,,,,,,,,,,,,,,,,,,,,,,,,,,,,,,,,,,,,,,,,,,,,,,,,,,,,,,,,,,,,,,,,,,,,,,,,,,,,,,,,,,,,,,,,,,,,,,,,,,,,,,,,,,,,,,,,,,,,,,,,,,,
0,80,80,27,1,,60fabe7bd32b2ed831d38885,62c53877d6dd7e51736dafa2,2022-07-06_09h24.34.906,Colour_Asymmetry_Pilot,2022.1.3,Win32,60.38647343,62c50e9c1127f2cd403a315f,,,,,,,,,,,,,,,,,,,,,,,,,,,,,,,,,,,,,,,,,,,,,,,,,,,,,,,,,,,,,,,,,,,,,,,,,,,,,,,,,,,,,,,,,,,,,,,,,,,,,,,,,,,,,,,,,,,,,,,,,,,,,,,,,,,,,,,,,,,,,,,,,,,,,,,,,,,,,,,,,,,
0,81,81,10,1,,60fabe7bd32b2ed831d38885,62c53877d6dd7e51736dafa2,2022-07-06_09h24.34.906,Colour_Asymmetry_Pilot,2022.1.3,Win32,60.38647343,62c50e9c1127f2cd403a315f,,,,,,,,,,,,,,,,,,,,,,,,,,,,,,,,,,,,,,,,,,,,,,,,,,,,,,,,,,,,,,,,,,,,,,,,,,,,,,,,,,,,,,,,,,,,,,,,,,,,,,,,,,,,,,,,,,,,,,,,,,,,,,,,,,,,,,,,,,,,,,,,,,,,,,,,,,,,,,,,,,,
0,82,82,55,1,,60fabe7bd32b2ed831d38885,62c53877d6dd7e51736dafa2,2022-07-06_09h24.34.906,Colour_Asymmetry_Pilot,2022.1.3,Win32,60.38647343,62c50e9c1127f2cd403a315f,,,,,,,,,,,,,,,,,,,,,,,,,,,,,,,,,,,,,,,,,,,,,,,,,,,,,,,,,,,,,,,,,,,,,,,,,,,,,,,,,,,,,,,,,,,,,,,,,,,,,,,,,,,,,,,,,,,,,,,,,,,,,,,,,,,,,,,,,,,,,,,,,,,,,,,,,,,,,,,,,,,
0,83,83,88,1,,60fabe7bd32b2ed831d38885,62c53877d6dd7e51736dafa2,2022-07-06_09h24.34.906,Colour_Asymmetry_Pilot,2022.1.3,Win32,60.38647343,62c50e9c1127f2cd403a315f,,,,,,,,,,,,,,,,,,,,,,,,,,,,,,,,,,,,,,,,,,,,,,,,,,,,,,,,,,,,,,,,,,,,,,,,,,,,,,,,,,,,,,,,,,,,,,,,,,,,,,,,,,,,,,,,,,,,,,,,,,,,,,,,,,,,,,,,,,,,,,,,,,,,,,,,,,,,,,,,,,,
0,84,84,66,1,,60fabe7bd32b2ed831d38885,62c53877d6dd7e51736dafa2,2022-07-06_09h24.34.906,Colour_Asymmetry_Pilot,2022.1.3,Win32,60.38647343,62c50e9c1127f2cd403a315f,,,,,,,,,,,,,,,,,,,,,,,,,,,,,,,,,,,,,,,,,,,,,,,,,,,,,,,,,,,,,,,,,,,,,,,,,,,,,,,,,,,,,,,,,,,,,,,,,,,,,,,,,,,,,,,,,,,,,,,,,,,,,,,,,,,,,,,,,,,,,,,,,,,,,,,,,,,,,,,,,,,
0,85,85,13,1,,60fabe7bd32b2ed831d38885,62c53877d6dd7e51736dafa2,2022-07-06_09h24.34.906,Colour_Asymmetry_Pilot,2022.1.3,Win32,60.38647343,62c50e9c1127f2cd403a315f,,,,,,,,,,,,,,,,,,,,,,,,,,,,,,,,,,,,,,,,,,,,,,,,,,,,,,,,,,,,,,,,,,,,,,,,,,,,,,,,,,,,,,,,,,,,,,,,,,,,,,,,,,,,,,,,,,,,,,,,,,,,,,,,,,,,,,,,,,,,,,,,,,,,,,,,,,,,,,,,,,,
0,86,86,78,1,,60fabe7bd32b2ed831d38885,62c53877d6dd7e51736dafa2,2022-07-06_09h24.34.906,Colour_Asymmetry_Pilot,2022.1.3,Win32,60.38647343,62c50e9c1127f2cd403a315f,,,,,,,,,,,,,,,,,,,,,,,,,,,,,,,,,,,,,,,,,,,,,,,,,,,,,,,,,,,,,,,,,,,,,,,,,,,,,,,,,,,,,,,,,,,,,,,,,,,,,,,,,,,,,,,,,,,,,,,,,,,,,,,,,,,,,,,,,,,,,,,,,,,,,,,,,,,,,,,,,,,
0,87,87,86,1,,60fabe7bd32b2ed831d38885,62c53877d6dd7e51736dafa2,2022-07-06_09h24.34.906,Colour_Asymmetry_Pilot,2022.1.3,Win32,60.38647343,62c50e9c1127f2cd403a315f,,,,,,,,,,,,,,,,,,,,,,,,,,,,,,,,,,,,,,,,,,,,,,,,,,,,,,,,,,,,,,,,,,,,,,,,,,,,,,,,,,,,,,,,,,,,,,,,,,,,,,,,,,,,,,,,,,,,,,,,,,,,,,,,,,,,,,,,,,,,,,,,,,,,,,,,,,,,,,,,,,,
0,88,88,76,1,,60fabe7bd32b2ed831d38885,62c53877d6dd7e51736dafa2,2022-07-06_09h24.34.906,Colour_Asymmetry_Pilot,2022.1.3,Win32,60.38647343,62c50e9c1127f2cd403a315f,,,,,,,,,,,,,,,,,,,,,,,,,,,,,,,,,,,,,,,,,,,,,,,,,,,,,,,,,,,,,,,,,,,,,,,,,,,,,,,,,,,,,,,,,,,,,,,,,,,,,,,,,,,,,,,,,,,,,,,,,,,,,,,,,,,,,,,,,,,,,,,,,,,,,,,,,,,,,,,,,,,
0,89,89,54,1,,60fabe7bd32b2ed831d38885,62c53877d6dd7e51736dafa2,2022-07-06_09h24.34.906,Colour_Asymmetry_Pilot,2022.1.3,Win32,60.38647343,62c50e9c1127f2cd403a315f,,,,,,,,,,,,,,,,,,,,,,,,,,,,,,,,,,,,,,,,,,,,,,,,,,,,,,,,,,,,,,,,,,,,,,,,,,,,,,,,,,,,,,,,,,,,,,,,,,,,,,,,,,,,,,,,,,,,,,,,,,,,,,,,,,,,,,,,,,,,,,,,,,,,,,,,,,,,,,,,,,,
0,90,90,83,1,,60fabe7bd32b2ed831d38885,62c53877d6dd7e51736dafa2,2022-07-06_09h24.34.906,Colour_Asymmetry_Pilot,2022.1.3,Win32,60.38647343,62c50e9c1127f2cd403a315f,,,,,,,,,,,,,,,,,,,,,,,,,,,,,,,,,,,,,,,,,,,,,,,,,,,,,,,,,,,,,,,,,,,,,,,,,,,,,,,,,,,,,,,,,,,,,,,,,,,,,,,,,,,,,,,,,,,,,,,,,,,,,,,,,,,,,,,,,,,,,,,,,,,,,,,,,,,,,,,,,,,
0,91,91,24,1,,60fabe7bd32b2ed831d38885,62c53877d6dd7e51736dafa2,2022-07-06_09h24.34.906,Colour_Asymmetry_Pilot,2022.1.3,Win32,60.38647343,62c50e9c1127f2cd403a315f,,,,,,,,,,,,,,,,,,,,,,,,,,,,,,,,,,,,,,,,,,,,,,,,,,,,,,,,,,,,,,,,,,,,,,,,,,,,,,,,,,,,,,,,,,,,,,,,,,,,,,,,,,,,,,,,,,,,,,,,,,,,,,,,,,,,,,,,,,,,,,,,,,,,,,,,,,,,,,,,,,,
0,92,92,41,1,,60fabe7bd32b2ed831d38885,62c53877d6dd7e51736dafa2,2022-07-06_09h24.34.906,Colour_Asymmetry_Pilot,2022.1.3,Win32,60.38647343,62c50e9c1127f2cd403a315f,,,,,,,,,,,,,,,,,,,,,,,,,,,,,,,,,,,,,,,,,,,,,,,,,,,,,,,,,,,,,,,,,,,,,,,,,,,,,,,,,,,,,,,,,,,,,,,,,,,,,,,,,,,,,,,,,,,,,,,,,,,,,,,,,,,,,,,,,,,,,,,,,,,,,,,,,,,,,,,,,,,
,,,,,,60fabe7bd32b2ed831d38885,62c53877d6dd7e51736dafa2,2022-07-06_09h24.34.906,Colour_Asymmetry_Pilot,2022.1.3,Win32,60.38647343,62c50e9c1127f2cd403a315f,0,0,0,121,1,onethree,,,,,,,,,,,,,,,,,,,,,,,,,,,,,,,,,,,,,,,,,,,,,,,,,,,,,,,,,,,,,,,,,,,,,,,,,,,,,,,,,,,,,,,,,,,,,,,,,,,,,,,,,,,,,,,,,,,,,,,,,,,,,,,,,,,,,,,,,,,,,,,,,,,,,,,,,,,,,
,,,,,,60fabe7bd32b2ed831d38885,62c53877d6dd7e51736dafa2,2022-07-06_09h24.34.906,Colour_Asymmetry_Pilot,2022.1.3,Win32,60.38647343,62c50e9c1127f2cd403a315f,0,1,1,143,1,fourthree,,,,,,,,,,,,,,,,,,,,,,,,,,,,,,,,,,,,,,,,,,,,,,,,,,,,,,,,,,,,,,,,,,,,,,,,,,,,,,,,,,,,,,,,,,,,,,,,,,,,,,,,,,,,,,,,,,,,,,,,,,,,,,,,,,,,,,,,,,,,,,,,,,,,,,,,,,,,,
,,,,,,60fabe7bd32b2ed831d38885,62c53877d6dd7e51736dafa2,2022-07-06_09h24.34.906,Colour_Asymmetry_Pilot,2022.1.3,Win32,60.38647343,62c50e9c1127f2cd403a315f,0,2,2,118,1,fourtwo,,,,,,,,,,,,,,,,,,,,,,,,,,,,,,,,,,,,,,,,,,,,,,,,,,,,,,,,,,,,,,,,,,,,,,,,,,,,,,,,,,,,,,,,,,,,,,,,,,,,,,,,,,,,,,,,,,,,,,,,,,,,,,,,,,,,,,,,,,,,,,,,,,,,,,,,,,,,,
,,,,,,60fabe7bd32b2ed831d38885,62c53877d6dd7e51736dafa2,2022-07-06_09h24.34.906,Colour_Asymmetry_Pilot,2022.1.3,Win32,60.38647343,62c50e9c1127f2cd403a315f,0,3,3,104,1,onetwo,,,,,,,,,,,,,,,,,,,,,,,,,,,,,,,,,,,,,,,,,,,,,,,,,,,,,,,,,,,,,,,,,,,,,,,,,,,,,,,,,,,,,,,,,,,,,,,,,,,,,,,,,,,,,,,,,,,,,,,,,,,,,,,,,,,,,,,,,,,,,,,,,,,,,,,,,,,,,
,,,,,,60fabe7bd32b2ed831d38885,62c53877d6dd7e51736dafa2,2022-07-06_09h24.34.906,Colour_Asymmetry_Pilot,2022.1.3,Win32,60.38647343,62c50e9c1127f2cd403a315f,0,4,4,41,1,onethree,,,,,,,,,,,,,,,,,,,,,,,,,,,,,,,,,,,,,,,,,,,,,,,,,,,,,,,,,,,,,,,,,,,,,,,,,,,,,,,,,,,,,,,,,,,,,,,,,,,,,,,,,,,,,,,,,,,,,,,,,,,,,,,,,,,,,,,,,,,,,,,,,,,,,,,,,,,,,
,,,,,,60fabe7bd32b2ed831d38885,62c53877d6dd7e51736dafa2,2022-07-06_09h24.34.906,Colour_Asymmetry_Pilot,2022.1.3,Win32,60.38647343,62c50e9c1127f2cd403a315f,0,5,5,136,1,onetwo,,,,,,,,,,,,,,,,,,,,,,,,,,,,,,,,,,,,,,,,,,,,,,,,,,,,,,,,,,,,,,,,,,,,,,,,,,,,,,,,,,,,,,,,,,,,,,,,,,,,,,,,,,,,,,,,,,,,,,,,,,,,,,,,,,,,,,,,,,,,,,,,,,,,,,,,,,,,,
,,,,,,60fabe7bd32b2ed831d38885,62c53877d6dd7e51736dafa2,2022-07-06_09h24.34.906,Colour_Asymmetry_Pilot,2022.1.3,Win32,60.38647343,62c50e9c1127f2cd403a315f,0,6,6,119,1,fourthree,,,,,,,,,,,,,,,,,,,,,,,,,,,,,,,,,,,,,,,,,,,,,,,,,,,,,,,,,,,,,,,,,,,,,,,,,,,,,,,,,,,,,,,,,,,,,,,,,,,,,,,,,,,,,,,,,,,,,,,,,,,,,,,,,,,,,,,,,,,,,,,,,,,,,,,,,,,,,
,,,,,,60fabe7bd32b2ed831d38885,62c53877d6dd7e51736dafa2,2022-07-06_09h24.34.906,Colour_Asymmetry_Pilot,2022.1.3,Win32,60.38647343,62c50e9c1127f2cd403a315f,0,7,7,141,1,threefour,,,,,,,,,,,,,,,,,,,,,,,,,,,,,,,,,,,,,,,,,,,,,,,,,,,,,,,,,,,,,,,,,,,,,,,,,,,,,,,,,,,,,,,,,,,,,,,,,,,,,,,,,,,,,,,,,,,,,,,,,,,,,,,,,,,,,,,,,,,,,,,,,,,,,,,,,,,,,
,,,,,,60fabe7bd32b2ed831d38885,62c53877d6dd7e51736dafa2,2022-07-06_09h24.34.906,Colour_Asymmetry_Pilot,2022.1.3,Win32,60.38647343,62c50e9c1127f2cd403a315f,0,8,8,33,1,onethree,,,,,,,,,,,,,,,,,,,,,,,,,,,,,,,,,,,,,,,,,,,,,,,,,,,,,,,,,,,,,,,,,,,,,,,,,,,,,,,,,,,,,,,,,,,,,,,,,,,,,,,,,,,,,,,,,,,,,,,,,,,,,,,,,,,,,,,,,,,,,,,,,,,,,,,,,,,,,
,,,,,,60fabe7bd32b2ed831d38885,62c53877d6dd7e51736dafa2,2022-07-06_09h24.34.906,Colour_Asymmetry_Pilot,2022.1.3,Win32,60.38647343,62c50e9c1127f2cd403a315f,0,9,9,73,1,onethree,,,,,,,,,,,,,,,,,,,,,,,,,,,,,,,,,,,,,,,,,,,,,,,,,,,,,,,,,,,,,,,,,,,,,,,,,,,,,,,,,,,,,,,,,,,,,,,,,,,,,,,,,,,,,,,,,,,,,,,,,,,,,,,,,,,,,,,,,,,,,,,,,,,,,,,,,,,,,
,,,,,,60fabe7bd32b2ed831d38885,62c53877d6dd7e51736dafa2,2022-07-06_09h24.34.906,Colour_Asymmetry_Pilot,2022.1.3,Win32,60.38647343,62c50e9c1127f2cd403a315f,0,10,10,115,1,twofour,,,,,,,,,,,,,,,,,,,,,,,,,,,,,,,,,,,,,,,,,,,,,,,,,,,,,,,,,,,,,,,,,,,,,,,,,,,,,,,,,,,,,,,,,,,,,,,,,,,,,,,,,,,,,,,,,,,,,,,,,,,,,,,,,,,,,,,,,,,,,,,,,,,,,,,,,,,,,
,,,,,,60fabe7bd32b2ed831d38885,62c53877d6dd7e51736dafa2,2022-07-06_09h24.34.906,Colour_Asymmetry_Pilot,2022.1.3,Win32,60.38647343,62c50e9c1127f2cd403a315f,0,11,11,80,1,onetwo,,,,,,,,,,,,,,,,,,,,,,,,,,,,,,,,,,,,,,,,,,,,,,,,,,,,,,,,,,,,,,,,,,,,,,,,,,,,,,,,,,,,,,,,,,,,,,,,,,,,,,,,,,,,,,,,,,,,,,,,,,,,,,,,,,,,,,,,,,,,,,,,,,,,,,,,,,,,,
,,,,,,60fabe7bd32b2ed831d38885,62c53877d6dd7e51736dafa2,2022-07-06_09h24.34.906,Colour_Asymmetry_Pilot,2022.1.3,Win32,60.38647343,62c50e9c1127f2cd403a315f,0,12,12,123,1,twofour,,,,,,,,,,,,,,,,,,,,,,,,,,,,,,,,,,,,,,,,,,,,,,,,,,,,,,,,,,,,,,,,,,,,,,,,,,,,,,,,,,,,,,,,,,,,,,,,,,,,,,,,,,,,,,,,,,,,,,,,,,,,,,,,,,,,,,,,,,,,,,,,,,,,,,,,,,,,,
,,,,,,60fabe7bd32b2ed831d38885,62c53877d6dd7e51736dafa2,2022-07-06_09h24.34.906,Colour_Asymmetry_Pilot,2022.1.3,Win32,60.38647343,62c50e9c1127f2cd403a315f,0,13,13,10,1,twoone,,,,,,,,,,,,,,,,,,,,,,,,,,,,,,,,,,,,,,,,,,,,,,,,,,,,,,,,,,,,,,,,,,,,,,,,,,,,,,,,,,,,,,,,,,,,,,,,,,,,,,,,,,,,,,,,,,,,,,,,,,,,,,,,,,,,,,,,,,,,,,,,,,,,,,,,,,,,,
,,,,,,60fabe7bd32b2ed831d38885,62c53877d6dd7e51736dafa2,2022-07-06_09h24.34.906,Colour_Asymmetry_Pilot,2022.1.3,Win32,60.38647343,62c50e9c1127f2cd403a315f,0,14,14,93,1,threefour,,,,,,,,,,,,,,,,,,,,,,,,,,,,,,,,,,,,,,,,,,,,,,,,,,,,,,,,,,,,,,,,,,,,,,,,,,,,,,,,,,,,,,,,,,,,,,,,,,,,,,,,,,,,,,,,,,,,,,,,,,,,,,,,,,,,,,,,,,,,,,,,,,,,,,,,,,,,,
,,,,,,60fabe7bd32b2ed831d38885,62c53877d6dd7e51736dafa2,2022-07-06_09h24.34.906,Colour_Asymmetry_Pilot,2022.1.3,Win32,60.38647343,62c50e9c1127f2cd403a315f,0,15,15,146,1,twoone,,,,,,,,,,,,,,,,,,,,,,,,,,,,,,,,,,,,,,,,,,,,,,,,,,,,,,,,,,,,,,,,,,,,,,,,,,,,,,,,,,,,,,,,,,,,,,,,,,,,,,,,,,,,,,,,,,,,,,,,,,,,,,,,,,,,,,,,,,,,,,,,,,,,,,,,,,,,,
,,,,,,60fabe7bd32b2ed831d38885,62c53877d6dd7e51736dafa2,2022-07-06_09h24.34.906,Colour_Asymmetry_Pilot,2022.1.3,Win32,60.38647343,62c50e9c1127f2cd403a315f,0,16,16,74,1,twoone,,,,,,,,,,,,,,,,,,,,,,,,,,,,,,,,,,,,,,,,,,,,,,,,,,,,,,,,,,,,,,,,,,,,,,,,,,,,,,,,,,,,,,,,,,,,,,,,,,,,,,,,,,,,,,,,,,,,,,,,,,,,,,,,,,,,,,,,,,,,,,,,,,,,,,,,,,,,,
,,,,,,60fabe7bd32b2ed831d38885,62c53877d6dd7e51736dafa2,2022-07-06_09h24.34.906,Colour_Asymmetry_Pilot,2022.1.3,Win32,60.38647343,62c50e9c1127f2cd403a315f,0,17,17,144,1,onetwo,,,,,,,,,,,,,,,,,,,,,,,,,,,,,,,,,,,,,,,,,,,,,,,,,,,,,,,,,,,,,,,,,,,,,,,,,,,,,,,,,,,,,,,,,,,,,,,,,,,,,,,,,,,,,,,,,,,,,,,,,,,,,,,,,,,,,,,,,,,,,,,,,,,,,,,,,,,,,
,,,,,,60fabe7bd32b2ed831d38885,62c53877d6dd7e51736dafa2,2022-07-06_09h24.34.906,Colour_Asymmetry_Pilot,2022.1.3,Win32,60.38647343,62c50e9c1127f2cd403a315f,0,18,18,46,1,fourtwo,,,,,,,,,,,,,,,,,,,,,,,,,,,,,,,,,,,,,,,,,,,,,,,,,,,,,,,,,,,,,,,,,,,,,,,,,,,,,,,,,,,,,,,,,,,,,,,,,,,,,,,,,,,,,,,,,,,,,,,,,,,,,,,,,,,,,,,,,,,,,,,,,,,,,,,,,,,,,
,,,,,,60fabe7bd32b2ed831d38885,62c53877d6dd7e51736dafa2,2022-07-06_09h24.34.906,Colour_Asymmetry_Pilot,2022.1.3,Win32,60.38647343,62c50e9c1127f2cd403a315f,0,19,19,160,1,onetwo,,,,,,,,,,,,,,,,,,,,,,,,,,,,,,,,,,,,,,,,,,,,,,,,,,,,,,,,,,,,,,,,,,,,,,,,,,,,,,,,,,,,,,,,,,,,,,,,,,,,,,,,,,,,,,,,,,,,,,,,,,,,,,,,,,,,,,,,,,,,,,,,,,,,,,,,,,,,,
,,,,,,60fabe7bd32b2ed831d38885,62c53877d6dd7e51736dafa2,2022-07-06_09h24.34.906,Colour_Asymmetry_Pilot,2022.1.3,Win32,60.38647343,62c50e9c1127f2cd403a315f,0,20,20,139,1,twofour,,,,,,,,,,,,,,,,,,,,,,,,,,,,,,,,,,,,,,,,,,,,,,,,,,,,,,,,,,,,,,,,,,,,,,,,,,,,,,,,,,,,,,,,,,,,,,,,,,,,,,,,,,,,,,,,,,,,,,,,,,,,,,,,,,,,,,,,,,,,,,,,,,,,,,,,,,,,,
,,,,,,60fabe7bd32b2ed831d38885,62c53877d6dd7e51736dafa2,2022-07-06_09h24.34.906,Colour_Asymmetry_Pilot,2022.1.3,Win32,60.38647343,62c50e9c1127f2cd403a315f,0,21,21,35,1,twofour,,,,,,,,,,,,,,,,,,,,,,,,,,,,,,,,,,,,,,,,,,,,,,,,,,,,,,,,,,,,,,,,,,,,,,,,,,,,,,,,,,,,,,,,,,,,,,,,,,,,,,,,,,,,,,,,,,,,,,,,,,,,,,,,,,,,,,,,,,,,,,,,,,,,,,,,,,,,,
,,,,,,60fabe7bd32b2ed831d38885,62c53877d6dd7e51736dafa2,2022-07-06_09h24.34.906,Colour_Asymmetry_Pilot,2022.1.3,Win32,60.38647343,62c50e9c1127f2cd403a315f,0,22,22,137,1,onethree,,,,,,,,,,,,,,,,,,,,,,,,,,,,,,,,,,,,,,,,,,,,,,,,,,,,,,,,,,,,,,,,,,,,,,,,,,,,,,,,,,,,,,,,,,,,,,,,,,,,,,,,,,,,,,,,,,,,,,,,,,,,,,,,,,,,,,,,,,,,,,,,,,,,,,,,,,,,,
,,,,,,60fabe7bd32b2ed831d38885,62c53877d6dd7e51736dafa2,2022-07-06_09h24.34.906,Colour_Asymmetry_Pilot,2022.1.3,Win32,60.38647343,62c50e9c1127f2cd403a315f,0,23,23,156,1,threeone,,,,,,,,,,,,,,,,,,,,,,,,,,,,,,,,,,,,,,,,,,,,,,,,,,,,,,,,,,,,,,,,,,,,,,,,,,,,,,,,,,,,,,,,,,,,,,,,,,,,,,,,,,,,,,,,,,,,,,,,,,,,,,,,,,,,,,,,,,,,,,,,,,,,,,,,,,,,,
,,,,,,60fabe7bd32b2ed831d38885,62c53877d6dd7e51736dafa2,2022-07-06_09h24.34.906,Colour_Asymmetry_Pilot,2022.1.3,Win32,60.38647343,62c50e9c1127f2cd403a315f,0,24,24,151,1,fourthree,,,,,,,,,,,,,,,,,,,,,,,,,,,,,,,,,,,,,,,,,,,,,,,,,,,,,,,,,,,,,,,,,,,,,,,,,,,,,,,,,,,,,,,,,,,,,,,,,,,,,,,,,,,,,,,,,,,,,,,,,,,,,,,,,,,,,,,,,,,,,,,,,,,,,,,,,,,,,
,,,,,,60fabe7bd32b2ed831d38885,62c53877d6dd7e51736dafa2,2022-07-06_09h24.34.906,Colour_Asymmetry_Pilot,2022.1.3,Win32,60.38647343,62c50e9c1127f2cd403a315f,0,25,25,16,1,onetwo,,,,,,,,,,,,,,,,,,,,,,,,,,,,,,,,,,,,,,,,,,,,,,,,,,,,,,,,,,,,,,,,,,,,,,,,,,,,,,,,,,,,,,,,,,,,,,,,,,,,,,,,,,,,,,,,,,,,,,,,,,,,,,,,,,,,,,,,,,,,,,,,,,,,,,,,,,,,,
,,,,,,60fabe7bd32b2ed831d38885,62c53877d6dd7e51736dafa2,2022-07-06_09h24.34.906,Colour_Asymmetry_Pilot,2022.1.3,Win32,60.38647343,62c50e9c1127f2cd403a315f,0,26,26,148,1,threeone,,,,,,,,,,,,,,,,,,,,,,,,,,,,,,,,,,,,,,,,,,,,,,,,,,,,,,,,,,,,,,,,,,,,,,,,,,,,,,,,,,,,,,,,,,,,,,,,,,,,,,,,,,,,,,,,,,,,,,,,,,,,,,,,,,,,,,,,,,,,,,,,,,,,,,,,,,,,,
,,,,,,60fabe7bd32b2ed831d38885,62c53877d6dd7e51736dafa2,2022-07-06_09h24.34.906,Colour_Asymmetry_Pilot,2022.1.3,Win32,60.38647343,62c50e9c1127f2cd403a315f,0,27,27,83,1,twofour,,,,,,,,,,,,,,,,,,,,,,,,,,,,,,,,,,,,,,,,,,,,,,,,,,,,,,,,,,,,,,,,,,,,,,,,,,,,,,,,,,,,,,,,,,,,,,,,,,,,,,,,,,,,,,,,,,,,,,,,,,,,,,,,,,,,,,,,,,,,,,,,,,,,,,,,,,,,,
,,,,,,60fabe7bd32b2ed831d38885,62c53877d6dd7e51736dafa2,2022-07-06_09h24.34.906,Colour_Asymmetry_Pilot,2022.1.3,Win32,60.38647343,62c50e9c1127f2cd403a315f,0,28,28,147,1,twofour,,,,,,,,,,,,,,,,,,,,,,,,,,,,,,,,,,,,,,,,,,,,,,,,,,,,,,,,,,,,,,,,,,,,,,,,,,,,,,,,,,,,,,,,,,,,,,,,,,,,,,,,,,,,,,,,,,,,,,,,,,,,,,,,,,,,,,,,,,,,,,,,,,,,,,,,,,,,,
,,,,,,60fabe7bd32b2ed831d38885,62c53877d6dd7e51736dafa2,2022-07-06_09h24.34.906,Colour_Asymmetry_Pilot,2022.1.3,Win32,60.38647343,62c50e9c1127f2cd403a315f,0,29,29,129,1,onethree,,,,,,,,,,,,,,,,,,,,,,,,,,,,,,,,,,,,,,,,,,,,,,,,,,,,,,,,,,,,,,,,,,,,,,,,,,,,,,,,,,,,,,,,,,,,,,,,,,,,,,,,,,,,,,,,,,,,,,,,,,,,,,,,,,,,,,,,,,,,,,,,,,,,,,,,,,,,,
,,,,,,60fabe7bd32b2ed831d38885,62c53877d6dd7e51736dafa2,2022-07-06_09h24.34.906,Colour_Asymmetry_Pilot,2022.1.3,Win32,60.38647343,62c50e9c1127f2cd403a315f,0,30,30,22,1,fourtwo,,,,,,,,,,,,,,,,,,,,,,,,,,,,,,,,,,,,,,,,,,,,,,,,,,,,,,,,,,,,,,,,,,,,,,,,,,,,,,,,,,,,,,,,,,,,,,,,,,,,,,,,,,,,,,,,,,,,,,,,,,,,,,,,,,,,,,,,,,,,,,,,,,,,,,,,,,,,,
,,,,,,60fabe7bd32b2ed831d38885,62c53877d6dd7e51736dafa2,2022-07-06_09h24.34.906,Colour_Asymmetry_Pilot,2022.1.3,Win32,60.38647343,62c50e9c1127f2cd403a315f,0,31,31,31,1,fourthree,,,,,,,,,,,,,,,,,,,,,,,,,,,,,,,,,,,,,,,,,,,,,,,,,,,,,,,,,,,,,,,,,,,,,,,,,,,,,,,,,,,,,,,,,,,,,,,,,,,,,,,,,,,,,,,,,,,,,,,,,,,,,,,,,,,,,,,,,,,,,,,,,,,,,,,,,,,,,
,,,,,,60fabe7bd32b2ed831d38885,62c53877d6dd7e51736dafa2,2022-07-06_09h24.34.906,Colour_Asymmetry_Pilot,2022.1.3,Win32,60.38647343,62c50e9c1127f2cd403a315f,0,32,32,65,1,onethree,,,,,,,,,,,,,,,,,,,,,,,,,,,,,,,,,,,,,,,,,,,,,,,,,,,,,,,,,,,,,,,,,,,,,,,,,,,,,,,,,,,,,,,,,,,,,,,,,,,,,,,,,,,,,,,,,,,,,,,,,,,,,,,,,,,,,,,,,,,,,,,,,,,,,,,,,,,,,
,,,,,,60fabe7bd32b2ed831d38885,62c53877d6dd7e51736dafa2,2022-07-06_09h24.34.906,Colour_Asymmetry_Pilot,2022.1.3,Win32,60.38647343,62c50e9c1127f2cd403a315f,0,33,33,27,1,twofour,,,,,,,,,,,,,,,,,,,,,,,,,,,,,,,,,,,,,,,,,,,,,,,,,,,,,,,,,,,,,,,,,,,,,,,,,,,,,,,,,,,,,,,,,,,,,,,,,,,,,,,,,,,,,,,,,,,,,,,,,,,,,,,,,,,,,,,,,,,,,,,,,,,,,,,,,,,,,
,,,,,,60fabe7bd32b2ed831d38885,62c53877d6dd7e51736dafa2,2022-07-06_09h24.34.906,Colour_Asymmetry_Pilot,2022.1.3,Win32,60.38647343,62c50e9c1127f2cd403a315f,0,34,34,145,1,onethree,,,,,,,,,,,,,,,,,,,,,,,,,,,,,,,,,,,,,,,,,,,,,,,,,,,,,,,,,,,,,,,,,,,,,,,,,,,,,,,,,,,,,,,,,,,,,,,,,,,,,,,,,,,,,,,,,,,,,,,,,,,,,,,,,,,,,,,,,,,,,,,,,,,,,,,,,,,,,
,,,,,,60fabe7bd32b2ed831d38885,62c53877d6dd7e51736dafa2,2022-07-06_09h24.34.906,Colour_Asymmetry_Pilot,2022.1.3,Win32,60.38647343,62c50e9c1127f2cd403a315f,0,35,35,49,1,onethree,,,,,,,,,,,,,,,,,,,,,,,,,,,,,,,,,,,,,,,,,,,,,,,,,,,,,,,,,,,,,,,,,,,,,,,,,,,,,,,,,,,,,,,,,,,,,,,,,,,,,,,,,,,,,,,,,,,,,,,,,,,,,,,,,,,,,,,,,,,,,,,,,,,,,,,,,,,,,
,,,,,,60fabe7bd32b2ed831d38885,62c53877d6dd7e51736dafa2,2022-07-06_09h24.34.906,Colour_Asymmetry_Pilot,2022.1.3,Win32,60.38647343,62c50e9c1127f2cd403a315f,0,36,36,0,1,onetwo,,,,,,,,,,,,,,,,,,,,,,,,,,,,,,,,,,,,,,,,,,,,,,,,,,,,,,,,,,,,,,,,,,,,,,,,,,,,,,,,,,,,,,,,,,,,,,,,,,,,,,,,,,,,,,,,,,,,,,,,,,,,,,,,,,,,,,,,,,,,,,,,,,,,,,,,,,,,,
,,,,,,60fabe7bd32b2ed831d38885,62c53877d6dd7e51736dafa2,2022-07-06_09h24.34.906,Colour_Asymmetry_Pilot,2022.1.3,Win32,60.38647343,62c50e9c1127f2cd403a315f,0,37,37,51,1,twofour,,,,,,,,,,,,,,,,,,,,,,,,,,,,,,,,,,,,,,,,,,,,,,,,,,,,,,,,,,,,,,,,,,,,,,,,,,,,,,,,,,,,,,,,,,,,,,,,,,,,,,,,,,,,,,,,,,,,,,,,,,,,,,,,,,,,,,,,,,,,,,,,,,,,,,,,,,,,,
,,,,,,60fabe7bd32b2ed831d38885,62c53877d6dd7e51736dafa2,2022-07-06_09h24.34.906,Colour_Asymmetry_Pilot,2022.1.3,Win32,60.38647343,62c50e9c1127f2cd403a315f,0,38,38,127,1,fourthree,,,,,,,,,,,,,,,,,,,,,,,,,,,,,,,,,,,,,,,,,,,,,,,,,,,,,,,,,,,,,,,,,,,,,,,,,,,,,,,,,,,,,,,,,,,,,,,,,,,,,,,,,,,,,,,,,,,,,,,,,,,,,,,,,,,,,,,,,,,,,,,,,,,,,,,,,,,,,
,,,,,,60fabe7bd32b2ed831d38885,62c53877d6dd7e51736dafa2,2022-07-06_09h24.34.906,Colour_Asymmetry_Pilot,2022.1.3,Win32,60.38647343,62c50e9c1127f2cd403a315f,0,39,39,14,1,fourtwo,,,,,,,,,,,,,,,,,,,,,,,,,,,,,,,,,,,,,,,,,,,,,,,,,,,,,,,,,,,,,,,,,,,,,,,,,,,,,,,,,,,,,,,,,,,,,,,,,,,,,,,,,,,,,,,,,,,,,,,,,,,,,,,,,,,,,,,,,,,,,,,,,,,,,,,,,,,,,
,,,,,,60fabe7bd32b2ed831d38885,62c53877d6dd7e51736dafa2,2022-07-06_09h24.34.906,Colour_Asymmetry_Pilot,2022.1.3,Win32,60.38647343,62c50e9c1127f2cd403a315f,0,40,40,97,1,onethree,,,,,,,,,,,,,,,,,,,,,,,,,,,,,,,,,,,,,,,,,,,,,,,,,,,,,,,,,,,,,,,,,,,,,,,,,,,,,,,,,,,,,,,,,,,,,,,,,,,,,,,,,,,,,,,,,,,,,,,,,,,,,,,,,,,,,,,,,,,,,,,,,,,,,,,,,,,,,
,,,,,,60fabe7bd32b2ed831d38885,62c53877d6dd7e51736dafa2,2022-07-06_09h24.34.906,Colour_Asymmetry_Pilot,2022.1.3,Win32,60.38647343,62c50e9c1127f2cd403a315f,0,41,41,8,1,onetwo,,,,,,,,,,,,,,,,,,,,,,,,,,,,,,,,,,,,,,,,,,,,,,,,,,,,,,,,,,,,,,,,,,,,,,,,,,,,,,,,,,,,,,,,,,,,,,,,,,,,,,,,,,,,,,,,,,,,,,,,,,,,,,,,,,,,,,,,,,,,,,,,,,,,,,,,,,,,,
,,,,,,60fabe7bd32b2ed831d38885,62c53877d6dd7e51736dafa2,2022-07-06_09h24.34.906,Colour_Asymmetry_Pilot,2022.1.3,Win32,60.38647343,62c50e9c1127f2cd403a315f,0,42,42,122,1,twoone,,,,,,,,,,,,,,,,,,,,,,,,,,,,,,,,,,,,,,,,,,,,,,,,,,,,,,,,,,,,,,,,,,,,,,,,,,,,,,,,,,,,,,,,,,,,,,,,,,,,,,,,,,,,,,,,,,,,,,,,,,,,,,,,,,,,,,,,,,,,,,,,,,,,,,,,,,,,,
,,,,,,60fabe7bd32b2ed831d38885,62c53877d6dd7e51736dafa2,2022-07-06_09h24.34.906,Colour_Asymmetry_Pilot,2022.1.3,Win32,60.38647343,62c50e9c1127f2cd403a315f,0,43,43,113,1,onethree,,,,,,,,,,,,,,,,,,,,,,,,,,,,,,,,,,,,,,,,,,,,,,,,,,,,,,,,,,,,,,,,,,,,,,,,,,,,,,,,,,,,,,,,,,,,,,,,,,,,,,,,,,,,,,,,,,,,,,,,,,,,,,,,,,,,,,,,,,,,,,,,,,,,,,,,,,,,,
,,,,,,60fabe7bd32b2ed831d38885,62c53877d6dd7e51736dafa2,2022-07-06_09h24.34.906,Colour_Asymmetry_Pilot,2022.1.3,Win32,60.38647343,62c50e9c1127f2cd403a315f,0,44,44,100,1,threeone,,,,,,,,,,,,,,,,,,,,,,,,,,,,,,,,,,,,,,,,,,,,,,,,,,,,,,,,,,,,,,,,,,,,,,,,,,,,,,,,,,,,,,,,,,,,,,,,,,,,,,,,,,,,,,,,,,,,,,,,,,,,,,,,,,,,,,,,,,,,,,,,,,,,,,,,,,,,,
,,,,,,60fabe7bd32b2ed831d38885,62c53877d6dd7e51736dafa2,2022-07-06_09h24.34.906,Colour_Asymmetry_Pilot,2022.1.3,Win32,60.38647343,62c50e9c1127f2cd403a315f,0,45,45,81,1,onethree,,,,,,,,,,,,,,,,,,,,,,,,,,,,,,,,,,,,,,,,,,,,,,,,,,,,,,,,,,,,,,,,,,,,,,,,,,,,,,,,,,,,,,,,,,,,,,,,,,,,,,,,,,,,,,,,,,,,,,,,,,,,,,,,,,,,,,,,,,,,,,,,,,,,,,,,,,,,,
,,,,,,60fabe7bd32b2ed831d38885,62c53877d6dd7e51736dafa2,2022-07-06_09h24.34.906,Colour_Asymmetry_Pilot,2022.1.3,Win32,60.38647343,62c50e9c1127f2cd403a315f,0,46,46,154,1,twoone,,,,,,,,,,,,,,,,,,,,,,,,,,,,,,,,,,,,,,,,,,,,,,,,,,,,,,,,,,,,,,,,,,,,,,,,,,,,,,,,,,,,,,,,,,,,,,,,,,,,,,,,,,,,,,,,,,,,,,,,,,,,,,,,,,,,,,,,,,,,,,,,,,,,,,,,,,,,,
,,,,,,60fabe7bd32b2ed831d38885,62c53877d6dd7e51736dafa2,2022-07-06_09h24.34.906,Colour_Asymmetry_Pilot,2022.1.3,Win32,60.38647343,62c50e9c1127f2cd403a315f,0,47,47,62,1,fourtwo,,,,,,,,,,,,,,,,,,,,,,,,,,,,,,,,,,,,,,,,,,,,,,,,,,,,,,,,,,,,,,,,,,,,,,,,,,,,,,,,,,,,,,,,,,,,,,,,,,,,,,,,,,,,,,,,,,,,,,,,,,,,,,,,,,,,,,,,,,,,,,,,,,,,,,,,,,,,,
,,,,,,60fabe7bd32b2ed831d38885,62c53877d6dd7e51736dafa2,2022-07-06_09h24.34.906,Colour_Asymmetry_Pilot,2022.1.3,Win32,60.38647343,62c50e9c1127f2cd403a315f,0,48,48,90,1,twoone,,,,,,,,,,,,,,,,,,,,,,,,,,,,,,,,,,,,,,,,,,,,,,,,,,,,,,,,,,,,,,,,,,,,,,,,,,,,,,,,,,,,,,,,,,,,,,,,,,,,,,,,,,,,,,,,,,,,,,,,,,,,,,,,,,,,,,,,,,,,,,,,,,,,,,,,,,,,,
,,,,,,60fabe7bd32b2ed831d38885,62c53877d6dd7e51736dafa2,2022-07-06_09h24.34.906,Colour_Asymmetry_Pilot,2022.1.3,Win32,60.38647343,62c50e9c1127f2cd403a315f,0,49,49,15,1,fourthree,,,,,,,,,,,,,,,,,,,,,,,,,,,,,,,,,,,,,,,,,,,,,,,,,,,,,,,,,,,,,,,,,,,,,,,,,,,,,,,,,,,,,,,,,,,,,,,,,,,,,,,,,,,,,,,,,,,,,,,,,,,,,,,,,,,,,,,,,,,,,,,,,,,,,,,,,,,,,
,,,,,,60fabe7bd32b2ed831d38885,62c53877d6dd7e51736dafa2,2022-07-06_09h24.34.906,Colour_Asymmetry_Pilot,2022.1.3,Win32,60.38647343,62c50e9c1127f2cd403a315f,0,50,50,94,1,fourtwo,,,,,,,,,,,,,,,,,,,,,,,,,,,,,,,,,,,,,,,,,,,,,,,,,,,,,,,,,,,,,,,,,,,,,,,,,,,,,,,,,,,,,,,,,,,,,,,,,,,,,,,,,,,,,,,,,,,,,,,,,,,,,,,,,,,,,,,,,,,,,,,,,,,,,,,,,,,,,
,,,,,,60fabe7bd32b2ed831d38885,62c53877d6dd7e51736dafa2,2022-07-06_09h24.34.906,Colour_Asymmetry_Pilot,2022.1.3,Win32,60.38647343,62c50e9c1127f2cd403a315f,0,51,51,86,1,fourtwo,,,,,,,,,,,,,,,,,,,,,,,,,,,,,,,,,,,,,,,,,,,,,,,,,,,,,,,,,,,,,,,,,,,,,,,,,,,,,,,,,,,,,,,,,,,,,,,,,,,,,,,,,,,,,,,,,,,,,,,,,,,,,,,,,,,,,,,,,,,,,,,,,,,,,,,,,,,,,
,,,,,,60fabe7bd32b2ed831d38885,62c53877d6dd7e51736dafa2,2022-07-06_09h24.34.906,Colour_Asymmetry_Pilot,2022.1.3,Win32,60.38647343,62c50e9c1127f2cd403a315f,0,52,52,39,1,fourthree,,,,,,,,,,,,,,,,,,,,,,,,,,,,,,,,,,,,,,,,,,,,,,,,,,,,,,,,,,,,,,,,,,,,,,,,,,,,,,,,,,,,,,,,,,,,,,,,,,,,,,,,,,,,,,,,,,,,,,,,,,,,,,,,,,,,,,,,,,,,,,,,,,,,,,,,,,,,,
,,,,,,60fabe7bd32b2ed831d38885,62c53877d6dd7e51736dafa2,2022-07-06_09h24.34.906,Colour_Asymmetry_Pilot,2022.1.3,Win32,60.38647343,62c50e9c1127f2cd403a315f,0,53,53,30,1,fourtwo,,,,,,,,,,,,,,,,,,,,,,,,,,,,,,,,,,,,,,,,,,,,,,,,,,,,,,,,,,,,,,,,,,,,,,,,,,,,,,,,,,,,,,,,,,,,,,,,,,,,,,,,,,,,,,,,,,,,,,,,,,,,,,,,,,,,,,,,,,,,,,,,,,,,,,,,,,,,,
,,,,,,60fabe7bd32b2ed831d38885,62c53877d6dd7e51736dafa2,2022-07-06_09h24.34.906,Colour_Asymmetry_Pilot,2022.1.3,Win32,60.38647343,62c50e9c1127f2cd403a315f,0,54,54,44,1,threeone,,,,,,,,,,,,,,,,,,,,,,,,,,,,,,,,,,,,,,,,,,,,,,,,,,,,,,,,,,,,,,,,,,,,,,,,,,,,,,,,,,,,,,,,,,,,,,,,,,,,,,,,,,,,,,,,,,,,,,,,,,,,,,,,,,,,,,,,,,,,,,,,,,,,,,,,,,,,,
,,,,,,60fabe7bd32b2ed831d38885,62c53877d6dd7e51736dafa2,2022-07-06_09h24.34.906,Colour_Asymmetry_Pilot,2022.1.3,Win32,60.38647343,62c50e9c1127f2cd403a315f,0,55,55,152,1,onetwo,,,,,,,,,,,,,,,,,,,,,,,,,,,,,,,,,,,,,,,,,,,,,,,,,,,,,,,,,,,,,,,,,,,,,,,,,,,,,,,,,,,,,,,,,,,,,,,,,,,,,,,,,,,,,,,,,,,,,,,,,,,,,,,,,,,,,,,,,,,,,,,,,,,,,,,,,,,,,
,,,,,,60fabe7bd32b2ed831d38885,62c53877d6dd7e51736dafa2,2022-07-06_09h24.34.906,Colour_Asymmetry_Pilot,2022.1.3,Win32,60.38647343,62c50e9c1127f2cd403a315f,0,56,56,26,1,twoone,,,,,,,,,,,,,,,,,,,,,,,,,,,,,,,,,,,,,,,,,,,,,,,,,,,,,,,,,,,,,,,,,,,,,,,,,,,,,,,,,,,,,,,,,,,,,,,,,,,,,,,,,,,,,,,,,,,,,,,,,,,,,,,,,,,,,,,,,,,,,,,,,,,,,,,,,,,,,
,,,,,,60fabe7bd32b2ed831d38885,62c53877d6dd7e51736dafa2,2022-07-06_09h24.34.906,Colour_Asymmetry_Pilot,2022.1.3,Win32,60.38647343,62c50e9c1127f2cd403a315f,0,57,57,21,1,threefour,,,,,,,,,,,,,,,,,,,,,,,,,,,,,,,,,,,,,,,,,,,,,,,,,,,,,,,,,,,,,,,,,,,,,,,,,,,,,,,,,,,,,,,,,,,,,,,,,,,,,,,,,,,,,,,,,,,,,,,,,,,,,,,,,,,,,,,,,,,,,,,,,,,,,,,,,,,,,
,,,,,,60fabe7bd32b2ed831d38885,62c53877d6dd7e51736dafa2,2022-07-06_09h24.34.906,Colour_Asymmetry_Pilot,2022.1.3,Win32,60.38647343,62c50e9c1127f2cd403a315f,0,58,58,161,1,onethree,,,,,,,,,,,,,,,,,,,,,,,,,,,,,,,,,,,,,,,,,,,,,,,,,,,,,,,,,,,,,,,,,,,,,,,,,,,,,,,,,,,,,,,,,,,,,,,,,,,,,,,,,,,,,,,,,,,,,,,,,,,,,,,,,,,,,,,,,,,,,,,,,,,,,,,,,,,,,
,,,,,,60fabe7bd32b2ed831d38885,62c53877d6dd7e51736dafa2,2022-07-06_09h24.34.906,Colour_Asymmetry_Pilot,2022.1.3,Win32,60.38647343,62c50e9c1127f2cd403a315f,0,59,59,56,1,onetwo,,,,,,,,,,,,,,,,,,,,,,,,,,,,,,,,,,,,,,,,,,,,,,,,,,,,,,,,,,,,,,,,,,,,,,,,,,,,,,,,,,,,,,,,,,,,,,,,,,,,,,,,,,,,,,,,,,,,,,,,,,,,,,,,,,,,,,,,,,,,,,,,,,,,,,,,,,,,,
,,,,,,60fabe7bd32b2ed831d38885,62c53877d6dd7e51736dafa2,2022-07-06_09h24.34.906,Colour_Asymmetry_Pilot,2022.1.3,Win32,60.38647343,62c50e9c1127f2cd403a315f,0,60,60,13,1,threefour,,,,,,,,,,,,,,,,,,,,,,,,,,,,,,,,,,,,,,,,,,,,,,,,,,,,,,,,,,,,,,,,,,,,,,,,,,,,,,,,,,,,,,,,,,,,,,,,,,,,,,,,,,,,,,,,,,,,,,,,,,,,,,,,,,,,,,,,,,,,,,,,,,,,,,,,,,,,,
,,,,,,60fabe7bd32b2ed831d38885,62c53877d6dd7e51736dafa2,2022-07-06_09h24.34.906,Colour_Asymmetry_Pilot,2022.1.3,Win32,60.38647343,62c50e9c1127f2cd403a315f,0,61,61,78,1,fourtwo,,,,,,,,,,,,,,,,,,,,,,,,,,,,,,,,,,,,,,,,,,,,,,,,,,,,,,,,,,,,,,,,,,,,,,,,,,,,,,,,,,,,,,,,,,,,,,,,,,,,,,,,,,,,,,,,,,,,,,,,,,,,,,,,,,,,,,,,,,,,,,,,,,,,,,,,,,,,,
,,,,,,60fabe7bd32b2ed831d38885,62c53877d6dd7e51736dafa2,2022-07-06_09h24.34.906,Colour_Asymmetry_Pilot,2022.1.3,Win32,60.38647343,62c50e9c1127f2cd403a315f,0,62,62,12,1,threeone,,,,,,,,,,,,,,,,,,,,,,,,,,,,,,,,,,,,,,,,,,,,,,,,,,,,,,,,,,,,,,,,,,,,,,,,,,,,,,,,,,,,,,,,,,,,,,,,,,,,,,,,,,,,,,,,,,,,,,,,,,,,,,,,,,,,,,,,,,,,,,,,,,,,,,,,,,,,,
,,,,,,60fabe7bd32b2ed831d38885,62c53877d6dd7e51736dafa2,2022-07-06_09h24.34.906,Colour_Asymmetry_Pilot,2022.1.3,Win32,60.38647343,62c50e9c1127f2cd403a315f,0,63,63,52,1,threeone,,,,,,,,,,,,,,,,,,,,,,,,,,,,,,,,,,,,,,,,,,,,,,,,,,,,,,,,,,,,,,,,,,,,,,,,,,,,,,,,,,,,,,,,,,,,,,,,,,,,,,,,,,,,,,,,,,,,,,,,,,,,,,,,,,,,,,,,,,,,,,,,,,,,,,,,,,,,,
,,,,,,60fabe7bd32b2ed831d38885,62c53877d6dd7e51736dafa2,2022-07-06_09h24.34.906,Colour_Asymmetry_Pilot,2022.1.3,Win32,60.38647343,62c50e9c1127f2cd403a315f,0,64,64,32,1,onetwo,,,,,,,,,,,,,,,,,,,,,,,,,,,,,,,,,,,,,,,,,,,,,,,,,,,,,,,,,,,,,,,,,,,,,,,,,,,,,,,,,,,,,,,,,,,,,,,,,,,,,,,,,,,,,,,,,,,,,,,,,,,,,,,,,,,,,,,,,,,,,,,,,,,,,,,,,,,,,
,,,,,,60fabe7bd32b2ed831d38885,62c53877d6dd7e51736dafa2,2022-07-06_09h24.34.906,Colour_Asymmetry_Pilot,2022.1.3,Win32,60.38647343,62c50e9c1127f2cd403a315f,0,65,65,85,1,threefour,,,,,,,,,,,,,,,,,,,,,,,,,,,,,,,,,,,,,,,,,,,,,,,,,,,,,,,,,,,,,,,,,,,,,,,,,,,,,,,,,,,,,,,,,,,,,,,,,,,,,,,,,,,,,,,,,,,,,,,,,,,,,,,,,,,,,,,,,,,,,,,,,,,,,,,,,,,,,
,,,,,,60fabe7bd32b2ed831d38885,62c53877d6dd7e51736dafa2,2022-07-06_09h24.34.906,Colour_Asymmetry_Pilot,2022.1.3,Win32,60.38647343,62c50e9c1127f2cd403a315f,0,66,66,110,1,fourtwo,,,,,,,,,,,,,,,,,,,,,,,,,,,,,,,,,,,,,,,,,,,,,,,,,,,,,,,,,,,,,,,,,,,,,,,,,,,,,,,,,,,,,,,,,,,,,,,,,,,,,,,,,,,,,,,,,,,,,,,,,,,,,,,,,,,,,,,,,,,,,,,,,,,,,,,,,,,,,
,,,,,,60fabe7bd32b2ed831d38885,62c53877d6dd7e51736dafa2,2022-07-06_09h24.34.906,Colour_Asymmetry_Pilot,2022.1.3,Win32,60.38647343,62c50e9c1127f2cd403a315f,0,67,67,53,1,threefour,,,,,,,,,,,,,,,,,,,,,,,,,,,,,,,,,,,,,,,,,,,,,,,,,,,,,,,,,,,,,,,,,,,,,,,,,,,,,,,,,,,,,,,,,,,,,,,,,,,,,,,,,,,,,,,,,,,,,,,,,,,,,,,,,,,,,,,,,,,,,,,,,,,,,,,,,,,,,
,,,,,,60fabe7bd32b2ed831d38885,62c53877d6dd7e51736dafa2,2022-07-06_09h24.34.906,Colour_Asymmetry_Pilot,2022.1.3,Win32,60.38647343,62c50e9c1127f2cd403a315f,0,68,68,64,1,onetwo,,,,,,,,,,,,,,,,,,,,,,,,,,,,,,,,,,,,,,,,,,,,,,,,,,,,,,,,,,,,,,,,,,,,,,,,,,,,,,,,,,,,,,,,,,,,,,,,,,,,,,,,,,,,,,,,,,,,,,,,,,,,,,,,,,,,,,,,,,,,,,,,,,,,,,,,,,,,,
,,,,,,60fabe7bd32b2ed831d38885,62c53877d6dd7e51736dafa2,2022-07-06_09h24.34.906,Colour_Asymmetry_Pilot,2022.1.3,Win32,60.38647343,62c50e9c1127f2cd403a315f,0,69,69,112,1,onetwo,,,,,,,,,,,,,,,,,,,,,,,,,,,,,,,,,,,,,,,,,,,,,,,,,,,,,,,,,,,,,,,,,,,,,,,,,,,,,,,,,,,,,,,,,,,,,,,,,,,,,,,,,,,,,,,,,,,,,,,,,,,,,,,,,,,,,,,,,,,,,,,,,,,,,,,,,,,,,
,,,,,,60fabe7bd32b2ed831d38885,62c53877d6dd7e51736dafa2,2022-07-06_09h24.34.906,Colour_Asymmetry_Pilot,2022.1.3,Win32,60.38647343,62c50e9c1127f2cd403a315f,0,70,70,140,1,threeone,,,,,,,,,,,,,,,,,,,,,,,,,,,,,,,,,,,,,,,,,,,,,,,,,,,,,,,,,,,,,,,,,,,,,,,,,,,,,,,,,,,,,,,,,,,,,,,,,,,,,,,,,,,,,,,,,,,,,,,,,,,,,,,,,,,,,,,,,,,,,,,,,,,,,,,,,,,,,
,,,,,,60fabe7bd32b2ed831d38885,62c53877d6dd7e51736dafa2,2022-07-06_09h24.34.906,Colour_Asymmetry_Pilot,2022.1.3,Win32,60.38647343,62c50e9c1127f2cd403a315f,0,71,71,88,1,onetwo,,,,,,,,,,,,,,,,,,,,,,,,,,,,,,,,,,,,,,,,,,,,,,,,,,,,,,,,,,,,,,,,,,,,,,,,,,,,,,,,,,,,,,,,,,,,,,,,,,,,,,,,,,,,,,,,,,,,,,,,,,,,,,,,,,,,,,,,,,,,,,,,,,,,,,,,,,,,,
,,,,,,60fabe7bd32b2ed831d38885,62c53877d6dd7e51736dafa2,2022-07-06_09h24.34.906,Colour_Asymmetry_Pilot,2022.1.3,Win32,60.38647343,62c50e9c1127f2cd403a315f,0,72,72,89,1,onethree,,,,,,,,,,,,,,,,,,,,,,,,,,,,,,,,,,,,,,,,,,,,,,,,,,,,,,,,,,,,,,,,,,,,,,,,,,,,,,,,,,,,,,,,,,,,,,,,,,,,,,,,,,,,,,,,,,,,,,,,,,,,,,,,,,,,,,,,,,,,,,,,,,,,,,,,,,,,,
,,,,,,60fabe7bd32b2ed831d38885,62c53877d6dd7e51736dafa2,2022-07-06_09h24.34.906,Colour_Asymmetry_Pilot,2022.1.3,Win32,60.38647343,62c50e9c1127f2cd403a315f,0,73,73,34,1,twoone,,,,,,,,,,,,,,,,,,,,,,,,,,,,,,,,,,,,,,,,,,,,,,,,,,,,,,,,,,,,,,,,,,,,,,,,,,,,,,,,,,,,,,,,,,,,,,,,,,,,,,,,,,,,,,,,,,,,,,,,,,,,,,,,,,,,,,,,,,,,,,,,,,,,,,,,,,,,,
,,,,,,60fabe7bd32b2ed831d38885,62c53877d6dd7e51736dafa2,2022-07-06_09h24.34.906,Colour_Asymmetry_Pilot,2022.1.3,Win32,60.38647343,62c50e9c1127f2cd403a315f,0,74,74,99,1,twofour,,,,,,,,,,,,,,,,,,,,,,,,,,,,,,,,,,,,,,,,,,,,,,,,,,,,,,,,,,,,,,,,,,,,,,,,,,,,,,,,,,,,,,,,,,,,,,,,,,,,,,,,,,,,,,,,,,,,,,,,,,,,,,,,,,,,,,,,,,,,,,,,,,,,,,,,,,,,,
,,,,,,60fabe7bd32b2ed831d38885,62c53877d6dd7e51736dafa2,2022-07-06_09h24.34.906,Colour_Asymmetry_Pilot,2022.1.3,Win32,60.38647343,62c50e9c1127f2cd403a315f,0,75,75,17,1,onethree,,,,,,,,,,,,,,,,,,,,,,,,,,,,,,,,,,,,,,,,,,,,,,,,,,,,,,,,,,,,,,,,,,,,,,,,,,,,,,,,,,,,,,,,,,,,,,,,,,,,,,,,,,,,,,,,,,,,,,,,,,,,,,,,,,,,,,,,,,,,,,,,,,,,,,,,,,,,,
,,,,,,60fabe7bd32b2ed831d38885,62c53877d6dd7e51736dafa2,2022-07-06_09h24.34.906,Colour_Asymmetry_Pilot,2022.1.3,Win32,60.38647343,62c50e9c1127f2cd403a315f,0,76,76,114,1,twoone,,,,,,,,,,,,,,,,,,,,,,,,,,,,,,,,,,,,,,,,,,,,,,,,,,,,,,,,,,,,,,,,,,,,,,,,,,,,,,,,,,,,,,,,,,,,,,,,,,,,,,,,,,,,,,,,,,,,,,,,,,,,,,,,,,,,,,,,,,,,,,,,,,,,,,,,,,,,,
,,,,,,60fabe7bd32b2ed831d38885,62c53877d6dd7e51736dafa2,2022-07-06_09h24.34.906,Colour_Asymmetry_Pilot,2022.1.3,Win32,60.38647343,62c50e9c1127f2cd403a315f,0,77,77,9,1,onethree,,,,,,,,,,,,,,,,,,,,,,,,,,,,,,,,,,,,,,,,,,,,,,,,,,,,,,,,,,,,,,,,,,,,,,,,,,,,,,,,,,,,,,,,,,,,,,,,,,,,,,,,,,,,,,,,,,,,,,,,,,,,,,,,,,,,,,,,,,,,,,,,,,,,,,,,,,,,,
,,,,,,60fabe7bd32b2ed831d38885,62c53877d6dd7e51736dafa2,2022-07-06_09h24.34.906,Colour_Asymmetry_Pilot,2022.1.3,Win32,60.38647343,62c50e9c1127f2cd403a315f,0,78,78,153,1,onethree,,,,,,,,,,,,,,,,,,,,,,,,,,,,,,,,,,,,,,,,,,,,,,,,,,,,,,,,,,,,,,,,,,,,,,,,,,,,,,,,,,,,,,,,,,,,,,,,,,,,,,,,,,,,,,,,,,,,,,,,,,,,,,,,,,,,,,,,,,,,,,,,,,,,,,,,,,,,,
,,,,,,60fabe7bd32b2ed831d38885,62c53877d6dd7e51736dafa2,2022-07-06_09h24.34.906,Colour_Asymmetry_Pilot,2022.1.3,Win32,60.38647343,62c50e9c1127f2cd403a315f,0,79,79,101,1,threefour,,,,,,,,,,,,,,,,,,,,,,,,,,,,,,,,,,,,,,,,,,,,,,,,,,,,,,,,,,,,,,,,,,,,,,,,,,,,,,,,,,,,,,,,,,,,,,,,,,,,,,,,,,,,,,,,,,,,,,,,,,,,,,,,,,,,,,,,,,,,,,,,,,,,,,,,,,,,,
,,,,,,60fabe7bd32b2ed831d38885,62c53877d6dd7e51736dafa2,2022-07-06_09h24.34.906,Colour_Asymmetry_Pilot,2022.1.3,Win32,60.38647343,62c50e9c1127f2cd403a315f,0,80,80,82,1,twoone,,,,,,,,,,,,,,,,,,,,,,,,,,,,,,,,,,,,,,,,,,,,,,,,,,,,,,,,,,,,,,,,,,,,,,,,,,,,,,,,,,,,,,,,,,,,,,,,,,,,,,,,,,,,,,,,,,,,,,,,,,,,,,,,,,,,,,,,,,,,,,,,,,,,,,,,,,,,,
,,,,,,60fabe7bd32b2ed831d38885,62c53877d6dd7e51736dafa2,2022-07-06_09h24.34.906,Colour_Asymmetry_Pilot,2022.1.3,Win32,60.38647343,62c50e9c1127f2cd403a315f,0,81,81,29,1,threefour,,,,,,,,,,,,,,,,,,,,,,,,,,,,,,,,,,,,,,,,,,,,,,,,,,,,,,,,,,,,,,,,,,,,,,,,,,,,,,,,,,,,,,,,,,,,,,,,,,,,,,,,,,,,,,,,,,,,,,,,,,,,,,,,,,,,,,,,,,,,,,,,,,,,,,,,,,,,,
,,,,,,60fabe7bd32b2ed831d38885,62c53877d6dd7e51736dafa2,2022-07-06_09h24.34.906,Colour_Asymmetry_Pilot,2022.1.3,Win32,60.38647343,62c50e9c1127f2cd403a315f,0,82,82,138,1,twoone,,,,,,,,,,,,,,,,,,,,,,,,,,,,,,,,,,,,,,,,,,,,,,,,,,,,,,,,,,,,,,,,,,,,,,,,,,,,,,,,,,,,,,,,,,,,,,,,,,,,,,,,,,,,,,,,,,,,,,,,,,,,,,,,,,,,,,,,,,,,,,,,,,,,,,,,,,,,,
,,,,,,60fabe7bd32b2ed831d38885,62c53877d6dd7e51736dafa2,2022-07-06_09h24.34.906,Colour_Asymmetry_Pilot,2022.1.3,Win32,60.38647343,62c50e9c1127f2cd403a315f,0,83,83,87,1,fourthree,,,,,,,,,,,,,,,,,,,,,,,,,,,,,,,,,,,,,,,,,,,,,,,,,,,,,,,,,,,,,,,,,,,,,,,,,,,,,,,,,,,,,,,,,,,,,,,,,,,,,,,,,,,,,,,,,,,,,,,,,,,,,,,,,,,,,,,,,,,,,,,,,,,,,,,,,,,,,
,,,,,,60fabe7bd32b2ed831d38885,62c53877d6dd7e51736dafa2,2022-07-06_09h24.34.906,Colour_Asymmetry_Pilot,2022.1.3,Win32,60.38647343,62c50e9c1127f2cd403a315f,0,84,84,116,1,threeone,,,,,,,,,,,,,,,,,,,,,,,,,,,,,,,,,,,,,,,,,,,,,,,,,,,,,,,,,,,,,,,,,,,,,,,,,,,,,,,,,,,,,,,,,,,,,,,,,,,,,,,,,,,,,,,,,,,,,,,,,,,,,,,,,,,,,,,,,,,,,,,,,,,,,,,,,,,,,
,,,,,,60fabe7bd32b2ed831d38885,62c53877d6dd7e51736dafa2,2022-07-06_09h24.34.906,Colour_Asymmetry_Pilot,2022.1.3,Win32,60.38647343,62c50e9c1127f2cd403a315f,0,85,85,96,1,onetwo,,,,,,,,,,,,,,,,,,,,,,,,,,,,,,,,,,,,,,,,,,,,,,,,,,,,,,,,,,,,,,,,,,,,,,,,,,,,,,,,,,,,,,,,,,,,,,,,,,,,,,,,,,,,,,,,,,,,,,,,,,,,,,,,,,,,,,,,,,,,,,,,,,,,,,,,,,,,,
,,,,,,60fabe7bd32b2ed831d38885,62c53877d6dd7e51736dafa2,2022-07-06_09h24.34.906,Colour_Asymmetry_Pilot,2022.1.3,Win32,60.38647343,62c50e9c1127f2cd403a315f,0,86,86,128,1,onetwo,,,,,,,,,,,,,,,,,,,,,,,,,,,,,,,,,,,,,,,,,,,,,,,,,,,,,,,,,,,,,,,,,,,,,,,,,,,,,,,,,,,,,,,,,,,,,,,,,,,,,,,,,,,,,,,,,,,,,,,,,,,,,,,,,,,,,,,,,,,,,,,,,,,,,,,,,,,,,
,,,,,,60fabe7bd32b2ed831d38885,62c53877d6dd7e51736dafa2,2022-07-06_09h24.34.906,Colour_Asymmetry_Pilot,2022.1.3,Win32,60.38647343,62c50e9c1127f2cd403a315f,0,87,87,130,1,twoone,,,,,,,,,,,,,,,,,,,,,,,,,,,,,,,,,,,,,,,,,,,,,,,,,,,,,,,,,,,,,,,,,,,,,,,,,,,,,,,,,,,,,,,,,,,,,,,,,,,,,,,,,,,,,,,,,,,,,,,,,,,,,,,,,,,,,,,,,,,,,,,,,,,,,,,,,,,,,
,,,,,,60fabe7bd32b2ed831d38885,62c53877d6dd7e51736dafa2,2022-07-06_09h24.34.906,Colour_Asymmetry_Pilot,2022.1.3,Win32,60.38647343,62c50e9c1127f2cd403a315f,0,88,88,25,1,onethree,,,,,,,,,,,,,,,,,,,,,,,,,,,,,,,,,,,,,,,,,,,,,,,,,,,,,,,,,,,,,,,,,,,,,,,,,,,,,,,,,,,,,,,,,,,,,,,,,,,,,,,,,,,,,,,,,,,,,,,,,,,,,,,,,,,,,,,,,,,,,,,,,,,,,,,,,,,,,
,,,,,,60fabe7bd32b2ed831d38885,62c53877d6dd7e51736dafa2,2022-07-06_09h24.34.906,Colour_Asymmetry_Pilot,2022.1.3,Win32,60.38647343,62c50e9c1127f2cd403a315f,0,89,89,23,1,fourthree,,,,,,,,,,,,,,,,,,,,,,,,,,,,,,,,,,,,,,,,,,,,,,,,,,,,,,,,,,,,,,,,,,,,,,,,,,,,,,,,,,,,,,,,,,,,,,,,,,,,,,,,,,,,,,,,,,,,,,,,,,,,,,,,,,,,,,,,,,,,,,,,,,,,,,,,,,,,,
,,,,,,60fabe7bd32b2ed831d38885,62c53877d6dd7e51736dafa2,2022-07-06_09h24.34.906,Colour_Asymmetry_Pilot,2022.1.3,Win32,60.38647343,62c50e9c1127f2cd403a315f,0,90,90,60,1,threeone,,,,,,,,,,,,,,,,,,,,,,,,,,,,,,,,,,,,,,,,,,,,,,,,,,,,,,,,,,,,,,,,,,,,,,,,,,,,,,,,,,,,,,,,,,,,,,,,,,,,,,,,,,,,,,,,,,,,,,,,,,,,,,,,,,,,,,,,,,,,,,,,,,,,,,,,,,,,,
,,,,,,60fabe7bd32b2ed831d38885,62c53877d6dd7e51736dafa2,2022-07-06_09h24.34.906,Colour_Asymmetry_Pilot,2022.1.3,Win32,60.38647343,62c50e9c1127f2cd403a315f,0,91,91,19,1,twofour,,,,,,,,,,,,,,,,,,,,,,,,,,,,,,,,,,,,,,,,,,,,,,,,,,,,,,,,,,,,,,,,,,,,,,,,,,,,,,,,,,,,,,,,,,,,,,,,,,,,,,,,,,,,,,,,,,,,,,,,,,,,,,,,,,,,,,,,,,,,,,,,,,,,,,,,,,,,,
,,,,,,60fabe7bd32b2ed831d38885,62c53877d6dd7e51736dafa2,2022-07-06_09h24.34.906,Colour_Asymmetry_Pilot,2022.1.3,Win32,60.38647343,62c50e9c1127f2cd403a315f,0,92,92,98,1,twoone,,,,,,,,,,,,,,,,,,,,,,,,,,,,,,,,,,,,,,,,,,,,,,,,,,,,,,,,,,,,,,,,,,,,,,,,,,,,,,,,,,,,,,,,,,,,,,,,,,,,,,,,,,,,,,,,,,,,,,,,,,,,,,,,,,,,,,,,,,,,,,,,,,,,,,,,,,,,,
,,,,,,60fabe7bd32b2ed831d38885,62c53877d6dd7e51736dafa2,2022-07-06_09h24.34.906,Colour_Asymmetry_Pilot,2022.1.3,Win32,60.38647343,62c50e9c1127f2cd403a315f,0,93,93,7,1,fourthree,,,,,,,,,,,,,,,,,,,,,,,,,,,,,,,,,,,,,,,,,,,,,,,,,,,,,,,,,,,,,,,,,,,,,,,,,,,,,,,,,,,,,,,,,,,,,,,,,,,,,,,,,,,,,,,,,,,,,,,,,,,,,,,,,,,,,,,,,,,,,,,,,,,,,,,,,,,,,
,,,,,,60fabe7bd32b2ed831d38885,62c53877d6dd7e51736dafa2,2022-07-06_09h24.34.906,Colour_Asymmetry_Pilot,2022.1.3,Win32,60.38647343,62c50e9c1127f2cd403a315f,0,94,94,103,1,fourthree,,,,,,,,,,,,,,,,,,,,,,,,,,,,,,,,,,,,,,,,,,,,,,,,,,,,,,,,,,,,,,,,,,,,,,,,,,,,,,,,,,,,,,,,,,,,,,,,,,,,,,,,,,,,,,,,,,,,,,,,,,,,,,,,,,,,,,,,,,,,,,,,,,,,,,,,,,,,,
,,,,,,60fabe7bd32b2ed831d38885,62c53877d6dd7e51736dafa2,2022-07-06_09h24.34.906,Colour_Asymmetry_Pilot,2022.1.3,Win32,60.38647343,62c50e9c1127f2cd403a315f,0,95,95,111,1,fourthree,,,,,,,,,,,,,,,,,,,,,,,,,,,,,,,,,,,,,,,,,,,,,,,,,,,,,,,,,,,,,,,,,,,,,,,,,,,,,,,,,,,,,,,,,,,,,,,,,,,,,,,,,,,,,,,,,,,,,,,,,,,,,,,,,,,,,,,,,,,,,,,,,,,,,,,,,,,,,
,,,,,,60fabe7bd32b2ed831d38885,62c53877d6dd7e51736dafa2,2022-07-06_09h24.34.906,Colour_Asymmetry_Pilot,2022.1.3,Win32,60.38647343,62c50e9c1127f2cd403a315f,0,96,96,131,1,twofour,,,,,,,,,,,,,,,,,,,,,,,,,,,,,,,,,,,,,,,,,,,,,,,,,,,,,,,,,,,,,,,,,,,,,,,,,,,,,,,,,,,,,,,,,,,,,,,,,,,,,,,,,,,,,,,,,,,,,,,,,,,,,,,,,,,,,,,,,,,,,,,,,,,,,,,,,,,,,
,,,,,,60fabe7bd32b2ed831d38885,62c53877d6dd7e51736dafa2,2022-07-06_09h24.34.906,Colour_Asymmetry_Pilot,2022.1.3,Win32,60.38647343,62c50e9c1127f2cd403a315f,0,97,97,133,1,threefour,,,,,,,,,,,,,,,,,,,,,,,,,,,,,,,,,,,,,,,,,,,,,,,,,,,,,,,,,,,,,,,,,,,,,,,,,,,,,,,,,,,,,,,,,,,,,,,,,,,,,,,,,,,,,,,,,,,,,,,,,,,,,,,,,,,,,,,,,,,,,,,,,,,,,,,,,,,,,
,,,,,,60fabe7bd32b2ed831d38885,62c53877d6dd7e51736dafa2,2022-07-06_09h24.34.906,Colour_Asymmetry_Pilot,2022.1.3,Win32,60.38647343,62c50e9c1127f2cd403a315f,0,98,98,54,1,fourtwo,,,,,,,,,,,,,,,,,,,,,,,,,,,,,,,,,,,,,,,,,,,,,,,,,,,,,,,,,,,,,,,,,,,,,,,,,,,,,,,,,,,,,,,,,,,,,,,,,,,,,,,,,,,,,,,,,,,,,,,,,,,,,,,,,,,,,,,,,,,,,,,,,,,,,,,,,,,,,
,,,,,,60fabe7bd32b2ed831d38885,62c53877d6dd7e51736dafa2,2022-07-06_09h24.34.906,Colour_Asymmetry_Pilot,2022.1.3,Win32,60.38647343,62c50e9c1127f2cd403a315f,0,99,99,58,1,twoone,,,,,,,,,,,,,,,,,,,,,,,,,,,,,,,,,,,,,,,,,,,,,,,,,,,,,,,,,,,,,,,,,,,,,,,,,,,,,,,,,,,,,,,,,,,,,,,,,,,,,,,,,,,,,,,,,,,,,,,,,,,,,,,,,,,,,,,,,,,,,,,,,,,,,,,,,,,,,
,,,,,,60fabe7bd32b2ed831d38885,62c53877d6dd7e51736dafa2,2022-07-06_09h24.34.906,Colour_Asymmetry_Pilot,2022.1.3,Win32,60.38647343,62c50e9c1127f2cd403a315f,0,100,100,68,1,threeone,,,,,,,,,,,,,,,,,,,,,,,,,,,,,,,,,,,,,,,,,,,,,,,,,,,,,,,,,,,,,,,,,,,,,,,,,,,,,,,,,,,,,,,,,,,,,,,,,,,,,,,,,,,,,,,,,,,,,,,,,,,,,,,,,,,,,,,,,,,,,,,,,,,,,,,,,,,,,
,,,,,,60fabe7bd32b2ed831d38885,62c53877d6dd7e51736dafa2,2022-07-06_09h24.34.906,Colour_Asymmetry_Pilot,2022.1.3,Win32,60.38647343,62c50e9c1127f2cd403a315f,0,101,101,55,1,fourthree,,,,,,,,,,,,,,,,,,,,,,,,,,,,,,,,,,,,,,,,,,,,,,,,,,,,,,,,,,,,,,,,,,,,,,,,,,,,,,,,,,,,,,,,,,,,,,,,,,,,,,,,,,,,,,,,,,,,,,,,,,,,,,,,,,,,,,,,,,,,,,,,,,,,,,,,,,,,,
,,,,,,60fabe7bd32b2ed831d38885,62c53877d6dd7e51736dafa2,2022-07-06_09h24.34.906,Colour_Asymmetry_Pilot,2022.1.3,Win32,60.38647343,62c50e9c1127f2cd403a315f,0,102,102,38,1,fourtwo,,,,,,,,,,,,,,,,,,,,,,,,,,,,,,,,,,,,,,,,,,,,,,,,,,,,,,,,,,,,,,,,,,,,,,,,,,,,,,,,,,,,,,,,,,,,,,,,,,,,,,,,,,,,,,,,,,,,,,,,,,,,,,,,,,,,,,,,,,,,,,,,,,,,,,,,,,,,,
,,,,,,60fabe7bd32b2ed831d38885,62c53877d6dd7e51736dafa2,2022-07-06_09h24.34.906,Colour_Asymmetry_Pilot,2022.1.3,Win32,60.38647343,62c50e9c1127f2cd403a315f,0,103,103,109,1,threefour,,,,,,,,,,,,,,,,,,,,,,,,,,,,,,,,,,,,,,,,,,,,,,,,,,,,,,,,,,,,,,,,,,,,,,,,,,,,,,,,,,,,,,,,,,,,,,,,,,,,,,,,,,,,,,,,,,,,,,,,,,,,,,,,,,,,,,,,,,,,,,,,,,,,,,,,,,,,,
,,,,,,60fabe7bd32b2ed831d38885,62c53877d6dd7e51736dafa2,2022-07-06_09h24.34.906,Colour_Asymmetry_Pilot,2022.1.3,Win32,60.38647343,62c50e9c1127f2cd403a315f,0,104,104,72,1,onetwo,,,,,,,,,,,,,,,,,,,,,,,,,,,,,,,,,,,,,,,,,,,,,,,,,,,,,,,,,,,,,,,,,,,,,,,,,,,,,,,,,,,,,,,,,,,,,,,,,,,,,,,,,,,,,,,,,,,,,,,,,,,,,,,,,,,,,,,,,,,,,,,,,,,,,,,,,,,,,
,,,,,,60fabe7bd32b2ed831d38885,62c53877d6dd7e51736dafa2,2022-07-06_09h24.34.906,Colour_Asymmetry_Pilot,2022.1.3,Win32,60.38647343,62c50e9c1127f2cd403a315f,0,105,105,70,1,fourtwo,,,,,,,,,,,,,,,,,,,,,,,,,,,,,,,,,,,,,,,,,,,,,,,,,,,,,,,,,,,,,,,,,,,,,,,,,,,,,,,,,,,,,,,,,,,,,,,,,,,,,,,,,,,,,,,,,,,,,,,,,,,,,,,,,,,,,,,,,,,,,,,,,,,,,,,,,,,,,
,,,,,,60fabe7bd32b2ed831d38885,62c53877d6dd7e51736dafa2,2022-07-06_09h24.34.906,Colour_Asymmetry_Pilot,2022.1.3,Win32,60.38647343,62c50e9c1127f2cd403a315f,0,106,106,124,1,threeone,,,,,,,,,,,,,,,,,,,,,,,,,,,,,,,,,,,,,,,,,,,,,,,,,,,,,,,,,,,,,,,,,,,,,,,,,,,,,,,,,,,,,,,,,,,,,,,,,,,,,,,,,,,,,,,,,,,,,,,,,,,,,,,,,,,,,,,,,,,,,,,,,,,,,,,,,,,,,
,,,,,,60fabe7bd32b2ed831d38885,62c53877d6dd7e51736dafa2,2022-07-06_09h24.34.906,Colour_Asymmetry_Pilot,2022.1.3,Win32,60.38647343,62c50e9c1127f2cd403a315f,0,107,107,91,1,twofour,,,,,,,,,,,,,,,,,,,,,,,,,,,,,,,,,,,,,,,,,,,,,,,,,,,,,,,,,,,,,,,,,,,,,,,,,,,,,,,,,,,,,,,,,,,,,,,,,,,,,,,,,,,,,,,,,,,,,,,,,,,,,,,,,,,,,,,,,,,,,,,,,,,,,,,,,,,,,
,,,,,,60fabe7bd32b2ed831d38885,62c53877d6dd7e51736dafa2,2022-07-06_09h24.34.906,Colour_Asymmetry_Pilot,2022.1.3,Win32,60.38647343,62c50e9c1127f2cd403a315f,0,108,108,2,1,twoone,,,,,,,,,,,,,,,,,,,,,,,,,,,,,,,,,,,,,,,,,,,,,,,,,,,,,,,,,,,,,,,,,,,,,,,,,,,,,,,,,,,,,,,,,,,,,,,,,,,,,,,,,,,,,,,,,,,,,,,,,,,,,,,,,,,,,,,,,,,,,,,,,,,,,,,,,,,,,
,,,,,,60fabe7bd32b2ed831d38885,62c53877d6dd7e51736dafa2,2022-07-06_09h24.34.906,Colour_Asymmetry_Pilot,2022.1.3,Win32,60.38647343,62c50e9c1127f2cd403a315f,0,109,109,155,1,twofour,,,,,,,,,,,,,,,,,,,,,,,,,,,,,,,,,,,,,,,,,,,,,,,,,,,,,,,,,,,,,,,,,,,,,,,,,,,,,,,,,,,,,,,,,,,,,,,,,,,,,,,,,,,,,,,,,,,,,,,,,,,,,,,,,,,,,,,,,,,,,,,,,,,,,,,,,,,,,
,,,,,,60fabe7bd32b2ed831d38885,62c53877d6dd7e51736dafa2,2022-07-06_09h24.34.906,Colour_Asymmetry_Pilot,2022.1.3,Win32,60.38647343,62c50e9c1127f2cd403a315f,0,110,110,67,1,twofour,,,,,,,,,,,,,,,,,,,,,,,,,,,,,,,,,,,,,,,,,,,,,,,,,,,,,,,,,,,,,,,,,,,,,,,,,,,,,,,,,,,,,,,,,,,,,,,,,,,,,,,,,,,,,,,,,,,,,,,,,,,,,,,,,,,,,,,,,,,,,,,,,,,,,,,,,,,,,
,,,,,,60fabe7bd32b2ed831d38885,62c53877d6dd7e51736dafa2,2022-07-06_09h24.34.906,Colour_Asymmetry_Pilot,2022.1.3,Win32,60.38647343,62c50e9c1127f2cd403a315f,0,111,111,92,1,threeone,,,,,,,,,,,,,,,,,,,,,,,,,,,,,,,,,,,,,,,,,,,,,,,,,,,,,,,,,,,,,,,,,,,,,,,,,,,,,,,,,,,,,,,,,,,,,,,,,,,,,,,,,,,,,,,,,,,,,,,,,,,,,,,,,,,,,,,,,,,,,,,,,,,,,,,,,,,,,
,,,,,,60fabe7bd32b2ed831d38885,62c53877d6dd7e51736dafa2,2022-07-06_09h24.34.906,Colour_Asymmetry_Pilot,2022.1.3,Win32,60.38647343,62c50e9c1127f2cd403a315f,0,112,112,71,1,fourthree,,,,,,,,,,,,,,,,,,,,,,,,,,,,,,,,,,,,,,,,,,,,,,,,,,,,,,,,,,,,,,,,,,,,,,,,,,,,,,,,,,,,,,,,,,,,,,,,,,,,,,,,,,,,,,,,,,,,,,,,,,,,,,,,,,,,,,,,,,,,,,,,,,,,,,,,,,,,,
,,,,,,60fabe7bd32b2ed831d38885,62c53877d6dd7e51736dafa2,2022-07-06_09h24.34.906,Colour_Asymmetry_Pilot,2022.1.3,Win32,60.38647343,62c50e9c1127f2cd403a315f,0,113,113,28,1,threeone,,,,,,,,,,,,,,,,,,,,,,,,,,,,,,,,,,,,,,,,,,,,,,,,,,,,,,,,,,,,,,,,,,,,,,,,,,,,,,,,,,,,,,,,,,,,,,,,,,,,,,,,,,,,,,,,,,,,,,,,,,,,,,,,,,,,,,,,,,,,,,,,,,,,,,,,,,,,,
,,,,,,60fabe7bd32b2ed831d38885,62c53877d6dd7e51736dafa2,2022-07-06_09h24.34.906,Colour_Asymmetry_Pilot,2022.1.3,Win32,60.38647343,62c50e9c1127f2cd403a315f,0,114,114,59,1,twofour,,,,,,,,,,,,,,,,,,,,,,,,,,,,,,,,,,,,,,,,,,,,,,,,,,,,,,,,,,,,,,,,,,,,,,,,,,,,,,,,,,,,,,,,,,,,,,,,,,,,,,,,,,,,,,,,,,,,,,,,,,,,,,,,,,,,,,,,,,,,,,,,,,,,,,,,,,,,,
,,,,,,60fabe7bd32b2ed831d38885,62c53877d6dd7e51736dafa2,2022-07-06_09h24.34.906,Colour_Asymmetry_Pilot,2022.1.3,Win32,60.38647343,62c50e9c1127f2cd403a315f,0,115,115,150,1,fourtwo,,,,,,,,,,,,,,,,,,,,,,,,,,,,,,,,,,,,,,,,,,,,,,,,,,,,,,,,,,,,,,,,,,,,,,,,,,,,,,,,,,,,,,,,,,,,,,,,,,,,,,,,,,,,,,,,,,,,,,,,,,,,,,,,,,,,,,,,,,,,,,,,,,,,,,,,,,,,,
,,,,,,60fabe7bd32b2ed831d38885,62c53877d6dd7e51736dafa2,2022-07-06_09h24.34.906,Colour_Asymmetry_Pilot,2022.1.3,Win32,60.38647343,62c50e9c1127f2cd403a315f,0,116,116,1,1,onethree,,,,,,,,,,,,,,,,,,,,,,,,,,,,,,,,,,,,,,,,,,,,,,,,,,,,,,,,,,,,,,,,,,,,,,,,,,,,,,,,,,,,,,,,,,,,,,,,,,,,,,,,,,,,,,,,,,,,,,,,,,,,,,,,,,,,,,,,,,,,,,,,,,,,,,,,,,,,,
,,,,,,60fabe7bd32b2ed831d38885,62c53877d6dd7e51736dafa2,2022-07-06_09h24.34.906,Colour_Asymmetry_Pilot,2022.1.3,Win32,60.38647343,62c50e9c1127f2cd403a315f,0,117,117,125,1,threefour,,,,,,,,,,,,,,,,,,,,,,,,,,,,,,,,,,,,,,,,,,,,,,,,,,,,,,,,,,,,,,,,,,,,,,,,,,,,,,,,,,,,,,,,,,,,,,,,,,,,,,,,,,,,,,,,,,,,,,,,,,,,,,,,,,,,,,,,,,,,,,,,,,,,,,,,,,,,,
,,,,,,60fabe7bd32b2ed831d38885,62c53877d6dd7e51736dafa2,2022-07-06_09h24.34.906,Colour_Asymmetry_Pilot,2022.1.3,Win32,60.38647343,62c50e9c1127f2cd403a315f,0,118,118,107,1,twofour,,,,,,,,,,,,,,,,,,,,,,,,,,,,,,,,,,,,,,,,,,,,,,,,,,,,,,,,,,,,,,,,,,,,,,,,,,,,,,,,,,,,,,,,,,,,,,,,,,,,,,,,,,,,,,,,,,,,,,,,,,,,,,,,,,,,,,,,,,,,,,,,,,,,,,,,,,,,,
,,,,,,60fabe7bd32b2ed831d38885,62c53877d6dd7e51736dafa2,2022-07-06_09h24.34.906,Colour_Asymmetry_Pilot,2022.1.3,Win32,60.38647343,62c50e9c1127f2cd403a315f,0,119,119,158,1,fourtwo,,,,,,,,,,,,,,,,,,,,,,,,,,,,,,,,,,,,,,,,,,,,,,,,,,,,,,,,,,,,,,,,,,,,,,,,,,,,,,,,,,,,,,,,,,,,,,,,,,,,,,,,,,,,,,,,,,,,,,,,,,,,,,,,,,,,,,,,,,,,,,,,,,,,,,,,,,,,,
,,,,,,60fabe7bd32b2ed831d38885,62c53877d6dd7e51736dafa2,2022-07-06_09h24.34.906,Colour_Asymmetry_Pilot,2022.1.3,Win32,60.38647343,62c50e9c1127f2cd403a315f,0,120,120,63,1,fourthree,,,,,,,,,,,,,,,,,,,,,,,,,,,,,,,,,,,,,,,,,,,,,,,,,,,,,,,,,,,,,,,,,,,,,,,,,,,,,,,,,,,,,,,,,,,,,,,,,,,,,,,,,,,,,,,,,,,,,,,,,,,,,,,,,,,,,,,,,,,,,,,,,,,,,,,,,,,,,
,,,,,,60fabe7bd32b2ed831d38885,62c53877d6dd7e51736dafa2,2022-07-06_09h24.34.906,Colour_Asymmetry_Pilot,2022.1.3,Win32,60.38647343,62c50e9c1127f2cd403a315f,0,121,121,75,1,twofour,,,,,,,,,,,,,,,,,,,,,,,,,,,,,,,,,,,,,,,,,,,,,,,,,,,,,,,,,,,,,,,,,,,,,,,,,,,,,,,,,,,,,,,,,,,,,,,,,,,,,,,,,,,,,,,,,,,,,,,,,,,,,,,,,,,,,,,,,,,,,,,,,,,,,,,,,,,,,
,,,,,,60fabe7bd32b2ed831d38885,62c53877d6dd7e51736dafa2,2022-07-06_09h24.34.906,Colour_Asymmetry_Pilot,2022.1.3,Win32,60.38647343,62c50e9c1127f2cd403a315f,0,122,122,43,1,twofour,,,,,,,,,,,,,,,,,,,,,,,,,,,,,,,,,,,,,,,,,,,,,,,,,,,,,,,,,,,,,,,,,,,,,,,,,,,,,,,,,,,,,,,,,,,,,,,,,,,,,,,,,,,,,,,,,,,,,,,,,,,,,,,,,,,,,,,,,,,,,,,,,,,,,,,,,,,,,
,,,,,,60fabe7bd32b2ed831d38885,62c53877d6dd7e51736dafa2,2022-07-06_09h24.34.906,Colour_Asymmetry_Pilot,2022.1.3,Win32,60.38647343,62c50e9c1127f2cd403a315f,0,123,123,20,1,threeone,,,,,,,,,,,,,,,,,,,,,,,,,,,,,,,,,,,,,,,,,,,,,,,,,,,,,,,,,,,,,,,,,,,,,,,,,,,,,,,,,,,,,,,,,,,,,,,,,,,,,,,,,,,,,,,,,,,,,,,,,,,,,,,,,,,,,,,,,,,,,,,,,,,,,,,,,,,,,
,,,,,,60fabe7bd32b2ed831d38885,62c53877d6dd7e51736dafa2,2022-07-06_09h24.34.906,Colour_Asymmetry_Pilot,2022.1.3,Win32,60.38647343,62c50e9c1127f2cd403a315f,0,124,124,57,1,onethree,,,,,,,,,,,,,,,,,,,,,,,,,,,,,,,,,,,,,,,,,,,,,,,,,,,,,,,,,,,,,,,,,,,,,,,,,,,,,,,,,,,,,,,,,,,,,,,,,,,,,,,,,,,,,,,,,,,,,,,,,,,,,,,,,,,,,,,,,,,,,,,,,,,,,,,,,,,,,
,,,,,,60fabe7bd32b2ed831d38885,62c53877d6dd7e51736dafa2,2022-07-06_09h24.34.906,Colour_Asymmetry_Pilot,2022.1.3,Win32,60.38647343,62c50e9c1127f2cd403a315f,0,125,125,135,1,fourthree,,,,,,,,,,,,,,,,,,,,,,,,,,,,,,,,,,,,,,,,,,,,,,,,,,,,,,,,,,,,,,,,,,,,,,,,,,,,,,,,,,,,,,,,,,,,,,,,,,,,,,,,,,,,,,,,,,,,,,,,,,,,,,,,,,,,,,,,,,,,,,,,,,,,,,,,,,,,,
,,,,,,60fabe7bd32b2ed831d38885,62c53877d6dd7e51736dafa2,2022-07-06_09h24.34.906,Colour_Asymmetry_Pilot,2022.1.3,Win32,60.38647343,62c50e9c1127f2cd403a315f,0,126,126,142,1,fourtwo,,,,,,,,,,,,,,,,,,,,,,,,,,,,,,,,,,,,,,,,,,,,,,,,,,,,,,,,,,,,,,,,,,,,,,,,,,,,,,,,,,,,,,,,,,,,,,,,,,,,,,,,,,,,,,,,,,,,,,,,,,,,,,,,,,,,,,,,,,,,,,,,,,,,,,,,,,,,,
,,,,,,60fabe7bd32b2ed831d38885,62c53877d6dd7e51736dafa2,2022-07-06_09h24.34.906,Colour_Asymmetry_Pilot,2022.1.3,Win32,60.38647343,62c50e9c1127f2cd403a315f,0,127,127,132,1,threeone,,,,,,,,,,,,,,,,,,,,,,,,,,,,,,,,,,,,,,,,,,,,,,,,,,,,,,,,,,,,,,,,,,,,,,,,,,,,,,,,,,,,,,,,,,,,,,,,,,,,,,,,,,,,,,,,,,,,,,,,,,,,,,,,,,,,,,,,,,,,,,,,,,,,,,,,,,,,,
,,,,,,60fabe7bd32b2ed831d38885,62c53877d6dd7e51736dafa2,2022-07-06_09h24.34.906,Colour_Asymmetry_Pilot,2022.1.3,Win32,60.38647343,62c50e9c1127f2cd403a315f,0,128,128,66,1,twoone,,,,,,,,,,,,,,,,,,,,,,,,,,,,,,,,,,,,,,,,,,,,,,,,,,,,,,,,,,,,,,,,,,,,,,,,,,,,,,,,,,,,,,,,,,,,,,,,,,,,,,,,,,,,,,,,,,,,,,,,,,,,,,,,,,,,,,,,,,,,,,,,,,,,,,,,,,,,,
,,,,,,60fabe7bd32b2ed831d38885,62c53877d6dd7e51736dafa2,2022-07-06_09h24.34.906,Colour_Asymmetry_Pilot,2022.1.3,Win32,60.38647343,62c50e9c1127f2cd403a315f,0,129,129,37,1,threefour,,,,,,,,,,,,,,,,,,,,,,,,,,,,,,,,,,,,,,,,,,,,,,,,,,,,,,,,,,,,,,,,,,,,,,,,,,,,,,,,,,,,,,,,,,,,,,,,,,,,,,,,,,,,,,,,,,,,,,,,,,,,,,,,,,,,,,,,,,,,,,,,,,,,,,,,,,,,,
,,,,,,60fabe7bd32b2ed831d38885,62c53877d6dd7e51736dafa2,2022-07-06_09h24.34.906,Colour_Asymmetry_Pilot,2022.1.3,Win32,60.38647343,62c50e9c1127f2cd403a315f,0,130,130,3,1,twofour,,,,,,,,,,,,,,,,,,,,,,,,,,,,,,,,,,,,,,,,,,,,,,,,,,,,,,,,,,,,,,,,,,,,,,,,,,,,,,,,,,,,,,,,,,,,,,,,,,,,,,,,,,,,,,,,,,,,,,,,,,,,,,,,,,,,,,,,,,,,,,,,,,,,,,,,,,,,,
,,,,,,60fabe7bd32b2ed831d38885,62c53877d6dd7e51736dafa2,2022-07-06_09h24.34.906,Colour_Asymmetry_Pilot,2022.1.3,Win32,60.38647343,62c50e9c1127f2cd403a315f,0,131,131,106,1,twoone,,,,,,,,,,,,,,,,,,,,,,,,,,,,,,,,,,,,,,,,,,,,,,,,,,,,,,,,,,,,,,,,,,,,,,,,,,,,,,,,,,,,,,,,,,,,,,,,,,,,,,,,,,,,,,,,,,,,,,,,,,,,,,,,,,,,,,,,,,,,,,,,,,,,,,,,,,,,,
,,,,,,60fabe7bd32b2ed831d38885,62c53877d6dd7e51736dafa2,2022-07-06_09h24.34.906,Colour_Asymmetry_Pilot,2022.1.3,Win32,60.38647343,62c50e9c1127f2cd403a315f,0,132,132,45,1,threefour,,,,,,,,,,,,,,,,,,,,,,,,,,,,,,,,,,,,,,,,,,,,,,,,,,,,,,,,,,,,,,,,,,,,,,,,,,,,,,,,,,,,,,,,,,,,,,,,,,,,,,,,,,,,,,,,,,,,,,,,,,,,,,,,,,,,,,,,,,,,,,,,,,,,,,,,,,,,,
,,,,,,60fabe7bd32b2ed831d38885,62c53877d6dd7e51736dafa2,2022-07-06_09h24.34.906,Colour_Asymmetry_Pilot,2022.1.3,Win32,60.38647343,62c50e9c1127f2cd403a315f,0,133,133,102,1,fourtwo,,,,,,,,,,,,,,,,,,,,,,,,,,,,,,,,,,,,,,,,,,,,,,,,,,,,,,,,,,,,,,,,,,,,,,,,,,,,,,,,,,,,,,,,,,,,,,,,,,,,,,,,,,,,,,,,,,,,,,,,,,,,,,,,,,,,,,,,,,,,,,,,,,,,,,,,,,,,,
,,,,,,60fabe7bd32b2ed831d38885,62c53877d6dd7e51736dafa2,2022-07-06_09h24.34.906,Colour_Asymmetry_Pilot,2022.1.3,Win32,60.38647343,62c50e9c1127f2cd403a315f,0,134,134,24,1,onetwo,,,,,,,,,,,,,,,,,,,,,,,,,,,,,,,,,,,,,,,,,,,,,,,,,,,,,,,,,,,,,,,,,,,,,,,,,,,,,,,,,,,,,,,,,,,,,,,,,,,,,,,,,,,,,,,,,,,,,,,,,,,,,,,,,,,,,,,,,,,,,,,,,,,,,,,,,,,,,
,,,,,,60fabe7bd32b2ed831d38885,62c53877d6dd7e51736dafa2,2022-07-06_09h24.34.906,Colour_Asymmetry_Pilot,2022.1.3,Win32,60.38647343,62c50e9c1127f2cd403a315f,0,135,135,84,1,threeone,,,,,,,,,,,,,,,,,,,,,,,,,,,,,,,,,,,,,,,,,,,,,,,,,,,,,,,,,,,,,,,,,,,,,,,,,,,,,,,,,,,,,,,,,,,,,,,,,,,,,,,,,,,,,,,,,,,,,,,,,,,,,,,,,,,,,,,,,,,,,,,,,,,,,,,,,,,,,
,,,,,,60fabe7bd32b2ed831d38885,62c53877d6dd7e51736dafa2,2022-07-06_09h24.34.906,Colour_Asymmetry_Pilot,2022.1.3,Win32,60.38647343,62c50e9c1127f2cd403a315f,0,136,136,77,1,threefour,,,,,,,,,,,,,,,,,,,,,,,,,,,,,,,,,,,,,,,,,,,,,,,,,,,,,,,,,,,,,,,,,,,,,,,,,,,,,,,,,,,,,,,,,,,,,,,,,,,,,,,,,,,,,,,,,,,,,,,,,,,,,,,,,,,,,,,,,,,,,,,,,,,,,,,,,,,,,
,,,,,,60fabe7bd32b2ed831d38885,62c53877d6dd7e51736dafa2,2022-07-06_09h24.34.906,Colour_Asymmetry_Pilot,2022.1.3,Win32,60.38647343,62c50e9c1127f2cd403a315f,0,137,137,134,1,fourtwo,,,,,,,,,,,,,,,,,,,,,,,,,,,,,,,,,,,,,,,,,,,,,,,,,,,,,,,,,,,,,,,,,,,,,,,,,,,,,,,,,,,,,,,,,,,,,,,,,,,,,,,,,,,,,,,,,,,,,,,,,,,,,,,,,,,,,,,,,,,,,,,,,,,,,,,,,,,,,
,,,,,,60fabe7bd32b2ed831d38885,62c53877d6dd7e51736dafa2,2022-07-06_09h24.34.906,Colour_Asymmetry_Pilot,2022.1.3,Win32,60.38647343,62c50e9c1127f2cd403a315f,0,138,138,117,1,threefour,,,,,,,,,,,,,,,,,,,,,,,,,,,,,,,,,,,,,,,,,,,,,,,,,,,,,,,,,,,,,,,,,,,,,,,,,,,,,,,,,,,,,,,,,,,,,,,,,,,,,,,,,,,,,,,,,,,,,,,,,,,,,,,,,,,,,,,,,,,,,,,,,,,,,,,,,,,,,
,,,,,,60fabe7bd32b2ed831d38885,62c53877d6dd7e51736dafa2,2022-07-06_09h24.34.906,Colour_Asymmetry_Pilot,2022.1.3,Win32,60.38647343,62c50e9c1127f2cd403a315f,0,139,139,159,1,fourthree,,,,,,,,,,,,,,,,,,,,,,,,,,,,,,,,,,,,,,,,,,,,,,,,,,,,,,,,,,,,,,,,,,,,,,,,,,,,,,,,,,,,,,,,,,,,,,,,,,,,,,,,,,,,,,,,,,,,,,,,,,,,,,,,,,,,,,,,,,,,,,,,,,,,,,,,,,,,,
,,,,,,60fabe7bd32b2ed831d38885,62c53877d6dd7e51736dafa2,2022-07-06_09h24.34.906,Colour_Asymmetry_Pilot,2022.1.3,Win32,60.38647343,62c50e9c1127f2cd403a315f,0,140,140,108,1,threeone,,,,,,,,,,,,,,,,,,,,,,,,,,,,,,,,,,,,,,,,,,,,,,,,,,,,,,,,,,,,,,,,,,,,,,,,,,,,,,,,,,,,,,,,,,,,,,,,,,,,,,,,,,,,,,,,,,,,,,,,,,,,,,,,,,,,,,,,,,,,,,,,,,,,,,,,,,,,,
,,,,,,60fabe7bd32b2ed831d38885,62c53877d6dd7e51736dafa2,2022-07-06_09h24.34.906,Colour_Asymmetry_Pilot,2022.1.3,Win32,60.38647343,62c50e9c1127f2cd403a315f,0,141,141,79,1,fourthree,,,,,,,,,,,,,,,,,,,,,,,,,,,,,,,,,,,,,,,,,,,,,,,,,,,,,,,,,,,,,,,,,,,,,,,,,,,,,,,,,,,,,,,,,,,,,,,,,,,,,,,,,,,,,,,,,,,,,,,,,,,,,,,,,,,,,,,,,,,,,,,,,,,,,,,,,,,,,
,,,,,,60fabe7bd32b2ed831d38885,62c53877d6dd7e51736dafa2,2022-07-06_09h24.34.906,Colour_Asymmetry_Pilot,2022.1.3,Win32,60.38647343,62c50e9c1127f2cd403a315f,0,142,142,76,1,threeone,,,,,,,,,,,,,,,,,,,,,,,,,,,,,,,,,,,,,,,,,,,,,,,,,,,,,,,,,,,,,,,,,,,,,,,,,,,,,,,,,,,,,,,,,,,,,,,,,,,,,,,,,,,,,,,,,,,,,,,,,,,,,,,,,,,,,,,,,,,,,,,,,,,,,,,,,,,,,
,,,,,,60fabe7bd32b2ed831d38885,62c53877d6dd7e51736dafa2,2022-07-06_09h24.34.906,Colour_Asymmetry_Pilot,2022.1.3,Win32,60.38647343,62c50e9c1127f2cd403a315f,0,143,143,126,1,fourtwo,,,,,,,,,,,,,,,,,,,,,,,,,,,,,,,,,,,,,,,,,,,,,,,,,,,,,,,,,,,,,,,,,,,,,,,,,,,,,,,,,,,,,,,,,,,,,,,,,,,,,,,,,,,,,,,,,,,,,,,,,,,,,,,,,,,,,,,,,,,,,,,,,,,,,,,,,,,,,
,,,,,,60fabe7bd32b2ed831d38885,62c53877d6dd7e51736dafa2,2022-07-06_09h24.34.906,Colour_Asymmetry_Pilot,2022.1.3,Win32,60.38647343,62c50e9c1127f2cd403a315f,0,144,144,69,1,threefour,,,,,,,,,,,,,,,,,,,,,,,,,,,,,,,,,,,,,,,,,,,,,,,,,,,,,,,,,,,,,,,,,,,,,,,,,,,,,,,,,,,,,,,,,,,,,,,,,,,,,,,,,,,,,,,,,,,,,,,,,,,,,,,,,,,,,,,,,,,,,,,,,,,,,,,,,,,,,
,,,,,,60fabe7bd32b2ed831d38885,62c53877d6dd7e51736dafa2,2022-07-06_09h24.34.906,Colour_Asymmetry_Pilot,2022.1.3,Win32,60.38647343,62c50e9c1127f2cd403a315f,0,145,145,36,1,threeone,,,,,,,,,,,,,,,,,,,,,,,,,,,,,,,,,,,,,,,,,,,,,,,,,,,,,,,,,,,,,,,,,,,,,,,,,,,,,,,,,,,,,,,,,,,,,,,,,,,,,,,,,,,,,,,,,,,,,,,,,,,,,,,,,,,,,,,,,,,,,,,,,,,,,,,,,,,,,
,,,,,,60fabe7bd32b2ed831d38885,62c53877d6dd7e51736dafa2,2022-07-06_09h24.34.906,Colour_Asymmetry_Pilot,2022.1.3,Win32,60.38647343,62c50e9c1127f2cd403a315f,0,146,146,47,1,fourthree,,,,,,,,,,,,,,,,,,,,,,,,,,,,,,,,,,,,,,,,,,,,,,,,,,,,,,,,,,,,,,,,,,,,,,,,,,,,,,,,,,,,,,,,,,,,,,,,,,,,,,,,,,,,,,,,,,,,,,,,,,,,,,,,,,,,,,,,,,,,,,,,,,,,,,,,,,,,,
,,,,,,60fabe7bd32b2ed831d38885,62c53877d6dd7e51736dafa2,2022-07-06_09h24.34.906,Colour_Asymmetry_Pilot,2022.1.3,Win32,60.38647343,62c50e9c1127f2cd403a315f,0,147,147,61,1,threefour,,,,,,,,,,,,,,,,,,,,,,,,,,,,,,,,,,,,,,,,,,,,,,,,,,,,,,,,,,,,,,,,,,,,,,,,,,,,,,,,,,,,,,,,,,,,,,,,,,,,,,,,,,,,,,,,,,,,,,,,,,,,,,,,,,,,,,,,,,,,,,,,,,,,,,,,,,,,,
,,,,,,60fabe7bd32b2ed831d38885,62c53877d6dd7e51736dafa2,2022-07-06_09h24.34.906,Colour_Asymmetry_Pilot,2022.1.3,Win32,60.38647343,62c50e9c1127f2cd403a315f,0,148,148,6,1,fourtwo,,,,,,,,,,,,,,,,,,,,,,,,,,,,,,,,,,,,,,,,,,,,,,,,,,,,,,,,,,,,,,,,,,,,,,,,,,,,,,,,,,,,,,,,,,,,,,,,,,,,,,,,,,,,,,,,,,,,,,,,,,,,,,,,,,,,,,,,,,,,,,,,,,,,,,,,,,,,,
,,,,,,60fabe7bd32b2ed831d38885,62c53877d6dd7e51736dafa2,2022-07-06_09h24.34.906,Colour_Asymmetry_Pilot,2022.1.3,Win32,60.38647343,62c50e9c1127f2cd403a315f,0,149,149,11,1,twofour,,,,,,,,,,,,,,,,,,,,,,,,,,,,,,,,,,,,,,,,,,,,,,,,,,,,,,,,,,,,,,,,,,,,,,,,,,,,,,,,,,,,,,,,,,,,,,,,,,,,,,,,,,,,,,,,,,,,,,,,,,,,,,,,,,,,,,,,,,,,,,,,,,,,,,,,,,,,,
,,,,,,60fabe7bd32b2ed831d38885,62c53877d6dd7e51736dafa2,2022-07-06_09h24.34.906,Colour_Asymmetry_Pilot,2022.1.3,Win32,60.38647343,62c50e9c1127f2cd403a315f,0,150,150,18,1,twoone,,,,,,,,,,,,,,,,,,,,,,,,,,,,,,,,,,,,,,,,,,,,,,,,,,,,,,,,,,,,,,,,,,,,,,,,,,,,,,,,,,,,,,,,,,,,,,,,,,,,,,,,,,,,,,,,,,,,,,,,,,,,,,,,,,,,,,,,,,,,,,,,,,,,,,,,,,,,,
,,,,,,60fabe7bd32b2ed831d38885,62c53877d6dd7e51736dafa2,2022-07-06_09h24.34.906,Colour_Asymmetry_Pilot,2022.1.3,Win32,60.38647343,62c50e9c1127f2cd403a315f,0,151,151,42,1,twoone,,,,,,,,,,,,,,,,,,,,,,,,,,,,,,,,,,,,,,,,,,,,,,,,,,,,,,,,,,,,,,,,,,,,,,,,,,,,,,,,,,,,,,,,,,,,,,,,,,,,,,,,,,,,,,,,,,,,,,,,,,,,,,,,,,,,,,,,,,,,,,,,,,,,,,,,,,,,,
,,,,,,60fabe7bd32b2ed831d38885,62c53877d6dd7e51736dafa2,2022-07-06_09h24.34.906,Colour_Asymmetry_Pilot,2022.1.3,Win32,60.38647343,62c50e9c1127f2cd403a315f,0,152,152,149,1,threefour,,,,,,,,,,,,,,,,,,,,,,,,,,,,,,,,,,,,,,,,,,,,,,,,,,,,,,,,,,,,,,,,,,,,,,,,,,,,,,,,,,,,,,,,,,,,,,,,,,,,,,,,,,,,,,,,,,,,,,,,,,,,,,,,,,,,,,,,,,,,,,,,,,,,,,,,,,,,,
,,,,,,60fabe7bd32b2ed831d38885,62c53877d6dd7e51736dafa2,2022-07-06_09h24.34.906,Colour_Asymmetry_Pilot,2022.1.3,Win32,60.38647343,62c50e9c1127f2cd403a315f,0,153,153,40,1,onetwo,,,,,,,,,,,,,,,,,,,,,,,,,,,,,,,,,,,,,,,,,,,,,,,,,,,,,,,,,,,,,,,,,,,,,,,,,,,,,,,,,,,,,,,,,,,,,,,,,,,,,,,,,,,,,,,,,,,,,,,,,,,,,,,,,,,,,,,,,,,,,,,,,,,,,,,,,,,,,
,,,,,,60fabe7bd32b2ed831d38885,62c53877d6dd7e51736dafa2,2022-07-06_09h24.34.906,Colour_Asymmetry_Pilot,2022.1.3,Win32,60.38647343,62c50e9c1127f2cd403a315f,0,154,154,4,1,threeone,,,,,,,,,,,,,,,,,,,,,,,,,,,,,,,,,,,,,,,,,,,,,,,,,,,,,,,,,,,,,,,,,,,,,,,,,,,,,,,,,,,,,,,,,,,,,,,,,,,,,,,,,,,,,,,,,,,,,,,,,,,,,,,,,,,,,,,,,,,,,,,,,,,,,,,,,,,,,
,,,,,,60fabe7bd32b2ed831d38885,62c53877d6dd7e51736dafa2,2022-07-06_09h24.34.906,Colour_Asymmetry_Pilot,2022.1.3,Win32,60.38647343,62c50e9c1127f2cd403a315f,0,155,155,48,1,onetwo,,,,,,,,,,,,,,,,,,,,,,,,,,,,,,,,,,,,,,,,,,,,,,,,,,,,,,,,,,,,,,,,,,,,,,,,,,,,,,,,,,,,,,,,,,,,,,,,,,,,,,,,,,,,,,,,,,,,,,,,,,,,,,,,,,,,,,,,,,,,,,,,,,,,,,,,,,,,,
,,,,,,60fabe7bd32b2ed831d38885,62c53877d6dd7e51736dafa2,2022-07-06_09h24.34.906,Colour_Asymmetry_Pilot,2022.1.3,Win32,60.38647343,62c50e9c1127f2cd403a315f,0,156,156,50,1,twoone,,,,,,,,,,,,,,,,,,,,,,,,,,,,,,,,,,,,,,,,,,,,,,,,,,,,,,,,,,,,,,,,,,,,,,,,,,,,,,,,,,,,,,,,,,,,,,,,,,,,,,,,,,,,,,,,,,,,,,,,,,,,,,,,,,,,,,,,,,,,,,,,,,,,,,,,,,,,,
,,,,,,60fabe7bd32b2ed831d38885,62c53877d6dd7e51736dafa2,2022-07-06_09h24.34.906,Colour_Asymmetry_Pilot,2022.1.3,Win32,60.38647343,62c50e9c1127f2cd403a315f,0,157,157,120,1,onetwo,,,,,,,,,,,,,,,,,,,,,,,,,,,,,,,,,,,,,,,,,,,,,,,,,,,,,,,,,,,,,,,,,,,,,,,,,,,,,,,,,,,,,,,,,,,,,,,,,,,,,,,,,,,,,,,,,,,,,,,,,,,,,,,,,,,,,,,,,,,,,,,,,,,,,,,,,,,,,
,,,,,,60fabe7bd32b2ed831d38885,62c53877d6dd7e51736dafa2,2022-07-06_09h24.34.906,Colour_Asymmetry_Pilot,2022.1.3,Win32,60.38647343,62c50e9c1127f2cd403a315f,0,158,158,157,1,threefour,,,,,,,,,,,,,,,,,,,,,,,,,,,,,,,,,,,,,,,,,,,,,,,,,,,,,,,,,,,,,,,,,,,,,,,,,,,,,,,,,,,,,,,,,,,,,,,,,,,,,,,,,,,,,,,,,,,,,,,,,,,,,,,,,,,,,,,,,,,,,,,,,,,,,,,,,,,,,
,,,,,,60fabe7bd32b2ed831d38885,62c53877d6dd7e51736dafa2,2022-07-06_09h24.34.906,Colour_Asymmetry_Pilot,2022.1.3,Win32,60.38647343,62c50e9c1127f2cd403a315f,0,159,159,95,1,fourthree,,,,,,,,,,,,,,,,,,,,,,,,,,,,,,,,,,,,,,,,,,,,,,,,,,,,,,,,,,,,,,,,,,,,,,,,,,,,,,,,,,,,,,,,,,,,,,,,,,,,,,,,,,,,,,,,,,,,,,,,,,,,,,,,,,,,,,,,,,,,,,,,,,,,,,,,,,,,,
,,,,,,60fabe7bd32b2ed831d38885,62c53877d6dd7e51736dafa2,2022-07-06_09h24.34.906,Colour_Asymmetry_Pilot,2022.1.3,Win32,60.38647343,62c50e9c1127f2cd403a315f,0,160,160,105,1,onethree,,,,,,,,,,,,,,,,,,,,,,,,,,,,,,,,,,,,,,,,,,,,,,,,,,,,,,,,,,,,,,,,,,,,,,,,,,,,,,,,,,,,,,,,,,,,,,,,,,,,,,,,,,,,,,,,,,,,,,,,,,,,,,,,,,,,,,,,,,,,,,,,,,,,,,,,,,,,,
,,,,,,60fabe7bd32b2ed831d38885,62c53877d6dd7e51736dafa2,2022-07-06_09h24.34.906,Colour_Asymmetry_Pilot,2022.1.3,Win32,60.38647343,62c50e9c1127f2cd403a315f,0,161,161,5,1,threefour,,,,,,,,,,,,,,,,,,,,,,,,,,,,,,,,,,,,,,,,,,,,,,,,,,,,,,,,,,,,,,,,,,,,,,,,,,,,,,,,,,,,,,,,,,,,,,,,,,,,,,,,,,,,,,,,,,,,,,,,,,,,,,,,,,,,,,,,,,,,,,,,,,,,,,,,,,,,,
,,,,,,60fabe7bd32b2ed831d38885,62c53877d6dd7e51736dafa2,2022-07-06_09h24.34.906,Colour_Asymmetry_Pilot,2022.1.3,Win32,60.38647343,62c50e9c1127f2cd403a315f,,,,,,,space,6.4365,space,21.703,space,39.384,space,28.9172,space,3.7559,space,4.5654,"[0.7018,0.7176,0.6155999999999999]",fourtwo,"[0.3881999999999999,-0.23939999999999995,-0.05040000000000011]",-4,1.9167,-59,114.5,1,0,0,response7disk_5,-5,4.5,1,0,0,rectangle_8,-5,4.5,1,0,0,3,-5,4.5,1,0,0,0,0,0,0,1,,,,,,,,,,,,,,,,,,,,,,,,,,,,,,,,,,,,,,,,,,,,,,,,,,,,,,,,,,,,,,,,,,,,,,,,,,,,,,,,,,,,,,,,,,,,,,,,,,,,,,,,,,,,,,,,
,,,,,,60fabe7bd32b2ed831d38885,62c53877d6dd7e51736dafa2,2022-07-06_09h24.34.906,Colour_Asymmetry_Pilot,2022.1.3,Win32,60.38647343,62c50e9c1127f2cd403a315f,,,,,,,,,,,,,,,,,,,"[-0.01980000000000004,-0.5138,-0.38039999999999996]",onethree,"[0.34099999999999997,0.5841999999999998,-0.9844]",-4,2.3338,-40,109.5,1,0,0,response7disk_5,7,-2.5,1,0,0,rectangle_8,7,-2.5,1,0,0,3,7,-2.5,1,0,0,1,0,1,0,1,,,,,,,,,,,,,,,,,,,,,,,,,,,,,,,,,,,,,,,,,,,,,,,,,,,,,,,,,,,,,,,,,,,,,,,,,,,,,,,,,,,,,,,,,,,,,,,,,,,,,,,,,,,,,,,,
,,,,,,60fabe7bd32b2ed831d38885,62c53877d6dd7e51736dafa2,2022-07-06_09h24.34.906,Colour_Asymmetry_Pilot,2022.1.3,Win32,60.38647343,62c50e9c1127f2cd403a315f,,,,,,,,,,,,,,,,,,,"[-0.20799999999999996,-0.655,-0.01980000000000004]",onetwo,"[-0.09019999999999995,0.44300000000000006,0.5371999999999999]",-3,1.2336,-136,51.5,1,0,0,response7disk_5,-7,-3.5,1,0,0,rectangle_8,132,50.5,1,0,0,3,5,2.5,1,0,0,2,0,2,0,1,response1disk_7,6,rectangle_4,,,,,,,,,,,,,,,,,,,,,,,,,,,,,,,,,,,,,,,,,,,,,,,,,,,,,,,,,,,,,,,,,,,,,,,,,,,,,,,,,,,,,,,,,,,,,,,,,,,,,,,,,,,,,
,,,,,,60fabe7bd32b2ed831d38885,62c53877d6dd7e51736dafa2,2022-07-06_09h24.34.906,Colour_Asymmetry_Pilot,2022.1.3,Win32,60.38647343,62c50e9c1127f2cd403a315f,,,,,,,,,,,,,,,,,,,"[-0.050999999999999934,-0.6706000000000001,-0.804]",twofour,"[0.8115999999999999,-0.0040000000000000036,-0.09819999999999995]",-1,2.3502,-58,-127.5,1,0,0,response5disk_5,2,-2.5,1,0,0,rectangle_8,2,-2.5,1,0,0,3,2,-2.5,1,0,0,3,0,3,0,1,,,,,,,,,,,,,,,,,,,,,,,,,,,,,,,,,,,,,,,,,,,,,,,,,,,,,,,,,,,,,,,,,,,,,,,,,,,,,,,,,,,,,,,,,,,,,,,,,,,,,,,,,,,,,,,,
,,,,,,60fabe7bd32b2ed831d38885,62c53877d6dd7e51736dafa2,2022-07-06_09h24.34.906,Colour_Asymmetry_Pilot,2022.1.3,Win32,60.38647343,62c50e9c1127f2cd403a315f,,,,,,,,,,,,,,,,,,,"[0.40379999999999994,0.09000000000000008,0.44300000000000006]",threeone,"[-0.5688,-0.08239999999999992,-0.1844]",-2,1.2004,-82,-44.5,1,0,0,response5disk_5,2,-1.5,1,0,0,rectangle_8,2,-1.5,1,0,0,3,2,-1.5,1,0,0,4,0,4,0,1,,,,,,,,,,,,,,,,,,,,,,,,,,,,,,,,,,,,,,,,,,,,,,,,,,,,,,,,,,,,,,,,,,,,,,,,,,,,,,,,,,,,,,,,,,,,,,,,,,,,,,,,,,,,,,,,
,,,,,,60fabe7bd32b2ed831d38885,62c53877d6dd7e51736dafa2,2022-07-06_09h24.34.906,Colour_Asymmetry_Pilot,2022.1.3,Win32,60.38647343,62c50e9c1127f2cd403a315f,,,,,,,,,,,,,,,,,,,"[-0.24719999999999998,0.5213999999999999,-0.12959999999999994]",fourthree,"[0.23120000000000007,-0.7726,-0.34120000000000006]",-3,2.0337,-110,50.5,1,0,0,response7disk_5,13,3.5,1,0,0,rectangle_8,13,3.5,1,0,0,3,13,3.5,1,0,0,5,0,5,0,1,,,,,,,,,,,,,,,,,,,,,,,,,,,,,,,,,,,,,,,,,,,,,,,,,,,,,,,,,,,,,,,,,,,,,,,,,,,,,,,,,,,,,,,,,,,,,,,,,,,,,,,,,,,,,,,,
,,,,,,60fabe7bd32b2ed831d38885,62c53877d6dd7e51736dafa2,2022-07-06_09h24.34.906,Colour_Asymmetry_Pilot,2022.1.3,Win32,60.38647343,62c50e9c1127f2cd403a315f,,,,,,,,,,,,,,,,,,,"[1,0.12939999999999996,-1]",threeone,"[0.9763999999999999,0.8588,-0.05900000000000005]",2,1.5165,127,-63.5,1,0,0,response3disk_5,6,9.5,1,0,0,rectangle_8,6,9.5,1,0,0,3,6,9.5,1,0,0,6,0,6,0,1,,,,,,,,,,,,,,,,,,,,,,,,,,,,,,,,,,,,,,,,,,,,,,,,,,,,,,,,,,,,,,,,,,,,,,,,,,,,,,,,,,,,,,,,,,,,,,,,,,,,,,,,,,,,,,,,
,,,,,,60fabe7bd32b2ed831d38885,62c53877d6dd7e51736dafa2,2022-07-06_09h24.34.906,Colour_Asymmetry_Pilot,2022.1.3,Win32,60.38647343,62c50e9c1127f2cd403a315f,,,,,,,,,,,,,,,,,,,,onethree,,-1,1.7668,,,,,,,,,,,,,,,,,,,,,,,,,,,,,,,,space,7.6027,"[0.22340000000000004,-0.9296,-0.7884]","[0.37240000000000006,0.4980000000000002,-0.2864]",-65,-109.5,1,0,0,response5disk,23,7.5,1,0,0,rectangle,90,50.5,1,0,0,response1disk_3,3,3,2.3647,1,5,2.5,1,0,0,rectangle,0,0,0,36,1,36,first,,,,,,,,,,,,,,,,,,,,,,,,,,,,,,,,,,,,,,,,,,,,,,,,,,,,,,,,,,,,,,,,,,,,,,
,,,,,,60fabe7bd32b2ed831d38885,62c53877d6dd7e51736dafa2,2022-07-06_09h24.34.906,Colour_Asymmetry_Pilot,2022.1.3,Win32,60.38647343,62c50e9c1127f2cd403a315f,,,,,,,,,,,,,,,,,,,,fourthree,,2,0.9666,,,,,,,,,,,,,,,,,,,,,,,,,,,,,,,,,,"[-0.9688,-0.7412000000000001,-0.4902000000000001]","[-0.2942,-0.24719999999999998,-0.357]",145,-43.5,1,0,0,response3disk,5,4.5,1,0,0,rectangle,5,4.5,1,0,0,,3,1,0.0006,0,5,4.5,1,0,0,,0,1,1,132,1,51,second,,,,,,,,,,,,,,,,,,,,,,,,,,,,,,,,,,,,,,,,,,,,,,,,,,,,,,,,,,,,,,,,,,,,,,
,,,,,,60fabe7bd32b2ed831d38885,62c53877d6dd7e51736dafa2,2022-07-06_09h24.34.906,Colour_Asymmetry_Pilot,2022.1.3,Win32,60.38647343,62c50e9c1127f2cd403a315f,,,,,,,,,,,,,,,,,,,,fourtwo,,1,0.6039,,,,,,,,,,,,,,,,,,,,,,,,,,,,,,,,,,"[1,0.12939999999999996,-1]","[0.9686000000000001,0.3802000000000001,0.19999999999999996]",43,-113.5,1,0,0,response3disk,3,-9.5,1,0,0,rectangle,3,-9.5,1,0,0,,3,2,0.0007,0,3,-9.5,1,0,0,,0,2,2,17,1,17,first,,,,,,,,,,,,,,,,,,,,,,,,,,,,,,,,,,,,,,,,,,,,,,,,,,,,,,,,,,,,,,,,,,,,,,
,,,,,,60fabe7bd32b2ed831d38885,62c53877d6dd7e51736dafa2,2022-07-06_09h24.34.906,Colour_Asymmetry_Pilot,2022.1.3,Win32,60.38647343,62c50e9c1127f2cd403a315f,,,,,,,,,,,,,,,,,,,,onetwo,,-2,0.6871,,,,,,,,,,,,,,,,,,,,,,,,,,,,,,,,,,"[-0.5688,-0.08239999999999992,-0.1844]","[0.6547999999999998,-0.043199999999999905,-0.011800000000000033]",-108,-66.5,1,0,0,response5disk,-11,-4.5,1,0,0,rectangle,-11,-4.5,1,0,0,,3,2,0.0003,0,-11,-4.5,1,0,0,,0,3,3,83,1,2,second,,,,,,,,,,,,,,,,,,,,,,,,,,,,,,,,,,,,,,,,,,,,,,,,,,,,,,,,,,,,,,,,,,,,,,
,,,,,,60fabe7bd32b2ed831d38885,62c53877d6dd7e51736dafa2,2022-07-06_09h24.34.906,Colour_Asymmetry_Pilot,2022.1.3,Win32,60.38647343,62c50e9c1127f2cd403a315f,,,,,,,,,,,,,,,,,,,,onethree,,2,0.9665,,,,,,,,,,,,,,,,,,,,,,,,,,,,,,,,,,"[0.8115999999999999,-0.0040000000000000036,-0.09819999999999995]","[-0.2942,-0.7648,-0.7492000000000001]",121,-67.5,1,0,0,response3disk,-6,-1.5,1,0,0,rectangle,-6,-1.5,1,0,0,,3,2,0.0003,0,-6,-1.5,1,0,0,,0,4,4,121,1,40,second,,,,,,,,,,,,,,,,,,,,,,,,,,,,,,,,,,,,,,,,,,,,,,,,,,,,,,,,,,,,,,,,,,,,,,
,,,,,,60fabe7bd32b2ed831d38885,62c53877d6dd7e51736dafa2,2022-07-06_09h24.34.906,Colour_Asymmetry_Pilot,2022.1.3,Win32,60.38647343,62c50e9c1127f2cd403a315f,,,,,,,,,,,,,,,,,,,,onetwo,,2,1.5335,,,,,,,,,,,,,,,,,,,,,,,,,,,,,,,,,,"[-0.06680000000000008,-0.45100000000000007,-0.906]","[-0.45899999999999996,-0.3256,-0.9374]",111,-49.5,1,0,0,response3disk,-1,11.5,1,0,0,rectangle,-1,11.5,1,0,0,,3,3,0.0007,0,-1,11.5,1,0,0,,0,5,5,26,1,26,first,,,,,,,,,,,,,,,,,,,,,,,,,,,,,,,,,,,,,,,,,,,,,,,,,,,,,,,,,,,,,,,,,,,,,,
,,,,,,60fabe7bd32b2ed831d38885,62c53877d6dd7e51736dafa2,2022-07-06_09h24.34.906,Colour_Asymmetry_Pilot,2022.1.3,Win32,60.38647343,62c50e9c1127f2cd403a315f,,,,,,,,,,,,,,,,,,,,fourthree,,-1,1.0833,,,,,,,,,,,,,,,,,,,,,,,,,,,,,,,,,,"[-0.2942,-0.24719999999999998,-0.357]","[-0.9688,-0.7412000000000001,-0.4902000000000001]",-60,-126.5,1,0,0,response5disk,3,-13.5,1,0,0,rectangle,3,-13.5,1,0,0,,3,2,0.0007,0,3,-13.5,1,0,0,,0,6,6,51,1,51,first,,,,,,,,,,,,,,,,,,,,,,,,,,,,,,,,,,,,,,,,,,,,,,,,,,,,,,,,,,,,,,,,,,,,,,
,,,,,,60fabe7bd32b2ed831d38885,62c53877d6dd7e51736dafa2,2022-07-06_09h24.34.906,Colour_Asymmetry_Pilot,2022.1.3,Win32,60.38647343,62c50e9c1127f2cd403a315f,,,,,,,,,,,,,,,,,,,,threefour,,-3,0.6793,,,,,,,,,,,,,,,,,,,,,,,,,,,,,,,,,,"[0.37240000000000006,-0.050999999999999934,-0.5216]","[-0.6706000000000001,-0.6157999999999999,-0.6786]",-78,37.5,1,0,0,response7disk,3,-5.5,1,0,0,rectangle,3,-5.5,1,0,0,,3,3,0.0008,0,3,-5.5,1,0,0,,0,7,7,15,1,15,first,,,,,,,,,,,,,,,,,,,,,,,,,,,,,,,,,,,,,,,,,,,,,,,,,,,,,,,,,,,,,,,,,,,,,,
,,,,,,60fabe7bd32b2ed831d38885,62c53877d6dd7e51736dafa2,2022-07-06_09h24.34.906,Colour_Asymmetry_Pilot,2022.1.3,Win32,60.38647343,62c50e9c1127f2cd403a315f,,,,,,,,,,,,,,,,,,,,onethree,,3,0.8037,,,,,,,,,,,,,,,,,,,,,,,,,,,,,,,,,,"[-0.4276,0.0038000000000000256,-0.3256]","[-0.24719999999999998,0.5213999999999999,-0.12959999999999994]",134,35.5,1,0,0,response1disk,-15,-16.5,1,0,0,rectangle,-15,-16.5,1,0,0,,3,3,0.0002,0,-15,-16.5,1,0,0,,0,8,8,85,1,4,second,,,,,,,,,,,,,,,,,,,,,,,,,,,,,,,,,,,,,,,,,,,,,,,,,,,,,,,,,,,,,,,,,,,,,,
,,,,,,60fabe7bd32b2ed831d38885,62c53877d6dd7e51736dafa2,2022-07-06_09h24.34.906,Colour_Asymmetry_Pilot,2022.1.3,Win32,60.38647343,62c50e9c1127f2cd403a315f,,,,,,,,,,,,,,,,,,,,onethree,,-3,1.05,,,,,,,,,,,,,,,,,,,,,,,,,,,,,,,,,,"[0.30180000000000007,-0.7884,-0.9844]","[0.11359999999999992,0.6312,0.5213999999999999]",-93,42.5,1,0,0,response7disk,13,1.5,1,0,0,rectangle,13,1.5,1,0,0,,3,3,0.0003,0,13,1.5,1,0,0,,0,9,9,68,1,68,first,,,,,,,,,,,,,,,,,,,,,,,,,,,,,,,,,,,,,,,,,,,,,,,,,,,,,,,,,,,,,,,,,,,,,,
,,,,,,60fabe7bd32b2ed831d38885,62c53877d6dd7e51736dafa2,2022-07-06_09h24.34.906,Colour_Asymmetry_Pilot,2022.1.3,Win32,60.38647343,62c50e9c1127f2cd403a315f,,,,,,,,,,,,,,,,,,,,twofour,,3,1.6044,,,,,,,,,,,,,,,,,,,,,,,,,,,,,,,,,,"[0.11359999999999992,0.6312,0.5213999999999999]","[-0.0040000000000000036,0.02739999999999987,-0.08239999999999992]",114,34.5,1,0,0,response1disk,-2,1.5,1,0,0,rectangle,-2,1.5,1,0,0,,3,2,0.0008,0,-2,1.5,1,0,0,,0,10,10,144,1,63,second,,,,,,,,,,,,,,,,,,,,,,,,,,,,,,,,,,,,,,,,,,,,,,,,,,,,,,,,,,,,,,,,,,,,,,
,,,,,,60fabe7bd32b2ed831d38885,62c53877d6dd7e51736dafa2,2022-07-06_09h24.34.906,Colour_Asymmetry_Pilot,2022.1.3,Win32,60.38647343,62c50e9c1127f2cd403a315f,,,,,,,,,,,,,,,,,,,,onetwo,,-1,1.7837,,,,,,,,,,,,,,,,,,,,,,,,,,,,,,,,,,"[-0.2942,-0.24719999999999998,-0.357]","[-0.9766,-0.34920000000000007,0.2156]",-67,-114.5,1,0,0,response5disk,1,0.5,1,0,0,rectangle,1,0.5,1,0,0,,3,3,0.0007,0,1,0.5,1,0,0,,0,11,11,139,1,58,second,,,,,,,,,,,,,,,,,,,,,,,,,,,,,,,,,,,,,,,,,,,,,,,,,,,,,,,,,,,,,,,,,,,,,,
,,,,,,60fabe7bd32b2ed831d38885,62c53877d6dd7e51736dafa2,2022-07-06_09h24.34.906,Colour_Asymmetry_Pilot,2022.1.3,Win32,60.38647343,62c50e9c1127f2cd403a315f,,,,,,,,,,,,,,,,,,,,twofour,,-3,1.1636,,,,,,,,,,,,,,,,,,,,,,,,,,,,,,,,,,"[0.5528,0.7409999999999999,-0.71]","[-0.050999999999999934,-0.6706000000000001,-0.804]",-125,46.5,1,0,0,response7disk,2,14.5,1,0,0,rectangle,2,14.5,1,0,0,,3,2,0.0008,0,2,14.5,1,0,0,,0,12,12,12,1,12,first,,,,,,,,,,,,,,,,,,,,,,,,,,,,,,,,,,,,,,,,,,,,,,,,,,,,,,,,,,,,,,,,,,,,,,
,,,,,,60fabe7bd32b2ed831d38885,62c53877d6dd7e51736dafa2,2022-07-06_09h24.34.906,Colour_Asymmetry_Pilot,2022.1.3,Win32,60.38647343,62c50e9c1127f2cd403a315f,,,,,,,,,,,,,,,,,,,,twoone,,2,0.7631,,,,,,,,,,,,,,,,,,,,,,,,,,,,,,,,,,"[0.19199999999999995,0.18419999999999992,0.5136000000000001]","[-0.4902000000000001,0.2704,-0.45899999999999996]",125,-56.5,1,0,0,response3disk,-1,-2.5,1,0,0,rectangle,-1,-2.5,1,0,0,,3,2,0.0003,0,-1,-2.5,1,0,0,,0,13,13,153,1,72,second,,,,,,,,,,,,,,,,,,,,,,,,,,,,,,,,,,,,,,,,,,,,,,,,,,,,,,,,,,,,,,,,,,,,,,
,,,,,,60fabe7bd32b2ed831d38885,62c53877d6dd7e51736dafa2,2022-07-06_09h24.34.906,Colour_Asymmetry_Pilot,2022.1.3,Win32,60.38647343,62c50e9c1127f2cd403a315f,,,,,,,,,,,,,,,,,,,,threefour,,-4,0.9835,,,,,,,,,,,,,,,,,,,,,,,,,,,,,,,,,,"[-0.4668,-0.8746,-0.2942]","[0.7018,0.7802,-0.16079999999999994]",-76,93.5,1,0,0,response7disk,13,-0.5,1,0,0,rectangle,13,-0.5,1,0,0,,3,2,0.0003,0,13,-0.5,1,0,0,,0,14,14,145,1,64,second,,,,,,,,,,,,,,,,,,,,,,,,,,,,,,,,,,,,,,,,,,,,,,,,,,,,,,,,,,,,,,,,,,,,,,
,,,,,,60fabe7bd32b2ed831d38885,62c53877d6dd7e51736dafa2,2022-07-06_09h24.34.906,Colour_Asymmetry_Pilot,2022.1.3,Win32,60.38647343,62c50e9c1127f2cd403a315f,,,,,,,,,,,,,,,,,,,,twoone,,-4,0.7002,,,,,,,,,,,,,,,,,,,,,,,,,,,,,,,,,,"[-0.050999999999999934,-0.6706000000000001,-0.804]","[0.5528,0.7409999999999999,-0.71]",-67,111.5,1,0,0,response7disk,15,-6.5,1,0,0,rectangle,15,-6.5,1,0,0,,3,2,1E-04,0,15,-6.5,1,0,0,,0,15,15,93,1,12,second,,,,,,,,,,,,,,,,,,,,,,,,,,,,,,,,,,,,,,,,,,,,,,,,,,,,,,,,,,,,,,,,,,,,,,
,,,,,,60fabe7bd32b2ed831d38885,62c53877d6dd7e51736dafa2,2022-07-06_09h24.34.906,Colour_Asymmetry_Pilot,2022.1.3,Win32,60.38647343,62c50e9c1127f2cd403a315f,,,,,,,,,,,,,,,,,,,,twoone,,3,0.9167,,,,,,,,,,,,,,,,,,,,,,,,,,,,,,,,,,"[0.9763999999999999,-0.1137999999999999,-0.6314]","[0.37240000000000006,-0.050999999999999934,-0.5216]",126,59.5,1,0,0,response1disk,6,0.5,1,0,0,rectangle,6,0.5,1,0,0,,3,1,0.0007,0,6,0.5,1,0,0,,0,16,16,21,1,21,first,,,,,,,,,,,,,,,,,,,,,,,,,,,,,,,,,,,,,,,,,,,,,,,,,,,,,,,,,,,,,,,,,,,,,,
