trials.thisRepN,trials.thisTrialN,trials.thisN,trials.thisIndex,trials.ran,Colourcodes,participant,session,date,expName,psychopyVersion,OS,frameRate,study_id,trials_4.thisRepN,trials_4.thisTrialN,trials_4.thisN,trials_4.thisIndex,trials_4.ran,StimulusPos,key_resp.keys,key_resp.rt,key_resp_2.keys,key_resp_2.rt,key_resp_15.keys,key_resp_15.rt,key_resp_17.keys,key_resp_17.rt,key_resp_9.keys,key_resp_9.rt,key_resp_10.keys,key_resp_10.rt,Circle1_col,Ecc,Circle2_col,similarity,response_time,mouse_5.x,mouse_5.y,mouse_5.leftButton,mouse_5.midButton,mouse_5.rightButton,mouse_5.clicked_name,mouse_10.x,mouse_10.y,mouse_10.leftButton,mouse_10.midButton,mouse_10.rightButton,mouse_10.clicked_name,mouse_7.x,mouse_7.y,mouse_7.leftButton,mouse_7.midButton,mouse_7.rightButton,catchnumberprac,mouse_6.x,mouse_6.y,mouse_6.leftButton,mouse_6.midButton,mouse_6.rightButton,duringprac.thisRepN,duringprac.thisTrialN,duringprac.thisN,duringprac.thisIndex,duringprac.ran,mouse_7.clicked_name,catchprac,mouse_6.clicked_name,key_resp_22.keys,key_resp_22.rt,Circle1_colour,Circle2_colour,mouse.x,mouse.y,mouse.leftButton,mouse.midButton,mouse.rightButton,mouse.clicked_name,mouse_2.x,mouse_2.y,mouse_2.leftButton,mouse_2.midButton,mouse_2.rightButton,mouse_2.clicked_name,mouse_3.x,mouse_3.y,mouse_3.leftButton,mouse_3.midButton,mouse_3.rightButton,catchresponse,catchnumber,response_time_catch,Catch,mouse_11.x,mouse_11.y,mouse_11.leftButton,mouse_11.midButton,mouse_11.rightButton,trials_2.thisRepN,trials_2.thisTrialN,trials_2.thisN,trials_2.thisIndex,trials_2.ran,Colourpair,Temporder,mouse_3.clicked_name,mouse_11.clicked_name,trials_3.thisRepN,trials_3.thisTrialN,trials_3.thisN,trials_3.thisIndex,trials_3.ran,key_resp_instr_Ishi.keys,key_resp_instr_Ishi.rt,Ishi_trial_keyresp.keys,Ishi_textbox.text,Ishi_mouse.x,Ishi_mouse.y,Ishi_mouse.leftButton,Ishi_mouse.midButton,Ishi_mouse.rightButton,Ishi_mouse.clicked_name,Ishi_loop.thisRepN,Ishi_loop.thisTrialN,Ishi_loop.thisN,Ishi_loop.thisIndex,Ishi_loop.ran,imageaddress,textbox.text,mouse_4.x,mouse_4.y,mouse_4.leftButton,mouse_4.midButton,mouse_4.rightButton,mouse_4.clicked_name,textbox_2.text,mouse_8.x,mouse_8.y,mouse_8.leftButton,mouse_8.midButton,mouse_8.rightButton,mouse_8.clicked_name,textbox_3.text,mouse_9.x,mouse_9.y,mouse_9.leftButton,mouse_9.midButton,mouse_9.rightButton,mouse_9.clicked_name,textbox_4.text,mouse_12.x,mouse_12.y,mouse_12.leftButton,mouse_12.midButton,mouse_12.rightButton,mouse_12.clicked_name,textbox_5.text,mouse_13.x,mouse_13.y,mouse_13.leftButton,mouse_13.midButton,mouse_13.rightButton,mouse_13.clicked_name,textbox_6.text,mouse_14.x,mouse_14.y,mouse_14.leftButton,mouse_14.midButton,mouse_14.rightButton,mouse_14.clicked_name,textbox_7.text,mouse_15.x,mouse_15.y,mouse_15.leftButton,mouse_15.midButton,mouse_15.rightButton,mouse_15.clicked_name
0,0,0,50,1,,5efe14f421bf492ccd0824e3,62c53a4f270234594f182ae0,2022-07-06_09h31.48.617,Colour_Asymmetry_Pilot,2022.1.3,Win32,59.84798612,62c50e9c1127f2cd403a315f,,,,,,,,,,,,,,,,,,,,,,,,,,,,,,,,,,,,,,,,,,,,,,,,,,,,,,,,,,,,,,,,,,,,,,,,,,,,,,,,,,,,,,,,,,,,,,,,,,,,,,,,,,,,,,,,,,,,,,,,,,,,,,,,,,,,,,,,,,,,,,,,,,,,,,,,,,,,,,,,,,,
0,1,1,54,1,,5efe14f421bf492ccd0824e3,62c53a4f270234594f182ae0,2022-07-06_09h31.48.617,Colour_Asymmetry_Pilot,2022.1.3,Win32,59.84798612,62c50e9c1127f2cd403a315f,,,,,,,,,,,,,,,,,,,,,,,,,,,,,,,,,,,,,,,,,,,,,,,,,,,,,,,,,,,,,,,,,,,,,,,,,,,,,,,,,,,,,,,,,,,,,,,,,,,,,,,,,,,,,,,,,,,,,,,,,,,,,,,,,,,,,,,,,,,,,,,,,,,,,,,,,,,,,,,,,,,
0,2,2,46,1,,5efe14f421bf492ccd0824e3,62c53a4f270234594f182ae0,2022-07-06_09h31.48.617,Colour_Asymmetry_Pilot,2022.1.3,Win32,59.84798612,62c50e9c1127f2cd403a315f,,,,,,,,,,,,,,,,,,,,,,,,,,,,,,,,,,,,,,,,,,,,,,,,,,,,,,,,,,,,,,,,,,,,,,,,,,,,,,,,,,,,,,,,,,,,,,,,,,,,,,,,,,,,,,,,,,,,,,,,,,,,,,,,,,,,,,,,,,,,,,,,,,,,,,,,,,,,,,,,,,,
0,3,3,2,1,,5efe14f421bf492ccd0824e3,62c53a4f270234594f182ae0,2022-07-06_09h31.48.617,Colour_Asymmetry_Pilot,2022.1.3,Win32,59.84798612,62c50e9c1127f2cd403a315f,,,,,,,,,,,,,,,,,,,,,,,,,,,,,,,,,,,,,,,,,,,,,,,,,,,,,,,,,,,,,,,,,,,,,,,,,,,,,,,,,,,,,,,,,,,,,,,,,,,,,,,,,,,,,,,,,,,,,,,,,,,,,,,,,,,,,,,,,,,,,,,,,,,,,,,,,,,,,,,,,,,
0,4,4,15,1,,5efe14f421bf492ccd0824e3,62c53a4f270234594f182ae0,2022-07-06_09h31.48.617,Colour_Asymmetry_Pilot,2022.1.3,Win32,59.84798612,62c50e9c1127f2cd403a315f,,,,,,,,,,,,,,,,,,,,,,,,,,,,,,,,,,,,,,,,,,,,,,,,,,,,,,,,,,,,,,,,,,,,,,,,,,,,,,,,,,,,,,,,,,,,,,,,,,,,,,,,,,,,,,,,,,,,,,,,,,,,,,,,,,,,,,,,,,,,,,,,,,,,,,,,,,,,,,,,,,,
0,5,5,64,1,,5efe14f421bf492ccd0824e3,62c53a4f270234594f182ae0,2022-07-06_09h31.48.617,Colour_Asymmetry_Pilot,2022.1.3,Win32,59.84798612,62c50e9c1127f2cd403a315f,,,,,,,,,,,,,,,,,,,,,,,,,,,,,,,,,,,,,,,,,,,,,,,,,,,,,,,,,,,,,,,,,,,,,,,,,,,,,,,,,,,,,,,,,,,,,,,,,,,,,,,,,,,,,,,,,,,,,,,,,,,,,,,,,,,,,,,,,,,,,,,,,,,,,,,,,,,,,,,,,,,
0,6,6,26,1,,5efe14f421bf492ccd0824e3,62c53a4f270234594f182ae0,2022-07-06_09h31.48.617,Colour_Asymmetry_Pilot,2022.1.3,Win32,59.84798612,62c50e9c1127f2cd403a315f,,,,,,,,,,,,,,,,,,,,,,,,,,,,,,,,,,,,,,,,,,,,,,,,,,,,,,,,,,,,,,,,,,,,,,,,,,,,,,,,,,,,,,,,,,,,,,,,,,,,,,,,,,,,,,,,,,,,,,,,,,,,,,,,,,,,,,,,,,,,,,,,,,,,,,,,,,,,,,,,,,,
0,7,7,89,1,,5efe14f421bf492ccd0824e3,62c53a4f270234594f182ae0,2022-07-06_09h31.48.617,Colour_Asymmetry_Pilot,2022.1.3,Win32,59.84798612,62c50e9c1127f2cd403a315f,,,,,,,,,,,,,,,,,,,,,,,,,,,,,,,,,,,,,,,,,,,,,,,,,,,,,,,,,,,,,,,,,,,,,,,,,,,,,,,,,,,,,,,,,,,,,,,,,,,,,,,,,,,,,,,,,,,,,,,,,,,,,,,,,,,,,,,,,,,,,,,,,,,,,,,,,,,,,,,,,,,
0,8,8,63,1,,5efe14f421bf492ccd0824e3,62c53a4f270234594f182ae0,2022-07-06_09h31.48.617,Colour_Asymmetry_Pilot,2022.1.3,Win32,59.84798612,62c50e9c1127f2cd403a315f,,,,,,,,,,,,,,,,,,,,,,,,,,,,,,,,,,,,,,,,,,,,,,,,,,,,,,,,,,,,,,,,,,,,,,,,,,,,,,,,,,,,,,,,,,,,,,,,,,,,,,,,,,,,,,,,,,,,,,,,,,,,,,,,,,,,,,,,,,,,,,,,,,,,,,,,,,,,,,,,,,,
0,9,9,9,1,,5efe14f421bf492ccd0824e3,62c53a4f270234594f182ae0,2022-07-06_09h31.48.617,Colour_Asymmetry_Pilot,2022.1.3,Win32,59.84798612,62c50e9c1127f2cd403a315f,,,,,,,,,,,,,,,,,,,,,,,,,,,,,,,,,,,,,,,,,,,,,,,,,,,,,,,,,,,,,,,,,,,,,,,,,,,,,,,,,,,,,,,,,,,,,,,,,,,,,,,,,,,,,,,,,,,,,,,,,,,,,,,,,,,,,,,,,,,,,,,,,,,,,,,,,,,,,,,,,,,
0,10,10,14,1,,5efe14f421bf492ccd0824e3,62c53a4f270234594f182ae0,2022-07-06_09h31.48.617,Colour_Asymmetry_Pilot,2022.1.3,Win32,59.84798612,62c50e9c1127f2cd403a315f,,,,,,,,,,,,,,,,,,,,,,,,,,,,,,,,,,,,,,,,,,,,,,,,,,,,,,,,,,,,,,,,,,,,,,,,,,,,,,,,,,,,,,,,,,,,,,,,,,,,,,,,,,,,,,,,,,,,,,,,,,,,,,,,,,,,,,,,,,,,,,,,,,,,,,,,,,,,,,,,,,,
0,11,11,47,1,,5efe14f421bf492ccd0824e3,62c53a4f270234594f182ae0,2022-07-06_09h31.48.617,Colour_Asymmetry_Pilot,2022.1.3,Win32,59.84798612,62c50e9c1127f2cd403a315f,,,,,,,,,,,,,,,,,,,,,,,,,,,,,,,,,,,,,,,,,,,,,,,,,,,,,,,,,,,,,,,,,,,,,,,,,,,,,,,,,,,,,,,,,,,,,,,,,,,,,,,,,,,,,,,,,,,,,,,,,,,,,,,,,,,,,,,,,,,,,,,,,,,,,,,,,,,,,,,,,,,
0,12,12,79,1,,5efe14f421bf492ccd0824e3,62c53a4f270234594f182ae0,2022-07-06_09h31.48.617,Colour_Asymmetry_Pilot,2022.1.3,Win32,59.84798612,62c50e9c1127f2cd403a315f,,,,,,,,,,,,,,,,,,,,,,,,,,,,,,,,,,,,,,,,,,,,,,,,,,,,,,,,,,,,,,,,,,,,,,,,,,,,,,,,,,,,,,,,,,,,,,,,,,,,,,,,,,,,,,,,,,,,,,,,,,,,,,,,,,,,,,,,,,,,,,,,,,,,,,,,,,,,,,,,,,,
0,13,13,62,1,,5efe14f421bf492ccd0824e3,62c53a4f270234594f182ae0,2022-07-06_09h31.48.617,Colour_Asymmetry_Pilot,2022.1.3,Win32,59.84798612,62c50e9c1127f2cd403a315f,,,,,,,,,,,,,,,,,,,,,,,,,,,,,,,,,,,,,,,,,,,,,,,,,,,,,,,,,,,,,,,,,,,,,,,,,,,,,,,,,,,,,,,,,,,,,,,,,,,,,,,,,,,,,,,,,,,,,,,,,,,,,,,,,,,,,,,,,,,,,,,,,,,,,,,,,,,,,,,,,,,
0,14,14,34,1,,5efe14f421bf492ccd0824e3,62c53a4f270234594f182ae0,2022-07-06_09h31.48.617,Colour_Asymmetry_Pilot,2022.1.3,Win32,59.84798612,62c50e9c1127f2cd403a315f,,,,,,,,,,,,,,,,,,,,,,,,,,,,,,,,,,,,,,,,,,,,,,,,,,,,,,,,,,,,,,,,,,,,,,,,,,,,,,,,,,,,,,,,,,,,,,,,,,,,,,,,,,,,,,,,,,,,,,,,,,,,,,,,,,,,,,,,,,,,,,,,,,,,,,,,,,,,,,,,,,,
0,15,15,68,1,,5efe14f421bf492ccd0824e3,62c53a4f270234594f182ae0,2022-07-06_09h31.48.617,Colour_Asymmetry_Pilot,2022.1.3,Win32,59.84798612,62c50e9c1127f2cd403a315f,,,,,,,,,,,,,,,,,,,,,,,,,,,,,,,,,,,,,,,,,,,,,,,,,,,,,,,,,,,,,,,,,,,,,,,,,,,,,,,,,,,,,,,,,,,,,,,,,,,,,,,,,,,,,,,,,,,,,,,,,,,,,,,,,,,,,,,,,,,,,,,,,,,,,,,,,,,,,,,,,,,
0,16,16,90,1,,5efe14f421bf492ccd0824e3,62c53a4f270234594f182ae0,2022-07-06_09h31.48.617,Colour_Asymmetry_Pilot,2022.1.3,Win32,59.84798612,62c50e9c1127f2cd403a315f,,,,,,,,,,,,,,,,,,,,,,,,,,,,,,,,,,,,,,,,,,,,,,,,,,,,,,,,,,,,,,,,,,,,,,,,,,,,,,,,,,,,,,,,,,,,,,,,,,,,,,,,,,,,,,,,,,,,,,,,,,,,,,,,,,,,,,,,,,,,,,,,,,,,,,,,,,,,,,,,,,,
0,17,17,1,1,,5efe14f421bf492ccd0824e3,62c53a4f270234594f182ae0,2022-07-06_09h31.48.617,Colour_Asymmetry_Pilot,2022.1.3,Win32,59.84798612,62c50e9c1127f2cd403a315f,,,,,,,,,,,,,,,,,,,,,,,,,,,,,,,,,,,,,,,,,,,,,,,,,,,,,,,,,,,,,,,,,,,,,,,,,,,,,,,,,,,,,,,,,,,,,,,,,,,,,,,,,,,,,,,,,,,,,,,,,,,,,,,,,,,,,,,,,,,,,,,,,,,,,,,,,,,,,,,,,,,
0,18,18,60,1,,5efe14f421bf492ccd0824e3,62c53a4f270234594f182ae0,2022-07-06_09h31.48.617,Colour_Asymmetry_Pilot,2022.1.3,Win32,59.84798612,62c50e9c1127f2cd403a315f,,,,,,,,,,,,,,,,,,,,,,,,,,,,,,,,,,,,,,,,,,,,,,,,,,,,,,,,,,,,,,,,,,,,,,,,,,,,,,,,,,,,,,,,,,,,,,,,,,,,,,,,,,,,,,,,,,,,,,,,,,,,,,,,,,,,,,,,,,,,,,,,,,,,,,,,,,,,,,,,,,,
0,19,19,57,1,,5efe14f421bf492ccd0824e3,62c53a4f270234594f182ae0,2022-07-06_09h31.48.617,Colour_Asymmetry_Pilot,2022.1.3,Win32,59.84798612,62c50e9c1127f2cd403a315f,,,,,,,,,,,,,,,,,,,,,,,,,,,,,,,,,,,,,,,,,,,,,,,,,,,,,,,,,,,,,,,,,,,,,,,,,,,,,,,,,,,,,,,,,,,,,,,,,,,,,,,,,,,,,,,,,,,,,,,,,,,,,,,,,,,,,,,,,,,,,,,,,,,,,,,,,,,,,,,,,,,
0,20,20,44,1,,5efe14f421bf492ccd0824e3,62c53a4f270234594f182ae0,2022-07-06_09h31.48.617,Colour_Asymmetry_Pilot,2022.1.3,Win32,59.84798612,62c50e9c1127f2cd403a315f,,,,,,,,,,,,,,,,,,,,,,,,,,,,,,,,,,,,,,,,,,,,,,,,,,,,,,,,,,,,,,,,,,,,,,,,,,,,,,,,,,,,,,,,,,,,,,,,,,,,,,,,,,,,,,,,,,,,,,,,,,,,,,,,,,,,,,,,,,,,,,,,,,,,,,,,,,,,,,,,,,,
0,21,21,32,1,,5efe14f421bf492ccd0824e3,62c53a4f270234594f182ae0,2022-07-06_09h31.48.617,Colour_Asymmetry_Pilot,2022.1.3,Win32,59.84798612,62c50e9c1127f2cd403a315f,,,,,,,,,,,,,,,,,,,,,,,,,,,,,,,,,,,,,,,,,,,,,,,,,,,,,,,,,,,,,,,,,,,,,,,,,,,,,,,,,,,,,,,,,,,,,,,,,,,,,,,,,,,,,,,,,,,,,,,,,,,,,,,,,,,,,,,,,,,,,,,,,,,,,,,,,,,,,,,,,,,
0,22,22,53,1,,5efe14f421bf492ccd0824e3,62c53a4f270234594f182ae0,2022-07-06_09h31.48.617,Colour_Asymmetry_Pilot,2022.1.3,Win32,59.84798612,62c50e9c1127f2cd403a315f,,,,,,,,,,,,,,,,,,,,,,,,,,,,,,,,,,,,,,,,,,,,,,,,,,,,,,,,,,,,,,,,,,,,,,,,,,,,,,,,,,,,,,,,,,,,,,,,,,,,,,,,,,,,,,,,,,,,,,,,,,,,,,,,,,,,,,,,,,,,,,,,,,,,,,,,,,,,,,,,,,,
0,23,23,61,1,,5efe14f421bf492ccd0824e3,62c53a4f270234594f182ae0,2022-07-06_09h31.48.617,Colour_Asymmetry_Pilot,2022.1.3,Win32,59.84798612,62c50e9c1127f2cd403a315f,,,,,,,,,,,,,,,,,,,,,,,,,,,,,,,,,,,,,,,,,,,,,,,,,,,,,,,,,,,,,,,,,,,,,,,,,,,,,,,,,,,,,,,,,,,,,,,,,,,,,,,,,,,,,,,,,,,,,,,,,,,,,,,,,,,,,,,,,,,,,,,,,,,,,,,,,,,,,,,,,,,
0,24,24,39,1,,5efe14f421bf492ccd0824e3,62c53a4f270234594f182ae0,2022-07-06_09h31.48.617,Colour_Asymmetry_Pilot,2022.1.3,Win32,59.84798612,62c50e9c1127f2cd403a315f,,,,,,,,,,,,,,,,,,,,,,,,,,,,,,,,,,,,,,,,,,,,,,,,,,,,,,,,,,,,,,,,,,,,,,,,,,,,,,,,,,,,,,,,,,,,,,,,,,,,,,,,,,,,,,,,,,,,,,,,,,,,,,,,,,,,,,,,,,,,,,,,,,,,,,,,,,,,,,,,,,,
0,25,25,69,1,,5efe14f421bf492ccd0824e3,62c53a4f270234594f182ae0,2022-07-06_09h31.48.617,Colour_Asymmetry_Pilot,2022.1.3,Win32,59.84798612,62c50e9c1127f2cd403a315f,,,,,,,,,,,,,,,,,,,,,,,,,,,,,,,,,,,,,,,,,,,,,,,,,,,,,,,,,,,,,,,,,,,,,,,,,,,,,,,,,,,,,,,,,,,,,,,,,,,,,,,,,,,,,,,,,,,,,,,,,,,,,,,,,,,,,,,,,,,,,,,,,,,,,,,,,,,,,,,,,,,
0,26,26,35,1,,5efe14f421bf492ccd0824e3,62c53a4f270234594f182ae0,2022-07-06_09h31.48.617,Colour_Asymmetry_Pilot,2022.1.3,Win32,59.84798612,62c50e9c1127f2cd403a315f,,,,,,,,,,,,,,,,,,,,,,,,,,,,,,,,,,,,,,,,,,,,,,,,,,,,,,,,,,,,,,,,,,,,,,,,,,,,,,,,,,,,,,,,,,,,,,,,,,,,,,,,,,,,,,,,,,,,,,,,,,,,,,,,,,,,,,,,,,,,,,,,,,,,,,,,,,,,,,,,,,,
0,27,27,56,1,,5efe14f421bf492ccd0824e3,62c53a4f270234594f182ae0,2022-07-06_09h31.48.617,Colour_Asymmetry_Pilot,2022.1.3,Win32,59.84798612,62c50e9c1127f2cd403a315f,,,,,,,,,,,,,,,,,,,,,,,,,,,,,,,,,,,,,,,,,,,,,,,,,,,,,,,,,,,,,,,,,,,,,,,,,,,,,,,,,,,,,,,,,,,,,,,,,,,,,,,,,,,,,,,,,,,,,,,,,,,,,,,,,,,,,,,,,,,,,,,,,,,,,,,,,,,,,,,,,,,
0,28,28,70,1,,5efe14f421bf492ccd0824e3,62c53a4f270234594f182ae0,2022-07-06_09h31.48.617,Colour_Asymmetry_Pilot,2022.1.3,Win32,59.84798612,62c50e9c1127f2cd403a315f,,,,,,,,,,,,,,,,,,,,,,,,,,,,,,,,,,,,,,,,,,,,,,,,,,,,,,,,,,,,,,,,,,,,,,,,,,,,,,,,,,,,,,,,,,,,,,,,,,,,,,,,,,,,,,,,,,,,,,,,,,,,,,,,,,,,,,,,,,,,,,,,,,,,,,,,,,,,,,,,,,,
0,29,29,11,1,,5efe14f421bf492ccd0824e3,62c53a4f270234594f182ae0,2022-07-06_09h31.48.617,Colour_Asymmetry_Pilot,2022.1.3,Win32,59.84798612,62c50e9c1127f2cd403a315f,,,,,,,,,,,,,,,,,,,,,,,,,,,,,,,,,,,,,,,,,,,,,,,,,,,,,,,,,,,,,,,,,,,,,,,,,,,,,,,,,,,,,,,,,,,,,,,,,,,,,,,,,,,,,,,,,,,,,,,,,,,,,,,,,,,,,,,,,,,,,,,,,,,,,,,,,,,,,,,,,,,
0,30,30,25,1,,5efe14f421bf492ccd0824e3,62c53a4f270234594f182ae0,2022-07-06_09h31.48.617,Colour_Asymmetry_Pilot,2022.1.3,Win32,59.84798612,62c50e9c1127f2cd403a315f,,,,,,,,,,,,,,,,,,,,,,,,,,,,,,,,,,,,,,,,,,,,,,,,,,,,,,,,,,,,,,,,,,,,,,,,,,,,,,,,,,,,,,,,,,,,,,,,,,,,,,,,,,,,,,,,,,,,,,,,,,,,,,,,,,,,,,,,,,,,,,,,,,,,,,,,,,,,,,,,,,,
0,31,31,40,1,,5efe14f421bf492ccd0824e3,62c53a4f270234594f182ae0,2022-07-06_09h31.48.617,Colour_Asymmetry_Pilot,2022.1.3,Win32,59.84798612,62c50e9c1127f2cd403a315f,,,,,,,,,,,,,,,,,,,,,,,,,,,,,,,,,,,,,,,,,,,,,,,,,,,,,,,,,,,,,,,,,,,,,,,,,,,,,,,,,,,,,,,,,,,,,,,,,,,,,,,,,,,,,,,,,,,,,,,,,,,,,,,,,,,,,,,,,,,,,,,,,,,,,,,,,,,,,,,,,,,
0,32,32,8,1,,5efe14f421bf492ccd0824e3,62c53a4f270234594f182ae0,2022-07-06_09h31.48.617,Colour_Asymmetry_Pilot,2022.1.3,Win32,59.84798612,62c50e9c1127f2cd403a315f,,,,,,,,,,,,,,,,,,,,,,,,,,,,,,,,,,,,,,,,,,,,,,,,,,,,,,,,,,,,,,,,,,,,,,,,,,,,,,,,,,,,,,,,,,,,,,,,,,,,,,,,,,,,,,,,,,,,,,,,,,,,,,,,,,,,,,,,,,,,,,,,,,,,,,,,,,,,,,,,,,,
0,33,33,75,1,,5efe14f421bf492ccd0824e3,62c53a4f270234594f182ae0,2022-07-06_09h31.48.617,Colour_Asymmetry_Pilot,2022.1.3,Win32,59.84798612,62c50e9c1127f2cd403a315f,,,,,,,,,,,,,,,,,,,,,,,,,,,,,,,,,,,,,,,,,,,,,,,,,,,,,,,,,,,,,,,,,,,,,,,,,,,,,,,,,,,,,,,,,,,,,,,,,,,,,,,,,,,,,,,,,,,,,,,,,,,,,,,,,,,,,,,,,,,,,,,,,,,,,,,,,,,,,,,,,,,
0,34,34,86,1,,5efe14f421bf492ccd0824e3,62c53a4f270234594f182ae0,2022-07-06_09h31.48.617,Colour_Asymmetry_Pilot,2022.1.3,Win32,59.84798612,62c50e9c1127f2cd403a315f,,,,,,,,,,,,,,,,,,,,,,,,,,,,,,,,,,,,,,,,,,,,,,,,,,,,,,,,,,,,,,,,,,,,,,,,,,,,,,,,,,,,,,,,,,,,,,,,,,,,,,,,,,,,,,,,,,,,,,,,,,,,,,,,,,,,,,,,,,,,,,,,,,,,,,,,,,,,,,,,,,,
0,35,35,33,1,,5efe14f421bf492ccd0824e3,62c53a4f270234594f182ae0,2022-07-06_09h31.48.617,Colour_Asymmetry_Pilot,2022.1.3,Win32,59.84798612,62c50e9c1127f2cd403a315f,,,,,,,,,,,,,,,,,,,,,,,,,,,,,,,,,,,,,,,,,,,,,,,,,,,,,,,,,,,,,,,,,,,,,,,,,,,,,,,,,,,,,,,,,,,,,,,,,,,,,,,,,,,,,,,,,,,,,,,,,,,,,,,,,,,,,,,,,,,,,,,,,,,,,,,,,,,,,,,,,,,
0,36,36,65,1,,5efe14f421bf492ccd0824e3,62c53a4f270234594f182ae0,2022-07-06_09h31.48.617,Colour_Asymmetry_Pilot,2022.1.3,Win32,59.84798612,62c50e9c1127f2cd403a315f,,,,,,,,,,,,,,,,,,,,,,,,,,,,,,,,,,,,,,,,,,,,,,,,,,,,,,,,,,,,,,,,,,,,,,,,,,,,,,,,,,,,,,,,,,,,,,,,,,,,,,,,,,,,,,,,,,,,,,,,,,,,,,,,,,,,,,,,,,,,,,,,,,,,,,,,,,,,,,,,,,,
0,37,37,49,1,,5efe14f421bf492ccd0824e3,62c53a4f270234594f182ae0,2022-07-06_09h31.48.617,Colour_Asymmetry_Pilot,2022.1.3,Win32,59.84798612,62c50e9c1127f2cd403a315f,,,,,,,,,,,,,,,,,,,,,,,,,,,,,,,,,,,,,,,,,,,,,,,,,,,,,,,,,,,,,,,,,,,,,,,,,,,,,,,,,,,,,,,,,,,,,,,,,,,,,,,,,,,,,,,,,,,,,,,,,,,,,,,,,,,,,,,,,,,,,,,,,,,,,,,,,,,,,,,,,,,
0,38,38,77,1,,5efe14f421bf492ccd0824e3,62c53a4f270234594f182ae0,2022-07-06_09h31.48.617,Colour_Asymmetry_Pilot,2022.1.3,Win32,59.84798612,62c50e9c1127f2cd403a315f,,,,,,,,,,,,,,,,,,,,,,,,,,,,,,,,,,,,,,,,,,,,,,,,,,,,,,,,,,,,,,,,,,,,,,,,,,,,,,,,,,,,,,,,,,,,,,,,,,,,,,,,,,,,,,,,,,,,,,,,,,,,,,,,,,,,,,,,,,,,,,,,,,,,,,,,,,,,,,,,,,,
0,39,39,81,1,,5efe14f421bf492ccd0824e3,62c53a4f270234594f182ae0,2022-07-06_09h31.48.617,Colour_Asymmetry_Pilot,2022.1.3,Win32,59.84798612,62c50e9c1127f2cd403a315f,,,,,,,,,,,,,,,,,,,,,,,,,,,,,,,,,,,,,,,,,,,,,,,,,,,,,,,,,,,,,,,,,,,,,,,,,,,,,,,,,,,,,,,,,,,,,,,,,,,,,,,,,,,,,,,,,,,,,,,,,,,,,,,,,,,,,,,,,,,,,,,,,,,,,,,,,,,,,,,,,,,
0,40,40,58,1,,5efe14f421bf492ccd0824e3,62c53a4f270234594f182ae0,2022-07-06_09h31.48.617,Colour_Asymmetry_Pilot,2022.1.3,Win32,59.84798612,62c50e9c1127f2cd403a315f,,,,,,,,,,,,,,,,,,,,,,,,,,,,,,,,,,,,,,,,,,,,,,,,,,,,,,,,,,,,,,,,,,,,,,,,,,,,,,,,,,,,,,,,,,,,,,,,,,,,,,,,,,,,,,,,,,,,,,,,,,,,,,,,,,,,,,,,,,,,,,,,,,,,,,,,,,,,,,,,,,,
0,41,41,52,1,,5efe14f421bf492ccd0824e3,62c53a4f270234594f182ae0,2022-07-06_09h31.48.617,Colour_Asymmetry_Pilot,2022.1.3,Win32,59.84798612,62c50e9c1127f2cd403a315f,,,,,,,,,,,,,,,,,,,,,,,,,,,,,,,,,,,,,,,,,,,,,,,,,,,,,,,,,,,,,,,,,,,,,,,,,,,,,,,,,,,,,,,,,,,,,,,,,,,,,,,,,,,,,,,,,,,,,,,,,,,,,,,,,,,,,,,,,,,,,,,,,,,,,,,,,,,,,,,,,,,
0,42,42,72,1,,5efe14f421bf492ccd0824e3,62c53a4f270234594f182ae0,2022-07-06_09h31.48.617,Colour_Asymmetry_Pilot,2022.1.3,Win32,59.84798612,62c50e9c1127f2cd403a315f,,,,,,,,,,,,,,,,,,,,,,,,,,,,,,,,,,,,,,,,,,,,,,,,,,,,,,,,,,,,,,,,,,,,,,,,,,,,,,,,,,,,,,,,,,,,,,,,,,,,,,,,,,,,,,,,,,,,,,,,,,,,,,,,,,,,,,,,,,,,,,,,,,,,,,,,,,,,,,,,,,,
0,43,43,73,1,,5efe14f421bf492ccd0824e3,62c53a4f270234594f182ae0,2022-07-06_09h31.48.617,Colour_Asymmetry_Pilot,2022.1.3,Win32,59.84798612,62c50e9c1127f2cd403a315f,,,,,,,,,,,,,,,,,,,,,,,,,,,,,,,,,,,,,,,,,,,,,,,,,,,,,,,,,,,,,,,,,,,,,,,,,,,,,,,,,,,,,,,,,,,,,,,,,,,,,,,,,,,,,,,,,,,,,,,,,,,,,,,,,,,,,,,,,,,,,,,,,,,,,,,,,,,,,,,,,,,
0,44,44,31,1,,5efe14f421bf492ccd0824e3,62c53a4f270234594f182ae0,2022-07-06_09h31.48.617,Colour_Asymmetry_Pilot,2022.1.3,Win32,59.84798612,62c50e9c1127f2cd403a315f,,,,,,,,,,,,,,,,,,,,,,,,,,,,,,,,,,,,,,,,,,,,,,,,,,,,,,,,,,,,,,,,,,,,,,,,,,,,,,,,,,,,,,,,,,,,,,,,,,,,,,,,,,,,,,,,,,,,,,,,,,,,,,,,,,,,,,,,,,,,,,,,,,,,,,,,,,,,,,,,,,,
0,45,45,37,1,,5efe14f421bf492ccd0824e3,62c53a4f270234594f182ae0,2022-07-06_09h31.48.617,Colour_Asymmetry_Pilot,2022.1.3,Win32,59.84798612,62c50e9c1127f2cd403a315f,,,,,,,,,,,,,,,,,,,,,,,,,,,,,,,,,,,,,,,,,,,,,,,,,,,,,,,,,,,,,,,,,,,,,,,,,,,,,,,,,,,,,,,,,,,,,,,,,,,,,,,,,,,,,,,,,,,,,,,,,,,,,,,,,,,,,,,,,,,,,,,,,,,,,,,,,,,,,,,,,,,
0,46,46,19,1,,5efe14f421bf492ccd0824e3,62c53a4f270234594f182ae0,2022-07-06_09h31.48.617,Colour_Asymmetry_Pilot,2022.1.3,Win32,59.84798612,62c50e9c1127f2cd403a315f,,,,,,,,,,,,,,,,,,,,,,,,,,,,,,,,,,,,,,,,,,,,,,,,,,,,,,,,,,,,,,,,,,,,,,,,,,,,,,,,,,,,,,,,,,,,,,,,,,,,,,,,,,,,,,,,,,,,,,,,,,,,,,,,,,,,,,,,,,,,,,,,,,,,,,,,,,,,,,,,,,,
0,47,47,66,1,,5efe14f421bf492ccd0824e3,62c53a4f270234594f182ae0,2022-07-06_09h31.48.617,Colour_Asymmetry_Pilot,2022.1.3,Win32,59.84798612,62c50e9c1127f2cd403a315f,,,,,,,,,,,,,,,,,,,,,,,,,,,,,,,,,,,,,,,,,,,,,,,,,,,,,,,,,,,,,,,,,,,,,,,,,,,,,,,,,,,,,,,,,,,,,,,,,,,,,,,,,,,,,,,,,,,,,,,,,,,,,,,,,,,,,,,,,,,,,,,,,,,,,,,,,,,,,,,,,,,
0,48,48,51,1,,5efe14f421bf492ccd0824e3,62c53a4f270234594f182ae0,2022-07-06_09h31.48.617,Colour_Asymmetry_Pilot,2022.1.3,Win32,59.84798612,62c50e9c1127f2cd403a315f,,,,,,,,,,,,,,,,,,,,,,,,,,,,,,,,,,,,,,,,,,,,,,,,,,,,,,,,,,,,,,,,,,,,,,,,,,,,,,,,,,,,,,,,,,,,,,,,,,,,,,,,,,,,,,,,,,,,,,,,,,,,,,,,,,,,,,,,,,,,,,,,,,,,,,,,,,,,,,,,,,,
0,49,49,29,1,,5efe14f421bf492ccd0824e3,62c53a4f270234594f182ae0,2022-07-06_09h31.48.617,Colour_Asymmetry_Pilot,2022.1.3,Win32,59.84798612,62c50e9c1127f2cd403a315f,,,,,,,,,,,,,,,,,,,,,,,,,,,,,,,,,,,,,,,,,,,,,,,,,,,,,,,,,,,,,,,,,,,,,,,,,,,,,,,,,,,,,,,,,,,,,,,,,,,,,,,,,,,,,,,,,,,,,,,,,,,,,,,,,,,,,,,,,,,,,,,,,,,,,,,,,,,,,,,,,,,
0,50,50,84,1,,5efe14f421bf492ccd0824e3,62c53a4f270234594f182ae0,2022-07-06_09h31.48.617,Colour_Asymmetry_Pilot,2022.1.3,Win32,59.84798612,62c50e9c1127f2cd403a315f,,,,,,,,,,,,,,,,,,,,,,,,,,,,,,,,,,,,,,,,,,,,,,,,,,,,,,,,,,,,,,,,,,,,,,,,,,,,,,,,,,,,,,,,,,,,,,,,,,,,,,,,,,,,,,,,,,,,,,,,,,,,,,,,,,,,,,,,,,,,,,,,,,,,,,,,,,,,,,,,,,,
0,51,51,38,1,,5efe14f421bf492ccd0824e3,62c53a4f270234594f182ae0,2022-07-06_09h31.48.617,Colour_Asymmetry_Pilot,2022.1.3,Win32,59.84798612,62c50e9c1127f2cd403a315f,,,,,,,,,,,,,,,,,,,,,,,,,,,,,,,,,,,,,,,,,,,,,,,,,,,,,,,,,,,,,,,,,,,,,,,,,,,,,,,,,,,,,,,,,,,,,,,,,,,,,,,,,,,,,,,,,,,,,,,,,,,,,,,,,,,,,,,,,,,,,,,,,,,,,,,,,,,,,,,,,,,
0,52,52,92,1,,5efe14f421bf492ccd0824e3,62c53a4f270234594f182ae0,2022-07-06_09h31.48.617,Colour_Asymmetry_Pilot,2022.1.3,Win32,59.84798612,62c50e9c1127f2cd403a315f,,,,,,,,,,,,,,,,,,,,,,,,,,,,,,,,,,,,,,,,,,,,,,,,,,,,,,,,,,,,,,,,,,,,,,,,,,,,,,,,,,,,,,,,,,,,,,,,,,,,,,,,,,,,,,,,,,,,,,,,,,,,,,,,,,,,,,,,,,,,,,,,,,,,,,,,,,,,,,,,,,,
0,53,53,17,1,,5efe14f421bf492ccd0824e3,62c53a4f270234594f182ae0,2022-07-06_09h31.48.617,Colour_Asymmetry_Pilot,2022.1.3,Win32,59.84798612,62c50e9c1127f2cd403a315f,,,,,,,,,,,,,,,,,,,,,,,,,,,,,,,,,,,,,,,,,,,,,,,,,,,,,,,,,,,,,,,,,,,,,,,,,,,,,,,,,,,,,,,,,,,,,,,,,,,,,,,,,,,,,,,,,,,,,,,,,,,,,,,,,,,,,,,,,,,,,,,,,,,,,,,,,,,,,,,,,,,
0,54,54,85,1,,5efe14f421bf492ccd0824e3,62c53a4f270234594f182ae0,2022-07-06_09h31.48.617,Colour_Asymmetry_Pilot,2022.1.3,Win32,59.84798612,62c50e9c1127f2cd403a315f,,,,,,,,,,,,,,,,,,,,,,,,,,,,,,,,,,,,,,,,,,,,,,,,,,,,,,,,,,,,,,,,,,,,,,,,,,,,,,,,,,,,,,,,,,,,,,,,,,,,,,,,,,,,,,,,,,,,,,,,,,,,,,,,,,,,,,,,,,,,,,,,,,,,,,,,,,,,,,,,,,,
0,55,55,12,1,,5efe14f421bf492ccd0824e3,62c53a4f270234594f182ae0,2022-07-06_09h31.48.617,Colour_Asymmetry_Pilot,2022.1.3,Win32,59.84798612,62c50e9c1127f2cd403a315f,,,,,,,,,,,,,,,,,,,,,,,,,,,,,,,,,,,,,,,,,,,,,,,,,,,,,,,,,,,,,,,,,,,,,,,,,,,,,,,,,,,,,,,,,,,,,,,,,,,,,,,,,,,,,,,,,,,,,,,,,,,,,,,,,,,,,,,,,,,,,,,,,,,,,,,,,,,,,,,,,,,
0,56,56,82,1,,5efe14f421bf492ccd0824e3,62c53a4f270234594f182ae0,2022-07-06_09h31.48.617,Colour_Asymmetry_Pilot,2022.1.3,Win32,59.84798612,62c50e9c1127f2cd403a315f,,,,,,,,,,,,,,,,,,,,,,,,,,,,,,,,,,,,,,,,,,,,,,,,,,,,,,,,,,,,,,,,,,,,,,,,,,,,,,,,,,,,,,,,,,,,,,,,,,,,,,,,,,,,,,,,,,,,,,,,,,,,,,,,,,,,,,,,,,,,,,,,,,,,,,,,,,,,,,,,,,,
0,57,57,59,1,,5efe14f421bf492ccd0824e3,62c53a4f270234594f182ae0,2022-07-06_09h31.48.617,Colour_Asymmetry_Pilot,2022.1.3,Win32,59.84798612,62c50e9c1127f2cd403a315f,,,,,,,,,,,,,,,,,,,,,,,,,,,,,,,,,,,,,,,,,,,,,,,,,,,,,,,,,,,,,,,,,,,,,,,,,,,,,,,,,,,,,,,,,,,,,,,,,,,,,,,,,,,,,,,,,,,,,,,,,,,,,,,,,,,,,,,,,,,,,,,,,,,,,,,,,,,,,,,,,,,
0,58,58,16,1,,5efe14f421bf492ccd0824e3,62c53a4f270234594f182ae0,2022-07-06_09h31.48.617,Colour_Asymmetry_Pilot,2022.1.3,Win32,59.84798612,62c50e9c1127f2cd403a315f,,,,,,,,,,,,,,,,,,,,,,,,,,,,,,,,,,,,,,,,,,,,,,,,,,,,,,,,,,,,,,,,,,,,,,,,,,,,,,,,,,,,,,,,,,,,,,,,,,,,,,,,,,,,,,,,,,,,,,,,,,,,,,,,,,,,,,,,,,,,,,,,,,,,,,,,,,,,,,,,,,,
0,59,59,20,1,,5efe14f421bf492ccd0824e3,62c53a4f270234594f182ae0,2022-07-06_09h31.48.617,Colour_Asymmetry_Pilot,2022.1.3,Win32,59.84798612,62c50e9c1127f2cd403a315f,,,,,,,,,,,,,,,,,,,,,,,,,,,,,,,,,,,,,,,,,,,,,,,,,,,,,,,,,,,,,,,,,,,,,,,,,,,,,,,,,,,,,,,,,,,,,,,,,,,,,,,,,,,,,,,,,,,,,,,,,,,,,,,,,,,,,,,,,,,,,,,,,,,,,,,,,,,,,,,,,,,
0,60,60,74,1,,5efe14f421bf492ccd0824e3,62c53a4f270234594f182ae0,2022-07-06_09h31.48.617,Colour_Asymmetry_Pilot,2022.1.3,Win32,59.84798612,62c50e9c1127f2cd403a315f,,,,,,,,,,,,,,,,,,,,,,,,,,,,,,,,,,,,,,,,,,,,,,,,,,,,,,,,,,,,,,,,,,,,,,,,,,,,,,,,,,,,,,,,,,,,,,,,,,,,,,,,,,,,,,,,,,,,,,,,,,,,,,,,,,,,,,,,,,,,,,,,,,,,,,,,,,,,,,,,,,,
0,61,61,88,1,,5efe14f421bf492ccd0824e3,62c53a4f270234594f182ae0,2022-07-06_09h31.48.617,Colour_Asymmetry_Pilot,2022.1.3,Win32,59.84798612,62c50e9c1127f2cd403a315f,,,,,,,,,,,,,,,,,,,,,,,,,,,,,,,,,,,,,,,,,,,,,,,,,,,,,,,,,,,,,,,,,,,,,,,,,,,,,,,,,,,,,,,,,,,,,,,,,,,,,,,,,,,,,,,,,,,,,,,,,,,,,,,,,,,,,,,,,,,,,,,,,,,,,,,,,,,,,,,,,,,
0,62,62,0,1,,5efe14f421bf492ccd0824e3,62c53a4f270234594f182ae0,2022-07-06_09h31.48.617,Colour_Asymmetry_Pilot,2022.1.3,Win32,59.84798612,62c50e9c1127f2cd403a315f,,,,,,,,,,,,,,,,,,,,,,,,,,,,,,,,,,,,,,,,,,,,,,,,,,,,,,,,,,,,,,,,,,,,,,,,,,,,,,,,,,,,,,,,,,,,,,,,,,,,,,,,,,,,,,,,,,,,,,,,,,,,,,,,,,,,,,,,,,,,,,,,,,,,,,,,,,,,,,,,,,,
0,63,63,5,1,,5efe14f421bf492ccd0824e3,62c53a4f270234594f182ae0,2022-07-06_09h31.48.617,Colour_Asymmetry_Pilot,2022.1.3,Win32,59.84798612,62c50e9c1127f2cd403a315f,,,,,,,,,,,,,,,,,,,,,,,,,,,,,,,,,,,,,,,,,,,,,,,,,,,,,,,,,,,,,,,,,,,,,,,,,,,,,,,,,,,,,,,,,,,,,,,,,,,,,,,,,,,,,,,,,,,,,,,,,,,,,,,,,,,,,,,,,,,,,,,,,,,,,,,,,,,,,,,,,,,
0,64,64,21,1,,5efe14f421bf492ccd0824e3,62c53a4f270234594f182ae0,2022-07-06_09h31.48.617,Colour_Asymmetry_Pilot,2022.1.3,Win32,59.84798612,62c50e9c1127f2cd403a315f,,,,,,,,,,,,,,,,,,,,,,,,,,,,,,,,,,,,,,,,,,,,,,,,,,,,,,,,,,,,,,,,,,,,,,,,,,,,,,,,,,,,,,,,,,,,,,,,,,,,,,,,,,,,,,,,,,,,,,,,,,,,,,,,,,,,,,,,,,,,,,,,,,,,,,,,,,,,,,,,,,,
0,65,65,41,1,,5efe14f421bf492ccd0824e3,62c53a4f270234594f182ae0,2022-07-06_09h31.48.617,Colour_Asymmetry_Pilot,2022.1.3,Win32,59.84798612,62c50e9c1127f2cd403a315f,,,,,,,,,,,,,,,,,,,,,,,,,,,,,,,,,,,,,,,,,,,,,,,,,,,,,,,,,,,,,,,,,,,,,,,,,,,,,,,,,,,,,,,,,,,,,,,,,,,,,,,,,,,,,,,,,,,,,,,,,,,,,,,,,,,,,,,,,,,,,,,,,,,,,,,,,,,,,,,,,,,
0,66,66,87,1,,5efe14f421bf492ccd0824e3,62c53a4f270234594f182ae0,2022-07-06_09h31.48.617,Colour_Asymmetry_Pilot,2022.1.3,Win32,59.84798612,62c50e9c1127f2cd403a315f,,,,,,,,,,,,,,,,,,,,,,,,,,,,,,,,,,,,,,,,,,,,,,,,,,,,,,,,,,,,,,,,,,,,,,,,,,,,,,,,,,,,,,,,,,,,,,,,,,,,,,,,,,,,,,,,,,,,,,,,,,,,,,,,,,,,,,,,,,,,,,,,,,,,,,,,,,,,,,,,,,,
0,67,67,91,1,,5efe14f421bf492ccd0824e3,62c53a4f270234594f182ae0,2022-07-06_09h31.48.617,Colour_Asymmetry_Pilot,2022.1.3,Win32,59.84798612,62c50e9c1127f2cd403a315f,,,,,,,,,,,,,,,,,,,,,,,,,,,,,,,,,,,,,,,,,,,,,,,,,,,,,,,,,,,,,,,,,,,,,,,,,,,,,,,,,,,,,,,,,,,,,,,,,,,,,,,,,,,,,,,,,,,,,,,,,,,,,,,,,,,,,,,,,,,,,,,,,,,,,,,,,,,,,,,,,,,
0,68,68,80,1,,5efe14f421bf492ccd0824e3,62c53a4f270234594f182ae0,2022-07-06_09h31.48.617,Colour_Asymmetry_Pilot,2022.1.3,Win32,59.84798612,62c50e9c1127f2cd403a315f,,,,,,,,,,,,,,,,,,,,,,,,,,,,,,,,,,,,,,,,,,,,,,,,,,,,,,,,,,,,,,,,,,,,,,,,,,,,,,,,,,,,,,,,,,,,,,,,,,,,,,,,,,,,,,,,,,,,,,,,,,,,,,,,,,,,,,,,,,,,,,,,,,,,,,,,,,,,,,,,,,,
0,69,69,36,1,,5efe14f421bf492ccd0824e3,62c53a4f270234594f182ae0,2022-07-06_09h31.48.617,Colour_Asymmetry_Pilot,2022.1.3,Win32,59.84798612,62c50e9c1127f2cd403a315f,,,,,,,,,,,,,,,,,,,,,,,,,,,,,,,,,,,,,,,,,,,,,,,,,,,,,,,,,,,,,,,,,,,,,,,,,,,,,,,,,,,,,,,,,,,,,,,,,,,,,,,,,,,,,,,,,,,,,,,,,,,,,,,,,,,,,,,,,,,,,,,,,,,,,,,,,,,,,,,,,,,
0,70,70,28,1,,5efe14f421bf492ccd0824e3,62c53a4f270234594f182ae0,2022-07-06_09h31.48.617,Colour_Asymmetry_Pilot,2022.1.3,Win32,59.84798612,62c50e9c1127f2cd403a315f,,,,,,,,,,,,,,,,,,,,,,,,,,,,,,,,,,,,,,,,,,,,,,,,,,,,,,,,,,,,,,,,,,,,,,,,,,,,,,,,,,,,,,,,,,,,,,,,,,,,,,,,,,,,,,,,,,,,,,,,,,,,,,,,,,,,,,,,,,,,,,,,,,,,,,,,,,,,,,,,,,,
0,71,71,76,1,,5efe14f421bf492ccd0824e3,62c53a4f270234594f182ae0,2022-07-06_09h31.48.617,Colour_Asymmetry_Pilot,2022.1.3,Win32,59.84798612,62c50e9c1127f2cd403a315f,,,,,,,,,,,,,,,,,,,,,,,,,,,,,,,,,,,,,,,,,,,,,,,,,,,,,,,,,,,,,,,,,,,,,,,,,,,,,,,,,,,,,,,,,,,,,,,,,,,,,,,,,,,,,,,,,,,,,,,,,,,,,,,,,,,,,,,,,,,,,,,,,,,,,,,,,,,,,,,,,,,
0,72,72,7,1,,5efe14f421bf492ccd0824e3,62c53a4f270234594f182ae0,2022-07-06_09h31.48.617,Colour_Asymmetry_Pilot,2022.1.3,Win32,59.84798612,62c50e9c1127f2cd403a315f,,,,,,,,,,,,,,,,,,,,,,,,,,,,,,,,,,,,,,,,,,,,,,,,,,,,,,,,,,,,,,,,,,,,,,,,,,,,,,,,,,,,,,,,,,,,,,,,,,,,,,,,,,,,,,,,,,,,,,,,,,,,,,,,,,,,,,,,,,,,,,,,,,,,,,,,,,,,,,,,,,,
0,73,73,48,1,,5efe14f421bf492ccd0824e3,62c53a4f270234594f182ae0,2022-07-06_09h31.48.617,Colour_Asymmetry_Pilot,2022.1.3,Win32,59.84798612,62c50e9c1127f2cd403a315f,,,,,,,,,,,,,,,,,,,,,,,,,,,,,,,,,,,,,,,,,,,,,,,,,,,,,,,,,,,,,,,,,,,,,,,,,,,,,,,,,,,,,,,,,,,,,,,,,,,,,,,,,,,,,,,,,,,,,,,,,,,,,,,,,,,,,,,,,,,,,,,,,,,,,,,,,,,,,,,,,,,
0,74,74,4,1,,5efe14f421bf492ccd0824e3,62c53a4f270234594f182ae0,2022-07-06_09h31.48.617,Colour_Asymmetry_Pilot,2022.1.3,Win32,59.84798612,62c50e9c1127f2cd403a315f,,,,,,,,,,,,,,,,,,,,,,,,,,,,,,,,,,,,,,,,,,,,,,,,,,,,,,,,,,,,,,,,,,,,,,,,,,,,,,,,,,,,,,,,,,,,,,,,,,,,,,,,,,,,,,,,,,,,,,,,,,,,,,,,,,,,,,,,,,,,,,,,,,,,,,,,,,,,,,,,,,,
0,75,75,67,1,,5efe14f421bf492ccd0824e3,62c53a4f270234594f182ae0,2022-07-06_09h31.48.617,Colour_Asymmetry_Pilot,2022.1.3,Win32,59.84798612,62c50e9c1127f2cd403a315f,,,,,,,,,,,,,,,,,,,,,,,,,,,,,,,,,,,,,,,,,,,,,,,,,,,,,,,,,,,,,,,,,,,,,,,,,,,,,,,,,,,,,,,,,,,,,,,,,,,,,,,,,,,,,,,,,,,,,,,,,,,,,,,,,,,,,,,,,,,,,,,,,,,,,,,,,,,,,,,,,,,
0,76,76,30,1,,5efe14f421bf492ccd0824e3,62c53a4f270234594f182ae0,2022-07-06_09h31.48.617,Colour_Asymmetry_Pilot,2022.1.3,Win32,59.84798612,62c50e9c1127f2cd403a315f,,,,,,,,,,,,,,,,,,,,,,,,,,,,,,,,,,,,,,,,,,,,,,,,,,,,,,,,,,,,,,,,,,,,,,,,,,,,,,,,,,,,,,,,,,,,,,,,,,,,,,,,,,,,,,,,,,,,,,,,,,,,,,,,,,,,,,,,,,,,,,,,,,,,,,,,,,,,,,,,,,,
0,77,77,43,1,,5efe14f421bf492ccd0824e3,62c53a4f270234594f182ae0,2022-07-06_09h31.48.617,Colour_Asymmetry_Pilot,2022.1.3,Win32,59.84798612,62c50e9c1127f2cd403a315f,,,,,,,,,,,,,,,,,,,,,,,,,,,,,,,,,,,,,,,,,,,,,,,,,,,,,,,,,,,,,,,,,,,,,,,,,,,,,,,,,,,,,,,,,,,,,,,,,,,,,,,,,,,,,,,,,,,,,,,,,,,,,,,,,,,,,,,,,,,,,,,,,,,,,,,,,,,,,,,,,,,
0,78,78,55,1,,5efe14f421bf492ccd0824e3,62c53a4f270234594f182ae0,2022-07-06_09h31.48.617,Colour_Asymmetry_Pilot,2022.1.3,Win32,59.84798612,62c50e9c1127f2cd403a315f,,,,,,,,,,,,,,,,,,,,,,,,,,,,,,,,,,,,,,,,,,,,,,,,,,,,,,,,,,,,,,,,,,,,,,,,,,,,,,,,,,,,,,,,,,,,,,,,,,,,,,,,,,,,,,,,,,,,,,,,,,,,,,,,,,,,,,,,,,,,,,,,,,,,,,,,,,,,,,,,,,,
0,79,79,45,1,,5efe14f421bf492ccd0824e3,62c53a4f270234594f182ae0,2022-07-06_09h31.48.617,Colour_Asymmetry_Pilot,2022.1.3,Win32,59.84798612,62c50e9c1127f2cd403a315f,,,,,,,,,,,,,,,,,,,,,,,,,,,,,,,,,,,,,,,,,,,,,,,,,,,,,,,,,,,,,,,,,,,,,,,,,,,,,,,,,,,,,,,,,,,,,,,,,,,,,,,,,,,,,,,,,,,,,,,,,,,,,,,,,,,,,,,,,,,,,,,,,,,,,,,,,,,,,,,,,,,
0,80,80,83,1,,5efe14f421bf492ccd0824e3,62c53a4f270234594f182ae0,2022-07-06_09h31.48.617,Colour_Asymmetry_Pilot,2022.1.3,Win32,59.84798612,62c50e9c1127f2cd403a315f,,,,,,,,,,,,,,,,,,,,,,,,,,,,,,,,,,,,,,,,,,,,,,,,,,,,,,,,,,,,,,,,,,,,,,,,,,,,,,,,,,,,,,,,,,,,,,,,,,,,,,,,,,,,,,,,,,,,,,,,,,,,,,,,,,,,,,,,,,,,,,,,,,,,,,,,,,,,,,,,,,,
0,81,81,71,1,,5efe14f421bf492ccd0824e3,62c53a4f270234594f182ae0,2022-07-06_09h31.48.617,Colour_Asymmetry_Pilot,2022.1.3,Win32,59.84798612,62c50e9c1127f2cd403a315f,,,,,,,,,,,,,,,,,,,,,,,,,,,,,,,,,,,,,,,,,,,,,,,,,,,,,,,,,,,,,,,,,,,,,,,,,,,,,,,,,,,,,,,,,,,,,,,,,,,,,,,,,,,,,,,,,,,,,,,,,,,,,,,,,,,,,,,,,,,,,,,,,,,,,,,,,,,,,,,,,,,
0,82,82,3,1,,5efe14f421bf492ccd0824e3,62c53a4f270234594f182ae0,2022-07-06_09h31.48.617,Colour_Asymmetry_Pilot,2022.1.3,Win32,59.84798612,62c50e9c1127f2cd403a315f,,,,,,,,,,,,,,,,,,,,,,,,,,,,,,,,,,,,,,,,,,,,,,,,,,,,,,,,,,,,,,,,,,,,,,,,,,,,,,,,,,,,,,,,,,,,,,,,,,,,,,,,,,,,,,,,,,,,,,,,,,,,,,,,,,,,,,,,,,,,,,,,,,,,,,,,,,,,,,,,,,,
0,83,83,13,1,,5efe14f421bf492ccd0824e3,62c53a4f270234594f182ae0,2022-07-06_09h31.48.617,Colour_Asymmetry_Pilot,2022.1.3,Win32,59.84798612,62c50e9c1127f2cd403a315f,,,,,,,,,,,,,,,,,,,,,,,,,,,,,,,,,,,,,,,,,,,,,,,,,,,,,,,,,,,,,,,,,,,,,,,,,,,,,,,,,,,,,,,,,,,,,,,,,,,,,,,,,,,,,,,,,,,,,,,,,,,,,,,,,,,,,,,,,,,,,,,,,,,,,,,,,,,,,,,,,,,
0,84,84,24,1,,5efe14f421bf492ccd0824e3,62c53a4f270234594f182ae0,2022-07-06_09h31.48.617,Colour_Asymmetry_Pilot,2022.1.3,Win32,59.84798612,62c50e9c1127f2cd403a315f,,,,,,,,,,,,,,,,,,,,,,,,,,,,,,,,,,,,,,,,,,,,,,,,,,,,,,,,,,,,,,,,,,,,,,,,,,,,,,,,,,,,,,,,,,,,,,,,,,,,,,,,,,,,,,,,,,,,,,,,,,,,,,,,,,,,,,,,,,,,,,,,,,,,,,,,,,,,,,,,,,,
0,85,85,10,1,,5efe14f421bf492ccd0824e3,62c53a4f270234594f182ae0,2022-07-06_09h31.48.617,Colour_Asymmetry_Pilot,2022.1.3,Win32,59.84798612,62c50e9c1127f2cd403a315f,,,,,,,,,,,,,,,,,,,,,,,,,,,,,,,,,,,,,,,,,,,,,,,,,,,,,,,,,,,,,,,,,,,,,,,,,,,,,,,,,,,,,,,,,,,,,,,,,,,,,,,,,,,,,,,,,,,,,,,,,,,,,,,,,,,,,,,,,,,,,,,,,,,,,,,,,,,,,,,,,,,
0,86,86,27,1,,5efe14f421bf492ccd0824e3,62c53a4f270234594f182ae0,2022-07-06_09h31.48.617,Colour_Asymmetry_Pilot,2022.1.3,Win32,59.84798612,62c50e9c1127f2cd403a315f,,,,,,,,,,,,,,,,,,,,,,,,,,,,,,,,,,,,,,,,,,,,,,,,,,,,,,,,,,,,,,,,,,,,,,,,,,,,,,,,,,,,,,,,,,,,,,,,,,,,,,,,,,,,,,,,,,,,,,,,,,,,,,,,,,,,,,,,,,,,,,,,,,,,,,,,,,,,,,,,,,,
0,87,87,22,1,,5efe14f421bf492ccd0824e3,62c53a4f270234594f182ae0,2022-07-06_09h31.48.617,Colour_Asymmetry_Pilot,2022.1.3,Win32,59.84798612,62c50e9c1127f2cd403a315f,,,,,,,,,,,,,,,,,,,,,,,,,,,,,,,,,,,,,,,,,,,,,,,,,,,,,,,,,,,,,,,,,,,,,,,,,,,,,,,,,,,,,,,,,,,,,,,,,,,,,,,,,,,,,,,,,,,,,,,,,,,,,,,,,,,,,,,,,,,,,,,,,,,,,,,,,,,,,,,,,,,
0,88,88,42,1,,5efe14f421bf492ccd0824e3,62c53a4f270234594f182ae0,2022-07-06_09h31.48.617,Colour_Asymmetry_Pilot,2022.1.3,Win32,59.84798612,62c50e9c1127f2cd403a315f,,,,,,,,,,,,,,,,,,,,,,,,,,,,,,,,,,,,,,,,,,,,,,,,,,,,,,,,,,,,,,,,,,,,,,,,,,,,,,,,,,,,,,,,,,,,,,,,,,,,,,,,,,,,,,,,,,,,,,,,,,,,,,,,,,,,,,,,,,,,,,,,,,,,,,,,,,,,,,,,,,,
0,89,89,18,1,,5efe14f421bf492ccd0824e3,62c53a4f270234594f182ae0,2022-07-06_09h31.48.617,Colour_Asymmetry_Pilot,2022.1.3,Win32,59.84798612,62c50e9c1127f2cd403a315f,,,,,,,,,,,,,,,,,,,,,,,,,,,,,,,,,,,,,,,,,,,,,,,,,,,,,,,,,,,,,,,,,,,,,,,,,,,,,,,,,,,,,,,,,,,,,,,,,,,,,,,,,,,,,,,,,,,,,,,,,,,,,,,,,,,,,,,,,,,,,,,,,,,,,,,,,,,,,,,,,,,
0,90,90,23,1,,5efe14f421bf492ccd0824e3,62c53a4f270234594f182ae0,2022-07-06_09h31.48.617,Colour_Asymmetry_Pilot,2022.1.3,Win32,59.84798612,62c50e9c1127f2cd403a315f,,,,,,,,,,,,,,,,,,,,,,,,,,,,,,,,,,,,,,,,,,,,,,,,,,,,,,,,,,,,,,,,,,,,,,,,,,,,,,,,,,,,,,,,,,,,,,,,,,,,,,,,,,,,,,,,,,,,,,,,,,,,,,,,,,,,,,,,,,,,,,,,,,,,,,,,,,,,,,,,,,,
0,91,91,78,1,,5efe14f421bf492ccd0824e3,62c53a4f270234594f182ae0,2022-07-06_09h31.48.617,Colour_Asymmetry_Pilot,2022.1.3,Win32,59.84798612,62c50e9c1127f2cd403a315f,,,,,,,,,,,,,,,,,,,,,,,,,,,,,,,,,,,,,,,,,,,,,,,,,,,,,,,,,,,,,,,,,,,,,,,,,,,,,,,,,,,,,,,,,,,,,,,,,,,,,,,,,,,,,,,,,,,,,,,,,,,,,,,,,,,,,,,,,,,,,,,,,,,,,,,,,,,,,,,,,,,
0,92,92,6,1,,5efe14f421bf492ccd0824e3,62c53a4f270234594f182ae0,2022-07-06_09h31.48.617,Colour_Asymmetry_Pilot,2022.1.3,Win32,59.84798612,62c50e9c1127f2cd403a315f,,,,,,,,,,,,,,,,,,,,,,,,,,,,,,,,,,,,,,,,,,,,,,,,,,,,,,,,,,,,,,,,,,,,,,,,,,,,,,,,,,,,,,,,,,,,,,,,,,,,,,,,,,,,,,,,,,,,,,,,,,,,,,,,,,,,,,,,,,,,,,,,,,,,,,,,,,,,,,,,,,,
,,,,,,5efe14f421bf492ccd0824e3,62c53a4f270234594f182ae0,2022-07-06_09h31.48.617,Colour_Asymmetry_Pilot,2022.1.3,Win32,59.84798612,62c50e9c1127f2cd403a315f,0,0,0,6,1,fourtwo,,,,,,,,,,,,,,,,,,,,,,,,,,,,,,,,,,,,,,,,,,,,,,,,,,,,,,,,,,,,,,,,,,,,,,,,,,,,,,,,,,,,,,,,,,,,,,,,,,,,,,,,,,,,,,,,,,,,,,,,,,,,,,,,,,,,,,,,,,,,,,,,,,,,,,,,,,,,,
,,,,,,5efe14f421bf492ccd0824e3,62c53a4f270234594f182ae0,2022-07-06_09h31.48.617,Colour_Asymmetry_Pilot,2022.1.3,Win32,59.84798612,62c50e9c1127f2cd403a315f,0,1,1,56,1,onetwo,,,,,,,,,,,,,,,,,,,,,,,,,,,,,,,,,,,,,,,,,,,,,,,,,,,,,,,,,,,,,,,,,,,,,,,,,,,,,,,,,,,,,,,,,,,,,,,,,,,,,,,,,,,,,,,,,,,,,,,,,,,,,,,,,,,,,,,,,,,,,,,,,,,,,,,,,,,,,
,,,,,,5efe14f421bf492ccd0824e3,62c53a4f270234594f182ae0,2022-07-06_09h31.48.617,Colour_Asymmetry_Pilot,2022.1.3,Win32,59.84798612,62c50e9c1127f2cd403a315f,0,2,2,87,1,fourthree,,,,,,,,,,,,,,,,,,,,,,,,,,,,,,,,,,,,,,,,,,,,,,,,,,,,,,,,,,,,,,,,,,,,,,,,,,,,,,,,,,,,,,,,,,,,,,,,,,,,,,,,,,,,,,,,,,,,,,,,,,,,,,,,,,,,,,,,,,,,,,,,,,,,,,,,,,,,,
,,,,,,5efe14f421bf492ccd0824e3,62c53a4f270234594f182ae0,2022-07-06_09h31.48.617,Colour_Asymmetry_Pilot,2022.1.3,Win32,59.84798612,62c50e9c1127f2cd403a315f,0,3,3,23,1,fourthree,,,,,,,,,,,,,,,,,,,,,,,,,,,,,,,,,,,,,,,,,,,,,,,,,,,,,,,,,,,,,,,,,,,,,,,,,,,,,,,,,,,,,,,,,,,,,,,,,,,,,,,,,,,,,,,,,,,,,,,,,,,,,,,,,,,,,,,,,,,,,,,,,,,,,,,,,,,,,
,,,,,,5efe14f421bf492ccd0824e3,62c53a4f270234594f182ae0,2022-07-06_09h31.48.617,Colour_Asymmetry_Pilot,2022.1.3,Win32,59.84798612,62c50e9c1127f2cd403a315f,0,4,4,70,1,fourtwo,,,,,,,,,,,,,,,,,,,,,,,,,,,,,,,,,,,,,,,,,,,,,,,,,,,,,,,,,,,,,,,,,,,,,,,,,,,,,,,,,,,,,,,,,,,,,,,,,,,,,,,,,,,,,,,,,,,,,,,,,,,,,,,,,,,,,,,,,,,,,,,,,,,,,,,,,,,,,
,,,,,,5efe14f421bf492ccd0824e3,62c53a4f270234594f182ae0,2022-07-06_09h31.48.617,Colour_Asymmetry_Pilot,2022.1.3,Win32,59.84798612,62c50e9c1127f2cd403a315f,0,5,5,93,1,threefour,,,,,,,,,,,,,,,,,,,,,,,,,,,,,,,,,,,,,,,,,,,,,,,,,,,,,,,,,,,,,,,,,,,,,,,,,,,,,,,,,,,,,,,,,,,,,,,,,,,,,,,,,,,,,,,,,,,,,,,,,,,,,,,,,,,,,,,,,,,,,,,,,,,,,,,,,,,,,
,,,,,,5efe14f421bf492ccd0824e3,62c53a4f270234594f182ae0,2022-07-06_09h31.48.617,Colour_Asymmetry_Pilot,2022.1.3,Win32,59.84798612,62c50e9c1127f2cd403a315f,0,6,6,137,1,onethree,,,,,,,,,,,,,,,,,,,,,,,,,,,,,,,,,,,,,,,,,,,,,,,,,,,,,,,,,,,,,,,,,,,,,,,,,,,,,,,,,,,,,,,,,,,,,,,,,,,,,,,,,,,,,,,,,,,,,,,,,,,,,,,,,,,,,,,,,,,,,,,,,,,,,,,,,,,,,
,,,,,,5efe14f421bf492ccd0824e3,62c53a4f270234594f182ae0,2022-07-06_09h31.48.617,Colour_Asymmetry_Pilot,2022.1.3,Win32,59.84798612,62c50e9c1127f2cd403a315f,0,7,7,96,1,onetwo,,,,,,,,,,,,,,,,,,,,,,,,,,,,,,,,,,,,,,,,,,,,,,,,,,,,,,,,,,,,,,,,,,,,,,,,,,,,,,,,,,,,,,,,,,,,,,,,,,,,,,,,,,,,,,,,,,,,,,,,,,,,,,,,,,,,,,,,,,,,,,,,,,,,,,,,,,,,,
,,,,,,5efe14f421bf492ccd0824e3,62c53a4f270234594f182ae0,2022-07-06_09h31.48.617,Colour_Asymmetry_Pilot,2022.1.3,Win32,59.84798612,62c50e9c1127f2cd403a315f,0,8,8,98,1,twoone,,,,,,,,,,,,,,,,,,,,,,,,,,,,,,,,,,,,,,,,,,,,,,,,,,,,,,,,,,,,,,,,,,,,,,,,,,,,,,,,,,,,,,,,,,,,,,,,,,,,,,,,,,,,,,,,,,,,,,,,,,,,,,,,,,,,,,,,,,,,,,,,,,,,,,,,,,,,,
,,,,,,5efe14f421bf492ccd0824e3,62c53a4f270234594f182ae0,2022-07-06_09h31.48.617,Colour_Asymmetry_Pilot,2022.1.3,Win32,59.84798612,62c50e9c1127f2cd403a315f,0,9,9,127,1,fourthree,,,,,,,,,,,,,,,,,,,,,,,,,,,,,,,,,,,,,,,,,,,,,,,,,,,,,,,,,,,,,,,,,,,,,,,,,,,,,,,,,,,,,,,,,,,,,,,,,,,,,,,,,,,,,,,,,,,,,,,,,,,,,,,,,,,,,,,,,,,,,,,,,,,,,,,,,,,,,
,,,,,,5efe14f421bf492ccd0824e3,62c53a4f270234594f182ae0,2022-07-06_09h31.48.617,Colour_Asymmetry_Pilot,2022.1.3,Win32,59.84798612,62c50e9c1127f2cd403a315f,0,10,10,50,1,twoone,,,,,,,,,,,,,,,,,,,,,,,,,,,,,,,,,,,,,,,,,,,,,,,,,,,,,,,,,,,,,,,,,,,,,,,,,,,,,,,,,,,,,,,,,,,,,,,,,,,,,,,,,,,,,,,,,,,,,,,,,,,,,,,,,,,,,,,,,,,,,,,,,,,,,,,,,,,,,
,,,,,,5efe14f421bf492ccd0824e3,62c53a4f270234594f182ae0,2022-07-06_09h31.48.617,Colour_Asymmetry_Pilot,2022.1.3,Win32,59.84798612,62c50e9c1127f2cd403a315f,0,11,11,138,1,twoone,,,,,,,,,,,,,,,,,,,,,,,,,,,,,,,,,,,,,,,,,,,,,,,,,,,,,,,,,,,,,,,,,,,,,,,,,,,,,,,,,,,,,,,,,,,,,,,,,,,,,,,,,,,,,,,,,,,,,,,,,,,,,,,,,,,,,,,,,,,,,,,,,,,,,,,,,,,,,
,,,,,,5efe14f421bf492ccd0824e3,62c53a4f270234594f182ae0,2022-07-06_09h31.48.617,Colour_Asymmetry_Pilot,2022.1.3,Win32,59.84798612,62c50e9c1127f2cd403a315f,0,12,12,121,1,onethree,,,,,,,,,,,,,,,,,,,,,,,,,,,,,,,,,,,,,,,,,,,,,,,,,,,,,,,,,,,,,,,,,,,,,,,,,,,,,,,,,,,,,,,,,,,,,,,,,,,,,,,,,,,,,,,,,,,,,,,,,,,,,,,,,,,,,,,,,,,,,,,,,,,,,,,,,,,,,
,,,,,,5efe14f421bf492ccd0824e3,62c53a4f270234594f182ae0,2022-07-06_09h31.48.617,Colour_Asymmetry_Pilot,2022.1.3,Win32,59.84798612,62c50e9c1127f2cd403a315f,0,13,13,21,1,threefour,,,,,,,,,,,,,,,,,,,,,,,,,,,,,,,,,,,,,,,,,,,,,,,,,,,,,,,,,,,,,,,,,,,,,,,,,,,,,,,,,,,,,,,,,,,,,,,,,,,,,,,,,,,,,,,,,,,,,,,,,,,,,,,,,,,,,,,,,,,,,,,,,,,,,,,,,,,,,
,,,,,,5efe14f421bf492ccd0824e3,62c53a4f270234594f182ae0,2022-07-06_09h31.48.617,Colour_Asymmetry_Pilot,2022.1.3,Win32,59.84798612,62c50e9c1127f2cd403a315f,0,14,14,100,1,threeone,,,,,,,,,,,,,,,,,,,,,,,,,,,,,,,,,,,,,,,,,,,,,,,,,,,,,,,,,,,,,,,,,,,,,,,,,,,,,,,,,,,,,,,,,,,,,,,,,,,,,,,,,,,,,,,,,,,,,,,,,,,,,,,,,,,,,,,,,,,,,,,,,,,,,,,,,,,,,
,,,,,,5efe14f421bf492ccd0824e3,62c53a4f270234594f182ae0,2022-07-06_09h31.48.617,Colour_Asymmetry_Pilot,2022.1.3,Win32,59.84798612,62c50e9c1127f2cd403a315f,0,15,15,109,1,threefour,,,,,,,,,,,,,,,,,,,,,,,,,,,,,,,,,,,,,,,,,,,,,,,,,,,,,,,,,,,,,,,,,,,,,,,,,,,,,,,,,,,,,,,,,,,,,,,,,,,,,,,,,,,,,,,,,,,,,,,,,,,,,,,,,,,,,,,,,,,,,,,,,,,,,,,,,,,,,
,,,,,,5efe14f421bf492ccd0824e3,62c53a4f270234594f182ae0,2022-07-06_09h31.48.617,Colour_Asymmetry_Pilot,2022.1.3,Win32,59.84798612,62c50e9c1127f2cd403a315f,0,16,16,39,1,fourthree,,,,,,,,,,,,,,,,,,,,,,,,,,,,,,,,,,,,,,,,,,,,,,,,,,,,,,,,,,,,,,,,,,,,,,,,,,,,,,,,,,,,,,,,,,,,,,,,,,,,,,,,,,,,,,,,,,,,,,,,,,,,,,,,,,,,,,,,,,,,,,,,,,,,,,,,,,,,,
,,,,,,5efe14f421bf492ccd0824e3,62c53a4f270234594f182ae0,2022-07-06_09h31.48.617,Colour_Asymmetry_Pilot,2022.1.3,Win32,59.84798612,62c50e9c1127f2cd403a315f,0,17,17,133,1,threefour,,,,,,,,,,,,,,,,,,,,,,,,,,,,,,,,,,,,,,,,,,,,,,,,,,,,,,,,,,,,,,,,,,,,,,,,,,,,,,,,,,,,,,,,,,,,,,,,,,,,,,,,,,,,,,,,,,,,,,,,,,,,,,,,,,,,,,,,,,,,,,,,,,,,,,,,,,,,,
,,,,,,5efe14f421bf492ccd0824e3,62c53a4f270234594f182ae0,2022-07-06_09h31.48.617,Colour_Asymmetry_Pilot,2022.1.3,Win32,59.84798612,62c50e9c1127f2cd403a315f,0,18,18,28,1,threeone,,,,,,,,,,,,,,,,,,,,,,,,,,,,,,,,,,,,,,,,,,,,,,,,,,,,,,,,,,,,,,,,,,,,,,,,,,,,,,,,,,,,,,,,,,,,,,,,,,,,,,,,,,,,,,,,,,,,,,,,,,,,,,,,,,,,,,,,,,,,,,,,,,,,,,,,,,,,,
,,,,,,5efe14f421bf492ccd0824e3,62c53a4f270234594f182ae0,2022-07-06_09h31.48.617,Colour_Asymmetry_Pilot,2022.1.3,Win32,59.84798612,62c50e9c1127f2cd403a315f,0,19,19,60,1,threeone,,,,,,,,,,,,,,,,,,,,,,,,,,,,,,,,,,,,,,,,,,,,,,,,,,,,,,,,,,,,,,,,,,,,,,,,,,,,,,,,,,,,,,,,,,,,,,,,,,,,,,,,,,,,,,,,,,,,,,,,,,,,,,,,,,,,,,,,,,,,,,,,,,,,,,,,,,,,,
,,,,,,5efe14f421bf492ccd0824e3,62c53a4f270234594f182ae0,2022-07-06_09h31.48.617,Colour_Asymmetry_Pilot,2022.1.3,Win32,59.84798612,62c50e9c1127f2cd403a315f,0,20,20,51,1,twofour,,,,,,,,,,,,,,,,,,,,,,,,,,,,,,,,,,,,,,,,,,,,,,,,,,,,,,,,,,,,,,,,,,,,,,,,,,,,,,,,,,,,,,,,,,,,,,,,,,,,,,,,,,,,,,,,,,,,,,,,,,,,,,,,,,,,,,,,,,,,,,,,,,,,,,,,,,,,,
,,,,,,5efe14f421bf492ccd0824e3,62c53a4f270234594f182ae0,2022-07-06_09h31.48.617,Colour_Asymmetry_Pilot,2022.1.3,Win32,59.84798612,62c50e9c1127f2cd403a315f,0,21,21,135,1,fourthree,,,,,,,,,,,,,,,,,,,,,,,,,,,,,,,,,,,,,,,,,,,,,,,,,,,,,,,,,,,,,,,,,,,,,,,,,,,,,,,,,,,,,,,,,,,,,,,,,,,,,,,,,,,,,,,,,,,,,,,,,,,,,,,,,,,,,,,,,,,,,,,,,,,,,,,,,,,,,
,,,,,,5efe14f421bf492ccd0824e3,62c53a4f270234594f182ae0,2022-07-06_09h31.48.617,Colour_Asymmetry_Pilot,2022.1.3,Win32,59.84798612,62c50e9c1127f2cd403a315f,0,22,22,16,1,onetwo,,,,,,,,,,,,,,,,,,,,,,,,,,,,,,,,,,,,,,,,,,,,,,,,,,,,,,,,,,,,,,,,,,,,,,,,,,,,,,,,,,,,,,,,,,,,,,,,,,,,,,,,,,,,,,,,,,,,,,,,,,,,,,,,,,,,,,,,,,,,,,,,,,,,,,,,,,,,,
,,,,,,5efe14f421bf492ccd0824e3,62c53a4f270234594f182ae0,2022-07-06_09h31.48.617,Colour_Asymmetry_Pilot,2022.1.3,Win32,59.84798612,62c50e9c1127f2cd403a315f,0,23,23,19,1,twofour,,,,,,,,,,,,,,,,,,,,,,,,,,,,,,,,,,,,,,,,,,,,,,,,,,,,,,,,,,,,,,,,,,,,,,,,,,,,,,,,,,,,,,,,,,,,,,,,,,,,,,,,,,,,,,,,,,,,,,,,,,,,,,,,,,,,,,,,,,,,,,,,,,,,,,,,,,,,,
,,,,,,5efe14f421bf492ccd0824e3,62c53a4f270234594f182ae0,2022-07-06_09h31.48.617,Colour_Asymmetry_Pilot,2022.1.3,Win32,59.84798612,62c50e9c1127f2cd403a315f,0,24,24,139,1,twofour,,,,,,,,,,,,,,,,,,,,,,,,,,,,,,,,,,,,,,,,,,,,,,,,,,,,,,,,,,,,,,,,,,,,,,,,,,,,,,,,,,,,,,,,,,,,,,,,,,,,,,,,,,,,,,,,,,,,,,,,,,,,,,,,,,,,,,,,,,,,,,,,,,,,,,,,,,,,,
,,,,,,5efe14f421bf492ccd0824e3,62c53a4f270234594f182ae0,2022-07-06_09h31.48.617,Colour_Asymmetry_Pilot,2022.1.3,Win32,59.84798612,62c50e9c1127f2cd403a315f,0,25,25,7,1,fourthree,,,,,,,,,,,,,,,,,,,,,,,,,,,,,,,,,,,,,,,,,,,,,,,,,,,,,,,,,,,,,,,,,,,,,,,,,,,,,,,,,,,,,,,,,,,,,,,,,,,,,,,,,,,,,,,,,,,,,,,,,,,,,,,,,,,,,,,,,,,,,,,,,,,,,,,,,,,,,
,,,,,,5efe14f421bf492ccd0824e3,62c53a4f270234594f182ae0,2022-07-06_09h31.48.617,Colour_Asymmetry_Pilot,2022.1.3,Win32,59.84798612,62c50e9c1127f2cd403a315f,0,26,26,64,1,onetwo,,,,,,,,,,,,,,,,,,,,,,,,,,,,,,,,,,,,,,,,,,,,,,,,,,,,,,,,,,,,,,,,,,,,,,,,,,,,,,,,,,,,,,,,,,,,,,,,,,,,,,,,,,,,,,,,,,,,,,,,,,,,,,,,,,,,,,,,,,,,,,,,,,,,,,,,,,,,,
,,,,,,5efe14f421bf492ccd0824e3,62c53a4f270234594f182ae0,2022-07-06_09h31.48.617,Colour_Asymmetry_Pilot,2022.1.3,Win32,59.84798612,62c50e9c1127f2cd403a315f,0,27,27,11,1,twofour,,,,,,,,,,,,,,,,,,,,,,,,,,,,,,,,,,,,,,,,,,,,,,,,,,,,,,,,,,,,,,,,,,,,,,,,,,,,,,,,,,,,,,,,,,,,,,,,,,,,,,,,,,,,,,,,,,,,,,,,,,,,,,,,,,,,,,,,,,,,,,,,,,,,,,,,,,,,,
,,,,,,5efe14f421bf492ccd0824e3,62c53a4f270234594f182ae0,2022-07-06_09h31.48.617,Colour_Asymmetry_Pilot,2022.1.3,Win32,59.84798612,62c50e9c1127f2cd403a315f,0,28,28,41,1,onethree,,,,,,,,,,,,,,,,,,,,,,,,,,,,,,,,,,,,,,,,,,,,,,,,,,,,,,,,,,,,,,,,,,,,,,,,,,,,,,,,,,,,,,,,,,,,,,,,,,,,,,,,,,,,,,,,,,,,,,,,,,,,,,,,,,,,,,,,,,,,,,,,,,,,,,,,,,,,,
,,,,,,5efe14f421bf492ccd0824e3,62c53a4f270234594f182ae0,2022-07-06_09h31.48.617,Colour_Asymmetry_Pilot,2022.1.3,Win32,59.84798612,62c50e9c1127f2cd403a315f,0,29,29,128,1,onetwo,,,,,,,,,,,,,,,,,,,,,,,,,,,,,,,,,,,,,,,,,,,,,,,,,,,,,,,,,,,,,,,,,,,,,,,,,,,,,,,,,,,,,,,,,,,,,,,,,,,,,,,,,,,,,,,,,,,,,,,,,,,,,,,,,,,,,,,,,,,,,,,,,,,,,,,,,,,,,
,,,,,,5efe14f421bf492ccd0824e3,62c53a4f270234594f182ae0,2022-07-06_09h31.48.617,Colour_Asymmetry_Pilot,2022.1.3,Win32,59.84798612,62c50e9c1127f2cd403a315f,0,30,30,79,1,fourthree,,,,,,,,,,,,,,,,,,,,,,,,,,,,,,,,,,,,,,,,,,,,,,,,,,,,,,,,,,,,,,,,,,,,,,,,,,,,,,,,,,,,,,,,,,,,,,,,,,,,,,,,,,,,,,,,,,,,,,,,,,,,,,,,,,,,,,,,,,,,,,,,,,,,,,,,,,,,,
,,,,,,5efe14f421bf492ccd0824e3,62c53a4f270234594f182ae0,2022-07-06_09h31.48.617,Colour_Asymmetry_Pilot,2022.1.3,Win32,59.84798612,62c50e9c1127f2cd403a315f,0,31,31,88,1,onetwo,,,,,,,,,,,,,,,,,,,,,,,,,,,,,,,,,,,,,,,,,,,,,,,,,,,,,,,,,,,,,,,,,,,,,,,,,,,,,,,,,,,,,,,,,,,,,,,,,,,,,,,,,,,,,,,,,,,,,,,,,,,,,,,,,,,,,,,,,,,,,,,,,,,,,,,,,,,,,
,,,,,,5efe14f421bf492ccd0824e3,62c53a4f270234594f182ae0,2022-07-06_09h31.48.617,Colour_Asymmetry_Pilot,2022.1.3,Win32,59.84798612,62c50e9c1127f2cd403a315f,0,32,32,115,1,twofour,,,,,,,,,,,,,,,,,,,,,,,,,,,,,,,,,,,,,,,,,,,,,,,,,,,,,,,,,,,,,,,,,,,,,,,,,,,,,,,,,,,,,,,,,,,,,,,,,,,,,,,,,,,,,,,,,,,,,,,,,,,,,,,,,,,,,,,,,,,,,,,,,,,,,,,,,,,,,
,,,,,,5efe14f421bf492ccd0824e3,62c53a4f270234594f182ae0,2022-07-06_09h31.48.617,Colour_Asymmetry_Pilot,2022.1.3,Win32,59.84798612,62c50e9c1127f2cd403a315f,0,33,33,102,1,fourtwo,,,,,,,,,,,,,,,,,,,,,,,,,,,,,,,,,,,,,,,,,,,,,,,,,,,,,,,,,,,,,,,,,,,,,,,,,,,,,,,,,,,,,,,,,,,,,,,,,,,,,,,,,,,,,,,,,,,,,,,,,,,,,,,,,,,,,,,,,,,,,,,,,,,,,,,,,,,,,
,,,,,,5efe14f421bf492ccd0824e3,62c53a4f270234594f182ae0,2022-07-06_09h31.48.617,Colour_Asymmetry_Pilot,2022.1.3,Win32,59.84798612,62c50e9c1127f2cd403a315f,0,34,34,52,1,threeone,,,,,,,,,,,,,,,,,,,,,,,,,,,,,,,,,,,,,,,,,,,,,,,,,,,,,,,,,,,,,,,,,,,,,,,,,,,,,,,,,,,,,,,,,,,,,,,,,,,,,,,,,,,,,,,,,,,,,,,,,,,,,,,,,,,,,,,,,,,,,,,,,,,,,,,,,,,,,
,,,,,,5efe14f421bf492ccd0824e3,62c53a4f270234594f182ae0,2022-07-06_09h31.48.617,Colour_Asymmetry_Pilot,2022.1.3,Win32,59.84798612,62c50e9c1127f2cd403a315f,0,35,35,26,1,twoone,,,,,,,,,,,,,,,,,,,,,,,,,,,,,,,,,,,,,,,,,,,,,,,,,,,,,,,,,,,,,,,,,,,,,,,,,,,,,,,,,,,,,,,,,,,,,,,,,,,,,,,,,,,,,,,,,,,,,,,,,,,,,,,,,,,,,,,,,,,,,,,,,,,,,,,,,,,,,
,,,,,,5efe14f421bf492ccd0824e3,62c53a4f270234594f182ae0,2022-07-06_09h31.48.617,Colour_Asymmetry_Pilot,2022.1.3,Win32,59.84798612,62c50e9c1127f2cd403a315f,0,36,36,113,1,onethree,,,,,,,,,,,,,,,,,,,,,,,,,,,,,,,,,,,,,,,,,,,,,,,,,,,,,,,,,,,,,,,,,,,,,,,,,,,,,,,,,,,,,,,,,,,,,,,,,,,,,,,,,,,,,,,,,,,,,,,,,,,,,,,,,,,,,,,,,,,,,,,,,,,,,,,,,,,,,
,,,,,,5efe14f421bf492ccd0824e3,62c53a4f270234594f182ae0,2022-07-06_09h31.48.617,Colour_Asymmetry_Pilot,2022.1.3,Win32,59.84798612,62c50e9c1127f2cd403a315f,0,37,37,118,1,fourtwo,,,,,,,,,,,,,,,,,,,,,,,,,,,,,,,,,,,,,,,,,,,,,,,,,,,,,,,,,,,,,,,,,,,,,,,,,,,,,,,,,,,,,,,,,,,,,,,,,,,,,,,,,,,,,,,,,,,,,,,,,,,,,,,,,,,,,,,,,,,,,,,,,,,,,,,,,,,,,
,,,,,,5efe14f421bf492ccd0824e3,62c53a4f270234594f182ae0,2022-07-06_09h31.48.617,Colour_Asymmetry_Pilot,2022.1.3,Win32,59.84798612,62c50e9c1127f2cd403a315f,0,38,38,20,1,threeone,,,,,,,,,,,,,,,,,,,,,,,,,,,,,,,,,,,,,,,,,,,,,,,,,,,,,,,,,,,,,,,,,,,,,,,,,,,,,,,,,,,,,,,,,,,,,,,,,,,,,,,,,,,,,,,,,,,,,,,,,,,,,,,,,,,,,,,,,,,,,,,,,,,,,,,,,,,,,
,,,,,,5efe14f421bf492ccd0824e3,62c53a4f270234594f182ae0,2022-07-06_09h31.48.617,Colour_Asymmetry_Pilot,2022.1.3,Win32,59.84798612,62c50e9c1127f2cd403a315f,0,39,39,25,1,onethree,,,,,,,,,,,,,,,,,,,,,,,,,,,,,,,,,,,,,,,,,,,,,,,,,,,,,,,,,,,,,,,,,,,,,,,,,,,,,,,,,,,,,,,,,,,,,,,,,,,,,,,,,,,,,,,,,,,,,,,,,,,,,,,,,,,,,,,,,,,,,,,,,,,,,,,,,,,,,
,,,,,,5efe14f421bf492ccd0824e3,62c53a4f270234594f182ae0,2022-07-06_09h31.48.617,Colour_Asymmetry_Pilot,2022.1.3,Win32,59.84798612,62c50e9c1127f2cd403a315f,0,40,40,40,1,onetwo,,,,,,,,,,,,,,,,,,,,,,,,,,,,,,,,,,,,,,,,,,,,,,,,,,,,,,,,,,,,,,,,,,,,,,,,,,,,,,,,,,,,,,,,,,,,,,,,,,,,,,,,,,,,,,,,,,,,,,,,,,,,,,,,,,,,,,,,,,,,,,,,,,,,,,,,,,,,,
,,,,,,5efe14f421bf492ccd0824e3,62c53a4f270234594f182ae0,2022-07-06_09h31.48.617,Colour_Asymmetry_Pilot,2022.1.3,Win32,59.84798612,62c50e9c1127f2cd403a315f,0,41,41,95,1,fourthree,,,,,,,,,,,,,,,,,,,,,,,,,,,,,,,,,,,,,,,,,,,,,,,,,,,,,,,,,,,,,,,,,,,,,,,,,,,,,,,,,,,,,,,,,,,,,,,,,,,,,,,,,,,,,,,,,,,,,,,,,,,,,,,,,,,,,,,,,,,,,,,,,,,,,,,,,,,,,
,,,,,,5efe14f421bf492ccd0824e3,62c53a4f270234594f182ae0,2022-07-06_09h31.48.617,Colour_Asymmetry_Pilot,2022.1.3,Win32,59.84798612,62c50e9c1127f2cd403a315f,0,42,42,153,1,onethree,,,,,,,,,,,,,,,,,,,,,,,,,,,,,,,,,,,,,,,,,,,,,,,,,,,,,,,,,,,,,,,,,,,,,,,,,,,,,,,,,,,,,,,,,,,,,,,,,,,,,,,,,,,,,,,,,,,,,,,,,,,,,,,,,,,,,,,,,,,,,,,,,,,,,,,,,,,,,
,,,,,,5efe14f421bf492ccd0824e3,62c53a4f270234594f182ae0,2022-07-06_09h31.48.617,Colour_Asymmetry_Pilot,2022.1.3,Win32,59.84798612,62c50e9c1127f2cd403a315f,0,43,43,34,1,twoone,,,,,,,,,,,,,,,,,,,,,,,,,,,,,,,,,,,,,,,,,,,,,,,,,,,,,,,,,,,,,,,,,,,,,,,,,,,,,,,,,,,,,,,,,,,,,,,,,,,,,,,,,,,,,,,,,,,,,,,,,,,,,,,,,,,,,,,,,,,,,,,,,,,,,,,,,,,,,
,,,,,,5efe14f421bf492ccd0824e3,62c53a4f270234594f182ae0,2022-07-06_09h31.48.617,Colour_Asymmetry_Pilot,2022.1.3,Win32,59.84798612,62c50e9c1127f2cd403a315f,0,44,44,106,1,twoone,,,,,,,,,,,,,,,,,,,,,,,,,,,,,,,,,,,,,,,,,,,,,,,,,,,,,,,,,,,,,,,,,,,,,,,,,,,,,,,,,,,,,,,,,,,,,,,,,,,,,,,,,,,,,,,,,,,,,,,,,,,,,,,,,,,,,,,,,,,,,,,,,,,,,,,,,,,,,
,,,,,,5efe14f421bf492ccd0824e3,62c53a4f270234594f182ae0,2022-07-06_09h31.48.617,Colour_Asymmetry_Pilot,2022.1.3,Win32,59.84798612,62c50e9c1127f2cd403a315f,0,45,45,46,1,fourtwo,,,,,,,,,,,,,,,,,,,,,,,,,,,,,,,,,,,,,,,,,,,,,,,,,,,,,,,,,,,,,,,,,,,,,,,,,,,,,,,,,,,,,,,,,,,,,,,,,,,,,,,,,,,,,,,,,,,,,,,,,,,,,,,,,,,,,,,,,,,,,,,,,,,,,,,,,,,,,
,,,,,,5efe14f421bf492ccd0824e3,62c53a4f270234594f182ae0,2022-07-06_09h31.48.617,Colour_Asymmetry_Pilot,2022.1.3,Win32,59.84798612,62c50e9c1127f2cd403a315f,0,46,46,105,1,onethree,,,,,,,,,,,,,,,,,,,,,,,,,,,,,,,,,,,,,,,,,,,,,,,,,,,,,,,,,,,,,,,,,,,,,,,,,,,,,,,,,,,,,,,,,,,,,,,,,,,,,,,,,,,,,,,,,,,,,,,,,,,,,,,,,,,,,,,,,,,,,,,,,,,,,,,,,,,,,
,,,,,,5efe14f421bf492ccd0824e3,62c53a4f270234594f182ae0,2022-07-06_09h31.48.617,Colour_Asymmetry_Pilot,2022.1.3,Win32,59.84798612,62c50e9c1127f2cd403a315f,0,47,47,85,1,threefour,,,,,,,,,,,,,,,,,,,,,,,,,,,,,,,,,,,,,,,,,,,,,,,,,,,,,,,,,,,,,,,,,,,,,,,,,,,,,,,,,,,,,,,,,,,,,,,,,,,,,,,,,,,,,,,,,,,,,,,,,,,,,,,,,,,,,,,,,,,,,,,,,,,,,,,,,,,,,
,,,,,,5efe14f421bf492ccd0824e3,62c53a4f270234594f182ae0,2022-07-06_09h31.48.617,Colour_Asymmetry_Pilot,2022.1.3,Win32,59.84798612,62c50e9c1127f2cd403a315f,0,48,48,80,1,onetwo,,,,,,,,,,,,,,,,,,,,,,,,,,,,,,,,,,,,,,,,,,,,,,,,,,,,,,,,,,,,,,,,,,,,,,,,,,,,,,,,,,,,,,,,,,,,,,,,,,,,,,,,,,,,,,,,,,,,,,,,,,,,,,,,,,,,,,,,,,,,,,,,,,,,,,,,,,,,,
,,,,,,5efe14f421bf492ccd0824e3,62c53a4f270234594f182ae0,2022-07-06_09h31.48.617,Colour_Asymmetry_Pilot,2022.1.3,Win32,59.84798612,62c50e9c1127f2cd403a315f,0,49,49,24,1,onetwo,,,,,,,,,,,,,,,,,,,,,,,,,,,,,,,,,,,,,,,,,,,,,,,,,,,,,,,,,,,,,,,,,,,,,,,,,,,,,,,,,,,,,,,,,,,,,,,,,,,,,,,,,,,,,,,,,,,,,,,,,,,,,,,,,,,,,,,,,,,,,,,,,,,,,,,,,,,,,
,,,,,,5efe14f421bf492ccd0824e3,62c53a4f270234594f182ae0,2022-07-06_09h31.48.617,Colour_Asymmetry_Pilot,2022.1.3,Win32,59.84798612,62c50e9c1127f2cd403a315f,0,50,50,48,1,onetwo,,,,,,,,,,,,,,,,,,,,,,,,,,,,,,,,,,,,,,,,,,,,,,,,,,,,,,,,,,,,,,,,,,,,,,,,,,,,,,,,,,,,,,,,,,,,,,,,,,,,,,,,,,,,,,,,,,,,,,,,,,,,,,,,,,,,,,,,,,,,,,,,,,,,,,,,,,,,,
,,,,,,5efe14f421bf492ccd0824e3,62c53a4f270234594f182ae0,2022-07-06_09h31.48.617,Colour_Asymmetry_Pilot,2022.1.3,Win32,59.84798612,62c50e9c1127f2cd403a315f,0,51,51,47,1,fourthree,,,,,,,,,,,,,,,,,,,,,,,,,,,,,,,,,,,,,,,,,,,,,,,,,,,,,,,,,,,,,,,,,,,,,,,,,,,,,,,,,,,,,,,,,,,,,,,,,,,,,,,,,,,,,,,,,,,,,,,,,,,,,,,,,,,,,,,,,,,,,,,,,,,,,,,,,,,,,
,,,,,,5efe14f421bf492ccd0824e3,62c53a4f270234594f182ae0,2022-07-06_09h31.48.617,Colour_Asymmetry_Pilot,2022.1.3,Win32,59.84798612,62c50e9c1127f2cd403a315f,0,52,52,35,1,twofour,,,,,,,,,,,,,,,,,,,,,,,,,,,,,,,,,,,,,,,,,,,,,,,,,,,,,,,,,,,,,,,,,,,,,,,,,,,,,,,,,,,,,,,,,,,,,,,,,,,,,,,,,,,,,,,,,,,,,,,,,,,,,,,,,,,,,,,,,,,,,,,,,,,,,,,,,,,,,
,,,,,,5efe14f421bf492ccd0824e3,62c53a4f270234594f182ae0,2022-07-06_09h31.48.617,Colour_Asymmetry_Pilot,2022.1.3,Win32,59.84798612,62c50e9c1127f2cd403a315f,0,53,53,116,1,threeone,,,,,,,,,,,,,,,,,,,,,,,,,,,,,,,,,,,,,,,,,,,,,,,,,,,,,,,,,,,,,,,,,,,,,,,,,,,,,,,,,,,,,,,,,,,,,,,,,,,,,,,,,,,,,,,,,,,,,,,,,,,,,,,,,,,,,,,,,,,,,,,,,,,,,,,,,,,,,
,,,,,,5efe14f421bf492ccd0824e3,62c53a4f270234594f182ae0,2022-07-06_09h31.48.617,Colour_Asymmetry_Pilot,2022.1.3,Win32,59.84798612,62c50e9c1127f2cd403a315f,0,54,54,151,1,fourthree,,,,,,,,,,,,,,,,,,,,,,,,,,,,,,,,,,,,,,,,,,,,,,,,,,,,,,,,,,,,,,,,,,,,,,,,,,,,,,,,,,,,,,,,,,,,,,,,,,,,,,,,,,,,,,,,,,,,,,,,,,,,,,,,,,,,,,,,,,,,,,,,,,,,,,,,,,,,,
,,,,,,5efe14f421bf492ccd0824e3,62c53a4f270234594f182ae0,2022-07-06_09h31.48.617,Colour_Asymmetry_Pilot,2022.1.3,Win32,59.84798612,62c50e9c1127f2cd403a315f,0,55,55,78,1,fourtwo,,,,,,,,,,,,,,,,,,,,,,,,,,,,,,,,,,,,,,,,,,,,,,,,,,,,,,,,,,,,,,,,,,,,,,,,,,,,,,,,,,,,,,,,,,,,,,,,,,,,,,,,,,,,,,,,,,,,,,,,,,,,,,,,,,,,,,,,,,,,,,,,,,,,,,,,,,,,,
,,,,,,5efe14f421bf492ccd0824e3,62c53a4f270234594f182ae0,2022-07-06_09h31.48.617,Colour_Asymmetry_Pilot,2022.1.3,Win32,59.84798612,62c50e9c1127f2cd403a315f,0,56,56,122,1,twoone,,,,,,,,,,,,,,,,,,,,,,,,,,,,,,,,,,,,,,,,,,,,,,,,,,,,,,,,,,,,,,,,,,,,,,,,,,,,,,,,,,,,,,,,,,,,,,,,,,,,,,,,,,,,,,,,,,,,,,,,,,,,,,,,,,,,,,,,,,,,,,,,,,,,,,,,,,,,,
,,,,,,5efe14f421bf492ccd0824e3,62c53a4f270234594f182ae0,2022-07-06_09h31.48.617,Colour_Asymmetry_Pilot,2022.1.3,Win32,59.84798612,62c50e9c1127f2cd403a315f,0,57,57,8,1,onetwo,,,,,,,,,,,,,,,,,,,,,,,,,,,,,,,,,,,,,,,,,,,,,,,,,,,,,,,,,,,,,,,,,,,,,,,,,,,,,,,,,,,,,,,,,,,,,,,,,,,,,,,,,,,,,,,,,,,,,,,,,,,,,,,,,,,,,,,,,,,,,,,,,,,,,,,,,,,,,
,,,,,,5efe14f421bf492ccd0824e3,62c53a4f270234594f182ae0,2022-07-06_09h31.48.617,Colour_Asymmetry_Pilot,2022.1.3,Win32,59.84798612,62c50e9c1127f2cd403a315f,0,58,58,53,1,threefour,,,,,,,,,,,,,,,,,,,,,,,,,,,,,,,,,,,,,,,,,,,,,,,,,,,,,,,,,,,,,,,,,,,,,,,,,,,,,,,,,,,,,,,,,,,,,,,,,,,,,,,,,,,,,,,,,,,,,,,,,,,,,,,,,,,,,,,,,,,,,,,,,,,,,,,,,,,,,
,,,,,,5efe14f421bf492ccd0824e3,62c53a4f270234594f182ae0,2022-07-06_09h31.48.617,Colour_Asymmetry_Pilot,2022.1.3,Win32,59.84798612,62c50e9c1127f2cd403a315f,0,59,59,29,1,threefour,,,,,,,,,,,,,,,,,,,,,,,,,,,,,,,,,,,,,,,,,,,,,,,,,,,,,,,,,,,,,,,,,,,,,,,,,,,,,,,,,,,,,,,,,,,,,,,,,,,,,,,,,,,,,,,,,,,,,,,,,,,,,,,,,,,,,,,,,,,,,,,,,,,,,,,,,,,,,
,,,,,,5efe14f421bf492ccd0824e3,62c53a4f270234594f182ae0,2022-07-06_09h31.48.617,Colour_Asymmetry_Pilot,2022.1.3,Win32,59.84798612,62c50e9c1127f2cd403a315f,0,60,60,154,1,twoone,,,,,,,,,,,,,,,,,,,,,,,,,,,,,,,,,,,,,,,,,,,,,,,,,,,,,,,,,,,,,,,,,,,,,,,,,,,,,,,,,,,,,,,,,,,,,,,,,,,,,,,,,,,,,,,,,,,,,,,,,,,,,,,,,,,,,,,,,,,,,,,,,,,,,,,,,,,,,
,,,,,,5efe14f421bf492ccd0824e3,62c53a4f270234594f182ae0,2022-07-06_09h31.48.617,Colour_Asymmetry_Pilot,2022.1.3,Win32,59.84798612,62c50e9c1127f2cd403a315f,0,61,61,126,1,fourtwo,,,,,,,,,,,,,,,,,,,,,,,,,,,,,,,,,,,,,,,,,,,,,,,,,,,,,,,,,,,,,,,,,,,,,,,,,,,,,,,,,,,,,,,,,,,,,,,,,,,,,,,,,,,,,,,,,,,,,,,,,,,,,,,,,,,,,,,,,,,,,,,,,,,,,,,,,,,,,
,,,,,,5efe14f421bf492ccd0824e3,62c53a4f270234594f182ae0,2022-07-06_09h31.48.617,Colour_Asymmetry_Pilot,2022.1.3,Win32,59.84798612,62c50e9c1127f2cd403a315f,0,62,62,107,1,twofour,,,,,,,,,,,,,,,,,,,,,,,,,,,,,,,,,,,,,,,,,,,,,,,,,,,,,,,,,,,,,,,,,,,,,,,,,,,,,,,,,,,,,,,,,,,,,,,,,,,,,,,,,,,,,,,,,,,,,,,,,,,,,,,,,,,,,,,,,,,,,,,,,,,,,,,,,,,,,
,,,,,,5efe14f421bf492ccd0824e3,62c53a4f270234594f182ae0,2022-07-06_09h31.48.617,Colour_Asymmetry_Pilot,2022.1.3,Win32,59.84798612,62c50e9c1127f2cd403a315f,0,63,63,27,1,twofour,,,,,,,,,,,,,,,,,,,,,,,,,,,,,,,,,,,,,,,,,,,,,,,,,,,,,,,,,,,,,,,,,,,,,,,,,,,,,,,,,,,,,,,,,,,,,,,,,,,,,,,,,,,,,,,,,,,,,,,,,,,,,,,,,,,,,,,,,,,,,,,,,,,,,,,,,,,,,
,,,,,,5efe14f421bf492ccd0824e3,62c53a4f270234594f182ae0,2022-07-06_09h31.48.617,Colour_Asymmetry_Pilot,2022.1.3,Win32,59.84798612,62c50e9c1127f2cd403a315f,0,64,64,147,1,twofour,,,,,,,,,,,,,,,,,,,,,,,,,,,,,,,,,,,,,,,,,,,,,,,,,,,,,,,,,,,,,,,,,,,,,,,,,,,,,,,,,,,,,,,,,,,,,,,,,,,,,,,,,,,,,,,,,,,,,,,,,,,,,,,,,,,,,,,,,,,,,,,,,,,,,,,,,,,,,
,,,,,,5efe14f421bf492ccd0824e3,62c53a4f270234594f182ae0,2022-07-06_09h31.48.617,Colour_Asymmetry_Pilot,2022.1.3,Win32,59.84798612,62c50e9c1127f2cd403a315f,0,65,65,108,1,threeone,,,,,,,,,,,,,,,,,,,,,,,,,,,,,,,,,,,,,,,,,,,,,,,,,,,,,,,,,,,,,,,,,,,,,,,,,,,,,,,,,,,,,,,,,,,,,,,,,,,,,,,,,,,,,,,,,,,,,,,,,,,,,,,,,,,,,,,,,,,,,,,,,,,,,,,,,,,,,
,,,,,,5efe14f421bf492ccd0824e3,62c53a4f270234594f182ae0,2022-07-06_09h31.48.617,Colour_Asymmetry_Pilot,2022.1.3,Win32,59.84798612,62c50e9c1127f2cd403a315f,0,66,66,54,1,fourtwo,,,,,,,,,,,,,,,,,,,,,,,,,,,,,,,,,,,,,,,,,,,,,,,,,,,,,,,,,,,,,,,,,,,,,,,,,,,,,,,,,,,,,,,,,,,,,,,,,,,,,,,,,,,,,,,,,,,,,,,,,,,,,,,,,,,,,,,,,,,,,,,,,,,,,,,,,,,,,
,,,,,,5efe14f421bf492ccd0824e3,62c53a4f270234594f182ae0,2022-07-06_09h31.48.617,Colour_Asymmetry_Pilot,2022.1.3,Win32,59.84798612,62c50e9c1127f2cd403a315f,0,67,67,10,1,twoone,,,,,,,,,,,,,,,,,,,,,,,,,,,,,,,,,,,,,,,,,,,,,,,,,,,,,,,,,,,,,,,,,,,,,,,,,,,,,,,,,,,,,,,,,,,,,,,,,,,,,,,,,,,,,,,,,,,,,,,,,,,,,,,,,,,,,,,,,,,,,,,,,,,,,,,,,,,,,
,,,,,,5efe14f421bf492ccd0824e3,62c53a4f270234594f182ae0,2022-07-06_09h31.48.617,Colour_Asymmetry_Pilot,2022.1.3,Win32,59.84798612,62c50e9c1127f2cd403a315f,0,68,68,112,1,onetwo,,,,,,,,,,,,,,,,,,,,,,,,,,,,,,,,,,,,,,,,,,,,,,,,,,,,,,,,,,,,,,,,,,,,,,,,,,,,,,,,,,,,,,,,,,,,,,,,,,,,,,,,,,,,,,,,,,,,,,,,,,,,,,,,,,,,,,,,,,,,,,,,,,,,,,,,,,,,,
,,,,,,5efe14f421bf492ccd0824e3,62c53a4f270234594f182ae0,2022-07-06_09h31.48.617,Colour_Asymmetry_Pilot,2022.1.3,Win32,59.84798612,62c50e9c1127f2cd403a315f,0,69,69,2,1,twoone,,,,,,,,,,,,,,,,,,,,,,,,,,,,,,,,,,,,,,,,,,,,,,,,,,,,,,,,,,,,,,,,,,,,,,,,,,,,,,,,,,,,,,,,,,,,,,,,,,,,,,,,,,,,,,,,,,,,,,,,,,,,,,,,,,,,,,,,,,,,,,,,,,,,,,,,,,,,,
,,,,,,5efe14f421bf492ccd0824e3,62c53a4f270234594f182ae0,2022-07-06_09h31.48.617,Colour_Asymmetry_Pilot,2022.1.3,Win32,59.84798612,62c50e9c1127f2cd403a315f,0,70,70,158,1,fourtwo,,,,,,,,,,,,,,,,,,,,,,,,,,,,,,,,,,,,,,,,,,,,,,,,,,,,,,,,,,,,,,,,,,,,,,,,,,,,,,,,,,,,,,,,,,,,,,,,,,,,,,,,,,,,,,,,,,,,,,,,,,,,,,,,,,,,,,,,,,,,,,,,,,,,,,,,,,,,,
,,,,,,5efe14f421bf492ccd0824e3,62c53a4f270234594f182ae0,2022-07-06_09h31.48.617,Colour_Asymmetry_Pilot,2022.1.3,Win32,59.84798612,62c50e9c1127f2cd403a315f,0,71,71,131,1,twofour,,,,,,,,,,,,,,,,,,,,,,,,,,,,,,,,,,,,,,,,,,,,,,,,,,,,,,,,,,,,,,,,,,,,,,,,,,,,,,,,,,,,,,,,,,,,,,,,,,,,,,,,,,,,,,,,,,,,,,,,,,,,,,,,,,,,,,,,,,,,,,,,,,,,,,,,,,,,,
,,,,,,5efe14f421bf492ccd0824e3,62c53a4f270234594f182ae0,2022-07-06_09h31.48.617,Colour_Asymmetry_Pilot,2022.1.3,Win32,59.84798612,62c50e9c1127f2cd403a315f,0,72,72,82,1,twoone,,,,,,,,,,,,,,,,,,,,,,,,,,,,,,,,,,,,,,,,,,,,,,,,,,,,,,,,,,,,,,,,,,,,,,,,,,,,,,,,,,,,,,,,,,,,,,,,,,,,,,,,,,,,,,,,,,,,,,,,,,,,,,,,,,,,,,,,,,,,,,,,,,,,,,,,,,,,,
,,,,,,5efe14f421bf492ccd0824e3,62c53a4f270234594f182ae0,2022-07-06_09h31.48.617,Colour_Asymmetry_Pilot,2022.1.3,Win32,59.84798612,62c50e9c1127f2cd403a315f,0,73,73,75,1,twofour,,,,,,,,,,,,,,,,,,,,,,,,,,,,,,,,,,,,,,,,,,,,,,,,,,,,,,,,,,,,,,,,,,,,,,,,,,,,,,,,,,,,,,,,,,,,,,,,,,,,,,,,,,,,,,,,,,,,,,,,,,,,,,,,,,,,,,,,,,,,,,,,,,,,,,,,,,,,,
,,,,,,5efe14f421bf492ccd0824e3,62c53a4f270234594f182ae0,2022-07-06_09h31.48.617,Colour_Asymmetry_Pilot,2022.1.3,Win32,59.84798612,62c50e9c1127f2cd403a315f,0,74,74,110,1,fourtwo,,,,,,,,,,,,,,,,,,,,,,,,,,,,,,,,,,,,,,,,,,,,,,,,,,,,,,,,,,,,,,,,,,,,,,,,,,,,,,,,,,,,,,,,,,,,,,,,,,,,,,,,,,,,,,,,,,,,,,,,,,,,,,,,,,,,,,,,,,,,,,,,,,,,,,,,,,,,,
,,,,,,5efe14f421bf492ccd0824e3,62c53a4f270234594f182ae0,2022-07-06_09h31.48.617,Colour_Asymmetry_Pilot,2022.1.3,Win32,59.84798612,62c50e9c1127f2cd403a315f,0,75,75,144,1,onetwo,,,,,,,,,,,,,,,,,,,,,,,,,,,,,,,,,,,,,,,,,,,,,,,,,,,,,,,,,,,,,,,,,,,,,,,,,,,,,,,,,,,,,,,,,,,,,,,,,,,,,,,,,,,,,,,,,,,,,,,,,,,,,,,,,,,,,,,,,,,,,,,,,,,,,,,,,,,,,
,,,,,,5efe14f421bf492ccd0824e3,62c53a4f270234594f182ae0,2022-07-06_09h31.48.617,Colour_Asymmetry_Pilot,2022.1.3,Win32,59.84798612,62c50e9c1127f2cd403a315f,0,76,76,37,1,threefour,,,,,,,,,,,,,,,,,,,,,,,,,,,,,,,,,,,,,,,,,,,,,,,,,,,,,,,,,,,,,,,,,,,,,,,,,,,,,,,,,,,,,,,,,,,,,,,,,,,,,,,,,,,,,,,,,,,,,,,,,,,,,,,,,,,,,,,,,,,,,,,,,,,,,,,,,,,,,
,,,,,,5efe14f421bf492ccd0824e3,62c53a4f270234594f182ae0,2022-07-06_09h31.48.617,Colour_Asymmetry_Pilot,2022.1.3,Win32,59.84798612,62c50e9c1127f2cd403a315f,0,77,77,62,1,fourtwo,,,,,,,,,,,,,,,,,,,,,,,,,,,,,,,,,,,,,,,,,,,,,,,,,,,,,,,,,,,,,,,,,,,,,,,,,,,,,,,,,,,,,,,,,,,,,,,,,,,,,,,,,,,,,,,,,,,,,,,,,,,,,,,,,,,,,,,,,,,,,,,,,,,,,,,,,,,,,
,,,,,,5efe14f421bf492ccd0824e3,62c53a4f270234594f182ae0,2022-07-06_09h31.48.617,Colour_Asymmetry_Pilot,2022.1.3,Win32,59.84798612,62c50e9c1127f2cd403a315f,0,78,78,71,1,fourthree,,,,,,,,,,,,,,,,,,,,,,,,,,,,,,,,,,,,,,,,,,,,,,,,,,,,,,,,,,,,,,,,,,,,,,,,,,,,,,,,,,,,,,,,,,,,,,,,,,,,,,,,,,,,,,,,,,,,,,,,,,,,,,,,,,,,,,,,,,,,,,,,,,,,,,,,,,,,,
,,,,,,5efe14f421bf492ccd0824e3,62c53a4f270234594f182ae0,2022-07-06_09h31.48.617,Colour_Asymmetry_Pilot,2022.1.3,Win32,59.84798612,62c50e9c1127f2cd403a315f,0,79,79,59,1,twofour,,,,,,,,,,,,,,,,,,,,,,,,,,,,,,,,,,,,,,,,,,,,,,,,,,,,,,,,,,,,,,,,,,,,,,,,,,,,,,,,,,,,,,,,,,,,,,,,,,,,,,,,,,,,,,,,,,,,,,,,,,,,,,,,,,,,,,,,,,,,,,,,,,,,,,,,,,,,,
,,,,,,5efe14f421bf492ccd0824e3,62c53a4f270234594f182ae0,2022-07-06_09h31.48.617,Colour_Asymmetry_Pilot,2022.1.3,Win32,59.84798612,62c50e9c1127f2cd403a315f,0,80,80,90,1,twoone,,,,,,,,,,,,,,,,,,,,,,,,,,,,,,,,,,,,,,,,,,,,,,,,,,,,,,,,,,,,,,,,,,,,,,,,,,,,,,,,,,,,,,,,,,,,,,,,,,,,,,,,,,,,,,,,,,,,,,,,,,,,,,,,,,,,,,,,,,,,,,,,,,,,,,,,,,,,,
,,,,,,5efe14f421bf492ccd0824e3,62c53a4f270234594f182ae0,2022-07-06_09h31.48.617,Colour_Asymmetry_Pilot,2022.1.3,Win32,59.84798612,62c50e9c1127f2cd403a315f,0,81,81,157,1,threefour,,,,,,,,,,,,,,,,,,,,,,,,,,,,,,,,,,,,,,,,,,,,,,,,,,,,,,,,,,,,,,,,,,,,,,,,,,,,,,,,,,,,,,,,,,,,,,,,,,,,,,,,,,,,,,,,,,,,,,,,,,,,,,,,,,,,,,,,,,,,,,,,,,,,,,,,,,,,,
,,,,,,5efe14f421bf492ccd0824e3,62c53a4f270234594f182ae0,2022-07-06_09h31.48.617,Colour_Asymmetry_Pilot,2022.1.3,Win32,59.84798612,62c50e9c1127f2cd403a315f,0,82,82,140,1,threeone,,,,,,,,,,,,,,,,,,,,,,,,,,,,,,,,,,,,,,,,,,,,,,,,,,,,,,,,,,,,,,,,,,,,,,,,,,,,,,,,,,,,,,,,,,,,,,,,,,,,,,,,,,,,,,,,,,,,,,,,,,,,,,,,,,,,,,,,,,,,,,,,,,,,,,,,,,,,,
,,,,,,5efe14f421bf492ccd0824e3,62c53a4f270234594f182ae0,2022-07-06_09h31.48.617,Colour_Asymmetry_Pilot,2022.1.3,Win32,59.84798612,62c50e9c1127f2cd403a315f,0,83,83,119,1,fourthree,,,,,,,,,,,,,,,,,,,,,,,,,,,,,,,,,,,,,,,,,,,,,,,,,,,,,,,,,,,,,,,,,,,,,,,,,,,,,,,,,,,,,,,,,,,,,,,,,,,,,,,,,,,,,,,,,,,,,,,,,,,,,,,,,,,,,,,,,,,,,,,,,,,,,,,,,,,,,
,,,,,,5efe14f421bf492ccd0824e3,62c53a4f270234594f182ae0,2022-07-06_09h31.48.617,Colour_Asymmetry_Pilot,2022.1.3,Win32,59.84798612,62c50e9c1127f2cd403a315f,0,84,84,129,1,onethree,,,,,,,,,,,,,,,,,,,,,,,,,,,,,,,,,,,,,,,,,,,,,,,,,,,,,,,,,,,,,,,,,,,,,,,,,,,,,,,,,,,,,,,,,,,,,,,,,,,,,,,,,,,,,,,,,,,,,,,,,,,,,,,,,,,,,,,,,,,,,,,,,,,,,,,,,,,,,
,,,,,,5efe14f421bf492ccd0824e3,62c53a4f270234594f182ae0,2022-07-06_09h31.48.617,Colour_Asymmetry_Pilot,2022.1.3,Win32,59.84798612,62c50e9c1127f2cd403a315f,0,85,85,104,1,onetwo,,,,,,,,,,,,,,,,,,,,,,,,,,,,,,,,,,,,,,,,,,,,,,,,,,,,,,,,,,,,,,,,,,,,,,,,,,,,,,,,,,,,,,,,,,,,,,,,,,,,,,,,,,,,,,,,,,,,,,,,,,,,,,,,,,,,,,,,,,,,,,,,,,,,,,,,,,,,,
,,,,,,5efe14f421bf492ccd0824e3,62c53a4f270234594f182ae0,2022-07-06_09h31.48.617,Colour_Asymmetry_Pilot,2022.1.3,Win32,59.84798612,62c50e9c1127f2cd403a315f,0,86,86,72,1,onetwo,,,,,,,,,,,,,,,,,,,,,,,,,,,,,,,,,,,,,,,,,,,,,,,,,,,,,,,,,,,,,,,,,,,,,,,,,,,,,,,,,,,,,,,,,,,,,,,,,,,,,,,,,,,,,,,,,,,,,,,,,,,,,,,,,,,,,,,,,,,,,,,,,,,,,,,,,,,,,
,,,,,,5efe14f421bf492ccd0824e3,62c53a4f270234594f182ae0,2022-07-06_09h31.48.617,Colour_Asymmetry_Pilot,2022.1.3,Win32,59.84798612,62c50e9c1127f2cd403a315f,0,87,87,12,1,threeone,,,,,,,,,,,,,,,,,,,,,,,,,,,,,,,,,,,,,,,,,,,,,,,,,,,,,,,,,,,,,,,,,,,,,,,,,,,,,,,,,,,,,,,,,,,,,,,,,,,,,,,,,,,,,,,,,,,,,,,,,,,,,,,,,,,,,,,,,,,,,,,,,,,,,,,,,,,,,
,,,,,,5efe14f421bf492ccd0824e3,62c53a4f270234594f182ae0,2022-07-06_09h31.48.617,Colour_Asymmetry_Pilot,2022.1.3,Win32,59.84798612,62c50e9c1127f2cd403a315f,0,88,88,160,1,onetwo,,,,,,,,,,,,,,,,,,,,,,,,,,,,,,,,,,,,,,,,,,,,,,,,,,,,,,,,,,,,,,,,,,,,,,,,,,,,,,,,,,,,,,,,,,,,,,,,,,,,,,,,,,,,,,,,,,,,,,,,,,,,,,,,,,,,,,,,,,,,,,,,,,,,,,,,,,,,,
,,,,,,5efe14f421bf492ccd0824e3,62c53a4f270234594f182ae0,2022-07-06_09h31.48.617,Colour_Asymmetry_Pilot,2022.1.3,Win32,59.84798612,62c50e9c1127f2cd403a315f,0,89,89,36,1,threeone,,,,,,,,,,,,,,,,,,,,,,,,,,,,,,,,,,,,,,,,,,,,,,,,,,,,,,,,,,,,,,,,,,,,,,,,,,,,,,,,,,,,,,,,,,,,,,,,,,,,,,,,,,,,,,,,,,,,,,,,,,,,,,,,,,,,,,,,,,,,,,,,,,,,,,,,,,,,,
,,,,,,5efe14f421bf492ccd0824e3,62c53a4f270234594f182ae0,2022-07-06_09h31.48.617,Colour_Asymmetry_Pilot,2022.1.3,Win32,59.84798612,62c50e9c1127f2cd403a315f,0,90,90,55,1,fourthree,,,,,,,,,,,,,,,,,,,,,,,,,,,,,,,,,,,,,,,,,,,,,,,,,,,,,,,,,,,,,,,,,,,,,,,,,,,,,,,,,,,,,,,,,,,,,,,,,,,,,,,,,,,,,,,,,,,,,,,,,,,,,,,,,,,,,,,,,,,,,,,,,,,,,,,,,,,,,
,,,,,,5efe14f421bf492ccd0824e3,62c53a4f270234594f182ae0,2022-07-06_09h31.48.617,Colour_Asymmetry_Pilot,2022.1.3,Win32,59.84798612,62c50e9c1127f2cd403a315f,0,91,91,3,1,twofour,,,,,,,,,,,,,,,,,,,,,,,,,,,,,,,,,,,,,,,,,,,,,,,,,,,,,,,,,,,,,,,,,,,,,,,,,,,,,,,,,,,,,,,,,,,,,,,,,,,,,,,,,,,,,,,,,,,,,,,,,,,,,,,,,,,,,,,,,,,,,,,,,,,,,,,,,,,,,
,,,,,,5efe14f421bf492ccd0824e3,62c53a4f270234594f182ae0,2022-07-06_09h31.48.617,Colour_Asymmetry_Pilot,2022.1.3,Win32,59.84798612,62c50e9c1127f2cd403a315f,0,92,92,148,1,threeone,,,,,,,,,,,,,,,,,,,,,,,,,,,,,,,,,,,,,,,,,,,,,,,,,,,,,,,,,,,,,,,,,,,,,,,,,,,,,,,,,,,,,,,,,,,,,,,,,,,,,,,,,,,,,,,,,,,,,,,,,,,,,,,,,,,,,,,,,,,,,,,,,,,,,,,,,,,,,
,,,,,,5efe14f421bf492ccd0824e3,62c53a4f270234594f182ae0,2022-07-06_09h31.48.617,Colour_Asymmetry_Pilot,2022.1.3,Win32,59.84798612,62c50e9c1127f2cd403a315f,0,93,93,97,1,onethree,,,,,,,,,,,,,,,,,,,,,,,,,,,,,,,,,,,,,,,,,,,,,,,,,,,,,,,,,,,,,,,,,,,,,,,,,,,,,,,,,,,,,,,,,,,,,,,,,,,,,,,,,,,,,,,,,,,,,,,,,,,,,,,,,,,,,,,,,,,,,,,,,,,,,,,,,,,,,
,,,,,,5efe14f421bf492ccd0824e3,62c53a4f270234594f182ae0,2022-07-06_09h31.48.617,Colour_Asymmetry_Pilot,2022.1.3,Win32,59.84798612,62c50e9c1127f2cd403a315f,0,94,94,125,1,threefour,,,,,,,,,,,,,,,,,,,,,,,,,,,,,,,,,,,,,,,,,,,,,,,,,,,,,,,,,,,,,,,,,,,,,,,,,,,,,,,,,,,,,,,,,,,,,,,,,,,,,,,,,,,,,,,,,,,,,,,,,,,,,,,,,,,,,,,,,,,,,,,,,,,,,,,,,,,,,
,,,,,,5efe14f421bf492ccd0824e3,62c53a4f270234594f182ae0,2022-07-06_09h31.48.617,Colour_Asymmetry_Pilot,2022.1.3,Win32,59.84798612,62c50e9c1127f2cd403a315f,0,95,95,161,1,onethree,,,,,,,,,,,,,,,,,,,,,,,,,,,,,,,,,,,,,,,,,,,,,,,,,,,,,,,,,,,,,,,,,,,,,,,,,,,,,,,,,,,,,,,,,,,,,,,,,,,,,,,,,,,,,,,,,,,,,,,,,,,,,,,,,,,,,,,,,,,,,,,,,,,,,,,,,,,,,
,,,,,,5efe14f421bf492ccd0824e3,62c53a4f270234594f182ae0,2022-07-06_09h31.48.617,Colour_Asymmetry_Pilot,2022.1.3,Win32,59.84798612,62c50e9c1127f2cd403a315f,0,96,96,132,1,threeone,,,,,,,,,,,,,,,,,,,,,,,,,,,,,,,,,,,,,,,,,,,,,,,,,,,,,,,,,,,,,,,,,,,,,,,,,,,,,,,,,,,,,,,,,,,,,,,,,,,,,,,,,,,,,,,,,,,,,,,,,,,,,,,,,,,,,,,,,,,,,,,,,,,,,,,,,,,,,
,,,,,,5efe14f421bf492ccd0824e3,62c53a4f270234594f182ae0,2022-07-06_09h31.48.617,Colour_Asymmetry_Pilot,2022.1.3,Win32,59.84798612,62c50e9c1127f2cd403a315f,0,97,97,76,1,threeone,,,,,,,,,,,,,,,,,,,,,,,,,,,,,,,,,,,,,,,,,,,,,,,,,,,,,,,,,,,,,,,,,,,,,,,,,,,,,,,,,,,,,,,,,,,,,,,,,,,,,,,,,,,,,,,,,,,,,,,,,,,,,,,,,,,,,,,,,,,,,,,,,,,,,,,,,,,,,
,,,,,,5efe14f421bf492ccd0824e3,62c53a4f270234594f182ae0,2022-07-06_09h31.48.617,Colour_Asymmetry_Pilot,2022.1.3,Win32,59.84798612,62c50e9c1127f2cd403a315f,0,98,98,49,1,onethree,,,,,,,,,,,,,,,,,,,,,,,,,,,,,,,,,,,,,,,,,,,,,,,,,,,,,,,,,,,,,,,,,,,,,,,,,,,,,,,,,,,,,,,,,,,,,,,,,,,,,,,,,,,,,,,,,,,,,,,,,,,,,,,,,,,,,,,,,,,,,,,,,,,,,,,,,,,,,
,,,,,,5efe14f421bf492ccd0824e3,62c53a4f270234594f182ae0,2022-07-06_09h31.48.617,Colour_Asymmetry_Pilot,2022.1.3,Win32,59.84798612,62c50e9c1127f2cd403a315f,0,99,99,86,1,fourtwo,,,,,,,,,,,,,,,,,,,,,,,,,,,,,,,,,,,,,,,,,,,,,,,,,,,,,,,,,,,,,,,,,,,,,,,,,,,,,,,,,,,,,,,,,,,,,,,,,,,,,,,,,,,,,,,,,,,,,,,,,,,,,,,,,,,,,,,,,,,,,,,,,,,,,,,,,,,,,
,,,,,,5efe14f421bf492ccd0824e3,62c53a4f270234594f182ae0,2022-07-06_09h31.48.617,Colour_Asymmetry_Pilot,2022.1.3,Win32,59.84798612,62c50e9c1127f2cd403a315f,0,100,100,22,1,fourtwo,,,,,,,,,,,,,,,,,,,,,,,,,,,,,,,,,,,,,,,,,,,,,,,,,,,,,,,,,,,,,,,,,,,,,,,,,,,,,,,,,,,,,,,,,,,,,,,,,,,,,,,,,,,,,,,,,,,,,,,,,,,,,,,,,,,,,,,,,,,,,,,,,,,,,,,,,,,,,
,,,,,,5efe14f421bf492ccd0824e3,62c53a4f270234594f182ae0,2022-07-06_09h31.48.617,Colour_Asymmetry_Pilot,2022.1.3,Win32,59.84798612,62c50e9c1127f2cd403a315f,0,101,101,146,1,twoone,,,,,,,,,,,,,,,,,,,,,,,,,,,,,,,,,,,,,,,,,,,,,,,,,,,,,,,,,,,,,,,,,,,,,,,,,,,,,,,,,,,,,,,,,,,,,,,,,,,,,,,,,,,,,,,,,,,,,,,,,,,,,,,,,,,,,,,,,,,,,,,,,,,,,,,,,,,,,
,,,,,,5efe14f421bf492ccd0824e3,62c53a4f270234594f182ae0,2022-07-06_09h31.48.617,Colour_Asymmetry_Pilot,2022.1.3,Win32,59.84798612,62c50e9c1127f2cd403a315f,0,102,102,31,1,fourthree,,,,,,,,,,,,,,,,,,,,,,,,,,,,,,,,,,,,,,,,,,,,,,,,,,,,,,,,,,,,,,,,,,,,,,,,,,,,,,,,,,,,,,,,,,,,,,,,,,,,,,,,,,,,,,,,,,,,,,,,,,,,,,,,,,,,,,,,,,,,,,,,,,,,,,,,,,,,,
,,,,,,5efe14f421bf492ccd0824e3,62c53a4f270234594f182ae0,2022-07-06_09h31.48.617,Colour_Asymmetry_Pilot,2022.1.3,Win32,59.84798612,62c50e9c1127f2cd403a315f,0,103,103,73,1,onethree,,,,,,,,,,,,,,,,,,,,,,,,,,,,,,,,,,,,,,,,,,,,,,,,,,,,,,,,,,,,,,,,,,,,,,,,,,,,,,,,,,,,,,,,,,,,,,,,,,,,,,,,,,,,,,,,,,,,,,,,,,,,,,,,,,,,,,,,,,,,,,,,,,,,,,,,,,,,,
,,,,,,5efe14f421bf492ccd0824e3,62c53a4f270234594f182ae0,2022-07-06_09h31.48.617,Colour_Asymmetry_Pilot,2022.1.3,Win32,59.84798612,62c50e9c1127f2cd403a315f,0,104,104,77,1,threefour,,,,,,,,,,,,,,,,,,,,,,,,,,,,,,,,,,,,,,,,,,,,,,,,,,,,,,,,,,,,,,,,,,,,,,,,,,,,,,,,,,,,,,,,,,,,,,,,,,,,,,,,,,,,,,,,,,,,,,,,,,,,,,,,,,,,,,,,,,,,,,,,,,,,,,,,,,,,,
,,,,,,5efe14f421bf492ccd0824e3,62c53a4f270234594f182ae0,2022-07-06_09h31.48.617,Colour_Asymmetry_Pilot,2022.1.3,Win32,59.84798612,62c50e9c1127f2cd403a315f,0,105,105,130,1,twoone,,,,,,,,,,,,,,,,,,,,,,,,,,,,,,,,,,,,,,,,,,,,,,,,,,,,,,,,,,,,,,,,,,,,,,,,,,,,,,,,,,,,,,,,,,,,,,,,,,,,,,,,,,,,,,,,,,,,,,,,,,,,,,,,,,,,,,,,,,,,,,,,,,,,,,,,,,,,,
,,,,,,5efe14f421bf492ccd0824e3,62c53a4f270234594f182ae0,2022-07-06_09h31.48.617,Colour_Asymmetry_Pilot,2022.1.3,Win32,59.84798612,62c50e9c1127f2cd403a315f,0,106,106,152,1,onetwo,,,,,,,,,,,,,,,,,,,,,,,,,,,,,,,,,,,,,,,,,,,,,,,,,,,,,,,,,,,,,,,,,,,,,,,,,,,,,,,,,,,,,,,,,,,,,,,,,,,,,,,,,,,,,,,,,,,,,,,,,,,,,,,,,,,,,,,,,,,,,,,,,,,,,,,,,,,,,
,,,,,,5efe14f421bf492ccd0824e3,62c53a4f270234594f182ae0,2022-07-06_09h31.48.617,Colour_Asymmetry_Pilot,2022.1.3,Win32,59.84798612,62c50e9c1127f2cd403a315f,0,107,107,18,1,twoone,,,,,,,,,,,,,,,,,,,,,,,,,,,,,,,,,,,,,,,,,,,,,,,,,,,,,,,,,,,,,,,,,,,,,,,,,,,,,,,,,,,,,,,,,,,,,,,,,,,,,,,,,,,,,,,,,,,,,,,,,,,,,,,,,,,,,,,,,,,,,,,,,,,,,,,,,,,,,
,,,,,,5efe14f421bf492ccd0824e3,62c53a4f270234594f182ae0,2022-07-06_09h31.48.617,Colour_Asymmetry_Pilot,2022.1.3,Win32,59.84798612,62c50e9c1127f2cd403a315f,0,108,108,81,1,onethree,,,,,,,,,,,,,,,,,,,,,,,,,,,,,,,,,,,,,,,,,,,,,,,,,,,,,,,,,,,,,,,,,,,,,,,,,,,,,,,,,,,,,,,,,,,,,,,,,,,,,,,,,,,,,,,,,,,,,,,,,,,,,,,,,,,,,,,,,,,,,,,,,,,,,,,,,,,,,
,,,,,,5efe14f421bf492ccd0824e3,62c53a4f270234594f182ae0,2022-07-06_09h31.48.617,Colour_Asymmetry_Pilot,2022.1.3,Win32,59.84798612,62c50e9c1127f2cd403a315f,0,109,109,84,1,threeone,,,,,,,,,,,,,,,,,,,,,,,,,,,,,,,,,,,,,,,,,,,,,,,,,,,,,,,,,,,,,,,,,,,,,,,,,,,,,,,,,,,,,,,,,,,,,,,,,,,,,,,,,,,,,,,,,,,,,,,,,,,,,,,,,,,,,,,,,,,,,,,,,,,,,,,,,,,,,
,,,,,,5efe14f421bf492ccd0824e3,62c53a4f270234594f182ae0,2022-07-06_09h31.48.617,Colour_Asymmetry_Pilot,2022.1.3,Win32,59.84798612,62c50e9c1127f2cd403a315f,0,110,110,44,1,threeone,,,,,,,,,,,,,,,,,,,,,,,,,,,,,,,,,,,,,,,,,,,,,,,,,,,,,,,,,,,,,,,,,,,,,,,,,,,,,,,,,,,,,,,,,,,,,,,,,,,,,,,,,,,,,,,,,,,,,,,,,,,,,,,,,,,,,,,,,,,,,,,,,,,,,,,,,,,,,
,,,,,,5efe14f421bf492ccd0824e3,62c53a4f270234594f182ae0,2022-07-06_09h31.48.617,Colour_Asymmetry_Pilot,2022.1.3,Win32,59.84798612,62c50e9c1127f2cd403a315f,0,111,111,159,1,fourthree,,,,,,,,,,,,,,,,,,,,,,,,,,,,,,,,,,,,,,,,,,,,,,,,,,,,,,,,,,,,,,,,,,,,,,,,,,,,,,,,,,,,,,,,,,,,,,,,,,,,,,,,,,,,,,,,,,,,,,,,,,,,,,,,,,,,,,,,,,,,,,,,,,,,,,,,,,,,,
,,,,,,5efe14f421bf492ccd0824e3,62c53a4f270234594f182ae0,2022-07-06_09h31.48.617,Colour_Asymmetry_Pilot,2022.1.3,Win32,59.84798612,62c50e9c1127f2cd403a315f,0,112,112,69,1,threefour,,,,,,,,,,,,,,,,,,,,,,,,,,,,,,,,,,,,,,,,,,,,,,,,,,,,,,,,,,,,,,,,,,,,,,,,,,,,,,,,,,,,,,,,,,,,,,,,,,,,,,,,,,,,,,,,,,,,,,,,,,,,,,,,,,,,,,,,,,,,,,,,,,,,,,,,,,,,,
,,,,,,5efe14f421bf492ccd0824e3,62c53a4f270234594f182ae0,2022-07-06_09h31.48.617,Colour_Asymmetry_Pilot,2022.1.3,Win32,59.84798612,62c50e9c1127f2cd403a315f,0,113,113,141,1,threefour,,,,,,,,,,,,,,,,,,,,,,,,,,,,,,,,,,,,,,,,,,,,,,,,,,,,,,,,,,,,,,,,,,,,,,,,,,,,,,,,,,,,,,,,,,,,,,,,,,,,,,,,,,,,,,,,,,,,,,,,,,,,,,,,,,,,,,,,,,,,,,,,,,,,,,,,,,,,,
,,,,,,5efe14f421bf492ccd0824e3,62c53a4f270234594f182ae0,2022-07-06_09h31.48.617,Colour_Asymmetry_Pilot,2022.1.3,Win32,59.84798612,62c50e9c1127f2cd403a315f,0,114,114,124,1,threeone,,,,,,,,,,,,,,,,,,,,,,,,,,,,,,,,,,,,,,,,,,,,,,,,,,,,,,,,,,,,,,,,,,,,,,,,,,,,,,,,,,,,,,,,,,,,,,,,,,,,,,,,,,,,,,,,,,,,,,,,,,,,,,,,,,,,,,,,,,,,,,,,,,,,,,,,,,,,,
,,,,,,5efe14f421bf492ccd0824e3,62c53a4f270234594f182ae0,2022-07-06_09h31.48.617,Colour_Asymmetry_Pilot,2022.1.3,Win32,59.84798612,62c50e9c1127f2cd403a315f,0,115,115,136,1,onetwo,,,,,,,,,,,,,,,,,,,,,,,,,,,,,,,,,,,,,,,,,,,,,,,,,,,,,,,,,,,,,,,,,,,,,,,,,,,,,,,,,,,,,,,,,,,,,,,,,,,,,,,,,,,,,,,,,,,,,,,,,,,,,,,,,,,,,,,,,,,,,,,,,,,,,,,,,,,,,
,,,,,,5efe14f421bf492ccd0824e3,62c53a4f270234594f182ae0,2022-07-06_09h31.48.617,Colour_Asymmetry_Pilot,2022.1.3,Win32,59.84798612,62c50e9c1127f2cd403a315f,0,116,116,156,1,threeone,,,,,,,,,,,,,,,,,,,,,,,,,,,,,,,,,,,,,,,,,,,,,,,,,,,,,,,,,,,,,,,,,,,,,,,,,,,,,,,,,,,,,,,,,,,,,,,,,,,,,,,,,,,,,,,,,,,,,,,,,,,,,,,,,,,,,,,,,,,,,,,,,,,,,,,,,,,,,
,,,,,,5efe14f421bf492ccd0824e3,62c53a4f270234594f182ae0,2022-07-06_09h31.48.617,Colour_Asymmetry_Pilot,2022.1.3,Win32,59.84798612,62c50e9c1127f2cd403a315f,0,117,117,111,1,fourthree,,,,,,,,,,,,,,,,,,,,,,,,,,,,,,,,,,,,,,,,,,,,,,,,,,,,,,,,,,,,,,,,,,,,,,,,,,,,,,,,,,,,,,,,,,,,,,,,,,,,,,,,,,,,,,,,,,,,,,,,,,,,,,,,,,,,,,,,,,,,,,,,,,,,,,,,,,,,,
,,,,,,5efe14f421bf492ccd0824e3,62c53a4f270234594f182ae0,2022-07-06_09h31.48.617,Colour_Asymmetry_Pilot,2022.1.3,Win32,59.84798612,62c50e9c1127f2cd403a315f,0,118,118,13,1,threefour,,,,,,,,,,,,,,,,,,,,,,,,,,,,,,,,,,,,,,,,,,,,,,,,,,,,,,,,,,,,,,,,,,,,,,,,,,,,,,,,,,,,,,,,,,,,,,,,,,,,,,,,,,,,,,,,,,,,,,,,,,,,,,,,,,,,,,,,,,,,,,,,,,,,,,,,,,,,,
,,,,,,5efe14f421bf492ccd0824e3,62c53a4f270234594f182ae0,2022-07-06_09h31.48.617,Colour_Asymmetry_Pilot,2022.1.3,Win32,59.84798612,62c50e9c1127f2cd403a315f,0,119,119,0,1,onetwo,,,,,,,,,,,,,,,,,,,,,,,,,,,,,,,,,,,,,,,,,,,,,,,,,,,,,,,,,,,,,,,,,,,,,,,,,,,,,,,,,,,,,,,,,,,,,,,,,,,,,,,,,,,,,,,,,,,,,,,,,,,,,,,,,,,,,,,,,,,,,,,,,,,,,,,,,,,,,
,,,,,,5efe14f421bf492ccd0824e3,62c53a4f270234594f182ae0,2022-07-06_09h31.48.617,Colour_Asymmetry_Pilot,2022.1.3,Win32,59.84798612,62c50e9c1127f2cd403a315f,0,120,120,1,1,onethree,,,,,,,,,,,,,,,,,,,,,,,,,,,,,,,,,,,,,,,,,,,,,,,,,,,,,,,,,,,,,,,,,,,,,,,,,,,,,,,,,,,,,,,,,,,,,,,,,,,,,,,,,,,,,,,,,,,,,,,,,,,,,,,,,,,,,,,,,,,,,,,,,,,,,,,,,,,,,
,,,,,,5efe14f421bf492ccd0824e3,62c53a4f270234594f182ae0,2022-07-06_09h31.48.617,Colour_Asymmetry_Pilot,2022.1.3,Win32,59.84798612,62c50e9c1127f2cd403a315f,0,121,121,65,1,onethree,,,,,,,,,,,,,,,,,,,,,,,,,,,,,,,,,,,,,,,,,,,,,,,,,,,,,,,,,,,,,,,,,,,,,,,,,,,,,,,,,,,,,,,,,,,,,,,,,,,,,,,,,,,,,,,,,,,,,,,,,,,,,,,,,,,,,,,,,,,,,,,,,,,,,,,,,,,,,
,,,,,,5efe14f421bf492ccd0824e3,62c53a4f270234594f182ae0,2022-07-06_09h31.48.617,Colour_Asymmetry_Pilot,2022.1.3,Win32,59.84798612,62c50e9c1127f2cd403a315f,0,122,122,17,1,onethree,,,,,,,,,,,,,,,,,,,,,,,,,,,,,,,,,,,,,,,,,,,,,,,,,,,,,,,,,,,,,,,,,,,,,,,,,,,,,,,,,,,,,,,,,,,,,,,,,,,,,,,,,,,,,,,,,,,,,,,,,,,,,,,,,,,,,,,,,,,,,,,,,,,,,,,,,,,,,
,,,,,,5efe14f421bf492ccd0824e3,62c53a4f270234594f182ae0,2022-07-06_09h31.48.617,Colour_Asymmetry_Pilot,2022.1.3,Win32,59.84798612,62c50e9c1127f2cd403a315f,0,123,123,134,1,fourtwo,,,,,,,,,,,,,,,,,,,,,,,,,,,,,,,,,,,,,,,,,,,,,,,,,,,,,,,,,,,,,,,,,,,,,,,,,,,,,,,,,,,,,,,,,,,,,,,,,,,,,,,,,,,,,,,,,,,,,,,,,,,,,,,,,,,,,,,,,,,,,,,,,,,,,,,,,,,,,
,,,,,,5efe14f421bf492ccd0824e3,62c53a4f270234594f182ae0,2022-07-06_09h31.48.617,Colour_Asymmetry_Pilot,2022.1.3,Win32,59.84798612,62c50e9c1127f2cd403a315f,0,124,124,94,1,fourtwo,,,,,,,,,,,,,,,,,,,,,,,,,,,,,,,,,,,,,,,,,,,,,,,,,,,,,,,,,,,,,,,,,,,,,,,,,,,,,,,,,,,,,,,,,,,,,,,,,,,,,,,,,,,,,,,,,,,,,,,,,,,,,,,,,,,,,,,,,,,,,,,,,,,,,,,,,,,,,
,,,,,,5efe14f421bf492ccd0824e3,62c53a4f270234594f182ae0,2022-07-06_09h31.48.617,Colour_Asymmetry_Pilot,2022.1.3,Win32,59.84798612,62c50e9c1127f2cd403a315f,0,125,125,145,1,onethree,,,,,,,,,,,,,,,,,,,,,,,,,,,,,,,,,,,,,,,,,,,,,,,,,,,,,,,,,,,,,,,,,,,,,,,,,,,,,,,,,,,,,,,,,,,,,,,,,,,,,,,,,,,,,,,,,,,,,,,,,,,,,,,,,,,,,,,,,,,,,,,,,,,,,,,,,,,,,
,,,,,,5efe14f421bf492ccd0824e3,62c53a4f270234594f182ae0,2022-07-06_09h31.48.617,Colour_Asymmetry_Pilot,2022.1.3,Win32,59.84798612,62c50e9c1127f2cd403a315f,0,126,126,38,1,fourtwo,,,,,,,,,,,,,,,,,,,,,,,,,,,,,,,,,,,,,,,,,,,,,,,,,,,,,,,,,,,,,,,,,,,,,,,,,,,,,,,,,,,,,,,,,,,,,,,,,,,,,,,,,,,,,,,,,,,,,,,,,,,,,,,,,,,,,,,,,,,,,,,,,,,,,,,,,,,,,
,,,,,,5efe14f421bf492ccd0824e3,62c53a4f270234594f182ae0,2022-07-06_09h31.48.617,Colour_Asymmetry_Pilot,2022.1.3,Win32,59.84798612,62c50e9c1127f2cd403a315f,0,127,127,32,1,onetwo,,,,,,,,,,,,,,,,,,,,,,,,,,,,,,,,,,,,,,,,,,,,,,,,,,,,,,,,,,,,,,,,,,,,,,,,,,,,,,,,,,,,,,,,,,,,,,,,,,,,,,,,,,,,,,,,,,,,,,,,,,,,,,,,,,,,,,,,,,,,,,,,,,,,,,,,,,,,,
,,,,,,5efe14f421bf492ccd0824e3,62c53a4f270234594f182ae0,2022-07-06_09h31.48.617,Colour_Asymmetry_Pilot,2022.1.3,Win32,59.84798612,62c50e9c1127f2cd403a315f,0,128,128,43,1,twofour,,,,,,,,,,,,,,,,,,,,,,,,,,,,,,,,,,,,,,,,,,,,,,,,,,,,,,,,,,,,,,,,,,,,,,,,,,,,,,,,,,,,,,,,,,,,,,,,,,,,,,,,,,,,,,,,,,,,,,,,,,,,,,,,,,,,,,,,,,,,,,,,,,,,,,,,,,,,,
,,,,,,5efe14f421bf492ccd0824e3,62c53a4f270234594f182ae0,2022-07-06_09h31.48.617,Colour_Asymmetry_Pilot,2022.1.3,Win32,59.84798612,62c50e9c1127f2cd403a315f,0,129,129,45,1,threefour,,,,,,,,,,,,,,,,,,,,,,,,,,,,,,,,,,,,,,,,,,,,,,,,,,,,,,,,,,,,,,,,,,,,,,,,,,,,,,,,,,,,,,,,,,,,,,,,,,,,,,,,,,,,,,,,,,,,,,,,,,,,,,,,,,,,,,,,,,,,,,,,,,,,,,,,,,,,,
,,,,,,5efe14f421bf492ccd0824e3,62c53a4f270234594f182ae0,2022-07-06_09h31.48.617,Colour_Asymmetry_Pilot,2022.1.3,Win32,59.84798612,62c50e9c1127f2cd403a315f,0,130,130,14,1,fourtwo,,,,,,,,,,,,,,,,,,,,,,,,,,,,,,,,,,,,,,,,,,,,,,,,,,,,,,,,,,,,,,,,,,,,,,,,,,,,,,,,,,,,,,,,,,,,,,,,,,,,,,,,,,,,,,,,,,,,,,,,,,,,,,,,,,,,,,,,,,,,,,,,,,,,,,,,,,,,,
,,,,,,5efe14f421bf492ccd0824e3,62c53a4f270234594f182ae0,2022-07-06_09h31.48.617,Colour_Asymmetry_Pilot,2022.1.3,Win32,59.84798612,62c50e9c1127f2cd403a315f,0,131,131,120,1,onetwo,,,,,,,,,,,,,,,,,,,,,,,,,,,,,,,,,,,,,,,,,,,,,,,,,,,,,,,,,,,,,,,,,,,,,,,,,,,,,,,,,,,,,,,,,,,,,,,,,,,,,,,,,,,,,,,,,,,,,,,,,,,,,,,,,,,,,,,,,,,,,,,,,,,,,,,,,,,,,
,,,,,,5efe14f421bf492ccd0824e3,62c53a4f270234594f182ae0,2022-07-06_09h31.48.617,Colour_Asymmetry_Pilot,2022.1.3,Win32,59.84798612,62c50e9c1127f2cd403a315f,0,132,132,5,1,threefour,,,,,,,,,,,,,,,,,,,,,,,,,,,,,,,,,,,,,,,,,,,,,,,,,,,,,,,,,,,,,,,,,,,,,,,,,,,,,,,,,,,,,,,,,,,,,,,,,,,,,,,,,,,,,,,,,,,,,,,,,,,,,,,,,,,,,,,,,,,,,,,,,,,,,,,,,,,,,
,,,,,,5efe14f421bf492ccd0824e3,62c53a4f270234594f182ae0,2022-07-06_09h31.48.617,Colour_Asymmetry_Pilot,2022.1.3,Win32,59.84798612,62c50e9c1127f2cd403a315f,0,133,133,114,1,twoone,,,,,,,,,,,,,,,,,,,,,,,,,,,,,,,,,,,,,,,,,,,,,,,,,,,,,,,,,,,,,,,,,,,,,,,,,,,,,,,,,,,,,,,,,,,,,,,,,,,,,,,,,,,,,,,,,,,,,,,,,,,,,,,,,,,,,,,,,,,,,,,,,,,,,,,,,,,,,
,,,,,,5efe14f421bf492ccd0824e3,62c53a4f270234594f182ae0,2022-07-06_09h31.48.617,Colour_Asymmetry_Pilot,2022.1.3,Win32,59.84798612,62c50e9c1127f2cd403a315f,0,134,134,63,1,fourthree,,,,,,,,,,,,,,,,,,,,,,,,,,,,,,,,,,,,,,,,,,,,,,,,,,,,,,,,,,,,,,,,,,,,,,,,,,,,,,,,,,,,,,,,,,,,,,,,,,,,,,,,,,,,,,,,,,,,,,,,,,,,,,,,,,,,,,,,,,,,,,,,,,,,,,,,,,,,,
,,,,,,5efe14f421bf492ccd0824e3,62c53a4f270234594f182ae0,2022-07-06_09h31.48.617,Colour_Asymmetry_Pilot,2022.1.3,Win32,59.84798612,62c50e9c1127f2cd403a315f,0,135,135,92,1,threeone,,,,,,,,,,,,,,,,,,,,,,,,,,,,,,,,,,,,,,,,,,,,,,,,,,,,,,,,,,,,,,,,,,,,,,,,,,,,,,,,,,,,,,,,,,,,,,,,,,,,,,,,,,,,,,,,,,,,,,,,,,,,,,,,,,,,,,,,,,,,,,,,,,,,,,,,,,,,,
,,,,,,5efe14f421bf492ccd0824e3,62c53a4f270234594f182ae0,2022-07-06_09h31.48.617,Colour_Asymmetry_Pilot,2022.1.3,Win32,59.84798612,62c50e9c1127f2cd403a315f,0,136,136,74,1,twoone,,,,,,,,,,,,,,,,,,,,,,,,,,,,,,,,,,,,,,,,,,,,,,,,,,,,,,,,,,,,,,,,,,,,,,,,,,,,,,,,,,,,,,,,,,,,,,,,,,,,,,,,,,,,,,,,,,,,,,,,,,,,,,,,,,,,,,,,,,,,,,,,,,,,,,,,,,,,,
,,,,,,5efe14f421bf492ccd0824e3,62c53a4f270234594f182ae0,2022-07-06_09h31.48.617,Colour_Asymmetry_Pilot,2022.1.3,Win32,59.84798612,62c50e9c1127f2cd403a315f,0,137,137,42,1,twoone,,,,,,,,,,,,,,,,,,,,,,,,,,,,,,,,,,,,,,,,,,,,,,,,,,,,,,,,,,,,,,,,,,,,,,,,,,,,,,,,,,,,,,,,,,,,,,,,,,,,,,,,,,,,,,,,,,,,,,,,,,,,,,,,,,,,,,,,,,,,,,,,,,,,,,,,,,,,,
,,,,,,5efe14f421bf492ccd0824e3,62c53a4f270234594f182ae0,2022-07-06_09h31.48.617,Colour_Asymmetry_Pilot,2022.1.3,Win32,59.84798612,62c50e9c1127f2cd403a315f,0,138,138,123,1,twofour,,,,,,,,,,,,,,,,,,,,,,,,,,,,,,,,,,,,,,,,,,,,,,,,,,,,,,,,,,,,,,,,,,,,,,,,,,,,,,,,,,,,,,,,,,,,,,,,,,,,,,,,,,,,,,,,,,,,,,,,,,,,,,,,,,,,,,,,,,,,,,,,,,,,,,,,,,,,,
,,,,,,5efe14f421bf492ccd0824e3,62c53a4f270234594f182ae0,2022-07-06_09h31.48.617,Colour_Asymmetry_Pilot,2022.1.3,Win32,59.84798612,62c50e9c1127f2cd403a315f,0,139,139,99,1,twofour,,,,,,,,,,,,,,,,,,,,,,,,,,,,,,,,,,,,,,,,,,,,,,,,,,,,,,,,,,,,,,,,,,,,,,,,,,,,,,,,,,,,,,,,,,,,,,,,,,,,,,,,,,,,,,,,,,,,,,,,,,,,,,,,,,,,,,,,,,,,,,,,,,,,,,,,,,,,,
,,,,,,5efe14f421bf492ccd0824e3,62c53a4f270234594f182ae0,2022-07-06_09h31.48.617,Colour_Asymmetry_Pilot,2022.1.3,Win32,59.84798612,62c50e9c1127f2cd403a315f,0,140,140,66,1,twoone,,,,,,,,,,,,,,,,,,,,,,,,,,,,,,,,,,,,,,,,,,,,,,,,,,,,,,,,,,,,,,,,,,,,,,,,,,,,,,,,,,,,,,,,,,,,,,,,,,,,,,,,,,,,,,,,,,,,,,,,,,,,,,,,,,,,,,,,,,,,,,,,,,,,,,,,,,,,,
,,,,,,5efe14f421bf492ccd0824e3,62c53a4f270234594f182ae0,2022-07-06_09h31.48.617,Colour_Asymmetry_Pilot,2022.1.3,Win32,59.84798612,62c50e9c1127f2cd403a315f,0,141,141,67,1,twofour,,,,,,,,,,,,,,,,,,,,,,,,,,,,,,,,,,,,,,,,,,,,,,,,,,,,,,,,,,,,,,,,,,,,,,,,,,,,,,,,,,,,,,,,,,,,,,,,,,,,,,,,,,,,,,,,,,,,,,,,,,,,,,,,,,,,,,,,,,,,,,,,,,,,,,,,,,,,,
,,,,,,5efe14f421bf492ccd0824e3,62c53a4f270234594f182ae0,2022-07-06_09h31.48.617,Colour_Asymmetry_Pilot,2022.1.3,Win32,59.84798612,62c50e9c1127f2cd403a315f,0,142,142,30,1,fourtwo,,,,,,,,,,,,,,,,,,,,,,,,,,,,,,,,,,,,,,,,,,,,,,,,,,,,,,,,,,,,,,,,,,,,,,,,,,,,,,,,,,,,,,,,,,,,,,,,,,,,,,,,,,,,,,,,,,,,,,,,,,,,,,,,,,,,,,,,,,,,,,,,,,,,,,,,,,,,,
,,,,,,5efe14f421bf492ccd0824e3,62c53a4f270234594f182ae0,2022-07-06_09h31.48.617,Colour_Asymmetry_Pilot,2022.1.3,Win32,59.84798612,62c50e9c1127f2cd403a315f,0,143,143,103,1,fourthree,,,,,,,,,,,,,,,,,,,,,,,,,,,,,,,,,,,,,,,,,,,,,,,,,,,,,,,,,,,,,,,,,,,,,,,,,,,,,,,,,,,,,,,,,,,,,,,,,,,,,,,,,,,,,,,,,,,,,,,,,,,,,,,,,,,,,,,,,,,,,,,,,,,,,,,,,,,,,
,,,,,,5efe14f421bf492ccd0824e3,62c53a4f270234594f182ae0,2022-07-06_09h31.48.617,Colour_Asymmetry_Pilot,2022.1.3,Win32,59.84798612,62c50e9c1127f2cd403a315f,0,144,144,142,1,fourtwo,,,,,,,,,,,,,,,,,,,,,,,,,,,,,,,,,,,,,,,,,,,,,,,,,,,,,,,,,,,,,,,,,,,,,,,,,,,,,,,,,,,,,,,,,,,,,,,,,,,,,,,,,,,,,,,,,,,,,,,,,,,,,,,,,,,,,,,,,,,,,,,,,,,,,,,,,,,,,
,,,,,,5efe14f421bf492ccd0824e3,62c53a4f270234594f182ae0,2022-07-06_09h31.48.617,Colour_Asymmetry_Pilot,2022.1.3,Win32,59.84798612,62c50e9c1127f2cd403a315f,0,145,145,83,1,twofour,,,,,,,,,,,,,,,,,,,,,,,,,,,,,,,,,,,,,,,,,,,,,,,,,,,,,,,,,,,,,,,,,,,,,,,,,,,,,,,,,,,,,,,,,,,,,,,,,,,,,,,,,,,,,,,,,,,,,,,,,,,,,,,,,,,,,,,,,,,,,,,,,,,,,,,,,,,,,
,,,,,,5efe14f421bf492ccd0824e3,62c53a4f270234594f182ae0,2022-07-06_09h31.48.617,Colour_Asymmetry_Pilot,2022.1.3,Win32,59.84798612,62c50e9c1127f2cd403a315f,0,146,146,101,1,threefour,,,,,,,,,,,,,,,,,,,,,,,,,,,,,,,,,,,,,,,,,,,,,,,,,,,,,,,,,,,,,,,,,,,,,,,,,,,,,,,,,,,,,,,,,,,,,,,,,,,,,,,,,,,,,,,,,,,,,,,,,,,,,,,,,,,,,,,,,,,,,,,,,,,,,,,,,,,,,
,,,,,,5efe14f421bf492ccd0824e3,62c53a4f270234594f182ae0,2022-07-06_09h31.48.617,Colour_Asymmetry_Pilot,2022.1.3,Win32,59.84798612,62c50e9c1127f2cd403a315f,0,147,147,117,1,threefour,,,,,,,,,,,,,,,,,,,,,,,,,,,,,,,,,,,,,,,,,,,,,,,,,,,,,,,,,,,,,,,,,,,,,,,,,,,,,,,,,,,,,,,,,,,,,,,,,,,,,,,,,,,,,,,,,,,,,,,,,,,,,,,,,,,,,,,,,,,,,,,,,,,,,,,,,,,,,
,,,,,,5efe14f421bf492ccd0824e3,62c53a4f270234594f182ae0,2022-07-06_09h31.48.617,Colour_Asymmetry_Pilot,2022.1.3,Win32,59.84798612,62c50e9c1127f2cd403a315f,0,148,148,9,1,onethree,,,,,,,,,,,,,,,,,,,,,,,,,,,,,,,,,,,,,,,,,,,,,,,,,,,,,,,,,,,,,,,,,,,,,,,,,,,,,,,,,,,,,,,,,,,,,,,,,,,,,,,,,,,,,,,,,,,,,,,,,,,,,,,,,,,,,,,,,,,,,,,,,,,,,,,,,,,,,
,,,,,,5efe14f421bf492ccd0824e3,62c53a4f270234594f182ae0,2022-07-06_09h31.48.617,Colour_Asymmetry_Pilot,2022.1.3,Win32,59.84798612,62c50e9c1127f2cd403a315f,0,149,149,15,1,fourthree,,,,,,,,,,,,,,,,,,,,,,,,,,,,,,,,,,,,,,,,,,,,,,,,,,,,,,,,,,,,,,,,,,,,,,,,,,,,,,,,,,,,,,,,,,,,,,,,,,,,,,,,,,,,,,,,,,,,,,,,,,,,,,,,,,,,,,,,,,,,,,,,,,,,,,,,,,,,,
,,,,,,5efe14f421bf492ccd0824e3,62c53a4f270234594f182ae0,2022-07-06_09h31.48.617,Colour_Asymmetry_Pilot,2022.1.3,Win32,59.84798612,62c50e9c1127f2cd403a315f,0,150,150,57,1,onethree,,,,,,,,,,,,,,,,,,,,,,,,,,,,,,,,,,,,,,,,,,,,,,,,,,,,,,,,,,,,,,,,,,,,,,,,,,,,,,,,,,,,,,,,,,,,,,,,,,,,,,,,,,,,,,,,,,,,,,,,,,,,,,,,,,,,,,,,,,,,,,,,,,,,,,,,,,,,,
,,,,,,5efe14f421bf492ccd0824e3,62c53a4f270234594f182ae0,2022-07-06_09h31.48.617,Colour_Asymmetry_Pilot,2022.1.3,Win32,59.84798612,62c50e9c1127f2cd403a315f,0,151,151,155,1,twofour,,,,,,,,,,,,,,,,,,,,,,,,,,,,,,,,,,,,,,,,,,,,,,,,,,,,,,,,,,,,,,,,,,,,,,,,,,,,,,,,,,,,,,,,,,,,,,,,,,,,,,,,,,,,,,,,,,,,,,,,,,,,,,,,,,,,,,,,,,,,,,,,,,,,,,,,,,,,,
,,,,,,5efe14f421bf492ccd0824e3,62c53a4f270234594f182ae0,2022-07-06_09h31.48.617,Colour_Asymmetry_Pilot,2022.1.3,Win32,59.84798612,62c50e9c1127f2cd403a315f,0,152,152,58,1,twoone,,,,,,,,,,,,,,,,,,,,,,,,,,,,,,,,,,,,,,,,,,,,,,,,,,,,,,,,,,,,,,,,,,,,,,,,,,,,,,,,,,,,,,,,,,,,,,,,,,,,,,,,,,,,,,,,,,,,,,,,,,,,,,,,,,,,,,,,,,,,,,,,,,,,,,,,,,,,,
,,,,,,5efe14f421bf492ccd0824e3,62c53a4f270234594f182ae0,2022-07-06_09h31.48.617,Colour_Asymmetry_Pilot,2022.1.3,Win32,59.84798612,62c50e9c1127f2cd403a315f,0,153,153,91,1,twofour,,,,,,,,,,,,,,,,,,,,,,,,,,,,,,,,,,,,,,,,,,,,,,,,,,,,,,,,,,,,,,,,,,,,,,,,,,,,,,,,,,,,,,,,,,,,,,,,,,,,,,,,,,,,,,,,,,,,,,,,,,,,,,,,,,,,,,,,,,,,,,,,,,,,,,,,,,,,,
,,,,,,5efe14f421bf492ccd0824e3,62c53a4f270234594f182ae0,2022-07-06_09h31.48.617,Colour_Asymmetry_Pilot,2022.1.3,Win32,59.84798612,62c50e9c1127f2cd403a315f,0,154,154,89,1,onethree,,,,,,,,,,,,,,,,,,,,,,,,,,,,,,,,,,,,,,,,,,,,,,,,,,,,,,,,,,,,,,,,,,,,,,,,,,,,,,,,,,,,,,,,,,,,,,,,,,,,,,,,,,,,,,,,,,,,,,,,,,,,,,,,,,,,,,,,,,,,,,,,,,,,,,,,,,,,,
,,,,,,5efe14f421bf492ccd0824e3,62c53a4f270234594f182ae0,2022-07-06_09h31.48.617,Colour_Asymmetry_Pilot,2022.1.3,Win32,59.84798612,62c50e9c1127f2cd403a315f,0,155,155,61,1,threefour,,,,,,,,,,,,,,,,,,,,,,,,,,,,,,,,,,,,,,,,,,,,,,,,,,,,,,,,,,,,,,,,,,,,,,,,,,,,,,,,,,,,,,,,,,,,,,,,,,,,,,,,,,,,,,,,,,,,,,,,,,,,,,,,,,,,,,,,,,,,,,,,,,,,,,,,,,,,,
,,,,,,5efe14f421bf492ccd0824e3,62c53a4f270234594f182ae0,2022-07-06_09h31.48.617,Colour_Asymmetry_Pilot,2022.1.3,Win32,59.84798612,62c50e9c1127f2cd403a315f,0,156,156,68,1,threeone,,,,,,,,,,,,,,,,,,,,,,,,,,,,,,,,,,,,,,,,,,,,,,,,,,,,,,,,,,,,,,,,,,,,,,,,,,,,,,,,,,,,,,,,,,,,,,,,,,,,,,,,,,,,,,,,,,,,,,,,,,,,,,,,,,,,,,,,,,,,,,,,,,,,,,,,,,,,,
,,,,,,5efe14f421bf492ccd0824e3,62c53a4f270234594f182ae0,2022-07-06_09h31.48.617,Colour_Asymmetry_Pilot,2022.1.3,Win32,59.84798612,62c50e9c1127f2cd403a315f,0,157,157,33,1,onethree,,,,,,,,,,,,,,,,,,,,,,,,,,,,,,,,,,,,,,,,,,,,,,,,,,,,,,,,,,,,,,,,,,,,,,,,,,,,,,,,,,,,,,,,,,,,,,,,,,,,,,,,,,,,,,,,,,,,,,,,,,,,,,,,,,,,,,,,,,,,,,,,,,,,,,,,,,,,,
,,,,,,5efe14f421bf492ccd0824e3,62c53a4f270234594f182ae0,2022-07-06_09h31.48.617,Colour_Asymmetry_Pilot,2022.1.3,Win32,59.84798612,62c50e9c1127f2cd403a315f,0,158,158,143,1,fourthree,,,,,,,,,,,,,,,,,,,,,,,,,,,,,,,,,,,,,,,,,,,,,,,,,,,,,,,,,,,,,,,,,,,,,,,,,,,,,,,,,,,,,,,,,,,,,,,,,,,,,,,,,,,,,,,,,,,,,,,,,,,,,,,,,,,,,,,,,,,,,,,,,,,,,,,,,,,,,
,,,,,,5efe14f421bf492ccd0824e3,62c53a4f270234594f182ae0,2022-07-06_09h31.48.617,Colour_Asymmetry_Pilot,2022.1.3,Win32,59.84798612,62c50e9c1127f2cd403a315f,0,159,159,4,1,threeone,,,,,,,,,,,,,,,,,,,,,,,,,,,,,,,,,,,,,,,,,,,,,,,,,,,,,,,,,,,,,,,,,,,,,,,,,,,,,,,,,,,,,,,,,,,,,,,,,,,,,,,,,,,,,,,,,,,,,,,,,,,,,,,,,,,,,,,,,,,,,,,,,,,,,,,,,,,,,
,,,,,,5efe14f421bf492ccd0824e3,62c53a4f270234594f182ae0,2022-07-06_09h31.48.617,Colour_Asymmetry_Pilot,2022.1.3,Win32,59.84798612,62c50e9c1127f2cd403a315f,0,160,160,150,1,fourtwo,,,,,,,,,,,,,,,,,,,,,,,,,,,,,,,,,,,,,,,,,,,,,,,,,,,,,,,,,,,,,,,,,,,,,,,,,,,,,,,,,,,,,,,,,,,,,,,,,,,,,,,,,,,,,,,,,,,,,,,,,,,,,,,,,,,,,,,,,,,,,,,,,,,,,,,,,,,,,
,,,,,,5efe14f421bf492ccd0824e3,62c53a4f270234594f182ae0,2022-07-06_09h31.48.617,Colour_Asymmetry_Pilot,2022.1.3,Win32,59.84798612,62c50e9c1127f2cd403a315f,0,161,161,149,1,threefour,,,,,,,,,,,,,,,,,,,,,,,,,,,,,,,,,,,,,,,,,,,,,,,,,,,,,,,,,,,,,,,,,,,,,,,,,,,,,,,,,,,,,,,,,,,,,,,,,,,,,,,,,,,,,,,,,,,,,,,,,,,,,,,,,,,,,,,,,,,,,,,,,,,,,,,,,,,,,
,,,,,,5efe14f421bf492ccd0824e3,62c53a4f270234594f182ae0,2022-07-06_09h31.48.617,Colour_Asymmetry_Pilot,2022.1.3,Win32,59.84798612,62c50e9c1127f2cd403a315f,,,,,,,space,2.935,space,4.4107,space,19.3335,space,7.216,space,2.8848,space,11.9138,"[-0.9216,-0.5529999999999999,-0.3962]",fourthree,"[0.40379999999999994,0.09000000000000008,0.44300000000000006]",1,11.1179,63.20001221,-111.2000122,1,0,0,response3disk_5,-0.799987793,-5.600006104,1,0,0,rectangle_8,-0.799987793,-5.600006104,1,0,0,1,-0.799987793,-5.600006104,1,0,0,0,0,0,0,1,,,,,,,,,,,,,,,,,,,,,,,,,,,,,,,,,,,,,,,,,,,,,,,,,,,,,,,,,,,,,,,,,,,,,,,,,,,,,,,,,,,,,,,,,,,,,,,,,,,,,,,,,,,,,,,,
,,,,,,5efe14f421bf492ccd0824e3,62c53a4f270234594f182ae0,2022-07-06_09h31.48.617,Colour_Asymmetry_Pilot,2022.1.3,Win32,59.84798612,62c50e9c1127f2cd403a315f,,,,,,,,,,,,,,,,,,,"[0.37240000000000006,0.4980000000000002,-0.2864]",threeone,"[-0.4982,-0.2942,-0.0354000000000001]",-4,1.7499,-48,74.3999939,1,0,0,response7disk_5,23.20001221,-7.200012207,1,0,0,rectangle_8,23.20001221,-7.200012207,1,0,0,1,23.20001221,-7.200012207,1,0,0,1,0,1,0,1,,,,,,,,,,,,,,,,,,,,,,,,,,,,,,,,,,,,,,,,,,,,,,,,,,,,,,,,,,,,,,,,,,,,,,,,,,,,,,,,,,,,,,,,,,,,,,,,,,,,,,,,,,,,,,,,
,,,,,,5efe14f421bf492ccd0824e3,62c53a4f270234594f182ae0,2022-07-06_09h31.48.617,Colour_Asymmetry_Pilot,2022.1.3,Win32,59.84798612,62c50e9c1127f2cd403a315f,,,,,,,,,,,,,,,,,,,"[-0.4982,-0.2942,-0.0354000000000001]",fourthree,"[0.9686000000000001,0.5763999999999998,0.11359999999999992]",-4,1.7574,-36,73.6000061,1,0,0,response7disk_5,6.400024414,10.3999939,1,0,0,rectangle_8,46.40002441,-118.4000244,1,0,0,1,-0.799987793,-4,1,0,0,2,0,2,0,1,response3disk_7,4,rectangle_4,,,,,,,,,,,,,,,,,,,,,,,,,,,,,,,,,,,,,,,,,,,,,,,,,,,,,,,,,,,,,,,,,,,,,,,,,,,,,,,,,,,,,,,,,,,,,,,,,,,,,,,,,,,,,
,,,,,,5efe14f421bf492ccd0824e3,62c53a4f270234594f182ae0,2022-07-06_09h31.48.617,Colour_Asymmetry_Pilot,2022.1.3,Win32,59.84798612,62c50e9c1127f2cd403a315f,,,,,,,,,,,,,,,,,,,"[-0.4902000000000001,0.2704,-0.45899999999999996]",twoone,"[-0.6235999999999999,-0.6786,-0.08239999999999992]",-4,1.6164,-38.39996338,82.3999939,1,0,0,response7disk_5,-7.200012207,-1.600006104,1,0,0,rectangle_8,-7.200012207,-1.600006104,1,0,0,1,-7.200012207,-1.600006104,1,0,0,3,0,3,0,1,,,,,,,,,,,,,,,,,,,,,,,,,,,,,,,,,,,,,,,,,,,,,,,,,,,,,,,,,,,,,,,,,,,,,,,,,,,,,,,,,,,,,,,,,,,,,,,,,,,,,,,,,,,,,,,,
,,,,,,5efe14f421bf492ccd0824e3,62c53a4f270234594f182ae0,2022-07-06_09h31.48.617,Colour_Asymmetry_Pilot,2022.1.3,Win32,59.84798612,62c50e9c1127f2cd403a315f,,,,,,,,,,,,,,,,,,,"[0.5528,0.7409999999999999,-0.71]",twofour,"[-0.4668,-0.8746,-0.2942]",-4,0.9505,-25.59997559,110.3999939,1,0,0,response7disk_5,0.799987793,-8.800018311,1,0,0,rectangle_8,0.799987793,-8.800018311,1,0,0,1,0.799987793,-8.800018311,1,0,0,4,0,4,0,1,,,,,,,,,,,,,,,,,,,,,,,,,,,,,,,,,,,,,,,,,,,,,,,,,,,,,,,,,,,,,,,,,,,,,,,,,,,,,,,,,,,,,,,,,,,,,,,,,,,,,,,,,,,,,,,,
,,,,,,5efe14f421bf492ccd0824e3,62c53a4f270234594f182ae0,2022-07-06_09h31.48.617,Colour_Asymmetry_Pilot,2022.1.3,Win32,59.84798612,62c50e9c1127f2cd403a315f,,,,,,,,,,,,,,,,,,,"[-0.24719999999999998,-0.0354000000000001,0.3175999999999999]",onethree,"[0.22340000000000004,-0.9296,-0.7884]",-4,0.8001,-50.39996338,103.1999817,1,0,0,response7disk_5,0,-5.600006104,1,0,0,rectangle_8,0,-5.600006104,1,0,0,1,0,-5.600006104,1,0,0,5,0,5,0,1,,,,,,,,,,,,,,,,,,,,,,,,,,,,,,,,,,,,,,,,,,,,,,,,,,,,,,,,,,,,,,,,,,,,,,,,,,,,,,,,,,,,,,,,,,,,,,,,,,,,,,,,,,,,,,,,
,,,,,,5efe14f421bf492ccd0824e3,62c53a4f270234594f182ae0,2022-07-06_09h31.48.617,Colour_Asymmetry_Pilot,2022.1.3,Win32,59.84798612,62c50e9c1127f2cd403a315f,,,,,,,,,,,,,,,,,,,"[0.9213999999999998,0.6391999999999998,-0.9922]",twofour,"[0.9372,0.20779999999999998,0.2704]",-3,2.0167,-92,36,1,0,0,response7disk_5,-8,0.799987793,1,0,0,rectangle_8,-8,0.799987793,1,0,0,1,-8,0.799987793,1,0,0,6,0,6,0,1,,,,,,,,,,,,,,,,,,,,,,,,,,,,,,,,,,,,,,,,,,,,,,,,,,,,,,,,,,,,,,,,,,,,,,,,,,,,,,,,,,,,,,,,,,,,,,,,,,,,,,,,,,,,,,,,
,,,,,,5efe14f421bf492ccd0824e3,62c53a4f270234594f182ae0,2022-07-06_09h31.48.617,Colour_Asymmetry_Pilot,2022.1.3,Win32,59.84798612,62c50e9c1127f2cd403a315f,,,,,,,,,,,,,,,,,,,,fourtwo,,-2,1.5005,,,,,,,,,,,,,,,,,,,,,,,,,,,,,,,,space,3.5434,"[0.4196,0.4665999999999999,0.3568]","[0.7018,0.7802,-0.16079999999999994]",-104.7999878,-55.20001221,1,0,0,response5disk,-13.59997559,-4.800018311,1,0,0,rectangle,-13.59997559,-4.800018311,1,0,0,,2,0.0038,0,-13.59997559,-4.800018311,1,0,0,0,0,0,80,1,80,first,,,,,,,,,,,,,,,,,,,,,,,,,,,,,,,,,,,,,,,,,,,,,,,,,,,,,,,,,,,,,,,,,,,,,,,,
,,,,,,5efe14f421bf492ccd0824e3,62c53a4f270234594f182ae0,2022-07-06_09h31.48.617,Colour_Asymmetry_Pilot,2022.1.3,Win32,59.84798612,62c50e9c1127f2cd403a315f,,,,,,,,,,,,,,,,,,,,onetwo,,-4,1.1834,,,,,,,,,,,,,,,,,,,,,,,,,,,,,,,,,,"[0.05879999999999996,0.2784,0.5841999999999998]","[-0.7412000000000001,-0.08239999999999992,-0.6864]",-52,80.79998779,1,0,0,response7disk,-14.39996338,-4,1,0,0,rectangle,-14.39996338,-4,1,0,0,,1,0.0026,0,-14.39996338,-4,1,0,0,0,1,1,4,1,4,first,,,,,,,,,,,,,,,,,,,,,,,,,,,,,,,,,,,,,,,,,,,,,,,,,,,,,,,,,,,,,,,,,,,,,,,,
,,,,,,5efe14f421bf492ccd0824e3,62c53a4f270234594f182ae0,2022-07-06_09h31.48.617,Colour_Asymmetry_Pilot,2022.1.3,Win32,59.84798612,62c50e9c1127f2cd403a315f,,,,,,,,,,,,,,,,,,,,fourthree,,-1,1.2575,,,,,,,,,,,,,,,,,,,,,,,,,,,,,,,,,,"[-0.6706000000000001,-0.6157999999999999,-0.6786]","[-0.5688,-0.08239999999999992,-0.1844]",-36.79998779,-112,1,0,0,response5disk,-7.200012207,12,1,0,0,rectangle,-7.200012207,12,1,0,0,,3,0.0015,0,-7.200012207,12,1,0,0,0,2,2,130,1,49,second,,,,,,,,,,,,,,,,,,,,,,,,,,,,,,,,,,,,,,,,,,,,,,,,,,,,,,,,,,,,,,,,,,,,,,,,
,,,,,,5efe14f421bf492ccd0824e3,62c53a4f270234594f182ae0,2022-07-06_09h31.48.617,Colour_Asymmetry_Pilot,2022.1.3,Win32,59.84798612,62c50e9c1127f2cd403a315f,,,,,,,,,,,,,,,,,,,,fourthree,,-3,3.7062,,,,,,,,,,,,,,,,,,,,,,,,,,,,,,,,,,"[-0.9688,-0.4902000000000001,-0.12159999999999993]","[0.12939999999999996,-0.2864,0.3253999999999999]",-81.59997559,26.3999939,1,0,0,response7disk,-19.20001221,11.19998169,1,0,0,rectangle,-19.20001221,11.19998169,1,0,0,,2,0.0032,0,-19.20001221,11.19998169,1,0,0,0,3,3,61,1,61,first,,,,,,,,,,,,,,,,,,,,,,,,,,,,,,,,,,,,,,,,,,,,,,,,,,,,,,,,,,,,,,,,,,,,,,,,
,,,,,,5efe14f421bf492ccd0824e3,62c53a4f270234594f182ae0,2022-07-06_09h31.48.617,Colour_Asymmetry_Pilot,2022.1.3,Win32,59.84798612,62c50e9c1127f2cd403a315f,,,,,,,,,,,,,,,,,,,,fourtwo,,-4,0.3996,,,,,,,,,,,,,,,,,,,,,,,,,,,,,,,,,,"[0.2862,0.7802,0.3568]","[-0.011800000000000033,-0.906,-0.45100000000000007]",-40,87.19998169,1,0,0,response7disk,-1.599975586,5.600006104,1,0,0,rectangle,-1.599975586,5.600006104,1,0,0,,2,0.0007,0,-1.599975586,5.600006104,1,0,0,0,4,4,53,1,53,first,,,,,,,,,,,,,,,,,,,,,,,,,,,,,,,,,,,,,,,,,,,,,,,,,,,,,,,,,,,,,,,,,,,,,,,,
,,,,,,5efe14f421bf492ccd0824e3,62c53a4f270234594f182ae0,2022-07-06_09h31.48.617,Colour_Asymmetry_Pilot,2022.1.3,Win32,59.84798612,62c50e9c1127f2cd403a315f,,,,,,,,,,,,,,,,,,,,threefour,,-2,3.6084,,,,,,,,,,,,,,,,,,,,,,,,,,,,,,,,,,"[-0.9138,-0.5296000000000001,-0.5529999999999999]","[-0.38039999999999996,-0.4276,-0.1452]",-92.79998779,-56.80001831,1,0,0,response5disk,-19.20001221,14.3999939,1,0,0,rectangle,-19.20001221,14.3999939,1,0,0,,3,0.0037,0,-19.20001221,14.3999939,1,0,0,0,5,5,101,1,20,second,,,,,,,,,,,,,,,,,,,,,,,,,,,,,,,,,,,,,,,,,,,,,,,,,,,,,,,,,,,,,,,,,,,,,,,,
,,,,,,5efe14f421bf492ccd0824e3,62c53a4f270234594f182ae0,2022-07-06_09h31.48.617,Colour_Asymmetry_Pilot,2022.1.3,Win32,59.84798612,62c50e9c1127f2cd403a315f,,,,,,,,,,,,,,,,,,,,onethree,,-4,1.7999,,,,,,,,,,,,,,,,,,,,,,,,,,,,,,,,,,"[0.9213999999999998,0.6391999999999998,-0.9922]","[-0.26280000000000003,-0.4746,-0.2158]",-24.79998779,68,1,0,0,response7disk,0,-6.399993896,1,0,0,rectangle,0,-6.399993896,1,0,0,,3,0.0006,0,0,-6.399993896,1,0,0,0,6,6,96,1,15,second,,,,,,,,,,,,,,,,,,,,,,,,,,,,,,,,,,,,,,,,,,,,,,,,,,,,,,,,,,,,,,,,,,,,,,,,
,,,,,,5efe14f421bf492ccd0824e3,62c53a4f270234594f182ae0,2022-07-06_09h31.48.617,Colour_Asymmetry_Pilot,2022.1.3,Win32,59.84798612,62c50e9c1127f2cd403a315f,,,,,,,,,,,,,,,,,,,,onetwo,,4,2.0547,,,,,,,,,,,,,,,,,,,,,,,,,,,,,,,,,,"[0.9372,0.20779999999999998,0.2704]","[0.7646000000000002,0.07440000000000002,0.2704]",57.60003662,112,1,0,0,response1disk,0.799987793,-9.600006104,1,0,0,rectangle,0.799987793,-9.600006104,1,0,0,,3,0.0007,0,0.799987793,-9.600006104,1,0,0,0,7,7,42,1,42,first,,,,,,,,,,,,,,,,,,,,,,,,,,,,,,,,,,,,,,,,,,,,,,,,,,,,,,,,,,,,,,,,,,,,,,,,
,,,,,,5efe14f421bf492ccd0824e3,62c53a4f270234594f182ae0,2022-07-06_09h31.48.617,Colour_Asymmetry_Pilot,2022.1.3,Win32,59.84798612,62c50e9c1127f2cd403a315f,,,,,,,,,,,,,,,,,,,,twoone,,-3,2.5374,,,,,,,,,,,,,,,,,,,,,,,,,,,,,,,,,,"[-0.6235999999999999,-0.6786,-0.08239999999999992]","[-0.48240000000000005,0.3175999999999999,0.2156]",-90.39996338,52,1,0,0,response7disk,-12.79998779,12,1,0,0,rectangle,-12.79998779,12,1,0,0,,1,0.0033,0,-12.79998779,12,1,0,0,0,8,8,12,1,12,first,,,,,,,,,,,,,,,,,,,,,,,,,,,,,,,,,,,,,,,,,,,,,,,,,,,,,,,,,,,,,,,,,,,,,,,,
,,,,,,5efe14f421bf492ccd0824e3,62c53a4f270234594f182ae0,2022-07-06_09h31.48.617,Colour_Asymmetry_Pilot,2022.1.3,Win32,59.84798612,62c50e9c1127f2cd403a315f,,,,,,,,,,,,,,,,,,,,fourthree,,-3,0.7137,,,,,,,,,,,,,,,,,,,,,,,,,,,,,,,,,,"[0.8115999999999999,-0.0040000000000000036,-0.09819999999999995]","[0.23120000000000007,-0.7726,-0.34120000000000006]",-72,29.6000061,1,0,0,response7disk,-9.599975586,-7.200012207,1,0,0,rectangle,-9.599975586,-7.200012207,1,0,0,,3,0.0042,0,-9.599975586,-7.200012207,1,0,0,0,9,9,94,1,13,second,,,,,,,,,,,,,,,,,,,,,,,,,,,,,,,,,,,,,,,,,,,,,,,,,,,,,,,,,,,,,,,,,,,,,,,,
,,,,,,5efe14f421bf492ccd0824e3,62c53a4f270234594f182ae0,2022-07-06_09h31.48.617,Colour_Asymmetry_Pilot,2022.1.3,Win32,59.84798612,62c50e9c1127f2cd403a315f,,,,,,,,,,,,,,,,,,,,twoone,,-4,0.8512,,,,,,,,,,,,,,,,,,,,,,,,,,,,,,,,,,"[-0.9688,-0.4902000000000001,-0.12159999999999993]","[-0.0040000000000000036,0.02739999999999987,-0.08239999999999992]",-49.59997559,72.79998779,1,0,0,response7disk,-26.39996338,-4,1,0,0,rectangle,-26.39996338,-4,1,0,0,,1,0.0034,0,-26.39996338,-4,1,0,0,0,10,10,120,1,39,second,,,,,,,,,,,,,,,,,,,,,,,,,,,,,,,,,,,,,,,,,,,,,,,,,,,,,,,,,,,,,,,,,,,,,,,,
,,,,,,5efe14f421bf492ccd0824e3,62c53a4f270234594f182ae0,2022-07-06_09h31.48.617,Colour_Asymmetry_Pilot,2022.1.3,Win32,59.84798612,62c50e9c1127f2cd403a315f,,,,,,,,,,,,,,,,,,,,twoone,,-4,0.5334,,,,,,,,,,,,,,,,,,,,,,,,,,,,,,,,,,"[-0.01980000000000004,-0.5138,-0.38039999999999996]","[-0.07459999999999989,0.12139999999999995,-0.9922]",-43.20001221,86.3999939,1,0,0,response7disk,-21.59997559,-1.600006104,1,0,0,rectangle,-21.59997559,-1.600006104,1,0,0,,2,0.004,0,-21.59997559,-1.600006104,1,0,0,0,11,11,126,1,45,second,,,,,,,,,,,,,,,,,,,,,,,,,,,,,,,,,,,,,,,,,,,,,,,,,,,,,,,,,,,,,,,,,,,,,,,,
,,,,,,5efe14f421bf492ccd0824e3,62c53a4f270234594f182ae0,2022-07-06_09h31.48.617,Colour_Asymmetry_Pilot,2022.1.3,Win32,59.84798612,62c50e9c1127f2cd403a315f,,,,,,,,,,,,,,,,,,,,onethree,,-3,1.9833,,,,,,,,,,,,,,,,,,,,,,,,,,,,,,,,,,"[-0.5688,-0.08239999999999992,-0.1844]","[-0.6706000000000001,-0.6157999999999999,-0.6786]",-96.79998779,25.6000061,1,0,0,response7disk,-6.399963379,-0.800018311,1,0,0,rectangle,-6.399963379,-0.800018311,1,0,0,,1,0.0034,0,-6.399963379,-0.800018311,1,0,0,0,12,12,49,1,49,first,,,,,,,,,,,,,,,,,,,,,,,,,,,,,,,,,,,,,,,,,,,,,,,,,,,,,,,,,,,,,,,,,,,,,,,,
,,,,,,5efe14f421bf492ccd0824e3,62c53a4f270234594f182ae0,2022-07-06_09h31.48.617,Colour_Asymmetry_Pilot,2022.1.3,Win32,59.84798612,62c50e9c1127f2cd403a315f,,,,,,,,,,,,,,,,,,,,threefour,,-3,1.3165,,,,,,,,,,,,,,,,,,,,,,,,,,,,,,,,,,"[0.37240000000000006,-0.050999999999999934,-0.5216]","[-0.4276,0.0038000000000000256,-0.3256]",-83.20001221,28.79998779,1,0,0,response7disk,0,3.199981689,1,0,0,rectangle,0,3.199981689,1,0,0,,1,0.0005,0,0,3.199981689,1,0,0,0,13,13,32,1,32,first,,,,,,,,,,,,,,,,,,,,,,,,,,,,,,,,,,,,,,,,,,,,,,,,,,,,,,,,,,,,,,,,,,,,,,,,
,,,,,,5efe14f421bf492ccd0824e3,62c53a4f270234594f182ae0,2022-07-06_09h31.48.617,Colour_Asymmetry_Pilot,2022.1.3,Win32,59.84798612,62c50e9c1127f2cd403a315f,,,,,,,,,,,,,,,,,,,,threeone,,-4,0.2663,,,,,,,,,,,,,,,,,,,,,,,,,,,,,,,,,,"[0.5528,0.7409999999999999,-0.71]","[-0.01980000000000004,-0.5138,-0.38039999999999996]",-35.20001221,75.19998169,1,0,0,response7disk,-9.599975586,13.6000061,1,0,0,rectangle,-9.599975586,13.6000061,1,0,0,,2,0.0031,0,-9.599975586,13.6000061,1,0,0,0,14,14,155,1,74,second,,,,,,,,,,,,,,,,,,,,,,,,,,,,,,,,,,,,,,,,,,,,,,,,,,,,,,,,,,,,,,,,,,,,,,,,
