trials.thisRepN,trials.thisTrialN,trials.thisN,trials.thisIndex,trials.ran,Colourcodes,participant,session,date,expName,psychopyVersion,OS,frameRate,study_id,trials_4.thisRepN,trials_4.thisTrialN,trials_4.thisN,trials_4.thisIndex,trials_4.ran,StimulusPos,key_resp.keys,key_resp.rt,key_resp_2.keys,key_resp_2.rt,key_resp_15.keys,key_resp_15.rt,key_resp_17.keys,key_resp_17.rt,key_resp_9.keys,key_resp_9.rt,key_resp_10.keys,key_resp_10.rt,Circle1_col,Ecc,Circle2_col,similarity,response_time,mouse_5.x,mouse_5.y,mouse_5.leftButton,mouse_5.midButton,mouse_5.rightButton,mouse_5.clicked_name,mouse_10.x,mouse_10.y,mouse_10.leftButton,mouse_10.midButton,mouse_10.rightButton,mouse_10.clicked_name,mouse_7.x,mouse_7.y,mouse_7.leftButton,mouse_7.midButton,mouse_7.rightButton,mouse_7.clicked_name,catchprac,catchnumberprac,mouse_6.x,mouse_6.y,mouse_6.leftButton,mouse_6.midButton,mouse_6.rightButton,mouse_6.clicked_name,duringprac.thisRepN,duringprac.thisTrialN,duringprac.thisN,duringprac.thisIndex,duringprac.ran,key_resp_22.keys,key_resp_22.rt,Circle1_colour,Circle2_colour,mouse.x,mouse.y,mouse.leftButton,mouse.midButton,mouse.rightButton,mouse.clicked_name,mouse_2.x,mouse_2.y,mouse_2.leftButton,mouse_2.midButton,mouse_2.rightButton,mouse_2.clicked_name,mouse_3.x,mouse_3.y,mouse_3.leftButton,mouse_3.midButton,mouse_3.rightButton,mouse_3.clicked_name,catchresponse,catchnumber,response_time_catch,Catch,mouse_11.x,mouse_11.y,mouse_11.leftButton,mouse_11.midButton,mouse_11.rightButton,mouse_11.clicked_name,trials_2.thisRepN,trials_2.thisTrialN,trials_2.thisN,trials_2.thisIndex,trials_2.ran,Colourpair,Temporder,trials_3.thisRepN,trials_3.thisTrialN,trials_3.thisN,trials_3.thisIndex,trials_3.ran,key_resp_instr_Ishi.keys,key_resp_instr_Ishi.rt,Ishi_trial_keyresp.keys,Ishi_textbox.text,Ishi_mouse.x,Ishi_mouse.y,Ishi_mouse.leftButton,Ishi_mouse.midButton,Ishi_mouse.rightButton,Ishi_mouse.clicked_name,Ishi_loop.thisRepN,Ishi_loop.thisTrialN,Ishi_loop.thisN,Ishi_loop.thisIndex,Ishi_loop.ran,imageaddress,textbox.text,mouse_4.x,mouse_4.y,mouse_4.leftButton,mouse_4.midButton,mouse_4.rightButton,mouse_4.clicked_name,textbox_2.text,mouse_8.x,mouse_8.y,mouse_8.leftButton,mouse_8.midButton,mouse_8.rightButton,mouse_8.clicked_name,textbox_3.text,mouse_9.x,mouse_9.y,mouse_9.leftButton,mouse_9.midButton,mouse_9.rightButton,mouse_9.clicked_name,textbox_4.text,mouse_12.x,mouse_12.y,mouse_12.leftButton,mouse_12.midButton,mouse_12.rightButton,mouse_12.clicked_name,textbox_5.text,mouse_13.x,mouse_13.y,mouse_13.leftButton,mouse_13.midButton,mouse_13.rightButton,mouse_13.clicked_name,textbox_6.text,mouse_14.x,mouse_14.y,mouse_14.leftButton,mouse_14.midButton,mouse_14.rightButton,mouse_14.clicked_name,textbox_7.text,mouse_15.x,mouse_15.y,mouse_15.leftButton,mouse_15.midButton,mouse_15.rightButton,mouse_15.clicked_name
0,0,0,11,1,,5da98e800f35db00176e5aca,62c5390ab2daef25d43cd7df,2022-07-06_09h26.23.443,Colour_Asymmetry_Pilot,2022.1.3,Win32,165.2073352,62c50e9c1127f2cd403a315f,,,,,,,,,,,,,,,,,,,,,,,,,,,,,,,,,,,,,,,,,,,,,,,,,,,,,,,,,,,,,,,,,,,,,,,,,,,,,,,,,,,,,,,,,,,,,,,,,,,,,,,,,,,,,,,,,,,,,,,,,,,,,,,,,,,,,,,,,,,,,,,,,,,,,,,,,,,,,,,,,,,
0,1,1,28,1,,5da98e800f35db00176e5aca,62c5390ab2daef25d43cd7df,2022-07-06_09h26.23.443,Colour_Asymmetry_Pilot,2022.1.3,Win32,165.2073352,62c50e9c1127f2cd403a315f,,,,,,,,,,,,,,,,,,,,,,,,,,,,,,,,,,,,,,,,,,,,,,,,,,,,,,,,,,,,,,,,,,,,,,,,,,,,,,,,,,,,,,,,,,,,,,,,,,,,,,,,,,,,,,,,,,,,,,,,,,,,,,,,,,,,,,,,,,,,,,,,,,,,,,,,,,,,,,,,,,,
0,2,2,84,1,,5da98e800f35db00176e5aca,62c5390ab2daef25d43cd7df,2022-07-06_09h26.23.443,Colour_Asymmetry_Pilot,2022.1.3,Win32,165.2073352,62c50e9c1127f2cd403a315f,,,,,,,,,,,,,,,,,,,,,,,,,,,,,,,,,,,,,,,,,,,,,,,,,,,,,,,,,,,,,,,,,,,,,,,,,,,,,,,,,,,,,,,,,,,,,,,,,,,,,,,,,,,,,,,,,,,,,,,,,,,,,,,,,,,,,,,,,,,,,,,,,,,,,,,,,,,,,,,,,,,
0,3,3,87,1,,5da98e800f35db00176e5aca,62c5390ab2daef25d43cd7df,2022-07-06_09h26.23.443,Colour_Asymmetry_Pilot,2022.1.3,Win32,165.2073352,62c50e9c1127f2cd403a315f,,,,,,,,,,,,,,,,,,,,,,,,,,,,,,,,,,,,,,,,,,,,,,,,,,,,,,,,,,,,,,,,,,,,,,,,,,,,,,,,,,,,,,,,,,,,,,,,,,,,,,,,,,,,,,,,,,,,,,,,,,,,,,,,,,,,,,,,,,,,,,,,,,,,,,,,,,,,,,,,,,,
0,4,4,66,1,,5da98e800f35db00176e5aca,62c5390ab2daef25d43cd7df,2022-07-06_09h26.23.443,Colour_Asymmetry_Pilot,2022.1.3,Win32,165.2073352,62c50e9c1127f2cd403a315f,,,,,,,,,,,,,,,,,,,,,,,,,,,,,,,,,,,,,,,,,,,,,,,,,,,,,,,,,,,,,,,,,,,,,,,,,,,,,,,,,,,,,,,,,,,,,,,,,,,,,,,,,,,,,,,,,,,,,,,,,,,,,,,,,,,,,,,,,,,,,,,,,,,,,,,,,,,,,,,,,,,
0,5,5,62,1,,5da98e800f35db00176e5aca,62c5390ab2daef25d43cd7df,2022-07-06_09h26.23.443,Colour_Asymmetry_Pilot,2022.1.3,Win32,165.2073352,62c50e9c1127f2cd403a315f,,,,,,,,,,,,,,,,,,,,,,,,,,,,,,,,,,,,,,,,,,,,,,,,,,,,,,,,,,,,,,,,,,,,,,,,,,,,,,,,,,,,,,,,,,,,,,,,,,,,,,,,,,,,,,,,,,,,,,,,,,,,,,,,,,,,,,,,,,,,,,,,,,,,,,,,,,,,,,,,,,,
0,6,6,29,1,,5da98e800f35db00176e5aca,62c5390ab2daef25d43cd7df,2022-07-06_09h26.23.443,Colour_Asymmetry_Pilot,2022.1.3,Win32,165.2073352,62c50e9c1127f2cd403a315f,,,,,,,,,,,,,,,,,,,,,,,,,,,,,,,,,,,,,,,,,,,,,,,,,,,,,,,,,,,,,,,,,,,,,,,,,,,,,,,,,,,,,,,,,,,,,,,,,,,,,,,,,,,,,,,,,,,,,,,,,,,,,,,,,,,,,,,,,,,,,,,,,,,,,,,,,,,,,,,,,,,
0,7,7,27,1,,5da98e800f35db00176e5aca,62c5390ab2daef25d43cd7df,2022-07-06_09h26.23.443,Colour_Asymmetry_Pilot,2022.1.3,Win32,165.2073352,62c50e9c1127f2cd403a315f,,,,,,,,,,,,,,,,,,,,,,,,,,,,,,,,,,,,,,,,,,,,,,,,,,,,,,,,,,,,,,,,,,,,,,,,,,,,,,,,,,,,,,,,,,,,,,,,,,,,,,,,,,,,,,,,,,,,,,,,,,,,,,,,,,,,,,,,,,,,,,,,,,,,,,,,,,,,,,,,,,,
0,8,8,64,1,,5da98e800f35db00176e5aca,62c5390ab2daef25d43cd7df,2022-07-06_09h26.23.443,Colour_Asymmetry_Pilot,2022.1.3,Win32,165.2073352,62c50e9c1127f2cd403a315f,,,,,,,,,,,,,,,,,,,,,,,,,,,,,,,,,,,,,,,,,,,,,,,,,,,,,,,,,,,,,,,,,,,,,,,,,,,,,,,,,,,,,,,,,,,,,,,,,,,,,,,,,,,,,,,,,,,,,,,,,,,,,,,,,,,,,,,,,,,,,,,,,,,,,,,,,,,,,,,,,,,
0,9,9,0,1,,5da98e800f35db00176e5aca,62c5390ab2daef25d43cd7df,2022-07-06_09h26.23.443,Colour_Asymmetry_Pilot,2022.1.3,Win32,165.2073352,62c50e9c1127f2cd403a315f,,,,,,,,,,,,,,,,,,,,,,,,,,,,,,,,,,,,,,,,,,,,,,,,,,,,,,,,,,,,,,,,,,,,,,,,,,,,,,,,,,,,,,,,,,,,,,,,,,,,,,,,,,,,,,,,,,,,,,,,,,,,,,,,,,,,,,,,,,,,,,,,,,,,,,,,,,,,,,,,,,,
0,10,10,19,1,,5da98e800f35db00176e5aca,62c5390ab2daef25d43cd7df,2022-07-06_09h26.23.443,Colour_Asymmetry_Pilot,2022.1.3,Win32,165.2073352,62c50e9c1127f2cd403a315f,,,,,,,,,,,,,,,,,,,,,,,,,,,,,,,,,,,,,,,,,,,,,,,,,,,,,,,,,,,,,,,,,,,,,,,,,,,,,,,,,,,,,,,,,,,,,,,,,,,,,,,,,,,,,,,,,,,,,,,,,,,,,,,,,,,,,,,,,,,,,,,,,,,,,,,,,,,,,,,,,,,
0,11,11,1,1,,5da98e800f35db00176e5aca,62c5390ab2daef25d43cd7df,2022-07-06_09h26.23.443,Colour_Asymmetry_Pilot,2022.1.3,Win32,165.2073352,62c50e9c1127f2cd403a315f,,,,,,,,,,,,,,,,,,,,,,,,,,,,,,,,,,,,,,,,,,,,,,,,,,,,,,,,,,,,,,,,,,,,,,,,,,,,,,,,,,,,,,,,,,,,,,,,,,,,,,,,,,,,,,,,,,,,,,,,,,,,,,,,,,,,,,,,,,,,,,,,,,,,,,,,,,,,,,,,,,,
0,12,12,59,1,,5da98e800f35db00176e5aca,62c5390ab2daef25d43cd7df,2022-07-06_09h26.23.443,Colour_Asymmetry_Pilot,2022.1.3,Win32,165.2073352,62c50e9c1127f2cd403a315f,,,,,,,,,,,,,,,,,,,,,,,,,,,,,,,,,,,,,,,,,,,,,,,,,,,,,,,,,,,,,,,,,,,,,,,,,,,,,,,,,,,,,,,,,,,,,,,,,,,,,,,,,,,,,,,,,,,,,,,,,,,,,,,,,,,,,,,,,,,,,,,,,,,,,,,,,,,,,,,,,,,
0,13,13,42,1,,5da98e800f35db00176e5aca,62c5390ab2daef25d43cd7df,2022-07-06_09h26.23.443,Colour_Asymmetry_Pilot,2022.1.3,Win32,165.2073352,62c50e9c1127f2cd403a315f,,,,,,,,,,,,,,,,,,,,,,,,,,,,,,,,,,,,,,,,,,,,,,,,,,,,,,,,,,,,,,,,,,,,,,,,,,,,,,,,,,,,,,,,,,,,,,,,,,,,,,,,,,,,,,,,,,,,,,,,,,,,,,,,,,,,,,,,,,,,,,,,,,,,,,,,,,,,,,,,,,,
0,14,14,57,1,,5da98e800f35db00176e5aca,62c5390ab2daef25d43cd7df,2022-07-06_09h26.23.443,Colour_Asymmetry_Pilot,2022.1.3,Win32,165.2073352,62c50e9c1127f2cd403a315f,,,,,,,,,,,,,,,,,,,,,,,,,,,,,,,,,,,,,,,,,,,,,,,,,,,,,,,,,,,,,,,,,,,,,,,,,,,,,,,,,,,,,,,,,,,,,,,,,,,,,,,,,,,,,,,,,,,,,,,,,,,,,,,,,,,,,,,,,,,,,,,,,,,,,,,,,,,,,,,,,,,
0,15,15,73,1,,5da98e800f35db00176e5aca,62c5390ab2daef25d43cd7df,2022-07-06_09h26.23.443,Colour_Asymmetry_Pilot,2022.1.3,Win32,165.2073352,62c50e9c1127f2cd403a315f,,,,,,,,,,,,,,,,,,,,,,,,,,,,,,,,,,,,,,,,,,,,,,,,,,,,,,,,,,,,,,,,,,,,,,,,,,,,,,,,,,,,,,,,,,,,,,,,,,,,,,,,,,,,,,,,,,,,,,,,,,,,,,,,,,,,,,,,,,,,,,,,,,,,,,,,,,,,,,,,,,,
0,16,16,31,1,,5da98e800f35db00176e5aca,62c5390ab2daef25d43cd7df,2022-07-06_09h26.23.443,Colour_Asymmetry_Pilot,2022.1.3,Win32,165.2073352,62c50e9c1127f2cd403a315f,,,,,,,,,,,,,,,,,,,,,,,,,,,,,,,,,,,,,,,,,,,,,,,,,,,,,,,,,,,,,,,,,,,,,,,,,,,,,,,,,,,,,,,,,,,,,,,,,,,,,,,,,,,,,,,,,,,,,,,,,,,,,,,,,,,,,,,,,,,,,,,,,,,,,,,,,,,,,,,,,,,
0,17,17,39,1,,5da98e800f35db00176e5aca,62c5390ab2daef25d43cd7df,2022-07-06_09h26.23.443,Colour_Asymmetry_Pilot,2022.1.3,Win32,165.2073352,62c50e9c1127f2cd403a315f,,,,,,,,,,,,,,,,,,,,,,,,,,,,,,,,,,,,,,,,,,,,,,,,,,,,,,,,,,,,,,,,,,,,,,,,,,,,,,,,,,,,,,,,,,,,,,,,,,,,,,,,,,,,,,,,,,,,,,,,,,,,,,,,,,,,,,,,,,,,,,,,,,,,,,,,,,,,,,,,,,,
0,18,18,49,1,,5da98e800f35db00176e5aca,62c5390ab2daef25d43cd7df,2022-07-06_09h26.23.443,Colour_Asymmetry_Pilot,2022.1.3,Win32,165.2073352,62c50e9c1127f2cd403a315f,,,,,,,,,,,,,,,,,,,,,,,,,,,,,,,,,,,,,,,,,,,,,,,,,,,,,,,,,,,,,,,,,,,,,,,,,,,,,,,,,,,,,,,,,,,,,,,,,,,,,,,,,,,,,,,,,,,,,,,,,,,,,,,,,,,,,,,,,,,,,,,,,,,,,,,,,,,,,,,,,,,
0,19,19,17,1,,5da98e800f35db00176e5aca,62c5390ab2daef25d43cd7df,2022-07-06_09h26.23.443,Colour_Asymmetry_Pilot,2022.1.3,Win32,165.2073352,62c50e9c1127f2cd403a315f,,,,,,,,,,,,,,,,,,,,,,,,,,,,,,,,,,,,,,,,,,,,,,,,,,,,,,,,,,,,,,,,,,,,,,,,,,,,,,,,,,,,,,,,,,,,,,,,,,,,,,,,,,,,,,,,,,,,,,,,,,,,,,,,,,,,,,,,,,,,,,,,,,,,,,,,,,,,,,,,,,,
0,20,20,86,1,,5da98e800f35db00176e5aca,62c5390ab2daef25d43cd7df,2022-07-06_09h26.23.443,Colour_Asymmetry_Pilot,2022.1.3,Win32,165.2073352,62c50e9c1127f2cd403a315f,,,,,,,,,,,,,,,,,,,,,,,,,,,,,,,,,,,,,,,,,,,,,,,,,,,,,,,,,,,,,,,,,,,,,,,,,,,,,,,,,,,,,,,,,,,,,,,,,,,,,,,,,,,,,,,,,,,,,,,,,,,,,,,,,,,,,,,,,,,,,,,,,,,,,,,,,,,,,,,,,,,
0,21,21,25,1,,5da98e800f35db00176e5aca,62c5390ab2daef25d43cd7df,2022-07-06_09h26.23.443,Colour_Asymmetry_Pilot,2022.1.3,Win32,165.2073352,62c50e9c1127f2cd403a315f,,,,,,,,,,,,,,,,,,,,,,,,,,,,,,,,,,,,,,,,,,,,,,,,,,,,,,,,,,,,,,,,,,,,,,,,,,,,,,,,,,,,,,,,,,,,,,,,,,,,,,,,,,,,,,,,,,,,,,,,,,,,,,,,,,,,,,,,,,,,,,,,,,,,,,,,,,,,,,,,,,,
0,22,22,23,1,,5da98e800f35db00176e5aca,62c5390ab2daef25d43cd7df,2022-07-06_09h26.23.443,Colour_Asymmetry_Pilot,2022.1.3,Win32,165.2073352,62c50e9c1127f2cd403a315f,,,,,,,,,,,,,,,,,,,,,,,,,,,,,,,,,,,,,,,,,,,,,,,,,,,,,,,,,,,,,,,,,,,,,,,,,,,,,,,,,,,,,,,,,,,,,,,,,,,,,,,,,,,,,,,,,,,,,,,,,,,,,,,,,,,,,,,,,,,,,,,,,,,,,,,,,,,,,,,,,,,
0,23,23,76,1,,5da98e800f35db00176e5aca,62c5390ab2daef25d43cd7df,2022-07-06_09h26.23.443,Colour_Asymmetry_Pilot,2022.1.3,Win32,165.2073352,62c50e9c1127f2cd403a315f,,,,,,,,,,,,,,,,,,,,,,,,,,,,,,,,,,,,,,,,,,,,,,,,,,,,,,,,,,,,,,,,,,,,,,,,,,,,,,,,,,,,,,,,,,,,,,,,,,,,,,,,,,,,,,,,,,,,,,,,,,,,,,,,,,,,,,,,,,,,,,,,,,,,,,,,,,,,,,,,,,,
0,24,24,83,1,,5da98e800f35db00176e5aca,62c5390ab2daef25d43cd7df,2022-07-06_09h26.23.443,Colour_Asymmetry_Pilot,2022.1.3,Win32,165.2073352,62c50e9c1127f2cd403a315f,,,,,,,,,,,,,,,,,,,,,,,,,,,,,,,,,,,,,,,,,,,,,,,,,,,,,,,,,,,,,,,,,,,,,,,,,,,,,,,,,,,,,,,,,,,,,,,,,,,,,,,,,,,,,,,,,,,,,,,,,,,,,,,,,,,,,,,,,,,,,,,,,,,,,,,,,,,,,,,,,,,
0,25,25,22,1,,5da98e800f35db00176e5aca,62c5390ab2daef25d43cd7df,2022-07-06_09h26.23.443,Colour_Asymmetry_Pilot,2022.1.3,Win32,165.2073352,62c50e9c1127f2cd403a315f,,,,,,,,,,,,,,,,,,,,,,,,,,,,,,,,,,,,,,,,,,,,,,,,,,,,,,,,,,,,,,,,,,,,,,,,,,,,,,,,,,,,,,,,,,,,,,,,,,,,,,,,,,,,,,,,,,,,,,,,,,,,,,,,,,,,,,,,,,,,,,,,,,,,,,,,,,,,,,,,,,,
0,26,26,14,1,,5da98e800f35db00176e5aca,62c5390ab2daef25d43cd7df,2022-07-06_09h26.23.443,Colour_Asymmetry_Pilot,2022.1.3,Win32,165.2073352,62c50e9c1127f2cd403a315f,,,,,,,,,,,,,,,,,,,,,,,,,,,,,,,,,,,,,,,,,,,,,,,,,,,,,,,,,,,,,,,,,,,,,,,,,,,,,,,,,,,,,,,,,,,,,,,,,,,,,,,,,,,,,,,,,,,,,,,,,,,,,,,,,,,,,,,,,,,,,,,,,,,,,,,,,,,,,,,,,,,
0,27,27,20,1,,5da98e800f35db00176e5aca,62c5390ab2daef25d43cd7df,2022-07-06_09h26.23.443,Colour_Asymmetry_Pilot,2022.1.3,Win32,165.2073352,62c50e9c1127f2cd403a315f,,,,,,,,,,,,,,,,,,,,,,,,,,,,,,,,,,,,,,,,,,,,,,,,,,,,,,,,,,,,,,,,,,,,,,,,,,,,,,,,,,,,,,,,,,,,,,,,,,,,,,,,,,,,,,,,,,,,,,,,,,,,,,,,,,,,,,,,,,,,,,,,,,,,,,,,,,,,,,,,,,,
0,28,28,36,1,,5da98e800f35db00176e5aca,62c5390ab2daef25d43cd7df,2022-07-06_09h26.23.443,Colour_Asymmetry_Pilot,2022.1.3,Win32,165.2073352,62c50e9c1127f2cd403a315f,,,,,,,,,,,,,,,,,,,,,,,,,,,,,,,,,,,,,,,,,,,,,,,,,,,,,,,,,,,,,,,,,,,,,,,,,,,,,,,,,,,,,,,,,,,,,,,,,,,,,,,,,,,,,,,,,,,,,,,,,,,,,,,,,,,,,,,,,,,,,,,,,,,,,,,,,,,,,,,,,,,
0,29,29,44,1,,5da98e800f35db00176e5aca,62c5390ab2daef25d43cd7df,2022-07-06_09h26.23.443,Colour_Asymmetry_Pilot,2022.1.3,Win32,165.2073352,62c50e9c1127f2cd403a315f,,,,,,,,,,,,,,,,,,,,,,,,,,,,,,,,,,,,,,,,,,,,,,,,,,,,,,,,,,,,,,,,,,,,,,,,,,,,,,,,,,,,,,,,,,,,,,,,,,,,,,,,,,,,,,,,,,,,,,,,,,,,,,,,,,,,,,,,,,,,,,,,,,,,,,,,,,,,,,,,,,,
0,30,30,35,1,,5da98e800f35db00176e5aca,62c5390ab2daef25d43cd7df,2022-07-06_09h26.23.443,Colour_Asymmetry_Pilot,2022.1.3,Win32,165.2073352,62c50e9c1127f2cd403a315f,,,,,,,,,,,,,,,,,,,,,,,,,,,,,,,,,,,,,,,,,,,,,,,,,,,,,,,,,,,,,,,,,,,,,,,,,,,,,,,,,,,,,,,,,,,,,,,,,,,,,,,,,,,,,,,,,,,,,,,,,,,,,,,,,,,,,,,,,,,,,,,,,,,,,,,,,,,,,,,,,,,
0,31,31,26,1,,5da98e800f35db00176e5aca,62c5390ab2daef25d43cd7df,2022-07-06_09h26.23.443,Colour_Asymmetry_Pilot,2022.1.3,Win32,165.2073352,62c50e9c1127f2cd403a315f,,,,,,,,,,,,,,,,,,,,,,,,,,,,,,,,,,,,,,,,,,,,,,,,,,,,,,,,,,,,,,,,,,,,,,,,,,,,,,,,,,,,,,,,,,,,,,,,,,,,,,,,,,,,,,,,,,,,,,,,,,,,,,,,,,,,,,,,,,,,,,,,,,,,,,,,,,,,,,,,,,,
0,32,32,30,1,,5da98e800f35db00176e5aca,62c5390ab2daef25d43cd7df,2022-07-06_09h26.23.443,Colour_Asymmetry_Pilot,2022.1.3,Win32,165.2073352,62c50e9c1127f2cd403a315f,,,,,,,,,,,,,,,,,,,,,,,,,,,,,,,,,,,,,,,,,,,,,,,,,,,,,,,,,,,,,,,,,,,,,,,,,,,,,,,,,,,,,,,,,,,,,,,,,,,,,,,,,,,,,,,,,,,,,,,,,,,,,,,,,,,,,,,,,,,,,,,,,,,,,,,,,,,,,,,,,,,
0,33,33,92,1,,5da98e800f35db00176e5aca,62c5390ab2daef25d43cd7df,2022-07-06_09h26.23.443,Colour_Asymmetry_Pilot,2022.1.3,Win32,165.2073352,62c50e9c1127f2cd403a315f,,,,,,,,,,,,,,,,,,,,,,,,,,,,,,,,,,,,,,,,,,,,,,,,,,,,,,,,,,,,,,,,,,,,,,,,,,,,,,,,,,,,,,,,,,,,,,,,,,,,,,,,,,,,,,,,,,,,,,,,,,,,,,,,,,,,,,,,,,,,,,,,,,,,,,,,,,,,,,,,,,,
0,34,34,68,1,,5da98e800f35db00176e5aca,62c5390ab2daef25d43cd7df,2022-07-06_09h26.23.443,Colour_Asymmetry_Pilot,2022.1.3,Win32,165.2073352,62c50e9c1127f2cd403a315f,,,,,,,,,,,,,,,,,,,,,,,,,,,,,,,,,,,,,,,,,,,,,,,,,,,,,,,,,,,,,,,,,,,,,,,,,,,,,,,,,,,,,,,,,,,,,,,,,,,,,,,,,,,,,,,,,,,,,,,,,,,,,,,,,,,,,,,,,,,,,,,,,,,,,,,,,,,,,,,,,,,
0,35,35,65,1,,5da98e800f35db00176e5aca,62c5390ab2daef25d43cd7df,2022-07-06_09h26.23.443,Colour_Asymmetry_Pilot,2022.1.3,Win32,165.2073352,62c50e9c1127f2cd403a315f,,,,,,,,,,,,,,,,,,,,,,,,,,,,,,,,,,,,,,,,,,,,,,,,,,,,,,,,,,,,,,,,,,,,,,,,,,,,,,,,,,,,,,,,,,,,,,,,,,,,,,,,,,,,,,,,,,,,,,,,,,,,,,,,,,,,,,,,,,,,,,,,,,,,,,,,,,,,,,,,,,,
0,36,36,16,1,,5da98e800f35db00176e5aca,62c5390ab2daef25d43cd7df,2022-07-06_09h26.23.443,Colour_Asymmetry_Pilot,2022.1.3,Win32,165.2073352,62c50e9c1127f2cd403a315f,,,,,,,,,,,,,,,,,,,,,,,,,,,,,,,,,,,,,,,,,,,,,,,,,,,,,,,,,,,,,,,,,,,,,,,,,,,,,,,,,,,,,,,,,,,,,,,,,,,,,,,,,,,,,,,,,,,,,,,,,,,,,,,,,,,,,,,,,,,,,,,,,,,,,,,,,,,,,,,,,,,
0,37,37,24,1,,5da98e800f35db00176e5aca,62c5390ab2daef25d43cd7df,2022-07-06_09h26.23.443,Colour_Asymmetry_Pilot,2022.1.3,Win32,165.2073352,62c50e9c1127f2cd403a315f,,,,,,,,,,,,,,,,,,,,,,,,,,,,,,,,,,,,,,,,,,,,,,,,,,,,,,,,,,,,,,,,,,,,,,,,,,,,,,,,,,,,,,,,,,,,,,,,,,,,,,,,,,,,,,,,,,,,,,,,,,,,,,,,,,,,,,,,,,,,,,,,,,,,,,,,,,,,,,,,,,,
0,38,38,52,1,,5da98e800f35db00176e5aca,62c5390ab2daef25d43cd7df,2022-07-06_09h26.23.443,Colour_Asymmetry_Pilot,2022.1.3,Win32,165.2073352,62c50e9c1127f2cd403a315f,,,,,,,,,,,,,,,,,,,,,,,,,,,,,,,,,,,,,,,,,,,,,,,,,,,,,,,,,,,,,,,,,,,,,,,,,,,,,,,,,,,,,,,,,,,,,,,,,,,,,,,,,,,,,,,,,,,,,,,,,,,,,,,,,,,,,,,,,,,,,,,,,,,,,,,,,,,,,,,,,,,
0,39,39,54,1,,5da98e800f35db00176e5aca,62c5390ab2daef25d43cd7df,2022-07-06_09h26.23.443,Colour_Asymmetry_Pilot,2022.1.3,Win32,165.2073352,62c50e9c1127f2cd403a315f,,,,,,,,,,,,,,,,,,,,,,,,,,,,,,,,,,,,,,,,,,,,,,,,,,,,,,,,,,,,,,,,,,,,,,,,,,,,,,,,,,,,,,,,,,,,,,,,,,,,,,,,,,,,,,,,,,,,,,,,,,,,,,,,,,,,,,,,,,,,,,,,,,,,,,,,,,,,,,,,,,,
0,40,40,77,1,,5da98e800f35db00176e5aca,62c5390ab2daef25d43cd7df,2022-07-06_09h26.23.443,Colour_Asymmetry_Pilot,2022.1.3,Win32,165.2073352,62c50e9c1127f2cd403a315f,,,,,,,,,,,,,,,,,,,,,,,,,,,,,,,,,,,,,,,,,,,,,,,,,,,,,,,,,,,,,,,,,,,,,,,,,,,,,,,,,,,,,,,,,,,,,,,,,,,,,,,,,,,,,,,,,,,,,,,,,,,,,,,,,,,,,,,,,,,,,,,,,,,,,,,,,,,,,,,,,,,
0,41,41,40,1,,5da98e800f35db00176e5aca,62c5390ab2daef25d43cd7df,2022-07-06_09h26.23.443,Colour_Asymmetry_Pilot,2022.1.3,Win32,165.2073352,62c50e9c1127f2cd403a315f,,,,,,,,,,,,,,,,,,,,,,,,,,,,,,,,,,,,,,,,,,,,,,,,,,,,,,,,,,,,,,,,,,,,,,,,,,,,,,,,,,,,,,,,,,,,,,,,,,,,,,,,,,,,,,,,,,,,,,,,,,,,,,,,,,,,,,,,,,,,,,,,,,,,,,,,,,,,,,,,,,,
0,42,42,55,1,,5da98e800f35db00176e5aca,62c5390ab2daef25d43cd7df,2022-07-06_09h26.23.443,Colour_Asymmetry_Pilot,2022.1.3,Win32,165.2073352,62c50e9c1127f2cd403a315f,,,,,,,,,,,,,,,,,,,,,,,,,,,,,,,,,,,,,,,,,,,,,,,,,,,,,,,,,,,,,,,,,,,,,,,,,,,,,,,,,,,,,,,,,,,,,,,,,,,,,,,,,,,,,,,,,,,,,,,,,,,,,,,,,,,,,,,,,,,,,,,,,,,,,,,,,,,,,,,,,,,
0,43,43,34,1,,5da98e800f35db00176e5aca,62c5390ab2daef25d43cd7df,2022-07-06_09h26.23.443,Colour_Asymmetry_Pilot,2022.1.3,Win32,165.2073352,62c50e9c1127f2cd403a315f,,,,,,,,,,,,,,,,,,,,,,,,,,,,,,,,,,,,,,,,,,,,,,,,,,,,,,,,,,,,,,,,,,,,,,,,,,,,,,,,,,,,,,,,,,,,,,,,,,,,,,,,,,,,,,,,,,,,,,,,,,,,,,,,,,,,,,,,,,,,,,,,,,,,,,,,,,,,,,,,,,,
0,44,44,90,1,,5da98e800f35db00176e5aca,62c5390ab2daef25d43cd7df,2022-07-06_09h26.23.443,Colour_Asymmetry_Pilot,2022.1.3,Win32,165.2073352,62c50e9c1127f2cd403a315f,,,,,,,,,,,,,,,,,,,,,,,,,,,,,,,,,,,,,,,,,,,,,,,,,,,,,,,,,,,,,,,,,,,,,,,,,,,,,,,,,,,,,,,,,,,,,,,,,,,,,,,,,,,,,,,,,,,,,,,,,,,,,,,,,,,,,,,,,,,,,,,,,,,,,,,,,,,,,,,,,,,
0,45,45,9,1,,5da98e800f35db00176e5aca,62c5390ab2daef25d43cd7df,2022-07-06_09h26.23.443,Colour_Asymmetry_Pilot,2022.1.3,Win32,165.2073352,62c50e9c1127f2cd403a315f,,,,,,,,,,,,,,,,,,,,,,,,,,,,,,,,,,,,,,,,,,,,,,,,,,,,,,,,,,,,,,,,,,,,,,,,,,,,,,,,,,,,,,,,,,,,,,,,,,,,,,,,,,,,,,,,,,,,,,,,,,,,,,,,,,,,,,,,,,,,,,,,,,,,,,,,,,,,,,,,,,,
0,46,46,6,1,,5da98e800f35db00176e5aca,62c5390ab2daef25d43cd7df,2022-07-06_09h26.23.443,Colour_Asymmetry_Pilot,2022.1.3,Win32,165.2073352,62c50e9c1127f2cd403a315f,,,,,,,,,,,,,,,,,,,,,,,,,,,,,,,,,,,,,,,,,,,,,,,,,,,,,,,,,,,,,,,,,,,,,,,,,,,,,,,,,,,,,,,,,,,,,,,,,,,,,,,,,,,,,,,,,,,,,,,,,,,,,,,,,,,,,,,,,,,,,,,,,,,,,,,,,,,,,,,,,,,
0,47,47,2,1,,5da98e800f35db00176e5aca,62c5390ab2daef25d43cd7df,2022-07-06_09h26.23.443,Colour_Asymmetry_Pilot,2022.1.3,Win32,165.2073352,62c50e9c1127f2cd403a315f,,,,,,,,,,,,,,,,,,,,,,,,,,,,,,,,,,,,,,,,,,,,,,,,,,,,,,,,,,,,,,,,,,,,,,,,,,,,,,,,,,,,,,,,,,,,,,,,,,,,,,,,,,,,,,,,,,,,,,,,,,,,,,,,,,,,,,,,,,,,,,,,,,,,,,,,,,,,,,,,,,,
0,48,48,18,1,,5da98e800f35db00176e5aca,62c5390ab2daef25d43cd7df,2022-07-06_09h26.23.443,Colour_Asymmetry_Pilot,2022.1.3,Win32,165.2073352,62c50e9c1127f2cd403a315f,,,,,,,,,,,,,,,,,,,,,,,,,,,,,,,,,,,,,,,,,,,,,,,,,,,,,,,,,,,,,,,,,,,,,,,,,,,,,,,,,,,,,,,,,,,,,,,,,,,,,,,,,,,,,,,,,,,,,,,,,,,,,,,,,,,,,,,,,,,,,,,,,,,,,,,,,,,,,,,,,,,
0,49,49,91,1,,5da98e800f35db00176e5aca,62c5390ab2daef25d43cd7df,2022-07-06_09h26.23.443,Colour_Asymmetry_Pilot,2022.1.3,Win32,165.2073352,62c50e9c1127f2cd403a315f,,,,,,,,,,,,,,,,,,,,,,,,,,,,,,,,,,,,,,,,,,,,,,,,,,,,,,,,,,,,,,,,,,,,,,,,,,,,,,,,,,,,,,,,,,,,,,,,,,,,,,,,,,,,,,,,,,,,,,,,,,,,,,,,,,,,,,,,,,,,,,,,,,,,,,,,,,,,,,,,,,,
0,50,50,51,1,,5da98e800f35db00176e5aca,62c5390ab2daef25d43cd7df,2022-07-06_09h26.23.443,Colour_Asymmetry_Pilot,2022.1.3,Win32,165.2073352,62c50e9c1127f2cd403a315f,,,,,,,,,,,,,,,,,,,,,,,,,,,,,,,,,,,,,,,,,,,,,,,,,,,,,,,,,,,,,,,,,,,,,,,,,,,,,,,,,,,,,,,,,,,,,,,,,,,,,,,,,,,,,,,,,,,,,,,,,,,,,,,,,,,,,,,,,,,,,,,,,,,,,,,,,,,,,,,,,,,
0,51,51,53,1,,5da98e800f35db00176e5aca,62c5390ab2daef25d43cd7df,2022-07-06_09h26.23.443,Colour_Asymmetry_Pilot,2022.1.3,Win32,165.2073352,62c50e9c1127f2cd403a315f,,,,,,,,,,,,,,,,,,,,,,,,,,,,,,,,,,,,,,,,,,,,,,,,,,,,,,,,,,,,,,,,,,,,,,,,,,,,,,,,,,,,,,,,,,,,,,,,,,,,,,,,,,,,,,,,,,,,,,,,,,,,,,,,,,,,,,,,,,,,,,,,,,,,,,,,,,,,,,,,,,,
0,52,52,13,1,,5da98e800f35db00176e5aca,62c5390ab2daef25d43cd7df,2022-07-06_09h26.23.443,Colour_Asymmetry_Pilot,2022.1.3,Win32,165.2073352,62c50e9c1127f2cd403a315f,,,,,,,,,,,,,,,,,,,,,,,,,,,,,,,,,,,,,,,,,,,,,,,,,,,,,,,,,,,,,,,,,,,,,,,,,,,,,,,,,,,,,,,,,,,,,,,,,,,,,,,,,,,,,,,,,,,,,,,,,,,,,,,,,,,,,,,,,,,,,,,,,,,,,,,,,,,,,,,,,,,
0,53,53,82,1,,5da98e800f35db00176e5aca,62c5390ab2daef25d43cd7df,2022-07-06_09h26.23.443,Colour_Asymmetry_Pilot,2022.1.3,Win32,165.2073352,62c50e9c1127f2cd403a315f,,,,,,,,,,,,,,,,,,,,,,,,,,,,,,,,,,,,,,,,,,,,,,,,,,,,,,,,,,,,,,,,,,,,,,,,,,,,,,,,,,,,,,,,,,,,,,,,,,,,,,,,,,,,,,,,,,,,,,,,,,,,,,,,,,,,,,,,,,,,,,,,,,,,,,,,,,,,,,,,,,,
0,54,54,70,1,,5da98e800f35db00176e5aca,62c5390ab2daef25d43cd7df,2022-07-06_09h26.23.443,Colour_Asymmetry_Pilot,2022.1.3,Win32,165.2073352,62c50e9c1127f2cd403a315f,,,,,,,,,,,,,,,,,,,,,,,,,,,,,,,,,,,,,,,,,,,,,,,,,,,,,,,,,,,,,,,,,,,,,,,,,,,,,,,,,,,,,,,,,,,,,,,,,,,,,,,,,,,,,,,,,,,,,,,,,,,,,,,,,,,,,,,,,,,,,,,,,,,,,,,,,,,,,,,,,,,
0,55,55,67,1,,5da98e800f35db00176e5aca,62c5390ab2daef25d43cd7df,2022-07-06_09h26.23.443,Colour_Asymmetry_Pilot,2022.1.3,Win32,165.2073352,62c50e9c1127f2cd403a315f,,,,,,,,,,,,,,,,,,,,,,,,,,,,,,,,,,,,,,,,,,,,,,,,,,,,,,,,,,,,,,,,,,,,,,,,,,,,,,,,,,,,,,,,,,,,,,,,,,,,,,,,,,,,,,,,,,,,,,,,,,,,,,,,,,,,,,,,,,,,,,,,,,,,,,,,,,,,,,,,,,,
0,56,56,5,1,,5da98e800f35db00176e5aca,62c5390ab2daef25d43cd7df,2022-07-06_09h26.23.443,Colour_Asymmetry_Pilot,2022.1.3,Win32,165.2073352,62c50e9c1127f2cd403a315f,,,,,,,,,,,,,,,,,,,,,,,,,,,,,,,,,,,,,,,,,,,,,,,,,,,,,,,,,,,,,,,,,,,,,,,,,,,,,,,,,,,,,,,,,,,,,,,,,,,,,,,,,,,,,,,,,,,,,,,,,,,,,,,,,,,,,,,,,,,,,,,,,,,,,,,,,,,,,,,,,,,
0,57,57,45,1,,5da98e800f35db00176e5aca,62c5390ab2daef25d43cd7df,2022-07-06_09h26.23.443,Colour_Asymmetry_Pilot,2022.1.3,Win32,165.2073352,62c50e9c1127f2cd403a315f,,,,,,,,,,,,,,,,,,,,,,,,,,,,,,,,,,,,,,,,,,,,,,,,,,,,,,,,,,,,,,,,,,,,,,,,,,,,,,,,,,,,,,,,,,,,,,,,,,,,,,,,,,,,,,,,,,,,,,,,,,,,,,,,,,,,,,,,,,,,,,,,,,,,,,,,,,,,,,,,,,,
0,58,58,7,1,,5da98e800f35db00176e5aca,62c5390ab2daef25d43cd7df,2022-07-06_09h26.23.443,Colour_Asymmetry_Pilot,2022.1.3,Win32,165.2073352,62c50e9c1127f2cd403a315f,,,,,,,,,,,,,,,,,,,,,,,,,,,,,,,,,,,,,,,,,,,,,,,,,,,,,,,,,,,,,,,,,,,,,,,,,,,,,,,,,,,,,,,,,,,,,,,,,,,,,,,,,,,,,,,,,,,,,,,,,,,,,,,,,,,,,,,,,,,,,,,,,,,,,,,,,,,,,,,,,,,
0,59,59,10,1,,5da98e800f35db00176e5aca,62c5390ab2daef25d43cd7df,2022-07-06_09h26.23.443,Colour_Asymmetry_Pilot,2022.1.3,Win32,165.2073352,62c50e9c1127f2cd403a315f,,,,,,,,,,,,,,,,,,,,,,,,,,,,,,,,,,,,,,,,,,,,,,,,,,,,,,,,,,,,,,,,,,,,,,,,,,,,,,,,,,,,,,,,,,,,,,,,,,,,,,,,,,,,,,,,,,,,,,,,,,,,,,,,,,,,,,,,,,,,,,,,,,,,,,,,,,,,,,,,,,,
0,60,60,81,1,,5da98e800f35db00176e5aca,62c5390ab2daef25d43cd7df,2022-07-06_09h26.23.443,Colour_Asymmetry_Pilot,2022.1.3,Win32,165.2073352,62c50e9c1127f2cd403a315f,,,,,,,,,,,,,,,,,,,,,,,,,,,,,,,,,,,,,,,,,,,,,,,,,,,,,,,,,,,,,,,,,,,,,,,,,,,,,,,,,,,,,,,,,,,,,,,,,,,,,,,,,,,,,,,,,,,,,,,,,,,,,,,,,,,,,,,,,,,,,,,,,,,,,,,,,,,,,,,,,,,
0,61,61,37,1,,5da98e800f35db00176e5aca,62c5390ab2daef25d43cd7df,2022-07-06_09h26.23.443,Colour_Asymmetry_Pilot,2022.1.3,Win32,165.2073352,62c50e9c1127f2cd403a315f,,,,,,,,,,,,,,,,,,,,,,,,,,,,,,,,,,,,,,,,,,,,,,,,,,,,,,,,,,,,,,,,,,,,,,,,,,,,,,,,,,,,,,,,,,,,,,,,,,,,,,,,,,,,,,,,,,,,,,,,,,,,,,,,,,,,,,,,,,,,,,,,,,,,,,,,,,,,,,,,,,,
0,62,62,79,1,,5da98e800f35db00176e5aca,62c5390ab2daef25d43cd7df,2022-07-06_09h26.23.443,Colour_Asymmetry_Pilot,2022.1.3,Win32,165.2073352,62c50e9c1127f2cd403a315f,,,,,,,,,,,,,,,,,,,,,,,,,,,,,,,,,,,,,,,,,,,,,,,,,,,,,,,,,,,,,,,,,,,,,,,,,,,,,,,,,,,,,,,,,,,,,,,,,,,,,,,,,,,,,,,,,,,,,,,,,,,,,,,,,,,,,,,,,,,,,,,,,,,,,,,,,,,,,,,,,,,
0,63,63,15,1,,5da98e800f35db00176e5aca,62c5390ab2daef25d43cd7df,2022-07-06_09h26.23.443,Colour_Asymmetry_Pilot,2022.1.3,Win32,165.2073352,62c50e9c1127f2cd403a315f,,,,,,,,,,,,,,,,,,,,,,,,,,,,,,,,,,,,,,,,,,,,,,,,,,,,,,,,,,,,,,,,,,,,,,,,,,,,,,,,,,,,,,,,,,,,,,,,,,,,,,,,,,,,,,,,,,,,,,,,,,,,,,,,,,,,,,,,,,,,,,,,,,,,,,,,,,,,,,,,,,,
0,64,64,78,1,,5da98e800f35db00176e5aca,62c5390ab2daef25d43cd7df,2022-07-06_09h26.23.443,Colour_Asymmetry_Pilot,2022.1.3,Win32,165.2073352,62c50e9c1127f2cd403a315f,,,,,,,,,,,,,,,,,,,,,,,,,,,,,,,,,,,,,,,,,,,,,,,,,,,,,,,,,,,,,,,,,,,,,,,,,,,,,,,,,,,,,,,,,,,,,,,,,,,,,,,,,,,,,,,,,,,,,,,,,,,,,,,,,,,,,,,,,,,,,,,,,,,,,,,,,,,,,,,,,,,
0,65,65,8,1,,5da98e800f35db00176e5aca,62c5390ab2daef25d43cd7df,2022-07-06_09h26.23.443,Colour_Asymmetry_Pilot,2022.1.3,Win32,165.2073352,62c50e9c1127f2cd403a315f,,,,,,,,,,,,,,,,,,,,,,,,,,,,,,,,,,,,,,,,,,,,,,,,,,,,,,,,,,,,,,,,,,,,,,,,,,,,,,,,,,,,,,,,,,,,,,,,,,,,,,,,,,,,,,,,,,,,,,,,,,,,,,,,,,,,,,,,,,,,,,,,,,,,,,,,,,,,,,,,,,,
0,66,66,56,1,,5da98e800f35db00176e5aca,62c5390ab2daef25d43cd7df,2022-07-06_09h26.23.443,Colour_Asymmetry_Pilot,2022.1.3,Win32,165.2073352,62c50e9c1127f2cd403a315f,,,,,,,,,,,,,,,,,,,,,,,,,,,,,,,,,,,,,,,,,,,,,,,,,,,,,,,,,,,,,,,,,,,,,,,,,,,,,,,,,,,,,,,,,,,,,,,,,,,,,,,,,,,,,,,,,,,,,,,,,,,,,,,,,,,,,,,,,,,,,,,,,,,,,,,,,,,,,,,,,,,
0,67,67,12,1,,5da98e800f35db00176e5aca,62c5390ab2daef25d43cd7df,2022-07-06_09h26.23.443,Colour_Asymmetry_Pilot,2022.1.3,Win32,165.2073352,62c50e9c1127f2cd403a315f,,,,,,,,,,,,,,,,,,,,,,,,,,,,,,,,,,,,,,,,,,,,,,,,,,,,,,,,,,,,,,,,,,,,,,,,,,,,,,,,,,,,,,,,,,,,,,,,,,,,,,,,,,,,,,,,,,,,,,,,,,,,,,,,,,,,,,,,,,,,,,,,,,,,,,,,,,,,,,,,,,,
0,68,68,89,1,,5da98e800f35db00176e5aca,62c5390ab2daef25d43cd7df,2022-07-06_09h26.23.443,Colour_Asymmetry_Pilot,2022.1.3,Win32,165.2073352,62c50e9c1127f2cd403a315f,,,,,,,,,,,,,,,,,,,,,,,,,,,,,,,,,,,,,,,,,,,,,,,,,,,,,,,,,,,,,,,,,,,,,,,,,,,,,,,,,,,,,,,,,,,,,,,,,,,,,,,,,,,,,,,,,,,,,,,,,,,,,,,,,,,,,,,,,,,,,,,,,,,,,,,,,,,,,,,,,,,
0,69,69,85,1,,5da98e800f35db00176e5aca,62c5390ab2daef25d43cd7df,2022-07-06_09h26.23.443,Colour_Asymmetry_Pilot,2022.1.3,Win32,165.2073352,62c50e9c1127f2cd403a315f,,,,,,,,,,,,,,,,,,,,,,,,,,,,,,,,,,,,,,,,,,,,,,,,,,,,,,,,,,,,,,,,,,,,,,,,,,,,,,,,,,,,,,,,,,,,,,,,,,,,,,,,,,,,,,,,,,,,,,,,,,,,,,,,,,,,,,,,,,,,,,,,,,,,,,,,,,,,,,,,,,,
0,70,70,46,1,,5da98e800f35db00176e5aca,62c5390ab2daef25d43cd7df,2022-07-06_09h26.23.443,Colour_Asymmetry_Pilot,2022.1.3,Win32,165.2073352,62c50e9c1127f2cd403a315f,,,,,,,,,,,,,,,,,,,,,,,,,,,,,,,,,,,,,,,,,,,,,,,,,,,,,,,,,,,,,,,,,,,,,,,,,,,,,,,,,,,,,,,,,,,,,,,,,,,,,,,,,,,,,,,,,,,,,,,,,,,,,,,,,,,,,,,,,,,,,,,,,,,,,,,,,,,,,,,,,,,
0,71,71,48,1,,5da98e800f35db00176e5aca,62c5390ab2daef25d43cd7df,2022-07-06_09h26.23.443,Colour_Asymmetry_Pilot,2022.1.3,Win32,165.2073352,62c50e9c1127f2cd403a315f,,,,,,,,,,,,,,,,,,,,,,,,,,,,,,,,,,,,,,,,,,,,,,,,,,,,,,,,,,,,,,,,,,,,,,,,,,,,,,,,,,,,,,,,,,,,,,,,,,,,,,,,,,,,,,,,,,,,,,,,,,,,,,,,,,,,,,,,,,,,,,,,,,,,,,,,,,,,,,,,,,,
0,72,72,74,1,,5da98e800f35db00176e5aca,62c5390ab2daef25d43cd7df,2022-07-06_09h26.23.443,Colour_Asymmetry_Pilot,2022.1.3,Win32,165.2073352,62c50e9c1127f2cd403a315f,,,,,,,,,,,,,,,,,,,,,,,,,,,,,,,,,,,,,,,,,,,,,,,,,,,,,,,,,,,,,,,,,,,,,,,,,,,,,,,,,,,,,,,,,,,,,,,,,,,,,,,,,,,,,,,,,,,,,,,,,,,,,,,,,,,,,,,,,,,,,,,,,,,,,,,,,,,,,,,,,,,
0,73,73,71,1,,5da98e800f35db00176e5aca,62c5390ab2daef25d43cd7df,2022-07-06_09h26.23.443,Colour_Asymmetry_Pilot,2022.1.3,Win32,165.2073352,62c50e9c1127f2cd403a315f,,,,,,,,,,,,,,,,,,,,,,,,,,,,,,,,,,,,,,,,,,,,,,,,,,,,,,,,,,,,,,,,,,,,,,,,,,,,,,,,,,,,,,,,,,,,,,,,,,,,,,,,,,,,,,,,,,,,,,,,,,,,,,,,,,,,,,,,,,,,,,,,,,,,,,,,,,,,,,,,,,,
0,74,74,72,1,,5da98e800f35db00176e5aca,62c5390ab2daef25d43cd7df,2022-07-06_09h26.23.443,Colour_Asymmetry_Pilot,2022.1.3,Win32,165.2073352,62c50e9c1127f2cd403a315f,,,,,,,,,,,,,,,,,,,,,,,,,,,,,,,,,,,,,,,,,,,,,,,,,,,,,,,,,,,,,,,,,,,,,,,,,,,,,,,,,,,,,,,,,,,,,,,,,,,,,,,,,,,,,,,,,,,,,,,,,,,,,,,,,,,,,,,,,,,,,,,,,,,,,,,,,,,,,,,,,,,
0,75,75,32,1,,5da98e800f35db00176e5aca,62c5390ab2daef25d43cd7df,2022-07-06_09h26.23.443,Colour_Asymmetry_Pilot,2022.1.3,Win32,165.2073352,62c50e9c1127f2cd403a315f,,,,,,,,,,,,,,,,,,,,,,,,,,,,,,,,,,,,,,,,,,,,,,,,,,,,,,,,,,,,,,,,,,,,,,,,,,,,,,,,,,,,,,,,,,,,,,,,,,,,,,,,,,,,,,,,,,,,,,,,,,,,,,,,,,,,,,,,,,,,,,,,,,,,,,,,,,,,,,,,,,,
0,76,76,43,1,,5da98e800f35db00176e5aca,62c5390ab2daef25d43cd7df,2022-07-06_09h26.23.443,Colour_Asymmetry_Pilot,2022.1.3,Win32,165.2073352,62c50e9c1127f2cd403a315f,,,,,,,,,,,,,,,,,,,,,,,,,,,,,,,,,,,,,,,,,,,,,,,,,,,,,,,,,,,,,,,,,,,,,,,,,,,,,,,,,,,,,,,,,,,,,,,,,,,,,,,,,,,,,,,,,,,,,,,,,,,,,,,,,,,,,,,,,,,,,,,,,,,,,,,,,,,,,,,,,,,
0,77,77,61,1,,5da98e800f35db00176e5aca,62c5390ab2daef25d43cd7df,2022-07-06_09h26.23.443,Colour_Asymmetry_Pilot,2022.1.3,Win32,165.2073352,62c50e9c1127f2cd403a315f,,,,,,,,,,,,,,,,,,,,,,,,,,,,,,,,,,,,,,,,,,,,,,,,,,,,,,,,,,,,,,,,,,,,,,,,,,,,,,,,,,,,,,,,,,,,,,,,,,,,,,,,,,,,,,,,,,,,,,,,,,,,,,,,,,,,,,,,,,,,,,,,,,,,,,,,,,,,,,,,,,,
0,78,78,80,1,,5da98e800f35db00176e5aca,62c5390ab2daef25d43cd7df,2022-07-06_09h26.23.443,Colour_Asymmetry_Pilot,2022.1.3,Win32,165.2073352,62c50e9c1127f2cd403a315f,,,,,,,,,,,,,,,,,,,,,,,,,,,,,,,,,,,,,,,,,,,,,,,,,,,,,,,,,,,,,,,,,,,,,,,,,,,,,,,,,,,,,,,,,,,,,,,,,,,,,,,,,,,,,,,,,,,,,,,,,,,,,,,,,,,,,,,,,,,,,,,,,,,,,,,,,,,,,,,,,,,
0,79,79,4,1,,5da98e800f35db00176e5aca,62c5390ab2daef25d43cd7df,2022-07-06_09h26.23.443,Colour_Asymmetry_Pilot,2022.1.3,Win32,165.2073352,62c50e9c1127f2cd403a315f,,,,,,,,,,,,,,,,,,,,,,,,,,,,,,,,,,,,,,,,,,,,,,,,,,,,,,,,,,,,,,,,,,,,,,,,,,,,,,,,,,,,,,,,,,,,,,,,,,,,,,,,,,,,,,,,,,,,,,,,,,,,,,,,,,,,,,,,,,,,,,,,,,,,,,,,,,,,,,,,,,,
0,80,80,75,1,,5da98e800f35db00176e5aca,62c5390ab2daef25d43cd7df,2022-07-06_09h26.23.443,Colour_Asymmetry_Pilot,2022.1.3,Win32,165.2073352,62c50e9c1127f2cd403a315f,,,,,,,,,,,,,,,,,,,,,,,,,,,,,,,,,,,,,,,,,,,,,,,,,,,,,,,,,,,,,,,,,,,,,,,,,,,,,,,,,,,,,,,,,,,,,,,,,,,,,,,,,,,,,,,,,,,,,,,,,,,,,,,,,,,,,,,,,,,,,,,,,,,,,,,,,,,,,,,,,,,
0,81,81,58,1,,5da98e800f35db00176e5aca,62c5390ab2daef25d43cd7df,2022-07-06_09h26.23.443,Colour_Asymmetry_Pilot,2022.1.3,Win32,165.2073352,62c50e9c1127f2cd403a315f,,,,,,,,,,,,,,,,,,,,,,,,,,,,,,,,,,,,,,,,,,,,,,,,,,,,,,,,,,,,,,,,,,,,,,,,,,,,,,,,,,,,,,,,,,,,,,,,,,,,,,,,,,,,,,,,,,,,,,,,,,,,,,,,,,,,,,,,,,,,,,,,,,,,,,,,,,,,,,,,,,,
0,82,82,47,1,,5da98e800f35db00176e5aca,62c5390ab2daef25d43cd7df,2022-07-06_09h26.23.443,Colour_Asymmetry_Pilot,2022.1.3,Win32,165.2073352,62c50e9c1127f2cd403a315f,,,,,,,,,,,,,,,,,,,,,,,,,,,,,,,,,,,,,,,,,,,,,,,,,,,,,,,,,,,,,,,,,,,,,,,,,,,,,,,,,,,,,,,,,,,,,,,,,,,,,,,,,,,,,,,,,,,,,,,,,,,,,,,,,,,,,,,,,,,,,,,,,,,,,,,,,,,,,,,,,,,
0,83,83,88,1,,5da98e800f35db00176e5aca,62c5390ab2daef25d43cd7df,2022-07-06_09h26.23.443,Colour_Asymmetry_Pilot,2022.1.3,Win32,165.2073352,62c50e9c1127f2cd403a315f,,,,,,,,,,,,,,,,,,,,,,,,,,,,,,,,,,,,,,,,,,,,,,,,,,,,,,,,,,,,,,,,,,,,,,,,,,,,,,,,,,,,,,,,,,,,,,,,,,,,,,,,,,,,,,,,,,,,,,,,,,,,,,,,,,,,,,,,,,,,,,,,,,,,,,,,,,,,,,,,,,,
0,84,84,41,1,,5da98e800f35db00176e5aca,62c5390ab2daef25d43cd7df,2022-07-06_09h26.23.443,Colour_Asymmetry_Pilot,2022.1.3,Win32,165.2073352,62c50e9c1127f2cd403a315f,,,,,,,,,,,,,,,,,,,,,,,,,,,,,,,,,,,,,,,,,,,,,,,,,,,,,,,,,,,,,,,,,,,,,,,,,,,,,,,,,,,,,,,,,,,,,,,,,,,,,,,,,,,,,,,,,,,,,,,,,,,,,,,,,,,,,,,,,,,,,,,,,,,,,,,,,,,,,,,,,,,
0,85,85,3,1,,5da98e800f35db00176e5aca,62c5390ab2daef25d43cd7df,2022-07-06_09h26.23.443,Colour_Asymmetry_Pilot,2022.1.3,Win32,165.2073352,62c50e9c1127f2cd403a315f,,,,,,,,,,,,,,,,,,,,,,,,,,,,,,,,,,,,,,,,,,,,,,,,,,,,,,,,,,,,,,,,,,,,,,,,,,,,,,,,,,,,,,,,,,,,,,,,,,,,,,,,,,,,,,,,,,,,,,,,,,,,,,,,,,,,,,,,,,,,,,,,,,,,,,,,,,,,,,,,,,,
0,86,86,69,1,,5da98e800f35db00176e5aca,62c5390ab2daef25d43cd7df,2022-07-06_09h26.23.443,Colour_Asymmetry_Pilot,2022.1.3,Win32,165.2073352,62c50e9c1127f2cd403a315f,,,,,,,,,,,,,,,,,,,,,,,,,,,,,,,,,,,,,,,,,,,,,,,,,,,,,,,,,,,,,,,,,,,,,,,,,,,,,,,,,,,,,,,,,,,,,,,,,,,,,,,,,,,,,,,,,,,,,,,,,,,,,,,,,,,,,,,,,,,,,,,,,,,,,,,,,,,,,,,,,,,
0,87,87,50,1,,5da98e800f35db00176e5aca,62c5390ab2daef25d43cd7df,2022-07-06_09h26.23.443,Colour_Asymmetry_Pilot,2022.1.3,Win32,165.2073352,62c50e9c1127f2cd403a315f,,,,,,,,,,,,,,,,,,,,,,,,,,,,,,,,,,,,,,,,,,,,,,,,,,,,,,,,,,,,,,,,,,,,,,,,,,,,,,,,,,,,,,,,,,,,,,,,,,,,,,,,,,,,,,,,,,,,,,,,,,,,,,,,,,,,,,,,,,,,,,,,,,,,,,,,,,,,,,,,,,,
0,88,88,63,1,,5da98e800f35db00176e5aca,62c5390ab2daef25d43cd7df,2022-07-06_09h26.23.443,Colour_Asymmetry_Pilot,2022.1.3,Win32,165.2073352,62c50e9c1127f2cd403a315f,,,,,,,,,,,,,,,,,,,,,,,,,,,,,,,,,,,,,,,,,,,,,,,,,,,,,,,,,,,,,,,,,,,,,,,,,,,,,,,,,,,,,,,,,,,,,,,,,,,,,,,,,,,,,,,,,,,,,,,,,,,,,,,,,,,,,,,,,,,,,,,,,,,,,,,,,,,,,,,,,,,
0,89,89,33,1,,5da98e800f35db00176e5aca,62c5390ab2daef25d43cd7df,2022-07-06_09h26.23.443,Colour_Asymmetry_Pilot,2022.1.3,Win32,165.2073352,62c50e9c1127f2cd403a315f,,,,,,,,,,,,,,,,,,,,,,,,,,,,,,,,,,,,,,,,,,,,,,,,,,,,,,,,,,,,,,,,,,,,,,,,,,,,,,,,,,,,,,,,,,,,,,,,,,,,,,,,,,,,,,,,,,,,,,,,,,,,,,,,,,,,,,,,,,,,,,,,,,,,,,,,,,,,,,,,,,,
0,90,90,60,1,,5da98e800f35db00176e5aca,62c5390ab2daef25d43cd7df,2022-07-06_09h26.23.443,Colour_Asymmetry_Pilot,2022.1.3,Win32,165.2073352,62c50e9c1127f2cd403a315f,,,,,,,,,,,,,,,,,,,,,,,,,,,,,,,,,,,,,,,,,,,,,,,,,,,,,,,,,,,,,,,,,,,,,,,,,,,,,,,,,,,,,,,,,,,,,,,,,,,,,,,,,,,,,,,,,,,,,,,,,,,,,,,,,,,,,,,,,,,,,,,,,,,,,,,,,,,,,,,,,,,
0,91,91,38,1,,5da98e800f35db00176e5aca,62c5390ab2daef25d43cd7df,2022-07-06_09h26.23.443,Colour_Asymmetry_Pilot,2022.1.3,Win32,165.2073352,62c50e9c1127f2cd403a315f,,,,,,,,,,,,,,,,,,,,,,,,,,,,,,,,,,,,,,,,,,,,,,,,,,,,,,,,,,,,,,,,,,,,,,,,,,,,,,,,,,,,,,,,,,,,,,,,,,,,,,,,,,,,,,,,,,,,,,,,,,,,,,,,,,,,,,,,,,,,,,,,,,,,,,,,,,,,,,,,,,,
0,92,92,21,1,,5da98e800f35db00176e5aca,62c5390ab2daef25d43cd7df,2022-07-06_09h26.23.443,Colour_Asymmetry_Pilot,2022.1.3,Win32,165.2073352,62c50e9c1127f2cd403a315f,,,,,,,,,,,,,,,,,,,,,,,,,,,,,,,,,,,,,,,,,,,,,,,,,,,,,,,,,,,,,,,,,,,,,,,,,,,,,,,,,,,,,,,,,,,,,,,,,,,,,,,,,,,,,,,,,,,,,,,,,,,,,,,,,,,,,,,,,,,,,,,,,,,,,,,,,,,,,,,,,,,
,,,,,,5da98e800f35db00176e5aca,62c5390ab2daef25d43cd7df,2022-07-06_09h26.23.443,Colour_Asymmetry_Pilot,2022.1.3,Win32,165.2073352,62c50e9c1127f2cd403a315f,0,0,0,123,1,twofour,,,,,,,,,,,,,,,,,,,,,,,,,,,,,,,,,,,,,,,,,,,,,,,,,,,,,,,,,,,,,,,,,,,,,,,,,,,,,,,,,,,,,,,,,,,,,,,,,,,,,,,,,,,,,,,,,,,,,,,,,,,,,,,,,,,,,,,,,,,,,,,,,,,,,,,,,,,,,
,,,,,,5da98e800f35db00176e5aca,62c5390ab2daef25d43cd7df,2022-07-06_09h26.23.443,Colour_Asymmetry_Pilot,2022.1.3,Win32,165.2073352,62c50e9c1127f2cd403a315f,0,1,1,41,1,onethree,,,,,,,,,,,,,,,,,,,,,,,,,,,,,,,,,,,,,,,,,,,,,,,,,,,,,,,,,,,,,,,,,,,,,,,,,,,,,,,,,,,,,,,,,,,,,,,,,,,,,,,,,,,,,,,,,,,,,,,,,,,,,,,,,,,,,,,,,,,,,,,,,,,,,,,,,,,,,
,,,,,,5da98e800f35db00176e5aca,62c5390ab2daef25d43cd7df,2022-07-06_09h26.23.443,Colour_Asymmetry_Pilot,2022.1.3,Win32,165.2073352,62c50e9c1127f2cd403a315f,0,2,2,101,1,threefour,,,,,,,,,,,,,,,,,,,,,,,,,,,,,,,,,,,,,,,,,,,,,,,,,,,,,,,,,,,,,,,,,,,,,,,,,,,,,,,,,,,,,,,,,,,,,,,,,,,,,,,,,,,,,,,,,,,,,,,,,,,,,,,,,,,,,,,,,,,,,,,,,,,,,,,,,,,,,
,,,,,,5da98e800f35db00176e5aca,62c5390ab2daef25d43cd7df,2022-07-06_09h26.23.443,Colour_Asymmetry_Pilot,2022.1.3,Win32,165.2073352,62c50e9c1127f2cd403a315f,0,3,3,70,1,fourtwo,,,,,,,,,,,,,,,,,,,,,,,,,,,,,,,,,,,,,,,,,,,,,,,,,,,,,,,,,,,,,,,,,,,,,,,,,,,,,,,,,,,,,,,,,,,,,,,,,,,,,,,,,,,,,,,,,,,,,,,,,,,,,,,,,,,,,,,,,,,,,,,,,,,,,,,,,,,,,
,,,,,,5da98e800f35db00176e5aca,62c5390ab2daef25d43cd7df,2022-07-06_09h26.23.443,Colour_Asymmetry_Pilot,2022.1.3,Win32,165.2073352,62c50e9c1127f2cd403a315f,0,4,4,97,1,onethree,,,,,,,,,,,,,,,,,,,,,,,,,,,,,,,,,,,,,,,,,,,,,,,,,,,,,,,,,,,,,,,,,,,,,,,,,,,,,,,,,,,,,,,,,,,,,,,,,,,,,,,,,,,,,,,,,,,,,,,,,,,,,,,,,,,,,,,,,,,,,,,,,,,,,,,,,,,,,
,,,,,,5da98e800f35db00176e5aca,62c5390ab2daef25d43cd7df,2022-07-06_09h26.23.443,Colour_Asymmetry_Pilot,2022.1.3,Win32,165.2073352,62c50e9c1127f2cd403a315f,0,5,5,148,1,threeone,,,,,,,,,,,,,,,,,,,,,,,,,,,,,,,,,,,,,,,,,,,,,,,,,,,,,,,,,,,,,,,,,,,,,,,,,,,,,,,,,,,,,,,,,,,,,,,,,,,,,,,,,,,,,,,,,,,,,,,,,,,,,,,,,,,,,,,,,,,,,,,,,,,,,,,,,,,,,
,,,,,,5da98e800f35db00176e5aca,62c5390ab2daef25d43cd7df,2022-07-06_09h26.23.443,Colour_Asymmetry_Pilot,2022.1.3,Win32,165.2073352,62c50e9c1127f2cd403a315f,0,6,6,158,1,fourtwo,,,,,,,,,,,,,,,,,,,,,,,,,,,,,,,,,,,,,,,,,,,,,,,,,,,,,,,,,,,,,,,,,,,,,,,,,,,,,,,,,,,,,,,,,,,,,,,,,,,,,,,,,,,,,,,,,,,,,,,,,,,,,,,,,,,,,,,,,,,,,,,,,,,,,,,,,,,,,
,,,,,,5da98e800f35db00176e5aca,62c5390ab2daef25d43cd7df,2022-07-06_09h26.23.443,Colour_Asymmetry_Pilot,2022.1.3,Win32,165.2073352,62c50e9c1127f2cd403a315f,0,7,7,43,1,twofour,,,,,,,,,,,,,,,,,,,,,,,,,,,,,,,,,,,,,,,,,,,,,,,,,,,,,,,,,,,,,,,,,,,,,,,,,,,,,,,,,,,,,,,,,,,,,,,,,,,,,,,,,,,,,,,,,,,,,,,,,,,,,,,,,,,,,,,,,,,,,,,,,,,,,,,,,,,,,
,,,,,,5da98e800f35db00176e5aca,62c5390ab2daef25d43cd7df,2022-07-06_09h26.23.443,Colour_Asymmetry_Pilot,2022.1.3,Win32,165.2073352,62c50e9c1127f2cd403a315f,0,8,8,139,1,twofour,,,,,,,,,,,,,,,,,,,,,,,,,,,,,,,,,,,,,,,,,,,,,,,,,,,,,,,,,,,,,,,,,,,,,,,,,,,,,,,,,,,,,,,,,,,,,,,,,,,,,,,,,,,,,,,,,,,,,,,,,,,,,,,,,,,,,,,,,,,,,,,,,,,,,,,,,,,,,
,,,,,,5da98e800f35db00176e5aca,62c5390ab2daef25d43cd7df,2022-07-06_09h26.23.443,Colour_Asymmetry_Pilot,2022.1.3,Win32,165.2073352,62c50e9c1127f2cd403a315f,0,9,9,121,1,onethree,,,,,,,,,,,,,,,,,,,,,,,,,,,,,,,,,,,,,,,,,,,,,,,,,,,,,,,,,,,,,,,,,,,,,,,,,,,,,,,,,,,,,,,,,,,,,,,,,,,,,,,,,,,,,,,,,,,,,,,,,,,,,,,,,,,,,,,,,,,,,,,,,,,,,,,,,,,,,
,,,,,,5da98e800f35db00176e5aca,62c5390ab2daef25d43cd7df,2022-07-06_09h26.23.443,Colour_Asymmetry_Pilot,2022.1.3,Win32,165.2073352,62c50e9c1127f2cd403a315f,0,10,10,29,1,threefour,,,,,,,,,,,,,,,,,,,,,,,,,,,,,,,,,,,,,,,,,,,,,,,,,,,,,,,,,,,,,,,,,,,,,,,,,,,,,,,,,,,,,,,,,,,,,,,,,,,,,,,,,,,,,,,,,,,,,,,,,,,,,,,,,,,,,,,,,,,,,,,,,,,,,,,,,,,,,
,,,,,,5da98e800f35db00176e5aca,62c5390ab2daef25d43cd7df,2022-07-06_09h26.23.443,Colour_Asymmetry_Pilot,2022.1.3,Win32,165.2073352,62c50e9c1127f2cd403a315f,0,11,11,131,1,twofour,,,,,,,,,,,,,,,,,,,,,,,,,,,,,,,,,,,,,,,,,,,,,,,,,,,,,,,,,,,,,,,,,,,,,,,,,,,,,,,,,,,,,,,,,,,,,,,,,,,,,,,,,,,,,,,,,,,,,,,,,,,,,,,,,,,,,,,,,,,,,,,,,,,,,,,,,,,,,
,,,,,,5da98e800f35db00176e5aca,62c5390ab2daef25d43cd7df,2022-07-06_09h26.23.443,Colour_Asymmetry_Pilot,2022.1.3,Win32,165.2073352,62c50e9c1127f2cd403a315f,0,12,12,48,1,onetwo,,,,,,,,,,,,,,,,,,,,,,,,,,,,,,,,,,,,,,,,,,,,,,,,,,,,,,,,,,,,,,,,,,,,,,,,,,,,,,,,,,,,,,,,,,,,,,,,,,,,,,,,,,,,,,,,,,,,,,,,,,,,,,,,,,,,,,,,,,,,,,,,,,,,,,,,,,,,,
,,,,,,5da98e800f35db00176e5aca,62c5390ab2daef25d43cd7df,2022-07-06_09h26.23.443,Colour_Asymmetry_Pilot,2022.1.3,Win32,165.2073352,62c50e9c1127f2cd403a315f,0,13,13,112,1,onetwo,,,,,,,,,,,,,,,,,,,,,,,,,,,,,,,,,,,,,,,,,,,,,,,,,,,,,,,,,,,,,,,,,,,,,,,,,,,,,,,,,,,,,,,,,,,,,,,,,,,,,,,,,,,,,,,,,,,,,,,,,,,,,,,,,,,,,,,,,,,,,,,,,,,,,,,,,,,,,
,,,,,,5da98e800f35db00176e5aca,62c5390ab2daef25d43cd7df,2022-07-06_09h26.23.443,Colour_Asymmetry_Pilot,2022.1.3,Win32,165.2073352,62c50e9c1127f2cd403a315f,0,14,14,94,1,fourtwo,,,,,,,,,,,,,,,,,,,,,,,,,,,,,,,,,,,,,,,,,,,,,,,,,,,,,,,,,,,,,,,,,,,,,,,,,,,,,,,,,,,,,,,,,,,,,,,,,,,,,,,,,,,,,,,,,,,,,,,,,,,,,,,,,,,,,,,,,,,,,,,,,,,,,,,,,,,,,
,,,,,,5da98e800f35db00176e5aca,62c5390ab2daef25d43cd7df,2022-07-06_09h26.23.443,Colour_Asymmetry_Pilot,2022.1.3,Win32,165.2073352,62c50e9c1127f2cd403a315f,0,15,15,65,1,onethree,,,,,,,,,,,,,,,,,,,,,,,,,,,,,,,,,,,,,,,,,,,,,,,,,,,,,,,,,,,,,,,,,,,,,,,,,,,,,,,,,,,,,,,,,,,,,,,,,,,,,,,,,,,,,,,,,,,,,,,,,,,,,,,,,,,,,,,,,,,,,,,,,,,,,,,,,,,,,
,,,,,,5da98e800f35db00176e5aca,62c5390ab2daef25d43cd7df,2022-07-06_09h26.23.443,Colour_Asymmetry_Pilot,2022.1.3,Win32,165.2073352,62c50e9c1127f2cd403a315f,0,16,16,25,1,onethree,,,,,,,,,,,,,,,,,,,,,,,,,,,,,,,,,,,,,,,,,,,,,,,,,,,,,,,,,,,,,,,,,,,,,,,,,,,,,,,,,,,,,,,,,,,,,,,,,,,,,,,,,,,,,,,,,,,,,,,,,,,,,,,,,,,,,,,,,,,,,,,,,,,,,,,,,,,,,
,,,,,,5da98e800f35db00176e5aca,62c5390ab2daef25d43cd7df,2022-07-06_09h26.23.443,Colour_Asymmetry_Pilot,2022.1.3,Win32,165.2073352,62c50e9c1127f2cd403a315f,0,17,17,160,1,onetwo,,,,,,,,,,,,,,,,,,,,,,,,,,,,,,,,,,,,,,,,,,,,,,,,,,,,,,,,,,,,,,,,,,,,,,,,,,,,,,,,,,,,,,,,,,,,,,,,,,,,,,,,,,,,,,,,,,,,,,,,,,,,,,,,,,,,,,,,,,,,,,,,,,,,,,,,,,,,,
,,,,,,5da98e800f35db00176e5aca,62c5390ab2daef25d43cd7df,2022-07-06_09h26.23.443,Colour_Asymmetry_Pilot,2022.1.3,Win32,165.2073352,62c50e9c1127f2cd403a315f,0,18,18,111,1,fourthree,,,,,,,,,,,,,,,,,,,,,,,,,,,,,,,,,,,,,,,,,,,,,,,,,,,,,,,,,,,,,,,,,,,,,,,,,,,,,,,,,,,,,,,,,,,,,,,,,,,,,,,,,,,,,,,,,,,,,,,,,,,,,,,,,,,,,,,,,,,,,,,,,,,,,,,,,,,,,
,,,,,,5da98e800f35db00176e5aca,62c5390ab2daef25d43cd7df,2022-07-06_09h26.23.443,Colour_Asymmetry_Pilot,2022.1.3,Win32,165.2073352,62c50e9c1127f2cd403a315f,0,19,19,140,1,threeone,,,,,,,,,,,,,,,,,,,,,,,,,,,,,,,,,,,,,,,,,,,,,,,,,,,,,,,,,,,,,,,,,,,,,,,,,,,,,,,,,,,,,,,,,,,,,,,,,,,,,,,,,,,,,,,,,,,,,,,,,,,,,,,,,,,,,,,,,,,,,,,,,,,,,,,,,,,,,
,,,,,,5da98e800f35db00176e5aca,62c5390ab2daef25d43cd7df,2022-07-06_09h26.23.443,Colour_Asymmetry_Pilot,2022.1.3,Win32,165.2073352,62c50e9c1127f2cd403a315f,0,20,20,33,1,onethree,,,,,,,,,,,,,,,,,,,,,,,,,,,,,,,,,,,,,,,,,,,,,,,,,,,,,,,,,,,,,,,,,,,,,,,,,,,,,,,,,,,,,,,,,,,,,,,,,,,,,,,,,,,,,,,,,,,,,,,,,,,,,,,,,,,,,,,,,,,,,,,,,,,,,,,,,,,,,
,,,,,,5da98e800f35db00176e5aca,62c5390ab2daef25d43cd7df,2022-07-06_09h26.23.443,Colour_Asymmetry_Pilot,2022.1.3,Win32,165.2073352,62c50e9c1127f2cd403a315f,0,21,21,152,1,onetwo,,,,,,,,,,,,,,,,,,,,,,,,,,,,,,,,,,,,,,,,,,,,,,,,,,,,,,,,,,,,,,,,,,,,,,,,,,,,,,,,,,,,,,,,,,,,,,,,,,,,,,,,,,,,,,,,,,,,,,,,,,,,,,,,,,,,,,,,,,,,,,,,,,,,,,,,,,,,,
,,,,,,5da98e800f35db00176e5aca,62c5390ab2daef25d43cd7df,2022-07-06_09h26.23.443,Colour_Asymmetry_Pilot,2022.1.3,Win32,165.2073352,62c50e9c1127f2cd403a315f,0,22,22,105,1,onethree,,,,,,,,,,,,,,,,,,,,,,,,,,,,,,,,,,,,,,,,,,,,,,,,,,,,,,,,,,,,,,,,,,,,,,,,,,,,,,,,,,,,,,,,,,,,,,,,,,,,,,,,,,,,,,,,,,,,,,,,,,,,,,,,,,,,,,,,,,,,,,,,,,,,,,,,,,,,,
,,,,,,5da98e800f35db00176e5aca,62c5390ab2daef25d43cd7df,2022-07-06_09h26.23.443,Colour_Asymmetry_Pilot,2022.1.3,Win32,165.2073352,62c50e9c1127f2cd403a315f,0,23,23,69,1,threefour,,,,,,,,,,,,,,,,,,,,,,,,,,,,,,,,,,,,,,,,,,,,,,,,,,,,,,,,,,,,,,,,,,,,,,,,,,,,,,,,,,,,,,,,,,,,,,,,,,,,,,,,,,,,,,,,,,,,,,,,,,,,,,,,,,,,,,,,,,,,,,,,,,,,,,,,,,,,,
,,,,,,5da98e800f35db00176e5aca,62c5390ab2daef25d43cd7df,2022-07-06_09h26.23.443,Colour_Asymmetry_Pilot,2022.1.3,Win32,165.2073352,62c50e9c1127f2cd403a315f,0,24,24,45,1,threefour,,,,,,,,,,,,,,,,,,,,,,,,,,,,,,,,,,,,,,,,,,,,,,,,,,,,,,,,,,,,,,,,,,,,,,,,,,,,,,,,,,,,,,,,,,,,,,,,,,,,,,,,,,,,,,,,,,,,,,,,,,,,,,,,,,,,,,,,,,,,,,,,,,,,,,,,,,,,,
,,,,,,5da98e800f35db00176e5aca,62c5390ab2daef25d43cd7df,2022-07-06_09h26.23.443,Colour_Asymmetry_Pilot,2022.1.3,Win32,165.2073352,62c50e9c1127f2cd403a315f,0,25,25,3,1,twofour,,,,,,,,,,,,,,,,,,,,,,,,,,,,,,,,,,,,,,,,,,,,,,,,,,,,,,,,,,,,,,,,,,,,,,,,,,,,,,,,,,,,,,,,,,,,,,,,,,,,,,,,,,,,,,,,,,,,,,,,,,,,,,,,,,,,,,,,,,,,,,,,,,,,,,,,,,,,,
,,,,,,5da98e800f35db00176e5aca,62c5390ab2daef25d43cd7df,2022-07-06_09h26.23.443,Colour_Asymmetry_Pilot,2022.1.3,Win32,165.2073352,62c50e9c1127f2cd403a315f,0,26,26,36,1,threeone,,,,,,,,,,,,,,,,,,,,,,,,,,,,,,,,,,,,,,,,,,,,,,,,,,,,,,,,,,,,,,,,,,,,,,,,,,,,,,,,,,,,,,,,,,,,,,,,,,,,,,,,,,,,,,,,,,,,,,,,,,,,,,,,,,,,,,,,,,,,,,,,,,,,,,,,,,,,,
,,,,,,5da98e800f35db00176e5aca,62c5390ab2daef25d43cd7df,2022-07-06_09h26.23.443,Colour_Asymmetry_Pilot,2022.1.3,Win32,165.2073352,62c50e9c1127f2cd403a315f,0,27,27,90,1,twoone,,,,,,,,,,,,,,,,,,,,,,,,,,,,,,,,,,,,,,,,,,,,,,,,,,,,,,,,,,,,,,,,,,,,,,,,,,,,,,,,,,,,,,,,,,,,,,,,,,,,,,,,,,,,,,,,,,,,,,,,,,,,,,,,,,,,,,,,,,,,,,,,,,,,,,,,,,,,,
,,,,,,5da98e800f35db00176e5aca,62c5390ab2daef25d43cd7df,2022-07-06_09h26.23.443,Colour_Asymmetry_Pilot,2022.1.3,Win32,165.2073352,62c50e9c1127f2cd403a315f,0,28,28,106,1,twoone,,,,,,,,,,,,,,,,,,,,,,,,,,,,,,,,,,,,,,,,,,,,,,,,,,,,,,,,,,,,,,,,,,,,,,,,,,,,,,,,,,,,,,,,,,,,,,,,,,,,,,,,,,,,,,,,,,,,,,,,,,,,,,,,,,,,,,,,,,,,,,,,,,,,,,,,,,,,,
,,,,,,5da98e800f35db00176e5aca,62c5390ab2daef25d43cd7df,2022-07-06_09h26.23.443,Colour_Asymmetry_Pilot,2022.1.3,Win32,165.2073352,62c50e9c1127f2cd403a315f,0,29,29,108,1,threeone,,,,,,,,,,,,,,,,,,,,,,,,,,,,,,,,,,,,,,,,,,,,,,,,,,,,,,,,,,,,,,,,,,,,,,,,,,,,,,,,,,,,,,,,,,,,,,,,,,,,,,,,,,,,,,,,,,,,,,,,,,,,,,,,,,,,,,,,,,,,,,,,,,,,,,,,,,,,,
,,,,,,5da98e800f35db00176e5aca,62c5390ab2daef25d43cd7df,2022-07-06_09h26.23.443,Colour_Asymmetry_Pilot,2022.1.3,Win32,165.2073352,62c50e9c1127f2cd403a315f,0,30,30,84,1,threeone,,,,,,,,,,,,,,,,,,,,,,,,,,,,,,,,,,,,,,,,,,,,,,,,,,,,,,,,,,,,,,,,,,,,,,,,,,,,,,,,,,,,,,,,,,,,,,,,,,,,,,,,,,,,,,,,,,,,,,,,,,,,,,,,,,,,,,,,,,,,,,,,,,,,,,,,,,,,,
,,,,,,5da98e800f35db00176e5aca,62c5390ab2daef25d43cd7df,2022-07-06_09h26.23.443,Colour_Asymmetry_Pilot,2022.1.3,Win32,165.2073352,62c50e9c1127f2cd403a315f,0,31,31,127,1,fourthree,,,,,,,,,,,,,,,,,,,,,,,,,,,,,,,,,,,,,,,,,,,,,,,,,,,,,,,,,,,,,,,,,,,,,,,,,,,,,,,,,,,,,,,,,,,,,,,,,,,,,,,,,,,,,,,,,,,,,,,,,,,,,,,,,,,,,,,,,,,,,,,,,,,,,,,,,,,,,
,,,,,,5da98e800f35db00176e5aca,62c5390ab2daef25d43cd7df,2022-07-06_09h26.23.443,Colour_Asymmetry_Pilot,2022.1.3,Win32,165.2073352,62c50e9c1127f2cd403a315f,0,32,32,113,1,onethree,,,,,,,,,,,,,,,,,,,,,,,,,,,,,,,,,,,,,,,,,,,,,,,,,,,,,,,,,,,,,,,,,,,,,,,,,,,,,,,,,,,,,,,,,,,,,,,,,,,,,,,,,,,,,,,,,,,,,,,,,,,,,,,,,,,,,,,,,,,,,,,,,,,,,,,,,,,,,
,,,,,,5da98e800f35db00176e5aca,62c5390ab2daef25d43cd7df,2022-07-06_09h26.23.443,Colour_Asymmetry_Pilot,2022.1.3,Win32,165.2073352,62c50e9c1127f2cd403a315f,0,33,33,50,1,twoone,,,,,,,,,,,,,,,,,,,,,,,,,,,,,,,,,,,,,,,,,,,,,,,,,,,,,,,,,,,,,,,,,,,,,,,,,,,,,,,,,,,,,,,,,,,,,,,,,,,,,,,,,,,,,,,,,,,,,,,,,,,,,,,,,,,,,,,,,,,,,,,,,,,,,,,,,,,,,
,,,,,,5da98e800f35db00176e5aca,62c5390ab2daef25d43cd7df,2022-07-06_09h26.23.443,Colour_Asymmetry_Pilot,2022.1.3,Win32,165.2073352,62c50e9c1127f2cd403a315f,0,34,34,81,1,onethree,,,,,,,,,,,,,,,,,,,,,,,,,,,,,,,,,,,,,,,,,,,,,,,,,,,,,,,,,,,,,,,,,,,,,,,,,,,,,,,,,,,,,,,,,,,,,,,,,,,,,,,,,,,,,,,,,,,,,,,,,,,,,,,,,,,,,,,,,,,,,,,,,,,,,,,,,,,,,
,,,,,,5da98e800f35db00176e5aca,62c5390ab2daef25d43cd7df,2022-07-06_09h26.23.443,Colour_Asymmetry_Pilot,2022.1.3,Win32,165.2073352,62c50e9c1127f2cd403a315f,0,35,35,137,1,onethree,,,,,,,,,,,,,,,,,,,,,,,,,,,,,,,,,,,,,,,,,,,,,,,,,,,,,,,,,,,,,,,,,,,,,,,,,,,,,,,,,,,,,,,,,,,,,,,,,,,,,,,,,,,,,,,,,,,,,,,,,,,,,,,,,,,,,,,,,,,,,,,,,,,,,,,,,,,,,
,,,,,,5da98e800f35db00176e5aca,62c5390ab2daef25d43cd7df,2022-07-06_09h26.23.443,Colour_Asymmetry_Pilot,2022.1.3,Win32,165.2073352,62c50e9c1127f2cd403a315f,0,36,36,7,1,fourthree,,,,,,,,,,,,,,,,,,,,,,,,,,,,,,,,,,,,,,,,,,,,,,,,,,,,,,,,,,,,,,,,,,,,,,,,,,,,,,,,,,,,,,,,,,,,,,,,,,,,,,,,,,,,,,,,,,,,,,,,,,,,,,,,,,,,,,,,,,,,,,,,,,,,,,,,,,,,,
,,,,,,5da98e800f35db00176e5aca,62c5390ab2daef25d43cd7df,2022-07-06_09h26.23.443,Colour_Asymmetry_Pilot,2022.1.3,Win32,165.2073352,62c50e9c1127f2cd403a315f,0,37,37,82,1,twoone,,,,,,,,,,,,,,,,,,,,,,,,,,,,,,,,,,,,,,,,,,,,,,,,,,,,,,,,,,,,,,,,,,,,,,,,,,,,,,,,,,,,,,,,,,,,,,,,,,,,,,,,,,,,,,,,,,,,,,,,,,,,,,,,,,,,,,,,,,,,,,,,,,,,,,,,,,,,,
,,,,,,5da98e800f35db00176e5aca,62c5390ab2daef25d43cd7df,2022-07-06_09h26.23.443,Colour_Asymmetry_Pilot,2022.1.3,Win32,165.2073352,62c50e9c1127f2cd403a315f,0,38,38,76,1,threeone,,,,,,,,,,,,,,,,,,,,,,,,,,,,,,,,,,,,,,,,,,,,,,,,,,,,,,,,,,,,,,,,,,,,,,,,,,,,,,,,,,,,,,,,,,,,,,,,,,,,,,,,,,,,,,,,,,,,,,,,,,,,,,,,,,,,,,,,,,,,,,,,,,,,,,,,,,,,,
,,,,,,5da98e800f35db00176e5aca,62c5390ab2daef25d43cd7df,2022-07-06_09h26.23.443,Colour_Asymmetry_Pilot,2022.1.3,Win32,165.2073352,62c50e9c1127f2cd403a315f,0,39,39,100,1,threeone,,,,,,,,,,,,,,,,,,,,,,,,,,,,,,,,,,,,,,,,,,,,,,,,,,,,,,,,,,,,,,,,,,,,,,,,,,,,,,,,,,,,,,,,,,,,,,,,,,,,,,,,,,,,,,,,,,,,,,,,,,,,,,,,,,,,,,,,,,,,,,,,,,,,,,,,,,,,,
,,,,,,5da98e800f35db00176e5aca,62c5390ab2daef25d43cd7df,2022-07-06_09h26.23.443,Colour_Asymmetry_Pilot,2022.1.3,Win32,165.2073352,62c50e9c1127f2cd403a315f,0,40,40,110,1,fourtwo,,,,,,,,,,,,,,,,,,,,,,,,,,,,,,,,,,,,,,,,,,,,,,,,,,,,,,,,,,,,,,,,,,,,,,,,,,,,,,,,,,,,,,,,,,,,,,,,,,,,,,,,,,,,,,,,,,,,,,,,,,,,,,,,,,,,,,,,,,,,,,,,,,,,,,,,,,,,,
,,,,,,5da98e800f35db00176e5aca,62c5390ab2daef25d43cd7df,2022-07-06_09h26.23.443,Colour_Asymmetry_Pilot,2022.1.3,Win32,165.2073352,62c50e9c1127f2cd403a315f,0,41,41,68,1,threeone,,,,,,,,,,,,,,,,,,,,,,,,,,,,,,,,,,,,,,,,,,,,,,,,,,,,,,,,,,,,,,,,,,,,,,,,,,,,,,,,,,,,,,,,,,,,,,,,,,,,,,,,,,,,,,,,,,,,,,,,,,,,,,,,,,,,,,,,,,,,,,,,,,,,,,,,,,,,,
,,,,,,5da98e800f35db00176e5aca,62c5390ab2daef25d43cd7df,2022-07-06_09h26.23.443,Colour_Asymmetry_Pilot,2022.1.3,Win32,165.2073352,62c50e9c1127f2cd403a315f,0,42,42,20,1,threeone,,,,,,,,,,,,,,,,,,,,,,,,,,,,,,,,,,,,,,,,,,,,,,,,,,,,,,,,,,,,,,,,,,,,,,,,,,,,,,,,,,,,,,,,,,,,,,,,,,,,,,,,,,,,,,,,,,,,,,,,,,,,,,,,,,,,,,,,,,,,,,,,,,,,,,,,,,,,,
,,,,,,5da98e800f35db00176e5aca,62c5390ab2daef25d43cd7df,2022-07-06_09h26.23.443,Colour_Asymmetry_Pilot,2022.1.3,Win32,165.2073352,62c50e9c1127f2cd403a315f,0,43,43,87,1,fourthree,,,,,,,,,,,,,,,,,,,,,,,,,,,,,,,,,,,,,,,,,,,,,,,,,,,,,,,,,,,,,,,,,,,,,,,,,,,,,,,,,,,,,,,,,,,,,,,,,,,,,,,,,,,,,,,,,,,,,,,,,,,,,,,,,,,,,,,,,,,,,,,,,,,,,,,,,,,,,
,,,,,,5da98e800f35db00176e5aca,62c5390ab2daef25d43cd7df,2022-07-06_09h26.23.443,Colour_Asymmetry_Pilot,2022.1.3,Win32,165.2073352,62c50e9c1127f2cd403a315f,0,44,44,119,1,fourthree,,,,,,,,,,,,,,,,,,,,,,,,,,,,,,,,,,,,,,,,,,,,,,,,,,,,,,,,,,,,,,,,,,,,,,,,,,,,,,,,,,,,,,,,,,,,,,,,,,,,,,,,,,,,,,,,,,,,,,,,,,,,,,,,,,,,,,,,,,,,,,,,,,,,,,,,,,,,,
,,,,,,5da98e800f35db00176e5aca,62c5390ab2daef25d43cd7df,2022-07-06_09h26.23.443,Colour_Asymmetry_Pilot,2022.1.3,Win32,165.2073352,62c50e9c1127f2cd403a315f,0,45,45,157,1,threefour,,,,,,,,,,,,,,,,,,,,,,,,,,,,,,,,,,,,,,,,,,,,,,,,,,,,,,,,,,,,,,,,,,,,,,,,,,,,,,,,,,,,,,,,,,,,,,,,,,,,,,,,,,,,,,,,,,,,,,,,,,,,,,,,,,,,,,,,,,,,,,,,,,,,,,,,,,,,,
,,,,,,5da98e800f35db00176e5aca,62c5390ab2daef25d43cd7df,2022-07-06_09h26.23.443,Colour_Asymmetry_Pilot,2022.1.3,Win32,165.2073352,62c50e9c1127f2cd403a315f,0,46,46,46,1,fourtwo,,,,,,,,,,,,,,,,,,,,,,,,,,,,,,,,,,,,,,,,,,,,,,,,,,,,,,,,,,,,,,,,,,,,,,,,,,,,,,,,,,,,,,,,,,,,,,,,,,,,,,,,,,,,,,,,,,,,,,,,,,,,,,,,,,,,,,,,,,,,,,,,,,,,,,,,,,,,,
,,,,,,5da98e800f35db00176e5aca,62c5390ab2daef25d43cd7df,2022-07-06_09h26.23.443,Colour_Asymmetry_Pilot,2022.1.3,Win32,165.2073352,62c50e9c1127f2cd403a315f,0,47,47,153,1,onethree,,,,,,,,,,,,,,,,,,,,,,,,,,,,,,,,,,,,,,,,,,,,,,,,,,,,,,,,,,,,,,,,,,,,,,,,,,,,,,,,,,,,,,,,,,,,,,,,,,,,,,,,,,,,,,,,,,,,,,,,,,,,,,,,,,,,,,,,,,,,,,,,,,,,,,,,,,,,,
,,,,,,5da98e800f35db00176e5aca,62c5390ab2daef25d43cd7df,2022-07-06_09h26.23.443,Colour_Asymmetry_Pilot,2022.1.3,Win32,165.2073352,62c50e9c1127f2cd403a315f,0,48,48,8,1,onetwo,,,,,,,,,,,,,,,,,,,,,,,,,,,,,,,,,,,,,,,,,,,,,,,,,,,,,,,,,,,,,,,,,,,,,,,,,,,,,,,,,,,,,,,,,,,,,,,,,,,,,,,,,,,,,,,,,,,,,,,,,,,,,,,,,,,,,,,,,,,,,,,,,,,,,,,,,,,,,
,,,,,,5da98e800f35db00176e5aca,62c5390ab2daef25d43cd7df,2022-07-06_09h26.23.443,Colour_Asymmetry_Pilot,2022.1.3,Win32,165.2073352,62c50e9c1127f2cd403a315f,0,49,49,120,1,onetwo,,,,,,,,,,,,,,,,,,,,,,,,,,,,,,,,,,,,,,,,,,,,,,,,,,,,,,,,,,,,,,,,,,,,,,,,,,,,,,,,,,,,,,,,,,,,,,,,,,,,,,,,,,,,,,,,,,,,,,,,,,,,,,,,,,,,,,,,,,,,,,,,,,,,,,,,,,,,,
,,,,,,5da98e800f35db00176e5aca,62c5390ab2daef25d43cd7df,2022-07-06_09h26.23.443,Colour_Asymmetry_Pilot,2022.1.3,Win32,165.2073352,62c50e9c1127f2cd403a315f,0,50,50,60,1,threeone,,,,,,,,,,,,,,,,,,,,,,,,,,,,,,,,,,,,,,,,,,,,,,,,,,,,,,,,,,,,,,,,,,,,,,,,,,,,,,,,,,,,,,,,,,,,,,,,,,,,,,,,,,,,,,,,,,,,,,,,,,,,,,,,,,,,,,,,,,,,,,,,,,,,,,,,,,,,,
,,,,,,5da98e800f35db00176e5aca,62c5390ab2daef25d43cd7df,2022-07-06_09h26.23.443,Colour_Asymmetry_Pilot,2022.1.3,Win32,165.2073352,62c50e9c1127f2cd403a315f,0,51,51,66,1,twoone,,,,,,,,,,,,,,,,,,,,,,,,,,,,,,,,,,,,,,,,,,,,,,,,,,,,,,,,,,,,,,,,,,,,,,,,,,,,,,,,,,,,,,,,,,,,,,,,,,,,,,,,,,,,,,,,,,,,,,,,,,,,,,,,,,,,,,,,,,,,,,,,,,,,,,,,,,,,,
,,,,,,5da98e800f35db00176e5aca,62c5390ab2daef25d43cd7df,2022-07-06_09h26.23.443,Colour_Asymmetry_Pilot,2022.1.3,Win32,165.2073352,62c50e9c1127f2cd403a315f,0,52,52,80,1,onetwo,,,,,,,,,,,,,,,,,,,,,,,,,,,,,,,,,,,,,,,,,,,,,,,,,,,,,,,,,,,,,,,,,,,,,,,,,,,,,,,,,,,,,,,,,,,,,,,,,,,,,,,,,,,,,,,,,,,,,,,,,,,,,,,,,,,,,,,,,,,,,,,,,,,,,,,,,,,,,
,,,,,,5da98e800f35db00176e5aca,62c5390ab2daef25d43cd7df,2022-07-06_09h26.23.443,Colour_Asymmetry_Pilot,2022.1.3,Win32,165.2073352,62c50e9c1127f2cd403a315f,0,53,53,91,1,twofour,,,,,,,,,,,,,,,,,,,,,,,,,,,,,,,,,,,,,,,,,,,,,,,,,,,,,,,,,,,,,,,,,,,,,,,,,,,,,,,,,,,,,,,,,,,,,,,,,,,,,,,,,,,,,,,,,,,,,,,,,,,,,,,,,,,,,,,,,,,,,,,,,,,,,,,,,,,,,
,,,,,,5da98e800f35db00176e5aca,62c5390ab2daef25d43cd7df,2022-07-06_09h26.23.443,Colour_Asymmetry_Pilot,2022.1.3,Win32,165.2073352,62c50e9c1127f2cd403a315f,0,54,54,150,1,fourtwo,,,,,,,,,,,,,,,,,,,,,,,,,,,,,,,,,,,,,,,,,,,,,,,,,,,,,,,,,,,,,,,,,,,,,,,,,,,,,,,,,,,,,,,,,,,,,,,,,,,,,,,,,,,,,,,,,,,,,,,,,,,,,,,,,,,,,,,,,,,,,,,,,,,,,,,,,,,,,
,,,,,,5da98e800f35db00176e5aca,62c5390ab2daef25d43cd7df,2022-07-06_09h26.23.443,Colour_Asymmetry_Pilot,2022.1.3,Win32,165.2073352,62c50e9c1127f2cd403a315f,0,55,55,31,1,fourthree,,,,,,,,,,,,,,,,,,,,,,,,,,,,,,,,,,,,,,,,,,,,,,,,,,,,,,,,,,,,,,,,,,,,,,,,,,,,,,,,,,,,,,,,,,,,,,,,,,,,,,,,,,,,,,,,,,,,,,,,,,,,,,,,,,,,,,,,,,,,,,,,,,,,,,,,,,,,,
,,,,,,5da98e800f35db00176e5aca,62c5390ab2daef25d43cd7df,2022-07-06_09h26.23.443,Colour_Asymmetry_Pilot,2022.1.3,Win32,165.2073352,62c50e9c1127f2cd403a315f,0,56,56,30,1,fourtwo,,,,,,,,,,,,,,,,,,,,,,,,,,,,,,,,,,,,,,,,,,,,,,,,,,,,,,,,,,,,,,,,,,,,,,,,,,,,,,,,,,,,,,,,,,,,,,,,,,,,,,,,,,,,,,,,,,,,,,,,,,,,,,,,,,,,,,,,,,,,,,,,,,,,,,,,,,,,,
,,,,,,5da98e800f35db00176e5aca,62c5390ab2daef25d43cd7df,2022-07-06_09h26.23.443,Colour_Asymmetry_Pilot,2022.1.3,Win32,165.2073352,62c50e9c1127f2cd403a315f,0,57,57,11,1,twofour,,,,,,,,,,,,,,,,,,,,,,,,,,,,,,,,,,,,,,,,,,,,,,,,,,,,,,,,,,,,,,,,,,,,,,,,,,,,,,,,,,,,,,,,,,,,,,,,,,,,,,,,,,,,,,,,,,,,,,,,,,,,,,,,,,,,,,,,,,,,,,,,,,,,,,,,,,,,,
,,,,,,5da98e800f35db00176e5aca,62c5390ab2daef25d43cd7df,2022-07-06_09h26.23.443,Colour_Asymmetry_Pilot,2022.1.3,Win32,165.2073352,62c50e9c1127f2cd403a315f,0,58,58,144,1,onetwo,,,,,,,,,,,,,,,,,,,,,,,,,,,,,,,,,,,,,,,,,,,,,,,,,,,,,,,,,,,,,,,,,,,,,,,,,,,,,,,,,,,,,,,,,,,,,,,,,,,,,,,,,,,,,,,,,,,,,,,,,,,,,,,,,,,,,,,,,,,,,,,,,,,,,,,,,,,,,
,,,,,,5da98e800f35db00176e5aca,62c5390ab2daef25d43cd7df,2022-07-06_09h26.23.443,Colour_Asymmetry_Pilot,2022.1.3,Win32,165.2073352,62c50e9c1127f2cd403a315f,0,59,59,38,1,fourtwo,,,,,,,,,,,,,,,,,,,,,,,,,,,,,,,,,,,,,,,,,,,,,,,,,,,,,,,,,,,,,,,,,,,,,,,,,,,,,,,,,,,,,,,,,,,,,,,,,,,,,,,,,,,,,,,,,,,,,,,,,,,,,,,,,,,,,,,,,,,,,,,,,,,,,,,,,,,,,
,,,,,,5da98e800f35db00176e5aca,62c5390ab2daef25d43cd7df,2022-07-06_09h26.23.443,Colour_Asymmetry_Pilot,2022.1.3,Win32,165.2073352,62c50e9c1127f2cd403a315f,0,60,60,49,1,onethree,,,,,,,,,,,,,,,,,,,,,,,,,,,,,,,,,,,,,,,,,,,,,,,,,,,,,,,,,,,,,,,,,,,,,,,,,,,,,,,,,,,,,,,,,,,,,,,,,,,,,,,,,,,,,,,,,,,,,,,,,,,,,,,,,,,,,,,,,,,,,,,,,,,,,,,,,,,,,
,,,,,,5da98e800f35db00176e5aca,62c5390ab2daef25d43cd7df,2022-07-06_09h26.23.443,Colour_Asymmetry_Pilot,2022.1.3,Win32,165.2073352,62c50e9c1127f2cd403a315f,0,61,61,19,1,twofour,,,,,,,,,,,,,,,,,,,,,,,,,,,,,,,,,,,,,,,,,,,,,,,,,,,,,,,,,,,,,,,,,,,,,,,,,,,,,,,,,,,,,,,,,,,,,,,,,,,,,,,,,,,,,,,,,,,,,,,,,,,,,,,,,,,,,,,,,,,,,,,,,,,,,,,,,,,,,
,,,,,,5da98e800f35db00176e5aca,62c5390ab2daef25d43cd7df,2022-07-06_09h26.23.443,Colour_Asymmetry_Pilot,2022.1.3,Win32,165.2073352,62c50e9c1127f2cd403a315f,0,62,62,143,1,fourthree,,,,,,,,,,,,,,,,,,,,,,,,,,,,,,,,,,,,,,,,,,,,,,,,,,,,,,,,,,,,,,,,,,,,,,,,,,,,,,,,,,,,,,,,,,,,,,,,,,,,,,,,,,,,,,,,,,,,,,,,,,,,,,,,,,,,,,,,,,,,,,,,,,,,,,,,,,,,,
,,,,,,5da98e800f35db00176e5aca,62c5390ab2daef25d43cd7df,2022-07-06_09h26.23.443,Colour_Asymmetry_Pilot,2022.1.3,Win32,165.2073352,62c50e9c1127f2cd403a315f,0,63,63,63,1,fourthree,,,,,,,,,,,,,,,,,,,,,,,,,,,,,,,,,,,,,,,,,,,,,,,,,,,,,,,,,,,,,,,,,,,,,,,,,,,,,,,,,,,,,,,,,,,,,,,,,,,,,,,,,,,,,,,,,,,,,,,,,,,,,,,,,,,,,,,,,,,,,,,,,,,,,,,,,,,,,
,,,,,,5da98e800f35db00176e5aca,62c5390ab2daef25d43cd7df,2022-07-06_09h26.23.443,Colour_Asymmetry_Pilot,2022.1.3,Win32,165.2073352,62c50e9c1127f2cd403a315f,0,64,64,32,1,onetwo,,,,,,,,,,,,,,,,,,,,,,,,,,,,,,,,,,,,,,,,,,,,,,,,,,,,,,,,,,,,,,,,,,,,,,,,,,,,,,,,,,,,,,,,,,,,,,,,,,,,,,,,,,,,,,,,,,,,,,,,,,,,,,,,,,,,,,,,,,,,,,,,,,,,,,,,,,,,,
,,,,,,5da98e800f35db00176e5aca,62c5390ab2daef25d43cd7df,2022-07-06_09h26.23.443,Colour_Asymmetry_Pilot,2022.1.3,Win32,165.2073352,62c50e9c1127f2cd403a315f,0,65,65,88,1,onetwo,,,,,,,,,,,,,,,,,,,,,,,,,,,,,,,,,,,,,,,,,,,,,,,,,,,,,,,,,,,,,,,,,,,,,,,,,,,,,,,,,,,,,,,,,,,,,,,,,,,,,,,,,,,,,,,,,,,,,,,,,,,,,,,,,,,,,,,,,,,,,,,,,,,,,,,,,,,,,
,,,,,,5da98e800f35db00176e5aca,62c5390ab2daef25d43cd7df,2022-07-06_09h26.23.443,Colour_Asymmetry_Pilot,2022.1.3,Win32,165.2073352,62c50e9c1127f2cd403a315f,0,66,66,52,1,threeone,,,,,,,,,,,,,,,,,,,,,,,,,,,,,,,,,,,,,,,,,,,,,,,,,,,,,,,,,,,,,,,,,,,,,,,,,,,,,,,,,,,,,,,,,,,,,,,,,,,,,,,,,,,,,,,,,,,,,,,,,,,,,,,,,,,,,,,,,,,,,,,,,,,,,,,,,,,,,
,,,,,,5da98e800f35db00176e5aca,62c5390ab2daef25d43cd7df,2022-07-06_09h26.23.443,Colour_Asymmetry_Pilot,2022.1.3,Win32,165.2073352,62c50e9c1127f2cd403a315f,0,67,67,128,1,onetwo,,,,,,,,,,,,,,,,,,,,,,,,,,,,,,,,,,,,,,,,,,,,,,,,,,,,,,,,,,,,,,,,,,,,,,,,,,,,,,,,,,,,,,,,,,,,,,,,,,,,,,,,,,,,,,,,,,,,,,,,,,,,,,,,,,,,,,,,,,,,,,,,,,,,,,,,,,,,,
,,,,,,5da98e800f35db00176e5aca,62c5390ab2daef25d43cd7df,2022-07-06_09h26.23.443,Colour_Asymmetry_Pilot,2022.1.3,Win32,165.2073352,62c50e9c1127f2cd403a315f,0,68,68,74,1,twoone,,,,,,,,,,,,,,,,,,,,,,,,,,,,,,,,,,,,,,,,,,,,,,,,,,,,,,,,,,,,,,,,,,,,,,,,,,,,,,,,,,,,,,,,,,,,,,,,,,,,,,,,,,,,,,,,,,,,,,,,,,,,,,,,,,,,,,,,,,,,,,,,,,,,,,,,,,,,,
,,,,,,5da98e800f35db00176e5aca,62c5390ab2daef25d43cd7df,2022-07-06_09h26.23.443,Colour_Asymmetry_Pilot,2022.1.3,Win32,165.2073352,62c50e9c1127f2cd403a315f,0,69,69,149,1,threefour,,,,,,,,,,,,,,,,,,,,,,,,,,,,,,,,,,,,,,,,,,,,,,,,,,,,,,,,,,,,,,,,,,,,,,,,,,,,,,,,,,,,,,,,,,,,,,,,,,,,,,,,,,,,,,,,,,,,,,,,,,,,,,,,,,,,,,,,,,,,,,,,,,,,,,,,,,,,,
,,,,,,5da98e800f35db00176e5aca,62c5390ab2daef25d43cd7df,2022-07-06_09h26.23.443,Colour_Asymmetry_Pilot,2022.1.3,Win32,165.2073352,62c50e9c1127f2cd403a315f,0,70,70,47,1,fourthree,,,,,,,,,,,,,,,,,,,,,,,,,,,,,,,,,,,,,,,,,,,,,,,,,,,,,,,,,,,,,,,,,,,,,,,,,,,,,,,,,,,,,,,,,,,,,,,,,,,,,,,,,,,,,,,,,,,,,,,,,,,,,,,,,,,,,,,,,,,,,,,,,,,,,,,,,,,,,
,,,,,,5da98e800f35db00176e5aca,62c5390ab2daef25d43cd7df,2022-07-06_09h26.23.443,Colour_Asymmetry_Pilot,2022.1.3,Win32,165.2073352,62c50e9c1127f2cd403a315f,0,71,71,146,1,twoone,,,,,,,,,,,,,,,,,,,,,,,,,,,,,,,,,,,,,,,,,,,,,,,,,,,,,,,,,,,,,,,,,,,,,,,,,,,,,,,,,,,,,,,,,,,,,,,,,,,,,,,,,,,,,,,,,,,,,,,,,,,,,,,,,,,,,,,,,,,,,,,,,,,,,,,,,,,,,
,,,,,,5da98e800f35db00176e5aca,62c5390ab2daef25d43cd7df,2022-07-06_09h26.23.443,Colour_Asymmetry_Pilot,2022.1.3,Win32,165.2073352,62c50e9c1127f2cd403a315f,0,72,72,34,1,twoone,,,,,,,,,,,,,,,,,,,,,,,,,,,,,,,,,,,,,,,,,,,,,,,,,,,,,,,,,,,,,,,,,,,,,,,,,,,,,,,,,,,,,,,,,,,,,,,,,,,,,,,,,,,,,,,,,,,,,,,,,,,,,,,,,,,,,,,,,,,,,,,,,,,,,,,,,,,,,
,,,,,,5da98e800f35db00176e5aca,62c5390ab2daef25d43cd7df,2022-07-06_09h26.23.443,Colour_Asymmetry_Pilot,2022.1.3,Win32,165.2073352,62c50e9c1127f2cd403a315f,0,73,73,16,1,onetwo,,,,,,,,,,,,,,,,,,,,,,,,,,,,,,,,,,,,,,,,,,,,,,,,,,,,,,,,,,,,,,,,,,,,,,,,,,,,,,,,,,,,,,,,,,,,,,,,,,,,,,,,,,,,,,,,,,,,,,,,,,,,,,,,,,,,,,,,,,,,,,,,,,,,,,,,,,,,,
,,,,,,5da98e800f35db00176e5aca,62c5390ab2daef25d43cd7df,2022-07-06_09h26.23.443,Colour_Asymmetry_Pilot,2022.1.3,Win32,165.2073352,62c50e9c1127f2cd403a315f,0,74,74,92,1,threeone,,,,,,,,,,,,,,,,,,,,,,,,,,,,,,,,,,,,,,,,,,,,,,,,,,,,,,,,,,,,,,,,,,,,,,,,,,,,,,,,,,,,,,,,,,,,,,,,,,,,,,,,,,,,,,,,,,,,,,,,,,,,,,,,,,,,,,,,,,,,,,,,,,,,,,,,,,,,,
,,,,,,5da98e800f35db00176e5aca,62c5390ab2daef25d43cd7df,2022-07-06_09h26.23.443,Colour_Asymmetry_Pilot,2022.1.3,Win32,165.2073352,62c50e9c1127f2cd403a315f,0,75,75,159,1,fourthree,,,,,,,,,,,,,,,,,,,,,,,,,,,,,,,,,,,,,,,,,,,,,,,,,,,,,,,,,,,,,,,,,,,,,,,,,,,,,,,,,,,,,,,,,,,,,,,,,,,,,,,,,,,,,,,,,,,,,,,,,,,,,,,,,,,,,,,,,,,,,,,,,,,,,,,,,,,,,
,,,,,,5da98e800f35db00176e5aca,62c5390ab2daef25d43cd7df,2022-07-06_09h26.23.443,Colour_Asymmetry_Pilot,2022.1.3,Win32,165.2073352,62c50e9c1127f2cd403a315f,0,76,76,18,1,twoone,,,,,,,,,,,,,,,,,,,,,,,,,,,,,,,,,,,,,,,,,,,,,,,,,,,,,,,,,,,,,,,,,,,,,,,,,,,,,,,,,,,,,,,,,,,,,,,,,,,,,,,,,,,,,,,,,,,,,,,,,,,,,,,,,,,,,,,,,,,,,,,,,,,,,,,,,,,,,
,,,,,,5da98e800f35db00176e5aca,62c5390ab2daef25d43cd7df,2022-07-06_09h26.23.443,Colour_Asymmetry_Pilot,2022.1.3,Win32,165.2073352,62c50e9c1127f2cd403a315f,0,77,77,78,1,fourtwo,,,,,,,,,,,,,,,,,,,,,,,,,,,,,,,,,,,,,,,,,,,,,,,,,,,,,,,,,,,,,,,,,,,,,,,,,,,,,,,,,,,,,,,,,,,,,,,,,,,,,,,,,,,,,,,,,,,,,,,,,,,,,,,,,,,,,,,,,,,,,,,,,,,,,,,,,,,,,
,,,,,,5da98e800f35db00176e5aca,62c5390ab2daef25d43cd7df,2022-07-06_09h26.23.443,Colour_Asymmetry_Pilot,2022.1.3,Win32,165.2073352,62c50e9c1127f2cd403a315f,0,78,78,35,1,twofour,,,,,,,,,,,,,,,,,,,,,,,,,,,,,,,,,,,,,,,,,,,,,,,,,,,,,,,,,,,,,,,,,,,,,,,,,,,,,,,,,,,,,,,,,,,,,,,,,,,,,,,,,,,,,,,,,,,,,,,,,,,,,,,,,,,,,,,,,,,,,,,,,,,,,,,,,,,,,
,,,,,,5da98e800f35db00176e5aca,62c5390ab2daef25d43cd7df,2022-07-06_09h26.23.443,Colour_Asymmetry_Pilot,2022.1.3,Win32,165.2073352,62c50e9c1127f2cd403a315f,0,79,79,141,1,threefour,,,,,,,,,,,,,,,,,,,,,,,,,,,,,,,,,,,,,,,,,,,,,,,,,,,,,,,,,,,,,,,,,,,,,,,,,,,,,,,,,,,,,,,,,,,,,,,,,,,,,,,,,,,,,,,,,,,,,,,,,,,,,,,,,,,,,,,,,,,,,,,,,,,,,,,,,,,,,
,,,,,,5da98e800f35db00176e5aca,62c5390ab2daef25d43cd7df,2022-07-06_09h26.23.443,Colour_Asymmetry_Pilot,2022.1.3,Win32,165.2073352,62c50e9c1127f2cd403a315f,0,80,80,118,1,fourtwo,,,,,,,,,,,,,,,,,,,,,,,,,,,,,,,,,,,,,,,,,,,,,,,,,,,,,,,,,,,,,,,,,,,,,,,,,,,,,,,,,,,,,,,,,,,,,,,,,,,,,,,,,,,,,,,,,,,,,,,,,,,,,,,,,,,,,,,,,,,,,,,,,,,,,,,,,,,,,
,,,,,,5da98e800f35db00176e5aca,62c5390ab2daef25d43cd7df,2022-07-06_09h26.23.443,Colour_Asymmetry_Pilot,2022.1.3,Win32,165.2073352,62c50e9c1127f2cd403a315f,0,81,81,73,1,onethree,,,,,,,,,,,,,,,,,,,,,,,,,,,,,,,,,,,,,,,,,,,,,,,,,,,,,,,,,,,,,,,,,,,,,,,,,,,,,,,,,,,,,,,,,,,,,,,,,,,,,,,,,,,,,,,,,,,,,,,,,,,,,,,,,,,,,,,,,,,,,,,,,,,,,,,,,,,,,
,,,,,,5da98e800f35db00176e5aca,62c5390ab2daef25d43cd7df,2022-07-06_09h26.23.443,Colour_Asymmetry_Pilot,2022.1.3,Win32,165.2073352,62c50e9c1127f2cd403a315f,0,82,82,55,1,fourthree,,,,,,,,,,,,,,,,,,,,,,,,,,,,,,,,,,,,,,,,,,,,,,,,,,,,,,,,,,,,,,,,,,,,,,,,,,,,,,,,,,,,,,,,,,,,,,,,,,,,,,,,,,,,,,,,,,,,,,,,,,,,,,,,,,,,,,,,,,,,,,,,,,,,,,,,,,,,,
,,,,,,5da98e800f35db00176e5aca,62c5390ab2daef25d43cd7df,2022-07-06_09h26.23.443,Colour_Asymmetry_Pilot,2022.1.3,Win32,165.2073352,62c50e9c1127f2cd403a315f,0,83,83,151,1,fourthree,,,,,,,,,,,,,,,,,,,,,,,,,,,,,,,,,,,,,,,,,,,,,,,,,,,,,,,,,,,,,,,,,,,,,,,,,,,,,,,,,,,,,,,,,,,,,,,,,,,,,,,,,,,,,,,,,,,,,,,,,,,,,,,,,,,,,,,,,,,,,,,,,,,,,,,,,,,,,
,,,,,,5da98e800f35db00176e5aca,62c5390ab2daef25d43cd7df,2022-07-06_09h26.23.443,Colour_Asymmetry_Pilot,2022.1.3,Win32,165.2073352,62c50e9c1127f2cd403a315f,0,84,84,142,1,fourtwo,,,,,,,,,,,,,,,,,,,,,,,,,,,,,,,,,,,,,,,,,,,,,,,,,,,,,,,,,,,,,,,,,,,,,,,,,,,,,,,,,,,,,,,,,,,,,,,,,,,,,,,,,,,,,,,,,,,,,,,,,,,,,,,,,,,,,,,,,,,,,,,,,,,,,,,,,,,,,
,,,,,,5da98e800f35db00176e5aca,62c5390ab2daef25d43cd7df,2022-07-06_09h26.23.443,Colour_Asymmetry_Pilot,2022.1.3,Win32,165.2073352,62c50e9c1127f2cd403a315f,0,85,85,9,1,onethree,,,,,,,,,,,,,,,,,,,,,,,,,,,,,,,,,,,,,,,,,,,,,,,,,,,,,,,,,,,,,,,,,,,,,,,,,,,,,,,,,,,,,,,,,,,,,,,,,,,,,,,,,,,,,,,,,,,,,,,,,,,,,,,,,,,,,,,,,,,,,,,,,,,,,,,,,,,,,
,,,,,,5da98e800f35db00176e5aca,62c5390ab2daef25d43cd7df,2022-07-06_09h26.23.443,Colour_Asymmetry_Pilot,2022.1.3,Win32,165.2073352,62c50e9c1127f2cd403a315f,0,86,86,83,1,twofour,,,,,,,,,,,,,,,,,,,,,,,,,,,,,,,,,,,,,,,,,,,,,,,,,,,,,,,,,,,,,,,,,,,,,,,,,,,,,,,,,,,,,,,,,,,,,,,,,,,,,,,,,,,,,,,,,,,,,,,,,,,,,,,,,,,,,,,,,,,,,,,,,,,,,,,,,,,,,
,,,,,,5da98e800f35db00176e5aca,62c5390ab2daef25d43cd7df,2022-07-06_09h26.23.443,Colour_Asymmetry_Pilot,2022.1.3,Win32,165.2073352,62c50e9c1127f2cd403a315f,0,87,87,93,1,threefour,,,,,,,,,,,,,,,,,,,,,,,,,,,,,,,,,,,,,,,,,,,,,,,,,,,,,,,,,,,,,,,,,,,,,,,,,,,,,,,,,,,,,,,,,,,,,,,,,,,,,,,,,,,,,,,,,,,,,,,,,,,,,,,,,,,,,,,,,,,,,,,,,,,,,,,,,,,,,
,,,,,,5da98e800f35db00176e5aca,62c5390ab2daef25d43cd7df,2022-07-06_09h26.23.443,Colour_Asymmetry_Pilot,2022.1.3,Win32,165.2073352,62c50e9c1127f2cd403a315f,0,88,88,12,1,threeone,,,,,,,,,,,,,,,,,,,,,,,,,,,,,,,,,,,,,,,,,,,,,,,,,,,,,,,,,,,,,,,,,,,,,,,,,,,,,,,,,,,,,,,,,,,,,,,,,,,,,,,,,,,,,,,,,,,,,,,,,,,,,,,,,,,,,,,,,,,,,,,,,,,,,,,,,,,,,
,,,,,,5da98e800f35db00176e5aca,62c5390ab2daef25d43cd7df,2022-07-06_09h26.23.443,Colour_Asymmetry_Pilot,2022.1.3,Win32,165.2073352,62c50e9c1127f2cd403a315f,0,89,89,13,1,threefour,,,,,,,,,,,,,,,,,,,,,,,,,,,,,,,,,,,,,,,,,,,,,,,,,,,,,,,,,,,,,,,,,,,,,,,,,,,,,,,,,,,,,,,,,,,,,,,,,,,,,,,,,,,,,,,,,,,,,,,,,,,,,,,,,,,,,,,,,,,,,,,,,,,,,,,,,,,,,
,,,,,,5da98e800f35db00176e5aca,62c5390ab2daef25d43cd7df,2022-07-06_09h26.23.443,Colour_Asymmetry_Pilot,2022.1.3,Win32,165.2073352,62c50e9c1127f2cd403a315f,0,90,90,71,1,fourthree,,,,,,,,,,,,,,,,,,,,,,,,,,,,,,,,,,,,,,,,,,,,,,,,,,,,,,,,,,,,,,,,,,,,,,,,,,,,,,,,,,,,,,,,,,,,,,,,,,,,,,,,,,,,,,,,,,,,,,,,,,,,,,,,,,,,,,,,,,,,,,,,,,,,,,,,,,,,,
,,,,,,5da98e800f35db00176e5aca,62c5390ab2daef25d43cd7df,2022-07-06_09h26.23.443,Colour_Asymmetry_Pilot,2022.1.3,Win32,165.2073352,62c50e9c1127f2cd403a315f,0,91,91,40,1,onetwo,,,,,,,,,,,,,,,,,,,,,,,,,,,,,,,,,,,,,,,,,,,,,,,,,,,,,,,,,,,,,,,,,,,,,,,,,,,,,,,,,,,,,,,,,,,,,,,,,,,,,,,,,,,,,,,,,,,,,,,,,,,,,,,,,,,,,,,,,,,,,,,,,,,,,,,,,,,,,
,,,,,,5da98e800f35db00176e5aca,62c5390ab2daef25d43cd7df,2022-07-06_09h26.23.443,Colour_Asymmetry_Pilot,2022.1.3,Win32,165.2073352,62c50e9c1127f2cd403a315f,0,92,92,122,1,twoone,,,,,,,,,,,,,,,,,,,,,,,,,,,,,,,,,,,,,,,,,,,,,,,,,,,,,,,,,,,,,,,,,,,,,,,,,,,,,,,,,,,,,,,,,,,,,,,,,,,,,,,,,,,,,,,,,,,,,,,,,,,,,,,,,,,,,,,,,,,,,,,,,,,,,,,,,,,,,
,,,,,,5da98e800f35db00176e5aca,62c5390ab2daef25d43cd7df,2022-07-06_09h26.23.443,Colour_Asymmetry_Pilot,2022.1.3,Win32,165.2073352,62c50e9c1127f2cd403a315f,0,93,93,138,1,twoone,,,,,,,,,,,,,,,,,,,,,,,,,,,,,,,,,,,,,,,,,,,,,,,,,,,,,,,,,,,,,,,,,,,,,,,,,,,,,,,,,,,,,,,,,,,,,,,,,,,,,,,,,,,,,,,,,,,,,,,,,,,,,,,,,,,,,,,,,,,,,,,,,,,,,,,,,,,,,
,,,,,,5da98e800f35db00176e5aca,62c5390ab2daef25d43cd7df,2022-07-06_09h26.23.443,Colour_Asymmetry_Pilot,2022.1.3,Win32,165.2073352,62c50e9c1127f2cd403a315f,0,94,94,102,1,fourtwo,,,,,,,,,,,,,,,,,,,,,,,,,,,,,,,,,,,,,,,,,,,,,,,,,,,,,,,,,,,,,,,,,,,,,,,,,,,,,,,,,,,,,,,,,,,,,,,,,,,,,,,,,,,,,,,,,,,,,,,,,,,,,,,,,,,,,,,,,,,,,,,,,,,,,,,,,,,,,
,,,,,,5da98e800f35db00176e5aca,62c5390ab2daef25d43cd7df,2022-07-06_09h26.23.443,Colour_Asymmetry_Pilot,2022.1.3,Win32,165.2073352,62c50e9c1127f2cd403a315f,0,95,95,133,1,threefour,,,,,,,,,,,,,,,,,,,,,,,,,,,,,,,,,,,,,,,,,,,,,,,,,,,,,,,,,,,,,,,,,,,,,,,,,,,,,,,,,,,,,,,,,,,,,,,,,,,,,,,,,,,,,,,,,,,,,,,,,,,,,,,,,,,,,,,,,,,,,,,,,,,,,,,,,,,,,
,,,,,,5da98e800f35db00176e5aca,62c5390ab2daef25d43cd7df,2022-07-06_09h26.23.443,Colour_Asymmetry_Pilot,2022.1.3,Win32,165.2073352,62c50e9c1127f2cd403a315f,0,96,96,116,1,threeone,,,,,,,,,,,,,,,,,,,,,,,,,,,,,,,,,,,,,,,,,,,,,,,,,,,,,,,,,,,,,,,,,,,,,,,,,,,,,,,,,,,,,,,,,,,,,,,,,,,,,,,,,,,,,,,,,,,,,,,,,,,,,,,,,,,,,,,,,,,,,,,,,,,,,,,,,,,,,
,,,,,,5da98e800f35db00176e5aca,62c5390ab2daef25d43cd7df,2022-07-06_09h26.23.443,Colour_Asymmetry_Pilot,2022.1.3,Win32,165.2073352,62c50e9c1127f2cd403a315f,0,97,97,114,1,twoone,,,,,,,,,,,,,,,,,,,,,,,,,,,,,,,,,,,,,,,,,,,,,,,,,,,,,,,,,,,,,,,,,,,,,,,,,,,,,,,,,,,,,,,,,,,,,,,,,,,,,,,,,,,,,,,,,,,,,,,,,,,,,,,,,,,,,,,,,,,,,,,,,,,,,,,,,,,,,
,,,,,,5da98e800f35db00176e5aca,62c5390ab2daef25d43cd7df,2022-07-06_09h26.23.443,Colour_Asymmetry_Pilot,2022.1.3,Win32,165.2073352,62c50e9c1127f2cd403a315f,0,98,98,125,1,threefour,,,,,,,,,,,,,,,,,,,,,,,,,,,,,,,,,,,,,,,,,,,,,,,,,,,,,,,,,,,,,,,,,,,,,,,,,,,,,,,,,,,,,,,,,,,,,,,,,,,,,,,,,,,,,,,,,,,,,,,,,,,,,,,,,,,,,,,,,,,,,,,,,,,,,,,,,,,,,
,,,,,,5da98e800f35db00176e5aca,62c5390ab2daef25d43cd7df,2022-07-06_09h26.23.443,Colour_Asymmetry_Pilot,2022.1.3,Win32,165.2073352,62c50e9c1127f2cd403a315f,0,99,99,0,1,onetwo,,,,,,,,,,,,,,,,,,,,,,,,,,,,,,,,,,,,,,,,,,,,,,,,,,,,,,,,,,,,,,,,,,,,,,,,,,,,,,,,,,,,,,,,,,,,,,,,,,,,,,,,,,,,,,,,,,,,,,,,,,,,,,,,,,,,,,,,,,,,,,,,,,,,,,,,,,,,,
,,,,,,5da98e800f35db00176e5aca,62c5390ab2daef25d43cd7df,2022-07-06_09h26.23.443,Colour_Asymmetry_Pilot,2022.1.3,Win32,165.2073352,62c50e9c1127f2cd403a315f,0,100,100,6,1,fourtwo,,,,,,,,,,,,,,,,,,,,,,,,,,,,,,,,,,,,,,,,,,,,,,,,,,,,,,,,,,,,,,,,,,,,,,,,,,,,,,,,,,,,,,,,,,,,,,,,,,,,,,,,,,,,,,,,,,,,,,,,,,,,,,,,,,,,,,,,,,,,,,,,,,,,,,,,,,,,,
,,,,,,5da98e800f35db00176e5aca,62c5390ab2daef25d43cd7df,2022-07-06_09h26.23.443,Colour_Asymmetry_Pilot,2022.1.3,Win32,165.2073352,62c50e9c1127f2cd403a315f,0,101,101,28,1,threeone,,,,,,,,,,,,,,,,,,,,,,,,,,,,,,,,,,,,,,,,,,,,,,,,,,,,,,,,,,,,,,,,,,,,,,,,,,,,,,,,,,,,,,,,,,,,,,,,,,,,,,,,,,,,,,,,,,,,,,,,,,,,,,,,,,,,,,,,,,,,,,,,,,,,,,,,,,,,,
,,,,,,5da98e800f35db00176e5aca,62c5390ab2daef25d43cd7df,2022-07-06_09h26.23.443,Colour_Asymmetry_Pilot,2022.1.3,Win32,165.2073352,62c50e9c1127f2cd403a315f,0,102,102,124,1,threeone,,,,,,,,,,,,,,,,,,,,,,,,,,,,,,,,,,,,,,,,,,,,,,,,,,,,,,,,,,,,,,,,,,,,,,,,,,,,,,,,,,,,,,,,,,,,,,,,,,,,,,,,,,,,,,,,,,,,,,,,,,,,,,,,,,,,,,,,,,,,,,,,,,,,,,,,,,,,,
,,,,,,5da98e800f35db00176e5aca,62c5390ab2daef25d43cd7df,2022-07-06_09h26.23.443,Colour_Asymmetry_Pilot,2022.1.3,Win32,165.2073352,62c50e9c1127f2cd403a315f,0,103,103,67,1,twofour,,,,,,,,,,,,,,,,,,,,,,,,,,,,,,,,,,,,,,,,,,,,,,,,,,,,,,,,,,,,,,,,,,,,,,,,,,,,,,,,,,,,,,,,,,,,,,,,,,,,,,,,,,,,,,,,,,,,,,,,,,,,,,,,,,,,,,,,,,,,,,,,,,,,,,,,,,,,,
,,,,,,5da98e800f35db00176e5aca,62c5390ab2daef25d43cd7df,2022-07-06_09h26.23.443,Colour_Asymmetry_Pilot,2022.1.3,Win32,165.2073352,62c50e9c1127f2cd403a315f,0,104,104,22,1,fourtwo,,,,,,,,,,,,,,,,,,,,,,,,,,,,,,,,,,,,,,,,,,,,,,,,,,,,,,,,,,,,,,,,,,,,,,,,,,,,,,,,,,,,,,,,,,,,,,,,,,,,,,,,,,,,,,,,,,,,,,,,,,,,,,,,,,,,,,,,,,,,,,,,,,,,,,,,,,,,,
,,,,,,5da98e800f35db00176e5aca,62c5390ab2daef25d43cd7df,2022-07-06_09h26.23.443,Colour_Asymmetry_Pilot,2022.1.3,Win32,165.2073352,62c50e9c1127f2cd403a315f,0,105,105,147,1,twofour,,,,,,,,,,,,,,,,,,,,,,,,,,,,,,,,,,,,,,,,,,,,,,,,,,,,,,,,,,,,,,,,,,,,,,,,,,,,,,,,,,,,,,,,,,,,,,,,,,,,,,,,,,,,,,,,,,,,,,,,,,,,,,,,,,,,,,,,,,,,,,,,,,,,,,,,,,,,,
,,,,,,5da98e800f35db00176e5aca,62c5390ab2daef25d43cd7df,2022-07-06_09h26.23.443,Colour_Asymmetry_Pilot,2022.1.3,Win32,165.2073352,62c50e9c1127f2cd403a315f,0,106,106,98,1,twoone,,,,,,,,,,,,,,,,,,,,,,,,,,,,,,,,,,,,,,,,,,,,,,,,,,,,,,,,,,,,,,,,,,,,,,,,,,,,,,,,,,,,,,,,,,,,,,,,,,,,,,,,,,,,,,,,,,,,,,,,,,,,,,,,,,,,,,,,,,,,,,,,,,,,,,,,,,,,,
,,,,,,5da98e800f35db00176e5aca,62c5390ab2daef25d43cd7df,2022-07-06_09h26.23.443,Colour_Asymmetry_Pilot,2022.1.3,Win32,165.2073352,62c50e9c1127f2cd403a315f,0,107,107,156,1,threeone,,,,,,,,,,,,,,,,,,,,,,,,,,,,,,,,,,,,,,,,,,,,,,,,,,,,,,,,,,,,,,,,,,,,,,,,,,,,,,,,,,,,,,,,,,,,,,,,,,,,,,,,,,,,,,,,,,,,,,,,,,,,,,,,,,,,,,,,,,,,,,,,,,,,,,,,,,,,,
,,,,,,5da98e800f35db00176e5aca,62c5390ab2daef25d43cd7df,2022-07-06_09h26.23.443,Colour_Asymmetry_Pilot,2022.1.3,Win32,165.2073352,62c50e9c1127f2cd403a315f,0,108,108,51,1,twofour,,,,,,,,,,,,,,,,,,,,,,,,,,,,,,,,,,,,,,,,,,,,,,,,,,,,,,,,,,,,,,,,,,,,,,,,,,,,,,,,,,,,,,,,,,,,,,,,,,,,,,,,,,,,,,,,,,,,,,,,,,,,,,,,,,,,,,,,,,,,,,,,,,,,,,,,,,,,,
,,,,,,5da98e800f35db00176e5aca,62c5390ab2daef25d43cd7df,2022-07-06_09h26.23.443,Colour_Asymmetry_Pilot,2022.1.3,Win32,165.2073352,62c50e9c1127f2cd403a315f,0,109,109,107,1,twofour,,,,,,,,,,,,,,,,,,,,,,,,,,,,,,,,,,,,,,,,,,,,,,,,,,,,,,,,,,,,,,,,,,,,,,,,,,,,,,,,,,,,,,,,,,,,,,,,,,,,,,,,,,,,,,,,,,,,,,,,,,,,,,,,,,,,,,,,,,,,,,,,,,,,,,,,,,,,,
,,,,,,5da98e800f35db00176e5aca,62c5390ab2daef25d43cd7df,2022-07-06_09h26.23.443,Colour_Asymmetry_Pilot,2022.1.3,Win32,165.2073352,62c50e9c1127f2cd403a315f,0,110,110,96,1,onetwo,,,,,,,,,,,,,,,,,,,,,,,,,,,,,,,,,,,,,,,,,,,,,,,,,,,,,,,,,,,,,,,,,,,,,,,,,,,,,,,,,,,,,,,,,,,,,,,,,,,,,,,,,,,,,,,,,,,,,,,,,,,,,,,,,,,,,,,,,,,,,,,,,,,,,,,,,,,,,
,,,,,,5da98e800f35db00176e5aca,62c5390ab2daef25d43cd7df,2022-07-06_09h26.23.443,Colour_Asymmetry_Pilot,2022.1.3,Win32,165.2073352,62c50e9c1127f2cd403a315f,0,111,111,154,1,twoone,,,,,,,,,,,,,,,,,,,,,,,,,,,,,,,,,,,,,,,,,,,,,,,,,,,,,,,,,,,,,,,,,,,,,,,,,,,,,,,,,,,,,,,,,,,,,,,,,,,,,,,,,,,,,,,,,,,,,,,,,,,,,,,,,,,,,,,,,,,,,,,,,,,,,,,,,,,,,
,,,,,,5da98e800f35db00176e5aca,62c5390ab2daef25d43cd7df,2022-07-06_09h26.23.443,Colour_Asymmetry_Pilot,2022.1.3,Win32,165.2073352,62c50e9c1127f2cd403a315f,0,112,112,57,1,onethree,,,,,,,,,,,,,,,,,,,,,,,,,,,,,,,,,,,,,,,,,,,,,,,,,,,,,,,,,,,,,,,,,,,,,,,,,,,,,,,,,,,,,,,,,,,,,,,,,,,,,,,,,,,,,,,,,,,,,,,,,,,,,,,,,,,,,,,,,,,,,,,,,,,,,,,,,,,,,
,,,,,,5da98e800f35db00176e5aca,62c5390ab2daef25d43cd7df,2022-07-06_09h26.23.443,Colour_Asymmetry_Pilot,2022.1.3,Win32,165.2073352,62c50e9c1127f2cd403a315f,0,113,113,130,1,twoone,,,,,,,,,,,,,,,,,,,,,,,,,,,,,,,,,,,,,,,,,,,,,,,,,,,,,,,,,,,,,,,,,,,,,,,,,,,,,,,,,,,,,,,,,,,,,,,,,,,,,,,,,,,,,,,,,,,,,,,,,,,,,,,,,,,,,,,,,,,,,,,,,,,,,,,,,,,,,
,,,,,,5da98e800f35db00176e5aca,62c5390ab2daef25d43cd7df,2022-07-06_09h26.23.443,Colour_Asymmetry_Pilot,2022.1.3,Win32,165.2073352,62c50e9c1127f2cd403a315f,0,114,114,95,1,fourthree,,,,,,,,,,,,,,,,,,,,,,,,,,,,,,,,,,,,,,,,,,,,,,,,,,,,,,,,,,,,,,,,,,,,,,,,,,,,,,,,,,,,,,,,,,,,,,,,,,,,,,,,,,,,,,,,,,,,,,,,,,,,,,,,,,,,,,,,,,,,,,,,,,,,,,,,,,,,,
,,,,,,5da98e800f35db00176e5aca,62c5390ab2daef25d43cd7df,2022-07-06_09h26.23.443,Colour_Asymmetry_Pilot,2022.1.3,Win32,165.2073352,62c50e9c1127f2cd403a315f,0,115,115,58,1,twoone,,,,,,,,,,,,,,,,,,,,,,,,,,,,,,,,,,,,,,,,,,,,,,,,,,,,,,,,,,,,,,,,,,,,,,,,,,,,,,,,,,,,,,,,,,,,,,,,,,,,,,,,,,,,,,,,,,,,,,,,,,,,,,,,,,,,,,,,,,,,,,,,,,,,,,,,,,,,,
,,,,,,5da98e800f35db00176e5aca,62c5390ab2daef25d43cd7df,2022-07-06_09h26.23.443,Colour_Asymmetry_Pilot,2022.1.3,Win32,165.2073352,62c50e9c1127f2cd403a315f,0,116,116,26,1,twoone,,,,,,,,,,,,,,,,,,,,,,,,,,,,,,,,,,,,,,,,,,,,,,,,,,,,,,,,,,,,,,,,,,,,,,,,,,,,,,,,,,,,,,,,,,,,,,,,,,,,,,,,,,,,,,,,,,,,,,,,,,,,,,,,,,,,,,,,,,,,,,,,,,,,,,,,,,,,,
,,,,,,5da98e800f35db00176e5aca,62c5390ab2daef25d43cd7df,2022-07-06_09h26.23.443,Colour_Asymmetry_Pilot,2022.1.3,Win32,165.2073352,62c50e9c1127f2cd403a315f,0,117,117,2,1,twoone,,,,,,,,,,,,,,,,,,,,,,,,,,,,,,,,,,,,,,,,,,,,,,,,,,,,,,,,,,,,,,,,,,,,,,,,,,,,,,,,,,,,,,,,,,,,,,,,,,,,,,,,,,,,,,,,,,,,,,,,,,,,,,,,,,,,,,,,,,,,,,,,,,,,,,,,,,,,,
,,,,,,5da98e800f35db00176e5aca,62c5390ab2daef25d43cd7df,2022-07-06_09h26.23.443,Colour_Asymmetry_Pilot,2022.1.3,Win32,165.2073352,62c50e9c1127f2cd403a315f,0,118,118,161,1,onethree,,,,,,,,,,,,,,,,,,,,,,,,,,,,,,,,,,,,,,,,,,,,,,,,,,,,,,,,,,,,,,,,,,,,,,,,,,,,,,,,,,,,,,,,,,,,,,,,,,,,,,,,,,,,,,,,,,,,,,,,,,,,,,,,,,,,,,,,,,,,,,,,,,,,,,,,,,,,,
,,,,,,5da98e800f35db00176e5aca,62c5390ab2daef25d43cd7df,2022-07-06_09h26.23.443,Colour_Asymmetry_Pilot,2022.1.3,Win32,165.2073352,62c50e9c1127f2cd403a315f,0,119,119,4,1,threeone,,,,,,,,,,,,,,,,,,,,,,,,,,,,,,,,,,,,,,,,,,,,,,,,,,,,,,,,,,,,,,,,,,,,,,,,,,,,,,,,,,,,,,,,,,,,,,,,,,,,,,,,,,,,,,,,,,,,,,,,,,,,,,,,,,,,,,,,,,,,,,,,,,,,,,,,,,,,,
,,,,,,5da98e800f35db00176e5aca,62c5390ab2daef25d43cd7df,2022-07-06_09h26.23.443,Colour_Asymmetry_Pilot,2022.1.3,Win32,165.2073352,62c50e9c1127f2cd403a315f,0,120,120,14,1,fourtwo,,,,,,,,,,,,,,,,,,,,,,,,,,,,,,,,,,,,,,,,,,,,,,,,,,,,,,,,,,,,,,,,,,,,,,,,,,,,,,,,,,,,,,,,,,,,,,,,,,,,,,,,,,,,,,,,,,,,,,,,,,,,,,,,,,,,,,,,,,,,,,,,,,,,,,,,,,,,,
,,,,,,5da98e800f35db00176e5aca,62c5390ab2daef25d43cd7df,2022-07-06_09h26.23.443,Colour_Asymmetry_Pilot,2022.1.3,Win32,165.2073352,62c50e9c1127f2cd403a315f,0,121,121,85,1,threefour,,,,,,,,,,,,,,,,,,,,,,,,,,,,,,,,,,,,,,,,,,,,,,,,,,,,,,,,,,,,,,,,,,,,,,,,,,,,,,,,,,,,,,,,,,,,,,,,,,,,,,,,,,,,,,,,,,,,,,,,,,,,,,,,,,,,,,,,,,,,,,,,,,,,,,,,,,,,,
,,,,,,5da98e800f35db00176e5aca,62c5390ab2daef25d43cd7df,2022-07-06_09h26.23.443,Colour_Asymmetry_Pilot,2022.1.3,Win32,165.2073352,62c50e9c1127f2cd403a315f,0,122,122,37,1,threefour,,,,,,,,,,,,,,,,,,,,,,,,,,,,,,,,,,,,,,,,,,,,,,,,,,,,,,,,,,,,,,,,,,,,,,,,,,,,,,,,,,,,,,,,,,,,,,,,,,,,,,,,,,,,,,,,,,,,,,,,,,,,,,,,,,,,,,,,,,,,,,,,,,,,,,,,,,,,,
,,,,,,5da98e800f35db00176e5aca,62c5390ab2daef25d43cd7df,2022-07-06_09h26.23.443,Colour_Asymmetry_Pilot,2022.1.3,Win32,165.2073352,62c50e9c1127f2cd403a315f,0,123,123,15,1,fourthree,,,,,,,,,,,,,,,,,,,,,,,,,,,,,,,,,,,,,,,,,,,,,,,,,,,,,,,,,,,,,,,,,,,,,,,,,,,,,,,,,,,,,,,,,,,,,,,,,,,,,,,,,,,,,,,,,,,,,,,,,,,,,,,,,,,,,,,,,,,,,,,,,,,,,,,,,,,,,
,,,,,,5da98e800f35db00176e5aca,62c5390ab2daef25d43cd7df,2022-07-06_09h26.23.443,Colour_Asymmetry_Pilot,2022.1.3,Win32,165.2073352,62c50e9c1127f2cd403a315f,0,124,124,99,1,twofour,,,,,,,,,,,,,,,,,,,,,,,,,,,,,,,,,,,,,,,,,,,,,,,,,,,,,,,,,,,,,,,,,,,,,,,,,,,,,,,,,,,,,,,,,,,,,,,,,,,,,,,,,,,,,,,,,,,,,,,,,,,,,,,,,,,,,,,,,,,,,,,,,,,,,,,,,,,,,
,,,,,,5da98e800f35db00176e5aca,62c5390ab2daef25d43cd7df,2022-07-06_09h26.23.443,Colour_Asymmetry_Pilot,2022.1.3,Win32,165.2073352,62c50e9c1127f2cd403a315f,0,125,125,21,1,threefour,,,,,,,,,,,,,,,,,,,,,,,,,,,,,,,,,,,,,,,,,,,,,,,,,,,,,,,,,,,,,,,,,,,,,,,,,,,,,,,,,,,,,,,,,,,,,,,,,,,,,,,,,,,,,,,,,,,,,,,,,,,,,,,,,,,,,,,,,,,,,,,,,,,,,,,,,,,,,
,,,,,,5da98e800f35db00176e5aca,62c5390ab2daef25d43cd7df,2022-07-06_09h26.23.443,Colour_Asymmetry_Pilot,2022.1.3,Win32,165.2073352,62c50e9c1127f2cd403a315f,0,126,126,24,1,onetwo,,,,,,,,,,,,,,,,,,,,,,,,,,,,,,,,,,,,,,,,,,,,,,,,,,,,,,,,,,,,,,,,,,,,,,,,,,,,,,,,,,,,,,,,,,,,,,,,,,,,,,,,,,,,,,,,,,,,,,,,,,,,,,,,,,,,,,,,,,,,,,,,,,,,,,,,,,,,,
,,,,,,5da98e800f35db00176e5aca,62c5390ab2daef25d43cd7df,2022-07-06_09h26.23.443,Colour_Asymmetry_Pilot,2022.1.3,Win32,165.2073352,62c50e9c1127f2cd403a315f,0,127,127,75,1,twofour,,,,,,,,,,,,,,,,,,,,,,,,,,,,,,,,,,,,,,,,,,,,,,,,,,,,,,,,,,,,,,,,,,,,,,,,,,,,,,,,,,,,,,,,,,,,,,,,,,,,,,,,,,,,,,,,,,,,,,,,,,,,,,,,,,,,,,,,,,,,,,,,,,,,,,,,,,,,,
,,,,,,5da98e800f35db00176e5aca,62c5390ab2daef25d43cd7df,2022-07-06_09h26.23.443,Colour_Asymmetry_Pilot,2022.1.3,Win32,165.2073352,62c50e9c1127f2cd403a315f,0,128,128,132,1,threeone,,,,,,,,,,,,,,,,,,,,,,,,,,,,,,,,,,,,,,,,,,,,,,,,,,,,,,,,,,,,,,,,,,,,,,,,,,,,,,,,,,,,,,,,,,,,,,,,,,,,,,,,,,,,,,,,,,,,,,,,,,,,,,,,,,,,,,,,,,,,,,,,,,,,,,,,,,,,,
,,,,,,5da98e800f35db00176e5aca,62c5390ab2daef25d43cd7df,2022-07-06_09h26.23.443,Colour_Asymmetry_Pilot,2022.1.3,Win32,165.2073352,62c50e9c1127f2cd403a315f,0,129,129,59,1,twofour,,,,,,,,,,,,,,,,,,,,,,,,,,,,,,,,,,,,,,,,,,,,,,,,,,,,,,,,,,,,,,,,,,,,,,,,,,,,,,,,,,,,,,,,,,,,,,,,,,,,,,,,,,,,,,,,,,,,,,,,,,,,,,,,,,,,,,,,,,,,,,,,,,,,,,,,,,,,,
,,,,,,5da98e800f35db00176e5aca,62c5390ab2daef25d43cd7df,2022-07-06_09h26.23.443,Colour_Asymmetry_Pilot,2022.1.3,Win32,165.2073352,62c50e9c1127f2cd403a315f,0,130,130,17,1,onethree,,,,,,,,,,,,,,,,,,,,,,,,,,,,,,,,,,,,,,,,,,,,,,,,,,,,,,,,,,,,,,,,,,,,,,,,,,,,,,,,,,,,,,,,,,,,,,,,,,,,,,,,,,,,,,,,,,,,,,,,,,,,,,,,,,,,,,,,,,,,,,,,,,,,,,,,,,,,,
,,,,,,5da98e800f35db00176e5aca,62c5390ab2daef25d43cd7df,2022-07-06_09h26.23.443,Colour_Asymmetry_Pilot,2022.1.3,Win32,165.2073352,62c50e9c1127f2cd403a315f,0,131,131,115,1,twofour,,,,,,,,,,,,,,,,,,,,,,,,,,,,,,,,,,,,,,,,,,,,,,,,,,,,,,,,,,,,,,,,,,,,,,,,,,,,,,,,,,,,,,,,,,,,,,,,,,,,,,,,,,,,,,,,,,,,,,,,,,,,,,,,,,,,,,,,,,,,,,,,,,,,,,,,,,,,,
,,,,,,5da98e800f35db00176e5aca,62c5390ab2daef25d43cd7df,2022-07-06_09h26.23.443,Colour_Asymmetry_Pilot,2022.1.3,Win32,165.2073352,62c50e9c1127f2cd403a315f,0,132,132,64,1,onetwo,,,,,,,,,,,,,,,,,,,,,,,,,,,,,,,,,,,,,,,,,,,,,,,,,,,,,,,,,,,,,,,,,,,,,,,,,,,,,,,,,,,,,,,,,,,,,,,,,,,,,,,,,,,,,,,,,,,,,,,,,,,,,,,,,,,,,,,,,,,,,,,,,,,,,,,,,,,,,
,,,,,,5da98e800f35db00176e5aca,62c5390ab2daef25d43cd7df,2022-07-06_09h26.23.443,Colour_Asymmetry_Pilot,2022.1.3,Win32,165.2073352,62c50e9c1127f2cd403a315f,0,133,133,62,1,fourtwo,,,,,,,,,,,,,,,,,,,,,,,,,,,,,,,,,,,,,,,,,,,,,,,,,,,,,,,,,,,,,,,,,,,,,,,,,,,,,,,,,,,,,,,,,,,,,,,,,,,,,,,,,,,,,,,,,,,,,,,,,,,,,,,,,,,,,,,,,,,,,,,,,,,,,,,,,,,,,
,,,,,,5da98e800f35db00176e5aca,62c5390ab2daef25d43cd7df,2022-07-06_09h26.23.443,Colour_Asymmetry_Pilot,2022.1.3,Win32,165.2073352,62c50e9c1127f2cd403a315f,0,134,134,56,1,onetwo,,,,,,,,,,,,,,,,,,,,,,,,,,,,,,,,,,,,,,,,,,,,,,,,,,,,,,,,,,,,,,,,,,,,,,,,,,,,,,,,,,,,,,,,,,,,,,,,,,,,,,,,,,,,,,,,,,,,,,,,,,,,,,,,,,,,,,,,,,,,,,,,,,,,,,,,,,,,,
,,,,,,5da98e800f35db00176e5aca,62c5390ab2daef25d43cd7df,2022-07-06_09h26.23.443,Colour_Asymmetry_Pilot,2022.1.3,Win32,165.2073352,62c50e9c1127f2cd403a315f,0,135,135,155,1,twofour,,,,,,,,,,,,,,,,,,,,,,,,,,,,,,,,,,,,,,,,,,,,,,,,,,,,,,,,,,,,,,,,,,,,,,,,,,,,,,,,,,,,,,,,,,,,,,,,,,,,,,,,,,,,,,,,,,,,,,,,,,,,,,,,,,,,,,,,,,,,,,,,,,,,,,,,,,,,,
,,,,,,5da98e800f35db00176e5aca,62c5390ab2daef25d43cd7df,2022-07-06_09h26.23.443,Colour_Asymmetry_Pilot,2022.1.3,Win32,165.2073352,62c50e9c1127f2cd403a315f,0,136,136,77,1,threefour,,,,,,,,,,,,,,,,,,,,,,,,,,,,,,,,,,,,,,,,,,,,,,,,,,,,,,,,,,,,,,,,,,,,,,,,,,,,,,,,,,,,,,,,,,,,,,,,,,,,,,,,,,,,,,,,,,,,,,,,,,,,,,,,,,,,,,,,,,,,,,,,,,,,,,,,,,,,,
,,,,,,5da98e800f35db00176e5aca,62c5390ab2daef25d43cd7df,2022-07-06_09h26.23.443,Colour_Asymmetry_Pilot,2022.1.3,Win32,165.2073352,62c50e9c1127f2cd403a315f,0,137,137,23,1,fourthree,,,,,,,,,,,,,,,,,,,,,,,,,,,,,,,,,,,,,,,,,,,,,,,,,,,,,,,,,,,,,,,,,,,,,,,,,,,,,,,,,,,,,,,,,,,,,,,,,,,,,,,,,,,,,,,,,,,,,,,,,,,,,,,,,,,,,,,,,,,,,,,,,,,,,,,,,,,,,
,,,,,,5da98e800f35db00176e5aca,62c5390ab2daef25d43cd7df,2022-07-06_09h26.23.443,Colour_Asymmetry_Pilot,2022.1.3,Win32,165.2073352,62c50e9c1127f2cd403a315f,0,138,138,1,1,onethree,,,,,,,,,,,,,,,,,,,,,,,,,,,,,,,,,,,,,,,,,,,,,,,,,,,,,,,,,,,,,,,,,,,,,,,,,,,,,,,,,,,,,,,,,,,,,,,,,,,,,,,,,,,,,,,,,,,,,,,,,,,,,,,,,,,,,,,,,,,,,,,,,,,,,,,,,,,,,
,,,,,,5da98e800f35db00176e5aca,62c5390ab2daef25d43cd7df,2022-07-06_09h26.23.443,Colour_Asymmetry_Pilot,2022.1.3,Win32,165.2073352,62c50e9c1127f2cd403a315f,0,139,139,86,1,fourtwo,,,,,,,,,,,,,,,,,,,,,,,,,,,,,,,,,,,,,,,,,,,,,,,,,,,,,,,,,,,,,,,,,,,,,,,,,,,,,,,,,,,,,,,,,,,,,,,,,,,,,,,,,,,,,,,,,,,,,,,,,,,,,,,,,,,,,,,,,,,,,,,,,,,,,,,,,,,,,
,,,,,,5da98e800f35db00176e5aca,62c5390ab2daef25d43cd7df,2022-07-06_09h26.23.443,Colour_Asymmetry_Pilot,2022.1.3,Win32,165.2073352,62c50e9c1127f2cd403a315f,0,140,140,134,1,fourtwo,,,,,,,,,,,,,,,,,,,,,,,,,,,,,,,,,,,,,,,,,,,,,,,,,,,,,,,,,,,,,,,,,,,,,,,,,,,,,,,,,,,,,,,,,,,,,,,,,,,,,,,,,,,,,,,,,,,,,,,,,,,,,,,,,,,,,,,,,,,,,,,,,,,,,,,,,,,,,
,,,,,,5da98e800f35db00176e5aca,62c5390ab2daef25d43cd7df,2022-07-06_09h26.23.443,Colour_Asymmetry_Pilot,2022.1.3,Win32,165.2073352,62c50e9c1127f2cd403a315f,0,141,141,39,1,fourthree,,,,,,,,,,,,,,,,,,,,,,,,,,,,,,,,,,,,,,,,,,,,,,,,,,,,,,,,,,,,,,,,,,,,,,,,,,,,,,,,,,,,,,,,,,,,,,,,,,,,,,,,,,,,,,,,,,,,,,,,,,,,,,,,,,,,,,,,,,,,,,,,,,,,,,,,,,,,,
,,,,,,5da98e800f35db00176e5aca,62c5390ab2daef25d43cd7df,2022-07-06_09h26.23.443,Colour_Asymmetry_Pilot,2022.1.3,Win32,165.2073352,62c50e9c1127f2cd403a315f,0,142,142,42,1,twoone,,,,,,,,,,,,,,,,,,,,,,,,,,,,,,,,,,,,,,,,,,,,,,,,,,,,,,,,,,,,,,,,,,,,,,,,,,,,,,,,,,,,,,,,,,,,,,,,,,,,,,,,,,,,,,,,,,,,,,,,,,,,,,,,,,,,,,,,,,,,,,,,,,,,,,,,,,,,,
,,,,,,5da98e800f35db00176e5aca,62c5390ab2daef25d43cd7df,2022-07-06_09h26.23.443,Colour_Asymmetry_Pilot,2022.1.3,Win32,165.2073352,62c50e9c1127f2cd403a315f,0,143,143,126,1,fourtwo,,,,,,,,,,,,,,,,,,,,,,,,,,,,,,,,,,,,,,,,,,,,,,,,,,,,,,,,,,,,,,,,,,,,,,,,,,,,,,,,,,,,,,,,,,,,,,,,,,,,,,,,,,,,,,,,,,,,,,,,,,,,,,,,,,,,,,,,,,,,,,,,,,,,,,,,,,,,,
,,,,,,5da98e800f35db00176e5aca,62c5390ab2daef25d43cd7df,2022-07-06_09h26.23.443,Colour_Asymmetry_Pilot,2022.1.3,Win32,165.2073352,62c50e9c1127f2cd403a315f,0,144,144,5,1,threefour,,,,,,,,,,,,,,,,,,,,,,,,,,,,,,,,,,,,,,,,,,,,,,,,,,,,,,,,,,,,,,,,,,,,,,,,,,,,,,,,,,,,,,,,,,,,,,,,,,,,,,,,,,,,,,,,,,,,,,,,,,,,,,,,,,,,,,,,,,,,,,,,,,,,,,,,,,,,,
,,,,,,5da98e800f35db00176e5aca,62c5390ab2daef25d43cd7df,2022-07-06_09h26.23.443,Colour_Asymmetry_Pilot,2022.1.3,Win32,165.2073352,62c50e9c1127f2cd403a315f,0,145,145,109,1,threefour,,,,,,,,,,,,,,,,,,,,,,,,,,,,,,,,,,,,,,,,,,,,,,,,,,,,,,,,,,,,,,,,,,,,,,,,,,,,,,,,,,,,,,,,,,,,,,,,,,,,,,,,,,,,,,,,,,,,,,,,,,,,,,,,,,,,,,,,,,,,,,,,,,,,,,,,,,,,,
,,,,,,5da98e800f35db00176e5aca,62c5390ab2daef25d43cd7df,2022-07-06_09h26.23.443,Colour_Asymmetry_Pilot,2022.1.3,Win32,165.2073352,62c50e9c1127f2cd403a315f,0,146,146,104,1,onetwo,,,,,,,,,,,,,,,,,,,,,,,,,,,,,,,,,,,,,,,,,,,,,,,,,,,,,,,,,,,,,,,,,,,,,,,,,,,,,,,,,,,,,,,,,,,,,,,,,,,,,,,,,,,,,,,,,,,,,,,,,,,,,,,,,,,,,,,,,,,,,,,,,,,,,,,,,,,,,
,,,,,,5da98e800f35db00176e5aca,62c5390ab2daef25d43cd7df,2022-07-06_09h26.23.443,Colour_Asymmetry_Pilot,2022.1.3,Win32,165.2073352,62c50e9c1127f2cd403a315f,0,147,147,53,1,threefour,,,,,,,,,,,,,,,,,,,,,,,,,,,,,,,,,,,,,,,,,,,,,,,,,,,,,,,,,,,,,,,,,,,,,,,,,,,,,,,,,,,,,,,,,,,,,,,,,,,,,,,,,,,,,,,,,,,,,,,,,,,,,,,,,,,,,,,,,,,,,,,,,,,,,,,,,,,,,
,,,,,,5da98e800f35db00176e5aca,62c5390ab2daef25d43cd7df,2022-07-06_09h26.23.443,Colour_Asymmetry_Pilot,2022.1.3,Win32,165.2073352,62c50e9c1127f2cd403a315f,0,148,148,54,1,fourtwo,,,,,,,,,,,,,,,,,,,,,,,,,,,,,,,,,,,,,,,,,,,,,,,,,,,,,,,,,,,,,,,,,,,,,,,,,,,,,,,,,,,,,,,,,,,,,,,,,,,,,,,,,,,,,,,,,,,,,,,,,,,,,,,,,,,,,,,,,,,,,,,,,,,,,,,,,,,,,
,,,,,,5da98e800f35db00176e5aca,62c5390ab2daef25d43cd7df,2022-07-06_09h26.23.443,Colour_Asymmetry_Pilot,2022.1.3,Win32,165.2073352,62c50e9c1127f2cd403a315f,0,149,149,27,1,twofour,,,,,,,,,,,,,,,,,,,,,,,,,,,,,,,,,,,,,,,,,,,,,,,,,,,,,,,,,,,,,,,,,,,,,,,,,,,,,,,,,,,,,,,,,,,,,,,,,,,,,,,,,,,,,,,,,,,,,,,,,,,,,,,,,,,,,,,,,,,,,,,,,,,,,,,,,,,,,
,,,,,,5da98e800f35db00176e5aca,62c5390ab2daef25d43cd7df,2022-07-06_09h26.23.443,Colour_Asymmetry_Pilot,2022.1.3,Win32,165.2073352,62c50e9c1127f2cd403a315f,0,150,150,145,1,onethree,,,,,,,,,,,,,,,,,,,,,,,,,,,,,,,,,,,,,,,,,,,,,,,,,,,,,,,,,,,,,,,,,,,,,,,,,,,,,,,,,,,,,,,,,,,,,,,,,,,,,,,,,,,,,,,,,,,,,,,,,,,,,,,,,,,,,,,,,,,,,,,,,,,,,,,,,,,,,
,,,,,,5da98e800f35db00176e5aca,62c5390ab2daef25d43cd7df,2022-07-06_09h26.23.443,Colour_Asymmetry_Pilot,2022.1.3,Win32,165.2073352,62c50e9c1127f2cd403a315f,0,151,151,44,1,threeone,,,,,,,,,,,,,,,,,,,,,,,,,,,,,,,,,,,,,,,,,,,,,,,,,,,,,,,,,,,,,,,,,,,,,,,,,,,,,,,,,,,,,,,,,,,,,,,,,,,,,,,,,,,,,,,,,,,,,,,,,,,,,,,,,,,,,,,,,,,,,,,,,,,,,,,,,,,,,
,,,,,,5da98e800f35db00176e5aca,62c5390ab2daef25d43cd7df,2022-07-06_09h26.23.443,Colour_Asymmetry_Pilot,2022.1.3,Win32,165.2073352,62c50e9c1127f2cd403a315f,0,152,152,72,1,onetwo,,,,,,,,,,,,,,,,,,,,,,,,,,,,,,,,,,,,,,,,,,,,,,,,,,,,,,,,,,,,,,,,,,,,,,,,,,,,,,,,,,,,,,,,,,,,,,,,,,,,,,,,,,,,,,,,,,,,,,,,,,,,,,,,,,,,,,,,,,,,,,,,,,,,,,,,,,,,,
,,,,,,5da98e800f35db00176e5aca,62c5390ab2daef25d43cd7df,2022-07-06_09h26.23.443,Colour_Asymmetry_Pilot,2022.1.3,Win32,165.2073352,62c50e9c1127f2cd403a315f,0,153,153,89,1,onethree,,,,,,,,,,,,,,,,,,,,,,,,,,,,,,,,,,,,,,,,,,,,,,,,,,,,,,,,,,,,,,,,,,,,,,,,,,,,,,,,,,,,,,,,,,,,,,,,,,,,,,,,,,,,,,,,,,,,,,,,,,,,,,,,,,,,,,,,,,,,,,,,,,,,,,,,,,,,,
,,,,,,5da98e800f35db00176e5aca,62c5390ab2daef25d43cd7df,2022-07-06_09h26.23.443,Colour_Asymmetry_Pilot,2022.1.3,Win32,165.2073352,62c50e9c1127f2cd403a315f,0,154,154,129,1,onethree,,,,,,,,,,,,,,,,,,,,,,,,,,,,,,,,,,,,,,,,,,,,,,,,,,,,,,,,,,,,,,,,,,,,,,,,,,,,,,,,,,,,,,,,,,,,,,,,,,,,,,,,,,,,,,,,,,,,,,,,,,,,,,,,,,,,,,,,,,,,,,,,,,,,,,,,,,,,,
,,,,,,5da98e800f35db00176e5aca,62c5390ab2daef25d43cd7df,2022-07-06_09h26.23.443,Colour_Asymmetry_Pilot,2022.1.3,Win32,165.2073352,62c50e9c1127f2cd403a315f,0,155,155,117,1,threefour,,,,,,,,,,,,,,,,,,,,,,,,,,,,,,,,,,,,,,,,,,,,,,,,,,,,,,,,,,,,,,,,,,,,,,,,,,,,,,,,,,,,,,,,,,,,,,,,,,,,,,,,,,,,,,,,,,,,,,,,,,,,,,,,,,,,,,,,,,,,,,,,,,,,,,,,,,,,,
,,,,,,5da98e800f35db00176e5aca,62c5390ab2daef25d43cd7df,2022-07-06_09h26.23.443,Colour_Asymmetry_Pilot,2022.1.3,Win32,165.2073352,62c50e9c1127f2cd403a315f,0,156,156,61,1,threefour,,,,,,,,,,,,,,,,,,,,,,,,,,,,,,,,,,,,,,,,,,,,,,,,,,,,,,,,,,,,,,,,,,,,,,,,,,,,,,,,,,,,,,,,,,,,,,,,,,,,,,,,,,,,,,,,,,,,,,,,,,,,,,,,,,,,,,,,,,,,,,,,,,,,,,,,,,,,,
,,,,,,5da98e800f35db00176e5aca,62c5390ab2daef25d43cd7df,2022-07-06_09h26.23.443,Colour_Asymmetry_Pilot,2022.1.3,Win32,165.2073352,62c50e9c1127f2cd403a315f,0,157,157,79,1,fourthree,,,,,,,,,,,,,,,,,,,,,,,,,,,,,,,,,,,,,,,,,,,,,,,,,,,,,,,,,,,,,,,,,,,,,,,,,,,,,,,,,,,,,,,,,,,,,,,,,,,,,,,,,,,,,,,,,,,,,,,,,,,,,,,,,,,,,,,,,,,,,,,,,,,,,,,,,,,,,
,,,,,,5da98e800f35db00176e5aca,62c5390ab2daef25d43cd7df,2022-07-06_09h26.23.443,Colour_Asymmetry_Pilot,2022.1.3,Win32,165.2073352,62c50e9c1127f2cd403a315f,0,158,158,103,1,fourthree,,,,,,,,,,,,,,,,,,,,,,,,,,,,,,,,,,,,,,,,,,,,,,,,,,,,,,,,,,,,,,,,,,,,,,,,,,,,,,,,,,,,,,,,,,,,,,,,,,,,,,,,,,,,,,,,,,,,,,,,,,,,,,,,,,,,,,,,,,,,,,,,,,,,,,,,,,,,,
,,,,,,5da98e800f35db00176e5aca,62c5390ab2daef25d43cd7df,2022-07-06_09h26.23.443,Colour_Asymmetry_Pilot,2022.1.3,Win32,165.2073352,62c50e9c1127f2cd403a315f,0,159,159,135,1,fourthree,,,,,,,,,,,,,,,,,,,,,,,,,,,,,,,,,,,,,,,,,,,,,,,,,,,,,,,,,,,,,,,,,,,,,,,,,,,,,,,,,,,,,,,,,,,,,,,,,,,,,,,,,,,,,,,,,,,,,,,,,,,,,,,,,,,,,,,,,,,,,,,,,,,,,,,,,,,,,
,,,,,,5da98e800f35db00176e5aca,62c5390ab2daef25d43cd7df,2022-07-06_09h26.23.443,Colour_Asymmetry_Pilot,2022.1.3,Win32,165.2073352,62c50e9c1127f2cd403a315f,0,160,160,10,1,twoone,,,,,,,,,,,,,,,,,,,,,,,,,,,,,,,,,,,,,,,,,,,,,,,,,,,,,,,,,,,,,,,,,,,,,,,,,,,,,,,,,,,,,,,,,,,,,,,,,,,,,,,,,,,,,,,,,,,,,,,,,,,,,,,,,,,,,,,,,,,,,,,,,,,,,,,,,,,,,
,,,,,,5da98e800f35db00176e5aca,62c5390ab2daef25d43cd7df,2022-07-06_09h26.23.443,Colour_Asymmetry_Pilot,2022.1.3,Win32,165.2073352,62c50e9c1127f2cd403a315f,0,161,161,136,1,onetwo,,,,,,,,,,,,,,,,,,,,,,,,,,,,,,,,,,,,,,,,,,,,,,,,,,,,,,,,,,,,,,,,,,,,,,,,,,,,,,,,,,,,,,,,,,,,,,,,,,,,,,,,,,,,,,,,,,,,,,,,,,,,,,,,,,,,,,,,,,,,,,,,,,,,,,,,,,,,,
,,,,,,5da98e800f35db00176e5aca,62c5390ab2daef25d43cd7df,2022-07-06_09h26.23.443,Colour_Asymmetry_Pilot,2022.1.3,Win32,165.2073352,62c50e9c1127f2cd403a315f,,,,,,,space,3.2098,space,10.1618,space,68.1806,space,16.1749,space,5.4002,space,5.5006,"[-0.30200000000000005,0.14500000000000002,0.2784]",onethree,"[0.0351999999999999,0.41159999999999997,0.0038000000000000256]",-3,9.4569,-102.166626,49.33331299,1,0,0,response7disk_5,-18.83331299,-2,1,0,0,rectangle_8,101.833374,-55.33337402,1,0,0,response3disk_7,5,2,-13.5,-2.666687012,1,0,0,rectangle_4,0,0,0,0,1,,,,,,,,,,,,,,,,,,,,,,,,,,,,,,,,,,,,,,,,,,,,,,,,,,,,,,,,,,,,,,,,,,,,,,,,,,,,,,,,,,,,,,,,,,,,,,,,,,,,,,,,,,,,,
,,,,,,5da98e800f35db00176e5aca,62c5390ab2daef25d43cd7df,2022-07-06_09h26.23.443,Colour_Asymmetry_Pilot,2022.1.3,Win32,165.2073352,62c50e9c1127f2cd403a315f,,,,,,,,,,,,,,,,,,,"[-0.9688,-0.4902000000000001,-0.12159999999999993]",twoone,"[-0.26280000000000003,-0.4746,-0.2158]",-3,4.1092,-92.16662598,32,1,0,0,response7disk_5,-20.83331299,-4,1,0,0,rectangle_8,-20.83331299,-4,1,0,0,,,2,-20.83331299,-4,1,0,0,,1,0,1,0,1,,,,,,,,,,,,,,,,,,,,,,,,,,,,,,,,,,,,,,,,,,,,,,,,,,,,,,,,,,,,,,,,,,,,,,,,,,,,,,,,,,,,,,,,,,,,,,,,,,,,,,,,,,,,,
,,,,,,5da98e800f35db00176e5aca,62c5390ab2daef25d43cd7df,2022-07-06_09h26.23.443,Colour_Asymmetry_Pilot,2022.1.3,Win32,165.2073352,62c50e9c1127f2cd403a315f,,,,,,,,,,,,,,,,,,,"[-0.9688,-0.4902000000000001,-0.12159999999999993]",onethree,"[-0.9138,-0.5296000000000001,-0.5529999999999999]",-2,1.9819,-73.5,-54,1,0,0,response5disk_5,9.166687012,-10,1,0,0,rectangle_8,9.166687012,-10,1,0,0,,,2,9.166687012,-10,1,0,0,,2,0,2,0,1,,,,,,,,,,,,,,,,,,,,,,,,,,,,,,,,,,,,,,,,,,,,,,,,,,,,,,,,,,,,,,,,,,,,,,,,,,,,,,,,,,,,,,,,,,,,,,,,,,,,,,,,,,,,,
,,,,,,5da98e800f35db00176e5aca,62c5390ab2daef25d43cd7df,2022-07-06_09h26.23.443,Colour_Asymmetry_Pilot,2022.1.3,Win32,165.2073352,62c50e9c1127f2cd403a315f,,,,,,,,,,,,,,,,,,,"[-0.20799999999999996,-0.655,-0.01980000000000004]",threefour,"[0.7018,0.7176,0.6155999999999999]",-4,1.0606,-55.5,119.333313,1,0,0,response7disk_5,-7.5,0.666656494,1,0,0,rectangle_8,-7.5,0.666656494,1,0,0,,,2,-7.5,0.666656494,1,0,0,,3,0,3,0,1,,,,,,,,,,,,,,,,,,,,,,,,,,,,,,,,,,,,,,,,,,,,,,,,,,,,,,,,,,,,,,,,,,,,,,,,,,,,,,,,,,,,,,,,,,,,,,,,,,,,,,,,,,,,,
,,,,,,5da98e800f35db00176e5aca,62c5390ab2daef25d43cd7df,2022-07-06_09h26.23.443,Colour_Asymmetry_Pilot,2022.1.3,Win32,165.2073352,62c50e9c1127f2cd403a315f,,,,,,,,,,,,,,,,,,,"[-0.9138,-0.5296000000000001,-0.5529999999999999]",fourthree,"[-0.4982,-0.2942,-0.0354000000000001]",-3,1.1515,-88.16662598,44.66665649,1,0,0,response7disk_5,-7.5,-3.333343506,1,0,0,rectangle_8,106.5,-52.66668701,1,0,0,response3disk_7,5,2,-2.833312988,4.666656494,1,0,0,rectangle_4,4,0,4,0,1,,,,,,,,,,,,,,,,,,,,,,,,,,,,,,,,,,,,,,,,,,,,,,,,,,,,,,,,,,,,,,,,,,,,,,,,,,,,,,,,,,,,,,,,,,,,,,,,,,,,,,,,,,,,,
,,,,,,5da98e800f35db00176e5aca,62c5390ab2daef25d43cd7df,2022-07-06_09h26.23.443,Colour_Asymmetry_Pilot,2022.1.3,Win32,165.2073352,62c50e9c1127f2cd403a315f,,,,,,,,,,,,,,,,,,,"[0.8274000000000001,-0.5844,-0.9452]",onetwo,"[0.3881999999999999,-0.23939999999999995,-0.05040000000000011]",1,3.9394,79.83337402,-142,1,0,0,response3disk_5,-3.5,-11.33334351,1,0,0,rectangle_8,-3.5,-11.33334351,1,0,0,,,2,-3.5,-11.33334351,1,0,0,,5,0,5,0,1,,,,,,,,,,,,,,,,,,,,,,,,,,,,,,,,,,,,,,,,,,,,,,,,,,,,,,,,,,,,,,,,,,,,,,,,,,,,,,,,,,,,,,,,,,,,,,,,,,,,,,,,,,,,,
,,,,,,5da98e800f35db00176e5aca,62c5390ab2daef25d43cd7df,2022-07-06_09h26.23.443,Colour_Asymmetry_Pilot,2022.1.3,Win32,165.2073352,62c50e9c1127f2cd403a315f,,,,,,,,,,,,,,,,,,,"[-0.09019999999999995,0.44300000000000006,0.5371999999999999]",onethree,"[0.23920000000000008,0.2704,0.16060000000000008]",-1,2.5756,-52.83331299,-89.33337402,1,0,0,response5disk_5,-2.166625977,2.666656494,1,0,0,rectangle_8,-2.166625977,2.666656494,1,0,0,,,2,-2.166625977,2.666656494,1,0,0,,6,0,6,0,1,,,,,,,,,,,,,,,,,,,,,,,,,,,,,,,,,,,,,,,,,,,,,,,,,,,,,,,,,,,,,,,,,,,,,,,,,,,,,,,,,,,,,,,,,,,,,,,,,,,,,,,,,,,,,
,,,,,,5da98e800f35db00176e5aca,62c5390ab2daef25d43cd7df,2022-07-06_09h26.23.443,Colour_Asymmetry_Pilot,2022.1.3,Win32,165.2073352,62c50e9c1127f2cd403a315f,,,,,,,,,,,,,,,,,,,,twofour,,1,6.2491,,,,,,,,,,,,,,,,,,,,,,,,,,,,,,,,space,10.1531,"[-0.09019999999999995,0.44300000000000006,0.5371999999999999]","[-0.9216,-0.5529999999999999,-0.3962]",43.83337402,-144,1,0,0,response3disk,-16.83331299,3.333312988,1,0,0,rectangle,128.5,-49.33337402,1,0,0,response3disk_3,2,2,1.721,1,2.5,4,1,0,0,rectangle,0,0,0,36,1,36,first,,,,,,,,,,,,,,,,,,,,,,,,,,,,,,,,,,,,,,,,,,,,,,,,,,,,,,,,,,,,,,,,,,,,,,
,,,,,,5da98e800f35db00176e5aca,62c5390ab2daef25d43cd7df,2022-07-06_09h26.23.443,Colour_Asymmetry_Pilot,2022.1.3,Win32,165.2073352,62c50e9c1127f2cd403a315f,,,,,,,,,,,,,,,,,,,,onethree,,1,2.4424,,,,,,,,,,,,,,,,,,,,,,,,,,,,,,,,,,"[-0.9138,-0.5296000000000001,-0.5529999999999999]","[-0.5452,-0.608,0.2470000000000001]",27.83337402,-133.333374,1,0,0,response3disk,-5.5,-2.666687012,1,0,0,rectangle,-5.5,-2.666687012,1,0,0,,2,1,0.0009,0,-5.5,-2.666687012,1,0,0,,0,1,1,132,1,51,second,,,,,,,,,,,,,,,,,,,,,,,,,,,,,,,,,,,,,,,,,,,,,,,,,,,,,,,,,,,,,,,,,,,,,,
,,,,,,5da98e800f35db00176e5aca,62c5390ab2daef25d43cd7df,2022-07-06_09h26.23.443,Colour_Asymmetry_Pilot,2022.1.3,Win32,165.2073352,62c50e9c1127f2cd403a315f,,,,,,,,,,,,,,,,,,,,threefour,,3,0.9757,,,,,,,,,,,,,,,,,,,,,,,,,,,,,,,,,,"[-0.9766,-0.34920000000000007,0.2156]","[-0.9688,-0.4902000000000001,-0.12159999999999993]",90.5,38,1,0,0,response1disk,-1.5,-1.333343506,1,0,0,rectangle,-1.5,-1.333343506,1,0,0,,2,3,0.0006,0,-1.5,-1.333343506,1,0,0,,0,2,2,17,1,17,first,,,,,,,,,,,,,,,,,,,,,,,,,,,,,,,,,,,,,,,,,,,,,,,,,,,,,,,,,,,,,,,,,,,,,,
,,,,,,5da98e800f35db00176e5aca,62c5390ab2daef25d43cd7df,2022-07-06_09h26.23.443,Colour_Asymmetry_Pilot,2022.1.3,Win32,165.2073352,62c50e9c1127f2cd403a315f,,,,,,,,,,,,,,,,,,,,fourtwo,,-3,1.4788,,,,,,,,,,,,,,,,,,,,,,,,,,,,,,,,,,"[-0.38039999999999996,-0.4276,-0.1452]","[-0.8198,-0.5138,-0.7492000000000001]",-98.83331299,26.66665649,1,0,0,response7disk,11.16668701,3.333312988,1,0,0,rectangle,11.16668701,3.333312988,1,0,0,,2,1,0.0005,0,11.16668701,3.333312988,1,0,0,,0,3,3,83,1,2,second,,,,,,,,,,,,,,,,,,,,,,,,,,,,,,,,,,,,,,,,,,,,,,,,,,,,,,,,,,,,,,,,,,,,,,
,,,,,,5da98e800f35db00176e5aca,62c5390ab2daef25d43cd7df,2022-07-06_09h26.23.443,Colour_Asymmetry_Pilot,2022.1.3,Win32,165.2073352,62c50e9c1127f2cd403a315f,,,,,,,,,,,,,,,,,,,,onethree,,-4,0.7757,,,,,,,,,,,,,,,,,,,,,,,,,,,,,,,,,,"[0.3881999999999999,-0.23939999999999995,-0.05040000000000011]","[0.7018,0.7802,-0.16079999999999994]",-50.16662598,84.66665649,1,0,0,response7disk,0.5,-6.666687012,1,0,0,rectangle,0.5,-6.666687012,1,0,0,,2,3,0.0013,0,0.5,-6.666687012,1,0,0,,0,4,4,121,1,40,second,,,,,,,,,,,,,,,,,,,,,,,,,,,,,,,,,,,,,,,,,,,,,,,,,,,,,,,,,,,,,,,,,,,,,,
,,,,,,5da98e800f35db00176e5aca,62c5390ab2daef25d43cd7df,2022-07-06_09h26.23.443,Colour_Asymmetry_Pilot,2022.1.3,Win32,165.2073352,62c50e9c1127f2cd403a315f,,,,,,,,,,,,,,,,,,,,threeone,,1,1.7879,,,,,,,,,,,,,,,,,,,,,,,,,,,,,,,,,,"[0.7646000000000002,0.07440000000000002,0.2704]","[-0.4668,-0.8746,-0.2942]",23.16668701,-127.333374,1,0,0,response3disk,-3.5,-10.66668701,1,0,0,rectangle,-3.5,-10.66668701,1,0,0,,2,2,0.0006,0,-3.5,-10.66668701,1,0,0,,0,5,5,26,1,26,first,,,,,,,,,,,,,,,,,,,,,,,,,,,,,,,,,,,,,,,,,,,,,,,,,,,,,,,,,,,,,,,,,,,,,,
,,,,,,5da98e800f35db00176e5aca,62c5390ab2daef25d43cd7df,2022-07-06_09h26.23.443,Colour_Asymmetry_Pilot,2022.1.3,Win32,165.2073352,62c50e9c1127f2cd403a315f,,,,,,,,,,,,,,,,,,,,fourtwo,,-1,0.5212,,,,,,,,,,,,,,,,,,,,,,,,,,,,,,,,,,"[-0.5452,-0.608,0.2470000000000001]","[-0.9138,-0.5296000000000001,-0.5529999999999999]",-42.16662598,-148.666687,1,0,0,response5disk,19.16668701,4,1,0,0,rectangle,19.16668701,4,1,0,0,,2,2,0.0001,0,19.16668701,4,1,0,0,,0,6,6,51,1,51,first,,,,,,,,,,,,,,,,,,,,,,,,,,,,,,,,,,,,,,,,,,,,,,,,,,,,,,,,,,,,,,,,,,,,,,
,,,,,,5da98e800f35db00176e5aca,62c5390ab2daef25d43cd7df,2022-07-06_09h26.23.443,Colour_Asymmetry_Pilot,2022.1.3,Win32,165.2073352,62c50e9c1127f2cd403a315f,,,,,,,,,,,,,,,,,,,,twofour,,2,0.5272,,,,,,,,,,,,,,,,,,,,,,,,,,,,,,,,,,"[-0.17659999999999998,0.3253999999999999,0.19999999999999996]","[-0.30200000000000005,0.14500000000000002,0.2784]",112.5,-60.66668701,1,0,0,response3disk,-3.5,-8.666687012,1,0,0,rectangle,-3.5,-8.666687012,1,0,0,,2,2,0,0,-3.5,-8.666687012,1,0,0,,0,7,7,15,1,15,first,,,,,,,,,,,,,,,,,,,,,,,,,,,,,,,,,,,,,,,,,,,,,,,,,,,,,,,,,,,,,,,,,,,,,,
,,,,,,5da98e800f35db00176e5aca,62c5390ab2daef25d43cd7df,2022-07-06_09h26.23.443,Colour_Asymmetry_Pilot,2022.1.3,Win32,165.2073352,62c50e9c1127f2cd403a315f,,,,,,,,,,,,,,,,,,,,twofour,,-4,0.5214,,,,,,,,,,,,,,,,,,,,,,,,,,,,,,,,,,"[0.12939999999999996,-0.2864,0.3253999999999999]","[-0.07459999999999989,0.12139999999999995,-0.9922]",-55.5,94.66665649,1,0,0,response7disk,-3.5,-1.333343506,1,0,0,rectangle,-3.5,-1.333343506,1,0,0,,2,3,0.0004,0,-3.5,-1.333343506,1,0,0,,0,8,8,85,1,4,second,,,,,,,,,,,,,,,,,,,,,,,,,,,,,,,,,,,,,,,,,,,,,,,,,,,,,,,,,,,,,,,,,,,,,,
,,,,,,5da98e800f35db00176e5aca,62c5390ab2daef25d43cd7df,2022-07-06_09h26.23.443,Colour_Asymmetry_Pilot,2022.1.3,Win32,165.2073352,62c50e9c1127f2cd403a315f,,,,,,,,,,,,,,,,,,,,onethree,,-1,3.0789,,,,,,,,,,,,,,,,,,,,,,,,,,,,,,,,,,"[0.8274000000000001,-0.5844,-0.9452]","[0.37240000000000006,-0.050999999999999934,-0.5216]",-45.5,-116.666687,1,0,0,response5disk,16.5,-2,1,0,0,rectangle,16.5,-2,1,0,0,,2,3,9.99999E-05,0,16.5,-2,1,0,0,,0,9,9,68,1,68,first,,,,,,,,,,,,,,,,,,,,,,,,,,,,,,,,,,,,,,,,,,,,,,,,,,,,,,,,,,,,,,,,,,,,,,
,,,,,,5da98e800f35db00176e5aca,62c5390ab2daef25d43cd7df,2022-07-06_09h26.23.443,Colour_Asymmetry_Pilot,2022.1.3,Win32,165.2073352,62c50e9c1127f2cd403a315f,,,,,,,,,,,,,,,,,,,,threefour,,-4,0.5394,,,,,,,,,,,,,,,,,,,,,,,,,,,,,,,,,,"[0.30180000000000007,-0.7884,-0.9844]","[-0.4902000000000001,0.2704,-0.45899999999999996]",-35.5,94.66665649,1,0,0,response7disk,-2.166625977,-5.333343506,1,0,0,rectangle,-2.166625977,-5.333343506,1,0,0,,2,1,0.0005,0,-2.166625977,-5.333343506,1,0,0,,0,10,10,144,1,63,second,,,,,,,,,,,,,,,,,,,,,,,,,,,,,,,,,,,,,,,,,,,,,,,,,,,,,,,,,,,,,,,,,,,,,,
,,,,,,5da98e800f35db00176e5aca,62c5390ab2daef25d43cd7df,2022-07-06_09h26.23.443,Colour_Asymmetry_Pilot,2022.1.3,Win32,165.2073352,62c50e9c1127f2cd403a315f,,,,,,,,,,,,,,,,,,,,twofour,,-1,1.412,,,,,,,,,,,,,,,,,,,,,,,,,,,,,,,,,,"[-0.9296,-0.12959999999999994,-0.043199999999999905]","[-0.6706000000000001,-0.6157999999999999,-0.6786]",-40.16662598,-122.666687,1,0,0,response5disk,13.16668701,-16.66668701,1,0,0,rectangle,13.16668701,-16.66668701,1,0,0,,2,1,0,0,13.16668701,-16.66668701,1,0,0,,0,11,11,139,1,58,second,,,,,,,,,,,,,,,,,,,,,,,,,,,,,,,,,,,,,,,,,,,,,,,,,,,,,,,,,,,,,,,,,,,,,,
,,,,,,5da98e800f35db00176e5aca,62c5390ab2daef25d43cd7df,2022-07-06_09h26.23.443,Colour_Asymmetry_Pilot,2022.1.3,Win32,165.2073352,62c50e9c1127f2cd403a315f,,,,,,,,,,,,,,,,,,,,onetwo,,2,0.6667,,,,,,,,,,,,,,,,,,,,,,,,,,,,,,,,,,"[-0.4982,-0.2942,-0.0354000000000001]","[-0.8118,-0.8198,-0.5452]",77.16668701,-48.66668701,1,0,0,response3disk,0.5,-3.333343506,1,0,0,rectangle,0.5,-3.333343506,1,0,0,,2,3,0.0005,0,0.5,-3.333343506,1,0,0,,0,12,12,12,1,12,first,,,,,,,,,,,,,,,,,,,,,,,,,,,,,,,,,,,,,,,,,,,,,,,,,,,,,,,,,,,,,,,,,,,,,,
,,,,,,5da98e800f35db00176e5aca,62c5390ab2daef25d43cd7df,2022-07-06_09h26.23.443,Colour_Asymmetry_Pilot,2022.1.3,Win32,165.2073352,62c50e9c1127f2cd403a315f,,,,,,,,,,,,,,,,,,,,onetwo,,1,0.5091,,,,,,,,,,,,,,,,,,,,,,,,,,,,,,,,,,"[-0.07459999999999989,0.12139999999999995,-0.9922]","[-0.48240000000000005,0.3175999999999999,0.2156]",39.83337402,-148.666687,1,0,0,response3disk,-9.5,2.666656494,1,0,0,rectangle,-9.5,2.666656494,1,0,0,,2,2,0.0004,0,-9.5,2.666656494,1,0,0,,0,13,13,153,1,72,second,,,,,,,,,,,,,,,,,,,,,,,,,,,,,,,,,,,,,,,,,,,,,,,,,,,,,,,,,,,,,,,,,,,,,,
,,,,,,5da98e800f35db00176e5aca,62c5390ab2daef25d43cd7df,2022-07-06_09h26.23.443,Colour_Asymmetry_Pilot,2022.1.3,Win32,165.2073352,62c50e9c1127f2cd403a315f,,,,,,,,,,,,,,,,,,,,fourtwo,,-2,0.5334,,,,,,,,,,,,,,,,,,,,,,,,,,,,,,,,,,"[-0.7412000000000001,-0.08239999999999992,-0.6864]","[-0.4982,-0.2942,-0.0354000000000001]",-105.5,-62,1,0,0,response5disk,23.16668701,0,1,0,0,rectangle,23.16668701,0,1,0,0,,2,1,0.0007,0,23.16668701,0,1,0,0,,0,14,14,145,1,64,second,,,,,,,,,,,,,,,,,,,,,,,,,,,,,,,,,,,,,,,,,,,,,,,,,,,,,,,,,,,,,,,,,,,,,,
,,,,,,5da98e800f35db00176e5aca,62c5390ab2daef25d43cd7df,2022-07-06_09h26.23.443,Colour_Asymmetry_Pilot,2022.1.3,Win32,165.2073352,62c50e9c1127f2cd403a315f,,,,,,,,,,,,,,,,,,,,onethree,,3,0.5637,,,,,,,,,,,,,,,,,,,,,,,,,,,,,,,,,,"[-0.8118,-0.8198,-0.5452]","[-0.4982,-0.2942,-0.0354000000000001]",66.5,27.33331299,1,0,0,response1disk,2.5,0,1,0,0,rectangle,2.5,0,1,0,0,,2,3,0.0004,0,2.5,0,1,0,0,,0,15,15,93,1,12,second,,,,,,,,,,,,,,,,,,,,,,,,,,,,,,,,,,,,,,,,,,,,,,,,,,,,,,,,,,,,,,,,,,,,,,
