trials.thisRepN,trials.thisTrialN,trials.thisN,trials.thisIndex,trials.ran,Colourcodes,participant,session,date,expName,psychopyVersion,OS,frameRate,study_id,trials_4.thisRepN,trials_4.thisTrialN,trials_4.thisN,trials_4.thisIndex,trials_4.ran,StimulusPos,key_resp.keys,key_resp.rt,key_resp_2.keys,key_resp_2.rt,key_resp_15.keys,key_resp_15.rt,key_resp_17.keys,key_resp_17.rt,key_resp_9.keys,key_resp_9.rt,key_resp_10.keys,key_resp_10.rt,Circle1_col,Ecc,Circle2_col,similarity,response_time,mouse_5.x,mouse_5.y,mouse_5.leftButton,mouse_5.midButton,mouse_5.rightButton,mouse_5.clicked_name,mouse_10.x,mouse_10.y,mouse_10.leftButton,mouse_10.midButton,mouse_10.rightButton,mouse_10.clicked_name,mouse_7.x,mouse_7.y,mouse_7.leftButton,mouse_7.midButton,mouse_7.rightButton,catchnumberprac,mouse_6.x,mouse_6.y,mouse_6.leftButton,mouse_6.midButton,mouse_6.rightButton,duringprac.thisRepN,duringprac.thisTrialN,duringprac.thisN,duringprac.thisIndex,duringprac.ran,mouse_7.clicked_name,catchprac,mouse_6.clicked_name,key_resp_22.keys,key_resp_22.rt,Circle1_colour,Circle2_colour,mouse.x,mouse.y,mouse.leftButton,mouse.midButton,mouse.rightButton,mouse.clicked_name,mouse_2.x,mouse_2.y,mouse_2.leftButton,mouse_2.midButton,mouse_2.rightButton,mouse_2.clicked_name,mouse_3.x,mouse_3.y,mouse_3.leftButton,mouse_3.midButton,mouse_3.rightButton,catchresponse,catchnumber,response_time_catch,Catch,mouse_11.x,mouse_11.y,mouse_11.leftButton,mouse_11.midButton,mouse_11.rightButton,trials_2.thisRepN,trials_2.thisTrialN,trials_2.thisN,trials_2.thisIndex,trials_2.ran,Colourpair,Temporder,mouse_3.clicked_name,mouse_11.clicked_name,trials_3.thisRepN,trials_3.thisTrialN,trials_3.thisN,trials_3.thisIndex,trials_3.ran,key_resp_instr_Ishi.keys,key_resp_instr_Ishi.rt,Ishi_trial_keyresp.keys,Ishi_textbox.text,Ishi_mouse.x,Ishi_mouse.y,Ishi_mouse.leftButton,Ishi_mouse.midButton,Ishi_mouse.rightButton,Ishi_mouse.clicked_name,Ishi_loop.thisRepN,Ishi_loop.thisTrialN,Ishi_loop.thisN,Ishi_loop.thisIndex,Ishi_loop.ran,imageaddress,textbox.text,mouse_4.x,mouse_4.y,mouse_4.leftButton,mouse_4.midButton,mouse_4.rightButton,mouse_4.clicked_name,textbox_2.text,mouse_8.x,mouse_8.y,mouse_8.leftButton,mouse_8.midButton,mouse_8.rightButton,mouse_8.clicked_name,textbox_3.text,mouse_9.x,mouse_9.y,mouse_9.leftButton,mouse_9.midButton,mouse_9.rightButton,mouse_9.clicked_name,textbox_4.text,mouse_12.x,mouse_12.y,mouse_12.leftButton,mouse_12.midButton,mouse_12.rightButton,mouse_12.clicked_name,textbox_5.text,mouse_13.x,mouse_13.y,mouse_13.leftButton,mouse_13.midButton,mouse_13.rightButton,mouse_13.clicked_name,textbox_6.text,mouse_14.x,mouse_14.y,mouse_14.leftButton,mouse_14.midButton,mouse_14.rightButton,mouse_14.clicked_name,textbox_7.text,mouse_15.x,mouse_15.y,mouse_15.leftButton,mouse_15.midButton,mouse_15.rightButton,mouse_15.clicked_name
0,0,0,49,1,,6134a29257aec791154425ae,62c53b2290b4718b2075a7bc,2022-07-06_09h35.19.402,Colour_Asymmetry_Pilot,2022.1.3,Win32,59.99520038,62c50e9c1127f2cd403a315f,,,,,,,,,,,,,,,,,,,,,,,,,,,,,,,,,,,,,,,,,,,,,,,,,,,,,,,,,,,,,,,,,,,,,,,,,,,,,,,,,,,,,,,,,,,,,,,,,,,,,,,,,,,,,,,,,,,,,,,,,,,,,,,,,,,,,,,,,,,,,,,,,,,,,,,,,,,,,,,,,,,
0,1,1,66,1,,6134a29257aec791154425ae,62c53b2290b4718b2075a7bc,2022-07-06_09h35.19.402,Colour_Asymmetry_Pilot,2022.1.3,Win32,59.99520038,62c50e9c1127f2cd403a315f,,,,,,,,,,,,,,,,,,,,,,,,,,,,,,,,,,,,,,,,,,,,,,,,,,,,,,,,,,,,,,,,,,,,,,,,,,,,,,,,,,,,,,,,,,,,,,,,,,,,,,,,,,,,,,,,,,,,,,,,,,,,,,,,,,,,,,,,,,,,,,,,,,,,,,,,,,,,,,,,,,,
0,2,2,41,1,,6134a29257aec791154425ae,62c53b2290b4718b2075a7bc,2022-07-06_09h35.19.402,Colour_Asymmetry_Pilot,2022.1.3,Win32,59.99520038,62c50e9c1127f2cd403a315f,,,,,,,,,,,,,,,,,,,,,,,,,,,,,,,,,,,,,,,,,,,,,,,,,,,,,,,,,,,,,,,,,,,,,,,,,,,,,,,,,,,,,,,,,,,,,,,,,,,,,,,,,,,,,,,,,,,,,,,,,,,,,,,,,,,,,,,,,,,,,,,,,,,,,,,,,,,,,,,,,,,
0,3,3,43,1,,6134a29257aec791154425ae,62c53b2290b4718b2075a7bc,2022-07-06_09h35.19.402,Colour_Asymmetry_Pilot,2022.1.3,Win32,59.99520038,62c50e9c1127f2cd403a315f,,,,,,,,,,,,,,,,,,,,,,,,,,,,,,,,,,,,,,,,,,,,,,,,,,,,,,,,,,,,,,,,,,,,,,,,,,,,,,,,,,,,,,,,,,,,,,,,,,,,,,,,,,,,,,,,,,,,,,,,,,,,,,,,,,,,,,,,,,,,,,,,,,,,,,,,,,,,,,,,,,,
0,4,4,32,1,,6134a29257aec791154425ae,62c53b2290b4718b2075a7bc,2022-07-06_09h35.19.402,Colour_Asymmetry_Pilot,2022.1.3,Win32,59.99520038,62c50e9c1127f2cd403a315f,,,,,,,,,,,,,,,,,,,,,,,,,,,,,,,,,,,,,,,,,,,,,,,,,,,,,,,,,,,,,,,,,,,,,,,,,,,,,,,,,,,,,,,,,,,,,,,,,,,,,,,,,,,,,,,,,,,,,,,,,,,,,,,,,,,,,,,,,,,,,,,,,,,,,,,,,,,,,,,,,,,
0,5,5,45,1,,6134a29257aec791154425ae,62c53b2290b4718b2075a7bc,2022-07-06_09h35.19.402,Colour_Asymmetry_Pilot,2022.1.3,Win32,59.99520038,62c50e9c1127f2cd403a315f,,,,,,,,,,,,,,,,,,,,,,,,,,,,,,,,,,,,,,,,,,,,,,,,,,,,,,,,,,,,,,,,,,,,,,,,,,,,,,,,,,,,,,,,,,,,,,,,,,,,,,,,,,,,,,,,,,,,,,,,,,,,,,,,,,,,,,,,,,,,,,,,,,,,,,,,,,,,,,,,,,,
0,6,6,90,1,,6134a29257aec791154425ae,62c53b2290b4718b2075a7bc,2022-07-06_09h35.19.402,Colour_Asymmetry_Pilot,2022.1.3,Win32,59.99520038,62c50e9c1127f2cd403a315f,,,,,,,,,,,,,,,,,,,,,,,,,,,,,,,,,,,,,,,,,,,,,,,,,,,,,,,,,,,,,,,,,,,,,,,,,,,,,,,,,,,,,,,,,,,,,,,,,,,,,,,,,,,,,,,,,,,,,,,,,,,,,,,,,,,,,,,,,,,,,,,,,,,,,,,,,,,,,,,,,,,
0,7,7,23,1,,6134a29257aec791154425ae,62c53b2290b4718b2075a7bc,2022-07-06_09h35.19.402,Colour_Asymmetry_Pilot,2022.1.3,Win32,59.99520038,62c50e9c1127f2cd403a315f,,,,,,,,,,,,,,,,,,,,,,,,,,,,,,,,,,,,,,,,,,,,,,,,,,,,,,,,,,,,,,,,,,,,,,,,,,,,,,,,,,,,,,,,,,,,,,,,,,,,,,,,,,,,,,,,,,,,,,,,,,,,,,,,,,,,,,,,,,,,,,,,,,,,,,,,,,,,,,,,,,,
0,8,8,91,1,,6134a29257aec791154425ae,62c53b2290b4718b2075a7bc,2022-07-06_09h35.19.402,Colour_Asymmetry_Pilot,2022.1.3,Win32,59.99520038,62c50e9c1127f2cd403a315f,,,,,,,,,,,,,,,,,,,,,,,,,,,,,,,,,,,,,,,,,,,,,,,,,,,,,,,,,,,,,,,,,,,,,,,,,,,,,,,,,,,,,,,,,,,,,,,,,,,,,,,,,,,,,,,,,,,,,,,,,,,,,,,,,,,,,,,,,,,,,,,,,,,,,,,,,,,,,,,,,,,
0,9,9,39,1,,6134a29257aec791154425ae,62c53b2290b4718b2075a7bc,2022-07-06_09h35.19.402,Colour_Asymmetry_Pilot,2022.1.3,Win32,59.99520038,62c50e9c1127f2cd403a315f,,,,,,,,,,,,,,,,,,,,,,,,,,,,,,,,,,,,,,,,,,,,,,,,,,,,,,,,,,,,,,,,,,,,,,,,,,,,,,,,,,,,,,,,,,,,,,,,,,,,,,,,,,,,,,,,,,,,,,,,,,,,,,,,,,,,,,,,,,,,,,,,,,,,,,,,,,,,,,,,,,,
0,10,10,40,1,,6134a29257aec791154425ae,62c53b2290b4718b2075a7bc,2022-07-06_09h35.19.402,Colour_Asymmetry_Pilot,2022.1.3,Win32,59.99520038,62c50e9c1127f2cd403a315f,,,,,,,,,,,,,,,,,,,,,,,,,,,,,,,,,,,,,,,,,,,,,,,,,,,,,,,,,,,,,,,,,,,,,,,,,,,,,,,,,,,,,,,,,,,,,,,,,,,,,,,,,,,,,,,,,,,,,,,,,,,,,,,,,,,,,,,,,,,,,,,,,,,,,,,,,,,,,,,,,,,
0,11,11,53,1,,6134a29257aec791154425ae,62c53b2290b4718b2075a7bc,2022-07-06_09h35.19.402,Colour_Asymmetry_Pilot,2022.1.3,Win32,59.99520038,62c50e9c1127f2cd403a315f,,,,,,,,,,,,,,,,,,,,,,,,,,,,,,,,,,,,,,,,,,,,,,,,,,,,,,,,,,,,,,,,,,,,,,,,,,,,,,,,,,,,,,,,,,,,,,,,,,,,,,,,,,,,,,,,,,,,,,,,,,,,,,,,,,,,,,,,,,,,,,,,,,,,,,,,,,,,,,,,,,,
0,12,12,11,1,,6134a29257aec791154425ae,62c53b2290b4718b2075a7bc,2022-07-06_09h35.19.402,Colour_Asymmetry_Pilot,2022.1.3,Win32,59.99520038,62c50e9c1127f2cd403a315f,,,,,,,,,,,,,,,,,,,,,,,,,,,,,,,,,,,,,,,,,,,,,,,,,,,,,,,,,,,,,,,,,,,,,,,,,,,,,,,,,,,,,,,,,,,,,,,,,,,,,,,,,,,,,,,,,,,,,,,,,,,,,,,,,,,,,,,,,,,,,,,,,,,,,,,,,,,,,,,,,,,
0,13,13,8,1,,6134a29257aec791154425ae,62c53b2290b4718b2075a7bc,2022-07-06_09h35.19.402,Colour_Asymmetry_Pilot,2022.1.3,Win32,59.99520038,62c50e9c1127f2cd403a315f,,,,,,,,,,,,,,,,,,,,,,,,,,,,,,,,,,,,,,,,,,,,,,,,,,,,,,,,,,,,,,,,,,,,,,,,,,,,,,,,,,,,,,,,,,,,,,,,,,,,,,,,,,,,,,,,,,,,,,,,,,,,,,,,,,,,,,,,,,,,,,,,,,,,,,,,,,,,,,,,,,,
0,14,14,35,1,,6134a29257aec791154425ae,62c53b2290b4718b2075a7bc,2022-07-06_09h35.19.402,Colour_Asymmetry_Pilot,2022.1.3,Win32,59.99520038,62c50e9c1127f2cd403a315f,,,,,,,,,,,,,,,,,,,,,,,,,,,,,,,,,,,,,,,,,,,,,,,,,,,,,,,,,,,,,,,,,,,,,,,,,,,,,,,,,,,,,,,,,,,,,,,,,,,,,,,,,,,,,,,,,,,,,,,,,,,,,,,,,,,,,,,,,,,,,,,,,,,,,,,,,,,,,,,,,,,
0,15,15,87,1,,6134a29257aec791154425ae,62c53b2290b4718b2075a7bc,2022-07-06_09h35.19.402,Colour_Asymmetry_Pilot,2022.1.3,Win32,59.99520038,62c50e9c1127f2cd403a315f,,,,,,,,,,,,,,,,,,,,,,,,,,,,,,,,,,,,,,,,,,,,,,,,,,,,,,,,,,,,,,,,,,,,,,,,,,,,,,,,,,,,,,,,,,,,,,,,,,,,,,,,,,,,,,,,,,,,,,,,,,,,,,,,,,,,,,,,,,,,,,,,,,,,,,,,,,,,,,,,,,,
0,16,16,70,1,,6134a29257aec791154425ae,62c53b2290b4718b2075a7bc,2022-07-06_09h35.19.402,Colour_Asymmetry_Pilot,2022.1.3,Win32,59.99520038,62c50e9c1127f2cd403a315f,,,,,,,,,,,,,,,,,,,,,,,,,,,,,,,,,,,,,,,,,,,,,,,,,,,,,,,,,,,,,,,,,,,,,,,,,,,,,,,,,,,,,,,,,,,,,,,,,,,,,,,,,,,,,,,,,,,,,,,,,,,,,,,,,,,,,,,,,,,,,,,,,,,,,,,,,,,,,,,,,,,
0,17,17,24,1,,6134a29257aec791154425ae,62c53b2290b4718b2075a7bc,2022-07-06_09h35.19.402,Colour_Asymmetry_Pilot,2022.1.3,Win32,59.99520038,62c50e9c1127f2cd403a315f,,,,,,,,,,,,,,,,,,,,,,,,,,,,,,,,,,,,,,,,,,,,,,,,,,,,,,,,,,,,,,,,,,,,,,,,,,,,,,,,,,,,,,,,,,,,,,,,,,,,,,,,,,,,,,,,,,,,,,,,,,,,,,,,,,,,,,,,,,,,,,,,,,,,,,,,,,,,,,,,,,,
0,18,18,4,1,,6134a29257aec791154425ae,62c53b2290b4718b2075a7bc,2022-07-06_09h35.19.402,Colour_Asymmetry_Pilot,2022.1.3,Win32,59.99520038,62c50e9c1127f2cd403a315f,,,,,,,,,,,,,,,,,,,,,,,,,,,,,,,,,,,,,,,,,,,,,,,,,,,,,,,,,,,,,,,,,,,,,,,,,,,,,,,,,,,,,,,,,,,,,,,,,,,,,,,,,,,,,,,,,,,,,,,,,,,,,,,,,,,,,,,,,,,,,,,,,,,,,,,,,,,,,,,,,,,
0,19,19,52,1,,6134a29257aec791154425ae,62c53b2290b4718b2075a7bc,2022-07-06_09h35.19.402,Colour_Asymmetry_Pilot,2022.1.3,Win32,59.99520038,62c50e9c1127f2cd403a315f,,,,,,,,,,,,,,,,,,,,,,,,,,,,,,,,,,,,,,,,,,,,,,,,,,,,,,,,,,,,,,,,,,,,,,,,,,,,,,,,,,,,,,,,,,,,,,,,,,,,,,,,,,,,,,,,,,,,,,,,,,,,,,,,,,,,,,,,,,,,,,,,,,,,,,,,,,,,,,,,,,,
0,20,20,33,1,,6134a29257aec791154425ae,62c53b2290b4718b2075a7bc,2022-07-06_09h35.19.402,Colour_Asymmetry_Pilot,2022.1.3,Win32,59.99520038,62c50e9c1127f2cd403a315f,,,,,,,,,,,,,,,,,,,,,,,,,,,,,,,,,,,,,,,,,,,,,,,,,,,,,,,,,,,,,,,,,,,,,,,,,,,,,,,,,,,,,,,,,,,,,,,,,,,,,,,,,,,,,,,,,,,,,,,,,,,,,,,,,,,,,,,,,,,,,,,,,,,,,,,,,,,,,,,,,,,
0,21,21,68,1,,6134a29257aec791154425ae,62c53b2290b4718b2075a7bc,2022-07-06_09h35.19.402,Colour_Asymmetry_Pilot,2022.1.3,Win32,59.99520038,62c50e9c1127f2cd403a315f,,,,,,,,,,,,,,,,,,,,,,,,,,,,,,,,,,,,,,,,,,,,,,,,,,,,,,,,,,,,,,,,,,,,,,,,,,,,,,,,,,,,,,,,,,,,,,,,,,,,,,,,,,,,,,,,,,,,,,,,,,,,,,,,,,,,,,,,,,,,,,,,,,,,,,,,,,,,,,,,,,,
0,22,22,81,1,,6134a29257aec791154425ae,62c53b2290b4718b2075a7bc,2022-07-06_09h35.19.402,Colour_Asymmetry_Pilot,2022.1.3,Win32,59.99520038,62c50e9c1127f2cd403a315f,,,,,,,,,,,,,,,,,,,,,,,,,,,,,,,,,,,,,,,,,,,,,,,,,,,,,,,,,,,,,,,,,,,,,,,,,,,,,,,,,,,,,,,,,,,,,,,,,,,,,,,,,,,,,,,,,,,,,,,,,,,,,,,,,,,,,,,,,,,,,,,,,,,,,,,,,,,,,,,,,,,
0,23,23,9,1,,6134a29257aec791154425ae,62c53b2290b4718b2075a7bc,2022-07-06_09h35.19.402,Colour_Asymmetry_Pilot,2022.1.3,Win32,59.99520038,62c50e9c1127f2cd403a315f,,,,,,,,,,,,,,,,,,,,,,,,,,,,,,,,,,,,,,,,,,,,,,,,,,,,,,,,,,,,,,,,,,,,,,,,,,,,,,,,,,,,,,,,,,,,,,,,,,,,,,,,,,,,,,,,,,,,,,,,,,,,,,,,,,,,,,,,,,,,,,,,,,,,,,,,,,,,,,,,,,,
0,24,24,74,1,,6134a29257aec791154425ae,62c53b2290b4718b2075a7bc,2022-07-06_09h35.19.402,Colour_Asymmetry_Pilot,2022.1.3,Win32,59.99520038,62c50e9c1127f2cd403a315f,,,,,,,,,,,,,,,,,,,,,,,,,,,,,,,,,,,,,,,,,,,,,,,,,,,,,,,,,,,,,,,,,,,,,,,,,,,,,,,,,,,,,,,,,,,,,,,,,,,,,,,,,,,,,,,,,,,,,,,,,,,,,,,,,,,,,,,,,,,,,,,,,,,,,,,,,,,,,,,,,,,
0,25,25,38,1,,6134a29257aec791154425ae,62c53b2290b4718b2075a7bc,2022-07-06_09h35.19.402,Colour_Asymmetry_Pilot,2022.1.3,Win32,59.99520038,62c50e9c1127f2cd403a315f,,,,,,,,,,,,,,,,,,,,,,,,,,,,,,,,,,,,,,,,,,,,,,,,,,,,,,,,,,,,,,,,,,,,,,,,,,,,,,,,,,,,,,,,,,,,,,,,,,,,,,,,,,,,,,,,,,,,,,,,,,,,,,,,,,,,,,,,,,,,,,,,,,,,,,,,,,,,,,,,,,,
0,26,26,58,1,,6134a29257aec791154425ae,62c53b2290b4718b2075a7bc,2022-07-06_09h35.19.402,Colour_Asymmetry_Pilot,2022.1.3,Win32,59.99520038,62c50e9c1127f2cd403a315f,,,,,,,,,,,,,,,,,,,,,,,,,,,,,,,,,,,,,,,,,,,,,,,,,,,,,,,,,,,,,,,,,,,,,,,,,,,,,,,,,,,,,,,,,,,,,,,,,,,,,,,,,,,,,,,,,,,,,,,,,,,,,,,,,,,,,,,,,,,,,,,,,,,,,,,,,,,,,,,,,,,
0,27,27,85,1,,6134a29257aec791154425ae,62c53b2290b4718b2075a7bc,2022-07-06_09h35.19.402,Colour_Asymmetry_Pilot,2022.1.3,Win32,59.99520038,62c50e9c1127f2cd403a315f,,,,,,,,,,,,,,,,,,,,,,,,,,,,,,,,,,,,,,,,,,,,,,,,,,,,,,,,,,,,,,,,,,,,,,,,,,,,,,,,,,,,,,,,,,,,,,,,,,,,,,,,,,,,,,,,,,,,,,,,,,,,,,,,,,,,,,,,,,,,,,,,,,,,,,,,,,,,,,,,,,,
0,28,28,76,1,,6134a29257aec791154425ae,62c53b2290b4718b2075a7bc,2022-07-06_09h35.19.402,Colour_Asymmetry_Pilot,2022.1.3,Win32,59.99520038,62c50e9c1127f2cd403a315f,,,,,,,,,,,,,,,,,,,,,,,,,,,,,,,,,,,,,,,,,,,,,,,,,,,,,,,,,,,,,,,,,,,,,,,,,,,,,,,,,,,,,,,,,,,,,,,,,,,,,,,,,,,,,,,,,,,,,,,,,,,,,,,,,,,,,,,,,,,,,,,,,,,,,,,,,,,,,,,,,,,
0,29,29,69,1,,6134a29257aec791154425ae,62c53b2290b4718b2075a7bc,2022-07-06_09h35.19.402,Colour_Asymmetry_Pilot,2022.1.3,Win32,59.99520038,62c50e9c1127f2cd403a315f,,,,,,,,,,,,,,,,,,,,,,,,,,,,,,,,,,,,,,,,,,,,,,,,,,,,,,,,,,,,,,,,,,,,,,,,,,,,,,,,,,,,,,,,,,,,,,,,,,,,,,,,,,,,,,,,,,,,,,,,,,,,,,,,,,,,,,,,,,,,,,,,,,,,,,,,,,,,,,,,,,,
0,30,30,84,1,,6134a29257aec791154425ae,62c53b2290b4718b2075a7bc,2022-07-06_09h35.19.402,Colour_Asymmetry_Pilot,2022.1.3,Win32,59.99520038,62c50e9c1127f2cd403a315f,,,,,,,,,,,,,,,,,,,,,,,,,,,,,,,,,,,,,,,,,,,,,,,,,,,,,,,,,,,,,,,,,,,,,,,,,,,,,,,,,,,,,,,,,,,,,,,,,,,,,,,,,,,,,,,,,,,,,,,,,,,,,,,,,,,,,,,,,,,,,,,,,,,,,,,,,,,,,,,,,,,
0,31,31,65,1,,6134a29257aec791154425ae,62c53b2290b4718b2075a7bc,2022-07-06_09h35.19.402,Colour_Asymmetry_Pilot,2022.1.3,Win32,59.99520038,62c50e9c1127f2cd403a315f,,,,,,,,,,,,,,,,,,,,,,,,,,,,,,,,,,,,,,,,,,,,,,,,,,,,,,,,,,,,,,,,,,,,,,,,,,,,,,,,,,,,,,,,,,,,,,,,,,,,,,,,,,,,,,,,,,,,,,,,,,,,,,,,,,,,,,,,,,,,,,,,,,,,,,,,,,,,,,,,,,,
0,32,32,48,1,,6134a29257aec791154425ae,62c53b2290b4718b2075a7bc,2022-07-06_09h35.19.402,Colour_Asymmetry_Pilot,2022.1.3,Win32,59.99520038,62c50e9c1127f2cd403a315f,,,,,,,,,,,,,,,,,,,,,,,,,,,,,,,,,,,,,,,,,,,,,,,,,,,,,,,,,,,,,,,,,,,,,,,,,,,,,,,,,,,,,,,,,,,,,,,,,,,,,,,,,,,,,,,,,,,,,,,,,,,,,,,,,,,,,,,,,,,,,,,,,,,,,,,,,,,,,,,,,,,
0,33,33,80,1,,6134a29257aec791154425ae,62c53b2290b4718b2075a7bc,2022-07-06_09h35.19.402,Colour_Asymmetry_Pilot,2022.1.3,Win32,59.99520038,62c50e9c1127f2cd403a315f,,,,,,,,,,,,,,,,,,,,,,,,,,,,,,,,,,,,,,,,,,,,,,,,,,,,,,,,,,,,,,,,,,,,,,,,,,,,,,,,,,,,,,,,,,,,,,,,,,,,,,,,,,,,,,,,,,,,,,,,,,,,,,,,,,,,,,,,,,,,,,,,,,,,,,,,,,,,,,,,,,,
0,34,34,71,1,,6134a29257aec791154425ae,62c53b2290b4718b2075a7bc,2022-07-06_09h35.19.402,Colour_Asymmetry_Pilot,2022.1.3,Win32,59.99520038,62c50e9c1127f2cd403a315f,,,,,,,,,,,,,,,,,,,,,,,,,,,,,,,,,,,,,,,,,,,,,,,,,,,,,,,,,,,,,,,,,,,,,,,,,,,,,,,,,,,,,,,,,,,,,,,,,,,,,,,,,,,,,,,,,,,,,,,,,,,,,,,,,,,,,,,,,,,,,,,,,,,,,,,,,,,,,,,,,,,
0,35,35,63,1,,6134a29257aec791154425ae,62c53b2290b4718b2075a7bc,2022-07-06_09h35.19.402,Colour_Asymmetry_Pilot,2022.1.3,Win32,59.99520038,62c50e9c1127f2cd403a315f,,,,,,,,,,,,,,,,,,,,,,,,,,,,,,,,,,,,,,,,,,,,,,,,,,,,,,,,,,,,,,,,,,,,,,,,,,,,,,,,,,,,,,,,,,,,,,,,,,,,,,,,,,,,,,,,,,,,,,,,,,,,,,,,,,,,,,,,,,,,,,,,,,,,,,,,,,,,,,,,,,,
0,36,36,57,1,,6134a29257aec791154425ae,62c53b2290b4718b2075a7bc,2022-07-06_09h35.19.402,Colour_Asymmetry_Pilot,2022.1.3,Win32,59.99520038,62c50e9c1127f2cd403a315f,,,,,,,,,,,,,,,,,,,,,,,,,,,,,,,,,,,,,,,,,,,,,,,,,,,,,,,,,,,,,,,,,,,,,,,,,,,,,,,,,,,,,,,,,,,,,,,,,,,,,,,,,,,,,,,,,,,,,,,,,,,,,,,,,,,,,,,,,,,,,,,,,,,,,,,,,,,,,,,,,,,
0,37,37,79,1,,6134a29257aec791154425ae,62c53b2290b4718b2075a7bc,2022-07-06_09h35.19.402,Colour_Asymmetry_Pilot,2022.1.3,Win32,59.99520038,62c50e9c1127f2cd403a315f,,,,,,,,,,,,,,,,,,,,,,,,,,,,,,,,,,,,,,,,,,,,,,,,,,,,,,,,,,,,,,,,,,,,,,,,,,,,,,,,,,,,,,,,,,,,,,,,,,,,,,,,,,,,,,,,,,,,,,,,,,,,,,,,,,,,,,,,,,,,,,,,,,,,,,,,,,,,,,,,,,,
0,38,38,50,1,,6134a29257aec791154425ae,62c53b2290b4718b2075a7bc,2022-07-06_09h35.19.402,Colour_Asymmetry_Pilot,2022.1.3,Win32,59.99520038,62c50e9c1127f2cd403a315f,,,,,,,,,,,,,,,,,,,,,,,,,,,,,,,,,,,,,,,,,,,,,,,,,,,,,,,,,,,,,,,,,,,,,,,,,,,,,,,,,,,,,,,,,,,,,,,,,,,,,,,,,,,,,,,,,,,,,,,,,,,,,,,,,,,,,,,,,,,,,,,,,,,,,,,,,,,,,,,,,,,
0,39,39,7,1,,6134a29257aec791154425ae,62c53b2290b4718b2075a7bc,2022-07-06_09h35.19.402,Colour_Asymmetry_Pilot,2022.1.3,Win32,59.99520038,62c50e9c1127f2cd403a315f,,,,,,,,,,,,,,,,,,,,,,,,,,,,,,,,,,,,,,,,,,,,,,,,,,,,,,,,,,,,,,,,,,,,,,,,,,,,,,,,,,,,,,,,,,,,,,,,,,,,,,,,,,,,,,,,,,,,,,,,,,,,,,,,,,,,,,,,,,,,,,,,,,,,,,,,,,,,,,,,,,,
0,40,40,21,1,,6134a29257aec791154425ae,62c53b2290b4718b2075a7bc,2022-07-06_09h35.19.402,Colour_Asymmetry_Pilot,2022.1.3,Win32,59.99520038,62c50e9c1127f2cd403a315f,,,,,,,,,,,,,,,,,,,,,,,,,,,,,,,,,,,,,,,,,,,,,,,,,,,,,,,,,,,,,,,,,,,,,,,,,,,,,,,,,,,,,,,,,,,,,,,,,,,,,,,,,,,,,,,,,,,,,,,,,,,,,,,,,,,,,,,,,,,,,,,,,,,,,,,,,,,,,,,,,,,
0,41,41,27,1,,6134a29257aec791154425ae,62c53b2290b4718b2075a7bc,2022-07-06_09h35.19.402,Colour_Asymmetry_Pilot,2022.1.3,Win32,59.99520038,62c50e9c1127f2cd403a315f,,,,,,,,,,,,,,,,,,,,,,,,,,,,,,,,,,,,,,,,,,,,,,,,,,,,,,,,,,,,,,,,,,,,,,,,,,,,,,,,,,,,,,,,,,,,,,,,,,,,,,,,,,,,,,,,,,,,,,,,,,,,,,,,,,,,,,,,,,,,,,,,,,,,,,,,,,,,,,,,,,,
0,42,42,34,1,,6134a29257aec791154425ae,62c53b2290b4718b2075a7bc,2022-07-06_09h35.19.402,Colour_Asymmetry_Pilot,2022.1.3,Win32,59.99520038,62c50e9c1127f2cd403a315f,,,,,,,,,,,,,,,,,,,,,,,,,,,,,,,,,,,,,,,,,,,,,,,,,,,,,,,,,,,,,,,,,,,,,,,,,,,,,,,,,,,,,,,,,,,,,,,,,,,,,,,,,,,,,,,,,,,,,,,,,,,,,,,,,,,,,,,,,,,,,,,,,,,,,,,,,,,,,,,,,,,
0,43,43,29,1,,6134a29257aec791154425ae,62c53b2290b4718b2075a7bc,2022-07-06_09h35.19.402,Colour_Asymmetry_Pilot,2022.1.3,Win32,59.99520038,62c50e9c1127f2cd403a315f,,,,,,,,,,,,,,,,,,,,,,,,,,,,,,,,,,,,,,,,,,,,,,,,,,,,,,,,,,,,,,,,,,,,,,,,,,,,,,,,,,,,,,,,,,,,,,,,,,,,,,,,,,,,,,,,,,,,,,,,,,,,,,,,,,,,,,,,,,,,,,,,,,,,,,,,,,,,,,,,,,,
0,44,44,60,1,,6134a29257aec791154425ae,62c53b2290b4718b2075a7bc,2022-07-06_09h35.19.402,Colour_Asymmetry_Pilot,2022.1.3,Win32,59.99520038,62c50e9c1127f2cd403a315f,,,,,,,,,,,,,,,,,,,,,,,,,,,,,,,,,,,,,,,,,,,,,,,,,,,,,,,,,,,,,,,,,,,,,,,,,,,,,,,,,,,,,,,,,,,,,,,,,,,,,,,,,,,,,,,,,,,,,,,,,,,,,,,,,,,,,,,,,,,,,,,,,,,,,,,,,,,,,,,,,,,
0,45,45,54,1,,6134a29257aec791154425ae,62c53b2290b4718b2075a7bc,2022-07-06_09h35.19.402,Colour_Asymmetry_Pilot,2022.1.3,Win32,59.99520038,62c50e9c1127f2cd403a315f,,,,,,,,,,,,,,,,,,,,,,,,,,,,,,,,,,,,,,,,,,,,,,,,,,,,,,,,,,,,,,,,,,,,,,,,,,,,,,,,,,,,,,,,,,,,,,,,,,,,,,,,,,,,,,,,,,,,,,,,,,,,,,,,,,,,,,,,,,,,,,,,,,,,,,,,,,,,,,,,,,,
0,46,46,86,1,,6134a29257aec791154425ae,62c53b2290b4718b2075a7bc,2022-07-06_09h35.19.402,Colour_Asymmetry_Pilot,2022.1.3,Win32,59.99520038,62c50e9c1127f2cd403a315f,,,,,,,,,,,,,,,,,,,,,,,,,,,,,,,,,,,,,,,,,,,,,,,,,,,,,,,,,,,,,,,,,,,,,,,,,,,,,,,,,,,,,,,,,,,,,,,,,,,,,,,,,,,,,,,,,,,,,,,,,,,,,,,,,,,,,,,,,,,,,,,,,,,,,,,,,,,,,,,,,,,
0,47,47,46,1,,6134a29257aec791154425ae,62c53b2290b4718b2075a7bc,2022-07-06_09h35.19.402,Colour_Asymmetry_Pilot,2022.1.3,Win32,59.99520038,62c50e9c1127f2cd403a315f,,,,,,,,,,,,,,,,,,,,,,,,,,,,,,,,,,,,,,,,,,,,,,,,,,,,,,,,,,,,,,,,,,,,,,,,,,,,,,,,,,,,,,,,,,,,,,,,,,,,,,,,,,,,,,,,,,,,,,,,,,,,,,,,,,,,,,,,,,,,,,,,,,,,,,,,,,,,,,,,,,,
0,48,48,37,1,,6134a29257aec791154425ae,62c53b2290b4718b2075a7bc,2022-07-06_09h35.19.402,Colour_Asymmetry_Pilot,2022.1.3,Win32,59.99520038,62c50e9c1127f2cd403a315f,,,,,,,,,,,,,,,,,,,,,,,,,,,,,,,,,,,,,,,,,,,,,,,,,,,,,,,,,,,,,,,,,,,,,,,,,,,,,,,,,,,,,,,,,,,,,,,,,,,,,,,,,,,,,,,,,,,,,,,,,,,,,,,,,,,,,,,,,,,,,,,,,,,,,,,,,,,,,,,,,,,
0,49,49,77,1,,6134a29257aec791154425ae,62c53b2290b4718b2075a7bc,2022-07-06_09h35.19.402,Colour_Asymmetry_Pilot,2022.1.3,Win32,59.99520038,62c50e9c1127f2cd403a315f,,,,,,,,,,,,,,,,,,,,,,,,,,,,,,,,,,,,,,,,,,,,,,,,,,,,,,,,,,,,,,,,,,,,,,,,,,,,,,,,,,,,,,,,,,,,,,,,,,,,,,,,,,,,,,,,,,,,,,,,,,,,,,,,,,,,,,,,,,,,,,,,,,,,,,,,,,,,,,,,,,,
0,50,50,12,1,,6134a29257aec791154425ae,62c53b2290b4718b2075a7bc,2022-07-06_09h35.19.402,Colour_Asymmetry_Pilot,2022.1.3,Win32,59.99520038,62c50e9c1127f2cd403a315f,,,,,,,,,,,,,,,,,,,,,,,,,,,,,,,,,,,,,,,,,,,,,,,,,,,,,,,,,,,,,,,,,,,,,,,,,,,,,,,,,,,,,,,,,,,,,,,,,,,,,,,,,,,,,,,,,,,,,,,,,,,,,,,,,,,,,,,,,,,,,,,,,,,,,,,,,,,,,,,,,,,
0,51,51,75,1,,6134a29257aec791154425ae,62c53b2290b4718b2075a7bc,2022-07-06_09h35.19.402,Colour_Asymmetry_Pilot,2022.1.3,Win32,59.99520038,62c50e9c1127f2cd403a315f,,,,,,,,,,,,,,,,,,,,,,,,,,,,,,,,,,,,,,,,,,,,,,,,,,,,,,,,,,,,,,,,,,,,,,,,,,,,,,,,,,,,,,,,,,,,,,,,,,,,,,,,,,,,,,,,,,,,,,,,,,,,,,,,,,,,,,,,,,,,,,,,,,,,,,,,,,,,,,,,,,,
0,52,52,1,1,,6134a29257aec791154425ae,62c53b2290b4718b2075a7bc,2022-07-06_09h35.19.402,Colour_Asymmetry_Pilot,2022.1.3,Win32,59.99520038,62c50e9c1127f2cd403a315f,,,,,,,,,,,,,,,,,,,,,,,,,,,,,,,,,,,,,,,,,,,,,,,,,,,,,,,,,,,,,,,,,,,,,,,,,,,,,,,,,,,,,,,,,,,,,,,,,,,,,,,,,,,,,,,,,,,,,,,,,,,,,,,,,,,,,,,,,,,,,,,,,,,,,,,,,,,,,,,,,,,
0,53,53,3,1,,6134a29257aec791154425ae,62c53b2290b4718b2075a7bc,2022-07-06_09h35.19.402,Colour_Asymmetry_Pilot,2022.1.3,Win32,59.99520038,62c50e9c1127f2cd403a315f,,,,,,,,,,,,,,,,,,,,,,,,,,,,,,,,,,,,,,,,,,,,,,,,,,,,,,,,,,,,,,,,,,,,,,,,,,,,,,,,,,,,,,,,,,,,,,,,,,,,,,,,,,,,,,,,,,,,,,,,,,,,,,,,,,,,,,,,,,,,,,,,,,,,,,,,,,,,,,,,,,,
0,54,54,22,1,,6134a29257aec791154425ae,62c53b2290b4718b2075a7bc,2022-07-06_09h35.19.402,Colour_Asymmetry_Pilot,2022.1.3,Win32,59.99520038,62c50e9c1127f2cd403a315f,,,,,,,,,,,,,,,,,,,,,,,,,,,,,,,,,,,,,,,,,,,,,,,,,,,,,,,,,,,,,,,,,,,,,,,,,,,,,,,,,,,,,,,,,,,,,,,,,,,,,,,,,,,,,,,,,,,,,,,,,,,,,,,,,,,,,,,,,,,,,,,,,,,,,,,,,,,,,,,,,,,
0,55,55,31,1,,6134a29257aec791154425ae,62c53b2290b4718b2075a7bc,2022-07-06_09h35.19.402,Colour_Asymmetry_Pilot,2022.1.3,Win32,59.99520038,62c50e9c1127f2cd403a315f,,,,,,,,,,,,,,,,,,,,,,,,,,,,,,,,,,,,,,,,,,,,,,,,,,,,,,,,,,,,,,,,,,,,,,,,,,,,,,,,,,,,,,,,,,,,,,,,,,,,,,,,,,,,,,,,,,,,,,,,,,,,,,,,,,,,,,,,,,,,,,,,,,,,,,,,,,,,,,,,,,,
0,56,56,15,1,,6134a29257aec791154425ae,62c53b2290b4718b2075a7bc,2022-07-06_09h35.19.402,Colour_Asymmetry_Pilot,2022.1.3,Win32,59.99520038,62c50e9c1127f2cd403a315f,,,,,,,,,,,,,,,,,,,,,,,,,,,,,,,,,,,,,,,,,,,,,,,,,,,,,,,,,,,,,,,,,,,,,,,,,,,,,,,,,,,,,,,,,,,,,,,,,,,,,,,,,,,,,,,,,,,,,,,,,,,,,,,,,,,,,,,,,,,,,,,,,,,,,,,,,,,,,,,,,,,
0,57,57,0,1,,6134a29257aec791154425ae,62c53b2290b4718b2075a7bc,2022-07-06_09h35.19.402,Colour_Asymmetry_Pilot,2022.1.3,Win32,59.99520038,62c50e9c1127f2cd403a315f,,,,,,,,,,,,,,,,,,,,,,,,,,,,,,,,,,,,,,,,,,,,,,,,,,,,,,,,,,,,,,,,,,,,,,,,,,,,,,,,,,,,,,,,,,,,,,,,,,,,,,,,,,,,,,,,,,,,,,,,,,,,,,,,,,,,,,,,,,,,,,,,,,,,,,,,,,,,,,,,,,,
0,58,58,56,1,,6134a29257aec791154425ae,62c53b2290b4718b2075a7bc,2022-07-06_09h35.19.402,Colour_Asymmetry_Pilot,2022.1.3,Win32,59.99520038,62c50e9c1127f2cd403a315f,,,,,,,,,,,,,,,,,,,,,,,,,,,,,,,,,,,,,,,,,,,,,,,,,,,,,,,,,,,,,,,,,,,,,,,,,,,,,,,,,,,,,,,,,,,,,,,,,,,,,,,,,,,,,,,,,,,,,,,,,,,,,,,,,,,,,,,,,,,,,,,,,,,,,,,,,,,,,,,,,,,
0,59,59,17,1,,6134a29257aec791154425ae,62c53b2290b4718b2075a7bc,2022-07-06_09h35.19.402,Colour_Asymmetry_Pilot,2022.1.3,Win32,59.99520038,62c50e9c1127f2cd403a315f,,,,,,,,,,,,,,,,,,,,,,,,,,,,,,,,,,,,,,,,,,,,,,,,,,,,,,,,,,,,,,,,,,,,,,,,,,,,,,,,,,,,,,,,,,,,,,,,,,,,,,,,,,,,,,,,,,,,,,,,,,,,,,,,,,,,,,,,,,,,,,,,,,,,,,,,,,,,,,,,,,,
0,60,60,42,1,,6134a29257aec791154425ae,62c53b2290b4718b2075a7bc,2022-07-06_09h35.19.402,Colour_Asymmetry_Pilot,2022.1.3,Win32,59.99520038,62c50e9c1127f2cd403a315f,,,,,,,,,,,,,,,,,,,,,,,,,,,,,,,,,,,,,,,,,,,,,,,,,,,,,,,,,,,,,,,,,,,,,,,,,,,,,,,,,,,,,,,,,,,,,,,,,,,,,,,,,,,,,,,,,,,,,,,,,,,,,,,,,,,,,,,,,,,,,,,,,,,,,,,,,,,,,,,,,,,
0,61,61,92,1,,6134a29257aec791154425ae,62c53b2290b4718b2075a7bc,2022-07-06_09h35.19.402,Colour_Asymmetry_Pilot,2022.1.3,Win32,59.99520038,62c50e9c1127f2cd403a315f,,,,,,,,,,,,,,,,,,,,,,,,,,,,,,,,,,,,,,,,,,,,,,,,,,,,,,,,,,,,,,,,,,,,,,,,,,,,,,,,,,,,,,,,,,,,,,,,,,,,,,,,,,,,,,,,,,,,,,,,,,,,,,,,,,,,,,,,,,,,,,,,,,,,,,,,,,,,,,,,,,,
0,62,62,78,1,,6134a29257aec791154425ae,62c53b2290b4718b2075a7bc,2022-07-06_09h35.19.402,Colour_Asymmetry_Pilot,2022.1.3,Win32,59.99520038,62c50e9c1127f2cd403a315f,,,,,,,,,,,,,,,,,,,,,,,,,,,,,,,,,,,,,,,,,,,,,,,,,,,,,,,,,,,,,,,,,,,,,,,,,,,,,,,,,,,,,,,,,,,,,,,,,,,,,,,,,,,,,,,,,,,,,,,,,,,,,,,,,,,,,,,,,,,,,,,,,,,,,,,,,,,,,,,,,,,
0,63,63,51,1,,6134a29257aec791154425ae,62c53b2290b4718b2075a7bc,2022-07-06_09h35.19.402,Colour_Asymmetry_Pilot,2022.1.3,Win32,59.99520038,62c50e9c1127f2cd403a315f,,,,,,,,,,,,,,,,,,,,,,,,,,,,,,,,,,,,,,,,,,,,,,,,,,,,,,,,,,,,,,,,,,,,,,,,,,,,,,,,,,,,,,,,,,,,,,,,,,,,,,,,,,,,,,,,,,,,,,,,,,,,,,,,,,,,,,,,,,,,,,,,,,,,,,,,,,,,,,,,,,,
0,64,64,2,1,,6134a29257aec791154425ae,62c53b2290b4718b2075a7bc,2022-07-06_09h35.19.402,Colour_Asymmetry_Pilot,2022.1.3,Win32,59.99520038,62c50e9c1127f2cd403a315f,,,,,,,,,,,,,,,,,,,,,,,,,,,,,,,,,,,,,,,,,,,,,,,,,,,,,,,,,,,,,,,,,,,,,,,,,,,,,,,,,,,,,,,,,,,,,,,,,,,,,,,,,,,,,,,,,,,,,,,,,,,,,,,,,,,,,,,,,,,,,,,,,,,,,,,,,,,,,,,,,,,
0,65,65,25,1,,6134a29257aec791154425ae,62c53b2290b4718b2075a7bc,2022-07-06_09h35.19.402,Colour_Asymmetry_Pilot,2022.1.3,Win32,59.99520038,62c50e9c1127f2cd403a315f,,,,,,,,,,,,,,,,,,,,,,,,,,,,,,,,,,,,,,,,,,,,,,,,,,,,,,,,,,,,,,,,,,,,,,,,,,,,,,,,,,,,,,,,,,,,,,,,,,,,,,,,,,,,,,,,,,,,,,,,,,,,,,,,,,,,,,,,,,,,,,,,,,,,,,,,,,,,,,,,,,,
0,66,66,16,1,,6134a29257aec791154425ae,62c53b2290b4718b2075a7bc,2022-07-06_09h35.19.402,Colour_Asymmetry_Pilot,2022.1.3,Win32,59.99520038,62c50e9c1127f2cd403a315f,,,,,,,,,,,,,,,,,,,,,,,,,,,,,,,,,,,,,,,,,,,,,,,,,,,,,,,,,,,,,,,,,,,,,,,,,,,,,,,,,,,,,,,,,,,,,,,,,,,,,,,,,,,,,,,,,,,,,,,,,,,,,,,,,,,,,,,,,,,,,,,,,,,,,,,,,,,,,,,,,,,
0,67,67,72,1,,6134a29257aec791154425ae,62c53b2290b4718b2075a7bc,2022-07-06_09h35.19.402,Colour_Asymmetry_Pilot,2022.1.3,Win32,59.99520038,62c50e9c1127f2cd403a315f,,,,,,,,,,,,,,,,,,,,,,,,,,,,,,,,,,,,,,,,,,,,,,,,,,,,,,,,,,,,,,,,,,,,,,,,,,,,,,,,,,,,,,,,,,,,,,,,,,,,,,,,,,,,,,,,,,,,,,,,,,,,,,,,,,,,,,,,,,,,,,,,,,,,,,,,,,,,,,,,,,,
0,68,68,10,1,,6134a29257aec791154425ae,62c53b2290b4718b2075a7bc,2022-07-06_09h35.19.402,Colour_Asymmetry_Pilot,2022.1.3,Win32,59.99520038,62c50e9c1127f2cd403a315f,,,,,,,,,,,,,,,,,,,,,,,,,,,,,,,,,,,,,,,,,,,,,,,,,,,,,,,,,,,,,,,,,,,,,,,,,,,,,,,,,,,,,,,,,,,,,,,,,,,,,,,,,,,,,,,,,,,,,,,,,,,,,,,,,,,,,,,,,,,,,,,,,,,,,,,,,,,,,,,,,,,
0,69,69,26,1,,6134a29257aec791154425ae,62c53b2290b4718b2075a7bc,2022-07-06_09h35.19.402,Colour_Asymmetry_Pilot,2022.1.3,Win32,59.99520038,62c50e9c1127f2cd403a315f,,,,,,,,,,,,,,,,,,,,,,,,,,,,,,,,,,,,,,,,,,,,,,,,,,,,,,,,,,,,,,,,,,,,,,,,,,,,,,,,,,,,,,,,,,,,,,,,,,,,,,,,,,,,,,,,,,,,,,,,,,,,,,,,,,,,,,,,,,,,,,,,,,,,,,,,,,,,,,,,,,,
0,70,70,59,1,,6134a29257aec791154425ae,62c53b2290b4718b2075a7bc,2022-07-06_09h35.19.402,Colour_Asymmetry_Pilot,2022.1.3,Win32,59.99520038,62c50e9c1127f2cd403a315f,,,,,,,,,,,,,,,,,,,,,,,,,,,,,,,,,,,,,,,,,,,,,,,,,,,,,,,,,,,,,,,,,,,,,,,,,,,,,,,,,,,,,,,,,,,,,,,,,,,,,,,,,,,,,,,,,,,,,,,,,,,,,,,,,,,,,,,,,,,,,,,,,,,,,,,,,,,,,,,,,,,
0,71,71,67,1,,6134a29257aec791154425ae,62c53b2290b4718b2075a7bc,2022-07-06_09h35.19.402,Colour_Asymmetry_Pilot,2022.1.3,Win32,59.99520038,62c50e9c1127f2cd403a315f,,,,,,,,,,,,,,,,,,,,,,,,,,,,,,,,,,,,,,,,,,,,,,,,,,,,,,,,,,,,,,,,,,,,,,,,,,,,,,,,,,,,,,,,,,,,,,,,,,,,,,,,,,,,,,,,,,,,,,,,,,,,,,,,,,,,,,,,,,,,,,,,,,,,,,,,,,,,,,,,,,,
0,72,72,82,1,,6134a29257aec791154425ae,62c53b2290b4718b2075a7bc,2022-07-06_09h35.19.402,Colour_Asymmetry_Pilot,2022.1.3,Win32,59.99520038,62c50e9c1127f2cd403a315f,,,,,,,,,,,,,,,,,,,,,,,,,,,,,,,,,,,,,,,,,,,,,,,,,,,,,,,,,,,,,,,,,,,,,,,,,,,,,,,,,,,,,,,,,,,,,,,,,,,,,,,,,,,,,,,,,,,,,,,,,,,,,,,,,,,,,,,,,,,,,,,,,,,,,,,,,,,,,,,,,,,
0,73,73,36,1,,6134a29257aec791154425ae,62c53b2290b4718b2075a7bc,2022-07-06_09h35.19.402,Colour_Asymmetry_Pilot,2022.1.3,Win32,59.99520038,62c50e9c1127f2cd403a315f,,,,,,,,,,,,,,,,,,,,,,,,,,,,,,,,,,,,,,,,,,,,,,,,,,,,,,,,,,,,,,,,,,,,,,,,,,,,,,,,,,,,,,,,,,,,,,,,,,,,,,,,,,,,,,,,,,,,,,,,,,,,,,,,,,,,,,,,,,,,,,,,,,,,,,,,,,,,,,,,,,,
0,74,74,19,1,,6134a29257aec791154425ae,62c53b2290b4718b2075a7bc,2022-07-06_09h35.19.402,Colour_Asymmetry_Pilot,2022.1.3,Win32,59.99520038,62c50e9c1127f2cd403a315f,,,,,,,,,,,,,,,,,,,,,,,,,,,,,,,,,,,,,,,,,,,,,,,,,,,,,,,,,,,,,,,,,,,,,,,,,,,,,,,,,,,,,,,,,,,,,,,,,,,,,,,,,,,,,,,,,,,,,,,,,,,,,,,,,,,,,,,,,,,,,,,,,,,,,,,,,,,,,,,,,,,
0,75,75,89,1,,6134a29257aec791154425ae,62c53b2290b4718b2075a7bc,2022-07-06_09h35.19.402,Colour_Asymmetry_Pilot,2022.1.3,Win32,59.99520038,62c50e9c1127f2cd403a315f,,,,,,,,,,,,,,,,,,,,,,,,,,,,,,,,,,,,,,,,,,,,,,,,,,,,,,,,,,,,,,,,,,,,,,,,,,,,,,,,,,,,,,,,,,,,,,,,,,,,,,,,,,,,,,,,,,,,,,,,,,,,,,,,,,,,,,,,,,,,,,,,,,,,,,,,,,,,,,,,,,,
0,76,76,6,1,,6134a29257aec791154425ae,62c53b2290b4718b2075a7bc,2022-07-06_09h35.19.402,Colour_Asymmetry_Pilot,2022.1.3,Win32,59.99520038,62c50e9c1127f2cd403a315f,,,,,,,,,,,,,,,,,,,,,,,,,,,,,,,,,,,,,,,,,,,,,,,,,,,,,,,,,,,,,,,,,,,,,,,,,,,,,,,,,,,,,,,,,,,,,,,,,,,,,,,,,,,,,,,,,,,,,,,,,,,,,,,,,,,,,,,,,,,,,,,,,,,,,,,,,,,,,,,,,,,
0,77,77,83,1,,6134a29257aec791154425ae,62c53b2290b4718b2075a7bc,2022-07-06_09h35.19.402,Colour_Asymmetry_Pilot,2022.1.3,Win32,59.99520038,62c50e9c1127f2cd403a315f,,,,,,,,,,,,,,,,,,,,,,,,,,,,,,,,,,,,,,,,,,,,,,,,,,,,,,,,,,,,,,,,,,,,,,,,,,,,,,,,,,,,,,,,,,,,,,,,,,,,,,,,,,,,,,,,,,,,,,,,,,,,,,,,,,,,,,,,,,,,,,,,,,,,,,,,,,,,,,,,,,,
0,78,78,88,1,,6134a29257aec791154425ae,62c53b2290b4718b2075a7bc,2022-07-06_09h35.19.402,Colour_Asymmetry_Pilot,2022.1.3,Win32,59.99520038,62c50e9c1127f2cd403a315f,,,,,,,,,,,,,,,,,,,,,,,,,,,,,,,,,,,,,,,,,,,,,,,,,,,,,,,,,,,,,,,,,,,,,,,,,,,,,,,,,,,,,,,,,,,,,,,,,,,,,,,,,,,,,,,,,,,,,,,,,,,,,,,,,,,,,,,,,,,,,,,,,,,,,,,,,,,,,,,,,,,
0,79,79,30,1,,6134a29257aec791154425ae,62c53b2290b4718b2075a7bc,2022-07-06_09h35.19.402,Colour_Asymmetry_Pilot,2022.1.3,Win32,59.99520038,62c50e9c1127f2cd403a315f,,,,,,,,,,,,,,,,,,,,,,,,,,,,,,,,,,,,,,,,,,,,,,,,,,,,,,,,,,,,,,,,,,,,,,,,,,,,,,,,,,,,,,,,,,,,,,,,,,,,,,,,,,,,,,,,,,,,,,,,,,,,,,,,,,,,,,,,,,,,,,,,,,,,,,,,,,,,,,,,,,,
0,80,80,47,1,,6134a29257aec791154425ae,62c53b2290b4718b2075a7bc,2022-07-06_09h35.19.402,Colour_Asymmetry_Pilot,2022.1.3,Win32,59.99520038,62c50e9c1127f2cd403a315f,,,,,,,,,,,,,,,,,,,,,,,,,,,,,,,,,,,,,,,,,,,,,,,,,,,,,,,,,,,,,,,,,,,,,,,,,,,,,,,,,,,,,,,,,,,,,,,,,,,,,,,,,,,,,,,,,,,,,,,,,,,,,,,,,,,,,,,,,,,,,,,,,,,,,,,,,,,,,,,,,,,
0,81,81,5,1,,6134a29257aec791154425ae,62c53b2290b4718b2075a7bc,2022-07-06_09h35.19.402,Colour_Asymmetry_Pilot,2022.1.3,Win32,59.99520038,62c50e9c1127f2cd403a315f,,,,,,,,,,,,,,,,,,,,,,,,,,,,,,,,,,,,,,,,,,,,,,,,,,,,,,,,,,,,,,,,,,,,,,,,,,,,,,,,,,,,,,,,,,,,,,,,,,,,,,,,,,,,,,,,,,,,,,,,,,,,,,,,,,,,,,,,,,,,,,,,,,,,,,,,,,,,,,,,,,,
0,82,82,28,1,,6134a29257aec791154425ae,62c53b2290b4718b2075a7bc,2022-07-06_09h35.19.402,Colour_Asymmetry_Pilot,2022.1.3,Win32,59.99520038,62c50e9c1127f2cd403a315f,,,,,,,,,,,,,,,,,,,,,,,,,,,,,,,,,,,,,,,,,,,,,,,,,,,,,,,,,,,,,,,,,,,,,,,,,,,,,,,,,,,,,,,,,,,,,,,,,,,,,,,,,,,,,,,,,,,,,,,,,,,,,,,,,,,,,,,,,,,,,,,,,,,,,,,,,,,,,,,,,,,
0,83,83,44,1,,6134a29257aec791154425ae,62c53b2290b4718b2075a7bc,2022-07-06_09h35.19.402,Colour_Asymmetry_Pilot,2022.1.3,Win32,59.99520038,62c50e9c1127f2cd403a315f,,,,,,,,,,,,,,,,,,,,,,,,,,,,,,,,,,,,,,,,,,,,,,,,,,,,,,,,,,,,,,,,,,,,,,,,,,,,,,,,,,,,,,,,,,,,,,,,,,,,,,,,,,,,,,,,,,,,,,,,,,,,,,,,,,,,,,,,,,,,,,,,,,,,,,,,,,,,,,,,,,,
0,84,84,20,1,,6134a29257aec791154425ae,62c53b2290b4718b2075a7bc,2022-07-06_09h35.19.402,Colour_Asymmetry_Pilot,2022.1.3,Win32,59.99520038,62c50e9c1127f2cd403a315f,,,,,,,,,,,,,,,,,,,,,,,,,,,,,,,,,,,,,,,,,,,,,,,,,,,,,,,,,,,,,,,,,,,,,,,,,,,,,,,,,,,,,,,,,,,,,,,,,,,,,,,,,,,,,,,,,,,,,,,,,,,,,,,,,,,,,,,,,,,,,,,,,,,,,,,,,,,,,,,,,,,
0,85,85,61,1,,6134a29257aec791154425ae,62c53b2290b4718b2075a7bc,2022-07-06_09h35.19.402,Colour_Asymmetry_Pilot,2022.1.3,Win32,59.99520038,62c50e9c1127f2cd403a315f,,,,,,,,,,,,,,,,,,,,,,,,,,,,,,,,,,,,,,,,,,,,,,,,,,,,,,,,,,,,,,,,,,,,,,,,,,,,,,,,,,,,,,,,,,,,,,,,,,,,,,,,,,,,,,,,,,,,,,,,,,,,,,,,,,,,,,,,,,,,,,,,,,,,,,,,,,,,,,,,,,,
0,86,86,73,1,,6134a29257aec791154425ae,62c53b2290b4718b2075a7bc,2022-07-06_09h35.19.402,Colour_Asymmetry_Pilot,2022.1.3,Win32,59.99520038,62c50e9c1127f2cd403a315f,,,,,,,,,,,,,,,,,,,,,,,,,,,,,,,,,,,,,,,,,,,,,,,,,,,,,,,,,,,,,,,,,,,,,,,,,,,,,,,,,,,,,,,,,,,,,,,,,,,,,,,,,,,,,,,,,,,,,,,,,,,,,,,,,,,,,,,,,,,,,,,,,,,,,,,,,,,,,,,,,,,
0,87,87,14,1,,6134a29257aec791154425ae,62c53b2290b4718b2075a7bc,2022-07-06_09h35.19.402,Colour_Asymmetry_Pilot,2022.1.3,Win32,59.99520038,62c50e9c1127f2cd403a315f,,,,,,,,,,,,,,,,,,,,,,,,,,,,,,,,,,,,,,,,,,,,,,,,,,,,,,,,,,,,,,,,,,,,,,,,,,,,,,,,,,,,,,,,,,,,,,,,,,,,,,,,,,,,,,,,,,,,,,,,,,,,,,,,,,,,,,,,,,,,,,,,,,,,,,,,,,,,,,,,,,,
0,88,88,62,1,,6134a29257aec791154425ae,62c53b2290b4718b2075a7bc,2022-07-06_09h35.19.402,Colour_Asymmetry_Pilot,2022.1.3,Win32,59.99520038,62c50e9c1127f2cd403a315f,,,,,,,,,,,,,,,,,,,,,,,,,,,,,,,,,,,,,,,,,,,,,,,,,,,,,,,,,,,,,,,,,,,,,,,,,,,,,,,,,,,,,,,,,,,,,,,,,,,,,,,,,,,,,,,,,,,,,,,,,,,,,,,,,,,,,,,,,,,,,,,,,,,,,,,,,,,,,,,,,,,
0,89,89,18,1,,6134a29257aec791154425ae,62c53b2290b4718b2075a7bc,2022-07-06_09h35.19.402,Colour_Asymmetry_Pilot,2022.1.3,Win32,59.99520038,62c50e9c1127f2cd403a315f,,,,,,,,,,,,,,,,,,,,,,,,,,,,,,,,,,,,,,,,,,,,,,,,,,,,,,,,,,,,,,,,,,,,,,,,,,,,,,,,,,,,,,,,,,,,,,,,,,,,,,,,,,,,,,,,,,,,,,,,,,,,,,,,,,,,,,,,,,,,,,,,,,,,,,,,,,,,,,,,,,,
0,90,90,55,1,,6134a29257aec791154425ae,62c53b2290b4718b2075a7bc,2022-07-06_09h35.19.402,Colour_Asymmetry_Pilot,2022.1.3,Win32,59.99520038,62c50e9c1127f2cd403a315f,,,,,,,,,,,,,,,,,,,,,,,,,,,,,,,,,,,,,,,,,,,,,,,,,,,,,,,,,,,,,,,,,,,,,,,,,,,,,,,,,,,,,,,,,,,,,,,,,,,,,,,,,,,,,,,,,,,,,,,,,,,,,,,,,,,,,,,,,,,,,,,,,,,,,,,,,,,,,,,,,,,
0,91,91,13,1,,6134a29257aec791154425ae,62c53b2290b4718b2075a7bc,2022-07-06_09h35.19.402,Colour_Asymmetry_Pilot,2022.1.3,Win32,59.99520038,62c50e9c1127f2cd403a315f,,,,,,,,,,,,,,,,,,,,,,,,,,,,,,,,,,,,,,,,,,,,,,,,,,,,,,,,,,,,,,,,,,,,,,,,,,,,,,,,,,,,,,,,,,,,,,,,,,,,,,,,,,,,,,,,,,,,,,,,,,,,,,,,,,,,,,,,,,,,,,,,,,,,,,,,,,,,,,,,,,,
0,92,92,64,1,,6134a29257aec791154425ae,62c53b2290b4718b2075a7bc,2022-07-06_09h35.19.402,Colour_Asymmetry_Pilot,2022.1.3,Win32,59.99520038,62c50e9c1127f2cd403a315f,,,,,,,,,,,,,,,,,,,,,,,,,,,,,,,,,,,,,,,,,,,,,,,,,,,,,,,,,,,,,,,,,,,,,,,,,,,,,,,,,,,,,,,,,,,,,,,,,,,,,,,,,,,,,,,,,,,,,,,,,,,,,,,,,,,,,,,,,,,,,,,,,,,,,,,,,,,,,,,,,,,
,,,,,,6134a29257aec791154425ae,62c53b2290b4718b2075a7bc,2022-07-06_09h35.19.402,Colour_Asymmetry_Pilot,2022.1.3,Win32,59.99520038,62c50e9c1127f2cd403a315f,0,0,0,123,1,twofour,,,,,,,,,,,,,,,,,,,,,,,,,,,,,,,,,,,,,,,,,,,,,,,,,,,,,,,,,,,,,,,,,,,,,,,,,,,,,,,,,,,,,,,,,,,,,,,,,,,,,,,,,,,,,,,,,,,,,,,,,,,,,,,,,,,,,,,,,,,,,,,,,,,,,,,,,,,,,
,,,,,,6134a29257aec791154425ae,62c53b2290b4718b2075a7bc,2022-07-06_09h35.19.402,Colour_Asymmetry_Pilot,2022.1.3,Win32,59.99520038,62c50e9c1127f2cd403a315f,0,1,1,104,1,onetwo,,,,,,,,,,,,,,,,,,,,,,,,,,,,,,,,,,,,,,,,,,,,,,,,,,,,,,,,,,,,,,,,,,,,,,,,,,,,,,,,,,,,,,,,,,,,,,,,,,,,,,,,,,,,,,,,,,,,,,,,,,,,,,,,,,,,,,,,,,,,,,,,,,,,,,,,,,,,,
,,,,,,6134a29257aec791154425ae,62c53b2290b4718b2075a7bc,2022-07-06_09h35.19.402,Colour_Asymmetry_Pilot,2022.1.3,Win32,59.99520038,62c50e9c1127f2cd403a315f,0,2,2,120,1,onetwo,,,,,,,,,,,,,,,,,,,,,,,,,,,,,,,,,,,,,,,,,,,,,,,,,,,,,,,,,,,,,,,,,,,,,,,,,,,,,,,,,,,,,,,,,,,,,,,,,,,,,,,,,,,,,,,,,,,,,,,,,,,,,,,,,,,,,,,,,,,,,,,,,,,,,,,,,,,,,
,,,,,,6134a29257aec791154425ae,62c53b2290b4718b2075a7bc,2022-07-06_09h35.19.402,Colour_Asymmetry_Pilot,2022.1.3,Win32,59.99520038,62c50e9c1127f2cd403a315f,0,3,3,84,1,threeone,,,,,,,,,,,,,,,,,,,,,,,,,,,,,,,,,,,,,,,,,,,,,,,,,,,,,,,,,,,,,,,,,,,,,,,,,,,,,,,,,,,,,,,,,,,,,,,,,,,,,,,,,,,,,,,,,,,,,,,,,,,,,,,,,,,,,,,,,,,,,,,,,,,,,,,,,,,,,
,,,,,,6134a29257aec791154425ae,62c53b2290b4718b2075a7bc,2022-07-06_09h35.19.402,Colour_Asymmetry_Pilot,2022.1.3,Win32,59.99520038,62c50e9c1127f2cd403a315f,0,4,4,83,1,twofour,,,,,,,,,,,,,,,,,,,,,,,,,,,,,,,,,,,,,,,,,,,,,,,,,,,,,,,,,,,,,,,,,,,,,,,,,,,,,,,,,,,,,,,,,,,,,,,,,,,,,,,,,,,,,,,,,,,,,,,,,,,,,,,,,,,,,,,,,,,,,,,,,,,,,,,,,,,,,
,,,,,,6134a29257aec791154425ae,62c53b2290b4718b2075a7bc,2022-07-06_09h35.19.402,Colour_Asymmetry_Pilot,2022.1.3,Win32,59.99520038,62c50e9c1127f2cd403a315f,0,5,5,48,1,onetwo,,,,,,,,,,,,,,,,,,,,,,,,,,,,,,,,,,,,,,,,,,,,,,,,,,,,,,,,,,,,,,,,,,,,,,,,,,,,,,,,,,,,,,,,,,,,,,,,,,,,,,,,,,,,,,,,,,,,,,,,,,,,,,,,,,,,,,,,,,,,,,,,,,,,,,,,,,,,,
,,,,,,6134a29257aec791154425ae,62c53b2290b4718b2075a7bc,2022-07-06_09h35.19.402,Colour_Asymmetry_Pilot,2022.1.3,Win32,59.99520038,62c50e9c1127f2cd403a315f,0,6,6,36,1,threeone,,,,,,,,,,,,,,,,,,,,,,,,,,,,,,,,,,,,,,,,,,,,,,,,,,,,,,,,,,,,,,,,,,,,,,,,,,,,,,,,,,,,,,,,,,,,,,,,,,,,,,,,,,,,,,,,,,,,,,,,,,,,,,,,,,,,,,,,,,,,,,,,,,,,,,,,,,,,,
,,,,,,6134a29257aec791154425ae,62c53b2290b4718b2075a7bc,2022-07-06_09h35.19.402,Colour_Asymmetry_Pilot,2022.1.3,Win32,59.99520038,62c50e9c1127f2cd403a315f,0,7,7,119,1,fourthree,,,,,,,,,,,,,,,,,,,,,,,,,,,,,,,,,,,,,,,,,,,,,,,,,,,,,,,,,,,,,,,,,,,,,,,,,,,,,,,,,,,,,,,,,,,,,,,,,,,,,,,,,,,,,,,,,,,,,,,,,,,,,,,,,,,,,,,,,,,,,,,,,,,,,,,,,,,,,
,,,,,,6134a29257aec791154425ae,62c53b2290b4718b2075a7bc,2022-07-06_09h35.19.402,Colour_Asymmetry_Pilot,2022.1.3,Win32,59.99520038,62c50e9c1127f2cd403a315f,0,8,8,64,1,onetwo,,,,,,,,,,,,,,,,,,,,,,,,,,,,,,,,,,,,,,,,,,,,,,,,,,,,,,,,,,,,,,,,,,,,,,,,,,,,,,,,,,,,,,,,,,,,,,,,,,,,,,,,,,,,,,,,,,,,,,,,,,,,,,,,,,,,,,,,,,,,,,,,,,,,,,,,,,,,,
,,,,,,6134a29257aec791154425ae,62c53b2290b4718b2075a7bc,2022-07-06_09h35.19.402,Colour_Asymmetry_Pilot,2022.1.3,Win32,59.99520038,62c50e9c1127f2cd403a315f,0,9,9,136,1,onetwo,,,,,,,,,,,,,,,,,,,,,,,,,,,,,,,,,,,,,,,,,,,,,,,,,,,,,,,,,,,,,,,,,,,,,,,,,,,,,,,,,,,,,,,,,,,,,,,,,,,,,,,,,,,,,,,,,,,,,,,,,,,,,,,,,,,,,,,,,,,,,,,,,,,,,,,,,,,,,
,,,,,,6134a29257aec791154425ae,62c53b2290b4718b2075a7bc,2022-07-06_09h35.19.402,Colour_Asymmetry_Pilot,2022.1.3,Win32,59.99520038,62c50e9c1127f2cd403a315f,0,10,10,49,1,onethree,,,,,,,,,,,,,,,,,,,,,,,,,,,,,,,,,,,,,,,,,,,,,,,,,,,,,,,,,,,,,,,,,,,,,,,,,,,,,,,,,,,,,,,,,,,,,,,,,,,,,,,,,,,,,,,,,,,,,,,,,,,,,,,,,,,,,,,,,,,,,,,,,,,,,,,,,,,,,
,,,,,,6134a29257aec791154425ae,62c53b2290b4718b2075a7bc,2022-07-06_09h35.19.402,Colour_Asymmetry_Pilot,2022.1.3,Win32,59.99520038,62c50e9c1127f2cd403a315f,0,11,11,151,1,fourthree,,,,,,,,,,,,,,,,,,,,,,,,,,,,,,,,,,,,,,,,,,,,,,,,,,,,,,,,,,,,,,,,,,,,,,,,,,,,,,,,,,,,,,,,,,,,,,,,,,,,,,,,,,,,,,,,,,,,,,,,,,,,,,,,,,,,,,,,,,,,,,,,,,,,,,,,,,,,,
,,,,,,6134a29257aec791154425ae,62c53b2290b4718b2075a7bc,2022-07-06_09h35.19.402,Colour_Asymmetry_Pilot,2022.1.3,Win32,59.99520038,62c50e9c1127f2cd403a315f,0,12,12,17,1,onethree,,,,,,,,,,,,,,,,,,,,,,,,,,,,,,,,,,,,,,,,,,,,,,,,,,,,,,,,,,,,,,,,,,,,,,,,,,,,,,,,,,,,,,,,,,,,,,,,,,,,,,,,,,,,,,,,,,,,,,,,,,,,,,,,,,,,,,,,,,,,,,,,,,,,,,,,,,,,,
,,,,,,6134a29257aec791154425ae,62c53b2290b4718b2075a7bc,2022-07-06_09h35.19.402,Colour_Asymmetry_Pilot,2022.1.3,Win32,59.99520038,62c50e9c1127f2cd403a315f,0,13,13,41,1,onethree,,,,,,,,,,,,,,,,,,,,,,,,,,,,,,,,,,,,,,,,,,,,,,,,,,,,,,,,,,,,,,,,,,,,,,,,,,,,,,,,,,,,,,,,,,,,,,,,,,,,,,,,,,,,,,,,,,,,,,,,,,,,,,,,,,,,,,,,,,,,,,,,,,,,,,,,,,,,,
,,,,,,6134a29257aec791154425ae,62c53b2290b4718b2075a7bc,2022-07-06_09h35.19.402,Colour_Asymmetry_Pilot,2022.1.3,Win32,59.99520038,62c50e9c1127f2cd403a315f,0,14,14,6,1,fourtwo,,,,,,,,,,,,,,,,,,,,,,,,,,,,,,,,,,,,,,,,,,,,,,,,,,,,,,,,,,,,,,,,,,,,,,,,,,,,,,,,,,,,,,,,,,,,,,,,,,,,,,,,,,,,,,,,,,,,,,,,,,,,,,,,,,,,,,,,,,,,,,,,,,,,,,,,,,,,,
,,,,,,6134a29257aec791154425ae,62c53b2290b4718b2075a7bc,2022-07-06_09h35.19.402,Colour_Asymmetry_Pilot,2022.1.3,Win32,59.99520038,62c50e9c1127f2cd403a315f,0,15,15,107,1,twofour,,,,,,,,,,,,,,,,,,,,,,,,,,,,,,,,,,,,,,,,,,,,,,,,,,,,,,,,,,,,,,,,,,,,,,,,,,,,,,,,,,,,,,,,,,,,,,,,,,,,,,,,,,,,,,,,,,,,,,,,,,,,,,,,,,,,,,,,,,,,,,,,,,,,,,,,,,,,,
,,,,,,6134a29257aec791154425ae,62c53b2290b4718b2075a7bc,2022-07-06_09h35.19.402,Colour_Asymmetry_Pilot,2022.1.3,Win32,59.99520038,62c50e9c1127f2cd403a315f,0,16,16,16,1,onetwo,,,,,,,,,,,,,,,,,,,,,,,,,,,,,,,,,,,,,,,,,,,,,,,,,,,,,,,,,,,,,,,,,,,,,,,,,,,,,,,,,,,,,,,,,,,,,,,,,,,,,,,,,,,,,,,,,,,,,,,,,,,,,,,,,,,,,,,,,,,,,,,,,,,,,,,,,,,,,
,,,,,,6134a29257aec791154425ae,62c53b2290b4718b2075a7bc,2022-07-06_09h35.19.402,Colour_Asymmetry_Pilot,2022.1.3,Win32,59.99520038,62c50e9c1127f2cd403a315f,0,17,17,146,1,twoone,,,,,,,,,,,,,,,,,,,,,,,,,,,,,,,,,,,,,,,,,,,,,,,,,,,,,,,,,,,,,,,,,,,,,,,,,,,,,,,,,,,,,,,,,,,,,,,,,,,,,,,,,,,,,,,,,,,,,,,,,,,,,,,,,,,,,,,,,,,,,,,,,,,,,,,,,,,,,
,,,,,,6134a29257aec791154425ae,62c53b2290b4718b2075a7bc,2022-07-06_09h35.19.402,Colour_Asymmetry_Pilot,2022.1.3,Win32,59.99520038,62c50e9c1127f2cd403a315f,0,18,18,55,1,fourthree,,,,,,,,,,,,,,,,,,,,,,,,,,,,,,,,,,,,,,,,,,,,,,,,,,,,,,,,,,,,,,,,,,,,,,,,,,,,,,,,,,,,,,,,,,,,,,,,,,,,,,,,,,,,,,,,,,,,,,,,,,,,,,,,,,,,,,,,,,,,,,,,,,,,,,,,,,,,,
,,,,,,6134a29257aec791154425ae,62c53b2290b4718b2075a7bc,2022-07-06_09h35.19.402,Colour_Asymmetry_Pilot,2022.1.3,Win32,59.99520038,62c50e9c1127f2cd403a315f,0,19,19,79,1,fourthree,,,,,,,,,,,,,,,,,,,,,,,,,,,,,,,,,,,,,,,,,,,,,,,,,,,,,,,,,,,,,,,,,,,,,,,,,,,,,,,,,,,,,,,,,,,,,,,,,,,,,,,,,,,,,,,,,,,,,,,,,,,,,,,,,,,,,,,,,,,,,,,,,,,,,,,,,,,,,
,,,,,,6134a29257aec791154425ae,62c53b2290b4718b2075a7bc,2022-07-06_09h35.19.402,Colour_Asymmetry_Pilot,2022.1.3,Win32,59.99520038,62c50e9c1127f2cd403a315f,0,20,20,145,1,onethree,,,,,,,,,,,,,,,,,,,,,,,,,,,,,,,,,,,,,,,,,,,,,,,,,,,,,,,,,,,,,,,,,,,,,,,,,,,,,,,,,,,,,,,,,,,,,,,,,,,,,,,,,,,,,,,,,,,,,,,,,,,,,,,,,,,,,,,,,,,,,,,,,,,,,,,,,,,,,
,,,,,,6134a29257aec791154425ae,62c53b2290b4718b2075a7bc,2022-07-06_09h35.19.402,Colour_Asymmetry_Pilot,2022.1.3,Win32,59.99520038,62c50e9c1127f2cd403a315f,0,21,21,141,1,threefour,,,,,,,,,,,,,,,,,,,,,,,,,,,,,,,,,,,,,,,,,,,,,,,,,,,,,,,,,,,,,,,,,,,,,,,,,,,,,,,,,,,,,,,,,,,,,,,,,,,,,,,,,,,,,,,,,,,,,,,,,,,,,,,,,,,,,,,,,,,,,,,,,,,,,,,,,,,,,
,,,,,,6134a29257aec791154425ae,62c53b2290b4718b2075a7bc,2022-07-06_09h35.19.402,Colour_Asymmetry_Pilot,2022.1.3,Win32,59.99520038,62c50e9c1127f2cd403a315f,0,22,22,80,1,onetwo,,,,,,,,,,,,,,,,,,,,,,,,,,,,,,,,,,,,,,,,,,,,,,,,,,,,,,,,,,,,,,,,,,,,,,,,,,,,,,,,,,,,,,,,,,,,,,,,,,,,,,,,,,,,,,,,,,,,,,,,,,,,,,,,,,,,,,,,,,,,,,,,,,,,,,,,,,,,,
,,,,,,6134a29257aec791154425ae,62c53b2290b4718b2075a7bc,2022-07-06_09h35.19.402,Colour_Asymmetry_Pilot,2022.1.3,Win32,59.99520038,62c50e9c1127f2cd403a315f,0,23,23,147,1,twofour,,,,,,,,,,,,,,,,,,,,,,,,,,,,,,,,,,,,,,,,,,,,,,,,,,,,,,,,,,,,,,,,,,,,,,,,,,,,,,,,,,,,,,,,,,,,,,,,,,,,,,,,,,,,,,,,,,,,,,,,,,,,,,,,,,,,,,,,,,,,,,,,,,,,,,,,,,,,,
,,,,,,6134a29257aec791154425ae,62c53b2290b4718b2075a7bc,2022-07-06_09h35.19.402,Colour_Asymmetry_Pilot,2022.1.3,Win32,59.99520038,62c50e9c1127f2cd403a315f,0,24,24,160,1,onetwo,,,,,,,,,,,,,,,,,,,,,,,,,,,,,,,,,,,,,,,,,,,,,,,,,,,,,,,,,,,,,,,,,,,,,,,,,,,,,,,,,,,,,,,,,,,,,,,,,,,,,,,,,,,,,,,,,,,,,,,,,,,,,,,,,,,,,,,,,,,,,,,,,,,,,,,,,,,,,
,,,,,,6134a29257aec791154425ae,62c53b2290b4718b2075a7bc,2022-07-06_09h35.19.402,Colour_Asymmetry_Pilot,2022.1.3,Win32,59.99520038,62c50e9c1127f2cd403a315f,0,25,25,156,1,threeone,,,,,,,,,,,,,,,,,,,,,,,,,,,,,,,,,,,,,,,,,,,,,,,,,,,,,,,,,,,,,,,,,,,,,,,,,,,,,,,,,,,,,,,,,,,,,,,,,,,,,,,,,,,,,,,,,,,,,,,,,,,,,,,,,,,,,,,,,,,,,,,,,,,,,,,,,,,,,
,,,,,,6134a29257aec791154425ae,62c53b2290b4718b2075a7bc,2022-07-06_09h35.19.402,Colour_Asymmetry_Pilot,2022.1.3,Win32,59.99520038,62c50e9c1127f2cd403a315f,0,26,26,28,1,threeone,,,,,,,,,,,,,,,,,,,,,,,,,,,,,,,,,,,,,,,,,,,,,,,,,,,,,,,,,,,,,,,,,,,,,,,,,,,,,,,,,,,,,,,,,,,,,,,,,,,,,,,,,,,,,,,,,,,,,,,,,,,,,,,,,,,,,,,,,,,,,,,,,,,,,,,,,,,,,
,,,,,,6134a29257aec791154425ae,62c53b2290b4718b2075a7bc,2022-07-06_09h35.19.402,Colour_Asymmetry_Pilot,2022.1.3,Win32,59.99520038,62c50e9c1127f2cd403a315f,0,27,27,40,1,onetwo,,,,,,,,,,,,,,,,,,,,,,,,,,,,,,,,,,,,,,,,,,,,,,,,,,,,,,,,,,,,,,,,,,,,,,,,,,,,,,,,,,,,,,,,,,,,,,,,,,,,,,,,,,,,,,,,,,,,,,,,,,,,,,,,,,,,,,,,,,,,,,,,,,,,,,,,,,,,,
,,,,,,6134a29257aec791154425ae,62c53b2290b4718b2075a7bc,2022-07-06_09h35.19.402,Colour_Asymmetry_Pilot,2022.1.3,Win32,59.99520038,62c50e9c1127f2cd403a315f,0,28,28,111,1,fourthree,,,,,,,,,,,,,,,,,,,,,,,,,,,,,,,,,,,,,,,,,,,,,,,,,,,,,,,,,,,,,,,,,,,,,,,,,,,,,,,,,,,,,,,,,,,,,,,,,,,,,,,,,,,,,,,,,,,,,,,,,,,,,,,,,,,,,,,,,,,,,,,,,,,,,,,,,,,,,
,,,,,,6134a29257aec791154425ae,62c53b2290b4718b2075a7bc,2022-07-06_09h35.19.402,Colour_Asymmetry_Pilot,2022.1.3,Win32,59.99520038,62c50e9c1127f2cd403a315f,0,29,29,81,1,onethree,,,,,,,,,,,,,,,,,,,,,,,,,,,,,,,,,,,,,,,,,,,,,,,,,,,,,,,,,,,,,,,,,,,,,,,,,,,,,,,,,,,,,,,,,,,,,,,,,,,,,,,,,,,,,,,,,,,,,,,,,,,,,,,,,,,,,,,,,,,,,,,,,,,,,,,,,,,,,
,,,,,,6134a29257aec791154425ae,62c53b2290b4718b2075a7bc,2022-07-06_09h35.19.402,Colour_Asymmetry_Pilot,2022.1.3,Win32,59.99520038,62c50e9c1127f2cd403a315f,0,30,30,2,1,twoone,,,,,,,,,,,,,,,,,,,,,,,,,,,,,,,,,,,,,,,,,,,,,,,,,,,,,,,,,,,,,,,,,,,,,,,,,,,,,,,,,,,,,,,,,,,,,,,,,,,,,,,,,,,,,,,,,,,,,,,,,,,,,,,,,,,,,,,,,,,,,,,,,,,,,,,,,,,,,
,,,,,,6134a29257aec791154425ae,62c53b2290b4718b2075a7bc,2022-07-06_09h35.19.402,Colour_Asymmetry_Pilot,2022.1.3,Win32,59.99520038,62c50e9c1127f2cd403a315f,0,31,31,70,1,fourtwo,,,,,,,,,,,,,,,,,,,,,,,,,,,,,,,,,,,,,,,,,,,,,,,,,,,,,,,,,,,,,,,,,,,,,,,,,,,,,,,,,,,,,,,,,,,,,,,,,,,,,,,,,,,,,,,,,,,,,,,,,,,,,,,,,,,,,,,,,,,,,,,,,,,,,,,,,,,,,
,,,,,,6134a29257aec791154425ae,62c53b2290b4718b2075a7bc,2022-07-06_09h35.19.402,Colour_Asymmetry_Pilot,2022.1.3,Win32,59.99520038,62c50e9c1127f2cd403a315f,0,32,32,65,1,onethree,,,,,,,,,,,,,,,,,,,,,,,,,,,,,,,,,,,,,,,,,,,,,,,,,,,,,,,,,,,,,,,,,,,,,,,,,,,,,,,,,,,,,,,,,,,,,,,,,,,,,,,,,,,,,,,,,,,,,,,,,,,,,,,,,,,,,,,,,,,,,,,,,,,,,,,,,,,,,
,,,,,,6134a29257aec791154425ae,62c53b2290b4718b2075a7bc,2022-07-06_09h35.19.402,Colour_Asymmetry_Pilot,2022.1.3,Win32,59.99520038,62c50e9c1127f2cd403a315f,0,33,33,11,1,twofour,,,,,,,,,,,,,,,,,,,,,,,,,,,,,,,,,,,,,,,,,,,,,,,,,,,,,,,,,,,,,,,,,,,,,,,,,,,,,,,,,,,,,,,,,,,,,,,,,,,,,,,,,,,,,,,,,,,,,,,,,,,,,,,,,,,,,,,,,,,,,,,,,,,,,,,,,,,,,
,,,,,,6134a29257aec791154425ae,62c53b2290b4718b2075a7bc,2022-07-06_09h35.19.402,Colour_Asymmetry_Pilot,2022.1.3,Win32,59.99520038,62c50e9c1127f2cd403a315f,0,34,34,0,1,onetwo,,,,,,,,,,,,,,,,,,,,,,,,,,,,,,,,,,,,,,,,,,,,,,,,,,,,,,,,,,,,,,,,,,,,,,,,,,,,,,,,,,,,,,,,,,,,,,,,,,,,,,,,,,,,,,,,,,,,,,,,,,,,,,,,,,,,,,,,,,,,,,,,,,,,,,,,,,,,,
,,,,,,6134a29257aec791154425ae,62c53b2290b4718b2075a7bc,2022-07-06_09h35.19.402,Colour_Asymmetry_Pilot,2022.1.3,Win32,59.99520038,62c50e9c1127f2cd403a315f,0,35,35,15,1,fourthree,,,,,,,,,,,,,,,,,,,,,,,,,,,,,,,,,,,,,,,,,,,,,,,,,,,,,,,,,,,,,,,,,,,,,,,,,,,,,,,,,,,,,,,,,,,,,,,,,,,,,,,,,,,,,,,,,,,,,,,,,,,,,,,,,,,,,,,,,,,,,,,,,,,,,,,,,,,,,
,,,,,,6134a29257aec791154425ae,62c53b2290b4718b2075a7bc,2022-07-06_09h35.19.402,Colour_Asymmetry_Pilot,2022.1.3,Win32,59.99520038,62c50e9c1127f2cd403a315f,0,36,36,19,1,twofour,,,,,,,,,,,,,,,,,,,,,,,,,,,,,,,,,,,,,,,,,,,,,,,,,,,,,,,,,,,,,,,,,,,,,,,,,,,,,,,,,,,,,,,,,,,,,,,,,,,,,,,,,,,,,,,,,,,,,,,,,,,,,,,,,,,,,,,,,,,,,,,,,,,,,,,,,,,,,
,,,,,,6134a29257aec791154425ae,62c53b2290b4718b2075a7bc,2022-07-06_09h35.19.402,Colour_Asymmetry_Pilot,2022.1.3,Win32,59.99520038,62c50e9c1127f2cd403a315f,0,37,37,68,1,threeone,,,,,,,,,,,,,,,,,,,,,,,,,,,,,,,,,,,,,,,,,,,,,,,,,,,,,,,,,,,,,,,,,,,,,,,,,,,,,,,,,,,,,,,,,,,,,,,,,,,,,,,,,,,,,,,,,,,,,,,,,,,,,,,,,,,,,,,,,,,,,,,,,,,,,,,,,,,,,
,,,,,,6134a29257aec791154425ae,62c53b2290b4718b2075a7bc,2022-07-06_09h35.19.402,Colour_Asymmetry_Pilot,2022.1.3,Win32,59.99520038,62c50e9c1127f2cd403a315f,0,38,38,105,1,onethree,,,,,,,,,,,,,,,,,,,,,,,,,,,,,,,,,,,,,,,,,,,,,,,,,,,,,,,,,,,,,,,,,,,,,,,,,,,,,,,,,,,,,,,,,,,,,,,,,,,,,,,,,,,,,,,,,,,,,,,,,,,,,,,,,,,,,,,,,,,,,,,,,,,,,,,,,,,,,
,,,,,,6134a29257aec791154425ae,62c53b2290b4718b2075a7bc,2022-07-06_09h35.19.402,Colour_Asymmetry_Pilot,2022.1.3,Win32,59.99520038,62c50e9c1127f2cd403a315f,0,39,39,152,1,onetwo,,,,,,,,,,,,,,,,,,,,,,,,,,,,,,,,,,,,,,,,,,,,,,,,,,,,,,,,,,,,,,,,,,,,,,,,,,,,,,,,,,,,,,,,,,,,,,,,,,,,,,,,,,,,,,,,,,,,,,,,,,,,,,,,,,,,,,,,,,,,,,,,,,,,,,,,,,,,,
,,,,,,6134a29257aec791154425ae,62c53b2290b4718b2075a7bc,2022-07-06_09h35.19.402,Colour_Asymmetry_Pilot,2022.1.3,Win32,59.99520038,62c50e9c1127f2cd403a315f,0,40,40,159,1,fourthree,,,,,,,,,,,,,,,,,,,,,,,,,,,,,,,,,,,,,,,,,,,,,,,,,,,,,,,,,,,,,,,,,,,,,,,,,,,,,,,,,,,,,,,,,,,,,,,,,,,,,,,,,,,,,,,,,,,,,,,,,,,,,,,,,,,,,,,,,,,,,,,,,,,,,,,,,,,,,
,,,,,,6134a29257aec791154425ae,62c53b2290b4718b2075a7bc,2022-07-06_09h35.19.402,Colour_Asymmetry_Pilot,2022.1.3,Win32,59.99520038,62c50e9c1127f2cd403a315f,0,41,41,18,1,twoone,,,,,,,,,,,,,,,,,,,,,,,,,,,,,,,,,,,,,,,,,,,,,,,,,,,,,,,,,,,,,,,,,,,,,,,,,,,,,,,,,,,,,,,,,,,,,,,,,,,,,,,,,,,,,,,,,,,,,,,,,,,,,,,,,,,,,,,,,,,,,,,,,,,,,,,,,,,,,
,,,,,,6134a29257aec791154425ae,62c53b2290b4718b2075a7bc,2022-07-06_09h35.19.402,Colour_Asymmetry_Pilot,2022.1.3,Win32,59.99520038,62c50e9c1127f2cd403a315f,0,42,42,110,1,fourtwo,,,,,,,,,,,,,,,,,,,,,,,,,,,,,,,,,,,,,,,,,,,,,,,,,,,,,,,,,,,,,,,,,,,,,,,,,,,,,,,,,,,,,,,,,,,,,,,,,,,,,,,,,,,,,,,,,,,,,,,,,,,,,,,,,,,,,,,,,,,,,,,,,,,,,,,,,,,,,
,,,,,,6134a29257aec791154425ae,62c53b2290b4718b2075a7bc,2022-07-06_09h35.19.402,Colour_Asymmetry_Pilot,2022.1.3,Win32,59.99520038,62c50e9c1127f2cd403a315f,0,43,43,114,1,twoone,,,,,,,,,,,,,,,,,,,,,,,,,,,,,,,,,,,,,,,,,,,,,,,,,,,,,,,,,,,,,,,,,,,,,,,,,,,,,,,,,,,,,,,,,,,,,,,,,,,,,,,,,,,,,,,,,,,,,,,,,,,,,,,,,,,,,,,,,,,,,,,,,,,,,,,,,,,,,
,,,,,,6134a29257aec791154425ae,62c53b2290b4718b2075a7bc,2022-07-06_09h35.19.402,Colour_Asymmetry_Pilot,2022.1.3,Win32,59.99520038,62c50e9c1127f2cd403a315f,0,44,44,132,1,threeone,,,,,,,,,,,,,,,,,,,,,,,,,,,,,,,,,,,,,,,,,,,,,,,,,,,,,,,,,,,,,,,,,,,,,,,,,,,,,,,,,,,,,,,,,,,,,,,,,,,,,,,,,,,,,,,,,,,,,,,,,,,,,,,,,,,,,,,,,,,,,,,,,,,,,,,,,,,,,
,,,,,,6134a29257aec791154425ae,62c53b2290b4718b2075a7bc,2022-07-06_09h35.19.402,Colour_Asymmetry_Pilot,2022.1.3,Win32,59.99520038,62c50e9c1127f2cd403a315f,0,45,45,122,1,twoone,,,,,,,,,,,,,,,,,,,,,,,,,,,,,,,,,,,,,,,,,,,,,,,,,,,,,,,,,,,,,,,,,,,,,,,,,,,,,,,,,,,,,,,,,,,,,,,,,,,,,,,,,,,,,,,,,,,,,,,,,,,,,,,,,,,,,,,,,,,,,,,,,,,,,,,,,,,,,
,,,,,,6134a29257aec791154425ae,62c53b2290b4718b2075a7bc,2022-07-06_09h35.19.402,Colour_Asymmetry_Pilot,2022.1.3,Win32,59.99520038,62c50e9c1127f2cd403a315f,0,46,46,8,1,onetwo,,,,,,,,,,,,,,,,,,,,,,,,,,,,,,,,,,,,,,,,,,,,,,,,,,,,,,,,,,,,,,,,,,,,,,,,,,,,,,,,,,,,,,,,,,,,,,,,,,,,,,,,,,,,,,,,,,,,,,,,,,,,,,,,,,,,,,,,,,,,,,,,,,,,,,,,,,,,,
,,,,,,6134a29257aec791154425ae,62c53b2290b4718b2075a7bc,2022-07-06_09h35.19.402,Colour_Asymmetry_Pilot,2022.1.3,Win32,59.99520038,62c50e9c1127f2cd403a315f,0,47,47,71,1,fourthree,,,,,,,,,,,,,,,,,,,,,,,,,,,,,,,,,,,,,,,,,,,,,,,,,,,,,,,,,,,,,,,,,,,,,,,,,,,,,,,,,,,,,,,,,,,,,,,,,,,,,,,,,,,,,,,,,,,,,,,,,,,,,,,,,,,,,,,,,,,,,,,,,,,,,,,,,,,,,
,,,,,,6134a29257aec791154425ae,62c53b2290b4718b2075a7bc,2022-07-06_09h35.19.402,Colour_Asymmetry_Pilot,2022.1.3,Win32,59.99520038,62c50e9c1127f2cd403a315f,0,48,48,135,1,fourthree,,,,,,,,,,,,,,,,,,,,,,,,,,,,,,,,,,,,,,,,,,,,,,,,,,,,,,,,,,,,,,,,,,,,,,,,,,,,,,,,,,,,,,,,,,,,,,,,,,,,,,,,,,,,,,,,,,,,,,,,,,,,,,,,,,,,,,,,,,,,,,,,,,,,,,,,,,,,,
,,,,,,6134a29257aec791154425ae,62c53b2290b4718b2075a7bc,2022-07-06_09h35.19.402,Colour_Asymmetry_Pilot,2022.1.3,Win32,59.99520038,62c50e9c1127f2cd403a315f,0,49,49,130,1,twoone,,,,,,,,,,,,,,,,,,,,,,,,,,,,,,,,,,,,,,,,,,,,,,,,,,,,,,,,,,,,,,,,,,,,,,,,,,,,,,,,,,,,,,,,,,,,,,,,,,,,,,,,,,,,,,,,,,,,,,,,,,,,,,,,,,,,,,,,,,,,,,,,,,,,,,,,,,,,,
,,,,,,6134a29257aec791154425ae,62c53b2290b4718b2075a7bc,2022-07-06_09h35.19.402,Colour_Asymmetry_Pilot,2022.1.3,Win32,59.99520038,62c50e9c1127f2cd403a315f,0,50,50,33,1,onethree,,,,,,,,,,,,,,,,,,,,,,,,,,,,,,,,,,,,,,,,,,,,,,,,,,,,,,,,,,,,,,,,,,,,,,,,,,,,,,,,,,,,,,,,,,,,,,,,,,,,,,,,,,,,,,,,,,,,,,,,,,,,,,,,,,,,,,,,,,,,,,,,,,,,,,,,,,,,,
,,,,,,6134a29257aec791154425ae,62c53b2290b4718b2075a7bc,2022-07-06_09h35.19.402,Colour_Asymmetry_Pilot,2022.1.3,Win32,59.99520038,62c50e9c1127f2cd403a315f,0,51,51,85,1,threefour,,,,,,,,,,,,,,,,,,,,,,,,,,,,,,,,,,,,,,,,,,,,,,,,,,,,,,,,,,,,,,,,,,,,,,,,,,,,,,,,,,,,,,,,,,,,,,,,,,,,,,,,,,,,,,,,,,,,,,,,,,,,,,,,,,,,,,,,,,,,,,,,,,,,,,,,,,,,,
,,,,,,6134a29257aec791154425ae,62c53b2290b4718b2075a7bc,2022-07-06_09h35.19.402,Colour_Asymmetry_Pilot,2022.1.3,Win32,59.99520038,62c50e9c1127f2cd403a315f,0,52,52,115,1,twofour,,,,,,,,,,,,,,,,,,,,,,,,,,,,,,,,,,,,,,,,,,,,,,,,,,,,,,,,,,,,,,,,,,,,,,,,,,,,,,,,,,,,,,,,,,,,,,,,,,,,,,,,,,,,,,,,,,,,,,,,,,,,,,,,,,,,,,,,,,,,,,,,,,,,,,,,,,,,,
,,,,,,6134a29257aec791154425ae,62c53b2290b4718b2075a7bc,2022-07-06_09h35.19.402,Colour_Asymmetry_Pilot,2022.1.3,Win32,59.99520038,62c50e9c1127f2cd403a315f,0,53,53,27,1,twofour,,,,,,,,,,,,,,,,,,,,,,,,,,,,,,,,,,,,,,,,,,,,,,,,,,,,,,,,,,,,,,,,,,,,,,,,,,,,,,,,,,,,,,,,,,,,,,,,,,,,,,,,,,,,,,,,,,,,,,,,,,,,,,,,,,,,,,,,,,,,,,,,,,,,,,,,,,,,,
,,,,,,6134a29257aec791154425ae,62c53b2290b4718b2075a7bc,2022-07-06_09h35.19.402,Colour_Asymmetry_Pilot,2022.1.3,Win32,59.99520038,62c50e9c1127f2cd403a315f,0,54,54,102,1,fourtwo,,,,,,,,,,,,,,,,,,,,,,,,,,,,,,,,,,,,,,,,,,,,,,,,,,,,,,,,,,,,,,,,,,,,,,,,,,,,,,,,,,,,,,,,,,,,,,,,,,,,,,,,,,,,,,,,,,,,,,,,,,,,,,,,,,,,,,,,,,,,,,,,,,,,,,,,,,,,,
,,,,,,6134a29257aec791154425ae,62c53b2290b4718b2075a7bc,2022-07-06_09h35.19.402,Colour_Asymmetry_Pilot,2022.1.3,Win32,59.99520038,62c50e9c1127f2cd403a315f,0,55,55,117,1,threefour,,,,,,,,,,,,,,,,,,,,,,,,,,,,,,,,,,,,,,,,,,,,,,,,,,,,,,,,,,,,,,,,,,,,,,,,,,,,,,,,,,,,,,,,,,,,,,,,,,,,,,,,,,,,,,,,,,,,,,,,,,,,,,,,,,,,,,,,,,,,,,,,,,,,,,,,,,,,,
,,,,,,6134a29257aec791154425ae,62c53b2290b4718b2075a7bc,2022-07-06_09h35.19.402,Colour_Asymmetry_Pilot,2022.1.3,Win32,59.99520038,62c50e9c1127f2cd403a315f,0,56,56,63,1,fourthree,,,,,,,,,,,,,,,,,,,,,,,,,,,,,,,,,,,,,,,,,,,,,,,,,,,,,,,,,,,,,,,,,,,,,,,,,,,,,,,,,,,,,,,,,,,,,,,,,,,,,,,,,,,,,,,,,,,,,,,,,,,,,,,,,,,,,,,,,,,,,,,,,,,,,,,,,,,,,
,,,,,,6134a29257aec791154425ae,62c53b2290b4718b2075a7bc,2022-07-06_09h35.19.402,Colour_Asymmetry_Pilot,2022.1.3,Win32,59.99520038,62c50e9c1127f2cd403a315f,0,57,57,101,1,threefour,,,,,,,,,,,,,,,,,,,,,,,,,,,,,,,,,,,,,,,,,,,,,,,,,,,,,,,,,,,,,,,,,,,,,,,,,,,,,,,,,,,,,,,,,,,,,,,,,,,,,,,,,,,,,,,,,,,,,,,,,,,,,,,,,,,,,,,,,,,,,,,,,,,,,,,,,,,,,
,,,,,,6134a29257aec791154425ae,62c53b2290b4718b2075a7bc,2022-07-06_09h35.19.402,Colour_Asymmetry_Pilot,2022.1.3,Win32,59.99520038,62c50e9c1127f2cd403a315f,0,58,58,121,1,onethree,,,,,,,,,,,,,,,,,,,,,,,,,,,,,,,,,,,,,,,,,,,,,,,,,,,,,,,,,,,,,,,,,,,,,,,,,,,,,,,,,,,,,,,,,,,,,,,,,,,,,,,,,,,,,,,,,,,,,,,,,,,,,,,,,,,,,,,,,,,,,,,,,,,,,,,,,,,,,
,,,,,,6134a29257aec791154425ae,62c53b2290b4718b2075a7bc,2022-07-06_09h35.19.402,Colour_Asymmetry_Pilot,2022.1.3,Win32,59.99520038,62c50e9c1127f2cd403a315f,0,59,59,140,1,threeone,,,,,,,,,,,,,,,,,,,,,,,,,,,,,,,,,,,,,,,,,,,,,,,,,,,,,,,,,,,,,,,,,,,,,,,,,,,,,,,,,,,,,,,,,,,,,,,,,,,,,,,,,,,,,,,,,,,,,,,,,,,,,,,,,,,,,,,,,,,,,,,,,,,,,,,,,,,,,
,,,,,,6134a29257aec791154425ae,62c53b2290b4718b2075a7bc,2022-07-06_09h35.19.402,Colour_Asymmetry_Pilot,2022.1.3,Win32,59.99520038,62c50e9c1127f2cd403a315f,0,60,60,54,1,fourtwo,,,,,,,,,,,,,,,,,,,,,,,,,,,,,,,,,,,,,,,,,,,,,,,,,,,,,,,,,,,,,,,,,,,,,,,,,,,,,,,,,,,,,,,,,,,,,,,,,,,,,,,,,,,,,,,,,,,,,,,,,,,,,,,,,,,,,,,,,,,,,,,,,,,,,,,,,,,,,
,,,,,,6134a29257aec791154425ae,62c53b2290b4718b2075a7bc,2022-07-06_09h35.19.402,Colour_Asymmetry_Pilot,2022.1.3,Win32,59.99520038,62c50e9c1127f2cd403a315f,0,61,61,57,1,onethree,,,,,,,,,,,,,,,,,,,,,,,,,,,,,,,,,,,,,,,,,,,,,,,,,,,,,,,,,,,,,,,,,,,,,,,,,,,,,,,,,,,,,,,,,,,,,,,,,,,,,,,,,,,,,,,,,,,,,,,,,,,,,,,,,,,,,,,,,,,,,,,,,,,,,,,,,,,,,
,,,,,,6134a29257aec791154425ae,62c53b2290b4718b2075a7bc,2022-07-06_09h35.19.402,Colour_Asymmetry_Pilot,2022.1.3,Win32,59.99520038,62c50e9c1127f2cd403a315f,0,62,62,50,1,twoone,,,,,,,,,,,,,,,,,,,,,,,,,,,,,,,,,,,,,,,,,,,,,,,,,,,,,,,,,,,,,,,,,,,,,,,,,,,,,,,,,,,,,,,,,,,,,,,,,,,,,,,,,,,,,,,,,,,,,,,,,,,,,,,,,,,,,,,,,,,,,,,,,,,,,,,,,,,,,
,,,,,,6134a29257aec791154425ae,62c53b2290b4718b2075a7bc,2022-07-06_09h35.19.402,Colour_Asymmetry_Pilot,2022.1.3,Win32,59.99520038,62c50e9c1127f2cd403a315f,0,63,63,12,1,threeone,,,,,,,,,,,,,,,,,,,,,,,,,,,,,,,,,,,,,,,,,,,,,,,,,,,,,,,,,,,,,,,,,,,,,,,,,,,,,,,,,,,,,,,,,,,,,,,,,,,,,,,,,,,,,,,,,,,,,,,,,,,,,,,,,,,,,,,,,,,,,,,,,,,,,,,,,,,,,
,,,,,,6134a29257aec791154425ae,62c53b2290b4718b2075a7bc,2022-07-06_09h35.19.402,Colour_Asymmetry_Pilot,2022.1.3,Win32,59.99520038,62c50e9c1127f2cd403a315f,0,64,64,58,1,twoone,,,,,,,,,,,,,,,,,,,,,,,,,,,,,,,,,,,,,,,,,,,,,,,,,,,,,,,,,,,,,,,,,,,,,,,,,,,,,,,,,,,,,,,,,,,,,,,,,,,,,,,,,,,,,,,,,,,,,,,,,,,,,,,,,,,,,,,,,,,,,,,,,,,,,,,,,,,,,
,,,,,,6134a29257aec791154425ae,62c53b2290b4718b2075a7bc,2022-07-06_09h35.19.402,Colour_Asymmetry_Pilot,2022.1.3,Win32,59.99520038,62c50e9c1127f2cd403a315f,0,65,65,94,1,fourtwo,,,,,,,,,,,,,,,,,,,,,,,,,,,,,,,,,,,,,,,,,,,,,,,,,,,,,,,,,,,,,,,,,,,,,,,,,,,,,,,,,,,,,,,,,,,,,,,,,,,,,,,,,,,,,,,,,,,,,,,,,,,,,,,,,,,,,,,,,,,,,,,,,,,,,,,,,,,,,
,,,,,,6134a29257aec791154425ae,62c53b2290b4718b2075a7bc,2022-07-06_09h35.19.402,Colour_Asymmetry_Pilot,2022.1.3,Win32,59.99520038,62c50e9c1127f2cd403a315f,0,66,66,89,1,onethree,,,,,,,,,,,,,,,,,,,,,,,,,,,,,,,,,,,,,,,,,,,,,,,,,,,,,,,,,,,,,,,,,,,,,,,,,,,,,,,,,,,,,,,,,,,,,,,,,,,,,,,,,,,,,,,,,,,,,,,,,,,,,,,,,,,,,,,,,,,,,,,,,,,,,,,,,,,,,
,,,,,,6134a29257aec791154425ae,62c53b2290b4718b2075a7bc,2022-07-06_09h35.19.402,Colour_Asymmetry_Pilot,2022.1.3,Win32,59.99520038,62c50e9c1127f2cd403a315f,0,67,67,142,1,fourtwo,,,,,,,,,,,,,,,,,,,,,,,,,,,,,,,,,,,,,,,,,,,,,,,,,,,,,,,,,,,,,,,,,,,,,,,,,,,,,,,,,,,,,,,,,,,,,,,,,,,,,,,,,,,,,,,,,,,,,,,,,,,,,,,,,,,,,,,,,,,,,,,,,,,,,,,,,,,,,
,,,,,,6134a29257aec791154425ae,62c53b2290b4718b2075a7bc,2022-07-06_09h35.19.402,Colour_Asymmetry_Pilot,2022.1.3,Win32,59.99520038,62c50e9c1127f2cd403a315f,0,68,68,92,1,threeone,,,,,,,,,,,,,,,,,,,,,,,,,,,,,,,,,,,,,,,,,,,,,,,,,,,,,,,,,,,,,,,,,,,,,,,,,,,,,,,,,,,,,,,,,,,,,,,,,,,,,,,,,,,,,,,,,,,,,,,,,,,,,,,,,,,,,,,,,,,,,,,,,,,,,,,,,,,,,
,,,,,,6134a29257aec791154425ae,62c53b2290b4718b2075a7bc,2022-07-06_09h35.19.402,Colour_Asymmetry_Pilot,2022.1.3,Win32,59.99520038,62c50e9c1127f2cd403a315f,0,69,69,38,1,fourtwo,,,,,,,,,,,,,,,,,,,,,,,,,,,,,,,,,,,,,,,,,,,,,,,,,,,,,,,,,,,,,,,,,,,,,,,,,,,,,,,,,,,,,,,,,,,,,,,,,,,,,,,,,,,,,,,,,,,,,,,,,,,,,,,,,,,,,,,,,,,,,,,,,,,,,,,,,,,,,
,,,,,,6134a29257aec791154425ae,62c53b2290b4718b2075a7bc,2022-07-06_09h35.19.402,Colour_Asymmetry_Pilot,2022.1.3,Win32,59.99520038,62c50e9c1127f2cd403a315f,0,70,70,21,1,threefour,,,,,,,,,,,,,,,,,,,,,,,,,,,,,,,,,,,,,,,,,,,,,,,,,,,,,,,,,,,,,,,,,,,,,,,,,,,,,,,,,,,,,,,,,,,,,,,,,,,,,,,,,,,,,,,,,,,,,,,,,,,,,,,,,,,,,,,,,,,,,,,,,,,,,,,,,,,,,
,,,,,,6134a29257aec791154425ae,62c53b2290b4718b2075a7bc,2022-07-06_09h35.19.402,Colour_Asymmetry_Pilot,2022.1.3,Win32,59.99520038,62c50e9c1127f2cd403a315f,0,71,71,155,1,twofour,,,,,,,,,,,,,,,,,,,,,,,,,,,,,,,,,,,,,,,,,,,,,,,,,,,,,,,,,,,,,,,,,,,,,,,,,,,,,,,,,,,,,,,,,,,,,,,,,,,,,,,,,,,,,,,,,,,,,,,,,,,,,,,,,,,,,,,,,,,,,,,,,,,,,,,,,,,,,
,,,,,,6134a29257aec791154425ae,62c53b2290b4718b2075a7bc,2022-07-06_09h35.19.402,Colour_Asymmetry_Pilot,2022.1.3,Win32,59.99520038,62c50e9c1127f2cd403a315f,0,72,72,96,1,onetwo,,,,,,,,,,,,,,,,,,,,,,,,,,,,,,,,,,,,,,,,,,,,,,,,,,,,,,,,,,,,,,,,,,,,,,,,,,,,,,,,,,,,,,,,,,,,,,,,,,,,,,,,,,,,,,,,,,,,,,,,,,,,,,,,,,,,,,,,,,,,,,,,,,,,,,,,,,,,,
,,,,,,6134a29257aec791154425ae,62c53b2290b4718b2075a7bc,2022-07-06_09h35.19.402,Colour_Asymmetry_Pilot,2022.1.3,Win32,59.99520038,62c50e9c1127f2cd403a315f,0,73,73,86,1,fourtwo,,,,,,,,,,,,,,,,,,,,,,,,,,,,,,,,,,,,,,,,,,,,,,,,,,,,,,,,,,,,,,,,,,,,,,,,,,,,,,,,,,,,,,,,,,,,,,,,,,,,,,,,,,,,,,,,,,,,,,,,,,,,,,,,,,,,,,,,,,,,,,,,,,,,,,,,,,,,,
,,,,,,6134a29257aec791154425ae,62c53b2290b4718b2075a7bc,2022-07-06_09h35.19.402,Colour_Asymmetry_Pilot,2022.1.3,Win32,59.99520038,62c50e9c1127f2cd403a315f,0,74,74,143,1,fourthree,,,,,,,,,,,,,,,,,,,,,,,,,,,,,,,,,,,,,,,,,,,,,,,,,,,,,,,,,,,,,,,,,,,,,,,,,,,,,,,,,,,,,,,,,,,,,,,,,,,,,,,,,,,,,,,,,,,,,,,,,,,,,,,,,,,,,,,,,,,,,,,,,,,,,,,,,,,,,
,,,,,,6134a29257aec791154425ae,62c53b2290b4718b2075a7bc,2022-07-06_09h35.19.402,Colour_Asymmetry_Pilot,2022.1.3,Win32,59.99520038,62c50e9c1127f2cd403a315f,0,75,75,60,1,threeone,,,,,,,,,,,,,,,,,,,,,,,,,,,,,,,,,,,,,,,,,,,,,,,,,,,,,,,,,,,,,,,,,,,,,,,,,,,,,,,,,,,,,,,,,,,,,,,,,,,,,,,,,,,,,,,,,,,,,,,,,,,,,,,,,,,,,,,,,,,,,,,,,,,,,,,,,,,,,
,,,,,,6134a29257aec791154425ae,62c53b2290b4718b2075a7bc,2022-07-06_09h35.19.402,Colour_Asymmetry_Pilot,2022.1.3,Win32,59.99520038,62c50e9c1127f2cd403a315f,0,76,76,37,1,threefour,,,,,,,,,,,,,,,,,,,,,,,,,,,,,,,,,,,,,,,,,,,,,,,,,,,,,,,,,,,,,,,,,,,,,,,,,,,,,,,,,,,,,,,,,,,,,,,,,,,,,,,,,,,,,,,,,,,,,,,,,,,,,,,,,,,,,,,,,,,,,,,,,,,,,,,,,,,,,
,,,,,,6134a29257aec791154425ae,62c53b2290b4718b2075a7bc,2022-07-06_09h35.19.402,Colour_Asymmetry_Pilot,2022.1.3,Win32,59.99520038,62c50e9c1127f2cd403a315f,0,77,77,4,1,threeone,,,,,,,,,,,,,,,,,,,,,,,,,,,,,,,,,,,,,,,,,,,,,,,,,,,,,,,,,,,,,,,,,,,,,,,,,,,,,,,,,,,,,,,,,,,,,,,,,,,,,,,,,,,,,,,,,,,,,,,,,,,,,,,,,,,,,,,,,,,,,,,,,,,,,,,,,,,,,
,,,,,,6134a29257aec791154425ae,62c53b2290b4718b2075a7bc,2022-07-06_09h35.19.402,Colour_Asymmetry_Pilot,2022.1.3,Win32,59.99520038,62c50e9c1127f2cd403a315f,0,78,78,35,1,twofour,,,,,,,,,,,,,,,,,,,,,,,,,,,,,,,,,,,,,,,,,,,,,,,,,,,,,,,,,,,,,,,,,,,,,,,,,,,,,,,,,,,,,,,,,,,,,,,,,,,,,,,,,,,,,,,,,,,,,,,,,,,,,,,,,,,,,,,,,,,,,,,,,,,,,,,,,,,,,
,,,,,,6134a29257aec791154425ae,62c53b2290b4718b2075a7bc,2022-07-06_09h35.19.402,Colour_Asymmetry_Pilot,2022.1.3,Win32,59.99520038,62c50e9c1127f2cd403a315f,0,79,79,1,1,onethree,,,,,,,,,,,,,,,,,,,,,,,,,,,,,,,,,,,,,,,,,,,,,,,,,,,,,,,,,,,,,,,,,,,,,,,,,,,,,,,,,,,,,,,,,,,,,,,,,,,,,,,,,,,,,,,,,,,,,,,,,,,,,,,,,,,,,,,,,,,,,,,,,,,,,,,,,,,,,
,,,,,,6134a29257aec791154425ae,62c53b2290b4718b2075a7bc,2022-07-06_09h35.19.402,Colour_Asymmetry_Pilot,2022.1.3,Win32,59.99520038,62c50e9c1127f2cd403a315f,0,80,80,73,1,onethree,,,,,,,,,,,,,,,,,,,,,,,,,,,,,,,,,,,,,,,,,,,,,,,,,,,,,,,,,,,,,,,,,,,,,,,,,,,,,,,,,,,,,,,,,,,,,,,,,,,,,,,,,,,,,,,,,,,,,,,,,,,,,,,,,,,,,,,,,,,,,,,,,,,,,,,,,,,,,
,,,,,,6134a29257aec791154425ae,62c53b2290b4718b2075a7bc,2022-07-06_09h35.19.402,Colour_Asymmetry_Pilot,2022.1.3,Win32,59.99520038,62c50e9c1127f2cd403a315f,0,81,81,69,1,threefour,,,,,,,,,,,,,,,,,,,,,,,,,,,,,,,,,,,,,,,,,,,,,,,,,,,,,,,,,,,,,,,,,,,,,,,,,,,,,,,,,,,,,,,,,,,,,,,,,,,,,,,,,,,,,,,,,,,,,,,,,,,,,,,,,,,,,,,,,,,,,,,,,,,,,,,,,,,,,
,,,,,,6134a29257aec791154425ae,62c53b2290b4718b2075a7bc,2022-07-06_09h35.19.402,Colour_Asymmetry_Pilot,2022.1.3,Win32,59.99520038,62c50e9c1127f2cd403a315f,0,82,82,95,1,fourthree,,,,,,,,,,,,,,,,,,,,,,,,,,,,,,,,,,,,,,,,,,,,,,,,,,,,,,,,,,,,,,,,,,,,,,,,,,,,,,,,,,,,,,,,,,,,,,,,,,,,,,,,,,,,,,,,,,,,,,,,,,,,,,,,,,,,,,,,,,,,,,,,,,,,,,,,,,,,,
,,,,,,6134a29257aec791154425ae,62c53b2290b4718b2075a7bc,2022-07-06_09h35.19.402,Colour_Asymmetry_Pilot,2022.1.3,Win32,59.99520038,62c50e9c1127f2cd403a315f,0,83,83,77,1,threefour,,,,,,,,,,,,,,,,,,,,,,,,,,,,,,,,,,,,,,,,,,,,,,,,,,,,,,,,,,,,,,,,,,,,,,,,,,,,,,,,,,,,,,,,,,,,,,,,,,,,,,,,,,,,,,,,,,,,,,,,,,,,,,,,,,,,,,,,,,,,,,,,,,,,,,,,,,,,,
,,,,,,6134a29257aec791154425ae,62c53b2290b4718b2075a7bc,2022-07-06_09h35.19.402,Colour_Asymmetry_Pilot,2022.1.3,Win32,59.99520038,62c50e9c1127f2cd403a315f,0,84,84,157,1,threefour,,,,,,,,,,,,,,,,,,,,,,,,,,,,,,,,,,,,,,,,,,,,,,,,,,,,,,,,,,,,,,,,,,,,,,,,,,,,,,,,,,,,,,,,,,,,,,,,,,,,,,,,,,,,,,,,,,,,,,,,,,,,,,,,,,,,,,,,,,,,,,,,,,,,,,,,,,,,,
,,,,,,6134a29257aec791154425ae,62c53b2290b4718b2075a7bc,2022-07-06_09h35.19.402,Colour_Asymmetry_Pilot,2022.1.3,Win32,59.99520038,62c50e9c1127f2cd403a315f,0,85,85,126,1,fourtwo,,,,,,,,,,,,,,,,,,,,,,,,,,,,,,,,,,,,,,,,,,,,,,,,,,,,,,,,,,,,,,,,,,,,,,,,,,,,,,,,,,,,,,,,,,,,,,,,,,,,,,,,,,,,,,,,,,,,,,,,,,,,,,,,,,,,,,,,,,,,,,,,,,,,,,,,,,,,,
,,,,,,6134a29257aec791154425ae,62c53b2290b4718b2075a7bc,2022-07-06_09h35.19.402,Colour_Asymmetry_Pilot,2022.1.3,Win32,59.99520038,62c50e9c1127f2cd403a315f,0,86,86,61,1,threefour,,,,,,,,,,,,,,,,,,,,,,,,,,,,,,,,,,,,,,,,,,,,,,,,,,,,,,,,,,,,,,,,,,,,,,,,,,,,,,,,,,,,,,,,,,,,,,,,,,,,,,,,,,,,,,,,,,,,,,,,,,,,,,,,,,,,,,,,,,,,,,,,,,,,,,,,,,,,,
,,,,,,6134a29257aec791154425ae,62c53b2290b4718b2075a7bc,2022-07-06_09h35.19.402,Colour_Asymmetry_Pilot,2022.1.3,Win32,59.99520038,62c50e9c1127f2cd403a315f,0,87,87,5,1,threefour,,,,,,,,,,,,,,,,,,,,,,,,,,,,,,,,,,,,,,,,,,,,,,,,,,,,,,,,,,,,,,,,,,,,,,,,,,,,,,,,,,,,,,,,,,,,,,,,,,,,,,,,,,,,,,,,,,,,,,,,,,,,,,,,,,,,,,,,,,,,,,,,,,,,,,,,,,,,,
,,,,,,6134a29257aec791154425ae,62c53b2290b4718b2075a7bc,2022-07-06_09h35.19.402,Colour_Asymmetry_Pilot,2022.1.3,Win32,59.99520038,62c50e9c1127f2cd403a315f,0,88,88,139,1,twofour,,,,,,,,,,,,,,,,,,,,,,,,,,,,,,,,,,,,,,,,,,,,,,,,,,,,,,,,,,,,,,,,,,,,,,,,,,,,,,,,,,,,,,,,,,,,,,,,,,,,,,,,,,,,,,,,,,,,,,,,,,,,,,,,,,,,,,,,,,,,,,,,,,,,,,,,,,,,,
,,,,,,6134a29257aec791154425ae,62c53b2290b4718b2075a7bc,2022-07-06_09h35.19.402,Colour_Asymmetry_Pilot,2022.1.3,Win32,59.99520038,62c50e9c1127f2cd403a315f,0,89,89,118,1,fourtwo,,,,,,,,,,,,,,,,,,,,,,,,,,,,,,,,,,,,,,,,,,,,,,,,,,,,,,,,,,,,,,,,,,,,,,,,,,,,,,,,,,,,,,,,,,,,,,,,,,,,,,,,,,,,,,,,,,,,,,,,,,,,,,,,,,,,,,,,,,,,,,,,,,,,,,,,,,,,,
,,,,,,6134a29257aec791154425ae,62c53b2290b4718b2075a7bc,2022-07-06_09h35.19.402,Colour_Asymmetry_Pilot,2022.1.3,Win32,59.99520038,62c50e9c1127f2cd403a315f,0,90,90,22,1,fourtwo,,,,,,,,,,,,,,,,,,,,,,,,,,,,,,,,,,,,,,,,,,,,,,,,,,,,,,,,,,,,,,,,,,,,,,,,,,,,,,,,,,,,,,,,,,,,,,,,,,,,,,,,,,,,,,,,,,,,,,,,,,,,,,,,,,,,,,,,,,,,,,,,,,,,,,,,,,,,,
,,,,,,6134a29257aec791154425ae,62c53b2290b4718b2075a7bc,2022-07-06_09h35.19.402,Colour_Asymmetry_Pilot,2022.1.3,Win32,59.99520038,62c50e9c1127f2cd403a315f,0,91,91,124,1,threeone,,,,,,,,,,,,,,,,,,,,,,,,,,,,,,,,,,,,,,,,,,,,,,,,,,,,,,,,,,,,,,,,,,,,,,,,,,,,,,,,,,,,,,,,,,,,,,,,,,,,,,,,,,,,,,,,,,,,,,,,,,,,,,,,,,,,,,,,,,,,,,,,,,,,,,,,,,,,,
,,,,,,6134a29257aec791154425ae,62c53b2290b4718b2075a7bc,2022-07-06_09h35.19.402,Colour_Asymmetry_Pilot,2022.1.3,Win32,59.99520038,62c50e9c1127f2cd403a315f,0,92,92,39,1,fourthree,,,,,,,,,,,,,,,,,,,,,,,,,,,,,,,,,,,,,,,,,,,,,,,,,,,,,,,,,,,,,,,,,,,,,,,,,,,,,,,,,,,,,,,,,,,,,,,,,,,,,,,,,,,,,,,,,,,,,,,,,,,,,,,,,,,,,,,,,,,,,,,,,,,,,,,,,,,,,
,,,,,,6134a29257aec791154425ae,62c53b2290b4718b2075a7bc,2022-07-06_09h35.19.402,Colour_Asymmetry_Pilot,2022.1.3,Win32,59.99520038,62c50e9c1127f2cd403a315f,0,93,93,67,1,twofour,,,,,,,,,,,,,,,,,,,,,,,,,,,,,,,,,,,,,,,,,,,,,,,,,,,,,,,,,,,,,,,,,,,,,,,,,,,,,,,,,,,,,,,,,,,,,,,,,,,,,,,,,,,,,,,,,,,,,,,,,,,,,,,,,,,,,,,,,,,,,,,,,,,,,,,,,,,,,
,,,,,,6134a29257aec791154425ae,62c53b2290b4718b2075a7bc,2022-07-06_09h35.19.402,Colour_Asymmetry_Pilot,2022.1.3,Win32,59.99520038,62c50e9c1127f2cd403a315f,0,94,94,13,1,threefour,,,,,,,,,,,,,,,,,,,,,,,,,,,,,,,,,,,,,,,,,,,,,,,,,,,,,,,,,,,,,,,,,,,,,,,,,,,,,,,,,,,,,,,,,,,,,,,,,,,,,,,,,,,,,,,,,,,,,,,,,,,,,,,,,,,,,,,,,,,,,,,,,,,,,,,,,,,,,
,,,,,,6134a29257aec791154425ae,62c53b2290b4718b2075a7bc,2022-07-06_09h35.19.402,Colour_Asymmetry_Pilot,2022.1.3,Win32,59.99520038,62c50e9c1127f2cd403a315f,0,95,95,129,1,onethree,,,,,,,,,,,,,,,,,,,,,,,,,,,,,,,,,,,,,,,,,,,,,,,,,,,,,,,,,,,,,,,,,,,,,,,,,,,,,,,,,,,,,,,,,,,,,,,,,,,,,,,,,,,,,,,,,,,,,,,,,,,,,,,,,,,,,,,,,,,,,,,,,,,,,,,,,,,,,
,,,,,,6134a29257aec791154425ae,62c53b2290b4718b2075a7bc,2022-07-06_09h35.19.402,Colour_Asymmetry_Pilot,2022.1.3,Win32,59.99520038,62c50e9c1127f2cd403a315f,0,96,96,34,1,twoone,,,,,,,,,,,,,,,,,,,,,,,,,,,,,,,,,,,,,,,,,,,,,,,,,,,,,,,,,,,,,,,,,,,,,,,,,,,,,,,,,,,,,,,,,,,,,,,,,,,,,,,,,,,,,,,,,,,,,,,,,,,,,,,,,,,,,,,,,,,,,,,,,,,,,,,,,,,,,
,,,,,,6134a29257aec791154425ae,62c53b2290b4718b2075a7bc,2022-07-06_09h35.19.402,Colour_Asymmetry_Pilot,2022.1.3,Win32,59.99520038,62c50e9c1127f2cd403a315f,0,97,97,26,1,twoone,,,,,,,,,,,,,,,,,,,,,,,,,,,,,,,,,,,,,,,,,,,,,,,,,,,,,,,,,,,,,,,,,,,,,,,,,,,,,,,,,,,,,,,,,,,,,,,,,,,,,,,,,,,,,,,,,,,,,,,,,,,,,,,,,,,,,,,,,,,,,,,,,,,,,,,,,,,,,
,,,,,,6134a29257aec791154425ae,62c53b2290b4718b2075a7bc,2022-07-06_09h35.19.402,Colour_Asymmetry_Pilot,2022.1.3,Win32,59.99520038,62c50e9c1127f2cd403a315f,0,98,98,76,1,threeone,,,,,,,,,,,,,,,,,,,,,,,,,,,,,,,,,,,,,,,,,,,,,,,,,,,,,,,,,,,,,,,,,,,,,,,,,,,,,,,,,,,,,,,,,,,,,,,,,,,,,,,,,,,,,,,,,,,,,,,,,,,,,,,,,,,,,,,,,,,,,,,,,,,,,,,,,,,,,
,,,,,,6134a29257aec791154425ae,62c53b2290b4718b2075a7bc,2022-07-06_09h35.19.402,Colour_Asymmetry_Pilot,2022.1.3,Win32,59.99520038,62c50e9c1127f2cd403a315f,0,99,99,66,1,twoone,,,,,,,,,,,,,,,,,,,,,,,,,,,,,,,,,,,,,,,,,,,,,,,,,,,,,,,,,,,,,,,,,,,,,,,,,,,,,,,,,,,,,,,,,,,,,,,,,,,,,,,,,,,,,,,,,,,,,,,,,,,,,,,,,,,,,,,,,,,,,,,,,,,,,,,,,,,,,
,,,,,,6134a29257aec791154425ae,62c53b2290b4718b2075a7bc,2022-07-06_09h35.19.402,Colour_Asymmetry_Pilot,2022.1.3,Win32,59.99520038,62c50e9c1127f2cd403a315f,0,100,100,153,1,onethree,,,,,,,,,,,,,,,,,,,,,,,,,,,,,,,,,,,,,,,,,,,,,,,,,,,,,,,,,,,,,,,,,,,,,,,,,,,,,,,,,,,,,,,,,,,,,,,,,,,,,,,,,,,,,,,,,,,,,,,,,,,,,,,,,,,,,,,,,,,,,,,,,,,,,,,,,,,,,
,,,,,,6134a29257aec791154425ae,62c53b2290b4718b2075a7bc,2022-07-06_09h35.19.402,Colour_Asymmetry_Pilot,2022.1.3,Win32,59.99520038,62c50e9c1127f2cd403a315f,0,101,101,98,1,twoone,,,,,,,,,,,,,,,,,,,,,,,,,,,,,,,,,,,,,,,,,,,,,,,,,,,,,,,,,,,,,,,,,,,,,,,,,,,,,,,,,,,,,,,,,,,,,,,,,,,,,,,,,,,,,,,,,,,,,,,,,,,,,,,,,,,,,,,,,,,,,,,,,,,,,,,,,,,,,
,,,,,,6134a29257aec791154425ae,62c53b2290b4718b2075a7bc,2022-07-06_09h35.19.402,Colour_Asymmetry_Pilot,2022.1.3,Win32,59.99520038,62c50e9c1127f2cd403a315f,0,102,102,158,1,fourtwo,,,,,,,,,,,,,,,,,,,,,,,,,,,,,,,,,,,,,,,,,,,,,,,,,,,,,,,,,,,,,,,,,,,,,,,,,,,,,,,,,,,,,,,,,,,,,,,,,,,,,,,,,,,,,,,,,,,,,,,,,,,,,,,,,,,,,,,,,,,,,,,,,,,,,,,,,,,,,
,,,,,,6134a29257aec791154425ae,62c53b2290b4718b2075a7bc,2022-07-06_09h35.19.402,Colour_Asymmetry_Pilot,2022.1.3,Win32,59.99520038,62c50e9c1127f2cd403a315f,0,103,103,78,1,fourtwo,,,,,,,,,,,,,,,,,,,,,,,,,,,,,,,,,,,,,,,,,,,,,,,,,,,,,,,,,,,,,,,,,,,,,,,,,,,,,,,,,,,,,,,,,,,,,,,,,,,,,,,,,,,,,,,,,,,,,,,,,,,,,,,,,,,,,,,,,,,,,,,,,,,,,,,,,,,,,
,,,,,,6134a29257aec791154425ae,62c53b2290b4718b2075a7bc,2022-07-06_09h35.19.402,Colour_Asymmetry_Pilot,2022.1.3,Win32,59.99520038,62c50e9c1127f2cd403a315f,0,104,104,106,1,twoone,,,,,,,,,,,,,,,,,,,,,,,,,,,,,,,,,,,,,,,,,,,,,,,,,,,,,,,,,,,,,,,,,,,,,,,,,,,,,,,,,,,,,,,,,,,,,,,,,,,,,,,,,,,,,,,,,,,,,,,,,,,,,,,,,,,,,,,,,,,,,,,,,,,,,,,,,,,,,
,,,,,,6134a29257aec791154425ae,62c53b2290b4718b2075a7bc,2022-07-06_09h35.19.402,Colour_Asymmetry_Pilot,2022.1.3,Win32,59.99520038,62c50e9c1127f2cd403a315f,0,105,105,133,1,threefour,,,,,,,,,,,,,,,,,,,,,,,,,,,,,,,,,,,,,,,,,,,,,,,,,,,,,,,,,,,,,,,,,,,,,,,,,,,,,,,,,,,,,,,,,,,,,,,,,,,,,,,,,,,,,,,,,,,,,,,,,,,,,,,,,,,,,,,,,,,,,,,,,,,,,,,,,,,,,
,,,,,,6134a29257aec791154425ae,62c53b2290b4718b2075a7bc,2022-07-06_09h35.19.402,Colour_Asymmetry_Pilot,2022.1.3,Win32,59.99520038,62c50e9c1127f2cd403a315f,0,106,106,90,1,twoone,,,,,,,,,,,,,,,,,,,,,,,,,,,,,,,,,,,,,,,,,,,,,,,,,,,,,,,,,,,,,,,,,,,,,,,,,,,,,,,,,,,,,,,,,,,,,,,,,,,,,,,,,,,,,,,,,,,,,,,,,,,,,,,,,,,,,,,,,,,,,,,,,,,,,,,,,,,,,
,,,,,,6134a29257aec791154425ae,62c53b2290b4718b2075a7bc,2022-07-06_09h35.19.402,Colour_Asymmetry_Pilot,2022.1.3,Win32,59.99520038,62c50e9c1127f2cd403a315f,0,107,107,9,1,onethree,,,,,,,,,,,,,,,,,,,,,,,,,,,,,,,,,,,,,,,,,,,,,,,,,,,,,,,,,,,,,,,,,,,,,,,,,,,,,,,,,,,,,,,,,,,,,,,,,,,,,,,,,,,,,,,,,,,,,,,,,,,,,,,,,,,,,,,,,,,,,,,,,,,,,,,,,,,,,
,,,,,,6134a29257aec791154425ae,62c53b2290b4718b2075a7bc,2022-07-06_09h35.19.402,Colour_Asymmetry_Pilot,2022.1.3,Win32,59.99520038,62c50e9c1127f2cd403a315f,0,108,108,44,1,threeone,,,,,,,,,,,,,,,,,,,,,,,,,,,,,,,,,,,,,,,,,,,,,,,,,,,,,,,,,,,,,,,,,,,,,,,,,,,,,,,,,,,,,,,,,,,,,,,,,,,,,,,,,,,,,,,,,,,,,,,,,,,,,,,,,,,,,,,,,,,,,,,,,,,,,,,,,,,,,
,,,,,,6134a29257aec791154425ae,62c53b2290b4718b2075a7bc,2022-07-06_09h35.19.402,Colour_Asymmetry_Pilot,2022.1.3,Win32,59.99520038,62c50e9c1127f2cd403a315f,0,109,109,10,1,twoone,,,,,,,,,,,,,,,,,,,,,,,,,,,,,,,,,,,,,,,,,,,,,,,,,,,,,,,,,,,,,,,,,,,,,,,,,,,,,,,,,,,,,,,,,,,,,,,,,,,,,,,,,,,,,,,,,,,,,,,,,,,,,,,,,,,,,,,,,,,,,,,,,,,,,,,,,,,,,
,,,,,,6134a29257aec791154425ae,62c53b2290b4718b2075a7bc,2022-07-06_09h35.19.402,Colour_Asymmetry_Pilot,2022.1.3,Win32,59.99520038,62c50e9c1127f2cd403a315f,0,110,110,127,1,fourthree,,,,,,,,,,,,,,,,,,,,,,,,,,,,,,,,,,,,,,,,,,,,,,,,,,,,,,,,,,,,,,,,,,,,,,,,,,,,,,,,,,,,,,,,,,,,,,,,,,,,,,,,,,,,,,,,,,,,,,,,,,,,,,,,,,,,,,,,,,,,,,,,,,,,,,,,,,,,,
,,,,,,6134a29257aec791154425ae,62c53b2290b4718b2075a7bc,2022-07-06_09h35.19.402,Colour_Asymmetry_Pilot,2022.1.3,Win32,59.99520038,62c50e9c1127f2cd403a315f,0,111,111,138,1,twoone,,,,,,,,,,,,,,,,,,,,,,,,,,,,,,,,,,,,,,,,,,,,,,,,,,,,,,,,,,,,,,,,,,,,,,,,,,,,,,,,,,,,,,,,,,,,,,,,,,,,,,,,,,,,,,,,,,,,,,,,,,,,,,,,,,,,,,,,,,,,,,,,,,,,,,,,,,,,,
,,,,,,6134a29257aec791154425ae,62c53b2290b4718b2075a7bc,2022-07-06_09h35.19.402,Colour_Asymmetry_Pilot,2022.1.3,Win32,59.99520038,62c50e9c1127f2cd403a315f,0,112,112,144,1,onetwo,,,,,,,,,,,,,,,,,,,,,,,,,,,,,,,,,,,,,,,,,,,,,,,,,,,,,,,,,,,,,,,,,,,,,,,,,,,,,,,,,,,,,,,,,,,,,,,,,,,,,,,,,,,,,,,,,,,,,,,,,,,,,,,,,,,,,,,,,,,,,,,,,,,,,,,,,,,,,
,,,,,,6134a29257aec791154425ae,62c53b2290b4718b2075a7bc,2022-07-06_09h35.19.402,Colour_Asymmetry_Pilot,2022.1.3,Win32,59.99520038,62c50e9c1127f2cd403a315f,0,113,113,93,1,threefour,,,,,,,,,,,,,,,,,,,,,,,,,,,,,,,,,,,,,,,,,,,,,,,,,,,,,,,,,,,,,,,,,,,,,,,,,,,,,,,,,,,,,,,,,,,,,,,,,,,,,,,,,,,,,,,,,,,,,,,,,,,,,,,,,,,,,,,,,,,,,,,,,,,,,,,,,,,,,
,,,,,,6134a29257aec791154425ae,62c53b2290b4718b2075a7bc,2022-07-06_09h35.19.402,Colour_Asymmetry_Pilot,2022.1.3,Win32,59.99520038,62c50e9c1127f2cd403a315f,0,114,114,43,1,twofour,,,,,,,,,,,,,,,,,,,,,,,,,,,,,,,,,,,,,,,,,,,,,,,,,,,,,,,,,,,,,,,,,,,,,,,,,,,,,,,,,,,,,,,,,,,,,,,,,,,,,,,,,,,,,,,,,,,,,,,,,,,,,,,,,,,,,,,,,,,,,,,,,,,,,,,,,,,,,
,,,,,,6134a29257aec791154425ae,62c53b2290b4718b2075a7bc,2022-07-06_09h35.19.402,Colour_Asymmetry_Pilot,2022.1.3,Win32,59.99520038,62c50e9c1127f2cd403a315f,0,115,115,103,1,fourthree,,,,,,,,,,,,,,,,,,,,,,,,,,,,,,,,,,,,,,,,,,,,,,,,,,,,,,,,,,,,,,,,,,,,,,,,,,,,,,,,,,,,,,,,,,,,,,,,,,,,,,,,,,,,,,,,,,,,,,,,,,,,,,,,,,,,,,,,,,,,,,,,,,,,,,,,,,,,,
,,,,,,6134a29257aec791154425ae,62c53b2290b4718b2075a7bc,2022-07-06_09h35.19.402,Colour_Asymmetry_Pilot,2022.1.3,Win32,59.99520038,62c50e9c1127f2cd403a315f,0,116,116,99,1,twofour,,,,,,,,,,,,,,,,,,,,,,,,,,,,,,,,,,,,,,,,,,,,,,,,,,,,,,,,,,,,,,,,,,,,,,,,,,,,,,,,,,,,,,,,,,,,,,,,,,,,,,,,,,,,,,,,,,,,,,,,,,,,,,,,,,,,,,,,,,,,,,,,,,,,,,,,,,,,,
,,,,,,6134a29257aec791154425ae,62c53b2290b4718b2075a7bc,2022-07-06_09h35.19.402,Colour_Asymmetry_Pilot,2022.1.3,Win32,59.99520038,62c50e9c1127f2cd403a315f,0,117,117,52,1,threeone,,,,,,,,,,,,,,,,,,,,,,,,,,,,,,,,,,,,,,,,,,,,,,,,,,,,,,,,,,,,,,,,,,,,,,,,,,,,,,,,,,,,,,,,,,,,,,,,,,,,,,,,,,,,,,,,,,,,,,,,,,,,,,,,,,,,,,,,,,,,,,,,,,,,,,,,,,,,,
,,,,,,6134a29257aec791154425ae,62c53b2290b4718b2075a7bc,2022-07-06_09h35.19.402,Colour_Asymmetry_Pilot,2022.1.3,Win32,59.99520038,62c50e9c1127f2cd403a315f,0,118,118,112,1,onetwo,,,,,,,,,,,,,,,,,,,,,,,,,,,,,,,,,,,,,,,,,,,,,,,,,,,,,,,,,,,,,,,,,,,,,,,,,,,,,,,,,,,,,,,,,,,,,,,,,,,,,,,,,,,,,,,,,,,,,,,,,,,,,,,,,,,,,,,,,,,,,,,,,,,,,,,,,,,,,
,,,,,,6134a29257aec791154425ae,62c53b2290b4718b2075a7bc,2022-07-06_09h35.19.402,Colour_Asymmetry_Pilot,2022.1.3,Win32,59.99520038,62c50e9c1127f2cd403a315f,0,119,119,59,1,twofour,,,,,,,,,,,,,,,,,,,,,,,,,,,,,,,,,,,,,,,,,,,,,,,,,,,,,,,,,,,,,,,,,,,,,,,,,,,,,,,,,,,,,,,,,,,,,,,,,,,,,,,,,,,,,,,,,,,,,,,,,,,,,,,,,,,,,,,,,,,,,,,,,,,,,,,,,,,,,
,,,,,,6134a29257aec791154425ae,62c53b2290b4718b2075a7bc,2022-07-06_09h35.19.402,Colour_Asymmetry_Pilot,2022.1.3,Win32,59.99520038,62c50e9c1127f2cd403a315f,0,120,120,82,1,twoone,,,,,,,,,,,,,,,,,,,,,,,,,,,,,,,,,,,,,,,,,,,,,,,,,,,,,,,,,,,,,,,,,,,,,,,,,,,,,,,,,,,,,,,,,,,,,,,,,,,,,,,,,,,,,,,,,,,,,,,,,,,,,,,,,,,,,,,,,,,,,,,,,,,,,,,,,,,,,
,,,,,,6134a29257aec791154425ae,62c53b2290b4718b2075a7bc,2022-07-06_09h35.19.402,Colour_Asymmetry_Pilot,2022.1.3,Win32,59.99520038,62c50e9c1127f2cd403a315f,0,121,121,24,1,onetwo,,,,,,,,,,,,,,,,,,,,,,,,,,,,,,,,,,,,,,,,,,,,,,,,,,,,,,,,,,,,,,,,,,,,,,,,,,,,,,,,,,,,,,,,,,,,,,,,,,,,,,,,,,,,,,,,,,,,,,,,,,,,,,,,,,,,,,,,,,,,,,,,,,,,,,,,,,,,,
,,,,,,6134a29257aec791154425ae,62c53b2290b4718b2075a7bc,2022-07-06_09h35.19.402,Colour_Asymmetry_Pilot,2022.1.3,Win32,59.99520038,62c50e9c1127f2cd403a315f,0,122,122,154,1,twoone,,,,,,,,,,,,,,,,,,,,,,,,,,,,,,,,,,,,,,,,,,,,,,,,,,,,,,,,,,,,,,,,,,,,,,,,,,,,,,,,,,,,,,,,,,,,,,,,,,,,,,,,,,,,,,,,,,,,,,,,,,,,,,,,,,,,,,,,,,,,,,,,,,,,,,,,,,,,,
,,,,,,6134a29257aec791154425ae,62c53b2290b4718b2075a7bc,2022-07-06_09h35.19.402,Colour_Asymmetry_Pilot,2022.1.3,Win32,59.99520038,62c50e9c1127f2cd403a315f,0,123,123,148,1,threeone,,,,,,,,,,,,,,,,,,,,,,,,,,,,,,,,,,,,,,,,,,,,,,,,,,,,,,,,,,,,,,,,,,,,,,,,,,,,,,,,,,,,,,,,,,,,,,,,,,,,,,,,,,,,,,,,,,,,,,,,,,,,,,,,,,,,,,,,,,,,,,,,,,,,,,,,,,,,,
,,,,,,6134a29257aec791154425ae,62c53b2290b4718b2075a7bc,2022-07-06_09h35.19.402,Colour_Asymmetry_Pilot,2022.1.3,Win32,59.99520038,62c50e9c1127f2cd403a315f,0,124,124,91,1,twofour,,,,,,,,,,,,,,,,,,,,,,,,,,,,,,,,,,,,,,,,,,,,,,,,,,,,,,,,,,,,,,,,,,,,,,,,,,,,,,,,,,,,,,,,,,,,,,,,,,,,,,,,,,,,,,,,,,,,,,,,,,,,,,,,,,,,,,,,,,,,,,,,,,,,,,,,,,,,,
,,,,,,6134a29257aec791154425ae,62c53b2290b4718b2075a7bc,2022-07-06_09h35.19.402,Colour_Asymmetry_Pilot,2022.1.3,Win32,59.99520038,62c50e9c1127f2cd403a315f,0,125,125,161,1,onethree,,,,,,,,,,,,,,,,,,,,,,,,,,,,,,,,,,,,,,,,,,,,,,,,,,,,,,,,,,,,,,,,,,,,,,,,,,,,,,,,,,,,,,,,,,,,,,,,,,,,,,,,,,,,,,,,,,,,,,,,,,,,,,,,,,,,,,,,,,,,,,,,,,,,,,,,,,,,,
,,,,,,6134a29257aec791154425ae,62c53b2290b4718b2075a7bc,2022-07-06_09h35.19.402,Colour_Asymmetry_Pilot,2022.1.3,Win32,59.99520038,62c50e9c1127f2cd403a315f,0,126,126,47,1,fourthree,,,,,,,,,,,,,,,,,,,,,,,,,,,,,,,,,,,,,,,,,,,,,,,,,,,,,,,,,,,,,,,,,,,,,,,,,,,,,,,,,,,,,,,,,,,,,,,,,,,,,,,,,,,,,,,,,,,,,,,,,,,,,,,,,,,,,,,,,,,,,,,,,,,,,,,,,,,,,
,,,,,,6134a29257aec791154425ae,62c53b2290b4718b2075a7bc,2022-07-06_09h35.19.402,Colour_Asymmetry_Pilot,2022.1.3,Win32,59.99520038,62c50e9c1127f2cd403a315f,0,127,127,45,1,threefour,,,,,,,,,,,,,,,,,,,,,,,,,,,,,,,,,,,,,,,,,,,,,,,,,,,,,,,,,,,,,,,,,,,,,,,,,,,,,,,,,,,,,,,,,,,,,,,,,,,,,,,,,,,,,,,,,,,,,,,,,,,,,,,,,,,,,,,,,,,,,,,,,,,,,,,,,,,,,
,,,,,,6134a29257aec791154425ae,62c53b2290b4718b2075a7bc,2022-07-06_09h35.19.402,Colour_Asymmetry_Pilot,2022.1.3,Win32,59.99520038,62c50e9c1127f2cd403a315f,0,128,128,20,1,threeone,,,,,,,,,,,,,,,,,,,,,,,,,,,,,,,,,,,,,,,,,,,,,,,,,,,,,,,,,,,,,,,,,,,,,,,,,,,,,,,,,,,,,,,,,,,,,,,,,,,,,,,,,,,,,,,,,,,,,,,,,,,,,,,,,,,,,,,,,,,,,,,,,,,,,,,,,,,,,
,,,,,,6134a29257aec791154425ae,62c53b2290b4718b2075a7bc,2022-07-06_09h35.19.402,Colour_Asymmetry_Pilot,2022.1.3,Win32,59.99520038,62c50e9c1127f2cd403a315f,0,129,129,23,1,fourthree,,,,,,,,,,,,,,,,,,,,,,,,,,,,,,,,,,,,,,,,,,,,,,,,,,,,,,,,,,,,,,,,,,,,,,,,,,,,,,,,,,,,,,,,,,,,,,,,,,,,,,,,,,,,,,,,,,,,,,,,,,,,,,,,,,,,,,,,,,,,,,,,,,,,,,,,,,,,,
,,,,,,6134a29257aec791154425ae,62c53b2290b4718b2075a7bc,2022-07-06_09h35.19.402,Colour_Asymmetry_Pilot,2022.1.3,Win32,59.99520038,62c50e9c1127f2cd403a315f,0,130,130,116,1,threeone,,,,,,,,,,,,,,,,,,,,,,,,,,,,,,,,,,,,,,,,,,,,,,,,,,,,,,,,,,,,,,,,,,,,,,,,,,,,,,,,,,,,,,,,,,,,,,,,,,,,,,,,,,,,,,,,,,,,,,,,,,,,,,,,,,,,,,,,,,,,,,,,,,,,,,,,,,,,,
,,,,,,6134a29257aec791154425ae,62c53b2290b4718b2075a7bc,2022-07-06_09h35.19.402,Colour_Asymmetry_Pilot,2022.1.3,Win32,59.99520038,62c50e9c1127f2cd403a315f,0,131,131,75,1,twofour,,,,,,,,,,,,,,,,,,,,,,,,,,,,,,,,,,,,,,,,,,,,,,,,,,,,,,,,,,,,,,,,,,,,,,,,,,,,,,,,,,,,,,,,,,,,,,,,,,,,,,,,,,,,,,,,,,,,,,,,,,,,,,,,,,,,,,,,,,,,,,,,,,,,,,,,,,,,,
,,,,,,6134a29257aec791154425ae,62c53b2290b4718b2075a7bc,2022-07-06_09h35.19.402,Colour_Asymmetry_Pilot,2022.1.3,Win32,59.99520038,62c50e9c1127f2cd403a315f,0,132,132,32,1,onetwo,,,,,,,,,,,,,,,,,,,,,,,,,,,,,,,,,,,,,,,,,,,,,,,,,,,,,,,,,,,,,,,,,,,,,,,,,,,,,,,,,,,,,,,,,,,,,,,,,,,,,,,,,,,,,,,,,,,,,,,,,,,,,,,,,,,,,,,,,,,,,,,,,,,,,,,,,,,,,
,,,,,,6134a29257aec791154425ae,62c53b2290b4718b2075a7bc,2022-07-06_09h35.19.402,Colour_Asymmetry_Pilot,2022.1.3,Win32,59.99520038,62c50e9c1127f2cd403a315f,0,133,133,100,1,threeone,,,,,,,,,,,,,,,,,,,,,,,,,,,,,,,,,,,,,,,,,,,,,,,,,,,,,,,,,,,,,,,,,,,,,,,,,,,,,,,,,,,,,,,,,,,,,,,,,,,,,,,,,,,,,,,,,,,,,,,,,,,,,,,,,,,,,,,,,,,,,,,,,,,,,,,,,,,,,
,,,,,,6134a29257aec791154425ae,62c53b2290b4718b2075a7bc,2022-07-06_09h35.19.402,Colour_Asymmetry_Pilot,2022.1.3,Win32,59.99520038,62c50e9c1127f2cd403a315f,0,134,134,128,1,onetwo,,,,,,,,,,,,,,,,,,,,,,,,,,,,,,,,,,,,,,,,,,,,,,,,,,,,,,,,,,,,,,,,,,,,,,,,,,,,,,,,,,,,,,,,,,,,,,,,,,,,,,,,,,,,,,,,,,,,,,,,,,,,,,,,,,,,,,,,,,,,,,,,,,,,,,,,,,,,,
,,,,,,6134a29257aec791154425ae,62c53b2290b4718b2075a7bc,2022-07-06_09h35.19.402,Colour_Asymmetry_Pilot,2022.1.3,Win32,59.99520038,62c50e9c1127f2cd403a315f,0,135,135,31,1,fourthree,,,,,,,,,,,,,,,,,,,,,,,,,,,,,,,,,,,,,,,,,,,,,,,,,,,,,,,,,,,,,,,,,,,,,,,,,,,,,,,,,,,,,,,,,,,,,,,,,,,,,,,,,,,,,,,,,,,,,,,,,,,,,,,,,,,,,,,,,,,,,,,,,,,,,,,,,,,,,
,,,,,,6134a29257aec791154425ae,62c53b2290b4718b2075a7bc,2022-07-06_09h35.19.402,Colour_Asymmetry_Pilot,2022.1.3,Win32,59.99520038,62c50e9c1127f2cd403a315f,0,136,136,7,1,fourthree,,,,,,,,,,,,,,,,,,,,,,,,,,,,,,,,,,,,,,,,,,,,,,,,,,,,,,,,,,,,,,,,,,,,,,,,,,,,,,,,,,,,,,,,,,,,,,,,,,,,,,,,,,,,,,,,,,,,,,,,,,,,,,,,,,,,,,,,,,,,,,,,,,,,,,,,,,,,,
,,,,,,6134a29257aec791154425ae,62c53b2290b4718b2075a7bc,2022-07-06_09h35.19.402,Colour_Asymmetry_Pilot,2022.1.3,Win32,59.99520038,62c50e9c1127f2cd403a315f,0,137,137,131,1,twofour,,,,,,,,,,,,,,,,,,,,,,,,,,,,,,,,,,,,,,,,,,,,,,,,,,,,,,,,,,,,,,,,,,,,,,,,,,,,,,,,,,,,,,,,,,,,,,,,,,,,,,,,,,,,,,,,,,,,,,,,,,,,,,,,,,,,,,,,,,,,,,,,,,,,,,,,,,,,,
,,,,,,6134a29257aec791154425ae,62c53b2290b4718b2075a7bc,2022-07-06_09h35.19.402,Colour_Asymmetry_Pilot,2022.1.3,Win32,59.99520038,62c50e9c1127f2cd403a315f,0,138,138,74,1,twoone,,,,,,,,,,,,,,,,,,,,,,,,,,,,,,,,,,,,,,,,,,,,,,,,,,,,,,,,,,,,,,,,,,,,,,,,,,,,,,,,,,,,,,,,,,,,,,,,,,,,,,,,,,,,,,,,,,,,,,,,,,,,,,,,,,,,,,,,,,,,,,,,,,,,,,,,,,,,,
,,,,,,6134a29257aec791154425ae,62c53b2290b4718b2075a7bc,2022-07-06_09h35.19.402,Colour_Asymmetry_Pilot,2022.1.3,Win32,59.99520038,62c50e9c1127f2cd403a315f,0,139,139,150,1,fourtwo,,,,,,,,,,,,,,,,,,,,,,,,,,,,,,,,,,,,,,,,,,,,,,,,,,,,,,,,,,,,,,,,,,,,,,,,,,,,,,,,,,,,,,,,,,,,,,,,,,,,,,,,,,,,,,,,,,,,,,,,,,,,,,,,,,,,,,,,,,,,,,,,,,,,,,,,,,,,,
,,,,,,6134a29257aec791154425ae,62c53b2290b4718b2075a7bc,2022-07-06_09h35.19.402,Colour_Asymmetry_Pilot,2022.1.3,Win32,59.99520038,62c50e9c1127f2cd403a315f,0,140,140,72,1,onetwo,,,,,,,,,,,,,,,,,,,,,,,,,,,,,,,,,,,,,,,,,,,,,,,,,,,,,,,,,,,,,,,,,,,,,,,,,,,,,,,,,,,,,,,,,,,,,,,,,,,,,,,,,,,,,,,,,,,,,,,,,,,,,,,,,,,,,,,,,,,,,,,,,,,,,,,,,,,,,
,,,,,,6134a29257aec791154425ae,62c53b2290b4718b2075a7bc,2022-07-06_09h35.19.402,Colour_Asymmetry_Pilot,2022.1.3,Win32,59.99520038,62c50e9c1127f2cd403a315f,0,141,141,30,1,fourtwo,,,,,,,,,,,,,,,,,,,,,,,,,,,,,,,,,,,,,,,,,,,,,,,,,,,,,,,,,,,,,,,,,,,,,,,,,,,,,,,,,,,,,,,,,,,,,,,,,,,,,,,,,,,,,,,,,,,,,,,,,,,,,,,,,,,,,,,,,,,,,,,,,,,,,,,,,,,,,
,,,,,,6134a29257aec791154425ae,62c53b2290b4718b2075a7bc,2022-07-06_09h35.19.402,Colour_Asymmetry_Pilot,2022.1.3,Win32,59.99520038,62c50e9c1127f2cd403a315f,0,142,142,149,1,threefour,,,,,,,,,,,,,,,,,,,,,,,,,,,,,,,,,,,,,,,,,,,,,,,,,,,,,,,,,,,,,,,,,,,,,,,,,,,,,,,,,,,,,,,,,,,,,,,,,,,,,,,,,,,,,,,,,,,,,,,,,,,,,,,,,,,,,,,,,,,,,,,,,,,,,,,,,,,,,
,,,,,,6134a29257aec791154425ae,62c53b2290b4718b2075a7bc,2022-07-06_09h35.19.402,Colour_Asymmetry_Pilot,2022.1.3,Win32,59.99520038,62c50e9c1127f2cd403a315f,0,143,143,87,1,fourthree,,,,,,,,,,,,,,,,,,,,,,,,,,,,,,,,,,,,,,,,,,,,,,,,,,,,,,,,,,,,,,,,,,,,,,,,,,,,,,,,,,,,,,,,,,,,,,,,,,,,,,,,,,,,,,,,,,,,,,,,,,,,,,,,,,,,,,,,,,,,,,,,,,,,,,,,,,,,,
,,,,,,6134a29257aec791154425ae,62c53b2290b4718b2075a7bc,2022-07-06_09h35.19.402,Colour_Asymmetry_Pilot,2022.1.3,Win32,59.99520038,62c50e9c1127f2cd403a315f,0,144,144,108,1,threeone,,,,,,,,,,,,,,,,,,,,,,,,,,,,,,,,,,,,,,,,,,,,,,,,,,,,,,,,,,,,,,,,,,,,,,,,,,,,,,,,,,,,,,,,,,,,,,,,,,,,,,,,,,,,,,,,,,,,,,,,,,,,,,,,,,,,,,,,,,,,,,,,,,,,,,,,,,,,,
,,,,,,6134a29257aec791154425ae,62c53b2290b4718b2075a7bc,2022-07-06_09h35.19.402,Colour_Asymmetry_Pilot,2022.1.3,Win32,59.99520038,62c50e9c1127f2cd403a315f,0,145,145,56,1,onetwo,,,,,,,,,,,,,,,,,,,,,,,,,,,,,,,,,,,,,,,,,,,,,,,,,,,,,,,,,,,,,,,,,,,,,,,,,,,,,,,,,,,,,,,,,,,,,,,,,,,,,,,,,,,,,,,,,,,,,,,,,,,,,,,,,,,,,,,,,,,,,,,,,,,,,,,,,,,,,
,,,,,,6134a29257aec791154425ae,62c53b2290b4718b2075a7bc,2022-07-06_09h35.19.402,Colour_Asymmetry_Pilot,2022.1.3,Win32,59.99520038,62c50e9c1127f2cd403a315f,0,146,146,53,1,threefour,,,,,,,,,,,,,,,,,,,,,,,,,,,,,,,,,,,,,,,,,,,,,,,,,,,,,,,,,,,,,,,,,,,,,,,,,,,,,,,,,,,,,,,,,,,,,,,,,,,,,,,,,,,,,,,,,,,,,,,,,,,,,,,,,,,,,,,,,,,,,,,,,,,,,,,,,,,,,
,,,,,,6134a29257aec791154425ae,62c53b2290b4718b2075a7bc,2022-07-06_09h35.19.402,Colour_Asymmetry_Pilot,2022.1.3,Win32,59.99520038,62c50e9c1127f2cd403a315f,0,147,147,97,1,onethree,,,,,,,,,,,,,,,,,,,,,,,,,,,,,,,,,,,,,,,,,,,,,,,,,,,,,,,,,,,,,,,,,,,,,,,,,,,,,,,,,,,,,,,,,,,,,,,,,,,,,,,,,,,,,,,,,,,,,,,,,,,,,,,,,,,,,,,,,,,,,,,,,,,,,,,,,,,,,
,,,,,,6134a29257aec791154425ae,62c53b2290b4718b2075a7bc,2022-07-06_09h35.19.402,Colour_Asymmetry_Pilot,2022.1.3,Win32,59.99520038,62c50e9c1127f2cd403a315f,0,148,148,134,1,fourtwo,,,,,,,,,,,,,,,,,,,,,,,,,,,,,,,,,,,,,,,,,,,,,,,,,,,,,,,,,,,,,,,,,,,,,,,,,,,,,,,,,,,,,,,,,,,,,,,,,,,,,,,,,,,,,,,,,,,,,,,,,,,,,,,,,,,,,,,,,,,,,,,,,,,,,,,,,,,,,
,,,,,,6134a29257aec791154425ae,62c53b2290b4718b2075a7bc,2022-07-06_09h35.19.402,Colour_Asymmetry_Pilot,2022.1.3,Win32,59.99520038,62c50e9c1127f2cd403a315f,0,149,149,46,1,fourtwo,,,,,,,,,,,,,,,,,,,,,,,,,,,,,,,,,,,,,,,,,,,,,,,,,,,,,,,,,,,,,,,,,,,,,,,,,,,,,,,,,,,,,,,,,,,,,,,,,,,,,,,,,,,,,,,,,,,,,,,,,,,,,,,,,,,,,,,,,,,,,,,,,,,,,,,,,,,,,
,,,,,,6134a29257aec791154425ae,62c53b2290b4718b2075a7bc,2022-07-06_09h35.19.402,Colour_Asymmetry_Pilot,2022.1.3,Win32,59.99520038,62c50e9c1127f2cd403a315f,0,150,150,125,1,threefour,,,,,,,,,,,,,,,,,,,,,,,,,,,,,,,,,,,,,,,,,,,,,,,,,,,,,,,,,,,,,,,,,,,,,,,,,,,,,,,,,,,,,,,,,,,,,,,,,,,,,,,,,,,,,,,,,,,,,,,,,,,,,,,,,,,,,,,,,,,,,,,,,,,,,,,,,,,,,
,,,,,,6134a29257aec791154425ae,62c53b2290b4718b2075a7bc,2022-07-06_09h35.19.402,Colour_Asymmetry_Pilot,2022.1.3,Win32,59.99520038,62c50e9c1127f2cd403a315f,0,151,151,88,1,onetwo,,,,,,,,,,,,,,,,,,,,,,,,,,,,,,,,,,,,,,,,,,,,,,,,,,,,,,,,,,,,,,,,,,,,,,,,,,,,,,,,,,,,,,,,,,,,,,,,,,,,,,,,,,,,,,,,,,,,,,,,,,,,,,,,,,,,,,,,,,,,,,,,,,,,,,,,,,,,,
,,,,,,6134a29257aec791154425ae,62c53b2290b4718b2075a7bc,2022-07-06_09h35.19.402,Colour_Asymmetry_Pilot,2022.1.3,Win32,59.99520038,62c50e9c1127f2cd403a315f,0,152,152,42,1,twoone,,,,,,,,,,,,,,,,,,,,,,,,,,,,,,,,,,,,,,,,,,,,,,,,,,,,,,,,,,,,,,,,,,,,,,,,,,,,,,,,,,,,,,,,,,,,,,,,,,,,,,,,,,,,,,,,,,,,,,,,,,,,,,,,,,,,,,,,,,,,,,,,,,,,,,,,,,,,,
,,,,,,6134a29257aec791154425ae,62c53b2290b4718b2075a7bc,2022-07-06_09h35.19.402,Colour_Asymmetry_Pilot,2022.1.3,Win32,59.99520038,62c50e9c1127f2cd403a315f,0,153,153,137,1,onethree,,,,,,,,,,,,,,,,,,,,,,,,,,,,,,,,,,,,,,,,,,,,,,,,,,,,,,,,,,,,,,,,,,,,,,,,,,,,,,,,,,,,,,,,,,,,,,,,,,,,,,,,,,,,,,,,,,,,,,,,,,,,,,,,,,,,,,,,,,,,,,,,,,,,,,,,,,,,,
,,,,,,6134a29257aec791154425ae,62c53b2290b4718b2075a7bc,2022-07-06_09h35.19.402,Colour_Asymmetry_Pilot,2022.1.3,Win32,59.99520038,62c50e9c1127f2cd403a315f,0,154,154,14,1,fourtwo,,,,,,,,,,,,,,,,,,,,,,,,,,,,,,,,,,,,,,,,,,,,,,,,,,,,,,,,,,,,,,,,,,,,,,,,,,,,,,,,,,,,,,,,,,,,,,,,,,,,,,,,,,,,,,,,,,,,,,,,,,,,,,,,,,,,,,,,,,,,,,,,,,,,,,,,,,,,,
,,,,,,6134a29257aec791154425ae,62c53b2290b4718b2075a7bc,2022-07-06_09h35.19.402,Colour_Asymmetry_Pilot,2022.1.3,Win32,59.99520038,62c50e9c1127f2cd403a315f,0,155,155,25,1,onethree,,,,,,,,,,,,,,,,,,,,,,,,,,,,,,,,,,,,,,,,,,,,,,,,,,,,,,,,,,,,,,,,,,,,,,,,,,,,,,,,,,,,,,,,,,,,,,,,,,,,,,,,,,,,,,,,,,,,,,,,,,,,,,,,,,,,,,,,,,,,,,,,,,,,,,,,,,,,,
,,,,,,6134a29257aec791154425ae,62c53b2290b4718b2075a7bc,2022-07-06_09h35.19.402,Colour_Asymmetry_Pilot,2022.1.3,Win32,59.99520038,62c50e9c1127f2cd403a315f,0,156,156,3,1,twofour,,,,,,,,,,,,,,,,,,,,,,,,,,,,,,,,,,,,,,,,,,,,,,,,,,,,,,,,,,,,,,,,,,,,,,,,,,,,,,,,,,,,,,,,,,,,,,,,,,,,,,,,,,,,,,,,,,,,,,,,,,,,,,,,,,,,,,,,,,,,,,,,,,,,,,,,,,,,,
,,,,,,6134a29257aec791154425ae,62c53b2290b4718b2075a7bc,2022-07-06_09h35.19.402,Colour_Asymmetry_Pilot,2022.1.3,Win32,59.99520038,62c50e9c1127f2cd403a315f,0,157,157,29,1,threefour,,,,,,,,,,,,,,,,,,,,,,,,,,,,,,,,,,,,,,,,,,,,,,,,,,,,,,,,,,,,,,,,,,,,,,,,,,,,,,,,,,,,,,,,,,,,,,,,,,,,,,,,,,,,,,,,,,,,,,,,,,,,,,,,,,,,,,,,,,,,,,,,,,,,,,,,,,,,,
,,,,,,6134a29257aec791154425ae,62c53b2290b4718b2075a7bc,2022-07-06_09h35.19.402,Colour_Asymmetry_Pilot,2022.1.3,Win32,59.99520038,62c50e9c1127f2cd403a315f,0,158,158,62,1,fourtwo,,,,,,,,,,,,,,,,,,,,,,,,,,,,,,,,,,,,,,,,,,,,,,,,,,,,,,,,,,,,,,,,,,,,,,,,,,,,,,,,,,,,,,,,,,,,,,,,,,,,,,,,,,,,,,,,,,,,,,,,,,,,,,,,,,,,,,,,,,,,,,,,,,,,,,,,,,,,,
,,,,,,6134a29257aec791154425ae,62c53b2290b4718b2075a7bc,2022-07-06_09h35.19.402,Colour_Asymmetry_Pilot,2022.1.3,Win32,59.99520038,62c50e9c1127f2cd403a315f,0,159,159,113,1,onethree,,,,,,,,,,,,,,,,,,,,,,,,,,,,,,,,,,,,,,,,,,,,,,,,,,,,,,,,,,,,,,,,,,,,,,,,,,,,,,,,,,,,,,,,,,,,,,,,,,,,,,,,,,,,,,,,,,,,,,,,,,,,,,,,,,,,,,,,,,,,,,,,,,,,,,,,,,,,,
,,,,,,6134a29257aec791154425ae,62c53b2290b4718b2075a7bc,2022-07-06_09h35.19.402,Colour_Asymmetry_Pilot,2022.1.3,Win32,59.99520038,62c50e9c1127f2cd403a315f,0,160,160,51,1,twofour,,,,,,,,,,,,,,,,,,,,,,,,,,,,,,,,,,,,,,,,,,,,,,,,,,,,,,,,,,,,,,,,,,,,,,,,,,,,,,,,,,,,,,,,,,,,,,,,,,,,,,,,,,,,,,,,,,,,,,,,,,,,,,,,,,,,,,,,,,,,,,,,,,,,,,,,,,,,,
,,,,,,6134a29257aec791154425ae,62c53b2290b4718b2075a7bc,2022-07-06_09h35.19.402,Colour_Asymmetry_Pilot,2022.1.3,Win32,59.99520038,62c50e9c1127f2cd403a315f,0,161,161,109,1,threefour,,,,,,,,,,,,,,,,,,,,,,,,,,,,,,,,,,,,,,,,,,,,,,,,,,,,,,,,,,,,,,,,,,,,,,,,,,,,,,,,,,,,,,,,,,,,,,,,,,,,,,,,,,,,,,,,,,,,,,,,,,,,,,,,,,,,,,,,,,,,,,,,,,,,,,,,,,,,,
,,,,,,6134a29257aec791154425ae,62c53b2290b4718b2075a7bc,2022-07-06_09h35.19.402,Colour_Asymmetry_Pilot,2022.1.3,Win32,59.99520038,62c50e9c1127f2cd403a315f,,,,,,,space,29.6344,space,20.2979,space,91.9666,space,29.3815,space,9.9258,space,7.1681,"[-0.2942,-0.7648,-0.7492000000000001]",onetwo,"[0.3568,-0.20799999999999996,-0.9844]",4,11.1532,52,94,1,0,0,response1disk_5,1,-5,1,0,0,rectangle_8,1,-5,1,0,0,3,1,-5,1,0,0,0,0,0,0,1,,,,,,,,,,,,,,,,,,,,,,,,,,,,,,,,,,,,,,,,,,,,,,,,,,,,,,,,,,,,,,,,,,,,,,,,,,,,,,,,,,,,,,,,,,,,,,,,,,,,,,,,,,,,,,,,
,,,,,,6134a29257aec791154425ae,62c53b2290b4718b2075a7bc,2022-07-06_09h35.19.402,Colour_Asymmetry_Pilot,2022.1.3,Win32,59.99520038,62c50e9c1127f2cd403a315f,,,,,,,,,,,,,,,,,,,"[-0.01980000000000004,-0.5138,-0.38039999999999996]",onetwo,"[0.3802000000000001,0.19199999999999995,-0.6394]",-4,4.6173,-36,91,1,0,0,response7disk_5,5,-4,1,0,0,rectangle_8,5,-4,1,0,0,3,5,-4,1,0,0,1,0,1,0,1,,,,,,,,,,,,,,,,,,,,,,,,,,,,,,,,,,,,,,,,,,,,,,,,,,,,,,,,,,,,,,,,,,,,,,,,,,,,,,,,,,,,,,,,,,,,,,,,,,,,,,,,,,,,,,,,
,,,,,,6134a29257aec791154425ae,62c53b2290b4718b2075a7bc,2022-07-06_09h35.19.402,Colour_Asymmetry_Pilot,2022.1.3,Win32,59.99520038,62c50e9c1127f2cd403a315f,,,,,,,,,,,,,,,,,,,"[-0.34920000000000007,-0.702,-0.5216]",twofour,"[-0.30200000000000005,0.14500000000000002,0.2784]",-4,8.2767,-45,115,1,0,0,response7disk_5,-6,-12,1,0,0,rectangle_8,-6,-12,1,0,0,3,-6,-12,1,0,0,2,0,2,0,1,,,,,,,,,,,,,,,,,,,,,,,,,,,,,,,,,,,,,,,,,,,,,,,,,,,,,,,,,,,,,,,,,,,,,,,,,,,,,,,,,,,,,,,,,,,,,,,,,,,,,,,,,,,,,,,,
,,,,,,6134a29257aec791154425ae,62c53b2290b4718b2075a7bc,2022-07-06_09h35.19.402,Colour_Asymmetry_Pilot,2022.1.3,Win32,59.99520038,62c50e9c1127f2cd403a315f,,,,,,,,,,,,,,,,,,,"[0.11359999999999992,0.6312,0.5213999999999999]",onetwo,"[0.09799999999999986,-0.24719999999999998,0.15280000000000005]",4,4.117,54,124,1,0,0,response1disk_5,21,1,1,0,0,rectangle_8,21,1,1,0,0,3,21,1,1,0,0,3,0,3,0,1,,,,,,,,,,,,,,,,,,,,,,,,,,,,,,,,,,,,,,,,,,,,,,,,,,,,,,,,,,,,,,,,,,,,,,,,,,,,,,,,,,,,,,,,,,,,,,,,,,,,,,,,,,,,,,,,
,,,,,,6134a29257aec791154425ae,62c53b2290b4718b2075a7bc,2022-07-06_09h35.19.402,Colour_Asymmetry_Pilot,2022.1.3,Win32,59.99520038,62c50e9c1127f2cd403a315f,,,,,,,,,,,,,,,,,,,"[0.7646000000000002,0.07440000000000002,0.2704]",twofour,"[0.3881999999999999,-0.23939999999999995,-0.05040000000000011]",4,2.4994,38,106,1,0,0,response1disk_5,-15,-3,1,0,0,rectangle_8,77,46,1,0,0,3,-9,4,1,0,0,4,0,4,0,1,response1disk_7,6,rectangle_4,,,,,,,,,,,,,,,,,,,,,,,,,,,,,,,,,,,,,,,,,,,,,,,,,,,,,,,,,,,,,,,,,,,,,,,,,,,,,,,,,,,,,,,,,,,,,,,,,,,,,,,,,,,,,
,,,,,,6134a29257aec791154425ae,62c53b2290b4718b2075a7bc,2022-07-06_09h35.19.402,Colour_Asymmetry_Pilot,2022.1.3,Win32,59.99520038,62c50e9c1127f2cd403a315f,,,,,,,,,,,,,,,,,,,"[-0.2942,-0.7648,-0.7492000000000001]",fourtwo,"[-0.9844,-0.9688,-0.9922]",-4,4.5006,-49,108,1,0,0,response7disk_5,-11,-11,1,0,0,rectangle_8,99,59,1,0,0,3,-28,-1,1,0,0,5,0,5,0,1,response1disk_7,6,rectangle_4,,,,,,,,,,,,,,,,,,,,,,,,,,,,,,,,,,,,,,,,,,,,,,,,,,,,,,,,,,,,,,,,,,,,,,,,,,,,,,,,,,,,,,,,,,,,,,,,,,,,,,,,,,,,,
,,,,,,6134a29257aec791154425ae,62c53b2290b4718b2075a7bc,2022-07-06_09h35.19.402,Colour_Asymmetry_Pilot,2022.1.3,Win32,59.99520038,62c50e9c1127f2cd403a315f,,,,,,,,,,,,,,,,,,,"[-0.6235999999999999,-0.6786,-0.08239999999999992]",fourthree,"[-0.8198,-0.5138,-0.7492000000000001]",-4,1.8542,-39,84,1,0,0,response7disk_5,-3,6,1,0,0,rectangle_8,-3,6,1,0,0,3,-3,6,1,0,0,6,0,6,0,1,,,,,,,,,,,,,,,,,,,,,,,,,,,,,,,,,,,,,,,,,,,,,,,,,,,,,,,,,,,,,,,,,,,,,,,,,,,,,,,,,,,,,,,,,,,,,,,,,,,,,,,,,,,,,,,,
,,,,,,6134a29257aec791154425ae,62c53b2290b4718b2075a7bc,2022-07-06_09h35.19.402,Colour_Asymmetry_Pilot,2022.1.3,Win32,59.99520038,62c50e9c1127f2cd403a315f,,,,,,,,,,,,,,,,,,,,twofour,,-4,2.2687,,,,,,,,,,,,,,,,,,,,,,,,,,,,,,,,space,8.1665,"[0.7646000000000002,0.07440000000000002,0.2704]","[-0.9844,-0.9688,-0.9922]",-46,114,1,0,0,response7disk,-7,-3,1,0,0,rectangle,-7,-3,1,0,0,,3,0.0047,0,-7,-3,1,0,0,0,0,0,156,1,75,second,,,,,,,,,,,,,,,,,,,,,,,,,,,,,,,,,,,,,,,,,,,,,,,,,,,,,,,,,,,,,,,,,,,,,,,,
,,,,,,6134a29257aec791154425ae,62c53b2290b4718b2075a7bc,2022-07-06_09h35.19.402,Colour_Asymmetry_Pilot,2022.1.3,Win32,59.99520038,62c50e9c1127f2cd403a315f,,,,,,,,,,,,,,,,,,,,onetwo,,-4,0.6005,,,,,,,,,,,,,,,,,,,,,,,,,,,,,,,,,,"[0.7646000000000002,0.07440000000000002,0.2704]","[0.7018,0.7802,-0.16079999999999994]",-38,76,1,0,0,response7disk,9,-6,1,0,0,rectangle,9,-6,1,0,0,,3,0.0008,0,9,-6,1,0,0,0,1,1,121,1,40,second,,,,,,,,,,,,,,,,,,,,,,,,,,,,,,,,,,,,,,,,,,,,,,,,,,,,,,,,,,,,,,,,,,,,,,,,
,,,,,,6134a29257aec791154425ae,62c53b2290b4718b2075a7bc,2022-07-06_09h35.19.402,Colour_Asymmetry_Pilot,2022.1.3,Win32,59.99520038,62c50e9c1127f2cd403a315f,,,,,,,,,,,,,,,,,,,,onetwo,,-4,1.4,,,,,,,,,,,,,,,,,,,,,,,,,,,,,,,,,,"[0.22340000000000004,-0.9296,-0.7884]","[0.2862,0.7802,0.3568]",-52,75,1,0,0,response7disk,5,-2,1,0,0,rectangle,5,-2,1,0,0,,2,0.0043,0,5,-2,1,0,0,0,2,2,27,1,27,first,,,,,,,,,,,,,,,,,,,,,,,,,,,,,,,,,,,,,,,,,,,,,,,,,,,,,,,,,,,,,,,,,,,,,,,,
,,,,,,6134a29257aec791154425ae,62c53b2290b4718b2075a7bc,2022-07-06_09h35.19.402,Colour_Asymmetry_Pilot,2022.1.3,Win32,59.99520038,62c50e9c1127f2cd403a315f,,,,,,,,,,,,,,,,,,,,threeone,,-4,0.9003,,,,,,,,,,,,,,,,,,,,,,,,,,,,,,,,,,"[0.9372,0.9450000000000001,0.8980000000000001]","[0.9213999999999998,0.6391999999999998,-0.9922]",-63,110,1,0,0,response7disk,-10,3,1,0,0,rectangle,-10,3,1,0,0,,3,0.0018,0,-10,3,1,0,0,0,3,3,13,1,13,first,,,,,,,,,,,,,,,,,,,,,,,,,,,,,,,,,,,,,,,,,,,,,,,,,,,,,,,,,,,,,,,,,,,,,,,,
,,,,,,6134a29257aec791154425ae,62c53b2290b4718b2075a7bc,2022-07-06_09h35.19.402,Colour_Asymmetry_Pilot,2022.1.3,Win32,59.99520038,62c50e9c1127f2cd403a315f,,,,,,,,,,,,,,,,,,,,twofour,,-4,3.9504,,,,,,,,,,,,,,,,,,,,,,,,,,,,,,,,,,"[0.7176,-0.906,-0.6864]","[-0.38039999999999996,-0.4276,-0.1452]",-19,113,1,0,0,response7disk,16,2,1,0,0,rectangle,16,2,1,0,0,,2,0.002,0,16,2,1,0,0,0,4,4,4,1,4,first,,,,,,,,,,,,,,,,,,,,,,,,,,,,,,,,,,,,,,,,,,,,,,,,,,,,,,,,,,,,,,,,,,,,,,,,
,,,,,,6134a29257aec791154425ae,62c53b2290b4718b2075a7bc,2022-07-06_09h35.19.402,Colour_Asymmetry_Pilot,2022.1.3,Win32,59.99520038,62c50e9c1127f2cd403a315f,,,,,,,,,,,,,,,,,,,,onetwo,,4,0.602,,,,,,,,,,,,,,,,,,,,,,,,,,,,,,,,,,"[-0.4982,-0.2942,-0.0354000000000001]","[-0.30200000000000005,0.14500000000000002,0.2784]",53,103,1,0,0,response1disk,-16,7,1,0,0,rectangle,-16,7,1,0,0,,1,0.0028,0,-16,7,1,0,0,0,5,5,25,1,25,first,,,,,,,,,,,,,,,,,,,,,,,,,,,,,,,,,,,,,,,,,,,,,,,,,,,,,,,,,,,,,,,,,,,,,,,,
,,,,,,6134a29257aec791154425ae,62c53b2290b4718b2075a7bc,2022-07-06_09h35.19.402,Colour_Asymmetry_Pilot,2022.1.3,Win32,59.99520038,62c50e9c1127f2cd403a315f,,,,,,,,,,,,,,,,,,,,threeone,,-4,0.6435,,,,,,,,,,,,,,,,,,,,,,,,,,,,,,,,,,"[-0.17659999999999998,0.3253999999999999,0.19999999999999996]","[0.7646000000000002,0.07440000000000002,0.2704]",-42,88,1,0,0,response7disk,10,-3,1,0,0,rectangle,10,-3,1,0,0,,1,0.0008,0,10,-3,1,0,0,0,6,6,78,1,78,first,,,,,,,,,,,,,,,,,,,,,,,,,,,,,,,,,,,,,,,,,,,,,,,,,,,,,,,,,,,,,,,,,,,,,,,,
,,,,,,6134a29257aec791154425ae,62c53b2290b4718b2075a7bc,2022-07-06_09h35.19.402,Colour_Asymmetry_Pilot,2022.1.3,Win32,59.99520038,62c50e9c1127f2cd403a315f,,,,,,,,,,,,,,,,,,,,fourthree,,-4,2.6097,,,,,,,,,,,,,,,,,,,,,,,,,,,,,,,,,,"[-0.8198,-0.5138,-0.7492000000000001]","[0.796,0.2156,-0.27859999999999996]",-34,84,1,0,0,response7disk,-2,-1,1,0,0,rectangle,-2,-1,1,0,0,,3,0.0044,0,-2,-1,1,0,0,0,7,7,109,1,28,second,,,,,,,,,,,,,,,,,,,,,,,,,,,,,,,,,,,,,,,,,,,,,,,,,,,,,,,,,,,,,,,,,,,,,,,,
,,,,,,6134a29257aec791154425ae,62c53b2290b4718b2075a7bc,2022-07-06_09h35.19.402,Colour_Asymmetry_Pilot,2022.1.3,Win32,59.99520038,62c50e9c1127f2cd403a315f,,,,,,,,,,,,,,,,,,,,onetwo,,-4,1.6274,,,,,,,,,,,,,,,,,,,,,,,,,,,,,,,,,,"[-0.9688,-0.38039999999999996,-0.41979999999999995]","[0.796,0.2156,-0.27859999999999996]",-48,107,1,0,0,response7disk,-13,-12,1,0,0,rectangle,81,-38,1,0,0,2,2,3.4859,1,-15,4,1,0,0,0,8,8,97,1,16,second,response3disk_3,rectangle,,,,,,,,,,,,,,,,,,,,,,,,,,,,,,,,,,,,,,,,,,,,,,,,,,,,,,,,,,,,,,,,,,,,,,
,,,,,,6134a29257aec791154425ae,62c53b2290b4718b2075a7bc,2022-07-06_09h35.19.402,Colour_Asymmetry_Pilot,2022.1.3,Win32,59.99520038,62c50e9c1127f2cd403a315f,,,,,,,,,,,,,,,,,,,,onetwo,,4,1.2339,,,,,,,,,,,,,,,,,,,,,,,,,,,,,,,,,,"[-0.011800000000000033,-0.906,-0.45100000000000007]","[-0.9766,-0.6472,0.07440000000000002]",38,79,1,0,0,response1disk,9,6,1,0,0,rectangle,9,6,1,0,0,2,2,0.0003,0,9,6,1,0,0,0,9,9,117,1,36,second,,,,,,,,,,,,,,,,,,,,,,,,,,,,,,,,,,,,,,,,,,,,,,,,,,,,,,,,,,,,,,,,,,,,,,,,
,,,,,,6134a29257aec791154425ae,62c53b2290b4718b2075a7bc,2022-07-06_09h35.19.402,Colour_Asymmetry_Pilot,2022.1.3,Win32,59.99520038,62c50e9c1127f2cd403a315f,,,,,,,,,,,,,,,,,,,,onethree,,-4,0.9341,,,,,,,,,,,,,,,,,,,,,,,,,,,,,,,,,,"[1,0.12939999999999996,-1]","[-0.24719999999999998,0.5213999999999999,-0.12959999999999994]",-23,78,1,0,0,response7disk,-7,-8,1,0,0,rectangle,-7,-8,1,0,0,2,2,0.0003,0,-7,-8,1,0,0,0,10,10,79,1,79,first,,,,,,,,,,,,,,,,,,,,,,,,,,,,,,,,,,,,,,,,,,,,,,,,,,,,,,,,,,,,,,,,,,,,,,,,
,,,,,,6134a29257aec791154425ae,62c53b2290b4718b2075a7bc,2022-07-06_09h35.19.402,Colour_Asymmetry_Pilot,2022.1.3,Win32,59.99520038,62c50e9c1127f2cd403a315f,,,,,,,,,,,,,,,,,,,,fourthree,,4,0.7812,,,,,,,,,,,,,,,,,,,,,,,,,,,,,,,,,,"[-0.01980000000000004,-0.5138,-0.38039999999999996]","[-0.9216,-0.5529999999999999,-0.3962]",46,121,1,0,0,response1disk,-1,6,1,0,0,rectangle,-1,6,1,0,0,2,3,0.003,0,-1,6,1,0,0,0,11,11,125,1,44,second,,,,,,,,,,,,,,,,,,,,,,,,,,,,,,,,,,,,,,,,,,,,,,,,,,,,,,,,,,,,,,,,,,,,,,,,
,,,,,,6134a29257aec791154425ae,62c53b2290b4718b2075a7bc,2022-07-06_09h35.19.402,Colour_Asymmetry_Pilot,2022.1.3,Win32,59.99520038,62c50e9c1127f2cd403a315f,,,,,,,,,,,,,,,,,,,,onethree,,4,0.784,,,,,,,,,,,,,,,,,,,,,,,,,,,,,,,,,,"[0.9686000000000001,0.5763999999999998,0.11359999999999992]","[0.9842,0.7409999999999999,-0.6628000000000001]",49,89,1,0,0,response1disk,5,1,1,0,0,rectangle,5,1,1,0,0,2,1,0.0026,0,5,1,1,0,0,0,12,12,141,1,60,second,,,,,,,,,,,,,,,,,,,,,,,,,,,,,,,,,,,,,,,,,,,,,,,,,,,,,,,,,,,,,,,,,,,,,,,,
,,,,,,6134a29257aec791154425ae,62c53b2290b4718b2075a7bc,2022-07-06_09h35.19.402,Colour_Asymmetry_Pilot,2022.1.3,Win32,59.99520038,62c50e9c1127f2cd403a315f,,,,,,,,,,,,,,,,,,,,onethree,,-4,0.9167,,,,,,,,,,,,,,,,,,,,,,,,,,,,,,,,,,"[0.23920000000000008,0.2704,0.16060000000000008]","[0.8115999999999999,-0.0040000000000000036,-0.09819999999999995]",-29,79,1,0,0,response7disk,3,4,1,0,0,rectangle,3,4,1,0,0,2,3,0.0027,0,3,4,1,0,0,0,13,13,69,1,69,first,,,,,,,,,,,,,,,,,,,,,,,,,,,,,,,,,,,,,,,,,,,,,,,,,,,,,,,,,,,,,,,,,,,,,,,,
,,,,,,6134a29257aec791154425ae,62c53b2290b4718b2075a7bc,2022-07-06_09h35.19.402,Colour_Asymmetry_Pilot,2022.1.3,Win32,59.99520038,62c50e9c1127f2cd403a315f,,,,,,,,,,,,,,,,,,,,fourtwo,,-4,1.1344,,,,,,,,,,,,,,,,,,,,,,,,,,,,,,,,,,"[-0.45899999999999996,-0.3256,-0.9374]","[0.12939999999999996,-0.2864,0.3253999999999999]",-35,87,1,0,0,response7disk,10,-7,1,0,0,rectangle,10,-7,1,0,0,2,3,0.0005,0,10,-7,1,0,0,0,14,14,88,1,7,second,,,,,,,,,,,,,,,,,,,,,,,,,,,,,,,,,,,,,,,,,,,,,,,,,,,,,,,,,,,,,,,,,,,,,,,,
,,,,,,6134a29257aec791154425ae,62c53b2290b4718b2075a7bc,2022-07-06_09h35.19.402,Colour_Asymmetry_Pilot,2022.1.3,Win32,59.99520038,62c50e9c1127f2cd403a315f,,,,,,,,,,,,,,,,,,,,twofour,,-4,0.6332,,,,,,,,,,,,,,,,,,,,,,,,,,,,,,,,,,"[-0.17659999999999998,0.3253999999999999,0.19999999999999996]","[0.9372,0.9450000000000001,0.8980000000000001]",-44,105,1,0,0,response7disk,-18,6,1,0,0,rectangle,-18,6,1,0,0,2,3,0.0003,0,-18,6,1,0,0,0,15,15,19,1,19,first,,,,,,,,,,,,,,,,,,,,,,,,,,,,,,,,,,,,,,,,,,,,,,,,,,,,,,,,,,,,,,,,,,,,,,,,
,,,,,,6134a29257aec791154425ae,62c53b2290b4718b2075a7bc,2022-07-06_09h35.19.402,Colour_Asymmetry_Pilot,2022.1.3,Win32,59.99520038,62c50e9c1127f2cd403a315f,,,,,,,,,,,,,,,,,,,,onetwo,,-4,1.2173,,,,,,,,,,,,,,,,,,,,,,,,,,,,,,,,,,"[-0.24719999999999998,-0.0354000000000001,0.3175999999999999]","[0.23120000000000007,-0.7726,-0.34120000000000006]",-73,115,1,0,0,response7disk,8,-6,1,0,0,rectangle,8,-6,1,0,0,2,2,0.0031,0,8,-6,1,0,0,0,16,16,62,1,62,first,,,,,,,,,,,,,,,,,,,,,,,,,,,,,,,,,,,,,,,,,,,,,,,,,,,,,,,,,,,,,,,,,,,,,,,,
,,,,,,6134a29257aec791154425ae,62c53b2290b4718b2075a7bc,2022-07-06_09h35.19.402,Colour_Asymmetry_Pilot,2022.1.3,Win32,59.99520038,62c50e9c1127f2cd403a315f,,,,,,,,,,,,,,,,,,,,twoone,,-4,1.3158,,,,,,,,,,,,,,,,,,,,,,,,,,,,,,,,,,"[0.04299999999999993,0.16060000000000008,-0.6628000000000001]","[0.19199999999999995,0.18419999999999992,0.5136000000000001]",-29,77,1,0,0,response7disk,-14,-1,1,0,0,rectangle,-14,-1,1,0,0,2,3,0.003,0,-14,-1,1,0,0,0,17,17,12,1,12,first,,,,,,,,,,,,,,,,,,,,,,,,,,,,,,,,,,,,,,,,,,,,,,,,,,,,,,,,,,,,,,,,,,,,,,,,
