trials.thisRepN,trials.thisTrialN,trials.thisN,trials.thisIndex,trials.ran,Colourcodes,participant,session,date,expName,psychopyVersion,OS,frameRate,study_id,trials_4.thisRepN,trials_4.thisTrialN,trials_4.thisN,trials_4.thisIndex,trials_4.ran,StimulusPos,key_resp.keys,key_resp.rt,key_resp_2.keys,key_resp_2.rt,key_resp_15.keys,key_resp_15.rt,key_resp_17.keys,key_resp_17.rt,key_resp_9.keys,key_resp_9.rt,key_resp_10.keys,key_resp_10.rt,Circle1_col,Ecc,Circle2_col,similarity,response_time,mouse_5.x,mouse_5.y,mouse_5.leftButton,mouse_5.midButton,mouse_5.rightButton,mouse_5.clicked_name,mouse_10.x,mouse_10.y,mouse_10.leftButton,mouse_10.midButton,mouse_10.rightButton,mouse_10.clicked_name,mouse_7.x,mouse_7.y,mouse_7.leftButton,mouse_7.midButton,mouse_7.rightButton,catchnumberprac,mouse_6.x,mouse_6.y,mouse_6.leftButton,mouse_6.midButton,mouse_6.rightButton,duringprac.thisRepN,duringprac.thisTrialN,duringprac.thisN,duringprac.thisIndex,duringprac.ran,mouse_7.clicked_name,catchprac,mouse_6.clicked_name,key_resp_22.keys,key_resp_22.rt,Circle1_colour,Circle2_colour,mouse.x,mouse.y,mouse.leftButton,mouse.midButton,mouse.rightButton,mouse.clicked_name,mouse_2.x,mouse_2.y,mouse_2.leftButton,mouse_2.midButton,mouse_2.rightButton,mouse_2.clicked_name,mouse_3.x,mouse_3.y,mouse_3.leftButton,mouse_3.midButton,mouse_3.rightButton,catchresponse,catchnumber,response_time_catch,Catch,mouse_11.x,mouse_11.y,mouse_11.leftButton,mouse_11.midButton,mouse_11.rightButton,trials_2.thisRepN,trials_2.thisTrialN,trials_2.thisN,trials_2.thisIndex,trials_2.ran,Colourpair,Temporder,mouse_3.clicked_name,mouse_11.clicked_name,trials_3.thisRepN,trials_3.thisTrialN,trials_3.thisN,trials_3.thisIndex,trials_3.ran,key_resp_instr_Ishi.keys,key_resp_instr_Ishi.rt,Ishi_trial_keyresp.keys,Ishi_trial_keyresp.rt,Ishi_textbox.text,Ishi_mouse.x,Ishi_mouse.y,Ishi_mouse.leftButton,Ishi_mouse.midButton,Ishi_mouse.rightButton,Ishi_loop.thisRepN,Ishi_loop.thisTrialN,Ishi_loop.thisN,Ishi_loop.thisIndex,Ishi_loop.ran,imageaddress,textbox.text,mouse_4.x,mouse_4.y,mouse_4.leftButton,mouse_4.midButton,mouse_4.rightButton,mouse_4.clicked_name,textbox_2.text,mouse_8.x,mouse_8.y,mouse_8.leftButton,mouse_8.midButton,mouse_8.rightButton,mouse_8.clicked_name,textbox_3.text,mouse_9.x,mouse_9.y,mouse_9.leftButton,mouse_9.midButton,mouse_9.rightButton,mouse_9.clicked_name,textbox_4.text,mouse_12.x,mouse_12.y,mouse_12.leftButton,mouse_12.midButton,mouse_12.rightButton,mouse_12.clicked_name,textbox_5.text,mouse_13.x,mouse_13.y,mouse_13.leftButton,mouse_13.midButton,mouse_13.rightButton,mouse_13.clicked_name,textbox_6.text,mouse_14.x,mouse_14.y,mouse_14.leftButton,mouse_14.midButton,mouse_14.rightButton,textbox_7.text,mouse_15.x,mouse_15.y,mouse_15.leftButton,mouse_15.midButton,mouse_15.rightButton,mouse_15.clicked_name
0,0,0,68,1,,6109c32e483687220df3e6a3,62c5392e1525d49b87c79224,2022-07-06_09h34.17.921,Colour_Asymmetry_Pilot,2022.1.3,Win32,59.9268892,62c50e9c1127f2cd403a315f,,,,,,,,,,,,,,,,,,,,,,,,,,,,,,,,,,,,,,,,,,,,,,,,,,,,,,,,,,,,,,,,,,,,,,,,,,,,,,,,,,,,,,,,,,,,,,,,,,,,,,,,,,,,,,,,,,,,,,,,,,,,,,,,,,,,,,,,,,,,,,,,,,,,,,,,,,,,,,,,,,
0,1,1,80,1,,6109c32e483687220df3e6a3,62c5392e1525d49b87c79224,2022-07-06_09h34.17.921,Colour_Asymmetry_Pilot,2022.1.3,Win32,59.9268892,62c50e9c1127f2cd403a315f,,,,,,,,,,,,,,,,,,,,,,,,,,,,,,,,,,,,,,,,,,,,,,,,,,,,,,,,,,,,,,,,,,,,,,,,,,,,,,,,,,,,,,,,,,,,,,,,,,,,,,,,,,,,,,,,,,,,,,,,,,,,,,,,,,,,,,,,,,,,,,,,,,,,,,,,,,,,,,,,,,
0,2,2,52,1,,6109c32e483687220df3e6a3,62c5392e1525d49b87c79224,2022-07-06_09h34.17.921,Colour_Asymmetry_Pilot,2022.1.3,Win32,59.9268892,62c50e9c1127f2cd403a315f,,,,,,,,,,,,,,,,,,,,,,,,,,,,,,,,,,,,,,,,,,,,,,,,,,,,,,,,,,,,,,,,,,,,,,,,,,,,,,,,,,,,,,,,,,,,,,,,,,,,,,,,,,,,,,,,,,,,,,,,,,,,,,,,,,,,,,,,,,,,,,,,,,,,,,,,,,,,,,,,,,
0,3,3,35,1,,6109c32e483687220df3e6a3,62c5392e1525d49b87c79224,2022-07-06_09h34.17.921,Colour_Asymmetry_Pilot,2022.1.3,Win32,59.9268892,62c50e9c1127f2cd403a315f,,,,,,,,,,,,,,,,,,,,,,,,,,,,,,,,,,,,,,,,,,,,,,,,,,,,,,,,,,,,,,,,,,,,,,,,,,,,,,,,,,,,,,,,,,,,,,,,,,,,,,,,,,,,,,,,,,,,,,,,,,,,,,,,,,,,,,,,,,,,,,,,,,,,,,,,,,,,,,,,,,
0,4,4,1,1,,6109c32e483687220df3e6a3,62c5392e1525d49b87c79224,2022-07-06_09h34.17.921,Colour_Asymmetry_Pilot,2022.1.3,Win32,59.9268892,62c50e9c1127f2cd403a315f,,,,,,,,,,,,,,,,,,,,,,,,,,,,,,,,,,,,,,,,,,,,,,,,,,,,,,,,,,,,,,,,,,,,,,,,,,,,,,,,,,,,,,,,,,,,,,,,,,,,,,,,,,,,,,,,,,,,,,,,,,,,,,,,,,,,,,,,,,,,,,,,,,,,,,,,,,,,,,,,,,
0,5,5,65,1,,6109c32e483687220df3e6a3,62c5392e1525d49b87c79224,2022-07-06_09h34.17.921,Colour_Asymmetry_Pilot,2022.1.3,Win32,59.9268892,62c50e9c1127f2cd403a315f,,,,,,,,,,,,,,,,,,,,,,,,,,,,,,,,,,,,,,,,,,,,,,,,,,,,,,,,,,,,,,,,,,,,,,,,,,,,,,,,,,,,,,,,,,,,,,,,,,,,,,,,,,,,,,,,,,,,,,,,,,,,,,,,,,,,,,,,,,,,,,,,,,,,,,,,,,,,,,,,,,
0,6,6,34,1,,6109c32e483687220df3e6a3,62c5392e1525d49b87c79224,2022-07-06_09h34.17.921,Colour_Asymmetry_Pilot,2022.1.3,Win32,59.9268892,62c50e9c1127f2cd403a315f,,,,,,,,,,,,,,,,,,,,,,,,,,,,,,,,,,,,,,,,,,,,,,,,,,,,,,,,,,,,,,,,,,,,,,,,,,,,,,,,,,,,,,,,,,,,,,,,,,,,,,,,,,,,,,,,,,,,,,,,,,,,,,,,,,,,,,,,,,,,,,,,,,,,,,,,,,,,,,,,,,
0,7,7,31,1,,6109c32e483687220df3e6a3,62c5392e1525d49b87c79224,2022-07-06_09h34.17.921,Colour_Asymmetry_Pilot,2022.1.3,Win32,59.9268892,62c50e9c1127f2cd403a315f,,,,,,,,,,,,,,,,,,,,,,,,,,,,,,,,,,,,,,,,,,,,,,,,,,,,,,,,,,,,,,,,,,,,,,,,,,,,,,,,,,,,,,,,,,,,,,,,,,,,,,,,,,,,,,,,,,,,,,,,,,,,,,,,,,,,,,,,,,,,,,,,,,,,,,,,,,,,,,,,,,
0,8,8,41,1,,6109c32e483687220df3e6a3,62c5392e1525d49b87c79224,2022-07-06_09h34.17.921,Colour_Asymmetry_Pilot,2022.1.3,Win32,59.9268892,62c50e9c1127f2cd403a315f,,,,,,,,,,,,,,,,,,,,,,,,,,,,,,,,,,,,,,,,,,,,,,,,,,,,,,,,,,,,,,,,,,,,,,,,,,,,,,,,,,,,,,,,,,,,,,,,,,,,,,,,,,,,,,,,,,,,,,,,,,,,,,,,,,,,,,,,,,,,,,,,,,,,,,,,,,,,,,,,,,
0,9,9,32,1,,6109c32e483687220df3e6a3,62c5392e1525d49b87c79224,2022-07-06_09h34.17.921,Colour_Asymmetry_Pilot,2022.1.3,Win32,59.9268892,62c50e9c1127f2cd403a315f,,,,,,,,,,,,,,,,,,,,,,,,,,,,,,,,,,,,,,,,,,,,,,,,,,,,,,,,,,,,,,,,,,,,,,,,,,,,,,,,,,,,,,,,,,,,,,,,,,,,,,,,,,,,,,,,,,,,,,,,,,,,,,,,,,,,,,,,,,,,,,,,,,,,,,,,,,,,,,,,,,
0,10,10,3,1,,6109c32e483687220df3e6a3,62c5392e1525d49b87c79224,2022-07-06_09h34.17.921,Colour_Asymmetry_Pilot,2022.1.3,Win32,59.9268892,62c50e9c1127f2cd403a315f,,,,,,,,,,,,,,,,,,,,,,,,,,,,,,,,,,,,,,,,,,,,,,,,,,,,,,,,,,,,,,,,,,,,,,,,,,,,,,,,,,,,,,,,,,,,,,,,,,,,,,,,,,,,,,,,,,,,,,,,,,,,,,,,,,,,,,,,,,,,,,,,,,,,,,,,,,,,,,,,,,
0,11,11,48,1,,6109c32e483687220df3e6a3,62c5392e1525d49b87c79224,2022-07-06_09h34.17.921,Colour_Asymmetry_Pilot,2022.1.3,Win32,59.9268892,62c50e9c1127f2cd403a315f,,,,,,,,,,,,,,,,,,,,,,,,,,,,,,,,,,,,,,,,,,,,,,,,,,,,,,,,,,,,,,,,,,,,,,,,,,,,,,,,,,,,,,,,,,,,,,,,,,,,,,,,,,,,,,,,,,,,,,,,,,,,,,,,,,,,,,,,,,,,,,,,,,,,,,,,,,,,,,,,,,
0,12,12,78,1,,6109c32e483687220df3e6a3,62c5392e1525d49b87c79224,2022-07-06_09h34.17.921,Colour_Asymmetry_Pilot,2022.1.3,Win32,59.9268892,62c50e9c1127f2cd403a315f,,,,,,,,,,,,,,,,,,,,,,,,,,,,,,,,,,,,,,,,,,,,,,,,,,,,,,,,,,,,,,,,,,,,,,,,,,,,,,,,,,,,,,,,,,,,,,,,,,,,,,,,,,,,,,,,,,,,,,,,,,,,,,,,,,,,,,,,,,,,,,,,,,,,,,,,,,,,,,,,,,
0,13,13,24,1,,6109c32e483687220df3e6a3,62c5392e1525d49b87c79224,2022-07-06_09h34.17.921,Colour_Asymmetry_Pilot,2022.1.3,Win32,59.9268892,62c50e9c1127f2cd403a315f,,,,,,,,,,,,,,,,,,,,,,,,,,,,,,,,,,,,,,,,,,,,,,,,,,,,,,,,,,,,,,,,,,,,,,,,,,,,,,,,,,,,,,,,,,,,,,,,,,,,,,,,,,,,,,,,,,,,,,,,,,,,,,,,,,,,,,,,,,,,,,,,,,,,,,,,,,,,,,,,,,
0,14,14,33,1,,6109c32e483687220df3e6a3,62c5392e1525d49b87c79224,2022-07-06_09h34.17.921,Colour_Asymmetry_Pilot,2022.1.3,Win32,59.9268892,62c50e9c1127f2cd403a315f,,,,,,,,,,,,,,,,,,,,,,,,,,,,,,,,,,,,,,,,,,,,,,,,,,,,,,,,,,,,,,,,,,,,,,,,,,,,,,,,,,,,,,,,,,,,,,,,,,,,,,,,,,,,,,,,,,,,,,,,,,,,,,,,,,,,,,,,,,,,,,,,,,,,,,,,,,,,,,,,,,
0,15,15,10,1,,6109c32e483687220df3e6a3,62c5392e1525d49b87c79224,2022-07-06_09h34.17.921,Colour_Asymmetry_Pilot,2022.1.3,Win32,59.9268892,62c50e9c1127f2cd403a315f,,,,,,,,,,,,,,,,,,,,,,,,,,,,,,,,,,,,,,,,,,,,,,,,,,,,,,,,,,,,,,,,,,,,,,,,,,,,,,,,,,,,,,,,,,,,,,,,,,,,,,,,,,,,,,,,,,,,,,,,,,,,,,,,,,,,,,,,,,,,,,,,,,,,,,,,,,,,,,,,,,
0,16,16,49,1,,6109c32e483687220df3e6a3,62c5392e1525d49b87c79224,2022-07-06_09h34.17.921,Colour_Asymmetry_Pilot,2022.1.3,Win32,59.9268892,62c50e9c1127f2cd403a315f,,,,,,,,,,,,,,,,,,,,,,,,,,,,,,,,,,,,,,,,,,,,,,,,,,,,,,,,,,,,,,,,,,,,,,,,,,,,,,,,,,,,,,,,,,,,,,,,,,,,,,,,,,,,,,,,,,,,,,,,,,,,,,,,,,,,,,,,,,,,,,,,,,,,,,,,,,,,,,,,,,
0,17,17,71,1,,6109c32e483687220df3e6a3,62c5392e1525d49b87c79224,2022-07-06_09h34.17.921,Colour_Asymmetry_Pilot,2022.1.3,Win32,59.9268892,62c50e9c1127f2cd403a315f,,,,,,,,,,,,,,,,,,,,,,,,,,,,,,,,,,,,,,,,,,,,,,,,,,,,,,,,,,,,,,,,,,,,,,,,,,,,,,,,,,,,,,,,,,,,,,,,,,,,,,,,,,,,,,,,,,,,,,,,,,,,,,,,,,,,,,,,,,,,,,,,,,,,,,,,,,,,,,,,,,
0,18,18,54,1,,6109c32e483687220df3e6a3,62c5392e1525d49b87c79224,2022-07-06_09h34.17.921,Colour_Asymmetry_Pilot,2022.1.3,Win32,59.9268892,62c50e9c1127f2cd403a315f,,,,,,,,,,,,,,,,,,,,,,,,,,,,,,,,,,,,,,,,,,,,,,,,,,,,,,,,,,,,,,,,,,,,,,,,,,,,,,,,,,,,,,,,,,,,,,,,,,,,,,,,,,,,,,,,,,,,,,,,,,,,,,,,,,,,,,,,,,,,,,,,,,,,,,,,,,,,,,,,,,
0,19,19,81,1,,6109c32e483687220df3e6a3,62c5392e1525d49b87c79224,2022-07-06_09h34.17.921,Colour_Asymmetry_Pilot,2022.1.3,Win32,59.9268892,62c50e9c1127f2cd403a315f,,,,,,,,,,,,,,,,,,,,,,,,,,,,,,,,,,,,,,,,,,,,,,,,,,,,,,,,,,,,,,,,,,,,,,,,,,,,,,,,,,,,,,,,,,,,,,,,,,,,,,,,,,,,,,,,,,,,,,,,,,,,,,,,,,,,,,,,,,,,,,,,,,,,,,,,,,,,,,,,,,
0,20,20,86,1,,6109c32e483687220df3e6a3,62c5392e1525d49b87c79224,2022-07-06_09h34.17.921,Colour_Asymmetry_Pilot,2022.1.3,Win32,59.9268892,62c50e9c1127f2cd403a315f,,,,,,,,,,,,,,,,,,,,,,,,,,,,,,,,,,,,,,,,,,,,,,,,,,,,,,,,,,,,,,,,,,,,,,,,,,,,,,,,,,,,,,,,,,,,,,,,,,,,,,,,,,,,,,,,,,,,,,,,,,,,,,,,,,,,,,,,,,,,,,,,,,,,,,,,,,,,,,,,,,
0,21,21,63,1,,6109c32e483687220df3e6a3,62c5392e1525d49b87c79224,2022-07-06_09h34.17.921,Colour_Asymmetry_Pilot,2022.1.3,Win32,59.9268892,62c50e9c1127f2cd403a315f,,,,,,,,,,,,,,,,,,,,,,,,,,,,,,,,,,,,,,,,,,,,,,,,,,,,,,,,,,,,,,,,,,,,,,,,,,,,,,,,,,,,,,,,,,,,,,,,,,,,,,,,,,,,,,,,,,,,,,,,,,,,,,,,,,,,,,,,,,,,,,,,,,,,,,,,,,,,,,,,,,
0,22,22,39,1,,6109c32e483687220df3e6a3,62c5392e1525d49b87c79224,2022-07-06_09h34.17.921,Colour_Asymmetry_Pilot,2022.1.3,Win32,59.9268892,62c50e9c1127f2cd403a315f,,,,,,,,,,,,,,,,,,,,,,,,,,,,,,,,,,,,,,,,,,,,,,,,,,,,,,,,,,,,,,,,,,,,,,,,,,,,,,,,,,,,,,,,,,,,,,,,,,,,,,,,,,,,,,,,,,,,,,,,,,,,,,,,,,,,,,,,,,,,,,,,,,,,,,,,,,,,,,,,,,
0,23,23,9,1,,6109c32e483687220df3e6a3,62c5392e1525d49b87c79224,2022-07-06_09h34.17.921,Colour_Asymmetry_Pilot,2022.1.3,Win32,59.9268892,62c50e9c1127f2cd403a315f,,,,,,,,,,,,,,,,,,,,,,,,,,,,,,,,,,,,,,,,,,,,,,,,,,,,,,,,,,,,,,,,,,,,,,,,,,,,,,,,,,,,,,,,,,,,,,,,,,,,,,,,,,,,,,,,,,,,,,,,,,,,,,,,,,,,,,,,,,,,,,,,,,,,,,,,,,,,,,,,,,
0,24,24,45,1,,6109c32e483687220df3e6a3,62c5392e1525d49b87c79224,2022-07-06_09h34.17.921,Colour_Asymmetry_Pilot,2022.1.3,Win32,59.9268892,62c50e9c1127f2cd403a315f,,,,,,,,,,,,,,,,,,,,,,,,,,,,,,,,,,,,,,,,,,,,,,,,,,,,,,,,,,,,,,,,,,,,,,,,,,,,,,,,,,,,,,,,,,,,,,,,,,,,,,,,,,,,,,,,,,,,,,,,,,,,,,,,,,,,,,,,,,,,,,,,,,,,,,,,,,,,,,,,,,
0,25,25,15,1,,6109c32e483687220df3e6a3,62c5392e1525d49b87c79224,2022-07-06_09h34.17.921,Colour_Asymmetry_Pilot,2022.1.3,Win32,59.9268892,62c50e9c1127f2cd403a315f,,,,,,,,,,,,,,,,,,,,,,,,,,,,,,,,,,,,,,,,,,,,,,,,,,,,,,,,,,,,,,,,,,,,,,,,,,,,,,,,,,,,,,,,,,,,,,,,,,,,,,,,,,,,,,,,,,,,,,,,,,,,,,,,,,,,,,,,,,,,,,,,,,,,,,,,,,,,,,,,,,
0,26,26,91,1,,6109c32e483687220df3e6a3,62c5392e1525d49b87c79224,2022-07-06_09h34.17.921,Colour_Asymmetry_Pilot,2022.1.3,Win32,59.9268892,62c50e9c1127f2cd403a315f,,,,,,,,,,,,,,,,,,,,,,,,,,,,,,,,,,,,,,,,,,,,,,,,,,,,,,,,,,,,,,,,,,,,,,,,,,,,,,,,,,,,,,,,,,,,,,,,,,,,,,,,,,,,,,,,,,,,,,,,,,,,,,,,,,,,,,,,,,,,,,,,,,,,,,,,,,,,,,,,,,
0,27,27,76,1,,6109c32e483687220df3e6a3,62c5392e1525d49b87c79224,2022-07-06_09h34.17.921,Colour_Asymmetry_Pilot,2022.1.3,Win32,59.9268892,62c50e9c1127f2cd403a315f,,,,,,,,,,,,,,,,,,,,,,,,,,,,,,,,,,,,,,,,,,,,,,,,,,,,,,,,,,,,,,,,,,,,,,,,,,,,,,,,,,,,,,,,,,,,,,,,,,,,,,,,,,,,,,,,,,,,,,,,,,,,,,,,,,,,,,,,,,,,,,,,,,,,,,,,,,,,,,,,,,
0,28,28,5,1,,6109c32e483687220df3e6a3,62c5392e1525d49b87c79224,2022-07-06_09h34.17.921,Colour_Asymmetry_Pilot,2022.1.3,Win32,59.9268892,62c50e9c1127f2cd403a315f,,,,,,,,,,,,,,,,,,,,,,,,,,,,,,,,,,,,,,,,,,,,,,,,,,,,,,,,,,,,,,,,,,,,,,,,,,,,,,,,,,,,,,,,,,,,,,,,,,,,,,,,,,,,,,,,,,,,,,,,,,,,,,,,,,,,,,,,,,,,,,,,,,,,,,,,,,,,,,,,,,
0,29,29,64,1,,6109c32e483687220df3e6a3,62c5392e1525d49b87c79224,2022-07-06_09h34.17.921,Colour_Asymmetry_Pilot,2022.1.3,Win32,59.9268892,62c50e9c1127f2cd403a315f,,,,,,,,,,,,,,,,,,,,,,,,,,,,,,,,,,,,,,,,,,,,,,,,,,,,,,,,,,,,,,,,,,,,,,,,,,,,,,,,,,,,,,,,,,,,,,,,,,,,,,,,,,,,,,,,,,,,,,,,,,,,,,,,,,,,,,,,,,,,,,,,,,,,,,,,,,,,,,,,,,
0,30,30,16,1,,6109c32e483687220df3e6a3,62c5392e1525d49b87c79224,2022-07-06_09h34.17.921,Colour_Asymmetry_Pilot,2022.1.3,Win32,59.9268892,62c50e9c1127f2cd403a315f,,,,,,,,,,,,,,,,,,,,,,,,,,,,,,,,,,,,,,,,,,,,,,,,,,,,,,,,,,,,,,,,,,,,,,,,,,,,,,,,,,,,,,,,,,,,,,,,,,,,,,,,,,,,,,,,,,,,,,,,,,,,,,,,,,,,,,,,,,,,,,,,,,,,,,,,,,,,,,,,,,
0,31,31,4,1,,6109c32e483687220df3e6a3,62c5392e1525d49b87c79224,2022-07-06_09h34.17.921,Colour_Asymmetry_Pilot,2022.1.3,Win32,59.9268892,62c50e9c1127f2cd403a315f,,,,,,,,,,,,,,,,,,,,,,,,,,,,,,,,,,,,,,,,,,,,,,,,,,,,,,,,,,,,,,,,,,,,,,,,,,,,,,,,,,,,,,,,,,,,,,,,,,,,,,,,,,,,,,,,,,,,,,,,,,,,,,,,,,,,,,,,,,,,,,,,,,,,,,,,,,,,,,,,,,
0,32,32,18,1,,6109c32e483687220df3e6a3,62c5392e1525d49b87c79224,2022-07-06_09h34.17.921,Colour_Asymmetry_Pilot,2022.1.3,Win32,59.9268892,62c50e9c1127f2cd403a315f,,,,,,,,,,,,,,,,,,,,,,,,,,,,,,,,,,,,,,,,,,,,,,,,,,,,,,,,,,,,,,,,,,,,,,,,,,,,,,,,,,,,,,,,,,,,,,,,,,,,,,,,,,,,,,,,,,,,,,,,,,,,,,,,,,,,,,,,,,,,,,,,,,,,,,,,,,,,,,,,,,
0,33,33,14,1,,6109c32e483687220df3e6a3,62c5392e1525d49b87c79224,2022-07-06_09h34.17.921,Colour_Asymmetry_Pilot,2022.1.3,Win32,59.9268892,62c50e9c1127f2cd403a315f,,,,,,,,,,,,,,,,,,,,,,,,,,,,,,,,,,,,,,,,,,,,,,,,,,,,,,,,,,,,,,,,,,,,,,,,,,,,,,,,,,,,,,,,,,,,,,,,,,,,,,,,,,,,,,,,,,,,,,,,,,,,,,,,,,,,,,,,,,,,,,,,,,,,,,,,,,,,,,,,,,
0,34,34,13,1,,6109c32e483687220df3e6a3,62c5392e1525d49b87c79224,2022-07-06_09h34.17.921,Colour_Asymmetry_Pilot,2022.1.3,Win32,59.9268892,62c50e9c1127f2cd403a315f,,,,,,,,,,,,,,,,,,,,,,,,,,,,,,,,,,,,,,,,,,,,,,,,,,,,,,,,,,,,,,,,,,,,,,,,,,,,,,,,,,,,,,,,,,,,,,,,,,,,,,,,,,,,,,,,,,,,,,,,,,,,,,,,,,,,,,,,,,,,,,,,,,,,,,,,,,,,,,,,,,
0,35,35,61,1,,6109c32e483687220df3e6a3,62c5392e1525d49b87c79224,2022-07-06_09h34.17.921,Colour_Asymmetry_Pilot,2022.1.3,Win32,59.9268892,62c50e9c1127f2cd403a315f,,,,,,,,,,,,,,,,,,,,,,,,,,,,,,,,,,,,,,,,,,,,,,,,,,,,,,,,,,,,,,,,,,,,,,,,,,,,,,,,,,,,,,,,,,,,,,,,,,,,,,,,,,,,,,,,,,,,,,,,,,,,,,,,,,,,,,,,,,,,,,,,,,,,,,,,,,,,,,,,,,
0,36,36,29,1,,6109c32e483687220df3e6a3,62c5392e1525d49b87c79224,2022-07-06_09h34.17.921,Colour_Asymmetry_Pilot,2022.1.3,Win32,59.9268892,62c50e9c1127f2cd403a315f,,,,,,,,,,,,,,,,,,,,,,,,,,,,,,,,,,,,,,,,,,,,,,,,,,,,,,,,,,,,,,,,,,,,,,,,,,,,,,,,,,,,,,,,,,,,,,,,,,,,,,,,,,,,,,,,,,,,,,,,,,,,,,,,,,,,,,,,,,,,,,,,,,,,,,,,,,,,,,,,,,
0,37,37,51,1,,6109c32e483687220df3e6a3,62c5392e1525d49b87c79224,2022-07-06_09h34.17.921,Colour_Asymmetry_Pilot,2022.1.3,Win32,59.9268892,62c50e9c1127f2cd403a315f,,,,,,,,,,,,,,,,,,,,,,,,,,,,,,,,,,,,,,,,,,,,,,,,,,,,,,,,,,,,,,,,,,,,,,,,,,,,,,,,,,,,,,,,,,,,,,,,,,,,,,,,,,,,,,,,,,,,,,,,,,,,,,,,,,,,,,,,,,,,,,,,,,,,,,,,,,,,,,,,,,
0,38,38,27,1,,6109c32e483687220df3e6a3,62c5392e1525d49b87c79224,2022-07-06_09h34.17.921,Colour_Asymmetry_Pilot,2022.1.3,Win32,59.9268892,62c50e9c1127f2cd403a315f,,,,,,,,,,,,,,,,,,,,,,,,,,,,,,,,,,,,,,,,,,,,,,,,,,,,,,,,,,,,,,,,,,,,,,,,,,,,,,,,,,,,,,,,,,,,,,,,,,,,,,,,,,,,,,,,,,,,,,,,,,,,,,,,,,,,,,,,,,,,,,,,,,,,,,,,,,,,,,,,,,
0,39,39,28,1,,6109c32e483687220df3e6a3,62c5392e1525d49b87c79224,2022-07-06_09h34.17.921,Colour_Asymmetry_Pilot,2022.1.3,Win32,59.9268892,62c50e9c1127f2cd403a315f,,,,,,,,,,,,,,,,,,,,,,,,,,,,,,,,,,,,,,,,,,,,,,,,,,,,,,,,,,,,,,,,,,,,,,,,,,,,,,,,,,,,,,,,,,,,,,,,,,,,,,,,,,,,,,,,,,,,,,,,,,,,,,,,,,,,,,,,,,,,,,,,,,,,,,,,,,,,,,,,,,
0,40,40,17,1,,6109c32e483687220df3e6a3,62c5392e1525d49b87c79224,2022-07-06_09h34.17.921,Colour_Asymmetry_Pilot,2022.1.3,Win32,59.9268892,62c50e9c1127f2cd403a315f,,,,,,,,,,,,,,,,,,,,,,,,,,,,,,,,,,,,,,,,,,,,,,,,,,,,,,,,,,,,,,,,,,,,,,,,,,,,,,,,,,,,,,,,,,,,,,,,,,,,,,,,,,,,,,,,,,,,,,,,,,,,,,,,,,,,,,,,,,,,,,,,,,,,,,,,,,,,,,,,,,
0,41,41,79,1,,6109c32e483687220df3e6a3,62c5392e1525d49b87c79224,2022-07-06_09h34.17.921,Colour_Asymmetry_Pilot,2022.1.3,Win32,59.9268892,62c50e9c1127f2cd403a315f,,,,,,,,,,,,,,,,,,,,,,,,,,,,,,,,,,,,,,,,,,,,,,,,,,,,,,,,,,,,,,,,,,,,,,,,,,,,,,,,,,,,,,,,,,,,,,,,,,,,,,,,,,,,,,,,,,,,,,,,,,,,,,,,,,,,,,,,,,,,,,,,,,,,,,,,,,,,,,,,,,
0,42,42,23,1,,6109c32e483687220df3e6a3,62c5392e1525d49b87c79224,2022-07-06_09h34.17.921,Colour_Asymmetry_Pilot,2022.1.3,Win32,59.9268892,62c50e9c1127f2cd403a315f,,,,,,,,,,,,,,,,,,,,,,,,,,,,,,,,,,,,,,,,,,,,,,,,,,,,,,,,,,,,,,,,,,,,,,,,,,,,,,,,,,,,,,,,,,,,,,,,,,,,,,,,,,,,,,,,,,,,,,,,,,,,,,,,,,,,,,,,,,,,,,,,,,,,,,,,,,,,,,,,,,
0,43,43,37,1,,6109c32e483687220df3e6a3,62c5392e1525d49b87c79224,2022-07-06_09h34.17.921,Colour_Asymmetry_Pilot,2022.1.3,Win32,59.9268892,62c50e9c1127f2cd403a315f,,,,,,,,,,,,,,,,,,,,,,,,,,,,,,,,,,,,,,,,,,,,,,,,,,,,,,,,,,,,,,,,,,,,,,,,,,,,,,,,,,,,,,,,,,,,,,,,,,,,,,,,,,,,,,,,,,,,,,,,,,,,,,,,,,,,,,,,,,,,,,,,,,,,,,,,,,,,,,,,,,
0,44,44,56,1,,6109c32e483687220df3e6a3,62c5392e1525d49b87c79224,2022-07-06_09h34.17.921,Colour_Asymmetry_Pilot,2022.1.3,Win32,59.9268892,62c50e9c1127f2cd403a315f,,,,,,,,,,,,,,,,,,,,,,,,,,,,,,,,,,,,,,,,,,,,,,,,,,,,,,,,,,,,,,,,,,,,,,,,,,,,,,,,,,,,,,,,,,,,,,,,,,,,,,,,,,,,,,,,,,,,,,,,,,,,,,,,,,,,,,,,,,,,,,,,,,,,,,,,,,,,,,,,,,
0,45,45,72,1,,6109c32e483687220df3e6a3,62c5392e1525d49b87c79224,2022-07-06_09h34.17.921,Colour_Asymmetry_Pilot,2022.1.3,Win32,59.9268892,62c50e9c1127f2cd403a315f,,,,,,,,,,,,,,,,,,,,,,,,,,,,,,,,,,,,,,,,,,,,,,,,,,,,,,,,,,,,,,,,,,,,,,,,,,,,,,,,,,,,,,,,,,,,,,,,,,,,,,,,,,,,,,,,,,,,,,,,,,,,,,,,,,,,,,,,,,,,,,,,,,,,,,,,,,,,,,,,,,
0,46,46,74,1,,6109c32e483687220df3e6a3,62c5392e1525d49b87c79224,2022-07-06_09h34.17.921,Colour_Asymmetry_Pilot,2022.1.3,Win32,59.9268892,62c50e9c1127f2cd403a315f,,,,,,,,,,,,,,,,,,,,,,,,,,,,,,,,,,,,,,,,,,,,,,,,,,,,,,,,,,,,,,,,,,,,,,,,,,,,,,,,,,,,,,,,,,,,,,,,,,,,,,,,,,,,,,,,,,,,,,,,,,,,,,,,,,,,,,,,,,,,,,,,,,,,,,,,,,,,,,,,,,
0,47,47,2,1,,6109c32e483687220df3e6a3,62c5392e1525d49b87c79224,2022-07-06_09h34.17.921,Colour_Asymmetry_Pilot,2022.1.3,Win32,59.9268892,62c50e9c1127f2cd403a315f,,,,,,,,,,,,,,,,,,,,,,,,,,,,,,,,,,,,,,,,,,,,,,,,,,,,,,,,,,,,,,,,,,,,,,,,,,,,,,,,,,,,,,,,,,,,,,,,,,,,,,,,,,,,,,,,,,,,,,,,,,,,,,,,,,,,,,,,,,,,,,,,,,,,,,,,,,,,,,,,,,
0,48,48,87,1,,6109c32e483687220df3e6a3,62c5392e1525d49b87c79224,2022-07-06_09h34.17.921,Colour_Asymmetry_Pilot,2022.1.3,Win32,59.9268892,62c50e9c1127f2cd403a315f,,,,,,,,,,,,,,,,,,,,,,,,,,,,,,,,,,,,,,,,,,,,,,,,,,,,,,,,,,,,,,,,,,,,,,,,,,,,,,,,,,,,,,,,,,,,,,,,,,,,,,,,,,,,,,,,,,,,,,,,,,,,,,,,,,,,,,,,,,,,,,,,,,,,,,,,,,,,,,,,,,
0,49,49,83,1,,6109c32e483687220df3e6a3,62c5392e1525d49b87c79224,2022-07-06_09h34.17.921,Colour_Asymmetry_Pilot,2022.1.3,Win32,59.9268892,62c50e9c1127f2cd403a315f,,,,,,,,,,,,,,,,,,,,,,,,,,,,,,,,,,,,,,,,,,,,,,,,,,,,,,,,,,,,,,,,,,,,,,,,,,,,,,,,,,,,,,,,,,,,,,,,,,,,,,,,,,,,,,,,,,,,,,,,,,,,,,,,,,,,,,,,,,,,,,,,,,,,,,,,,,,,,,,,,,
0,50,50,75,1,,6109c32e483687220df3e6a3,62c5392e1525d49b87c79224,2022-07-06_09h34.17.921,Colour_Asymmetry_Pilot,2022.1.3,Win32,59.9268892,62c50e9c1127f2cd403a315f,,,,,,,,,,,,,,,,,,,,,,,,,,,,,,,,,,,,,,,,,,,,,,,,,,,,,,,,,,,,,,,,,,,,,,,,,,,,,,,,,,,,,,,,,,,,,,,,,,,,,,,,,,,,,,,,,,,,,,,,,,,,,,,,,,,,,,,,,,,,,,,,,,,,,,,,,,,,,,,,,,
0,51,51,50,1,,6109c32e483687220df3e6a3,62c5392e1525d49b87c79224,2022-07-06_09h34.17.921,Colour_Asymmetry_Pilot,2022.1.3,Win32,59.9268892,62c50e9c1127f2cd403a315f,,,,,,,,,,,,,,,,,,,,,,,,,,,,,,,,,,,,,,,,,,,,,,,,,,,,,,,,,,,,,,,,,,,,,,,,,,,,,,,,,,,,,,,,,,,,,,,,,,,,,,,,,,,,,,,,,,,,,,,,,,,,,,,,,,,,,,,,,,,,,,,,,,,,,,,,,,,,,,,,,,
0,52,52,44,1,,6109c32e483687220df3e6a3,62c5392e1525d49b87c79224,2022-07-06_09h34.17.921,Colour_Asymmetry_Pilot,2022.1.3,Win32,59.9268892,62c50e9c1127f2cd403a315f,,,,,,,,,,,,,,,,,,,,,,,,,,,,,,,,,,,,,,,,,,,,,,,,,,,,,,,,,,,,,,,,,,,,,,,,,,,,,,,,,,,,,,,,,,,,,,,,,,,,,,,,,,,,,,,,,,,,,,,,,,,,,,,,,,,,,,,,,,,,,,,,,,,,,,,,,,,,,,,,,,
0,53,53,90,1,,6109c32e483687220df3e6a3,62c5392e1525d49b87c79224,2022-07-06_09h34.17.921,Colour_Asymmetry_Pilot,2022.1.3,Win32,59.9268892,62c50e9c1127f2cd403a315f,,,,,,,,,,,,,,,,,,,,,,,,,,,,,,,,,,,,,,,,,,,,,,,,,,,,,,,,,,,,,,,,,,,,,,,,,,,,,,,,,,,,,,,,,,,,,,,,,,,,,,,,,,,,,,,,,,,,,,,,,,,,,,,,,,,,,,,,,,,,,,,,,,,,,,,,,,,,,,,,,,
0,54,54,73,1,,6109c32e483687220df3e6a3,62c5392e1525d49b87c79224,2022-07-06_09h34.17.921,Colour_Asymmetry_Pilot,2022.1.3,Win32,59.9268892,62c50e9c1127f2cd403a315f,,,,,,,,,,,,,,,,,,,,,,,,,,,,,,,,,,,,,,,,,,,,,,,,,,,,,,,,,,,,,,,,,,,,,,,,,,,,,,,,,,,,,,,,,,,,,,,,,,,,,,,,,,,,,,,,,,,,,,,,,,,,,,,,,,,,,,,,,,,,,,,,,,,,,,,,,,,,,,,,,,
0,55,55,62,1,,6109c32e483687220df3e6a3,62c5392e1525d49b87c79224,2022-07-06_09h34.17.921,Colour_Asymmetry_Pilot,2022.1.3,Win32,59.9268892,62c50e9c1127f2cd403a315f,,,,,,,,,,,,,,,,,,,,,,,,,,,,,,,,,,,,,,,,,,,,,,,,,,,,,,,,,,,,,,,,,,,,,,,,,,,,,,,,,,,,,,,,,,,,,,,,,,,,,,,,,,,,,,,,,,,,,,,,,,,,,,,,,,,,,,,,,,,,,,,,,,,,,,,,,,,,,,,,,,
0,56,56,58,1,,6109c32e483687220df3e6a3,62c5392e1525d49b87c79224,2022-07-06_09h34.17.921,Colour_Asymmetry_Pilot,2022.1.3,Win32,59.9268892,62c50e9c1127f2cd403a315f,,,,,,,,,,,,,,,,,,,,,,,,,,,,,,,,,,,,,,,,,,,,,,,,,,,,,,,,,,,,,,,,,,,,,,,,,,,,,,,,,,,,,,,,,,,,,,,,,,,,,,,,,,,,,,,,,,,,,,,,,,,,,,,,,,,,,,,,,,,,,,,,,,,,,,,,,,,,,,,,,,
0,57,57,57,1,,6109c32e483687220df3e6a3,62c5392e1525d49b87c79224,2022-07-06_09h34.17.921,Colour_Asymmetry_Pilot,2022.1.3,Win32,59.9268892,62c50e9c1127f2cd403a315f,,,,,,,,,,,,,,,,,,,,,,,,,,,,,,,,,,,,,,,,,,,,,,,,,,,,,,,,,,,,,,,,,,,,,,,,,,,,,,,,,,,,,,,,,,,,,,,,,,,,,,,,,,,,,,,,,,,,,,,,,,,,,,,,,,,,,,,,,,,,,,,,,,,,,,,,,,,,,,,,,,
0,58,58,42,1,,6109c32e483687220df3e6a3,62c5392e1525d49b87c79224,2022-07-06_09h34.17.921,Colour_Asymmetry_Pilot,2022.1.3,Win32,59.9268892,62c50e9c1127f2cd403a315f,,,,,,,,,,,,,,,,,,,,,,,,,,,,,,,,,,,,,,,,,,,,,,,,,,,,,,,,,,,,,,,,,,,,,,,,,,,,,,,,,,,,,,,,,,,,,,,,,,,,,,,,,,,,,,,,,,,,,,,,,,,,,,,,,,,,,,,,,,,,,,,,,,,,,,,,,,,,,,,,,,
0,59,59,89,1,,6109c32e483687220df3e6a3,62c5392e1525d49b87c79224,2022-07-06_09h34.17.921,Colour_Asymmetry_Pilot,2022.1.3,Win32,59.9268892,62c50e9c1127f2cd403a315f,,,,,,,,,,,,,,,,,,,,,,,,,,,,,,,,,,,,,,,,,,,,,,,,,,,,,,,,,,,,,,,,,,,,,,,,,,,,,,,,,,,,,,,,,,,,,,,,,,,,,,,,,,,,,,,,,,,,,,,,,,,,,,,,,,,,,,,,,,,,,,,,,,,,,,,,,,,,,,,,,,
0,60,60,38,1,,6109c32e483687220df3e6a3,62c5392e1525d49b87c79224,2022-07-06_09h34.17.921,Colour_Asymmetry_Pilot,2022.1.3,Win32,59.9268892,62c50e9c1127f2cd403a315f,,,,,,,,,,,,,,,,,,,,,,,,,,,,,,,,,,,,,,,,,,,,,,,,,,,,,,,,,,,,,,,,,,,,,,,,,,,,,,,,,,,,,,,,,,,,,,,,,,,,,,,,,,,,,,,,,,,,,,,,,,,,,,,,,,,,,,,,,,,,,,,,,,,,,,,,,,,,,,,,,,
0,61,61,43,1,,6109c32e483687220df3e6a3,62c5392e1525d49b87c79224,2022-07-06_09h34.17.921,Colour_Asymmetry_Pilot,2022.1.3,Win32,59.9268892,62c50e9c1127f2cd403a315f,,,,,,,,,,,,,,,,,,,,,,,,,,,,,,,,,,,,,,,,,,,,,,,,,,,,,,,,,,,,,,,,,,,,,,,,,,,,,,,,,,,,,,,,,,,,,,,,,,,,,,,,,,,,,,,,,,,,,,,,,,,,,,,,,,,,,,,,,,,,,,,,,,,,,,,,,,,,,,,,,,
0,62,62,0,1,,6109c32e483687220df3e6a3,62c5392e1525d49b87c79224,2022-07-06_09h34.17.921,Colour_Asymmetry_Pilot,2022.1.3,Win32,59.9268892,62c50e9c1127f2cd403a315f,,,,,,,,,,,,,,,,,,,,,,,,,,,,,,,,,,,,,,,,,,,,,,,,,,,,,,,,,,,,,,,,,,,,,,,,,,,,,,,,,,,,,,,,,,,,,,,,,,,,,,,,,,,,,,,,,,,,,,,,,,,,,,,,,,,,,,,,,,,,,,,,,,,,,,,,,,,,,,,,,,
0,63,63,66,1,,6109c32e483687220df3e6a3,62c5392e1525d49b87c79224,2022-07-06_09h34.17.921,Colour_Asymmetry_Pilot,2022.1.3,Win32,59.9268892,62c50e9c1127f2cd403a315f,,,,,,,,,,,,,,,,,,,,,,,,,,,,,,,,,,,,,,,,,,,,,,,,,,,,,,,,,,,,,,,,,,,,,,,,,,,,,,,,,,,,,,,,,,,,,,,,,,,,,,,,,,,,,,,,,,,,,,,,,,,,,,,,,,,,,,,,,,,,,,,,,,,,,,,,,,,,,,,,,,
0,64,64,21,1,,6109c32e483687220df3e6a3,62c5392e1525d49b87c79224,2022-07-06_09h34.17.921,Colour_Asymmetry_Pilot,2022.1.3,Win32,59.9268892,62c50e9c1127f2cd403a315f,,,,,,,,,,,,,,,,,,,,,,,,,,,,,,,,,,,,,,,,,,,,,,,,,,,,,,,,,,,,,,,,,,,,,,,,,,,,,,,,,,,,,,,,,,,,,,,,,,,,,,,,,,,,,,,,,,,,,,,,,,,,,,,,,,,,,,,,,,,,,,,,,,,,,,,,,,,,,,,,,,
0,65,65,6,1,,6109c32e483687220df3e6a3,62c5392e1525d49b87c79224,2022-07-06_09h34.17.921,Colour_Asymmetry_Pilot,2022.1.3,Win32,59.9268892,62c50e9c1127f2cd403a315f,,,,,,,,,,,,,,,,,,,,,,,,,,,,,,,,,,,,,,,,,,,,,,,,,,,,,,,,,,,,,,,,,,,,,,,,,,,,,,,,,,,,,,,,,,,,,,,,,,,,,,,,,,,,,,,,,,,,,,,,,,,,,,,,,,,,,,,,,,,,,,,,,,,,,,,,,,,,,,,,,,
0,66,66,11,1,,6109c32e483687220df3e6a3,62c5392e1525d49b87c79224,2022-07-06_09h34.17.921,Colour_Asymmetry_Pilot,2022.1.3,Win32,59.9268892,62c50e9c1127f2cd403a315f,,,,,,,,,,,,,,,,,,,,,,,,,,,,,,,,,,,,,,,,,,,,,,,,,,,,,,,,,,,,,,,,,,,,,,,,,,,,,,,,,,,,,,,,,,,,,,,,,,,,,,,,,,,,,,,,,,,,,,,,,,,,,,,,,,,,,,,,,,,,,,,,,,,,,,,,,,,,,,,,,,
0,67,67,69,1,,6109c32e483687220df3e6a3,62c5392e1525d49b87c79224,2022-07-06_09h34.17.921,Colour_Asymmetry_Pilot,2022.1.3,Win32,59.9268892,62c50e9c1127f2cd403a315f,,,,,,,,,,,,,,,,,,,,,,,,,,,,,,,,,,,,,,,,,,,,,,,,,,,,,,,,,,,,,,,,,,,,,,,,,,,,,,,,,,,,,,,,,,,,,,,,,,,,,,,,,,,,,,,,,,,,,,,,,,,,,,,,,,,,,,,,,,,,,,,,,,,,,,,,,,,,,,,,,,
0,68,68,55,1,,6109c32e483687220df3e6a3,62c5392e1525d49b87c79224,2022-07-06_09h34.17.921,Colour_Asymmetry_Pilot,2022.1.3,Win32,59.9268892,62c50e9c1127f2cd403a315f,,,,,,,,,,,,,,,,,,,,,,,,,,,,,,,,,,,,,,,,,,,,,,,,,,,,,,,,,,,,,,,,,,,,,,,,,,,,,,,,,,,,,,,,,,,,,,,,,,,,,,,,,,,,,,,,,,,,,,,,,,,,,,,,,,,,,,,,,,,,,,,,,,,,,,,,,,,,,,,,,,
0,69,69,8,1,,6109c32e483687220df3e6a3,62c5392e1525d49b87c79224,2022-07-06_09h34.17.921,Colour_Asymmetry_Pilot,2022.1.3,Win32,59.9268892,62c50e9c1127f2cd403a315f,,,,,,,,,,,,,,,,,,,,,,,,,,,,,,,,,,,,,,,,,,,,,,,,,,,,,,,,,,,,,,,,,,,,,,,,,,,,,,,,,,,,,,,,,,,,,,,,,,,,,,,,,,,,,,,,,,,,,,,,,,,,,,,,,,,,,,,,,,,,,,,,,,,,,,,,,,,,,,,,,,
0,70,70,70,1,,6109c32e483687220df3e6a3,62c5392e1525d49b87c79224,2022-07-06_09h34.17.921,Colour_Asymmetry_Pilot,2022.1.3,Win32,59.9268892,62c50e9c1127f2cd403a315f,,,,,,,,,,,,,,,,,,,,,,,,,,,,,,,,,,,,,,,,,,,,,,,,,,,,,,,,,,,,,,,,,,,,,,,,,,,,,,,,,,,,,,,,,,,,,,,,,,,,,,,,,,,,,,,,,,,,,,,,,,,,,,,,,,,,,,,,,,,,,,,,,,,,,,,,,,,,,,,,,,
0,71,71,26,1,,6109c32e483687220df3e6a3,62c5392e1525d49b87c79224,2022-07-06_09h34.17.921,Colour_Asymmetry_Pilot,2022.1.3,Win32,59.9268892,62c50e9c1127f2cd403a315f,,,,,,,,,,,,,,,,,,,,,,,,,,,,,,,,,,,,,,,,,,,,,,,,,,,,,,,,,,,,,,,,,,,,,,,,,,,,,,,,,,,,,,,,,,,,,,,,,,,,,,,,,,,,,,,,,,,,,,,,,,,,,,,,,,,,,,,,,,,,,,,,,,,,,,,,,,,,,,,,,,
0,72,72,46,1,,6109c32e483687220df3e6a3,62c5392e1525d49b87c79224,2022-07-06_09h34.17.921,Colour_Asymmetry_Pilot,2022.1.3,Win32,59.9268892,62c50e9c1127f2cd403a315f,,,,,,,,,,,,,,,,,,,,,,,,,,,,,,,,,,,,,,,,,,,,,,,,,,,,,,,,,,,,,,,,,,,,,,,,,,,,,,,,,,,,,,,,,,,,,,,,,,,,,,,,,,,,,,,,,,,,,,,,,,,,,,,,,,,,,,,,,,,,,,,,,,,,,,,,,,,,,,,,,,
0,73,73,7,1,,6109c32e483687220df3e6a3,62c5392e1525d49b87c79224,2022-07-06_09h34.17.921,Colour_Asymmetry_Pilot,2022.1.3,Win32,59.9268892,62c50e9c1127f2cd403a315f,,,,,,,,,,,,,,,,,,,,,,,,,,,,,,,,,,,,,,,,,,,,,,,,,,,,,,,,,,,,,,,,,,,,,,,,,,,,,,,,,,,,,,,,,,,,,,,,,,,,,,,,,,,,,,,,,,,,,,,,,,,,,,,,,,,,,,,,,,,,,,,,,,,,,,,,,,,,,,,,,,
0,74,74,67,1,,6109c32e483687220df3e6a3,62c5392e1525d49b87c79224,2022-07-06_09h34.17.921,Colour_Asymmetry_Pilot,2022.1.3,Win32,59.9268892,62c50e9c1127f2cd403a315f,,,,,,,,,,,,,,,,,,,,,,,,,,,,,,,,,,,,,,,,,,,,,,,,,,,,,,,,,,,,,,,,,,,,,,,,,,,,,,,,,,,,,,,,,,,,,,,,,,,,,,,,,,,,,,,,,,,,,,,,,,,,,,,,,,,,,,,,,,,,,,,,,,,,,,,,,,,,,,,,,,
0,75,75,25,1,,6109c32e483687220df3e6a3,62c5392e1525d49b87c79224,2022-07-06_09h34.17.921,Colour_Asymmetry_Pilot,2022.1.3,Win32,59.9268892,62c50e9c1127f2cd403a315f,,,,,,,,,,,,,,,,,,,,,,,,,,,,,,,,,,,,,,,,,,,,,,,,,,,,,,,,,,,,,,,,,,,,,,,,,,,,,,,,,,,,,,,,,,,,,,,,,,,,,,,,,,,,,,,,,,,,,,,,,,,,,,,,,,,,,,,,,,,,,,,,,,,,,,,,,,,,,,,,,,
0,76,76,40,1,,6109c32e483687220df3e6a3,62c5392e1525d49b87c79224,2022-07-06_09h34.17.921,Colour_Asymmetry_Pilot,2022.1.3,Win32,59.9268892,62c50e9c1127f2cd403a315f,,,,,,,,,,,,,,,,,,,,,,,,,,,,,,,,,,,,,,,,,,,,,,,,,,,,,,,,,,,,,,,,,,,,,,,,,,,,,,,,,,,,,,,,,,,,,,,,,,,,,,,,,,,,,,,,,,,,,,,,,,,,,,,,,,,,,,,,,,,,,,,,,,,,,,,,,,,,,,,,,,
0,77,77,85,1,,6109c32e483687220df3e6a3,62c5392e1525d49b87c79224,2022-07-06_09h34.17.921,Colour_Asymmetry_Pilot,2022.1.3,Win32,59.9268892,62c50e9c1127f2cd403a315f,,,,,,,,,,,,,,,,,,,,,,,,,,,,,,,,,,,,,,,,,,,,,,,,,,,,,,,,,,,,,,,,,,,,,,,,,,,,,,,,,,,,,,,,,,,,,,,,,,,,,,,,,,,,,,,,,,,,,,,,,,,,,,,,,,,,,,,,,,,,,,,,,,,,,,,,,,,,,,,,,,
0,78,78,53,1,,6109c32e483687220df3e6a3,62c5392e1525d49b87c79224,2022-07-06_09h34.17.921,Colour_Asymmetry_Pilot,2022.1.3,Win32,59.9268892,62c50e9c1127f2cd403a315f,,,,,,,,,,,,,,,,,,,,,,,,,,,,,,,,,,,,,,,,,,,,,,,,,,,,,,,,,,,,,,,,,,,,,,,,,,,,,,,,,,,,,,,,,,,,,,,,,,,,,,,,,,,,,,,,,,,,,,,,,,,,,,,,,,,,,,,,,,,,,,,,,,,,,,,,,,,,,,,,,,
0,79,79,20,1,,6109c32e483687220df3e6a3,62c5392e1525d49b87c79224,2022-07-06_09h34.17.921,Colour_Asymmetry_Pilot,2022.1.3,Win32,59.9268892,62c50e9c1127f2cd403a315f,,,,,,,,,,,,,,,,,,,,,,,,,,,,,,,,,,,,,,,,,,,,,,,,,,,,,,,,,,,,,,,,,,,,,,,,,,,,,,,,,,,,,,,,,,,,,,,,,,,,,,,,,,,,,,,,,,,,,,,,,,,,,,,,,,,,,,,,,,,,,,,,,,,,,,,,,,,,,,,,,,
0,80,80,36,1,,6109c32e483687220df3e6a3,62c5392e1525d49b87c79224,2022-07-06_09h34.17.921,Colour_Asymmetry_Pilot,2022.1.3,Win32,59.9268892,62c50e9c1127f2cd403a315f,,,,,,,,,,,,,,,,,,,,,,,,,,,,,,,,,,,,,,,,,,,,,,,,,,,,,,,,,,,,,,,,,,,,,,,,,,,,,,,,,,,,,,,,,,,,,,,,,,,,,,,,,,,,,,,,,,,,,,,,,,,,,,,,,,,,,,,,,,,,,,,,,,,,,,,,,,,,,,,,,,
0,81,81,59,1,,6109c32e483687220df3e6a3,62c5392e1525d49b87c79224,2022-07-06_09h34.17.921,Colour_Asymmetry_Pilot,2022.1.3,Win32,59.9268892,62c50e9c1127f2cd403a315f,,,,,,,,,,,,,,,,,,,,,,,,,,,,,,,,,,,,,,,,,,,,,,,,,,,,,,,,,,,,,,,,,,,,,,,,,,,,,,,,,,,,,,,,,,,,,,,,,,,,,,,,,,,,,,,,,,,,,,,,,,,,,,,,,,,,,,,,,,,,,,,,,,,,,,,,,,,,,,,,,,
0,82,82,12,1,,6109c32e483687220df3e6a3,62c5392e1525d49b87c79224,2022-07-06_09h34.17.921,Colour_Asymmetry_Pilot,2022.1.3,Win32,59.9268892,62c50e9c1127f2cd403a315f,,,,,,,,,,,,,,,,,,,,,,,,,,,,,,,,,,,,,,,,,,,,,,,,,,,,,,,,,,,,,,,,,,,,,,,,,,,,,,,,,,,,,,,,,,,,,,,,,,,,,,,,,,,,,,,,,,,,,,,,,,,,,,,,,,,,,,,,,,,,,,,,,,,,,,,,,,,,,,,,,,
0,83,83,22,1,,6109c32e483687220df3e6a3,62c5392e1525d49b87c79224,2022-07-06_09h34.17.921,Colour_Asymmetry_Pilot,2022.1.3,Win32,59.9268892,62c50e9c1127f2cd403a315f,,,,,,,,,,,,,,,,,,,,,,,,,,,,,,,,,,,,,,,,,,,,,,,,,,,,,,,,,,,,,,,,,,,,,,,,,,,,,,,,,,,,,,,,,,,,,,,,,,,,,,,,,,,,,,,,,,,,,,,,,,,,,,,,,,,,,,,,,,,,,,,,,,,,,,,,,,,,,,,,,,
0,84,84,92,1,,6109c32e483687220df3e6a3,62c5392e1525d49b87c79224,2022-07-06_09h34.17.921,Colour_Asymmetry_Pilot,2022.1.3,Win32,59.9268892,62c50e9c1127f2cd403a315f,,,,,,,,,,,,,,,,,,,,,,,,,,,,,,,,,,,,,,,,,,,,,,,,,,,,,,,,,,,,,,,,,,,,,,,,,,,,,,,,,,,,,,,,,,,,,,,,,,,,,,,,,,,,,,,,,,,,,,,,,,,,,,,,,,,,,,,,,,,,,,,,,,,,,,,,,,,,,,,,,,
0,85,85,19,1,,6109c32e483687220df3e6a3,62c5392e1525d49b87c79224,2022-07-06_09h34.17.921,Colour_Asymmetry_Pilot,2022.1.3,Win32,59.9268892,62c50e9c1127f2cd403a315f,,,,,,,,,,,,,,,,,,,,,,,,,,,,,,,,,,,,,,,,,,,,,,,,,,,,,,,,,,,,,,,,,,,,,,,,,,,,,,,,,,,,,,,,,,,,,,,,,,,,,,,,,,,,,,,,,,,,,,,,,,,,,,,,,,,,,,,,,,,,,,,,,,,,,,,,,,,,,,,,,,
0,86,86,82,1,,6109c32e483687220df3e6a3,62c5392e1525d49b87c79224,2022-07-06_09h34.17.921,Colour_Asymmetry_Pilot,2022.1.3,Win32,59.9268892,62c50e9c1127f2cd403a315f,,,,,,,,,,,,,,,,,,,,,,,,,,,,,,,,,,,,,,,,,,,,,,,,,,,,,,,,,,,,,,,,,,,,,,,,,,,,,,,,,,,,,,,,,,,,,,,,,,,,,,,,,,,,,,,,,,,,,,,,,,,,,,,,,,,,,,,,,,,,,,,,,,,,,,,,,,,,,,,,,,
0,87,87,30,1,,6109c32e483687220df3e6a3,62c5392e1525d49b87c79224,2022-07-06_09h34.17.921,Colour_Asymmetry_Pilot,2022.1.3,Win32,59.9268892,62c50e9c1127f2cd403a315f,,,,,,,,,,,,,,,,,,,,,,,,,,,,,,,,,,,,,,,,,,,,,,,,,,,,,,,,,,,,,,,,,,,,,,,,,,,,,,,,,,,,,,,,,,,,,,,,,,,,,,,,,,,,,,,,,,,,,,,,,,,,,,,,,,,,,,,,,,,,,,,,,,,,,,,,,,,,,,,,,,
0,88,88,88,1,,6109c32e483687220df3e6a3,62c5392e1525d49b87c79224,2022-07-06_09h34.17.921,Colour_Asymmetry_Pilot,2022.1.3,Win32,59.9268892,62c50e9c1127f2cd403a315f,,,,,,,,,,,,,,,,,,,,,,,,,,,,,,,,,,,,,,,,,,,,,,,,,,,,,,,,,,,,,,,,,,,,,,,,,,,,,,,,,,,,,,,,,,,,,,,,,,,,,,,,,,,,,,,,,,,,,,,,,,,,,,,,,,,,,,,,,,,,,,,,,,,,,,,,,,,,,,,,,,
0,89,89,84,1,,6109c32e483687220df3e6a3,62c5392e1525d49b87c79224,2022-07-06_09h34.17.921,Colour_Asymmetry_Pilot,2022.1.3,Win32,59.9268892,62c50e9c1127f2cd403a315f,,,,,,,,,,,,,,,,,,,,,,,,,,,,,,,,,,,,,,,,,,,,,,,,,,,,,,,,,,,,,,,,,,,,,,,,,,,,,,,,,,,,,,,,,,,,,,,,,,,,,,,,,,,,,,,,,,,,,,,,,,,,,,,,,,,,,,,,,,,,,,,,,,,,,,,,,,,,,,,,,,
0,90,90,47,1,,6109c32e483687220df3e6a3,62c5392e1525d49b87c79224,2022-07-06_09h34.17.921,Colour_Asymmetry_Pilot,2022.1.3,Win32,59.9268892,62c50e9c1127f2cd403a315f,,,,,,,,,,,,,,,,,,,,,,,,,,,,,,,,,,,,,,,,,,,,,,,,,,,,,,,,,,,,,,,,,,,,,,,,,,,,,,,,,,,,,,,,,,,,,,,,,,,,,,,,,,,,,,,,,,,,,,,,,,,,,,,,,,,,,,,,,,,,,,,,,,,,,,,,,,,,,,,,,,
0,91,91,77,1,,6109c32e483687220df3e6a3,62c5392e1525d49b87c79224,2022-07-06_09h34.17.921,Colour_Asymmetry_Pilot,2022.1.3,Win32,59.9268892,62c50e9c1127f2cd403a315f,,,,,,,,,,,,,,,,,,,,,,,,,,,,,,,,,,,,,,,,,,,,,,,,,,,,,,,,,,,,,,,,,,,,,,,,,,,,,,,,,,,,,,,,,,,,,,,,,,,,,,,,,,,,,,,,,,,,,,,,,,,,,,,,,,,,,,,,,,,,,,,,,,,,,,,,,,,,,,,,,,
0,92,92,60,1,,6109c32e483687220df3e6a3,62c5392e1525d49b87c79224,2022-07-06_09h34.17.921,Colour_Asymmetry_Pilot,2022.1.3,Win32,59.9268892,62c50e9c1127f2cd403a315f,,,,,,,,,,,,,,,,,,,,,,,,,,,,,,,,,,,,,,,,,,,,,,,,,,,,,,,,,,,,,,,,,,,,,,,,,,,,,,,,,,,,,,,,,,,,,,,,,,,,,,,,,,,,,,,,,,,,,,,,,,,,,,,,,,,,,,,,,,,,,,,,,,,,,,,,,,,,,,,,,,
,,,,,,6109c32e483687220df3e6a3,62c5392e1525d49b87c79224,2022-07-06_09h34.17.921,Colour_Asymmetry_Pilot,2022.1.3,Win32,59.9268892,62c50e9c1127f2cd403a315f,0,0,0,90,1,twoone,,,,,,,,,,,,,,,,,,,,,,,,,,,,,,,,,,,,,,,,,,,,,,,,,,,,,,,,,,,,,,,,,,,,,,,,,,,,,,,,,,,,,,,,,,,,,,,,,,,,,,,,,,,,,,,,,,,,,,,,,,,,,,,,,,,,,,,,,,,,,,,,,,,,,,,,,,,,
,,,,,,6109c32e483687220df3e6a3,62c5392e1525d49b87c79224,2022-07-06_09h34.17.921,Colour_Asymmetry_Pilot,2022.1.3,Win32,59.9268892,62c50e9c1127f2cd403a315f,0,1,1,89,1,onethree,,,,,,,,,,,,,,,,,,,,,,,,,,,,,,,,,,,,,,,,,,,,,,,,,,,,,,,,,,,,,,,,,,,,,,,,,,,,,,,,,,,,,,,,,,,,,,,,,,,,,,,,,,,,,,,,,,,,,,,,,,,,,,,,,,,,,,,,,,,,,,,,,,,,,,,,,,,,
,,,,,,6109c32e483687220df3e6a3,62c5392e1525d49b87c79224,2022-07-06_09h34.17.921,Colour_Asymmetry_Pilot,2022.1.3,Win32,59.9268892,62c50e9c1127f2cd403a315f,0,2,2,88,1,onetwo,,,,,,,,,,,,,,,,,,,,,,,,,,,,,,,,,,,,,,,,,,,,,,,,,,,,,,,,,,,,,,,,,,,,,,,,,,,,,,,,,,,,,,,,,,,,,,,,,,,,,,,,,,,,,,,,,,,,,,,,,,,,,,,,,,,,,,,,,,,,,,,,,,,,,,,,,,,,
,,,,,,6109c32e483687220df3e6a3,62c5392e1525d49b87c79224,2022-07-06_09h34.17.921,Colour_Asymmetry_Pilot,2022.1.3,Win32,59.9268892,62c50e9c1127f2cd403a315f,0,3,3,32,1,onetwo,,,,,,,,,,,,,,,,,,,,,,,,,,,,,,,,,,,,,,,,,,,,,,,,,,,,,,,,,,,,,,,,,,,,,,,,,,,,,,,,,,,,,,,,,,,,,,,,,,,,,,,,,,,,,,,,,,,,,,,,,,,,,,,,,,,,,,,,,,,,,,,,,,,,,,,,,,,,
,,,,,,6109c32e483687220df3e6a3,62c5392e1525d49b87c79224,2022-07-06_09h34.17.921,Colour_Asymmetry_Pilot,2022.1.3,Win32,59.9268892,62c50e9c1127f2cd403a315f,0,4,4,115,1,twofour,,,,,,,,,,,,,,,,,,,,,,,,,,,,,,,,,,,,,,,,,,,,,,,,,,,,,,,,,,,,,,,,,,,,,,,,,,,,,,,,,,,,,,,,,,,,,,,,,,,,,,,,,,,,,,,,,,,,,,,,,,,,,,,,,,,,,,,,,,,,,,,,,,,,,,,,,,,,
,,,,,,6109c32e483687220df3e6a3,62c5392e1525d49b87c79224,2022-07-06_09h34.17.921,Colour_Asymmetry_Pilot,2022.1.3,Win32,59.9268892,62c50e9c1127f2cd403a315f,0,5,5,36,1,threeone,,,,,,,,,,,,,,,,,,,,,,,,,,,,,,,,,,,,,,,,,,,,,,,,,,,,,,,,,,,,,,,,,,,,,,,,,,,,,,,,,,,,,,,,,,,,,,,,,,,,,,,,,,,,,,,,,,,,,,,,,,,,,,,,,,,,,,,,,,,,,,,,,,,,,,,,,,,,
,,,,,,6109c32e483687220df3e6a3,62c5392e1525d49b87c79224,2022-07-06_09h34.17.921,Colour_Asymmetry_Pilot,2022.1.3,Win32,59.9268892,62c50e9c1127f2cd403a315f,0,6,6,31,1,fourthree,,,,,,,,,,,,,,,,,,,,,,,,,,,,,,,,,,,,,,,,,,,,,,,,,,,,,,,,,,,,,,,,,,,,,,,,,,,,,,,,,,,,,,,,,,,,,,,,,,,,,,,,,,,,,,,,,,,,,,,,,,,,,,,,,,,,,,,,,,,,,,,,,,,,,,,,,,,,
,,,,,,6109c32e483687220df3e6a3,62c5392e1525d49b87c79224,2022-07-06_09h34.17.921,Colour_Asymmetry_Pilot,2022.1.3,Win32,59.9268892,62c50e9c1127f2cd403a315f,0,7,7,55,1,fourthree,,,,,,,,,,,,,,,,,,,,,,,,,,,,,,,,,,,,,,,,,,,,,,,,,,,,,,,,,,,,,,,,,,,,,,,,,,,,,,,,,,,,,,,,,,,,,,,,,,,,,,,,,,,,,,,,,,,,,,,,,,,,,,,,,,,,,,,,,,,,,,,,,,,,,,,,,,,,
,,,,,,6109c32e483687220df3e6a3,62c5392e1525d49b87c79224,2022-07-06_09h34.17.921,Colour_Asymmetry_Pilot,2022.1.3,Win32,59.9268892,62c50e9c1127f2cd403a315f,0,8,8,84,1,threeone,,,,,,,,,,,,,,,,,,,,,,,,,,,,,,,,,,,,,,,,,,,,,,,,,,,,,,,,,,,,,,,,,,,,,,,,,,,,,,,,,,,,,,,,,,,,,,,,,,,,,,,,,,,,,,,,,,,,,,,,,,,,,,,,,,,,,,,,,,,,,,,,,,,,,,,,,,,,
,,,,,,6109c32e483687220df3e6a3,62c5392e1525d49b87c79224,2022-07-06_09h34.17.921,Colour_Asymmetry_Pilot,2022.1.3,Win32,59.9268892,62c50e9c1127f2cd403a315f,0,9,9,126,1,fourtwo,,,,,,,,,,,,,,,,,,,,,,,,,,,,,,,,,,,,,,,,,,,,,,,,,,,,,,,,,,,,,,,,,,,,,,,,,,,,,,,,,,,,,,,,,,,,,,,,,,,,,,,,,,,,,,,,,,,,,,,,,,,,,,,,,,,,,,,,,,,,,,,,,,,,,,,,,,,,
,,,,,,6109c32e483687220df3e6a3,62c5392e1525d49b87c79224,2022-07-06_09h34.17.921,Colour_Asymmetry_Pilot,2022.1.3,Win32,59.9268892,62c50e9c1127f2cd403a315f,0,10,10,56,1,onetwo,,,,,,,,,,,,,,,,,,,,,,,,,,,,,,,,,,,,,,,,,,,,,,,,,,,,,,,,,,,,,,,,,,,,,,,,,,,,,,,,,,,,,,,,,,,,,,,,,,,,,,,,,,,,,,,,,,,,,,,,,,,,,,,,,,,,,,,,,,,,,,,,,,,,,,,,,,,,
,,,,,,6109c32e483687220df3e6a3,62c5392e1525d49b87c79224,2022-07-06_09h34.17.921,Colour_Asymmetry_Pilot,2022.1.3,Win32,59.9268892,62c50e9c1127f2cd403a315f,0,11,11,74,1,twoone,,,,,,,,,,,,,,,,,,,,,,,,,,,,,,,,,,,,,,,,,,,,,,,,,,,,,,,,,,,,,,,,,,,,,,,,,,,,,,,,,,,,,,,,,,,,,,,,,,,,,,,,,,,,,,,,,,,,,,,,,,,,,,,,,,,,,,,,,,,,,,,,,,,,,,,,,,,,
,,,,,,6109c32e483687220df3e6a3,62c5392e1525d49b87c79224,2022-07-06_09h34.17.921,Colour_Asymmetry_Pilot,2022.1.3,Win32,59.9268892,62c50e9c1127f2cd403a315f,0,12,12,128,1,onetwo,,,,,,,,,,,,,,,,,,,,,,,,,,,,,,,,,,,,,,,,,,,,,,,,,,,,,,,,,,,,,,,,,,,,,,,,,,,,,,,,,,,,,,,,,,,,,,,,,,,,,,,,,,,,,,,,,,,,,,,,,,,,,,,,,,,,,,,,,,,,,,,,,,,,,,,,,,,,
,,,,,,6109c32e483687220df3e6a3,62c5392e1525d49b87c79224,2022-07-06_09h34.17.921,Colour_Asymmetry_Pilot,2022.1.3,Win32,59.9268892,62c50e9c1127f2cd403a315f,0,13,13,2,1,twoone,,,,,,,,,,,,,,,,,,,,,,,,,,,,,,,,,,,,,,,,,,,,,,,,,,,,,,,,,,,,,,,,,,,,,,,,,,,,,,,,,,,,,,,,,,,,,,,,,,,,,,,,,,,,,,,,,,,,,,,,,,,,,,,,,,,,,,,,,,,,,,,,,,,,,,,,,,,,
,,,,,,6109c32e483687220df3e6a3,62c5392e1525d49b87c79224,2022-07-06_09h34.17.921,Colour_Asymmetry_Pilot,2022.1.3,Win32,59.9268892,62c50e9c1127f2cd403a315f,0,14,14,96,1,onetwo,,,,,,,,,,,,,,,,,,,,,,,,,,,,,,,,,,,,,,,,,,,,,,,,,,,,,,,,,,,,,,,,,,,,,,,,,,,,,,,,,,,,,,,,,,,,,,,,,,,,,,,,,,,,,,,,,,,,,,,,,,,,,,,,,,,,,,,,,,,,,,,,,,,,,,,,,,,,
,,,,,,6109c32e483687220df3e6a3,62c5392e1525d49b87c79224,2022-07-06_09h34.17.921,Colour_Asymmetry_Pilot,2022.1.3,Win32,59.9268892,62c50e9c1127f2cd403a315f,0,15,15,91,1,twofour,,,,,,,,,,,,,,,,,,,,,,,,,,,,,,,,,,,,,,,,,,,,,,,,,,,,,,,,,,,,,,,,,,,,,,,,,,,,,,,,,,,,,,,,,,,,,,,,,,,,,,,,,,,,,,,,,,,,,,,,,,,,,,,,,,,,,,,,,,,,,,,,,,,,,,,,,,,,
,,,,,,6109c32e483687220df3e6a3,62c5392e1525d49b87c79224,2022-07-06_09h34.17.921,Colour_Asymmetry_Pilot,2022.1.3,Win32,59.9268892,62c50e9c1127f2cd403a315f,0,16,16,38,1,fourtwo,,,,,,,,,,,,,,,,,,,,,,,,,,,,,,,,,,,,,,,,,,,,,,,,,,,,,,,,,,,,,,,,,,,,,,,,,,,,,,,,,,,,,,,,,,,,,,,,,,,,,,,,,,,,,,,,,,,,,,,,,,,,,,,,,,,,,,,,,,,,,,,,,,,,,,,,,,,,
,,,,,,6109c32e483687220df3e6a3,62c5392e1525d49b87c79224,2022-07-06_09h34.17.921,Colour_Asymmetry_Pilot,2022.1.3,Win32,59.9268892,62c50e9c1127f2cd403a315f,0,17,17,129,1,onethree,,,,,,,,,,,,,,,,,,,,,,,,,,,,,,,,,,,,,,,,,,,,,,,,,,,,,,,,,,,,,,,,,,,,,,,,,,,,,,,,,,,,,,,,,,,,,,,,,,,,,,,,,,,,,,,,,,,,,,,,,,,,,,,,,,,,,,,,,,,,,,,,,,,,,,,,,,,,
,,,,,,6109c32e483687220df3e6a3,62c5392e1525d49b87c79224,2022-07-06_09h34.17.921,Colour_Asymmetry_Pilot,2022.1.3,Win32,59.9268892,62c50e9c1127f2cd403a315f,0,18,18,10,1,twoone,,,,,,,,,,,,,,,,,,,,,,,,,,,,,,,,,,,,,,,,,,,,,,,,,,,,,,,,,,,,,,,,,,,,,,,,,,,,,,,,,,,,,,,,,,,,,,,,,,,,,,,,,,,,,,,,,,,,,,,,,,,,,,,,,,,,,,,,,,,,,,,,,,,,,,,,,,,,
,,,,,,6109c32e483687220df3e6a3,62c5392e1525d49b87c79224,2022-07-06_09h34.17.921,Colour_Asymmetry_Pilot,2022.1.3,Win32,59.9268892,62c50e9c1127f2cd403a315f,0,19,19,42,1,twoone,,,,,,,,,,,,,,,,,,,,,,,,,,,,,,,,,,,,,,,,,,,,,,,,,,,,,,,,,,,,,,,,,,,,,,,,,,,,,,,,,,,,,,,,,,,,,,,,,,,,,,,,,,,,,,,,,,,,,,,,,,,,,,,,,,,,,,,,,,,,,,,,,,,,,,,,,,,,
,,,,,,6109c32e483687220df3e6a3,62c5392e1525d49b87c79224,2022-07-06_09h34.17.921,Colour_Asymmetry_Pilot,2022.1.3,Win32,59.9268892,62c50e9c1127f2cd403a315f,0,20,20,8,1,onetwo,,,,,,,,,,,,,,,,,,,,,,,,,,,,,,,,,,,,,,,,,,,,,,,,,,,,,,,,,,,,,,,,,,,,,,,,,,,,,,,,,,,,,,,,,,,,,,,,,,,,,,,,,,,,,,,,,,,,,,,,,,,,,,,,,,,,,,,,,,,,,,,,,,,,,,,,,,,,
,,,,,,6109c32e483687220df3e6a3,62c5392e1525d49b87c79224,2022-07-06_09h34.17.921,Colour_Asymmetry_Pilot,2022.1.3,Win32,59.9268892,62c50e9c1127f2cd403a315f,0,21,21,160,1,onetwo,,,,,,,,,,,,,,,,,,,,,,,,,,,,,,,,,,,,,,,,,,,,,,,,,,,,,,,,,,,,,,,,,,,,,,,,,,,,,,,,,,,,,,,,,,,,,,,,,,,,,,,,,,,,,,,,,,,,,,,,,,,,,,,,,,,,,,,,,,,,,,,,,,,,,,,,,,,,
,,,,,,6109c32e483687220df3e6a3,62c5392e1525d49b87c79224,2022-07-06_09h34.17.921,Colour_Asymmetry_Pilot,2022.1.3,Win32,59.9268892,62c50e9c1127f2cd403a315f,0,22,22,120,1,onetwo,,,,,,,,,,,,,,,,,,,,,,,,,,,,,,,,,,,,,,,,,,,,,,,,,,,,,,,,,,,,,,,,,,,,,,,,,,,,,,,,,,,,,,,,,,,,,,,,,,,,,,,,,,,,,,,,,,,,,,,,,,,,,,,,,,,,,,,,,,,,,,,,,,,,,,,,,,,,
,,,,,,6109c32e483687220df3e6a3,62c5392e1525d49b87c79224,2022-07-06_09h34.17.921,Colour_Asymmetry_Pilot,2022.1.3,Win32,59.9268892,62c50e9c1127f2cd403a315f,0,23,23,134,1,fourtwo,,,,,,,,,,,,,,,,,,,,,,,,,,,,,,,,,,,,,,,,,,,,,,,,,,,,,,,,,,,,,,,,,,,,,,,,,,,,,,,,,,,,,,,,,,,,,,,,,,,,,,,,,,,,,,,,,,,,,,,,,,,,,,,,,,,,,,,,,,,,,,,,,,,,,,,,,,,,
,,,,,,6109c32e483687220df3e6a3,62c5392e1525d49b87c79224,2022-07-06_09h34.17.921,Colour_Asymmetry_Pilot,2022.1.3,Win32,59.9268892,62c50e9c1127f2cd403a315f,0,24,24,49,1,onethree,,,,,,,,,,,,,,,,,,,,,,,,,,,,,,,,,,,,,,,,,,,,,,,,,,,,,,,,,,,,,,,,,,,,,,,,,,,,,,,,,,,,,,,,,,,,,,,,,,,,,,,,,,,,,,,,,,,,,,,,,,,,,,,,,,,,,,,,,,,,,,,,,,,,,,,,,,,,
,,,,,,6109c32e483687220df3e6a3,62c5392e1525d49b87c79224,2022-07-06_09h34.17.921,Colour_Asymmetry_Pilot,2022.1.3,Win32,59.9268892,62c50e9c1127f2cd403a315f,0,25,25,7,1,fourthree,,,,,,,,,,,,,,,,,,,,,,,,,,,,,,,,,,,,,,,,,,,,,,,,,,,,,,,,,,,,,,,,,,,,,,,,,,,,,,,,,,,,,,,,,,,,,,,,,,,,,,,,,,,,,,,,,,,,,,,,,,,,,,,,,,,,,,,,,,,,,,,,,,,,,,,,,,,,
,,,,,,6109c32e483687220df3e6a3,62c5392e1525d49b87c79224,2022-07-06_09h34.17.921,Colour_Asymmetry_Pilot,2022.1.3,Win32,59.9268892,62c50e9c1127f2cd403a315f,0,26,26,9,1,onethree,,,,,,,,,,,,,,,,,,,,,,,,,,,,,,,,,,,,,,,,,,,,,,,,,,,,,,,,,,,,,,,,,,,,,,,,,,,,,,,,,,,,,,,,,,,,,,,,,,,,,,,,,,,,,,,,,,,,,,,,,,,,,,,,,,,,,,,,,,,,,,,,,,,,,,,,,,,,
,,,,,,6109c32e483687220df3e6a3,62c5392e1525d49b87c79224,2022-07-06_09h34.17.921,Colour_Asymmetry_Pilot,2022.1.3,Win32,59.9268892,62c50e9c1127f2cd403a315f,0,27,27,29,1,threefour,,,,,,,,,,,,,,,,,,,,,,,,,,,,,,,,,,,,,,,,,,,,,,,,,,,,,,,,,,,,,,,,,,,,,,,,,,,,,,,,,,,,,,,,,,,,,,,,,,,,,,,,,,,,,,,,,,,,,,,,,,,,,,,,,,,,,,,,,,,,,,,,,,,,,,,,,,,,
,,,,,,6109c32e483687220df3e6a3,62c5392e1525d49b87c79224,2022-07-06_09h34.17.921,Colour_Asymmetry_Pilot,2022.1.3,Win32,59.9268892,62c50e9c1127f2cd403a315f,0,28,28,95,1,fourthree,,,,,,,,,,,,,,,,,,,,,,,,,,,,,,,,,,,,,,,,,,,,,,,,,,,,,,,,,,,,,,,,,,,,,,,,,,,,,,,,,,,,,,,,,,,,,,,,,,,,,,,,,,,,,,,,,,,,,,,,,,,,,,,,,,,,,,,,,,,,,,,,,,,,,,,,,,,,
,,,,,,6109c32e483687220df3e6a3,62c5392e1525d49b87c79224,2022-07-06_09h34.17.921,Colour_Asymmetry_Pilot,2022.1.3,Win32,59.9268892,62c50e9c1127f2cd403a315f,0,29,29,27,1,twofour,,,,,,,,,,,,,,,,,,,,,,,,,,,,,,,,,,,,,,,,,,,,,,,,,,,,,,,,,,,,,,,,,,,,,,,,,,,,,,,,,,,,,,,,,,,,,,,,,,,,,,,,,,,,,,,,,,,,,,,,,,,,,,,,,,,,,,,,,,,,,,,,,,,,,,,,,,,,
,,,,,,6109c32e483687220df3e6a3,62c5392e1525d49b87c79224,2022-07-06_09h34.17.921,Colour_Asymmetry_Pilot,2022.1.3,Win32,59.9268892,62c50e9c1127f2cd403a315f,0,30,30,58,1,twoone,,,,,,,,,,,,,,,,,,,,,,,,,,,,,,,,,,,,,,,,,,,,,,,,,,,,,,,,,,,,,,,,,,,,,,,,,,,,,,,,,,,,,,,,,,,,,,,,,,,,,,,,,,,,,,,,,,,,,,,,,,,,,,,,,,,,,,,,,,,,,,,,,,,,,,,,,,,,
,,,,,,6109c32e483687220df3e6a3,62c5392e1525d49b87c79224,2022-07-06_09h34.17.921,Colour_Asymmetry_Pilot,2022.1.3,Win32,59.9268892,62c50e9c1127f2cd403a315f,0,31,31,70,1,fourtwo,,,,,,,,,,,,,,,,,,,,,,,,,,,,,,,,,,,,,,,,,,,,,,,,,,,,,,,,,,,,,,,,,,,,,,,,,,,,,,,,,,,,,,,,,,,,,,,,,,,,,,,,,,,,,,,,,,,,,,,,,,,,,,,,,,,,,,,,,,,,,,,,,,,,,,,,,,,,
,,,,,,6109c32e483687220df3e6a3,62c5392e1525d49b87c79224,2022-07-06_09h34.17.921,Colour_Asymmetry_Pilot,2022.1.3,Win32,59.9268892,62c50e9c1127f2cd403a315f,0,32,32,73,1,onethree,,,,,,,,,,,,,,,,,,,,,,,,,,,,,,,,,,,,,,,,,,,,,,,,,,,,,,,,,,,,,,,,,,,,,,,,,,,,,,,,,,,,,,,,,,,,,,,,,,,,,,,,,,,,,,,,,,,,,,,,,,,,,,,,,,,,,,,,,,,,,,,,,,,,,,,,,,,,
,,,,,,6109c32e483687220df3e6a3,62c5392e1525d49b87c79224,2022-07-06_09h34.17.921,Colour_Asymmetry_Pilot,2022.1.3,Win32,59.9268892,62c50e9c1127f2cd403a315f,0,33,33,121,1,onethree,,,,,,,,,,,,,,,,,,,,,,,,,,,,,,,,,,,,,,,,,,,,,,,,,,,,,,,,,,,,,,,,,,,,,,,,,,,,,,,,,,,,,,,,,,,,,,,,,,,,,,,,,,,,,,,,,,,,,,,,,,,,,,,,,,,,,,,,,,,,,,,,,,,,,,,,,,,,
,,,,,,6109c32e483687220df3e6a3,62c5392e1525d49b87c79224,2022-07-06_09h34.17.921,Colour_Asymmetry_Pilot,2022.1.3,Win32,59.9268892,62c50e9c1127f2cd403a315f,0,34,34,44,1,threeone,,,,,,,,,,,,,,,,,,,,,,,,,,,,,,,,,,,,,,,,,,,,,,,,,,,,,,,,,,,,,,,,,,,,,,,,,,,,,,,,,,,,,,,,,,,,,,,,,,,,,,,,,,,,,,,,,,,,,,,,,,,,,,,,,,,,,,,,,,,,,,,,,,,,,,,,,,,,
,,,,,,6109c32e483687220df3e6a3,62c5392e1525d49b87c79224,2022-07-06_09h34.17.921,Colour_Asymmetry_Pilot,2022.1.3,Win32,59.9268892,62c50e9c1127f2cd403a315f,0,35,35,100,1,threeone,,,,,,,,,,,,,,,,,,,,,,,,,,,,,,,,,,,,,,,,,,,,,,,,,,,,,,,,,,,,,,,,,,,,,,,,,,,,,,,,,,,,,,,,,,,,,,,,,,,,,,,,,,,,,,,,,,,,,,,,,,,,,,,,,,,,,,,,,,,,,,,,,,,,,,,,,,,,
,,,,,,6109c32e483687220df3e6a3,62c5392e1525d49b87c79224,2022-07-06_09h34.17.921,Colour_Asymmetry_Pilot,2022.1.3,Win32,59.9268892,62c50e9c1127f2cd403a315f,0,36,36,79,1,fourthree,,,,,,,,,,,,,,,,,,,,,,,,,,,,,,,,,,,,,,,,,,,,,,,,,,,,,,,,,,,,,,,,,,,,,,,,,,,,,,,,,,,,,,,,,,,,,,,,,,,,,,,,,,,,,,,,,,,,,,,,,,,,,,,,,,,,,,,,,,,,,,,,,,,,,,,,,,,,
,,,,,,6109c32e483687220df3e6a3,62c5392e1525d49b87c79224,2022-07-06_09h34.17.921,Colour_Asymmetry_Pilot,2022.1.3,Win32,59.9268892,62c50e9c1127f2cd403a315f,0,37,37,104,1,onetwo,,,,,,,,,,,,,,,,,,,,,,,,,,,,,,,,,,,,,,,,,,,,,,,,,,,,,,,,,,,,,,,,,,,,,,,,,,,,,,,,,,,,,,,,,,,,,,,,,,,,,,,,,,,,,,,,,,,,,,,,,,,,,,,,,,,,,,,,,,,,,,,,,,,,,,,,,,,,
,,,,,,6109c32e483687220df3e6a3,62c5392e1525d49b87c79224,2022-07-06_09h34.17.921,Colour_Asymmetry_Pilot,2022.1.3,Win32,59.9268892,62c50e9c1127f2cd403a315f,0,38,38,99,1,twofour,,,,,,,,,,,,,,,,,,,,,,,,,,,,,,,,,,,,,,,,,,,,,,,,,,,,,,,,,,,,,,,,,,,,,,,,,,,,,,,,,,,,,,,,,,,,,,,,,,,,,,,,,,,,,,,,,,,,,,,,,,,,,,,,,,,,,,,,,,,,,,,,,,,,,,,,,,,,
,,,,,,6109c32e483687220df3e6a3,62c5392e1525d49b87c79224,2022-07-06_09h34.17.921,Colour_Asymmetry_Pilot,2022.1.3,Win32,59.9268892,62c50e9c1127f2cd403a315f,0,39,39,26,1,twoone,,,,,,,,,,,,,,,,,,,,,,,,,,,,,,,,,,,,,,,,,,,,,,,,,,,,,,,,,,,,,,,,,,,,,,,,,,,,,,,,,,,,,,,,,,,,,,,,,,,,,,,,,,,,,,,,,,,,,,,,,,,,,,,,,,,,,,,,,,,,,,,,,,,,,,,,,,,,
,,,,,,6109c32e483687220df3e6a3,62c5392e1525d49b87c79224,2022-07-06_09h34.17.921,Colour_Asymmetry_Pilot,2022.1.3,Win32,59.9268892,62c50e9c1127f2cd403a315f,0,40,40,80,1,onetwo,,,,,,,,,,,,,,,,,,,,,,,,,,,,,,,,,,,,,,,,,,,,,,,,,,,,,,,,,,,,,,,,,,,,,,,,,,,,,,,,,,,,,,,,,,,,,,,,,,,,,,,,,,,,,,,,,,,,,,,,,,,,,,,,,,,,,,,,,,,,,,,,,,,,,,,,,,,,
,,,,,,6109c32e483687220df3e6a3,62c5392e1525d49b87c79224,2022-07-06_09h34.17.921,Colour_Asymmetry_Pilot,2022.1.3,Win32,59.9268892,62c50e9c1127f2cd403a315f,0,41,41,147,1,twofour,,,,,,,,,,,,,,,,,,,,,,,,,,,,,,,,,,,,,,,,,,,,,,,,,,,,,,,,,,,,,,,,,,,,,,,,,,,,,,,,,,,,,,,,,,,,,,,,,,,,,,,,,,,,,,,,,,,,,,,,,,,,,,,,,,,,,,,,,,,,,,,,,,,,,,,,,,,,
,,,,,,6109c32e483687220df3e6a3,62c5392e1525d49b87c79224,2022-07-06_09h34.17.921,Colour_Asymmetry_Pilot,2022.1.3,Win32,59.9268892,62c50e9c1127f2cd403a315f,0,42,42,159,1,fourthree,,,,,,,,,,,,,,,,,,,,,,,,,,,,,,,,,,,,,,,,,,,,,,,,,,,,,,,,,,,,,,,,,,,,,,,,,,,,,,,,,,,,,,,,,,,,,,,,,,,,,,,,,,,,,,,,,,,,,,,,,,,,,,,,,,,,,,,,,,,,,,,,,,,,,,,,,,,,
,,,,,,6109c32e483687220df3e6a3,62c5392e1525d49b87c79224,2022-07-06_09h34.17.921,Colour_Asymmetry_Pilot,2022.1.3,Win32,59.9268892,62c50e9c1127f2cd403a315f,0,43,43,43,1,twofour,,,,,,,,,,,,,,,,,,,,,,,,,,,,,,,,,,,,,,,,,,,,,,,,,,,,,,,,,,,,,,,,,,,,,,,,,,,,,,,,,,,,,,,,,,,,,,,,,,,,,,,,,,,,,,,,,,,,,,,,,,,,,,,,,,,,,,,,,,,,,,,,,,,,,,,,,,,,
,,,,,,6109c32e483687220df3e6a3,62c5392e1525d49b87c79224,2022-07-06_09h34.17.921,Colour_Asymmetry_Pilot,2022.1.3,Win32,59.9268892,62c50e9c1127f2cd403a315f,0,44,44,77,1,threefour,,,,,,,,,,,,,,,,,,,,,,,,,,,,,,,,,,,,,,,,,,,,,,,,,,,,,,,,,,,,,,,,,,,,,,,,,,,,,,,,,,,,,,,,,,,,,,,,,,,,,,,,,,,,,,,,,,,,,,,,,,,,,,,,,,,,,,,,,,,,,,,,,,,,,,,,,,,,
,,,,,,6109c32e483687220df3e6a3,62c5392e1525d49b87c79224,2022-07-06_09h34.17.921,Colour_Asymmetry_Pilot,2022.1.3,Win32,59.9268892,62c50e9c1127f2cd403a315f,0,45,45,20,1,threeone,,,,,,,,,,,,,,,,,,,,,,,,,,,,,,,,,,,,,,,,,,,,,,,,,,,,,,,,,,,,,,,,,,,,,,,,,,,,,,,,,,,,,,,,,,,,,,,,,,,,,,,,,,,,,,,,,,,,,,,,,,,,,,,,,,,,,,,,,,,,,,,,,,,,,,,,,,,,
,,,,,,6109c32e483687220df3e6a3,62c5392e1525d49b87c79224,2022-07-06_09h34.17.921,Colour_Asymmetry_Pilot,2022.1.3,Win32,59.9268892,62c50e9c1127f2cd403a315f,0,46,46,122,1,twoone,,,,,,,,,,,,,,,,,,,,,,,,,,,,,,,,,,,,,,,,,,,,,,,,,,,,,,,,,,,,,,,,,,,,,,,,,,,,,,,,,,,,,,,,,,,,,,,,,,,,,,,,,,,,,,,,,,,,,,,,,,,,,,,,,,,,,,,,,,,,,,,,,,,,,,,,,,,,
,,,,,,6109c32e483687220df3e6a3,62c5392e1525d49b87c79224,2022-07-06_09h34.17.921,Colour_Asymmetry_Pilot,2022.1.3,Win32,59.9268892,62c50e9c1127f2cd403a315f,0,47,47,54,1,fourtwo,,,,,,,,,,,,,,,,,,,,,,,,,,,,,,,,,,,,,,,,,,,,,,,,,,,,,,,,,,,,,,,,,,,,,,,,,,,,,,,,,,,,,,,,,,,,,,,,,,,,,,,,,,,,,,,,,,,,,,,,,,,,,,,,,,,,,,,,,,,,,,,,,,,,,,,,,,,,
,,,,,,6109c32e483687220df3e6a3,62c5392e1525d49b87c79224,2022-07-06_09h34.17.921,Colour_Asymmetry_Pilot,2022.1.3,Win32,59.9268892,62c50e9c1127f2cd403a315f,0,48,48,15,1,fourthree,,,,,,,,,,,,,,,,,,,,,,,,,,,,,,,,,,,,,,,,,,,,,,,,,,,,,,,,,,,,,,,,,,,,,,,,,,,,,,,,,,,,,,,,,,,,,,,,,,,,,,,,,,,,,,,,,,,,,,,,,,,,,,,,,,,,,,,,,,,,,,,,,,,,,,,,,,,,
,,,,,,6109c32e483687220df3e6a3,62c5392e1525d49b87c79224,2022-07-06_09h34.17.921,Colour_Asymmetry_Pilot,2022.1.3,Win32,59.9268892,62c50e9c1127f2cd403a315f,0,49,49,86,1,fourtwo,,,,,,,,,,,,,,,,,,,,,,,,,,,,,,,,,,,,,,,,,,,,,,,,,,,,,,,,,,,,,,,,,,,,,,,,,,,,,,,,,,,,,,,,,,,,,,,,,,,,,,,,,,,,,,,,,,,,,,,,,,,,,,,,,,,,,,,,,,,,,,,,,,,,,,,,,,,,
,,,,,,6109c32e483687220df3e6a3,62c5392e1525d49b87c79224,2022-07-06_09h34.17.921,Colour_Asymmetry_Pilot,2022.1.3,Win32,59.9268892,62c50e9c1127f2cd403a315f,0,50,50,52,1,threeone,,,,,,,,,,,,,,,,,,,,,,,,,,,,,,,,,,,,,,,,,,,,,,,,,,,,,,,,,,,,,,,,,,,,,,,,,,,,,,,,,,,,,,,,,,,,,,,,,,,,,,,,,,,,,,,,,,,,,,,,,,,,,,,,,,,,,,,,,,,,,,,,,,,,,,,,,,,,
,,,,,,6109c32e483687220df3e6a3,62c5392e1525d49b87c79224,2022-07-06_09h34.17.921,Colour_Asymmetry_Pilot,2022.1.3,Win32,59.9268892,62c50e9c1127f2cd403a315f,0,51,51,13,1,threefour,,,,,,,,,,,,,,,,,,,,,,,,,,,,,,,,,,,,,,,,,,,,,,,,,,,,,,,,,,,,,,,,,,,,,,,,,,,,,,,,,,,,,,,,,,,,,,,,,,,,,,,,,,,,,,,,,,,,,,,,,,,,,,,,,,,,,,,,,,,,,,,,,,,,,,,,,,,,
,,,,,,6109c32e483687220df3e6a3,62c5392e1525d49b87c79224,2022-07-06_09h34.17.921,Colour_Asymmetry_Pilot,2022.1.3,Win32,59.9268892,62c50e9c1127f2cd403a315f,0,52,52,78,1,fourtwo,,,,,,,,,,,,,,,,,,,,,,,,,,,,,,,,,,,,,,,,,,,,,,,,,,,,,,,,,,,,,,,,,,,,,,,,,,,,,,,,,,,,,,,,,,,,,,,,,,,,,,,,,,,,,,,,,,,,,,,,,,,,,,,,,,,,,,,,,,,,,,,,,,,,,,,,,,,,
,,,,,,6109c32e483687220df3e6a3,62c5392e1525d49b87c79224,2022-07-06_09h34.17.921,Colour_Asymmetry_Pilot,2022.1.3,Win32,59.9268892,62c50e9c1127f2cd403a315f,0,53,53,65,1,onethree,,,,,,,,,,,,,,,,,,,,,,,,,,,,,,,,,,,,,,,,,,,,,,,,,,,,,,,,,,,,,,,,,,,,,,,,,,,,,,,,,,,,,,,,,,,,,,,,,,,,,,,,,,,,,,,,,,,,,,,,,,,,,,,,,,,,,,,,,,,,,,,,,,,,,,,,,,,,
,,,,,,6109c32e483687220df3e6a3,62c5392e1525d49b87c79224,2022-07-06_09h34.17.921,Colour_Asymmetry_Pilot,2022.1.3,Win32,59.9268892,62c50e9c1127f2cd403a315f,0,54,54,46,1,fourtwo,,,,,,,,,,,,,,,,,,,,,,,,,,,,,,,,,,,,,,,,,,,,,,,,,,,,,,,,,,,,,,,,,,,,,,,,,,,,,,,,,,,,,,,,,,,,,,,,,,,,,,,,,,,,,,,,,,,,,,,,,,,,,,,,,,,,,,,,,,,,,,,,,,,,,,,,,,,,
,,,,,,6109c32e483687220df3e6a3,62c5392e1525d49b87c79224,2022-07-06_09h34.17.921,Colour_Asymmetry_Pilot,2022.1.3,Win32,59.9268892,62c50e9c1127f2cd403a315f,0,55,55,11,1,twofour,,,,,,,,,,,,,,,,,,,,,,,,,,,,,,,,,,,,,,,,,,,,,,,,,,,,,,,,,,,,,,,,,,,,,,,,,,,,,,,,,,,,,,,,,,,,,,,,,,,,,,,,,,,,,,,,,,,,,,,,,,,,,,,,,,,,,,,,,,,,,,,,,,,,,,,,,,,,
,,,,,,6109c32e483687220df3e6a3,62c5392e1525d49b87c79224,2022-07-06_09h34.17.921,Colour_Asymmetry_Pilot,2022.1.3,Win32,59.9268892,62c50e9c1127f2cd403a315f,0,56,56,148,1,threeone,,,,,,,,,,,,,,,,,,,,,,,,,,,,,,,,,,,,,,,,,,,,,,,,,,,,,,,,,,,,,,,,,,,,,,,,,,,,,,,,,,,,,,,,,,,,,,,,,,,,,,,,,,,,,,,,,,,,,,,,,,,,,,,,,,,,,,,,,,,,,,,,,,,,,,,,,,,,
,,,,,,6109c32e483687220df3e6a3,62c5392e1525d49b87c79224,2022-07-06_09h34.17.921,Colour_Asymmetry_Pilot,2022.1.3,Win32,59.9268892,62c50e9c1127f2cd403a315f,0,57,57,60,1,threeone,,,,,,,,,,,,,,,,,,,,,,,,,,,,,,,,,,,,,,,,,,,,,,,,,,,,,,,,,,,,,,,,,,,,,,,,,,,,,,,,,,,,,,,,,,,,,,,,,,,,,,,,,,,,,,,,,,,,,,,,,,,,,,,,,,,,,,,,,,,,,,,,,,,,,,,,,,,,
,,,,,,6109c32e483687220df3e6a3,62c5392e1525d49b87c79224,2022-07-06_09h34.17.921,Colour_Asymmetry_Pilot,2022.1.3,Win32,59.9268892,62c50e9c1127f2cd403a315f,0,58,58,123,1,twofour,,,,,,,,,,,,,,,,,,,,,,,,,,,,,,,,,,,,,,,,,,,,,,,,,,,,,,,,,,,,,,,,,,,,,,,,,,,,,,,,,,,,,,,,,,,,,,,,,,,,,,,,,,,,,,,,,,,,,,,,,,,,,,,,,,,,,,,,,,,,,,,,,,,,,,,,,,,,
,,,,,,6109c32e483687220df3e6a3,62c5392e1525d49b87c79224,2022-07-06_09h34.17.921,Colour_Asymmetry_Pilot,2022.1.3,Win32,59.9268892,62c50e9c1127f2cd403a315f,0,59,59,154,1,twoone,,,,,,,,,,,,,,,,,,,,,,,,,,,,,,,,,,,,,,,,,,,,,,,,,,,,,,,,,,,,,,,,,,,,,,,,,,,,,,,,,,,,,,,,,,,,,,,,,,,,,,,,,,,,,,,,,,,,,,,,,,,,,,,,,,,,,,,,,,,,,,,,,,,,,,,,,,,,
,,,,,,6109c32e483687220df3e6a3,62c5392e1525d49b87c79224,2022-07-06_09h34.17.921,Colour_Asymmetry_Pilot,2022.1.3,Win32,59.9268892,62c50e9c1127f2cd403a315f,0,60,60,50,1,twoone,,,,,,,,,,,,,,,,,,,,,,,,,,,,,,,,,,,,,,,,,,,,,,,,,,,,,,,,,,,,,,,,,,,,,,,,,,,,,,,,,,,,,,,,,,,,,,,,,,,,,,,,,,,,,,,,,,,,,,,,,,,,,,,,,,,,,,,,,,,,,,,,,,,,,,,,,,,,
,,,,,,6109c32e483687220df3e6a3,62c5392e1525d49b87c79224,2022-07-06_09h34.17.921,Colour_Asymmetry_Pilot,2022.1.3,Win32,59.9268892,62c50e9c1127f2cd403a315f,0,61,61,135,1,fourthree,,,,,,,,,,,,,,,,,,,,,,,,,,,,,,,,,,,,,,,,,,,,,,,,,,,,,,,,,,,,,,,,,,,,,,,,,,,,,,,,,,,,,,,,,,,,,,,,,,,,,,,,,,,,,,,,,,,,,,,,,,,,,,,,,,,,,,,,,,,,,,,,,,,,,,,,,,,,
,,,,,,6109c32e483687220df3e6a3,62c5392e1525d49b87c79224,2022-07-06_09h34.17.921,Colour_Asymmetry_Pilot,2022.1.3,Win32,59.9268892,62c50e9c1127f2cd403a315f,0,62,62,5,1,threefour,,,,,,,,,,,,,,,,,,,,,,,,,,,,,,,,,,,,,,,,,,,,,,,,,,,,,,,,,,,,,,,,,,,,,,,,,,,,,,,,,,,,,,,,,,,,,,,,,,,,,,,,,,,,,,,,,,,,,,,,,,,,,,,,,,,,,,,,,,,,,,,,,,,,,,,,,,,,
,,,,,,6109c32e483687220df3e6a3,62c5392e1525d49b87c79224,2022-07-06_09h34.17.921,Colour_Asymmetry_Pilot,2022.1.3,Win32,59.9268892,62c50e9c1127f2cd403a315f,0,63,63,48,1,onetwo,,,,,,,,,,,,,,,,,,,,,,,,,,,,,,,,,,,,,,,,,,,,,,,,,,,,,,,,,,,,,,,,,,,,,,,,,,,,,,,,,,,,,,,,,,,,,,,,,,,,,,,,,,,,,,,,,,,,,,,,,,,,,,,,,,,,,,,,,,,,,,,,,,,,,,,,,,,,
,,,,,,6109c32e483687220df3e6a3,62c5392e1525d49b87c79224,2022-07-06_09h34.17.921,Colour_Asymmetry_Pilot,2022.1.3,Win32,59.9268892,62c50e9c1127f2cd403a315f,0,64,64,69,1,threefour,,,,,,,,,,,,,,,,,,,,,,,,,,,,,,,,,,,,,,,,,,,,,,,,,,,,,,,,,,,,,,,,,,,,,,,,,,,,,,,,,,,,,,,,,,,,,,,,,,,,,,,,,,,,,,,,,,,,,,,,,,,,,,,,,,,,,,,,,,,,,,,,,,,,,,,,,,,,
,,,,,,6109c32e483687220df3e6a3,62c5392e1525d49b87c79224,2022-07-06_09h34.17.921,Colour_Asymmetry_Pilot,2022.1.3,Win32,59.9268892,62c50e9c1127f2cd403a315f,0,65,65,16,1,onetwo,,,,,,,,,,,,,,,,,,,,,,,,,,,,,,,,,,,,,,,,,,,,,,,,,,,,,,,,,,,,,,,,,,,,,,,,,,,,,,,,,,,,,,,,,,,,,,,,,,,,,,,,,,,,,,,,,,,,,,,,,,,,,,,,,,,,,,,,,,,,,,,,,,,,,,,,,,,,
,,,,,,6109c32e483687220df3e6a3,62c5392e1525d49b87c79224,2022-07-06_09h34.17.921,Colour_Asymmetry_Pilot,2022.1.3,Win32,59.9268892,62c50e9c1127f2cd403a315f,0,66,66,102,1,fourtwo,,,,,,,,,,,,,,,,,,,,,,,,,,,,,,,,,,,,,,,,,,,,,,,,,,,,,,,,,,,,,,,,,,,,,,,,,,,,,,,,,,,,,,,,,,,,,,,,,,,,,,,,,,,,,,,,,,,,,,,,,,,,,,,,,,,,,,,,,,,,,,,,,,,,,,,,,,,,
,,,,,,6109c32e483687220df3e6a3,62c5392e1525d49b87c79224,2022-07-06_09h34.17.921,Colour_Asymmetry_Pilot,2022.1.3,Win32,59.9268892,62c50e9c1127f2cd403a315f,0,67,67,30,1,fourtwo,,,,,,,,,,,,,,,,,,,,,,,,,,,,,,,,,,,,,,,,,,,,,,,,,,,,,,,,,,,,,,,,,,,,,,,,,,,,,,,,,,,,,,,,,,,,,,,,,,,,,,,,,,,,,,,,,,,,,,,,,,,,,,,,,,,,,,,,,,,,,,,,,,,,,,,,,,,,
,,,,,,6109c32e483687220df3e6a3,62c5392e1525d49b87c79224,2022-07-06_09h34.17.921,Colour_Asymmetry_Pilot,2022.1.3,Win32,59.9268892,62c50e9c1127f2cd403a315f,0,68,68,94,1,fourtwo,,,,,,,,,,,,,,,,,,,,,,,,,,,,,,,,,,,,,,,,,,,,,,,,,,,,,,,,,,,,,,,,,,,,,,,,,,,,,,,,,,,,,,,,,,,,,,,,,,,,,,,,,,,,,,,,,,,,,,,,,,,,,,,,,,,,,,,,,,,,,,,,,,,,,,,,,,,,
,,,,,,6109c32e483687220df3e6a3,62c5392e1525d49b87c79224,2022-07-06_09h34.17.921,Colour_Asymmetry_Pilot,2022.1.3,Win32,59.9268892,62c50e9c1127f2cd403a315f,0,69,69,17,1,onethree,,,,,,,,,,,,,,,,,,,,,,,,,,,,,,,,,,,,,,,,,,,,,,,,,,,,,,,,,,,,,,,,,,,,,,,,,,,,,,,,,,,,,,,,,,,,,,,,,,,,,,,,,,,,,,,,,,,,,,,,,,,,,,,,,,,,,,,,,,,,,,,,,,,,,,,,,,,,
,,,,,,6109c32e483687220df3e6a3,62c5392e1525d49b87c79224,2022-07-06_09h34.17.921,Colour_Asymmetry_Pilot,2022.1.3,Win32,59.9268892,62c50e9c1127f2cd403a315f,0,70,70,67,1,twofour,,,,,,,,,,,,,,,,,,,,,,,,,,,,,,,,,,,,,,,,,,,,,,,,,,,,,,,,,,,,,,,,,,,,,,,,,,,,,,,,,,,,,,,,,,,,,,,,,,,,,,,,,,,,,,,,,,,,,,,,,,,,,,,,,,,,,,,,,,,,,,,,,,,,,,,,,,,,
,,,,,,6109c32e483687220df3e6a3,62c5392e1525d49b87c79224,2022-07-06_09h34.17.921,Colour_Asymmetry_Pilot,2022.1.3,Win32,59.9268892,62c50e9c1127f2cd403a315f,0,71,71,103,1,fourthree,,,,,,,,,,,,,,,,,,,,,,,,,,,,,,,,,,,,,,,,,,,,,,,,,,,,,,,,,,,,,,,,,,,,,,,,,,,,,,,,,,,,,,,,,,,,,,,,,,,,,,,,,,,,,,,,,,,,,,,,,,,,,,,,,,,,,,,,,,,,,,,,,,,,,,,,,,,,
,,,,,,6109c32e483687220df3e6a3,62c5392e1525d49b87c79224,2022-07-06_09h34.17.921,Colour_Asymmetry_Pilot,2022.1.3,Win32,59.9268892,62c50e9c1127f2cd403a315f,0,72,72,140,1,threeone,,,,,,,,,,,,,,,,,,,,,,,,,,,,,,,,,,,,,,,,,,,,,,,,,,,,,,,,,,,,,,,,,,,,,,,,,,,,,,,,,,,,,,,,,,,,,,,,,,,,,,,,,,,,,,,,,,,,,,,,,,,,,,,,,,,,,,,,,,,,,,,,,,,,,,,,,,,,
,,,,,,6109c32e483687220df3e6a3,62c5392e1525d49b87c79224,2022-07-06_09h34.17.921,Colour_Asymmetry_Pilot,2022.1.3,Win32,59.9268892,62c50e9c1127f2cd403a315f,0,73,73,57,1,onethree,,,,,,,,,,,,,,,,,,,,,,,,,,,,,,,,,,,,,,,,,,,,,,,,,,,,,,,,,,,,,,,,,,,,,,,,,,,,,,,,,,,,,,,,,,,,,,,,,,,,,,,,,,,,,,,,,,,,,,,,,,,,,,,,,,,,,,,,,,,,,,,,,,,,,,,,,,,,
,,,,,,6109c32e483687220df3e6a3,62c5392e1525d49b87c79224,2022-07-06_09h34.17.921,Colour_Asymmetry_Pilot,2022.1.3,Win32,59.9268892,62c50e9c1127f2cd403a315f,0,74,74,98,1,twoone,,,,,,,,,,,,,,,,,,,,,,,,,,,,,,,,,,,,,,,,,,,,,,,,,,,,,,,,,,,,,,,,,,,,,,,,,,,,,,,,,,,,,,,,,,,,,,,,,,,,,,,,,,,,,,,,,,,,,,,,,,,,,,,,,,,,,,,,,,,,,,,,,,,,,,,,,,,,
,,,,,,6109c32e483687220df3e6a3,62c5392e1525d49b87c79224,2022-07-06_09h34.17.921,Colour_Asymmetry_Pilot,2022.1.3,Win32,59.9268892,62c50e9c1127f2cd403a315f,0,75,75,83,1,twofour,,,,,,,,,,,,,,,,,,,,,,,,,,,,,,,,,,,,,,,,,,,,,,,,,,,,,,,,,,,,,,,,,,,,,,,,,,,,,,,,,,,,,,,,,,,,,,,,,,,,,,,,,,,,,,,,,,,,,,,,,,,,,,,,,,,,,,,,,,,,,,,,,,,,,,,,,,,,
,,,,,,6109c32e483687220df3e6a3,62c5392e1525d49b87c79224,2022-07-06_09h34.17.921,Colour_Asymmetry_Pilot,2022.1.3,Win32,59.9268892,62c50e9c1127f2cd403a315f,0,76,76,118,1,fourtwo,,,,,,,,,,,,,,,,,,,,,,,,,,,,,,,,,,,,,,,,,,,,,,,,,,,,,,,,,,,,,,,,,,,,,,,,,,,,,,,,,,,,,,,,,,,,,,,,,,,,,,,,,,,,,,,,,,,,,,,,,,,,,,,,,,,,,,,,,,,,,,,,,,,,,,,,,,,,
,,,,,,6109c32e483687220df3e6a3,62c5392e1525d49b87c79224,2022-07-06_09h34.17.921,Colour_Asymmetry_Pilot,2022.1.3,Win32,59.9268892,62c50e9c1127f2cd403a315f,0,77,77,28,1,threeone,,,,,,,,,,,,,,,,,,,,,,,,,,,,,,,,,,,,,,,,,,,,,,,,,,,,,,,,,,,,,,,,,,,,,,,,,,,,,,,,,,,,,,,,,,,,,,,,,,,,,,,,,,,,,,,,,,,,,,,,,,,,,,,,,,,,,,,,,,,,,,,,,,,,,,,,,,,,
,,,,,,6109c32e483687220df3e6a3,62c5392e1525d49b87c79224,2022-07-06_09h34.17.921,Colour_Asymmetry_Pilot,2022.1.3,Win32,59.9268892,62c50e9c1127f2cd403a315f,0,78,78,149,1,threefour,,,,,,,,,,,,,,,,,,,,,,,,,,,,,,,,,,,,,,,,,,,,,,,,,,,,,,,,,,,,,,,,,,,,,,,,,,,,,,,,,,,,,,,,,,,,,,,,,,,,,,,,,,,,,,,,,,,,,,,,,,,,,,,,,,,,,,,,,,,,,,,,,,,,,,,,,,,,
,,,,,,6109c32e483687220df3e6a3,62c5392e1525d49b87c79224,2022-07-06_09h34.17.921,Colour_Asymmetry_Pilot,2022.1.3,Win32,59.9268892,62c50e9c1127f2cd403a315f,0,79,79,85,1,threefour,,,,,,,,,,,,,,,,,,,,,,,,,,,,,,,,,,,,,,,,,,,,,,,,,,,,,,,,,,,,,,,,,,,,,,,,,,,,,,,,,,,,,,,,,,,,,,,,,,,,,,,,,,,,,,,,,,,,,,,,,,,,,,,,,,,,,,,,,,,,,,,,,,,,,,,,,,,,
,,,,,,6109c32e483687220df3e6a3,62c5392e1525d49b87c79224,2022-07-06_09h34.17.921,Colour_Asymmetry_Pilot,2022.1.3,Win32,59.9268892,62c50e9c1127f2cd403a315f,0,80,80,25,1,onethree,,,,,,,,,,,,,,,,,,,,,,,,,,,,,,,,,,,,,,,,,,,,,,,,,,,,,,,,,,,,,,,,,,,,,,,,,,,,,,,,,,,,,,,,,,,,,,,,,,,,,,,,,,,,,,,,,,,,,,,,,,,,,,,,,,,,,,,,,,,,,,,,,,,,,,,,,,,,
,,,,,,6109c32e483687220df3e6a3,62c5392e1525d49b87c79224,2022-07-06_09h34.17.921,Colour_Asymmetry_Pilot,2022.1.3,Win32,59.9268892,62c50e9c1127f2cd403a315f,0,81,81,18,1,twoone,,,,,,,,,,,,,,,,,,,,,,,,,,,,,,,,,,,,,,,,,,,,,,,,,,,,,,,,,,,,,,,,,,,,,,,,,,,,,,,,,,,,,,,,,,,,,,,,,,,,,,,,,,,,,,,,,,,,,,,,,,,,,,,,,,,,,,,,,,,,,,,,,,,,,,,,,,,,
,,,,,,6109c32e483687220df3e6a3,62c5392e1525d49b87c79224,2022-07-06_09h34.17.921,Colour_Asymmetry_Pilot,2022.1.3,Win32,59.9268892,62c50e9c1127f2cd403a315f,0,82,82,158,1,fourtwo,,,,,,,,,,,,,,,,,,,,,,,,,,,,,,,,,,,,,,,,,,,,,,,,,,,,,,,,,,,,,,,,,,,,,,,,,,,,,,,,,,,,,,,,,,,,,,,,,,,,,,,,,,,,,,,,,,,,,,,,,,,,,,,,,,,,,,,,,,,,,,,,,,,,,,,,,,,,
,,,,,,6109c32e483687220df3e6a3,62c5392e1525d49b87c79224,2022-07-06_09h34.17.921,Colour_Asymmetry_Pilot,2022.1.3,Win32,59.9268892,62c50e9c1127f2cd403a315f,0,83,83,0,1,onetwo,,,,,,,,,,,,,,,,,,,,,,,,,,,,,,,,,,,,,,,,,,,,,,,,,,,,,,,,,,,,,,,,,,,,,,,,,,,,,,,,,,,,,,,,,,,,,,,,,,,,,,,,,,,,,,,,,,,,,,,,,,,,,,,,,,,,,,,,,,,,,,,,,,,,,,,,,,,,
,,,,,,6109c32e483687220df3e6a3,62c5392e1525d49b87c79224,2022-07-06_09h34.17.921,Colour_Asymmetry_Pilot,2022.1.3,Win32,59.9268892,62c50e9c1127f2cd403a315f,0,84,84,23,1,fourthree,,,,,,,,,,,,,,,,,,,,,,,,,,,,,,,,,,,,,,,,,,,,,,,,,,,,,,,,,,,,,,,,,,,,,,,,,,,,,,,,,,,,,,,,,,,,,,,,,,,,,,,,,,,,,,,,,,,,,,,,,,,,,,,,,,,,,,,,,,,,,,,,,,,,,,,,,,,,
,,,,,,6109c32e483687220df3e6a3,62c5392e1525d49b87c79224,2022-07-06_09h34.17.921,Colour_Asymmetry_Pilot,2022.1.3,Win32,59.9268892,62c50e9c1127f2cd403a315f,0,85,85,64,1,onetwo,,,,,,,,,,,,,,,,,,,,,,,,,,,,,,,,,,,,,,,,,,,,,,,,,,,,,,,,,,,,,,,,,,,,,,,,,,,,,,,,,,,,,,,,,,,,,,,,,,,,,,,,,,,,,,,,,,,,,,,,,,,,,,,,,,,,,,,,,,,,,,,,,,,,,,,,,,,,
,,,,,,6109c32e483687220df3e6a3,62c5392e1525d49b87c79224,2022-07-06_09h34.17.921,Colour_Asymmetry_Pilot,2022.1.3,Win32,59.9268892,62c50e9c1127f2cd403a315f,0,86,86,124,1,threeone,,,,,,,,,,,,,,,,,,,,,,,,,,,,,,,,,,,,,,,,,,,,,,,,,,,,,,,,,,,,,,,,,,,,,,,,,,,,,,,,,,,,,,,,,,,,,,,,,,,,,,,,,,,,,,,,,,,,,,,,,,,,,,,,,,,,,,,,,,,,,,,,,,,,,,,,,,,,
,,,,,,6109c32e483687220df3e6a3,62c5392e1525d49b87c79224,2022-07-06_09h34.17.921,Colour_Asymmetry_Pilot,2022.1.3,Win32,59.9268892,62c50e9c1127f2cd403a315f,0,87,87,45,1,threefour,,,,,,,,,,,,,,,,,,,,,,,,,,,,,,,,,,,,,,,,,,,,,,,,,,,,,,,,,,,,,,,,,,,,,,,,,,,,,,,,,,,,,,,,,,,,,,,,,,,,,,,,,,,,,,,,,,,,,,,,,,,,,,,,,,,,,,,,,,,,,,,,,,,,,,,,,,,,
,,,,,,6109c32e483687220df3e6a3,62c5392e1525d49b87c79224,2022-07-06_09h34.17.921,Colour_Asymmetry_Pilot,2022.1.3,Win32,59.9268892,62c50e9c1127f2cd403a315f,0,88,88,14,1,fourtwo,,,,,,,,,,,,,,,,,,,,,,,,,,,,,,,,,,,,,,,,,,,,,,,,,,,,,,,,,,,,,,,,,,,,,,,,,,,,,,,,,,,,,,,,,,,,,,,,,,,,,,,,,,,,,,,,,,,,,,,,,,,,,,,,,,,,,,,,,,,,,,,,,,,,,,,,,,,,
,,,,,,6109c32e483687220df3e6a3,62c5392e1525d49b87c79224,2022-07-06_09h34.17.921,Colour_Asymmetry_Pilot,2022.1.3,Win32,59.9268892,62c50e9c1127f2cd403a315f,0,89,89,106,1,twoone,,,,,,,,,,,,,,,,,,,,,,,,,,,,,,,,,,,,,,,,,,,,,,,,,,,,,,,,,,,,,,,,,,,,,,,,,,,,,,,,,,,,,,,,,,,,,,,,,,,,,,,,,,,,,,,,,,,,,,,,,,,,,,,,,,,,,,,,,,,,,,,,,,,,,,,,,,,,
,,,,,,6109c32e483687220df3e6a3,62c5392e1525d49b87c79224,2022-07-06_09h34.17.921,Colour_Asymmetry_Pilot,2022.1.3,Win32,59.9268892,62c50e9c1127f2cd403a315f,0,90,90,146,1,twoone,,,,,,,,,,,,,,,,,,,,,,,,,,,,,,,,,,,,,,,,,,,,,,,,,,,,,,,,,,,,,,,,,,,,,,,,,,,,,,,,,,,,,,,,,,,,,,,,,,,,,,,,,,,,,,,,,,,,,,,,,,,,,,,,,,,,,,,,,,,,,,,,,,,,,,,,,,,,
,,,,,,6109c32e483687220df3e6a3,62c5392e1525d49b87c79224,2022-07-06_09h34.17.921,Colour_Asymmetry_Pilot,2022.1.3,Win32,59.9268892,62c50e9c1127f2cd403a315f,0,91,91,61,1,threefour,,,,,,,,,,,,,,,,,,,,,,,,,,,,,,,,,,,,,,,,,,,,,,,,,,,,,,,,,,,,,,,,,,,,,,,,,,,,,,,,,,,,,,,,,,,,,,,,,,,,,,,,,,,,,,,,,,,,,,,,,,,,,,,,,,,,,,,,,,,,,,,,,,,,,,,,,,,,
,,,,,,6109c32e483687220df3e6a3,62c5392e1525d49b87c79224,2022-07-06_09h34.17.921,Colour_Asymmetry_Pilot,2022.1.3,Win32,59.9268892,62c50e9c1127f2cd403a315f,0,92,92,22,1,fourtwo,,,,,,,,,,,,,,,,,,,,,,,,,,,,,,,,,,,,,,,,,,,,,,,,,,,,,,,,,,,,,,,,,,,,,,,,,,,,,,,,,,,,,,,,,,,,,,,,,,,,,,,,,,,,,,,,,,,,,,,,,,,,,,,,,,,,,,,,,,,,,,,,,,,,,,,,,,,,
,,,,,,6109c32e483687220df3e6a3,62c5392e1525d49b87c79224,2022-07-06_09h34.17.921,Colour_Asymmetry_Pilot,2022.1.3,Win32,59.9268892,62c50e9c1127f2cd403a315f,0,93,93,130,1,twoone,,,,,,,,,,,,,,,,,,,,,,,,,,,,,,,,,,,,,,,,,,,,,,,,,,,,,,,,,,,,,,,,,,,,,,,,,,,,,,,,,,,,,,,,,,,,,,,,,,,,,,,,,,,,,,,,,,,,,,,,,,,,,,,,,,,,,,,,,,,,,,,,,,,,,,,,,,,,
,,,,,,6109c32e483687220df3e6a3,62c5392e1525d49b87c79224,2022-07-06_09h34.17.921,Colour_Asymmetry_Pilot,2022.1.3,Win32,59.9268892,62c50e9c1127f2cd403a315f,0,94,94,117,1,threefour,,,,,,,,,,,,,,,,,,,,,,,,,,,,,,,,,,,,,,,,,,,,,,,,,,,,,,,,,,,,,,,,,,,,,,,,,,,,,,,,,,,,,,,,,,,,,,,,,,,,,,,,,,,,,,,,,,,,,,,,,,,,,,,,,,,,,,,,,,,,,,,,,,,,,,,,,,,,
,,,,,,6109c32e483687220df3e6a3,62c5392e1525d49b87c79224,2022-07-06_09h34.17.921,Colour_Asymmetry_Pilot,2022.1.3,Win32,59.9268892,62c50e9c1127f2cd403a315f,0,95,95,156,1,threeone,,,,,,,,,,,,,,,,,,,,,,,,,,,,,,,,,,,,,,,,,,,,,,,,,,,,,,,,,,,,,,,,,,,,,,,,,,,,,,,,,,,,,,,,,,,,,,,,,,,,,,,,,,,,,,,,,,,,,,,,,,,,,,,,,,,,,,,,,,,,,,,,,,,,,,,,,,,,
,,,,,,6109c32e483687220df3e6a3,62c5392e1525d49b87c79224,2022-07-06_09h34.17.921,Colour_Asymmetry_Pilot,2022.1.3,Win32,59.9268892,62c50e9c1127f2cd403a315f,0,96,96,111,1,fourthree,,,,,,,,,,,,,,,,,,,,,,,,,,,,,,,,,,,,,,,,,,,,,,,,,,,,,,,,,,,,,,,,,,,,,,,,,,,,,,,,,,,,,,,,,,,,,,,,,,,,,,,,,,,,,,,,,,,,,,,,,,,,,,,,,,,,,,,,,,,,,,,,,,,,,,,,,,,,
,,,,,,6109c32e483687220df3e6a3,62c5392e1525d49b87c79224,2022-07-06_09h34.17.921,Colour_Asymmetry_Pilot,2022.1.3,Win32,59.9268892,62c50e9c1127f2cd403a315f,0,97,97,136,1,onetwo,,,,,,,,,,,,,,,,,,,,,,,,,,,,,,,,,,,,,,,,,,,,,,,,,,,,,,,,,,,,,,,,,,,,,,,,,,,,,,,,,,,,,,,,,,,,,,,,,,,,,,,,,,,,,,,,,,,,,,,,,,,,,,,,,,,,,,,,,,,,,,,,,,,,,,,,,,,,
,,,,,,6109c32e483687220df3e6a3,62c5392e1525d49b87c79224,2022-07-06_09h34.17.921,Colour_Asymmetry_Pilot,2022.1.3,Win32,59.9268892,62c50e9c1127f2cd403a315f,0,98,98,33,1,onethree,,,,,,,,,,,,,,,,,,,,,,,,,,,,,,,,,,,,,,,,,,,,,,,,,,,,,,,,,,,,,,,,,,,,,,,,,,,,,,,,,,,,,,,,,,,,,,,,,,,,,,,,,,,,,,,,,,,,,,,,,,,,,,,,,,,,,,,,,,,,,,,,,,,,,,,,,,,,
,,,,,,6109c32e483687220df3e6a3,62c5392e1525d49b87c79224,2022-07-06_09h34.17.921,Colour_Asymmetry_Pilot,2022.1.3,Win32,59.9268892,62c50e9c1127f2cd403a315f,0,99,99,142,1,fourtwo,,,,,,,,,,,,,,,,,,,,,,,,,,,,,,,,,,,,,,,,,,,,,,,,,,,,,,,,,,,,,,,,,,,,,,,,,,,,,,,,,,,,,,,,,,,,,,,,,,,,,,,,,,,,,,,,,,,,,,,,,,,,,,,,,,,,,,,,,,,,,,,,,,,,,,,,,,,,
,,,,,,6109c32e483687220df3e6a3,62c5392e1525d49b87c79224,2022-07-06_09h34.17.921,Colour_Asymmetry_Pilot,2022.1.3,Win32,59.9268892,62c50e9c1127f2cd403a315f,0,100,100,93,1,threefour,,,,,,,,,,,,,,,,,,,,,,,,,,,,,,,,,,,,,,,,,,,,,,,,,,,,,,,,,,,,,,,,,,,,,,,,,,,,,,,,,,,,,,,,,,,,,,,,,,,,,,,,,,,,,,,,,,,,,,,,,,,,,,,,,,,,,,,,,,,,,,,,,,,,,,,,,,,,
,,,,,,6109c32e483687220df3e6a3,62c5392e1525d49b87c79224,2022-07-06_09h34.17.921,Colour_Asymmetry_Pilot,2022.1.3,Win32,59.9268892,62c50e9c1127f2cd403a315f,0,101,101,39,1,fourthree,,,,,,,,,,,,,,,,,,,,,,,,,,,,,,,,,,,,,,,,,,,,,,,,,,,,,,,,,,,,,,,,,,,,,,,,,,,,,,,,,,,,,,,,,,,,,,,,,,,,,,,,,,,,,,,,,,,,,,,,,,,,,,,,,,,,,,,,,,,,,,,,,,,,,,,,,,,,
,,,,,,6109c32e483687220df3e6a3,62c5392e1525d49b87c79224,2022-07-06_09h34.17.921,Colour_Asymmetry_Pilot,2022.1.3,Win32,59.9268892,62c50e9c1127f2cd403a315f,0,102,102,41,1,onethree,,,,,,,,,,,,,,,,,,,,,,,,,,,,,,,,,,,,,,,,,,,,,,,,,,,,,,,,,,,,,,,,,,,,,,,,,,,,,,,,,,,,,,,,,,,,,,,,,,,,,,,,,,,,,,,,,,,,,,,,,,,,,,,,,,,,,,,,,,,,,,,,,,,,,,,,,,,,
,,,,,,6109c32e483687220df3e6a3,62c5392e1525d49b87c79224,2022-07-06_09h34.17.921,Colour_Asymmetry_Pilot,2022.1.3,Win32,59.9268892,62c50e9c1127f2cd403a315f,0,103,103,152,1,onetwo,,,,,,,,,,,,,,,,,,,,,,,,,,,,,,,,,,,,,,,,,,,,,,,,,,,,,,,,,,,,,,,,,,,,,,,,,,,,,,,,,,,,,,,,,,,,,,,,,,,,,,,,,,,,,,,,,,,,,,,,,,,,,,,,,,,,,,,,,,,,,,,,,,,,,,,,,,,,
,,,,,,6109c32e483687220df3e6a3,62c5392e1525d49b87c79224,2022-07-06_09h34.17.921,Colour_Asymmetry_Pilot,2022.1.3,Win32,59.9268892,62c50e9c1127f2cd403a315f,0,104,104,127,1,fourthree,,,,,,,,,,,,,,,,,,,,,,,,,,,,,,,,,,,,,,,,,,,,,,,,,,,,,,,,,,,,,,,,,,,,,,,,,,,,,,,,,,,,,,,,,,,,,,,,,,,,,,,,,,,,,,,,,,,,,,,,,,,,,,,,,,,,,,,,,,,,,,,,,,,,,,,,,,,,
,,,,,,6109c32e483687220df3e6a3,62c5392e1525d49b87c79224,2022-07-06_09h34.17.921,Colour_Asymmetry_Pilot,2022.1.3,Win32,59.9268892,62c50e9c1127f2cd403a315f,0,105,105,34,1,twoone,,,,,,,,,,,,,,,,,,,,,,,,,,,,,,,,,,,,,,,,,,,,,,,,,,,,,,,,,,,,,,,,,,,,,,,,,,,,,,,,,,,,,,,,,,,,,,,,,,,,,,,,,,,,,,,,,,,,,,,,,,,,,,,,,,,,,,,,,,,,,,,,,,,,,,,,,,,,
,,,,,,6109c32e483687220df3e6a3,62c5392e1525d49b87c79224,2022-07-06_09h34.17.921,Colour_Asymmetry_Pilot,2022.1.3,Win32,59.9268892,62c50e9c1127f2cd403a315f,0,106,106,153,1,onethree,,,,,,,,,,,,,,,,,,,,,,,,,,,,,,,,,,,,,,,,,,,,,,,,,,,,,,,,,,,,,,,,,,,,,,,,,,,,,,,,,,,,,,,,,,,,,,,,,,,,,,,,,,,,,,,,,,,,,,,,,,,,,,,,,,,,,,,,,,,,,,,,,,,,,,,,,,,,
,,,,,,6109c32e483687220df3e6a3,62c5392e1525d49b87c79224,2022-07-06_09h34.17.921,Colour_Asymmetry_Pilot,2022.1.3,Win32,59.9268892,62c50e9c1127f2cd403a315f,0,107,107,81,1,onethree,,,,,,,,,,,,,,,,,,,,,,,,,,,,,,,,,,,,,,,,,,,,,,,,,,,,,,,,,,,,,,,,,,,,,,,,,,,,,,,,,,,,,,,,,,,,,,,,,,,,,,,,,,,,,,,,,,,,,,,,,,,,,,,,,,,,,,,,,,,,,,,,,,,,,,,,,,,,
,,,,,,6109c32e483687220df3e6a3,62c5392e1525d49b87c79224,2022-07-06_09h34.17.921,Colour_Asymmetry_Pilot,2022.1.3,Win32,59.9268892,62c50e9c1127f2cd403a315f,0,108,108,82,1,twoone,,,,,,,,,,,,,,,,,,,,,,,,,,,,,,,,,,,,,,,,,,,,,,,,,,,,,,,,,,,,,,,,,,,,,,,,,,,,,,,,,,,,,,,,,,,,,,,,,,,,,,,,,,,,,,,,,,,,,,,,,,,,,,,,,,,,,,,,,,,,,,,,,,,,,,,,,,,,
,,,,,,6109c32e483687220df3e6a3,62c5392e1525d49b87c79224,2022-07-06_09h34.17.921,Colour_Asymmetry_Pilot,2022.1.3,Win32,59.9268892,62c50e9c1127f2cd403a315f,0,109,109,62,1,fourtwo,,,,,,,,,,,,,,,,,,,,,,,,,,,,,,,,,,,,,,,,,,,,,,,,,,,,,,,,,,,,,,,,,,,,,,,,,,,,,,,,,,,,,,,,,,,,,,,,,,,,,,,,,,,,,,,,,,,,,,,,,,,,,,,,,,,,,,,,,,,,,,,,,,,,,,,,,,,,
,,,,,,6109c32e483687220df3e6a3,62c5392e1525d49b87c79224,2022-07-06_09h34.17.921,Colour_Asymmetry_Pilot,2022.1.3,Win32,59.9268892,62c50e9c1127f2cd403a315f,0,110,110,133,1,threefour,,,,,,,,,,,,,,,,,,,,,,,,,,,,,,,,,,,,,,,,,,,,,,,,,,,,,,,,,,,,,,,,,,,,,,,,,,,,,,,,,,,,,,,,,,,,,,,,,,,,,,,,,,,,,,,,,,,,,,,,,,,,,,,,,,,,,,,,,,,,,,,,,,,,,,,,,,,,
,,,,,,6109c32e483687220df3e6a3,62c5392e1525d49b87c79224,2022-07-06_09h34.17.921,Colour_Asymmetry_Pilot,2022.1.3,Win32,59.9268892,62c50e9c1127f2cd403a315f,0,111,111,24,1,onetwo,,,,,,,,,,,,,,,,,,,,,,,,,,,,,,,,,,,,,,,,,,,,,,,,,,,,,,,,,,,,,,,,,,,,,,,,,,,,,,,,,,,,,,,,,,,,,,,,,,,,,,,,,,,,,,,,,,,,,,,,,,,,,,,,,,,,,,,,,,,,,,,,,,,,,,,,,,,,
,,,,,,6109c32e483687220df3e6a3,62c5392e1525d49b87c79224,2022-07-06_09h34.17.921,Colour_Asymmetry_Pilot,2022.1.3,Win32,59.9268892,62c50e9c1127f2cd403a315f,0,112,112,72,1,onetwo,,,,,,,,,,,,,,,,,,,,,,,,,,,,,,,,,,,,,,,,,,,,,,,,,,,,,,,,,,,,,,,,,,,,,,,,,,,,,,,,,,,,,,,,,,,,,,,,,,,,,,,,,,,,,,,,,,,,,,,,,,,,,,,,,,,,,,,,,,,,,,,,,,,,,,,,,,,,
,,,,,,6109c32e483687220df3e6a3,62c5392e1525d49b87c79224,2022-07-06_09h34.17.921,Colour_Asymmetry_Pilot,2022.1.3,Win32,59.9268892,62c50e9c1127f2cd403a315f,0,113,113,132,1,threeone,,,,,,,,,,,,,,,,,,,,,,,,,,,,,,,,,,,,,,,,,,,,,,,,,,,,,,,,,,,,,,,,,,,,,,,,,,,,,,,,,,,,,,,,,,,,,,,,,,,,,,,,,,,,,,,,,,,,,,,,,,,,,,,,,,,,,,,,,,,,,,,,,,,,,,,,,,,,
,,,,,,6109c32e483687220df3e6a3,62c5392e1525d49b87c79224,2022-07-06_09h34.17.921,Colour_Asymmetry_Pilot,2022.1.3,Win32,59.9268892,62c50e9c1127f2cd403a315f,0,114,114,157,1,threefour,,,,,,,,,,,,,,,,,,,,,,,,,,,,,,,,,,,,,,,,,,,,,,,,,,,,,,,,,,,,,,,,,,,,,,,,,,,,,,,,,,,,,,,,,,,,,,,,,,,,,,,,,,,,,,,,,,,,,,,,,,,,,,,,,,,,,,,,,,,,,,,,,,,,,,,,,,,,
,,,,,,6109c32e483687220df3e6a3,62c5392e1525d49b87c79224,2022-07-06_09h34.17.921,Colour_Asymmetry_Pilot,2022.1.3,Win32,59.9268892,62c50e9c1127f2cd403a315f,0,115,115,3,1,twofour,,,,,,,,,,,,,,,,,,,,,,,,,,,,,,,,,,,,,,,,,,,,,,,,,,,,,,,,,,,,,,,,,,,,,,,,,,,,,,,,,,,,,,,,,,,,,,,,,,,,,,,,,,,,,,,,,,,,,,,,,,,,,,,,,,,,,,,,,,,,,,,,,,,,,,,,,,,,
,,,,,,6109c32e483687220df3e6a3,62c5392e1525d49b87c79224,2022-07-06_09h34.17.921,Colour_Asymmetry_Pilot,2022.1.3,Win32,59.9268892,62c50e9c1127f2cd403a315f,0,116,116,1,1,onethree,,,,,,,,,,,,,,,,,,,,,,,,,,,,,,,,,,,,,,,,,,,,,,,,,,,,,,,,,,,,,,,,,,,,,,,,,,,,,,,,,,,,,,,,,,,,,,,,,,,,,,,,,,,,,,,,,,,,,,,,,,,,,,,,,,,,,,,,,,,,,,,,,,,,,,,,,,,,
,,,,,,6109c32e483687220df3e6a3,62c5392e1525d49b87c79224,2022-07-06_09h34.17.921,Colour_Asymmetry_Pilot,2022.1.3,Win32,59.9268892,62c50e9c1127f2cd403a315f,0,117,117,116,1,threeone,,,,,,,,,,,,,,,,,,,,,,,,,,,,,,,,,,,,,,,,,,,,,,,,,,,,,,,,,,,,,,,,,,,,,,,,,,,,,,,,,,,,,,,,,,,,,,,,,,,,,,,,,,,,,,,,,,,,,,,,,,,,,,,,,,,,,,,,,,,,,,,,,,,,,,,,,,,,
,,,,,,6109c32e483687220df3e6a3,62c5392e1525d49b87c79224,2022-07-06_09h34.17.921,Colour_Asymmetry_Pilot,2022.1.3,Win32,59.9268892,62c50e9c1127f2cd403a315f,0,118,118,35,1,twofour,,,,,,,,,,,,,,,,,,,,,,,,,,,,,,,,,,,,,,,,,,,,,,,,,,,,,,,,,,,,,,,,,,,,,,,,,,,,,,,,,,,,,,,,,,,,,,,,,,,,,,,,,,,,,,,,,,,,,,,,,,,,,,,,,,,,,,,,,,,,,,,,,,,,,,,,,,,,
,,,,,,6109c32e483687220df3e6a3,62c5392e1525d49b87c79224,2022-07-06_09h34.17.921,Colour_Asymmetry_Pilot,2022.1.3,Win32,59.9268892,62c50e9c1127f2cd403a315f,0,119,119,68,1,threeone,,,,,,,,,,,,,,,,,,,,,,,,,,,,,,,,,,,,,,,,,,,,,,,,,,,,,,,,,,,,,,,,,,,,,,,,,,,,,,,,,,,,,,,,,,,,,,,,,,,,,,,,,,,,,,,,,,,,,,,,,,,,,,,,,,,,,,,,,,,,,,,,,,,,,,,,,,,,
,,,,,,6109c32e483687220df3e6a3,62c5392e1525d49b87c79224,2022-07-06_09h34.17.921,Colour_Asymmetry_Pilot,2022.1.3,Win32,59.9268892,62c50e9c1127f2cd403a315f,0,120,120,143,1,fourthree,,,,,,,,,,,,,,,,,,,,,,,,,,,,,,,,,,,,,,,,,,,,,,,,,,,,,,,,,,,,,,,,,,,,,,,,,,,,,,,,,,,,,,,,,,,,,,,,,,,,,,,,,,,,,,,,,,,,,,,,,,,,,,,,,,,,,,,,,,,,,,,,,,,,,,,,,,,,
,,,,,,6109c32e483687220df3e6a3,62c5392e1525d49b87c79224,2022-07-06_09h34.17.921,Colour_Asymmetry_Pilot,2022.1.3,Win32,59.9268892,62c50e9c1127f2cd403a315f,0,121,121,4,1,threeone,,,,,,,,,,,,,,,,,,,,,,,,,,,,,,,,,,,,,,,,,,,,,,,,,,,,,,,,,,,,,,,,,,,,,,,,,,,,,,,,,,,,,,,,,,,,,,,,,,,,,,,,,,,,,,,,,,,,,,,,,,,,,,,,,,,,,,,,,,,,,,,,,,,,,,,,,,,,
,,,,,,6109c32e483687220df3e6a3,62c5392e1525d49b87c79224,2022-07-06_09h34.17.921,Colour_Asymmetry_Pilot,2022.1.3,Win32,59.9268892,62c50e9c1127f2cd403a315f,0,122,122,139,1,twofour,,,,,,,,,,,,,,,,,,,,,,,,,,,,,,,,,,,,,,,,,,,,,,,,,,,,,,,,,,,,,,,,,,,,,,,,,,,,,,,,,,,,,,,,,,,,,,,,,,,,,,,,,,,,,,,,,,,,,,,,,,,,,,,,,,,,,,,,,,,,,,,,,,,,,,,,,,,,
,,,,,,6109c32e483687220df3e6a3,62c5392e1525d49b87c79224,2022-07-06_09h34.17.921,Colour_Asymmetry_Pilot,2022.1.3,Win32,59.9268892,62c50e9c1127f2cd403a315f,0,123,123,107,1,twofour,,,,,,,,,,,,,,,,,,,,,,,,,,,,,,,,,,,,,,,,,,,,,,,,,,,,,,,,,,,,,,,,,,,,,,,,,,,,,,,,,,,,,,,,,,,,,,,,,,,,,,,,,,,,,,,,,,,,,,,,,,,,,,,,,,,,,,,,,,,,,,,,,,,,,,,,,,,,
,,,,,,6109c32e483687220df3e6a3,62c5392e1525d49b87c79224,2022-07-06_09h34.17.921,Colour_Asymmetry_Pilot,2022.1.3,Win32,59.9268892,62c50e9c1127f2cd403a315f,0,124,124,12,1,threeone,,,,,,,,,,,,,,,,,,,,,,,,,,,,,,,,,,,,,,,,,,,,,,,,,,,,,,,,,,,,,,,,,,,,,,,,,,,,,,,,,,,,,,,,,,,,,,,,,,,,,,,,,,,,,,,,,,,,,,,,,,,,,,,,,,,,,,,,,,,,,,,,,,,,,,,,,,,,
,,,,,,6109c32e483687220df3e6a3,62c5392e1525d49b87c79224,2022-07-06_09h34.17.921,Colour_Asymmetry_Pilot,2022.1.3,Win32,59.9268892,62c50e9c1127f2cd403a315f,0,125,125,125,1,threefour,,,,,,,,,,,,,,,,,,,,,,,,,,,,,,,,,,,,,,,,,,,,,,,,,,,,,,,,,,,,,,,,,,,,,,,,,,,,,,,,,,,,,,,,,,,,,,,,,,,,,,,,,,,,,,,,,,,,,,,,,,,,,,,,,,,,,,,,,,,,,,,,,,,,,,,,,,,,
,,,,,,6109c32e483687220df3e6a3,62c5392e1525d49b87c79224,2022-07-06_09h34.17.921,Colour_Asymmetry_Pilot,2022.1.3,Win32,59.9268892,62c50e9c1127f2cd403a315f,0,126,126,108,1,threeone,,,,,,,,,,,,,,,,,,,,,,,,,,,,,,,,,,,,,,,,,,,,,,,,,,,,,,,,,,,,,,,,,,,,,,,,,,,,,,,,,,,,,,,,,,,,,,,,,,,,,,,,,,,,,,,,,,,,,,,,,,,,,,,,,,,,,,,,,,,,,,,,,,,,,,,,,,,,
,,,,,,6109c32e483687220df3e6a3,62c5392e1525d49b87c79224,2022-07-06_09h34.17.921,Colour_Asymmetry_Pilot,2022.1.3,Win32,59.9268892,62c50e9c1127f2cd403a315f,0,127,127,113,1,onethree,,,,,,,,,,,,,,,,,,,,,,,,,,,,,,,,,,,,,,,,,,,,,,,,,,,,,,,,,,,,,,,,,,,,,,,,,,,,,,,,,,,,,,,,,,,,,,,,,,,,,,,,,,,,,,,,,,,,,,,,,,,,,,,,,,,,,,,,,,,,,,,,,,,,,,,,,,,,
,,,,,,6109c32e483687220df3e6a3,62c5392e1525d49b87c79224,2022-07-06_09h34.17.921,Colour_Asymmetry_Pilot,2022.1.3,Win32,59.9268892,62c50e9c1127f2cd403a315f,0,128,128,75,1,twofour,,,,,,,,,,,,,,,,,,,,,,,,,,,,,,,,,,,,,,,,,,,,,,,,,,,,,,,,,,,,,,,,,,,,,,,,,,,,,,,,,,,,,,,,,,,,,,,,,,,,,,,,,,,,,,,,,,,,,,,,,,,,,,,,,,,,,,,,,,,,,,,,,,,,,,,,,,,,
,,,,,,6109c32e483687220df3e6a3,62c5392e1525d49b87c79224,2022-07-06_09h34.17.921,Colour_Asymmetry_Pilot,2022.1.3,Win32,59.9268892,62c50e9c1127f2cd403a315f,0,129,129,51,1,twofour,,,,,,,,,,,,,,,,,,,,,,,,,,,,,,,,,,,,,,,,,,,,,,,,,,,,,,,,,,,,,,,,,,,,,,,,,,,,,,,,,,,,,,,,,,,,,,,,,,,,,,,,,,,,,,,,,,,,,,,,,,,,,,,,,,,,,,,,,,,,,,,,,,,,,,,,,,,,
,,,,,,6109c32e483687220df3e6a3,62c5392e1525d49b87c79224,2022-07-06_09h34.17.921,Colour_Asymmetry_Pilot,2022.1.3,Win32,59.9268892,62c50e9c1127f2cd403a315f,0,130,130,109,1,threefour,,,,,,,,,,,,,,,,,,,,,,,,,,,,,,,,,,,,,,,,,,,,,,,,,,,,,,,,,,,,,,,,,,,,,,,,,,,,,,,,,,,,,,,,,,,,,,,,,,,,,,,,,,,,,,,,,,,,,,,,,,,,,,,,,,,,,,,,,,,,,,,,,,,,,,,,,,,,
,,,,,,6109c32e483687220df3e6a3,62c5392e1525d49b87c79224,2022-07-06_09h34.17.921,Colour_Asymmetry_Pilot,2022.1.3,Win32,59.9268892,62c50e9c1127f2cd403a315f,0,131,131,71,1,fourthree,,,,,,,,,,,,,,,,,,,,,,,,,,,,,,,,,,,,,,,,,,,,,,,,,,,,,,,,,,,,,,,,,,,,,,,,,,,,,,,,,,,,,,,,,,,,,,,,,,,,,,,,,,,,,,,,,,,,,,,,,,,,,,,,,,,,,,,,,,,,,,,,,,,,,,,,,,,,
,,,,,,6109c32e483687220df3e6a3,62c5392e1525d49b87c79224,2022-07-06_09h34.17.921,Colour_Asymmetry_Pilot,2022.1.3,Win32,59.9268892,62c50e9c1127f2cd403a315f,0,132,132,155,1,twofour,,,,,,,,,,,,,,,,,,,,,,,,,,,,,,,,,,,,,,,,,,,,,,,,,,,,,,,,,,,,,,,,,,,,,,,,,,,,,,,,,,,,,,,,,,,,,,,,,,,,,,,,,,,,,,,,,,,,,,,,,,,,,,,,,,,,,,,,,,,,,,,,,,,,,,,,,,,,
,,,,,,6109c32e483687220df3e6a3,62c5392e1525d49b87c79224,2022-07-06_09h34.17.921,Colour_Asymmetry_Pilot,2022.1.3,Win32,59.9268892,62c50e9c1127f2cd403a315f,0,133,133,112,1,onetwo,,,,,,,,,,,,,,,,,,,,,,,,,,,,,,,,,,,,,,,,,,,,,,,,,,,,,,,,,,,,,,,,,,,,,,,,,,,,,,,,,,,,,,,,,,,,,,,,,,,,,,,,,,,,,,,,,,,,,,,,,,,,,,,,,,,,,,,,,,,,,,,,,,,,,,,,,,,,
,,,,,,6109c32e483687220df3e6a3,62c5392e1525d49b87c79224,2022-07-06_09h34.17.921,Colour_Asymmetry_Pilot,2022.1.3,Win32,59.9268892,62c50e9c1127f2cd403a315f,0,134,134,21,1,threefour,,,,,,,,,,,,,,,,,,,,,,,,,,,,,,,,,,,,,,,,,,,,,,,,,,,,,,,,,,,,,,,,,,,,,,,,,,,,,,,,,,,,,,,,,,,,,,,,,,,,,,,,,,,,,,,,,,,,,,,,,,,,,,,,,,,,,,,,,,,,,,,,,,,,,,,,,,,,
,,,,,,6109c32e483687220df3e6a3,62c5392e1525d49b87c79224,2022-07-06_09h34.17.921,Colour_Asymmetry_Pilot,2022.1.3,Win32,59.9268892,62c50e9c1127f2cd403a315f,0,135,135,110,1,fourtwo,,,,,,,,,,,,,,,,,,,,,,,,,,,,,,,,,,,,,,,,,,,,,,,,,,,,,,,,,,,,,,,,,,,,,,,,,,,,,,,,,,,,,,,,,,,,,,,,,,,,,,,,,,,,,,,,,,,,,,,,,,,,,,,,,,,,,,,,,,,,,,,,,,,,,,,,,,,,
,,,,,,6109c32e483687220df3e6a3,62c5392e1525d49b87c79224,2022-07-06_09h34.17.921,Colour_Asymmetry_Pilot,2022.1.3,Win32,59.9268892,62c50e9c1127f2cd403a315f,0,136,136,151,1,fourthree,,,,,,,,,,,,,,,,,,,,,,,,,,,,,,,,,,,,,,,,,,,,,,,,,,,,,,,,,,,,,,,,,,,,,,,,,,,,,,,,,,,,,,,,,,,,,,,,,,,,,,,,,,,,,,,,,,,,,,,,,,,,,,,,,,,,,,,,,,,,,,,,,,,,,,,,,,,,
,,,,,,6109c32e483687220df3e6a3,62c5392e1525d49b87c79224,2022-07-06_09h34.17.921,Colour_Asymmetry_Pilot,2022.1.3,Win32,59.9268892,62c50e9c1127f2cd403a315f,0,137,137,66,1,twoone,,,,,,,,,,,,,,,,,,,,,,,,,,,,,,,,,,,,,,,,,,,,,,,,,,,,,,,,,,,,,,,,,,,,,,,,,,,,,,,,,,,,,,,,,,,,,,,,,,,,,,,,,,,,,,,,,,,,,,,,,,,,,,,,,,,,,,,,,,,,,,,,,,,,,,,,,,,,
,,,,,,6109c32e483687220df3e6a3,62c5392e1525d49b87c79224,2022-07-06_09h34.17.921,Colour_Asymmetry_Pilot,2022.1.3,Win32,59.9268892,62c50e9c1127f2cd403a315f,0,138,138,47,1,fourthree,,,,,,,,,,,,,,,,,,,,,,,,,,,,,,,,,,,,,,,,,,,,,,,,,,,,,,,,,,,,,,,,,,,,,,,,,,,,,,,,,,,,,,,,,,,,,,,,,,,,,,,,,,,,,,,,,,,,,,,,,,,,,,,,,,,,,,,,,,,,,,,,,,,,,,,,,,,,
,,,,,,6109c32e483687220df3e6a3,62c5392e1525d49b87c79224,2022-07-06_09h34.17.921,Colour_Asymmetry_Pilot,2022.1.3,Win32,59.9268892,62c50e9c1127f2cd403a315f,0,139,139,40,1,onetwo,,,,,,,,,,,,,,,,,,,,,,,,,,,,,,,,,,,,,,,,,,,,,,,,,,,,,,,,,,,,,,,,,,,,,,,,,,,,,,,,,,,,,,,,,,,,,,,,,,,,,,,,,,,,,,,,,,,,,,,,,,,,,,,,,,,,,,,,,,,,,,,,,,,,,,,,,,,,
,,,,,,6109c32e483687220df3e6a3,62c5392e1525d49b87c79224,2022-07-06_09h34.17.921,Colour_Asymmetry_Pilot,2022.1.3,Win32,59.9268892,62c50e9c1127f2cd403a315f,0,140,140,105,1,onethree,,,,,,,,,,,,,,,,,,,,,,,,,,,,,,,,,,,,,,,,,,,,,,,,,,,,,,,,,,,,,,,,,,,,,,,,,,,,,,,,,,,,,,,,,,,,,,,,,,,,,,,,,,,,,,,,,,,,,,,,,,,,,,,,,,,,,,,,,,,,,,,,,,,,,,,,,,,,
,,,,,,6109c32e483687220df3e6a3,62c5392e1525d49b87c79224,2022-07-06_09h34.17.921,Colour_Asymmetry_Pilot,2022.1.3,Win32,59.9268892,62c50e9c1127f2cd403a315f,0,141,141,141,1,threefour,,,,,,,,,,,,,,,,,,,,,,,,,,,,,,,,,,,,,,,,,,,,,,,,,,,,,,,,,,,,,,,,,,,,,,,,,,,,,,,,,,,,,,,,,,,,,,,,,,,,,,,,,,,,,,,,,,,,,,,,,,,,,,,,,,,,,,,,,,,,,,,,,,,,,,,,,,,,
,,,,,,6109c32e483687220df3e6a3,62c5392e1525d49b87c79224,2022-07-06_09h34.17.921,Colour_Asymmetry_Pilot,2022.1.3,Win32,59.9268892,62c50e9c1127f2cd403a315f,0,142,142,53,1,threefour,,,,,,,,,,,,,,,,,,,,,,,,,,,,,,,,,,,,,,,,,,,,,,,,,,,,,,,,,,,,,,,,,,,,,,,,,,,,,,,,,,,,,,,,,,,,,,,,,,,,,,,,,,,,,,,,,,,,,,,,,,,,,,,,,,,,,,,,,,,,,,,,,,,,,,,,,,,,
,,,,,,6109c32e483687220df3e6a3,62c5392e1525d49b87c79224,2022-07-06_09h34.17.921,Colour_Asymmetry_Pilot,2022.1.3,Win32,59.9268892,62c50e9c1127f2cd403a315f,0,143,143,161,1,onethree,,,,,,,,,,,,,,,,,,,,,,,,,,,,,,,,,,,,,,,,,,,,,,,,,,,,,,,,,,,,,,,,,,,,,,,,,,,,,,,,,,,,,,,,,,,,,,,,,,,,,,,,,,,,,,,,,,,,,,,,,,,,,,,,,,,,,,,,,,,,,,,,,,,,,,,,,,,,
,,,,,,6109c32e483687220df3e6a3,62c5392e1525d49b87c79224,2022-07-06_09h34.17.921,Colour_Asymmetry_Pilot,2022.1.3,Win32,59.9268892,62c50e9c1127f2cd403a315f,0,144,144,145,1,onethree,,,,,,,,,,,,,,,,,,,,,,,,,,,,,,,,,,,,,,,,,,,,,,,,,,,,,,,,,,,,,,,,,,,,,,,,,,,,,,,,,,,,,,,,,,,,,,,,,,,,,,,,,,,,,,,,,,,,,,,,,,,,,,,,,,,,,,,,,,,,,,,,,,,,,,,,,,,,
,,,,,,6109c32e483687220df3e6a3,62c5392e1525d49b87c79224,2022-07-06_09h34.17.921,Colour_Asymmetry_Pilot,2022.1.3,Win32,59.9268892,62c50e9c1127f2cd403a315f,0,145,145,150,1,fourtwo,,,,,,,,,,,,,,,,,,,,,,,,,,,,,,,,,,,,,,,,,,,,,,,,,,,,,,,,,,,,,,,,,,,,,,,,,,,,,,,,,,,,,,,,,,,,,,,,,,,,,,,,,,,,,,,,,,,,,,,,,,,,,,,,,,,,,,,,,,,,,,,,,,,,,,,,,,,,
,,,,,,6109c32e483687220df3e6a3,62c5392e1525d49b87c79224,2022-07-06_09h34.17.921,Colour_Asymmetry_Pilot,2022.1.3,Win32,59.9268892,62c50e9c1127f2cd403a315f,0,146,146,6,1,fourtwo,,,,,,,,,,,,,,,,,,,,,,,,,,,,,,,,,,,,,,,,,,,,,,,,,,,,,,,,,,,,,,,,,,,,,,,,,,,,,,,,,,,,,,,,,,,,,,,,,,,,,,,,,,,,,,,,,,,,,,,,,,,,,,,,,,,,,,,,,,,,,,,,,,,,,,,,,,,,
,,,,,,6109c32e483687220df3e6a3,62c5392e1525d49b87c79224,2022-07-06_09h34.17.921,Colour_Asymmetry_Pilot,2022.1.3,Win32,59.9268892,62c50e9c1127f2cd403a315f,0,147,147,37,1,threefour,,,,,,,,,,,,,,,,,,,,,,,,,,,,,,,,,,,,,,,,,,,,,,,,,,,,,,,,,,,,,,,,,,,,,,,,,,,,,,,,,,,,,,,,,,,,,,,,,,,,,,,,,,,,,,,,,,,,,,,,,,,,,,,,,,,,,,,,,,,,,,,,,,,,,,,,,,,,
,,,,,,6109c32e483687220df3e6a3,62c5392e1525d49b87c79224,2022-07-06_09h34.17.921,Colour_Asymmetry_Pilot,2022.1.3,Win32,59.9268892,62c50e9c1127f2cd403a315f,0,148,148,97,1,onethree,,,,,,,,,,,,,,,,,,,,,,,,,,,,,,,,,,,,,,,,,,,,,,,,,,,,,,,,,,,,,,,,,,,,,,,,,,,,,,,,,,,,,,,,,,,,,,,,,,,,,,,,,,,,,,,,,,,,,,,,,,,,,,,,,,,,,,,,,,,,,,,,,,,,,,,,,,,,
,,,,,,6109c32e483687220df3e6a3,62c5392e1525d49b87c79224,2022-07-06_09h34.17.921,Colour_Asymmetry_Pilot,2022.1.3,Win32,59.9268892,62c50e9c1127f2cd403a315f,0,149,149,144,1,onetwo,,,,,,,,,,,,,,,,,,,,,,,,,,,,,,,,,,,,,,,,,,,,,,,,,,,,,,,,,,,,,,,,,,,,,,,,,,,,,,,,,,,,,,,,,,,,,,,,,,,,,,,,,,,,,,,,,,,,,,,,,,,,,,,,,,,,,,,,,,,,,,,,,,,,,,,,,,,,
,,,,,,6109c32e483687220df3e6a3,62c5392e1525d49b87c79224,2022-07-06_09h34.17.921,Colour_Asymmetry_Pilot,2022.1.3,Win32,59.9268892,62c50e9c1127f2cd403a315f,0,150,150,92,1,threeone,,,,,,,,,,,,,,,,,,,,,,,,,,,,,,,,,,,,,,,,,,,,,,,,,,,,,,,,,,,,,,,,,,,,,,,,,,,,,,,,,,,,,,,,,,,,,,,,,,,,,,,,,,,,,,,,,,,,,,,,,,,,,,,,,,,,,,,,,,,,,,,,,,,,,,,,,,,,
,,,,,,6109c32e483687220df3e6a3,62c5392e1525d49b87c79224,2022-07-06_09h34.17.921,Colour_Asymmetry_Pilot,2022.1.3,Win32,59.9268892,62c50e9c1127f2cd403a315f,0,151,151,101,1,threefour,,,,,,,,,,,,,,,,,,,,,,,,,,,,,,,,,,,,,,,,,,,,,,,,,,,,,,,,,,,,,,,,,,,,,,,,,,,,,,,,,,,,,,,,,,,,,,,,,,,,,,,,,,,,,,,,,,,,,,,,,,,,,,,,,,,,,,,,,,,,,,,,,,,,,,,,,,,,
,,,,,,6109c32e483687220df3e6a3,62c5392e1525d49b87c79224,2022-07-06_09h34.17.921,Colour_Asymmetry_Pilot,2022.1.3,Win32,59.9268892,62c50e9c1127f2cd403a315f,0,152,152,19,1,twofour,,,,,,,,,,,,,,,,,,,,,,,,,,,,,,,,,,,,,,,,,,,,,,,,,,,,,,,,,,,,,,,,,,,,,,,,,,,,,,,,,,,,,,,,,,,,,,,,,,,,,,,,,,,,,,,,,,,,,,,,,,,,,,,,,,,,,,,,,,,,,,,,,,,,,,,,,,,,
,,,,,,6109c32e483687220df3e6a3,62c5392e1525d49b87c79224,2022-07-06_09h34.17.921,Colour_Asymmetry_Pilot,2022.1.3,Win32,59.9268892,62c50e9c1127f2cd403a315f,0,153,153,137,1,onethree,,,,,,,,,,,,,,,,,,,,,,,,,,,,,,,,,,,,,,,,,,,,,,,,,,,,,,,,,,,,,,,,,,,,,,,,,,,,,,,,,,,,,,,,,,,,,,,,,,,,,,,,,,,,,,,,,,,,,,,,,,,,,,,,,,,,,,,,,,,,,,,,,,,,,,,,,,,,
,,,,,,6109c32e483687220df3e6a3,62c5392e1525d49b87c79224,2022-07-06_09h34.17.921,Colour_Asymmetry_Pilot,2022.1.3,Win32,59.9268892,62c50e9c1127f2cd403a315f,0,154,154,138,1,twoone,,,,,,,,,,,,,,,,,,,,,,,,,,,,,,,,,,,,,,,,,,,,,,,,,,,,,,,,,,,,,,,,,,,,,,,,,,,,,,,,,,,,,,,,,,,,,,,,,,,,,,,,,,,,,,,,,,,,,,,,,,,,,,,,,,,,,,,,,,,,,,,,,,,,,,,,,,,,
,,,,,,6109c32e483687220df3e6a3,62c5392e1525d49b87c79224,2022-07-06_09h34.17.921,Colour_Asymmetry_Pilot,2022.1.3,Win32,59.9268892,62c50e9c1127f2cd403a315f,0,155,155,59,1,twofour,,,,,,,,,,,,,,,,,,,,,,,,,,,,,,,,,,,,,,,,,,,,,,,,,,,,,,,,,,,,,,,,,,,,,,,,,,,,,,,,,,,,,,,,,,,,,,,,,,,,,,,,,,,,,,,,,,,,,,,,,,,,,,,,,,,,,,,,,,,,,,,,,,,,,,,,,,,,
,,,,,,6109c32e483687220df3e6a3,62c5392e1525d49b87c79224,2022-07-06_09h34.17.921,Colour_Asymmetry_Pilot,2022.1.3,Win32,59.9268892,62c50e9c1127f2cd403a315f,0,156,156,87,1,fourthree,,,,,,,,,,,,,,,,,,,,,,,,,,,,,,,,,,,,,,,,,,,,,,,,,,,,,,,,,,,,,,,,,,,,,,,,,,,,,,,,,,,,,,,,,,,,,,,,,,,,,,,,,,,,,,,,,,,,,,,,,,,,,,,,,,,,,,,,,,,,,,,,,,,,,,,,,,,,
,,,,,,6109c32e483687220df3e6a3,62c5392e1525d49b87c79224,2022-07-06_09h34.17.921,Colour_Asymmetry_Pilot,2022.1.3,Win32,59.9268892,62c50e9c1127f2cd403a315f,0,157,157,114,1,twoone,,,,,,,,,,,,,,,,,,,,,,,,,,,,,,,,,,,,,,,,,,,,,,,,,,,,,,,,,,,,,,,,,,,,,,,,,,,,,,,,,,,,,,,,,,,,,,,,,,,,,,,,,,,,,,,,,,,,,,,,,,,,,,,,,,,,,,,,,,,,,,,,,,,,,,,,,,,,
,,,,,,6109c32e483687220df3e6a3,62c5392e1525d49b87c79224,2022-07-06_09h34.17.921,Colour_Asymmetry_Pilot,2022.1.3,Win32,59.9268892,62c50e9c1127f2cd403a315f,0,158,158,131,1,twofour,,,,,,,,,,,,,,,,,,,,,,,,,,,,,,,,,,,,,,,,,,,,,,,,,,,,,,,,,,,,,,,,,,,,,,,,,,,,,,,,,,,,,,,,,,,,,,,,,,,,,,,,,,,,,,,,,,,,,,,,,,,,,,,,,,,,,,,,,,,,,,,,,,,,,,,,,,,,
,,,,,,6109c32e483687220df3e6a3,62c5392e1525d49b87c79224,2022-07-06_09h34.17.921,Colour_Asymmetry_Pilot,2022.1.3,Win32,59.9268892,62c50e9c1127f2cd403a315f,0,159,159,119,1,fourthree,,,,,,,,,,,,,,,,,,,,,,,,,,,,,,,,,,,,,,,,,,,,,,,,,,,,,,,,,,,,,,,,,,,,,,,,,,,,,,,,,,,,,,,,,,,,,,,,,,,,,,,,,,,,,,,,,,,,,,,,,,,,,,,,,,,,,,,,,,,,,,,,,,,,,,,,,,,,
,,,,,,6109c32e483687220df3e6a3,62c5392e1525d49b87c79224,2022-07-06_09h34.17.921,Colour_Asymmetry_Pilot,2022.1.3,Win32,59.9268892,62c50e9c1127f2cd403a315f,0,160,160,63,1,fourthree,,,,,,,,,,,,,,,,,,,,,,,,,,,,,,,,,,,,,,,,,,,,,,,,,,,,,,,,,,,,,,,,,,,,,,,,,,,,,,,,,,,,,,,,,,,,,,,,,,,,,,,,,,,,,,,,,,,,,,,,,,,,,,,,,,,,,,,,,,,,,,,,,,,,,,,,,,,,
,,,,,,6109c32e483687220df3e6a3,62c5392e1525d49b87c79224,2022-07-06_09h34.17.921,Colour_Asymmetry_Pilot,2022.1.3,Win32,59.9268892,62c50e9c1127f2cd403a315f,0,161,161,76,1,threeone,,,,,,,,,,,,,,,,,,,,,,,,,,,,,,,,,,,,,,,,,,,,,,,,,,,,,,,,,,,,,,,,,,,,,,,,,,,,,,,,,,,,,,,,,,,,,,,,,,,,,,,,,,,,,,,,,,,,,,,,,,,,,,,,,,,,,,,,,,,,,,,,,,,,,,,,,,,,
,,,,,,6109c32e483687220df3e6a3,62c5392e1525d49b87c79224,2022-07-06_09h34.17.921,Colour_Asymmetry_Pilot,2022.1.3,Win32,59.9268892,62c50e9c1127f2cd403a315f,,,,,,,space,2.8396,space,4.4349,space,47.6484,space,5.535,space,4.3703,space,5.2524,"[-0.48240000000000005,0.3175999999999999,0.2156]",onethree,"[0.9842,0.7409999999999999,-0.6628000000000001]",4,14.3222,79,95,1,0,0,response1disk_5,-13,-2,1,0,0,rectangle_8,-13,-2,1,0,0,1,-13,-2,1,0,0,0,0,0,0,1,,,,,,,,,,,,,,,,,,,,,,,,,,,,,,,,,,,,,,,,,,,,,,,,,,,,,,,,,,,,,,,,,,,,,,,,,,,,,,,,,,,,,,,,,,,,,,,,,,,,,,,,,,,,,,,
,,,,,,6109c32e483687220df3e6a3,62c5392e1525d49b87c79224,2022-07-06_09h34.17.921,Colour_Asymmetry_Pilot,2022.1.3,Win32,59.9268892,62c50e9c1127f2cd403a315f,,,,,,,,,,,,,,,,,,,"[0.04299999999999993,0.16060000000000008,-0.6628000000000001]",fourthree,"[-0.6706000000000001,-0.6157999999999999,-0.6786]",-1,5.8416,-57,-59,1,0,0,response5disk_5,-3,-3,1,0,0,rectangle_8,-3,-3,1,0,0,1,-3,-3,1,0,0,1,0,1,0,1,,,,,,,,,,,,,,,,,,,,,,,,,,,,,,,,,,,,,,,,,,,,,,,,,,,,,,,,,,,,,,,,,,,,,,,,,,,,,,,,,,,,,,,,,,,,,,,,,,,,,,,,,,,,,,,
,,,,,,6109c32e483687220df3e6a3,62c5392e1525d49b87c79224,2022-07-06_09h34.17.921,Colour_Asymmetry_Pilot,2022.1.3,Win32,59.9268892,62c50e9c1127f2cd403a315f,,,,,,,,,,,,,,,,,,,"[-0.2942,-0.7648,-0.7492000000000001]",twofour,"[-0.011800000000000033,-0.906,-0.45100000000000007]",3,2.292,46,44,1,0,0,response1disk_5,-7,1,1,0,0,rectangle_8,-7,1,1,0,0,1,-7,1,1,0,0,2,0,2,0,1,,,,,,,,,,,,,,,,,,,,,,,,,,,,,,,,,,,,,,,,,,,,,,,,,,,,,,,,,,,,,,,,,,,,,,,,,,,,,,,,,,,,,,,,,,,,,,,,,,,,,,,,,,,,,,,
,,,,,,6109c32e483687220df3e6a3,62c5392e1525d49b87c79224,2022-07-06_09h34.17.921,Colour_Asymmetry_Pilot,2022.1.3,Win32,59.9268892,62c50e9c1127f2cd403a315f,,,,,,,,,,,,,,,,,,,"[0.12939999999999996,-0.2864,0.3253999999999999]",twofour,"[0.12939999999999996,-0.2864,0.3253999999999999]",3,1.6849,55,54,1,0,0,response1disk_5,-14,12,1,0,0,rectangle_8,45,83,1,0,0,1,-2,10,1,0,0,3,0,3,0,1,response1disk_7,7,rectangle_4,,,,,,,,,,,,,,,,,,,,,,,,,,,,,,,,,,,,,,,,,,,,,,,,,,,,,,,,,,,,,,,,,,,,,,,,,,,,,,,,,,,,,,,,,,,,,,,,,,,,,,,,,,,,
,,,,,,6109c32e483687220df3e6a3,62c5392e1525d49b87c79224,2022-07-06_09h34.17.921,Colour_Asymmetry_Pilot,2022.1.3,Win32,59.9268892,62c50e9c1127f2cd403a315f,,,,,,,,,,,,,,,,,,,"[-0.20799999999999996,-0.655,-0.01980000000000004]",fourtwo,"[-0.011800000000000033,-0.906,-0.45100000000000007]",1,4.3504,41,-42,1,0,0,response3disk_5,9,-2,1,0,0,rectangle_8,-63,65,1,0,0,1,10,-8,1,0,0,4,0,4,0,1,response7disk_7,0,rectangle_4,,,,,,,,,,,,,,,,,,,,,,,,,,,,,,,,,,,,,,,,,,,,,,,,,,,,,,,,,,,,,,,,,,,,,,,,,,,,,,,,,,,,,,,,,,,,,,,,,,,,,,,,,,,,
,,,,,,6109c32e483687220df3e6a3,62c5392e1525d49b87c79224,2022-07-06_09h34.17.921,Colour_Asymmetry_Pilot,2022.1.3,Win32,59.9268892,62c50e9c1127f2cd403a315f,,,,,,,,,,,,,,,,,,,"[0.37240000000000006,-0.050999999999999934,-0.5216]",threeone,"[0.9213999999999998,0.6391999999999998,-0.9922]",-3,13.1267,-62,40,1,0,0,response7disk_5,-3,1,1,0,0,rectangle_8,-3,1,1,0,0,1,-3,1,1,0,0,5,0,5,0,1,,,,,,,,,,,,,,,,,,,,,,,,,,,,,,,,,,,,,,,,,,,,,,,,,,,,,,,,,,,,,,,,,,,,,,,,,,,,,,,,,,,,,,,,,,,,,,,,,,,,,,,,,,,,,,,
,,,,,,6109c32e483687220df3e6a3,62c5392e1525d49b87c79224,2022-07-06_09h34.17.921,Colour_Asymmetry_Pilot,2022.1.3,Win32,59.9268892,62c50e9c1127f2cd403a315f,,,,,,,,,,,,,,,,,,,"[-0.8118,-0.8198,-0.5452]",fourtwo,"[0.9763999999999999,-0.1137999999999999,-0.6314]",-1,1.4655,-57,-84,1,0,0,response5disk_5,-3,-5,1,0,0,rectangle_8,-3,-5,1,0,0,1,-3,-5,1,0,0,6,0,6,0,1,,,,,,,,,,,,,,,,,,,,,,,,,,,,,,,,,,,,,,,,,,,,,,,,,,,,,,,,,,,,,,,,,,,,,,,,,,,,,,,,,,,,,,,,,,,,,,,,,,,,,,,,,,,,,,,
,,,,,,6109c32e483687220df3e6a3,62c5392e1525d49b87c79224,2022-07-06_09h34.17.921,Colour_Asymmetry_Pilot,2022.1.3,Win32,59.9268892,62c50e9c1127f2cd403a315f,,,,,,,,,,,,,,,,,,,,twoone,,-4,5.0788,,,,,,,,,,,,,,,,,,,,,,,,,,,,,,,,space,3.3402,"[0.6625999999999999,0.4980000000000002,-0.357]","[-0.8198,-0.5138,-0.7492000000000001]",-57,91,1,0,0,response7disk,23,5,1,0,0,rectangle,23,5,1,0,0,,1,0.0055,0,23,5,1,0,0,0,0,0,44,1,44,first,,,,,,,,,,,,,,,,,,,,,,,,,,,,,,,,,,,,,,,,,,,,,,,,,,,,,,,,,,,,,,,,,,,,,,,
,,,,,,6109c32e483687220df3e6a3,62c5392e1525d49b87c79224,2022-07-06_09h34.17.921,Colour_Asymmetry_Pilot,2022.1.3,Win32,59.9268892,62c50e9c1127f2cd403a315f,,,,,,,,,,,,,,,,,,,,onethree,,-4,5.53,,,,,,,,,,,,,,,,,,,,,,,,,,,,,,,,,,"[-0.4902000000000001,0.2704,-0.45899999999999996]","[-0.9688,-0.7412000000000001,-0.4902000000000001]",-40,116,1,0,0,response7disk,-9,-12,1,0,0,rectangle,-9,-12,1,0,0,,2,0.0054,0,-9,-12,1,0,0,0,1,1,42,1,42,first,,,,,,,,,,,,,,,,,,,,,,,,,,,,,,,,,,,,,,,,,,,,,,,,,,,,,,,,,,,,,,,,,,,,,,,
,,,,,,6109c32e483687220df3e6a3,62c5392e1525d49b87c79224,2022-07-06_09h34.17.921,Colour_Asymmetry_Pilot,2022.1.3,Win32,59.9268892,62c50e9c1127f2cd403a315f,,,,,,,,,,,,,,,,,,,,onetwo,,-4,3.126,,,,,,,,,,,,,,,,,,,,,,,,,,,,,,,,,,"[0.5528,0.7409999999999999,-0.71]","[0.18419999999999992,-0.4276,-0.404]",-54,66,1,0,0,response7disk,-19,8,1,0,0,rectangle,-19,8,1,0,0,,2,0.0007,0,-19,8,1,0,0,0,2,2,153,1,72,second,,,,,,,,,,,,,,,,,,,,,,,,,,,,,,,,,,,,,,,,,,,,,,,,,,,,,,,,,,,,,,,,,,,,,,,
,,,,,,6109c32e483687220df3e6a3,62c5392e1525d49b87c79224,2022-07-06_09h34.17.921,Colour_Asymmetry_Pilot,2022.1.3,Win32,59.9268892,62c50e9c1127f2cd403a315f,,,,,,,,,,,,,,,,,,,,onetwo,,-4,1.9557,,,,,,,,,,,,,,,,,,,,,,,,,,,,,,,,,,"[-0.06680000000000008,-0.45100000000000007,-0.906]","[0.23120000000000007,-0.7726,-0.34120000000000006]",-28,105,1,0,0,response7disk,-18,6,1,0,0,rectangle,-18,6,1,0,0,,1,0.0036,0,-18,6,1,0,0,0,3,3,56,1,56,first,,,,,,,,,,,,,,,,,,,,,,,,,,,,,,,,,,,,,,,,,,,,,,,,,,,,,,,,,,,,,,,,,,,,,,,
,,,,,,6109c32e483687220df3e6a3,62c5392e1525d49b87c79224,2022-07-06_09h34.17.921,Colour_Asymmetry_Pilot,2022.1.3,Win32,59.9268892,62c50e9c1127f2cd403a315f,,,,,,,,,,,,,,,,,,,,twofour,,-4,4.1537,,,,,,,,,,,,,,,,,,,,,,,,,,,,,,,,,,"[-0.4902000000000001,0.2704,-0.45899999999999996]","[0.9686000000000001,0.5763999999999998,0.11359999999999992]",-28,64,1,0,0,response7disk,10,5,1,0,0,rectangle,10,5,1,0,0,,3,0.0052,0,10,5,1,0,0,0,4,4,10,1,10,first,,,,,,,,,,,,,,,,,,,,,,,,,,,,,,,,,,,,,,,,,,,,,,,,,,,,,,,,,,,,,,,,,,,,,,,
,,,,,,6109c32e483687220df3e6a3,62c5392e1525d49b87c79224,2022-07-06_09h34.17.921,Colour_Asymmetry_Pilot,2022.1.3,Win32,59.9268892,62c50e9c1127f2cd403a315f,,,,,,,,,,,,,,,,,,,,threeone,,-4,1.285,,,,,,,,,,,,,,,,,,,,,,,,,,,,,,,,,,"[0.9686000000000001,0.5763999999999998,0.11359999999999992]","[0.05879999999999996,0.2784,0.5841999999999998]",-78,87,1,0,0,response7disk,-17,-6,1,0,0,rectangle,-17,-6,1,0,0,,3,0.0009,0,-17,-6,1,0,0,0,5,5,66,1,66,first,,,,,,,,,,,,,,,,,,,,,,,,,,,,,,,,,,,,,,,,,,,,,,,,,,,,,,,,,,,,,,,,,,,,,,,
,,,,,,6109c32e483687220df3e6a3,62c5392e1525d49b87c79224,2022-07-06_09h34.17.921,Colour_Asymmetry_Pilot,2022.1.3,Win32,59.9268892,62c50e9c1127f2cd403a315f,,,,,,,,,,,,,,,,,,,,fourthree,,-4,2.2209,,,,,,,,,,,,,,,,,,,,,,,,,,,,,,,,,,"[0.7802,-0.23140000000000005,-0.20799999999999996]","[-0.9766,-0.6472,0.07440000000000002]",-40,94,1,0,0,response7disk,0,5,1,0,0,rectangle,0,5,1,0,0,,3,0.0013,0,0,5,1,0,0,0,6,6,92,1,11,second,,,,,,,,,,,,,,,,,,,,,,,,,,,,,,,,,,,,,,,,,,,,,,,,,,,,,,,,,,,,,,,,,,,,,,,
,,,,,,6109c32e483687220df3e6a3,62c5392e1525d49b87c79224,2022-07-06_09h34.17.921,Colour_Asymmetry_Pilot,2022.1.3,Win32,59.9268892,62c50e9c1127f2cd403a315f,,,,,,,,,,,,,,,,,,,,fourthree,,-4,1.9857,,,,,,,,,,,,,,,,,,,,,,,,,,,,,,,,,,"[0.9686000000000001,0.5763999999999998,0.11359999999999992]","[-0.4902000000000001,0.2704,-0.45899999999999996]",-27,84,1,0,0,response7disk,14,0,1,0,0,rectangle,14,0,1,0,0,,2,0.0055,0,14,0,1,0,0,0,7,7,91,1,10,second,,,,,,,,,,,,,,,,,,,,,,,,,,,,,,,,,,,,,,,,,,,,,,,,,,,,,,,,,,,,,,,,,,,,,,,
,,,,,,6109c32e483687220df3e6a3,62c5392e1525d49b87c79224,2022-07-06_09h34.17.921,Colour_Asymmetry_Pilot,2022.1.3,Win32,59.9268892,62c50e9c1127f2cd403a315f,,,,,,,,,,,,,,,,,,,,threeone,,-4,1.2523,,,,,,,,,,,,,,,,,,,,,,,,,,,,,,,,,,"[-0.4902000000000001,0.2704,-0.45899999999999996]","[-0.30200000000000005,0.14500000000000002,0.2784]",-55,82,1,0,0,response7disk,5,8,1,0,0,rectangle,5,8,1,0,0,,1,0.0053,0,5,8,1,0,0,0,8,8,152,1,71,second,,,,,,,,,,,,,,,,,,,,,,,,,,,,,,,,,,,,,,,,,,,,,,,,,,,,,,,,,,,,,,,,,,,,,,,
,,,,,,6109c32e483687220df3e6a3,62c5392e1525d49b87c79224,2022-07-06_09h34.17.921,Colour_Asymmetry_Pilot,2022.1.3,Win32,59.9268892,62c50e9c1127f2cd403a315f,,,,,,,,,,,,,,,,,,,,fourtwo,,-4,0.9505,,,,,,,,,,,,,,,,,,,,,,,,,,,,,,,,,,"[0.796,0.2156,-0.27859999999999996]","[-0.4902000000000001,0.2704,-0.45899999999999996]",-45,64,1,0,0,response7disk,13,-2,1,0,0,rectangle,13,-2,1,0,0,,1,0.0008,0,13,-2,1,0,0,0,9,9,113,1,32,second,,,,,,,,,,,,,,,,,,,,,,,,,,,,,,,,,,,,,,,,,,,,,,,,,,,,,,,,,,,,,,,,,,,,,,,
,,,,,,6109c32e483687220df3e6a3,62c5392e1525d49b87c79224,2022-07-06_09h34.17.921,Colour_Asymmetry_Pilot,2022.1.3,Win32,59.9268892,62c50e9c1127f2cd403a315f,,,,,,,,,,,,,,,,,,,,onetwo,,-4,0.7337,,,,,,,,,,,,,,,,,,,,,,,,,,,,,,,,,,"[0.4196,0.4665999999999999,0.3568]","[-0.5688,-0.08239999999999992,-0.1844]",-49,104,1,0,0,response7disk,7,-1,1,0,0,rectangle,7,-1,1,0,0,,2,0.0044,0,7,-1,1,0,0,0,10,10,135,1,54,second,,,,,,,,,,,,,,,,,,,,,,,,,,,,,,,,,,,,,,,,,,,,,,,,,,,,,,,,,,,,,,,,,,,,,,,
,,,,,,6109c32e483687220df3e6a3,62c5392e1525d49b87c79224,2022-07-06_09h34.17.921,Colour_Asymmetry_Pilot,2022.1.3,Win32,59.9268892,62c50e9c1127f2cd403a315f,,,,,,,,,,,,,,,,,,,,twoone,,-4,0.7506,,,,,,,,,,,,,,,,,,,,,,,,,,,,,,,,,,"[0.12939999999999996,-0.2864,0.3253999999999999]","[0.9763999999999999,0.8588,-0.05900000000000005]",-27,55,1,0,0,response7disk,4,-4,1,0,0,rectangle,4,-4,1,0,0,,2,0.0008,0,4,-4,1,0,0,0,11,11,85,1,4,second,,,,,,,,,,,,,,,,,,,,,,,,,,,,,,,,,,,,,,,,,,,,,,,,,,,,,,,,,,,,,,,,,,,,,,,
,,,,,,6109c32e483687220df3e6a3,62c5392e1525d49b87c79224,2022-07-06_09h34.17.921,Colour_Asymmetry_Pilot,2022.1.3,Win32,59.9268892,62c50e9c1127f2cd403a315f,,,,,,,,,,,,,,,,,,,,onetwo,,-4,1.5179,,,,,,,,,,,,,,,,,,,,,,,,,,,,,,,,,,"[0.11359999999999992,0.6312,0.5213999999999999]","[-0.30200000000000005,0.14500000000000002,0.2784]",-36,73,1,0,0,response7disk,2,-2,1,0,0,rectangle,2,-2,1,0,0,,2,0.0021,0,2,-2,1,0,0,0,12,12,5,1,5,first,,,,,,,,,,,,,,,,,,,,,,,,,,,,,,,,,,,,,,,,,,,,,,,,,,,,,,,,,,,,,,,,,,,,,,,
,,,,,,6109c32e483687220df3e6a3,62c5392e1525d49b87c79224,2022-07-06_09h34.17.921,Colour_Asymmetry_Pilot,2022.1.3,Win32,59.9268892,62c50e9c1127f2cd403a315f,,,,,,,,,,,,,,,,,,,,twoone,,-4,1.434,,,,,,,,,,,,,,,,,,,,,,,,,,,,,,,,,,"[-0.6706000000000001,-0.6157999999999999,-0.6786]","[0.7646000000000002,0.07440000000000002,0.2704]",-53,61,1,0,0,response7disk,-3,-1,1,0,0,rectangle,-3,-1,1,0,0,,2,0.0021,0,-3,-1,1,0,0,0,13,13,37,1,37,first,,,,,,,,,,,,,,,,,,,,,,,,,,,,,,,,,,,,,,,,,,,,,,,,,,,,,,,,,,,,,,,,,,,,,,,
,,,,,,6109c32e483687220df3e6a3,62c5392e1525d49b87c79224,2022-07-06_09h34.17.921,Colour_Asymmetry_Pilot,2022.1.3,Win32,59.9268892,62c50e9c1127f2cd403a315f,,,,,,,,,,,,,,,,,,,,onetwo,,-4,0.9505,,,,,,,,,,,,,,,,,,,,,,,,,,,,,,,,,,"[-0.01980000000000004,-0.5138,-0.38039999999999996]","[-0.4902000000000001,0.2704,-0.45899999999999996]",-48,74,1,0,0,response7disk,23,-14,1,0,0,rectangle,23,-14,1,0,0,,1,0.0042,0,23,-14,1,0,0,0,14,14,98,1,17,second,,,,,,,,,,,,,,,,,,,,,,,,,,,,,,,,,,,,,,,,,,,,,,,,,,,,,,,,,,,,,,,,,,,,,,,
,,,,,,6109c32e483687220df3e6a3,62c5392e1525d49b87c79224,2022-07-06_09h34.17.921,Colour_Asymmetry_Pilot,2022.1.3,Win32,59.9268892,62c50e9c1127f2cd403a315f,,,,,,,,,,,,,,,,,,,,twofour,,4,1.5001,,,,,,,,,,,,,,,,,,,,,,,,,,,,,,,,,,"[-0.09019999999999995,0.44300000000000006,0.5371999999999999]","[0.19199999999999995,0.18419999999999992,0.5136000000000001]",46,98,1,0,0,response1disk,16,-8,1,0,0,rectangle,16,-8,1,0,0,,3,0.0038,0,16,-8,1,0,0,0,15,15,22,1,22,first,,,,,,,,,,,,,,,,,,,,,,,,,,,,,,,,,,,,,,,,,,,,,,,,,,,,,,,,,,,,,,,,,,,,,,,
,,,,,,6109c32e483687220df3e6a3,62c5392e1525d49b87c79224,2022-07-06_09h34.17.921,Colour_Asymmetry_Pilot,2022.1.3,Win32,59.9268892,62c50e9c1127f2cd403a315f,,,,,,,,,,,,,,,,,,,,fourtwo,,4,3.181,,,,,,,,,,,,,,,,,,,,,,,,,,,,,,,,,,"[-0.5922000000000001,-0.7492000000000001,-0.5296000000000001]","[0.05879999999999996,0.2784,0.5841999999999998]",31,108,1,0,0,response1disk,-25,4,1,0,0,rectangle,-25,4,1,0,0,,2,0.0044,0,-25,4,1,0,0,0,16,16,83,1,2,second,,,,,,,,,,,,,,,,,,,,,,,,,,,,,,,,,,,,,,,,,,,,,,,,,,,,,,,,,,,,,,,,,,,,,,,
,,,,,,6109c32e483687220df3e6a3,62c5392e1525d49b87c79224,2022-07-06_09h34.17.921,Colour_Asymmetry_Pilot,2022.1.3,Win32,59.9268892,62c50e9c1127f2cd403a315f,,,,,,,,,,,,,,,,,,,,onethree,,-4,0.6687,,,,,,,,,,,,,,,,,,,,,,,,,,,,,,,,,,"[0.8274000000000001,-0.5844,-0.9452]","[0.37240000000000006,0.4980000000000002,-0.2864]",-53,89,1,0,0,response7disk,14,3,1,0,0,rectangle,14,3,1,0,0,,1,0.0052,0,14,3,1,0,0,0,17,17,134,1,53,second,,,,,,,,,,,,,,,,,,,,,,,,,,,,,,,,,,,,,,,,,,,,,,,,,,,,,,,,,,,,,,,,,,,,,,,
,,,,,,6109c32e483687220df3e6a3,62c5392e1525d49b87c79224,2022-07-06_09h34.17.921,Colour_Asymmetry_Pilot,2022.1.3,Win32,59.9268892,62c50e9c1127f2cd403a315f,,,,,,,,,,,,,,,,,,,,twoone,,4,1.1184,,,,,,,,,,,,,,,,,,,,,,,,,,,,,,,,,,"[-0.06680000000000008,-0.45100000000000007,-0.906]","[0.9842,0.7409999999999999,-0.6628000000000001]",40,88,1,0,0,response1disk,8,3,1,0,0,rectangle,8,3,1,0,0,,1,0.0011,0,8,3,1,0,0,0,18,18,132,1,51,second,,,,,,,,,,,,,,,,,,,,,,,,,,,,,,,,,,,,,,,,,,,,,,,,,,,,,,,,,,,,,,,,,,,,,,,
