trials.thisRepN,trials.thisTrialN,trials.thisN,trials.thisIndex,trials.ran,Colourcodes,participant,session,date,expName,psychopyVersion,OS,frameRate,study_id,trials_4.thisRepN,trials_4.thisTrialN,trials_4.thisN,trials_4.thisIndex,trials_4.ran,StimulusPos,key_resp.keys,key_resp.rt,key_resp_2.keys,key_resp_2.rt,key_resp_15.keys,key_resp_15.rt,key_resp_17.keys,key_resp_17.rt,key_resp_9.keys,key_resp_9.rt,key_resp_10.keys,key_resp_10.rt,Circle1_col,Ecc,Circle2_col,similarity,response_time,mouse_5.x,mouse_5.y,mouse_5.leftButton,mouse_5.midButton,mouse_5.rightButton,mouse_5.clicked_name,mouse_10.x,mouse_10.y,mouse_10.leftButton,mouse_10.midButton,mouse_10.rightButton,mouse_10.clicked_name,mouse_7.x,mouse_7.y,mouse_7.leftButton,mouse_7.midButton,mouse_7.rightButton,catchnumberprac,mouse_6.x,mouse_6.y,mouse_6.leftButton,mouse_6.midButton,mouse_6.rightButton,duringprac.thisRepN,duringprac.thisTrialN,duringprac.thisN,duringprac.thisIndex,duringprac.ran,mouse_7.clicked_name,catchprac,mouse_6.clicked_name,key_resp_22.keys,key_resp_22.rt,Circle1_colour,Circle2_colour,mouse.x,mouse.y,mouse.leftButton,mouse.midButton,mouse.rightButton,mouse.clicked_name,mouse_2.x,mouse_2.y,mouse_2.leftButton,mouse_2.midButton,mouse_2.rightButton,mouse_2.clicked_name,mouse_3.x,mouse_3.y,mouse_3.leftButton,mouse_3.midButton,mouse_3.rightButton,catchresponse,catchnumber,response_time_catch,Catch,mouse_11.x,mouse_11.y,mouse_11.leftButton,mouse_11.midButton,mouse_11.rightButton,trials_2.thisRepN,trials_2.thisTrialN,trials_2.thisN,trials_2.thisIndex,trials_2.ran,Colourpair,Temporder,mouse_3.clicked_name,mouse_11.clicked_name,trials_3.thisRepN,trials_3.thisTrialN,trials_3.thisN,trials_3.thisIndex,trials_3.ran,key_resp_instr_Ishi.keys,key_resp_instr_Ishi.rt,Ishi_trial_keyresp.keys,Ishi_trial_keyresp.rt,Ishi_textbox.text,Ishi_mouse.x,Ishi_mouse.y,Ishi_mouse.leftButton,Ishi_mouse.midButton,Ishi_mouse.rightButton,Ishi_loop.thisRepN,Ishi_loop.thisTrialN,Ishi_loop.thisN,Ishi_loop.thisIndex,Ishi_loop.ran,imageaddress,textbox.text,mouse_4.x,mouse_4.y,mouse_4.leftButton,mouse_4.midButton,mouse_4.rightButton,mouse_4.clicked_name,textbox_2.text,mouse_8.x,mouse_8.y,mouse_8.leftButton,mouse_8.midButton,mouse_8.rightButton,mouse_8.clicked_name,textbox_3.text,mouse_9.x,mouse_9.y,mouse_9.leftButton,mouse_9.midButton,mouse_9.rightButton,mouse_9.clicked_name,textbox_4.text,mouse_12.x,mouse_12.y,mouse_12.leftButton,mouse_12.midButton,mouse_12.rightButton,mouse_12.clicked_name,textbox_5.text,mouse_13.x,mouse_13.y,mouse_13.leftButton,mouse_13.midButton,mouse_13.rightButton,mouse_13.clicked_name,textbox_6.text,mouse_14.x,mouse_14.y,mouse_14.leftButton,mouse_14.midButton,mouse_14.rightButton,mouse_14.clicked_name,textbox_7.text,mouse_15.x,mouse_15.y,mouse_15.leftButton,mouse_15.midButton,mouse_15.rightButton,mouse_15.clicked_name
0,0,0,68,1,,5ebeb4d5c03b440f47f505fc,62c539eca9e5fb366c1df9a8,2022-07-06_10h32.17.303,Colour_Asymmetry_Pilot,2022.1.3,Win32,60.09254252,62c50e9c1127f2cd403a315f,,,,,,,,,,,,,,,,,,,,,,,,,,,,,,,,,,,,,,,,,,,,,,,,,,,,,,,,,,,,,,,,,,,,,,,,,,,,,,,,,,,,,,,,,,,,,,,,,,,,,,,,,,,,,,,,,,,,,,,,,,,,,,,,,,,,,,,,,,,,,,,,,,,,,,,,,,,,,,,,,,,
0,1,1,67,1,,5ebeb4d5c03b440f47f505fc,62c539eca9e5fb366c1df9a8,2022-07-06_10h32.17.303,Colour_Asymmetry_Pilot,2022.1.3,Win32,60.09254252,62c50e9c1127f2cd403a315f,,,,,,,,,,,,,,,,,,,,,,,,,,,,,,,,,,,,,,,,,,,,,,,,,,,,,,,,,,,,,,,,,,,,,,,,,,,,,,,,,,,,,,,,,,,,,,,,,,,,,,,,,,,,,,,,,,,,,,,,,,,,,,,,,,,,,,,,,,,,,,,,,,,,,,,,,,,,,,,,,,,
0,2,2,1,1,,5ebeb4d5c03b440f47f505fc,62c539eca9e5fb366c1df9a8,2022-07-06_10h32.17.303,Colour_Asymmetry_Pilot,2022.1.3,Win32,60.09254252,62c50e9c1127f2cd403a315f,,,,,,,,,,,,,,,,,,,,,,,,,,,,,,,,,,,,,,,,,,,,,,,,,,,,,,,,,,,,,,,,,,,,,,,,,,,,,,,,,,,,,,,,,,,,,,,,,,,,,,,,,,,,,,,,,,,,,,,,,,,,,,,,,,,,,,,,,,,,,,,,,,,,,,,,,,,,,,,,,,,
0,3,3,88,1,,5ebeb4d5c03b440f47f505fc,62c539eca9e5fb366c1df9a8,2022-07-06_10h32.17.303,Colour_Asymmetry_Pilot,2022.1.3,Win32,60.09254252,62c50e9c1127f2cd403a315f,,,,,,,,,,,,,,,,,,,,,,,,,,,,,,,,,,,,,,,,,,,,,,,,,,,,,,,,,,,,,,,,,,,,,,,,,,,,,,,,,,,,,,,,,,,,,,,,,,,,,,,,,,,,,,,,,,,,,,,,,,,,,,,,,,,,,,,,,,,,,,,,,,,,,,,,,,,,,,,,,,,
0,4,4,54,1,,5ebeb4d5c03b440f47f505fc,62c539eca9e5fb366c1df9a8,2022-07-06_10h32.17.303,Colour_Asymmetry_Pilot,2022.1.3,Win32,60.09254252,62c50e9c1127f2cd403a315f,,,,,,,,,,,,,,,,,,,,,,,,,,,,,,,,,,,,,,,,,,,,,,,,,,,,,,,,,,,,,,,,,,,,,,,,,,,,,,,,,,,,,,,,,,,,,,,,,,,,,,,,,,,,,,,,,,,,,,,,,,,,,,,,,,,,,,,,,,,,,,,,,,,,,,,,,,,,,,,,,,,
0,5,5,57,1,,5ebeb4d5c03b440f47f505fc,62c539eca9e5fb366c1df9a8,2022-07-06_10h32.17.303,Colour_Asymmetry_Pilot,2022.1.3,Win32,60.09254252,62c50e9c1127f2cd403a315f,,,,,,,,,,,,,,,,,,,,,,,,,,,,,,,,,,,,,,,,,,,,,,,,,,,,,,,,,,,,,,,,,,,,,,,,,,,,,,,,,,,,,,,,,,,,,,,,,,,,,,,,,,,,,,,,,,,,,,,,,,,,,,,,,,,,,,,,,,,,,,,,,,,,,,,,,,,,,,,,,,,
0,6,6,75,1,,5ebeb4d5c03b440f47f505fc,62c539eca9e5fb366c1df9a8,2022-07-06_10h32.17.303,Colour_Asymmetry_Pilot,2022.1.3,Win32,60.09254252,62c50e9c1127f2cd403a315f,,,,,,,,,,,,,,,,,,,,,,,,,,,,,,,,,,,,,,,,,,,,,,,,,,,,,,,,,,,,,,,,,,,,,,,,,,,,,,,,,,,,,,,,,,,,,,,,,,,,,,,,,,,,,,,,,,,,,,,,,,,,,,,,,,,,,,,,,,,,,,,,,,,,,,,,,,,,,,,,,,,
0,7,7,56,1,,5ebeb4d5c03b440f47f505fc,62c539eca9e5fb366c1df9a8,2022-07-06_10h32.17.303,Colour_Asymmetry_Pilot,2022.1.3,Win32,60.09254252,62c50e9c1127f2cd403a315f,,,,,,,,,,,,,,,,,,,,,,,,,,,,,,,,,,,,,,,,,,,,,,,,,,,,,,,,,,,,,,,,,,,,,,,,,,,,,,,,,,,,,,,,,,,,,,,,,,,,,,,,,,,,,,,,,,,,,,,,,,,,,,,,,,,,,,,,,,,,,,,,,,,,,,,,,,,,,,,,,,,
0,8,8,85,1,,5ebeb4d5c03b440f47f505fc,62c539eca9e5fb366c1df9a8,2022-07-06_10h32.17.303,Colour_Asymmetry_Pilot,2022.1.3,Win32,60.09254252,62c50e9c1127f2cd403a315f,,,,,,,,,,,,,,,,,,,,,,,,,,,,,,,,,,,,,,,,,,,,,,,,,,,,,,,,,,,,,,,,,,,,,,,,,,,,,,,,,,,,,,,,,,,,,,,,,,,,,,,,,,,,,,,,,,,,,,,,,,,,,,,,,,,,,,,,,,,,,,,,,,,,,,,,,,,,,,,,,,,
0,9,9,9,1,,5ebeb4d5c03b440f47f505fc,62c539eca9e5fb366c1df9a8,2022-07-06_10h32.17.303,Colour_Asymmetry_Pilot,2022.1.3,Win32,60.09254252,62c50e9c1127f2cd403a315f,,,,,,,,,,,,,,,,,,,,,,,,,,,,,,,,,,,,,,,,,,,,,,,,,,,,,,,,,,,,,,,,,,,,,,,,,,,,,,,,,,,,,,,,,,,,,,,,,,,,,,,,,,,,,,,,,,,,,,,,,,,,,,,,,,,,,,,,,,,,,,,,,,,,,,,,,,,,,,,,,,,
0,10,10,24,1,,5ebeb4d5c03b440f47f505fc,62c539eca9e5fb366c1df9a8,2022-07-06_10h32.17.303,Colour_Asymmetry_Pilot,2022.1.3,Win32,60.09254252,62c50e9c1127f2cd403a315f,,,,,,,,,,,,,,,,,,,,,,,,,,,,,,,,,,,,,,,,,,,,,,,,,,,,,,,,,,,,,,,,,,,,,,,,,,,,,,,,,,,,,,,,,,,,,,,,,,,,,,,,,,,,,,,,,,,,,,,,,,,,,,,,,,,,,,,,,,,,,,,,,,,,,,,,,,,,,,,,,,,
0,11,11,22,1,,5ebeb4d5c03b440f47f505fc,62c539eca9e5fb366c1df9a8,2022-07-06_10h32.17.303,Colour_Asymmetry_Pilot,2022.1.3,Win32,60.09254252,62c50e9c1127f2cd403a315f,,,,,,,,,,,,,,,,,,,,,,,,,,,,,,,,,,,,,,,,,,,,,,,,,,,,,,,,,,,,,,,,,,,,,,,,,,,,,,,,,,,,,,,,,,,,,,,,,,,,,,,,,,,,,,,,,,,,,,,,,,,,,,,,,,,,,,,,,,,,,,,,,,,,,,,,,,,,,,,,,,,
0,12,12,28,1,,5ebeb4d5c03b440f47f505fc,62c539eca9e5fb366c1df9a8,2022-07-06_10h32.17.303,Colour_Asymmetry_Pilot,2022.1.3,Win32,60.09254252,62c50e9c1127f2cd403a315f,,,,,,,,,,,,,,,,,,,,,,,,,,,,,,,,,,,,,,,,,,,,,,,,,,,,,,,,,,,,,,,,,,,,,,,,,,,,,,,,,,,,,,,,,,,,,,,,,,,,,,,,,,,,,,,,,,,,,,,,,,,,,,,,,,,,,,,,,,,,,,,,,,,,,,,,,,,,,,,,,,,
0,13,13,72,1,,5ebeb4d5c03b440f47f505fc,62c539eca9e5fb366c1df9a8,2022-07-06_10h32.17.303,Colour_Asymmetry_Pilot,2022.1.3,Win32,60.09254252,62c50e9c1127f2cd403a315f,,,,,,,,,,,,,,,,,,,,,,,,,,,,,,,,,,,,,,,,,,,,,,,,,,,,,,,,,,,,,,,,,,,,,,,,,,,,,,,,,,,,,,,,,,,,,,,,,,,,,,,,,,,,,,,,,,,,,,,,,,,,,,,,,,,,,,,,,,,,,,,,,,,,,,,,,,,,,,,,,,,
0,14,14,27,1,,5ebeb4d5c03b440f47f505fc,62c539eca9e5fb366c1df9a8,2022-07-06_10h32.17.303,Colour_Asymmetry_Pilot,2022.1.3,Win32,60.09254252,62c50e9c1127f2cd403a315f,,,,,,,,,,,,,,,,,,,,,,,,,,,,,,,,,,,,,,,,,,,,,,,,,,,,,,,,,,,,,,,,,,,,,,,,,,,,,,,,,,,,,,,,,,,,,,,,,,,,,,,,,,,,,,,,,,,,,,,,,,,,,,,,,,,,,,,,,,,,,,,,,,,,,,,,,,,,,,,,,,,
0,15,15,33,1,,5ebeb4d5c03b440f47f505fc,62c539eca9e5fb366c1df9a8,2022-07-06_10h32.17.303,Colour_Asymmetry_Pilot,2022.1.3,Win32,60.09254252,62c50e9c1127f2cd403a315f,,,,,,,,,,,,,,,,,,,,,,,,,,,,,,,,,,,,,,,,,,,,,,,,,,,,,,,,,,,,,,,,,,,,,,,,,,,,,,,,,,,,,,,,,,,,,,,,,,,,,,,,,,,,,,,,,,,,,,,,,,,,,,,,,,,,,,,,,,,,,,,,,,,,,,,,,,,,,,,,,,,
0,16,16,90,1,,5ebeb4d5c03b440f47f505fc,62c539eca9e5fb366c1df9a8,2022-07-06_10h32.17.303,Colour_Asymmetry_Pilot,2022.1.3,Win32,60.09254252,62c50e9c1127f2cd403a315f,,,,,,,,,,,,,,,,,,,,,,,,,,,,,,,,,,,,,,,,,,,,,,,,,,,,,,,,,,,,,,,,,,,,,,,,,,,,,,,,,,,,,,,,,,,,,,,,,,,,,,,,,,,,,,,,,,,,,,,,,,,,,,,,,,,,,,,,,,,,,,,,,,,,,,,,,,,,,,,,,,,
0,17,17,65,1,,5ebeb4d5c03b440f47f505fc,62c539eca9e5fb366c1df9a8,2022-07-06_10h32.17.303,Colour_Asymmetry_Pilot,2022.1.3,Win32,60.09254252,62c50e9c1127f2cd403a315f,,,,,,,,,,,,,,,,,,,,,,,,,,,,,,,,,,,,,,,,,,,,,,,,,,,,,,,,,,,,,,,,,,,,,,,,,,,,,,,,,,,,,,,,,,,,,,,,,,,,,,,,,,,,,,,,,,,,,,,,,,,,,,,,,,,,,,,,,,,,,,,,,,,,,,,,,,,,,,,,,,,
0,18,18,74,1,,5ebeb4d5c03b440f47f505fc,62c539eca9e5fb366c1df9a8,2022-07-06_10h32.17.303,Colour_Asymmetry_Pilot,2022.1.3,Win32,60.09254252,62c50e9c1127f2cd403a315f,,,,,,,,,,,,,,,,,,,,,,,,,,,,,,,,,,,,,,,,,,,,,,,,,,,,,,,,,,,,,,,,,,,,,,,,,,,,,,,,,,,,,,,,,,,,,,,,,,,,,,,,,,,,,,,,,,,,,,,,,,,,,,,,,,,,,,,,,,,,,,,,,,,,,,,,,,,,,,,,,,,
0,19,19,53,1,,5ebeb4d5c03b440f47f505fc,62c539eca9e5fb366c1df9a8,2022-07-06_10h32.17.303,Colour_Asymmetry_Pilot,2022.1.3,Win32,60.09254252,62c50e9c1127f2cd403a315f,,,,,,,,,,,,,,,,,,,,,,,,,,,,,,,,,,,,,,,,,,,,,,,,,,,,,,,,,,,,,,,,,,,,,,,,,,,,,,,,,,,,,,,,,,,,,,,,,,,,,,,,,,,,,,,,,,,,,,,,,,,,,,,,,,,,,,,,,,,,,,,,,,,,,,,,,,,,,,,,,,,
0,20,20,69,1,,5ebeb4d5c03b440f47f505fc,62c539eca9e5fb366c1df9a8,2022-07-06_10h32.17.303,Colour_Asymmetry_Pilot,2022.1.3,Win32,60.09254252,62c50e9c1127f2cd403a315f,,,,,,,,,,,,,,,,,,,,,,,,,,,,,,,,,,,,,,,,,,,,,,,,,,,,,,,,,,,,,,,,,,,,,,,,,,,,,,,,,,,,,,,,,,,,,,,,,,,,,,,,,,,,,,,,,,,,,,,,,,,,,,,,,,,,,,,,,,,,,,,,,,,,,,,,,,,,,,,,,,,
0,21,21,25,1,,5ebeb4d5c03b440f47f505fc,62c539eca9e5fb366c1df9a8,2022-07-06_10h32.17.303,Colour_Asymmetry_Pilot,2022.1.3,Win32,60.09254252,62c50e9c1127f2cd403a315f,,,,,,,,,,,,,,,,,,,,,,,,,,,,,,,,,,,,,,,,,,,,,,,,,,,,,,,,,,,,,,,,,,,,,,,,,,,,,,,,,,,,,,,,,,,,,,,,,,,,,,,,,,,,,,,,,,,,,,,,,,,,,,,,,,,,,,,,,,,,,,,,,,,,,,,,,,,,,,,,,,,
0,22,22,77,1,,5ebeb4d5c03b440f47f505fc,62c539eca9e5fb366c1df9a8,2022-07-06_10h32.17.303,Colour_Asymmetry_Pilot,2022.1.3,Win32,60.09254252,62c50e9c1127f2cd403a315f,,,,,,,,,,,,,,,,,,,,,,,,,,,,,,,,,,,,,,,,,,,,,,,,,,,,,,,,,,,,,,,,,,,,,,,,,,,,,,,,,,,,,,,,,,,,,,,,,,,,,,,,,,,,,,,,,,,,,,,,,,,,,,,,,,,,,,,,,,,,,,,,,,,,,,,,,,,,,,,,,,,
0,23,23,13,1,,5ebeb4d5c03b440f47f505fc,62c539eca9e5fb366c1df9a8,2022-07-06_10h32.17.303,Colour_Asymmetry_Pilot,2022.1.3,Win32,60.09254252,62c50e9c1127f2cd403a315f,,,,,,,,,,,,,,,,,,,,,,,,,,,,,,,,,,,,,,,,,,,,,,,,,,,,,,,,,,,,,,,,,,,,,,,,,,,,,,,,,,,,,,,,,,,,,,,,,,,,,,,,,,,,,,,,,,,,,,,,,,,,,,,,,,,,,,,,,,,,,,,,,,,,,,,,,,,,,,,,,,,
0,24,24,0,1,,5ebeb4d5c03b440f47f505fc,62c539eca9e5fb366c1df9a8,2022-07-06_10h32.17.303,Colour_Asymmetry_Pilot,2022.1.3,Win32,60.09254252,62c50e9c1127f2cd403a315f,,,,,,,,,,,,,,,,,,,,,,,,,,,,,,,,,,,,,,,,,,,,,,,,,,,,,,,,,,,,,,,,,,,,,,,,,,,,,,,,,,,,,,,,,,,,,,,,,,,,,,,,,,,,,,,,,,,,,,,,,,,,,,,,,,,,,,,,,,,,,,,,,,,,,,,,,,,,,,,,,,,
0,25,25,45,1,,5ebeb4d5c03b440f47f505fc,62c539eca9e5fb366c1df9a8,2022-07-06_10h32.17.303,Colour_Asymmetry_Pilot,2022.1.3,Win32,60.09254252,62c50e9c1127f2cd403a315f,,,,,,,,,,,,,,,,,,,,,,,,,,,,,,,,,,,,,,,,,,,,,,,,,,,,,,,,,,,,,,,,,,,,,,,,,,,,,,,,,,,,,,,,,,,,,,,,,,,,,,,,,,,,,,,,,,,,,,,,,,,,,,,,,,,,,,,,,,,,,,,,,,,,,,,,,,,,,,,,,,,
0,26,26,80,1,,5ebeb4d5c03b440f47f505fc,62c539eca9e5fb366c1df9a8,2022-07-06_10h32.17.303,Colour_Asymmetry_Pilot,2022.1.3,Win32,60.09254252,62c50e9c1127f2cd403a315f,,,,,,,,,,,,,,,,,,,,,,,,,,,,,,,,,,,,,,,,,,,,,,,,,,,,,,,,,,,,,,,,,,,,,,,,,,,,,,,,,,,,,,,,,,,,,,,,,,,,,,,,,,,,,,,,,,,,,,,,,,,,,,,,,,,,,,,,,,,,,,,,,,,,,,,,,,,,,,,,,,,
0,27,27,70,1,,5ebeb4d5c03b440f47f505fc,62c539eca9e5fb366c1df9a8,2022-07-06_10h32.17.303,Colour_Asymmetry_Pilot,2022.1.3,Win32,60.09254252,62c50e9c1127f2cd403a315f,,,,,,,,,,,,,,,,,,,,,,,,,,,,,,,,,,,,,,,,,,,,,,,,,,,,,,,,,,,,,,,,,,,,,,,,,,,,,,,,,,,,,,,,,,,,,,,,,,,,,,,,,,,,,,,,,,,,,,,,,,,,,,,,,,,,,,,,,,,,,,,,,,,,,,,,,,,,,,,,,,,
0,28,28,91,1,,5ebeb4d5c03b440f47f505fc,62c539eca9e5fb366c1df9a8,2022-07-06_10h32.17.303,Colour_Asymmetry_Pilot,2022.1.3,Win32,60.09254252,62c50e9c1127f2cd403a315f,,,,,,,,,,,,,,,,,,,,,,,,,,,,,,,,,,,,,,,,,,,,,,,,,,,,,,,,,,,,,,,,,,,,,,,,,,,,,,,,,,,,,,,,,,,,,,,,,,,,,,,,,,,,,,,,,,,,,,,,,,,,,,,,,,,,,,,,,,,,,,,,,,,,,,,,,,,,,,,,,,,
0,29,29,2,1,,5ebeb4d5c03b440f47f505fc,62c539eca9e5fb366c1df9a8,2022-07-06_10h32.17.303,Colour_Asymmetry_Pilot,2022.1.3,Win32,60.09254252,62c50e9c1127f2cd403a315f,,,,,,,,,,,,,,,,,,,,,,,,,,,,,,,,,,,,,,,,,,,,,,,,,,,,,,,,,,,,,,,,,,,,,,,,,,,,,,,,,,,,,,,,,,,,,,,,,,,,,,,,,,,,,,,,,,,,,,,,,,,,,,,,,,,,,,,,,,,,,,,,,,,,,,,,,,,,,,,,,,,
0,30,30,73,1,,5ebeb4d5c03b440f47f505fc,62c539eca9e5fb366c1df9a8,2022-07-06_10h32.17.303,Colour_Asymmetry_Pilot,2022.1.3,Win32,60.09254252,62c50e9c1127f2cd403a315f,,,,,,,,,,,,,,,,,,,,,,,,,,,,,,,,,,,,,,,,,,,,,,,,,,,,,,,,,,,,,,,,,,,,,,,,,,,,,,,,,,,,,,,,,,,,,,,,,,,,,,,,,,,,,,,,,,,,,,,,,,,,,,,,,,,,,,,,,,,,,,,,,,,,,,,,,,,,,,,,,,,
0,31,31,92,1,,5ebeb4d5c03b440f47f505fc,62c539eca9e5fb366c1df9a8,2022-07-06_10h32.17.303,Colour_Asymmetry_Pilot,2022.1.3,Win32,60.09254252,62c50e9c1127f2cd403a315f,,,,,,,,,,,,,,,,,,,,,,,,,,,,,,,,,,,,,,,,,,,,,,,,,,,,,,,,,,,,,,,,,,,,,,,,,,,,,,,,,,,,,,,,,,,,,,,,,,,,,,,,,,,,,,,,,,,,,,,,,,,,,,,,,,,,,,,,,,,,,,,,,,,,,,,,,,,,,,,,,,,
0,32,32,17,1,,5ebeb4d5c03b440f47f505fc,62c539eca9e5fb366c1df9a8,2022-07-06_10h32.17.303,Colour_Asymmetry_Pilot,2022.1.3,Win32,60.09254252,62c50e9c1127f2cd403a315f,,,,,,,,,,,,,,,,,,,,,,,,,,,,,,,,,,,,,,,,,,,,,,,,,,,,,,,,,,,,,,,,,,,,,,,,,,,,,,,,,,,,,,,,,,,,,,,,,,,,,,,,,,,,,,,,,,,,,,,,,,,,,,,,,,,,,,,,,,,,,,,,,,,,,,,,,,,,,,,,,,,
0,33,33,79,1,,5ebeb4d5c03b440f47f505fc,62c539eca9e5fb366c1df9a8,2022-07-06_10h32.17.303,Colour_Asymmetry_Pilot,2022.1.3,Win32,60.09254252,62c50e9c1127f2cd403a315f,,,,,,,,,,,,,,,,,,,,,,,,,,,,,,,,,,,,,,,,,,,,,,,,,,,,,,,,,,,,,,,,,,,,,,,,,,,,,,,,,,,,,,,,,,,,,,,,,,,,,,,,,,,,,,,,,,,,,,,,,,,,,,,,,,,,,,,,,,,,,,,,,,,,,,,,,,,,,,,,,,,
0,34,34,26,1,,5ebeb4d5c03b440f47f505fc,62c539eca9e5fb366c1df9a8,2022-07-06_10h32.17.303,Colour_Asymmetry_Pilot,2022.1.3,Win32,60.09254252,62c50e9c1127f2cd403a315f,,,,,,,,,,,,,,,,,,,,,,,,,,,,,,,,,,,,,,,,,,,,,,,,,,,,,,,,,,,,,,,,,,,,,,,,,,,,,,,,,,,,,,,,,,,,,,,,,,,,,,,,,,,,,,,,,,,,,,,,,,,,,,,,,,,,,,,,,,,,,,,,,,,,,,,,,,,,,,,,,,,
0,35,35,35,1,,5ebeb4d5c03b440f47f505fc,62c539eca9e5fb366c1df9a8,2022-07-06_10h32.17.303,Colour_Asymmetry_Pilot,2022.1.3,Win32,60.09254252,62c50e9c1127f2cd403a315f,,,,,,,,,,,,,,,,,,,,,,,,,,,,,,,,,,,,,,,,,,,,,,,,,,,,,,,,,,,,,,,,,,,,,,,,,,,,,,,,,,,,,,,,,,,,,,,,,,,,,,,,,,,,,,,,,,,,,,,,,,,,,,,,,,,,,,,,,,,,,,,,,,,,,,,,,,,,,,,,,,,
0,36,36,12,1,,5ebeb4d5c03b440f47f505fc,62c539eca9e5fb366c1df9a8,2022-07-06_10h32.17.303,Colour_Asymmetry_Pilot,2022.1.3,Win32,60.09254252,62c50e9c1127f2cd403a315f,,,,,,,,,,,,,,,,,,,,,,,,,,,,,,,,,,,,,,,,,,,,,,,,,,,,,,,,,,,,,,,,,,,,,,,,,,,,,,,,,,,,,,,,,,,,,,,,,,,,,,,,,,,,,,,,,,,,,,,,,,,,,,,,,,,,,,,,,,,,,,,,,,,,,,,,,,,,,,,,,,,
0,37,37,81,1,,5ebeb4d5c03b440f47f505fc,62c539eca9e5fb366c1df9a8,2022-07-06_10h32.17.303,Colour_Asymmetry_Pilot,2022.1.3,Win32,60.09254252,62c50e9c1127f2cd403a315f,,,,,,,,,,,,,,,,,,,,,,,,,,,,,,,,,,,,,,,,,,,,,,,,,,,,,,,,,,,,,,,,,,,,,,,,,,,,,,,,,,,,,,,,,,,,,,,,,,,,,,,,,,,,,,,,,,,,,,,,,,,,,,,,,,,,,,,,,,,,,,,,,,,,,,,,,,,,,,,,,,,
0,38,38,32,1,,5ebeb4d5c03b440f47f505fc,62c539eca9e5fb366c1df9a8,2022-07-06_10h32.17.303,Colour_Asymmetry_Pilot,2022.1.3,Win32,60.09254252,62c50e9c1127f2cd403a315f,,,,,,,,,,,,,,,,,,,,,,,,,,,,,,,,,,,,,,,,,,,,,,,,,,,,,,,,,,,,,,,,,,,,,,,,,,,,,,,,,,,,,,,,,,,,,,,,,,,,,,,,,,,,,,,,,,,,,,,,,,,,,,,,,,,,,,,,,,,,,,,,,,,,,,,,,,,,,,,,,,,
0,39,39,10,1,,5ebeb4d5c03b440f47f505fc,62c539eca9e5fb366c1df9a8,2022-07-06_10h32.17.303,Colour_Asymmetry_Pilot,2022.1.3,Win32,60.09254252,62c50e9c1127f2cd403a315f,,,,,,,,,,,,,,,,,,,,,,,,,,,,,,,,,,,,,,,,,,,,,,,,,,,,,,,,,,,,,,,,,,,,,,,,,,,,,,,,,,,,,,,,,,,,,,,,,,,,,,,,,,,,,,,,,,,,,,,,,,,,,,,,,,,,,,,,,,,,,,,,,,,,,,,,,,,,,,,,,,,
0,40,40,66,1,,5ebeb4d5c03b440f47f505fc,62c539eca9e5fb366c1df9a8,2022-07-06_10h32.17.303,Colour_Asymmetry_Pilot,2022.1.3,Win32,60.09254252,62c50e9c1127f2cd403a315f,,,,,,,,,,,,,,,,,,,,,,,,,,,,,,,,,,,,,,,,,,,,,,,,,,,,,,,,,,,,,,,,,,,,,,,,,,,,,,,,,,,,,,,,,,,,,,,,,,,,,,,,,,,,,,,,,,,,,,,,,,,,,,,,,,,,,,,,,,,,,,,,,,,,,,,,,,,,,,,,,,,
0,41,41,86,1,,5ebeb4d5c03b440f47f505fc,62c539eca9e5fb366c1df9a8,2022-07-06_10h32.17.303,Colour_Asymmetry_Pilot,2022.1.3,Win32,60.09254252,62c50e9c1127f2cd403a315f,,,,,,,,,,,,,,,,,,,,,,,,,,,,,,,,,,,,,,,,,,,,,,,,,,,,,,,,,,,,,,,,,,,,,,,,,,,,,,,,,,,,,,,,,,,,,,,,,,,,,,,,,,,,,,,,,,,,,,,,,,,,,,,,,,,,,,,,,,,,,,,,,,,,,,,,,,,,,,,,,,,
0,42,42,44,1,,5ebeb4d5c03b440f47f505fc,62c539eca9e5fb366c1df9a8,2022-07-06_10h32.17.303,Colour_Asymmetry_Pilot,2022.1.3,Win32,60.09254252,62c50e9c1127f2cd403a315f,,,,,,,,,,,,,,,,,,,,,,,,,,,,,,,,,,,,,,,,,,,,,,,,,,,,,,,,,,,,,,,,,,,,,,,,,,,,,,,,,,,,,,,,,,,,,,,,,,,,,,,,,,,,,,,,,,,,,,,,,,,,,,,,,,,,,,,,,,,,,,,,,,,,,,,,,,,,,,,,,,,
0,43,43,64,1,,5ebeb4d5c03b440f47f505fc,62c539eca9e5fb366c1df9a8,2022-07-06_10h32.17.303,Colour_Asymmetry_Pilot,2022.1.3,Win32,60.09254252,62c50e9c1127f2cd403a315f,,,,,,,,,,,,,,,,,,,,,,,,,,,,,,,,,,,,,,,,,,,,,,,,,,,,,,,,,,,,,,,,,,,,,,,,,,,,,,,,,,,,,,,,,,,,,,,,,,,,,,,,,,,,,,,,,,,,,,,,,,,,,,,,,,,,,,,,,,,,,,,,,,,,,,,,,,,,,,,,,,,
0,44,44,82,1,,5ebeb4d5c03b440f47f505fc,62c539eca9e5fb366c1df9a8,2022-07-06_10h32.17.303,Colour_Asymmetry_Pilot,2022.1.3,Win32,60.09254252,62c50e9c1127f2cd403a315f,,,,,,,,,,,,,,,,,,,,,,,,,,,,,,,,,,,,,,,,,,,,,,,,,,,,,,,,,,,,,,,,,,,,,,,,,,,,,,,,,,,,,,,,,,,,,,,,,,,,,,,,,,,,,,,,,,,,,,,,,,,,,,,,,,,,,,,,,,,,,,,,,,,,,,,,,,,,,,,,,,,
0,45,45,84,1,,5ebeb4d5c03b440f47f505fc,62c539eca9e5fb366c1df9a8,2022-07-06_10h32.17.303,Colour_Asymmetry_Pilot,2022.1.3,Win32,60.09254252,62c50e9c1127f2cd403a315f,,,,,,,,,,,,,,,,,,,,,,,,,,,,,,,,,,,,,,,,,,,,,,,,,,,,,,,,,,,,,,,,,,,,,,,,,,,,,,,,,,,,,,,,,,,,,,,,,,,,,,,,,,,,,,,,,,,,,,,,,,,,,,,,,,,,,,,,,,,,,,,,,,,,,,,,,,,,,,,,,,,
0,46,46,30,1,,5ebeb4d5c03b440f47f505fc,62c539eca9e5fb366c1df9a8,2022-07-06_10h32.17.303,Colour_Asymmetry_Pilot,2022.1.3,Win32,60.09254252,62c50e9c1127f2cd403a315f,,,,,,,,,,,,,,,,,,,,,,,,,,,,,,,,,,,,,,,,,,,,,,,,,,,,,,,,,,,,,,,,,,,,,,,,,,,,,,,,,,,,,,,,,,,,,,,,,,,,,,,,,,,,,,,,,,,,,,,,,,,,,,,,,,,,,,,,,,,,,,,,,,,,,,,,,,,,,,,,,,,
0,47,47,40,1,,5ebeb4d5c03b440f47f505fc,62c539eca9e5fb366c1df9a8,2022-07-06_10h32.17.303,Colour_Asymmetry_Pilot,2022.1.3,Win32,60.09254252,62c50e9c1127f2cd403a315f,,,,,,,,,,,,,,,,,,,,,,,,,,,,,,,,,,,,,,,,,,,,,,,,,,,,,,,,,,,,,,,,,,,,,,,,,,,,,,,,,,,,,,,,,,,,,,,,,,,,,,,,,,,,,,,,,,,,,,,,,,,,,,,,,,,,,,,,,,,,,,,,,,,,,,,,,,,,,,,,,,,
0,48,48,16,1,,5ebeb4d5c03b440f47f505fc,62c539eca9e5fb366c1df9a8,2022-07-06_10h32.17.303,Colour_Asymmetry_Pilot,2022.1.3,Win32,60.09254252,62c50e9c1127f2cd403a315f,,,,,,,,,,,,,,,,,,,,,,,,,,,,,,,,,,,,,,,,,,,,,,,,,,,,,,,,,,,,,,,,,,,,,,,,,,,,,,,,,,,,,,,,,,,,,,,,,,,,,,,,,,,,,,,,,,,,,,,,,,,,,,,,,,,,,,,,,,,,,,,,,,,,,,,,,,,,,,,,,,,
0,49,49,3,1,,5ebeb4d5c03b440f47f505fc,62c539eca9e5fb366c1df9a8,2022-07-06_10h32.17.303,Colour_Asymmetry_Pilot,2022.1.3,Win32,60.09254252,62c50e9c1127f2cd403a315f,,,,,,,,,,,,,,,,,,,,,,,,,,,,,,,,,,,,,,,,,,,,,,,,,,,,,,,,,,,,,,,,,,,,,,,,,,,,,,,,,,,,,,,,,,,,,,,,,,,,,,,,,,,,,,,,,,,,,,,,,,,,,,,,,,,,,,,,,,,,,,,,,,,,,,,,,,,,,,,,,,,
0,50,50,62,1,,5ebeb4d5c03b440f47f505fc,62c539eca9e5fb366c1df9a8,2022-07-06_10h32.17.303,Colour_Asymmetry_Pilot,2022.1.3,Win32,60.09254252,62c50e9c1127f2cd403a315f,,,,,,,,,,,,,,,,,,,,,,,,,,,,,,,,,,,,,,,,,,,,,,,,,,,,,,,,,,,,,,,,,,,,,,,,,,,,,,,,,,,,,,,,,,,,,,,,,,,,,,,,,,,,,,,,,,,,,,,,,,,,,,,,,,,,,,,,,,,,,,,,,,,,,,,,,,,,,,,,,,,
0,51,51,58,1,,5ebeb4d5c03b440f47f505fc,62c539eca9e5fb366c1df9a8,2022-07-06_10h32.17.303,Colour_Asymmetry_Pilot,2022.1.3,Win32,60.09254252,62c50e9c1127f2cd403a315f,,,,,,,,,,,,,,,,,,,,,,,,,,,,,,,,,,,,,,,,,,,,,,,,,,,,,,,,,,,,,,,,,,,,,,,,,,,,,,,,,,,,,,,,,,,,,,,,,,,,,,,,,,,,,,,,,,,,,,,,,,,,,,,,,,,,,,,,,,,,,,,,,,,,,,,,,,,,,,,,,,,
0,52,52,41,1,,5ebeb4d5c03b440f47f505fc,62c539eca9e5fb366c1df9a8,2022-07-06_10h32.17.303,Colour_Asymmetry_Pilot,2022.1.3,Win32,60.09254252,62c50e9c1127f2cd403a315f,,,,,,,,,,,,,,,,,,,,,,,,,,,,,,,,,,,,,,,,,,,,,,,,,,,,,,,,,,,,,,,,,,,,,,,,,,,,,,,,,,,,,,,,,,,,,,,,,,,,,,,,,,,,,,,,,,,,,,,,,,,,,,,,,,,,,,,,,,,,,,,,,,,,,,,,,,,,,,,,,,,
0,53,53,23,1,,5ebeb4d5c03b440f47f505fc,62c539eca9e5fb366c1df9a8,2022-07-06_10h32.17.303,Colour_Asymmetry_Pilot,2022.1.3,Win32,60.09254252,62c50e9c1127f2cd403a315f,,,,,,,,,,,,,,,,,,,,,,,,,,,,,,,,,,,,,,,,,,,,,,,,,,,,,,,,,,,,,,,,,,,,,,,,,,,,,,,,,,,,,,,,,,,,,,,,,,,,,,,,,,,,,,,,,,,,,,,,,,,,,,,,,,,,,,,,,,,,,,,,,,,,,,,,,,,,,,,,,,,
0,54,54,52,1,,5ebeb4d5c03b440f47f505fc,62c539eca9e5fb366c1df9a8,2022-07-06_10h32.17.303,Colour_Asymmetry_Pilot,2022.1.3,Win32,60.09254252,62c50e9c1127f2cd403a315f,,,,,,,,,,,,,,,,,,,,,,,,,,,,,,,,,,,,,,,,,,,,,,,,,,,,,,,,,,,,,,,,,,,,,,,,,,,,,,,,,,,,,,,,,,,,,,,,,,,,,,,,,,,,,,,,,,,,,,,,,,,,,,,,,,,,,,,,,,,,,,,,,,,,,,,,,,,,,,,,,,,
0,55,55,71,1,,5ebeb4d5c03b440f47f505fc,62c539eca9e5fb366c1df9a8,2022-07-06_10h32.17.303,Colour_Asymmetry_Pilot,2022.1.3,Win32,60.09254252,62c50e9c1127f2cd403a315f,,,,,,,,,,,,,,,,,,,,,,,,,,,,,,,,,,,,,,,,,,,,,,,,,,,,,,,,,,,,,,,,,,,,,,,,,,,,,,,,,,,,,,,,,,,,,,,,,,,,,,,,,,,,,,,,,,,,,,,,,,,,,,,,,,,,,,,,,,,,,,,,,,,,,,,,,,,,,,,,,,,
0,56,56,21,1,,5ebeb4d5c03b440f47f505fc,62c539eca9e5fb366c1df9a8,2022-07-06_10h32.17.303,Colour_Asymmetry_Pilot,2022.1.3,Win32,60.09254252,62c50e9c1127f2cd403a315f,,,,,,,,,,,,,,,,,,,,,,,,,,,,,,,,,,,,,,,,,,,,,,,,,,,,,,,,,,,,,,,,,,,,,,,,,,,,,,,,,,,,,,,,,,,,,,,,,,,,,,,,,,,,,,,,,,,,,,,,,,,,,,,,,,,,,,,,,,,,,,,,,,,,,,,,,,,,,,,,,,,
0,57,57,4,1,,5ebeb4d5c03b440f47f505fc,62c539eca9e5fb366c1df9a8,2022-07-06_10h32.17.303,Colour_Asymmetry_Pilot,2022.1.3,Win32,60.09254252,62c50e9c1127f2cd403a315f,,,,,,,,,,,,,,,,,,,,,,,,,,,,,,,,,,,,,,,,,,,,,,,,,,,,,,,,,,,,,,,,,,,,,,,,,,,,,,,,,,,,,,,,,,,,,,,,,,,,,,,,,,,,,,,,,,,,,,,,,,,,,,,,,,,,,,,,,,,,,,,,,,,,,,,,,,,,,,,,,,,
0,58,58,78,1,,5ebeb4d5c03b440f47f505fc,62c539eca9e5fb366c1df9a8,2022-07-06_10h32.17.303,Colour_Asymmetry_Pilot,2022.1.3,Win32,60.09254252,62c50e9c1127f2cd403a315f,,,,,,,,,,,,,,,,,,,,,,,,,,,,,,,,,,,,,,,,,,,,,,,,,,,,,,,,,,,,,,,,,,,,,,,,,,,,,,,,,,,,,,,,,,,,,,,,,,,,,,,,,,,,,,,,,,,,,,,,,,,,,,,,,,,,,,,,,,,,,,,,,,,,,,,,,,,,,,,,,,,
0,59,59,39,1,,5ebeb4d5c03b440f47f505fc,62c539eca9e5fb366c1df9a8,2022-07-06_10h32.17.303,Colour_Asymmetry_Pilot,2022.1.3,Win32,60.09254252,62c50e9c1127f2cd403a315f,,,,,,,,,,,,,,,,,,,,,,,,,,,,,,,,,,,,,,,,,,,,,,,,,,,,,,,,,,,,,,,,,,,,,,,,,,,,,,,,,,,,,,,,,,,,,,,,,,,,,,,,,,,,,,,,,,,,,,,,,,,,,,,,,,,,,,,,,,,,,,,,,,,,,,,,,,,,,,,,,,,
0,60,60,5,1,,5ebeb4d5c03b440f47f505fc,62c539eca9e5fb366c1df9a8,2022-07-06_10h32.17.303,Colour_Asymmetry_Pilot,2022.1.3,Win32,60.09254252,62c50e9c1127f2cd403a315f,,,,,,,,,,,,,,,,,,,,,,,,,,,,,,,,,,,,,,,,,,,,,,,,,,,,,,,,,,,,,,,,,,,,,,,,,,,,,,,,,,,,,,,,,,,,,,,,,,,,,,,,,,,,,,,,,,,,,,,,,,,,,,,,,,,,,,,,,,,,,,,,,,,,,,,,,,,,,,,,,,,
0,61,61,42,1,,5ebeb4d5c03b440f47f505fc,62c539eca9e5fb366c1df9a8,2022-07-06_10h32.17.303,Colour_Asymmetry_Pilot,2022.1.3,Win32,60.09254252,62c50e9c1127f2cd403a315f,,,,,,,,,,,,,,,,,,,,,,,,,,,,,,,,,,,,,,,,,,,,,,,,,,,,,,,,,,,,,,,,,,,,,,,,,,,,,,,,,,,,,,,,,,,,,,,,,,,,,,,,,,,,,,,,,,,,,,,,,,,,,,,,,,,,,,,,,,,,,,,,,,,,,,,,,,,,,,,,,,,
0,62,62,48,1,,5ebeb4d5c03b440f47f505fc,62c539eca9e5fb366c1df9a8,2022-07-06_10h32.17.303,Colour_Asymmetry_Pilot,2022.1.3,Win32,60.09254252,62c50e9c1127f2cd403a315f,,,,,,,,,,,,,,,,,,,,,,,,,,,,,,,,,,,,,,,,,,,,,,,,,,,,,,,,,,,,,,,,,,,,,,,,,,,,,,,,,,,,,,,,,,,,,,,,,,,,,,,,,,,,,,,,,,,,,,,,,,,,,,,,,,,,,,,,,,,,,,,,,,,,,,,,,,,,,,,,,,,
0,63,63,59,1,,5ebeb4d5c03b440f47f505fc,62c539eca9e5fb366c1df9a8,2022-07-06_10h32.17.303,Colour_Asymmetry_Pilot,2022.1.3,Win32,60.09254252,62c50e9c1127f2cd403a315f,,,,,,,,,,,,,,,,,,,,,,,,,,,,,,,,,,,,,,,,,,,,,,,,,,,,,,,,,,,,,,,,,,,,,,,,,,,,,,,,,,,,,,,,,,,,,,,,,,,,,,,,,,,,,,,,,,,,,,,,,,,,,,,,,,,,,,,,,,,,,,,,,,,,,,,,,,,,,,,,,,,
0,64,64,83,1,,5ebeb4d5c03b440f47f505fc,62c539eca9e5fb366c1df9a8,2022-07-06_10h32.17.303,Colour_Asymmetry_Pilot,2022.1.3,Win32,60.09254252,62c50e9c1127f2cd403a315f,,,,,,,,,,,,,,,,,,,,,,,,,,,,,,,,,,,,,,,,,,,,,,,,,,,,,,,,,,,,,,,,,,,,,,,,,,,,,,,,,,,,,,,,,,,,,,,,,,,,,,,,,,,,,,,,,,,,,,,,,,,,,,,,,,,,,,,,,,,,,,,,,,,,,,,,,,,,,,,,,,,
0,65,65,89,1,,5ebeb4d5c03b440f47f505fc,62c539eca9e5fb366c1df9a8,2022-07-06_10h32.17.303,Colour_Asymmetry_Pilot,2022.1.3,Win32,60.09254252,62c50e9c1127f2cd403a315f,,,,,,,,,,,,,,,,,,,,,,,,,,,,,,,,,,,,,,,,,,,,,,,,,,,,,,,,,,,,,,,,,,,,,,,,,,,,,,,,,,,,,,,,,,,,,,,,,,,,,,,,,,,,,,,,,,,,,,,,,,,,,,,,,,,,,,,,,,,,,,,,,,,,,,,,,,,,,,,,,,,
0,66,66,47,1,,5ebeb4d5c03b440f47f505fc,62c539eca9e5fb366c1df9a8,2022-07-06_10h32.17.303,Colour_Asymmetry_Pilot,2022.1.3,Win32,60.09254252,62c50e9c1127f2cd403a315f,,,,,,,,,,,,,,,,,,,,,,,,,,,,,,,,,,,,,,,,,,,,,,,,,,,,,,,,,,,,,,,,,,,,,,,,,,,,,,,,,,,,,,,,,,,,,,,,,,,,,,,,,,,,,,,,,,,,,,,,,,,,,,,,,,,,,,,,,,,,,,,,,,,,,,,,,,,,,,,,,,,
0,67,67,34,1,,5ebeb4d5c03b440f47f505fc,62c539eca9e5fb366c1df9a8,2022-07-06_10h32.17.303,Colour_Asymmetry_Pilot,2022.1.3,Win32,60.09254252,62c50e9c1127f2cd403a315f,,,,,,,,,,,,,,,,,,,,,,,,,,,,,,,,,,,,,,,,,,,,,,,,,,,,,,,,,,,,,,,,,,,,,,,,,,,,,,,,,,,,,,,,,,,,,,,,,,,,,,,,,,,,,,,,,,,,,,,,,,,,,,,,,,,,,,,,,,,,,,,,,,,,,,,,,,,,,,,,,,,
0,68,68,63,1,,5ebeb4d5c03b440f47f505fc,62c539eca9e5fb366c1df9a8,2022-07-06_10h32.17.303,Colour_Asymmetry_Pilot,2022.1.3,Win32,60.09254252,62c50e9c1127f2cd403a315f,,,,,,,,,,,,,,,,,,,,,,,,,,,,,,,,,,,,,,,,,,,,,,,,,,,,,,,,,,,,,,,,,,,,,,,,,,,,,,,,,,,,,,,,,,,,,,,,,,,,,,,,,,,,,,,,,,,,,,,,,,,,,,,,,,,,,,,,,,,,,,,,,,,,,,,,,,,,,,,,,,,
0,69,69,29,1,,5ebeb4d5c03b440f47f505fc,62c539eca9e5fb366c1df9a8,2022-07-06_10h32.17.303,Colour_Asymmetry_Pilot,2022.1.3,Win32,60.09254252,62c50e9c1127f2cd403a315f,,,,,,,,,,,,,,,,,,,,,,,,,,,,,,,,,,,,,,,,,,,,,,,,,,,,,,,,,,,,,,,,,,,,,,,,,,,,,,,,,,,,,,,,,,,,,,,,,,,,,,,,,,,,,,,,,,,,,,,,,,,,,,,,,,,,,,,,,,,,,,,,,,,,,,,,,,,,,,,,,,,
0,70,70,8,1,,5ebeb4d5c03b440f47f505fc,62c539eca9e5fb366c1df9a8,2022-07-06_10h32.17.303,Colour_Asymmetry_Pilot,2022.1.3,Win32,60.09254252,62c50e9c1127f2cd403a315f,,,,,,,,,,,,,,,,,,,,,,,,,,,,,,,,,,,,,,,,,,,,,,,,,,,,,,,,,,,,,,,,,,,,,,,,,,,,,,,,,,,,,,,,,,,,,,,,,,,,,,,,,,,,,,,,,,,,,,,,,,,,,,,,,,,,,,,,,,,,,,,,,,,,,,,,,,,,,,,,,,,
0,71,71,38,1,,5ebeb4d5c03b440f47f505fc,62c539eca9e5fb366c1df9a8,2022-07-06_10h32.17.303,Colour_Asymmetry_Pilot,2022.1.3,Win32,60.09254252,62c50e9c1127f2cd403a315f,,,,,,,,,,,,,,,,,,,,,,,,,,,,,,,,,,,,,,,,,,,,,,,,,,,,,,,,,,,,,,,,,,,,,,,,,,,,,,,,,,,,,,,,,,,,,,,,,,,,,,,,,,,,,,,,,,,,,,,,,,,,,,,,,,,,,,,,,,,,,,,,,,,,,,,,,,,,,,,,,,,
0,72,72,31,1,,5ebeb4d5c03b440f47f505fc,62c539eca9e5fb366c1df9a8,2022-07-06_10h32.17.303,Colour_Asymmetry_Pilot,2022.1.3,Win32,60.09254252,62c50e9c1127f2cd403a315f,,,,,,,,,,,,,,,,,,,,,,,,,,,,,,,,,,,,,,,,,,,,,,,,,,,,,,,,,,,,,,,,,,,,,,,,,,,,,,,,,,,,,,,,,,,,,,,,,,,,,,,,,,,,,,,,,,,,,,,,,,,,,,,,,,,,,,,,,,,,,,,,,,,,,,,,,,,,,,,,,,,
0,73,73,87,1,,5ebeb4d5c03b440f47f505fc,62c539eca9e5fb366c1df9a8,2022-07-06_10h32.17.303,Colour_Asymmetry_Pilot,2022.1.3,Win32,60.09254252,62c50e9c1127f2cd403a315f,,,,,,,,,,,,,,,,,,,,,,,,,,,,,,,,,,,,,,,,,,,,,,,,,,,,,,,,,,,,,,,,,,,,,,,,,,,,,,,,,,,,,,,,,,,,,,,,,,,,,,,,,,,,,,,,,,,,,,,,,,,,,,,,,,,,,,,,,,,,,,,,,,,,,,,,,,,,,,,,,,,
0,74,74,14,1,,5ebeb4d5c03b440f47f505fc,62c539eca9e5fb366c1df9a8,2022-07-06_10h32.17.303,Colour_Asymmetry_Pilot,2022.1.3,Win32,60.09254252,62c50e9c1127f2cd403a315f,,,,,,,,,,,,,,,,,,,,,,,,,,,,,,,,,,,,,,,,,,,,,,,,,,,,,,,,,,,,,,,,,,,,,,,,,,,,,,,,,,,,,,,,,,,,,,,,,,,,,,,,,,,,,,,,,,,,,,,,,,,,,,,,,,,,,,,,,,,,,,,,,,,,,,,,,,,,,,,,,,,
0,75,75,55,1,,5ebeb4d5c03b440f47f505fc,62c539eca9e5fb366c1df9a8,2022-07-06_10h32.17.303,Colour_Asymmetry_Pilot,2022.1.3,Win32,60.09254252,62c50e9c1127f2cd403a315f,,,,,,,,,,,,,,,,,,,,,,,,,,,,,,,,,,,,,,,,,,,,,,,,,,,,,,,,,,,,,,,,,,,,,,,,,,,,,,,,,,,,,,,,,,,,,,,,,,,,,,,,,,,,,,,,,,,,,,,,,,,,,,,,,,,,,,,,,,,,,,,,,,,,,,,,,,,,,,,,,,,
0,76,76,46,1,,5ebeb4d5c03b440f47f505fc,62c539eca9e5fb366c1df9a8,2022-07-06_10h32.17.303,Colour_Asymmetry_Pilot,2022.1.3,Win32,60.09254252,62c50e9c1127f2cd403a315f,,,,,,,,,,,,,,,,,,,,,,,,,,,,,,,,,,,,,,,,,,,,,,,,,,,,,,,,,,,,,,,,,,,,,,,,,,,,,,,,,,,,,,,,,,,,,,,,,,,,,,,,,,,,,,,,,,,,,,,,,,,,,,,,,,,,,,,,,,,,,,,,,,,,,,,,,,,,,,,,,,,
0,77,77,19,1,,5ebeb4d5c03b440f47f505fc,62c539eca9e5fb366c1df9a8,2022-07-06_10h32.17.303,Colour_Asymmetry_Pilot,2022.1.3,Win32,60.09254252,62c50e9c1127f2cd403a315f,,,,,,,,,,,,,,,,,,,,,,,,,,,,,,,,,,,,,,,,,,,,,,,,,,,,,,,,,,,,,,,,,,,,,,,,,,,,,,,,,,,,,,,,,,,,,,,,,,,,,,,,,,,,,,,,,,,,,,,,,,,,,,,,,,,,,,,,,,,,,,,,,,,,,,,,,,,,,,,,,,,
0,78,78,7,1,,5ebeb4d5c03b440f47f505fc,62c539eca9e5fb366c1df9a8,2022-07-06_10h32.17.303,Colour_Asymmetry_Pilot,2022.1.3,Win32,60.09254252,62c50e9c1127f2cd403a315f,,,,,,,,,,,,,,,,,,,,,,,,,,,,,,,,,,,,,,,,,,,,,,,,,,,,,,,,,,,,,,,,,,,,,,,,,,,,,,,,,,,,,,,,,,,,,,,,,,,,,,,,,,,,,,,,,,,,,,,,,,,,,,,,,,,,,,,,,,,,,,,,,,,,,,,,,,,,,,,,,,,
0,79,79,11,1,,5ebeb4d5c03b440f47f505fc,62c539eca9e5fb366c1df9a8,2022-07-06_10h32.17.303,Colour_Asymmetry_Pilot,2022.1.3,Win32,60.09254252,62c50e9c1127f2cd403a315f,,,,,,,,,,,,,,,,,,,,,,,,,,,,,,,,,,,,,,,,,,,,,,,,,,,,,,,,,,,,,,,,,,,,,,,,,,,,,,,,,,,,,,,,,,,,,,,,,,,,,,,,,,,,,,,,,,,,,,,,,,,,,,,,,,,,,,,,,,,,,,,,,,,,,,,,,,,,,,,,,,,
0,80,80,49,1,,5ebeb4d5c03b440f47f505fc,62c539eca9e5fb366c1df9a8,2022-07-06_10h32.17.303,Colour_Asymmetry_Pilot,2022.1.3,Win32,60.09254252,62c50e9c1127f2cd403a315f,,,,,,,,,,,,,,,,,,,,,,,,,,,,,,,,,,,,,,,,,,,,,,,,,,,,,,,,,,,,,,,,,,,,,,,,,,,,,,,,,,,,,,,,,,,,,,,,,,,,,,,,,,,,,,,,,,,,,,,,,,,,,,,,,,,,,,,,,,,,,,,,,,,,,,,,,,,,,,,,,,,
0,81,81,51,1,,5ebeb4d5c03b440f47f505fc,62c539eca9e5fb366c1df9a8,2022-07-06_10h32.17.303,Colour_Asymmetry_Pilot,2022.1.3,Win32,60.09254252,62c50e9c1127f2cd403a315f,,,,,,,,,,,,,,,,,,,,,,,,,,,,,,,,,,,,,,,,,,,,,,,,,,,,,,,,,,,,,,,,,,,,,,,,,,,,,,,,,,,,,,,,,,,,,,,,,,,,,,,,,,,,,,,,,,,,,,,,,,,,,,,,,,,,,,,,,,,,,,,,,,,,,,,,,,,,,,,,,,,
0,82,82,36,1,,5ebeb4d5c03b440f47f505fc,62c539eca9e5fb366c1df9a8,2022-07-06_10h32.17.303,Colour_Asymmetry_Pilot,2022.1.3,Win32,60.09254252,62c50e9c1127f2cd403a315f,,,,,,,,,,,,,,,,,,,,,,,,,,,,,,,,,,,,,,,,,,,,,,,,,,,,,,,,,,,,,,,,,,,,,,,,,,,,,,,,,,,,,,,,,,,,,,,,,,,,,,,,,,,,,,,,,,,,,,,,,,,,,,,,,,,,,,,,,,,,,,,,,,,,,,,,,,,,,,,,,,,
0,83,83,76,1,,5ebeb4d5c03b440f47f505fc,62c539eca9e5fb366c1df9a8,2022-07-06_10h32.17.303,Colour_Asymmetry_Pilot,2022.1.3,Win32,60.09254252,62c50e9c1127f2cd403a315f,,,,,,,,,,,,,,,,,,,,,,,,,,,,,,,,,,,,,,,,,,,,,,,,,,,,,,,,,,,,,,,,,,,,,,,,,,,,,,,,,,,,,,,,,,,,,,,,,,,,,,,,,,,,,,,,,,,,,,,,,,,,,,,,,,,,,,,,,,,,,,,,,,,,,,,,,,,,,,,,,,,
0,84,84,60,1,,5ebeb4d5c03b440f47f505fc,62c539eca9e5fb366c1df9a8,2022-07-06_10h32.17.303,Colour_Asymmetry_Pilot,2022.1.3,Win32,60.09254252,62c50e9c1127f2cd403a315f,,,,,,,,,,,,,,,,,,,,,,,,,,,,,,,,,,,,,,,,,,,,,,,,,,,,,,,,,,,,,,,,,,,,,,,,,,,,,,,,,,,,,,,,,,,,,,,,,,,,,,,,,,,,,,,,,,,,,,,,,,,,,,,,,,,,,,,,,,,,,,,,,,,,,,,,,,,,,,,,,,,
0,85,85,18,1,,5ebeb4d5c03b440f47f505fc,62c539eca9e5fb366c1df9a8,2022-07-06_10h32.17.303,Colour_Asymmetry_Pilot,2022.1.3,Win32,60.09254252,62c50e9c1127f2cd403a315f,,,,,,,,,,,,,,,,,,,,,,,,,,,,,,,,,,,,,,,,,,,,,,,,,,,,,,,,,,,,,,,,,,,,,,,,,,,,,,,,,,,,,,,,,,,,,,,,,,,,,,,,,,,,,,,,,,,,,,,,,,,,,,,,,,,,,,,,,,,,,,,,,,,,,,,,,,,,,,,,,,,
0,86,86,6,1,,5ebeb4d5c03b440f47f505fc,62c539eca9e5fb366c1df9a8,2022-07-06_10h32.17.303,Colour_Asymmetry_Pilot,2022.1.3,Win32,60.09254252,62c50e9c1127f2cd403a315f,,,,,,,,,,,,,,,,,,,,,,,,,,,,,,,,,,,,,,,,,,,,,,,,,,,,,,,,,,,,,,,,,,,,,,,,,,,,,,,,,,,,,,,,,,,,,,,,,,,,,,,,,,,,,,,,,,,,,,,,,,,,,,,,,,,,,,,,,,,,,,,,,,,,,,,,,,,,,,,,,,,
0,87,87,61,1,,5ebeb4d5c03b440f47f505fc,62c539eca9e5fb366c1df9a8,2022-07-06_10h32.17.303,Colour_Asymmetry_Pilot,2022.1.3,Win32,60.09254252,62c50e9c1127f2cd403a315f,,,,,,,,,,,,,,,,,,,,,,,,,,,,,,,,,,,,,,,,,,,,,,,,,,,,,,,,,,,,,,,,,,,,,,,,,,,,,,,,,,,,,,,,,,,,,,,,,,,,,,,,,,,,,,,,,,,,,,,,,,,,,,,,,,,,,,,,,,,,,,,,,,,,,,,,,,,,,,,,,,,
0,88,88,43,1,,5ebeb4d5c03b440f47f505fc,62c539eca9e5fb366c1df9a8,2022-07-06_10h32.17.303,Colour_Asymmetry_Pilot,2022.1.3,Win32,60.09254252,62c50e9c1127f2cd403a315f,,,,,,,,,,,,,,,,,,,,,,,,,,,,,,,,,,,,,,,,,,,,,,,,,,,,,,,,,,,,,,,,,,,,,,,,,,,,,,,,,,,,,,,,,,,,,,,,,,,,,,,,,,,,,,,,,,,,,,,,,,,,,,,,,,,,,,,,,,,,,,,,,,,,,,,,,,,,,,,,,,,
0,89,89,37,1,,5ebeb4d5c03b440f47f505fc,62c539eca9e5fb366c1df9a8,2022-07-06_10h32.17.303,Colour_Asymmetry_Pilot,2022.1.3,Win32,60.09254252,62c50e9c1127f2cd403a315f,,,,,,,,,,,,,,,,,,,,,,,,,,,,,,,,,,,,,,,,,,,,,,,,,,,,,,,,,,,,,,,,,,,,,,,,,,,,,,,,,,,,,,,,,,,,,,,,,,,,,,,,,,,,,,,,,,,,,,,,,,,,,,,,,,,,,,,,,,,,,,,,,,,,,,,,,,,,,,,,,,,
0,90,90,20,1,,5ebeb4d5c03b440f47f505fc,62c539eca9e5fb366c1df9a8,2022-07-06_10h32.17.303,Colour_Asymmetry_Pilot,2022.1.3,Win32,60.09254252,62c50e9c1127f2cd403a315f,,,,,,,,,,,,,,,,,,,,,,,,,,,,,,,,,,,,,,,,,,,,,,,,,,,,,,,,,,,,,,,,,,,,,,,,,,,,,,,,,,,,,,,,,,,,,,,,,,,,,,,,,,,,,,,,,,,,,,,,,,,,,,,,,,,,,,,,,,,,,,,,,,,,,,,,,,,,,,,,,,,
0,91,91,15,1,,5ebeb4d5c03b440f47f505fc,62c539eca9e5fb366c1df9a8,2022-07-06_10h32.17.303,Colour_Asymmetry_Pilot,2022.1.3,Win32,60.09254252,62c50e9c1127f2cd403a315f,,,,,,,,,,,,,,,,,,,,,,,,,,,,,,,,,,,,,,,,,,,,,,,,,,,,,,,,,,,,,,,,,,,,,,,,,,,,,,,,,,,,,,,,,,,,,,,,,,,,,,,,,,,,,,,,,,,,,,,,,,,,,,,,,,,,,,,,,,,,,,,,,,,,,,,,,,,,,,,,,,,
0,92,92,50,1,,5ebeb4d5c03b440f47f505fc,62c539eca9e5fb366c1df9a8,2022-07-06_10h32.17.303,Colour_Asymmetry_Pilot,2022.1.3,Win32,60.09254252,62c50e9c1127f2cd403a315f,,,,,,,,,,,,,,,,,,,,,,,,,,,,,,,,,,,,,,,,,,,,,,,,,,,,,,,,,,,,,,,,,,,,,,,,,,,,,,,,,,,,,,,,,,,,,,,,,,,,,,,,,,,,,,,,,,,,,,,,,,,,,,,,,,,,,,,,,,,,,,,,,,,,,,,,,,,,,,,,,,,
,,,,,,5ebeb4d5c03b440f47f505fc,62c539eca9e5fb366c1df9a8,2022-07-06_10h32.17.303,Colour_Asymmetry_Pilot,2022.1.3,Win32,60.09254252,62c50e9c1127f2cd403a315f,0,0,0,54,1,fourtwo,,,,,,,,,,,,,,,,,,,,,,,,,,,,,,,,,,,,,,,,,,,,,,,,,,,,,,,,,,,,,,,,,,,,,,,,,,,,,,,,,,,,,,,,,,,,,,,,,,,,,,,,,,,,,,,,,,,,,,,,,,,,,,,,,,,,,,,,,,,,,,,,,,,,,,,,,,,,,
,,,,,,5ebeb4d5c03b440f47f505fc,62c539eca9e5fb366c1df9a8,2022-07-06_10h32.17.303,Colour_Asymmetry_Pilot,2022.1.3,Win32,60.09254252,62c50e9c1127f2cd403a315f,0,1,1,134,1,fourtwo,,,,,,,,,,,,,,,,,,,,,,,,,,,,,,,,,,,,,,,,,,,,,,,,,,,,,,,,,,,,,,,,,,,,,,,,,,,,,,,,,,,,,,,,,,,,,,,,,,,,,,,,,,,,,,,,,,,,,,,,,,,,,,,,,,,,,,,,,,,,,,,,,,,,,,,,,,,,,
,,,,,,5ebeb4d5c03b440f47f505fc,62c539eca9e5fb366c1df9a8,2022-07-06_10h32.17.303,Colour_Asymmetry_Pilot,2022.1.3,Win32,60.09254252,62c50e9c1127f2cd403a315f,0,2,2,115,1,twofour,,,,,,,,,,,,,,,,,,,,,,,,,,,,,,,,,,,,,,,,,,,,,,,,,,,,,,,,,,,,,,,,,,,,,,,,,,,,,,,,,,,,,,,,,,,,,,,,,,,,,,,,,,,,,,,,,,,,,,,,,,,,,,,,,,,,,,,,,,,,,,,,,,,,,,,,,,,,,
,,,,,,5ebeb4d5c03b440f47f505fc,62c539eca9e5fb366c1df9a8,2022-07-06_10h32.17.303,Colour_Asymmetry_Pilot,2022.1.3,Win32,60.09254252,62c50e9c1127f2cd403a315f,0,3,3,102,1,fourtwo,,,,,,,,,,,,,,,,,,,,,,,,,,,,,,,,,,,,,,,,,,,,,,,,,,,,,,,,,,,,,,,,,,,,,,,,,,,,,,,,,,,,,,,,,,,,,,,,,,,,,,,,,,,,,,,,,,,,,,,,,,,,,,,,,,,,,,,,,,,,,,,,,,,,,,,,,,,,,
,,,,,,5ebeb4d5c03b440f47f505fc,62c539eca9e5fb366c1df9a8,2022-07-06_10h32.17.303,Colour_Asymmetry_Pilot,2022.1.3,Win32,60.09254252,62c50e9c1127f2cd403a315f,0,4,4,138,1,twoone,,,,,,,,,,,,,,,,,,,,,,,,,,,,,,,,,,,,,,,,,,,,,,,,,,,,,,,,,,,,,,,,,,,,,,,,,,,,,,,,,,,,,,,,,,,,,,,,,,,,,,,,,,,,,,,,,,,,,,,,,,,,,,,,,,,,,,,,,,,,,,,,,,,,,,,,,,,,,
,,,,,,5ebeb4d5c03b440f47f505fc,62c539eca9e5fb366c1df9a8,2022-07-06_10h32.17.303,Colour_Asymmetry_Pilot,2022.1.3,Win32,60.09254252,62c50e9c1127f2cd403a315f,0,5,5,31,1,fourthree,,,,,,,,,,,,,,,,,,,,,,,,,,,,,,,,,,,,,,,,,,,,,,,,,,,,,,,,,,,,,,,,,,,,,,,,,,,,,,,,,,,,,,,,,,,,,,,,,,,,,,,,,,,,,,,,,,,,,,,,,,,,,,,,,,,,,,,,,,,,,,,,,,,,,,,,,,,,,
,,,,,,5ebeb4d5c03b440f47f505fc,62c539eca9e5fb366c1df9a8,2022-07-06_10h32.17.303,Colour_Asymmetry_Pilot,2022.1.3,Win32,60.09254252,62c50e9c1127f2cd403a315f,0,6,6,112,1,onetwo,,,,,,,,,,,,,,,,,,,,,,,,,,,,,,,,,,,,,,,,,,,,,,,,,,,,,,,,,,,,,,,,,,,,,,,,,,,,,,,,,,,,,,,,,,,,,,,,,,,,,,,,,,,,,,,,,,,,,,,,,,,,,,,,,,,,,,,,,,,,,,,,,,,,,,,,,,,,,
,,,,,,5ebeb4d5c03b440f47f505fc,62c539eca9e5fb366c1df9a8,2022-07-06_10h32.17.303,Colour_Asymmetry_Pilot,2022.1.3,Win32,60.09254252,62c50e9c1127f2cd403a315f,0,7,7,92,1,threeone,,,,,,,,,,,,,,,,,,,,,,,,,,,,,,,,,,,,,,,,,,,,,,,,,,,,,,,,,,,,,,,,,,,,,,,,,,,,,,,,,,,,,,,,,,,,,,,,,,,,,,,,,,,,,,,,,,,,,,,,,,,,,,,,,,,,,,,,,,,,,,,,,,,,,,,,,,,,,
,,,,,,5ebeb4d5c03b440f47f505fc,62c539eca9e5fb366c1df9a8,2022-07-06_10h32.17.303,Colour_Asymmetry_Pilot,2022.1.3,Win32,60.09254252,62c50e9c1127f2cd403a315f,0,8,8,40,1,onetwo,,,,,,,,,,,,,,,,,,,,,,,,,,,,,,,,,,,,,,,,,,,,,,,,,,,,,,,,,,,,,,,,,,,,,,,,,,,,,,,,,,,,,,,,,,,,,,,,,,,,,,,,,,,,,,,,,,,,,,,,,,,,,,,,,,,,,,,,,,,,,,,,,,,,,,,,,,,,,
,,,,,,5ebeb4d5c03b440f47f505fc,62c539eca9e5fb366c1df9a8,2022-07-06_10h32.17.303,Colour_Asymmetry_Pilot,2022.1.3,Win32,60.09254252,62c50e9c1127f2cd403a315f,0,9,9,38,1,fourtwo,,,,,,,,,,,,,,,,,,,,,,,,,,,,,,,,,,,,,,,,,,,,,,,,,,,,,,,,,,,,,,,,,,,,,,,,,,,,,,,,,,,,,,,,,,,,,,,,,,,,,,,,,,,,,,,,,,,,,,,,,,,,,,,,,,,,,,,,,,,,,,,,,,,,,,,,,,,,,
,,,,,,5ebeb4d5c03b440f47f505fc,62c539eca9e5fb366c1df9a8,2022-07-06_10h32.17.303,Colour_Asymmetry_Pilot,2022.1.3,Win32,60.09254252,62c50e9c1127f2cd403a315f,0,10,10,15,1,fourthree,,,,,,,,,,,,,,,,,,,,,,,,,,,,,,,,,,,,,,,,,,,,,,,,,,,,,,,,,,,,,,,,,,,,,,,,,,,,,,,,,,,,,,,,,,,,,,,,,,,,,,,,,,,,,,,,,,,,,,,,,,,,,,,,,,,,,,,,,,,,,,,,,,,,,,,,,,,,,
,,,,,,5ebeb4d5c03b440f47f505fc,62c539eca9e5fb366c1df9a8,2022-07-06_10h32.17.303,Colour_Asymmetry_Pilot,2022.1.3,Win32,60.09254252,62c50e9c1127f2cd403a315f,0,11,11,72,1,onetwo,,,,,,,,,,,,,,,,,,,,,,,,,,,,,,,,,,,,,,,,,,,,,,,,,,,,,,,,,,,,,,,,,,,,,,,,,,,,,,,,,,,,,,,,,,,,,,,,,,,,,,,,,,,,,,,,,,,,,,,,,,,,,,,,,,,,,,,,,,,,,,,,,,,,,,,,,,,,,
,,,,,,5ebeb4d5c03b440f47f505fc,62c539eca9e5fb366c1df9a8,2022-07-06_10h32.17.303,Colour_Asymmetry_Pilot,2022.1.3,Win32,60.09254252,62c50e9c1127f2cd403a315f,0,12,12,5,1,threefour,,,,,,,,,,,,,,,,,,,,,,,,,,,,,,,,,,,,,,,,,,,,,,,,,,,,,,,,,,,,,,,,,,,,,,,,,,,,,,,,,,,,,,,,,,,,,,,,,,,,,,,,,,,,,,,,,,,,,,,,,,,,,,,,,,,,,,,,,,,,,,,,,,,,,,,,,,,,,
,,,,,,5ebeb4d5c03b440f47f505fc,62c539eca9e5fb366c1df9a8,2022-07-06_10h32.17.303,Colour_Asymmetry_Pilot,2022.1.3,Win32,60.09254252,62c50e9c1127f2cd403a315f,0,13,13,66,1,twoone,,,,,,,,,,,,,,,,,,,,,,,,,,,,,,,,,,,,,,,,,,,,,,,,,,,,,,,,,,,,,,,,,,,,,,,,,,,,,,,,,,,,,,,,,,,,,,,,,,,,,,,,,,,,,,,,,,,,,,,,,,,,,,,,,,,,,,,,,,,,,,,,,,,,,,,,,,,,,
,,,,,,5ebeb4d5c03b440f47f505fc,62c539eca9e5fb366c1df9a8,2022-07-06_10h32.17.303,Colour_Asymmetry_Pilot,2022.1.3,Win32,60.09254252,62c50e9c1127f2cd403a315f,0,14,14,107,1,twofour,,,,,,,,,,,,,,,,,,,,,,,,,,,,,,,,,,,,,,,,,,,,,,,,,,,,,,,,,,,,,,,,,,,,,,,,,,,,,,,,,,,,,,,,,,,,,,,,,,,,,,,,,,,,,,,,,,,,,,,,,,,,,,,,,,,,,,,,,,,,,,,,,,,,,,,,,,,,,
,,,,,,5ebeb4d5c03b440f47f505fc,62c539eca9e5fb366c1df9a8,2022-07-06_10h32.17.303,Colour_Asymmetry_Pilot,2022.1.3,Win32,60.09254252,62c50e9c1127f2cd403a315f,0,15,15,133,1,threefour,,,,,,,,,,,,,,,,,,,,,,,,,,,,,,,,,,,,,,,,,,,,,,,,,,,,,,,,,,,,,,,,,,,,,,,,,,,,,,,,,,,,,,,,,,,,,,,,,,,,,,,,,,,,,,,,,,,,,,,,,,,,,,,,,,,,,,,,,,,,,,,,,,,,,,,,,,,,,
,,,,,,5ebeb4d5c03b440f47f505fc,62c539eca9e5fb366c1df9a8,2022-07-06_10h32.17.303,Colour_Asymmetry_Pilot,2022.1.3,Win32,60.09254252,62c50e9c1127f2cd403a315f,0,16,16,98,1,twoone,,,,,,,,,,,,,,,,,,,,,,,,,,,,,,,,,,,,,,,,,,,,,,,,,,,,,,,,,,,,,,,,,,,,,,,,,,,,,,,,,,,,,,,,,,,,,,,,,,,,,,,,,,,,,,,,,,,,,,,,,,,,,,,,,,,,,,,,,,,,,,,,,,,,,,,,,,,,,
,,,,,,5ebeb4d5c03b440f47f505fc,62c539eca9e5fb366c1df9a8,2022-07-06_10h32.17.303,Colour_Asymmetry_Pilot,2022.1.3,Win32,60.09254252,62c50e9c1127f2cd403a315f,0,17,17,56,1,onetwo,,,,,,,,,,,,,,,,,,,,,,,,,,,,,,,,,,,,,,,,,,,,,,,,,,,,,,,,,,,,,,,,,,,,,,,,,,,,,,,,,,,,,,,,,,,,,,,,,,,,,,,,,,,,,,,,,,,,,,,,,,,,,,,,,,,,,,,,,,,,,,,,,,,,,,,,,,,,,
,,,,,,5ebeb4d5c03b440f47f505fc,62c539eca9e5fb366c1df9a8,2022-07-06_10h32.17.303,Colour_Asymmetry_Pilot,2022.1.3,Win32,60.09254252,62c50e9c1127f2cd403a315f,0,18,18,30,1,fourtwo,,,,,,,,,,,,,,,,,,,,,,,,,,,,,,,,,,,,,,,,,,,,,,,,,,,,,,,,,,,,,,,,,,,,,,,,,,,,,,,,,,,,,,,,,,,,,,,,,,,,,,,,,,,,,,,,,,,,,,,,,,,,,,,,,,,,,,,,,,,,,,,,,,,,,,,,,,,,,
,,,,,,5ebeb4d5c03b440f47f505fc,62c539eca9e5fb366c1df9a8,2022-07-06_10h32.17.303,Colour_Asymmetry_Pilot,2022.1.3,Win32,60.09254252,62c50e9c1127f2cd403a315f,0,19,19,4,1,threeone,,,,,,,,,,,,,,,,,,,,,,,,,,,,,,,,,,,,,,,,,,,,,,,,,,,,,,,,,,,,,,,,,,,,,,,,,,,,,,,,,,,,,,,,,,,,,,,,,,,,,,,,,,,,,,,,,,,,,,,,,,,,,,,,,,,,,,,,,,,,,,,,,,,,,,,,,,,,,
,,,,,,5ebeb4d5c03b440f47f505fc,62c539eca9e5fb366c1df9a8,2022-07-06_10h32.17.303,Colour_Asymmetry_Pilot,2022.1.3,Win32,60.09254252,62c50e9c1127f2cd403a315f,0,20,20,67,1,twofour,,,,,,,,,,,,,,,,,,,,,,,,,,,,,,,,,,,,,,,,,,,,,,,,,,,,,,,,,,,,,,,,,,,,,,,,,,,,,,,,,,,,,,,,,,,,,,,,,,,,,,,,,,,,,,,,,,,,,,,,,,,,,,,,,,,,,,,,,,,,,,,,,,,,,,,,,,,,,
,,,,,,5ebeb4d5c03b440f47f505fc,62c539eca9e5fb366c1df9a8,2022-07-06_10h32.17.303,Colour_Asymmetry_Pilot,2022.1.3,Win32,60.09254252,62c50e9c1127f2cd403a315f,0,21,21,122,1,twoone,,,,,,,,,,,,,,,,,,,,,,,,,,,,,,,,,,,,,,,,,,,,,,,,,,,,,,,,,,,,,,,,,,,,,,,,,,,,,,,,,,,,,,,,,,,,,,,,,,,,,,,,,,,,,,,,,,,,,,,,,,,,,,,,,,,,,,,,,,,,,,,,,,,,,,,,,,,,,
,,,,,,5ebeb4d5c03b440f47f505fc,62c539eca9e5fb366c1df9a8,2022-07-06_10h32.17.303,Colour_Asymmetry_Pilot,2022.1.3,Win32,60.09254252,62c50e9c1127f2cd403a315f,0,22,22,90,1,twoone,,,,,,,,,,,,,,,,,,,,,,,,,,,,,,,,,,,,,,,,,,,,,,,,,,,,,,,,,,,,,,,,,,,,,,,,,,,,,,,,,,,,,,,,,,,,,,,,,,,,,,,,,,,,,,,,,,,,,,,,,,,,,,,,,,,,,,,,,,,,,,,,,,,,,,,,,,,,,
,,,,,,5ebeb4d5c03b440f47f505fc,62c539eca9e5fb366c1df9a8,2022-07-06_10h32.17.303,Colour_Asymmetry_Pilot,2022.1.3,Win32,60.09254252,62c50e9c1127f2cd403a315f,0,23,23,86,1,fourtwo,,,,,,,,,,,,,,,,,,,,,,,,,,,,,,,,,,,,,,,,,,,,,,,,,,,,,,,,,,,,,,,,,,,,,,,,,,,,,,,,,,,,,,,,,,,,,,,,,,,,,,,,,,,,,,,,,,,,,,,,,,,,,,,,,,,,,,,,,,,,,,,,,,,,,,,,,,,,,
,,,,,,5ebeb4d5c03b440f47f505fc,62c539eca9e5fb366c1df9a8,2022-07-06_10h32.17.303,Colour_Asymmetry_Pilot,2022.1.3,Win32,60.09254252,62c50e9c1127f2cd403a315f,0,24,24,152,1,onetwo,,,,,,,,,,,,,,,,,,,,,,,,,,,,,,,,,,,,,,,,,,,,,,,,,,,,,,,,,,,,,,,,,,,,,,,,,,,,,,,,,,,,,,,,,,,,,,,,,,,,,,,,,,,,,,,,,,,,,,,,,,,,,,,,,,,,,,,,,,,,,,,,,,,,,,,,,,,,,
,,,,,,5ebeb4d5c03b440f47f505fc,62c539eca9e5fb366c1df9a8,2022-07-06_10h32.17.303,Colour_Asymmetry_Pilot,2022.1.3,Win32,60.09254252,62c50e9c1127f2cd403a315f,0,25,25,109,1,threefour,,,,,,,,,,,,,,,,,,,,,,,,,,,,,,,,,,,,,,,,,,,,,,,,,,,,,,,,,,,,,,,,,,,,,,,,,,,,,,,,,,,,,,,,,,,,,,,,,,,,,,,,,,,,,,,,,,,,,,,,,,,,,,,,,,,,,,,,,,,,,,,,,,,,,,,,,,,,,
,,,,,,5ebeb4d5c03b440f47f505fc,62c539eca9e5fb366c1df9a8,2022-07-06_10h32.17.303,Colour_Asymmetry_Pilot,2022.1.3,Win32,60.09254252,62c50e9c1127f2cd403a315f,0,26,26,35,1,twofour,,,,,,,,,,,,,,,,,,,,,,,,,,,,,,,,,,,,,,,,,,,,,,,,,,,,,,,,,,,,,,,,,,,,,,,,,,,,,,,,,,,,,,,,,,,,,,,,,,,,,,,,,,,,,,,,,,,,,,,,,,,,,,,,,,,,,,,,,,,,,,,,,,,,,,,,,,,,,
,,,,,,5ebeb4d5c03b440f47f505fc,62c539eca9e5fb366c1df9a8,2022-07-06_10h32.17.303,Colour_Asymmetry_Pilot,2022.1.3,Win32,60.09254252,62c50e9c1127f2cd403a315f,0,27,27,141,1,threefour,,,,,,,,,,,,,,,,,,,,,,,,,,,,,,,,,,,,,,,,,,,,,,,,,,,,,,,,,,,,,,,,,,,,,,,,,,,,,,,,,,,,,,,,,,,,,,,,,,,,,,,,,,,,,,,,,,,,,,,,,,,,,,,,,,,,,,,,,,,,,,,,,,,,,,,,,,,,,
,,,,,,5ebeb4d5c03b440f47f505fc,62c539eca9e5fb366c1df9a8,2022-07-06_10h32.17.303,Colour_Asymmetry_Pilot,2022.1.3,Win32,60.09254252,62c50e9c1127f2cd403a315f,0,28,28,161,1,onethree,,,,,,,,,,,,,,,,,,,,,,,,,,,,,,,,,,,,,,,,,,,,,,,,,,,,,,,,,,,,,,,,,,,,,,,,,,,,,,,,,,,,,,,,,,,,,,,,,,,,,,,,,,,,,,,,,,,,,,,,,,,,,,,,,,,,,,,,,,,,,,,,,,,,,,,,,,,,,
,,,,,,5ebeb4d5c03b440f47f505fc,62c539eca9e5fb366c1df9a8,2022-07-06_10h32.17.303,Colour_Asymmetry_Pilot,2022.1.3,Win32,60.09254252,62c50e9c1127f2cd403a315f,0,29,29,32,1,onetwo,,,,,,,,,,,,,,,,,,,,,,,,,,,,,,,,,,,,,,,,,,,,,,,,,,,,,,,,,,,,,,,,,,,,,,,,,,,,,,,,,,,,,,,,,,,,,,,,,,,,,,,,,,,,,,,,,,,,,,,,,,,,,,,,,,,,,,,,,,,,,,,,,,,,,,,,,,,,,
,,,,,,5ebeb4d5c03b440f47f505fc,62c539eca9e5fb366c1df9a8,2022-07-06_10h32.17.303,Colour_Asymmetry_Pilot,2022.1.3,Win32,60.09254252,62c50e9c1127f2cd403a315f,0,30,30,132,1,threeone,,,,,,,,,,,,,,,,,,,,,,,,,,,,,,,,,,,,,,,,,,,,,,,,,,,,,,,,,,,,,,,,,,,,,,,,,,,,,,,,,,,,,,,,,,,,,,,,,,,,,,,,,,,,,,,,,,,,,,,,,,,,,,,,,,,,,,,,,,,,,,,,,,,,,,,,,,,,,
,,,,,,5ebeb4d5c03b440f47f505fc,62c539eca9e5fb366c1df9a8,2022-07-06_10h32.17.303,Colour_Asymmetry_Pilot,2022.1.3,Win32,60.09254252,62c50e9c1127f2cd403a315f,0,31,31,84,1,threeone,,,,,,,,,,,,,,,,,,,,,,,,,,,,,,,,,,,,,,,,,,,,,,,,,,,,,,,,,,,,,,,,,,,,,,,,,,,,,,,,,,,,,,,,,,,,,,,,,,,,,,,,,,,,,,,,,,,,,,,,,,,,,,,,,,,,,,,,,,,,,,,,,,,,,,,,,,,,,
,,,,,,5ebeb4d5c03b440f47f505fc,62c539eca9e5fb366c1df9a8,2022-07-06_10h32.17.303,Colour_Asymmetry_Pilot,2022.1.3,Win32,60.09254252,62c50e9c1127f2cd403a315f,0,32,32,73,1,onethree,,,,,,,,,,,,,,,,,,,,,,,,,,,,,,,,,,,,,,,,,,,,,,,,,,,,,,,,,,,,,,,,,,,,,,,,,,,,,,,,,,,,,,,,,,,,,,,,,,,,,,,,,,,,,,,,,,,,,,,,,,,,,,,,,,,,,,,,,,,,,,,,,,,,,,,,,,,,,
,,,,,,5ebeb4d5c03b440f47f505fc,62c539eca9e5fb366c1df9a8,2022-07-06_10h32.17.303,Colour_Asymmetry_Pilot,2022.1.3,Win32,60.09254252,62c50e9c1127f2cd403a315f,0,33,33,139,1,twofour,,,,,,,,,,,,,,,,,,,,,,,,,,,,,,,,,,,,,,,,,,,,,,,,,,,,,,,,,,,,,,,,,,,,,,,,,,,,,,,,,,,,,,,,,,,,,,,,,,,,,,,,,,,,,,,,,,,,,,,,,,,,,,,,,,,,,,,,,,,,,,,,,,,,,,,,,,,,,
,,,,,,5ebeb4d5c03b440f47f505fc,62c539eca9e5fb366c1df9a8,2022-07-06_10h32.17.303,Colour_Asymmetry_Pilot,2022.1.3,Win32,60.09254252,62c50e9c1127f2cd403a315f,0,34,34,48,1,onetwo,,,,,,,,,,,,,,,,,,,,,,,,,,,,,,,,,,,,,,,,,,,,,,,,,,,,,,,,,,,,,,,,,,,,,,,,,,,,,,,,,,,,,,,,,,,,,,,,,,,,,,,,,,,,,,,,,,,,,,,,,,,,,,,,,,,,,,,,,,,,,,,,,,,,,,,,,,,,,
,,,,,,5ebeb4d5c03b440f47f505fc,62c539eca9e5fb366c1df9a8,2022-07-06_10h32.17.303,Colour_Asymmetry_Pilot,2022.1.3,Win32,60.09254252,62c50e9c1127f2cd403a315f,0,35,35,97,1,onethree,,,,,,,,,,,,,,,,,,,,,,,,,,,,,,,,,,,,,,,,,,,,,,,,,,,,,,,,,,,,,,,,,,,,,,,,,,,,,,,,,,,,,,,,,,,,,,,,,,,,,,,,,,,,,,,,,,,,,,,,,,,,,,,,,,,,,,,,,,,,,,,,,,,,,,,,,,,,,
,,,,,,5ebeb4d5c03b440f47f505fc,62c539eca9e5fb366c1df9a8,2022-07-06_10h32.17.303,Colour_Asymmetry_Pilot,2022.1.3,Win32,60.09254252,62c50e9c1127f2cd403a315f,0,36,36,19,1,twofour,,,,,,,,,,,,,,,,,,,,,,,,,,,,,,,,,,,,,,,,,,,,,,,,,,,,,,,,,,,,,,,,,,,,,,,,,,,,,,,,,,,,,,,,,,,,,,,,,,,,,,,,,,,,,,,,,,,,,,,,,,,,,,,,,,,,,,,,,,,,,,,,,,,,,,,,,,,,,
,,,,,,5ebeb4d5c03b440f47f505fc,62c539eca9e5fb366c1df9a8,2022-07-06_10h32.17.303,Colour_Asymmetry_Pilot,2022.1.3,Win32,60.09254252,62c50e9c1127f2cd403a315f,0,37,37,137,1,onethree,,,,,,,,,,,,,,,,,,,,,,,,,,,,,,,,,,,,,,,,,,,,,,,,,,,,,,,,,,,,,,,,,,,,,,,,,,,,,,,,,,,,,,,,,,,,,,,,,,,,,,,,,,,,,,,,,,,,,,,,,,,,,,,,,,,,,,,,,,,,,,,,,,,,,,,,,,,,,
,,,,,,5ebeb4d5c03b440f47f505fc,62c539eca9e5fb366c1df9a8,2022-07-06_10h32.17.303,Colour_Asymmetry_Pilot,2022.1.3,Win32,60.09254252,62c50e9c1127f2cd403a315f,0,38,38,49,1,onethree,,,,,,,,,,,,,,,,,,,,,,,,,,,,,,,,,,,,,,,,,,,,,,,,,,,,,,,,,,,,,,,,,,,,,,,,,,,,,,,,,,,,,,,,,,,,,,,,,,,,,,,,,,,,,,,,,,,,,,,,,,,,,,,,,,,,,,,,,,,,,,,,,,,,,,,,,,,,,
,,,,,,5ebeb4d5c03b440f47f505fc,62c539eca9e5fb366c1df9a8,2022-07-06_10h32.17.303,Colour_Asymmetry_Pilot,2022.1.3,Win32,60.09254252,62c50e9c1127f2cd403a315f,0,39,39,155,1,twofour,,,,,,,,,,,,,,,,,,,,,,,,,,,,,,,,,,,,,,,,,,,,,,,,,,,,,,,,,,,,,,,,,,,,,,,,,,,,,,,,,,,,,,,,,,,,,,,,,,,,,,,,,,,,,,,,,,,,,,,,,,,,,,,,,,,,,,,,,,,,,,,,,,,,,,,,,,,,,
,,,,,,5ebeb4d5c03b440f47f505fc,62c539eca9e5fb366c1df9a8,2022-07-06_10h32.17.303,Colour_Asymmetry_Pilot,2022.1.3,Win32,60.09254252,62c50e9c1127f2cd403a315f,0,40,40,14,1,fourtwo,,,,,,,,,,,,,,,,,,,,,,,,,,,,,,,,,,,,,,,,,,,,,,,,,,,,,,,,,,,,,,,,,,,,,,,,,,,,,,,,,,,,,,,,,,,,,,,,,,,,,,,,,,,,,,,,,,,,,,,,,,,,,,,,,,,,,,,,,,,,,,,,,,,,,,,,,,,,,
,,,,,,5ebeb4d5c03b440f47f505fc,62c539eca9e5fb366c1df9a8,2022-07-06_10h32.17.303,Colour_Asymmetry_Pilot,2022.1.3,Win32,60.09254252,62c50e9c1127f2cd403a315f,0,41,41,61,1,threefour,,,,,,,,,,,,,,,,,,,,,,,,,,,,,,,,,,,,,,,,,,,,,,,,,,,,,,,,,,,,,,,,,,,,,,,,,,,,,,,,,,,,,,,,,,,,,,,,,,,,,,,,,,,,,,,,,,,,,,,,,,,,,,,,,,,,,,,,,,,,,,,,,,,,,,,,,,,,,
,,,,,,5ebeb4d5c03b440f47f505fc,62c539eca9e5fb366c1df9a8,2022-07-06_10h32.17.303,Colour_Asymmetry_Pilot,2022.1.3,Win32,60.09254252,62c50e9c1127f2cd403a315f,0,42,42,136,1,onetwo,,,,,,,,,,,,,,,,,,,,,,,,,,,,,,,,,,,,,,,,,,,,,,,,,,,,,,,,,,,,,,,,,,,,,,,,,,,,,,,,,,,,,,,,,,,,,,,,,,,,,,,,,,,,,,,,,,,,,,,,,,,,,,,,,,,,,,,,,,,,,,,,,,,,,,,,,,,,,
,,,,,,5ebeb4d5c03b440f47f505fc,62c539eca9e5fb366c1df9a8,2022-07-06_10h32.17.303,Colour_Asymmetry_Pilot,2022.1.3,Win32,60.09254252,62c50e9c1127f2cd403a315f,0,43,43,95,1,fourthree,,,,,,,,,,,,,,,,,,,,,,,,,,,,,,,,,,,,,,,,,,,,,,,,,,,,,,,,,,,,,,,,,,,,,,,,,,,,,,,,,,,,,,,,,,,,,,,,,,,,,,,,,,,,,,,,,,,,,,,,,,,,,,,,,,,,,,,,,,,,,,,,,,,,,,,,,,,,,
,,,,,,5ebeb4d5c03b440f47f505fc,62c539eca9e5fb366c1df9a8,2022-07-06_10h32.17.303,Colour_Asymmetry_Pilot,2022.1.3,Win32,60.09254252,62c50e9c1127f2cd403a315f,0,44,44,93,1,threefour,,,,,,,,,,,,,,,,,,,,,,,,,,,,,,,,,,,,,,,,,,,,,,,,,,,,,,,,,,,,,,,,,,,,,,,,,,,,,,,,,,,,,,,,,,,,,,,,,,,,,,,,,,,,,,,,,,,,,,,,,,,,,,,,,,,,,,,,,,,,,,,,,,,,,,,,,,,,,
,,,,,,5ebeb4d5c03b440f47f505fc,62c539eca9e5fb366c1df9a8,2022-07-06_10h32.17.303,Colour_Asymmetry_Pilot,2022.1.3,Win32,60.09254252,62c50e9c1127f2cd403a315f,0,45,45,71,1,fourthree,,,,,,,,,,,,,,,,,,,,,,,,,,,,,,,,,,,,,,,,,,,,,,,,,,,,,,,,,,,,,,,,,,,,,,,,,,,,,,,,,,,,,,,,,,,,,,,,,,,,,,,,,,,,,,,,,,,,,,,,,,,,,,,,,,,,,,,,,,,,,,,,,,,,,,,,,,,,,
,,,,,,5ebeb4d5c03b440f47f505fc,62c539eca9e5fb366c1df9a8,2022-07-06_10h32.17.303,Colour_Asymmetry_Pilot,2022.1.3,Win32,60.09254252,62c50e9c1127f2cd403a315f,0,46,46,150,1,fourtwo,,,,,,,,,,,,,,,,,,,,,,,,,,,,,,,,,,,,,,,,,,,,,,,,,,,,,,,,,,,,,,,,,,,,,,,,,,,,,,,,,,,,,,,,,,,,,,,,,,,,,,,,,,,,,,,,,,,,,,,,,,,,,,,,,,,,,,,,,,,,,,,,,,,,,,,,,,,,,
,,,,,,5ebeb4d5c03b440f47f505fc,62c539eca9e5fb366c1df9a8,2022-07-06_10h32.17.303,Colour_Asymmetry_Pilot,2022.1.3,Win32,60.09254252,62c50e9c1127f2cd403a315f,0,47,47,42,1,twoone,,,,,,,,,,,,,,,,,,,,,,,,,,,,,,,,,,,,,,,,,,,,,,,,,,,,,,,,,,,,,,,,,,,,,,,,,,,,,,,,,,,,,,,,,,,,,,,,,,,,,,,,,,,,,,,,,,,,,,,,,,,,,,,,,,,,,,,,,,,,,,,,,,,,,,,,,,,,,
,,,,,,5ebeb4d5c03b440f47f505fc,62c539eca9e5fb366c1df9a8,2022-07-06_10h32.17.303,Colour_Asymmetry_Pilot,2022.1.3,Win32,60.09254252,62c50e9c1127f2cd403a315f,0,48,48,74,1,twoone,,,,,,,,,,,,,,,,,,,,,,,,,,,,,,,,,,,,,,,,,,,,,,,,,,,,,,,,,,,,,,,,,,,,,,,,,,,,,,,,,,,,,,,,,,,,,,,,,,,,,,,,,,,,,,,,,,,,,,,,,,,,,,,,,,,,,,,,,,,,,,,,,,,,,,,,,,,,,
,,,,,,5ebeb4d5c03b440f47f505fc,62c539eca9e5fb366c1df9a8,2022-07-06_10h32.17.303,Colour_Asymmetry_Pilot,2022.1.3,Win32,60.09254252,62c50e9c1127f2cd403a315f,0,49,49,143,1,fourthree,,,,,,,,,,,,,,,,,,,,,,,,,,,,,,,,,,,,,,,,,,,,,,,,,,,,,,,,,,,,,,,,,,,,,,,,,,,,,,,,,,,,,,,,,,,,,,,,,,,,,,,,,,,,,,,,,,,,,,,,,,,,,,,,,,,,,,,,,,,,,,,,,,,,,,,,,,,,,
,,,,,,5ebeb4d5c03b440f47f505fc,62c539eca9e5fb366c1df9a8,2022-07-06_10h32.17.303,Colour_Asymmetry_Pilot,2022.1.3,Win32,60.09254252,62c50e9c1127f2cd403a315f,0,50,50,126,1,fourtwo,,,,,,,,,,,,,,,,,,,,,,,,,,,,,,,,,,,,,,,,,,,,,,,,,,,,,,,,,,,,,,,,,,,,,,,,,,,,,,,,,,,,,,,,,,,,,,,,,,,,,,,,,,,,,,,,,,,,,,,,,,,,,,,,,,,,,,,,,,,,,,,,,,,,,,,,,,,,,
,,,,,,5ebeb4d5c03b440f47f505fc,62c539eca9e5fb366c1df9a8,2022-07-06_10h32.17.303,Colour_Asymmetry_Pilot,2022.1.3,Win32,60.09254252,62c50e9c1127f2cd403a315f,0,51,51,147,1,twofour,,,,,,,,,,,,,,,,,,,,,,,,,,,,,,,,,,,,,,,,,,,,,,,,,,,,,,,,,,,,,,,,,,,,,,,,,,,,,,,,,,,,,,,,,,,,,,,,,,,,,,,,,,,,,,,,,,,,,,,,,,,,,,,,,,,,,,,,,,,,,,,,,,,,,,,,,,,,,
,,,,,,5ebeb4d5c03b440f47f505fc,62c539eca9e5fb366c1df9a8,2022-07-06_10h32.17.303,Colour_Asymmetry_Pilot,2022.1.3,Win32,60.09254252,62c50e9c1127f2cd403a315f,0,52,52,69,1,threefour,,,,,,,,,,,,,,,,,,,,,,,,,,,,,,,,,,,,,,,,,,,,,,,,,,,,,,,,,,,,,,,,,,,,,,,,,,,,,,,,,,,,,,,,,,,,,,,,,,,,,,,,,,,,,,,,,,,,,,,,,,,,,,,,,,,,,,,,,,,,,,,,,,,,,,,,,,,,,
,,,,,,5ebeb4d5c03b440f47f505fc,62c539eca9e5fb366c1df9a8,2022-07-06_10h32.17.303,Colour_Asymmetry_Pilot,2022.1.3,Win32,60.09254252,62c50e9c1127f2cd403a315f,0,53,53,63,1,fourthree,,,,,,,,,,,,,,,,,,,,,,,,,,,,,,,,,,,,,,,,,,,,,,,,,,,,,,,,,,,,,,,,,,,,,,,,,,,,,,,,,,,,,,,,,,,,,,,,,,,,,,,,,,,,,,,,,,,,,,,,,,,,,,,,,,,,,,,,,,,,,,,,,,,,,,,,,,,,,
,,,,,,5ebeb4d5c03b440f47f505fc,62c539eca9e5fb366c1df9a8,2022-07-06_10h32.17.303,Colour_Asymmetry_Pilot,2022.1.3,Win32,60.09254252,62c50e9c1127f2cd403a315f,0,54,54,100,1,threeone,,,,,,,,,,,,,,,,,,,,,,,,,,,,,,,,,,,,,,,,,,,,,,,,,,,,,,,,,,,,,,,,,,,,,,,,,,,,,,,,,,,,,,,,,,,,,,,,,,,,,,,,,,,,,,,,,,,,,,,,,,,,,,,,,,,,,,,,,,,,,,,,,,,,,,,,,,,,,
,,,,,,5ebeb4d5c03b440f47f505fc,62c539eca9e5fb366c1df9a8,2022-07-06_10h32.17.303,Colour_Asymmetry_Pilot,2022.1.3,Win32,60.09254252,62c50e9c1127f2cd403a315f,0,55,55,157,1,threefour,,,,,,,,,,,,,,,,,,,,,,,,,,,,,,,,,,,,,,,,,,,,,,,,,,,,,,,,,,,,,,,,,,,,,,,,,,,,,,,,,,,,,,,,,,,,,,,,,,,,,,,,,,,,,,,,,,,,,,,,,,,,,,,,,,,,,,,,,,,,,,,,,,,,,,,,,,,,,
,,,,,,5ebeb4d5c03b440f47f505fc,62c539eca9e5fb366c1df9a8,2022-07-06_10h32.17.303,Colour_Asymmetry_Pilot,2022.1.3,Win32,60.09254252,62c50e9c1127f2cd403a315f,0,56,56,16,1,onetwo,,,,,,,,,,,,,,,,,,,,,,,,,,,,,,,,,,,,,,,,,,,,,,,,,,,,,,,,,,,,,,,,,,,,,,,,,,,,,,,,,,,,,,,,,,,,,,,,,,,,,,,,,,,,,,,,,,,,,,,,,,,,,,,,,,,,,,,,,,,,,,,,,,,,,,,,,,,,,
,,,,,,5ebeb4d5c03b440f47f505fc,62c539eca9e5fb366c1df9a8,2022-07-06_10h32.17.303,Colour_Asymmetry_Pilot,2022.1.3,Win32,60.09254252,62c50e9c1127f2cd403a315f,0,57,57,12,1,threeone,,,,,,,,,,,,,,,,,,,,,,,,,,,,,,,,,,,,,,,,,,,,,,,,,,,,,,,,,,,,,,,,,,,,,,,,,,,,,,,,,,,,,,,,,,,,,,,,,,,,,,,,,,,,,,,,,,,,,,,,,,,,,,,,,,,,,,,,,,,,,,,,,,,,,,,,,,,,,
,,,,,,5ebeb4d5c03b440f47f505fc,62c539eca9e5fb366c1df9a8,2022-07-06_10h32.17.303,Colour_Asymmetry_Pilot,2022.1.3,Win32,60.09254252,62c50e9c1127f2cd403a315f,0,58,58,7,1,fourthree,,,,,,,,,,,,,,,,,,,,,,,,,,,,,,,,,,,,,,,,,,,,,,,,,,,,,,,,,,,,,,,,,,,,,,,,,,,,,,,,,,,,,,,,,,,,,,,,,,,,,,,,,,,,,,,,,,,,,,,,,,,,,,,,,,,,,,,,,,,,,,,,,,,,,,,,,,,,,
,,,,,,5ebeb4d5c03b440f47f505fc,62c539eca9e5fb366c1df9a8,2022-07-06_10h32.17.303,Colour_Asymmetry_Pilot,2022.1.3,Win32,60.09254252,62c50e9c1127f2cd403a315f,0,59,59,129,1,onethree,,,,,,,,,,,,,,,,,,,,,,,,,,,,,,,,,,,,,,,,,,,,,,,,,,,,,,,,,,,,,,,,,,,,,,,,,,,,,,,,,,,,,,,,,,,,,,,,,,,,,,,,,,,,,,,,,,,,,,,,,,,,,,,,,,,,,,,,,,,,,,,,,,,,,,,,,,,,,
,,,,,,5ebeb4d5c03b440f47f505fc,62c539eca9e5fb366c1df9a8,2022-07-06_10h32.17.303,Colour_Asymmetry_Pilot,2022.1.3,Win32,60.09254252,62c50e9c1127f2cd403a315f,0,60,60,0,1,onetwo,,,,,,,,,,,,,,,,,,,,,,,,,,,,,,,,,,,,,,,,,,,,,,,,,,,,,,,,,,,,,,,,,,,,,,,,,,,,,,,,,,,,,,,,,,,,,,,,,,,,,,,,,,,,,,,,,,,,,,,,,,,,,,,,,,,,,,,,,,,,,,,,,,,,,,,,,,,,,
,,,,,,5ebeb4d5c03b440f47f505fc,62c539eca9e5fb366c1df9a8,2022-07-06_10h32.17.303,Colour_Asymmetry_Pilot,2022.1.3,Win32,60.09254252,62c50e9c1127f2cd403a315f,0,61,61,8,1,onetwo,,,,,,,,,,,,,,,,,,,,,,,,,,,,,,,,,,,,,,,,,,,,,,,,,,,,,,,,,,,,,,,,,,,,,,,,,,,,,,,,,,,,,,,,,,,,,,,,,,,,,,,,,,,,,,,,,,,,,,,,,,,,,,,,,,,,,,,,,,,,,,,,,,,,,,,,,,,,,
,,,,,,5ebeb4d5c03b440f47f505fc,62c539eca9e5fb366c1df9a8,2022-07-06_10h32.17.303,Colour_Asymmetry_Pilot,2022.1.3,Win32,60.09254252,62c50e9c1127f2cd403a315f,0,62,62,156,1,threeone,,,,,,,,,,,,,,,,,,,,,,,,,,,,,,,,,,,,,,,,,,,,,,,,,,,,,,,,,,,,,,,,,,,,,,,,,,,,,,,,,,,,,,,,,,,,,,,,,,,,,,,,,,,,,,,,,,,,,,,,,,,,,,,,,,,,,,,,,,,,,,,,,,,,,,,,,,,,,
,,,,,,5ebeb4d5c03b440f47f505fc,62c539eca9e5fb366c1df9a8,2022-07-06_10h32.17.303,Colour_Asymmetry_Pilot,2022.1.3,Win32,60.09254252,62c50e9c1127f2cd403a315f,0,63,63,118,1,fourtwo,,,,,,,,,,,,,,,,,,,,,,,,,,,,,,,,,,,,,,,,,,,,,,,,,,,,,,,,,,,,,,,,,,,,,,,,,,,,,,,,,,,,,,,,,,,,,,,,,,,,,,,,,,,,,,,,,,,,,,,,,,,,,,,,,,,,,,,,,,,,,,,,,,,,,,,,,,,,,
,,,,,,5ebeb4d5c03b440f47f505fc,62c539eca9e5fb366c1df9a8,2022-07-06_10h32.17.303,Colour_Asymmetry_Pilot,2022.1.3,Win32,60.09254252,62c50e9c1127f2cd403a315f,0,64,64,140,1,threeone,,,,,,,,,,,,,,,,,,,,,,,,,,,,,,,,,,,,,,,,,,,,,,,,,,,,,,,,,,,,,,,,,,,,,,,,,,,,,,,,,,,,,,,,,,,,,,,,,,,,,,,,,,,,,,,,,,,,,,,,,,,,,,,,,,,,,,,,,,,,,,,,,,,,,,,,,,,,,
,,,,,,5ebeb4d5c03b440f47f505fc,62c539eca9e5fb366c1df9a8,2022-07-06_10h32.17.303,Colour_Asymmetry_Pilot,2022.1.3,Win32,60.09254252,62c50e9c1127f2cd403a315f,0,65,65,52,1,threeone,,,,,,,,,,,,,,,,,,,,,,,,,,,,,,,,,,,,,,,,,,,,,,,,,,,,,,,,,,,,,,,,,,,,,,,,,,,,,,,,,,,,,,,,,,,,,,,,,,,,,,,,,,,,,,,,,,,,,,,,,,,,,,,,,,,,,,,,,,,,,,,,,,,,,,,,,,,,,
,,,,,,5ebeb4d5c03b440f47f505fc,62c539eca9e5fb366c1df9a8,2022-07-06_10h32.17.303,Colour_Asymmetry_Pilot,2022.1.3,Win32,60.09254252,62c50e9c1127f2cd403a315f,0,66,66,64,1,onetwo,,,,,,,,,,,,,,,,,,,,,,,,,,,,,,,,,,,,,,,,,,,,,,,,,,,,,,,,,,,,,,,,,,,,,,,,,,,,,,,,,,,,,,,,,,,,,,,,,,,,,,,,,,,,,,,,,,,,,,,,,,,,,,,,,,,,,,,,,,,,,,,,,,,,,,,,,,,,,
,,,,,,5ebeb4d5c03b440f47f505fc,62c539eca9e5fb366c1df9a8,2022-07-06_10h32.17.303,Colour_Asymmetry_Pilot,2022.1.3,Win32,60.09254252,62c50e9c1127f2cd403a315f,0,67,67,154,1,twoone,,,,,,,,,,,,,,,,,,,,,,,,,,,,,,,,,,,,,,,,,,,,,,,,,,,,,,,,,,,,,,,,,,,,,,,,,,,,,,,,,,,,,,,,,,,,,,,,,,,,,,,,,,,,,,,,,,,,,,,,,,,,,,,,,,,,,,,,,,,,,,,,,,,,,,,,,,,,,
,,,,,,5ebeb4d5c03b440f47f505fc,62c539eca9e5fb366c1df9a8,2022-07-06_10h32.17.303,Colour_Asymmetry_Pilot,2022.1.3,Win32,60.09254252,62c50e9c1127f2cd403a315f,0,68,68,125,1,threefour,,,,,,,,,,,,,,,,,,,,,,,,,,,,,,,,,,,,,,,,,,,,,,,,,,,,,,,,,,,,,,,,,,,,,,,,,,,,,,,,,,,,,,,,,,,,,,,,,,,,,,,,,,,,,,,,,,,,,,,,,,,,,,,,,,,,,,,,,,,,,,,,,,,,,,,,,,,,,
,,,,,,5ebeb4d5c03b440f47f505fc,62c539eca9e5fb366c1df9a8,2022-07-06_10h32.17.303,Colour_Asymmetry_Pilot,2022.1.3,Win32,60.09254252,62c50e9c1127f2cd403a315f,0,69,69,135,1,fourthree,,,,,,,,,,,,,,,,,,,,,,,,,,,,,,,,,,,,,,,,,,,,,,,,,,,,,,,,,,,,,,,,,,,,,,,,,,,,,,,,,,,,,,,,,,,,,,,,,,,,,,,,,,,,,,,,,,,,,,,,,,,,,,,,,,,,,,,,,,,,,,,,,,,,,,,,,,,,,
,,,,,,5ebeb4d5c03b440f47f505fc,62c539eca9e5fb366c1df9a8,2022-07-06_10h32.17.303,Colour_Asymmetry_Pilot,2022.1.3,Win32,60.09254252,62c50e9c1127f2cd403a315f,0,70,70,2,1,twoone,,,,,,,,,,,,,,,,,,,,,,,,,,,,,,,,,,,,,,,,,,,,,,,,,,,,,,,,,,,,,,,,,,,,,,,,,,,,,,,,,,,,,,,,,,,,,,,,,,,,,,,,,,,,,,,,,,,,,,,,,,,,,,,,,,,,,,,,,,,,,,,,,,,,,,,,,,,,,
,,,,,,5ebeb4d5c03b440f47f505fc,62c539eca9e5fb366c1df9a8,2022-07-06_10h32.17.303,Colour_Asymmetry_Pilot,2022.1.3,Win32,60.09254252,62c50e9c1127f2cd403a315f,0,71,71,110,1,fourtwo,,,,,,,,,,,,,,,,,,,,,,,,,,,,,,,,,,,,,,,,,,,,,,,,,,,,,,,,,,,,,,,,,,,,,,,,,,,,,,,,,,,,,,,,,,,,,,,,,,,,,,,,,,,,,,,,,,,,,,,,,,,,,,,,,,,,,,,,,,,,,,,,,,,,,,,,,,,,,
,,,,,,5ebeb4d5c03b440f47f505fc,62c539eca9e5fb366c1df9a8,2022-07-06_10h32.17.303,Colour_Asymmetry_Pilot,2022.1.3,Win32,60.09254252,62c50e9c1127f2cd403a315f,0,72,72,131,1,twofour,,,,,,,,,,,,,,,,,,,,,,,,,,,,,,,,,,,,,,,,,,,,,,,,,,,,,,,,,,,,,,,,,,,,,,,,,,,,,,,,,,,,,,,,,,,,,,,,,,,,,,,,,,,,,,,,,,,,,,,,,,,,,,,,,,,,,,,,,,,,,,,,,,,,,,,,,,,,,
,,,,,,5ebeb4d5c03b440f47f505fc,62c539eca9e5fb366c1df9a8,2022-07-06_10h32.17.303,Colour_Asymmetry_Pilot,2022.1.3,Win32,60.09254252,62c50e9c1127f2cd403a315f,0,73,73,36,1,threeone,,,,,,,,,,,,,,,,,,,,,,,,,,,,,,,,,,,,,,,,,,,,,,,,,,,,,,,,,,,,,,,,,,,,,,,,,,,,,,,,,,,,,,,,,,,,,,,,,,,,,,,,,,,,,,,,,,,,,,,,,,,,,,,,,,,,,,,,,,,,,,,,,,,,,,,,,,,,,
,,,,,,5ebeb4d5c03b440f47f505fc,62c539eca9e5fb366c1df9a8,2022-07-06_10h32.17.303,Colour_Asymmetry_Pilot,2022.1.3,Win32,60.09254252,62c50e9c1127f2cd403a315f,0,74,74,9,1,onethree,,,,,,,,,,,,,,,,,,,,,,,,,,,,,,,,,,,,,,,,,,,,,,,,,,,,,,,,,,,,,,,,,,,,,,,,,,,,,,,,,,,,,,,,,,,,,,,,,,,,,,,,,,,,,,,,,,,,,,,,,,,,,,,,,,,,,,,,,,,,,,,,,,,,,,,,,,,,,
,,,,,,5ebeb4d5c03b440f47f505fc,62c539eca9e5fb366c1df9a8,2022-07-06_10h32.17.303,Colour_Asymmetry_Pilot,2022.1.3,Win32,60.09254252,62c50e9c1127f2cd403a315f,0,75,75,3,1,twofour,,,,,,,,,,,,,,,,,,,,,,,,,,,,,,,,,,,,,,,,,,,,,,,,,,,,,,,,,,,,,,,,,,,,,,,,,,,,,,,,,,,,,,,,,,,,,,,,,,,,,,,,,,,,,,,,,,,,,,,,,,,,,,,,,,,,,,,,,,,,,,,,,,,,,,,,,,,,,
,,,,,,5ebeb4d5c03b440f47f505fc,62c539eca9e5fb366c1df9a8,2022-07-06_10h32.17.303,Colour_Asymmetry_Pilot,2022.1.3,Win32,60.09254252,62c50e9c1127f2cd403a315f,0,76,76,88,1,onetwo,,,,,,,,,,,,,,,,,,,,,,,,,,,,,,,,,,,,,,,,,,,,,,,,,,,,,,,,,,,,,,,,,,,,,,,,,,,,,,,,,,,,,,,,,,,,,,,,,,,,,,,,,,,,,,,,,,,,,,,,,,,,,,,,,,,,,,,,,,,,,,,,,,,,,,,,,,,,,
,,,,,,5ebeb4d5c03b440f47f505fc,62c539eca9e5fb366c1df9a8,2022-07-06_10h32.17.303,Colour_Asymmetry_Pilot,2022.1.3,Win32,60.09254252,62c50e9c1127f2cd403a315f,0,77,77,34,1,twoone,,,,,,,,,,,,,,,,,,,,,,,,,,,,,,,,,,,,,,,,,,,,,,,,,,,,,,,,,,,,,,,,,,,,,,,,,,,,,,,,,,,,,,,,,,,,,,,,,,,,,,,,,,,,,,,,,,,,,,,,,,,,,,,,,,,,,,,,,,,,,,,,,,,,,,,,,,,,,
,,,,,,5ebeb4d5c03b440f47f505fc,62c539eca9e5fb366c1df9a8,2022-07-06_10h32.17.303,Colour_Asymmetry_Pilot,2022.1.3,Win32,60.09254252,62c50e9c1127f2cd403a315f,0,78,78,142,1,fourtwo,,,,,,,,,,,,,,,,,,,,,,,,,,,,,,,,,,,,,,,,,,,,,,,,,,,,,,,,,,,,,,,,,,,,,,,,,,,,,,,,,,,,,,,,,,,,,,,,,,,,,,,,,,,,,,,,,,,,,,,,,,,,,,,,,,,,,,,,,,,,,,,,,,,,,,,,,,,,,
,,,,,,5ebeb4d5c03b440f47f505fc,62c539eca9e5fb366c1df9a8,2022-07-06_10h32.17.303,Colour_Asymmetry_Pilot,2022.1.3,Win32,60.09254252,62c50e9c1127f2cd403a315f,0,79,79,94,1,fourtwo,,,,,,,,,,,,,,,,,,,,,,,,,,,,,,,,,,,,,,,,,,,,,,,,,,,,,,,,,,,,,,,,,,,,,,,,,,,,,,,,,,,,,,,,,,,,,,,,,,,,,,,,,,,,,,,,,,,,,,,,,,,,,,,,,,,,,,,,,,,,,,,,,,,,,,,,,,,,,
,,,,,,5ebeb4d5c03b440f47f505fc,62c539eca9e5fb366c1df9a8,2022-07-06_10h32.17.303,Colour_Asymmetry_Pilot,2022.1.3,Win32,60.09254252,62c50e9c1127f2cd403a315f,0,80,80,51,1,twofour,,,,,,,,,,,,,,,,,,,,,,,,,,,,,,,,,,,,,,,,,,,,,,,,,,,,,,,,,,,,,,,,,,,,,,,,,,,,,,,,,,,,,,,,,,,,,,,,,,,,,,,,,,,,,,,,,,,,,,,,,,,,,,,,,,,,,,,,,,,,,,,,,,,,,,,,,,,,,
,,,,,,5ebeb4d5c03b440f47f505fc,62c539eca9e5fb366c1df9a8,2022-07-06_10h32.17.303,Colour_Asymmetry_Pilot,2022.1.3,Win32,60.09254252,62c50e9c1127f2cd403a315f,0,81,81,17,1,onethree,,,,,,,,,,,,,,,,,,,,,,,,,,,,,,,,,,,,,,,,,,,,,,,,,,,,,,,,,,,,,,,,,,,,,,,,,,,,,,,,,,,,,,,,,,,,,,,,,,,,,,,,,,,,,,,,,,,,,,,,,,,,,,,,,,,,,,,,,,,,,,,,,,,,,,,,,,,,,
,,,,,,5ebeb4d5c03b440f47f505fc,62c539eca9e5fb366c1df9a8,2022-07-06_10h32.17.303,Colour_Asymmetry_Pilot,2022.1.3,Win32,60.09254252,62c50e9c1127f2cd403a315f,0,82,82,45,1,threefour,,,,,,,,,,,,,,,,,,,,,,,,,,,,,,,,,,,,,,,,,,,,,,,,,,,,,,,,,,,,,,,,,,,,,,,,,,,,,,,,,,,,,,,,,,,,,,,,,,,,,,,,,,,,,,,,,,,,,,,,,,,,,,,,,,,,,,,,,,,,,,,,,,,,,,,,,,,,,
,,,,,,5ebeb4d5c03b440f47f505fc,62c539eca9e5fb366c1df9a8,2022-07-06_10h32.17.303,Colour_Asymmetry_Pilot,2022.1.3,Win32,60.09254252,62c50e9c1127f2cd403a315f,0,83,83,53,1,threefour,,,,,,,,,,,,,,,,,,,,,,,,,,,,,,,,,,,,,,,,,,,,,,,,,,,,,,,,,,,,,,,,,,,,,,,,,,,,,,,,,,,,,,,,,,,,,,,,,,,,,,,,,,,,,,,,,,,,,,,,,,,,,,,,,,,,,,,,,,,,,,,,,,,,,,,,,,,,,
,,,,,,5ebeb4d5c03b440f47f505fc,62c539eca9e5fb366c1df9a8,2022-07-06_10h32.17.303,Colour_Asymmetry_Pilot,2022.1.3,Win32,60.09254252,62c50e9c1127f2cd403a315f,0,84,84,43,1,twofour,,,,,,,,,,,,,,,,,,,,,,,,,,,,,,,,,,,,,,,,,,,,,,,,,,,,,,,,,,,,,,,,,,,,,,,,,,,,,,,,,,,,,,,,,,,,,,,,,,,,,,,,,,,,,,,,,,,,,,,,,,,,,,,,,,,,,,,,,,,,,,,,,,,,,,,,,,,,,
,,,,,,5ebeb4d5c03b440f47f505fc,62c539eca9e5fb366c1df9a8,2022-07-06_10h32.17.303,Colour_Asymmetry_Pilot,2022.1.3,Win32,60.09254252,62c50e9c1127f2cd403a315f,0,85,85,78,1,fourtwo,,,,,,,,,,,,,,,,,,,,,,,,,,,,,,,,,,,,,,,,,,,,,,,,,,,,,,,,,,,,,,,,,,,,,,,,,,,,,,,,,,,,,,,,,,,,,,,,,,,,,,,,,,,,,,,,,,,,,,,,,,,,,,,,,,,,,,,,,,,,,,,,,,,,,,,,,,,,,
,,,,,,5ebeb4d5c03b440f47f505fc,62c539eca9e5fb366c1df9a8,2022-07-06_10h32.17.303,Colour_Asymmetry_Pilot,2022.1.3,Win32,60.09254252,62c50e9c1127f2cd403a315f,0,86,86,1,1,onethree,,,,,,,,,,,,,,,,,,,,,,,,,,,,,,,,,,,,,,,,,,,,,,,,,,,,,,,,,,,,,,,,,,,,,,,,,,,,,,,,,,,,,,,,,,,,,,,,,,,,,,,,,,,,,,,,,,,,,,,,,,,,,,,,,,,,,,,,,,,,,,,,,,,,,,,,,,,,,
,,,,,,5ebeb4d5c03b440f47f505fc,62c539eca9e5fb366c1df9a8,2022-07-06_10h32.17.303,Colour_Asymmetry_Pilot,2022.1.3,Win32,60.09254252,62c50e9c1127f2cd403a315f,0,87,87,114,1,twoone,,,,,,,,,,,,,,,,,,,,,,,,,,,,,,,,,,,,,,,,,,,,,,,,,,,,,,,,,,,,,,,,,,,,,,,,,,,,,,,,,,,,,,,,,,,,,,,,,,,,,,,,,,,,,,,,,,,,,,,,,,,,,,,,,,,,,,,,,,,,,,,,,,,,,,,,,,,,,
,,,,,,5ebeb4d5c03b440f47f505fc,62c539eca9e5fb366c1df9a8,2022-07-06_10h32.17.303,Colour_Asymmetry_Pilot,2022.1.3,Win32,60.09254252,62c50e9c1127f2cd403a315f,0,88,88,130,1,twoone,,,,,,,,,,,,,,,,,,,,,,,,,,,,,,,,,,,,,,,,,,,,,,,,,,,,,,,,,,,,,,,,,,,,,,,,,,,,,,,,,,,,,,,,,,,,,,,,,,,,,,,,,,,,,,,,,,,,,,,,,,,,,,,,,,,,,,,,,,,,,,,,,,,,,,,,,,,,,
,,,,,,5ebeb4d5c03b440f47f505fc,62c539eca9e5fb366c1df9a8,2022-07-06_10h32.17.303,Colour_Asymmetry_Pilot,2022.1.3,Win32,60.09254252,62c50e9c1127f2cd403a315f,0,89,89,79,1,fourthree,,,,,,,,,,,,,,,,,,,,,,,,,,,,,,,,,,,,,,,,,,,,,,,,,,,,,,,,,,,,,,,,,,,,,,,,,,,,,,,,,,,,,,,,,,,,,,,,,,,,,,,,,,,,,,,,,,,,,,,,,,,,,,,,,,,,,,,,,,,,,,,,,,,,,,,,,,,,,
,,,,,,5ebeb4d5c03b440f47f505fc,62c539eca9e5fb366c1df9a8,2022-07-06_10h32.17.303,Colour_Asymmetry_Pilot,2022.1.3,Win32,60.09254252,62c50e9c1127f2cd403a315f,0,90,90,21,1,threefour,,,,,,,,,,,,,,,,,,,,,,,,,,,,,,,,,,,,,,,,,,,,,,,,,,,,,,,,,,,,,,,,,,,,,,,,,,,,,,,,,,,,,,,,,,,,,,,,,,,,,,,,,,,,,,,,,,,,,,,,,,,,,,,,,,,,,,,,,,,,,,,,,,,,,,,,,,,,,
,,,,,,5ebeb4d5c03b440f47f505fc,62c539eca9e5fb366c1df9a8,2022-07-06_10h32.17.303,Colour_Asymmetry_Pilot,2022.1.3,Win32,60.09254252,62c50e9c1127f2cd403a315f,0,91,91,28,1,threeone,,,,,,,,,,,,,,,,,,,,,,,,,,,,,,,,,,,,,,,,,,,,,,,,,,,,,,,,,,,,,,,,,,,,,,,,,,,,,,,,,,,,,,,,,,,,,,,,,,,,,,,,,,,,,,,,,,,,,,,,,,,,,,,,,,,,,,,,,,,,,,,,,,,,,,,,,,,,,
,,,,,,5ebeb4d5c03b440f47f505fc,62c539eca9e5fb366c1df9a8,2022-07-06_10h32.17.303,Colour_Asymmetry_Pilot,2022.1.3,Win32,60.09254252,62c50e9c1127f2cd403a315f,0,92,92,87,1,fourthree,,,,,,,,,,,,,,,,,,,,,,,,,,,,,,,,,,,,,,,,,,,,,,,,,,,,,,,,,,,,,,,,,,,,,,,,,,,,,,,,,,,,,,,,,,,,,,,,,,,,,,,,,,,,,,,,,,,,,,,,,,,,,,,,,,,,,,,,,,,,,,,,,,,,,,,,,,,,,
,,,,,,5ebeb4d5c03b440f47f505fc,62c539eca9e5fb366c1df9a8,2022-07-06_10h32.17.303,Colour_Asymmetry_Pilot,2022.1.3,Win32,60.09254252,62c50e9c1127f2cd403a315f,0,93,93,83,1,twofour,,,,,,,,,,,,,,,,,,,,,,,,,,,,,,,,,,,,,,,,,,,,,,,,,,,,,,,,,,,,,,,,,,,,,,,,,,,,,,,,,,,,,,,,,,,,,,,,,,,,,,,,,,,,,,,,,,,,,,,,,,,,,,,,,,,,,,,,,,,,,,,,,,,,,,,,,,,,,
,,,,,,5ebeb4d5c03b440f47f505fc,62c539eca9e5fb366c1df9a8,2022-07-06_10h32.17.303,Colour_Asymmetry_Pilot,2022.1.3,Win32,60.09254252,62c50e9c1127f2cd403a315f,0,94,94,68,1,threeone,,,,,,,,,,,,,,,,,,,,,,,,,,,,,,,,,,,,,,,,,,,,,,,,,,,,,,,,,,,,,,,,,,,,,,,,,,,,,,,,,,,,,,,,,,,,,,,,,,,,,,,,,,,,,,,,,,,,,,,,,,,,,,,,,,,,,,,,,,,,,,,,,,,,,,,,,,,,,
,,,,,,5ebeb4d5c03b440f47f505fc,62c539eca9e5fb366c1df9a8,2022-07-06_10h32.17.303,Colour_Asymmetry_Pilot,2022.1.3,Win32,60.09254252,62c50e9c1127f2cd403a315f,0,95,95,160,1,onetwo,,,,,,,,,,,,,,,,,,,,,,,,,,,,,,,,,,,,,,,,,,,,,,,,,,,,,,,,,,,,,,,,,,,,,,,,,,,,,,,,,,,,,,,,,,,,,,,,,,,,,,,,,,,,,,,,,,,,,,,,,,,,,,,,,,,,,,,,,,,,,,,,,,,,,,,,,,,,,
,,,,,,5ebeb4d5c03b440f47f505fc,62c539eca9e5fb366c1df9a8,2022-07-06_10h32.17.303,Colour_Asymmetry_Pilot,2022.1.3,Win32,60.09254252,62c50e9c1127f2cd403a315f,0,96,96,59,1,twofour,,,,,,,,,,,,,,,,,,,,,,,,,,,,,,,,,,,,,,,,,,,,,,,,,,,,,,,,,,,,,,,,,,,,,,,,,,,,,,,,,,,,,,,,,,,,,,,,,,,,,,,,,,,,,,,,,,,,,,,,,,,,,,,,,,,,,,,,,,,,,,,,,,,,,,,,,,,,,
,,,,,,5ebeb4d5c03b440f47f505fc,62c539eca9e5fb366c1df9a8,2022-07-06_10h32.17.303,Colour_Asymmetry_Pilot,2022.1.3,Win32,60.09254252,62c50e9c1127f2cd403a315f,0,97,97,127,1,fourthree,,,,,,,,,,,,,,,,,,,,,,,,,,,,,,,,,,,,,,,,,,,,,,,,,,,,,,,,,,,,,,,,,,,,,,,,,,,,,,,,,,,,,,,,,,,,,,,,,,,,,,,,,,,,,,,,,,,,,,,,,,,,,,,,,,,,,,,,,,,,,,,,,,,,,,,,,,,,,
,,,,,,5ebeb4d5c03b440f47f505fc,62c539eca9e5fb366c1df9a8,2022-07-06_10h32.17.303,Colour_Asymmetry_Pilot,2022.1.3,Win32,60.09254252,62c50e9c1127f2cd403a315f,0,98,98,96,1,onetwo,,,,,,,,,,,,,,,,,,,,,,,,,,,,,,,,,,,,,,,,,,,,,,,,,,,,,,,,,,,,,,,,,,,,,,,,,,,,,,,,,,,,,,,,,,,,,,,,,,,,,,,,,,,,,,,,,,,,,,,,,,,,,,,,,,,,,,,,,,,,,,,,,,,,,,,,,,,,,
,,,,,,5ebeb4d5c03b440f47f505fc,62c539eca9e5fb366c1df9a8,2022-07-06_10h32.17.303,Colour_Asymmetry_Pilot,2022.1.3,Win32,60.09254252,62c50e9c1127f2cd403a315f,0,99,99,120,1,onetwo,,,,,,,,,,,,,,,,,,,,,,,,,,,,,,,,,,,,,,,,,,,,,,,,,,,,,,,,,,,,,,,,,,,,,,,,,,,,,,,,,,,,,,,,,,,,,,,,,,,,,,,,,,,,,,,,,,,,,,,,,,,,,,,,,,,,,,,,,,,,,,,,,,,,,,,,,,,,,
,,,,,,5ebeb4d5c03b440f47f505fc,62c539eca9e5fb366c1df9a8,2022-07-06_10h32.17.303,Colour_Asymmetry_Pilot,2022.1.3,Win32,60.09254252,62c50e9c1127f2cd403a315f,0,100,100,151,1,fourthree,,,,,,,,,,,,,,,,,,,,,,,,,,,,,,,,,,,,,,,,,,,,,,,,,,,,,,,,,,,,,,,,,,,,,,,,,,,,,,,,,,,,,,,,,,,,,,,,,,,,,,,,,,,,,,,,,,,,,,,,,,,,,,,,,,,,,,,,,,,,,,,,,,,,,,,,,,,,,
,,,,,,5ebeb4d5c03b440f47f505fc,62c539eca9e5fb366c1df9a8,2022-07-06_10h32.17.303,Colour_Asymmetry_Pilot,2022.1.3,Win32,60.09254252,62c50e9c1127f2cd403a315f,0,101,101,29,1,threefour,,,,,,,,,,,,,,,,,,,,,,,,,,,,,,,,,,,,,,,,,,,,,,,,,,,,,,,,,,,,,,,,,,,,,,,,,,,,,,,,,,,,,,,,,,,,,,,,,,,,,,,,,,,,,,,,,,,,,,,,,,,,,,,,,,,,,,,,,,,,,,,,,,,,,,,,,,,,,
,,,,,,5ebeb4d5c03b440f47f505fc,62c539eca9e5fb366c1df9a8,2022-07-06_10h32.17.303,Colour_Asymmetry_Pilot,2022.1.3,Win32,60.09254252,62c50e9c1127f2cd403a315f,0,102,102,149,1,threefour,,,,,,,,,,,,,,,,,,,,,,,,,,,,,,,,,,,,,,,,,,,,,,,,,,,,,,,,,,,,,,,,,,,,,,,,,,,,,,,,,,,,,,,,,,,,,,,,,,,,,,,,,,,,,,,,,,,,,,,,,,,,,,,,,,,,,,,,,,,,,,,,,,,,,,,,,,,,,
,,,,,,5ebeb4d5c03b440f47f505fc,62c539eca9e5fb366c1df9a8,2022-07-06_10h32.17.303,Colour_Asymmetry_Pilot,2022.1.3,Win32,60.09254252,62c50e9c1127f2cd403a315f,0,103,103,81,1,onethree,,,,,,,,,,,,,,,,,,,,,,,,,,,,,,,,,,,,,,,,,,,,,,,,,,,,,,,,,,,,,,,,,,,,,,,,,,,,,,,,,,,,,,,,,,,,,,,,,,,,,,,,,,,,,,,,,,,,,,,,,,,,,,,,,,,,,,,,,,,,,,,,,,,,,,,,,,,,,
,,,,,,5ebeb4d5c03b440f47f505fc,62c539eca9e5fb366c1df9a8,2022-07-06_10h32.17.303,Colour_Asymmetry_Pilot,2022.1.3,Win32,60.09254252,62c50e9c1127f2cd403a315f,0,104,104,18,1,twoone,,,,,,,,,,,,,,,,,,,,,,,,,,,,,,,,,,,,,,,,,,,,,,,,,,,,,,,,,,,,,,,,,,,,,,,,,,,,,,,,,,,,,,,,,,,,,,,,,,,,,,,,,,,,,,,,,,,,,,,,,,,,,,,,,,,,,,,,,,,,,,,,,,,,,,,,,,,,,
,,,,,,5ebeb4d5c03b440f47f505fc,62c539eca9e5fb366c1df9a8,2022-07-06_10h32.17.303,Colour_Asymmetry_Pilot,2022.1.3,Win32,60.09254252,62c50e9c1127f2cd403a315f,0,105,105,55,1,fourthree,,,,,,,,,,,,,,,,,,,,,,,,,,,,,,,,,,,,,,,,,,,,,,,,,,,,,,,,,,,,,,,,,,,,,,,,,,,,,,,,,,,,,,,,,,,,,,,,,,,,,,,,,,,,,,,,,,,,,,,,,,,,,,,,,,,,,,,,,,,,,,,,,,,,,,,,,,,,,
,,,,,,5ebeb4d5c03b440f47f505fc,62c539eca9e5fb366c1df9a8,2022-07-06_10h32.17.303,Colour_Asymmetry_Pilot,2022.1.3,Win32,60.09254252,62c50e9c1127f2cd403a315f,0,106,106,128,1,onetwo,,,,,,,,,,,,,,,,,,,,,,,,,,,,,,,,,,,,,,,,,,,,,,,,,,,,,,,,,,,,,,,,,,,,,,,,,,,,,,,,,,,,,,,,,,,,,,,,,,,,,,,,,,,,,,,,,,,,,,,,,,,,,,,,,,,,,,,,,,,,,,,,,,,,,,,,,,,,,
,,,,,,5ebeb4d5c03b440f47f505fc,62c539eca9e5fb366c1df9a8,2022-07-06_10h32.17.303,Colour_Asymmetry_Pilot,2022.1.3,Win32,60.09254252,62c50e9c1127f2cd403a315f,0,107,107,80,1,onetwo,,,,,,,,,,,,,,,,,,,,,,,,,,,,,,,,,,,,,,,,,,,,,,,,,,,,,,,,,,,,,,,,,,,,,,,,,,,,,,,,,,,,,,,,,,,,,,,,,,,,,,,,,,,,,,,,,,,,,,,,,,,,,,,,,,,,,,,,,,,,,,,,,,,,,,,,,,,,,
,,,,,,5ebeb4d5c03b440f47f505fc,62c539eca9e5fb366c1df9a8,2022-07-06_10h32.17.303,Colour_Asymmetry_Pilot,2022.1.3,Win32,60.09254252,62c50e9c1127f2cd403a315f,0,108,108,77,1,threefour,,,,,,,,,,,,,,,,,,,,,,,,,,,,,,,,,,,,,,,,,,,,,,,,,,,,,,,,,,,,,,,,,,,,,,,,,,,,,,,,,,,,,,,,,,,,,,,,,,,,,,,,,,,,,,,,,,,,,,,,,,,,,,,,,,,,,,,,,,,,,,,,,,,,,,,,,,,,,
,,,,,,5ebeb4d5c03b440f47f505fc,62c539eca9e5fb366c1df9a8,2022-07-06_10h32.17.303,Colour_Asymmetry_Pilot,2022.1.3,Win32,60.09254252,62c50e9c1127f2cd403a315f,0,109,109,33,1,onethree,,,,,,,,,,,,,,,,,,,,,,,,,,,,,,,,,,,,,,,,,,,,,,,,,,,,,,,,,,,,,,,,,,,,,,,,,,,,,,,,,,,,,,,,,,,,,,,,,,,,,,,,,,,,,,,,,,,,,,,,,,,,,,,,,,,,,,,,,,,,,,,,,,,,,,,,,,,,,
,,,,,,5ebeb4d5c03b440f47f505fc,62c539eca9e5fb366c1df9a8,2022-07-06_10h32.17.303,Colour_Asymmetry_Pilot,2022.1.3,Win32,60.09254252,62c50e9c1127f2cd403a315f,0,110,110,20,1,threeone,,,,,,,,,,,,,,,,,,,,,,,,,,,,,,,,,,,,,,,,,,,,,,,,,,,,,,,,,,,,,,,,,,,,,,,,,,,,,,,,,,,,,,,,,,,,,,,,,,,,,,,,,,,,,,,,,,,,,,,,,,,,,,,,,,,,,,,,,,,,,,,,,,,,,,,,,,,,,
,,,,,,5ebeb4d5c03b440f47f505fc,62c539eca9e5fb366c1df9a8,2022-07-06_10h32.17.303,Colour_Asymmetry_Pilot,2022.1.3,Win32,60.09254252,62c50e9c1127f2cd403a315f,0,111,111,111,1,fourthree,,,,,,,,,,,,,,,,,,,,,,,,,,,,,,,,,,,,,,,,,,,,,,,,,,,,,,,,,,,,,,,,,,,,,,,,,,,,,,,,,,,,,,,,,,,,,,,,,,,,,,,,,,,,,,,,,,,,,,,,,,,,,,,,,,,,,,,,,,,,,,,,,,,,,,,,,,,,,
,,,,,,5ebeb4d5c03b440f47f505fc,62c539eca9e5fb366c1df9a8,2022-07-06_10h32.17.303,Colour_Asymmetry_Pilot,2022.1.3,Win32,60.09254252,62c50e9c1127f2cd403a315f,0,112,112,65,1,onethree,,,,,,,,,,,,,,,,,,,,,,,,,,,,,,,,,,,,,,,,,,,,,,,,,,,,,,,,,,,,,,,,,,,,,,,,,,,,,,,,,,,,,,,,,,,,,,,,,,,,,,,,,,,,,,,,,,,,,,,,,,,,,,,,,,,,,,,,,,,,,,,,,,,,,,,,,,,,,
,,,,,,5ebeb4d5c03b440f47f505fc,62c539eca9e5fb366c1df9a8,2022-07-06_10h32.17.303,Colour_Asymmetry_Pilot,2022.1.3,Win32,60.09254252,62c50e9c1127f2cd403a315f,0,113,113,41,1,onethree,,,,,,,,,,,,,,,,,,,,,,,,,,,,,,,,,,,,,,,,,,,,,,,,,,,,,,,,,,,,,,,,,,,,,,,,,,,,,,,,,,,,,,,,,,,,,,,,,,,,,,,,,,,,,,,,,,,,,,,,,,,,,,,,,,,,,,,,,,,,,,,,,,,,,,,,,,,,,
,,,,,,5ebeb4d5c03b440f47f505fc,62c539eca9e5fb366c1df9a8,2022-07-06_10h32.17.303,Colour_Asymmetry_Pilot,2022.1.3,Win32,60.09254252,62c50e9c1127f2cd403a315f,0,114,114,60,1,threeone,,,,,,,,,,,,,,,,,,,,,,,,,,,,,,,,,,,,,,,,,,,,,,,,,,,,,,,,,,,,,,,,,,,,,,,,,,,,,,,,,,,,,,,,,,,,,,,,,,,,,,,,,,,,,,,,,,,,,,,,,,,,,,,,,,,,,,,,,,,,,,,,,,,,,,,,,,,,,
,,,,,,5ebeb4d5c03b440f47f505fc,62c539eca9e5fb366c1df9a8,2022-07-06_10h32.17.303,Colour_Asymmetry_Pilot,2022.1.3,Win32,60.09254252,62c50e9c1127f2cd403a315f,0,115,115,11,1,twofour,,,,,,,,,,,,,,,,,,,,,,,,,,,,,,,,,,,,,,,,,,,,,,,,,,,,,,,,,,,,,,,,,,,,,,,,,,,,,,,,,,,,,,,,,,,,,,,,,,,,,,,,,,,,,,,,,,,,,,,,,,,,,,,,,,,,,,,,,,,,,,,,,,,,,,,,,,,,,
,,,,,,5ebeb4d5c03b440f47f505fc,62c539eca9e5fb366c1df9a8,2022-07-06_10h32.17.303,Colour_Asymmetry_Pilot,2022.1.3,Win32,60.09254252,62c50e9c1127f2cd403a315f,0,116,116,101,1,threefour,,,,,,,,,,,,,,,,,,,,,,,,,,,,,,,,,,,,,,,,,,,,,,,,,,,,,,,,,,,,,,,,,,,,,,,,,,,,,,,,,,,,,,,,,,,,,,,,,,,,,,,,,,,,,,,,,,,,,,,,,,,,,,,,,,,,,,,,,,,,,,,,,,,,,,,,,,,,,
,,,,,,5ebeb4d5c03b440f47f505fc,62c539eca9e5fb366c1df9a8,2022-07-06_10h32.17.303,Colour_Asymmetry_Pilot,2022.1.3,Win32,60.09254252,62c50e9c1127f2cd403a315f,0,117,117,6,1,fourtwo,,,,,,,,,,,,,,,,,,,,,,,,,,,,,,,,,,,,,,,,,,,,,,,,,,,,,,,,,,,,,,,,,,,,,,,,,,,,,,,,,,,,,,,,,,,,,,,,,,,,,,,,,,,,,,,,,,,,,,,,,,,,,,,,,,,,,,,,,,,,,,,,,,,,,,,,,,,,,
,,,,,,5ebeb4d5c03b440f47f505fc,62c539eca9e5fb366c1df9a8,2022-07-06_10h32.17.303,Colour_Asymmetry_Pilot,2022.1.3,Win32,60.09254252,62c50e9c1127f2cd403a315f,0,118,118,104,1,onetwo,,,,,,,,,,,,,,,,,,,,,,,,,,,,,,,,,,,,,,,,,,,,,,,,,,,,,,,,,,,,,,,,,,,,,,,,,,,,,,,,,,,,,,,,,,,,,,,,,,,,,,,,,,,,,,,,,,,,,,,,,,,,,,,,,,,,,,,,,,,,,,,,,,,,,,,,,,,,,
,,,,,,5ebeb4d5c03b440f47f505fc,62c539eca9e5fb366c1df9a8,2022-07-06_10h32.17.303,Colour_Asymmetry_Pilot,2022.1.3,Win32,60.09254252,62c50e9c1127f2cd403a315f,0,119,119,76,1,threeone,,,,,,,,,,,,,,,,,,,,,,,,,,,,,,,,,,,,,,,,,,,,,,,,,,,,,,,,,,,,,,,,,,,,,,,,,,,,,,,,,,,,,,,,,,,,,,,,,,,,,,,,,,,,,,,,,,,,,,,,,,,,,,,,,,,,,,,,,,,,,,,,,,,,,,,,,,,,,
,,,,,,5ebeb4d5c03b440f47f505fc,62c539eca9e5fb366c1df9a8,2022-07-06_10h32.17.303,Colour_Asymmetry_Pilot,2022.1.3,Win32,60.09254252,62c50e9c1127f2cd403a315f,0,120,120,58,1,twoone,,,,,,,,,,,,,,,,,,,,,,,,,,,,,,,,,,,,,,,,,,,,,,,,,,,,,,,,,,,,,,,,,,,,,,,,,,,,,,,,,,,,,,,,,,,,,,,,,,,,,,,,,,,,,,,,,,,,,,,,,,,,,,,,,,,,,,,,,,,,,,,,,,,,,,,,,,,,,
,,,,,,5ebeb4d5c03b440f47f505fc,62c539eca9e5fb366c1df9a8,2022-07-06_10h32.17.303,Colour_Asymmetry_Pilot,2022.1.3,Win32,60.09254252,62c50e9c1127f2cd403a315f,0,121,121,123,1,twofour,,,,,,,,,,,,,,,,,,,,,,,,,,,,,,,,,,,,,,,,,,,,,,,,,,,,,,,,,,,,,,,,,,,,,,,,,,,,,,,,,,,,,,,,,,,,,,,,,,,,,,,,,,,,,,,,,,,,,,,,,,,,,,,,,,,,,,,,,,,,,,,,,,,,,,,,,,,,,
,,,,,,5ebeb4d5c03b440f47f505fc,62c539eca9e5fb366c1df9a8,2022-07-06_10h32.17.303,Colour_Asymmetry_Pilot,2022.1.3,Win32,60.09254252,62c50e9c1127f2cd403a315f,0,122,122,89,1,onethree,,,,,,,,,,,,,,,,,,,,,,,,,,,,,,,,,,,,,,,,,,,,,,,,,,,,,,,,,,,,,,,,,,,,,,,,,,,,,,,,,,,,,,,,,,,,,,,,,,,,,,,,,,,,,,,,,,,,,,,,,,,,,,,,,,,,,,,,,,,,,,,,,,,,,,,,,,,,,
,,,,,,5ebeb4d5c03b440f47f505fc,62c539eca9e5fb366c1df9a8,2022-07-06_10h32.17.303,Colour_Asymmetry_Pilot,2022.1.3,Win32,60.09254252,62c50e9c1127f2cd403a315f,0,123,123,47,1,fourthree,,,,,,,,,,,,,,,,,,,,,,,,,,,,,,,,,,,,,,,,,,,,,,,,,,,,,,,,,,,,,,,,,,,,,,,,,,,,,,,,,,,,,,,,,,,,,,,,,,,,,,,,,,,,,,,,,,,,,,,,,,,,,,,,,,,,,,,,,,,,,,,,,,,,,,,,,,,,,
,,,,,,5ebeb4d5c03b440f47f505fc,62c539eca9e5fb366c1df9a8,2022-07-06_10h32.17.303,Colour_Asymmetry_Pilot,2022.1.3,Win32,60.09254252,62c50e9c1127f2cd403a315f,0,124,124,159,1,fourthree,,,,,,,,,,,,,,,,,,,,,,,,,,,,,,,,,,,,,,,,,,,,,,,,,,,,,,,,,,,,,,,,,,,,,,,,,,,,,,,,,,,,,,,,,,,,,,,,,,,,,,,,,,,,,,,,,,,,,,,,,,,,,,,,,,,,,,,,,,,,,,,,,,,,,,,,,,,,,
,,,,,,5ebeb4d5c03b440f47f505fc,62c539eca9e5fb366c1df9a8,2022-07-06_10h32.17.303,Colour_Asymmetry_Pilot,2022.1.3,Win32,60.09254252,62c50e9c1127f2cd403a315f,0,125,125,158,1,fourtwo,,,,,,,,,,,,,,,,,,,,,,,,,,,,,,,,,,,,,,,,,,,,,,,,,,,,,,,,,,,,,,,,,,,,,,,,,,,,,,,,,,,,,,,,,,,,,,,,,,,,,,,,,,,,,,,,,,,,,,,,,,,,,,,,,,,,,,,,,,,,,,,,,,,,,,,,,,,,,
,,,,,,5ebeb4d5c03b440f47f505fc,62c539eca9e5fb366c1df9a8,2022-07-06_10h32.17.303,Colour_Asymmetry_Pilot,2022.1.3,Win32,60.09254252,62c50e9c1127f2cd403a315f,0,126,126,22,1,fourtwo,,,,,,,,,,,,,,,,,,,,,,,,,,,,,,,,,,,,,,,,,,,,,,,,,,,,,,,,,,,,,,,,,,,,,,,,,,,,,,,,,,,,,,,,,,,,,,,,,,,,,,,,,,,,,,,,,,,,,,,,,,,,,,,,,,,,,,,,,,,,,,,,,,,,,,,,,,,,,
,,,,,,5ebeb4d5c03b440f47f505fc,62c539eca9e5fb366c1df9a8,2022-07-06_10h32.17.303,Colour_Asymmetry_Pilot,2022.1.3,Win32,60.09254252,62c50e9c1127f2cd403a315f,0,127,127,99,1,twofour,,,,,,,,,,,,,,,,,,,,,,,,,,,,,,,,,,,,,,,,,,,,,,,,,,,,,,,,,,,,,,,,,,,,,,,,,,,,,,,,,,,,,,,,,,,,,,,,,,,,,,,,,,,,,,,,,,,,,,,,,,,,,,,,,,,,,,,,,,,,,,,,,,,,,,,,,,,,,
,,,,,,5ebeb4d5c03b440f47f505fc,62c539eca9e5fb366c1df9a8,2022-07-06_10h32.17.303,Colour_Asymmetry_Pilot,2022.1.3,Win32,60.09254252,62c50e9c1127f2cd403a315f,0,128,128,91,1,twofour,,,,,,,,,,,,,,,,,,,,,,,,,,,,,,,,,,,,,,,,,,,,,,,,,,,,,,,,,,,,,,,,,,,,,,,,,,,,,,,,,,,,,,,,,,,,,,,,,,,,,,,,,,,,,,,,,,,,,,,,,,,,,,,,,,,,,,,,,,,,,,,,,,,,,,,,,,,,,
,,,,,,5ebeb4d5c03b440f47f505fc,62c539eca9e5fb366c1df9a8,2022-07-06_10h32.17.303,Colour_Asymmetry_Pilot,2022.1.3,Win32,60.09254252,62c50e9c1127f2cd403a315f,0,129,129,106,1,twoone,,,,,,,,,,,,,,,,,,,,,,,,,,,,,,,,,,,,,,,,,,,,,,,,,,,,,,,,,,,,,,,,,,,,,,,,,,,,,,,,,,,,,,,,,,,,,,,,,,,,,,,,,,,,,,,,,,,,,,,,,,,,,,,,,,,,,,,,,,,,,,,,,,,,,,,,,,,,,
,,,,,,5ebeb4d5c03b440f47f505fc,62c539eca9e5fb366c1df9a8,2022-07-06_10h32.17.303,Colour_Asymmetry_Pilot,2022.1.3,Win32,60.09254252,62c50e9c1127f2cd403a315f,0,130,130,153,1,onethree,,,,,,,,,,,,,,,,,,,,,,,,,,,,,,,,,,,,,,,,,,,,,,,,,,,,,,,,,,,,,,,,,,,,,,,,,,,,,,,,,,,,,,,,,,,,,,,,,,,,,,,,,,,,,,,,,,,,,,,,,,,,,,,,,,,,,,,,,,,,,,,,,,,,,,,,,,,,,
,,,,,,5ebeb4d5c03b440f47f505fc,62c539eca9e5fb366c1df9a8,2022-07-06_10h32.17.303,Colour_Asymmetry_Pilot,2022.1.3,Win32,60.09254252,62c50e9c1127f2cd403a315f,0,131,131,116,1,threeone,,,,,,,,,,,,,,,,,,,,,,,,,,,,,,,,,,,,,,,,,,,,,,,,,,,,,,,,,,,,,,,,,,,,,,,,,,,,,,,,,,,,,,,,,,,,,,,,,,,,,,,,,,,,,,,,,,,,,,,,,,,,,,,,,,,,,,,,,,,,,,,,,,,,,,,,,,,,,
,,,,,,5ebeb4d5c03b440f47f505fc,62c539eca9e5fb366c1df9a8,2022-07-06_10h32.17.303,Colour_Asymmetry_Pilot,2022.1.3,Win32,60.09254252,62c50e9c1127f2cd403a315f,0,132,132,46,1,fourtwo,,,,,,,,,,,,,,,,,,,,,,,,,,,,,,,,,,,,,,,,,,,,,,,,,,,,,,,,,,,,,,,,,,,,,,,,,,,,,,,,,,,,,,,,,,,,,,,,,,,,,,,,,,,,,,,,,,,,,,,,,,,,,,,,,,,,,,,,,,,,,,,,,,,,,,,,,,,,,
,,,,,,5ebeb4d5c03b440f47f505fc,62c539eca9e5fb366c1df9a8,2022-07-06_10h32.17.303,Colour_Asymmetry_Pilot,2022.1.3,Win32,60.09254252,62c50e9c1127f2cd403a315f,0,133,133,39,1,fourthree,,,,,,,,,,,,,,,,,,,,,,,,,,,,,,,,,,,,,,,,,,,,,,,,,,,,,,,,,,,,,,,,,,,,,,,,,,,,,,,,,,,,,,,,,,,,,,,,,,,,,,,,,,,,,,,,,,,,,,,,,,,,,,,,,,,,,,,,,,,,,,,,,,,,,,,,,,,,,
,,,,,,5ebeb4d5c03b440f47f505fc,62c539eca9e5fb366c1df9a8,2022-07-06_10h32.17.303,Colour_Asymmetry_Pilot,2022.1.3,Win32,60.09254252,62c50e9c1127f2cd403a315f,0,134,134,23,1,fourthree,,,,,,,,,,,,,,,,,,,,,,,,,,,,,,,,,,,,,,,,,,,,,,,,,,,,,,,,,,,,,,,,,,,,,,,,,,,,,,,,,,,,,,,,,,,,,,,,,,,,,,,,,,,,,,,,,,,,,,,,,,,,,,,,,,,,,,,,,,,,,,,,,,,,,,,,,,,,,
,,,,,,5ebeb4d5c03b440f47f505fc,62c539eca9e5fb366c1df9a8,2022-07-06_10h32.17.303,Colour_Asymmetry_Pilot,2022.1.3,Win32,60.09254252,62c50e9c1127f2cd403a315f,0,135,135,27,1,twofour,,,,,,,,,,,,,,,,,,,,,,,,,,,,,,,,,,,,,,,,,,,,,,,,,,,,,,,,,,,,,,,,,,,,,,,,,,,,,,,,,,,,,,,,,,,,,,,,,,,,,,,,,,,,,,,,,,,,,,,,,,,,,,,,,,,,,,,,,,,,,,,,,,,,,,,,,,,,,
,,,,,,5ebeb4d5c03b440f47f505fc,62c539eca9e5fb366c1df9a8,2022-07-06_10h32.17.303,Colour_Asymmetry_Pilot,2022.1.3,Win32,60.09254252,62c50e9c1127f2cd403a315f,0,136,136,105,1,onethree,,,,,,,,,,,,,,,,,,,,,,,,,,,,,,,,,,,,,,,,,,,,,,,,,,,,,,,,,,,,,,,,,,,,,,,,,,,,,,,,,,,,,,,,,,,,,,,,,,,,,,,,,,,,,,,,,,,,,,,,,,,,,,,,,,,,,,,,,,,,,,,,,,,,,,,,,,,,,
,,,,,,5ebeb4d5c03b440f47f505fc,62c539eca9e5fb366c1df9a8,2022-07-06_10h32.17.303,Colour_Asymmetry_Pilot,2022.1.3,Win32,60.09254252,62c50e9c1127f2cd403a315f,0,137,137,57,1,onethree,,,,,,,,,,,,,,,,,,,,,,,,,,,,,,,,,,,,,,,,,,,,,,,,,,,,,,,,,,,,,,,,,,,,,,,,,,,,,,,,,,,,,,,,,,,,,,,,,,,,,,,,,,,,,,,,,,,,,,,,,,,,,,,,,,,,,,,,,,,,,,,,,,,,,,,,,,,,,
,,,,,,5ebeb4d5c03b440f47f505fc,62c539eca9e5fb366c1df9a8,2022-07-06_10h32.17.303,Colour_Asymmetry_Pilot,2022.1.3,Win32,60.09254252,62c50e9c1127f2cd403a315f,0,138,138,113,1,onethree,,,,,,,,,,,,,,,,,,,,,,,,,,,,,,,,,,,,,,,,,,,,,,,,,,,,,,,,,,,,,,,,,,,,,,,,,,,,,,,,,,,,,,,,,,,,,,,,,,,,,,,,,,,,,,,,,,,,,,,,,,,,,,,,,,,,,,,,,,,,,,,,,,,,,,,,,,,,,
,,,,,,5ebeb4d5c03b440f47f505fc,62c539eca9e5fb366c1df9a8,2022-07-06_10h32.17.303,Colour_Asymmetry_Pilot,2022.1.3,Win32,60.09254252,62c50e9c1127f2cd403a315f,0,139,139,108,1,threeone,,,,,,,,,,,,,,,,,,,,,,,,,,,,,,,,,,,,,,,,,,,,,,,,,,,,,,,,,,,,,,,,,,,,,,,,,,,,,,,,,,,,,,,,,,,,,,,,,,,,,,,,,,,,,,,,,,,,,,,,,,,,,,,,,,,,,,,,,,,,,,,,,,,,,,,,,,,,,
,,,,,,5ebeb4d5c03b440f47f505fc,62c539eca9e5fb366c1df9a8,2022-07-06_10h32.17.303,Colour_Asymmetry_Pilot,2022.1.3,Win32,60.09254252,62c50e9c1127f2cd403a315f,0,140,140,119,1,fourthree,,,,,,,,,,,,,,,,,,,,,,,,,,,,,,,,,,,,,,,,,,,,,,,,,,,,,,,,,,,,,,,,,,,,,,,,,,,,,,,,,,,,,,,,,,,,,,,,,,,,,,,,,,,,,,,,,,,,,,,,,,,,,,,,,,,,,,,,,,,,,,,,,,,,,,,,,,,,,
,,,,,,5ebeb4d5c03b440f47f505fc,62c539eca9e5fb366c1df9a8,2022-07-06_10h32.17.303,Colour_Asymmetry_Pilot,2022.1.3,Win32,60.09254252,62c50e9c1127f2cd403a315f,0,141,141,37,1,threefour,,,,,,,,,,,,,,,,,,,,,,,,,,,,,,,,,,,,,,,,,,,,,,,,,,,,,,,,,,,,,,,,,,,,,,,,,,,,,,,,,,,,,,,,,,,,,,,,,,,,,,,,,,,,,,,,,,,,,,,,,,,,,,,,,,,,,,,,,,,,,,,,,,,,,,,,,,,,,
,,,,,,5ebeb4d5c03b440f47f505fc,62c539eca9e5fb366c1df9a8,2022-07-06_10h32.17.303,Colour_Asymmetry_Pilot,2022.1.3,Win32,60.09254252,62c50e9c1127f2cd403a315f,0,142,142,85,1,threefour,,,,,,,,,,,,,,,,,,,,,,,,,,,,,,,,,,,,,,,,,,,,,,,,,,,,,,,,,,,,,,,,,,,,,,,,,,,,,,,,,,,,,,,,,,,,,,,,,,,,,,,,,,,,,,,,,,,,,,,,,,,,,,,,,,,,,,,,,,,,,,,,,,,,,,,,,,,,,
,,,,,,5ebeb4d5c03b440f47f505fc,62c539eca9e5fb366c1df9a8,2022-07-06_10h32.17.303,Colour_Asymmetry_Pilot,2022.1.3,Win32,60.09254252,62c50e9c1127f2cd403a315f,0,143,143,70,1,fourtwo,,,,,,,,,,,,,,,,,,,,,,,,,,,,,,,,,,,,,,,,,,,,,,,,,,,,,,,,,,,,,,,,,,,,,,,,,,,,,,,,,,,,,,,,,,,,,,,,,,,,,,,,,,,,,,,,,,,,,,,,,,,,,,,,,,,,,,,,,,,,,,,,,,,,,,,,,,,,,
,,,,,,5ebeb4d5c03b440f47f505fc,62c539eca9e5fb366c1df9a8,2022-07-06_10h32.17.303,Colour_Asymmetry_Pilot,2022.1.3,Win32,60.09254252,62c50e9c1127f2cd403a315f,0,144,144,121,1,onethree,,,,,,,,,,,,,,,,,,,,,,,,,,,,,,,,,,,,,,,,,,,,,,,,,,,,,,,,,,,,,,,,,,,,,,,,,,,,,,,,,,,,,,,,,,,,,,,,,,,,,,,,,,,,,,,,,,,,,,,,,,,,,,,,,,,,,,,,,,,,,,,,,,,,,,,,,,,,,
,,,,,,5ebeb4d5c03b440f47f505fc,62c539eca9e5fb366c1df9a8,2022-07-06_10h32.17.303,Colour_Asymmetry_Pilot,2022.1.3,Win32,60.09254252,62c50e9c1127f2cd403a315f,0,145,145,144,1,onetwo,,,,,,,,,,,,,,,,,,,,,,,,,,,,,,,,,,,,,,,,,,,,,,,,,,,,,,,,,,,,,,,,,,,,,,,,,,,,,,,,,,,,,,,,,,,,,,,,,,,,,,,,,,,,,,,,,,,,,,,,,,,,,,,,,,,,,,,,,,,,,,,,,,,,,,,,,,,,,
,,,,,,5ebeb4d5c03b440f47f505fc,62c539eca9e5fb366c1df9a8,2022-07-06_10h32.17.303,Colour_Asymmetry_Pilot,2022.1.3,Win32,60.09254252,62c50e9c1127f2cd403a315f,0,146,146,82,1,twoone,,,,,,,,,,,,,,,,,,,,,,,,,,,,,,,,,,,,,,,,,,,,,,,,,,,,,,,,,,,,,,,,,,,,,,,,,,,,,,,,,,,,,,,,,,,,,,,,,,,,,,,,,,,,,,,,,,,,,,,,,,,,,,,,,,,,,,,,,,,,,,,,,,,,,,,,,,,,,
,,,,,,5ebeb4d5c03b440f47f505fc,62c539eca9e5fb366c1df9a8,2022-07-06_10h32.17.303,Colour_Asymmetry_Pilot,2022.1.3,Win32,60.09254252,62c50e9c1127f2cd403a315f,0,147,147,13,1,threefour,,,,,,,,,,,,,,,,,,,,,,,,,,,,,,,,,,,,,,,,,,,,,,,,,,,,,,,,,,,,,,,,,,,,,,,,,,,,,,,,,,,,,,,,,,,,,,,,,,,,,,,,,,,,,,,,,,,,,,,,,,,,,,,,,,,,,,,,,,,,,,,,,,,,,,,,,,,,,
,,,,,,5ebeb4d5c03b440f47f505fc,62c539eca9e5fb366c1df9a8,2022-07-06_10h32.17.303,Colour_Asymmetry_Pilot,2022.1.3,Win32,60.09254252,62c50e9c1127f2cd403a315f,0,148,148,24,1,onetwo,,,,,,,,,,,,,,,,,,,,,,,,,,,,,,,,,,,,,,,,,,,,,,,,,,,,,,,,,,,,,,,,,,,,,,,,,,,,,,,,,,,,,,,,,,,,,,,,,,,,,,,,,,,,,,,,,,,,,,,,,,,,,,,,,,,,,,,,,,,,,,,,,,,,,,,,,,,,,
,,,,,,5ebeb4d5c03b440f47f505fc,62c539eca9e5fb366c1df9a8,2022-07-06_10h32.17.303,Colour_Asymmetry_Pilot,2022.1.3,Win32,60.09254252,62c50e9c1127f2cd403a315f,0,149,149,146,1,twoone,,,,,,,,,,,,,,,,,,,,,,,,,,,,,,,,,,,,,,,,,,,,,,,,,,,,,,,,,,,,,,,,,,,,,,,,,,,,,,,,,,,,,,,,,,,,,,,,,,,,,,,,,,,,,,,,,,,,,,,,,,,,,,,,,,,,,,,,,,,,,,,,,,,,,,,,,,,,,
,,,,,,5ebeb4d5c03b440f47f505fc,62c539eca9e5fb366c1df9a8,2022-07-06_10h32.17.303,Colour_Asymmetry_Pilot,2022.1.3,Win32,60.09254252,62c50e9c1127f2cd403a315f,0,150,150,145,1,onethree,,,,,,,,,,,,,,,,,,,,,,,,,,,,,,,,,,,,,,,,,,,,,,,,,,,,,,,,,,,,,,,,,,,,,,,,,,,,,,,,,,,,,,,,,,,,,,,,,,,,,,,,,,,,,,,,,,,,,,,,,,,,,,,,,,,,,,,,,,,,,,,,,,,,,,,,,,,,,
,,,,,,5ebeb4d5c03b440f47f505fc,62c539eca9e5fb366c1df9a8,2022-07-06_10h32.17.303,Colour_Asymmetry_Pilot,2022.1.3,Win32,60.09254252,62c50e9c1127f2cd403a315f,0,151,151,124,1,threeone,,,,,,,,,,,,,,,,,,,,,,,,,,,,,,,,,,,,,,,,,,,,,,,,,,,,,,,,,,,,,,,,,,,,,,,,,,,,,,,,,,,,,,,,,,,,,,,,,,,,,,,,,,,,,,,,,,,,,,,,,,,,,,,,,,,,,,,,,,,,,,,,,,,,,,,,,,,,,
,,,,,,5ebeb4d5c03b440f47f505fc,62c539eca9e5fb366c1df9a8,2022-07-06_10h32.17.303,Colour_Asymmetry_Pilot,2022.1.3,Win32,60.09254252,62c50e9c1127f2cd403a315f,0,152,152,75,1,twofour,,,,,,,,,,,,,,,,,,,,,,,,,,,,,,,,,,,,,,,,,,,,,,,,,,,,,,,,,,,,,,,,,,,,,,,,,,,,,,,,,,,,,,,,,,,,,,,,,,,,,,,,,,,,,,,,,,,,,,,,,,,,,,,,,,,,,,,,,,,,,,,,,,,,,,,,,,,,,
,,,,,,5ebeb4d5c03b440f47f505fc,62c539eca9e5fb366c1df9a8,2022-07-06_10h32.17.303,Colour_Asymmetry_Pilot,2022.1.3,Win32,60.09254252,62c50e9c1127f2cd403a315f,0,153,153,62,1,fourtwo,,,,,,,,,,,,,,,,,,,,,,,,,,,,,,,,,,,,,,,,,,,,,,,,,,,,,,,,,,,,,,,,,,,,,,,,,,,,,,,,,,,,,,,,,,,,,,,,,,,,,,,,,,,,,,,,,,,,,,,,,,,,,,,,,,,,,,,,,,,,,,,,,,,,,,,,,,,,,
,,,,,,5ebeb4d5c03b440f47f505fc,62c539eca9e5fb366c1df9a8,2022-07-06_10h32.17.303,Colour_Asymmetry_Pilot,2022.1.3,Win32,60.09254252,62c50e9c1127f2cd403a315f,0,154,154,103,1,fourthree,,,,,,,,,,,,,,,,,,,,,,,,,,,,,,,,,,,,,,,,,,,,,,,,,,,,,,,,,,,,,,,,,,,,,,,,,,,,,,,,,,,,,,,,,,,,,,,,,,,,,,,,,,,,,,,,,,,,,,,,,,,,,,,,,,,,,,,,,,,,,,,,,,,,,,,,,,,,,
,,,,,,5ebeb4d5c03b440f47f505fc,62c539eca9e5fb366c1df9a8,2022-07-06_10h32.17.303,Colour_Asymmetry_Pilot,2022.1.3,Win32,60.09254252,62c50e9c1127f2cd403a315f,0,155,155,10,1,twoone,,,,,,,,,,,,,,,,,,,,,,,,,,,,,,,,,,,,,,,,,,,,,,,,,,,,,,,,,,,,,,,,,,,,,,,,,,,,,,,,,,,,,,,,,,,,,,,,,,,,,,,,,,,,,,,,,,,,,,,,,,,,,,,,,,,,,,,,,,,,,,,,,,,,,,,,,,,,,
,,,,,,5ebeb4d5c03b440f47f505fc,62c539eca9e5fb366c1df9a8,2022-07-06_10h32.17.303,Colour_Asymmetry_Pilot,2022.1.3,Win32,60.09254252,62c50e9c1127f2cd403a315f,0,156,156,148,1,threeone,,,,,,,,,,,,,,,,,,,,,,,,,,,,,,,,,,,,,,,,,,,,,,,,,,,,,,,,,,,,,,,,,,,,,,,,,,,,,,,,,,,,,,,,,,,,,,,,,,,,,,,,,,,,,,,,,,,,,,,,,,,,,,,,,,,,,,,,,,,,,,,,,,,,,,,,,,,,,
,,,,,,5ebeb4d5c03b440f47f505fc,62c539eca9e5fb366c1df9a8,2022-07-06_10h32.17.303,Colour_Asymmetry_Pilot,2022.1.3,Win32,60.09254252,62c50e9c1127f2cd403a315f,0,157,157,50,1,twoone,,,,,,,,,,,,,,,,,,,,,,,,,,,,,,,,,,,,,,,,,,,,,,,,,,,,,,,,,,,,,,,,,,,,,,,,,,,,,,,,,,,,,,,,,,,,,,,,,,,,,,,,,,,,,,,,,,,,,,,,,,,,,,,,,,,,,,,,,,,,,,,,,,,,,,,,,,,,,
,,,,,,5ebeb4d5c03b440f47f505fc,62c539eca9e5fb366c1df9a8,2022-07-06_10h32.17.303,Colour_Asymmetry_Pilot,2022.1.3,Win32,60.09254252,62c50e9c1127f2cd403a315f,0,158,158,25,1,onethree,,,,,,,,,,,,,,,,,,,,,,,,,,,,,,,,,,,,,,,,,,,,,,,,,,,,,,,,,,,,,,,,,,,,,,,,,,,,,,,,,,,,,,,,,,,,,,,,,,,,,,,,,,,,,,,,,,,,,,,,,,,,,,,,,,,,,,,,,,,,,,,,,,,,,,,,,,,,,
,,,,,,5ebeb4d5c03b440f47f505fc,62c539eca9e5fb366c1df9a8,2022-07-06_10h32.17.303,Colour_Asymmetry_Pilot,2022.1.3,Win32,60.09254252,62c50e9c1127f2cd403a315f,0,159,159,26,1,twoone,,,,,,,,,,,,,,,,,,,,,,,,,,,,,,,,,,,,,,,,,,,,,,,,,,,,,,,,,,,,,,,,,,,,,,,,,,,,,,,,,,,,,,,,,,,,,,,,,,,,,,,,,,,,,,,,,,,,,,,,,,,,,,,,,,,,,,,,,,,,,,,,,,,,,,,,,,,,,
,,,,,,5ebeb4d5c03b440f47f505fc,62c539eca9e5fb366c1df9a8,2022-07-06_10h32.17.303,Colour_Asymmetry_Pilot,2022.1.3,Win32,60.09254252,62c50e9c1127f2cd403a315f,0,160,160,117,1,threefour,,,,,,,,,,,,,,,,,,,,,,,,,,,,,,,,,,,,,,,,,,,,,,,,,,,,,,,,,,,,,,,,,,,,,,,,,,,,,,,,,,,,,,,,,,,,,,,,,,,,,,,,,,,,,,,,,,,,,,,,,,,,,,,,,,,,,,,,,,,,,,,,,,,,,,,,,,,,,
,,,,,,5ebeb4d5c03b440f47f505fc,62c539eca9e5fb366c1df9a8,2022-07-06_10h32.17.303,Colour_Asymmetry_Pilot,2022.1.3,Win32,60.09254252,62c50e9c1127f2cd403a315f,0,161,161,44,1,threeone,,,,,,,,,,,,,,,,,,,,,,,,,,,,,,,,,,,,,,,,,,,,,,,,,,,,,,,,,,,,,,,,,,,,,,,,,,,,,,,,,,,,,,,,,,,,,,,,,,,,,,,,,,,,,,,,,,,,,,,,,,,,,,,,,,,,,,,,,,,,,,,,,,,,,,,,,,,,,
,,,,,,5ebeb4d5c03b440f47f505fc,62c539eca9e5fb366c1df9a8,2022-07-06_10h32.17.303,Colour_Asymmetry_Pilot,2022.1.3,Win32,60.09254252,62c50e9c1127f2cd403a315f,,,,,,,space,1.699,space,2.0904,space,19.0196,space,5.3138,space,2.4194,space,12.0743,"[0.0351999999999999,0.41159999999999997,0.0038000000000000256]",twoone,"[-0.30200000000000005,0.14500000000000002,0.2784]",-4,5.4322,-60,116.7999878,1,0,0,response7disk_5,12.79998779,6.399993896,1,0,0,rectangle_8,12.79998779,6.399993896,1,0,0,3,12.79998779,6.399993896,1,0,0,0,0,0,0,1,,,,,,,,,,,,,,,,,,,,,,,,,,,,,,,,,,,,,,,,,,,,,,,,,,,,,,,,,,,,,,,,,,,,,,,,,,,,,,,,,,,,,,,,,,,,,,,,,,,,,,,,,,,,,,,,
,,,,,,5ebeb4d5c03b440f47f505fc,62c539eca9e5fb366c1df9a8,2022-07-06_10h32.17.303,Colour_Asymmetry_Pilot,2022.1.3,Win32,60.09254252,62c50e9c1127f2cd403a315f,,,,,,,,,,,,,,,,,,,"[0.22340000000000004,-0.9296,-0.7884]",threeone,"[0.7646000000000002,0.07440000000000002,0.2704]",-3,3.4178,-102.3999634,30.3999939,1,0,0,response7disk_5,16,-5.600006104,1,0,0,rectangle_8,124.7999878,47.19998169,1,0,0,3,3.200012207,-0.800018311,1,0,0,1,0,1,0,1,response1disk_7,6,rectangle_4,,,,,,,,,,,,,,,,,,,,,,,,,,,,,,,,,,,,,,,,,,,,,,,,,,,,,,,,,,,,,,,,,,,,,,,,,,,,,,,,,,,,,,,,,,,,,,,,,,,,,,,,,,,,,
,,,,,,5ebeb4d5c03b440f47f505fc,62c539eca9e5fb366c1df9a8,2022-07-06_10h32.17.303,Colour_Asymmetry_Pilot,2022.1.3,Win32,60.09254252,62c50e9c1127f2cd403a315f,,,,,,,,,,,,,,,,,,,"[-0.30200000000000005,0.14500000000000002,0.2784]",onetwo,"[-0.4982,-0.2942,-0.0354000000000001]",1,2.9006,59.20001221,-92,1,0,0,response3disk_5,16,1.600006104,1,0,0,rectangle_8,16,1.600006104,1,0,0,3,16,1.600006104,1,0,0,2,0,2,0,1,,,,,,,,,,,,,,,,,,,,,,,,,,,,,,,,,,,,,,,,,,,,,,,,,,,,,,,,,,,,,,,,,,,,,,,,,,,,,,,,,,,,,,,,,,,,,,,,,,,,,,,,,,,,,,,,
,,,,,,5ebeb4d5c03b440f47f505fc,62c539eca9e5fb366c1df9a8,2022-07-06_10h32.17.303,Colour_Asymmetry_Pilot,2022.1.3,Win32,60.09254252,62c50e9c1127f2cd403a315f,,,,,,,,,,,,,,,,,,,"[-0.9688,-0.4902000000000001,-0.12159999999999993]",twoone,"[-0.10599999999999998,-0.15300000000000002,0.15280000000000005]",2,1.1734,88.79998779,-44,1,0,0,response3disk_5,-4,-4,1,0,0,rectangle_8,-4,-4,1,0,0,3,-4,-4,1,0,0,3,0,3,0,1,,,,,,,,,,,,,,,,,,,,,,,,,,,,,,,,,,,,,,,,,,,,,,,,,,,,,,,,,,,,,,,,,,,,,,,,,,,,,,,,,,,,,,,,,,,,,,,,,,,,,,,,,,,,,,,,
,,,,,,5ebeb4d5c03b440f47f505fc,62c539eca9e5fb366c1df9a8,2022-07-06_10h32.17.303,Colour_Asymmetry_Pilot,2022.1.3,Win32,60.09254252,62c50e9c1127f2cd403a315f,,,,,,,,,,,,,,,,,,,"[0.7802,-0.23140000000000005,-0.20799999999999996]",fourtwo,"[0.9372,0.20779999999999998,0.2704]",1,1.3782,65.60003662,-87.20001221,1,0,0,response3disk_5,-7.200012207,5.600006104,1,0,0,rectangle_8,-7.200012207,5.600006104,1,0,0,3,-7.200012207,5.600006104,1,0,0,4,0,4,0,1,,,,,,,,,,,,,,,,,,,,,,,,,,,,,,,,,,,,,,,,,,,,,,,,,,,,,,,,,,,,,,,,,,,,,,,,,,,,,,,,,,,,,,,,,,,,,,,,,,,,,,,,,,,,,,,,
,,,,,,5ebeb4d5c03b440f47f505fc,62c539eca9e5fb366c1df9a8,2022-07-06_10h32.17.303,Colour_Asymmetry_Pilot,2022.1.3,Win32,60.09254252,62c50e9c1127f2cd403a315f,,,,,,,,,,,,,,,,,,,"[-0.6706000000000001,-0.6157999999999999,-0.6786]",threeone,"[0.05879999999999996,0.2784,0.5841999999999998]",-3,1.4668,-75.20001221,36,1,0,0,response7disk_5,-3.200012207,6.399993896,1,0,0,rectangle_8,97.60003662,34.3999939,1,0,0,3,15.20001221,0,1,0,0,5,0,5,0,1,response1disk_7,6,rectangle_4,,,,,,,,,,,,,,,,,,,,,,,,,,,,,,,,,,,,,,,,,,,,,,,,,,,,,,,,,,,,,,,,,,,,,,,,,,,,,,,,,,,,,,,,,,,,,,,,,,,,,,,,,,,,,
,,,,,,5ebeb4d5c03b440f47f505fc,62c539eca9e5fb366c1df9a8,2022-07-06_10h32.17.303,Colour_Asymmetry_Pilot,2022.1.3,Win32,60.09254252,62c50e9c1127f2cd403a315f,,,,,,,,,,,,,,,,,,,"[-0.8982,-0.37259999999999993,0.2784]",onetwo,"[-0.8982,-0.37259999999999993,0.2784]",4,1.8341,59.20001221,113.6000061,1,0,0,response1disk_5,2.400024414,5.600006104,1,0,0,rectangle_8,2.400024414,5.600006104,1,0,0,3,2.400024414,5.600006104,1,0,0,6,0,6,0,1,,,,,,,,,,,,,,,,,,,,,,,,,,,,,,,,,,,,,,,,,,,,,,,,,,,,,,,,,,,,,,,,,,,,,,,,,,,,,,,,,,,,,,,,,,,,,,,,,,,,,,,,,,,,,,,,
,,,,,,5ebeb4d5c03b440f47f505fc,62c539eca9e5fb366c1df9a8,2022-07-06_10h32.17.303,Colour_Asymmetry_Pilot,2022.1.3,Win32,60.09254252,62c50e9c1127f2cd403a315f,,,,,,,,,,,,,,,,,,,,fourtwo,,-3,1.3181,,,,,,,,,,,,,,,,,,,,,,,,,,,,,,,,space,2.1203,"[-0.5922000000000001,-0.7492000000000001,-0.5296000000000001]","[0.11359999999999992,0.6312,0.5213999999999999]",-87.20001221,32.79998779,1,0,0,response7disk,-6.399963379,2.399993896,1,0,0,rectangle,-6.399963379,2.399993896,1,0,0,,3,0.0029,0,-6.399963379,2.399993896,1,0,0,0,0,0,26,1,26,first,,,,,,,,,,,,,,,,,,,,,,,,,,,,,,,,,,,,,,,,,,,,,,,,,,,,,,,,,,,,,,,,,,,,,,,,
,,,,,,5ebeb4d5c03b440f47f505fc,62c539eca9e5fb366c1df9a8,2022-07-06_10h32.17.303,Colour_Asymmetry_Pilot,2022.1.3,Win32,60.09254252,62c50e9c1127f2cd403a315f,,,,,,,,,,,,,,,,,,,,fourtwo,,-4,0.7009,,,,,,,,,,,,,,,,,,,,,,,,,,,,,,,,,,"[0.0351999999999999,0.41159999999999997,0.0038000000000000256]","[0.37240000000000006,-0.050999999999999934,-0.5216]",-31.20001221,80,1,0,0,response7disk,-4,-8.800018311,1,0,0,rectangle,-4,-8.800018311,1,0,0,,1,0.0015,0,-4,-8.800018311,1,0,0,0,1,1,66,1,66,first,,,,,,,,,,,,,,,,,,,,,,,,,,,,,,,,,,,,,,,,,,,,,,,,,,,,,,,,,,,,,,,,,,,,,,,,
,,,,,,5ebeb4d5c03b440f47f505fc,62c539eca9e5fb366c1df9a8,2022-07-06_10h32.17.303,Colour_Asymmetry_Pilot,2022.1.3,Win32,60.09254252,62c50e9c1127f2cd403a315f,,,,,,,,,,,,,,,,,,,,twofour,,3,1.0175,,,,,,,,,,,,,,,,,,,,,,,,,,,,,,,,,,"[-0.8118,-0.8198,-0.5452]","[-0.9844,-0.9688,-0.9922]",92,48.79998779,1,0,0,response1disk,-4,3.199981689,1,0,0,rectangle,-4,3.199981689,1,0,0,,2,0.0014,0,-4,3.199981689,1,0,0,0,2,2,93,1,12,second,,,,,,,,,,,,,,,,,,,,,,,,,,,,,,,,,,,,,,,,,,,,,,,,,,,,,,,,,,,,,,,,,,,,,,,,
,,,,,,5ebeb4d5c03b440f47f505fc,62c539eca9e5fb366c1df9a8,2022-07-06_10h32.17.303,Colour_Asymmetry_Pilot,2022.1.3,Win32,60.09254252,62c50e9c1127f2cd403a315f,,,,,,,,,,,,,,,,,,,,fourtwo,,-1,3.5333,,,,,,,,,,,,,,,,,,,,,,,,,,,,,,,,,,"[0.3802000000000001,0.19199999999999995,-0.6394]","[0.7176,-0.906,-0.6864]",-57.59997559,-94.40002441,1,0,0,response5disk,15.20001221,-3.200012207,1,0,0,rectangle,15.20001221,-3.200012207,1,0,0,,3,0.0026,0,15.20001221,-3.200012207,1,0,0,0,3,3,115,1,34,second,,,,,,,,,,,,,,,,,,,,,,,,,,,,,,,,,,,,,,,,,,,,,,,,,,,,,,,,,,,,,,,,,,,,,,,,
,,,,,,5ebeb4d5c03b440f47f505fc,62c539eca9e5fb366c1df9a8,2022-07-06_10h32.17.303,Colour_Asymmetry_Pilot,2022.1.3,Win32,60.09254252,62c50e9c1127f2cd403a315f,,,,,,,,,,,,,,,,,,,,twoone,,2,1.3295,,,,,,,,,,,,,,,,,,,,,,,,,,,,,,,,,,"[0.5528,0.7409999999999999,-0.71]","[0.9213999999999998,0.6391999999999998,-0.9922]",96.79998779,-63.20001221,1,0,0,response3disk,1.600036621,4,1,0,0,rectangle,1.600036621,4,1,0,0,,1,0.0026,0,1.600036621,4,1,0,0,0,4,4,152,1,71,second,,,,,,,,,,,,,,,,,,,,,,,,,,,,,,,,,,,,,,,,,,,,,,,,,,,,,,,,,,,,,,,,,,,,,,,,
,,,,,,5ebeb4d5c03b440f47f505fc,62c539eca9e5fb366c1df9a8,2022-07-06_10h32.17.303,Colour_Asymmetry_Pilot,2022.1.3,Win32,60.09254252,62c50e9c1127f2cd403a315f,,,,,,,,,,,,,,,,,,,,fourthree,,-4,0.7615,,,,,,,,,,,,,,,,,,,,,,,,,,,,,,,,,,"[0.05879999999999996,0.2784,0.5841999999999998]","[0.3802000000000001,0.19199999999999995,-0.6394]",-30.39996338,52.79998779,1,0,0,response7disk,-15.20001221,0,1,0,0,rectangle,-15.20001221,0,1,0,0,,3,0.0021,0,-15.20001221,0,1,0,0,0,5,5,22,1,22,first,,,,,,,,,,,,,,,,,,,,,,,,,,,,,,,,,,,,,,,,,,,,,,,,,,,,,,,,,,,,,,,,,,,,,,,,
,,,,,,5ebeb4d5c03b440f47f505fc,62c539eca9e5fb366c1df9a8,2022-07-06_10h32.17.303,Colour_Asymmetry_Pilot,2022.1.3,Win32,60.09254252,62c50e9c1127f2cd403a315f,,,,,,,,,,,,,,,,,,,,onetwo,,-4,1.9126,,,,,,,,,,,,,,,,,,,,,,,,,,,,,,,,,,"[0.37240000000000006,-0.050999999999999934,-0.5216]","[0.12939999999999996,-0.2864,0.3253999999999999]",-61.59997559,104,1,0,0,response7disk,2.400024414,10.3999939,1,0,0,rectangle,2.400024414,10.3999939,1,0,0,,2,0.0017,0,2.400024414,10.3999939,1,0,0,0,6,6,27,1,27,first,,,,,,,,,,,,,,,,,,,,,,,,,,,,,,,,,,,,,,,,,,,,,,,,,,,,,,,,,,,,,,,,,,,,,,,,
,,,,,,5ebeb4d5c03b440f47f505fc,62c539eca9e5fb366c1df9a8,2022-07-06_10h32.17.303,Colour_Asymmetry_Pilot,2022.1.3,Win32,60.09254252,62c50e9c1127f2cd403a315f,,,,,,,,,,,,,,,,,,,,threeone,,2,1.2168,,,,,,,,,,,,,,,,,,,,,,,,,,,,,,,,,,"[-0.6706000000000001,-0.6157999999999999,-0.6786]","[-0.5688,-0.08239999999999992,-0.1844]",126.4000244,-67.20001221,1,0,0,response3disk,13.60003662,-4.800018311,1,0,0,rectangle,13.60003662,-4.800018311,1,0,0,,2,0.0002,0,13.60003662,-4.800018311,1,0,0,0,7,7,129,1,48,second,,,,,,,,,,,,,,,,,,,,,,,,,,,,,,,,,,,,,,,,,,,,,,,,,,,,,,,,,,,,,,,,,,,,,,,,
,,,,,,5ebeb4d5c03b440f47f505fc,62c539eca9e5fb366c1df9a8,2022-07-06_10h32.17.303,Colour_Asymmetry_Pilot,2022.1.3,Win32,60.09254252,62c50e9c1127f2cd403a315f,,,,,,,,,,,,,,,,,,,,onetwo,,3,0.9778,,,,,,,,,,,,,,,,,,,,,,,,,,,,,,,,,,"[-0.011800000000000033,-0.906,-0.45100000000000007]","[-0.34920000000000007,-0.702,-0.5216]",94.40002441,54.3999939,1,0,0,response1disk,6.400024414,0.799987793,1,0,0,rectangle,6.400024414,0.799987793,1,0,0,,3,0.0012,0,6.400024414,0.799987793,1,0,0,0,8,8,53,1,53,first,,,,,,,,,,,,,,,,,,,,,,,,,,,,,,,,,,,,,,,,,,,,,,,,,,,,,,,,,,,,,,,,,,,,,,,,
,,,,,,5ebeb4d5c03b440f47f505fc,62c539eca9e5fb366c1df9a8,2022-07-06_10h32.17.303,Colour_Asymmetry_Pilot,2022.1.3,Win32,60.09254252,62c50e9c1127f2cd403a315f,,,,,,,,,,,,,,,,,,,,fourtwo,,-4,0.6336,,,,,,,,,,,,,,,,,,,,,,,,,,,,,,,,,,"[0.09799999999999986,-0.24719999999999998,0.15280000000000005]","[-0.9138,-0.5296000000000001,-0.5529999999999999]",-50.39996338,50.3999939,1,0,0,response7disk,-1.599975586,4,1,0,0,rectangle,-55.20001221,-99.20001221,1,0,0,-1,1,3.0828,1,10.40002441,8,1,0,0,0,9,9,161,1,80,second,response5disk_3,rectangle,,,,,,,,,,,,,,,,,,,,,,,,,,,,,,,,,,,,,,,,,,,,,,,,,,,,,,,,,,,,,,,,,,,,,,
,,,,,,5ebeb4d5c03b440f47f505fc,62c539eca9e5fb366c1df9a8,2022-07-06_10h32.17.303,Colour_Asymmetry_Pilot,2022.1.3,Win32,60.09254252,62c50e9c1127f2cd403a315f,,,,,,,,,,,,,,,,,,,,fourthree,,-4,0.7838,,,,,,,,,,,,,,,,,,,,,,,,,,,,,,,,,,"[-0.9296,-0.12959999999999994,-0.043199999999999905]","[0.3568,-0.20799999999999996,-0.9844]",-79.20001221,115.1999817,1,0,0,response7disk,-8,1.600006104,1,0,0,rectangle,-8,1.600006104,1,0,0,-1,3,0.0017,0,-8,1.600006104,1,0,0,0,10,10,150,1,69,second,,,,,,,,,,,,,,,,,,,,,,,,,,,,,,,,,,,,,,,,,,,,,,,,,,,,,,,,,,,,,,,,,,,,,,,,
,,,,,,5ebeb4d5c03b440f47f505fc,62c539eca9e5fb366c1df9a8,2022-07-06_10h32.17.303,Colour_Asymmetry_Pilot,2022.1.3,Win32,60.09254252,62c50e9c1127f2cd403a315f,,,,,,,,,,,,,,,,,,,,onetwo,,-3,0.5795,,,,,,,,,,,,,,,,,,,,,,,,,,,,,,,,,,"[0.34099999999999997,0.12939999999999996,-0.9766]","[-0.9688,-0.38039999999999996,-0.41979999999999995]",-92.79998779,43.19998169,1,0,0,response7disk,-12,-8.800018311,1,0,0,rectangle,-12,-8.800018311,1,0,0,-1,1,0.0014,0,-12,-8.800018311,1,0,0,0,11,11,121,1,40,second,,,,,,,,,,,,,,,,,,,,,,,,,,,,,,,,,,,,,,,,,,,,,,,,,,,,,,,,,,,,,,,,,,,,,,,,
,,,,,,5ebeb4d5c03b440f47f505fc,62c539eca9e5fb366c1df9a8,2022-07-06_10h32.17.303,Colour_Asymmetry_Pilot,2022.1.3,Win32,60.09254252,62c50e9c1127f2cd403a315f,,,,,,,,,,,,,,,,,,,,threefour,,-4,0.7499,,,,,,,,,,,,,,,,,,,,,,,,,,,,,,,,,,"[0.11359999999999992,0.6312,0.5213999999999999]","[-0.011800000000000033,-0.906,-0.45100000000000007]",-58.39996338,94.3999939,1,0,0,response7disk,3.200012207,-1.600006104,1,0,0,rectangle,3.200012207,-1.600006104,1,0,0,-1,1,0.0004,0,3.200012207,-1.600006104,1,0,0,0,12,12,63,1,63,first,,,,,,,,,,,,,,,,,,,,,,,,,,,,,,,,,,,,,,,,,,,,,,,,,,,,,,,,,,,,,,,,,,,,,,,,
,,,,,,5ebeb4d5c03b440f47f505fc,62c539eca9e5fb366c1df9a8,2022-07-06_10h32.17.303,Colour_Asymmetry_Pilot,2022.1.3,Win32,60.09254252,62c50e9c1127f2cd403a315f,,,,,,,,,,,,,,,,,,,,twoone,,4,1.5445,,,,,,,,,,,,,,,,,,,,,,,,,,,,,,,,,,"[-0.34920000000000007,-0.702,-0.5216]","[-0.011800000000000033,-0.906,-0.45100000000000007]",28,125.6000061,1,0,0,response1disk,10.40002441,-5.600006104,1,0,0,rectangle,10.40002441,-5.600006104,1,0,0,-1,2,0.0017,0,10.40002441,-5.600006104,1,0,0,0,13,13,134,1,53,second,,,,,,,,,,,,,,,,,,,,,,,,,,,,,,,,,,,,,,,,,,,,,,,,,,,,,,,,,,,,,,,,,,,,,,,,
,,,,,,5ebeb4d5c03b440f47f505fc,62c539eca9e5fb366c1df9a8,2022-07-06_10h32.17.303,Colour_Asymmetry_Pilot,2022.1.3,Win32,60.09254252,62c50e9c1127f2cd403a315f,,,,,,,,,,,,,,,,,,,,twofour,,-2,1.7456,,,,,,,,,,,,,,,,,,,,,,,,,,,,,,,,,,"[0.0351999999999999,0.41159999999999997,0.0038000000000000256]","[-0.9688,-0.38039999999999996,-0.41979999999999995]",-80.79998779,-64,1,0,0,response5disk,1.600036621,-3.200012207,1,0,0,rectangle,1.600036621,-3.200012207,1,0,0,-1,2,0.0004,0,1.600036621,-3.200012207,1,0,0,0,14,14,131,1,50,second,,,,,,,,,,,,,,,,,,,,,,,,,,,,,,,,,,,,,,,,,,,,,,,,,,,,,,,,,,,,,,,,,,,,,,,,
