trials.thisRepN,trials.thisTrialN,trials.thisN,trials.thisIndex,trials.ran,Colourcodes,participant,session,date,expName,psychopyVersion,OS,frameRate,study_id,trials_4.thisRepN,trials_4.thisTrialN,trials_4.thisN,trials_4.thisIndex,trials_4.ran,StimulusPos,key_resp.keys,key_resp.rt,key_resp_2.keys,key_resp_2.rt,key_resp_15.keys,key_resp_15.rt,key_resp_17.keys,key_resp_17.rt,key_resp_9.keys,key_resp_9.rt,key_resp_10.keys,key_resp_10.rt,Circle1_col,Ecc,Circle2_col,similarity,response_time,mouse_5.x,mouse_5.y,mouse_5.leftButton,mouse_5.midButton,mouse_5.rightButton,mouse_5.clicked_name,mouse_10.x,mouse_10.y,mouse_10.leftButton,mouse_10.midButton,mouse_10.rightButton,mouse_10.clicked_name,mouse_7.x,mouse_7.y,mouse_7.leftButton,mouse_7.midButton,mouse_7.rightButton,catchnumberprac,mouse_6.x,mouse_6.y,mouse_6.leftButton,mouse_6.midButton,mouse_6.rightButton,duringprac.thisRepN,duringprac.thisTrialN,duringprac.thisN,duringprac.thisIndex,duringprac.ran,mouse_7.clicked_name,catchprac,mouse_6.clicked_name,key_resp_22.keys,key_resp_22.rt,Circle1_colour,Circle2_colour,mouse.x,mouse.y,mouse.leftButton,mouse.midButton,mouse.rightButton,mouse.clicked_name,mouse_2.x,mouse_2.y,mouse_2.leftButton,mouse_2.midButton,mouse_2.rightButton,mouse_2.clicked_name,mouse_3.x,mouse_3.y,mouse_3.leftButton,mouse_3.midButton,mouse_3.rightButton,catchresponse,catchnumber,response_time_catch,Catch,mouse_11.x,mouse_11.y,mouse_11.leftButton,mouse_11.midButton,mouse_11.rightButton,trials_2.thisRepN,trials_2.thisTrialN,trials_2.thisN,trials_2.thisIndex,trials_2.ran,Colourpair,Temporder,mouse_3.clicked_name,mouse_11.clicked_name,trials_3.thisRepN,trials_3.thisTrialN,trials_3.thisN,trials_3.thisIndex,trials_3.ran,key_resp_instr_Ishi.keys,key_resp_instr_Ishi.rt,Ishi_trial_keyresp.keys,Ishi_textbox.text,Ishi_mouse.x,Ishi_mouse.y,Ishi_mouse.leftButton,Ishi_mouse.midButton,Ishi_mouse.rightButton,Ishi_mouse.clicked_name,Ishi_loop.thisRepN,Ishi_loop.thisTrialN,Ishi_loop.thisN,Ishi_loop.thisIndex,Ishi_loop.ran,imageaddress,textbox.text,mouse_4.x,mouse_4.y,mouse_4.leftButton,mouse_4.midButton,mouse_4.rightButton,mouse_4.clicked_name,textbox_2.text,mouse_8.x,mouse_8.y,mouse_8.leftButton,mouse_8.midButton,mouse_8.rightButton,mouse_8.clicked_name,textbox_3.text,mouse_9.x,mouse_9.y,mouse_9.leftButton,mouse_9.midButton,mouse_9.rightButton,mouse_9.clicked_name,textbox_4.text,mouse_12.x,mouse_12.y,mouse_12.leftButton,mouse_12.midButton,mouse_12.rightButton,mouse_12.clicked_name,textbox_5.text,mouse_13.x,mouse_13.y,mouse_13.leftButton,mouse_13.midButton,mouse_13.rightButton,mouse_13.clicked_name,textbox_6.text,mouse_14.x,mouse_14.y,mouse_14.leftButton,mouse_14.midButton,mouse_14.rightButton,mouse_14.clicked_name,textbox_7.text,mouse_15.x,mouse_15.y,mouse_15.leftButton,mouse_15.midButton,mouse_15.rightButton,mouse_15.clicked_name
0,0,0,16,1,,6102e228afa957e9037adbfe,62c538fa34ab45e55a3a3163,2022-07-06_09h24.07.222,Colour_Asymmetry_Pilot,2022.1.3,Win32,29.93653455,62c50e9c1127f2cd403a315f,,,,,,,,,,,,,,,,,,,,,,,,,,,,,,,,,,,,,,,,,,,,,,,,,,,,,,,,,,,,,,,,,,,,,,,,,,,,,,,,,,,,,,,,,,,,,,,,,,,,,,,,,,,,,,,,,,,,,,,,,,,,,,,,,,,,,,,,,,,,,,,,,,,,,,,,,,,,,,,,,,,
0,1,1,24,1,,6102e228afa957e9037adbfe,62c538fa34ab45e55a3a3163,2022-07-06_09h24.07.222,Colour_Asymmetry_Pilot,2022.1.3,Win32,29.93653455,62c50e9c1127f2cd403a315f,,,,,,,,,,,,,,,,,,,,,,,,,,,,,,,,,,,,,,,,,,,,,,,,,,,,,,,,,,,,,,,,,,,,,,,,,,,,,,,,,,,,,,,,,,,,,,,,,,,,,,,,,,,,,,,,,,,,,,,,,,,,,,,,,,,,,,,,,,,,,,,,,,,,,,,,,,,,,,,,,,,
0,2,2,7,1,,6102e228afa957e9037adbfe,62c538fa34ab45e55a3a3163,2022-07-06_09h24.07.222,Colour_Asymmetry_Pilot,2022.1.3,Win32,29.93653455,62c50e9c1127f2cd403a315f,,,,,,,,,,,,,,,,,,,,,,,,,,,,,,,,,,,,,,,,,,,,,,,,,,,,,,,,,,,,,,,,,,,,,,,,,,,,,,,,,,,,,,,,,,,,,,,,,,,,,,,,,,,,,,,,,,,,,,,,,,,,,,,,,,,,,,,,,,,,,,,,,,,,,,,,,,,,,,,,,,,
0,3,3,49,1,,6102e228afa957e9037adbfe,62c538fa34ab45e55a3a3163,2022-07-06_09h24.07.222,Colour_Asymmetry_Pilot,2022.1.3,Win32,29.93653455,62c50e9c1127f2cd403a315f,,,,,,,,,,,,,,,,,,,,,,,,,,,,,,,,,,,,,,,,,,,,,,,,,,,,,,,,,,,,,,,,,,,,,,,,,,,,,,,,,,,,,,,,,,,,,,,,,,,,,,,,,,,,,,,,,,,,,,,,,,,,,,,,,,,,,,,,,,,,,,,,,,,,,,,,,,,,,,,,,,,
0,4,4,84,1,,6102e228afa957e9037adbfe,62c538fa34ab45e55a3a3163,2022-07-06_09h24.07.222,Colour_Asymmetry_Pilot,2022.1.3,Win32,29.93653455,62c50e9c1127f2cd403a315f,,,,,,,,,,,,,,,,,,,,,,,,,,,,,,,,,,,,,,,,,,,,,,,,,,,,,,,,,,,,,,,,,,,,,,,,,,,,,,,,,,,,,,,,,,,,,,,,,,,,,,,,,,,,,,,,,,,,,,,,,,,,,,,,,,,,,,,,,,,,,,,,,,,,,,,,,,,,,,,,,,,
0,5,5,32,1,,6102e228afa957e9037adbfe,62c538fa34ab45e55a3a3163,2022-07-06_09h24.07.222,Colour_Asymmetry_Pilot,2022.1.3,Win32,29.93653455,62c50e9c1127f2cd403a315f,,,,,,,,,,,,,,,,,,,,,,,,,,,,,,,,,,,,,,,,,,,,,,,,,,,,,,,,,,,,,,,,,,,,,,,,,,,,,,,,,,,,,,,,,,,,,,,,,,,,,,,,,,,,,,,,,,,,,,,,,,,,,,,,,,,,,,,,,,,,,,,,,,,,,,,,,,,,,,,,,,,
0,6,6,10,1,,6102e228afa957e9037adbfe,62c538fa34ab45e55a3a3163,2022-07-06_09h24.07.222,Colour_Asymmetry_Pilot,2022.1.3,Win32,29.93653455,62c50e9c1127f2cd403a315f,,,,,,,,,,,,,,,,,,,,,,,,,,,,,,,,,,,,,,,,,,,,,,,,,,,,,,,,,,,,,,,,,,,,,,,,,,,,,,,,,,,,,,,,,,,,,,,,,,,,,,,,,,,,,,,,,,,,,,,,,,,,,,,,,,,,,,,,,,,,,,,,,,,,,,,,,,,,,,,,,,,
0,7,7,9,1,,6102e228afa957e9037adbfe,62c538fa34ab45e55a3a3163,2022-07-06_09h24.07.222,Colour_Asymmetry_Pilot,2022.1.3,Win32,29.93653455,62c50e9c1127f2cd403a315f,,,,,,,,,,,,,,,,,,,,,,,,,,,,,,,,,,,,,,,,,,,,,,,,,,,,,,,,,,,,,,,,,,,,,,,,,,,,,,,,,,,,,,,,,,,,,,,,,,,,,,,,,,,,,,,,,,,,,,,,,,,,,,,,,,,,,,,,,,,,,,,,,,,,,,,,,,,,,,,,,,,
0,8,8,35,1,,6102e228afa957e9037adbfe,62c538fa34ab45e55a3a3163,2022-07-06_09h24.07.222,Colour_Asymmetry_Pilot,2022.1.3,Win32,29.93653455,62c50e9c1127f2cd403a315f,,,,,,,,,,,,,,,,,,,,,,,,,,,,,,,,,,,,,,,,,,,,,,,,,,,,,,,,,,,,,,,,,,,,,,,,,,,,,,,,,,,,,,,,,,,,,,,,,,,,,,,,,,,,,,,,,,,,,,,,,,,,,,,,,,,,,,,,,,,,,,,,,,,,,,,,,,,,,,,,,,,
0,9,9,1,1,,6102e228afa957e9037adbfe,62c538fa34ab45e55a3a3163,2022-07-06_09h24.07.222,Colour_Asymmetry_Pilot,2022.1.3,Win32,29.93653455,62c50e9c1127f2cd403a315f,,,,,,,,,,,,,,,,,,,,,,,,,,,,,,,,,,,,,,,,,,,,,,,,,,,,,,,,,,,,,,,,,,,,,,,,,,,,,,,,,,,,,,,,,,,,,,,,,,,,,,,,,,,,,,,,,,,,,,,,,,,,,,,,,,,,,,,,,,,,,,,,,,,,,,,,,,,,,,,,,,,
0,10,10,53,1,,6102e228afa957e9037adbfe,62c538fa34ab45e55a3a3163,2022-07-06_09h24.07.222,Colour_Asymmetry_Pilot,2022.1.3,Win32,29.93653455,62c50e9c1127f2cd403a315f,,,,,,,,,,,,,,,,,,,,,,,,,,,,,,,,,,,,,,,,,,,,,,,,,,,,,,,,,,,,,,,,,,,,,,,,,,,,,,,,,,,,,,,,,,,,,,,,,,,,,,,,,,,,,,,,,,,,,,,,,,,,,,,,,,,,,,,,,,,,,,,,,,,,,,,,,,,,,,,,,,,
0,11,11,70,1,,6102e228afa957e9037adbfe,62c538fa34ab45e55a3a3163,2022-07-06_09h24.07.222,Colour_Asymmetry_Pilot,2022.1.3,Win32,29.93653455,62c50e9c1127f2cd403a315f,,,,,,,,,,,,,,,,,,,,,,,,,,,,,,,,,,,,,,,,,,,,,,,,,,,,,,,,,,,,,,,,,,,,,,,,,,,,,,,,,,,,,,,,,,,,,,,,,,,,,,,,,,,,,,,,,,,,,,,,,,,,,,,,,,,,,,,,,,,,,,,,,,,,,,,,,,,,,,,,,,,
0,12,12,71,1,,6102e228afa957e9037adbfe,62c538fa34ab45e55a3a3163,2022-07-06_09h24.07.222,Colour_Asymmetry_Pilot,2022.1.3,Win32,29.93653455,62c50e9c1127f2cd403a315f,,,,,,,,,,,,,,,,,,,,,,,,,,,,,,,,,,,,,,,,,,,,,,,,,,,,,,,,,,,,,,,,,,,,,,,,,,,,,,,,,,,,,,,,,,,,,,,,,,,,,,,,,,,,,,,,,,,,,,,,,,,,,,,,,,,,,,,,,,,,,,,,,,,,,,,,,,,,,,,,,,,
0,13,13,62,1,,6102e228afa957e9037adbfe,62c538fa34ab45e55a3a3163,2022-07-06_09h24.07.222,Colour_Asymmetry_Pilot,2022.1.3,Win32,29.93653455,62c50e9c1127f2cd403a315f,,,,,,,,,,,,,,,,,,,,,,,,,,,,,,,,,,,,,,,,,,,,,,,,,,,,,,,,,,,,,,,,,,,,,,,,,,,,,,,,,,,,,,,,,,,,,,,,,,,,,,,,,,,,,,,,,,,,,,,,,,,,,,,,,,,,,,,,,,,,,,,,,,,,,,,,,,,,,,,,,,,
0,14,14,74,1,,6102e228afa957e9037adbfe,62c538fa34ab45e55a3a3163,2022-07-06_09h24.07.222,Colour_Asymmetry_Pilot,2022.1.3,Win32,29.93653455,62c50e9c1127f2cd403a315f,,,,,,,,,,,,,,,,,,,,,,,,,,,,,,,,,,,,,,,,,,,,,,,,,,,,,,,,,,,,,,,,,,,,,,,,,,,,,,,,,,,,,,,,,,,,,,,,,,,,,,,,,,,,,,,,,,,,,,,,,,,,,,,,,,,,,,,,,,,,,,,,,,,,,,,,,,,,,,,,,,,
0,15,15,46,1,,6102e228afa957e9037adbfe,62c538fa34ab45e55a3a3163,2022-07-06_09h24.07.222,Colour_Asymmetry_Pilot,2022.1.3,Win32,29.93653455,62c50e9c1127f2cd403a315f,,,,,,,,,,,,,,,,,,,,,,,,,,,,,,,,,,,,,,,,,,,,,,,,,,,,,,,,,,,,,,,,,,,,,,,,,,,,,,,,,,,,,,,,,,,,,,,,,,,,,,,,,,,,,,,,,,,,,,,,,,,,,,,,,,,,,,,,,,,,,,,,,,,,,,,,,,,,,,,,,,,
0,16,16,88,1,,6102e228afa957e9037adbfe,62c538fa34ab45e55a3a3163,2022-07-06_09h24.07.222,Colour_Asymmetry_Pilot,2022.1.3,Win32,29.93653455,62c50e9c1127f2cd403a315f,,,,,,,,,,,,,,,,,,,,,,,,,,,,,,,,,,,,,,,,,,,,,,,,,,,,,,,,,,,,,,,,,,,,,,,,,,,,,,,,,,,,,,,,,,,,,,,,,,,,,,,,,,,,,,,,,,,,,,,,,,,,,,,,,,,,,,,,,,,,,,,,,,,,,,,,,,,,,,,,,,,
0,17,17,17,1,,6102e228afa957e9037adbfe,62c538fa34ab45e55a3a3163,2022-07-06_09h24.07.222,Colour_Asymmetry_Pilot,2022.1.3,Win32,29.93653455,62c50e9c1127f2cd403a315f,,,,,,,,,,,,,,,,,,,,,,,,,,,,,,,,,,,,,,,,,,,,,,,,,,,,,,,,,,,,,,,,,,,,,,,,,,,,,,,,,,,,,,,,,,,,,,,,,,,,,,,,,,,,,,,,,,,,,,,,,,,,,,,,,,,,,,,,,,,,,,,,,,,,,,,,,,,,,,,,,,,
0,18,18,31,1,,6102e228afa957e9037adbfe,62c538fa34ab45e55a3a3163,2022-07-06_09h24.07.222,Colour_Asymmetry_Pilot,2022.1.3,Win32,29.93653455,62c50e9c1127f2cd403a315f,,,,,,,,,,,,,,,,,,,,,,,,,,,,,,,,,,,,,,,,,,,,,,,,,,,,,,,,,,,,,,,,,,,,,,,,,,,,,,,,,,,,,,,,,,,,,,,,,,,,,,,,,,,,,,,,,,,,,,,,,,,,,,,,,,,,,,,,,,,,,,,,,,,,,,,,,,,,,,,,,,,
0,19,19,14,1,,6102e228afa957e9037adbfe,62c538fa34ab45e55a3a3163,2022-07-06_09h24.07.222,Colour_Asymmetry_Pilot,2022.1.3,Win32,29.93653455,62c50e9c1127f2cd403a315f,,,,,,,,,,,,,,,,,,,,,,,,,,,,,,,,,,,,,,,,,,,,,,,,,,,,,,,,,,,,,,,,,,,,,,,,,,,,,,,,,,,,,,,,,,,,,,,,,,,,,,,,,,,,,,,,,,,,,,,,,,,,,,,,,,,,,,,,,,,,,,,,,,,,,,,,,,,,,,,,,,,
0,20,20,72,1,,6102e228afa957e9037adbfe,62c538fa34ab45e55a3a3163,2022-07-06_09h24.07.222,Colour_Asymmetry_Pilot,2022.1.3,Win32,29.93653455,62c50e9c1127f2cd403a315f,,,,,,,,,,,,,,,,,,,,,,,,,,,,,,,,,,,,,,,,,,,,,,,,,,,,,,,,,,,,,,,,,,,,,,,,,,,,,,,,,,,,,,,,,,,,,,,,,,,,,,,,,,,,,,,,,,,,,,,,,,,,,,,,,,,,,,,,,,,,,,,,,,,,,,,,,,,,,,,,,,,
0,21,21,67,1,,6102e228afa957e9037adbfe,62c538fa34ab45e55a3a3163,2022-07-06_09h24.07.222,Colour_Asymmetry_Pilot,2022.1.3,Win32,29.93653455,62c50e9c1127f2cd403a315f,,,,,,,,,,,,,,,,,,,,,,,,,,,,,,,,,,,,,,,,,,,,,,,,,,,,,,,,,,,,,,,,,,,,,,,,,,,,,,,,,,,,,,,,,,,,,,,,,,,,,,,,,,,,,,,,,,,,,,,,,,,,,,,,,,,,,,,,,,,,,,,,,,,,,,,,,,,,,,,,,,,
0,22,22,76,1,,6102e228afa957e9037adbfe,62c538fa34ab45e55a3a3163,2022-07-06_09h24.07.222,Colour_Asymmetry_Pilot,2022.1.3,Win32,29.93653455,62c50e9c1127f2cd403a315f,,,,,,,,,,,,,,,,,,,,,,,,,,,,,,,,,,,,,,,,,,,,,,,,,,,,,,,,,,,,,,,,,,,,,,,,,,,,,,,,,,,,,,,,,,,,,,,,,,,,,,,,,,,,,,,,,,,,,,,,,,,,,,,,,,,,,,,,,,,,,,,,,,,,,,,,,,,,,,,,,,,
0,23,23,22,1,,6102e228afa957e9037adbfe,62c538fa34ab45e55a3a3163,2022-07-06_09h24.07.222,Colour_Asymmetry_Pilot,2022.1.3,Win32,29.93653455,62c50e9c1127f2cd403a315f,,,,,,,,,,,,,,,,,,,,,,,,,,,,,,,,,,,,,,,,,,,,,,,,,,,,,,,,,,,,,,,,,,,,,,,,,,,,,,,,,,,,,,,,,,,,,,,,,,,,,,,,,,,,,,,,,,,,,,,,,,,,,,,,,,,,,,,,,,,,,,,,,,,,,,,,,,,,,,,,,,,
0,24,24,20,1,,6102e228afa957e9037adbfe,62c538fa34ab45e55a3a3163,2022-07-06_09h24.07.222,Colour_Asymmetry_Pilot,2022.1.3,Win32,29.93653455,62c50e9c1127f2cd403a315f,,,,,,,,,,,,,,,,,,,,,,,,,,,,,,,,,,,,,,,,,,,,,,,,,,,,,,,,,,,,,,,,,,,,,,,,,,,,,,,,,,,,,,,,,,,,,,,,,,,,,,,,,,,,,,,,,,,,,,,,,,,,,,,,,,,,,,,,,,,,,,,,,,,,,,,,,,,,,,,,,,,
0,25,25,77,1,,6102e228afa957e9037adbfe,62c538fa34ab45e55a3a3163,2022-07-06_09h24.07.222,Colour_Asymmetry_Pilot,2022.1.3,Win32,29.93653455,62c50e9c1127f2cd403a315f,,,,,,,,,,,,,,,,,,,,,,,,,,,,,,,,,,,,,,,,,,,,,,,,,,,,,,,,,,,,,,,,,,,,,,,,,,,,,,,,,,,,,,,,,,,,,,,,,,,,,,,,,,,,,,,,,,,,,,,,,,,,,,,,,,,,,,,,,,,,,,,,,,,,,,,,,,,,,,,,,,,
0,26,26,43,1,,6102e228afa957e9037adbfe,62c538fa34ab45e55a3a3163,2022-07-06_09h24.07.222,Colour_Asymmetry_Pilot,2022.1.3,Win32,29.93653455,62c50e9c1127f2cd403a315f,,,,,,,,,,,,,,,,,,,,,,,,,,,,,,,,,,,,,,,,,,,,,,,,,,,,,,,,,,,,,,,,,,,,,,,,,,,,,,,,,,,,,,,,,,,,,,,,,,,,,,,,,,,,,,,,,,,,,,,,,,,,,,,,,,,,,,,,,,,,,,,,,,,,,,,,,,,,,,,,,,,
0,27,27,61,1,,6102e228afa957e9037adbfe,62c538fa34ab45e55a3a3163,2022-07-06_09h24.07.222,Colour_Asymmetry_Pilot,2022.1.3,Win32,29.93653455,62c50e9c1127f2cd403a315f,,,,,,,,,,,,,,,,,,,,,,,,,,,,,,,,,,,,,,,,,,,,,,,,,,,,,,,,,,,,,,,,,,,,,,,,,,,,,,,,,,,,,,,,,,,,,,,,,,,,,,,,,,,,,,,,,,,,,,,,,,,,,,,,,,,,,,,,,,,,,,,,,,,,,,,,,,,,,,,,,,,
0,28,28,3,1,,6102e228afa957e9037adbfe,62c538fa34ab45e55a3a3163,2022-07-06_09h24.07.222,Colour_Asymmetry_Pilot,2022.1.3,Win32,29.93653455,62c50e9c1127f2cd403a315f,,,,,,,,,,,,,,,,,,,,,,,,,,,,,,,,,,,,,,,,,,,,,,,,,,,,,,,,,,,,,,,,,,,,,,,,,,,,,,,,,,,,,,,,,,,,,,,,,,,,,,,,,,,,,,,,,,,,,,,,,,,,,,,,,,,,,,,,,,,,,,,,,,,,,,,,,,,,,,,,,,,
0,29,29,13,1,,6102e228afa957e9037adbfe,62c538fa34ab45e55a3a3163,2022-07-06_09h24.07.222,Colour_Asymmetry_Pilot,2022.1.3,Win32,29.93653455,62c50e9c1127f2cd403a315f,,,,,,,,,,,,,,,,,,,,,,,,,,,,,,,,,,,,,,,,,,,,,,,,,,,,,,,,,,,,,,,,,,,,,,,,,,,,,,,,,,,,,,,,,,,,,,,,,,,,,,,,,,,,,,,,,,,,,,,,,,,,,,,,,,,,,,,,,,,,,,,,,,,,,,,,,,,,,,,,,,,
0,30,30,19,1,,6102e228afa957e9037adbfe,62c538fa34ab45e55a3a3163,2022-07-06_09h24.07.222,Colour_Asymmetry_Pilot,2022.1.3,Win32,29.93653455,62c50e9c1127f2cd403a315f,,,,,,,,,,,,,,,,,,,,,,,,,,,,,,,,,,,,,,,,,,,,,,,,,,,,,,,,,,,,,,,,,,,,,,,,,,,,,,,,,,,,,,,,,,,,,,,,,,,,,,,,,,,,,,,,,,,,,,,,,,,,,,,,,,,,,,,,,,,,,,,,,,,,,,,,,,,,,,,,,,,
0,31,31,78,1,,6102e228afa957e9037adbfe,62c538fa34ab45e55a3a3163,2022-07-06_09h24.07.222,Colour_Asymmetry_Pilot,2022.1.3,Win32,29.93653455,62c50e9c1127f2cd403a315f,,,,,,,,,,,,,,,,,,,,,,,,,,,,,,,,,,,,,,,,,,,,,,,,,,,,,,,,,,,,,,,,,,,,,,,,,,,,,,,,,,,,,,,,,,,,,,,,,,,,,,,,,,,,,,,,,,,,,,,,,,,,,,,,,,,,,,,,,,,,,,,,,,,,,,,,,,,,,,,,,,,
0,32,32,66,1,,6102e228afa957e9037adbfe,62c538fa34ab45e55a3a3163,2022-07-06_09h24.07.222,Colour_Asymmetry_Pilot,2022.1.3,Win32,29.93653455,62c50e9c1127f2cd403a315f,,,,,,,,,,,,,,,,,,,,,,,,,,,,,,,,,,,,,,,,,,,,,,,,,,,,,,,,,,,,,,,,,,,,,,,,,,,,,,,,,,,,,,,,,,,,,,,,,,,,,,,,,,,,,,,,,,,,,,,,,,,,,,,,,,,,,,,,,,,,,,,,,,,,,,,,,,,,,,,,,,,
0,33,33,11,1,,6102e228afa957e9037adbfe,62c538fa34ab45e55a3a3163,2022-07-06_09h24.07.222,Colour_Asymmetry_Pilot,2022.1.3,Win32,29.93653455,62c50e9c1127f2cd403a315f,,,,,,,,,,,,,,,,,,,,,,,,,,,,,,,,,,,,,,,,,,,,,,,,,,,,,,,,,,,,,,,,,,,,,,,,,,,,,,,,,,,,,,,,,,,,,,,,,,,,,,,,,,,,,,,,,,,,,,,,,,,,,,,,,,,,,,,,,,,,,,,,,,,,,,,,,,,,,,,,,,,
0,34,34,45,1,,6102e228afa957e9037adbfe,62c538fa34ab45e55a3a3163,2022-07-06_09h24.07.222,Colour_Asymmetry_Pilot,2022.1.3,Win32,29.93653455,62c50e9c1127f2cd403a315f,,,,,,,,,,,,,,,,,,,,,,,,,,,,,,,,,,,,,,,,,,,,,,,,,,,,,,,,,,,,,,,,,,,,,,,,,,,,,,,,,,,,,,,,,,,,,,,,,,,,,,,,,,,,,,,,,,,,,,,,,,,,,,,,,,,,,,,,,,,,,,,,,,,,,,,,,,,,,,,,,,,
0,35,35,81,1,,6102e228afa957e9037adbfe,62c538fa34ab45e55a3a3163,2022-07-06_09h24.07.222,Colour_Asymmetry_Pilot,2022.1.3,Win32,29.93653455,62c50e9c1127f2cd403a315f,,,,,,,,,,,,,,,,,,,,,,,,,,,,,,,,,,,,,,,,,,,,,,,,,,,,,,,,,,,,,,,,,,,,,,,,,,,,,,,,,,,,,,,,,,,,,,,,,,,,,,,,,,,,,,,,,,,,,,,,,,,,,,,,,,,,,,,,,,,,,,,,,,,,,,,,,,,,,,,,,,,
0,36,36,15,1,,6102e228afa957e9037adbfe,62c538fa34ab45e55a3a3163,2022-07-06_09h24.07.222,Colour_Asymmetry_Pilot,2022.1.3,Win32,29.93653455,62c50e9c1127f2cd403a315f,,,,,,,,,,,,,,,,,,,,,,,,,,,,,,,,,,,,,,,,,,,,,,,,,,,,,,,,,,,,,,,,,,,,,,,,,,,,,,,,,,,,,,,,,,,,,,,,,,,,,,,,,,,,,,,,,,,,,,,,,,,,,,,,,,,,,,,,,,,,,,,,,,,,,,,,,,,,,,,,,,,
0,37,37,33,1,,6102e228afa957e9037adbfe,62c538fa34ab45e55a3a3163,2022-07-06_09h24.07.222,Colour_Asymmetry_Pilot,2022.1.3,Win32,29.93653455,62c50e9c1127f2cd403a315f,,,,,,,,,,,,,,,,,,,,,,,,,,,,,,,,,,,,,,,,,,,,,,,,,,,,,,,,,,,,,,,,,,,,,,,,,,,,,,,,,,,,,,,,,,,,,,,,,,,,,,,,,,,,,,,,,,,,,,,,,,,,,,,,,,,,,,,,,,,,,,,,,,,,,,,,,,,,,,,,,,,
0,38,38,89,1,,6102e228afa957e9037adbfe,62c538fa34ab45e55a3a3163,2022-07-06_09h24.07.222,Colour_Asymmetry_Pilot,2022.1.3,Win32,29.93653455,62c50e9c1127f2cd403a315f,,,,,,,,,,,,,,,,,,,,,,,,,,,,,,,,,,,,,,,,,,,,,,,,,,,,,,,,,,,,,,,,,,,,,,,,,,,,,,,,,,,,,,,,,,,,,,,,,,,,,,,,,,,,,,,,,,,,,,,,,,,,,,,,,,,,,,,,,,,,,,,,,,,,,,,,,,,,,,,,,,,
0,39,39,56,1,,6102e228afa957e9037adbfe,62c538fa34ab45e55a3a3163,2022-07-06_09h24.07.222,Colour_Asymmetry_Pilot,2022.1.3,Win32,29.93653455,62c50e9c1127f2cd403a315f,,,,,,,,,,,,,,,,,,,,,,,,,,,,,,,,,,,,,,,,,,,,,,,,,,,,,,,,,,,,,,,,,,,,,,,,,,,,,,,,,,,,,,,,,,,,,,,,,,,,,,,,,,,,,,,,,,,,,,,,,,,,,,,,,,,,,,,,,,,,,,,,,,,,,,,,,,,,,,,,,,,
0,40,40,54,1,,6102e228afa957e9037adbfe,62c538fa34ab45e55a3a3163,2022-07-06_09h24.07.222,Colour_Asymmetry_Pilot,2022.1.3,Win32,29.93653455,62c50e9c1127f2cd403a315f,,,,,,,,,,,,,,,,,,,,,,,,,,,,,,,,,,,,,,,,,,,,,,,,,,,,,,,,,,,,,,,,,,,,,,,,,,,,,,,,,,,,,,,,,,,,,,,,,,,,,,,,,,,,,,,,,,,,,,,,,,,,,,,,,,,,,,,,,,,,,,,,,,,,,,,,,,,,,,,,,,,
0,41,41,86,1,,6102e228afa957e9037adbfe,62c538fa34ab45e55a3a3163,2022-07-06_09h24.07.222,Colour_Asymmetry_Pilot,2022.1.3,Win32,29.93653455,62c50e9c1127f2cd403a315f,,,,,,,,,,,,,,,,,,,,,,,,,,,,,,,,,,,,,,,,,,,,,,,,,,,,,,,,,,,,,,,,,,,,,,,,,,,,,,,,,,,,,,,,,,,,,,,,,,,,,,,,,,,,,,,,,,,,,,,,,,,,,,,,,,,,,,,,,,,,,,,,,,,,,,,,,,,,,,,,,,,
0,42,42,30,1,,6102e228afa957e9037adbfe,62c538fa34ab45e55a3a3163,2022-07-06_09h24.07.222,Colour_Asymmetry_Pilot,2022.1.3,Win32,29.93653455,62c50e9c1127f2cd403a315f,,,,,,,,,,,,,,,,,,,,,,,,,,,,,,,,,,,,,,,,,,,,,,,,,,,,,,,,,,,,,,,,,,,,,,,,,,,,,,,,,,,,,,,,,,,,,,,,,,,,,,,,,,,,,,,,,,,,,,,,,,,,,,,,,,,,,,,,,,,,,,,,,,,,,,,,,,,,,,,,,,,
0,43,43,18,1,,6102e228afa957e9037adbfe,62c538fa34ab45e55a3a3163,2022-07-06_09h24.07.222,Colour_Asymmetry_Pilot,2022.1.3,Win32,29.93653455,62c50e9c1127f2cd403a315f,,,,,,,,,,,,,,,,,,,,,,,,,,,,,,,,,,,,,,,,,,,,,,,,,,,,,,,,,,,,,,,,,,,,,,,,,,,,,,,,,,,,,,,,,,,,,,,,,,,,,,,,,,,,,,,,,,,,,,,,,,,,,,,,,,,,,,,,,,,,,,,,,,,,,,,,,,,,,,,,,,,
0,44,44,65,1,,6102e228afa957e9037adbfe,62c538fa34ab45e55a3a3163,2022-07-06_09h24.07.222,Colour_Asymmetry_Pilot,2022.1.3,Win32,29.93653455,62c50e9c1127f2cd403a315f,,,,,,,,,,,,,,,,,,,,,,,,,,,,,,,,,,,,,,,,,,,,,,,,,,,,,,,,,,,,,,,,,,,,,,,,,,,,,,,,,,,,,,,,,,,,,,,,,,,,,,,,,,,,,,,,,,,,,,,,,,,,,,,,,,,,,,,,,,,,,,,,,,,,,,,,,,,,,,,,,,,
0,45,45,42,1,,6102e228afa957e9037adbfe,62c538fa34ab45e55a3a3163,2022-07-06_09h24.07.222,Colour_Asymmetry_Pilot,2022.1.3,Win32,29.93653455,62c50e9c1127f2cd403a315f,,,,,,,,,,,,,,,,,,,,,,,,,,,,,,,,,,,,,,,,,,,,,,,,,,,,,,,,,,,,,,,,,,,,,,,,,,,,,,,,,,,,,,,,,,,,,,,,,,,,,,,,,,,,,,,,,,,,,,,,,,,,,,,,,,,,,,,,,,,,,,,,,,,,,,,,,,,,,,,,,,,
0,46,46,26,1,,6102e228afa957e9037adbfe,62c538fa34ab45e55a3a3163,2022-07-06_09h24.07.222,Colour_Asymmetry_Pilot,2022.1.3,Win32,29.93653455,62c50e9c1127f2cd403a315f,,,,,,,,,,,,,,,,,,,,,,,,,,,,,,,,,,,,,,,,,,,,,,,,,,,,,,,,,,,,,,,,,,,,,,,,,,,,,,,,,,,,,,,,,,,,,,,,,,,,,,,,,,,,,,,,,,,,,,,,,,,,,,,,,,,,,,,,,,,,,,,,,,,,,,,,,,,,,,,,,,,
0,47,47,8,1,,6102e228afa957e9037adbfe,62c538fa34ab45e55a3a3163,2022-07-06_09h24.07.222,Colour_Asymmetry_Pilot,2022.1.3,Win32,29.93653455,62c50e9c1127f2cd403a315f,,,,,,,,,,,,,,,,,,,,,,,,,,,,,,,,,,,,,,,,,,,,,,,,,,,,,,,,,,,,,,,,,,,,,,,,,,,,,,,,,,,,,,,,,,,,,,,,,,,,,,,,,,,,,,,,,,,,,,,,,,,,,,,,,,,,,,,,,,,,,,,,,,,,,,,,,,,,,,,,,,,
0,48,48,58,1,,6102e228afa957e9037adbfe,62c538fa34ab45e55a3a3163,2022-07-06_09h24.07.222,Colour_Asymmetry_Pilot,2022.1.3,Win32,29.93653455,62c50e9c1127f2cd403a315f,,,,,,,,,,,,,,,,,,,,,,,,,,,,,,,,,,,,,,,,,,,,,,,,,,,,,,,,,,,,,,,,,,,,,,,,,,,,,,,,,,,,,,,,,,,,,,,,,,,,,,,,,,,,,,,,,,,,,,,,,,,,,,,,,,,,,,,,,,,,,,,,,,,,,,,,,,,,,,,,,,,
0,49,49,39,1,,6102e228afa957e9037adbfe,62c538fa34ab45e55a3a3163,2022-07-06_09h24.07.222,Colour_Asymmetry_Pilot,2022.1.3,Win32,29.93653455,62c50e9c1127f2cd403a315f,,,,,,,,,,,,,,,,,,,,,,,,,,,,,,,,,,,,,,,,,,,,,,,,,,,,,,,,,,,,,,,,,,,,,,,,,,,,,,,,,,,,,,,,,,,,,,,,,,,,,,,,,,,,,,,,,,,,,,,,,,,,,,,,,,,,,,,,,,,,,,,,,,,,,,,,,,,,,,,,,,,
0,50,50,64,1,,6102e228afa957e9037adbfe,62c538fa34ab45e55a3a3163,2022-07-06_09h24.07.222,Colour_Asymmetry_Pilot,2022.1.3,Win32,29.93653455,62c50e9c1127f2cd403a315f,,,,,,,,,,,,,,,,,,,,,,,,,,,,,,,,,,,,,,,,,,,,,,,,,,,,,,,,,,,,,,,,,,,,,,,,,,,,,,,,,,,,,,,,,,,,,,,,,,,,,,,,,,,,,,,,,,,,,,,,,,,,,,,,,,,,,,,,,,,,,,,,,,,,,,,,,,,,,,,,,,,
0,51,51,75,1,,6102e228afa957e9037adbfe,62c538fa34ab45e55a3a3163,2022-07-06_09h24.07.222,Colour_Asymmetry_Pilot,2022.1.3,Win32,29.93653455,62c50e9c1127f2cd403a315f,,,,,,,,,,,,,,,,,,,,,,,,,,,,,,,,,,,,,,,,,,,,,,,,,,,,,,,,,,,,,,,,,,,,,,,,,,,,,,,,,,,,,,,,,,,,,,,,,,,,,,,,,,,,,,,,,,,,,,,,,,,,,,,,,,,,,,,,,,,,,,,,,,,,,,,,,,,,,,,,,,,
0,52,52,83,1,,6102e228afa957e9037adbfe,62c538fa34ab45e55a3a3163,2022-07-06_09h24.07.222,Colour_Asymmetry_Pilot,2022.1.3,Win32,29.93653455,62c50e9c1127f2cd403a315f,,,,,,,,,,,,,,,,,,,,,,,,,,,,,,,,,,,,,,,,,,,,,,,,,,,,,,,,,,,,,,,,,,,,,,,,,,,,,,,,,,,,,,,,,,,,,,,,,,,,,,,,,,,,,,,,,,,,,,,,,,,,,,,,,,,,,,,,,,,,,,,,,,,,,,,,,,,,,,,,,,,
0,53,53,41,1,,6102e228afa957e9037adbfe,62c538fa34ab45e55a3a3163,2022-07-06_09h24.07.222,Colour_Asymmetry_Pilot,2022.1.3,Win32,29.93653455,62c50e9c1127f2cd403a315f,,,,,,,,,,,,,,,,,,,,,,,,,,,,,,,,,,,,,,,,,,,,,,,,,,,,,,,,,,,,,,,,,,,,,,,,,,,,,,,,,,,,,,,,,,,,,,,,,,,,,,,,,,,,,,,,,,,,,,,,,,,,,,,,,,,,,,,,,,,,,,,,,,,,,,,,,,,,,,,,,,,
0,54,54,23,1,,6102e228afa957e9037adbfe,62c538fa34ab45e55a3a3163,2022-07-06_09h24.07.222,Colour_Asymmetry_Pilot,2022.1.3,Win32,29.93653455,62c50e9c1127f2cd403a315f,,,,,,,,,,,,,,,,,,,,,,,,,,,,,,,,,,,,,,,,,,,,,,,,,,,,,,,,,,,,,,,,,,,,,,,,,,,,,,,,,,,,,,,,,,,,,,,,,,,,,,,,,,,,,,,,,,,,,,,,,,,,,,,,,,,,,,,,,,,,,,,,,,,,,,,,,,,,,,,,,,,
0,55,55,44,1,,6102e228afa957e9037adbfe,62c538fa34ab45e55a3a3163,2022-07-06_09h24.07.222,Colour_Asymmetry_Pilot,2022.1.3,Win32,29.93653455,62c50e9c1127f2cd403a315f,,,,,,,,,,,,,,,,,,,,,,,,,,,,,,,,,,,,,,,,,,,,,,,,,,,,,,,,,,,,,,,,,,,,,,,,,,,,,,,,,,,,,,,,,,,,,,,,,,,,,,,,,,,,,,,,,,,,,,,,,,,,,,,,,,,,,,,,,,,,,,,,,,,,,,,,,,,,,,,,,,,
0,56,56,6,1,,6102e228afa957e9037adbfe,62c538fa34ab45e55a3a3163,2022-07-06_09h24.07.222,Colour_Asymmetry_Pilot,2022.1.3,Win32,29.93653455,62c50e9c1127f2cd403a315f,,,,,,,,,,,,,,,,,,,,,,,,,,,,,,,,,,,,,,,,,,,,,,,,,,,,,,,,,,,,,,,,,,,,,,,,,,,,,,,,,,,,,,,,,,,,,,,,,,,,,,,,,,,,,,,,,,,,,,,,,,,,,,,,,,,,,,,,,,,,,,,,,,,,,,,,,,,,,,,,,,,
0,57,57,47,1,,6102e228afa957e9037adbfe,62c538fa34ab45e55a3a3163,2022-07-06_09h24.07.222,Colour_Asymmetry_Pilot,2022.1.3,Win32,29.93653455,62c50e9c1127f2cd403a315f,,,,,,,,,,,,,,,,,,,,,,,,,,,,,,,,,,,,,,,,,,,,,,,,,,,,,,,,,,,,,,,,,,,,,,,,,,,,,,,,,,,,,,,,,,,,,,,,,,,,,,,,,,,,,,,,,,,,,,,,,,,,,,,,,,,,,,,,,,,,,,,,,,,,,,,,,,,,,,,,,,,
0,58,58,73,1,,6102e228afa957e9037adbfe,62c538fa34ab45e55a3a3163,2022-07-06_09h24.07.222,Colour_Asymmetry_Pilot,2022.1.3,Win32,29.93653455,62c50e9c1127f2cd403a315f,,,,,,,,,,,,,,,,,,,,,,,,,,,,,,,,,,,,,,,,,,,,,,,,,,,,,,,,,,,,,,,,,,,,,,,,,,,,,,,,,,,,,,,,,,,,,,,,,,,,,,,,,,,,,,,,,,,,,,,,,,,,,,,,,,,,,,,,,,,,,,,,,,,,,,,,,,,,,,,,,,,
0,59,59,36,1,,6102e228afa957e9037adbfe,62c538fa34ab45e55a3a3163,2022-07-06_09h24.07.222,Colour_Asymmetry_Pilot,2022.1.3,Win32,29.93653455,62c50e9c1127f2cd403a315f,,,,,,,,,,,,,,,,,,,,,,,,,,,,,,,,,,,,,,,,,,,,,,,,,,,,,,,,,,,,,,,,,,,,,,,,,,,,,,,,,,,,,,,,,,,,,,,,,,,,,,,,,,,,,,,,,,,,,,,,,,,,,,,,,,,,,,,,,,,,,,,,,,,,,,,,,,,,,,,,,,,
0,60,60,52,1,,6102e228afa957e9037adbfe,62c538fa34ab45e55a3a3163,2022-07-06_09h24.07.222,Colour_Asymmetry_Pilot,2022.1.3,Win32,29.93653455,62c50e9c1127f2cd403a315f,,,,,,,,,,,,,,,,,,,,,,,,,,,,,,,,,,,,,,,,,,,,,,,,,,,,,,,,,,,,,,,,,,,,,,,,,,,,,,,,,,,,,,,,,,,,,,,,,,,,,,,,,,,,,,,,,,,,,,,,,,,,,,,,,,,,,,,,,,,,,,,,,,,,,,,,,,,,,,,,,,,
0,61,61,34,1,,6102e228afa957e9037adbfe,62c538fa34ab45e55a3a3163,2022-07-06_09h24.07.222,Colour_Asymmetry_Pilot,2022.1.3,Win32,29.93653455,62c50e9c1127f2cd403a315f,,,,,,,,,,,,,,,,,,,,,,,,,,,,,,,,,,,,,,,,,,,,,,,,,,,,,,,,,,,,,,,,,,,,,,,,,,,,,,,,,,,,,,,,,,,,,,,,,,,,,,,,,,,,,,,,,,,,,,,,,,,,,,,,,,,,,,,,,,,,,,,,,,,,,,,,,,,,,,,,,,,
0,62,62,85,1,,6102e228afa957e9037adbfe,62c538fa34ab45e55a3a3163,2022-07-06_09h24.07.222,Colour_Asymmetry_Pilot,2022.1.3,Win32,29.93653455,62c50e9c1127f2cd403a315f,,,,,,,,,,,,,,,,,,,,,,,,,,,,,,,,,,,,,,,,,,,,,,,,,,,,,,,,,,,,,,,,,,,,,,,,,,,,,,,,,,,,,,,,,,,,,,,,,,,,,,,,,,,,,,,,,,,,,,,,,,,,,,,,,,,,,,,,,,,,,,,,,,,,,,,,,,,,,,,,,,,
0,63,63,82,1,,6102e228afa957e9037adbfe,62c538fa34ab45e55a3a3163,2022-07-06_09h24.07.222,Colour_Asymmetry_Pilot,2022.1.3,Win32,29.93653455,62c50e9c1127f2cd403a315f,,,,,,,,,,,,,,,,,,,,,,,,,,,,,,,,,,,,,,,,,,,,,,,,,,,,,,,,,,,,,,,,,,,,,,,,,,,,,,,,,,,,,,,,,,,,,,,,,,,,,,,,,,,,,,,,,,,,,,,,,,,,,,,,,,,,,,,,,,,,,,,,,,,,,,,,,,,,,,,,,,,
0,64,64,25,1,,6102e228afa957e9037adbfe,62c538fa34ab45e55a3a3163,2022-07-06_09h24.07.222,Colour_Asymmetry_Pilot,2022.1.3,Win32,29.93653455,62c50e9c1127f2cd403a315f,,,,,,,,,,,,,,,,,,,,,,,,,,,,,,,,,,,,,,,,,,,,,,,,,,,,,,,,,,,,,,,,,,,,,,,,,,,,,,,,,,,,,,,,,,,,,,,,,,,,,,,,,,,,,,,,,,,,,,,,,,,,,,,,,,,,,,,,,,,,,,,,,,,,,,,,,,,,,,,,,,,
0,65,65,63,1,,6102e228afa957e9037adbfe,62c538fa34ab45e55a3a3163,2022-07-06_09h24.07.222,Colour_Asymmetry_Pilot,2022.1.3,Win32,29.93653455,62c50e9c1127f2cd403a315f,,,,,,,,,,,,,,,,,,,,,,,,,,,,,,,,,,,,,,,,,,,,,,,,,,,,,,,,,,,,,,,,,,,,,,,,,,,,,,,,,,,,,,,,,,,,,,,,,,,,,,,,,,,,,,,,,,,,,,,,,,,,,,,,,,,,,,,,,,,,,,,,,,,,,,,,,,,,,,,,,,,
0,66,66,37,1,,6102e228afa957e9037adbfe,62c538fa34ab45e55a3a3163,2022-07-06_09h24.07.222,Colour_Asymmetry_Pilot,2022.1.3,Win32,29.93653455,62c50e9c1127f2cd403a315f,,,,,,,,,,,,,,,,,,,,,,,,,,,,,,,,,,,,,,,,,,,,,,,,,,,,,,,,,,,,,,,,,,,,,,,,,,,,,,,,,,,,,,,,,,,,,,,,,,,,,,,,,,,,,,,,,,,,,,,,,,,,,,,,,,,,,,,,,,,,,,,,,,,,,,,,,,,,,,,,,,,
0,67,67,55,1,,6102e228afa957e9037adbfe,62c538fa34ab45e55a3a3163,2022-07-06_09h24.07.222,Colour_Asymmetry_Pilot,2022.1.3,Win32,29.93653455,62c50e9c1127f2cd403a315f,,,,,,,,,,,,,,,,,,,,,,,,,,,,,,,,,,,,,,,,,,,,,,,,,,,,,,,,,,,,,,,,,,,,,,,,,,,,,,,,,,,,,,,,,,,,,,,,,,,,,,,,,,,,,,,,,,,,,,,,,,,,,,,,,,,,,,,,,,,,,,,,,,,,,,,,,,,,,,,,,,,
0,68,68,28,1,,6102e228afa957e9037adbfe,62c538fa34ab45e55a3a3163,2022-07-06_09h24.07.222,Colour_Asymmetry_Pilot,2022.1.3,Win32,29.93653455,62c50e9c1127f2cd403a315f,,,,,,,,,,,,,,,,,,,,,,,,,,,,,,,,,,,,,,,,,,,,,,,,,,,,,,,,,,,,,,,,,,,,,,,,,,,,,,,,,,,,,,,,,,,,,,,,,,,,,,,,,,,,,,,,,,,,,,,,,,,,,,,,,,,,,,,,,,,,,,,,,,,,,,,,,,,,,,,,,,,
0,69,69,68,1,,6102e228afa957e9037adbfe,62c538fa34ab45e55a3a3163,2022-07-06_09h24.07.222,Colour_Asymmetry_Pilot,2022.1.3,Win32,29.93653455,62c50e9c1127f2cd403a315f,,,,,,,,,,,,,,,,,,,,,,,,,,,,,,,,,,,,,,,,,,,,,,,,,,,,,,,,,,,,,,,,,,,,,,,,,,,,,,,,,,,,,,,,,,,,,,,,,,,,,,,,,,,,,,,,,,,,,,,,,,,,,,,,,,,,,,,,,,,,,,,,,,,,,,,,,,,,,,,,,,,
0,70,70,91,1,,6102e228afa957e9037adbfe,62c538fa34ab45e55a3a3163,2022-07-06_09h24.07.222,Colour_Asymmetry_Pilot,2022.1.3,Win32,29.93653455,62c50e9c1127f2cd403a315f,,,,,,,,,,,,,,,,,,,,,,,,,,,,,,,,,,,,,,,,,,,,,,,,,,,,,,,,,,,,,,,,,,,,,,,,,,,,,,,,,,,,,,,,,,,,,,,,,,,,,,,,,,,,,,,,,,,,,,,,,,,,,,,,,,,,,,,,,,,,,,,,,,,,,,,,,,,,,,,,,,,
0,71,71,0,1,,6102e228afa957e9037adbfe,62c538fa34ab45e55a3a3163,2022-07-06_09h24.07.222,Colour_Asymmetry_Pilot,2022.1.3,Win32,29.93653455,62c50e9c1127f2cd403a315f,,,,,,,,,,,,,,,,,,,,,,,,,,,,,,,,,,,,,,,,,,,,,,,,,,,,,,,,,,,,,,,,,,,,,,,,,,,,,,,,,,,,,,,,,,,,,,,,,,,,,,,,,,,,,,,,,,,,,,,,,,,,,,,,,,,,,,,,,,,,,,,,,,,,,,,,,,,,,,,,,,,
0,72,72,90,1,,6102e228afa957e9037adbfe,62c538fa34ab45e55a3a3163,2022-07-06_09h24.07.222,Colour_Asymmetry_Pilot,2022.1.3,Win32,29.93653455,62c50e9c1127f2cd403a315f,,,,,,,,,,,,,,,,,,,,,,,,,,,,,,,,,,,,,,,,,,,,,,,,,,,,,,,,,,,,,,,,,,,,,,,,,,,,,,,,,,,,,,,,,,,,,,,,,,,,,,,,,,,,,,,,,,,,,,,,,,,,,,,,,,,,,,,,,,,,,,,,,,,,,,,,,,,,,,,,,,,
0,73,73,69,1,,6102e228afa957e9037adbfe,62c538fa34ab45e55a3a3163,2022-07-06_09h24.07.222,Colour_Asymmetry_Pilot,2022.1.3,Win32,29.93653455,62c50e9c1127f2cd403a315f,,,,,,,,,,,,,,,,,,,,,,,,,,,,,,,,,,,,,,,,,,,,,,,,,,,,,,,,,,,,,,,,,,,,,,,,,,,,,,,,,,,,,,,,,,,,,,,,,,,,,,,,,,,,,,,,,,,,,,,,,,,,,,,,,,,,,,,,,,,,,,,,,,,,,,,,,,,,,,,,,,,
0,74,74,48,1,,6102e228afa957e9037adbfe,62c538fa34ab45e55a3a3163,2022-07-06_09h24.07.222,Colour_Asymmetry_Pilot,2022.1.3,Win32,29.93653455,62c50e9c1127f2cd403a315f,,,,,,,,,,,,,,,,,,,,,,,,,,,,,,,,,,,,,,,,,,,,,,,,,,,,,,,,,,,,,,,,,,,,,,,,,,,,,,,,,,,,,,,,,,,,,,,,,,,,,,,,,,,,,,,,,,,,,,,,,,,,,,,,,,,,,,,,,,,,,,,,,,,,,,,,,,,,,,,,,,,
0,75,75,21,1,,6102e228afa957e9037adbfe,62c538fa34ab45e55a3a3163,2022-07-06_09h24.07.222,Colour_Asymmetry_Pilot,2022.1.3,Win32,29.93653455,62c50e9c1127f2cd403a315f,,,,,,,,,,,,,,,,,,,,,,,,,,,,,,,,,,,,,,,,,,,,,,,,,,,,,,,,,,,,,,,,,,,,,,,,,,,,,,,,,,,,,,,,,,,,,,,,,,,,,,,,,,,,,,,,,,,,,,,,,,,,,,,,,,,,,,,,,,,,,,,,,,,,,,,,,,,,,,,,,,,
0,76,76,27,1,,6102e228afa957e9037adbfe,62c538fa34ab45e55a3a3163,2022-07-06_09h24.07.222,Colour_Asymmetry_Pilot,2022.1.3,Win32,29.93653455,62c50e9c1127f2cd403a315f,,,,,,,,,,,,,,,,,,,,,,,,,,,,,,,,,,,,,,,,,,,,,,,,,,,,,,,,,,,,,,,,,,,,,,,,,,,,,,,,,,,,,,,,,,,,,,,,,,,,,,,,,,,,,,,,,,,,,,,,,,,,,,,,,,,,,,,,,,,,,,,,,,,,,,,,,,,,,,,,,,,
0,77,77,50,1,,6102e228afa957e9037adbfe,62c538fa34ab45e55a3a3163,2022-07-06_09h24.07.222,Colour_Asymmetry_Pilot,2022.1.3,Win32,29.93653455,62c50e9c1127f2cd403a315f,,,,,,,,,,,,,,,,,,,,,,,,,,,,,,,,,,,,,,,,,,,,,,,,,,,,,,,,,,,,,,,,,,,,,,,,,,,,,,,,,,,,,,,,,,,,,,,,,,,,,,,,,,,,,,,,,,,,,,,,,,,,,,,,,,,,,,,,,,,,,,,,,,,,,,,,,,,,,,,,,,,
0,78,78,79,1,,6102e228afa957e9037adbfe,62c538fa34ab45e55a3a3163,2022-07-06_09h24.07.222,Colour_Asymmetry_Pilot,2022.1.3,Win32,29.93653455,62c50e9c1127f2cd403a315f,,,,,,,,,,,,,,,,,,,,,,,,,,,,,,,,,,,,,,,,,,,,,,,,,,,,,,,,,,,,,,,,,,,,,,,,,,,,,,,,,,,,,,,,,,,,,,,,,,,,,,,,,,,,,,,,,,,,,,,,,,,,,,,,,,,,,,,,,,,,,,,,,,,,,,,,,,,,,,,,,,,
0,79,79,80,1,,6102e228afa957e9037adbfe,62c538fa34ab45e55a3a3163,2022-07-06_09h24.07.222,Colour_Asymmetry_Pilot,2022.1.3,Win32,29.93653455,62c50e9c1127f2cd403a315f,,,,,,,,,,,,,,,,,,,,,,,,,,,,,,,,,,,,,,,,,,,,,,,,,,,,,,,,,,,,,,,,,,,,,,,,,,,,,,,,,,,,,,,,,,,,,,,,,,,,,,,,,,,,,,,,,,,,,,,,,,,,,,,,,,,,,,,,,,,,,,,,,,,,,,,,,,,,,,,,,,,
0,80,80,59,1,,6102e228afa957e9037adbfe,62c538fa34ab45e55a3a3163,2022-07-06_09h24.07.222,Colour_Asymmetry_Pilot,2022.1.3,Win32,29.93653455,62c50e9c1127f2cd403a315f,,,,,,,,,,,,,,,,,,,,,,,,,,,,,,,,,,,,,,,,,,,,,,,,,,,,,,,,,,,,,,,,,,,,,,,,,,,,,,,,,,,,,,,,,,,,,,,,,,,,,,,,,,,,,,,,,,,,,,,,,,,,,,,,,,,,,,,,,,,,,,,,,,,,,,,,,,,,,,,,,,,
0,81,81,2,1,,6102e228afa957e9037adbfe,62c538fa34ab45e55a3a3163,2022-07-06_09h24.07.222,Colour_Asymmetry_Pilot,2022.1.3,Win32,29.93653455,62c50e9c1127f2cd403a315f,,,,,,,,,,,,,,,,,,,,,,,,,,,,,,,,,,,,,,,,,,,,,,,,,,,,,,,,,,,,,,,,,,,,,,,,,,,,,,,,,,,,,,,,,,,,,,,,,,,,,,,,,,,,,,,,,,,,,,,,,,,,,,,,,,,,,,,,,,,,,,,,,,,,,,,,,,,,,,,,,,,
0,82,82,4,1,,6102e228afa957e9037adbfe,62c538fa34ab45e55a3a3163,2022-07-06_09h24.07.222,Colour_Asymmetry_Pilot,2022.1.3,Win32,29.93653455,62c50e9c1127f2cd403a315f,,,,,,,,,,,,,,,,,,,,,,,,,,,,,,,,,,,,,,,,,,,,,,,,,,,,,,,,,,,,,,,,,,,,,,,,,,,,,,,,,,,,,,,,,,,,,,,,,,,,,,,,,,,,,,,,,,,,,,,,,,,,,,,,,,,,,,,,,,,,,,,,,,,,,,,,,,,,,,,,,,,
0,83,83,87,1,,6102e228afa957e9037adbfe,62c538fa34ab45e55a3a3163,2022-07-06_09h24.07.222,Colour_Asymmetry_Pilot,2022.1.3,Win32,29.93653455,62c50e9c1127f2cd403a315f,,,,,,,,,,,,,,,,,,,,,,,,,,,,,,,,,,,,,,,,,,,,,,,,,,,,,,,,,,,,,,,,,,,,,,,,,,,,,,,,,,,,,,,,,,,,,,,,,,,,,,,,,,,,,,,,,,,,,,,,,,,,,,,,,,,,,,,,,,,,,,,,,,,,,,,,,,,,,,,,,,,
0,84,84,60,1,,6102e228afa957e9037adbfe,62c538fa34ab45e55a3a3163,2022-07-06_09h24.07.222,Colour_Asymmetry_Pilot,2022.1.3,Win32,29.93653455,62c50e9c1127f2cd403a315f,,,,,,,,,,,,,,,,,,,,,,,,,,,,,,,,,,,,,,,,,,,,,,,,,,,,,,,,,,,,,,,,,,,,,,,,,,,,,,,,,,,,,,,,,,,,,,,,,,,,,,,,,,,,,,,,,,,,,,,,,,,,,,,,,,,,,,,,,,,,,,,,,,,,,,,,,,,,,,,,,,,
0,85,85,40,1,,6102e228afa957e9037adbfe,62c538fa34ab45e55a3a3163,2022-07-06_09h24.07.222,Colour_Asymmetry_Pilot,2022.1.3,Win32,29.93653455,62c50e9c1127f2cd403a315f,,,,,,,,,,,,,,,,,,,,,,,,,,,,,,,,,,,,,,,,,,,,,,,,,,,,,,,,,,,,,,,,,,,,,,,,,,,,,,,,,,,,,,,,,,,,,,,,,,,,,,,,,,,,,,,,,,,,,,,,,,,,,,,,,,,,,,,,,,,,,,,,,,,,,,,,,,,,,,,,,,,
0,86,86,12,1,,6102e228afa957e9037adbfe,62c538fa34ab45e55a3a3163,2022-07-06_09h24.07.222,Colour_Asymmetry_Pilot,2022.1.3,Win32,29.93653455,62c50e9c1127f2cd403a315f,,,,,,,,,,,,,,,,,,,,,,,,,,,,,,,,,,,,,,,,,,,,,,,,,,,,,,,,,,,,,,,,,,,,,,,,,,,,,,,,,,,,,,,,,,,,,,,,,,,,,,,,,,,,,,,,,,,,,,,,,,,,,,,,,,,,,,,,,,,,,,,,,,,,,,,,,,,,,,,,,,,
0,87,87,51,1,,6102e228afa957e9037adbfe,62c538fa34ab45e55a3a3163,2022-07-06_09h24.07.222,Colour_Asymmetry_Pilot,2022.1.3,Win32,29.93653455,62c50e9c1127f2cd403a315f,,,,,,,,,,,,,,,,,,,,,,,,,,,,,,,,,,,,,,,,,,,,,,,,,,,,,,,,,,,,,,,,,,,,,,,,,,,,,,,,,,,,,,,,,,,,,,,,,,,,,,,,,,,,,,,,,,,,,,,,,,,,,,,,,,,,,,,,,,,,,,,,,,,,,,,,,,,,,,,,,,,
0,88,88,5,1,,6102e228afa957e9037adbfe,62c538fa34ab45e55a3a3163,2022-07-06_09h24.07.222,Colour_Asymmetry_Pilot,2022.1.3,Win32,29.93653455,62c50e9c1127f2cd403a315f,,,,,,,,,,,,,,,,,,,,,,,,,,,,,,,,,,,,,,,,,,,,,,,,,,,,,,,,,,,,,,,,,,,,,,,,,,,,,,,,,,,,,,,,,,,,,,,,,,,,,,,,,,,,,,,,,,,,,,,,,,,,,,,,,,,,,,,,,,,,,,,,,,,,,,,,,,,,,,,,,,,
0,89,89,29,1,,6102e228afa957e9037adbfe,62c538fa34ab45e55a3a3163,2022-07-06_09h24.07.222,Colour_Asymmetry_Pilot,2022.1.3,Win32,29.93653455,62c50e9c1127f2cd403a315f,,,,,,,,,,,,,,,,,,,,,,,,,,,,,,,,,,,,,,,,,,,,,,,,,,,,,,,,,,,,,,,,,,,,,,,,,,,,,,,,,,,,,,,,,,,,,,,,,,,,,,,,,,,,,,,,,,,,,,,,,,,,,,,,,,,,,,,,,,,,,,,,,,,,,,,,,,,,,,,,,,,
0,90,90,92,1,,6102e228afa957e9037adbfe,62c538fa34ab45e55a3a3163,2022-07-06_09h24.07.222,Colour_Asymmetry_Pilot,2022.1.3,Win32,29.93653455,62c50e9c1127f2cd403a315f,,,,,,,,,,,,,,,,,,,,,,,,,,,,,,,,,,,,,,,,,,,,,,,,,,,,,,,,,,,,,,,,,,,,,,,,,,,,,,,,,,,,,,,,,,,,,,,,,,,,,,,,,,,,,,,,,,,,,,,,,,,,,,,,,,,,,,,,,,,,,,,,,,,,,,,,,,,,,,,,,,,
0,91,91,57,1,,6102e228afa957e9037adbfe,62c538fa34ab45e55a3a3163,2022-07-06_09h24.07.222,Colour_Asymmetry_Pilot,2022.1.3,Win32,29.93653455,62c50e9c1127f2cd403a315f,,,,,,,,,,,,,,,,,,,,,,,,,,,,,,,,,,,,,,,,,,,,,,,,,,,,,,,,,,,,,,,,,,,,,,,,,,,,,,,,,,,,,,,,,,,,,,,,,,,,,,,,,,,,,,,,,,,,,,,,,,,,,,,,,,,,,,,,,,,,,,,,,,,,,,,,,,,,,,,,,,,
0,92,92,38,1,,6102e228afa957e9037adbfe,62c538fa34ab45e55a3a3163,2022-07-06_09h24.07.222,Colour_Asymmetry_Pilot,2022.1.3,Win32,29.93653455,62c50e9c1127f2cd403a315f,,,,,,,,,,,,,,,,,,,,,,,,,,,,,,,,,,,,,,,,,,,,,,,,,,,,,,,,,,,,,,,,,,,,,,,,,,,,,,,,,,,,,,,,,,,,,,,,,,,,,,,,,,,,,,,,,,,,,,,,,,,,,,,,,,,,,,,,,,,,,,,,,,,,,,,,,,,,,,,,,,,
,,,,,,6102e228afa957e9037adbfe,62c538fa34ab45e55a3a3163,2022-07-06_09h24.07.222,Colour_Asymmetry_Pilot,2022.1.3,Win32,29.93653455,62c50e9c1127f2cd403a315f,0,0,0,37,1,threefour,,,,,,,,,,,,,,,,,,,,,,,,,,,,,,,,,,,,,,,,,,,,,,,,,,,,,,,,,,,,,,,,,,,,,,,,,,,,,,,,,,,,,,,,,,,,,,,,,,,,,,,,,,,,,,,,,,,,,,,,,,,,,,,,,,,,,,,,,,,,,,,,,,,,,,,,,,,,,
,,,,,,6102e228afa957e9037adbfe,62c538fa34ab45e55a3a3163,2022-07-06_09h24.07.222,Colour_Asymmetry_Pilot,2022.1.3,Win32,29.93653455,62c50e9c1127f2cd403a315f,0,1,1,84,1,threeone,,,,,,,,,,,,,,,,,,,,,,,,,,,,,,,,,,,,,,,,,,,,,,,,,,,,,,,,,,,,,,,,,,,,,,,,,,,,,,,,,,,,,,,,,,,,,,,,,,,,,,,,,,,,,,,,,,,,,,,,,,,,,,,,,,,,,,,,,,,,,,,,,,,,,,,,,,,,,
,,,,,,6102e228afa957e9037adbfe,62c538fa34ab45e55a3a3163,2022-07-06_09h24.07.222,Colour_Asymmetry_Pilot,2022.1.3,Win32,29.93653455,62c50e9c1127f2cd403a315f,0,2,2,137,1,onethree,,,,,,,,,,,,,,,,,,,,,,,,,,,,,,,,,,,,,,,,,,,,,,,,,,,,,,,,,,,,,,,,,,,,,,,,,,,,,,,,,,,,,,,,,,,,,,,,,,,,,,,,,,,,,,,,,,,,,,,,,,,,,,,,,,,,,,,,,,,,,,,,,,,,,,,,,,,,,
,,,,,,6102e228afa957e9037adbfe,62c538fa34ab45e55a3a3163,2022-07-06_09h24.07.222,Colour_Asymmetry_Pilot,2022.1.3,Win32,29.93653455,62c50e9c1127f2cd403a315f,0,3,3,100,1,threeone,,,,,,,,,,,,,,,,,,,,,,,,,,,,,,,,,,,,,,,,,,,,,,,,,,,,,,,,,,,,,,,,,,,,,,,,,,,,,,,,,,,,,,,,,,,,,,,,,,,,,,,,,,,,,,,,,,,,,,,,,,,,,,,,,,,,,,,,,,,,,,,,,,,,,,,,,,,,,
,,,,,,6102e228afa957e9037adbfe,62c538fa34ab45e55a3a3163,2022-07-06_09h24.07.222,Colour_Asymmetry_Pilot,2022.1.3,Win32,29.93653455,62c50e9c1127f2cd403a315f,0,4,4,157,1,threefour,,,,,,,,,,,,,,,,,,,,,,,,,,,,,,,,,,,,,,,,,,,,,,,,,,,,,,,,,,,,,,,,,,,,,,,,,,,,,,,,,,,,,,,,,,,,,,,,,,,,,,,,,,,,,,,,,,,,,,,,,,,,,,,,,,,,,,,,,,,,,,,,,,,,,,,,,,,,,
,,,,,,6102e228afa957e9037adbfe,62c538fa34ab45e55a3a3163,2022-07-06_09h24.07.222,Colour_Asymmetry_Pilot,2022.1.3,Win32,29.93653455,62c50e9c1127f2cd403a315f,0,5,5,29,1,threefour,,,,,,,,,,,,,,,,,,,,,,,,,,,,,,,,,,,,,,,,,,,,,,,,,,,,,,,,,,,,,,,,,,,,,,,,,,,,,,,,,,,,,,,,,,,,,,,,,,,,,,,,,,,,,,,,,,,,,,,,,,,,,,,,,,,,,,,,,,,,,,,,,,,,,,,,,,,,,
,,,,,,6102e228afa957e9037adbfe,62c538fa34ab45e55a3a3163,2022-07-06_09h24.07.222,Colour_Asymmetry_Pilot,2022.1.3,Win32,29.93653455,62c50e9c1127f2cd403a315f,0,6,6,91,1,twofour,,,,,,,,,,,,,,,,,,,,,,,,,,,,,,,,,,,,,,,,,,,,,,,,,,,,,,,,,,,,,,,,,,,,,,,,,,,,,,,,,,,,,,,,,,,,,,,,,,,,,,,,,,,,,,,,,,,,,,,,,,,,,,,,,,,,,,,,,,,,,,,,,,,,,,,,,,,,,
,,,,,,6102e228afa957e9037adbfe,62c538fa34ab45e55a3a3163,2022-07-06_09h24.07.222,Colour_Asymmetry_Pilot,2022.1.3,Win32,29.93653455,62c50e9c1127f2cd403a315f,0,7,7,6,1,fourtwo,,,,,,,,,,,,,,,,,,,,,,,,,,,,,,,,,,,,,,,,,,,,,,,,,,,,,,,,,,,,,,,,,,,,,,,,,,,,,,,,,,,,,,,,,,,,,,,,,,,,,,,,,,,,,,,,,,,,,,,,,,,,,,,,,,,,,,,,,,,,,,,,,,,,,,,,,,,,,
,,,,,,6102e228afa957e9037adbfe,62c538fa34ab45e55a3a3163,2022-07-06_09h24.07.222,Colour_Asymmetry_Pilot,2022.1.3,Win32,29.93653455,62c50e9c1127f2cd403a315f,0,8,8,4,1,threeone,,,,,,,,,,,,,,,,,,,,,,,,,,,,,,,,,,,,,,,,,,,,,,,,,,,,,,,,,,,,,,,,,,,,,,,,,,,,,,,,,,,,,,,,,,,,,,,,,,,,,,,,,,,,,,,,,,,,,,,,,,,,,,,,,,,,,,,,,,,,,,,,,,,,,,,,,,,,,
,,,,,,6102e228afa957e9037adbfe,62c538fa34ab45e55a3a3163,2022-07-06_09h24.07.222,Colour_Asymmetry_Pilot,2022.1.3,Win32,29.93653455,62c50e9c1127f2cd403a315f,0,9,9,57,1,onethree,,,,,,,,,,,,,,,,,,,,,,,,,,,,,,,,,,,,,,,,,,,,,,,,,,,,,,,,,,,,,,,,,,,,,,,,,,,,,,,,,,,,,,,,,,,,,,,,,,,,,,,,,,,,,,,,,,,,,,,,,,,,,,,,,,,,,,,,,,,,,,,,,,,,,,,,,,,,,
,,,,,,6102e228afa957e9037adbfe,62c538fa34ab45e55a3a3163,2022-07-06_09h24.07.222,Colour_Asymmetry_Pilot,2022.1.3,Win32,29.93653455,62c50e9c1127f2cd403a315f,0,10,10,73,1,onethree,,,,,,,,,,,,,,,,,,,,,,,,,,,,,,,,,,,,,,,,,,,,,,,,,,,,,,,,,,,,,,,,,,,,,,,,,,,,,,,,,,,,,,,,,,,,,,,,,,,,,,,,,,,,,,,,,,,,,,,,,,,,,,,,,,,,,,,,,,,,,,,,,,,,,,,,,,,,,
,,,,,,6102e228afa957e9037adbfe,62c538fa34ab45e55a3a3163,2022-07-06_09h24.07.222,Colour_Asymmetry_Pilot,2022.1.3,Win32,29.93653455,62c50e9c1127f2cd403a315f,0,11,11,81,1,onethree,,,,,,,,,,,,,,,,,,,,,,,,,,,,,,,,,,,,,,,,,,,,,,,,,,,,,,,,,,,,,,,,,,,,,,,,,,,,,,,,,,,,,,,,,,,,,,,,,,,,,,,,,,,,,,,,,,,,,,,,,,,,,,,,,,,,,,,,,,,,,,,,,,,,,,,,,,,,,
,,,,,,6102e228afa957e9037adbfe,62c538fa34ab45e55a3a3163,2022-07-06_09h24.07.222,Colour_Asymmetry_Pilot,2022.1.3,Win32,29.93653455,62c50e9c1127f2cd403a315f,0,12,12,109,1,threefour,,,,,,,,,,,,,,,,,,,,,,,,,,,,,,,,,,,,,,,,,,,,,,,,,,,,,,,,,,,,,,,,,,,,,,,,,,,,,,,,,,,,,,,,,,,,,,,,,,,,,,,,,,,,,,,,,,,,,,,,,,,,,,,,,,,,,,,,,,,,,,,,,,,,,,,,,,,,,
,,,,,,6102e228afa957e9037adbfe,62c538fa34ab45e55a3a3163,2022-07-06_09h24.07.222,Colour_Asymmetry_Pilot,2022.1.3,Win32,29.93653455,62c50e9c1127f2cd403a315f,0,13,13,60,1,threeone,,,,,,,,,,,,,,,,,,,,,,,,,,,,,,,,,,,,,,,,,,,,,,,,,,,,,,,,,,,,,,,,,,,,,,,,,,,,,,,,,,,,,,,,,,,,,,,,,,,,,,,,,,,,,,,,,,,,,,,,,,,,,,,,,,,,,,,,,,,,,,,,,,,,,,,,,,,,,
,,,,,,6102e228afa957e9037adbfe,62c538fa34ab45e55a3a3163,2022-07-06_09h24.07.222,Colour_Asymmetry_Pilot,2022.1.3,Win32,29.93653455,62c50e9c1127f2cd403a315f,0,14,14,63,1,fourthree,,,,,,,,,,,,,,,,,,,,,,,,,,,,,,,,,,,,,,,,,,,,,,,,,,,,,,,,,,,,,,,,,,,,,,,,,,,,,,,,,,,,,,,,,,,,,,,,,,,,,,,,,,,,,,,,,,,,,,,,,,,,,,,,,,,,,,,,,,,,,,,,,,,,,,,,,,,,,
,,,,,,6102e228afa957e9037adbfe,62c538fa34ab45e55a3a3163,2022-07-06_09h24.07.222,Colour_Asymmetry_Pilot,2022.1.3,Win32,29.93653455,62c50e9c1127f2cd403a315f,0,15,15,127,1,fourthree,,,,,,,,,,,,,,,,,,,,,,,,,,,,,,,,,,,,,,,,,,,,,,,,,,,,,,,,,,,,,,,,,,,,,,,,,,,,,,,,,,,,,,,,,,,,,,,,,,,,,,,,,,,,,,,,,,,,,,,,,,,,,,,,,,,,,,,,,,,,,,,,,,,,,,,,,,,,,
,,,,,,6102e228afa957e9037adbfe,62c538fa34ab45e55a3a3163,2022-07-06_09h24.07.222,Colour_Asymmetry_Pilot,2022.1.3,Win32,29.93653455,62c50e9c1127f2cd403a315f,0,16,16,46,1,fourtwo,,,,,,,,,,,,,,,,,,,,,,,,,,,,,,,,,,,,,,,,,,,,,,,,,,,,,,,,,,,,,,,,,,,,,,,,,,,,,,,,,,,,,,,,,,,,,,,,,,,,,,,,,,,,,,,,,,,,,,,,,,,,,,,,,,,,,,,,,,,,,,,,,,,,,,,,,,,,,
,,,,,,6102e228afa957e9037adbfe,62c538fa34ab45e55a3a3163,2022-07-06_09h24.07.222,Colour_Asymmetry_Pilot,2022.1.3,Win32,29.93653455,62c50e9c1127f2cd403a315f,0,17,17,140,1,threeone,,,,,,,,,,,,,,,,,,,,,,,,,,,,,,,,,,,,,,,,,,,,,,,,,,,,,,,,,,,,,,,,,,,,,,,,,,,,,,,,,,,,,,,,,,,,,,,,,,,,,,,,,,,,,,,,,,,,,,,,,,,,,,,,,,,,,,,,,,,,,,,,,,,,,,,,,,,,,
,,,,,,6102e228afa957e9037adbfe,62c538fa34ab45e55a3a3163,2022-07-06_09h24.07.222,Colour_Asymmetry_Pilot,2022.1.3,Win32,29.93653455,62c50e9c1127f2cd403a315f,0,18,18,98,1,twoone,,,,,,,,,,,,,,,,,,,,,,,,,,,,,,,,,,,,,,,,,,,,,,,,,,,,,,,,,,,,,,,,,,,,,,,,,,,,,,,,,,,,,,,,,,,,,,,,,,,,,,,,,,,,,,,,,,,,,,,,,,,,,,,,,,,,,,,,,,,,,,,,,,,,,,,,,,,,,
,,,,,,6102e228afa957e9037adbfe,62c538fa34ab45e55a3a3163,2022-07-06_09h24.07.222,Colour_Asymmetry_Pilot,2022.1.3,Win32,29.93653455,62c50e9c1127f2cd403a315f,0,19,19,28,1,threeone,,,,,,,,,,,,,,,,,,,,,,,,,,,,,,,,,,,,,,,,,,,,,,,,,,,,,,,,,,,,,,,,,,,,,,,,,,,,,,,,,,,,,,,,,,,,,,,,,,,,,,,,,,,,,,,,,,,,,,,,,,,,,,,,,,,,,,,,,,,,,,,,,,,,,,,,,,,,,
,,,,,,6102e228afa957e9037adbfe,62c538fa34ab45e55a3a3163,2022-07-06_09h24.07.222,Colour_Asymmetry_Pilot,2022.1.3,Win32,29.93653455,62c50e9c1127f2cd403a315f,0,20,20,103,1,fourthree,,,,,,,,,,,,,,,,,,,,,,,,,,,,,,,,,,,,,,,,,,,,,,,,,,,,,,,,,,,,,,,,,,,,,,,,,,,,,,,,,,,,,,,,,,,,,,,,,,,,,,,,,,,,,,,,,,,,,,,,,,,,,,,,,,,,,,,,,,,,,,,,,,,,,,,,,,,,,
,,,,,,6102e228afa957e9037adbfe,62c538fa34ab45e55a3a3163,2022-07-06_09h24.07.222,Colour_Asymmetry_Pilot,2022.1.3,Win32,29.93653455,62c50e9c1127f2cd403a315f,0,21,21,144,1,onetwo,,,,,,,,,,,,,,,,,,,,,,,,,,,,,,,,,,,,,,,,,,,,,,,,,,,,,,,,,,,,,,,,,,,,,,,,,,,,,,,,,,,,,,,,,,,,,,,,,,,,,,,,,,,,,,,,,,,,,,,,,,,,,,,,,,,,,,,,,,,,,,,,,,,,,,,,,,,,,
,,,,,,6102e228afa957e9037adbfe,62c538fa34ab45e55a3a3163,2022-07-06_09h24.07.222,Colour_Asymmetry_Pilot,2022.1.3,Win32,29.93653455,62c50e9c1127f2cd403a315f,0,22,22,126,1,fourtwo,,,,,,,,,,,,,,,,,,,,,,,,,,,,,,,,,,,,,,,,,,,,,,,,,,,,,,,,,,,,,,,,,,,,,,,,,,,,,,,,,,,,,,,,,,,,,,,,,,,,,,,,,,,,,,,,,,,,,,,,,,,,,,,,,,,,,,,,,,,,,,,,,,,,,,,,,,,,,
,,,,,,6102e228afa957e9037adbfe,62c538fa34ab45e55a3a3163,2022-07-06_09h24.07.222,Colour_Asymmetry_Pilot,2022.1.3,Win32,29.93653455,62c50e9c1127f2cd403a315f,0,23,23,138,1,twoone,,,,,,,,,,,,,,,,,,,,,,,,,,,,,,,,,,,,,,,,,,,,,,,,,,,,,,,,,,,,,,,,,,,,,,,,,,,,,,,,,,,,,,,,,,,,,,,,,,,,,,,,,,,,,,,,,,,,,,,,,,,,,,,,,,,,,,,,,,,,,,,,,,,,,,,,,,,,,
,,,,,,6102e228afa957e9037adbfe,62c538fa34ab45e55a3a3163,2022-07-06_09h24.07.222,Colour_Asymmetry_Pilot,2022.1.3,Win32,29.93653455,62c50e9c1127f2cd403a315f,0,24,24,50,1,twoone,,,,,,,,,,,,,,,,,,,,,,,,,,,,,,,,,,,,,,,,,,,,,,,,,,,,,,,,,,,,,,,,,,,,,,,,,,,,,,,,,,,,,,,,,,,,,,,,,,,,,,,,,,,,,,,,,,,,,,,,,,,,,,,,,,,,,,,,,,,,,,,,,,,,,,,,,,,,,
,,,,,,6102e228afa957e9037adbfe,62c538fa34ab45e55a3a3163,2022-07-06_09h24.07.222,Colour_Asymmetry_Pilot,2022.1.3,Win32,29.93653455,62c50e9c1127f2cd403a315f,0,25,25,116,1,threeone,,,,,,,,,,,,,,,,,,,,,,,,,,,,,,,,,,,,,,,,,,,,,,,,,,,,,,,,,,,,,,,,,,,,,,,,,,,,,,,,,,,,,,,,,,,,,,,,,,,,,,,,,,,,,,,,,,,,,,,,,,,,,,,,,,,,,,,,,,,,,,,,,,,,,,,,,,,,,
,,,,,,6102e228afa957e9037adbfe,62c538fa34ab45e55a3a3163,2022-07-06_09h24.07.222,Colour_Asymmetry_Pilot,2022.1.3,Win32,29.93653455,62c50e9c1127f2cd403a315f,0,26,26,108,1,threeone,,,,,,,,,,,,,,,,,,,,,,,,,,,,,,,,,,,,,,,,,,,,,,,,,,,,,,,,,,,,,,,,,,,,,,,,,,,,,,,,,,,,,,,,,,,,,,,,,,,,,,,,,,,,,,,,,,,,,,,,,,,,,,,,,,,,,,,,,,,,,,,,,,,,,,,,,,,,,
,,,,,,6102e228afa957e9037adbfe,62c538fa34ab45e55a3a3163,2022-07-06_09h24.07.222,Colour_Asymmetry_Pilot,2022.1.3,Win32,29.93653455,62c50e9c1127f2cd403a315f,0,27,27,67,1,twofour,,,,,,,,,,,,,,,,,,,,,,,,,,,,,,,,,,,,,,,,,,,,,,,,,,,,,,,,,,,,,,,,,,,,,,,,,,,,,,,,,,,,,,,,,,,,,,,,,,,,,,,,,,,,,,,,,,,,,,,,,,,,,,,,,,,,,,,,,,,,,,,,,,,,,,,,,,,,,
,,,,,,6102e228afa957e9037adbfe,62c538fa34ab45e55a3a3163,2022-07-06_09h24.07.222,Colour_Asymmetry_Pilot,2022.1.3,Win32,29.93653455,62c50e9c1127f2cd403a315f,0,28,28,3,1,twofour,,,,,,,,,,,,,,,,,,,,,,,,,,,,,,,,,,,,,,,,,,,,,,,,,,,,,,,,,,,,,,,,,,,,,,,,,,,,,,,,,,,,,,,,,,,,,,,,,,,,,,,,,,,,,,,,,,,,,,,,,,,,,,,,,,,,,,,,,,,,,,,,,,,,,,,,,,,,,
,,,,,,6102e228afa957e9037adbfe,62c538fa34ab45e55a3a3163,2022-07-06_09h24.07.222,Colour_Asymmetry_Pilot,2022.1.3,Win32,29.93653455,62c50e9c1127f2cd403a315f,0,29,29,90,1,twoone,,,,,,,,,,,,,,,,,,,,,,,,,,,,,,,,,,,,,,,,,,,,,,,,,,,,,,,,,,,,,,,,,,,,,,,,,,,,,,,,,,,,,,,,,,,,,,,,,,,,,,,,,,,,,,,,,,,,,,,,,,,,,,,,,,,,,,,,,,,,,,,,,,,,,,,,,,,,,
,,,,,,6102e228afa957e9037adbfe,62c538fa34ab45e55a3a3163,2022-07-06_09h24.07.222,Colour_Asymmetry_Pilot,2022.1.3,Win32,29.93653455,62c50e9c1127f2cd403a315f,0,30,30,106,1,twoone,,,,,,,,,,,,,,,,,,,,,,,,,,,,,,,,,,,,,,,,,,,,,,,,,,,,,,,,,,,,,,,,,,,,,,,,,,,,,,,,,,,,,,,,,,,,,,,,,,,,,,,,,,,,,,,,,,,,,,,,,,,,,,,,,,,,,,,,,,,,,,,,,,,,,,,,,,,,,
,,,,,,6102e228afa957e9037adbfe,62c538fa34ab45e55a3a3163,2022-07-06_09h24.07.222,Colour_Asymmetry_Pilot,2022.1.3,Win32,29.93653455,62c50e9c1127f2cd403a315f,0,31,31,101,1,threefour,,,,,,,,,,,,,,,,,,,,,,,,,,,,,,,,,,,,,,,,,,,,,,,,,,,,,,,,,,,,,,,,,,,,,,,,,,,,,,,,,,,,,,,,,,,,,,,,,,,,,,,,,,,,,,,,,,,,,,,,,,,,,,,,,,,,,,,,,,,,,,,,,,,,,,,,,,,,,
,,,,,,6102e228afa957e9037adbfe,62c538fa34ab45e55a3a3163,2022-07-06_09h24.07.222,Colour_Asymmetry_Pilot,2022.1.3,Win32,29.93653455,62c50e9c1127f2cd403a315f,0,32,32,93,1,threefour,,,,,,,,,,,,,,,,,,,,,,,,,,,,,,,,,,,,,,,,,,,,,,,,,,,,,,,,,,,,,,,,,,,,,,,,,,,,,,,,,,,,,,,,,,,,,,,,,,,,,,,,,,,,,,,,,,,,,,,,,,,,,,,,,,,,,,,,,,,,,,,,,,,,,,,,,,,,,
,,,,,,6102e228afa957e9037adbfe,62c538fa34ab45e55a3a3163,2022-07-06_09h24.07.222,Colour_Asymmetry_Pilot,2022.1.3,Win32,29.93653455,62c50e9c1127f2cd403a315f,0,33,33,149,1,threefour,,,,,,,,,,,,,,,,,,,,,,,,,,,,,,,,,,,,,,,,,,,,,,,,,,,,,,,,,,,,,,,,,,,,,,,,,,,,,,,,,,,,,,,,,,,,,,,,,,,,,,,,,,,,,,,,,,,,,,,,,,,,,,,,,,,,,,,,,,,,,,,,,,,,,,,,,,,,,
,,,,,,6102e228afa957e9037adbfe,62c538fa34ab45e55a3a3163,2022-07-06_09h24.07.222,Colour_Asymmetry_Pilot,2022.1.3,Win32,29.93653455,62c50e9c1127f2cd403a315f,0,34,34,128,1,onetwo,,,,,,,,,,,,,,,,,,,,,,,,,,,,,,,,,,,,,,,,,,,,,,,,,,,,,,,,,,,,,,,,,,,,,,,,,,,,,,,,,,,,,,,,,,,,,,,,,,,,,,,,,,,,,,,,,,,,,,,,,,,,,,,,,,,,,,,,,,,,,,,,,,,,,,,,,,,,,
,,,,,,6102e228afa957e9037adbfe,62c538fa34ab45e55a3a3163,2022-07-06_09h24.07.222,Colour_Asymmetry_Pilot,2022.1.3,Win32,29.93653455,62c50e9c1127f2cd403a315f,0,35,35,54,1,fourtwo,,,,,,,,,,,,,,,,,,,,,,,,,,,,,,,,,,,,,,,,,,,,,,,,,,,,,,,,,,,,,,,,,,,,,,,,,,,,,,,,,,,,,,,,,,,,,,,,,,,,,,,,,,,,,,,,,,,,,,,,,,,,,,,,,,,,,,,,,,,,,,,,,,,,,,,,,,,,,
,,,,,,6102e228afa957e9037adbfe,62c538fa34ab45e55a3a3163,2022-07-06_09h24.07.222,Colour_Asymmetry_Pilot,2022.1.3,Win32,29.93653455,62c50e9c1127f2cd403a315f,0,36,36,69,1,threefour,,,,,,,,,,,,,,,,,,,,,,,,,,,,,,,,,,,,,,,,,,,,,,,,,,,,,,,,,,,,,,,,,,,,,,,,,,,,,,,,,,,,,,,,,,,,,,,,,,,,,,,,,,,,,,,,,,,,,,,,,,,,,,,,,,,,,,,,,,,,,,,,,,,,,,,,,,,,,
,,,,,,6102e228afa957e9037adbfe,62c538fa34ab45e55a3a3163,2022-07-06_09h24.07.222,Colour_Asymmetry_Pilot,2022.1.3,Win32,29.93653455,62c50e9c1127f2cd403a315f,0,37,37,41,1,onethree,,,,,,,,,,,,,,,,,,,,,,,,,,,,,,,,,,,,,,,,,,,,,,,,,,,,,,,,,,,,,,,,,,,,,,,,,,,,,,,,,,,,,,,,,,,,,,,,,,,,,,,,,,,,,,,,,,,,,,,,,,,,,,,,,,,,,,,,,,,,,,,,,,,,,,,,,,,,,
,,,,,,6102e228afa957e9037adbfe,62c538fa34ab45e55a3a3163,2022-07-06_09h24.07.222,Colour_Asymmetry_Pilot,2022.1.3,Win32,29.93653455,62c50e9c1127f2cd403a315f,0,38,38,10,1,twoone,,,,,,,,,,,,,,,,,,,,,,,,,,,,,,,,,,,,,,,,,,,,,,,,,,,,,,,,,,,,,,,,,,,,,,,,,,,,,,,,,,,,,,,,,,,,,,,,,,,,,,,,,,,,,,,,,,,,,,,,,,,,,,,,,,,,,,,,,,,,,,,,,,,,,,,,,,,,,
,,,,,,6102e228afa957e9037adbfe,62c538fa34ab45e55a3a3163,2022-07-06_09h24.07.222,Colour_Asymmetry_Pilot,2022.1.3,Win32,29.93653455,62c50e9c1127f2cd403a315f,0,39,39,129,1,onethree,,,,,,,,,,,,,,,,,,,,,,,,,,,,,,,,,,,,,,,,,,,,,,,,,,,,,,,,,,,,,,,,,,,,,,,,,,,,,,,,,,,,,,,,,,,,,,,,,,,,,,,,,,,,,,,,,,,,,,,,,,,,,,,,,,,,,,,,,,,,,,,,,,,,,,,,,,,,,
,,,,,,6102e228afa957e9037adbfe,62c538fa34ab45e55a3a3163,2022-07-06_09h24.07.222,Colour_Asymmetry_Pilot,2022.1.3,Win32,29.93653455,62c50e9c1127f2cd403a315f,0,40,40,43,1,twofour,,,,,,,,,,,,,,,,,,,,,,,,,,,,,,,,,,,,,,,,,,,,,,,,,,,,,,,,,,,,,,,,,,,,,,,,,,,,,,,,,,,,,,,,,,,,,,,,,,,,,,,,,,,,,,,,,,,,,,,,,,,,,,,,,,,,,,,,,,,,,,,,,,,,,,,,,,,,,
,,,,,,6102e228afa957e9037adbfe,62c538fa34ab45e55a3a3163,2022-07-06_09h24.07.222,Colour_Asymmetry_Pilot,2022.1.3,Win32,29.93653455,62c50e9c1127f2cd403a315f,0,41,41,47,1,fourthree,,,,,,,,,,,,,,,,,,,,,,,,,,,,,,,,,,,,,,,,,,,,,,,,,,,,,,,,,,,,,,,,,,,,,,,,,,,,,,,,,,,,,,,,,,,,,,,,,,,,,,,,,,,,,,,,,,,,,,,,,,,,,,,,,,,,,,,,,,,,,,,,,,,,,,,,,,,,,
,,,,,,6102e228afa957e9037adbfe,62c538fa34ab45e55a3a3163,2022-07-06_09h24.07.222,Colour_Asymmetry_Pilot,2022.1.3,Win32,29.93653455,62c50e9c1127f2cd403a315f,0,42,42,150,1,fourtwo,,,,,,,,,,,,,,,,,,,,,,,,,,,,,,,,,,,,,,,,,,,,,,,,,,,,,,,,,,,,,,,,,,,,,,,,,,,,,,,,,,,,,,,,,,,,,,,,,,,,,,,,,,,,,,,,,,,,,,,,,,,,,,,,,,,,,,,,,,,,,,,,,,,,,,,,,,,,,
,,,,,,6102e228afa957e9037adbfe,62c538fa34ab45e55a3a3163,2022-07-06_09h24.07.222,Colour_Asymmetry_Pilot,2022.1.3,Win32,29.93653455,62c50e9c1127f2cd403a315f,0,43,43,70,1,fourtwo,,,,,,,,,,,,,,,,,,,,,,,,,,,,,,,,,,,,,,,,,,,,,,,,,,,,,,,,,,,,,,,,,,,,,,,,,,,,,,,,,,,,,,,,,,,,,,,,,,,,,,,,,,,,,,,,,,,,,,,,,,,,,,,,,,,,,,,,,,,,,,,,,,,,,,,,,,,,,
,,,,,,6102e228afa957e9037adbfe,62c538fa34ab45e55a3a3163,2022-07-06_09h24.07.222,Colour_Asymmetry_Pilot,2022.1.3,Win32,29.93653455,62c50e9c1127f2cd403a315f,0,44,44,160,1,onetwo,,,,,,,,,,,,,,,,,,,,,,,,,,,,,,,,,,,,,,,,,,,,,,,,,,,,,,,,,,,,,,,,,,,,,,,,,,,,,,,,,,,,,,,,,,,,,,,,,,,,,,,,,,,,,,,,,,,,,,,,,,,,,,,,,,,,,,,,,,,,,,,,,,,,,,,,,,,,,
,,,,,,6102e228afa957e9037adbfe,62c538fa34ab45e55a3a3163,2022-07-06_09h24.07.222,Colour_Asymmetry_Pilot,2022.1.3,Win32,29.93653455,62c50e9c1127f2cd403a315f,0,45,45,44,1,threeone,,,,,,,,,,,,,,,,,,,,,,,,,,,,,,,,,,,,,,,,,,,,,,,,,,,,,,,,,,,,,,,,,,,,,,,,,,,,,,,,,,,,,,,,,,,,,,,,,,,,,,,,,,,,,,,,,,,,,,,,,,,,,,,,,,,,,,,,,,,,,,,,,,,,,,,,,,,,,
,,,,,,6102e228afa957e9037adbfe,62c538fa34ab45e55a3a3163,2022-07-06_09h24.07.222,Colour_Asymmetry_Pilot,2022.1.3,Win32,29.93653455,62c50e9c1127f2cd403a315f,0,46,46,104,1,onetwo,,,,,,,,,,,,,,,,,,,,,,,,,,,,,,,,,,,,,,,,,,,,,,,,,,,,,,,,,,,,,,,,,,,,,,,,,,,,,,,,,,,,,,,,,,,,,,,,,,,,,,,,,,,,,,,,,,,,,,,,,,,,,,,,,,,,,,,,,,,,,,,,,,,,,,,,,,,,,
,,,,,,6102e228afa957e9037adbfe,62c538fa34ab45e55a3a3163,2022-07-06_09h24.07.222,Colour_Asymmetry_Pilot,2022.1.3,Win32,29.93653455,62c50e9c1127f2cd403a315f,0,47,47,94,1,fourtwo,,,,,,,,,,,,,,,,,,,,,,,,,,,,,,,,,,,,,,,,,,,,,,,,,,,,,,,,,,,,,,,,,,,,,,,,,,,,,,,,,,,,,,,,,,,,,,,,,,,,,,,,,,,,,,,,,,,,,,,,,,,,,,,,,,,,,,,,,,,,,,,,,,,,,,,,,,,,,
,,,,,,6102e228afa957e9037adbfe,62c538fa34ab45e55a3a3163,2022-07-06_09h24.07.222,Colour_Asymmetry_Pilot,2022.1.3,Win32,29.93653455,62c50e9c1127f2cd403a315f,0,48,48,26,1,twoone,,,,,,,,,,,,,,,,,,,,,,,,,,,,,,,,,,,,,,,,,,,,,,,,,,,,,,,,,,,,,,,,,,,,,,,,,,,,,,,,,,,,,,,,,,,,,,,,,,,,,,,,,,,,,,,,,,,,,,,,,,,,,,,,,,,,,,,,,,,,,,,,,,,,,,,,,,,,,
,,,,,,6102e228afa957e9037adbfe,62c538fa34ab45e55a3a3163,2022-07-06_09h24.07.222,Colour_Asymmetry_Pilot,2022.1.3,Win32,29.93653455,62c50e9c1127f2cd403a315f,0,49,49,18,1,twoone,,,,,,,,,,,,,,,,,,,,,,,,,,,,,,,,,,,,,,,,,,,,,,,,,,,,,,,,,,,,,,,,,,,,,,,,,,,,,,,,,,,,,,,,,,,,,,,,,,,,,,,,,,,,,,,,,,,,,,,,,,,,,,,,,,,,,,,,,,,,,,,,,,,,,,,,,,,,,
,,,,,,6102e228afa957e9037adbfe,62c538fa34ab45e55a3a3163,2022-07-06_09h24.07.222,Colour_Asymmetry_Pilot,2022.1.3,Win32,29.93653455,62c50e9c1127f2cd403a315f,0,50,50,12,1,threeone,,,,,,,,,,,,,,,,,,,,,,,,,,,,,,,,,,,,,,,,,,,,,,,,,,,,,,,,,,,,,,,,,,,,,,,,,,,,,,,,,,,,,,,,,,,,,,,,,,,,,,,,,,,,,,,,,,,,,,,,,,,,,,,,,,,,,,,,,,,,,,,,,,,,,,,,,,,,,
,,,,,,6102e228afa957e9037adbfe,62c538fa34ab45e55a3a3163,2022-07-06_09h24.07.222,Colour_Asymmetry_Pilot,2022.1.3,Win32,29.93653455,62c50e9c1127f2cd403a315f,0,51,51,95,1,fourthree,,,,,,,,,,,,,,,,,,,,,,,,,,,,,,,,,,,,,,,,,,,,,,,,,,,,,,,,,,,,,,,,,,,,,,,,,,,,,,,,,,,,,,,,,,,,,,,,,,,,,,,,,,,,,,,,,,,,,,,,,,,,,,,,,,,,,,,,,,,,,,,,,,,,,,,,,,,,,
,,,,,,6102e228afa957e9037adbfe,62c538fa34ab45e55a3a3163,2022-07-06_09h24.07.222,Colour_Asymmetry_Pilot,2022.1.3,Win32,29.93653455,62c50e9c1127f2cd403a315f,0,52,52,72,1,onetwo,,,,,,,,,,,,,,,,,,,,,,,,,,,,,,,,,,,,,,,,,,,,,,,,,,,,,,,,,,,,,,,,,,,,,,,,,,,,,,,,,,,,,,,,,,,,,,,,,,,,,,,,,,,,,,,,,,,,,,,,,,,,,,,,,,,,,,,,,,,,,,,,,,,,,,,,,,,,,
,,,,,,6102e228afa957e9037adbfe,62c538fa34ab45e55a3a3163,2022-07-06_09h24.07.222,Colour_Asymmetry_Pilot,2022.1.3,Win32,29.93653455,62c50e9c1127f2cd403a315f,0,53,53,115,1,twofour,,,,,,,,,,,,,,,,,,,,,,,,,,,,,,,,,,,,,,,,,,,,,,,,,,,,,,,,,,,,,,,,,,,,,,,,,,,,,,,,,,,,,,,,,,,,,,,,,,,,,,,,,,,,,,,,,,,,,,,,,,,,,,,,,,,,,,,,,,,,,,,,,,,,,,,,,,,,,
,,,,,,6102e228afa957e9037adbfe,62c538fa34ab45e55a3a3163,2022-07-06_09h24.07.222,Colour_Asymmetry_Pilot,2022.1.3,Win32,29.93653455,62c50e9c1127f2cd403a315f,0,54,54,113,1,onethree,,,,,,,,,,,,,,,,,,,,,,,,,,,,,,,,,,,,,,,,,,,,,,,,,,,,,,,,,,,,,,,,,,,,,,,,,,,,,,,,,,,,,,,,,,,,,,,,,,,,,,,,,,,,,,,,,,,,,,,,,,,,,,,,,,,,,,,,,,,,,,,,,,,,,,,,,,,,,
,,,,,,6102e228afa957e9037adbfe,62c538fa34ab45e55a3a3163,2022-07-06_09h24.07.222,Colour_Asymmetry_Pilot,2022.1.3,Win32,29.93653455,62c50e9c1127f2cd403a315f,0,55,55,77,1,threefour,,,,,,,,,,,,,,,,,,,,,,,,,,,,,,,,,,,,,,,,,,,,,,,,,,,,,,,,,,,,,,,,,,,,,,,,,,,,,,,,,,,,,,,,,,,,,,,,,,,,,,,,,,,,,,,,,,,,,,,,,,,,,,,,,,,,,,,,,,,,,,,,,,,,,,,,,,,,,
,,,,,,6102e228afa957e9037adbfe,62c538fa34ab45e55a3a3163,2022-07-06_09h24.07.222,Colour_Asymmetry_Pilot,2022.1.3,Win32,29.93653455,62c50e9c1127f2cd403a315f,0,56,56,76,1,threeone,,,,,,,,,,,,,,,,,,,,,,,,,,,,,,,,,,,,,,,,,,,,,,,,,,,,,,,,,,,,,,,,,,,,,,,,,,,,,,,,,,,,,,,,,,,,,,,,,,,,,,,,,,,,,,,,,,,,,,,,,,,,,,,,,,,,,,,,,,,,,,,,,,,,,,,,,,,,,
,,,,,,6102e228afa957e9037adbfe,62c538fa34ab45e55a3a3163,2022-07-06_09h24.07.222,Colour_Asymmetry_Pilot,2022.1.3,Win32,29.93653455,62c50e9c1127f2cd403a315f,0,57,57,146,1,twoone,,,,,,,,,,,,,,,,,,,,,,,,,,,,,,,,,,,,,,,,,,,,,,,,,,,,,,,,,,,,,,,,,,,,,,,,,,,,,,,,,,,,,,,,,,,,,,,,,,,,,,,,,,,,,,,,,,,,,,,,,,,,,,,,,,,,,,,,,,,,,,,,,,,,,,,,,,,,,
,,,,,,6102e228afa957e9037adbfe,62c538fa34ab45e55a3a3163,2022-07-06_09h24.07.222,Colour_Asymmetry_Pilot,2022.1.3,Win32,29.93653455,62c50e9c1127f2cd403a315f,0,58,58,92,1,threeone,,,,,,,,,,,,,,,,,,,,,,,,,,,,,,,,,,,,,,,,,,,,,,,,,,,,,,,,,,,,,,,,,,,,,,,,,,,,,,,,,,,,,,,,,,,,,,,,,,,,,,,,,,,,,,,,,,,,,,,,,,,,,,,,,,,,,,,,,,,,,,,,,,,,,,,,,,,,,
,,,,,,6102e228afa957e9037adbfe,62c538fa34ab45e55a3a3163,2022-07-06_09h24.07.222,Colour_Asymmetry_Pilot,2022.1.3,Win32,29.93653455,62c50e9c1127f2cd403a315f,0,59,59,56,1,onetwo,,,,,,,,,,,,,,,,,,,,,,,,,,,,,,,,,,,,,,,,,,,,,,,,,,,,,,,,,,,,,,,,,,,,,,,,,,,,,,,,,,,,,,,,,,,,,,,,,,,,,,,,,,,,,,,,,,,,,,,,,,,,,,,,,,,,,,,,,,,,,,,,,,,,,,,,,,,,,
,,,,,,6102e228afa957e9037adbfe,62c538fa34ab45e55a3a3163,2022-07-06_09h24.07.222,Colour_Asymmetry_Pilot,2022.1.3,Win32,29.93653455,62c50e9c1127f2cd403a315f,0,60,60,5,1,threefour,,,,,,,,,,,,,,,,,,,,,,,,,,,,,,,,,,,,,,,,,,,,,,,,,,,,,,,,,,,,,,,,,,,,,,,,,,,,,,,,,,,,,,,,,,,,,,,,,,,,,,,,,,,,,,,,,,,,,,,,,,,,,,,,,,,,,,,,,,,,,,,,,,,,,,,,,,,,,
,,,,,,6102e228afa957e9037adbfe,62c538fa34ab45e55a3a3163,2022-07-06_09h24.07.222,Colour_Asymmetry_Pilot,2022.1.3,Win32,29.93653455,62c50e9c1127f2cd403a315f,0,61,61,131,1,twofour,,,,,,,,,,,,,,,,,,,,,,,,,,,,,,,,,,,,,,,,,,,,,,,,,,,,,,,,,,,,,,,,,,,,,,,,,,,,,,,,,,,,,,,,,,,,,,,,,,,,,,,,,,,,,,,,,,,,,,,,,,,,,,,,,,,,,,,,,,,,,,,,,,,,,,,,,,,,,
,,,,,,6102e228afa957e9037adbfe,62c538fa34ab45e55a3a3163,2022-07-06_09h24.07.222,Colour_Asymmetry_Pilot,2022.1.3,Win32,29.93653455,62c50e9c1127f2cd403a315f,0,62,62,121,1,onethree,,,,,,,,,,,,,,,,,,,,,,,,,,,,,,,,,,,,,,,,,,,,,,,,,,,,,,,,,,,,,,,,,,,,,,,,,,,,,,,,,,,,,,,,,,,,,,,,,,,,,,,,,,,,,,,,,,,,,,,,,,,,,,,,,,,,,,,,,,,,,,,,,,,,,,,,,,,,,
,,,,,,6102e228afa957e9037adbfe,62c538fa34ab45e55a3a3163,2022-07-06_09h24.07.222,Colour_Asymmetry_Pilot,2022.1.3,Win32,29.93653455,62c50e9c1127f2cd403a315f,0,63,63,2,1,twoone,,,,,,,,,,,,,,,,,,,,,,,,,,,,,,,,,,,,,,,,,,,,,,,,,,,,,,,,,,,,,,,,,,,,,,,,,,,,,,,,,,,,,,,,,,,,,,,,,,,,,,,,,,,,,,,,,,,,,,,,,,,,,,,,,,,,,,,,,,,,,,,,,,,,,,,,,,,,,
,,,,,,6102e228afa957e9037adbfe,62c538fa34ab45e55a3a3163,2022-07-06_09h24.07.222,Colour_Asymmetry_Pilot,2022.1.3,Win32,29.93653455,62c50e9c1127f2cd403a315f,0,64,64,139,1,twofour,,,,,,,,,,,,,,,,,,,,,,,,,,,,,,,,,,,,,,,,,,,,,,,,,,,,,,,,,,,,,,,,,,,,,,,,,,,,,,,,,,,,,,,,,,,,,,,,,,,,,,,,,,,,,,,,,,,,,,,,,,,,,,,,,,,,,,,,,,,,,,,,,,,,,,,,,,,,,
,,,,,,6102e228afa957e9037adbfe,62c538fa34ab45e55a3a3163,2022-07-06_09h24.07.222,Colour_Asymmetry_Pilot,2022.1.3,Win32,29.93653455,62c50e9c1127f2cd403a315f,0,65,65,58,1,twoone,,,,,,,,,,,,,,,,,,,,,,,,,,,,,,,,,,,,,,,,,,,,,,,,,,,,,,,,,,,,,,,,,,,,,,,,,,,,,,,,,,,,,,,,,,,,,,,,,,,,,,,,,,,,,,,,,,,,,,,,,,,,,,,,,,,,,,,,,,,,,,,,,,,,,,,,,,,,,
,,,,,,6102e228afa957e9037adbfe,62c538fa34ab45e55a3a3163,2022-07-06_09h24.07.222,Colour_Asymmetry_Pilot,2022.1.3,Win32,29.93653455,62c50e9c1127f2cd403a315f,0,66,66,156,1,threeone,,,,,,,,,,,,,,,,,,,,,,,,,,,,,,,,,,,,,,,,,,,,,,,,,,,,,,,,,,,,,,,,,,,,,,,,,,,,,,,,,,,,,,,,,,,,,,,,,,,,,,,,,,,,,,,,,,,,,,,,,,,,,,,,,,,,,,,,,,,,,,,,,,,,,,,,,,,,,
,,,,,,6102e228afa957e9037adbfe,62c538fa34ab45e55a3a3163,2022-07-06_09h24.07.222,Colour_Asymmetry_Pilot,2022.1.3,Win32,29.93653455,62c50e9c1127f2cd403a315f,0,67,67,19,1,twofour,,,,,,,,,,,,,,,,,,,,,,,,,,,,,,,,,,,,,,,,,,,,,,,,,,,,,,,,,,,,,,,,,,,,,,,,,,,,,,,,,,,,,,,,,,,,,,,,,,,,,,,,,,,,,,,,,,,,,,,,,,,,,,,,,,,,,,,,,,,,,,,,,,,,,,,,,,,,,
,,,,,,6102e228afa957e9037adbfe,62c538fa34ab45e55a3a3163,2022-07-06_09h24.07.222,Colour_Asymmetry_Pilot,2022.1.3,Win32,29.93653455,62c50e9c1127f2cd403a315f,0,68,68,96,1,onetwo,,,,,,,,,,,,,,,,,,,,,,,,,,,,,,,,,,,,,,,,,,,,,,,,,,,,,,,,,,,,,,,,,,,,,,,,,,,,,,,,,,,,,,,,,,,,,,,,,,,,,,,,,,,,,,,,,,,,,,,,,,,,,,,,,,,,,,,,,,,,,,,,,,,,,,,,,,,,,
,,,,,,6102e228afa957e9037adbfe,62c538fa34ab45e55a3a3163,2022-07-06_09h24.07.222,Colour_Asymmetry_Pilot,2022.1.3,Win32,29.93653455,62c50e9c1127f2cd403a315f,0,69,69,8,1,onetwo,,,,,,,,,,,,,,,,,,,,,,,,,,,,,,,,,,,,,,,,,,,,,,,,,,,,,,,,,,,,,,,,,,,,,,,,,,,,,,,,,,,,,,,,,,,,,,,,,,,,,,,,,,,,,,,,,,,,,,,,,,,,,,,,,,,,,,,,,,,,,,,,,,,,,,,,,,,,,
,,,,,,6102e228afa957e9037adbfe,62c538fa34ab45e55a3a3163,2022-07-06_09h24.07.222,Colour_Asymmetry_Pilot,2022.1.3,Win32,29.93653455,62c50e9c1127f2cd403a315f,0,70,70,75,1,twofour,,,,,,,,,,,,,,,,,,,,,,,,,,,,,,,,,,,,,,,,,,,,,,,,,,,,,,,,,,,,,,,,,,,,,,,,,,,,,,,,,,,,,,,,,,,,,,,,,,,,,,,,,,,,,,,,,,,,,,,,,,,,,,,,,,,,,,,,,,,,,,,,,,,,,,,,,,,,,
,,,,,,6102e228afa957e9037adbfe,62c538fa34ab45e55a3a3163,2022-07-06_09h24.07.222,Colour_Asymmetry_Pilot,2022.1.3,Win32,29.93653455,62c50e9c1127f2cd403a315f,0,71,71,114,1,twoone,,,,,,,,,,,,,,,,,,,,,,,,,,,,,,,,,,,,,,,,,,,,,,,,,,,,,,,,,,,,,,,,,,,,,,,,,,,,,,,,,,,,,,,,,,,,,,,,,,,,,,,,,,,,,,,,,,,,,,,,,,,,,,,,,,,,,,,,,,,,,,,,,,,,,,,,,,,,,
,,,,,,6102e228afa957e9037adbfe,62c538fa34ab45e55a3a3163,2022-07-06_09h24.07.222,Colour_Asymmetry_Pilot,2022.1.3,Win32,29.93653455,62c50e9c1127f2cd403a315f,0,72,72,36,1,threeone,,,,,,,,,,,,,,,,,,,,,,,,,,,,,,,,,,,,,,,,,,,,,,,,,,,,,,,,,,,,,,,,,,,,,,,,,,,,,,,,,,,,,,,,,,,,,,,,,,,,,,,,,,,,,,,,,,,,,,,,,,,,,,,,,,,,,,,,,,,,,,,,,,,,,,,,,,,,,
,,,,,,6102e228afa957e9037adbfe,62c538fa34ab45e55a3a3163,2022-07-06_09h24.07.222,Colour_Asymmetry_Pilot,2022.1.3,Win32,29.93653455,62c50e9c1127f2cd403a315f,0,73,73,112,1,onetwo,,,,,,,,,,,,,,,,,,,,,,,,,,,,,,,,,,,,,,,,,,,,,,,,,,,,,,,,,,,,,,,,,,,,,,,,,,,,,,,,,,,,,,,,,,,,,,,,,,,,,,,,,,,,,,,,,,,,,,,,,,,,,,,,,,,,,,,,,,,,,,,,,,,,,,,,,,,,,
,,,,,,6102e228afa957e9037adbfe,62c538fa34ab45e55a3a3163,2022-07-06_09h24.07.222,Colour_Asymmetry_Pilot,2022.1.3,Win32,29.93653455,62c50e9c1127f2cd403a315f,0,74,74,136,1,onetwo,,,,,,,,,,,,,,,,,,,,,,,,,,,,,,,,,,,,,,,,,,,,,,,,,,,,,,,,,,,,,,,,,,,,,,,,,,,,,,,,,,,,,,,,,,,,,,,,,,,,,,,,,,,,,,,,,,,,,,,,,,,,,,,,,,,,,,,,,,,,,,,,,,,,,,,,,,,,,
,,,,,,6102e228afa957e9037adbfe,62c538fa34ab45e55a3a3163,2022-07-06_09h24.07.222,Colour_Asymmetry_Pilot,2022.1.3,Win32,29.93653455,62c50e9c1127f2cd403a315f,0,75,75,65,1,onethree,,,,,,,,,,,,,,,,,,,,,,,,,,,,,,,,,,,,,,,,,,,,,,,,,,,,,,,,,,,,,,,,,,,,,,,,,,,,,,,,,,,,,,,,,,,,,,,,,,,,,,,,,,,,,,,,,,,,,,,,,,,,,,,,,,,,,,,,,,,,,,,,,,,,,,,,,,,,,
,,,,,,6102e228afa957e9037adbfe,62c538fa34ab45e55a3a3163,2022-07-06_09h24.07.222,Colour_Asymmetry_Pilot,2022.1.3,Win32,29.93653455,62c50e9c1127f2cd403a315f,0,76,76,110,1,fourtwo,,,,,,,,,,,,,,,,,,,,,,,,,,,,,,,,,,,,,,,,,,,,,,,,,,,,,,,,,,,,,,,,,,,,,,,,,,,,,,,,,,,,,,,,,,,,,,,,,,,,,,,,,,,,,,,,,,,,,,,,,,,,,,,,,,,,,,,,,,,,,,,,,,,,,,,,,,,,,
,,,,,,6102e228afa957e9037adbfe,62c538fa34ab45e55a3a3163,2022-07-06_09h24.07.222,Colour_Asymmetry_Pilot,2022.1.3,Win32,29.93653455,62c50e9c1127f2cd403a315f,0,77,77,124,1,threeone,,,,,,,,,,,,,,,,,,,,,,,,,,,,,,,,,,,,,,,,,,,,,,,,,,,,,,,,,,,,,,,,,,,,,,,,,,,,,,,,,,,,,,,,,,,,,,,,,,,,,,,,,,,,,,,,,,,,,,,,,,,,,,,,,,,,,,,,,,,,,,,,,,,,,,,,,,,,,
,,,,,,6102e228afa957e9037adbfe,62c538fa34ab45e55a3a3163,2022-07-06_09h24.07.222,Colour_Asymmetry_Pilot,2022.1.3,Win32,29.93653455,62c50e9c1127f2cd403a315f,0,78,78,107,1,twofour,,,,,,,,,,,,,,,,,,,,,,,,,,,,,,,,,,,,,,,,,,,,,,,,,,,,,,,,,,,,,,,,,,,,,,,,,,,,,,,,,,,,,,,,,,,,,,,,,,,,,,,,,,,,,,,,,,,,,,,,,,,,,,,,,,,,,,,,,,,,,,,,,,,,,,,,,,,,,
,,,,,,6102e228afa957e9037adbfe,62c538fa34ab45e55a3a3163,2022-07-06_09h24.07.222,Colour_Asymmetry_Pilot,2022.1.3,Win32,29.93653455,62c50e9c1127f2cd403a315f,0,79,79,1,1,onethree,,,,,,,,,,,,,,,,,,,,,,,,,,,,,,,,,,,,,,,,,,,,,,,,,,,,,,,,,,,,,,,,,,,,,,,,,,,,,,,,,,,,,,,,,,,,,,,,,,,,,,,,,,,,,,,,,,,,,,,,,,,,,,,,,,,,,,,,,,,,,,,,,,,,,,,,,,,,,
,,,,,,6102e228afa957e9037adbfe,62c538fa34ab45e55a3a3163,2022-07-06_09h24.07.222,Colour_Asymmetry_Pilot,2022.1.3,Win32,29.93653455,62c50e9c1127f2cd403a315f,0,80,80,15,1,fourthree,,,,,,,,,,,,,,,,,,,,,,,,,,,,,,,,,,,,,,,,,,,,,,,,,,,,,,,,,,,,,,,,,,,,,,,,,,,,,,,,,,,,,,,,,,,,,,,,,,,,,,,,,,,,,,,,,,,,,,,,,,,,,,,,,,,,,,,,,,,,,,,,,,,,,,,,,,,,,
,,,,,,6102e228afa957e9037adbfe,62c538fa34ab45e55a3a3163,2022-07-06_09h24.07.222,Colour_Asymmetry_Pilot,2022.1.3,Win32,29.93653455,62c50e9c1127f2cd403a315f,0,81,81,59,1,twofour,,,,,,,,,,,,,,,,,,,,,,,,,,,,,,,,,,,,,,,,,,,,,,,,,,,,,,,,,,,,,,,,,,,,,,,,,,,,,,,,,,,,,,,,,,,,,,,,,,,,,,,,,,,,,,,,,,,,,,,,,,,,,,,,,,,,,,,,,,,,,,,,,,,,,,,,,,,,,
,,,,,,6102e228afa957e9037adbfe,62c538fa34ab45e55a3a3163,2022-07-06_09h24.07.222,Colour_Asymmetry_Pilot,2022.1.3,Win32,29.93653455,62c50e9c1127f2cd403a315f,0,82,82,7,1,fourthree,,,,,,,,,,,,,,,,,,,,,,,,,,,,,,,,,,,,,,,,,,,,,,,,,,,,,,,,,,,,,,,,,,,,,,,,,,,,,,,,,,,,,,,,,,,,,,,,,,,,,,,,,,,,,,,,,,,,,,,,,,,,,,,,,,,,,,,,,,,,,,,,,,,,,,,,,,,,,
,,,,,,6102e228afa957e9037adbfe,62c538fa34ab45e55a3a3163,2022-07-06_09h24.07.222,Colour_Asymmetry_Pilot,2022.1.3,Win32,29.93653455,62c50e9c1127f2cd403a315f,0,83,83,83,1,twofour,,,,,,,,,,,,,,,,,,,,,,,,,,,,,,,,,,,,,,,,,,,,,,,,,,,,,,,,,,,,,,,,,,,,,,,,,,,,,,,,,,,,,,,,,,,,,,,,,,,,,,,,,,,,,,,,,,,,,,,,,,,,,,,,,,,,,,,,,,,,,,,,,,,,,,,,,,,,,
,,,,,,6102e228afa957e9037adbfe,62c538fa34ab45e55a3a3163,2022-07-06_09h24.07.222,Colour_Asymmetry_Pilot,2022.1.3,Win32,29.93653455,62c50e9c1127f2cd403a315f,0,84,84,97,1,onethree,,,,,,,,,,,,,,,,,,,,,,,,,,,,,,,,,,,,,,,,,,,,,,,,,,,,,,,,,,,,,,,,,,,,,,,,,,,,,,,,,,,,,,,,,,,,,,,,,,,,,,,,,,,,,,,,,,,,,,,,,,,,,,,,,,,,,,,,,,,,,,,,,,,,,,,,,,,,,
,,,,,,6102e228afa957e9037adbfe,62c538fa34ab45e55a3a3163,2022-07-06_09h24.07.222,Colour_Asymmetry_Pilot,2022.1.3,Win32,29.93653455,62c50e9c1127f2cd403a315f,0,85,85,154,1,twoone,,,,,,,,,,,,,,,,,,,,,,,,,,,,,,,,,,,,,,,,,,,,,,,,,,,,,,,,,,,,,,,,,,,,,,,,,,,,,,,,,,,,,,,,,,,,,,,,,,,,,,,,,,,,,,,,,,,,,,,,,,,,,,,,,,,,,,,,,,,,,,,,,,,,,,,,,,,,,
,,,,,,6102e228afa957e9037adbfe,62c538fa34ab45e55a3a3163,2022-07-06_09h24.07.222,Colour_Asymmetry_Pilot,2022.1.3,Win32,29.93653455,62c50e9c1127f2cd403a315f,0,86,86,82,1,twoone,,,,,,,,,,,,,,,,,,,,,,,,,,,,,,,,,,,,,,,,,,,,,,,,,,,,,,,,,,,,,,,,,,,,,,,,,,,,,,,,,,,,,,,,,,,,,,,,,,,,,,,,,,,,,,,,,,,,,,,,,,,,,,,,,,,,,,,,,,,,,,,,,,,,,,,,,,,,,
,,,,,,6102e228afa957e9037adbfe,62c538fa34ab45e55a3a3163,2022-07-06_09h24.07.222,Colour_Asymmetry_Pilot,2022.1.3,Win32,29.93653455,62c50e9c1127f2cd403a315f,0,87,87,125,1,threefour,,,,,,,,,,,,,,,,,,,,,,,,,,,,,,,,,,,,,,,,,,,,,,,,,,,,,,,,,,,,,,,,,,,,,,,,,,,,,,,,,,,,,,,,,,,,,,,,,,,,,,,,,,,,,,,,,,,,,,,,,,,,,,,,,,,,,,,,,,,,,,,,,,,,,,,,,,,,,
,,,,,,6102e228afa957e9037adbfe,62c538fa34ab45e55a3a3163,2022-07-06_09h24.07.222,Colour_Asymmetry_Pilot,2022.1.3,Win32,29.93653455,62c50e9c1127f2cd403a315f,0,88,88,111,1,fourthree,,,,,,,,,,,,,,,,,,,,,,,,,,,,,,,,,,,,,,,,,,,,,,,,,,,,,,,,,,,,,,,,,,,,,,,,,,,,,,,,,,,,,,,,,,,,,,,,,,,,,,,,,,,,,,,,,,,,,,,,,,,,,,,,,,,,,,,,,,,,,,,,,,,,,,,,,,,,,
,,,,,,6102e228afa957e9037adbfe,62c538fa34ab45e55a3a3163,2022-07-06_09h24.07.222,Colour_Asymmetry_Pilot,2022.1.3,Win32,29.93653455,62c50e9c1127f2cd403a315f,0,89,89,42,1,twoone,,,,,,,,,,,,,,,,,,,,,,,,,,,,,,,,,,,,,,,,,,,,,,,,,,,,,,,,,,,,,,,,,,,,,,,,,,,,,,,,,,,,,,,,,,,,,,,,,,,,,,,,,,,,,,,,,,,,,,,,,,,,,,,,,,,,,,,,,,,,,,,,,,,,,,,,,,,,,
,,,,,,6102e228afa957e9037adbfe,62c538fa34ab45e55a3a3163,2022-07-06_09h24.07.222,Colour_Asymmetry_Pilot,2022.1.3,Win32,29.93653455,62c50e9c1127f2cd403a315f,0,90,90,133,1,threefour,,,,,,,,,,,,,,,,,,,,,,,,,,,,,,,,,,,,,,,,,,,,,,,,,,,,,,,,,,,,,,,,,,,,,,,,,,,,,,,,,,,,,,,,,,,,,,,,,,,,,,,,,,,,,,,,,,,,,,,,,,,,,,,,,,,,,,,,,,,,,,,,,,,,,,,,,,,,,
,,,,,,6102e228afa957e9037adbfe,62c538fa34ab45e55a3a3163,2022-07-06_09h24.07.222,Colour_Asymmetry_Pilot,2022.1.3,Win32,29.93653455,62c50e9c1127f2cd403a315f,0,91,91,16,1,onetwo,,,,,,,,,,,,,,,,,,,,,,,,,,,,,,,,,,,,,,,,,,,,,,,,,,,,,,,,,,,,,,,,,,,,,,,,,,,,,,,,,,,,,,,,,,,,,,,,,,,,,,,,,,,,,,,,,,,,,,,,,,,,,,,,,,,,,,,,,,,,,,,,,,,,,,,,,,,,,
,,,,,,6102e228afa957e9037adbfe,62c538fa34ab45e55a3a3163,2022-07-06_09h24.07.222,Colour_Asymmetry_Pilot,2022.1.3,Win32,29.93653455,62c50e9c1127f2cd403a315f,0,92,92,34,1,twoone,,,,,,,,,,,,,,,,,,,,,,,,,,,,,,,,,,,,,,,,,,,,,,,,,,,,,,,,,,,,,,,,,,,,,,,,,,,,,,,,,,,,,,,,,,,,,,,,,,,,,,,,,,,,,,,,,,,,,,,,,,,,,,,,,,,,,,,,,,,,,,,,,,,,,,,,,,,,,
,,,,,,6102e228afa957e9037adbfe,62c538fa34ab45e55a3a3163,2022-07-06_09h24.07.222,Colour_Asymmetry_Pilot,2022.1.3,Win32,29.93653455,62c50e9c1127f2cd403a315f,0,93,93,86,1,fourtwo,,,,,,,,,,,,,,,,,,,,,,,,,,,,,,,,,,,,,,,,,,,,,,,,,,,,,,,,,,,,,,,,,,,,,,,,,,,,,,,,,,,,,,,,,,,,,,,,,,,,,,,,,,,,,,,,,,,,,,,,,,,,,,,,,,,,,,,,,,,,,,,,,,,,,,,,,,,,,
,,,,,,6102e228afa957e9037adbfe,62c538fa34ab45e55a3a3163,2022-07-06_09h24.07.222,Colour_Asymmetry_Pilot,2022.1.3,Win32,29.93653455,62c50e9c1127f2cd403a315f,0,94,94,85,1,threefour,,,,,,,,,,,,,,,,,,,,,,,,,,,,,,,,,,,,,,,,,,,,,,,,,,,,,,,,,,,,,,,,,,,,,,,,,,,,,,,,,,,,,,,,,,,,,,,,,,,,,,,,,,,,,,,,,,,,,,,,,,,,,,,,,,,,,,,,,,,,,,,,,,,,,,,,,,,,,
,,,,,,6102e228afa957e9037adbfe,62c538fa34ab45e55a3a3163,2022-07-06_09h24.07.222,Colour_Asymmetry_Pilot,2022.1.3,Win32,29.93653455,62c50e9c1127f2cd403a315f,0,95,95,61,1,threefour,,,,,,,,,,,,,,,,,,,,,,,,,,,,,,,,,,,,,,,,,,,,,,,,,,,,,,,,,,,,,,,,,,,,,,,,,,,,,,,,,,,,,,,,,,,,,,,,,,,,,,,,,,,,,,,,,,,,,,,,,,,,,,,,,,,,,,,,,,,,,,,,,,,,,,,,,,,,,
,,,,,,6102e228afa957e9037adbfe,62c538fa34ab45e55a3a3163,2022-07-06_09h24.07.222,Colour_Asymmetry_Pilot,2022.1.3,Win32,29.93653455,62c50e9c1127f2cd403a315f,0,96,96,132,1,threeone,,,,,,,,,,,,,,,,,,,,,,,,,,,,,,,,,,,,,,,,,,,,,,,,,,,,,,,,,,,,,,,,,,,,,,,,,,,,,,,,,,,,,,,,,,,,,,,,,,,,,,,,,,,,,,,,,,,,,,,,,,,,,,,,,,,,,,,,,,,,,,,,,,,,,,,,,,,,,
,,,,,,6102e228afa957e9037adbfe,62c538fa34ab45e55a3a3163,2022-07-06_09h24.07.222,Colour_Asymmetry_Pilot,2022.1.3,Win32,29.93653455,62c50e9c1127f2cd403a315f,0,97,97,13,1,threefour,,,,,,,,,,,,,,,,,,,,,,,,,,,,,,,,,,,,,,,,,,,,,,,,,,,,,,,,,,,,,,,,,,,,,,,,,,,,,,,,,,,,,,,,,,,,,,,,,,,,,,,,,,,,,,,,,,,,,,,,,,,,,,,,,,,,,,,,,,,,,,,,,,,,,,,,,,,,,
,,,,,,6102e228afa957e9037adbfe,62c538fa34ab45e55a3a3163,2022-07-06_09h24.07.222,Colour_Asymmetry_Pilot,2022.1.3,Win32,29.93653455,62c50e9c1127f2cd403a315f,0,98,98,38,1,fourtwo,,,,,,,,,,,,,,,,,,,,,,,,,,,,,,,,,,,,,,,,,,,,,,,,,,,,,,,,,,,,,,,,,,,,,,,,,,,,,,,,,,,,,,,,,,,,,,,,,,,,,,,,,,,,,,,,,,,,,,,,,,,,,,,,,,,,,,,,,,,,,,,,,,,,,,,,,,,,,
,,,,,,6102e228afa957e9037adbfe,62c538fa34ab45e55a3a3163,2022-07-06_09h24.07.222,Colour_Asymmetry_Pilot,2022.1.3,Win32,29.93653455,62c50e9c1127f2cd403a315f,0,99,99,11,1,twofour,,,,,,,,,,,,,,,,,,,,,,,,,,,,,,,,,,,,,,,,,,,,,,,,,,,,,,,,,,,,,,,,,,,,,,,,,,,,,,,,,,,,,,,,,,,,,,,,,,,,,,,,,,,,,,,,,,,,,,,,,,,,,,,,,,,,,,,,,,,,,,,,,,,,,,,,,,,,,
,,,,,,6102e228afa957e9037adbfe,62c538fa34ab45e55a3a3163,2022-07-06_09h24.07.222,Colour_Asymmetry_Pilot,2022.1.3,Win32,29.93653455,62c50e9c1127f2cd403a315f,0,100,100,99,1,twofour,,,,,,,,,,,,,,,,,,,,,,,,,,,,,,,,,,,,,,,,,,,,,,,,,,,,,,,,,,,,,,,,,,,,,,,,,,,,,,,,,,,,,,,,,,,,,,,,,,,,,,,,,,,,,,,,,,,,,,,,,,,,,,,,,,,,,,,,,,,,,,,,,,,,,,,,,,,,,
,,,,,,6102e228afa957e9037adbfe,62c538fa34ab45e55a3a3163,2022-07-06_09h24.07.222,Colour_Asymmetry_Pilot,2022.1.3,Win32,29.93653455,62c50e9c1127f2cd403a315f,0,101,101,0,1,onetwo,,,,,,,,,,,,,,,,,,,,,,,,,,,,,,,,,,,,,,,,,,,,,,,,,,,,,,,,,,,,,,,,,,,,,,,,,,,,,,,,,,,,,,,,,,,,,,,,,,,,,,,,,,,,,,,,,,,,,,,,,,,,,,,,,,,,,,,,,,,,,,,,,,,,,,,,,,,,,
,,,,,,6102e228afa957e9037adbfe,62c538fa34ab45e55a3a3163,2022-07-06_09h24.07.222,Colour_Asymmetry_Pilot,2022.1.3,Win32,29.93653455,62c50e9c1127f2cd403a315f,0,102,102,147,1,twofour,,,,,,,,,,,,,,,,,,,,,,,,,,,,,,,,,,,,,,,,,,,,,,,,,,,,,,,,,,,,,,,,,,,,,,,,,,,,,,,,,,,,,,,,,,,,,,,,,,,,,,,,,,,,,,,,,,,,,,,,,,,,,,,,,,,,,,,,,,,,,,,,,,,,,,,,,,,,,
,,,,,,6102e228afa957e9037adbfe,62c538fa34ab45e55a3a3163,2022-07-06_09h24.07.222,Colour_Asymmetry_Pilot,2022.1.3,Win32,29.93653455,62c50e9c1127f2cd403a315f,0,103,103,53,1,threefour,,,,,,,,,,,,,,,,,,,,,,,,,,,,,,,,,,,,,,,,,,,,,,,,,,,,,,,,,,,,,,,,,,,,,,,,,,,,,,,,,,,,,,,,,,,,,,,,,,,,,,,,,,,,,,,,,,,,,,,,,,,,,,,,,,,,,,,,,,,,,,,,,,,,,,,,,,,,,
,,,,,,6102e228afa957e9037adbfe,62c538fa34ab45e55a3a3163,2022-07-06_09h24.07.222,Colour_Asymmetry_Pilot,2022.1.3,Win32,29.93653455,62c50e9c1127f2cd403a315f,0,104,104,14,1,fourtwo,,,,,,,,,,,,,,,,,,,,,,,,,,,,,,,,,,,,,,,,,,,,,,,,,,,,,,,,,,,,,,,,,,,,,,,,,,,,,,,,,,,,,,,,,,,,,,,,,,,,,,,,,,,,,,,,,,,,,,,,,,,,,,,,,,,,,,,,,,,,,,,,,,,,,,,,,,,,,
,,,,,,6102e228afa957e9037adbfe,62c538fa34ab45e55a3a3163,2022-07-06_09h24.07.222,Colour_Asymmetry_Pilot,2022.1.3,Win32,29.93653455,62c50e9c1127f2cd403a315f,0,105,105,64,1,onetwo,,,,,,,,,,,,,,,,,,,,,,,,,,,,,,,,,,,,,,,,,,,,,,,,,,,,,,,,,,,,,,,,,,,,,,,,,,,,,,,,,,,,,,,,,,,,,,,,,,,,,,,,,,,,,,,,,,,,,,,,,,,,,,,,,,,,,,,,,,,,,,,,,,,,,,,,,,,,,
,,,,,,6102e228afa957e9037adbfe,62c538fa34ab45e55a3a3163,2022-07-06_09h24.07.222,Colour_Asymmetry_Pilot,2022.1.3,Win32,29.93653455,62c50e9c1127f2cd403a315f,0,106,106,79,1,fourthree,,,,,,,,,,,,,,,,,,,,,,,,,,,,,,,,,,,,,,,,,,,,,,,,,,,,,,,,,,,,,,,,,,,,,,,,,,,,,,,,,,,,,,,,,,,,,,,,,,,,,,,,,,,,,,,,,,,,,,,,,,,,,,,,,,,,,,,,,,,,,,,,,,,,,,,,,,,,,
,,,,,,6102e228afa957e9037adbfe,62c538fa34ab45e55a3a3163,2022-07-06_09h24.07.222,Colour_Asymmetry_Pilot,2022.1.3,Win32,29.93653455,62c50e9c1127f2cd403a315f,0,107,107,33,1,onethree,,,,,,,,,,,,,,,,,,,,,,,,,,,,,,,,,,,,,,,,,,,,,,,,,,,,,,,,,,,,,,,,,,,,,,,,,,,,,,,,,,,,,,,,,,,,,,,,,,,,,,,,,,,,,,,,,,,,,,,,,,,,,,,,,,,,,,,,,,,,,,,,,,,,,,,,,,,,,
,,,,,,6102e228afa957e9037adbfe,62c538fa34ab45e55a3a3163,2022-07-06_09h24.07.222,Colour_Asymmetry_Pilot,2022.1.3,Win32,29.93653455,62c50e9c1127f2cd403a315f,0,108,108,21,1,threefour,,,,,,,,,,,,,,,,,,,,,,,,,,,,,,,,,,,,,,,,,,,,,,,,,,,,,,,,,,,,,,,,,,,,,,,,,,,,,,,,,,,,,,,,,,,,,,,,,,,,,,,,,,,,,,,,,,,,,,,,,,,,,,,,,,,,,,,,,,,,,,,,,,,,,,,,,,,,,
,,,,,,6102e228afa957e9037adbfe,62c538fa34ab45e55a3a3163,2022-07-06_09h24.07.222,Colour_Asymmetry_Pilot,2022.1.3,Win32,29.93653455,62c50e9c1127f2cd403a315f,0,109,109,24,1,onetwo,,,,,,,,,,,,,,,,,,,,,,,,,,,,,,,,,,,,,,,,,,,,,,,,,,,,,,,,,,,,,,,,,,,,,,,,,,,,,,,,,,,,,,,,,,,,,,,,,,,,,,,,,,,,,,,,,,,,,,,,,,,,,,,,,,,,,,,,,,,,,,,,,,,,,,,,,,,,,
,,,,,,6102e228afa957e9037adbfe,62c538fa34ab45e55a3a3163,2022-07-06_09h24.07.222,Colour_Asymmetry_Pilot,2022.1.3,Win32,29.93653455,62c50e9c1127f2cd403a315f,0,110,110,39,1,fourthree,,,,,,,,,,,,,,,,,,,,,,,,,,,,,,,,,,,,,,,,,,,,,,,,,,,,,,,,,,,,,,,,,,,,,,,,,,,,,,,,,,,,,,,,,,,,,,,,,,,,,,,,,,,,,,,,,,,,,,,,,,,,,,,,,,,,,,,,,,,,,,,,,,,,,,,,,,,,,
,,,,,,6102e228afa957e9037adbfe,62c538fa34ab45e55a3a3163,2022-07-06_09h24.07.222,Colour_Asymmetry_Pilot,2022.1.3,Win32,29.93653455,62c50e9c1127f2cd403a315f,0,111,111,55,1,fourthree,,,,,,,,,,,,,,,,,,,,,,,,,,,,,,,,,,,,,,,,,,,,,,,,,,,,,,,,,,,,,,,,,,,,,,,,,,,,,,,,,,,,,,,,,,,,,,,,,,,,,,,,,,,,,,,,,,,,,,,,,,,,,,,,,,,,,,,,,,,,,,,,,,,,,,,,,,,,,
,,,,,,6102e228afa957e9037adbfe,62c538fa34ab45e55a3a3163,2022-07-06_09h24.07.222,Colour_Asymmetry_Pilot,2022.1.3,Win32,29.93653455,62c50e9c1127f2cd403a315f,0,112,112,119,1,fourthree,,,,,,,,,,,,,,,,,,,,,,,,,,,,,,,,,,,,,,,,,,,,,,,,,,,,,,,,,,,,,,,,,,,,,,,,,,,,,,,,,,,,,,,,,,,,,,,,,,,,,,,,,,,,,,,,,,,,,,,,,,,,,,,,,,,,,,,,,,,,,,,,,,,,,,,,,,,,,
,,,,,,6102e228afa957e9037adbfe,62c538fa34ab45e55a3a3163,2022-07-06_09h24.07.222,Colour_Asymmetry_Pilot,2022.1.3,Win32,29.93653455,62c50e9c1127f2cd403a315f,0,113,113,80,1,onetwo,,,,,,,,,,,,,,,,,,,,,,,,,,,,,,,,,,,,,,,,,,,,,,,,,,,,,,,,,,,,,,,,,,,,,,,,,,,,,,,,,,,,,,,,,,,,,,,,,,,,,,,,,,,,,,,,,,,,,,,,,,,,,,,,,,,,,,,,,,,,,,,,,,,,,,,,,,,,,
,,,,,,6102e228afa957e9037adbfe,62c538fa34ab45e55a3a3163,2022-07-06_09h24.07.222,Colour_Asymmetry_Pilot,2022.1.3,Win32,29.93653455,62c50e9c1127f2cd403a315f,0,114,114,74,1,twoone,,,,,,,,,,,,,,,,,,,,,,,,,,,,,,,,,,,,,,,,,,,,,,,,,,,,,,,,,,,,,,,,,,,,,,,,,,,,,,,,,,,,,,,,,,,,,,,,,,,,,,,,,,,,,,,,,,,,,,,,,,,,,,,,,,,,,,,,,,,,,,,,,,,,,,,,,,,,,
,,,,,,6102e228afa957e9037adbfe,62c538fa34ab45e55a3a3163,2022-07-06_09h24.07.222,Colour_Asymmetry_Pilot,2022.1.3,Win32,29.93653455,62c50e9c1127f2cd403a315f,0,115,115,22,1,fourtwo,,,,,,,,,,,,,,,,,,,,,,,,,,,,,,,,,,,,,,,,,,,,,,,,,,,,,,,,,,,,,,,,,,,,,,,,,,,,,,,,,,,,,,,,,,,,,,,,,,,,,,,,,,,,,,,,,,,,,,,,,,,,,,,,,,,,,,,,,,,,,,,,,,,,,,,,,,,,,
,,,,,,6102e228afa957e9037adbfe,62c538fa34ab45e55a3a3163,2022-07-06_09h24.07.222,Colour_Asymmetry_Pilot,2022.1.3,Win32,29.93653455,62c50e9c1127f2cd403a315f,0,116,116,141,1,threefour,,,,,,,,,,,,,,,,,,,,,,,,,,,,,,,,,,,,,,,,,,,,,,,,,,,,,,,,,,,,,,,,,,,,,,,,,,,,,,,,,,,,,,,,,,,,,,,,,,,,,,,,,,,,,,,,,,,,,,,,,,,,,,,,,,,,,,,,,,,,,,,,,,,,,,,,,,,,,
,,,,,,6102e228afa957e9037adbfe,62c538fa34ab45e55a3a3163,2022-07-06_09h24.07.222,Colour_Asymmetry_Pilot,2022.1.3,Win32,29.93653455,62c50e9c1127f2cd403a315f,0,117,117,145,1,onethree,,,,,,,,,,,,,,,,,,,,,,,,,,,,,,,,,,,,,,,,,,,,,,,,,,,,,,,,,,,,,,,,,,,,,,,,,,,,,,,,,,,,,,,,,,,,,,,,,,,,,,,,,,,,,,,,,,,,,,,,,,,,,,,,,,,,,,,,,,,,,,,,,,,,,,,,,,,,,
,,,,,,6102e228afa957e9037adbfe,62c538fa34ab45e55a3a3163,2022-07-06_09h24.07.222,Colour_Asymmetry_Pilot,2022.1.3,Win32,29.93653455,62c50e9c1127f2cd403a315f,0,118,118,40,1,onetwo,,,,,,,,,,,,,,,,,,,,,,,,,,,,,,,,,,,,,,,,,,,,,,,,,,,,,,,,,,,,,,,,,,,,,,,,,,,,,,,,,,,,,,,,,,,,,,,,,,,,,,,,,,,,,,,,,,,,,,,,,,,,,,,,,,,,,,,,,,,,,,,,,,,,,,,,,,,,,
,,,,,,6102e228afa957e9037adbfe,62c538fa34ab45e55a3a3163,2022-07-06_09h24.07.222,Colour_Asymmetry_Pilot,2022.1.3,Win32,29.93653455,62c50e9c1127f2cd403a315f,0,119,119,130,1,twoone,,,,,,,,,,,,,,,,,,,,,,,,,,,,,,,,,,,,,,,,,,,,,,,,,,,,,,,,,,,,,,,,,,,,,,,,,,,,,,,,,,,,,,,,,,,,,,,,,,,,,,,,,,,,,,,,,,,,,,,,,,,,,,,,,,,,,,,,,,,,,,,,,,,,,,,,,,,,,
,,,,,,6102e228afa957e9037adbfe,62c538fa34ab45e55a3a3163,2022-07-06_09h24.07.222,Colour_Asymmetry_Pilot,2022.1.3,Win32,29.93653455,62c50e9c1127f2cd403a315f,0,120,120,17,1,onethree,,,,,,,,,,,,,,,,,,,,,,,,,,,,,,,,,,,,,,,,,,,,,,,,,,,,,,,,,,,,,,,,,,,,,,,,,,,,,,,,,,,,,,,,,,,,,,,,,,,,,,,,,,,,,,,,,,,,,,,,,,,,,,,,,,,,,,,,,,,,,,,,,,,,,,,,,,,,,
,,,,,,6102e228afa957e9037adbfe,62c538fa34ab45e55a3a3163,2022-07-06_09h24.07.222,Colour_Asymmetry_Pilot,2022.1.3,Win32,29.93653455,62c50e9c1127f2cd403a315f,0,121,121,143,1,fourthree,,,,,,,,,,,,,,,,,,,,,,,,,,,,,,,,,,,,,,,,,,,,,,,,,,,,,,,,,,,,,,,,,,,,,,,,,,,,,,,,,,,,,,,,,,,,,,,,,,,,,,,,,,,,,,,,,,,,,,,,,,,,,,,,,,,,,,,,,,,,,,,,,,,,,,,,,,,,,
,,,,,,6102e228afa957e9037adbfe,62c538fa34ab45e55a3a3163,2022-07-06_09h24.07.222,Colour_Asymmetry_Pilot,2022.1.3,Win32,29.93653455,62c50e9c1127f2cd403a315f,0,122,122,62,1,fourtwo,,,,,,,,,,,,,,,,,,,,,,,,,,,,,,,,,,,,,,,,,,,,,,,,,,,,,,,,,,,,,,,,,,,,,,,,,,,,,,,,,,,,,,,,,,,,,,,,,,,,,,,,,,,,,,,,,,,,,,,,,,,,,,,,,,,,,,,,,,,,,,,,,,,,,,,,,,,,,
,,,,,,6102e228afa957e9037adbfe,62c538fa34ab45e55a3a3163,2022-07-06_09h24.07.222,Colour_Asymmetry_Pilot,2022.1.3,Win32,29.93653455,62c50e9c1127f2cd403a315f,0,123,123,49,1,onethree,,,,,,,,,,,,,,,,,,,,,,,,,,,,,,,,,,,,,,,,,,,,,,,,,,,,,,,,,,,,,,,,,,,,,,,,,,,,,,,,,,,,,,,,,,,,,,,,,,,,,,,,,,,,,,,,,,,,,,,,,,,,,,,,,,,,,,,,,,,,,,,,,,,,,,,,,,,,,
,,,,,,6102e228afa957e9037adbfe,62c538fa34ab45e55a3a3163,2022-07-06_09h24.07.222,Colour_Asymmetry_Pilot,2022.1.3,Win32,29.93653455,62c50e9c1127f2cd403a315f,0,124,124,51,1,twofour,,,,,,,,,,,,,,,,,,,,,,,,,,,,,,,,,,,,,,,,,,,,,,,,,,,,,,,,,,,,,,,,,,,,,,,,,,,,,,,,,,,,,,,,,,,,,,,,,,,,,,,,,,,,,,,,,,,,,,,,,,,,,,,,,,,,,,,,,,,,,,,,,,,,,,,,,,,,,
,,,,,,6102e228afa957e9037adbfe,62c538fa34ab45e55a3a3163,2022-07-06_09h24.07.222,Colour_Asymmetry_Pilot,2022.1.3,Win32,29.93653455,62c50e9c1127f2cd403a315f,0,125,125,151,1,fourthree,,,,,,,,,,,,,,,,,,,,,,,,,,,,,,,,,,,,,,,,,,,,,,,,,,,,,,,,,,,,,,,,,,,,,,,,,,,,,,,,,,,,,,,,,,,,,,,,,,,,,,,,,,,,,,,,,,,,,,,,,,,,,,,,,,,,,,,,,,,,,,,,,,,,,,,,,,,,,
,,,,,,6102e228afa957e9037adbfe,62c538fa34ab45e55a3a3163,2022-07-06_09h24.07.222,Colour_Asymmetry_Pilot,2022.1.3,Win32,29.93653455,62c50e9c1127f2cd403a315f,0,126,126,135,1,fourthree,,,,,,,,,,,,,,,,,,,,,,,,,,,,,,,,,,,,,,,,,,,,,,,,,,,,,,,,,,,,,,,,,,,,,,,,,,,,,,,,,,,,,,,,,,,,,,,,,,,,,,,,,,,,,,,,,,,,,,,,,,,,,,,,,,,,,,,,,,,,,,,,,,,,,,,,,,,,,
,,,,,,6102e228afa957e9037adbfe,62c538fa34ab45e55a3a3163,2022-07-06_09h24.07.222,Colour_Asymmetry_Pilot,2022.1.3,Win32,29.93653455,62c50e9c1127f2cd403a315f,0,127,127,45,1,threefour,,,,,,,,,,,,,,,,,,,,,,,,,,,,,,,,,,,,,,,,,,,,,,,,,,,,,,,,,,,,,,,,,,,,,,,,,,,,,,,,,,,,,,,,,,,,,,,,,,,,,,,,,,,,,,,,,,,,,,,,,,,,,,,,,,,,,,,,,,,,,,,,,,,,,,,,,,,,,
,,,,,,6102e228afa957e9037adbfe,62c538fa34ab45e55a3a3163,2022-07-06_09h24.07.222,Colour_Asymmetry_Pilot,2022.1.3,Win32,29.93653455,62c50e9c1127f2cd403a315f,0,128,128,9,1,onethree,,,,,,,,,,,,,,,,,,,,,,,,,,,,,,,,,,,,,,,,,,,,,,,,,,,,,,,,,,,,,,,,,,,,,,,,,,,,,,,,,,,,,,,,,,,,,,,,,,,,,,,,,,,,,,,,,,,,,,,,,,,,,,,,,,,,,,,,,,,,,,,,,,,,,,,,,,,,,
,,,,,,6102e228afa957e9037adbfe,62c538fa34ab45e55a3a3163,2022-07-06_09h24.07.222,Colour_Asymmetry_Pilot,2022.1.3,Win32,29.93653455,62c50e9c1127f2cd403a315f,0,129,129,30,1,fourtwo,,,,,,,,,,,,,,,,,,,,,,,,,,,,,,,,,,,,,,,,,,,,,,,,,,,,,,,,,,,,,,,,,,,,,,,,,,,,,,,,,,,,,,,,,,,,,,,,,,,,,,,,,,,,,,,,,,,,,,,,,,,,,,,,,,,,,,,,,,,,,,,,,,,,,,,,,,,,,
,,,,,,6102e228afa957e9037adbfe,62c538fa34ab45e55a3a3163,2022-07-06_09h24.07.222,Colour_Asymmetry_Pilot,2022.1.3,Win32,29.93653455,62c50e9c1127f2cd403a315f,0,130,130,134,1,fourtwo,,,,,,,,,,,,,,,,,,,,,,,,,,,,,,,,,,,,,,,,,,,,,,,,,,,,,,,,,,,,,,,,,,,,,,,,,,,,,,,,,,,,,,,,,,,,,,,,,,,,,,,,,,,,,,,,,,,,,,,,,,,,,,,,,,,,,,,,,,,,,,,,,,,,,,,,,,,,,
,,,,,,6102e228afa957e9037adbfe,62c538fa34ab45e55a3a3163,2022-07-06_09h24.07.222,Colour_Asymmetry_Pilot,2022.1.3,Win32,29.93653455,62c50e9c1127f2cd403a315f,0,131,131,87,1,fourthree,,,,,,,,,,,,,,,,,,,,,,,,,,,,,,,,,,,,,,,,,,,,,,,,,,,,,,,,,,,,,,,,,,,,,,,,,,,,,,,,,,,,,,,,,,,,,,,,,,,,,,,,,,,,,,,,,,,,,,,,,,,,,,,,,,,,,,,,,,,,,,,,,,,,,,,,,,,,,
,,,,,,6102e228afa957e9037adbfe,62c538fa34ab45e55a3a3163,2022-07-06_09h24.07.222,Colour_Asymmetry_Pilot,2022.1.3,Win32,29.93653455,62c50e9c1127f2cd403a315f,0,132,132,152,1,onetwo,,,,,,,,,,,,,,,,,,,,,,,,,,,,,,,,,,,,,,,,,,,,,,,,,,,,,,,,,,,,,,,,,,,,,,,,,,,,,,,,,,,,,,,,,,,,,,,,,,,,,,,,,,,,,,,,,,,,,,,,,,,,,,,,,,,,,,,,,,,,,,,,,,,,,,,,,,,,,
,,,,,,6102e228afa957e9037adbfe,62c538fa34ab45e55a3a3163,2022-07-06_09h24.07.222,Colour_Asymmetry_Pilot,2022.1.3,Win32,29.93653455,62c50e9c1127f2cd403a315f,0,133,133,32,1,onetwo,,,,,,,,,,,,,,,,,,,,,,,,,,,,,,,,,,,,,,,,,,,,,,,,,,,,,,,,,,,,,,,,,,,,,,,,,,,,,,,,,,,,,,,,,,,,,,,,,,,,,,,,,,,,,,,,,,,,,,,,,,,,,,,,,,,,,,,,,,,,,,,,,,,,,,,,,,,,,
,,,,,,6102e228afa957e9037adbfe,62c538fa34ab45e55a3a3163,2022-07-06_09h24.07.222,Colour_Asymmetry_Pilot,2022.1.3,Win32,29.93653455,62c50e9c1127f2cd403a315f,0,134,134,159,1,fourthree,,,,,,,,,,,,,,,,,,,,,,,,,,,,,,,,,,,,,,,,,,,,,,,,,,,,,,,,,,,,,,,,,,,,,,,,,,,,,,,,,,,,,,,,,,,,,,,,,,,,,,,,,,,,,,,,,,,,,,,,,,,,,,,,,,,,,,,,,,,,,,,,,,,,,,,,,,,,,
,,,,,,6102e228afa957e9037adbfe,62c538fa34ab45e55a3a3163,2022-07-06_09h24.07.222,Colour_Asymmetry_Pilot,2022.1.3,Win32,29.93653455,62c50e9c1127f2cd403a315f,0,135,135,142,1,fourtwo,,,,,,,,,,,,,,,,,,,,,,,,,,,,,,,,,,,,,,,,,,,,,,,,,,,,,,,,,,,,,,,,,,,,,,,,,,,,,,,,,,,,,,,,,,,,,,,,,,,,,,,,,,,,,,,,,,,,,,,,,,,,,,,,,,,,,,,,,,,,,,,,,,,,,,,,,,,,,
,,,,,,6102e228afa957e9037adbfe,62c538fa34ab45e55a3a3163,2022-07-06_09h24.07.222,Colour_Asymmetry_Pilot,2022.1.3,Win32,29.93653455,62c50e9c1127f2cd403a315f,0,136,136,123,1,twofour,,,,,,,,,,,,,,,,,,,,,,,,,,,,,,,,,,,,,,,,,,,,,,,,,,,,,,,,,,,,,,,,,,,,,,,,,,,,,,,,,,,,,,,,,,,,,,,,,,,,,,,,,,,,,,,,,,,,,,,,,,,,,,,,,,,,,,,,,,,,,,,,,,,,,,,,,,,,,
,,,,,,6102e228afa957e9037adbfe,62c538fa34ab45e55a3a3163,2022-07-06_09h24.07.222,Colour_Asymmetry_Pilot,2022.1.3,Win32,29.93653455,62c50e9c1127f2cd403a315f,0,137,137,153,1,onethree,,,,,,,,,,,,,,,,,,,,,,,,,,,,,,,,,,,,,,,,,,,,,,,,,,,,,,,,,,,,,,,,,,,,,,,,,,,,,,,,,,,,,,,,,,,,,,,,,,,,,,,,,,,,,,,,,,,,,,,,,,,,,,,,,,,,,,,,,,,,,,,,,,,,,,,,,,,,,
,,,,,,6102e228afa957e9037adbfe,62c538fa34ab45e55a3a3163,2022-07-06_09h24.07.222,Colour_Asymmetry_Pilot,2022.1.3,Win32,29.93653455,62c50e9c1127f2cd403a315f,0,138,138,35,1,twofour,,,,,,,,,,,,,,,,,,,,,,,,,,,,,,,,,,,,,,,,,,,,,,,,,,,,,,,,,,,,,,,,,,,,,,,,,,,,,,,,,,,,,,,,,,,,,,,,,,,,,,,,,,,,,,,,,,,,,,,,,,,,,,,,,,,,,,,,,,,,,,,,,,,,,,,,,,,,,
,,,,,,6102e228afa957e9037adbfe,62c538fa34ab45e55a3a3163,2022-07-06_09h24.07.222,Colour_Asymmetry_Pilot,2022.1.3,Win32,29.93653455,62c50e9c1127f2cd403a315f,0,139,139,88,1,onetwo,,,,,,,,,,,,,,,,,,,,,,,,,,,,,,,,,,,,,,,,,,,,,,,,,,,,,,,,,,,,,,,,,,,,,,,,,,,,,,,,,,,,,,,,,,,,,,,,,,,,,,,,,,,,,,,,,,,,,,,,,,,,,,,,,,,,,,,,,,,,,,,,,,,,,,,,,,,,,
,,,,,,6102e228afa957e9037adbfe,62c538fa34ab45e55a3a3163,2022-07-06_09h24.07.222,Colour_Asymmetry_Pilot,2022.1.3,Win32,29.93653455,62c50e9c1127f2cd403a315f,0,140,140,158,1,fourtwo,,,,,,,,,,,,,,,,,,,,,,,,,,,,,,,,,,,,,,,,,,,,,,,,,,,,,,,,,,,,,,,,,,,,,,,,,,,,,,,,,,,,,,,,,,,,,,,,,,,,,,,,,,,,,,,,,,,,,,,,,,,,,,,,,,,,,,,,,,,,,,,,,,,,,,,,,,,,,
,,,,,,6102e228afa957e9037adbfe,62c538fa34ab45e55a3a3163,2022-07-06_09h24.07.222,Colour_Asymmetry_Pilot,2022.1.3,Win32,29.93653455,62c50e9c1127f2cd403a315f,0,141,141,31,1,fourthree,,,,,,,,,,,,,,,,,,,,,,,,,,,,,,,,,,,,,,,,,,,,,,,,,,,,,,,,,,,,,,,,,,,,,,,,,,,,,,,,,,,,,,,,,,,,,,,,,,,,,,,,,,,,,,,,,,,,,,,,,,,,,,,,,,,,,,,,,,,,,,,,,,,,,,,,,,,,,
,,,,,,6102e228afa957e9037adbfe,62c538fa34ab45e55a3a3163,2022-07-06_09h24.07.222,Colour_Asymmetry_Pilot,2022.1.3,Win32,29.93653455,62c50e9c1127f2cd403a315f,0,142,142,102,1,fourtwo,,,,,,,,,,,,,,,,,,,,,,,,,,,,,,,,,,,,,,,,,,,,,,,,,,,,,,,,,,,,,,,,,,,,,,,,,,,,,,,,,,,,,,,,,,,,,,,,,,,,,,,,,,,,,,,,,,,,,,,,,,,,,,,,,,,,,,,,,,,,,,,,,,,,,,,,,,,,,
,,,,,,6102e228afa957e9037adbfe,62c538fa34ab45e55a3a3163,2022-07-06_09h24.07.222,Colour_Asymmetry_Pilot,2022.1.3,Win32,29.93653455,62c50e9c1127f2cd403a315f,0,143,143,20,1,threeone,,,,,,,,,,,,,,,,,,,,,,,,,,,,,,,,,,,,,,,,,,,,,,,,,,,,,,,,,,,,,,,,,,,,,,,,,,,,,,,,,,,,,,,,,,,,,,,,,,,,,,,,,,,,,,,,,,,,,,,,,,,,,,,,,,,,,,,,,,,,,,,,,,,,,,,,,,,,,
,,,,,,6102e228afa957e9037adbfe,62c538fa34ab45e55a3a3163,2022-07-06_09h24.07.222,Colour_Asymmetry_Pilot,2022.1.3,Win32,29.93653455,62c50e9c1127f2cd403a315f,0,144,144,23,1,fourthree,,,,,,,,,,,,,,,,,,,,,,,,,,,,,,,,,,,,,,,,,,,,,,,,,,,,,,,,,,,,,,,,,,,,,,,,,,,,,,,,,,,,,,,,,,,,,,,,,,,,,,,,,,,,,,,,,,,,,,,,,,,,,,,,,,,,,,,,,,,,,,,,,,,,,,,,,,,,,
,,,,,,6102e228afa957e9037adbfe,62c538fa34ab45e55a3a3163,2022-07-06_09h24.07.222,Colour_Asymmetry_Pilot,2022.1.3,Win32,29.93653455,62c50e9c1127f2cd403a315f,0,145,145,155,1,twofour,,,,,,,,,,,,,,,,,,,,,,,,,,,,,,,,,,,,,,,,,,,,,,,,,,,,,,,,,,,,,,,,,,,,,,,,,,,,,,,,,,,,,,,,,,,,,,,,,,,,,,,,,,,,,,,,,,,,,,,,,,,,,,,,,,,,,,,,,,,,,,,,,,,,,,,,,,,,,
,,,,,,6102e228afa957e9037adbfe,62c538fa34ab45e55a3a3163,2022-07-06_09h24.07.222,Colour_Asymmetry_Pilot,2022.1.3,Win32,29.93653455,62c50e9c1127f2cd403a315f,0,146,146,161,1,onethree,,,,,,,,,,,,,,,,,,,,,,,,,,,,,,,,,,,,,,,,,,,,,,,,,,,,,,,,,,,,,,,,,,,,,,,,,,,,,,,,,,,,,,,,,,,,,,,,,,,,,,,,,,,,,,,,,,,,,,,,,,,,,,,,,,,,,,,,,,,,,,,,,,,,,,,,,,,,,
,,,,,,6102e228afa957e9037adbfe,62c538fa34ab45e55a3a3163,2022-07-06_09h24.07.222,Colour_Asymmetry_Pilot,2022.1.3,Win32,29.93653455,62c50e9c1127f2cd403a315f,0,147,147,118,1,fourtwo,,,,,,,,,,,,,,,,,,,,,,,,,,,,,,,,,,,,,,,,,,,,,,,,,,,,,,,,,,,,,,,,,,,,,,,,,,,,,,,,,,,,,,,,,,,,,,,,,,,,,,,,,,,,,,,,,,,,,,,,,,,,,,,,,,,,,,,,,,,,,,,,,,,,,,,,,,,,,
,,,,,,6102e228afa957e9037adbfe,62c538fa34ab45e55a3a3163,2022-07-06_09h24.07.222,Colour_Asymmetry_Pilot,2022.1.3,Win32,29.93653455,62c50e9c1127f2cd403a315f,0,148,148,48,1,onetwo,,,,,,,,,,,,,,,,,,,,,,,,,,,,,,,,,,,,,,,,,,,,,,,,,,,,,,,,,,,,,,,,,,,,,,,,,,,,,,,,,,,,,,,,,,,,,,,,,,,,,,,,,,,,,,,,,,,,,,,,,,,,,,,,,,,,,,,,,,,,,,,,,,,,,,,,,,,,,
,,,,,,6102e228afa957e9037adbfe,62c538fa34ab45e55a3a3163,2022-07-06_09h24.07.222,Colour_Asymmetry_Pilot,2022.1.3,Win32,29.93653455,62c50e9c1127f2cd403a315f,0,149,149,68,1,threeone,,,,,,,,,,,,,,,,,,,,,,,,,,,,,,,,,,,,,,,,,,,,,,,,,,,,,,,,,,,,,,,,,,,,,,,,,,,,,,,,,,,,,,,,,,,,,,,,,,,,,,,,,,,,,,,,,,,,,,,,,,,,,,,,,,,,,,,,,,,,,,,,,,,,,,,,,,,,,
,,,,,,6102e228afa957e9037adbfe,62c538fa34ab45e55a3a3163,2022-07-06_09h24.07.222,Colour_Asymmetry_Pilot,2022.1.3,Win32,29.93653455,62c50e9c1127f2cd403a315f,0,150,150,71,1,fourthree,,,,,,,,,,,,,,,,,,,,,,,,,,,,,,,,,,,,,,,,,,,,,,,,,,,,,,,,,,,,,,,,,,,,,,,,,,,,,,,,,,,,,,,,,,,,,,,,,,,,,,,,,,,,,,,,,,,,,,,,,,,,,,,,,,,,,,,,,,,,,,,,,,,,,,,,,,,,,
,,,,,,6102e228afa957e9037adbfe,62c538fa34ab45e55a3a3163,2022-07-06_09h24.07.222,Colour_Asymmetry_Pilot,2022.1.3,Win32,29.93653455,62c50e9c1127f2cd403a315f,0,151,151,120,1,onetwo,,,,,,,,,,,,,,,,,,,,,,,,,,,,,,,,,,,,,,,,,,,,,,,,,,,,,,,,,,,,,,,,,,,,,,,,,,,,,,,,,,,,,,,,,,,,,,,,,,,,,,,,,,,,,,,,,,,,,,,,,,,,,,,,,,,,,,,,,,,,,,,,,,,,,,,,,,,,,
,,,,,,6102e228afa957e9037adbfe,62c538fa34ab45e55a3a3163,2022-07-06_09h24.07.222,Colour_Asymmetry_Pilot,2022.1.3,Win32,29.93653455,62c50e9c1127f2cd403a315f,0,152,152,117,1,threefour,,,,,,,,,,,,,,,,,,,,,,,,,,,,,,,,,,,,,,,,,,,,,,,,,,,,,,,,,,,,,,,,,,,,,,,,,,,,,,,,,,,,,,,,,,,,,,,,,,,,,,,,,,,,,,,,,,,,,,,,,,,,,,,,,,,,,,,,,,,,,,,,,,,,,,,,,,,,,
,,,,,,6102e228afa957e9037adbfe,62c538fa34ab45e55a3a3163,2022-07-06_09h24.07.222,Colour_Asymmetry_Pilot,2022.1.3,Win32,29.93653455,62c50e9c1127f2cd403a315f,0,153,153,27,1,twofour,,,,,,,,,,,,,,,,,,,,,,,,,,,,,,,,,,,,,,,,,,,,,,,,,,,,,,,,,,,,,,,,,,,,,,,,,,,,,,,,,,,,,,,,,,,,,,,,,,,,,,,,,,,,,,,,,,,,,,,,,,,,,,,,,,,,,,,,,,,,,,,,,,,,,,,,,,,,,
,,,,,,6102e228afa957e9037adbfe,62c538fa34ab45e55a3a3163,2022-07-06_09h24.07.222,Colour_Asymmetry_Pilot,2022.1.3,Win32,29.93653455,62c50e9c1127f2cd403a315f,0,154,154,89,1,onethree,,,,,,,,,,,,,,,,,,,,,,,,,,,,,,,,,,,,,,,,,,,,,,,,,,,,,,,,,,,,,,,,,,,,,,,,,,,,,,,,,,,,,,,,,,,,,,,,,,,,,,,,,,,,,,,,,,,,,,,,,,,,,,,,,,,,,,,,,,,,,,,,,,,,,,,,,,,,,
,,,,,,6102e228afa957e9037adbfe,62c538fa34ab45e55a3a3163,2022-07-06_09h24.07.222,Colour_Asymmetry_Pilot,2022.1.3,Win32,29.93653455,62c50e9c1127f2cd403a315f,0,155,155,148,1,threeone,,,,,,,,,,,,,,,,,,,,,,,,,,,,,,,,,,,,,,,,,,,,,,,,,,,,,,,,,,,,,,,,,,,,,,,,,,,,,,,,,,,,,,,,,,,,,,,,,,,,,,,,,,,,,,,,,,,,,,,,,,,,,,,,,,,,,,,,,,,,,,,,,,,,,,,,,,,,,
,,,,,,6102e228afa957e9037adbfe,62c538fa34ab45e55a3a3163,2022-07-06_09h24.07.222,Colour_Asymmetry_Pilot,2022.1.3,Win32,29.93653455,62c50e9c1127f2cd403a315f,0,156,156,66,1,twoone,,,,,,,,,,,,,,,,,,,,,,,,,,,,,,,,,,,,,,,,,,,,,,,,,,,,,,,,,,,,,,,,,,,,,,,,,,,,,,,,,,,,,,,,,,,,,,,,,,,,,,,,,,,,,,,,,,,,,,,,,,,,,,,,,,,,,,,,,,,,,,,,,,,,,,,,,,,,,
,,,,,,6102e228afa957e9037adbfe,62c538fa34ab45e55a3a3163,2022-07-06_09h24.07.222,Colour_Asymmetry_Pilot,2022.1.3,Win32,29.93653455,62c50e9c1127f2cd403a315f,0,157,157,25,1,onethree,,,,,,,,,,,,,,,,,,,,,,,,,,,,,,,,,,,,,,,,,,,,,,,,,,,,,,,,,,,,,,,,,,,,,,,,,,,,,,,,,,,,,,,,,,,,,,,,,,,,,,,,,,,,,,,,,,,,,,,,,,,,,,,,,,,,,,,,,,,,,,,,,,,,,,,,,,,,,
,,,,,,6102e228afa957e9037adbfe,62c538fa34ab45e55a3a3163,2022-07-06_09h24.07.222,Colour_Asymmetry_Pilot,2022.1.3,Win32,29.93653455,62c50e9c1127f2cd403a315f,0,158,158,122,1,twoone,,,,,,,,,,,,,,,,,,,,,,,,,,,,,,,,,,,,,,,,,,,,,,,,,,,,,,,,,,,,,,,,,,,,,,,,,,,,,,,,,,,,,,,,,,,,,,,,,,,,,,,,,,,,,,,,,,,,,,,,,,,,,,,,,,,,,,,,,,,,,,,,,,,,,,,,,,,,,
,,,,,,6102e228afa957e9037adbfe,62c538fa34ab45e55a3a3163,2022-07-06_09h24.07.222,Colour_Asymmetry_Pilot,2022.1.3,Win32,29.93653455,62c50e9c1127f2cd403a315f,0,159,159,105,1,onethree,,,,,,,,,,,,,,,,,,,,,,,,,,,,,,,,,,,,,,,,,,,,,,,,,,,,,,,,,,,,,,,,,,,,,,,,,,,,,,,,,,,,,,,,,,,,,,,,,,,,,,,,,,,,,,,,,,,,,,,,,,,,,,,,,,,,,,,,,,,,,,,,,,,,,,,,,,,,,
,,,,,,6102e228afa957e9037adbfe,62c538fa34ab45e55a3a3163,2022-07-06_09h24.07.222,Colour_Asymmetry_Pilot,2022.1.3,Win32,29.93653455,62c50e9c1127f2cd403a315f,0,160,160,78,1,fourtwo,,,,,,,,,,,,,,,,,,,,,,,,,,,,,,,,,,,,,,,,,,,,,,,,,,,,,,,,,,,,,,,,,,,,,,,,,,,,,,,,,,,,,,,,,,,,,,,,,,,,,,,,,,,,,,,,,,,,,,,,,,,,,,,,,,,,,,,,,,,,,,,,,,,,,,,,,,,,,
,,,,,,6102e228afa957e9037adbfe,62c538fa34ab45e55a3a3163,2022-07-06_09h24.07.222,Colour_Asymmetry_Pilot,2022.1.3,Win32,29.93653455,62c50e9c1127f2cd403a315f,0,161,161,52,1,threeone,,,,,,,,,,,,,,,,,,,,,,,,,,,,,,,,,,,,,,,,,,,,,,,,,,,,,,,,,,,,,,,,,,,,,,,,,,,,,,,,,,,,,,,,,,,,,,,,,,,,,,,,,,,,,,,,,,,,,,,,,,,,,,,,,,,,,,,,,,,,,,,,,,,,,,,,,,,,,
,,,,,,6102e228afa957e9037adbfe,62c538fa34ab45e55a3a3163,2022-07-06_09h24.07.222,Colour_Asymmetry_Pilot,2022.1.3,Win32,29.93653455,62c50e9c1127f2cd403a315f,,,,,,,space,4.353200001,space,12.3933,space,40.3221,space,2.1903,space,1.7144,space,3.544599999,"[-0.5688,-0.08239999999999992,-0.1844]",onethree,"[0.2784,-0.31000000000000005,-0.5452]",-4,8.8273,-41.59998918,109.5999952,1,0,0,response7disk_5,-15.99998879,3.999993622,1,0,0,rectangle_8,-15.99998879,3.999993622,1,0,0,3,-15.99998879,3.999993622,1,0,0,0,0,0,0,1,,,,,,,,,,,,,,,,,,,,,,,,,,,,,,,,,,,,,,,,,,,,,,,,,,,,,,,,,,,,,,,,,,,,,,,,,,,,,,,,,,,,,,,,,,,,,,,,,,,,,,,,,,,,,,,,
,,,,,,6102e228afa957e9037adbfe,62c538fa34ab45e55a3a3163,2022-07-06_09h24.07.222,Colour_Asymmetry_Pilot,2022.1.3,Win32,29.93653455,62c50e9c1127f2cd403a315f,,,,,,,,,,,,,,,,,,,"[0.4196,0.4665999999999999,0.3568]",onetwo,"[-0.17659999999999998,0.3253999999999999,0.19999999999999996]",-3,3.016599999,-73.59998965,37.59999412,1,0,0,response7disk_5,5.600060356,-3.200006485,1,0,0,rectangle_8,5.600060356,-3.200006485,1,0,0,3,5.600060356,-3.200006485,1,0,0,1,0,1,0,1,,,,,,,,,,,,,,,,,,,,,,,,,,,,,,,,,,,,,,,,,,,,,,,,,,,,,,,,,,,,,,,,,,,,,,,,,,,,,,,,,,,,,,,,,,,,,,,,,,,,,,,,,,,,,,,,
,,,,,,6102e228afa957e9037adbfe,62c538fa34ab45e55a3a3163,2022-07-06_09h24.07.222,Colour_Asymmetry_Pilot,2022.1.3,Win32,29.93653455,62c50e9c1127f2cd403a315f,,,,,,,,,,,,,,,,,,,"[-0.8118,-0.8198,-0.5452]",threefour,"[-0.9688,-0.38039999999999996,-0.41979999999999995]",-2,7.340700001,-79.99998975,-33.60000694,1,0,0,response5disk_5,0.800011456,-12.80000663,1,0,0,rectangle_8,100.8000129,43.99999422,1,0,0,3,-6.399939823,5.599993646,1,0,0,2,0,2,0,1,response1disk_7,6,rectangle_4,,,,,,,,,,,,,,,,,,,,,,,,,,,,,,,,,,,,,,,,,,,,,,,,,,,,,,,,,,,,,,,,,,,,,,,,,,,,,,,,,,,,,,,,,,,,,,,,,,,,,,,,,,,,,
,,,,,,6102e228afa957e9037adbfe,62c538fa34ab45e55a3a3163,2022-07-06_09h24.07.222,Colour_Asymmetry_Pilot,2022.1.3,Win32,29.93653455,62c50e9c1127f2cd403a315f,,,,,,,,,,,,,,,,,,,"[0.7646000000000002,0.07440000000000002,0.2704]",onethree,"[0.6625999999999999,0.4980000000000002,-0.357]",-2,7.3859,-107.9999902,-40.80000705,1,0,0,response5disk_5,-11.19998872,-6.4373E-06,1,0,0,rectangle_8,-11.19998872,-6.4373E-06,1,0,0,3,-11.19998872,-6.4373E-06,1,0,0,3,0,3,0,1,,,,,,,,,,,,,,,,,,,,,,,,,,,,,,,,,,,,,,,,,,,,,,,,,,,,,,,,,,,,,,,,,,,,,,,,,,,,,,,,,,,,,,,,,,,,,,,,,,,,,,,,,,,,,,,,
,,,,,,6102e228afa957e9037adbfe,62c538fa34ab45e55a3a3163,2022-07-06_09h24.07.222,Colour_Asymmetry_Pilot,2022.1.3,Win32,29.93653455,62c50e9c1127f2cd403a315f,,,,,,,,,,,,,,,,,,,"[-0.9688,-0.7412000000000001,-0.4902000000000001]",onethree,"[-0.6706000000000001,-0.6157999999999999,-0.6786]",-3,6.3856,-71.99998963,42.39999419,1,0,0,response7disk_5,0.800011456,-4.800006509,1,0,0,rectangle_8,88.00001276,61.59999448,1,0,0,3,5.600060356,13.59999377,1,0,0,4,0,4,0,1,response1disk_7,6,rectangle_4,,,,,,,,,,,,,,,,,,,,,,,,,,,,,,,,,,,,,,,,,,,,,,,,,,,,,,,,,,,,,,,,,,,,,,,,,,,,,,,,,,,,,,,,,,,,,,,,,,,,,,,,,,,,,
,,,,,,6102e228afa957e9037adbfe,62c538fa34ab45e55a3a3163,2022-07-06_09h24.07.222,Colour_Asymmetry_Pilot,2022.1.3,Win32,29.93653455,62c50e9c1127f2cd403a315f,,,,,,,,,,,,,,,,,,,"[0.0351999999999999,0.41159999999999997,0.0038000000000000256]",onetwo,"[-0.4668,-0.8746,-0.2942]",-4,1.377200001,-43.99998921,106.3999951,1,0,0,response7disk_5,-9.599988699,-2.400006473,1,0,0,rectangle_8,-9.599988699,-2.400006473,1,0,0,3,-9.599988699,-2.400006473,1,0,0,5,0,5,0,1,,,,,,,,,,,,,,,,,,,,,,,,,,,,,,,,,,,,,,,,,,,,,,,,,,,,,,,,,,,,,,,,,,,,,,,,,,,,,,,,,,,,,,,,,,,,,,,,,,,,,,,,,,,,,,,,
,,,,,,6102e228afa957e9037adbfe,62c538fa34ab45e55a3a3163,2022-07-06_09h24.07.222,Colour_Asymmetry_Pilot,2022.1.3,Win32,29.93653455,62c50e9c1127f2cd403a315f,,,,,,,,,,,,,,,,,,,"[0.9372,0.9450000000000001,0.8980000000000001]",threefour,"[0.12939999999999996,-0.2864,0.3253999999999999]",-4,1.524,-41.59998918,82.39999479,1,0,0,response7disk_5,-11.99998873,-1.600006461,1,0,0,rectangle_8,-11.99998873,-1.600006461,1,0,0,3,-11.99998873,-1.600006461,1,0,0,6,0,6,0,1,,,,,,,,,,,,,,,,,,,,,,,,,,,,,,,,,,,,,,,,,,,,,,,,,,,,,,,,,,,,,,,,,,,,,,,,,,,,,,,,,,,,,,,,,,,,,,,,,,,,,,,,,,,,,,,,
,,,,,,6102e228afa957e9037adbfe,62c538fa34ab45e55a3a3163,2022-07-06_09h24.07.222,Colour_Asymmetry_Pilot,2022.1.3,Win32,29.93653455,62c50e9c1127f2cd403a315f,,,,,,,,,,,,,,,,,,,,threefour,,-2,2.849900001,,,,,,,,,,,,,,,,,,,,,,,,,,,,,,,,space,3.605599999,"[0.9763999999999999,0.8588,-0.05900000000000005]","[0.9372,0.9450000000000001,0.8980000000000001]",-57.59998941,-25.60000682,1,0,0,response5disk,5.600060356,-3.200006485,1,0,0,rectangle,5.600060356,-3.200006485,1,0,0,,1,0.0058,0,5.600060356,-3.200006485,1,0,0,0,0,0,21,1,21,first,,,,,,,,,,,,,,,,,,,,,,,,,,,,,,,,,,,,,,,,,,,,,,,,,,,,,,,,,,,,,,,,,,,,,,,,
,,,,,,6102e228afa957e9037adbfe,62c538fa34ab45e55a3a3163,2022-07-06_09h24.07.222,Colour_Asymmetry_Pilot,2022.1.3,Win32,29.93653455,62c50e9c1127f2cd403a315f,,,,,,,,,,,,,,,,,,,,threeone,,-3,1.6765,,,,,,,,,,,,,,,,,,,,,,,,,,,,,,,,,,"[0.12939999999999996,-0.2864,0.3253999999999999]","[-0.9688,-0.7412000000000001,-0.4902000000000001]",-59.99998945,31.99999404,1,0,0,response7disk,18.40001172,-7.200006545,1,0,0,rectangle,18.40001172,-7.200006545,1,0,0,,1,0.000400001,0,18.40001172,-7.200006545,1,0,0,0,1,1,99,1,18,second,,,,,,,,,,,,,,,,,,,,,,,,,,,,,,,,,,,,,,,,,,,,,,,,,,,,,,,,,,,,,,,,,,,,,,,,
,,,,,,6102e228afa957e9037adbfe,62c538fa34ab45e55a3a3163,2022-07-06_09h24.07.222,Colour_Asymmetry_Pilot,2022.1.3,Win32,29.93653455,62c50e9c1127f2cd403a315f,,,,,,,,,,,,,,,,,,,,onethree,,-4,0.883099999,,,,,,,,,,,,,,,,,,,,,,,,,,,,,,,,,,"[0.796,0.2156,-0.27859999999999996]","[-0.20799999999999996,-0.655,-0.01980000000000004]",-38.3999403,71.19997021,1,0,0,response7disk,-19.19998884,3.19999361,1,0,0,rectangle,-19.19998884,3.19999361,1,0,0,,1,0.0005,0,-19.19998884,3.19999361,1,0,0,0,2,2,129,1,48,second,,,,,,,,,,,,,,,,,,,,,,,,,,,,,,,,,,,,,,,,,,,,,,,,,,,,,,,,,,,,,,,,,,,,,,,,
,,,,,,6102e228afa957e9037adbfe,62c538fa34ab45e55a3a3163,2022-07-06_09h24.07.222,Colour_Asymmetry_Pilot,2022.1.3,Win32,29.93653455,62c50e9c1127f2cd403a315f,,,,,,,,,,,,,,,,,,,,threeone,,-3,2.711599999,,,,,,,,,,,,,,,,,,,,,,,,,,,,,,,,,,"[0.2784,-0.31000000000000005,-0.5452]","[0.04299999999999993,0.16060000000000008,-0.6628000000000001]",-59.19998944,41.59999418,1,0,0,response7disk,-11.99998873,0.799993575,1,0,0,rectangle,-11.99998873,0.799993575,1,0,0,,1,0.0003,0,-11.99998873,0.799993575,1,0,0,0,3,3,60,1,60,first,,,,,,,,,,,,,,,,,,,,,,,,,,,,,,,,,,,,,,,,,,,,,,,,,,,,,,,,,,,,,,,,,,,,,,,,
,,,,,,6102e228afa957e9037adbfe,62c538fa34ab45e55a3a3163,2022-07-06_09h24.07.222,Colour_Asymmetry_Pilot,2022.1.3,Win32,29.93653455,62c50e9c1127f2cd403a315f,,,,,,,,,,,,,,,,,,,,threefour,,-1,3.2167,,,,,,,,,,,,,,,,,,,,,,,,,,,,,,,,,,"[0.40379999999999994,0.09000000000000008,0.44300000000000006]","[0.19199999999999995,0.18419999999999992,0.5136000000000001]",-37.59998912,-40.00000703,1,0,0,response5disk,-1.59998858,-5.600006521,1,0,0,rectangle,-1.59998858,-5.600006521,1,0,0,,3,0.0034,0,-1.59998858,-5.600006521,1,0,0,0,4,4,121,1,40,second,,,,,,,,,,,,,,,,,,,,,,,,,,,,,,,,,,,,,,,,,,,,,,,,,,,,,,,,,,,,,,,,,,,,,,,,
,,,,,,6102e228afa957e9037adbfe,62c538fa34ab45e55a3a3163,2022-07-06_09h24.07.222,Colour_Asymmetry_Pilot,2022.1.3,Win32,29.93653455,62c50e9c1127f2cd403a315f,,,,,,,,,,,,,,,,,,,,threefour,,-1,1.2536,,,,,,,,,,,,,,,,,,,,,,,,,,,,,,,,,,"[-0.4276,0.0038000000000000256,-0.3256]","[0.19199999999999995,0.18419999999999992,0.5136000000000001]",-33.59998906,-76.80000758,1,0,0,response5disk,6.400011539,-2.400006473,1,0,0,rectangle,6.400011539,-2.400006473,1,0,0,,2,0.0024,0,6.400011539,-2.400006473,1,0,0,0,5,5,155,1,74,second,,,,,,,,,,,,,,,,,,,,,,,,,,,,,,,,,,,,,,,,,,,,,,,,,,,,,,,,,,,,,,,,,,,,,,,,
,,,,,,6102e228afa957e9037adbfe,62c538fa34ab45e55a3a3163,2022-07-06_09h24.07.222,Colour_Asymmetry_Pilot,2022.1.3,Win32,29.93653455,62c50e9c1127f2cd403a315f,,,,,,,,,,,,,,,,,,,,twofour,,-4,0.8723,,,,,,,,,,,,,,,,,,,,,,,,,,,,,,,,,,"[0.30180000000000007,-0.7884,-0.9844]","[0.2862,0.7802,0.3568]",-53.59998935,103.1999707,1,0,0,response7disk,-27.99998897,12.79999375,1,0,0,rectangle,-27.99998897,12.79999375,1,0,0,,1,0.0025,0,-27.99998897,12.79999375,1,0,0,0,6,6,114,1,33,second,,,,,,,,,,,,,,,,,,,,,,,,,,,,,,,,,,,,,,,,,,,,,,,,,,,,,,,,,,,,,,,,,,,,,,,,
,,,,,,6102e228afa957e9037adbfe,62c538fa34ab45e55a3a3163,2022-07-06_09h24.07.222,Colour_Asymmetry_Pilot,2022.1.3,Win32,29.93653455,62c50e9c1127f2cd403a315f,,,,,,,,,,,,,,,,,,,,fourtwo,,1,4.4092,,,,,,,,,,,,,,,,,,,,,,,,,,,,,,,,,,"[0.9842,0.7409999999999999,-0.6628000000000001]","[0.7018,0.7802,-0.16079999999999994]",39.20001203,-80.80000764,1,0,0,response3disk,3.200011492,0.799993575,1,0,0,rectangle,3.200011492,0.799993575,1,0,0,,2,0.001599999,0,3.200011492,0.799993575,1,0,0,0,7,7,150,1,69,second,,,,,,,,,,,,,,,,,,,,,,,,,,,,,,,,,,,,,,,,,,,,,,,,,,,,,,,,,,,,,,,,,,,,,,,,
,,,,,,6102e228afa957e9037adbfe,62c538fa34ab45e55a3a3163,2022-07-06_09h24.07.222,Colour_Asymmetry_Pilot,2022.1.3,Win32,29.93653455,62c50e9c1127f2cd403a315f,,,,,,,,,,,,,,,,,,,,threeone,,-2,1.3352,,,,,,,,,,,,,,,,,,,,,,,,,,,,,,,,,,"[0.4196,0.4665999999999999,0.3568]","[-0.17659999999999998,0.3253999999999999,0.19999999999999996]",-50.39994048,-32.80000693,1,0,0,response5disk,4.800011516,7.999993682,1,0,0,rectangle,4.800011516,7.999993682,1,0,0,,3,0.0037,0,4.800011516,7.999993682,1,0,0,0,8,8,35,1,35,first,,,,,,,,,,,,,,,,,,,,,,,,,,,,,,,,,,,,,,,,,,,,,,,,,,,,,,,,,,,,,,,,,,,,,,,,
,,,,,,6102e228afa957e9037adbfe,62c538fa34ab45e55a3a3163,2022-07-06_09h24.07.222,Colour_Asymmetry_Pilot,2022.1.3,Win32,29.93653455,62c50e9c1127f2cd403a315f,,,,,,,,,,,,,,,,,,,,onethree,,-4,0.958299999,,,,,,,,,,,,,,,,,,,,,,,,,,,,,,,,,,"[-0.38039999999999996,-0.4276,-0.1452]","[0.7018,0.7802,-0.16079999999999994]",-35.19998908,93.59999496,1,0,0,response7disk,-4.799988627,-1.600006461,1,0,0,rectangle,-4.799988627,-1.600006461,1,0,0,,3,0.0002,0,-4.799988627,-1.600006461,1,0,0,0,9,9,87,1,6,second,,,,,,,,,,,,,,,,,,,,,,,,,,,,,,,,,,,,,,,,,,,,,,,,,,,,,,,,,,,,,,,,,,,,,,,,
,,,,,,6102e228afa957e9037adbfe,62c538fa34ab45e55a3a3163,2022-07-06_09h24.07.222,Colour_Asymmetry_Pilot,2022.1.3,Win32,29.93653455,62c50e9c1127f2cd403a315f,,,,,,,,,,,,,,,,,,,,onethree,,-4,0.768599999,,,,,,,,,,,,,,,,,,,,,,,,,,,,,,,,,,"[-0.9766,-0.34920000000000007,0.2156]","[-0.2942,-0.7648,-0.7492000000000001]",-47.99998927,75.9999947,1,0,0,response7disk,-16.79998881,0.799993575,1,0,0,rectangle,-16.79998881,0.799993575,1,0,0,,3,0.0001,0,-16.79998881,0.799993575,1,0,0,0,10,10,50,1,50,first,,,,,,,,,,,,,,,,,,,,,,,,,,,,,,,,,,,,,,,,,,,,,,,,,,,,,,,,,,,,,,,,,,,,,,,,
,,,,,,6102e228afa957e9037adbfe,62c538fa34ab45e55a3a3163,2022-07-06_09h24.07.222,Colour_Asymmetry_Pilot,2022.1.3,Win32,29.93653455,62c50e9c1127f2cd403a315f,,,,,,,,,,,,,,,,,,,,onethree,,-4,0.9861,,,,,,,,,,,,,,,,,,,,,,,,,,,,,,,,,,"[-0.45899999999999996,-0.3256,-0.9374]","[-0.38039999999999996,-0.4276,-0.1452]",-39.19998914,111.1999708,1,0,0,response7disk,-13.59998876,5.599993646,1,0,0,rectangle,-13.59998876,5.599993646,1,0,0,,2,0.0044,0,-13.59998876,5.599993646,1,0,0,0,11,11,111,1,30,second,,,,,,,,,,,,,,,,,,,,,,,,,,,,,,,,,,,,,,,,,,,,,,,,,,,,,,,,,,,,,,,,,,,,,,,,
,,,,,,6102e228afa957e9037adbfe,62c538fa34ab45e55a3a3163,2022-07-06_09h24.07.222,Colour_Asymmetry_Pilot,2022.1.3,Win32,29.93653455,62c50e9c1127f2cd403a315f,,,,,,,,,,,,,,,,,,,,threefour,,-4,0.7692,,,,,,,,,,,,,,,,,,,,,,,,,,,,,,,,,,"[-0.9296,-0.12959999999999994,-0.043199999999999905]","[0.2784,-0.31000000000000005,-0.5452]",-31.19998902,54.39999437,1,0,0,response7disk,3.200011492,-12.80000663,1,0,0,rectangle,3.200011492,-12.80000663,1,0,0,,1,0.0023,0,3.200011492,-12.80000663,1,0,0,0,12,12,81,1,0,second,,,,,,,,,,,,,,,,,,,,,,,,,,,,,,,,,,,,,,,,,,,,,,,,,,,,,,,,,,,,,,,,,,,,,,,,
,,,,,,6102e228afa957e9037adbfe,62c538fa34ab45e55a3a3163,2022-07-06_09h24.07.222,Colour_Asymmetry_Pilot,2022.1.3,Win32,29.93653455,62c50e9c1127f2cd403a315f,,,,,,,,,,,,,,,,,,,,threeone,,-4,0.631900001,,,,,,,,,,,,,,,,,,,,,,,,,,,,,,,,,,"[0.09799999999999986,-0.24719999999999998,0.15280000000000005]","[-0.5452,-0.608,0.2470000000000001]",-37.59998912,63.99999452,1,0,0,response7disk,-3.999988616,-9.60000658,1,0,0,rectangle,-3.999988616,-9.60000658,1,0,0,,3,0.0024,0,-3.999988616,-9.60000658,1,0,0,0,13,13,156,1,75,second,,,,,,,,,,,,,,,,,,,,,,,,,,,,,,,,,,,,,,,,,,,,,,,,,,,,,,,,,,,,,,,,,,,,,,,,
