trials.thisRepN,trials.thisTrialN,trials.thisN,trials.thisIndex,trials.ran,Colourcodes,participant,session,date,expName,psychopyVersion,OS,frameRate,study_id,trials_4.thisRepN,trials_4.thisTrialN,trials_4.thisN,trials_4.thisIndex,trials_4.ran,StimulusPos,key_resp.keys,key_resp.rt,key_resp_2.keys,key_resp_2.rt,key_resp_15.keys,key_resp_15.rt,key_resp_17.keys,key_resp_17.rt,key_resp_9.keys,key_resp_9.rt,key_resp_10.keys,key_resp_10.rt,Circle1_col,Ecc,Circle2_col,similarity,response_time,mouse_5.x,mouse_5.y,mouse_5.leftButton,mouse_5.midButton,mouse_5.rightButton,mouse_5.clicked_name,mouse_10.x,mouse_10.y,mouse_10.leftButton,mouse_10.midButton,mouse_10.rightButton,mouse_10.clicked_name,mouse_7.x,mouse_7.y,mouse_7.leftButton,mouse_7.midButton,mouse_7.rightButton,catchnumberprac,mouse_6.x,mouse_6.y,mouse_6.leftButton,mouse_6.midButton,mouse_6.rightButton,duringprac.thisRepN,duringprac.thisTrialN,duringprac.thisN,duringprac.thisIndex,duringprac.ran,mouse_7.clicked_name,catchprac,mouse_6.clicked_name,key_resp_22.keys,key_resp_22.rt,Circle1_colour,Circle2_colour,mouse.x,mouse.y,mouse.leftButton,mouse.midButton,mouse.rightButton,mouse.clicked_name,mouse_2.x,mouse_2.y,mouse_2.leftButton,mouse_2.midButton,mouse_2.rightButton,mouse_2.clicked_name,mouse_3.x,mouse_3.y,mouse_3.leftButton,mouse_3.midButton,mouse_3.rightButton,catchresponse,catchnumber,response_time_catch,Catch,mouse_11.x,mouse_11.y,mouse_11.leftButton,mouse_11.midButton,mouse_11.rightButton,trials_2.thisRepN,trials_2.thisTrialN,trials_2.thisN,trials_2.thisIndex,trials_2.ran,Colourpair,Temporder,mouse_3.clicked_name,mouse_11.clicked_name,trials_3.thisRepN,trials_3.thisTrialN,trials_3.thisN,trials_3.thisIndex,trials_3.ran,key_resp_instr_Ishi.keys,key_resp_instr_Ishi.rt,Ishi_trial_keyresp.keys,Ishi_trial_keyresp.rt,Ishi_textbox.text,Ishi_mouse.x,Ishi_mouse.y,Ishi_mouse.leftButton,Ishi_mouse.midButton,Ishi_mouse.rightButton,Ishi_loop.thisRepN,Ishi_loop.thisTrialN,Ishi_loop.thisN,Ishi_loop.thisIndex,Ishi_loop.ran,imageaddress,textbox.text,mouse_4.x,mouse_4.y,mouse_4.leftButton,mouse_4.midButton,mouse_4.rightButton,mouse_4.clicked_name,textbox_2.text,mouse_8.x,mouse_8.y,mouse_8.leftButton,mouse_8.midButton,mouse_8.rightButton,mouse_8.clicked_name,textbox_3.text,mouse_9.x,mouse_9.y,mouse_9.leftButton,mouse_9.midButton,mouse_9.rightButton,mouse_9.clicked_name,textbox_4.text,mouse_12.x,mouse_12.y,mouse_12.leftButton,mouse_12.midButton,mouse_12.rightButton,mouse_12.clicked_name,textbox_5.text,mouse_13.x,mouse_13.y,mouse_13.leftButton,mouse_13.midButton,mouse_13.rightButton,mouse_13.clicked_name,textbox_6.text,mouse_14.x,mouse_14.y,mouse_14.leftButton,mouse_14.midButton,mouse_14.rightButton,mouse_14.clicked_name,textbox_7.text,mouse_15.x,mouse_15.y,mouse_15.leftButton,mouse_15.midButton,mouse_15.rightButton,mouse_15.clicked_name
0,0,0,91,1,,613c946a43af30711212b405,62c539931525d49b87c7922b,2022-07-06_09h29.31.383,Colour_Asymmetry_Pilot,2022.1.3,Win32,59.99880002,62c50e9c1127f2cd403a315f,,,,,,,,,,,,,,,,,,,,,,,,,,,,,,,,,,,,,,,,,,,,,,,,,,,,,,,,,,,,,,,,,,,,,,,,,,,,,,,,,,,,,,,,,,,,,,,,,,,,,,,,,,,,,,,,,,,,,,,,,,,,,,,,,,,,,,,,,,,,,,,,,,,,,,,,,,,,,,,,,,,
0,1,1,87,1,,613c946a43af30711212b405,62c539931525d49b87c7922b,2022-07-06_09h29.31.383,Colour_Asymmetry_Pilot,2022.1.3,Win32,59.99880002,62c50e9c1127f2cd403a315f,,,,,,,,,,,,,,,,,,,,,,,,,,,,,,,,,,,,,,,,,,,,,,,,,,,,,,,,,,,,,,,,,,,,,,,,,,,,,,,,,,,,,,,,,,,,,,,,,,,,,,,,,,,,,,,,,,,,,,,,,,,,,,,,,,,,,,,,,,,,,,,,,,,,,,,,,,,,,,,,,,,
0,2,2,23,1,,613c946a43af30711212b405,62c539931525d49b87c7922b,2022-07-06_09h29.31.383,Colour_Asymmetry_Pilot,2022.1.3,Win32,59.99880002,62c50e9c1127f2cd403a315f,,,,,,,,,,,,,,,,,,,,,,,,,,,,,,,,,,,,,,,,,,,,,,,,,,,,,,,,,,,,,,,,,,,,,,,,,,,,,,,,,,,,,,,,,,,,,,,,,,,,,,,,,,,,,,,,,,,,,,,,,,,,,,,,,,,,,,,,,,,,,,,,,,,,,,,,,,,,,,,,,,,
0,3,3,24,1,,613c946a43af30711212b405,62c539931525d49b87c7922b,2022-07-06_09h29.31.383,Colour_Asymmetry_Pilot,2022.1.3,Win32,59.99880002,62c50e9c1127f2cd403a315f,,,,,,,,,,,,,,,,,,,,,,,,,,,,,,,,,,,,,,,,,,,,,,,,,,,,,,,,,,,,,,,,,,,,,,,,,,,,,,,,,,,,,,,,,,,,,,,,,,,,,,,,,,,,,,,,,,,,,,,,,,,,,,,,,,,,,,,,,,,,,,,,,,,,,,,,,,,,,,,,,,,
0,4,4,27,1,,613c946a43af30711212b405,62c539931525d49b87c7922b,2022-07-06_09h29.31.383,Colour_Asymmetry_Pilot,2022.1.3,Win32,59.99880002,62c50e9c1127f2cd403a315f,,,,,,,,,,,,,,,,,,,,,,,,,,,,,,,,,,,,,,,,,,,,,,,,,,,,,,,,,,,,,,,,,,,,,,,,,,,,,,,,,,,,,,,,,,,,,,,,,,,,,,,,,,,,,,,,,,,,,,,,,,,,,,,,,,,,,,,,,,,,,,,,,,,,,,,,,,,,,,,,,,,
0,5,5,35,1,,613c946a43af30711212b405,62c539931525d49b87c7922b,2022-07-06_09h29.31.383,Colour_Asymmetry_Pilot,2022.1.3,Win32,59.99880002,62c50e9c1127f2cd403a315f,,,,,,,,,,,,,,,,,,,,,,,,,,,,,,,,,,,,,,,,,,,,,,,,,,,,,,,,,,,,,,,,,,,,,,,,,,,,,,,,,,,,,,,,,,,,,,,,,,,,,,,,,,,,,,,,,,,,,,,,,,,,,,,,,,,,,,,,,,,,,,,,,,,,,,,,,,,,,,,,,,,
0,6,6,66,1,,613c946a43af30711212b405,62c539931525d49b87c7922b,2022-07-06_09h29.31.383,Colour_Asymmetry_Pilot,2022.1.3,Win32,59.99880002,62c50e9c1127f2cd403a315f,,,,,,,,,,,,,,,,,,,,,,,,,,,,,,,,,,,,,,,,,,,,,,,,,,,,,,,,,,,,,,,,,,,,,,,,,,,,,,,,,,,,,,,,,,,,,,,,,,,,,,,,,,,,,,,,,,,,,,,,,,,,,,,,,,,,,,,,,,,,,,,,,,,,,,,,,,,,,,,,,,,
0,7,7,12,1,,613c946a43af30711212b405,62c539931525d49b87c7922b,2022-07-06_09h29.31.383,Colour_Asymmetry_Pilot,2022.1.3,Win32,59.99880002,62c50e9c1127f2cd403a315f,,,,,,,,,,,,,,,,,,,,,,,,,,,,,,,,,,,,,,,,,,,,,,,,,,,,,,,,,,,,,,,,,,,,,,,,,,,,,,,,,,,,,,,,,,,,,,,,,,,,,,,,,,,,,,,,,,,,,,,,,,,,,,,,,,,,,,,,,,,,,,,,,,,,,,,,,,,,,,,,,,,
0,8,8,3,1,,613c946a43af30711212b405,62c539931525d49b87c7922b,2022-07-06_09h29.31.383,Colour_Asymmetry_Pilot,2022.1.3,Win32,59.99880002,62c50e9c1127f2cd403a315f,,,,,,,,,,,,,,,,,,,,,,,,,,,,,,,,,,,,,,,,,,,,,,,,,,,,,,,,,,,,,,,,,,,,,,,,,,,,,,,,,,,,,,,,,,,,,,,,,,,,,,,,,,,,,,,,,,,,,,,,,,,,,,,,,,,,,,,,,,,,,,,,,,,,,,,,,,,,,,,,,,,
0,9,9,47,1,,613c946a43af30711212b405,62c539931525d49b87c7922b,2022-07-06_09h29.31.383,Colour_Asymmetry_Pilot,2022.1.3,Win32,59.99880002,62c50e9c1127f2cd403a315f,,,,,,,,,,,,,,,,,,,,,,,,,,,,,,,,,,,,,,,,,,,,,,,,,,,,,,,,,,,,,,,,,,,,,,,,,,,,,,,,,,,,,,,,,,,,,,,,,,,,,,,,,,,,,,,,,,,,,,,,,,,,,,,,,,,,,,,,,,,,,,,,,,,,,,,,,,,,,,,,,,,
0,10,10,39,1,,613c946a43af30711212b405,62c539931525d49b87c7922b,2022-07-06_09h29.31.383,Colour_Asymmetry_Pilot,2022.1.3,Win32,59.99880002,62c50e9c1127f2cd403a315f,,,,,,,,,,,,,,,,,,,,,,,,,,,,,,,,,,,,,,,,,,,,,,,,,,,,,,,,,,,,,,,,,,,,,,,,,,,,,,,,,,,,,,,,,,,,,,,,,,,,,,,,,,,,,,,,,,,,,,,,,,,,,,,,,,,,,,,,,,,,,,,,,,,,,,,,,,,,,,,,,,,
0,11,11,32,1,,613c946a43af30711212b405,62c539931525d49b87c7922b,2022-07-06_09h29.31.383,Colour_Asymmetry_Pilot,2022.1.3,Win32,59.99880002,62c50e9c1127f2cd403a315f,,,,,,,,,,,,,,,,,,,,,,,,,,,,,,,,,,,,,,,,,,,,,,,,,,,,,,,,,,,,,,,,,,,,,,,,,,,,,,,,,,,,,,,,,,,,,,,,,,,,,,,,,,,,,,,,,,,,,,,,,,,,,,,,,,,,,,,,,,,,,,,,,,,,,,,,,,,,,,,,,,,
0,12,12,81,1,,613c946a43af30711212b405,62c539931525d49b87c7922b,2022-07-06_09h29.31.383,Colour_Asymmetry_Pilot,2022.1.3,Win32,59.99880002,62c50e9c1127f2cd403a315f,,,,,,,,,,,,,,,,,,,,,,,,,,,,,,,,,,,,,,,,,,,,,,,,,,,,,,,,,,,,,,,,,,,,,,,,,,,,,,,,,,,,,,,,,,,,,,,,,,,,,,,,,,,,,,,,,,,,,,,,,,,,,,,,,,,,,,,,,,,,,,,,,,,,,,,,,,,,,,,,,,,
0,13,13,30,1,,613c946a43af30711212b405,62c539931525d49b87c7922b,2022-07-06_09h29.31.383,Colour_Asymmetry_Pilot,2022.1.3,Win32,59.99880002,62c50e9c1127f2cd403a315f,,,,,,,,,,,,,,,,,,,,,,,,,,,,,,,,,,,,,,,,,,,,,,,,,,,,,,,,,,,,,,,,,,,,,,,,,,,,,,,,,,,,,,,,,,,,,,,,,,,,,,,,,,,,,,,,,,,,,,,,,,,,,,,,,,,,,,,,,,,,,,,,,,,,,,,,,,,,,,,,,,,
0,14,14,85,1,,613c946a43af30711212b405,62c539931525d49b87c7922b,2022-07-06_09h29.31.383,Colour_Asymmetry_Pilot,2022.1.3,Win32,59.99880002,62c50e9c1127f2cd403a315f,,,,,,,,,,,,,,,,,,,,,,,,,,,,,,,,,,,,,,,,,,,,,,,,,,,,,,,,,,,,,,,,,,,,,,,,,,,,,,,,,,,,,,,,,,,,,,,,,,,,,,,,,,,,,,,,,,,,,,,,,,,,,,,,,,,,,,,,,,,,,,,,,,,,,,,,,,,,,,,,,,,
0,15,15,86,1,,613c946a43af30711212b405,62c539931525d49b87c7922b,2022-07-06_09h29.31.383,Colour_Asymmetry_Pilot,2022.1.3,Win32,59.99880002,62c50e9c1127f2cd403a315f,,,,,,,,,,,,,,,,,,,,,,,,,,,,,,,,,,,,,,,,,,,,,,,,,,,,,,,,,,,,,,,,,,,,,,,,,,,,,,,,,,,,,,,,,,,,,,,,,,,,,,,,,,,,,,,,,,,,,,,,,,,,,,,,,,,,,,,,,,,,,,,,,,,,,,,,,,,,,,,,,,,
0,16,16,69,1,,613c946a43af30711212b405,62c539931525d49b87c7922b,2022-07-06_09h29.31.383,Colour_Asymmetry_Pilot,2022.1.3,Win32,59.99880002,62c50e9c1127f2cd403a315f,,,,,,,,,,,,,,,,,,,,,,,,,,,,,,,,,,,,,,,,,,,,,,,,,,,,,,,,,,,,,,,,,,,,,,,,,,,,,,,,,,,,,,,,,,,,,,,,,,,,,,,,,,,,,,,,,,,,,,,,,,,,,,,,,,,,,,,,,,,,,,,,,,,,,,,,,,,,,,,,,,,
0,17,17,57,1,,613c946a43af30711212b405,62c539931525d49b87c7922b,2022-07-06_09h29.31.383,Colour_Asymmetry_Pilot,2022.1.3,Win32,59.99880002,62c50e9c1127f2cd403a315f,,,,,,,,,,,,,,,,,,,,,,,,,,,,,,,,,,,,,,,,,,,,,,,,,,,,,,,,,,,,,,,,,,,,,,,,,,,,,,,,,,,,,,,,,,,,,,,,,,,,,,,,,,,,,,,,,,,,,,,,,,,,,,,,,,,,,,,,,,,,,,,,,,,,,,,,,,,,,,,,,,,
0,18,18,80,1,,613c946a43af30711212b405,62c539931525d49b87c7922b,2022-07-06_09h29.31.383,Colour_Asymmetry_Pilot,2022.1.3,Win32,59.99880002,62c50e9c1127f2cd403a315f,,,,,,,,,,,,,,,,,,,,,,,,,,,,,,,,,,,,,,,,,,,,,,,,,,,,,,,,,,,,,,,,,,,,,,,,,,,,,,,,,,,,,,,,,,,,,,,,,,,,,,,,,,,,,,,,,,,,,,,,,,,,,,,,,,,,,,,,,,,,,,,,,,,,,,,,,,,,,,,,,,,
0,19,19,10,1,,613c946a43af30711212b405,62c539931525d49b87c7922b,2022-07-06_09h29.31.383,Colour_Asymmetry_Pilot,2022.1.3,Win32,59.99880002,62c50e9c1127f2cd403a315f,,,,,,,,,,,,,,,,,,,,,,,,,,,,,,,,,,,,,,,,,,,,,,,,,,,,,,,,,,,,,,,,,,,,,,,,,,,,,,,,,,,,,,,,,,,,,,,,,,,,,,,,,,,,,,,,,,,,,,,,,,,,,,,,,,,,,,,,,,,,,,,,,,,,,,,,,,,,,,,,,,,
0,20,20,43,1,,613c946a43af30711212b405,62c539931525d49b87c7922b,2022-07-06_09h29.31.383,Colour_Asymmetry_Pilot,2022.1.3,Win32,59.99880002,62c50e9c1127f2cd403a315f,,,,,,,,,,,,,,,,,,,,,,,,,,,,,,,,,,,,,,,,,,,,,,,,,,,,,,,,,,,,,,,,,,,,,,,,,,,,,,,,,,,,,,,,,,,,,,,,,,,,,,,,,,,,,,,,,,,,,,,,,,,,,,,,,,,,,,,,,,,,,,,,,,,,,,,,,,,,,,,,,,,
0,21,21,7,1,,613c946a43af30711212b405,62c539931525d49b87c7922b,2022-07-06_09h29.31.383,Colour_Asymmetry_Pilot,2022.1.3,Win32,59.99880002,62c50e9c1127f2cd403a315f,,,,,,,,,,,,,,,,,,,,,,,,,,,,,,,,,,,,,,,,,,,,,,,,,,,,,,,,,,,,,,,,,,,,,,,,,,,,,,,,,,,,,,,,,,,,,,,,,,,,,,,,,,,,,,,,,,,,,,,,,,,,,,,,,,,,,,,,,,,,,,,,,,,,,,,,,,,,,,,,,,,
0,22,22,49,1,,613c946a43af30711212b405,62c539931525d49b87c7922b,2022-07-06_09h29.31.383,Colour_Asymmetry_Pilot,2022.1.3,Win32,59.99880002,62c50e9c1127f2cd403a315f,,,,,,,,,,,,,,,,,,,,,,,,,,,,,,,,,,,,,,,,,,,,,,,,,,,,,,,,,,,,,,,,,,,,,,,,,,,,,,,,,,,,,,,,,,,,,,,,,,,,,,,,,,,,,,,,,,,,,,,,,,,,,,,,,,,,,,,,,,,,,,,,,,,,,,,,,,,,,,,,,,,
0,23,23,67,1,,613c946a43af30711212b405,62c539931525d49b87c7922b,2022-07-06_09h29.31.383,Colour_Asymmetry_Pilot,2022.1.3,Win32,59.99880002,62c50e9c1127f2cd403a315f,,,,,,,,,,,,,,,,,,,,,,,,,,,,,,,,,,,,,,,,,,,,,,,,,,,,,,,,,,,,,,,,,,,,,,,,,,,,,,,,,,,,,,,,,,,,,,,,,,,,,,,,,,,,,,,,,,,,,,,,,,,,,,,,,,,,,,,,,,,,,,,,,,,,,,,,,,,,,,,,,,,
0,24,24,15,1,,613c946a43af30711212b405,62c539931525d49b87c7922b,2022-07-06_09h29.31.383,Colour_Asymmetry_Pilot,2022.1.3,Win32,59.99880002,62c50e9c1127f2cd403a315f,,,,,,,,,,,,,,,,,,,,,,,,,,,,,,,,,,,,,,,,,,,,,,,,,,,,,,,,,,,,,,,,,,,,,,,,,,,,,,,,,,,,,,,,,,,,,,,,,,,,,,,,,,,,,,,,,,,,,,,,,,,,,,,,,,,,,,,,,,,,,,,,,,,,,,,,,,,,,,,,,,,
0,25,25,11,1,,613c946a43af30711212b405,62c539931525d49b87c7922b,2022-07-06_09h29.31.383,Colour_Asymmetry_Pilot,2022.1.3,Win32,59.99880002,62c50e9c1127f2cd403a315f,,,,,,,,,,,,,,,,,,,,,,,,,,,,,,,,,,,,,,,,,,,,,,,,,,,,,,,,,,,,,,,,,,,,,,,,,,,,,,,,,,,,,,,,,,,,,,,,,,,,,,,,,,,,,,,,,,,,,,,,,,,,,,,,,,,,,,,,,,,,,,,,,,,,,,,,,,,,,,,,,,,
0,26,26,40,1,,613c946a43af30711212b405,62c539931525d49b87c7922b,2022-07-06_09h29.31.383,Colour_Asymmetry_Pilot,2022.1.3,Win32,59.99880002,62c50e9c1127f2cd403a315f,,,,,,,,,,,,,,,,,,,,,,,,,,,,,,,,,,,,,,,,,,,,,,,,,,,,,,,,,,,,,,,,,,,,,,,,,,,,,,,,,,,,,,,,,,,,,,,,,,,,,,,,,,,,,,,,,,,,,,,,,,,,,,,,,,,,,,,,,,,,,,,,,,,,,,,,,,,,,,,,,,,
0,27,27,60,1,,613c946a43af30711212b405,62c539931525d49b87c7922b,2022-07-06_09h29.31.383,Colour_Asymmetry_Pilot,2022.1.3,Win32,59.99880002,62c50e9c1127f2cd403a315f,,,,,,,,,,,,,,,,,,,,,,,,,,,,,,,,,,,,,,,,,,,,,,,,,,,,,,,,,,,,,,,,,,,,,,,,,,,,,,,,,,,,,,,,,,,,,,,,,,,,,,,,,,,,,,,,,,,,,,,,,,,,,,,,,,,,,,,,,,,,,,,,,,,,,,,,,,,,,,,,,,,
0,28,28,50,1,,613c946a43af30711212b405,62c539931525d49b87c7922b,2022-07-06_09h29.31.383,Colour_Asymmetry_Pilot,2022.1.3,Win32,59.99880002,62c50e9c1127f2cd403a315f,,,,,,,,,,,,,,,,,,,,,,,,,,,,,,,,,,,,,,,,,,,,,,,,,,,,,,,,,,,,,,,,,,,,,,,,,,,,,,,,,,,,,,,,,,,,,,,,,,,,,,,,,,,,,,,,,,,,,,,,,,,,,,,,,,,,,,,,,,,,,,,,,,,,,,,,,,,,,,,,,,,
0,29,29,26,1,,613c946a43af30711212b405,62c539931525d49b87c7922b,2022-07-06_09h29.31.383,Colour_Asymmetry_Pilot,2022.1.3,Win32,59.99880002,62c50e9c1127f2cd403a315f,,,,,,,,,,,,,,,,,,,,,,,,,,,,,,,,,,,,,,,,,,,,,,,,,,,,,,,,,,,,,,,,,,,,,,,,,,,,,,,,,,,,,,,,,,,,,,,,,,,,,,,,,,,,,,,,,,,,,,,,,,,,,,,,,,,,,,,,,,,,,,,,,,,,,,,,,,,,,,,,,,,
0,30,30,75,1,,613c946a43af30711212b405,62c539931525d49b87c7922b,2022-07-06_09h29.31.383,Colour_Asymmetry_Pilot,2022.1.3,Win32,59.99880002,62c50e9c1127f2cd403a315f,,,,,,,,,,,,,,,,,,,,,,,,,,,,,,,,,,,,,,,,,,,,,,,,,,,,,,,,,,,,,,,,,,,,,,,,,,,,,,,,,,,,,,,,,,,,,,,,,,,,,,,,,,,,,,,,,,,,,,,,,,,,,,,,,,,,,,,,,,,,,,,,,,,,,,,,,,,,,,,,,,,
0,31,31,28,1,,613c946a43af30711212b405,62c539931525d49b87c7922b,2022-07-06_09h29.31.383,Colour_Asymmetry_Pilot,2022.1.3,Win32,59.99880002,62c50e9c1127f2cd403a315f,,,,,,,,,,,,,,,,,,,,,,,,,,,,,,,,,,,,,,,,,,,,,,,,,,,,,,,,,,,,,,,,,,,,,,,,,,,,,,,,,,,,,,,,,,,,,,,,,,,,,,,,,,,,,,,,,,,,,,,,,,,,,,,,,,,,,,,,,,,,,,,,,,,,,,,,,,,,,,,,,,,
0,32,32,44,1,,613c946a43af30711212b405,62c539931525d49b87c7922b,2022-07-06_09h29.31.383,Colour_Asymmetry_Pilot,2022.1.3,Win32,59.99880002,62c50e9c1127f2cd403a315f,,,,,,,,,,,,,,,,,,,,,,,,,,,,,,,,,,,,,,,,,,,,,,,,,,,,,,,,,,,,,,,,,,,,,,,,,,,,,,,,,,,,,,,,,,,,,,,,,,,,,,,,,,,,,,,,,,,,,,,,,,,,,,,,,,,,,,,,,,,,,,,,,,,,,,,,,,,,,,,,,,,
0,33,33,38,1,,613c946a43af30711212b405,62c539931525d49b87c7922b,2022-07-06_09h29.31.383,Colour_Asymmetry_Pilot,2022.1.3,Win32,59.99880002,62c50e9c1127f2cd403a315f,,,,,,,,,,,,,,,,,,,,,,,,,,,,,,,,,,,,,,,,,,,,,,,,,,,,,,,,,,,,,,,,,,,,,,,,,,,,,,,,,,,,,,,,,,,,,,,,,,,,,,,,,,,,,,,,,,,,,,,,,,,,,,,,,,,,,,,,,,,,,,,,,,,,,,,,,,,,,,,,,,,
0,34,34,33,1,,613c946a43af30711212b405,62c539931525d49b87c7922b,2022-07-06_09h29.31.383,Colour_Asymmetry_Pilot,2022.1.3,Win32,59.99880002,62c50e9c1127f2cd403a315f,,,,,,,,,,,,,,,,,,,,,,,,,,,,,,,,,,,,,,,,,,,,,,,,,,,,,,,,,,,,,,,,,,,,,,,,,,,,,,,,,,,,,,,,,,,,,,,,,,,,,,,,,,,,,,,,,,,,,,,,,,,,,,,,,,,,,,,,,,,,,,,,,,,,,,,,,,,,,,,,,,,
0,35,35,77,1,,613c946a43af30711212b405,62c539931525d49b87c7922b,2022-07-06_09h29.31.383,Colour_Asymmetry_Pilot,2022.1.3,Win32,59.99880002,62c50e9c1127f2cd403a315f,,,,,,,,,,,,,,,,,,,,,,,,,,,,,,,,,,,,,,,,,,,,,,,,,,,,,,,,,,,,,,,,,,,,,,,,,,,,,,,,,,,,,,,,,,,,,,,,,,,,,,,,,,,,,,,,,,,,,,,,,,,,,,,,,,,,,,,,,,,,,,,,,,,,,,,,,,,,,,,,,,,
0,36,36,21,1,,613c946a43af30711212b405,62c539931525d49b87c7922b,2022-07-06_09h29.31.383,Colour_Asymmetry_Pilot,2022.1.3,Win32,59.99880002,62c50e9c1127f2cd403a315f,,,,,,,,,,,,,,,,,,,,,,,,,,,,,,,,,,,,,,,,,,,,,,,,,,,,,,,,,,,,,,,,,,,,,,,,,,,,,,,,,,,,,,,,,,,,,,,,,,,,,,,,,,,,,,,,,,,,,,,,,,,,,,,,,,,,,,,,,,,,,,,,,,,,,,,,,,,,,,,,,,,
0,37,37,76,1,,613c946a43af30711212b405,62c539931525d49b87c7922b,2022-07-06_09h29.31.383,Colour_Asymmetry_Pilot,2022.1.3,Win32,59.99880002,62c50e9c1127f2cd403a315f,,,,,,,,,,,,,,,,,,,,,,,,,,,,,,,,,,,,,,,,,,,,,,,,,,,,,,,,,,,,,,,,,,,,,,,,,,,,,,,,,,,,,,,,,,,,,,,,,,,,,,,,,,,,,,,,,,,,,,,,,,,,,,,,,,,,,,,,,,,,,,,,,,,,,,,,,,,,,,,,,,,
0,38,38,46,1,,613c946a43af30711212b405,62c539931525d49b87c7922b,2022-07-06_09h29.31.383,Colour_Asymmetry_Pilot,2022.1.3,Win32,59.99880002,62c50e9c1127f2cd403a315f,,,,,,,,,,,,,,,,,,,,,,,,,,,,,,,,,,,,,,,,,,,,,,,,,,,,,,,,,,,,,,,,,,,,,,,,,,,,,,,,,,,,,,,,,,,,,,,,,,,,,,,,,,,,,,,,,,,,,,,,,,,,,,,,,,,,,,,,,,,,,,,,,,,,,,,,,,,,,,,,,,,
0,39,39,31,1,,613c946a43af30711212b405,62c539931525d49b87c7922b,2022-07-06_09h29.31.383,Colour_Asymmetry_Pilot,2022.1.3,Win32,59.99880002,62c50e9c1127f2cd403a315f,,,,,,,,,,,,,,,,,,,,,,,,,,,,,,,,,,,,,,,,,,,,,,,,,,,,,,,,,,,,,,,,,,,,,,,,,,,,,,,,,,,,,,,,,,,,,,,,,,,,,,,,,,,,,,,,,,,,,,,,,,,,,,,,,,,,,,,,,,,,,,,,,,,,,,,,,,,,,,,,,,,
0,40,40,54,1,,613c946a43af30711212b405,62c539931525d49b87c7922b,2022-07-06_09h29.31.383,Colour_Asymmetry_Pilot,2022.1.3,Win32,59.99880002,62c50e9c1127f2cd403a315f,,,,,,,,,,,,,,,,,,,,,,,,,,,,,,,,,,,,,,,,,,,,,,,,,,,,,,,,,,,,,,,,,,,,,,,,,,,,,,,,,,,,,,,,,,,,,,,,,,,,,,,,,,,,,,,,,,,,,,,,,,,,,,,,,,,,,,,,,,,,,,,,,,,,,,,,,,,,,,,,,,,
0,41,41,84,1,,613c946a43af30711212b405,62c539931525d49b87c7922b,2022-07-06_09h29.31.383,Colour_Asymmetry_Pilot,2022.1.3,Win32,59.99880002,62c50e9c1127f2cd403a315f,,,,,,,,,,,,,,,,,,,,,,,,,,,,,,,,,,,,,,,,,,,,,,,,,,,,,,,,,,,,,,,,,,,,,,,,,,,,,,,,,,,,,,,,,,,,,,,,,,,,,,,,,,,,,,,,,,,,,,,,,,,,,,,,,,,,,,,,,,,,,,,,,,,,,,,,,,,,,,,,,,,
0,42,42,14,1,,613c946a43af30711212b405,62c539931525d49b87c7922b,2022-07-06_09h29.31.383,Colour_Asymmetry_Pilot,2022.1.3,Win32,59.99880002,62c50e9c1127f2cd403a315f,,,,,,,,,,,,,,,,,,,,,,,,,,,,,,,,,,,,,,,,,,,,,,,,,,,,,,,,,,,,,,,,,,,,,,,,,,,,,,,,,,,,,,,,,,,,,,,,,,,,,,,,,,,,,,,,,,,,,,,,,,,,,,,,,,,,,,,,,,,,,,,,,,,,,,,,,,,,,,,,,,,
0,43,43,36,1,,613c946a43af30711212b405,62c539931525d49b87c7922b,2022-07-06_09h29.31.383,Colour_Asymmetry_Pilot,2022.1.3,Win32,59.99880002,62c50e9c1127f2cd403a315f,,,,,,,,,,,,,,,,,,,,,,,,,,,,,,,,,,,,,,,,,,,,,,,,,,,,,,,,,,,,,,,,,,,,,,,,,,,,,,,,,,,,,,,,,,,,,,,,,,,,,,,,,,,,,,,,,,,,,,,,,,,,,,,,,,,,,,,,,,,,,,,,,,,,,,,,,,,,,,,,,,,
0,44,44,64,1,,613c946a43af30711212b405,62c539931525d49b87c7922b,2022-07-06_09h29.31.383,Colour_Asymmetry_Pilot,2022.1.3,Win32,59.99880002,62c50e9c1127f2cd403a315f,,,,,,,,,,,,,,,,,,,,,,,,,,,,,,,,,,,,,,,,,,,,,,,,,,,,,,,,,,,,,,,,,,,,,,,,,,,,,,,,,,,,,,,,,,,,,,,,,,,,,,,,,,,,,,,,,,,,,,,,,,,,,,,,,,,,,,,,,,,,,,,,,,,,,,,,,,,,,,,,,,,
0,45,45,45,1,,613c946a43af30711212b405,62c539931525d49b87c7922b,2022-07-06_09h29.31.383,Colour_Asymmetry_Pilot,2022.1.3,Win32,59.99880002,62c50e9c1127f2cd403a315f,,,,,,,,,,,,,,,,,,,,,,,,,,,,,,,,,,,,,,,,,,,,,,,,,,,,,,,,,,,,,,,,,,,,,,,,,,,,,,,,,,,,,,,,,,,,,,,,,,,,,,,,,,,,,,,,,,,,,,,,,,,,,,,,,,,,,,,,,,,,,,,,,,,,,,,,,,,,,,,,,,,
0,46,46,56,1,,613c946a43af30711212b405,62c539931525d49b87c7922b,2022-07-06_09h29.31.383,Colour_Asymmetry_Pilot,2022.1.3,Win32,59.99880002,62c50e9c1127f2cd403a315f,,,,,,,,,,,,,,,,,,,,,,,,,,,,,,,,,,,,,,,,,,,,,,,,,,,,,,,,,,,,,,,,,,,,,,,,,,,,,,,,,,,,,,,,,,,,,,,,,,,,,,,,,,,,,,,,,,,,,,,,,,,,,,,,,,,,,,,,,,,,,,,,,,,,,,,,,,,,,,,,,,,
0,47,47,0,1,,613c946a43af30711212b405,62c539931525d49b87c7922b,2022-07-06_09h29.31.383,Colour_Asymmetry_Pilot,2022.1.3,Win32,59.99880002,62c50e9c1127f2cd403a315f,,,,,,,,,,,,,,,,,,,,,,,,,,,,,,,,,,,,,,,,,,,,,,,,,,,,,,,,,,,,,,,,,,,,,,,,,,,,,,,,,,,,,,,,,,,,,,,,,,,,,,,,,,,,,,,,,,,,,,,,,,,,,,,,,,,,,,,,,,,,,,,,,,,,,,,,,,,,,,,,,,,
0,48,48,34,1,,613c946a43af30711212b405,62c539931525d49b87c7922b,2022-07-06_09h29.31.383,Colour_Asymmetry_Pilot,2022.1.3,Win32,59.99880002,62c50e9c1127f2cd403a315f,,,,,,,,,,,,,,,,,,,,,,,,,,,,,,,,,,,,,,,,,,,,,,,,,,,,,,,,,,,,,,,,,,,,,,,,,,,,,,,,,,,,,,,,,,,,,,,,,,,,,,,,,,,,,,,,,,,,,,,,,,,,,,,,,,,,,,,,,,,,,,,,,,,,,,,,,,,,,,,,,,,
0,49,49,59,1,,613c946a43af30711212b405,62c539931525d49b87c7922b,2022-07-06_09h29.31.383,Colour_Asymmetry_Pilot,2022.1.3,Win32,59.99880002,62c50e9c1127f2cd403a315f,,,,,,,,,,,,,,,,,,,,,,,,,,,,,,,,,,,,,,,,,,,,,,,,,,,,,,,,,,,,,,,,,,,,,,,,,,,,,,,,,,,,,,,,,,,,,,,,,,,,,,,,,,,,,,,,,,,,,,,,,,,,,,,,,,,,,,,,,,,,,,,,,,,,,,,,,,,,,,,,,,,
0,50,50,88,1,,613c946a43af30711212b405,62c539931525d49b87c7922b,2022-07-06_09h29.31.383,Colour_Asymmetry_Pilot,2022.1.3,Win32,59.99880002,62c50e9c1127f2cd403a315f,,,,,,,,,,,,,,,,,,,,,,,,,,,,,,,,,,,,,,,,,,,,,,,,,,,,,,,,,,,,,,,,,,,,,,,,,,,,,,,,,,,,,,,,,,,,,,,,,,,,,,,,,,,,,,,,,,,,,,,,,,,,,,,,,,,,,,,,,,,,,,,,,,,,,,,,,,,,,,,,,,,
0,51,51,82,1,,613c946a43af30711212b405,62c539931525d49b87c7922b,2022-07-06_09h29.31.383,Colour_Asymmetry_Pilot,2022.1.3,Win32,59.99880002,62c50e9c1127f2cd403a315f,,,,,,,,,,,,,,,,,,,,,,,,,,,,,,,,,,,,,,,,,,,,,,,,,,,,,,,,,,,,,,,,,,,,,,,,,,,,,,,,,,,,,,,,,,,,,,,,,,,,,,,,,,,,,,,,,,,,,,,,,,,,,,,,,,,,,,,,,,,,,,,,,,,,,,,,,,,,,,,,,,,
0,52,52,41,1,,613c946a43af30711212b405,62c539931525d49b87c7922b,2022-07-06_09h29.31.383,Colour_Asymmetry_Pilot,2022.1.3,Win32,59.99880002,62c50e9c1127f2cd403a315f,,,,,,,,,,,,,,,,,,,,,,,,,,,,,,,,,,,,,,,,,,,,,,,,,,,,,,,,,,,,,,,,,,,,,,,,,,,,,,,,,,,,,,,,,,,,,,,,,,,,,,,,,,,,,,,,,,,,,,,,,,,,,,,,,,,,,,,,,,,,,,,,,,,,,,,,,,,,,,,,,,,
0,53,53,1,1,,613c946a43af30711212b405,62c539931525d49b87c7922b,2022-07-06_09h29.31.383,Colour_Asymmetry_Pilot,2022.1.3,Win32,59.99880002,62c50e9c1127f2cd403a315f,,,,,,,,,,,,,,,,,,,,,,,,,,,,,,,,,,,,,,,,,,,,,,,,,,,,,,,,,,,,,,,,,,,,,,,,,,,,,,,,,,,,,,,,,,,,,,,,,,,,,,,,,,,,,,,,,,,,,,,,,,,,,,,,,,,,,,,,,,,,,,,,,,,,,,,,,,,,,,,,,,,
0,54,54,9,1,,613c946a43af30711212b405,62c539931525d49b87c7922b,2022-07-06_09h29.31.383,Colour_Asymmetry_Pilot,2022.1.3,Win32,59.99880002,62c50e9c1127f2cd403a315f,,,,,,,,,,,,,,,,,,,,,,,,,,,,,,,,,,,,,,,,,,,,,,,,,,,,,,,,,,,,,,,,,,,,,,,,,,,,,,,,,,,,,,,,,,,,,,,,,,,,,,,,,,,,,,,,,,,,,,,,,,,,,,,,,,,,,,,,,,,,,,,,,,,,,,,,,,,,,,,,,,,
0,55,55,4,1,,613c946a43af30711212b405,62c539931525d49b87c7922b,2022-07-06_09h29.31.383,Colour_Asymmetry_Pilot,2022.1.3,Win32,59.99880002,62c50e9c1127f2cd403a315f,,,,,,,,,,,,,,,,,,,,,,,,,,,,,,,,,,,,,,,,,,,,,,,,,,,,,,,,,,,,,,,,,,,,,,,,,,,,,,,,,,,,,,,,,,,,,,,,,,,,,,,,,,,,,,,,,,,,,,,,,,,,,,,,,,,,,,,,,,,,,,,,,,,,,,,,,,,,,,,,,,,
0,56,56,58,1,,613c946a43af30711212b405,62c539931525d49b87c7922b,2022-07-06_09h29.31.383,Colour_Asymmetry_Pilot,2022.1.3,Win32,59.99880002,62c50e9c1127f2cd403a315f,,,,,,,,,,,,,,,,,,,,,,,,,,,,,,,,,,,,,,,,,,,,,,,,,,,,,,,,,,,,,,,,,,,,,,,,,,,,,,,,,,,,,,,,,,,,,,,,,,,,,,,,,,,,,,,,,,,,,,,,,,,,,,,,,,,,,,,,,,,,,,,,,,,,,,,,,,,,,,,,,,,
0,57,57,92,1,,613c946a43af30711212b405,62c539931525d49b87c7922b,2022-07-06_09h29.31.383,Colour_Asymmetry_Pilot,2022.1.3,Win32,59.99880002,62c50e9c1127f2cd403a315f,,,,,,,,,,,,,,,,,,,,,,,,,,,,,,,,,,,,,,,,,,,,,,,,,,,,,,,,,,,,,,,,,,,,,,,,,,,,,,,,,,,,,,,,,,,,,,,,,,,,,,,,,,,,,,,,,,,,,,,,,,,,,,,,,,,,,,,,,,,,,,,,,,,,,,,,,,,,,,,,,,,
0,58,58,68,1,,613c946a43af30711212b405,62c539931525d49b87c7922b,2022-07-06_09h29.31.383,Colour_Asymmetry_Pilot,2022.1.3,Win32,59.99880002,62c50e9c1127f2cd403a315f,,,,,,,,,,,,,,,,,,,,,,,,,,,,,,,,,,,,,,,,,,,,,,,,,,,,,,,,,,,,,,,,,,,,,,,,,,,,,,,,,,,,,,,,,,,,,,,,,,,,,,,,,,,,,,,,,,,,,,,,,,,,,,,,,,,,,,,,,,,,,,,,,,,,,,,,,,,,,,,,,,,
0,59,59,8,1,,613c946a43af30711212b405,62c539931525d49b87c7922b,2022-07-06_09h29.31.383,Colour_Asymmetry_Pilot,2022.1.3,Win32,59.99880002,62c50e9c1127f2cd403a315f,,,,,,,,,,,,,,,,,,,,,,,,,,,,,,,,,,,,,,,,,,,,,,,,,,,,,,,,,,,,,,,,,,,,,,,,,,,,,,,,,,,,,,,,,,,,,,,,,,,,,,,,,,,,,,,,,,,,,,,,,,,,,,,,,,,,,,,,,,,,,,,,,,,,,,,,,,,,,,,,,,,
0,60,60,89,1,,613c946a43af30711212b405,62c539931525d49b87c7922b,2022-07-06_09h29.31.383,Colour_Asymmetry_Pilot,2022.1.3,Win32,59.99880002,62c50e9c1127f2cd403a315f,,,,,,,,,,,,,,,,,,,,,,,,,,,,,,,,,,,,,,,,,,,,,,,,,,,,,,,,,,,,,,,,,,,,,,,,,,,,,,,,,,,,,,,,,,,,,,,,,,,,,,,,,,,,,,,,,,,,,,,,,,,,,,,,,,,,,,,,,,,,,,,,,,,,,,,,,,,,,,,,,,,
0,61,61,70,1,,613c946a43af30711212b405,62c539931525d49b87c7922b,2022-07-06_09h29.31.383,Colour_Asymmetry_Pilot,2022.1.3,Win32,59.99880002,62c50e9c1127f2cd403a315f,,,,,,,,,,,,,,,,,,,,,,,,,,,,,,,,,,,,,,,,,,,,,,,,,,,,,,,,,,,,,,,,,,,,,,,,,,,,,,,,,,,,,,,,,,,,,,,,,,,,,,,,,,,,,,,,,,,,,,,,,,,,,,,,,,,,,,,,,,,,,,,,,,,,,,,,,,,,,,,,,,,
0,62,62,5,1,,613c946a43af30711212b405,62c539931525d49b87c7922b,2022-07-06_09h29.31.383,Colour_Asymmetry_Pilot,2022.1.3,Win32,59.99880002,62c50e9c1127f2cd403a315f,,,,,,,,,,,,,,,,,,,,,,,,,,,,,,,,,,,,,,,,,,,,,,,,,,,,,,,,,,,,,,,,,,,,,,,,,,,,,,,,,,,,,,,,,,,,,,,,,,,,,,,,,,,,,,,,,,,,,,,,,,,,,,,,,,,,,,,,,,,,,,,,,,,,,,,,,,,,,,,,,,,
0,63,63,29,1,,613c946a43af30711212b405,62c539931525d49b87c7922b,2022-07-06_09h29.31.383,Colour_Asymmetry_Pilot,2022.1.3,Win32,59.99880002,62c50e9c1127f2cd403a315f,,,,,,,,,,,,,,,,,,,,,,,,,,,,,,,,,,,,,,,,,,,,,,,,,,,,,,,,,,,,,,,,,,,,,,,,,,,,,,,,,,,,,,,,,,,,,,,,,,,,,,,,,,,,,,,,,,,,,,,,,,,,,,,,,,,,,,,,,,,,,,,,,,,,,,,,,,,,,,,,,,,
0,64,64,55,1,,613c946a43af30711212b405,62c539931525d49b87c7922b,2022-07-06_09h29.31.383,Colour_Asymmetry_Pilot,2022.1.3,Win32,59.99880002,62c50e9c1127f2cd403a315f,,,,,,,,,,,,,,,,,,,,,,,,,,,,,,,,,,,,,,,,,,,,,,,,,,,,,,,,,,,,,,,,,,,,,,,,,,,,,,,,,,,,,,,,,,,,,,,,,,,,,,,,,,,,,,,,,,,,,,,,,,,,,,,,,,,,,,,,,,,,,,,,,,,,,,,,,,,,,,,,,,,
0,65,65,19,1,,613c946a43af30711212b405,62c539931525d49b87c7922b,2022-07-06_09h29.31.383,Colour_Asymmetry_Pilot,2022.1.3,Win32,59.99880002,62c50e9c1127f2cd403a315f,,,,,,,,,,,,,,,,,,,,,,,,,,,,,,,,,,,,,,,,,,,,,,,,,,,,,,,,,,,,,,,,,,,,,,,,,,,,,,,,,,,,,,,,,,,,,,,,,,,,,,,,,,,,,,,,,,,,,,,,,,,,,,,,,,,,,,,,,,,,,,,,,,,,,,,,,,,,,,,,,,,
0,66,66,53,1,,613c946a43af30711212b405,62c539931525d49b87c7922b,2022-07-06_09h29.31.383,Colour_Asymmetry_Pilot,2022.1.3,Win32,59.99880002,62c50e9c1127f2cd403a315f,,,,,,,,,,,,,,,,,,,,,,,,,,,,,,,,,,,,,,,,,,,,,,,,,,,,,,,,,,,,,,,,,,,,,,,,,,,,,,,,,,,,,,,,,,,,,,,,,,,,,,,,,,,,,,,,,,,,,,,,,,,,,,,,,,,,,,,,,,,,,,,,,,,,,,,,,,,,,,,,,,,
0,67,67,65,1,,613c946a43af30711212b405,62c539931525d49b87c7922b,2022-07-06_09h29.31.383,Colour_Asymmetry_Pilot,2022.1.3,Win32,59.99880002,62c50e9c1127f2cd403a315f,,,,,,,,,,,,,,,,,,,,,,,,,,,,,,,,,,,,,,,,,,,,,,,,,,,,,,,,,,,,,,,,,,,,,,,,,,,,,,,,,,,,,,,,,,,,,,,,,,,,,,,,,,,,,,,,,,,,,,,,,,,,,,,,,,,,,,,,,,,,,,,,,,,,,,,,,,,,,,,,,,,
0,68,68,52,1,,613c946a43af30711212b405,62c539931525d49b87c7922b,2022-07-06_09h29.31.383,Colour_Asymmetry_Pilot,2022.1.3,Win32,59.99880002,62c50e9c1127f2cd403a315f,,,,,,,,,,,,,,,,,,,,,,,,,,,,,,,,,,,,,,,,,,,,,,,,,,,,,,,,,,,,,,,,,,,,,,,,,,,,,,,,,,,,,,,,,,,,,,,,,,,,,,,,,,,,,,,,,,,,,,,,,,,,,,,,,,,,,,,,,,,,,,,,,,,,,,,,,,,,,,,,,,,
0,69,69,16,1,,613c946a43af30711212b405,62c539931525d49b87c7922b,2022-07-06_09h29.31.383,Colour_Asymmetry_Pilot,2022.1.3,Win32,59.99880002,62c50e9c1127f2cd403a315f,,,,,,,,,,,,,,,,,,,,,,,,,,,,,,,,,,,,,,,,,,,,,,,,,,,,,,,,,,,,,,,,,,,,,,,,,,,,,,,,,,,,,,,,,,,,,,,,,,,,,,,,,,,,,,,,,,,,,,,,,,,,,,,,,,,,,,,,,,,,,,,,,,,,,,,,,,,,,,,,,,,
0,70,70,73,1,,613c946a43af30711212b405,62c539931525d49b87c7922b,2022-07-06_09h29.31.383,Colour_Asymmetry_Pilot,2022.1.3,Win32,59.99880002,62c50e9c1127f2cd403a315f,,,,,,,,,,,,,,,,,,,,,,,,,,,,,,,,,,,,,,,,,,,,,,,,,,,,,,,,,,,,,,,,,,,,,,,,,,,,,,,,,,,,,,,,,,,,,,,,,,,,,,,,,,,,,,,,,,,,,,,,,,,,,,,,,,,,,,,,,,,,,,,,,,,,,,,,,,,,,,,,,,,
0,71,71,72,1,,613c946a43af30711212b405,62c539931525d49b87c7922b,2022-07-06_09h29.31.383,Colour_Asymmetry_Pilot,2022.1.3,Win32,59.99880002,62c50e9c1127f2cd403a315f,,,,,,,,,,,,,,,,,,,,,,,,,,,,,,,,,,,,,,,,,,,,,,,,,,,,,,,,,,,,,,,,,,,,,,,,,,,,,,,,,,,,,,,,,,,,,,,,,,,,,,,,,,,,,,,,,,,,,,,,,,,,,,,,,,,,,,,,,,,,,,,,,,,,,,,,,,,,,,,,,,,
0,72,72,20,1,,613c946a43af30711212b405,62c539931525d49b87c7922b,2022-07-06_09h29.31.383,Colour_Asymmetry_Pilot,2022.1.3,Win32,59.99880002,62c50e9c1127f2cd403a315f,,,,,,,,,,,,,,,,,,,,,,,,,,,,,,,,,,,,,,,,,,,,,,,,,,,,,,,,,,,,,,,,,,,,,,,,,,,,,,,,,,,,,,,,,,,,,,,,,,,,,,,,,,,,,,,,,,,,,,,,,,,,,,,,,,,,,,,,,,,,,,,,,,,,,,,,,,,,,,,,,,,
0,73,73,17,1,,613c946a43af30711212b405,62c539931525d49b87c7922b,2022-07-06_09h29.31.383,Colour_Asymmetry_Pilot,2022.1.3,Win32,59.99880002,62c50e9c1127f2cd403a315f,,,,,,,,,,,,,,,,,,,,,,,,,,,,,,,,,,,,,,,,,,,,,,,,,,,,,,,,,,,,,,,,,,,,,,,,,,,,,,,,,,,,,,,,,,,,,,,,,,,,,,,,,,,,,,,,,,,,,,,,,,,,,,,,,,,,,,,,,,,,,,,,,,,,,,,,,,,,,,,,,,,
0,74,74,2,1,,613c946a43af30711212b405,62c539931525d49b87c7922b,2022-07-06_09h29.31.383,Colour_Asymmetry_Pilot,2022.1.3,Win32,59.99880002,62c50e9c1127f2cd403a315f,,,,,,,,,,,,,,,,,,,,,,,,,,,,,,,,,,,,,,,,,,,,,,,,,,,,,,,,,,,,,,,,,,,,,,,,,,,,,,,,,,,,,,,,,,,,,,,,,,,,,,,,,,,,,,,,,,,,,,,,,,,,,,,,,,,,,,,,,,,,,,,,,,,,,,,,,,,,,,,,,,,
0,75,75,51,1,,613c946a43af30711212b405,62c539931525d49b87c7922b,2022-07-06_09h29.31.383,Colour_Asymmetry_Pilot,2022.1.3,Win32,59.99880002,62c50e9c1127f2cd403a315f,,,,,,,,,,,,,,,,,,,,,,,,,,,,,,,,,,,,,,,,,,,,,,,,,,,,,,,,,,,,,,,,,,,,,,,,,,,,,,,,,,,,,,,,,,,,,,,,,,,,,,,,,,,,,,,,,,,,,,,,,,,,,,,,,,,,,,,,,,,,,,,,,,,,,,,,,,,,,,,,,,,
0,76,76,13,1,,613c946a43af30711212b405,62c539931525d49b87c7922b,2022-07-06_09h29.31.383,Colour_Asymmetry_Pilot,2022.1.3,Win32,59.99880002,62c50e9c1127f2cd403a315f,,,,,,,,,,,,,,,,,,,,,,,,,,,,,,,,,,,,,,,,,,,,,,,,,,,,,,,,,,,,,,,,,,,,,,,,,,,,,,,,,,,,,,,,,,,,,,,,,,,,,,,,,,,,,,,,,,,,,,,,,,,,,,,,,,,,,,,,,,,,,,,,,,,,,,,,,,,,,,,,,,,
0,77,77,22,1,,613c946a43af30711212b405,62c539931525d49b87c7922b,2022-07-06_09h29.31.383,Colour_Asymmetry_Pilot,2022.1.3,Win32,59.99880002,62c50e9c1127f2cd403a315f,,,,,,,,,,,,,,,,,,,,,,,,,,,,,,,,,,,,,,,,,,,,,,,,,,,,,,,,,,,,,,,,,,,,,,,,,,,,,,,,,,,,,,,,,,,,,,,,,,,,,,,,,,,,,,,,,,,,,,,,,,,,,,,,,,,,,,,,,,,,,,,,,,,,,,,,,,,,,,,,,,,
0,78,78,74,1,,613c946a43af30711212b405,62c539931525d49b87c7922b,2022-07-06_09h29.31.383,Colour_Asymmetry_Pilot,2022.1.3,Win32,59.99880002,62c50e9c1127f2cd403a315f,,,,,,,,,,,,,,,,,,,,,,,,,,,,,,,,,,,,,,,,,,,,,,,,,,,,,,,,,,,,,,,,,,,,,,,,,,,,,,,,,,,,,,,,,,,,,,,,,,,,,,,,,,,,,,,,,,,,,,,,,,,,,,,,,,,,,,,,,,,,,,,,,,,,,,,,,,,,,,,,,,,
0,79,79,42,1,,613c946a43af30711212b405,62c539931525d49b87c7922b,2022-07-06_09h29.31.383,Colour_Asymmetry_Pilot,2022.1.3,Win32,59.99880002,62c50e9c1127f2cd403a315f,,,,,,,,,,,,,,,,,,,,,,,,,,,,,,,,,,,,,,,,,,,,,,,,,,,,,,,,,,,,,,,,,,,,,,,,,,,,,,,,,,,,,,,,,,,,,,,,,,,,,,,,,,,,,,,,,,,,,,,,,,,,,,,,,,,,,,,,,,,,,,,,,,,,,,,,,,,,,,,,,,,
0,80,80,78,1,,613c946a43af30711212b405,62c539931525d49b87c7922b,2022-07-06_09h29.31.383,Colour_Asymmetry_Pilot,2022.1.3,Win32,59.99880002,62c50e9c1127f2cd403a315f,,,,,,,,,,,,,,,,,,,,,,,,,,,,,,,,,,,,,,,,,,,,,,,,,,,,,,,,,,,,,,,,,,,,,,,,,,,,,,,,,,,,,,,,,,,,,,,,,,,,,,,,,,,,,,,,,,,,,,,,,,,,,,,,,,,,,,,,,,,,,,,,,,,,,,,,,,,,,,,,,,,
0,81,81,62,1,,613c946a43af30711212b405,62c539931525d49b87c7922b,2022-07-06_09h29.31.383,Colour_Asymmetry_Pilot,2022.1.3,Win32,59.99880002,62c50e9c1127f2cd403a315f,,,,,,,,,,,,,,,,,,,,,,,,,,,,,,,,,,,,,,,,,,,,,,,,,,,,,,,,,,,,,,,,,,,,,,,,,,,,,,,,,,,,,,,,,,,,,,,,,,,,,,,,,,,,,,,,,,,,,,,,,,,,,,,,,,,,,,,,,,,,,,,,,,,,,,,,,,,,,,,,,,,
0,82,82,25,1,,613c946a43af30711212b405,62c539931525d49b87c7922b,2022-07-06_09h29.31.383,Colour_Asymmetry_Pilot,2022.1.3,Win32,59.99880002,62c50e9c1127f2cd403a315f,,,,,,,,,,,,,,,,,,,,,,,,,,,,,,,,,,,,,,,,,,,,,,,,,,,,,,,,,,,,,,,,,,,,,,,,,,,,,,,,,,,,,,,,,,,,,,,,,,,,,,,,,,,,,,,,,,,,,,,,,,,,,,,,,,,,,,,,,,,,,,,,,,,,,,,,,,,,,,,,,,,
0,83,83,71,1,,613c946a43af30711212b405,62c539931525d49b87c7922b,2022-07-06_09h29.31.383,Colour_Asymmetry_Pilot,2022.1.3,Win32,59.99880002,62c50e9c1127f2cd403a315f,,,,,,,,,,,,,,,,,,,,,,,,,,,,,,,,,,,,,,,,,,,,,,,,,,,,,,,,,,,,,,,,,,,,,,,,,,,,,,,,,,,,,,,,,,,,,,,,,,,,,,,,,,,,,,,,,,,,,,,,,,,,,,,,,,,,,,,,,,,,,,,,,,,,,,,,,,,,,,,,,,,
0,84,84,48,1,,613c946a43af30711212b405,62c539931525d49b87c7922b,2022-07-06_09h29.31.383,Colour_Asymmetry_Pilot,2022.1.3,Win32,59.99880002,62c50e9c1127f2cd403a315f,,,,,,,,,,,,,,,,,,,,,,,,,,,,,,,,,,,,,,,,,,,,,,,,,,,,,,,,,,,,,,,,,,,,,,,,,,,,,,,,,,,,,,,,,,,,,,,,,,,,,,,,,,,,,,,,,,,,,,,,,,,,,,,,,,,,,,,,,,,,,,,,,,,,,,,,,,,,,,,,,,,
0,85,85,61,1,,613c946a43af30711212b405,62c539931525d49b87c7922b,2022-07-06_09h29.31.383,Colour_Asymmetry_Pilot,2022.1.3,Win32,59.99880002,62c50e9c1127f2cd403a315f,,,,,,,,,,,,,,,,,,,,,,,,,,,,,,,,,,,,,,,,,,,,,,,,,,,,,,,,,,,,,,,,,,,,,,,,,,,,,,,,,,,,,,,,,,,,,,,,,,,,,,,,,,,,,,,,,,,,,,,,,,,,,,,,,,,,,,,,,,,,,,,,,,,,,,,,,,,,,,,,,,,
0,86,86,37,1,,613c946a43af30711212b405,62c539931525d49b87c7922b,2022-07-06_09h29.31.383,Colour_Asymmetry_Pilot,2022.1.3,Win32,59.99880002,62c50e9c1127f2cd403a315f,,,,,,,,,,,,,,,,,,,,,,,,,,,,,,,,,,,,,,,,,,,,,,,,,,,,,,,,,,,,,,,,,,,,,,,,,,,,,,,,,,,,,,,,,,,,,,,,,,,,,,,,,,,,,,,,,,,,,,,,,,,,,,,,,,,,,,,,,,,,,,,,,,,,,,,,,,,,,,,,,,,
0,87,87,79,1,,613c946a43af30711212b405,62c539931525d49b87c7922b,2022-07-06_09h29.31.383,Colour_Asymmetry_Pilot,2022.1.3,Win32,59.99880002,62c50e9c1127f2cd403a315f,,,,,,,,,,,,,,,,,,,,,,,,,,,,,,,,,,,,,,,,,,,,,,,,,,,,,,,,,,,,,,,,,,,,,,,,,,,,,,,,,,,,,,,,,,,,,,,,,,,,,,,,,,,,,,,,,,,,,,,,,,,,,,,,,,,,,,,,,,,,,,,,,,,,,,,,,,,,,,,,,,,
0,88,88,90,1,,613c946a43af30711212b405,62c539931525d49b87c7922b,2022-07-06_09h29.31.383,Colour_Asymmetry_Pilot,2022.1.3,Win32,59.99880002,62c50e9c1127f2cd403a315f,,,,,,,,,,,,,,,,,,,,,,,,,,,,,,,,,,,,,,,,,,,,,,,,,,,,,,,,,,,,,,,,,,,,,,,,,,,,,,,,,,,,,,,,,,,,,,,,,,,,,,,,,,,,,,,,,,,,,,,,,,,,,,,,,,,,,,,,,,,,,,,,,,,,,,,,,,,,,,,,,,,
0,89,89,18,1,,613c946a43af30711212b405,62c539931525d49b87c7922b,2022-07-06_09h29.31.383,Colour_Asymmetry_Pilot,2022.1.3,Win32,59.99880002,62c50e9c1127f2cd403a315f,,,,,,,,,,,,,,,,,,,,,,,,,,,,,,,,,,,,,,,,,,,,,,,,,,,,,,,,,,,,,,,,,,,,,,,,,,,,,,,,,,,,,,,,,,,,,,,,,,,,,,,,,,,,,,,,,,,,,,,,,,,,,,,,,,,,,,,,,,,,,,,,,,,,,,,,,,,,,,,,,,,
0,90,90,63,1,,613c946a43af30711212b405,62c539931525d49b87c7922b,2022-07-06_09h29.31.383,Colour_Asymmetry_Pilot,2022.1.3,Win32,59.99880002,62c50e9c1127f2cd403a315f,,,,,,,,,,,,,,,,,,,,,,,,,,,,,,,,,,,,,,,,,,,,,,,,,,,,,,,,,,,,,,,,,,,,,,,,,,,,,,,,,,,,,,,,,,,,,,,,,,,,,,,,,,,,,,,,,,,,,,,,,,,,,,,,,,,,,,,,,,,,,,,,,,,,,,,,,,,,,,,,,,,
0,91,91,6,1,,613c946a43af30711212b405,62c539931525d49b87c7922b,2022-07-06_09h29.31.383,Colour_Asymmetry_Pilot,2022.1.3,Win32,59.99880002,62c50e9c1127f2cd403a315f,,,,,,,,,,,,,,,,,,,,,,,,,,,,,,,,,,,,,,,,,,,,,,,,,,,,,,,,,,,,,,,,,,,,,,,,,,,,,,,,,,,,,,,,,,,,,,,,,,,,,,,,,,,,,,,,,,,,,,,,,,,,,,,,,,,,,,,,,,,,,,,,,,,,,,,,,,,,,,,,,,,
0,92,92,83,1,,613c946a43af30711212b405,62c539931525d49b87c7922b,2022-07-06_09h29.31.383,Colour_Asymmetry_Pilot,2022.1.3,Win32,59.99880002,62c50e9c1127f2cd403a315f,,,,,,,,,,,,,,,,,,,,,,,,,,,,,,,,,,,,,,,,,,,,,,,,,,,,,,,,,,,,,,,,,,,,,,,,,,,,,,,,,,,,,,,,,,,,,,,,,,,,,,,,,,,,,,,,,,,,,,,,,,,,,,,,,,,,,,,,,,,,,,,,,,,,,,,,,,,,,,,,,,,
,,,,,,613c946a43af30711212b405,62c539931525d49b87c7922b,2022-07-06_09h29.31.383,Colour_Asymmetry_Pilot,2022.1.3,Win32,59.99880002,62c50e9c1127f2cd403a315f,0,0,0,134,1,fourtwo,,,,,,,,,,,,,,,,,,,,,,,,,,,,,,,,,,,,,,,,,,,,,,,,,,,,,,,,,,,,,,,,,,,,,,,,,,,,,,,,,,,,,,,,,,,,,,,,,,,,,,,,,,,,,,,,,,,,,,,,,,,,,,,,,,,,,,,,,,,,,,,,,,,,,,,,,,,,,
,,,,,,613c946a43af30711212b405,62c539931525d49b87c7922b,2022-07-06_09h29.31.383,Colour_Asymmetry_Pilot,2022.1.3,Win32,59.99880002,62c50e9c1127f2cd403a315f,0,1,1,62,1,fourtwo,,,,,,,,,,,,,,,,,,,,,,,,,,,,,,,,,,,,,,,,,,,,,,,,,,,,,,,,,,,,,,,,,,,,,,,,,,,,,,,,,,,,,,,,,,,,,,,,,,,,,,,,,,,,,,,,,,,,,,,,,,,,,,,,,,,,,,,,,,,,,,,,,,,,,,,,,,,,,
,,,,,,613c946a43af30711212b405,62c539931525d49b87c7922b,2022-07-06_09h29.31.383,Colour_Asymmetry_Pilot,2022.1.3,Win32,59.99880002,62c50e9c1127f2cd403a315f,0,2,2,136,1,onetwo,,,,,,,,,,,,,,,,,,,,,,,,,,,,,,,,,,,,,,,,,,,,,,,,,,,,,,,,,,,,,,,,,,,,,,,,,,,,,,,,,,,,,,,,,,,,,,,,,,,,,,,,,,,,,,,,,,,,,,,,,,,,,,,,,,,,,,,,,,,,,,,,,,,,,,,,,,,,,
,,,,,,613c946a43af30711212b405,62c539931525d49b87c7922b,2022-07-06_09h29.31.383,Colour_Asymmetry_Pilot,2022.1.3,Win32,59.99880002,62c50e9c1127f2cd403a315f,0,3,3,56,1,onetwo,,,,,,,,,,,,,,,,,,,,,,,,,,,,,,,,,,,,,,,,,,,,,,,,,,,,,,,,,,,,,,,,,,,,,,,,,,,,,,,,,,,,,,,,,,,,,,,,,,,,,,,,,,,,,,,,,,,,,,,,,,,,,,,,,,,,,,,,,,,,,,,,,,,,,,,,,,,,,
,,,,,,613c946a43af30711212b405,62c539931525d49b87c7922b,2022-07-06_09h29.31.383,Colour_Asymmetry_Pilot,2022.1.3,Win32,59.99880002,62c50e9c1127f2cd403a315f,0,4,4,120,1,onetwo,,,,,,,,,,,,,,,,,,,,,,,,,,,,,,,,,,,,,,,,,,,,,,,,,,,,,,,,,,,,,,,,,,,,,,,,,,,,,,,,,,,,,,,,,,,,,,,,,,,,,,,,,,,,,,,,,,,,,,,,,,,,,,,,,,,,,,,,,,,,,,,,,,,,,,,,,,,,,
,,,,,,613c946a43af30711212b405,62c539931525d49b87c7922b,2022-07-06_09h29.31.383,Colour_Asymmetry_Pilot,2022.1.3,Win32,59.99880002,62c50e9c1127f2cd403a315f,0,5,5,123,1,twofour,,,,,,,,,,,,,,,,,,,,,,,,,,,,,,,,,,,,,,,,,,,,,,,,,,,,,,,,,,,,,,,,,,,,,,,,,,,,,,,,,,,,,,,,,,,,,,,,,,,,,,,,,,,,,,,,,,,,,,,,,,,,,,,,,,,,,,,,,,,,,,,,,,,,,,,,,,,,,
,,,,,,613c946a43af30711212b405,62c539931525d49b87c7922b,2022-07-06_09h29.31.383,Colour_Asymmetry_Pilot,2022.1.3,Win32,59.99880002,62c50e9c1127f2cd403a315f,0,6,6,59,1,twofour,,,,,,,,,,,,,,,,,,,,,,,,,,,,,,,,,,,,,,,,,,,,,,,,,,,,,,,,,,,,,,,,,,,,,,,,,,,,,,,,,,,,,,,,,,,,,,,,,,,,,,,,,,,,,,,,,,,,,,,,,,,,,,,,,,,,,,,,,,,,,,,,,,,,,,,,,,,,,
,,,,,,613c946a43af30711212b405,62c539931525d49b87c7922b,2022-07-06_09h29.31.383,Colour_Asymmetry_Pilot,2022.1.3,Win32,59.99880002,62c50e9c1127f2cd403a315f,0,7,7,111,1,fourthree,,,,,,,,,,,,,,,,,,,,,,,,,,,,,,,,,,,,,,,,,,,,,,,,,,,,,,,,,,,,,,,,,,,,,,,,,,,,,,,,,,,,,,,,,,,,,,,,,,,,,,,,,,,,,,,,,,,,,,,,,,,,,,,,,,,,,,,,,,,,,,,,,,,,,,,,,,,,,
,,,,,,613c946a43af30711212b405,62c539931525d49b87c7922b,2022-07-06_09h29.31.383,Colour_Asymmetry_Pilot,2022.1.3,Win32,59.99880002,62c50e9c1127f2cd403a315f,0,8,8,47,1,fourthree,,,,,,,,,,,,,,,,,,,,,,,,,,,,,,,,,,,,,,,,,,,,,,,,,,,,,,,,,,,,,,,,,,,,,,,,,,,,,,,,,,,,,,,,,,,,,,,,,,,,,,,,,,,,,,,,,,,,,,,,,,,,,,,,,,,,,,,,,,,,,,,,,,,,,,,,,,,,,
,,,,,,613c946a43af30711212b405,62c539931525d49b87c7922b,2022-07-06_09h29.31.383,Colour_Asymmetry_Pilot,2022.1.3,Win32,59.99880002,62c50e9c1127f2cd403a315f,0,9,9,143,1,fourthree,,,,,,,,,,,,,,,,,,,,,,,,,,,,,,,,,,,,,,,,,,,,,,,,,,,,,,,,,,,,,,,,,,,,,,,,,,,,,,,,,,,,,,,,,,,,,,,,,,,,,,,,,,,,,,,,,,,,,,,,,,,,,,,,,,,,,,,,,,,,,,,,,,,,,,,,,,,,,
,,,,,,613c946a43af30711212b405,62c539931525d49b87c7922b,2022-07-06_09h29.31.383,Colour_Asymmetry_Pilot,2022.1.3,Win32,59.99880002,62c50e9c1127f2cd403a315f,0,10,10,116,1,threeone,,,,,,,,,,,,,,,,,,,,,,,,,,,,,,,,,,,,,,,,,,,,,,,,,,,,,,,,,,,,,,,,,,,,,,,,,,,,,,,,,,,,,,,,,,,,,,,,,,,,,,,,,,,,,,,,,,,,,,,,,,,,,,,,,,,,,,,,,,,,,,,,,,,,,,,,,,,,,
,,,,,,613c946a43af30711212b405,62c539931525d49b87c7922b,2022-07-06_09h29.31.383,Colour_Asymmetry_Pilot,2022.1.3,Win32,59.99880002,62c50e9c1127f2cd403a315f,0,11,11,129,1,onethree,,,,,,,,,,,,,,,,,,,,,,,,,,,,,,,,,,,,,,,,,,,,,,,,,,,,,,,,,,,,,,,,,,,,,,,,,,,,,,,,,,,,,,,,,,,,,,,,,,,,,,,,,,,,,,,,,,,,,,,,,,,,,,,,,,,,,,,,,,,,,,,,,,,,,,,,,,,,,
,,,,,,613c946a43af30711212b405,62c539931525d49b87c7922b,2022-07-06_09h29.31.383,Colour_Asymmetry_Pilot,2022.1.3,Win32,59.99880002,62c50e9c1127f2cd403a315f,0,12,12,13,1,threefour,,,,,,,,,,,,,,,,,,,,,,,,,,,,,,,,,,,,,,,,,,,,,,,,,,,,,,,,,,,,,,,,,,,,,,,,,,,,,,,,,,,,,,,,,,,,,,,,,,,,,,,,,,,,,,,,,,,,,,,,,,,,,,,,,,,,,,,,,,,,,,,,,,,,,,,,,,,,,
,,,,,,613c946a43af30711212b405,62c539931525d49b87c7922b,2022-07-06_09h29.31.383,Colour_Asymmetry_Pilot,2022.1.3,Win32,59.99880002,62c50e9c1127f2cd403a315f,0,13,13,102,1,fourtwo,,,,,,,,,,,,,,,,,,,,,,,,,,,,,,,,,,,,,,,,,,,,,,,,,,,,,,,,,,,,,,,,,,,,,,,,,,,,,,,,,,,,,,,,,,,,,,,,,,,,,,,,,,,,,,,,,,,,,,,,,,,,,,,,,,,,,,,,,,,,,,,,,,,,,,,,,,,,,
,,,,,,613c946a43af30711212b405,62c539931525d49b87c7922b,2022-07-06_09h29.31.383,Colour_Asymmetry_Pilot,2022.1.3,Win32,59.99880002,62c50e9c1127f2cd403a315f,0,14,14,71,1,fourthree,,,,,,,,,,,,,,,,,,,,,,,,,,,,,,,,,,,,,,,,,,,,,,,,,,,,,,,,,,,,,,,,,,,,,,,,,,,,,,,,,,,,,,,,,,,,,,,,,,,,,,,,,,,,,,,,,,,,,,,,,,,,,,,,,,,,,,,,,,,,,,,,,,,,,,,,,,,,,
,,,,,,613c946a43af30711212b405,62c539931525d49b87c7922b,2022-07-06_09h29.31.383,Colour_Asymmetry_Pilot,2022.1.3,Win32,59.99880002,62c50e9c1127f2cd403a315f,0,15,15,97,1,onethree,,,,,,,,,,,,,,,,,,,,,,,,,,,,,,,,,,,,,,,,,,,,,,,,,,,,,,,,,,,,,,,,,,,,,,,,,,,,,,,,,,,,,,,,,,,,,,,,,,,,,,,,,,,,,,,,,,,,,,,,,,,,,,,,,,,,,,,,,,,,,,,,,,,,,,,,,,,,,
,,,,,,613c946a43af30711212b405,62c539931525d49b87c7922b,2022-07-06_09h29.31.383,Colour_Asymmetry_Pilot,2022.1.3,Win32,59.99880002,62c50e9c1127f2cd403a315f,0,16,16,52,1,threeone,,,,,,,,,,,,,,,,,,,,,,,,,,,,,,,,,,,,,,,,,,,,,,,,,,,,,,,,,,,,,,,,,,,,,,,,,,,,,,,,,,,,,,,,,,,,,,,,,,,,,,,,,,,,,,,,,,,,,,,,,,,,,,,,,,,,,,,,,,,,,,,,,,,,,,,,,,,,,
,,,,,,613c946a43af30711212b405,62c539931525d49b87c7922b,2022-07-06_09h29.31.383,Colour_Asymmetry_Pilot,2022.1.3,Win32,59.99880002,62c50e9c1127f2cd403a315f,0,17,17,46,1,fourtwo,,,,,,,,,,,,,,,,,,,,,,,,,,,,,,,,,,,,,,,,,,,,,,,,,,,,,,,,,,,,,,,,,,,,,,,,,,,,,,,,,,,,,,,,,,,,,,,,,,,,,,,,,,,,,,,,,,,,,,,,,,,,,,,,,,,,,,,,,,,,,,,,,,,,,,,,,,,,,
,,,,,,613c946a43af30711212b405,62c539931525d49b87c7922b,2022-07-06_09h29.31.383,Colour_Asymmetry_Pilot,2022.1.3,Win32,59.99880002,62c50e9c1127f2cd403a315f,0,18,18,125,1,threefour,,,,,,,,,,,,,,,,,,,,,,,,,,,,,,,,,,,,,,,,,,,,,,,,,,,,,,,,,,,,,,,,,,,,,,,,,,,,,,,,,,,,,,,,,,,,,,,,,,,,,,,,,,,,,,,,,,,,,,,,,,,,,,,,,,,,,,,,,,,,,,,,,,,,,,,,,,,,,
,,,,,,613c946a43af30711212b405,62c539931525d49b87c7922b,2022-07-06_09h29.31.383,Colour_Asymmetry_Pilot,2022.1.3,Win32,59.99880002,62c50e9c1127f2cd403a315f,0,19,19,105,1,onethree,,,,,,,,,,,,,,,,,,,,,,,,,,,,,,,,,,,,,,,,,,,,,,,,,,,,,,,,,,,,,,,,,,,,,,,,,,,,,,,,,,,,,,,,,,,,,,,,,,,,,,,,,,,,,,,,,,,,,,,,,,,,,,,,,,,,,,,,,,,,,,,,,,,,,,,,,,,,,
,,,,,,613c946a43af30711212b405,62c539931525d49b87c7922b,2022-07-06_09h29.31.383,Colour_Asymmetry_Pilot,2022.1.3,Win32,59.99880002,62c50e9c1127f2cd403a315f,0,20,20,65,1,onethree,,,,,,,,,,,,,,,,,,,,,,,,,,,,,,,,,,,,,,,,,,,,,,,,,,,,,,,,,,,,,,,,,,,,,,,,,,,,,,,,,,,,,,,,,,,,,,,,,,,,,,,,,,,,,,,,,,,,,,,,,,,,,,,,,,,,,,,,,,,,,,,,,,,,,,,,,,,,,
,,,,,,613c946a43af30711212b405,62c539931525d49b87c7922b,2022-07-06_09h29.31.383,Colour_Asymmetry_Pilot,2022.1.3,Win32,59.99880002,62c50e9c1127f2cd403a315f,0,21,21,21,1,threefour,,,,,,,,,,,,,,,,,,,,,,,,,,,,,,,,,,,,,,,,,,,,,,,,,,,,,,,,,,,,,,,,,,,,,,,,,,,,,,,,,,,,,,,,,,,,,,,,,,,,,,,,,,,,,,,,,,,,,,,,,,,,,,,,,,,,,,,,,,,,,,,,,,,,,,,,,,,,,
,,,,,,613c946a43af30711212b405,62c539931525d49b87c7922b,2022-07-06_09h29.31.383,Colour_Asymmetry_Pilot,2022.1.3,Win32,59.99880002,62c50e9c1127f2cd403a315f,0,22,22,22,1,fourtwo,,,,,,,,,,,,,,,,,,,,,,,,,,,,,,,,,,,,,,,,,,,,,,,,,,,,,,,,,,,,,,,,,,,,,,,,,,,,,,,,,,,,,,,,,,,,,,,,,,,,,,,,,,,,,,,,,,,,,,,,,,,,,,,,,,,,,,,,,,,,,,,,,,,,,,,,,,,,,
,,,,,,613c946a43af30711212b405,62c539931525d49b87c7922b,2022-07-06_09h29.31.383,Colour_Asymmetry_Pilot,2022.1.3,Win32,59.99880002,62c50e9c1127f2cd403a315f,0,23,23,33,1,onethree,,,,,,,,,,,,,,,,,,,,,,,,,,,,,,,,,,,,,,,,,,,,,,,,,,,,,,,,,,,,,,,,,,,,,,,,,,,,,,,,,,,,,,,,,,,,,,,,,,,,,,,,,,,,,,,,,,,,,,,,,,,,,,,,,,,,,,,,,,,,,,,,,,,,,,,,,,,,,
,,,,,,613c946a43af30711212b405,62c539931525d49b87c7922b,2022-07-06_09h29.31.383,Colour_Asymmetry_Pilot,2022.1.3,Win32,59.99880002,62c50e9c1127f2cd403a315f,0,24,24,3,1,twofour,,,,,,,,,,,,,,,,,,,,,,,,,,,,,,,,,,,,,,,,,,,,,,,,,,,,,,,,,,,,,,,,,,,,,,,,,,,,,,,,,,,,,,,,,,,,,,,,,,,,,,,,,,,,,,,,,,,,,,,,,,,,,,,,,,,,,,,,,,,,,,,,,,,,,,,,,,,,,
,,,,,,613c946a43af30711212b405,62c539931525d49b87c7922b,2022-07-06_09h29.31.383,Colour_Asymmetry_Pilot,2022.1.3,Win32,59.99880002,62c50e9c1127f2cd403a315f,0,25,25,161,1,onethree,,,,,,,,,,,,,,,,,,,,,,,,,,,,,,,,,,,,,,,,,,,,,,,,,,,,,,,,,,,,,,,,,,,,,,,,,,,,,,,,,,,,,,,,,,,,,,,,,,,,,,,,,,,,,,,,,,,,,,,,,,,,,,,,,,,,,,,,,,,,,,,,,,,,,,,,,,,,,
,,,,,,613c946a43af30711212b405,62c539931525d49b87c7922b,2022-07-06_09h29.31.383,Colour_Asymmetry_Pilot,2022.1.3,Win32,59.99880002,62c50e9c1127f2cd403a315f,0,26,26,101,1,threefour,,,,,,,,,,,,,,,,,,,,,,,,,,,,,,,,,,,,,,,,,,,,,,,,,,,,,,,,,,,,,,,,,,,,,,,,,,,,,,,,,,,,,,,,,,,,,,,,,,,,,,,,,,,,,,,,,,,,,,,,,,,,,,,,,,,,,,,,,,,,,,,,,,,,,,,,,,,,,
,,,,,,613c946a43af30711212b405,62c539931525d49b87c7922b,2022-07-06_09h29.31.383,Colour_Asymmetry_Pilot,2022.1.3,Win32,59.99880002,62c50e9c1127f2cd403a315f,0,27,27,49,1,onethree,,,,,,,,,,,,,,,,,,,,,,,,,,,,,,,,,,,,,,,,,,,,,,,,,,,,,,,,,,,,,,,,,,,,,,,,,,,,,,,,,,,,,,,,,,,,,,,,,,,,,,,,,,,,,,,,,,,,,,,,,,,,,,,,,,,,,,,,,,,,,,,,,,,,,,,,,,,,,
,,,,,,613c946a43af30711212b405,62c539931525d49b87c7922b,2022-07-06_09h29.31.383,Colour_Asymmetry_Pilot,2022.1.3,Win32,59.99880002,62c50e9c1127f2cd403a315f,0,28,28,9,1,onethree,,,,,,,,,,,,,,,,,,,,,,,,,,,,,,,,,,,,,,,,,,,,,,,,,,,,,,,,,,,,,,,,,,,,,,,,,,,,,,,,,,,,,,,,,,,,,,,,,,,,,,,,,,,,,,,,,,,,,,,,,,,,,,,,,,,,,,,,,,,,,,,,,,,,,,,,,,,,,
,,,,,,613c946a43af30711212b405,62c539931525d49b87c7922b,2022-07-06_09h29.31.383,Colour_Asymmetry_Pilot,2022.1.3,Win32,59.99880002,62c50e9c1127f2cd403a315f,0,29,29,0,1,onetwo,,,,,,,,,,,,,,,,,,,,,,,,,,,,,,,,,,,,,,,,,,,,,,,,,,,,,,,,,,,,,,,,,,,,,,,,,,,,,,,,,,,,,,,,,,,,,,,,,,,,,,,,,,,,,,,,,,,,,,,,,,,,,,,,,,,,,,,,,,,,,,,,,,,,,,,,,,,,,
,,,,,,613c946a43af30711212b405,62c539931525d49b87c7922b,2022-07-06_09h29.31.383,Colour_Asymmetry_Pilot,2022.1.3,Win32,59.99880002,62c50e9c1127f2cd403a315f,0,30,30,20,1,threeone,,,,,,,,,,,,,,,,,,,,,,,,,,,,,,,,,,,,,,,,,,,,,,,,,,,,,,,,,,,,,,,,,,,,,,,,,,,,,,,,,,,,,,,,,,,,,,,,,,,,,,,,,,,,,,,,,,,,,,,,,,,,,,,,,,,,,,,,,,,,,,,,,,,,,,,,,,,,,
,,,,,,613c946a43af30711212b405,62c539931525d49b87c7922b,2022-07-06_09h29.31.383,Colour_Asymmetry_Pilot,2022.1.3,Win32,59.99880002,62c50e9c1127f2cd403a315f,0,31,31,29,1,threefour,,,,,,,,,,,,,,,,,,,,,,,,,,,,,,,,,,,,,,,,,,,,,,,,,,,,,,,,,,,,,,,,,,,,,,,,,,,,,,,,,,,,,,,,,,,,,,,,,,,,,,,,,,,,,,,,,,,,,,,,,,,,,,,,,,,,,,,,,,,,,,,,,,,,,,,,,,,,,
,,,,,,613c946a43af30711212b405,62c539931525d49b87c7922b,2022-07-06_09h29.31.383,Colour_Asymmetry_Pilot,2022.1.3,Win32,59.99880002,62c50e9c1127f2cd403a315f,0,32,32,157,1,threefour,,,,,,,,,,,,,,,,,,,,,,,,,,,,,,,,,,,,,,,,,,,,,,,,,,,,,,,,,,,,,,,,,,,,,,,,,,,,,,,,,,,,,,,,,,,,,,,,,,,,,,,,,,,,,,,,,,,,,,,,,,,,,,,,,,,,,,,,,,,,,,,,,,,,,,,,,,,,,
,,,,,,613c946a43af30711212b405,62c539931525d49b87c7922b,2022-07-06_09h29.31.383,Colour_Asymmetry_Pilot,2022.1.3,Win32,59.99880002,62c50e9c1127f2cd403a315f,0,33,33,133,1,threefour,,,,,,,,,,,,,,,,,,,,,,,,,,,,,,,,,,,,,,,,,,,,,,,,,,,,,,,,,,,,,,,,,,,,,,,,,,,,,,,,,,,,,,,,,,,,,,,,,,,,,,,,,,,,,,,,,,,,,,,,,,,,,,,,,,,,,,,,,,,,,,,,,,,,,,,,,,,,,
,,,,,,613c946a43af30711212b405,62c539931525d49b87c7922b,2022-07-06_09h29.31.383,Colour_Asymmetry_Pilot,2022.1.3,Win32,59.99880002,62c50e9c1127f2cd403a315f,0,34,34,96,1,onetwo,,,,,,,,,,,,,,,,,,,,,,,,,,,,,,,,,,,,,,,,,,,,,,,,,,,,,,,,,,,,,,,,,,,,,,,,,,,,,,,,,,,,,,,,,,,,,,,,,,,,,,,,,,,,,,,,,,,,,,,,,,,,,,,,,,,,,,,,,,,,,,,,,,,,,,,,,,,,,
,,,,,,613c946a43af30711212b405,62c539931525d49b87c7922b,2022-07-06_09h29.31.383,Colour_Asymmetry_Pilot,2022.1.3,Win32,59.99880002,62c50e9c1127f2cd403a315f,0,35,35,90,1,twoone,,,,,,,,,,,,,,,,,,,,,,,,,,,,,,,,,,,,,,,,,,,,,,,,,,,,,,,,,,,,,,,,,,,,,,,,,,,,,,,,,,,,,,,,,,,,,,,,,,,,,,,,,,,,,,,,,,,,,,,,,,,,,,,,,,,,,,,,,,,,,,,,,,,,,,,,,,,,,
,,,,,,613c946a43af30711212b405,62c539931525d49b87c7922b,2022-07-06_09h29.31.383,Colour_Asymmetry_Pilot,2022.1.3,Win32,59.99880002,62c50e9c1127f2cd403a315f,0,36,36,60,1,threeone,,,,,,,,,,,,,,,,,,,,,,,,,,,,,,,,,,,,,,,,,,,,,,,,,,,,,,,,,,,,,,,,,,,,,,,,,,,,,,,,,,,,,,,,,,,,,,,,,,,,,,,,,,,,,,,,,,,,,,,,,,,,,,,,,,,,,,,,,,,,,,,,,,,,,,,,,,,,,
,,,,,,613c946a43af30711212b405,62c539931525d49b87c7922b,2022-07-06_09h29.31.383,Colour_Asymmetry_Pilot,2022.1.3,Win32,59.99880002,62c50e9c1127f2cd403a315f,0,37,37,151,1,fourthree,,,,,,,,,,,,,,,,,,,,,,,,,,,,,,,,,,,,,,,,,,,,,,,,,,,,,,,,,,,,,,,,,,,,,,,,,,,,,,,,,,,,,,,,,,,,,,,,,,,,,,,,,,,,,,,,,,,,,,,,,,,,,,,,,,,,,,,,,,,,,,,,,,,,,,,,,,,,,
,,,,,,613c946a43af30711212b405,62c539931525d49b87c7922b,2022-07-06_09h29.31.383,Colour_Asymmetry_Pilot,2022.1.3,Win32,59.99880002,62c50e9c1127f2cd403a315f,0,38,38,31,1,fourthree,,,,,,,,,,,,,,,,,,,,,,,,,,,,,,,,,,,,,,,,,,,,,,,,,,,,,,,,,,,,,,,,,,,,,,,,,,,,,,,,,,,,,,,,,,,,,,,,,,,,,,,,,,,,,,,,,,,,,,,,,,,,,,,,,,,,,,,,,,,,,,,,,,,,,,,,,,,,,
,,,,,,613c946a43af30711212b405,62c539931525d49b87c7922b,2022-07-06_09h29.31.383,Colour_Asymmetry_Pilot,2022.1.3,Win32,59.99880002,62c50e9c1127f2cd403a315f,0,39,39,145,1,onethree,,,,,,,,,,,,,,,,,,,,,,,,,,,,,,,,,,,,,,,,,,,,,,,,,,,,,,,,,,,,,,,,,,,,,,,,,,,,,,,,,,,,,,,,,,,,,,,,,,,,,,,,,,,,,,,,,,,,,,,,,,,,,,,,,,,,,,,,,,,,,,,,,,,,,,,,,,,,,
,,,,,,613c946a43af30711212b405,62c539931525d49b87c7922b,2022-07-06_09h29.31.383,Colour_Asymmetry_Pilot,2022.1.3,Win32,59.99880002,62c50e9c1127f2cd403a315f,0,40,40,25,1,onethree,,,,,,,,,,,,,,,,,,,,,,,,,,,,,,,,,,,,,,,,,,,,,,,,,,,,,,,,,,,,,,,,,,,,,,,,,,,,,,,,,,,,,,,,,,,,,,,,,,,,,,,,,,,,,,,,,,,,,,,,,,,,,,,,,,,,,,,,,,,,,,,,,,,,,,,,,,,,,
,,,,,,613c946a43af30711212b405,62c539931525d49b87c7922b,2022-07-06_09h29.31.383,Colour_Asymmetry_Pilot,2022.1.3,Win32,59.99880002,62c50e9c1127f2cd403a315f,0,41,41,137,1,onethree,,,,,,,,,,,,,,,,,,,,,,,,,,,,,,,,,,,,,,,,,,,,,,,,,,,,,,,,,,,,,,,,,,,,,,,,,,,,,,,,,,,,,,,,,,,,,,,,,,,,,,,,,,,,,,,,,,,,,,,,,,,,,,,,,,,,,,,,,,,,,,,,,,,,,,,,,,,,,
,,,,,,613c946a43af30711212b405,62c539931525d49b87c7922b,2022-07-06_09h29.31.383,Colour_Asymmetry_Pilot,2022.1.3,Win32,59.99880002,62c50e9c1127f2cd403a315f,0,42,42,140,1,threeone,,,,,,,,,,,,,,,,,,,,,,,,,,,,,,,,,,,,,,,,,,,,,,,,,,,,,,,,,,,,,,,,,,,,,,,,,,,,,,,,,,,,,,,,,,,,,,,,,,,,,,,,,,,,,,,,,,,,,,,,,,,,,,,,,,,,,,,,,,,,,,,,,,,,,,,,,,,,,
,,,,,,613c946a43af30711212b405,62c539931525d49b87c7922b,2022-07-06_09h29.31.383,Colour_Asymmetry_Pilot,2022.1.3,Win32,59.99880002,62c50e9c1127f2cd403a315f,0,43,43,131,1,twofour,,,,,,,,,,,,,,,,,,,,,,,,,,,,,,,,,,,,,,,,,,,,,,,,,,,,,,,,,,,,,,,,,,,,,,,,,,,,,,,,,,,,,,,,,,,,,,,,,,,,,,,,,,,,,,,,,,,,,,,,,,,,,,,,,,,,,,,,,,,,,,,,,,,,,,,,,,,,,
,,,,,,613c946a43af30711212b405,62c539931525d49b87c7922b,2022-07-06_09h29.31.383,Colour_Asymmetry_Pilot,2022.1.3,Win32,59.99880002,62c50e9c1127f2cd403a315f,0,44,44,84,1,threeone,,,,,,,,,,,,,,,,,,,,,,,,,,,,,,,,,,,,,,,,,,,,,,,,,,,,,,,,,,,,,,,,,,,,,,,,,,,,,,,,,,,,,,,,,,,,,,,,,,,,,,,,,,,,,,,,,,,,,,,,,,,,,,,,,,,,,,,,,,,,,,,,,,,,,,,,,,,,,
,,,,,,613c946a43af30711212b405,62c539931525d49b87c7922b,2022-07-06_09h29.31.383,Colour_Asymmetry_Pilot,2022.1.3,Win32,59.99880002,62c50e9c1127f2cd403a315f,0,45,45,107,1,twofour,,,,,,,,,,,,,,,,,,,,,,,,,,,,,,,,,,,,,,,,,,,,,,,,,,,,,,,,,,,,,,,,,,,,,,,,,,,,,,,,,,,,,,,,,,,,,,,,,,,,,,,,,,,,,,,,,,,,,,,,,,,,,,,,,,,,,,,,,,,,,,,,,,,,,,,,,,,,,
,,,,,,613c946a43af30711212b405,62c539931525d49b87c7922b,2022-07-06_09h29.31.383,Colour_Asymmetry_Pilot,2022.1.3,Win32,59.99880002,62c50e9c1127f2cd403a315f,0,46,46,130,1,twoone,,,,,,,,,,,,,,,,,,,,,,,,,,,,,,,,,,,,,,,,,,,,,,,,,,,,,,,,,,,,,,,,,,,,,,,,,,,,,,,,,,,,,,,,,,,,,,,,,,,,,,,,,,,,,,,,,,,,,,,,,,,,,,,,,,,,,,,,,,,,,,,,,,,,,,,,,,,,,
,,,,,,613c946a43af30711212b405,62c539931525d49b87c7922b,2022-07-06_09h29.31.383,Colour_Asymmetry_Pilot,2022.1.3,Win32,59.99880002,62c50e9c1127f2cd403a315f,0,47,47,63,1,fourthree,,,,,,,,,,,,,,,,,,,,,,,,,,,,,,,,,,,,,,,,,,,,,,,,,,,,,,,,,,,,,,,,,,,,,,,,,,,,,,,,,,,,,,,,,,,,,,,,,,,,,,,,,,,,,,,,,,,,,,,,,,,,,,,,,,,,,,,,,,,,,,,,,,,,,,,,,,,,,
,,,,,,613c946a43af30711212b405,62c539931525d49b87c7922b,2022-07-06_09h29.31.383,Colour_Asymmetry_Pilot,2022.1.3,Win32,59.99880002,62c50e9c1127f2cd403a315f,0,48,48,78,1,fourtwo,,,,,,,,,,,,,,,,,,,,,,,,,,,,,,,,,,,,,,,,,,,,,,,,,,,,,,,,,,,,,,,,,,,,,,,,,,,,,,,,,,,,,,,,,,,,,,,,,,,,,,,,,,,,,,,,,,,,,,,,,,,,,,,,,,,,,,,,,,,,,,,,,,,,,,,,,,,,,
,,,,,,613c946a43af30711212b405,62c539931525d49b87c7922b,2022-07-06_09h29.31.383,Colour_Asymmetry_Pilot,2022.1.3,Win32,59.99880002,62c50e9c1127f2cd403a315f,0,49,49,94,1,fourtwo,,,,,,,,,,,,,,,,,,,,,,,,,,,,,,,,,,,,,,,,,,,,,,,,,,,,,,,,,,,,,,,,,,,,,,,,,,,,,,,,,,,,,,,,,,,,,,,,,,,,,,,,,,,,,,,,,,,,,,,,,,,,,,,,,,,,,,,,,,,,,,,,,,,,,,,,,,,,,
,,,,,,613c946a43af30711212b405,62c539931525d49b87c7922b,2022-07-06_09h29.31.383,Colour_Asymmetry_Pilot,2022.1.3,Win32,59.99880002,62c50e9c1127f2cd403a315f,0,50,50,150,1,fourtwo,,,,,,,,,,,,,,,,,,,,,,,,,,,,,,,,,,,,,,,,,,,,,,,,,,,,,,,,,,,,,,,,,,,,,,,,,,,,,,,,,,,,,,,,,,,,,,,,,,,,,,,,,,,,,,,,,,,,,,,,,,,,,,,,,,,,,,,,,,,,,,,,,,,,,,,,,,,,,
,,,,,,613c946a43af30711212b405,62c539931525d49b87c7922b,2022-07-06_09h29.31.383,Colour_Asymmetry_Pilot,2022.1.3,Win32,59.99880002,62c50e9c1127f2cd403a315f,0,51,51,67,1,twofour,,,,,,,,,,,,,,,,,,,,,,,,,,,,,,,,,,,,,,,,,,,,,,,,,,,,,,,,,,,,,,,,,,,,,,,,,,,,,,,,,,,,,,,,,,,,,,,,,,,,,,,,,,,,,,,,,,,,,,,,,,,,,,,,,,,,,,,,,,,,,,,,,,,,,,,,,,,,,
,,,,,,613c946a43af30711212b405,62c539931525d49b87c7922b,2022-07-06_09h29.31.383,Colour_Asymmetry_Pilot,2022.1.3,Win32,59.99880002,62c50e9c1127f2cd403a315f,0,52,52,43,1,twofour,,,,,,,,,,,,,,,,,,,,,,,,,,,,,,,,,,,,,,,,,,,,,,,,,,,,,,,,,,,,,,,,,,,,,,,,,,,,,,,,,,,,,,,,,,,,,,,,,,,,,,,,,,,,,,,,,,,,,,,,,,,,,,,,,,,,,,,,,,,,,,,,,,,,,,,,,,,,,
,,,,,,613c946a43af30711212b405,62c539931525d49b87c7922b,2022-07-06_09h29.31.383,Colour_Asymmetry_Pilot,2022.1.3,Win32,59.99880002,62c50e9c1127f2cd403a315f,0,53,53,117,1,threefour,,,,,,,,,,,,,,,,,,,,,,,,,,,,,,,,,,,,,,,,,,,,,,,,,,,,,,,,,,,,,,,,,,,,,,,,,,,,,,,,,,,,,,,,,,,,,,,,,,,,,,,,,,,,,,,,,,,,,,,,,,,,,,,,,,,,,,,,,,,,,,,,,,,,,,,,,,,,,
,,,,,,613c946a43af30711212b405,62c539931525d49b87c7922b,2022-07-06_09h29.31.383,Colour_Asymmetry_Pilot,2022.1.3,Win32,59.99880002,62c50e9c1127f2cd403a315f,0,54,54,93,1,threefour,,,,,,,,,,,,,,,,,,,,,,,,,,,,,,,,,,,,,,,,,,,,,,,,,,,,,,,,,,,,,,,,,,,,,,,,,,,,,,,,,,,,,,,,,,,,,,,,,,,,,,,,,,,,,,,,,,,,,,,,,,,,,,,,,,,,,,,,,,,,,,,,,,,,,,,,,,,,,
,,,,,,613c946a43af30711212b405,62c539931525d49b87c7922b,2022-07-06_09h29.31.383,Colour_Asymmetry_Pilot,2022.1.3,Win32,59.99880002,62c50e9c1127f2cd403a315f,0,55,55,110,1,fourtwo,,,,,,,,,,,,,,,,,,,,,,,,,,,,,,,,,,,,,,,,,,,,,,,,,,,,,,,,,,,,,,,,,,,,,,,,,,,,,,,,,,,,,,,,,,,,,,,,,,,,,,,,,,,,,,,,,,,,,,,,,,,,,,,,,,,,,,,,,,,,,,,,,,,,,,,,,,,,,
,,,,,,613c946a43af30711212b405,62c539931525d49b87c7922b,2022-07-06_09h29.31.383,Colour_Asymmetry_Pilot,2022.1.3,Win32,59.99880002,62c50e9c1127f2cd403a315f,0,56,56,142,1,fourtwo,,,,,,,,,,,,,,,,,,,,,,,,,,,,,,,,,,,,,,,,,,,,,,,,,,,,,,,,,,,,,,,,,,,,,,,,,,,,,,,,,,,,,,,,,,,,,,,,,,,,,,,,,,,,,,,,,,,,,,,,,,,,,,,,,,,,,,,,,,,,,,,,,,,,,,,,,,,,,
,,,,,,613c946a43af30711212b405,62c539931525d49b87c7922b,2022-07-06_09h29.31.383,Colour_Asymmetry_Pilot,2022.1.3,Win32,59.99880002,62c50e9c1127f2cd403a315f,0,57,57,82,1,twoone,,,,,,,,,,,,,,,,,,,,,,,,,,,,,,,,,,,,,,,,,,,,,,,,,,,,,,,,,,,,,,,,,,,,,,,,,,,,,,,,,,,,,,,,,,,,,,,,,,,,,,,,,,,,,,,,,,,,,,,,,,,,,,,,,,,,,,,,,,,,,,,,,,,,,,,,,,,,,
,,,,,,613c946a43af30711212b405,62c539931525d49b87c7922b,2022-07-06_09h29.31.383,Colour_Asymmetry_Pilot,2022.1.3,Win32,59.99880002,62c50e9c1127f2cd403a315f,0,58,58,114,1,twoone,,,,,,,,,,,,,,,,,,,,,,,,,,,,,,,,,,,,,,,,,,,,,,,,,,,,,,,,,,,,,,,,,,,,,,,,,,,,,,,,,,,,,,,,,,,,,,,,,,,,,,,,,,,,,,,,,,,,,,,,,,,,,,,,,,,,,,,,,,,,,,,,,,,,,,,,,,,,,
,,,,,,613c946a43af30711212b405,62c539931525d49b87c7922b,2022-07-06_09h29.31.383,Colour_Asymmetry_Pilot,2022.1.3,Win32,59.99880002,62c50e9c1127f2cd403a315f,0,59,59,42,1,twoone,,,,,,,,,,,,,,,,,,,,,,,,,,,,,,,,,,,,,,,,,,,,,,,,,,,,,,,,,,,,,,,,,,,,,,,,,,,,,,,,,,,,,,,,,,,,,,,,,,,,,,,,,,,,,,,,,,,,,,,,,,,,,,,,,,,,,,,,,,,,,,,,,,,,,,,,,,,,,
,,,,,,613c946a43af30711212b405,62c539931525d49b87c7922b,2022-07-06_09h29.31.383,Colour_Asymmetry_Pilot,2022.1.3,Win32,59.99880002,62c50e9c1127f2cd403a315f,0,60,60,92,1,threeone,,,,,,,,,,,,,,,,,,,,,,,,,,,,,,,,,,,,,,,,,,,,,,,,,,,,,,,,,,,,,,,,,,,,,,,,,,,,,,,,,,,,,,,,,,,,,,,,,,,,,,,,,,,,,,,,,,,,,,,,,,,,,,,,,,,,,,,,,,,,,,,,,,,,,,,,,,,,,
,,,,,,613c946a43af30711212b405,62c539931525d49b87c7922b,2022-07-06_09h29.31.383,Colour_Asymmetry_Pilot,2022.1.3,Win32,59.99880002,62c50e9c1127f2cd403a315f,0,61,61,138,1,twoone,,,,,,,,,,,,,,,,,,,,,,,,,,,,,,,,,,,,,,,,,,,,,,,,,,,,,,,,,,,,,,,,,,,,,,,,,,,,,,,,,,,,,,,,,,,,,,,,,,,,,,,,,,,,,,,,,,,,,,,,,,,,,,,,,,,,,,,,,,,,,,,,,,,,,,,,,,,,,
,,,,,,613c946a43af30711212b405,62c539931525d49b87c7922b,2022-07-06_09h29.31.383,Colour_Asymmetry_Pilot,2022.1.3,Win32,59.99880002,62c50e9c1127f2cd403a315f,0,62,62,16,1,onetwo,,,,,,,,,,,,,,,,,,,,,,,,,,,,,,,,,,,,,,,,,,,,,,,,,,,,,,,,,,,,,,,,,,,,,,,,,,,,,,,,,,,,,,,,,,,,,,,,,,,,,,,,,,,,,,,,,,,,,,,,,,,,,,,,,,,,,,,,,,,,,,,,,,,,,,,,,,,,,
,,,,,,613c946a43af30711212b405,62c539931525d49b87c7922b,2022-07-06_09h29.31.383,Colour_Asymmetry_Pilot,2022.1.3,Win32,59.99880002,62c50e9c1127f2cd403a315f,0,63,63,98,1,twoone,,,,,,,,,,,,,,,,,,,,,,,,,,,,,,,,,,,,,,,,,,,,,,,,,,,,,,,,,,,,,,,,,,,,,,,,,,,,,,,,,,,,,,,,,,,,,,,,,,,,,,,,,,,,,,,,,,,,,,,,,,,,,,,,,,,,,,,,,,,,,,,,,,,,,,,,,,,,,
,,,,,,613c946a43af30711212b405,62c539931525d49b87c7922b,2022-07-06_09h29.31.383,Colour_Asymmetry_Pilot,2022.1.3,Win32,59.99880002,62c50e9c1127f2cd403a315f,0,64,64,159,1,fourthree,,,,,,,,,,,,,,,,,,,,,,,,,,,,,,,,,,,,,,,,,,,,,,,,,,,,,,,,,,,,,,,,,,,,,,,,,,,,,,,,,,,,,,,,,,,,,,,,,,,,,,,,,,,,,,,,,,,,,,,,,,,,,,,,,,,,,,,,,,,,,,,,,,,,,,,,,,,,,
,,,,,,613c946a43af30711212b405,62c539931525d49b87c7922b,2022-07-06_09h29.31.383,Colour_Asymmetry_Pilot,2022.1.3,Win32,59.99880002,62c50e9c1127f2cd403a315f,0,65,65,73,1,onethree,,,,,,,,,,,,,,,,,,,,,,,,,,,,,,,,,,,,,,,,,,,,,,,,,,,,,,,,,,,,,,,,,,,,,,,,,,,,,,,,,,,,,,,,,,,,,,,,,,,,,,,,,,,,,,,,,,,,,,,,,,,,,,,,,,,,,,,,,,,,,,,,,,,,,,,,,,,,,
,,,,,,613c946a43af30711212b405,62c539931525d49b87c7922b,2022-07-06_09h29.31.383,Colour_Asymmetry_Pilot,2022.1.3,Win32,59.99880002,62c50e9c1127f2cd403a315f,0,66,66,53,1,threefour,,,,,,,,,,,,,,,,,,,,,,,,,,,,,,,,,,,,,,,,,,,,,,,,,,,,,,,,,,,,,,,,,,,,,,,,,,,,,,,,,,,,,,,,,,,,,,,,,,,,,,,,,,,,,,,,,,,,,,,,,,,,,,,,,,,,,,,,,,,,,,,,,,,,,,,,,,,,,
,,,,,,613c946a43af30711212b405,62c539931525d49b87c7922b,2022-07-06_09h29.31.383,Colour_Asymmetry_Pilot,2022.1.3,Win32,59.99880002,62c50e9c1127f2cd403a315f,0,67,67,24,1,onetwo,,,,,,,,,,,,,,,,,,,,,,,,,,,,,,,,,,,,,,,,,,,,,,,,,,,,,,,,,,,,,,,,,,,,,,,,,,,,,,,,,,,,,,,,,,,,,,,,,,,,,,,,,,,,,,,,,,,,,,,,,,,,,,,,,,,,,,,,,,,,,,,,,,,,,,,,,,,,,
,,,,,,613c946a43af30711212b405,62c539931525d49b87c7922b,2022-07-06_09h29.31.383,Colour_Asymmetry_Pilot,2022.1.3,Win32,59.99880002,62c50e9c1127f2cd403a315f,0,68,68,149,1,threefour,,,,,,,,,,,,,,,,,,,,,,,,,,,,,,,,,,,,,,,,,,,,,,,,,,,,,,,,,,,,,,,,,,,,,,,,,,,,,,,,,,,,,,,,,,,,,,,,,,,,,,,,,,,,,,,,,,,,,,,,,,,,,,,,,,,,,,,,,,,,,,,,,,,,,,,,,,,,,
,,,,,,613c946a43af30711212b405,62c539931525d49b87c7922b,2022-07-06_09h29.31.383,Colour_Asymmetry_Pilot,2022.1.3,Win32,59.99880002,62c50e9c1127f2cd403a315f,0,69,69,15,1,fourthree,,,,,,,,,,,,,,,,,,,,,,,,,,,,,,,,,,,,,,,,,,,,,,,,,,,,,,,,,,,,,,,,,,,,,,,,,,,,,,,,,,,,,,,,,,,,,,,,,,,,,,,,,,,,,,,,,,,,,,,,,,,,,,,,,,,,,,,,,,,,,,,,,,,,,,,,,,,,,
,,,,,,613c946a43af30711212b405,62c539931525d49b87c7922b,2022-07-06_09h29.31.383,Colour_Asymmetry_Pilot,2022.1.3,Win32,59.99880002,62c50e9c1127f2cd403a315f,0,70,70,88,1,onetwo,,,,,,,,,,,,,,,,,,,,,,,,,,,,,,,,,,,,,,,,,,,,,,,,,,,,,,,,,,,,,,,,,,,,,,,,,,,,,,,,,,,,,,,,,,,,,,,,,,,,,,,,,,,,,,,,,,,,,,,,,,,,,,,,,,,,,,,,,,,,,,,,,,,,,,,,,,,,,
,,,,,,613c946a43af30711212b405,62c539931525d49b87c7922b,2022-07-06_09h29.31.383,Colour_Asymmetry_Pilot,2022.1.3,Win32,59.99880002,62c50e9c1127f2cd403a315f,0,71,71,23,1,fourthree,,,,,,,,,,,,,,,,,,,,,,,,,,,,,,,,,,,,,,,,,,,,,,,,,,,,,,,,,,,,,,,,,,,,,,,,,,,,,,,,,,,,,,,,,,,,,,,,,,,,,,,,,,,,,,,,,,,,,,,,,,,,,,,,,,,,,,,,,,,,,,,,,,,,,,,,,,,,,
,,,,,,613c946a43af30711212b405,62c539931525d49b87c7922b,2022-07-06_09h29.31.383,Colour_Asymmetry_Pilot,2022.1.3,Win32,59.99880002,62c50e9c1127f2cd403a315f,0,72,72,44,1,threeone,,,,,,,,,,,,,,,,,,,,,,,,,,,,,,,,,,,,,,,,,,,,,,,,,,,,,,,,,,,,,,,,,,,,,,,,,,,,,,,,,,,,,,,,,,,,,,,,,,,,,,,,,,,,,,,,,,,,,,,,,,,,,,,,,,,,,,,,,,,,,,,,,,,,,,,,,,,,,
,,,,,,613c946a43af30711212b405,62c539931525d49b87c7922b,2022-07-06_09h29.31.383,Colour_Asymmetry_Pilot,2022.1.3,Win32,59.99880002,62c50e9c1127f2cd403a315f,0,73,73,17,1,onethree,,,,,,,,,,,,,,,,,,,,,,,,,,,,,,,,,,,,,,,,,,,,,,,,,,,,,,,,,,,,,,,,,,,,,,,,,,,,,,,,,,,,,,,,,,,,,,,,,,,,,,,,,,,,,,,,,,,,,,,,,,,,,,,,,,,,,,,,,,,,,,,,,,,,,,,,,,,,,
,,,,,,613c946a43af30711212b405,62c539931525d49b87c7922b,2022-07-06_09h29.31.383,Colour_Asymmetry_Pilot,2022.1.3,Win32,59.99880002,62c50e9c1127f2cd403a315f,0,74,74,147,1,twofour,,,,,,,,,,,,,,,,,,,,,,,,,,,,,,,,,,,,,,,,,,,,,,,,,,,,,,,,,,,,,,,,,,,,,,,,,,,,,,,,,,,,,,,,,,,,,,,,,,,,,,,,,,,,,,,,,,,,,,,,,,,,,,,,,,,,,,,,,,,,,,,,,,,,,,,,,,,,,
,,,,,,613c946a43af30711212b405,62c539931525d49b87c7922b,2022-07-06_09h29.31.383,Colour_Asymmetry_Pilot,2022.1.3,Win32,59.99880002,62c50e9c1127f2cd403a315f,0,75,75,26,1,twoone,,,,,,,,,,,,,,,,,,,,,,,,,,,,,,,,,,,,,,,,,,,,,,,,,,,,,,,,,,,,,,,,,,,,,,,,,,,,,,,,,,,,,,,,,,,,,,,,,,,,,,,,,,,,,,,,,,,,,,,,,,,,,,,,,,,,,,,,,,,,,,,,,,,,,,,,,,,,,
,,,,,,613c946a43af30711212b405,62c539931525d49b87c7922b,2022-07-06_09h29.31.383,Colour_Asymmetry_Pilot,2022.1.3,Win32,59.99880002,62c50e9c1127f2cd403a315f,0,76,76,104,1,onetwo,,,,,,,,,,,,,,,,,,,,,,,,,,,,,,,,,,,,,,,,,,,,,,,,,,,,,,,,,,,,,,,,,,,,,,,,,,,,,,,,,,,,,,,,,,,,,,,,,,,,,,,,,,,,,,,,,,,,,,,,,,,,,,,,,,,,,,,,,,,,,,,,,,,,,,,,,,,,,
,,,,,,613c946a43af30711212b405,62c539931525d49b87c7922b,2022-07-06_09h29.31.383,Colour_Asymmetry_Pilot,2022.1.3,Win32,59.99880002,62c50e9c1127f2cd403a315f,0,77,77,48,1,onetwo,,,,,,,,,,,,,,,,,,,,,,,,,,,,,,,,,,,,,,,,,,,,,,,,,,,,,,,,,,,,,,,,,,,,,,,,,,,,,,,,,,,,,,,,,,,,,,,,,,,,,,,,,,,,,,,,,,,,,,,,,,,,,,,,,,,,,,,,,,,,,,,,,,,,,,,,,,,,,
,,,,,,613c946a43af30711212b405,62c539931525d49b87c7922b,2022-07-06_09h29.31.383,Colour_Asymmetry_Pilot,2022.1.3,Win32,59.99880002,62c50e9c1127f2cd403a315f,0,78,78,144,1,onetwo,,,,,,,,,,,,,,,,,,,,,,,,,,,,,,,,,,,,,,,,,,,,,,,,,,,,,,,,,,,,,,,,,,,,,,,,,,,,,,,,,,,,,,,,,,,,,,,,,,,,,,,,,,,,,,,,,,,,,,,,,,,,,,,,,,,,,,,,,,,,,,,,,,,,,,,,,,,,,
,,,,,,613c946a43af30711212b405,62c539931525d49b87c7922b,2022-07-06_09h29.31.383,Colour_Asymmetry_Pilot,2022.1.3,Win32,59.99880002,62c50e9c1127f2cd403a315f,0,79,79,127,1,fourthree,,,,,,,,,,,,,,,,,,,,,,,,,,,,,,,,,,,,,,,,,,,,,,,,,,,,,,,,,,,,,,,,,,,,,,,,,,,,,,,,,,,,,,,,,,,,,,,,,,,,,,,,,,,,,,,,,,,,,,,,,,,,,,,,,,,,,,,,,,,,,,,,,,,,,,,,,,,,,
,,,,,,613c946a43af30711212b405,62c539931525d49b87c7922b,2022-07-06_09h29.31.383,Colour_Asymmetry_Pilot,2022.1.3,Win32,59.99880002,62c50e9c1127f2cd403a315f,0,80,80,12,1,threeone,,,,,,,,,,,,,,,,,,,,,,,,,,,,,,,,,,,,,,,,,,,,,,,,,,,,,,,,,,,,,,,,,,,,,,,,,,,,,,,,,,,,,,,,,,,,,,,,,,,,,,,,,,,,,,,,,,,,,,,,,,,,,,,,,,,,,,,,,,,,,,,,,,,,,,,,,,,,,
,,,,,,613c946a43af30711212b405,62c539931525d49b87c7922b,2022-07-06_09h29.31.383,Colour_Asymmetry_Pilot,2022.1.3,Win32,59.99880002,62c50e9c1127f2cd403a315f,0,81,81,27,1,twofour,,,,,,,,,,,,,,,,,,,,,,,,,,,,,,,,,,,,,,,,,,,,,,,,,,,,,,,,,,,,,,,,,,,,,,,,,,,,,,,,,,,,,,,,,,,,,,,,,,,,,,,,,,,,,,,,,,,,,,,,,,,,,,,,,,,,,,,,,,,,,,,,,,,,,,,,,,,,,
,,,,,,613c946a43af30711212b405,62c539931525d49b87c7922b,2022-07-06_09h29.31.383,Colour_Asymmetry_Pilot,2022.1.3,Win32,59.99880002,62c50e9c1127f2cd403a315f,0,82,82,36,1,threeone,,,,,,,,,,,,,,,,,,,,,,,,,,,,,,,,,,,,,,,,,,,,,,,,,,,,,,,,,,,,,,,,,,,,,,,,,,,,,,,,,,,,,,,,,,,,,,,,,,,,,,,,,,,,,,,,,,,,,,,,,,,,,,,,,,,,,,,,,,,,,,,,,,,,,,,,,,,,,
,,,,,,613c946a43af30711212b405,62c539931525d49b87c7922b,2022-07-06_09h29.31.383,Colour_Asymmetry_Pilot,2022.1.3,Win32,59.99880002,62c50e9c1127f2cd403a315f,0,83,83,79,1,fourthree,,,,,,,,,,,,,,,,,,,,,,,,,,,,,,,,,,,,,,,,,,,,,,,,,,,,,,,,,,,,,,,,,,,,,,,,,,,,,,,,,,,,,,,,,,,,,,,,,,,,,,,,,,,,,,,,,,,,,,,,,,,,,,,,,,,,,,,,,,,,,,,,,,,,,,,,,,,,,
,,,,,,613c946a43af30711212b405,62c539931525d49b87c7922b,2022-07-06_09h29.31.383,Colour_Asymmetry_Pilot,2022.1.3,Win32,59.99880002,62c50e9c1127f2cd403a315f,0,84,84,95,1,fourthree,,,,,,,,,,,,,,,,,,,,,,,,,,,,,,,,,,,,,,,,,,,,,,,,,,,,,,,,,,,,,,,,,,,,,,,,,,,,,,,,,,,,,,,,,,,,,,,,,,,,,,,,,,,,,,,,,,,,,,,,,,,,,,,,,,,,,,,,,,,,,,,,,,,,,,,,,,,,,
,,,,,,613c946a43af30711212b405,62c539931525d49b87c7922b,2022-07-06_09h29.31.383,Colour_Asymmetry_Pilot,2022.1.3,Win32,59.99880002,62c50e9c1127f2cd403a315f,0,85,85,85,1,threefour,,,,,,,,,,,,,,,,,,,,,,,,,,,,,,,,,,,,,,,,,,,,,,,,,,,,,,,,,,,,,,,,,,,,,,,,,,,,,,,,,,,,,,,,,,,,,,,,,,,,,,,,,,,,,,,,,,,,,,,,,,,,,,,,,,,,,,,,,,,,,,,,,,,,,,,,,,,,,
,,,,,,613c946a43af30711212b405,62c539931525d49b87c7922b,2022-07-06_09h29.31.383,Colour_Asymmetry_Pilot,2022.1.3,Win32,59.99880002,62c50e9c1127f2cd403a315f,0,86,86,86,1,fourtwo,,,,,,,,,,,,,,,,,,,,,,,,,,,,,,,,,,,,,,,,,,,,,,,,,,,,,,,,,,,,,,,,,,,,,,,,,,,,,,,,,,,,,,,,,,,,,,,,,,,,,,,,,,,,,,,,,,,,,,,,,,,,,,,,,,,,,,,,,,,,,,,,,,,,,,,,,,,,,
,,,,,,613c946a43af30711212b405,62c539931525d49b87c7922b,2022-07-06_09h29.31.383,Colour_Asymmetry_Pilot,2022.1.3,Win32,59.99880002,62c50e9c1127f2cd403a315f,0,87,87,153,1,onethree,,,,,,,,,,,,,,,,,,,,,,,,,,,,,,,,,,,,,,,,,,,,,,,,,,,,,,,,,,,,,,,,,,,,,,,,,,,,,,,,,,,,,,,,,,,,,,,,,,,,,,,,,,,,,,,,,,,,,,,,,,,,,,,,,,,,,,,,,,,,,,,,,,,,,,,,,,,,,
,,,,,,613c946a43af30711212b405,62c539931525d49b87c7922b,2022-07-06_09h29.31.383,Colour_Asymmetry_Pilot,2022.1.3,Win32,59.99880002,62c50e9c1127f2cd403a315f,0,88,88,156,1,threeone,,,,,,,,,,,,,,,,,,,,,,,,,,,,,,,,,,,,,,,,,,,,,,,,,,,,,,,,,,,,,,,,,,,,,,,,,,,,,,,,,,,,,,,,,,,,,,,,,,,,,,,,,,,,,,,,,,,,,,,,,,,,,,,,,,,,,,,,,,,,,,,,,,,,,,,,,,,,,
,,,,,,613c946a43af30711212b405,62c539931525d49b87c7922b,2022-07-06_09h29.31.383,Colour_Asymmetry_Pilot,2022.1.3,Win32,59.99880002,62c50e9c1127f2cd403a315f,0,89,89,28,1,threeone,,,,,,,,,,,,,,,,,,,,,,,,,,,,,,,,,,,,,,,,,,,,,,,,,,,,,,,,,,,,,,,,,,,,,,,,,,,,,,,,,,,,,,,,,,,,,,,,,,,,,,,,,,,,,,,,,,,,,,,,,,,,,,,,,,,,,,,,,,,,,,,,,,,,,,,,,,,,,
,,,,,,613c946a43af30711212b405,62c539931525d49b87c7922b,2022-07-06_09h29.31.383,Colour_Asymmetry_Pilot,2022.1.3,Win32,59.99880002,62c50e9c1127f2cd403a315f,0,90,90,14,1,fourtwo,,,,,,,,,,,,,,,,,,,,,,,,,,,,,,,,,,,,,,,,,,,,,,,,,,,,,,,,,,,,,,,,,,,,,,,,,,,,,,,,,,,,,,,,,,,,,,,,,,,,,,,,,,,,,,,,,,,,,,,,,,,,,,,,,,,,,,,,,,,,,,,,,,,,,,,,,,,,,
,,,,,,613c946a43af30711212b405,62c539931525d49b87c7922b,2022-07-06_09h29.31.383,Colour_Asymmetry_Pilot,2022.1.3,Win32,59.99880002,62c50e9c1127f2cd403a315f,0,91,91,50,1,twoone,,,,,,,,,,,,,,,,,,,,,,,,,,,,,,,,,,,,,,,,,,,,,,,,,,,,,,,,,,,,,,,,,,,,,,,,,,,,,,,,,,,,,,,,,,,,,,,,,,,,,,,,,,,,,,,,,,,,,,,,,,,,,,,,,,,,,,,,,,,,,,,,,,,,,,,,,,,,,
,,,,,,613c946a43af30711212b405,62c539931525d49b87c7922b,2022-07-06_09h29.31.383,Colour_Asymmetry_Pilot,2022.1.3,Win32,59.99880002,62c50e9c1127f2cd403a315f,0,92,92,154,1,twoone,,,,,,,,,,,,,,,,,,,,,,,,,,,,,,,,,,,,,,,,,,,,,,,,,,,,,,,,,,,,,,,,,,,,,,,,,,,,,,,,,,,,,,,,,,,,,,,,,,,,,,,,,,,,,,,,,,,,,,,,,,,,,,,,,,,,,,,,,,,,,,,,,,,,,,,,,,,,,
,,,,,,613c946a43af30711212b405,62c539931525d49b87c7922b,2022-07-06_09h29.31.383,Colour_Asymmetry_Pilot,2022.1.3,Win32,59.99880002,62c50e9c1127f2cd403a315f,0,93,93,139,1,twofour,,,,,,,,,,,,,,,,,,,,,,,,,,,,,,,,,,,,,,,,,,,,,,,,,,,,,,,,,,,,,,,,,,,,,,,,,,,,,,,,,,,,,,,,,,,,,,,,,,,,,,,,,,,,,,,,,,,,,,,,,,,,,,,,,,,,,,,,,,,,,,,,,,,,,,,,,,,,,
,,,,,,613c946a43af30711212b405,62c539931525d49b87c7922b,2022-07-06_09h29.31.383,Colour_Asymmetry_Pilot,2022.1.3,Win32,59.99880002,62c50e9c1127f2cd403a315f,0,94,94,72,1,onetwo,,,,,,,,,,,,,,,,,,,,,,,,,,,,,,,,,,,,,,,,,,,,,,,,,,,,,,,,,,,,,,,,,,,,,,,,,,,,,,,,,,,,,,,,,,,,,,,,,,,,,,,,,,,,,,,,,,,,,,,,,,,,,,,,,,,,,,,,,,,,,,,,,,,,,,,,,,,,,
,,,,,,613c946a43af30711212b405,62c539931525d49b87c7922b,2022-07-06_09h29.31.383,Colour_Asymmetry_Pilot,2022.1.3,Win32,59.99880002,62c50e9c1127f2cd403a315f,0,95,95,80,1,onetwo,,,,,,,,,,,,,,,,,,,,,,,,,,,,,,,,,,,,,,,,,,,,,,,,,,,,,,,,,,,,,,,,,,,,,,,,,,,,,,,,,,,,,,,,,,,,,,,,,,,,,,,,,,,,,,,,,,,,,,,,,,,,,,,,,,,,,,,,,,,,,,,,,,,,,,,,,,,,,
,,,,,,613c946a43af30711212b405,62c539931525d49b87c7922b,2022-07-06_09h29.31.383,Colour_Asymmetry_Pilot,2022.1.3,Win32,59.99880002,62c50e9c1127f2cd403a315f,0,96,96,8,1,onetwo,,,,,,,,,,,,,,,,,,,,,,,,,,,,,,,,,,,,,,,,,,,,,,,,,,,,,,,,,,,,,,,,,,,,,,,,,,,,,,,,,,,,,,,,,,,,,,,,,,,,,,,,,,,,,,,,,,,,,,,,,,,,,,,,,,,,,,,,,,,,,,,,,,,,,,,,,,,,,
,,,,,,613c946a43af30711212b405,62c539931525d49b87c7922b,2022-07-06_09h29.31.383,Colour_Asymmetry_Pilot,2022.1.3,Win32,59.99880002,62c50e9c1127f2cd403a315f,0,97,97,4,1,threeone,,,,,,,,,,,,,,,,,,,,,,,,,,,,,,,,,,,,,,,,,,,,,,,,,,,,,,,,,,,,,,,,,,,,,,,,,,,,,,,,,,,,,,,,,,,,,,,,,,,,,,,,,,,,,,,,,,,,,,,,,,,,,,,,,,,,,,,,,,,,,,,,,,,,,,,,,,,,,
,,,,,,613c946a43af30711212b405,62c539931525d49b87c7922b,2022-07-06_09h29.31.383,Colour_Asymmetry_Pilot,2022.1.3,Win32,59.99880002,62c50e9c1127f2cd403a315f,0,98,98,148,1,threeone,,,,,,,,,,,,,,,,,,,,,,,,,,,,,,,,,,,,,,,,,,,,,,,,,,,,,,,,,,,,,,,,,,,,,,,,,,,,,,,,,,,,,,,,,,,,,,,,,,,,,,,,,,,,,,,,,,,,,,,,,,,,,,,,,,,,,,,,,,,,,,,,,,,,,,,,,,,,,
,,,,,,613c946a43af30711212b405,62c539931525d49b87c7922b,2022-07-06_09h29.31.383,Colour_Asymmetry_Pilot,2022.1.3,Win32,59.99880002,62c50e9c1127f2cd403a315f,0,99,99,57,1,onethree,,,,,,,,,,,,,,,,,,,,,,,,,,,,,,,,,,,,,,,,,,,,,,,,,,,,,,,,,,,,,,,,,,,,,,,,,,,,,,,,,,,,,,,,,,,,,,,,,,,,,,,,,,,,,,,,,,,,,,,,,,,,,,,,,,,,,,,,,,,,,,,,,,,,,,,,,,,,,
,,,,,,613c946a43af30711212b405,62c539931525d49b87c7922b,2022-07-06_09h29.31.383,Colour_Asymmetry_Pilot,2022.1.3,Win32,59.99880002,62c50e9c1127f2cd403a315f,0,100,100,6,1,fourtwo,,,,,,,,,,,,,,,,,,,,,,,,,,,,,,,,,,,,,,,,,,,,,,,,,,,,,,,,,,,,,,,,,,,,,,,,,,,,,,,,,,,,,,,,,,,,,,,,,,,,,,,,,,,,,,,,,,,,,,,,,,,,,,,,,,,,,,,,,,,,,,,,,,,,,,,,,,,,,
,,,,,,613c946a43af30711212b405,62c539931525d49b87c7922b,2022-07-06_09h29.31.383,Colour_Asymmetry_Pilot,2022.1.3,Win32,59.99880002,62c50e9c1127f2cd403a315f,0,101,101,32,1,onetwo,,,,,,,,,,,,,,,,,,,,,,,,,,,,,,,,,,,,,,,,,,,,,,,,,,,,,,,,,,,,,,,,,,,,,,,,,,,,,,,,,,,,,,,,,,,,,,,,,,,,,,,,,,,,,,,,,,,,,,,,,,,,,,,,,,,,,,,,,,,,,,,,,,,,,,,,,,,,,
,,,,,,613c946a43af30711212b405,62c539931525d49b87c7922b,2022-07-06_09h29.31.383,Colour_Asymmetry_Pilot,2022.1.3,Win32,59.99880002,62c50e9c1127f2cd403a315f,0,102,102,1,1,onethree,,,,,,,,,,,,,,,,,,,,,,,,,,,,,,,,,,,,,,,,,,,,,,,,,,,,,,,,,,,,,,,,,,,,,,,,,,,,,,,,,,,,,,,,,,,,,,,,,,,,,,,,,,,,,,,,,,,,,,,,,,,,,,,,,,,,,,,,,,,,,,,,,,,,,,,,,,,,,
,,,,,,613c946a43af30711212b405,62c539931525d49b87c7922b,2022-07-06_09h29.31.383,Colour_Asymmetry_Pilot,2022.1.3,Win32,59.99880002,62c50e9c1127f2cd403a315f,0,103,103,118,1,fourtwo,,,,,,,,,,,,,,,,,,,,,,,,,,,,,,,,,,,,,,,,,,,,,,,,,,,,,,,,,,,,,,,,,,,,,,,,,,,,,,,,,,,,,,,,,,,,,,,,,,,,,,,,,,,,,,,,,,,,,,,,,,,,,,,,,,,,,,,,,,,,,,,,,,,,,,,,,,,,,
,,,,,,613c946a43af30711212b405,62c539931525d49b87c7922b,2022-07-06_09h29.31.383,Colour_Asymmetry_Pilot,2022.1.3,Win32,59.99880002,62c50e9c1127f2cd403a315f,0,104,104,5,1,threefour,,,,,,,,,,,,,,,,,,,,,,,,,,,,,,,,,,,,,,,,,,,,,,,,,,,,,,,,,,,,,,,,,,,,,,,,,,,,,,,,,,,,,,,,,,,,,,,,,,,,,,,,,,,,,,,,,,,,,,,,,,,,,,,,,,,,,,,,,,,,,,,,,,,,,,,,,,,,,
,,,,,,613c946a43af30711212b405,62c539931525d49b87c7922b,2022-07-06_09h29.31.383,Colour_Asymmetry_Pilot,2022.1.3,Win32,59.99880002,62c50e9c1127f2cd403a315f,0,105,105,18,1,twoone,,,,,,,,,,,,,,,,,,,,,,,,,,,,,,,,,,,,,,,,,,,,,,,,,,,,,,,,,,,,,,,,,,,,,,,,,,,,,,,,,,,,,,,,,,,,,,,,,,,,,,,,,,,,,,,,,,,,,,,,,,,,,,,,,,,,,,,,,,,,,,,,,,,,,,,,,,,,,
,,,,,,613c946a43af30711212b405,62c539931525d49b87c7922b,2022-07-06_09h29.31.383,Colour_Asymmetry_Pilot,2022.1.3,Win32,59.99880002,62c50e9c1127f2cd403a315f,0,106,106,122,1,twoone,,,,,,,,,,,,,,,,,,,,,,,,,,,,,,,,,,,,,,,,,,,,,,,,,,,,,,,,,,,,,,,,,,,,,,,,,,,,,,,,,,,,,,,,,,,,,,,,,,,,,,,,,,,,,,,,,,,,,,,,,,,,,,,,,,,,,,,,,,,,,,,,,,,,,,,,,,,,,
,,,,,,613c946a43af30711212b405,62c539931525d49b87c7922b,2022-07-06_09h29.31.383,Colour_Asymmetry_Pilot,2022.1.3,Win32,59.99880002,62c50e9c1127f2cd403a315f,0,107,107,155,1,twofour,,,,,,,,,,,,,,,,,,,,,,,,,,,,,,,,,,,,,,,,,,,,,,,,,,,,,,,,,,,,,,,,,,,,,,,,,,,,,,,,,,,,,,,,,,,,,,,,,,,,,,,,,,,,,,,,,,,,,,,,,,,,,,,,,,,,,,,,,,,,,,,,,,,,,,,,,,,,,
,,,,,,613c946a43af30711212b405,62c539931525d49b87c7922b,2022-07-06_09h29.31.383,Colour_Asymmetry_Pilot,2022.1.3,Win32,59.99880002,62c50e9c1127f2cd403a315f,0,108,108,19,1,twofour,,,,,,,,,,,,,,,,,,,,,,,,,,,,,,,,,,,,,,,,,,,,,,,,,,,,,,,,,,,,,,,,,,,,,,,,,,,,,,,,,,,,,,,,,,,,,,,,,,,,,,,,,,,,,,,,,,,,,,,,,,,,,,,,,,,,,,,,,,,,,,,,,,,,,,,,,,,,,
,,,,,,613c946a43af30711212b405,62c539931525d49b87c7922b,2022-07-06_09h29.31.383,Colour_Asymmetry_Pilot,2022.1.3,Win32,59.99880002,62c50e9c1127f2cd403a315f,0,109,109,30,1,fourtwo,,,,,,,,,,,,,,,,,,,,,,,,,,,,,,,,,,,,,,,,,,,,,,,,,,,,,,,,,,,,,,,,,,,,,,,,,,,,,,,,,,,,,,,,,,,,,,,,,,,,,,,,,,,,,,,,,,,,,,,,,,,,,,,,,,,,,,,,,,,,,,,,,,,,,,,,,,,,,
,,,,,,613c946a43af30711212b405,62c539931525d49b87c7922b,2022-07-06_09h29.31.383,Colour_Asymmetry_Pilot,2022.1.3,Win32,59.99880002,62c50e9c1127f2cd403a315f,0,110,110,7,1,fourthree,,,,,,,,,,,,,,,,,,,,,,,,,,,,,,,,,,,,,,,,,,,,,,,,,,,,,,,,,,,,,,,,,,,,,,,,,,,,,,,,,,,,,,,,,,,,,,,,,,,,,,,,,,,,,,,,,,,,,,,,,,,,,,,,,,,,,,,,,,,,,,,,,,,,,,,,,,,,,
,,,,,,613c946a43af30711212b405,62c539931525d49b87c7922b,2022-07-06_09h29.31.383,Colour_Asymmetry_Pilot,2022.1.3,Win32,59.99880002,62c50e9c1127f2cd403a315f,0,111,111,45,1,threefour,,,,,,,,,,,,,,,,,,,,,,,,,,,,,,,,,,,,,,,,,,,,,,,,,,,,,,,,,,,,,,,,,,,,,,,,,,,,,,,,,,,,,,,,,,,,,,,,,,,,,,,,,,,,,,,,,,,,,,,,,,,,,,,,,,,,,,,,,,,,,,,,,,,,,,,,,,,,,
,,,,,,613c946a43af30711212b405,62c539931525d49b87c7922b,2022-07-06_09h29.31.383,Colour_Asymmetry_Pilot,2022.1.3,Win32,59.99880002,62c50e9c1127f2cd403a315f,0,112,112,66,1,twoone,,,,,,,,,,,,,,,,,,,,,,,,,,,,,,,,,,,,,,,,,,,,,,,,,,,,,,,,,,,,,,,,,,,,,,,,,,,,,,,,,,,,,,,,,,,,,,,,,,,,,,,,,,,,,,,,,,,,,,,,,,,,,,,,,,,,,,,,,,,,,,,,,,,,,,,,,,,,,
,,,,,,613c946a43af30711212b405,62c539931525d49b87c7922b,2022-07-06_09h29.31.383,Colour_Asymmetry_Pilot,2022.1.3,Win32,59.99880002,62c50e9c1127f2cd403a315f,0,113,113,75,1,twofour,,,,,,,,,,,,,,,,,,,,,,,,,,,,,,,,,,,,,,,,,,,,,,,,,,,,,,,,,,,,,,,,,,,,,,,,,,,,,,,,,,,,,,,,,,,,,,,,,,,,,,,,,,,,,,,,,,,,,,,,,,,,,,,,,,,,,,,,,,,,,,,,,,,,,,,,,,,,,
,,,,,,613c946a43af30711212b405,62c539931525d49b87c7922b,2022-07-06_09h29.31.383,Colour_Asymmetry_Pilot,2022.1.3,Win32,59.99880002,62c50e9c1127f2cd403a315f,0,114,114,11,1,twofour,,,,,,,,,,,,,,,,,,,,,,,,,,,,,,,,,,,,,,,,,,,,,,,,,,,,,,,,,,,,,,,,,,,,,,,,,,,,,,,,,,,,,,,,,,,,,,,,,,,,,,,,,,,,,,,,,,,,,,,,,,,,,,,,,,,,,,,,,,,,,,,,,,,,,,,,,,,,,
,,,,,,613c946a43af30711212b405,62c539931525d49b87c7922b,2022-07-06_09h29.31.383,Colour_Asymmetry_Pilot,2022.1.3,Win32,59.99880002,62c50e9c1127f2cd403a315f,0,115,115,51,1,twofour,,,,,,,,,,,,,,,,,,,,,,,,,,,,,,,,,,,,,,,,,,,,,,,,,,,,,,,,,,,,,,,,,,,,,,,,,,,,,,,,,,,,,,,,,,,,,,,,,,,,,,,,,,,,,,,,,,,,,,,,,,,,,,,,,,,,,,,,,,,,,,,,,,,,,,,,,,,,,
,,,,,,613c946a43af30711212b405,62c539931525d49b87c7922b,2022-07-06_09h29.31.383,Colour_Asymmetry_Pilot,2022.1.3,Win32,59.99880002,62c50e9c1127f2cd403a315f,0,116,116,87,1,fourthree,,,,,,,,,,,,,,,,,,,,,,,,,,,,,,,,,,,,,,,,,,,,,,,,,,,,,,,,,,,,,,,,,,,,,,,,,,,,,,,,,,,,,,,,,,,,,,,,,,,,,,,,,,,,,,,,,,,,,,,,,,,,,,,,,,,,,,,,,,,,,,,,,,,,,,,,,,,,,
,,,,,,613c946a43af30711212b405,62c539931525d49b87c7922b,2022-07-06_09h29.31.383,Colour_Asymmetry_Pilot,2022.1.3,Win32,59.99880002,62c50e9c1127f2cd403a315f,0,117,117,124,1,threeone,,,,,,,,,,,,,,,,,,,,,,,,,,,,,,,,,,,,,,,,,,,,,,,,,,,,,,,,,,,,,,,,,,,,,,,,,,,,,,,,,,,,,,,,,,,,,,,,,,,,,,,,,,,,,,,,,,,,,,,,,,,,,,,,,,,,,,,,,,,,,,,,,,,,,,,,,,,,,
,,,,,,613c946a43af30711212b405,62c539931525d49b87c7922b,2022-07-06_09h29.31.383,Colour_Asymmetry_Pilot,2022.1.3,Win32,59.99880002,62c50e9c1127f2cd403a315f,0,118,118,54,1,fourtwo,,,,,,,,,,,,,,,,,,,,,,,,,,,,,,,,,,,,,,,,,,,,,,,,,,,,,,,,,,,,,,,,,,,,,,,,,,,,,,,,,,,,,,,,,,,,,,,,,,,,,,,,,,,,,,,,,,,,,,,,,,,,,,,,,,,,,,,,,,,,,,,,,,,,,,,,,,,,,
,,,,,,613c946a43af30711212b405,62c539931525d49b87c7922b,2022-07-06_09h29.31.383,Colour_Asymmetry_Pilot,2022.1.3,Win32,59.99880002,62c50e9c1127f2cd403a315f,0,119,119,132,1,threeone,,,,,,,,,,,,,,,,,,,,,,,,,,,,,,,,,,,,,,,,,,,,,,,,,,,,,,,,,,,,,,,,,,,,,,,,,,,,,,,,,,,,,,,,,,,,,,,,,,,,,,,,,,,,,,,,,,,,,,,,,,,,,,,,,,,,,,,,,,,,,,,,,,,,,,,,,,,,,
,,,,,,613c946a43af30711212b405,62c539931525d49b87c7922b,2022-07-06_09h29.31.383,Colour_Asymmetry_Pilot,2022.1.3,Win32,59.99880002,62c50e9c1127f2cd403a315f,0,120,120,39,1,fourthree,,,,,,,,,,,,,,,,,,,,,,,,,,,,,,,,,,,,,,,,,,,,,,,,,,,,,,,,,,,,,,,,,,,,,,,,,,,,,,,,,,,,,,,,,,,,,,,,,,,,,,,,,,,,,,,,,,,,,,,,,,,,,,,,,,,,,,,,,,,,,,,,,,,,,,,,,,,,,
,,,,,,613c946a43af30711212b405,62c539931525d49b87c7922b,2022-07-06_09h29.31.383,Colour_Asymmetry_Pilot,2022.1.3,Win32,59.99880002,62c50e9c1127f2cd403a315f,0,121,121,91,1,twofour,,,,,,,,,,,,,,,,,,,,,,,,,,,,,,,,,,,,,,,,,,,,,,,,,,,,,,,,,,,,,,,,,,,,,,,,,,,,,,,,,,,,,,,,,,,,,,,,,,,,,,,,,,,,,,,,,,,,,,,,,,,,,,,,,,,,,,,,,,,,,,,,,,,,,,,,,,,,,
,,,,,,613c946a43af30711212b405,62c539931525d49b87c7922b,2022-07-06_09h29.31.383,Colour_Asymmetry_Pilot,2022.1.3,Win32,59.99880002,62c50e9c1127f2cd403a315f,0,122,122,61,1,threefour,,,,,,,,,,,,,,,,,,,,,,,,,,,,,,,,,,,,,,,,,,,,,,,,,,,,,,,,,,,,,,,,,,,,,,,,,,,,,,,,,,,,,,,,,,,,,,,,,,,,,,,,,,,,,,,,,,,,,,,,,,,,,,,,,,,,,,,,,,,,,,,,,,,,,,,,,,,,,
,,,,,,613c946a43af30711212b405,62c539931525d49b87c7922b,2022-07-06_09h29.31.383,Colour_Asymmetry_Pilot,2022.1.3,Win32,59.99880002,62c50e9c1127f2cd403a315f,0,123,123,38,1,fourtwo,,,,,,,,,,,,,,,,,,,,,,,,,,,,,,,,,,,,,,,,,,,,,,,,,,,,,,,,,,,,,,,,,,,,,,,,,,,,,,,,,,,,,,,,,,,,,,,,,,,,,,,,,,,,,,,,,,,,,,,,,,,,,,,,,,,,,,,,,,,,,,,,,,,,,,,,,,,,,
,,,,,,613c946a43af30711212b405,62c539931525d49b87c7922b,2022-07-06_09h29.31.383,Colour_Asymmetry_Pilot,2022.1.3,Win32,59.99880002,62c50e9c1127f2cd403a315f,0,124,124,141,1,threefour,,,,,,,,,,,,,,,,,,,,,,,,,,,,,,,,,,,,,,,,,,,,,,,,,,,,,,,,,,,,,,,,,,,,,,,,,,,,,,,,,,,,,,,,,,,,,,,,,,,,,,,,,,,,,,,,,,,,,,,,,,,,,,,,,,,,,,,,,,,,,,,,,,,,,,,,,,,,,
,,,,,,613c946a43af30711212b405,62c539931525d49b87c7922b,2022-07-06_09h29.31.383,Colour_Asymmetry_Pilot,2022.1.3,Win32,59.99880002,62c50e9c1127f2cd403a315f,0,125,125,41,1,onethree,,,,,,,,,,,,,,,,,,,,,,,,,,,,,,,,,,,,,,,,,,,,,,,,,,,,,,,,,,,,,,,,,,,,,,,,,,,,,,,,,,,,,,,,,,,,,,,,,,,,,,,,,,,,,,,,,,,,,,,,,,,,,,,,,,,,,,,,,,,,,,,,,,,,,,,,,,,,,
,,,,,,613c946a43af30711212b405,62c539931525d49b87c7922b,2022-07-06_09h29.31.383,Colour_Asymmetry_Pilot,2022.1.3,Win32,59.99880002,62c50e9c1127f2cd403a315f,0,126,126,70,1,fourtwo,,,,,,,,,,,,,,,,,,,,,,,,,,,,,,,,,,,,,,,,,,,,,,,,,,,,,,,,,,,,,,,,,,,,,,,,,,,,,,,,,,,,,,,,,,,,,,,,,,,,,,,,,,,,,,,,,,,,,,,,,,,,,,,,,,,,,,,,,,,,,,,,,,,,,,,,,,,,,
,,,,,,613c946a43af30711212b405,62c539931525d49b87c7922b,2022-07-06_09h29.31.383,Colour_Asymmetry_Pilot,2022.1.3,Win32,59.99880002,62c50e9c1127f2cd403a315f,0,127,127,128,1,onetwo,,,,,,,,,,,,,,,,,,,,,,,,,,,,,,,,,,,,,,,,,,,,,,,,,,,,,,,,,,,,,,,,,,,,,,,,,,,,,,,,,,,,,,,,,,,,,,,,,,,,,,,,,,,,,,,,,,,,,,,,,,,,,,,,,,,,,,,,,,,,,,,,,,,,,,,,,,,,,
,,,,,,613c946a43af30711212b405,62c539931525d49b87c7922b,2022-07-06_09h29.31.383,Colour_Asymmetry_Pilot,2022.1.3,Win32,59.99880002,62c50e9c1127f2cd403a315f,0,128,128,81,1,onethree,,,,,,,,,,,,,,,,,,,,,,,,,,,,,,,,,,,,,,,,,,,,,,,,,,,,,,,,,,,,,,,,,,,,,,,,,,,,,,,,,,,,,,,,,,,,,,,,,,,,,,,,,,,,,,,,,,,,,,,,,,,,,,,,,,,,,,,,,,,,,,,,,,,,,,,,,,,,,
,,,,,,613c946a43af30711212b405,62c539931525d49b87c7922b,2022-07-06_09h29.31.383,Colour_Asymmetry_Pilot,2022.1.3,Win32,59.99880002,62c50e9c1127f2cd403a315f,0,129,129,64,1,onetwo,,,,,,,,,,,,,,,,,,,,,,,,,,,,,,,,,,,,,,,,,,,,,,,,,,,,,,,,,,,,,,,,,,,,,,,,,,,,,,,,,,,,,,,,,,,,,,,,,,,,,,,,,,,,,,,,,,,,,,,,,,,,,,,,,,,,,,,,,,,,,,,,,,,,,,,,,,,,,
,,,,,,613c946a43af30711212b405,62c539931525d49b87c7922b,2022-07-06_09h29.31.383,Colour_Asymmetry_Pilot,2022.1.3,Win32,59.99880002,62c50e9c1127f2cd403a315f,0,130,130,135,1,fourthree,,,,,,,,,,,,,,,,,,,,,,,,,,,,,,,,,,,,,,,,,,,,,,,,,,,,,,,,,,,,,,,,,,,,,,,,,,,,,,,,,,,,,,,,,,,,,,,,,,,,,,,,,,,,,,,,,,,,,,,,,,,,,,,,,,,,,,,,,,,,,,,,,,,,,,,,,,,,,
,,,,,,613c946a43af30711212b405,62c539931525d49b87c7922b,2022-07-06_09h29.31.383,Colour_Asymmetry_Pilot,2022.1.3,Win32,59.99880002,62c50e9c1127f2cd403a315f,0,131,131,158,1,fourtwo,,,,,,,,,,,,,,,,,,,,,,,,,,,,,,,,,,,,,,,,,,,,,,,,,,,,,,,,,,,,,,,,,,,,,,,,,,,,,,,,,,,,,,,,,,,,,,,,,,,,,,,,,,,,,,,,,,,,,,,,,,,,,,,,,,,,,,,,,,,,,,,,,,,,,,,,,,,,,
,,,,,,613c946a43af30711212b405,62c539931525d49b87c7922b,2022-07-06_09h29.31.383,Colour_Asymmetry_Pilot,2022.1.3,Win32,59.99880002,62c50e9c1127f2cd403a315f,0,132,132,99,1,twofour,,,,,,,,,,,,,,,,,,,,,,,,,,,,,,,,,,,,,,,,,,,,,,,,,,,,,,,,,,,,,,,,,,,,,,,,,,,,,,,,,,,,,,,,,,,,,,,,,,,,,,,,,,,,,,,,,,,,,,,,,,,,,,,,,,,,,,,,,,,,,,,,,,,,,,,,,,,,,
,,,,,,613c946a43af30711212b405,62c539931525d49b87c7922b,2022-07-06_09h29.31.383,Colour_Asymmetry_Pilot,2022.1.3,Win32,59.99880002,62c50e9c1127f2cd403a315f,0,133,133,113,1,onethree,,,,,,,,,,,,,,,,,,,,,,,,,,,,,,,,,,,,,,,,,,,,,,,,,,,,,,,,,,,,,,,,,,,,,,,,,,,,,,,,,,,,,,,,,,,,,,,,,,,,,,,,,,,,,,,,,,,,,,,,,,,,,,,,,,,,,,,,,,,,,,,,,,,,,,,,,,,,,
,,,,,,613c946a43af30711212b405,62c539931525d49b87c7922b,2022-07-06_09h29.31.383,Colour_Asymmetry_Pilot,2022.1.3,Win32,59.99880002,62c50e9c1127f2cd403a315f,0,134,134,115,1,twofour,,,,,,,,,,,,,,,,,,,,,,,,,,,,,,,,,,,,,,,,,,,,,,,,,,,,,,,,,,,,,,,,,,,,,,,,,,,,,,,,,,,,,,,,,,,,,,,,,,,,,,,,,,,,,,,,,,,,,,,,,,,,,,,,,,,,,,,,,,,,,,,,,,,,,,,,,,,,,
,,,,,,613c946a43af30711212b405,62c539931525d49b87c7922b,2022-07-06_09h29.31.383,Colour_Asymmetry_Pilot,2022.1.3,Win32,59.99880002,62c50e9c1127f2cd403a315f,0,135,135,37,1,threefour,,,,,,,,,,,,,,,,,,,,,,,,,,,,,,,,,,,,,,,,,,,,,,,,,,,,,,,,,,,,,,,,,,,,,,,,,,,,,,,,,,,,,,,,,,,,,,,,,,,,,,,,,,,,,,,,,,,,,,,,,,,,,,,,,,,,,,,,,,,,,,,,,,,,,,,,,,,,,
,,,,,,613c946a43af30711212b405,62c539931525d49b87c7922b,2022-07-06_09h29.31.383,Colour_Asymmetry_Pilot,2022.1.3,Win32,59.99880002,62c50e9c1127f2cd403a315f,0,136,136,69,1,threefour,,,,,,,,,,,,,,,,,,,,,,,,,,,,,,,,,,,,,,,,,,,,,,,,,,,,,,,,,,,,,,,,,,,,,,,,,,,,,,,,,,,,,,,,,,,,,,,,,,,,,,,,,,,,,,,,,,,,,,,,,,,,,,,,,,,,,,,,,,,,,,,,,,,,,,,,,,,,,
,,,,,,613c946a43af30711212b405,62c539931525d49b87c7922b,2022-07-06_09h29.31.383,Colour_Asymmetry_Pilot,2022.1.3,Win32,59.99880002,62c50e9c1127f2cd403a315f,0,137,137,40,1,onetwo,,,,,,,,,,,,,,,,,,,,,,,,,,,,,,,,,,,,,,,,,,,,,,,,,,,,,,,,,,,,,,,,,,,,,,,,,,,,,,,,,,,,,,,,,,,,,,,,,,,,,,,,,,,,,,,,,,,,,,,,,,,,,,,,,,,,,,,,,,,,,,,,,,,,,,,,,,,,,
,,,,,,613c946a43af30711212b405,62c539931525d49b87c7922b,2022-07-06_09h29.31.383,Colour_Asymmetry_Pilot,2022.1.3,Win32,59.99880002,62c50e9c1127f2cd403a315f,0,138,138,152,1,onetwo,,,,,,,,,,,,,,,,,,,,,,,,,,,,,,,,,,,,,,,,,,,,,,,,,,,,,,,,,,,,,,,,,,,,,,,,,,,,,,,,,,,,,,,,,,,,,,,,,,,,,,,,,,,,,,,,,,,,,,,,,,,,,,,,,,,,,,,,,,,,,,,,,,,,,,,,,,,,,
,,,,,,613c946a43af30711212b405,62c539931525d49b87c7922b,2022-07-06_09h29.31.383,Colour_Asymmetry_Pilot,2022.1.3,Win32,59.99880002,62c50e9c1127f2cd403a315f,0,139,139,89,1,onethree,,,,,,,,,,,,,,,,,,,,,,,,,,,,,,,,,,,,,,,,,,,,,,,,,,,,,,,,,,,,,,,,,,,,,,,,,,,,,,,,,,,,,,,,,,,,,,,,,,,,,,,,,,,,,,,,,,,,,,,,,,,,,,,,,,,,,,,,,,,,,,,,,,,,,,,,,,,,,
,,,,,,613c946a43af30711212b405,62c539931525d49b87c7922b,2022-07-06_09h29.31.383,Colour_Asymmetry_Pilot,2022.1.3,Win32,59.99880002,62c50e9c1127f2cd403a315f,0,140,140,160,1,onetwo,,,,,,,,,,,,,,,,,,,,,,,,,,,,,,,,,,,,,,,,,,,,,,,,,,,,,,,,,,,,,,,,,,,,,,,,,,,,,,,,,,,,,,,,,,,,,,,,,,,,,,,,,,,,,,,,,,,,,,,,,,,,,,,,,,,,,,,,,,,,,,,,,,,,,,,,,,,,,
,,,,,,613c946a43af30711212b405,62c539931525d49b87c7922b,2022-07-06_09h29.31.383,Colour_Asymmetry_Pilot,2022.1.3,Win32,59.99880002,62c50e9c1127f2cd403a315f,0,141,141,146,1,twoone,,,,,,,,,,,,,,,,,,,,,,,,,,,,,,,,,,,,,,,,,,,,,,,,,,,,,,,,,,,,,,,,,,,,,,,,,,,,,,,,,,,,,,,,,,,,,,,,,,,,,,,,,,,,,,,,,,,,,,,,,,,,,,,,,,,,,,,,,,,,,,,,,,,,,,,,,,,,,
,,,,,,613c946a43af30711212b405,62c539931525d49b87c7922b,2022-07-06_09h29.31.383,Colour_Asymmetry_Pilot,2022.1.3,Win32,59.99880002,62c50e9c1127f2cd403a315f,0,142,142,119,1,fourthree,,,,,,,,,,,,,,,,,,,,,,,,,,,,,,,,,,,,,,,,,,,,,,,,,,,,,,,,,,,,,,,,,,,,,,,,,,,,,,,,,,,,,,,,,,,,,,,,,,,,,,,,,,,,,,,,,,,,,,,,,,,,,,,,,,,,,,,,,,,,,,,,,,,,,,,,,,,,,
,,,,,,613c946a43af30711212b405,62c539931525d49b87c7922b,2022-07-06_09h29.31.383,Colour_Asymmetry_Pilot,2022.1.3,Win32,59.99880002,62c50e9c1127f2cd403a315f,0,143,143,10,1,twoone,,,,,,,,,,,,,,,,,,,,,,,,,,,,,,,,,,,,,,,,,,,,,,,,,,,,,,,,,,,,,,,,,,,,,,,,,,,,,,,,,,,,,,,,,,,,,,,,,,,,,,,,,,,,,,,,,,,,,,,,,,,,,,,,,,,,,,,,,,,,,,,,,,,,,,,,,,,,,
,,,,,,613c946a43af30711212b405,62c539931525d49b87c7922b,2022-07-06_09h29.31.383,Colour_Asymmetry_Pilot,2022.1.3,Win32,59.99880002,62c50e9c1127f2cd403a315f,0,144,144,34,1,twoone,,,,,,,,,,,,,,,,,,,,,,,,,,,,,,,,,,,,,,,,,,,,,,,,,,,,,,,,,,,,,,,,,,,,,,,,,,,,,,,,,,,,,,,,,,,,,,,,,,,,,,,,,,,,,,,,,,,,,,,,,,,,,,,,,,,,,,,,,,,,,,,,,,,,,,,,,,,,,
,,,,,,613c946a43af30711212b405,62c539931525d49b87c7922b,2022-07-06_09h29.31.383,Colour_Asymmetry_Pilot,2022.1.3,Win32,59.99880002,62c50e9c1127f2cd403a315f,0,145,145,77,1,threefour,,,,,,,,,,,,,,,,,,,,,,,,,,,,,,,,,,,,,,,,,,,,,,,,,,,,,,,,,,,,,,,,,,,,,,,,,,,,,,,,,,,,,,,,,,,,,,,,,,,,,,,,,,,,,,,,,,,,,,,,,,,,,,,,,,,,,,,,,,,,,,,,,,,,,,,,,,,,,
,,,,,,613c946a43af30711212b405,62c539931525d49b87c7922b,2022-07-06_09h29.31.383,Colour_Asymmetry_Pilot,2022.1.3,Win32,59.99880002,62c50e9c1127f2cd403a315f,0,146,146,108,1,threeone,,,,,,,,,,,,,,,,,,,,,,,,,,,,,,,,,,,,,,,,,,,,,,,,,,,,,,,,,,,,,,,,,,,,,,,,,,,,,,,,,,,,,,,,,,,,,,,,,,,,,,,,,,,,,,,,,,,,,,,,,,,,,,,,,,,,,,,,,,,,,,,,,,,,,,,,,,,,,
,,,,,,613c946a43af30711212b405,62c539931525d49b87c7922b,2022-07-06_09h29.31.383,Colour_Asymmetry_Pilot,2022.1.3,Win32,59.99880002,62c50e9c1127f2cd403a315f,0,147,147,106,1,twoone,,,,,,,,,,,,,,,,,,,,,,,,,,,,,,,,,,,,,,,,,,,,,,,,,,,,,,,,,,,,,,,,,,,,,,,,,,,,,,,,,,,,,,,,,,,,,,,,,,,,,,,,,,,,,,,,,,,,,,,,,,,,,,,,,,,,,,,,,,,,,,,,,,,,,,,,,,,,,
,,,,,,613c946a43af30711212b405,62c539931525d49b87c7922b,2022-07-06_09h29.31.383,Colour_Asymmetry_Pilot,2022.1.3,Win32,59.99880002,62c50e9c1127f2cd403a315f,0,148,148,100,1,threeone,,,,,,,,,,,,,,,,,,,,,,,,,,,,,,,,,,,,,,,,,,,,,,,,,,,,,,,,,,,,,,,,,,,,,,,,,,,,,,,,,,,,,,,,,,,,,,,,,,,,,,,,,,,,,,,,,,,,,,,,,,,,,,,,,,,,,,,,,,,,,,,,,,,,,,,,,,,,,
,,,,,,613c946a43af30711212b405,62c539931525d49b87c7922b,2022-07-06_09h29.31.383,Colour_Asymmetry_Pilot,2022.1.3,Win32,59.99880002,62c50e9c1127f2cd403a315f,0,149,149,68,1,threeone,,,,,,,,,,,,,,,,,,,,,,,,,,,,,,,,,,,,,,,,,,,,,,,,,,,,,,,,,,,,,,,,,,,,,,,,,,,,,,,,,,,,,,,,,,,,,,,,,,,,,,,,,,,,,,,,,,,,,,,,,,,,,,,,,,,,,,,,,,,,,,,,,,,,,,,,,,,,,
,,,,,,613c946a43af30711212b405,62c539931525d49b87c7922b,2022-07-06_09h29.31.383,Colour_Asymmetry_Pilot,2022.1.3,Win32,59.99880002,62c50e9c1127f2cd403a315f,0,150,150,58,1,twoone,,,,,,,,,,,,,,,,,,,,,,,,,,,,,,,,,,,,,,,,,,,,,,,,,,,,,,,,,,,,,,,,,,,,,,,,,,,,,,,,,,,,,,,,,,,,,,,,,,,,,,,,,,,,,,,,,,,,,,,,,,,,,,,,,,,,,,,,,,,,,,,,,,,,,,,,,,,,,
,,,,,,613c946a43af30711212b405,62c539931525d49b87c7922b,2022-07-06_09h29.31.383,Colour_Asymmetry_Pilot,2022.1.3,Win32,59.99880002,62c50e9c1127f2cd403a315f,0,151,151,103,1,fourthree,,,,,,,,,,,,,,,,,,,,,,,,,,,,,,,,,,,,,,,,,,,,,,,,,,,,,,,,,,,,,,,,,,,,,,,,,,,,,,,,,,,,,,,,,,,,,,,,,,,,,,,,,,,,,,,,,,,,,,,,,,,,,,,,,,,,,,,,,,,,,,,,,,,,,,,,,,,,,
,,,,,,613c946a43af30711212b405,62c539931525d49b87c7922b,2022-07-06_09h29.31.383,Colour_Asymmetry_Pilot,2022.1.3,Win32,59.99880002,62c50e9c1127f2cd403a315f,0,152,152,126,1,fourtwo,,,,,,,,,,,,,,,,,,,,,,,,,,,,,,,,,,,,,,,,,,,,,,,,,,,,,,,,,,,,,,,,,,,,,,,,,,,,,,,,,,,,,,,,,,,,,,,,,,,,,,,,,,,,,,,,,,,,,,,,,,,,,,,,,,,,,,,,,,,,,,,,,,,,,,,,,,,,,
,,,,,,613c946a43af30711212b405,62c539931525d49b87c7922b,2022-07-06_09h29.31.383,Colour_Asymmetry_Pilot,2022.1.3,Win32,59.99880002,62c50e9c1127f2cd403a315f,0,153,153,76,1,threeone,,,,,,,,,,,,,,,,,,,,,,,,,,,,,,,,,,,,,,,,,,,,,,,,,,,,,,,,,,,,,,,,,,,,,,,,,,,,,,,,,,,,,,,,,,,,,,,,,,,,,,,,,,,,,,,,,,,,,,,,,,,,,,,,,,,,,,,,,,,,,,,,,,,,,,,,,,,,,
,,,,,,613c946a43af30711212b405,62c539931525d49b87c7922b,2022-07-06_09h29.31.383,Colour_Asymmetry_Pilot,2022.1.3,Win32,59.99880002,62c50e9c1127f2cd403a315f,0,154,154,2,1,twoone,,,,,,,,,,,,,,,,,,,,,,,,,,,,,,,,,,,,,,,,,,,,,,,,,,,,,,,,,,,,,,,,,,,,,,,,,,,,,,,,,,,,,,,,,,,,,,,,,,,,,,,,,,,,,,,,,,,,,,,,,,,,,,,,,,,,,,,,,,,,,,,,,,,,,,,,,,,,,
,,,,,,613c946a43af30711212b405,62c539931525d49b87c7922b,2022-07-06_09h29.31.383,Colour_Asymmetry_Pilot,2022.1.3,Win32,59.99880002,62c50e9c1127f2cd403a315f,0,155,155,121,1,onethree,,,,,,,,,,,,,,,,,,,,,,,,,,,,,,,,,,,,,,,,,,,,,,,,,,,,,,,,,,,,,,,,,,,,,,,,,,,,,,,,,,,,,,,,,,,,,,,,,,,,,,,,,,,,,,,,,,,,,,,,,,,,,,,,,,,,,,,,,,,,,,,,,,,,,,,,,,,,,
,,,,,,613c946a43af30711212b405,62c539931525d49b87c7922b,2022-07-06_09h29.31.383,Colour_Asymmetry_Pilot,2022.1.3,Win32,59.99880002,62c50e9c1127f2cd403a315f,0,156,156,35,1,twofour,,,,,,,,,,,,,,,,,,,,,,,,,,,,,,,,,,,,,,,,,,,,,,,,,,,,,,,,,,,,,,,,,,,,,,,,,,,,,,,,,,,,,,,,,,,,,,,,,,,,,,,,,,,,,,,,,,,,,,,,,,,,,,,,,,,,,,,,,,,,,,,,,,,,,,,,,,,,,
,,,,,,613c946a43af30711212b405,62c539931525d49b87c7922b,2022-07-06_09h29.31.383,Colour_Asymmetry_Pilot,2022.1.3,Win32,59.99880002,62c50e9c1127f2cd403a315f,0,157,157,55,1,fourthree,,,,,,,,,,,,,,,,,,,,,,,,,,,,,,,,,,,,,,,,,,,,,,,,,,,,,,,,,,,,,,,,,,,,,,,,,,,,,,,,,,,,,,,,,,,,,,,,,,,,,,,,,,,,,,,,,,,,,,,,,,,,,,,,,,,,,,,,,,,,,,,,,,,,,,,,,,,,,
,,,,,,613c946a43af30711212b405,62c539931525d49b87c7922b,2022-07-06_09h29.31.383,Colour_Asymmetry_Pilot,2022.1.3,Win32,59.99880002,62c50e9c1127f2cd403a315f,0,158,158,112,1,onetwo,,,,,,,,,,,,,,,,,,,,,,,,,,,,,,,,,,,,,,,,,,,,,,,,,,,,,,,,,,,,,,,,,,,,,,,,,,,,,,,,,,,,,,,,,,,,,,,,,,,,,,,,,,,,,,,,,,,,,,,,,,,,,,,,,,,,,,,,,,,,,,,,,,,,,,,,,,,,,
,,,,,,613c946a43af30711212b405,62c539931525d49b87c7922b,2022-07-06_09h29.31.383,Colour_Asymmetry_Pilot,2022.1.3,Win32,59.99880002,62c50e9c1127f2cd403a315f,0,159,159,74,1,twoone,,,,,,,,,,,,,,,,,,,,,,,,,,,,,,,,,,,,,,,,,,,,,,,,,,,,,,,,,,,,,,,,,,,,,,,,,,,,,,,,,,,,,,,,,,,,,,,,,,,,,,,,,,,,,,,,,,,,,,,,,,,,,,,,,,,,,,,,,,,,,,,,,,,,,,,,,,,,,
,,,,,,613c946a43af30711212b405,62c539931525d49b87c7922b,2022-07-06_09h29.31.383,Colour_Asymmetry_Pilot,2022.1.3,Win32,59.99880002,62c50e9c1127f2cd403a315f,0,160,160,109,1,threefour,,,,,,,,,,,,,,,,,,,,,,,,,,,,,,,,,,,,,,,,,,,,,,,,,,,,,,,,,,,,,,,,,,,,,,,,,,,,,,,,,,,,,,,,,,,,,,,,,,,,,,,,,,,,,,,,,,,,,,,,,,,,,,,,,,,,,,,,,,,,,,,,,,,,,,,,,,,,,
,,,,,,613c946a43af30711212b405,62c539931525d49b87c7922b,2022-07-06_09h29.31.383,Colour_Asymmetry_Pilot,2022.1.3,Win32,59.99880002,62c50e9c1127f2cd403a315f,0,161,161,83,1,twofour,,,,,,,,,,,,,,,,,,,,,,,,,,,,,,,,,,,,,,,,,,,,,,,,,,,,,,,,,,,,,,,,,,,,,,,,,,,,,,,,,,,,,,,,,,,,,,,,,,,,,,,,,,,,,,,,,,,,,,,,,,,,,,,,,,,,,,,,,,,,,,,,,,,,,,,,,,,,,
,,,,,,613c946a43af30711212b405,62c539931525d49b87c7922b,2022-07-06_09h29.31.383,Colour_Asymmetry_Pilot,2022.1.3,Win32,59.99880002,62c50e9c1127f2cd403a315f,,,,,,,space,7.9711,space,26.5845,space,77.2652,space,35.3902,space,6.17,space,12.9125,"[0.40379999999999994,0.09000000000000008,0.44300000000000006]",onetwo,"[0.12939999999999996,-0.2864,0.3253999999999999]",4,69.4263,17.05560303,85.3888855,1,0,0,response1disk_5,13.722229,2.055541992,1,0,0,rectangle_8,13.722229,2.055541992,1,0,0,3,13.722229,2.055541992,1,0,0,0,0,0,0,1,,,,,,,,,,,,,,,,,,,,,,,,,,,,,,,,,,,,,,,,,,,,,,,,,,,,,,,,,,,,,,,,,,,,,,,,,,,,,,,,,,,,,,,,,,,,,,,,,,,,,,,,,,,,,,,,
,,,,,,613c946a43af30711212b405,62c539931525d49b87c7922b,2022-07-06_09h29.31.383,Colour_Asymmetry_Pilot,2022.1.3,Win32,59.99880002,62c50e9c1127f2cd403a315f,,,,,,,,,,,,,,,,,,,"[0.3881999999999999,-0.23939999999999995,-0.05040000000000011]",fourthree,"[-0.38039999999999996,-0.4276,-0.1452]",-4,270.3305,-49.61108398,122.055542,1,0,0,response7disk_5,5.944458008,2.055541992,1,0,0,rectangle_8,5.944458008,2.055541992,1,0,0,3,5.944458008,2.055541992,1,0,0,1,0,1,0,1,,,,,,,,,,,,,,,,,,,,,,,,,,,,,,,,,,,,,,,,,,,,,,,,,,,,,,,,,,,,,,,,,,,,,,,,,,,,,,,,,,,,,,,,,,,,,,,,,,,,,,,,,,,,,,,,
,,,,,,613c946a43af30711212b405,62c539931525d49b87c7922b,2022-07-06_09h29.31.383,Colour_Asymmetry_Pilot,2022.1.3,Win32,59.99880002,62c50e9c1127f2cd403a315f,,,,,,,,,,,,,,,,,,,"[-0.6,0.16860000000000008,0.44300000000000006]",onethree,"[-0.7412000000000001,-0.08239999999999992,-0.6864]",-4,2.1002,-29.61108398,97.61105347,1,0,0,response7disk_5,-9.611083984,9.833312988,1,0,0,rectangle_8,100.388916,55.3888855,1,0,0,3,-20.72210693,4.277770996,1,0,0,2,0,2,0,1,response1disk_7,6,rectangle_4,,,,,,,,,,,,,,,,,,,,,,,,,,,,,,,,,,,,,,,,,,,,,,,,,,,,,,,,,,,,,,,,,,,,,,,,,,,,,,,,,,,,,,,,,,,,,,,,,,,,,,,,,,,,,
,,,,,,613c946a43af30711212b405,62c539931525d49b87c7922b,2022-07-06_09h29.31.383,Colour_Asymmetry_Pilot,2022.1.3,Win32,59.99880002,62c50e9c1127f2cd403a315f,,,,,,,,,,,,,,,,,,,"[0.0351999999999999,0.41159999999999997,0.0038000000000000256]",threeone,"[-0.011800000000000033,-0.906,-0.45100000000000007]",-4,6.3005,-37.38885498,98.72219849,1,0,0,response7disk_5,0.388916016,-3.500061035,1,0,0,rectangle_8,0.388916016,-3.500061035,1,0,0,3,0.388916016,-3.500061035,1,0,0,3,0,3,0,1,,,,,,,,,,,,,,,,,,,,,,,,,,,,,,,,,,,,,,,,,,,,,,,,,,,,,,,,,,,,,,,,,,,,,,,,,,,,,,,,,,,,,,,,,,,,,,,,,,,,,,,,,,,,,,,,
,,,,,,613c946a43af30711212b405,62c539931525d49b87c7922b,2022-07-06_09h29.31.383,Colour_Asymmetry_Pilot,2022.1.3,Win32,59.99880002,62c50e9c1127f2cd403a315f,,,,,,,,,,,,,,,,,,,"[0.6625999999999999,0.4980000000000002,-0.357]",fourtwo,"[0.34099999999999997,0.5841999999999998,-0.9844]",4,4.7633,62.61114502,106.5,1,0,0,response1disk_5,-9.611083984,-0.166687012,1,0,0,rectangle_8,108.166687,42.05554199,1,0,0,3,-0.722106934,-1.277801514,1,0,0,4,0,4,0,1,response1disk_7,6,rectangle_4,,,,,,,,,,,,,,,,,,,,,,,,,,,,,,,,,,,,,,,,,,,,,,,,,,,,,,,,,,,,,,,,,,,,,,,,,,,,,,,,,,,,,,,,,,,,,,,,,,,,,,,,,,,,,
,,,,,,613c946a43af30711212b405,62c539931525d49b87c7922b,2022-07-06_09h29.31.383,Colour_Asymmetry_Pilot,2022.1.3,Win32,59.99880002,62c50e9c1127f2cd403a315f,,,,,,,,,,,,,,,,,,,"[0.9763999999999999,0.8588,-0.05900000000000005]",threeone,"[-0.8118,-0.8198,-0.5452]",-4,1.5175,-31.83331299,89.83331299,1,0,0,response7disk_5,-6.277770996,6.499938965,1,0,0,rectangle_8,-6.277770996,6.499938965,1,0,0,3,-6.277770996,6.499938965,1,0,0,5,0,5,0,1,,,,,,,,,,,,,,,,,,,,,,,,,,,,,,,,,,,,,,,,,,,,,,,,,,,,,,,,,,,,,,,,,,,,,,,,,,,,,,,,,,,,,,,,,,,,,,,,,,,,,,,,,,,,,,,,
,,,,,,613c946a43af30711212b405,62c539931525d49b87c7922b,2022-07-06_09h29.31.383,Colour_Asymmetry_Pilot,2022.1.3,Win32,59.99880002,62c50e9c1127f2cd403a315f,,,,,,,,,,,,,,,,,,,"[0.9763999999999999,-0.1137999999999999,-0.6314]",onetwo,"[0.7018,0.7176,0.6155999999999999]",-4,1.2992,-35.16662598,89.83331299,1,0,0,response7disk_5,-5.166625977,7.611083984,1,0,0,rectangle_8,-5.166625977,7.611083984,1,0,0,3,-5.166625977,7.611083984,1,0,0,6,0,6,0,1,,,,,,,,,,,,,,,,,,,,,,,,,,,,,,,,,,,,,,,,,,,,,,,,,,,,,,,,,,,,,,,,,,,,,,,,,,,,,,,,,,,,,,,,,,,,,,,,,,,,,,,,,,,,,,,,
,,,,,,613c946a43af30711212b405,62c539931525d49b87c7922b,2022-07-06_09h29.31.383,Colour_Asymmetry_Pilot,2022.1.3,Win32,59.99880002,62c50e9c1127f2cd403a315f,,,,,,,,,,,,,,,,,,,,fourtwo,,4,5.2083,,,,,,,,,,,,,,,,,,,,,,,,,,,,,,,,space,5.3143,"[-0.5922000000000001,-0.7492000000000001,-0.5296000000000001]","[-0.6706000000000001,-0.6157999999999999,-0.6786]",33.72235107,92.05554199,1,0,0,response1disk,-7.38885498,-10.16668701,1,0,0,rectangle,-7.38885498,-10.16668701,1,0,0,,2,0.0025,0,-7.38885498,-10.16668701,1,0,0,0,0,0,3,1,3,first,,,,,,,,,,,,,,,,,,,,,,,,,,,,,,,,,,,,,,,,,,,,,,,,,,,,,,,,,,,,,,,,,,,,,,,,
,,,,,,613c946a43af30711212b405,62c539931525d49b87c7922b,2022-07-06_09h29.31.383,Colour_Asymmetry_Pilot,2022.1.3,Win32,59.99880002,62c50e9c1127f2cd403a315f,,,,,,,,,,,,,,,,,,,,fourtwo,,-4,1.3578,,,,,,,,,,,,,,,,,,,,,,,,,,,,,,,,,,"[0.09799999999999986,-0.24719999999999998,0.15280000000000005]","[-0.45899999999999996,-0.3256,-0.9374]",-34.05554199,83.16665649,1,0,0,response7disk,-17.38885498,-2.388916016,1,0,0,rectangle,-17.38885498,-2.388916016,1,0,0,,3,0.001,0,-17.38885498,-2.388916016,1,0,0,0,1,1,47,1,47,first,,,,,,,,,,,,,,,,,,,,,,,,,,,,,,,,,,,,,,,,,,,,,,,,,,,,,,,,,,,,,,,,,,,,,,,,
,,,,,,613c946a43af30711212b405,62c539931525d49b87c7922b,2022-07-06_09h29.31.383,Colour_Asymmetry_Pilot,2022.1.3,Win32,59.99880002,62c50e9c1127f2cd403a315f,,,,,,,,,,,,,,,,,,,,onetwo,,-4,0.7677,,,,,,,,,,,,,,,,,,,,,,,,,,,,,,,,,,"[-0.24719999999999998,0.5213999999999999,-0.12959999999999994]","[-0.38039999999999996,-0.4276,-0.1452]",-45.16662598,78.72219849,1,0,0,response7disk,-2.944396973,-2.388916016,1,0,0,rectangle,-2.944396973,-2.388916016,1,0,0,,3,0.0006,0,-2.944396973,-2.388916016,1,0,0,0,2,2,67,1,67,first,,,,,,,,,,,,,,,,,,,,,,,,,,,,,,,,,,,,,,,,,,,,,,,,,,,,,,,,,,,,,,,,,,,,,,,,
,,,,,,613c946a43af30711212b405,62c539931525d49b87c7922b,2022-07-06_09h29.31.383,Colour_Asymmetry_Pilot,2022.1.3,Win32,59.99880002,62c50e9c1127f2cd403a315f,,,,,,,,,,,,,,,,,,,,onetwo,,-4,0.7214,,,,,,,,,,,,,,,,,,,,,,,,,,,,,,,,,,"[-0.9766,-0.6472,0.07440000000000002]","[0.11359999999999992,0.6312,0.5213999999999999]",-44.05554199,79.83331299,1,0,0,response7disk,-1.833312988,-4.611175537,1,0,0,rectangle,-1.833312988,-4.611175537,1,0,0,,1,0.0012,0,-1.833312988,-4.611175537,1,0,0,0,3,3,81,1,0,second,,,,,,,,,,,,,,,,,,,,,,,,,,,,,,,,,,,,,,,,,,,,,,,,,,,,,,,,,,,,,,,,,,,,,,,,
,,,,,,613c946a43af30711212b405,62c539931525d49b87c7922b,2022-07-06_09h29.31.383,Colour_Asymmetry_Pilot,2022.1.3,Win32,59.99880002,62c50e9c1127f2cd403a315f,,,,,,,,,,,,,,,,,,,,onetwo,,-4,0.5833,,,,,,,,,,,,,,,,,,,,,,,,,,,,,,,,,,"[0.9842,0.7409999999999999,-0.6628000000000001]","[-0.9296,-0.12959999999999994,-0.043199999999999905]",-70.72210693,98.72219849,1,0,0,response7disk,7.055603027,7.611083984,1,0,0,rectangle,7.055603027,7.611083984,1,0,0,,2,0.001,0,7.055603027,7.611083984,1,0,0,0,4,4,94,1,13,second,,,,,,,,,,,,,,,,,,,,,,,,,,,,,,,,,,,,,,,,,,,,,,,,,,,,,,,,,,,,,,,,,,,,,,,,
,,,,,,613c946a43af30711212b405,62c539931525d49b87c7922b,2022-07-06_09h29.31.383,Colour_Asymmetry_Pilot,2022.1.3,Win32,59.99880002,62c50e9c1127f2cd403a315f,,,,,,,,,,,,,,,,,,,,twofour,,-4,0.6501,,,,,,,,,,,,,,,,,,,,,,,,,,,,,,,,,,"[0.4196,0.4665999999999999,0.3568]","[0.7018,0.7802,-0.16079999999999994]",-32.94439697,97.61105347,1,0,0,response7disk,-4.055541992,7.611083984,1,0,0,rectangle,-4.055541992,7.611083984,1,0,0,,3,0.0012,0,-4.055541992,7.611083984,1,0,0,0,5,5,118,1,37,second,,,,,,,,,,,,,,,,,,,,,,,,,,,,,,,,,,,,,,,,,,,,,,,,,,,,,,,,,,,,,,,,,,,,,,,,
,,,,,,613c946a43af30711212b405,62c539931525d49b87c7922b,2022-07-06_09h29.31.383,Colour_Asymmetry_Pilot,2022.1.3,Win32,59.99880002,62c50e9c1127f2cd403a315f,,,,,,,,,,,,,,,,,,,,twofour,,-4,0.6163,,,,,,,,,,,,,,,,,,,,,,,,,,,,,,,,,,"[-0.9138,-0.5296000000000001,-0.5529999999999999]","[-0.01980000000000004,-0.5138,-0.38039999999999996]",-55.16662598,97.61105347,1,0,0,response7disk,-15.16662598,4.277770996,1,0,0,rectangle,-15.16662598,4.277770996,1,0,0,,2,0.0009,0,-15.16662598,4.277770996,1,0,0,0,6,6,52,1,52,first,,,,,,,,,,,,,,,,,,,,,,,,,,,,,,,,,,,,,,,,,,,,,,,,,,,,,,,,,,,,,,,,,,,,,,,,
,,,,,,613c946a43af30711212b405,62c539931525d49b87c7922b,2022-07-06_09h29.31.383,Colour_Asymmetry_Pilot,2022.1.3,Win32,59.99880002,62c50e9c1127f2cd403a315f,,,,,,,,,,,,,,,,,,,,fourthree,,-4,0.9831,,,,,,,,,,,,,,,,,,,,,,,,,,,,,,,,,,"[0.11359999999999992,0.6312,0.5213999999999999]","[-0.9766,-0.6472,0.07440000000000002]",-42.94439697,80.94442749,1,0,0,response7disk,-10.72210693,2.055541992,1,0,0,rectangle,-10.72210693,2.055541992,1,0,0,,1,0.0022,0,-10.72210693,2.055541992,1,0,0,0,7,7,0,1,0,first,,,,,,,,,,,,,,,,,,,,,,,,,,,,,,,,,,,,,,,,,,,,,,,,,,,,,,,,,,,,,,,,,,,,,,,,
,,,,,,613c946a43af30711212b405,62c539931525d49b87c7922b,2022-07-06_09h29.31.383,Colour_Asymmetry_Pilot,2022.1.3,Win32,59.99880002,62c50e9c1127f2cd403a315f,,,,,,,,,,,,,,,,,,,,fourthree,,-4,1.0005,,,,,,,,,,,,,,,,,,,,,,,,,,,,,,,,,,"[0.40379999999999994,0.09000000000000008,0.44300000000000006]","[-0.4746,-0.0354000000000001,0.5449999999999999]",-37.38885498,66.49993896,1,0,0,response7disk,-9.611083984,6.499938965,1,0,0,rectangle,-9.611083984,6.499938965,1,0,0,,1,0.0002,0,-9.611083984,6.499938965,1,0,0,0,8,8,101,1,20,second,,,,,,,,,,,,,,,,,,,,,,,,,,,,,,,,,,,,,,,,,,,,,,,,,,,,,,,,,,,,,,,,,,,,,,,,
,,,,,,613c946a43af30711212b405,62c539931525d49b87c7922b,2022-07-06_09h29.31.383,Colour_Asymmetry_Pilot,2022.1.3,Win32,59.99880002,62c50e9c1127f2cd403a315f,,,,,,,,,,,,,,,,,,,,fourthree,,-4,1.1487,,,,,,,,,,,,,,,,,,,,,,,,,,,,,,,,,,"[-0.9688,-0.7412000000000001,-0.4902000000000001]","[0.09799999999999986,-0.24719999999999998,0.15280000000000005]",-41.83331299,98.72219849,1,0,0,response7disk,-0.722106934,-0.166687012,1,0,0,rectangle,-0.722106934,-0.166687012,1,0,0,,2,0.0013,0,-0.722106934,-0.166687012,1,0,0,0,9,9,45,1,45,first,,,,,,,,,,,,,,,,,,,,,,,,,,,,,,,,,,,,,,,,,,,,,,,,,,,,,,,,,,,,,,,,,,,,,,,,
,,,,,,613c946a43af30711212b405,62c539931525d49b87c7922b,2022-07-06_09h29.31.383,Colour_Asymmetry_Pilot,2022.1.3,Win32,59.99880002,62c50e9c1127f2cd403a315f,,,,,,,,,,,,,,,,,,,,threeone,,-4,0.6165,,,,,,,,,,,,,,,,,,,,,,,,,,,,,,,,,,"[0.9372,0.20779999999999998,0.2704]","[-0.2942,-0.24719999999999998,-0.357]",-57.38885498,98.72219849,1,0,0,response7disk,-6.277770996,-1.277801514,1,0,0,rectangle,-6.277770996,-1.277801514,1,0,0,,1,0.0011,0,-6.277770996,-1.277801514,1,0,0,0,10,10,54,1,54,first,,,,,,,,,,,,,,,,,,,,,,,,,,,,,,,,,,,,,,,,,,,,,,,,,,,,,,,,,,,,,,,,,,,,,,,,
,,,,,,613c946a43af30711212b405,62c539931525d49b87c7922b,2022-07-06_09h29.31.383,Colour_Asymmetry_Pilot,2022.1.3,Win32,59.99880002,62c50e9c1127f2cd403a315f,,,,,,,,,,,,,,,,,,,,onethree,,-4,0.6444,,,,,,,,,,,,,,,,,,,,,,,,,,,,,,,,,,"[-0.2942,-0.7648,-0.7492000000000001]","[-0.4902000000000001,0.2704,-0.45899999999999996]",-58.49987793,98.72219849,1,0,0,response7disk,4.833374023,8.722198486,1,0,0,rectangle,4.833374023,8.722198486,1,0,0,,3,0.0008,0,4.833374023,8.722198486,1,0,0,0,11,11,9,1,9,first,,,,,,,,,,,,,,,,,,,,,,,,,,,,,,,,,,,,,,,,,,,,,,,,,,,,,,,,,,,,,,,,,,,,,,,,
,,,,,,613c946a43af30711212b405,62c539931525d49b87c7922b,2022-07-06_09h29.31.383,Colour_Asymmetry_Pilot,2022.1.3,Win32,59.99880002,62c50e9c1127f2cd403a315f,,,,,,,,,,,,,,,,,,,,threefour,,-4,0.5652,,,,,,,,,,,,,,,,,,,,,,,,,,,,,,,,,,"[-0.9216,-0.5529999999999999,-0.3962]","[-0.8982,-0.37259999999999993,0.2784]",-35.16662598,78.72219849,1,0,0,response7disk,5.944458008,9.833312988,1,0,0,rectangle,5.944458008,9.833312988,1,0,0,,1,0.0009,0,5.944458008,9.833312988,1,0,0,0,12,12,86,1,5,second,,,,,,,,,,,,,,,,,,,,,,,,,,,,,,,,,,,,,,,,,,,,,,,,,,,,,,,,,,,,,,,,,,,,,,,,
,,,,,,613c946a43af30711212b405,62c539931525d49b87c7922b,2022-07-06_09h29.31.383,Colour_Asymmetry_Pilot,2022.1.3,Win32,59.99880002,62c50e9c1127f2cd403a315f,,,,,,,,,,,,,,,,,,,,fourtwo,,-4,0.5822,,,,,,,,,,,,,,,,,,,,,,,,,,,,,,,,,,"[0.37240000000000006,0.4980000000000002,-0.2864]","[-0.6942,-0.7648,-0.12959999999999994]",-42.94439697,86.49993896,1,0,0,response7disk,-12.94439697,13.16665649,1,0,0,rectangle,-12.94439697,13.16665649,1,0,0,,2,0.0014,0,-12.94439697,13.16665649,1,0,0,0,13,13,44,1,44,first,,,,,,,,,,,,,,,,,,,,,,,,,,,,,,,,,,,,,,,,,,,,,,,,,,,,,,,,,,,,,,,,,,,,,,,,
