trials.thisRepN,trials.thisTrialN,trials.thisN,trials.thisIndex,trials.ran,Colourcodes,participant,session,date,expName,psychopyVersion,OS,frameRate,study_id,trials_4.thisRepN,trials_4.thisTrialN,trials_4.thisN,trials_4.thisIndex,trials_4.ran,StimulusPos,key_resp.keys,key_resp.rt,key_resp_2.keys,key_resp_2.rt,key_resp_15.keys,key_resp_15.rt,key_resp_17.keys,key_resp_17.rt,key_resp_9.keys,key_resp_9.rt,key_resp_10.keys,key_resp_10.rt,Circle1_col,Ecc,Circle2_col,similarity,response_time,mouse_5.x,mouse_5.y,mouse_5.leftButton,mouse_5.midButton,mouse_5.rightButton,mouse_5.clicked_name,mouse_10.x,mouse_10.y,mouse_10.leftButton,mouse_10.midButton,mouse_10.rightButton,mouse_10.clicked_name,mouse_7.x,mouse_7.y,mouse_7.leftButton,mouse_7.midButton,mouse_7.rightButton,mouse_7.clicked_name,catchprac,catchnumberprac,mouse_6.x,mouse_6.y,mouse_6.leftButton,mouse_6.midButton,mouse_6.rightButton,mouse_6.clicked_name,duringprac.thisRepN,duringprac.thisTrialN,duringprac.thisN,duringprac.thisIndex,duringprac.ran,key_resp_22.keys,key_resp_22.rt,Circle1_colour,Circle2_colour,mouse.x,mouse.y,mouse.leftButton,mouse.midButton,mouse.rightButton,mouse.clicked_name,mouse_2.x,mouse_2.y,mouse_2.leftButton,mouse_2.midButton,mouse_2.rightButton,mouse_2.clicked_name,mouse_3.x,mouse_3.y,mouse_3.leftButton,mouse_3.midButton,mouse_3.rightButton,catchresponse,catchnumber,response_time_catch,Catch,mouse_11.x,mouse_11.y,mouse_11.leftButton,mouse_11.midButton,mouse_11.rightButton,trials_2.thisRepN,trials_2.thisTrialN,trials_2.thisN,trials_2.thisIndex,trials_2.ran,Colourpair,Temporder,mouse_3.clicked_name,mouse_11.clicked_name,trials_3.thisRepN,trials_3.thisTrialN,trials_3.thisN,trials_3.thisIndex,trials_3.ran,key_resp_instr_Ishi.keys,key_resp_instr_Ishi.rt,Ishi_trial_keyresp.keys,Ishi_textbox.text,Ishi_mouse.x,Ishi_mouse.y,Ishi_mouse.leftButton,Ishi_mouse.midButton,Ishi_mouse.rightButton,Ishi_mouse.clicked_name,Ishi_loop.thisRepN,Ishi_loop.thisTrialN,Ishi_loop.thisN,Ishi_loop.thisIndex,Ishi_loop.ran,imageaddress,textbox.text,mouse_4.x,mouse_4.y,mouse_4.leftButton,mouse_4.midButton,mouse_4.rightButton,mouse_4.clicked_name,textbox_2.text,mouse_8.x,mouse_8.y,mouse_8.leftButton,mouse_8.midButton,mouse_8.rightButton,mouse_8.clicked_name,textbox_3.text,mouse_9.x,mouse_9.y,mouse_9.leftButton,mouse_9.midButton,mouse_9.rightButton,mouse_9.clicked_name,textbox_4.text,mouse_12.x,mouse_12.y,mouse_12.leftButton,mouse_12.midButton,mouse_12.rightButton,mouse_12.clicked_name,textbox_5.text,mouse_13.x,mouse_13.y,mouse_13.leftButton,mouse_13.midButton,mouse_13.rightButton,mouse_13.clicked_name,textbox_6.text,mouse_14.x,mouse_14.y,mouse_14.leftButton,mouse_14.midButton,mouse_14.rightButton,mouse_14.clicked_name,textbox_7.text,mouse_15.x,mouse_15.y,mouse_15.leftButton,mouse_15.midButton,mouse_15.rightButton,mouse_15.clicked_name
0,0,0,25,1,,615ac48e01928d37d6f9999b,62c53977a9e5fb366c1df99c,2022-07-06_09h28.24.616,Colour_Asymmetry_Pilot,2022.1.3,Win32,50.02751513,62c50e9c1127f2cd403a315f,,,,,,,,,,,,,,,,,,,,,,,,,,,,,,,,,,,,,,,,,,,,,,,,,,,,,,,,,,,,,,,,,,,,,,,,,,,,,,,,,,,,,,,,,,,,,,,,,,,,,,,,,,,,,,,,,,,,,,,,,,,,,,,,,,,,,,,,,,,,,,,,,,,,,,,,,,,,,,,,,,,
0,1,1,56,1,,615ac48e01928d37d6f9999b,62c53977a9e5fb366c1df99c,2022-07-06_09h28.24.616,Colour_Asymmetry_Pilot,2022.1.3,Win32,50.02751513,62c50e9c1127f2cd403a315f,,,,,,,,,,,,,,,,,,,,,,,,,,,,,,,,,,,,,,,,,,,,,,,,,,,,,,,,,,,,,,,,,,,,,,,,,,,,,,,,,,,,,,,,,,,,,,,,,,,,,,,,,,,,,,,,,,,,,,,,,,,,,,,,,,,,,,,,,,,,,,,,,,,,,,,,,,,,,,,,,,,
0,2,2,45,1,,615ac48e01928d37d6f9999b,62c53977a9e5fb366c1df99c,2022-07-06_09h28.24.616,Colour_Asymmetry_Pilot,2022.1.3,Win32,50.02751513,62c50e9c1127f2cd403a315f,,,,,,,,,,,,,,,,,,,,,,,,,,,,,,,,,,,,,,,,,,,,,,,,,,,,,,,,,,,,,,,,,,,,,,,,,,,,,,,,,,,,,,,,,,,,,,,,,,,,,,,,,,,,,,,,,,,,,,,,,,,,,,,,,,,,,,,,,,,,,,,,,,,,,,,,,,,,,,,,,,,
0,3,3,66,1,,615ac48e01928d37d6f9999b,62c53977a9e5fb366c1df99c,2022-07-06_09h28.24.616,Colour_Asymmetry_Pilot,2022.1.3,Win32,50.02751513,62c50e9c1127f2cd403a315f,,,,,,,,,,,,,,,,,,,,,,,,,,,,,,,,,,,,,,,,,,,,,,,,,,,,,,,,,,,,,,,,,,,,,,,,,,,,,,,,,,,,,,,,,,,,,,,,,,,,,,,,,,,,,,,,,,,,,,,,,,,,,,,,,,,,,,,,,,,,,,,,,,,,,,,,,,,,,,,,,,,
0,4,4,69,1,,615ac48e01928d37d6f9999b,62c53977a9e5fb366c1df99c,2022-07-06_09h28.24.616,Colour_Asymmetry_Pilot,2022.1.3,Win32,50.02751513,62c50e9c1127f2cd403a315f,,,,,,,,,,,,,,,,,,,,,,,,,,,,,,,,,,,,,,,,,,,,,,,,,,,,,,,,,,,,,,,,,,,,,,,,,,,,,,,,,,,,,,,,,,,,,,,,,,,,,,,,,,,,,,,,,,,,,,,,,,,,,,,,,,,,,,,,,,,,,,,,,,,,,,,,,,,,,,,,,,,
0,5,5,6,1,,615ac48e01928d37d6f9999b,62c53977a9e5fb366c1df99c,2022-07-06_09h28.24.616,Colour_Asymmetry_Pilot,2022.1.3,Win32,50.02751513,62c50e9c1127f2cd403a315f,,,,,,,,,,,,,,,,,,,,,,,,,,,,,,,,,,,,,,,,,,,,,,,,,,,,,,,,,,,,,,,,,,,,,,,,,,,,,,,,,,,,,,,,,,,,,,,,,,,,,,,,,,,,,,,,,,,,,,,,,,,,,,,,,,,,,,,,,,,,,,,,,,,,,,,,,,,,,,,,,,,
0,6,6,4,1,,615ac48e01928d37d6f9999b,62c53977a9e5fb366c1df99c,2022-07-06_09h28.24.616,Colour_Asymmetry_Pilot,2022.1.3,Win32,50.02751513,62c50e9c1127f2cd403a315f,,,,,,,,,,,,,,,,,,,,,,,,,,,,,,,,,,,,,,,,,,,,,,,,,,,,,,,,,,,,,,,,,,,,,,,,,,,,,,,,,,,,,,,,,,,,,,,,,,,,,,,,,,,,,,,,,,,,,,,,,,,,,,,,,,,,,,,,,,,,,,,,,,,,,,,,,,,,,,,,,,,
0,7,7,83,1,,615ac48e01928d37d6f9999b,62c53977a9e5fb366c1df99c,2022-07-06_09h28.24.616,Colour_Asymmetry_Pilot,2022.1.3,Win32,50.02751513,62c50e9c1127f2cd403a315f,,,,,,,,,,,,,,,,,,,,,,,,,,,,,,,,,,,,,,,,,,,,,,,,,,,,,,,,,,,,,,,,,,,,,,,,,,,,,,,,,,,,,,,,,,,,,,,,,,,,,,,,,,,,,,,,,,,,,,,,,,,,,,,,,,,,,,,,,,,,,,,,,,,,,,,,,,,,,,,,,,,
0,8,8,65,1,,615ac48e01928d37d6f9999b,62c53977a9e5fb366c1df99c,2022-07-06_09h28.24.616,Colour_Asymmetry_Pilot,2022.1.3,Win32,50.02751513,62c50e9c1127f2cd403a315f,,,,,,,,,,,,,,,,,,,,,,,,,,,,,,,,,,,,,,,,,,,,,,,,,,,,,,,,,,,,,,,,,,,,,,,,,,,,,,,,,,,,,,,,,,,,,,,,,,,,,,,,,,,,,,,,,,,,,,,,,,,,,,,,,,,,,,,,,,,,,,,,,,,,,,,,,,,,,,,,,,,
0,9,9,35,1,,615ac48e01928d37d6f9999b,62c53977a9e5fb366c1df99c,2022-07-06_09h28.24.616,Colour_Asymmetry_Pilot,2022.1.3,Win32,50.02751513,62c50e9c1127f2cd403a315f,,,,,,,,,,,,,,,,,,,,,,,,,,,,,,,,,,,,,,,,,,,,,,,,,,,,,,,,,,,,,,,,,,,,,,,,,,,,,,,,,,,,,,,,,,,,,,,,,,,,,,,,,,,,,,,,,,,,,,,,,,,,,,,,,,,,,,,,,,,,,,,,,,,,,,,,,,,,,,,,,,,
0,10,10,0,1,,615ac48e01928d37d6f9999b,62c53977a9e5fb366c1df99c,2022-07-06_09h28.24.616,Colour_Asymmetry_Pilot,2022.1.3,Win32,50.02751513,62c50e9c1127f2cd403a315f,,,,,,,,,,,,,,,,,,,,,,,,,,,,,,,,,,,,,,,,,,,,,,,,,,,,,,,,,,,,,,,,,,,,,,,,,,,,,,,,,,,,,,,,,,,,,,,,,,,,,,,,,,,,,,,,,,,,,,,,,,,,,,,,,,,,,,,,,,,,,,,,,,,,,,,,,,,,,,,,,,,
0,11,11,72,1,,615ac48e01928d37d6f9999b,62c53977a9e5fb366c1df99c,2022-07-06_09h28.24.616,Colour_Asymmetry_Pilot,2022.1.3,Win32,50.02751513,62c50e9c1127f2cd403a315f,,,,,,,,,,,,,,,,,,,,,,,,,,,,,,,,,,,,,,,,,,,,,,,,,,,,,,,,,,,,,,,,,,,,,,,,,,,,,,,,,,,,,,,,,,,,,,,,,,,,,,,,,,,,,,,,,,,,,,,,,,,,,,,,,,,,,,,,,,,,,,,,,,,,,,,,,,,,,,,,,,,
0,12,12,67,1,,615ac48e01928d37d6f9999b,62c53977a9e5fb366c1df99c,2022-07-06_09h28.24.616,Colour_Asymmetry_Pilot,2022.1.3,Win32,50.02751513,62c50e9c1127f2cd403a315f,,,,,,,,,,,,,,,,,,,,,,,,,,,,,,,,,,,,,,,,,,,,,,,,,,,,,,,,,,,,,,,,,,,,,,,,,,,,,,,,,,,,,,,,,,,,,,,,,,,,,,,,,,,,,,,,,,,,,,,,,,,,,,,,,,,,,,,,,,,,,,,,,,,,,,,,,,,,,,,,,,,
0,13,13,39,1,,615ac48e01928d37d6f9999b,62c53977a9e5fb366c1df99c,2022-07-06_09h28.24.616,Colour_Asymmetry_Pilot,2022.1.3,Win32,50.02751513,62c50e9c1127f2cd403a315f,,,,,,,,,,,,,,,,,,,,,,,,,,,,,,,,,,,,,,,,,,,,,,,,,,,,,,,,,,,,,,,,,,,,,,,,,,,,,,,,,,,,,,,,,,,,,,,,,,,,,,,,,,,,,,,,,,,,,,,,,,,,,,,,,,,,,,,,,,,,,,,,,,,,,,,,,,,,,,,,,,,
0,14,14,46,1,,615ac48e01928d37d6f9999b,62c53977a9e5fb366c1df99c,2022-07-06_09h28.24.616,Colour_Asymmetry_Pilot,2022.1.3,Win32,50.02751513,62c50e9c1127f2cd403a315f,,,,,,,,,,,,,,,,,,,,,,,,,,,,,,,,,,,,,,,,,,,,,,,,,,,,,,,,,,,,,,,,,,,,,,,,,,,,,,,,,,,,,,,,,,,,,,,,,,,,,,,,,,,,,,,,,,,,,,,,,,,,,,,,,,,,,,,,,,,,,,,,,,,,,,,,,,,,,,,,,,,
0,15,15,2,1,,615ac48e01928d37d6f9999b,62c53977a9e5fb366c1df99c,2022-07-06_09h28.24.616,Colour_Asymmetry_Pilot,2022.1.3,Win32,50.02751513,62c50e9c1127f2cd403a315f,,,,,,,,,,,,,,,,,,,,,,,,,,,,,,,,,,,,,,,,,,,,,,,,,,,,,,,,,,,,,,,,,,,,,,,,,,,,,,,,,,,,,,,,,,,,,,,,,,,,,,,,,,,,,,,,,,,,,,,,,,,,,,,,,,,,,,,,,,,,,,,,,,,,,,,,,,,,,,,,,,,
0,16,16,30,1,,615ac48e01928d37d6f9999b,62c53977a9e5fb366c1df99c,2022-07-06_09h28.24.616,Colour_Asymmetry_Pilot,2022.1.3,Win32,50.02751513,62c50e9c1127f2cd403a315f,,,,,,,,,,,,,,,,,,,,,,,,,,,,,,,,,,,,,,,,,,,,,,,,,,,,,,,,,,,,,,,,,,,,,,,,,,,,,,,,,,,,,,,,,,,,,,,,,,,,,,,,,,,,,,,,,,,,,,,,,,,,,,,,,,,,,,,,,,,,,,,,,,,,,,,,,,,,,,,,,,,
0,17,17,89,1,,615ac48e01928d37d6f9999b,62c53977a9e5fb366c1df99c,2022-07-06_09h28.24.616,Colour_Asymmetry_Pilot,2022.1.3,Win32,50.02751513,62c50e9c1127f2cd403a315f,,,,,,,,,,,,,,,,,,,,,,,,,,,,,,,,,,,,,,,,,,,,,,,,,,,,,,,,,,,,,,,,,,,,,,,,,,,,,,,,,,,,,,,,,,,,,,,,,,,,,,,,,,,,,,,,,,,,,,,,,,,,,,,,,,,,,,,,,,,,,,,,,,,,,,,,,,,,,,,,,,,
0,18,18,40,1,,615ac48e01928d37d6f9999b,62c53977a9e5fb366c1df99c,2022-07-06_09h28.24.616,Colour_Asymmetry_Pilot,2022.1.3,Win32,50.02751513,62c50e9c1127f2cd403a315f,,,,,,,,,,,,,,,,,,,,,,,,,,,,,,,,,,,,,,,,,,,,,,,,,,,,,,,,,,,,,,,,,,,,,,,,,,,,,,,,,,,,,,,,,,,,,,,,,,,,,,,,,,,,,,,,,,,,,,,,,,,,,,,,,,,,,,,,,,,,,,,,,,,,,,,,,,,,,,,,,,,
0,19,19,9,1,,615ac48e01928d37d6f9999b,62c53977a9e5fb366c1df99c,2022-07-06_09h28.24.616,Colour_Asymmetry_Pilot,2022.1.3,Win32,50.02751513,62c50e9c1127f2cd403a315f,,,,,,,,,,,,,,,,,,,,,,,,,,,,,,,,,,,,,,,,,,,,,,,,,,,,,,,,,,,,,,,,,,,,,,,,,,,,,,,,,,,,,,,,,,,,,,,,,,,,,,,,,,,,,,,,,,,,,,,,,,,,,,,,,,,,,,,,,,,,,,,,,,,,,,,,,,,,,,,,,,,
0,20,20,87,1,,615ac48e01928d37d6f9999b,62c53977a9e5fb366c1df99c,2022-07-06_09h28.24.616,Colour_Asymmetry_Pilot,2022.1.3,Win32,50.02751513,62c50e9c1127f2cd403a315f,,,,,,,,,,,,,,,,,,,,,,,,,,,,,,,,,,,,,,,,,,,,,,,,,,,,,,,,,,,,,,,,,,,,,,,,,,,,,,,,,,,,,,,,,,,,,,,,,,,,,,,,,,,,,,,,,,,,,,,,,,,,,,,,,,,,,,,,,,,,,,,,,,,,,,,,,,,,,,,,,,,
0,21,21,23,1,,615ac48e01928d37d6f9999b,62c53977a9e5fb366c1df99c,2022-07-06_09h28.24.616,Colour_Asymmetry_Pilot,2022.1.3,Win32,50.02751513,62c50e9c1127f2cd403a315f,,,,,,,,,,,,,,,,,,,,,,,,,,,,,,,,,,,,,,,,,,,,,,,,,,,,,,,,,,,,,,,,,,,,,,,,,,,,,,,,,,,,,,,,,,,,,,,,,,,,,,,,,,,,,,,,,,,,,,,,,,,,,,,,,,,,,,,,,,,,,,,,,,,,,,,,,,,,,,,,,,,
0,22,22,73,1,,615ac48e01928d37d6f9999b,62c53977a9e5fb366c1df99c,2022-07-06_09h28.24.616,Colour_Asymmetry_Pilot,2022.1.3,Win32,50.02751513,62c50e9c1127f2cd403a315f,,,,,,,,,,,,,,,,,,,,,,,,,,,,,,,,,,,,,,,,,,,,,,,,,,,,,,,,,,,,,,,,,,,,,,,,,,,,,,,,,,,,,,,,,,,,,,,,,,,,,,,,,,,,,,,,,,,,,,,,,,,,,,,,,,,,,,,,,,,,,,,,,,,,,,,,,,,,,,,,,,,
0,23,23,88,1,,615ac48e01928d37d6f9999b,62c53977a9e5fb366c1df99c,2022-07-06_09h28.24.616,Colour_Asymmetry_Pilot,2022.1.3,Win32,50.02751513,62c50e9c1127f2cd403a315f,,,,,,,,,,,,,,,,,,,,,,,,,,,,,,,,,,,,,,,,,,,,,,,,,,,,,,,,,,,,,,,,,,,,,,,,,,,,,,,,,,,,,,,,,,,,,,,,,,,,,,,,,,,,,,,,,,,,,,,,,,,,,,,,,,,,,,,,,,,,,,,,,,,,,,,,,,,,,,,,,,,
0,24,24,36,1,,615ac48e01928d37d6f9999b,62c53977a9e5fb366c1df99c,2022-07-06_09h28.24.616,Colour_Asymmetry_Pilot,2022.1.3,Win32,50.02751513,62c50e9c1127f2cd403a315f,,,,,,,,,,,,,,,,,,,,,,,,,,,,,,,,,,,,,,,,,,,,,,,,,,,,,,,,,,,,,,,,,,,,,,,,,,,,,,,,,,,,,,,,,,,,,,,,,,,,,,,,,,,,,,,,,,,,,,,,,,,,,,,,,,,,,,,,,,,,,,,,,,,,,,,,,,,,,,,,,,,
0,25,25,50,1,,615ac48e01928d37d6f9999b,62c53977a9e5fb366c1df99c,2022-07-06_09h28.24.616,Colour_Asymmetry_Pilot,2022.1.3,Win32,50.02751513,62c50e9c1127f2cd403a315f,,,,,,,,,,,,,,,,,,,,,,,,,,,,,,,,,,,,,,,,,,,,,,,,,,,,,,,,,,,,,,,,,,,,,,,,,,,,,,,,,,,,,,,,,,,,,,,,,,,,,,,,,,,,,,,,,,,,,,,,,,,,,,,,,,,,,,,,,,,,,,,,,,,,,,,,,,,,,,,,,,,
0,26,26,27,1,,615ac48e01928d37d6f9999b,62c53977a9e5fb366c1df99c,2022-07-06_09h28.24.616,Colour_Asymmetry_Pilot,2022.1.3,Win32,50.02751513,62c50e9c1127f2cd403a315f,,,,,,,,,,,,,,,,,,,,,,,,,,,,,,,,,,,,,,,,,,,,,,,,,,,,,,,,,,,,,,,,,,,,,,,,,,,,,,,,,,,,,,,,,,,,,,,,,,,,,,,,,,,,,,,,,,,,,,,,,,,,,,,,,,,,,,,,,,,,,,,,,,,,,,,,,,,,,,,,,,,
0,27,27,79,1,,615ac48e01928d37d6f9999b,62c53977a9e5fb366c1df99c,2022-07-06_09h28.24.616,Colour_Asymmetry_Pilot,2022.1.3,Win32,50.02751513,62c50e9c1127f2cd403a315f,,,,,,,,,,,,,,,,,,,,,,,,,,,,,,,,,,,,,,,,,,,,,,,,,,,,,,,,,,,,,,,,,,,,,,,,,,,,,,,,,,,,,,,,,,,,,,,,,,,,,,,,,,,,,,,,,,,,,,,,,,,,,,,,,,,,,,,,,,,,,,,,,,,,,,,,,,,,,,,,,,,
0,28,28,91,1,,615ac48e01928d37d6f9999b,62c53977a9e5fb366c1df99c,2022-07-06_09h28.24.616,Colour_Asymmetry_Pilot,2022.1.3,Win32,50.02751513,62c50e9c1127f2cd403a315f,,,,,,,,,,,,,,,,,,,,,,,,,,,,,,,,,,,,,,,,,,,,,,,,,,,,,,,,,,,,,,,,,,,,,,,,,,,,,,,,,,,,,,,,,,,,,,,,,,,,,,,,,,,,,,,,,,,,,,,,,,,,,,,,,,,,,,,,,,,,,,,,,,,,,,,,,,,,,,,,,,,
0,29,29,37,1,,615ac48e01928d37d6f9999b,62c53977a9e5fb366c1df99c,2022-07-06_09h28.24.616,Colour_Asymmetry_Pilot,2022.1.3,Win32,50.02751513,62c50e9c1127f2cd403a315f,,,,,,,,,,,,,,,,,,,,,,,,,,,,,,,,,,,,,,,,,,,,,,,,,,,,,,,,,,,,,,,,,,,,,,,,,,,,,,,,,,,,,,,,,,,,,,,,,,,,,,,,,,,,,,,,,,,,,,,,,,,,,,,,,,,,,,,,,,,,,,,,,,,,,,,,,,,,,,,,,,,
0,30,30,21,1,,615ac48e01928d37d6f9999b,62c53977a9e5fb366c1df99c,2022-07-06_09h28.24.616,Colour_Asymmetry_Pilot,2022.1.3,Win32,50.02751513,62c50e9c1127f2cd403a315f,,,,,,,,,,,,,,,,,,,,,,,,,,,,,,,,,,,,,,,,,,,,,,,,,,,,,,,,,,,,,,,,,,,,,,,,,,,,,,,,,,,,,,,,,,,,,,,,,,,,,,,,,,,,,,,,,,,,,,,,,,,,,,,,,,,,,,,,,,,,,,,,,,,,,,,,,,,,,,,,,,,
0,31,31,8,1,,615ac48e01928d37d6f9999b,62c53977a9e5fb366c1df99c,2022-07-06_09h28.24.616,Colour_Asymmetry_Pilot,2022.1.3,Win32,50.02751513,62c50e9c1127f2cd403a315f,,,,,,,,,,,,,,,,,,,,,,,,,,,,,,,,,,,,,,,,,,,,,,,,,,,,,,,,,,,,,,,,,,,,,,,,,,,,,,,,,,,,,,,,,,,,,,,,,,,,,,,,,,,,,,,,,,,,,,,,,,,,,,,,,,,,,,,,,,,,,,,,,,,,,,,,,,,,,,,,,,,
0,32,32,75,1,,615ac48e01928d37d6f9999b,62c53977a9e5fb366c1df99c,2022-07-06_09h28.24.616,Colour_Asymmetry_Pilot,2022.1.3,Win32,50.02751513,62c50e9c1127f2cd403a315f,,,,,,,,,,,,,,,,,,,,,,,,,,,,,,,,,,,,,,,,,,,,,,,,,,,,,,,,,,,,,,,,,,,,,,,,,,,,,,,,,,,,,,,,,,,,,,,,,,,,,,,,,,,,,,,,,,,,,,,,,,,,,,,,,,,,,,,,,,,,,,,,,,,,,,,,,,,,,,,,,,,
0,33,33,18,1,,615ac48e01928d37d6f9999b,62c53977a9e5fb366c1df99c,2022-07-06_09h28.24.616,Colour_Asymmetry_Pilot,2022.1.3,Win32,50.02751513,62c50e9c1127f2cd403a315f,,,,,,,,,,,,,,,,,,,,,,,,,,,,,,,,,,,,,,,,,,,,,,,,,,,,,,,,,,,,,,,,,,,,,,,,,,,,,,,,,,,,,,,,,,,,,,,,,,,,,,,,,,,,,,,,,,,,,,,,,,,,,,,,,,,,,,,,,,,,,,,,,,,,,,,,,,,,,,,,,,,
0,34,34,80,1,,615ac48e01928d37d6f9999b,62c53977a9e5fb366c1df99c,2022-07-06_09h28.24.616,Colour_Asymmetry_Pilot,2022.1.3,Win32,50.02751513,62c50e9c1127f2cd403a315f,,,,,,,,,,,,,,,,,,,,,,,,,,,,,,,,,,,,,,,,,,,,,,,,,,,,,,,,,,,,,,,,,,,,,,,,,,,,,,,,,,,,,,,,,,,,,,,,,,,,,,,,,,,,,,,,,,,,,,,,,,,,,,,,,,,,,,,,,,,,,,,,,,,,,,,,,,,,,,,,,,,
0,35,35,26,1,,615ac48e01928d37d6f9999b,62c53977a9e5fb366c1df99c,2022-07-06_09h28.24.616,Colour_Asymmetry_Pilot,2022.1.3,Win32,50.02751513,62c50e9c1127f2cd403a315f,,,,,,,,,,,,,,,,,,,,,,,,,,,,,,,,,,,,,,,,,,,,,,,,,,,,,,,,,,,,,,,,,,,,,,,,,,,,,,,,,,,,,,,,,,,,,,,,,,,,,,,,,,,,,,,,,,,,,,,,,,,,,,,,,,,,,,,,,,,,,,,,,,,,,,,,,,,,,,,,,,,
0,36,36,15,1,,615ac48e01928d37d6f9999b,62c53977a9e5fb366c1df99c,2022-07-06_09h28.24.616,Colour_Asymmetry_Pilot,2022.1.3,Win32,50.02751513,62c50e9c1127f2cd403a315f,,,,,,,,,,,,,,,,,,,,,,,,,,,,,,,,,,,,,,,,,,,,,,,,,,,,,,,,,,,,,,,,,,,,,,,,,,,,,,,,,,,,,,,,,,,,,,,,,,,,,,,,,,,,,,,,,,,,,,,,,,,,,,,,,,,,,,,,,,,,,,,,,,,,,,,,,,,,,,,,,,,
0,37,37,16,1,,615ac48e01928d37d6f9999b,62c53977a9e5fb366c1df99c,2022-07-06_09h28.24.616,Colour_Asymmetry_Pilot,2022.1.3,Win32,50.02751513,62c50e9c1127f2cd403a315f,,,,,,,,,,,,,,,,,,,,,,,,,,,,,,,,,,,,,,,,,,,,,,,,,,,,,,,,,,,,,,,,,,,,,,,,,,,,,,,,,,,,,,,,,,,,,,,,,,,,,,,,,,,,,,,,,,,,,,,,,,,,,,,,,,,,,,,,,,,,,,,,,,,,,,,,,,,,,,,,,,,
0,38,38,28,1,,615ac48e01928d37d6f9999b,62c53977a9e5fb366c1df99c,2022-07-06_09h28.24.616,Colour_Asymmetry_Pilot,2022.1.3,Win32,50.02751513,62c50e9c1127f2cd403a315f,,,,,,,,,,,,,,,,,,,,,,,,,,,,,,,,,,,,,,,,,,,,,,,,,,,,,,,,,,,,,,,,,,,,,,,,,,,,,,,,,,,,,,,,,,,,,,,,,,,,,,,,,,,,,,,,,,,,,,,,,,,,,,,,,,,,,,,,,,,,,,,,,,,,,,,,,,,,,,,,,,,
0,39,39,14,1,,615ac48e01928d37d6f9999b,62c53977a9e5fb366c1df99c,2022-07-06_09h28.24.616,Colour_Asymmetry_Pilot,2022.1.3,Win32,50.02751513,62c50e9c1127f2cd403a315f,,,,,,,,,,,,,,,,,,,,,,,,,,,,,,,,,,,,,,,,,,,,,,,,,,,,,,,,,,,,,,,,,,,,,,,,,,,,,,,,,,,,,,,,,,,,,,,,,,,,,,,,,,,,,,,,,,,,,,,,,,,,,,,,,,,,,,,,,,,,,,,,,,,,,,,,,,,,,,,,,,,
0,40,40,49,1,,615ac48e01928d37d6f9999b,62c53977a9e5fb366c1df99c,2022-07-06_09h28.24.616,Colour_Asymmetry_Pilot,2022.1.3,Win32,50.02751513,62c50e9c1127f2cd403a315f,,,,,,,,,,,,,,,,,,,,,,,,,,,,,,,,,,,,,,,,,,,,,,,,,,,,,,,,,,,,,,,,,,,,,,,,,,,,,,,,,,,,,,,,,,,,,,,,,,,,,,,,,,,,,,,,,,,,,,,,,,,,,,,,,,,,,,,,,,,,,,,,,,,,,,,,,,,,,,,,,,,
0,41,41,57,1,,615ac48e01928d37d6f9999b,62c53977a9e5fb366c1df99c,2022-07-06_09h28.24.616,Colour_Asymmetry_Pilot,2022.1.3,Win32,50.02751513,62c50e9c1127f2cd403a315f,,,,,,,,,,,,,,,,,,,,,,,,,,,,,,,,,,,,,,,,,,,,,,,,,,,,,,,,,,,,,,,,,,,,,,,,,,,,,,,,,,,,,,,,,,,,,,,,,,,,,,,,,,,,,,,,,,,,,,,,,,,,,,,,,,,,,,,,,,,,,,,,,,,,,,,,,,,,,,,,,,,
0,42,42,77,1,,615ac48e01928d37d6f9999b,62c53977a9e5fb366c1df99c,2022-07-06_09h28.24.616,Colour_Asymmetry_Pilot,2022.1.3,Win32,50.02751513,62c50e9c1127f2cd403a315f,,,,,,,,,,,,,,,,,,,,,,,,,,,,,,,,,,,,,,,,,,,,,,,,,,,,,,,,,,,,,,,,,,,,,,,,,,,,,,,,,,,,,,,,,,,,,,,,,,,,,,,,,,,,,,,,,,,,,,,,,,,,,,,,,,,,,,,,,,,,,,,,,,,,,,,,,,,,,,,,,,,
0,43,43,52,1,,615ac48e01928d37d6f9999b,62c53977a9e5fb366c1df99c,2022-07-06_09h28.24.616,Colour_Asymmetry_Pilot,2022.1.3,Win32,50.02751513,62c50e9c1127f2cd403a315f,,,,,,,,,,,,,,,,,,,,,,,,,,,,,,,,,,,,,,,,,,,,,,,,,,,,,,,,,,,,,,,,,,,,,,,,,,,,,,,,,,,,,,,,,,,,,,,,,,,,,,,,,,,,,,,,,,,,,,,,,,,,,,,,,,,,,,,,,,,,,,,,,,,,,,,,,,,,,,,,,,,
0,44,44,85,1,,615ac48e01928d37d6f9999b,62c53977a9e5fb366c1df99c,2022-07-06_09h28.24.616,Colour_Asymmetry_Pilot,2022.1.3,Win32,50.02751513,62c50e9c1127f2cd403a315f,,,,,,,,,,,,,,,,,,,,,,,,,,,,,,,,,,,,,,,,,,,,,,,,,,,,,,,,,,,,,,,,,,,,,,,,,,,,,,,,,,,,,,,,,,,,,,,,,,,,,,,,,,,,,,,,,,,,,,,,,,,,,,,,,,,,,,,,,,,,,,,,,,,,,,,,,,,,,,,,,,,
0,45,45,20,1,,615ac48e01928d37d6f9999b,62c53977a9e5fb366c1df99c,2022-07-06_09h28.24.616,Colour_Asymmetry_Pilot,2022.1.3,Win32,50.02751513,62c50e9c1127f2cd403a315f,,,,,,,,,,,,,,,,,,,,,,,,,,,,,,,,,,,,,,,,,,,,,,,,,,,,,,,,,,,,,,,,,,,,,,,,,,,,,,,,,,,,,,,,,,,,,,,,,,,,,,,,,,,,,,,,,,,,,,,,,,,,,,,,,,,,,,,,,,,,,,,,,,,,,,,,,,,,,,,,,,,
0,46,46,13,1,,615ac48e01928d37d6f9999b,62c53977a9e5fb366c1df99c,2022-07-06_09h28.24.616,Colour_Asymmetry_Pilot,2022.1.3,Win32,50.02751513,62c50e9c1127f2cd403a315f,,,,,,,,,,,,,,,,,,,,,,,,,,,,,,,,,,,,,,,,,,,,,,,,,,,,,,,,,,,,,,,,,,,,,,,,,,,,,,,,,,,,,,,,,,,,,,,,,,,,,,,,,,,,,,,,,,,,,,,,,,,,,,,,,,,,,,,,,,,,,,,,,,,,,,,,,,,,,,,,,,,
0,47,47,86,1,,615ac48e01928d37d6f9999b,62c53977a9e5fb366c1df99c,2022-07-06_09h28.24.616,Colour_Asymmetry_Pilot,2022.1.3,Win32,50.02751513,62c50e9c1127f2cd403a315f,,,,,,,,,,,,,,,,,,,,,,,,,,,,,,,,,,,,,,,,,,,,,,,,,,,,,,,,,,,,,,,,,,,,,,,,,,,,,,,,,,,,,,,,,,,,,,,,,,,,,,,,,,,,,,,,,,,,,,,,,,,,,,,,,,,,,,,,,,,,,,,,,,,,,,,,,,,,,,,,,,,
0,48,48,3,1,,615ac48e01928d37d6f9999b,62c53977a9e5fb366c1df99c,2022-07-06_09h28.24.616,Colour_Asymmetry_Pilot,2022.1.3,Win32,50.02751513,62c50e9c1127f2cd403a315f,,,,,,,,,,,,,,,,,,,,,,,,,,,,,,,,,,,,,,,,,,,,,,,,,,,,,,,,,,,,,,,,,,,,,,,,,,,,,,,,,,,,,,,,,,,,,,,,,,,,,,,,,,,,,,,,,,,,,,,,,,,,,,,,,,,,,,,,,,,,,,,,,,,,,,,,,,,,,,,,,,,
0,49,49,42,1,,615ac48e01928d37d6f9999b,62c53977a9e5fb366c1df99c,2022-07-06_09h28.24.616,Colour_Asymmetry_Pilot,2022.1.3,Win32,50.02751513,62c50e9c1127f2cd403a315f,,,,,,,,,,,,,,,,,,,,,,,,,,,,,,,,,,,,,,,,,,,,,,,,,,,,,,,,,,,,,,,,,,,,,,,,,,,,,,,,,,,,,,,,,,,,,,,,,,,,,,,,,,,,,,,,,,,,,,,,,,,,,,,,,,,,,,,,,,,,,,,,,,,,,,,,,,,,,,,,,,,
0,50,50,5,1,,615ac48e01928d37d6f9999b,62c53977a9e5fb366c1df99c,2022-07-06_09h28.24.616,Colour_Asymmetry_Pilot,2022.1.3,Win32,50.02751513,62c50e9c1127f2cd403a315f,,,,,,,,,,,,,,,,,,,,,,,,,,,,,,,,,,,,,,,,,,,,,,,,,,,,,,,,,,,,,,,,,,,,,,,,,,,,,,,,,,,,,,,,,,,,,,,,,,,,,,,,,,,,,,,,,,,,,,,,,,,,,,,,,,,,,,,,,,,,,,,,,,,,,,,,,,,,,,,,,,,
0,51,51,55,1,,615ac48e01928d37d6f9999b,62c53977a9e5fb366c1df99c,2022-07-06_09h28.24.616,Colour_Asymmetry_Pilot,2022.1.3,Win32,50.02751513,62c50e9c1127f2cd403a315f,,,,,,,,,,,,,,,,,,,,,,,,,,,,,,,,,,,,,,,,,,,,,,,,,,,,,,,,,,,,,,,,,,,,,,,,,,,,,,,,,,,,,,,,,,,,,,,,,,,,,,,,,,,,,,,,,,,,,,,,,,,,,,,,,,,,,,,,,,,,,,,,,,,,,,,,,,,,,,,,,,,
0,52,52,10,1,,615ac48e01928d37d6f9999b,62c53977a9e5fb366c1df99c,2022-07-06_09h28.24.616,Colour_Asymmetry_Pilot,2022.1.3,Win32,50.02751513,62c50e9c1127f2cd403a315f,,,,,,,,,,,,,,,,,,,,,,,,,,,,,,,,,,,,,,,,,,,,,,,,,,,,,,,,,,,,,,,,,,,,,,,,,,,,,,,,,,,,,,,,,,,,,,,,,,,,,,,,,,,,,,,,,,,,,,,,,,,,,,,,,,,,,,,,,,,,,,,,,,,,,,,,,,,,,,,,,,,
0,53,53,32,1,,615ac48e01928d37d6f9999b,62c53977a9e5fb366c1df99c,2022-07-06_09h28.24.616,Colour_Asymmetry_Pilot,2022.1.3,Win32,50.02751513,62c50e9c1127f2cd403a315f,,,,,,,,,,,,,,,,,,,,,,,,,,,,,,,,,,,,,,,,,,,,,,,,,,,,,,,,,,,,,,,,,,,,,,,,,,,,,,,,,,,,,,,,,,,,,,,,,,,,,,,,,,,,,,,,,,,,,,,,,,,,,,,,,,,,,,,,,,,,,,,,,,,,,,,,,,,,,,,,,,,
0,54,54,11,1,,615ac48e01928d37d6f9999b,62c53977a9e5fb366c1df99c,2022-07-06_09h28.24.616,Colour_Asymmetry_Pilot,2022.1.3,Win32,50.02751513,62c50e9c1127f2cd403a315f,,,,,,,,,,,,,,,,,,,,,,,,,,,,,,,,,,,,,,,,,,,,,,,,,,,,,,,,,,,,,,,,,,,,,,,,,,,,,,,,,,,,,,,,,,,,,,,,,,,,,,,,,,,,,,,,,,,,,,,,,,,,,,,,,,,,,,,,,,,,,,,,,,,,,,,,,,,,,,,,,,,
0,55,55,53,1,,615ac48e01928d37d6f9999b,62c53977a9e5fb366c1df99c,2022-07-06_09h28.24.616,Colour_Asymmetry_Pilot,2022.1.3,Win32,50.02751513,62c50e9c1127f2cd403a315f,,,,,,,,,,,,,,,,,,,,,,,,,,,,,,,,,,,,,,,,,,,,,,,,,,,,,,,,,,,,,,,,,,,,,,,,,,,,,,,,,,,,,,,,,,,,,,,,,,,,,,,,,,,,,,,,,,,,,,,,,,,,,,,,,,,,,,,,,,,,,,,,,,,,,,,,,,,,,,,,,,,
0,56,56,81,1,,615ac48e01928d37d6f9999b,62c53977a9e5fb366c1df99c,2022-07-06_09h28.24.616,Colour_Asymmetry_Pilot,2022.1.3,Win32,50.02751513,62c50e9c1127f2cd403a315f,,,,,,,,,,,,,,,,,,,,,,,,,,,,,,,,,,,,,,,,,,,,,,,,,,,,,,,,,,,,,,,,,,,,,,,,,,,,,,,,,,,,,,,,,,,,,,,,,,,,,,,,,,,,,,,,,,,,,,,,,,,,,,,,,,,,,,,,,,,,,,,,,,,,,,,,,,,,,,,,,,,
0,57,57,54,1,,615ac48e01928d37d6f9999b,62c53977a9e5fb366c1df99c,2022-07-06_09h28.24.616,Colour_Asymmetry_Pilot,2022.1.3,Win32,50.02751513,62c50e9c1127f2cd403a315f,,,,,,,,,,,,,,,,,,,,,,,,,,,,,,,,,,,,,,,,,,,,,,,,,,,,,,,,,,,,,,,,,,,,,,,,,,,,,,,,,,,,,,,,,,,,,,,,,,,,,,,,,,,,,,,,,,,,,,,,,,,,,,,,,,,,,,,,,,,,,,,,,,,,,,,,,,,,,,,,,,,
0,58,58,76,1,,615ac48e01928d37d6f9999b,62c53977a9e5fb366c1df99c,2022-07-06_09h28.24.616,Colour_Asymmetry_Pilot,2022.1.3,Win32,50.02751513,62c50e9c1127f2cd403a315f,,,,,,,,,,,,,,,,,,,,,,,,,,,,,,,,,,,,,,,,,,,,,,,,,,,,,,,,,,,,,,,,,,,,,,,,,,,,,,,,,,,,,,,,,,,,,,,,,,,,,,,,,,,,,,,,,,,,,,,,,,,,,,,,,,,,,,,,,,,,,,,,,,,,,,,,,,,,,,,,,,,
0,59,59,60,1,,615ac48e01928d37d6f9999b,62c53977a9e5fb366c1df99c,2022-07-06_09h28.24.616,Colour_Asymmetry_Pilot,2022.1.3,Win32,50.02751513,62c50e9c1127f2cd403a315f,,,,,,,,,,,,,,,,,,,,,,,,,,,,,,,,,,,,,,,,,,,,,,,,,,,,,,,,,,,,,,,,,,,,,,,,,,,,,,,,,,,,,,,,,,,,,,,,,,,,,,,,,,,,,,,,,,,,,,,,,,,,,,,,,,,,,,,,,,,,,,,,,,,,,,,,,,,,,,,,,,,
0,60,60,43,1,,615ac48e01928d37d6f9999b,62c53977a9e5fb366c1df99c,2022-07-06_09h28.24.616,Colour_Asymmetry_Pilot,2022.1.3,Win32,50.02751513,62c50e9c1127f2cd403a315f,,,,,,,,,,,,,,,,,,,,,,,,,,,,,,,,,,,,,,,,,,,,,,,,,,,,,,,,,,,,,,,,,,,,,,,,,,,,,,,,,,,,,,,,,,,,,,,,,,,,,,,,,,,,,,,,,,,,,,,,,,,,,,,,,,,,,,,,,,,,,,,,,,,,,,,,,,,,,,,,,,,
0,61,61,31,1,,615ac48e01928d37d6f9999b,62c53977a9e5fb366c1df99c,2022-07-06_09h28.24.616,Colour_Asymmetry_Pilot,2022.1.3,Win32,50.02751513,62c50e9c1127f2cd403a315f,,,,,,,,,,,,,,,,,,,,,,,,,,,,,,,,,,,,,,,,,,,,,,,,,,,,,,,,,,,,,,,,,,,,,,,,,,,,,,,,,,,,,,,,,,,,,,,,,,,,,,,,,,,,,,,,,,,,,,,,,,,,,,,,,,,,,,,,,,,,,,,,,,,,,,,,,,,,,,,,,,,
0,62,62,90,1,,615ac48e01928d37d6f9999b,62c53977a9e5fb366c1df99c,2022-07-06_09h28.24.616,Colour_Asymmetry_Pilot,2022.1.3,Win32,50.02751513,62c50e9c1127f2cd403a315f,,,,,,,,,,,,,,,,,,,,,,,,,,,,,,,,,,,,,,,,,,,,,,,,,,,,,,,,,,,,,,,,,,,,,,,,,,,,,,,,,,,,,,,,,,,,,,,,,,,,,,,,,,,,,,,,,,,,,,,,,,,,,,,,,,,,,,,,,,,,,,,,,,,,,,,,,,,,,,,,,,,
0,63,63,19,1,,615ac48e01928d37d6f9999b,62c53977a9e5fb366c1df99c,2022-07-06_09h28.24.616,Colour_Asymmetry_Pilot,2022.1.3,Win32,50.02751513,62c50e9c1127f2cd403a315f,,,,,,,,,,,,,,,,,,,,,,,,,,,,,,,,,,,,,,,,,,,,,,,,,,,,,,,,,,,,,,,,,,,,,,,,,,,,,,,,,,,,,,,,,,,,,,,,,,,,,,,,,,,,,,,,,,,,,,,,,,,,,,,,,,,,,,,,,,,,,,,,,,,,,,,,,,,,,,,,,,,
0,64,64,1,1,,615ac48e01928d37d6f9999b,62c53977a9e5fb366c1df99c,2022-07-06_09h28.24.616,Colour_Asymmetry_Pilot,2022.1.3,Win32,50.02751513,62c50e9c1127f2cd403a315f,,,,,,,,,,,,,,,,,,,,,,,,,,,,,,,,,,,,,,,,,,,,,,,,,,,,,,,,,,,,,,,,,,,,,,,,,,,,,,,,,,,,,,,,,,,,,,,,,,,,,,,,,,,,,,,,,,,,,,,,,,,,,,,,,,,,,,,,,,,,,,,,,,,,,,,,,,,,,,,,,,,
0,65,65,44,1,,615ac48e01928d37d6f9999b,62c53977a9e5fb366c1df99c,2022-07-06_09h28.24.616,Colour_Asymmetry_Pilot,2022.1.3,Win32,50.02751513,62c50e9c1127f2cd403a315f,,,,,,,,,,,,,,,,,,,,,,,,,,,,,,,,,,,,,,,,,,,,,,,,,,,,,,,,,,,,,,,,,,,,,,,,,,,,,,,,,,,,,,,,,,,,,,,,,,,,,,,,,,,,,,,,,,,,,,,,,,,,,,,,,,,,,,,,,,,,,,,,,,,,,,,,,,,,,,,,,,,
0,66,66,12,1,,615ac48e01928d37d6f9999b,62c53977a9e5fb366c1df99c,2022-07-06_09h28.24.616,Colour_Asymmetry_Pilot,2022.1.3,Win32,50.02751513,62c50e9c1127f2cd403a315f,,,,,,,,,,,,,,,,,,,,,,,,,,,,,,,,,,,,,,,,,,,,,,,,,,,,,,,,,,,,,,,,,,,,,,,,,,,,,,,,,,,,,,,,,,,,,,,,,,,,,,,,,,,,,,,,,,,,,,,,,,,,,,,,,,,,,,,,,,,,,,,,,,,,,,,,,,,,,,,,,,,
0,67,67,7,1,,615ac48e01928d37d6f9999b,62c53977a9e5fb366c1df99c,2022-07-06_09h28.24.616,Colour_Asymmetry_Pilot,2022.1.3,Win32,50.02751513,62c50e9c1127f2cd403a315f,,,,,,,,,,,,,,,,,,,,,,,,,,,,,,,,,,,,,,,,,,,,,,,,,,,,,,,,,,,,,,,,,,,,,,,,,,,,,,,,,,,,,,,,,,,,,,,,,,,,,,,,,,,,,,,,,,,,,,,,,,,,,,,,,,,,,,,,,,,,,,,,,,,,,,,,,,,,,,,,,,,
0,68,68,62,1,,615ac48e01928d37d6f9999b,62c53977a9e5fb366c1df99c,2022-07-06_09h28.24.616,Colour_Asymmetry_Pilot,2022.1.3,Win32,50.02751513,62c50e9c1127f2cd403a315f,,,,,,,,,,,,,,,,,,,,,,,,,,,,,,,,,,,,,,,,,,,,,,,,,,,,,,,,,,,,,,,,,,,,,,,,,,,,,,,,,,,,,,,,,,,,,,,,,,,,,,,,,,,,,,,,,,,,,,,,,,,,,,,,,,,,,,,,,,,,,,,,,,,,,,,,,,,,,,,,,,,
0,69,69,59,1,,615ac48e01928d37d6f9999b,62c53977a9e5fb366c1df99c,2022-07-06_09h28.24.616,Colour_Asymmetry_Pilot,2022.1.3,Win32,50.02751513,62c50e9c1127f2cd403a315f,,,,,,,,,,,,,,,,,,,,,,,,,,,,,,,,,,,,,,,,,,,,,,,,,,,,,,,,,,,,,,,,,,,,,,,,,,,,,,,,,,,,,,,,,,,,,,,,,,,,,,,,,,,,,,,,,,,,,,,,,,,,,,,,,,,,,,,,,,,,,,,,,,,,,,,,,,,,,,,,,,,
0,70,70,34,1,,615ac48e01928d37d6f9999b,62c53977a9e5fb366c1df99c,2022-07-06_09h28.24.616,Colour_Asymmetry_Pilot,2022.1.3,Win32,50.02751513,62c50e9c1127f2cd403a315f,,,,,,,,,,,,,,,,,,,,,,,,,,,,,,,,,,,,,,,,,,,,,,,,,,,,,,,,,,,,,,,,,,,,,,,,,,,,,,,,,,,,,,,,,,,,,,,,,,,,,,,,,,,,,,,,,,,,,,,,,,,,,,,,,,,,,,,,,,,,,,,,,,,,,,,,,,,,,,,,,,,
0,71,71,78,1,,615ac48e01928d37d6f9999b,62c53977a9e5fb366c1df99c,2022-07-06_09h28.24.616,Colour_Asymmetry_Pilot,2022.1.3,Win32,50.02751513,62c50e9c1127f2cd403a315f,,,,,,,,,,,,,,,,,,,,,,,,,,,,,,,,,,,,,,,,,,,,,,,,,,,,,,,,,,,,,,,,,,,,,,,,,,,,,,,,,,,,,,,,,,,,,,,,,,,,,,,,,,,,,,,,,,,,,,,,,,,,,,,,,,,,,,,,,,,,,,,,,,,,,,,,,,,,,,,,,,,
0,72,72,24,1,,615ac48e01928d37d6f9999b,62c53977a9e5fb366c1df99c,2022-07-06_09h28.24.616,Colour_Asymmetry_Pilot,2022.1.3,Win32,50.02751513,62c50e9c1127f2cd403a315f,,,,,,,,,,,,,,,,,,,,,,,,,,,,,,,,,,,,,,,,,,,,,,,,,,,,,,,,,,,,,,,,,,,,,,,,,,,,,,,,,,,,,,,,,,,,,,,,,,,,,,,,,,,,,,,,,,,,,,,,,,,,,,,,,,,,,,,,,,,,,,,,,,,,,,,,,,,,,,,,,,,
0,73,73,41,1,,615ac48e01928d37d6f9999b,62c53977a9e5fb366c1df99c,2022-07-06_09h28.24.616,Colour_Asymmetry_Pilot,2022.1.3,Win32,50.02751513,62c50e9c1127f2cd403a315f,,,,,,,,,,,,,,,,,,,,,,,,,,,,,,,,,,,,,,,,,,,,,,,,,,,,,,,,,,,,,,,,,,,,,,,,,,,,,,,,,,,,,,,,,,,,,,,,,,,,,,,,,,,,,,,,,,,,,,,,,,,,,,,,,,,,,,,,,,,,,,,,,,,,,,,,,,,,,,,,,,,
0,74,74,63,1,,615ac48e01928d37d6f9999b,62c53977a9e5fb366c1df99c,2022-07-06_09h28.24.616,Colour_Asymmetry_Pilot,2022.1.3,Win32,50.02751513,62c50e9c1127f2cd403a315f,,,,,,,,,,,,,,,,,,,,,,,,,,,,,,,,,,,,,,,,,,,,,,,,,,,,,,,,,,,,,,,,,,,,,,,,,,,,,,,,,,,,,,,,,,,,,,,,,,,,,,,,,,,,,,,,,,,,,,,,,,,,,,,,,,,,,,,,,,,,,,,,,,,,,,,,,,,,,,,,,,,
0,75,75,47,1,,615ac48e01928d37d6f9999b,62c53977a9e5fb366c1df99c,2022-07-06_09h28.24.616,Colour_Asymmetry_Pilot,2022.1.3,Win32,50.02751513,62c50e9c1127f2cd403a315f,,,,,,,,,,,,,,,,,,,,,,,,,,,,,,,,,,,,,,,,,,,,,,,,,,,,,,,,,,,,,,,,,,,,,,,,,,,,,,,,,,,,,,,,,,,,,,,,,,,,,,,,,,,,,,,,,,,,,,,,,,,,,,,,,,,,,,,,,,,,,,,,,,,,,,,,,,,,,,,,,,,
0,76,76,51,1,,615ac48e01928d37d6f9999b,62c53977a9e5fb366c1df99c,2022-07-06_09h28.24.616,Colour_Asymmetry_Pilot,2022.1.3,Win32,50.02751513,62c50e9c1127f2cd403a315f,,,,,,,,,,,,,,,,,,,,,,,,,,,,,,,,,,,,,,,,,,,,,,,,,,,,,,,,,,,,,,,,,,,,,,,,,,,,,,,,,,,,,,,,,,,,,,,,,,,,,,,,,,,,,,,,,,,,,,,,,,,,,,,,,,,,,,,,,,,,,,,,,,,,,,,,,,,,,,,,,,,
0,77,77,84,1,,615ac48e01928d37d6f9999b,62c53977a9e5fb366c1df99c,2022-07-06_09h28.24.616,Colour_Asymmetry_Pilot,2022.1.3,Win32,50.02751513,62c50e9c1127f2cd403a315f,,,,,,,,,,,,,,,,,,,,,,,,,,,,,,,,,,,,,,,,,,,,,,,,,,,,,,,,,,,,,,,,,,,,,,,,,,,,,,,,,,,,,,,,,,,,,,,,,,,,,,,,,,,,,,,,,,,,,,,,,,,,,,,,,,,,,,,,,,,,,,,,,,,,,,,,,,,,,,,,,,,
0,78,78,92,1,,615ac48e01928d37d6f9999b,62c53977a9e5fb366c1df99c,2022-07-06_09h28.24.616,Colour_Asymmetry_Pilot,2022.1.3,Win32,50.02751513,62c50e9c1127f2cd403a315f,,,,,,,,,,,,,,,,,,,,,,,,,,,,,,,,,,,,,,,,,,,,,,,,,,,,,,,,,,,,,,,,,,,,,,,,,,,,,,,,,,,,,,,,,,,,,,,,,,,,,,,,,,,,,,,,,,,,,,,,,,,,,,,,,,,,,,,,,,,,,,,,,,,,,,,,,,,,,,,,,,,
0,79,79,64,1,,615ac48e01928d37d6f9999b,62c53977a9e5fb366c1df99c,2022-07-06_09h28.24.616,Colour_Asymmetry_Pilot,2022.1.3,Win32,50.02751513,62c50e9c1127f2cd403a315f,,,,,,,,,,,,,,,,,,,,,,,,,,,,,,,,,,,,,,,,,,,,,,,,,,,,,,,,,,,,,,,,,,,,,,,,,,,,,,,,,,,,,,,,,,,,,,,,,,,,,,,,,,,,,,,,,,,,,,,,,,,,,,,,,,,,,,,,,,,,,,,,,,,,,,,,,,,,,,,,,,,
0,80,80,17,1,,615ac48e01928d37d6f9999b,62c53977a9e5fb366c1df99c,2022-07-06_09h28.24.616,Colour_Asymmetry_Pilot,2022.1.3,Win32,50.02751513,62c50e9c1127f2cd403a315f,,,,,,,,,,,,,,,,,,,,,,,,,,,,,,,,,,,,,,,,,,,,,,,,,,,,,,,,,,,,,,,,,,,,,,,,,,,,,,,,,,,,,,,,,,,,,,,,,,,,,,,,,,,,,,,,,,,,,,,,,,,,,,,,,,,,,,,,,,,,,,,,,,,,,,,,,,,,,,,,,,,
0,81,81,82,1,,615ac48e01928d37d6f9999b,62c53977a9e5fb366c1df99c,2022-07-06_09h28.24.616,Colour_Asymmetry_Pilot,2022.1.3,Win32,50.02751513,62c50e9c1127f2cd403a315f,,,,,,,,,,,,,,,,,,,,,,,,,,,,,,,,,,,,,,,,,,,,,,,,,,,,,,,,,,,,,,,,,,,,,,,,,,,,,,,,,,,,,,,,,,,,,,,,,,,,,,,,,,,,,,,,,,,,,,,,,,,,,,,,,,,,,,,,,,,,,,,,,,,,,,,,,,,,,,,,,,,
0,82,82,48,1,,615ac48e01928d37d6f9999b,62c53977a9e5fb366c1df99c,2022-07-06_09h28.24.616,Colour_Asymmetry_Pilot,2022.1.3,Win32,50.02751513,62c50e9c1127f2cd403a315f,,,,,,,,,,,,,,,,,,,,,,,,,,,,,,,,,,,,,,,,,,,,,,,,,,,,,,,,,,,,,,,,,,,,,,,,,,,,,,,,,,,,,,,,,,,,,,,,,,,,,,,,,,,,,,,,,,,,,,,,,,,,,,,,,,,,,,,,,,,,,,,,,,,,,,,,,,,,,,,,,,,
0,83,83,71,1,,615ac48e01928d37d6f9999b,62c53977a9e5fb366c1df99c,2022-07-06_09h28.24.616,Colour_Asymmetry_Pilot,2022.1.3,Win32,50.02751513,62c50e9c1127f2cd403a315f,,,,,,,,,,,,,,,,,,,,,,,,,,,,,,,,,,,,,,,,,,,,,,,,,,,,,,,,,,,,,,,,,,,,,,,,,,,,,,,,,,,,,,,,,,,,,,,,,,,,,,,,,,,,,,,,,,,,,,,,,,,,,,,,,,,,,,,,,,,,,,,,,,,,,,,,,,,,,,,,,,,
0,84,84,29,1,,615ac48e01928d37d6f9999b,62c53977a9e5fb366c1df99c,2022-07-06_09h28.24.616,Colour_Asymmetry_Pilot,2022.1.3,Win32,50.02751513,62c50e9c1127f2cd403a315f,,,,,,,,,,,,,,,,,,,,,,,,,,,,,,,,,,,,,,,,,,,,,,,,,,,,,,,,,,,,,,,,,,,,,,,,,,,,,,,,,,,,,,,,,,,,,,,,,,,,,,,,,,,,,,,,,,,,,,,,,,,,,,,,,,,,,,,,,,,,,,,,,,,,,,,,,,,,,,,,,,,
0,85,85,68,1,,615ac48e01928d37d6f9999b,62c53977a9e5fb366c1df99c,2022-07-06_09h28.24.616,Colour_Asymmetry_Pilot,2022.1.3,Win32,50.02751513,62c50e9c1127f2cd403a315f,,,,,,,,,,,,,,,,,,,,,,,,,,,,,,,,,,,,,,,,,,,,,,,,,,,,,,,,,,,,,,,,,,,,,,,,,,,,,,,,,,,,,,,,,,,,,,,,,,,,,,,,,,,,,,,,,,,,,,,,,,,,,,,,,,,,,,,,,,,,,,,,,,,,,,,,,,,,,,,,,,,
0,86,86,74,1,,615ac48e01928d37d6f9999b,62c53977a9e5fb366c1df99c,2022-07-06_09h28.24.616,Colour_Asymmetry_Pilot,2022.1.3,Win32,50.02751513,62c50e9c1127f2cd403a315f,,,,,,,,,,,,,,,,,,,,,,,,,,,,,,,,,,,,,,,,,,,,,,,,,,,,,,,,,,,,,,,,,,,,,,,,,,,,,,,,,,,,,,,,,,,,,,,,,,,,,,,,,,,,,,,,,,,,,,,,,,,,,,,,,,,,,,,,,,,,,,,,,,,,,,,,,,,,,,,,,,,
0,87,87,38,1,,615ac48e01928d37d6f9999b,62c53977a9e5fb366c1df99c,2022-07-06_09h28.24.616,Colour_Asymmetry_Pilot,2022.1.3,Win32,50.02751513,62c50e9c1127f2cd403a315f,,,,,,,,,,,,,,,,,,,,,,,,,,,,,,,,,,,,,,,,,,,,,,,,,,,,,,,,,,,,,,,,,,,,,,,,,,,,,,,,,,,,,,,,,,,,,,,,,,,,,,,,,,,,,,,,,,,,,,,,,,,,,,,,,,,,,,,,,,,,,,,,,,,,,,,,,,,,,,,,,,,
0,88,88,61,1,,615ac48e01928d37d6f9999b,62c53977a9e5fb366c1df99c,2022-07-06_09h28.24.616,Colour_Asymmetry_Pilot,2022.1.3,Win32,50.02751513,62c50e9c1127f2cd403a315f,,,,,,,,,,,,,,,,,,,,,,,,,,,,,,,,,,,,,,,,,,,,,,,,,,,,,,,,,,,,,,,,,,,,,,,,,,,,,,,,,,,,,,,,,,,,,,,,,,,,,,,,,,,,,,,,,,,,,,,,,,,,,,,,,,,,,,,,,,,,,,,,,,,,,,,,,,,,,,,,,,,
0,89,89,58,1,,615ac48e01928d37d6f9999b,62c53977a9e5fb366c1df99c,2022-07-06_09h28.24.616,Colour_Asymmetry_Pilot,2022.1.3,Win32,50.02751513,62c50e9c1127f2cd403a315f,,,,,,,,,,,,,,,,,,,,,,,,,,,,,,,,,,,,,,,,,,,,,,,,,,,,,,,,,,,,,,,,,,,,,,,,,,,,,,,,,,,,,,,,,,,,,,,,,,,,,,,,,,,,,,,,,,,,,,,,,,,,,,,,,,,,,,,,,,,,,,,,,,,,,,,,,,,,,,,,,,,
0,90,90,33,1,,615ac48e01928d37d6f9999b,62c53977a9e5fb366c1df99c,2022-07-06_09h28.24.616,Colour_Asymmetry_Pilot,2022.1.3,Win32,50.02751513,62c50e9c1127f2cd403a315f,,,,,,,,,,,,,,,,,,,,,,,,,,,,,,,,,,,,,,,,,,,,,,,,,,,,,,,,,,,,,,,,,,,,,,,,,,,,,,,,,,,,,,,,,,,,,,,,,,,,,,,,,,,,,,,,,,,,,,,,,,,,,,,,,,,,,,,,,,,,,,,,,,,,,,,,,,,,,,,,,,,
0,91,91,22,1,,615ac48e01928d37d6f9999b,62c53977a9e5fb366c1df99c,2022-07-06_09h28.24.616,Colour_Asymmetry_Pilot,2022.1.3,Win32,50.02751513,62c50e9c1127f2cd403a315f,,,,,,,,,,,,,,,,,,,,,,,,,,,,,,,,,,,,,,,,,,,,,,,,,,,,,,,,,,,,,,,,,,,,,,,,,,,,,,,,,,,,,,,,,,,,,,,,,,,,,,,,,,,,,,,,,,,,,,,,,,,,,,,,,,,,,,,,,,,,,,,,,,,,,,,,,,,,,,,,,,,
0,92,92,70,1,,615ac48e01928d37d6f9999b,62c53977a9e5fb366c1df99c,2022-07-06_09h28.24.616,Colour_Asymmetry_Pilot,2022.1.3,Win32,50.02751513,62c50e9c1127f2cd403a315f,,,,,,,,,,,,,,,,,,,,,,,,,,,,,,,,,,,,,,,,,,,,,,,,,,,,,,,,,,,,,,,,,,,,,,,,,,,,,,,,,,,,,,,,,,,,,,,,,,,,,,,,,,,,,,,,,,,,,,,,,,,,,,,,,,,,,,,,,,,,,,,,,,,,,,,,,,,,,,,,,,,
,,,,,,615ac48e01928d37d6f9999b,62c53977a9e5fb366c1df99c,2022-07-06_09h28.24.616,Colour_Asymmetry_Pilot,2022.1.3,Win32,50.02751513,62c50e9c1127f2cd403a315f,0,0,0,102,1,fourtwo,,,,,,,,,,,,,,,,,,,,,,,,,,,,,,,,,,,,,,,,,,,,,,,,,,,,,,,,,,,,,,,,,,,,,,,,,,,,,,,,,,,,,,,,,,,,,,,,,,,,,,,,,,,,,,,,,,,,,,,,,,,,,,,,,,,,,,,,,,,,,,,,,,,,,,,,,,,,,
,,,,,,615ac48e01928d37d6f9999b,62c53977a9e5fb366c1df99c,2022-07-06_09h28.24.616,Colour_Asymmetry_Pilot,2022.1.3,Win32,50.02751513,62c50e9c1127f2cd403a315f,0,1,1,83,1,twofour,,,,,,,,,,,,,,,,,,,,,,,,,,,,,,,,,,,,,,,,,,,,,,,,,,,,,,,,,,,,,,,,,,,,,,,,,,,,,,,,,,,,,,,,,,,,,,,,,,,,,,,,,,,,,,,,,,,,,,,,,,,,,,,,,,,,,,,,,,,,,,,,,,,,,,,,,,,,,
,,,,,,615ac48e01928d37d6f9999b,62c53977a9e5fb366c1df99c,2022-07-06_09h28.24.616,Colour_Asymmetry_Pilot,2022.1.3,Win32,50.02751513,62c50e9c1127f2cd403a315f,0,2,2,58,1,twoone,,,,,,,,,,,,,,,,,,,,,,,,,,,,,,,,,,,,,,,,,,,,,,,,,,,,,,,,,,,,,,,,,,,,,,,,,,,,,,,,,,,,,,,,,,,,,,,,,,,,,,,,,,,,,,,,,,,,,,,,,,,,,,,,,,,,,,,,,,,,,,,,,,,,,,,,,,,,,
,,,,,,615ac48e01928d37d6f9999b,62c53977a9e5fb366c1df99c,2022-07-06_09h28.24.616,Colour_Asymmetry_Pilot,2022.1.3,Win32,50.02751513,62c50e9c1127f2cd403a315f,0,3,3,142,1,fourtwo,,,,,,,,,,,,,,,,,,,,,,,,,,,,,,,,,,,,,,,,,,,,,,,,,,,,,,,,,,,,,,,,,,,,,,,,,,,,,,,,,,,,,,,,,,,,,,,,,,,,,,,,,,,,,,,,,,,,,,,,,,,,,,,,,,,,,,,,,,,,,,,,,,,,,,,,,,,,,
,,,,,,615ac48e01928d37d6f9999b,62c53977a9e5fb366c1df99c,2022-07-06_09h28.24.616,Colour_Asymmetry_Pilot,2022.1.3,Win32,50.02751513,62c50e9c1127f2cd403a315f,0,4,4,89,1,onethree,,,,,,,,,,,,,,,,,,,,,,,,,,,,,,,,,,,,,,,,,,,,,,,,,,,,,,,,,,,,,,,,,,,,,,,,,,,,,,,,,,,,,,,,,,,,,,,,,,,,,,,,,,,,,,,,,,,,,,,,,,,,,,,,,,,,,,,,,,,,,,,,,,,,,,,,,,,,,
,,,,,,615ac48e01928d37d6f9999b,62c53977a9e5fb366c1df99c,2022-07-06_09h28.24.616,Colour_Asymmetry_Pilot,2022.1.3,Win32,50.02751513,62c50e9c1127f2cd403a315f,0,5,5,104,1,onetwo,,,,,,,,,,,,,,,,,,,,,,,,,,,,,,,,,,,,,,,,,,,,,,,,,,,,,,,,,,,,,,,,,,,,,,,,,,,,,,,,,,,,,,,,,,,,,,,,,,,,,,,,,,,,,,,,,,,,,,,,,,,,,,,,,,,,,,,,,,,,,,,,,,,,,,,,,,,,,
,,,,,,615ac48e01928d37d6f9999b,62c53977a9e5fb366c1df99c,2022-07-06_09h28.24.616,Colour_Asymmetry_Pilot,2022.1.3,Win32,50.02751513,62c50e9c1127f2cd403a315f,0,6,6,158,1,fourtwo,,,,,,,,,,,,,,,,,,,,,,,,,,,,,,,,,,,,,,,,,,,,,,,,,,,,,,,,,,,,,,,,,,,,,,,,,,,,,,,,,,,,,,,,,,,,,,,,,,,,,,,,,,,,,,,,,,,,,,,,,,,,,,,,,,,,,,,,,,,,,,,,,,,,,,,,,,,,,
,,,,,,615ac48e01928d37d6f9999b,62c53977a9e5fb366c1df99c,2022-07-06_09h28.24.616,Colour_Asymmetry_Pilot,2022.1.3,Win32,50.02751513,62c50e9c1127f2cd403a315f,0,7,7,135,1,fourthree,,,,,,,,,,,,,,,,,,,,,,,,,,,,,,,,,,,,,,,,,,,,,,,,,,,,,,,,,,,,,,,,,,,,,,,,,,,,,,,,,,,,,,,,,,,,,,,,,,,,,,,,,,,,,,,,,,,,,,,,,,,,,,,,,,,,,,,,,,,,,,,,,,,,,,,,,,,,,
,,,,,,615ac48e01928d37d6f9999b,62c53977a9e5fb366c1df99c,2022-07-06_09h28.24.616,Colour_Asymmetry_Pilot,2022.1.3,Win32,50.02751513,62c50e9c1127f2cd403a315f,0,8,8,34,1,twoone,,,,,,,,,,,,,,,,,,,,,,,,,,,,,,,,,,,,,,,,,,,,,,,,,,,,,,,,,,,,,,,,,,,,,,,,,,,,,,,,,,,,,,,,,,,,,,,,,,,,,,,,,,,,,,,,,,,,,,,,,,,,,,,,,,,,,,,,,,,,,,,,,,,,,,,,,,,,,
,,,,,,615ac48e01928d37d6f9999b,62c53977a9e5fb366c1df99c,2022-07-06_09h28.24.616,Colour_Asymmetry_Pilot,2022.1.3,Win32,50.02751513,62c50e9c1127f2cd403a315f,0,9,9,18,1,twoone,,,,,,,,,,,,,,,,,,,,,,,,,,,,,,,,,,,,,,,,,,,,,,,,,,,,,,,,,,,,,,,,,,,,,,,,,,,,,,,,,,,,,,,,,,,,,,,,,,,,,,,,,,,,,,,,,,,,,,,,,,,,,,,,,,,,,,,,,,,,,,,,,,,,,,,,,,,,,
,,,,,,615ac48e01928d37d6f9999b,62c53977a9e5fb366c1df99c,2022-07-06_09h28.24.616,Colour_Asymmetry_Pilot,2022.1.3,Win32,50.02751513,62c50e9c1127f2cd403a315f,0,10,10,51,1,twofour,,,,,,,,,,,,,,,,,,,,,,,,,,,,,,,,,,,,,,,,,,,,,,,,,,,,,,,,,,,,,,,,,,,,,,,,,,,,,,,,,,,,,,,,,,,,,,,,,,,,,,,,,,,,,,,,,,,,,,,,,,,,,,,,,,,,,,,,,,,,,,,,,,,,,,,,,,,,,
,,,,,,615ac48e01928d37d6f9999b,62c53977a9e5fb366c1df99c,2022-07-06_09h28.24.616,Colour_Asymmetry_Pilot,2022.1.3,Win32,50.02751513,62c50e9c1127f2cd403a315f,0,11,11,49,1,onethree,,,,,,,,,,,,,,,,,,,,,,,,,,,,,,,,,,,,,,,,,,,,,,,,,,,,,,,,,,,,,,,,,,,,,,,,,,,,,,,,,,,,,,,,,,,,,,,,,,,,,,,,,,,,,,,,,,,,,,,,,,,,,,,,,,,,,,,,,,,,,,,,,,,,,,,,,,,,,
,,,,,,615ac48e01928d37d6f9999b,62c53977a9e5fb366c1df99c,2022-07-06_09h28.24.616,Colour_Asymmetry_Pilot,2022.1.3,Win32,50.02751513,62c50e9c1127f2cd403a315f,0,12,12,122,1,twoone,,,,,,,,,,,,,,,,,,,,,,,,,,,,,,,,,,,,,,,,,,,,,,,,,,,,,,,,,,,,,,,,,,,,,,,,,,,,,,,,,,,,,,,,,,,,,,,,,,,,,,,,,,,,,,,,,,,,,,,,,,,,,,,,,,,,,,,,,,,,,,,,,,,,,,,,,,,,,
,,,,,,615ac48e01928d37d6f9999b,62c53977a9e5fb366c1df99c,2022-07-06_09h28.24.616,Colour_Asymmetry_Pilot,2022.1.3,Win32,50.02751513,62c50e9c1127f2cd403a315f,0,13,13,12,1,threeone,,,,,,,,,,,,,,,,,,,,,,,,,,,,,,,,,,,,,,,,,,,,,,,,,,,,,,,,,,,,,,,,,,,,,,,,,,,,,,,,,,,,,,,,,,,,,,,,,,,,,,,,,,,,,,,,,,,,,,,,,,,,,,,,,,,,,,,,,,,,,,,,,,,,,,,,,,,,,
,,,,,,615ac48e01928d37d6f9999b,62c53977a9e5fb366c1df99c,2022-07-06_09h28.24.616,Colour_Asymmetry_Pilot,2022.1.3,Win32,50.02751513,62c50e9c1127f2cd403a315f,0,14,14,40,1,onetwo,,,,,,,,,,,,,,,,,,,,,,,,,,,,,,,,,,,,,,,,,,,,,,,,,,,,,,,,,,,,,,,,,,,,,,,,,,,,,,,,,,,,,,,,,,,,,,,,,,,,,,,,,,,,,,,,,,,,,,,,,,,,,,,,,,,,,,,,,,,,,,,,,,,,,,,,,,,,,
,,,,,,615ac48e01928d37d6f9999b,62c53977a9e5fb366c1df99c,2022-07-06_09h28.24.616,Colour_Asymmetry_Pilot,2022.1.3,Win32,50.02751513,62c50e9c1127f2cd403a315f,0,15,15,143,1,fourthree,,,,,,,,,,,,,,,,,,,,,,,,,,,,,,,,,,,,,,,,,,,,,,,,,,,,,,,,,,,,,,,,,,,,,,,,,,,,,,,,,,,,,,,,,,,,,,,,,,,,,,,,,,,,,,,,,,,,,,,,,,,,,,,,,,,,,,,,,,,,,,,,,,,,,,,,,,,,,
,,,,,,615ac48e01928d37d6f9999b,62c53977a9e5fb366c1df99c,2022-07-06_09h28.24.616,Colour_Asymmetry_Pilot,2022.1.3,Win32,50.02751513,62c50e9c1127f2cd403a315f,0,16,16,157,1,threefour,,,,,,,,,,,,,,,,,,,,,,,,,,,,,,,,,,,,,,,,,,,,,,,,,,,,,,,,,,,,,,,,,,,,,,,,,,,,,,,,,,,,,,,,,,,,,,,,,,,,,,,,,,,,,,,,,,,,,,,,,,,,,,,,,,,,,,,,,,,,,,,,,,,,,,,,,,,,,
,,,,,,615ac48e01928d37d6f9999b,62c53977a9e5fb366c1df99c,2022-07-06_09h28.24.616,Colour_Asymmetry_Pilot,2022.1.3,Win32,50.02751513,62c50e9c1127f2cd403a315f,0,17,17,63,1,fourthree,,,,,,,,,,,,,,,,,,,,,,,,,,,,,,,,,,,,,,,,,,,,,,,,,,,,,,,,,,,,,,,,,,,,,,,,,,,,,,,,,,,,,,,,,,,,,,,,,,,,,,,,,,,,,,,,,,,,,,,,,,,,,,,,,,,,,,,,,,,,,,,,,,,,,,,,,,,,,
,,,,,,615ac48e01928d37d6f9999b,62c53977a9e5fb366c1df99c,2022-07-06_09h28.24.616,Colour_Asymmetry_Pilot,2022.1.3,Win32,50.02751513,62c50e9c1127f2cd403a315f,0,18,18,124,1,threeone,,,,,,,,,,,,,,,,,,,,,,,,,,,,,,,,,,,,,,,,,,,,,,,,,,,,,,,,,,,,,,,,,,,,,,,,,,,,,,,,,,,,,,,,,,,,,,,,,,,,,,,,,,,,,,,,,,,,,,,,,,,,,,,,,,,,,,,,,,,,,,,,,,,,,,,,,,,,,
,,,,,,615ac48e01928d37d6f9999b,62c53977a9e5fb366c1df99c,2022-07-06_09h28.24.616,Colour_Asymmetry_Pilot,2022.1.3,Win32,50.02751513,62c50e9c1127f2cd403a315f,0,19,19,71,1,fourthree,,,,,,,,,,,,,,,,,,,,,,,,,,,,,,,,,,,,,,,,,,,,,,,,,,,,,,,,,,,,,,,,,,,,,,,,,,,,,,,,,,,,,,,,,,,,,,,,,,,,,,,,,,,,,,,,,,,,,,,,,,,,,,,,,,,,,,,,,,,,,,,,,,,,,,,,,,,,,
,,,,,,615ac48e01928d37d6f9999b,62c53977a9e5fb366c1df99c,2022-07-06_09h28.24.616,Colour_Asymmetry_Pilot,2022.1.3,Win32,50.02751513,62c50e9c1127f2cd403a315f,0,20,20,100,1,threeone,,,,,,,,,,,,,,,,,,,,,,,,,,,,,,,,,,,,,,,,,,,,,,,,,,,,,,,,,,,,,,,,,,,,,,,,,,,,,,,,,,,,,,,,,,,,,,,,,,,,,,,,,,,,,,,,,,,,,,,,,,,,,,,,,,,,,,,,,,,,,,,,,,,,,,,,,,,,,
,,,,,,615ac48e01928d37d6f9999b,62c53977a9e5fb366c1df99c,2022-07-06_09h28.24.616,Colour_Asymmetry_Pilot,2022.1.3,Win32,50.02751513,62c50e9c1127f2cd403a315f,0,21,21,139,1,twofour,,,,,,,,,,,,,,,,,,,,,,,,,,,,,,,,,,,,,,,,,,,,,,,,,,,,,,,,,,,,,,,,,,,,,,,,,,,,,,,,,,,,,,,,,,,,,,,,,,,,,,,,,,,,,,,,,,,,,,,,,,,,,,,,,,,,,,,,,,,,,,,,,,,,,,,,,,,,,
,,,,,,615ac48e01928d37d6f9999b,62c53977a9e5fb366c1df99c,2022-07-06_09h28.24.616,Colour_Asymmetry_Pilot,2022.1.3,Win32,50.02751513,62c50e9c1127f2cd403a315f,0,22,22,75,1,twofour,,,,,,,,,,,,,,,,,,,,,,,,,,,,,,,,,,,,,,,,,,,,,,,,,,,,,,,,,,,,,,,,,,,,,,,,,,,,,,,,,,,,,,,,,,,,,,,,,,,,,,,,,,,,,,,,,,,,,,,,,,,,,,,,,,,,,,,,,,,,,,,,,,,,,,,,,,,,,
,,,,,,615ac48e01928d37d6f9999b,62c53977a9e5fb366c1df99c,2022-07-06_09h28.24.616,Colour_Asymmetry_Pilot,2022.1.3,Win32,50.02751513,62c50e9c1127f2cd403a315f,0,23,23,96,1,onetwo,,,,,,,,,,,,,,,,,,,,,,,,,,,,,,,,,,,,,,,,,,,,,,,,,,,,,,,,,,,,,,,,,,,,,,,,,,,,,,,,,,,,,,,,,,,,,,,,,,,,,,,,,,,,,,,,,,,,,,,,,,,,,,,,,,,,,,,,,,,,,,,,,,,,,,,,,,,,,
,,,,,,615ac48e01928d37d6f9999b,62c53977a9e5fb366c1df99c,2022-07-06_09h28.24.616,Colour_Asymmetry_Pilot,2022.1.3,Win32,50.02751513,62c50e9c1127f2cd403a315f,0,24,24,42,1,twoone,,,,,,,,,,,,,,,,,,,,,,,,,,,,,,,,,,,,,,,,,,,,,,,,,,,,,,,,,,,,,,,,,,,,,,,,,,,,,,,,,,,,,,,,,,,,,,,,,,,,,,,,,,,,,,,,,,,,,,,,,,,,,,,,,,,,,,,,,,,,,,,,,,,,,,,,,,,,,
,,,,,,615ac48e01928d37d6f9999b,62c53977a9e5fb366c1df99c,2022-07-06_09h28.24.616,Colour_Asymmetry_Pilot,2022.1.3,Win32,50.02751513,62c50e9c1127f2cd403a315f,0,25,25,110,1,fourtwo,,,,,,,,,,,,,,,,,,,,,,,,,,,,,,,,,,,,,,,,,,,,,,,,,,,,,,,,,,,,,,,,,,,,,,,,,,,,,,,,,,,,,,,,,,,,,,,,,,,,,,,,,,,,,,,,,,,,,,,,,,,,,,,,,,,,,,,,,,,,,,,,,,,,,,,,,,,,,
,,,,,,615ac48e01928d37d6f9999b,62c53977a9e5fb366c1df99c,2022-07-06_09h28.24.616,Colour_Asymmetry_Pilot,2022.1.3,Win32,50.02751513,62c50e9c1127f2cd403a315f,0,26,26,106,1,twoone,,,,,,,,,,,,,,,,,,,,,,,,,,,,,,,,,,,,,,,,,,,,,,,,,,,,,,,,,,,,,,,,,,,,,,,,,,,,,,,,,,,,,,,,,,,,,,,,,,,,,,,,,,,,,,,,,,,,,,,,,,,,,,,,,,,,,,,,,,,,,,,,,,,,,,,,,,,,,
,,,,,,615ac48e01928d37d6f9999b,62c53977a9e5fb366c1df99c,2022-07-06_09h28.24.616,Colour_Asymmetry_Pilot,2022.1.3,Win32,50.02751513,62c50e9c1127f2cd403a315f,0,27,27,48,1,onetwo,,,,,,,,,,,,,,,,,,,,,,,,,,,,,,,,,,,,,,,,,,,,,,,,,,,,,,,,,,,,,,,,,,,,,,,,,,,,,,,,,,,,,,,,,,,,,,,,,,,,,,,,,,,,,,,,,,,,,,,,,,,,,,,,,,,,,,,,,,,,,,,,,,,,,,,,,,,,,
,,,,,,615ac48e01928d37d6f9999b,62c53977a9e5fb366c1df99c,2022-07-06_09h28.24.616,Colour_Asymmetry_Pilot,2022.1.3,Win32,50.02751513,62c50e9c1127f2cd403a315f,0,28,28,46,1,fourtwo,,,,,,,,,,,,,,,,,,,,,,,,,,,,,,,,,,,,,,,,,,,,,,,,,,,,,,,,,,,,,,,,,,,,,,,,,,,,,,,,,,,,,,,,,,,,,,,,,,,,,,,,,,,,,,,,,,,,,,,,,,,,,,,,,,,,,,,,,,,,,,,,,,,,,,,,,,,,,
,,,,,,615ac48e01928d37d6f9999b,62c53977a9e5fb366c1df99c,2022-07-06_09h28.24.616,Colour_Asymmetry_Pilot,2022.1.3,Win32,50.02751513,62c50e9c1127f2cd403a315f,0,29,29,131,1,twofour,,,,,,,,,,,,,,,,,,,,,,,,,,,,,,,,,,,,,,,,,,,,,,,,,,,,,,,,,,,,,,,,,,,,,,,,,,,,,,,,,,,,,,,,,,,,,,,,,,,,,,,,,,,,,,,,,,,,,,,,,,,,,,,,,,,,,,,,,,,,,,,,,,,,,,,,,,,,,
,,,,,,615ac48e01928d37d6f9999b,62c53977a9e5fb366c1df99c,2022-07-06_09h28.24.616,Colour_Asymmetry_Pilot,2022.1.3,Win32,50.02751513,62c50e9c1127f2cd403a315f,0,30,30,39,1,fourthree,,,,,,,,,,,,,,,,,,,,,,,,,,,,,,,,,,,,,,,,,,,,,,,,,,,,,,,,,,,,,,,,,,,,,,,,,,,,,,,,,,,,,,,,,,,,,,,,,,,,,,,,,,,,,,,,,,,,,,,,,,,,,,,,,,,,,,,,,,,,,,,,,,,,,,,,,,,,,
,,,,,,615ac48e01928d37d6f9999b,62c53977a9e5fb366c1df99c,2022-07-06_09h28.24.616,Colour_Asymmetry_Pilot,2022.1.3,Win32,50.02751513,62c50e9c1127f2cd403a315f,0,31,31,1,1,onethree,,,,,,,,,,,,,,,,,,,,,,,,,,,,,,,,,,,,,,,,,,,,,,,,,,,,,,,,,,,,,,,,,,,,,,,,,,,,,,,,,,,,,,,,,,,,,,,,,,,,,,,,,,,,,,,,,,,,,,,,,,,,,,,,,,,,,,,,,,,,,,,,,,,,,,,,,,,,,
,,,,,,615ac48e01928d37d6f9999b,62c53977a9e5fb366c1df99c,2022-07-06_09h28.24.616,Colour_Asymmetry_Pilot,2022.1.3,Win32,50.02751513,62c50e9c1127f2cd403a315f,0,32,32,73,1,onethree,,,,,,,,,,,,,,,,,,,,,,,,,,,,,,,,,,,,,,,,,,,,,,,,,,,,,,,,,,,,,,,,,,,,,,,,,,,,,,,,,,,,,,,,,,,,,,,,,,,,,,,,,,,,,,,,,,,,,,,,,,,,,,,,,,,,,,,,,,,,,,,,,,,,,,,,,,,,,
,,,,,,615ac48e01928d37d6f9999b,62c53977a9e5fb366c1df99c,2022-07-06_09h28.24.616,Colour_Asymmetry_Pilot,2022.1.3,Win32,50.02751513,62c50e9c1127f2cd403a315f,0,33,33,31,1,fourthree,,,,,,,,,,,,,,,,,,,,,,,,,,,,,,,,,,,,,,,,,,,,,,,,,,,,,,,,,,,,,,,,,,,,,,,,,,,,,,,,,,,,,,,,,,,,,,,,,,,,,,,,,,,,,,,,,,,,,,,,,,,,,,,,,,,,,,,,,,,,,,,,,,,,,,,,,,,,,
,,,,,,615ac48e01928d37d6f9999b,62c53977a9e5fb366c1df99c,2022-07-06_09h28.24.616,Colour_Asymmetry_Pilot,2022.1.3,Win32,50.02751513,62c50e9c1127f2cd403a315f,0,34,34,44,1,threeone,,,,,,,,,,,,,,,,,,,,,,,,,,,,,,,,,,,,,,,,,,,,,,,,,,,,,,,,,,,,,,,,,,,,,,,,,,,,,,,,,,,,,,,,,,,,,,,,,,,,,,,,,,,,,,,,,,,,,,,,,,,,,,,,,,,,,,,,,,,,,,,,,,,,,,,,,,,,,
,,,,,,615ac48e01928d37d6f9999b,62c53977a9e5fb366c1df99c,2022-07-06_09h28.24.616,Colour_Asymmetry_Pilot,2022.1.3,Win32,50.02751513,62c50e9c1127f2cd403a315f,0,35,35,87,1,fourthree,,,,,,,,,,,,,,,,,,,,,,,,,,,,,,,,,,,,,,,,,,,,,,,,,,,,,,,,,,,,,,,,,,,,,,,,,,,,,,,,,,,,,,,,,,,,,,,,,,,,,,,,,,,,,,,,,,,,,,,,,,,,,,,,,,,,,,,,,,,,,,,,,,,,,,,,,,,,,
,,,,,,615ac48e01928d37d6f9999b,62c53977a9e5fb366c1df99c,2022-07-06_09h28.24.616,Colour_Asymmetry_Pilot,2022.1.3,Win32,50.02751513,62c50e9c1127f2cd403a315f,0,36,36,2,1,twoone,,,,,,,,,,,,,,,,,,,,,,,,,,,,,,,,,,,,,,,,,,,,,,,,,,,,,,,,,,,,,,,,,,,,,,,,,,,,,,,,,,,,,,,,,,,,,,,,,,,,,,,,,,,,,,,,,,,,,,,,,,,,,,,,,,,,,,,,,,,,,,,,,,,,,,,,,,,,,
,,,,,,615ac48e01928d37d6f9999b,62c53977a9e5fb366c1df99c,2022-07-06_09h28.24.616,Colour_Asymmetry_Pilot,2022.1.3,Win32,50.02751513,62c50e9c1127f2cd403a315f,0,37,37,56,1,onetwo,,,,,,,,,,,,,,,,,,,,,,,,,,,,,,,,,,,,,,,,,,,,,,,,,,,,,,,,,,,,,,,,,,,,,,,,,,,,,,,,,,,,,,,,,,,,,,,,,,,,,,,,,,,,,,,,,,,,,,,,,,,,,,,,,,,,,,,,,,,,,,,,,,,,,,,,,,,,,
,,,,,,615ac48e01928d37d6f9999b,62c53977a9e5fb366c1df99c,2022-07-06_09h28.24.616,Colour_Asymmetry_Pilot,2022.1.3,Win32,50.02751513,62c50e9c1127f2cd403a315f,0,38,38,29,1,threefour,,,,,,,,,,,,,,,,,,,,,,,,,,,,,,,,,,,,,,,,,,,,,,,,,,,,,,,,,,,,,,,,,,,,,,,,,,,,,,,,,,,,,,,,,,,,,,,,,,,,,,,,,,,,,,,,,,,,,,,,,,,,,,,,,,,,,,,,,,,,,,,,,,,,,,,,,,,,,
,,,,,,615ac48e01928d37d6f9999b,62c53977a9e5fb366c1df99c,2022-07-06_09h28.24.616,Colour_Asymmetry_Pilot,2022.1.3,Win32,50.02751513,62c50e9c1127f2cd403a315f,0,39,39,107,1,twofour,,,,,,,,,,,,,,,,,,,,,,,,,,,,,,,,,,,,,,,,,,,,,,,,,,,,,,,,,,,,,,,,,,,,,,,,,,,,,,,,,,,,,,,,,,,,,,,,,,,,,,,,,,,,,,,,,,,,,,,,,,,,,,,,,,,,,,,,,,,,,,,,,,,,,,,,,,,,,
,,,,,,615ac48e01928d37d6f9999b,62c53977a9e5fb366c1df99c,2022-07-06_09h28.24.616,Colour_Asymmetry_Pilot,2022.1.3,Win32,50.02751513,62c50e9c1127f2cd403a315f,0,40,40,123,1,twofour,,,,,,,,,,,,,,,,,,,,,,,,,,,,,,,,,,,,,,,,,,,,,,,,,,,,,,,,,,,,,,,,,,,,,,,,,,,,,,,,,,,,,,,,,,,,,,,,,,,,,,,,,,,,,,,,,,,,,,,,,,,,,,,,,,,,,,,,,,,,,,,,,,,,,,,,,,,,,
,,,,,,615ac48e01928d37d6f9999b,62c53977a9e5fb366c1df99c,2022-07-06_09h28.24.616,Colour_Asymmetry_Pilot,2022.1.3,Win32,50.02751513,62c50e9c1127f2cd403a315f,0,41,41,152,1,onetwo,,,,,,,,,,,,,,,,,,,,,,,,,,,,,,,,,,,,,,,,,,,,,,,,,,,,,,,,,,,,,,,,,,,,,,,,,,,,,,,,,,,,,,,,,,,,,,,,,,,,,,,,,,,,,,,,,,,,,,,,,,,,,,,,,,,,,,,,,,,,,,,,,,,,,,,,,,,,,
,,,,,,615ac48e01928d37d6f9999b,62c53977a9e5fb366c1df99c,2022-07-06_09h28.24.616,Colour_Asymmetry_Pilot,2022.1.3,Win32,50.02751513,62c50e9c1127f2cd403a315f,0,42,42,55,1,fourthree,,,,,,,,,,,,,,,,,,,,,,,,,,,,,,,,,,,,,,,,,,,,,,,,,,,,,,,,,,,,,,,,,,,,,,,,,,,,,,,,,,,,,,,,,,,,,,,,,,,,,,,,,,,,,,,,,,,,,,,,,,,,,,,,,,,,,,,,,,,,,,,,,,,,,,,,,,,,,
,,,,,,615ac48e01928d37d6f9999b,62c53977a9e5fb366c1df99c,2022-07-06_09h28.24.616,Colour_Asymmetry_Pilot,2022.1.3,Win32,50.02751513,62c50e9c1127f2cd403a315f,0,43,43,108,1,threeone,,,,,,,,,,,,,,,,,,,,,,,,,,,,,,,,,,,,,,,,,,,,,,,,,,,,,,,,,,,,,,,,,,,,,,,,,,,,,,,,,,,,,,,,,,,,,,,,,,,,,,,,,,,,,,,,,,,,,,,,,,,,,,,,,,,,,,,,,,,,,,,,,,,,,,,,,,,,,
,,,,,,615ac48e01928d37d6f9999b,62c53977a9e5fb366c1df99c,2022-07-06_09h28.24.616,Colour_Asymmetry_Pilot,2022.1.3,Win32,50.02751513,62c50e9c1127f2cd403a315f,0,44,44,53,1,threefour,,,,,,,,,,,,,,,,,,,,,,,,,,,,,,,,,,,,,,,,,,,,,,,,,,,,,,,,,,,,,,,,,,,,,,,,,,,,,,,,,,,,,,,,,,,,,,,,,,,,,,,,,,,,,,,,,,,,,,,,,,,,,,,,,,,,,,,,,,,,,,,,,,,,,,,,,,,,,
,,,,,,615ac48e01928d37d6f9999b,62c53977a9e5fb366c1df99c,2022-07-06_09h28.24.616,Colour_Asymmetry_Pilot,2022.1.3,Win32,50.02751513,62c50e9c1127f2cd403a315f,0,45,45,57,1,onethree,,,,,,,,,,,,,,,,,,,,,,,,,,,,,,,,,,,,,,,,,,,,,,,,,,,,,,,,,,,,,,,,,,,,,,,,,,,,,,,,,,,,,,,,,,,,,,,,,,,,,,,,,,,,,,,,,,,,,,,,,,,,,,,,,,,,,,,,,,,,,,,,,,,,,,,,,,,,,
,,,,,,615ac48e01928d37d6f9999b,62c53977a9e5fb366c1df99c,2022-07-06_09h28.24.616,Colour_Asymmetry_Pilot,2022.1.3,Win32,50.02751513,62c50e9c1127f2cd403a315f,0,46,46,97,1,onethree,,,,,,,,,,,,,,,,,,,,,,,,,,,,,,,,,,,,,,,,,,,,,,,,,,,,,,,,,,,,,,,,,,,,,,,,,,,,,,,,,,,,,,,,,,,,,,,,,,,,,,,,,,,,,,,,,,,,,,,,,,,,,,,,,,,,,,,,,,,,,,,,,,,,,,,,,,,,,
,,,,,,615ac48e01928d37d6f9999b,62c53977a9e5fb366c1df99c,2022-07-06_09h28.24.616,Colour_Asymmetry_Pilot,2022.1.3,Win32,50.02751513,62c50e9c1127f2cd403a315f,0,47,47,36,1,threeone,,,,,,,,,,,,,,,,,,,,,,,,,,,,,,,,,,,,,,,,,,,,,,,,,,,,,,,,,,,,,,,,,,,,,,,,,,,,,,,,,,,,,,,,,,,,,,,,,,,,,,,,,,,,,,,,,,,,,,,,,,,,,,,,,,,,,,,,,,,,,,,,,,,,,,,,,,,,,
,,,,,,615ac48e01928d37d6f9999b,62c53977a9e5fb366c1df99c,2022-07-06_09h28.24.616,Colour_Asymmetry_Pilot,2022.1.3,Win32,50.02751513,62c50e9c1127f2cd403a315f,0,48,48,88,1,onetwo,,,,,,,,,,,,,,,,,,,,,,,,,,,,,,,,,,,,,,,,,,,,,,,,,,,,,,,,,,,,,,,,,,,,,,,,,,,,,,,,,,,,,,,,,,,,,,,,,,,,,,,,,,,,,,,,,,,,,,,,,,,,,,,,,,,,,,,,,,,,,,,,,,,,,,,,,,,,,
,,,,,,615ac48e01928d37d6f9999b,62c53977a9e5fb366c1df99c,2022-07-06_09h28.24.616,Colour_Asymmetry_Pilot,2022.1.3,Win32,50.02751513,62c50e9c1127f2cd403a315f,0,49,49,14,1,fourtwo,,,,,,,,,,,,,,,,,,,,,,,,,,,,,,,,,,,,,,,,,,,,,,,,,,,,,,,,,,,,,,,,,,,,,,,,,,,,,,,,,,,,,,,,,,,,,,,,,,,,,,,,,,,,,,,,,,,,,,,,,,,,,,,,,,,,,,,,,,,,,,,,,,,,,,,,,,,,,
,,,,,,615ac48e01928d37d6f9999b,62c53977a9e5fb366c1df99c,2022-07-06_09h28.24.616,Colour_Asymmetry_Pilot,2022.1.3,Win32,50.02751513,62c50e9c1127f2cd403a315f,0,50,50,60,1,threeone,,,,,,,,,,,,,,,,,,,,,,,,,,,,,,,,,,,,,,,,,,,,,,,,,,,,,,,,,,,,,,,,,,,,,,,,,,,,,,,,,,,,,,,,,,,,,,,,,,,,,,,,,,,,,,,,,,,,,,,,,,,,,,,,,,,,,,,,,,,,,,,,,,,,,,,,,,,,,
,,,,,,615ac48e01928d37d6f9999b,62c53977a9e5fb366c1df99c,2022-07-06_09h28.24.616,Colour_Asymmetry_Pilot,2022.1.3,Win32,50.02751513,62c50e9c1127f2cd403a315f,0,51,51,16,1,onetwo,,,,,,,,,,,,,,,,,,,,,,,,,,,,,,,,,,,,,,,,,,,,,,,,,,,,,,,,,,,,,,,,,,,,,,,,,,,,,,,,,,,,,,,,,,,,,,,,,,,,,,,,,,,,,,,,,,,,,,,,,,,,,,,,,,,,,,,,,,,,,,,,,,,,,,,,,,,,,
,,,,,,615ac48e01928d37d6f9999b,62c53977a9e5fb366c1df99c,2022-07-06_09h28.24.616,Colour_Asymmetry_Pilot,2022.1.3,Win32,50.02751513,62c50e9c1127f2cd403a315f,0,52,52,121,1,onethree,,,,,,,,,,,,,,,,,,,,,,,,,,,,,,,,,,,,,,,,,,,,,,,,,,,,,,,,,,,,,,,,,,,,,,,,,,,,,,,,,,,,,,,,,,,,,,,,,,,,,,,,,,,,,,,,,,,,,,,,,,,,,,,,,,,,,,,,,,,,,,,,,,,,,,,,,,,,,
,,,,,,615ac48e01928d37d6f9999b,62c53977a9e5fb366c1df99c,2022-07-06_09h28.24.616,Colour_Asymmetry_Pilot,2022.1.3,Win32,50.02751513,62c50e9c1127f2cd403a315f,0,53,53,119,1,fourthree,,,,,,,,,,,,,,,,,,,,,,,,,,,,,,,,,,,,,,,,,,,,,,,,,,,,,,,,,,,,,,,,,,,,,,,,,,,,,,,,,,,,,,,,,,,,,,,,,,,,,,,,,,,,,,,,,,,,,,,,,,,,,,,,,,,,,,,,,,,,,,,,,,,,,,,,,,,,,
,,,,,,615ac48e01928d37d6f9999b,62c53977a9e5fb366c1df99c,2022-07-06_09h28.24.616,Colour_Asymmetry_Pilot,2022.1.3,Win32,50.02751513,62c50e9c1127f2cd403a315f,0,54,54,127,1,fourthree,,,,,,,,,,,,,,,,,,,,,,,,,,,,,,,,,,,,,,,,,,,,,,,,,,,,,,,,,,,,,,,,,,,,,,,,,,,,,,,,,,,,,,,,,,,,,,,,,,,,,,,,,,,,,,,,,,,,,,,,,,,,,,,,,,,,,,,,,,,,,,,,,,,,,,,,,,,,,
,,,,,,615ac48e01928d37d6f9999b,62c53977a9e5fb366c1df99c,2022-07-06_09h28.24.616,Colour_Asymmetry_Pilot,2022.1.3,Win32,50.02751513,62c50e9c1127f2cd403a315f,0,55,55,70,1,fourtwo,,,,,,,,,,,,,,,,,,,,,,,,,,,,,,,,,,,,,,,,,,,,,,,,,,,,,,,,,,,,,,,,,,,,,,,,,,,,,,,,,,,,,,,,,,,,,,,,,,,,,,,,,,,,,,,,,,,,,,,,,,,,,,,,,,,,,,,,,,,,,,,,,,,,,,,,,,,,,
,,,,,,615ac48e01928d37d6f9999b,62c53977a9e5fb366c1df99c,2022-07-06_09h28.24.616,Colour_Asymmetry_Pilot,2022.1.3,Win32,50.02751513,62c50e9c1127f2cd403a315f,0,56,56,65,1,onethree,,,,,,,,,,,,,,,,,,,,,,,,,,,,,,,,,,,,,,,,,,,,,,,,,,,,,,,,,,,,,,,,,,,,,,,,,,,,,,,,,,,,,,,,,,,,,,,,,,,,,,,,,,,,,,,,,,,,,,,,,,,,,,,,,,,,,,,,,,,,,,,,,,,,,,,,,,,,,
,,,,,,615ac48e01928d37d6f9999b,62c53977a9e5fb366c1df99c,2022-07-06_09h28.24.616,Colour_Asymmetry_Pilot,2022.1.3,Win32,50.02751513,62c50e9c1127f2cd403a315f,0,57,57,11,1,twofour,,,,,,,,,,,,,,,,,,,,,,,,,,,,,,,,,,,,,,,,,,,,,,,,,,,,,,,,,,,,,,,,,,,,,,,,,,,,,,,,,,,,,,,,,,,,,,,,,,,,,,,,,,,,,,,,,,,,,,,,,,,,,,,,,,,,,,,,,,,,,,,,,,,,,,,,,,,,,
,,,,,,615ac48e01928d37d6f9999b,62c53977a9e5fb366c1df99c,2022-07-06_09h28.24.616,Colour_Asymmetry_Pilot,2022.1.3,Win32,50.02751513,62c50e9c1127f2cd403a315f,0,58,58,136,1,onetwo,,,,,,,,,,,,,,,,,,,,,,,,,,,,,,,,,,,,,,,,,,,,,,,,,,,,,,,,,,,,,,,,,,,,,,,,,,,,,,,,,,,,,,,,,,,,,,,,,,,,,,,,,,,,,,,,,,,,,,,,,,,,,,,,,,,,,,,,,,,,,,,,,,,,,,,,,,,,,
,,,,,,615ac48e01928d37d6f9999b,62c53977a9e5fb366c1df99c,2022-07-06_09h28.24.616,Colour_Asymmetry_Pilot,2022.1.3,Win32,50.02751513,62c50e9c1127f2cd403a315f,0,59,59,114,1,twoone,,,,,,,,,,,,,,,,,,,,,,,,,,,,,,,,,,,,,,,,,,,,,,,,,,,,,,,,,,,,,,,,,,,,,,,,,,,,,,,,,,,,,,,,,,,,,,,,,,,,,,,,,,,,,,,,,,,,,,,,,,,,,,,,,,,,,,,,,,,,,,,,,,,,,,,,,,,,,
,,,,,,615ac48e01928d37d6f9999b,62c53977a9e5fb366c1df99c,2022-07-06_09h28.24.616,Colour_Asymmetry_Pilot,2022.1.3,Win32,50.02751513,62c50e9c1127f2cd403a315f,0,60,60,138,1,twoone,,,,,,,,,,,,,,,,,,,,,,,,,,,,,,,,,,,,,,,,,,,,,,,,,,,,,,,,,,,,,,,,,,,,,,,,,,,,,,,,,,,,,,,,,,,,,,,,,,,,,,,,,,,,,,,,,,,,,,,,,,,,,,,,,,,,,,,,,,,,,,,,,,,,,,,,,,,,,
,,,,,,615ac48e01928d37d6f9999b,62c53977a9e5fb366c1df99c,2022-07-06_09h28.24.616,Colour_Asymmetry_Pilot,2022.1.3,Win32,50.02751513,62c50e9c1127f2cd403a315f,0,61,61,24,1,onetwo,,,,,,,,,,,,,,,,,,,,,,,,,,,,,,,,,,,,,,,,,,,,,,,,,,,,,,,,,,,,,,,,,,,,,,,,,,,,,,,,,,,,,,,,,,,,,,,,,,,,,,,,,,,,,,,,,,,,,,,,,,,,,,,,,,,,,,,,,,,,,,,,,,,,,,,,,,,,,
,,,,,,615ac48e01928d37d6f9999b,62c53977a9e5fb366c1df99c,2022-07-06_09h28.24.616,Colour_Asymmetry_Pilot,2022.1.3,Win32,50.02751513,62c50e9c1127f2cd403a315f,0,62,62,84,1,threeone,,,,,,,,,,,,,,,,,,,,,,,,,,,,,,,,,,,,,,,,,,,,,,,,,,,,,,,,,,,,,,,,,,,,,,,,,,,,,,,,,,,,,,,,,,,,,,,,,,,,,,,,,,,,,,,,,,,,,,,,,,,,,,,,,,,,,,,,,,,,,,,,,,,,,,,,,,,,,
,,,,,,615ac48e01928d37d6f9999b,62c53977a9e5fb366c1df99c,2022-07-06_09h28.24.616,Colour_Asymmetry_Pilot,2022.1.3,Win32,50.02751513,62c50e9c1127f2cd403a315f,0,63,63,150,1,fourtwo,,,,,,,,,,,,,,,,,,,,,,,,,,,,,,,,,,,,,,,,,,,,,,,,,,,,,,,,,,,,,,,,,,,,,,,,,,,,,,,,,,,,,,,,,,,,,,,,,,,,,,,,,,,,,,,,,,,,,,,,,,,,,,,,,,,,,,,,,,,,,,,,,,,,,,,,,,,,,
,,,,,,615ac48e01928d37d6f9999b,62c53977a9e5fb366c1df99c,2022-07-06_09h28.24.616,Colour_Asymmetry_Pilot,2022.1.3,Win32,50.02751513,62c50e9c1127f2cd403a315f,0,64,64,155,1,twofour,,,,,,,,,,,,,,,,,,,,,,,,,,,,,,,,,,,,,,,,,,,,,,,,,,,,,,,,,,,,,,,,,,,,,,,,,,,,,,,,,,,,,,,,,,,,,,,,,,,,,,,,,,,,,,,,,,,,,,,,,,,,,,,,,,,,,,,,,,,,,,,,,,,,,,,,,,,,,
,,,,,,615ac48e01928d37d6f9999b,62c53977a9e5fb366c1df99c,2022-07-06_09h28.24.616,Colour_Asymmetry_Pilot,2022.1.3,Win32,50.02751513,62c50e9c1127f2cd403a315f,0,65,65,47,1,fourthree,,,,,,,,,,,,,,,,,,,,,,,,,,,,,,,,,,,,,,,,,,,,,,,,,,,,,,,,,,,,,,,,,,,,,,,,,,,,,,,,,,,,,,,,,,,,,,,,,,,,,,,,,,,,,,,,,,,,,,,,,,,,,,,,,,,,,,,,,,,,,,,,,,,,,,,,,,,,,
,,,,,,615ac48e01928d37d6f9999b,62c53977a9e5fb366c1df99c,2022-07-06_09h28.24.616,Colour_Asymmetry_Pilot,2022.1.3,Win32,50.02751513,62c50e9c1127f2cd403a315f,0,66,66,134,1,fourtwo,,,,,,,,,,,,,,,,,,,,,,,,,,,,,,,,,,,,,,,,,,,,,,,,,,,,,,,,,,,,,,,,,,,,,,,,,,,,,,,,,,,,,,,,,,,,,,,,,,,,,,,,,,,,,,,,,,,,,,,,,,,,,,,,,,,,,,,,,,,,,,,,,,,,,,,,,,,,,
,,,,,,615ac48e01928d37d6f9999b,62c53977a9e5fb366c1df99c,2022-07-06_09h28.24.616,Colour_Asymmetry_Pilot,2022.1.3,Win32,50.02751513,62c50e9c1127f2cd403a315f,0,67,67,3,1,twofour,,,,,,,,,,,,,,,,,,,,,,,,,,,,,,,,,,,,,,,,,,,,,,,,,,,,,,,,,,,,,,,,,,,,,,,,,,,,,,,,,,,,,,,,,,,,,,,,,,,,,,,,,,,,,,,,,,,,,,,,,,,,,,,,,,,,,,,,,,,,,,,,,,,,,,,,,,,,,
,,,,,,615ac48e01928d37d6f9999b,62c53977a9e5fb366c1df99c,2022-07-06_09h28.24.616,Colour_Asymmetry_Pilot,2022.1.3,Win32,50.02751513,62c50e9c1127f2cd403a315f,0,68,68,62,1,fourtwo,,,,,,,,,,,,,,,,,,,,,,,,,,,,,,,,,,,,,,,,,,,,,,,,,,,,,,,,,,,,,,,,,,,,,,,,,,,,,,,,,,,,,,,,,,,,,,,,,,,,,,,,,,,,,,,,,,,,,,,,,,,,,,,,,,,,,,,,,,,,,,,,,,,,,,,,,,,,,
,,,,,,615ac48e01928d37d6f9999b,62c53977a9e5fb366c1df99c,2022-07-06_09h28.24.616,Colour_Asymmetry_Pilot,2022.1.3,Win32,50.02751513,62c50e9c1127f2cd403a315f,0,69,69,120,1,onetwo,,,,,,,,,,,,,,,,,,,,,,,,,,,,,,,,,,,,,,,,,,,,,,,,,,,,,,,,,,,,,,,,,,,,,,,,,,,,,,,,,,,,,,,,,,,,,,,,,,,,,,,,,,,,,,,,,,,,,,,,,,,,,,,,,,,,,,,,,,,,,,,,,,,,,,,,,,,,,
,,,,,,615ac48e01928d37d6f9999b,62c53977a9e5fb366c1df99c,2022-07-06_09h28.24.616,Colour_Asymmetry_Pilot,2022.1.3,Win32,50.02751513,62c50e9c1127f2cd403a315f,0,70,70,144,1,onetwo,,,,,,,,,,,,,,,,,,,,,,,,,,,,,,,,,,,,,,,,,,,,,,,,,,,,,,,,,,,,,,,,,,,,,,,,,,,,,,,,,,,,,,,,,,,,,,,,,,,,,,,,,,,,,,,,,,,,,,,,,,,,,,,,,,,,,,,,,,,,,,,,,,,,,,,,,,,,,
,,,,,,615ac48e01928d37d6f9999b,62c53977a9e5fb366c1df99c,2022-07-06_09h28.24.616,Colour_Asymmetry_Pilot,2022.1.3,Win32,50.02751513,62c50e9c1127f2cd403a315f,0,71,71,79,1,fourthree,,,,,,,,,,,,,,,,,,,,,,,,,,,,,,,,,,,,,,,,,,,,,,,,,,,,,,,,,,,,,,,,,,,,,,,,,,,,,,,,,,,,,,,,,,,,,,,,,,,,,,,,,,,,,,,,,,,,,,,,,,,,,,,,,,,,,,,,,,,,,,,,,,,,,,,,,,,,,
,,,,,,615ac48e01928d37d6f9999b,62c53977a9e5fb366c1df99c,2022-07-06_09h28.24.616,Colour_Asymmetry_Pilot,2022.1.3,Win32,50.02751513,62c50e9c1127f2cd403a315f,0,72,72,91,1,twofour,,,,,,,,,,,,,,,,,,,,,,,,,,,,,,,,,,,,,,,,,,,,,,,,,,,,,,,,,,,,,,,,,,,,,,,,,,,,,,,,,,,,,,,,,,,,,,,,,,,,,,,,,,,,,,,,,,,,,,,,,,,,,,,,,,,,,,,,,,,,,,,,,,,,,,,,,,,,,
,,,,,,615ac48e01928d37d6f9999b,62c53977a9e5fb366c1df99c,2022-07-06_09h28.24.616,Colour_Asymmetry_Pilot,2022.1.3,Win32,50.02751513,62c50e9c1127f2cd403a315f,0,73,73,7,1,fourthree,,,,,,,,,,,,,,,,,,,,,,,,,,,,,,,,,,,,,,,,,,,,,,,,,,,,,,,,,,,,,,,,,,,,,,,,,,,,,,,,,,,,,,,,,,,,,,,,,,,,,,,,,,,,,,,,,,,,,,,,,,,,,,,,,,,,,,,,,,,,,,,,,,,,,,,,,,,,,
,,,,,,615ac48e01928d37d6f9999b,62c53977a9e5fb366c1df99c,2022-07-06_09h28.24.616,Colour_Asymmetry_Pilot,2022.1.3,Win32,50.02751513,62c50e9c1127f2cd403a315f,0,74,74,30,1,fourtwo,,,,,,,,,,,,,,,,,,,,,,,,,,,,,,,,,,,,,,,,,,,,,,,,,,,,,,,,,,,,,,,,,,,,,,,,,,,,,,,,,,,,,,,,,,,,,,,,,,,,,,,,,,,,,,,,,,,,,,,,,,,,,,,,,,,,,,,,,,,,,,,,,,,,,,,,,,,,,
,,,,,,615ac48e01928d37d6f9999b,62c53977a9e5fb366c1df99c,2022-07-06_09h28.24.616,Colour_Asymmetry_Pilot,2022.1.3,Win32,50.02751513,62c50e9c1127f2cd403a315f,0,75,75,9,1,onethree,,,,,,,,,,,,,,,,,,,,,,,,,,,,,,,,,,,,,,,,,,,,,,,,,,,,,,,,,,,,,,,,,,,,,,,,,,,,,,,,,,,,,,,,,,,,,,,,,,,,,,,,,,,,,,,,,,,,,,,,,,,,,,,,,,,,,,,,,,,,,,,,,,,,,,,,,,,,,
,,,,,,615ac48e01928d37d6f9999b,62c53977a9e5fb366c1df99c,2022-07-06_09h28.24.616,Colour_Asymmetry_Pilot,2022.1.3,Win32,50.02751513,62c50e9c1127f2cd403a315f,0,76,76,45,1,threefour,,,,,,,,,,,,,,,,,,,,,,,,,,,,,,,,,,,,,,,,,,,,,,,,,,,,,,,,,,,,,,,,,,,,,,,,,,,,,,,,,,,,,,,,,,,,,,,,,,,,,,,,,,,,,,,,,,,,,,,,,,,,,,,,,,,,,,,,,,,,,,,,,,,,,,,,,,,,,
,,,,,,615ac48e01928d37d6f9999b,62c53977a9e5fb366c1df99c,2022-07-06_09h28.24.616,Colour_Asymmetry_Pilot,2022.1.3,Win32,50.02751513,62c50e9c1127f2cd403a315f,0,77,77,80,1,onetwo,,,,,,,,,,,,,,,,,,,,,,,,,,,,,,,,,,,,,,,,,,,,,,,,,,,,,,,,,,,,,,,,,,,,,,,,,,,,,,,,,,,,,,,,,,,,,,,,,,,,,,,,,,,,,,,,,,,,,,,,,,,,,,,,,,,,,,,,,,,,,,,,,,,,,,,,,,,,,
,,,,,,615ac48e01928d37d6f9999b,62c53977a9e5fb366c1df99c,2022-07-06_09h28.24.616,Colour_Asymmetry_Pilot,2022.1.3,Win32,50.02751513,62c50e9c1127f2cd403a315f,0,78,78,10,1,twoone,,,,,,,,,,,,,,,,,,,,,,,,,,,,,,,,,,,,,,,,,,,,,,,,,,,,,,,,,,,,,,,,,,,,,,,,,,,,,,,,,,,,,,,,,,,,,,,,,,,,,,,,,,,,,,,,,,,,,,,,,,,,,,,,,,,,,,,,,,,,,,,,,,,,,,,,,,,,,
,,,,,,615ac48e01928d37d6f9999b,62c53977a9e5fb366c1df99c,2022-07-06_09h28.24.616,Colour_Asymmetry_Pilot,2022.1.3,Win32,50.02751513,62c50e9c1127f2cd403a315f,0,79,79,93,1,threefour,,,,,,,,,,,,,,,,,,,,,,,,,,,,,,,,,,,,,,,,,,,,,,,,,,,,,,,,,,,,,,,,,,,,,,,,,,,,,,,,,,,,,,,,,,,,,,,,,,,,,,,,,,,,,,,,,,,,,,,,,,,,,,,,,,,,,,,,,,,,,,,,,,,,,,,,,,,,,
,,,,,,615ac48e01928d37d6f9999b,62c53977a9e5fb366c1df99c,2022-07-06_09h28.24.616,Colour_Asymmetry_Pilot,2022.1.3,Win32,50.02751513,62c50e9c1127f2cd403a315f,0,80,80,82,1,twoone,,,,,,,,,,,,,,,,,,,,,,,,,,,,,,,,,,,,,,,,,,,,,,,,,,,,,,,,,,,,,,,,,,,,,,,,,,,,,,,,,,,,,,,,,,,,,,,,,,,,,,,,,,,,,,,,,,,,,,,,,,,,,,,,,,,,,,,,,,,,,,,,,,,,,,,,,,,,,
,,,,,,615ac48e01928d37d6f9999b,62c53977a9e5fb366c1df99c,2022-07-06_09h28.24.616,Colour_Asymmetry_Pilot,2022.1.3,Win32,50.02751513,62c50e9c1127f2cd403a315f,0,81,81,148,1,threeone,,,,,,,,,,,,,,,,,,,,,,,,,,,,,,,,,,,,,,,,,,,,,,,,,,,,,,,,,,,,,,,,,,,,,,,,,,,,,,,,,,,,,,,,,,,,,,,,,,,,,,,,,,,,,,,,,,,,,,,,,,,,,,,,,,,,,,,,,,,,,,,,,,,,,,,,,,,,,
,,,,,,615ac48e01928d37d6f9999b,62c53977a9e5fb366c1df99c,2022-07-06_09h28.24.616,Colour_Asymmetry_Pilot,2022.1.3,Win32,50.02751513,62c50e9c1127f2cd403a315f,0,82,82,15,1,fourthree,,,,,,,,,,,,,,,,,,,,,,,,,,,,,,,,,,,,,,,,,,,,,,,,,,,,,,,,,,,,,,,,,,,,,,,,,,,,,,,,,,,,,,,,,,,,,,,,,,,,,,,,,,,,,,,,,,,,,,,,,,,,,,,,,,,,,,,,,,,,,,,,,,,,,,,,,,,,,
,,,,,,615ac48e01928d37d6f9999b,62c53977a9e5fb366c1df99c,2022-07-06_09h28.24.616,Colour_Asymmetry_Pilot,2022.1.3,Win32,50.02751513,62c50e9c1127f2cd403a315f,0,83,83,95,1,fourthree,,,,,,,,,,,,,,,,,,,,,,,,,,,,,,,,,,,,,,,,,,,,,,,,,,,,,,,,,,,,,,,,,,,,,,,,,,,,,,,,,,,,,,,,,,,,,,,,,,,,,,,,,,,,,,,,,,,,,,,,,,,,,,,,,,,,,,,,,,,,,,,,,,,,,,,,,,,,,
,,,,,,615ac48e01928d37d6f9999b,62c53977a9e5fb366c1df99c,2022-07-06_09h28.24.616,Colour_Asymmetry_Pilot,2022.1.3,Win32,50.02751513,62c50e9c1127f2cd403a315f,0,84,84,145,1,onethree,,,,,,,,,,,,,,,,,,,,,,,,,,,,,,,,,,,,,,,,,,,,,,,,,,,,,,,,,,,,,,,,,,,,,,,,,,,,,,,,,,,,,,,,,,,,,,,,,,,,,,,,,,,,,,,,,,,,,,,,,,,,,,,,,,,,,,,,,,,,,,,,,,,,,,,,,,,,,
,,,,,,615ac48e01928d37d6f9999b,62c53977a9e5fb366c1df99c,2022-07-06_09h28.24.616,Colour_Asymmetry_Pilot,2022.1.3,Win32,50.02751513,62c50e9c1127f2cd403a315f,0,85,85,126,1,fourtwo,,,,,,,,,,,,,,,,,,,,,,,,,,,,,,,,,,,,,,,,,,,,,,,,,,,,,,,,,,,,,,,,,,,,,,,,,,,,,,,,,,,,,,,,,,,,,,,,,,,,,,,,,,,,,,,,,,,,,,,,,,,,,,,,,,,,,,,,,,,,,,,,,,,,,,,,,,,,,
,,,,,,615ac48e01928d37d6f9999b,62c53977a9e5fb366c1df99c,2022-07-06_09h28.24.616,Colour_Asymmetry_Pilot,2022.1.3,Win32,50.02751513,62c50e9c1127f2cd403a315f,0,86,86,37,1,threefour,,,,,,,,,,,,,,,,,,,,,,,,,,,,,,,,,,,,,,,,,,,,,,,,,,,,,,,,,,,,,,,,,,,,,,,,,,,,,,,,,,,,,,,,,,,,,,,,,,,,,,,,,,,,,,,,,,,,,,,,,,,,,,,,,,,,,,,,,,,,,,,,,,,,,,,,,,,,,
,,,,,,615ac48e01928d37d6f9999b,62c53977a9e5fb366c1df99c,2022-07-06_09h28.24.616,Colour_Asymmetry_Pilot,2022.1.3,Win32,50.02751513,62c50e9c1127f2cd403a315f,0,87,87,28,1,threeone,,,,,,,,,,,,,,,,,,,,,,,,,,,,,,,,,,,,,,,,,,,,,,,,,,,,,,,,,,,,,,,,,,,,,,,,,,,,,,,,,,,,,,,,,,,,,,,,,,,,,,,,,,,,,,,,,,,,,,,,,,,,,,,,,,,,,,,,,,,,,,,,,,,,,,,,,,,,,
,,,,,,615ac48e01928d37d6f9999b,62c53977a9e5fb366c1df99c,2022-07-06_09h28.24.616,Colour_Asymmetry_Pilot,2022.1.3,Win32,50.02751513,62c50e9c1127f2cd403a315f,0,88,88,21,1,threefour,,,,,,,,,,,,,,,,,,,,,,,,,,,,,,,,,,,,,,,,,,,,,,,,,,,,,,,,,,,,,,,,,,,,,,,,,,,,,,,,,,,,,,,,,,,,,,,,,,,,,,,,,,,,,,,,,,,,,,,,,,,,,,,,,,,,,,,,,,,,,,,,,,,,,,,,,,,,,
,,,,,,615ac48e01928d37d6f9999b,62c53977a9e5fb366c1df99c,2022-07-06_09h28.24.616,Colour_Asymmetry_Pilot,2022.1.3,Win32,50.02751513,62c50e9c1127f2cd403a315f,0,89,89,8,1,onetwo,,,,,,,,,,,,,,,,,,,,,,,,,,,,,,,,,,,,,,,,,,,,,,,,,,,,,,,,,,,,,,,,,,,,,,,,,,,,,,,,,,,,,,,,,,,,,,,,,,,,,,,,,,,,,,,,,,,,,,,,,,,,,,,,,,,,,,,,,,,,,,,,,,,,,,,,,,,,,
,,,,,,615ac48e01928d37d6f9999b,62c53977a9e5fb366c1df99c,2022-07-06_09h28.24.616,Colour_Asymmetry_Pilot,2022.1.3,Win32,50.02751513,62c50e9c1127f2cd403a315f,0,90,90,69,1,threefour,,,,,,,,,,,,,,,,,,,,,,,,,,,,,,,,,,,,,,,,,,,,,,,,,,,,,,,,,,,,,,,,,,,,,,,,,,,,,,,,,,,,,,,,,,,,,,,,,,,,,,,,,,,,,,,,,,,,,,,,,,,,,,,,,,,,,,,,,,,,,,,,,,,,,,,,,,,,,
,,,,,,615ac48e01928d37d6f9999b,62c53977a9e5fb366c1df99c,2022-07-06_09h28.24.616,Colour_Asymmetry_Pilot,2022.1.3,Win32,50.02751513,62c50e9c1127f2cd403a315f,0,91,91,112,1,onetwo,,,,,,,,,,,,,,,,,,,,,,,,,,,,,,,,,,,,,,,,,,,,,,,,,,,,,,,,,,,,,,,,,,,,,,,,,,,,,,,,,,,,,,,,,,,,,,,,,,,,,,,,,,,,,,,,,,,,,,,,,,,,,,,,,,,,,,,,,,,,,,,,,,,,,,,,,,,,,
,,,,,,615ac48e01928d37d6f9999b,62c53977a9e5fb366c1df99c,2022-07-06_09h28.24.616,Colour_Asymmetry_Pilot,2022.1.3,Win32,50.02751513,62c50e9c1127f2cd403a315f,0,92,92,32,1,onetwo,,,,,,,,,,,,,,,,,,,,,,,,,,,,,,,,,,,,,,,,,,,,,,,,,,,,,,,,,,,,,,,,,,,,,,,,,,,,,,,,,,,,,,,,,,,,,,,,,,,,,,,,,,,,,,,,,,,,,,,,,,,,,,,,,,,,,,,,,,,,,,,,,,,,,,,,,,,,,
,,,,,,615ac48e01928d37d6f9999b,62c53977a9e5fb366c1df99c,2022-07-06_09h28.24.616,Colour_Asymmetry_Pilot,2022.1.3,Win32,50.02751513,62c50e9c1127f2cd403a315f,0,93,93,61,1,threefour,,,,,,,,,,,,,,,,,,,,,,,,,,,,,,,,,,,,,,,,,,,,,,,,,,,,,,,,,,,,,,,,,,,,,,,,,,,,,,,,,,,,,,,,,,,,,,,,,,,,,,,,,,,,,,,,,,,,,,,,,,,,,,,,,,,,,,,,,,,,,,,,,,,,,,,,,,,,,
,,,,,,615ac48e01928d37d6f9999b,62c53977a9e5fb366c1df99c,2022-07-06_09h28.24.616,Colour_Asymmetry_Pilot,2022.1.3,Win32,50.02751513,62c50e9c1127f2cd403a315f,0,94,94,141,1,threefour,,,,,,,,,,,,,,,,,,,,,,,,,,,,,,,,,,,,,,,,,,,,,,,,,,,,,,,,,,,,,,,,,,,,,,,,,,,,,,,,,,,,,,,,,,,,,,,,,,,,,,,,,,,,,,,,,,,,,,,,,,,,,,,,,,,,,,,,,,,,,,,,,,,,,,,,,,,,,
,,,,,,615ac48e01928d37d6f9999b,62c53977a9e5fb366c1df99c,2022-07-06_09h28.24.616,Colour_Asymmetry_Pilot,2022.1.3,Win32,50.02751513,62c50e9c1127f2cd403a315f,0,95,95,64,1,onetwo,,,,,,,,,,,,,,,,,,,,,,,,,,,,,,,,,,,,,,,,,,,,,,,,,,,,,,,,,,,,,,,,,,,,,,,,,,,,,,,,,,,,,,,,,,,,,,,,,,,,,,,,,,,,,,,,,,,,,,,,,,,,,,,,,,,,,,,,,,,,,,,,,,,,,,,,,,,,,
,,,,,,615ac48e01928d37d6f9999b,62c53977a9e5fb366c1df99c,2022-07-06_09h28.24.616,Colour_Asymmetry_Pilot,2022.1.3,Win32,50.02751513,62c50e9c1127f2cd403a315f,0,96,96,140,1,threeone,,,,,,,,,,,,,,,,,,,,,,,,,,,,,,,,,,,,,,,,,,,,,,,,,,,,,,,,,,,,,,,,,,,,,,,,,,,,,,,,,,,,,,,,,,,,,,,,,,,,,,,,,,,,,,,,,,,,,,,,,,,,,,,,,,,,,,,,,,,,,,,,,,,,,,,,,,,,,
,,,,,,615ac48e01928d37d6f9999b,62c53977a9e5fb366c1df99c,2022-07-06_09h28.24.616,Colour_Asymmetry_Pilot,2022.1.3,Win32,50.02751513,62c50e9c1127f2cd403a315f,0,97,97,130,1,twoone,,,,,,,,,,,,,,,,,,,,,,,,,,,,,,,,,,,,,,,,,,,,,,,,,,,,,,,,,,,,,,,,,,,,,,,,,,,,,,,,,,,,,,,,,,,,,,,,,,,,,,,,,,,,,,,,,,,,,,,,,,,,,,,,,,,,,,,,,,,,,,,,,,,,,,,,,,,,,
,,,,,,615ac48e01928d37d6f9999b,62c53977a9e5fb366c1df99c,2022-07-06_09h28.24.616,Colour_Asymmetry_Pilot,2022.1.3,Win32,50.02751513,62c50e9c1127f2cd403a315f,0,98,98,54,1,fourtwo,,,,,,,,,,,,,,,,,,,,,,,,,,,,,,,,,,,,,,,,,,,,,,,,,,,,,,,,,,,,,,,,,,,,,,,,,,,,,,,,,,,,,,,,,,,,,,,,,,,,,,,,,,,,,,,,,,,,,,,,,,,,,,,,,,,,,,,,,,,,,,,,,,,,,,,,,,,,,
,,,,,,615ac48e01928d37d6f9999b,62c53977a9e5fb366c1df99c,2022-07-06_09h28.24.616,Colour_Asymmetry_Pilot,2022.1.3,Win32,50.02751513,62c50e9c1127f2cd403a315f,0,99,99,160,1,onetwo,,,,,,,,,,,,,,,,,,,,,,,,,,,,,,,,,,,,,,,,,,,,,,,,,,,,,,,,,,,,,,,,,,,,,,,,,,,,,,,,,,,,,,,,,,,,,,,,,,,,,,,,,,,,,,,,,,,,,,,,,,,,,,,,,,,,,,,,,,,,,,,,,,,,,,,,,,,,,
,,,,,,615ac48e01928d37d6f9999b,62c53977a9e5fb366c1df99c,2022-07-06_09h28.24.616,Colour_Asymmetry_Pilot,2022.1.3,Win32,50.02751513,62c50e9c1127f2cd403a315f,0,100,100,59,1,twofour,,,,,,,,,,,,,,,,,,,,,,,,,,,,,,,,,,,,,,,,,,,,,,,,,,,,,,,,,,,,,,,,,,,,,,,,,,,,,,,,,,,,,,,,,,,,,,,,,,,,,,,,,,,,,,,,,,,,,,,,,,,,,,,,,,,,,,,,,,,,,,,,,,,,,,,,,,,,,
,,,,,,615ac48e01928d37d6f9999b,62c53977a9e5fb366c1df99c,2022-07-06_09h28.24.616,Colour_Asymmetry_Pilot,2022.1.3,Win32,50.02751513,62c50e9c1127f2cd403a315f,0,101,101,98,1,twoone,,,,,,,,,,,,,,,,,,,,,,,,,,,,,,,,,,,,,,,,,,,,,,,,,,,,,,,,,,,,,,,,,,,,,,,,,,,,,,,,,,,,,,,,,,,,,,,,,,,,,,,,,,,,,,,,,,,,,,,,,,,,,,,,,,,,,,,,,,,,,,,,,,,,,,,,,,,,,
,,,,,,615ac48e01928d37d6f9999b,62c53977a9e5fb366c1df99c,2022-07-06_09h28.24.616,Colour_Asymmetry_Pilot,2022.1.3,Win32,50.02751513,62c50e9c1127f2cd403a315f,0,102,102,77,1,threefour,,,,,,,,,,,,,,,,,,,,,,,,,,,,,,,,,,,,,,,,,,,,,,,,,,,,,,,,,,,,,,,,,,,,,,,,,,,,,,,,,,,,,,,,,,,,,,,,,,,,,,,,,,,,,,,,,,,,,,,,,,,,,,,,,,,,,,,,,,,,,,,,,,,,,,,,,,,,,
,,,,,,615ac48e01928d37d6f9999b,62c53977a9e5fb366c1df99c,2022-07-06_09h28.24.616,Colour_Asymmetry_Pilot,2022.1.3,Win32,50.02751513,62c50e9c1127f2cd403a315f,0,103,103,27,1,twofour,,,,,,,,,,,,,,,,,,,,,,,,,,,,,,,,,,,,,,,,,,,,,,,,,,,,,,,,,,,,,,,,,,,,,,,,,,,,,,,,,,,,,,,,,,,,,,,,,,,,,,,,,,,,,,,,,,,,,,,,,,,,,,,,,,,,,,,,,,,,,,,,,,,,,,,,,,,,,
,,,,,,615ac48e01928d37d6f9999b,62c53977a9e5fb366c1df99c,2022-07-06_09h28.24.616,Colour_Asymmetry_Pilot,2022.1.3,Win32,50.02751513,62c50e9c1127f2cd403a315f,0,104,104,4,1,threeone,,,,,,,,,,,,,,,,,,,,,,,,,,,,,,,,,,,,,,,,,,,,,,,,,,,,,,,,,,,,,,,,,,,,,,,,,,,,,,,,,,,,,,,,,,,,,,,,,,,,,,,,,,,,,,,,,,,,,,,,,,,,,,,,,,,,,,,,,,,,,,,,,,,,,,,,,,,,,
,,,,,,615ac48e01928d37d6f9999b,62c53977a9e5fb366c1df99c,2022-07-06_09h28.24.616,Colour_Asymmetry_Pilot,2022.1.3,Win32,50.02751513,62c50e9c1127f2cd403a315f,0,105,105,103,1,fourthree,,,,,,,,,,,,,,,,,,,,,,,,,,,,,,,,,,,,,,,,,,,,,,,,,,,,,,,,,,,,,,,,,,,,,,,,,,,,,,,,,,,,,,,,,,,,,,,,,,,,,,,,,,,,,,,,,,,,,,,,,,,,,,,,,,,,,,,,,,,,,,,,,,,,,,,,,,,,,
,,,,,,615ac48e01928d37d6f9999b,62c53977a9e5fb366c1df99c,2022-07-06_09h28.24.616,Colour_Asymmetry_Pilot,2022.1.3,Win32,50.02751513,62c50e9c1127f2cd403a315f,0,106,106,6,1,fourtwo,,,,,,,,,,,,,,,,,,,,,,,,,,,,,,,,,,,,,,,,,,,,,,,,,,,,,,,,,,,,,,,,,,,,,,,,,,,,,,,,,,,,,,,,,,,,,,,,,,,,,,,,,,,,,,,,,,,,,,,,,,,,,,,,,,,,,,,,,,,,,,,,,,,,,,,,,,,,,
,,,,,,615ac48e01928d37d6f9999b,62c53977a9e5fb366c1df99c,2022-07-06_09h28.24.616,Colour_Asymmetry_Pilot,2022.1.3,Win32,50.02751513,62c50e9c1127f2cd403a315f,0,107,107,19,1,twofour,,,,,,,,,,,,,,,,,,,,,,,,,,,,,,,,,,,,,,,,,,,,,,,,,,,,,,,,,,,,,,,,,,,,,,,,,,,,,,,,,,,,,,,,,,,,,,,,,,,,,,,,,,,,,,,,,,,,,,,,,,,,,,,,,,,,,,,,,,,,,,,,,,,,,,,,,,,,,
,,,,,,615ac48e01928d37d6f9999b,62c53977a9e5fb366c1df99c,2022-07-06_09h28.24.616,Colour_Asymmetry_Pilot,2022.1.3,Win32,50.02751513,62c50e9c1127f2cd403a315f,0,108,108,161,1,onethree,,,,,,,,,,,,,,,,,,,,,,,,,,,,,,,,,,,,,,,,,,,,,,,,,,,,,,,,,,,,,,,,,,,,,,,,,,,,,,,,,,,,,,,,,,,,,,,,,,,,,,,,,,,,,,,,,,,,,,,,,,,,,,,,,,,,,,,,,,,,,,,,,,,,,,,,,,,,,
,,,,,,615ac48e01928d37d6f9999b,62c53977a9e5fb366c1df99c,2022-07-06_09h28.24.616,Colour_Asymmetry_Pilot,2022.1.3,Win32,50.02751513,62c50e9c1127f2cd403a315f,0,109,109,137,1,onethree,,,,,,,,,,,,,,,,,,,,,,,,,,,,,,,,,,,,,,,,,,,,,,,,,,,,,,,,,,,,,,,,,,,,,,,,,,,,,,,,,,,,,,,,,,,,,,,,,,,,,,,,,,,,,,,,,,,,,,,,,,,,,,,,,,,,,,,,,,,,,,,,,,,,,,,,,,,,,
,,,,,,615ac48e01928d37d6f9999b,62c53977a9e5fb366c1df99c,2022-07-06_09h28.24.616,Colour_Asymmetry_Pilot,2022.1.3,Win32,50.02751513,62c50e9c1127f2cd403a315f,0,110,110,20,1,threeone,,,,,,,,,,,,,,,,,,,,,,,,,,,,,,,,,,,,,,,,,,,,,,,,,,,,,,,,,,,,,,,,,,,,,,,,,,,,,,,,,,,,,,,,,,,,,,,,,,,,,,,,,,,,,,,,,,,,,,,,,,,,,,,,,,,,,,,,,,,,,,,,,,,,,,,,,,,,,
,,,,,,615ac48e01928d37d6f9999b,62c53977a9e5fb366c1df99c,2022-07-06_09h28.24.616,Colour_Asymmetry_Pilot,2022.1.3,Win32,50.02751513,62c50e9c1127f2cd403a315f,0,111,111,0,1,onetwo,,,,,,,,,,,,,,,,,,,,,,,,,,,,,,,,,,,,,,,,,,,,,,,,,,,,,,,,,,,,,,,,,,,,,,,,,,,,,,,,,,,,,,,,,,,,,,,,,,,,,,,,,,,,,,,,,,,,,,,,,,,,,,,,,,,,,,,,,,,,,,,,,,,,,,,,,,,,,
,,,,,,615ac48e01928d37d6f9999b,62c53977a9e5fb366c1df99c,2022-07-06_09h28.24.616,Colour_Asymmetry_Pilot,2022.1.3,Win32,50.02751513,62c50e9c1127f2cd403a315f,0,112,112,109,1,threefour,,,,,,,,,,,,,,,,,,,,,,,,,,,,,,,,,,,,,,,,,,,,,,,,,,,,,,,,,,,,,,,,,,,,,,,,,,,,,,,,,,,,,,,,,,,,,,,,,,,,,,,,,,,,,,,,,,,,,,,,,,,,,,,,,,,,,,,,,,,,,,,,,,,,,,,,,,,,,
,,,,,,615ac48e01928d37d6f9999b,62c53977a9e5fb366c1df99c,2022-07-06_09h28.24.616,Colour_Asymmetry_Pilot,2022.1.3,Win32,50.02751513,62c50e9c1127f2cd403a315f,0,113,113,154,1,twoone,,,,,,,,,,,,,,,,,,,,,,,,,,,,,,,,,,,,,,,,,,,,,,,,,,,,,,,,,,,,,,,,,,,,,,,,,,,,,,,,,,,,,,,,,,,,,,,,,,,,,,,,,,,,,,,,,,,,,,,,,,,,,,,,,,,,,,,,,,,,,,,,,,,,,,,,,,,,,
,,,,,,615ac48e01928d37d6f9999b,62c53977a9e5fb366c1df99c,2022-07-06_09h28.24.616,Colour_Asymmetry_Pilot,2022.1.3,Win32,50.02751513,62c50e9c1127f2cd403a315f,0,114,114,78,1,fourtwo,,,,,,,,,,,,,,,,,,,,,,,,,,,,,,,,,,,,,,,,,,,,,,,,,,,,,,,,,,,,,,,,,,,,,,,,,,,,,,,,,,,,,,,,,,,,,,,,,,,,,,,,,,,,,,,,,,,,,,,,,,,,,,,,,,,,,,,,,,,,,,,,,,,,,,,,,,,,,
,,,,,,615ac48e01928d37d6f9999b,62c53977a9e5fb366c1df99c,2022-07-06_09h28.24.616,Colour_Asymmetry_Pilot,2022.1.3,Win32,50.02751513,62c50e9c1127f2cd403a315f,0,115,115,26,1,twoone,,,,,,,,,,,,,,,,,,,,,,,,,,,,,,,,,,,,,,,,,,,,,,,,,,,,,,,,,,,,,,,,,,,,,,,,,,,,,,,,,,,,,,,,,,,,,,,,,,,,,,,,,,,,,,,,,,,,,,,,,,,,,,,,,,,,,,,,,,,,,,,,,,,,,,,,,,,,,
,,,,,,615ac48e01928d37d6f9999b,62c53977a9e5fb366c1df99c,2022-07-06_09h28.24.616,Colour_Asymmetry_Pilot,2022.1.3,Win32,50.02751513,62c50e9c1127f2cd403a315f,0,116,116,94,1,fourtwo,,,,,,,,,,,,,,,,,,,,,,,,,,,,,,,,,,,,,,,,,,,,,,,,,,,,,,,,,,,,,,,,,,,,,,,,,,,,,,,,,,,,,,,,,,,,,,,,,,,,,,,,,,,,,,,,,,,,,,,,,,,,,,,,,,,,,,,,,,,,,,,,,,,,,,,,,,,,,
,,,,,,615ac48e01928d37d6f9999b,62c53977a9e5fb366c1df99c,2022-07-06_09h28.24.616,Colour_Asymmetry_Pilot,2022.1.3,Win32,50.02751513,62c50e9c1127f2cd403a315f,0,117,117,129,1,onethree,,,,,,,,,,,,,,,,,,,,,,,,,,,,,,,,,,,,,,,,,,,,,,,,,,,,,,,,,,,,,,,,,,,,,,,,,,,,,,,,,,,,,,,,,,,,,,,,,,,,,,,,,,,,,,,,,,,,,,,,,,,,,,,,,,,,,,,,,,,,,,,,,,,,,,,,,,,,,
,,,,,,615ac48e01928d37d6f9999b,62c53977a9e5fb366c1df99c,2022-07-06_09h28.24.616,Colour_Asymmetry_Pilot,2022.1.3,Win32,50.02751513,62c50e9c1127f2cd403a315f,0,118,118,5,1,threefour,,,,,,,,,,,,,,,,,,,,,,,,,,,,,,,,,,,,,,,,,,,,,,,,,,,,,,,,,,,,,,,,,,,,,,,,,,,,,,,,,,,,,,,,,,,,,,,,,,,,,,,,,,,,,,,,,,,,,,,,,,,,,,,,,,,,,,,,,,,,,,,,,,,,,,,,,,,,,
,,,,,,615ac48e01928d37d6f9999b,62c53977a9e5fb366c1df99c,2022-07-06_09h28.24.616,Colour_Asymmetry_Pilot,2022.1.3,Win32,50.02751513,62c50e9c1127f2cd403a315f,0,119,119,33,1,onethree,,,,,,,,,,,,,,,,,,,,,,,,,,,,,,,,,,,,,,,,,,,,,,,,,,,,,,,,,,,,,,,,,,,,,,,,,,,,,,,,,,,,,,,,,,,,,,,,,,,,,,,,,,,,,,,,,,,,,,,,,,,,,,,,,,,,,,,,,,,,,,,,,,,,,,,,,,,,,
,,,,,,615ac48e01928d37d6f9999b,62c53977a9e5fb366c1df99c,2022-07-06_09h28.24.616,Colour_Asymmetry_Pilot,2022.1.3,Win32,50.02751513,62c50e9c1127f2cd403a315f,0,120,120,133,1,threefour,,,,,,,,,,,,,,,,,,,,,,,,,,,,,,,,,,,,,,,,,,,,,,,,,,,,,,,,,,,,,,,,,,,,,,,,,,,,,,,,,,,,,,,,,,,,,,,,,,,,,,,,,,,,,,,,,,,,,,,,,,,,,,,,,,,,,,,,,,,,,,,,,,,,,,,,,,,,,
,,,,,,615ac48e01928d37d6f9999b,62c53977a9e5fb366c1df99c,2022-07-06_09h28.24.616,Colour_Asymmetry_Pilot,2022.1.3,Win32,50.02751513,62c50e9c1127f2cd403a315f,0,121,121,35,1,twofour,,,,,,,,,,,,,,,,,,,,,,,,,,,,,,,,,,,,,,,,,,,,,,,,,,,,,,,,,,,,,,,,,,,,,,,,,,,,,,,,,,,,,,,,,,,,,,,,,,,,,,,,,,,,,,,,,,,,,,,,,,,,,,,,,,,,,,,,,,,,,,,,,,,,,,,,,,,,,
,,,,,,615ac48e01928d37d6f9999b,62c53977a9e5fb366c1df99c,2022-07-06_09h28.24.616,Colour_Asymmetry_Pilot,2022.1.3,Win32,50.02751513,62c50e9c1127f2cd403a315f,0,122,122,74,1,twoone,,,,,,,,,,,,,,,,,,,,,,,,,,,,,,,,,,,,,,,,,,,,,,,,,,,,,,,,,,,,,,,,,,,,,,,,,,,,,,,,,,,,,,,,,,,,,,,,,,,,,,,,,,,,,,,,,,,,,,,,,,,,,,,,,,,,,,,,,,,,,,,,,,,,,,,,,,,,,
,,,,,,615ac48e01928d37d6f9999b,62c53977a9e5fb366c1df99c,2022-07-06_09h28.24.616,Colour_Asymmetry_Pilot,2022.1.3,Win32,50.02751513,62c50e9c1127f2cd403a315f,0,123,123,23,1,fourthree,,,,,,,,,,,,,,,,,,,,,,,,,,,,,,,,,,,,,,,,,,,,,,,,,,,,,,,,,,,,,,,,,,,,,,,,,,,,,,,,,,,,,,,,,,,,,,,,,,,,,,,,,,,,,,,,,,,,,,,,,,,,,,,,,,,,,,,,,,,,,,,,,,,,,,,,,,,,,
,,,,,,615ac48e01928d37d6f9999b,62c53977a9e5fb366c1df99c,2022-07-06_09h28.24.616,Colour_Asymmetry_Pilot,2022.1.3,Win32,50.02751513,62c50e9c1127f2cd403a315f,0,124,124,43,1,twofour,,,,,,,,,,,,,,,,,,,,,,,,,,,,,,,,,,,,,,,,,,,,,,,,,,,,,,,,,,,,,,,,,,,,,,,,,,,,,,,,,,,,,,,,,,,,,,,,,,,,,,,,,,,,,,,,,,,,,,,,,,,,,,,,,,,,,,,,,,,,,,,,,,,,,,,,,,,,,
,,,,,,615ac48e01928d37d6f9999b,62c53977a9e5fb366c1df99c,2022-07-06_09h28.24.616,Colour_Asymmetry_Pilot,2022.1.3,Win32,50.02751513,62c50e9c1127f2cd403a315f,0,125,125,101,1,threefour,,,,,,,,,,,,,,,,,,,,,,,,,,,,,,,,,,,,,,,,,,,,,,,,,,,,,,,,,,,,,,,,,,,,,,,,,,,,,,,,,,,,,,,,,,,,,,,,,,,,,,,,,,,,,,,,,,,,,,,,,,,,,,,,,,,,,,,,,,,,,,,,,,,,,,,,,,,,,
,,,,,,615ac48e01928d37d6f9999b,62c53977a9e5fb366c1df99c,2022-07-06_09h28.24.616,Colour_Asymmetry_Pilot,2022.1.3,Win32,50.02751513,62c50e9c1127f2cd403a315f,0,126,126,128,1,onetwo,,,,,,,,,,,,,,,,,,,,,,,,,,,,,,,,,,,,,,,,,,,,,,,,,,,,,,,,,,,,,,,,,,,,,,,,,,,,,,,,,,,,,,,,,,,,,,,,,,,,,,,,,,,,,,,,,,,,,,,,,,,,,,,,,,,,,,,,,,,,,,,,,,,,,,,,,,,,,
,,,,,,615ac48e01928d37d6f9999b,62c53977a9e5fb366c1df99c,2022-07-06_09h28.24.616,Colour_Asymmetry_Pilot,2022.1.3,Win32,50.02751513,62c50e9c1127f2cd403a315f,0,127,127,17,1,onethree,,,,,,,,,,,,,,,,,,,,,,,,,,,,,,,,,,,,,,,,,,,,,,,,,,,,,,,,,,,,,,,,,,,,,,,,,,,,,,,,,,,,,,,,,,,,,,,,,,,,,,,,,,,,,,,,,,,,,,,,,,,,,,,,,,,,,,,,,,,,,,,,,,,,,,,,,,,,,
,,,,,,615ac48e01928d37d6f9999b,62c53977a9e5fb366c1df99c,2022-07-06_09h28.24.616,Colour_Asymmetry_Pilot,2022.1.3,Win32,50.02751513,62c50e9c1127f2cd403a315f,0,128,128,92,1,threeone,,,,,,,,,,,,,,,,,,,,,,,,,,,,,,,,,,,,,,,,,,,,,,,,,,,,,,,,,,,,,,,,,,,,,,,,,,,,,,,,,,,,,,,,,,,,,,,,,,,,,,,,,,,,,,,,,,,,,,,,,,,,,,,,,,,,,,,,,,,,,,,,,,,,,,,,,,,,,
,,,,,,615ac48e01928d37d6f9999b,62c53977a9e5fb366c1df99c,2022-07-06_09h28.24.616,Colour_Asymmetry_Pilot,2022.1.3,Win32,50.02751513,62c50e9c1127f2cd403a315f,0,129,129,85,1,threefour,,,,,,,,,,,,,,,,,,,,,,,,,,,,,,,,,,,,,,,,,,,,,,,,,,,,,,,,,,,,,,,,,,,,,,,,,,,,,,,,,,,,,,,,,,,,,,,,,,,,,,,,,,,,,,,,,,,,,,,,,,,,,,,,,,,,,,,,,,,,,,,,,,,,,,,,,,,,,
,,,,,,615ac48e01928d37d6f9999b,62c53977a9e5fb366c1df99c,2022-07-06_09h28.24.616,Colour_Asymmetry_Pilot,2022.1.3,Win32,50.02751513,62c50e9c1127f2cd403a315f,0,130,130,66,1,twoone,,,,,,,,,,,,,,,,,,,,,,,,,,,,,,,,,,,,,,,,,,,,,,,,,,,,,,,,,,,,,,,,,,,,,,,,,,,,,,,,,,,,,,,,,,,,,,,,,,,,,,,,,,,,,,,,,,,,,,,,,,,,,,,,,,,,,,,,,,,,,,,,,,,,,,,,,,,,,
,,,,,,615ac48e01928d37d6f9999b,62c53977a9e5fb366c1df99c,2022-07-06_09h28.24.616,Colour_Asymmetry_Pilot,2022.1.3,Win32,50.02751513,62c50e9c1127f2cd403a315f,0,131,131,147,1,twofour,,,,,,,,,,,,,,,,,,,,,,,,,,,,,,,,,,,,,,,,,,,,,,,,,,,,,,,,,,,,,,,,,,,,,,,,,,,,,,,,,,,,,,,,,,,,,,,,,,,,,,,,,,,,,,,,,,,,,,,,,,,,,,,,,,,,,,,,,,,,,,,,,,,,,,,,,,,,,
,,,,,,615ac48e01928d37d6f9999b,62c53977a9e5fb366c1df99c,2022-07-06_09h28.24.616,Colour_Asymmetry_Pilot,2022.1.3,Win32,50.02751513,62c50e9c1127f2cd403a315f,0,132,132,72,1,onetwo,,,,,,,,,,,,,,,,,,,,,,,,,,,,,,,,,,,,,,,,,,,,,,,,,,,,,,,,,,,,,,,,,,,,,,,,,,,,,,,,,,,,,,,,,,,,,,,,,,,,,,,,,,,,,,,,,,,,,,,,,,,,,,,,,,,,,,,,,,,,,,,,,,,,,,,,,,,,,
,,,,,,615ac48e01928d37d6f9999b,62c53977a9e5fb366c1df99c,2022-07-06_09h28.24.616,Colour_Asymmetry_Pilot,2022.1.3,Win32,50.02751513,62c50e9c1127f2cd403a315f,0,133,133,25,1,onethree,,,,,,,,,,,,,,,,,,,,,,,,,,,,,,,,,,,,,,,,,,,,,,,,,,,,,,,,,,,,,,,,,,,,,,,,,,,,,,,,,,,,,,,,,,,,,,,,,,,,,,,,,,,,,,,,,,,,,,,,,,,,,,,,,,,,,,,,,,,,,,,,,,,,,,,,,,,,,
,,,,,,615ac48e01928d37d6f9999b,62c53977a9e5fb366c1df99c,2022-07-06_09h28.24.616,Colour_Asymmetry_Pilot,2022.1.3,Win32,50.02751513,62c50e9c1127f2cd403a315f,0,134,134,115,1,twofour,,,,,,,,,,,,,,,,,,,,,,,,,,,,,,,,,,,,,,,,,,,,,,,,,,,,,,,,,,,,,,,,,,,,,,,,,,,,,,,,,,,,,,,,,,,,,,,,,,,,,,,,,,,,,,,,,,,,,,,,,,,,,,,,,,,,,,,,,,,,,,,,,,,,,,,,,,,,,
,,,,,,615ac48e01928d37d6f9999b,62c53977a9e5fb366c1df99c,2022-07-06_09h28.24.616,Colour_Asymmetry_Pilot,2022.1.3,Win32,50.02751513,62c50e9c1127f2cd403a315f,0,135,135,52,1,threeone,,,,,,,,,,,,,,,,,,,,,,,,,,,,,,,,,,,,,,,,,,,,,,,,,,,,,,,,,,,,,,,,,,,,,,,,,,,,,,,,,,,,,,,,,,,,,,,,,,,,,,,,,,,,,,,,,,,,,,,,,,,,,,,,,,,,,,,,,,,,,,,,,,,,,,,,,,,,,
,,,,,,615ac48e01928d37d6f9999b,62c53977a9e5fb366c1df99c,2022-07-06_09h28.24.616,Colour_Asymmetry_Pilot,2022.1.3,Win32,50.02751513,62c50e9c1127f2cd403a315f,0,136,136,76,1,threeone,,,,,,,,,,,,,,,,,,,,,,,,,,,,,,,,,,,,,,,,,,,,,,,,,,,,,,,,,,,,,,,,,,,,,,,,,,,,,,,,,,,,,,,,,,,,,,,,,,,,,,,,,,,,,,,,,,,,,,,,,,,,,,,,,,,,,,,,,,,,,,,,,,,,,,,,,,,,,
,,,,,,615ac48e01928d37d6f9999b,62c53977a9e5fb366c1df99c,2022-07-06_09h28.24.616,Colour_Asymmetry_Pilot,2022.1.3,Win32,50.02751513,62c50e9c1127f2cd403a315f,0,137,137,159,1,fourthree,,,,,,,,,,,,,,,,,,,,,,,,,,,,,,,,,,,,,,,,,,,,,,,,,,,,,,,,,,,,,,,,,,,,,,,,,,,,,,,,,,,,,,,,,,,,,,,,,,,,,,,,,,,,,,,,,,,,,,,,,,,,,,,,,,,,,,,,,,,,,,,,,,,,,,,,,,,,,
,,,,,,615ac48e01928d37d6f9999b,62c53977a9e5fb366c1df99c,2022-07-06_09h28.24.616,Colour_Asymmetry_Pilot,2022.1.3,Win32,50.02751513,62c50e9c1127f2cd403a315f,0,138,138,146,1,twoone,,,,,,,,,,,,,,,,,,,,,,,,,,,,,,,,,,,,,,,,,,,,,,,,,,,,,,,,,,,,,,,,,,,,,,,,,,,,,,,,,,,,,,,,,,,,,,,,,,,,,,,,,,,,,,,,,,,,,,,,,,,,,,,,,,,,,,,,,,,,,,,,,,,,,,,,,,,,,
,,,,,,615ac48e01928d37d6f9999b,62c53977a9e5fb366c1df99c,2022-07-06_09h28.24.616,Colour_Asymmetry_Pilot,2022.1.3,Win32,50.02751513,62c50e9c1127f2cd403a315f,0,139,139,125,1,threefour,,,,,,,,,,,,,,,,,,,,,,,,,,,,,,,,,,,,,,,,,,,,,,,,,,,,,,,,,,,,,,,,,,,,,,,,,,,,,,,,,,,,,,,,,,,,,,,,,,,,,,,,,,,,,,,,,,,,,,,,,,,,,,,,,,,,,,,,,,,,,,,,,,,,,,,,,,,,,
,,,,,,615ac48e01928d37d6f9999b,62c53977a9e5fb366c1df99c,2022-07-06_09h28.24.616,Colour_Asymmetry_Pilot,2022.1.3,Win32,50.02751513,62c50e9c1127f2cd403a315f,0,140,140,132,1,threeone,,,,,,,,,,,,,,,,,,,,,,,,,,,,,,,,,,,,,,,,,,,,,,,,,,,,,,,,,,,,,,,,,,,,,,,,,,,,,,,,,,,,,,,,,,,,,,,,,,,,,,,,,,,,,,,,,,,,,,,,,,,,,,,,,,,,,,,,,,,,,,,,,,,,,,,,,,,,,
,,,,,,615ac48e01928d37d6f9999b,62c53977a9e5fb366c1df99c,2022-07-06_09h28.24.616,Colour_Asymmetry_Pilot,2022.1.3,Win32,50.02751513,62c50e9c1127f2cd403a315f,0,141,141,22,1,fourtwo,,,,,,,,,,,,,,,,,,,,,,,,,,,,,,,,,,,,,,,,,,,,,,,,,,,,,,,,,,,,,,,,,,,,,,,,,,,,,,,,,,,,,,,,,,,,,,,,,,,,,,,,,,,,,,,,,,,,,,,,,,,,,,,,,,,,,,,,,,,,,,,,,,,,,,,,,,,,,
,,,,,,615ac48e01928d37d6f9999b,62c53977a9e5fb366c1df99c,2022-07-06_09h28.24.616,Colour_Asymmetry_Pilot,2022.1.3,Win32,50.02751513,62c50e9c1127f2cd403a315f,0,142,142,117,1,threefour,,,,,,,,,,,,,,,,,,,,,,,,,,,,,,,,,,,,,,,,,,,,,,,,,,,,,,,,,,,,,,,,,,,,,,,,,,,,,,,,,,,,,,,,,,,,,,,,,,,,,,,,,,,,,,,,,,,,,,,,,,,,,,,,,,,,,,,,,,,,,,,,,,,,,,,,,,,,,
,,,,,,615ac48e01928d37d6f9999b,62c53977a9e5fb366c1df99c,2022-07-06_09h28.24.616,Colour_Asymmetry_Pilot,2022.1.3,Win32,50.02751513,62c50e9c1127f2cd403a315f,0,143,143,50,1,twoone,,,,,,,,,,,,,,,,,,,,,,,,,,,,,,,,,,,,,,,,,,,,,,,,,,,,,,,,,,,,,,,,,,,,,,,,,,,,,,,,,,,,,,,,,,,,,,,,,,,,,,,,,,,,,,,,,,,,,,,,,,,,,,,,,,,,,,,,,,,,,,,,,,,,,,,,,,,,,
,,,,,,615ac48e01928d37d6f9999b,62c53977a9e5fb366c1df99c,2022-07-06_09h28.24.616,Colour_Asymmetry_Pilot,2022.1.3,Win32,50.02751513,62c50e9c1127f2cd403a315f,0,144,144,113,1,onethree,,,,,,,,,,,,,,,,,,,,,,,,,,,,,,,,,,,,,,,,,,,,,,,,,,,,,,,,,,,,,,,,,,,,,,,,,,,,,,,,,,,,,,,,,,,,,,,,,,,,,,,,,,,,,,,,,,,,,,,,,,,,,,,,,,,,,,,,,,,,,,,,,,,,,,,,,,,,,
,,,,,,615ac48e01928d37d6f9999b,62c53977a9e5fb366c1df99c,2022-07-06_09h28.24.616,Colour_Asymmetry_Pilot,2022.1.3,Win32,50.02751513,62c50e9c1127f2cd403a315f,0,145,145,68,1,threeone,,,,,,,,,,,,,,,,,,,,,,,,,,,,,,,,,,,,,,,,,,,,,,,,,,,,,,,,,,,,,,,,,,,,,,,,,,,,,,,,,,,,,,,,,,,,,,,,,,,,,,,,,,,,,,,,,,,,,,,,,,,,,,,,,,,,,,,,,,,,,,,,,,,,,,,,,,,,,
,,,,,,615ac48e01928d37d6f9999b,62c53977a9e5fb366c1df99c,2022-07-06_09h28.24.616,Colour_Asymmetry_Pilot,2022.1.3,Win32,50.02751513,62c50e9c1127f2cd403a315f,0,146,146,41,1,onethree,,,,,,,,,,,,,,,,,,,,,,,,,,,,,,,,,,,,,,,,,,,,,,,,,,,,,,,,,,,,,,,,,,,,,,,,,,,,,,,,,,,,,,,,,,,,,,,,,,,,,,,,,,,,,,,,,,,,,,,,,,,,,,,,,,,,,,,,,,,,,,,,,,,,,,,,,,,,,
,,,,,,615ac48e01928d37d6f9999b,62c53977a9e5fb366c1df99c,2022-07-06_09h28.24.616,Colour_Asymmetry_Pilot,2022.1.3,Win32,50.02751513,62c50e9c1127f2cd403a315f,0,147,147,99,1,twofour,,,,,,,,,,,,,,,,,,,,,,,,,,,,,,,,,,,,,,,,,,,,,,,,,,,,,,,,,,,,,,,,,,,,,,,,,,,,,,,,,,,,,,,,,,,,,,,,,,,,,,,,,,,,,,,,,,,,,,,,,,,,,,,,,,,,,,,,,,,,,,,,,,,,,,,,,,,,,
,,,,,,615ac48e01928d37d6f9999b,62c53977a9e5fb366c1df99c,2022-07-06_09h28.24.616,Colour_Asymmetry_Pilot,2022.1.3,Win32,50.02751513,62c50e9c1127f2cd403a315f,0,148,148,153,1,onethree,,,,,,,,,,,,,,,,,,,,,,,,,,,,,,,,,,,,,,,,,,,,,,,,,,,,,,,,,,,,,,,,,,,,,,,,,,,,,,,,,,,,,,,,,,,,,,,,,,,,,,,,,,,,,,,,,,,,,,,,,,,,,,,,,,,,,,,,,,,,,,,,,,,,,,,,,,,,,
,,,,,,615ac48e01928d37d6f9999b,62c53977a9e5fb366c1df99c,2022-07-06_09h28.24.616,Colour_Asymmetry_Pilot,2022.1.3,Win32,50.02751513,62c50e9c1127f2cd403a315f,0,149,149,38,1,fourtwo,,,,,,,,,,,,,,,,,,,,,,,,,,,,,,,,,,,,,,,,,,,,,,,,,,,,,,,,,,,,,,,,,,,,,,,,,,,,,,,,,,,,,,,,,,,,,,,,,,,,,,,,,,,,,,,,,,,,,,,,,,,,,,,,,,,,,,,,,,,,,,,,,,,,,,,,,,,,,
,,,,,,615ac48e01928d37d6f9999b,62c53977a9e5fb366c1df99c,2022-07-06_09h28.24.616,Colour_Asymmetry_Pilot,2022.1.3,Win32,50.02751513,62c50e9c1127f2cd403a315f,0,150,150,67,1,twofour,,,,,,,,,,,,,,,,,,,,,,,,,,,,,,,,,,,,,,,,,,,,,,,,,,,,,,,,,,,,,,,,,,,,,,,,,,,,,,,,,,,,,,,,,,,,,,,,,,,,,,,,,,,,,,,,,,,,,,,,,,,,,,,,,,,,,,,,,,,,,,,,,,,,,,,,,,,,,
,,,,,,615ac48e01928d37d6f9999b,62c53977a9e5fb366c1df99c,2022-07-06_09h28.24.616,Colour_Asymmetry_Pilot,2022.1.3,Win32,50.02751513,62c50e9c1127f2cd403a315f,0,151,151,151,1,fourthree,,,,,,,,,,,,,,,,,,,,,,,,,,,,,,,,,,,,,,,,,,,,,,,,,,,,,,,,,,,,,,,,,,,,,,,,,,,,,,,,,,,,,,,,,,,,,,,,,,,,,,,,,,,,,,,,,,,,,,,,,,,,,,,,,,,,,,,,,,,,,,,,,,,,,,,,,,,,,
,,,,,,615ac48e01928d37d6f9999b,62c53977a9e5fb366c1df99c,2022-07-06_09h28.24.616,Colour_Asymmetry_Pilot,2022.1.3,Win32,50.02751513,62c50e9c1127f2cd403a315f,0,152,152,156,1,threeone,,,,,,,,,,,,,,,,,,,,,,,,,,,,,,,,,,,,,,,,,,,,,,,,,,,,,,,,,,,,,,,,,,,,,,,,,,,,,,,,,,,,,,,,,,,,,,,,,,,,,,,,,,,,,,,,,,,,,,,,,,,,,,,,,,,,,,,,,,,,,,,,,,,,,,,,,,,,,
,,,,,,615ac48e01928d37d6f9999b,62c53977a9e5fb366c1df99c,2022-07-06_09h28.24.616,Colour_Asymmetry_Pilot,2022.1.3,Win32,50.02751513,62c50e9c1127f2cd403a315f,0,153,153,86,1,fourtwo,,,,,,,,,,,,,,,,,,,,,,,,,,,,,,,,,,,,,,,,,,,,,,,,,,,,,,,,,,,,,,,,,,,,,,,,,,,,,,,,,,,,,,,,,,,,,,,,,,,,,,,,,,,,,,,,,,,,,,,,,,,,,,,,,,,,,,,,,,,,,,,,,,,,,,,,,,,,,
,,,,,,615ac48e01928d37d6f9999b,62c53977a9e5fb366c1df99c,2022-07-06_09h28.24.616,Colour_Asymmetry_Pilot,2022.1.3,Win32,50.02751513,62c50e9c1127f2cd403a315f,0,154,154,149,1,threefour,,,,,,,,,,,,,,,,,,,,,,,,,,,,,,,,,,,,,,,,,,,,,,,,,,,,,,,,,,,,,,,,,,,,,,,,,,,,,,,,,,,,,,,,,,,,,,,,,,,,,,,,,,,,,,,,,,,,,,,,,,,,,,,,,,,,,,,,,,,,,,,,,,,,,,,,,,,,,
,,,,,,615ac48e01928d37d6f9999b,62c53977a9e5fb366c1df99c,2022-07-06_09h28.24.616,Colour_Asymmetry_Pilot,2022.1.3,Win32,50.02751513,62c50e9c1127f2cd403a315f,0,155,155,116,1,threeone,,,,,,,,,,,,,,,,,,,,,,,,,,,,,,,,,,,,,,,,,,,,,,,,,,,,,,,,,,,,,,,,,,,,,,,,,,,,,,,,,,,,,,,,,,,,,,,,,,,,,,,,,,,,,,,,,,,,,,,,,,,,,,,,,,,,,,,,,,,,,,,,,,,,,,,,,,,,,
,,,,,,615ac48e01928d37d6f9999b,62c53977a9e5fb366c1df99c,2022-07-06_09h28.24.616,Colour_Asymmetry_Pilot,2022.1.3,Win32,50.02751513,62c50e9c1127f2cd403a315f,0,156,156,111,1,fourthree,,,,,,,,,,,,,,,,,,,,,,,,,,,,,,,,,,,,,,,,,,,,,,,,,,,,,,,,,,,,,,,,,,,,,,,,,,,,,,,,,,,,,,,,,,,,,,,,,,,,,,,,,,,,,,,,,,,,,,,,,,,,,,,,,,,,,,,,,,,,,,,,,,,,,,,,,,,,,
,,,,,,615ac48e01928d37d6f9999b,62c53977a9e5fb366c1df99c,2022-07-06_09h28.24.616,Colour_Asymmetry_Pilot,2022.1.3,Win32,50.02751513,62c50e9c1127f2cd403a315f,0,157,157,13,1,threefour,,,,,,,,,,,,,,,,,,,,,,,,,,,,,,,,,,,,,,,,,,,,,,,,,,,,,,,,,,,,,,,,,,,,,,,,,,,,,,,,,,,,,,,,,,,,,,,,,,,,,,,,,,,,,,,,,,,,,,,,,,,,,,,,,,,,,,,,,,,,,,,,,,,,,,,,,,,,,
,,,,,,615ac48e01928d37d6f9999b,62c53977a9e5fb366c1df99c,2022-07-06_09h28.24.616,Colour_Asymmetry_Pilot,2022.1.3,Win32,50.02751513,62c50e9c1127f2cd403a315f,0,158,158,81,1,onethree,,,,,,,,,,,,,,,,,,,,,,,,,,,,,,,,,,,,,,,,,,,,,,,,,,,,,,,,,,,,,,,,,,,,,,,,,,,,,,,,,,,,,,,,,,,,,,,,,,,,,,,,,,,,,,,,,,,,,,,,,,,,,,,,,,,,,,,,,,,,,,,,,,,,,,,,,,,,,
,,,,,,615ac48e01928d37d6f9999b,62c53977a9e5fb366c1df99c,2022-07-06_09h28.24.616,Colour_Asymmetry_Pilot,2022.1.3,Win32,50.02751513,62c50e9c1127f2cd403a315f,0,159,159,118,1,fourtwo,,,,,,,,,,,,,,,,,,,,,,,,,,,,,,,,,,,,,,,,,,,,,,,,,,,,,,,,,,,,,,,,,,,,,,,,,,,,,,,,,,,,,,,,,,,,,,,,,,,,,,,,,,,,,,,,,,,,,,,,,,,,,,,,,,,,,,,,,,,,,,,,,,,,,,,,,,,,,
,,,,,,615ac48e01928d37d6f9999b,62c53977a9e5fb366c1df99c,2022-07-06_09h28.24.616,Colour_Asymmetry_Pilot,2022.1.3,Win32,50.02751513,62c50e9c1127f2cd403a315f,0,160,160,105,1,onethree,,,,,,,,,,,,,,,,,,,,,,,,,,,,,,,,,,,,,,,,,,,,,,,,,,,,,,,,,,,,,,,,,,,,,,,,,,,,,,,,,,,,,,,,,,,,,,,,,,,,,,,,,,,,,,,,,,,,,,,,,,,,,,,,,,,,,,,,,,,,,,,,,,,,,,,,,,,,,
,,,,,,615ac48e01928d37d6f9999b,62c53977a9e5fb366c1df99c,2022-07-06_09h28.24.616,Colour_Asymmetry_Pilot,2022.1.3,Win32,50.02751513,62c50e9c1127f2cd403a315f,0,161,161,90,1,twoone,,,,,,,,,,,,,,,,,,,,,,,,,,,,,,,,,,,,,,,,,,,,,,,,,,,,,,,,,,,,,,,,,,,,,,,,,,,,,,,,,,,,,,,,,,,,,,,,,,,,,,,,,,,,,,,,,,,,,,,,,,,,,,,,,,,,,,,,,,,,,,,,,,,,,,,,,,,,,
,,,,,,615ac48e01928d37d6f9999b,62c53977a9e5fb366c1df99c,2022-07-06_09h28.24.616,Colour_Asymmetry_Pilot,2022.1.3,Win32,50.02751513,62c50e9c1127f2cd403a315f,,,,,,,space,1.8219,space,11.4495,space,89.4191,space,21.0633,space,7.2981,space,5.0369,"[0.9372,0.20779999999999998,0.2704]",fourthree,"[0.5449999999999999,-0.31000000000000005,-0.0354000000000001]",-2,24.0257,-85,-39,1,0,0,response5disk_5,-5,-1,1,0,0,rectangle_8,30,74,1,0,0,response1disk_7,7,4,-9,-1,1,0,0,rectangle_4,0,0,0,0,1,,,,,,,,,,,,,,,,,,,,,,,,,,,,,,,,,,,,,,,,,,,,,,,,,,,,,,,,,,,,,,,,,,,,,,,,,,,,,,,,,,,,,,,,,,,,,,,,,,,,,,,,,,,,,
,,,,,,615ac48e01928d37d6f9999b,62c53977a9e5fb366c1df99c,2022-07-06_09h28.24.616,Colour_Asymmetry_Pilot,2022.1.3,Win32,50.02751513,62c50e9c1127f2cd403a315f,,,,,,,,,,,,,,,,,,,"[-0.30200000000000005,0.14500000000000002,0.2784]",fourtwo,"[0.6625999999999999,0.4980000000000002,-0.357]",-4,1.5202,-53,84,1,0,0,response7disk_5,3,0,1,0,0,rectangle_8,3,0,1,0,0,,,4,3,0,1,0,0,,1,0,1,0,1,,,,,,,,,,,,,,,,,,,,,,,,,,,,,,,,,,,,,,,,,,,,,,,,,,,,,,,,,,,,,,,,,,,,,,,,,,,,,,,,,,,,,,,,,,,,,,,,,,,,,,,,,,,,,
,,,,,,615ac48e01928d37d6f9999b,62c53977a9e5fb366c1df99c,2022-07-06_09h28.24.616,Colour_Asymmetry_Pilot,2022.1.3,Win32,50.02751513,62c50e9c1127f2cd403a315f,,,,,,,,,,,,,,,,,,,"[-0.6,0.16860000000000008,0.44300000000000006]",threeone,"[0.11359999999999992,0.6312,0.5213999999999999]",2,4.5604,80,-52,1,0,0,response3disk_5,13,1,1,0,0,rectangle_8,13,1,1,0,0,,,4,13,1,1,0,0,,2,0,2,0,1,,,,,,,,,,,,,,,,,,,,,,,,,,,,,,,,,,,,,,,,,,,,,,,,,,,,,,,,,,,,,,,,,,,,,,,,,,,,,,,,,,,,,,,,,,,,,,,,,,,,,,,,,,,,,
,,,,,,615ac48e01928d37d6f9999b,62c53977a9e5fb366c1df99c,2022-07-06_09h28.24.616,Colour_Asymmetry_Pilot,2022.1.3,Win32,50.02751513,62c50e9c1127f2cd403a315f,,,,,,,,,,,,,,,,,,,"[-0.8982,-0.37259999999999993,0.2784]",onethree,"[0.04299999999999993,0.16060000000000008,-0.6628000000000001]",-4,1.4403,-47,85,1,0,0,response7disk_5,5,-1,1,0,0,rectangle_8,5,-1,1,0,0,,,4,5,-1,1,0,0,,3,0,3,0,1,,,,,,,,,,,,,,,,,,,,,,,,,,,,,,,,,,,,,,,,,,,,,,,,,,,,,,,,,,,,,,,,,,,,,,,,,,,,,,,,,,,,,,,,,,,,,,,,,,,,,,,,,,,,,
,,,,,,615ac48e01928d37d6f9999b,62c53977a9e5fb366c1df99c,2022-07-06_09h28.24.616,Colour_Asymmetry_Pilot,2022.1.3,Win32,50.02751513,62c50e9c1127f2cd403a315f,,,,,,,,,,,,,,,,,,,"[-0.6235999999999999,-0.6786,-0.08239999999999992]",onethree,"[-0.9766,-0.34920000000000007,0.2156]",3,2.0601,74,41,1,0,0,response1disk_5,1,-2,1,0,0,rectangle_8,1,-2,1,0,0,,,4,1,-2,1,0,0,,4,0,4,0,1,,,,,,,,,,,,,,,,,,,,,,,,,,,,,,,,,,,,,,,,,,,,,,,,,,,,,,,,,,,,,,,,,,,,,,,,,,,,,,,,,,,,,,,,,,,,,,,,,,,,,,,,,,,,,
,,,,,,615ac48e01928d37d6f9999b,62c53977a9e5fb366c1df99c,2022-07-06_09h28.24.616,Colour_Asymmetry_Pilot,2022.1.3,Win32,50.02751513,62c50e9c1127f2cd403a315f,,,,,,,,,,,,,,,,,,,"[-0.30200000000000005,0.14500000000000002,0.2784]",onetwo,"[-0.24719999999999998,-0.0354000000000001,0.3175999999999999]",3,2.08,93,35,1,0,0,response1disk_5,7,-7,1,0,0,rectangle_8,7,-7,1,0,0,,,4,7,-7,1,0,0,,5,0,5,0,1,,,,,,,,,,,,,,,,,,,,,,,,,,,,,,,,,,,,,,,,,,,,,,,,,,,,,,,,,,,,,,,,,,,,,,,,,,,,,,,,,,,,,,,,,,,,,,,,,,,,,,,,,,,,,
,,,,,,615ac48e01928d37d6f9999b,62c53977a9e5fb366c1df99c,2022-07-06_09h28.24.616,Colour_Asymmetry_Pilot,2022.1.3,Win32,50.02751513,62c50e9c1127f2cd403a315f,,,,,,,,,,,,,,,,,,,"[0.9686000000000001,0.5763999999999998,0.11359999999999992]",fourthree,"[-0.4668,-0.8746,-0.2942]",-4,1.48,-42,99,1,0,0,response7disk_5,7,-6,1,0,0,rectangle_8,7,-6,1,0,0,,,4,7,-6,1,0,0,,6,0,6,0,1,,,,,,,,,,,,,,,,,,,,,,,,,,,,,,,,,,,,,,,,,,,,,,,,,,,,,,,,,,,,,,,,,,,,,,,,,,,,,,,,,,,,,,,,,,,,,,,,,,,,,,,,,,,,,
,,,,,,615ac48e01928d37d6f9999b,62c53977a9e5fb366c1df99c,2022-07-06_09h28.24.616,Colour_Asymmetry_Pilot,2022.1.3,Win32,50.02751513,62c50e9c1127f2cd403a315f,,,,,,,,,,,,,,,,,,,,fourtwo,,-4,0.9813,,,,,,,,,,,,,,,,,,,,,,,,,,,,,,,,space,4.5066,"[0.9372,0.20779999999999998,0.2704]","[-0.9138,-0.5296000000000001,-0.5529999999999999]",-48,99,1,0,0,response7disk,-4,0,1,0,0,rectangle,-4,0,1,0,0,,2,0.004,0,-4,0,1,0,0,0,0,0,142,1,61,second,,,,,,,,,,,,,,,,,,,,,,,,,,,,,,,,,,,,,,,,,,,,,,,,,,,,,,,,,,,,,,,,,,,,,,,,
,,,,,,615ac48e01928d37d6f9999b,62c53977a9e5fb366c1df99c,2022-07-06_09h28.24.616,Colour_Asymmetry_Pilot,2022.1.3,Win32,50.02751513,62c50e9c1127f2cd403a315f,,,,,,,,,,,,,,,,,,,,twofour,,-4,0.6601,,,,,,,,,,,,,,,,,,,,,,,,,,,,,,,,,,"[-0.9844,-0.9688,-0.9922]","[0.9372,0.9450000000000001,0.8980000000000001]",-54,101,1,0,0,response7disk,3,3,1,0,0,rectangle,3,3,1,0,0,,2,0.0007,0,3,3,1,0,0,0,1,1,118,1,37,second,,,,,,,,,,,,,,,,,,,,,,,,,,,,,,,,,,,,,,,,,,,,,,,,,,,,,,,,,,,,,,,,,,,,,,,,
,,,,,,615ac48e01928d37d6f9999b,62c53977a9e5fb366c1df99c,2022-07-06_09h28.24.616,Colour_Asymmetry_Pilot,2022.1.3,Win32,50.02751513,62c50e9c1127f2cd403a315f,,,,,,,,,,,,,,,,,,,,twoone,,4,1.0601,,,,,,,,,,,,,,,,,,,,,,,,,,,,,,,,,,"[-0.24719999999999998,0.5213999999999999,-0.12959999999999994]","[-0.24719999999999998,0.5213999999999999,-0.12959999999999994]",36,91,1,0,0,response1disk,8,8,1,0,0,rectangle,8,8,1,0,0,,3,0.0029,0,8,8,1,0,0,0,2,2,59,1,59,first,,,,,,,,,,,,,,,,,,,,,,,,,,,,,,,,,,,,,,,,,,,,,,,,,,,,,,,,,,,,,,,,,,,,,,,,
,,,,,,615ac48e01928d37d6f9999b,62c53977a9e5fb366c1df99c,2022-07-06_09h28.24.616,Colour_Asymmetry_Pilot,2022.1.3,Win32,50.02751513,62c50e9c1127f2cd403a315f,,,,,,,,,,,,,,,,,,,,fourtwo,,3,3.92,,,,,,,,,,,,,,,,,,,,,,,,,,,,,,,,,,"[0.37240000000000006,-0.050999999999999934,-0.5216]","[0.2784,-0.31000000000000005,-0.5452]",76,33,1,0,0,response1disk,9,5,1,0,0,rectangle,41,-85,1,0,0,1,1,3.779,1,8,1,1,0,0,0,3,3,55,1,55,first,response3disk_3,rectangle,,,,,,,,,,,,,,,,,,,,,,,,,,,,,,,,,,,,,,,,,,,,,,,,,,,,,,,,,,,,,,,,,,,,,,
,,,,,,615ac48e01928d37d6f9999b,62c53977a9e5fb366c1df99c,2022-07-06_09h28.24.616,Colour_Asymmetry_Pilot,2022.1.3,Win32,50.02751513,62c50e9c1127f2cd403a315f,,,,,,,,,,,,,,,,,,,,onethree,,-4,1.3601,,,,,,,,,,,,,,,,,,,,,,,,,,,,,,,,,,"[0.0351999999999999,0.41159999999999997,0.0038000000000000256]","[-0.9766,-0.6472,0.07440000000000002]",-65,95,1,0,0,response7disk,-5,-2,1,0,0,rectangle,-5,-2,1,0,0,1,2,0.0025,0,-5,-2,1,0,0,0,4,4,4,1,4,first,,,,,,,,,,,,,,,,,,,,,,,,,,,,,,,,,,,,,,,,,,,,,,,,,,,,,,,,,,,,,,,,,,,,,,,,
,,,,,,615ac48e01928d37d6f9999b,62c53977a9e5fb366c1df99c,2022-07-06_09h28.24.616,Colour_Asymmetry_Pilot,2022.1.3,Win32,50.02751513,62c50e9c1127f2cd403a315f,,,,,,,,,,,,,,,,,,,,onetwo,,-4,1.2004,,,,,,,,,,,,,,,,,,,,,,,,,,,,,,,,,,"[-0.9296,-0.12959999999999994,-0.043199999999999905]","[0.37240000000000006,-0.050999999999999934,-0.5216]",-39,104,1,0,0,response7disk,6,-2,1,0,0,rectangle,6,-2,1,0,0,1,3,0.0024,0,6,-2,1,0,0,0,5,5,13,1,13,first,,,,,,,,,,,,,,,,,,,,,,,,,,,,,,,,,,,,,,,,,,,,,,,,,,,,,,,,,,,,,,,,,,,,,,,,
,,,,,,615ac48e01928d37d6f9999b,62c53977a9e5fb366c1df99c,2022-07-06_09h28.24.616,Colour_Asymmetry_Pilot,2022.1.3,Win32,50.02751513,62c50e9c1127f2cd403a315f,,,,,,,,,,,,,,,,,,,,fourtwo,,-3,2.54,,,,,,,,,,,,,,,,,,,,,,,,,,,,,,,,,,"[-0.8982,-0.37259999999999993,0.2784]","[-0.9688,-0.7412000000000001,-0.4902000000000001]",-72,45,1,0,0,response7disk,-3,-1,1,0,0,rectangle,-3,-1,1,0,0,1,3,0.0006,0,-3,-1,1,0,0,0,6,6,30,1,30,first,,,,,,,,,,,,,,,,,,,,,,,,,,,,,,,,,,,,,,,,,,,,,,,,,,,,,,,,,,,,,,,,,,,,,,,,
,,,,,,615ac48e01928d37d6f9999b,62c53977a9e5fb366c1df99c,2022-07-06_09h28.24.616,Colour_Asymmetry_Pilot,2022.1.3,Win32,50.02751513,62c50e9c1127f2cd403a315f,,,,,,,,,,,,,,,,,,,,fourthree,,-4,1.0803,,,,,,,,,,,,,,,,,,,,,,,,,,,,,,,,,,"[0.19199999999999995,0.18419999999999992,0.5136000000000001]","[-0.5688,-0.08239999999999992,-0.1844]",-48,91,1,0,0,response7disk,-3,6,1,0,0,rectangle,-3,6,1,0,0,1,1,0.005,0,-3,6,1,0,0,0,7,7,134,1,53,second,,,,,,,,,,,,,,,,,,,,,,,,,,,,,,,,,,,,,,,,,,,,,,,,,,,,,,,,,,,,,,,,,,,,,,,,
,,,,,,615ac48e01928d37d6f9999b,62c53977a9e5fb366c1df99c,2022-07-06_09h28.24.616,Colour_Asymmetry_Pilot,2022.1.3,Win32,50.02751513,62c50e9c1127f2cd403a315f,,,,,,,,,,,,,,,,,,,,twoone,,-4,0.6403,,,,,,,,,,,,,,,,,,,,,,,,,,,,,,,,,,"[-0.9688,-0.4902000000000001,-0.12159999999999993]","[-0.24719999999999998,0.5213999999999999,-0.12959999999999994]",-46,90,1,0,0,response7disk,7,-3,1,0,0,rectangle,7,-3,1,0,0,1,3,0.0023,0,7,-3,1,0,0,0,8,8,15,1,15,first,,,,,,,,,,,,,,,,,,,,,,,,,,,,,,,,,,,,,,,,,,,,,,,,,,,,,,,,,,,,,,,,,,,,,,,,
,,,,,,615ac48e01928d37d6f9999b,62c53977a9e5fb366c1df99c,2022-07-06_09h28.24.616,Colour_Asymmetry_Pilot,2022.1.3,Win32,50.02751513,62c50e9c1127f2cd403a315f,,,,,,,,,,,,,,,,,,,,twoone,,-4,0.5803,,,,,,,,,,,,,,,,,,,,,,,,,,,,,,,,,,"[-0.9138,-0.5296000000000001,-0.5529999999999999]","[-0.2942,-0.7648,-0.7492000000000001]",-45,96,1,0,0,response7disk,4,-4,1,0,0,rectangle,4,-4,1,0,0,1,3,0.0007,0,4,-4,1,0,0,0,9,9,150,1,69,second,,,,,,,,,,,,,,,,,,,,,,,,,,,,,,,,,,,,,,,,,,,,,,,,,,,,,,,,,,,,,,,,,,,,,,,,
,,,,,,615ac48e01928d37d6f9999b,62c53977a9e5fb366c1df99c,2022-07-06_09h28.24.616,Colour_Asymmetry_Pilot,2022.1.3,Win32,50.02751513,62c50e9c1127f2cd403a315f,,,,,,,,,,,,,,,,,,,,twofour,,-4,0.6401,,,,,,,,,,,,,,,,,,,,,,,,,,,,,,,,,,"[-0.8118,-0.8198,-0.5452]","[-0.7412000000000001,-0.08239999999999992,-0.6864]",-40,86,1,0,0,response7disk,4,-2,1,0,0,rectangle,4,-2,1,0,0,1,3,0.0003,0,4,-2,1,0,0,0,10,10,49,1,49,first,,,,,,,,,,,,,,,,,,,,,,,,,,,,,,,,,,,,,,,,,,,,,,,,,,,,,,,,,,,,,,,,,,,,,,,,
,,,,,,615ac48e01928d37d6f9999b,62c53977a9e5fb366c1df99c,2022-07-06_09h28.24.616,Colour_Asymmetry_Pilot,2022.1.3,Win32,50.02751513,62c50e9c1127f2cd403a315f,,,,,,,,,,,,,,,,,,,,onethree,,-4,1.2802,,,,,,,,,,,,,,,,,,,,,,,,,,,,,,,,,,"[0.9372,0.9450000000000001,0.8980000000000001]","[-0.9844,-0.9688,-0.9922]",-40,89,1,0,0,response7disk,3,0,1,0,0,rectangle,3,0,1,0,0,1,1,0.0024,0,3,0,1,0,0,0,11,11,37,1,37,first,,,,,,,,,,,,,,,,,,,,,,,,,,,,,,,,,,,,,,,,,,,,,,,,,,,,,,,,,,,,,,,,,,,,,,,,
,,,,,,615ac48e01928d37d6f9999b,62c53977a9e5fb366c1df99c,2022-07-06_09h28.24.616,Colour_Asymmetry_Pilot,2022.1.3,Win32,50.02751513,62c50e9c1127f2cd403a315f,,,,,,,,,,,,,,,,,,,,twoone,,2,1.4602,,,,,,,,,,,,,,,,,,,,,,,,,,,,,,,,,,"[1,0.12939999999999996,-1]","[0.9763999999999999,0.8588,-0.05900000000000005]",77,-32,1,0,0,response3disk,9,6,1,0,0,rectangle,9,6,1,0,0,1,3,0.0022,0,9,6,1,0,0,0,12,12,50,1,50,first,,,,,,,,,,,,,,,,,,,,,,,,,,,,,,,,,,,,,,,,,,,,,,,,,,,,,,,,,,,,,,,,,,,,,,,,
,,,,,,615ac48e01928d37d6f9999b,62c53977a9e5fb366c1df99c,2022-07-06_09h28.24.616,Colour_Asymmetry_Pilot,2022.1.3,Win32,50.02751513,62c50e9c1127f2cd403a315f,,,,,,,,,,,,,,,,,,,,threeone,,-4,1.02,,,,,,,,,,,,,,,,,,,,,,,,,,,,,,,,,,"[0.22340000000000004,-0.9296,-0.7884]","[0.09799999999999986,-0.24719999999999998,0.15280000000000005]",-52,88,1,0,0,response7disk,-2,-1,1,0,0,rectangle,-2,-1,1,0,0,1,1,0.0028,0,-2,-1,1,0,0,0,13,13,92,1,11,second,,,,,,,,,,,,,,,,,,,,,,,,,,,,,,,,,,,,,,,,,,,,,,,,,,,,,,,,,,,,,,,,,,,,,,,,
,,,,,,615ac48e01928d37d6f9999b,62c53977a9e5fb366c1df99c,2022-07-06_09h28.24.616,Colour_Asymmetry_Pilot,2022.1.3,Win32,50.02751513,62c50e9c1127f2cd403a315f,,,,,,,,,,,,,,,,,,,,onetwo,,4,0.6608,,,,,,,,,,,,,,,,,,,,,,,,,,,,,,,,,,"[-0.26280000000000003,-0.2158,-0.3256]","[-0.45899999999999996,-0.3256,-0.9374]",38,76,1,0,0,response1disk,9,8,1,0,0,rectangle,9,8,1,0,0,1,1,0.0004,0,9,8,1,0,0,0,14,14,112,1,31,second,,,,,,,,,,,,,,,,,,,,,,,,,,,,,,,,,,,,,,,,,,,,,,,,,,,,,,,,,,,,,,,,,,,,,,,,
,,,,,,615ac48e01928d37d6f9999b,62c53977a9e5fb366c1df99c,2022-07-06_09h28.24.616,Colour_Asymmetry_Pilot,2022.1.3,Win32,50.02751513,62c50e9c1127f2cd403a315f,,,,,,,,,,,,,,,,,,,,fourthree,,-3,5.58,,,,,,,,,,,,,,,,,,,,,,,,,,,,,,,,,,"[-0.4276,0.0038000000000000256,-0.3256]","[-0.8118,-0.8198,-0.5452]",-100,46,1,0,0,response7disk,-14,0,1,0,0,rectangle,-14,0,1,0,0,1,3,0.0025,0,-14,0,1,0,0,0,15,15,117,1,36,second,,,,,,,,,,,,,,,,,,,,,,,,,,,,,,,,,,,,,,,,,,,,,,,,,,,,,,,,,,,,,,,,,,,,,,,,
,,,,,,615ac48e01928d37d6f9999b,62c53977a9e5fb366c1df99c,2022-07-06_09h28.24.616,Colour_Asymmetry_Pilot,2022.1.3,Win32,50.02751513,62c50e9c1127f2cd403a315f,,,,,,,,,,,,,,,,,,,,threefour,,-3,1.2599,,,,,,,,,,,,,,,,,,,,,,,,,,,,,,,,,,"[-0.2942,-0.7648,-0.7492000000000001]","[0.9372,0.20779999999999998,0.2704]",-65,29,1,0,0,response7disk,-4,4,1,0,0,rectangle,-4,4,1,0,0,1,2,0.0024,0,-4,4,1,0,0,0,16,16,109,1,28,second,,,,,,,,,,,,,,,,,,,,,,,,,,,,,,,,,,,,,,,,,,,,,,,,,,,,,,,,,,,,,,,,,,,,,,,,
,,,,,,615ac48e01928d37d6f9999b,62c53977a9e5fb366c1df99c,2022-07-06_09h28.24.616,Colour_Asymmetry_Pilot,2022.1.3,Win32,50.02751513,62c50e9c1127f2cd403a315f,,,,,,,,,,,,,,,,,,,,fourthree,,-4,0.6202,,,,,,,,,,,,,,,,,,,,,,,,,,,,,,,,,,"[-0.6235999999999999,-0.6786,-0.08239999999999992]","[-0.06680000000000008,-0.45100000000000007,-0.906]",-39,84,1,0,0,response7disk,-3,-2,1,0,0,rectangle,-3,-2,1,0,0,1,2,0.0004,0,-3,-2,1,0,0,0,17,17,100,1,19,second,,,,,,,,,,,,,,,,,,,,,,,,,,,,,,,,,,,,,,,,,,,,,,,,,,,,,,,,,,,,,,,,,,,,,,,,
