trials.thisRepN,trials.thisTrialN,trials.thisN,trials.thisIndex,trials.ran,Colourcodes,participant,session,date,expName,psychopyVersion,OS,frameRate,study_id,trials_4.thisRepN,trials_4.thisTrialN,trials_4.thisN,trials_4.thisIndex,trials_4.ran,StimulusPos,key_resp.keys,key_resp.rt,key_resp_2.keys,key_resp_2.rt,key_resp_15.keys,key_resp_15.rt,key_resp_17.keys,key_resp_17.rt,key_resp_9.keys,key_resp_9.rt,key_resp_10.keys,key_resp_10.rt,Circle1_col,Ecc,Circle2_col,similarity,response_time,mouse_5.x,mouse_5.y,mouse_5.leftButton,mouse_5.midButton,mouse_5.rightButton,mouse_5.clicked_name,mouse_10.x,mouse_10.y,mouse_10.leftButton,mouse_10.midButton,mouse_10.rightButton,mouse_10.clicked_name,mouse_7.x,mouse_7.y,mouse_7.leftButton,mouse_7.midButton,mouse_7.rightButton,catchnumberprac,mouse_6.x,mouse_6.y,mouse_6.leftButton,mouse_6.midButton,mouse_6.rightButton,duringprac.thisRepN,duringprac.thisTrialN,duringprac.thisN,duringprac.thisIndex,duringprac.ran,mouse_7.clicked_name,catchprac,mouse_6.clicked_name,key_resp_22.keys,key_resp_22.rt,Circle1_colour,Circle2_colour,mouse.x,mouse.y,mouse.leftButton,mouse.midButton,mouse.rightButton,mouse.clicked_name,mouse_2.x,mouse_2.y,mouse_2.leftButton,mouse_2.midButton,mouse_2.rightButton,mouse_2.clicked_name,mouse_3.x,mouse_3.y,mouse_3.leftButton,mouse_3.midButton,mouse_3.rightButton,catchresponse,catchnumber,response_time_catch,Catch,mouse_11.x,mouse_11.y,mouse_11.leftButton,mouse_11.midButton,mouse_11.rightButton,trials_2.thisRepN,trials_2.thisTrialN,trials_2.thisN,trials_2.thisIndex,trials_2.ran,Colourpair,Temporder,mouse_3.clicked_name,mouse_11.clicked_name,trials_3.thisRepN,trials_3.thisTrialN,trials_3.thisN,trials_3.thisIndex,trials_3.ran,key_resp_instr_Ishi.keys,key_resp_instr_Ishi.rt,Ishi_trial_keyresp.keys,Ishi_textbox.text,Ishi_mouse.x,Ishi_mouse.y,Ishi_mouse.leftButton,Ishi_mouse.midButton,Ishi_mouse.rightButton,Ishi_mouse.clicked_name,Ishi_loop.thisRepN,Ishi_loop.thisTrialN,Ishi_loop.thisN,Ishi_loop.thisIndex,Ishi_loop.ran,imageaddress,textbox.text,mouse_4.x,mouse_4.y,mouse_4.leftButton,mouse_4.midButton,mouse_4.rightButton,mouse_4.clicked_name,textbox_2.text,mouse_8.x,mouse_8.y,mouse_8.leftButton,mouse_8.midButton,mouse_8.rightButton,mouse_8.clicked_name,textbox_3.text,mouse_9.x,mouse_9.y,mouse_9.leftButton,mouse_9.midButton,mouse_9.rightButton,mouse_9.clicked_name,textbox_4.text,mouse_12.x,mouse_12.y,mouse_12.leftButton,mouse_12.midButton,mouse_12.rightButton,mouse_12.clicked_name,textbox_5.text,mouse_13.x,mouse_13.y,mouse_13.leftButton,mouse_13.midButton,mouse_13.rightButton,mouse_13.clicked_name,textbox_6.text,mouse_14.x,mouse_14.y,mouse_14.leftButton,mouse_14.midButton,mouse_14.rightButton,mouse_14.clicked_name,textbox_7.text,mouse_15.x,mouse_15.y,mouse_15.leftButton,mouse_15.midButton,mouse_15.rightButton,mouse_15.clicked_name
0,0,0,62,1,,60eb29c01cbb5ca4a8a5ea2e,62c539a13c3942f0dbd9d0e6,2022-07-06_09h36.30.035,Colour_Asymmetry_Pilot,2022.1.3,Win32,59.97001499,62c50e9c1127f2cd403a315f,,,,,,,,,,,,,,,,,,,,,,,,,,,,,,,,,,,,,,,,,,,,,,,,,,,,,,,,,,,,,,,,,,,,,,,,,,,,,,,,,,,,,,,,,,,,,,,,,,,,,,,,,,,,,,,,,,,,,,,,,,,,,,,,,,,,,,,,,,,,,,,,,,,,,,,,,,,,,,,,,,,
0,1,1,59,1,,60eb29c01cbb5ca4a8a5ea2e,62c539a13c3942f0dbd9d0e6,2022-07-06_09h36.30.035,Colour_Asymmetry_Pilot,2022.1.3,Win32,59.97001499,62c50e9c1127f2cd403a315f,,,,,,,,,,,,,,,,,,,,,,,,,,,,,,,,,,,,,,,,,,,,,,,,,,,,,,,,,,,,,,,,,,,,,,,,,,,,,,,,,,,,,,,,,,,,,,,,,,,,,,,,,,,,,,,,,,,,,,,,,,,,,,,,,,,,,,,,,,,,,,,,,,,,,,,,,,,,,,,,,,,
0,2,2,40,1,,60eb29c01cbb5ca4a8a5ea2e,62c539a13c3942f0dbd9d0e6,2022-07-06_09h36.30.035,Colour_Asymmetry_Pilot,2022.1.3,Win32,59.97001499,62c50e9c1127f2cd403a315f,,,,,,,,,,,,,,,,,,,,,,,,,,,,,,,,,,,,,,,,,,,,,,,,,,,,,,,,,,,,,,,,,,,,,,,,,,,,,,,,,,,,,,,,,,,,,,,,,,,,,,,,,,,,,,,,,,,,,,,,,,,,,,,,,,,,,,,,,,,,,,,,,,,,,,,,,,,,,,,,,,,
0,3,3,81,1,,60eb29c01cbb5ca4a8a5ea2e,62c539a13c3942f0dbd9d0e6,2022-07-06_09h36.30.035,Colour_Asymmetry_Pilot,2022.1.3,Win32,59.97001499,62c50e9c1127f2cd403a315f,,,,,,,,,,,,,,,,,,,,,,,,,,,,,,,,,,,,,,,,,,,,,,,,,,,,,,,,,,,,,,,,,,,,,,,,,,,,,,,,,,,,,,,,,,,,,,,,,,,,,,,,,,,,,,,,,,,,,,,,,,,,,,,,,,,,,,,,,,,,,,,,,,,,,,,,,,,,,,,,,,,
0,4,4,87,1,,60eb29c01cbb5ca4a8a5ea2e,62c539a13c3942f0dbd9d0e6,2022-07-06_09h36.30.035,Colour_Asymmetry_Pilot,2022.1.3,Win32,59.97001499,62c50e9c1127f2cd403a315f,,,,,,,,,,,,,,,,,,,,,,,,,,,,,,,,,,,,,,,,,,,,,,,,,,,,,,,,,,,,,,,,,,,,,,,,,,,,,,,,,,,,,,,,,,,,,,,,,,,,,,,,,,,,,,,,,,,,,,,,,,,,,,,,,,,,,,,,,,,,,,,,,,,,,,,,,,,,,,,,,,,
0,5,5,21,1,,60eb29c01cbb5ca4a8a5ea2e,62c539a13c3942f0dbd9d0e6,2022-07-06_09h36.30.035,Colour_Asymmetry_Pilot,2022.1.3,Win32,59.97001499,62c50e9c1127f2cd403a315f,,,,,,,,,,,,,,,,,,,,,,,,,,,,,,,,,,,,,,,,,,,,,,,,,,,,,,,,,,,,,,,,,,,,,,,,,,,,,,,,,,,,,,,,,,,,,,,,,,,,,,,,,,,,,,,,,,,,,,,,,,,,,,,,,,,,,,,,,,,,,,,,,,,,,,,,,,,,,,,,,,,
0,6,6,52,1,,60eb29c01cbb5ca4a8a5ea2e,62c539a13c3942f0dbd9d0e6,2022-07-06_09h36.30.035,Colour_Asymmetry_Pilot,2022.1.3,Win32,59.97001499,62c50e9c1127f2cd403a315f,,,,,,,,,,,,,,,,,,,,,,,,,,,,,,,,,,,,,,,,,,,,,,,,,,,,,,,,,,,,,,,,,,,,,,,,,,,,,,,,,,,,,,,,,,,,,,,,,,,,,,,,,,,,,,,,,,,,,,,,,,,,,,,,,,,,,,,,,,,,,,,,,,,,,,,,,,,,,,,,,,,
0,7,7,56,1,,60eb29c01cbb5ca4a8a5ea2e,62c539a13c3942f0dbd9d0e6,2022-07-06_09h36.30.035,Colour_Asymmetry_Pilot,2022.1.3,Win32,59.97001499,62c50e9c1127f2cd403a315f,,,,,,,,,,,,,,,,,,,,,,,,,,,,,,,,,,,,,,,,,,,,,,,,,,,,,,,,,,,,,,,,,,,,,,,,,,,,,,,,,,,,,,,,,,,,,,,,,,,,,,,,,,,,,,,,,,,,,,,,,,,,,,,,,,,,,,,,,,,,,,,,,,,,,,,,,,,,,,,,,,,
0,8,8,60,1,,60eb29c01cbb5ca4a8a5ea2e,62c539a13c3942f0dbd9d0e6,2022-07-06_09h36.30.035,Colour_Asymmetry_Pilot,2022.1.3,Win32,59.97001499,62c50e9c1127f2cd403a315f,,,,,,,,,,,,,,,,,,,,,,,,,,,,,,,,,,,,,,,,,,,,,,,,,,,,,,,,,,,,,,,,,,,,,,,,,,,,,,,,,,,,,,,,,,,,,,,,,,,,,,,,,,,,,,,,,,,,,,,,,,,,,,,,,,,,,,,,,,,,,,,,,,,,,,,,,,,,,,,,,,,
0,9,9,39,1,,60eb29c01cbb5ca4a8a5ea2e,62c539a13c3942f0dbd9d0e6,2022-07-06_09h36.30.035,Colour_Asymmetry_Pilot,2022.1.3,Win32,59.97001499,62c50e9c1127f2cd403a315f,,,,,,,,,,,,,,,,,,,,,,,,,,,,,,,,,,,,,,,,,,,,,,,,,,,,,,,,,,,,,,,,,,,,,,,,,,,,,,,,,,,,,,,,,,,,,,,,,,,,,,,,,,,,,,,,,,,,,,,,,,,,,,,,,,,,,,,,,,,,,,,,,,,,,,,,,,,,,,,,,,,
0,10,10,68,1,,60eb29c01cbb5ca4a8a5ea2e,62c539a13c3942f0dbd9d0e6,2022-07-06_09h36.30.035,Colour_Asymmetry_Pilot,2022.1.3,Win32,59.97001499,62c50e9c1127f2cd403a315f,,,,,,,,,,,,,,,,,,,,,,,,,,,,,,,,,,,,,,,,,,,,,,,,,,,,,,,,,,,,,,,,,,,,,,,,,,,,,,,,,,,,,,,,,,,,,,,,,,,,,,,,,,,,,,,,,,,,,,,,,,,,,,,,,,,,,,,,,,,,,,,,,,,,,,,,,,,,,,,,,,,
0,11,11,67,1,,60eb29c01cbb5ca4a8a5ea2e,62c539a13c3942f0dbd9d0e6,2022-07-06_09h36.30.035,Colour_Asymmetry_Pilot,2022.1.3,Win32,59.97001499,62c50e9c1127f2cd403a315f,,,,,,,,,,,,,,,,,,,,,,,,,,,,,,,,,,,,,,,,,,,,,,,,,,,,,,,,,,,,,,,,,,,,,,,,,,,,,,,,,,,,,,,,,,,,,,,,,,,,,,,,,,,,,,,,,,,,,,,,,,,,,,,,,,,,,,,,,,,,,,,,,,,,,,,,,,,,,,,,,,,
0,12,12,14,1,,60eb29c01cbb5ca4a8a5ea2e,62c539a13c3942f0dbd9d0e6,2022-07-06_09h36.30.035,Colour_Asymmetry_Pilot,2022.1.3,Win32,59.97001499,62c50e9c1127f2cd403a315f,,,,,,,,,,,,,,,,,,,,,,,,,,,,,,,,,,,,,,,,,,,,,,,,,,,,,,,,,,,,,,,,,,,,,,,,,,,,,,,,,,,,,,,,,,,,,,,,,,,,,,,,,,,,,,,,,,,,,,,,,,,,,,,,,,,,,,,,,,,,,,,,,,,,,,,,,,,,,,,,,,,
0,13,13,51,1,,60eb29c01cbb5ca4a8a5ea2e,62c539a13c3942f0dbd9d0e6,2022-07-06_09h36.30.035,Colour_Asymmetry_Pilot,2022.1.3,Win32,59.97001499,62c50e9c1127f2cd403a315f,,,,,,,,,,,,,,,,,,,,,,,,,,,,,,,,,,,,,,,,,,,,,,,,,,,,,,,,,,,,,,,,,,,,,,,,,,,,,,,,,,,,,,,,,,,,,,,,,,,,,,,,,,,,,,,,,,,,,,,,,,,,,,,,,,,,,,,,,,,,,,,,,,,,,,,,,,,,,,,,,,,
0,14,14,75,1,,60eb29c01cbb5ca4a8a5ea2e,62c539a13c3942f0dbd9d0e6,2022-07-06_09h36.30.035,Colour_Asymmetry_Pilot,2022.1.3,Win32,59.97001499,62c50e9c1127f2cd403a315f,,,,,,,,,,,,,,,,,,,,,,,,,,,,,,,,,,,,,,,,,,,,,,,,,,,,,,,,,,,,,,,,,,,,,,,,,,,,,,,,,,,,,,,,,,,,,,,,,,,,,,,,,,,,,,,,,,,,,,,,,,,,,,,,,,,,,,,,,,,,,,,,,,,,,,,,,,,,,,,,,,,
0,15,15,82,1,,60eb29c01cbb5ca4a8a5ea2e,62c539a13c3942f0dbd9d0e6,2022-07-06_09h36.30.035,Colour_Asymmetry_Pilot,2022.1.3,Win32,59.97001499,62c50e9c1127f2cd403a315f,,,,,,,,,,,,,,,,,,,,,,,,,,,,,,,,,,,,,,,,,,,,,,,,,,,,,,,,,,,,,,,,,,,,,,,,,,,,,,,,,,,,,,,,,,,,,,,,,,,,,,,,,,,,,,,,,,,,,,,,,,,,,,,,,,,,,,,,,,,,,,,,,,,,,,,,,,,,,,,,,,,
0,16,16,69,1,,60eb29c01cbb5ca4a8a5ea2e,62c539a13c3942f0dbd9d0e6,2022-07-06_09h36.30.035,Colour_Asymmetry_Pilot,2022.1.3,Win32,59.97001499,62c50e9c1127f2cd403a315f,,,,,,,,,,,,,,,,,,,,,,,,,,,,,,,,,,,,,,,,,,,,,,,,,,,,,,,,,,,,,,,,,,,,,,,,,,,,,,,,,,,,,,,,,,,,,,,,,,,,,,,,,,,,,,,,,,,,,,,,,,,,,,,,,,,,,,,,,,,,,,,,,,,,,,,,,,,,,,,,,,,
0,17,17,16,1,,60eb29c01cbb5ca4a8a5ea2e,62c539a13c3942f0dbd9d0e6,2022-07-06_09h36.30.035,Colour_Asymmetry_Pilot,2022.1.3,Win32,59.97001499,62c50e9c1127f2cd403a315f,,,,,,,,,,,,,,,,,,,,,,,,,,,,,,,,,,,,,,,,,,,,,,,,,,,,,,,,,,,,,,,,,,,,,,,,,,,,,,,,,,,,,,,,,,,,,,,,,,,,,,,,,,,,,,,,,,,,,,,,,,,,,,,,,,,,,,,,,,,,,,,,,,,,,,,,,,,,,,,,,,,
0,18,18,79,1,,60eb29c01cbb5ca4a8a5ea2e,62c539a13c3942f0dbd9d0e6,2022-07-06_09h36.30.035,Colour_Asymmetry_Pilot,2022.1.3,Win32,59.97001499,62c50e9c1127f2cd403a315f,,,,,,,,,,,,,,,,,,,,,,,,,,,,,,,,,,,,,,,,,,,,,,,,,,,,,,,,,,,,,,,,,,,,,,,,,,,,,,,,,,,,,,,,,,,,,,,,,,,,,,,,,,,,,,,,,,,,,,,,,,,,,,,,,,,,,,,,,,,,,,,,,,,,,,,,,,,,,,,,,,,
0,19,19,80,1,,60eb29c01cbb5ca4a8a5ea2e,62c539a13c3942f0dbd9d0e6,2022-07-06_09h36.30.035,Colour_Asymmetry_Pilot,2022.1.3,Win32,59.97001499,62c50e9c1127f2cd403a315f,,,,,,,,,,,,,,,,,,,,,,,,,,,,,,,,,,,,,,,,,,,,,,,,,,,,,,,,,,,,,,,,,,,,,,,,,,,,,,,,,,,,,,,,,,,,,,,,,,,,,,,,,,,,,,,,,,,,,,,,,,,,,,,,,,,,,,,,,,,,,,,,,,,,,,,,,,,,,,,,,,,
0,20,20,76,1,,60eb29c01cbb5ca4a8a5ea2e,62c539a13c3942f0dbd9d0e6,2022-07-06_09h36.30.035,Colour_Asymmetry_Pilot,2022.1.3,Win32,59.97001499,62c50e9c1127f2cd403a315f,,,,,,,,,,,,,,,,,,,,,,,,,,,,,,,,,,,,,,,,,,,,,,,,,,,,,,,,,,,,,,,,,,,,,,,,,,,,,,,,,,,,,,,,,,,,,,,,,,,,,,,,,,,,,,,,,,,,,,,,,,,,,,,,,,,,,,,,,,,,,,,,,,,,,,,,,,,,,,,,,,,
0,21,21,53,1,,60eb29c01cbb5ca4a8a5ea2e,62c539a13c3942f0dbd9d0e6,2022-07-06_09h36.30.035,Colour_Asymmetry_Pilot,2022.1.3,Win32,59.97001499,62c50e9c1127f2cd403a315f,,,,,,,,,,,,,,,,,,,,,,,,,,,,,,,,,,,,,,,,,,,,,,,,,,,,,,,,,,,,,,,,,,,,,,,,,,,,,,,,,,,,,,,,,,,,,,,,,,,,,,,,,,,,,,,,,,,,,,,,,,,,,,,,,,,,,,,,,,,,,,,,,,,,,,,,,,,,,,,,,,,
0,22,22,72,1,,60eb29c01cbb5ca4a8a5ea2e,62c539a13c3942f0dbd9d0e6,2022-07-06_09h36.30.035,Colour_Asymmetry_Pilot,2022.1.3,Win32,59.97001499,62c50e9c1127f2cd403a315f,,,,,,,,,,,,,,,,,,,,,,,,,,,,,,,,,,,,,,,,,,,,,,,,,,,,,,,,,,,,,,,,,,,,,,,,,,,,,,,,,,,,,,,,,,,,,,,,,,,,,,,,,,,,,,,,,,,,,,,,,,,,,,,,,,,,,,,,,,,,,,,,,,,,,,,,,,,,,,,,,,,
0,23,23,33,1,,60eb29c01cbb5ca4a8a5ea2e,62c539a13c3942f0dbd9d0e6,2022-07-06_09h36.30.035,Colour_Asymmetry_Pilot,2022.1.3,Win32,59.97001499,62c50e9c1127f2cd403a315f,,,,,,,,,,,,,,,,,,,,,,,,,,,,,,,,,,,,,,,,,,,,,,,,,,,,,,,,,,,,,,,,,,,,,,,,,,,,,,,,,,,,,,,,,,,,,,,,,,,,,,,,,,,,,,,,,,,,,,,,,,,,,,,,,,,,,,,,,,,,,,,,,,,,,,,,,,,,,,,,,,,
0,24,24,10,1,,60eb29c01cbb5ca4a8a5ea2e,62c539a13c3942f0dbd9d0e6,2022-07-06_09h36.30.035,Colour_Asymmetry_Pilot,2022.1.3,Win32,59.97001499,62c50e9c1127f2cd403a315f,,,,,,,,,,,,,,,,,,,,,,,,,,,,,,,,,,,,,,,,,,,,,,,,,,,,,,,,,,,,,,,,,,,,,,,,,,,,,,,,,,,,,,,,,,,,,,,,,,,,,,,,,,,,,,,,,,,,,,,,,,,,,,,,,,,,,,,,,,,,,,,,,,,,,,,,,,,,,,,,,,,
0,25,25,37,1,,60eb29c01cbb5ca4a8a5ea2e,62c539a13c3942f0dbd9d0e6,2022-07-06_09h36.30.035,Colour_Asymmetry_Pilot,2022.1.3,Win32,59.97001499,62c50e9c1127f2cd403a315f,,,,,,,,,,,,,,,,,,,,,,,,,,,,,,,,,,,,,,,,,,,,,,,,,,,,,,,,,,,,,,,,,,,,,,,,,,,,,,,,,,,,,,,,,,,,,,,,,,,,,,,,,,,,,,,,,,,,,,,,,,,,,,,,,,,,,,,,,,,,,,,,,,,,,,,,,,,,,,,,,,,
0,26,26,63,1,,60eb29c01cbb5ca4a8a5ea2e,62c539a13c3942f0dbd9d0e6,2022-07-06_09h36.30.035,Colour_Asymmetry_Pilot,2022.1.3,Win32,59.97001499,62c50e9c1127f2cd403a315f,,,,,,,,,,,,,,,,,,,,,,,,,,,,,,,,,,,,,,,,,,,,,,,,,,,,,,,,,,,,,,,,,,,,,,,,,,,,,,,,,,,,,,,,,,,,,,,,,,,,,,,,,,,,,,,,,,,,,,,,,,,,,,,,,,,,,,,,,,,,,,,,,,,,,,,,,,,,,,,,,,,
0,27,27,48,1,,60eb29c01cbb5ca4a8a5ea2e,62c539a13c3942f0dbd9d0e6,2022-07-06_09h36.30.035,Colour_Asymmetry_Pilot,2022.1.3,Win32,59.97001499,62c50e9c1127f2cd403a315f,,,,,,,,,,,,,,,,,,,,,,,,,,,,,,,,,,,,,,,,,,,,,,,,,,,,,,,,,,,,,,,,,,,,,,,,,,,,,,,,,,,,,,,,,,,,,,,,,,,,,,,,,,,,,,,,,,,,,,,,,,,,,,,,,,,,,,,,,,,,,,,,,,,,,,,,,,,,,,,,,,,
0,28,28,17,1,,60eb29c01cbb5ca4a8a5ea2e,62c539a13c3942f0dbd9d0e6,2022-07-06_09h36.30.035,Colour_Asymmetry_Pilot,2022.1.3,Win32,59.97001499,62c50e9c1127f2cd403a315f,,,,,,,,,,,,,,,,,,,,,,,,,,,,,,,,,,,,,,,,,,,,,,,,,,,,,,,,,,,,,,,,,,,,,,,,,,,,,,,,,,,,,,,,,,,,,,,,,,,,,,,,,,,,,,,,,,,,,,,,,,,,,,,,,,,,,,,,,,,,,,,,,,,,,,,,,,,,,,,,,,,
0,29,29,11,1,,60eb29c01cbb5ca4a8a5ea2e,62c539a13c3942f0dbd9d0e6,2022-07-06_09h36.30.035,Colour_Asymmetry_Pilot,2022.1.3,Win32,59.97001499,62c50e9c1127f2cd403a315f,,,,,,,,,,,,,,,,,,,,,,,,,,,,,,,,,,,,,,,,,,,,,,,,,,,,,,,,,,,,,,,,,,,,,,,,,,,,,,,,,,,,,,,,,,,,,,,,,,,,,,,,,,,,,,,,,,,,,,,,,,,,,,,,,,,,,,,,,,,,,,,,,,,,,,,,,,,,,,,,,,,
0,30,30,38,1,,60eb29c01cbb5ca4a8a5ea2e,62c539a13c3942f0dbd9d0e6,2022-07-06_09h36.30.035,Colour_Asymmetry_Pilot,2022.1.3,Win32,59.97001499,62c50e9c1127f2cd403a315f,,,,,,,,,,,,,,,,,,,,,,,,,,,,,,,,,,,,,,,,,,,,,,,,,,,,,,,,,,,,,,,,,,,,,,,,,,,,,,,,,,,,,,,,,,,,,,,,,,,,,,,,,,,,,,,,,,,,,,,,,,,,,,,,,,,,,,,,,,,,,,,,,,,,,,,,,,,,,,,,,,,
0,31,31,49,1,,60eb29c01cbb5ca4a8a5ea2e,62c539a13c3942f0dbd9d0e6,2022-07-06_09h36.30.035,Colour_Asymmetry_Pilot,2022.1.3,Win32,59.97001499,62c50e9c1127f2cd403a315f,,,,,,,,,,,,,,,,,,,,,,,,,,,,,,,,,,,,,,,,,,,,,,,,,,,,,,,,,,,,,,,,,,,,,,,,,,,,,,,,,,,,,,,,,,,,,,,,,,,,,,,,,,,,,,,,,,,,,,,,,,,,,,,,,,,,,,,,,,,,,,,,,,,,,,,,,,,,,,,,,,,
0,32,32,83,1,,60eb29c01cbb5ca4a8a5ea2e,62c539a13c3942f0dbd9d0e6,2022-07-06_09h36.30.035,Colour_Asymmetry_Pilot,2022.1.3,Win32,59.97001499,62c50e9c1127f2cd403a315f,,,,,,,,,,,,,,,,,,,,,,,,,,,,,,,,,,,,,,,,,,,,,,,,,,,,,,,,,,,,,,,,,,,,,,,,,,,,,,,,,,,,,,,,,,,,,,,,,,,,,,,,,,,,,,,,,,,,,,,,,,,,,,,,,,,,,,,,,,,,,,,,,,,,,,,,,,,,,,,,,,,
0,33,33,61,1,,60eb29c01cbb5ca4a8a5ea2e,62c539a13c3942f0dbd9d0e6,2022-07-06_09h36.30.035,Colour_Asymmetry_Pilot,2022.1.3,Win32,59.97001499,62c50e9c1127f2cd403a315f,,,,,,,,,,,,,,,,,,,,,,,,,,,,,,,,,,,,,,,,,,,,,,,,,,,,,,,,,,,,,,,,,,,,,,,,,,,,,,,,,,,,,,,,,,,,,,,,,,,,,,,,,,,,,,,,,,,,,,,,,,,,,,,,,,,,,,,,,,,,,,,,,,,,,,,,,,,,,,,,,,,
0,34,34,44,1,,60eb29c01cbb5ca4a8a5ea2e,62c539a13c3942f0dbd9d0e6,2022-07-06_09h36.30.035,Colour_Asymmetry_Pilot,2022.1.3,Win32,59.97001499,62c50e9c1127f2cd403a315f,,,,,,,,,,,,,,,,,,,,,,,,,,,,,,,,,,,,,,,,,,,,,,,,,,,,,,,,,,,,,,,,,,,,,,,,,,,,,,,,,,,,,,,,,,,,,,,,,,,,,,,,,,,,,,,,,,,,,,,,,,,,,,,,,,,,,,,,,,,,,,,,,,,,,,,,,,,,,,,,,,,
0,35,35,36,1,,60eb29c01cbb5ca4a8a5ea2e,62c539a13c3942f0dbd9d0e6,2022-07-06_09h36.30.035,Colour_Asymmetry_Pilot,2022.1.3,Win32,59.97001499,62c50e9c1127f2cd403a315f,,,,,,,,,,,,,,,,,,,,,,,,,,,,,,,,,,,,,,,,,,,,,,,,,,,,,,,,,,,,,,,,,,,,,,,,,,,,,,,,,,,,,,,,,,,,,,,,,,,,,,,,,,,,,,,,,,,,,,,,,,,,,,,,,,,,,,,,,,,,,,,,,,,,,,,,,,,,,,,,,,,
0,36,36,0,1,,60eb29c01cbb5ca4a8a5ea2e,62c539a13c3942f0dbd9d0e6,2022-07-06_09h36.30.035,Colour_Asymmetry_Pilot,2022.1.3,Win32,59.97001499,62c50e9c1127f2cd403a315f,,,,,,,,,,,,,,,,,,,,,,,,,,,,,,,,,,,,,,,,,,,,,,,,,,,,,,,,,,,,,,,,,,,,,,,,,,,,,,,,,,,,,,,,,,,,,,,,,,,,,,,,,,,,,,,,,,,,,,,,,,,,,,,,,,,,,,,,,,,,,,,,,,,,,,,,,,,,,,,,,,,
0,37,37,25,1,,60eb29c01cbb5ca4a8a5ea2e,62c539a13c3942f0dbd9d0e6,2022-07-06_09h36.30.035,Colour_Asymmetry_Pilot,2022.1.3,Win32,59.97001499,62c50e9c1127f2cd403a315f,,,,,,,,,,,,,,,,,,,,,,,,,,,,,,,,,,,,,,,,,,,,,,,,,,,,,,,,,,,,,,,,,,,,,,,,,,,,,,,,,,,,,,,,,,,,,,,,,,,,,,,,,,,,,,,,,,,,,,,,,,,,,,,,,,,,,,,,,,,,,,,,,,,,,,,,,,,,,,,,,,,
0,38,38,64,1,,60eb29c01cbb5ca4a8a5ea2e,62c539a13c3942f0dbd9d0e6,2022-07-06_09h36.30.035,Colour_Asymmetry_Pilot,2022.1.3,Win32,59.97001499,62c50e9c1127f2cd403a315f,,,,,,,,,,,,,,,,,,,,,,,,,,,,,,,,,,,,,,,,,,,,,,,,,,,,,,,,,,,,,,,,,,,,,,,,,,,,,,,,,,,,,,,,,,,,,,,,,,,,,,,,,,,,,,,,,,,,,,,,,,,,,,,,,,,,,,,,,,,,,,,,,,,,,,,,,,,,,,,,,,,
0,39,39,24,1,,60eb29c01cbb5ca4a8a5ea2e,62c539a13c3942f0dbd9d0e6,2022-07-06_09h36.30.035,Colour_Asymmetry_Pilot,2022.1.3,Win32,59.97001499,62c50e9c1127f2cd403a315f,,,,,,,,,,,,,,,,,,,,,,,,,,,,,,,,,,,,,,,,,,,,,,,,,,,,,,,,,,,,,,,,,,,,,,,,,,,,,,,,,,,,,,,,,,,,,,,,,,,,,,,,,,,,,,,,,,,,,,,,,,,,,,,,,,,,,,,,,,,,,,,,,,,,,,,,,,,,,,,,,,,
0,40,40,4,1,,60eb29c01cbb5ca4a8a5ea2e,62c539a13c3942f0dbd9d0e6,2022-07-06_09h36.30.035,Colour_Asymmetry_Pilot,2022.1.3,Win32,59.97001499,62c50e9c1127f2cd403a315f,,,,,,,,,,,,,,,,,,,,,,,,,,,,,,,,,,,,,,,,,,,,,,,,,,,,,,,,,,,,,,,,,,,,,,,,,,,,,,,,,,,,,,,,,,,,,,,,,,,,,,,,,,,,,,,,,,,,,,,,,,,,,,,,,,,,,,,,,,,,,,,,,,,,,,,,,,,,,,,,,,,
0,41,41,90,1,,60eb29c01cbb5ca4a8a5ea2e,62c539a13c3942f0dbd9d0e6,2022-07-06_09h36.30.035,Colour_Asymmetry_Pilot,2022.1.3,Win32,59.97001499,62c50e9c1127f2cd403a315f,,,,,,,,,,,,,,,,,,,,,,,,,,,,,,,,,,,,,,,,,,,,,,,,,,,,,,,,,,,,,,,,,,,,,,,,,,,,,,,,,,,,,,,,,,,,,,,,,,,,,,,,,,,,,,,,,,,,,,,,,,,,,,,,,,,,,,,,,,,,,,,,,,,,,,,,,,,,,,,,,,,
0,42,42,6,1,,60eb29c01cbb5ca4a8a5ea2e,62c539a13c3942f0dbd9d0e6,2022-07-06_09h36.30.035,Colour_Asymmetry_Pilot,2022.1.3,Win32,59.97001499,62c50e9c1127f2cd403a315f,,,,,,,,,,,,,,,,,,,,,,,,,,,,,,,,,,,,,,,,,,,,,,,,,,,,,,,,,,,,,,,,,,,,,,,,,,,,,,,,,,,,,,,,,,,,,,,,,,,,,,,,,,,,,,,,,,,,,,,,,,,,,,,,,,,,,,,,,,,,,,,,,,,,,,,,,,,,,,,,,,,
0,43,43,88,1,,60eb29c01cbb5ca4a8a5ea2e,62c539a13c3942f0dbd9d0e6,2022-07-06_09h36.30.035,Colour_Asymmetry_Pilot,2022.1.3,Win32,59.97001499,62c50e9c1127f2cd403a315f,,,,,,,,,,,,,,,,,,,,,,,,,,,,,,,,,,,,,,,,,,,,,,,,,,,,,,,,,,,,,,,,,,,,,,,,,,,,,,,,,,,,,,,,,,,,,,,,,,,,,,,,,,,,,,,,,,,,,,,,,,,,,,,,,,,,,,,,,,,,,,,,,,,,,,,,,,,,,,,,,,,
0,44,44,91,1,,60eb29c01cbb5ca4a8a5ea2e,62c539a13c3942f0dbd9d0e6,2022-07-06_09h36.30.035,Colour_Asymmetry_Pilot,2022.1.3,Win32,59.97001499,62c50e9c1127f2cd403a315f,,,,,,,,,,,,,,,,,,,,,,,,,,,,,,,,,,,,,,,,,,,,,,,,,,,,,,,,,,,,,,,,,,,,,,,,,,,,,,,,,,,,,,,,,,,,,,,,,,,,,,,,,,,,,,,,,,,,,,,,,,,,,,,,,,,,,,,,,,,,,,,,,,,,,,,,,,,,,,,,,,,
0,45,45,65,1,,60eb29c01cbb5ca4a8a5ea2e,62c539a13c3942f0dbd9d0e6,2022-07-06_09h36.30.035,Colour_Asymmetry_Pilot,2022.1.3,Win32,59.97001499,62c50e9c1127f2cd403a315f,,,,,,,,,,,,,,,,,,,,,,,,,,,,,,,,,,,,,,,,,,,,,,,,,,,,,,,,,,,,,,,,,,,,,,,,,,,,,,,,,,,,,,,,,,,,,,,,,,,,,,,,,,,,,,,,,,,,,,,,,,,,,,,,,,,,,,,,,,,,,,,,,,,,,,,,,,,,,,,,,,,
0,46,46,15,1,,60eb29c01cbb5ca4a8a5ea2e,62c539a13c3942f0dbd9d0e6,2022-07-06_09h36.30.035,Colour_Asymmetry_Pilot,2022.1.3,Win32,59.97001499,62c50e9c1127f2cd403a315f,,,,,,,,,,,,,,,,,,,,,,,,,,,,,,,,,,,,,,,,,,,,,,,,,,,,,,,,,,,,,,,,,,,,,,,,,,,,,,,,,,,,,,,,,,,,,,,,,,,,,,,,,,,,,,,,,,,,,,,,,,,,,,,,,,,,,,,,,,,,,,,,,,,,,,,,,,,,,,,,,,,
0,47,47,22,1,,60eb29c01cbb5ca4a8a5ea2e,62c539a13c3942f0dbd9d0e6,2022-07-06_09h36.30.035,Colour_Asymmetry_Pilot,2022.1.3,Win32,59.97001499,62c50e9c1127f2cd403a315f,,,,,,,,,,,,,,,,,,,,,,,,,,,,,,,,,,,,,,,,,,,,,,,,,,,,,,,,,,,,,,,,,,,,,,,,,,,,,,,,,,,,,,,,,,,,,,,,,,,,,,,,,,,,,,,,,,,,,,,,,,,,,,,,,,,,,,,,,,,,,,,,,,,,,,,,,,,,,,,,,,,
0,48,48,27,1,,60eb29c01cbb5ca4a8a5ea2e,62c539a13c3942f0dbd9d0e6,2022-07-06_09h36.30.035,Colour_Asymmetry_Pilot,2022.1.3,Win32,59.97001499,62c50e9c1127f2cd403a315f,,,,,,,,,,,,,,,,,,,,,,,,,,,,,,,,,,,,,,,,,,,,,,,,,,,,,,,,,,,,,,,,,,,,,,,,,,,,,,,,,,,,,,,,,,,,,,,,,,,,,,,,,,,,,,,,,,,,,,,,,,,,,,,,,,,,,,,,,,,,,,,,,,,,,,,,,,,,,,,,,,,
0,49,49,34,1,,60eb29c01cbb5ca4a8a5ea2e,62c539a13c3942f0dbd9d0e6,2022-07-06_09h36.30.035,Colour_Asymmetry_Pilot,2022.1.3,Win32,59.97001499,62c50e9c1127f2cd403a315f,,,,,,,,,,,,,,,,,,,,,,,,,,,,,,,,,,,,,,,,,,,,,,,,,,,,,,,,,,,,,,,,,,,,,,,,,,,,,,,,,,,,,,,,,,,,,,,,,,,,,,,,,,,,,,,,,,,,,,,,,,,,,,,,,,,,,,,,,,,,,,,,,,,,,,,,,,,,,,,,,,,
0,50,50,13,1,,60eb29c01cbb5ca4a8a5ea2e,62c539a13c3942f0dbd9d0e6,2022-07-06_09h36.30.035,Colour_Asymmetry_Pilot,2022.1.3,Win32,59.97001499,62c50e9c1127f2cd403a315f,,,,,,,,,,,,,,,,,,,,,,,,,,,,,,,,,,,,,,,,,,,,,,,,,,,,,,,,,,,,,,,,,,,,,,,,,,,,,,,,,,,,,,,,,,,,,,,,,,,,,,,,,,,,,,,,,,,,,,,,,,,,,,,,,,,,,,,,,,,,,,,,,,,,,,,,,,,,,,,,,,,
0,51,51,5,1,,60eb29c01cbb5ca4a8a5ea2e,62c539a13c3942f0dbd9d0e6,2022-07-06_09h36.30.035,Colour_Asymmetry_Pilot,2022.1.3,Win32,59.97001499,62c50e9c1127f2cd403a315f,,,,,,,,,,,,,,,,,,,,,,,,,,,,,,,,,,,,,,,,,,,,,,,,,,,,,,,,,,,,,,,,,,,,,,,,,,,,,,,,,,,,,,,,,,,,,,,,,,,,,,,,,,,,,,,,,,,,,,,,,,,,,,,,,,,,,,,,,,,,,,,,,,,,,,,,,,,,,,,,,,,
0,52,52,46,1,,60eb29c01cbb5ca4a8a5ea2e,62c539a13c3942f0dbd9d0e6,2022-07-06_09h36.30.035,Colour_Asymmetry_Pilot,2022.1.3,Win32,59.97001499,62c50e9c1127f2cd403a315f,,,,,,,,,,,,,,,,,,,,,,,,,,,,,,,,,,,,,,,,,,,,,,,,,,,,,,,,,,,,,,,,,,,,,,,,,,,,,,,,,,,,,,,,,,,,,,,,,,,,,,,,,,,,,,,,,,,,,,,,,,,,,,,,,,,,,,,,,,,,,,,,,,,,,,,,,,,,,,,,,,,
0,53,53,2,1,,60eb29c01cbb5ca4a8a5ea2e,62c539a13c3942f0dbd9d0e6,2022-07-06_09h36.30.035,Colour_Asymmetry_Pilot,2022.1.3,Win32,59.97001499,62c50e9c1127f2cd403a315f,,,,,,,,,,,,,,,,,,,,,,,,,,,,,,,,,,,,,,,,,,,,,,,,,,,,,,,,,,,,,,,,,,,,,,,,,,,,,,,,,,,,,,,,,,,,,,,,,,,,,,,,,,,,,,,,,,,,,,,,,,,,,,,,,,,,,,,,,,,,,,,,,,,,,,,,,,,,,,,,,,,
0,54,54,74,1,,60eb29c01cbb5ca4a8a5ea2e,62c539a13c3942f0dbd9d0e6,2022-07-06_09h36.30.035,Colour_Asymmetry_Pilot,2022.1.3,Win32,59.97001499,62c50e9c1127f2cd403a315f,,,,,,,,,,,,,,,,,,,,,,,,,,,,,,,,,,,,,,,,,,,,,,,,,,,,,,,,,,,,,,,,,,,,,,,,,,,,,,,,,,,,,,,,,,,,,,,,,,,,,,,,,,,,,,,,,,,,,,,,,,,,,,,,,,,,,,,,,,,,,,,,,,,,,,,,,,,,,,,,,,,
0,55,55,86,1,,60eb29c01cbb5ca4a8a5ea2e,62c539a13c3942f0dbd9d0e6,2022-07-06_09h36.30.035,Colour_Asymmetry_Pilot,2022.1.3,Win32,59.97001499,62c50e9c1127f2cd403a315f,,,,,,,,,,,,,,,,,,,,,,,,,,,,,,,,,,,,,,,,,,,,,,,,,,,,,,,,,,,,,,,,,,,,,,,,,,,,,,,,,,,,,,,,,,,,,,,,,,,,,,,,,,,,,,,,,,,,,,,,,,,,,,,,,,,,,,,,,,,,,,,,,,,,,,,,,,,,,,,,,,,
0,56,56,42,1,,60eb29c01cbb5ca4a8a5ea2e,62c539a13c3942f0dbd9d0e6,2022-07-06_09h36.30.035,Colour_Asymmetry_Pilot,2022.1.3,Win32,59.97001499,62c50e9c1127f2cd403a315f,,,,,,,,,,,,,,,,,,,,,,,,,,,,,,,,,,,,,,,,,,,,,,,,,,,,,,,,,,,,,,,,,,,,,,,,,,,,,,,,,,,,,,,,,,,,,,,,,,,,,,,,,,,,,,,,,,,,,,,,,,,,,,,,,,,,,,,,,,,,,,,,,,,,,,,,,,,,,,,,,,,
0,57,57,66,1,,60eb29c01cbb5ca4a8a5ea2e,62c539a13c3942f0dbd9d0e6,2022-07-06_09h36.30.035,Colour_Asymmetry_Pilot,2022.1.3,Win32,59.97001499,62c50e9c1127f2cd403a315f,,,,,,,,,,,,,,,,,,,,,,,,,,,,,,,,,,,,,,,,,,,,,,,,,,,,,,,,,,,,,,,,,,,,,,,,,,,,,,,,,,,,,,,,,,,,,,,,,,,,,,,,,,,,,,,,,,,,,,,,,,,,,,,,,,,,,,,,,,,,,,,,,,,,,,,,,,,,,,,,,,,
0,58,58,50,1,,60eb29c01cbb5ca4a8a5ea2e,62c539a13c3942f0dbd9d0e6,2022-07-06_09h36.30.035,Colour_Asymmetry_Pilot,2022.1.3,Win32,59.97001499,62c50e9c1127f2cd403a315f,,,,,,,,,,,,,,,,,,,,,,,,,,,,,,,,,,,,,,,,,,,,,,,,,,,,,,,,,,,,,,,,,,,,,,,,,,,,,,,,,,,,,,,,,,,,,,,,,,,,,,,,,,,,,,,,,,,,,,,,,,,,,,,,,,,,,,,,,,,,,,,,,,,,,,,,,,,,,,,,,,,
0,59,59,28,1,,60eb29c01cbb5ca4a8a5ea2e,62c539a13c3942f0dbd9d0e6,2022-07-06_09h36.30.035,Colour_Asymmetry_Pilot,2022.1.3,Win32,59.97001499,62c50e9c1127f2cd403a315f,,,,,,,,,,,,,,,,,,,,,,,,,,,,,,,,,,,,,,,,,,,,,,,,,,,,,,,,,,,,,,,,,,,,,,,,,,,,,,,,,,,,,,,,,,,,,,,,,,,,,,,,,,,,,,,,,,,,,,,,,,,,,,,,,,,,,,,,,,,,,,,,,,,,,,,,,,,,,,,,,,,
0,60,60,45,1,,60eb29c01cbb5ca4a8a5ea2e,62c539a13c3942f0dbd9d0e6,2022-07-06_09h36.30.035,Colour_Asymmetry_Pilot,2022.1.3,Win32,59.97001499,62c50e9c1127f2cd403a315f,,,,,,,,,,,,,,,,,,,,,,,,,,,,,,,,,,,,,,,,,,,,,,,,,,,,,,,,,,,,,,,,,,,,,,,,,,,,,,,,,,,,,,,,,,,,,,,,,,,,,,,,,,,,,,,,,,,,,,,,,,,,,,,,,,,,,,,,,,,,,,,,,,,,,,,,,,,,,,,,,,,
0,61,61,20,1,,60eb29c01cbb5ca4a8a5ea2e,62c539a13c3942f0dbd9d0e6,2022-07-06_09h36.30.035,Colour_Asymmetry_Pilot,2022.1.3,Win32,59.97001499,62c50e9c1127f2cd403a315f,,,,,,,,,,,,,,,,,,,,,,,,,,,,,,,,,,,,,,,,,,,,,,,,,,,,,,,,,,,,,,,,,,,,,,,,,,,,,,,,,,,,,,,,,,,,,,,,,,,,,,,,,,,,,,,,,,,,,,,,,,,,,,,,,,,,,,,,,,,,,,,,,,,,,,,,,,,,,,,,,,,
0,62,62,1,1,,60eb29c01cbb5ca4a8a5ea2e,62c539a13c3942f0dbd9d0e6,2022-07-06_09h36.30.035,Colour_Asymmetry_Pilot,2022.1.3,Win32,59.97001499,62c50e9c1127f2cd403a315f,,,,,,,,,,,,,,,,,,,,,,,,,,,,,,,,,,,,,,,,,,,,,,,,,,,,,,,,,,,,,,,,,,,,,,,,,,,,,,,,,,,,,,,,,,,,,,,,,,,,,,,,,,,,,,,,,,,,,,,,,,,,,,,,,,,,,,,,,,,,,,,,,,,,,,,,,,,,,,,,,,,
0,63,63,92,1,,60eb29c01cbb5ca4a8a5ea2e,62c539a13c3942f0dbd9d0e6,2022-07-06_09h36.30.035,Colour_Asymmetry_Pilot,2022.1.3,Win32,59.97001499,62c50e9c1127f2cd403a315f,,,,,,,,,,,,,,,,,,,,,,,,,,,,,,,,,,,,,,,,,,,,,,,,,,,,,,,,,,,,,,,,,,,,,,,,,,,,,,,,,,,,,,,,,,,,,,,,,,,,,,,,,,,,,,,,,,,,,,,,,,,,,,,,,,,,,,,,,,,,,,,,,,,,,,,,,,,,,,,,,,,
0,64,64,9,1,,60eb29c01cbb5ca4a8a5ea2e,62c539a13c3942f0dbd9d0e6,2022-07-06_09h36.30.035,Colour_Asymmetry_Pilot,2022.1.3,Win32,59.97001499,62c50e9c1127f2cd403a315f,,,,,,,,,,,,,,,,,,,,,,,,,,,,,,,,,,,,,,,,,,,,,,,,,,,,,,,,,,,,,,,,,,,,,,,,,,,,,,,,,,,,,,,,,,,,,,,,,,,,,,,,,,,,,,,,,,,,,,,,,,,,,,,,,,,,,,,,,,,,,,,,,,,,,,,,,,,,,,,,,,,
0,65,65,26,1,,60eb29c01cbb5ca4a8a5ea2e,62c539a13c3942f0dbd9d0e6,2022-07-06_09h36.30.035,Colour_Asymmetry_Pilot,2022.1.3,Win32,59.97001499,62c50e9c1127f2cd403a315f,,,,,,,,,,,,,,,,,,,,,,,,,,,,,,,,,,,,,,,,,,,,,,,,,,,,,,,,,,,,,,,,,,,,,,,,,,,,,,,,,,,,,,,,,,,,,,,,,,,,,,,,,,,,,,,,,,,,,,,,,,,,,,,,,,,,,,,,,,,,,,,,,,,,,,,,,,,,,,,,,,,
0,66,66,43,1,,60eb29c01cbb5ca4a8a5ea2e,62c539a13c3942f0dbd9d0e6,2022-07-06_09h36.30.035,Colour_Asymmetry_Pilot,2022.1.3,Win32,59.97001499,62c50e9c1127f2cd403a315f,,,,,,,,,,,,,,,,,,,,,,,,,,,,,,,,,,,,,,,,,,,,,,,,,,,,,,,,,,,,,,,,,,,,,,,,,,,,,,,,,,,,,,,,,,,,,,,,,,,,,,,,,,,,,,,,,,,,,,,,,,,,,,,,,,,,,,,,,,,,,,,,,,,,,,,,,,,,,,,,,,,
0,67,67,58,1,,60eb29c01cbb5ca4a8a5ea2e,62c539a13c3942f0dbd9d0e6,2022-07-06_09h36.30.035,Colour_Asymmetry_Pilot,2022.1.3,Win32,59.97001499,62c50e9c1127f2cd403a315f,,,,,,,,,,,,,,,,,,,,,,,,,,,,,,,,,,,,,,,,,,,,,,,,,,,,,,,,,,,,,,,,,,,,,,,,,,,,,,,,,,,,,,,,,,,,,,,,,,,,,,,,,,,,,,,,,,,,,,,,,,,,,,,,,,,,,,,,,,,,,,,,,,,,,,,,,,,,,,,,,,,
0,68,68,35,1,,60eb29c01cbb5ca4a8a5ea2e,62c539a13c3942f0dbd9d0e6,2022-07-06_09h36.30.035,Colour_Asymmetry_Pilot,2022.1.3,Win32,59.97001499,62c50e9c1127f2cd403a315f,,,,,,,,,,,,,,,,,,,,,,,,,,,,,,,,,,,,,,,,,,,,,,,,,,,,,,,,,,,,,,,,,,,,,,,,,,,,,,,,,,,,,,,,,,,,,,,,,,,,,,,,,,,,,,,,,,,,,,,,,,,,,,,,,,,,,,,,,,,,,,,,,,,,,,,,,,,,,,,,,,,
0,69,69,3,1,,60eb29c01cbb5ca4a8a5ea2e,62c539a13c3942f0dbd9d0e6,2022-07-06_09h36.30.035,Colour_Asymmetry_Pilot,2022.1.3,Win32,59.97001499,62c50e9c1127f2cd403a315f,,,,,,,,,,,,,,,,,,,,,,,,,,,,,,,,,,,,,,,,,,,,,,,,,,,,,,,,,,,,,,,,,,,,,,,,,,,,,,,,,,,,,,,,,,,,,,,,,,,,,,,,,,,,,,,,,,,,,,,,,,,,,,,,,,,,,,,,,,,,,,,,,,,,,,,,,,,,,,,,,,,
0,70,70,7,1,,60eb29c01cbb5ca4a8a5ea2e,62c539a13c3942f0dbd9d0e6,2022-07-06_09h36.30.035,Colour_Asymmetry_Pilot,2022.1.3,Win32,59.97001499,62c50e9c1127f2cd403a315f,,,,,,,,,,,,,,,,,,,,,,,,,,,,,,,,,,,,,,,,,,,,,,,,,,,,,,,,,,,,,,,,,,,,,,,,,,,,,,,,,,,,,,,,,,,,,,,,,,,,,,,,,,,,,,,,,,,,,,,,,,,,,,,,,,,,,,,,,,,,,,,,,,,,,,,,,,,,,,,,,,,
0,71,71,71,1,,60eb29c01cbb5ca4a8a5ea2e,62c539a13c3942f0dbd9d0e6,2022-07-06_09h36.30.035,Colour_Asymmetry_Pilot,2022.1.3,Win32,59.97001499,62c50e9c1127f2cd403a315f,,,,,,,,,,,,,,,,,,,,,,,,,,,,,,,,,,,,,,,,,,,,,,,,,,,,,,,,,,,,,,,,,,,,,,,,,,,,,,,,,,,,,,,,,,,,,,,,,,,,,,,,,,,,,,,,,,,,,,,,,,,,,,,,,,,,,,,,,,,,,,,,,,,,,,,,,,,,,,,,,,,
0,72,72,55,1,,60eb29c01cbb5ca4a8a5ea2e,62c539a13c3942f0dbd9d0e6,2022-07-06_09h36.30.035,Colour_Asymmetry_Pilot,2022.1.3,Win32,59.97001499,62c50e9c1127f2cd403a315f,,,,,,,,,,,,,,,,,,,,,,,,,,,,,,,,,,,,,,,,,,,,,,,,,,,,,,,,,,,,,,,,,,,,,,,,,,,,,,,,,,,,,,,,,,,,,,,,,,,,,,,,,,,,,,,,,,,,,,,,,,,,,,,,,,,,,,,,,,,,,,,,,,,,,,,,,,,,,,,,,,,
0,73,73,47,1,,60eb29c01cbb5ca4a8a5ea2e,62c539a13c3942f0dbd9d0e6,2022-07-06_09h36.30.035,Colour_Asymmetry_Pilot,2022.1.3,Win32,59.97001499,62c50e9c1127f2cd403a315f,,,,,,,,,,,,,,,,,,,,,,,,,,,,,,,,,,,,,,,,,,,,,,,,,,,,,,,,,,,,,,,,,,,,,,,,,,,,,,,,,,,,,,,,,,,,,,,,,,,,,,,,,,,,,,,,,,,,,,,,,,,,,,,,,,,,,,,,,,,,,,,,,,,,,,,,,,,,,,,,,,,
0,74,74,54,1,,60eb29c01cbb5ca4a8a5ea2e,62c539a13c3942f0dbd9d0e6,2022-07-06_09h36.30.035,Colour_Asymmetry_Pilot,2022.1.3,Win32,59.97001499,62c50e9c1127f2cd403a315f,,,,,,,,,,,,,,,,,,,,,,,,,,,,,,,,,,,,,,,,,,,,,,,,,,,,,,,,,,,,,,,,,,,,,,,,,,,,,,,,,,,,,,,,,,,,,,,,,,,,,,,,,,,,,,,,,,,,,,,,,,,,,,,,,,,,,,,,,,,,,,,,,,,,,,,,,,,,,,,,,,,
0,75,75,8,1,,60eb29c01cbb5ca4a8a5ea2e,62c539a13c3942f0dbd9d0e6,2022-07-06_09h36.30.035,Colour_Asymmetry_Pilot,2022.1.3,Win32,59.97001499,62c50e9c1127f2cd403a315f,,,,,,,,,,,,,,,,,,,,,,,,,,,,,,,,,,,,,,,,,,,,,,,,,,,,,,,,,,,,,,,,,,,,,,,,,,,,,,,,,,,,,,,,,,,,,,,,,,,,,,,,,,,,,,,,,,,,,,,,,,,,,,,,,,,,,,,,,,,,,,,,,,,,,,,,,,,,,,,,,,,
0,76,76,77,1,,60eb29c01cbb5ca4a8a5ea2e,62c539a13c3942f0dbd9d0e6,2022-07-06_09h36.30.035,Colour_Asymmetry_Pilot,2022.1.3,Win32,59.97001499,62c50e9c1127f2cd403a315f,,,,,,,,,,,,,,,,,,,,,,,,,,,,,,,,,,,,,,,,,,,,,,,,,,,,,,,,,,,,,,,,,,,,,,,,,,,,,,,,,,,,,,,,,,,,,,,,,,,,,,,,,,,,,,,,,,,,,,,,,,,,,,,,,,,,,,,,,,,,,,,,,,,,,,,,,,,,,,,,,,,
0,77,77,89,1,,60eb29c01cbb5ca4a8a5ea2e,62c539a13c3942f0dbd9d0e6,2022-07-06_09h36.30.035,Colour_Asymmetry_Pilot,2022.1.3,Win32,59.97001499,62c50e9c1127f2cd403a315f,,,,,,,,,,,,,,,,,,,,,,,,,,,,,,,,,,,,,,,,,,,,,,,,,,,,,,,,,,,,,,,,,,,,,,,,,,,,,,,,,,,,,,,,,,,,,,,,,,,,,,,,,,,,,,,,,,,,,,,,,,,,,,,,,,,,,,,,,,,,,,,,,,,,,,,,,,,,,,,,,,,
0,78,78,41,1,,60eb29c01cbb5ca4a8a5ea2e,62c539a13c3942f0dbd9d0e6,2022-07-06_09h36.30.035,Colour_Asymmetry_Pilot,2022.1.3,Win32,59.97001499,62c50e9c1127f2cd403a315f,,,,,,,,,,,,,,,,,,,,,,,,,,,,,,,,,,,,,,,,,,,,,,,,,,,,,,,,,,,,,,,,,,,,,,,,,,,,,,,,,,,,,,,,,,,,,,,,,,,,,,,,,,,,,,,,,,,,,,,,,,,,,,,,,,,,,,,,,,,,,,,,,,,,,,,,,,,,,,,,,,,
0,79,79,84,1,,60eb29c01cbb5ca4a8a5ea2e,62c539a13c3942f0dbd9d0e6,2022-07-06_09h36.30.035,Colour_Asymmetry_Pilot,2022.1.3,Win32,59.97001499,62c50e9c1127f2cd403a315f,,,,,,,,,,,,,,,,,,,,,,,,,,,,,,,,,,,,,,,,,,,,,,,,,,,,,,,,,,,,,,,,,,,,,,,,,,,,,,,,,,,,,,,,,,,,,,,,,,,,,,,,,,,,,,,,,,,,,,,,,,,,,,,,,,,,,,,,,,,,,,,,,,,,,,,,,,,,,,,,,,,
0,80,80,57,1,,60eb29c01cbb5ca4a8a5ea2e,62c539a13c3942f0dbd9d0e6,2022-07-06_09h36.30.035,Colour_Asymmetry_Pilot,2022.1.3,Win32,59.97001499,62c50e9c1127f2cd403a315f,,,,,,,,,,,,,,,,,,,,,,,,,,,,,,,,,,,,,,,,,,,,,,,,,,,,,,,,,,,,,,,,,,,,,,,,,,,,,,,,,,,,,,,,,,,,,,,,,,,,,,,,,,,,,,,,,,,,,,,,,,,,,,,,,,,,,,,,,,,,,,,,,,,,,,,,,,,,,,,,,,,
0,81,81,30,1,,60eb29c01cbb5ca4a8a5ea2e,62c539a13c3942f0dbd9d0e6,2022-07-06_09h36.30.035,Colour_Asymmetry_Pilot,2022.1.3,Win32,59.97001499,62c50e9c1127f2cd403a315f,,,,,,,,,,,,,,,,,,,,,,,,,,,,,,,,,,,,,,,,,,,,,,,,,,,,,,,,,,,,,,,,,,,,,,,,,,,,,,,,,,,,,,,,,,,,,,,,,,,,,,,,,,,,,,,,,,,,,,,,,,,,,,,,,,,,,,,,,,,,,,,,,,,,,,,,,,,,,,,,,,,
0,82,82,32,1,,60eb29c01cbb5ca4a8a5ea2e,62c539a13c3942f0dbd9d0e6,2022-07-06_09h36.30.035,Colour_Asymmetry_Pilot,2022.1.3,Win32,59.97001499,62c50e9c1127f2cd403a315f,,,,,,,,,,,,,,,,,,,,,,,,,,,,,,,,,,,,,,,,,,,,,,,,,,,,,,,,,,,,,,,,,,,,,,,,,,,,,,,,,,,,,,,,,,,,,,,,,,,,,,,,,,,,,,,,,,,,,,,,,,,,,,,,,,,,,,,,,,,,,,,,,,,,,,,,,,,,,,,,,,,
0,83,83,73,1,,60eb29c01cbb5ca4a8a5ea2e,62c539a13c3942f0dbd9d0e6,2022-07-06_09h36.30.035,Colour_Asymmetry_Pilot,2022.1.3,Win32,59.97001499,62c50e9c1127f2cd403a315f,,,,,,,,,,,,,,,,,,,,,,,,,,,,,,,,,,,,,,,,,,,,,,,,,,,,,,,,,,,,,,,,,,,,,,,,,,,,,,,,,,,,,,,,,,,,,,,,,,,,,,,,,,,,,,,,,,,,,,,,,,,,,,,,,,,,,,,,,,,,,,,,,,,,,,,,,,,,,,,,,,,
0,84,84,85,1,,60eb29c01cbb5ca4a8a5ea2e,62c539a13c3942f0dbd9d0e6,2022-07-06_09h36.30.035,Colour_Asymmetry_Pilot,2022.1.3,Win32,59.97001499,62c50e9c1127f2cd403a315f,,,,,,,,,,,,,,,,,,,,,,,,,,,,,,,,,,,,,,,,,,,,,,,,,,,,,,,,,,,,,,,,,,,,,,,,,,,,,,,,,,,,,,,,,,,,,,,,,,,,,,,,,,,,,,,,,,,,,,,,,,,,,,,,,,,,,,,,,,,,,,,,,,,,,,,,,,,,,,,,,,,
0,85,85,78,1,,60eb29c01cbb5ca4a8a5ea2e,62c539a13c3942f0dbd9d0e6,2022-07-06_09h36.30.035,Colour_Asymmetry_Pilot,2022.1.3,Win32,59.97001499,62c50e9c1127f2cd403a315f,,,,,,,,,,,,,,,,,,,,,,,,,,,,,,,,,,,,,,,,,,,,,,,,,,,,,,,,,,,,,,,,,,,,,,,,,,,,,,,,,,,,,,,,,,,,,,,,,,,,,,,,,,,,,,,,,,,,,,,,,,,,,,,,,,,,,,,,,,,,,,,,,,,,,,,,,,,,,,,,,,,
0,86,86,29,1,,60eb29c01cbb5ca4a8a5ea2e,62c539a13c3942f0dbd9d0e6,2022-07-06_09h36.30.035,Colour_Asymmetry_Pilot,2022.1.3,Win32,59.97001499,62c50e9c1127f2cd403a315f,,,,,,,,,,,,,,,,,,,,,,,,,,,,,,,,,,,,,,,,,,,,,,,,,,,,,,,,,,,,,,,,,,,,,,,,,,,,,,,,,,,,,,,,,,,,,,,,,,,,,,,,,,,,,,,,,,,,,,,,,,,,,,,,,,,,,,,,,,,,,,,,,,,,,,,,,,,,,,,,,,,
0,87,87,19,1,,60eb29c01cbb5ca4a8a5ea2e,62c539a13c3942f0dbd9d0e6,2022-07-06_09h36.30.035,Colour_Asymmetry_Pilot,2022.1.3,Win32,59.97001499,62c50e9c1127f2cd403a315f,,,,,,,,,,,,,,,,,,,,,,,,,,,,,,,,,,,,,,,,,,,,,,,,,,,,,,,,,,,,,,,,,,,,,,,,,,,,,,,,,,,,,,,,,,,,,,,,,,,,,,,,,,,,,,,,,,,,,,,,,,,,,,,,,,,,,,,,,,,,,,,,,,,,,,,,,,,,,,,,,,,
0,88,88,70,1,,60eb29c01cbb5ca4a8a5ea2e,62c539a13c3942f0dbd9d0e6,2022-07-06_09h36.30.035,Colour_Asymmetry_Pilot,2022.1.3,Win32,59.97001499,62c50e9c1127f2cd403a315f,,,,,,,,,,,,,,,,,,,,,,,,,,,,,,,,,,,,,,,,,,,,,,,,,,,,,,,,,,,,,,,,,,,,,,,,,,,,,,,,,,,,,,,,,,,,,,,,,,,,,,,,,,,,,,,,,,,,,,,,,,,,,,,,,,,,,,,,,,,,,,,,,,,,,,,,,,,,,,,,,,,
0,89,89,23,1,,60eb29c01cbb5ca4a8a5ea2e,62c539a13c3942f0dbd9d0e6,2022-07-06_09h36.30.035,Colour_Asymmetry_Pilot,2022.1.3,Win32,59.97001499,62c50e9c1127f2cd403a315f,,,,,,,,,,,,,,,,,,,,,,,,,,,,,,,,,,,,,,,,,,,,,,,,,,,,,,,,,,,,,,,,,,,,,,,,,,,,,,,,,,,,,,,,,,,,,,,,,,,,,,,,,,,,,,,,,,,,,,,,,,,,,,,,,,,,,,,,,,,,,,,,,,,,,,,,,,,,,,,,,,,
0,90,90,18,1,,60eb29c01cbb5ca4a8a5ea2e,62c539a13c3942f0dbd9d0e6,2022-07-06_09h36.30.035,Colour_Asymmetry_Pilot,2022.1.3,Win32,59.97001499,62c50e9c1127f2cd403a315f,,,,,,,,,,,,,,,,,,,,,,,,,,,,,,,,,,,,,,,,,,,,,,,,,,,,,,,,,,,,,,,,,,,,,,,,,,,,,,,,,,,,,,,,,,,,,,,,,,,,,,,,,,,,,,,,,,,,,,,,,,,,,,,,,,,,,,,,,,,,,,,,,,,,,,,,,,,,,,,,,,,
0,91,91,31,1,,60eb29c01cbb5ca4a8a5ea2e,62c539a13c3942f0dbd9d0e6,2022-07-06_09h36.30.035,Colour_Asymmetry_Pilot,2022.1.3,Win32,59.97001499,62c50e9c1127f2cd403a315f,,,,,,,,,,,,,,,,,,,,,,,,,,,,,,,,,,,,,,,,,,,,,,,,,,,,,,,,,,,,,,,,,,,,,,,,,,,,,,,,,,,,,,,,,,,,,,,,,,,,,,,,,,,,,,,,,,,,,,,,,,,,,,,,,,,,,,,,,,,,,,,,,,,,,,,,,,,,,,,,,,,
0,92,92,12,1,,60eb29c01cbb5ca4a8a5ea2e,62c539a13c3942f0dbd9d0e6,2022-07-06_09h36.30.035,Colour_Asymmetry_Pilot,2022.1.3,Win32,59.97001499,62c50e9c1127f2cd403a315f,,,,,,,,,,,,,,,,,,,,,,,,,,,,,,,,,,,,,,,,,,,,,,,,,,,,,,,,,,,,,,,,,,,,,,,,,,,,,,,,,,,,,,,,,,,,,,,,,,,,,,,,,,,,,,,,,,,,,,,,,,,,,,,,,,,,,,,,,,,,,,,,,,,,,,,,,,,,,,,,,,,
,,,,,,60eb29c01cbb5ca4a8a5ea2e,62c539a13c3942f0dbd9d0e6,2022-07-06_09h36.30.035,Colour_Asymmetry_Pilot,2022.1.3,Win32,59.97001499,62c50e9c1127f2cd403a315f,0,0,0,0,1,onetwo,,,,,,,,,,,,,,,,,,,,,,,,,,,,,,,,,,,,,,,,,,,,,,,,,,,,,,,,,,,,,,,,,,,,,,,,,,,,,,,,,,,,,,,,,,,,,,,,,,,,,,,,,,,,,,,,,,,,,,,,,,,,,,,,,,,,,,,,,,,,,,,,,,,,,,,,,,,,,
,,,,,,60eb29c01cbb5ca4a8a5ea2e,62c539a13c3942f0dbd9d0e6,2022-07-06_09h36.30.035,Colour_Asymmetry_Pilot,2022.1.3,Win32,59.97001499,62c50e9c1127f2cd403a315f,0,1,1,73,1,onethree,,,,,,,,,,,,,,,,,,,,,,,,,,,,,,,,,,,,,,,,,,,,,,,,,,,,,,,,,,,,,,,,,,,,,,,,,,,,,,,,,,,,,,,,,,,,,,,,,,,,,,,,,,,,,,,,,,,,,,,,,,,,,,,,,,,,,,,,,,,,,,,,,,,,,,,,,,,,,
,,,,,,60eb29c01cbb5ca4a8a5ea2e,62c539a13c3942f0dbd9d0e6,2022-07-06_09h36.30.035,Colour_Asymmetry_Pilot,2022.1.3,Win32,59.97001499,62c50e9c1127f2cd403a315f,0,2,2,27,1,twofour,,,,,,,,,,,,,,,,,,,,,,,,,,,,,,,,,,,,,,,,,,,,,,,,,,,,,,,,,,,,,,,,,,,,,,,,,,,,,,,,,,,,,,,,,,,,,,,,,,,,,,,,,,,,,,,,,,,,,,,,,,,,,,,,,,,,,,,,,,,,,,,,,,,,,,,,,,,,,
,,,,,,60eb29c01cbb5ca4a8a5ea2e,62c539a13c3942f0dbd9d0e6,2022-07-06_09h36.30.035,Colour_Asymmetry_Pilot,2022.1.3,Win32,59.97001499,62c50e9c1127f2cd403a315f,0,3,3,8,1,onetwo,,,,,,,,,,,,,,,,,,,,,,,,,,,,,,,,,,,,,,,,,,,,,,,,,,,,,,,,,,,,,,,,,,,,,,,,,,,,,,,,,,,,,,,,,,,,,,,,,,,,,,,,,,,,,,,,,,,,,,,,,,,,,,,,,,,,,,,,,,,,,,,,,,,,,,,,,,,,,
,,,,,,60eb29c01cbb5ca4a8a5ea2e,62c539a13c3942f0dbd9d0e6,2022-07-06_09h36.30.035,Colour_Asymmetry_Pilot,2022.1.3,Win32,59.97001499,62c50e9c1127f2cd403a315f,0,4,4,83,1,twofour,,,,,,,,,,,,,,,,,,,,,,,,,,,,,,,,,,,,,,,,,,,,,,,,,,,,,,,,,,,,,,,,,,,,,,,,,,,,,,,,,,,,,,,,,,,,,,,,,,,,,,,,,,,,,,,,,,,,,,,,,,,,,,,,,,,,,,,,,,,,,,,,,,,,,,,,,,,,,
,,,,,,60eb29c01cbb5ca4a8a5ea2e,62c539a13c3942f0dbd9d0e6,2022-07-06_09h36.30.035,Colour_Asymmetry_Pilot,2022.1.3,Win32,59.97001499,62c50e9c1127f2cd403a315f,0,5,5,89,1,onethree,,,,,,,,,,,,,,,,,,,,,,,,,,,,,,,,,,,,,,,,,,,,,,,,,,,,,,,,,,,,,,,,,,,,,,,,,,,,,,,,,,,,,,,,,,,,,,,,,,,,,,,,,,,,,,,,,,,,,,,,,,,,,,,,,,,,,,,,,,,,,,,,,,,,,,,,,,,,,
,,,,,,60eb29c01cbb5ca4a8a5ea2e,62c539a13c3942f0dbd9d0e6,2022-07-06_09h36.30.035,Colour_Asymmetry_Pilot,2022.1.3,Win32,59.97001499,62c50e9c1127f2cd403a315f,0,6,6,2,1,twoone,,,,,,,,,,,,,,,,,,,,,,,,,,,,,,,,,,,,,,,,,,,,,,,,,,,,,,,,,,,,,,,,,,,,,,,,,,,,,,,,,,,,,,,,,,,,,,,,,,,,,,,,,,,,,,,,,,,,,,,,,,,,,,,,,,,,,,,,,,,,,,,,,,,,,,,,,,,,,
,,,,,,60eb29c01cbb5ca4a8a5ea2e,62c539a13c3942f0dbd9d0e6,2022-07-06_09h36.30.035,Colour_Asymmetry_Pilot,2022.1.3,Win32,59.97001499,62c50e9c1127f2cd403a315f,0,7,7,120,1,onetwo,,,,,,,,,,,,,,,,,,,,,,,,,,,,,,,,,,,,,,,,,,,,,,,,,,,,,,,,,,,,,,,,,,,,,,,,,,,,,,,,,,,,,,,,,,,,,,,,,,,,,,,,,,,,,,,,,,,,,,,,,,,,,,,,,,,,,,,,,,,,,,,,,,,,,,,,,,,,,
,,,,,,60eb29c01cbb5ca4a8a5ea2e,62c539a13c3942f0dbd9d0e6,2022-07-06_09h36.30.035,Colour_Asymmetry_Pilot,2022.1.3,Win32,59.97001499,62c50e9c1127f2cd403a315f,0,8,8,101,1,threefour,,,,,,,,,,,,,,,,,,,,,,,,,,,,,,,,,,,,,,,,,,,,,,,,,,,,,,,,,,,,,,,,,,,,,,,,,,,,,,,,,,,,,,,,,,,,,,,,,,,,,,,,,,,,,,,,,,,,,,,,,,,,,,,,,,,,,,,,,,,,,,,,,,,,,,,,,,,,,
,,,,,,60eb29c01cbb5ca4a8a5ea2e,62c539a13c3942f0dbd9d0e6,2022-07-06_09h36.30.035,Colour_Asymmetry_Pilot,2022.1.3,Win32,59.97001499,62c50e9c1127f2cd403a315f,0,9,9,95,1,fourthree,,,,,,,,,,,,,,,,,,,,,,,,,,,,,,,,,,,,,,,,,,,,,,,,,,,,,,,,,,,,,,,,,,,,,,,,,,,,,,,,,,,,,,,,,,,,,,,,,,,,,,,,,,,,,,,,,,,,,,,,,,,,,,,,,,,,,,,,,,,,,,,,,,,,,,,,,,,,,
,,,,,,60eb29c01cbb5ca4a8a5ea2e,62c539a13c3942f0dbd9d0e6,2022-07-06_09h36.30.035,Colour_Asymmetry_Pilot,2022.1.3,Win32,59.97001499,62c50e9c1127f2cd403a315f,0,10,10,53,1,threefour,,,,,,,,,,,,,,,,,,,,,,,,,,,,,,,,,,,,,,,,,,,,,,,,,,,,,,,,,,,,,,,,,,,,,,,,,,,,,,,,,,,,,,,,,,,,,,,,,,,,,,,,,,,,,,,,,,,,,,,,,,,,,,,,,,,,,,,,,,,,,,,,,,,,,,,,,,,,,
,,,,,,60eb29c01cbb5ca4a8a5ea2e,62c539a13c3942f0dbd9d0e6,2022-07-06_09h36.30.035,Colour_Asymmetry_Pilot,2022.1.3,Win32,59.97001499,62c50e9c1127f2cd403a315f,0,11,11,90,1,twoone,,,,,,,,,,,,,,,,,,,,,,,,,,,,,,,,,,,,,,,,,,,,,,,,,,,,,,,,,,,,,,,,,,,,,,,,,,,,,,,,,,,,,,,,,,,,,,,,,,,,,,,,,,,,,,,,,,,,,,,,,,,,,,,,,,,,,,,,,,,,,,,,,,,,,,,,,,,,,
,,,,,,60eb29c01cbb5ca4a8a5ea2e,62c539a13c3942f0dbd9d0e6,2022-07-06_09h36.30.035,Colour_Asymmetry_Pilot,2022.1.3,Win32,59.97001499,62c50e9c1127f2cd403a315f,0,12,12,61,1,threefour,,,,,,,,,,,,,,,,,,,,,,,,,,,,,,,,,,,,,,,,,,,,,,,,,,,,,,,,,,,,,,,,,,,,,,,,,,,,,,,,,,,,,,,,,,,,,,,,,,,,,,,,,,,,,,,,,,,,,,,,,,,,,,,,,,,,,,,,,,,,,,,,,,,,,,,,,,,,,
,,,,,,60eb29c01cbb5ca4a8a5ea2e,62c539a13c3942f0dbd9d0e6,2022-07-06_09h36.30.035,Colour_Asymmetry_Pilot,2022.1.3,Win32,59.97001499,62c50e9c1127f2cd403a315f,0,13,13,111,1,fourthree,,,,,,,,,,,,,,,,,,,,,,,,,,,,,,,,,,,,,,,,,,,,,,,,,,,,,,,,,,,,,,,,,,,,,,,,,,,,,,,,,,,,,,,,,,,,,,,,,,,,,,,,,,,,,,,,,,,,,,,,,,,,,,,,,,,,,,,,,,,,,,,,,,,,,,,,,,,,,
,,,,,,60eb29c01cbb5ca4a8a5ea2e,62c539a13c3942f0dbd9d0e6,2022-07-06_09h36.30.035,Colour_Asymmetry_Pilot,2022.1.3,Win32,59.97001499,62c50e9c1127f2cd403a315f,0,14,14,96,1,onetwo,,,,,,,,,,,,,,,,,,,,,,,,,,,,,,,,,,,,,,,,,,,,,,,,,,,,,,,,,,,,,,,,,,,,,,,,,,,,,,,,,,,,,,,,,,,,,,,,,,,,,,,,,,,,,,,,,,,,,,,,,,,,,,,,,,,,,,,,,,,,,,,,,,,,,,,,,,,,,
,,,,,,60eb29c01cbb5ca4a8a5ea2e,62c539a13c3942f0dbd9d0e6,2022-07-06_09h36.30.035,Colour_Asymmetry_Pilot,2022.1.3,Win32,59.97001499,62c50e9c1127f2cd403a315f,0,15,15,16,1,onetwo,,,,,,,,,,,,,,,,,,,,,,,,,,,,,,,,,,,,,,,,,,,,,,,,,,,,,,,,,,,,,,,,,,,,,,,,,,,,,,,,,,,,,,,,,,,,,,,,,,,,,,,,,,,,,,,,,,,,,,,,,,,,,,,,,,,,,,,,,,,,,,,,,,,,,,,,,,,,,
,,,,,,60eb29c01cbb5ca4a8a5ea2e,62c539a13c3942f0dbd9d0e6,2022-07-06_09h36.30.035,Colour_Asymmetry_Pilot,2022.1.3,Win32,59.97001499,62c50e9c1127f2cd403a315f,0,16,16,114,1,twoone,,,,,,,,,,,,,,,,,,,,,,,,,,,,,,,,,,,,,,,,,,,,,,,,,,,,,,,,,,,,,,,,,,,,,,,,,,,,,,,,,,,,,,,,,,,,,,,,,,,,,,,,,,,,,,,,,,,,,,,,,,,,,,,,,,,,,,,,,,,,,,,,,,,,,,,,,,,,,
,,,,,,60eb29c01cbb5ca4a8a5ea2e,62c539a13c3942f0dbd9d0e6,2022-07-06_09h36.30.035,Colour_Asymmetry_Pilot,2022.1.3,Win32,59.97001499,62c50e9c1127f2cd403a315f,0,17,17,30,1,fourtwo,,,,,,,,,,,,,,,,,,,,,,,,,,,,,,,,,,,,,,,,,,,,,,,,,,,,,,,,,,,,,,,,,,,,,,,,,,,,,,,,,,,,,,,,,,,,,,,,,,,,,,,,,,,,,,,,,,,,,,,,,,,,,,,,,,,,,,,,,,,,,,,,,,,,,,,,,,,,,
,,,,,,60eb29c01cbb5ca4a8a5ea2e,62c539a13c3942f0dbd9d0e6,2022-07-06_09h36.30.035,Colour_Asymmetry_Pilot,2022.1.3,Win32,59.97001499,62c50e9c1127f2cd403a315f,0,18,18,152,1,onetwo,,,,,,,,,,,,,,,,,,,,,,,,,,,,,,,,,,,,,,,,,,,,,,,,,,,,,,,,,,,,,,,,,,,,,,,,,,,,,,,,,,,,,,,,,,,,,,,,,,,,,,,,,,,,,,,,,,,,,,,,,,,,,,,,,,,,,,,,,,,,,,,,,,,,,,,,,,,,,
,,,,,,60eb29c01cbb5ca4a8a5ea2e,62c539a13c3942f0dbd9d0e6,2022-07-06_09h36.30.035,Colour_Asymmetry_Pilot,2022.1.3,Win32,59.97001499,62c50e9c1127f2cd403a315f,0,19,19,158,1,fourtwo,,,,,,,,,,,,,,,,,,,,,,,,,,,,,,,,,,,,,,,,,,,,,,,,,,,,,,,,,,,,,,,,,,,,,,,,,,,,,,,,,,,,,,,,,,,,,,,,,,,,,,,,,,,,,,,,,,,,,,,,,,,,,,,,,,,,,,,,,,,,,,,,,,,,,,,,,,,,,
,,,,,,60eb29c01cbb5ca4a8a5ea2e,62c539a13c3942f0dbd9d0e6,2022-07-06_09h36.30.035,Colour_Asymmetry_Pilot,2022.1.3,Win32,59.97001499,62c50e9c1127f2cd403a315f,0,20,20,48,1,onetwo,,,,,,,,,,,,,,,,,,,,,,,,,,,,,,,,,,,,,,,,,,,,,,,,,,,,,,,,,,,,,,,,,,,,,,,,,,,,,,,,,,,,,,,,,,,,,,,,,,,,,,,,,,,,,,,,,,,,,,,,,,,,,,,,,,,,,,,,,,,,,,,,,,,,,,,,,,,,,
,,,,,,60eb29c01cbb5ca4a8a5ea2e,62c539a13c3942f0dbd9d0e6,2022-07-06_09h36.30.035,Colour_Asymmetry_Pilot,2022.1.3,Win32,59.97001499,62c50e9c1127f2cd403a315f,0,21,21,82,1,twoone,,,,,,,,,,,,,,,,,,,,,,,,,,,,,,,,,,,,,,,,,,,,,,,,,,,,,,,,,,,,,,,,,,,,,,,,,,,,,,,,,,,,,,,,,,,,,,,,,,,,,,,,,,,,,,,,,,,,,,,,,,,,,,,,,,,,,,,,,,,,,,,,,,,,,,,,,,,,,
,,,,,,60eb29c01cbb5ca4a8a5ea2e,62c539a13c3942f0dbd9d0e6,2022-07-06_09h36.30.035,Colour_Asymmetry_Pilot,2022.1.3,Win32,59.97001499,62c50e9c1127f2cd403a315f,0,22,22,5,1,threefour,,,,,,,,,,,,,,,,,,,,,,,,,,,,,,,,,,,,,,,,,,,,,,,,,,,,,,,,,,,,,,,,,,,,,,,,,,,,,,,,,,,,,,,,,,,,,,,,,,,,,,,,,,,,,,,,,,,,,,,,,,,,,,,,,,,,,,,,,,,,,,,,,,,,,,,,,,,,,
,,,,,,60eb29c01cbb5ca4a8a5ea2e,62c539a13c3942f0dbd9d0e6,2022-07-06_09h36.30.035,Colour_Asymmetry_Pilot,2022.1.3,Win32,59.97001499,62c50e9c1127f2cd403a315f,0,23,23,126,1,fourtwo,,,,,,,,,,,,,,,,,,,,,,,,,,,,,,,,,,,,,,,,,,,,,,,,,,,,,,,,,,,,,,,,,,,,,,,,,,,,,,,,,,,,,,,,,,,,,,,,,,,,,,,,,,,,,,,,,,,,,,,,,,,,,,,,,,,,,,,,,,,,,,,,,,,,,,,,,,,,,
,,,,,,60eb29c01cbb5ca4a8a5ea2e,62c539a13c3942f0dbd9d0e6,2022-07-06_09h36.30.035,Colour_Asymmetry_Pilot,2022.1.3,Win32,59.97001499,62c50e9c1127f2cd403a315f,0,24,24,67,1,twofour,,,,,,,,,,,,,,,,,,,,,,,,,,,,,,,,,,,,,,,,,,,,,,,,,,,,,,,,,,,,,,,,,,,,,,,,,,,,,,,,,,,,,,,,,,,,,,,,,,,,,,,,,,,,,,,,,,,,,,,,,,,,,,,,,,,,,,,,,,,,,,,,,,,,,,,,,,,,,
,,,,,,60eb29c01cbb5ca4a8a5ea2e,62c539a13c3942f0dbd9d0e6,2022-07-06_09h36.30.035,Colour_Asymmetry_Pilot,2022.1.3,Win32,59.97001499,62c50e9c1127f2cd403a315f,0,25,25,33,1,onethree,,,,,,,,,,,,,,,,,,,,,,,,,,,,,,,,,,,,,,,,,,,,,,,,,,,,,,,,,,,,,,,,,,,,,,,,,,,,,,,,,,,,,,,,,,,,,,,,,,,,,,,,,,,,,,,,,,,,,,,,,,,,,,,,,,,,,,,,,,,,,,,,,,,,,,,,,,,,,
,,,,,,60eb29c01cbb5ca4a8a5ea2e,62c539a13c3942f0dbd9d0e6,2022-07-06_09h36.30.035,Colour_Asymmetry_Pilot,2022.1.3,Win32,59.97001499,62c50e9c1127f2cd403a315f,0,26,26,72,1,onetwo,,,,,,,,,,,,,,,,,,,,,,,,,,,,,,,,,,,,,,,,,,,,,,,,,,,,,,,,,,,,,,,,,,,,,,,,,,,,,,,,,,,,,,,,,,,,,,,,,,,,,,,,,,,,,,,,,,,,,,,,,,,,,,,,,,,,,,,,,,,,,,,,,,,,,,,,,,,,,
,,,,,,60eb29c01cbb5ca4a8a5ea2e,62c539a13c3942f0dbd9d0e6,2022-07-06_09h36.30.035,Colour_Asymmetry_Pilot,2022.1.3,Win32,59.97001499,62c50e9c1127f2cd403a315f,0,27,27,66,1,twoone,,,,,,,,,,,,,,,,,,,,,,,,,,,,,,,,,,,,,,,,,,,,,,,,,,,,,,,,,,,,,,,,,,,,,,,,,,,,,,,,,,,,,,,,,,,,,,,,,,,,,,,,,,,,,,,,,,,,,,,,,,,,,,,,,,,,,,,,,,,,,,,,,,,,,,,,,,,,,
,,,,,,60eb29c01cbb5ca4a8a5ea2e,62c539a13c3942f0dbd9d0e6,2022-07-06_09h36.30.035,Colour_Asymmetry_Pilot,2022.1.3,Win32,59.97001499,62c50e9c1127f2cd403a315f,0,28,28,80,1,onetwo,,,,,,,,,,,,,,,,,,,,,,,,,,,,,,,,,,,,,,,,,,,,,,,,,,,,,,,,,,,,,,,,,,,,,,,,,,,,,,,,,,,,,,,,,,,,,,,,,,,,,,,,,,,,,,,,,,,,,,,,,,,,,,,,,,,,,,,,,,,,,,,,,,,,,,,,,,,,,
,,,,,,60eb29c01cbb5ca4a8a5ea2e,62c539a13c3942f0dbd9d0e6,2022-07-06_09h36.30.035,Colour_Asymmetry_Pilot,2022.1.3,Win32,59.97001499,62c50e9c1127f2cd403a315f,0,29,29,130,1,twoone,,,,,,,,,,,,,,,,,,,,,,,,,,,,,,,,,,,,,,,,,,,,,,,,,,,,,,,,,,,,,,,,,,,,,,,,,,,,,,,,,,,,,,,,,,,,,,,,,,,,,,,,,,,,,,,,,,,,,,,,,,,,,,,,,,,,,,,,,,,,,,,,,,,,,,,,,,,,,
,,,,,,60eb29c01cbb5ca4a8a5ea2e,62c539a13c3942f0dbd9d0e6,2022-07-06_09h36.30.035,Colour_Asymmetry_Pilot,2022.1.3,Win32,59.97001499,62c50e9c1127f2cd403a315f,0,30,30,121,1,onethree,,,,,,,,,,,,,,,,,,,,,,,,,,,,,,,,,,,,,,,,,,,,,,,,,,,,,,,,,,,,,,,,,,,,,,,,,,,,,,,,,,,,,,,,,,,,,,,,,,,,,,,,,,,,,,,,,,,,,,,,,,,,,,,,,,,,,,,,,,,,,,,,,,,,,,,,,,,,,
,,,,,,60eb29c01cbb5ca4a8a5ea2e,62c539a13c3942f0dbd9d0e6,2022-07-06_09h36.30.035,Colour_Asymmetry_Pilot,2022.1.3,Win32,59.97001499,62c50e9c1127f2cd403a315f,0,31,31,148,1,threeone,,,,,,,,,,,,,,,,,,,,,,,,,,,,,,,,,,,,,,,,,,,,,,,,,,,,,,,,,,,,,,,,,,,,,,,,,,,,,,,,,,,,,,,,,,,,,,,,,,,,,,,,,,,,,,,,,,,,,,,,,,,,,,,,,,,,,,,,,,,,,,,,,,,,,,,,,,,,,
,,,,,,60eb29c01cbb5ca4a8a5ea2e,62c539a13c3942f0dbd9d0e6,2022-07-06_09h36.30.035,Colour_Asymmetry_Pilot,2022.1.3,Win32,59.97001499,62c50e9c1127f2cd403a315f,0,32,32,15,1,fourthree,,,,,,,,,,,,,,,,,,,,,,,,,,,,,,,,,,,,,,,,,,,,,,,,,,,,,,,,,,,,,,,,,,,,,,,,,,,,,,,,,,,,,,,,,,,,,,,,,,,,,,,,,,,,,,,,,,,,,,,,,,,,,,,,,,,,,,,,,,,,,,,,,,,,,,,,,,,,,
,,,,,,60eb29c01cbb5ca4a8a5ea2e,62c539a13c3942f0dbd9d0e6,2022-07-06_09h36.30.035,Colour_Asymmetry_Pilot,2022.1.3,Win32,59.97001499,62c50e9c1127f2cd403a315f,0,33,33,57,1,onethree,,,,,,,,,,,,,,,,,,,,,,,,,,,,,,,,,,,,,,,,,,,,,,,,,,,,,,,,,,,,,,,,,,,,,,,,,,,,,,,,,,,,,,,,,,,,,,,,,,,,,,,,,,,,,,,,,,,,,,,,,,,,,,,,,,,,,,,,,,,,,,,,,,,,,,,,,,,,,
,,,,,,60eb29c01cbb5ca4a8a5ea2e,62c539a13c3942f0dbd9d0e6,2022-07-06_09h36.30.035,Colour_Asymmetry_Pilot,2022.1.3,Win32,59.97001499,62c50e9c1127f2cd403a315f,0,34,34,155,1,twofour,,,,,,,,,,,,,,,,,,,,,,,,,,,,,,,,,,,,,,,,,,,,,,,,,,,,,,,,,,,,,,,,,,,,,,,,,,,,,,,,,,,,,,,,,,,,,,,,,,,,,,,,,,,,,,,,,,,,,,,,,,,,,,,,,,,,,,,,,,,,,,,,,,,,,,,,,,,,,
,,,,,,60eb29c01cbb5ca4a8a5ea2e,62c539a13c3942f0dbd9d0e6,2022-07-06_09h36.30.035,Colour_Asymmetry_Pilot,2022.1.3,Win32,59.97001499,62c50e9c1127f2cd403a315f,0,35,35,69,1,threefour,,,,,,,,,,,,,,,,,,,,,,,,,,,,,,,,,,,,,,,,,,,,,,,,,,,,,,,,,,,,,,,,,,,,,,,,,,,,,,,,,,,,,,,,,,,,,,,,,,,,,,,,,,,,,,,,,,,,,,,,,,,,,,,,,,,,,,,,,,,,,,,,,,,,,,,,,,,,,
,,,,,,60eb29c01cbb5ca4a8a5ea2e,62c539a13c3942f0dbd9d0e6,2022-07-06_09h36.30.035,Colour_Asymmetry_Pilot,2022.1.3,Win32,59.97001499,62c50e9c1127f2cd403a315f,0,36,36,7,1,fourthree,,,,,,,,,,,,,,,,,,,,,,,,,,,,,,,,,,,,,,,,,,,,,,,,,,,,,,,,,,,,,,,,,,,,,,,,,,,,,,,,,,,,,,,,,,,,,,,,,,,,,,,,,,,,,,,,,,,,,,,,,,,,,,,,,,,,,,,,,,,,,,,,,,,,,,,,,,,,,
,,,,,,60eb29c01cbb5ca4a8a5ea2e,62c539a13c3942f0dbd9d0e6,2022-07-06_09h36.30.035,Colour_Asymmetry_Pilot,2022.1.3,Win32,59.97001499,62c50e9c1127f2cd403a315f,0,37,37,103,1,fourthree,,,,,,,,,,,,,,,,,,,,,,,,,,,,,,,,,,,,,,,,,,,,,,,,,,,,,,,,,,,,,,,,,,,,,,,,,,,,,,,,,,,,,,,,,,,,,,,,,,,,,,,,,,,,,,,,,,,,,,,,,,,,,,,,,,,,,,,,,,,,,,,,,,,,,,,,,,,,,
,,,,,,60eb29c01cbb5ca4a8a5ea2e,62c539a13c3942f0dbd9d0e6,2022-07-06_09h36.30.035,Colour_Asymmetry_Pilot,2022.1.3,Win32,59.97001499,62c50e9c1127f2cd403a315f,0,38,38,149,1,threefour,,,,,,,,,,,,,,,,,,,,,,,,,,,,,,,,,,,,,,,,,,,,,,,,,,,,,,,,,,,,,,,,,,,,,,,,,,,,,,,,,,,,,,,,,,,,,,,,,,,,,,,,,,,,,,,,,,,,,,,,,,,,,,,,,,,,,,,,,,,,,,,,,,,,,,,,,,,,,
,,,,,,60eb29c01cbb5ca4a8a5ea2e,62c539a13c3942f0dbd9d0e6,2022-07-06_09h36.30.035,Colour_Asymmetry_Pilot,2022.1.3,Win32,59.97001499,62c50e9c1127f2cd403a315f,0,39,39,122,1,twoone,,,,,,,,,,,,,,,,,,,,,,,,,,,,,,,,,,,,,,,,,,,,,,,,,,,,,,,,,,,,,,,,,,,,,,,,,,,,,,,,,,,,,,,,,,,,,,,,,,,,,,,,,,,,,,,,,,,,,,,,,,,,,,,,,,,,,,,,,,,,,,,,,,,,,,,,,,,,,
,,,,,,60eb29c01cbb5ca4a8a5ea2e,62c539a13c3942f0dbd9d0e6,2022-07-06_09h36.30.035,Colour_Asymmetry_Pilot,2022.1.3,Win32,59.97001499,62c50e9c1127f2cd403a315f,0,40,40,4,1,threeone,,,,,,,,,,,,,,,,,,,,,,,,,,,,,,,,,,,,,,,,,,,,,,,,,,,,,,,,,,,,,,,,,,,,,,,,,,,,,,,,,,,,,,,,,,,,,,,,,,,,,,,,,,,,,,,,,,,,,,,,,,,,,,,,,,,,,,,,,,,,,,,,,,,,,,,,,,,,,
,,,,,,60eb29c01cbb5ca4a8a5ea2e,62c539a13c3942f0dbd9d0e6,2022-07-06_09h36.30.035,Colour_Asymmetry_Pilot,2022.1.3,Win32,59.97001499,62c50e9c1127f2cd403a315f,0,41,41,79,1,fourthree,,,,,,,,,,,,,,,,,,,,,,,,,,,,,,,,,,,,,,,,,,,,,,,,,,,,,,,,,,,,,,,,,,,,,,,,,,,,,,,,,,,,,,,,,,,,,,,,,,,,,,,,,,,,,,,,,,,,,,,,,,,,,,,,,,,,,,,,,,,,,,,,,,,,,,,,,,,,,
,,,,,,60eb29c01cbb5ca4a8a5ea2e,62c539a13c3942f0dbd9d0e6,2022-07-06_09h36.30.035,Colour_Asymmetry_Pilot,2022.1.3,Win32,59.97001499,62c50e9c1127f2cd403a315f,0,42,42,39,1,fourthree,,,,,,,,,,,,,,,,,,,,,,,,,,,,,,,,,,,,,,,,,,,,,,,,,,,,,,,,,,,,,,,,,,,,,,,,,,,,,,,,,,,,,,,,,,,,,,,,,,,,,,,,,,,,,,,,,,,,,,,,,,,,,,,,,,,,,,,,,,,,,,,,,,,,,,,,,,,,,
,,,,,,60eb29c01cbb5ca4a8a5ea2e,62c539a13c3942f0dbd9d0e6,2022-07-06_09h36.30.035,Colour_Asymmetry_Pilot,2022.1.3,Win32,59.97001499,62c50e9c1127f2cd403a315f,0,43,43,59,1,twofour,,,,,,,,,,,,,,,,,,,,,,,,,,,,,,,,,,,,,,,,,,,,,,,,,,,,,,,,,,,,,,,,,,,,,,,,,,,,,,,,,,,,,,,,,,,,,,,,,,,,,,,,,,,,,,,,,,,,,,,,,,,,,,,,,,,,,,,,,,,,,,,,,,,,,,,,,,,,,
,,,,,,60eb29c01cbb5ca4a8a5ea2e,62c539a13c3942f0dbd9d0e6,2022-07-06_09h36.30.035,Colour_Asymmetry_Pilot,2022.1.3,Win32,59.97001499,62c50e9c1127f2cd403a315f,0,44,44,54,1,fourtwo,,,,,,,,,,,,,,,,,,,,,,,,,,,,,,,,,,,,,,,,,,,,,,,,,,,,,,,,,,,,,,,,,,,,,,,,,,,,,,,,,,,,,,,,,,,,,,,,,,,,,,,,,,,,,,,,,,,,,,,,,,,,,,,,,,,,,,,,,,,,,,,,,,,,,,,,,,,,,
,,,,,,60eb29c01cbb5ca4a8a5ea2e,62c539a13c3942f0dbd9d0e6,2022-07-06_09h36.30.035,Colour_Asymmetry_Pilot,2022.1.3,Win32,59.97001499,62c50e9c1127f2cd403a315f,0,45,45,21,1,threefour,,,,,,,,,,,,,,,,,,,,,,,,,,,,,,,,,,,,,,,,,,,,,,,,,,,,,,,,,,,,,,,,,,,,,,,,,,,,,,,,,,,,,,,,,,,,,,,,,,,,,,,,,,,,,,,,,,,,,,,,,,,,,,,,,,,,,,,,,,,,,,,,,,,,,,,,,,,,,
,,,,,,60eb29c01cbb5ca4a8a5ea2e,62c539a13c3942f0dbd9d0e6,2022-07-06_09h36.30.035,Colour_Asymmetry_Pilot,2022.1.3,Win32,59.97001499,62c50e9c1127f2cd403a315f,0,46,46,51,1,twofour,,,,,,,,,,,,,,,,,,,,,,,,,,,,,,,,,,,,,,,,,,,,,,,,,,,,,,,,,,,,,,,,,,,,,,,,,,,,,,,,,,,,,,,,,,,,,,,,,,,,,,,,,,,,,,,,,,,,,,,,,,,,,,,,,,,,,,,,,,,,,,,,,,,,,,,,,,,,,
,,,,,,60eb29c01cbb5ca4a8a5ea2e,62c539a13c3942f0dbd9d0e6,2022-07-06_09h36.30.035,Colour_Asymmetry_Pilot,2022.1.3,Win32,59.97001499,62c50e9c1127f2cd403a315f,0,47,47,99,1,twofour,,,,,,,,,,,,,,,,,,,,,,,,,,,,,,,,,,,,,,,,,,,,,,,,,,,,,,,,,,,,,,,,,,,,,,,,,,,,,,,,,,,,,,,,,,,,,,,,,,,,,,,,,,,,,,,,,,,,,,,,,,,,,,,,,,,,,,,,,,,,,,,,,,,,,,,,,,,,,
,,,,,,60eb29c01cbb5ca4a8a5ea2e,62c539a13c3942f0dbd9d0e6,2022-07-06_09h36.30.035,Colour_Asymmetry_Pilot,2022.1.3,Win32,59.97001499,62c50e9c1127f2cd403a315f,0,48,48,47,1,fourthree,,,,,,,,,,,,,,,,,,,,,,,,,,,,,,,,,,,,,,,,,,,,,,,,,,,,,,,,,,,,,,,,,,,,,,,,,,,,,,,,,,,,,,,,,,,,,,,,,,,,,,,,,,,,,,,,,,,,,,,,,,,,,,,,,,,,,,,,,,,,,,,,,,,,,,,,,,,,,
,,,,,,60eb29c01cbb5ca4a8a5ea2e,62c539a13c3942f0dbd9d0e6,2022-07-06_09h36.30.035,Colour_Asymmetry_Pilot,2022.1.3,Win32,59.97001499,62c50e9c1127f2cd403a315f,0,49,49,137,1,onethree,,,,,,,,,,,,,,,,,,,,,,,,,,,,,,,,,,,,,,,,,,,,,,,,,,,,,,,,,,,,,,,,,,,,,,,,,,,,,,,,,,,,,,,,,,,,,,,,,,,,,,,,,,,,,,,,,,,,,,,,,,,,,,,,,,,,,,,,,,,,,,,,,,,,,,,,,,,,,
,,,,,,60eb29c01cbb5ca4a8a5ea2e,62c539a13c3942f0dbd9d0e6,2022-07-06_09h36.30.035,Colour_Asymmetry_Pilot,2022.1.3,Win32,59.97001499,62c50e9c1127f2cd403a315f,0,50,50,109,1,threefour,,,,,,,,,,,,,,,,,,,,,,,,,,,,,,,,,,,,,,,,,,,,,,,,,,,,,,,,,,,,,,,,,,,,,,,,,,,,,,,,,,,,,,,,,,,,,,,,,,,,,,,,,,,,,,,,,,,,,,,,,,,,,,,,,,,,,,,,,,,,,,,,,,,,,,,,,,,,,
,,,,,,60eb29c01cbb5ca4a8a5ea2e,62c539a13c3942f0dbd9d0e6,2022-07-06_09h36.30.035,Colour_Asymmetry_Pilot,2022.1.3,Win32,59.97001499,62c50e9c1127f2cd403a315f,0,51,51,1,1,onethree,,,,,,,,,,,,,,,,,,,,,,,,,,,,,,,,,,,,,,,,,,,,,,,,,,,,,,,,,,,,,,,,,,,,,,,,,,,,,,,,,,,,,,,,,,,,,,,,,,,,,,,,,,,,,,,,,,,,,,,,,,,,,,,,,,,,,,,,,,,,,,,,,,,,,,,,,,,,,
,,,,,,60eb29c01cbb5ca4a8a5ea2e,62c539a13c3942f0dbd9d0e6,2022-07-06_09h36.30.035,Colour_Asymmetry_Pilot,2022.1.3,Win32,59.97001499,62c50e9c1127f2cd403a315f,0,52,52,142,1,fourtwo,,,,,,,,,,,,,,,,,,,,,,,,,,,,,,,,,,,,,,,,,,,,,,,,,,,,,,,,,,,,,,,,,,,,,,,,,,,,,,,,,,,,,,,,,,,,,,,,,,,,,,,,,,,,,,,,,,,,,,,,,,,,,,,,,,,,,,,,,,,,,,,,,,,,,,,,,,,,,
,,,,,,60eb29c01cbb5ca4a8a5ea2e,62c539a13c3942f0dbd9d0e6,2022-07-06_09h36.30.035,Colour_Asymmetry_Pilot,2022.1.3,Win32,59.97001499,62c50e9c1127f2cd403a315f,0,53,53,50,1,twoone,,,,,,,,,,,,,,,,,,,,,,,,,,,,,,,,,,,,,,,,,,,,,,,,,,,,,,,,,,,,,,,,,,,,,,,,,,,,,,,,,,,,,,,,,,,,,,,,,,,,,,,,,,,,,,,,,,,,,,,,,,,,,,,,,,,,,,,,,,,,,,,,,,,,,,,,,,,,,
,,,,,,60eb29c01cbb5ca4a8a5ea2e,62c539a13c3942f0dbd9d0e6,2022-07-06_09h36.30.035,Colour_Asymmetry_Pilot,2022.1.3,Win32,59.97001499,62c50e9c1127f2cd403a315f,0,54,54,11,1,twofour,,,,,,,,,,,,,,,,,,,,,,,,,,,,,,,,,,,,,,,,,,,,,,,,,,,,,,,,,,,,,,,,,,,,,,,,,,,,,,,,,,,,,,,,,,,,,,,,,,,,,,,,,,,,,,,,,,,,,,,,,,,,,,,,,,,,,,,,,,,,,,,,,,,,,,,,,,,,,
,,,,,,60eb29c01cbb5ca4a8a5ea2e,62c539a13c3942f0dbd9d0e6,2022-07-06_09h36.30.035,Colour_Asymmetry_Pilot,2022.1.3,Win32,59.97001499,62c50e9c1127f2cd403a315f,0,55,55,157,1,threefour,,,,,,,,,,,,,,,,,,,,,,,,,,,,,,,,,,,,,,,,,,,,,,,,,,,,,,,,,,,,,,,,,,,,,,,,,,,,,,,,,,,,,,,,,,,,,,,,,,,,,,,,,,,,,,,,,,,,,,,,,,,,,,,,,,,,,,,,,,,,,,,,,,,,,,,,,,,,,
,,,,,,60eb29c01cbb5ca4a8a5ea2e,62c539a13c3942f0dbd9d0e6,2022-07-06_09h36.30.035,Colour_Asymmetry_Pilot,2022.1.3,Win32,59.97001499,62c50e9c1127f2cd403a315f,0,56,56,77,1,threefour,,,,,,,,,,,,,,,,,,,,,,,,,,,,,,,,,,,,,,,,,,,,,,,,,,,,,,,,,,,,,,,,,,,,,,,,,,,,,,,,,,,,,,,,,,,,,,,,,,,,,,,,,,,,,,,,,,,,,,,,,,,,,,,,,,,,,,,,,,,,,,,,,,,,,,,,,,,,,
,,,,,,60eb29c01cbb5ca4a8a5ea2e,62c539a13c3942f0dbd9d0e6,2022-07-06_09h36.30.035,Colour_Asymmetry_Pilot,2022.1.3,Win32,59.97001499,62c50e9c1127f2cd403a315f,0,57,57,156,1,threeone,,,,,,,,,,,,,,,,,,,,,,,,,,,,,,,,,,,,,,,,,,,,,,,,,,,,,,,,,,,,,,,,,,,,,,,,,,,,,,,,,,,,,,,,,,,,,,,,,,,,,,,,,,,,,,,,,,,,,,,,,,,,,,,,,,,,,,,,,,,,,,,,,,,,,,,,,,,,,
,,,,,,60eb29c01cbb5ca4a8a5ea2e,62c539a13c3942f0dbd9d0e6,2022-07-06_09h36.30.035,Colour_Asymmetry_Pilot,2022.1.3,Win32,59.97001499,62c50e9c1127f2cd403a315f,0,58,58,91,1,twofour,,,,,,,,,,,,,,,,,,,,,,,,,,,,,,,,,,,,,,,,,,,,,,,,,,,,,,,,,,,,,,,,,,,,,,,,,,,,,,,,,,,,,,,,,,,,,,,,,,,,,,,,,,,,,,,,,,,,,,,,,,,,,,,,,,,,,,,,,,,,,,,,,,,,,,,,,,,,,
,,,,,,60eb29c01cbb5ca4a8a5ea2e,62c539a13c3942f0dbd9d0e6,2022-07-06_09h36.30.035,Colour_Asymmetry_Pilot,2022.1.3,Win32,59.97001499,62c50e9c1127f2cd403a315f,0,59,59,71,1,fourthree,,,,,,,,,,,,,,,,,,,,,,,,,,,,,,,,,,,,,,,,,,,,,,,,,,,,,,,,,,,,,,,,,,,,,,,,,,,,,,,,,,,,,,,,,,,,,,,,,,,,,,,,,,,,,,,,,,,,,,,,,,,,,,,,,,,,,,,,,,,,,,,,,,,,,,,,,,,,,
,,,,,,60eb29c01cbb5ca4a8a5ea2e,62c539a13c3942f0dbd9d0e6,2022-07-06_09h36.30.035,Colour_Asymmetry_Pilot,2022.1.3,Win32,59.97001499,62c50e9c1127f2cd403a315f,0,60,60,52,1,threeone,,,,,,,,,,,,,,,,,,,,,,,,,,,,,,,,,,,,,,,,,,,,,,,,,,,,,,,,,,,,,,,,,,,,,,,,,,,,,,,,,,,,,,,,,,,,,,,,,,,,,,,,,,,,,,,,,,,,,,,,,,,,,,,,,,,,,,,,,,,,,,,,,,,,,,,,,,,,,
,,,,,,60eb29c01cbb5ca4a8a5ea2e,62c539a13c3942f0dbd9d0e6,2022-07-06_09h36.30.035,Colour_Asymmetry_Pilot,2022.1.3,Win32,59.97001499,62c50e9c1127f2cd403a315f,0,61,61,34,1,twoone,,,,,,,,,,,,,,,,,,,,,,,,,,,,,,,,,,,,,,,,,,,,,,,,,,,,,,,,,,,,,,,,,,,,,,,,,,,,,,,,,,,,,,,,,,,,,,,,,,,,,,,,,,,,,,,,,,,,,,,,,,,,,,,,,,,,,,,,,,,,,,,,,,,,,,,,,,,,,
,,,,,,60eb29c01cbb5ca4a8a5ea2e,62c539a13c3942f0dbd9d0e6,2022-07-06_09h36.30.035,Colour_Asymmetry_Pilot,2022.1.3,Win32,59.97001499,62c50e9c1127f2cd403a315f,0,62,62,18,1,twoone,,,,,,,,,,,,,,,,,,,,,,,,,,,,,,,,,,,,,,,,,,,,,,,,,,,,,,,,,,,,,,,,,,,,,,,,,,,,,,,,,,,,,,,,,,,,,,,,,,,,,,,,,,,,,,,,,,,,,,,,,,,,,,,,,,,,,,,,,,,,,,,,,,,,,,,,,,,,,
,,,,,,60eb29c01cbb5ca4a8a5ea2e,62c539a13c3942f0dbd9d0e6,2022-07-06_09h36.30.035,Colour_Asymmetry_Pilot,2022.1.3,Win32,59.97001499,62c50e9c1127f2cd403a315f,0,63,63,127,1,fourthree,,,,,,,,,,,,,,,,,,,,,,,,,,,,,,,,,,,,,,,,,,,,,,,,,,,,,,,,,,,,,,,,,,,,,,,,,,,,,,,,,,,,,,,,,,,,,,,,,,,,,,,,,,,,,,,,,,,,,,,,,,,,,,,,,,,,,,,,,,,,,,,,,,,,,,,,,,,,,
,,,,,,60eb29c01cbb5ca4a8a5ea2e,62c539a13c3942f0dbd9d0e6,2022-07-06_09h36.30.035,Colour_Asymmetry_Pilot,2022.1.3,Win32,59.97001499,62c50e9c1127f2cd403a315f,0,64,64,56,1,onetwo,,,,,,,,,,,,,,,,,,,,,,,,,,,,,,,,,,,,,,,,,,,,,,,,,,,,,,,,,,,,,,,,,,,,,,,,,,,,,,,,,,,,,,,,,,,,,,,,,,,,,,,,,,,,,,,,,,,,,,,,,,,,,,,,,,,,,,,,,,,,,,,,,,,,,,,,,,,,,
,,,,,,60eb29c01cbb5ca4a8a5ea2e,62c539a13c3942f0dbd9d0e6,2022-07-06_09h36.30.035,Colour_Asymmetry_Pilot,2022.1.3,Win32,59.97001499,62c50e9c1127f2cd403a315f,0,65,65,31,1,fourthree,,,,,,,,,,,,,,,,,,,,,,,,,,,,,,,,,,,,,,,,,,,,,,,,,,,,,,,,,,,,,,,,,,,,,,,,,,,,,,,,,,,,,,,,,,,,,,,,,,,,,,,,,,,,,,,,,,,,,,,,,,,,,,,,,,,,,,,,,,,,,,,,,,,,,,,,,,,,,
,,,,,,60eb29c01cbb5ca4a8a5ea2e,62c539a13c3942f0dbd9d0e6,2022-07-06_09h36.30.035,Colour_Asymmetry_Pilot,2022.1.3,Win32,59.97001499,62c50e9c1127f2cd403a315f,0,66,66,100,1,threeone,,,,,,,,,,,,,,,,,,,,,,,,,,,,,,,,,,,,,,,,,,,,,,,,,,,,,,,,,,,,,,,,,,,,,,,,,,,,,,,,,,,,,,,,,,,,,,,,,,,,,,,,,,,,,,,,,,,,,,,,,,,,,,,,,,,,,,,,,,,,,,,,,,,,,,,,,,,,,
,,,,,,60eb29c01cbb5ca4a8a5ea2e,62c539a13c3942f0dbd9d0e6,2022-07-06_09h36.30.035,Colour_Asymmetry_Pilot,2022.1.3,Win32,59.97001499,62c50e9c1127f2cd403a315f,0,67,67,104,1,onetwo,,,,,,,,,,,,,,,,,,,,,,,,,,,,,,,,,,,,,,,,,,,,,,,,,,,,,,,,,,,,,,,,,,,,,,,,,,,,,,,,,,,,,,,,,,,,,,,,,,,,,,,,,,,,,,,,,,,,,,,,,,,,,,,,,,,,,,,,,,,,,,,,,,,,,,,,,,,,,
,,,,,,60eb29c01cbb5ca4a8a5ea2e,62c539a13c3942f0dbd9d0e6,2022-07-06_09h36.30.035,Colour_Asymmetry_Pilot,2022.1.3,Win32,59.97001499,62c50e9c1127f2cd403a315f,0,68,68,9,1,onethree,,,,,,,,,,,,,,,,,,,,,,,,,,,,,,,,,,,,,,,,,,,,,,,,,,,,,,,,,,,,,,,,,,,,,,,,,,,,,,,,,,,,,,,,,,,,,,,,,,,,,,,,,,,,,,,,,,,,,,,,,,,,,,,,,,,,,,,,,,,,,,,,,,,,,,,,,,,,,
,,,,,,60eb29c01cbb5ca4a8a5ea2e,62c539a13c3942f0dbd9d0e6,2022-07-06_09h36.30.035,Colour_Asymmetry_Pilot,2022.1.3,Win32,59.97001499,62c50e9c1127f2cd403a315f,0,69,69,98,1,twoone,,,,,,,,,,,,,,,,,,,,,,,,,,,,,,,,,,,,,,,,,,,,,,,,,,,,,,,,,,,,,,,,,,,,,,,,,,,,,,,,,,,,,,,,,,,,,,,,,,,,,,,,,,,,,,,,,,,,,,,,,,,,,,,,,,,,,,,,,,,,,,,,,,,,,,,,,,,,,
,,,,,,60eb29c01cbb5ca4a8a5ea2e,62c539a13c3942f0dbd9d0e6,2022-07-06_09h36.30.035,Colour_Asymmetry_Pilot,2022.1.3,Win32,59.97001499,62c50e9c1127f2cd403a315f,0,70,70,105,1,onethree,,,,,,,,,,,,,,,,,,,,,,,,,,,,,,,,,,,,,,,,,,,,,,,,,,,,,,,,,,,,,,,,,,,,,,,,,,,,,,,,,,,,,,,,,,,,,,,,,,,,,,,,,,,,,,,,,,,,,,,,,,,,,,,,,,,,,,,,,,,,,,,,,,,,,,,,,,,,,
,,,,,,60eb29c01cbb5ca4a8a5ea2e,62c539a13c3942f0dbd9d0e6,2022-07-06_09h36.30.035,Colour_Asymmetry_Pilot,2022.1.3,Win32,59.97001499,62c50e9c1127f2cd403a315f,0,71,71,124,1,threeone,,,,,,,,,,,,,,,,,,,,,,,,,,,,,,,,,,,,,,,,,,,,,,,,,,,,,,,,,,,,,,,,,,,,,,,,,,,,,,,,,,,,,,,,,,,,,,,,,,,,,,,,,,,,,,,,,,,,,,,,,,,,,,,,,,,,,,,,,,,,,,,,,,,,,,,,,,,,,
,,,,,,60eb29c01cbb5ca4a8a5ea2e,62c539a13c3942f0dbd9d0e6,2022-07-06_09h36.30.035,Colour_Asymmetry_Pilot,2022.1.3,Win32,59.97001499,62c50e9c1127f2cd403a315f,0,72,72,116,1,threeone,,,,,,,,,,,,,,,,,,,,,,,,,,,,,,,,,,,,,,,,,,,,,,,,,,,,,,,,,,,,,,,,,,,,,,,,,,,,,,,,,,,,,,,,,,,,,,,,,,,,,,,,,,,,,,,,,,,,,,,,,,,,,,,,,,,,,,,,,,,,,,,,,,,,,,,,,,,,,
,,,,,,60eb29c01cbb5ca4a8a5ea2e,62c539a13c3942f0dbd9d0e6,2022-07-06_09h36.30.035,Colour_Asymmetry_Pilot,2022.1.3,Win32,59.97001499,62c50e9c1127f2cd403a315f,0,73,73,65,1,onethree,,,,,,,,,,,,,,,,,,,,,,,,,,,,,,,,,,,,,,,,,,,,,,,,,,,,,,,,,,,,,,,,,,,,,,,,,,,,,,,,,,,,,,,,,,,,,,,,,,,,,,,,,,,,,,,,,,,,,,,,,,,,,,,,,,,,,,,,,,,,,,,,,,,,,,,,,,,,,
,,,,,,60eb29c01cbb5ca4a8a5ea2e,62c539a13c3942f0dbd9d0e6,2022-07-06_09h36.30.035,Colour_Asymmetry_Pilot,2022.1.3,Win32,59.97001499,62c50e9c1127f2cd403a315f,0,74,74,115,1,twofour,,,,,,,,,,,,,,,,,,,,,,,,,,,,,,,,,,,,,,,,,,,,,,,,,,,,,,,,,,,,,,,,,,,,,,,,,,,,,,,,,,,,,,,,,,,,,,,,,,,,,,,,,,,,,,,,,,,,,,,,,,,,,,,,,,,,,,,,,,,,,,,,,,,,,,,,,,,,,
,,,,,,60eb29c01cbb5ca4a8a5ea2e,62c539a13c3942f0dbd9d0e6,2022-07-06_09h36.30.035,Colour_Asymmetry_Pilot,2022.1.3,Win32,59.97001499,62c50e9c1127f2cd403a315f,0,75,75,151,1,fourthree,,,,,,,,,,,,,,,,,,,,,,,,,,,,,,,,,,,,,,,,,,,,,,,,,,,,,,,,,,,,,,,,,,,,,,,,,,,,,,,,,,,,,,,,,,,,,,,,,,,,,,,,,,,,,,,,,,,,,,,,,,,,,,,,,,,,,,,,,,,,,,,,,,,,,,,,,,,,,
,,,,,,60eb29c01cbb5ca4a8a5ea2e,62c539a13c3942f0dbd9d0e6,2022-07-06_09h36.30.035,Colour_Asymmetry_Pilot,2022.1.3,Win32,59.97001499,62c50e9c1127f2cd403a315f,0,76,76,58,1,twoone,,,,,,,,,,,,,,,,,,,,,,,,,,,,,,,,,,,,,,,,,,,,,,,,,,,,,,,,,,,,,,,,,,,,,,,,,,,,,,,,,,,,,,,,,,,,,,,,,,,,,,,,,,,,,,,,,,,,,,,,,,,,,,,,,,,,,,,,,,,,,,,,,,,,,,,,,,,,,
,,,,,,60eb29c01cbb5ca4a8a5ea2e,62c539a13c3942f0dbd9d0e6,2022-07-06_09h36.30.035,Colour_Asymmetry_Pilot,2022.1.3,Win32,59.97001499,62c50e9c1127f2cd403a315f,0,77,77,43,1,twofour,,,,,,,,,,,,,,,,,,,,,,,,,,,,,,,,,,,,,,,,,,,,,,,,,,,,,,,,,,,,,,,,,,,,,,,,,,,,,,,,,,,,,,,,,,,,,,,,,,,,,,,,,,,,,,,,,,,,,,,,,,,,,,,,,,,,,,,,,,,,,,,,,,,,,,,,,,,,,
,,,,,,60eb29c01cbb5ca4a8a5ea2e,62c539a13c3942f0dbd9d0e6,2022-07-06_09h36.30.035,Colour_Asymmetry_Pilot,2022.1.3,Win32,59.97001499,62c50e9c1127f2cd403a315f,0,78,78,64,1,onetwo,,,,,,,,,,,,,,,,,,,,,,,,,,,,,,,,,,,,,,,,,,,,,,,,,,,,,,,,,,,,,,,,,,,,,,,,,,,,,,,,,,,,,,,,,,,,,,,,,,,,,,,,,,,,,,,,,,,,,,,,,,,,,,,,,,,,,,,,,,,,,,,,,,,,,,,,,,,,,
,,,,,,60eb29c01cbb5ca4a8a5ea2e,62c539a13c3942f0dbd9d0e6,2022-07-06_09h36.30.035,Colour_Asymmetry_Pilot,2022.1.3,Win32,59.97001499,62c50e9c1127f2cd403a315f,0,79,79,139,1,twofour,,,,,,,,,,,,,,,,,,,,,,,,,,,,,,,,,,,,,,,,,,,,,,,,,,,,,,,,,,,,,,,,,,,,,,,,,,,,,,,,,,,,,,,,,,,,,,,,,,,,,,,,,,,,,,,,,,,,,,,,,,,,,,,,,,,,,,,,,,,,,,,,,,,,,,,,,,,,,
,,,,,,60eb29c01cbb5ca4a8a5ea2e,62c539a13c3942f0dbd9d0e6,2022-07-06_09h36.30.035,Colour_Asymmetry_Pilot,2022.1.3,Win32,59.97001499,62c50e9c1127f2cd403a315f,0,80,80,118,1,fourtwo,,,,,,,,,,,,,,,,,,,,,,,,,,,,,,,,,,,,,,,,,,,,,,,,,,,,,,,,,,,,,,,,,,,,,,,,,,,,,,,,,,,,,,,,,,,,,,,,,,,,,,,,,,,,,,,,,,,,,,,,,,,,,,,,,,,,,,,,,,,,,,,,,,,,,,,,,,,,,
,,,,,,60eb29c01cbb5ca4a8a5ea2e,62c539a13c3942f0dbd9d0e6,2022-07-06_09h36.30.035,Colour_Asymmetry_Pilot,2022.1.3,Win32,59.97001499,62c50e9c1127f2cd403a315f,0,81,81,135,1,fourthree,,,,,,,,,,,,,,,,,,,,,,,,,,,,,,,,,,,,,,,,,,,,,,,,,,,,,,,,,,,,,,,,,,,,,,,,,,,,,,,,,,,,,,,,,,,,,,,,,,,,,,,,,,,,,,,,,,,,,,,,,,,,,,,,,,,,,,,,,,,,,,,,,,,,,,,,,,,,,
,,,,,,60eb29c01cbb5ca4a8a5ea2e,62c539a13c3942f0dbd9d0e6,2022-07-06_09h36.30.035,Colour_Asymmetry_Pilot,2022.1.3,Win32,59.97001499,62c50e9c1127f2cd403a315f,0,82,82,144,1,onetwo,,,,,,,,,,,,,,,,,,,,,,,,,,,,,,,,,,,,,,,,,,,,,,,,,,,,,,,,,,,,,,,,,,,,,,,,,,,,,,,,,,,,,,,,,,,,,,,,,,,,,,,,,,,,,,,,,,,,,,,,,,,,,,,,,,,,,,,,,,,,,,,,,,,,,,,,,,,,,
,,,,,,60eb29c01cbb5ca4a8a5ea2e,62c539a13c3942f0dbd9d0e6,2022-07-06_09h36.30.035,Colour_Asymmetry_Pilot,2022.1.3,Win32,59.97001499,62c50e9c1127f2cd403a315f,0,83,83,113,1,onethree,,,,,,,,,,,,,,,,,,,,,,,,,,,,,,,,,,,,,,,,,,,,,,,,,,,,,,,,,,,,,,,,,,,,,,,,,,,,,,,,,,,,,,,,,,,,,,,,,,,,,,,,,,,,,,,,,,,,,,,,,,,,,,,,,,,,,,,,,,,,,,,,,,,,,,,,,,,,,
,,,,,,60eb29c01cbb5ca4a8a5ea2e,62c539a13c3942f0dbd9d0e6,2022-07-06_09h36.30.035,Colour_Asymmetry_Pilot,2022.1.3,Win32,59.97001499,62c50e9c1127f2cd403a315f,0,84,84,84,1,threeone,,,,,,,,,,,,,,,,,,,,,,,,,,,,,,,,,,,,,,,,,,,,,,,,,,,,,,,,,,,,,,,,,,,,,,,,,,,,,,,,,,,,,,,,,,,,,,,,,,,,,,,,,,,,,,,,,,,,,,,,,,,,,,,,,,,,,,,,,,,,,,,,,,,,,,,,,,,,,
,,,,,,60eb29c01cbb5ca4a8a5ea2e,62c539a13c3942f0dbd9d0e6,2022-07-06_09h36.30.035,Colour_Asymmetry_Pilot,2022.1.3,Win32,59.97001499,62c50e9c1127f2cd403a315f,0,85,85,35,1,twofour,,,,,,,,,,,,,,,,,,,,,,,,,,,,,,,,,,,,,,,,,,,,,,,,,,,,,,,,,,,,,,,,,,,,,,,,,,,,,,,,,,,,,,,,,,,,,,,,,,,,,,,,,,,,,,,,,,,,,,,,,,,,,,,,,,,,,,,,,,,,,,,,,,,,,,,,,,,,,
,,,,,,60eb29c01cbb5ca4a8a5ea2e,62c539a13c3942f0dbd9d0e6,2022-07-06_09h36.30.035,Colour_Asymmetry_Pilot,2022.1.3,Win32,59.97001499,62c50e9c1127f2cd403a315f,0,86,86,133,1,threefour,,,,,,,,,,,,,,,,,,,,,,,,,,,,,,,,,,,,,,,,,,,,,,,,,,,,,,,,,,,,,,,,,,,,,,,,,,,,,,,,,,,,,,,,,,,,,,,,,,,,,,,,,,,,,,,,,,,,,,,,,,,,,,,,,,,,,,,,,,,,,,,,,,,,,,,,,,,,,
,,,,,,60eb29c01cbb5ca4a8a5ea2e,62c539a13c3942f0dbd9d0e6,2022-07-06_09h36.30.035,Colour_Asymmetry_Pilot,2022.1.3,Win32,59.97001499,62c50e9c1127f2cd403a315f,0,87,87,37,1,threefour,,,,,,,,,,,,,,,,,,,,,,,,,,,,,,,,,,,,,,,,,,,,,,,,,,,,,,,,,,,,,,,,,,,,,,,,,,,,,,,,,,,,,,,,,,,,,,,,,,,,,,,,,,,,,,,,,,,,,,,,,,,,,,,,,,,,,,,,,,,,,,,,,,,,,,,,,,,,,
,,,,,,60eb29c01cbb5ca4a8a5ea2e,62c539a13c3942f0dbd9d0e6,2022-07-06_09h36.30.035,Colour_Asymmetry_Pilot,2022.1.3,Win32,59.97001499,62c50e9c1127f2cd403a315f,0,88,88,159,1,fourthree,,,,,,,,,,,,,,,,,,,,,,,,,,,,,,,,,,,,,,,,,,,,,,,,,,,,,,,,,,,,,,,,,,,,,,,,,,,,,,,,,,,,,,,,,,,,,,,,,,,,,,,,,,,,,,,,,,,,,,,,,,,,,,,,,,,,,,,,,,,,,,,,,,,,,,,,,,,,,
,,,,,,60eb29c01cbb5ca4a8a5ea2e,62c539a13c3942f0dbd9d0e6,2022-07-06_09h36.30.035,Colour_Asymmetry_Pilot,2022.1.3,Win32,59.97001499,62c50e9c1127f2cd403a315f,0,89,89,49,1,onethree,,,,,,,,,,,,,,,,,,,,,,,,,,,,,,,,,,,,,,,,,,,,,,,,,,,,,,,,,,,,,,,,,,,,,,,,,,,,,,,,,,,,,,,,,,,,,,,,,,,,,,,,,,,,,,,,,,,,,,,,,,,,,,,,,,,,,,,,,,,,,,,,,,,,,,,,,,,,,
,,,,,,60eb29c01cbb5ca4a8a5ea2e,62c539a13c3942f0dbd9d0e6,2022-07-06_09h36.30.035,Colour_Asymmetry_Pilot,2022.1.3,Win32,59.97001499,62c50e9c1127f2cd403a315f,0,90,90,88,1,onetwo,,,,,,,,,,,,,,,,,,,,,,,,,,,,,,,,,,,,,,,,,,,,,,,,,,,,,,,,,,,,,,,,,,,,,,,,,,,,,,,,,,,,,,,,,,,,,,,,,,,,,,,,,,,,,,,,,,,,,,,,,,,,,,,,,,,,,,,,,,,,,,,,,,,,,,,,,,,,,
,,,,,,60eb29c01cbb5ca4a8a5ea2e,62c539a13c3942f0dbd9d0e6,2022-07-06_09h36.30.035,Colour_Asymmetry_Pilot,2022.1.3,Win32,59.97001499,62c50e9c1127f2cd403a315f,0,91,91,22,1,fourtwo,,,,,,,,,,,,,,,,,,,,,,,,,,,,,,,,,,,,,,,,,,,,,,,,,,,,,,,,,,,,,,,,,,,,,,,,,,,,,,,,,,,,,,,,,,,,,,,,,,,,,,,,,,,,,,,,,,,,,,,,,,,,,,,,,,,,,,,,,,,,,,,,,,,,,,,,,,,,,
,,,,,,60eb29c01cbb5ca4a8a5ea2e,62c539a13c3942f0dbd9d0e6,2022-07-06_09h36.30.035,Colour_Asymmetry_Pilot,2022.1.3,Win32,59.97001499,62c50e9c1127f2cd403a315f,0,92,92,106,1,twoone,,,,,,,,,,,,,,,,,,,,,,,,,,,,,,,,,,,,,,,,,,,,,,,,,,,,,,,,,,,,,,,,,,,,,,,,,,,,,,,,,,,,,,,,,,,,,,,,,,,,,,,,,,,,,,,,,,,,,,,,,,,,,,,,,,,,,,,,,,,,,,,,,,,,,,,,,,,,,
,,,,,,60eb29c01cbb5ca4a8a5ea2e,62c539a13c3942f0dbd9d0e6,2022-07-06_09h36.30.035,Colour_Asymmetry_Pilot,2022.1.3,Win32,59.97001499,62c50e9c1127f2cd403a315f,0,93,93,36,1,threeone,,,,,,,,,,,,,,,,,,,,,,,,,,,,,,,,,,,,,,,,,,,,,,,,,,,,,,,,,,,,,,,,,,,,,,,,,,,,,,,,,,,,,,,,,,,,,,,,,,,,,,,,,,,,,,,,,,,,,,,,,,,,,,,,,,,,,,,,,,,,,,,,,,,,,,,,,,,,,
,,,,,,60eb29c01cbb5ca4a8a5ea2e,62c539a13c3942f0dbd9d0e6,2022-07-06_09h36.30.035,Colour_Asymmetry_Pilot,2022.1.3,Win32,59.97001499,62c50e9c1127f2cd403a315f,0,94,94,12,1,threeone,,,,,,,,,,,,,,,,,,,,,,,,,,,,,,,,,,,,,,,,,,,,,,,,,,,,,,,,,,,,,,,,,,,,,,,,,,,,,,,,,,,,,,,,,,,,,,,,,,,,,,,,,,,,,,,,,,,,,,,,,,,,,,,,,,,,,,,,,,,,,,,,,,,,,,,,,,,,,
,,,,,,60eb29c01cbb5ca4a8a5ea2e,62c539a13c3942f0dbd9d0e6,2022-07-06_09h36.30.035,Colour_Asymmetry_Pilot,2022.1.3,Win32,59.97001499,62c50e9c1127f2cd403a315f,0,95,95,93,1,threefour,,,,,,,,,,,,,,,,,,,,,,,,,,,,,,,,,,,,,,,,,,,,,,,,,,,,,,,,,,,,,,,,,,,,,,,,,,,,,,,,,,,,,,,,,,,,,,,,,,,,,,,,,,,,,,,,,,,,,,,,,,,,,,,,,,,,,,,,,,,,,,,,,,,,,,,,,,,,,
,,,,,,60eb29c01cbb5ca4a8a5ea2e,62c539a13c3942f0dbd9d0e6,2022-07-06_09h36.30.035,Colour_Asymmetry_Pilot,2022.1.3,Win32,59.97001499,62c50e9c1127f2cd403a315f,0,96,96,3,1,twofour,,,,,,,,,,,,,,,,,,,,,,,,,,,,,,,,,,,,,,,,,,,,,,,,,,,,,,,,,,,,,,,,,,,,,,,,,,,,,,,,,,,,,,,,,,,,,,,,,,,,,,,,,,,,,,,,,,,,,,,,,,,,,,,,,,,,,,,,,,,,,,,,,,,,,,,,,,,,,
,,,,,,60eb29c01cbb5ca4a8a5ea2e,62c539a13c3942f0dbd9d0e6,2022-07-06_09h36.30.035,Colour_Asymmetry_Pilot,2022.1.3,Win32,59.97001499,62c50e9c1127f2cd403a315f,0,97,97,153,1,onethree,,,,,,,,,,,,,,,,,,,,,,,,,,,,,,,,,,,,,,,,,,,,,,,,,,,,,,,,,,,,,,,,,,,,,,,,,,,,,,,,,,,,,,,,,,,,,,,,,,,,,,,,,,,,,,,,,,,,,,,,,,,,,,,,,,,,,,,,,,,,,,,,,,,,,,,,,,,,,
,,,,,,60eb29c01cbb5ca4a8a5ea2e,62c539a13c3942f0dbd9d0e6,2022-07-06_09h36.30.035,Colour_Asymmetry_Pilot,2022.1.3,Win32,59.97001499,62c50e9c1127f2cd403a315f,0,98,98,25,1,onethree,,,,,,,,,,,,,,,,,,,,,,,,,,,,,,,,,,,,,,,,,,,,,,,,,,,,,,,,,,,,,,,,,,,,,,,,,,,,,,,,,,,,,,,,,,,,,,,,,,,,,,,,,,,,,,,,,,,,,,,,,,,,,,,,,,,,,,,,,,,,,,,,,,,,,,,,,,,,,
,,,,,,60eb29c01cbb5ca4a8a5ea2e,62c539a13c3942f0dbd9d0e6,2022-07-06_09h36.30.035,Colour_Asymmetry_Pilot,2022.1.3,Win32,59.97001499,62c50e9c1127f2cd403a315f,0,99,99,38,1,fourtwo,,,,,,,,,,,,,,,,,,,,,,,,,,,,,,,,,,,,,,,,,,,,,,,,,,,,,,,,,,,,,,,,,,,,,,,,,,,,,,,,,,,,,,,,,,,,,,,,,,,,,,,,,,,,,,,,,,,,,,,,,,,,,,,,,,,,,,,,,,,,,,,,,,,,,,,,,,,,,
,,,,,,60eb29c01cbb5ca4a8a5ea2e,62c539a13c3942f0dbd9d0e6,2022-07-06_09h36.30.035,Colour_Asymmetry_Pilot,2022.1.3,Win32,59.97001499,62c50e9c1127f2cd403a315f,0,100,100,85,1,threefour,,,,,,,,,,,,,,,,,,,,,,,,,,,,,,,,,,,,,,,,,,,,,,,,,,,,,,,,,,,,,,,,,,,,,,,,,,,,,,,,,,,,,,,,,,,,,,,,,,,,,,,,,,,,,,,,,,,,,,,,,,,,,,,,,,,,,,,,,,,,,,,,,,,,,,,,,,,,,
,,,,,,60eb29c01cbb5ca4a8a5ea2e,62c539a13c3942f0dbd9d0e6,2022-07-06_09h36.30.035,Colour_Asymmetry_Pilot,2022.1.3,Win32,59.97001499,62c50e9c1127f2cd403a315f,0,101,101,13,1,threefour,,,,,,,,,,,,,,,,,,,,,,,,,,,,,,,,,,,,,,,,,,,,,,,,,,,,,,,,,,,,,,,,,,,,,,,,,,,,,,,,,,,,,,,,,,,,,,,,,,,,,,,,,,,,,,,,,,,,,,,,,,,,,,,,,,,,,,,,,,,,,,,,,,,,,,,,,,,,,
,,,,,,60eb29c01cbb5ca4a8a5ea2e,62c539a13c3942f0dbd9d0e6,2022-07-06_09h36.30.035,Colour_Asymmetry_Pilot,2022.1.3,Win32,59.97001499,62c50e9c1127f2cd403a315f,0,102,102,62,1,fourtwo,,,,,,,,,,,,,,,,,,,,,,,,,,,,,,,,,,,,,,,,,,,,,,,,,,,,,,,,,,,,,,,,,,,,,,,,,,,,,,,,,,,,,,,,,,,,,,,,,,,,,,,,,,,,,,,,,,,,,,,,,,,,,,,,,,,,,,,,,,,,,,,,,,,,,,,,,,,,,
,,,,,,60eb29c01cbb5ca4a8a5ea2e,62c539a13c3942f0dbd9d0e6,2022-07-06_09h36.30.035,Colour_Asymmetry_Pilot,2022.1.3,Win32,59.97001499,62c50e9c1127f2cd403a315f,0,103,103,46,1,fourtwo,,,,,,,,,,,,,,,,,,,,,,,,,,,,,,,,,,,,,,,,,,,,,,,,,,,,,,,,,,,,,,,,,,,,,,,,,,,,,,,,,,,,,,,,,,,,,,,,,,,,,,,,,,,,,,,,,,,,,,,,,,,,,,,,,,,,,,,,,,,,,,,,,,,,,,,,,,,,,
,,,,,,60eb29c01cbb5ca4a8a5ea2e,62c539a13c3942f0dbd9d0e6,2022-07-06_09h36.30.035,Colour_Asymmetry_Pilot,2022.1.3,Win32,59.97001499,62c50e9c1127f2cd403a315f,0,104,104,26,1,twoone,,,,,,,,,,,,,,,,,,,,,,,,,,,,,,,,,,,,,,,,,,,,,,,,,,,,,,,,,,,,,,,,,,,,,,,,,,,,,,,,,,,,,,,,,,,,,,,,,,,,,,,,,,,,,,,,,,,,,,,,,,,,,,,,,,,,,,,,,,,,,,,,,,,,,,,,,,,,,
,,,,,,60eb29c01cbb5ca4a8a5ea2e,62c539a13c3942f0dbd9d0e6,2022-07-06_09h36.30.035,Colour_Asymmetry_Pilot,2022.1.3,Win32,59.97001499,62c50e9c1127f2cd403a315f,0,105,105,132,1,threeone,,,,,,,,,,,,,,,,,,,,,,,,,,,,,,,,,,,,,,,,,,,,,,,,,,,,,,,,,,,,,,,,,,,,,,,,,,,,,,,,,,,,,,,,,,,,,,,,,,,,,,,,,,,,,,,,,,,,,,,,,,,,,,,,,,,,,,,,,,,,,,,,,,,,,,,,,,,,,
,,,,,,60eb29c01cbb5ca4a8a5ea2e,62c539a13c3942f0dbd9d0e6,2022-07-06_09h36.30.035,Colour_Asymmetry_Pilot,2022.1.3,Win32,59.97001499,62c50e9c1127f2cd403a315f,0,106,106,145,1,onethree,,,,,,,,,,,,,,,,,,,,,,,,,,,,,,,,,,,,,,,,,,,,,,,,,,,,,,,,,,,,,,,,,,,,,,,,,,,,,,,,,,,,,,,,,,,,,,,,,,,,,,,,,,,,,,,,,,,,,,,,,,,,,,,,,,,,,,,,,,,,,,,,,,,,,,,,,,,,,
,,,,,,60eb29c01cbb5ca4a8a5ea2e,62c539a13c3942f0dbd9d0e6,2022-07-06_09h36.30.035,Colour_Asymmetry_Pilot,2022.1.3,Win32,59.97001499,62c50e9c1127f2cd403a315f,0,107,107,76,1,threeone,,,,,,,,,,,,,,,,,,,,,,,,,,,,,,,,,,,,,,,,,,,,,,,,,,,,,,,,,,,,,,,,,,,,,,,,,,,,,,,,,,,,,,,,,,,,,,,,,,,,,,,,,,,,,,,,,,,,,,,,,,,,,,,,,,,,,,,,,,,,,,,,,,,,,,,,,,,,,
,,,,,,60eb29c01cbb5ca4a8a5ea2e,62c539a13c3942f0dbd9d0e6,2022-07-06_09h36.30.035,Colour_Asymmetry_Pilot,2022.1.3,Win32,59.97001499,62c50e9c1127f2cd403a315f,0,108,108,97,1,onethree,,,,,,,,,,,,,,,,,,,,,,,,,,,,,,,,,,,,,,,,,,,,,,,,,,,,,,,,,,,,,,,,,,,,,,,,,,,,,,,,,,,,,,,,,,,,,,,,,,,,,,,,,,,,,,,,,,,,,,,,,,,,,,,,,,,,,,,,,,,,,,,,,,,,,,,,,,,,,
,,,,,,60eb29c01cbb5ca4a8a5ea2e,62c539a13c3942f0dbd9d0e6,2022-07-06_09h36.30.035,Colour_Asymmetry_Pilot,2022.1.3,Win32,59.97001499,62c50e9c1127f2cd403a315f,0,109,109,129,1,onethree,,,,,,,,,,,,,,,,,,,,,,,,,,,,,,,,,,,,,,,,,,,,,,,,,,,,,,,,,,,,,,,,,,,,,,,,,,,,,,,,,,,,,,,,,,,,,,,,,,,,,,,,,,,,,,,,,,,,,,,,,,,,,,,,,,,,,,,,,,,,,,,,,,,,,,,,,,,,,
,,,,,,60eb29c01cbb5ca4a8a5ea2e,62c539a13c3942f0dbd9d0e6,2022-07-06_09h36.30.035,Colour_Asymmetry_Pilot,2022.1.3,Win32,59.97001499,62c50e9c1127f2cd403a315f,0,110,110,17,1,onethree,,,,,,,,,,,,,,,,,,,,,,,,,,,,,,,,,,,,,,,,,,,,,,,,,,,,,,,,,,,,,,,,,,,,,,,,,,,,,,,,,,,,,,,,,,,,,,,,,,,,,,,,,,,,,,,,,,,,,,,,,,,,,,,,,,,,,,,,,,,,,,,,,,,,,,,,,,,,,
,,,,,,60eb29c01cbb5ca4a8a5ea2e,62c539a13c3942f0dbd9d0e6,2022-07-06_09h36.30.035,Colour_Asymmetry_Pilot,2022.1.3,Win32,59.97001499,62c50e9c1127f2cd403a315f,0,111,111,117,1,threefour,,,,,,,,,,,,,,,,,,,,,,,,,,,,,,,,,,,,,,,,,,,,,,,,,,,,,,,,,,,,,,,,,,,,,,,,,,,,,,,,,,,,,,,,,,,,,,,,,,,,,,,,,,,,,,,,,,,,,,,,,,,,,,,,,,,,,,,,,,,,,,,,,,,,,,,,,,,,,
,,,,,,60eb29c01cbb5ca4a8a5ea2e,62c539a13c3942f0dbd9d0e6,2022-07-06_09h36.30.035,Colour_Asymmetry_Pilot,2022.1.3,Win32,59.97001499,62c50e9c1127f2cd403a315f,0,112,112,87,1,fourthree,,,,,,,,,,,,,,,,,,,,,,,,,,,,,,,,,,,,,,,,,,,,,,,,,,,,,,,,,,,,,,,,,,,,,,,,,,,,,,,,,,,,,,,,,,,,,,,,,,,,,,,,,,,,,,,,,,,,,,,,,,,,,,,,,,,,,,,,,,,,,,,,,,,,,,,,,,,,,
,,,,,,60eb29c01cbb5ca4a8a5ea2e,62c539a13c3942f0dbd9d0e6,2022-07-06_09h36.30.035,Colour_Asymmetry_Pilot,2022.1.3,Win32,59.97001499,62c50e9c1127f2cd403a315f,0,113,113,108,1,threeone,,,,,,,,,,,,,,,,,,,,,,,,,,,,,,,,,,,,,,,,,,,,,,,,,,,,,,,,,,,,,,,,,,,,,,,,,,,,,,,,,,,,,,,,,,,,,,,,,,,,,,,,,,,,,,,,,,,,,,,,,,,,,,,,,,,,,,,,,,,,,,,,,,,,,,,,,,,,,
,,,,,,60eb29c01cbb5ca4a8a5ea2e,62c539a13c3942f0dbd9d0e6,2022-07-06_09h36.30.035,Colour_Asymmetry_Pilot,2022.1.3,Win32,59.97001499,62c50e9c1127f2cd403a315f,0,114,114,123,1,twofour,,,,,,,,,,,,,,,,,,,,,,,,,,,,,,,,,,,,,,,,,,,,,,,,,,,,,,,,,,,,,,,,,,,,,,,,,,,,,,,,,,,,,,,,,,,,,,,,,,,,,,,,,,,,,,,,,,,,,,,,,,,,,,,,,,,,,,,,,,,,,,,,,,,,,,,,,,,,,
,,,,,,60eb29c01cbb5ca4a8a5ea2e,62c539a13c3942f0dbd9d0e6,2022-07-06_09h36.30.035,Colour_Asymmetry_Pilot,2022.1.3,Win32,59.97001499,62c50e9c1127f2cd403a315f,0,115,115,150,1,fourtwo,,,,,,,,,,,,,,,,,,,,,,,,,,,,,,,,,,,,,,,,,,,,,,,,,,,,,,,,,,,,,,,,,,,,,,,,,,,,,,,,,,,,,,,,,,,,,,,,,,,,,,,,,,,,,,,,,,,,,,,,,,,,,,,,,,,,,,,,,,,,,,,,,,,,,,,,,,,,,
,,,,,,60eb29c01cbb5ca4a8a5ea2e,62c539a13c3942f0dbd9d0e6,2022-07-06_09h36.30.035,Colour_Asymmetry_Pilot,2022.1.3,Win32,59.97001499,62c50e9c1127f2cd403a315f,0,116,116,23,1,fourthree,,,,,,,,,,,,,,,,,,,,,,,,,,,,,,,,,,,,,,,,,,,,,,,,,,,,,,,,,,,,,,,,,,,,,,,,,,,,,,,,,,,,,,,,,,,,,,,,,,,,,,,,,,,,,,,,,,,,,,,,,,,,,,,,,,,,,,,,,,,,,,,,,,,,,,,,,,,,,
,,,,,,60eb29c01cbb5ca4a8a5ea2e,62c539a13c3942f0dbd9d0e6,2022-07-06_09h36.30.035,Colour_Asymmetry_Pilot,2022.1.3,Win32,59.97001499,62c50e9c1127f2cd403a315f,0,117,117,128,1,onetwo,,,,,,,,,,,,,,,,,,,,,,,,,,,,,,,,,,,,,,,,,,,,,,,,,,,,,,,,,,,,,,,,,,,,,,,,,,,,,,,,,,,,,,,,,,,,,,,,,,,,,,,,,,,,,,,,,,,,,,,,,,,,,,,,,,,,,,,,,,,,,,,,,,,,,,,,,,,,,
,,,,,,60eb29c01cbb5ca4a8a5ea2e,62c539a13c3942f0dbd9d0e6,2022-07-06_09h36.30.035,Colour_Asymmetry_Pilot,2022.1.3,Win32,59.97001499,62c50e9c1127f2cd403a315f,0,118,118,134,1,fourtwo,,,,,,,,,,,,,,,,,,,,,,,,,,,,,,,,,,,,,,,,,,,,,,,,,,,,,,,,,,,,,,,,,,,,,,,,,,,,,,,,,,,,,,,,,,,,,,,,,,,,,,,,,,,,,,,,,,,,,,,,,,,,,,,,,,,,,,,,,,,,,,,,,,,,,,,,,,,,,
,,,,,,60eb29c01cbb5ca4a8a5ea2e,62c539a13c3942f0dbd9d0e6,2022-07-06_09h36.30.035,Colour_Asymmetry_Pilot,2022.1.3,Win32,59.97001499,62c50e9c1127f2cd403a315f,0,119,119,146,1,twoone,,,,,,,,,,,,,,,,,,,,,,,,,,,,,,,,,,,,,,,,,,,,,,,,,,,,,,,,,,,,,,,,,,,,,,,,,,,,,,,,,,,,,,,,,,,,,,,,,,,,,,,,,,,,,,,,,,,,,,,,,,,,,,,,,,,,,,,,,,,,,,,,,,,,,,,,,,,,,
,,,,,,60eb29c01cbb5ca4a8a5ea2e,62c539a13c3942f0dbd9d0e6,2022-07-06_09h36.30.035,Colour_Asymmetry_Pilot,2022.1.3,Win32,59.97001499,62c50e9c1127f2cd403a315f,0,120,120,10,1,twoone,,,,,,,,,,,,,,,,,,,,,,,,,,,,,,,,,,,,,,,,,,,,,,,,,,,,,,,,,,,,,,,,,,,,,,,,,,,,,,,,,,,,,,,,,,,,,,,,,,,,,,,,,,,,,,,,,,,,,,,,,,,,,,,,,,,,,,,,,,,,,,,,,,,,,,,,,,,,,
,,,,,,60eb29c01cbb5ca4a8a5ea2e,62c539a13c3942f0dbd9d0e6,2022-07-06_09h36.30.035,Colour_Asymmetry_Pilot,2022.1.3,Win32,59.97001499,62c50e9c1127f2cd403a315f,0,121,121,112,1,onetwo,,,,,,,,,,,,,,,,,,,,,,,,,,,,,,,,,,,,,,,,,,,,,,,,,,,,,,,,,,,,,,,,,,,,,,,,,,,,,,,,,,,,,,,,,,,,,,,,,,,,,,,,,,,,,,,,,,,,,,,,,,,,,,,,,,,,,,,,,,,,,,,,,,,,,,,,,,,,,
,,,,,,60eb29c01cbb5ca4a8a5ea2e,62c539a13c3942f0dbd9d0e6,2022-07-06_09h36.30.035,Colour_Asymmetry_Pilot,2022.1.3,Win32,59.97001499,62c50e9c1127f2cd403a315f,0,122,122,136,1,onetwo,,,,,,,,,,,,,,,,,,,,,,,,,,,,,,,,,,,,,,,,,,,,,,,,,,,,,,,,,,,,,,,,,,,,,,,,,,,,,,,,,,,,,,,,,,,,,,,,,,,,,,,,,,,,,,,,,,,,,,,,,,,,,,,,,,,,,,,,,,,,,,,,,,,,,,,,,,,,,
,,,,,,60eb29c01cbb5ca4a8a5ea2e,62c539a13c3942f0dbd9d0e6,2022-07-06_09h36.30.035,Colour_Asymmetry_Pilot,2022.1.3,Win32,59.97001499,62c50e9c1127f2cd403a315f,0,123,123,28,1,threeone,,,,,,,,,,,,,,,,,,,,,,,,,,,,,,,,,,,,,,,,,,,,,,,,,,,,,,,,,,,,,,,,,,,,,,,,,,,,,,,,,,,,,,,,,,,,,,,,,,,,,,,,,,,,,,,,,,,,,,,,,,,,,,,,,,,,,,,,,,,,,,,,,,,,,,,,,,,,,
,,,,,,60eb29c01cbb5ca4a8a5ea2e,62c539a13c3942f0dbd9d0e6,2022-07-06_09h36.30.035,Colour_Asymmetry_Pilot,2022.1.3,Win32,59.97001499,62c50e9c1127f2cd403a315f,0,124,124,81,1,onethree,,,,,,,,,,,,,,,,,,,,,,,,,,,,,,,,,,,,,,,,,,,,,,,,,,,,,,,,,,,,,,,,,,,,,,,,,,,,,,,,,,,,,,,,,,,,,,,,,,,,,,,,,,,,,,,,,,,,,,,,,,,,,,,,,,,,,,,,,,,,,,,,,,,,,,,,,,,,,
,,,,,,60eb29c01cbb5ca4a8a5ea2e,62c539a13c3942f0dbd9d0e6,2022-07-06_09h36.30.035,Colour_Asymmetry_Pilot,2022.1.3,Win32,59.97001499,62c50e9c1127f2cd403a315f,0,125,125,125,1,threefour,,,,,,,,,,,,,,,,,,,,,,,,,,,,,,,,,,,,,,,,,,,,,,,,,,,,,,,,,,,,,,,,,,,,,,,,,,,,,,,,,,,,,,,,,,,,,,,,,,,,,,,,,,,,,,,,,,,,,,,,,,,,,,,,,,,,,,,,,,,,,,,,,,,,,,,,,,,,,
,,,,,,60eb29c01cbb5ca4a8a5ea2e,62c539a13c3942f0dbd9d0e6,2022-07-06_09h36.30.035,Colour_Asymmetry_Pilot,2022.1.3,Win32,59.97001499,62c50e9c1127f2cd403a315f,0,126,126,41,1,onethree,,,,,,,,,,,,,,,,,,,,,,,,,,,,,,,,,,,,,,,,,,,,,,,,,,,,,,,,,,,,,,,,,,,,,,,,,,,,,,,,,,,,,,,,,,,,,,,,,,,,,,,,,,,,,,,,,,,,,,,,,,,,,,,,,,,,,,,,,,,,,,,,,,,,,,,,,,,,,
,,,,,,60eb29c01cbb5ca4a8a5ea2e,62c539a13c3942f0dbd9d0e6,2022-07-06_09h36.30.035,Colour_Asymmetry_Pilot,2022.1.3,Win32,59.97001499,62c50e9c1127f2cd403a315f,0,127,127,143,1,fourthree,,,,,,,,,,,,,,,,,,,,,,,,,,,,,,,,,,,,,,,,,,,,,,,,,,,,,,,,,,,,,,,,,,,,,,,,,,,,,,,,,,,,,,,,,,,,,,,,,,,,,,,,,,,,,,,,,,,,,,,,,,,,,,,,,,,,,,,,,,,,,,,,,,,,,,,,,,,,,
,,,,,,60eb29c01cbb5ca4a8a5ea2e,62c539a13c3942f0dbd9d0e6,2022-07-06_09h36.30.035,Colour_Asymmetry_Pilot,2022.1.3,Win32,59.97001499,62c50e9c1127f2cd403a315f,0,128,128,20,1,threeone,,,,,,,,,,,,,,,,,,,,,,,,,,,,,,,,,,,,,,,,,,,,,,,,,,,,,,,,,,,,,,,,,,,,,,,,,,,,,,,,,,,,,,,,,,,,,,,,,,,,,,,,,,,,,,,,,,,,,,,,,,,,,,,,,,,,,,,,,,,,,,,,,,,,,,,,,,,,,
,,,,,,60eb29c01cbb5ca4a8a5ea2e,62c539a13c3942f0dbd9d0e6,2022-07-06_09h36.30.035,Colour_Asymmetry_Pilot,2022.1.3,Win32,59.97001499,62c50e9c1127f2cd403a315f,0,129,129,29,1,threefour,,,,,,,,,,,,,,,,,,,,,,,,,,,,,,,,,,,,,,,,,,,,,,,,,,,,,,,,,,,,,,,,,,,,,,,,,,,,,,,,,,,,,,,,,,,,,,,,,,,,,,,,,,,,,,,,,,,,,,,,,,,,,,,,,,,,,,,,,,,,,,,,,,,,,,,,,,,,,
,,,,,,60eb29c01cbb5ca4a8a5ea2e,62c539a13c3942f0dbd9d0e6,2022-07-06_09h36.30.035,Colour_Asymmetry_Pilot,2022.1.3,Win32,59.97001499,62c50e9c1127f2cd403a315f,0,130,130,131,1,twofour,,,,,,,,,,,,,,,,,,,,,,,,,,,,,,,,,,,,,,,,,,,,,,,,,,,,,,,,,,,,,,,,,,,,,,,,,,,,,,,,,,,,,,,,,,,,,,,,,,,,,,,,,,,,,,,,,,,,,,,,,,,,,,,,,,,,,,,,,,,,,,,,,,,,,,,,,,,,,
,,,,,,60eb29c01cbb5ca4a8a5ea2e,62c539a13c3942f0dbd9d0e6,2022-07-06_09h36.30.035,Colour_Asymmetry_Pilot,2022.1.3,Win32,59.97001499,62c50e9c1127f2cd403a315f,0,131,131,78,1,fourtwo,,,,,,,,,,,,,,,,,,,,,,,,,,,,,,,,,,,,,,,,,,,,,,,,,,,,,,,,,,,,,,,,,,,,,,,,,,,,,,,,,,,,,,,,,,,,,,,,,,,,,,,,,,,,,,,,,,,,,,,,,,,,,,,,,,,,,,,,,,,,,,,,,,,,,,,,,,,,,
,,,,,,60eb29c01cbb5ca4a8a5ea2e,62c539a13c3942f0dbd9d0e6,2022-07-06_09h36.30.035,Colour_Asymmetry_Pilot,2022.1.3,Win32,59.97001499,62c50e9c1127f2cd403a315f,0,132,132,55,1,fourthree,,,,,,,,,,,,,,,,,,,,,,,,,,,,,,,,,,,,,,,,,,,,,,,,,,,,,,,,,,,,,,,,,,,,,,,,,,,,,,,,,,,,,,,,,,,,,,,,,,,,,,,,,,,,,,,,,,,,,,,,,,,,,,,,,,,,,,,,,,,,,,,,,,,,,,,,,,,,,
,,,,,,60eb29c01cbb5ca4a8a5ea2e,62c539a13c3942f0dbd9d0e6,2022-07-06_09h36.30.035,Colour_Asymmetry_Pilot,2022.1.3,Win32,59.97001499,62c50e9c1127f2cd403a315f,0,133,133,45,1,threefour,,,,,,,,,,,,,,,,,,,,,,,,,,,,,,,,,,,,,,,,,,,,,,,,,,,,,,,,,,,,,,,,,,,,,,,,,,,,,,,,,,,,,,,,,,,,,,,,,,,,,,,,,,,,,,,,,,,,,,,,,,,,,,,,,,,,,,,,,,,,,,,,,,,,,,,,,,,,,
,,,,,,60eb29c01cbb5ca4a8a5ea2e,62c539a13c3942f0dbd9d0e6,2022-07-06_09h36.30.035,Colour_Asymmetry_Pilot,2022.1.3,Win32,59.97001499,62c50e9c1127f2cd403a315f,0,134,134,86,1,fourtwo,,,,,,,,,,,,,,,,,,,,,,,,,,,,,,,,,,,,,,,,,,,,,,,,,,,,,,,,,,,,,,,,,,,,,,,,,,,,,,,,,,,,,,,,,,,,,,,,,,,,,,,,,,,,,,,,,,,,,,,,,,,,,,,,,,,,,,,,,,,,,,,,,,,,,,,,,,,,,
,,,,,,60eb29c01cbb5ca4a8a5ea2e,62c539a13c3942f0dbd9d0e6,2022-07-06_09h36.30.035,Colour_Asymmetry_Pilot,2022.1.3,Win32,59.97001499,62c50e9c1127f2cd403a315f,0,135,135,141,1,threefour,,,,,,,,,,,,,,,,,,,,,,,,,,,,,,,,,,,,,,,,,,,,,,,,,,,,,,,,,,,,,,,,,,,,,,,,,,,,,,,,,,,,,,,,,,,,,,,,,,,,,,,,,,,,,,,,,,,,,,,,,,,,,,,,,,,,,,,,,,,,,,,,,,,,,,,,,,,,,
,,,,,,60eb29c01cbb5ca4a8a5ea2e,62c539a13c3942f0dbd9d0e6,2022-07-06_09h36.30.035,Colour_Asymmetry_Pilot,2022.1.3,Win32,59.97001499,62c50e9c1127f2cd403a315f,0,136,136,102,1,fourtwo,,,,,,,,,,,,,,,,,,,,,,,,,,,,,,,,,,,,,,,,,,,,,,,,,,,,,,,,,,,,,,,,,,,,,,,,,,,,,,,,,,,,,,,,,,,,,,,,,,,,,,,,,,,,,,,,,,,,,,,,,,,,,,,,,,,,,,,,,,,,,,,,,,,,,,,,,,,,,
,,,,,,60eb29c01cbb5ca4a8a5ea2e,62c539a13c3942f0dbd9d0e6,2022-07-06_09h36.30.035,Colour_Asymmetry_Pilot,2022.1.3,Win32,59.97001499,62c50e9c1127f2cd403a315f,0,137,137,14,1,fourtwo,,,,,,,,,,,,,,,,,,,,,,,,,,,,,,,,,,,,,,,,,,,,,,,,,,,,,,,,,,,,,,,,,,,,,,,,,,,,,,,,,,,,,,,,,,,,,,,,,,,,,,,,,,,,,,,,,,,,,,,,,,,,,,,,,,,,,,,,,,,,,,,,,,,,,,,,,,,,,
,,,,,,60eb29c01cbb5ca4a8a5ea2e,62c539a13c3942f0dbd9d0e6,2022-07-06_09h36.30.035,Colour_Asymmetry_Pilot,2022.1.3,Win32,59.97001499,62c50e9c1127f2cd403a315f,0,138,138,32,1,onetwo,,,,,,,,,,,,,,,,,,,,,,,,,,,,,,,,,,,,,,,,,,,,,,,,,,,,,,,,,,,,,,,,,,,,,,,,,,,,,,,,,,,,,,,,,,,,,,,,,,,,,,,,,,,,,,,,,,,,,,,,,,,,,,,,,,,,,,,,,,,,,,,,,,,,,,,,,,,,,
,,,,,,60eb29c01cbb5ca4a8a5ea2e,62c539a13c3942f0dbd9d0e6,2022-07-06_09h36.30.035,Colour_Asymmetry_Pilot,2022.1.3,Win32,59.97001499,62c50e9c1127f2cd403a315f,0,139,139,70,1,fourtwo,,,,,,,,,,,,,,,,,,,,,,,,,,,,,,,,,,,,,,,,,,,,,,,,,,,,,,,,,,,,,,,,,,,,,,,,,,,,,,,,,,,,,,,,,,,,,,,,,,,,,,,,,,,,,,,,,,,,,,,,,,,,,,,,,,,,,,,,,,,,,,,,,,,,,,,,,,,,,
,,,,,,60eb29c01cbb5ca4a8a5ea2e,62c539a13c3942f0dbd9d0e6,2022-07-06_09h36.30.035,Colour_Asymmetry_Pilot,2022.1.3,Win32,59.97001499,62c50e9c1127f2cd403a315f,0,140,140,24,1,onetwo,,,,,,,,,,,,,,,,,,,,,,,,,,,,,,,,,,,,,,,,,,,,,,,,,,,,,,,,,,,,,,,,,,,,,,,,,,,,,,,,,,,,,,,,,,,,,,,,,,,,,,,,,,,,,,,,,,,,,,,,,,,,,,,,,,,,,,,,,,,,,,,,,,,,,,,,,,,,,
,,,,,,60eb29c01cbb5ca4a8a5ea2e,62c539a13c3942f0dbd9d0e6,2022-07-06_09h36.30.035,Colour_Asymmetry_Pilot,2022.1.3,Win32,59.97001499,62c50e9c1127f2cd403a315f,0,141,141,107,1,twofour,,,,,,,,,,,,,,,,,,,,,,,,,,,,,,,,,,,,,,,,,,,,,,,,,,,,,,,,,,,,,,,,,,,,,,,,,,,,,,,,,,,,,,,,,,,,,,,,,,,,,,,,,,,,,,,,,,,,,,,,,,,,,,,,,,,,,,,,,,,,,,,,,,,,,,,,,,,,,
,,,,,,60eb29c01cbb5ca4a8a5ea2e,62c539a13c3942f0dbd9d0e6,2022-07-06_09h36.30.035,Colour_Asymmetry_Pilot,2022.1.3,Win32,59.97001499,62c50e9c1127f2cd403a315f,0,142,142,19,1,twofour,,,,,,,,,,,,,,,,,,,,,,,,,,,,,,,,,,,,,,,,,,,,,,,,,,,,,,,,,,,,,,,,,,,,,,,,,,,,,,,,,,,,,,,,,,,,,,,,,,,,,,,,,,,,,,,,,,,,,,,,,,,,,,,,,,,,,,,,,,,,,,,,,,,,,,,,,,,,,
,,,,,,60eb29c01cbb5ca4a8a5ea2e,62c539a13c3942f0dbd9d0e6,2022-07-06_09h36.30.035,Colour_Asymmetry_Pilot,2022.1.3,Win32,59.97001499,62c50e9c1127f2cd403a315f,0,143,143,40,1,onetwo,,,,,,,,,,,,,,,,,,,,,,,,,,,,,,,,,,,,,,,,,,,,,,,,,,,,,,,,,,,,,,,,,,,,,,,,,,,,,,,,,,,,,,,,,,,,,,,,,,,,,,,,,,,,,,,,,,,,,,,,,,,,,,,,,,,,,,,,,,,,,,,,,,,,,,,,,,,,,
,,,,,,60eb29c01cbb5ca4a8a5ea2e,62c539a13c3942f0dbd9d0e6,2022-07-06_09h36.30.035,Colour_Asymmetry_Pilot,2022.1.3,Win32,59.97001499,62c50e9c1127f2cd403a315f,0,144,144,94,1,fourtwo,,,,,,,,,,,,,,,,,,,,,,,,,,,,,,,,,,,,,,,,,,,,,,,,,,,,,,,,,,,,,,,,,,,,,,,,,,,,,,,,,,,,,,,,,,,,,,,,,,,,,,,,,,,,,,,,,,,,,,,,,,,,,,,,,,,,,,,,,,,,,,,,,,,,,,,,,,,,,
,,,,,,60eb29c01cbb5ca4a8a5ea2e,62c539a13c3942f0dbd9d0e6,2022-07-06_09h36.30.035,Colour_Asymmetry_Pilot,2022.1.3,Win32,59.97001499,62c50e9c1127f2cd403a315f,0,145,145,60,1,threeone,,,,,,,,,,,,,,,,,,,,,,,,,,,,,,,,,,,,,,,,,,,,,,,,,,,,,,,,,,,,,,,,,,,,,,,,,,,,,,,,,,,,,,,,,,,,,,,,,,,,,,,,,,,,,,,,,,,,,,,,,,,,,,,,,,,,,,,,,,,,,,,,,,,,,,,,,,,,,
,,,,,,60eb29c01cbb5ca4a8a5ea2e,62c539a13c3942f0dbd9d0e6,2022-07-06_09h36.30.035,Colour_Asymmetry_Pilot,2022.1.3,Win32,59.97001499,62c50e9c1127f2cd403a315f,0,146,146,92,1,threeone,,,,,,,,,,,,,,,,,,,,,,,,,,,,,,,,,,,,,,,,,,,,,,,,,,,,,,,,,,,,,,,,,,,,,,,,,,,,,,,,,,,,,,,,,,,,,,,,,,,,,,,,,,,,,,,,,,,,,,,,,,,,,,,,,,,,,,,,,,,,,,,,,,,,,,,,,,,,,
,,,,,,60eb29c01cbb5ca4a8a5ea2e,62c539a13c3942f0dbd9d0e6,2022-07-06_09h36.30.035,Colour_Asymmetry_Pilot,2022.1.3,Win32,59.97001499,62c50e9c1127f2cd403a315f,0,147,147,161,1,onethree,,,,,,,,,,,,,,,,,,,,,,,,,,,,,,,,,,,,,,,,,,,,,,,,,,,,,,,,,,,,,,,,,,,,,,,,,,,,,,,,,,,,,,,,,,,,,,,,,,,,,,,,,,,,,,,,,,,,,,,,,,,,,,,,,,,,,,,,,,,,,,,,,,,,,,,,,,,,,
,,,,,,60eb29c01cbb5ca4a8a5ea2e,62c539a13c3942f0dbd9d0e6,2022-07-06_09h36.30.035,Colour_Asymmetry_Pilot,2022.1.3,Win32,59.97001499,62c50e9c1127f2cd403a315f,0,148,148,138,1,twoone,,,,,,,,,,,,,,,,,,,,,,,,,,,,,,,,,,,,,,,,,,,,,,,,,,,,,,,,,,,,,,,,,,,,,,,,,,,,,,,,,,,,,,,,,,,,,,,,,,,,,,,,,,,,,,,,,,,,,,,,,,,,,,,,,,,,,,,,,,,,,,,,,,,,,,,,,,,,,
,,,,,,60eb29c01cbb5ca4a8a5ea2e,62c539a13c3942f0dbd9d0e6,2022-07-06_09h36.30.035,Colour_Asymmetry_Pilot,2022.1.3,Win32,59.97001499,62c50e9c1127f2cd403a315f,0,149,149,160,1,onetwo,,,,,,,,,,,,,,,,,,,,,,,,,,,,,,,,,,,,,,,,,,,,,,,,,,,,,,,,,,,,,,,,,,,,,,,,,,,,,,,,,,,,,,,,,,,,,,,,,,,,,,,,,,,,,,,,,,,,,,,,,,,,,,,,,,,,,,,,,,,,,,,,,,,,,,,,,,,,,
,,,,,,60eb29c01cbb5ca4a8a5ea2e,62c539a13c3942f0dbd9d0e6,2022-07-06_09h36.30.035,Colour_Asymmetry_Pilot,2022.1.3,Win32,59.97001499,62c50e9c1127f2cd403a315f,0,150,150,154,1,twoone,,,,,,,,,,,,,,,,,,,,,,,,,,,,,,,,,,,,,,,,,,,,,,,,,,,,,,,,,,,,,,,,,,,,,,,,,,,,,,,,,,,,,,,,,,,,,,,,,,,,,,,,,,,,,,,,,,,,,,,,,,,,,,,,,,,,,,,,,,,,,,,,,,,,,,,,,,,,,
,,,,,,60eb29c01cbb5ca4a8a5ea2e,62c539a13c3942f0dbd9d0e6,2022-07-06_09h36.30.035,Colour_Asymmetry_Pilot,2022.1.3,Win32,59.97001499,62c50e9c1127f2cd403a315f,0,151,151,75,1,twofour,,,,,,,,,,,,,,,,,,,,,,,,,,,,,,,,,,,,,,,,,,,,,,,,,,,,,,,,,,,,,,,,,,,,,,,,,,,,,,,,,,,,,,,,,,,,,,,,,,,,,,,,,,,,,,,,,,,,,,,,,,,,,,,,,,,,,,,,,,,,,,,,,,,,,,,,,,,,,
,,,,,,60eb29c01cbb5ca4a8a5ea2e,62c539a13c3942f0dbd9d0e6,2022-07-06_09h36.30.035,Colour_Asymmetry_Pilot,2022.1.3,Win32,59.97001499,62c50e9c1127f2cd403a315f,0,152,152,147,1,twofour,,,,,,,,,,,,,,,,,,,,,,,,,,,,,,,,,,,,,,,,,,,,,,,,,,,,,,,,,,,,,,,,,,,,,,,,,,,,,,,,,,,,,,,,,,,,,,,,,,,,,,,,,,,,,,,,,,,,,,,,,,,,,,,,,,,,,,,,,,,,,,,,,,,,,,,,,,,,,
,,,,,,60eb29c01cbb5ca4a8a5ea2e,62c539a13c3942f0dbd9d0e6,2022-07-06_09h36.30.035,Colour_Asymmetry_Pilot,2022.1.3,Win32,59.97001499,62c50e9c1127f2cd403a315f,0,153,153,119,1,fourthree,,,,,,,,,,,,,,,,,,,,,,,,,,,,,,,,,,,,,,,,,,,,,,,,,,,,,,,,,,,,,,,,,,,,,,,,,,,,,,,,,,,,,,,,,,,,,,,,,,,,,,,,,,,,,,,,,,,,,,,,,,,,,,,,,,,,,,,,,,,,,,,,,,,,,,,,,,,,,
,,,,,,60eb29c01cbb5ca4a8a5ea2e,62c539a13c3942f0dbd9d0e6,2022-07-06_09h36.30.035,Colour_Asymmetry_Pilot,2022.1.3,Win32,59.97001499,62c50e9c1127f2cd403a315f,0,154,154,140,1,threeone,,,,,,,,,,,,,,,,,,,,,,,,,,,,,,,,,,,,,,,,,,,,,,,,,,,,,,,,,,,,,,,,,,,,,,,,,,,,,,,,,,,,,,,,,,,,,,,,,,,,,,,,,,,,,,,,,,,,,,,,,,,,,,,,,,,,,,,,,,,,,,,,,,,,,,,,,,,,,
,,,,,,60eb29c01cbb5ca4a8a5ea2e,62c539a13c3942f0dbd9d0e6,2022-07-06_09h36.30.035,Colour_Asymmetry_Pilot,2022.1.3,Win32,59.97001499,62c50e9c1127f2cd403a315f,0,155,155,42,1,twoone,,,,,,,,,,,,,,,,,,,,,,,,,,,,,,,,,,,,,,,,,,,,,,,,,,,,,,,,,,,,,,,,,,,,,,,,,,,,,,,,,,,,,,,,,,,,,,,,,,,,,,,,,,,,,,,,,,,,,,,,,,,,,,,,,,,,,,,,,,,,,,,,,,,,,,,,,,,,,
,,,,,,60eb29c01cbb5ca4a8a5ea2e,62c539a13c3942f0dbd9d0e6,2022-07-06_09h36.30.035,Colour_Asymmetry_Pilot,2022.1.3,Win32,59.97001499,62c50e9c1127f2cd403a315f,0,156,156,63,1,fourthree,,,,,,,,,,,,,,,,,,,,,,,,,,,,,,,,,,,,,,,,,,,,,,,,,,,,,,,,,,,,,,,,,,,,,,,,,,,,,,,,,,,,,,,,,,,,,,,,,,,,,,,,,,,,,,,,,,,,,,,,,,,,,,,,,,,,,,,,,,,,,,,,,,,,,,,,,,,,,
,,,,,,60eb29c01cbb5ca4a8a5ea2e,62c539a13c3942f0dbd9d0e6,2022-07-06_09h36.30.035,Colour_Asymmetry_Pilot,2022.1.3,Win32,59.97001499,62c50e9c1127f2cd403a315f,0,157,157,74,1,twoone,,,,,,,,,,,,,,,,,,,,,,,,,,,,,,,,,,,,,,,,,,,,,,,,,,,,,,,,,,,,,,,,,,,,,,,,,,,,,,,,,,,,,,,,,,,,,,,,,,,,,,,,,,,,,,,,,,,,,,,,,,,,,,,,,,,,,,,,,,,,,,,,,,,,,,,,,,,,,
,,,,,,60eb29c01cbb5ca4a8a5ea2e,62c539a13c3942f0dbd9d0e6,2022-07-06_09h36.30.035,Colour_Asymmetry_Pilot,2022.1.3,Win32,59.97001499,62c50e9c1127f2cd403a315f,0,158,158,68,1,threeone,,,,,,,,,,,,,,,,,,,,,,,,,,,,,,,,,,,,,,,,,,,,,,,,,,,,,,,,,,,,,,,,,,,,,,,,,,,,,,,,,,,,,,,,,,,,,,,,,,,,,,,,,,,,,,,,,,,,,,,,,,,,,,,,,,,,,,,,,,,,,,,,,,,,,,,,,,,,,
,,,,,,60eb29c01cbb5ca4a8a5ea2e,62c539a13c3942f0dbd9d0e6,2022-07-06_09h36.30.035,Colour_Asymmetry_Pilot,2022.1.3,Win32,59.97001499,62c50e9c1127f2cd403a315f,0,159,159,44,1,threeone,,,,,,,,,,,,,,,,,,,,,,,,,,,,,,,,,,,,,,,,,,,,,,,,,,,,,,,,,,,,,,,,,,,,,,,,,,,,,,,,,,,,,,,,,,,,,,,,,,,,,,,,,,,,,,,,,,,,,,,,,,,,,,,,,,,,,,,,,,,,,,,,,,,,,,,,,,,,,
,,,,,,60eb29c01cbb5ca4a8a5ea2e,62c539a13c3942f0dbd9d0e6,2022-07-06_09h36.30.035,Colour_Asymmetry_Pilot,2022.1.3,Win32,59.97001499,62c50e9c1127f2cd403a315f,0,160,160,6,1,fourtwo,,,,,,,,,,,,,,,,,,,,,,,,,,,,,,,,,,,,,,,,,,,,,,,,,,,,,,,,,,,,,,,,,,,,,,,,,,,,,,,,,,,,,,,,,,,,,,,,,,,,,,,,,,,,,,,,,,,,,,,,,,,,,,,,,,,,,,,,,,,,,,,,,,,,,,,,,,,,,
,,,,,,60eb29c01cbb5ca4a8a5ea2e,62c539a13c3942f0dbd9d0e6,2022-07-06_09h36.30.035,Colour_Asymmetry_Pilot,2022.1.3,Win32,59.97001499,62c50e9c1127f2cd403a315f,0,161,161,110,1,fourtwo,,,,,,,,,,,,,,,,,,,,,,,,,,,,,,,,,,,,,,,,,,,,,,,,,,,,,,,,,,,,,,,,,,,,,,,,,,,,,,,,,,,,,,,,,,,,,,,,,,,,,,,,,,,,,,,,,,,,,,,,,,,,,,,,,,,,,,,,,,,,,,,,,,,,,,,,,,,,,
,,,,,,60eb29c01cbb5ca4a8a5ea2e,62c539a13c3942f0dbd9d0e6,2022-07-06_09h36.30.035,Colour_Asymmetry_Pilot,2022.1.3,Win32,59.97001499,62c50e9c1127f2cd403a315f,,,,,,,space,2.2767,space,32.3959,space,68.896,space,15.7651,space,12.4193,space,5.0377,"[0.7802,-0.23140000000000005,-0.20799999999999996]",onethree,"[-0.4276,0.0038000000000000256,-0.3256]",2,17.9614,86,-55,1,0,0,response3disk_5,-10,-1,1,0,0,rectangle_8,-10,-1,1,0,0,2,-10,-1,1,0,0,0,0,0,0,1,,,,,,,,,,,,,,,,,,,,,,,,,,,,,,,,,,,,,,,,,,,,,,,,,,,,,,,,,,,,,,,,,,,,,,,,,,,,,,,,,,,,,,,,,,,,,,,,,,,,,,,,,,,,,,,,
,,,,,,60eb29c01cbb5ca4a8a5ea2e,62c539a13c3942f0dbd9d0e6,2022-07-06_09h36.30.035,Colour_Asymmetry_Pilot,2022.1.3,Win32,59.97001499,62c50e9c1127f2cd403a315f,,,,,,,,,,,,,,,,,,,"[-0.8198,-0.5138,-0.7492000000000001]",threefour,"[-0.17659999999999998,0.3253999999999999,0.19999999999999996]",-2,7.2183,-70,-44,1,0,0,response5disk_5,4,-5,1,0,0,rectangle_8,4,-5,1,0,0,2,4,-5,1,0,0,1,0,1,0,1,,,,,,,,,,,,,,,,,,,,,,,,,,,,,,,,,,,,,,,,,,,,,,,,,,,,,,,,,,,,,,,,,,,,,,,,,,,,,,,,,,,,,,,,,,,,,,,,,,,,,,,,,,,,,,,,
,,,,,,60eb29c01cbb5ca4a8a5ea2e,62c539a13c3942f0dbd9d0e6,2022-07-06_09h36.30.035,Colour_Asymmetry_Pilot,2022.1.3,Win32,59.97001499,62c50e9c1127f2cd403a315f,,,,,,,,,,,,,,,,,,,"[-0.2942,-0.24719999999999998,-0.357]",fourthree,"[-0.9688,-0.4902000000000001,-0.12159999999999993]",-2,2.0063,-60,-42,1,0,0,response5disk_5,-18,7,1,0,0,rectangle_8,-18,7,1,0,0,2,-18,7,1,0,0,2,0,2,0,1,,,,,,,,,,,,,,,,,,,,,,,,,,,,,,,,,,,,,,,,,,,,,,,,,,,,,,,,,,,,,,,,,,,,,,,,,,,,,,,,,,,,,,,,,,,,,,,,,,,,,,,,,,,,,,,,
,,,,,,60eb29c01cbb5ca4a8a5ea2e,62c539a13c3942f0dbd9d0e6,2022-07-06_09h36.30.035,Colour_Asymmetry_Pilot,2022.1.3,Win32,59.97001499,62c50e9c1127f2cd403a315f,,,,,,,,,,,,,,,,,,,"[-0.9844,-0.9688,-0.9922]",twoone,"[-0.4982,-0.2942,-0.0354000000000001]",-3,2.977,-76,56,1,0,0,response7disk_5,-16,-2,1,0,0,rectangle_8,-16,-2,1,0,0,2,-16,-2,1,0,0,3,0,3,0,1,,,,,,,,,,,,,,,,,,,,,,,,,,,,,,,,,,,,,,,,,,,,,,,,,,,,,,,,,,,,,,,,,,,,,,,,,,,,,,,,,,,,,,,,,,,,,,,,,,,,,,,,,,,,,,,,
,,,,,,60eb29c01cbb5ca4a8a5ea2e,62c539a13c3942f0dbd9d0e6,2022-07-06_09h36.30.035,Colour_Asymmetry_Pilot,2022.1.3,Win32,59.97001499,62c50e9c1127f2cd403a315f,,,,,,,,,,,,,,,,,,,"[-0.4276,0.0038000000000000256,-0.3256]",threeone,"[-0.2942,-0.7648,-0.7492000000000001]",-4,2.0524,-42,86,1,0,0,response7disk_5,6,3,1,0,0,rectangle_8,6,3,1,0,0,2,6,3,1,0,0,4,0,4,0,1,,,,,,,,,,,,,,,,,,,,,,,,,,,,,,,,,,,,,,,,,,,,,,,,,,,,,,,,,,,,,,,,,,,,,,,,,,,,,,,,,,,,,,,,,,,,,,,,,,,,,,,,,,,,,,,,
,,,,,,60eb29c01cbb5ca4a8a5ea2e,62c539a13c3942f0dbd9d0e6,2022-07-06_09h36.30.035,Colour_Asymmetry_Pilot,2022.1.3,Win32,59.97001499,62c50e9c1127f2cd403a315f,,,,,,,,,,,,,,,,,,,"[0.34099999999999997,0.12939999999999996,-0.9766]",fourtwo,"[-0.9216,-0.5529999999999999,-0.3962]",-4,2.8675,-48,70,1,0,0,response7disk_5,6,-10,1,0,0,rectangle_8,67,-35,1,0,0,2,-20,-5,1,0,0,5,0,5,0,1,response3disk_7,5,rectangle_4,,,,,,,,,,,,,,,,,,,,,,,,,,,,,,,,,,,,,,,,,,,,,,,,,,,,,,,,,,,,,,,,,,,,,,,,,,,,,,,,,,,,,,,,,,,,,,,,,,,,,,,,,,,,,
,,,,,,60eb29c01cbb5ca4a8a5ea2e,62c539a13c3942f0dbd9d0e6,2022-07-06_09h36.30.035,Colour_Asymmetry_Pilot,2022.1.3,Win32,59.97001499,62c50e9c1127f2cd403a315f,,,,,,,,,,,,,,,,,,,"[-0.9766,-0.34920000000000007,0.2156]",twofour,"[0.3881999999999999,-0.23939999999999995,-0.05040000000000011]",-4,1.466,-45,93,1,0,0,response7disk_5,-3,3,1,0,0,rectangle_8,-3,3,1,0,0,2,-3,3,1,0,0,6,0,6,0,1,,,,,,,,,,,,,,,,,,,,,,,,,,,,,,,,,,,,,,,,,,,,,,,,,,,,,,,,,,,,,,,,,,,,,,,,,,,,,,,,,,,,,,,,,,,,,,,,,,,,,,,,,,,,,,,,
,,,,,,60eb29c01cbb5ca4a8a5ea2e,62c539a13c3942f0dbd9d0e6,2022-07-06_09h36.30.035,Colour_Asymmetry_Pilot,2022.1.3,Win32,59.97001499,62c50e9c1127f2cd403a315f,,,,,,,,,,,,,,,,,,,,onetwo,,2,4.9051,,,,,,,,,,,,,,,,,,,,,,,,,,,,,,,,space,33.4772,"[0.2862,0.7802,0.3568]","[-0.8982,-0.37259999999999993,0.2784]",86,-77,1,0,0,response3disk,4,-4,1,0,0,rectangle,4,-4,1,0,0,,1,0.0066,0,4,-4,1,0,0,0,0,0,45,1,45,first,,,,,,,,,,,,,,,,,,,,,,,,,,,,,,,,,,,,,,,,,,,,,,,,,,,,,,,,,,,,,,,,,,,,,,,,
,,,,,,60eb29c01cbb5ca4a8a5ea2e,62c539a13c3942f0dbd9d0e6,2022-07-06_09h36.30.035,Colour_Asymmetry_Pilot,2022.1.3,Win32,59.97001499,62c50e9c1127f2cd403a315f,,,,,,,,,,,,,,,,,,,,onethree,,-3,3.0686,,,,,,,,,,,,,,,,,,,,,,,,,,,,,,,,,,"[-0.9138,-0.5296000000000001,-0.5529999999999999]","[0.40379999999999994,0.09000000000000008,0.44300000000000006]",-67,29,1,0,0,response7disk,10,-1,1,0,0,rectangle,89,-36,1,0,0,2,2,5.7637,1,-16,-5,1,0,0,0,1,1,159,1,78,second,response3disk_3,rectangle,,,,,,,,,,,,,,,,,,,,,,,,,,,,,,,,,,,,,,,,,,,,,,,,,,,,,,,,,,,,,,,,,,,,,,
,,,,,,60eb29c01cbb5ca4a8a5ea2e,62c539a13c3942f0dbd9d0e6,2022-07-06_09h36.30.035,Colour_Asymmetry_Pilot,2022.1.3,Win32,59.97001499,62c50e9c1127f2cd403a315f,,,,,,,,,,,,,,,,,,,,twofour,,2,6.2043,,,,,,,,,,,,,,,,,,,,,,,,,,,,,,,,,,"[-0.38039999999999996,-0.4276,-0.1452]","[0.3881999999999999,-0.23939999999999995,-0.05040000000000011]",98,-47,1,0,0,response3disk,1,0,1,0,0,rectangle,1,0,1,0,0,2,1,0.0045,0,1,0,1,0,0,0,2,2,131,1,50,second,,,,,,,,,,,,,,,,,,,,,,,,,,,,,,,,,,,,,,,,,,,,,,,,,,,,,,,,,,,,,,,,,,,,,,,,
,,,,,,60eb29c01cbb5ca4a8a5ea2e,62c539a13c3942f0dbd9d0e6,2022-07-06_09h36.30.035,Colour_Asymmetry_Pilot,2022.1.3,Win32,59.97001499,62c50e9c1127f2cd403a315f,,,,,,,,,,,,,,,,,,,,onetwo,,2,1.4202,,,,,,,,,,,,,,,,,,,,,,,,,,,,,,,,,,"[-0.8982,-0.37259999999999993,0.2784]","[0.2862,0.7802,0.3568]",82,-30,1,0,0,response3disk,9,-5,1,0,0,rectangle,9,-5,1,0,0,2,2,0.0028,0,9,-5,1,0,0,0,3,3,126,1,45,second,,,,,,,,,,,,,,,,,,,,,,,,,,,,,,,,,,,,,,,,,,,,,,,,,,,,,,,,,,,,,,,,,,,,,,,,
,,,,,,60eb29c01cbb5ca4a8a5ea2e,62c539a13c3942f0dbd9d0e6,2022-07-06_09h36.30.035,Colour_Asymmetry_Pilot,2022.1.3,Win32,59.97001499,62c50e9c1127f2cd403a315f,,,,,,,,,,,,,,,,,,,,twofour,,-3,0.7506,,,,,,,,,,,,,,,,,,,,,,,,,,,,,,,,,,"[-0.050999999999999934,-0.6706000000000001,-0.804]","[-0.09019999999999995,0.44300000000000006,0.5371999999999999]",-60,38,1,0,0,response7disk,-4,6,1,0,0,rectangle,-4,6,1,0,0,2,3,0.0026,0,-4,6,1,0,0,0,4,4,17,1,17,first,,,,,,,,,,,,,,,,,,,,,,,,,,,,,,,,,,,,,,,,,,,,,,,,,,,,,,,,,,,,,,,,,,,,,,,,
,,,,,,60eb29c01cbb5ca4a8a5ea2e,62c539a13c3942f0dbd9d0e6,2022-07-06_09h36.30.035,Colour_Asymmetry_Pilot,2022.1.3,Win32,59.97001499,62c50e9c1127f2cd403a315f,,,,,,,,,,,,,,,,,,,,onethree,,-1,1.3173,,,,,,,,,,,,,,,,,,,,,,,,,,,,,,,,,,"[-0.4276,0.0038000000000000256,-0.3256]","[-0.07459999999999989,0.12139999999999995,-0.9922]",-56,-65,1,0,0,response5disk,2,-6,1,0,0,rectangle,2,-6,1,0,0,2,1,0.0045,0,2,-6,1,0,0,0,5,5,99,1,18,second,,,,,,,,,,,,,,,,,,,,,,,,,,,,,,,,,,,,,,,,,,,,,,,,,,,,,,,,,,,,,,,,,,,,,,,,
,,,,,,60eb29c01cbb5ca4a8a5ea2e,62c539a13c3942f0dbd9d0e6,2022-07-06_09h36.30.035,Colour_Asymmetry_Pilot,2022.1.3,Win32,59.97001499,62c50e9c1127f2cd403a315f,,,,,,,,,,,,,,,,,,,,twoone,,-3,1.1039,,,,,,,,,,,,,,,,,,,,,,,,,,,,,,,,,,"[0.5528,0.7409999999999999,-0.71]","[0.2784,-0.31000000000000005,-0.5452]",-60,51,1,0,0,response7disk,-8,-2,1,0,0,rectangle,-8,-2,1,0,0,2,3,0.0035,0,-8,-2,1,0,0,0,6,6,130,1,49,second,,,,,,,,,,,,,,,,,,,,,,,,,,,,,,,,,,,,,,,,,,,,,,,,,,,,,,,,,,,,,,,,,,,,,,,,
,,,,,,60eb29c01cbb5ca4a8a5ea2e,62c539a13c3942f0dbd9d0e6,2022-07-06_09h36.30.035,Colour_Asymmetry_Pilot,2022.1.3,Win32,59.97001499,62c50e9c1127f2cd403a315f,,,,,,,,,,,,,,,,,,,,onetwo,,-1,5.0844,,,,,,,,,,,,,,,,,,,,,,,,,,,,,,,,,,"[0.9686000000000001,0.3802000000000001,0.19999999999999996]","[-0.26280000000000003,-0.4746,-0.2158]",-48,-78,1,0,0,response5disk,12,8,1,0,0,rectangle,12,8,1,0,0,2,3,0.0006,0,12,8,1,0,0,0,7,7,139,1,58,second,,,,,,,,,,,,,,,,,,,,,,,,,,,,,,,,,,,,,,,,,,,,,,,,,,,,,,,,,,,,,,,,,,,,,,,,
,,,,,,60eb29c01cbb5ca4a8a5ea2e,62c539a13c3942f0dbd9d0e6,2022-07-06_09h36.30.035,Colour_Asymmetry_Pilot,2022.1.3,Win32,59.97001499,62c50e9c1127f2cd403a315f,,,,,,,,,,,,,,,,,,,,threefour,,-3,6.5843,,,,,,,,,,,,,,,,,,,,,,,,,,,,,,,,,,"[0.2862,0.7802,0.3568]","[1,0.12939999999999996,-1]",-76,35,1,0,0,response7disk,0,-14,1,0,0,rectangle,0,-14,1,0,0,2,1,0.0028,0,0,-14,1,0,0,0,8,8,79,1,79,first,,,,,,,,,,,,,,,,,,,,,,,,,,,,,,,,,,,,,,,,,,,,,,,,,,,,,,,,,,,,,,,,,,,,,,,,
,,,,,,60eb29c01cbb5ca4a8a5ea2e,62c539a13c3942f0dbd9d0e6,2022-07-06_09h36.30.035,Colour_Asymmetry_Pilot,2022.1.3,Win32,59.97001499,62c50e9c1127f2cd403a315f,,,,,,,,,,,,,,,,,,,,fourthree,,-3,1.9553,,,,,,,,,,,,,,,,,,,,,,,,,,,,,,,,,,"[-0.9766,-0.34920000000000007,0.2156]","[-0.6706000000000001,-0.6157999999999999,-0.6786]",-90,19,1,0,0,response7disk,-7,3,1,0,0,rectangle,-7,3,1,0,0,2,2,0.0028,0,-7,3,1,0,0,0,9,9,108,1,27,second,,,,,,,,,,,,,,,,,,,,,,,,,,,,,,,,,,,,,,,,,,,,,,,,,,,,,,,,,,,,,,,,,,,,,,,,
,,,,,,60eb29c01cbb5ca4a8a5ea2e,62c539a13c3942f0dbd9d0e6,2022-07-06_09h36.30.035,Colour_Asymmetry_Pilot,2022.1.3,Win32,59.97001499,62c50e9c1127f2cd403a315f,,,,,,,,,,,,,,,,,,,,threefour,,3,1.0495,,,,,,,,,,,,,,,,,,,,,,,,,,,,,,,,,,"[-0.9688,-0.7412000000000001,-0.4902000000000001]","[-0.4668,-0.8746,-0.2942]",83,28,1,0,0,response1disk,7,-5,1,0,0,rectangle,7,-5,1,0,0,2,2,0.001,0,7,-5,1,0,0,0,10,10,83,1,2,second,,,,,,,,,,,,,,,,,,,,,,,,,,,,,,,,,,,,,,,,,,,,,,,,,,,,,,,,,,,,,,,,,,,,,,,,
,,,,,,60eb29c01cbb5ca4a8a5ea2e,62c539a13c3942f0dbd9d0e6,2022-07-06_09h36.30.035,Colour_Asymmetry_Pilot,2022.1.3,Win32,59.97001499,62c50e9c1127f2cd403a315f,,,,,,,,,,,,,,,,,,,,twoone,,2,2.1196,,,,,,,,,,,,,,,,,,,,,,,,,,,,,,,,,,"[-0.9296,-0.12959999999999994,-0.043199999999999905]","[0.09799999999999986,-0.24719999999999998,0.15280000000000005]",85,-67,1,0,0,response3disk,-11,4,1,0,0,rectangle,-11,4,1,0,0,2,1,0.0024,0,-11,4,1,0,0,0,11,11,86,1,5,second,,,,,,,,,,,,,,,,,,,,,,,,,,,,,,,,,,,,,,,,,,,,,,,,,,,,,,,,,,,,,,,,,,,,,,,,
,,,,,,60eb29c01cbb5ca4a8a5ea2e,62c539a13c3942f0dbd9d0e6,2022-07-06_09h36.30.035,Colour_Asymmetry_Pilot,2022.1.3,Win32,59.97001499,62c50e9c1127f2cd403a315f,,,,,,,,,,,,,,,,,,,,threefour,,-2,7.9345,,,,,,,,,,,,,,,,,,,,,,,,,,,,,,,,,,"[-0.6235999999999999,-0.6786,-0.08239999999999992]","[-0.0040000000000000036,0.02739999999999987,-0.08239999999999992]",-79,-36,1,0,0,response5disk,7,-10,1,0,0,rectangle,7,-10,1,0,0,2,3,0.0024,0,7,-10,1,0,0,0,12,12,80,1,80,first,,,,,,,,,,,,,,,,,,,,,,,,,,,,,,,,,,,,,,,,,,,,,,,,,,,,,,,,,,,,,,,,,,,,,,,,
,,,,,,60eb29c01cbb5ca4a8a5ea2e,62c539a13c3942f0dbd9d0e6,2022-07-06_09h36.30.035,Colour_Asymmetry_Pilot,2022.1.3,Win32,59.97001499,62c50e9c1127f2cd403a315f,,,,,,,,,,,,,,,,,,,,fourthree,,-2,2.4016,,,,,,,,,,,,,,,,,,,,,,,,,,,,,,,,,,"[-0.4668,-0.8746,-0.2942]","[-0.2942,-0.7648,-0.7492000000000001]",-76,-36,1,0,0,response5disk,4,-2,1,0,0,rectangle,4,-2,1,0,0,2,1,0.0025,0,4,-2,1,0,0,0,13,13,109,1,28,second,,,,,,,,,,,,,,,,,,,,,,,,,,,,,,,,,,,,,,,,,,,,,,,,,,,,,,,,,,,,,,,,,,,,,,,,
,,,,,,60eb29c01cbb5ca4a8a5ea2e,62c539a13c3942f0dbd9d0e6,2022-07-06_09h36.30.035,Colour_Asymmetry_Pilot,2022.1.3,Win32,59.97001499,62c50e9c1127f2cd403a315f,,,,,,,,,,,,,,,,,,,,onetwo,,-4,0.6546,,,,,,,,,,,,,,,,,,,,,,,,,,,,,,,,,,"[-0.8118,-0.8198,-0.5452]","[0.9763999999999999,-0.1137999999999999,-0.6314]",-42,49,1,0,0,response7disk,-15,-1,1,0,0,rectangle,-15,-1,1,0,0,2,1,0.0004,0,-15,-1,1,0,0,0,14,14,90,1,9,second,,,,,,,,,,,,,,,,,,,,,,,,,,,,,,,,,,,,,,,,,,,,,,,,,,,,,,,,,,,,,,,,,,,,,,,,
,,,,,,60eb29c01cbb5ca4a8a5ea2e,62c539a13c3942f0dbd9d0e6,2022-07-06_09h36.30.035,Colour_Asymmetry_Pilot,2022.1.3,Win32,59.97001499,62c50e9c1127f2cd403a315f,,,,,,,,,,,,,,,,,,,,onetwo,,-2,2.3818,,,,,,,,,,,,,,,,,,,,,,,,,,,,,,,,,,"[0.3881999999999999,-0.23939999999999995,-0.05040000000000011]","[-0.38039999999999996,-0.4276,-0.1452]",-92,-50,1,0,0,response5disk,13,2,1,0,0,rectangle,13,2,1,0,0,2,2,0.0023,0,13,2,1,0,0,0,15,15,50,1,50,first,,,,,,,,,,,,,,,,,,,,,,,,,,,,,,,,,,,,,,,,,,,,,,,,,,,,,,,,,,,,,,,,,,,,,,,,
,,,,,,60eb29c01cbb5ca4a8a5ea2e,62c539a13c3942f0dbd9d0e6,2022-07-06_09h36.30.035,Colour_Asymmetry_Pilot,2022.1.3,Win32,59.97001499,62c50e9c1127f2cd403a315f,,,,,,,,,,,,,,,,,,,,twoone,,-1,1.9503,,,,,,,,,,,,,,,,,,,,,,,,,,,,,,,,,,"[-0.9216,-0.5529999999999999,-0.3962]","[-0.24719999999999998,0.5213999999999999,-0.12959999999999994]",-30,-64,1,0,0,response5disk,2,3,1,0,0,rectangle,2,3,1,0,0,2,3,0.0045,0,2,3,1,0,0,0,16,16,10,1,10,first,,,,,,,,,,,,,,,,,,,,,,,,,,,,,,,,,,,,,,,,,,,,,,,,,,,,,,,,,,,,,,,,,,,,,,,,
,,,,,,60eb29c01cbb5ca4a8a5ea2e,62c539a13c3942f0dbd9d0e6,2022-07-06_09h36.30.035,Colour_Asymmetry_Pilot,2022.1.3,Win32,59.97001499,62c50e9c1127f2cd403a315f,,,,,,,,,,,,,,,,,,,,fourtwo,,3,1.3852,,,,,,,,,,,,,,,,,,,,,,,,,,,,,,,,,,"[-0.9688,-0.4902000000000001,-0.12159999999999993]","[0.05879999999999996,0.2784,0.5841999999999998]",104,32,1,0,0,response1disk,-4,-6,1,0,0,rectangle,-4,-6,1,0,0,2,2,0.0024,0,-4,-6,1,0,0,0,17,17,132,1,51,second,,,,,,,,,,,,,,,,,,,,,,,,,,,,,,,,,,,,,,,,,,,,,,,,,,,,,,,,,,,,,,,,,,,,,,,,
