trials.thisRepN,trials.thisTrialN,trials.thisN,trials.thisIndex,trials.ran,Colourcodes,participant,session,date,expName,psychopyVersion,OS,frameRate,study_id,trials_4.thisRepN,trials_4.thisTrialN,trials_4.thisN,trials_4.thisIndex,trials_4.ran,StimulusPos,key_resp.keys,key_resp.rt,key_resp_2.keys,key_resp_2.rt,key_resp_15.keys,key_resp_15.rt,key_resp_17.keys,key_resp_17.rt,key_resp_9.keys,key_resp_9.rt,key_resp_10.keys,key_resp_10.rt,Circle1_col,Ecc,Circle2_col,similarity,response_time,mouse_5.x,mouse_5.y,mouse_5.leftButton,mouse_5.midButton,mouse_5.rightButton,mouse_5.clicked_name,mouse_10.x,mouse_10.y,mouse_10.leftButton,mouse_10.midButton,mouse_10.rightButton,mouse_10.clicked_name,mouse_7.x,mouse_7.y,mouse_7.leftButton,mouse_7.midButton,mouse_7.rightButton,catchnumberprac,mouse_6.x,mouse_6.y,mouse_6.leftButton,mouse_6.midButton,mouse_6.rightButton,duringprac.thisRepN,duringprac.thisTrialN,duringprac.thisN,duringprac.thisIndex,duringprac.ran,mouse_7.clicked_name,catchprac,mouse_6.clicked_name,key_resp_22.keys,key_resp_22.rt,Circle1_colour,Circle2_colour,mouse.x,mouse.y,mouse.leftButton,mouse.midButton,mouse.rightButton,mouse.clicked_name,mouse_2.x,mouse_2.y,mouse_2.leftButton,mouse_2.midButton,mouse_2.rightButton,mouse_2.clicked_name,mouse_3.x,mouse_3.y,mouse_3.leftButton,mouse_3.midButton,mouse_3.rightButton,catchresponse,catchnumber,response_time_catch,Catch,mouse_11.x,mouse_11.y,mouse_11.leftButton,mouse_11.midButton,mouse_11.rightButton,trials_2.thisRepN,trials_2.thisTrialN,trials_2.thisN,trials_2.thisIndex,trials_2.ran,Colourpair,Temporder,mouse_3.clicked_name,mouse_11.clicked_name,trials_3.thisRepN,trials_3.thisTrialN,trials_3.thisN,trials_3.thisIndex,trials_3.ran,key_resp_instr_Ishi.keys,key_resp_instr_Ishi.rt,Ishi_trial_keyresp.keys,Ishi_textbox.text,Ishi_mouse.x,Ishi_mouse.y,Ishi_mouse.leftButton,Ishi_mouse.midButton,Ishi_mouse.rightButton,Ishi_mouse.clicked_name,Ishi_loop.thisRepN,Ishi_loop.thisTrialN,Ishi_loop.thisN,Ishi_loop.thisIndex,Ishi_loop.ran,imageaddress,textbox.text,mouse_4.x,mouse_4.y,mouse_4.leftButton,mouse_4.midButton,mouse_4.rightButton,mouse_4.clicked_name,textbox_2.text,mouse_8.x,mouse_8.y,mouse_8.leftButton,mouse_8.midButton,mouse_8.rightButton,mouse_8.clicked_name,textbox_3.text,mouse_9.x,mouse_9.y,mouse_9.leftButton,mouse_9.midButton,mouse_9.rightButton,mouse_9.clicked_name,textbox_4.text,mouse_12.x,mouse_12.y,mouse_12.leftButton,mouse_12.midButton,mouse_12.rightButton,mouse_12.clicked_name,textbox_5.text,mouse_13.x,mouse_13.y,mouse_13.leftButton,mouse_13.midButton,mouse_13.rightButton,mouse_13.clicked_name,textbox_6.text,mouse_14.x,mouse_14.y,mouse_14.leftButton,mouse_14.midButton,mouse_14.rightButton,textbox_7.text,mouse_15.x,mouse_15.y,mouse_15.leftButton,mouse_15.midButton,mouse_15.rightButton,mouse_15.clicked_name
0,0,0,13,1,,616ade6a0707ccefd099ac5d,62c53a495eca7ef05354f5ed,2022-07-06_09h34.42.929,Colour_Asymmetry_Pilot,2022.1.3,Win32,59.84440455,62c50e9c1127f2cd403a315f,,,,,,,,,,,,,,,,,,,,,,,,,,,,,,,,,,,,,,,,,,,,,,,,,,,,,,,,,,,,,,,,,,,,,,,,,,,,,,,,,,,,,,,,,,,,,,,,,,,,,,,,,,,,,,,,,,,,,,,,,,,,,,,,,,,,,,,,,,,,,,,,,,,,,,,,,,,,,,,,,,
0,1,1,39,1,,616ade6a0707ccefd099ac5d,62c53a495eca7ef05354f5ed,2022-07-06_09h34.42.929,Colour_Asymmetry_Pilot,2022.1.3,Win32,59.84440455,62c50e9c1127f2cd403a315f,,,,,,,,,,,,,,,,,,,,,,,,,,,,,,,,,,,,,,,,,,,,,,,,,,,,,,,,,,,,,,,,,,,,,,,,,,,,,,,,,,,,,,,,,,,,,,,,,,,,,,,,,,,,,,,,,,,,,,,,,,,,,,,,,,,,,,,,,,,,,,,,,,,,,,,,,,,,,,,,,,
0,2,2,55,1,,616ade6a0707ccefd099ac5d,62c53a495eca7ef05354f5ed,2022-07-06_09h34.42.929,Colour_Asymmetry_Pilot,2022.1.3,Win32,59.84440455,62c50e9c1127f2cd403a315f,,,,,,,,,,,,,,,,,,,,,,,,,,,,,,,,,,,,,,,,,,,,,,,,,,,,,,,,,,,,,,,,,,,,,,,,,,,,,,,,,,,,,,,,,,,,,,,,,,,,,,,,,,,,,,,,,,,,,,,,,,,,,,,,,,,,,,,,,,,,,,,,,,,,,,,,,,,,,,,,,,
0,3,3,73,1,,616ade6a0707ccefd099ac5d,62c53a495eca7ef05354f5ed,2022-07-06_09h34.42.929,Colour_Asymmetry_Pilot,2022.1.3,Win32,59.84440455,62c50e9c1127f2cd403a315f,,,,,,,,,,,,,,,,,,,,,,,,,,,,,,,,,,,,,,,,,,,,,,,,,,,,,,,,,,,,,,,,,,,,,,,,,,,,,,,,,,,,,,,,,,,,,,,,,,,,,,,,,,,,,,,,,,,,,,,,,,,,,,,,,,,,,,,,,,,,,,,,,,,,,,,,,,,,,,,,,,
0,4,4,48,1,,616ade6a0707ccefd099ac5d,62c53a495eca7ef05354f5ed,2022-07-06_09h34.42.929,Colour_Asymmetry_Pilot,2022.1.3,Win32,59.84440455,62c50e9c1127f2cd403a315f,,,,,,,,,,,,,,,,,,,,,,,,,,,,,,,,,,,,,,,,,,,,,,,,,,,,,,,,,,,,,,,,,,,,,,,,,,,,,,,,,,,,,,,,,,,,,,,,,,,,,,,,,,,,,,,,,,,,,,,,,,,,,,,,,,,,,,,,,,,,,,,,,,,,,,,,,,,,,,,,,,
0,5,5,10,1,,616ade6a0707ccefd099ac5d,62c53a495eca7ef05354f5ed,2022-07-06_09h34.42.929,Colour_Asymmetry_Pilot,2022.1.3,Win32,59.84440455,62c50e9c1127f2cd403a315f,,,,,,,,,,,,,,,,,,,,,,,,,,,,,,,,,,,,,,,,,,,,,,,,,,,,,,,,,,,,,,,,,,,,,,,,,,,,,,,,,,,,,,,,,,,,,,,,,,,,,,,,,,,,,,,,,,,,,,,,,,,,,,,,,,,,,,,,,,,,,,,,,,,,,,,,,,,,,,,,,,
0,6,6,59,1,,616ade6a0707ccefd099ac5d,62c53a495eca7ef05354f5ed,2022-07-06_09h34.42.929,Colour_Asymmetry_Pilot,2022.1.3,Win32,59.84440455,62c50e9c1127f2cd403a315f,,,,,,,,,,,,,,,,,,,,,,,,,,,,,,,,,,,,,,,,,,,,,,,,,,,,,,,,,,,,,,,,,,,,,,,,,,,,,,,,,,,,,,,,,,,,,,,,,,,,,,,,,,,,,,,,,,,,,,,,,,,,,,,,,,,,,,,,,,,,,,,,,,,,,,,,,,,,,,,,,,
0,7,7,51,1,,616ade6a0707ccefd099ac5d,62c53a495eca7ef05354f5ed,2022-07-06_09h34.42.929,Colour_Asymmetry_Pilot,2022.1.3,Win32,59.84440455,62c50e9c1127f2cd403a315f,,,,,,,,,,,,,,,,,,,,,,,,,,,,,,,,,,,,,,,,,,,,,,,,,,,,,,,,,,,,,,,,,,,,,,,,,,,,,,,,,,,,,,,,,,,,,,,,,,,,,,,,,,,,,,,,,,,,,,,,,,,,,,,,,,,,,,,,,,,,,,,,,,,,,,,,,,,,,,,,,,
0,8,8,6,1,,616ade6a0707ccefd099ac5d,62c53a495eca7ef05354f5ed,2022-07-06_09h34.42.929,Colour_Asymmetry_Pilot,2022.1.3,Win32,59.84440455,62c50e9c1127f2cd403a315f,,,,,,,,,,,,,,,,,,,,,,,,,,,,,,,,,,,,,,,,,,,,,,,,,,,,,,,,,,,,,,,,,,,,,,,,,,,,,,,,,,,,,,,,,,,,,,,,,,,,,,,,,,,,,,,,,,,,,,,,,,,,,,,,,,,,,,,,,,,,,,,,,,,,,,,,,,,,,,,,,,
0,9,9,75,1,,616ade6a0707ccefd099ac5d,62c53a495eca7ef05354f5ed,2022-07-06_09h34.42.929,Colour_Asymmetry_Pilot,2022.1.3,Win32,59.84440455,62c50e9c1127f2cd403a315f,,,,,,,,,,,,,,,,,,,,,,,,,,,,,,,,,,,,,,,,,,,,,,,,,,,,,,,,,,,,,,,,,,,,,,,,,,,,,,,,,,,,,,,,,,,,,,,,,,,,,,,,,,,,,,,,,,,,,,,,,,,,,,,,,,,,,,,,,,,,,,,,,,,,,,,,,,,,,,,,,,
0,10,10,42,1,,616ade6a0707ccefd099ac5d,62c53a495eca7ef05354f5ed,2022-07-06_09h34.42.929,Colour_Asymmetry_Pilot,2022.1.3,Win32,59.84440455,62c50e9c1127f2cd403a315f,,,,,,,,,,,,,,,,,,,,,,,,,,,,,,,,,,,,,,,,,,,,,,,,,,,,,,,,,,,,,,,,,,,,,,,,,,,,,,,,,,,,,,,,,,,,,,,,,,,,,,,,,,,,,,,,,,,,,,,,,,,,,,,,,,,,,,,,,,,,,,,,,,,,,,,,,,,,,,,,,,
0,11,11,88,1,,616ade6a0707ccefd099ac5d,62c53a495eca7ef05354f5ed,2022-07-06_09h34.42.929,Colour_Asymmetry_Pilot,2022.1.3,Win32,59.84440455,62c50e9c1127f2cd403a315f,,,,,,,,,,,,,,,,,,,,,,,,,,,,,,,,,,,,,,,,,,,,,,,,,,,,,,,,,,,,,,,,,,,,,,,,,,,,,,,,,,,,,,,,,,,,,,,,,,,,,,,,,,,,,,,,,,,,,,,,,,,,,,,,,,,,,,,,,,,,,,,,,,,,,,,,,,,,,,,,,,
0,12,12,76,1,,616ade6a0707ccefd099ac5d,62c53a495eca7ef05354f5ed,2022-07-06_09h34.42.929,Colour_Asymmetry_Pilot,2022.1.3,Win32,59.84440455,62c50e9c1127f2cd403a315f,,,,,,,,,,,,,,,,,,,,,,,,,,,,,,,,,,,,,,,,,,,,,,,,,,,,,,,,,,,,,,,,,,,,,,,,,,,,,,,,,,,,,,,,,,,,,,,,,,,,,,,,,,,,,,,,,,,,,,,,,,,,,,,,,,,,,,,,,,,,,,,,,,,,,,,,,,,,,,,,,,
0,13,13,81,1,,616ade6a0707ccefd099ac5d,62c53a495eca7ef05354f5ed,2022-07-06_09h34.42.929,Colour_Asymmetry_Pilot,2022.1.3,Win32,59.84440455,62c50e9c1127f2cd403a315f,,,,,,,,,,,,,,,,,,,,,,,,,,,,,,,,,,,,,,,,,,,,,,,,,,,,,,,,,,,,,,,,,,,,,,,,,,,,,,,,,,,,,,,,,,,,,,,,,,,,,,,,,,,,,,,,,,,,,,,,,,,,,,,,,,,,,,,,,,,,,,,,,,,,,,,,,,,,,,,,,,
0,14,14,18,1,,616ade6a0707ccefd099ac5d,62c53a495eca7ef05354f5ed,2022-07-06_09h34.42.929,Colour_Asymmetry_Pilot,2022.1.3,Win32,59.84440455,62c50e9c1127f2cd403a315f,,,,,,,,,,,,,,,,,,,,,,,,,,,,,,,,,,,,,,,,,,,,,,,,,,,,,,,,,,,,,,,,,,,,,,,,,,,,,,,,,,,,,,,,,,,,,,,,,,,,,,,,,,,,,,,,,,,,,,,,,,,,,,,,,,,,,,,,,,,,,,,,,,,,,,,,,,,,,,,,,,
0,15,15,66,1,,616ade6a0707ccefd099ac5d,62c53a495eca7ef05354f5ed,2022-07-06_09h34.42.929,Colour_Asymmetry_Pilot,2022.1.3,Win32,59.84440455,62c50e9c1127f2cd403a315f,,,,,,,,,,,,,,,,,,,,,,,,,,,,,,,,,,,,,,,,,,,,,,,,,,,,,,,,,,,,,,,,,,,,,,,,,,,,,,,,,,,,,,,,,,,,,,,,,,,,,,,,,,,,,,,,,,,,,,,,,,,,,,,,,,,,,,,,,,,,,,,,,,,,,,,,,,,,,,,,,,
0,16,16,0,1,,616ade6a0707ccefd099ac5d,62c53a495eca7ef05354f5ed,2022-07-06_09h34.42.929,Colour_Asymmetry_Pilot,2022.1.3,Win32,59.84440455,62c50e9c1127f2cd403a315f,,,,,,,,,,,,,,,,,,,,,,,,,,,,,,,,,,,,,,,,,,,,,,,,,,,,,,,,,,,,,,,,,,,,,,,,,,,,,,,,,,,,,,,,,,,,,,,,,,,,,,,,,,,,,,,,,,,,,,,,,,,,,,,,,,,,,,,,,,,,,,,,,,,,,,,,,,,,,,,,,,
0,17,17,35,1,,616ade6a0707ccefd099ac5d,62c53a495eca7ef05354f5ed,2022-07-06_09h34.42.929,Colour_Asymmetry_Pilot,2022.1.3,Win32,59.84440455,62c50e9c1127f2cd403a315f,,,,,,,,,,,,,,,,,,,,,,,,,,,,,,,,,,,,,,,,,,,,,,,,,,,,,,,,,,,,,,,,,,,,,,,,,,,,,,,,,,,,,,,,,,,,,,,,,,,,,,,,,,,,,,,,,,,,,,,,,,,,,,,,,,,,,,,,,,,,,,,,,,,,,,,,,,,,,,,,,,
0,18,18,20,1,,616ade6a0707ccefd099ac5d,62c53a495eca7ef05354f5ed,2022-07-06_09h34.42.929,Colour_Asymmetry_Pilot,2022.1.3,Win32,59.84440455,62c50e9c1127f2cd403a315f,,,,,,,,,,,,,,,,,,,,,,,,,,,,,,,,,,,,,,,,,,,,,,,,,,,,,,,,,,,,,,,,,,,,,,,,,,,,,,,,,,,,,,,,,,,,,,,,,,,,,,,,,,,,,,,,,,,,,,,,,,,,,,,,,,,,,,,,,,,,,,,,,,,,,,,,,,,,,,,,,,
0,19,19,37,1,,616ade6a0707ccefd099ac5d,62c53a495eca7ef05354f5ed,2022-07-06_09h34.42.929,Colour_Asymmetry_Pilot,2022.1.3,Win32,59.84440455,62c50e9c1127f2cd403a315f,,,,,,,,,,,,,,,,,,,,,,,,,,,,,,,,,,,,,,,,,,,,,,,,,,,,,,,,,,,,,,,,,,,,,,,,,,,,,,,,,,,,,,,,,,,,,,,,,,,,,,,,,,,,,,,,,,,,,,,,,,,,,,,,,,,,,,,,,,,,,,,,,,,,,,,,,,,,,,,,,,
0,20,20,26,1,,616ade6a0707ccefd099ac5d,62c53a495eca7ef05354f5ed,2022-07-06_09h34.42.929,Colour_Asymmetry_Pilot,2022.1.3,Win32,59.84440455,62c50e9c1127f2cd403a315f,,,,,,,,,,,,,,,,,,,,,,,,,,,,,,,,,,,,,,,,,,,,,,,,,,,,,,,,,,,,,,,,,,,,,,,,,,,,,,,,,,,,,,,,,,,,,,,,,,,,,,,,,,,,,,,,,,,,,,,,,,,,,,,,,,,,,,,,,,,,,,,,,,,,,,,,,,,,,,,,,,
0,21,21,40,1,,616ade6a0707ccefd099ac5d,62c53a495eca7ef05354f5ed,2022-07-06_09h34.42.929,Colour_Asymmetry_Pilot,2022.1.3,Win32,59.84440455,62c50e9c1127f2cd403a315f,,,,,,,,,,,,,,,,,,,,,,,,,,,,,,,,,,,,,,,,,,,,,,,,,,,,,,,,,,,,,,,,,,,,,,,,,,,,,,,,,,,,,,,,,,,,,,,,,,,,,,,,,,,,,,,,,,,,,,,,,,,,,,,,,,,,,,,,,,,,,,,,,,,,,,,,,,,,,,,,,,
0,22,22,87,1,,616ade6a0707ccefd099ac5d,62c53a495eca7ef05354f5ed,2022-07-06_09h34.42.929,Colour_Asymmetry_Pilot,2022.1.3,Win32,59.84440455,62c50e9c1127f2cd403a315f,,,,,,,,,,,,,,,,,,,,,,,,,,,,,,,,,,,,,,,,,,,,,,,,,,,,,,,,,,,,,,,,,,,,,,,,,,,,,,,,,,,,,,,,,,,,,,,,,,,,,,,,,,,,,,,,,,,,,,,,,,,,,,,,,,,,,,,,,,,,,,,,,,,,,,,,,,,,,,,,,,
0,23,23,28,1,,616ade6a0707ccefd099ac5d,62c53a495eca7ef05354f5ed,2022-07-06_09h34.42.929,Colour_Asymmetry_Pilot,2022.1.3,Win32,59.84440455,62c50e9c1127f2cd403a315f,,,,,,,,,,,,,,,,,,,,,,,,,,,,,,,,,,,,,,,,,,,,,,,,,,,,,,,,,,,,,,,,,,,,,,,,,,,,,,,,,,,,,,,,,,,,,,,,,,,,,,,,,,,,,,,,,,,,,,,,,,,,,,,,,,,,,,,,,,,,,,,,,,,,,,,,,,,,,,,,,,
0,24,24,9,1,,616ade6a0707ccefd099ac5d,62c53a495eca7ef05354f5ed,2022-07-06_09h34.42.929,Colour_Asymmetry_Pilot,2022.1.3,Win32,59.84440455,62c50e9c1127f2cd403a315f,,,,,,,,,,,,,,,,,,,,,,,,,,,,,,,,,,,,,,,,,,,,,,,,,,,,,,,,,,,,,,,,,,,,,,,,,,,,,,,,,,,,,,,,,,,,,,,,,,,,,,,,,,,,,,,,,,,,,,,,,,,,,,,,,,,,,,,,,,,,,,,,,,,,,,,,,,,,,,,,,,
0,25,25,27,1,,616ade6a0707ccefd099ac5d,62c53a495eca7ef05354f5ed,2022-07-06_09h34.42.929,Colour_Asymmetry_Pilot,2022.1.3,Win32,59.84440455,62c50e9c1127f2cd403a315f,,,,,,,,,,,,,,,,,,,,,,,,,,,,,,,,,,,,,,,,,,,,,,,,,,,,,,,,,,,,,,,,,,,,,,,,,,,,,,,,,,,,,,,,,,,,,,,,,,,,,,,,,,,,,,,,,,,,,,,,,,,,,,,,,,,,,,,,,,,,,,,,,,,,,,,,,,,,,,,,,,
0,26,26,44,1,,616ade6a0707ccefd099ac5d,62c53a495eca7ef05354f5ed,2022-07-06_09h34.42.929,Colour_Asymmetry_Pilot,2022.1.3,Win32,59.84440455,62c50e9c1127f2cd403a315f,,,,,,,,,,,,,,,,,,,,,,,,,,,,,,,,,,,,,,,,,,,,,,,,,,,,,,,,,,,,,,,,,,,,,,,,,,,,,,,,,,,,,,,,,,,,,,,,,,,,,,,,,,,,,,,,,,,,,,,,,,,,,,,,,,,,,,,,,,,,,,,,,,,,,,,,,,,,,,,,,,
0,27,27,74,1,,616ade6a0707ccefd099ac5d,62c53a495eca7ef05354f5ed,2022-07-06_09h34.42.929,Colour_Asymmetry_Pilot,2022.1.3,Win32,59.84440455,62c50e9c1127f2cd403a315f,,,,,,,,,,,,,,,,,,,,,,,,,,,,,,,,,,,,,,,,,,,,,,,,,,,,,,,,,,,,,,,,,,,,,,,,,,,,,,,,,,,,,,,,,,,,,,,,,,,,,,,,,,,,,,,,,,,,,,,,,,,,,,,,,,,,,,,,,,,,,,,,,,,,,,,,,,,,,,,,,,
0,28,28,89,1,,616ade6a0707ccefd099ac5d,62c53a495eca7ef05354f5ed,2022-07-06_09h34.42.929,Colour_Asymmetry_Pilot,2022.1.3,Win32,59.84440455,62c50e9c1127f2cd403a315f,,,,,,,,,,,,,,,,,,,,,,,,,,,,,,,,,,,,,,,,,,,,,,,,,,,,,,,,,,,,,,,,,,,,,,,,,,,,,,,,,,,,,,,,,,,,,,,,,,,,,,,,,,,,,,,,,,,,,,,,,,,,,,,,,,,,,,,,,,,,,,,,,,,,,,,,,,,,,,,,,,
0,29,29,67,1,,616ade6a0707ccefd099ac5d,62c53a495eca7ef05354f5ed,2022-07-06_09h34.42.929,Colour_Asymmetry_Pilot,2022.1.3,Win32,59.84440455,62c50e9c1127f2cd403a315f,,,,,,,,,,,,,,,,,,,,,,,,,,,,,,,,,,,,,,,,,,,,,,,,,,,,,,,,,,,,,,,,,,,,,,,,,,,,,,,,,,,,,,,,,,,,,,,,,,,,,,,,,,,,,,,,,,,,,,,,,,,,,,,,,,,,,,,,,,,,,,,,,,,,,,,,,,,,,,,,,,
0,30,30,78,1,,616ade6a0707ccefd099ac5d,62c53a495eca7ef05354f5ed,2022-07-06_09h34.42.929,Colour_Asymmetry_Pilot,2022.1.3,Win32,59.84440455,62c50e9c1127f2cd403a315f,,,,,,,,,,,,,,,,,,,,,,,,,,,,,,,,,,,,,,,,,,,,,,,,,,,,,,,,,,,,,,,,,,,,,,,,,,,,,,,,,,,,,,,,,,,,,,,,,,,,,,,,,,,,,,,,,,,,,,,,,,,,,,,,,,,,,,,,,,,,,,,,,,,,,,,,,,,,,,,,,,
0,31,31,32,1,,616ade6a0707ccefd099ac5d,62c53a495eca7ef05354f5ed,2022-07-06_09h34.42.929,Colour_Asymmetry_Pilot,2022.1.3,Win32,59.84440455,62c50e9c1127f2cd403a315f,,,,,,,,,,,,,,,,,,,,,,,,,,,,,,,,,,,,,,,,,,,,,,,,,,,,,,,,,,,,,,,,,,,,,,,,,,,,,,,,,,,,,,,,,,,,,,,,,,,,,,,,,,,,,,,,,,,,,,,,,,,,,,,,,,,,,,,,,,,,,,,,,,,,,,,,,,,,,,,,,,
0,32,32,41,1,,616ade6a0707ccefd099ac5d,62c53a495eca7ef05354f5ed,2022-07-06_09h34.42.929,Colour_Asymmetry_Pilot,2022.1.3,Win32,59.84440455,62c50e9c1127f2cd403a315f,,,,,,,,,,,,,,,,,,,,,,,,,,,,,,,,,,,,,,,,,,,,,,,,,,,,,,,,,,,,,,,,,,,,,,,,,,,,,,,,,,,,,,,,,,,,,,,,,,,,,,,,,,,,,,,,,,,,,,,,,,,,,,,,,,,,,,,,,,,,,,,,,,,,,,,,,,,,,,,,,,
0,33,33,49,1,,616ade6a0707ccefd099ac5d,62c53a495eca7ef05354f5ed,2022-07-06_09h34.42.929,Colour_Asymmetry_Pilot,2022.1.3,Win32,59.84440455,62c50e9c1127f2cd403a315f,,,,,,,,,,,,,,,,,,,,,,,,,,,,,,,,,,,,,,,,,,,,,,,,,,,,,,,,,,,,,,,,,,,,,,,,,,,,,,,,,,,,,,,,,,,,,,,,,,,,,,,,,,,,,,,,,,,,,,,,,,,,,,,,,,,,,,,,,,,,,,,,,,,,,,,,,,,,,,,,,,
0,34,34,15,1,,616ade6a0707ccefd099ac5d,62c53a495eca7ef05354f5ed,2022-07-06_09h34.42.929,Colour_Asymmetry_Pilot,2022.1.3,Win32,59.84440455,62c50e9c1127f2cd403a315f,,,,,,,,,,,,,,,,,,,,,,,,,,,,,,,,,,,,,,,,,,,,,,,,,,,,,,,,,,,,,,,,,,,,,,,,,,,,,,,,,,,,,,,,,,,,,,,,,,,,,,,,,,,,,,,,,,,,,,,,,,,,,,,,,,,,,,,,,,,,,,,,,,,,,,,,,,,,,,,,,,
0,35,35,65,1,,616ade6a0707ccefd099ac5d,62c53a495eca7ef05354f5ed,2022-07-06_09h34.42.929,Colour_Asymmetry_Pilot,2022.1.3,Win32,59.84440455,62c50e9c1127f2cd403a315f,,,,,,,,,,,,,,,,,,,,,,,,,,,,,,,,,,,,,,,,,,,,,,,,,,,,,,,,,,,,,,,,,,,,,,,,,,,,,,,,,,,,,,,,,,,,,,,,,,,,,,,,,,,,,,,,,,,,,,,,,,,,,,,,,,,,,,,,,,,,,,,,,,,,,,,,,,,,,,,,,,
0,36,36,22,1,,616ade6a0707ccefd099ac5d,62c53a495eca7ef05354f5ed,2022-07-06_09h34.42.929,Colour_Asymmetry_Pilot,2022.1.3,Win32,59.84440455,62c50e9c1127f2cd403a315f,,,,,,,,,,,,,,,,,,,,,,,,,,,,,,,,,,,,,,,,,,,,,,,,,,,,,,,,,,,,,,,,,,,,,,,,,,,,,,,,,,,,,,,,,,,,,,,,,,,,,,,,,,,,,,,,,,,,,,,,,,,,,,,,,,,,,,,,,,,,,,,,,,,,,,,,,,,,,,,,,,
0,37,37,5,1,,616ade6a0707ccefd099ac5d,62c53a495eca7ef05354f5ed,2022-07-06_09h34.42.929,Colour_Asymmetry_Pilot,2022.1.3,Win32,59.84440455,62c50e9c1127f2cd403a315f,,,,,,,,,,,,,,,,,,,,,,,,,,,,,,,,,,,,,,,,,,,,,,,,,,,,,,,,,,,,,,,,,,,,,,,,,,,,,,,,,,,,,,,,,,,,,,,,,,,,,,,,,,,,,,,,,,,,,,,,,,,,,,,,,,,,,,,,,,,,,,,,,,,,,,,,,,,,,,,,,,
0,38,38,69,1,,616ade6a0707ccefd099ac5d,62c53a495eca7ef05354f5ed,2022-07-06_09h34.42.929,Colour_Asymmetry_Pilot,2022.1.3,Win32,59.84440455,62c50e9c1127f2cd403a315f,,,,,,,,,,,,,,,,,,,,,,,,,,,,,,,,,,,,,,,,,,,,,,,,,,,,,,,,,,,,,,,,,,,,,,,,,,,,,,,,,,,,,,,,,,,,,,,,,,,,,,,,,,,,,,,,,,,,,,,,,,,,,,,,,,,,,,,,,,,,,,,,,,,,,,,,,,,,,,,,,,
0,39,39,23,1,,616ade6a0707ccefd099ac5d,62c53a495eca7ef05354f5ed,2022-07-06_09h34.42.929,Colour_Asymmetry_Pilot,2022.1.3,Win32,59.84440455,62c50e9c1127f2cd403a315f,,,,,,,,,,,,,,,,,,,,,,,,,,,,,,,,,,,,,,,,,,,,,,,,,,,,,,,,,,,,,,,,,,,,,,,,,,,,,,,,,,,,,,,,,,,,,,,,,,,,,,,,,,,,,,,,,,,,,,,,,,,,,,,,,,,,,,,,,,,,,,,,,,,,,,,,,,,,,,,,,,
0,40,40,14,1,,616ade6a0707ccefd099ac5d,62c53a495eca7ef05354f5ed,2022-07-06_09h34.42.929,Colour_Asymmetry_Pilot,2022.1.3,Win32,59.84440455,62c50e9c1127f2cd403a315f,,,,,,,,,,,,,,,,,,,,,,,,,,,,,,,,,,,,,,,,,,,,,,,,,,,,,,,,,,,,,,,,,,,,,,,,,,,,,,,,,,,,,,,,,,,,,,,,,,,,,,,,,,,,,,,,,,,,,,,,,,,,,,,,,,,,,,,,,,,,,,,,,,,,,,,,,,,,,,,,,,
0,41,41,4,1,,616ade6a0707ccefd099ac5d,62c53a495eca7ef05354f5ed,2022-07-06_09h34.42.929,Colour_Asymmetry_Pilot,2022.1.3,Win32,59.84440455,62c50e9c1127f2cd403a315f,,,,,,,,,,,,,,,,,,,,,,,,,,,,,,,,,,,,,,,,,,,,,,,,,,,,,,,,,,,,,,,,,,,,,,,,,,,,,,,,,,,,,,,,,,,,,,,,,,,,,,,,,,,,,,,,,,,,,,,,,,,,,,,,,,,,,,,,,,,,,,,,,,,,,,,,,,,,,,,,,,
0,42,42,43,1,,616ade6a0707ccefd099ac5d,62c53a495eca7ef05354f5ed,2022-07-06_09h34.42.929,Colour_Asymmetry_Pilot,2022.1.3,Win32,59.84440455,62c50e9c1127f2cd403a315f,,,,,,,,,,,,,,,,,,,,,,,,,,,,,,,,,,,,,,,,,,,,,,,,,,,,,,,,,,,,,,,,,,,,,,,,,,,,,,,,,,,,,,,,,,,,,,,,,,,,,,,,,,,,,,,,,,,,,,,,,,,,,,,,,,,,,,,,,,,,,,,,,,,,,,,,,,,,,,,,,,
0,43,43,54,1,,616ade6a0707ccefd099ac5d,62c53a495eca7ef05354f5ed,2022-07-06_09h34.42.929,Colour_Asymmetry_Pilot,2022.1.3,Win32,59.84440455,62c50e9c1127f2cd403a315f,,,,,,,,,,,,,,,,,,,,,,,,,,,,,,,,,,,,,,,,,,,,,,,,,,,,,,,,,,,,,,,,,,,,,,,,,,,,,,,,,,,,,,,,,,,,,,,,,,,,,,,,,,,,,,,,,,,,,,,,,,,,,,,,,,,,,,,,,,,,,,,,,,,,,,,,,,,,,,,,,,
0,44,44,57,1,,616ade6a0707ccefd099ac5d,62c53a495eca7ef05354f5ed,2022-07-06_09h34.42.929,Colour_Asymmetry_Pilot,2022.1.3,Win32,59.84440455,62c50e9c1127f2cd403a315f,,,,,,,,,,,,,,,,,,,,,,,,,,,,,,,,,,,,,,,,,,,,,,,,,,,,,,,,,,,,,,,,,,,,,,,,,,,,,,,,,,,,,,,,,,,,,,,,,,,,,,,,,,,,,,,,,,,,,,,,,,,,,,,,,,,,,,,,,,,,,,,,,,,,,,,,,,,,,,,,,,
0,45,45,84,1,,616ade6a0707ccefd099ac5d,62c53a495eca7ef05354f5ed,2022-07-06_09h34.42.929,Colour_Asymmetry_Pilot,2022.1.3,Win32,59.84440455,62c50e9c1127f2cd403a315f,,,,,,,,,,,,,,,,,,,,,,,,,,,,,,,,,,,,,,,,,,,,,,,,,,,,,,,,,,,,,,,,,,,,,,,,,,,,,,,,,,,,,,,,,,,,,,,,,,,,,,,,,,,,,,,,,,,,,,,,,,,,,,,,,,,,,,,,,,,,,,,,,,,,,,,,,,,,,,,,,,
0,46,46,29,1,,616ade6a0707ccefd099ac5d,62c53a495eca7ef05354f5ed,2022-07-06_09h34.42.929,Colour_Asymmetry_Pilot,2022.1.3,Win32,59.84440455,62c50e9c1127f2cd403a315f,,,,,,,,,,,,,,,,,,,,,,,,,,,,,,,,,,,,,,,,,,,,,,,,,,,,,,,,,,,,,,,,,,,,,,,,,,,,,,,,,,,,,,,,,,,,,,,,,,,,,,,,,,,,,,,,,,,,,,,,,,,,,,,,,,,,,,,,,,,,,,,,,,,,,,,,,,,,,,,,,,
0,47,47,58,1,,616ade6a0707ccefd099ac5d,62c53a495eca7ef05354f5ed,2022-07-06_09h34.42.929,Colour_Asymmetry_Pilot,2022.1.3,Win32,59.84440455,62c50e9c1127f2cd403a315f,,,,,,,,,,,,,,,,,,,,,,,,,,,,,,,,,,,,,,,,,,,,,,,,,,,,,,,,,,,,,,,,,,,,,,,,,,,,,,,,,,,,,,,,,,,,,,,,,,,,,,,,,,,,,,,,,,,,,,,,,,,,,,,,,,,,,,,,,,,,,,,,,,,,,,,,,,,,,,,,,,
0,48,48,61,1,,616ade6a0707ccefd099ac5d,62c53a495eca7ef05354f5ed,2022-07-06_09h34.42.929,Colour_Asymmetry_Pilot,2022.1.3,Win32,59.84440455,62c50e9c1127f2cd403a315f,,,,,,,,,,,,,,,,,,,,,,,,,,,,,,,,,,,,,,,,,,,,,,,,,,,,,,,,,,,,,,,,,,,,,,,,,,,,,,,,,,,,,,,,,,,,,,,,,,,,,,,,,,,,,,,,,,,,,,,,,,,,,,,,,,,,,,,,,,,,,,,,,,,,,,,,,,,,,,,,,,
0,49,49,71,1,,616ade6a0707ccefd099ac5d,62c53a495eca7ef05354f5ed,2022-07-06_09h34.42.929,Colour_Asymmetry_Pilot,2022.1.3,Win32,59.84440455,62c50e9c1127f2cd403a315f,,,,,,,,,,,,,,,,,,,,,,,,,,,,,,,,,,,,,,,,,,,,,,,,,,,,,,,,,,,,,,,,,,,,,,,,,,,,,,,,,,,,,,,,,,,,,,,,,,,,,,,,,,,,,,,,,,,,,,,,,,,,,,,,,,,,,,,,,,,,,,,,,,,,,,,,,,,,,,,,,,
0,50,50,19,1,,616ade6a0707ccefd099ac5d,62c53a495eca7ef05354f5ed,2022-07-06_09h34.42.929,Colour_Asymmetry_Pilot,2022.1.3,Win32,59.84440455,62c50e9c1127f2cd403a315f,,,,,,,,,,,,,,,,,,,,,,,,,,,,,,,,,,,,,,,,,,,,,,,,,,,,,,,,,,,,,,,,,,,,,,,,,,,,,,,,,,,,,,,,,,,,,,,,,,,,,,,,,,,,,,,,,,,,,,,,,,,,,,,,,,,,,,,,,,,,,,,,,,,,,,,,,,,,,,,,,,
0,51,51,31,1,,616ade6a0707ccefd099ac5d,62c53a495eca7ef05354f5ed,2022-07-06_09h34.42.929,Colour_Asymmetry_Pilot,2022.1.3,Win32,59.84440455,62c50e9c1127f2cd403a315f,,,,,,,,,,,,,,,,,,,,,,,,,,,,,,,,,,,,,,,,,,,,,,,,,,,,,,,,,,,,,,,,,,,,,,,,,,,,,,,,,,,,,,,,,,,,,,,,,,,,,,,,,,,,,,,,,,,,,,,,,,,,,,,,,,,,,,,,,,,,,,,,,,,,,,,,,,,,,,,,,,
0,52,52,7,1,,616ade6a0707ccefd099ac5d,62c53a495eca7ef05354f5ed,2022-07-06_09h34.42.929,Colour_Asymmetry_Pilot,2022.1.3,Win32,59.84440455,62c50e9c1127f2cd403a315f,,,,,,,,,,,,,,,,,,,,,,,,,,,,,,,,,,,,,,,,,,,,,,,,,,,,,,,,,,,,,,,,,,,,,,,,,,,,,,,,,,,,,,,,,,,,,,,,,,,,,,,,,,,,,,,,,,,,,,,,,,,,,,,,,,,,,,,,,,,,,,,,,,,,,,,,,,,,,,,,,,
0,53,53,17,1,,616ade6a0707ccefd099ac5d,62c53a495eca7ef05354f5ed,2022-07-06_09h34.42.929,Colour_Asymmetry_Pilot,2022.1.3,Win32,59.84440455,62c50e9c1127f2cd403a315f,,,,,,,,,,,,,,,,,,,,,,,,,,,,,,,,,,,,,,,,,,,,,,,,,,,,,,,,,,,,,,,,,,,,,,,,,,,,,,,,,,,,,,,,,,,,,,,,,,,,,,,,,,,,,,,,,,,,,,,,,,,,,,,,,,,,,,,,,,,,,,,,,,,,,,,,,,,,,,,,,,
0,54,54,21,1,,616ade6a0707ccefd099ac5d,62c53a495eca7ef05354f5ed,2022-07-06_09h34.42.929,Colour_Asymmetry_Pilot,2022.1.3,Win32,59.84440455,62c50e9c1127f2cd403a315f,,,,,,,,,,,,,,,,,,,,,,,,,,,,,,,,,,,,,,,,,,,,,,,,,,,,,,,,,,,,,,,,,,,,,,,,,,,,,,,,,,,,,,,,,,,,,,,,,,,,,,,,,,,,,,,,,,,,,,,,,,,,,,,,,,,,,,,,,,,,,,,,,,,,,,,,,,,,,,,,,,
0,55,55,79,1,,616ade6a0707ccefd099ac5d,62c53a495eca7ef05354f5ed,2022-07-06_09h34.42.929,Colour_Asymmetry_Pilot,2022.1.3,Win32,59.84440455,62c50e9c1127f2cd403a315f,,,,,,,,,,,,,,,,,,,,,,,,,,,,,,,,,,,,,,,,,,,,,,,,,,,,,,,,,,,,,,,,,,,,,,,,,,,,,,,,,,,,,,,,,,,,,,,,,,,,,,,,,,,,,,,,,,,,,,,,,,,,,,,,,,,,,,,,,,,,,,,,,,,,,,,,,,,,,,,,,,
0,56,56,1,1,,616ade6a0707ccefd099ac5d,62c53a495eca7ef05354f5ed,2022-07-06_09h34.42.929,Colour_Asymmetry_Pilot,2022.1.3,Win32,59.84440455,62c50e9c1127f2cd403a315f,,,,,,,,,,,,,,,,,,,,,,,,,,,,,,,,,,,,,,,,,,,,,,,,,,,,,,,,,,,,,,,,,,,,,,,,,,,,,,,,,,,,,,,,,,,,,,,,,,,,,,,,,,,,,,,,,,,,,,,,,,,,,,,,,,,,,,,,,,,,,,,,,,,,,,,,,,,,,,,,,,
0,57,57,70,1,,616ade6a0707ccefd099ac5d,62c53a495eca7ef05354f5ed,2022-07-06_09h34.42.929,Colour_Asymmetry_Pilot,2022.1.3,Win32,59.84440455,62c50e9c1127f2cd403a315f,,,,,,,,,,,,,,,,,,,,,,,,,,,,,,,,,,,,,,,,,,,,,,,,,,,,,,,,,,,,,,,,,,,,,,,,,,,,,,,,,,,,,,,,,,,,,,,,,,,,,,,,,,,,,,,,,,,,,,,,,,,,,,,,,,,,,,,,,,,,,,,,,,,,,,,,,,,,,,,,,,
0,58,58,62,1,,616ade6a0707ccefd099ac5d,62c53a495eca7ef05354f5ed,2022-07-06_09h34.42.929,Colour_Asymmetry_Pilot,2022.1.3,Win32,59.84440455,62c50e9c1127f2cd403a315f,,,,,,,,,,,,,,,,,,,,,,,,,,,,,,,,,,,,,,,,,,,,,,,,,,,,,,,,,,,,,,,,,,,,,,,,,,,,,,,,,,,,,,,,,,,,,,,,,,,,,,,,,,,,,,,,,,,,,,,,,,,,,,,,,,,,,,,,,,,,,,,,,,,,,,,,,,,,,,,,,,
0,59,59,83,1,,616ade6a0707ccefd099ac5d,62c53a495eca7ef05354f5ed,2022-07-06_09h34.42.929,Colour_Asymmetry_Pilot,2022.1.3,Win32,59.84440455,62c50e9c1127f2cd403a315f,,,,,,,,,,,,,,,,,,,,,,,,,,,,,,,,,,,,,,,,,,,,,,,,,,,,,,,,,,,,,,,,,,,,,,,,,,,,,,,,,,,,,,,,,,,,,,,,,,,,,,,,,,,,,,,,,,,,,,,,,,,,,,,,,,,,,,,,,,,,,,,,,,,,,,,,,,,,,,,,,,
0,60,60,24,1,,616ade6a0707ccefd099ac5d,62c53a495eca7ef05354f5ed,2022-07-06_09h34.42.929,Colour_Asymmetry_Pilot,2022.1.3,Win32,59.84440455,62c50e9c1127f2cd403a315f,,,,,,,,,,,,,,,,,,,,,,,,,,,,,,,,,,,,,,,,,,,,,,,,,,,,,,,,,,,,,,,,,,,,,,,,,,,,,,,,,,,,,,,,,,,,,,,,,,,,,,,,,,,,,,,,,,,,,,,,,,,,,,,,,,,,,,,,,,,,,,,,,,,,,,,,,,,,,,,,,,
0,61,61,68,1,,616ade6a0707ccefd099ac5d,62c53a495eca7ef05354f5ed,2022-07-06_09h34.42.929,Colour_Asymmetry_Pilot,2022.1.3,Win32,59.84440455,62c50e9c1127f2cd403a315f,,,,,,,,,,,,,,,,,,,,,,,,,,,,,,,,,,,,,,,,,,,,,,,,,,,,,,,,,,,,,,,,,,,,,,,,,,,,,,,,,,,,,,,,,,,,,,,,,,,,,,,,,,,,,,,,,,,,,,,,,,,,,,,,,,,,,,,,,,,,,,,,,,,,,,,,,,,,,,,,,,
0,62,62,8,1,,616ade6a0707ccefd099ac5d,62c53a495eca7ef05354f5ed,2022-07-06_09h34.42.929,Colour_Asymmetry_Pilot,2022.1.3,Win32,59.84440455,62c50e9c1127f2cd403a315f,,,,,,,,,,,,,,,,,,,,,,,,,,,,,,,,,,,,,,,,,,,,,,,,,,,,,,,,,,,,,,,,,,,,,,,,,,,,,,,,,,,,,,,,,,,,,,,,,,,,,,,,,,,,,,,,,,,,,,,,,,,,,,,,,,,,,,,,,,,,,,,,,,,,,,,,,,,,,,,,,,
0,63,63,45,1,,616ade6a0707ccefd099ac5d,62c53a495eca7ef05354f5ed,2022-07-06_09h34.42.929,Colour_Asymmetry_Pilot,2022.1.3,Win32,59.84440455,62c50e9c1127f2cd403a315f,,,,,,,,,,,,,,,,,,,,,,,,,,,,,,,,,,,,,,,,,,,,,,,,,,,,,,,,,,,,,,,,,,,,,,,,,,,,,,,,,,,,,,,,,,,,,,,,,,,,,,,,,,,,,,,,,,,,,,,,,,,,,,,,,,,,,,,,,,,,,,,,,,,,,,,,,,,,,,,,,,
0,64,64,50,1,,616ade6a0707ccefd099ac5d,62c53a495eca7ef05354f5ed,2022-07-06_09h34.42.929,Colour_Asymmetry_Pilot,2022.1.3,Win32,59.84440455,62c50e9c1127f2cd403a315f,,,,,,,,,,,,,,,,,,,,,,,,,,,,,,,,,,,,,,,,,,,,,,,,,,,,,,,,,,,,,,,,,,,,,,,,,,,,,,,,,,,,,,,,,,,,,,,,,,,,,,,,,,,,,,,,,,,,,,,,,,,,,,,,,,,,,,,,,,,,,,,,,,,,,,,,,,,,,,,,,,
0,65,65,33,1,,616ade6a0707ccefd099ac5d,62c53a495eca7ef05354f5ed,2022-07-06_09h34.42.929,Colour_Asymmetry_Pilot,2022.1.3,Win32,59.84440455,62c50e9c1127f2cd403a315f,,,,,,,,,,,,,,,,,,,,,,,,,,,,,,,,,,,,,,,,,,,,,,,,,,,,,,,,,,,,,,,,,,,,,,,,,,,,,,,,,,,,,,,,,,,,,,,,,,,,,,,,,,,,,,,,,,,,,,,,,,,,,,,,,,,,,,,,,,,,,,,,,,,,,,,,,,,,,,,,,,
0,66,66,53,1,,616ade6a0707ccefd099ac5d,62c53a495eca7ef05354f5ed,2022-07-06_09h34.42.929,Colour_Asymmetry_Pilot,2022.1.3,Win32,59.84440455,62c50e9c1127f2cd403a315f,,,,,,,,,,,,,,,,,,,,,,,,,,,,,,,,,,,,,,,,,,,,,,,,,,,,,,,,,,,,,,,,,,,,,,,,,,,,,,,,,,,,,,,,,,,,,,,,,,,,,,,,,,,,,,,,,,,,,,,,,,,,,,,,,,,,,,,,,,,,,,,,,,,,,,,,,,,,,,,,,,
0,67,67,92,1,,616ade6a0707ccefd099ac5d,62c53a495eca7ef05354f5ed,2022-07-06_09h34.42.929,Colour_Asymmetry_Pilot,2022.1.3,Win32,59.84440455,62c50e9c1127f2cd403a315f,,,,,,,,,,,,,,,,,,,,,,,,,,,,,,,,,,,,,,,,,,,,,,,,,,,,,,,,,,,,,,,,,,,,,,,,,,,,,,,,,,,,,,,,,,,,,,,,,,,,,,,,,,,,,,,,,,,,,,,,,,,,,,,,,,,,,,,,,,,,,,,,,,,,,,,,,,,,,,,,,,
0,68,68,2,1,,616ade6a0707ccefd099ac5d,62c53a495eca7ef05354f5ed,2022-07-06_09h34.42.929,Colour_Asymmetry_Pilot,2022.1.3,Win32,59.84440455,62c50e9c1127f2cd403a315f,,,,,,,,,,,,,,,,,,,,,,,,,,,,,,,,,,,,,,,,,,,,,,,,,,,,,,,,,,,,,,,,,,,,,,,,,,,,,,,,,,,,,,,,,,,,,,,,,,,,,,,,,,,,,,,,,,,,,,,,,,,,,,,,,,,,,,,,,,,,,,,,,,,,,,,,,,,,,,,,,,
0,69,69,11,1,,616ade6a0707ccefd099ac5d,62c53a495eca7ef05354f5ed,2022-07-06_09h34.42.929,Colour_Asymmetry_Pilot,2022.1.3,Win32,59.84440455,62c50e9c1127f2cd403a315f,,,,,,,,,,,,,,,,,,,,,,,,,,,,,,,,,,,,,,,,,,,,,,,,,,,,,,,,,,,,,,,,,,,,,,,,,,,,,,,,,,,,,,,,,,,,,,,,,,,,,,,,,,,,,,,,,,,,,,,,,,,,,,,,,,,,,,,,,,,,,,,,,,,,,,,,,,,,,,,,,,
0,70,70,12,1,,616ade6a0707ccefd099ac5d,62c53a495eca7ef05354f5ed,2022-07-06_09h34.42.929,Colour_Asymmetry_Pilot,2022.1.3,Win32,59.84440455,62c50e9c1127f2cd403a315f,,,,,,,,,,,,,,,,,,,,,,,,,,,,,,,,,,,,,,,,,,,,,,,,,,,,,,,,,,,,,,,,,,,,,,,,,,,,,,,,,,,,,,,,,,,,,,,,,,,,,,,,,,,,,,,,,,,,,,,,,,,,,,,,,,,,,,,,,,,,,,,,,,,,,,,,,,,,,,,,,,
0,71,71,60,1,,616ade6a0707ccefd099ac5d,62c53a495eca7ef05354f5ed,2022-07-06_09h34.42.929,Colour_Asymmetry_Pilot,2022.1.3,Win32,59.84440455,62c50e9c1127f2cd403a315f,,,,,,,,,,,,,,,,,,,,,,,,,,,,,,,,,,,,,,,,,,,,,,,,,,,,,,,,,,,,,,,,,,,,,,,,,,,,,,,,,,,,,,,,,,,,,,,,,,,,,,,,,,,,,,,,,,,,,,,,,,,,,,,,,,,,,,,,,,,,,,,,,,,,,,,,,,,,,,,,,,
0,72,72,64,1,,616ade6a0707ccefd099ac5d,62c53a495eca7ef05354f5ed,2022-07-06_09h34.42.929,Colour_Asymmetry_Pilot,2022.1.3,Win32,59.84440455,62c50e9c1127f2cd403a315f,,,,,,,,,,,,,,,,,,,,,,,,,,,,,,,,,,,,,,,,,,,,,,,,,,,,,,,,,,,,,,,,,,,,,,,,,,,,,,,,,,,,,,,,,,,,,,,,,,,,,,,,,,,,,,,,,,,,,,,,,,,,,,,,,,,,,,,,,,,,,,,,,,,,,,,,,,,,,,,,,,
0,73,73,34,1,,616ade6a0707ccefd099ac5d,62c53a495eca7ef05354f5ed,2022-07-06_09h34.42.929,Colour_Asymmetry_Pilot,2022.1.3,Win32,59.84440455,62c50e9c1127f2cd403a315f,,,,,,,,,,,,,,,,,,,,,,,,,,,,,,,,,,,,,,,,,,,,,,,,,,,,,,,,,,,,,,,,,,,,,,,,,,,,,,,,,,,,,,,,,,,,,,,,,,,,,,,,,,,,,,,,,,,,,,,,,,,,,,,,,,,,,,,,,,,,,,,,,,,,,,,,,,,,,,,,,,
0,74,74,82,1,,616ade6a0707ccefd099ac5d,62c53a495eca7ef05354f5ed,2022-07-06_09h34.42.929,Colour_Asymmetry_Pilot,2022.1.3,Win32,59.84440455,62c50e9c1127f2cd403a315f,,,,,,,,,,,,,,,,,,,,,,,,,,,,,,,,,,,,,,,,,,,,,,,,,,,,,,,,,,,,,,,,,,,,,,,,,,,,,,,,,,,,,,,,,,,,,,,,,,,,,,,,,,,,,,,,,,,,,,,,,,,,,,,,,,,,,,,,,,,,,,,,,,,,,,,,,,,,,,,,,,
0,75,75,25,1,,616ade6a0707ccefd099ac5d,62c53a495eca7ef05354f5ed,2022-07-06_09h34.42.929,Colour_Asymmetry_Pilot,2022.1.3,Win32,59.84440455,62c50e9c1127f2cd403a315f,,,,,,,,,,,,,,,,,,,,,,,,,,,,,,,,,,,,,,,,,,,,,,,,,,,,,,,,,,,,,,,,,,,,,,,,,,,,,,,,,,,,,,,,,,,,,,,,,,,,,,,,,,,,,,,,,,,,,,,,,,,,,,,,,,,,,,,,,,,,,,,,,,,,,,,,,,,,,,,,,,
0,76,76,16,1,,616ade6a0707ccefd099ac5d,62c53a495eca7ef05354f5ed,2022-07-06_09h34.42.929,Colour_Asymmetry_Pilot,2022.1.3,Win32,59.84440455,62c50e9c1127f2cd403a315f,,,,,,,,,,,,,,,,,,,,,,,,,,,,,,,,,,,,,,,,,,,,,,,,,,,,,,,,,,,,,,,,,,,,,,,,,,,,,,,,,,,,,,,,,,,,,,,,,,,,,,,,,,,,,,,,,,,,,,,,,,,,,,,,,,,,,,,,,,,,,,,,,,,,,,,,,,,,,,,,,,
0,77,77,72,1,,616ade6a0707ccefd099ac5d,62c53a495eca7ef05354f5ed,2022-07-06_09h34.42.929,Colour_Asymmetry_Pilot,2022.1.3,Win32,59.84440455,62c50e9c1127f2cd403a315f,,,,,,,,,,,,,,,,,,,,,,,,,,,,,,,,,,,,,,,,,,,,,,,,,,,,,,,,,,,,,,,,,,,,,,,,,,,,,,,,,,,,,,,,,,,,,,,,,,,,,,,,,,,,,,,,,,,,,,,,,,,,,,,,,,,,,,,,,,,,,,,,,,,,,,,,,,,,,,,,,,
0,78,78,63,1,,616ade6a0707ccefd099ac5d,62c53a495eca7ef05354f5ed,2022-07-06_09h34.42.929,Colour_Asymmetry_Pilot,2022.1.3,Win32,59.84440455,62c50e9c1127f2cd403a315f,,,,,,,,,,,,,,,,,,,,,,,,,,,,,,,,,,,,,,,,,,,,,,,,,,,,,,,,,,,,,,,,,,,,,,,,,,,,,,,,,,,,,,,,,,,,,,,,,,,,,,,,,,,,,,,,,,,,,,,,,,,,,,,,,,,,,,,,,,,,,,,,,,,,,,,,,,,,,,,,,,
0,79,79,91,1,,616ade6a0707ccefd099ac5d,62c53a495eca7ef05354f5ed,2022-07-06_09h34.42.929,Colour_Asymmetry_Pilot,2022.1.3,Win32,59.84440455,62c50e9c1127f2cd403a315f,,,,,,,,,,,,,,,,,,,,,,,,,,,,,,,,,,,,,,,,,,,,,,,,,,,,,,,,,,,,,,,,,,,,,,,,,,,,,,,,,,,,,,,,,,,,,,,,,,,,,,,,,,,,,,,,,,,,,,,,,,,,,,,,,,,,,,,,,,,,,,,,,,,,,,,,,,,,,,,,,,
0,80,80,77,1,,616ade6a0707ccefd099ac5d,62c53a495eca7ef05354f5ed,2022-07-06_09h34.42.929,Colour_Asymmetry_Pilot,2022.1.3,Win32,59.84440455,62c50e9c1127f2cd403a315f,,,,,,,,,,,,,,,,,,,,,,,,,,,,,,,,,,,,,,,,,,,,,,,,,,,,,,,,,,,,,,,,,,,,,,,,,,,,,,,,,,,,,,,,,,,,,,,,,,,,,,,,,,,,,,,,,,,,,,,,,,,,,,,,,,,,,,,,,,,,,,,,,,,,,,,,,,,,,,,,,,
0,81,81,86,1,,616ade6a0707ccefd099ac5d,62c53a495eca7ef05354f5ed,2022-07-06_09h34.42.929,Colour_Asymmetry_Pilot,2022.1.3,Win32,59.84440455,62c50e9c1127f2cd403a315f,,,,,,,,,,,,,,,,,,,,,,,,,,,,,,,,,,,,,,,,,,,,,,,,,,,,,,,,,,,,,,,,,,,,,,,,,,,,,,,,,,,,,,,,,,,,,,,,,,,,,,,,,,,,,,,,,,,,,,,,,,,,,,,,,,,,,,,,,,,,,,,,,,,,,,,,,,,,,,,,,,
0,82,82,38,1,,616ade6a0707ccefd099ac5d,62c53a495eca7ef05354f5ed,2022-07-06_09h34.42.929,Colour_Asymmetry_Pilot,2022.1.3,Win32,59.84440455,62c50e9c1127f2cd403a315f,,,,,,,,,,,,,,,,,,,,,,,,,,,,,,,,,,,,,,,,,,,,,,,,,,,,,,,,,,,,,,,,,,,,,,,,,,,,,,,,,,,,,,,,,,,,,,,,,,,,,,,,,,,,,,,,,,,,,,,,,,,,,,,,,,,,,,,,,,,,,,,,,,,,,,,,,,,,,,,,,,
0,83,83,36,1,,616ade6a0707ccefd099ac5d,62c53a495eca7ef05354f5ed,2022-07-06_09h34.42.929,Colour_Asymmetry_Pilot,2022.1.3,Win32,59.84440455,62c50e9c1127f2cd403a315f,,,,,,,,,,,,,,,,,,,,,,,,,,,,,,,,,,,,,,,,,,,,,,,,,,,,,,,,,,,,,,,,,,,,,,,,,,,,,,,,,,,,,,,,,,,,,,,,,,,,,,,,,,,,,,,,,,,,,,,,,,,,,,,,,,,,,,,,,,,,,,,,,,,,,,,,,,,,,,,,,,
0,84,84,85,1,,616ade6a0707ccefd099ac5d,62c53a495eca7ef05354f5ed,2022-07-06_09h34.42.929,Colour_Asymmetry_Pilot,2022.1.3,Win32,59.84440455,62c50e9c1127f2cd403a315f,,,,,,,,,,,,,,,,,,,,,,,,,,,,,,,,,,,,,,,,,,,,,,,,,,,,,,,,,,,,,,,,,,,,,,,,,,,,,,,,,,,,,,,,,,,,,,,,,,,,,,,,,,,,,,,,,,,,,,,,,,,,,,,,,,,,,,,,,,,,,,,,,,,,,,,,,,,,,,,,,,
0,85,85,30,1,,616ade6a0707ccefd099ac5d,62c53a495eca7ef05354f5ed,2022-07-06_09h34.42.929,Colour_Asymmetry_Pilot,2022.1.3,Win32,59.84440455,62c50e9c1127f2cd403a315f,,,,,,,,,,,,,,,,,,,,,,,,,,,,,,,,,,,,,,,,,,,,,,,,,,,,,,,,,,,,,,,,,,,,,,,,,,,,,,,,,,,,,,,,,,,,,,,,,,,,,,,,,,,,,,,,,,,,,,,,,,,,,,,,,,,,,,,,,,,,,,,,,,,,,,,,,,,,,,,,,,
0,86,86,47,1,,616ade6a0707ccefd099ac5d,62c53a495eca7ef05354f5ed,2022-07-06_09h34.42.929,Colour_Asymmetry_Pilot,2022.1.3,Win32,59.84440455,62c50e9c1127f2cd403a315f,,,,,,,,,,,,,,,,,,,,,,,,,,,,,,,,,,,,,,,,,,,,,,,,,,,,,,,,,,,,,,,,,,,,,,,,,,,,,,,,,,,,,,,,,,,,,,,,,,,,,,,,,,,,,,,,,,,,,,,,,,,,,,,,,,,,,,,,,,,,,,,,,,,,,,,,,,,,,,,,,,
0,87,87,80,1,,616ade6a0707ccefd099ac5d,62c53a495eca7ef05354f5ed,2022-07-06_09h34.42.929,Colour_Asymmetry_Pilot,2022.1.3,Win32,59.84440455,62c50e9c1127f2cd403a315f,,,,,,,,,,,,,,,,,,,,,,,,,,,,,,,,,,,,,,,,,,,,,,,,,,,,,,,,,,,,,,,,,,,,,,,,,,,,,,,,,,,,,,,,,,,,,,,,,,,,,,,,,,,,,,,,,,,,,,,,,,,,,,,,,,,,,,,,,,,,,,,,,,,,,,,,,,,,,,,,,,
0,88,88,3,1,,616ade6a0707ccefd099ac5d,62c53a495eca7ef05354f5ed,2022-07-06_09h34.42.929,Colour_Asymmetry_Pilot,2022.1.3,Win32,59.84440455,62c50e9c1127f2cd403a315f,,,,,,,,,,,,,,,,,,,,,,,,,,,,,,,,,,,,,,,,,,,,,,,,,,,,,,,,,,,,,,,,,,,,,,,,,,,,,,,,,,,,,,,,,,,,,,,,,,,,,,,,,,,,,,,,,,,,,,,,,,,,,,,,,,,,,,,,,,,,,,,,,,,,,,,,,,,,,,,,,,
0,89,89,46,1,,616ade6a0707ccefd099ac5d,62c53a495eca7ef05354f5ed,2022-07-06_09h34.42.929,Colour_Asymmetry_Pilot,2022.1.3,Win32,59.84440455,62c50e9c1127f2cd403a315f,,,,,,,,,,,,,,,,,,,,,,,,,,,,,,,,,,,,,,,,,,,,,,,,,,,,,,,,,,,,,,,,,,,,,,,,,,,,,,,,,,,,,,,,,,,,,,,,,,,,,,,,,,,,,,,,,,,,,,,,,,,,,,,,,,,,,,,,,,,,,,,,,,,,,,,,,,,,,,,,,,
0,90,90,52,1,,616ade6a0707ccefd099ac5d,62c53a495eca7ef05354f5ed,2022-07-06_09h34.42.929,Colour_Asymmetry_Pilot,2022.1.3,Win32,59.84440455,62c50e9c1127f2cd403a315f,,,,,,,,,,,,,,,,,,,,,,,,,,,,,,,,,,,,,,,,,,,,,,,,,,,,,,,,,,,,,,,,,,,,,,,,,,,,,,,,,,,,,,,,,,,,,,,,,,,,,,,,,,,,,,,,,,,,,,,,,,,,,,,,,,,,,,,,,,,,,,,,,,,,,,,,,,,,,,,,,,
0,91,91,90,1,,616ade6a0707ccefd099ac5d,62c53a495eca7ef05354f5ed,2022-07-06_09h34.42.929,Colour_Asymmetry_Pilot,2022.1.3,Win32,59.84440455,62c50e9c1127f2cd403a315f,,,,,,,,,,,,,,,,,,,,,,,,,,,,,,,,,,,,,,,,,,,,,,,,,,,,,,,,,,,,,,,,,,,,,,,,,,,,,,,,,,,,,,,,,,,,,,,,,,,,,,,,,,,,,,,,,,,,,,,,,,,,,,,,,,,,,,,,,,,,,,,,,,,,,,,,,,,,,,,,,,
0,92,92,56,1,,616ade6a0707ccefd099ac5d,62c53a495eca7ef05354f5ed,2022-07-06_09h34.42.929,Colour_Asymmetry_Pilot,2022.1.3,Win32,59.84440455,62c50e9c1127f2cd403a315f,,,,,,,,,,,,,,,,,,,,,,,,,,,,,,,,,,,,,,,,,,,,,,,,,,,,,,,,,,,,,,,,,,,,,,,,,,,,,,,,,,,,,,,,,,,,,,,,,,,,,,,,,,,,,,,,,,,,,,,,,,,,,,,,,,,,,,,,,,,,,,,,,,,,,,,,,,,,,,,,,,
,,,,,,616ade6a0707ccefd099ac5d,62c53a495eca7ef05354f5ed,2022-07-06_09h34.42.929,Colour_Asymmetry_Pilot,2022.1.3,Win32,59.84440455,62c50e9c1127f2cd403a315f,0,0,0,79,1,fourthree,,,,,,,,,,,,,,,,,,,,,,,,,,,,,,,,,,,,,,,,,,,,,,,,,,,,,,,,,,,,,,,,,,,,,,,,,,,,,,,,,,,,,,,,,,,,,,,,,,,,,,,,,,,,,,,,,,,,,,,,,,,,,,,,,,,,,,,,,,,,,,,,,,,,,,,,,,,,
,,,,,,616ade6a0707ccefd099ac5d,62c53a495eca7ef05354f5ed,2022-07-06_09h34.42.929,Colour_Asymmetry_Pilot,2022.1.3,Win32,59.84440455,62c50e9c1127f2cd403a315f,0,1,1,159,1,fourthree,,,,,,,,,,,,,,,,,,,,,,,,,,,,,,,,,,,,,,,,,,,,,,,,,,,,,,,,,,,,,,,,,,,,,,,,,,,,,,,,,,,,,,,,,,,,,,,,,,,,,,,,,,,,,,,,,,,,,,,,,,,,,,,,,,,,,,,,,,,,,,,,,,,,,,,,,,,,
,,,,,,616ade6a0707ccefd099ac5d,62c53a495eca7ef05354f5ed,2022-07-06_09h34.42.929,Colour_Asymmetry_Pilot,2022.1.3,Win32,59.84440455,62c50e9c1127f2cd403a315f,0,2,2,138,1,twoone,,,,,,,,,,,,,,,,,,,,,,,,,,,,,,,,,,,,,,,,,,,,,,,,,,,,,,,,,,,,,,,,,,,,,,,,,,,,,,,,,,,,,,,,,,,,,,,,,,,,,,,,,,,,,,,,,,,,,,,,,,,,,,,,,,,,,,,,,,,,,,,,,,,,,,,,,,,,
,,,,,,616ade6a0707ccefd099ac5d,62c53a495eca7ef05354f5ed,2022-07-06_09h34.42.929,Colour_Asymmetry_Pilot,2022.1.3,Win32,59.84440455,62c50e9c1127f2cd403a315f,0,3,3,150,1,fourtwo,,,,,,,,,,,,,,,,,,,,,,,,,,,,,,,,,,,,,,,,,,,,,,,,,,,,,,,,,,,,,,,,,,,,,,,,,,,,,,,,,,,,,,,,,,,,,,,,,,,,,,,,,,,,,,,,,,,,,,,,,,,,,,,,,,,,,,,,,,,,,,,,,,,,,,,,,,,,
,,,,,,616ade6a0707ccefd099ac5d,62c53a495eca7ef05354f5ed,2022-07-06_09h34.42.929,Colour_Asymmetry_Pilot,2022.1.3,Win32,59.84440455,62c50e9c1127f2cd403a315f,0,4,4,86,1,fourtwo,,,,,,,,,,,,,,,,,,,,,,,,,,,,,,,,,,,,,,,,,,,,,,,,,,,,,,,,,,,,,,,,,,,,,,,,,,,,,,,,,,,,,,,,,,,,,,,,,,,,,,,,,,,,,,,,,,,,,,,,,,,,,,,,,,,,,,,,,,,,,,,,,,,,,,,,,,,,
,,,,,,616ade6a0707ccefd099ac5d,62c53a495eca7ef05354f5ed,2022-07-06_09h34.42.929,Colour_Asymmetry_Pilot,2022.1.3,Win32,59.84440455,62c50e9c1127f2cd403a315f,0,5,5,4,1,threeone,,,,,,,,,,,,,,,,,,,,,,,,,,,,,,,,,,,,,,,,,,,,,,,,,,,,,,,,,,,,,,,,,,,,,,,,,,,,,,,,,,,,,,,,,,,,,,,,,,,,,,,,,,,,,,,,,,,,,,,,,,,,,,,,,,,,,,,,,,,,,,,,,,,,,,,,,,,,
,,,,,,616ade6a0707ccefd099ac5d,62c53a495eca7ef05354f5ed,2022-07-06_09h34.42.929,Colour_Asymmetry_Pilot,2022.1.3,Win32,59.84440455,62c50e9c1127f2cd403a315f,0,6,6,132,1,threeone,,,,,,,,,,,,,,,,,,,,,,,,,,,,,,,,,,,,,,,,,,,,,,,,,,,,,,,,,,,,,,,,,,,,,,,,,,,,,,,,,,,,,,,,,,,,,,,,,,,,,,,,,,,,,,,,,,,,,,,,,,,,,,,,,,,,,,,,,,,,,,,,,,,,,,,,,,,,
,,,,,,616ade6a0707ccefd099ac5d,62c53a495eca7ef05354f5ed,2022-07-06_09h34.42.929,Colour_Asymmetry_Pilot,2022.1.3,Win32,59.84440455,62c50e9c1127f2cd403a315f,0,7,7,50,1,twoone,,,,,,,,,,,,,,,,,,,,,,,,,,,,,,,,,,,,,,,,,,,,,,,,,,,,,,,,,,,,,,,,,,,,,,,,,,,,,,,,,,,,,,,,,,,,,,,,,,,,,,,,,,,,,,,,,,,,,,,,,,,,,,,,,,,,,,,,,,,,,,,,,,,,,,,,,,,,
,,,,,,616ade6a0707ccefd099ac5d,62c53a495eca7ef05354f5ed,2022-07-06_09h34.42.929,Colour_Asymmetry_Pilot,2022.1.3,Win32,59.84440455,62c50e9c1127f2cd403a315f,0,8,8,14,1,fourtwo,,,,,,,,,,,,,,,,,,,,,,,,,,,,,,,,,,,,,,,,,,,,,,,,,,,,,,,,,,,,,,,,,,,,,,,,,,,,,,,,,,,,,,,,,,,,,,,,,,,,,,,,,,,,,,,,,,,,,,,,,,,,,,,,,,,,,,,,,,,,,,,,,,,,,,,,,,,,
,,,,,,616ade6a0707ccefd099ac5d,62c53a495eca7ef05354f5ed,2022-07-06_09h34.42.929,Colour_Asymmetry_Pilot,2022.1.3,Win32,59.84440455,62c50e9c1127f2cd403a315f,0,9,9,145,1,onethree,,,,,,,,,,,,,,,,,,,,,,,,,,,,,,,,,,,,,,,,,,,,,,,,,,,,,,,,,,,,,,,,,,,,,,,,,,,,,,,,,,,,,,,,,,,,,,,,,,,,,,,,,,,,,,,,,,,,,,,,,,,,,,,,,,,,,,,,,,,,,,,,,,,,,,,,,,,,
,,,,,,616ade6a0707ccefd099ac5d,62c53a495eca7ef05354f5ed,2022-07-06_09h34.42.929,Colour_Asymmetry_Pilot,2022.1.3,Win32,59.84440455,62c50e9c1127f2cd403a315f,0,10,10,39,1,fourthree,,,,,,,,,,,,,,,,,,,,,,,,,,,,,,,,,,,,,,,,,,,,,,,,,,,,,,,,,,,,,,,,,,,,,,,,,,,,,,,,,,,,,,,,,,,,,,,,,,,,,,,,,,,,,,,,,,,,,,,,,,,,,,,,,,,,,,,,,,,,,,,,,,,,,,,,,,,,
,,,,,,616ade6a0707ccefd099ac5d,62c53a495eca7ef05354f5ed,2022-07-06_09h34.42.929,Colour_Asymmetry_Pilot,2022.1.3,Win32,59.84440455,62c50e9c1127f2cd403a315f,0,11,11,51,1,twofour,,,,,,,,,,,,,,,,,,,,,,,,,,,,,,,,,,,,,,,,,,,,,,,,,,,,,,,,,,,,,,,,,,,,,,,,,,,,,,,,,,,,,,,,,,,,,,,,,,,,,,,,,,,,,,,,,,,,,,,,,,,,,,,,,,,,,,,,,,,,,,,,,,,,,,,,,,,,
,,,,,,616ade6a0707ccefd099ac5d,62c53a495eca7ef05354f5ed,2022-07-06_09h34.42.929,Colour_Asymmetry_Pilot,2022.1.3,Win32,59.84440455,62c50e9c1127f2cd403a315f,0,12,12,114,1,twoone,,,,,,,,,,,,,,,,,,,,,,,,,,,,,,,,,,,,,,,,,,,,,,,,,,,,,,,,,,,,,,,,,,,,,,,,,,,,,,,,,,,,,,,,,,,,,,,,,,,,,,,,,,,,,,,,,,,,,,,,,,,,,,,,,,,,,,,,,,,,,,,,,,,,,,,,,,,,
,,,,,,616ade6a0707ccefd099ac5d,62c53a495eca7ef05354f5ed,2022-07-06_09h34.42.929,Colour_Asymmetry_Pilot,2022.1.3,Win32,59.84440455,62c50e9c1127f2cd403a315f,0,13,13,135,1,fourthree,,,,,,,,,,,,,,,,,,,,,,,,,,,,,,,,,,,,,,,,,,,,,,,,,,,,,,,,,,,,,,,,,,,,,,,,,,,,,,,,,,,,,,,,,,,,,,,,,,,,,,,,,,,,,,,,,,,,,,,,,,,,,,,,,,,,,,,,,,,,,,,,,,,,,,,,,,,,
,,,,,,616ade6a0707ccefd099ac5d,62c53a495eca7ef05354f5ed,2022-07-06_09h34.42.929,Colour_Asymmetry_Pilot,2022.1.3,Win32,59.84440455,62c50e9c1127f2cd403a315f,0,14,14,64,1,onetwo,,,,,,,,,,,,,,,,,,,,,,,,,,,,,,,,,,,,,,,,,,,,,,,,,,,,,,,,,,,,,,,,,,,,,,,,,,,,,,,,,,,,,,,,,,,,,,,,,,,,,,,,,,,,,,,,,,,,,,,,,,,,,,,,,,,,,,,,,,,,,,,,,,,,,,,,,,,,
,,,,,,616ade6a0707ccefd099ac5d,62c53a495eca7ef05354f5ed,2022-07-06_09h34.42.929,Colour_Asymmetry_Pilot,2022.1.3,Win32,59.84440455,62c50e9c1127f2cd403a315f,0,15,15,38,1,fourtwo,,,,,,,,,,,,,,,,,,,,,,,,,,,,,,,,,,,,,,,,,,,,,,,,,,,,,,,,,,,,,,,,,,,,,,,,,,,,,,,,,,,,,,,,,,,,,,,,,,,,,,,,,,,,,,,,,,,,,,,,,,,,,,,,,,,,,,,,,,,,,,,,,,,,,,,,,,,,
,,,,,,616ade6a0707ccefd099ac5d,62c53a495eca7ef05354f5ed,2022-07-06_09h34.42.929,Colour_Asymmetry_Pilot,2022.1.3,Win32,59.84440455,62c50e9c1127f2cd403a315f,0,16,16,95,1,fourthree,,,,,,,,,,,,,,,,,,,,,,,,,,,,,,,,,,,,,,,,,,,,,,,,,,,,,,,,,,,,,,,,,,,,,,,,,,,,,,,,,,,,,,,,,,,,,,,,,,,,,,,,,,,,,,,,,,,,,,,,,,,,,,,,,,,,,,,,,,,,,,,,,,,,,,,,,,,,
,,,,,,616ade6a0707ccefd099ac5d,62c53a495eca7ef05354f5ed,2022-07-06_09h34.42.929,Colour_Asymmetry_Pilot,2022.1.3,Win32,59.84440455,62c50e9c1127f2cd403a315f,0,17,17,81,1,onethree,,,,,,,,,,,,,,,,,,,,,,,,,,,,,,,,,,,,,,,,,,,,,,,,,,,,,,,,,,,,,,,,,,,,,,,,,,,,,,,,,,,,,,,,,,,,,,,,,,,,,,,,,,,,,,,,,,,,,,,,,,,,,,,,,,,,,,,,,,,,,,,,,,,,,,,,,,,,
,,,,,,616ade6a0707ccefd099ac5d,62c53a495eca7ef05354f5ed,2022-07-06_09h34.42.929,Colour_Asymmetry_Pilot,2022.1.3,Win32,59.84440455,62c50e9c1127f2cd403a315f,0,18,18,105,1,onethree,,,,,,,,,,,,,,,,,,,,,,,,,,,,,,,,,,,,,,,,,,,,,,,,,,,,,,,,,,,,,,,,,,,,,,,,,,,,,,,,,,,,,,,,,,,,,,,,,,,,,,,,,,,,,,,,,,,,,,,,,,,,,,,,,,,,,,,,,,,,,,,,,,,,,,,,,,,,
,,,,,,616ade6a0707ccefd099ac5d,62c53a495eca7ef05354f5ed,2022-07-06_09h34.42.929,Colour_Asymmetry_Pilot,2022.1.3,Win32,59.84440455,62c50e9c1127f2cd403a315f,0,19,19,126,1,fourtwo,,,,,,,,,,,,,,,,,,,,,,,,,,,,,,,,,,,,,,,,,,,,,,,,,,,,,,,,,,,,,,,,,,,,,,,,,,,,,,,,,,,,,,,,,,,,,,,,,,,,,,,,,,,,,,,,,,,,,,,,,,,,,,,,,,,,,,,,,,,,,,,,,,,,,,,,,,,,
,,,,,,616ade6a0707ccefd099ac5d,62c53a495eca7ef05354f5ed,2022-07-06_09h34.42.929,Colour_Asymmetry_Pilot,2022.1.3,Win32,59.84440455,62c50e9c1127f2cd403a315f,0,20,20,58,1,twoone,,,,,,,,,,,,,,,,,,,,,,,,,,,,,,,,,,,,,,,,,,,,,,,,,,,,,,,,,,,,,,,,,,,,,,,,,,,,,,,,,,,,,,,,,,,,,,,,,,,,,,,,,,,,,,,,,,,,,,,,,,,,,,,,,,,,,,,,,,,,,,,,,,,,,,,,,,,,
,,,,,,616ade6a0707ccefd099ac5d,62c53a495eca7ef05354f5ed,2022-07-06_09h34.42.929,Colour_Asymmetry_Pilot,2022.1.3,Win32,59.84440455,62c50e9c1127f2cd403a315f,0,21,21,16,1,onetwo,,,,,,,,,,,,,,,,,,,,,,,,,,,,,,,,,,,,,,,,,,,,,,,,,,,,,,,,,,,,,,,,,,,,,,,,,,,,,,,,,,,,,,,,,,,,,,,,,,,,,,,,,,,,,,,,,,,,,,,,,,,,,,,,,,,,,,,,,,,,,,,,,,,,,,,,,,,,
,,,,,,616ade6a0707ccefd099ac5d,62c53a495eca7ef05354f5ed,2022-07-06_09h34.42.929,Colour_Asymmetry_Pilot,2022.1.3,Win32,59.84440455,62c50e9c1127f2cd403a315f,0,22,22,42,1,twoone,,,,,,,,,,,,,,,,,,,,,,,,,,,,,,,,,,,,,,,,,,,,,,,,,,,,,,,,,,,,,,,,,,,,,,,,,,,,,,,,,,,,,,,,,,,,,,,,,,,,,,,,,,,,,,,,,,,,,,,,,,,,,,,,,,,,,,,,,,,,,,,,,,,,,,,,,,,,
,,,,,,616ade6a0707ccefd099ac5d,62c53a495eca7ef05354f5ed,2022-07-06_09h34.42.929,Colour_Asymmetry_Pilot,2022.1.3,Win32,59.84440455,62c50e9c1127f2cd403a315f,0,23,23,75,1,twofour,,,,,,,,,,,,,,,,,,,,,,,,,,,,,,,,,,,,,,,,,,,,,,,,,,,,,,,,,,,,,,,,,,,,,,,,,,,,,,,,,,,,,,,,,,,,,,,,,,,,,,,,,,,,,,,,,,,,,,,,,,,,,,,,,,,,,,,,,,,,,,,,,,,,,,,,,,,,
,,,,,,616ade6a0707ccefd099ac5d,62c53a495eca7ef05354f5ed,2022-07-06_09h34.42.929,Colour_Asymmetry_Pilot,2022.1.3,Win32,59.84440455,62c50e9c1127f2cd403a315f,0,24,24,18,1,twoone,,,,,,,,,,,,,,,,,,,,,,,,,,,,,,,,,,,,,,,,,,,,,,,,,,,,,,,,,,,,,,,,,,,,,,,,,,,,,,,,,,,,,,,,,,,,,,,,,,,,,,,,,,,,,,,,,,,,,,,,,,,,,,,,,,,,,,,,,,,,,,,,,,,,,,,,,,,,
,,,,,,616ade6a0707ccefd099ac5d,62c53a495eca7ef05354f5ed,2022-07-06_09h34.42.929,Colour_Asymmetry_Pilot,2022.1.3,Win32,59.84440455,62c50e9c1127f2cd403a315f,0,25,25,153,1,onethree,,,,,,,,,,,,,,,,,,,,,,,,,,,,,,,,,,,,,,,,,,,,,,,,,,,,,,,,,,,,,,,,,,,,,,,,,,,,,,,,,,,,,,,,,,,,,,,,,,,,,,,,,,,,,,,,,,,,,,,,,,,,,,,,,,,,,,,,,,,,,,,,,,,,,,,,,,,,
,,,,,,616ade6a0707ccefd099ac5d,62c53a495eca7ef05354f5ed,2022-07-06_09h34.42.929,Colour_Asymmetry_Pilot,2022.1.3,Win32,59.84440455,62c50e9c1127f2cd403a315f,0,26,26,73,1,onethree,,,,,,,,,,,,,,,,,,,,,,,,,,,,,,,,,,,,,,,,,,,,,,,,,,,,,,,,,,,,,,,,,,,,,,,,,,,,,,,,,,,,,,,,,,,,,,,,,,,,,,,,,,,,,,,,,,,,,,,,,,,,,,,,,,,,,,,,,,,,,,,,,,,,,,,,,,,,
,,,,,,616ade6a0707ccefd099ac5d,62c53a495eca7ef05354f5ed,2022-07-06_09h34.42.929,Colour_Asymmetry_Pilot,2022.1.3,Win32,59.84440455,62c50e9c1127f2cd403a315f,0,27,27,88,1,onetwo,,,,,,,,,,,,,,,,,,,,,,,,,,,,,,,,,,,,,,,,,,,,,,,,,,,,,,,,,,,,,,,,,,,,,,,,,,,,,,,,,,,,,,,,,,,,,,,,,,,,,,,,,,,,,,,,,,,,,,,,,,,,,,,,,,,,,,,,,,,,,,,,,,,,,,,,,,,,
,,,,,,616ade6a0707ccefd099ac5d,62c53a495eca7ef05354f5ed,2022-07-06_09h34.42.929,Colour_Asymmetry_Pilot,2022.1.3,Win32,59.84440455,62c50e9c1127f2cd403a315f,0,28,28,13,1,threefour,,,,,,,,,,,,,,,,,,,,,,,,,,,,,,,,,,,,,,,,,,,,,,,,,,,,,,,,,,,,,,,,,,,,,,,,,,,,,,,,,,,,,,,,,,,,,,,,,,,,,,,,,,,,,,,,,,,,,,,,,,,,,,,,,,,,,,,,,,,,,,,,,,,,,,,,,,,,
,,,,,,616ade6a0707ccefd099ac5d,62c53a495eca7ef05354f5ed,2022-07-06_09h34.42.929,Colour_Asymmetry_Pilot,2022.1.3,Win32,59.84440455,62c50e9c1127f2cd403a315f,0,29,29,54,1,fourtwo,,,,,,,,,,,,,,,,,,,,,,,,,,,,,,,,,,,,,,,,,,,,,,,,,,,,,,,,,,,,,,,,,,,,,,,,,,,,,,,,,,,,,,,,,,,,,,,,,,,,,,,,,,,,,,,,,,,,,,,,,,,,,,,,,,,,,,,,,,,,,,,,,,,,,,,,,,,,
,,,,,,616ade6a0707ccefd099ac5d,62c53a495eca7ef05354f5ed,2022-07-06_09h34.42.929,Colour_Asymmetry_Pilot,2022.1.3,Win32,59.84440455,62c50e9c1127f2cd403a315f,0,30,30,28,1,threeone,,,,,,,,,,,,,,,,,,,,,,,,,,,,,,,,,,,,,,,,,,,,,,,,,,,,,,,,,,,,,,,,,,,,,,,,,,,,,,,,,,,,,,,,,,,,,,,,,,,,,,,,,,,,,,,,,,,,,,,,,,,,,,,,,,,,,,,,,,,,,,,,,,,,,,,,,,,,
,,,,,,616ade6a0707ccefd099ac5d,62c53a495eca7ef05354f5ed,2022-07-06_09h34.42.929,Colour_Asymmetry_Pilot,2022.1.3,Win32,59.84440455,62c50e9c1127f2cd403a315f,0,31,31,63,1,fourthree,,,,,,,,,,,,,,,,,,,,,,,,,,,,,,,,,,,,,,,,,,,,,,,,,,,,,,,,,,,,,,,,,,,,,,,,,,,,,,,,,,,,,,,,,,,,,,,,,,,,,,,,,,,,,,,,,,,,,,,,,,,,,,,,,,,,,,,,,,,,,,,,,,,,,,,,,,,,
,,,,,,616ade6a0707ccefd099ac5d,62c53a495eca7ef05354f5ed,2022-07-06_09h34.42.929,Colour_Asymmetry_Pilot,2022.1.3,Win32,59.84440455,62c50e9c1127f2cd403a315f,0,32,32,128,1,onetwo,,,,,,,,,,,,,,,,,,,,,,,,,,,,,,,,,,,,,,,,,,,,,,,,,,,,,,,,,,,,,,,,,,,,,,,,,,,,,,,,,,,,,,,,,,,,,,,,,,,,,,,,,,,,,,,,,,,,,,,,,,,,,,,,,,,,,,,,,,,,,,,,,,,,,,,,,,,,
,,,,,,616ade6a0707ccefd099ac5d,62c53a495eca7ef05354f5ed,2022-07-06_09h34.42.929,Colour_Asymmetry_Pilot,2022.1.3,Win32,59.84440455,62c50e9c1127f2cd403a315f,0,33,33,156,1,threeone,,,,,,,,,,,,,,,,,,,,,,,,,,,,,,,,,,,,,,,,,,,,,,,,,,,,,,,,,,,,,,,,,,,,,,,,,,,,,,,,,,,,,,,,,,,,,,,,,,,,,,,,,,,,,,,,,,,,,,,,,,,,,,,,,,,,,,,,,,,,,,,,,,,,,,,,,,,,
,,,,,,616ade6a0707ccefd099ac5d,62c53a495eca7ef05354f5ed,2022-07-06_09h34.42.929,Colour_Asymmetry_Pilot,2022.1.3,Win32,59.84440455,62c50e9c1127f2cd403a315f,0,34,34,67,1,twofour,,,,,,,,,,,,,,,,,,,,,,,,,,,,,,,,,,,,,,,,,,,,,,,,,,,,,,,,,,,,,,,,,,,,,,,,,,,,,,,,,,,,,,,,,,,,,,,,,,,,,,,,,,,,,,,,,,,,,,,,,,,,,,,,,,,,,,,,,,,,,,,,,,,,,,,,,,,,
,,,,,,616ade6a0707ccefd099ac5d,62c53a495eca7ef05354f5ed,2022-07-06_09h34.42.929,Colour_Asymmetry_Pilot,2022.1.3,Win32,59.84440455,62c50e9c1127f2cd403a315f,0,35,35,133,1,threefour,,,,,,,,,,,,,,,,,,,,,,,,,,,,,,,,,,,,,,,,,,,,,,,,,,,,,,,,,,,,,,,,,,,,,,,,,,,,,,,,,,,,,,,,,,,,,,,,,,,,,,,,,,,,,,,,,,,,,,,,,,,,,,,,,,,,,,,,,,,,,,,,,,,,,,,,,,,,
,,,,,,616ade6a0707ccefd099ac5d,62c53a495eca7ef05354f5ed,2022-07-06_09h34.42.929,Colour_Asymmetry_Pilot,2022.1.3,Win32,59.84440455,62c50e9c1127f2cd403a315f,0,36,36,97,1,onethree,,,,,,,,,,,,,,,,,,,,,,,,,,,,,,,,,,,,,,,,,,,,,,,,,,,,,,,,,,,,,,,,,,,,,,,,,,,,,,,,,,,,,,,,,,,,,,,,,,,,,,,,,,,,,,,,,,,,,,,,,,,,,,,,,,,,,,,,,,,,,,,,,,,,,,,,,,,,
,,,,,,616ade6a0707ccefd099ac5d,62c53a495eca7ef05354f5ed,2022-07-06_09h34.42.929,Colour_Asymmetry_Pilot,2022.1.3,Win32,59.84440455,62c50e9c1127f2cd403a315f,0,37,37,112,1,onetwo,,,,,,,,,,,,,,,,,,,,,,,,,,,,,,,,,,,,,,,,,,,,,,,,,,,,,,,,,,,,,,,,,,,,,,,,,,,,,,,,,,,,,,,,,,,,,,,,,,,,,,,,,,,,,,,,,,,,,,,,,,,,,,,,,,,,,,,,,,,,,,,,,,,,,,,,,,,,
,,,,,,616ade6a0707ccefd099ac5d,62c53a495eca7ef05354f5ed,2022-07-06_09h34.42.929,Colour_Asymmetry_Pilot,2022.1.3,Win32,59.84440455,62c50e9c1127f2cd403a315f,0,38,38,71,1,fourthree,,,,,,,,,,,,,,,,,,,,,,,,,,,,,,,,,,,,,,,,,,,,,,,,,,,,,,,,,,,,,,,,,,,,,,,,,,,,,,,,,,,,,,,,,,,,,,,,,,,,,,,,,,,,,,,,,,,,,,,,,,,,,,,,,,,,,,,,,,,,,,,,,,,,,,,,,,,,
,,,,,,616ade6a0707ccefd099ac5d,62c53a495eca7ef05354f5ed,2022-07-06_09h34.42.929,Colour_Asymmetry_Pilot,2022.1.3,Win32,59.84440455,62c50e9c1127f2cd403a315f,0,39,39,122,1,twoone,,,,,,,,,,,,,,,,,,,,,,,,,,,,,,,,,,,,,,,,,,,,,,,,,,,,,,,,,,,,,,,,,,,,,,,,,,,,,,,,,,,,,,,,,,,,,,,,,,,,,,,,,,,,,,,,,,,,,,,,,,,,,,,,,,,,,,,,,,,,,,,,,,,,,,,,,,,,
,,,,,,616ade6a0707ccefd099ac5d,62c53a495eca7ef05354f5ed,2022-07-06_09h34.42.929,Colour_Asymmetry_Pilot,2022.1.3,Win32,59.84440455,62c50e9c1127f2cd403a315f,0,40,40,148,1,threeone,,,,,,,,,,,,,,,,,,,,,,,,,,,,,,,,,,,,,,,,,,,,,,,,,,,,,,,,,,,,,,,,,,,,,,,,,,,,,,,,,,,,,,,,,,,,,,,,,,,,,,,,,,,,,,,,,,,,,,,,,,,,,,,,,,,,,,,,,,,,,,,,,,,,,,,,,,,,
,,,,,,616ade6a0707ccefd099ac5d,62c53a495eca7ef05354f5ed,2022-07-06_09h34.42.929,Colour_Asymmetry_Pilot,2022.1.3,Win32,59.84440455,62c50e9c1127f2cd403a315f,0,41,41,142,1,fourtwo,,,,,,,,,,,,,,,,,,,,,,,,,,,,,,,,,,,,,,,,,,,,,,,,,,,,,,,,,,,,,,,,,,,,,,,,,,,,,,,,,,,,,,,,,,,,,,,,,,,,,,,,,,,,,,,,,,,,,,,,,,,,,,,,,,,,,,,,,,,,,,,,,,,,,,,,,,,,
,,,,,,616ade6a0707ccefd099ac5d,62c53a495eca7ef05354f5ed,2022-07-06_09h34.42.929,Colour_Asymmetry_Pilot,2022.1.3,Win32,59.84440455,62c50e9c1127f2cd403a315f,0,42,42,57,1,onethree,,,,,,,,,,,,,,,,,,,,,,,,,,,,,,,,,,,,,,,,,,,,,,,,,,,,,,,,,,,,,,,,,,,,,,,,,,,,,,,,,,,,,,,,,,,,,,,,,,,,,,,,,,,,,,,,,,,,,,,,,,,,,,,,,,,,,,,,,,,,,,,,,,,,,,,,,,,,
,,,,,,616ade6a0707ccefd099ac5d,62c53a495eca7ef05354f5ed,2022-07-06_09h34.42.929,Colour_Asymmetry_Pilot,2022.1.3,Win32,59.84440455,62c50e9c1127f2cd403a315f,0,43,43,90,1,twoone,,,,,,,,,,,,,,,,,,,,,,,,,,,,,,,,,,,,,,,,,,,,,,,,,,,,,,,,,,,,,,,,,,,,,,,,,,,,,,,,,,,,,,,,,,,,,,,,,,,,,,,,,,,,,,,,,,,,,,,,,,,,,,,,,,,,,,,,,,,,,,,,,,,,,,,,,,,,
,,,,,,616ade6a0707ccefd099ac5d,62c53a495eca7ef05354f5ed,2022-07-06_09h34.42.929,Colour_Asymmetry_Pilot,2022.1.3,Win32,59.84440455,62c50e9c1127f2cd403a315f,0,44,44,118,1,fourtwo,,,,,,,,,,,,,,,,,,,,,,,,,,,,,,,,,,,,,,,,,,,,,,,,,,,,,,,,,,,,,,,,,,,,,,,,,,,,,,,,,,,,,,,,,,,,,,,,,,,,,,,,,,,,,,,,,,,,,,,,,,,,,,,,,,,,,,,,,,,,,,,,,,,,,,,,,,,,
,,,,,,616ade6a0707ccefd099ac5d,62c53a495eca7ef05354f5ed,2022-07-06_09h34.42.929,Colour_Asymmetry_Pilot,2022.1.3,Win32,59.84440455,62c50e9c1127f2cd403a315f,0,45,45,151,1,fourthree,,,,,,,,,,,,,,,,,,,,,,,,,,,,,,,,,,,,,,,,,,,,,,,,,,,,,,,,,,,,,,,,,,,,,,,,,,,,,,,,,,,,,,,,,,,,,,,,,,,,,,,,,,,,,,,,,,,,,,,,,,,,,,,,,,,,,,,,,,,,,,,,,,,,,,,,,,,,
,,,,,,616ade6a0707ccefd099ac5d,62c53a495eca7ef05354f5ed,2022-07-06_09h34.42.929,Colour_Asymmetry_Pilot,2022.1.3,Win32,59.84440455,62c50e9c1127f2cd403a315f,0,46,46,69,1,threefour,,,,,,,,,,,,,,,,,,,,,,,,,,,,,,,,,,,,,,,,,,,,,,,,,,,,,,,,,,,,,,,,,,,,,,,,,,,,,,,,,,,,,,,,,,,,,,,,,,,,,,,,,,,,,,,,,,,,,,,,,,,,,,,,,,,,,,,,,,,,,,,,,,,,,,,,,,,,
,,,,,,616ade6a0707ccefd099ac5d,62c53a495eca7ef05354f5ed,2022-07-06_09h34.42.929,Colour_Asymmetry_Pilot,2022.1.3,Win32,59.84440455,62c50e9c1127f2cd403a315f,0,47,47,6,1,fourtwo,,,,,,,,,,,,,,,,,,,,,,,,,,,,,,,,,,,,,,,,,,,,,,,,,,,,,,,,,,,,,,,,,,,,,,,,,,,,,,,,,,,,,,,,,,,,,,,,,,,,,,,,,,,,,,,,,,,,,,,,,,,,,,,,,,,,,,,,,,,,,,,,,,,,,,,,,,,,
,,,,,,616ade6a0707ccefd099ac5d,62c53a495eca7ef05354f5ed,2022-07-06_09h34.42.929,Colour_Asymmetry_Pilot,2022.1.3,Win32,59.84440455,62c50e9c1127f2cd403a315f,0,48,48,100,1,threeone,,,,,,,,,,,,,,,,,,,,,,,,,,,,,,,,,,,,,,,,,,,,,,,,,,,,,,,,,,,,,,,,,,,,,,,,,,,,,,,,,,,,,,,,,,,,,,,,,,,,,,,,,,,,,,,,,,,,,,,,,,,,,,,,,,,,,,,,,,,,,,,,,,,,,,,,,,,,
,,,,,,616ade6a0707ccefd099ac5d,62c53a495eca7ef05354f5ed,2022-07-06_09h34.42.929,Colour_Asymmetry_Pilot,2022.1.3,Win32,59.84440455,62c50e9c1127f2cd403a315f,0,49,49,55,1,fourthree,,,,,,,,,,,,,,,,,,,,,,,,,,,,,,,,,,,,,,,,,,,,,,,,,,,,,,,,,,,,,,,,,,,,,,,,,,,,,,,,,,,,,,,,,,,,,,,,,,,,,,,,,,,,,,,,,,,,,,,,,,,,,,,,,,,,,,,,,,,,,,,,,,,,,,,,,,,,
,,,,,,616ade6a0707ccefd099ac5d,62c53a495eca7ef05354f5ed,2022-07-06_09h34.42.929,Colour_Asymmetry_Pilot,2022.1.3,Win32,59.84440455,62c50e9c1127f2cd403a315f,0,50,50,20,1,threeone,,,,,,,,,,,,,,,,,,,,,,,,,,,,,,,,,,,,,,,,,,,,,,,,,,,,,,,,,,,,,,,,,,,,,,,,,,,,,,,,,,,,,,,,,,,,,,,,,,,,,,,,,,,,,,,,,,,,,,,,,,,,,,,,,,,,,,,,,,,,,,,,,,,,,,,,,,,,
,,,,,,616ade6a0707ccefd099ac5d,62c53a495eca7ef05354f5ed,2022-07-06_09h34.42.929,Colour_Asymmetry_Pilot,2022.1.3,Win32,59.84440455,62c50e9c1127f2cd403a315f,0,51,51,137,1,onethree,,,,,,,,,,,,,,,,,,,,,,,,,,,,,,,,,,,,,,,,,,,,,,,,,,,,,,,,,,,,,,,,,,,,,,,,,,,,,,,,,,,,,,,,,,,,,,,,,,,,,,,,,,,,,,,,,,,,,,,,,,,,,,,,,,,,,,,,,,,,,,,,,,,,,,,,,,,,
,,,,,,616ade6a0707ccefd099ac5d,62c53a495eca7ef05354f5ed,2022-07-06_09h34.42.929,Colour_Asymmetry_Pilot,2022.1.3,Win32,59.84440455,62c50e9c1127f2cd403a315f,0,52,52,59,1,twofour,,,,,,,,,,,,,,,,,,,,,,,,,,,,,,,,,,,,,,,,,,,,,,,,,,,,,,,,,,,,,,,,,,,,,,,,,,,,,,,,,,,,,,,,,,,,,,,,,,,,,,,,,,,,,,,,,,,,,,,,,,,,,,,,,,,,,,,,,,,,,,,,,,,,,,,,,,,,
,,,,,,616ade6a0707ccefd099ac5d,62c53a495eca7ef05354f5ed,2022-07-06_09h34.42.929,Colour_Asymmetry_Pilot,2022.1.3,Win32,59.84440455,62c50e9c1127f2cd403a315f,0,53,53,83,1,twofour,,,,,,,,,,,,,,,,,,,,,,,,,,,,,,,,,,,,,,,,,,,,,,,,,,,,,,,,,,,,,,,,,,,,,,,,,,,,,,,,,,,,,,,,,,,,,,,,,,,,,,,,,,,,,,,,,,,,,,,,,,,,,,,,,,,,,,,,,,,,,,,,,,,,,,,,,,,,
,,,,,,616ade6a0707ccefd099ac5d,62c53a495eca7ef05354f5ed,2022-07-06_09h34.42.929,Colour_Asymmetry_Pilot,2022.1.3,Win32,59.84440455,62c50e9c1127f2cd403a315f,0,54,54,157,1,threefour,,,,,,,,,,,,,,,,,,,,,,,,,,,,,,,,,,,,,,,,,,,,,,,,,,,,,,,,,,,,,,,,,,,,,,,,,,,,,,,,,,,,,,,,,,,,,,,,,,,,,,,,,,,,,,,,,,,,,,,,,,,,,,,,,,,,,,,,,,,,,,,,,,,,,,,,,,,,
,,,,,,616ade6a0707ccefd099ac5d,62c53a495eca7ef05354f5ed,2022-07-06_09h34.42.929,Colour_Asymmetry_Pilot,2022.1.3,Win32,59.84440455,62c50e9c1127f2cd403a315f,0,55,55,109,1,threefour,,,,,,,,,,,,,,,,,,,,,,,,,,,,,,,,,,,,,,,,,,,,,,,,,,,,,,,,,,,,,,,,,,,,,,,,,,,,,,,,,,,,,,,,,,,,,,,,,,,,,,,,,,,,,,,,,,,,,,,,,,,,,,,,,,,,,,,,,,,,,,,,,,,,,,,,,,,,
,,,,,,616ade6a0707ccefd099ac5d,62c53a495eca7ef05354f5ed,2022-07-06_09h34.42.929,Colour_Asymmetry_Pilot,2022.1.3,Win32,59.84440455,62c50e9c1127f2cd403a315f,0,56,56,124,1,threeone,,,,,,,,,,,,,,,,,,,,,,,,,,,,,,,,,,,,,,,,,,,,,,,,,,,,,,,,,,,,,,,,,,,,,,,,,,,,,,,,,,,,,,,,,,,,,,,,,,,,,,,,,,,,,,,,,,,,,,,,,,,,,,,,,,,,,,,,,,,,,,,,,,,,,,,,,,,,
,,,,,,616ade6a0707ccefd099ac5d,62c53a495eca7ef05354f5ed,2022-07-06_09h34.42.929,Colour_Asymmetry_Pilot,2022.1.3,Win32,59.84440455,62c50e9c1127f2cd403a315f,0,57,57,107,1,twofour,,,,,,,,,,,,,,,,,,,,,,,,,,,,,,,,,,,,,,,,,,,,,,,,,,,,,,,,,,,,,,,,,,,,,,,,,,,,,,,,,,,,,,,,,,,,,,,,,,,,,,,,,,,,,,,,,,,,,,,,,,,,,,,,,,,,,,,,,,,,,,,,,,,,,,,,,,,,
,,,,,,616ade6a0707ccefd099ac5d,62c53a495eca7ef05354f5ed,2022-07-06_09h34.42.929,Colour_Asymmetry_Pilot,2022.1.3,Win32,59.84440455,62c50e9c1127f2cd403a315f,0,58,58,61,1,threefour,,,,,,,,,,,,,,,,,,,,,,,,,,,,,,,,,,,,,,,,,,,,,,,,,,,,,,,,,,,,,,,,,,,,,,,,,,,,,,,,,,,,,,,,,,,,,,,,,,,,,,,,,,,,,,,,,,,,,,,,,,,,,,,,,,,,,,,,,,,,,,,,,,,,,,,,,,,,
,,,,,,616ade6a0707ccefd099ac5d,62c53a495eca7ef05354f5ed,2022-07-06_09h34.42.929,Colour_Asymmetry_Pilot,2022.1.3,Win32,59.84440455,62c50e9c1127f2cd403a315f,0,59,59,85,1,threefour,,,,,,,,,,,,,,,,,,,,,,,,,,,,,,,,,,,,,,,,,,,,,,,,,,,,,,,,,,,,,,,,,,,,,,,,,,,,,,,,,,,,,,,,,,,,,,,,,,,,,,,,,,,,,,,,,,,,,,,,,,,,,,,,,,,,,,,,,,,,,,,,,,,,,,,,,,,,
,,,,,,616ade6a0707ccefd099ac5d,62c53a495eca7ef05354f5ed,2022-07-06_09h34.42.929,Colour_Asymmetry_Pilot,2022.1.3,Win32,59.84440455,62c50e9c1127f2cd403a315f,0,60,60,34,1,twoone,,,,,,,,,,,,,,,,,,,,,,,,,,,,,,,,,,,,,,,,,,,,,,,,,,,,,,,,,,,,,,,,,,,,,,,,,,,,,,,,,,,,,,,,,,,,,,,,,,,,,,,,,,,,,,,,,,,,,,,,,,,,,,,,,,,,,,,,,,,,,,,,,,,,,,,,,,,,
,,,,,,616ade6a0707ccefd099ac5d,62c53a495eca7ef05354f5ed,2022-07-06_09h34.42.929,Colour_Asymmetry_Pilot,2022.1.3,Win32,59.84440455,62c50e9c1127f2cd403a315f,0,61,61,91,1,twofour,,,,,,,,,,,,,,,,,,,,,,,,,,,,,,,,,,,,,,,,,,,,,,,,,,,,,,,,,,,,,,,,,,,,,,,,,,,,,,,,,,,,,,,,,,,,,,,,,,,,,,,,,,,,,,,,,,,,,,,,,,,,,,,,,,,,,,,,,,,,,,,,,,,,,,,,,,,,
,,,,,,616ade6a0707ccefd099ac5d,62c53a495eca7ef05354f5ed,2022-07-06_09h34.42.929,Colour_Asymmetry_Pilot,2022.1.3,Win32,59.84440455,62c50e9c1127f2cd403a315f,0,62,62,45,1,threefour,,,,,,,,,,,,,,,,,,,,,,,,,,,,,,,,,,,,,,,,,,,,,,,,,,,,,,,,,,,,,,,,,,,,,,,,,,,,,,,,,,,,,,,,,,,,,,,,,,,,,,,,,,,,,,,,,,,,,,,,,,,,,,,,,,,,,,,,,,,,,,,,,,,,,,,,,,,,
,,,,,,616ade6a0707ccefd099ac5d,62c53a495eca7ef05354f5ed,2022-07-06_09h34.42.929,Colour_Asymmetry_Pilot,2022.1.3,Win32,59.84440455,62c50e9c1127f2cd403a315f,0,63,63,84,1,threeone,,,,,,,,,,,,,,,,,,,,,,,,,,,,,,,,,,,,,,,,,,,,,,,,,,,,,,,,,,,,,,,,,,,,,,,,,,,,,,,,,,,,,,,,,,,,,,,,,,,,,,,,,,,,,,,,,,,,,,,,,,,,,,,,,,,,,,,,,,,,,,,,,,,,,,,,,,,,
,,,,,,616ade6a0707ccefd099ac5d,62c53a495eca7ef05354f5ed,2022-07-06_09h34.42.929,Colour_Asymmetry_Pilot,2022.1.3,Win32,59.84440455,62c50e9c1127f2cd403a315f,0,64,64,130,1,twoone,,,,,,,,,,,,,,,,,,,,,,,,,,,,,,,,,,,,,,,,,,,,,,,,,,,,,,,,,,,,,,,,,,,,,,,,,,,,,,,,,,,,,,,,,,,,,,,,,,,,,,,,,,,,,,,,,,,,,,,,,,,,,,,,,,,,,,,,,,,,,,,,,,,,,,,,,,,,
,,,,,,616ade6a0707ccefd099ac5d,62c53a495eca7ef05354f5ed,2022-07-06_09h34.42.929,Colour_Asymmetry_Pilot,2022.1.3,Win32,59.84440455,62c50e9c1127f2cd403a315f,0,65,65,117,1,threefour,,,,,,,,,,,,,,,,,,,,,,,,,,,,,,,,,,,,,,,,,,,,,,,,,,,,,,,,,,,,,,,,,,,,,,,,,,,,,,,,,,,,,,,,,,,,,,,,,,,,,,,,,,,,,,,,,,,,,,,,,,,,,,,,,,,,,,,,,,,,,,,,,,,,,,,,,,,,
,,,,,,616ade6a0707ccefd099ac5d,62c53a495eca7ef05354f5ed,2022-07-06_09h34.42.929,Colour_Asymmetry_Pilot,2022.1.3,Win32,59.84440455,62c50e9c1127f2cd403a315f,0,66,66,136,1,onetwo,,,,,,,,,,,,,,,,,,,,,,,,,,,,,,,,,,,,,,,,,,,,,,,,,,,,,,,,,,,,,,,,,,,,,,,,,,,,,,,,,,,,,,,,,,,,,,,,,,,,,,,,,,,,,,,,,,,,,,,,,,,,,,,,,,,,,,,,,,,,,,,,,,,,,,,,,,,,
,,,,,,616ade6a0707ccefd099ac5d,62c53a495eca7ef05354f5ed,2022-07-06_09h34.42.929,Colour_Asymmetry_Pilot,2022.1.3,Win32,59.84440455,62c50e9c1127f2cd403a315f,0,67,67,80,1,onetwo,,,,,,,,,,,,,,,,,,,,,,,,,,,,,,,,,,,,,,,,,,,,,,,,,,,,,,,,,,,,,,,,,,,,,,,,,,,,,,,,,,,,,,,,,,,,,,,,,,,,,,,,,,,,,,,,,,,,,,,,,,,,,,,,,,,,,,,,,,,,,,,,,,,,,,,,,,,,
,,,,,,616ade6a0707ccefd099ac5d,62c53a495eca7ef05354f5ed,2022-07-06_09h34.42.929,Colour_Asymmetry_Pilot,2022.1.3,Win32,59.84440455,62c50e9c1127f2cd403a315f,0,68,68,22,1,fourtwo,,,,,,,,,,,,,,,,,,,,,,,,,,,,,,,,,,,,,,,,,,,,,,,,,,,,,,,,,,,,,,,,,,,,,,,,,,,,,,,,,,,,,,,,,,,,,,,,,,,,,,,,,,,,,,,,,,,,,,,,,,,,,,,,,,,,,,,,,,,,,,,,,,,,,,,,,,,,
,,,,,,616ade6a0707ccefd099ac5d,62c53a495eca7ef05354f5ed,2022-07-06_09h34.42.929,Colour_Asymmetry_Pilot,2022.1.3,Win32,59.84440455,62c50e9c1127f2cd403a315f,0,69,69,70,1,fourtwo,,,,,,,,,,,,,,,,,,,,,,,,,,,,,,,,,,,,,,,,,,,,,,,,,,,,,,,,,,,,,,,,,,,,,,,,,,,,,,,,,,,,,,,,,,,,,,,,,,,,,,,,,,,,,,,,,,,,,,,,,,,,,,,,,,,,,,,,,,,,,,,,,,,,,,,,,,,,
,,,,,,616ade6a0707ccefd099ac5d,62c53a495eca7ef05354f5ed,2022-07-06_09h34.42.929,Colour_Asymmetry_Pilot,2022.1.3,Win32,59.84440455,62c50e9c1127f2cd403a315f,0,70,70,3,1,twofour,,,,,,,,,,,,,,,,,,,,,,,,,,,,,,,,,,,,,,,,,,,,,,,,,,,,,,,,,,,,,,,,,,,,,,,,,,,,,,,,,,,,,,,,,,,,,,,,,,,,,,,,,,,,,,,,,,,,,,,,,,,,,,,,,,,,,,,,,,,,,,,,,,,,,,,,,,,,
,,,,,,616ade6a0707ccefd099ac5d,62c53a495eca7ef05354f5ed,2022-07-06_09h34.42.929,Colour_Asymmetry_Pilot,2022.1.3,Win32,59.84440455,62c50e9c1127f2cd403a315f,0,71,71,161,1,onethree,,,,,,,,,,,,,,,,,,,,,,,,,,,,,,,,,,,,,,,,,,,,,,,,,,,,,,,,,,,,,,,,,,,,,,,,,,,,,,,,,,,,,,,,,,,,,,,,,,,,,,,,,,,,,,,,,,,,,,,,,,,,,,,,,,,,,,,,,,,,,,,,,,,,,,,,,,,,
,,,,,,616ade6a0707ccefd099ac5d,62c53a495eca7ef05354f5ed,2022-07-06_09h34.42.929,Colour_Asymmetry_Pilot,2022.1.3,Win32,59.84440455,62c50e9c1127f2cd403a315f,0,72,72,102,1,fourtwo,,,,,,,,,,,,,,,,,,,,,,,,,,,,,,,,,,,,,,,,,,,,,,,,,,,,,,,,,,,,,,,,,,,,,,,,,,,,,,,,,,,,,,,,,,,,,,,,,,,,,,,,,,,,,,,,,,,,,,,,,,,,,,,,,,,,,,,,,,,,,,,,,,,,,,,,,,,,
,,,,,,616ade6a0707ccefd099ac5d,62c53a495eca7ef05354f5ed,2022-07-06_09h34.42.929,Colour_Asymmetry_Pilot,2022.1.3,Win32,59.84440455,62c50e9c1127f2cd403a315f,0,73,73,9,1,onethree,,,,,,,,,,,,,,,,,,,,,,,,,,,,,,,,,,,,,,,,,,,,,,,,,,,,,,,,,,,,,,,,,,,,,,,,,,,,,,,,,,,,,,,,,,,,,,,,,,,,,,,,,,,,,,,,,,,,,,,,,,,,,,,,,,,,,,,,,,,,,,,,,,,,,,,,,,,,
,,,,,,616ade6a0707ccefd099ac5d,62c53a495eca7ef05354f5ed,2022-07-06_09h34.42.929,Colour_Asymmetry_Pilot,2022.1.3,Win32,59.84440455,62c50e9c1127f2cd403a315f,0,74,74,131,1,twofour,,,,,,,,,,,,,,,,,,,,,,,,,,,,,,,,,,,,,,,,,,,,,,,,,,,,,,,,,,,,,,,,,,,,,,,,,,,,,,,,,,,,,,,,,,,,,,,,,,,,,,,,,,,,,,,,,,,,,,,,,,,,,,,,,,,,,,,,,,,,,,,,,,,,,,,,,,,,
,,,,,,616ade6a0707ccefd099ac5d,62c53a495eca7ef05354f5ed,2022-07-06_09h34.42.929,Colour_Asymmetry_Pilot,2022.1.3,Win32,59.84440455,62c50e9c1127f2cd403a315f,0,75,75,21,1,threefour,,,,,,,,,,,,,,,,,,,,,,,,,,,,,,,,,,,,,,,,,,,,,,,,,,,,,,,,,,,,,,,,,,,,,,,,,,,,,,,,,,,,,,,,,,,,,,,,,,,,,,,,,,,,,,,,,,,,,,,,,,,,,,,,,,,,,,,,,,,,,,,,,,,,,,,,,,,,
,,,,,,616ade6a0707ccefd099ac5d,62c53a495eca7ef05354f5ed,2022-07-06_09h34.42.929,Colour_Asymmetry_Pilot,2022.1.3,Win32,59.84440455,62c50e9c1127f2cd403a315f,0,76,76,30,1,fourtwo,,,,,,,,,,,,,,,,,,,,,,,,,,,,,,,,,,,,,,,,,,,,,,,,,,,,,,,,,,,,,,,,,,,,,,,,,,,,,,,,,,,,,,,,,,,,,,,,,,,,,,,,,,,,,,,,,,,,,,,,,,,,,,,,,,,,,,,,,,,,,,,,,,,,,,,,,,,,
,,,,,,616ade6a0707ccefd099ac5d,62c53a495eca7ef05354f5ed,2022-07-06_09h34.42.929,Colour_Asymmetry_Pilot,2022.1.3,Win32,59.84440455,62c50e9c1127f2cd403a315f,0,77,77,15,1,fourthree,,,,,,,,,,,,,,,,,,,,,,,,,,,,,,,,,,,,,,,,,,,,,,,,,,,,,,,,,,,,,,,,,,,,,,,,,,,,,,,,,,,,,,,,,,,,,,,,,,,,,,,,,,,,,,,,,,,,,,,,,,,,,,,,,,,,,,,,,,,,,,,,,,,,,,,,,,,,
,,,,,,616ade6a0707ccefd099ac5d,62c53a495eca7ef05354f5ed,2022-07-06_09h34.42.929,Colour_Asymmetry_Pilot,2022.1.3,Win32,59.84440455,62c50e9c1127f2cd403a315f,0,78,78,0,1,onetwo,,,,,,,,,,,,,,,,,,,,,,,,,,,,,,,,,,,,,,,,,,,,,,,,,,,,,,,,,,,,,,,,,,,,,,,,,,,,,,,,,,,,,,,,,,,,,,,,,,,,,,,,,,,,,,,,,,,,,,,,,,,,,,,,,,,,,,,,,,,,,,,,,,,,,,,,,,,,
,,,,,,616ade6a0707ccefd099ac5d,62c53a495eca7ef05354f5ed,2022-07-06_09h34.42.929,Colour_Asymmetry_Pilot,2022.1.3,Win32,59.84440455,62c50e9c1127f2cd403a315f,0,79,79,140,1,threeone,,,,,,,,,,,,,,,,,,,,,,,,,,,,,,,,,,,,,,,,,,,,,,,,,,,,,,,,,,,,,,,,,,,,,,,,,,,,,,,,,,,,,,,,,,,,,,,,,,,,,,,,,,,,,,,,,,,,,,,,,,,,,,,,,,,,,,,,,,,,,,,,,,,,,,,,,,,,
,,,,,,616ade6a0707ccefd099ac5d,62c53a495eca7ef05354f5ed,2022-07-06_09h34.42.929,Colour_Asymmetry_Pilot,2022.1.3,Win32,59.84440455,62c50e9c1127f2cd403a315f,0,80,80,47,1,fourthree,,,,,,,,,,,,,,,,,,,,,,,,,,,,,,,,,,,,,,,,,,,,,,,,,,,,,,,,,,,,,,,,,,,,,,,,,,,,,,,,,,,,,,,,,,,,,,,,,,,,,,,,,,,,,,,,,,,,,,,,,,,,,,,,,,,,,,,,,,,,,,,,,,,,,,,,,,,,
,,,,,,616ade6a0707ccefd099ac5d,62c53a495eca7ef05354f5ed,2022-07-06_09h34.42.929,Colour_Asymmetry_Pilot,2022.1.3,Win32,59.84440455,62c50e9c1127f2cd403a315f,0,81,81,134,1,fourtwo,,,,,,,,,,,,,,,,,,,,,,,,,,,,,,,,,,,,,,,,,,,,,,,,,,,,,,,,,,,,,,,,,,,,,,,,,,,,,,,,,,,,,,,,,,,,,,,,,,,,,,,,,,,,,,,,,,,,,,,,,,,,,,,,,,,,,,,,,,,,,,,,,,,,,,,,,,,,
,,,,,,616ade6a0707ccefd099ac5d,62c53a495eca7ef05354f5ed,2022-07-06_09h34.42.929,Colour_Asymmetry_Pilot,2022.1.3,Win32,59.84440455,62c50e9c1127f2cd403a315f,0,82,82,115,1,twofour,,,,,,,,,,,,,,,,,,,,,,,,,,,,,,,,,,,,,,,,,,,,,,,,,,,,,,,,,,,,,,,,,,,,,,,,,,,,,,,,,,,,,,,,,,,,,,,,,,,,,,,,,,,,,,,,,,,,,,,,,,,,,,,,,,,,,,,,,,,,,,,,,,,,,,,,,,,,
,,,,,,616ade6a0707ccefd099ac5d,62c53a495eca7ef05354f5ed,2022-07-06_09h34.42.929,Colour_Asymmetry_Pilot,2022.1.3,Win32,59.84440455,62c50e9c1127f2cd403a315f,0,83,83,49,1,onethree,,,,,,,,,,,,,,,,,,,,,,,,,,,,,,,,,,,,,,,,,,,,,,,,,,,,,,,,,,,,,,,,,,,,,,,,,,,,,,,,,,,,,,,,,,,,,,,,,,,,,,,,,,,,,,,,,,,,,,,,,,,,,,,,,,,,,,,,,,,,,,,,,,,,,,,,,,,,
,,,,,,616ade6a0707ccefd099ac5d,62c53a495eca7ef05354f5ed,2022-07-06_09h34.42.929,Colour_Asymmetry_Pilot,2022.1.3,Win32,59.84440455,62c50e9c1127f2cd403a315f,0,84,84,29,1,threefour,,,,,,,,,,,,,,,,,,,,,,,,,,,,,,,,,,,,,,,,,,,,,,,,,,,,,,,,,,,,,,,,,,,,,,,,,,,,,,,,,,,,,,,,,,,,,,,,,,,,,,,,,,,,,,,,,,,,,,,,,,,,,,,,,,,,,,,,,,,,,,,,,,,,,,,,,,,,
,,,,,,616ade6a0707ccefd099ac5d,62c53a495eca7ef05354f5ed,2022-07-06_09h34.42.929,Colour_Asymmetry_Pilot,2022.1.3,Win32,59.84440455,62c50e9c1127f2cd403a315f,0,85,85,111,1,fourthree,,,,,,,,,,,,,,,,,,,,,,,,,,,,,,,,,,,,,,,,,,,,,,,,,,,,,,,,,,,,,,,,,,,,,,,,,,,,,,,,,,,,,,,,,,,,,,,,,,,,,,,,,,,,,,,,,,,,,,,,,,,,,,,,,,,,,,,,,,,,,,,,,,,,,,,,,,,,
,,,,,,616ade6a0707ccefd099ac5d,62c53a495eca7ef05354f5ed,2022-07-06_09h34.42.929,Colour_Asymmetry_Pilot,2022.1.3,Win32,59.84440455,62c50e9c1127f2cd403a315f,0,86,86,40,1,onetwo,,,,,,,,,,,,,,,,,,,,,,,,,,,,,,,,,,,,,,,,,,,,,,,,,,,,,,,,,,,,,,,,,,,,,,,,,,,,,,,,,,,,,,,,,,,,,,,,,,,,,,,,,,,,,,,,,,,,,,,,,,,,,,,,,,,,,,,,,,,,,,,,,,,,,,,,,,,,
,,,,,,616ade6a0707ccefd099ac5d,62c53a495eca7ef05354f5ed,2022-07-06_09h34.42.929,Colour_Asymmetry_Pilot,2022.1.3,Win32,59.84440455,62c50e9c1127f2cd403a315f,0,87,87,141,1,threefour,,,,,,,,,,,,,,,,,,,,,,,,,,,,,,,,,,,,,,,,,,,,,,,,,,,,,,,,,,,,,,,,,,,,,,,,,,,,,,,,,,,,,,,,,,,,,,,,,,,,,,,,,,,,,,,,,,,,,,,,,,,,,,,,,,,,,,,,,,,,,,,,,,,,,,,,,,,,
,,,,,,616ade6a0707ccefd099ac5d,62c53a495eca7ef05354f5ed,2022-07-06_09h34.42.929,Colour_Asymmetry_Pilot,2022.1.3,Win32,59.84440455,62c50e9c1127f2cd403a315f,0,88,88,125,1,threefour,,,,,,,,,,,,,,,,,,,,,,,,,,,,,,,,,,,,,,,,,,,,,,,,,,,,,,,,,,,,,,,,,,,,,,,,,,,,,,,,,,,,,,,,,,,,,,,,,,,,,,,,,,,,,,,,,,,,,,,,,,,,,,,,,,,,,,,,,,,,,,,,,,,,,,,,,,,,
,,,,,,616ade6a0707ccefd099ac5d,62c53a495eca7ef05354f5ed,2022-07-06_09h34.42.929,Colour_Asymmetry_Pilot,2022.1.3,Win32,59.84440455,62c50e9c1127f2cd403a315f,0,89,89,7,1,fourthree,,,,,,,,,,,,,,,,,,,,,,,,,,,,,,,,,,,,,,,,,,,,,,,,,,,,,,,,,,,,,,,,,,,,,,,,,,,,,,,,,,,,,,,,,,,,,,,,,,,,,,,,,,,,,,,,,,,,,,,,,,,,,,,,,,,,,,,,,,,,,,,,,,,,,,,,,,,,
,,,,,,616ade6a0707ccefd099ac5d,62c53a495eca7ef05354f5ed,2022-07-06_09h34.42.929,Colour_Asymmetry_Pilot,2022.1.3,Win32,59.84440455,62c50e9c1127f2cd403a315f,0,90,90,149,1,threefour,,,,,,,,,,,,,,,,,,,,,,,,,,,,,,,,,,,,,,,,,,,,,,,,,,,,,,,,,,,,,,,,,,,,,,,,,,,,,,,,,,,,,,,,,,,,,,,,,,,,,,,,,,,,,,,,,,,,,,,,,,,,,,,,,,,,,,,,,,,,,,,,,,,,,,,,,,,,
,,,,,,616ade6a0707ccefd099ac5d,62c53a495eca7ef05354f5ed,2022-07-06_09h34.42.929,Colour_Asymmetry_Pilot,2022.1.3,Win32,59.84440455,62c50e9c1127f2cd403a315f,0,91,91,92,1,threeone,,,,,,,,,,,,,,,,,,,,,,,,,,,,,,,,,,,,,,,,,,,,,,,,,,,,,,,,,,,,,,,,,,,,,,,,,,,,,,,,,,,,,,,,,,,,,,,,,,,,,,,,,,,,,,,,,,,,,,,,,,,,,,,,,,,,,,,,,,,,,,,,,,,,,,,,,,,,
,,,,,,616ade6a0707ccefd099ac5d,62c53a495eca7ef05354f5ed,2022-07-06_09h34.42.929,Colour_Asymmetry_Pilot,2022.1.3,Win32,59.84440455,62c50e9c1127f2cd403a315f,0,92,92,96,1,onetwo,,,,,,,,,,,,,,,,,,,,,,,,,,,,,,,,,,,,,,,,,,,,,,,,,,,,,,,,,,,,,,,,,,,,,,,,,,,,,,,,,,,,,,,,,,,,,,,,,,,,,,,,,,,,,,,,,,,,,,,,,,,,,,,,,,,,,,,,,,,,,,,,,,,,,,,,,,,,
,,,,,,616ade6a0707ccefd099ac5d,62c53a495eca7ef05354f5ed,2022-07-06_09h34.42.929,Colour_Asymmetry_Pilot,2022.1.3,Win32,59.84440455,62c50e9c1127f2cd403a315f,0,93,93,155,1,twofour,,,,,,,,,,,,,,,,,,,,,,,,,,,,,,,,,,,,,,,,,,,,,,,,,,,,,,,,,,,,,,,,,,,,,,,,,,,,,,,,,,,,,,,,,,,,,,,,,,,,,,,,,,,,,,,,,,,,,,,,,,,,,,,,,,,,,,,,,,,,,,,,,,,,,,,,,,,,
,,,,,,616ade6a0707ccefd099ac5d,62c53a495eca7ef05354f5ed,2022-07-06_09h34.42.929,Colour_Asymmetry_Pilot,2022.1.3,Win32,59.84440455,62c50e9c1127f2cd403a315f,0,94,94,143,1,fourthree,,,,,,,,,,,,,,,,,,,,,,,,,,,,,,,,,,,,,,,,,,,,,,,,,,,,,,,,,,,,,,,,,,,,,,,,,,,,,,,,,,,,,,,,,,,,,,,,,,,,,,,,,,,,,,,,,,,,,,,,,,,,,,,,,,,,,,,,,,,,,,,,,,,,,,,,,,,,
,,,,,,616ade6a0707ccefd099ac5d,62c53a495eca7ef05354f5ed,2022-07-06_09h34.42.929,Colour_Asymmetry_Pilot,2022.1.3,Win32,59.84440455,62c50e9c1127f2cd403a315f,0,95,95,120,1,onetwo,,,,,,,,,,,,,,,,,,,,,,,,,,,,,,,,,,,,,,,,,,,,,,,,,,,,,,,,,,,,,,,,,,,,,,,,,,,,,,,,,,,,,,,,,,,,,,,,,,,,,,,,,,,,,,,,,,,,,,,,,,,,,,,,,,,,,,,,,,,,,,,,,,,,,,,,,,,,
,,,,,,616ade6a0707ccefd099ac5d,62c53a495eca7ef05354f5ed,2022-07-06_09h34.42.929,Colour_Asymmetry_Pilot,2022.1.3,Win32,59.84440455,62c50e9c1127f2cd403a315f,0,96,96,108,1,threeone,,,,,,,,,,,,,,,,,,,,,,,,,,,,,,,,,,,,,,,,,,,,,,,,,,,,,,,,,,,,,,,,,,,,,,,,,,,,,,,,,,,,,,,,,,,,,,,,,,,,,,,,,,,,,,,,,,,,,,,,,,,,,,,,,,,,,,,,,,,,,,,,,,,,,,,,,,,,
,,,,,,616ade6a0707ccefd099ac5d,62c53a495eca7ef05354f5ed,2022-07-06_09h34.42.929,Colour_Asymmetry_Pilot,2022.1.3,Win32,59.84440455,62c50e9c1127f2cd403a315f,0,97,97,19,1,twofour,,,,,,,,,,,,,,,,,,,,,,,,,,,,,,,,,,,,,,,,,,,,,,,,,,,,,,,,,,,,,,,,,,,,,,,,,,,,,,,,,,,,,,,,,,,,,,,,,,,,,,,,,,,,,,,,,,,,,,,,,,,,,,,,,,,,,,,,,,,,,,,,,,,,,,,,,,,,
,,,,,,616ade6a0707ccefd099ac5d,62c53a495eca7ef05354f5ed,2022-07-06_09h34.42.929,Colour_Asymmetry_Pilot,2022.1.3,Win32,59.84440455,62c50e9c1127f2cd403a315f,0,98,98,101,1,threefour,,,,,,,,,,,,,,,,,,,,,,,,,,,,,,,,,,,,,,,,,,,,,,,,,,,,,,,,,,,,,,,,,,,,,,,,,,,,,,,,,,,,,,,,,,,,,,,,,,,,,,,,,,,,,,,,,,,,,,,,,,,,,,,,,,,,,,,,,,,,,,,,,,,,,,,,,,,,
,,,,,,616ade6a0707ccefd099ac5d,62c53a495eca7ef05354f5ed,2022-07-06_09h34.42.929,Colour_Asymmetry_Pilot,2022.1.3,Win32,59.84440455,62c50e9c1127f2cd403a315f,0,99,99,41,1,onethree,,,,,,,,,,,,,,,,,,,,,,,,,,,,,,,,,,,,,,,,,,,,,,,,,,,,,,,,,,,,,,,,,,,,,,,,,,,,,,,,,,,,,,,,,,,,,,,,,,,,,,,,,,,,,,,,,,,,,,,,,,,,,,,,,,,,,,,,,,,,,,,,,,,,,,,,,,,,
,,,,,,616ade6a0707ccefd099ac5d,62c53a495eca7ef05354f5ed,2022-07-06_09h34.42.929,Colour_Asymmetry_Pilot,2022.1.3,Win32,59.84440455,62c50e9c1127f2cd403a315f,0,100,100,8,1,onetwo,,,,,,,,,,,,,,,,,,,,,,,,,,,,,,,,,,,,,,,,,,,,,,,,,,,,,,,,,,,,,,,,,,,,,,,,,,,,,,,,,,,,,,,,,,,,,,,,,,,,,,,,,,,,,,,,,,,,,,,,,,,,,,,,,,,,,,,,,,,,,,,,,,,,,,,,,,,,
,,,,,,616ade6a0707ccefd099ac5d,62c53a495eca7ef05354f5ed,2022-07-06_09h34.42.929,Colour_Asymmetry_Pilot,2022.1.3,Win32,59.84440455,62c50e9c1127f2cd403a315f,0,101,101,2,1,twoone,,,,,,,,,,,,,,,,,,,,,,,,,,,,,,,,,,,,,,,,,,,,,,,,,,,,,,,,,,,,,,,,,,,,,,,,,,,,,,,,,,,,,,,,,,,,,,,,,,,,,,,,,,,,,,,,,,,,,,,,,,,,,,,,,,,,,,,,,,,,,,,,,,,,,,,,,,,,
,,,,,,616ade6a0707ccefd099ac5d,62c53a495eca7ef05354f5ed,2022-07-06_09h34.42.929,Colour_Asymmetry_Pilot,2022.1.3,Win32,59.84440455,62c50e9c1127f2cd403a315f,0,102,102,98,1,twoone,,,,,,,,,,,,,,,,,,,,,,,,,,,,,,,,,,,,,,,,,,,,,,,,,,,,,,,,,,,,,,,,,,,,,,,,,,,,,,,,,,,,,,,,,,,,,,,,,,,,,,,,,,,,,,,,,,,,,,,,,,,,,,,,,,,,,,,,,,,,,,,,,,,,,,,,,,,,
,,,,,,616ade6a0707ccefd099ac5d,62c53a495eca7ef05354f5ed,2022-07-06_09h34.42.929,Colour_Asymmetry_Pilot,2022.1.3,Win32,59.84440455,62c50e9c1127f2cd403a315f,0,103,103,25,1,onethree,,,,,,,,,,,,,,,,,,,,,,,,,,,,,,,,,,,,,,,,,,,,,,,,,,,,,,,,,,,,,,,,,,,,,,,,,,,,,,,,,,,,,,,,,,,,,,,,,,,,,,,,,,,,,,,,,,,,,,,,,,,,,,,,,,,,,,,,,,,,,,,,,,,,,,,,,,,,
,,,,,,616ade6a0707ccefd099ac5d,62c53a495eca7ef05354f5ed,2022-07-06_09h34.42.929,Colour_Asymmetry_Pilot,2022.1.3,Win32,59.84440455,62c50e9c1127f2cd403a315f,0,104,104,119,1,fourthree,,,,,,,,,,,,,,,,,,,,,,,,,,,,,,,,,,,,,,,,,,,,,,,,,,,,,,,,,,,,,,,,,,,,,,,,,,,,,,,,,,,,,,,,,,,,,,,,,,,,,,,,,,,,,,,,,,,,,,,,,,,,,,,,,,,,,,,,,,,,,,,,,,,,,,,,,,,,
,,,,,,616ade6a0707ccefd099ac5d,62c53a495eca7ef05354f5ed,2022-07-06_09h34.42.929,Colour_Asymmetry_Pilot,2022.1.3,Win32,59.84440455,62c50e9c1127f2cd403a315f,0,105,105,17,1,onethree,,,,,,,,,,,,,,,,,,,,,,,,,,,,,,,,,,,,,,,,,,,,,,,,,,,,,,,,,,,,,,,,,,,,,,,,,,,,,,,,,,,,,,,,,,,,,,,,,,,,,,,,,,,,,,,,,,,,,,,,,,,,,,,,,,,,,,,,,,,,,,,,,,,,,,,,,,,,
,,,,,,616ade6a0707ccefd099ac5d,62c53a495eca7ef05354f5ed,2022-07-06_09h34.42.929,Colour_Asymmetry_Pilot,2022.1.3,Win32,59.84440455,62c50e9c1127f2cd403a315f,0,106,106,11,1,twofour,,,,,,,,,,,,,,,,,,,,,,,,,,,,,,,,,,,,,,,,,,,,,,,,,,,,,,,,,,,,,,,,,,,,,,,,,,,,,,,,,,,,,,,,,,,,,,,,,,,,,,,,,,,,,,,,,,,,,,,,,,,,,,,,,,,,,,,,,,,,,,,,,,,,,,,,,,,,
,,,,,,616ade6a0707ccefd099ac5d,62c53a495eca7ef05354f5ed,2022-07-06_09h34.42.929,Colour_Asymmetry_Pilot,2022.1.3,Win32,59.84440455,62c50e9c1127f2cd403a315f,0,107,107,82,1,twoone,,,,,,,,,,,,,,,,,,,,,,,,,,,,,,,,,,,,,,,,,,,,,,,,,,,,,,,,,,,,,,,,,,,,,,,,,,,,,,,,,,,,,,,,,,,,,,,,,,,,,,,,,,,,,,,,,,,,,,,,,,,,,,,,,,,,,,,,,,,,,,,,,,,,,,,,,,,,
,,,,,,616ade6a0707ccefd099ac5d,62c53a495eca7ef05354f5ed,2022-07-06_09h34.42.929,Colour_Asymmetry_Pilot,2022.1.3,Win32,59.84440455,62c50e9c1127f2cd403a315f,0,108,108,146,1,twoone,,,,,,,,,,,,,,,,,,,,,,,,,,,,,,,,,,,,,,,,,,,,,,,,,,,,,,,,,,,,,,,,,,,,,,,,,,,,,,,,,,,,,,,,,,,,,,,,,,,,,,,,,,,,,,,,,,,,,,,,,,,,,,,,,,,,,,,,,,,,,,,,,,,,,,,,,,,,
,,,,,,616ade6a0707ccefd099ac5d,62c53a495eca7ef05354f5ed,2022-07-06_09h34.42.929,Colour_Asymmetry_Pilot,2022.1.3,Win32,59.84440455,62c50e9c1127f2cd403a315f,0,109,109,24,1,onetwo,,,,,,,,,,,,,,,,,,,,,,,,,,,,,,,,,,,,,,,,,,,,,,,,,,,,,,,,,,,,,,,,,,,,,,,,,,,,,,,,,,,,,,,,,,,,,,,,,,,,,,,,,,,,,,,,,,,,,,,,,,,,,,,,,,,,,,,,,,,,,,,,,,,,,,,,,,,,
,,,,,,616ade6a0707ccefd099ac5d,62c53a495eca7ef05354f5ed,2022-07-06_09h34.42.929,Colour_Asymmetry_Pilot,2022.1.3,Win32,59.84440455,62c50e9c1127f2cd403a315f,0,110,110,33,1,onethree,,,,,,,,,,,,,,,,,,,,,,,,,,,,,,,,,,,,,,,,,,,,,,,,,,,,,,,,,,,,,,,,,,,,,,,,,,,,,,,,,,,,,,,,,,,,,,,,,,,,,,,,,,,,,,,,,,,,,,,,,,,,,,,,,,,,,,,,,,,,,,,,,,,,,,,,,,,,
,,,,,,616ade6a0707ccefd099ac5d,62c53a495eca7ef05354f5ed,2022-07-06_09h34.42.929,Colour_Asymmetry_Pilot,2022.1.3,Win32,59.84440455,62c50e9c1127f2cd403a315f,0,111,111,26,1,twoone,,,,,,,,,,,,,,,,,,,,,,,,,,,,,,,,,,,,,,,,,,,,,,,,,,,,,,,,,,,,,,,,,,,,,,,,,,,,,,,,,,,,,,,,,,,,,,,,,,,,,,,,,,,,,,,,,,,,,,,,,,,,,,,,,,,,,,,,,,,,,,,,,,,,,,,,,,,,
,,,,,,616ade6a0707ccefd099ac5d,62c53a495eca7ef05354f5ed,2022-07-06_09h34.42.929,Colour_Asymmetry_Pilot,2022.1.3,Win32,59.84440455,62c50e9c1127f2cd403a315f,0,112,112,37,1,threefour,,,,,,,,,,,,,,,,,,,,,,,,,,,,,,,,,,,,,,,,,,,,,,,,,,,,,,,,,,,,,,,,,,,,,,,,,,,,,,,,,,,,,,,,,,,,,,,,,,,,,,,,,,,,,,,,,,,,,,,,,,,,,,,,,,,,,,,,,,,,,,,,,,,,,,,,,,,,
,,,,,,616ade6a0707ccefd099ac5d,62c53a495eca7ef05354f5ed,2022-07-06_09h34.42.929,Colour_Asymmetry_Pilot,2022.1.3,Win32,59.84440455,62c50e9c1127f2cd403a315f,0,113,113,160,1,onetwo,,,,,,,,,,,,,,,,,,,,,,,,,,,,,,,,,,,,,,,,,,,,,,,,,,,,,,,,,,,,,,,,,,,,,,,,,,,,,,,,,,,,,,,,,,,,,,,,,,,,,,,,,,,,,,,,,,,,,,,,,,,,,,,,,,,,,,,,,,,,,,,,,,,,,,,,,,,,
,,,,,,616ade6a0707ccefd099ac5d,62c53a495eca7ef05354f5ed,2022-07-06_09h34.42.929,Colour_Asymmetry_Pilot,2022.1.3,Win32,59.84440455,62c50e9c1127f2cd403a315f,0,114,114,44,1,threeone,,,,,,,,,,,,,,,,,,,,,,,,,,,,,,,,,,,,,,,,,,,,,,,,,,,,,,,,,,,,,,,,,,,,,,,,,,,,,,,,,,,,,,,,,,,,,,,,,,,,,,,,,,,,,,,,,,,,,,,,,,,,,,,,,,,,,,,,,,,,,,,,,,,,,,,,,,,,
,,,,,,616ade6a0707ccefd099ac5d,62c53a495eca7ef05354f5ed,2022-07-06_09h34.42.929,Colour_Asymmetry_Pilot,2022.1.3,Win32,59.84440455,62c50e9c1127f2cd403a315f,0,115,115,74,1,twoone,,,,,,,,,,,,,,,,,,,,,,,,,,,,,,,,,,,,,,,,,,,,,,,,,,,,,,,,,,,,,,,,,,,,,,,,,,,,,,,,,,,,,,,,,,,,,,,,,,,,,,,,,,,,,,,,,,,,,,,,,,,,,,,,,,,,,,,,,,,,,,,,,,,,,,,,,,,,
,,,,,,616ade6a0707ccefd099ac5d,62c53a495eca7ef05354f5ed,2022-07-06_09h34.42.929,Colour_Asymmetry_Pilot,2022.1.3,Win32,59.84440455,62c50e9c1127f2cd403a315f,0,116,116,158,1,fourtwo,,,,,,,,,,,,,,,,,,,,,,,,,,,,,,,,,,,,,,,,,,,,,,,,,,,,,,,,,,,,,,,,,,,,,,,,,,,,,,,,,,,,,,,,,,,,,,,,,,,,,,,,,,,,,,,,,,,,,,,,,,,,,,,,,,,,,,,,,,,,,,,,,,,,,,,,,,,,
,,,,,,616ade6a0707ccefd099ac5d,62c53a495eca7ef05354f5ed,2022-07-06_09h34.42.929,Colour_Asymmetry_Pilot,2022.1.3,Win32,59.84440455,62c50e9c1127f2cd403a315f,0,117,117,36,1,threeone,,,,,,,,,,,,,,,,,,,,,,,,,,,,,,,,,,,,,,,,,,,,,,,,,,,,,,,,,,,,,,,,,,,,,,,,,,,,,,,,,,,,,,,,,,,,,,,,,,,,,,,,,,,,,,,,,,,,,,,,,,,,,,,,,,,,,,,,,,,,,,,,,,,,,,,,,,,,
,,,,,,616ade6a0707ccefd099ac5d,62c53a495eca7ef05354f5ed,2022-07-06_09h34.42.929,Colour_Asymmetry_Pilot,2022.1.3,Win32,59.84440455,62c50e9c1127f2cd403a315f,0,118,118,31,1,fourthree,,,,,,,,,,,,,,,,,,,,,,,,,,,,,,,,,,,,,,,,,,,,,,,,,,,,,,,,,,,,,,,,,,,,,,,,,,,,,,,,,,,,,,,,,,,,,,,,,,,,,,,,,,,,,,,,,,,,,,,,,,,,,,,,,,,,,,,,,,,,,,,,,,,,,,,,,,,,
,,,,,,616ade6a0707ccefd099ac5d,62c53a495eca7ef05354f5ed,2022-07-06_09h34.42.929,Colour_Asymmetry_Pilot,2022.1.3,Win32,59.84440455,62c50e9c1127f2cd403a315f,0,119,119,94,1,fourtwo,,,,,,,,,,,,,,,,,,,,,,,,,,,,,,,,,,,,,,,,,,,,,,,,,,,,,,,,,,,,,,,,,,,,,,,,,,,,,,,,,,,,,,,,,,,,,,,,,,,,,,,,,,,,,,,,,,,,,,,,,,,,,,,,,,,,,,,,,,,,,,,,,,,,,,,,,,,,
,,,,,,616ade6a0707ccefd099ac5d,62c53a495eca7ef05354f5ed,2022-07-06_09h34.42.929,Colour_Asymmetry_Pilot,2022.1.3,Win32,59.84440455,62c50e9c1127f2cd403a315f,0,120,120,76,1,threeone,,,,,,,,,,,,,,,,,,,,,,,,,,,,,,,,,,,,,,,,,,,,,,,,,,,,,,,,,,,,,,,,,,,,,,,,,,,,,,,,,,,,,,,,,,,,,,,,,,,,,,,,,,,,,,,,,,,,,,,,,,,,,,,,,,,,,,,,,,,,,,,,,,,,,,,,,,,,
,,,,,,616ade6a0707ccefd099ac5d,62c53a495eca7ef05354f5ed,2022-07-06_09h34.42.929,Colour_Asymmetry_Pilot,2022.1.3,Win32,59.84440455,62c50e9c1127f2cd403a315f,0,121,121,103,1,fourthree,,,,,,,,,,,,,,,,,,,,,,,,,,,,,,,,,,,,,,,,,,,,,,,,,,,,,,,,,,,,,,,,,,,,,,,,,,,,,,,,,,,,,,,,,,,,,,,,,,,,,,,,,,,,,,,,,,,,,,,,,,,,,,,,,,,,,,,,,,,,,,,,,,,,,,,,,,,,
,,,,,,616ade6a0707ccefd099ac5d,62c53a495eca7ef05354f5ed,2022-07-06_09h34.42.929,Colour_Asymmetry_Pilot,2022.1.3,Win32,59.84440455,62c50e9c1127f2cd403a315f,0,122,122,78,1,fourtwo,,,,,,,,,,,,,,,,,,,,,,,,,,,,,,,,,,,,,,,,,,,,,,,,,,,,,,,,,,,,,,,,,,,,,,,,,,,,,,,,,,,,,,,,,,,,,,,,,,,,,,,,,,,,,,,,,,,,,,,,,,,,,,,,,,,,,,,,,,,,,,,,,,,,,,,,,,,,
,,,,,,616ade6a0707ccefd099ac5d,62c53a495eca7ef05354f5ed,2022-07-06_09h34.42.929,Colour_Asymmetry_Pilot,2022.1.3,Win32,59.84440455,62c50e9c1127f2cd403a315f,0,123,123,104,1,onetwo,,,,,,,,,,,,,,,,,,,,,,,,,,,,,,,,,,,,,,,,,,,,,,,,,,,,,,,,,,,,,,,,,,,,,,,,,,,,,,,,,,,,,,,,,,,,,,,,,,,,,,,,,,,,,,,,,,,,,,,,,,,,,,,,,,,,,,,,,,,,,,,,,,,,,,,,,,,,
,,,,,,616ade6a0707ccefd099ac5d,62c53a495eca7ef05354f5ed,2022-07-06_09h34.42.929,Colour_Asymmetry_Pilot,2022.1.3,Win32,59.84440455,62c50e9c1127f2cd403a315f,0,124,124,106,1,twoone,,,,,,,,,,,,,,,,,,,,,,,,,,,,,,,,,,,,,,,,,,,,,,,,,,,,,,,,,,,,,,,,,,,,,,,,,,,,,,,,,,,,,,,,,,,,,,,,,,,,,,,,,,,,,,,,,,,,,,,,,,,,,,,,,,,,,,,,,,,,,,,,,,,,,,,,,,,,
,,,,,,616ade6a0707ccefd099ac5d,62c53a495eca7ef05354f5ed,2022-07-06_09h34.42.929,Colour_Asymmetry_Pilot,2022.1.3,Win32,59.84440455,62c50e9c1127f2cd403a315f,0,125,125,68,1,threeone,,,,,,,,,,,,,,,,,,,,,,,,,,,,,,,,,,,,,,,,,,,,,,,,,,,,,,,,,,,,,,,,,,,,,,,,,,,,,,,,,,,,,,,,,,,,,,,,,,,,,,,,,,,,,,,,,,,,,,,,,,,,,,,,,,,,,,,,,,,,,,,,,,,,,,,,,,,,
,,,,,,616ade6a0707ccefd099ac5d,62c53a495eca7ef05354f5ed,2022-07-06_09h34.42.929,Colour_Asymmetry_Pilot,2022.1.3,Win32,59.84440455,62c50e9c1127f2cd403a315f,0,126,126,32,1,onetwo,,,,,,,,,,,,,,,,,,,,,,,,,,,,,,,,,,,,,,,,,,,,,,,,,,,,,,,,,,,,,,,,,,,,,,,,,,,,,,,,,,,,,,,,,,,,,,,,,,,,,,,,,,,,,,,,,,,,,,,,,,,,,,,,,,,,,,,,,,,,,,,,,,,,,,,,,,,,
,,,,,,616ade6a0707ccefd099ac5d,62c53a495eca7ef05354f5ed,2022-07-06_09h34.42.929,Colour_Asymmetry_Pilot,2022.1.3,Win32,59.84440455,62c50e9c1127f2cd403a315f,0,127,127,93,1,threefour,,,,,,,,,,,,,,,,,,,,,,,,,,,,,,,,,,,,,,,,,,,,,,,,,,,,,,,,,,,,,,,,,,,,,,,,,,,,,,,,,,,,,,,,,,,,,,,,,,,,,,,,,,,,,,,,,,,,,,,,,,,,,,,,,,,,,,,,,,,,,,,,,,,,,,,,,,,,
,,,,,,616ade6a0707ccefd099ac5d,62c53a495eca7ef05354f5ed,2022-07-06_09h34.42.929,Colour_Asymmetry_Pilot,2022.1.3,Win32,59.84440455,62c50e9c1127f2cd403a315f,0,128,128,43,1,twofour,,,,,,,,,,,,,,,,,,,,,,,,,,,,,,,,,,,,,,,,,,,,,,,,,,,,,,,,,,,,,,,,,,,,,,,,,,,,,,,,,,,,,,,,,,,,,,,,,,,,,,,,,,,,,,,,,,,,,,,,,,,,,,,,,,,,,,,,,,,,,,,,,,,,,,,,,,,,
,,,,,,616ade6a0707ccefd099ac5d,62c53a495eca7ef05354f5ed,2022-07-06_09h34.42.929,Colour_Asymmetry_Pilot,2022.1.3,Win32,59.84440455,62c50e9c1127f2cd403a315f,0,129,129,1,1,onethree,,,,,,,,,,,,,,,,,,,,,,,,,,,,,,,,,,,,,,,,,,,,,,,,,,,,,,,,,,,,,,,,,,,,,,,,,,,,,,,,,,,,,,,,,,,,,,,,,,,,,,,,,,,,,,,,,,,,,,,,,,,,,,,,,,,,,,,,,,,,,,,,,,,,,,,,,,,,
,,,,,,616ade6a0707ccefd099ac5d,62c53a495eca7ef05354f5ed,2022-07-06_09h34.42.929,Colour_Asymmetry_Pilot,2022.1.3,Win32,59.84440455,62c50e9c1127f2cd403a315f,0,130,130,99,1,twofour,,,,,,,,,,,,,,,,,,,,,,,,,,,,,,,,,,,,,,,,,,,,,,,,,,,,,,,,,,,,,,,,,,,,,,,,,,,,,,,,,,,,,,,,,,,,,,,,,,,,,,,,,,,,,,,,,,,,,,,,,,,,,,,,,,,,,,,,,,,,,,,,,,,,,,,,,,,,
,,,,,,616ade6a0707ccefd099ac5d,62c53a495eca7ef05354f5ed,2022-07-06_09h34.42.929,Colour_Asymmetry_Pilot,2022.1.3,Win32,59.84440455,62c50e9c1127f2cd403a315f,0,131,131,60,1,threeone,,,,,,,,,,,,,,,,,,,,,,,,,,,,,,,,,,,,,,,,,,,,,,,,,,,,,,,,,,,,,,,,,,,,,,,,,,,,,,,,,,,,,,,,,,,,,,,,,,,,,,,,,,,,,,,,,,,,,,,,,,,,,,,,,,,,,,,,,,,,,,,,,,,,,,,,,,,,
,,,,,,616ade6a0707ccefd099ac5d,62c53a495eca7ef05354f5ed,2022-07-06_09h34.42.929,Colour_Asymmetry_Pilot,2022.1.3,Win32,59.84440455,62c50e9c1127f2cd403a315f,0,132,132,23,1,fourthree,,,,,,,,,,,,,,,,,,,,,,,,,,,,,,,,,,,,,,,,,,,,,,,,,,,,,,,,,,,,,,,,,,,,,,,,,,,,,,,,,,,,,,,,,,,,,,,,,,,,,,,,,,,,,,,,,,,,,,,,,,,,,,,,,,,,,,,,,,,,,,,,,,,,,,,,,,,,
,,,,,,616ade6a0707ccefd099ac5d,62c53a495eca7ef05354f5ed,2022-07-06_09h34.42.929,Colour_Asymmetry_Pilot,2022.1.3,Win32,59.84440455,62c50e9c1127f2cd403a315f,0,133,133,10,1,twoone,,,,,,,,,,,,,,,,,,,,,,,,,,,,,,,,,,,,,,,,,,,,,,,,,,,,,,,,,,,,,,,,,,,,,,,,,,,,,,,,,,,,,,,,,,,,,,,,,,,,,,,,,,,,,,,,,,,,,,,,,,,,,,,,,,,,,,,,,,,,,,,,,,,,,,,,,,,,
,,,,,,616ade6a0707ccefd099ac5d,62c53a495eca7ef05354f5ed,2022-07-06_09h34.42.929,Colour_Asymmetry_Pilot,2022.1.3,Win32,59.84440455,62c50e9c1127f2cd403a315f,0,134,134,144,1,onetwo,,,,,,,,,,,,,,,,,,,,,,,,,,,,,,,,,,,,,,,,,,,,,,,,,,,,,,,,,,,,,,,,,,,,,,,,,,,,,,,,,,,,,,,,,,,,,,,,,,,,,,,,,,,,,,,,,,,,,,,,,,,,,,,,,,,,,,,,,,,,,,,,,,,,,,,,,,,,
,,,,,,616ade6a0707ccefd099ac5d,62c53a495eca7ef05354f5ed,2022-07-06_09h34.42.929,Colour_Asymmetry_Pilot,2022.1.3,Win32,59.84440455,62c50e9c1127f2cd403a315f,0,135,135,77,1,threefour,,,,,,,,,,,,,,,,,,,,,,,,,,,,,,,,,,,,,,,,,,,,,,,,,,,,,,,,,,,,,,,,,,,,,,,,,,,,,,,,,,,,,,,,,,,,,,,,,,,,,,,,,,,,,,,,,,,,,,,,,,,,,,,,,,,,,,,,,,,,,,,,,,,,,,,,,,,,
,,,,,,616ade6a0707ccefd099ac5d,62c53a495eca7ef05354f5ed,2022-07-06_09h34.42.929,Colour_Asymmetry_Pilot,2022.1.3,Win32,59.84440455,62c50e9c1127f2cd403a315f,0,136,136,139,1,twofour,,,,,,,,,,,,,,,,,,,,,,,,,,,,,,,,,,,,,,,,,,,,,,,,,,,,,,,,,,,,,,,,,,,,,,,,,,,,,,,,,,,,,,,,,,,,,,,,,,,,,,,,,,,,,,,,,,,,,,,,,,,,,,,,,,,,,,,,,,,,,,,,,,,,,,,,,,,,
,,,,,,616ade6a0707ccefd099ac5d,62c53a495eca7ef05354f5ed,2022-07-06_09h34.42.929,Colour_Asymmetry_Pilot,2022.1.3,Win32,59.84440455,62c50e9c1127f2cd403a315f,0,137,137,65,1,onethree,,,,,,,,,,,,,,,,,,,,,,,,,,,,,,,,,,,,,,,,,,,,,,,,,,,,,,,,,,,,,,,,,,,,,,,,,,,,,,,,,,,,,,,,,,,,,,,,,,,,,,,,,,,,,,,,,,,,,,,,,,,,,,,,,,,,,,,,,,,,,,,,,,,,,,,,,,,,
,,,,,,616ade6a0707ccefd099ac5d,62c53a495eca7ef05354f5ed,2022-07-06_09h34.42.929,Colour_Asymmetry_Pilot,2022.1.3,Win32,59.84440455,62c50e9c1127f2cd403a315f,0,138,138,154,1,twoone,,,,,,,,,,,,,,,,,,,,,,,,,,,,,,,,,,,,,,,,,,,,,,,,,,,,,,,,,,,,,,,,,,,,,,,,,,,,,,,,,,,,,,,,,,,,,,,,,,,,,,,,,,,,,,,,,,,,,,,,,,,,,,,,,,,,,,,,,,,,,,,,,,,,,,,,,,,,
,,,,,,616ade6a0707ccefd099ac5d,62c53a495eca7ef05354f5ed,2022-07-06_09h34.42.929,Colour_Asymmetry_Pilot,2022.1.3,Win32,59.84440455,62c50e9c1127f2cd403a315f,0,139,139,12,1,threeone,,,,,,,,,,,,,,,,,,,,,,,,,,,,,,,,,,,,,,,,,,,,,,,,,,,,,,,,,,,,,,,,,,,,,,,,,,,,,,,,,,,,,,,,,,,,,,,,,,,,,,,,,,,,,,,,,,,,,,,,,,,,,,,,,,,,,,,,,,,,,,,,,,,,,,,,,,,,
,,,,,,616ade6a0707ccefd099ac5d,62c53a495eca7ef05354f5ed,2022-07-06_09h34.42.929,Colour_Asymmetry_Pilot,2022.1.3,Win32,59.84440455,62c50e9c1127f2cd403a315f,0,140,140,52,1,threeone,,,,,,,,,,,,,,,,,,,,,,,,,,,,,,,,,,,,,,,,,,,,,,,,,,,,,,,,,,,,,,,,,,,,,,,,,,,,,,,,,,,,,,,,,,,,,,,,,,,,,,,,,,,,,,,,,,,,,,,,,,,,,,,,,,,,,,,,,,,,,,,,,,,,,,,,,,,,
,,,,,,616ade6a0707ccefd099ac5d,62c53a495eca7ef05354f5ed,2022-07-06_09h34.42.929,Colour_Asymmetry_Pilot,2022.1.3,Win32,59.84440455,62c50e9c1127f2cd403a315f,0,141,141,5,1,threefour,,,,,,,,,,,,,,,,,,,,,,,,,,,,,,,,,,,,,,,,,,,,,,,,,,,,,,,,,,,,,,,,,,,,,,,,,,,,,,,,,,,,,,,,,,,,,,,,,,,,,,,,,,,,,,,,,,,,,,,,,,,,,,,,,,,,,,,,,,,,,,,,,,,,,,,,,,,,
,,,,,,616ade6a0707ccefd099ac5d,62c53a495eca7ef05354f5ed,2022-07-06_09h34.42.929,Colour_Asymmetry_Pilot,2022.1.3,Win32,59.84440455,62c50e9c1127f2cd403a315f,0,142,142,123,1,twofour,,,,,,,,,,,,,,,,,,,,,,,,,,,,,,,,,,,,,,,,,,,,,,,,,,,,,,,,,,,,,,,,,,,,,,,,,,,,,,,,,,,,,,,,,,,,,,,,,,,,,,,,,,,,,,,,,,,,,,,,,,,,,,,,,,,,,,,,,,,,,,,,,,,,,,,,,,,,
,,,,,,616ade6a0707ccefd099ac5d,62c53a495eca7ef05354f5ed,2022-07-06_09h34.42.929,Colour_Asymmetry_Pilot,2022.1.3,Win32,59.84440455,62c50e9c1127f2cd403a315f,0,143,143,72,1,onetwo,,,,,,,,,,,,,,,,,,,,,,,,,,,,,,,,,,,,,,,,,,,,,,,,,,,,,,,,,,,,,,,,,,,,,,,,,,,,,,,,,,,,,,,,,,,,,,,,,,,,,,,,,,,,,,,,,,,,,,,,,,,,,,,,,,,,,,,,,,,,,,,,,,,,,,,,,,,,
,,,,,,616ade6a0707ccefd099ac5d,62c53a495eca7ef05354f5ed,2022-07-06_09h34.42.929,Colour_Asymmetry_Pilot,2022.1.3,Win32,59.84440455,62c50e9c1127f2cd403a315f,0,144,144,147,1,twofour,,,,,,,,,,,,,,,,,,,,,,,,,,,,,,,,,,,,,,,,,,,,,,,,,,,,,,,,,,,,,,,,,,,,,,,,,,,,,,,,,,,,,,,,,,,,,,,,,,,,,,,,,,,,,,,,,,,,,,,,,,,,,,,,,,,,,,,,,,,,,,,,,,,,,,,,,,,,
,,,,,,616ade6a0707ccefd099ac5d,62c53a495eca7ef05354f5ed,2022-07-06_09h34.42.929,Colour_Asymmetry_Pilot,2022.1.3,Win32,59.84440455,62c50e9c1127f2cd403a315f,0,145,145,27,1,twofour,,,,,,,,,,,,,,,,,,,,,,,,,,,,,,,,,,,,,,,,,,,,,,,,,,,,,,,,,,,,,,,,,,,,,,,,,,,,,,,,,,,,,,,,,,,,,,,,,,,,,,,,,,,,,,,,,,,,,,,,,,,,,,,,,,,,,,,,,,,,,,,,,,,,,,,,,,,,
,,,,,,616ade6a0707ccefd099ac5d,62c53a495eca7ef05354f5ed,2022-07-06_09h34.42.929,Colour_Asymmetry_Pilot,2022.1.3,Win32,59.84440455,62c50e9c1127f2cd403a315f,0,146,146,116,1,threeone,,,,,,,,,,,,,,,,,,,,,,,,,,,,,,,,,,,,,,,,,,,,,,,,,,,,,,,,,,,,,,,,,,,,,,,,,,,,,,,,,,,,,,,,,,,,,,,,,,,,,,,,,,,,,,,,,,,,,,,,,,,,,,,,,,,,,,,,,,,,,,,,,,,,,,,,,,,,
,,,,,,616ade6a0707ccefd099ac5d,62c53a495eca7ef05354f5ed,2022-07-06_09h34.42.929,Colour_Asymmetry_Pilot,2022.1.3,Win32,59.84440455,62c50e9c1127f2cd403a315f,0,147,147,127,1,fourthree,,,,,,,,,,,,,,,,,,,,,,,,,,,,,,,,,,,,,,,,,,,,,,,,,,,,,,,,,,,,,,,,,,,,,,,,,,,,,,,,,,,,,,,,,,,,,,,,,,,,,,,,,,,,,,,,,,,,,,,,,,,,,,,,,,,,,,,,,,,,,,,,,,,,,,,,,,,,
,,,,,,616ade6a0707ccefd099ac5d,62c53a495eca7ef05354f5ed,2022-07-06_09h34.42.929,Colour_Asymmetry_Pilot,2022.1.3,Win32,59.84440455,62c50e9c1127f2cd403a315f,0,148,148,87,1,fourthree,,,,,,,,,,,,,,,,,,,,,,,,,,,,,,,,,,,,,,,,,,,,,,,,,,,,,,,,,,,,,,,,,,,,,,,,,,,,,,,,,,,,,,,,,,,,,,,,,,,,,,,,,,,,,,,,,,,,,,,,,,,,,,,,,,,,,,,,,,,,,,,,,,,,,,,,,,,,
,,,,,,616ade6a0707ccefd099ac5d,62c53a495eca7ef05354f5ed,2022-07-06_09h34.42.929,Colour_Asymmetry_Pilot,2022.1.3,Win32,59.84440455,62c50e9c1127f2cd403a315f,0,149,149,56,1,onetwo,,,,,,,,,,,,,,,,,,,,,,,,,,,,,,,,,,,,,,,,,,,,,,,,,,,,,,,,,,,,,,,,,,,,,,,,,,,,,,,,,,,,,,,,,,,,,,,,,,,,,,,,,,,,,,,,,,,,,,,,,,,,,,,,,,,,,,,,,,,,,,,,,,,,,,,,,,,,
,,,,,,616ade6a0707ccefd099ac5d,62c53a495eca7ef05354f5ed,2022-07-06_09h34.42.929,Colour_Asymmetry_Pilot,2022.1.3,Win32,59.84440455,62c50e9c1127f2cd403a315f,0,150,150,62,1,fourtwo,,,,,,,,,,,,,,,,,,,,,,,,,,,,,,,,,,,,,,,,,,,,,,,,,,,,,,,,,,,,,,,,,,,,,,,,,,,,,,,,,,,,,,,,,,,,,,,,,,,,,,,,,,,,,,,,,,,,,,,,,,,,,,,,,,,,,,,,,,,,,,,,,,,,,,,,,,,,
,,,,,,616ade6a0707ccefd099ac5d,62c53a495eca7ef05354f5ed,2022-07-06_09h34.42.929,Colour_Asymmetry_Pilot,2022.1.3,Win32,59.84440455,62c50e9c1127f2cd403a315f,0,151,151,121,1,onethree,,,,,,,,,,,,,,,,,,,,,,,,,,,,,,,,,,,,,,,,,,,,,,,,,,,,,,,,,,,,,,,,,,,,,,,,,,,,,,,,,,,,,,,,,,,,,,,,,,,,,,,,,,,,,,,,,,,,,,,,,,,,,,,,,,,,,,,,,,,,,,,,,,,,,,,,,,,,
,,,,,,616ade6a0707ccefd099ac5d,62c53a495eca7ef05354f5ed,2022-07-06_09h34.42.929,Colour_Asymmetry_Pilot,2022.1.3,Win32,59.84440455,62c50e9c1127f2cd403a315f,0,152,152,89,1,onethree,,,,,,,,,,,,,,,,,,,,,,,,,,,,,,,,,,,,,,,,,,,,,,,,,,,,,,,,,,,,,,,,,,,,,,,,,,,,,,,,,,,,,,,,,,,,,,,,,,,,,,,,,,,,,,,,,,,,,,,,,,,,,,,,,,,,,,,,,,,,,,,,,,,,,,,,,,,,
,,,,,,616ade6a0707ccefd099ac5d,62c53a495eca7ef05354f5ed,2022-07-06_09h34.42.929,Colour_Asymmetry_Pilot,2022.1.3,Win32,59.84440455,62c50e9c1127f2cd403a315f,0,153,153,129,1,onethree,,,,,,,,,,,,,,,,,,,,,,,,,,,,,,,,,,,,,,,,,,,,,,,,,,,,,,,,,,,,,,,,,,,,,,,,,,,,,,,,,,,,,,,,,,,,,,,,,,,,,,,,,,,,,,,,,,,,,,,,,,,,,,,,,,,,,,,,,,,,,,,,,,,,,,,,,,,,
,,,,,,616ade6a0707ccefd099ac5d,62c53a495eca7ef05354f5ed,2022-07-06_09h34.42.929,Colour_Asymmetry_Pilot,2022.1.3,Win32,59.84440455,62c50e9c1127f2cd403a315f,0,154,154,113,1,onethree,,,,,,,,,,,,,,,,,,,,,,,,,,,,,,,,,,,,,,,,,,,,,,,,,,,,,,,,,,,,,,,,,,,,,,,,,,,,,,,,,,,,,,,,,,,,,,,,,,,,,,,,,,,,,,,,,,,,,,,,,,,,,,,,,,,,,,,,,,,,,,,,,,,,,,,,,,,,
,,,,,,616ade6a0707ccefd099ac5d,62c53a495eca7ef05354f5ed,2022-07-06_09h34.42.929,Colour_Asymmetry_Pilot,2022.1.3,Win32,59.84440455,62c50e9c1127f2cd403a315f,0,155,155,48,1,onetwo,,,,,,,,,,,,,,,,,,,,,,,,,,,,,,,,,,,,,,,,,,,,,,,,,,,,,,,,,,,,,,,,,,,,,,,,,,,,,,,,,,,,,,,,,,,,,,,,,,,,,,,,,,,,,,,,,,,,,,,,,,,,,,,,,,,,,,,,,,,,,,,,,,,,,,,,,,,,
,,,,,,616ade6a0707ccefd099ac5d,62c53a495eca7ef05354f5ed,2022-07-06_09h34.42.929,Colour_Asymmetry_Pilot,2022.1.3,Win32,59.84440455,62c50e9c1127f2cd403a315f,0,156,156,35,1,twofour,,,,,,,,,,,,,,,,,,,,,,,,,,,,,,,,,,,,,,,,,,,,,,,,,,,,,,,,,,,,,,,,,,,,,,,,,,,,,,,,,,,,,,,,,,,,,,,,,,,,,,,,,,,,,,,,,,,,,,,,,,,,,,,,,,,,,,,,,,,,,,,,,,,,,,,,,,,,
,,,,,,616ade6a0707ccefd099ac5d,62c53a495eca7ef05354f5ed,2022-07-06_09h34.42.929,Colour_Asymmetry_Pilot,2022.1.3,Win32,59.84440455,62c50e9c1127f2cd403a315f,0,157,157,110,1,fourtwo,,,,,,,,,,,,,,,,,,,,,,,,,,,,,,,,,,,,,,,,,,,,,,,,,,,,,,,,,,,,,,,,,,,,,,,,,,,,,,,,,,,,,,,,,,,,,,,,,,,,,,,,,,,,,,,,,,,,,,,,,,,,,,,,,,,,,,,,,,,,,,,,,,,,,,,,,,,,
,,,,,,616ade6a0707ccefd099ac5d,62c53a495eca7ef05354f5ed,2022-07-06_09h34.42.929,Colour_Asymmetry_Pilot,2022.1.3,Win32,59.84440455,62c50e9c1127f2cd403a315f,0,158,158,66,1,twoone,,,,,,,,,,,,,,,,,,,,,,,,,,,,,,,,,,,,,,,,,,,,,,,,,,,,,,,,,,,,,,,,,,,,,,,,,,,,,,,,,,,,,,,,,,,,,,,,,,,,,,,,,,,,,,,,,,,,,,,,,,,,,,,,,,,,,,,,,,,,,,,,,,,,,,,,,,,,
,,,,,,616ade6a0707ccefd099ac5d,62c53a495eca7ef05354f5ed,2022-07-06_09h34.42.929,Colour_Asymmetry_Pilot,2022.1.3,Win32,59.84440455,62c50e9c1127f2cd403a315f,0,159,159,46,1,fourtwo,,,,,,,,,,,,,,,,,,,,,,,,,,,,,,,,,,,,,,,,,,,,,,,,,,,,,,,,,,,,,,,,,,,,,,,,,,,,,,,,,,,,,,,,,,,,,,,,,,,,,,,,,,,,,,,,,,,,,,,,,,,,,,,,,,,,,,,,,,,,,,,,,,,,,,,,,,,,
,,,,,,616ade6a0707ccefd099ac5d,62c53a495eca7ef05354f5ed,2022-07-06_09h34.42.929,Colour_Asymmetry_Pilot,2022.1.3,Win32,59.84440455,62c50e9c1127f2cd403a315f,0,160,160,53,1,threefour,,,,,,,,,,,,,,,,,,,,,,,,,,,,,,,,,,,,,,,,,,,,,,,,,,,,,,,,,,,,,,,,,,,,,,,,,,,,,,,,,,,,,,,,,,,,,,,,,,,,,,,,,,,,,,,,,,,,,,,,,,,,,,,,,,,,,,,,,,,,,,,,,,,,,,,,,,,,
,,,,,,616ade6a0707ccefd099ac5d,62c53a495eca7ef05354f5ed,2022-07-06_09h34.42.929,Colour_Asymmetry_Pilot,2022.1.3,Win32,59.84440455,62c50e9c1127f2cd403a315f,0,161,161,152,1,onetwo,,,,,,,,,,,,,,,,,,,,,,,,,,,,,,,,,,,,,,,,,,,,,,,,,,,,,,,,,,,,,,,,,,,,,,,,,,,,,,,,,,,,,,,,,,,,,,,,,,,,,,,,,,,,,,,,,,,,,,,,,,,,,,,,,,,,,,,,,,,,,,,,,,,,,,,,,,,,
,,,,,,616ade6a0707ccefd099ac5d,62c53a495eca7ef05354f5ed,2022-07-06_09h34.42.929,Colour_Asymmetry_Pilot,2022.1.3,Win32,59.84440455,62c50e9c1127f2cd403a315f,,,,,,,space,5.1536,space,74.9878,space,42.3242,space,10.806,space,2.4512,space,15.4387,"[-0.011800000000000033,-0.906,-0.45100000000000007]",fourthree,"[-0.2942,-0.7648,-0.7492000000000001]",1,7.8648,34,-91,1,0,0,response3disk_5,-20,0,1,0,0,rectangle_8,-20,0,1,0,0,4,-20,0,1,0,0,0,0,0,0,1,,,,,,,,,,,,,,,,,,,,,,,,,,,,,,,,,,,,,,,,,,,,,,,,,,,,,,,,,,,,,,,,,,,,,,,,,,,,,,,,,,,,,,,,,,,,,,,,,,,,,,,,,,,,,,,
,,,,,,616ade6a0707ccefd099ac5d,62c53a495eca7ef05354f5ed,2022-07-06_09h34.42.929,Colour_Asymmetry_Pilot,2022.1.3,Win32,59.84440455,62c50e9c1127f2cd403a315f,,,,,,,,,,,,,,,,,,,"[0.23120000000000007,-0.7726,-0.34120000000000006]",fourtwo,"[0.9763999999999999,0.30979999999999985,-0.6786]",-2,3.218,-61,-46,1,0,0,response5disk_5,-24,2,1,0,0,rectangle_8,-24,2,1,0,0,4,-24,2,1,0,0,1,0,1,0,1,,,,,,,,,,,,,,,,,,,,,,,,,,,,,,,,,,,,,,,,,,,,,,,,,,,,,,,,,,,,,,,,,,,,,,,,,,,,,,,,,,,,,,,,,,,,,,,,,,,,,,,,,,,,,,,
,,,,,,616ade6a0707ccefd099ac5d,62c53a495eca7ef05354f5ed,2022-07-06_09h34.42.929,Colour_Asymmetry_Pilot,2022.1.3,Win32,59.84440455,62c50e9c1127f2cd403a315f,,,,,,,,,,,,,,,,,,,"[0.8115999999999999,-0.0040000000000000036,-0.09819999999999995]",threeone,"[0.4196,0.4665999999999999,0.3568]",-2,1.8529,-38,-16,1,0,0,response5disk_5,-11,12,1,0,0,rectangle_8,37,92,1,0,0,4,10,-2,1,0,0,2,0,2,0,1,response1disk_7,7,rectangle_4,,,,,,,,,,,,,,,,,,,,,,,,,,,,,,,,,,,,,,,,,,,,,,,,,,,,,,,,,,,,,,,,,,,,,,,,,,,,,,,,,,,,,,,,,,,,,,,,,,,,,,,,,,,,
,,,,,,616ade6a0707ccefd099ac5d,62c53a495eca7ef05354f5ed,2022-07-06_09h34.42.929,Colour_Asymmetry_Pilot,2022.1.3,Win32,59.84440455,62c50e9c1127f2cd403a315f,,,,,,,,,,,,,,,,,,,"[-0.26280000000000003,-0.4746,-0.2158]",fourtwo,"[0.3881999999999999,-0.23939999999999995,-0.05040000000000011]",-1,3.7,-51,-53,1,0,0,response5disk_5,-9,-6,1,0,0,rectangle_8,-9,-6,1,0,0,4,-9,-6,1,0,0,3,0,3,0,1,,,,,,,,,,,,,,,,,,,,,,,,,,,,,,,,,,,,,,,,,,,,,,,,,,,,,,,,,,,,,,,,,,,,,,,,,,,,,,,,,,,,,,,,,,,,,,,,,,,,,,,,,,,,,,,
,,,,,,616ade6a0707ccefd099ac5d,62c53a495eca7ef05354f5ed,2022-07-06_09h34.42.929,Colour_Asymmetry_Pilot,2022.1.3,Win32,59.84440455,62c50e9c1127f2cd403a315f,,,,,,,,,,,,,,,,,,,"[0.3802000000000001,0.19199999999999995,-0.6394]",fourthree,"[-0.2942,-0.24719999999999998,-0.357]",-2,1.0714,-42,-30,1,0,0,response5disk_5,-13,-4,1,0,0,rectangle_8,-13,-4,1,0,0,4,-13,-4,1,0,0,4,0,4,0,1,,,,,,,,,,,,,,,,,,,,,,,,,,,,,,,,,,,,,,,,,,,,,,,,,,,,,,,,,,,,,,,,,,,,,,,,,,,,,,,,,,,,,,,,,,,,,,,,,,,,,,,,,,,,,,,
,,,,,,616ade6a0707ccefd099ac5d,62c53a495eca7ef05354f5ed,2022-07-06_09h34.42.929,Colour_Asymmetry_Pilot,2022.1.3,Win32,59.84440455,62c50e9c1127f2cd403a315f,,,,,,,,,,,,,,,,,,,"[0.3568,-0.20799999999999996,-0.9844]",threefour,"[0.04299999999999993,0.16060000000000008,-0.6628000000000001]",2,2.0513,46,-30,1,0,0,response3disk_5,-4,-2,1,0,0,rectangle_8,-4,-2,1,0,0,4,-4,-2,1,0,0,5,0,5,0,1,,,,,,,,,,,,,,,,,,,,,,,,,,,,,,,,,,,,,,,,,,,,,,,,,,,,,,,,,,,,,,,,,,,,,,,,,,,,,,,,,,,,,,,,,,,,,,,,,,,,,,,,,,,,,,,
,,,,,,616ade6a0707ccefd099ac5d,62c53a495eca7ef05354f5ed,2022-07-06_09h34.42.929,Colour_Asymmetry_Pilot,2022.1.3,Win32,59.84440455,62c50e9c1127f2cd403a315f,,,,,,,,,,,,,,,,,,,"[0.9763999999999999,-0.1137999999999999,-0.6314]",fourthree,"[-0.9688,-0.38039999999999996,-0.41979999999999995]",-1,1.1472,-32,-58,1,0,0,response5disk_5,-16,-7,1,0,0,rectangle_8,-16,-7,1,0,0,4,-16,-7,1,0,0,6,0,6,0,1,,,,,,,,,,,,,,,,,,,,,,,,,,,,,,,,,,,,,,,,,,,,,,,,,,,,,,,,,,,,,,,,,,,,,,,,,,,,,,,,,,,,,,,,,,,,,,,,,,,,,,,,,,,,,,,
,,,,,,616ade6a0707ccefd099ac5d,62c53a495eca7ef05354f5ed,2022-07-06_09h34.42.929,Colour_Asymmetry_Pilot,2022.1.3,Win32,59.84440455,62c50e9c1127f2cd403a315f,,,,,,,,,,,,,,,,,,,,fourthree,,2,2.9526,,,,,,,,,,,,,,,,,,,,,,,,,,,,,,,,space,4.0381,"[0.3802000000000001,0.19199999999999995,-0.6394]","[0.6625999999999999,0.4980000000000002,-0.357]",38,-34,1,0,0,response3disk,-26,15,1,0,0,rectangle,-26,15,1,0,0,-3,2,0.0017,0,-26,15,1,0,0,0,0,0,83,1,2,second,,,,,,,,,,,,,,,,,,,,,,,,,,,,,,,,,,,,,,,,,,,,,,,,,,,,,,,,,,,,,,,,,,,,,,,
,,,,,,616ade6a0707ccefd099ac5d,62c53a495eca7ef05354f5ed,2022-07-06_09h34.42.929,Colour_Asymmetry_Pilot,2022.1.3,Win32,59.84440455,62c50e9c1127f2cd403a315f,,,,,,,,,,,,,,,,,,,,fourthree,,2,3.4019,,,,,,,,,,,,,,,,,,,,,,,,,,,,,,,,,,"[0.0351999999999999,0.41159999999999997,0.0038000000000000256]","[-0.48240000000000005,0.3175999999999999,0.2156]",35,-30,1,0,0,response3disk,-10,0,1,0,0,rectangle,-10,0,1,0,0,-3,3,0.0016,0,-10,0,1,0,0,0,1,1,24,1,24,first,,,,,,,,,,,,,,,,,,,,,,,,,,,,,,,,,,,,,,,,,,,,,,,,,,,,,,,,,,,,,,,,,,,,,,,
,,,,,,616ade6a0707ccefd099ac5d,62c53a495eca7ef05354f5ed,2022-07-06_09h34.42.929,Colour_Asymmetry_Pilot,2022.1.3,Win32,59.84440455,62c50e9c1127f2cd403a315f,,,,,,,,,,,,,,,,,,,,twoone,,4,0.7504,,,,,,,,,,,,,,,,,,,,,,,,,,,,,,,,,,"[-0.7412000000000001,-0.08239999999999992,-0.6864]","[0.8274000000000001,-0.5844,-0.9452]",27,42,1,0,0,response1disk,14,7,1,0,0,rectangle,14,7,1,0,0,-3,2,0.0018,0,14,7,1,0,0,0,2,2,65,1,65,first,,,,,,,,,,,,,,,,,,,,,,,,,,,,,,,,,,,,,,,,,,,,,,,,,,,,,,,,,,,,,,,,,,,,,,,
,,,,,,616ade6a0707ccefd099ac5d,62c53a495eca7ef05354f5ed,2022-07-06_09h34.42.929,Colour_Asymmetry_Pilot,2022.1.3,Win32,59.84440455,62c50e9c1127f2cd403a315f,,,,,,,,,,,,,,,,,,,,fourtwo,,-2,2.8179,,,,,,,,,,,,,,,,,,,,,,,,,,,,,,,,,,"[0.9763999999999999,0.8588,-0.05900000000000005]","[-0.20799999999999996,-0.655,-0.01980000000000004]",-54,-52,1,0,0,response5disk,-6,-4,1,0,0,rectangle,-6,-4,1,0,0,-3,1,0.0015,0,-6,-4,1,0,0,0,3,3,117,1,36,second,,,,,,,,,,,,,,,,,,,,,,,,,,,,,,,,,,,,,,,,,,,,,,,,,,,,,,,,,,,,,,,,,,,,,,,
,,,,,,616ade6a0707ccefd099ac5d,62c53a495eca7ef05354f5ed,2022-07-06_09h34.42.929,Colour_Asymmetry_Pilot,2022.1.3,Win32,59.84440455,62c50e9c1127f2cd403a315f,,,,,,,,,,,,,,,,,,,,fourtwo,,-1,0.5999,,,,,,,,,,,,,,,,,,,,,,,,,,,,,,,,,,"[-0.4668,-0.8746,-0.2942]","[0.11359999999999992,0.6312,0.5213999999999999]",-45,-66,1,0,0,response5disk,-11,-1,1,0,0,rectangle,58,-27,1,0,0,2,2,5.6532,1,18,7,1,0,0,0,4,4,76,1,76,first,response3disk_3,rectangle,,,,,,,,,,,,,,,,,,,,,,,,,,,,,,,,,,,,,,,,,,,,,,,,,,,,,,,,,,,,,,,,,,,,,
,,,,,,616ade6a0707ccefd099ac5d,62c53a495eca7ef05354f5ed,2022-07-06_09h34.42.929,Colour_Asymmetry_Pilot,2022.1.3,Win32,59.84440455,62c50e9c1127f2cd403a315f,,,,,,,,,,,,,,,,,,,,threeone,,-2,1.1172,,,,,,,,,,,,,,,,,,,,,,,,,,,,,,,,,,"[0.19199999999999995,0.18419999999999992,0.5136000000000001]","[-0.17659999999999998,-0.2864,-0.8354]",-55,-53,1,0,0,response5disk,5,-7,1,0,0,rectangle,29,-74,1,0,0,1,1,2.7981,1,-4,1,1,0,0,0,5,5,97,1,16,second,response3disk_3,rectangle,,,,,,,,,,,,,,,,,,,,,,,,,,,,,,,,,,,,,,,,,,,,,,,,,,,,,,,,,,,,,,,,,,,,,
,,,,,,616ade6a0707ccefd099ac5d,62c53a495eca7ef05354f5ed,2022-07-06_09h34.42.929,Colour_Asymmetry_Pilot,2022.1.3,Win32,59.84440455,62c50e9c1127f2cd403a315f,,,,,,,,,,,,,,,,,,,,threeone,,-1,0.7036,,,,,,,,,,,,,,,,,,,,,,,,,,,,,,,,,,"[-0.48240000000000005,0.3175999999999999,0.2156]","[-0.9216,-0.5529999999999999,-0.3962]",-41,-41,1,0,0,response5disk,-4,8,1,0,0,rectangle,-4,8,1,0,0,1,3,0.0009,0,-4,8,1,0,0,0,6,6,118,1,37,second,,,,,,,,,,,,,,,,,,,,,,,,,,,,,,,,,,,,,,,,,,,,,,,,,,,,,,,,,,,,,,,,,,,,,,,
,,,,,,616ade6a0707ccefd099ac5d,62c53a495eca7ef05354f5ed,2022-07-06_09h34.42.929,Colour_Asymmetry_Pilot,2022.1.3,Win32,59.84440455,62c50e9c1127f2cd403a315f,,,,,,,,,,,,,,,,,,,,twoone,,-1,0.3676,,,,,,,,,,,,,,,,,,,,,,,,,,,,,,,,,,"[-0.5688,-0.08239999999999992,-0.1844]","[0.9686000000000001,0.3802000000000001,0.19999999999999996]",-60,-81,1,0,0,response5disk,10,-6,1,0,0,rectangle,10,-6,1,0,0,1,3,0.0001,0,10,-6,1,0,0,0,7,7,91,1,10,second,,,,,,,,,,,,,,,,,,,,,,,,,,,,,,,,,,,,,,,,,,,,,,,,,,,,,,,,,,,,,,,,,,,,,,,
,,,,,,616ade6a0707ccefd099ac5d,62c53a495eca7ef05354f5ed,2022-07-06_09h34.42.929,Colour_Asymmetry_Pilot,2022.1.3,Win32,59.84440455,62c50e9c1127f2cd403a315f,,,,,,,,,,,,,,,,,,,,fourtwo,,-1,5.1032,,,,,,,,,,,,,,,,,,,,,,,,,,,,,,,,,,"[0.2862,0.7802,0.3568]","[-0.9844,-0.9688,-0.9922]",-21,-62,1,0,0,response5disk,17,-9,1,0,0,rectangle,17,-9,1,0,0,1,1,0.0007,0,17,-9,1,0,0,0,8,8,99,1,18,second,,,,,,,,,,,,,,,,,,,,,,,,,,,,,,,,,,,,,,,,,,,,,,,,,,,,,,,,,,,,,,,,,,,,,,,
,,,,,,616ade6a0707ccefd099ac5d,62c53a495eca7ef05354f5ed,2022-07-06_09h34.42.929,Colour_Asymmetry_Pilot,2022.1.3,Win32,59.84440455,62c50e9c1127f2cd403a315f,,,,,,,,,,,,,,,,,,,,onethree,,-1,2.3841,,,,,,,,,,,,,,,,,,,,,,,,,,,,,,,,,,"[-0.06680000000000008,-0.45100000000000007,-0.906]","[-0.9138,-0.5296000000000001,-0.5529999999999999]",-38,-49,1,0,0,response5disk,-1,-7,1,0,0,rectangle,-1,-7,1,0,0,1,3,0.0008,0,-1,-7,1,0,0,0,9,9,39,1,39,first,,,,,,,,,,,,,,,,,,,,,,,,,,,,,,,,,,,,,,,,,,,,,,,,,,,,,,,,,,,,,,,,,,,,,,,
,,,,,,616ade6a0707ccefd099ac5d,62c53a495eca7ef05354f5ed,2022-07-06_09h34.42.929,Colour_Asymmetry_Pilot,2022.1.3,Win32,59.84440455,62c50e9c1127f2cd403a315f,,,,,,,,,,,,,,,,,,,,fourthree,,-1,1.1382,,,,,,,,,,,,,,,,,,,,,,,,,,,,,,,,,,"[0.7646000000000002,0.07440000000000002,0.2704]","[0.18419999999999992,-0.4276,-0.404]",-35,-49,1,0,0,response5disk,-26,-2,1,0,0,rectangle,-26,-2,1,0,0,1,2,0.0006,0,-26,-2,1,0,0,0,10,10,93,1,12,second,,,,,,,,,,,,,,,,,,,,,,,,,,,,,,,,,,,,,,,,,,,,,,,,,,,,,,,,,,,,,,,,,,,,,,,
,,,,,,616ade6a0707ccefd099ac5d,62c53a495eca7ef05354f5ed,2022-07-06_09h34.42.929,Colour_Asymmetry_Pilot,2022.1.3,Win32,59.84440455,62c50e9c1127f2cd403a315f,,,,,,,,,,,,,,,,,,,,twofour,,-1,1.3985,,,,,,,,,,,,,,,,,,,,,,,,,,,,,,,,,,"[0.37240000000000006,-0.050999999999999934,-0.5216]","[-0.0040000000000000036,0.02739999999999987,-0.08239999999999992]",-24,-27,1,0,0,response5disk,-3,5,1,0,0,rectangle,-3,5,1,0,0,1,3,0.0007,0,-3,5,1,0,0,0,11,11,58,1,58,first,,,,,,,,,,,,,,,,,,,,,,,,,,,,,,,,,,,,,,,,,,,,,,,,,,,,,,,,,,,,,,,,,,,,,,,
,,,,,,616ade6a0707ccefd099ac5d,62c53a495eca7ef05354f5ed,2022-07-06_09h34.42.929,Colour_Asymmetry_Pilot,2022.1.3,Win32,59.84440455,62c50e9c1127f2cd403a315f,,,,,,,,,,,,,,,,,,,,twoone,,-1,0.5004,,,,,,,,,,,,,,,,,,,,,,,,,,,,,,,,,,"[0.9686000000000001,0.3802000000000001,0.19999999999999996]","[-0.5688,-0.08239999999999992,-0.1844]",-36,-51,1,0,0,response5disk,-8,12,1,0,0,rectangle,-8,12,1,0,0,1,2,0.0008,0,-8,12,1,0,0,0,12,12,10,1,10,first,,,,,,,,,,,,,,,,,,,,,,,,,,,,,,,,,,,,,,,,,,,,,,,,,,,,,,,,,,,,,,,,,,,,,,,
,,,,,,616ade6a0707ccefd099ac5d,62c53a495eca7ef05354f5ed,2022-07-06_09h34.42.929,Colour_Asymmetry_Pilot,2022.1.3,Win32,59.84440455,62c50e9c1127f2cd403a315f,,,,,,,,,,,,,,,,,,,,fourthree,,-1,0.401,,,,,,,,,,,,,,,,,,,,,,,,,,,,,,,,,,"[-0.6235999999999999,-0.6786,-0.08239999999999992]","[-0.6,0.16860000000000008,0.44300000000000006]",-23,-48,1,0,0,response5disk,1,4,1,0,0,rectangle,1,4,1,0,0,1,1,0.0009,0,1,4,1,0,0,0,13,13,86,1,5,second,,,,,,,,,,,,,,,,,,,,,,,,,,,,,,,,,,,,,,,,,,,,,,,,,,,,,,,,,,,,,,,,,,,,,,,
,,,,,,616ade6a0707ccefd099ac5d,62c53a495eca7ef05354f5ed,2022-07-06_09h34.42.929,Colour_Asymmetry_Pilot,2022.1.3,Win32,59.84440455,62c50e9c1127f2cd403a315f,,,,,,,,,,,,,,,,,,,,onetwo,,-1,0.5645,,,,,,,,,,,,,,,,,,,,,,,,,,,,,,,,,,"[0.7646000000000002,0.07440000000000002,0.2704]","[0.9763999999999999,0.8588,-0.05900000000000005]",-24,-75,1,0,0,response5disk,-11,15,1,0,0,rectangle,-11,15,1,0,0,1,1,0.0003,0,-11,15,1,0,0,0,14,14,106,1,25,second,,,,,,,,,,,,,,,,,,,,,,,,,,,,,,,,,,,,,,,,,,,,,,,,,,,,,,,,,,,,,,,,,,,,,,,
,,,,,,616ade6a0707ccefd099ac5d,62c53a495eca7ef05354f5ed,2022-07-06_09h34.42.929,Colour_Asymmetry_Pilot,2022.1.3,Win32,59.84440455,62c50e9c1127f2cd403a315f,,,,,,,,,,,,,,,,,,,,fourtwo,,-1,0.3179,,,,,,,,,,,,,,,,,,,,,,,,,,,,,,,,,,"[-0.9138,-0.5296000000000001,-0.5529999999999999]","[0.9763999999999999,0.8588,-0.05900000000000005]",-26,-70,1,0,0,response5disk,-3,12,1,0,0,rectangle,-3,12,1,0,0,1,3,0.0008,0,-3,12,1,0,0,0,15,15,119,1,38,second,,,,,,,,,,,,,,,,,,,,,,,,,,,,,,,,,,,,,,,,,,,,,,,,,,,,,,,,,,,,,,,,,,,,,,,
,,,,,,616ade6a0707ccefd099ac5d,62c53a495eca7ef05354f5ed,2022-07-06_09h34.42.929,Colour_Asymmetry_Pilot,2022.1.3,Win32,59.84440455,62c50e9c1127f2cd403a315f,,,,,,,,,,,,,,,,,,,,fourthree,,-1,0.4351,,,,,,,,,,,,,,,,,,,,,,,,,,,,,,,,,,"[-0.10599999999999998,-0.15300000000000002,0.15280000000000005]","[0.6625999999999999,0.4980000000000002,-0.357]",-38,-62,1,0,0,response5disk,-17,-8,1,0,0,rectangle,-17,-8,1,0,0,1,3,9.99999E-05,0,-17,-8,1,0,0,0,16,16,113,1,32,second,,,,,,,,,,,,,,,,,,,,,,,,,,,,,,,,,,,,,,,,,,,,,,,,,,,,,,,,,,,,,,,,,,,,,,,
,,,,,,616ade6a0707ccefd099ac5d,62c53a495eca7ef05354f5ed,2022-07-06_09h34.42.929,Colour_Asymmetry_Pilot,2022.1.3,Win32,59.84440455,62c50e9c1127f2cd403a315f,,,,,,,,,,,,,,,,,,,,onethree,,-1,0.4027,,,,,,,,,,,,,,,,,,,,,,,,,,,,,,,,,,"[0.9372,0.20779999999999998,0.2704]","[-0.9138,-0.5296000000000001,-0.5529999999999999]",-48,-81,1,0,0,response5disk,-20,-4,1,0,0,rectangle,-20,-4,1,0,0,1,1,0.0007,0,-20,-4,1,0,0,0,17,17,115,1,34,second,,,,,,,,,,,,,,,,,,,,,,,,,,,,,,,,,,,,,,,,,,,,,,,,,,,,,,,,,,,,,,,,,,,,,,,
