trials.thisRepN,trials.thisTrialN,trials.thisN,trials.thisIndex,trials.ran,Colourcodes,participant,session,date,expName,psychopyVersion,OS,frameRate,study_id,trials_4.thisRepN,trials_4.thisTrialN,trials_4.thisN,trials_4.thisIndex,trials_4.ran,StimulusPos,key_resp.keys,key_resp.rt,key_resp_2.keys,key_resp_2.rt,key_resp_15.keys,key_resp_15.rt,key_resp_17.keys,key_resp_17.rt,key_resp_9.keys,key_resp_9.rt,key_resp_10.keys,key_resp_10.rt,Circle1_col,Ecc,Circle2_col,similarity,response_time,mouse_5.x,mouse_5.y,mouse_5.leftButton,mouse_5.midButton,mouse_5.rightButton,mouse_5.clicked_name,mouse_10.x,mouse_10.y,mouse_10.leftButton,mouse_10.midButton,mouse_10.rightButton,mouse_10.clicked_name,mouse_7.x,mouse_7.y,mouse_7.leftButton,mouse_7.midButton,mouse_7.rightButton,catchnumberprac,mouse_6.x,mouse_6.y,mouse_6.leftButton,mouse_6.midButton,mouse_6.rightButton,duringprac.thisRepN,duringprac.thisTrialN,duringprac.thisN,duringprac.thisIndex,duringprac.ran,mouse_7.clicked_name,catchprac,mouse_6.clicked_name,key_resp_22.keys,key_resp_22.rt,Circle1_colour,Circle2_colour,mouse.x,mouse.y,mouse.leftButton,mouse.midButton,mouse.rightButton,mouse.clicked_name,mouse_2.x,mouse_2.y,mouse_2.leftButton,mouse_2.midButton,mouse_2.rightButton,mouse_2.clicked_name,mouse_3.x,mouse_3.y,mouse_3.leftButton,mouse_3.midButton,mouse_3.rightButton,catchresponse,catchnumber,response_time_catch,Catch,mouse_11.x,mouse_11.y,mouse_11.leftButton,mouse_11.midButton,mouse_11.rightButton,trials_2.thisRepN,trials_2.thisTrialN,trials_2.thisN,trials_2.thisIndex,trials_2.ran,Colourpair,Temporder,mouse_3.clicked_name,mouse_11.clicked_name,trials_3.thisRepN,trials_3.thisTrialN,trials_3.thisN,trials_3.thisIndex,trials_3.ran,key_resp_instr_Ishi.keys,key_resp_instr_Ishi.rt,Ishi_trial_keyresp.keys,Ishi_trial_keyresp.rt,Ishi_textbox.text,Ishi_mouse.x,Ishi_mouse.y,Ishi_mouse.leftButton,Ishi_mouse.midButton,Ishi_mouse.rightButton,Ishi_loop.thisRepN,Ishi_loop.thisTrialN,Ishi_loop.thisN,Ishi_loop.thisIndex,Ishi_loop.ran,imageaddress,textbox.text,mouse_4.x,mouse_4.y,mouse_4.leftButton,mouse_4.midButton,mouse_4.rightButton,mouse_4.clicked_name,textbox_2.text,mouse_8.x,mouse_8.y,mouse_8.leftButton,mouse_8.midButton,mouse_8.rightButton,mouse_8.clicked_name,textbox_3.text,mouse_9.x,mouse_9.y,mouse_9.leftButton,mouse_9.midButton,mouse_9.rightButton,mouse_9.clicked_name,textbox_4.text,mouse_12.x,mouse_12.y,mouse_12.leftButton,mouse_12.midButton,mouse_12.rightButton,mouse_12.clicked_name,textbox_5.text,mouse_13.x,mouse_13.y,mouse_13.leftButton,mouse_13.midButton,mouse_13.rightButton,mouse_13.clicked_name,textbox_6.text,mouse_14.x,mouse_14.y,mouse_14.leftButton,mouse_14.midButton,mouse_14.rightButton,mouse_14.clicked_name,textbox_7.text,mouse_15.x,mouse_15.y,mouse_15.leftButton,mouse_15.midButton,mouse_15.rightButton,mouse_15.clicked_name
0,0,0,82,1,,61633b443e445822fb1f24c9,62c53cd057ad50af44d9d107,2022-07-06_10h21.03.368,Colour_Asymmetry_Pilot,2022.1.3,Win32,11.49425287,62c50e9c1127f2cd403a315f,,,,,,,,,,,,,,,,,,,,,,,,,,,,,,,,,,,,,,,,,,,,,,,,,,,,,,,,,,,,,,,,,,,,,,,,,,,,,,,,,,,,,,,,,,,,,,,,,,,,,,,,,,,,,,,,,,,,,,,,,,,,,,,,,,,,,,,,,,,,,,,,,,,,,,,,,,,,,,,,,,,
0,1,1,63,1,,61633b443e445822fb1f24c9,62c53cd057ad50af44d9d107,2022-07-06_10h21.03.368,Colour_Asymmetry_Pilot,2022.1.3,Win32,11.49425287,62c50e9c1127f2cd403a315f,,,,,,,,,,,,,,,,,,,,,,,,,,,,,,,,,,,,,,,,,,,,,,,,,,,,,,,,,,,,,,,,,,,,,,,,,,,,,,,,,,,,,,,,,,,,,,,,,,,,,,,,,,,,,,,,,,,,,,,,,,,,,,,,,,,,,,,,,,,,,,,,,,,,,,,,,,,,,,,,,,,
0,2,2,90,1,,61633b443e445822fb1f24c9,62c53cd057ad50af44d9d107,2022-07-06_10h21.03.368,Colour_Asymmetry_Pilot,2022.1.3,Win32,11.49425287,62c50e9c1127f2cd403a315f,,,,,,,,,,,,,,,,,,,,,,,,,,,,,,,,,,,,,,,,,,,,,,,,,,,,,,,,,,,,,,,,,,,,,,,,,,,,,,,,,,,,,,,,,,,,,,,,,,,,,,,,,,,,,,,,,,,,,,,,,,,,,,,,,,,,,,,,,,,,,,,,,,,,,,,,,,,,,,,,,,,
0,3,3,28,1,,61633b443e445822fb1f24c9,62c53cd057ad50af44d9d107,2022-07-06_10h21.03.368,Colour_Asymmetry_Pilot,2022.1.3,Win32,11.49425287,62c50e9c1127f2cd403a315f,,,,,,,,,,,,,,,,,,,,,,,,,,,,,,,,,,,,,,,,,,,,,,,,,,,,,,,,,,,,,,,,,,,,,,,,,,,,,,,,,,,,,,,,,,,,,,,,,,,,,,,,,,,,,,,,,,,,,,,,,,,,,,,,,,,,,,,,,,,,,,,,,,,,,,,,,,,,,,,,,,,
0,4,4,29,1,,61633b443e445822fb1f24c9,62c53cd057ad50af44d9d107,2022-07-06_10h21.03.368,Colour_Asymmetry_Pilot,2022.1.3,Win32,11.49425287,62c50e9c1127f2cd403a315f,,,,,,,,,,,,,,,,,,,,,,,,,,,,,,,,,,,,,,,,,,,,,,,,,,,,,,,,,,,,,,,,,,,,,,,,,,,,,,,,,,,,,,,,,,,,,,,,,,,,,,,,,,,,,,,,,,,,,,,,,,,,,,,,,,,,,,,,,,,,,,,,,,,,,,,,,,,,,,,,,,,
0,5,5,10,1,,61633b443e445822fb1f24c9,62c53cd057ad50af44d9d107,2022-07-06_10h21.03.368,Colour_Asymmetry_Pilot,2022.1.3,Win32,11.49425287,62c50e9c1127f2cd403a315f,,,,,,,,,,,,,,,,,,,,,,,,,,,,,,,,,,,,,,,,,,,,,,,,,,,,,,,,,,,,,,,,,,,,,,,,,,,,,,,,,,,,,,,,,,,,,,,,,,,,,,,,,,,,,,,,,,,,,,,,,,,,,,,,,,,,,,,,,,,,,,,,,,,,,,,,,,,,,,,,,,,
0,6,6,19,1,,61633b443e445822fb1f24c9,62c53cd057ad50af44d9d107,2022-07-06_10h21.03.368,Colour_Asymmetry_Pilot,2022.1.3,Win32,11.49425287,62c50e9c1127f2cd403a315f,,,,,,,,,,,,,,,,,,,,,,,,,,,,,,,,,,,,,,,,,,,,,,,,,,,,,,,,,,,,,,,,,,,,,,,,,,,,,,,,,,,,,,,,,,,,,,,,,,,,,,,,,,,,,,,,,,,,,,,,,,,,,,,,,,,,,,,,,,,,,,,,,,,,,,,,,,,,,,,,,,,
0,7,7,62,1,,61633b443e445822fb1f24c9,62c53cd057ad50af44d9d107,2022-07-06_10h21.03.368,Colour_Asymmetry_Pilot,2022.1.3,Win32,11.49425287,62c50e9c1127f2cd403a315f,,,,,,,,,,,,,,,,,,,,,,,,,,,,,,,,,,,,,,,,,,,,,,,,,,,,,,,,,,,,,,,,,,,,,,,,,,,,,,,,,,,,,,,,,,,,,,,,,,,,,,,,,,,,,,,,,,,,,,,,,,,,,,,,,,,,,,,,,,,,,,,,,,,,,,,,,,,,,,,,,,,
0,8,8,18,1,,61633b443e445822fb1f24c9,62c53cd057ad50af44d9d107,2022-07-06_10h21.03.368,Colour_Asymmetry_Pilot,2022.1.3,Win32,11.49425287,62c50e9c1127f2cd403a315f,,,,,,,,,,,,,,,,,,,,,,,,,,,,,,,,,,,,,,,,,,,,,,,,,,,,,,,,,,,,,,,,,,,,,,,,,,,,,,,,,,,,,,,,,,,,,,,,,,,,,,,,,,,,,,,,,,,,,,,,,,,,,,,,,,,,,,,,,,,,,,,,,,,,,,,,,,,,,,,,,,,
0,9,9,43,1,,61633b443e445822fb1f24c9,62c53cd057ad50af44d9d107,2022-07-06_10h21.03.368,Colour_Asymmetry_Pilot,2022.1.3,Win32,11.49425287,62c50e9c1127f2cd403a315f,,,,,,,,,,,,,,,,,,,,,,,,,,,,,,,,,,,,,,,,,,,,,,,,,,,,,,,,,,,,,,,,,,,,,,,,,,,,,,,,,,,,,,,,,,,,,,,,,,,,,,,,,,,,,,,,,,,,,,,,,,,,,,,,,,,,,,,,,,,,,,,,,,,,,,,,,,,,,,,,,,,
0,10,10,79,1,,61633b443e445822fb1f24c9,62c53cd057ad50af44d9d107,2022-07-06_10h21.03.368,Colour_Asymmetry_Pilot,2022.1.3,Win32,11.49425287,62c50e9c1127f2cd403a315f,,,,,,,,,,,,,,,,,,,,,,,,,,,,,,,,,,,,,,,,,,,,,,,,,,,,,,,,,,,,,,,,,,,,,,,,,,,,,,,,,,,,,,,,,,,,,,,,,,,,,,,,,,,,,,,,,,,,,,,,,,,,,,,,,,,,,,,,,,,,,,,,,,,,,,,,,,,,,,,,,,,
0,11,11,40,1,,61633b443e445822fb1f24c9,62c53cd057ad50af44d9d107,2022-07-06_10h21.03.368,Colour_Asymmetry_Pilot,2022.1.3,Win32,11.49425287,62c50e9c1127f2cd403a315f,,,,,,,,,,,,,,,,,,,,,,,,,,,,,,,,,,,,,,,,,,,,,,,,,,,,,,,,,,,,,,,,,,,,,,,,,,,,,,,,,,,,,,,,,,,,,,,,,,,,,,,,,,,,,,,,,,,,,,,,,,,,,,,,,,,,,,,,,,,,,,,,,,,,,,,,,,,,,,,,,,,
0,12,12,20,1,,61633b443e445822fb1f24c9,62c53cd057ad50af44d9d107,2022-07-06_10h21.03.368,Colour_Asymmetry_Pilot,2022.1.3,Win32,11.49425287,62c50e9c1127f2cd403a315f,,,,,,,,,,,,,,,,,,,,,,,,,,,,,,,,,,,,,,,,,,,,,,,,,,,,,,,,,,,,,,,,,,,,,,,,,,,,,,,,,,,,,,,,,,,,,,,,,,,,,,,,,,,,,,,,,,,,,,,,,,,,,,,,,,,,,,,,,,,,,,,,,,,,,,,,,,,,,,,,,,,
0,13,13,15,1,,61633b443e445822fb1f24c9,62c53cd057ad50af44d9d107,2022-07-06_10h21.03.368,Colour_Asymmetry_Pilot,2022.1.3,Win32,11.49425287,62c50e9c1127f2cd403a315f,,,,,,,,,,,,,,,,,,,,,,,,,,,,,,,,,,,,,,,,,,,,,,,,,,,,,,,,,,,,,,,,,,,,,,,,,,,,,,,,,,,,,,,,,,,,,,,,,,,,,,,,,,,,,,,,,,,,,,,,,,,,,,,,,,,,,,,,,,,,,,,,,,,,,,,,,,,,,,,,,,,
0,14,14,59,1,,61633b443e445822fb1f24c9,62c53cd057ad50af44d9d107,2022-07-06_10h21.03.368,Colour_Asymmetry_Pilot,2022.1.3,Win32,11.49425287,62c50e9c1127f2cd403a315f,,,,,,,,,,,,,,,,,,,,,,,,,,,,,,,,,,,,,,,,,,,,,,,,,,,,,,,,,,,,,,,,,,,,,,,,,,,,,,,,,,,,,,,,,,,,,,,,,,,,,,,,,,,,,,,,,,,,,,,,,,,,,,,,,,,,,,,,,,,,,,,,,,,,,,,,,,,,,,,,,,,
0,15,15,22,1,,61633b443e445822fb1f24c9,62c53cd057ad50af44d9d107,2022-07-06_10h21.03.368,Colour_Asymmetry_Pilot,2022.1.3,Win32,11.49425287,62c50e9c1127f2cd403a315f,,,,,,,,,,,,,,,,,,,,,,,,,,,,,,,,,,,,,,,,,,,,,,,,,,,,,,,,,,,,,,,,,,,,,,,,,,,,,,,,,,,,,,,,,,,,,,,,,,,,,,,,,,,,,,,,,,,,,,,,,,,,,,,,,,,,,,,,,,,,,,,,,,,,,,,,,,,,,,,,,,,
0,16,16,33,1,,61633b443e445822fb1f24c9,62c53cd057ad50af44d9d107,2022-07-06_10h21.03.368,Colour_Asymmetry_Pilot,2022.1.3,Win32,11.49425287,62c50e9c1127f2cd403a315f,,,,,,,,,,,,,,,,,,,,,,,,,,,,,,,,,,,,,,,,,,,,,,,,,,,,,,,,,,,,,,,,,,,,,,,,,,,,,,,,,,,,,,,,,,,,,,,,,,,,,,,,,,,,,,,,,,,,,,,,,,,,,,,,,,,,,,,,,,,,,,,,,,,,,,,,,,,,,,,,,,,
0,17,17,77,1,,61633b443e445822fb1f24c9,62c53cd057ad50af44d9d107,2022-07-06_10h21.03.368,Colour_Asymmetry_Pilot,2022.1.3,Win32,11.49425287,62c50e9c1127f2cd403a315f,,,,,,,,,,,,,,,,,,,,,,,,,,,,,,,,,,,,,,,,,,,,,,,,,,,,,,,,,,,,,,,,,,,,,,,,,,,,,,,,,,,,,,,,,,,,,,,,,,,,,,,,,,,,,,,,,,,,,,,,,,,,,,,,,,,,,,,,,,,,,,,,,,,,,,,,,,,,,,,,,,,
0,18,18,38,1,,61633b443e445822fb1f24c9,62c53cd057ad50af44d9d107,2022-07-06_10h21.03.368,Colour_Asymmetry_Pilot,2022.1.3,Win32,11.49425287,62c50e9c1127f2cd403a315f,,,,,,,,,,,,,,,,,,,,,,,,,,,,,,,,,,,,,,,,,,,,,,,,,,,,,,,,,,,,,,,,,,,,,,,,,,,,,,,,,,,,,,,,,,,,,,,,,,,,,,,,,,,,,,,,,,,,,,,,,,,,,,,,,,,,,,,,,,,,,,,,,,,,,,,,,,,,,,,,,,,
0,19,19,58,1,,61633b443e445822fb1f24c9,62c53cd057ad50af44d9d107,2022-07-06_10h21.03.368,Colour_Asymmetry_Pilot,2022.1.3,Win32,11.49425287,62c50e9c1127f2cd403a315f,,,,,,,,,,,,,,,,,,,,,,,,,,,,,,,,,,,,,,,,,,,,,,,,,,,,,,,,,,,,,,,,,,,,,,,,,,,,,,,,,,,,,,,,,,,,,,,,,,,,,,,,,,,,,,,,,,,,,,,,,,,,,,,,,,,,,,,,,,,,,,,,,,,,,,,,,,,,,,,,,,,
0,20,20,66,1,,61633b443e445822fb1f24c9,62c53cd057ad50af44d9d107,2022-07-06_10h21.03.368,Colour_Asymmetry_Pilot,2022.1.3,Win32,11.49425287,62c50e9c1127f2cd403a315f,,,,,,,,,,,,,,,,,,,,,,,,,,,,,,,,,,,,,,,,,,,,,,,,,,,,,,,,,,,,,,,,,,,,,,,,,,,,,,,,,,,,,,,,,,,,,,,,,,,,,,,,,,,,,,,,,,,,,,,,,,,,,,,,,,,,,,,,,,,,,,,,,,,,,,,,,,,,,,,,,,,
0,21,21,7,1,,61633b443e445822fb1f24c9,62c53cd057ad50af44d9d107,2022-07-06_10h21.03.368,Colour_Asymmetry_Pilot,2022.1.3,Win32,11.49425287,62c50e9c1127f2cd403a315f,,,,,,,,,,,,,,,,,,,,,,,,,,,,,,,,,,,,,,,,,,,,,,,,,,,,,,,,,,,,,,,,,,,,,,,,,,,,,,,,,,,,,,,,,,,,,,,,,,,,,,,,,,,,,,,,,,,,,,,,,,,,,,,,,,,,,,,,,,,,,,,,,,,,,,,,,,,,,,,,,,,
0,22,22,31,1,,61633b443e445822fb1f24c9,62c53cd057ad50af44d9d107,2022-07-06_10h21.03.368,Colour_Asymmetry_Pilot,2022.1.3,Win32,11.49425287,62c50e9c1127f2cd403a315f,,,,,,,,,,,,,,,,,,,,,,,,,,,,,,,,,,,,,,,,,,,,,,,,,,,,,,,,,,,,,,,,,,,,,,,,,,,,,,,,,,,,,,,,,,,,,,,,,,,,,,,,,,,,,,,,,,,,,,,,,,,,,,,,,,,,,,,,,,,,,,,,,,,,,,,,,,,,,,,,,,,
0,23,23,36,1,,61633b443e445822fb1f24c9,62c53cd057ad50af44d9d107,2022-07-06_10h21.03.368,Colour_Asymmetry_Pilot,2022.1.3,Win32,11.49425287,62c50e9c1127f2cd403a315f,,,,,,,,,,,,,,,,,,,,,,,,,,,,,,,,,,,,,,,,,,,,,,,,,,,,,,,,,,,,,,,,,,,,,,,,,,,,,,,,,,,,,,,,,,,,,,,,,,,,,,,,,,,,,,,,,,,,,,,,,,,,,,,,,,,,,,,,,,,,,,,,,,,,,,,,,,,,,,,,,,,
0,24,24,25,1,,61633b443e445822fb1f24c9,62c53cd057ad50af44d9d107,2022-07-06_10h21.03.368,Colour_Asymmetry_Pilot,2022.1.3,Win32,11.49425287,62c50e9c1127f2cd403a315f,,,,,,,,,,,,,,,,,,,,,,,,,,,,,,,,,,,,,,,,,,,,,,,,,,,,,,,,,,,,,,,,,,,,,,,,,,,,,,,,,,,,,,,,,,,,,,,,,,,,,,,,,,,,,,,,,,,,,,,,,,,,,,,,,,,,,,,,,,,,,,,,,,,,,,,,,,,,,,,,,,,
0,25,25,72,1,,61633b443e445822fb1f24c9,62c53cd057ad50af44d9d107,2022-07-06_10h21.03.368,Colour_Asymmetry_Pilot,2022.1.3,Win32,11.49425287,62c50e9c1127f2cd403a315f,,,,,,,,,,,,,,,,,,,,,,,,,,,,,,,,,,,,,,,,,,,,,,,,,,,,,,,,,,,,,,,,,,,,,,,,,,,,,,,,,,,,,,,,,,,,,,,,,,,,,,,,,,,,,,,,,,,,,,,,,,,,,,,,,,,,,,,,,,,,,,,,,,,,,,,,,,,,,,,,,,,
0,26,26,47,1,,61633b443e445822fb1f24c9,62c53cd057ad50af44d9d107,2022-07-06_10h21.03.368,Colour_Asymmetry_Pilot,2022.1.3,Win32,11.49425287,62c50e9c1127f2cd403a315f,,,,,,,,,,,,,,,,,,,,,,,,,,,,,,,,,,,,,,,,,,,,,,,,,,,,,,,,,,,,,,,,,,,,,,,,,,,,,,,,,,,,,,,,,,,,,,,,,,,,,,,,,,,,,,,,,,,,,,,,,,,,,,,,,,,,,,,,,,,,,,,,,,,,,,,,,,,,,,,,,,,
0,27,27,37,1,,61633b443e445822fb1f24c9,62c53cd057ad50af44d9d107,2022-07-06_10h21.03.368,Colour_Asymmetry_Pilot,2022.1.3,Win32,11.49425287,62c50e9c1127f2cd403a315f,,,,,,,,,,,,,,,,,,,,,,,,,,,,,,,,,,,,,,,,,,,,,,,,,,,,,,,,,,,,,,,,,,,,,,,,,,,,,,,,,,,,,,,,,,,,,,,,,,,,,,,,,,,,,,,,,,,,,,,,,,,,,,,,,,,,,,,,,,,,,,,,,,,,,,,,,,,,,,,,,,,
0,28,28,24,1,,61633b443e445822fb1f24c9,62c53cd057ad50af44d9d107,2022-07-06_10h21.03.368,Colour_Asymmetry_Pilot,2022.1.3,Win32,11.49425287,62c50e9c1127f2cd403a315f,,,,,,,,,,,,,,,,,,,,,,,,,,,,,,,,,,,,,,,,,,,,,,,,,,,,,,,,,,,,,,,,,,,,,,,,,,,,,,,,,,,,,,,,,,,,,,,,,,,,,,,,,,,,,,,,,,,,,,,,,,,,,,,,,,,,,,,,,,,,,,,,,,,,,,,,,,,,,,,,,,,
0,29,29,61,1,,61633b443e445822fb1f24c9,62c53cd057ad50af44d9d107,2022-07-06_10h21.03.368,Colour_Asymmetry_Pilot,2022.1.3,Win32,11.49425287,62c50e9c1127f2cd403a315f,,,,,,,,,,,,,,,,,,,,,,,,,,,,,,,,,,,,,,,,,,,,,,,,,,,,,,,,,,,,,,,,,,,,,,,,,,,,,,,,,,,,,,,,,,,,,,,,,,,,,,,,,,,,,,,,,,,,,,,,,,,,,,,,,,,,,,,,,,,,,,,,,,,,,,,,,,,,,,,,,,,
0,30,30,32,1,,61633b443e445822fb1f24c9,62c53cd057ad50af44d9d107,2022-07-06_10h21.03.368,Colour_Asymmetry_Pilot,2022.1.3,Win32,11.49425287,62c50e9c1127f2cd403a315f,,,,,,,,,,,,,,,,,,,,,,,,,,,,,,,,,,,,,,,,,,,,,,,,,,,,,,,,,,,,,,,,,,,,,,,,,,,,,,,,,,,,,,,,,,,,,,,,,,,,,,,,,,,,,,,,,,,,,,,,,,,,,,,,,,,,,,,,,,,,,,,,,,,,,,,,,,,,,,,,,,,
0,31,31,34,1,,61633b443e445822fb1f24c9,62c53cd057ad50af44d9d107,2022-07-06_10h21.03.368,Colour_Asymmetry_Pilot,2022.1.3,Win32,11.49425287,62c50e9c1127f2cd403a315f,,,,,,,,,,,,,,,,,,,,,,,,,,,,,,,,,,,,,,,,,,,,,,,,,,,,,,,,,,,,,,,,,,,,,,,,,,,,,,,,,,,,,,,,,,,,,,,,,,,,,,,,,,,,,,,,,,,,,,,,,,,,,,,,,,,,,,,,,,,,,,,,,,,,,,,,,,,,,,,,,,,
0,32,32,26,1,,61633b443e445822fb1f24c9,62c53cd057ad50af44d9d107,2022-07-06_10h21.03.368,Colour_Asymmetry_Pilot,2022.1.3,Win32,11.49425287,62c50e9c1127f2cd403a315f,,,,,,,,,,,,,,,,,,,,,,,,,,,,,,,,,,,,,,,,,,,,,,,,,,,,,,,,,,,,,,,,,,,,,,,,,,,,,,,,,,,,,,,,,,,,,,,,,,,,,,,,,,,,,,,,,,,,,,,,,,,,,,,,,,,,,,,,,,,,,,,,,,,,,,,,,,,,,,,,,,,
0,33,33,44,1,,61633b443e445822fb1f24c9,62c53cd057ad50af44d9d107,2022-07-06_10h21.03.368,Colour_Asymmetry_Pilot,2022.1.3,Win32,11.49425287,62c50e9c1127f2cd403a315f,,,,,,,,,,,,,,,,,,,,,,,,,,,,,,,,,,,,,,,,,,,,,,,,,,,,,,,,,,,,,,,,,,,,,,,,,,,,,,,,,,,,,,,,,,,,,,,,,,,,,,,,,,,,,,,,,,,,,,,,,,,,,,,,,,,,,,,,,,,,,,,,,,,,,,,,,,,,,,,,,,,
0,34,34,60,1,,61633b443e445822fb1f24c9,62c53cd057ad50af44d9d107,2022-07-06_10h21.03.368,Colour_Asymmetry_Pilot,2022.1.3,Win32,11.49425287,62c50e9c1127f2cd403a315f,,,,,,,,,,,,,,,,,,,,,,,,,,,,,,,,,,,,,,,,,,,,,,,,,,,,,,,,,,,,,,,,,,,,,,,,,,,,,,,,,,,,,,,,,,,,,,,,,,,,,,,,,,,,,,,,,,,,,,,,,,,,,,,,,,,,,,,,,,,,,,,,,,,,,,,,,,,,,,,,,,,
0,35,35,73,1,,61633b443e445822fb1f24c9,62c53cd057ad50af44d9d107,2022-07-06_10h21.03.368,Colour_Asymmetry_Pilot,2022.1.3,Win32,11.49425287,62c50e9c1127f2cd403a315f,,,,,,,,,,,,,,,,,,,,,,,,,,,,,,,,,,,,,,,,,,,,,,,,,,,,,,,,,,,,,,,,,,,,,,,,,,,,,,,,,,,,,,,,,,,,,,,,,,,,,,,,,,,,,,,,,,,,,,,,,,,,,,,,,,,,,,,,,,,,,,,,,,,,,,,,,,,,,,,,,,,
0,36,36,46,1,,61633b443e445822fb1f24c9,62c53cd057ad50af44d9d107,2022-07-06_10h21.03.368,Colour_Asymmetry_Pilot,2022.1.3,Win32,11.49425287,62c50e9c1127f2cd403a315f,,,,,,,,,,,,,,,,,,,,,,,,,,,,,,,,,,,,,,,,,,,,,,,,,,,,,,,,,,,,,,,,,,,,,,,,,,,,,,,,,,,,,,,,,,,,,,,,,,,,,,,,,,,,,,,,,,,,,,,,,,,,,,,,,,,,,,,,,,,,,,,,,,,,,,,,,,,,,,,,,,,
0,37,37,75,1,,61633b443e445822fb1f24c9,62c53cd057ad50af44d9d107,2022-07-06_10h21.03.368,Colour_Asymmetry_Pilot,2022.1.3,Win32,11.49425287,62c50e9c1127f2cd403a315f,,,,,,,,,,,,,,,,,,,,,,,,,,,,,,,,,,,,,,,,,,,,,,,,,,,,,,,,,,,,,,,,,,,,,,,,,,,,,,,,,,,,,,,,,,,,,,,,,,,,,,,,,,,,,,,,,,,,,,,,,,,,,,,,,,,,,,,,,,,,,,,,,,,,,,,,,,,,,,,,,,,
0,38,38,35,1,,61633b443e445822fb1f24c9,62c53cd057ad50af44d9d107,2022-07-06_10h21.03.368,Colour_Asymmetry_Pilot,2022.1.3,Win32,11.49425287,62c50e9c1127f2cd403a315f,,,,,,,,,,,,,,,,,,,,,,,,,,,,,,,,,,,,,,,,,,,,,,,,,,,,,,,,,,,,,,,,,,,,,,,,,,,,,,,,,,,,,,,,,,,,,,,,,,,,,,,,,,,,,,,,,,,,,,,,,,,,,,,,,,,,,,,,,,,,,,,,,,,,,,,,,,,,,,,,,,,
0,39,39,83,1,,61633b443e445822fb1f24c9,62c53cd057ad50af44d9d107,2022-07-06_10h21.03.368,Colour_Asymmetry_Pilot,2022.1.3,Win32,11.49425287,62c50e9c1127f2cd403a315f,,,,,,,,,,,,,,,,,,,,,,,,,,,,,,,,,,,,,,,,,,,,,,,,,,,,,,,,,,,,,,,,,,,,,,,,,,,,,,,,,,,,,,,,,,,,,,,,,,,,,,,,,,,,,,,,,,,,,,,,,,,,,,,,,,,,,,,,,,,,,,,,,,,,,,,,,,,,,,,,,,,
0,40,40,1,1,,61633b443e445822fb1f24c9,62c53cd057ad50af44d9d107,2022-07-06_10h21.03.368,Colour_Asymmetry_Pilot,2022.1.3,Win32,11.49425287,62c50e9c1127f2cd403a315f,,,,,,,,,,,,,,,,,,,,,,,,,,,,,,,,,,,,,,,,,,,,,,,,,,,,,,,,,,,,,,,,,,,,,,,,,,,,,,,,,,,,,,,,,,,,,,,,,,,,,,,,,,,,,,,,,,,,,,,,,,,,,,,,,,,,,,,,,,,,,,,,,,,,,,,,,,,,,,,,,,,
0,41,41,4,1,,61633b443e445822fb1f24c9,62c53cd057ad50af44d9d107,2022-07-06_10h21.03.368,Colour_Asymmetry_Pilot,2022.1.3,Win32,11.49425287,62c50e9c1127f2cd403a315f,,,,,,,,,,,,,,,,,,,,,,,,,,,,,,,,,,,,,,,,,,,,,,,,,,,,,,,,,,,,,,,,,,,,,,,,,,,,,,,,,,,,,,,,,,,,,,,,,,,,,,,,,,,,,,,,,,,,,,,,,,,,,,,,,,,,,,,,,,,,,,,,,,,,,,,,,,,,,,,,,,,
0,42,42,42,1,,61633b443e445822fb1f24c9,62c53cd057ad50af44d9d107,2022-07-06_10h21.03.368,Colour_Asymmetry_Pilot,2022.1.3,Win32,11.49425287,62c50e9c1127f2cd403a315f,,,,,,,,,,,,,,,,,,,,,,,,,,,,,,,,,,,,,,,,,,,,,,,,,,,,,,,,,,,,,,,,,,,,,,,,,,,,,,,,,,,,,,,,,,,,,,,,,,,,,,,,,,,,,,,,,,,,,,,,,,,,,,,,,,,,,,,,,,,,,,,,,,,,,,,,,,,,,,,,,,,
0,43,43,52,1,,61633b443e445822fb1f24c9,62c53cd057ad50af44d9d107,2022-07-06_10h21.03.368,Colour_Asymmetry_Pilot,2022.1.3,Win32,11.49425287,62c50e9c1127f2cd403a315f,,,,,,,,,,,,,,,,,,,,,,,,,,,,,,,,,,,,,,,,,,,,,,,,,,,,,,,,,,,,,,,,,,,,,,,,,,,,,,,,,,,,,,,,,,,,,,,,,,,,,,,,,,,,,,,,,,,,,,,,,,,,,,,,,,,,,,,,,,,,,,,,,,,,,,,,,,,,,,,,,,,
0,44,44,23,1,,61633b443e445822fb1f24c9,62c53cd057ad50af44d9d107,2022-07-06_10h21.03.368,Colour_Asymmetry_Pilot,2022.1.3,Win32,11.49425287,62c50e9c1127f2cd403a315f,,,,,,,,,,,,,,,,,,,,,,,,,,,,,,,,,,,,,,,,,,,,,,,,,,,,,,,,,,,,,,,,,,,,,,,,,,,,,,,,,,,,,,,,,,,,,,,,,,,,,,,,,,,,,,,,,,,,,,,,,,,,,,,,,,,,,,,,,,,,,,,,,,,,,,,,,,,,,,,,,,,
0,45,45,67,1,,61633b443e445822fb1f24c9,62c53cd057ad50af44d9d107,2022-07-06_10h21.03.368,Colour_Asymmetry_Pilot,2022.1.3,Win32,11.49425287,62c50e9c1127f2cd403a315f,,,,,,,,,,,,,,,,,,,,,,,,,,,,,,,,,,,,,,,,,,,,,,,,,,,,,,,,,,,,,,,,,,,,,,,,,,,,,,,,,,,,,,,,,,,,,,,,,,,,,,,,,,,,,,,,,,,,,,,,,,,,,,,,,,,,,,,,,,,,,,,,,,,,,,,,,,,,,,,,,,,
0,46,46,53,1,,61633b443e445822fb1f24c9,62c53cd057ad50af44d9d107,2022-07-06_10h21.03.368,Colour_Asymmetry_Pilot,2022.1.3,Win32,11.49425287,62c50e9c1127f2cd403a315f,,,,,,,,,,,,,,,,,,,,,,,,,,,,,,,,,,,,,,,,,,,,,,,,,,,,,,,,,,,,,,,,,,,,,,,,,,,,,,,,,,,,,,,,,,,,,,,,,,,,,,,,,,,,,,,,,,,,,,,,,,,,,,,,,,,,,,,,,,,,,,,,,,,,,,,,,,,,,,,,,,,
0,47,47,3,1,,61633b443e445822fb1f24c9,62c53cd057ad50af44d9d107,2022-07-06_10h21.03.368,Colour_Asymmetry_Pilot,2022.1.3,Win32,11.49425287,62c50e9c1127f2cd403a315f,,,,,,,,,,,,,,,,,,,,,,,,,,,,,,,,,,,,,,,,,,,,,,,,,,,,,,,,,,,,,,,,,,,,,,,,,,,,,,,,,,,,,,,,,,,,,,,,,,,,,,,,,,,,,,,,,,,,,,,,,,,,,,,,,,,,,,,,,,,,,,,,,,,,,,,,,,,,,,,,,,,
0,48,48,0,1,,61633b443e445822fb1f24c9,62c53cd057ad50af44d9d107,2022-07-06_10h21.03.368,Colour_Asymmetry_Pilot,2022.1.3,Win32,11.49425287,62c50e9c1127f2cd403a315f,,,,,,,,,,,,,,,,,,,,,,,,,,,,,,,,,,,,,,,,,,,,,,,,,,,,,,,,,,,,,,,,,,,,,,,,,,,,,,,,,,,,,,,,,,,,,,,,,,,,,,,,,,,,,,,,,,,,,,,,,,,,,,,,,,,,,,,,,,,,,,,,,,,,,,,,,,,,,,,,,,,
0,49,49,14,1,,61633b443e445822fb1f24c9,62c53cd057ad50af44d9d107,2022-07-06_10h21.03.368,Colour_Asymmetry_Pilot,2022.1.3,Win32,11.49425287,62c50e9c1127f2cd403a315f,,,,,,,,,,,,,,,,,,,,,,,,,,,,,,,,,,,,,,,,,,,,,,,,,,,,,,,,,,,,,,,,,,,,,,,,,,,,,,,,,,,,,,,,,,,,,,,,,,,,,,,,,,,,,,,,,,,,,,,,,,,,,,,,,,,,,,,,,,,,,,,,,,,,,,,,,,,,,,,,,,,
0,50,50,17,1,,61633b443e445822fb1f24c9,62c53cd057ad50af44d9d107,2022-07-06_10h21.03.368,Colour_Asymmetry_Pilot,2022.1.3,Win32,11.49425287,62c50e9c1127f2cd403a315f,,,,,,,,,,,,,,,,,,,,,,,,,,,,,,,,,,,,,,,,,,,,,,,,,,,,,,,,,,,,,,,,,,,,,,,,,,,,,,,,,,,,,,,,,,,,,,,,,,,,,,,,,,,,,,,,,,,,,,,,,,,,,,,,,,,,,,,,,,,,,,,,,,,,,,,,,,,,,,,,,,,
0,51,51,84,1,,61633b443e445822fb1f24c9,62c53cd057ad50af44d9d107,2022-07-06_10h21.03.368,Colour_Asymmetry_Pilot,2022.1.3,Win32,11.49425287,62c50e9c1127f2cd403a315f,,,,,,,,,,,,,,,,,,,,,,,,,,,,,,,,,,,,,,,,,,,,,,,,,,,,,,,,,,,,,,,,,,,,,,,,,,,,,,,,,,,,,,,,,,,,,,,,,,,,,,,,,,,,,,,,,,,,,,,,,,,,,,,,,,,,,,,,,,,,,,,,,,,,,,,,,,,,,,,,,,,
0,52,52,2,1,,61633b443e445822fb1f24c9,62c53cd057ad50af44d9d107,2022-07-06_10h21.03.368,Colour_Asymmetry_Pilot,2022.1.3,Win32,11.49425287,62c50e9c1127f2cd403a315f,,,,,,,,,,,,,,,,,,,,,,,,,,,,,,,,,,,,,,,,,,,,,,,,,,,,,,,,,,,,,,,,,,,,,,,,,,,,,,,,,,,,,,,,,,,,,,,,,,,,,,,,,,,,,,,,,,,,,,,,,,,,,,,,,,,,,,,,,,,,,,,,,,,,,,,,,,,,,,,,,,,
0,53,53,71,1,,61633b443e445822fb1f24c9,62c53cd057ad50af44d9d107,2022-07-06_10h21.03.368,Colour_Asymmetry_Pilot,2022.1.3,Win32,11.49425287,62c50e9c1127f2cd403a315f,,,,,,,,,,,,,,,,,,,,,,,,,,,,,,,,,,,,,,,,,,,,,,,,,,,,,,,,,,,,,,,,,,,,,,,,,,,,,,,,,,,,,,,,,,,,,,,,,,,,,,,,,,,,,,,,,,,,,,,,,,,,,,,,,,,,,,,,,,,,,,,,,,,,,,,,,,,,,,,,,,,
0,54,54,21,1,,61633b443e445822fb1f24c9,62c53cd057ad50af44d9d107,2022-07-06_10h21.03.368,Colour_Asymmetry_Pilot,2022.1.3,Win32,11.49425287,62c50e9c1127f2cd403a315f,,,,,,,,,,,,,,,,,,,,,,,,,,,,,,,,,,,,,,,,,,,,,,,,,,,,,,,,,,,,,,,,,,,,,,,,,,,,,,,,,,,,,,,,,,,,,,,,,,,,,,,,,,,,,,,,,,,,,,,,,,,,,,,,,,,,,,,,,,,,,,,,,,,,,,,,,,,,,,,,,,,
0,55,55,55,1,,61633b443e445822fb1f24c9,62c53cd057ad50af44d9d107,2022-07-06_10h21.03.368,Colour_Asymmetry_Pilot,2022.1.3,Win32,11.49425287,62c50e9c1127f2cd403a315f,,,,,,,,,,,,,,,,,,,,,,,,,,,,,,,,,,,,,,,,,,,,,,,,,,,,,,,,,,,,,,,,,,,,,,,,,,,,,,,,,,,,,,,,,,,,,,,,,,,,,,,,,,,,,,,,,,,,,,,,,,,,,,,,,,,,,,,,,,,,,,,,,,,,,,,,,,,,,,,,,,,
0,56,56,8,1,,61633b443e445822fb1f24c9,62c53cd057ad50af44d9d107,2022-07-06_10h21.03.368,Colour_Asymmetry_Pilot,2022.1.3,Win32,11.49425287,62c50e9c1127f2cd403a315f,,,,,,,,,,,,,,,,,,,,,,,,,,,,,,,,,,,,,,,,,,,,,,,,,,,,,,,,,,,,,,,,,,,,,,,,,,,,,,,,,,,,,,,,,,,,,,,,,,,,,,,,,,,,,,,,,,,,,,,,,,,,,,,,,,,,,,,,,,,,,,,,,,,,,,,,,,,,,,,,,,,
0,57,57,64,1,,61633b443e445822fb1f24c9,62c53cd057ad50af44d9d107,2022-07-06_10h21.03.368,Colour_Asymmetry_Pilot,2022.1.3,Win32,11.49425287,62c50e9c1127f2cd403a315f,,,,,,,,,,,,,,,,,,,,,,,,,,,,,,,,,,,,,,,,,,,,,,,,,,,,,,,,,,,,,,,,,,,,,,,,,,,,,,,,,,,,,,,,,,,,,,,,,,,,,,,,,,,,,,,,,,,,,,,,,,,,,,,,,,,,,,,,,,,,,,,,,,,,,,,,,,,,,,,,,,,
0,58,58,49,1,,61633b443e445822fb1f24c9,62c53cd057ad50af44d9d107,2022-07-06_10h21.03.368,Colour_Asymmetry_Pilot,2022.1.3,Win32,11.49425287,62c50e9c1127f2cd403a315f,,,,,,,,,,,,,,,,,,,,,,,,,,,,,,,,,,,,,,,,,,,,,,,,,,,,,,,,,,,,,,,,,,,,,,,,,,,,,,,,,,,,,,,,,,,,,,,,,,,,,,,,,,,,,,,,,,,,,,,,,,,,,,,,,,,,,,,,,,,,,,,,,,,,,,,,,,,,,,,,,,,
0,59,59,68,1,,61633b443e445822fb1f24c9,62c53cd057ad50af44d9d107,2022-07-06_10h21.03.368,Colour_Asymmetry_Pilot,2022.1.3,Win32,11.49425287,62c50e9c1127f2cd403a315f,,,,,,,,,,,,,,,,,,,,,,,,,,,,,,,,,,,,,,,,,,,,,,,,,,,,,,,,,,,,,,,,,,,,,,,,,,,,,,,,,,,,,,,,,,,,,,,,,,,,,,,,,,,,,,,,,,,,,,,,,,,,,,,,,,,,,,,,,,,,,,,,,,,,,,,,,,,,,,,,,,,
0,60,60,69,1,,61633b443e445822fb1f24c9,62c53cd057ad50af44d9d107,2022-07-06_10h21.03.368,Colour_Asymmetry_Pilot,2022.1.3,Win32,11.49425287,62c50e9c1127f2cd403a315f,,,,,,,,,,,,,,,,,,,,,,,,,,,,,,,,,,,,,,,,,,,,,,,,,,,,,,,,,,,,,,,,,,,,,,,,,,,,,,,,,,,,,,,,,,,,,,,,,,,,,,,,,,,,,,,,,,,,,,,,,,,,,,,,,,,,,,,,,,,,,,,,,,,,,,,,,,,,,,,,,,,
0,61,61,89,1,,61633b443e445822fb1f24c9,62c53cd057ad50af44d9d107,2022-07-06_10h21.03.368,Colour_Asymmetry_Pilot,2022.1.3,Win32,11.49425287,62c50e9c1127f2cd403a315f,,,,,,,,,,,,,,,,,,,,,,,,,,,,,,,,,,,,,,,,,,,,,,,,,,,,,,,,,,,,,,,,,,,,,,,,,,,,,,,,,,,,,,,,,,,,,,,,,,,,,,,,,,,,,,,,,,,,,,,,,,,,,,,,,,,,,,,,,,,,,,,,,,,,,,,,,,,,,,,,,,,
0,62,62,85,1,,61633b443e445822fb1f24c9,62c53cd057ad50af44d9d107,2022-07-06_10h21.03.368,Colour_Asymmetry_Pilot,2022.1.3,Win32,11.49425287,62c50e9c1127f2cd403a315f,,,,,,,,,,,,,,,,,,,,,,,,,,,,,,,,,,,,,,,,,,,,,,,,,,,,,,,,,,,,,,,,,,,,,,,,,,,,,,,,,,,,,,,,,,,,,,,,,,,,,,,,,,,,,,,,,,,,,,,,,,,,,,,,,,,,,,,,,,,,,,,,,,,,,,,,,,,,,,,,,,,
0,63,63,5,1,,61633b443e445822fb1f24c9,62c53cd057ad50af44d9d107,2022-07-06_10h21.03.368,Colour_Asymmetry_Pilot,2022.1.3,Win32,11.49425287,62c50e9c1127f2cd403a315f,,,,,,,,,,,,,,,,,,,,,,,,,,,,,,,,,,,,,,,,,,,,,,,,,,,,,,,,,,,,,,,,,,,,,,,,,,,,,,,,,,,,,,,,,,,,,,,,,,,,,,,,,,,,,,,,,,,,,,,,,,,,,,,,,,,,,,,,,,,,,,,,,,,,,,,,,,,,,,,,,,,
0,64,64,57,1,,61633b443e445822fb1f24c9,62c53cd057ad50af44d9d107,2022-07-06_10h21.03.368,Colour_Asymmetry_Pilot,2022.1.3,Win32,11.49425287,62c50e9c1127f2cd403a315f,,,,,,,,,,,,,,,,,,,,,,,,,,,,,,,,,,,,,,,,,,,,,,,,,,,,,,,,,,,,,,,,,,,,,,,,,,,,,,,,,,,,,,,,,,,,,,,,,,,,,,,,,,,,,,,,,,,,,,,,,,,,,,,,,,,,,,,,,,,,,,,,,,,,,,,,,,,,,,,,,,,
0,65,65,9,1,,61633b443e445822fb1f24c9,62c53cd057ad50af44d9d107,2022-07-06_10h21.03.368,Colour_Asymmetry_Pilot,2022.1.3,Win32,11.49425287,62c50e9c1127f2cd403a315f,,,,,,,,,,,,,,,,,,,,,,,,,,,,,,,,,,,,,,,,,,,,,,,,,,,,,,,,,,,,,,,,,,,,,,,,,,,,,,,,,,,,,,,,,,,,,,,,,,,,,,,,,,,,,,,,,,,,,,,,,,,,,,,,,,,,,,,,,,,,,,,,,,,,,,,,,,,,,,,,,,,
0,66,66,6,1,,61633b443e445822fb1f24c9,62c53cd057ad50af44d9d107,2022-07-06_10h21.03.368,Colour_Asymmetry_Pilot,2022.1.3,Win32,11.49425287,62c50e9c1127f2cd403a315f,,,,,,,,,,,,,,,,,,,,,,,,,,,,,,,,,,,,,,,,,,,,,,,,,,,,,,,,,,,,,,,,,,,,,,,,,,,,,,,,,,,,,,,,,,,,,,,,,,,,,,,,,,,,,,,,,,,,,,,,,,,,,,,,,,,,,,,,,,,,,,,,,,,,,,,,,,,,,,,,,,,
0,67,67,86,1,,61633b443e445822fb1f24c9,62c53cd057ad50af44d9d107,2022-07-06_10h21.03.368,Colour_Asymmetry_Pilot,2022.1.3,Win32,11.49425287,62c50e9c1127f2cd403a315f,,,,,,,,,,,,,,,,,,,,,,,,,,,,,,,,,,,,,,,,,,,,,,,,,,,,,,,,,,,,,,,,,,,,,,,,,,,,,,,,,,,,,,,,,,,,,,,,,,,,,,,,,,,,,,,,,,,,,,,,,,,,,,,,,,,,,,,,,,,,,,,,,,,,,,,,,,,,,,,,,,,
0,68,68,54,1,,61633b443e445822fb1f24c9,62c53cd057ad50af44d9d107,2022-07-06_10h21.03.368,Colour_Asymmetry_Pilot,2022.1.3,Win32,11.49425287,62c50e9c1127f2cd403a315f,,,,,,,,,,,,,,,,,,,,,,,,,,,,,,,,,,,,,,,,,,,,,,,,,,,,,,,,,,,,,,,,,,,,,,,,,,,,,,,,,,,,,,,,,,,,,,,,,,,,,,,,,,,,,,,,,,,,,,,,,,,,,,,,,,,,,,,,,,,,,,,,,,,,,,,,,,,,,,,,,,,
0,69,69,65,1,,61633b443e445822fb1f24c9,62c53cd057ad50af44d9d107,2022-07-06_10h21.03.368,Colour_Asymmetry_Pilot,2022.1.3,Win32,11.49425287,62c50e9c1127f2cd403a315f,,,,,,,,,,,,,,,,,,,,,,,,,,,,,,,,,,,,,,,,,,,,,,,,,,,,,,,,,,,,,,,,,,,,,,,,,,,,,,,,,,,,,,,,,,,,,,,,,,,,,,,,,,,,,,,,,,,,,,,,,,,,,,,,,,,,,,,,,,,,,,,,,,,,,,,,,,,,,,,,,,,
0,70,70,45,1,,61633b443e445822fb1f24c9,62c53cd057ad50af44d9d107,2022-07-06_10h21.03.368,Colour_Asymmetry_Pilot,2022.1.3,Win32,11.49425287,62c50e9c1127f2cd403a315f,,,,,,,,,,,,,,,,,,,,,,,,,,,,,,,,,,,,,,,,,,,,,,,,,,,,,,,,,,,,,,,,,,,,,,,,,,,,,,,,,,,,,,,,,,,,,,,,,,,,,,,,,,,,,,,,,,,,,,,,,,,,,,,,,,,,,,,,,,,,,,,,,,,,,,,,,,,,,,,,,,,
0,71,71,87,1,,61633b443e445822fb1f24c9,62c53cd057ad50af44d9d107,2022-07-06_10h21.03.368,Colour_Asymmetry_Pilot,2022.1.3,Win32,11.49425287,62c50e9c1127f2cd403a315f,,,,,,,,,,,,,,,,,,,,,,,,,,,,,,,,,,,,,,,,,,,,,,,,,,,,,,,,,,,,,,,,,,,,,,,,,,,,,,,,,,,,,,,,,,,,,,,,,,,,,,,,,,,,,,,,,,,,,,,,,,,,,,,,,,,,,,,,,,,,,,,,,,,,,,,,,,,,,,,,,,,
0,72,72,11,1,,61633b443e445822fb1f24c9,62c53cd057ad50af44d9d107,2022-07-06_10h21.03.368,Colour_Asymmetry_Pilot,2022.1.3,Win32,11.49425287,62c50e9c1127f2cd403a315f,,,,,,,,,,,,,,,,,,,,,,,,,,,,,,,,,,,,,,,,,,,,,,,,,,,,,,,,,,,,,,,,,,,,,,,,,,,,,,,,,,,,,,,,,,,,,,,,,,,,,,,,,,,,,,,,,,,,,,,,,,,,,,,,,,,,,,,,,,,,,,,,,,,,,,,,,,,,,,,,,,,
0,73,73,91,1,,61633b443e445822fb1f24c9,62c53cd057ad50af44d9d107,2022-07-06_10h21.03.368,Colour_Asymmetry_Pilot,2022.1.3,Win32,11.49425287,62c50e9c1127f2cd403a315f,,,,,,,,,,,,,,,,,,,,,,,,,,,,,,,,,,,,,,,,,,,,,,,,,,,,,,,,,,,,,,,,,,,,,,,,,,,,,,,,,,,,,,,,,,,,,,,,,,,,,,,,,,,,,,,,,,,,,,,,,,,,,,,,,,,,,,,,,,,,,,,,,,,,,,,,,,,,,,,,,,,
0,74,74,81,1,,61633b443e445822fb1f24c9,62c53cd057ad50af44d9d107,2022-07-06_10h21.03.368,Colour_Asymmetry_Pilot,2022.1.3,Win32,11.49425287,62c50e9c1127f2cd403a315f,,,,,,,,,,,,,,,,,,,,,,,,,,,,,,,,,,,,,,,,,,,,,,,,,,,,,,,,,,,,,,,,,,,,,,,,,,,,,,,,,,,,,,,,,,,,,,,,,,,,,,,,,,,,,,,,,,,,,,,,,,,,,,,,,,,,,,,,,,,,,,,,,,,,,,,,,,,,,,,,,,,
0,75,75,70,1,,61633b443e445822fb1f24c9,62c53cd057ad50af44d9d107,2022-07-06_10h21.03.368,Colour_Asymmetry_Pilot,2022.1.3,Win32,11.49425287,62c50e9c1127f2cd403a315f,,,,,,,,,,,,,,,,,,,,,,,,,,,,,,,,,,,,,,,,,,,,,,,,,,,,,,,,,,,,,,,,,,,,,,,,,,,,,,,,,,,,,,,,,,,,,,,,,,,,,,,,,,,,,,,,,,,,,,,,,,,,,,,,,,,,,,,,,,,,,,,,,,,,,,,,,,,,,,,,,,,
0,76,76,13,1,,61633b443e445822fb1f24c9,62c53cd057ad50af44d9d107,2022-07-06_10h21.03.368,Colour_Asymmetry_Pilot,2022.1.3,Win32,11.49425287,62c50e9c1127f2cd403a315f,,,,,,,,,,,,,,,,,,,,,,,,,,,,,,,,,,,,,,,,,,,,,,,,,,,,,,,,,,,,,,,,,,,,,,,,,,,,,,,,,,,,,,,,,,,,,,,,,,,,,,,,,,,,,,,,,,,,,,,,,,,,,,,,,,,,,,,,,,,,,,,,,,,,,,,,,,,,,,,,,,,
0,77,77,30,1,,61633b443e445822fb1f24c9,62c53cd057ad50af44d9d107,2022-07-06_10h21.03.368,Colour_Asymmetry_Pilot,2022.1.3,Win32,11.49425287,62c50e9c1127f2cd403a315f,,,,,,,,,,,,,,,,,,,,,,,,,,,,,,,,,,,,,,,,,,,,,,,,,,,,,,,,,,,,,,,,,,,,,,,,,,,,,,,,,,,,,,,,,,,,,,,,,,,,,,,,,,,,,,,,,,,,,,,,,,,,,,,,,,,,,,,,,,,,,,,,,,,,,,,,,,,,,,,,,,,
0,78,78,92,1,,61633b443e445822fb1f24c9,62c53cd057ad50af44d9d107,2022-07-06_10h21.03.368,Colour_Asymmetry_Pilot,2022.1.3,Win32,11.49425287,62c50e9c1127f2cd403a315f,,,,,,,,,,,,,,,,,,,,,,,,,,,,,,,,,,,,,,,,,,,,,,,,,,,,,,,,,,,,,,,,,,,,,,,,,,,,,,,,,,,,,,,,,,,,,,,,,,,,,,,,,,,,,,,,,,,,,,,,,,,,,,,,,,,,,,,,,,,,,,,,,,,,,,,,,,,,,,,,,,,
0,79,79,12,1,,61633b443e445822fb1f24c9,62c53cd057ad50af44d9d107,2022-07-06_10h21.03.368,Colour_Asymmetry_Pilot,2022.1.3,Win32,11.49425287,62c50e9c1127f2cd403a315f,,,,,,,,,,,,,,,,,,,,,,,,,,,,,,,,,,,,,,,,,,,,,,,,,,,,,,,,,,,,,,,,,,,,,,,,,,,,,,,,,,,,,,,,,,,,,,,,,,,,,,,,,,,,,,,,,,,,,,,,,,,,,,,,,,,,,,,,,,,,,,,,,,,,,,,,,,,,,,,,,,,
0,80,80,76,1,,61633b443e445822fb1f24c9,62c53cd057ad50af44d9d107,2022-07-06_10h21.03.368,Colour_Asymmetry_Pilot,2022.1.3,Win32,11.49425287,62c50e9c1127f2cd403a315f,,,,,,,,,,,,,,,,,,,,,,,,,,,,,,,,,,,,,,,,,,,,,,,,,,,,,,,,,,,,,,,,,,,,,,,,,,,,,,,,,,,,,,,,,,,,,,,,,,,,,,,,,,,,,,,,,,,,,,,,,,,,,,,,,,,,,,,,,,,,,,,,,,,,,,,,,,,,,,,,,,,
0,81,81,48,1,,61633b443e445822fb1f24c9,62c53cd057ad50af44d9d107,2022-07-06_10h21.03.368,Colour_Asymmetry_Pilot,2022.1.3,Win32,11.49425287,62c50e9c1127f2cd403a315f,,,,,,,,,,,,,,,,,,,,,,,,,,,,,,,,,,,,,,,,,,,,,,,,,,,,,,,,,,,,,,,,,,,,,,,,,,,,,,,,,,,,,,,,,,,,,,,,,,,,,,,,,,,,,,,,,,,,,,,,,,,,,,,,,,,,,,,,,,,,,,,,,,,,,,,,,,,,,,,,,,,
0,82,82,50,1,,61633b443e445822fb1f24c9,62c53cd057ad50af44d9d107,2022-07-06_10h21.03.368,Colour_Asymmetry_Pilot,2022.1.3,Win32,11.49425287,62c50e9c1127f2cd403a315f,,,,,,,,,,,,,,,,,,,,,,,,,,,,,,,,,,,,,,,,,,,,,,,,,,,,,,,,,,,,,,,,,,,,,,,,,,,,,,,,,,,,,,,,,,,,,,,,,,,,,,,,,,,,,,,,,,,,,,,,,,,,,,,,,,,,,,,,,,,,,,,,,,,,,,,,,,,,,,,,,,,
0,83,83,80,1,,61633b443e445822fb1f24c9,62c53cd057ad50af44d9d107,2022-07-06_10h21.03.368,Colour_Asymmetry_Pilot,2022.1.3,Win32,11.49425287,62c50e9c1127f2cd403a315f,,,,,,,,,,,,,,,,,,,,,,,,,,,,,,,,,,,,,,,,,,,,,,,,,,,,,,,,,,,,,,,,,,,,,,,,,,,,,,,,,,,,,,,,,,,,,,,,,,,,,,,,,,,,,,,,,,,,,,,,,,,,,,,,,,,,,,,,,,,,,,,,,,,,,,,,,,,,,,,,,,,
0,84,84,51,1,,61633b443e445822fb1f24c9,62c53cd057ad50af44d9d107,2022-07-06_10h21.03.368,Colour_Asymmetry_Pilot,2022.1.3,Win32,11.49425287,62c50e9c1127f2cd403a315f,,,,,,,,,,,,,,,,,,,,,,,,,,,,,,,,,,,,,,,,,,,,,,,,,,,,,,,,,,,,,,,,,,,,,,,,,,,,,,,,,,,,,,,,,,,,,,,,,,,,,,,,,,,,,,,,,,,,,,,,,,,,,,,,,,,,,,,,,,,,,,,,,,,,,,,,,,,,,,,,,,,
0,85,85,27,1,,61633b443e445822fb1f24c9,62c53cd057ad50af44d9d107,2022-07-06_10h21.03.368,Colour_Asymmetry_Pilot,2022.1.3,Win32,11.49425287,62c50e9c1127f2cd403a315f,,,,,,,,,,,,,,,,,,,,,,,,,,,,,,,,,,,,,,,,,,,,,,,,,,,,,,,,,,,,,,,,,,,,,,,,,,,,,,,,,,,,,,,,,,,,,,,,,,,,,,,,,,,,,,,,,,,,,,,,,,,,,,,,,,,,,,,,,,,,,,,,,,,,,,,,,,,,,,,,,,,
0,86,86,78,1,,61633b443e445822fb1f24c9,62c53cd057ad50af44d9d107,2022-07-06_10h21.03.368,Colour_Asymmetry_Pilot,2022.1.3,Win32,11.49425287,62c50e9c1127f2cd403a315f,,,,,,,,,,,,,,,,,,,,,,,,,,,,,,,,,,,,,,,,,,,,,,,,,,,,,,,,,,,,,,,,,,,,,,,,,,,,,,,,,,,,,,,,,,,,,,,,,,,,,,,,,,,,,,,,,,,,,,,,,,,,,,,,,,,,,,,,,,,,,,,,,,,,,,,,,,,,,,,,,,,
0,87,87,39,1,,61633b443e445822fb1f24c9,62c53cd057ad50af44d9d107,2022-07-06_10h21.03.368,Colour_Asymmetry_Pilot,2022.1.3,Win32,11.49425287,62c50e9c1127f2cd403a315f,,,,,,,,,,,,,,,,,,,,,,,,,,,,,,,,,,,,,,,,,,,,,,,,,,,,,,,,,,,,,,,,,,,,,,,,,,,,,,,,,,,,,,,,,,,,,,,,,,,,,,,,,,,,,,,,,,,,,,,,,,,,,,,,,,,,,,,,,,,,,,,,,,,,,,,,,,,,,,,,,,,
0,88,88,16,1,,61633b443e445822fb1f24c9,62c53cd057ad50af44d9d107,2022-07-06_10h21.03.368,Colour_Asymmetry_Pilot,2022.1.3,Win32,11.49425287,62c50e9c1127f2cd403a315f,,,,,,,,,,,,,,,,,,,,,,,,,,,,,,,,,,,,,,,,,,,,,,,,,,,,,,,,,,,,,,,,,,,,,,,,,,,,,,,,,,,,,,,,,,,,,,,,,,,,,,,,,,,,,,,,,,,,,,,,,,,,,,,,,,,,,,,,,,,,,,,,,,,,,,,,,,,,,,,,,,,
0,89,89,74,1,,61633b443e445822fb1f24c9,62c53cd057ad50af44d9d107,2022-07-06_10h21.03.368,Colour_Asymmetry_Pilot,2022.1.3,Win32,11.49425287,62c50e9c1127f2cd403a315f,,,,,,,,,,,,,,,,,,,,,,,,,,,,,,,,,,,,,,,,,,,,,,,,,,,,,,,,,,,,,,,,,,,,,,,,,,,,,,,,,,,,,,,,,,,,,,,,,,,,,,,,,,,,,,,,,,,,,,,,,,,,,,,,,,,,,,,,,,,,,,,,,,,,,,,,,,,,,,,,,,,
0,90,90,88,1,,61633b443e445822fb1f24c9,62c53cd057ad50af44d9d107,2022-07-06_10h21.03.368,Colour_Asymmetry_Pilot,2022.1.3,Win32,11.49425287,62c50e9c1127f2cd403a315f,,,,,,,,,,,,,,,,,,,,,,,,,,,,,,,,,,,,,,,,,,,,,,,,,,,,,,,,,,,,,,,,,,,,,,,,,,,,,,,,,,,,,,,,,,,,,,,,,,,,,,,,,,,,,,,,,,,,,,,,,,,,,,,,,,,,,,,,,,,,,,,,,,,,,,,,,,,,,,,,,,,
0,91,91,41,1,,61633b443e445822fb1f24c9,62c53cd057ad50af44d9d107,2022-07-06_10h21.03.368,Colour_Asymmetry_Pilot,2022.1.3,Win32,11.49425287,62c50e9c1127f2cd403a315f,,,,,,,,,,,,,,,,,,,,,,,,,,,,,,,,,,,,,,,,,,,,,,,,,,,,,,,,,,,,,,,,,,,,,,,,,,,,,,,,,,,,,,,,,,,,,,,,,,,,,,,,,,,,,,,,,,,,,,,,,,,,,,,,,,,,,,,,,,,,,,,,,,,,,,,,,,,,,,,,,,,
0,92,92,56,1,,61633b443e445822fb1f24c9,62c53cd057ad50af44d9d107,2022-07-06_10h21.03.368,Colour_Asymmetry_Pilot,2022.1.3,Win32,11.49425287,62c50e9c1127f2cd403a315f,,,,,,,,,,,,,,,,,,,,,,,,,,,,,,,,,,,,,,,,,,,,,,,,,,,,,,,,,,,,,,,,,,,,,,,,,,,,,,,,,,,,,,,,,,,,,,,,,,,,,,,,,,,,,,,,,,,,,,,,,,,,,,,,,,,,,,,,,,,,,,,,,,,,,,,,,,,,,,,,,,,
,,,,,,61633b443e445822fb1f24c9,62c53cd057ad50af44d9d107,2022-07-06_10h21.03.368,Colour_Asymmetry_Pilot,2022.1.3,Win32,11.49425287,62c50e9c1127f2cd403a315f,0,0,0,56,1,onetwo,,,,,,,,,,,,,,,,,,,,,,,,,,,,,,,,,,,,,,,,,,,,,,,,,,,,,,,,,,,,,,,,,,,,,,,,,,,,,,,,,,,,,,,,,,,,,,,,,,,,,,,,,,,,,,,,,,,,,,,,,,,,,,,,,,,,,,,,,,,,,,,,,,,,,,,,,,,,,
,,,,,,61633b443e445822fb1f24c9,62c53cd057ad50af44d9d107,2022-07-06_10h21.03.368,Colour_Asymmetry_Pilot,2022.1.3,Win32,11.49425287,62c50e9c1127f2cd403a315f,0,1,1,150,1,fourtwo,,,,,,,,,,,,,,,,,,,,,,,,,,,,,,,,,,,,,,,,,,,,,,,,,,,,,,,,,,,,,,,,,,,,,,,,,,,,,,,,,,,,,,,,,,,,,,,,,,,,,,,,,,,,,,,,,,,,,,,,,,,,,,,,,,,,,,,,,,,,,,,,,,,,,,,,,,,,,
,,,,,,61633b443e445822fb1f24c9,62c53cd057ad50af44d9d107,2022-07-06_10h21.03.368,Colour_Asymmetry_Pilot,2022.1.3,Win32,11.49425287,62c50e9c1127f2cd403a315f,0,2,2,21,1,threefour,,,,,,,,,,,,,,,,,,,,,,,,,,,,,,,,,,,,,,,,,,,,,,,,,,,,,,,,,,,,,,,,,,,,,,,,,,,,,,,,,,,,,,,,,,,,,,,,,,,,,,,,,,,,,,,,,,,,,,,,,,,,,,,,,,,,,,,,,,,,,,,,,,,,,,,,,,,,,
,,,,,,61633b443e445822fb1f24c9,62c53cd057ad50af44d9d107,2022-07-06_10h21.03.368,Colour_Asymmetry_Pilot,2022.1.3,Win32,11.49425287,62c50e9c1127f2cd403a315f,0,3,3,28,1,threeone,,,,,,,,,,,,,,,,,,,,,,,,,,,,,,,,,,,,,,,,,,,,,,,,,,,,,,,,,,,,,,,,,,,,,,,,,,,,,,,,,,,,,,,,,,,,,,,,,,,,,,,,,,,,,,,,,,,,,,,,,,,,,,,,,,,,,,,,,,,,,,,,,,,,,,,,,,,,,
,,,,,,61633b443e445822fb1f24c9,62c53cd057ad50af44d9d107,2022-07-06_10h21.03.368,Colour_Asymmetry_Pilot,2022.1.3,Win32,11.49425287,62c50e9c1127f2cd403a315f,0,4,4,72,1,onetwo,,,,,,,,,,,,,,,,,,,,,,,,,,,,,,,,,,,,,,,,,,,,,,,,,,,,,,,,,,,,,,,,,,,,,,,,,,,,,,,,,,,,,,,,,,,,,,,,,,,,,,,,,,,,,,,,,,,,,,,,,,,,,,,,,,,,,,,,,,,,,,,,,,,,,,,,,,,,,
,,,,,,61633b443e445822fb1f24c9,62c53cd057ad50af44d9d107,2022-07-06_10h21.03.368,Colour_Asymmetry_Pilot,2022.1.3,Win32,11.49425287,62c50e9c1127f2cd403a315f,0,5,5,146,1,twoone,,,,,,,,,,,,,,,,,,,,,,,,,,,,,,,,,,,,,,,,,,,,,,,,,,,,,,,,,,,,,,,,,,,,,,,,,,,,,,,,,,,,,,,,,,,,,,,,,,,,,,,,,,,,,,,,,,,,,,,,,,,,,,,,,,,,,,,,,,,,,,,,,,,,,,,,,,,,,
,,,,,,61633b443e445822fb1f24c9,62c53cd057ad50af44d9d107,2022-07-06_10h21.03.368,Colour_Asymmetry_Pilot,2022.1.3,Win32,11.49425287,62c50e9c1127f2cd403a315f,0,6,6,41,1,onethree,,,,,,,,,,,,,,,,,,,,,,,,,,,,,,,,,,,,,,,,,,,,,,,,,,,,,,,,,,,,,,,,,,,,,,,,,,,,,,,,,,,,,,,,,,,,,,,,,,,,,,,,,,,,,,,,,,,,,,,,,,,,,,,,,,,,,,,,,,,,,,,,,,,,,,,,,,,,,
,,,,,,61633b443e445822fb1f24c9,62c53cd057ad50af44d9d107,2022-07-06_10h21.03.368,Colour_Asymmetry_Pilot,2022.1.3,Win32,11.49425287,62c50e9c1127f2cd403a315f,0,7,7,90,1,twoone,,,,,,,,,,,,,,,,,,,,,,,,,,,,,,,,,,,,,,,,,,,,,,,,,,,,,,,,,,,,,,,,,,,,,,,,,,,,,,,,,,,,,,,,,,,,,,,,,,,,,,,,,,,,,,,,,,,,,,,,,,,,,,,,,,,,,,,,,,,,,,,,,,,,,,,,,,,,,
,,,,,,61633b443e445822fb1f24c9,62c53cd057ad50af44d9d107,2022-07-06_10h21.03.368,Colour_Asymmetry_Pilot,2022.1.3,Win32,11.49425287,62c50e9c1127f2cd403a315f,0,8,8,141,1,threefour,,,,,,,,,,,,,,,,,,,,,,,,,,,,,,,,,,,,,,,,,,,,,,,,,,,,,,,,,,,,,,,,,,,,,,,,,,,,,,,,,,,,,,,,,,,,,,,,,,,,,,,,,,,,,,,,,,,,,,,,,,,,,,,,,,,,,,,,,,,,,,,,,,,,,,,,,,,,,
,,,,,,61633b443e445822fb1f24c9,62c53cd057ad50af44d9d107,2022-07-06_10h21.03.368,Colour_Asymmetry_Pilot,2022.1.3,Win32,11.49425287,62c50e9c1127f2cd403a315f,0,9,9,94,1,fourtwo,,,,,,,,,,,,,,,,,,,,,,,,,,,,,,,,,,,,,,,,,,,,,,,,,,,,,,,,,,,,,,,,,,,,,,,,,,,,,,,,,,,,,,,,,,,,,,,,,,,,,,,,,,,,,,,,,,,,,,,,,,,,,,,,,,,,,,,,,,,,,,,,,,,,,,,,,,,,,
,,,,,,61633b443e445822fb1f24c9,62c53cd057ad50af44d9d107,2022-07-06_10h21.03.368,Colour_Asymmetry_Pilot,2022.1.3,Win32,11.49425287,62c50e9c1127f2cd403a315f,0,10,10,57,1,onethree,,,,,,,,,,,,,,,,,,,,,,,,,,,,,,,,,,,,,,,,,,,,,,,,,,,,,,,,,,,,,,,,,,,,,,,,,,,,,,,,,,,,,,,,,,,,,,,,,,,,,,,,,,,,,,,,,,,,,,,,,,,,,,,,,,,,,,,,,,,,,,,,,,,,,,,,,,,,,
,,,,,,61633b443e445822fb1f24c9,62c53cd057ad50af44d9d107,2022-07-06_10h21.03.368,Colour_Asymmetry_Pilot,2022.1.3,Win32,11.49425287,62c50e9c1127f2cd403a315f,0,11,11,53,1,threefour,,,,,,,,,,,,,,,,,,,,,,,,,,,,,,,,,,,,,,,,,,,,,,,,,,,,,,,,,,,,,,,,,,,,,,,,,,,,,,,,,,,,,,,,,,,,,,,,,,,,,,,,,,,,,,,,,,,,,,,,,,,,,,,,,,,,,,,,,,,,,,,,,,,,,,,,,,,,,
,,,,,,61633b443e445822fb1f24c9,62c53cd057ad50af44d9d107,2022-07-06_10h21.03.368,Colour_Asymmetry_Pilot,2022.1.3,Win32,11.49425287,62c50e9c1127f2cd403a315f,0,12,12,58,1,twoone,,,,,,,,,,,,,,,,,,,,,,,,,,,,,,,,,,,,,,,,,,,,,,,,,,,,,,,,,,,,,,,,,,,,,,,,,,,,,,,,,,,,,,,,,,,,,,,,,,,,,,,,,,,,,,,,,,,,,,,,,,,,,,,,,,,,,,,,,,,,,,,,,,,,,,,,,,,,,
,,,,,,61633b443e445822fb1f24c9,62c53cd057ad50af44d9d107,2022-07-06_10h21.03.368,Colour_Asymmetry_Pilot,2022.1.3,Win32,11.49425287,62c50e9c1127f2cd403a315f,0,13,13,118,1,fourtwo,,,,,,,,,,,,,,,,,,,,,,,,,,,,,,,,,,,,,,,,,,,,,,,,,,,,,,,,,,,,,,,,,,,,,,,,,,,,,,,,,,,,,,,,,,,,,,,,,,,,,,,,,,,,,,,,,,,,,,,,,,,,,,,,,,,,,,,,,,,,,,,,,,,,,,,,,,,,,
,,,,,,61633b443e445822fb1f24c9,62c53cd057ad50af44d9d107,2022-07-06_10h21.03.368,Colour_Asymmetry_Pilot,2022.1.3,Win32,11.49425287,62c50e9c1127f2cd403a315f,0,14,14,24,1,onetwo,,,,,,,,,,,,,,,,,,,,,,,,,,,,,,,,,,,,,,,,,,,,,,,,,,,,,,,,,,,,,,,,,,,,,,,,,,,,,,,,,,,,,,,,,,,,,,,,,,,,,,,,,,,,,,,,,,,,,,,,,,,,,,,,,,,,,,,,,,,,,,,,,,,,,,,,,,,,,
,,,,,,61633b443e445822fb1f24c9,62c53cd057ad50af44d9d107,2022-07-06_10h21.03.368,Colour_Asymmetry_Pilot,2022.1.3,Win32,11.49425287,62c50e9c1127f2cd403a315f,0,15,15,13,1,threefour,,,,,,,,,,,,,,,,,,,,,,,,,,,,,,,,,,,,,,,,,,,,,,,,,,,,,,,,,,,,,,,,,,,,,,,,,,,,,,,,,,,,,,,,,,,,,,,,,,,,,,,,,,,,,,,,,,,,,,,,,,,,,,,,,,,,,,,,,,,,,,,,,,,,,,,,,,,,,
,,,,,,61633b443e445822fb1f24c9,62c53cd057ad50af44d9d107,2022-07-06_10h21.03.368,Colour_Asymmetry_Pilot,2022.1.3,Win32,11.49425287,62c50e9c1127f2cd403a315f,0,16,16,43,1,twofour,,,,,,,,,,,,,,,,,,,,,,,,,,,,,,,,,,,,,,,,,,,,,,,,,,,,,,,,,,,,,,,,,,,,,,,,,,,,,,,,,,,,,,,,,,,,,,,,,,,,,,,,,,,,,,,,,,,,,,,,,,,,,,,,,,,,,,,,,,,,,,,,,,,,,,,,,,,,,
,,,,,,61633b443e445822fb1f24c9,62c53cd057ad50af44d9d107,2022-07-06_10h21.03.368,Colour_Asymmetry_Pilot,2022.1.3,Win32,11.49425287,62c50e9c1127f2cd403a315f,0,17,17,45,1,threefour,,,,,,,,,,,,,,,,,,,,,,,,,,,,,,,,,,,,,,,,,,,,,,,,,,,,,,,,,,,,,,,,,,,,,,,,,,,,,,,,,,,,,,,,,,,,,,,,,,,,,,,,,,,,,,,,,,,,,,,,,,,,,,,,,,,,,,,,,,,,,,,,,,,,,,,,,,,,,
,,,,,,61633b443e445822fb1f24c9,62c53cd057ad50af44d9d107,2022-07-06_10h21.03.368,Colour_Asymmetry_Pilot,2022.1.3,Win32,11.49425287,62c50e9c1127f2cd403a315f,0,18,18,25,1,onethree,,,,,,,,,,,,,,,,,,,,,,,,,,,,,,,,,,,,,,,,,,,,,,,,,,,,,,,,,,,,,,,,,,,,,,,,,,,,,,,,,,,,,,,,,,,,,,,,,,,,,,,,,,,,,,,,,,,,,,,,,,,,,,,,,,,,,,,,,,,,,,,,,,,,,,,,,,,,,
,,,,,,61633b443e445822fb1f24c9,62c53cd057ad50af44d9d107,2022-07-06_10h21.03.368,Colour_Asymmetry_Pilot,2022.1.3,Win32,11.49425287,62c50e9c1127f2cd403a315f,0,19,19,12,1,threeone,,,,,,,,,,,,,,,,,,,,,,,,,,,,,,,,,,,,,,,,,,,,,,,,,,,,,,,,,,,,,,,,,,,,,,,,,,,,,,,,,,,,,,,,,,,,,,,,,,,,,,,,,,,,,,,,,,,,,,,,,,,,,,,,,,,,,,,,,,,,,,,,,,,,,,,,,,,,,
,,,,,,61633b443e445822fb1f24c9,62c53cd057ad50af44d9d107,2022-07-06_10h21.03.368,Colour_Asymmetry_Pilot,2022.1.3,Win32,11.49425287,62c50e9c1127f2cd403a315f,0,20,20,15,1,fourthree,,,,,,,,,,,,,,,,,,,,,,,,,,,,,,,,,,,,,,,,,,,,,,,,,,,,,,,,,,,,,,,,,,,,,,,,,,,,,,,,,,,,,,,,,,,,,,,,,,,,,,,,,,,,,,,,,,,,,,,,,,,,,,,,,,,,,,,,,,,,,,,,,,,,,,,,,,,,,
,,,,,,61633b443e445822fb1f24c9,62c53cd057ad50af44d9d107,2022-07-06_10h21.03.368,Colour_Asymmetry_Pilot,2022.1.3,Win32,11.49425287,62c50e9c1127f2cd403a315f,0,21,21,30,1,fourtwo,,,,,,,,,,,,,,,,,,,,,,,,,,,,,,,,,,,,,,,,,,,,,,,,,,,,,,,,,,,,,,,,,,,,,,,,,,,,,,,,,,,,,,,,,,,,,,,,,,,,,,,,,,,,,,,,,,,,,,,,,,,,,,,,,,,,,,,,,,,,,,,,,,,,,,,,,,,,,
,,,,,,61633b443e445822fb1f24c9,62c53cd057ad50af44d9d107,2022-07-06_10h21.03.368,Colour_Asymmetry_Pilot,2022.1.3,Win32,11.49425287,62c50e9c1127f2cd403a315f,0,22,22,68,1,threeone,,,,,,,,,,,,,,,,,,,,,,,,,,,,,,,,,,,,,,,,,,,,,,,,,,,,,,,,,,,,,,,,,,,,,,,,,,,,,,,,,,,,,,,,,,,,,,,,,,,,,,,,,,,,,,,,,,,,,,,,,,,,,,,,,,,,,,,,,,,,,,,,,,,,,,,,,,,,,
,,,,,,61633b443e445822fb1f24c9,62c53cd057ad50af44d9d107,2022-07-06_10h21.03.368,Colour_Asymmetry_Pilot,2022.1.3,Win32,11.49425287,62c50e9c1127f2cd403a315f,0,23,23,107,1,twofour,,,,,,,,,,,,,,,,,,,,,,,,,,,,,,,,,,,,,,,,,,,,,,,,,,,,,,,,,,,,,,,,,,,,,,,,,,,,,,,,,,,,,,,,,,,,,,,,,,,,,,,,,,,,,,,,,,,,,,,,,,,,,,,,,,,,,,,,,,,,,,,,,,,,,,,,,,,,,
,,,,,,61633b443e445822fb1f24c9,62c53cd057ad50af44d9d107,2022-07-06_10h21.03.368,Colour_Asymmetry_Pilot,2022.1.3,Win32,11.49425287,62c50e9c1127f2cd403a315f,0,24,24,113,1,onethree,,,,,,,,,,,,,,,,,,,,,,,,,,,,,,,,,,,,,,,,,,,,,,,,,,,,,,,,,,,,,,,,,,,,,,,,,,,,,,,,,,,,,,,,,,,,,,,,,,,,,,,,,,,,,,,,,,,,,,,,,,,,,,,,,,,,,,,,,,,,,,,,,,,,,,,,,,,,,
,,,,,,61633b443e445822fb1f24c9,62c53cd057ad50af44d9d107,2022-07-06_10h21.03.368,Colour_Asymmetry_Pilot,2022.1.3,Win32,11.49425287,62c50e9c1127f2cd403a315f,0,25,25,63,1,fourthree,,,,,,,,,,,,,,,,,,,,,,,,,,,,,,,,,,,,,,,,,,,,,,,,,,,,,,,,,,,,,,,,,,,,,,,,,,,,,,,,,,,,,,,,,,,,,,,,,,,,,,,,,,,,,,,,,,,,,,,,,,,,,,,,,,,,,,,,,,,,,,,,,,,,,,,,,,,,,
,,,,,,61633b443e445822fb1f24c9,62c53cd057ad50af44d9d107,2022-07-06_10h21.03.368,Colour_Asymmetry_Pilot,2022.1.3,Win32,11.49425287,62c50e9c1127f2cd403a315f,0,26,26,112,1,onetwo,,,,,,,,,,,,,,,,,,,,,,,,,,,,,,,,,,,,,,,,,,,,,,,,,,,,,,,,,,,,,,,,,,,,,,,,,,,,,,,,,,,,,,,,,,,,,,,,,,,,,,,,,,,,,,,,,,,,,,,,,,,,,,,,,,,,,,,,,,,,,,,,,,,,,,,,,,,,,
,,,,,,61633b443e445822fb1f24c9,62c53cd057ad50af44d9d107,2022-07-06_10h21.03.368,Colour_Asymmetry_Pilot,2022.1.3,Win32,11.49425287,62c50e9c1127f2cd403a315f,0,27,27,144,1,onetwo,,,,,,,,,,,,,,,,,,,,,,,,,,,,,,,,,,,,,,,,,,,,,,,,,,,,,,,,,,,,,,,,,,,,,,,,,,,,,,,,,,,,,,,,,,,,,,,,,,,,,,,,,,,,,,,,,,,,,,,,,,,,,,,,,,,,,,,,,,,,,,,,,,,,,,,,,,,,,
,,,,,,61633b443e445822fb1f24c9,62c53cd057ad50af44d9d107,2022-07-06_10h21.03.368,Colour_Asymmetry_Pilot,2022.1.3,Win32,11.49425287,62c50e9c1127f2cd403a315f,0,28,28,33,1,onethree,,,,,,,,,,,,,,,,,,,,,,,,,,,,,,,,,,,,,,,,,,,,,,,,,,,,,,,,,,,,,,,,,,,,,,,,,,,,,,,,,,,,,,,,,,,,,,,,,,,,,,,,,,,,,,,,,,,,,,,,,,,,,,,,,,,,,,,,,,,,,,,,,,,,,,,,,,,,,
,,,,,,61633b443e445822fb1f24c9,62c53cd057ad50af44d9d107,2022-07-06_10h21.03.368,Colour_Asymmetry_Pilot,2022.1.3,Win32,11.49425287,62c50e9c1127f2cd403a315f,0,29,29,66,1,twoone,,,,,,,,,,,,,,,,,,,,,,,,,,,,,,,,,,,,,,,,,,,,,,,,,,,,,,,,,,,,,,,,,,,,,,,,,,,,,,,,,,,,,,,,,,,,,,,,,,,,,,,,,,,,,,,,,,,,,,,,,,,,,,,,,,,,,,,,,,,,,,,,,,,,,,,,,,,,,
,,,,,,61633b443e445822fb1f24c9,62c53cd057ad50af44d9d107,2022-07-06_10h21.03.368,Colour_Asymmetry_Pilot,2022.1.3,Win32,11.49425287,62c50e9c1127f2cd403a315f,0,30,30,75,1,twofour,,,,,,,,,,,,,,,,,,,,,,,,,,,,,,,,,,,,,,,,,,,,,,,,,,,,,,,,,,,,,,,,,,,,,,,,,,,,,,,,,,,,,,,,,,,,,,,,,,,,,,,,,,,,,,,,,,,,,,,,,,,,,,,,,,,,,,,,,,,,,,,,,,,,,,,,,,,,,
,,,,,,61633b443e445822fb1f24c9,62c53cd057ad50af44d9d107,2022-07-06_10h21.03.368,Colour_Asymmetry_Pilot,2022.1.3,Win32,11.49425287,62c50e9c1127f2cd403a315f,0,31,31,115,1,twofour,,,,,,,,,,,,,,,,,,,,,,,,,,,,,,,,,,,,,,,,,,,,,,,,,,,,,,,,,,,,,,,,,,,,,,,,,,,,,,,,,,,,,,,,,,,,,,,,,,,,,,,,,,,,,,,,,,,,,,,,,,,,,,,,,,,,,,,,,,,,,,,,,,,,,,,,,,,,,
,,,,,,61633b443e445822fb1f24c9,62c53cd057ad50af44d9d107,2022-07-06_10h21.03.368,Colour_Asymmetry_Pilot,2022.1.3,Win32,11.49425287,62c50e9c1127f2cd403a315f,0,32,32,8,1,onetwo,,,,,,,,,,,,,,,,,,,,,,,,,,,,,,,,,,,,,,,,,,,,,,,,,,,,,,,,,,,,,,,,,,,,,,,,,,,,,,,,,,,,,,,,,,,,,,,,,,,,,,,,,,,,,,,,,,,,,,,,,,,,,,,,,,,,,,,,,,,,,,,,,,,,,,,,,,,,,
,,,,,,61633b443e445822fb1f24c9,62c53cd057ad50af44d9d107,2022-07-06_10h21.03.368,Colour_Asymmetry_Pilot,2022.1.3,Win32,11.49425287,62c50e9c1127f2cd403a315f,0,33,33,38,1,fourtwo,,,,,,,,,,,,,,,,,,,,,,,,,,,,,,,,,,,,,,,,,,,,,,,,,,,,,,,,,,,,,,,,,,,,,,,,,,,,,,,,,,,,,,,,,,,,,,,,,,,,,,,,,,,,,,,,,,,,,,,,,,,,,,,,,,,,,,,,,,,,,,,,,,,,,,,,,,,,,
,,,,,,61633b443e445822fb1f24c9,62c53cd057ad50af44d9d107,2022-07-06_10h21.03.368,Colour_Asymmetry_Pilot,2022.1.3,Win32,11.49425287,62c50e9c1127f2cd403a315f,0,34,34,123,1,twofour,,,,,,,,,,,,,,,,,,,,,,,,,,,,,,,,,,,,,,,,,,,,,,,,,,,,,,,,,,,,,,,,,,,,,,,,,,,,,,,,,,,,,,,,,,,,,,,,,,,,,,,,,,,,,,,,,,,,,,,,,,,,,,,,,,,,,,,,,,,,,,,,,,,,,,,,,,,,,
,,,,,,61633b443e445822fb1f24c9,62c53cd057ad50af44d9d107,2022-07-06_10h21.03.368,Colour_Asymmetry_Pilot,2022.1.3,Win32,11.49425287,62c50e9c1127f2cd403a315f,0,35,35,109,1,threefour,,,,,,,,,,,,,,,,,,,,,,,,,,,,,,,,,,,,,,,,,,,,,,,,,,,,,,,,,,,,,,,,,,,,,,,,,,,,,,,,,,,,,,,,,,,,,,,,,,,,,,,,,,,,,,,,,,,,,,,,,,,,,,,,,,,,,,,,,,,,,,,,,,,,,,,,,,,,,
,,,,,,61633b443e445822fb1f24c9,62c53cd057ad50af44d9d107,2022-07-06_10h21.03.368,Colour_Asymmetry_Pilot,2022.1.3,Win32,11.49425287,62c50e9c1127f2cd403a315f,0,36,36,104,1,onetwo,,,,,,,,,,,,,,,,,,,,,,,,,,,,,,,,,,,,,,,,,,,,,,,,,,,,,,,,,,,,,,,,,,,,,,,,,,,,,,,,,,,,,,,,,,,,,,,,,,,,,,,,,,,,,,,,,,,,,,,,,,,,,,,,,,,,,,,,,,,,,,,,,,,,,,,,,,,,,
,,,,,,61633b443e445822fb1f24c9,62c53cd057ad50af44d9d107,2022-07-06_10h21.03.368,Colour_Asymmetry_Pilot,2022.1.3,Win32,11.49425287,62c50e9c1127f2cd403a315f,0,37,37,62,1,fourtwo,,,,,,,,,,,,,,,,,,,,,,,,,,,,,,,,,,,,,,,,,,,,,,,,,,,,,,,,,,,,,,,,,,,,,,,,,,,,,,,,,,,,,,,,,,,,,,,,,,,,,,,,,,,,,,,,,,,,,,,,,,,,,,,,,,,,,,,,,,,,,,,,,,,,,,,,,,,,,
,,,,,,61633b443e445822fb1f24c9,62c53cd057ad50af44d9d107,2022-07-06_10h21.03.368,Colour_Asymmetry_Pilot,2022.1.3,Win32,11.49425287,62c50e9c1127f2cd403a315f,0,38,38,10,1,twoone,,,,,,,,,,,,,,,,,,,,,,,,,,,,,,,,,,,,,,,,,,,,,,,,,,,,,,,,,,,,,,,,,,,,,,,,,,,,,,,,,,,,,,,,,,,,,,,,,,,,,,,,,,,,,,,,,,,,,,,,,,,,,,,,,,,,,,,,,,,,,,,,,,,,,,,,,,,,,
,,,,,,61633b443e445822fb1f24c9,62c53cd057ad50af44d9d107,2022-07-06_10h21.03.368,Colour_Asymmetry_Pilot,2022.1.3,Win32,11.49425287,62c50e9c1127f2cd403a315f,0,39,39,159,1,fourthree,,,,,,,,,,,,,,,,,,,,,,,,,,,,,,,,,,,,,,,,,,,,,,,,,,,,,,,,,,,,,,,,,,,,,,,,,,,,,,,,,,,,,,,,,,,,,,,,,,,,,,,,,,,,,,,,,,,,,,,,,,,,,,,,,,,,,,,,,,,,,,,,,,,,,,,,,,,,,
,,,,,,61633b443e445822fb1f24c9,62c53cd057ad50af44d9d107,2022-07-06_10h21.03.368,Colour_Asymmetry_Pilot,2022.1.3,Win32,11.49425287,62c50e9c1127f2cd403a315f,0,40,40,139,1,twofour,,,,,,,,,,,,,,,,,,,,,,,,,,,,,,,,,,,,,,,,,,,,,,,,,,,,,,,,,,,,,,,,,,,,,,,,,,,,,,,,,,,,,,,,,,,,,,,,,,,,,,,,,,,,,,,,,,,,,,,,,,,,,,,,,,,,,,,,,,,,,,,,,,,,,,,,,,,,,
,,,,,,61633b443e445822fb1f24c9,62c53cd057ad50af44d9d107,2022-07-06_10h21.03.368,Colour_Asymmetry_Pilot,2022.1.3,Win32,11.49425287,62c50e9c1127f2cd403a315f,0,41,41,102,1,fourtwo,,,,,,,,,,,,,,,,,,,,,,,,,,,,,,,,,,,,,,,,,,,,,,,,,,,,,,,,,,,,,,,,,,,,,,,,,,,,,,,,,,,,,,,,,,,,,,,,,,,,,,,,,,,,,,,,,,,,,,,,,,,,,,,,,,,,,,,,,,,,,,,,,,,,,,,,,,,,,
,,,,,,61633b443e445822fb1f24c9,62c53cd057ad50af44d9d107,2022-07-06_10h21.03.368,Colour_Asymmetry_Pilot,2022.1.3,Win32,11.49425287,62c50e9c1127f2cd403a315f,0,42,42,95,1,fourthree,,,,,,,,,,,,,,,,,,,,,,,,,,,,,,,,,,,,,,,,,,,,,,,,,,,,,,,,,,,,,,,,,,,,,,,,,,,,,,,,,,,,,,,,,,,,,,,,,,,,,,,,,,,,,,,,,,,,,,,,,,,,,,,,,,,,,,,,,,,,,,,,,,,,,,,,,,,,,
,,,,,,61633b443e445822fb1f24c9,62c53cd057ad50af44d9d107,2022-07-06_10h21.03.368,Colour_Asymmetry_Pilot,2022.1.3,Win32,11.49425287,62c50e9c1127f2cd403a315f,0,43,43,140,1,threeone,,,,,,,,,,,,,,,,,,,,,,,,,,,,,,,,,,,,,,,,,,,,,,,,,,,,,,,,,,,,,,,,,,,,,,,,,,,,,,,,,,,,,,,,,,,,,,,,,,,,,,,,,,,,,,,,,,,,,,,,,,,,,,,,,,,,,,,,,,,,,,,,,,,,,,,,,,,,,
,,,,,,61633b443e445822fb1f24c9,62c53cd057ad50af44d9d107,2022-07-06_10h21.03.368,Colour_Asymmetry_Pilot,2022.1.3,Win32,11.49425287,62c50e9c1127f2cd403a315f,0,44,44,153,1,onethree,,,,,,,,,,,,,,,,,,,,,,,,,,,,,,,,,,,,,,,,,,,,,,,,,,,,,,,,,,,,,,,,,,,,,,,,,,,,,,,,,,,,,,,,,,,,,,,,,,,,,,,,,,,,,,,,,,,,,,,,,,,,,,,,,,,,,,,,,,,,,,,,,,,,,,,,,,,,,
,,,,,,61633b443e445822fb1f24c9,62c53cd057ad50af44d9d107,2022-07-06_10h21.03.368,Colour_Asymmetry_Pilot,2022.1.3,Win32,11.49425287,62c50e9c1127f2cd403a315f,0,45,45,132,1,threeone,,,,,,,,,,,,,,,,,,,,,,,,,,,,,,,,,,,,,,,,,,,,,,,,,,,,,,,,,,,,,,,,,,,,,,,,,,,,,,,,,,,,,,,,,,,,,,,,,,,,,,,,,,,,,,,,,,,,,,,,,,,,,,,,,,,,,,,,,,,,,,,,,,,,,,,,,,,,,
,,,,,,61633b443e445822fb1f24c9,62c53cd057ad50af44d9d107,2022-07-06_10h21.03.368,Colour_Asymmetry_Pilot,2022.1.3,Win32,11.49425287,62c50e9c1127f2cd403a315f,0,46,46,20,1,threeone,,,,,,,,,,,,,,,,,,,,,,,,,,,,,,,,,,,,,,,,,,,,,,,,,,,,,,,,,,,,,,,,,,,,,,,,,,,,,,,,,,,,,,,,,,,,,,,,,,,,,,,,,,,,,,,,,,,,,,,,,,,,,,,,,,,,,,,,,,,,,,,,,,,,,,,,,,,,,
,,,,,,61633b443e445822fb1f24c9,62c53cd057ad50af44d9d107,2022-07-06_10h21.03.368,Colour_Asymmetry_Pilot,2022.1.3,Win32,11.49425287,62c50e9c1127f2cd403a315f,0,47,47,135,1,fourthree,,,,,,,,,,,,,,,,,,,,,,,,,,,,,,,,,,,,,,,,,,,,,,,,,,,,,,,,,,,,,,,,,,,,,,,,,,,,,,,,,,,,,,,,,,,,,,,,,,,,,,,,,,,,,,,,,,,,,,,,,,,,,,,,,,,,,,,,,,,,,,,,,,,,,,,,,,,,,
,,,,,,61633b443e445822fb1f24c9,62c53cd057ad50af44d9d107,2022-07-06_10h21.03.368,Colour_Asymmetry_Pilot,2022.1.3,Win32,11.49425287,62c50e9c1127f2cd403a315f,0,48,48,29,1,threefour,,,,,,,,,,,,,,,,,,,,,,,,,,,,,,,,,,,,,,,,,,,,,,,,,,,,,,,,,,,,,,,,,,,,,,,,,,,,,,,,,,,,,,,,,,,,,,,,,,,,,,,,,,,,,,,,,,,,,,,,,,,,,,,,,,,,,,,,,,,,,,,,,,,,,,,,,,,,,
,,,,,,61633b443e445822fb1f24c9,62c53cd057ad50af44d9d107,2022-07-06_10h21.03.368,Colour_Asymmetry_Pilot,2022.1.3,Win32,11.49425287,62c50e9c1127f2cd403a315f,0,49,49,128,1,onetwo,,,,,,,,,,,,,,,,,,,,,,,,,,,,,,,,,,,,,,,,,,,,,,,,,,,,,,,,,,,,,,,,,,,,,,,,,,,,,,,,,,,,,,,,,,,,,,,,,,,,,,,,,,,,,,,,,,,,,,,,,,,,,,,,,,,,,,,,,,,,,,,,,,,,,,,,,,,,,
,,,,,,61633b443e445822fb1f24c9,62c53cd057ad50af44d9d107,2022-07-06_10h21.03.368,Colour_Asymmetry_Pilot,2022.1.3,Win32,11.49425287,62c50e9c1127f2cd403a315f,0,50,50,147,1,twofour,,,,,,,,,,,,,,,,,,,,,,,,,,,,,,,,,,,,,,,,,,,,,,,,,,,,,,,,,,,,,,,,,,,,,,,,,,,,,,,,,,,,,,,,,,,,,,,,,,,,,,,,,,,,,,,,,,,,,,,,,,,,,,,,,,,,,,,,,,,,,,,,,,,,,,,,,,,,,
,,,,,,61633b443e445822fb1f24c9,62c53cd057ad50af44d9d107,2022-07-06_10h21.03.368,Colour_Asymmetry_Pilot,2022.1.3,Win32,11.49425287,62c50e9c1127f2cd403a315f,0,51,51,136,1,onetwo,,,,,,,,,,,,,,,,,,,,,,,,,,,,,,,,,,,,,,,,,,,,,,,,,,,,,,,,,,,,,,,,,,,,,,,,,,,,,,,,,,,,,,,,,,,,,,,,,,,,,,,,,,,,,,,,,,,,,,,,,,,,,,,,,,,,,,,,,,,,,,,,,,,,,,,,,,,,,
,,,,,,61633b443e445822fb1f24c9,62c53cd057ad50af44d9d107,2022-07-06_10h21.03.368,Colour_Asymmetry_Pilot,2022.1.3,Win32,11.49425287,62c50e9c1127f2cd403a315f,0,52,52,16,1,onetwo,,,,,,,,,,,,,,,,,,,,,,,,,,,,,,,,,,,,,,,,,,,,,,,,,,,,,,,,,,,,,,,,,,,,,,,,,,,,,,,,,,,,,,,,,,,,,,,,,,,,,,,,,,,,,,,,,,,,,,,,,,,,,,,,,,,,,,,,,,,,,,,,,,,,,,,,,,,,,
,,,,,,61633b443e445822fb1f24c9,62c53cd057ad50af44d9d107,2022-07-06_10h21.03.368,Colour_Asymmetry_Pilot,2022.1.3,Win32,11.49425287,62c50e9c1127f2cd403a315f,0,53,53,160,1,onetwo,,,,,,,,,,,,,,,,,,,,,,,,,,,,,,,,,,,,,,,,,,,,,,,,,,,,,,,,,,,,,,,,,,,,,,,,,,,,,,,,,,,,,,,,,,,,,,,,,,,,,,,,,,,,,,,,,,,,,,,,,,,,,,,,,,,,,,,,,,,,,,,,,,,,,,,,,,,,,
,,,,,,61633b443e445822fb1f24c9,62c53cd057ad50af44d9d107,2022-07-06_10h21.03.368,Colour_Asymmetry_Pilot,2022.1.3,Win32,11.49425287,62c50e9c1127f2cd403a315f,0,54,54,59,1,twofour,,,,,,,,,,,,,,,,,,,,,,,,,,,,,,,,,,,,,,,,,,,,,,,,,,,,,,,,,,,,,,,,,,,,,,,,,,,,,,,,,,,,,,,,,,,,,,,,,,,,,,,,,,,,,,,,,,,,,,,,,,,,,,,,,,,,,,,,,,,,,,,,,,,,,,,,,,,,,
,,,,,,61633b443e445822fb1f24c9,62c53cd057ad50af44d9d107,2022-07-06_10h21.03.368,Colour_Asymmetry_Pilot,2022.1.3,Win32,11.49425287,62c50e9c1127f2cd403a315f,0,55,55,51,1,twofour,,,,,,,,,,,,,,,,,,,,,,,,,,,,,,,,,,,,,,,,,,,,,,,,,,,,,,,,,,,,,,,,,,,,,,,,,,,,,,,,,,,,,,,,,,,,,,,,,,,,,,,,,,,,,,,,,,,,,,,,,,,,,,,,,,,,,,,,,,,,,,,,,,,,,,,,,,,,,
,,,,,,61633b443e445822fb1f24c9,62c53cd057ad50af44d9d107,2022-07-06_10h21.03.368,Colour_Asymmetry_Pilot,2022.1.3,Win32,11.49425287,62c50e9c1127f2cd403a315f,0,56,56,97,1,onethree,,,,,,,,,,,,,,,,,,,,,,,,,,,,,,,,,,,,,,,,,,,,,,,,,,,,,,,,,,,,,,,,,,,,,,,,,,,,,,,,,,,,,,,,,,,,,,,,,,,,,,,,,,,,,,,,,,,,,,,,,,,,,,,,,,,,,,,,,,,,,,,,,,,,,,,,,,,,,
,,,,,,61633b443e445822fb1f24c9,62c53cd057ad50af44d9d107,2022-07-06_10h21.03.368,Colour_Asymmetry_Pilot,2022.1.3,Win32,11.49425287,62c50e9c1127f2cd403a315f,0,57,57,103,1,fourthree,,,,,,,,,,,,,,,,,,,,,,,,,,,,,,,,,,,,,,,,,,,,,,,,,,,,,,,,,,,,,,,,,,,,,,,,,,,,,,,,,,,,,,,,,,,,,,,,,,,,,,,,,,,,,,,,,,,,,,,,,,,,,,,,,,,,,,,,,,,,,,,,,,,,,,,,,,,,,
,,,,,,61633b443e445822fb1f24c9,62c53cd057ad50af44d9d107,2022-07-06_10h21.03.368,Colour_Asymmetry_Pilot,2022.1.3,Win32,11.49425287,62c50e9c1127f2cd403a315f,0,58,58,83,1,twofour,,,,,,,,,,,,,,,,,,,,,,,,,,,,,,,,,,,,,,,,,,,,,,,,,,,,,,,,,,,,,,,,,,,,,,,,,,,,,,,,,,,,,,,,,,,,,,,,,,,,,,,,,,,,,,,,,,,,,,,,,,,,,,,,,,,,,,,,,,,,,,,,,,,,,,,,,,,,,
,,,,,,61633b443e445822fb1f24c9,62c53cd057ad50af44d9d107,2022-07-06_10h21.03.368,Colour_Asymmetry_Pilot,2022.1.3,Win32,11.49425287,62c50e9c1127f2cd403a315f,0,59,59,101,1,threefour,,,,,,,,,,,,,,,,,,,,,,,,,,,,,,,,,,,,,,,,,,,,,,,,,,,,,,,,,,,,,,,,,,,,,,,,,,,,,,,,,,,,,,,,,,,,,,,,,,,,,,,,,,,,,,,,,,,,,,,,,,,,,,,,,,,,,,,,,,,,,,,,,,,,,,,,,,,,,
,,,,,,61633b443e445822fb1f24c9,62c53cd057ad50af44d9d107,2022-07-06_10h21.03.368,Colour_Asymmetry_Pilot,2022.1.3,Win32,11.49425287,62c50e9c1127f2cd403a315f,0,60,60,73,1,onethree,,,,,,,,,,,,,,,,,,,,,,,,,,,,,,,,,,,,,,,,,,,,,,,,,,,,,,,,,,,,,,,,,,,,,,,,,,,,,,,,,,,,,,,,,,,,,,,,,,,,,,,,,,,,,,,,,,,,,,,,,,,,,,,,,,,,,,,,,,,,,,,,,,,,,,,,,,,,,
,,,,,,61633b443e445822fb1f24c9,62c53cd057ad50af44d9d107,2022-07-06_10h21.03.368,Colour_Asymmetry_Pilot,2022.1.3,Win32,11.49425287,62c50e9c1127f2cd403a315f,0,61,61,5,1,threefour,,,,,,,,,,,,,,,,,,,,,,,,,,,,,,,,,,,,,,,,,,,,,,,,,,,,,,,,,,,,,,,,,,,,,,,,,,,,,,,,,,,,,,,,,,,,,,,,,,,,,,,,,,,,,,,,,,,,,,,,,,,,,,,,,,,,,,,,,,,,,,,,,,,,,,,,,,,,,
,,,,,,61633b443e445822fb1f24c9,62c53cd057ad50af44d9d107,2022-07-06_10h21.03.368,Colour_Asymmetry_Pilot,2022.1.3,Win32,11.49425287,62c50e9c1127f2cd403a315f,0,62,62,79,1,fourthree,,,,,,,,,,,,,,,,,,,,,,,,,,,,,,,,,,,,,,,,,,,,,,,,,,,,,,,,,,,,,,,,,,,,,,,,,,,,,,,,,,,,,,,,,,,,,,,,,,,,,,,,,,,,,,,,,,,,,,,,,,,,,,,,,,,,,,,,,,,,,,,,,,,,,,,,,,,,,
,,,,,,61633b443e445822fb1f24c9,62c53cd057ad50af44d9d107,2022-07-06_10h21.03.368,Colour_Asymmetry_Pilot,2022.1.3,Win32,11.49425287,62c50e9c1127f2cd403a315f,0,63,63,86,1,fourtwo,,,,,,,,,,,,,,,,,,,,,,,,,,,,,,,,,,,,,,,,,,,,,,,,,,,,,,,,,,,,,,,,,,,,,,,,,,,,,,,,,,,,,,,,,,,,,,,,,,,,,,,,,,,,,,,,,,,,,,,,,,,,,,,,,,,,,,,,,,,,,,,,,,,,,,,,,,,,,
,,,,,,61633b443e445822fb1f24c9,62c53cd057ad50af44d9d107,2022-07-06_10h21.03.368,Colour_Asymmetry_Pilot,2022.1.3,Win32,11.49425287,62c50e9c1127f2cd403a315f,0,64,64,148,1,threeone,,,,,,,,,,,,,,,,,,,,,,,,,,,,,,,,,,,,,,,,,,,,,,,,,,,,,,,,,,,,,,,,,,,,,,,,,,,,,,,,,,,,,,,,,,,,,,,,,,,,,,,,,,,,,,,,,,,,,,,,,,,,,,,,,,,,,,,,,,,,,,,,,,,,,,,,,,,,,
,,,,,,61633b443e445822fb1f24c9,62c53cd057ad50af44d9d107,2022-07-06_10h21.03.368,Colour_Asymmetry_Pilot,2022.1.3,Win32,11.49425287,62c50e9c1127f2cd403a315f,0,65,65,154,1,twoone,,,,,,,,,,,,,,,,,,,,,,,,,,,,,,,,,,,,,,,,,,,,,,,,,,,,,,,,,,,,,,,,,,,,,,,,,,,,,,,,,,,,,,,,,,,,,,,,,,,,,,,,,,,,,,,,,,,,,,,,,,,,,,,,,,,,,,,,,,,,,,,,,,,,,,,,,,,,,
,,,,,,61633b443e445822fb1f24c9,62c53cd057ad50af44d9d107,2022-07-06_10h21.03.368,Colour_Asymmetry_Pilot,2022.1.3,Win32,11.49425287,62c50e9c1127f2cd403a315f,0,66,66,84,1,threeone,,,,,,,,,,,,,,,,,,,,,,,,,,,,,,,,,,,,,,,,,,,,,,,,,,,,,,,,,,,,,,,,,,,,,,,,,,,,,,,,,,,,,,,,,,,,,,,,,,,,,,,,,,,,,,,,,,,,,,,,,,,,,,,,,,,,,,,,,,,,,,,,,,,,,,,,,,,,,
,,,,,,61633b443e445822fb1f24c9,62c53cd057ad50af44d9d107,2022-07-06_10h21.03.368,Colour_Asymmetry_Pilot,2022.1.3,Win32,11.49425287,62c50e9c1127f2cd403a315f,0,67,67,76,1,threeone,,,,,,,,,,,,,,,,,,,,,,,,,,,,,,,,,,,,,,,,,,,,,,,,,,,,,,,,,,,,,,,,,,,,,,,,,,,,,,,,,,,,,,,,,,,,,,,,,,,,,,,,,,,,,,,,,,,,,,,,,,,,,,,,,,,,,,,,,,,,,,,,,,,,,,,,,,,,,
,,,,,,61633b443e445822fb1f24c9,62c53cd057ad50af44d9d107,2022-07-06_10h21.03.368,Colour_Asymmetry_Pilot,2022.1.3,Win32,11.49425287,62c50e9c1127f2cd403a315f,0,68,68,47,1,fourthree,,,,,,,,,,,,,,,,,,,,,,,,,,,,,,,,,,,,,,,,,,,,,,,,,,,,,,,,,,,,,,,,,,,,,,,,,,,,,,,,,,,,,,,,,,,,,,,,,,,,,,,,,,,,,,,,,,,,,,,,,,,,,,,,,,,,,,,,,,,,,,,,,,,,,,,,,,,,,
,,,,,,61633b443e445822fb1f24c9,62c53cd057ad50af44d9d107,2022-07-06_10h21.03.368,Colour_Asymmetry_Pilot,2022.1.3,Win32,11.49425287,62c50e9c1127f2cd403a315f,0,69,69,11,1,twofour,,,,,,,,,,,,,,,,,,,,,,,,,,,,,,,,,,,,,,,,,,,,,,,,,,,,,,,,,,,,,,,,,,,,,,,,,,,,,,,,,,,,,,,,,,,,,,,,,,,,,,,,,,,,,,,,,,,,,,,,,,,,,,,,,,,,,,,,,,,,,,,,,,,,,,,,,,,,,
,,,,,,61633b443e445822fb1f24c9,62c53cd057ad50af44d9d107,2022-07-06_10h21.03.368,Colour_Asymmetry_Pilot,2022.1.3,Win32,11.49425287,62c50e9c1127f2cd403a315f,0,70,70,124,1,threeone,,,,,,,,,,,,,,,,,,,,,,,,,,,,,,,,,,,,,,,,,,,,,,,,,,,,,,,,,,,,,,,,,,,,,,,,,,,,,,,,,,,,,,,,,,,,,,,,,,,,,,,,,,,,,,,,,,,,,,,,,,,,,,,,,,,,,,,,,,,,,,,,,,,,,,,,,,,,,
,,,,,,61633b443e445822fb1f24c9,62c53cd057ad50af44d9d107,2022-07-06_10h21.03.368,Colour_Asymmetry_Pilot,2022.1.3,Win32,11.49425287,62c50e9c1127f2cd403a315f,0,71,71,81,1,onethree,,,,,,,,,,,,,,,,,,,,,,,,,,,,,,,,,,,,,,,,,,,,,,,,,,,,,,,,,,,,,,,,,,,,,,,,,,,,,,,,,,,,,,,,,,,,,,,,,,,,,,,,,,,,,,,,,,,,,,,,,,,,,,,,,,,,,,,,,,,,,,,,,,,,,,,,,,,,,
,,,,,,61633b443e445822fb1f24c9,62c53cd057ad50af44d9d107,2022-07-06_10h21.03.368,Colour_Asymmetry_Pilot,2022.1.3,Win32,11.49425287,62c50e9c1127f2cd403a315f,0,72,72,87,1,fourthree,,,,,,,,,,,,,,,,,,,,,,,,,,,,,,,,,,,,,,,,,,,,,,,,,,,,,,,,,,,,,,,,,,,,,,,,,,,,,,,,,,,,,,,,,,,,,,,,,,,,,,,,,,,,,,,,,,,,,,,,,,,,,,,,,,,,,,,,,,,,,,,,,,,,,,,,,,,,,
,,,,,,61633b443e445822fb1f24c9,62c53cd057ad50af44d9d107,2022-07-06_10h21.03.368,Colour_Asymmetry_Pilot,2022.1.3,Win32,11.49425287,62c50e9c1127f2cd403a315f,0,73,73,7,1,fourthree,,,,,,,,,,,,,,,,,,,,,,,,,,,,,,,,,,,,,,,,,,,,,,,,,,,,,,,,,,,,,,,,,,,,,,,,,,,,,,,,,,,,,,,,,,,,,,,,,,,,,,,,,,,,,,,,,,,,,,,,,,,,,,,,,,,,,,,,,,,,,,,,,,,,,,,,,,,,,
,,,,,,61633b443e445822fb1f24c9,62c53cd057ad50af44d9d107,2022-07-06_10h21.03.368,Colour_Asymmetry_Pilot,2022.1.3,Win32,11.49425287,62c50e9c1127f2cd403a315f,0,74,74,161,1,onethree,,,,,,,,,,,,,,,,,,,,,,,,,,,,,,,,,,,,,,,,,,,,,,,,,,,,,,,,,,,,,,,,,,,,,,,,,,,,,,,,,,,,,,,,,,,,,,,,,,,,,,,,,,,,,,,,,,,,,,,,,,,,,,,,,,,,,,,,,,,,,,,,,,,,,,,,,,,,,
,,,,,,61633b443e445822fb1f24c9,62c53cd057ad50af44d9d107,2022-07-06_10h21.03.368,Colour_Asymmetry_Pilot,2022.1.3,Win32,11.49425287,62c50e9c1127f2cd403a315f,0,75,75,149,1,threefour,,,,,,,,,,,,,,,,,,,,,,,,,,,,,,,,,,,,,,,,,,,,,,,,,,,,,,,,,,,,,,,,,,,,,,,,,,,,,,,,,,,,,,,,,,,,,,,,,,,,,,,,,,,,,,,,,,,,,,,,,,,,,,,,,,,,,,,,,,,,,,,,,,,,,,,,,,,,,
,,,,,,61633b443e445822fb1f24c9,62c53cd057ad50af44d9d107,2022-07-06_10h21.03.368,Colour_Asymmetry_Pilot,2022.1.3,Win32,11.49425287,62c50e9c1127f2cd403a315f,0,76,76,50,1,twoone,,,,,,,,,,,,,,,,,,,,,,,,,,,,,,,,,,,,,,,,,,,,,,,,,,,,,,,,,,,,,,,,,,,,,,,,,,,,,,,,,,,,,,,,,,,,,,,,,,,,,,,,,,,,,,,,,,,,,,,,,,,,,,,,,,,,,,,,,,,,,,,,,,,,,,,,,,,,,
,,,,,,61633b443e445822fb1f24c9,62c53cd057ad50af44d9d107,2022-07-06_10h21.03.368,Colour_Asymmetry_Pilot,2022.1.3,Win32,11.49425287,62c50e9c1127f2cd403a315f,0,77,77,22,1,fourtwo,,,,,,,,,,,,,,,,,,,,,,,,,,,,,,,,,,,,,,,,,,,,,,,,,,,,,,,,,,,,,,,,,,,,,,,,,,,,,,,,,,,,,,,,,,,,,,,,,,,,,,,,,,,,,,,,,,,,,,,,,,,,,,,,,,,,,,,,,,,,,,,,,,,,,,,,,,,,,
,,,,,,61633b443e445822fb1f24c9,62c53cd057ad50af44d9d107,2022-07-06_10h21.03.368,Colour_Asymmetry_Pilot,2022.1.3,Win32,11.49425287,62c50e9c1127f2cd403a315f,0,78,78,125,1,threefour,,,,,,,,,,,,,,,,,,,,,,,,,,,,,,,,,,,,,,,,,,,,,,,,,,,,,,,,,,,,,,,,,,,,,,,,,,,,,,,,,,,,,,,,,,,,,,,,,,,,,,,,,,,,,,,,,,,,,,,,,,,,,,,,,,,,,,,,,,,,,,,,,,,,,,,,,,,,,
,,,,,,61633b443e445822fb1f24c9,62c53cd057ad50af44d9d107,2022-07-06_10h21.03.368,Colour_Asymmetry_Pilot,2022.1.3,Win32,11.49425287,62c50e9c1127f2cd403a315f,0,79,79,0,1,onetwo,,,,,,,,,,,,,,,,,,,,,,,,,,,,,,,,,,,,,,,,,,,,,,,,,,,,,,,,,,,,,,,,,,,,,,,,,,,,,,,,,,,,,,,,,,,,,,,,,,,,,,,,,,,,,,,,,,,,,,,,,,,,,,,,,,,,,,,,,,,,,,,,,,,,,,,,,,,,,
,,,,,,61633b443e445822fb1f24c9,62c53cd057ad50af44d9d107,2022-07-06_10h21.03.368,Colour_Asymmetry_Pilot,2022.1.3,Win32,11.49425287,62c50e9c1127f2cd403a315f,0,80,80,93,1,threefour,,,,,,,,,,,,,,,,,,,,,,,,,,,,,,,,,,,,,,,,,,,,,,,,,,,,,,,,,,,,,,,,,,,,,,,,,,,,,,,,,,,,,,,,,,,,,,,,,,,,,,,,,,,,,,,,,,,,,,,,,,,,,,,,,,,,,,,,,,,,,,,,,,,,,,,,,,,,,
,,,,,,61633b443e445822fb1f24c9,62c53cd057ad50af44d9d107,2022-07-06_10h21.03.368,Colour_Asymmetry_Pilot,2022.1.3,Win32,11.49425287,62c50e9c1127f2cd403a315f,0,81,81,36,1,threeone,,,,,,,,,,,,,,,,,,,,,,,,,,,,,,,,,,,,,,,,,,,,,,,,,,,,,,,,,,,,,,,,,,,,,,,,,,,,,,,,,,,,,,,,,,,,,,,,,,,,,,,,,,,,,,,,,,,,,,,,,,,,,,,,,,,,,,,,,,,,,,,,,,,,,,,,,,,,,
,,,,,,61633b443e445822fb1f24c9,62c53cd057ad50af44d9d107,2022-07-06_10h21.03.368,Colour_Asymmetry_Pilot,2022.1.3,Win32,11.49425287,62c50e9c1127f2cd403a315f,0,82,82,116,1,threeone,,,,,,,,,,,,,,,,,,,,,,,,,,,,,,,,,,,,,,,,,,,,,,,,,,,,,,,,,,,,,,,,,,,,,,,,,,,,,,,,,,,,,,,,,,,,,,,,,,,,,,,,,,,,,,,,,,,,,,,,,,,,,,,,,,,,,,,,,,,,,,,,,,,,,,,,,,,,,
,,,,,,61633b443e445822fb1f24c9,62c53cd057ad50af44d9d107,2022-07-06_10h21.03.368,Colour_Asymmetry_Pilot,2022.1.3,Win32,11.49425287,62c50e9c1127f2cd403a315f,0,83,83,34,1,twoone,,,,,,,,,,,,,,,,,,,,,,,,,,,,,,,,,,,,,,,,,,,,,,,,,,,,,,,,,,,,,,,,,,,,,,,,,,,,,,,,,,,,,,,,,,,,,,,,,,,,,,,,,,,,,,,,,,,,,,,,,,,,,,,,,,,,,,,,,,,,,,,,,,,,,,,,,,,,,
,,,,,,61633b443e445822fb1f24c9,62c53cd057ad50af44d9d107,2022-07-06_10h21.03.368,Colour_Asymmetry_Pilot,2022.1.3,Win32,11.49425287,62c50e9c1127f2cd403a315f,0,84,84,114,1,twoone,,,,,,,,,,,,,,,,,,,,,,,,,,,,,,,,,,,,,,,,,,,,,,,,,,,,,,,,,,,,,,,,,,,,,,,,,,,,,,,,,,,,,,,,,,,,,,,,,,,,,,,,,,,,,,,,,,,,,,,,,,,,,,,,,,,,,,,,,,,,,,,,,,,,,,,,,,,,,
,,,,,,61633b443e445822fb1f24c9,62c53cd057ad50af44d9d107,2022-07-06_10h21.03.368,Colour_Asymmetry_Pilot,2022.1.3,Win32,11.49425287,62c50e9c1127f2cd403a315f,0,85,85,138,1,twoone,,,,,,,,,,,,,,,,,,,,,,,,,,,,,,,,,,,,,,,,,,,,,,,,,,,,,,,,,,,,,,,,,,,,,,,,,,,,,,,,,,,,,,,,,,,,,,,,,,,,,,,,,,,,,,,,,,,,,,,,,,,,,,,,,,,,,,,,,,,,,,,,,,,,,,,,,,,,,
,,,,,,61633b443e445822fb1f24c9,62c53cd057ad50af44d9d107,2022-07-06_10h21.03.368,Colour_Asymmetry_Pilot,2022.1.3,Win32,11.49425287,62c50e9c1127f2cd403a315f,0,86,86,77,1,threefour,,,,,,,,,,,,,,,,,,,,,,,,,,,,,,,,,,,,,,,,,,,,,,,,,,,,,,,,,,,,,,,,,,,,,,,,,,,,,,,,,,,,,,,,,,,,,,,,,,,,,,,,,,,,,,,,,,,,,,,,,,,,,,,,,,,,,,,,,,,,,,,,,,,,,,,,,,,,,
,,,,,,61633b443e445822fb1f24c9,62c53cd057ad50af44d9d107,2022-07-06_10h21.03.368,Colour_Asymmetry_Pilot,2022.1.3,Win32,11.49425287,62c50e9c1127f2cd403a315f,0,87,87,67,1,twofour,,,,,,,,,,,,,,,,,,,,,,,,,,,,,,,,,,,,,,,,,,,,,,,,,,,,,,,,,,,,,,,,,,,,,,,,,,,,,,,,,,,,,,,,,,,,,,,,,,,,,,,,,,,,,,,,,,,,,,,,,,,,,,,,,,,,,,,,,,,,,,,,,,,,,,,,,,,,,
,,,,,,61633b443e445822fb1f24c9,62c53cd057ad50af44d9d107,2022-07-06_10h21.03.368,Colour_Asymmetry_Pilot,2022.1.3,Win32,11.49425287,62c50e9c1127f2cd403a315f,0,88,88,61,1,threefour,,,,,,,,,,,,,,,,,,,,,,,,,,,,,,,,,,,,,,,,,,,,,,,,,,,,,,,,,,,,,,,,,,,,,,,,,,,,,,,,,,,,,,,,,,,,,,,,,,,,,,,,,,,,,,,,,,,,,,,,,,,,,,,,,,,,,,,,,,,,,,,,,,,,,,,,,,,,,
,,,,,,61633b443e445822fb1f24c9,62c53cd057ad50af44d9d107,2022-07-06_10h21.03.368,Colour_Asymmetry_Pilot,2022.1.3,Win32,11.49425287,62c50e9c1127f2cd403a315f,0,89,89,137,1,onethree,,,,,,,,,,,,,,,,,,,,,,,,,,,,,,,,,,,,,,,,,,,,,,,,,,,,,,,,,,,,,,,,,,,,,,,,,,,,,,,,,,,,,,,,,,,,,,,,,,,,,,,,,,,,,,,,,,,,,,,,,,,,,,,,,,,,,,,,,,,,,,,,,,,,,,,,,,,,,
,,,,,,61633b443e445822fb1f24c9,62c53cd057ad50af44d9d107,2022-07-06_10h21.03.368,Colour_Asymmetry_Pilot,2022.1.3,Win32,11.49425287,62c50e9c1127f2cd403a315f,0,90,90,108,1,threeone,,,,,,,,,,,,,,,,,,,,,,,,,,,,,,,,,,,,,,,,,,,,,,,,,,,,,,,,,,,,,,,,,,,,,,,,,,,,,,,,,,,,,,,,,,,,,,,,,,,,,,,,,,,,,,,,,,,,,,,,,,,,,,,,,,,,,,,,,,,,,,,,,,,,,,,,,,,,,
,,,,,,61633b443e445822fb1f24c9,62c53cd057ad50af44d9d107,2022-07-06_10h21.03.368,Colour_Asymmetry_Pilot,2022.1.3,Win32,11.49425287,62c50e9c1127f2cd403a315f,0,91,91,39,1,fourthree,,,,,,,,,,,,,,,,,,,,,,,,,,,,,,,,,,,,,,,,,,,,,,,,,,,,,,,,,,,,,,,,,,,,,,,,,,,,,,,,,,,,,,,,,,,,,,,,,,,,,,,,,,,,,,,,,,,,,,,,,,,,,,,,,,,,,,,,,,,,,,,,,,,,,,,,,,,,,
,,,,,,61633b443e445822fb1f24c9,62c53cd057ad50af44d9d107,2022-07-06_10h21.03.368,Colour_Asymmetry_Pilot,2022.1.3,Win32,11.49425287,62c50e9c1127f2cd403a315f,0,92,92,49,1,onethree,,,,,,,,,,,,,,,,,,,,,,,,,,,,,,,,,,,,,,,,,,,,,,,,,,,,,,,,,,,,,,,,,,,,,,,,,,,,,,,,,,,,,,,,,,,,,,,,,,,,,,,,,,,,,,,,,,,,,,,,,,,,,,,,,,,,,,,,,,,,,,,,,,,,,,,,,,,,,
,,,,,,61633b443e445822fb1f24c9,62c53cd057ad50af44d9d107,2022-07-06_10h21.03.368,Colour_Asymmetry_Pilot,2022.1.3,Win32,11.49425287,62c50e9c1127f2cd403a315f,0,93,93,158,1,fourtwo,,,,,,,,,,,,,,,,,,,,,,,,,,,,,,,,,,,,,,,,,,,,,,,,,,,,,,,,,,,,,,,,,,,,,,,,,,,,,,,,,,,,,,,,,,,,,,,,,,,,,,,,,,,,,,,,,,,,,,,,,,,,,,,,,,,,,,,,,,,,,,,,,,,,,,,,,,,,,
,,,,,,61633b443e445822fb1f24c9,62c53cd057ad50af44d9d107,2022-07-06_10h21.03.368,Colour_Asymmetry_Pilot,2022.1.3,Win32,11.49425287,62c50e9c1127f2cd403a315f,0,94,94,92,1,threeone,,,,,,,,,,,,,,,,,,,,,,,,,,,,,,,,,,,,,,,,,,,,,,,,,,,,,,,,,,,,,,,,,,,,,,,,,,,,,,,,,,,,,,,,,,,,,,,,,,,,,,,,,,,,,,,,,,,,,,,,,,,,,,,,,,,,,,,,,,,,,,,,,,,,,,,,,,,,,
,,,,,,61633b443e445822fb1f24c9,62c53cd057ad50af44d9d107,2022-07-06_10h21.03.368,Colour_Asymmetry_Pilot,2022.1.3,Win32,11.49425287,62c50e9c1127f2cd403a315f,0,95,95,129,1,onethree,,,,,,,,,,,,,,,,,,,,,,,,,,,,,,,,,,,,,,,,,,,,,,,,,,,,,,,,,,,,,,,,,,,,,,,,,,,,,,,,,,,,,,,,,,,,,,,,,,,,,,,,,,,,,,,,,,,,,,,,,,,,,,,,,,,,,,,,,,,,,,,,,,,,,,,,,,,,,
,,,,,,61633b443e445822fb1f24c9,62c53cd057ad50af44d9d107,2022-07-06_10h21.03.368,Colour_Asymmetry_Pilot,2022.1.3,Win32,11.49425287,62c50e9c1127f2cd403a315f,0,96,96,70,1,fourtwo,,,,,,,,,,,,,,,,,,,,,,,,,,,,,,,,,,,,,,,,,,,,,,,,,,,,,,,,,,,,,,,,,,,,,,,,,,,,,,,,,,,,,,,,,,,,,,,,,,,,,,,,,,,,,,,,,,,,,,,,,,,,,,,,,,,,,,,,,,,,,,,,,,,,,,,,,,,,,
,,,,,,61633b443e445822fb1f24c9,62c53cd057ad50af44d9d107,2022-07-06_10h21.03.368,Colour_Asymmetry_Pilot,2022.1.3,Win32,11.49425287,62c50e9c1127f2cd403a315f,0,97,97,71,1,fourthree,,,,,,,,,,,,,,,,,,,,,,,,,,,,,,,,,,,,,,,,,,,,,,,,,,,,,,,,,,,,,,,,,,,,,,,,,,,,,,,,,,,,,,,,,,,,,,,,,,,,,,,,,,,,,,,,,,,,,,,,,,,,,,,,,,,,,,,,,,,,,,,,,,,,,,,,,,,,,
,,,,,,61633b443e445822fb1f24c9,62c53cd057ad50af44d9d107,2022-07-06_10h21.03.368,Colour_Asymmetry_Pilot,2022.1.3,Win32,11.49425287,62c50e9c1127f2cd403a315f,0,98,98,142,1,fourtwo,,,,,,,,,,,,,,,,,,,,,,,,,,,,,,,,,,,,,,,,,,,,,,,,,,,,,,,,,,,,,,,,,,,,,,,,,,,,,,,,,,,,,,,,,,,,,,,,,,,,,,,,,,,,,,,,,,,,,,,,,,,,,,,,,,,,,,,,,,,,,,,,,,,,,,,,,,,,,
,,,,,,61633b443e445822fb1f24c9,62c53cd057ad50af44d9d107,2022-07-06_10h21.03.368,Colour_Asymmetry_Pilot,2022.1.3,Win32,11.49425287,62c50e9c1127f2cd403a315f,0,99,99,121,1,onethree,,,,,,,,,,,,,,,,,,,,,,,,,,,,,,,,,,,,,,,,,,,,,,,,,,,,,,,,,,,,,,,,,,,,,,,,,,,,,,,,,,,,,,,,,,,,,,,,,,,,,,,,,,,,,,,,,,,,,,,,,,,,,,,,,,,,,,,,,,,,,,,,,,,,,,,,,,,,,
,,,,,,61633b443e445822fb1f24c9,62c53cd057ad50af44d9d107,2022-07-06_10h21.03.368,Colour_Asymmetry_Pilot,2022.1.3,Win32,11.49425287,62c50e9c1127f2cd403a315f,0,100,100,35,1,twofour,,,,,,,,,,,,,,,,,,,,,,,,,,,,,,,,,,,,,,,,,,,,,,,,,,,,,,,,,,,,,,,,,,,,,,,,,,,,,,,,,,,,,,,,,,,,,,,,,,,,,,,,,,,,,,,,,,,,,,,,,,,,,,,,,,,,,,,,,,,,,,,,,,,,,,,,,,,,,
,,,,,,61633b443e445822fb1f24c9,62c53cd057ad50af44d9d107,2022-07-06_10h21.03.368,Colour_Asymmetry_Pilot,2022.1.3,Win32,11.49425287,62c50e9c1127f2cd403a315f,0,101,101,74,1,twoone,,,,,,,,,,,,,,,,,,,,,,,,,,,,,,,,,,,,,,,,,,,,,,,,,,,,,,,,,,,,,,,,,,,,,,,,,,,,,,,,,,,,,,,,,,,,,,,,,,,,,,,,,,,,,,,,,,,,,,,,,,,,,,,,,,,,,,,,,,,,,,,,,,,,,,,,,,,,,
,,,,,,61633b443e445822fb1f24c9,62c53cd057ad50af44d9d107,2022-07-06_10h21.03.368,Colour_Asymmetry_Pilot,2022.1.3,Win32,11.49425287,62c50e9c1127f2cd403a315f,0,102,102,2,1,twoone,,,,,,,,,,,,,,,,,,,,,,,,,,,,,,,,,,,,,,,,,,,,,,,,,,,,,,,,,,,,,,,,,,,,,,,,,,,,,,,,,,,,,,,,,,,,,,,,,,,,,,,,,,,,,,,,,,,,,,,,,,,,,,,,,,,,,,,,,,,,,,,,,,,,,,,,,,,,,
,,,,,,61633b443e445822fb1f24c9,62c53cd057ad50af44d9d107,2022-07-06_10h21.03.368,Colour_Asymmetry_Pilot,2022.1.3,Win32,11.49425287,62c50e9c1127f2cd403a315f,0,103,103,1,1,onethree,,,,,,,,,,,,,,,,,,,,,,,,,,,,,,,,,,,,,,,,,,,,,,,,,,,,,,,,,,,,,,,,,,,,,,,,,,,,,,,,,,,,,,,,,,,,,,,,,,,,,,,,,,,,,,,,,,,,,,,,,,,,,,,,,,,,,,,,,,,,,,,,,,,,,,,,,,,,,
,,,,,,61633b443e445822fb1f24c9,62c53cd057ad50af44d9d107,2022-07-06_10h21.03.368,Colour_Asymmetry_Pilot,2022.1.3,Win32,11.49425287,62c50e9c1127f2cd403a315f,0,104,104,111,1,fourthree,,,,,,,,,,,,,,,,,,,,,,,,,,,,,,,,,,,,,,,,,,,,,,,,,,,,,,,,,,,,,,,,,,,,,,,,,,,,,,,,,,,,,,,,,,,,,,,,,,,,,,,,,,,,,,,,,,,,,,,,,,,,,,,,,,,,,,,,,,,,,,,,,,,,,,,,,,,,,
,,,,,,61633b443e445822fb1f24c9,62c53cd057ad50af44d9d107,2022-07-06_10h21.03.368,Colour_Asymmetry_Pilot,2022.1.3,Win32,11.49425287,62c50e9c1127f2cd403a315f,0,105,105,120,1,onetwo,,,,,,,,,,,,,,,,,,,,,,,,,,,,,,,,,,,,,,,,,,,,,,,,,,,,,,,,,,,,,,,,,,,,,,,,,,,,,,,,,,,,,,,,,,,,,,,,,,,,,,,,,,,,,,,,,,,,,,,,,,,,,,,,,,,,,,,,,,,,,,,,,,,,,,,,,,,,,
,,,,,,61633b443e445822fb1f24c9,62c53cd057ad50af44d9d107,2022-07-06_10h21.03.368,Colour_Asymmetry_Pilot,2022.1.3,Win32,11.49425287,62c50e9c1127f2cd403a315f,0,106,106,40,1,onetwo,,,,,,,,,,,,,,,,,,,,,,,,,,,,,,,,,,,,,,,,,,,,,,,,,,,,,,,,,,,,,,,,,,,,,,,,,,,,,,,,,,,,,,,,,,,,,,,,,,,,,,,,,,,,,,,,,,,,,,,,,,,,,,,,,,,,,,,,,,,,,,,,,,,,,,,,,,,,,
,,,,,,61633b443e445822fb1f24c9,62c53cd057ad50af44d9d107,2022-07-06_10h21.03.368,Colour_Asymmetry_Pilot,2022.1.3,Win32,11.49425287,62c50e9c1127f2cd403a315f,0,107,107,98,1,twoone,,,,,,,,,,,,,,,,,,,,,,,,,,,,,,,,,,,,,,,,,,,,,,,,,,,,,,,,,,,,,,,,,,,,,,,,,,,,,,,,,,,,,,,,,,,,,,,,,,,,,,,,,,,,,,,,,,,,,,,,,,,,,,,,,,,,,,,,,,,,,,,,,,,,,,,,,,,,,
,,,,,,61633b443e445822fb1f24c9,62c53cd057ad50af44d9d107,2022-07-06_10h21.03.368,Colour_Asymmetry_Pilot,2022.1.3,Win32,11.49425287,62c50e9c1127f2cd403a315f,0,108,108,130,1,twoone,,,,,,,,,,,,,,,,,,,,,,,,,,,,,,,,,,,,,,,,,,,,,,,,,,,,,,,,,,,,,,,,,,,,,,,,,,,,,,,,,,,,,,,,,,,,,,,,,,,,,,,,,,,,,,,,,,,,,,,,,,,,,,,,,,,,,,,,,,,,,,,,,,,,,,,,,,,,,
,,,,,,61633b443e445822fb1f24c9,62c53cd057ad50af44d9d107,2022-07-06_10h21.03.368,Colour_Asymmetry_Pilot,2022.1.3,Win32,11.49425287,62c50e9c1127f2cd403a315f,0,109,109,105,1,onethree,,,,,,,,,,,,,,,,,,,,,,,,,,,,,,,,,,,,,,,,,,,,,,,,,,,,,,,,,,,,,,,,,,,,,,,,,,,,,,,,,,,,,,,,,,,,,,,,,,,,,,,,,,,,,,,,,,,,,,,,,,,,,,,,,,,,,,,,,,,,,,,,,,,,,,,,,,,,,
,,,,,,61633b443e445822fb1f24c9,62c53cd057ad50af44d9d107,2022-07-06_10h21.03.368,Colour_Asymmetry_Pilot,2022.1.3,Win32,11.49425287,62c50e9c1127f2cd403a315f,0,110,110,19,1,twofour,,,,,,,,,,,,,,,,,,,,,,,,,,,,,,,,,,,,,,,,,,,,,,,,,,,,,,,,,,,,,,,,,,,,,,,,,,,,,,,,,,,,,,,,,,,,,,,,,,,,,,,,,,,,,,,,,,,,,,,,,,,,,,,,,,,,,,,,,,,,,,,,,,,,,,,,,,,,,
,,,,,,61633b443e445822fb1f24c9,62c53cd057ad50af44d9d107,2022-07-06_10h21.03.368,Colour_Asymmetry_Pilot,2022.1.3,Win32,11.49425287,62c50e9c1127f2cd403a315f,0,111,111,27,1,twofour,,,,,,,,,,,,,,,,,,,,,,,,,,,,,,,,,,,,,,,,,,,,,,,,,,,,,,,,,,,,,,,,,,,,,,,,,,,,,,,,,,,,,,,,,,,,,,,,,,,,,,,,,,,,,,,,,,,,,,,,,,,,,,,,,,,,,,,,,,,,,,,,,,,,,,,,,,,,,
,,,,,,61633b443e445822fb1f24c9,62c53cd057ad50af44d9d107,2022-07-06_10h21.03.368,Colour_Asymmetry_Pilot,2022.1.3,Win32,11.49425287,62c50e9c1127f2cd403a315f,0,112,112,127,1,fourthree,,,,,,,,,,,,,,,,,,,,,,,,,,,,,,,,,,,,,,,,,,,,,,,,,,,,,,,,,,,,,,,,,,,,,,,,,,,,,,,,,,,,,,,,,,,,,,,,,,,,,,,,,,,,,,,,,,,,,,,,,,,,,,,,,,,,,,,,,,,,,,,,,,,,,,,,,,,,,
,,,,,,61633b443e445822fb1f24c9,62c53cd057ad50af44d9d107,2022-07-06_10h21.03.368,Colour_Asymmetry_Pilot,2022.1.3,Win32,11.49425287,62c50e9c1127f2cd403a315f,0,113,113,42,1,twoone,,,,,,,,,,,,,,,,,,,,,,,,,,,,,,,,,,,,,,,,,,,,,,,,,,,,,,,,,,,,,,,,,,,,,,,,,,,,,,,,,,,,,,,,,,,,,,,,,,,,,,,,,,,,,,,,,,,,,,,,,,,,,,,,,,,,,,,,,,,,,,,,,,,,,,,,,,,,,
,,,,,,61633b443e445822fb1f24c9,62c53cd057ad50af44d9d107,2022-07-06_10h21.03.368,Colour_Asymmetry_Pilot,2022.1.3,Win32,11.49425287,62c50e9c1127f2cd403a315f,0,114,114,55,1,fourthree,,,,,,,,,,,,,,,,,,,,,,,,,,,,,,,,,,,,,,,,,,,,,,,,,,,,,,,,,,,,,,,,,,,,,,,,,,,,,,,,,,,,,,,,,,,,,,,,,,,,,,,,,,,,,,,,,,,,,,,,,,,,,,,,,,,,,,,,,,,,,,,,,,,,,,,,,,,,,
,,,,,,61633b443e445822fb1f24c9,62c53cd057ad50af44d9d107,2022-07-06_10h21.03.368,Colour_Asymmetry_Pilot,2022.1.3,Win32,11.49425287,62c50e9c1127f2cd403a315f,0,115,115,110,1,fourtwo,,,,,,,,,,,,,,,,,,,,,,,,,,,,,,,,,,,,,,,,,,,,,,,,,,,,,,,,,,,,,,,,,,,,,,,,,,,,,,,,,,,,,,,,,,,,,,,,,,,,,,,,,,,,,,,,,,,,,,,,,,,,,,,,,,,,,,,,,,,,,,,,,,,,,,,,,,,,,
,,,,,,61633b443e445822fb1f24c9,62c53cd057ad50af44d9d107,2022-07-06_10h21.03.368,Colour_Asymmetry_Pilot,2022.1.3,Win32,11.49425287,62c50e9c1127f2cd403a315f,0,116,116,64,1,onetwo,,,,,,,,,,,,,,,,,,,,,,,,,,,,,,,,,,,,,,,,,,,,,,,,,,,,,,,,,,,,,,,,,,,,,,,,,,,,,,,,,,,,,,,,,,,,,,,,,,,,,,,,,,,,,,,,,,,,,,,,,,,,,,,,,,,,,,,,,,,,,,,,,,,,,,,,,,,,,
,,,,,,61633b443e445822fb1f24c9,62c53cd057ad50af44d9d107,2022-07-06_10h21.03.368,Colour_Asymmetry_Pilot,2022.1.3,Win32,11.49425287,62c50e9c1127f2cd403a315f,0,117,117,3,1,twofour,,,,,,,,,,,,,,,,,,,,,,,,,,,,,,,,,,,,,,,,,,,,,,,,,,,,,,,,,,,,,,,,,,,,,,,,,,,,,,,,,,,,,,,,,,,,,,,,,,,,,,,,,,,,,,,,,,,,,,,,,,,,,,,,,,,,,,,,,,,,,,,,,,,,,,,,,,,,,
,,,,,,61633b443e445822fb1f24c9,62c53cd057ad50af44d9d107,2022-07-06_10h21.03.368,Colour_Asymmetry_Pilot,2022.1.3,Win32,11.49425287,62c50e9c1127f2cd403a315f,0,118,118,89,1,onethree,,,,,,,,,,,,,,,,,,,,,,,,,,,,,,,,,,,,,,,,,,,,,,,,,,,,,,,,,,,,,,,,,,,,,,,,,,,,,,,,,,,,,,,,,,,,,,,,,,,,,,,,,,,,,,,,,,,,,,,,,,,,,,,,,,,,,,,,,,,,,,,,,,,,,,,,,,,,,
,,,,,,61633b443e445822fb1f24c9,62c53cd057ad50af44d9d107,2022-07-06_10h21.03.368,Colour_Asymmetry_Pilot,2022.1.3,Win32,11.49425287,62c50e9c1127f2cd403a315f,0,119,119,157,1,threefour,,,,,,,,,,,,,,,,,,,,,,,,,,,,,,,,,,,,,,,,,,,,,,,,,,,,,,,,,,,,,,,,,,,,,,,,,,,,,,,,,,,,,,,,,,,,,,,,,,,,,,,,,,,,,,,,,,,,,,,,,,,,,,,,,,,,,,,,,,,,,,,,,,,,,,,,,,,,,
,,,,,,61633b443e445822fb1f24c9,62c53cd057ad50af44d9d107,2022-07-06_10h21.03.368,Colour_Asymmetry_Pilot,2022.1.3,Win32,11.49425287,62c50e9c1127f2cd403a315f,0,120,120,48,1,onetwo,,,,,,,,,,,,,,,,,,,,,,,,,,,,,,,,,,,,,,,,,,,,,,,,,,,,,,,,,,,,,,,,,,,,,,,,,,,,,,,,,,,,,,,,,,,,,,,,,,,,,,,,,,,,,,,,,,,,,,,,,,,,,,,,,,,,,,,,,,,,,,,,,,,,,,,,,,,,,
,,,,,,61633b443e445822fb1f24c9,62c53cd057ad50af44d9d107,2022-07-06_10h21.03.368,Colour_Asymmetry_Pilot,2022.1.3,Win32,11.49425287,62c50e9c1127f2cd403a315f,0,121,121,122,1,twoone,,,,,,,,,,,,,,,,,,,,,,,,,,,,,,,,,,,,,,,,,,,,,,,,,,,,,,,,,,,,,,,,,,,,,,,,,,,,,,,,,,,,,,,,,,,,,,,,,,,,,,,,,,,,,,,,,,,,,,,,,,,,,,,,,,,,,,,,,,,,,,,,,,,,,,,,,,,,,
,,,,,,61633b443e445822fb1f24c9,62c53cd057ad50af44d9d107,2022-07-06_10h21.03.368,Colour_Asymmetry_Pilot,2022.1.3,Win32,11.49425287,62c50e9c1127f2cd403a315f,0,122,122,143,1,fourthree,,,,,,,,,,,,,,,,,,,,,,,,,,,,,,,,,,,,,,,,,,,,,,,,,,,,,,,,,,,,,,,,,,,,,,,,,,,,,,,,,,,,,,,,,,,,,,,,,,,,,,,,,,,,,,,,,,,,,,,,,,,,,,,,,,,,,,,,,,,,,,,,,,,,,,,,,,,,,
,,,,,,61633b443e445822fb1f24c9,62c53cd057ad50af44d9d107,2022-07-06_10h21.03.368,Colour_Asymmetry_Pilot,2022.1.3,Win32,11.49425287,62c50e9c1127f2cd403a315f,0,123,123,32,1,onetwo,,,,,,,,,,,,,,,,,,,,,,,,,,,,,,,,,,,,,,,,,,,,,,,,,,,,,,,,,,,,,,,,,,,,,,,,,,,,,,,,,,,,,,,,,,,,,,,,,,,,,,,,,,,,,,,,,,,,,,,,,,,,,,,,,,,,,,,,,,,,,,,,,,,,,,,,,,,,,
,,,,,,61633b443e445822fb1f24c9,62c53cd057ad50af44d9d107,2022-07-06_10h21.03.368,Colour_Asymmetry_Pilot,2022.1.3,Win32,11.49425287,62c50e9c1127f2cd403a315f,0,124,124,106,1,twoone,,,,,,,,,,,,,,,,,,,,,,,,,,,,,,,,,,,,,,,,,,,,,,,,,,,,,,,,,,,,,,,,,,,,,,,,,,,,,,,,,,,,,,,,,,,,,,,,,,,,,,,,,,,,,,,,,,,,,,,,,,,,,,,,,,,,,,,,,,,,,,,,,,,,,,,,,,,,,
,,,,,,61633b443e445822fb1f24c9,62c53cd057ad50af44d9d107,2022-07-06_10h21.03.368,Colour_Asymmetry_Pilot,2022.1.3,Win32,11.49425287,62c50e9c1127f2cd403a315f,0,125,125,4,1,threeone,,,,,,,,,,,,,,,,,,,,,,,,,,,,,,,,,,,,,,,,,,,,,,,,,,,,,,,,,,,,,,,,,,,,,,,,,,,,,,,,,,,,,,,,,,,,,,,,,,,,,,,,,,,,,,,,,,,,,,,,,,,,,,,,,,,,,,,,,,,,,,,,,,,,,,,,,,,,,
,,,,,,61633b443e445822fb1f24c9,62c53cd057ad50af44d9d107,2022-07-06_10h21.03.368,Colour_Asymmetry_Pilot,2022.1.3,Win32,11.49425287,62c50e9c1127f2cd403a315f,0,126,126,69,1,threefour,,,,,,,,,,,,,,,,,,,,,,,,,,,,,,,,,,,,,,,,,,,,,,,,,,,,,,,,,,,,,,,,,,,,,,,,,,,,,,,,,,,,,,,,,,,,,,,,,,,,,,,,,,,,,,,,,,,,,,,,,,,,,,,,,,,,,,,,,,,,,,,,,,,,,,,,,,,,,
,,,,,,61633b443e445822fb1f24c9,62c53cd057ad50af44d9d107,2022-07-06_10h21.03.368,Colour_Asymmetry_Pilot,2022.1.3,Win32,11.49425287,62c50e9c1127f2cd403a315f,0,127,127,9,1,onethree,,,,,,,,,,,,,,,,,,,,,,,,,,,,,,,,,,,,,,,,,,,,,,,,,,,,,,,,,,,,,,,,,,,,,,,,,,,,,,,,,,,,,,,,,,,,,,,,,,,,,,,,,,,,,,,,,,,,,,,,,,,,,,,,,,,,,,,,,,,,,,,,,,,,,,,,,,,,,
,,,,,,61633b443e445822fb1f24c9,62c53cd057ad50af44d9d107,2022-07-06_10h21.03.368,Colour_Asymmetry_Pilot,2022.1.3,Win32,11.49425287,62c50e9c1127f2cd403a315f,0,128,128,119,1,fourthree,,,,,,,,,,,,,,,,,,,,,,,,,,,,,,,,,,,,,,,,,,,,,,,,,,,,,,,,,,,,,,,,,,,,,,,,,,,,,,,,,,,,,,,,,,,,,,,,,,,,,,,,,,,,,,,,,,,,,,,,,,,,,,,,,,,,,,,,,,,,,,,,,,,,,,,,,,,,,
,,,,,,61633b443e445822fb1f24c9,62c53cd057ad50af44d9d107,2022-07-06_10h21.03.368,Colour_Asymmetry_Pilot,2022.1.3,Win32,11.49425287,62c50e9c1127f2cd403a315f,0,129,129,65,1,onethree,,,,,,,,,,,,,,,,,,,,,,,,,,,,,,,,,,,,,,,,,,,,,,,,,,,,,,,,,,,,,,,,,,,,,,,,,,,,,,,,,,,,,,,,,,,,,,,,,,,,,,,,,,,,,,,,,,,,,,,,,,,,,,,,,,,,,,,,,,,,,,,,,,,,,,,,,,,,,
,,,,,,61633b443e445822fb1f24c9,62c53cd057ad50af44d9d107,2022-07-06_10h21.03.368,Colour_Asymmetry_Pilot,2022.1.3,Win32,11.49425287,62c50e9c1127f2cd403a315f,0,130,130,85,1,threefour,,,,,,,,,,,,,,,,,,,,,,,,,,,,,,,,,,,,,,,,,,,,,,,,,,,,,,,,,,,,,,,,,,,,,,,,,,,,,,,,,,,,,,,,,,,,,,,,,,,,,,,,,,,,,,,,,,,,,,,,,,,,,,,,,,,,,,,,,,,,,,,,,,,,,,,,,,,,,
,,,,,,61633b443e445822fb1f24c9,62c53cd057ad50af44d9d107,2022-07-06_10h21.03.368,Colour_Asymmetry_Pilot,2022.1.3,Win32,11.49425287,62c50e9c1127f2cd403a315f,0,131,131,26,1,twoone,,,,,,,,,,,,,,,,,,,,,,,,,,,,,,,,,,,,,,,,,,,,,,,,,,,,,,,,,,,,,,,,,,,,,,,,,,,,,,,,,,,,,,,,,,,,,,,,,,,,,,,,,,,,,,,,,,,,,,,,,,,,,,,,,,,,,,,,,,,,,,,,,,,,,,,,,,,,,
,,,,,,61633b443e445822fb1f24c9,62c53cd057ad50af44d9d107,2022-07-06_10h21.03.368,Colour_Asymmetry_Pilot,2022.1.3,Win32,11.49425287,62c50e9c1127f2cd403a315f,0,132,132,100,1,threeone,,,,,,,,,,,,,,,,,,,,,,,,,,,,,,,,,,,,,,,,,,,,,,,,,,,,,,,,,,,,,,,,,,,,,,,,,,,,,,,,,,,,,,,,,,,,,,,,,,,,,,,,,,,,,,,,,,,,,,,,,,,,,,,,,,,,,,,,,,,,,,,,,,,,,,,,,,,,,
,,,,,,61633b443e445822fb1f24c9,62c53cd057ad50af44d9d107,2022-07-06_10h21.03.368,Colour_Asymmetry_Pilot,2022.1.3,Win32,11.49425287,62c50e9c1127f2cd403a315f,0,133,133,17,1,onethree,,,,,,,,,,,,,,,,,,,,,,,,,,,,,,,,,,,,,,,,,,,,,,,,,,,,,,,,,,,,,,,,,,,,,,,,,,,,,,,,,,,,,,,,,,,,,,,,,,,,,,,,,,,,,,,,,,,,,,,,,,,,,,,,,,,,,,,,,,,,,,,,,,,,,,,,,,,,,
,,,,,,61633b443e445822fb1f24c9,62c53cd057ad50af44d9d107,2022-07-06_10h21.03.368,Colour_Asymmetry_Pilot,2022.1.3,Win32,11.49425287,62c50e9c1127f2cd403a315f,0,134,134,155,1,twofour,,,,,,,,,,,,,,,,,,,,,,,,,,,,,,,,,,,,,,,,,,,,,,,,,,,,,,,,,,,,,,,,,,,,,,,,,,,,,,,,,,,,,,,,,,,,,,,,,,,,,,,,,,,,,,,,,,,,,,,,,,,,,,,,,,,,,,,,,,,,,,,,,,,,,,,,,,,,,
,,,,,,61633b443e445822fb1f24c9,62c53cd057ad50af44d9d107,2022-07-06_10h21.03.368,Colour_Asymmetry_Pilot,2022.1.3,Win32,11.49425287,62c50e9c1127f2cd403a315f,0,135,135,14,1,fourtwo,,,,,,,,,,,,,,,,,,,,,,,,,,,,,,,,,,,,,,,,,,,,,,,,,,,,,,,,,,,,,,,,,,,,,,,,,,,,,,,,,,,,,,,,,,,,,,,,,,,,,,,,,,,,,,,,,,,,,,,,,,,,,,,,,,,,,,,,,,,,,,,,,,,,,,,,,,,,,
,,,,,,61633b443e445822fb1f24c9,62c53cd057ad50af44d9d107,2022-07-06_10h21.03.368,Colour_Asymmetry_Pilot,2022.1.3,Win32,11.49425287,62c50e9c1127f2cd403a315f,0,136,136,133,1,threefour,,,,,,,,,,,,,,,,,,,,,,,,,,,,,,,,,,,,,,,,,,,,,,,,,,,,,,,,,,,,,,,,,,,,,,,,,,,,,,,,,,,,,,,,,,,,,,,,,,,,,,,,,,,,,,,,,,,,,,,,,,,,,,,,,,,,,,,,,,,,,,,,,,,,,,,,,,,,,
,,,,,,61633b443e445822fb1f24c9,62c53cd057ad50af44d9d107,2022-07-06_10h21.03.368,Colour_Asymmetry_Pilot,2022.1.3,Win32,11.49425287,62c50e9c1127f2cd403a315f,0,137,137,23,1,fourthree,,,,,,,,,,,,,,,,,,,,,,,,,,,,,,,,,,,,,,,,,,,,,,,,,,,,,,,,,,,,,,,,,,,,,,,,,,,,,,,,,,,,,,,,,,,,,,,,,,,,,,,,,,,,,,,,,,,,,,,,,,,,,,,,,,,,,,,,,,,,,,,,,,,,,,,,,,,,,
,,,,,,61633b443e445822fb1f24c9,62c53cd057ad50af44d9d107,2022-07-06_10h21.03.368,Colour_Asymmetry_Pilot,2022.1.3,Win32,11.49425287,62c50e9c1127f2cd403a315f,0,138,138,91,1,twofour,,,,,,,,,,,,,,,,,,,,,,,,,,,,,,,,,,,,,,,,,,,,,,,,,,,,,,,,,,,,,,,,,,,,,,,,,,,,,,,,,,,,,,,,,,,,,,,,,,,,,,,,,,,,,,,,,,,,,,,,,,,,,,,,,,,,,,,,,,,,,,,,,,,,,,,,,,,,,
,,,,,,61633b443e445822fb1f24c9,62c53cd057ad50af44d9d107,2022-07-06_10h21.03.368,Colour_Asymmetry_Pilot,2022.1.3,Win32,11.49425287,62c50e9c1127f2cd403a315f,0,139,139,88,1,onetwo,,,,,,,,,,,,,,,,,,,,,,,,,,,,,,,,,,,,,,,,,,,,,,,,,,,,,,,,,,,,,,,,,,,,,,,,,,,,,,,,,,,,,,,,,,,,,,,,,,,,,,,,,,,,,,,,,,,,,,,,,,,,,,,,,,,,,,,,,,,,,,,,,,,,,,,,,,,,,
,,,,,,61633b443e445822fb1f24c9,62c53cd057ad50af44d9d107,2022-07-06_10h21.03.368,Colour_Asymmetry_Pilot,2022.1.3,Win32,11.49425287,62c50e9c1127f2cd403a315f,0,140,140,54,1,fourtwo,,,,,,,,,,,,,,,,,,,,,,,,,,,,,,,,,,,,,,,,,,,,,,,,,,,,,,,,,,,,,,,,,,,,,,,,,,,,,,,,,,,,,,,,,,,,,,,,,,,,,,,,,,,,,,,,,,,,,,,,,,,,,,,,,,,,,,,,,,,,,,,,,,,,,,,,,,,,,
,,,,,,61633b443e445822fb1f24c9,62c53cd057ad50af44d9d107,2022-07-06_10h21.03.368,Colour_Asymmetry_Pilot,2022.1.3,Win32,11.49425287,62c50e9c1127f2cd403a315f,0,141,141,82,1,twoone,,,,,,,,,,,,,,,,,,,,,,,,,,,,,,,,,,,,,,,,,,,,,,,,,,,,,,,,,,,,,,,,,,,,,,,,,,,,,,,,,,,,,,,,,,,,,,,,,,,,,,,,,,,,,,,,,,,,,,,,,,,,,,,,,,,,,,,,,,,,,,,,,,,,,,,,,,,,,
,,,,,,61633b443e445822fb1f24c9,62c53cd057ad50af44d9d107,2022-07-06_10h21.03.368,Colour_Asymmetry_Pilot,2022.1.3,Win32,11.49425287,62c50e9c1127f2cd403a315f,0,142,142,134,1,fourtwo,,,,,,,,,,,,,,,,,,,,,,,,,,,,,,,,,,,,,,,,,,,,,,,,,,,,,,,,,,,,,,,,,,,,,,,,,,,,,,,,,,,,,,,,,,,,,,,,,,,,,,,,,,,,,,,,,,,,,,,,,,,,,,,,,,,,,,,,,,,,,,,,,,,,,,,,,,,,,
,,,,,,61633b443e445822fb1f24c9,62c53cd057ad50af44d9d107,2022-07-06_10h21.03.368,Colour_Asymmetry_Pilot,2022.1.3,Win32,11.49425287,62c50e9c1127f2cd403a315f,0,143,143,31,1,fourthree,,,,,,,,,,,,,,,,,,,,,,,,,,,,,,,,,,,,,,,,,,,,,,,,,,,,,,,,,,,,,,,,,,,,,,,,,,,,,,,,,,,,,,,,,,,,,,,,,,,,,,,,,,,,,,,,,,,,,,,,,,,,,,,,,,,,,,,,,,,,,,,,,,,,,,,,,,,,,
,,,,,,61633b443e445822fb1f24c9,62c53cd057ad50af44d9d107,2022-07-06_10h21.03.368,Colour_Asymmetry_Pilot,2022.1.3,Win32,11.49425287,62c50e9c1127f2cd403a315f,0,144,144,96,1,onetwo,,,,,,,,,,,,,,,,,,,,,,,,,,,,,,,,,,,,,,,,,,,,,,,,,,,,,,,,,,,,,,,,,,,,,,,,,,,,,,,,,,,,,,,,,,,,,,,,,,,,,,,,,,,,,,,,,,,,,,,,,,,,,,,,,,,,,,,,,,,,,,,,,,,,,,,,,,,,,
,,,,,,61633b443e445822fb1f24c9,62c53cd057ad50af44d9d107,2022-07-06_10h21.03.368,Colour_Asymmetry_Pilot,2022.1.3,Win32,11.49425287,62c50e9c1127f2cd403a315f,0,145,145,99,1,twofour,,,,,,,,,,,,,,,,,,,,,,,,,,,,,,,,,,,,,,,,,,,,,,,,,,,,,,,,,,,,,,,,,,,,,,,,,,,,,,,,,,,,,,,,,,,,,,,,,,,,,,,,,,,,,,,,,,,,,,,,,,,,,,,,,,,,,,,,,,,,,,,,,,,,,,,,,,,,,
,,,,,,61633b443e445822fb1f24c9,62c53cd057ad50af44d9d107,2022-07-06_10h21.03.368,Colour_Asymmetry_Pilot,2022.1.3,Win32,11.49425287,62c50e9c1127f2cd403a315f,0,146,146,52,1,threeone,,,,,,,,,,,,,,,,,,,,,,,,,,,,,,,,,,,,,,,,,,,,,,,,,,,,,,,,,,,,,,,,,,,,,,,,,,,,,,,,,,,,,,,,,,,,,,,,,,,,,,,,,,,,,,,,,,,,,,,,,,,,,,,,,,,,,,,,,,,,,,,,,,,,,,,,,,,,,
,,,,,,61633b443e445822fb1f24c9,62c53cd057ad50af44d9d107,2022-07-06_10h21.03.368,Colour_Asymmetry_Pilot,2022.1.3,Win32,11.49425287,62c50e9c1127f2cd403a315f,0,147,147,117,1,threefour,,,,,,,,,,,,,,,,,,,,,,,,,,,,,,,,,,,,,,,,,,,,,,,,,,,,,,,,,,,,,,,,,,,,,,,,,,,,,,,,,,,,,,,,,,,,,,,,,,,,,,,,,,,,,,,,,,,,,,,,,,,,,,,,,,,,,,,,,,,,,,,,,,,,,,,,,,,,,
,,,,,,61633b443e445822fb1f24c9,62c53cd057ad50af44d9d107,2022-07-06_10h21.03.368,Colour_Asymmetry_Pilot,2022.1.3,Win32,11.49425287,62c50e9c1127f2cd403a315f,0,148,148,18,1,twoone,,,,,,,,,,,,,,,,,,,,,,,,,,,,,,,,,,,,,,,,,,,,,,,,,,,,,,,,,,,,,,,,,,,,,,,,,,,,,,,,,,,,,,,,,,,,,,,,,,,,,,,,,,,,,,,,,,,,,,,,,,,,,,,,,,,,,,,,,,,,,,,,,,,,,,,,,,,,,
,,,,,,61633b443e445822fb1f24c9,62c53cd057ad50af44d9d107,2022-07-06_10h21.03.368,Colour_Asymmetry_Pilot,2022.1.3,Win32,11.49425287,62c50e9c1127f2cd403a315f,0,149,149,131,1,twofour,,,,,,,,,,,,,,,,,,,,,,,,,,,,,,,,,,,,,,,,,,,,,,,,,,,,,,,,,,,,,,,,,,,,,,,,,,,,,,,,,,,,,,,,,,,,,,,,,,,,,,,,,,,,,,,,,,,,,,,,,,,,,,,,,,,,,,,,,,,,,,,,,,,,,,,,,,,,,
,,,,,,61633b443e445822fb1f24c9,62c53cd057ad50af44d9d107,2022-07-06_10h21.03.368,Colour_Asymmetry_Pilot,2022.1.3,Win32,11.49425287,62c50e9c1127f2cd403a315f,0,150,150,6,1,fourtwo,,,,,,,,,,,,,,,,,,,,,,,,,,,,,,,,,,,,,,,,,,,,,,,,,,,,,,,,,,,,,,,,,,,,,,,,,,,,,,,,,,,,,,,,,,,,,,,,,,,,,,,,,,,,,,,,,,,,,,,,,,,,,,,,,,,,,,,,,,,,,,,,,,,,,,,,,,,,,
,,,,,,61633b443e445822fb1f24c9,62c53cd057ad50af44d9d107,2022-07-06_10h21.03.368,Colour_Asymmetry_Pilot,2022.1.3,Win32,11.49425287,62c50e9c1127f2cd403a315f,0,151,151,152,1,onetwo,,,,,,,,,,,,,,,,,,,,,,,,,,,,,,,,,,,,,,,,,,,,,,,,,,,,,,,,,,,,,,,,,,,,,,,,,,,,,,,,,,,,,,,,,,,,,,,,,,,,,,,,,,,,,,,,,,,,,,,,,,,,,,,,,,,,,,,,,,,,,,,,,,,,,,,,,,,,,
,,,,,,61633b443e445822fb1f24c9,62c53cd057ad50af44d9d107,2022-07-06_10h21.03.368,Colour_Asymmetry_Pilot,2022.1.3,Win32,11.49425287,62c50e9c1127f2cd403a315f,0,152,152,78,1,fourtwo,,,,,,,,,,,,,,,,,,,,,,,,,,,,,,,,,,,,,,,,,,,,,,,,,,,,,,,,,,,,,,,,,,,,,,,,,,,,,,,,,,,,,,,,,,,,,,,,,,,,,,,,,,,,,,,,,,,,,,,,,,,,,,,,,,,,,,,,,,,,,,,,,,,,,,,,,,,,,
,,,,,,61633b443e445822fb1f24c9,62c53cd057ad50af44d9d107,2022-07-06_10h21.03.368,Colour_Asymmetry_Pilot,2022.1.3,Win32,11.49425287,62c50e9c1127f2cd403a315f,0,153,153,156,1,threeone,,,,,,,,,,,,,,,,,,,,,,,,,,,,,,,,,,,,,,,,,,,,,,,,,,,,,,,,,,,,,,,,,,,,,,,,,,,,,,,,,,,,,,,,,,,,,,,,,,,,,,,,,,,,,,,,,,,,,,,,,,,,,,,,,,,,,,,,,,,,,,,,,,,,,,,,,,,,,
,,,,,,61633b443e445822fb1f24c9,62c53cd057ad50af44d9d107,2022-07-06_10h21.03.368,Colour_Asymmetry_Pilot,2022.1.3,Win32,11.49425287,62c50e9c1127f2cd403a315f,0,154,154,80,1,onetwo,,,,,,,,,,,,,,,,,,,,,,,,,,,,,,,,,,,,,,,,,,,,,,,,,,,,,,,,,,,,,,,,,,,,,,,,,,,,,,,,,,,,,,,,,,,,,,,,,,,,,,,,,,,,,,,,,,,,,,,,,,,,,,,,,,,,,,,,,,,,,,,,,,,,,,,,,,,,,
,,,,,,61633b443e445822fb1f24c9,62c53cd057ad50af44d9d107,2022-07-06_10h21.03.368,Colour_Asymmetry_Pilot,2022.1.3,Win32,11.49425287,62c50e9c1127f2cd403a315f,0,155,155,37,1,threefour,,,,,,,,,,,,,,,,,,,,,,,,,,,,,,,,,,,,,,,,,,,,,,,,,,,,,,,,,,,,,,,,,,,,,,,,,,,,,,,,,,,,,,,,,,,,,,,,,,,,,,,,,,,,,,,,,,,,,,,,,,,,,,,,,,,,,,,,,,,,,,,,,,,,,,,,,,,,,
,,,,,,61633b443e445822fb1f24c9,62c53cd057ad50af44d9d107,2022-07-06_10h21.03.368,Colour_Asymmetry_Pilot,2022.1.3,Win32,11.49425287,62c50e9c1127f2cd403a315f,0,156,156,126,1,fourtwo,,,,,,,,,,,,,,,,,,,,,,,,,,,,,,,,,,,,,,,,,,,,,,,,,,,,,,,,,,,,,,,,,,,,,,,,,,,,,,,,,,,,,,,,,,,,,,,,,,,,,,,,,,,,,,,,,,,,,,,,,,,,,,,,,,,,,,,,,,,,,,,,,,,,,,,,,,,,,
,,,,,,61633b443e445822fb1f24c9,62c53cd057ad50af44d9d107,2022-07-06_10h21.03.368,Colour_Asymmetry_Pilot,2022.1.3,Win32,11.49425287,62c50e9c1127f2cd403a315f,0,157,157,44,1,threeone,,,,,,,,,,,,,,,,,,,,,,,,,,,,,,,,,,,,,,,,,,,,,,,,,,,,,,,,,,,,,,,,,,,,,,,,,,,,,,,,,,,,,,,,,,,,,,,,,,,,,,,,,,,,,,,,,,,,,,,,,,,,,,,,,,,,,,,,,,,,,,,,,,,,,,,,,,,,,
,,,,,,61633b443e445822fb1f24c9,62c53cd057ad50af44d9d107,2022-07-06_10h21.03.368,Colour_Asymmetry_Pilot,2022.1.3,Win32,11.49425287,62c50e9c1127f2cd403a315f,0,158,158,151,1,fourthree,,,,,,,,,,,,,,,,,,,,,,,,,,,,,,,,,,,,,,,,,,,,,,,,,,,,,,,,,,,,,,,,,,,,,,,,,,,,,,,,,,,,,,,,,,,,,,,,,,,,,,,,,,,,,,,,,,,,,,,,,,,,,,,,,,,,,,,,,,,,,,,,,,,,,,,,,,,,,
,,,,,,61633b443e445822fb1f24c9,62c53cd057ad50af44d9d107,2022-07-06_10h21.03.368,Colour_Asymmetry_Pilot,2022.1.3,Win32,11.49425287,62c50e9c1127f2cd403a315f,0,159,159,60,1,threeone,,,,,,,,,,,,,,,,,,,,,,,,,,,,,,,,,,,,,,,,,,,,,,,,,,,,,,,,,,,,,,,,,,,,,,,,,,,,,,,,,,,,,,,,,,,,,,,,,,,,,,,,,,,,,,,,,,,,,,,,,,,,,,,,,,,,,,,,,,,,,,,,,,,,,,,,,,,,,
,,,,,,61633b443e445822fb1f24c9,62c53cd057ad50af44d9d107,2022-07-06_10h21.03.368,Colour_Asymmetry_Pilot,2022.1.3,Win32,11.49425287,62c50e9c1127f2cd403a315f,0,160,160,145,1,onethree,,,,,,,,,,,,,,,,,,,,,,,,,,,,,,,,,,,,,,,,,,,,,,,,,,,,,,,,,,,,,,,,,,,,,,,,,,,,,,,,,,,,,,,,,,,,,,,,,,,,,,,,,,,,,,,,,,,,,,,,,,,,,,,,,,,,,,,,,,,,,,,,,,,,,,,,,,,,,
,,,,,,61633b443e445822fb1f24c9,62c53cd057ad50af44d9d107,2022-07-06_10h21.03.368,Colour_Asymmetry_Pilot,2022.1.3,Win32,11.49425287,62c50e9c1127f2cd403a315f,0,161,161,46,1,fourtwo,,,,,,,,,,,,,,,,,,,,,,,,,,,,,,,,,,,,,,,,,,,,,,,,,,,,,,,,,,,,,,,,,,,,,,,,,,,,,,,,,,,,,,,,,,,,,,,,,,,,,,,,,,,,,,,,,,,,,,,,,,,,,,,,,,,,,,,,,,,,,,,,,,,,,,,,,,,,,
,,,,,,61633b443e445822fb1f24c9,62c53cd057ad50af44d9d107,2022-07-06_10h21.03.368,Colour_Asymmetry_Pilot,2022.1.3,Win32,11.49425287,62c50e9c1127f2cd403a315f,,,,,,,space,3.077,space,2.137,space,11.776,space,6.218,space,7.296,space,4.978,"[-0.30200000000000005,0.14500000000000002,0.2784]",onethree,"[-0.38039999999999996,-0.4276,-0.1452]",3,10.926,97,35,1,0,0,response1disk_5,12,3,1,0,0,rectangle_8,12,3,1,0,0,1,12,3,1,0,0,0,0,0,0,1,,,,,,,,,,,,,,,,,,,,,,,,,,,,,,,,,,,,,,,,,,,,,,,,,,,,,,,,,,,,,,,,,,,,,,,,,,,,,,,,,,,,,,,,,,,,,,,,,,,,,,,,,,,,,,,,
,,,,,,61633b443e445822fb1f24c9,62c53cd057ad50af44d9d107,2022-07-06_10h21.03.368,Colour_Asymmetry_Pilot,2022.1.3,Win32,11.49425287,62c50e9c1127f2cd403a315f,,,,,,,,,,,,,,,,,,,"[0.796,0.2156,-0.27859999999999996]",threeone,"[-0.24719999999999998,-0.0354000000000001,0.3175999999999999]",-4,3.445,-47,79,1,0,0,response7disk_5,0,3,1,0,0,rectangle_8,0,3,1,0,0,1,0,3,1,0,0,1,0,1,0,1,,,,,,,,,,,,,,,,,,,,,,,,,,,,,,,,,,,,,,,,,,,,,,,,,,,,,,,,,,,,,,,,,,,,,,,,,,,,,,,,,,,,,,,,,,,,,,,,,,,,,,,,,,,,,,,,
,,,,,,61633b443e445822fb1f24c9,62c53cd057ad50af44d9d107,2022-07-06_10h21.03.368,Colour_Asymmetry_Pilot,2022.1.3,Win32,11.49425287,62c50e9c1127f2cd403a315f,,,,,,,,,,,,,,,,,,,"[0.6625999999999999,0.4980000000000002,-0.357]",twofour,"[0.3881999999999999,-0.23939999999999995,-0.05040000000000011]",-4,5.693,-39,71,1,0,0,response7disk_5,-8,6,1,0,0,rectangle_8,-8,6,1,0,0,1,-8,6,1,0,0,2,0,2,0,1,,,,,,,,,,,,,,,,,,,,,,,,,,,,,,,,,,,,,,,,,,,,,,,,,,,,,,,,,,,,,,,,,,,,,,,,,,,,,,,,,,,,,,,,,,,,,,,,,,,,,,,,,,,,,,,,
,,,,,,61633b443e445822fb1f24c9,62c53cd057ad50af44d9d107,2022-07-06_10h21.03.368,Colour_Asymmetry_Pilot,2022.1.3,Win32,11.49425287,62c50e9c1127f2cd403a315f,,,,,,,,,,,,,,,,,,,"[0.796,0.2156,-0.27859999999999996]",threeone,"[0.9372,0.9450000000000001,0.8980000000000001]",-2,3.579,-60,-39,1,0,0,response5disk_5,15,7,1,0,0,rectangle_8,15,7,1,0,0,1,15,7,1,0,0,3,0,3,0,1,,,,,,,,,,,,,,,,,,,,,,,,,,,,,,,,,,,,,,,,,,,,,,,,,,,,,,,,,,,,,,,,,,,,,,,,,,,,,,,,,,,,,,,,,,,,,,,,,,,,,,,,,,,,,,,,
,,,,,,61633b443e445822fb1f24c9,62c53cd057ad50af44d9d107,2022-07-06_10h21.03.368,Colour_Asymmetry_Pilot,2022.1.3,Win32,11.49425287,62c50e9c1127f2cd403a315f,,,,,,,,,,,,,,,,,,,"[-0.5922000000000001,-0.7492000000000001,-0.5296000000000001]",twofour,"[-0.6235999999999999,-0.6786,-0.08239999999999992]",3,5.2,86,47,1,0,0,response1disk_5,-14,-4,1,0,0,rectangle_8,44,-71,1,0,0,1,7,9,1,0,0,4,0,4,0,1,response3disk_7,4,rectangle_4,,,,,,,,,,,,,,,,,,,,,,,,,,,,,,,,,,,,,,,,,,,,,,,,,,,,,,,,,,,,,,,,,,,,,,,,,,,,,,,,,,,,,,,,,,,,,,,,,,,,,,,,,,,,,
,,,,,,61633b443e445822fb1f24c9,62c53cd057ad50af44d9d107,2022-07-06_10h21.03.368,Colour_Asymmetry_Pilot,2022.1.3,Win32,11.49425287,62c50e9c1127f2cd403a315f,,,,,,,,,,,,,,,,,,,"[0.37240000000000006,-0.050999999999999934,-0.5216]",twoone,"[-0.01980000000000004,-0.5138,-0.38039999999999996]",-4,3.206,-47,91,1,0,0,response7disk_5,2,0,1,0,0,rectangle_8,2,0,1,0,0,1,2,0,1,0,0,5,0,5,0,1,,,,,,,,,,,,,,,,,,,,,,,,,,,,,,,,,,,,,,,,,,,,,,,,,,,,,,,,,,,,,,,,,,,,,,,,,,,,,,,,,,,,,,,,,,,,,,,,,,,,,,,,,,,,,,,,
,,,,,,61633b443e445822fb1f24c9,62c53cd057ad50af44d9d107,2022-07-06_10h21.03.368,Colour_Asymmetry_Pilot,2022.1.3,Win32,11.49425287,62c50e9c1127f2cd403a315f,,,,,,,,,,,,,,,,,,,"[0.5449999999999999,-0.31000000000000005,-0.0354000000000001]",fourthree,"[0.796,0.2156,-0.27859999999999996]",-4,2.66,-31,77,1,0,0,response7disk_5,-2,4,1,0,0,rectangle_8,-2,4,1,0,0,1,-2,4,1,0,0,6,0,6,0,1,,,,,,,,,,,,,,,,,,,,,,,,,,,,,,,,,,,,,,,,,,,,,,,,,,,,,,,,,,,,,,,,,,,,,,,,,,,,,,,,,,,,,,,,,,,,,,,,,,,,,,,,,,,,,,,,
,,,,,,61633b443e445822fb1f24c9,62c53cd057ad50af44d9d107,2022-07-06_10h21.03.368,Colour_Asymmetry_Pilot,2022.1.3,Win32,11.49425287,62c50e9c1127f2cd403a315f,,,,,,,,,,,,,,,,,,,,onetwo,,-4,3.924,,,,,,,,,,,,,,,,,,,,,,,,,,,,,,,,space,4.781,"[-0.45899999999999996,-0.3256,-0.9374]","[-0.011800000000000033,-0.906,-0.45100000000000007]",-38,86,1,0,0,response7disk,-4,7,1,0,0,rectangle,-4,7,1,0,0,,2,0.02,0,-4,7,1,0,0,0,0,0,132,1,51,second,,,,,,,,,,,,,,,,,,,,,,,,,,,,,,,,,,,,,,,,,,,,,,,,,,,,,,,,,,,,,,,,,,,,,,,,
,,,,,,61633b443e445822fb1f24c9,62c53cd057ad50af44d9d107,2022-07-06_10h21.03.368,Colour_Asymmetry_Pilot,2022.1.3,Win32,11.49425287,62c50e9c1127f2cd403a315f,,,,,,,,,,,,,,,,,,,,fourtwo,,-3,7.447,,,,,,,,,,,,,,,,,,,,,,,,,,,,,,,,,,"[0.30180000000000007,-0.7884,-0.9844]","[0.796,0.2156,-0.27859999999999996]",-73,36,1,0,0,response7disk,12,0,1,0,0,rectangle,78,-38,1,0,0,2,2,3.786,1,0,8,1,0,0,0,1,1,161,1,80,second,response3disk_3,rectangle,,,,,,,,,,,,,,,,,,,,,,,,,,,,,,,,,,,,,,,,,,,,,,,,,,,,,,,,,,,,,,,,,,,,,,
,,,,,,61633b443e445822fb1f24c9,62c53cd057ad50af44d9d107,2022-07-06_10h21.03.368,Colour_Asymmetry_Pilot,2022.1.3,Win32,11.49425287,62c50e9c1127f2cd403a315f,,,,,,,,,,,,,,,,,,,,threefour,,2,4.377,,,,,,,,,,,,,,,,,,,,,,,,,,,,,,,,,,"[-0.10599999999999998,-0.15300000000000002,0.15280000000000005]","[-0.6942,-0.7648,-0.12959999999999994]",92,-37,1,0,0,response3disk,-6,-1,1,0,0,rectangle,-6,-1,1,0,0,2,3,0.005,0,-6,-1,1,0,0,0,2,2,16,1,16,first,,,,,,,,,,,,,,,,,,,,,,,,,,,,,,,,,,,,,,,,,,,,,,,,,,,,,,,,,,,,,,,,,,,,,,,,
,,,,,,61633b443e445822fb1f24c9,62c53cd057ad50af44d9d107,2022-07-06_10h21.03.368,Colour_Asymmetry_Pilot,2022.1.3,Win32,11.49425287,62c50e9c1127f2cd403a315f,,,,,,,,,,,,,,,,,,,,threeone,,-4,3.189,,,,,,,,,,,,,,,,,,,,,,,,,,,,,,,,,,"[-0.4668,-0.8746,-0.2942]","[-0.4902000000000001,0.2704,-0.45899999999999996]",-31,87,1,0,0,response7disk,2,0,1,0,0,rectangle,2,0,1,0,0,2,2,0.01,0,2,0,1,0,0,0,3,3,119,1,38,second,,,,,,,,,,,,,,,,,,,,,,,,,,,,,,,,,,,,,,,,,,,,,,,,,,,,,,,,,,,,,,,,,,,,,,,,
,,,,,,61633b443e445822fb1f24c9,62c53cd057ad50af44d9d107,2022-07-06_10h21.03.368,Colour_Asymmetry_Pilot,2022.1.3,Win32,11.49425287,62c50e9c1127f2cd403a315f,,,,,,,,,,,,,,,,,,,,onetwo,,-4,1.953,,,,,,,,,,,,,,,,,,,,,,,,,,,,,,,,,,"[0.9763999999999999,0.30979999999999985,-0.6786]","[0.8115999999999999,-0.0040000000000000036,-0.09819999999999995]",-36,69,1,0,0,response7disk,5,11,1,0,0,rectangle,5,11,1,0,0,2,3,0.012,0,5,11,1,0,0,0,4,4,50,1,50,first,,,,,,,,,,,,,,,,,,,,,,,,,,,,,,,,,,,,,,,,,,,,,,,,,,,,,,,,,,,,,,,,,,,,,,,,
,,,,,,61633b443e445822fb1f24c9,62c53cd057ad50af44d9d107,2022-07-06_10h21.03.368,Colour_Asymmetry_Pilot,2022.1.3,Win32,11.49425287,62c50e9c1127f2cd403a315f,,,,,,,,,,,,,,,,,,,,twoone,,-4,2.038,,,,,,,,,,,,,,,,,,,,,,,,,,,,,,,,,,"[-0.4746,-0.0354000000000001,0.5449999999999999]","[-0.011800000000000033,-0.906,-0.45100000000000007]",-44,85,1,0,0,response7disk,-7,10,1,0,0,rectangle,-7,10,1,0,0,2,2,0.006,0,-7,10,1,0,0,0,5,5,127,1,46,second,,,,,,,,,,,,,,,,,,,,,,,,,,,,,,,,,,,,,,,,,,,,,,,,,,,,,,,,,,,,,,,,,,,,,,,,
,,,,,,61633b443e445822fb1f24c9,62c53cd057ad50af44d9d107,2022-07-06_10h21.03.368,Colour_Asymmetry_Pilot,2022.1.3,Win32,11.49425287,62c50e9c1127f2cd403a315f,,,,,,,,,,,,,,,,,,,,onethree,,2,2.443,,,,,,,,,,,,,,,,,,,,,,,,,,,,,,,,,,"[0.796,0.2156,-0.27859999999999996]","[0.9763999999999999,-0.1137999999999999,-0.6314]",83,-36,1,0,0,response3disk,-13,8,1,0,0,rectangle,-13,8,1,0,0,2,3,0.014,0,-13,8,1,0,0,0,6,6,2,1,2,first,,,,,,,,,,,,,,,,,,,,,,,,,,,,,,,,,,,,,,,,,,,,,,,,,,,,,,,,,,,,,,,,,,,,,,,,
,,,,,,61633b443e445822fb1f24c9,62c53cd057ad50af44d9d107,2022-07-06_10h21.03.368,Colour_Asymmetry_Pilot,2022.1.3,Win32,11.49425287,62c50e9c1127f2cd403a315f,,,,,,,,,,,,,,,,,,,,twoone,,-4,1.099,,,,,,,,,,,,,,,,,,,,,,,,,,,,,,,,,,"[0.37240000000000006,-0.050999999999999934,-0.5216]","[-0.07459999999999989,0.12139999999999995,-0.9922]",-25,37,1,0,0,response7disk,2,6,1,0,0,rectangle,2,6,1,0,0,2,2,0.005,0,2,6,1,0,0,0,7,7,152,1,71,second,,,,,,,,,,,,,,,,,,,,,,,,,,,,,,,,,,,,,,,,,,,,,,,,,,,,,,,,,,,,,,,,,,,,,,,,
,,,,,,61633b443e445822fb1f24c9,62c53cd057ad50af44d9d107,2022-07-06_10h21.03.368,Colour_Asymmetry_Pilot,2022.1.3,Win32,11.49425287,62c50e9c1127f2cd403a315f,,,,,,,,,,,,,,,,,,,,threefour,,-4,1.426,,,,,,,,,,,,,,,,,,,,,,,,,,,,,,,,,,"[0.22340000000000004,-0.9296,-0.7884]","[-0.9216,-0.5529999999999999,-0.3962]",-46,96,1,0,0,response7disk,1,9,1,0,0,rectangle,1,9,1,0,0,2,3,0.011,0,1,9,1,0,0,0,8,8,142,1,61,second,,,,,,,,,,,,,,,,,,,,,,,,,,,,,,,,,,,,,,,,,,,,,,,,,,,,,,,,,,,,,,,,,,,,,,,,
,,,,,,61633b443e445822fb1f24c9,62c53cd057ad50af44d9d107,2022-07-06_10h21.03.368,Colour_Asymmetry_Pilot,2022.1.3,Win32,11.49425287,62c50e9c1127f2cd403a315f,,,,,,,,,,,,,,,,,,,,fourtwo,,-4,1.221,,,,,,,,,,,,,,,,,,,,,,,,,,,,,,,,,,"[-0.7412000000000001,-0.08239999999999992,-0.6864]","[0.7176,-0.906,-0.6864]",-26,80,1,0,0,response7disk,-10,1,1,0,0,rectangle,-10,1,1,0,0,2,3,0.003,0,-10,1,1,0,0,0,9,9,1,1,1,first,,,,,,,,,,,,,,,,,,,,,,,,,,,,,,,,,,,,,,,,,,,,,,,,,,,,,,,,,,,,,,,,,,,,,,,,
,,,,,,61633b443e445822fb1f24c9,62c53cd057ad50af44d9d107,2022-07-06_10h21.03.368,Colour_Asymmetry_Pilot,2022.1.3,Win32,11.49425287,62c50e9c1127f2cd403a315f,,,,,,,,,,,,,,,,,,,,onethree,,-4,1.586,,,,,,,,,,,,,,,,,,,,,,,,,,,,,,,,,,"[-0.9138,-0.5296000000000001,-0.5529999999999999]","[0.19199999999999995,0.18419999999999992,0.5136000000000001]",-33,60,1,0,0,response7disk,2,-7,1,0,0,rectangle,64,-36,1,0,0,2,2,2.919,1,2,-4,1,0,0,0,10,10,11,1,11,first,response3disk_3,rectangle,,,,,,,,,,,,,,,,,,,,,,,,,,,,,,,,,,,,,,,,,,,,,,,,,,,,,,,,,,,,,,,,,,,,,,
,,,,,,61633b443e445822fb1f24c9,62c53cd057ad50af44d9d107,2022-07-06_10h21.03.368,Colour_Asymmetry_Pilot,2022.1.3,Win32,11.49425287,62c50e9c1127f2cd403a315f,,,,,,,,,,,,,,,,,,,,threefour,,-4,1.63,,,,,,,,,,,,,,,,,,,,,,,,,,,,,,,,,,"[0.9372,0.9450000000000001,0.8980000000000001]","[-0.45899999999999996,-0.3256,-0.9374]",-57,96,1,0,0,response7disk,0,-2,1,0,0,rectangle,0,-2,1,0,0,2,1,0.007,0,0,-2,1,0,0,0,11,11,33,1,33,first,,,,,,,,,,,,,,,,,,,,,,,,,,,,,,,,,,,,,,,,,,,,,,,,,,,,,,,,,,,,,,,,,,,,,,,,
,,,,,,61633b443e445822fb1f24c9,62c53cd057ad50af44d9d107,2022-07-06_10h21.03.368,Colour_Asymmetry_Pilot,2022.1.3,Win32,11.49425287,62c50e9c1127f2cd403a315f,,,,,,,,,,,,,,,,,,,,twoone,,-3,4.546,,,,,,,,,,,,,,,,,,,,,,,,,,,,,,,,,,"[-0.4902000000000001,0.2704,-0.45899999999999996]","[-0.4668,-0.8746,-0.2942]",-100,25,1,0,0,response7disk,-5,7,1,0,0,rectangle,-5,7,1,0,0,2,2,0.004,0,-5,7,1,0,0,0,12,12,38,1,38,first,,,,,,,,,,,,,,,,,,,,,,,,,,,,,,,,,,,,,,,,,,,,,,,,,,,,,,,,,,,,,,,,,,,,,,,,
,,,,,,61633b443e445822fb1f24c9,62c53cd057ad50af44d9d107,2022-07-06_10h21.03.368,Colour_Asymmetry_Pilot,2022.1.3,Win32,11.49425287,62c50e9c1127f2cd403a315f,,,,,,,,,,,,,,,,,,,,fourtwo,,1,2.149,,,,,,,,,,,,,,,,,,,,,,,,,,,,,,,,,,"[-0.9296,-0.12959999999999994,-0.043199999999999905]","[-0.26280000000000003,-0.2158,-0.3256]",36,-77,1,0,0,response3disk,7,12,1,0,0,rectangle,7,12,1,0,0,2,1,0.006,0,7,12,1,0,0,0,13,13,139,1,58,second,,,,,,,,,,,,,,,,,,,,,,,,,,,,,,,,,,,,,,,,,,,,,,,,,,,,,,,,,,,,,,,,,,,,,,,,
,,,,,,61633b443e445822fb1f24c9,62c53cd057ad50af44d9d107,2022-07-06_10h21.03.368,Colour_Asymmetry_Pilot,2022.1.3,Win32,11.49425287,62c50e9c1127f2cd403a315f,,,,,,,,,,,,,,,,,,,,onetwo,,-4,1.22,,,,,,,,,,,,,,,,,,,,,,,,,,,,,,,,,,"[-0.20799999999999996,-0.655,-0.01980000000000004]","[0.9763999999999999,-0.1137999999999999,-0.6314]",-49,71,1,0,0,response7disk,-5,7,1,0,0,rectangle,-5,7,1,0,0,2,3,0.01,0,-5,7,1,0,0,0,14,14,27,1,27,first,,,,,,,,,,,,,,,,,,,,,,,,,,,,,,,,,,,,,,,,,,,,,,,,,,,,,,,,,,,,,,,,,,,,,,,,
,,,,,,61633b443e445822fb1f24c9,62c53cd057ad50af44d9d107,2022-07-06_10h21.03.368,Colour_Asymmetry_Pilot,2022.1.3,Win32,11.49425287,62c50e9c1127f2cd403a315f,,,,,,,,,,,,,,,,,,,,threefour,,-2,2.74,,,,,,,,,,,,,,,,,,,,,,,,,,,,,,,,,,"[-0.8118,-0.8198,-0.5452]","[-0.0040000000000000036,0.02739999999999987,-0.08239999999999992]",-66,-27,1,0,0,response5disk,4,-2,1,0,0,rectangle,4,-2,1,0,0,2,2,0.016,0,4,-2,1,0,0,0,15,15,98,1,17,second,,,,,,,,,,,,,,,,,,,,,,,,,,,,,,,,,,,,,,,,,,,,,,,,,,,,,,,,,,,,,,,,,,,,,,,,
,,,,,,61633b443e445822fb1f24c9,62c53cd057ad50af44d9d107,2022-07-06_10h21.03.368,Colour_Asymmetry_Pilot,2022.1.3,Win32,11.49425287,62c50e9c1127f2cd403a315f,,,,,,,,,,,,,,,,,,,,twofour,,-4,0.82,,,,,,,,,,,,,,,,,,,,,,,,,,,,,,,,,,"[-0.17659999999999998,0.3253999999999999,0.19999999999999996]","[0.2784,-0.31000000000000005,-0.5452]",-58,79,1,0,0,response7disk,4,-3,1,0,0,rectangle,4,-3,1,0,0,2,3,0.009,0,4,-3,1,0,0,0,16,16,3,1,3,first,,,,,,,,,,,,,,,,,,,,,,,,,,,,,,,,,,,,,,,,,,,,,,,,,,,,,,,,,,,,,,,,,,,,,,,,
,,,,,,61633b443e445822fb1f24c9,62c53cd057ad50af44d9d107,2022-07-06_10h21.03.368,Colour_Asymmetry_Pilot,2022.1.3,Win32,11.49425287,62c50e9c1127f2cd403a315f,,,,,,,,,,,,,,,,,,,,threefour,,1,1.769,,,,,,,,,,,,,,,,,,,,,,,,,,,,,,,,,,"[-0.01980000000000004,-0.5138,-0.38039999999999996]","[-0.26280000000000003,-0.4746,-0.2158]",59,-69,1,0,0,response3disk,5,5,1,0,0,rectangle,5,5,1,0,0,2,2,0.005,0,5,5,1,0,0,0,17,17,81,1,0,second,,,,,,,,,,,,,,,,,,,,,,,,,,,,,,,,,,,,,,,,,,,,,,,,,,,,,,,,,,,,,,,,,,,,,,,,
