trials.thisRepN,trials.thisTrialN,trials.thisN,trials.thisIndex,trials.ran,Colourcodes,participant,session,date,expName,psychopyVersion,OS,frameRate,study_id,trials_4.thisRepN,trials_4.thisTrialN,trials_4.thisN,trials_4.thisIndex,trials_4.ran,StimulusPos,key_resp.keys,key_resp.rt,key_resp_2.keys,key_resp_2.rt,key_resp_15.keys,key_resp_15.rt,key_resp_17.keys,key_resp_17.rt,key_resp_9.keys,key_resp_9.rt,key_resp_10.keys,key_resp_10.rt,Circle1_col,Ecc,Circle2_col,similarity,response_time,mouse_5.x,mouse_5.y,mouse_5.leftButton,mouse_5.midButton,mouse_5.rightButton,mouse_5.clicked_name,mouse_10.x,mouse_10.y,mouse_10.leftButton,mouse_10.midButton,mouse_10.rightButton,mouse_10.clicked_name,mouse_7.x,mouse_7.y,mouse_7.leftButton,mouse_7.midButton,mouse_7.rightButton,mouse_7.clicked_name,catchprac,catchnumberprac,mouse_6.x,mouse_6.y,mouse_6.leftButton,mouse_6.midButton,mouse_6.rightButton,mouse_6.clicked_name,duringprac.thisRepN,duringprac.thisTrialN,duringprac.thisN,duringprac.thisIndex,duringprac.ran,key_resp_22.keys,key_resp_22.rt,Circle1_colour,Circle2_colour,mouse.x,mouse.y,mouse.leftButton,mouse.midButton,mouse.rightButton,mouse.clicked_name,mouse_2.x,mouse_2.y,mouse_2.leftButton,mouse_2.midButton,mouse_2.rightButton,mouse_2.clicked_name,mouse_3.x,mouse_3.y,mouse_3.leftButton,mouse_3.midButton,mouse_3.rightButton,catchresponse,catchnumber,response_time_catch,Catch,mouse_11.x,mouse_11.y,mouse_11.leftButton,mouse_11.midButton,mouse_11.rightButton,trials_2.thisRepN,trials_2.thisTrialN,trials_2.thisN,trials_2.thisIndex,trials_2.ran,Colourpair,Temporder,mouse_3.clicked_name,mouse_11.clicked_name,trials_3.thisRepN,trials_3.thisTrialN,trials_3.thisN,trials_3.thisIndex,trials_3.ran,key_resp_instr_Ishi.keys,key_resp_instr_Ishi.rt,Ishi_trial_keyresp.keys,Ishi_textbox.text,Ishi_mouse.x,Ishi_mouse.y,Ishi_mouse.leftButton,Ishi_mouse.midButton,Ishi_mouse.rightButton,Ishi_mouse.clicked_name,Ishi_loop.thisRepN,Ishi_loop.thisTrialN,Ishi_loop.thisN,Ishi_loop.thisIndex,Ishi_loop.ran,imageaddress,textbox.text,mouse_4.x,mouse_4.y,mouse_4.leftButton,mouse_4.midButton,mouse_4.rightButton,mouse_4.clicked_name,textbox_2.text,mouse_8.x,mouse_8.y,mouse_8.leftButton,mouse_8.midButton,mouse_8.rightButton,mouse_8.clicked_name,textbox_3.text,mouse_9.x,mouse_9.y,mouse_9.leftButton,mouse_9.midButton,mouse_9.rightButton,mouse_9.clicked_name,textbox_4.text,mouse_12.x,mouse_12.y,mouse_12.leftButton,mouse_12.midButton,mouse_12.rightButton,mouse_12.clicked_name,textbox_5.text,mouse_13.x,mouse_13.y,mouse_13.leftButton,mouse_13.midButton,mouse_13.rightButton,mouse_13.clicked_name,textbox_6.text,mouse_14.x,mouse_14.y,mouse_14.leftButton,mouse_14.midButton,mouse_14.rightButton,mouse_14.clicked_name,textbox_7.text,mouse_15.x,mouse_15.y,mouse_15.leftButton,mouse_15.midButton,mouse_15.rightButton,mouse_15.clicked_name
0,0,0,57,1,,60e5bae47d73a213b5189148,62c539bfaeca55441460b844,2022-07-06_19h29.33.779,Colour_Asymmetry_Pilot,2022.1.3,Win32,60.16847172,62c50e9c1127f2cd403a315f,,,,,,,,,,,,,,,,,,,,,,,,,,,,,,,,,,,,,,,,,,,,,,,,,,,,,,,,,,,,,,,,,,,,,,,,,,,,,,,,,,,,,,,,,,,,,,,,,,,,,,,,,,,,,,,,,,,,,,,,,,,,,,,,,,,,,,,,,,,,,,,,,,,,,,,,,,,,,,,,,,,
0,1,1,40,1,,60e5bae47d73a213b5189148,62c539bfaeca55441460b844,2022-07-06_19h29.33.779,Colour_Asymmetry_Pilot,2022.1.3,Win32,60.16847172,62c50e9c1127f2cd403a315f,,,,,,,,,,,,,,,,,,,,,,,,,,,,,,,,,,,,,,,,,,,,,,,,,,,,,,,,,,,,,,,,,,,,,,,,,,,,,,,,,,,,,,,,,,,,,,,,,,,,,,,,,,,,,,,,,,,,,,,,,,,,,,,,,,,,,,,,,,,,,,,,,,,,,,,,,,,,,,,,,,,
0,2,2,64,1,,60e5bae47d73a213b5189148,62c539bfaeca55441460b844,2022-07-06_19h29.33.779,Colour_Asymmetry_Pilot,2022.1.3,Win32,60.16847172,62c50e9c1127f2cd403a315f,,,,,,,,,,,,,,,,,,,,,,,,,,,,,,,,,,,,,,,,,,,,,,,,,,,,,,,,,,,,,,,,,,,,,,,,,,,,,,,,,,,,,,,,,,,,,,,,,,,,,,,,,,,,,,,,,,,,,,,,,,,,,,,,,,,,,,,,,,,,,,,,,,,,,,,,,,,,,,,,,,,
0,3,3,11,1,,60e5bae47d73a213b5189148,62c539bfaeca55441460b844,2022-07-06_19h29.33.779,Colour_Asymmetry_Pilot,2022.1.3,Win32,60.16847172,62c50e9c1127f2cd403a315f,,,,,,,,,,,,,,,,,,,,,,,,,,,,,,,,,,,,,,,,,,,,,,,,,,,,,,,,,,,,,,,,,,,,,,,,,,,,,,,,,,,,,,,,,,,,,,,,,,,,,,,,,,,,,,,,,,,,,,,,,,,,,,,,,,,,,,,,,,,,,,,,,,,,,,,,,,,,,,,,,,,
0,4,4,83,1,,60e5bae47d73a213b5189148,62c539bfaeca55441460b844,2022-07-06_19h29.33.779,Colour_Asymmetry_Pilot,2022.1.3,Win32,60.16847172,62c50e9c1127f2cd403a315f,,,,,,,,,,,,,,,,,,,,,,,,,,,,,,,,,,,,,,,,,,,,,,,,,,,,,,,,,,,,,,,,,,,,,,,,,,,,,,,,,,,,,,,,,,,,,,,,,,,,,,,,,,,,,,,,,,,,,,,,,,,,,,,,,,,,,,,,,,,,,,,,,,,,,,,,,,,,,,,,,,,
0,5,5,69,1,,60e5bae47d73a213b5189148,62c539bfaeca55441460b844,2022-07-06_19h29.33.779,Colour_Asymmetry_Pilot,2022.1.3,Win32,60.16847172,62c50e9c1127f2cd403a315f,,,,,,,,,,,,,,,,,,,,,,,,,,,,,,,,,,,,,,,,,,,,,,,,,,,,,,,,,,,,,,,,,,,,,,,,,,,,,,,,,,,,,,,,,,,,,,,,,,,,,,,,,,,,,,,,,,,,,,,,,,,,,,,,,,,,,,,,,,,,,,,,,,,,,,,,,,,,,,,,,,,
0,6,6,7,1,,60e5bae47d73a213b5189148,62c539bfaeca55441460b844,2022-07-06_19h29.33.779,Colour_Asymmetry_Pilot,2022.1.3,Win32,60.16847172,62c50e9c1127f2cd403a315f,,,,,,,,,,,,,,,,,,,,,,,,,,,,,,,,,,,,,,,,,,,,,,,,,,,,,,,,,,,,,,,,,,,,,,,,,,,,,,,,,,,,,,,,,,,,,,,,,,,,,,,,,,,,,,,,,,,,,,,,,,,,,,,,,,,,,,,,,,,,,,,,,,,,,,,,,,,,,,,,,,,
0,7,7,87,1,,60e5bae47d73a213b5189148,62c539bfaeca55441460b844,2022-07-06_19h29.33.779,Colour_Asymmetry_Pilot,2022.1.3,Win32,60.16847172,62c50e9c1127f2cd403a315f,,,,,,,,,,,,,,,,,,,,,,,,,,,,,,,,,,,,,,,,,,,,,,,,,,,,,,,,,,,,,,,,,,,,,,,,,,,,,,,,,,,,,,,,,,,,,,,,,,,,,,,,,,,,,,,,,,,,,,,,,,,,,,,,,,,,,,,,,,,,,,,,,,,,,,,,,,,,,,,,,,,
0,8,8,5,1,,60e5bae47d73a213b5189148,62c539bfaeca55441460b844,2022-07-06_19h29.33.779,Colour_Asymmetry_Pilot,2022.1.3,Win32,60.16847172,62c50e9c1127f2cd403a315f,,,,,,,,,,,,,,,,,,,,,,,,,,,,,,,,,,,,,,,,,,,,,,,,,,,,,,,,,,,,,,,,,,,,,,,,,,,,,,,,,,,,,,,,,,,,,,,,,,,,,,,,,,,,,,,,,,,,,,,,,,,,,,,,,,,,,,,,,,,,,,,,,,,,,,,,,,,,,,,,,,,
0,9,9,36,1,,60e5bae47d73a213b5189148,62c539bfaeca55441460b844,2022-07-06_19h29.33.779,Colour_Asymmetry_Pilot,2022.1.3,Win32,60.16847172,62c50e9c1127f2cd403a315f,,,,,,,,,,,,,,,,,,,,,,,,,,,,,,,,,,,,,,,,,,,,,,,,,,,,,,,,,,,,,,,,,,,,,,,,,,,,,,,,,,,,,,,,,,,,,,,,,,,,,,,,,,,,,,,,,,,,,,,,,,,,,,,,,,,,,,,,,,,,,,,,,,,,,,,,,,,,,,,,,,,
0,10,10,48,1,,60e5bae47d73a213b5189148,62c539bfaeca55441460b844,2022-07-06_19h29.33.779,Colour_Asymmetry_Pilot,2022.1.3,Win32,60.16847172,62c50e9c1127f2cd403a315f,,,,,,,,,,,,,,,,,,,,,,,,,,,,,,,,,,,,,,,,,,,,,,,,,,,,,,,,,,,,,,,,,,,,,,,,,,,,,,,,,,,,,,,,,,,,,,,,,,,,,,,,,,,,,,,,,,,,,,,,,,,,,,,,,,,,,,,,,,,,,,,,,,,,,,,,,,,,,,,,,,,
0,11,11,92,1,,60e5bae47d73a213b5189148,62c539bfaeca55441460b844,2022-07-06_19h29.33.779,Colour_Asymmetry_Pilot,2022.1.3,Win32,60.16847172,62c50e9c1127f2cd403a315f,,,,,,,,,,,,,,,,,,,,,,,,,,,,,,,,,,,,,,,,,,,,,,,,,,,,,,,,,,,,,,,,,,,,,,,,,,,,,,,,,,,,,,,,,,,,,,,,,,,,,,,,,,,,,,,,,,,,,,,,,,,,,,,,,,,,,,,,,,,,,,,,,,,,,,,,,,,,,,,,,,,
0,12,12,24,1,,60e5bae47d73a213b5189148,62c539bfaeca55441460b844,2022-07-06_19h29.33.779,Colour_Asymmetry_Pilot,2022.1.3,Win32,60.16847172,62c50e9c1127f2cd403a315f,,,,,,,,,,,,,,,,,,,,,,,,,,,,,,,,,,,,,,,,,,,,,,,,,,,,,,,,,,,,,,,,,,,,,,,,,,,,,,,,,,,,,,,,,,,,,,,,,,,,,,,,,,,,,,,,,,,,,,,,,,,,,,,,,,,,,,,,,,,,,,,,,,,,,,,,,,,,,,,,,,,
0,13,13,13,1,,60e5bae47d73a213b5189148,62c539bfaeca55441460b844,2022-07-06_19h29.33.779,Colour_Asymmetry_Pilot,2022.1.3,Win32,60.16847172,62c50e9c1127f2cd403a315f,,,,,,,,,,,,,,,,,,,,,,,,,,,,,,,,,,,,,,,,,,,,,,,,,,,,,,,,,,,,,,,,,,,,,,,,,,,,,,,,,,,,,,,,,,,,,,,,,,,,,,,,,,,,,,,,,,,,,,,,,,,,,,,,,,,,,,,,,,,,,,,,,,,,,,,,,,,,,,,,,,,
0,14,14,23,1,,60e5bae47d73a213b5189148,62c539bfaeca55441460b844,2022-07-06_19h29.33.779,Colour_Asymmetry_Pilot,2022.1.3,Win32,60.16847172,62c50e9c1127f2cd403a315f,,,,,,,,,,,,,,,,,,,,,,,,,,,,,,,,,,,,,,,,,,,,,,,,,,,,,,,,,,,,,,,,,,,,,,,,,,,,,,,,,,,,,,,,,,,,,,,,,,,,,,,,,,,,,,,,,,,,,,,,,,,,,,,,,,,,,,,,,,,,,,,,,,,,,,,,,,,,,,,,,,,
0,15,15,63,1,,60e5bae47d73a213b5189148,62c539bfaeca55441460b844,2022-07-06_19h29.33.779,Colour_Asymmetry_Pilot,2022.1.3,Win32,60.16847172,62c50e9c1127f2cd403a315f,,,,,,,,,,,,,,,,,,,,,,,,,,,,,,,,,,,,,,,,,,,,,,,,,,,,,,,,,,,,,,,,,,,,,,,,,,,,,,,,,,,,,,,,,,,,,,,,,,,,,,,,,,,,,,,,,,,,,,,,,,,,,,,,,,,,,,,,,,,,,,,,,,,,,,,,,,,,,,,,,,,
0,16,16,4,1,,60e5bae47d73a213b5189148,62c539bfaeca55441460b844,2022-07-06_19h29.33.779,Colour_Asymmetry_Pilot,2022.1.3,Win32,60.16847172,62c50e9c1127f2cd403a315f,,,,,,,,,,,,,,,,,,,,,,,,,,,,,,,,,,,,,,,,,,,,,,,,,,,,,,,,,,,,,,,,,,,,,,,,,,,,,,,,,,,,,,,,,,,,,,,,,,,,,,,,,,,,,,,,,,,,,,,,,,,,,,,,,,,,,,,,,,,,,,,,,,,,,,,,,,,,,,,,,,,
0,17,17,55,1,,60e5bae47d73a213b5189148,62c539bfaeca55441460b844,2022-07-06_19h29.33.779,Colour_Asymmetry_Pilot,2022.1.3,Win32,60.16847172,62c50e9c1127f2cd403a315f,,,,,,,,,,,,,,,,,,,,,,,,,,,,,,,,,,,,,,,,,,,,,,,,,,,,,,,,,,,,,,,,,,,,,,,,,,,,,,,,,,,,,,,,,,,,,,,,,,,,,,,,,,,,,,,,,,,,,,,,,,,,,,,,,,,,,,,,,,,,,,,,,,,,,,,,,,,,,,,,,,,
0,18,18,65,1,,60e5bae47d73a213b5189148,62c539bfaeca55441460b844,2022-07-06_19h29.33.779,Colour_Asymmetry_Pilot,2022.1.3,Win32,60.16847172,62c50e9c1127f2cd403a315f,,,,,,,,,,,,,,,,,,,,,,,,,,,,,,,,,,,,,,,,,,,,,,,,,,,,,,,,,,,,,,,,,,,,,,,,,,,,,,,,,,,,,,,,,,,,,,,,,,,,,,,,,,,,,,,,,,,,,,,,,,,,,,,,,,,,,,,,,,,,,,,,,,,,,,,,,,,,,,,,,,,
0,19,19,17,1,,60e5bae47d73a213b5189148,62c539bfaeca55441460b844,2022-07-06_19h29.33.779,Colour_Asymmetry_Pilot,2022.1.3,Win32,60.16847172,62c50e9c1127f2cd403a315f,,,,,,,,,,,,,,,,,,,,,,,,,,,,,,,,,,,,,,,,,,,,,,,,,,,,,,,,,,,,,,,,,,,,,,,,,,,,,,,,,,,,,,,,,,,,,,,,,,,,,,,,,,,,,,,,,,,,,,,,,,,,,,,,,,,,,,,,,,,,,,,,,,,,,,,,,,,,,,,,,,,
0,20,20,50,1,,60e5bae47d73a213b5189148,62c539bfaeca55441460b844,2022-07-06_19h29.33.779,Colour_Asymmetry_Pilot,2022.1.3,Win32,60.16847172,62c50e9c1127f2cd403a315f,,,,,,,,,,,,,,,,,,,,,,,,,,,,,,,,,,,,,,,,,,,,,,,,,,,,,,,,,,,,,,,,,,,,,,,,,,,,,,,,,,,,,,,,,,,,,,,,,,,,,,,,,,,,,,,,,,,,,,,,,,,,,,,,,,,,,,,,,,,,,,,,,,,,,,,,,,,,,,,,,,,
0,21,21,39,1,,60e5bae47d73a213b5189148,62c539bfaeca55441460b844,2022-07-06_19h29.33.779,Colour_Asymmetry_Pilot,2022.1.3,Win32,60.16847172,62c50e9c1127f2cd403a315f,,,,,,,,,,,,,,,,,,,,,,,,,,,,,,,,,,,,,,,,,,,,,,,,,,,,,,,,,,,,,,,,,,,,,,,,,,,,,,,,,,,,,,,,,,,,,,,,,,,,,,,,,,,,,,,,,,,,,,,,,,,,,,,,,,,,,,,,,,,,,,,,,,,,,,,,,,,,,,,,,,,
0,22,22,79,1,,60e5bae47d73a213b5189148,62c539bfaeca55441460b844,2022-07-06_19h29.33.779,Colour_Asymmetry_Pilot,2022.1.3,Win32,60.16847172,62c50e9c1127f2cd403a315f,,,,,,,,,,,,,,,,,,,,,,,,,,,,,,,,,,,,,,,,,,,,,,,,,,,,,,,,,,,,,,,,,,,,,,,,,,,,,,,,,,,,,,,,,,,,,,,,,,,,,,,,,,,,,,,,,,,,,,,,,,,,,,,,,,,,,,,,,,,,,,,,,,,,,,,,,,,,,,,,,,,
0,23,23,26,1,,60e5bae47d73a213b5189148,62c539bfaeca55441460b844,2022-07-06_19h29.33.779,Colour_Asymmetry_Pilot,2022.1.3,Win32,60.16847172,62c50e9c1127f2cd403a315f,,,,,,,,,,,,,,,,,,,,,,,,,,,,,,,,,,,,,,,,,,,,,,,,,,,,,,,,,,,,,,,,,,,,,,,,,,,,,,,,,,,,,,,,,,,,,,,,,,,,,,,,,,,,,,,,,,,,,,,,,,,,,,,,,,,,,,,,,,,,,,,,,,,,,,,,,,,,,,,,,,,
0,24,24,78,1,,60e5bae47d73a213b5189148,62c539bfaeca55441460b844,2022-07-06_19h29.33.779,Colour_Asymmetry_Pilot,2022.1.3,Win32,60.16847172,62c50e9c1127f2cd403a315f,,,,,,,,,,,,,,,,,,,,,,,,,,,,,,,,,,,,,,,,,,,,,,,,,,,,,,,,,,,,,,,,,,,,,,,,,,,,,,,,,,,,,,,,,,,,,,,,,,,,,,,,,,,,,,,,,,,,,,,,,,,,,,,,,,,,,,,,,,,,,,,,,,,,,,,,,,,,,,,,,,,
0,25,25,37,1,,60e5bae47d73a213b5189148,62c539bfaeca55441460b844,2022-07-06_19h29.33.779,Colour_Asymmetry_Pilot,2022.1.3,Win32,60.16847172,62c50e9c1127f2cd403a315f,,,,,,,,,,,,,,,,,,,,,,,,,,,,,,,,,,,,,,,,,,,,,,,,,,,,,,,,,,,,,,,,,,,,,,,,,,,,,,,,,,,,,,,,,,,,,,,,,,,,,,,,,,,,,,,,,,,,,,,,,,,,,,,,,,,,,,,,,,,,,,,,,,,,,,,,,,,,,,,,,,,
0,26,26,31,1,,60e5bae47d73a213b5189148,62c539bfaeca55441460b844,2022-07-06_19h29.33.779,Colour_Asymmetry_Pilot,2022.1.3,Win32,60.16847172,62c50e9c1127f2cd403a315f,,,,,,,,,,,,,,,,,,,,,,,,,,,,,,,,,,,,,,,,,,,,,,,,,,,,,,,,,,,,,,,,,,,,,,,,,,,,,,,,,,,,,,,,,,,,,,,,,,,,,,,,,,,,,,,,,,,,,,,,,,,,,,,,,,,,,,,,,,,,,,,,,,,,,,,,,,,,,,,,,,,
0,27,27,52,1,,60e5bae47d73a213b5189148,62c539bfaeca55441460b844,2022-07-06_19h29.33.779,Colour_Asymmetry_Pilot,2022.1.3,Win32,60.16847172,62c50e9c1127f2cd403a315f,,,,,,,,,,,,,,,,,,,,,,,,,,,,,,,,,,,,,,,,,,,,,,,,,,,,,,,,,,,,,,,,,,,,,,,,,,,,,,,,,,,,,,,,,,,,,,,,,,,,,,,,,,,,,,,,,,,,,,,,,,,,,,,,,,,,,,,,,,,,,,,,,,,,,,,,,,,,,,,,,,,
0,28,28,91,1,,60e5bae47d73a213b5189148,62c539bfaeca55441460b844,2022-07-06_19h29.33.779,Colour_Asymmetry_Pilot,2022.1.3,Win32,60.16847172,62c50e9c1127f2cd403a315f,,,,,,,,,,,,,,,,,,,,,,,,,,,,,,,,,,,,,,,,,,,,,,,,,,,,,,,,,,,,,,,,,,,,,,,,,,,,,,,,,,,,,,,,,,,,,,,,,,,,,,,,,,,,,,,,,,,,,,,,,,,,,,,,,,,,,,,,,,,,,,,,,,,,,,,,,,,,,,,,,,,
0,29,29,67,1,,60e5bae47d73a213b5189148,62c539bfaeca55441460b844,2022-07-06_19h29.33.779,Colour_Asymmetry_Pilot,2022.1.3,Win32,60.16847172,62c50e9c1127f2cd403a315f,,,,,,,,,,,,,,,,,,,,,,,,,,,,,,,,,,,,,,,,,,,,,,,,,,,,,,,,,,,,,,,,,,,,,,,,,,,,,,,,,,,,,,,,,,,,,,,,,,,,,,,,,,,,,,,,,,,,,,,,,,,,,,,,,,,,,,,,,,,,,,,,,,,,,,,,,,,,,,,,,,,
0,30,30,28,1,,60e5bae47d73a213b5189148,62c539bfaeca55441460b844,2022-07-06_19h29.33.779,Colour_Asymmetry_Pilot,2022.1.3,Win32,60.16847172,62c50e9c1127f2cd403a315f,,,,,,,,,,,,,,,,,,,,,,,,,,,,,,,,,,,,,,,,,,,,,,,,,,,,,,,,,,,,,,,,,,,,,,,,,,,,,,,,,,,,,,,,,,,,,,,,,,,,,,,,,,,,,,,,,,,,,,,,,,,,,,,,,,,,,,,,,,,,,,,,,,,,,,,,,,,,,,,,,,,
0,31,31,72,1,,60e5bae47d73a213b5189148,62c539bfaeca55441460b844,2022-07-06_19h29.33.779,Colour_Asymmetry_Pilot,2022.1.3,Win32,60.16847172,62c50e9c1127f2cd403a315f,,,,,,,,,,,,,,,,,,,,,,,,,,,,,,,,,,,,,,,,,,,,,,,,,,,,,,,,,,,,,,,,,,,,,,,,,,,,,,,,,,,,,,,,,,,,,,,,,,,,,,,,,,,,,,,,,,,,,,,,,,,,,,,,,,,,,,,,,,,,,,,,,,,,,,,,,,,,,,,,,,,
0,32,32,32,1,,60e5bae47d73a213b5189148,62c539bfaeca55441460b844,2022-07-06_19h29.33.779,Colour_Asymmetry_Pilot,2022.1.3,Win32,60.16847172,62c50e9c1127f2cd403a315f,,,,,,,,,,,,,,,,,,,,,,,,,,,,,,,,,,,,,,,,,,,,,,,,,,,,,,,,,,,,,,,,,,,,,,,,,,,,,,,,,,,,,,,,,,,,,,,,,,,,,,,,,,,,,,,,,,,,,,,,,,,,,,,,,,,,,,,,,,,,,,,,,,,,,,,,,,,,,,,,,,,
0,33,33,44,1,,60e5bae47d73a213b5189148,62c539bfaeca55441460b844,2022-07-06_19h29.33.779,Colour_Asymmetry_Pilot,2022.1.3,Win32,60.16847172,62c50e9c1127f2cd403a315f,,,,,,,,,,,,,,,,,,,,,,,,,,,,,,,,,,,,,,,,,,,,,,,,,,,,,,,,,,,,,,,,,,,,,,,,,,,,,,,,,,,,,,,,,,,,,,,,,,,,,,,,,,,,,,,,,,,,,,,,,,,,,,,,,,,,,,,,,,,,,,,,,,,,,,,,,,,,,,,,,,,
0,34,34,34,1,,60e5bae47d73a213b5189148,62c539bfaeca55441460b844,2022-07-06_19h29.33.779,Colour_Asymmetry_Pilot,2022.1.3,Win32,60.16847172,62c50e9c1127f2cd403a315f,,,,,,,,,,,,,,,,,,,,,,,,,,,,,,,,,,,,,,,,,,,,,,,,,,,,,,,,,,,,,,,,,,,,,,,,,,,,,,,,,,,,,,,,,,,,,,,,,,,,,,,,,,,,,,,,,,,,,,,,,,,,,,,,,,,,,,,,,,,,,,,,,,,,,,,,,,,,,,,,,,,
0,35,35,73,1,,60e5bae47d73a213b5189148,62c539bfaeca55441460b844,2022-07-06_19h29.33.779,Colour_Asymmetry_Pilot,2022.1.3,Win32,60.16847172,62c50e9c1127f2cd403a315f,,,,,,,,,,,,,,,,,,,,,,,,,,,,,,,,,,,,,,,,,,,,,,,,,,,,,,,,,,,,,,,,,,,,,,,,,,,,,,,,,,,,,,,,,,,,,,,,,,,,,,,,,,,,,,,,,,,,,,,,,,,,,,,,,,,,,,,,,,,,,,,,,,,,,,,,,,,,,,,,,,,
0,36,36,33,1,,60e5bae47d73a213b5189148,62c539bfaeca55441460b844,2022-07-06_19h29.33.779,Colour_Asymmetry_Pilot,2022.1.3,Win32,60.16847172,62c50e9c1127f2cd403a315f,,,,,,,,,,,,,,,,,,,,,,,,,,,,,,,,,,,,,,,,,,,,,,,,,,,,,,,,,,,,,,,,,,,,,,,,,,,,,,,,,,,,,,,,,,,,,,,,,,,,,,,,,,,,,,,,,,,,,,,,,,,,,,,,,,,,,,,,,,,,,,,,,,,,,,,,,,,,,,,,,,,
0,37,37,74,1,,60e5bae47d73a213b5189148,62c539bfaeca55441460b844,2022-07-06_19h29.33.779,Colour_Asymmetry_Pilot,2022.1.3,Win32,60.16847172,62c50e9c1127f2cd403a315f,,,,,,,,,,,,,,,,,,,,,,,,,,,,,,,,,,,,,,,,,,,,,,,,,,,,,,,,,,,,,,,,,,,,,,,,,,,,,,,,,,,,,,,,,,,,,,,,,,,,,,,,,,,,,,,,,,,,,,,,,,,,,,,,,,,,,,,,,,,,,,,,,,,,,,,,,,,,,,,,,,,
0,38,38,75,1,,60e5bae47d73a213b5189148,62c539bfaeca55441460b844,2022-07-06_19h29.33.779,Colour_Asymmetry_Pilot,2022.1.3,Win32,60.16847172,62c50e9c1127f2cd403a315f,,,,,,,,,,,,,,,,,,,,,,,,,,,,,,,,,,,,,,,,,,,,,,,,,,,,,,,,,,,,,,,,,,,,,,,,,,,,,,,,,,,,,,,,,,,,,,,,,,,,,,,,,,,,,,,,,,,,,,,,,,,,,,,,,,,,,,,,,,,,,,,,,,,,,,,,,,,,,,,,,,,
0,39,39,70,1,,60e5bae47d73a213b5189148,62c539bfaeca55441460b844,2022-07-06_19h29.33.779,Colour_Asymmetry_Pilot,2022.1.3,Win32,60.16847172,62c50e9c1127f2cd403a315f,,,,,,,,,,,,,,,,,,,,,,,,,,,,,,,,,,,,,,,,,,,,,,,,,,,,,,,,,,,,,,,,,,,,,,,,,,,,,,,,,,,,,,,,,,,,,,,,,,,,,,,,,,,,,,,,,,,,,,,,,,,,,,,,,,,,,,,,,,,,,,,,,,,,,,,,,,,,,,,,,,,
0,40,40,19,1,,60e5bae47d73a213b5189148,62c539bfaeca55441460b844,2022-07-06_19h29.33.779,Colour_Asymmetry_Pilot,2022.1.3,Win32,60.16847172,62c50e9c1127f2cd403a315f,,,,,,,,,,,,,,,,,,,,,,,,,,,,,,,,,,,,,,,,,,,,,,,,,,,,,,,,,,,,,,,,,,,,,,,,,,,,,,,,,,,,,,,,,,,,,,,,,,,,,,,,,,,,,,,,,,,,,,,,,,,,,,,,,,,,,,,,,,,,,,,,,,,,,,,,,,,,,,,,,,,
0,41,41,43,1,,60e5bae47d73a213b5189148,62c539bfaeca55441460b844,2022-07-06_19h29.33.779,Colour_Asymmetry_Pilot,2022.1.3,Win32,60.16847172,62c50e9c1127f2cd403a315f,,,,,,,,,,,,,,,,,,,,,,,,,,,,,,,,,,,,,,,,,,,,,,,,,,,,,,,,,,,,,,,,,,,,,,,,,,,,,,,,,,,,,,,,,,,,,,,,,,,,,,,,,,,,,,,,,,,,,,,,,,,,,,,,,,,,,,,,,,,,,,,,,,,,,,,,,,,,,,,,,,,
0,42,42,82,1,,60e5bae47d73a213b5189148,62c539bfaeca55441460b844,2022-07-06_19h29.33.779,Colour_Asymmetry_Pilot,2022.1.3,Win32,60.16847172,62c50e9c1127f2cd403a315f,,,,,,,,,,,,,,,,,,,,,,,,,,,,,,,,,,,,,,,,,,,,,,,,,,,,,,,,,,,,,,,,,,,,,,,,,,,,,,,,,,,,,,,,,,,,,,,,,,,,,,,,,,,,,,,,,,,,,,,,,,,,,,,,,,,,,,,,,,,,,,,,,,,,,,,,,,,,,,,,,,,
0,43,43,18,1,,60e5bae47d73a213b5189148,62c539bfaeca55441460b844,2022-07-06_19h29.33.779,Colour_Asymmetry_Pilot,2022.1.3,Win32,60.16847172,62c50e9c1127f2cd403a315f,,,,,,,,,,,,,,,,,,,,,,,,,,,,,,,,,,,,,,,,,,,,,,,,,,,,,,,,,,,,,,,,,,,,,,,,,,,,,,,,,,,,,,,,,,,,,,,,,,,,,,,,,,,,,,,,,,,,,,,,,,,,,,,,,,,,,,,,,,,,,,,,,,,,,,,,,,,,,,,,,,,
0,44,44,77,1,,60e5bae47d73a213b5189148,62c539bfaeca55441460b844,2022-07-06_19h29.33.779,Colour_Asymmetry_Pilot,2022.1.3,Win32,60.16847172,62c50e9c1127f2cd403a315f,,,,,,,,,,,,,,,,,,,,,,,,,,,,,,,,,,,,,,,,,,,,,,,,,,,,,,,,,,,,,,,,,,,,,,,,,,,,,,,,,,,,,,,,,,,,,,,,,,,,,,,,,,,,,,,,,,,,,,,,,,,,,,,,,,,,,,,,,,,,,,,,,,,,,,,,,,,,,,,,,,,
0,45,45,90,1,,60e5bae47d73a213b5189148,62c539bfaeca55441460b844,2022-07-06_19h29.33.779,Colour_Asymmetry_Pilot,2022.1.3,Win32,60.16847172,62c50e9c1127f2cd403a315f,,,,,,,,,,,,,,,,,,,,,,,,,,,,,,,,,,,,,,,,,,,,,,,,,,,,,,,,,,,,,,,,,,,,,,,,,,,,,,,,,,,,,,,,,,,,,,,,,,,,,,,,,,,,,,,,,,,,,,,,,,,,,,,,,,,,,,,,,,,,,,,,,,,,,,,,,,,,,,,,,,,
0,46,46,71,1,,60e5bae47d73a213b5189148,62c539bfaeca55441460b844,2022-07-06_19h29.33.779,Colour_Asymmetry_Pilot,2022.1.3,Win32,60.16847172,62c50e9c1127f2cd403a315f,,,,,,,,,,,,,,,,,,,,,,,,,,,,,,,,,,,,,,,,,,,,,,,,,,,,,,,,,,,,,,,,,,,,,,,,,,,,,,,,,,,,,,,,,,,,,,,,,,,,,,,,,,,,,,,,,,,,,,,,,,,,,,,,,,,,,,,,,,,,,,,,,,,,,,,,,,,,,,,,,,,
0,47,47,12,1,,60e5bae47d73a213b5189148,62c539bfaeca55441460b844,2022-07-06_19h29.33.779,Colour_Asymmetry_Pilot,2022.1.3,Win32,60.16847172,62c50e9c1127f2cd403a315f,,,,,,,,,,,,,,,,,,,,,,,,,,,,,,,,,,,,,,,,,,,,,,,,,,,,,,,,,,,,,,,,,,,,,,,,,,,,,,,,,,,,,,,,,,,,,,,,,,,,,,,,,,,,,,,,,,,,,,,,,,,,,,,,,,,,,,,,,,,,,,,,,,,,,,,,,,,,,,,,,,,
0,48,48,8,1,,60e5bae47d73a213b5189148,62c539bfaeca55441460b844,2022-07-06_19h29.33.779,Colour_Asymmetry_Pilot,2022.1.3,Win32,60.16847172,62c50e9c1127f2cd403a315f,,,,,,,,,,,,,,,,,,,,,,,,,,,,,,,,,,,,,,,,,,,,,,,,,,,,,,,,,,,,,,,,,,,,,,,,,,,,,,,,,,,,,,,,,,,,,,,,,,,,,,,,,,,,,,,,,,,,,,,,,,,,,,,,,,,,,,,,,,,,,,,,,,,,,,,,,,,,,,,,,,,
0,49,49,6,1,,60e5bae47d73a213b5189148,62c539bfaeca55441460b844,2022-07-06_19h29.33.779,Colour_Asymmetry_Pilot,2022.1.3,Win32,60.16847172,62c50e9c1127f2cd403a315f,,,,,,,,,,,,,,,,,,,,,,,,,,,,,,,,,,,,,,,,,,,,,,,,,,,,,,,,,,,,,,,,,,,,,,,,,,,,,,,,,,,,,,,,,,,,,,,,,,,,,,,,,,,,,,,,,,,,,,,,,,,,,,,,,,,,,,,,,,,,,,,,,,,,,,,,,,,,,,,,,,,
0,50,50,14,1,,60e5bae47d73a213b5189148,62c539bfaeca55441460b844,2022-07-06_19h29.33.779,Colour_Asymmetry_Pilot,2022.1.3,Win32,60.16847172,62c50e9c1127f2cd403a315f,,,,,,,,,,,,,,,,,,,,,,,,,,,,,,,,,,,,,,,,,,,,,,,,,,,,,,,,,,,,,,,,,,,,,,,,,,,,,,,,,,,,,,,,,,,,,,,,,,,,,,,,,,,,,,,,,,,,,,,,,,,,,,,,,,,,,,,,,,,,,,,,,,,,,,,,,,,,,,,,,,,
0,51,51,16,1,,60e5bae47d73a213b5189148,62c539bfaeca55441460b844,2022-07-06_19h29.33.779,Colour_Asymmetry_Pilot,2022.1.3,Win32,60.16847172,62c50e9c1127f2cd403a315f,,,,,,,,,,,,,,,,,,,,,,,,,,,,,,,,,,,,,,,,,,,,,,,,,,,,,,,,,,,,,,,,,,,,,,,,,,,,,,,,,,,,,,,,,,,,,,,,,,,,,,,,,,,,,,,,,,,,,,,,,,,,,,,,,,,,,,,,,,,,,,,,,,,,,,,,,,,,,,,,,,,
0,52,52,0,1,,60e5bae47d73a213b5189148,62c539bfaeca55441460b844,2022-07-06_19h29.33.779,Colour_Asymmetry_Pilot,2022.1.3,Win32,60.16847172,62c50e9c1127f2cd403a315f,,,,,,,,,,,,,,,,,,,,,,,,,,,,,,,,,,,,,,,,,,,,,,,,,,,,,,,,,,,,,,,,,,,,,,,,,,,,,,,,,,,,,,,,,,,,,,,,,,,,,,,,,,,,,,,,,,,,,,,,,,,,,,,,,,,,,,,,,,,,,,,,,,,,,,,,,,,,,,,,,,,
0,53,53,76,1,,60e5bae47d73a213b5189148,62c539bfaeca55441460b844,2022-07-06_19h29.33.779,Colour_Asymmetry_Pilot,2022.1.3,Win32,60.16847172,62c50e9c1127f2cd403a315f,,,,,,,,,,,,,,,,,,,,,,,,,,,,,,,,,,,,,,,,,,,,,,,,,,,,,,,,,,,,,,,,,,,,,,,,,,,,,,,,,,,,,,,,,,,,,,,,,,,,,,,,,,,,,,,,,,,,,,,,,,,,,,,,,,,,,,,,,,,,,,,,,,,,,,,,,,,,,,,,,,,
0,54,54,84,1,,60e5bae47d73a213b5189148,62c539bfaeca55441460b844,2022-07-06_19h29.33.779,Colour_Asymmetry_Pilot,2022.1.3,Win32,60.16847172,62c50e9c1127f2cd403a315f,,,,,,,,,,,,,,,,,,,,,,,,,,,,,,,,,,,,,,,,,,,,,,,,,,,,,,,,,,,,,,,,,,,,,,,,,,,,,,,,,,,,,,,,,,,,,,,,,,,,,,,,,,,,,,,,,,,,,,,,,,,,,,,,,,,,,,,,,,,,,,,,,,,,,,,,,,,,,,,,,,,
0,55,55,80,1,,60e5bae47d73a213b5189148,62c539bfaeca55441460b844,2022-07-06_19h29.33.779,Colour_Asymmetry_Pilot,2022.1.3,Win32,60.16847172,62c50e9c1127f2cd403a315f,,,,,,,,,,,,,,,,,,,,,,,,,,,,,,,,,,,,,,,,,,,,,,,,,,,,,,,,,,,,,,,,,,,,,,,,,,,,,,,,,,,,,,,,,,,,,,,,,,,,,,,,,,,,,,,,,,,,,,,,,,,,,,,,,,,,,,,,,,,,,,,,,,,,,,,,,,,,,,,,,,,
0,56,56,61,1,,60e5bae47d73a213b5189148,62c539bfaeca55441460b844,2022-07-06_19h29.33.779,Colour_Asymmetry_Pilot,2022.1.3,Win32,60.16847172,62c50e9c1127f2cd403a315f,,,,,,,,,,,,,,,,,,,,,,,,,,,,,,,,,,,,,,,,,,,,,,,,,,,,,,,,,,,,,,,,,,,,,,,,,,,,,,,,,,,,,,,,,,,,,,,,,,,,,,,,,,,,,,,,,,,,,,,,,,,,,,,,,,,,,,,,,,,,,,,,,,,,,,,,,,,,,,,,,,,
0,57,57,3,1,,60e5bae47d73a213b5189148,62c539bfaeca55441460b844,2022-07-06_19h29.33.779,Colour_Asymmetry_Pilot,2022.1.3,Win32,60.16847172,62c50e9c1127f2cd403a315f,,,,,,,,,,,,,,,,,,,,,,,,,,,,,,,,,,,,,,,,,,,,,,,,,,,,,,,,,,,,,,,,,,,,,,,,,,,,,,,,,,,,,,,,,,,,,,,,,,,,,,,,,,,,,,,,,,,,,,,,,,,,,,,,,,,,,,,,,,,,,,,,,,,,,,,,,,,,,,,,,,,
0,58,58,89,1,,60e5bae47d73a213b5189148,62c539bfaeca55441460b844,2022-07-06_19h29.33.779,Colour_Asymmetry_Pilot,2022.1.3,Win32,60.16847172,62c50e9c1127f2cd403a315f,,,,,,,,,,,,,,,,,,,,,,,,,,,,,,,,,,,,,,,,,,,,,,,,,,,,,,,,,,,,,,,,,,,,,,,,,,,,,,,,,,,,,,,,,,,,,,,,,,,,,,,,,,,,,,,,,,,,,,,,,,,,,,,,,,,,,,,,,,,,,,,,,,,,,,,,,,,,,,,,,,,
0,59,59,66,1,,60e5bae47d73a213b5189148,62c539bfaeca55441460b844,2022-07-06_19h29.33.779,Colour_Asymmetry_Pilot,2022.1.3,Win32,60.16847172,62c50e9c1127f2cd403a315f,,,,,,,,,,,,,,,,,,,,,,,,,,,,,,,,,,,,,,,,,,,,,,,,,,,,,,,,,,,,,,,,,,,,,,,,,,,,,,,,,,,,,,,,,,,,,,,,,,,,,,,,,,,,,,,,,,,,,,,,,,,,,,,,,,,,,,,,,,,,,,,,,,,,,,,,,,,,,,,,,,,
0,60,60,88,1,,60e5bae47d73a213b5189148,62c539bfaeca55441460b844,2022-07-06_19h29.33.779,Colour_Asymmetry_Pilot,2022.1.3,Win32,60.16847172,62c50e9c1127f2cd403a315f,,,,,,,,,,,,,,,,,,,,,,,,,,,,,,,,,,,,,,,,,,,,,,,,,,,,,,,,,,,,,,,,,,,,,,,,,,,,,,,,,,,,,,,,,,,,,,,,,,,,,,,,,,,,,,,,,,,,,,,,,,,,,,,,,,,,,,,,,,,,,,,,,,,,,,,,,,,,,,,,,,,
0,61,61,2,1,,60e5bae47d73a213b5189148,62c539bfaeca55441460b844,2022-07-06_19h29.33.779,Colour_Asymmetry_Pilot,2022.1.3,Win32,60.16847172,62c50e9c1127f2cd403a315f,,,,,,,,,,,,,,,,,,,,,,,,,,,,,,,,,,,,,,,,,,,,,,,,,,,,,,,,,,,,,,,,,,,,,,,,,,,,,,,,,,,,,,,,,,,,,,,,,,,,,,,,,,,,,,,,,,,,,,,,,,,,,,,,,,,,,,,,,,,,,,,,,,,,,,,,,,,,,,,,,,,
0,62,62,49,1,,60e5bae47d73a213b5189148,62c539bfaeca55441460b844,2022-07-06_19h29.33.779,Colour_Asymmetry_Pilot,2022.1.3,Win32,60.16847172,62c50e9c1127f2cd403a315f,,,,,,,,,,,,,,,,,,,,,,,,,,,,,,,,,,,,,,,,,,,,,,,,,,,,,,,,,,,,,,,,,,,,,,,,,,,,,,,,,,,,,,,,,,,,,,,,,,,,,,,,,,,,,,,,,,,,,,,,,,,,,,,,,,,,,,,,,,,,,,,,,,,,,,,,,,,,,,,,,,,
0,63,63,25,1,,60e5bae47d73a213b5189148,62c539bfaeca55441460b844,2022-07-06_19h29.33.779,Colour_Asymmetry_Pilot,2022.1.3,Win32,60.16847172,62c50e9c1127f2cd403a315f,,,,,,,,,,,,,,,,,,,,,,,,,,,,,,,,,,,,,,,,,,,,,,,,,,,,,,,,,,,,,,,,,,,,,,,,,,,,,,,,,,,,,,,,,,,,,,,,,,,,,,,,,,,,,,,,,,,,,,,,,,,,,,,,,,,,,,,,,,,,,,,,,,,,,,,,,,,,,,,,,,,
0,64,64,54,1,,60e5bae47d73a213b5189148,62c539bfaeca55441460b844,2022-07-06_19h29.33.779,Colour_Asymmetry_Pilot,2022.1.3,Win32,60.16847172,62c50e9c1127f2cd403a315f,,,,,,,,,,,,,,,,,,,,,,,,,,,,,,,,,,,,,,,,,,,,,,,,,,,,,,,,,,,,,,,,,,,,,,,,,,,,,,,,,,,,,,,,,,,,,,,,,,,,,,,,,,,,,,,,,,,,,,,,,,,,,,,,,,,,,,,,,,,,,,,,,,,,,,,,,,,,,,,,,,,
0,65,65,85,1,,60e5bae47d73a213b5189148,62c539bfaeca55441460b844,2022-07-06_19h29.33.779,Colour_Asymmetry_Pilot,2022.1.3,Win32,60.16847172,62c50e9c1127f2cd403a315f,,,,,,,,,,,,,,,,,,,,,,,,,,,,,,,,,,,,,,,,,,,,,,,,,,,,,,,,,,,,,,,,,,,,,,,,,,,,,,,,,,,,,,,,,,,,,,,,,,,,,,,,,,,,,,,,,,,,,,,,,,,,,,,,,,,,,,,,,,,,,,,,,,,,,,,,,,,,,,,,,,,
0,66,66,46,1,,60e5bae47d73a213b5189148,62c539bfaeca55441460b844,2022-07-06_19h29.33.779,Colour_Asymmetry_Pilot,2022.1.3,Win32,60.16847172,62c50e9c1127f2cd403a315f,,,,,,,,,,,,,,,,,,,,,,,,,,,,,,,,,,,,,,,,,,,,,,,,,,,,,,,,,,,,,,,,,,,,,,,,,,,,,,,,,,,,,,,,,,,,,,,,,,,,,,,,,,,,,,,,,,,,,,,,,,,,,,,,,,,,,,,,,,,,,,,,,,,,,,,,,,,,,,,,,,,
0,67,67,42,1,,60e5bae47d73a213b5189148,62c539bfaeca55441460b844,2022-07-06_19h29.33.779,Colour_Asymmetry_Pilot,2022.1.3,Win32,60.16847172,62c50e9c1127f2cd403a315f,,,,,,,,,,,,,,,,,,,,,,,,,,,,,,,,,,,,,,,,,,,,,,,,,,,,,,,,,,,,,,,,,,,,,,,,,,,,,,,,,,,,,,,,,,,,,,,,,,,,,,,,,,,,,,,,,,,,,,,,,,,,,,,,,,,,,,,,,,,,,,,,,,,,,,,,,,,,,,,,,,,
0,68,68,53,1,,60e5bae47d73a213b5189148,62c539bfaeca55441460b844,2022-07-06_19h29.33.779,Colour_Asymmetry_Pilot,2022.1.3,Win32,60.16847172,62c50e9c1127f2cd403a315f,,,,,,,,,,,,,,,,,,,,,,,,,,,,,,,,,,,,,,,,,,,,,,,,,,,,,,,,,,,,,,,,,,,,,,,,,,,,,,,,,,,,,,,,,,,,,,,,,,,,,,,,,,,,,,,,,,,,,,,,,,,,,,,,,,,,,,,,,,,,,,,,,,,,,,,,,,,,,,,,,,,
0,69,69,21,1,,60e5bae47d73a213b5189148,62c539bfaeca55441460b844,2022-07-06_19h29.33.779,Colour_Asymmetry_Pilot,2022.1.3,Win32,60.16847172,62c50e9c1127f2cd403a315f,,,,,,,,,,,,,,,,,,,,,,,,,,,,,,,,,,,,,,,,,,,,,,,,,,,,,,,,,,,,,,,,,,,,,,,,,,,,,,,,,,,,,,,,,,,,,,,,,,,,,,,,,,,,,,,,,,,,,,,,,,,,,,,,,,,,,,,,,,,,,,,,,,,,,,,,,,,,,,,,,,,
0,70,70,41,1,,60e5bae47d73a213b5189148,62c539bfaeca55441460b844,2022-07-06_19h29.33.779,Colour_Asymmetry_Pilot,2022.1.3,Win32,60.16847172,62c50e9c1127f2cd403a315f,,,,,,,,,,,,,,,,,,,,,,,,,,,,,,,,,,,,,,,,,,,,,,,,,,,,,,,,,,,,,,,,,,,,,,,,,,,,,,,,,,,,,,,,,,,,,,,,,,,,,,,,,,,,,,,,,,,,,,,,,,,,,,,,,,,,,,,,,,,,,,,,,,,,,,,,,,,,,,,,,,,
0,71,71,62,1,,60e5bae47d73a213b5189148,62c539bfaeca55441460b844,2022-07-06_19h29.33.779,Colour_Asymmetry_Pilot,2022.1.3,Win32,60.16847172,62c50e9c1127f2cd403a315f,,,,,,,,,,,,,,,,,,,,,,,,,,,,,,,,,,,,,,,,,,,,,,,,,,,,,,,,,,,,,,,,,,,,,,,,,,,,,,,,,,,,,,,,,,,,,,,,,,,,,,,,,,,,,,,,,,,,,,,,,,,,,,,,,,,,,,,,,,,,,,,,,,,,,,,,,,,,,,,,,,,
0,72,72,10,1,,60e5bae47d73a213b5189148,62c539bfaeca55441460b844,2022-07-06_19h29.33.779,Colour_Asymmetry_Pilot,2022.1.3,Win32,60.16847172,62c50e9c1127f2cd403a315f,,,,,,,,,,,,,,,,,,,,,,,,,,,,,,,,,,,,,,,,,,,,,,,,,,,,,,,,,,,,,,,,,,,,,,,,,,,,,,,,,,,,,,,,,,,,,,,,,,,,,,,,,,,,,,,,,,,,,,,,,,,,,,,,,,,,,,,,,,,,,,,,,,,,,,,,,,,,,,,,,,,
0,73,73,60,1,,60e5bae47d73a213b5189148,62c539bfaeca55441460b844,2022-07-06_19h29.33.779,Colour_Asymmetry_Pilot,2022.1.3,Win32,60.16847172,62c50e9c1127f2cd403a315f,,,,,,,,,,,,,,,,,,,,,,,,,,,,,,,,,,,,,,,,,,,,,,,,,,,,,,,,,,,,,,,,,,,,,,,,,,,,,,,,,,,,,,,,,,,,,,,,,,,,,,,,,,,,,,,,,,,,,,,,,,,,,,,,,,,,,,,,,,,,,,,,,,,,,,,,,,,,,,,,,,,
0,74,74,29,1,,60e5bae47d73a213b5189148,62c539bfaeca55441460b844,2022-07-06_19h29.33.779,Colour_Asymmetry_Pilot,2022.1.3,Win32,60.16847172,62c50e9c1127f2cd403a315f,,,,,,,,,,,,,,,,,,,,,,,,,,,,,,,,,,,,,,,,,,,,,,,,,,,,,,,,,,,,,,,,,,,,,,,,,,,,,,,,,,,,,,,,,,,,,,,,,,,,,,,,,,,,,,,,,,,,,,,,,,,,,,,,,,,,,,,,,,,,,,,,,,,,,,,,,,,,,,,,,,,
0,75,75,58,1,,60e5bae47d73a213b5189148,62c539bfaeca55441460b844,2022-07-06_19h29.33.779,Colour_Asymmetry_Pilot,2022.1.3,Win32,60.16847172,62c50e9c1127f2cd403a315f,,,,,,,,,,,,,,,,,,,,,,,,,,,,,,,,,,,,,,,,,,,,,,,,,,,,,,,,,,,,,,,,,,,,,,,,,,,,,,,,,,,,,,,,,,,,,,,,,,,,,,,,,,,,,,,,,,,,,,,,,,,,,,,,,,,,,,,,,,,,,,,,,,,,,,,,,,,,,,,,,,,
0,76,76,86,1,,60e5bae47d73a213b5189148,62c539bfaeca55441460b844,2022-07-06_19h29.33.779,Colour_Asymmetry_Pilot,2022.1.3,Win32,60.16847172,62c50e9c1127f2cd403a315f,,,,,,,,,,,,,,,,,,,,,,,,,,,,,,,,,,,,,,,,,,,,,,,,,,,,,,,,,,,,,,,,,,,,,,,,,,,,,,,,,,,,,,,,,,,,,,,,,,,,,,,,,,,,,,,,,,,,,,,,,,,,,,,,,,,,,,,,,,,,,,,,,,,,,,,,,,,,,,,,,,,
0,77,77,81,1,,60e5bae47d73a213b5189148,62c539bfaeca55441460b844,2022-07-06_19h29.33.779,Colour_Asymmetry_Pilot,2022.1.3,Win32,60.16847172,62c50e9c1127f2cd403a315f,,,,,,,,,,,,,,,,,,,,,,,,,,,,,,,,,,,,,,,,,,,,,,,,,,,,,,,,,,,,,,,,,,,,,,,,,,,,,,,,,,,,,,,,,,,,,,,,,,,,,,,,,,,,,,,,,,,,,,,,,,,,,,,,,,,,,,,,,,,,,,,,,,,,,,,,,,,,,,,,,,,
0,78,78,15,1,,60e5bae47d73a213b5189148,62c539bfaeca55441460b844,2022-07-06_19h29.33.779,Colour_Asymmetry_Pilot,2022.1.3,Win32,60.16847172,62c50e9c1127f2cd403a315f,,,,,,,,,,,,,,,,,,,,,,,,,,,,,,,,,,,,,,,,,,,,,,,,,,,,,,,,,,,,,,,,,,,,,,,,,,,,,,,,,,,,,,,,,,,,,,,,,,,,,,,,,,,,,,,,,,,,,,,,,,,,,,,,,,,,,,,,,,,,,,,,,,,,,,,,,,,,,,,,,,,
0,79,79,22,1,,60e5bae47d73a213b5189148,62c539bfaeca55441460b844,2022-07-06_19h29.33.779,Colour_Asymmetry_Pilot,2022.1.3,Win32,60.16847172,62c50e9c1127f2cd403a315f,,,,,,,,,,,,,,,,,,,,,,,,,,,,,,,,,,,,,,,,,,,,,,,,,,,,,,,,,,,,,,,,,,,,,,,,,,,,,,,,,,,,,,,,,,,,,,,,,,,,,,,,,,,,,,,,,,,,,,,,,,,,,,,,,,,,,,,,,,,,,,,,,,,,,,,,,,,,,,,,,,,
0,80,80,9,1,,60e5bae47d73a213b5189148,62c539bfaeca55441460b844,2022-07-06_19h29.33.779,Colour_Asymmetry_Pilot,2022.1.3,Win32,60.16847172,62c50e9c1127f2cd403a315f,,,,,,,,,,,,,,,,,,,,,,,,,,,,,,,,,,,,,,,,,,,,,,,,,,,,,,,,,,,,,,,,,,,,,,,,,,,,,,,,,,,,,,,,,,,,,,,,,,,,,,,,,,,,,,,,,,,,,,,,,,,,,,,,,,,,,,,,,,,,,,,,,,,,,,,,,,,,,,,,,,,
0,81,81,45,1,,60e5bae47d73a213b5189148,62c539bfaeca55441460b844,2022-07-06_19h29.33.779,Colour_Asymmetry_Pilot,2022.1.3,Win32,60.16847172,62c50e9c1127f2cd403a315f,,,,,,,,,,,,,,,,,,,,,,,,,,,,,,,,,,,,,,,,,,,,,,,,,,,,,,,,,,,,,,,,,,,,,,,,,,,,,,,,,,,,,,,,,,,,,,,,,,,,,,,,,,,,,,,,,,,,,,,,,,,,,,,,,,,,,,,,,,,,,,,,,,,,,,,,,,,,,,,,,,,
0,82,82,35,1,,60e5bae47d73a213b5189148,62c539bfaeca55441460b844,2022-07-06_19h29.33.779,Colour_Asymmetry_Pilot,2022.1.3,Win32,60.16847172,62c50e9c1127f2cd403a315f,,,,,,,,,,,,,,,,,,,,,,,,,,,,,,,,,,,,,,,,,,,,,,,,,,,,,,,,,,,,,,,,,,,,,,,,,,,,,,,,,,,,,,,,,,,,,,,,,,,,,,,,,,,,,,,,,,,,,,,,,,,,,,,,,,,,,,,,,,,,,,,,,,,,,,,,,,,,,,,,,,,
0,83,83,47,1,,60e5bae47d73a213b5189148,62c539bfaeca55441460b844,2022-07-06_19h29.33.779,Colour_Asymmetry_Pilot,2022.1.3,Win32,60.16847172,62c50e9c1127f2cd403a315f,,,,,,,,,,,,,,,,,,,,,,,,,,,,,,,,,,,,,,,,,,,,,,,,,,,,,,,,,,,,,,,,,,,,,,,,,,,,,,,,,,,,,,,,,,,,,,,,,,,,,,,,,,,,,,,,,,,,,,,,,,,,,,,,,,,,,,,,,,,,,,,,,,,,,,,,,,,,,,,,,,,
0,84,84,56,1,,60e5bae47d73a213b5189148,62c539bfaeca55441460b844,2022-07-06_19h29.33.779,Colour_Asymmetry_Pilot,2022.1.3,Win32,60.16847172,62c50e9c1127f2cd403a315f,,,,,,,,,,,,,,,,,,,,,,,,,,,,,,,,,,,,,,,,,,,,,,,,,,,,,,,,,,,,,,,,,,,,,,,,,,,,,,,,,,,,,,,,,,,,,,,,,,,,,,,,,,,,,,,,,,,,,,,,,,,,,,,,,,,,,,,,,,,,,,,,,,,,,,,,,,,,,,,,,,,
0,85,85,59,1,,60e5bae47d73a213b5189148,62c539bfaeca55441460b844,2022-07-06_19h29.33.779,Colour_Asymmetry_Pilot,2022.1.3,Win32,60.16847172,62c50e9c1127f2cd403a315f,,,,,,,,,,,,,,,,,,,,,,,,,,,,,,,,,,,,,,,,,,,,,,,,,,,,,,,,,,,,,,,,,,,,,,,,,,,,,,,,,,,,,,,,,,,,,,,,,,,,,,,,,,,,,,,,,,,,,,,,,,,,,,,,,,,,,,,,,,,,,,,,,,,,,,,,,,,,,,,,,,,
0,86,86,51,1,,60e5bae47d73a213b5189148,62c539bfaeca55441460b844,2022-07-06_19h29.33.779,Colour_Asymmetry_Pilot,2022.1.3,Win32,60.16847172,62c50e9c1127f2cd403a315f,,,,,,,,,,,,,,,,,,,,,,,,,,,,,,,,,,,,,,,,,,,,,,,,,,,,,,,,,,,,,,,,,,,,,,,,,,,,,,,,,,,,,,,,,,,,,,,,,,,,,,,,,,,,,,,,,,,,,,,,,,,,,,,,,,,,,,,,,,,,,,,,,,,,,,,,,,,,,,,,,,,
0,87,87,20,1,,60e5bae47d73a213b5189148,62c539bfaeca55441460b844,2022-07-06_19h29.33.779,Colour_Asymmetry_Pilot,2022.1.3,Win32,60.16847172,62c50e9c1127f2cd403a315f,,,,,,,,,,,,,,,,,,,,,,,,,,,,,,,,,,,,,,,,,,,,,,,,,,,,,,,,,,,,,,,,,,,,,,,,,,,,,,,,,,,,,,,,,,,,,,,,,,,,,,,,,,,,,,,,,,,,,,,,,,,,,,,,,,,,,,,,,,,,,,,,,,,,,,,,,,,,,,,,,,,
0,88,88,1,1,,60e5bae47d73a213b5189148,62c539bfaeca55441460b844,2022-07-06_19h29.33.779,Colour_Asymmetry_Pilot,2022.1.3,Win32,60.16847172,62c50e9c1127f2cd403a315f,,,,,,,,,,,,,,,,,,,,,,,,,,,,,,,,,,,,,,,,,,,,,,,,,,,,,,,,,,,,,,,,,,,,,,,,,,,,,,,,,,,,,,,,,,,,,,,,,,,,,,,,,,,,,,,,,,,,,,,,,,,,,,,,,,,,,,,,,,,,,,,,,,,,,,,,,,,,,,,,,,,
0,89,89,30,1,,60e5bae47d73a213b5189148,62c539bfaeca55441460b844,2022-07-06_19h29.33.779,Colour_Asymmetry_Pilot,2022.1.3,Win32,60.16847172,62c50e9c1127f2cd403a315f,,,,,,,,,,,,,,,,,,,,,,,,,,,,,,,,,,,,,,,,,,,,,,,,,,,,,,,,,,,,,,,,,,,,,,,,,,,,,,,,,,,,,,,,,,,,,,,,,,,,,,,,,,,,,,,,,,,,,,,,,,,,,,,,,,,,,,,,,,,,,,,,,,,,,,,,,,,,,,,,,,,
0,90,90,68,1,,60e5bae47d73a213b5189148,62c539bfaeca55441460b844,2022-07-06_19h29.33.779,Colour_Asymmetry_Pilot,2022.1.3,Win32,60.16847172,62c50e9c1127f2cd403a315f,,,,,,,,,,,,,,,,,,,,,,,,,,,,,,,,,,,,,,,,,,,,,,,,,,,,,,,,,,,,,,,,,,,,,,,,,,,,,,,,,,,,,,,,,,,,,,,,,,,,,,,,,,,,,,,,,,,,,,,,,,,,,,,,,,,,,,,,,,,,,,,,,,,,,,,,,,,,,,,,,,,
0,91,91,38,1,,60e5bae47d73a213b5189148,62c539bfaeca55441460b844,2022-07-06_19h29.33.779,Colour_Asymmetry_Pilot,2022.1.3,Win32,60.16847172,62c50e9c1127f2cd403a315f,,,,,,,,,,,,,,,,,,,,,,,,,,,,,,,,,,,,,,,,,,,,,,,,,,,,,,,,,,,,,,,,,,,,,,,,,,,,,,,,,,,,,,,,,,,,,,,,,,,,,,,,,,,,,,,,,,,,,,,,,,,,,,,,,,,,,,,,,,,,,,,,,,,,,,,,,,,,,,,,,,,
0,92,92,27,1,,60e5bae47d73a213b5189148,62c539bfaeca55441460b844,2022-07-06_19h29.33.779,Colour_Asymmetry_Pilot,2022.1.3,Win32,60.16847172,62c50e9c1127f2cd403a315f,,,,,,,,,,,,,,,,,,,,,,,,,,,,,,,,,,,,,,,,,,,,,,,,,,,,,,,,,,,,,,,,,,,,,,,,,,,,,,,,,,,,,,,,,,,,,,,,,,,,,,,,,,,,,,,,,,,,,,,,,,,,,,,,,,,,,,,,,,,,,,,,,,,,,,,,,,,,,,,,,,,
,,,,,,60e5bae47d73a213b5189148,62c539bfaeca55441460b844,2022-07-06_19h29.33.779,Colour_Asymmetry_Pilot,2022.1.3,Win32,60.16847172,62c50e9c1127f2cd403a315f,0,0,0,139,1,twofour,,,,,,,,,,,,,,,,,,,,,,,,,,,,,,,,,,,,,,,,,,,,,,,,,,,,,,,,,,,,,,,,,,,,,,,,,,,,,,,,,,,,,,,,,,,,,,,,,,,,,,,,,,,,,,,,,,,,,,,,,,,,,,,,,,,,,,,,,,,,,,,,,,,,,,,,,,,,,
,,,,,,60e5bae47d73a213b5189148,62c539bfaeca55441460b844,2022-07-06_19h29.33.779,Colour_Asymmetry_Pilot,2022.1.3,Win32,60.16847172,62c50e9c1127f2cd403a315f,0,1,1,1,1,onethree,,,,,,,,,,,,,,,,,,,,,,,,,,,,,,,,,,,,,,,,,,,,,,,,,,,,,,,,,,,,,,,,,,,,,,,,,,,,,,,,,,,,,,,,,,,,,,,,,,,,,,,,,,,,,,,,,,,,,,,,,,,,,,,,,,,,,,,,,,,,,,,,,,,,,,,,,,,,,
,,,,,,60e5bae47d73a213b5189148,62c539bfaeca55441460b844,2022-07-06_19h29.33.779,Colour_Asymmetry_Pilot,2022.1.3,Win32,60.16847172,62c50e9c1127f2cd403a315f,0,2,2,5,1,threefour,,,,,,,,,,,,,,,,,,,,,,,,,,,,,,,,,,,,,,,,,,,,,,,,,,,,,,,,,,,,,,,,,,,,,,,,,,,,,,,,,,,,,,,,,,,,,,,,,,,,,,,,,,,,,,,,,,,,,,,,,,,,,,,,,,,,,,,,,,,,,,,,,,,,,,,,,,,,,
,,,,,,60e5bae47d73a213b5189148,62c539bfaeca55441460b844,2022-07-06_19h29.33.779,Colour_Asymmetry_Pilot,2022.1.3,Win32,60.16847172,62c50e9c1127f2cd403a315f,0,3,3,114,1,twoone,,,,,,,,,,,,,,,,,,,,,,,,,,,,,,,,,,,,,,,,,,,,,,,,,,,,,,,,,,,,,,,,,,,,,,,,,,,,,,,,,,,,,,,,,,,,,,,,,,,,,,,,,,,,,,,,,,,,,,,,,,,,,,,,,,,,,,,,,,,,,,,,,,,,,,,,,,,,,
,,,,,,60e5bae47d73a213b5189148,62c539bfaeca55441460b844,2022-07-06_19h29.33.779,Colour_Asymmetry_Pilot,2022.1.3,Win32,60.16847172,62c50e9c1127f2cd403a315f,0,4,4,121,1,onethree,,,,,,,,,,,,,,,,,,,,,,,,,,,,,,,,,,,,,,,,,,,,,,,,,,,,,,,,,,,,,,,,,,,,,,,,,,,,,,,,,,,,,,,,,,,,,,,,,,,,,,,,,,,,,,,,,,,,,,,,,,,,,,,,,,,,,,,,,,,,,,,,,,,,,,,,,,,,,
,,,,,,60e5bae47d73a213b5189148,62c539bfaeca55441460b844,2022-07-06_19h29.33.779,Colour_Asymmetry_Pilot,2022.1.3,Win32,60.16847172,62c50e9c1127f2cd403a315f,0,5,5,75,1,twofour,,,,,,,,,,,,,,,,,,,,,,,,,,,,,,,,,,,,,,,,,,,,,,,,,,,,,,,,,,,,,,,,,,,,,,,,,,,,,,,,,,,,,,,,,,,,,,,,,,,,,,,,,,,,,,,,,,,,,,,,,,,,,,,,,,,,,,,,,,,,,,,,,,,,,,,,,,,,,
,,,,,,60e5bae47d73a213b5189148,62c539bfaeca55441460b844,2022-07-06_19h29.33.779,Colour_Asymmetry_Pilot,2022.1.3,Win32,60.16847172,62c50e9c1127f2cd403a315f,0,6,6,135,1,fourthree,,,,,,,,,,,,,,,,,,,,,,,,,,,,,,,,,,,,,,,,,,,,,,,,,,,,,,,,,,,,,,,,,,,,,,,,,,,,,,,,,,,,,,,,,,,,,,,,,,,,,,,,,,,,,,,,,,,,,,,,,,,,,,,,,,,,,,,,,,,,,,,,,,,,,,,,,,,,,
,,,,,,60e5bae47d73a213b5189148,62c539bfaeca55441460b844,2022-07-06_19h29.33.779,Colour_Asymmetry_Pilot,2022.1.3,Win32,60.16847172,62c50e9c1127f2cd403a315f,0,7,7,108,1,threeone,,,,,,,,,,,,,,,,,,,,,,,,,,,,,,,,,,,,,,,,,,,,,,,,,,,,,,,,,,,,,,,,,,,,,,,,,,,,,,,,,,,,,,,,,,,,,,,,,,,,,,,,,,,,,,,,,,,,,,,,,,,,,,,,,,,,,,,,,,,,,,,,,,,,,,,,,,,,,
,,,,,,60e5bae47d73a213b5189148,62c539bfaeca55441460b844,2022-07-06_19h29.33.779,Colour_Asymmetry_Pilot,2022.1.3,Win32,60.16847172,62c50e9c1127f2cd403a315f,0,8,8,94,1,fourtwo,,,,,,,,,,,,,,,,,,,,,,,,,,,,,,,,,,,,,,,,,,,,,,,,,,,,,,,,,,,,,,,,,,,,,,,,,,,,,,,,,,,,,,,,,,,,,,,,,,,,,,,,,,,,,,,,,,,,,,,,,,,,,,,,,,,,,,,,,,,,,,,,,,,,,,,,,,,,,
,,,,,,60e5bae47d73a213b5189148,62c539bfaeca55441460b844,2022-07-06_19h29.33.779,Colour_Asymmetry_Pilot,2022.1.3,Win32,60.16847172,62c50e9c1127f2cd403a315f,0,9,9,129,1,onethree,,,,,,,,,,,,,,,,,,,,,,,,,,,,,,,,,,,,,,,,,,,,,,,,,,,,,,,,,,,,,,,,,,,,,,,,,,,,,,,,,,,,,,,,,,,,,,,,,,,,,,,,,,,,,,,,,,,,,,,,,,,,,,,,,,,,,,,,,,,,,,,,,,,,,,,,,,,,,
,,,,,,60e5bae47d73a213b5189148,62c539bfaeca55441460b844,2022-07-06_19h29.33.779,Colour_Asymmetry_Pilot,2022.1.3,Win32,60.16847172,62c50e9c1127f2cd403a315f,0,10,10,100,1,threeone,,,,,,,,,,,,,,,,,,,,,,,,,,,,,,,,,,,,,,,,,,,,,,,,,,,,,,,,,,,,,,,,,,,,,,,,,,,,,,,,,,,,,,,,,,,,,,,,,,,,,,,,,,,,,,,,,,,,,,,,,,,,,,,,,,,,,,,,,,,,,,,,,,,,,,,,,,,,,
,,,,,,60e5bae47d73a213b5189148,62c539bfaeca55441460b844,2022-07-06_19h29.33.779,Colour_Asymmetry_Pilot,2022.1.3,Win32,60.16847172,62c50e9c1127f2cd403a315f,0,11,11,95,1,fourthree,,,,,,,,,,,,,,,,,,,,,,,,,,,,,,,,,,,,,,,,,,,,,,,,,,,,,,,,,,,,,,,,,,,,,,,,,,,,,,,,,,,,,,,,,,,,,,,,,,,,,,,,,,,,,,,,,,,,,,,,,,,,,,,,,,,,,,,,,,,,,,,,,,,,,,,,,,,,,
,,,,,,60e5bae47d73a213b5189148,62c539bfaeca55441460b844,2022-07-06_19h29.33.779,Colour_Asymmetry_Pilot,2022.1.3,Win32,60.16847172,62c50e9c1127f2cd403a315f,0,12,12,123,1,twofour,,,,,,,,,,,,,,,,,,,,,,,,,,,,,,,,,,,,,,,,,,,,,,,,,,,,,,,,,,,,,,,,,,,,,,,,,,,,,,,,,,,,,,,,,,,,,,,,,,,,,,,,,,,,,,,,,,,,,,,,,,,,,,,,,,,,,,,,,,,,,,,,,,,,,,,,,,,,,
,,,,,,60e5bae47d73a213b5189148,62c539bfaeca55441460b844,2022-07-06_19h29.33.779,Colour_Asymmetry_Pilot,2022.1.3,Win32,60.16847172,62c50e9c1127f2cd403a315f,0,13,13,160,1,onetwo,,,,,,,,,,,,,,,,,,,,,,,,,,,,,,,,,,,,,,,,,,,,,,,,,,,,,,,,,,,,,,,,,,,,,,,,,,,,,,,,,,,,,,,,,,,,,,,,,,,,,,,,,,,,,,,,,,,,,,,,,,,,,,,,,,,,,,,,,,,,,,,,,,,,,,,,,,,,,
,,,,,,60e5bae47d73a213b5189148,62c539bfaeca55441460b844,2022-07-06_19h29.33.779,Colour_Asymmetry_Pilot,2022.1.3,Win32,60.16847172,62c50e9c1127f2cd403a315f,0,14,14,51,1,twofour,,,,,,,,,,,,,,,,,,,,,,,,,,,,,,,,,,,,,,,,,,,,,,,,,,,,,,,,,,,,,,,,,,,,,,,,,,,,,,,,,,,,,,,,,,,,,,,,,,,,,,,,,,,,,,,,,,,,,,,,,,,,,,,,,,,,,,,,,,,,,,,,,,,,,,,,,,,,,
,,,,,,60e5bae47d73a213b5189148,62c539bfaeca55441460b844,2022-07-06_19h29.33.779,Colour_Asymmetry_Pilot,2022.1.3,Win32,60.16847172,62c50e9c1127f2cd403a315f,0,15,15,137,1,onethree,,,,,,,,,,,,,,,,,,,,,,,,,,,,,,,,,,,,,,,,,,,,,,,,,,,,,,,,,,,,,,,,,,,,,,,,,,,,,,,,,,,,,,,,,,,,,,,,,,,,,,,,,,,,,,,,,,,,,,,,,,,,,,,,,,,,,,,,,,,,,,,,,,,,,,,,,,,,,
,,,,,,60e5bae47d73a213b5189148,62c539bfaeca55441460b844,2022-07-06_19h29.33.779,Colour_Asymmetry_Pilot,2022.1.3,Win32,60.16847172,62c50e9c1127f2cd403a315f,0,16,16,63,1,fourthree,,,,,,,,,,,,,,,,,,,,,,,,,,,,,,,,,,,,,,,,,,,,,,,,,,,,,,,,,,,,,,,,,,,,,,,,,,,,,,,,,,,,,,,,,,,,,,,,,,,,,,,,,,,,,,,,,,,,,,,,,,,,,,,,,,,,,,,,,,,,,,,,,,,,,,,,,,,,,
,,,,,,60e5bae47d73a213b5189148,62c539bfaeca55441460b844,2022-07-06_19h29.33.779,Colour_Asymmetry_Pilot,2022.1.3,Win32,60.16847172,62c50e9c1127f2cd403a315f,0,17,17,161,1,onethree,,,,,,,,,,,,,,,,,,,,,,,,,,,,,,,,,,,,,,,,,,,,,,,,,,,,,,,,,,,,,,,,,,,,,,,,,,,,,,,,,,,,,,,,,,,,,,,,,,,,,,,,,,,,,,,,,,,,,,,,,,,,,,,,,,,,,,,,,,,,,,,,,,,,,,,,,,,,,
,,,,,,60e5bae47d73a213b5189148,62c539bfaeca55441460b844,2022-07-06_19h29.33.779,Colour_Asymmetry_Pilot,2022.1.3,Win32,60.16847172,62c50e9c1127f2cd403a315f,0,18,18,15,1,fourthree,,,,,,,,,,,,,,,,,,,,,,,,,,,,,,,,,,,,,,,,,,,,,,,,,,,,,,,,,,,,,,,,,,,,,,,,,,,,,,,,,,,,,,,,,,,,,,,,,,,,,,,,,,,,,,,,,,,,,,,,,,,,,,,,,,,,,,,,,,,,,,,,,,,,,,,,,,,,,
,,,,,,60e5bae47d73a213b5189148,62c539bfaeca55441460b844,2022-07-06_19h29.33.779,Colour_Asymmetry_Pilot,2022.1.3,Win32,60.16847172,62c50e9c1127f2cd403a315f,0,19,19,50,1,twoone,,,,,,,,,,,,,,,,,,,,,,,,,,,,,,,,,,,,,,,,,,,,,,,,,,,,,,,,,,,,,,,,,,,,,,,,,,,,,,,,,,,,,,,,,,,,,,,,,,,,,,,,,,,,,,,,,,,,,,,,,,,,,,,,,,,,,,,,,,,,,,,,,,,,,,,,,,,,,
,,,,,,60e5bae47d73a213b5189148,62c539bfaeca55441460b844,2022-07-06_19h29.33.779,Colour_Asymmetry_Pilot,2022.1.3,Win32,60.16847172,62c50e9c1127f2cd403a315f,0,20,20,42,1,twoone,,,,,,,,,,,,,,,,,,,,,,,,,,,,,,,,,,,,,,,,,,,,,,,,,,,,,,,,,,,,,,,,,,,,,,,,,,,,,,,,,,,,,,,,,,,,,,,,,,,,,,,,,,,,,,,,,,,,,,,,,,,,,,,,,,,,,,,,,,,,,,,,,,,,,,,,,,,,,
,,,,,,60e5bae47d73a213b5189148,62c539bfaeca55441460b844,2022-07-06_19h29.33.779,Colour_Asymmetry_Pilot,2022.1.3,Win32,60.16847172,62c50e9c1127f2cd403a315f,0,21,21,84,1,threeone,,,,,,,,,,,,,,,,,,,,,,,,,,,,,,,,,,,,,,,,,,,,,,,,,,,,,,,,,,,,,,,,,,,,,,,,,,,,,,,,,,,,,,,,,,,,,,,,,,,,,,,,,,,,,,,,,,,,,,,,,,,,,,,,,,,,,,,,,,,,,,,,,,,,,,,,,,,,,
,,,,,,60e5bae47d73a213b5189148,62c539bfaeca55441460b844,2022-07-06_19h29.33.779,Colour_Asymmetry_Pilot,2022.1.3,Win32,60.16847172,62c50e9c1127f2cd403a315f,0,22,22,4,1,threeone,,,,,,,,,,,,,,,,,,,,,,,,,,,,,,,,,,,,,,,,,,,,,,,,,,,,,,,,,,,,,,,,,,,,,,,,,,,,,,,,,,,,,,,,,,,,,,,,,,,,,,,,,,,,,,,,,,,,,,,,,,,,,,,,,,,,,,,,,,,,,,,,,,,,,,,,,,,,,
,,,,,,60e5bae47d73a213b5189148,62c539bfaeca55441460b844,2022-07-06_19h29.33.779,Colour_Asymmetry_Pilot,2022.1.3,Win32,60.16847172,62c50e9c1127f2cd403a315f,0,23,23,16,1,onetwo,,,,,,,,,,,,,,,,,,,,,,,,,,,,,,,,,,,,,,,,,,,,,,,,,,,,,,,,,,,,,,,,,,,,,,,,,,,,,,,,,,,,,,,,,,,,,,,,,,,,,,,,,,,,,,,,,,,,,,,,,,,,,,,,,,,,,,,,,,,,,,,,,,,,,,,,,,,,,
,,,,,,60e5bae47d73a213b5189148,62c539bfaeca55441460b844,2022-07-06_19h29.33.779,Colour_Asymmetry_Pilot,2022.1.3,Win32,60.16847172,62c50e9c1127f2cd403a315f,0,24,24,131,1,twofour,,,,,,,,,,,,,,,,,,,,,,,,,,,,,,,,,,,,,,,,,,,,,,,,,,,,,,,,,,,,,,,,,,,,,,,,,,,,,,,,,,,,,,,,,,,,,,,,,,,,,,,,,,,,,,,,,,,,,,,,,,,,,,,,,,,,,,,,,,,,,,,,,,,,,,,,,,,,,
,,,,,,60e5bae47d73a213b5189148,62c539bfaeca55441460b844,2022-07-06_19h29.33.779,Colour_Asymmetry_Pilot,2022.1.3,Win32,60.16847172,62c50e9c1127f2cd403a315f,0,25,25,0,1,onetwo,,,,,,,,,,,,,,,,,,,,,,,,,,,,,,,,,,,,,,,,,,,,,,,,,,,,,,,,,,,,,,,,,,,,,,,,,,,,,,,,,,,,,,,,,,,,,,,,,,,,,,,,,,,,,,,,,,,,,,,,,,,,,,,,,,,,,,,,,,,,,,,,,,,,,,,,,,,,,
,,,,,,60e5bae47d73a213b5189148,62c539bfaeca55441460b844,2022-07-06_19h29.33.779,Colour_Asymmetry_Pilot,2022.1.3,Win32,60.16847172,62c50e9c1127f2cd403a315f,0,26,26,107,1,twofour,,,,,,,,,,,,,,,,,,,,,,,,,,,,,,,,,,,,,,,,,,,,,,,,,,,,,,,,,,,,,,,,,,,,,,,,,,,,,,,,,,,,,,,,,,,,,,,,,,,,,,,,,,,,,,,,,,,,,,,,,,,,,,,,,,,,,,,,,,,,,,,,,,,,,,,,,,,,,
,,,,,,60e5bae47d73a213b5189148,62c539bfaeca55441460b844,2022-07-06_19h29.33.779,Colour_Asymmetry_Pilot,2022.1.3,Win32,60.16847172,62c50e9c1127f2cd403a315f,0,27,27,88,1,onetwo,,,,,,,,,,,,,,,,,,,,,,,,,,,,,,,,,,,,,,,,,,,,,,,,,,,,,,,,,,,,,,,,,,,,,,,,,,,,,,,,,,,,,,,,,,,,,,,,,,,,,,,,,,,,,,,,,,,,,,,,,,,,,,,,,,,,,,,,,,,,,,,,,,,,,,,,,,,,,
,,,,,,60e5bae47d73a213b5189148,62c539bfaeca55441460b844,2022-07-06_19h29.33.779,Colour_Asymmetry_Pilot,2022.1.3,Win32,60.16847172,62c50e9c1127f2cd403a315f,0,28,28,151,1,fourthree,,,,,,,,,,,,,,,,,,,,,,,,,,,,,,,,,,,,,,,,,,,,,,,,,,,,,,,,,,,,,,,,,,,,,,,,,,,,,,,,,,,,,,,,,,,,,,,,,,,,,,,,,,,,,,,,,,,,,,,,,,,,,,,,,,,,,,,,,,,,,,,,,,,,,,,,,,,,,
,,,,,,60e5bae47d73a213b5189148,62c539bfaeca55441460b844,2022-07-06_19h29.33.779,Colour_Asymmetry_Pilot,2022.1.3,Win32,60.16847172,62c50e9c1127f2cd403a315f,0,29,29,64,1,onetwo,,,,,,,,,,,,,,,,,,,,,,,,,,,,,,,,,,,,,,,,,,,,,,,,,,,,,,,,,,,,,,,,,,,,,,,,,,,,,,,,,,,,,,,,,,,,,,,,,,,,,,,,,,,,,,,,,,,,,,,,,,,,,,,,,,,,,,,,,,,,,,,,,,,,,,,,,,,,,
,,,,,,60e5bae47d73a213b5189148,62c539bfaeca55441460b844,2022-07-06_19h29.33.779,Colour_Asymmetry_Pilot,2022.1.3,Win32,60.16847172,62c50e9c1127f2cd403a315f,0,30,30,155,1,twofour,,,,,,,,,,,,,,,,,,,,,,,,,,,,,,,,,,,,,,,,,,,,,,,,,,,,,,,,,,,,,,,,,,,,,,,,,,,,,,,,,,,,,,,,,,,,,,,,,,,,,,,,,,,,,,,,,,,,,,,,,,,,,,,,,,,,,,,,,,,,,,,,,,,,,,,,,,,,,
,,,,,,60e5bae47d73a213b5189148,62c539bfaeca55441460b844,2022-07-06_19h29.33.779,Colour_Asymmetry_Pilot,2022.1.3,Win32,60.16847172,62c50e9c1127f2cd403a315f,0,31,31,140,1,threeone,,,,,,,,,,,,,,,,,,,,,,,,,,,,,,,,,,,,,,,,,,,,,,,,,,,,,,,,,,,,,,,,,,,,,,,,,,,,,,,,,,,,,,,,,,,,,,,,,,,,,,,,,,,,,,,,,,,,,,,,,,,,,,,,,,,,,,,,,,,,,,,,,,,,,,,,,,,,,
,,,,,,60e5bae47d73a213b5189148,62c539bfaeca55441460b844,2022-07-06_19h29.33.779,Colour_Asymmetry_Pilot,2022.1.3,Win32,60.16847172,62c50e9c1127f2cd403a315f,0,32,32,147,1,twofour,,,,,,,,,,,,,,,,,,,,,,,,,,,,,,,,,,,,,,,,,,,,,,,,,,,,,,,,,,,,,,,,,,,,,,,,,,,,,,,,,,,,,,,,,,,,,,,,,,,,,,,,,,,,,,,,,,,,,,,,,,,,,,,,,,,,,,,,,,,,,,,,,,,,,,,,,,,,,
,,,,,,60e5bae47d73a213b5189148,62c539bfaeca55441460b844,2022-07-06_19h29.33.779,Colour_Asymmetry_Pilot,2022.1.3,Win32,60.16847172,62c50e9c1127f2cd403a315f,0,33,33,26,1,twoone,,,,,,,,,,,,,,,,,,,,,,,,,,,,,,,,,,,,,,,,,,,,,,,,,,,,,,,,,,,,,,,,,,,,,,,,,,,,,,,,,,,,,,,,,,,,,,,,,,,,,,,,,,,,,,,,,,,,,,,,,,,,,,,,,,,,,,,,,,,,,,,,,,,,,,,,,,,,,
,,,,,,60e5bae47d73a213b5189148,62c539bfaeca55441460b844,2022-07-06_19h29.33.779,Colour_Asymmetry_Pilot,2022.1.3,Win32,60.16847172,62c50e9c1127f2cd403a315f,0,34,34,56,1,onetwo,,,,,,,,,,,,,,,,,,,,,,,,,,,,,,,,,,,,,,,,,,,,,,,,,,,,,,,,,,,,,,,,,,,,,,,,,,,,,,,,,,,,,,,,,,,,,,,,,,,,,,,,,,,,,,,,,,,,,,,,,,,,,,,,,,,,,,,,,,,,,,,,,,,,,,,,,,,,,
,,,,,,60e5bae47d73a213b5189148,62c539bfaeca55441460b844,2022-07-06_19h29.33.779,Colour_Asymmetry_Pilot,2022.1.3,Win32,60.16847172,62c50e9c1127f2cd403a315f,0,35,35,44,1,threeone,,,,,,,,,,,,,,,,,,,,,,,,,,,,,,,,,,,,,,,,,,,,,,,,,,,,,,,,,,,,,,,,,,,,,,,,,,,,,,,,,,,,,,,,,,,,,,,,,,,,,,,,,,,,,,,,,,,,,,,,,,,,,,,,,,,,,,,,,,,,,,,,,,,,,,,,,,,,,
,,,,,,60e5bae47d73a213b5189148,62c539bfaeca55441460b844,2022-07-06_19h29.33.779,Colour_Asymmetry_Pilot,2022.1.3,Win32,60.16847172,62c50e9c1127f2cd403a315f,0,36,36,126,1,fourtwo,,,,,,,,,,,,,,,,,,,,,,,,,,,,,,,,,,,,,,,,,,,,,,,,,,,,,,,,,,,,,,,,,,,,,,,,,,,,,,,,,,,,,,,,,,,,,,,,,,,,,,,,,,,,,,,,,,,,,,,,,,,,,,,,,,,,,,,,,,,,,,,,,,,,,,,,,,,,,
,,,,,,60e5bae47d73a213b5189148,62c539bfaeca55441460b844,2022-07-06_19h29.33.779,Colour_Asymmetry_Pilot,2022.1.3,Win32,60.16847172,62c50e9c1127f2cd403a315f,0,37,37,136,1,onetwo,,,,,,,,,,,,,,,,,,,,,,,,,,,,,,,,,,,,,,,,,,,,,,,,,,,,,,,,,,,,,,,,,,,,,,,,,,,,,,,,,,,,,,,,,,,,,,,,,,,,,,,,,,,,,,,,,,,,,,,,,,,,,,,,,,,,,,,,,,,,,,,,,,,,,,,,,,,,,
,,,,,,60e5bae47d73a213b5189148,62c539bfaeca55441460b844,2022-07-06_19h29.33.779,Colour_Asymmetry_Pilot,2022.1.3,Win32,60.16847172,62c50e9c1127f2cd403a315f,0,38,38,127,1,fourthree,,,,,,,,,,,,,,,,,,,,,,,,,,,,,,,,,,,,,,,,,,,,,,,,,,,,,,,,,,,,,,,,,,,,,,,,,,,,,,,,,,,,,,,,,,,,,,,,,,,,,,,,,,,,,,,,,,,,,,,,,,,,,,,,,,,,,,,,,,,,,,,,,,,,,,,,,,,,,
,,,,,,60e5bae47d73a213b5189148,62c539bfaeca55441460b844,2022-07-06_19h29.33.779,Colour_Asymmetry_Pilot,2022.1.3,Win32,60.16847172,62c50e9c1127f2cd403a315f,0,39,39,65,1,onethree,,,,,,,,,,,,,,,,,,,,,,,,,,,,,,,,,,,,,,,,,,,,,,,,,,,,,,,,,,,,,,,,,,,,,,,,,,,,,,,,,,,,,,,,,,,,,,,,,,,,,,,,,,,,,,,,,,,,,,,,,,,,,,,,,,,,,,,,,,,,,,,,,,,,,,,,,,,,,
,,,,,,60e5bae47d73a213b5189148,62c539bfaeca55441460b844,2022-07-06_19h29.33.779,Colour_Asymmetry_Pilot,2022.1.3,Win32,60.16847172,62c50e9c1127f2cd403a315f,0,40,40,80,1,onetwo,,,,,,,,,,,,,,,,,,,,,,,,,,,,,,,,,,,,,,,,,,,,,,,,,,,,,,,,,,,,,,,,,,,,,,,,,,,,,,,,,,,,,,,,,,,,,,,,,,,,,,,,,,,,,,,,,,,,,,,,,,,,,,,,,,,,,,,,,,,,,,,,,,,,,,,,,,,,,
,,,,,,60e5bae47d73a213b5189148,62c539bfaeca55441460b844,2022-07-06_19h29.33.779,Colour_Asymmetry_Pilot,2022.1.3,Win32,60.16847172,62c50e9c1127f2cd403a315f,0,41,41,9,1,onethree,,,,,,,,,,,,,,,,,,,,,,,,,,,,,,,,,,,,,,,,,,,,,,,,,,,,,,,,,,,,,,,,,,,,,,,,,,,,,,,,,,,,,,,,,,,,,,,,,,,,,,,,,,,,,,,,,,,,,,,,,,,,,,,,,,,,,,,,,,,,,,,,,,,,,,,,,,,,,
,,,,,,60e5bae47d73a213b5189148,62c539bfaeca55441460b844,2022-07-06_19h29.33.779,Colour_Asymmetry_Pilot,2022.1.3,Win32,60.16847172,62c50e9c1127f2cd403a315f,0,42,42,45,1,threefour,,,,,,,,,,,,,,,,,,,,,,,,,,,,,,,,,,,,,,,,,,,,,,,,,,,,,,,,,,,,,,,,,,,,,,,,,,,,,,,,,,,,,,,,,,,,,,,,,,,,,,,,,,,,,,,,,,,,,,,,,,,,,,,,,,,,,,,,,,,,,,,,,,,,,,,,,,,,,
,,,,,,60e5bae47d73a213b5189148,62c539bfaeca55441460b844,2022-07-06_19h29.33.779,Colour_Asymmetry_Pilot,2022.1.3,Win32,60.16847172,62c50e9c1127f2cd403a315f,0,43,43,72,1,onetwo,,,,,,,,,,,,,,,,,,,,,,,,,,,,,,,,,,,,,,,,,,,,,,,,,,,,,,,,,,,,,,,,,,,,,,,,,,,,,,,,,,,,,,,,,,,,,,,,,,,,,,,,,,,,,,,,,,,,,,,,,,,,,,,,,,,,,,,,,,,,,,,,,,,,,,,,,,,,,
,,,,,,60e5bae47d73a213b5189148,62c539bfaeca55441460b844,2022-07-06_19h29.33.779,Colour_Asymmetry_Pilot,2022.1.3,Win32,60.16847172,62c50e9c1127f2cd403a315f,0,44,44,52,1,threeone,,,,,,,,,,,,,,,,,,,,,,,,,,,,,,,,,,,,,,,,,,,,,,,,,,,,,,,,,,,,,,,,,,,,,,,,,,,,,,,,,,,,,,,,,,,,,,,,,,,,,,,,,,,,,,,,,,,,,,,,,,,,,,,,,,,,,,,,,,,,,,,,,,,,,,,,,,,,,
,,,,,,60e5bae47d73a213b5189148,62c539bfaeca55441460b844,2022-07-06_19h29.33.779,Colour_Asymmetry_Pilot,2022.1.3,Win32,60.16847172,62c50e9c1127f2cd403a315f,0,45,45,25,1,onethree,,,,,,,,,,,,,,,,,,,,,,,,,,,,,,,,,,,,,,,,,,,,,,,,,,,,,,,,,,,,,,,,,,,,,,,,,,,,,,,,,,,,,,,,,,,,,,,,,,,,,,,,,,,,,,,,,,,,,,,,,,,,,,,,,,,,,,,,,,,,,,,,,,,,,,,,,,,,,
,,,,,,60e5bae47d73a213b5189148,62c539bfaeca55441460b844,2022-07-06_19h29.33.779,Colour_Asymmetry_Pilot,2022.1.3,Win32,60.16847172,62c50e9c1127f2cd403a315f,0,46,46,55,1,fourthree,,,,,,,,,,,,,,,,,,,,,,,,,,,,,,,,,,,,,,,,,,,,,,,,,,,,,,,,,,,,,,,,,,,,,,,,,,,,,,,,,,,,,,,,,,,,,,,,,,,,,,,,,,,,,,,,,,,,,,,,,,,,,,,,,,,,,,,,,,,,,,,,,,,,,,,,,,,,,
,,,,,,60e5bae47d73a213b5189148,62c539bfaeca55441460b844,2022-07-06_19h29.33.779,Colour_Asymmetry_Pilot,2022.1.3,Win32,60.16847172,62c50e9c1127f2cd403a315f,0,47,47,93,1,threefour,,,,,,,,,,,,,,,,,,,,,,,,,,,,,,,,,,,,,,,,,,,,,,,,,,,,,,,,,,,,,,,,,,,,,,,,,,,,,,,,,,,,,,,,,,,,,,,,,,,,,,,,,,,,,,,,,,,,,,,,,,,,,,,,,,,,,,,,,,,,,,,,,,,,,,,,,,,,,
,,,,,,60e5bae47d73a213b5189148,62c539bfaeca55441460b844,2022-07-06_19h29.33.779,Colour_Asymmetry_Pilot,2022.1.3,Win32,60.16847172,62c50e9c1127f2cd403a315f,0,48,48,158,1,fourtwo,,,,,,,,,,,,,,,,,,,,,,,,,,,,,,,,,,,,,,,,,,,,,,,,,,,,,,,,,,,,,,,,,,,,,,,,,,,,,,,,,,,,,,,,,,,,,,,,,,,,,,,,,,,,,,,,,,,,,,,,,,,,,,,,,,,,,,,,,,,,,,,,,,,,,,,,,,,,,
,,,,,,60e5bae47d73a213b5189148,62c539bfaeca55441460b844,2022-07-06_19h29.33.779,Colour_Asymmetry_Pilot,2022.1.3,Win32,60.16847172,62c50e9c1127f2cd403a315f,0,49,49,54,1,fourtwo,,,,,,,,,,,,,,,,,,,,,,,,,,,,,,,,,,,,,,,,,,,,,,,,,,,,,,,,,,,,,,,,,,,,,,,,,,,,,,,,,,,,,,,,,,,,,,,,,,,,,,,,,,,,,,,,,,,,,,,,,,,,,,,,,,,,,,,,,,,,,,,,,,,,,,,,,,,,,
,,,,,,60e5bae47d73a213b5189148,62c539bfaeca55441460b844,2022-07-06_19h29.33.779,Colour_Asymmetry_Pilot,2022.1.3,Win32,60.16847172,62c50e9c1127f2cd403a315f,0,50,50,109,1,threefour,,,,,,,,,,,,,,,,,,,,,,,,,,,,,,,,,,,,,,,,,,,,,,,,,,,,,,,,,,,,,,,,,,,,,,,,,,,,,,,,,,,,,,,,,,,,,,,,,,,,,,,,,,,,,,,,,,,,,,,,,,,,,,,,,,,,,,,,,,,,,,,,,,,,,,,,,,,,,
,,,,,,60e5bae47d73a213b5189148,62c539bfaeca55441460b844,2022-07-06_19h29.33.779,Colour_Asymmetry_Pilot,2022.1.3,Win32,60.16847172,62c50e9c1127f2cd403a315f,0,51,51,69,1,threefour,,,,,,,,,,,,,,,,,,,,,,,,,,,,,,,,,,,,,,,,,,,,,,,,,,,,,,,,,,,,,,,,,,,,,,,,,,,,,,,,,,,,,,,,,,,,,,,,,,,,,,,,,,,,,,,,,,,,,,,,,,,,,,,,,,,,,,,,,,,,,,,,,,,,,,,,,,,,,
,,,,,,60e5bae47d73a213b5189148,62c539bfaeca55441460b844,2022-07-06_19h29.33.779,Colour_Asymmetry_Pilot,2022.1.3,Win32,60.16847172,62c50e9c1127f2cd403a315f,0,52,52,49,1,onethree,,,,,,,,,,,,,,,,,,,,,,,,,,,,,,,,,,,,,,,,,,,,,,,,,,,,,,,,,,,,,,,,,,,,,,,,,,,,,,,,,,,,,,,,,,,,,,,,,,,,,,,,,,,,,,,,,,,,,,,,,,,,,,,,,,,,,,,,,,,,,,,,,,,,,,,,,,,,,
,,,,,,60e5bae47d73a213b5189148,62c539bfaeca55441460b844,2022-07-06_19h29.33.779,Colour_Asymmetry_Pilot,2022.1.3,Win32,60.16847172,62c50e9c1127f2cd403a315f,0,53,53,7,1,fourthree,,,,,,,,,,,,,,,,,,,,,,,,,,,,,,,,,,,,,,,,,,,,,,,,,,,,,,,,,,,,,,,,,,,,,,,,,,,,,,,,,,,,,,,,,,,,,,,,,,,,,,,,,,,,,,,,,,,,,,,,,,,,,,,,,,,,,,,,,,,,,,,,,,,,,,,,,,,,,
,,,,,,60e5bae47d73a213b5189148,62c539bfaeca55441460b844,2022-07-06_19h29.33.779,Colour_Asymmetry_Pilot,2022.1.3,Win32,60.16847172,62c50e9c1127f2cd403a315f,0,54,54,81,1,onethree,,,,,,,,,,,,,,,,,,,,,,,,,,,,,,,,,,,,,,,,,,,,,,,,,,,,,,,,,,,,,,,,,,,,,,,,,,,,,,,,,,,,,,,,,,,,,,,,,,,,,,,,,,,,,,,,,,,,,,,,,,,,,,,,,,,,,,,,,,,,,,,,,,,,,,,,,,,,,
,,,,,,60e5bae47d73a213b5189148,62c539bfaeca55441460b844,2022-07-06_19h29.33.779,Colour_Asymmetry_Pilot,2022.1.3,Win32,60.16847172,62c50e9c1127f2cd403a315f,0,55,55,104,1,onetwo,,,,,,,,,,,,,,,,,,,,,,,,,,,,,,,,,,,,,,,,,,,,,,,,,,,,,,,,,,,,,,,,,,,,,,,,,,,,,,,,,,,,,,,,,,,,,,,,,,,,,,,,,,,,,,,,,,,,,,,,,,,,,,,,,,,,,,,,,,,,,,,,,,,,,,,,,,,,,
,,,,,,60e5bae47d73a213b5189148,62c539bfaeca55441460b844,2022-07-06_19h29.33.779,Colour_Asymmetry_Pilot,2022.1.3,Win32,60.16847172,62c50e9c1127f2cd403a315f,0,56,56,132,1,threeone,,,,,,,,,,,,,,,,,,,,,,,,,,,,,,,,,,,,,,,,,,,,,,,,,,,,,,,,,,,,,,,,,,,,,,,,,,,,,,,,,,,,,,,,,,,,,,,,,,,,,,,,,,,,,,,,,,,,,,,,,,,,,,,,,,,,,,,,,,,,,,,,,,,,,,,,,,,,,
,,,,,,60e5bae47d73a213b5189148,62c539bfaeca55441460b844,2022-07-06_19h29.33.779,Colour_Asymmetry_Pilot,2022.1.3,Win32,60.16847172,62c50e9c1127f2cd403a315f,0,57,57,38,1,fourtwo,,,,,,,,,,,,,,,,,,,,,,,,,,,,,,,,,,,,,,,,,,,,,,,,,,,,,,,,,,,,,,,,,,,,,,,,,,,,,,,,,,,,,,,,,,,,,,,,,,,,,,,,,,,,,,,,,,,,,,,,,,,,,,,,,,,,,,,,,,,,,,,,,,,,,,,,,,,,,
,,,,,,60e5bae47d73a213b5189148,62c539bfaeca55441460b844,2022-07-06_19h29.33.779,Colour_Asymmetry_Pilot,2022.1.3,Win32,60.16847172,62c50e9c1127f2cd403a315f,0,58,58,60,1,threeone,,,,,,,,,,,,,,,,,,,,,,,,,,,,,,,,,,,,,,,,,,,,,,,,,,,,,,,,,,,,,,,,,,,,,,,,,,,,,,,,,,,,,,,,,,,,,,,,,,,,,,,,,,,,,,,,,,,,,,,,,,,,,,,,,,,,,,,,,,,,,,,,,,,,,,,,,,,,,
,,,,,,60e5bae47d73a213b5189148,62c539bfaeca55441460b844,2022-07-06_19h29.33.779,Colour_Asymmetry_Pilot,2022.1.3,Win32,60.16847172,62c50e9c1127f2cd403a315f,0,59,59,117,1,threefour,,,,,,,,,,,,,,,,,,,,,,,,,,,,,,,,,,,,,,,,,,,,,,,,,,,,,,,,,,,,,,,,,,,,,,,,,,,,,,,,,,,,,,,,,,,,,,,,,,,,,,,,,,,,,,,,,,,,,,,,,,,,,,,,,,,,,,,,,,,,,,,,,,,,,,,,,,,,,
,,,,,,60e5bae47d73a213b5189148,62c539bfaeca55441460b844,2022-07-06_19h29.33.779,Colour_Asymmetry_Pilot,2022.1.3,Win32,60.16847172,62c50e9c1127f2cd403a315f,0,60,60,144,1,onetwo,,,,,,,,,,,,,,,,,,,,,,,,,,,,,,,,,,,,,,,,,,,,,,,,,,,,,,,,,,,,,,,,,,,,,,,,,,,,,,,,,,,,,,,,,,,,,,,,,,,,,,,,,,,,,,,,,,,,,,,,,,,,,,,,,,,,,,,,,,,,,,,,,,,,,,,,,,,,,
,,,,,,60e5bae47d73a213b5189148,62c539bfaeca55441460b844,2022-07-06_19h29.33.779,Colour_Asymmetry_Pilot,2022.1.3,Win32,60.16847172,62c50e9c1127f2cd403a315f,0,61,61,149,1,threefour,,,,,,,,,,,,,,,,,,,,,,,,,,,,,,,,,,,,,,,,,,,,,,,,,,,,,,,,,,,,,,,,,,,,,,,,,,,,,,,,,,,,,,,,,,,,,,,,,,,,,,,,,,,,,,,,,,,,,,,,,,,,,,,,,,,,,,,,,,,,,,,,,,,,,,,,,,,,,
,,,,,,60e5bae47d73a213b5189148,62c539bfaeca55441460b844,2022-07-06_19h29.33.779,Colour_Asymmetry_Pilot,2022.1.3,Win32,60.16847172,62c50e9c1127f2cd403a315f,0,62,62,28,1,threeone,,,,,,,,,,,,,,,,,,,,,,,,,,,,,,,,,,,,,,,,,,,,,,,,,,,,,,,,,,,,,,,,,,,,,,,,,,,,,,,,,,,,,,,,,,,,,,,,,,,,,,,,,,,,,,,,,,,,,,,,,,,,,,,,,,,,,,,,,,,,,,,,,,,,,,,,,,,,,
,,,,,,60e5bae47d73a213b5189148,62c539bfaeca55441460b844,2022-07-06_19h29.33.779,Colour_Asymmetry_Pilot,2022.1.3,Win32,60.16847172,62c50e9c1127f2cd403a315f,0,63,63,98,1,twoone,,,,,,,,,,,,,,,,,,,,,,,,,,,,,,,,,,,,,,,,,,,,,,,,,,,,,,,,,,,,,,,,,,,,,,,,,,,,,,,,,,,,,,,,,,,,,,,,,,,,,,,,,,,,,,,,,,,,,,,,,,,,,,,,,,,,,,,,,,,,,,,,,,,,,,,,,,,,,
,,,,,,60e5bae47d73a213b5189148,62c539bfaeca55441460b844,2022-07-06_19h29.33.779,Colour_Asymmetry_Pilot,2022.1.3,Win32,60.16847172,62c50e9c1127f2cd403a315f,0,64,64,141,1,threefour,,,,,,,,,,,,,,,,,,,,,,,,,,,,,,,,,,,,,,,,,,,,,,,,,,,,,,,,,,,,,,,,,,,,,,,,,,,,,,,,,,,,,,,,,,,,,,,,,,,,,,,,,,,,,,,,,,,,,,,,,,,,,,,,,,,,,,,,,,,,,,,,,,,,,,,,,,,,,
,,,,,,60e5bae47d73a213b5189148,62c539bfaeca55441460b844,2022-07-06_19h29.33.779,Colour_Asymmetry_Pilot,2022.1.3,Win32,60.16847172,62c50e9c1127f2cd403a315f,0,65,65,76,1,threeone,,,,,,,,,,,,,,,,,,,,,,,,,,,,,,,,,,,,,,,,,,,,,,,,,,,,,,,,,,,,,,,,,,,,,,,,,,,,,,,,,,,,,,,,,,,,,,,,,,,,,,,,,,,,,,,,,,,,,,,,,,,,,,,,,,,,,,,,,,,,,,,,,,,,,,,,,,,,,
,,,,,,60e5bae47d73a213b5189148,62c539bfaeca55441460b844,2022-07-06_19h29.33.779,Colour_Asymmetry_Pilot,2022.1.3,Win32,60.16847172,62c50e9c1127f2cd403a315f,0,66,66,150,1,fourtwo,,,,,,,,,,,,,,,,,,,,,,,,,,,,,,,,,,,,,,,,,,,,,,,,,,,,,,,,,,,,,,,,,,,,,,,,,,,,,,,,,,,,,,,,,,,,,,,,,,,,,,,,,,,,,,,,,,,,,,,,,,,,,,,,,,,,,,,,,,,,,,,,,,,,,,,,,,,,,
,,,,,,60e5bae47d73a213b5189148,62c539bfaeca55441460b844,2022-07-06_19h29.33.779,Colour_Asymmetry_Pilot,2022.1.3,Win32,60.16847172,62c50e9c1127f2cd403a315f,0,67,67,8,1,onetwo,,,,,,,,,,,,,,,,,,,,,,,,,,,,,,,,,,,,,,,,,,,,,,,,,,,,,,,,,,,,,,,,,,,,,,,,,,,,,,,,,,,,,,,,,,,,,,,,,,,,,,,,,,,,,,,,,,,,,,,,,,,,,,,,,,,,,,,,,,,,,,,,,,,,,,,,,,,,,
,,,,,,60e5bae47d73a213b5189148,62c539bfaeca55441460b844,2022-07-06_19h29.33.779,Colour_Asymmetry_Pilot,2022.1.3,Win32,60.16847172,62c50e9c1127f2cd403a315f,0,68,68,62,1,fourtwo,,,,,,,,,,,,,,,,,,,,,,,,,,,,,,,,,,,,,,,,,,,,,,,,,,,,,,,,,,,,,,,,,,,,,,,,,,,,,,,,,,,,,,,,,,,,,,,,,,,,,,,,,,,,,,,,,,,,,,,,,,,,,,,,,,,,,,,,,,,,,,,,,,,,,,,,,,,,,
,,,,,,60e5bae47d73a213b5189148,62c539bfaeca55441460b844,2022-07-06_19h29.33.779,Colour_Asymmetry_Pilot,2022.1.3,Win32,60.16847172,62c50e9c1127f2cd403a315f,0,69,69,119,1,fourthree,,,,,,,,,,,,,,,,,,,,,,,,,,,,,,,,,,,,,,,,,,,,,,,,,,,,,,,,,,,,,,,,,,,,,,,,,,,,,,,,,,,,,,,,,,,,,,,,,,,,,,,,,,,,,,,,,,,,,,,,,,,,,,,,,,,,,,,,,,,,,,,,,,,,,,,,,,,,,
,,,,,,60e5bae47d73a213b5189148,62c539bfaeca55441460b844,2022-07-06_19h29.33.779,Colour_Asymmetry_Pilot,2022.1.3,Win32,60.16847172,62c50e9c1127f2cd403a315f,0,70,70,19,1,twofour,,,,,,,,,,,,,,,,,,,,,,,,,,,,,,,,,,,,,,,,,,,,,,,,,,,,,,,,,,,,,,,,,,,,,,,,,,,,,,,,,,,,,,,,,,,,,,,,,,,,,,,,,,,,,,,,,,,,,,,,,,,,,,,,,,,,,,,,,,,,,,,,,,,,,,,,,,,,,
,,,,,,60e5bae47d73a213b5189148,62c539bfaeca55441460b844,2022-07-06_19h29.33.779,Colour_Asymmetry_Pilot,2022.1.3,Win32,60.16847172,62c50e9c1127f2cd403a315f,0,71,71,10,1,twoone,,,,,,,,,,,,,,,,,,,,,,,,,,,,,,,,,,,,,,,,,,,,,,,,,,,,,,,,,,,,,,,,,,,,,,,,,,,,,,,,,,,,,,,,,,,,,,,,,,,,,,,,,,,,,,,,,,,,,,,,,,,,,,,,,,,,,,,,,,,,,,,,,,,,,,,,,,,,,
,,,,,,60e5bae47d73a213b5189148,62c539bfaeca55441460b844,2022-07-06_19h29.33.779,Colour_Asymmetry_Pilot,2022.1.3,Win32,60.16847172,62c50e9c1127f2cd403a315f,0,72,72,143,1,fourthree,,,,,,,,,,,,,,,,,,,,,,,,,,,,,,,,,,,,,,,,,,,,,,,,,,,,,,,,,,,,,,,,,,,,,,,,,,,,,,,,,,,,,,,,,,,,,,,,,,,,,,,,,,,,,,,,,,,,,,,,,,,,,,,,,,,,,,,,,,,,,,,,,,,,,,,,,,,,,
,,,,,,60e5bae47d73a213b5189148,62c539bfaeca55441460b844,2022-07-06_19h29.33.779,Colour_Asymmetry_Pilot,2022.1.3,Win32,60.16847172,62c50e9c1127f2cd403a315f,0,73,73,31,1,fourthree,,,,,,,,,,,,,,,,,,,,,,,,,,,,,,,,,,,,,,,,,,,,,,,,,,,,,,,,,,,,,,,,,,,,,,,,,,,,,,,,,,,,,,,,,,,,,,,,,,,,,,,,,,,,,,,,,,,,,,,,,,,,,,,,,,,,,,,,,,,,,,,,,,,,,,,,,,,,,
,,,,,,60e5bae47d73a213b5189148,62c539bfaeca55441460b844,2022-07-06_19h29.33.779,Colour_Asymmetry_Pilot,2022.1.3,Win32,60.16847172,62c50e9c1127f2cd403a315f,0,74,74,99,1,twofour,,,,,,,,,,,,,,,,,,,,,,,,,,,,,,,,,,,,,,,,,,,,,,,,,,,,,,,,,,,,,,,,,,,,,,,,,,,,,,,,,,,,,,,,,,,,,,,,,,,,,,,,,,,,,,,,,,,,,,,,,,,,,,,,,,,,,,,,,,,,,,,,,,,,,,,,,,,,,
,,,,,,60e5bae47d73a213b5189148,62c539bfaeca55441460b844,2022-07-06_19h29.33.779,Colour_Asymmetry_Pilot,2022.1.3,Win32,60.16847172,62c50e9c1127f2cd403a315f,0,75,75,58,1,twoone,,,,,,,,,,,,,,,,,,,,,,,,,,,,,,,,,,,,,,,,,,,,,,,,,,,,,,,,,,,,,,,,,,,,,,,,,,,,,,,,,,,,,,,,,,,,,,,,,,,,,,,,,,,,,,,,,,,,,,,,,,,,,,,,,,,,,,,,,,,,,,,,,,,,,,,,,,,,,
,,,,,,60e5bae47d73a213b5189148,62c539bfaeca55441460b844,2022-07-06_19h29.33.779,Colour_Asymmetry_Pilot,2022.1.3,Win32,60.16847172,62c50e9c1127f2cd403a315f,0,76,76,22,1,fourtwo,,,,,,,,,,,,,,,,,,,,,,,,,,,,,,,,,,,,,,,,,,,,,,,,,,,,,,,,,,,,,,,,,,,,,,,,,,,,,,,,,,,,,,,,,,,,,,,,,,,,,,,,,,,,,,,,,,,,,,,,,,,,,,,,,,,,,,,,,,,,,,,,,,,,,,,,,,,,,
,,,,,,60e5bae47d73a213b5189148,62c539bfaeca55441460b844,2022-07-06_19h29.33.779,Colour_Asymmetry_Pilot,2022.1.3,Win32,60.16847172,62c50e9c1127f2cd403a315f,0,77,77,134,1,fourtwo,,,,,,,,,,,,,,,,,,,,,,,,,,,,,,,,,,,,,,,,,,,,,,,,,,,,,,,,,,,,,,,,,,,,,,,,,,,,,,,,,,,,,,,,,,,,,,,,,,,,,,,,,,,,,,,,,,,,,,,,,,,,,,,,,,,,,,,,,,,,,,,,,,,,,,,,,,,,,
,,,,,,60e5bae47d73a213b5189148,62c539bfaeca55441460b844,2022-07-06_19h29.33.779,Colour_Asymmetry_Pilot,2022.1.3,Win32,60.16847172,62c50e9c1127f2cd403a315f,0,78,78,133,1,threefour,,,,,,,,,,,,,,,,,,,,,,,,,,,,,,,,,,,,,,,,,,,,,,,,,,,,,,,,,,,,,,,,,,,,,,,,,,,,,,,,,,,,,,,,,,,,,,,,,,,,,,,,,,,,,,,,,,,,,,,,,,,,,,,,,,,,,,,,,,,,,,,,,,,,,,,,,,,,,
,,,,,,60e5bae47d73a213b5189148,62c539bfaeca55441460b844,2022-07-06_19h29.33.779,Colour_Asymmetry_Pilot,2022.1.3,Win32,60.16847172,62c50e9c1127f2cd403a315f,0,79,79,35,1,twofour,,,,,,,,,,,,,,,,,,,,,,,,,,,,,,,,,,,,,,,,,,,,,,,,,,,,,,,,,,,,,,,,,,,,,,,,,,,,,,,,,,,,,,,,,,,,,,,,,,,,,,,,,,,,,,,,,,,,,,,,,,,,,,,,,,,,,,,,,,,,,,,,,,,,,,,,,,,,,
,,,,,,60e5bae47d73a213b5189148,62c539bfaeca55441460b844,2022-07-06_19h29.33.779,Colour_Asymmetry_Pilot,2022.1.3,Win32,60.16847172,62c50e9c1127f2cd403a315f,0,80,80,89,1,onethree,,,,,,,,,,,,,,,,,,,,,,,,,,,,,,,,,,,,,,,,,,,,,,,,,,,,,,,,,,,,,,,,,,,,,,,,,,,,,,,,,,,,,,,,,,,,,,,,,,,,,,,,,,,,,,,,,,,,,,,,,,,,,,,,,,,,,,,,,,,,,,,,,,,,,,,,,,,,,
,,,,,,60e5bae47d73a213b5189148,62c539bfaeca55441460b844,2022-07-06_19h29.33.779,Colour_Asymmetry_Pilot,2022.1.3,Win32,60.16847172,62c50e9c1127f2cd403a315f,0,81,81,43,1,twofour,,,,,,,,,,,,,,,,,,,,,,,,,,,,,,,,,,,,,,,,,,,,,,,,,,,,,,,,,,,,,,,,,,,,,,,,,,,,,,,,,,,,,,,,,,,,,,,,,,,,,,,,,,,,,,,,,,,,,,,,,,,,,,,,,,,,,,,,,,,,,,,,,,,,,,,,,,,,,
,,,,,,60e5bae47d73a213b5189148,62c539bfaeca55441460b844,2022-07-06_19h29.33.779,Colour_Asymmetry_Pilot,2022.1.3,Win32,60.16847172,62c50e9c1127f2cd403a315f,0,82,82,13,1,threefour,,,,,,,,,,,,,,,,,,,,,,,,,,,,,,,,,,,,,,,,,,,,,,,,,,,,,,,,,,,,,,,,,,,,,,,,,,,,,,,,,,,,,,,,,,,,,,,,,,,,,,,,,,,,,,,,,,,,,,,,,,,,,,,,,,,,,,,,,,,,,,,,,,,,,,,,,,,,,
,,,,,,60e5bae47d73a213b5189148,62c539bfaeca55441460b844,2022-07-06_19h29.33.779,Colour_Asymmetry_Pilot,2022.1.3,Win32,60.16847172,62c50e9c1127f2cd403a315f,0,83,83,73,1,onethree,,,,,,,,,,,,,,,,,,,,,,,,,,,,,,,,,,,,,,,,,,,,,,,,,,,,,,,,,,,,,,,,,,,,,,,,,,,,,,,,,,,,,,,,,,,,,,,,,,,,,,,,,,,,,,,,,,,,,,,,,,,,,,,,,,,,,,,,,,,,,,,,,,,,,,,,,,,,,
,,,,,,60e5bae47d73a213b5189148,62c539bfaeca55441460b844,2022-07-06_19h29.33.779,Colour_Asymmetry_Pilot,2022.1.3,Win32,60.16847172,62c50e9c1127f2cd403a315f,0,84,84,67,1,twofour,,,,,,,,,,,,,,,,,,,,,,,,,,,,,,,,,,,,,,,,,,,,,,,,,,,,,,,,,,,,,,,,,,,,,,,,,,,,,,,,,,,,,,,,,,,,,,,,,,,,,,,,,,,,,,,,,,,,,,,,,,,,,,,,,,,,,,,,,,,,,,,,,,,,,,,,,,,,,
,,,,,,60e5bae47d73a213b5189148,62c539bfaeca55441460b844,2022-07-06_19h29.33.779,Colour_Asymmetry_Pilot,2022.1.3,Win32,60.16847172,62c50e9c1127f2cd403a315f,0,85,85,145,1,onethree,,,,,,,,,,,,,,,,,,,,,,,,,,,,,,,,,,,,,,,,,,,,,,,,,,,,,,,,,,,,,,,,,,,,,,,,,,,,,,,,,,,,,,,,,,,,,,,,,,,,,,,,,,,,,,,,,,,,,,,,,,,,,,,,,,,,,,,,,,,,,,,,,,,,,,,,,,,,,
,,,,,,60e5bae47d73a213b5189148,62c539bfaeca55441460b844,2022-07-06_19h29.33.779,Colour_Asymmetry_Pilot,2022.1.3,Win32,60.16847172,62c50e9c1127f2cd403a315f,0,86,86,17,1,onethree,,,,,,,,,,,,,,,,,,,,,,,,,,,,,,,,,,,,,,,,,,,,,,,,,,,,,,,,,,,,,,,,,,,,,,,,,,,,,,,,,,,,,,,,,,,,,,,,,,,,,,,,,,,,,,,,,,,,,,,,,,,,,,,,,,,,,,,,,,,,,,,,,,,,,,,,,,,,,
,,,,,,60e5bae47d73a213b5189148,62c539bfaeca55441460b844,2022-07-06_19h29.33.779,Colour_Asymmetry_Pilot,2022.1.3,Win32,60.16847172,62c50e9c1127f2cd403a315f,0,87,87,112,1,onetwo,,,,,,,,,,,,,,,,,,,,,,,,,,,,,,,,,,,,,,,,,,,,,,,,,,,,,,,,,,,,,,,,,,,,,,,,,,,,,,,,,,,,,,,,,,,,,,,,,,,,,,,,,,,,,,,,,,,,,,,,,,,,,,,,,,,,,,,,,,,,,,,,,,,,,,,,,,,,,
,,,,,,60e5bae47d73a213b5189148,62c539bfaeca55441460b844,2022-07-06_19h29.33.779,Colour_Asymmetry_Pilot,2022.1.3,Win32,60.16847172,62c50e9c1127f2cd403a315f,0,88,88,40,1,onetwo,,,,,,,,,,,,,,,,,,,,,,,,,,,,,,,,,,,,,,,,,,,,,,,,,,,,,,,,,,,,,,,,,,,,,,,,,,,,,,,,,,,,,,,,,,,,,,,,,,,,,,,,,,,,,,,,,,,,,,,,,,,,,,,,,,,,,,,,,,,,,,,,,,,,,,,,,,,,,
,,,,,,60e5bae47d73a213b5189148,62c539bfaeca55441460b844,2022-07-06_19h29.33.779,Colour_Asymmetry_Pilot,2022.1.3,Win32,60.16847172,62c50e9c1127f2cd403a315f,0,89,89,34,1,twoone,,,,,,,,,,,,,,,,,,,,,,,,,,,,,,,,,,,,,,,,,,,,,,,,,,,,,,,,,,,,,,,,,,,,,,,,,,,,,,,,,,,,,,,,,,,,,,,,,,,,,,,,,,,,,,,,,,,,,,,,,,,,,,,,,,,,,,,,,,,,,,,,,,,,,,,,,,,,,
,,,,,,60e5bae47d73a213b5189148,62c539bfaeca55441460b844,2022-07-06_19h29.33.779,Colour_Asymmetry_Pilot,2022.1.3,Win32,60.16847172,62c50e9c1127f2cd403a315f,0,90,90,57,1,onethree,,,,,,,,,,,,,,,,,,,,,,,,,,,,,,,,,,,,,,,,,,,,,,,,,,,,,,,,,,,,,,,,,,,,,,,,,,,,,,,,,,,,,,,,,,,,,,,,,,,,,,,,,,,,,,,,,,,,,,,,,,,,,,,,,,,,,,,,,,,,,,,,,,,,,,,,,,,,,
,,,,,,60e5bae47d73a213b5189148,62c539bfaeca55441460b844,2022-07-06_19h29.33.779,Colour_Asymmetry_Pilot,2022.1.3,Win32,60.16847172,62c50e9c1127f2cd403a315f,0,91,91,36,1,threeone,,,,,,,,,,,,,,,,,,,,,,,,,,,,,,,,,,,,,,,,,,,,,,,,,,,,,,,,,,,,,,,,,,,,,,,,,,,,,,,,,,,,,,,,,,,,,,,,,,,,,,,,,,,,,,,,,,,,,,,,,,,,,,,,,,,,,,,,,,,,,,,,,,,,,,,,,,,,,
,,,,,,60e5bae47d73a213b5189148,62c539bfaeca55441460b844,2022-07-06_19h29.33.779,Colour_Asymmetry_Pilot,2022.1.3,Win32,60.16847172,62c50e9c1127f2cd403a315f,0,92,92,20,1,threeone,,,,,,,,,,,,,,,,,,,,,,,,,,,,,,,,,,,,,,,,,,,,,,,,,,,,,,,,,,,,,,,,,,,,,,,,,,,,,,,,,,,,,,,,,,,,,,,,,,,,,,,,,,,,,,,,,,,,,,,,,,,,,,,,,,,,,,,,,,,,,,,,,,,,,,,,,,,,,
,,,,,,60e5bae47d73a213b5189148,62c539bfaeca55441460b844,2022-07-06_19h29.33.779,Colour_Asymmetry_Pilot,2022.1.3,Win32,60.16847172,62c50e9c1127f2cd403a315f,0,93,93,142,1,fourtwo,,,,,,,,,,,,,,,,,,,,,,,,,,,,,,,,,,,,,,,,,,,,,,,,,,,,,,,,,,,,,,,,,,,,,,,,,,,,,,,,,,,,,,,,,,,,,,,,,,,,,,,,,,,,,,,,,,,,,,,,,,,,,,,,,,,,,,,,,,,,,,,,,,,,,,,,,,,,,
,,,,,,60e5bae47d73a213b5189148,62c539bfaeca55441460b844,2022-07-06_19h29.33.779,Colour_Asymmetry_Pilot,2022.1.3,Win32,60.16847172,62c50e9c1127f2cd403a315f,0,94,94,130,1,twoone,,,,,,,,,,,,,,,,,,,,,,,,,,,,,,,,,,,,,,,,,,,,,,,,,,,,,,,,,,,,,,,,,,,,,,,,,,,,,,,,,,,,,,,,,,,,,,,,,,,,,,,,,,,,,,,,,,,,,,,,,,,,,,,,,,,,,,,,,,,,,,,,,,,,,,,,,,,,,
,,,,,,60e5bae47d73a213b5189148,62c539bfaeca55441460b844,2022-07-06_19h29.33.779,Colour_Asymmetry_Pilot,2022.1.3,Win32,60.16847172,62c50e9c1127f2cd403a315f,0,95,95,3,1,twofour,,,,,,,,,,,,,,,,,,,,,,,,,,,,,,,,,,,,,,,,,,,,,,,,,,,,,,,,,,,,,,,,,,,,,,,,,,,,,,,,,,,,,,,,,,,,,,,,,,,,,,,,,,,,,,,,,,,,,,,,,,,,,,,,,,,,,,,,,,,,,,,,,,,,,,,,,,,,,
,,,,,,60e5bae47d73a213b5189148,62c539bfaeca55441460b844,2022-07-06_19h29.33.779,Colour_Asymmetry_Pilot,2022.1.3,Win32,60.16847172,62c50e9c1127f2cd403a315f,0,96,96,146,1,twoone,,,,,,,,,,,,,,,,,,,,,,,,,,,,,,,,,,,,,,,,,,,,,,,,,,,,,,,,,,,,,,,,,,,,,,,,,,,,,,,,,,,,,,,,,,,,,,,,,,,,,,,,,,,,,,,,,,,,,,,,,,,,,,,,,,,,,,,,,,,,,,,,,,,,,,,,,,,,,
,,,,,,60e5bae47d73a213b5189148,62c539bfaeca55441460b844,2022-07-06_19h29.33.779,Colour_Asymmetry_Pilot,2022.1.3,Win32,60.16847172,62c50e9c1127f2cd403a315f,0,97,97,66,1,twoone,,,,,,,,,,,,,,,,,,,,,,,,,,,,,,,,,,,,,,,,,,,,,,,,,,,,,,,,,,,,,,,,,,,,,,,,,,,,,,,,,,,,,,,,,,,,,,,,,,,,,,,,,,,,,,,,,,,,,,,,,,,,,,,,,,,,,,,,,,,,,,,,,,,,,,,,,,,,,
,,,,,,60e5bae47d73a213b5189148,62c539bfaeca55441460b844,2022-07-06_19h29.33.779,Colour_Asymmetry_Pilot,2022.1.3,Win32,60.16847172,62c50e9c1127f2cd403a315f,0,98,98,125,1,threefour,,,,,,,,,,,,,,,,,,,,,,,,,,,,,,,,,,,,,,,,,,,,,,,,,,,,,,,,,,,,,,,,,,,,,,,,,,,,,,,,,,,,,,,,,,,,,,,,,,,,,,,,,,,,,,,,,,,,,,,,,,,,,,,,,,,,,,,,,,,,,,,,,,,,,,,,,,,,,
,,,,,,60e5bae47d73a213b5189148,62c539bfaeca55441460b844,2022-07-06_19h29.33.779,Colour_Asymmetry_Pilot,2022.1.3,Win32,60.16847172,62c50e9c1127f2cd403a315f,0,99,99,91,1,twofour,,,,,,,,,,,,,,,,,,,,,,,,,,,,,,,,,,,,,,,,,,,,,,,,,,,,,,,,,,,,,,,,,,,,,,,,,,,,,,,,,,,,,,,,,,,,,,,,,,,,,,,,,,,,,,,,,,,,,,,,,,,,,,,,,,,,,,,,,,,,,,,,,,,,,,,,,,,,,
,,,,,,60e5bae47d73a213b5189148,62c539bfaeca55441460b844,2022-07-06_19h29.33.779,Colour_Asymmetry_Pilot,2022.1.3,Win32,60.16847172,62c50e9c1127f2cd403a315f,0,100,100,101,1,threefour,,,,,,,,,,,,,,,,,,,,,,,,,,,,,,,,,,,,,,,,,,,,,,,,,,,,,,,,,,,,,,,,,,,,,,,,,,,,,,,,,,,,,,,,,,,,,,,,,,,,,,,,,,,,,,,,,,,,,,,,,,,,,,,,,,,,,,,,,,,,,,,,,,,,,,,,,,,,,
,,,,,,60e5bae47d73a213b5189148,62c539bfaeca55441460b844,2022-07-06_19h29.33.779,Colour_Asymmetry_Pilot,2022.1.3,Win32,60.16847172,62c50e9c1127f2cd403a315f,0,101,101,113,1,onethree,,,,,,,,,,,,,,,,,,,,,,,,,,,,,,,,,,,,,,,,,,,,,,,,,,,,,,,,,,,,,,,,,,,,,,,,,,,,,,,,,,,,,,,,,,,,,,,,,,,,,,,,,,,,,,,,,,,,,,,,,,,,,,,,,,,,,,,,,,,,,,,,,,,,,,,,,,,,,
,,,,,,60e5bae47d73a213b5189148,62c539bfaeca55441460b844,2022-07-06_19h29.33.779,Colour_Asymmetry_Pilot,2022.1.3,Win32,60.16847172,62c50e9c1127f2cd403a315f,0,102,102,96,1,onetwo,,,,,,,,,,,,,,,,,,,,,,,,,,,,,,,,,,,,,,,,,,,,,,,,,,,,,,,,,,,,,,,,,,,,,,,,,,,,,,,,,,,,,,,,,,,,,,,,,,,,,,,,,,,,,,,,,,,,,,,,,,,,,,,,,,,,,,,,,,,,,,,,,,,,,,,,,,,,,
,,,,,,60e5bae47d73a213b5189148,62c539bfaeca55441460b844,2022-07-06_19h29.33.779,Colour_Asymmetry_Pilot,2022.1.3,Win32,60.16847172,62c50e9c1127f2cd403a315f,0,103,103,14,1,fourtwo,,,,,,,,,,,,,,,,,,,,,,,,,,,,,,,,,,,,,,,,,,,,,,,,,,,,,,,,,,,,,,,,,,,,,,,,,,,,,,,,,,,,,,,,,,,,,,,,,,,,,,,,,,,,,,,,,,,,,,,,,,,,,,,,,,,,,,,,,,,,,,,,,,,,,,,,,,,,,
,,,,,,60e5bae47d73a213b5189148,62c539bfaeca55441460b844,2022-07-06_19h29.33.779,Colour_Asymmetry_Pilot,2022.1.3,Win32,60.16847172,62c50e9c1127f2cd403a315f,0,104,104,79,1,fourthree,,,,,,,,,,,,,,,,,,,,,,,,,,,,,,,,,,,,,,,,,,,,,,,,,,,,,,,,,,,,,,,,,,,,,,,,,,,,,,,,,,,,,,,,,,,,,,,,,,,,,,,,,,,,,,,,,,,,,,,,,,,,,,,,,,,,,,,,,,,,,,,,,,,,,,,,,,,,,
,,,,,,60e5bae47d73a213b5189148,62c539bfaeca55441460b844,2022-07-06_19h29.33.779,Colour_Asymmetry_Pilot,2022.1.3,Win32,60.16847172,62c50e9c1127f2cd403a315f,0,105,105,103,1,fourthree,,,,,,,,,,,,,,,,,,,,,,,,,,,,,,,,,,,,,,,,,,,,,,,,,,,,,,,,,,,,,,,,,,,,,,,,,,,,,,,,,,,,,,,,,,,,,,,,,,,,,,,,,,,,,,,,,,,,,,,,,,,,,,,,,,,,,,,,,,,,,,,,,,,,,,,,,,,,,
,,,,,,60e5bae47d73a213b5189148,62c539bfaeca55441460b844,2022-07-06_19h29.33.779,Colour_Asymmetry_Pilot,2022.1.3,Win32,60.16847172,62c50e9c1127f2cd403a315f,0,106,106,159,1,fourthree,,,,,,,,,,,,,,,,,,,,,,,,,,,,,,,,,,,,,,,,,,,,,,,,,,,,,,,,,,,,,,,,,,,,,,,,,,,,,,,,,,,,,,,,,,,,,,,,,,,,,,,,,,,,,,,,,,,,,,,,,,,,,,,,,,,,,,,,,,,,,,,,,,,,,,,,,,,,,
,,,,,,60e5bae47d73a213b5189148,62c539bfaeca55441460b844,2022-07-06_19h29.33.779,Colour_Asymmetry_Pilot,2022.1.3,Win32,60.16847172,62c50e9c1127f2cd403a315f,0,107,107,78,1,fourtwo,,,,,,,,,,,,,,,,,,,,,,,,,,,,,,,,,,,,,,,,,,,,,,,,,,,,,,,,,,,,,,,,,,,,,,,,,,,,,,,,,,,,,,,,,,,,,,,,,,,,,,,,,,,,,,,,,,,,,,,,,,,,,,,,,,,,,,,,,,,,,,,,,,,,,,,,,,,,,
,,,,,,60e5bae47d73a213b5189148,62c539bfaeca55441460b844,2022-07-06_19h29.33.779,Colour_Asymmetry_Pilot,2022.1.3,Win32,60.16847172,62c50e9c1127f2cd403a315f,0,108,108,70,1,fourtwo,,,,,,,,,,,,,,,,,,,,,,,,,,,,,,,,,,,,,,,,,,,,,,,,,,,,,,,,,,,,,,,,,,,,,,,,,,,,,,,,,,,,,,,,,,,,,,,,,,,,,,,,,,,,,,,,,,,,,,,,,,,,,,,,,,,,,,,,,,,,,,,,,,,,,,,,,,,,,
,,,,,,60e5bae47d73a213b5189148,62c539bfaeca55441460b844,2022-07-06_19h29.33.779,Colour_Asymmetry_Pilot,2022.1.3,Win32,60.16847172,62c50e9c1127f2cd403a315f,0,109,109,71,1,fourthree,,,,,,,,,,,,,,,,,,,,,,,,,,,,,,,,,,,,,,,,,,,,,,,,,,,,,,,,,,,,,,,,,,,,,,,,,,,,,,,,,,,,,,,,,,,,,,,,,,,,,,,,,,,,,,,,,,,,,,,,,,,,,,,,,,,,,,,,,,,,,,,,,,,,,,,,,,,,,
,,,,,,60e5bae47d73a213b5189148,62c539bfaeca55441460b844,2022-07-06_19h29.33.779,Colour_Asymmetry_Pilot,2022.1.3,Win32,60.16847172,62c50e9c1127f2cd403a315f,0,110,110,6,1,fourtwo,,,,,,,,,,,,,,,,,,,,,,,,,,,,,,,,,,,,,,,,,,,,,,,,,,,,,,,,,,,,,,,,,,,,,,,,,,,,,,,,,,,,,,,,,,,,,,,,,,,,,,,,,,,,,,,,,,,,,,,,,,,,,,,,,,,,,,,,,,,,,,,,,,,,,,,,,,,,,
,,,,,,60e5bae47d73a213b5189148,62c539bfaeca55441460b844,2022-07-06_19h29.33.779,Colour_Asymmetry_Pilot,2022.1.3,Win32,60.16847172,62c50e9c1127f2cd403a315f,0,111,111,102,1,fourtwo,,,,,,,,,,,,,,,,,,,,,,,,,,,,,,,,,,,,,,,,,,,,,,,,,,,,,,,,,,,,,,,,,,,,,,,,,,,,,,,,,,,,,,,,,,,,,,,,,,,,,,,,,,,,,,,,,,,,,,,,,,,,,,,,,,,,,,,,,,,,,,,,,,,,,,,,,,,,,
,,,,,,60e5bae47d73a213b5189148,62c539bfaeca55441460b844,2022-07-06_19h29.33.779,Colour_Asymmetry_Pilot,2022.1.3,Win32,60.16847172,62c50e9c1127f2cd403a315f,0,112,112,2,1,twoone,,,,,,,,,,,,,,,,,,,,,,,,,,,,,,,,,,,,,,,,,,,,,,,,,,,,,,,,,,,,,,,,,,,,,,,,,,,,,,,,,,,,,,,,,,,,,,,,,,,,,,,,,,,,,,,,,,,,,,,,,,,,,,,,,,,,,,,,,,,,,,,,,,,,,,,,,,,,,
,,,,,,60e5bae47d73a213b5189148,62c539bfaeca55441460b844,2022-07-06_19h29.33.779,Colour_Asymmetry_Pilot,2022.1.3,Win32,60.16847172,62c50e9c1127f2cd403a315f,0,113,113,115,1,twofour,,,,,,,,,,,,,,,,,,,,,,,,,,,,,,,,,,,,,,,,,,,,,,,,,,,,,,,,,,,,,,,,,,,,,,,,,,,,,,,,,,,,,,,,,,,,,,,,,,,,,,,,,,,,,,,,,,,,,,,,,,,,,,,,,,,,,,,,,,,,,,,,,,,,,,,,,,,,,
,,,,,,60e5bae47d73a213b5189148,62c539bfaeca55441460b844,2022-07-06_19h29.33.779,Colour_Asymmetry_Pilot,2022.1.3,Win32,60.16847172,62c50e9c1127f2cd403a315f,0,114,114,97,1,onethree,,,,,,,,,,,,,,,,,,,,,,,,,,,,,,,,,,,,,,,,,,,,,,,,,,,,,,,,,,,,,,,,,,,,,,,,,,,,,,,,,,,,,,,,,,,,,,,,,,,,,,,,,,,,,,,,,,,,,,,,,,,,,,,,,,,,,,,,,,,,,,,,,,,,,,,,,,,,,
,,,,,,60e5bae47d73a213b5189148,62c539bfaeca55441460b844,2022-07-06_19h29.33.779,Colour_Asymmetry_Pilot,2022.1.3,Win32,60.16847172,62c50e9c1127f2cd403a315f,0,115,115,27,1,twofour,,,,,,,,,,,,,,,,,,,,,,,,,,,,,,,,,,,,,,,,,,,,,,,,,,,,,,,,,,,,,,,,,,,,,,,,,,,,,,,,,,,,,,,,,,,,,,,,,,,,,,,,,,,,,,,,,,,,,,,,,,,,,,,,,,,,,,,,,,,,,,,,,,,,,,,,,,,,,
,,,,,,60e5bae47d73a213b5189148,62c539bfaeca55441460b844,2022-07-06_19h29.33.779,Colour_Asymmetry_Pilot,2022.1.3,Win32,60.16847172,62c50e9c1127f2cd403a315f,0,116,116,33,1,onethree,,,,,,,,,,,,,,,,,,,,,,,,,,,,,,,,,,,,,,,,,,,,,,,,,,,,,,,,,,,,,,,,,,,,,,,,,,,,,,,,,,,,,,,,,,,,,,,,,,,,,,,,,,,,,,,,,,,,,,,,,,,,,,,,,,,,,,,,,,,,,,,,,,,,,,,,,,,,,
,,,,,,60e5bae47d73a213b5189148,62c539bfaeca55441460b844,2022-07-06_19h29.33.779,Colour_Asymmetry_Pilot,2022.1.3,Win32,60.16847172,62c50e9c1127f2cd403a315f,0,117,117,29,1,threefour,,,,,,,,,,,,,,,,,,,,,,,,,,,,,,,,,,,,,,,,,,,,,,,,,,,,,,,,,,,,,,,,,,,,,,,,,,,,,,,,,,,,,,,,,,,,,,,,,,,,,,,,,,,,,,,,,,,,,,,,,,,,,,,,,,,,,,,,,,,,,,,,,,,,,,,,,,,,,
,,,,,,60e5bae47d73a213b5189148,62c539bfaeca55441460b844,2022-07-06_19h29.33.779,Colour_Asymmetry_Pilot,2022.1.3,Win32,60.16847172,62c50e9c1127f2cd403a315f,0,118,118,92,1,threeone,,,,,,,,,,,,,,,,,,,,,,,,,,,,,,,,,,,,,,,,,,,,,,,,,,,,,,,,,,,,,,,,,,,,,,,,,,,,,,,,,,,,,,,,,,,,,,,,,,,,,,,,,,,,,,,,,,,,,,,,,,,,,,,,,,,,,,,,,,,,,,,,,,,,,,,,,,,,,
,,,,,,60e5bae47d73a213b5189148,62c539bfaeca55441460b844,2022-07-06_19h29.33.779,Colour_Asymmetry_Pilot,2022.1.3,Win32,60.16847172,62c50e9c1127f2cd403a315f,0,119,119,122,1,twoone,,,,,,,,,,,,,,,,,,,,,,,,,,,,,,,,,,,,,,,,,,,,,,,,,,,,,,,,,,,,,,,,,,,,,,,,,,,,,,,,,,,,,,,,,,,,,,,,,,,,,,,,,,,,,,,,,,,,,,,,,,,,,,,,,,,,,,,,,,,,,,,,,,,,,,,,,,,,,
,,,,,,60e5bae47d73a213b5189148,62c539bfaeca55441460b844,2022-07-06_19h29.33.779,Colour_Asymmetry_Pilot,2022.1.3,Win32,60.16847172,62c50e9c1127f2cd403a315f,0,120,120,85,1,threefour,,,,,,,,,,,,,,,,,,,,,,,,,,,,,,,,,,,,,,,,,,,,,,,,,,,,,,,,,,,,,,,,,,,,,,,,,,,,,,,,,,,,,,,,,,,,,,,,,,,,,,,,,,,,,,,,,,,,,,,,,,,,,,,,,,,,,,,,,,,,,,,,,,,,,,,,,,,,,
,,,,,,60e5bae47d73a213b5189148,62c539bfaeca55441460b844,2022-07-06_19h29.33.779,Colour_Asymmetry_Pilot,2022.1.3,Win32,60.16847172,62c50e9c1127f2cd403a315f,0,121,121,41,1,onethree,,,,,,,,,,,,,,,,,,,,,,,,,,,,,,,,,,,,,,,,,,,,,,,,,,,,,,,,,,,,,,,,,,,,,,,,,,,,,,,,,,,,,,,,,,,,,,,,,,,,,,,,,,,,,,,,,,,,,,,,,,,,,,,,,,,,,,,,,,,,,,,,,,,,,,,,,,,,,
,,,,,,60e5bae47d73a213b5189148,62c539bfaeca55441460b844,2022-07-06_19h29.33.779,Colour_Asymmetry_Pilot,2022.1.3,Win32,60.16847172,62c50e9c1127f2cd403a315f,0,122,122,128,1,onetwo,,,,,,,,,,,,,,,,,,,,,,,,,,,,,,,,,,,,,,,,,,,,,,,,,,,,,,,,,,,,,,,,,,,,,,,,,,,,,,,,,,,,,,,,,,,,,,,,,,,,,,,,,,,,,,,,,,,,,,,,,,,,,,,,,,,,,,,,,,,,,,,,,,,,,,,,,,,,,
,,,,,,60e5bae47d73a213b5189148,62c539bfaeca55441460b844,2022-07-06_19h29.33.779,Colour_Asymmetry_Pilot,2022.1.3,Win32,60.16847172,62c50e9c1127f2cd403a315f,0,123,123,116,1,threeone,,,,,,,,,,,,,,,,,,,,,,,,,,,,,,,,,,,,,,,,,,,,,,,,,,,,,,,,,,,,,,,,,,,,,,,,,,,,,,,,,,,,,,,,,,,,,,,,,,,,,,,,,,,,,,,,,,,,,,,,,,,,,,,,,,,,,,,,,,,,,,,,,,,,,,,,,,,,,
,,,,,,60e5bae47d73a213b5189148,62c539bfaeca55441460b844,2022-07-06_19h29.33.779,Colour_Asymmetry_Pilot,2022.1.3,Win32,60.16847172,62c50e9c1127f2cd403a315f,0,124,124,37,1,threefour,,,,,,,,,,,,,,,,,,,,,,,,,,,,,,,,,,,,,,,,,,,,,,,,,,,,,,,,,,,,,,,,,,,,,,,,,,,,,,,,,,,,,,,,,,,,,,,,,,,,,,,,,,,,,,,,,,,,,,,,,,,,,,,,,,,,,,,,,,,,,,,,,,,,,,,,,,,,,
,,,,,,60e5bae47d73a213b5189148,62c539bfaeca55441460b844,2022-07-06_19h29.33.779,Colour_Asymmetry_Pilot,2022.1.3,Win32,60.16847172,62c50e9c1127f2cd403a315f,0,125,125,124,1,threeone,,,,,,,,,,,,,,,,,,,,,,,,,,,,,,,,,,,,,,,,,,,,,,,,,,,,,,,,,,,,,,,,,,,,,,,,,,,,,,,,,,,,,,,,,,,,,,,,,,,,,,,,,,,,,,,,,,,,,,,,,,,,,,,,,,,,,,,,,,,,,,,,,,,,,,,,,,,,,
,,,,,,60e5bae47d73a213b5189148,62c539bfaeca55441460b844,2022-07-06_19h29.33.779,Colour_Asymmetry_Pilot,2022.1.3,Win32,60.16847172,62c50e9c1127f2cd403a315f,0,126,126,83,1,twofour,,,,,,,,,,,,,,,,,,,,,,,,,,,,,,,,,,,,,,,,,,,,,,,,,,,,,,,,,,,,,,,,,,,,,,,,,,,,,,,,,,,,,,,,,,,,,,,,,,,,,,,,,,,,,,,,,,,,,,,,,,,,,,,,,,,,,,,,,,,,,,,,,,,,,,,,,,,,,
,,,,,,60e5bae47d73a213b5189148,62c539bfaeca55441460b844,2022-07-06_19h29.33.779,Colour_Asymmetry_Pilot,2022.1.3,Win32,60.16847172,62c50e9c1127f2cd403a315f,0,127,127,46,1,fourtwo,,,,,,,,,,,,,,,,,,,,,,,,,,,,,,,,,,,,,,,,,,,,,,,,,,,,,,,,,,,,,,,,,,,,,,,,,,,,,,,,,,,,,,,,,,,,,,,,,,,,,,,,,,,,,,,,,,,,,,,,,,,,,,,,,,,,,,,,,,,,,,,,,,,,,,,,,,,,,
,,,,,,60e5bae47d73a213b5189148,62c539bfaeca55441460b844,2022-07-06_19h29.33.779,Colour_Asymmetry_Pilot,2022.1.3,Win32,60.16847172,62c50e9c1127f2cd403a315f,0,128,128,118,1,fourtwo,,,,,,,,,,,,,,,,,,,,,,,,,,,,,,,,,,,,,,,,,,,,,,,,,,,,,,,,,,,,,,,,,,,,,,,,,,,,,,,,,,,,,,,,,,,,,,,,,,,,,,,,,,,,,,,,,,,,,,,,,,,,,,,,,,,,,,,,,,,,,,,,,,,,,,,,,,,,,
,,,,,,60e5bae47d73a213b5189148,62c539bfaeca55441460b844,2022-07-06_19h29.33.779,Colour_Asymmetry_Pilot,2022.1.3,Win32,60.16847172,62c50e9c1127f2cd403a315f,0,129,129,110,1,fourtwo,,,,,,,,,,,,,,,,,,,,,,,,,,,,,,,,,,,,,,,,,,,,,,,,,,,,,,,,,,,,,,,,,,,,,,,,,,,,,,,,,,,,,,,,,,,,,,,,,,,,,,,,,,,,,,,,,,,,,,,,,,,,,,,,,,,,,,,,,,,,,,,,,,,,,,,,,,,,,
,,,,,,60e5bae47d73a213b5189148,62c539bfaeca55441460b844,2022-07-06_19h29.33.779,Colour_Asymmetry_Pilot,2022.1.3,Win32,60.16847172,62c50e9c1127f2cd403a315f,0,130,130,86,1,fourtwo,,,,,,,,,,,,,,,,,,,,,,,,,,,,,,,,,,,,,,,,,,,,,,,,,,,,,,,,,,,,,,,,,,,,,,,,,,,,,,,,,,,,,,,,,,,,,,,,,,,,,,,,,,,,,,,,,,,,,,,,,,,,,,,,,,,,,,,,,,,,,,,,,,,,,,,,,,,,,
,,,,,,60e5bae47d73a213b5189148,62c539bfaeca55441460b844,2022-07-06_19h29.33.779,Colour_Asymmetry_Pilot,2022.1.3,Win32,60.16847172,62c50e9c1127f2cd403a315f,0,131,131,87,1,fourthree,,,,,,,,,,,,,,,,,,,,,,,,,,,,,,,,,,,,,,,,,,,,,,,,,,,,,,,,,,,,,,,,,,,,,,,,,,,,,,,,,,,,,,,,,,,,,,,,,,,,,,,,,,,,,,,,,,,,,,,,,,,,,,,,,,,,,,,,,,,,,,,,,,,,,,,,,,,,,
,,,,,,60e5bae47d73a213b5189148,62c539bfaeca55441460b844,2022-07-06_19h29.33.779,Colour_Asymmetry_Pilot,2022.1.3,Win32,60.16847172,62c50e9c1127f2cd403a315f,0,132,132,148,1,threeone,,,,,,,,,,,,,,,,,,,,,,,,,,,,,,,,,,,,,,,,,,,,,,,,,,,,,,,,,,,,,,,,,,,,,,,,,,,,,,,,,,,,,,,,,,,,,,,,,,,,,,,,,,,,,,,,,,,,,,,,,,,,,,,,,,,,,,,,,,,,,,,,,,,,,,,,,,,,,
,,,,,,60e5bae47d73a213b5189148,62c539bfaeca55441460b844,2022-07-06_19h29.33.779,Colour_Asymmetry_Pilot,2022.1.3,Win32,60.16847172,62c50e9c1127f2cd403a315f,0,133,133,59,1,twofour,,,,,,,,,,,,,,,,,,,,,,,,,,,,,,,,,,,,,,,,,,,,,,,,,,,,,,,,,,,,,,,,,,,,,,,,,,,,,,,,,,,,,,,,,,,,,,,,,,,,,,,,,,,,,,,,,,,,,,,,,,,,,,,,,,,,,,,,,,,,,,,,,,,,,,,,,,,,,
,,,,,,60e5bae47d73a213b5189148,62c539bfaeca55441460b844,2022-07-06_19h29.33.779,Colour_Asymmetry_Pilot,2022.1.3,Win32,60.16847172,62c50e9c1127f2cd403a315f,0,134,134,18,1,twoone,,,,,,,,,,,,,,,,,,,,,,,,,,,,,,,,,,,,,,,,,,,,,,,,,,,,,,,,,,,,,,,,,,,,,,,,,,,,,,,,,,,,,,,,,,,,,,,,,,,,,,,,,,,,,,,,,,,,,,,,,,,,,,,,,,,,,,,,,,,,,,,,,,,,,,,,,,,,,
,,,,,,60e5bae47d73a213b5189148,62c539bfaeca55441460b844,2022-07-06_19h29.33.779,Colour_Asymmetry_Pilot,2022.1.3,Win32,60.16847172,62c50e9c1127f2cd403a315f,0,135,135,138,1,twoone,,,,,,,,,,,,,,,,,,,,,,,,,,,,,,,,,,,,,,,,,,,,,,,,,,,,,,,,,,,,,,,,,,,,,,,,,,,,,,,,,,,,,,,,,,,,,,,,,,,,,,,,,,,,,,,,,,,,,,,,,,,,,,,,,,,,,,,,,,,,,,,,,,,,,,,,,,,,,
,,,,,,60e5bae47d73a213b5189148,62c539bfaeca55441460b844,2022-07-06_19h29.33.779,Colour_Asymmetry_Pilot,2022.1.3,Win32,60.16847172,62c50e9c1127f2cd403a315f,0,136,136,153,1,onethree,,,,,,,,,,,,,,,,,,,,,,,,,,,,,,,,,,,,,,,,,,,,,,,,,,,,,,,,,,,,,,,,,,,,,,,,,,,,,,,,,,,,,,,,,,,,,,,,,,,,,,,,,,,,,,,,,,,,,,,,,,,,,,,,,,,,,,,,,,,,,,,,,,,,,,,,,,,,,
,,,,,,60e5bae47d73a213b5189148,62c539bfaeca55441460b844,2022-07-06_19h29.33.779,Colour_Asymmetry_Pilot,2022.1.3,Win32,60.16847172,62c50e9c1127f2cd403a315f,0,137,137,24,1,onetwo,,,,,,,,,,,,,,,,,,,,,,,,,,,,,,,,,,,,,,,,,,,,,,,,,,,,,,,,,,,,,,,,,,,,,,,,,,,,,,,,,,,,,,,,,,,,,,,,,,,,,,,,,,,,,,,,,,,,,,,,,,,,,,,,,,,,,,,,,,,,,,,,,,,,,,,,,,,,,
,,,,,,60e5bae47d73a213b5189148,62c539bfaeca55441460b844,2022-07-06_19h29.33.779,Colour_Asymmetry_Pilot,2022.1.3,Win32,60.16847172,62c50e9c1127f2cd403a315f,0,138,138,23,1,fourthree,,,,,,,,,,,,,,,,,,,,,,,,,,,,,,,,,,,,,,,,,,,,,,,,,,,,,,,,,,,,,,,,,,,,,,,,,,,,,,,,,,,,,,,,,,,,,,,,,,,,,,,,,,,,,,,,,,,,,,,,,,,,,,,,,,,,,,,,,,,,,,,,,,,,,,,,,,,,,
,,,,,,60e5bae47d73a213b5189148,62c539bfaeca55441460b844,2022-07-06_19h29.33.779,Colour_Asymmetry_Pilot,2022.1.3,Win32,60.16847172,62c50e9c1127f2cd403a315f,0,139,139,30,1,fourtwo,,,,,,,,,,,,,,,,,,,,,,,,,,,,,,,,,,,,,,,,,,,,,,,,,,,,,,,,,,,,,,,,,,,,,,,,,,,,,,,,,,,,,,,,,,,,,,,,,,,,,,,,,,,,,,,,,,,,,,,,,,,,,,,,,,,,,,,,,,,,,,,,,,,,,,,,,,,,,
,,,,,,60e5bae47d73a213b5189148,62c539bfaeca55441460b844,2022-07-06_19h29.33.779,Colour_Asymmetry_Pilot,2022.1.3,Win32,60.16847172,62c50e9c1127f2cd403a315f,0,140,140,157,1,threefour,,,,,,,,,,,,,,,,,,,,,,,,,,,,,,,,,,,,,,,,,,,,,,,,,,,,,,,,,,,,,,,,,,,,,,,,,,,,,,,,,,,,,,,,,,,,,,,,,,,,,,,,,,,,,,,,,,,,,,,,,,,,,,,,,,,,,,,,,,,,,,,,,,,,,,,,,,,,,
,,,,,,60e5bae47d73a213b5189148,62c539bfaeca55441460b844,2022-07-06_19h29.33.779,Colour_Asymmetry_Pilot,2022.1.3,Win32,60.16847172,62c50e9c1127f2cd403a315f,0,141,141,77,1,threefour,,,,,,,,,,,,,,,,,,,,,,,,,,,,,,,,,,,,,,,,,,,,,,,,,,,,,,,,,,,,,,,,,,,,,,,,,,,,,,,,,,,,,,,,,,,,,,,,,,,,,,,,,,,,,,,,,,,,,,,,,,,,,,,,,,,,,,,,,,,,,,,,,,,,,,,,,,,,,
,,,,,,60e5bae47d73a213b5189148,62c539bfaeca55441460b844,2022-07-06_19h29.33.779,Colour_Asymmetry_Pilot,2022.1.3,Win32,60.16847172,62c50e9c1127f2cd403a315f,0,142,142,53,1,threefour,,,,,,,,,,,,,,,,,,,,,,,,,,,,,,,,,,,,,,,,,,,,,,,,,,,,,,,,,,,,,,,,,,,,,,,,,,,,,,,,,,,,,,,,,,,,,,,,,,,,,,,,,,,,,,,,,,,,,,,,,,,,,,,,,,,,,,,,,,,,,,,,,,,,,,,,,,,,,
,,,,,,60e5bae47d73a213b5189148,62c539bfaeca55441460b844,2022-07-06_19h29.33.779,Colour_Asymmetry_Pilot,2022.1.3,Win32,60.16847172,62c50e9c1127f2cd403a315f,0,143,143,90,1,twoone,,,,,,,,,,,,,,,,,,,,,,,,,,,,,,,,,,,,,,,,,,,,,,,,,,,,,,,,,,,,,,,,,,,,,,,,,,,,,,,,,,,,,,,,,,,,,,,,,,,,,,,,,,,,,,,,,,,,,,,,,,,,,,,,,,,,,,,,,,,,,,,,,,,,,,,,,,,,,
,,,,,,60e5bae47d73a213b5189148,62c539bfaeca55441460b844,2022-07-06_19h29.33.779,Colour_Asymmetry_Pilot,2022.1.3,Win32,60.16847172,62c50e9c1127f2cd403a315f,0,144,144,48,1,onetwo,,,,,,,,,,,,,,,,,,,,,,,,,,,,,,,,,,,,,,,,,,,,,,,,,,,,,,,,,,,,,,,,,,,,,,,,,,,,,,,,,,,,,,,,,,,,,,,,,,,,,,,,,,,,,,,,,,,,,,,,,,,,,,,,,,,,,,,,,,,,,,,,,,,,,,,,,,,,,
,,,,,,60e5bae47d73a213b5189148,62c539bfaeca55441460b844,2022-07-06_19h29.33.779,Colour_Asymmetry_Pilot,2022.1.3,Win32,60.16847172,62c50e9c1127f2cd403a315f,0,145,145,39,1,fourthree,,,,,,,,,,,,,,,,,,,,,,,,,,,,,,,,,,,,,,,,,,,,,,,,,,,,,,,,,,,,,,,,,,,,,,,,,,,,,,,,,,,,,,,,,,,,,,,,,,,,,,,,,,,,,,,,,,,,,,,,,,,,,,,,,,,,,,,,,,,,,,,,,,,,,,,,,,,,,
,,,,,,60e5bae47d73a213b5189148,62c539bfaeca55441460b844,2022-07-06_19h29.33.779,Colour_Asymmetry_Pilot,2022.1.3,Win32,60.16847172,62c50e9c1127f2cd403a315f,0,146,146,12,1,threeone,,,,,,,,,,,,,,,,,,,,,,,,,,,,,,,,,,,,,,,,,,,,,,,,,,,,,,,,,,,,,,,,,,,,,,,,,,,,,,,,,,,,,,,,,,,,,,,,,,,,,,,,,,,,,,,,,,,,,,,,,,,,,,,,,,,,,,,,,,,,,,,,,,,,,,,,,,,,,
,,,,,,60e5bae47d73a213b5189148,62c539bfaeca55441460b844,2022-07-06_19h29.33.779,Colour_Asymmetry_Pilot,2022.1.3,Win32,60.16847172,62c50e9c1127f2cd403a315f,0,147,147,11,1,twofour,,,,,,,,,,,,,,,,,,,,,,,,,,,,,,,,,,,,,,,,,,,,,,,,,,,,,,,,,,,,,,,,,,,,,,,,,,,,,,,,,,,,,,,,,,,,,,,,,,,,,,,,,,,,,,,,,,,,,,,,,,,,,,,,,,,,,,,,,,,,,,,,,,,,,,,,,,,,,
,,,,,,60e5bae47d73a213b5189148,62c539bfaeca55441460b844,2022-07-06_19h29.33.779,Colour_Asymmetry_Pilot,2022.1.3,Win32,60.16847172,62c50e9c1127f2cd403a315f,0,148,148,120,1,onetwo,,,,,,,,,,,,,,,,,,,,,,,,,,,,,,,,,,,,,,,,,,,,,,,,,,,,,,,,,,,,,,,,,,,,,,,,,,,,,,,,,,,,,,,,,,,,,,,,,,,,,,,,,,,,,,,,,,,,,,,,,,,,,,,,,,,,,,,,,,,,,,,,,,,,,,,,,,,,,
,,,,,,60e5bae47d73a213b5189148,62c539bfaeca55441460b844,2022-07-06_19h29.33.779,Colour_Asymmetry_Pilot,2022.1.3,Win32,60.16847172,62c50e9c1127f2cd403a315f,0,149,149,74,1,twoone,,,,,,,,,,,,,,,,,,,,,,,,,,,,,,,,,,,,,,,,,,,,,,,,,,,,,,,,,,,,,,,,,,,,,,,,,,,,,,,,,,,,,,,,,,,,,,,,,,,,,,,,,,,,,,,,,,,,,,,,,,,,,,,,,,,,,,,,,,,,,,,,,,,,,,,,,,,,,
,,,,,,60e5bae47d73a213b5189148,62c539bfaeca55441460b844,2022-07-06_19h29.33.779,Colour_Asymmetry_Pilot,2022.1.3,Win32,60.16847172,62c50e9c1127f2cd403a315f,0,150,150,68,1,threeone,,,,,,,,,,,,,,,,,,,,,,,,,,,,,,,,,,,,,,,,,,,,,,,,,,,,,,,,,,,,,,,,,,,,,,,,,,,,,,,,,,,,,,,,,,,,,,,,,,,,,,,,,,,,,,,,,,,,,,,,,,,,,,,,,,,,,,,,,,,,,,,,,,,,,,,,,,,,,
,,,,,,60e5bae47d73a213b5189148,62c539bfaeca55441460b844,2022-07-06_19h29.33.779,Colour_Asymmetry_Pilot,2022.1.3,Win32,60.16847172,62c50e9c1127f2cd403a315f,0,151,151,82,1,twoone,,,,,,,,,,,,,,,,,,,,,,,,,,,,,,,,,,,,,,,,,,,,,,,,,,,,,,,,,,,,,,,,,,,,,,,,,,,,,,,,,,,,,,,,,,,,,,,,,,,,,,,,,,,,,,,,,,,,,,,,,,,,,,,,,,,,,,,,,,,,,,,,,,,,,,,,,,,,,
,,,,,,60e5bae47d73a213b5189148,62c539bfaeca55441460b844,2022-07-06_19h29.33.779,Colour_Asymmetry_Pilot,2022.1.3,Win32,60.16847172,62c50e9c1127f2cd403a315f,0,152,152,106,1,twoone,,,,,,,,,,,,,,,,,,,,,,,,,,,,,,,,,,,,,,,,,,,,,,,,,,,,,,,,,,,,,,,,,,,,,,,,,,,,,,,,,,,,,,,,,,,,,,,,,,,,,,,,,,,,,,,,,,,,,,,,,,,,,,,,,,,,,,,,,,,,,,,,,,,,,,,,,,,,,
,,,,,,60e5bae47d73a213b5189148,62c539bfaeca55441460b844,2022-07-06_19h29.33.779,Colour_Asymmetry_Pilot,2022.1.3,Win32,60.16847172,62c50e9c1127f2cd403a315f,0,153,153,152,1,onetwo,,,,,,,,,,,,,,,,,,,,,,,,,,,,,,,,,,,,,,,,,,,,,,,,,,,,,,,,,,,,,,,,,,,,,,,,,,,,,,,,,,,,,,,,,,,,,,,,,,,,,,,,,,,,,,,,,,,,,,,,,,,,,,,,,,,,,,,,,,,,,,,,,,,,,,,,,,,,,
,,,,,,60e5bae47d73a213b5189148,62c539bfaeca55441460b844,2022-07-06_19h29.33.779,Colour_Asymmetry_Pilot,2022.1.3,Win32,60.16847172,62c50e9c1127f2cd403a315f,0,154,154,105,1,onethree,,,,,,,,,,,,,,,,,,,,,,,,,,,,,,,,,,,,,,,,,,,,,,,,,,,,,,,,,,,,,,,,,,,,,,,,,,,,,,,,,,,,,,,,,,,,,,,,,,,,,,,,,,,,,,,,,,,,,,,,,,,,,,,,,,,,,,,,,,,,,,,,,,,,,,,,,,,,,
,,,,,,60e5bae47d73a213b5189148,62c539bfaeca55441460b844,2022-07-06_19h29.33.779,Colour_Asymmetry_Pilot,2022.1.3,Win32,60.16847172,62c50e9c1127f2cd403a315f,0,155,155,61,1,threefour,,,,,,,,,,,,,,,,,,,,,,,,,,,,,,,,,,,,,,,,,,,,,,,,,,,,,,,,,,,,,,,,,,,,,,,,,,,,,,,,,,,,,,,,,,,,,,,,,,,,,,,,,,,,,,,,,,,,,,,,,,,,,,,,,,,,,,,,,,,,,,,,,,,,,,,,,,,,,
,,,,,,60e5bae47d73a213b5189148,62c539bfaeca55441460b844,2022-07-06_19h29.33.779,Colour_Asymmetry_Pilot,2022.1.3,Win32,60.16847172,62c50e9c1127f2cd403a315f,0,156,156,154,1,twoone,,,,,,,,,,,,,,,,,,,,,,,,,,,,,,,,,,,,,,,,,,,,,,,,,,,,,,,,,,,,,,,,,,,,,,,,,,,,,,,,,,,,,,,,,,,,,,,,,,,,,,,,,,,,,,,,,,,,,,,,,,,,,,,,,,,,,,,,,,,,,,,,,,,,,,,,,,,,,
,,,,,,60e5bae47d73a213b5189148,62c539bfaeca55441460b844,2022-07-06_19h29.33.779,Colour_Asymmetry_Pilot,2022.1.3,Win32,60.16847172,62c50e9c1127f2cd403a315f,0,157,157,111,1,fourthree,,,,,,,,,,,,,,,,,,,,,,,,,,,,,,,,,,,,,,,,,,,,,,,,,,,,,,,,,,,,,,,,,,,,,,,,,,,,,,,,,,,,,,,,,,,,,,,,,,,,,,,,,,,,,,,,,,,,,,,,,,,,,,,,,,,,,,,,,,,,,,,,,,,,,,,,,,,,,
,,,,,,60e5bae47d73a213b5189148,62c539bfaeca55441460b844,2022-07-06_19h29.33.779,Colour_Asymmetry_Pilot,2022.1.3,Win32,60.16847172,62c50e9c1127f2cd403a315f,0,158,158,32,1,onetwo,,,,,,,,,,,,,,,,,,,,,,,,,,,,,,,,,,,,,,,,,,,,,,,,,,,,,,,,,,,,,,,,,,,,,,,,,,,,,,,,,,,,,,,,,,,,,,,,,,,,,,,,,,,,,,,,,,,,,,,,,,,,,,,,,,,,,,,,,,,,,,,,,,,,,,,,,,,,,
,,,,,,60e5bae47d73a213b5189148,62c539bfaeca55441460b844,2022-07-06_19h29.33.779,Colour_Asymmetry_Pilot,2022.1.3,Win32,60.16847172,62c50e9c1127f2cd403a315f,0,159,159,47,1,fourthree,,,,,,,,,,,,,,,,,,,,,,,,,,,,,,,,,,,,,,,,,,,,,,,,,,,,,,,,,,,,,,,,,,,,,,,,,,,,,,,,,,,,,,,,,,,,,,,,,,,,,,,,,,,,,,,,,,,,,,,,,,,,,,,,,,,,,,,,,,,,,,,,,,,,,,,,,,,,,
,,,,,,60e5bae47d73a213b5189148,62c539bfaeca55441460b844,2022-07-06_19h29.33.779,Colour_Asymmetry_Pilot,2022.1.3,Win32,60.16847172,62c50e9c1127f2cd403a315f,0,160,160,156,1,threeone,,,,,,,,,,,,,,,,,,,,,,,,,,,,,,,,,,,,,,,,,,,,,,,,,,,,,,,,,,,,,,,,,,,,,,,,,,,,,,,,,,,,,,,,,,,,,,,,,,,,,,,,,,,,,,,,,,,,,,,,,,,,,,,,,,,,,,,,,,,,,,,,,,,,,,,,,,,,,
,,,,,,60e5bae47d73a213b5189148,62c539bfaeca55441460b844,2022-07-06_19h29.33.779,Colour_Asymmetry_Pilot,2022.1.3,Win32,60.16847172,62c50e9c1127f2cd403a315f,0,161,161,21,1,threefour,,,,,,,,,,,,,,,,,,,,,,,,,,,,,,,,,,,,,,,,,,,,,,,,,,,,,,,,,,,,,,,,,,,,,,,,,,,,,,,,,,,,,,,,,,,,,,,,,,,,,,,,,,,,,,,,,,,,,,,,,,,,,,,,,,,,,,,,,,,,,,,,,,,,,,,,,,,,,
,,,,,,60e5bae47d73a213b5189148,62c539bfaeca55441460b844,2022-07-06_19h29.33.779,Colour_Asymmetry_Pilot,2022.1.3,Win32,60.16847172,62c50e9c1127f2cd403a315f,,,,,,,space,3.928,space,4.702,space,49.923,space,9.62,space,8.04,space,4.015,"[-0.9688,-0.4902000000000001,-0.12159999999999993]",fourthree,"[-0.48240000000000005,0.3175999999999999,0.2156]",2,14.603,65,-49,1,0,0,response3disk_5,4,3,1,0,0,rectangle_8,37,76,1,0,0,response1disk_7,7,4,-3,2,1,0,0,rectangle_4,0,0,0,0,1,,,,,,,,,,,,,,,,,,,,,,,,,,,,,,,,,,,,,,,,,,,,,,,,,,,,,,,,,,,,,,,,,,,,,,,,,,,,,,,,,,,,,,,,,,,,,,,,,,,,,,,,,,,,,
,,,,,,60e5bae47d73a213b5189148,62c539bfaeca55441460b844,2022-07-06_19h29.33.779,Colour_Asymmetry_Pilot,2022.1.3,Win32,60.16847172,62c50e9c1127f2cd403a315f,,,,,,,,,,,,,,,,,,,"[-0.48240000000000005,0.3175999999999999,0.2156]",threeone,"[0.7802,-0.23140000000000005,-0.20799999999999996]",-4,6.378,-55,86,1,0,0,response7disk_5,-5,5,1,0,0,rectangle_8,-5,5,1,0,0,,,4,-5,5,1,0,0,,1,0,1,0,1,,,,,,,,,,,,,,,,,,,,,,,,,,,,,,,,,,,,,,,,,,,,,,,,,,,,,,,,,,,,,,,,,,,,,,,,,,,,,,,,,,,,,,,,,,,,,,,,,,,,,,,,,,,,,
,,,,,,60e5bae47d73a213b5189148,62c539bfaeca55441460b844,2022-07-06_19h29.33.779,Colour_Asymmetry_Pilot,2022.1.3,Win32,60.16847172,62c50e9c1127f2cd403a315f,,,,,,,,,,,,,,,,,,,"[-0.45899999999999996,-0.3256,-0.9374]",twofour,"[0.3802000000000001,0.19199999999999995,-0.6394]",-3,5.48,-107,53,1,0,0,response7disk_5,-23,-3,1,0,0,rectangle_8,47,78,1,0,0,response1disk_7,7,4,3,1,1,0,0,rectangle_4,2,0,2,0,1,,,,,,,,,,,,,,,,,,,,,,,,,,,,,,,,,,,,,,,,,,,,,,,,,,,,,,,,,,,,,,,,,,,,,,,,,,,,,,,,,,,,,,,,,,,,,,,,,,,,,,,,,,,,,
,,,,,,60e5bae47d73a213b5189148,62c539bfaeca55441460b844,2022-07-06_19h29.33.779,Colour_Asymmetry_Pilot,2022.1.3,Win32,60.16847172,62c50e9c1127f2cd403a315f,,,,,,,,,,,,,,,,,,,"[0.3881999999999999,-0.23939999999999995,-0.05040000000000011]",fourtwo,"[0.3881999999999999,-0.23939999999999995,-0.05040000000000011]",4,1.479,30,57,1,0,0,response1disk_5,-21,-3,1,0,0,rectangle_8,-21,-3,1,0,0,,,4,-21,-3,1,0,0,,3,0,3,0,1,,,,,,,,,,,,,,,,,,,,,,,,,,,,,,,,,,,,,,,,,,,,,,,,,,,,,,,,,,,,,,,,,,,,,,,,,,,,,,,,,,,,,,,,,,,,,,,,,,,,,,,,,,,,,
,,,,,,60e5bae47d73a213b5189148,62c539bfaeca55441460b844,2022-07-06_19h29.33.779,Colour_Asymmetry_Pilot,2022.1.3,Win32,60.16847172,62c50e9c1127f2cd403a315f,,,,,,,,,,,,,,,,,,,"[0.23920000000000008,0.2704,0.16060000000000008]",twoone,"[-0.24719999999999998,-0.0354000000000001,0.3175999999999999]",-3,3.572,-89,49,1,0,0,response7disk_5,0,5,1,0,0,rectangle_8,0,5,1,0,0,,,4,0,5,1,0,0,,4,0,4,0,1,,,,,,,,,,,,,,,,,,,,,,,,,,,,,,,,,,,,,,,,,,,,,,,,,,,,,,,,,,,,,,,,,,,,,,,,,,,,,,,,,,,,,,,,,,,,,,,,,,,,,,,,,,,,,
,,,,,,60e5bae47d73a213b5189148,62c539bfaeca55441460b844,2022-07-06_19h29.33.779,Colour_Asymmetry_Pilot,2022.1.3,Win32,60.16847172,62c50e9c1127f2cd403a315f,,,,,,,,,,,,,,,,,,,"[-0.4668,-0.8746,-0.2942]",threeone,"[-0.4276,0.0038000000000000256,-0.3256]",-4,2.939,-47,87,1,0,0,response7disk_5,3,-5,1,0,0,rectangle_8,3,-5,1,0,0,,,4,3,-5,1,0,0,,5,0,5,0,1,,,,,,,,,,,,,,,,,,,,,,,,,,,,,,,,,,,,,,,,,,,,,,,,,,,,,,,,,,,,,,,,,,,,,,,,,,,,,,,,,,,,,,,,,,,,,,,,,,,,,,,,,,,,,
,,,,,,60e5bae47d73a213b5189148,62c539bfaeca55441460b844,2022-07-06_19h29.33.779,Colour_Asymmetry_Pilot,2022.1.3,Win32,60.16847172,62c50e9c1127f2cd403a315f,,,,,,,,,,,,,,,,,,,"[-0.5452,-0.608,0.2470000000000001]",onethree,"[0.19199999999999995,0.18419999999999992,0.5136000000000001]",-2,3.64,-104,-37,1,0,0,response5disk_5,27,-7,1,0,0,rectangle_8,27,-7,1,0,0,,,4,27,-7,1,0,0,,6,0,6,0,1,,,,,,,,,,,,,,,,,,,,,,,,,,,,,,,,,,,,,,,,,,,,,,,,,,,,,,,,,,,,,,,,,,,,,,,,,,,,,,,,,,,,,,,,,,,,,,,,,,,,,,,,,,,,,
,,,,,,60e5bae47d73a213b5189148,62c539bfaeca55441460b844,2022-07-06_19h29.33.779,Colour_Asymmetry_Pilot,2022.1.3,Win32,60.16847172,62c50e9c1127f2cd403a315f,,,,,,,,,,,,,,,,,,,,twofour,,-4,1.495,,,,,,,,,,,,,,,,,,,,,,,,,,,,,,,,space,4.281,"[-0.4902000000000001,0.2704,-0.45899999999999996]","[0.22340000000000004,-0.9296,-0.7884]",-36,88,1,0,0,response7disk,-8,3,1,0,0,rectangle,-8,3,1,0,0,,1,0.004,0,-8,3,1,0,0,0,0,0,18,1,18,first,,,,,,,,,,,,,,,,,,,,,,,,,,,,,,,,,,,,,,,,,,,,,,,,,,,,,,,,,,,,,,,,,,,,,,,,
,,,,,,60e5bae47d73a213b5189148,62c539bfaeca55441460b844,2022-07-06_19h29.33.779,Colour_Asymmetry_Pilot,2022.1.3,Win32,60.16847172,62c50e9c1127f2cd403a315f,,,,,,,,,,,,,,,,,,,,onethree,,1,2.659,,,,,,,,,,,,,,,,,,,,,,,,,,,,,,,,,,"[0.9763999999999999,0.30979999999999985,-0.6786]","[0.37240000000000006,0.4980000000000002,-0.2864]",25,-77,1,0,0,response3disk,-3,-9,1,0,0,rectangle,-3,-9,1,0,0,,3,0.003,0,-3,-9,1,0,0,0,1,1,100,1,19,second,,,,,,,,,,,,,,,,,,,,,,,,,,,,,,,,,,,,,,,,,,,,,,,,,,,,,,,,,,,,,,,,,,,,,,,,
,,,,,,60e5bae47d73a213b5189148,62c539bfaeca55441460b844,2022-07-06_19h29.33.779,Colour_Asymmetry_Pilot,2022.1.3,Win32,60.16847172,62c50e9c1127f2cd403a315f,,,,,,,,,,,,,,,,,,,,threefour,,-3,1.811,,,,,,,,,,,,,,,,,,,,,,,,,,,,,,,,,,"[-0.24719999999999998,0.5213999999999999,-0.12959999999999994]","[-0.9216,-0.5529999999999999,-0.3962]",-103,39,1,0,0,response7disk,-9,-1,1,0,0,rectangle,-9,-1,1,0,0,,1,0.003,0,-9,-1,1,0,0,0,2,2,33,1,33,first,,,,,,,,,,,,,,,,,,,,,,,,,,,,,,,,,,,,,,,,,,,,,,,,,,,,,,,,,,,,,,,,,,,,,,,,
,,,,,,60e5bae47d73a213b5189148,62c539bfaeca55441460b844,2022-07-06_19h29.33.779,Colour_Asymmetry_Pilot,2022.1.3,Win32,60.16847172,62c50e9c1127f2cd403a315f,,,,,,,,,,,,,,,,,,,,twoone,,1,2.642,,,,,,,,,,,,,,,,,,,,,,,,,,,,,,,,,,"[0.04299999999999993,0.16060000000000008,-0.6628000000000001]","[-0.24719999999999998,0.5213999999999999,-0.12959999999999994]",37,-63,1,0,0,response3disk,-5,-1,1,0,0,rectangle,-5,-1,1,0,0,,1,0,0,-5,-1,1,0,0,0,3,3,82,1,1,second,,,,,,,,,,,,,,,,,,,,,,,,,,,,,,,,,,,,,,,,,,,,,,,,,,,,,,,,,,,,,,,,,,,,,,,,
,,,,,,60e5bae47d73a213b5189148,62c539bfaeca55441460b844,2022-07-06_19h29.33.779,Colour_Asymmetry_Pilot,2022.1.3,Win32,60.16847172,62c50e9c1127f2cd403a315f,,,,,,,,,,,,,,,,,,,,onethree,,-4,0.732,,,,,,,,,,,,,,,,,,,,,,,,,,,,,,,,,,"[0.2862,0.7802,0.3568]","[-0.6235999999999999,-0.6786,-0.08239999999999992]",-40,67,1,0,0,response7disk,-2,1,1,0,0,rectangle,-2,1,1,0,0,,1,0.001,0,-2,1,1,0,0,0,4,4,47,1,47,first,,,,,,,,,,,,,,,,,,,,,,,,,,,,,,,,,,,,,,,,,,,,,,,,,,,,,,,,,,,,,,,,,,,,,,,,
,,,,,,60e5bae47d73a213b5189148,62c539bfaeca55441460b844,2022-07-06_19h29.33.779,Colour_Asymmetry_Pilot,2022.1.3,Win32,60.16847172,62c50e9c1127f2cd403a315f,,,,,,,,,,,,,,,,,,,,twofour,,-4,2.109,,,,,,,,,,,,,,,,,,,,,,,,,,,,,,,,,,"[0.23920000000000008,0.2704,0.16060000000000008]","[0.12939999999999996,-0.2864,0.3253999999999999]",-39,81,1,0,0,response7disk,8,0,1,0,0,rectangle,8,0,1,0,0,,3,0.003,0,8,0,1,0,0,0,5,5,14,1,14,first,,,,,,,,,,,,,,,,,,,,,,,,,,,,,,,,,,,,,,,,,,,,,,,,,,,,,,,,,,,,,,,,,,,,,,,,
,,,,,,60e5bae47d73a213b5189148,62c539bfaeca55441460b844,2022-07-06_19h29.33.779,Colour_Asymmetry_Pilot,2022.1.3,Win32,60.16847172,62c50e9c1127f2cd403a315f,,,,,,,,,,,,,,,,,,,,fourthree,,-4,1.33,,,,,,,,,,,,,,,,,,,,,,,,,,,,,,,,,,"[0.12939999999999996,-0.2864,0.3253999999999999]","[-0.30200000000000005,0.14500000000000002,0.2784]",-50,79,1,0,0,response7disk,1,-1,1,0,0,rectangle,1,-1,1,0,0,,2,0.002,0,1,-1,1,0,0,0,6,6,59,1,59,first,,,,,,,,,,,,,,,,,,,,,,,,,,,,,,,,,,,,,,,,,,,,,,,,,,,,,,,,,,,,,,,,,,,,,,,,
,,,,,,60e5bae47d73a213b5189148,62c539bfaeca55441460b844,2022-07-06_19h29.33.779,Colour_Asymmetry_Pilot,2022.1.3,Win32,60.16847172,62c50e9c1127f2cd403a315f,,,,,,,,,,,,,,,,,,,,threeone,,-4,0.847,,,,,,,,,,,,,,,,,,,,,,,,,,,,,,,,,,"[-0.9688,-0.4902000000000001,-0.12159999999999993]","[0.37240000000000006,-0.050999999999999934,-0.5216]",-40,86,1,0,0,response7disk,2,6,1,0,0,rectangle,2,6,1,0,0,,1,0.002,0,2,6,1,0,0,0,7,7,68,1,68,first,,,,,,,,,,,,,,,,,,,,,,,,,,,,,,,,,,,,,,,,,,,,,,,,,,,,,,,,,,,,,,,,,,,,,,,,
,,,,,,60e5bae47d73a213b5189148,62c539bfaeca55441460b844,2022-07-06_19h29.33.779,Colour_Asymmetry_Pilot,2022.1.3,Win32,60.16847172,62c50e9c1127f2cd403a315f,,,,,,,,,,,,,,,,,,,,fourtwo,,-4,0.765,,,,,,,,,,,,,,,,,,,,,,,,,,,,,,,,,,"[-0.24719999999999998,-0.0354000000000001,0.3175999999999999]","[-0.26280000000000003,-0.4746,-0.2158]",-43,87,1,0,0,response7disk,2,3,1,0,0,rectangle,2,3,1,0,0,,2,0.001,0,2,3,1,0,0,0,8,8,32,1,32,first,,,,,,,,,,,,,,,,,,,,,,,,,,,,,,,,,,,,,,,,,,,,,,,,,,,,,,,,,,,,,,,,,,,,,,,,
,,,,,,60e5bae47d73a213b5189148,62c539bfaeca55441460b844,2022-07-06_19h29.33.779,Colour_Asymmetry_Pilot,2022.1.3,Win32,60.16847172,62c50e9c1127f2cd403a315f,,,,,,,,,,,,,,,,,,,,onethree,,-4,0.765,,,,,,,,,,,,,,,,,,,,,,,,,,,,,,,,,,"[-0.10599999999999998,-0.10599999999999998,0.5841999999999998]","[-0.9138,-0.5296000000000001,-0.5529999999999999]",-50,83,1,0,0,response7disk,-3,1,1,0,0,rectangle,-3,1,1,0,0,,2,0,0,-3,1,1,0,0,0,9,9,37,1,37,first,,,,,,,,,,,,,,,,,,,,,,,,,,,,,,,,,,,,,,,,,,,,,,,,,,,,,,,,,,,,,,,,,,,,,,,,
,,,,,,60e5bae47d73a213b5189148,62c539bfaeca55441460b844,2022-07-06_19h29.33.779,Colour_Asymmetry_Pilot,2022.1.3,Win32,60.16847172,62c50e9c1127f2cd403a315f,,,,,,,,,,,,,,,,,,,,threeone,,-4,0.712,,,,,,,,,,,,,,,,,,,,,,,,,,,,,,,,,,"[-0.9296,-0.12959999999999994,-0.043199999999999905]","[0.3881999999999999,-0.23939999999999995,-0.05040000000000011]",-53,76,1,0,0,response7disk,-10,9,1,0,0,rectangle,-10,9,1,0,0,,2,0.001,0,-10,9,1,0,0,0,10,10,53,1,53,first,,,,,,,,,,,,,,,,,,,,,,,,,,,,,,,,,,,,,,,,,,,,,,,,,,,,,,,,,,,,,,,,,,,,,,,,
,,,,,,60e5bae47d73a213b5189148,62c539bfaeca55441460b844,2022-07-06_19h29.33.779,Colour_Asymmetry_Pilot,2022.1.3,Win32,60.16847172,62c50e9c1127f2cd403a315f,,,,,,,,,,,,,,,,,,,,fourthree,,-2,2.808,,,,,,,,,,,,,,,,,,,,,,,,,,,,,,,,,,"[0.3568,-0.20799999999999996,-0.9844]","[-0.050999999999999934,-0.6706000000000001,-0.804]",-99,-27,1,0,0,response5disk,-3,1,1,0,0,rectangle,-3,1,1,0,0,,2,0,0,-3,1,1,0,0,0,11,11,24,1,24,first,,,,,,,,,,,,,,,,,,,,,,,,,,,,,,,,,,,,,,,,,,,,,,,,,,,,,,,,,,,,,,,,,,,,,,,,
,,,,,,60e5bae47d73a213b5189148,62c539bfaeca55441460b844,2022-07-06_19h29.33.779,Colour_Asymmetry_Pilot,2022.1.3,Win32,60.16847172,62c50e9c1127f2cd403a315f,,,,,,,,,,,,,,,,,,,,twofour,,-4,1.065,,,,,,,,,,,,,,,,,,,,,,,,,,,,,,,,,,"[-0.26280000000000003,-0.4746,-0.2158]","[-0.26280000000000003,-0.2158,-0.3256]",-43,67,1,0,0,response7disk,0,-5,1,0,0,rectangle,63,37,1,0,0,3,3,2.546,1,3,3,1,0,0,0,12,12,161,1,80,second,response1disk_3,rectangle,,,,,,,,,,,,,,,,,,,,,,,,,,,,,,,,,,,,,,,,,,,,,,,,,,,,,,,,,,,,,,,,,,,,,,
,,,,,,60e5bae47d73a213b5189148,62c539bfaeca55441460b844,2022-07-06_19h29.33.779,Colour_Asymmetry_Pilot,2022.1.3,Win32,60.16847172,62c50e9c1127f2cd403a315f,,,,,,,,,,,,,,,,,,,,onetwo,,-4,0.445,,,,,,,,,,,,,,,,,,,,,,,,,,,,,,,,,,"[-0.24719999999999998,0.5213999999999999,-0.12959999999999994]","[0.9213999999999998,0.6391999999999998,-0.9922]",-26,59,1,0,0,response7disk,-1,-3,1,0,0,rectangle,-1,-3,1,0,0,3,3,0.001,0,-1,-3,1,0,0,0,13,13,137,1,56,second,,,,,,,,,,,,,,,,,,,,,,,,,,,,,,,,,,,,,,,,,,,,,,,,,,,,,,,,,,,,,,,,,,,,,,,,
,,,,,,60e5bae47d73a213b5189148,62c539bfaeca55441460b844,2022-07-06_19h29.33.779,Colour_Asymmetry_Pilot,2022.1.3,Win32,60.16847172,62c50e9c1127f2cd403a315f,,,,,,,,,,,,,,,,,,,,twofour,,-4,0.366,,,,,,,,,,,,,,,,,,,,,,,,,,,,,,,,,,"[-0.01980000000000004,-0.5138,-0.38039999999999996]","[1,0.12939999999999996,-1]",-35,76,1,0,0,response7disk,-9,0,1,0,0,rectangle,-9,0,1,0,0,3,3,0.001,0,-9,0,1,0,0,0,14,14,62,1,62,first,,,,,,,,,,,,,,,,,,,,,,,,,,,,,,,,,,,,,,,,,,,,,,,,,,,,,,,,,,,,,,,,,,,,,,,,
,,,,,,60e5bae47d73a213b5189148,62c539bfaeca55441460b844,2022-07-06_19h29.33.779,Colour_Asymmetry_Pilot,2022.1.3,Win32,60.16847172,62c50e9c1127f2cd403a315f,,,,,,,,,,,,,,,,,,,,onethree,,2,1.695,,,,,,,,,,,,,,,,,,,,,,,,,,,,,,,,,,"[0.5528,0.7409999999999999,-0.71]","[0.6625999999999999,0.4980000000000002,-0.357]",86,-29,1,0,0,response3disk,-8,6,1,0,0,rectangle,-8,6,1,0,0,3,1,0.001,0,-8,6,1,0,0,0,15,15,81,1,0,second,,,,,,,,,,,,,,,,,,,,,,,,,,,,,,,,,,,,,,,,,,,,,,,,,,,,,,,,,,,,,,,,,,,,,,,,
,,,,,,60e5bae47d73a213b5189148,62c539bfaeca55441460b844,2022-07-06_19h29.33.779,Colour_Asymmetry_Pilot,2022.1.3,Win32,60.16847172,62c50e9c1127f2cd403a315f,,,,,,,,,,,,,,,,,,,,fourthree,,-3,0.914,,,,,,,,,,,,,,,,,,,,,,,,,,,,,,,,,,"[0.7176,-0.906,-0.6864]","[0.09799999999999986,-0.24719999999999998,0.15280000000000005]",-102,33,1,0,0,response7disk,27,0,1,0,0,rectangle,27,0,1,0,0,3,3,0.003,0,27,0,1,0,0,0,16,16,8,1,8,first,,,,,,,,,,,,,,,,,,,,,,,,,,,,,,,,,,,,,,,,,,,,,,,,,,,,,,,,,,,,,,,,,,,,,,,,
,,,,,,60e5bae47d73a213b5189148,62c539bfaeca55441460b844,2022-07-06_19h29.33.779,Colour_Asymmetry_Pilot,2022.1.3,Win32,60.16847172,62c50e9c1127f2cd403a315f,,,,,,,,,,,,,,,,,,,,onethree,,-4,0.332,,,,,,,,,,,,,,,,,,,,,,,,,,,,,,,,,,"[0.9686000000000001,0.3802000000000001,0.19999999999999996]","[-0.4746,-0.0354000000000001,0.5449999999999999]",-41,80,1,0,0,response7disk,2,4,1,0,0,rectangle,2,4,1,0,0,3,2,0.002,0,2,4,1,0,0,0,17,17,139,1,58,second,,,,,,,,,,,,,,,,,,,,,,,,,,,,,,,,,,,,,,,,,,,,,,,,,,,,,,,,,,,,,,,,,,,,,,,,
