trials.thisRepN,trials.thisTrialN,trials.thisN,trials.thisIndex,trials.ran,Colourcodes,participant,session,date,expName,psychopyVersion,OS,frameRate,study_id,trials_4.thisRepN,trials_4.thisTrialN,trials_4.thisN,trials_4.thisIndex,trials_4.ran,StimulusPos,key_resp.keys,key_resp.rt,key_resp_2.keys,key_resp_2.rt,key_resp_15.keys,key_resp_15.rt,key_resp_17.keys,key_resp_17.rt,key_resp_9.keys,key_resp_9.rt,key_resp_10.keys,key_resp_10.rt,Circle1_col,Ecc,Circle2_col,similarity,response_time,mouse_5.x,mouse_5.y,mouse_5.leftButton,mouse_5.midButton,mouse_5.rightButton,mouse_5.clicked_name,mouse_10.x,mouse_10.y,mouse_10.leftButton,mouse_10.midButton,mouse_10.rightButton,mouse_10.clicked_name,mouse_7.x,mouse_7.y,mouse_7.leftButton,mouse_7.midButton,mouse_7.rightButton,mouse_7.clicked_name,catchprac,catchnumberprac,mouse_6.x,mouse_6.y,mouse_6.leftButton,mouse_6.midButton,mouse_6.rightButton,mouse_6.clicked_name,duringprac.thisRepN,duringprac.thisTrialN,duringprac.thisN,duringprac.thisIndex,duringprac.ran,key_resp_22.keys,key_resp_22.rt,Circle1_colour,Circle2_colour,mouse.x,mouse.y,mouse.leftButton,mouse.midButton,mouse.rightButton,mouse.clicked_name,mouse_2.x,mouse_2.y,mouse_2.leftButton,mouse_2.midButton,mouse_2.rightButton,mouse_2.clicked_name,mouse_3.x,mouse_3.y,mouse_3.leftButton,mouse_3.midButton,mouse_3.rightButton,catchresponse,catchnumber,response_time_catch,Catch,mouse_11.x,mouse_11.y,mouse_11.leftButton,mouse_11.midButton,mouse_11.rightButton,trials_2.thisRepN,trials_2.thisTrialN,trials_2.thisN,trials_2.thisIndex,trials_2.ran,Colourpair,Temporder,mouse_3.clicked_name,mouse_11.clicked_name,trials_3.thisRepN,trials_3.thisTrialN,trials_3.thisN,trials_3.thisIndex,trials_3.ran,key_resp_instr_Ishi.keys,key_resp_instr_Ishi.rt,Ishi_trial_keyresp.keys,Ishi_textbox.text,Ishi_mouse.x,Ishi_mouse.y,Ishi_mouse.leftButton,Ishi_mouse.midButton,Ishi_mouse.rightButton,Ishi_mouse.clicked_name,Ishi_loop.thisRepN,Ishi_loop.thisTrialN,Ishi_loop.thisN,Ishi_loop.thisIndex,Ishi_loop.ran,imageaddress,textbox.text,mouse_4.x,mouse_4.y,mouse_4.leftButton,mouse_4.midButton,mouse_4.rightButton,mouse_4.clicked_name,textbox_2.text,mouse_8.x,mouse_8.y,mouse_8.leftButton,mouse_8.midButton,mouse_8.rightButton,mouse_8.clicked_name,textbox_3.text,mouse_9.x,mouse_9.y,mouse_9.leftButton,mouse_9.midButton,mouse_9.rightButton,mouse_9.clicked_name,textbox_4.text,mouse_12.x,mouse_12.y,mouse_12.leftButton,mouse_12.midButton,mouse_12.rightButton,mouse_12.clicked_name,textbox_5.text,mouse_13.x,mouse_13.y,mouse_13.leftButton,mouse_13.midButton,mouse_13.rightButton,mouse_13.clicked_name,textbox_6.text,mouse_14.x,mouse_14.y,mouse_14.leftButton,mouse_14.midButton,mouse_14.rightButton,mouse_14.clicked_name,textbox_7.text,mouse_15.x,mouse_15.y,mouse_15.leftButton,mouse_15.midButton,mouse_15.rightButton
0,0,0,15,1,,5e8208d95442a6028e919b7f,62c539ed9c20d67962129e59,2022-07-06_09h31.54.064,Colour_Asymmetry_Pilot,2022.1.3,Win32,58.91363261,62c50e9c1127f2cd403a315f,,,,,,,,,,,,,,,,,,,,,,,,,,,,,,,,,,,,,,,,,,,,,,,,,,,,,,,,,,,,,,,,,,,,,,,,,,,,,,,,,,,,,,,,,,,,,,,,,,,,,,,,,,,,,,,,,,,,,,,,,,,,,,,,,,,,,,,,,,,,,,,,,,,,,,,,,,,,,,,,,,
0,1,1,36,1,,5e8208d95442a6028e919b7f,62c539ed9c20d67962129e59,2022-07-06_09h31.54.064,Colour_Asymmetry_Pilot,2022.1.3,Win32,58.91363261,62c50e9c1127f2cd403a315f,,,,,,,,,,,,,,,,,,,,,,,,,,,,,,,,,,,,,,,,,,,,,,,,,,,,,,,,,,,,,,,,,,,,,,,,,,,,,,,,,,,,,,,,,,,,,,,,,,,,,,,,,,,,,,,,,,,,,,,,,,,,,,,,,,,,,,,,,,,,,,,,,,,,,,,,,,,,,,,,,,
0,2,2,90,1,,5e8208d95442a6028e919b7f,62c539ed9c20d67962129e59,2022-07-06_09h31.54.064,Colour_Asymmetry_Pilot,2022.1.3,Win32,58.91363261,62c50e9c1127f2cd403a315f,,,,,,,,,,,,,,,,,,,,,,,,,,,,,,,,,,,,,,,,,,,,,,,,,,,,,,,,,,,,,,,,,,,,,,,,,,,,,,,,,,,,,,,,,,,,,,,,,,,,,,,,,,,,,,,,,,,,,,,,,,,,,,,,,,,,,,,,,,,,,,,,,,,,,,,,,,,,,,,,,,
0,3,3,17,1,,5e8208d95442a6028e919b7f,62c539ed9c20d67962129e59,2022-07-06_09h31.54.064,Colour_Asymmetry_Pilot,2022.1.3,Win32,58.91363261,62c50e9c1127f2cd403a315f,,,,,,,,,,,,,,,,,,,,,,,,,,,,,,,,,,,,,,,,,,,,,,,,,,,,,,,,,,,,,,,,,,,,,,,,,,,,,,,,,,,,,,,,,,,,,,,,,,,,,,,,,,,,,,,,,,,,,,,,,,,,,,,,,,,,,,,,,,,,,,,,,,,,,,,,,,,,,,,,,,
0,4,4,50,1,,5e8208d95442a6028e919b7f,62c539ed9c20d67962129e59,2022-07-06_09h31.54.064,Colour_Asymmetry_Pilot,2022.1.3,Win32,58.91363261,62c50e9c1127f2cd403a315f,,,,,,,,,,,,,,,,,,,,,,,,,,,,,,,,,,,,,,,,,,,,,,,,,,,,,,,,,,,,,,,,,,,,,,,,,,,,,,,,,,,,,,,,,,,,,,,,,,,,,,,,,,,,,,,,,,,,,,,,,,,,,,,,,,,,,,,,,,,,,,,,,,,,,,,,,,,,,,,,,,
0,5,5,4,1,,5e8208d95442a6028e919b7f,62c539ed9c20d67962129e59,2022-07-06_09h31.54.064,Colour_Asymmetry_Pilot,2022.1.3,Win32,58.91363261,62c50e9c1127f2cd403a315f,,,,,,,,,,,,,,,,,,,,,,,,,,,,,,,,,,,,,,,,,,,,,,,,,,,,,,,,,,,,,,,,,,,,,,,,,,,,,,,,,,,,,,,,,,,,,,,,,,,,,,,,,,,,,,,,,,,,,,,,,,,,,,,,,,,,,,,,,,,,,,,,,,,,,,,,,,,,,,,,,,
0,6,6,3,1,,5e8208d95442a6028e919b7f,62c539ed9c20d67962129e59,2022-07-06_09h31.54.064,Colour_Asymmetry_Pilot,2022.1.3,Win32,58.91363261,62c50e9c1127f2cd403a315f,,,,,,,,,,,,,,,,,,,,,,,,,,,,,,,,,,,,,,,,,,,,,,,,,,,,,,,,,,,,,,,,,,,,,,,,,,,,,,,,,,,,,,,,,,,,,,,,,,,,,,,,,,,,,,,,,,,,,,,,,,,,,,,,,,,,,,,,,,,,,,,,,,,,,,,,,,,,,,,,,,
0,7,7,1,1,,5e8208d95442a6028e919b7f,62c539ed9c20d67962129e59,2022-07-06_09h31.54.064,Colour_Asymmetry_Pilot,2022.1.3,Win32,58.91363261,62c50e9c1127f2cd403a315f,,,,,,,,,,,,,,,,,,,,,,,,,,,,,,,,,,,,,,,,,,,,,,,,,,,,,,,,,,,,,,,,,,,,,,,,,,,,,,,,,,,,,,,,,,,,,,,,,,,,,,,,,,,,,,,,,,,,,,,,,,,,,,,,,,,,,,,,,,,,,,,,,,,,,,,,,,,,,,,,,,
0,8,8,70,1,,5e8208d95442a6028e919b7f,62c539ed9c20d67962129e59,2022-07-06_09h31.54.064,Colour_Asymmetry_Pilot,2022.1.3,Win32,58.91363261,62c50e9c1127f2cd403a315f,,,,,,,,,,,,,,,,,,,,,,,,,,,,,,,,,,,,,,,,,,,,,,,,,,,,,,,,,,,,,,,,,,,,,,,,,,,,,,,,,,,,,,,,,,,,,,,,,,,,,,,,,,,,,,,,,,,,,,,,,,,,,,,,,,,,,,,,,,,,,,,,,,,,,,,,,,,,,,,,,,
0,9,9,16,1,,5e8208d95442a6028e919b7f,62c539ed9c20d67962129e59,2022-07-06_09h31.54.064,Colour_Asymmetry_Pilot,2022.1.3,Win32,58.91363261,62c50e9c1127f2cd403a315f,,,,,,,,,,,,,,,,,,,,,,,,,,,,,,,,,,,,,,,,,,,,,,,,,,,,,,,,,,,,,,,,,,,,,,,,,,,,,,,,,,,,,,,,,,,,,,,,,,,,,,,,,,,,,,,,,,,,,,,,,,,,,,,,,,,,,,,,,,,,,,,,,,,,,,,,,,,,,,,,,,
0,10,10,13,1,,5e8208d95442a6028e919b7f,62c539ed9c20d67962129e59,2022-07-06_09h31.54.064,Colour_Asymmetry_Pilot,2022.1.3,Win32,58.91363261,62c50e9c1127f2cd403a315f,,,,,,,,,,,,,,,,,,,,,,,,,,,,,,,,,,,,,,,,,,,,,,,,,,,,,,,,,,,,,,,,,,,,,,,,,,,,,,,,,,,,,,,,,,,,,,,,,,,,,,,,,,,,,,,,,,,,,,,,,,,,,,,,,,,,,,,,,,,,,,,,,,,,,,,,,,,,,,,,,,
0,11,11,14,1,,5e8208d95442a6028e919b7f,62c539ed9c20d67962129e59,2022-07-06_09h31.54.064,Colour_Asymmetry_Pilot,2022.1.3,Win32,58.91363261,62c50e9c1127f2cd403a315f,,,,,,,,,,,,,,,,,,,,,,,,,,,,,,,,,,,,,,,,,,,,,,,,,,,,,,,,,,,,,,,,,,,,,,,,,,,,,,,,,,,,,,,,,,,,,,,,,,,,,,,,,,,,,,,,,,,,,,,,,,,,,,,,,,,,,,,,,,,,,,,,,,,,,,,,,,,,,,,,,,
0,12,12,61,1,,5e8208d95442a6028e919b7f,62c539ed9c20d67962129e59,2022-07-06_09h31.54.064,Colour_Asymmetry_Pilot,2022.1.3,Win32,58.91363261,62c50e9c1127f2cd403a315f,,,,,,,,,,,,,,,,,,,,,,,,,,,,,,,,,,,,,,,,,,,,,,,,,,,,,,,,,,,,,,,,,,,,,,,,,,,,,,,,,,,,,,,,,,,,,,,,,,,,,,,,,,,,,,,,,,,,,,,,,,,,,,,,,,,,,,,,,,,,,,,,,,,,,,,,,,,,,,,,,,
0,13,13,58,1,,5e8208d95442a6028e919b7f,62c539ed9c20d67962129e59,2022-07-06_09h31.54.064,Colour_Asymmetry_Pilot,2022.1.3,Win32,58.91363261,62c50e9c1127f2cd403a315f,,,,,,,,,,,,,,,,,,,,,,,,,,,,,,,,,,,,,,,,,,,,,,,,,,,,,,,,,,,,,,,,,,,,,,,,,,,,,,,,,,,,,,,,,,,,,,,,,,,,,,,,,,,,,,,,,,,,,,,,,,,,,,,,,,,,,,,,,,,,,,,,,,,,,,,,,,,,,,,,,,
0,14,14,32,1,,5e8208d95442a6028e919b7f,62c539ed9c20d67962129e59,2022-07-06_09h31.54.064,Colour_Asymmetry_Pilot,2022.1.3,Win32,58.91363261,62c50e9c1127f2cd403a315f,,,,,,,,,,,,,,,,,,,,,,,,,,,,,,,,,,,,,,,,,,,,,,,,,,,,,,,,,,,,,,,,,,,,,,,,,,,,,,,,,,,,,,,,,,,,,,,,,,,,,,,,,,,,,,,,,,,,,,,,,,,,,,,,,,,,,,,,,,,,,,,,,,,,,,,,,,,,,,,,,,
0,15,15,74,1,,5e8208d95442a6028e919b7f,62c539ed9c20d67962129e59,2022-07-06_09h31.54.064,Colour_Asymmetry_Pilot,2022.1.3,Win32,58.91363261,62c50e9c1127f2cd403a315f,,,,,,,,,,,,,,,,,,,,,,,,,,,,,,,,,,,,,,,,,,,,,,,,,,,,,,,,,,,,,,,,,,,,,,,,,,,,,,,,,,,,,,,,,,,,,,,,,,,,,,,,,,,,,,,,,,,,,,,,,,,,,,,,,,,,,,,,,,,,,,,,,,,,,,,,,,,,,,,,,,
0,16,16,59,1,,5e8208d95442a6028e919b7f,62c539ed9c20d67962129e59,2022-07-06_09h31.54.064,Colour_Asymmetry_Pilot,2022.1.3,Win32,58.91363261,62c50e9c1127f2cd403a315f,,,,,,,,,,,,,,,,,,,,,,,,,,,,,,,,,,,,,,,,,,,,,,,,,,,,,,,,,,,,,,,,,,,,,,,,,,,,,,,,,,,,,,,,,,,,,,,,,,,,,,,,,,,,,,,,,,,,,,,,,,,,,,,,,,,,,,,,,,,,,,,,,,,,,,,,,,,,,,,,,,
0,17,17,80,1,,5e8208d95442a6028e919b7f,62c539ed9c20d67962129e59,2022-07-06_09h31.54.064,Colour_Asymmetry_Pilot,2022.1.3,Win32,58.91363261,62c50e9c1127f2cd403a315f,,,,,,,,,,,,,,,,,,,,,,,,,,,,,,,,,,,,,,,,,,,,,,,,,,,,,,,,,,,,,,,,,,,,,,,,,,,,,,,,,,,,,,,,,,,,,,,,,,,,,,,,,,,,,,,,,,,,,,,,,,,,,,,,,,,,,,,,,,,,,,,,,,,,,,,,,,,,,,,,,,
0,18,18,25,1,,5e8208d95442a6028e919b7f,62c539ed9c20d67962129e59,2022-07-06_09h31.54.064,Colour_Asymmetry_Pilot,2022.1.3,Win32,58.91363261,62c50e9c1127f2cd403a315f,,,,,,,,,,,,,,,,,,,,,,,,,,,,,,,,,,,,,,,,,,,,,,,,,,,,,,,,,,,,,,,,,,,,,,,,,,,,,,,,,,,,,,,,,,,,,,,,,,,,,,,,,,,,,,,,,,,,,,,,,,,,,,,,,,,,,,,,,,,,,,,,,,,,,,,,,,,,,,,,,,
0,19,19,7,1,,5e8208d95442a6028e919b7f,62c539ed9c20d67962129e59,2022-07-06_09h31.54.064,Colour_Asymmetry_Pilot,2022.1.3,Win32,58.91363261,62c50e9c1127f2cd403a315f,,,,,,,,,,,,,,,,,,,,,,,,,,,,,,,,,,,,,,,,,,,,,,,,,,,,,,,,,,,,,,,,,,,,,,,,,,,,,,,,,,,,,,,,,,,,,,,,,,,,,,,,,,,,,,,,,,,,,,,,,,,,,,,,,,,,,,,,,,,,,,,,,,,,,,,,,,,,,,,,,,
0,20,20,71,1,,5e8208d95442a6028e919b7f,62c539ed9c20d67962129e59,2022-07-06_09h31.54.064,Colour_Asymmetry_Pilot,2022.1.3,Win32,58.91363261,62c50e9c1127f2cd403a315f,,,,,,,,,,,,,,,,,,,,,,,,,,,,,,,,,,,,,,,,,,,,,,,,,,,,,,,,,,,,,,,,,,,,,,,,,,,,,,,,,,,,,,,,,,,,,,,,,,,,,,,,,,,,,,,,,,,,,,,,,,,,,,,,,,,,,,,,,,,,,,,,,,,,,,,,,,,,,,,,,,
0,21,21,92,1,,5e8208d95442a6028e919b7f,62c539ed9c20d67962129e59,2022-07-06_09h31.54.064,Colour_Asymmetry_Pilot,2022.1.3,Win32,58.91363261,62c50e9c1127f2cd403a315f,,,,,,,,,,,,,,,,,,,,,,,,,,,,,,,,,,,,,,,,,,,,,,,,,,,,,,,,,,,,,,,,,,,,,,,,,,,,,,,,,,,,,,,,,,,,,,,,,,,,,,,,,,,,,,,,,,,,,,,,,,,,,,,,,,,,,,,,,,,,,,,,,,,,,,,,,,,,,,,,,,
0,22,22,66,1,,5e8208d95442a6028e919b7f,62c539ed9c20d67962129e59,2022-07-06_09h31.54.064,Colour_Asymmetry_Pilot,2022.1.3,Win32,58.91363261,62c50e9c1127f2cd403a315f,,,,,,,,,,,,,,,,,,,,,,,,,,,,,,,,,,,,,,,,,,,,,,,,,,,,,,,,,,,,,,,,,,,,,,,,,,,,,,,,,,,,,,,,,,,,,,,,,,,,,,,,,,,,,,,,,,,,,,,,,,,,,,,,,,,,,,,,,,,,,,,,,,,,,,,,,,,,,,,,,,
0,23,23,24,1,,5e8208d95442a6028e919b7f,62c539ed9c20d67962129e59,2022-07-06_09h31.54.064,Colour_Asymmetry_Pilot,2022.1.3,Win32,58.91363261,62c50e9c1127f2cd403a315f,,,,,,,,,,,,,,,,,,,,,,,,,,,,,,,,,,,,,,,,,,,,,,,,,,,,,,,,,,,,,,,,,,,,,,,,,,,,,,,,,,,,,,,,,,,,,,,,,,,,,,,,,,,,,,,,,,,,,,,,,,,,,,,,,,,,,,,,,,,,,,,,,,,,,,,,,,,,,,,,,,
0,24,24,8,1,,5e8208d95442a6028e919b7f,62c539ed9c20d67962129e59,2022-07-06_09h31.54.064,Colour_Asymmetry_Pilot,2022.1.3,Win32,58.91363261,62c50e9c1127f2cd403a315f,,,,,,,,,,,,,,,,,,,,,,,,,,,,,,,,,,,,,,,,,,,,,,,,,,,,,,,,,,,,,,,,,,,,,,,,,,,,,,,,,,,,,,,,,,,,,,,,,,,,,,,,,,,,,,,,,,,,,,,,,,,,,,,,,,,,,,,,,,,,,,,,,,,,,,,,,,,,,,,,,,
0,25,25,85,1,,5e8208d95442a6028e919b7f,62c539ed9c20d67962129e59,2022-07-06_09h31.54.064,Colour_Asymmetry_Pilot,2022.1.3,Win32,58.91363261,62c50e9c1127f2cd403a315f,,,,,,,,,,,,,,,,,,,,,,,,,,,,,,,,,,,,,,,,,,,,,,,,,,,,,,,,,,,,,,,,,,,,,,,,,,,,,,,,,,,,,,,,,,,,,,,,,,,,,,,,,,,,,,,,,,,,,,,,,,,,,,,,,,,,,,,,,,,,,,,,,,,,,,,,,,,,,,,,,,
0,26,26,56,1,,5e8208d95442a6028e919b7f,62c539ed9c20d67962129e59,2022-07-06_09h31.54.064,Colour_Asymmetry_Pilot,2022.1.3,Win32,58.91363261,62c50e9c1127f2cd403a315f,,,,,,,,,,,,,,,,,,,,,,,,,,,,,,,,,,,,,,,,,,,,,,,,,,,,,,,,,,,,,,,,,,,,,,,,,,,,,,,,,,,,,,,,,,,,,,,,,,,,,,,,,,,,,,,,,,,,,,,,,,,,,,,,,,,,,,,,,,,,,,,,,,,,,,,,,,,,,,,,,,
0,27,27,86,1,,5e8208d95442a6028e919b7f,62c539ed9c20d67962129e59,2022-07-06_09h31.54.064,Colour_Asymmetry_Pilot,2022.1.3,Win32,58.91363261,62c50e9c1127f2cd403a315f,,,,,,,,,,,,,,,,,,,,,,,,,,,,,,,,,,,,,,,,,,,,,,,,,,,,,,,,,,,,,,,,,,,,,,,,,,,,,,,,,,,,,,,,,,,,,,,,,,,,,,,,,,,,,,,,,,,,,,,,,,,,,,,,,,,,,,,,,,,,,,,,,,,,,,,,,,,,,,,,,,
0,28,28,46,1,,5e8208d95442a6028e919b7f,62c539ed9c20d67962129e59,2022-07-06_09h31.54.064,Colour_Asymmetry_Pilot,2022.1.3,Win32,58.91363261,62c50e9c1127f2cd403a315f,,,,,,,,,,,,,,,,,,,,,,,,,,,,,,,,,,,,,,,,,,,,,,,,,,,,,,,,,,,,,,,,,,,,,,,,,,,,,,,,,,,,,,,,,,,,,,,,,,,,,,,,,,,,,,,,,,,,,,,,,,,,,,,,,,,,,,,,,,,,,,,,,,,,,,,,,,,,,,,,,,
0,29,29,10,1,,5e8208d95442a6028e919b7f,62c539ed9c20d67962129e59,2022-07-06_09h31.54.064,Colour_Asymmetry_Pilot,2022.1.3,Win32,58.91363261,62c50e9c1127f2cd403a315f,,,,,,,,,,,,,,,,,,,,,,,,,,,,,,,,,,,,,,,,,,,,,,,,,,,,,,,,,,,,,,,,,,,,,,,,,,,,,,,,,,,,,,,,,,,,,,,,,,,,,,,,,,,,,,,,,,,,,,,,,,,,,,,,,,,,,,,,,,,,,,,,,,,,,,,,,,,,,,,,,,
0,30,30,88,1,,5e8208d95442a6028e919b7f,62c539ed9c20d67962129e59,2022-07-06_09h31.54.064,Colour_Asymmetry_Pilot,2022.1.3,Win32,58.91363261,62c50e9c1127f2cd403a315f,,,,,,,,,,,,,,,,,,,,,,,,,,,,,,,,,,,,,,,,,,,,,,,,,,,,,,,,,,,,,,,,,,,,,,,,,,,,,,,,,,,,,,,,,,,,,,,,,,,,,,,,,,,,,,,,,,,,,,,,,,,,,,,,,,,,,,,,,,,,,,,,,,,,,,,,,,,,,,,,,,
0,31,31,38,1,,5e8208d95442a6028e919b7f,62c539ed9c20d67962129e59,2022-07-06_09h31.54.064,Colour_Asymmetry_Pilot,2022.1.3,Win32,58.91363261,62c50e9c1127f2cd403a315f,,,,,,,,,,,,,,,,,,,,,,,,,,,,,,,,,,,,,,,,,,,,,,,,,,,,,,,,,,,,,,,,,,,,,,,,,,,,,,,,,,,,,,,,,,,,,,,,,,,,,,,,,,,,,,,,,,,,,,,,,,,,,,,,,,,,,,,,,,,,,,,,,,,,,,,,,,,,,,,,,,
0,32,32,82,1,,5e8208d95442a6028e919b7f,62c539ed9c20d67962129e59,2022-07-06_09h31.54.064,Colour_Asymmetry_Pilot,2022.1.3,Win32,58.91363261,62c50e9c1127f2cd403a315f,,,,,,,,,,,,,,,,,,,,,,,,,,,,,,,,,,,,,,,,,,,,,,,,,,,,,,,,,,,,,,,,,,,,,,,,,,,,,,,,,,,,,,,,,,,,,,,,,,,,,,,,,,,,,,,,,,,,,,,,,,,,,,,,,,,,,,,,,,,,,,,,,,,,,,,,,,,,,,,,,,
0,33,33,11,1,,5e8208d95442a6028e919b7f,62c539ed9c20d67962129e59,2022-07-06_09h31.54.064,Colour_Asymmetry_Pilot,2022.1.3,Win32,58.91363261,62c50e9c1127f2cd403a315f,,,,,,,,,,,,,,,,,,,,,,,,,,,,,,,,,,,,,,,,,,,,,,,,,,,,,,,,,,,,,,,,,,,,,,,,,,,,,,,,,,,,,,,,,,,,,,,,,,,,,,,,,,,,,,,,,,,,,,,,,,,,,,,,,,,,,,,,,,,,,,,,,,,,,,,,,,,,,,,,,,
0,34,34,40,1,,5e8208d95442a6028e919b7f,62c539ed9c20d67962129e59,2022-07-06_09h31.54.064,Colour_Asymmetry_Pilot,2022.1.3,Win32,58.91363261,62c50e9c1127f2cd403a315f,,,,,,,,,,,,,,,,,,,,,,,,,,,,,,,,,,,,,,,,,,,,,,,,,,,,,,,,,,,,,,,,,,,,,,,,,,,,,,,,,,,,,,,,,,,,,,,,,,,,,,,,,,,,,,,,,,,,,,,,,,,,,,,,,,,,,,,,,,,,,,,,,,,,,,,,,,,,,,,,,,
0,35,35,44,1,,5e8208d95442a6028e919b7f,62c539ed9c20d67962129e59,2022-07-06_09h31.54.064,Colour_Asymmetry_Pilot,2022.1.3,Win32,58.91363261,62c50e9c1127f2cd403a315f,,,,,,,,,,,,,,,,,,,,,,,,,,,,,,,,,,,,,,,,,,,,,,,,,,,,,,,,,,,,,,,,,,,,,,,,,,,,,,,,,,,,,,,,,,,,,,,,,,,,,,,,,,,,,,,,,,,,,,,,,,,,,,,,,,,,,,,,,,,,,,,,,,,,,,,,,,,,,,,,,,
0,36,36,68,1,,5e8208d95442a6028e919b7f,62c539ed9c20d67962129e59,2022-07-06_09h31.54.064,Colour_Asymmetry_Pilot,2022.1.3,Win32,58.91363261,62c50e9c1127f2cd403a315f,,,,,,,,,,,,,,,,,,,,,,,,,,,,,,,,,,,,,,,,,,,,,,,,,,,,,,,,,,,,,,,,,,,,,,,,,,,,,,,,,,,,,,,,,,,,,,,,,,,,,,,,,,,,,,,,,,,,,,,,,,,,,,,,,,,,,,,,,,,,,,,,,,,,,,,,,,,,,,,,,,
0,37,37,87,1,,5e8208d95442a6028e919b7f,62c539ed9c20d67962129e59,2022-07-06_09h31.54.064,Colour_Asymmetry_Pilot,2022.1.3,Win32,58.91363261,62c50e9c1127f2cd403a315f,,,,,,,,,,,,,,,,,,,,,,,,,,,,,,,,,,,,,,,,,,,,,,,,,,,,,,,,,,,,,,,,,,,,,,,,,,,,,,,,,,,,,,,,,,,,,,,,,,,,,,,,,,,,,,,,,,,,,,,,,,,,,,,,,,,,,,,,,,,,,,,,,,,,,,,,,,,,,,,,,,
0,38,38,63,1,,5e8208d95442a6028e919b7f,62c539ed9c20d67962129e59,2022-07-06_09h31.54.064,Colour_Asymmetry_Pilot,2022.1.3,Win32,58.91363261,62c50e9c1127f2cd403a315f,,,,,,,,,,,,,,,,,,,,,,,,,,,,,,,,,,,,,,,,,,,,,,,,,,,,,,,,,,,,,,,,,,,,,,,,,,,,,,,,,,,,,,,,,,,,,,,,,,,,,,,,,,,,,,,,,,,,,,,,,,,,,,,,,,,,,,,,,,,,,,,,,,,,,,,,,,,,,,,,,,
0,39,39,34,1,,5e8208d95442a6028e919b7f,62c539ed9c20d67962129e59,2022-07-06_09h31.54.064,Colour_Asymmetry_Pilot,2022.1.3,Win32,58.91363261,62c50e9c1127f2cd403a315f,,,,,,,,,,,,,,,,,,,,,,,,,,,,,,,,,,,,,,,,,,,,,,,,,,,,,,,,,,,,,,,,,,,,,,,,,,,,,,,,,,,,,,,,,,,,,,,,,,,,,,,,,,,,,,,,,,,,,,,,,,,,,,,,,,,,,,,,,,,,,,,,,,,,,,,,,,,,,,,,,,
0,40,40,33,1,,5e8208d95442a6028e919b7f,62c539ed9c20d67962129e59,2022-07-06_09h31.54.064,Colour_Asymmetry_Pilot,2022.1.3,Win32,58.91363261,62c50e9c1127f2cd403a315f,,,,,,,,,,,,,,,,,,,,,,,,,,,,,,,,,,,,,,,,,,,,,,,,,,,,,,,,,,,,,,,,,,,,,,,,,,,,,,,,,,,,,,,,,,,,,,,,,,,,,,,,,,,,,,,,,,,,,,,,,,,,,,,,,,,,,,,,,,,,,,,,,,,,,,,,,,,,,,,,,,
0,41,41,91,1,,5e8208d95442a6028e919b7f,62c539ed9c20d67962129e59,2022-07-06_09h31.54.064,Colour_Asymmetry_Pilot,2022.1.3,Win32,58.91363261,62c50e9c1127f2cd403a315f,,,,,,,,,,,,,,,,,,,,,,,,,,,,,,,,,,,,,,,,,,,,,,,,,,,,,,,,,,,,,,,,,,,,,,,,,,,,,,,,,,,,,,,,,,,,,,,,,,,,,,,,,,,,,,,,,,,,,,,,,,,,,,,,,,,,,,,,,,,,,,,,,,,,,,,,,,,,,,,,,,
0,42,42,54,1,,5e8208d95442a6028e919b7f,62c539ed9c20d67962129e59,2022-07-06_09h31.54.064,Colour_Asymmetry_Pilot,2022.1.3,Win32,58.91363261,62c50e9c1127f2cd403a315f,,,,,,,,,,,,,,,,,,,,,,,,,,,,,,,,,,,,,,,,,,,,,,,,,,,,,,,,,,,,,,,,,,,,,,,,,,,,,,,,,,,,,,,,,,,,,,,,,,,,,,,,,,,,,,,,,,,,,,,,,,,,,,,,,,,,,,,,,,,,,,,,,,,,,,,,,,,,,,,,,,
0,43,43,49,1,,5e8208d95442a6028e919b7f,62c539ed9c20d67962129e59,2022-07-06_09h31.54.064,Colour_Asymmetry_Pilot,2022.1.3,Win32,58.91363261,62c50e9c1127f2cd403a315f,,,,,,,,,,,,,,,,,,,,,,,,,,,,,,,,,,,,,,,,,,,,,,,,,,,,,,,,,,,,,,,,,,,,,,,,,,,,,,,,,,,,,,,,,,,,,,,,,,,,,,,,,,,,,,,,,,,,,,,,,,,,,,,,,,,,,,,,,,,,,,,,,,,,,,,,,,,,,,,,,,
0,44,44,51,1,,5e8208d95442a6028e919b7f,62c539ed9c20d67962129e59,2022-07-06_09h31.54.064,Colour_Asymmetry_Pilot,2022.1.3,Win32,58.91363261,62c50e9c1127f2cd403a315f,,,,,,,,,,,,,,,,,,,,,,,,,,,,,,,,,,,,,,,,,,,,,,,,,,,,,,,,,,,,,,,,,,,,,,,,,,,,,,,,,,,,,,,,,,,,,,,,,,,,,,,,,,,,,,,,,,,,,,,,,,,,,,,,,,,,,,,,,,,,,,,,,,,,,,,,,,,,,,,,,,
0,45,45,41,1,,5e8208d95442a6028e919b7f,62c539ed9c20d67962129e59,2022-07-06_09h31.54.064,Colour_Asymmetry_Pilot,2022.1.3,Win32,58.91363261,62c50e9c1127f2cd403a315f,,,,,,,,,,,,,,,,,,,,,,,,,,,,,,,,,,,,,,,,,,,,,,,,,,,,,,,,,,,,,,,,,,,,,,,,,,,,,,,,,,,,,,,,,,,,,,,,,,,,,,,,,,,,,,,,,,,,,,,,,,,,,,,,,,,,,,,,,,,,,,,,,,,,,,,,,,,,,,,,,,
0,46,46,6,1,,5e8208d95442a6028e919b7f,62c539ed9c20d67962129e59,2022-07-06_09h31.54.064,Colour_Asymmetry_Pilot,2022.1.3,Win32,58.91363261,62c50e9c1127f2cd403a315f,,,,,,,,,,,,,,,,,,,,,,,,,,,,,,,,,,,,,,,,,,,,,,,,,,,,,,,,,,,,,,,,,,,,,,,,,,,,,,,,,,,,,,,,,,,,,,,,,,,,,,,,,,,,,,,,,,,,,,,,,,,,,,,,,,,,,,,,,,,,,,,,,,,,,,,,,,,,,,,,,,
0,47,47,35,1,,5e8208d95442a6028e919b7f,62c539ed9c20d67962129e59,2022-07-06_09h31.54.064,Colour_Asymmetry_Pilot,2022.1.3,Win32,58.91363261,62c50e9c1127f2cd403a315f,,,,,,,,,,,,,,,,,,,,,,,,,,,,,,,,,,,,,,,,,,,,,,,,,,,,,,,,,,,,,,,,,,,,,,,,,,,,,,,,,,,,,,,,,,,,,,,,,,,,,,,,,,,,,,,,,,,,,,,,,,,,,,,,,,,,,,,,,,,,,,,,,,,,,,,,,,,,,,,,,,
0,48,48,2,1,,5e8208d95442a6028e919b7f,62c539ed9c20d67962129e59,2022-07-06_09h31.54.064,Colour_Asymmetry_Pilot,2022.1.3,Win32,58.91363261,62c50e9c1127f2cd403a315f,,,,,,,,,,,,,,,,,,,,,,,,,,,,,,,,,,,,,,,,,,,,,,,,,,,,,,,,,,,,,,,,,,,,,,,,,,,,,,,,,,,,,,,,,,,,,,,,,,,,,,,,,,,,,,,,,,,,,,,,,,,,,,,,,,,,,,,,,,,,,,,,,,,,,,,,,,,,,,,,,,
0,49,49,45,1,,5e8208d95442a6028e919b7f,62c539ed9c20d67962129e59,2022-07-06_09h31.54.064,Colour_Asymmetry_Pilot,2022.1.3,Win32,58.91363261,62c50e9c1127f2cd403a315f,,,,,,,,,,,,,,,,,,,,,,,,,,,,,,,,,,,,,,,,,,,,,,,,,,,,,,,,,,,,,,,,,,,,,,,,,,,,,,,,,,,,,,,,,,,,,,,,,,,,,,,,,,,,,,,,,,,,,,,,,,,,,,,,,,,,,,,,,,,,,,,,,,,,,,,,,,,,,,,,,,
0,50,50,60,1,,5e8208d95442a6028e919b7f,62c539ed9c20d67962129e59,2022-07-06_09h31.54.064,Colour_Asymmetry_Pilot,2022.1.3,Win32,58.91363261,62c50e9c1127f2cd403a315f,,,,,,,,,,,,,,,,,,,,,,,,,,,,,,,,,,,,,,,,,,,,,,,,,,,,,,,,,,,,,,,,,,,,,,,,,,,,,,,,,,,,,,,,,,,,,,,,,,,,,,,,,,,,,,,,,,,,,,,,,,,,,,,,,,,,,,,,,,,,,,,,,,,,,,,,,,,,,,,,,,
0,51,51,55,1,,5e8208d95442a6028e919b7f,62c539ed9c20d67962129e59,2022-07-06_09h31.54.064,Colour_Asymmetry_Pilot,2022.1.3,Win32,58.91363261,62c50e9c1127f2cd403a315f,,,,,,,,,,,,,,,,,,,,,,,,,,,,,,,,,,,,,,,,,,,,,,,,,,,,,,,,,,,,,,,,,,,,,,,,,,,,,,,,,,,,,,,,,,,,,,,,,,,,,,,,,,,,,,,,,,,,,,,,,,,,,,,,,,,,,,,,,,,,,,,,,,,,,,,,,,,,,,,,,,
0,52,52,26,1,,5e8208d95442a6028e919b7f,62c539ed9c20d67962129e59,2022-07-06_09h31.54.064,Colour_Asymmetry_Pilot,2022.1.3,Win32,58.91363261,62c50e9c1127f2cd403a315f,,,,,,,,,,,,,,,,,,,,,,,,,,,,,,,,,,,,,,,,,,,,,,,,,,,,,,,,,,,,,,,,,,,,,,,,,,,,,,,,,,,,,,,,,,,,,,,,,,,,,,,,,,,,,,,,,,,,,,,,,,,,,,,,,,,,,,,,,,,,,,,,,,,,,,,,,,,,,,,,,,
0,53,53,65,1,,5e8208d95442a6028e919b7f,62c539ed9c20d67962129e59,2022-07-06_09h31.54.064,Colour_Asymmetry_Pilot,2022.1.3,Win32,58.91363261,62c50e9c1127f2cd403a315f,,,,,,,,,,,,,,,,,,,,,,,,,,,,,,,,,,,,,,,,,,,,,,,,,,,,,,,,,,,,,,,,,,,,,,,,,,,,,,,,,,,,,,,,,,,,,,,,,,,,,,,,,,,,,,,,,,,,,,,,,,,,,,,,,,,,,,,,,,,,,,,,,,,,,,,,,,,,,,,,,,
0,54,54,75,1,,5e8208d95442a6028e919b7f,62c539ed9c20d67962129e59,2022-07-06_09h31.54.064,Colour_Asymmetry_Pilot,2022.1.3,Win32,58.91363261,62c50e9c1127f2cd403a315f,,,,,,,,,,,,,,,,,,,,,,,,,,,,,,,,,,,,,,,,,,,,,,,,,,,,,,,,,,,,,,,,,,,,,,,,,,,,,,,,,,,,,,,,,,,,,,,,,,,,,,,,,,,,,,,,,,,,,,,,,,,,,,,,,,,,,,,,,,,,,,,,,,,,,,,,,,,,,,,,,,
0,55,55,20,1,,5e8208d95442a6028e919b7f,62c539ed9c20d67962129e59,2022-07-06_09h31.54.064,Colour_Asymmetry_Pilot,2022.1.3,Win32,58.91363261,62c50e9c1127f2cd403a315f,,,,,,,,,,,,,,,,,,,,,,,,,,,,,,,,,,,,,,,,,,,,,,,,,,,,,,,,,,,,,,,,,,,,,,,,,,,,,,,,,,,,,,,,,,,,,,,,,,,,,,,,,,,,,,,,,,,,,,,,,,,,,,,,,,,,,,,,,,,,,,,,,,,,,,,,,,,,,,,,,,
0,56,56,42,1,,5e8208d95442a6028e919b7f,62c539ed9c20d67962129e59,2022-07-06_09h31.54.064,Colour_Asymmetry_Pilot,2022.1.3,Win32,58.91363261,62c50e9c1127f2cd403a315f,,,,,,,,,,,,,,,,,,,,,,,,,,,,,,,,,,,,,,,,,,,,,,,,,,,,,,,,,,,,,,,,,,,,,,,,,,,,,,,,,,,,,,,,,,,,,,,,,,,,,,,,,,,,,,,,,,,,,,,,,,,,,,,,,,,,,,,,,,,,,,,,,,,,,,,,,,,,,,,,,,
0,57,57,52,1,,5e8208d95442a6028e919b7f,62c539ed9c20d67962129e59,2022-07-06_09h31.54.064,Colour_Asymmetry_Pilot,2022.1.3,Win32,58.91363261,62c50e9c1127f2cd403a315f,,,,,,,,,,,,,,,,,,,,,,,,,,,,,,,,,,,,,,,,,,,,,,,,,,,,,,,,,,,,,,,,,,,,,,,,,,,,,,,,,,,,,,,,,,,,,,,,,,,,,,,,,,,,,,,,,,,,,,,,,,,,,,,,,,,,,,,,,,,,,,,,,,,,,,,,,,,,,,,,,,
0,58,58,29,1,,5e8208d95442a6028e919b7f,62c539ed9c20d67962129e59,2022-07-06_09h31.54.064,Colour_Asymmetry_Pilot,2022.1.3,Win32,58.91363261,62c50e9c1127f2cd403a315f,,,,,,,,,,,,,,,,,,,,,,,,,,,,,,,,,,,,,,,,,,,,,,,,,,,,,,,,,,,,,,,,,,,,,,,,,,,,,,,,,,,,,,,,,,,,,,,,,,,,,,,,,,,,,,,,,,,,,,,,,,,,,,,,,,,,,,,,,,,,,,,,,,,,,,,,,,,,,,,,,,
0,59,59,53,1,,5e8208d95442a6028e919b7f,62c539ed9c20d67962129e59,2022-07-06_09h31.54.064,Colour_Asymmetry_Pilot,2022.1.3,Win32,58.91363261,62c50e9c1127f2cd403a315f,,,,,,,,,,,,,,,,,,,,,,,,,,,,,,,,,,,,,,,,,,,,,,,,,,,,,,,,,,,,,,,,,,,,,,,,,,,,,,,,,,,,,,,,,,,,,,,,,,,,,,,,,,,,,,,,,,,,,,,,,,,,,,,,,,,,,,,,,,,,,,,,,,,,,,,,,,,,,,,,,,
0,60,60,81,1,,5e8208d95442a6028e919b7f,62c539ed9c20d67962129e59,2022-07-06_09h31.54.064,Colour_Asymmetry_Pilot,2022.1.3,Win32,58.91363261,62c50e9c1127f2cd403a315f,,,,,,,,,,,,,,,,,,,,,,,,,,,,,,,,,,,,,,,,,,,,,,,,,,,,,,,,,,,,,,,,,,,,,,,,,,,,,,,,,,,,,,,,,,,,,,,,,,,,,,,,,,,,,,,,,,,,,,,,,,,,,,,,,,,,,,,,,,,,,,,,,,,,,,,,,,,,,,,,,,
0,61,61,0,1,,5e8208d95442a6028e919b7f,62c539ed9c20d67962129e59,2022-07-06_09h31.54.064,Colour_Asymmetry_Pilot,2022.1.3,Win32,58.91363261,62c50e9c1127f2cd403a315f,,,,,,,,,,,,,,,,,,,,,,,,,,,,,,,,,,,,,,,,,,,,,,,,,,,,,,,,,,,,,,,,,,,,,,,,,,,,,,,,,,,,,,,,,,,,,,,,,,,,,,,,,,,,,,,,,,,,,,,,,,,,,,,,,,,,,,,,,,,,,,,,,,,,,,,,,,,,,,,,,,
0,62,62,64,1,,5e8208d95442a6028e919b7f,62c539ed9c20d67962129e59,2022-07-06_09h31.54.064,Colour_Asymmetry_Pilot,2022.1.3,Win32,58.91363261,62c50e9c1127f2cd403a315f,,,,,,,,,,,,,,,,,,,,,,,,,,,,,,,,,,,,,,,,,,,,,,,,,,,,,,,,,,,,,,,,,,,,,,,,,,,,,,,,,,,,,,,,,,,,,,,,,,,,,,,,,,,,,,,,,,,,,,,,,,,,,,,,,,,,,,,,,,,,,,,,,,,,,,,,,,,,,,,,,,
0,63,63,43,1,,5e8208d95442a6028e919b7f,62c539ed9c20d67962129e59,2022-07-06_09h31.54.064,Colour_Asymmetry_Pilot,2022.1.3,Win32,58.91363261,62c50e9c1127f2cd403a315f,,,,,,,,,,,,,,,,,,,,,,,,,,,,,,,,,,,,,,,,,,,,,,,,,,,,,,,,,,,,,,,,,,,,,,,,,,,,,,,,,,,,,,,,,,,,,,,,,,,,,,,,,,,,,,,,,,,,,,,,,,,,,,,,,,,,,,,,,,,,,,,,,,,,,,,,,,,,,,,,,,
0,64,64,84,1,,5e8208d95442a6028e919b7f,62c539ed9c20d67962129e59,2022-07-06_09h31.54.064,Colour_Asymmetry_Pilot,2022.1.3,Win32,58.91363261,62c50e9c1127f2cd403a315f,,,,,,,,,,,,,,,,,,,,,,,,,,,,,,,,,,,,,,,,,,,,,,,,,,,,,,,,,,,,,,,,,,,,,,,,,,,,,,,,,,,,,,,,,,,,,,,,,,,,,,,,,,,,,,,,,,,,,,,,,,,,,,,,,,,,,,,,,,,,,,,,,,,,,,,,,,,,,,,,,,
0,65,65,39,1,,5e8208d95442a6028e919b7f,62c539ed9c20d67962129e59,2022-07-06_09h31.54.064,Colour_Asymmetry_Pilot,2022.1.3,Win32,58.91363261,62c50e9c1127f2cd403a315f,,,,,,,,,,,,,,,,,,,,,,,,,,,,,,,,,,,,,,,,,,,,,,,,,,,,,,,,,,,,,,,,,,,,,,,,,,,,,,,,,,,,,,,,,,,,,,,,,,,,,,,,,,,,,,,,,,,,,,,,,,,,,,,,,,,,,,,,,,,,,,,,,,,,,,,,,,,,,,,,,,
0,66,66,47,1,,5e8208d95442a6028e919b7f,62c539ed9c20d67962129e59,2022-07-06_09h31.54.064,Colour_Asymmetry_Pilot,2022.1.3,Win32,58.91363261,62c50e9c1127f2cd403a315f,,,,,,,,,,,,,,,,,,,,,,,,,,,,,,,,,,,,,,,,,,,,,,,,,,,,,,,,,,,,,,,,,,,,,,,,,,,,,,,,,,,,,,,,,,,,,,,,,,,,,,,,,,,,,,,,,,,,,,,,,,,,,,,,,,,,,,,,,,,,,,,,,,,,,,,,,,,,,,,,,,
0,67,67,27,1,,5e8208d95442a6028e919b7f,62c539ed9c20d67962129e59,2022-07-06_09h31.54.064,Colour_Asymmetry_Pilot,2022.1.3,Win32,58.91363261,62c50e9c1127f2cd403a315f,,,,,,,,,,,,,,,,,,,,,,,,,,,,,,,,,,,,,,,,,,,,,,,,,,,,,,,,,,,,,,,,,,,,,,,,,,,,,,,,,,,,,,,,,,,,,,,,,,,,,,,,,,,,,,,,,,,,,,,,,,,,,,,,,,,,,,,,,,,,,,,,,,,,,,,,,,,,,,,,,,
0,68,68,72,1,,5e8208d95442a6028e919b7f,62c539ed9c20d67962129e59,2022-07-06_09h31.54.064,Colour_Asymmetry_Pilot,2022.1.3,Win32,58.91363261,62c50e9c1127f2cd403a315f,,,,,,,,,,,,,,,,,,,,,,,,,,,,,,,,,,,,,,,,,,,,,,,,,,,,,,,,,,,,,,,,,,,,,,,,,,,,,,,,,,,,,,,,,,,,,,,,,,,,,,,,,,,,,,,,,,,,,,,,,,,,,,,,,,,,,,,,,,,,,,,,,,,,,,,,,,,,,,,,,,
0,69,69,31,1,,5e8208d95442a6028e919b7f,62c539ed9c20d67962129e59,2022-07-06_09h31.54.064,Colour_Asymmetry_Pilot,2022.1.3,Win32,58.91363261,62c50e9c1127f2cd403a315f,,,,,,,,,,,,,,,,,,,,,,,,,,,,,,,,,,,,,,,,,,,,,,,,,,,,,,,,,,,,,,,,,,,,,,,,,,,,,,,,,,,,,,,,,,,,,,,,,,,,,,,,,,,,,,,,,,,,,,,,,,,,,,,,,,,,,,,,,,,,,,,,,,,,,,,,,,,,,,,,,,
0,70,70,67,1,,5e8208d95442a6028e919b7f,62c539ed9c20d67962129e59,2022-07-06_09h31.54.064,Colour_Asymmetry_Pilot,2022.1.3,Win32,58.91363261,62c50e9c1127f2cd403a315f,,,,,,,,,,,,,,,,,,,,,,,,,,,,,,,,,,,,,,,,,,,,,,,,,,,,,,,,,,,,,,,,,,,,,,,,,,,,,,,,,,,,,,,,,,,,,,,,,,,,,,,,,,,,,,,,,,,,,,,,,,,,,,,,,,,,,,,,,,,,,,,,,,,,,,,,,,,,,,,,,,
0,71,71,76,1,,5e8208d95442a6028e919b7f,62c539ed9c20d67962129e59,2022-07-06_09h31.54.064,Colour_Asymmetry_Pilot,2022.1.3,Win32,58.91363261,62c50e9c1127f2cd403a315f,,,,,,,,,,,,,,,,,,,,,,,,,,,,,,,,,,,,,,,,,,,,,,,,,,,,,,,,,,,,,,,,,,,,,,,,,,,,,,,,,,,,,,,,,,,,,,,,,,,,,,,,,,,,,,,,,,,,,,,,,,,,,,,,,,,,,,,,,,,,,,,,,,,,,,,,,,,,,,,,,,
0,72,72,48,1,,5e8208d95442a6028e919b7f,62c539ed9c20d67962129e59,2022-07-06_09h31.54.064,Colour_Asymmetry_Pilot,2022.1.3,Win32,58.91363261,62c50e9c1127f2cd403a315f,,,,,,,,,,,,,,,,,,,,,,,,,,,,,,,,,,,,,,,,,,,,,,,,,,,,,,,,,,,,,,,,,,,,,,,,,,,,,,,,,,,,,,,,,,,,,,,,,,,,,,,,,,,,,,,,,,,,,,,,,,,,,,,,,,,,,,,,,,,,,,,,,,,,,,,,,,,,,,,,,,
0,73,73,69,1,,5e8208d95442a6028e919b7f,62c539ed9c20d67962129e59,2022-07-06_09h31.54.064,Colour_Asymmetry_Pilot,2022.1.3,Win32,58.91363261,62c50e9c1127f2cd403a315f,,,,,,,,,,,,,,,,,,,,,,,,,,,,,,,,,,,,,,,,,,,,,,,,,,,,,,,,,,,,,,,,,,,,,,,,,,,,,,,,,,,,,,,,,,,,,,,,,,,,,,,,,,,,,,,,,,,,,,,,,,,,,,,,,,,,,,,,,,,,,,,,,,,,,,,,,,,,,,,,,,
0,74,74,83,1,,5e8208d95442a6028e919b7f,62c539ed9c20d67962129e59,2022-07-06_09h31.54.064,Colour_Asymmetry_Pilot,2022.1.3,Win32,58.91363261,62c50e9c1127f2cd403a315f,,,,,,,,,,,,,,,,,,,,,,,,,,,,,,,,,,,,,,,,,,,,,,,,,,,,,,,,,,,,,,,,,,,,,,,,,,,,,,,,,,,,,,,,,,,,,,,,,,,,,,,,,,,,,,,,,,,,,,,,,,,,,,,,,,,,,,,,,,,,,,,,,,,,,,,,,,,,,,,,,,
0,75,75,77,1,,5e8208d95442a6028e919b7f,62c539ed9c20d67962129e59,2022-07-06_09h31.54.064,Colour_Asymmetry_Pilot,2022.1.3,Win32,58.91363261,62c50e9c1127f2cd403a315f,,,,,,,,,,,,,,,,,,,,,,,,,,,,,,,,,,,,,,,,,,,,,,,,,,,,,,,,,,,,,,,,,,,,,,,,,,,,,,,,,,,,,,,,,,,,,,,,,,,,,,,,,,,,,,,,,,,,,,,,,,,,,,,,,,,,,,,,,,,,,,,,,,,,,,,,,,,,,,,,,,
0,76,76,9,1,,5e8208d95442a6028e919b7f,62c539ed9c20d67962129e59,2022-07-06_09h31.54.064,Colour_Asymmetry_Pilot,2022.1.3,Win32,58.91363261,62c50e9c1127f2cd403a315f,,,,,,,,,,,,,,,,,,,,,,,,,,,,,,,,,,,,,,,,,,,,,,,,,,,,,,,,,,,,,,,,,,,,,,,,,,,,,,,,,,,,,,,,,,,,,,,,,,,,,,,,,,,,,,,,,,,,,,,,,,,,,,,,,,,,,,,,,,,,,,,,,,,,,,,,,,,,,,,,,,
0,77,77,73,1,,5e8208d95442a6028e919b7f,62c539ed9c20d67962129e59,2022-07-06_09h31.54.064,Colour_Asymmetry_Pilot,2022.1.3,Win32,58.91363261,62c50e9c1127f2cd403a315f,,,,,,,,,,,,,,,,,,,,,,,,,,,,,,,,,,,,,,,,,,,,,,,,,,,,,,,,,,,,,,,,,,,,,,,,,,,,,,,,,,,,,,,,,,,,,,,,,,,,,,,,,,,,,,,,,,,,,,,,,,,,,,,,,,,,,,,,,,,,,,,,,,,,,,,,,,,,,,,,,,
0,78,78,79,1,,5e8208d95442a6028e919b7f,62c539ed9c20d67962129e59,2022-07-06_09h31.54.064,Colour_Asymmetry_Pilot,2022.1.3,Win32,58.91363261,62c50e9c1127f2cd403a315f,,,,,,,,,,,,,,,,,,,,,,,,,,,,,,,,,,,,,,,,,,,,,,,,,,,,,,,,,,,,,,,,,,,,,,,,,,,,,,,,,,,,,,,,,,,,,,,,,,,,,,,,,,,,,,,,,,,,,,,,,,,,,,,,,,,,,,,,,,,,,,,,,,,,,,,,,,,,,,,,,,
0,79,79,12,1,,5e8208d95442a6028e919b7f,62c539ed9c20d67962129e59,2022-07-06_09h31.54.064,Colour_Asymmetry_Pilot,2022.1.3,Win32,58.91363261,62c50e9c1127f2cd403a315f,,,,,,,,,,,,,,,,,,,,,,,,,,,,,,,,,,,,,,,,,,,,,,,,,,,,,,,,,,,,,,,,,,,,,,,,,,,,,,,,,,,,,,,,,,,,,,,,,,,,,,,,,,,,,,,,,,,,,,,,,,,,,,,,,,,,,,,,,,,,,,,,,,,,,,,,,,,,,,,,,,
0,80,80,57,1,,5e8208d95442a6028e919b7f,62c539ed9c20d67962129e59,2022-07-06_09h31.54.064,Colour_Asymmetry_Pilot,2022.1.3,Win32,58.91363261,62c50e9c1127f2cd403a315f,,,,,,,,,,,,,,,,,,,,,,,,,,,,,,,,,,,,,,,,,,,,,,,,,,,,,,,,,,,,,,,,,,,,,,,,,,,,,,,,,,,,,,,,,,,,,,,,,,,,,,,,,,,,,,,,,,,,,,,,,,,,,,,,,,,,,,,,,,,,,,,,,,,,,,,,,,,,,,,,,,
0,81,81,78,1,,5e8208d95442a6028e919b7f,62c539ed9c20d67962129e59,2022-07-06_09h31.54.064,Colour_Asymmetry_Pilot,2022.1.3,Win32,58.91363261,62c50e9c1127f2cd403a315f,,,,,,,,,,,,,,,,,,,,,,,,,,,,,,,,,,,,,,,,,,,,,,,,,,,,,,,,,,,,,,,,,,,,,,,,,,,,,,,,,,,,,,,,,,,,,,,,,,,,,,,,,,,,,,,,,,,,,,,,,,,,,,,,,,,,,,,,,,,,,,,,,,,,,,,,,,,,,,,,,,
0,82,82,28,1,,5e8208d95442a6028e919b7f,62c539ed9c20d67962129e59,2022-07-06_09h31.54.064,Colour_Asymmetry_Pilot,2022.1.3,Win32,58.91363261,62c50e9c1127f2cd403a315f,,,,,,,,,,,,,,,,,,,,,,,,,,,,,,,,,,,,,,,,,,,,,,,,,,,,,,,,,,,,,,,,,,,,,,,,,,,,,,,,,,,,,,,,,,,,,,,,,,,,,,,,,,,,,,,,,,,,,,,,,,,,,,,,,,,,,,,,,,,,,,,,,,,,,,,,,,,,,,,,,,
0,83,83,18,1,,5e8208d95442a6028e919b7f,62c539ed9c20d67962129e59,2022-07-06_09h31.54.064,Colour_Asymmetry_Pilot,2022.1.3,Win32,58.91363261,62c50e9c1127f2cd403a315f,,,,,,,,,,,,,,,,,,,,,,,,,,,,,,,,,,,,,,,,,,,,,,,,,,,,,,,,,,,,,,,,,,,,,,,,,,,,,,,,,,,,,,,,,,,,,,,,,,,,,,,,,,,,,,,,,,,,,,,,,,,,,,,,,,,,,,,,,,,,,,,,,,,,,,,,,,,,,,,,,,
0,84,84,22,1,,5e8208d95442a6028e919b7f,62c539ed9c20d67962129e59,2022-07-06_09h31.54.064,Colour_Asymmetry_Pilot,2022.1.3,Win32,58.91363261,62c50e9c1127f2cd403a315f,,,,,,,,,,,,,,,,,,,,,,,,,,,,,,,,,,,,,,,,,,,,,,,,,,,,,,,,,,,,,,,,,,,,,,,,,,,,,,,,,,,,,,,,,,,,,,,,,,,,,,,,,,,,,,,,,,,,,,,,,,,,,,,,,,,,,,,,,,,,,,,,,,,,,,,,,,,,,,,,,,
0,85,85,23,1,,5e8208d95442a6028e919b7f,62c539ed9c20d67962129e59,2022-07-06_09h31.54.064,Colour_Asymmetry_Pilot,2022.1.3,Win32,58.91363261,62c50e9c1127f2cd403a315f,,,,,,,,,,,,,,,,,,,,,,,,,,,,,,,,,,,,,,,,,,,,,,,,,,,,,,,,,,,,,,,,,,,,,,,,,,,,,,,,,,,,,,,,,,,,,,,,,,,,,,,,,,,,,,,,,,,,,,,,,,,,,,,,,,,,,,,,,,,,,,,,,,,,,,,,,,,,,,,,,,
0,86,86,37,1,,5e8208d95442a6028e919b7f,62c539ed9c20d67962129e59,2022-07-06_09h31.54.064,Colour_Asymmetry_Pilot,2022.1.3,Win32,58.91363261,62c50e9c1127f2cd403a315f,,,,,,,,,,,,,,,,,,,,,,,,,,,,,,,,,,,,,,,,,,,,,,,,,,,,,,,,,,,,,,,,,,,,,,,,,,,,,,,,,,,,,,,,,,,,,,,,,,,,,,,,,,,,,,,,,,,,,,,,,,,,,,,,,,,,,,,,,,,,,,,,,,,,,,,,,,,,,,,,,,
0,87,87,89,1,,5e8208d95442a6028e919b7f,62c539ed9c20d67962129e59,2022-07-06_09h31.54.064,Colour_Asymmetry_Pilot,2022.1.3,Win32,58.91363261,62c50e9c1127f2cd403a315f,,,,,,,,,,,,,,,,,,,,,,,,,,,,,,,,,,,,,,,,,,,,,,,,,,,,,,,,,,,,,,,,,,,,,,,,,,,,,,,,,,,,,,,,,,,,,,,,,,,,,,,,,,,,,,,,,,,,,,,,,,,,,,,,,,,,,,,,,,,,,,,,,,,,,,,,,,,,,,,,,,
0,88,88,21,1,,5e8208d95442a6028e919b7f,62c539ed9c20d67962129e59,2022-07-06_09h31.54.064,Colour_Asymmetry_Pilot,2022.1.3,Win32,58.91363261,62c50e9c1127f2cd403a315f,,,,,,,,,,,,,,,,,,,,,,,,,,,,,,,,,,,,,,,,,,,,,,,,,,,,,,,,,,,,,,,,,,,,,,,,,,,,,,,,,,,,,,,,,,,,,,,,,,,,,,,,,,,,,,,,,,,,,,,,,,,,,,,,,,,,,,,,,,,,,,,,,,,,,,,,,,,,,,,,,,
0,89,89,30,1,,5e8208d95442a6028e919b7f,62c539ed9c20d67962129e59,2022-07-06_09h31.54.064,Colour_Asymmetry_Pilot,2022.1.3,Win32,58.91363261,62c50e9c1127f2cd403a315f,,,,,,,,,,,,,,,,,,,,,,,,,,,,,,,,,,,,,,,,,,,,,,,,,,,,,,,,,,,,,,,,,,,,,,,,,,,,,,,,,,,,,,,,,,,,,,,,,,,,,,,,,,,,,,,,,,,,,,,,,,,,,,,,,,,,,,,,,,,,,,,,,,,,,,,,,,,,,,,,,,
0,90,90,5,1,,5e8208d95442a6028e919b7f,62c539ed9c20d67962129e59,2022-07-06_09h31.54.064,Colour_Asymmetry_Pilot,2022.1.3,Win32,58.91363261,62c50e9c1127f2cd403a315f,,,,,,,,,,,,,,,,,,,,,,,,,,,,,,,,,,,,,,,,,,,,,,,,,,,,,,,,,,,,,,,,,,,,,,,,,,,,,,,,,,,,,,,,,,,,,,,,,,,,,,,,,,,,,,,,,,,,,,,,,,,,,,,,,,,,,,,,,,,,,,,,,,,,,,,,,,,,,,,,,,
0,91,91,19,1,,5e8208d95442a6028e919b7f,62c539ed9c20d67962129e59,2022-07-06_09h31.54.064,Colour_Asymmetry_Pilot,2022.1.3,Win32,58.91363261,62c50e9c1127f2cd403a315f,,,,,,,,,,,,,,,,,,,,,,,,,,,,,,,,,,,,,,,,,,,,,,,,,,,,,,,,,,,,,,,,,,,,,,,,,,,,,,,,,,,,,,,,,,,,,,,,,,,,,,,,,,,,,,,,,,,,,,,,,,,,,,,,,,,,,,,,,,,,,,,,,,,,,,,,,,,,,,,,,,
0,92,92,62,1,,5e8208d95442a6028e919b7f,62c539ed9c20d67962129e59,2022-07-06_09h31.54.064,Colour_Asymmetry_Pilot,2022.1.3,Win32,58.91363261,62c50e9c1127f2cd403a315f,,,,,,,,,,,,,,,,,,,,,,,,,,,,,,,,,,,,,,,,,,,,,,,,,,,,,,,,,,,,,,,,,,,,,,,,,,,,,,,,,,,,,,,,,,,,,,,,,,,,,,,,,,,,,,,,,,,,,,,,,,,,,,,,,,,,,,,,,,,,,,,,,,,,,,,,,,,,,,,,,,
,,,,,,5e8208d95442a6028e919b7f,62c539ed9c20d67962129e59,2022-07-06_09h31.54.064,Colour_Asymmetry_Pilot,2022.1.3,Win32,58.91363261,62c50e9c1127f2cd403a315f,0,0,0,149,1,threefour,,,,,,,,,,,,,,,,,,,,,,,,,,,,,,,,,,,,,,,,,,,,,,,,,,,,,,,,,,,,,,,,,,,,,,,,,,,,,,,,,,,,,,,,,,,,,,,,,,,,,,,,,,,,,,,,,,,,,,,,,,,,,,,,,,,,,,,,,,,,,,,,,,,,,,,,,,,,
,,,,,,5e8208d95442a6028e919b7f,62c539ed9c20d67962129e59,2022-07-06_09h31.54.064,Colour_Asymmetry_Pilot,2022.1.3,Win32,58.91363261,62c50e9c1127f2cd403a315f,0,1,1,3,1,twofour,,,,,,,,,,,,,,,,,,,,,,,,,,,,,,,,,,,,,,,,,,,,,,,,,,,,,,,,,,,,,,,,,,,,,,,,,,,,,,,,,,,,,,,,,,,,,,,,,,,,,,,,,,,,,,,,,,,,,,,,,,,,,,,,,,,,,,,,,,,,,,,,,,,,,,,,,,,,
,,,,,,5e8208d95442a6028e919b7f,62c539ed9c20d67962129e59,2022-07-06_09h31.54.064,Colour_Asymmetry_Pilot,2022.1.3,Win32,58.91363261,62c50e9c1127f2cd403a315f,0,2,2,60,1,threeone,,,,,,,,,,,,,,,,,,,,,,,,,,,,,,,,,,,,,,,,,,,,,,,,,,,,,,,,,,,,,,,,,,,,,,,,,,,,,,,,,,,,,,,,,,,,,,,,,,,,,,,,,,,,,,,,,,,,,,,,,,,,,,,,,,,,,,,,,,,,,,,,,,,,,,,,,,,,
,,,,,,5e8208d95442a6028e919b7f,62c539ed9c20d67962129e59,2022-07-06_09h31.54.064,Colour_Asymmetry_Pilot,2022.1.3,Win32,58.91363261,62c50e9c1127f2cd403a315f,0,3,3,53,1,threefour,,,,,,,,,,,,,,,,,,,,,,,,,,,,,,,,,,,,,,,,,,,,,,,,,,,,,,,,,,,,,,,,,,,,,,,,,,,,,,,,,,,,,,,,,,,,,,,,,,,,,,,,,,,,,,,,,,,,,,,,,,,,,,,,,,,,,,,,,,,,,,,,,,,,,,,,,,,,
,,,,,,5e8208d95442a6028e919b7f,62c539ed9c20d67962129e59,2022-07-06_09h31.54.064,Colour_Asymmetry_Pilot,2022.1.3,Win32,58.91363261,62c50e9c1127f2cd403a315f,0,4,4,34,1,twoone,,,,,,,,,,,,,,,,,,,,,,,,,,,,,,,,,,,,,,,,,,,,,,,,,,,,,,,,,,,,,,,,,,,,,,,,,,,,,,,,,,,,,,,,,,,,,,,,,,,,,,,,,,,,,,,,,,,,,,,,,,,,,,,,,,,,,,,,,,,,,,,,,,,,,,,,,,,,
,,,,,,5e8208d95442a6028e919b7f,62c539ed9c20d67962129e59,2022-07-06_09h31.54.064,Colour_Asymmetry_Pilot,2022.1.3,Win32,58.91363261,62c50e9c1127f2cd403a315f,0,5,5,61,1,threefour,,,,,,,,,,,,,,,,,,,,,,,,,,,,,,,,,,,,,,,,,,,,,,,,,,,,,,,,,,,,,,,,,,,,,,,,,,,,,,,,,,,,,,,,,,,,,,,,,,,,,,,,,,,,,,,,,,,,,,,,,,,,,,,,,,,,,,,,,,,,,,,,,,,,,,,,,,,,
,,,,,,5e8208d95442a6028e919b7f,62c539ed9c20d67962129e59,2022-07-06_09h31.54.064,Colour_Asymmetry_Pilot,2022.1.3,Win32,58.91363261,62c50e9c1127f2cd403a315f,0,6,6,144,1,onetwo,,,,,,,,,,,,,,,,,,,,,,,,,,,,,,,,,,,,,,,,,,,,,,,,,,,,,,,,,,,,,,,,,,,,,,,,,,,,,,,,,,,,,,,,,,,,,,,,,,,,,,,,,,,,,,,,,,,,,,,,,,,,,,,,,,,,,,,,,,,,,,,,,,,,,,,,,,,,
,,,,,,5e8208d95442a6028e919b7f,62c539ed9c20d67962129e59,2022-07-06_09h31.54.064,Colour_Asymmetry_Pilot,2022.1.3,Win32,58.91363261,62c50e9c1127f2cd403a315f,0,7,7,67,1,twofour,,,,,,,,,,,,,,,,,,,,,,,,,,,,,,,,,,,,,,,,,,,,,,,,,,,,,,,,,,,,,,,,,,,,,,,,,,,,,,,,,,,,,,,,,,,,,,,,,,,,,,,,,,,,,,,,,,,,,,,,,,,,,,,,,,,,,,,,,,,,,,,,,,,,,,,,,,,,
,,,,,,5e8208d95442a6028e919b7f,62c539ed9c20d67962129e59,2022-07-06_09h31.54.064,Colour_Asymmetry_Pilot,2022.1.3,Win32,58.91363261,62c50e9c1127f2cd403a315f,0,8,8,71,1,fourthree,,,,,,,,,,,,,,,,,,,,,,,,,,,,,,,,,,,,,,,,,,,,,,,,,,,,,,,,,,,,,,,,,,,,,,,,,,,,,,,,,,,,,,,,,,,,,,,,,,,,,,,,,,,,,,,,,,,,,,,,,,,,,,,,,,,,,,,,,,,,,,,,,,,,,,,,,,,,
,,,,,,5e8208d95442a6028e919b7f,62c539ed9c20d67962129e59,2022-07-06_09h31.54.064,Colour_Asymmetry_Pilot,2022.1.3,Win32,58.91363261,62c50e9c1127f2cd403a315f,0,9,9,16,1,onetwo,,,,,,,,,,,,,,,,,,,,,,,,,,,,,,,,,,,,,,,,,,,,,,,,,,,,,,,,,,,,,,,,,,,,,,,,,,,,,,,,,,,,,,,,,,,,,,,,,,,,,,,,,,,,,,,,,,,,,,,,,,,,,,,,,,,,,,,,,,,,,,,,,,,,,,,,,,,,
,,,,,,5e8208d95442a6028e919b7f,62c539ed9c20d67962129e59,2022-07-06_09h31.54.064,Colour_Asymmetry_Pilot,2022.1.3,Win32,58.91363261,62c50e9c1127f2cd403a315f,0,10,10,104,1,onetwo,,,,,,,,,,,,,,,,,,,,,,,,,,,,,,,,,,,,,,,,,,,,,,,,,,,,,,,,,,,,,,,,,,,,,,,,,,,,,,,,,,,,,,,,,,,,,,,,,,,,,,,,,,,,,,,,,,,,,,,,,,,,,,,,,,,,,,,,,,,,,,,,,,,,,,,,,,,,
,,,,,,5e8208d95442a6028e919b7f,62c539ed9c20d67962129e59,2022-07-06_09h31.54.064,Colour_Asymmetry_Pilot,2022.1.3,Win32,58.91363261,62c50e9c1127f2cd403a315f,0,11,11,147,1,twofour,,,,,,,,,,,,,,,,,,,,,,,,,,,,,,,,,,,,,,,,,,,,,,,,,,,,,,,,,,,,,,,,,,,,,,,,,,,,,,,,,,,,,,,,,,,,,,,,,,,,,,,,,,,,,,,,,,,,,,,,,,,,,,,,,,,,,,,,,,,,,,,,,,,,,,,,,,,,
,,,,,,5e8208d95442a6028e919b7f,62c539ed9c20d67962129e59,2022-07-06_09h31.54.064,Colour_Asymmetry_Pilot,2022.1.3,Win32,58.91363261,62c50e9c1127f2cd403a315f,0,12,12,46,1,fourtwo,,,,,,,,,,,,,,,,,,,,,,,,,,,,,,,,,,,,,,,,,,,,,,,,,,,,,,,,,,,,,,,,,,,,,,,,,,,,,,,,,,,,,,,,,,,,,,,,,,,,,,,,,,,,,,,,,,,,,,,,,,,,,,,,,,,,,,,,,,,,,,,,,,,,,,,,,,,,
,,,,,,5e8208d95442a6028e919b7f,62c539ed9c20d67962129e59,2022-07-06_09h31.54.064,Colour_Asymmetry_Pilot,2022.1.3,Win32,58.91363261,62c50e9c1127f2cd403a315f,0,13,13,95,1,fourthree,,,,,,,,,,,,,,,,,,,,,,,,,,,,,,,,,,,,,,,,,,,,,,,,,,,,,,,,,,,,,,,,,,,,,,,,,,,,,,,,,,,,,,,,,,,,,,,,,,,,,,,,,,,,,,,,,,,,,,,,,,,,,,,,,,,,,,,,,,,,,,,,,,,,,,,,,,,,
,,,,,,5e8208d95442a6028e919b7f,62c539ed9c20d67962129e59,2022-07-06_09h31.54.064,Colour_Asymmetry_Pilot,2022.1.3,Win32,58.91363261,62c50e9c1127f2cd403a315f,0,14,14,7,1,fourthree,,,,,,,,,,,,,,,,,,,,,,,,,,,,,,,,,,,,,,,,,,,,,,,,,,,,,,,,,,,,,,,,,,,,,,,,,,,,,,,,,,,,,,,,,,,,,,,,,,,,,,,,,,,,,,,,,,,,,,,,,,,,,,,,,,,,,,,,,,,,,,,,,,,,,,,,,,,,
,,,,,,5e8208d95442a6028e919b7f,62c539ed9c20d67962129e59,2022-07-06_09h31.54.064,Colour_Asymmetry_Pilot,2022.1.3,Win32,58.91363261,62c50e9c1127f2cd403a315f,0,15,15,50,1,twoone,,,,,,,,,,,,,,,,,,,,,,,,,,,,,,,,,,,,,,,,,,,,,,,,,,,,,,,,,,,,,,,,,,,,,,,,,,,,,,,,,,,,,,,,,,,,,,,,,,,,,,,,,,,,,,,,,,,,,,,,,,,,,,,,,,,,,,,,,,,,,,,,,,,,,,,,,,,,
,,,,,,5e8208d95442a6028e919b7f,62c539ed9c20d67962129e59,2022-07-06_09h31.54.064,Colour_Asymmetry_Pilot,2022.1.3,Win32,58.91363261,62c50e9c1127f2cd403a315f,0,16,16,117,1,threefour,,,,,,,,,,,,,,,,,,,,,,,,,,,,,,,,,,,,,,,,,,,,,,,,,,,,,,,,,,,,,,,,,,,,,,,,,,,,,,,,,,,,,,,,,,,,,,,,,,,,,,,,,,,,,,,,,,,,,,,,,,,,,,,,,,,,,,,,,,,,,,,,,,,,,,,,,,,,
,,,,,,5e8208d95442a6028e919b7f,62c539ed9c20d67962129e59,2022-07-06_09h31.54.064,Colour_Asymmetry_Pilot,2022.1.3,Win32,58.91363261,62c50e9c1127f2cd403a315f,0,17,17,160,1,onetwo,,,,,,,,,,,,,,,,,,,,,,,,,,,,,,,,,,,,,,,,,,,,,,,,,,,,,,,,,,,,,,,,,,,,,,,,,,,,,,,,,,,,,,,,,,,,,,,,,,,,,,,,,,,,,,,,,,,,,,,,,,,,,,,,,,,,,,,,,,,,,,,,,,,,,,,,,,,,
,,,,,,5e8208d95442a6028e919b7f,62c539ed9c20d67962129e59,2022-07-06_09h31.54.064,Colour_Asymmetry_Pilot,2022.1.3,Win32,58.91363261,62c50e9c1127f2cd403a315f,0,18,18,142,1,fourtwo,,,,,,,,,,,,,,,,,,,,,,,,,,,,,,,,,,,,,,,,,,,,,,,,,,,,,,,,,,,,,,,,,,,,,,,,,,,,,,,,,,,,,,,,,,,,,,,,,,,,,,,,,,,,,,,,,,,,,,,,,,,,,,,,,,,,,,,,,,,,,,,,,,,,,,,,,,,,
,,,,,,5e8208d95442a6028e919b7f,62c539ed9c20d67962129e59,2022-07-06_09h31.54.064,Colour_Asymmetry_Pilot,2022.1.3,Win32,58.91363261,62c50e9c1127f2cd403a315f,0,19,19,133,1,threefour,,,,,,,,,,,,,,,,,,,,,,,,,,,,,,,,,,,,,,,,,,,,,,,,,,,,,,,,,,,,,,,,,,,,,,,,,,,,,,,,,,,,,,,,,,,,,,,,,,,,,,,,,,,,,,,,,,,,,,,,,,,,,,,,,,,,,,,,,,,,,,,,,,,,,,,,,,,,
,,,,,,5e8208d95442a6028e919b7f,62c539ed9c20d67962129e59,2022-07-06_09h31.54.064,Colour_Asymmetry_Pilot,2022.1.3,Win32,58.91363261,62c50e9c1127f2cd403a315f,0,20,20,82,1,twoone,,,,,,,,,,,,,,,,,,,,,,,,,,,,,,,,,,,,,,,,,,,,,,,,,,,,,,,,,,,,,,,,,,,,,,,,,,,,,,,,,,,,,,,,,,,,,,,,,,,,,,,,,,,,,,,,,,,,,,,,,,,,,,,,,,,,,,,,,,,,,,,,,,,,,,,,,,,,
,,,,,,5e8208d95442a6028e919b7f,62c539ed9c20d67962129e59,2022-07-06_09h31.54.064,Colour_Asymmetry_Pilot,2022.1.3,Win32,58.91363261,62c50e9c1127f2cd403a315f,0,21,21,13,1,threefour,,,,,,,,,,,,,,,,,,,,,,,,,,,,,,,,,,,,,,,,,,,,,,,,,,,,,,,,,,,,,,,,,,,,,,,,,,,,,,,,,,,,,,,,,,,,,,,,,,,,,,,,,,,,,,,,,,,,,,,,,,,,,,,,,,,,,,,,,,,,,,,,,,,,,,,,,,,,
,,,,,,5e8208d95442a6028e919b7f,62c539ed9c20d67962129e59,2022-07-06_09h31.54.064,Colour_Asymmetry_Pilot,2022.1.3,Win32,58.91363261,62c50e9c1127f2cd403a315f,0,22,22,115,1,twofour,,,,,,,,,,,,,,,,,,,,,,,,,,,,,,,,,,,,,,,,,,,,,,,,,,,,,,,,,,,,,,,,,,,,,,,,,,,,,,,,,,,,,,,,,,,,,,,,,,,,,,,,,,,,,,,,,,,,,,,,,,,,,,,,,,,,,,,,,,,,,,,,,,,,,,,,,,,,
,,,,,,5e8208d95442a6028e919b7f,62c539ed9c20d67962129e59,2022-07-06_09h31.54.064,Colour_Asymmetry_Pilot,2022.1.3,Win32,58.91363261,62c50e9c1127f2cd403a315f,0,23,23,93,1,threefour,,,,,,,,,,,,,,,,,,,,,,,,,,,,,,,,,,,,,,,,,,,,,,,,,,,,,,,,,,,,,,,,,,,,,,,,,,,,,,,,,,,,,,,,,,,,,,,,,,,,,,,,,,,,,,,,,,,,,,,,,,,,,,,,,,,,,,,,,,,,,,,,,,,,,,,,,,,,
,,,,,,5e8208d95442a6028e919b7f,62c539ed9c20d67962129e59,2022-07-06_09h31.54.064,Colour_Asymmetry_Pilot,2022.1.3,Win32,58.91363261,62c50e9c1127f2cd403a315f,0,24,24,96,1,onetwo,,,,,,,,,,,,,,,,,,,,,,,,,,,,,,,,,,,,,,,,,,,,,,,,,,,,,,,,,,,,,,,,,,,,,,,,,,,,,,,,,,,,,,,,,,,,,,,,,,,,,,,,,,,,,,,,,,,,,,,,,,,,,,,,,,,,,,,,,,,,,,,,,,,,,,,,,,,,
,,,,,,5e8208d95442a6028e919b7f,62c539ed9c20d67962129e59,2022-07-06_09h31.54.064,Colour_Asymmetry_Pilot,2022.1.3,Win32,58.91363261,62c50e9c1127f2cd403a315f,0,25,25,85,1,threefour,,,,,,,,,,,,,,,,,,,,,,,,,,,,,,,,,,,,,,,,,,,,,,,,,,,,,,,,,,,,,,,,,,,,,,,,,,,,,,,,,,,,,,,,,,,,,,,,,,,,,,,,,,,,,,,,,,,,,,,,,,,,,,,,,,,,,,,,,,,,,,,,,,,,,,,,,,,,
,,,,,,5e8208d95442a6028e919b7f,62c539ed9c20d67962129e59,2022-07-06_09h31.54.064,Colour_Asymmetry_Pilot,2022.1.3,Win32,58.91363261,62c50e9c1127f2cd403a315f,0,26,26,90,1,twoone,,,,,,,,,,,,,,,,,,,,,,,,,,,,,,,,,,,,,,,,,,,,,,,,,,,,,,,,,,,,,,,,,,,,,,,,,,,,,,,,,,,,,,,,,,,,,,,,,,,,,,,,,,,,,,,,,,,,,,,,,,,,,,,,,,,,,,,,,,,,,,,,,,,,,,,,,,,,
,,,,,,5e8208d95442a6028e919b7f,62c539ed9c20d67962129e59,2022-07-06_09h31.54.064,Colour_Asymmetry_Pilot,2022.1.3,Win32,58.91363261,62c50e9c1127f2cd403a315f,0,27,27,145,1,onethree,,,,,,,,,,,,,,,,,,,,,,,,,,,,,,,,,,,,,,,,,,,,,,,,,,,,,,,,,,,,,,,,,,,,,,,,,,,,,,,,,,,,,,,,,,,,,,,,,,,,,,,,,,,,,,,,,,,,,,,,,,,,,,,,,,,,,,,,,,,,,,,,,,,,,,,,,,,,
,,,,,,5e8208d95442a6028e919b7f,62c539ed9c20d67962129e59,2022-07-06_09h31.54.064,Colour_Asymmetry_Pilot,2022.1.3,Win32,58.91363261,62c50e9c1127f2cd403a315f,0,28,28,103,1,fourthree,,,,,,,,,,,,,,,,,,,,,,,,,,,,,,,,,,,,,,,,,,,,,,,,,,,,,,,,,,,,,,,,,,,,,,,,,,,,,,,,,,,,,,,,,,,,,,,,,,,,,,,,,,,,,,,,,,,,,,,,,,,,,,,,,,,,,,,,,,,,,,,,,,,,,,,,,,,,
,,,,,,5e8208d95442a6028e919b7f,62c539ed9c20d67962129e59,2022-07-06_09h31.54.064,Colour_Asymmetry_Pilot,2022.1.3,Win32,58.91363261,62c50e9c1127f2cd403a315f,0,29,29,89,1,onethree,,,,,,,,,,,,,,,,,,,,,,,,,,,,,,,,,,,,,,,,,,,,,,,,,,,,,,,,,,,,,,,,,,,,,,,,,,,,,,,,,,,,,,,,,,,,,,,,,,,,,,,,,,,,,,,,,,,,,,,,,,,,,,,,,,,,,,,,,,,,,,,,,,,,,,,,,,,,
,,,,,,5e8208d95442a6028e919b7f,62c539ed9c20d67962129e59,2022-07-06_09h31.54.064,Colour_Asymmetry_Pilot,2022.1.3,Win32,58.91363261,62c50e9c1127f2cd403a315f,0,30,30,157,1,threefour,,,,,,,,,,,,,,,,,,,,,,,,,,,,,,,,,,,,,,,,,,,,,,,,,,,,,,,,,,,,,,,,,,,,,,,,,,,,,,,,,,,,,,,,,,,,,,,,,,,,,,,,,,,,,,,,,,,,,,,,,,,,,,,,,,,,,,,,,,,,,,,,,,,,,,,,,,,,
,,,,,,5e8208d95442a6028e919b7f,62c539ed9c20d67962129e59,2022-07-06_09h31.54.064,Colour_Asymmetry_Pilot,2022.1.3,Win32,58.91363261,62c50e9c1127f2cd403a315f,0,31,31,52,1,threeone,,,,,,,,,,,,,,,,,,,,,,,,,,,,,,,,,,,,,,,,,,,,,,,,,,,,,,,,,,,,,,,,,,,,,,,,,,,,,,,,,,,,,,,,,,,,,,,,,,,,,,,,,,,,,,,,,,,,,,,,,,,,,,,,,,,,,,,,,,,,,,,,,,,,,,,,,,,,
,,,,,,5e8208d95442a6028e919b7f,62c539ed9c20d67962129e59,2022-07-06_09h31.54.064,Colour_Asymmetry_Pilot,2022.1.3,Win32,58.91363261,62c50e9c1127f2cd403a315f,0,32,32,139,1,twofour,,,,,,,,,,,,,,,,,,,,,,,,,,,,,,,,,,,,,,,,,,,,,,,,,,,,,,,,,,,,,,,,,,,,,,,,,,,,,,,,,,,,,,,,,,,,,,,,,,,,,,,,,,,,,,,,,,,,,,,,,,,,,,,,,,,,,,,,,,,,,,,,,,,,,,,,,,,,
,,,,,,5e8208d95442a6028e919b7f,62c539ed9c20d67962129e59,2022-07-06_09h31.54.064,Colour_Asymmetry_Pilot,2022.1.3,Win32,58.91363261,62c50e9c1127f2cd403a315f,0,33,33,33,1,onethree,,,,,,,,,,,,,,,,,,,,,,,,,,,,,,,,,,,,,,,,,,,,,,,,,,,,,,,,,,,,,,,,,,,,,,,,,,,,,,,,,,,,,,,,,,,,,,,,,,,,,,,,,,,,,,,,,,,,,,,,,,,,,,,,,,,,,,,,,,,,,,,,,,,,,,,,,,,,
,,,,,,5e8208d95442a6028e919b7f,62c539ed9c20d67962129e59,2022-07-06_09h31.54.064,Colour_Asymmetry_Pilot,2022.1.3,Win32,58.91363261,62c50e9c1127f2cd403a315f,0,34,34,5,1,threefour,,,,,,,,,,,,,,,,,,,,,,,,,,,,,,,,,,,,,,,,,,,,,,,,,,,,,,,,,,,,,,,,,,,,,,,,,,,,,,,,,,,,,,,,,,,,,,,,,,,,,,,,,,,,,,,,,,,,,,,,,,,,,,,,,,,,,,,,,,,,,,,,,,,,,,,,,,,,
,,,,,,5e8208d95442a6028e919b7f,62c539ed9c20d67962129e59,2022-07-06_09h31.54.064,Colour_Asymmetry_Pilot,2022.1.3,Win32,58.91363261,62c50e9c1127f2cd403a315f,0,35,35,15,1,fourthree,,,,,,,,,,,,,,,,,,,,,,,,,,,,,,,,,,,,,,,,,,,,,,,,,,,,,,,,,,,,,,,,,,,,,,,,,,,,,,,,,,,,,,,,,,,,,,,,,,,,,,,,,,,,,,,,,,,,,,,,,,,,,,,,,,,,,,,,,,,,,,,,,,,,,,,,,,,,
,,,,,,5e8208d95442a6028e919b7f,62c539ed9c20d67962129e59,2022-07-06_09h31.54.064,Colour_Asymmetry_Pilot,2022.1.3,Win32,58.91363261,62c50e9c1127f2cd403a315f,0,36,36,77,1,threefour,,,,,,,,,,,,,,,,,,,,,,,,,,,,,,,,,,,,,,,,,,,,,,,,,,,,,,,,,,,,,,,,,,,,,,,,,,,,,,,,,,,,,,,,,,,,,,,,,,,,,,,,,,,,,,,,,,,,,,,,,,,,,,,,,,,,,,,,,,,,,,,,,,,,,,,,,,,,
,,,,,,5e8208d95442a6028e919b7f,62c539ed9c20d67962129e59,2022-07-06_09h31.54.064,Colour_Asymmetry_Pilot,2022.1.3,Win32,58.91363261,62c50e9c1127f2cd403a315f,0,37,37,128,1,onetwo,,,,,,,,,,,,,,,,,,,,,,,,,,,,,,,,,,,,,,,,,,,,,,,,,,,,,,,,,,,,,,,,,,,,,,,,,,,,,,,,,,,,,,,,,,,,,,,,,,,,,,,,,,,,,,,,,,,,,,,,,,,,,,,,,,,,,,,,,,,,,,,,,,,,,,,,,,,,
,,,,,,5e8208d95442a6028e919b7f,62c539ed9c20d67962129e59,2022-07-06_09h31.54.064,Colour_Asymmetry_Pilot,2022.1.3,Win32,58.91363261,62c50e9c1127f2cd403a315f,0,38,38,51,1,twofour,,,,,,,,,,,,,,,,,,,,,,,,,,,,,,,,,,,,,,,,,,,,,,,,,,,,,,,,,,,,,,,,,,,,,,,,,,,,,,,,,,,,,,,,,,,,,,,,,,,,,,,,,,,,,,,,,,,,,,,,,,,,,,,,,,,,,,,,,,,,,,,,,,,,,,,,,,,,
,,,,,,5e8208d95442a6028e919b7f,62c539ed9c20d67962129e59,2022-07-06_09h31.54.064,Colour_Asymmetry_Pilot,2022.1.3,Win32,58.91363261,62c50e9c1127f2cd403a315f,0,39,39,136,1,onetwo,,,,,,,,,,,,,,,,,,,,,,,,,,,,,,,,,,,,,,,,,,,,,,,,,,,,,,,,,,,,,,,,,,,,,,,,,,,,,,,,,,,,,,,,,,,,,,,,,,,,,,,,,,,,,,,,,,,,,,,,,,,,,,,,,,,,,,,,,,,,,,,,,,,,,,,,,,,,
,,,,,,5e8208d95442a6028e919b7f,62c539ed9c20d67962129e59,2022-07-06_09h31.54.064,Colour_Asymmetry_Pilot,2022.1.3,Win32,58.91363261,62c50e9c1127f2cd403a315f,0,40,40,114,1,twoone,,,,,,,,,,,,,,,,,,,,,,,,,,,,,,,,,,,,,,,,,,,,,,,,,,,,,,,,,,,,,,,,,,,,,,,,,,,,,,,,,,,,,,,,,,,,,,,,,,,,,,,,,,,,,,,,,,,,,,,,,,,,,,,,,,,,,,,,,,,,,,,,,,,,,,,,,,,,
,,,,,,5e8208d95442a6028e919b7f,62c539ed9c20d67962129e59,2022-07-06_09h31.54.064,Colour_Asymmetry_Pilot,2022.1.3,Win32,58.91363261,62c50e9c1127f2cd403a315f,0,41,41,130,1,twoone,,,,,,,,,,,,,,,,,,,,,,,,,,,,,,,,,,,,,,,,,,,,,,,,,,,,,,,,,,,,,,,,,,,,,,,,,,,,,,,,,,,,,,,,,,,,,,,,,,,,,,,,,,,,,,,,,,,,,,,,,,,,,,,,,,,,,,,,,,,,,,,,,,,,,,,,,,,,
,,,,,,5e8208d95442a6028e919b7f,62c539ed9c20d67962129e59,2022-07-06_09h31.54.064,Colour_Asymmetry_Pilot,2022.1.3,Win32,58.91363261,62c50e9c1127f2cd403a315f,0,42,42,26,1,twoone,,,,,,,,,,,,,,,,,,,,,,,,,,,,,,,,,,,,,,,,,,,,,,,,,,,,,,,,,,,,,,,,,,,,,,,,,,,,,,,,,,,,,,,,,,,,,,,,,,,,,,,,,,,,,,,,,,,,,,,,,,,,,,,,,,,,,,,,,,,,,,,,,,,,,,,,,,,,
,,,,,,5e8208d95442a6028e919b7f,62c539ed9c20d67962129e59,2022-07-06_09h31.54.064,Colour_Asymmetry_Pilot,2022.1.3,Win32,58.91363261,62c50e9c1127f2cd403a315f,0,43,43,62,1,fourtwo,,,,,,,,,,,,,,,,,,,,,,,,,,,,,,,,,,,,,,,,,,,,,,,,,,,,,,,,,,,,,,,,,,,,,,,,,,,,,,,,,,,,,,,,,,,,,,,,,,,,,,,,,,,,,,,,,,,,,,,,,,,,,,,,,,,,,,,,,,,,,,,,,,,,,,,,,,,,
,,,,,,5e8208d95442a6028e919b7f,62c539ed9c20d67962129e59,2022-07-06_09h31.54.064,Colour_Asymmetry_Pilot,2022.1.3,Win32,58.91363261,62c50e9c1127f2cd403a315f,0,44,44,100,1,threeone,,,,,,,,,,,,,,,,,,,,,,,,,,,,,,,,,,,,,,,,,,,,,,,,,,,,,,,,,,,,,,,,,,,,,,,,,,,,,,,,,,,,,,,,,,,,,,,,,,,,,,,,,,,,,,,,,,,,,,,,,,,,,,,,,,,,,,,,,,,,,,,,,,,,,,,,,,,,
,,,,,,5e8208d95442a6028e919b7f,62c539ed9c20d67962129e59,2022-07-06_09h31.54.064,Colour_Asymmetry_Pilot,2022.1.3,Win32,58.91363261,62c50e9c1127f2cd403a315f,0,45,45,27,1,twofour,,,,,,,,,,,,,,,,,,,,,,,,,,,,,,,,,,,,,,,,,,,,,,,,,,,,,,,,,,,,,,,,,,,,,,,,,,,,,,,,,,,,,,,,,,,,,,,,,,,,,,,,,,,,,,,,,,,,,,,,,,,,,,,,,,,,,,,,,,,,,,,,,,,,,,,,,,,,
,,,,,,5e8208d95442a6028e919b7f,62c539ed9c20d67962129e59,2022-07-06_09h31.54.064,Colour_Asymmetry_Pilot,2022.1.3,Win32,58.91363261,62c50e9c1127f2cd403a315f,0,46,46,127,1,fourthree,,,,,,,,,,,,,,,,,,,,,,,,,,,,,,,,,,,,,,,,,,,,,,,,,,,,,,,,,,,,,,,,,,,,,,,,,,,,,,,,,,,,,,,,,,,,,,,,,,,,,,,,,,,,,,,,,,,,,,,,,,,,,,,,,,,,,,,,,,,,,,,,,,,,,,,,,,,,
,,,,,,5e8208d95442a6028e919b7f,62c539ed9c20d67962129e59,2022-07-06_09h31.54.064,Colour_Asymmetry_Pilot,2022.1.3,Win32,58.91363261,62c50e9c1127f2cd403a315f,0,47,47,92,1,threeone,,,,,,,,,,,,,,,,,,,,,,,,,,,,,,,,,,,,,,,,,,,,,,,,,,,,,,,,,,,,,,,,,,,,,,,,,,,,,,,,,,,,,,,,,,,,,,,,,,,,,,,,,,,,,,,,,,,,,,,,,,,,,,,,,,,,,,,,,,,,,,,,,,,,,,,,,,,,
,,,,,,5e8208d95442a6028e919b7f,62c539ed9c20d67962129e59,2022-07-06_09h31.54.064,Colour_Asymmetry_Pilot,2022.1.3,Win32,58.91363261,62c50e9c1127f2cd403a315f,0,48,48,25,1,onethree,,,,,,,,,,,,,,,,,,,,,,,,,,,,,,,,,,,,,,,,,,,,,,,,,,,,,,,,,,,,,,,,,,,,,,,,,,,,,,,,,,,,,,,,,,,,,,,,,,,,,,,,,,,,,,,,,,,,,,,,,,,,,,,,,,,,,,,,,,,,,,,,,,,,,,,,,,,,
,,,,,,5e8208d95442a6028e919b7f,62c539ed9c20d67962129e59,2022-07-06_09h31.54.064,Colour_Asymmetry_Pilot,2022.1.3,Win32,58.91363261,62c50e9c1127f2cd403a315f,0,49,49,19,1,twofour,,,,,,,,,,,,,,,,,,,,,,,,,,,,,,,,,,,,,,,,,,,,,,,,,,,,,,,,,,,,,,,,,,,,,,,,,,,,,,,,,,,,,,,,,,,,,,,,,,,,,,,,,,,,,,,,,,,,,,,,,,,,,,,,,,,,,,,,,,,,,,,,,,,,,,,,,,,,
,,,,,,5e8208d95442a6028e919b7f,62c539ed9c20d67962129e59,2022-07-06_09h31.54.064,Colour_Asymmetry_Pilot,2022.1.3,Win32,58.91363261,62c50e9c1127f2cd403a315f,0,50,50,2,1,twoone,,,,,,,,,,,,,,,,,,,,,,,,,,,,,,,,,,,,,,,,,,,,,,,,,,,,,,,,,,,,,,,,,,,,,,,,,,,,,,,,,,,,,,,,,,,,,,,,,,,,,,,,,,,,,,,,,,,,,,,,,,,,,,,,,,,,,,,,,,,,,,,,,,,,,,,,,,,,
,,,,,,5e8208d95442a6028e919b7f,62c539ed9c20d67962129e59,2022-07-06_09h31.54.064,Colour_Asymmetry_Pilot,2022.1.3,Win32,58.91363261,62c50e9c1127f2cd403a315f,0,51,51,28,1,threeone,,,,,,,,,,,,,,,,,,,,,,,,,,,,,,,,,,,,,,,,,,,,,,,,,,,,,,,,,,,,,,,,,,,,,,,,,,,,,,,,,,,,,,,,,,,,,,,,,,,,,,,,,,,,,,,,,,,,,,,,,,,,,,,,,,,,,,,,,,,,,,,,,,,,,,,,,,,,
,,,,,,5e8208d95442a6028e919b7f,62c539ed9c20d67962129e59,2022-07-06_09h31.54.064,Colour_Asymmetry_Pilot,2022.1.3,Win32,58.91363261,62c50e9c1127f2cd403a315f,0,52,52,120,1,onetwo,,,,,,,,,,,,,,,,,,,,,,,,,,,,,,,,,,,,,,,,,,,,,,,,,,,,,,,,,,,,,,,,,,,,,,,,,,,,,,,,,,,,,,,,,,,,,,,,,,,,,,,,,,,,,,,,,,,,,,,,,,,,,,,,,,,,,,,,,,,,,,,,,,,,,,,,,,,,
,,,,,,5e8208d95442a6028e919b7f,62c539ed9c20d67962129e59,2022-07-06_09h31.54.064,Colour_Asymmetry_Pilot,2022.1.3,Win32,58.91363261,62c50e9c1127f2cd403a315f,0,53,53,73,1,onethree,,,,,,,,,,,,,,,,,,,,,,,,,,,,,,,,,,,,,,,,,,,,,,,,,,,,,,,,,,,,,,,,,,,,,,,,,,,,,,,,,,,,,,,,,,,,,,,,,,,,,,,,,,,,,,,,,,,,,,,,,,,,,,,,,,,,,,,,,,,,,,,,,,,,,,,,,,,,
,,,,,,5e8208d95442a6028e919b7f,62c539ed9c20d67962129e59,2022-07-06_09h31.54.064,Colour_Asymmetry_Pilot,2022.1.3,Win32,58.91363261,62c50e9c1127f2cd403a315f,0,54,54,0,1,onetwo,,,,,,,,,,,,,,,,,,,,,,,,,,,,,,,,,,,,,,,,,,,,,,,,,,,,,,,,,,,,,,,,,,,,,,,,,,,,,,,,,,,,,,,,,,,,,,,,,,,,,,,,,,,,,,,,,,,,,,,,,,,,,,,,,,,,,,,,,,,,,,,,,,,,,,,,,,,,
,,,,,,5e8208d95442a6028e919b7f,62c539ed9c20d67962129e59,2022-07-06_09h31.54.064,Colour_Asymmetry_Pilot,2022.1.3,Win32,58.91363261,62c50e9c1127f2cd403a315f,0,55,55,143,1,fourthree,,,,,,,,,,,,,,,,,,,,,,,,,,,,,,,,,,,,,,,,,,,,,,,,,,,,,,,,,,,,,,,,,,,,,,,,,,,,,,,,,,,,,,,,,,,,,,,,,,,,,,,,,,,,,,,,,,,,,,,,,,,,,,,,,,,,,,,,,,,,,,,,,,,,,,,,,,,,
,,,,,,5e8208d95442a6028e919b7f,62c539ed9c20d67962129e59,2022-07-06_09h31.54.064,Colour_Asymmetry_Pilot,2022.1.3,Win32,58.91363261,62c50e9c1127f2cd403a315f,0,56,56,40,1,onetwo,,,,,,,,,,,,,,,,,,,,,,,,,,,,,,,,,,,,,,,,,,,,,,,,,,,,,,,,,,,,,,,,,,,,,,,,,,,,,,,,,,,,,,,,,,,,,,,,,,,,,,,,,,,,,,,,,,,,,,,,,,,,,,,,,,,,,,,,,,,,,,,,,,,,,,,,,,,,
,,,,,,5e8208d95442a6028e919b7f,62c539ed9c20d67962129e59,2022-07-06_09h31.54.064,Colour_Asymmetry_Pilot,2022.1.3,Win32,58.91363261,62c50e9c1127f2cd403a315f,0,57,57,79,1,fourthree,,,,,,,,,,,,,,,,,,,,,,,,,,,,,,,,,,,,,,,,,,,,,,,,,,,,,,,,,,,,,,,,,,,,,,,,,,,,,,,,,,,,,,,,,,,,,,,,,,,,,,,,,,,,,,,,,,,,,,,,,,,,,,,,,,,,,,,,,,,,,,,,,,,,,,,,,,,,
,,,,,,5e8208d95442a6028e919b7f,62c539ed9c20d67962129e59,2022-07-06_09h31.54.064,Colour_Asymmetry_Pilot,2022.1.3,Win32,58.91363261,62c50e9c1127f2cd403a315f,0,58,58,72,1,onetwo,,,,,,,,,,,,,,,,,,,,,,,,,,,,,,,,,,,,,,,,,,,,,,,,,,,,,,,,,,,,,,,,,,,,,,,,,,,,,,,,,,,,,,,,,,,,,,,,,,,,,,,,,,,,,,,,,,,,,,,,,,,,,,,,,,,,,,,,,,,,,,,,,,,,,,,,,,,,
,,,,,,5e8208d95442a6028e919b7f,62c539ed9c20d67962129e59,2022-07-06_09h31.54.064,Colour_Asymmetry_Pilot,2022.1.3,Win32,58.91363261,62c50e9c1127f2cd403a315f,0,59,59,110,1,fourtwo,,,,,,,,,,,,,,,,,,,,,,,,,,,,,,,,,,,,,,,,,,,,,,,,,,,,,,,,,,,,,,,,,,,,,,,,,,,,,,,,,,,,,,,,,,,,,,,,,,,,,,,,,,,,,,,,,,,,,,,,,,,,,,,,,,,,,,,,,,,,,,,,,,,,,,,,,,,,
,,,,,,5e8208d95442a6028e919b7f,62c539ed9c20d67962129e59,2022-07-06_09h31.54.064,Colour_Asymmetry_Pilot,2022.1.3,Win32,58.91363261,62c50e9c1127f2cd403a315f,0,60,60,38,1,fourtwo,,,,,,,,,,,,,,,,,,,,,,,,,,,,,,,,,,,,,,,,,,,,,,,,,,,,,,,,,,,,,,,,,,,,,,,,,,,,,,,,,,,,,,,,,,,,,,,,,,,,,,,,,,,,,,,,,,,,,,,,,,,,,,,,,,,,,,,,,,,,,,,,,,,,,,,,,,,,
,,,,,,5e8208d95442a6028e919b7f,62c539ed9c20d67962129e59,2022-07-06_09h31.54.064,Colour_Asymmetry_Pilot,2022.1.3,Win32,58.91363261,62c50e9c1127f2cd403a315f,0,61,61,108,1,threeone,,,,,,,,,,,,,,,,,,,,,,,,,,,,,,,,,,,,,,,,,,,,,,,,,,,,,,,,,,,,,,,,,,,,,,,,,,,,,,,,,,,,,,,,,,,,,,,,,,,,,,,,,,,,,,,,,,,,,,,,,,,,,,,,,,,,,,,,,,,,,,,,,,,,,,,,,,,,
,,,,,,5e8208d95442a6028e919b7f,62c539ed9c20d67962129e59,2022-07-06_09h31.54.064,Colour_Asymmetry_Pilot,2022.1.3,Win32,58.91363261,62c50e9c1127f2cd403a315f,0,62,62,119,1,fourthree,,,,,,,,,,,,,,,,,,,,,,,,,,,,,,,,,,,,,,,,,,,,,,,,,,,,,,,,,,,,,,,,,,,,,,,,,,,,,,,,,,,,,,,,,,,,,,,,,,,,,,,,,,,,,,,,,,,,,,,,,,,,,,,,,,,,,,,,,,,,,,,,,,,,,,,,,,,,
,,,,,,5e8208d95442a6028e919b7f,62c539ed9c20d67962129e59,2022-07-06_09h31.54.064,Colour_Asymmetry_Pilot,2022.1.3,Win32,58.91363261,62c50e9c1127f2cd403a315f,0,63,63,57,1,onethree,,,,,,,,,,,,,,,,,,,,,,,,,,,,,,,,,,,,,,,,,,,,,,,,,,,,,,,,,,,,,,,,,,,,,,,,,,,,,,,,,,,,,,,,,,,,,,,,,,,,,,,,,,,,,,,,,,,,,,,,,,,,,,,,,,,,,,,,,,,,,,,,,,,,,,,,,,,,
,,,,,,5e8208d95442a6028e919b7f,62c539ed9c20d67962129e59,2022-07-06_09h31.54.064,Colour_Asymmetry_Pilot,2022.1.3,Win32,58.91363261,62c50e9c1127f2cd403a315f,0,64,64,78,1,fourtwo,,,,,,,,,,,,,,,,,,,,,,,,,,,,,,,,,,,,,,,,,,,,,,,,,,,,,,,,,,,,,,,,,,,,,,,,,,,,,,,,,,,,,,,,,,,,,,,,,,,,,,,,,,,,,,,,,,,,,,,,,,,,,,,,,,,,,,,,,,,,,,,,,,,,,,,,,,,,
,,,,,,5e8208d95442a6028e919b7f,62c539ed9c20d67962129e59,2022-07-06_09h31.54.064,Colour_Asymmetry_Pilot,2022.1.3,Win32,58.91363261,62c50e9c1127f2cd403a315f,0,65,65,54,1,fourtwo,,,,,,,,,,,,,,,,,,,,,,,,,,,,,,,,,,,,,,,,,,,,,,,,,,,,,,,,,,,,,,,,,,,,,,,,,,,,,,,,,,,,,,,,,,,,,,,,,,,,,,,,,,,,,,,,,,,,,,,,,,,,,,,,,,,,,,,,,,,,,,,,,,,,,,,,,,,,
,,,,,,5e8208d95442a6028e919b7f,62c539ed9c20d67962129e59,2022-07-06_09h31.54.064,Colour_Asymmetry_Pilot,2022.1.3,Win32,58.91363261,62c50e9c1127f2cd403a315f,0,66,66,158,1,fourtwo,,,,,,,,,,,,,,,,,,,,,,,,,,,,,,,,,,,,,,,,,,,,,,,,,,,,,,,,,,,,,,,,,,,,,,,,,,,,,,,,,,,,,,,,,,,,,,,,,,,,,,,,,,,,,,,,,,,,,,,,,,,,,,,,,,,,,,,,,,,,,,,,,,,,,,,,,,,,
,,,,,,5e8208d95442a6028e919b7f,62c539ed9c20d67962129e59,2022-07-06_09h31.54.064,Colour_Asymmetry_Pilot,2022.1.3,Win32,58.91363261,62c50e9c1127f2cd403a315f,0,67,67,135,1,fourthree,,,,,,,,,,,,,,,,,,,,,,,,,,,,,,,,,,,,,,,,,,,,,,,,,,,,,,,,,,,,,,,,,,,,,,,,,,,,,,,,,,,,,,,,,,,,,,,,,,,,,,,,,,,,,,,,,,,,,,,,,,,,,,,,,,,,,,,,,,,,,,,,,,,,,,,,,,,,
,,,,,,5e8208d95442a6028e919b7f,62c539ed9c20d67962129e59,2022-07-06_09h31.54.064,Colour_Asymmetry_Pilot,2022.1.3,Win32,58.91363261,62c50e9c1127f2cd403a315f,0,68,68,99,1,twofour,,,,,,,,,,,,,,,,,,,,,,,,,,,,,,,,,,,,,,,,,,,,,,,,,,,,,,,,,,,,,,,,,,,,,,,,,,,,,,,,,,,,,,,,,,,,,,,,,,,,,,,,,,,,,,,,,,,,,,,,,,,,,,,,,,,,,,,,,,,,,,,,,,,,,,,,,,,,
,,,,,,5e8208d95442a6028e919b7f,62c539ed9c20d67962129e59,2022-07-06_09h31.54.064,Colour_Asymmetry_Pilot,2022.1.3,Win32,58.91363261,62c50e9c1127f2cd403a315f,0,69,69,124,1,threeone,,,,,,,,,,,,,,,,,,,,,,,,,,,,,,,,,,,,,,,,,,,,,,,,,,,,,,,,,,,,,,,,,,,,,,,,,,,,,,,,,,,,,,,,,,,,,,,,,,,,,,,,,,,,,,,,,,,,,,,,,,,,,,,,,,,,,,,,,,,,,,,,,,,,,,,,,,,,
,,,,,,5e8208d95442a6028e919b7f,62c539ed9c20d67962129e59,2022-07-06_09h31.54.064,Colour_Asymmetry_Pilot,2022.1.3,Win32,58.91363261,62c50e9c1127f2cd403a315f,0,70,70,161,1,onethree,,,,,,,,,,,,,,,,,,,,,,,,,,,,,,,,,,,,,,,,,,,,,,,,,,,,,,,,,,,,,,,,,,,,,,,,,,,,,,,,,,,,,,,,,,,,,,,,,,,,,,,,,,,,,,,,,,,,,,,,,,,,,,,,,,,,,,,,,,,,,,,,,,,,,,,,,,,,
,,,,,,5e8208d95442a6028e919b7f,62c539ed9c20d67962129e59,2022-07-06_09h31.54.064,Colour_Asymmetry_Pilot,2022.1.3,Win32,58.91363261,62c50e9c1127f2cd403a315f,0,71,71,84,1,threeone,,,,,,,,,,,,,,,,,,,,,,,,,,,,,,,,,,,,,,,,,,,,,,,,,,,,,,,,,,,,,,,,,,,,,,,,,,,,,,,,,,,,,,,,,,,,,,,,,,,,,,,,,,,,,,,,,,,,,,,,,,,,,,,,,,,,,,,,,,,,,,,,,,,,,,,,,,,,
,,,,,,5e8208d95442a6028e919b7f,62c539ed9c20d67962129e59,2022-07-06_09h31.54.064,Colour_Asymmetry_Pilot,2022.1.3,Win32,58.91363261,62c50e9c1127f2cd403a315f,0,72,72,10,1,twoone,,,,,,,,,,,,,,,,,,,,,,,,,,,,,,,,,,,,,,,,,,,,,,,,,,,,,,,,,,,,,,,,,,,,,,,,,,,,,,,,,,,,,,,,,,,,,,,,,,,,,,,,,,,,,,,,,,,,,,,,,,,,,,,,,,,,,,,,,,,,,,,,,,,,,,,,,,,,
,,,,,,5e8208d95442a6028e919b7f,62c539ed9c20d67962129e59,2022-07-06_09h31.54.064,Colour_Asymmetry_Pilot,2022.1.3,Win32,58.91363261,62c50e9c1127f2cd403a315f,0,73,73,102,1,fourtwo,,,,,,,,,,,,,,,,,,,,,,,,,,,,,,,,,,,,,,,,,,,,,,,,,,,,,,,,,,,,,,,,,,,,,,,,,,,,,,,,,,,,,,,,,,,,,,,,,,,,,,,,,,,,,,,,,,,,,,,,,,,,,,,,,,,,,,,,,,,,,,,,,,,,,,,,,,,,
,,,,,,5e8208d95442a6028e919b7f,62c539ed9c20d67962129e59,2022-07-06_09h31.54.064,Colour_Asymmetry_Pilot,2022.1.3,Win32,58.91363261,62c50e9c1127f2cd403a315f,0,74,74,70,1,fourtwo,,,,,,,,,,,,,,,,,,,,,,,,,,,,,,,,,,,,,,,,,,,,,,,,,,,,,,,,,,,,,,,,,,,,,,,,,,,,,,,,,,,,,,,,,,,,,,,,,,,,,,,,,,,,,,,,,,,,,,,,,,,,,,,,,,,,,,,,,,,,,,,,,,,,,,,,,,,,
,,,,,,5e8208d95442a6028e919b7f,62c539ed9c20d67962129e59,2022-07-06_09h31.54.064,Colour_Asymmetry_Pilot,2022.1.3,Win32,58.91363261,62c50e9c1127f2cd403a315f,0,75,75,83,1,twofour,,,,,,,,,,,,,,,,,,,,,,,,,,,,,,,,,,,,,,,,,,,,,,,,,,,,,,,,,,,,,,,,,,,,,,,,,,,,,,,,,,,,,,,,,,,,,,,,,,,,,,,,,,,,,,,,,,,,,,,,,,,,,,,,,,,,,,,,,,,,,,,,,,,,,,,,,,,,
,,,,,,5e8208d95442a6028e919b7f,62c539ed9c20d67962129e59,2022-07-06_09h31.54.064,Colour_Asymmetry_Pilot,2022.1.3,Win32,58.91363261,62c50e9c1127f2cd403a315f,0,76,76,42,1,twoone,,,,,,,,,,,,,,,,,,,,,,,,,,,,,,,,,,,,,,,,,,,,,,,,,,,,,,,,,,,,,,,,,,,,,,,,,,,,,,,,,,,,,,,,,,,,,,,,,,,,,,,,,,,,,,,,,,,,,,,,,,,,,,,,,,,,,,,,,,,,,,,,,,,,,,,,,,,,
,,,,,,5e8208d95442a6028e919b7f,62c539ed9c20d67962129e59,2022-07-06_09h31.54.064,Colour_Asymmetry_Pilot,2022.1.3,Win32,58.91363261,62c50e9c1127f2cd403a315f,0,77,77,39,1,fourthree,,,,,,,,,,,,,,,,,,,,,,,,,,,,,,,,,,,,,,,,,,,,,,,,,,,,,,,,,,,,,,,,,,,,,,,,,,,,,,,,,,,,,,,,,,,,,,,,,,,,,,,,,,,,,,,,,,,,,,,,,,,,,,,,,,,,,,,,,,,,,,,,,,,,,,,,,,,,
,,,,,,5e8208d95442a6028e919b7f,62c539ed9c20d67962129e59,2022-07-06_09h31.54.064,Colour_Asymmetry_Pilot,2022.1.3,Win32,58.91363261,62c50e9c1127f2cd403a315f,0,78,78,66,1,twoone,,,,,,,,,,,,,,,,,,,,,,,,,,,,,,,,,,,,,,,,,,,,,,,,,,,,,,,,,,,,,,,,,,,,,,,,,,,,,,,,,,,,,,,,,,,,,,,,,,,,,,,,,,,,,,,,,,,,,,,,,,,,,,,,,,,,,,,,,,,,,,,,,,,,,,,,,,,,
,,,,,,5e8208d95442a6028e919b7f,62c539ed9c20d67962129e59,2022-07-06_09h31.54.064,Colour_Asymmetry_Pilot,2022.1.3,Win32,58.91363261,62c50e9c1127f2cd403a315f,0,79,79,59,1,twofour,,,,,,,,,,,,,,,,,,,,,,,,,,,,,,,,,,,,,,,,,,,,,,,,,,,,,,,,,,,,,,,,,,,,,,,,,,,,,,,,,,,,,,,,,,,,,,,,,,,,,,,,,,,,,,,,,,,,,,,,,,,,,,,,,,,,,,,,,,,,,,,,,,,,,,,,,,,,
,,,,,,5e8208d95442a6028e919b7f,62c539ed9c20d67962129e59,2022-07-06_09h31.54.064,Colour_Asymmetry_Pilot,2022.1.3,Win32,58.91363261,62c50e9c1127f2cd403a315f,0,80,80,105,1,onethree,,,,,,,,,,,,,,,,,,,,,,,,,,,,,,,,,,,,,,,,,,,,,,,,,,,,,,,,,,,,,,,,,,,,,,,,,,,,,,,,,,,,,,,,,,,,,,,,,,,,,,,,,,,,,,,,,,,,,,,,,,,,,,,,,,,,,,,,,,,,,,,,,,,,,,,,,,,,
,,,,,,5e8208d95442a6028e919b7f,62c539ed9c20d67962129e59,2022-07-06_09h31.54.064,Colour_Asymmetry_Pilot,2022.1.3,Win32,58.91363261,62c50e9c1127f2cd403a315f,0,81,81,4,1,threeone,,,,,,,,,,,,,,,,,,,,,,,,,,,,,,,,,,,,,,,,,,,,,,,,,,,,,,,,,,,,,,,,,,,,,,,,,,,,,,,,,,,,,,,,,,,,,,,,,,,,,,,,,,,,,,,,,,,,,,,,,,,,,,,,,,,,,,,,,,,,,,,,,,,,,,,,,,,,
,,,,,,5e8208d95442a6028e919b7f,62c539ed9c20d67962129e59,2022-07-06_09h31.54.064,Colour_Asymmetry_Pilot,2022.1.3,Win32,58.91363261,62c50e9c1127f2cd403a315f,0,82,82,111,1,fourthree,,,,,,,,,,,,,,,,,,,,,,,,,,,,,,,,,,,,,,,,,,,,,,,,,,,,,,,,,,,,,,,,,,,,,,,,,,,,,,,,,,,,,,,,,,,,,,,,,,,,,,,,,,,,,,,,,,,,,,,,,,,,,,,,,,,,,,,,,,,,,,,,,,,,,,,,,,,,
,,,,,,5e8208d95442a6028e919b7f,62c539ed9c20d67962129e59,2022-07-06_09h31.54.064,Colour_Asymmetry_Pilot,2022.1.3,Win32,58.91363261,62c50e9c1127f2cd403a315f,0,83,83,140,1,threeone,,,,,,,,,,,,,,,,,,,,,,,,,,,,,,,,,,,,,,,,,,,,,,,,,,,,,,,,,,,,,,,,,,,,,,,,,,,,,,,,,,,,,,,,,,,,,,,,,,,,,,,,,,,,,,,,,,,,,,,,,,,,,,,,,,,,,,,,,,,,,,,,,,,,,,,,,,,,
,,,,,,5e8208d95442a6028e919b7f,62c539ed9c20d67962129e59,2022-07-06_09h31.54.064,Colour_Asymmetry_Pilot,2022.1.3,Win32,58.91363261,62c50e9c1127f2cd403a315f,0,84,84,113,1,onethree,,,,,,,,,,,,,,,,,,,,,,,,,,,,,,,,,,,,,,,,,,,,,,,,,,,,,,,,,,,,,,,,,,,,,,,,,,,,,,,,,,,,,,,,,,,,,,,,,,,,,,,,,,,,,,,,,,,,,,,,,,,,,,,,,,,,,,,,,,,,,,,,,,,,,,,,,,,,
,,,,,,5e8208d95442a6028e919b7f,62c539ed9c20d67962129e59,2022-07-06_09h31.54.064,Colour_Asymmetry_Pilot,2022.1.3,Win32,58.91363261,62c50e9c1127f2cd403a315f,0,85,85,122,1,twoone,,,,,,,,,,,,,,,,,,,,,,,,,,,,,,,,,,,,,,,,,,,,,,,,,,,,,,,,,,,,,,,,,,,,,,,,,,,,,,,,,,,,,,,,,,,,,,,,,,,,,,,,,,,,,,,,,,,,,,,,,,,,,,,,,,,,,,,,,,,,,,,,,,,,,,,,,,,,
,,,,,,5e8208d95442a6028e919b7f,62c539ed9c20d67962129e59,2022-07-06_09h31.54.064,Colour_Asymmetry_Pilot,2022.1.3,Win32,58.91363261,62c50e9c1127f2cd403a315f,0,86,86,132,1,threeone,,,,,,,,,,,,,,,,,,,,,,,,,,,,,,,,,,,,,,,,,,,,,,,,,,,,,,,,,,,,,,,,,,,,,,,,,,,,,,,,,,,,,,,,,,,,,,,,,,,,,,,,,,,,,,,,,,,,,,,,,,,,,,,,,,,,,,,,,,,,,,,,,,,,,,,,,,,,
,,,,,,5e8208d95442a6028e919b7f,62c539ed9c20d67962129e59,2022-07-06_09h31.54.064,Colour_Asymmetry_Pilot,2022.1.3,Win32,58.91363261,62c50e9c1127f2cd403a315f,0,87,87,55,1,fourthree,,,,,,,,,,,,,,,,,,,,,,,,,,,,,,,,,,,,,,,,,,,,,,,,,,,,,,,,,,,,,,,,,,,,,,,,,,,,,,,,,,,,,,,,,,,,,,,,,,,,,,,,,,,,,,,,,,,,,,,,,,,,,,,,,,,,,,,,,,,,,,,,,,,,,,,,,,,,
,,,,,,5e8208d95442a6028e919b7f,62c539ed9c20d67962129e59,2022-07-06_09h31.54.064,Colour_Asymmetry_Pilot,2022.1.3,Win32,58.91363261,62c50e9c1127f2cd403a315f,0,88,88,47,1,fourthree,,,,,,,,,,,,,,,,,,,,,,,,,,,,,,,,,,,,,,,,,,,,,,,,,,,,,,,,,,,,,,,,,,,,,,,,,,,,,,,,,,,,,,,,,,,,,,,,,,,,,,,,,,,,,,,,,,,,,,,,,,,,,,,,,,,,,,,,,,,,,,,,,,,,,,,,,,,,
,,,,,,5e8208d95442a6028e919b7f,62c539ed9c20d67962129e59,2022-07-06_09h31.54.064,Colour_Asymmetry_Pilot,2022.1.3,Win32,58.91363261,62c50e9c1127f2cd403a315f,0,89,89,9,1,onethree,,,,,,,,,,,,,,,,,,,,,,,,,,,,,,,,,,,,,,,,,,,,,,,,,,,,,,,,,,,,,,,,,,,,,,,,,,,,,,,,,,,,,,,,,,,,,,,,,,,,,,,,,,,,,,,,,,,,,,,,,,,,,,,,,,,,,,,,,,,,,,,,,,,,,,,,,,,,
,,,,,,5e8208d95442a6028e919b7f,62c539ed9c20d67962129e59,2022-07-06_09h31.54.064,Colour_Asymmetry_Pilot,2022.1.3,Win32,58.91363261,62c50e9c1127f2cd403a315f,0,90,90,151,1,fourthree,,,,,,,,,,,,,,,,,,,,,,,,,,,,,,,,,,,,,,,,,,,,,,,,,,,,,,,,,,,,,,,,,,,,,,,,,,,,,,,,,,,,,,,,,,,,,,,,,,,,,,,,,,,,,,,,,,,,,,,,,,,,,,,,,,,,,,,,,,,,,,,,,,,,,,,,,,,,
,,,,,,5e8208d95442a6028e919b7f,62c539ed9c20d67962129e59,2022-07-06_09h31.54.064,Colour_Asymmetry_Pilot,2022.1.3,Win32,58.91363261,62c50e9c1127f2cd403a315f,0,91,91,17,1,onethree,,,,,,,,,,,,,,,,,,,,,,,,,,,,,,,,,,,,,,,,,,,,,,,,,,,,,,,,,,,,,,,,,,,,,,,,,,,,,,,,,,,,,,,,,,,,,,,,,,,,,,,,,,,,,,,,,,,,,,,,,,,,,,,,,,,,,,,,,,,,,,,,,,,,,,,,,,,,
,,,,,,5e8208d95442a6028e919b7f,62c539ed9c20d67962129e59,2022-07-06_09h31.54.064,Colour_Asymmetry_Pilot,2022.1.3,Win32,58.91363261,62c50e9c1127f2cd403a315f,0,92,92,131,1,twofour,,,,,,,,,,,,,,,,,,,,,,,,,,,,,,,,,,,,,,,,,,,,,,,,,,,,,,,,,,,,,,,,,,,,,,,,,,,,,,,,,,,,,,,,,,,,,,,,,,,,,,,,,,,,,,,,,,,,,,,,,,,,,,,,,,,,,,,,,,,,,,,,,,,,,,,,,,,,
,,,,,,5e8208d95442a6028e919b7f,62c539ed9c20d67962129e59,2022-07-06_09h31.54.064,Colour_Asymmetry_Pilot,2022.1.3,Win32,58.91363261,62c50e9c1127f2cd403a315f,0,93,93,148,1,threeone,,,,,,,,,,,,,,,,,,,,,,,,,,,,,,,,,,,,,,,,,,,,,,,,,,,,,,,,,,,,,,,,,,,,,,,,,,,,,,,,,,,,,,,,,,,,,,,,,,,,,,,,,,,,,,,,,,,,,,,,,,,,,,,,,,,,,,,,,,,,,,,,,,,,,,,,,,,,
,,,,,,5e8208d95442a6028e919b7f,62c539ed9c20d67962129e59,2022-07-06_09h31.54.064,Colour_Asymmetry_Pilot,2022.1.3,Win32,58.91363261,62c50e9c1127f2cd403a315f,0,94,94,116,1,threeone,,,,,,,,,,,,,,,,,,,,,,,,,,,,,,,,,,,,,,,,,,,,,,,,,,,,,,,,,,,,,,,,,,,,,,,,,,,,,,,,,,,,,,,,,,,,,,,,,,,,,,,,,,,,,,,,,,,,,,,,,,,,,,,,,,,,,,,,,,,,,,,,,,,,,,,,,,,,
,,,,,,5e8208d95442a6028e919b7f,62c539ed9c20d67962129e59,2022-07-06_09h31.54.064,Colour_Asymmetry_Pilot,2022.1.3,Win32,58.91363261,62c50e9c1127f2cd403a315f,0,95,95,30,1,fourtwo,,,,,,,,,,,,,,,,,,,,,,,,,,,,,,,,,,,,,,,,,,,,,,,,,,,,,,,,,,,,,,,,,,,,,,,,,,,,,,,,,,,,,,,,,,,,,,,,,,,,,,,,,,,,,,,,,,,,,,,,,,,,,,,,,,,,,,,,,,,,,,,,,,,,,,,,,,,,
,,,,,,5e8208d95442a6028e919b7f,62c539ed9c20d67962129e59,2022-07-06_09h31.54.064,Colour_Asymmetry_Pilot,2022.1.3,Win32,58.91363261,62c50e9c1127f2cd403a315f,0,96,96,37,1,threefour,,,,,,,,,,,,,,,,,,,,,,,,,,,,,,,,,,,,,,,,,,,,,,,,,,,,,,,,,,,,,,,,,,,,,,,,,,,,,,,,,,,,,,,,,,,,,,,,,,,,,,,,,,,,,,,,,,,,,,,,,,,,,,,,,,,,,,,,,,,,,,,,,,,,,,,,,,,,
,,,,,,5e8208d95442a6028e919b7f,62c539ed9c20d67962129e59,2022-07-06_09h31.54.064,Colour_Asymmetry_Pilot,2022.1.3,Win32,58.91363261,62c50e9c1127f2cd403a315f,0,97,97,64,1,onetwo,,,,,,,,,,,,,,,,,,,,,,,,,,,,,,,,,,,,,,,,,,,,,,,,,,,,,,,,,,,,,,,,,,,,,,,,,,,,,,,,,,,,,,,,,,,,,,,,,,,,,,,,,,,,,,,,,,,,,,,,,,,,,,,,,,,,,,,,,,,,,,,,,,,,,,,,,,,,
,,,,,,5e8208d95442a6028e919b7f,62c539ed9c20d67962129e59,2022-07-06_09h31.54.064,Colour_Asymmetry_Pilot,2022.1.3,Win32,58.91363261,62c50e9c1127f2cd403a315f,0,98,98,137,1,onethree,,,,,,,,,,,,,,,,,,,,,,,,,,,,,,,,,,,,,,,,,,,,,,,,,,,,,,,,,,,,,,,,,,,,,,,,,,,,,,,,,,,,,,,,,,,,,,,,,,,,,,,,,,,,,,,,,,,,,,,,,,,,,,,,,,,,,,,,,,,,,,,,,,,,,,,,,,,,
,,,,,,5e8208d95442a6028e919b7f,62c539ed9c20d67962129e59,2022-07-06_09h31.54.064,Colour_Asymmetry_Pilot,2022.1.3,Win32,58.91363261,62c50e9c1127f2cd403a315f,0,99,99,138,1,twoone,,,,,,,,,,,,,,,,,,,,,,,,,,,,,,,,,,,,,,,,,,,,,,,,,,,,,,,,,,,,,,,,,,,,,,,,,,,,,,,,,,,,,,,,,,,,,,,,,,,,,,,,,,,,,,,,,,,,,,,,,,,,,,,,,,,,,,,,,,,,,,,,,,,,,,,,,,,,
,,,,,,5e8208d95442a6028e919b7f,62c539ed9c20d67962129e59,2022-07-06_09h31.54.064,Colour_Asymmetry_Pilot,2022.1.3,Win32,58.91363261,62c50e9c1127f2cd403a315f,0,100,100,87,1,fourthree,,,,,,,,,,,,,,,,,,,,,,,,,,,,,,,,,,,,,,,,,,,,,,,,,,,,,,,,,,,,,,,,,,,,,,,,,,,,,,,,,,,,,,,,,,,,,,,,,,,,,,,,,,,,,,,,,,,,,,,,,,,,,,,,,,,,,,,,,,,,,,,,,,,,,,,,,,,,
,,,,,,5e8208d95442a6028e919b7f,62c539ed9c20d67962129e59,2022-07-06_09h31.54.064,Colour_Asymmetry_Pilot,2022.1.3,Win32,58.91363261,62c50e9c1127f2cd403a315f,0,101,101,121,1,onethree,,,,,,,,,,,,,,,,,,,,,,,,,,,,,,,,,,,,,,,,,,,,,,,,,,,,,,,,,,,,,,,,,,,,,,,,,,,,,,,,,,,,,,,,,,,,,,,,,,,,,,,,,,,,,,,,,,,,,,,,,,,,,,,,,,,,,,,,,,,,,,,,,,,,,,,,,,,,
,,,,,,5e8208d95442a6028e919b7f,62c539ed9c20d67962129e59,2022-07-06_09h31.54.064,Colour_Asymmetry_Pilot,2022.1.3,Win32,58.91363261,62c50e9c1127f2cd403a315f,0,102,102,81,1,onethree,,,,,,,,,,,,,,,,,,,,,,,,,,,,,,,,,,,,,,,,,,,,,,,,,,,,,,,,,,,,,,,,,,,,,,,,,,,,,,,,,,,,,,,,,,,,,,,,,,,,,,,,,,,,,,,,,,,,,,,,,,,,,,,,,,,,,,,,,,,,,,,,,,,,,,,,,,,,
,,,,,,5e8208d95442a6028e919b7f,62c539ed9c20d67962129e59,2022-07-06_09h31.54.064,Colour_Asymmetry_Pilot,2022.1.3,Win32,58.91363261,62c50e9c1127f2cd403a315f,0,103,103,35,1,twofour,,,,,,,,,,,,,,,,,,,,,,,,,,,,,,,,,,,,,,,,,,,,,,,,,,,,,,,,,,,,,,,,,,,,,,,,,,,,,,,,,,,,,,,,,,,,,,,,,,,,,,,,,,,,,,,,,,,,,,,,,,,,,,,,,,,,,,,,,,,,,,,,,,,,,,,,,,,,
,,,,,,5e8208d95442a6028e919b7f,62c539ed9c20d67962129e59,2022-07-06_09h31.54.064,Colour_Asymmetry_Pilot,2022.1.3,Win32,58.91363261,62c50e9c1127f2cd403a315f,0,104,104,12,1,threeone,,,,,,,,,,,,,,,,,,,,,,,,,,,,,,,,,,,,,,,,,,,,,,,,,,,,,,,,,,,,,,,,,,,,,,,,,,,,,,,,,,,,,,,,,,,,,,,,,,,,,,,,,,,,,,,,,,,,,,,,,,,,,,,,,,,,,,,,,,,,,,,,,,,,,,,,,,,,
,,,,,,5e8208d95442a6028e919b7f,62c539ed9c20d67962129e59,2022-07-06_09h31.54.064,Colour_Asymmetry_Pilot,2022.1.3,Win32,58.91363261,62c50e9c1127f2cd403a315f,0,105,105,98,1,twoone,,,,,,,,,,,,,,,,,,,,,,,,,,,,,,,,,,,,,,,,,,,,,,,,,,,,,,,,,,,,,,,,,,,,,,,,,,,,,,,,,,,,,,,,,,,,,,,,,,,,,,,,,,,,,,,,,,,,,,,,,,,,,,,,,,,,,,,,,,,,,,,,,,,,,,,,,,,,
,,,,,,5e8208d95442a6028e919b7f,62c539ed9c20d67962129e59,2022-07-06_09h31.54.064,Colour_Asymmetry_Pilot,2022.1.3,Win32,58.91363261,62c50e9c1127f2cd403a315f,0,106,106,23,1,fourthree,,,,,,,,,,,,,,,,,,,,,,,,,,,,,,,,,,,,,,,,,,,,,,,,,,,,,,,,,,,,,,,,,,,,,,,,,,,,,,,,,,,,,,,,,,,,,,,,,,,,,,,,,,,,,,,,,,,,,,,,,,,,,,,,,,,,,,,,,,,,,,,,,,,,,,,,,,,,
,,,,,,5e8208d95442a6028e919b7f,62c539ed9c20d67962129e59,2022-07-06_09h31.54.064,Colour_Asymmetry_Pilot,2022.1.3,Win32,58.91363261,62c50e9c1127f2cd403a315f,0,107,107,1,1,onethree,,,,,,,,,,,,,,,,,,,,,,,,,,,,,,,,,,,,,,,,,,,,,,,,,,,,,,,,,,,,,,,,,,,,,,,,,,,,,,,,,,,,,,,,,,,,,,,,,,,,,,,,,,,,,,,,,,,,,,,,,,,,,,,,,,,,,,,,,,,,,,,,,,,,,,,,,,,,
,,,,,,5e8208d95442a6028e919b7f,62c539ed9c20d67962129e59,2022-07-06_09h31.54.064,Colour_Asymmetry_Pilot,2022.1.3,Win32,58.91363261,62c50e9c1127f2cd403a315f,0,108,108,129,1,onethree,,,,,,,,,,,,,,,,,,,,,,,,,,,,,,,,,,,,,,,,,,,,,,,,,,,,,,,,,,,,,,,,,,,,,,,,,,,,,,,,,,,,,,,,,,,,,,,,,,,,,,,,,,,,,,,,,,,,,,,,,,,,,,,,,,,,,,,,,,,,,,,,,,,,,,,,,,,,
,,,,,,5e8208d95442a6028e919b7f,62c539ed9c20d67962129e59,2022-07-06_09h31.54.064,Colour_Asymmetry_Pilot,2022.1.3,Win32,58.91363261,62c50e9c1127f2cd403a315f,0,109,109,152,1,onetwo,,,,,,,,,,,,,,,,,,,,,,,,,,,,,,,,,,,,,,,,,,,,,,,,,,,,,,,,,,,,,,,,,,,,,,,,,,,,,,,,,,,,,,,,,,,,,,,,,,,,,,,,,,,,,,,,,,,,,,,,,,,,,,,,,,,,,,,,,,,,,,,,,,,,,,,,,,,,
,,,,,,5e8208d95442a6028e919b7f,62c539ed9c20d67962129e59,2022-07-06_09h31.54.064,Colour_Asymmetry_Pilot,2022.1.3,Win32,58.91363261,62c50e9c1127f2cd403a315f,0,110,110,45,1,threefour,,,,,,,,,,,,,,,,,,,,,,,,,,,,,,,,,,,,,,,,,,,,,,,,,,,,,,,,,,,,,,,,,,,,,,,,,,,,,,,,,,,,,,,,,,,,,,,,,,,,,,,,,,,,,,,,,,,,,,,,,,,,,,,,,,,,,,,,,,,,,,,,,,,,,,,,,,,,
,,,,,,5e8208d95442a6028e919b7f,62c539ed9c20d67962129e59,2022-07-06_09h31.54.064,Colour_Asymmetry_Pilot,2022.1.3,Win32,58.91363261,62c50e9c1127f2cd403a315f,0,111,111,63,1,fourthree,,,,,,,,,,,,,,,,,,,,,,,,,,,,,,,,,,,,,,,,,,,,,,,,,,,,,,,,,,,,,,,,,,,,,,,,,,,,,,,,,,,,,,,,,,,,,,,,,,,,,,,,,,,,,,,,,,,,,,,,,,,,,,,,,,,,,,,,,,,,,,,,,,,,,,,,,,,,
,,,,,,5e8208d95442a6028e919b7f,62c539ed9c20d67962129e59,2022-07-06_09h31.54.064,Colour_Asymmetry_Pilot,2022.1.3,Win32,58.91363261,62c50e9c1127f2cd403a315f,0,112,112,56,1,onetwo,,,,,,,,,,,,,,,,,,,,,,,,,,,,,,,,,,,,,,,,,,,,,,,,,,,,,,,,,,,,,,,,,,,,,,,,,,,,,,,,,,,,,,,,,,,,,,,,,,,,,,,,,,,,,,,,,,,,,,,,,,,,,,,,,,,,,,,,,,,,,,,,,,,,,,,,,,,,
,,,,,,5e8208d95442a6028e919b7f,62c539ed9c20d67962129e59,2022-07-06_09h31.54.064,Colour_Asymmetry_Pilot,2022.1.3,Win32,58.91363261,62c50e9c1127f2cd403a315f,0,113,113,155,1,twofour,,,,,,,,,,,,,,,,,,,,,,,,,,,,,,,,,,,,,,,,,,,,,,,,,,,,,,,,,,,,,,,,,,,,,,,,,,,,,,,,,,,,,,,,,,,,,,,,,,,,,,,,,,,,,,,,,,,,,,,,,,,,,,,,,,,,,,,,,,,,,,,,,,,,,,,,,,,,
,,,,,,5e8208d95442a6028e919b7f,62c539ed9c20d67962129e59,2022-07-06_09h31.54.064,Colour_Asymmetry_Pilot,2022.1.3,Win32,58.91363261,62c50e9c1127f2cd403a315f,0,114,114,146,1,twoone,,,,,,,,,,,,,,,,,,,,,,,,,,,,,,,,,,,,,,,,,,,,,,,,,,,,,,,,,,,,,,,,,,,,,,,,,,,,,,,,,,,,,,,,,,,,,,,,,,,,,,,,,,,,,,,,,,,,,,,,,,,,,,,,,,,,,,,,,,,,,,,,,,,,,,,,,,,,
,,,,,,5e8208d95442a6028e919b7f,62c539ed9c20d67962129e59,2022-07-06_09h31.54.064,Colour_Asymmetry_Pilot,2022.1.3,Win32,58.91363261,62c50e9c1127f2cd403a315f,0,115,115,101,1,threefour,,,,,,,,,,,,,,,,,,,,,,,,,,,,,,,,,,,,,,,,,,,,,,,,,,,,,,,,,,,,,,,,,,,,,,,,,,,,,,,,,,,,,,,,,,,,,,,,,,,,,,,,,,,,,,,,,,,,,,,,,,,,,,,,,,,,,,,,,,,,,,,,,,,,,,,,,,,,
,,,,,,5e8208d95442a6028e919b7f,62c539ed9c20d67962129e59,2022-07-06_09h31.54.064,Colour_Asymmetry_Pilot,2022.1.3,Win32,58.91363261,62c50e9c1127f2cd403a315f,0,116,116,36,1,threeone,,,,,,,,,,,,,,,,,,,,,,,,,,,,,,,,,,,,,,,,,,,,,,,,,,,,,,,,,,,,,,,,,,,,,,,,,,,,,,,,,,,,,,,,,,,,,,,,,,,,,,,,,,,,,,,,,,,,,,,,,,,,,,,,,,,,,,,,,,,,,,,,,,,,,,,,,,,,
,,,,,,5e8208d95442a6028e919b7f,62c539ed9c20d67962129e59,2022-07-06_09h31.54.064,Colour_Asymmetry_Pilot,2022.1.3,Win32,58.91363261,62c50e9c1127f2cd403a315f,0,117,117,88,1,onetwo,,,,,,,,,,,,,,,,,,,,,,,,,,,,,,,,,,,,,,,,,,,,,,,,,,,,,,,,,,,,,,,,,,,,,,,,,,,,,,,,,,,,,,,,,,,,,,,,,,,,,,,,,,,,,,,,,,,,,,,,,,,,,,,,,,,,,,,,,,,,,,,,,,,,,,,,,,,,
,,,,,,5e8208d95442a6028e919b7f,62c539ed9c20d67962129e59,2022-07-06_09h31.54.064,Colour_Asymmetry_Pilot,2022.1.3,Win32,58.91363261,62c50e9c1127f2cd403a315f,0,118,118,154,1,twoone,,,,,,,,,,,,,,,,,,,,,,,,,,,,,,,,,,,,,,,,,,,,,,,,,,,,,,,,,,,,,,,,,,,,,,,,,,,,,,,,,,,,,,,,,,,,,,,,,,,,,,,,,,,,,,,,,,,,,,,,,,,,,,,,,,,,,,,,,,,,,,,,,,,,,,,,,,,,
,,,,,,5e8208d95442a6028e919b7f,62c539ed9c20d67962129e59,2022-07-06_09h31.54.064,Colour_Asymmetry_Pilot,2022.1.3,Win32,58.91363261,62c50e9c1127f2cd403a315f,0,119,119,69,1,threefour,,,,,,,,,,,,,,,,,,,,,,,,,,,,,,,,,,,,,,,,,,,,,,,,,,,,,,,,,,,,,,,,,,,,,,,,,,,,,,,,,,,,,,,,,,,,,,,,,,,,,,,,,,,,,,,,,,,,,,,,,,,,,,,,,,,,,,,,,,,,,,,,,,,,,,,,,,,,
,,,,,,5e8208d95442a6028e919b7f,62c539ed9c20d67962129e59,2022-07-06_09h31.54.064,Colour_Asymmetry_Pilot,2022.1.3,Win32,58.91363261,62c50e9c1127f2cd403a315f,0,120,120,80,1,onetwo,,,,,,,,,,,,,,,,,,,,,,,,,,,,,,,,,,,,,,,,,,,,,,,,,,,,,,,,,,,,,,,,,,,,,,,,,,,,,,,,,,,,,,,,,,,,,,,,,,,,,,,,,,,,,,,,,,,,,,,,,,,,,,,,,,,,,,,,,,,,,,,,,,,,,,,,,,,,
,,,,,,5e8208d95442a6028e919b7f,62c539ed9c20d67962129e59,2022-07-06_09h31.54.064,Colour_Asymmetry_Pilot,2022.1.3,Win32,58.91363261,62c50e9c1127f2cd403a315f,0,121,121,8,1,onetwo,,,,,,,,,,,,,,,,,,,,,,,,,,,,,,,,,,,,,,,,,,,,,,,,,,,,,,,,,,,,,,,,,,,,,,,,,,,,,,,,,,,,,,,,,,,,,,,,,,,,,,,,,,,,,,,,,,,,,,,,,,,,,,,,,,,,,,,,,,,,,,,,,,,,,,,,,,,,
,,,,,,5e8208d95442a6028e919b7f,62c539ed9c20d67962129e59,2022-07-06_09h31.54.064,Colour_Asymmetry_Pilot,2022.1.3,Win32,58.91363261,62c50e9c1127f2cd403a315f,0,122,122,74,1,twoone,,,,,,,,,,,,,,,,,,,,,,,,,,,,,,,,,,,,,,,,,,,,,,,,,,,,,,,,,,,,,,,,,,,,,,,,,,,,,,,,,,,,,,,,,,,,,,,,,,,,,,,,,,,,,,,,,,,,,,,,,,,,,,,,,,,,,,,,,,,,,,,,,,,,,,,,,,,,
,,,,,,5e8208d95442a6028e919b7f,62c539ed9c20d67962129e59,2022-07-06_09h31.54.064,Colour_Asymmetry_Pilot,2022.1.3,Win32,58.91363261,62c50e9c1127f2cd403a315f,0,123,123,58,1,twoone,,,,,,,,,,,,,,,,,,,,,,,,,,,,,,,,,,,,,,,,,,,,,,,,,,,,,,,,,,,,,,,,,,,,,,,,,,,,,,,,,,,,,,,,,,,,,,,,,,,,,,,,,,,,,,,,,,,,,,,,,,,,,,,,,,,,,,,,,,,,,,,,,,,,,,,,,,,,
,,,,,,5e8208d95442a6028e919b7f,62c539ed9c20d67962129e59,2022-07-06_09h31.54.064,Colour_Asymmetry_Pilot,2022.1.3,Win32,58.91363261,62c50e9c1127f2cd403a315f,0,124,124,134,1,fourtwo,,,,,,,,,,,,,,,,,,,,,,,,,,,,,,,,,,,,,,,,,,,,,,,,,,,,,,,,,,,,,,,,,,,,,,,,,,,,,,,,,,,,,,,,,,,,,,,,,,,,,,,,,,,,,,,,,,,,,,,,,,,,,,,,,,,,,,,,,,,,,,,,,,,,,,,,,,,,
,,,,,,5e8208d95442a6028e919b7f,62c539ed9c20d67962129e59,2022-07-06_09h31.54.064,Colour_Asymmetry_Pilot,2022.1.3,Win32,58.91363261,62c50e9c1127f2cd403a315f,0,125,125,32,1,onetwo,,,,,,,,,,,,,,,,,,,,,,,,,,,,,,,,,,,,,,,,,,,,,,,,,,,,,,,,,,,,,,,,,,,,,,,,,,,,,,,,,,,,,,,,,,,,,,,,,,,,,,,,,,,,,,,,,,,,,,,,,,,,,,,,,,,,,,,,,,,,,,,,,,,,,,,,,,,,
,,,,,,5e8208d95442a6028e919b7f,62c539ed9c20d67962129e59,2022-07-06_09h31.54.064,Colour_Asymmetry_Pilot,2022.1.3,Win32,58.91363261,62c50e9c1127f2cd403a315f,0,126,126,21,1,threefour,,,,,,,,,,,,,,,,,,,,,,,,,,,,,,,,,,,,,,,,,,,,,,,,,,,,,,,,,,,,,,,,,,,,,,,,,,,,,,,,,,,,,,,,,,,,,,,,,,,,,,,,,,,,,,,,,,,,,,,,,,,,,,,,,,,,,,,,,,,,,,,,,,,,,,,,,,,,
,,,,,,5e8208d95442a6028e919b7f,62c539ed9c20d67962129e59,2022-07-06_09h31.54.064,Colour_Asymmetry_Pilot,2022.1.3,Win32,58.91363261,62c50e9c1127f2cd403a315f,0,127,127,48,1,onetwo,,,,,,,,,,,,,,,,,,,,,,,,,,,,,,,,,,,,,,,,,,,,,,,,,,,,,,,,,,,,,,,,,,,,,,,,,,,,,,,,,,,,,,,,,,,,,,,,,,,,,,,,,,,,,,,,,,,,,,,,,,,,,,,,,,,,,,,,,,,,,,,,,,,,,,,,,,,,
,,,,,,5e8208d95442a6028e919b7f,62c539ed9c20d67962129e59,2022-07-06_09h31.54.064,Colour_Asymmetry_Pilot,2022.1.3,Win32,58.91363261,62c50e9c1127f2cd403a315f,0,128,128,153,1,onethree,,,,,,,,,,,,,,,,,,,,,,,,,,,,,,,,,,,,,,,,,,,,,,,,,,,,,,,,,,,,,,,,,,,,,,,,,,,,,,,,,,,,,,,,,,,,,,,,,,,,,,,,,,,,,,,,,,,,,,,,,,,,,,,,,,,,,,,,,,,,,,,,,,,,,,,,,,,,
,,,,,,5e8208d95442a6028e919b7f,62c539ed9c20d67962129e59,2022-07-06_09h31.54.064,Colour_Asymmetry_Pilot,2022.1.3,Win32,58.91363261,62c50e9c1127f2cd403a315f,0,129,129,31,1,fourthree,,,,,,,,,,,,,,,,,,,,,,,,,,,,,,,,,,,,,,,,,,,,,,,,,,,,,,,,,,,,,,,,,,,,,,,,,,,,,,,,,,,,,,,,,,,,,,,,,,,,,,,,,,,,,,,,,,,,,,,,,,,,,,,,,,,,,,,,,,,,,,,,,,,,,,,,,,,,
,,,,,,5e8208d95442a6028e919b7f,62c539ed9c20d67962129e59,2022-07-06_09h31.54.064,Colour_Asymmetry_Pilot,2022.1.3,Win32,58.91363261,62c50e9c1127f2cd403a315f,0,130,130,106,1,twoone,,,,,,,,,,,,,,,,,,,,,,,,,,,,,,,,,,,,,,,,,,,,,,,,,,,,,,,,,,,,,,,,,,,,,,,,,,,,,,,,,,,,,,,,,,,,,,,,,,,,,,,,,,,,,,,,,,,,,,,,,,,,,,,,,,,,,,,,,,,,,,,,,,,,,,,,,,,,
,,,,,,5e8208d95442a6028e919b7f,62c539ed9c20d67962129e59,2022-07-06_09h31.54.064,Colour_Asymmetry_Pilot,2022.1.3,Win32,58.91363261,62c50e9c1127f2cd403a315f,0,131,131,123,1,twofour,,,,,,,,,,,,,,,,,,,,,,,,,,,,,,,,,,,,,,,,,,,,,,,,,,,,,,,,,,,,,,,,,,,,,,,,,,,,,,,,,,,,,,,,,,,,,,,,,,,,,,,,,,,,,,,,,,,,,,,,,,,,,,,,,,,,,,,,,,,,,,,,,,,,,,,,,,,,
,,,,,,5e8208d95442a6028e919b7f,62c539ed9c20d67962129e59,2022-07-06_09h31.54.064,Colour_Asymmetry_Pilot,2022.1.3,Win32,58.91363261,62c50e9c1127f2cd403a315f,0,132,132,91,1,twofour,,,,,,,,,,,,,,,,,,,,,,,,,,,,,,,,,,,,,,,,,,,,,,,,,,,,,,,,,,,,,,,,,,,,,,,,,,,,,,,,,,,,,,,,,,,,,,,,,,,,,,,,,,,,,,,,,,,,,,,,,,,,,,,,,,,,,,,,,,,,,,,,,,,,,,,,,,,,
,,,,,,5e8208d95442a6028e919b7f,62c539ed9c20d67962129e59,2022-07-06_09h31.54.064,Colour_Asymmetry_Pilot,2022.1.3,Win32,58.91363261,62c50e9c1127f2cd403a315f,0,133,133,6,1,fourtwo,,,,,,,,,,,,,,,,,,,,,,,,,,,,,,,,,,,,,,,,,,,,,,,,,,,,,,,,,,,,,,,,,,,,,,,,,,,,,,,,,,,,,,,,,,,,,,,,,,,,,,,,,,,,,,,,,,,,,,,,,,,,,,,,,,,,,,,,,,,,,,,,,,,,,,,,,,,,
,,,,,,5e8208d95442a6028e919b7f,62c539ed9c20d67962129e59,2022-07-06_09h31.54.064,Colour_Asymmetry_Pilot,2022.1.3,Win32,58.91363261,62c50e9c1127f2cd403a315f,0,134,134,141,1,threefour,,,,,,,,,,,,,,,,,,,,,,,,,,,,,,,,,,,,,,,,,,,,,,,,,,,,,,,,,,,,,,,,,,,,,,,,,,,,,,,,,,,,,,,,,,,,,,,,,,,,,,,,,,,,,,,,,,,,,,,,,,,,,,,,,,,,,,,,,,,,,,,,,,,,,,,,,,,,
,,,,,,5e8208d95442a6028e919b7f,62c539ed9c20d67962129e59,2022-07-06_09h31.54.064,Colour_Asymmetry_Pilot,2022.1.3,Win32,58.91363261,62c50e9c1127f2cd403a315f,0,135,135,150,1,fourtwo,,,,,,,,,,,,,,,,,,,,,,,,,,,,,,,,,,,,,,,,,,,,,,,,,,,,,,,,,,,,,,,,,,,,,,,,,,,,,,,,,,,,,,,,,,,,,,,,,,,,,,,,,,,,,,,,,,,,,,,,,,,,,,,,,,,,,,,,,,,,,,,,,,,,,,,,,,,,
,,,,,,5e8208d95442a6028e919b7f,62c539ed9c20d67962129e59,2022-07-06_09h31.54.064,Colour_Asymmetry_Pilot,2022.1.3,Win32,58.91363261,62c50e9c1127f2cd403a315f,0,136,136,76,1,threeone,,,,,,,,,,,,,,,,,,,,,,,,,,,,,,,,,,,,,,,,,,,,,,,,,,,,,,,,,,,,,,,,,,,,,,,,,,,,,,,,,,,,,,,,,,,,,,,,,,,,,,,,,,,,,,,,,,,,,,,,,,,,,,,,,,,,,,,,,,,,,,,,,,,,,,,,,,,,
,,,,,,5e8208d95442a6028e919b7f,62c539ed9c20d67962129e59,2022-07-06_09h31.54.064,Colour_Asymmetry_Pilot,2022.1.3,Win32,58.91363261,62c50e9c1127f2cd403a315f,0,137,137,41,1,onethree,,,,,,,,,,,,,,,,,,,,,,,,,,,,,,,,,,,,,,,,,,,,,,,,,,,,,,,,,,,,,,,,,,,,,,,,,,,,,,,,,,,,,,,,,,,,,,,,,,,,,,,,,,,,,,,,,,,,,,,,,,,,,,,,,,,,,,,,,,,,,,,,,,,,,,,,,,,,
,,,,,,5e8208d95442a6028e919b7f,62c539ed9c20d67962129e59,2022-07-06_09h31.54.064,Colour_Asymmetry_Pilot,2022.1.3,Win32,58.91363261,62c50e9c1127f2cd403a315f,0,138,138,24,1,onetwo,,,,,,,,,,,,,,,,,,,,,,,,,,,,,,,,,,,,,,,,,,,,,,,,,,,,,,,,,,,,,,,,,,,,,,,,,,,,,,,,,,,,,,,,,,,,,,,,,,,,,,,,,,,,,,,,,,,,,,,,,,,,,,,,,,,,,,,,,,,,,,,,,,,,,,,,,,,,
,,,,,,5e8208d95442a6028e919b7f,62c539ed9c20d67962129e59,2022-07-06_09h31.54.064,Colour_Asymmetry_Pilot,2022.1.3,Win32,58.91363261,62c50e9c1127f2cd403a315f,0,139,139,44,1,threeone,,,,,,,,,,,,,,,,,,,,,,,,,,,,,,,,,,,,,,,,,,,,,,,,,,,,,,,,,,,,,,,,,,,,,,,,,,,,,,,,,,,,,,,,,,,,,,,,,,,,,,,,,,,,,,,,,,,,,,,,,,,,,,,,,,,,,,,,,,,,,,,,,,,,,,,,,,,,
,,,,,,5e8208d95442a6028e919b7f,62c539ed9c20d67962129e59,2022-07-06_09h31.54.064,Colour_Asymmetry_Pilot,2022.1.3,Win32,58.91363261,62c50e9c1127f2cd403a315f,0,140,140,126,1,fourtwo,,,,,,,,,,,,,,,,,,,,,,,,,,,,,,,,,,,,,,,,,,,,,,,,,,,,,,,,,,,,,,,,,,,,,,,,,,,,,,,,,,,,,,,,,,,,,,,,,,,,,,,,,,,,,,,,,,,,,,,,,,,,,,,,,,,,,,,,,,,,,,,,,,,,,,,,,,,,
,,,,,,5e8208d95442a6028e919b7f,62c539ed9c20d67962129e59,2022-07-06_09h31.54.064,Colour_Asymmetry_Pilot,2022.1.3,Win32,58.91363261,62c50e9c1127f2cd403a315f,0,141,141,125,1,threefour,,,,,,,,,,,,,,,,,,,,,,,,,,,,,,,,,,,,,,,,,,,,,,,,,,,,,,,,,,,,,,,,,,,,,,,,,,,,,,,,,,,,,,,,,,,,,,,,,,,,,,,,,,,,,,,,,,,,,,,,,,,,,,,,,,,,,,,,,,,,,,,,,,,,,,,,,,,,
,,,,,,5e8208d95442a6028e919b7f,62c539ed9c20d67962129e59,2022-07-06_09h31.54.064,Colour_Asymmetry_Pilot,2022.1.3,Win32,58.91363261,62c50e9c1127f2cd403a315f,0,142,142,109,1,threefour,,,,,,,,,,,,,,,,,,,,,,,,,,,,,,,,,,,,,,,,,,,,,,,,,,,,,,,,,,,,,,,,,,,,,,,,,,,,,,,,,,,,,,,,,,,,,,,,,,,,,,,,,,,,,,,,,,,,,,,,,,,,,,,,,,,,,,,,,,,,,,,,,,,,,,,,,,,,
,,,,,,5e8208d95442a6028e919b7f,62c539ed9c20d67962129e59,2022-07-06_09h31.54.064,Colour_Asymmetry_Pilot,2022.1.3,Win32,58.91363261,62c50e9c1127f2cd403a315f,0,143,143,107,1,twofour,,,,,,,,,,,,,,,,,,,,,,,,,,,,,,,,,,,,,,,,,,,,,,,,,,,,,,,,,,,,,,,,,,,,,,,,,,,,,,,,,,,,,,,,,,,,,,,,,,,,,,,,,,,,,,,,,,,,,,,,,,,,,,,,,,,,,,,,,,,,,,,,,,,,,,,,,,,,
,,,,,,5e8208d95442a6028e919b7f,62c539ed9c20d67962129e59,2022-07-06_09h31.54.064,Colour_Asymmetry_Pilot,2022.1.3,Win32,58.91363261,62c50e9c1127f2cd403a315f,0,144,144,14,1,fourtwo,,,,,,,,,,,,,,,,,,,,,,,,,,,,,,,,,,,,,,,,,,,,,,,,,,,,,,,,,,,,,,,,,,,,,,,,,,,,,,,,,,,,,,,,,,,,,,,,,,,,,,,,,,,,,,,,,,,,,,,,,,,,,,,,,,,,,,,,,,,,,,,,,,,,,,,,,,,,
,,,,,,5e8208d95442a6028e919b7f,62c539ed9c20d67962129e59,2022-07-06_09h31.54.064,Colour_Asymmetry_Pilot,2022.1.3,Win32,58.91363261,62c50e9c1127f2cd403a315f,0,145,145,49,1,onethree,,,,,,,,,,,,,,,,,,,,,,,,,,,,,,,,,,,,,,,,,,,,,,,,,,,,,,,,,,,,,,,,,,,,,,,,,,,,,,,,,,,,,,,,,,,,,,,,,,,,,,,,,,,,,,,,,,,,,,,,,,,,,,,,,,,,,,,,,,,,,,,,,,,,,,,,,,,,
,,,,,,5e8208d95442a6028e919b7f,62c539ed9c20d67962129e59,2022-07-06_09h31.54.064,Colour_Asymmetry_Pilot,2022.1.3,Win32,58.91363261,62c50e9c1127f2cd403a315f,0,146,146,97,1,onethree,,,,,,,,,,,,,,,,,,,,,,,,,,,,,,,,,,,,,,,,,,,,,,,,,,,,,,,,,,,,,,,,,,,,,,,,,,,,,,,,,,,,,,,,,,,,,,,,,,,,,,,,,,,,,,,,,,,,,,,,,,,,,,,,,,,,,,,,,,,,,,,,,,,,,,,,,,,,
,,,,,,5e8208d95442a6028e919b7f,62c539ed9c20d67962129e59,2022-07-06_09h31.54.064,Colour_Asymmetry_Pilot,2022.1.3,Win32,58.91363261,62c50e9c1127f2cd403a315f,0,147,147,118,1,fourtwo,,,,,,,,,,,,,,,,,,,,,,,,,,,,,,,,,,,,,,,,,,,,,,,,,,,,,,,,,,,,,,,,,,,,,,,,,,,,,,,,,,,,,,,,,,,,,,,,,,,,,,,,,,,,,,,,,,,,,,,,,,,,,,,,,,,,,,,,,,,,,,,,,,,,,,,,,,,,
,,,,,,5e8208d95442a6028e919b7f,62c539ed9c20d67962129e59,2022-07-06_09h31.54.064,Colour_Asymmetry_Pilot,2022.1.3,Win32,58.91363261,62c50e9c1127f2cd403a315f,0,148,148,94,1,fourtwo,,,,,,,,,,,,,,,,,,,,,,,,,,,,,,,,,,,,,,,,,,,,,,,,,,,,,,,,,,,,,,,,,,,,,,,,,,,,,,,,,,,,,,,,,,,,,,,,,,,,,,,,,,,,,,,,,,,,,,,,,,,,,,,,,,,,,,,,,,,,,,,,,,,,,,,,,,,,
,,,,,,5e8208d95442a6028e919b7f,62c539ed9c20d67962129e59,2022-07-06_09h31.54.064,Colour_Asymmetry_Pilot,2022.1.3,Win32,58.91363261,62c50e9c1127f2cd403a315f,0,149,149,156,1,threeone,,,,,,,,,,,,,,,,,,,,,,,,,,,,,,,,,,,,,,,,,,,,,,,,,,,,,,,,,,,,,,,,,,,,,,,,,,,,,,,,,,,,,,,,,,,,,,,,,,,,,,,,,,,,,,,,,,,,,,,,,,,,,,,,,,,,,,,,,,,,,,,,,,,,,,,,,,,,
,,,,,,5e8208d95442a6028e919b7f,62c539ed9c20d67962129e59,2022-07-06_09h31.54.064,Colour_Asymmetry_Pilot,2022.1.3,Win32,58.91363261,62c50e9c1127f2cd403a315f,0,150,150,65,1,onethree,,,,,,,,,,,,,,,,,,,,,,,,,,,,,,,,,,,,,,,,,,,,,,,,,,,,,,,,,,,,,,,,,,,,,,,,,,,,,,,,,,,,,,,,,,,,,,,,,,,,,,,,,,,,,,,,,,,,,,,,,,,,,,,,,,,,,,,,,,,,,,,,,,,,,,,,,,,,
,,,,,,5e8208d95442a6028e919b7f,62c539ed9c20d67962129e59,2022-07-06_09h31.54.064,Colour_Asymmetry_Pilot,2022.1.3,Win32,58.91363261,62c50e9c1127f2cd403a315f,0,151,151,18,1,twoone,,,,,,,,,,,,,,,,,,,,,,,,,,,,,,,,,,,,,,,,,,,,,,,,,,,,,,,,,,,,,,,,,,,,,,,,,,,,,,,,,,,,,,,,,,,,,,,,,,,,,,,,,,,,,,,,,,,,,,,,,,,,,,,,,,,,,,,,,,,,,,,,,,,,,,,,,,,,
,,,,,,5e8208d95442a6028e919b7f,62c539ed9c20d67962129e59,2022-07-06_09h31.54.064,Colour_Asymmetry_Pilot,2022.1.3,Win32,58.91363261,62c50e9c1127f2cd403a315f,0,152,152,159,1,fourthree,,,,,,,,,,,,,,,,,,,,,,,,,,,,,,,,,,,,,,,,,,,,,,,,,,,,,,,,,,,,,,,,,,,,,,,,,,,,,,,,,,,,,,,,,,,,,,,,,,,,,,,,,,,,,,,,,,,,,,,,,,,,,,,,,,,,,,,,,,,,,,,,,,,,,,,,,,,,
,,,,,,5e8208d95442a6028e919b7f,62c539ed9c20d67962129e59,2022-07-06_09h31.54.064,Colour_Asymmetry_Pilot,2022.1.3,Win32,58.91363261,62c50e9c1127f2cd403a315f,0,153,153,75,1,twofour,,,,,,,,,,,,,,,,,,,,,,,,,,,,,,,,,,,,,,,,,,,,,,,,,,,,,,,,,,,,,,,,,,,,,,,,,,,,,,,,,,,,,,,,,,,,,,,,,,,,,,,,,,,,,,,,,,,,,,,,,,,,,,,,,,,,,,,,,,,,,,,,,,,,,,,,,,,,
,,,,,,5e8208d95442a6028e919b7f,62c539ed9c20d67962129e59,2022-07-06_09h31.54.064,Colour_Asymmetry_Pilot,2022.1.3,Win32,58.91363261,62c50e9c1127f2cd403a315f,0,154,154,43,1,twofour,,,,,,,,,,,,,,,,,,,,,,,,,,,,,,,,,,,,,,,,,,,,,,,,,,,,,,,,,,,,,,,,,,,,,,,,,,,,,,,,,,,,,,,,,,,,,,,,,,,,,,,,,,,,,,,,,,,,,,,,,,,,,,,,,,,,,,,,,,,,,,,,,,,,,,,,,,,,
,,,,,,5e8208d95442a6028e919b7f,62c539ed9c20d67962129e59,2022-07-06_09h31.54.064,Colour_Asymmetry_Pilot,2022.1.3,Win32,58.91363261,62c50e9c1127f2cd403a315f,0,155,155,20,1,threeone,,,,,,,,,,,,,,,,,,,,,,,,,,,,,,,,,,,,,,,,,,,,,,,,,,,,,,,,,,,,,,,,,,,,,,,,,,,,,,,,,,,,,,,,,,,,,,,,,,,,,,,,,,,,,,,,,,,,,,,,,,,,,,,,,,,,,,,,,,,,,,,,,,,,,,,,,,,,
,,,,,,5e8208d95442a6028e919b7f,62c539ed9c20d67962129e59,2022-07-06_09h31.54.064,Colour_Asymmetry_Pilot,2022.1.3,Win32,58.91363261,62c50e9c1127f2cd403a315f,0,156,156,22,1,fourtwo,,,,,,,,,,,,,,,,,,,,,,,,,,,,,,,,,,,,,,,,,,,,,,,,,,,,,,,,,,,,,,,,,,,,,,,,,,,,,,,,,,,,,,,,,,,,,,,,,,,,,,,,,,,,,,,,,,,,,,,,,,,,,,,,,,,,,,,,,,,,,,,,,,,,,,,,,,,,
,,,,,,5e8208d95442a6028e919b7f,62c539ed9c20d67962129e59,2022-07-06_09h31.54.064,Colour_Asymmetry_Pilot,2022.1.3,Win32,58.91363261,62c50e9c1127f2cd403a315f,0,157,157,112,1,onetwo,,,,,,,,,,,,,,,,,,,,,,,,,,,,,,,,,,,,,,,,,,,,,,,,,,,,,,,,,,,,,,,,,,,,,,,,,,,,,,,,,,,,,,,,,,,,,,,,,,,,,,,,,,,,,,,,,,,,,,,,,,,,,,,,,,,,,,,,,,,,,,,,,,,,,,,,,,,,
,,,,,,5e8208d95442a6028e919b7f,62c539ed9c20d67962129e59,2022-07-06_09h31.54.064,Colour_Asymmetry_Pilot,2022.1.3,Win32,58.91363261,62c50e9c1127f2cd403a315f,0,158,158,11,1,twofour,,,,,,,,,,,,,,,,,,,,,,,,,,,,,,,,,,,,,,,,,,,,,,,,,,,,,,,,,,,,,,,,,,,,,,,,,,,,,,,,,,,,,,,,,,,,,,,,,,,,,,,,,,,,,,,,,,,,,,,,,,,,,,,,,,,,,,,,,,,,,,,,,,,,,,,,,,,,
,,,,,,5e8208d95442a6028e919b7f,62c539ed9c20d67962129e59,2022-07-06_09h31.54.064,Colour_Asymmetry_Pilot,2022.1.3,Win32,58.91363261,62c50e9c1127f2cd403a315f,0,159,159,86,1,fourtwo,,,,,,,,,,,,,,,,,,,,,,,,,,,,,,,,,,,,,,,,,,,,,,,,,,,,,,,,,,,,,,,,,,,,,,,,,,,,,,,,,,,,,,,,,,,,,,,,,,,,,,,,,,,,,,,,,,,,,,,,,,,,,,,,,,,,,,,,,,,,,,,,,,,,,,,,,,,,
,,,,,,5e8208d95442a6028e919b7f,62c539ed9c20d67962129e59,2022-07-06_09h31.54.064,Colour_Asymmetry_Pilot,2022.1.3,Win32,58.91363261,62c50e9c1127f2cd403a315f,0,160,160,29,1,threefour,,,,,,,,,,,,,,,,,,,,,,,,,,,,,,,,,,,,,,,,,,,,,,,,,,,,,,,,,,,,,,,,,,,,,,,,,,,,,,,,,,,,,,,,,,,,,,,,,,,,,,,,,,,,,,,,,,,,,,,,,,,,,,,,,,,,,,,,,,,,,,,,,,,,,,,,,,,,
,,,,,,5e8208d95442a6028e919b7f,62c539ed9c20d67962129e59,2022-07-06_09h31.54.064,Colour_Asymmetry_Pilot,2022.1.3,Win32,58.91363261,62c50e9c1127f2cd403a315f,0,161,161,68,1,threeone,,,,,,,,,,,,,,,,,,,,,,,,,,,,,,,,,,,,,,,,,,,,,,,,,,,,,,,,,,,,,,,,,,,,,,,,,,,,,,,,,,,,,,,,,,,,,,,,,,,,,,,,,,,,,,,,,,,,,,,,,,,,,,,,,,,,,,,,,,,,,,,,,,,,,,,,,,,,
,,,,,,5e8208d95442a6028e919b7f,62c539ed9c20d67962129e59,2022-07-06_09h31.54.064,Colour_Asymmetry_Pilot,2022.1.3,Win32,58.91363261,62c50e9c1127f2cd403a315f,,,,,,,space,1.7606,space,10.4902,space,32.9818,space,21.3039,space,3.4691,space,2.737,"[0.9763999999999999,-0.1137999999999999,-0.6314]",fourthree,"[0.05879999999999996,0.2784,0.5841999999999998]",-4,8.2884,-51,84,1,0,0,response7disk_5,2,4,1,0,0,rectangle_8,52,-92,1,0,0,response3disk_7,4,1,9,2,1,0,0,rectangle_4,0,0,0,0,1,,,,,,,,,,,,,,,,,,,,,,,,,,,,,,,,,,,,,,,,,,,,,,,,,,,,,,,,,,,,,,,,,,,,,,,,,,,,,,,,,,,,,,,,,,,,,,,,,,,,,,,,,,,,
,,,,,,5e8208d95442a6028e919b7f,62c539ed9c20d67962129e59,2022-07-06_09h31.54.064,Colour_Asymmetry_Pilot,2022.1.3,Win32,58.91363261,62c50e9c1127f2cd403a315f,,,,,,,,,,,,,,,,,,,"[-0.6942,-0.7648,-0.12959999999999994]",onetwo,"[-0.0040000000000000036,0.02739999999999987,-0.08239999999999992]",3,3.5523,92,37,1,0,0,response1disk_5,1,-1,1,0,0,rectangle_8,1,-1,1,0,0,,,1,1,-1,1,0,0,,1,0,1,0,1,,,,,,,,,,,,,,,,,,,,,,,,,,,,,,,,,,,,,,,,,,,,,,,,,,,,,,,,,,,,,,,,,,,,,,,,,,,,,,,,,,,,,,,,,,,,,,,,,,,,,,,,,,,,
,,,,,,5e8208d95442a6028e919b7f,62c539ed9c20d67962129e59,2022-07-06_09h31.54.064,Colour_Asymmetry_Pilot,2022.1.3,Win32,58.91363261,62c50e9c1127f2cd403a315f,,,,,,,,,,,,,,,,,,,"[-0.9688,-0.7412000000000001,-0.4902000000000001]",fourthree,"[-0.8198,-0.5138,-0.7492000000000001]",-2,1.802,-73,-40,1,0,0,response5disk_5,2,-5,1,0,0,rectangle_8,45,-100,1,0,0,response3disk_7,4,1,-2,-1,1,0,0,rectangle_4,2,0,2,0,1,,,,,,,,,,,,,,,,,,,,,,,,,,,,,,,,,,,,,,,,,,,,,,,,,,,,,,,,,,,,,,,,,,,,,,,,,,,,,,,,,,,,,,,,,,,,,,,,,,,,,,,,,,,,
,,,,,,5e8208d95442a6028e919b7f,62c539ed9c20d67962129e59,2022-07-06_09h31.54.064,Colour_Asymmetry_Pilot,2022.1.3,Win32,58.91363261,62c50e9c1127f2cd403a315f,,,,,,,,,,,,,,,,,,,"[-0.4902000000000001,0.2704,-0.45899999999999996]",threefour,"[-0.9766,-0.34920000000000007,0.2156]",-1,1.7066,-29,-96,1,0,0,response5disk_5,-6,1,1,0,0,rectangle_8,-6,1,1,0,0,,,1,-6,1,1,0,0,,3,0,3,0,1,,,,,,,,,,,,,,,,,,,,,,,,,,,,,,,,,,,,,,,,,,,,,,,,,,,,,,,,,,,,,,,,,,,,,,,,,,,,,,,,,,,,,,,,,,,,,,,,,,,,,,,,,,,,
,,,,,,5e8208d95442a6028e919b7f,62c539ed9c20d67962129e59,2022-07-06_09h31.54.064,Colour_Asymmetry_Pilot,2022.1.3,Win32,58.91363261,62c50e9c1127f2cd403a315f,,,,,,,,,,,,,,,,,,,"[-0.8982,-0.37259999999999993,0.2784]",fourtwo,"[-0.9688,-0.4902000000000001,-0.12159999999999993]",3,1.3547,85,41,1,0,0,response1disk_5,10,-3,1,0,0,rectangle_8,10,-3,1,0,0,,,1,10,-3,1,0,0,,4,0,4,0,1,,,,,,,,,,,,,,,,,,,,,,,,,,,,,,,,,,,,,,,,,,,,,,,,,,,,,,,,,,,,,,,,,,,,,,,,,,,,,,,,,,,,,,,,,,,,,,,,,,,,,,,,,,,,
,,,,,,5e8208d95442a6028e919b7f,62c539ed9c20d67962129e59,2022-07-06_09h31.54.064,Colour_Asymmetry_Pilot,2022.1.3,Win32,58.91363261,62c50e9c1127f2cd403a315f,,,,,,,,,,,,,,,,,,,"[0.4196,0.4665999999999999,0.3568]",threefour,"[-0.10599999999999998,-0.15300000000000002,0.15280000000000005]",-1,1.7676,-43,-67,1,0,0,response5disk_5,-2,-3,1,0,0,rectangle_8,-2,-3,1,0,0,,,1,-2,-3,1,0,0,,5,0,5,0,1,,,,,,,,,,,,,,,,,,,,,,,,,,,,,,,,,,,,,,,,,,,,,,,,,,,,,,,,,,,,,,,,,,,,,,,,,,,,,,,,,,,,,,,,,,,,,,,,,,,,,,,,,,,,
,,,,,,5e8208d95442a6028e919b7f,62c539ed9c20d67962129e59,2022-07-06_09h31.54.064,Colour_Asymmetry_Pilot,2022.1.3,Win32,58.91363261,62c50e9c1127f2cd403a315f,,,,,,,,,,,,,,,,,,,"[0.0351999999999999,0.41159999999999997,0.0038000000000000256]",threefour,"[0.3881999999999999,-0.23939999999999995,-0.05040000000000011]",-3,1.5064,-82,55,1,0,0,response7disk_5,2,-5,1,0,0,rectangle_8,2,-5,1,0,0,,,1,2,-5,1,0,0,,6,0,6,0,1,,,,,,,,,,,,,,,,,,,,,,,,,,,,,,,,,,,,,,,,,,,,,,,,,,,,,,,,,,,,,,,,,,,,,,,,,,,,,,,,,,,,,,,,,,,,,,,,,,,,,,,,,,,,
,,,,,,5e8208d95442a6028e919b7f,62c539ed9c20d67962129e59,2022-07-06_09h31.54.064,Colour_Asymmetry_Pilot,2022.1.3,Win32,58.91363261,62c50e9c1127f2cd403a315f,,,,,,,,,,,,,,,,,,,,threefour,,-3,1.2377,,,,,,,,,,,,,,,,,,,,,,,,,,,,,,,,space,3.2817,"[-0.26280000000000003,-0.4746,-0.2158]","[-0.050999999999999934,-0.6706000000000001,-0.804]",-77,28,1,0,0,response7disk,-5,1,1,0,0,rectangle,-5,1,1,0,0,,2,0.0064,0,-5,1,1,0,0,0,0,0,48,1,48,first,,,,,,,,,,,,,,,,,,,,,,,,,,,,,,,,,,,,,,,,,,,,,,,,,,,,,,,,,,,,,,,,,,,,,,,
,,,,,,5e8208d95442a6028e919b7f,62c539ed9c20d67962129e59,2022-07-06_09h31.54.064,Colour_Asymmetry_Pilot,2022.1.3,Win32,58.91363261,62c50e9c1127f2cd403a315f,,,,,,,,,,,,,,,,,,,,twofour,,2,1.2696,,,,,,,,,,,,,,,,,,,,,,,,,,,,,,,,,,"[-0.2942,-0.24719999999999998,-0.357]","[0.2862,0.7802,0.3568]",86,-48,1,0,0,response3disk,8,4,1,0,0,rectangle,8,4,1,0,0,,3,0.003,0,8,4,1,0,0,0,1,1,119,1,38,second,,,,,,,,,,,,,,,,,,,,,,,,,,,,,,,,,,,,,,,,,,,,,,,,,,,,,,,,,,,,,,,,,,,,,,,
,,,,,,5e8208d95442a6028e919b7f,62c539ed9c20d67962129e59,2022-07-06_09h31.54.064,Colour_Asymmetry_Pilot,2022.1.3,Win32,58.91363261,62c50e9c1127f2cd403a315f,,,,,,,,,,,,,,,,,,,,threeone,,3,0.8845,,,,,,,,,,,,,,,,,,,,,,,,,,,,,,,,,,"[-0.6942,-0.7648,-0.12959999999999994]","[0.05879999999999996,0.2784,0.5841999999999998]",79,49,1,0,0,response1disk,-8,2,1,0,0,rectangle,-8,2,1,0,0,,2,0.0031,0,-8,2,1,0,0,0,2,2,22,1,22,first,,,,,,,,,,,,,,,,,,,,,,,,,,,,,,,,,,,,,,,,,,,,,,,,,,,,,,,,,,,,,,,,,,,,,,,
,,,,,,5e8208d95442a6028e919b7f,62c539ed9c20d67962129e59,2022-07-06_09h31.54.064,Colour_Asymmetry_Pilot,2022.1.3,Win32,58.91363261,62c50e9c1127f2cd403a315f,,,,,,,,,,,,,,,,,,,,threefour,,-3,0.7819,,,,,,,,,,,,,,,,,,,,,,,,,,,,,,,,,,"[-0.011800000000000033,-0.906,-0.45100000000000007]","[0.2862,0.7802,0.3568]",-92,25,1,0,0,response7disk,-11,5,1,0,0,rectangle,-11,5,1,0,0,,3,0.003,0,-11,5,1,0,0,0,3,3,26,1,26,first,,,,,,,,,,,,,,,,,,,,,,,,,,,,,,,,,,,,,,,,,,,,,,,,,,,,,,,,,,,,,,,,,,,,,,,
,,,,,,5e8208d95442a6028e919b7f,62c539ed9c20d67962129e59,2022-07-06_09h31.54.064,Colour_Asymmetry_Pilot,2022.1.3,Win32,58.91363261,62c50e9c1127f2cd403a315f,,,,,,,,,,,,,,,,,,,,twoone,,-3,0.6617,,,,,,,,,,,,,,,,,,,,,,,,,,,,,,,,,,"[-0.4982,-0.2942,-0.0354000000000001]","[0.9686000000000001,0.3802000000000001,0.19999999999999996]",-68,47,1,0,0,response7disk,2,6,1,0,0,rectangle,2,6,1,0,0,,3,0.0007,0,2,6,1,0,0,0,4,4,15,1,15,first,,,,,,,,,,,,,,,,,,,,,,,,,,,,,,,,,,,,,,,,,,,,,,,,,,,,,,,,,,,,,,,,,,,,,,,
,,,,,,5e8208d95442a6028e919b7f,62c539ed9c20d67962129e59,2022-07-06_09h31.54.064,Colour_Asymmetry_Pilot,2022.1.3,Win32,58.91363261,62c50e9c1127f2cd403a315f,,,,,,,,,,,,,,,,,,,,threefour,,-4,0.5851,,,,,,,,,,,,,,,,,,,,,,,,,,,,,,,,,,"[0.7018,0.7802,-0.16079999999999994]","[0.09799999999999986,-0.24719999999999998,0.15280000000000005]",-51,76,1,0,0,response7disk,9,-3,1,0,0,rectangle,9,-3,1,0,0,,1,0.0028,0,9,-3,1,0,0,0,5,5,130,1,49,second,,,,,,,,,,,,,,,,,,,,,,,,,,,,,,,,,,,,,,,,,,,,,,,,,,,,,,,,,,,,,,,,,,,,,,,
,,,,,,5e8208d95442a6028e919b7f,62c539ed9c20d67962129e59,2022-07-06_09h31.54.064,Colour_Asymmetry_Pilot,2022.1.3,Win32,58.91363261,62c50e9c1127f2cd403a315f,,,,,,,,,,,,,,,,,,,,onetwo,,-4,0.5477,,,,,,,,,,,,,,,,,,,,,,,,,,,,,,,,,,"[-0.17659999999999998,0.3253999999999999,0.19999999999999996]","[-0.34920000000000007,-0.702,-0.5216]",-46,86,1,0,0,response7disk,13,1,1,0,0,rectangle,13,1,1,0,0,,3,0.0029,0,13,1,1,0,0,0,6,6,84,1,3,second,,,,,,,,,,,,,,,,,,,,,,,,,,,,,,,,,,,,,,,,,,,,,,,,,,,,,,,,,,,,,,,,,,,,,,,
,,,,,,5e8208d95442a6028e919b7f,62c539ed9c20d67962129e59,2022-07-06_09h31.54.064,Colour_Asymmetry_Pilot,2022.1.3,Win32,58.91363261,62c50e9c1127f2cd403a315f,,,,,,,,,,,,,,,,,,,,twofour,,-4,0.4811,,,,,,,,,,,,,,,,,,,,,,,,,,,,,,,,,,"[-0.5922000000000001,-0.7492000000000001,-0.5296000000000001]","[0.7018,0.7802,-0.16079999999999994]",-53,94,1,0,0,response7disk,2,-6,1,0,0,rectangle,2,-6,1,0,0,,2,0.0028,0,2,-6,1,0,0,0,7,7,154,1,73,second,,,,,,,,,,,,,,,,,,,,,,,,,,,,,,,,,,,,,,,,,,,,,,,,,,,,,,,,,,,,,,,,,,,,,,,
,,,,,,5e8208d95442a6028e919b7f,62c539ed9c20d67962129e59,2022-07-06_09h31.54.064,Colour_Asymmetry_Pilot,2022.1.3,Win32,58.91363261,62c50e9c1127f2cd403a315f,,,,,,,,,,,,,,,,,,,,fourthree,,2,1.8849,,,,,,,,,,,,,,,,,,,,,,,,,,,,,,,,,,"[-0.9138,-0.5296000000000001,-0.5529999999999999]","[-0.6706000000000001,-0.6157999999999999,-0.6786]",81,-27,1,0,0,response3disk,-5,6,1,0,0,rectangle,-5,6,1,0,0,,1,0.003,0,-5,6,1,0,0,0,8,8,71,1,71,first,,,,,,,,,,,,,,,,,,,,,,,,,,,,,,,,,,,,,,,,,,,,,,,,,,,,,,,,,,,,,,,,,,,,,,,
,,,,,,5e8208d95442a6028e919b7f,62c539ed9c20d67962129e59,2022-07-06_09h31.54.064,Colour_Asymmetry_Pilot,2022.1.3,Win32,58.91363261,62c50e9c1127f2cd403a315f,,,,,,,,,,,,,,,,,,,,onetwo,,-3,3.1184,,,,,,,,,,,,,,,,,,,,,,,,,,,,,,,,,,"[-0.9688,-0.38039999999999996,-0.41979999999999995]","[0.9686000000000001,0.5763999999999998,0.11359999999999992]",-75,36,1,0,0,response7disk,-1,-10,1,0,0,rectangle,-1,-10,1,0,0,,3,0.0063,0,-1,-10,1,0,0,0,9,9,101,1,20,second,,,,,,,,,,,,,,,,,,,,,,,,,,,,,,,,,,,,,,,,,,,,,,,,,,,,,,,,,,,,,,,,,,,,,,,
,,,,,,5e8208d95442a6028e919b7f,62c539ed9c20d67962129e59,2022-07-06_09h31.54.064,Colour_Asymmetry_Pilot,2022.1.3,Win32,58.91363261,62c50e9c1127f2cd403a315f,,,,,,,,,,,,,,,,,,,,onetwo,,3,0.5033,,,,,,,,,,,,,,,,,,,,,,,,,,,,,,,,,,"[-0.6706000000000001,-0.6157999999999999,-0.6786]","[-0.5688,-0.08239999999999992,-0.1844]",82,36,1,0,0,response1disk,-11,0,1,0,0,rectangle,-11,0,1,0,0,,1,0.0026,0,-11,0,1,0,0,0,10,10,82,1,1,second,,,,,,,,,,,,,,,,,,,,,,,,,,,,,,,,,,,,,,,,,,,,,,,,,,,,,,,,,,,,,,,,,,,,,,,
,,,,,,5e8208d95442a6028e919b7f,62c539ed9c20d67962129e59,2022-07-06_09h31.54.064,Colour_Asymmetry_Pilot,2022.1.3,Win32,58.91363261,62c50e9c1127f2cd403a315f,,,,,,,,,,,,,,,,,,,,twofour,,-3,0.5306,,,,,,,,,,,,,,,,,,,,,,,,,,,,,,,,,,"[0.34099999999999997,0.12939999999999996,-0.9766]","[-0.26280000000000003,-0.4746,-0.2158]",-63,52,1,0,0,response7disk,1,8,1,0,0,rectangle,1,8,1,0,0,,1,0.0054,0,1,8,1,0,0,0,11,11,7,1,7,first,,,,,,,,,,,,,,,,,,,,,,,,,,,,,,,,,,,,,,,,,,,,,,,,,,,,,,,,,,,,,,,,,,,,,,,
,,,,,,5e8208d95442a6028e919b7f,62c539ed9c20d67962129e59,2022-07-06_09h31.54.064,Colour_Asymmetry_Pilot,2022.1.3,Win32,58.91363261,62c50e9c1127f2cd403a315f,,,,,,,,,,,,,,,,,,,,fourtwo,,-2,0.8866,,,,,,,,,,,,,,,,,,,,,,,,,,,,,,,,,,"[0.6547999999999998,-0.043199999999999905,-0.011800000000000033]","[-0.17659999999999998,0.3253999999999999,0.19999999999999996]",-80,-61,1,0,0,response5disk,-5,10,1,0,0,rectangle,-5,10,1,0,0,,2,0.0029,0,-5,10,1,0,0,0,12,12,98,1,17,second,,,,,,,,,,,,,,,,,,,,,,,,,,,,,,,,,,,,,,,,,,,,,,,,,,,,,,,,,,,,,,,,,,,,,,,
,,,,,,5e8208d95442a6028e919b7f,62c539ed9c20d67962129e59,2022-07-06_09h31.54.064,Colour_Asymmetry_Pilot,2022.1.3,Win32,58.91363261,62c50e9c1127f2cd403a315f,,,,,,,,,,,,,,,,,,,,fourthree,,1,1.7353,,,,,,,,,,,,,,,,,,,,,,,,,,,,,,,,,,"[-0.011800000000000033,-0.906,-0.45100000000000007]","[-0.050999999999999934,-0.6706000000000001,-0.804]",44,-77,1,0,0,response3disk,-7,-3,1,0,0,rectangle,-7,-3,1,0,0,,2,0.0014,0,-7,-3,1,0,0,0,13,13,30,1,30,first,,,,,,,,,,,,,,,,,,,,,,,,,,,,,,,,,,,,,,,,,,,,,,,,,,,,,,,,,,,,,,,,,,,,,,,
,,,,,,5e8208d95442a6028e919b7f,62c539ed9c20d67962129e59,2022-07-06_09h31.54.064,Colour_Asymmetry_Pilot,2022.1.3,Win32,58.91363261,62c50e9c1127f2cd403a315f,,,,,,,,,,,,,,,,,,,,fourthree,,-3,4.3515,,,,,,,,,,,,,,,,,,,,,,,,,,,,,,,,,,"[-0.38039999999999996,-0.4276,-0.1452]","[-0.26280000000000003,-0.2158,-0.3256]",-72,50,1,0,0,response7disk,8,6,1,0,0,rectangle,8,6,1,0,0,,1,0.003,0,8,6,1,0,0,0,14,14,138,1,57,second,,,,,,,,,,,,,,,,,,,,,,,,,,,,,,,,,,,,,,,,,,,,,,,,,,,,,,,,,,,,,,,,,,,,,,,
,,,,,,5e8208d95442a6028e919b7f,62c539ed9c20d67962129e59,2022-07-06_09h31.54.064,Colour_Asymmetry_Pilot,2022.1.3,Win32,58.91363261,62c50e9c1127f2cd403a315f,,,,,,,,,,,,,,,,,,,,twoone,,1,2.2186,,,,,,,,,,,,,,,,,,,,,,,,,,,,,,,,,,"[0.34099999999999997,0.5841999999999998,-0.9844]","[-0.48240000000000005,0.3175999999999999,0.2156]",37,-86,1,0,0,response3disk,4,4,1,0,0,rectangle,34,-83,1,0,0,1,1,2.0759,1,-2,7,1,0,0,0,15,15,104,1,23,second,response3disk_3,rectangle,,,,,,,,,,,,,,,,,,,,,,,,,,,,,,,,,,,,,,,,,,,,,,,,,,,,,,,,,,,,,,,,,,,,,
,,,,,,5e8208d95442a6028e919b7f,62c539ed9c20d67962129e59,2022-07-06_09h31.54.064,Colour_Asymmetry_Pilot,2022.1.3,Win32,58.91363261,62c50e9c1127f2cd403a315f,,,,,,,,,,,,,,,,,,,,threefour,,2,4.9684,,,,,,,,,,,,,,,,,,,,,,,,,,,,,,,,,,"[0.0351999999999999,0.41159999999999997,0.0038000000000000256]","[-0.5452,-0.608,0.2470000000000001]",86,-47,1,0,0,response3disk,-4,4,1,0,0,rectangle,-4,4,1,0,0,1,2,0.0027,0,-4,4,1,0,0,0,16,16,122,1,41,second,,,,,,,,,,,,,,,,,,,,,,,,,,,,,,,,,,,,,,,,,,,,,,,,,,,,,,,,,,,,,,,,,,,,,,,
,,,,,,5e8208d95442a6028e919b7f,62c539ed9c20d67962129e59,2022-07-06_09h31.54.064,Colour_Asymmetry_Pilot,2022.1.3,Win32,58.91363261,62c50e9c1127f2cd403a315f,,,,,,,,,,,,,,,,,,,,onetwo,,3,1.4723,,,,,,,,,,,,,,,,,,,,,,,,,,,,,,,,,,"[0.3802000000000001,0.19199999999999995,-0.6394]","[-0.07459999999999989,0.12139999999999995,-0.9922]",108,66,1,0,0,response1disk,-3,3,1,0,0,rectangle,-3,3,1,0,0,1,2,0.0007,0,-3,3,1,0,0,0,17,17,53,1,53,first,,,,,,,,,,,,,,,,,,,,,,,,,,,,,,,,,,,,,,,,,,,,,,,,,,,,,,,,,,,,,,,,,,,,,,,
