trials.thisRepN,trials.thisTrialN,trials.thisN,trials.thisIndex,trials.ran,Colourcodes,participant,session,date,expName,psychopyVersion,OS,frameRate,study_id,trials_4.thisRepN,trials_4.thisTrialN,trials_4.thisN,trials_4.thisIndex,trials_4.ran,StimulusPos,key_resp.keys,key_resp.rt,key_resp_2.keys,key_resp_2.rt,key_resp_15.keys,key_resp_15.rt,key_resp_17.keys,key_resp_17.rt,key_resp_9.keys,key_resp_9.rt,key_resp_10.keys,key_resp_10.rt,Circle1_col,Ecc,Circle2_col,similarity,response_time,mouse_5.x,mouse_5.y,mouse_5.leftButton,mouse_5.midButton,mouse_5.rightButton,mouse_5.clicked_name,mouse_10.x,mouse_10.y,mouse_10.leftButton,mouse_10.midButton,mouse_10.rightButton,mouse_10.clicked_name,mouse_7.x,mouse_7.y,mouse_7.leftButton,mouse_7.midButton,mouse_7.rightButton,catchnumberprac,mouse_6.x,mouse_6.y,mouse_6.leftButton,mouse_6.midButton,mouse_6.rightButton,duringprac.thisRepN,duringprac.thisTrialN,duringprac.thisN,duringprac.thisIndex,duringprac.ran,mouse_7.clicked_name,catchprac,mouse_6.clicked_name,key_resp_22.keys,key_resp_22.rt,Circle1_colour,Circle2_colour,mouse.x,mouse.y,mouse.leftButton,mouse.midButton,mouse.rightButton,mouse.clicked_name,mouse_2.x,mouse_2.y,mouse_2.leftButton,mouse_2.midButton,mouse_2.rightButton,mouse_2.clicked_name,mouse_3.x,mouse_3.y,mouse_3.leftButton,mouse_3.midButton,mouse_3.rightButton,catchresponse,catchnumber,response_time_catch,Catch,mouse_11.x,mouse_11.y,mouse_11.leftButton,mouse_11.midButton,mouse_11.rightButton,trials_2.thisRepN,trials_2.thisTrialN,trials_2.thisN,trials_2.thisIndex,trials_2.ran,Colourpair,Temporder,mouse_3.clicked_name,mouse_11.clicked_name,trials_3.thisRepN,trials_3.thisTrialN,trials_3.thisN,trials_3.thisIndex,trials_3.ran,key_resp_instr_Ishi.keys,key_resp_instr_Ishi.rt,Ishi_trial_keyresp.keys,Ishi_textbox.text,Ishi_mouse.x,Ishi_mouse.y,Ishi_mouse.leftButton,Ishi_mouse.midButton,Ishi_mouse.rightButton,Ishi_mouse.clicked_name,Ishi_loop.thisRepN,Ishi_loop.thisTrialN,Ishi_loop.thisN,Ishi_loop.thisIndex,Ishi_loop.ran,imageaddress,textbox.text,mouse_4.x,mouse_4.y,mouse_4.leftButton,mouse_4.midButton,mouse_4.rightButton,mouse_4.clicked_name,textbox_2.text,mouse_8.x,mouse_8.y,mouse_8.leftButton,mouse_8.midButton,mouse_8.rightButton,mouse_8.clicked_name,textbox_3.text,mouse_9.x,mouse_9.y,mouse_9.leftButton,mouse_9.midButton,mouse_9.rightButton,mouse_9.clicked_name,textbox_4.text,mouse_12.x,mouse_12.y,mouse_12.leftButton,mouse_12.midButton,mouse_12.rightButton,mouse_12.clicked_name,textbox_5.text,mouse_13.x,mouse_13.y,mouse_13.leftButton,mouse_13.midButton,mouse_13.rightButton,mouse_13.clicked_name,textbox_6.text,mouse_14.x,mouse_14.y,mouse_14.leftButton,mouse_14.midButton,mouse_14.rightButton,mouse_14.clicked_name,textbox_7.text,mouse_15.x,mouse_15.y,mouse_15.leftButton,mouse_15.midButton,mouse_15.rightButton,mouse_15.clicked_name
0,0,0,2,1,,5f492ff7da9c144461f399f5,62c5399b303bf8e23fd01cba,2022-07-06_09h28.50.943,Colour_Asymmetry_Pilot,2022.1.3,Win32,59.77286312,62c50e9c1127f2cd403a315f,,,,,,,,,,,,,,,,,,,,,,,,,,,,,,,,,,,,,,,,,,,,,,,,,,,,,,,,,,,,,,,,,,,,,,,,,,,,,,,,,,,,,,,,,,,,,,,,,,,,,,,,,,,,,,,,,,,,,,,,,,,,,,,,,,,,,,,,,,,,,,,,,,,,,,,,,,,,,,,,,,,
0,1,1,60,1,,5f492ff7da9c144461f399f5,62c5399b303bf8e23fd01cba,2022-07-06_09h28.50.943,Colour_Asymmetry_Pilot,2022.1.3,Win32,59.77286312,62c50e9c1127f2cd403a315f,,,,,,,,,,,,,,,,,,,,,,,,,,,,,,,,,,,,,,,,,,,,,,,,,,,,,,,,,,,,,,,,,,,,,,,,,,,,,,,,,,,,,,,,,,,,,,,,,,,,,,,,,,,,,,,,,,,,,,,,,,,,,,,,,,,,,,,,,,,,,,,,,,,,,,,,,,,,,,,,,,,
0,2,2,26,1,,5f492ff7da9c144461f399f5,62c5399b303bf8e23fd01cba,2022-07-06_09h28.50.943,Colour_Asymmetry_Pilot,2022.1.3,Win32,59.77286312,62c50e9c1127f2cd403a315f,,,,,,,,,,,,,,,,,,,,,,,,,,,,,,,,,,,,,,,,,,,,,,,,,,,,,,,,,,,,,,,,,,,,,,,,,,,,,,,,,,,,,,,,,,,,,,,,,,,,,,,,,,,,,,,,,,,,,,,,,,,,,,,,,,,,,,,,,,,,,,,,,,,,,,,,,,,,,,,,,,,
0,3,3,42,1,,5f492ff7da9c144461f399f5,62c5399b303bf8e23fd01cba,2022-07-06_09h28.50.943,Colour_Asymmetry_Pilot,2022.1.3,Win32,59.77286312,62c50e9c1127f2cd403a315f,,,,,,,,,,,,,,,,,,,,,,,,,,,,,,,,,,,,,,,,,,,,,,,,,,,,,,,,,,,,,,,,,,,,,,,,,,,,,,,,,,,,,,,,,,,,,,,,,,,,,,,,,,,,,,,,,,,,,,,,,,,,,,,,,,,,,,,,,,,,,,,,,,,,,,,,,,,,,,,,,,,
0,4,4,84,1,,5f492ff7da9c144461f399f5,62c5399b303bf8e23fd01cba,2022-07-06_09h28.50.943,Colour_Asymmetry_Pilot,2022.1.3,Win32,59.77286312,62c50e9c1127f2cd403a315f,,,,,,,,,,,,,,,,,,,,,,,,,,,,,,,,,,,,,,,,,,,,,,,,,,,,,,,,,,,,,,,,,,,,,,,,,,,,,,,,,,,,,,,,,,,,,,,,,,,,,,,,,,,,,,,,,,,,,,,,,,,,,,,,,,,,,,,,,,,,,,,,,,,,,,,,,,,,,,,,,,,
0,5,5,61,1,,5f492ff7da9c144461f399f5,62c5399b303bf8e23fd01cba,2022-07-06_09h28.50.943,Colour_Asymmetry_Pilot,2022.1.3,Win32,59.77286312,62c50e9c1127f2cd403a315f,,,,,,,,,,,,,,,,,,,,,,,,,,,,,,,,,,,,,,,,,,,,,,,,,,,,,,,,,,,,,,,,,,,,,,,,,,,,,,,,,,,,,,,,,,,,,,,,,,,,,,,,,,,,,,,,,,,,,,,,,,,,,,,,,,,,,,,,,,,,,,,,,,,,,,,,,,,,,,,,,,,
0,6,6,43,1,,5f492ff7da9c144461f399f5,62c5399b303bf8e23fd01cba,2022-07-06_09h28.50.943,Colour_Asymmetry_Pilot,2022.1.3,Win32,59.77286312,62c50e9c1127f2cd403a315f,,,,,,,,,,,,,,,,,,,,,,,,,,,,,,,,,,,,,,,,,,,,,,,,,,,,,,,,,,,,,,,,,,,,,,,,,,,,,,,,,,,,,,,,,,,,,,,,,,,,,,,,,,,,,,,,,,,,,,,,,,,,,,,,,,,,,,,,,,,,,,,,,,,,,,,,,,,,,,,,,,,
0,7,7,18,1,,5f492ff7da9c144461f399f5,62c5399b303bf8e23fd01cba,2022-07-06_09h28.50.943,Colour_Asymmetry_Pilot,2022.1.3,Win32,59.77286312,62c50e9c1127f2cd403a315f,,,,,,,,,,,,,,,,,,,,,,,,,,,,,,,,,,,,,,,,,,,,,,,,,,,,,,,,,,,,,,,,,,,,,,,,,,,,,,,,,,,,,,,,,,,,,,,,,,,,,,,,,,,,,,,,,,,,,,,,,,,,,,,,,,,,,,,,,,,,,,,,,,,,,,,,,,,,,,,,,,,
0,8,8,41,1,,5f492ff7da9c144461f399f5,62c5399b303bf8e23fd01cba,2022-07-06_09h28.50.943,Colour_Asymmetry_Pilot,2022.1.3,Win32,59.77286312,62c50e9c1127f2cd403a315f,,,,,,,,,,,,,,,,,,,,,,,,,,,,,,,,,,,,,,,,,,,,,,,,,,,,,,,,,,,,,,,,,,,,,,,,,,,,,,,,,,,,,,,,,,,,,,,,,,,,,,,,,,,,,,,,,,,,,,,,,,,,,,,,,,,,,,,,,,,,,,,,,,,,,,,,,,,,,,,,,,,
0,9,9,70,1,,5f492ff7da9c144461f399f5,62c5399b303bf8e23fd01cba,2022-07-06_09h28.50.943,Colour_Asymmetry_Pilot,2022.1.3,Win32,59.77286312,62c50e9c1127f2cd403a315f,,,,,,,,,,,,,,,,,,,,,,,,,,,,,,,,,,,,,,,,,,,,,,,,,,,,,,,,,,,,,,,,,,,,,,,,,,,,,,,,,,,,,,,,,,,,,,,,,,,,,,,,,,,,,,,,,,,,,,,,,,,,,,,,,,,,,,,,,,,,,,,,,,,,,,,,,,,,,,,,,,,
0,10,10,57,1,,5f492ff7da9c144461f399f5,62c5399b303bf8e23fd01cba,2022-07-06_09h28.50.943,Colour_Asymmetry_Pilot,2022.1.3,Win32,59.77286312,62c50e9c1127f2cd403a315f,,,,,,,,,,,,,,,,,,,,,,,,,,,,,,,,,,,,,,,,,,,,,,,,,,,,,,,,,,,,,,,,,,,,,,,,,,,,,,,,,,,,,,,,,,,,,,,,,,,,,,,,,,,,,,,,,,,,,,,,,,,,,,,,,,,,,,,,,,,,,,,,,,,,,,,,,,,,,,,,,,,
0,11,11,28,1,,5f492ff7da9c144461f399f5,62c5399b303bf8e23fd01cba,2022-07-06_09h28.50.943,Colour_Asymmetry_Pilot,2022.1.3,Win32,59.77286312,62c50e9c1127f2cd403a315f,,,,,,,,,,,,,,,,,,,,,,,,,,,,,,,,,,,,,,,,,,,,,,,,,,,,,,,,,,,,,,,,,,,,,,,,,,,,,,,,,,,,,,,,,,,,,,,,,,,,,,,,,,,,,,,,,,,,,,,,,,,,,,,,,,,,,,,,,,,,,,,,,,,,,,,,,,,,,,,,,,,
0,12,12,34,1,,5f492ff7da9c144461f399f5,62c5399b303bf8e23fd01cba,2022-07-06_09h28.50.943,Colour_Asymmetry_Pilot,2022.1.3,Win32,59.77286312,62c50e9c1127f2cd403a315f,,,,,,,,,,,,,,,,,,,,,,,,,,,,,,,,,,,,,,,,,,,,,,,,,,,,,,,,,,,,,,,,,,,,,,,,,,,,,,,,,,,,,,,,,,,,,,,,,,,,,,,,,,,,,,,,,,,,,,,,,,,,,,,,,,,,,,,,,,,,,,,,,,,,,,,,,,,,,,,,,,,
0,13,13,22,1,,5f492ff7da9c144461f399f5,62c5399b303bf8e23fd01cba,2022-07-06_09h28.50.943,Colour_Asymmetry_Pilot,2022.1.3,Win32,59.77286312,62c50e9c1127f2cd403a315f,,,,,,,,,,,,,,,,,,,,,,,,,,,,,,,,,,,,,,,,,,,,,,,,,,,,,,,,,,,,,,,,,,,,,,,,,,,,,,,,,,,,,,,,,,,,,,,,,,,,,,,,,,,,,,,,,,,,,,,,,,,,,,,,,,,,,,,,,,,,,,,,,,,,,,,,,,,,,,,,,,,
0,14,14,89,1,,5f492ff7da9c144461f399f5,62c5399b303bf8e23fd01cba,2022-07-06_09h28.50.943,Colour_Asymmetry_Pilot,2022.1.3,Win32,59.77286312,62c50e9c1127f2cd403a315f,,,,,,,,,,,,,,,,,,,,,,,,,,,,,,,,,,,,,,,,,,,,,,,,,,,,,,,,,,,,,,,,,,,,,,,,,,,,,,,,,,,,,,,,,,,,,,,,,,,,,,,,,,,,,,,,,,,,,,,,,,,,,,,,,,,,,,,,,,,,,,,,,,,,,,,,,,,,,,,,,,,
0,15,15,14,1,,5f492ff7da9c144461f399f5,62c5399b303bf8e23fd01cba,2022-07-06_09h28.50.943,Colour_Asymmetry_Pilot,2022.1.3,Win32,59.77286312,62c50e9c1127f2cd403a315f,,,,,,,,,,,,,,,,,,,,,,,,,,,,,,,,,,,,,,,,,,,,,,,,,,,,,,,,,,,,,,,,,,,,,,,,,,,,,,,,,,,,,,,,,,,,,,,,,,,,,,,,,,,,,,,,,,,,,,,,,,,,,,,,,,,,,,,,,,,,,,,,,,,,,,,,,,,,,,,,,,,
0,16,16,78,1,,5f492ff7da9c144461f399f5,62c5399b303bf8e23fd01cba,2022-07-06_09h28.50.943,Colour_Asymmetry_Pilot,2022.1.3,Win32,59.77286312,62c50e9c1127f2cd403a315f,,,,,,,,,,,,,,,,,,,,,,,,,,,,,,,,,,,,,,,,,,,,,,,,,,,,,,,,,,,,,,,,,,,,,,,,,,,,,,,,,,,,,,,,,,,,,,,,,,,,,,,,,,,,,,,,,,,,,,,,,,,,,,,,,,,,,,,,,,,,,,,,,,,,,,,,,,,,,,,,,,,
0,17,17,38,1,,5f492ff7da9c144461f399f5,62c5399b303bf8e23fd01cba,2022-07-06_09h28.50.943,Colour_Asymmetry_Pilot,2022.1.3,Win32,59.77286312,62c50e9c1127f2cd403a315f,,,,,,,,,,,,,,,,,,,,,,,,,,,,,,,,,,,,,,,,,,,,,,,,,,,,,,,,,,,,,,,,,,,,,,,,,,,,,,,,,,,,,,,,,,,,,,,,,,,,,,,,,,,,,,,,,,,,,,,,,,,,,,,,,,,,,,,,,,,,,,,,,,,,,,,,,,,,,,,,,,,
0,18,18,64,1,,5f492ff7da9c144461f399f5,62c5399b303bf8e23fd01cba,2022-07-06_09h28.50.943,Colour_Asymmetry_Pilot,2022.1.3,Win32,59.77286312,62c50e9c1127f2cd403a315f,,,,,,,,,,,,,,,,,,,,,,,,,,,,,,,,,,,,,,,,,,,,,,,,,,,,,,,,,,,,,,,,,,,,,,,,,,,,,,,,,,,,,,,,,,,,,,,,,,,,,,,,,,,,,,,,,,,,,,,,,,,,,,,,,,,,,,,,,,,,,,,,,,,,,,,,,,,,,,,,,,,
0,19,19,9,1,,5f492ff7da9c144461f399f5,62c5399b303bf8e23fd01cba,2022-07-06_09h28.50.943,Colour_Asymmetry_Pilot,2022.1.3,Win32,59.77286312,62c50e9c1127f2cd403a315f,,,,,,,,,,,,,,,,,,,,,,,,,,,,,,,,,,,,,,,,,,,,,,,,,,,,,,,,,,,,,,,,,,,,,,,,,,,,,,,,,,,,,,,,,,,,,,,,,,,,,,,,,,,,,,,,,,,,,,,,,,,,,,,,,,,,,,,,,,,,,,,,,,,,,,,,,,,,,,,,,,,
0,20,20,75,1,,5f492ff7da9c144461f399f5,62c5399b303bf8e23fd01cba,2022-07-06_09h28.50.943,Colour_Asymmetry_Pilot,2022.1.3,Win32,59.77286312,62c50e9c1127f2cd403a315f,,,,,,,,,,,,,,,,,,,,,,,,,,,,,,,,,,,,,,,,,,,,,,,,,,,,,,,,,,,,,,,,,,,,,,,,,,,,,,,,,,,,,,,,,,,,,,,,,,,,,,,,,,,,,,,,,,,,,,,,,,,,,,,,,,,,,,,,,,,,,,,,,,,,,,,,,,,,,,,,,,,
0,21,21,8,1,,5f492ff7da9c144461f399f5,62c5399b303bf8e23fd01cba,2022-07-06_09h28.50.943,Colour_Asymmetry_Pilot,2022.1.3,Win32,59.77286312,62c50e9c1127f2cd403a315f,,,,,,,,,,,,,,,,,,,,,,,,,,,,,,,,,,,,,,,,,,,,,,,,,,,,,,,,,,,,,,,,,,,,,,,,,,,,,,,,,,,,,,,,,,,,,,,,,,,,,,,,,,,,,,,,,,,,,,,,,,,,,,,,,,,,,,,,,,,,,,,,,,,,,,,,,,,,,,,,,,,
0,22,22,23,1,,5f492ff7da9c144461f399f5,62c5399b303bf8e23fd01cba,2022-07-06_09h28.50.943,Colour_Asymmetry_Pilot,2022.1.3,Win32,59.77286312,62c50e9c1127f2cd403a315f,,,,,,,,,,,,,,,,,,,,,,,,,,,,,,,,,,,,,,,,,,,,,,,,,,,,,,,,,,,,,,,,,,,,,,,,,,,,,,,,,,,,,,,,,,,,,,,,,,,,,,,,,,,,,,,,,,,,,,,,,,,,,,,,,,,,,,,,,,,,,,,,,,,,,,,,,,,,,,,,,,,
0,23,23,82,1,,5f492ff7da9c144461f399f5,62c5399b303bf8e23fd01cba,2022-07-06_09h28.50.943,Colour_Asymmetry_Pilot,2022.1.3,Win32,59.77286312,62c50e9c1127f2cd403a315f,,,,,,,,,,,,,,,,,,,,,,,,,,,,,,,,,,,,,,,,,,,,,,,,,,,,,,,,,,,,,,,,,,,,,,,,,,,,,,,,,,,,,,,,,,,,,,,,,,,,,,,,,,,,,,,,,,,,,,,,,,,,,,,,,,,,,,,,,,,,,,,,,,,,,,,,,,,,,,,,,,,
0,24,24,85,1,,5f492ff7da9c144461f399f5,62c5399b303bf8e23fd01cba,2022-07-06_09h28.50.943,Colour_Asymmetry_Pilot,2022.1.3,Win32,59.77286312,62c50e9c1127f2cd403a315f,,,,,,,,,,,,,,,,,,,,,,,,,,,,,,,,,,,,,,,,,,,,,,,,,,,,,,,,,,,,,,,,,,,,,,,,,,,,,,,,,,,,,,,,,,,,,,,,,,,,,,,,,,,,,,,,,,,,,,,,,,,,,,,,,,,,,,,,,,,,,,,,,,,,,,,,,,,,,,,,,,,
0,25,25,91,1,,5f492ff7da9c144461f399f5,62c5399b303bf8e23fd01cba,2022-07-06_09h28.50.943,Colour_Asymmetry_Pilot,2022.1.3,Win32,59.77286312,62c50e9c1127f2cd403a315f,,,,,,,,,,,,,,,,,,,,,,,,,,,,,,,,,,,,,,,,,,,,,,,,,,,,,,,,,,,,,,,,,,,,,,,,,,,,,,,,,,,,,,,,,,,,,,,,,,,,,,,,,,,,,,,,,,,,,,,,,,,,,,,,,,,,,,,,,,,,,,,,,,,,,,,,,,,,,,,,,,,
0,26,26,40,1,,5f492ff7da9c144461f399f5,62c5399b303bf8e23fd01cba,2022-07-06_09h28.50.943,Colour_Asymmetry_Pilot,2022.1.3,Win32,59.77286312,62c50e9c1127f2cd403a315f,,,,,,,,,,,,,,,,,,,,,,,,,,,,,,,,,,,,,,,,,,,,,,,,,,,,,,,,,,,,,,,,,,,,,,,,,,,,,,,,,,,,,,,,,,,,,,,,,,,,,,,,,,,,,,,,,,,,,,,,,,,,,,,,,,,,,,,,,,,,,,,,,,,,,,,,,,,,,,,,,,,
0,27,27,72,1,,5f492ff7da9c144461f399f5,62c5399b303bf8e23fd01cba,2022-07-06_09h28.50.943,Colour_Asymmetry_Pilot,2022.1.3,Win32,59.77286312,62c50e9c1127f2cd403a315f,,,,,,,,,,,,,,,,,,,,,,,,,,,,,,,,,,,,,,,,,,,,,,,,,,,,,,,,,,,,,,,,,,,,,,,,,,,,,,,,,,,,,,,,,,,,,,,,,,,,,,,,,,,,,,,,,,,,,,,,,,,,,,,,,,,,,,,,,,,,,,,,,,,,,,,,,,,,,,,,,,,
0,28,28,47,1,,5f492ff7da9c144461f399f5,62c5399b303bf8e23fd01cba,2022-07-06_09h28.50.943,Colour_Asymmetry_Pilot,2022.1.3,Win32,59.77286312,62c50e9c1127f2cd403a315f,,,,,,,,,,,,,,,,,,,,,,,,,,,,,,,,,,,,,,,,,,,,,,,,,,,,,,,,,,,,,,,,,,,,,,,,,,,,,,,,,,,,,,,,,,,,,,,,,,,,,,,,,,,,,,,,,,,,,,,,,,,,,,,,,,,,,,,,,,,,,,,,,,,,,,,,,,,,,,,,,,,
0,29,29,48,1,,5f492ff7da9c144461f399f5,62c5399b303bf8e23fd01cba,2022-07-06_09h28.50.943,Colour_Asymmetry_Pilot,2022.1.3,Win32,59.77286312,62c50e9c1127f2cd403a315f,,,,,,,,,,,,,,,,,,,,,,,,,,,,,,,,,,,,,,,,,,,,,,,,,,,,,,,,,,,,,,,,,,,,,,,,,,,,,,,,,,,,,,,,,,,,,,,,,,,,,,,,,,,,,,,,,,,,,,,,,,,,,,,,,,,,,,,,,,,,,,,,,,,,,,,,,,,,,,,,,,,
0,30,30,79,1,,5f492ff7da9c144461f399f5,62c5399b303bf8e23fd01cba,2022-07-06_09h28.50.943,Colour_Asymmetry_Pilot,2022.1.3,Win32,59.77286312,62c50e9c1127f2cd403a315f,,,,,,,,,,,,,,,,,,,,,,,,,,,,,,,,,,,,,,,,,,,,,,,,,,,,,,,,,,,,,,,,,,,,,,,,,,,,,,,,,,,,,,,,,,,,,,,,,,,,,,,,,,,,,,,,,,,,,,,,,,,,,,,,,,,,,,,,,,,,,,,,,,,,,,,,,,,,,,,,,,,
0,31,31,30,1,,5f492ff7da9c144461f399f5,62c5399b303bf8e23fd01cba,2022-07-06_09h28.50.943,Colour_Asymmetry_Pilot,2022.1.3,Win32,59.77286312,62c50e9c1127f2cd403a315f,,,,,,,,,,,,,,,,,,,,,,,,,,,,,,,,,,,,,,,,,,,,,,,,,,,,,,,,,,,,,,,,,,,,,,,,,,,,,,,,,,,,,,,,,,,,,,,,,,,,,,,,,,,,,,,,,,,,,,,,,,,,,,,,,,,,,,,,,,,,,,,,,,,,,,,,,,,,,,,,,,,
0,32,32,33,1,,5f492ff7da9c144461f399f5,62c5399b303bf8e23fd01cba,2022-07-06_09h28.50.943,Colour_Asymmetry_Pilot,2022.1.3,Win32,59.77286312,62c50e9c1127f2cd403a315f,,,,,,,,,,,,,,,,,,,,,,,,,,,,,,,,,,,,,,,,,,,,,,,,,,,,,,,,,,,,,,,,,,,,,,,,,,,,,,,,,,,,,,,,,,,,,,,,,,,,,,,,,,,,,,,,,,,,,,,,,,,,,,,,,,,,,,,,,,,,,,,,,,,,,,,,,,,,,,,,,,,
0,33,33,86,1,,5f492ff7da9c144461f399f5,62c5399b303bf8e23fd01cba,2022-07-06_09h28.50.943,Colour_Asymmetry_Pilot,2022.1.3,Win32,59.77286312,62c50e9c1127f2cd403a315f,,,,,,,,,,,,,,,,,,,,,,,,,,,,,,,,,,,,,,,,,,,,,,,,,,,,,,,,,,,,,,,,,,,,,,,,,,,,,,,,,,,,,,,,,,,,,,,,,,,,,,,,,,,,,,,,,,,,,,,,,,,,,,,,,,,,,,,,,,,,,,,,,,,,,,,,,,,,,,,,,,,
0,34,34,17,1,,5f492ff7da9c144461f399f5,62c5399b303bf8e23fd01cba,2022-07-06_09h28.50.943,Colour_Asymmetry_Pilot,2022.1.3,Win32,59.77286312,62c50e9c1127f2cd403a315f,,,,,,,,,,,,,,,,,,,,,,,,,,,,,,,,,,,,,,,,,,,,,,,,,,,,,,,,,,,,,,,,,,,,,,,,,,,,,,,,,,,,,,,,,,,,,,,,,,,,,,,,,,,,,,,,,,,,,,,,,,,,,,,,,,,,,,,,,,,,,,,,,,,,,,,,,,,,,,,,,,,
0,35,35,54,1,,5f492ff7da9c144461f399f5,62c5399b303bf8e23fd01cba,2022-07-06_09h28.50.943,Colour_Asymmetry_Pilot,2022.1.3,Win32,59.77286312,62c50e9c1127f2cd403a315f,,,,,,,,,,,,,,,,,,,,,,,,,,,,,,,,,,,,,,,,,,,,,,,,,,,,,,,,,,,,,,,,,,,,,,,,,,,,,,,,,,,,,,,,,,,,,,,,,,,,,,,,,,,,,,,,,,,,,,,,,,,,,,,,,,,,,,,,,,,,,,,,,,,,,,,,,,,,,,,,,,,
0,36,36,73,1,,5f492ff7da9c144461f399f5,62c5399b303bf8e23fd01cba,2022-07-06_09h28.50.943,Colour_Asymmetry_Pilot,2022.1.3,Win32,59.77286312,62c50e9c1127f2cd403a315f,,,,,,,,,,,,,,,,,,,,,,,,,,,,,,,,,,,,,,,,,,,,,,,,,,,,,,,,,,,,,,,,,,,,,,,,,,,,,,,,,,,,,,,,,,,,,,,,,,,,,,,,,,,,,,,,,,,,,,,,,,,,,,,,,,,,,,,,,,,,,,,,,,,,,,,,,,,,,,,,,,,
0,37,37,13,1,,5f492ff7da9c144461f399f5,62c5399b303bf8e23fd01cba,2022-07-06_09h28.50.943,Colour_Asymmetry_Pilot,2022.1.3,Win32,59.77286312,62c50e9c1127f2cd403a315f,,,,,,,,,,,,,,,,,,,,,,,,,,,,,,,,,,,,,,,,,,,,,,,,,,,,,,,,,,,,,,,,,,,,,,,,,,,,,,,,,,,,,,,,,,,,,,,,,,,,,,,,,,,,,,,,,,,,,,,,,,,,,,,,,,,,,,,,,,,,,,,,,,,,,,,,,,,,,,,,,,,
0,38,38,24,1,,5f492ff7da9c144461f399f5,62c5399b303bf8e23fd01cba,2022-07-06_09h28.50.943,Colour_Asymmetry_Pilot,2022.1.3,Win32,59.77286312,62c50e9c1127f2cd403a315f,,,,,,,,,,,,,,,,,,,,,,,,,,,,,,,,,,,,,,,,,,,,,,,,,,,,,,,,,,,,,,,,,,,,,,,,,,,,,,,,,,,,,,,,,,,,,,,,,,,,,,,,,,,,,,,,,,,,,,,,,,,,,,,,,,,,,,,,,,,,,,,,,,,,,,,,,,,,,,,,,,,
0,39,39,45,1,,5f492ff7da9c144461f399f5,62c5399b303bf8e23fd01cba,2022-07-06_09h28.50.943,Colour_Asymmetry_Pilot,2022.1.3,Win32,59.77286312,62c50e9c1127f2cd403a315f,,,,,,,,,,,,,,,,,,,,,,,,,,,,,,,,,,,,,,,,,,,,,,,,,,,,,,,,,,,,,,,,,,,,,,,,,,,,,,,,,,,,,,,,,,,,,,,,,,,,,,,,,,,,,,,,,,,,,,,,,,,,,,,,,,,,,,,,,,,,,,,,,,,,,,,,,,,,,,,,,,,
0,40,40,27,1,,5f492ff7da9c144461f399f5,62c5399b303bf8e23fd01cba,2022-07-06_09h28.50.943,Colour_Asymmetry_Pilot,2022.1.3,Win32,59.77286312,62c50e9c1127f2cd403a315f,,,,,,,,,,,,,,,,,,,,,,,,,,,,,,,,,,,,,,,,,,,,,,,,,,,,,,,,,,,,,,,,,,,,,,,,,,,,,,,,,,,,,,,,,,,,,,,,,,,,,,,,,,,,,,,,,,,,,,,,,,,,,,,,,,,,,,,,,,,,,,,,,,,,,,,,,,,,,,,,,,,
0,41,41,15,1,,5f492ff7da9c144461f399f5,62c5399b303bf8e23fd01cba,2022-07-06_09h28.50.943,Colour_Asymmetry_Pilot,2022.1.3,Win32,59.77286312,62c50e9c1127f2cd403a315f,,,,,,,,,,,,,,,,,,,,,,,,,,,,,,,,,,,,,,,,,,,,,,,,,,,,,,,,,,,,,,,,,,,,,,,,,,,,,,,,,,,,,,,,,,,,,,,,,,,,,,,,,,,,,,,,,,,,,,,,,,,,,,,,,,,,,,,,,,,,,,,,,,,,,,,,,,,,,,,,,,,
0,42,42,87,1,,5f492ff7da9c144461f399f5,62c5399b303bf8e23fd01cba,2022-07-06_09h28.50.943,Colour_Asymmetry_Pilot,2022.1.3,Win32,59.77286312,62c50e9c1127f2cd403a315f,,,,,,,,,,,,,,,,,,,,,,,,,,,,,,,,,,,,,,,,,,,,,,,,,,,,,,,,,,,,,,,,,,,,,,,,,,,,,,,,,,,,,,,,,,,,,,,,,,,,,,,,,,,,,,,,,,,,,,,,,,,,,,,,,,,,,,,,,,,,,,,,,,,,,,,,,,,,,,,,,,,
0,43,43,7,1,,5f492ff7da9c144461f399f5,62c5399b303bf8e23fd01cba,2022-07-06_09h28.50.943,Colour_Asymmetry_Pilot,2022.1.3,Win32,59.77286312,62c50e9c1127f2cd403a315f,,,,,,,,,,,,,,,,,,,,,,,,,,,,,,,,,,,,,,,,,,,,,,,,,,,,,,,,,,,,,,,,,,,,,,,,,,,,,,,,,,,,,,,,,,,,,,,,,,,,,,,,,,,,,,,,,,,,,,,,,,,,,,,,,,,,,,,,,,,,,,,,,,,,,,,,,,,,,,,,,,,
0,44,44,36,1,,5f492ff7da9c144461f399f5,62c5399b303bf8e23fd01cba,2022-07-06_09h28.50.943,Colour_Asymmetry_Pilot,2022.1.3,Win32,59.77286312,62c50e9c1127f2cd403a315f,,,,,,,,,,,,,,,,,,,,,,,,,,,,,,,,,,,,,,,,,,,,,,,,,,,,,,,,,,,,,,,,,,,,,,,,,,,,,,,,,,,,,,,,,,,,,,,,,,,,,,,,,,,,,,,,,,,,,,,,,,,,,,,,,,,,,,,,,,,,,,,,,,,,,,,,,,,,,,,,,,,
0,45,45,65,1,,5f492ff7da9c144461f399f5,62c5399b303bf8e23fd01cba,2022-07-06_09h28.50.943,Colour_Asymmetry_Pilot,2022.1.3,Win32,59.77286312,62c50e9c1127f2cd403a315f,,,,,,,,,,,,,,,,,,,,,,,,,,,,,,,,,,,,,,,,,,,,,,,,,,,,,,,,,,,,,,,,,,,,,,,,,,,,,,,,,,,,,,,,,,,,,,,,,,,,,,,,,,,,,,,,,,,,,,,,,,,,,,,,,,,,,,,,,,,,,,,,,,,,,,,,,,,,,,,,,,,
0,46,46,67,1,,5f492ff7da9c144461f399f5,62c5399b303bf8e23fd01cba,2022-07-06_09h28.50.943,Colour_Asymmetry_Pilot,2022.1.3,Win32,59.77286312,62c50e9c1127f2cd403a315f,,,,,,,,,,,,,,,,,,,,,,,,,,,,,,,,,,,,,,,,,,,,,,,,,,,,,,,,,,,,,,,,,,,,,,,,,,,,,,,,,,,,,,,,,,,,,,,,,,,,,,,,,,,,,,,,,,,,,,,,,,,,,,,,,,,,,,,,,,,,,,,,,,,,,,,,,,,,,,,,,,,
0,47,47,88,1,,5f492ff7da9c144461f399f5,62c5399b303bf8e23fd01cba,2022-07-06_09h28.50.943,Colour_Asymmetry_Pilot,2022.1.3,Win32,59.77286312,62c50e9c1127f2cd403a315f,,,,,,,,,,,,,,,,,,,,,,,,,,,,,,,,,,,,,,,,,,,,,,,,,,,,,,,,,,,,,,,,,,,,,,,,,,,,,,,,,,,,,,,,,,,,,,,,,,,,,,,,,,,,,,,,,,,,,,,,,,,,,,,,,,,,,,,,,,,,,,,,,,,,,,,,,,,,,,,,,,,
0,48,48,66,1,,5f492ff7da9c144461f399f5,62c5399b303bf8e23fd01cba,2022-07-06_09h28.50.943,Colour_Asymmetry_Pilot,2022.1.3,Win32,59.77286312,62c50e9c1127f2cd403a315f,,,,,,,,,,,,,,,,,,,,,,,,,,,,,,,,,,,,,,,,,,,,,,,,,,,,,,,,,,,,,,,,,,,,,,,,,,,,,,,,,,,,,,,,,,,,,,,,,,,,,,,,,,,,,,,,,,,,,,,,,,,,,,,,,,,,,,,,,,,,,,,,,,,,,,,,,,,,,,,,,,,
0,49,49,20,1,,5f492ff7da9c144461f399f5,62c5399b303bf8e23fd01cba,2022-07-06_09h28.50.943,Colour_Asymmetry_Pilot,2022.1.3,Win32,59.77286312,62c50e9c1127f2cd403a315f,,,,,,,,,,,,,,,,,,,,,,,,,,,,,,,,,,,,,,,,,,,,,,,,,,,,,,,,,,,,,,,,,,,,,,,,,,,,,,,,,,,,,,,,,,,,,,,,,,,,,,,,,,,,,,,,,,,,,,,,,,,,,,,,,,,,,,,,,,,,,,,,,,,,,,,,,,,,,,,,,,,
0,50,50,69,1,,5f492ff7da9c144461f399f5,62c5399b303bf8e23fd01cba,2022-07-06_09h28.50.943,Colour_Asymmetry_Pilot,2022.1.3,Win32,59.77286312,62c50e9c1127f2cd403a315f,,,,,,,,,,,,,,,,,,,,,,,,,,,,,,,,,,,,,,,,,,,,,,,,,,,,,,,,,,,,,,,,,,,,,,,,,,,,,,,,,,,,,,,,,,,,,,,,,,,,,,,,,,,,,,,,,,,,,,,,,,,,,,,,,,,,,,,,,,,,,,,,,,,,,,,,,,,,,,,,,,,
0,51,51,80,1,,5f492ff7da9c144461f399f5,62c5399b303bf8e23fd01cba,2022-07-06_09h28.50.943,Colour_Asymmetry_Pilot,2022.1.3,Win32,59.77286312,62c50e9c1127f2cd403a315f,,,,,,,,,,,,,,,,,,,,,,,,,,,,,,,,,,,,,,,,,,,,,,,,,,,,,,,,,,,,,,,,,,,,,,,,,,,,,,,,,,,,,,,,,,,,,,,,,,,,,,,,,,,,,,,,,,,,,,,,,,,,,,,,,,,,,,,,,,,,,,,,,,,,,,,,,,,,,,,,,,,
0,52,52,59,1,,5f492ff7da9c144461f399f5,62c5399b303bf8e23fd01cba,2022-07-06_09h28.50.943,Colour_Asymmetry_Pilot,2022.1.3,Win32,59.77286312,62c50e9c1127f2cd403a315f,,,,,,,,,,,,,,,,,,,,,,,,,,,,,,,,,,,,,,,,,,,,,,,,,,,,,,,,,,,,,,,,,,,,,,,,,,,,,,,,,,,,,,,,,,,,,,,,,,,,,,,,,,,,,,,,,,,,,,,,,,,,,,,,,,,,,,,,,,,,,,,,,,,,,,,,,,,,,,,,,,,
0,53,53,0,1,,5f492ff7da9c144461f399f5,62c5399b303bf8e23fd01cba,2022-07-06_09h28.50.943,Colour_Asymmetry_Pilot,2022.1.3,Win32,59.77286312,62c50e9c1127f2cd403a315f,,,,,,,,,,,,,,,,,,,,,,,,,,,,,,,,,,,,,,,,,,,,,,,,,,,,,,,,,,,,,,,,,,,,,,,,,,,,,,,,,,,,,,,,,,,,,,,,,,,,,,,,,,,,,,,,,,,,,,,,,,,,,,,,,,,,,,,,,,,,,,,,,,,,,,,,,,,,,,,,,,,
0,54,54,21,1,,5f492ff7da9c144461f399f5,62c5399b303bf8e23fd01cba,2022-07-06_09h28.50.943,Colour_Asymmetry_Pilot,2022.1.3,Win32,59.77286312,62c50e9c1127f2cd403a315f,,,,,,,,,,,,,,,,,,,,,,,,,,,,,,,,,,,,,,,,,,,,,,,,,,,,,,,,,,,,,,,,,,,,,,,,,,,,,,,,,,,,,,,,,,,,,,,,,,,,,,,,,,,,,,,,,,,,,,,,,,,,,,,,,,,,,,,,,,,,,,,,,,,,,,,,,,,,,,,,,,,
0,55,55,1,1,,5f492ff7da9c144461f399f5,62c5399b303bf8e23fd01cba,2022-07-06_09h28.50.943,Colour_Asymmetry_Pilot,2022.1.3,Win32,59.77286312,62c50e9c1127f2cd403a315f,,,,,,,,,,,,,,,,,,,,,,,,,,,,,,,,,,,,,,,,,,,,,,,,,,,,,,,,,,,,,,,,,,,,,,,,,,,,,,,,,,,,,,,,,,,,,,,,,,,,,,,,,,,,,,,,,,,,,,,,,,,,,,,,,,,,,,,,,,,,,,,,,,,,,,,,,,,,,,,,,,,
0,56,56,51,1,,5f492ff7da9c144461f399f5,62c5399b303bf8e23fd01cba,2022-07-06_09h28.50.943,Colour_Asymmetry_Pilot,2022.1.3,Win32,59.77286312,62c50e9c1127f2cd403a315f,,,,,,,,,,,,,,,,,,,,,,,,,,,,,,,,,,,,,,,,,,,,,,,,,,,,,,,,,,,,,,,,,,,,,,,,,,,,,,,,,,,,,,,,,,,,,,,,,,,,,,,,,,,,,,,,,,,,,,,,,,,,,,,,,,,,,,,,,,,,,,,,,,,,,,,,,,,,,,,,,,,
0,57,57,74,1,,5f492ff7da9c144461f399f5,62c5399b303bf8e23fd01cba,2022-07-06_09h28.50.943,Colour_Asymmetry_Pilot,2022.1.3,Win32,59.77286312,62c50e9c1127f2cd403a315f,,,,,,,,,,,,,,,,,,,,,,,,,,,,,,,,,,,,,,,,,,,,,,,,,,,,,,,,,,,,,,,,,,,,,,,,,,,,,,,,,,,,,,,,,,,,,,,,,,,,,,,,,,,,,,,,,,,,,,,,,,,,,,,,,,,,,,,,,,,,,,,,,,,,,,,,,,,,,,,,,,,
0,58,58,25,1,,5f492ff7da9c144461f399f5,62c5399b303bf8e23fd01cba,2022-07-06_09h28.50.943,Colour_Asymmetry_Pilot,2022.1.3,Win32,59.77286312,62c50e9c1127f2cd403a315f,,,,,,,,,,,,,,,,,,,,,,,,,,,,,,,,,,,,,,,,,,,,,,,,,,,,,,,,,,,,,,,,,,,,,,,,,,,,,,,,,,,,,,,,,,,,,,,,,,,,,,,,,,,,,,,,,,,,,,,,,,,,,,,,,,,,,,,,,,,,,,,,,,,,,,,,,,,,,,,,,,,
0,59,59,44,1,,5f492ff7da9c144461f399f5,62c5399b303bf8e23fd01cba,2022-07-06_09h28.50.943,Colour_Asymmetry_Pilot,2022.1.3,Win32,59.77286312,62c50e9c1127f2cd403a315f,,,,,,,,,,,,,,,,,,,,,,,,,,,,,,,,,,,,,,,,,,,,,,,,,,,,,,,,,,,,,,,,,,,,,,,,,,,,,,,,,,,,,,,,,,,,,,,,,,,,,,,,,,,,,,,,,,,,,,,,,,,,,,,,,,,,,,,,,,,,,,,,,,,,,,,,,,,,,,,,,,,
0,60,60,68,1,,5f492ff7da9c144461f399f5,62c5399b303bf8e23fd01cba,2022-07-06_09h28.50.943,Colour_Asymmetry_Pilot,2022.1.3,Win32,59.77286312,62c50e9c1127f2cd403a315f,,,,,,,,,,,,,,,,,,,,,,,,,,,,,,,,,,,,,,,,,,,,,,,,,,,,,,,,,,,,,,,,,,,,,,,,,,,,,,,,,,,,,,,,,,,,,,,,,,,,,,,,,,,,,,,,,,,,,,,,,,,,,,,,,,,,,,,,,,,,,,,,,,,,,,,,,,,,,,,,,,,
0,61,61,10,1,,5f492ff7da9c144461f399f5,62c5399b303bf8e23fd01cba,2022-07-06_09h28.50.943,Colour_Asymmetry_Pilot,2022.1.3,Win32,59.77286312,62c50e9c1127f2cd403a315f,,,,,,,,,,,,,,,,,,,,,,,,,,,,,,,,,,,,,,,,,,,,,,,,,,,,,,,,,,,,,,,,,,,,,,,,,,,,,,,,,,,,,,,,,,,,,,,,,,,,,,,,,,,,,,,,,,,,,,,,,,,,,,,,,,,,,,,,,,,,,,,,,,,,,,,,,,,,,,,,,,,
0,62,62,11,1,,5f492ff7da9c144461f399f5,62c5399b303bf8e23fd01cba,2022-07-06_09h28.50.943,Colour_Asymmetry_Pilot,2022.1.3,Win32,59.77286312,62c50e9c1127f2cd403a315f,,,,,,,,,,,,,,,,,,,,,,,,,,,,,,,,,,,,,,,,,,,,,,,,,,,,,,,,,,,,,,,,,,,,,,,,,,,,,,,,,,,,,,,,,,,,,,,,,,,,,,,,,,,,,,,,,,,,,,,,,,,,,,,,,,,,,,,,,,,,,,,,,,,,,,,,,,,,,,,,,,,
0,63,63,6,1,,5f492ff7da9c144461f399f5,62c5399b303bf8e23fd01cba,2022-07-06_09h28.50.943,Colour_Asymmetry_Pilot,2022.1.3,Win32,59.77286312,62c50e9c1127f2cd403a315f,,,,,,,,,,,,,,,,,,,,,,,,,,,,,,,,,,,,,,,,,,,,,,,,,,,,,,,,,,,,,,,,,,,,,,,,,,,,,,,,,,,,,,,,,,,,,,,,,,,,,,,,,,,,,,,,,,,,,,,,,,,,,,,,,,,,,,,,,,,,,,,,,,,,,,,,,,,,,,,,,,,
0,64,64,63,1,,5f492ff7da9c144461f399f5,62c5399b303bf8e23fd01cba,2022-07-06_09h28.50.943,Colour_Asymmetry_Pilot,2022.1.3,Win32,59.77286312,62c50e9c1127f2cd403a315f,,,,,,,,,,,,,,,,,,,,,,,,,,,,,,,,,,,,,,,,,,,,,,,,,,,,,,,,,,,,,,,,,,,,,,,,,,,,,,,,,,,,,,,,,,,,,,,,,,,,,,,,,,,,,,,,,,,,,,,,,,,,,,,,,,,,,,,,,,,,,,,,,,,,,,,,,,,,,,,,,,,
0,65,65,12,1,,5f492ff7da9c144461f399f5,62c5399b303bf8e23fd01cba,2022-07-06_09h28.50.943,Colour_Asymmetry_Pilot,2022.1.3,Win32,59.77286312,62c50e9c1127f2cd403a315f,,,,,,,,,,,,,,,,,,,,,,,,,,,,,,,,,,,,,,,,,,,,,,,,,,,,,,,,,,,,,,,,,,,,,,,,,,,,,,,,,,,,,,,,,,,,,,,,,,,,,,,,,,,,,,,,,,,,,,,,,,,,,,,,,,,,,,,,,,,,,,,,,,,,,,,,,,,,,,,,,,,
0,66,66,49,1,,5f492ff7da9c144461f399f5,62c5399b303bf8e23fd01cba,2022-07-06_09h28.50.943,Colour_Asymmetry_Pilot,2022.1.3,Win32,59.77286312,62c50e9c1127f2cd403a315f,,,,,,,,,,,,,,,,,,,,,,,,,,,,,,,,,,,,,,,,,,,,,,,,,,,,,,,,,,,,,,,,,,,,,,,,,,,,,,,,,,,,,,,,,,,,,,,,,,,,,,,,,,,,,,,,,,,,,,,,,,,,,,,,,,,,,,,,,,,,,,,,,,,,,,,,,,,,,,,,,,,
0,67,67,62,1,,5f492ff7da9c144461f399f5,62c5399b303bf8e23fd01cba,2022-07-06_09h28.50.943,Colour_Asymmetry_Pilot,2022.1.3,Win32,59.77286312,62c50e9c1127f2cd403a315f,,,,,,,,,,,,,,,,,,,,,,,,,,,,,,,,,,,,,,,,,,,,,,,,,,,,,,,,,,,,,,,,,,,,,,,,,,,,,,,,,,,,,,,,,,,,,,,,,,,,,,,,,,,,,,,,,,,,,,,,,,,,,,,,,,,,,,,,,,,,,,,,,,,,,,,,,,,,,,,,,,,
0,68,68,52,1,,5f492ff7da9c144461f399f5,62c5399b303bf8e23fd01cba,2022-07-06_09h28.50.943,Colour_Asymmetry_Pilot,2022.1.3,Win32,59.77286312,62c50e9c1127f2cd403a315f,,,,,,,,,,,,,,,,,,,,,,,,,,,,,,,,,,,,,,,,,,,,,,,,,,,,,,,,,,,,,,,,,,,,,,,,,,,,,,,,,,,,,,,,,,,,,,,,,,,,,,,,,,,,,,,,,,,,,,,,,,,,,,,,,,,,,,,,,,,,,,,,,,,,,,,,,,,,,,,,,,,
0,69,69,55,1,,5f492ff7da9c144461f399f5,62c5399b303bf8e23fd01cba,2022-07-06_09h28.50.943,Colour_Asymmetry_Pilot,2022.1.3,Win32,59.77286312,62c50e9c1127f2cd403a315f,,,,,,,,,,,,,,,,,,,,,,,,,,,,,,,,,,,,,,,,,,,,,,,,,,,,,,,,,,,,,,,,,,,,,,,,,,,,,,,,,,,,,,,,,,,,,,,,,,,,,,,,,,,,,,,,,,,,,,,,,,,,,,,,,,,,,,,,,,,,,,,,,,,,,,,,,,,,,,,,,,,
0,70,70,71,1,,5f492ff7da9c144461f399f5,62c5399b303bf8e23fd01cba,2022-07-06_09h28.50.943,Colour_Asymmetry_Pilot,2022.1.3,Win32,59.77286312,62c50e9c1127f2cd403a315f,,,,,,,,,,,,,,,,,,,,,,,,,,,,,,,,,,,,,,,,,,,,,,,,,,,,,,,,,,,,,,,,,,,,,,,,,,,,,,,,,,,,,,,,,,,,,,,,,,,,,,,,,,,,,,,,,,,,,,,,,,,,,,,,,,,,,,,,,,,,,,,,,,,,,,,,,,,,,,,,,,,
0,71,71,19,1,,5f492ff7da9c144461f399f5,62c5399b303bf8e23fd01cba,2022-07-06_09h28.50.943,Colour_Asymmetry_Pilot,2022.1.3,Win32,59.77286312,62c50e9c1127f2cd403a315f,,,,,,,,,,,,,,,,,,,,,,,,,,,,,,,,,,,,,,,,,,,,,,,,,,,,,,,,,,,,,,,,,,,,,,,,,,,,,,,,,,,,,,,,,,,,,,,,,,,,,,,,,,,,,,,,,,,,,,,,,,,,,,,,,,,,,,,,,,,,,,,,,,,,,,,,,,,,,,,,,,,
0,72,72,76,1,,5f492ff7da9c144461f399f5,62c5399b303bf8e23fd01cba,2022-07-06_09h28.50.943,Colour_Asymmetry_Pilot,2022.1.3,Win32,59.77286312,62c50e9c1127f2cd403a315f,,,,,,,,,,,,,,,,,,,,,,,,,,,,,,,,,,,,,,,,,,,,,,,,,,,,,,,,,,,,,,,,,,,,,,,,,,,,,,,,,,,,,,,,,,,,,,,,,,,,,,,,,,,,,,,,,,,,,,,,,,,,,,,,,,,,,,,,,,,,,,,,,,,,,,,,,,,,,,,,,,,
0,73,73,83,1,,5f492ff7da9c144461f399f5,62c5399b303bf8e23fd01cba,2022-07-06_09h28.50.943,Colour_Asymmetry_Pilot,2022.1.3,Win32,59.77286312,62c50e9c1127f2cd403a315f,,,,,,,,,,,,,,,,,,,,,,,,,,,,,,,,,,,,,,,,,,,,,,,,,,,,,,,,,,,,,,,,,,,,,,,,,,,,,,,,,,,,,,,,,,,,,,,,,,,,,,,,,,,,,,,,,,,,,,,,,,,,,,,,,,,,,,,,,,,,,,,,,,,,,,,,,,,,,,,,,,,
0,74,74,77,1,,5f492ff7da9c144461f399f5,62c5399b303bf8e23fd01cba,2022-07-06_09h28.50.943,Colour_Asymmetry_Pilot,2022.1.3,Win32,59.77286312,62c50e9c1127f2cd403a315f,,,,,,,,,,,,,,,,,,,,,,,,,,,,,,,,,,,,,,,,,,,,,,,,,,,,,,,,,,,,,,,,,,,,,,,,,,,,,,,,,,,,,,,,,,,,,,,,,,,,,,,,,,,,,,,,,,,,,,,,,,,,,,,,,,,,,,,,,,,,,,,,,,,,,,,,,,,,,,,,,,,
0,75,75,53,1,,5f492ff7da9c144461f399f5,62c5399b303bf8e23fd01cba,2022-07-06_09h28.50.943,Colour_Asymmetry_Pilot,2022.1.3,Win32,59.77286312,62c50e9c1127f2cd403a315f,,,,,,,,,,,,,,,,,,,,,,,,,,,,,,,,,,,,,,,,,,,,,,,,,,,,,,,,,,,,,,,,,,,,,,,,,,,,,,,,,,,,,,,,,,,,,,,,,,,,,,,,,,,,,,,,,,,,,,,,,,,,,,,,,,,,,,,,,,,,,,,,,,,,,,,,,,,,,,,,,,,
0,76,76,90,1,,5f492ff7da9c144461f399f5,62c5399b303bf8e23fd01cba,2022-07-06_09h28.50.943,Colour_Asymmetry_Pilot,2022.1.3,Win32,59.77286312,62c50e9c1127f2cd403a315f,,,,,,,,,,,,,,,,,,,,,,,,,,,,,,,,,,,,,,,,,,,,,,,,,,,,,,,,,,,,,,,,,,,,,,,,,,,,,,,,,,,,,,,,,,,,,,,,,,,,,,,,,,,,,,,,,,,,,,,,,,,,,,,,,,,,,,,,,,,,,,,,,,,,,,,,,,,,,,,,,,,
0,77,77,56,1,,5f492ff7da9c144461f399f5,62c5399b303bf8e23fd01cba,2022-07-06_09h28.50.943,Colour_Asymmetry_Pilot,2022.1.3,Win32,59.77286312,62c50e9c1127f2cd403a315f,,,,,,,,,,,,,,,,,,,,,,,,,,,,,,,,,,,,,,,,,,,,,,,,,,,,,,,,,,,,,,,,,,,,,,,,,,,,,,,,,,,,,,,,,,,,,,,,,,,,,,,,,,,,,,,,,,,,,,,,,,,,,,,,,,,,,,,,,,,,,,,,,,,,,,,,,,,,,,,,,,,
0,78,78,37,1,,5f492ff7da9c144461f399f5,62c5399b303bf8e23fd01cba,2022-07-06_09h28.50.943,Colour_Asymmetry_Pilot,2022.1.3,Win32,59.77286312,62c50e9c1127f2cd403a315f,,,,,,,,,,,,,,,,,,,,,,,,,,,,,,,,,,,,,,,,,,,,,,,,,,,,,,,,,,,,,,,,,,,,,,,,,,,,,,,,,,,,,,,,,,,,,,,,,,,,,,,,,,,,,,,,,,,,,,,,,,,,,,,,,,,,,,,,,,,,,,,,,,,,,,,,,,,,,,,,,,,
0,79,79,29,1,,5f492ff7da9c144461f399f5,62c5399b303bf8e23fd01cba,2022-07-06_09h28.50.943,Colour_Asymmetry_Pilot,2022.1.3,Win32,59.77286312,62c50e9c1127f2cd403a315f,,,,,,,,,,,,,,,,,,,,,,,,,,,,,,,,,,,,,,,,,,,,,,,,,,,,,,,,,,,,,,,,,,,,,,,,,,,,,,,,,,,,,,,,,,,,,,,,,,,,,,,,,,,,,,,,,,,,,,,,,,,,,,,,,,,,,,,,,,,,,,,,,,,,,,,,,,,,,,,,,,,
0,80,80,46,1,,5f492ff7da9c144461f399f5,62c5399b303bf8e23fd01cba,2022-07-06_09h28.50.943,Colour_Asymmetry_Pilot,2022.1.3,Win32,59.77286312,62c50e9c1127f2cd403a315f,,,,,,,,,,,,,,,,,,,,,,,,,,,,,,,,,,,,,,,,,,,,,,,,,,,,,,,,,,,,,,,,,,,,,,,,,,,,,,,,,,,,,,,,,,,,,,,,,,,,,,,,,,,,,,,,,,,,,,,,,,,,,,,,,,,,,,,,,,,,,,,,,,,,,,,,,,,,,,,,,,,
0,81,81,4,1,,5f492ff7da9c144461f399f5,62c5399b303bf8e23fd01cba,2022-07-06_09h28.50.943,Colour_Asymmetry_Pilot,2022.1.3,Win32,59.77286312,62c50e9c1127f2cd403a315f,,,,,,,,,,,,,,,,,,,,,,,,,,,,,,,,,,,,,,,,,,,,,,,,,,,,,,,,,,,,,,,,,,,,,,,,,,,,,,,,,,,,,,,,,,,,,,,,,,,,,,,,,,,,,,,,,,,,,,,,,,,,,,,,,,,,,,,,,,,,,,,,,,,,,,,,,,,,,,,,,,,
0,82,82,16,1,,5f492ff7da9c144461f399f5,62c5399b303bf8e23fd01cba,2022-07-06_09h28.50.943,Colour_Asymmetry_Pilot,2022.1.3,Win32,59.77286312,62c50e9c1127f2cd403a315f,,,,,,,,,,,,,,,,,,,,,,,,,,,,,,,,,,,,,,,,,,,,,,,,,,,,,,,,,,,,,,,,,,,,,,,,,,,,,,,,,,,,,,,,,,,,,,,,,,,,,,,,,,,,,,,,,,,,,,,,,,,,,,,,,,,,,,,,,,,,,,,,,,,,,,,,,,,,,,,,,,,
0,83,83,5,1,,5f492ff7da9c144461f399f5,62c5399b303bf8e23fd01cba,2022-07-06_09h28.50.943,Colour_Asymmetry_Pilot,2022.1.3,Win32,59.77286312,62c50e9c1127f2cd403a315f,,,,,,,,,,,,,,,,,,,,,,,,,,,,,,,,,,,,,,,,,,,,,,,,,,,,,,,,,,,,,,,,,,,,,,,,,,,,,,,,,,,,,,,,,,,,,,,,,,,,,,,,,,,,,,,,,,,,,,,,,,,,,,,,,,,,,,,,,,,,,,,,,,,,,,,,,,,,,,,,,,,
0,84,84,81,1,,5f492ff7da9c144461f399f5,62c5399b303bf8e23fd01cba,2022-07-06_09h28.50.943,Colour_Asymmetry_Pilot,2022.1.3,Win32,59.77286312,62c50e9c1127f2cd403a315f,,,,,,,,,,,,,,,,,,,,,,,,,,,,,,,,,,,,,,,,,,,,,,,,,,,,,,,,,,,,,,,,,,,,,,,,,,,,,,,,,,,,,,,,,,,,,,,,,,,,,,,,,,,,,,,,,,,,,,,,,,,,,,,,,,,,,,,,,,,,,,,,,,,,,,,,,,,,,,,,,,,
0,85,85,39,1,,5f492ff7da9c144461f399f5,62c5399b303bf8e23fd01cba,2022-07-06_09h28.50.943,Colour_Asymmetry_Pilot,2022.1.3,Win32,59.77286312,62c50e9c1127f2cd403a315f,,,,,,,,,,,,,,,,,,,,,,,,,,,,,,,,,,,,,,,,,,,,,,,,,,,,,,,,,,,,,,,,,,,,,,,,,,,,,,,,,,,,,,,,,,,,,,,,,,,,,,,,,,,,,,,,,,,,,,,,,,,,,,,,,,,,,,,,,,,,,,,,,,,,,,,,,,,,,,,,,,,
0,86,86,92,1,,5f492ff7da9c144461f399f5,62c5399b303bf8e23fd01cba,2022-07-06_09h28.50.943,Colour_Asymmetry_Pilot,2022.1.3,Win32,59.77286312,62c50e9c1127f2cd403a315f,,,,,,,,,,,,,,,,,,,,,,,,,,,,,,,,,,,,,,,,,,,,,,,,,,,,,,,,,,,,,,,,,,,,,,,,,,,,,,,,,,,,,,,,,,,,,,,,,,,,,,,,,,,,,,,,,,,,,,,,,,,,,,,,,,,,,,,,,,,,,,,,,,,,,,,,,,,,,,,,,,,
0,87,87,31,1,,5f492ff7da9c144461f399f5,62c5399b303bf8e23fd01cba,2022-07-06_09h28.50.943,Colour_Asymmetry_Pilot,2022.1.3,Win32,59.77286312,62c50e9c1127f2cd403a315f,,,,,,,,,,,,,,,,,,,,,,,,,,,,,,,,,,,,,,,,,,,,,,,,,,,,,,,,,,,,,,,,,,,,,,,,,,,,,,,,,,,,,,,,,,,,,,,,,,,,,,,,,,,,,,,,,,,,,,,,,,,,,,,,,,,,,,,,,,,,,,,,,,,,,,,,,,,,,,,,,,,
0,88,88,35,1,,5f492ff7da9c144461f399f5,62c5399b303bf8e23fd01cba,2022-07-06_09h28.50.943,Colour_Asymmetry_Pilot,2022.1.3,Win32,59.77286312,62c50e9c1127f2cd403a315f,,,,,,,,,,,,,,,,,,,,,,,,,,,,,,,,,,,,,,,,,,,,,,,,,,,,,,,,,,,,,,,,,,,,,,,,,,,,,,,,,,,,,,,,,,,,,,,,,,,,,,,,,,,,,,,,,,,,,,,,,,,,,,,,,,,,,,,,,,,,,,,,,,,,,,,,,,,,,,,,,,,
0,89,89,58,1,,5f492ff7da9c144461f399f5,62c5399b303bf8e23fd01cba,2022-07-06_09h28.50.943,Colour_Asymmetry_Pilot,2022.1.3,Win32,59.77286312,62c50e9c1127f2cd403a315f,,,,,,,,,,,,,,,,,,,,,,,,,,,,,,,,,,,,,,,,,,,,,,,,,,,,,,,,,,,,,,,,,,,,,,,,,,,,,,,,,,,,,,,,,,,,,,,,,,,,,,,,,,,,,,,,,,,,,,,,,,,,,,,,,,,,,,,,,,,,,,,,,,,,,,,,,,,,,,,,,,,
0,90,90,50,1,,5f492ff7da9c144461f399f5,62c5399b303bf8e23fd01cba,2022-07-06_09h28.50.943,Colour_Asymmetry_Pilot,2022.1.3,Win32,59.77286312,62c50e9c1127f2cd403a315f,,,,,,,,,,,,,,,,,,,,,,,,,,,,,,,,,,,,,,,,,,,,,,,,,,,,,,,,,,,,,,,,,,,,,,,,,,,,,,,,,,,,,,,,,,,,,,,,,,,,,,,,,,,,,,,,,,,,,,,,,,,,,,,,,,,,,,,,,,,,,,,,,,,,,,,,,,,,,,,,,,,
0,91,91,3,1,,5f492ff7da9c144461f399f5,62c5399b303bf8e23fd01cba,2022-07-06_09h28.50.943,Colour_Asymmetry_Pilot,2022.1.3,Win32,59.77286312,62c50e9c1127f2cd403a315f,,,,,,,,,,,,,,,,,,,,,,,,,,,,,,,,,,,,,,,,,,,,,,,,,,,,,,,,,,,,,,,,,,,,,,,,,,,,,,,,,,,,,,,,,,,,,,,,,,,,,,,,,,,,,,,,,,,,,,,,,,,,,,,,,,,,,,,,,,,,,,,,,,,,,,,,,,,,,,,,,,,
0,92,92,32,1,,5f492ff7da9c144461f399f5,62c5399b303bf8e23fd01cba,2022-07-06_09h28.50.943,Colour_Asymmetry_Pilot,2022.1.3,Win32,59.77286312,62c50e9c1127f2cd403a315f,,,,,,,,,,,,,,,,,,,,,,,,,,,,,,,,,,,,,,,,,,,,,,,,,,,,,,,,,,,,,,,,,,,,,,,,,,,,,,,,,,,,,,,,,,,,,,,,,,,,,,,,,,,,,,,,,,,,,,,,,,,,,,,,,,,,,,,,,,,,,,,,,,,,,,,,,,,,,,,,,,,
,,,,,,5f492ff7da9c144461f399f5,62c5399b303bf8e23fd01cba,2022-07-06_09h28.50.943,Colour_Asymmetry_Pilot,2022.1.3,Win32,59.77286312,62c50e9c1127f2cd403a315f,0,0,0,45,1,threefour,,,,,,,,,,,,,,,,,,,,,,,,,,,,,,,,,,,,,,,,,,,,,,,,,,,,,,,,,,,,,,,,,,,,,,,,,,,,,,,,,,,,,,,,,,,,,,,,,,,,,,,,,,,,,,,,,,,,,,,,,,,,,,,,,,,,,,,,,,,,,,,,,,,,,,,,,,,,,
,,,,,,5f492ff7da9c144461f399f5,62c5399b303bf8e23fd01cba,2022-07-06_09h28.50.943,Colour_Asymmetry_Pilot,2022.1.3,Win32,59.77286312,62c50e9c1127f2cd403a315f,0,1,1,55,1,fourthree,,,,,,,,,,,,,,,,,,,,,,,,,,,,,,,,,,,,,,,,,,,,,,,,,,,,,,,,,,,,,,,,,,,,,,,,,,,,,,,,,,,,,,,,,,,,,,,,,,,,,,,,,,,,,,,,,,,,,,,,,,,,,,,,,,,,,,,,,,,,,,,,,,,,,,,,,,,,,
,,,,,,5f492ff7da9c144461f399f5,62c5399b303bf8e23fd01cba,2022-07-06_09h28.50.943,Colour_Asymmetry_Pilot,2022.1.3,Win32,59.77286312,62c50e9c1127f2cd403a315f,0,2,2,18,1,twoone,,,,,,,,,,,,,,,,,,,,,,,,,,,,,,,,,,,,,,,,,,,,,,,,,,,,,,,,,,,,,,,,,,,,,,,,,,,,,,,,,,,,,,,,,,,,,,,,,,,,,,,,,,,,,,,,,,,,,,,,,,,,,,,,,,,,,,,,,,,,,,,,,,,,,,,,,,,,,
,,,,,,5f492ff7da9c144461f399f5,62c5399b303bf8e23fd01cba,2022-07-06_09h28.50.943,Colour_Asymmetry_Pilot,2022.1.3,Win32,59.77286312,62c50e9c1127f2cd403a315f,0,3,3,61,1,threefour,,,,,,,,,,,,,,,,,,,,,,,,,,,,,,,,,,,,,,,,,,,,,,,,,,,,,,,,,,,,,,,,,,,,,,,,,,,,,,,,,,,,,,,,,,,,,,,,,,,,,,,,,,,,,,,,,,,,,,,,,,,,,,,,,,,,,,,,,,,,,,,,,,,,,,,,,,,,,
,,,,,,5f492ff7da9c144461f399f5,62c5399b303bf8e23fd01cba,2022-07-06_09h28.50.943,Colour_Asymmetry_Pilot,2022.1.3,Win32,59.77286312,62c50e9c1127f2cd403a315f,0,4,4,42,1,twoone,,,,,,,,,,,,,,,,,,,,,,,,,,,,,,,,,,,,,,,,,,,,,,,,,,,,,,,,,,,,,,,,,,,,,,,,,,,,,,,,,,,,,,,,,,,,,,,,,,,,,,,,,,,,,,,,,,,,,,,,,,,,,,,,,,,,,,,,,,,,,,,,,,,,,,,,,,,,,
,,,,,,5f492ff7da9c144461f399f5,62c5399b303bf8e23fd01cba,2022-07-06_09h28.50.943,Colour_Asymmetry_Pilot,2022.1.3,Win32,59.77286312,62c50e9c1127f2cd403a315f,0,5,5,52,1,threeone,,,,,,,,,,,,,,,,,,,,,,,,,,,,,,,,,,,,,,,,,,,,,,,,,,,,,,,,,,,,,,,,,,,,,,,,,,,,,,,,,,,,,,,,,,,,,,,,,,,,,,,,,,,,,,,,,,,,,,,,,,,,,,,,,,,,,,,,,,,,,,,,,,,,,,,,,,,,,
,,,,,,5f492ff7da9c144461f399f5,62c5399b303bf8e23fd01cba,2022-07-06_09h28.50.943,Colour_Asymmetry_Pilot,2022.1.3,Win32,59.77286312,62c50e9c1127f2cd403a315f,0,6,6,129,1,onethree,,,,,,,,,,,,,,,,,,,,,,,,,,,,,,,,,,,,,,,,,,,,,,,,,,,,,,,,,,,,,,,,,,,,,,,,,,,,,,,,,,,,,,,,,,,,,,,,,,,,,,,,,,,,,,,,,,,,,,,,,,,,,,,,,,,,,,,,,,,,,,,,,,,,,,,,,,,,,
,,,,,,5f492ff7da9c144461f399f5,62c5399b303bf8e23fd01cba,2022-07-06_09h28.50.943,Colour_Asymmetry_Pilot,2022.1.3,Win32,59.77286312,62c50e9c1127f2cd403a315f,0,7,7,139,1,twofour,,,,,,,,,,,,,,,,,,,,,,,,,,,,,,,,,,,,,,,,,,,,,,,,,,,,,,,,,,,,,,,,,,,,,,,,,,,,,,,,,,,,,,,,,,,,,,,,,,,,,,,,,,,,,,,,,,,,,,,,,,,,,,,,,,,,,,,,,,,,,,,,,,,,,,,,,,,,,
,,,,,,5f492ff7da9c144461f399f5,62c5399b303bf8e23fd01cba,2022-07-06_09h28.50.943,Colour_Asymmetry_Pilot,2022.1.3,Win32,59.77286312,62c50e9c1127f2cd403a315f,0,8,8,87,1,fourthree,,,,,,,,,,,,,,,,,,,,,,,,,,,,,,,,,,,,,,,,,,,,,,,,,,,,,,,,,,,,,,,,,,,,,,,,,,,,,,,,,,,,,,,,,,,,,,,,,,,,,,,,,,,,,,,,,,,,,,,,,,,,,,,,,,,,,,,,,,,,,,,,,,,,,,,,,,,,,
,,,,,,5f492ff7da9c144461f399f5,62c5399b303bf8e23fd01cba,2022-07-06_09h28.50.943,Colour_Asymmetry_Pilot,2022.1.3,Win32,59.77286312,62c50e9c1127f2cd403a315f,0,9,9,110,1,fourtwo,,,,,,,,,,,,,,,,,,,,,,,,,,,,,,,,,,,,,,,,,,,,,,,,,,,,,,,,,,,,,,,,,,,,,,,,,,,,,,,,,,,,,,,,,,,,,,,,,,,,,,,,,,,,,,,,,,,,,,,,,,,,,,,,,,,,,,,,,,,,,,,,,,,,,,,,,,,,,
,,,,,,5f492ff7da9c144461f399f5,62c5399b303bf8e23fd01cba,2022-07-06_09h28.50.943,Colour_Asymmetry_Pilot,2022.1.3,Win32,59.77286312,62c50e9c1127f2cd403a315f,0,10,10,96,1,onetwo,,,,,,,,,,,,,,,,,,,,,,,,,,,,,,,,,,,,,,,,,,,,,,,,,,,,,,,,,,,,,,,,,,,,,,,,,,,,,,,,,,,,,,,,,,,,,,,,,,,,,,,,,,,,,,,,,,,,,,,,,,,,,,,,,,,,,,,,,,,,,,,,,,,,,,,,,,,,,
,,,,,,5f492ff7da9c144461f399f5,62c5399b303bf8e23fd01cba,2022-07-06_09h28.50.943,Colour_Asymmetry_Pilot,2022.1.3,Win32,59.77286312,62c50e9c1127f2cd403a315f,0,11,11,54,1,fourtwo,,,,,,,,,,,,,,,,,,,,,,,,,,,,,,,,,,,,,,,,,,,,,,,,,,,,,,,,,,,,,,,,,,,,,,,,,,,,,,,,,,,,,,,,,,,,,,,,,,,,,,,,,,,,,,,,,,,,,,,,,,,,,,,,,,,,,,,,,,,,,,,,,,,,,,,,,,,,,
,,,,,,5f492ff7da9c144461f399f5,62c5399b303bf8e23fd01cba,2022-07-06_09h28.50.943,Colour_Asymmetry_Pilot,2022.1.3,Win32,59.77286312,62c50e9c1127f2cd403a315f,0,12,12,150,1,fourtwo,,,,,,,,,,,,,,,,,,,,,,,,,,,,,,,,,,,,,,,,,,,,,,,,,,,,,,,,,,,,,,,,,,,,,,,,,,,,,,,,,,,,,,,,,,,,,,,,,,,,,,,,,,,,,,,,,,,,,,,,,,,,,,,,,,,,,,,,,,,,,,,,,,,,,,,,,,,,,
,,,,,,5f492ff7da9c144461f399f5,62c5399b303bf8e23fd01cba,2022-07-06_09h28.50.943,Colour_Asymmetry_Pilot,2022.1.3,Win32,59.77286312,62c50e9c1127f2cd403a315f,0,13,13,80,1,onetwo,,,,,,,,,,,,,,,,,,,,,,,,,,,,,,,,,,,,,,,,,,,,,,,,,,,,,,,,,,,,,,,,,,,,,,,,,,,,,,,,,,,,,,,,,,,,,,,,,,,,,,,,,,,,,,,,,,,,,,,,,,,,,,,,,,,,,,,,,,,,,,,,,,,,,,,,,,,,,
,,,,,,5f492ff7da9c144461f399f5,62c5399b303bf8e23fd01cba,2022-07-06_09h28.50.943,Colour_Asymmetry_Pilot,2022.1.3,Win32,59.77286312,62c50e9c1127f2cd403a315f,0,14,14,132,1,threeone,,,,,,,,,,,,,,,,,,,,,,,,,,,,,,,,,,,,,,,,,,,,,,,,,,,,,,,,,,,,,,,,,,,,,,,,,,,,,,,,,,,,,,,,,,,,,,,,,,,,,,,,,,,,,,,,,,,,,,,,,,,,,,,,,,,,,,,,,,,,,,,,,,,,,,,,,,,,,
,,,,,,5f492ff7da9c144461f399f5,62c5399b303bf8e23fd01cba,2022-07-06_09h28.50.943,Colour_Asymmetry_Pilot,2022.1.3,Win32,59.77286312,62c50e9c1127f2cd403a315f,0,15,15,93,1,threefour,,,,,,,,,,,,,,,,,,,,,,,,,,,,,,,,,,,,,,,,,,,,,,,,,,,,,,,,,,,,,,,,,,,,,,,,,,,,,,,,,,,,,,,,,,,,,,,,,,,,,,,,,,,,,,,,,,,,,,,,,,,,,,,,,,,,,,,,,,,,,,,,,,,,,,,,,,,,,
,,,,,,5f492ff7da9c144461f399f5,62c5399b303bf8e23fd01cba,2022-07-06_09h28.50.943,Colour_Asymmetry_Pilot,2022.1.3,Win32,59.77286312,62c50e9c1127f2cd403a315f,0,16,16,155,1,twofour,,,,,,,,,,,,,,,,,,,,,,,,,,,,,,,,,,,,,,,,,,,,,,,,,,,,,,,,,,,,,,,,,,,,,,,,,,,,,,,,,,,,,,,,,,,,,,,,,,,,,,,,,,,,,,,,,,,,,,,,,,,,,,,,,,,,,,,,,,,,,,,,,,,,,,,,,,,,,
,,,,,,5f492ff7da9c144461f399f5,62c5399b303bf8e23fd01cba,2022-07-06_09h28.50.943,Colour_Asymmetry_Pilot,2022.1.3,Win32,59.77286312,62c50e9c1127f2cd403a315f,0,17,17,138,1,twoone,,,,,,,,,,,,,,,,,,,,,,,,,,,,,,,,,,,,,,,,,,,,,,,,,,,,,,,,,,,,,,,,,,,,,,,,,,,,,,,,,,,,,,,,,,,,,,,,,,,,,,,,,,,,,,,,,,,,,,,,,,,,,,,,,,,,,,,,,,,,,,,,,,,,,,,,,,,,,
,,,,,,5f492ff7da9c144461f399f5,62c5399b303bf8e23fd01cba,2022-07-06_09h28.50.943,Colour_Asymmetry_Pilot,2022.1.3,Win32,59.77286312,62c50e9c1127f2cd403a315f,0,18,18,158,1,fourtwo,,,,,,,,,,,,,,,,,,,,,,,,,,,,,,,,,,,,,,,,,,,,,,,,,,,,,,,,,,,,,,,,,,,,,,,,,,,,,,,,,,,,,,,,,,,,,,,,,,,,,,,,,,,,,,,,,,,,,,,,,,,,,,,,,,,,,,,,,,,,,,,,,,,,,,,,,,,,,
,,,,,,5f492ff7da9c144461f399f5,62c5399b303bf8e23fd01cba,2022-07-06_09h28.50.943,Colour_Asymmetry_Pilot,2022.1.3,Win32,59.77286312,62c50e9c1127f2cd403a315f,0,19,19,101,1,threefour,,,,,,,,,,,,,,,,,,,,,,,,,,,,,,,,,,,,,,,,,,,,,,,,,,,,,,,,,,,,,,,,,,,,,,,,,,,,,,,,,,,,,,,,,,,,,,,,,,,,,,,,,,,,,,,,,,,,,,,,,,,,,,,,,,,,,,,,,,,,,,,,,,,,,,,,,,,,,
,,,,,,5f492ff7da9c144461f399f5,62c5399b303bf8e23fd01cba,2022-07-06_09h28.50.943,Colour_Asymmetry_Pilot,2022.1.3,Win32,59.77286312,62c50e9c1127f2cd403a315f,0,20,20,43,1,twofour,,,,,,,,,,,,,,,,,,,,,,,,,,,,,,,,,,,,,,,,,,,,,,,,,,,,,,,,,,,,,,,,,,,,,,,,,,,,,,,,,,,,,,,,,,,,,,,,,,,,,,,,,,,,,,,,,,,,,,,,,,,,,,,,,,,,,,,,,,,,,,,,,,,,,,,,,,,,,
,,,,,,5f492ff7da9c144461f399f5,62c5399b303bf8e23fd01cba,2022-07-06_09h28.50.943,Colour_Asymmetry_Pilot,2022.1.3,Win32,59.77286312,62c50e9c1127f2cd403a315f,0,21,21,20,1,threeone,,,,,,,,,,,,,,,,,,,,,,,,,,,,,,,,,,,,,,,,,,,,,,,,,,,,,,,,,,,,,,,,,,,,,,,,,,,,,,,,,,,,,,,,,,,,,,,,,,,,,,,,,,,,,,,,,,,,,,,,,,,,,,,,,,,,,,,,,,,,,,,,,,,,,,,,,,,,,
,,,,,,5f492ff7da9c144461f399f5,62c5399b303bf8e23fd01cba,2022-07-06_09h28.50.943,Colour_Asymmetry_Pilot,2022.1.3,Win32,59.77286312,62c50e9c1127f2cd403a315f,0,22,22,24,1,onetwo,,,,,,,,,,,,,,,,,,,,,,,,,,,,,,,,,,,,,,,,,,,,,,,,,,,,,,,,,,,,,,,,,,,,,,,,,,,,,,,,,,,,,,,,,,,,,,,,,,,,,,,,,,,,,,,,,,,,,,,,,,,,,,,,,,,,,,,,,,,,,,,,,,,,,,,,,,,,,
,,,,,,5f492ff7da9c144461f399f5,62c5399b303bf8e23fd01cba,2022-07-06_09h28.50.943,Colour_Asymmetry_Pilot,2022.1.3,Win32,59.77286312,62c50e9c1127f2cd403a315f,0,23,23,26,1,twoone,,,,,,,,,,,,,,,,,,,,,,,,,,,,,,,,,,,,,,,,,,,,,,,,,,,,,,,,,,,,,,,,,,,,,,,,,,,,,,,,,,,,,,,,,,,,,,,,,,,,,,,,,,,,,,,,,,,,,,,,,,,,,,,,,,,,,,,,,,,,,,,,,,,,,,,,,,,,,
,,,,,,5f492ff7da9c144461f399f5,62c5399b303bf8e23fd01cba,2022-07-06_09h28.50.943,Colour_Asymmetry_Pilot,2022.1.3,Win32,59.77286312,62c50e9c1127f2cd403a315f,0,24,24,109,1,threefour,,,,,,,,,,,,,,,,,,,,,,,,,,,,,,,,,,,,,,,,,,,,,,,,,,,,,,,,,,,,,,,,,,,,,,,,,,,,,,,,,,,,,,,,,,,,,,,,,,,,,,,,,,,,,,,,,,,,,,,,,,,,,,,,,,,,,,,,,,,,,,,,,,,,,,,,,,,,,
,,,,,,5f492ff7da9c144461f399f5,62c5399b303bf8e23fd01cba,2022-07-06_09h28.50.943,Colour_Asymmetry_Pilot,2022.1.3,Win32,59.77286312,62c50e9c1127f2cd403a315f,0,25,25,37,1,threefour,,,,,,,,,,,,,,,,,,,,,,,,,,,,,,,,,,,,,,,,,,,,,,,,,,,,,,,,,,,,,,,,,,,,,,,,,,,,,,,,,,,,,,,,,,,,,,,,,,,,,,,,,,,,,,,,,,,,,,,,,,,,,,,,,,,,,,,,,,,,,,,,,,,,,,,,,,,,,
,,,,,,5f492ff7da9c144461f399f5,62c5399b303bf8e23fd01cba,2022-07-06_09h28.50.943,Colour_Asymmetry_Pilot,2022.1.3,Win32,59.77286312,62c50e9c1127f2cd403a315f,0,26,26,64,1,onetwo,,,,,,,,,,,,,,,,,,,,,,,,,,,,,,,,,,,,,,,,,,,,,,,,,,,,,,,,,,,,,,,,,,,,,,,,,,,,,,,,,,,,,,,,,,,,,,,,,,,,,,,,,,,,,,,,,,,,,,,,,,,,,,,,,,,,,,,,,,,,,,,,,,,,,,,,,,,,,
,,,,,,5f492ff7da9c144461f399f5,62c5399b303bf8e23fd01cba,2022-07-06_09h28.50.943,Colour_Asymmetry_Pilot,2022.1.3,Win32,59.77286312,62c50e9c1127f2cd403a315f,0,27,27,14,1,fourtwo,,,,,,,,,,,,,,,,,,,,,,,,,,,,,,,,,,,,,,,,,,,,,,,,,,,,,,,,,,,,,,,,,,,,,,,,,,,,,,,,,,,,,,,,,,,,,,,,,,,,,,,,,,,,,,,,,,,,,,,,,,,,,,,,,,,,,,,,,,,,,,,,,,,,,,,,,,,,,
,,,,,,5f492ff7da9c144461f399f5,62c5399b303bf8e23fd01cba,2022-07-06_09h28.50.943,Colour_Asymmetry_Pilot,2022.1.3,Win32,59.77286312,62c50e9c1127f2cd403a315f,0,28,28,25,1,onethree,,,,,,,,,,,,,,,,,,,,,,,,,,,,,,,,,,,,,,,,,,,,,,,,,,,,,,,,,,,,,,,,,,,,,,,,,,,,,,,,,,,,,,,,,,,,,,,,,,,,,,,,,,,,,,,,,,,,,,,,,,,,,,,,,,,,,,,,,,,,,,,,,,,,,,,,,,,,,
,,,,,,5f492ff7da9c144461f399f5,62c5399b303bf8e23fd01cba,2022-07-06_09h28.50.943,Colour_Asymmetry_Pilot,2022.1.3,Win32,59.77286312,62c50e9c1127f2cd403a315f,0,29,29,147,1,twofour,,,,,,,,,,,,,,,,,,,,,,,,,,,,,,,,,,,,,,,,,,,,,,,,,,,,,,,,,,,,,,,,,,,,,,,,,,,,,,,,,,,,,,,,,,,,,,,,,,,,,,,,,,,,,,,,,,,,,,,,,,,,,,,,,,,,,,,,,,,,,,,,,,,,,,,,,,,,,
,,,,,,5f492ff7da9c144461f399f5,62c5399b303bf8e23fd01cba,2022-07-06_09h28.50.943,Colour_Asymmetry_Pilot,2022.1.3,Win32,59.77286312,62c50e9c1127f2cd403a315f,0,30,30,131,1,twofour,,,,,,,,,,,,,,,,,,,,,,,,,,,,,,,,,,,,,,,,,,,,,,,,,,,,,,,,,,,,,,,,,,,,,,,,,,,,,,,,,,,,,,,,,,,,,,,,,,,,,,,,,,,,,,,,,,,,,,,,,,,,,,,,,,,,,,,,,,,,,,,,,,,,,,,,,,,,,
,,,,,,5f492ff7da9c144461f399f5,62c5399b303bf8e23fd01cba,2022-07-06_09h28.50.943,Colour_Asymmetry_Pilot,2022.1.3,Win32,59.77286312,62c50e9c1127f2cd403a315f,0,31,31,95,1,fourthree,,,,,,,,,,,,,,,,,,,,,,,,,,,,,,,,,,,,,,,,,,,,,,,,,,,,,,,,,,,,,,,,,,,,,,,,,,,,,,,,,,,,,,,,,,,,,,,,,,,,,,,,,,,,,,,,,,,,,,,,,,,,,,,,,,,,,,,,,,,,,,,,,,,,,,,,,,,,,
,,,,,,5f492ff7da9c144461f399f5,62c5399b303bf8e23fd01cba,2022-07-06_09h28.50.943,Colour_Asymmetry_Pilot,2022.1.3,Win32,59.77286312,62c50e9c1127f2cd403a315f,0,32,32,68,1,threeone,,,,,,,,,,,,,,,,,,,,,,,,,,,,,,,,,,,,,,,,,,,,,,,,,,,,,,,,,,,,,,,,,,,,,,,,,,,,,,,,,,,,,,,,,,,,,,,,,,,,,,,,,,,,,,,,,,,,,,,,,,,,,,,,,,,,,,,,,,,,,,,,,,,,,,,,,,,,,
,,,,,,5f492ff7da9c144461f399f5,62c5399b303bf8e23fd01cba,2022-07-06_09h28.50.943,Colour_Asymmetry_Pilot,2022.1.3,Win32,59.77286312,62c50e9c1127f2cd403a315f,0,33,33,71,1,fourthree,,,,,,,,,,,,,,,,,,,,,,,,,,,,,,,,,,,,,,,,,,,,,,,,,,,,,,,,,,,,,,,,,,,,,,,,,,,,,,,,,,,,,,,,,,,,,,,,,,,,,,,,,,,,,,,,,,,,,,,,,,,,,,,,,,,,,,,,,,,,,,,,,,,,,,,,,,,,,
,,,,,,5f492ff7da9c144461f399f5,62c5399b303bf8e23fd01cba,2022-07-06_09h28.50.943,Colour_Asymmetry_Pilot,2022.1.3,Win32,59.77286312,62c50e9c1127f2cd403a315f,0,34,34,120,1,onetwo,,,,,,,,,,,,,,,,,,,,,,,,,,,,,,,,,,,,,,,,,,,,,,,,,,,,,,,,,,,,,,,,,,,,,,,,,,,,,,,,,,,,,,,,,,,,,,,,,,,,,,,,,,,,,,,,,,,,,,,,,,,,,,,,,,,,,,,,,,,,,,,,,,,,,,,,,,,,,
,,,,,,5f492ff7da9c144461f399f5,62c5399b303bf8e23fd01cba,2022-07-06_09h28.50.943,Colour_Asymmetry_Pilot,2022.1.3,Win32,59.77286312,62c50e9c1127f2cd403a315f,0,35,35,5,1,threefour,,,,,,,,,,,,,,,,,,,,,,,,,,,,,,,,,,,,,,,,,,,,,,,,,,,,,,,,,,,,,,,,,,,,,,,,,,,,,,,,,,,,,,,,,,,,,,,,,,,,,,,,,,,,,,,,,,,,,,,,,,,,,,,,,,,,,,,,,,,,,,,,,,,,,,,,,,,,,
,,,,,,5f492ff7da9c144461f399f5,62c5399b303bf8e23fd01cba,2022-07-06_09h28.50.943,Colour_Asymmetry_Pilot,2022.1.3,Win32,59.77286312,62c50e9c1127f2cd403a315f,0,36,36,137,1,onethree,,,,,,,,,,,,,,,,,,,,,,,,,,,,,,,,,,,,,,,,,,,,,,,,,,,,,,,,,,,,,,,,,,,,,,,,,,,,,,,,,,,,,,,,,,,,,,,,,,,,,,,,,,,,,,,,,,,,,,,,,,,,,,,,,,,,,,,,,,,,,,,,,,,,,,,,,,,,,
,,,,,,5f492ff7da9c144461f399f5,62c5399b303bf8e23fd01cba,2022-07-06_09h28.50.943,Colour_Asymmetry_Pilot,2022.1.3,Win32,59.77286312,62c50e9c1127f2cd403a315f,0,37,37,17,1,onethree,,,,,,,,,,,,,,,,,,,,,,,,,,,,,,,,,,,,,,,,,,,,,,,,,,,,,,,,,,,,,,,,,,,,,,,,,,,,,,,,,,,,,,,,,,,,,,,,,,,,,,,,,,,,,,,,,,,,,,,,,,,,,,,,,,,,,,,,,,,,,,,,,,,,,,,,,,,,,
,,,,,,5f492ff7da9c144461f399f5,62c5399b303bf8e23fd01cba,2022-07-06_09h28.50.943,Colour_Asymmetry_Pilot,2022.1.3,Win32,59.77286312,62c50e9c1127f2cd403a315f,0,38,38,100,1,threeone,,,,,,,,,,,,,,,,,,,,,,,,,,,,,,,,,,,,,,,,,,,,,,,,,,,,,,,,,,,,,,,,,,,,,,,,,,,,,,,,,,,,,,,,,,,,,,,,,,,,,,,,,,,,,,,,,,,,,,,,,,,,,,,,,,,,,,,,,,,,,,,,,,,,,,,,,,,,,
,,,,,,5f492ff7da9c144461f399f5,62c5399b303bf8e23fd01cba,2022-07-06_09h28.50.943,Colour_Asymmetry_Pilot,2022.1.3,Win32,59.77286312,62c50e9c1127f2cd403a315f,0,39,39,117,1,threefour,,,,,,,,,,,,,,,,,,,,,,,,,,,,,,,,,,,,,,,,,,,,,,,,,,,,,,,,,,,,,,,,,,,,,,,,,,,,,,,,,,,,,,,,,,,,,,,,,,,,,,,,,,,,,,,,,,,,,,,,,,,,,,,,,,,,,,,,,,,,,,,,,,,,,,,,,,,,,
,,,,,,5f492ff7da9c144461f399f5,62c5399b303bf8e23fd01cba,2022-07-06_09h28.50.943,Colour_Asymmetry_Pilot,2022.1.3,Win32,59.77286312,62c50e9c1127f2cd403a315f,0,40,40,149,1,threefour,,,,,,,,,,,,,,,,,,,,,,,,,,,,,,,,,,,,,,,,,,,,,,,,,,,,,,,,,,,,,,,,,,,,,,,,,,,,,,,,,,,,,,,,,,,,,,,,,,,,,,,,,,,,,,,,,,,,,,,,,,,,,,,,,,,,,,,,,,,,,,,,,,,,,,,,,,,,,
,,,,,,5f492ff7da9c144461f399f5,62c5399b303bf8e23fd01cba,2022-07-06_09h28.50.943,Colour_Asymmetry_Pilot,2022.1.3,Win32,59.77286312,62c50e9c1127f2cd403a315f,0,41,41,7,1,fourthree,,,,,,,,,,,,,,,,,,,,,,,,,,,,,,,,,,,,,,,,,,,,,,,,,,,,,,,,,,,,,,,,,,,,,,,,,,,,,,,,,,,,,,,,,,,,,,,,,,,,,,,,,,,,,,,,,,,,,,,,,,,,,,,,,,,,,,,,,,,,,,,,,,,,,,,,,,,,,
,,,,,,5f492ff7da9c144461f399f5,62c5399b303bf8e23fd01cba,2022-07-06_09h28.50.943,Colour_Asymmetry_Pilot,2022.1.3,Win32,59.77286312,62c50e9c1127f2cd403a315f,0,42,42,161,1,onethree,,,,,,,,,,,,,,,,,,,,,,,,,,,,,,,,,,,,,,,,,,,,,,,,,,,,,,,,,,,,,,,,,,,,,,,,,,,,,,,,,,,,,,,,,,,,,,,,,,,,,,,,,,,,,,,,,,,,,,,,,,,,,,,,,,,,,,,,,,,,,,,,,,,,,,,,,,,,,
,,,,,,5f492ff7da9c144461f399f5,62c5399b303bf8e23fd01cba,2022-07-06_09h28.50.943,Colour_Asymmetry_Pilot,2022.1.3,Win32,59.77286312,62c50e9c1127f2cd403a315f,0,43,43,65,1,onethree,,,,,,,,,,,,,,,,,,,,,,,,,,,,,,,,,,,,,,,,,,,,,,,,,,,,,,,,,,,,,,,,,,,,,,,,,,,,,,,,,,,,,,,,,,,,,,,,,,,,,,,,,,,,,,,,,,,,,,,,,,,,,,,,,,,,,,,,,,,,,,,,,,,,,,,,,,,,,
,,,,,,5f492ff7da9c144461f399f5,62c5399b303bf8e23fd01cba,2022-07-06_09h28.50.943,Colour_Asymmetry_Pilot,2022.1.3,Win32,59.77286312,62c50e9c1127f2cd403a315f,0,44,44,11,1,twofour,,,,,,,,,,,,,,,,,,,,,,,,,,,,,,,,,,,,,,,,,,,,,,,,,,,,,,,,,,,,,,,,,,,,,,,,,,,,,,,,,,,,,,,,,,,,,,,,,,,,,,,,,,,,,,,,,,,,,,,,,,,,,,,,,,,,,,,,,,,,,,,,,,,,,,,,,,,,,
,,,,,,5f492ff7da9c144461f399f5,62c5399b303bf8e23fd01cba,2022-07-06_09h28.50.943,Colour_Asymmetry_Pilot,2022.1.3,Win32,59.77286312,62c50e9c1127f2cd403a315f,0,45,45,88,1,onetwo,,,,,,,,,,,,,,,,,,,,,,,,,,,,,,,,,,,,,,,,,,,,,,,,,,,,,,,,,,,,,,,,,,,,,,,,,,,,,,,,,,,,,,,,,,,,,,,,,,,,,,,,,,,,,,,,,,,,,,,,,,,,,,,,,,,,,,,,,,,,,,,,,,,,,,,,,,,,,
,,,,,,5f492ff7da9c144461f399f5,62c5399b303bf8e23fd01cba,2022-07-06_09h28.50.943,Colour_Asymmetry_Pilot,2022.1.3,Win32,59.77286312,62c50e9c1127f2cd403a315f,0,46,46,69,1,threefour,,,,,,,,,,,,,,,,,,,,,,,,,,,,,,,,,,,,,,,,,,,,,,,,,,,,,,,,,,,,,,,,,,,,,,,,,,,,,,,,,,,,,,,,,,,,,,,,,,,,,,,,,,,,,,,,,,,,,,,,,,,,,,,,,,,,,,,,,,,,,,,,,,,,,,,,,,,,,
,,,,,,5f492ff7da9c144461f399f5,62c5399b303bf8e23fd01cba,2022-07-06_09h28.50.943,Colour_Asymmetry_Pilot,2022.1.3,Win32,59.77286312,62c50e9c1127f2cd403a315f,0,47,47,104,1,onetwo,,,,,,,,,,,,,,,,,,,,,,,,,,,,,,,,,,,,,,,,,,,,,,,,,,,,,,,,,,,,,,,,,,,,,,,,,,,,,,,,,,,,,,,,,,,,,,,,,,,,,,,,,,,,,,,,,,,,,,,,,,,,,,,,,,,,,,,,,,,,,,,,,,,,,,,,,,,,,
,,,,,,5f492ff7da9c144461f399f5,62c5399b303bf8e23fd01cba,2022-07-06_09h28.50.943,Colour_Asymmetry_Pilot,2022.1.3,Win32,59.77286312,62c50e9c1127f2cd403a315f,0,48,48,113,1,onethree,,,,,,,,,,,,,,,,,,,,,,,,,,,,,,,,,,,,,,,,,,,,,,,,,,,,,,,,,,,,,,,,,,,,,,,,,,,,,,,,,,,,,,,,,,,,,,,,,,,,,,,,,,,,,,,,,,,,,,,,,,,,,,,,,,,,,,,,,,,,,,,,,,,,,,,,,,,,,
,,,,,,5f492ff7da9c144461f399f5,62c5399b303bf8e23fd01cba,2022-07-06_09h28.50.943,Colour_Asymmetry_Pilot,2022.1.3,Win32,59.77286312,62c50e9c1127f2cd403a315f,0,49,49,73,1,onethree,,,,,,,,,,,,,,,,,,,,,,,,,,,,,,,,,,,,,,,,,,,,,,,,,,,,,,,,,,,,,,,,,,,,,,,,,,,,,,,,,,,,,,,,,,,,,,,,,,,,,,,,,,,,,,,,,,,,,,,,,,,,,,,,,,,,,,,,,,,,,,,,,,,,,,,,,,,,,
,,,,,,5f492ff7da9c144461f399f5,62c5399b303bf8e23fd01cba,2022-07-06_09h28.50.943,Colour_Asymmetry_Pilot,2022.1.3,Win32,59.77286312,62c50e9c1127f2cd403a315f,0,50,50,90,1,twoone,,,,,,,,,,,,,,,,,,,,,,,,,,,,,,,,,,,,,,,,,,,,,,,,,,,,,,,,,,,,,,,,,,,,,,,,,,,,,,,,,,,,,,,,,,,,,,,,,,,,,,,,,,,,,,,,,,,,,,,,,,,,,,,,,,,,,,,,,,,,,,,,,,,,,,,,,,,,,
,,,,,,5f492ff7da9c144461f399f5,62c5399b303bf8e23fd01cba,2022-07-06_09h28.50.943,Colour_Asymmetry_Pilot,2022.1.3,Win32,59.77286312,62c50e9c1127f2cd403a315f,0,51,51,16,1,onetwo,,,,,,,,,,,,,,,,,,,,,,,,,,,,,,,,,,,,,,,,,,,,,,,,,,,,,,,,,,,,,,,,,,,,,,,,,,,,,,,,,,,,,,,,,,,,,,,,,,,,,,,,,,,,,,,,,,,,,,,,,,,,,,,,,,,,,,,,,,,,,,,,,,,,,,,,,,,,,
,,,,,,5f492ff7da9c144461f399f5,62c5399b303bf8e23fd01cba,2022-07-06_09h28.50.943,Colour_Asymmetry_Pilot,2022.1.3,Win32,59.77286312,62c50e9c1127f2cd403a315f,0,52,52,23,1,fourthree,,,,,,,,,,,,,,,,,,,,,,,,,,,,,,,,,,,,,,,,,,,,,,,,,,,,,,,,,,,,,,,,,,,,,,,,,,,,,,,,,,,,,,,,,,,,,,,,,,,,,,,,,,,,,,,,,,,,,,,,,,,,,,,,,,,,,,,,,,,,,,,,,,,,,,,,,,,,,
,,,,,,5f492ff7da9c144461f399f5,62c5399b303bf8e23fd01cba,2022-07-06_09h28.50.943,Colour_Asymmetry_Pilot,2022.1.3,Win32,59.77286312,62c50e9c1127f2cd403a315f,0,53,53,74,1,twoone,,,,,,,,,,,,,,,,,,,,,,,,,,,,,,,,,,,,,,,,,,,,,,,,,,,,,,,,,,,,,,,,,,,,,,,,,,,,,,,,,,,,,,,,,,,,,,,,,,,,,,,,,,,,,,,,,,,,,,,,,,,,,,,,,,,,,,,,,,,,,,,,,,,,,,,,,,,,,
,,,,,,5f492ff7da9c144461f399f5,62c5399b303bf8e23fd01cba,2022-07-06_09h28.50.943,Colour_Asymmetry_Pilot,2022.1.3,Win32,59.77286312,62c50e9c1127f2cd403a315f,0,54,54,146,1,twoone,,,,,,,,,,,,,,,,,,,,,,,,,,,,,,,,,,,,,,,,,,,,,,,,,,,,,,,,,,,,,,,,,,,,,,,,,,,,,,,,,,,,,,,,,,,,,,,,,,,,,,,,,,,,,,,,,,,,,,,,,,,,,,,,,,,,,,,,,,,,,,,,,,,,,,,,,,,,,
,,,,,,5f492ff7da9c144461f399f5,62c5399b303bf8e23fd01cba,2022-07-06_09h28.50.943,Colour_Asymmetry_Pilot,2022.1.3,Win32,59.77286312,62c50e9c1127f2cd403a315f,0,55,55,8,1,onetwo,,,,,,,,,,,,,,,,,,,,,,,,,,,,,,,,,,,,,,,,,,,,,,,,,,,,,,,,,,,,,,,,,,,,,,,,,,,,,,,,,,,,,,,,,,,,,,,,,,,,,,,,,,,,,,,,,,,,,,,,,,,,,,,,,,,,,,,,,,,,,,,,,,,,,,,,,,,,,
,,,,,,5f492ff7da9c144461f399f5,62c5399b303bf8e23fd01cba,2022-07-06_09h28.50.943,Colour_Asymmetry_Pilot,2022.1.3,Win32,59.77286312,62c50e9c1127f2cd403a315f,0,56,56,36,1,threeone,,,,,,,,,,,,,,,,,,,,,,,,,,,,,,,,,,,,,,,,,,,,,,,,,,,,,,,,,,,,,,,,,,,,,,,,,,,,,,,,,,,,,,,,,,,,,,,,,,,,,,,,,,,,,,,,,,,,,,,,,,,,,,,,,,,,,,,,,,,,,,,,,,,,,,,,,,,,,
,,,,,,5f492ff7da9c144461f399f5,62c5399b303bf8e23fd01cba,2022-07-06_09h28.50.943,Colour_Asymmetry_Pilot,2022.1.3,Win32,59.77286312,62c50e9c1127f2cd403a315f,0,57,57,86,1,fourtwo,,,,,,,,,,,,,,,,,,,,,,,,,,,,,,,,,,,,,,,,,,,,,,,,,,,,,,,,,,,,,,,,,,,,,,,,,,,,,,,,,,,,,,,,,,,,,,,,,,,,,,,,,,,,,,,,,,,,,,,,,,,,,,,,,,,,,,,,,,,,,,,,,,,,,,,,,,,,,
,,,,,,5f492ff7da9c144461f399f5,62c5399b303bf8e23fd01cba,2022-07-06_09h28.50.943,Colour_Asymmetry_Pilot,2022.1.3,Win32,59.77286312,62c50e9c1127f2cd403a315f,0,58,58,2,1,twoone,,,,,,,,,,,,,,,,,,,,,,,,,,,,,,,,,,,,,,,,,,,,,,,,,,,,,,,,,,,,,,,,,,,,,,,,,,,,,,,,,,,,,,,,,,,,,,,,,,,,,,,,,,,,,,,,,,,,,,,,,,,,,,,,,,,,,,,,,,,,,,,,,,,,,,,,,,,,,
,,,,,,5f492ff7da9c144461f399f5,62c5399b303bf8e23fd01cba,2022-07-06_09h28.50.943,Colour_Asymmetry_Pilot,2022.1.3,Win32,59.77286312,62c50e9c1127f2cd403a315f,0,59,59,63,1,fourthree,,,,,,,,,,,,,,,,,,,,,,,,,,,,,,,,,,,,,,,,,,,,,,,,,,,,,,,,,,,,,,,,,,,,,,,,,,,,,,,,,,,,,,,,,,,,,,,,,,,,,,,,,,,,,,,,,,,,,,,,,,,,,,,,,,,,,,,,,,,,,,,,,,,,,,,,,,,,,
,,,,,,5f492ff7da9c144461f399f5,62c5399b303bf8e23fd01cba,2022-07-06_09h28.50.943,Colour_Asymmetry_Pilot,2022.1.3,Win32,59.77286312,62c50e9c1127f2cd403a315f,0,60,60,125,1,threefour,,,,,,,,,,,,,,,,,,,,,,,,,,,,,,,,,,,,,,,,,,,,,,,,,,,,,,,,,,,,,,,,,,,,,,,,,,,,,,,,,,,,,,,,,,,,,,,,,,,,,,,,,,,,,,,,,,,,,,,,,,,,,,,,,,,,,,,,,,,,,,,,,,,,,,,,,,,,,
,,,,,,5f492ff7da9c144461f399f5,62c5399b303bf8e23fd01cba,2022-07-06_09h28.50.943,Colour_Asymmetry_Pilot,2022.1.3,Win32,59.77286312,62c50e9c1127f2cd403a315f,0,61,61,114,1,twoone,,,,,,,,,,,,,,,,,,,,,,,,,,,,,,,,,,,,,,,,,,,,,,,,,,,,,,,,,,,,,,,,,,,,,,,,,,,,,,,,,,,,,,,,,,,,,,,,,,,,,,,,,,,,,,,,,,,,,,,,,,,,,,,,,,,,,,,,,,,,,,,,,,,,,,,,,,,,,
,,,,,,5f492ff7da9c144461f399f5,62c5399b303bf8e23fd01cba,2022-07-06_09h28.50.943,Colour_Asymmetry_Pilot,2022.1.3,Win32,59.77286312,62c50e9c1127f2cd403a315f,0,62,62,106,1,twoone,,,,,,,,,,,,,,,,,,,,,,,,,,,,,,,,,,,,,,,,,,,,,,,,,,,,,,,,,,,,,,,,,,,,,,,,,,,,,,,,,,,,,,,,,,,,,,,,,,,,,,,,,,,,,,,,,,,,,,,,,,,,,,,,,,,,,,,,,,,,,,,,,,,,,,,,,,,,,
,,,,,,5f492ff7da9c144461f399f5,62c5399b303bf8e23fd01cba,2022-07-06_09h28.50.943,Colour_Asymmetry_Pilot,2022.1.3,Win32,59.77286312,62c50e9c1127f2cd403a315f,0,63,63,3,1,twofour,,,,,,,,,,,,,,,,,,,,,,,,,,,,,,,,,,,,,,,,,,,,,,,,,,,,,,,,,,,,,,,,,,,,,,,,,,,,,,,,,,,,,,,,,,,,,,,,,,,,,,,,,,,,,,,,,,,,,,,,,,,,,,,,,,,,,,,,,,,,,,,,,,,,,,,,,,,,,
,,,,,,5f492ff7da9c144461f399f5,62c5399b303bf8e23fd01cba,2022-07-06_09h28.50.943,Colour_Asymmetry_Pilot,2022.1.3,Win32,59.77286312,62c50e9c1127f2cd403a315f,0,64,64,108,1,threeone,,,,,,,,,,,,,,,,,,,,,,,,,,,,,,,,,,,,,,,,,,,,,,,,,,,,,,,,,,,,,,,,,,,,,,,,,,,,,,,,,,,,,,,,,,,,,,,,,,,,,,,,,,,,,,,,,,,,,,,,,,,,,,,,,,,,,,,,,,,,,,,,,,,,,,,,,,,,,
,,,,,,5f492ff7da9c144461f399f5,62c5399b303bf8e23fd01cba,2022-07-06_09h28.50.943,Colour_Asymmetry_Pilot,2022.1.3,Win32,59.77286312,62c50e9c1127f2cd403a315f,0,65,65,144,1,onetwo,,,,,,,,,,,,,,,,,,,,,,,,,,,,,,,,,,,,,,,,,,,,,,,,,,,,,,,,,,,,,,,,,,,,,,,,,,,,,,,,,,,,,,,,,,,,,,,,,,,,,,,,,,,,,,,,,,,,,,,,,,,,,,,,,,,,,,,,,,,,,,,,,,,,,,,,,,,,,
,,,,,,5f492ff7da9c144461f399f5,62c5399b303bf8e23fd01cba,2022-07-06_09h28.50.943,Colour_Asymmetry_Pilot,2022.1.3,Win32,59.77286312,62c50e9c1127f2cd403a315f,0,66,66,41,1,onethree,,,,,,,,,,,,,,,,,,,,,,,,,,,,,,,,,,,,,,,,,,,,,,,,,,,,,,,,,,,,,,,,,,,,,,,,,,,,,,,,,,,,,,,,,,,,,,,,,,,,,,,,,,,,,,,,,,,,,,,,,,,,,,,,,,,,,,,,,,,,,,,,,,,,,,,,,,,,,
,,,,,,5f492ff7da9c144461f399f5,62c5399b303bf8e23fd01cba,2022-07-06_09h28.50.943,Colour_Asymmetry_Pilot,2022.1.3,Win32,59.77286312,62c50e9c1127f2cd403a315f,0,67,67,62,1,fourtwo,,,,,,,,,,,,,,,,,,,,,,,,,,,,,,,,,,,,,,,,,,,,,,,,,,,,,,,,,,,,,,,,,,,,,,,,,,,,,,,,,,,,,,,,,,,,,,,,,,,,,,,,,,,,,,,,,,,,,,,,,,,,,,,,,,,,,,,,,,,,,,,,,,,,,,,,,,,,,
,,,,,,5f492ff7da9c144461f399f5,62c5399b303bf8e23fd01cba,2022-07-06_09h28.50.943,Colour_Asymmetry_Pilot,2022.1.3,Win32,59.77286312,62c50e9c1127f2cd403a315f,0,68,68,128,1,onetwo,,,,,,,,,,,,,,,,,,,,,,,,,,,,,,,,,,,,,,,,,,,,,,,,,,,,,,,,,,,,,,,,,,,,,,,,,,,,,,,,,,,,,,,,,,,,,,,,,,,,,,,,,,,,,,,,,,,,,,,,,,,,,,,,,,,,,,,,,,,,,,,,,,,,,,,,,,,,,
,,,,,,5f492ff7da9c144461f399f5,62c5399b303bf8e23fd01cba,2022-07-06_09h28.50.943,Colour_Asymmetry_Pilot,2022.1.3,Win32,59.77286312,62c50e9c1127f2cd403a315f,0,69,69,84,1,threeone,,,,,,,,,,,,,,,,,,,,,,,,,,,,,,,,,,,,,,,,,,,,,,,,,,,,,,,,,,,,,,,,,,,,,,,,,,,,,,,,,,,,,,,,,,,,,,,,,,,,,,,,,,,,,,,,,,,,,,,,,,,,,,,,,,,,,,,,,,,,,,,,,,,,,,,,,,,,,
,,,,,,5f492ff7da9c144461f399f5,62c5399b303bf8e23fd01cba,2022-07-06_09h28.50.943,Colour_Asymmetry_Pilot,2022.1.3,Win32,59.77286312,62c50e9c1127f2cd403a315f,0,70,70,82,1,twoone,,,,,,,,,,,,,,,,,,,,,,,,,,,,,,,,,,,,,,,,,,,,,,,,,,,,,,,,,,,,,,,,,,,,,,,,,,,,,,,,,,,,,,,,,,,,,,,,,,,,,,,,,,,,,,,,,,,,,,,,,,,,,,,,,,,,,,,,,,,,,,,,,,,,,,,,,,,,,
,,,,,,5f492ff7da9c144461f399f5,62c5399b303bf8e23fd01cba,2022-07-06_09h28.50.943,Colour_Asymmetry_Pilot,2022.1.3,Win32,59.77286312,62c50e9c1127f2cd403a315f,0,71,71,32,1,onetwo,,,,,,,,,,,,,,,,,,,,,,,,,,,,,,,,,,,,,,,,,,,,,,,,,,,,,,,,,,,,,,,,,,,,,,,,,,,,,,,,,,,,,,,,,,,,,,,,,,,,,,,,,,,,,,,,,,,,,,,,,,,,,,,,,,,,,,,,,,,,,,,,,,,,,,,,,,,,,
,,,,,,5f492ff7da9c144461f399f5,62c5399b303bf8e23fd01cba,2022-07-06_09h28.50.943,Colour_Asymmetry_Pilot,2022.1.3,Win32,59.77286312,62c50e9c1127f2cd403a315f,0,72,72,153,1,onethree,,,,,,,,,,,,,,,,,,,,,,,,,,,,,,,,,,,,,,,,,,,,,,,,,,,,,,,,,,,,,,,,,,,,,,,,,,,,,,,,,,,,,,,,,,,,,,,,,,,,,,,,,,,,,,,,,,,,,,,,,,,,,,,,,,,,,,,,,,,,,,,,,,,,,,,,,,,,,
,,,,,,5f492ff7da9c144461f399f5,62c5399b303bf8e23fd01cba,2022-07-06_09h28.50.943,Colour_Asymmetry_Pilot,2022.1.3,Win32,59.77286312,62c50e9c1127f2cd403a315f,0,73,73,122,1,twoone,,,,,,,,,,,,,,,,,,,,,,,,,,,,,,,,,,,,,,,,,,,,,,,,,,,,,,,,,,,,,,,,,,,,,,,,,,,,,,,,,,,,,,,,,,,,,,,,,,,,,,,,,,,,,,,,,,,,,,,,,,,,,,,,,,,,,,,,,,,,,,,,,,,,,,,,,,,,,
,,,,,,5f492ff7da9c144461f399f5,62c5399b303bf8e23fd01cba,2022-07-06_09h28.50.943,Colour_Asymmetry_Pilot,2022.1.3,Win32,59.77286312,62c50e9c1127f2cd403a315f,0,74,74,159,1,fourthree,,,,,,,,,,,,,,,,,,,,,,,,,,,,,,,,,,,,,,,,,,,,,,,,,,,,,,,,,,,,,,,,,,,,,,,,,,,,,,,,,,,,,,,,,,,,,,,,,,,,,,,,,,,,,,,,,,,,,,,,,,,,,,,,,,,,,,,,,,,,,,,,,,,,,,,,,,,,,
,,,,,,5f492ff7da9c144461f399f5,62c5399b303bf8e23fd01cba,2022-07-06_09h28.50.943,Colour_Asymmetry_Pilot,2022.1.3,Win32,59.77286312,62c50e9c1127f2cd403a315f,0,75,75,136,1,onetwo,,,,,,,,,,,,,,,,,,,,,,,,,,,,,,,,,,,,,,,,,,,,,,,,,,,,,,,,,,,,,,,,,,,,,,,,,,,,,,,,,,,,,,,,,,,,,,,,,,,,,,,,,,,,,,,,,,,,,,,,,,,,,,,,,,,,,,,,,,,,,,,,,,,,,,,,,,,,,
,,,,,,5f492ff7da9c144461f399f5,62c5399b303bf8e23fd01cba,2022-07-06_09h28.50.943,Colour_Asymmetry_Pilot,2022.1.3,Win32,59.77286312,62c50e9c1127f2cd403a315f,0,76,76,4,1,threeone,,,,,,,,,,,,,,,,,,,,,,,,,,,,,,,,,,,,,,,,,,,,,,,,,,,,,,,,,,,,,,,,,,,,,,,,,,,,,,,,,,,,,,,,,,,,,,,,,,,,,,,,,,,,,,,,,,,,,,,,,,,,,,,,,,,,,,,,,,,,,,,,,,,,,,,,,,,,,
,,,,,,5f492ff7da9c144461f399f5,62c5399b303bf8e23fd01cba,2022-07-06_09h28.50.943,Colour_Asymmetry_Pilot,2022.1.3,Win32,59.77286312,62c50e9c1127f2cd403a315f,0,77,77,97,1,onethree,,,,,,,,,,,,,,,,,,,,,,,,,,,,,,,,,,,,,,,,,,,,,,,,,,,,,,,,,,,,,,,,,,,,,,,,,,,,,,,,,,,,,,,,,,,,,,,,,,,,,,,,,,,,,,,,,,,,,,,,,,,,,,,,,,,,,,,,,,,,,,,,,,,,,,,,,,,,,
,,,,,,5f492ff7da9c144461f399f5,62c5399b303bf8e23fd01cba,2022-07-06_09h28.50.943,Colour_Asymmetry_Pilot,2022.1.3,Win32,59.77286312,62c50e9c1127f2cd403a315f,0,78,78,157,1,threefour,,,,,,,,,,,,,,,,,,,,,,,,,,,,,,,,,,,,,,,,,,,,,,,,,,,,,,,,,,,,,,,,,,,,,,,,,,,,,,,,,,,,,,,,,,,,,,,,,,,,,,,,,,,,,,,,,,,,,,,,,,,,,,,,,,,,,,,,,,,,,,,,,,,,,,,,,,,,,
,,,,,,5f492ff7da9c144461f399f5,62c5399b303bf8e23fd01cba,2022-07-06_09h28.50.943,Colour_Asymmetry_Pilot,2022.1.3,Win32,59.77286312,62c50e9c1127f2cd403a315f,0,79,79,115,1,twofour,,,,,,,,,,,,,,,,,,,,,,,,,,,,,,,,,,,,,,,,,,,,,,,,,,,,,,,,,,,,,,,,,,,,,,,,,,,,,,,,,,,,,,,,,,,,,,,,,,,,,,,,,,,,,,,,,,,,,,,,,,,,,,,,,,,,,,,,,,,,,,,,,,,,,,,,,,,,,
,,,,,,5f492ff7da9c144461f399f5,62c5399b303bf8e23fd01cba,2022-07-06_09h28.50.943,Colour_Asymmetry_Pilot,2022.1.3,Win32,59.77286312,62c50e9c1127f2cd403a315f,0,80,80,35,1,twofour,,,,,,,,,,,,,,,,,,,,,,,,,,,,,,,,,,,,,,,,,,,,,,,,,,,,,,,,,,,,,,,,,,,,,,,,,,,,,,,,,,,,,,,,,,,,,,,,,,,,,,,,,,,,,,,,,,,,,,,,,,,,,,,,,,,,,,,,,,,,,,,,,,,,,,,,,,,,,
,,,,,,5f492ff7da9c144461f399f5,62c5399b303bf8e23fd01cba,2022-07-06_09h28.50.943,Colour_Asymmetry_Pilot,2022.1.3,Win32,59.77286312,62c50e9c1127f2cd403a315f,0,81,81,49,1,onethree,,,,,,,,,,,,,,,,,,,,,,,,,,,,,,,,,,,,,,,,,,,,,,,,,,,,,,,,,,,,,,,,,,,,,,,,,,,,,,,,,,,,,,,,,,,,,,,,,,,,,,,,,,,,,,,,,,,,,,,,,,,,,,,,,,,,,,,,,,,,,,,,,,,,,,,,,,,,,
,,,,,,5f492ff7da9c144461f399f5,62c5399b303bf8e23fd01cba,2022-07-06_09h28.50.943,Colour_Asymmetry_Pilot,2022.1.3,Win32,59.77286312,62c50e9c1127f2cd403a315f,0,82,82,123,1,twofour,,,,,,,,,,,,,,,,,,,,,,,,,,,,,,,,,,,,,,,,,,,,,,,,,,,,,,,,,,,,,,,,,,,,,,,,,,,,,,,,,,,,,,,,,,,,,,,,,,,,,,,,,,,,,,,,,,,,,,,,,,,,,,,,,,,,,,,,,,,,,,,,,,,,,,,,,,,,,
,,,,,,5f492ff7da9c144461f399f5,62c5399b303bf8e23fd01cba,2022-07-06_09h28.50.943,Colour_Asymmetry_Pilot,2022.1.3,Win32,59.77286312,62c50e9c1127f2cd403a315f,0,83,83,50,1,twoone,,,,,,,,,,,,,,,,,,,,,,,,,,,,,,,,,,,,,,,,,,,,,,,,,,,,,,,,,,,,,,,,,,,,,,,,,,,,,,,,,,,,,,,,,,,,,,,,,,,,,,,,,,,,,,,,,,,,,,,,,,,,,,,,,,,,,,,,,,,,,,,,,,,,,,,,,,,,,
,,,,,,5f492ff7da9c144461f399f5,62c5399b303bf8e23fd01cba,2022-07-06_09h28.50.943,Colour_Asymmetry_Pilot,2022.1.3,Win32,59.77286312,62c50e9c1127f2cd403a315f,0,84,84,10,1,twoone,,,,,,,,,,,,,,,,,,,,,,,,,,,,,,,,,,,,,,,,,,,,,,,,,,,,,,,,,,,,,,,,,,,,,,,,,,,,,,,,,,,,,,,,,,,,,,,,,,,,,,,,,,,,,,,,,,,,,,,,,,,,,,,,,,,,,,,,,,,,,,,,,,,,,,,,,,,,,
,,,,,,5f492ff7da9c144461f399f5,62c5399b303bf8e23fd01cba,2022-07-06_09h28.50.943,Colour_Asymmetry_Pilot,2022.1.3,Win32,59.77286312,62c50e9c1127f2cd403a315f,0,85,85,12,1,threeone,,,,,,,,,,,,,,,,,,,,,,,,,,,,,,,,,,,,,,,,,,,,,,,,,,,,,,,,,,,,,,,,,,,,,,,,,,,,,,,,,,,,,,,,,,,,,,,,,,,,,,,,,,,,,,,,,,,,,,,,,,,,,,,,,,,,,,,,,,,,,,,,,,,,,,,,,,,,,
,,,,,,5f492ff7da9c144461f399f5,62c5399b303bf8e23fd01cba,2022-07-06_09h28.50.943,Colour_Asymmetry_Pilot,2022.1.3,Win32,59.77286312,62c50e9c1127f2cd403a315f,0,86,86,19,1,twofour,,,,,,,,,,,,,,,,,,,,,,,,,,,,,,,,,,,,,,,,,,,,,,,,,,,,,,,,,,,,,,,,,,,,,,,,,,,,,,,,,,,,,,,,,,,,,,,,,,,,,,,,,,,,,,,,,,,,,,,,,,,,,,,,,,,,,,,,,,,,,,,,,,,,,,,,,,,,,
,,,,,,5f492ff7da9c144461f399f5,62c5399b303bf8e23fd01cba,2022-07-06_09h28.50.943,Colour_Asymmetry_Pilot,2022.1.3,Win32,59.77286312,62c50e9c1127f2cd403a315f,0,87,87,48,1,onetwo,,,,,,,,,,,,,,,,,,,,,,,,,,,,,,,,,,,,,,,,,,,,,,,,,,,,,,,,,,,,,,,,,,,,,,,,,,,,,,,,,,,,,,,,,,,,,,,,,,,,,,,,,,,,,,,,,,,,,,,,,,,,,,,,,,,,,,,,,,,,,,,,,,,,,,,,,,,,,
,,,,,,5f492ff7da9c144461f399f5,62c5399b303bf8e23fd01cba,2022-07-06_09h28.50.943,Colour_Asymmetry_Pilot,2022.1.3,Win32,59.77286312,62c50e9c1127f2cd403a315f,0,88,88,145,1,onethree,,,,,,,,,,,,,,,,,,,,,,,,,,,,,,,,,,,,,,,,,,,,,,,,,,,,,,,,,,,,,,,,,,,,,,,,,,,,,,,,,,,,,,,,,,,,,,,,,,,,,,,,,,,,,,,,,,,,,,,,,,,,,,,,,,,,,,,,,,,,,,,,,,,,,,,,,,,,,
,,,,,,5f492ff7da9c144461f399f5,62c5399b303bf8e23fd01cba,2022-07-06_09h28.50.943,Colour_Asymmetry_Pilot,2022.1.3,Win32,59.77286312,62c50e9c1127f2cd403a315f,0,89,89,130,1,twoone,,,,,,,,,,,,,,,,,,,,,,,,,,,,,,,,,,,,,,,,,,,,,,,,,,,,,,,,,,,,,,,,,,,,,,,,,,,,,,,,,,,,,,,,,,,,,,,,,,,,,,,,,,,,,,,,,,,,,,,,,,,,,,,,,,,,,,,,,,,,,,,,,,,,,,,,,,,,,
,,,,,,5f492ff7da9c144461f399f5,62c5399b303bf8e23fd01cba,2022-07-06_09h28.50.943,Colour_Asymmetry_Pilot,2022.1.3,Win32,59.77286312,62c50e9c1127f2cd403a315f,0,90,90,1,1,onethree,,,,,,,,,,,,,,,,,,,,,,,,,,,,,,,,,,,,,,,,,,,,,,,,,,,,,,,,,,,,,,,,,,,,,,,,,,,,,,,,,,,,,,,,,,,,,,,,,,,,,,,,,,,,,,,,,,,,,,,,,,,,,,,,,,,,,,,,,,,,,,,,,,,,,,,,,,,,,
,,,,,,5f492ff7da9c144461f399f5,62c5399b303bf8e23fd01cba,2022-07-06_09h28.50.943,Colour_Asymmetry_Pilot,2022.1.3,Win32,59.77286312,62c50e9c1127f2cd403a315f,0,91,91,44,1,threeone,,,,,,,,,,,,,,,,,,,,,,,,,,,,,,,,,,,,,,,,,,,,,,,,,,,,,,,,,,,,,,,,,,,,,,,,,,,,,,,,,,,,,,,,,,,,,,,,,,,,,,,,,,,,,,,,,,,,,,,,,,,,,,,,,,,,,,,,,,,,,,,,,,,,,,,,,,,,,
,,,,,,5f492ff7da9c144461f399f5,62c5399b303bf8e23fd01cba,2022-07-06_09h28.50.943,Colour_Asymmetry_Pilot,2022.1.3,Win32,59.77286312,62c50e9c1127f2cd403a315f,0,92,92,33,1,onethree,,,,,,,,,,,,,,,,,,,,,,,,,,,,,,,,,,,,,,,,,,,,,,,,,,,,,,,,,,,,,,,,,,,,,,,,,,,,,,,,,,,,,,,,,,,,,,,,,,,,,,,,,,,,,,,,,,,,,,,,,,,,,,,,,,,,,,,,,,,,,,,,,,,,,,,,,,,,,
,,,,,,5f492ff7da9c144461f399f5,62c5399b303bf8e23fd01cba,2022-07-06_09h28.50.943,Colour_Asymmetry_Pilot,2022.1.3,Win32,59.77286312,62c50e9c1127f2cd403a315f,0,93,93,142,1,fourtwo,,,,,,,,,,,,,,,,,,,,,,,,,,,,,,,,,,,,,,,,,,,,,,,,,,,,,,,,,,,,,,,,,,,,,,,,,,,,,,,,,,,,,,,,,,,,,,,,,,,,,,,,,,,,,,,,,,,,,,,,,,,,,,,,,,,,,,,,,,,,,,,,,,,,,,,,,,,,,
,,,,,,5f492ff7da9c144461f399f5,62c5399b303bf8e23fd01cba,2022-07-06_09h28.50.943,Colour_Asymmetry_Pilot,2022.1.3,Win32,59.77286312,62c50e9c1127f2cd403a315f,0,94,94,92,1,threeone,,,,,,,,,,,,,,,,,,,,,,,,,,,,,,,,,,,,,,,,,,,,,,,,,,,,,,,,,,,,,,,,,,,,,,,,,,,,,,,,,,,,,,,,,,,,,,,,,,,,,,,,,,,,,,,,,,,,,,,,,,,,,,,,,,,,,,,,,,,,,,,,,,,,,,,,,,,,,
,,,,,,5f492ff7da9c144461f399f5,62c5399b303bf8e23fd01cba,2022-07-06_09h28.50.943,Colour_Asymmetry_Pilot,2022.1.3,Win32,59.77286312,62c50e9c1127f2cd403a315f,0,95,95,21,1,threefour,,,,,,,,,,,,,,,,,,,,,,,,,,,,,,,,,,,,,,,,,,,,,,,,,,,,,,,,,,,,,,,,,,,,,,,,,,,,,,,,,,,,,,,,,,,,,,,,,,,,,,,,,,,,,,,,,,,,,,,,,,,,,,,,,,,,,,,,,,,,,,,,,,,,,,,,,,,,,
,,,,,,5f492ff7da9c144461f399f5,62c5399b303bf8e23fd01cba,2022-07-06_09h28.50.943,Colour_Asymmetry_Pilot,2022.1.3,Win32,59.77286312,62c50e9c1127f2cd403a315f,0,96,96,141,1,threefour,,,,,,,,,,,,,,,,,,,,,,,,,,,,,,,,,,,,,,,,,,,,,,,,,,,,,,,,,,,,,,,,,,,,,,,,,,,,,,,,,,,,,,,,,,,,,,,,,,,,,,,,,,,,,,,,,,,,,,,,,,,,,,,,,,,,,,,,,,,,,,,,,,,,,,,,,,,,,
,,,,,,5f492ff7da9c144461f399f5,62c5399b303bf8e23fd01cba,2022-07-06_09h28.50.943,Colour_Asymmetry_Pilot,2022.1.3,Win32,59.77286312,62c50e9c1127f2cd403a315f,0,97,97,46,1,fourtwo,,,,,,,,,,,,,,,,,,,,,,,,,,,,,,,,,,,,,,,,,,,,,,,,,,,,,,,,,,,,,,,,,,,,,,,,,,,,,,,,,,,,,,,,,,,,,,,,,,,,,,,,,,,,,,,,,,,,,,,,,,,,,,,,,,,,,,,,,,,,,,,,,,,,,,,,,,,,,
,,,,,,5f492ff7da9c144461f399f5,62c5399b303bf8e23fd01cba,2022-07-06_09h28.50.943,Colour_Asymmetry_Pilot,2022.1.3,Win32,59.77286312,62c50e9c1127f2cd403a315f,0,98,98,118,1,fourtwo,,,,,,,,,,,,,,,,,,,,,,,,,,,,,,,,,,,,,,,,,,,,,,,,,,,,,,,,,,,,,,,,,,,,,,,,,,,,,,,,,,,,,,,,,,,,,,,,,,,,,,,,,,,,,,,,,,,,,,,,,,,,,,,,,,,,,,,,,,,,,,,,,,,,,,,,,,,,,
,,,,,,5f492ff7da9c144461f399f5,62c5399b303bf8e23fd01cba,2022-07-06_09h28.50.943,Colour_Asymmetry_Pilot,2022.1.3,Win32,59.77286312,62c50e9c1127f2cd403a315f,0,99,99,22,1,fourtwo,,,,,,,,,,,,,,,,,,,,,,,,,,,,,,,,,,,,,,,,,,,,,,,,,,,,,,,,,,,,,,,,,,,,,,,,,,,,,,,,,,,,,,,,,,,,,,,,,,,,,,,,,,,,,,,,,,,,,,,,,,,,,,,,,,,,,,,,,,,,,,,,,,,,,,,,,,,,,
,,,,,,5f492ff7da9c144461f399f5,62c5399b303bf8e23fd01cba,2022-07-06_09h28.50.943,Colour_Asymmetry_Pilot,2022.1.3,Win32,59.77286312,62c50e9c1127f2cd403a315f,0,100,100,116,1,threeone,,,,,,,,,,,,,,,,,,,,,,,,,,,,,,,,,,,,,,,,,,,,,,,,,,,,,,,,,,,,,,,,,,,,,,,,,,,,,,,,,,,,,,,,,,,,,,,,,,,,,,,,,,,,,,,,,,,,,,,,,,,,,,,,,,,,,,,,,,,,,,,,,,,,,,,,,,,,,
,,,,,,5f492ff7da9c144461f399f5,62c5399b303bf8e23fd01cba,2022-07-06_09h28.50.943,Colour_Asymmetry_Pilot,2022.1.3,Win32,59.77286312,62c50e9c1127f2cd403a315f,0,101,101,103,1,fourthree,,,,,,,,,,,,,,,,,,,,,,,,,,,,,,,,,,,,,,,,,,,,,,,,,,,,,,,,,,,,,,,,,,,,,,,,,,,,,,,,,,,,,,,,,,,,,,,,,,,,,,,,,,,,,,,,,,,,,,,,,,,,,,,,,,,,,,,,,,,,,,,,,,,,,,,,,,,,,
,,,,,,5f492ff7da9c144461f399f5,62c5399b303bf8e23fd01cba,2022-07-06_09h28.50.943,Colour_Asymmetry_Pilot,2022.1.3,Win32,59.77286312,62c50e9c1127f2cd403a315f,0,102,102,152,1,onetwo,,,,,,,,,,,,,,,,,,,,,,,,,,,,,,,,,,,,,,,,,,,,,,,,,,,,,,,,,,,,,,,,,,,,,,,,,,,,,,,,,,,,,,,,,,,,,,,,,,,,,,,,,,,,,,,,,,,,,,,,,,,,,,,,,,,,,,,,,,,,,,,,,,,,,,,,,,,,,
,,,,,,5f492ff7da9c144461f399f5,62c5399b303bf8e23fd01cba,2022-07-06_09h28.50.943,Colour_Asymmetry_Pilot,2022.1.3,Win32,59.77286312,62c50e9c1127f2cd403a315f,0,103,103,126,1,fourtwo,,,,,,,,,,,,,,,,,,,,,,,,,,,,,,,,,,,,,,,,,,,,,,,,,,,,,,,,,,,,,,,,,,,,,,,,,,,,,,,,,,,,,,,,,,,,,,,,,,,,,,,,,,,,,,,,,,,,,,,,,,,,,,,,,,,,,,,,,,,,,,,,,,,,,,,,,,,,,
,,,,,,5f492ff7da9c144461f399f5,62c5399b303bf8e23fd01cba,2022-07-06_09h28.50.943,Colour_Asymmetry_Pilot,2022.1.3,Win32,59.77286312,62c50e9c1127f2cd403a315f,0,104,104,76,1,threeone,,,,,,,,,,,,,,,,,,,,,,,,,,,,,,,,,,,,,,,,,,,,,,,,,,,,,,,,,,,,,,,,,,,,,,,,,,,,,,,,,,,,,,,,,,,,,,,,,,,,,,,,,,,,,,,,,,,,,,,,,,,,,,,,,,,,,,,,,,,,,,,,,,,,,,,,,,,,,
,,,,,,5f492ff7da9c144461f399f5,62c5399b303bf8e23fd01cba,2022-07-06_09h28.50.943,Colour_Asymmetry_Pilot,2022.1.3,Win32,59.77286312,62c50e9c1127f2cd403a315f,0,105,105,13,1,threefour,,,,,,,,,,,,,,,,,,,,,,,,,,,,,,,,,,,,,,,,,,,,,,,,,,,,,,,,,,,,,,,,,,,,,,,,,,,,,,,,,,,,,,,,,,,,,,,,,,,,,,,,,,,,,,,,,,,,,,,,,,,,,,,,,,,,,,,,,,,,,,,,,,,,,,,,,,,,,
,,,,,,5f492ff7da9c144461f399f5,62c5399b303bf8e23fd01cba,2022-07-06_09h28.50.943,Colour_Asymmetry_Pilot,2022.1.3,Win32,59.77286312,62c50e9c1127f2cd403a315f,0,106,106,133,1,threefour,,,,,,,,,,,,,,,,,,,,,,,,,,,,,,,,,,,,,,,,,,,,,,,,,,,,,,,,,,,,,,,,,,,,,,,,,,,,,,,,,,,,,,,,,,,,,,,,,,,,,,,,,,,,,,,,,,,,,,,,,,,,,,,,,,,,,,,,,,,,,,,,,,,,,,,,,,,,,
,,,,,,5f492ff7da9c144461f399f5,62c5399b303bf8e23fd01cba,2022-07-06_09h28.50.943,Colour_Asymmetry_Pilot,2022.1.3,Win32,59.77286312,62c50e9c1127f2cd403a315f,0,107,107,151,1,fourthree,,,,,,,,,,,,,,,,,,,,,,,,,,,,,,,,,,,,,,,,,,,,,,,,,,,,,,,,,,,,,,,,,,,,,,,,,,,,,,,,,,,,,,,,,,,,,,,,,,,,,,,,,,,,,,,,,,,,,,,,,,,,,,,,,,,,,,,,,,,,,,,,,,,,,,,,,,,,,
,,,,,,5f492ff7da9c144461f399f5,62c5399b303bf8e23fd01cba,2022-07-06_09h28.50.943,Colour_Asymmetry_Pilot,2022.1.3,Win32,59.77286312,62c50e9c1127f2cd403a315f,0,108,108,75,1,twofour,,,,,,,,,,,,,,,,,,,,,,,,,,,,,,,,,,,,,,,,,,,,,,,,,,,,,,,,,,,,,,,,,,,,,,,,,,,,,,,,,,,,,,,,,,,,,,,,,,,,,,,,,,,,,,,,,,,,,,,,,,,,,,,,,,,,,,,,,,,,,,,,,,,,,,,,,,,,,
,,,,,,5f492ff7da9c144461f399f5,62c5399b303bf8e23fd01cba,2022-07-06_09h28.50.943,Colour_Asymmetry_Pilot,2022.1.3,Win32,59.77286312,62c50e9c1127f2cd403a315f,0,109,109,72,1,onetwo,,,,,,,,,,,,,,,,,,,,,,,,,,,,,,,,,,,,,,,,,,,,,,,,,,,,,,,,,,,,,,,,,,,,,,,,,,,,,,,,,,,,,,,,,,,,,,,,,,,,,,,,,,,,,,,,,,,,,,,,,,,,,,,,,,,,,,,,,,,,,,,,,,,,,,,,,,,,,
,,,,,,5f492ff7da9c144461f399f5,62c5399b303bf8e23fd01cba,2022-07-06_09h28.50.943,Colour_Asymmetry_Pilot,2022.1.3,Win32,59.77286312,62c50e9c1127f2cd403a315f,0,110,110,9,1,onethree,,,,,,,,,,,,,,,,,,,,,,,,,,,,,,,,,,,,,,,,,,,,,,,,,,,,,,,,,,,,,,,,,,,,,,,,,,,,,,,,,,,,,,,,,,,,,,,,,,,,,,,,,,,,,,,,,,,,,,,,,,,,,,,,,,,,,,,,,,,,,,,,,,,,,,,,,,,,,
,,,,,,5f492ff7da9c144461f399f5,62c5399b303bf8e23fd01cba,2022-07-06_09h28.50.943,Colour_Asymmetry_Pilot,2022.1.3,Win32,59.77286312,62c50e9c1127f2cd403a315f,0,111,111,29,1,threefour,,,,,,,,,,,,,,,,,,,,,,,,,,,,,,,,,,,,,,,,,,,,,,,,,,,,,,,,,,,,,,,,,,,,,,,,,,,,,,,,,,,,,,,,,,,,,,,,,,,,,,,,,,,,,,,,,,,,,,,,,,,,,,,,,,,,,,,,,,,,,,,,,,,,,,,,,,,,,
,,,,,,5f492ff7da9c144461f399f5,62c5399b303bf8e23fd01cba,2022-07-06_09h28.50.943,Colour_Asymmetry_Pilot,2022.1.3,Win32,59.77286312,62c50e9c1127f2cd403a315f,0,112,112,154,1,twoone,,,,,,,,,,,,,,,,,,,,,,,,,,,,,,,,,,,,,,,,,,,,,,,,,,,,,,,,,,,,,,,,,,,,,,,,,,,,,,,,,,,,,,,,,,,,,,,,,,,,,,,,,,,,,,,,,,,,,,,,,,,,,,,,,,,,,,,,,,,,,,,,,,,,,,,,,,,,,
,,,,,,5f492ff7da9c144461f399f5,62c5399b303bf8e23fd01cba,2022-07-06_09h28.50.943,Colour_Asymmetry_Pilot,2022.1.3,Win32,59.77286312,62c50e9c1127f2cd403a315f,0,113,113,67,1,twofour,,,,,,,,,,,,,,,,,,,,,,,,,,,,,,,,,,,,,,,,,,,,,,,,,,,,,,,,,,,,,,,,,,,,,,,,,,,,,,,,,,,,,,,,,,,,,,,,,,,,,,,,,,,,,,,,,,,,,,,,,,,,,,,,,,,,,,,,,,,,,,,,,,,,,,,,,,,,,
,,,,,,5f492ff7da9c144461f399f5,62c5399b303bf8e23fd01cba,2022-07-06_09h28.50.943,Colour_Asymmetry_Pilot,2022.1.3,Win32,59.77286312,62c50e9c1127f2cd403a315f,0,114,114,111,1,fourthree,,,,,,,,,,,,,,,,,,,,,,,,,,,,,,,,,,,,,,,,,,,,,,,,,,,,,,,,,,,,,,,,,,,,,,,,,,,,,,,,,,,,,,,,,,,,,,,,,,,,,,,,,,,,,,,,,,,,,,,,,,,,,,,,,,,,,,,,,,,,,,,,,,,,,,,,,,,,,
,,,,,,5f492ff7da9c144461f399f5,62c5399b303bf8e23fd01cba,2022-07-06_09h28.50.943,Colour_Asymmetry_Pilot,2022.1.3,Win32,59.77286312,62c50e9c1127f2cd403a315f,0,115,115,59,1,twofour,,,,,,,,,,,,,,,,,,,,,,,,,,,,,,,,,,,,,,,,,,,,,,,,,,,,,,,,,,,,,,,,,,,,,,,,,,,,,,,,,,,,,,,,,,,,,,,,,,,,,,,,,,,,,,,,,,,,,,,,,,,,,,,,,,,,,,,,,,,,,,,,,,,,,,,,,,,,,
,,,,,,5f492ff7da9c144461f399f5,62c5399b303bf8e23fd01cba,2022-07-06_09h28.50.943,Colour_Asymmetry_Pilot,2022.1.3,Win32,59.77286312,62c50e9c1127f2cd403a315f,0,116,116,57,1,onethree,,,,,,,,,,,,,,,,,,,,,,,,,,,,,,,,,,,,,,,,,,,,,,,,,,,,,,,,,,,,,,,,,,,,,,,,,,,,,,,,,,,,,,,,,,,,,,,,,,,,,,,,,,,,,,,,,,,,,,,,,,,,,,,,,,,,,,,,,,,,,,,,,,,,,,,,,,,,,
,,,,,,5f492ff7da9c144461f399f5,62c5399b303bf8e23fd01cba,2022-07-06_09h28.50.943,Colour_Asymmetry_Pilot,2022.1.3,Win32,59.77286312,62c50e9c1127f2cd403a315f,0,117,117,121,1,onethree,,,,,,,,,,,,,,,,,,,,,,,,,,,,,,,,,,,,,,,,,,,,,,,,,,,,,,,,,,,,,,,,,,,,,,,,,,,,,,,,,,,,,,,,,,,,,,,,,,,,,,,,,,,,,,,,,,,,,,,,,,,,,,,,,,,,,,,,,,,,,,,,,,,,,,,,,,,,,
,,,,,,5f492ff7da9c144461f399f5,62c5399b303bf8e23fd01cba,2022-07-06_09h28.50.943,Colour_Asymmetry_Pilot,2022.1.3,Win32,59.77286312,62c50e9c1127f2cd403a315f,0,118,118,30,1,fourtwo,,,,,,,,,,,,,,,,,,,,,,,,,,,,,,,,,,,,,,,,,,,,,,,,,,,,,,,,,,,,,,,,,,,,,,,,,,,,,,,,,,,,,,,,,,,,,,,,,,,,,,,,,,,,,,,,,,,,,,,,,,,,,,,,,,,,,,,,,,,,,,,,,,,,,,,,,,,,,
,,,,,,5f492ff7da9c144461f399f5,62c5399b303bf8e23fd01cba,2022-07-06_09h28.50.943,Colour_Asymmetry_Pilot,2022.1.3,Win32,59.77286312,62c50e9c1127f2cd403a315f,0,119,119,60,1,threeone,,,,,,,,,,,,,,,,,,,,,,,,,,,,,,,,,,,,,,,,,,,,,,,,,,,,,,,,,,,,,,,,,,,,,,,,,,,,,,,,,,,,,,,,,,,,,,,,,,,,,,,,,,,,,,,,,,,,,,,,,,,,,,,,,,,,,,,,,,,,,,,,,,,,,,,,,,,,,
,,,,,,5f492ff7da9c144461f399f5,62c5399b303bf8e23fd01cba,2022-07-06_09h28.50.943,Colour_Asymmetry_Pilot,2022.1.3,Win32,59.77286312,62c50e9c1127f2cd403a315f,0,120,120,134,1,fourtwo,,,,,,,,,,,,,,,,,,,,,,,,,,,,,,,,,,,,,,,,,,,,,,,,,,,,,,,,,,,,,,,,,,,,,,,,,,,,,,,,,,,,,,,,,,,,,,,,,,,,,,,,,,,,,,,,,,,,,,,,,,,,,,,,,,,,,,,,,,,,,,,,,,,,,,,,,,,,,
,,,,,,5f492ff7da9c144461f399f5,62c5399b303bf8e23fd01cba,2022-07-06_09h28.50.943,Colour_Asymmetry_Pilot,2022.1.3,Win32,59.77286312,62c50e9c1127f2cd403a315f,0,121,121,66,1,twoone,,,,,,,,,,,,,,,,,,,,,,,,,,,,,,,,,,,,,,,,,,,,,,,,,,,,,,,,,,,,,,,,,,,,,,,,,,,,,,,,,,,,,,,,,,,,,,,,,,,,,,,,,,,,,,,,,,,,,,,,,,,,,,,,,,,,,,,,,,,,,,,,,,,,,,,,,,,,,
,,,,,,5f492ff7da9c144461f399f5,62c5399b303bf8e23fd01cba,2022-07-06_09h28.50.943,Colour_Asymmetry_Pilot,2022.1.3,Win32,59.77286312,62c50e9c1127f2cd403a315f,0,122,122,148,1,threeone,,,,,,,,,,,,,,,,,,,,,,,,,,,,,,,,,,,,,,,,,,,,,,,,,,,,,,,,,,,,,,,,,,,,,,,,,,,,,,,,,,,,,,,,,,,,,,,,,,,,,,,,,,,,,,,,,,,,,,,,,,,,,,,,,,,,,,,,,,,,,,,,,,,,,,,,,,,,,
,,,,,,5f492ff7da9c144461f399f5,62c5399b303bf8e23fd01cba,2022-07-06_09h28.50.943,Colour_Asymmetry_Pilot,2022.1.3,Win32,59.77286312,62c50e9c1127f2cd403a315f,0,123,123,83,1,twofour,,,,,,,,,,,,,,,,,,,,,,,,,,,,,,,,,,,,,,,,,,,,,,,,,,,,,,,,,,,,,,,,,,,,,,,,,,,,,,,,,,,,,,,,,,,,,,,,,,,,,,,,,,,,,,,,,,,,,,,,,,,,,,,,,,,,,,,,,,,,,,,,,,,,,,,,,,,,,
,,,,,,5f492ff7da9c144461f399f5,62c5399b303bf8e23fd01cba,2022-07-06_09h28.50.943,Colour_Asymmetry_Pilot,2022.1.3,Win32,59.77286312,62c50e9c1127f2cd403a315f,0,124,124,107,1,twofour,,,,,,,,,,,,,,,,,,,,,,,,,,,,,,,,,,,,,,,,,,,,,,,,,,,,,,,,,,,,,,,,,,,,,,,,,,,,,,,,,,,,,,,,,,,,,,,,,,,,,,,,,,,,,,,,,,,,,,,,,,,,,,,,,,,,,,,,,,,,,,,,,,,,,,,,,,,,,
,,,,,,5f492ff7da9c144461f399f5,62c5399b303bf8e23fd01cba,2022-07-06_09h28.50.943,Colour_Asymmetry_Pilot,2022.1.3,Win32,59.77286312,62c50e9c1127f2cd403a315f,0,125,125,91,1,twofour,,,,,,,,,,,,,,,,,,,,,,,,,,,,,,,,,,,,,,,,,,,,,,,,,,,,,,,,,,,,,,,,,,,,,,,,,,,,,,,,,,,,,,,,,,,,,,,,,,,,,,,,,,,,,,,,,,,,,,,,,,,,,,,,,,,,,,,,,,,,,,,,,,,,,,,,,,,,,
,,,,,,5f492ff7da9c144461f399f5,62c5399b303bf8e23fd01cba,2022-07-06_09h28.50.943,Colour_Asymmetry_Pilot,2022.1.3,Win32,59.77286312,62c50e9c1127f2cd403a315f,0,126,126,99,1,twofour,,,,,,,,,,,,,,,,,,,,,,,,,,,,,,,,,,,,,,,,,,,,,,,,,,,,,,,,,,,,,,,,,,,,,,,,,,,,,,,,,,,,,,,,,,,,,,,,,,,,,,,,,,,,,,,,,,,,,,,,,,,,,,,,,,,,,,,,,,,,,,,,,,,,,,,,,,,,,
,,,,,,5f492ff7da9c144461f399f5,62c5399b303bf8e23fd01cba,2022-07-06_09h28.50.943,Colour_Asymmetry_Pilot,2022.1.3,Win32,59.77286312,62c50e9c1127f2cd403a315f,0,127,127,0,1,onetwo,,,,,,,,,,,,,,,,,,,,,,,,,,,,,,,,,,,,,,,,,,,,,,,,,,,,,,,,,,,,,,,,,,,,,,,,,,,,,,,,,,,,,,,,,,,,,,,,,,,,,,,,,,,,,,,,,,,,,,,,,,,,,,,,,,,,,,,,,,,,,,,,,,,,,,,,,,,,,
,,,,,,5f492ff7da9c144461f399f5,62c5399b303bf8e23fd01cba,2022-07-06_09h28.50.943,Colour_Asymmetry_Pilot,2022.1.3,Win32,59.77286312,62c50e9c1127f2cd403a315f,0,128,128,70,1,fourtwo,,,,,,,,,,,,,,,,,,,,,,,,,,,,,,,,,,,,,,,,,,,,,,,,,,,,,,,,,,,,,,,,,,,,,,,,,,,,,,,,,,,,,,,,,,,,,,,,,,,,,,,,,,,,,,,,,,,,,,,,,,,,,,,,,,,,,,,,,,,,,,,,,,,,,,,,,,,,,
,,,,,,5f492ff7da9c144461f399f5,62c5399b303bf8e23fd01cba,2022-07-06_09h28.50.943,Colour_Asymmetry_Pilot,2022.1.3,Win32,59.77286312,62c50e9c1127f2cd403a315f,0,129,129,78,1,fourtwo,,,,,,,,,,,,,,,,,,,,,,,,,,,,,,,,,,,,,,,,,,,,,,,,,,,,,,,,,,,,,,,,,,,,,,,,,,,,,,,,,,,,,,,,,,,,,,,,,,,,,,,,,,,,,,,,,,,,,,,,,,,,,,,,,,,,,,,,,,,,,,,,,,,,,,,,,,,,,
,,,,,,5f492ff7da9c144461f399f5,62c5399b303bf8e23fd01cba,2022-07-06_09h28.50.943,Colour_Asymmetry_Pilot,2022.1.3,Win32,59.77286312,62c50e9c1127f2cd403a315f,0,130,130,51,1,twofour,,,,,,,,,,,,,,,,,,,,,,,,,,,,,,,,,,,,,,,,,,,,,,,,,,,,,,,,,,,,,,,,,,,,,,,,,,,,,,,,,,,,,,,,,,,,,,,,,,,,,,,,,,,,,,,,,,,,,,,,,,,,,,,,,,,,,,,,,,,,,,,,,,,,,,,,,,,,,
,,,,,,5f492ff7da9c144461f399f5,62c5399b303bf8e23fd01cba,2022-07-06_09h28.50.943,Colour_Asymmetry_Pilot,2022.1.3,Win32,59.77286312,62c50e9c1127f2cd403a315f,0,131,131,40,1,onetwo,,,,,,,,,,,,,,,,,,,,,,,,,,,,,,,,,,,,,,,,,,,,,,,,,,,,,,,,,,,,,,,,,,,,,,,,,,,,,,,,,,,,,,,,,,,,,,,,,,,,,,,,,,,,,,,,,,,,,,,,,,,,,,,,,,,,,,,,,,,,,,,,,,,,,,,,,,,,,
,,,,,,5f492ff7da9c144461f399f5,62c5399b303bf8e23fd01cba,2022-07-06_09h28.50.943,Colour_Asymmetry_Pilot,2022.1.3,Win32,59.77286312,62c50e9c1127f2cd403a315f,0,132,132,140,1,threeone,,,,,,,,,,,,,,,,,,,,,,,,,,,,,,,,,,,,,,,,,,,,,,,,,,,,,,,,,,,,,,,,,,,,,,,,,,,,,,,,,,,,,,,,,,,,,,,,,,,,,,,,,,,,,,,,,,,,,,,,,,,,,,,,,,,,,,,,,,,,,,,,,,,,,,,,,,,,,
,,,,,,5f492ff7da9c144461f399f5,62c5399b303bf8e23fd01cba,2022-07-06_09h28.50.943,Colour_Asymmetry_Pilot,2022.1.3,Win32,59.77286312,62c50e9c1127f2cd403a315f,0,133,133,85,1,threefour,,,,,,,,,,,,,,,,,,,,,,,,,,,,,,,,,,,,,,,,,,,,,,,,,,,,,,,,,,,,,,,,,,,,,,,,,,,,,,,,,,,,,,,,,,,,,,,,,,,,,,,,,,,,,,,,,,,,,,,,,,,,,,,,,,,,,,,,,,,,,,,,,,,,,,,,,,,,,
,,,,,,5f492ff7da9c144461f399f5,62c5399b303bf8e23fd01cba,2022-07-06_09h28.50.943,Colour_Asymmetry_Pilot,2022.1.3,Win32,59.77286312,62c50e9c1127f2cd403a315f,0,134,134,143,1,fourthree,,,,,,,,,,,,,,,,,,,,,,,,,,,,,,,,,,,,,,,,,,,,,,,,,,,,,,,,,,,,,,,,,,,,,,,,,,,,,,,,,,,,,,,,,,,,,,,,,,,,,,,,,,,,,,,,,,,,,,,,,,,,,,,,,,,,,,,,,,,,,,,,,,,,,,,,,,,,,
,,,,,,5f492ff7da9c144461f399f5,62c5399b303bf8e23fd01cba,2022-07-06_09h28.50.943,Colour_Asymmetry_Pilot,2022.1.3,Win32,59.77286312,62c50e9c1127f2cd403a315f,0,135,135,34,1,twoone,,,,,,,,,,,,,,,,,,,,,,,,,,,,,,,,,,,,,,,,,,,,,,,,,,,,,,,,,,,,,,,,,,,,,,,,,,,,,,,,,,,,,,,,,,,,,,,,,,,,,,,,,,,,,,,,,,,,,,,,,,,,,,,,,,,,,,,,,,,,,,,,,,,,,,,,,,,,,
,,,,,,5f492ff7da9c144461f399f5,62c5399b303bf8e23fd01cba,2022-07-06_09h28.50.943,Colour_Asymmetry_Pilot,2022.1.3,Win32,59.77286312,62c50e9c1127f2cd403a315f,0,136,136,102,1,fourtwo,,,,,,,,,,,,,,,,,,,,,,,,,,,,,,,,,,,,,,,,,,,,,,,,,,,,,,,,,,,,,,,,,,,,,,,,,,,,,,,,,,,,,,,,,,,,,,,,,,,,,,,,,,,,,,,,,,,,,,,,,,,,,,,,,,,,,,,,,,,,,,,,,,,,,,,,,,,,,
,,,,,,5f492ff7da9c144461f399f5,62c5399b303bf8e23fd01cba,2022-07-06_09h28.50.943,Colour_Asymmetry_Pilot,2022.1.3,Win32,59.77286312,62c50e9c1127f2cd403a315f,0,137,137,53,1,threefour,,,,,,,,,,,,,,,,,,,,,,,,,,,,,,,,,,,,,,,,,,,,,,,,,,,,,,,,,,,,,,,,,,,,,,,,,,,,,,,,,,,,,,,,,,,,,,,,,,,,,,,,,,,,,,,,,,,,,,,,,,,,,,,,,,,,,,,,,,,,,,,,,,,,,,,,,,,,,
,,,,,,5f492ff7da9c144461f399f5,62c5399b303bf8e23fd01cba,2022-07-06_09h28.50.943,Colour_Asymmetry_Pilot,2022.1.3,Win32,59.77286312,62c50e9c1127f2cd403a315f,0,138,138,135,1,fourthree,,,,,,,,,,,,,,,,,,,,,,,,,,,,,,,,,,,,,,,,,,,,,,,,,,,,,,,,,,,,,,,,,,,,,,,,,,,,,,,,,,,,,,,,,,,,,,,,,,,,,,,,,,,,,,,,,,,,,,,,,,,,,,,,,,,,,,,,,,,,,,,,,,,,,,,,,,,,,
,,,,,,5f492ff7da9c144461f399f5,62c5399b303bf8e23fd01cba,2022-07-06_09h28.50.943,Colour_Asymmetry_Pilot,2022.1.3,Win32,59.77286312,62c50e9c1127f2cd403a315f,0,139,139,39,1,fourthree,,,,,,,,,,,,,,,,,,,,,,,,,,,,,,,,,,,,,,,,,,,,,,,,,,,,,,,,,,,,,,,,,,,,,,,,,,,,,,,,,,,,,,,,,,,,,,,,,,,,,,,,,,,,,,,,,,,,,,,,,,,,,,,,,,,,,,,,,,,,,,,,,,,,,,,,,,,,,
,,,,,,5f492ff7da9c144461f399f5,62c5399b303bf8e23fd01cba,2022-07-06_09h28.50.943,Colour_Asymmetry_Pilot,2022.1.3,Win32,59.77286312,62c50e9c1127f2cd403a315f,0,140,140,79,1,fourthree,,,,,,,,,,,,,,,,,,,,,,,,,,,,,,,,,,,,,,,,,,,,,,,,,,,,,,,,,,,,,,,,,,,,,,,,,,,,,,,,,,,,,,,,,,,,,,,,,,,,,,,,,,,,,,,,,,,,,,,,,,,,,,,,,,,,,,,,,,,,,,,,,,,,,,,,,,,,,
,,,,,,5f492ff7da9c144461f399f5,62c5399b303bf8e23fd01cba,2022-07-06_09h28.50.943,Colour_Asymmetry_Pilot,2022.1.3,Win32,59.77286312,62c50e9c1127f2cd403a315f,0,141,141,15,1,fourthree,,,,,,,,,,,,,,,,,,,,,,,,,,,,,,,,,,,,,,,,,,,,,,,,,,,,,,,,,,,,,,,,,,,,,,,,,,,,,,,,,,,,,,,,,,,,,,,,,,,,,,,,,,,,,,,,,,,,,,,,,,,,,,,,,,,,,,,,,,,,,,,,,,,,,,,,,,,,,
,,,,,,5f492ff7da9c144461f399f5,62c5399b303bf8e23fd01cba,2022-07-06_09h28.50.943,Colour_Asymmetry_Pilot,2022.1.3,Win32,59.77286312,62c50e9c1127f2cd403a315f,0,142,142,105,1,onethree,,,,,,,,,,,,,,,,,,,,,,,,,,,,,,,,,,,,,,,,,,,,,,,,,,,,,,,,,,,,,,,,,,,,,,,,,,,,,,,,,,,,,,,,,,,,,,,,,,,,,,,,,,,,,,,,,,,,,,,,,,,,,,,,,,,,,,,,,,,,,,,,,,,,,,,,,,,,,
,,,,,,5f492ff7da9c144461f399f5,62c5399b303bf8e23fd01cba,2022-07-06_09h28.50.943,Colour_Asymmetry_Pilot,2022.1.3,Win32,59.77286312,62c50e9c1127f2cd403a315f,0,143,143,58,1,twoone,,,,,,,,,,,,,,,,,,,,,,,,,,,,,,,,,,,,,,,,,,,,,,,,,,,,,,,,,,,,,,,,,,,,,,,,,,,,,,,,,,,,,,,,,,,,,,,,,,,,,,,,,,,,,,,,,,,,,,,,,,,,,,,,,,,,,,,,,,,,,,,,,,,,,,,,,,,,,
,,,,,,5f492ff7da9c144461f399f5,62c5399b303bf8e23fd01cba,2022-07-06_09h28.50.943,Colour_Asymmetry_Pilot,2022.1.3,Win32,59.77286312,62c50e9c1127f2cd403a315f,0,144,144,94,1,fourtwo,,,,,,,,,,,,,,,,,,,,,,,,,,,,,,,,,,,,,,,,,,,,,,,,,,,,,,,,,,,,,,,,,,,,,,,,,,,,,,,,,,,,,,,,,,,,,,,,,,,,,,,,,,,,,,,,,,,,,,,,,,,,,,,,,,,,,,,,,,,,,,,,,,,,,,,,,,,,,
,,,,,,5f492ff7da9c144461f399f5,62c5399b303bf8e23fd01cba,2022-07-06_09h28.50.943,Colour_Asymmetry_Pilot,2022.1.3,Win32,59.77286312,62c50e9c1127f2cd403a315f,0,145,145,124,1,threeone,,,,,,,,,,,,,,,,,,,,,,,,,,,,,,,,,,,,,,,,,,,,,,,,,,,,,,,,,,,,,,,,,,,,,,,,,,,,,,,,,,,,,,,,,,,,,,,,,,,,,,,,,,,,,,,,,,,,,,,,,,,,,,,,,,,,,,,,,,,,,,,,,,,,,,,,,,,,,
,,,,,,5f492ff7da9c144461f399f5,62c5399b303bf8e23fd01cba,2022-07-06_09h28.50.943,Colour_Asymmetry_Pilot,2022.1.3,Win32,59.77286312,62c50e9c1127f2cd403a315f,0,146,146,28,1,threeone,,,,,,,,,,,,,,,,,,,,,,,,,,,,,,,,,,,,,,,,,,,,,,,,,,,,,,,,,,,,,,,,,,,,,,,,,,,,,,,,,,,,,,,,,,,,,,,,,,,,,,,,,,,,,,,,,,,,,,,,,,,,,,,,,,,,,,,,,,,,,,,,,,,,,,,,,,,,,
,,,,,,5f492ff7da9c144461f399f5,62c5399b303bf8e23fd01cba,2022-07-06_09h28.50.943,Colour_Asymmetry_Pilot,2022.1.3,Win32,59.77286312,62c50e9c1127f2cd403a315f,0,147,147,81,1,onethree,,,,,,,,,,,,,,,,,,,,,,,,,,,,,,,,,,,,,,,,,,,,,,,,,,,,,,,,,,,,,,,,,,,,,,,,,,,,,,,,,,,,,,,,,,,,,,,,,,,,,,,,,,,,,,,,,,,,,,,,,,,,,,,,,,,,,,,,,,,,,,,,,,,,,,,,,,,,,
,,,,,,5f492ff7da9c144461f399f5,62c5399b303bf8e23fd01cba,2022-07-06_09h28.50.943,Colour_Asymmetry_Pilot,2022.1.3,Win32,59.77286312,62c50e9c1127f2cd403a315f,0,148,148,98,1,twoone,,,,,,,,,,,,,,,,,,,,,,,,,,,,,,,,,,,,,,,,,,,,,,,,,,,,,,,,,,,,,,,,,,,,,,,,,,,,,,,,,,,,,,,,,,,,,,,,,,,,,,,,,,,,,,,,,,,,,,,,,,,,,,,,,,,,,,,,,,,,,,,,,,,,,,,,,,,,,
,,,,,,5f492ff7da9c144461f399f5,62c5399b303bf8e23fd01cba,2022-07-06_09h28.50.943,Colour_Asymmetry_Pilot,2022.1.3,Win32,59.77286312,62c50e9c1127f2cd403a315f,0,149,149,89,1,onethree,,,,,,,,,,,,,,,,,,,,,,,,,,,,,,,,,,,,,,,,,,,,,,,,,,,,,,,,,,,,,,,,,,,,,,,,,,,,,,,,,,,,,,,,,,,,,,,,,,,,,,,,,,,,,,,,,,,,,,,,,,,,,,,,,,,,,,,,,,,,,,,,,,,,,,,,,,,,,
,,,,,,5f492ff7da9c144461f399f5,62c5399b303bf8e23fd01cba,2022-07-06_09h28.50.943,Colour_Asymmetry_Pilot,2022.1.3,Win32,59.77286312,62c50e9c1127f2cd403a315f,0,150,150,160,1,onetwo,,,,,,,,,,,,,,,,,,,,,,,,,,,,,,,,,,,,,,,,,,,,,,,,,,,,,,,,,,,,,,,,,,,,,,,,,,,,,,,,,,,,,,,,,,,,,,,,,,,,,,,,,,,,,,,,,,,,,,,,,,,,,,,,,,,,,,,,,,,,,,,,,,,,,,,,,,,,,
,,,,,,5f492ff7da9c144461f399f5,62c5399b303bf8e23fd01cba,2022-07-06_09h28.50.943,Colour_Asymmetry_Pilot,2022.1.3,Win32,59.77286312,62c50e9c1127f2cd403a315f,0,151,151,47,1,fourthree,,,,,,,,,,,,,,,,,,,,,,,,,,,,,,,,,,,,,,,,,,,,,,,,,,,,,,,,,,,,,,,,,,,,,,,,,,,,,,,,,,,,,,,,,,,,,,,,,,,,,,,,,,,,,,,,,,,,,,,,,,,,,,,,,,,,,,,,,,,,,,,,,,,,,,,,,,,,,
,,,,,,5f492ff7da9c144461f399f5,62c5399b303bf8e23fd01cba,2022-07-06_09h28.50.943,Colour_Asymmetry_Pilot,2022.1.3,Win32,59.77286312,62c50e9c1127f2cd403a315f,0,152,152,6,1,fourtwo,,,,,,,,,,,,,,,,,,,,,,,,,,,,,,,,,,,,,,,,,,,,,,,,,,,,,,,,,,,,,,,,,,,,,,,,,,,,,,,,,,,,,,,,,,,,,,,,,,,,,,,,,,,,,,,,,,,,,,,,,,,,,,,,,,,,,,,,,,,,,,,,,,,,,,,,,,,,,
,,,,,,5f492ff7da9c144461f399f5,62c5399b303bf8e23fd01cba,2022-07-06_09h28.50.943,Colour_Asymmetry_Pilot,2022.1.3,Win32,59.77286312,62c50e9c1127f2cd403a315f,0,153,153,127,1,fourthree,,,,,,,,,,,,,,,,,,,,,,,,,,,,,,,,,,,,,,,,,,,,,,,,,,,,,,,,,,,,,,,,,,,,,,,,,,,,,,,,,,,,,,,,,,,,,,,,,,,,,,,,,,,,,,,,,,,,,,,,,,,,,,,,,,,,,,,,,,,,,,,,,,,,,,,,,,,,,
,,,,,,5f492ff7da9c144461f399f5,62c5399b303bf8e23fd01cba,2022-07-06_09h28.50.943,Colour_Asymmetry_Pilot,2022.1.3,Win32,59.77286312,62c50e9c1127f2cd403a315f,0,154,154,38,1,fourtwo,,,,,,,,,,,,,,,,,,,,,,,,,,,,,,,,,,,,,,,,,,,,,,,,,,,,,,,,,,,,,,,,,,,,,,,,,,,,,,,,,,,,,,,,,,,,,,,,,,,,,,,,,,,,,,,,,,,,,,,,,,,,,,,,,,,,,,,,,,,,,,,,,,,,,,,,,,,,,
,,,,,,5f492ff7da9c144461f399f5,62c5399b303bf8e23fd01cba,2022-07-06_09h28.50.943,Colour_Asymmetry_Pilot,2022.1.3,Win32,59.77286312,62c50e9c1127f2cd403a315f,0,155,155,77,1,threefour,,,,,,,,,,,,,,,,,,,,,,,,,,,,,,,,,,,,,,,,,,,,,,,,,,,,,,,,,,,,,,,,,,,,,,,,,,,,,,,,,,,,,,,,,,,,,,,,,,,,,,,,,,,,,,,,,,,,,,,,,,,,,,,,,,,,,,,,,,,,,,,,,,,,,,,,,,,,,
,,,,,,5f492ff7da9c144461f399f5,62c5399b303bf8e23fd01cba,2022-07-06_09h28.50.943,Colour_Asymmetry_Pilot,2022.1.3,Win32,59.77286312,62c50e9c1127f2cd403a315f,0,156,156,27,1,twofour,,,,,,,,,,,,,,,,,,,,,,,,,,,,,,,,,,,,,,,,,,,,,,,,,,,,,,,,,,,,,,,,,,,,,,,,,,,,,,,,,,,,,,,,,,,,,,,,,,,,,,,,,,,,,,,,,,,,,,,,,,,,,,,,,,,,,,,,,,,,,,,,,,,,,,,,,,,,,
,,,,,,5f492ff7da9c144461f399f5,62c5399b303bf8e23fd01cba,2022-07-06_09h28.50.943,Colour_Asymmetry_Pilot,2022.1.3,Win32,59.77286312,62c50e9c1127f2cd403a315f,0,157,157,112,1,onetwo,,,,,,,,,,,,,,,,,,,,,,,,,,,,,,,,,,,,,,,,,,,,,,,,,,,,,,,,,,,,,,,,,,,,,,,,,,,,,,,,,,,,,,,,,,,,,,,,,,,,,,,,,,,,,,,,,,,,,,,,,,,,,,,,,,,,,,,,,,,,,,,,,,,,,,,,,,,,,
,,,,,,5f492ff7da9c144461f399f5,62c5399b303bf8e23fd01cba,2022-07-06_09h28.50.943,Colour_Asymmetry_Pilot,2022.1.3,Win32,59.77286312,62c50e9c1127f2cd403a315f,0,158,158,56,1,onetwo,,,,,,,,,,,,,,,,,,,,,,,,,,,,,,,,,,,,,,,,,,,,,,,,,,,,,,,,,,,,,,,,,,,,,,,,,,,,,,,,,,,,,,,,,,,,,,,,,,,,,,,,,,,,,,,,,,,,,,,,,,,,,,,,,,,,,,,,,,,,,,,,,,,,,,,,,,,,,
,,,,,,5f492ff7da9c144461f399f5,62c5399b303bf8e23fd01cba,2022-07-06_09h28.50.943,Colour_Asymmetry_Pilot,2022.1.3,Win32,59.77286312,62c50e9c1127f2cd403a315f,0,159,159,156,1,threeone,,,,,,,,,,,,,,,,,,,,,,,,,,,,,,,,,,,,,,,,,,,,,,,,,,,,,,,,,,,,,,,,,,,,,,,,,,,,,,,,,,,,,,,,,,,,,,,,,,,,,,,,,,,,,,,,,,,,,,,,,,,,,,,,,,,,,,,,,,,,,,,,,,,,,,,,,,,,,
,,,,,,5f492ff7da9c144461f399f5,62c5399b303bf8e23fd01cba,2022-07-06_09h28.50.943,Colour_Asymmetry_Pilot,2022.1.3,Win32,59.77286312,62c50e9c1127f2cd403a315f,0,160,160,31,1,fourthree,,,,,,,,,,,,,,,,,,,,,,,,,,,,,,,,,,,,,,,,,,,,,,,,,,,,,,,,,,,,,,,,,,,,,,,,,,,,,,,,,,,,,,,,,,,,,,,,,,,,,,,,,,,,,,,,,,,,,,,,,,,,,,,,,,,,,,,,,,,,,,,,,,,,,,,,,,,,,
,,,,,,5f492ff7da9c144461f399f5,62c5399b303bf8e23fd01cba,2022-07-06_09h28.50.943,Colour_Asymmetry_Pilot,2022.1.3,Win32,59.77286312,62c50e9c1127f2cd403a315f,0,161,161,119,1,fourthree,,,,,,,,,,,,,,,,,,,,,,,,,,,,,,,,,,,,,,,,,,,,,,,,,,,,,,,,,,,,,,,,,,,,,,,,,,,,,,,,,,,,,,,,,,,,,,,,,,,,,,,,,,,,,,,,,,,,,,,,,,,,,,,,,,,,,,,,,,,,,,,,,,,,,,,,,,,,,
,,,,,,5f492ff7da9c144461f399f5,62c5399b303bf8e23fd01cba,2022-07-06_09h28.50.943,Colour_Asymmetry_Pilot,2022.1.3,Win32,59.77286312,62c50e9c1127f2cd403a315f,,,,,,,space,8.4112,space,9.2185,space,23.8914,space,13.8769,space,3.881,space,3.7837,"[-0.30200000000000005,0.14500000000000002,0.2784]",onethree,"[0.37240000000000006,0.4980000000000002,-0.2864]",-4,4.6015,-54.39996338,86.3999939,1,0,0,response7disk_5,6.400024414,2.399993896,1,0,0,rectangle_8,6.400024414,2.399993896,1,0,0,2,6.400024414,2.399993896,1,0,0,0,0,0,0,1,,,,,,,,,,,,,,,,,,,,,,,,,,,,,,,,,,,,,,,,,,,,,,,,,,,,,,,,,,,,,,,,,,,,,,,,,,,,,,,,,,,,,,,,,,,,,,,,,,,,,,,,,,,,,,,,
,,,,,,5f492ff7da9c144461f399f5,62c5399b303bf8e23fd01cba,2022-07-06_09h28.50.943,Colour_Asymmetry_Pilot,2022.1.3,Win32,59.77286312,62c50e9c1127f2cd403a315f,,,,,,,,,,,,,,,,,,,"[0.9372,0.20779999999999998,0.2704]",threefour,"[-0.8198,-0.5138,-0.7492000000000001]",-4,1.5586,-64.79998779,81.6000061,1,0,0,response7disk_5,-1.599975586,-4,1,0,0,rectangle_8,-1.599975586,-4,1,0,0,2,-1.599975586,-4,1,0,0,1,0,1,0,1,,,,,,,,,,,,,,,,,,,,,,,,,,,,,,,,,,,,,,,,,,,,,,,,,,,,,,,,,,,,,,,,,,,,,,,,,,,,,,,,,,,,,,,,,,,,,,,,,,,,,,,,,,,,,,,,
,,,,,,5f492ff7da9c144461f399f5,62c5399b303bf8e23fd01cba,2022-07-06_09h28.50.943,Colour_Asymmetry_Pilot,2022.1.3,Win32,59.77286312,62c50e9c1127f2cd403a315f,,,,,,,,,,,,,,,,,,,"[-0.26280000000000003,-0.2158,-0.3256]",twoone,"[-0.45899999999999996,-0.3256,-0.9374]",3,4.4811,112.7999878,42.3999939,1,0,0,response1disk_5,5.600036621,3.199981689,1,0,0,rectangle_8,5.600036621,3.199981689,1,0,0,2,5.600036621,3.199981689,1,0,0,2,0,2,0,1,,,,,,,,,,,,,,,,,,,,,,,,,,,,,,,,,,,,,,,,,,,,,,,,,,,,,,,,,,,,,,,,,,,,,,,,,,,,,,,,,,,,,,,,,,,,,,,,,,,,,,,,,,,,,,,,
,,,,,,5f492ff7da9c144461f399f5,62c5399b303bf8e23fd01cba,2022-07-06_09h28.50.943,Colour_Asymmetry_Pilot,2022.1.3,Win32,59.77286312,62c50e9c1127f2cd403a315f,,,,,,,,,,,,,,,,,,,"[-0.01980000000000004,-0.5138,-0.38039999999999996]",threeone,"[0.22340000000000004,-0.9296,-0.7884]",2,1.4841,116.7999878,-43.20001221,1,0,0,response3disk_5,-0.799987793,-4,1,0,0,rectangle_8,-0.799987793,-4,1,0,0,2,-0.799987793,-4,1,0,0,3,0,3,0,1,,,,,,,,,,,,,,,,,,,,,,,,,,,,,,,,,,,,,,,,,,,,,,,,,,,,,,,,,,,,,,,,,,,,,,,,,,,,,,,,,,,,,,,,,,,,,,,,,,,,,,,,,,,,,,,,
,,,,,,5f492ff7da9c144461f399f5,62c5399b303bf8e23fd01cba,2022-07-06_09h28.50.943,Colour_Asymmetry_Pilot,2022.1.3,Win32,59.77286312,62c50e9c1127f2cd403a315f,,,,,,,,,,,,,,,,,,,"[0.9686000000000001,0.3802000000000001,0.19999999999999996]",threefour,"[-0.4746,-0.0354000000000001,0.5449999999999999]",-4,1.2156,-60,107.1999817,1,0,0,response7disk_5,3.200012207,-10.3999939,1,0,0,rectangle_8,97.60003662,-44.80001831,1,0,0,2,-9.599975586,3.199981689,1,0,0,4,0,4,0,1,response3disk_7,5,rectangle_4,,,,,,,,,,,,,,,,,,,,,,,,,,,,,,,,,,,,,,,,,,,,,,,,,,,,,,,,,,,,,,,,,,,,,,,,,,,,,,,,,,,,,,,,,,,,,,,,,,,,,,,,,,,,,
,,,,,,5f492ff7da9c144461f399f5,62c5399b303bf8e23fd01cba,2022-07-06_09h28.50.943,Colour_Asymmetry_Pilot,2022.1.3,Win32,59.77286312,62c50e9c1127f2cd403a315f,,,,,,,,,,,,,,,,,,,"[-0.24719999999999998,-0.0354000000000001,0.3175999999999999]",twofour,"[0.22340000000000004,-0.9296,-0.7884]",-4,1.0412,-68.79998779,85.6000061,1,0,0,response7disk_5,-0.799987793,-4.800018311,1,0,0,rectangle_8,102.4000244,-68,1,0,0,2,18.40002441,-5.600006104,1,0,0,5,0,5,0,1,response3disk_7,5,rectangle_4,,,,,,,,,,,,,,,,,,,,,,,,,,,,,,,,,,,,,,,,,,,,,,,,,,,,,,,,,,,,,,,,,,,,,,,,,,,,,,,,,,,,,,,,,,,,,,,,,,,,,,,,,,,,,
,,,,,,5f492ff7da9c144461f399f5,62c5399b303bf8e23fd01cba,2022-07-06_09h28.50.943,Colour_Asymmetry_Pilot,2022.1.3,Win32,59.77286312,62c50e9c1127f2cd403a315f,,,,,,,,,,,,,,,,,,,"[-0.9766,-0.6472,0.07440000000000002]",fourthree,"[0.5449999999999999,-0.31000000000000005,-0.0354000000000001]",-4,2.0157,-56.79998779,84.79998779,1,0,0,response7disk_5,14.40002441,-4,1,0,0,rectangle_8,14.40002441,-4,1,0,0,2,14.40002441,-4,1,0,0,6,0,6,0,1,,,,,,,,,,,,,,,,,,,,,,,,,,,,,,,,,,,,,,,,,,,,,,,,,,,,,,,,,,,,,,,,,,,,,,,,,,,,,,,,,,,,,,,,,,,,,,,,,,,,,,,,,,,,,,,,
,,,,,,5f492ff7da9c144461f399f5,62c5399b303bf8e23fd01cba,2022-07-06_09h28.50.943,Colour_Asymmetry_Pilot,2022.1.3,Win32,59.77286312,62c50e9c1127f2cd403a315f,,,,,,,,,,,,,,,,,,,,threefour,,-4,1.0827,,,,,,,,,,,,,,,,,,,,,,,,,,,,,,,,space,3.1473,"[0.796,0.2156,-0.27859999999999996]","[0.19199999999999995,0.18419999999999992,0.5136000000000001]",-35.20001221,96.79998779,1,0,0,response7disk,2.400024414,-0.800018311,1,0,0,rectangle,2.400024414,-0.800018311,1,0,0,,3,0.0048,0,2.400024414,-0.800018311,1,0,0,0,0,0,17,1,17,first,,,,,,,,,,,,,,,,,,,,,,,,,,,,,,,,,,,,,,,,,,,,,,,,,,,,,,,,,,,,,,,,,,,,,,,,
,,,,,,5f492ff7da9c144461f399f5,62c5399b303bf8e23fd01cba,2022-07-06_09h28.50.943,Colour_Asymmetry_Pilot,2022.1.3,Win32,59.77286312,62c50e9c1127f2cd403a315f,,,,,,,,,,,,,,,,,,,,fourthree,,-4,0.3335,,,,,,,,,,,,,,,,,,,,,,,,,,,,,,,,,,"[-0.38039999999999996,-0.4276,-0.1452]","[0.5528,0.7409999999999999,-0.71]",-71.20001221,80,1,0,0,response7disk,-7.200012207,-12,1,0,0,rectangle,84,-59.20001221,1,0,0,2,2,2.1973,1,8.799987793,-0.800018311,1,0,0,0,1,1,159,1,78,second,response3disk_3,rectangle,,,,,,,,,,,,,,,,,,,,,,,,,,,,,,,,,,,,,,,,,,,,,,,,,,,,,,,,,,,,,,,,,,,,,,
,,,,,,5f492ff7da9c144461f399f5,62c5399b303bf8e23fd01cba,2022-07-06_09h28.50.943,Colour_Asymmetry_Pilot,2022.1.3,Win32,59.77286312,62c50e9c1127f2cd403a315f,,,,,,,,,,,,,,,,,,,,twoone,,4,1.565,,,,,,,,,,,,,,,,,,,,,,,,,,,,,,,,,,"[-0.5452,-0.608,0.2470000000000001]","[-0.9766,-0.6472,0.07440000000000002]",56,120,1,0,0,response1disk,-2.399963379,-10.3999939,1,0,0,rectangle,-2.399963379,-10.3999939,1,0,0,2,1,0.0035,0,-2.399963379,-10.3999939,1,0,0,0,2,2,101,1,20,second,,,,,,,,,,,,,,,,,,,,,,,,,,,,,,,,,,,,,,,,,,,,,,,,,,,,,,,,,,,,,,,,,,,,,,,,
,,,,,,5f492ff7da9c144461f399f5,62c5399b303bf8e23fd01cba,2022-07-06_09h28.50.943,Colour_Asymmetry_Pilot,2022.1.3,Win32,59.77286312,62c50e9c1127f2cd403a315f,,,,,,,,,,,,,,,,,,,,threefour,,-3,0.7986,,,,,,,,,,,,,,,,,,,,,,,,,,,,,,,,,,"[-0.38039999999999996,-0.4276,-0.1452]","[-0.24719999999999998,0.5213999999999999,-0.12959999999999994]",-102.3999634,56.79998779,1,0,0,response7disk,17.60003662,-9.600006104,1,0,0,rectangle,17.60003662,-9.600006104,1,0,0,2,2,0.0033,0,17.60003662,-9.600006104,1,0,0,0,3,3,84,1,3,second,,,,,,,,,,,,,,,,,,,,,,,,,,,,,,,,,,,,,,,,,,,,,,,,,,,,,,,,,,,,,,,,,,,,,,,,
,,,,,,5f492ff7da9c144461f399f5,62c5399b303bf8e23fd01cba,2022-07-06_09h28.50.943,Colour_Asymmetry_Pilot,2022.1.3,Win32,59.77286312,62c50e9c1127f2cd403a315f,,,,,,,,,,,,,,,,,,,,twoone,,2,0.8154,,,,,,,,,,,,,,,,,,,,,,,,,,,,,,,,,,"[-0.01980000000000004,-0.5138,-0.38039999999999996]","[0.9763999999999999,-0.1137999999999999,-0.6314]",80,-52.80001831,1,0,0,response3disk,5.600036621,3.199981689,1,0,0,rectangle,5.600036621,3.199981689,1,0,0,2,1,0.0037,0,5.600036621,3.199981689,1,0,0,0,4,4,6,1,6,first,,,,,,,,,,,,,,,,,,,,,,,,,,,,,,,,,,,,,,,,,,,,,,,,,,,,,,,,,,,,,,,,,,,,,,,,
,,,,,,5f492ff7da9c144461f399f5,62c5399b303bf8e23fd01cba,2022-07-06_09h28.50.943,Colour_Asymmetry_Pilot,2022.1.3,Win32,59.77286312,62c50e9c1127f2cd403a315f,,,,,,,,,,,,,,,,,,,,threeone,,4,0.5188,,,,,,,,,,,,,,,,,,,,,,,,,,,,,,,,,,"[0.9763999999999999,-0.1137999999999999,-0.6314]","[1,0.12939999999999996,-1]",42.40002441,87.19998169,1,0,0,response1disk,-16.79998779,-12,1,0,0,rectangle,-16.79998779,-12,1,0,0,2,1,0.0007,0,-16.79998779,-12,1,0,0,0,5,5,41,1,41,first,,,,,,,,,,,,,,,,,,,,,,,,,,,,,,,,,,,,,,,,,,,,,,,,,,,,,,,,,,,,,,,,,,,,,,,,
,,,,,,5f492ff7da9c144461f399f5,62c5399b303bf8e23fd01cba,2022-07-06_09h28.50.943,Colour_Asymmetry_Pilot,2022.1.3,Win32,59.77286312,62c50e9c1127f2cd403a315f,,,,,,,,,,,,,,,,,,,,onethree,,2,1.2835,,,,,,,,,,,,,,,,,,,,,,,,,,,,,,,,,,"[0.12939999999999996,-0.2864,0.3253999999999999]","[-0.24719999999999998,-0.0354000000000001,0.3175999999999999]",68.79998779,-48,1,0,0,response3disk,-12,-8.800018311,1,0,0,rectangle,-12,-8.800018311,1,0,0,2,1,0.0005,0,-12,-8.800018311,1,0,0,0,6,6,139,1,58,second,,,,,,,,,,,,,,,,,,,,,,,,,,,,,,,,,,,,,,,,,,,,,,,,,,,,,,,,,,,,,,,,,,,,,,,,
,,,,,,5f492ff7da9c144461f399f5,62c5399b303bf8e23fd01cba,2022-07-06_09h28.50.943,Colour_Asymmetry_Pilot,2022.1.3,Win32,59.77286312,62c50e9c1127f2cd403a315f,,,,,,,,,,,,,,,,,,,,twofour,,-1,3.9332,,,,,,,,,,,,,,,,,,,,,,,,,,,,,,,,,,"[-0.5688,-0.08239999999999992,-0.1844]","[0.4196,0.4665999999999999,0.3568]",-33.59997559,-85.60003662,1,0,0,response5disk,-0.799987793,1.600006104,1,0,0,rectangle,-0.799987793,1.600006104,1,0,0,2,1,0.0009,0,-0.799987793,1.600006104,1,0,0,0,7,7,125,1,44,second,,,,,,,,,,,,,,,,,,,,,,,,,,,,,,,,,,,,,,,,,,,,,,,,,,,,,,,,,,,,,,,,,,,,,,,,
,,,,,,5f492ff7da9c144461f399f5,62c5399b303bf8e23fd01cba,2022-07-06_09h28.50.943,Colour_Asymmetry_Pilot,2022.1.3,Win32,59.77286312,62c50e9c1127f2cd403a315f,,,,,,,,,,,,,,,,,,,,fourthree,,-4,0.5663,,,,,,,,,,,,,,,,,,,,,,,,,,,,,,,,,,"[-0.10599999999999998,-0.15300000000000002,0.15280000000000005]","[-0.6706000000000001,-0.6157999999999999,-0.6786]",-52,104.7999878,1,0,0,response7disk,9.600036621,-1.600006104,1,0,0,rectangle,9.600036621,-1.600006104,1,0,0,2,2,0.0039,0,9.600036621,-1.600006104,1,0,0,0,8,8,37,1,37,first,,,,,,,,,,,,,,,,,,,,,,,,,,,,,,,,,,,,,,,,,,,,,,,,,,,,,,,,,,,,,,,,,,,,,,,,
,,,,,,5f492ff7da9c144461f399f5,62c5399b303bf8e23fd01cba,2022-07-06_09h28.50.943,Colour_Asymmetry_Pilot,2022.1.3,Win32,59.77286312,62c50e9c1127f2cd403a315f,,,,,,,,,,,,,,,,,,,,fourtwo,,-4,0.5296,,,,,,,,,,,,,,,,,,,,,,,,,,,,,,,,,,"[-0.8982,-0.37259999999999993,0.2784]","[0.4196,0.4665999999999999,0.3568]",-39.20001221,72.79998779,1,0,0,response7disk,-4.799987793,0,1,0,0,rectangle,-4.799987793,0,1,0,0,2,2,0.001,0,-4.799987793,0,1,0,0,0,9,9,112,1,31,second,,,,,,,,,,,,,,,,,,,,,,,,,,,,,,,,,,,,,,,,,,,,,,,,,,,,,,,,,,,,,,,,,,,,,,,,
,,,,,,5f492ff7da9c144461f399f5,62c5399b303bf8e23fd01cba,2022-07-06_09h28.50.943,Colour_Asymmetry_Pilot,2022.1.3,Win32,59.77286312,62c50e9c1127f2cd403a315f,,,,,,,,,,,,,,,,,,,,onetwo,,-4,0.8497,,,,,,,,,,,,,,,,,,,,,,,,,,,,,,,,,,"[-0.4982,-0.2942,-0.0354000000000001]","[0.796,0.2156,-0.27859999999999996]",-55.20001221,95.19998169,1,0,0,response7disk,3.200012207,0,1,0,0,rectangle,3.200012207,0,1,0,0,2,3,0.001,0,3.200012207,0,1,0,0,0,10,10,19,1,19,first,,,,,,,,,,,,,,,,,,,,,,,,,,,,,,,,,,,,,,,,,,,,,,,,,,,,,,,,,,,,,,,,,,,,,,,,
,,,,,,5f492ff7da9c144461f399f5,62c5399b303bf8e23fd01cba,2022-07-06_09h28.50.943,Colour_Asymmetry_Pilot,2022.1.3,Win32,59.77286312,62c50e9c1127f2cd403a315f,,,,,,,,,,,,,,,,,,,,fourtwo,,2,0.9579,,,,,,,,,,,,,,,,,,,,,,,,,,,,,,,,,,"[0.3881999999999999,-0.23939999999999995,-0.05040000000000011]","[-0.10599999999999998,-0.15300000000000002,0.15280000000000005]",100.7999878,-48.80001831,1,0,0,response3disk,-11.20001221,0.799987793,1,0,0,rectangle,-11.20001221,0.799987793,1,0,0,2,1,0.0029,0,-11.20001221,0.799987793,1,0,0,0,11,11,107,1,26,second,,,,,,,,,,,,,,,,,,,,,,,,,,,,,,,,,,,,,,,,,,,,,,,,,,,,,,,,,,,,,,,,,,,,,,,,
,,,,,,5f492ff7da9c144461f399f5,62c5399b303bf8e23fd01cba,2022-07-06_09h28.50.943,Colour_Asymmetry_Pilot,2022.1.3,Win32,59.77286312,62c50e9c1127f2cd403a315f,,,,,,,,,,,,,,,,,,,,fourtwo,,-2,0.8586,,,,,,,,,,,,,,,,,,,,,,,,,,,,,,,,,,"[-0.26280000000000003,-0.4746,-0.2158]","[-0.17659999999999998,-0.2864,-0.8354]",-80.79998779,-23.20001221,1,0,0,response5disk,-4.799987793,14.3999939,1,0,0,rectangle,-4.799987793,14.3999939,1,0,0,2,3,0.0032,0,-4.799987793,14.3999939,1,0,0,0,12,12,149,1,68,second,,,,,,,,,,,,,,,,,,,,,,,,,,,,,,,,,,,,,,,,,,,,,,,,,,,,,,,,,,,,,,,,,,,,,,,,
,,,,,,5f492ff7da9c144461f399f5,62c5399b303bf8e23fd01cba,2022-07-06_09h28.50.943,Colour_Asymmetry_Pilot,2022.1.3,Win32,59.77286312,62c50e9c1127f2cd403a315f,,,,,,,,,,,,,,,,,,,,onetwo,,-3,0.8573,,,,,,,,,,,,,,,,,,,,,,,,,,,,,,,,,,"[0.7646000000000002,0.07440000000000002,0.2704]","[0.11359999999999992,0.6312,0.5213999999999999]",-90.39996338,39.19998169,1,0,0,response7disk,14.40002441,3.199981689,1,0,0,rectangle,14.40002441,3.199981689,1,0,0,2,1,0.0031,0,14.40002441,3.199981689,1,0,0,0,13,13,66,1,66,first,,,,,,,,,,,,,,,,,,,,,,,,,,,,,,,,,,,,,,,,,,,,,,,,,,,,,,,,,,,,,,,,,,,,,,,,
,,,,,,5f492ff7da9c144461f399f5,62c5399b303bf8e23fd01cba,2022-07-06_09h28.50.943,Colour_Asymmetry_Pilot,2022.1.3,Win32,59.77286312,62c50e9c1127f2cd403a315f,,,,,,,,,,,,,,,,,,,,threeone,,4,0.4748,,,,,,,,,,,,,,,,,,,,,,,,,,,,,,,,,,"[-0.9766,-0.6472,0.07440000000000002]","[-0.5452,-0.608,0.2470000000000001]",51.20001221,88,1,0,0,response1disk,14.40002441,1.600006104,1,0,0,rectangle,14.40002441,1.600006104,1,0,0,2,1,0.0009,0,14.40002441,1.600006104,1,0,0,0,14,14,20,1,20,first,,,,,,,,,,,,,,,,,,,,,,,,,,,,,,,,,,,,,,,,,,,,,,,,,,,,,,,,,,,,,,,,,,,,,,,,
