trials.thisRepN,trials.thisTrialN,trials.thisN,trials.thisIndex,trials.ran,Colourcodes,participant,session,date,expName,psychopyVersion,OS,frameRate,study_id,trials_4.thisRepN,trials_4.thisTrialN,trials_4.thisN,trials_4.thisIndex,trials_4.ran,StimulusPos,key_resp.keys,key_resp.rt,key_resp_2.keys,key_resp_2.rt,key_resp_15.keys,key_resp_15.rt,key_resp_17.keys,key_resp_17.rt,key_resp_9.keys,key_resp_9.rt,key_resp_10.keys,key_resp_10.rt,Circle1_col,Ecc,Circle2_col,similarity,response_time,mouse_5.x,mouse_5.y,mouse_5.leftButton,mouse_5.midButton,mouse_5.rightButton,mouse_5.clicked_name,mouse_10.x,mouse_10.y,mouse_10.leftButton,mouse_10.midButton,mouse_10.rightButton,mouse_10.clicked_name,mouse_7.x,mouse_7.y,mouse_7.leftButton,mouse_7.midButton,mouse_7.rightButton,catchnumberprac,mouse_6.x,mouse_6.y,mouse_6.leftButton,mouse_6.midButton,mouse_6.rightButton,duringprac.thisRepN,duringprac.thisTrialN,duringprac.thisN,duringprac.thisIndex,duringprac.ran,mouse_7.clicked_name,catchprac,mouse_6.clicked_name,key_resp_22.keys,key_resp_22.rt,Circle1_colour,Circle2_colour,mouse.x,mouse.y,mouse.leftButton,mouse.midButton,mouse.rightButton,mouse.clicked_name,mouse_2.x,mouse_2.y,mouse_2.leftButton,mouse_2.midButton,mouse_2.rightButton,mouse_2.clicked_name,mouse_3.x,mouse_3.y,mouse_3.leftButton,mouse_3.midButton,mouse_3.rightButton,catchresponse,catchnumber,response_time_catch,Catch,mouse_11.x,mouse_11.y,mouse_11.leftButton,mouse_11.midButton,mouse_11.rightButton,trials_2.thisRepN,trials_2.thisTrialN,trials_2.thisN,trials_2.thisIndex,trials_2.ran,Colourpair,Temporder,mouse_3.clicked_name,mouse_11.clicked_name,trials_3.thisRepN,trials_3.thisTrialN,trials_3.thisN,trials_3.thisIndex,trials_3.ran,key_resp_instr_Ishi.keys,key_resp_instr_Ishi.rt,Ishi_trial_keyresp.keys,Ishi_trial_keyresp.rt,Ishi_textbox.text,Ishi_mouse.x,Ishi_mouse.y,Ishi_mouse.leftButton,Ishi_mouse.midButton,Ishi_mouse.rightButton,Ishi_loop.thisRepN,Ishi_loop.thisTrialN,Ishi_loop.thisN,Ishi_loop.thisIndex,Ishi_loop.ran,imageaddress,Ishi_mouse.clicked_name,textbox.text,mouse_4.x,mouse_4.y,mouse_4.leftButton,mouse_4.midButton,mouse_4.rightButton,mouse_4.clicked_name,textbox_2.text,mouse_8.x,mouse_8.y,mouse_8.leftButton,mouse_8.midButton,mouse_8.rightButton,mouse_8.clicked_name,textbox_3.text,mouse_9.x,mouse_9.y,mouse_9.leftButton,mouse_9.midButton,mouse_9.rightButton,mouse_9.clicked_name,textbox_4.text,mouse_12.x,mouse_12.y,mouse_12.leftButton,mouse_12.midButton,mouse_12.rightButton,mouse_12.clicked_name,textbox_5.text,mouse_13.x,mouse_13.y,mouse_13.leftButton,mouse_13.midButton,mouse_13.rightButton,mouse_13.clicked_name,textbox_6.text,mouse_14.x,mouse_14.y,mouse_14.leftButton,mouse_14.midButton,mouse_14.rightButton,mouse_14.clicked_name,textbox_7.text,mouse_15.x,mouse_15.y,mouse_15.leftButton,mouse_15.midButton,mouse_15.rightButton,mouse_15.clicked_name
0,0,0,92,1,,615b2b907ab500ee5de14716,62c53a0b54d8f26fb4f3eecb,2022-07-06_09h49.10.014,Colour_Asymmetry_Pilot,2022.1.3,Win32,60.12506013,62c50e9c1127f2cd403a315f,,,,,,,,,,,,,,,,,,,,,,,,,,,,,,,,,,,,,,,,,,,,,,,,,,,,,,,,,,,,,,,,,,,,,,,,,,,,,,,,,,,,,,,,,,,,,,,,,,,,,,,,,,,,,,,,,,,,,,,,,,,,,,,,,,,,,,,,,,,,,,,,,,,,,,,,,,,,,,,,,,,,
0,1,1,67,1,,615b2b907ab500ee5de14716,62c53a0b54d8f26fb4f3eecb,2022-07-06_09h49.10.014,Colour_Asymmetry_Pilot,2022.1.3,Win32,60.12506013,62c50e9c1127f2cd403a315f,,,,,,,,,,,,,,,,,,,,,,,,,,,,,,,,,,,,,,,,,,,,,,,,,,,,,,,,,,,,,,,,,,,,,,,,,,,,,,,,,,,,,,,,,,,,,,,,,,,,,,,,,,,,,,,,,,,,,,,,,,,,,,,,,,,,,,,,,,,,,,,,,,,,,,,,,,,,,,,,,,,,
0,2,2,79,1,,615b2b907ab500ee5de14716,62c53a0b54d8f26fb4f3eecb,2022-07-06_09h49.10.014,Colour_Asymmetry_Pilot,2022.1.3,Win32,60.12506013,62c50e9c1127f2cd403a315f,,,,,,,,,,,,,,,,,,,,,,,,,,,,,,,,,,,,,,,,,,,,,,,,,,,,,,,,,,,,,,,,,,,,,,,,,,,,,,,,,,,,,,,,,,,,,,,,,,,,,,,,,,,,,,,,,,,,,,,,,,,,,,,,,,,,,,,,,,,,,,,,,,,,,,,,,,,,,,,,,,,,
0,3,3,42,1,,615b2b907ab500ee5de14716,62c53a0b54d8f26fb4f3eecb,2022-07-06_09h49.10.014,Colour_Asymmetry_Pilot,2022.1.3,Win32,60.12506013,62c50e9c1127f2cd403a315f,,,,,,,,,,,,,,,,,,,,,,,,,,,,,,,,,,,,,,,,,,,,,,,,,,,,,,,,,,,,,,,,,,,,,,,,,,,,,,,,,,,,,,,,,,,,,,,,,,,,,,,,,,,,,,,,,,,,,,,,,,,,,,,,,,,,,,,,,,,,,,,,,,,,,,,,,,,,,,,,,,,,
0,4,4,44,1,,615b2b907ab500ee5de14716,62c53a0b54d8f26fb4f3eecb,2022-07-06_09h49.10.014,Colour_Asymmetry_Pilot,2022.1.3,Win32,60.12506013,62c50e9c1127f2cd403a315f,,,,,,,,,,,,,,,,,,,,,,,,,,,,,,,,,,,,,,,,,,,,,,,,,,,,,,,,,,,,,,,,,,,,,,,,,,,,,,,,,,,,,,,,,,,,,,,,,,,,,,,,,,,,,,,,,,,,,,,,,,,,,,,,,,,,,,,,,,,,,,,,,,,,,,,,,,,,,,,,,,,,
0,5,5,18,1,,615b2b907ab500ee5de14716,62c53a0b54d8f26fb4f3eecb,2022-07-06_09h49.10.014,Colour_Asymmetry_Pilot,2022.1.3,Win32,60.12506013,62c50e9c1127f2cd403a315f,,,,,,,,,,,,,,,,,,,,,,,,,,,,,,,,,,,,,,,,,,,,,,,,,,,,,,,,,,,,,,,,,,,,,,,,,,,,,,,,,,,,,,,,,,,,,,,,,,,,,,,,,,,,,,,,,,,,,,,,,,,,,,,,,,,,,,,,,,,,,,,,,,,,,,,,,,,,,,,,,,,,
0,6,6,28,1,,615b2b907ab500ee5de14716,62c53a0b54d8f26fb4f3eecb,2022-07-06_09h49.10.014,Colour_Asymmetry_Pilot,2022.1.3,Win32,60.12506013,62c50e9c1127f2cd403a315f,,,,,,,,,,,,,,,,,,,,,,,,,,,,,,,,,,,,,,,,,,,,,,,,,,,,,,,,,,,,,,,,,,,,,,,,,,,,,,,,,,,,,,,,,,,,,,,,,,,,,,,,,,,,,,,,,,,,,,,,,,,,,,,,,,,,,,,,,,,,,,,,,,,,,,,,,,,,,,,,,,,,
0,7,7,78,1,,615b2b907ab500ee5de14716,62c53a0b54d8f26fb4f3eecb,2022-07-06_09h49.10.014,Colour_Asymmetry_Pilot,2022.1.3,Win32,60.12506013,62c50e9c1127f2cd403a315f,,,,,,,,,,,,,,,,,,,,,,,,,,,,,,,,,,,,,,,,,,,,,,,,,,,,,,,,,,,,,,,,,,,,,,,,,,,,,,,,,,,,,,,,,,,,,,,,,,,,,,,,,,,,,,,,,,,,,,,,,,,,,,,,,,,,,,,,,,,,,,,,,,,,,,,,,,,,,,,,,,,,
0,8,8,53,1,,615b2b907ab500ee5de14716,62c53a0b54d8f26fb4f3eecb,2022-07-06_09h49.10.014,Colour_Asymmetry_Pilot,2022.1.3,Win32,60.12506013,62c50e9c1127f2cd403a315f,,,,,,,,,,,,,,,,,,,,,,,,,,,,,,,,,,,,,,,,,,,,,,,,,,,,,,,,,,,,,,,,,,,,,,,,,,,,,,,,,,,,,,,,,,,,,,,,,,,,,,,,,,,,,,,,,,,,,,,,,,,,,,,,,,,,,,,,,,,,,,,,,,,,,,,,,,,,,,,,,,,,
0,9,9,9,1,,615b2b907ab500ee5de14716,62c53a0b54d8f26fb4f3eecb,2022-07-06_09h49.10.014,Colour_Asymmetry_Pilot,2022.1.3,Win32,60.12506013,62c50e9c1127f2cd403a315f,,,,,,,,,,,,,,,,,,,,,,,,,,,,,,,,,,,,,,,,,,,,,,,,,,,,,,,,,,,,,,,,,,,,,,,,,,,,,,,,,,,,,,,,,,,,,,,,,,,,,,,,,,,,,,,,,,,,,,,,,,,,,,,,,,,,,,,,,,,,,,,,,,,,,,,,,,,,,,,,,,,,
0,10,10,43,1,,615b2b907ab500ee5de14716,62c53a0b54d8f26fb4f3eecb,2022-07-06_09h49.10.014,Colour_Asymmetry_Pilot,2022.1.3,Win32,60.12506013,62c50e9c1127f2cd403a315f,,,,,,,,,,,,,,,,,,,,,,,,,,,,,,,,,,,,,,,,,,,,,,,,,,,,,,,,,,,,,,,,,,,,,,,,,,,,,,,,,,,,,,,,,,,,,,,,,,,,,,,,,,,,,,,,,,,,,,,,,,,,,,,,,,,,,,,,,,,,,,,,,,,,,,,,,,,,,,,,,,,,
0,11,11,61,1,,615b2b907ab500ee5de14716,62c53a0b54d8f26fb4f3eecb,2022-07-06_09h49.10.014,Colour_Asymmetry_Pilot,2022.1.3,Win32,60.12506013,62c50e9c1127f2cd403a315f,,,,,,,,,,,,,,,,,,,,,,,,,,,,,,,,,,,,,,,,,,,,,,,,,,,,,,,,,,,,,,,,,,,,,,,,,,,,,,,,,,,,,,,,,,,,,,,,,,,,,,,,,,,,,,,,,,,,,,,,,,,,,,,,,,,,,,,,,,,,,,,,,,,,,,,,,,,,,,,,,,,,
0,12,12,35,1,,615b2b907ab500ee5de14716,62c53a0b54d8f26fb4f3eecb,2022-07-06_09h49.10.014,Colour_Asymmetry_Pilot,2022.1.3,Win32,60.12506013,62c50e9c1127f2cd403a315f,,,,,,,,,,,,,,,,,,,,,,,,,,,,,,,,,,,,,,,,,,,,,,,,,,,,,,,,,,,,,,,,,,,,,,,,,,,,,,,,,,,,,,,,,,,,,,,,,,,,,,,,,,,,,,,,,,,,,,,,,,,,,,,,,,,,,,,,,,,,,,,,,,,,,,,,,,,,,,,,,,,,
0,13,13,49,1,,615b2b907ab500ee5de14716,62c53a0b54d8f26fb4f3eecb,2022-07-06_09h49.10.014,Colour_Asymmetry_Pilot,2022.1.3,Win32,60.12506013,62c50e9c1127f2cd403a315f,,,,,,,,,,,,,,,,,,,,,,,,,,,,,,,,,,,,,,,,,,,,,,,,,,,,,,,,,,,,,,,,,,,,,,,,,,,,,,,,,,,,,,,,,,,,,,,,,,,,,,,,,,,,,,,,,,,,,,,,,,,,,,,,,,,,,,,,,,,,,,,,,,,,,,,,,,,,,,,,,,,,
0,14,14,84,1,,615b2b907ab500ee5de14716,62c53a0b54d8f26fb4f3eecb,2022-07-06_09h49.10.014,Colour_Asymmetry_Pilot,2022.1.3,Win32,60.12506013,62c50e9c1127f2cd403a315f,,,,,,,,,,,,,,,,,,,,,,,,,,,,,,,,,,,,,,,,,,,,,,,,,,,,,,,,,,,,,,,,,,,,,,,,,,,,,,,,,,,,,,,,,,,,,,,,,,,,,,,,,,,,,,,,,,,,,,,,,,,,,,,,,,,,,,,,,,,,,,,,,,,,,,,,,,,,,,,,,,,,
0,15,15,55,1,,615b2b907ab500ee5de14716,62c53a0b54d8f26fb4f3eecb,2022-07-06_09h49.10.014,Colour_Asymmetry_Pilot,2022.1.3,Win32,60.12506013,62c50e9c1127f2cd403a315f,,,,,,,,,,,,,,,,,,,,,,,,,,,,,,,,,,,,,,,,,,,,,,,,,,,,,,,,,,,,,,,,,,,,,,,,,,,,,,,,,,,,,,,,,,,,,,,,,,,,,,,,,,,,,,,,,,,,,,,,,,,,,,,,,,,,,,,,,,,,,,,,,,,,,,,,,,,,,,,,,,,,
0,16,16,69,1,,615b2b907ab500ee5de14716,62c53a0b54d8f26fb4f3eecb,2022-07-06_09h49.10.014,Colour_Asymmetry_Pilot,2022.1.3,Win32,60.12506013,62c50e9c1127f2cd403a315f,,,,,,,,,,,,,,,,,,,,,,,,,,,,,,,,,,,,,,,,,,,,,,,,,,,,,,,,,,,,,,,,,,,,,,,,,,,,,,,,,,,,,,,,,,,,,,,,,,,,,,,,,,,,,,,,,,,,,,,,,,,,,,,,,,,,,,,,,,,,,,,,,,,,,,,,,,,,,,,,,,,,
0,17,17,27,1,,615b2b907ab500ee5de14716,62c53a0b54d8f26fb4f3eecb,2022-07-06_09h49.10.014,Colour_Asymmetry_Pilot,2022.1.3,Win32,60.12506013,62c50e9c1127f2cd403a315f,,,,,,,,,,,,,,,,,,,,,,,,,,,,,,,,,,,,,,,,,,,,,,,,,,,,,,,,,,,,,,,,,,,,,,,,,,,,,,,,,,,,,,,,,,,,,,,,,,,,,,,,,,,,,,,,,,,,,,,,,,,,,,,,,,,,,,,,,,,,,,,,,,,,,,,,,,,,,,,,,,,,
0,18,18,6,1,,615b2b907ab500ee5de14716,62c53a0b54d8f26fb4f3eecb,2022-07-06_09h49.10.014,Colour_Asymmetry_Pilot,2022.1.3,Win32,60.12506013,62c50e9c1127f2cd403a315f,,,,,,,,,,,,,,,,,,,,,,,,,,,,,,,,,,,,,,,,,,,,,,,,,,,,,,,,,,,,,,,,,,,,,,,,,,,,,,,,,,,,,,,,,,,,,,,,,,,,,,,,,,,,,,,,,,,,,,,,,,,,,,,,,,,,,,,,,,,,,,,,,,,,,,,,,,,,,,,,,,,,
0,19,19,20,1,,615b2b907ab500ee5de14716,62c53a0b54d8f26fb4f3eecb,2022-07-06_09h49.10.014,Colour_Asymmetry_Pilot,2022.1.3,Win32,60.12506013,62c50e9c1127f2cd403a315f,,,,,,,,,,,,,,,,,,,,,,,,,,,,,,,,,,,,,,,,,,,,,,,,,,,,,,,,,,,,,,,,,,,,,,,,,,,,,,,,,,,,,,,,,,,,,,,,,,,,,,,,,,,,,,,,,,,,,,,,,,,,,,,,,,,,,,,,,,,,,,,,,,,,,,,,,,,,,,,,,,,,
0,20,20,25,1,,615b2b907ab500ee5de14716,62c53a0b54d8f26fb4f3eecb,2022-07-06_09h49.10.014,Colour_Asymmetry_Pilot,2022.1.3,Win32,60.12506013,62c50e9c1127f2cd403a315f,,,,,,,,,,,,,,,,,,,,,,,,,,,,,,,,,,,,,,,,,,,,,,,,,,,,,,,,,,,,,,,,,,,,,,,,,,,,,,,,,,,,,,,,,,,,,,,,,,,,,,,,,,,,,,,,,,,,,,,,,,,,,,,,,,,,,,,,,,,,,,,,,,,,,,,,,,,,,,,,,,,,
0,21,21,29,1,,615b2b907ab500ee5de14716,62c53a0b54d8f26fb4f3eecb,2022-07-06_09h49.10.014,Colour_Asymmetry_Pilot,2022.1.3,Win32,60.12506013,62c50e9c1127f2cd403a315f,,,,,,,,,,,,,,,,,,,,,,,,,,,,,,,,,,,,,,,,,,,,,,,,,,,,,,,,,,,,,,,,,,,,,,,,,,,,,,,,,,,,,,,,,,,,,,,,,,,,,,,,,,,,,,,,,,,,,,,,,,,,,,,,,,,,,,,,,,,,,,,,,,,,,,,,,,,,,,,,,,,,
0,22,22,57,1,,615b2b907ab500ee5de14716,62c53a0b54d8f26fb4f3eecb,2022-07-06_09h49.10.014,Colour_Asymmetry_Pilot,2022.1.3,Win32,60.12506013,62c50e9c1127f2cd403a315f,,,,,,,,,,,,,,,,,,,,,,,,,,,,,,,,,,,,,,,,,,,,,,,,,,,,,,,,,,,,,,,,,,,,,,,,,,,,,,,,,,,,,,,,,,,,,,,,,,,,,,,,,,,,,,,,,,,,,,,,,,,,,,,,,,,,,,,,,,,,,,,,,,,,,,,,,,,,,,,,,,,,
0,23,23,19,1,,615b2b907ab500ee5de14716,62c53a0b54d8f26fb4f3eecb,2022-07-06_09h49.10.014,Colour_Asymmetry_Pilot,2022.1.3,Win32,60.12506013,62c50e9c1127f2cd403a315f,,,,,,,,,,,,,,,,,,,,,,,,,,,,,,,,,,,,,,,,,,,,,,,,,,,,,,,,,,,,,,,,,,,,,,,,,,,,,,,,,,,,,,,,,,,,,,,,,,,,,,,,,,,,,,,,,,,,,,,,,,,,,,,,,,,,,,,,,,,,,,,,,,,,,,,,,,,,,,,,,,,,
0,24,24,75,1,,615b2b907ab500ee5de14716,62c53a0b54d8f26fb4f3eecb,2022-07-06_09h49.10.014,Colour_Asymmetry_Pilot,2022.1.3,Win32,60.12506013,62c50e9c1127f2cd403a315f,,,,,,,,,,,,,,,,,,,,,,,,,,,,,,,,,,,,,,,,,,,,,,,,,,,,,,,,,,,,,,,,,,,,,,,,,,,,,,,,,,,,,,,,,,,,,,,,,,,,,,,,,,,,,,,,,,,,,,,,,,,,,,,,,,,,,,,,,,,,,,,,,,,,,,,,,,,,,,,,,,,,
0,25,25,89,1,,615b2b907ab500ee5de14716,62c53a0b54d8f26fb4f3eecb,2022-07-06_09h49.10.014,Colour_Asymmetry_Pilot,2022.1.3,Win32,60.12506013,62c50e9c1127f2cd403a315f,,,,,,,,,,,,,,,,,,,,,,,,,,,,,,,,,,,,,,,,,,,,,,,,,,,,,,,,,,,,,,,,,,,,,,,,,,,,,,,,,,,,,,,,,,,,,,,,,,,,,,,,,,,,,,,,,,,,,,,,,,,,,,,,,,,,,,,,,,,,,,,,,,,,,,,,,,,,,,,,,,,,
0,26,26,65,1,,615b2b907ab500ee5de14716,62c53a0b54d8f26fb4f3eecb,2022-07-06_09h49.10.014,Colour_Asymmetry_Pilot,2022.1.3,Win32,60.12506013,62c50e9c1127f2cd403a315f,,,,,,,,,,,,,,,,,,,,,,,,,,,,,,,,,,,,,,,,,,,,,,,,,,,,,,,,,,,,,,,,,,,,,,,,,,,,,,,,,,,,,,,,,,,,,,,,,,,,,,,,,,,,,,,,,,,,,,,,,,,,,,,,,,,,,,,,,,,,,,,,,,,,,,,,,,,,,,,,,,,,
0,27,27,73,1,,615b2b907ab500ee5de14716,62c53a0b54d8f26fb4f3eecb,2022-07-06_09h49.10.014,Colour_Asymmetry_Pilot,2022.1.3,Win32,60.12506013,62c50e9c1127f2cd403a315f,,,,,,,,,,,,,,,,,,,,,,,,,,,,,,,,,,,,,,,,,,,,,,,,,,,,,,,,,,,,,,,,,,,,,,,,,,,,,,,,,,,,,,,,,,,,,,,,,,,,,,,,,,,,,,,,,,,,,,,,,,,,,,,,,,,,,,,,,,,,,,,,,,,,,,,,,,,,,,,,,,,,
0,28,28,8,1,,615b2b907ab500ee5de14716,62c53a0b54d8f26fb4f3eecb,2022-07-06_09h49.10.014,Colour_Asymmetry_Pilot,2022.1.3,Win32,60.12506013,62c50e9c1127f2cd403a315f,,,,,,,,,,,,,,,,,,,,,,,,,,,,,,,,,,,,,,,,,,,,,,,,,,,,,,,,,,,,,,,,,,,,,,,,,,,,,,,,,,,,,,,,,,,,,,,,,,,,,,,,,,,,,,,,,,,,,,,,,,,,,,,,,,,,,,,,,,,,,,,,,,,,,,,,,,,,,,,,,,,,
0,29,29,50,1,,615b2b907ab500ee5de14716,62c53a0b54d8f26fb4f3eecb,2022-07-06_09h49.10.014,Colour_Asymmetry_Pilot,2022.1.3,Win32,60.12506013,62c50e9c1127f2cd403a315f,,,,,,,,,,,,,,,,,,,,,,,,,,,,,,,,,,,,,,,,,,,,,,,,,,,,,,,,,,,,,,,,,,,,,,,,,,,,,,,,,,,,,,,,,,,,,,,,,,,,,,,,,,,,,,,,,,,,,,,,,,,,,,,,,,,,,,,,,,,,,,,,,,,,,,,,,,,,,,,,,,,,
0,30,30,40,1,,615b2b907ab500ee5de14716,62c53a0b54d8f26fb4f3eecb,2022-07-06_09h49.10.014,Colour_Asymmetry_Pilot,2022.1.3,Win32,60.12506013,62c50e9c1127f2cd403a315f,,,,,,,,,,,,,,,,,,,,,,,,,,,,,,,,,,,,,,,,,,,,,,,,,,,,,,,,,,,,,,,,,,,,,,,,,,,,,,,,,,,,,,,,,,,,,,,,,,,,,,,,,,,,,,,,,,,,,,,,,,,,,,,,,,,,,,,,,,,,,,,,,,,,,,,,,,,,,,,,,,,,
0,31,31,82,1,,615b2b907ab500ee5de14716,62c53a0b54d8f26fb4f3eecb,2022-07-06_09h49.10.014,Colour_Asymmetry_Pilot,2022.1.3,Win32,60.12506013,62c50e9c1127f2cd403a315f,,,,,,,,,,,,,,,,,,,,,,,,,,,,,,,,,,,,,,,,,,,,,,,,,,,,,,,,,,,,,,,,,,,,,,,,,,,,,,,,,,,,,,,,,,,,,,,,,,,,,,,,,,,,,,,,,,,,,,,,,,,,,,,,,,,,,,,,,,,,,,,,,,,,,,,,,,,,,,,,,,,,
0,32,32,37,1,,615b2b907ab500ee5de14716,62c53a0b54d8f26fb4f3eecb,2022-07-06_09h49.10.014,Colour_Asymmetry_Pilot,2022.1.3,Win32,60.12506013,62c50e9c1127f2cd403a315f,,,,,,,,,,,,,,,,,,,,,,,,,,,,,,,,,,,,,,,,,,,,,,,,,,,,,,,,,,,,,,,,,,,,,,,,,,,,,,,,,,,,,,,,,,,,,,,,,,,,,,,,,,,,,,,,,,,,,,,,,,,,,,,,,,,,,,,,,,,,,,,,,,,,,,,,,,,,,,,,,,,,
0,33,33,26,1,,615b2b907ab500ee5de14716,62c53a0b54d8f26fb4f3eecb,2022-07-06_09h49.10.014,Colour_Asymmetry_Pilot,2022.1.3,Win32,60.12506013,62c50e9c1127f2cd403a315f,,,,,,,,,,,,,,,,,,,,,,,,,,,,,,,,,,,,,,,,,,,,,,,,,,,,,,,,,,,,,,,,,,,,,,,,,,,,,,,,,,,,,,,,,,,,,,,,,,,,,,,,,,,,,,,,,,,,,,,,,,,,,,,,,,,,,,,,,,,,,,,,,,,,,,,,,,,,,,,,,,,,
0,34,34,66,1,,615b2b907ab500ee5de14716,62c53a0b54d8f26fb4f3eecb,2022-07-06_09h49.10.014,Colour_Asymmetry_Pilot,2022.1.3,Win32,60.12506013,62c50e9c1127f2cd403a315f,,,,,,,,,,,,,,,,,,,,,,,,,,,,,,,,,,,,,,,,,,,,,,,,,,,,,,,,,,,,,,,,,,,,,,,,,,,,,,,,,,,,,,,,,,,,,,,,,,,,,,,,,,,,,,,,,,,,,,,,,,,,,,,,,,,,,,,,,,,,,,,,,,,,,,,,,,,,,,,,,,,,
0,35,35,59,1,,615b2b907ab500ee5de14716,62c53a0b54d8f26fb4f3eecb,2022-07-06_09h49.10.014,Colour_Asymmetry_Pilot,2022.1.3,Win32,60.12506013,62c50e9c1127f2cd403a315f,,,,,,,,,,,,,,,,,,,,,,,,,,,,,,,,,,,,,,,,,,,,,,,,,,,,,,,,,,,,,,,,,,,,,,,,,,,,,,,,,,,,,,,,,,,,,,,,,,,,,,,,,,,,,,,,,,,,,,,,,,,,,,,,,,,,,,,,,,,,,,,,,,,,,,,,,,,,,,,,,,,,
0,36,36,88,1,,615b2b907ab500ee5de14716,62c53a0b54d8f26fb4f3eecb,2022-07-06_09h49.10.014,Colour_Asymmetry_Pilot,2022.1.3,Win32,60.12506013,62c50e9c1127f2cd403a315f,,,,,,,,,,,,,,,,,,,,,,,,,,,,,,,,,,,,,,,,,,,,,,,,,,,,,,,,,,,,,,,,,,,,,,,,,,,,,,,,,,,,,,,,,,,,,,,,,,,,,,,,,,,,,,,,,,,,,,,,,,,,,,,,,,,,,,,,,,,,,,,,,,,,,,,,,,,,,,,,,,,,
0,37,37,62,1,,615b2b907ab500ee5de14716,62c53a0b54d8f26fb4f3eecb,2022-07-06_09h49.10.014,Colour_Asymmetry_Pilot,2022.1.3,Win32,60.12506013,62c50e9c1127f2cd403a315f,,,,,,,,,,,,,,,,,,,,,,,,,,,,,,,,,,,,,,,,,,,,,,,,,,,,,,,,,,,,,,,,,,,,,,,,,,,,,,,,,,,,,,,,,,,,,,,,,,,,,,,,,,,,,,,,,,,,,,,,,,,,,,,,,,,,,,,,,,,,,,,,,,,,,,,,,,,,,,,,,,,,
0,38,38,41,1,,615b2b907ab500ee5de14716,62c53a0b54d8f26fb4f3eecb,2022-07-06_09h49.10.014,Colour_Asymmetry_Pilot,2022.1.3,Win32,60.12506013,62c50e9c1127f2cd403a315f,,,,,,,,,,,,,,,,,,,,,,,,,,,,,,,,,,,,,,,,,,,,,,,,,,,,,,,,,,,,,,,,,,,,,,,,,,,,,,,,,,,,,,,,,,,,,,,,,,,,,,,,,,,,,,,,,,,,,,,,,,,,,,,,,,,,,,,,,,,,,,,,,,,,,,,,,,,,,,,,,,,,
0,39,39,71,1,,615b2b907ab500ee5de14716,62c53a0b54d8f26fb4f3eecb,2022-07-06_09h49.10.014,Colour_Asymmetry_Pilot,2022.1.3,Win32,60.12506013,62c50e9c1127f2cd403a315f,,,,,,,,,,,,,,,,,,,,,,,,,,,,,,,,,,,,,,,,,,,,,,,,,,,,,,,,,,,,,,,,,,,,,,,,,,,,,,,,,,,,,,,,,,,,,,,,,,,,,,,,,,,,,,,,,,,,,,,,,,,,,,,,,,,,,,,,,,,,,,,,,,,,,,,,,,,,,,,,,,,,
0,40,40,51,1,,615b2b907ab500ee5de14716,62c53a0b54d8f26fb4f3eecb,2022-07-06_09h49.10.014,Colour_Asymmetry_Pilot,2022.1.3,Win32,60.12506013,62c50e9c1127f2cd403a315f,,,,,,,,,,,,,,,,,,,,,,,,,,,,,,,,,,,,,,,,,,,,,,,,,,,,,,,,,,,,,,,,,,,,,,,,,,,,,,,,,,,,,,,,,,,,,,,,,,,,,,,,,,,,,,,,,,,,,,,,,,,,,,,,,,,,,,,,,,,,,,,,,,,,,,,,,,,,,,,,,,,,
0,41,41,23,1,,615b2b907ab500ee5de14716,62c53a0b54d8f26fb4f3eecb,2022-07-06_09h49.10.014,Colour_Asymmetry_Pilot,2022.1.3,Win32,60.12506013,62c50e9c1127f2cd403a315f,,,,,,,,,,,,,,,,,,,,,,,,,,,,,,,,,,,,,,,,,,,,,,,,,,,,,,,,,,,,,,,,,,,,,,,,,,,,,,,,,,,,,,,,,,,,,,,,,,,,,,,,,,,,,,,,,,,,,,,,,,,,,,,,,,,,,,,,,,,,,,,,,,,,,,,,,,,,,,,,,,,,
0,42,42,30,1,,615b2b907ab500ee5de14716,62c53a0b54d8f26fb4f3eecb,2022-07-06_09h49.10.014,Colour_Asymmetry_Pilot,2022.1.3,Win32,60.12506013,62c50e9c1127f2cd403a315f,,,,,,,,,,,,,,,,,,,,,,,,,,,,,,,,,,,,,,,,,,,,,,,,,,,,,,,,,,,,,,,,,,,,,,,,,,,,,,,,,,,,,,,,,,,,,,,,,,,,,,,,,,,,,,,,,,,,,,,,,,,,,,,,,,,,,,,,,,,,,,,,,,,,,,,,,,,,,,,,,,,,
0,43,43,15,1,,615b2b907ab500ee5de14716,62c53a0b54d8f26fb4f3eecb,2022-07-06_09h49.10.014,Colour_Asymmetry_Pilot,2022.1.3,Win32,60.12506013,62c50e9c1127f2cd403a315f,,,,,,,,,,,,,,,,,,,,,,,,,,,,,,,,,,,,,,,,,,,,,,,,,,,,,,,,,,,,,,,,,,,,,,,,,,,,,,,,,,,,,,,,,,,,,,,,,,,,,,,,,,,,,,,,,,,,,,,,,,,,,,,,,,,,,,,,,,,,,,,,,,,,,,,,,,,,,,,,,,,,
0,44,44,83,1,,615b2b907ab500ee5de14716,62c53a0b54d8f26fb4f3eecb,2022-07-06_09h49.10.014,Colour_Asymmetry_Pilot,2022.1.3,Win32,60.12506013,62c50e9c1127f2cd403a315f,,,,,,,,,,,,,,,,,,,,,,,,,,,,,,,,,,,,,,,,,,,,,,,,,,,,,,,,,,,,,,,,,,,,,,,,,,,,,,,,,,,,,,,,,,,,,,,,,,,,,,,,,,,,,,,,,,,,,,,,,,,,,,,,,,,,,,,,,,,,,,,,,,,,,,,,,,,,,,,,,,,,
0,45,45,45,1,,615b2b907ab500ee5de14716,62c53a0b54d8f26fb4f3eecb,2022-07-06_09h49.10.014,Colour_Asymmetry_Pilot,2022.1.3,Win32,60.12506013,62c50e9c1127f2cd403a315f,,,,,,,,,,,,,,,,,,,,,,,,,,,,,,,,,,,,,,,,,,,,,,,,,,,,,,,,,,,,,,,,,,,,,,,,,,,,,,,,,,,,,,,,,,,,,,,,,,,,,,,,,,,,,,,,,,,,,,,,,,,,,,,,,,,,,,,,,,,,,,,,,,,,,,,,,,,,,,,,,,,,
0,46,46,38,1,,615b2b907ab500ee5de14716,62c53a0b54d8f26fb4f3eecb,2022-07-06_09h49.10.014,Colour_Asymmetry_Pilot,2022.1.3,Win32,60.12506013,62c50e9c1127f2cd403a315f,,,,,,,,,,,,,,,,,,,,,,,,,,,,,,,,,,,,,,,,,,,,,,,,,,,,,,,,,,,,,,,,,,,,,,,,,,,,,,,,,,,,,,,,,,,,,,,,,,,,,,,,,,,,,,,,,,,,,,,,,,,,,,,,,,,,,,,,,,,,,,,,,,,,,,,,,,,,,,,,,,,,
0,47,47,34,1,,615b2b907ab500ee5de14716,62c53a0b54d8f26fb4f3eecb,2022-07-06_09h49.10.014,Colour_Asymmetry_Pilot,2022.1.3,Win32,60.12506013,62c50e9c1127f2cd403a315f,,,,,,,,,,,,,,,,,,,,,,,,,,,,,,,,,,,,,,,,,,,,,,,,,,,,,,,,,,,,,,,,,,,,,,,,,,,,,,,,,,,,,,,,,,,,,,,,,,,,,,,,,,,,,,,,,,,,,,,,,,,,,,,,,,,,,,,,,,,,,,,,,,,,,,,,,,,,,,,,,,,,
0,48,48,33,1,,615b2b907ab500ee5de14716,62c53a0b54d8f26fb4f3eecb,2022-07-06_09h49.10.014,Colour_Asymmetry_Pilot,2022.1.3,Win32,60.12506013,62c50e9c1127f2cd403a315f,,,,,,,,,,,,,,,,,,,,,,,,,,,,,,,,,,,,,,,,,,,,,,,,,,,,,,,,,,,,,,,,,,,,,,,,,,,,,,,,,,,,,,,,,,,,,,,,,,,,,,,,,,,,,,,,,,,,,,,,,,,,,,,,,,,,,,,,,,,,,,,,,,,,,,,,,,,,,,,,,,,,
0,49,49,10,1,,615b2b907ab500ee5de14716,62c53a0b54d8f26fb4f3eecb,2022-07-06_09h49.10.014,Colour_Asymmetry_Pilot,2022.1.3,Win32,60.12506013,62c50e9c1127f2cd403a315f,,,,,,,,,,,,,,,,,,,,,,,,,,,,,,,,,,,,,,,,,,,,,,,,,,,,,,,,,,,,,,,,,,,,,,,,,,,,,,,,,,,,,,,,,,,,,,,,,,,,,,,,,,,,,,,,,,,,,,,,,,,,,,,,,,,,,,,,,,,,,,,,,,,,,,,,,,,,,,,,,,,,
0,50,50,81,1,,615b2b907ab500ee5de14716,62c53a0b54d8f26fb4f3eecb,2022-07-06_09h49.10.014,Colour_Asymmetry_Pilot,2022.1.3,Win32,60.12506013,62c50e9c1127f2cd403a315f,,,,,,,,,,,,,,,,,,,,,,,,,,,,,,,,,,,,,,,,,,,,,,,,,,,,,,,,,,,,,,,,,,,,,,,,,,,,,,,,,,,,,,,,,,,,,,,,,,,,,,,,,,,,,,,,,,,,,,,,,,,,,,,,,,,,,,,,,,,,,,,,,,,,,,,,,,,,,,,,,,,,
0,51,51,4,1,,615b2b907ab500ee5de14716,62c53a0b54d8f26fb4f3eecb,2022-07-06_09h49.10.014,Colour_Asymmetry_Pilot,2022.1.3,Win32,60.12506013,62c50e9c1127f2cd403a315f,,,,,,,,,,,,,,,,,,,,,,,,,,,,,,,,,,,,,,,,,,,,,,,,,,,,,,,,,,,,,,,,,,,,,,,,,,,,,,,,,,,,,,,,,,,,,,,,,,,,,,,,,,,,,,,,,,,,,,,,,,,,,,,,,,,,,,,,,,,,,,,,,,,,,,,,,,,,,,,,,,,,
0,52,52,7,1,,615b2b907ab500ee5de14716,62c53a0b54d8f26fb4f3eecb,2022-07-06_09h49.10.014,Colour_Asymmetry_Pilot,2022.1.3,Win32,60.12506013,62c50e9c1127f2cd403a315f,,,,,,,,,,,,,,,,,,,,,,,,,,,,,,,,,,,,,,,,,,,,,,,,,,,,,,,,,,,,,,,,,,,,,,,,,,,,,,,,,,,,,,,,,,,,,,,,,,,,,,,,,,,,,,,,,,,,,,,,,,,,,,,,,,,,,,,,,,,,,,,,,,,,,,,,,,,,,,,,,,,,
0,53,53,90,1,,615b2b907ab500ee5de14716,62c53a0b54d8f26fb4f3eecb,2022-07-06_09h49.10.014,Colour_Asymmetry_Pilot,2022.1.3,Win32,60.12506013,62c50e9c1127f2cd403a315f,,,,,,,,,,,,,,,,,,,,,,,,,,,,,,,,,,,,,,,,,,,,,,,,,,,,,,,,,,,,,,,,,,,,,,,,,,,,,,,,,,,,,,,,,,,,,,,,,,,,,,,,,,,,,,,,,,,,,,,,,,,,,,,,,,,,,,,,,,,,,,,,,,,,,,,,,,,,,,,,,,,,
0,54,54,68,1,,615b2b907ab500ee5de14716,62c53a0b54d8f26fb4f3eecb,2022-07-06_09h49.10.014,Colour_Asymmetry_Pilot,2022.1.3,Win32,60.12506013,62c50e9c1127f2cd403a315f,,,,,,,,,,,,,,,,,,,,,,,,,,,,,,,,,,,,,,,,,,,,,,,,,,,,,,,,,,,,,,,,,,,,,,,,,,,,,,,,,,,,,,,,,,,,,,,,,,,,,,,,,,,,,,,,,,,,,,,,,,,,,,,,,,,,,,,,,,,,,,,,,,,,,,,,,,,,,,,,,,,,
0,55,55,60,1,,615b2b907ab500ee5de14716,62c53a0b54d8f26fb4f3eecb,2022-07-06_09h49.10.014,Colour_Asymmetry_Pilot,2022.1.3,Win32,60.12506013,62c50e9c1127f2cd403a315f,,,,,,,,,,,,,,,,,,,,,,,,,,,,,,,,,,,,,,,,,,,,,,,,,,,,,,,,,,,,,,,,,,,,,,,,,,,,,,,,,,,,,,,,,,,,,,,,,,,,,,,,,,,,,,,,,,,,,,,,,,,,,,,,,,,,,,,,,,,,,,,,,,,,,,,,,,,,,,,,,,,,
0,56,56,77,1,,615b2b907ab500ee5de14716,62c53a0b54d8f26fb4f3eecb,2022-07-06_09h49.10.014,Colour_Asymmetry_Pilot,2022.1.3,Win32,60.12506013,62c50e9c1127f2cd403a315f,,,,,,,,,,,,,,,,,,,,,,,,,,,,,,,,,,,,,,,,,,,,,,,,,,,,,,,,,,,,,,,,,,,,,,,,,,,,,,,,,,,,,,,,,,,,,,,,,,,,,,,,,,,,,,,,,,,,,,,,,,,,,,,,,,,,,,,,,,,,,,,,,,,,,,,,,,,,,,,,,,,,
0,57,57,74,1,,615b2b907ab500ee5de14716,62c53a0b54d8f26fb4f3eecb,2022-07-06_09h49.10.014,Colour_Asymmetry_Pilot,2022.1.3,Win32,60.12506013,62c50e9c1127f2cd403a315f,,,,,,,,,,,,,,,,,,,,,,,,,,,,,,,,,,,,,,,,,,,,,,,,,,,,,,,,,,,,,,,,,,,,,,,,,,,,,,,,,,,,,,,,,,,,,,,,,,,,,,,,,,,,,,,,,,,,,,,,,,,,,,,,,,,,,,,,,,,,,,,,,,,,,,,,,,,,,,,,,,,,
0,58,58,13,1,,615b2b907ab500ee5de14716,62c53a0b54d8f26fb4f3eecb,2022-07-06_09h49.10.014,Colour_Asymmetry_Pilot,2022.1.3,Win32,60.12506013,62c50e9c1127f2cd403a315f,,,,,,,,,,,,,,,,,,,,,,,,,,,,,,,,,,,,,,,,,,,,,,,,,,,,,,,,,,,,,,,,,,,,,,,,,,,,,,,,,,,,,,,,,,,,,,,,,,,,,,,,,,,,,,,,,,,,,,,,,,,,,,,,,,,,,,,,,,,,,,,,,,,,,,,,,,,,,,,,,,,,
0,59,59,76,1,,615b2b907ab500ee5de14716,62c53a0b54d8f26fb4f3eecb,2022-07-06_09h49.10.014,Colour_Asymmetry_Pilot,2022.1.3,Win32,60.12506013,62c50e9c1127f2cd403a315f,,,,,,,,,,,,,,,,,,,,,,,,,,,,,,,,,,,,,,,,,,,,,,,,,,,,,,,,,,,,,,,,,,,,,,,,,,,,,,,,,,,,,,,,,,,,,,,,,,,,,,,,,,,,,,,,,,,,,,,,,,,,,,,,,,,,,,,,,,,,,,,,,,,,,,,,,,,,,,,,,,,,
0,60,60,36,1,,615b2b907ab500ee5de14716,62c53a0b54d8f26fb4f3eecb,2022-07-06_09h49.10.014,Colour_Asymmetry_Pilot,2022.1.3,Win32,60.12506013,62c50e9c1127f2cd403a315f,,,,,,,,,,,,,,,,,,,,,,,,,,,,,,,,,,,,,,,,,,,,,,,,,,,,,,,,,,,,,,,,,,,,,,,,,,,,,,,,,,,,,,,,,,,,,,,,,,,,,,,,,,,,,,,,,,,,,,,,,,,,,,,,,,,,,,,,,,,,,,,,,,,,,,,,,,,,,,,,,,,,
0,61,61,46,1,,615b2b907ab500ee5de14716,62c53a0b54d8f26fb4f3eecb,2022-07-06_09h49.10.014,Colour_Asymmetry_Pilot,2022.1.3,Win32,60.12506013,62c50e9c1127f2cd403a315f,,,,,,,,,,,,,,,,,,,,,,,,,,,,,,,,,,,,,,,,,,,,,,,,,,,,,,,,,,,,,,,,,,,,,,,,,,,,,,,,,,,,,,,,,,,,,,,,,,,,,,,,,,,,,,,,,,,,,,,,,,,,,,,,,,,,,,,,,,,,,,,,,,,,,,,,,,,,,,,,,,,,
0,62,62,0,1,,615b2b907ab500ee5de14716,62c53a0b54d8f26fb4f3eecb,2022-07-06_09h49.10.014,Colour_Asymmetry_Pilot,2022.1.3,Win32,60.12506013,62c50e9c1127f2cd403a315f,,,,,,,,,,,,,,,,,,,,,,,,,,,,,,,,,,,,,,,,,,,,,,,,,,,,,,,,,,,,,,,,,,,,,,,,,,,,,,,,,,,,,,,,,,,,,,,,,,,,,,,,,,,,,,,,,,,,,,,,,,,,,,,,,,,,,,,,,,,,,,,,,,,,,,,,,,,,,,,,,,,,
0,63,63,24,1,,615b2b907ab500ee5de14716,62c53a0b54d8f26fb4f3eecb,2022-07-06_09h49.10.014,Colour_Asymmetry_Pilot,2022.1.3,Win32,60.12506013,62c50e9c1127f2cd403a315f,,,,,,,,,,,,,,,,,,,,,,,,,,,,,,,,,,,,,,,,,,,,,,,,,,,,,,,,,,,,,,,,,,,,,,,,,,,,,,,,,,,,,,,,,,,,,,,,,,,,,,,,,,,,,,,,,,,,,,,,,,,,,,,,,,,,,,,,,,,,,,,,,,,,,,,,,,,,,,,,,,,,
0,64,64,80,1,,615b2b907ab500ee5de14716,62c53a0b54d8f26fb4f3eecb,2022-07-06_09h49.10.014,Colour_Asymmetry_Pilot,2022.1.3,Win32,60.12506013,62c50e9c1127f2cd403a315f,,,,,,,,,,,,,,,,,,,,,,,,,,,,,,,,,,,,,,,,,,,,,,,,,,,,,,,,,,,,,,,,,,,,,,,,,,,,,,,,,,,,,,,,,,,,,,,,,,,,,,,,,,,,,,,,,,,,,,,,,,,,,,,,,,,,,,,,,,,,,,,,,,,,,,,,,,,,,,,,,,,,
0,65,65,39,1,,615b2b907ab500ee5de14716,62c53a0b54d8f26fb4f3eecb,2022-07-06_09h49.10.014,Colour_Asymmetry_Pilot,2022.1.3,Win32,60.12506013,62c50e9c1127f2cd403a315f,,,,,,,,,,,,,,,,,,,,,,,,,,,,,,,,,,,,,,,,,,,,,,,,,,,,,,,,,,,,,,,,,,,,,,,,,,,,,,,,,,,,,,,,,,,,,,,,,,,,,,,,,,,,,,,,,,,,,,,,,,,,,,,,,,,,,,,,,,,,,,,,,,,,,,,,,,,,,,,,,,,,
0,66,66,32,1,,615b2b907ab500ee5de14716,62c53a0b54d8f26fb4f3eecb,2022-07-06_09h49.10.014,Colour_Asymmetry_Pilot,2022.1.3,Win32,60.12506013,62c50e9c1127f2cd403a315f,,,,,,,,,,,,,,,,,,,,,,,,,,,,,,,,,,,,,,,,,,,,,,,,,,,,,,,,,,,,,,,,,,,,,,,,,,,,,,,,,,,,,,,,,,,,,,,,,,,,,,,,,,,,,,,,,,,,,,,,,,,,,,,,,,,,,,,,,,,,,,,,,,,,,,,,,,,,,,,,,,,,
0,67,67,1,1,,615b2b907ab500ee5de14716,62c53a0b54d8f26fb4f3eecb,2022-07-06_09h49.10.014,Colour_Asymmetry_Pilot,2022.1.3,Win32,60.12506013,62c50e9c1127f2cd403a315f,,,,,,,,,,,,,,,,,,,,,,,,,,,,,,,,,,,,,,,,,,,,,,,,,,,,,,,,,,,,,,,,,,,,,,,,,,,,,,,,,,,,,,,,,,,,,,,,,,,,,,,,,,,,,,,,,,,,,,,,,,,,,,,,,,,,,,,,,,,,,,,,,,,,,,,,,,,,,,,,,,,,
0,68,68,47,1,,615b2b907ab500ee5de14716,62c53a0b54d8f26fb4f3eecb,2022-07-06_09h49.10.014,Colour_Asymmetry_Pilot,2022.1.3,Win32,60.12506013,62c50e9c1127f2cd403a315f,,,,,,,,,,,,,,,,,,,,,,,,,,,,,,,,,,,,,,,,,,,,,,,,,,,,,,,,,,,,,,,,,,,,,,,,,,,,,,,,,,,,,,,,,,,,,,,,,,,,,,,,,,,,,,,,,,,,,,,,,,,,,,,,,,,,,,,,,,,,,,,,,,,,,,,,,,,,,,,,,,,,
0,69,69,12,1,,615b2b907ab500ee5de14716,62c53a0b54d8f26fb4f3eecb,2022-07-06_09h49.10.014,Colour_Asymmetry_Pilot,2022.1.3,Win32,60.12506013,62c50e9c1127f2cd403a315f,,,,,,,,,,,,,,,,,,,,,,,,,,,,,,,,,,,,,,,,,,,,,,,,,,,,,,,,,,,,,,,,,,,,,,,,,,,,,,,,,,,,,,,,,,,,,,,,,,,,,,,,,,,,,,,,,,,,,,,,,,,,,,,,,,,,,,,,,,,,,,,,,,,,,,,,,,,,,,,,,,,,
0,70,70,54,1,,615b2b907ab500ee5de14716,62c53a0b54d8f26fb4f3eecb,2022-07-06_09h49.10.014,Colour_Asymmetry_Pilot,2022.1.3,Win32,60.12506013,62c50e9c1127f2cd403a315f,,,,,,,,,,,,,,,,,,,,,,,,,,,,,,,,,,,,,,,,,,,,,,,,,,,,,,,,,,,,,,,,,,,,,,,,,,,,,,,,,,,,,,,,,,,,,,,,,,,,,,,,,,,,,,,,,,,,,,,,,,,,,,,,,,,,,,,,,,,,,,,,,,,,,,,,,,,,,,,,,,,,
0,71,71,70,1,,615b2b907ab500ee5de14716,62c53a0b54d8f26fb4f3eecb,2022-07-06_09h49.10.014,Colour_Asymmetry_Pilot,2022.1.3,Win32,60.12506013,62c50e9c1127f2cd403a315f,,,,,,,,,,,,,,,,,,,,,,,,,,,,,,,,,,,,,,,,,,,,,,,,,,,,,,,,,,,,,,,,,,,,,,,,,,,,,,,,,,,,,,,,,,,,,,,,,,,,,,,,,,,,,,,,,,,,,,,,,,,,,,,,,,,,,,,,,,,,,,,,,,,,,,,,,,,,,,,,,,,,
0,72,72,48,1,,615b2b907ab500ee5de14716,62c53a0b54d8f26fb4f3eecb,2022-07-06_09h49.10.014,Colour_Asymmetry_Pilot,2022.1.3,Win32,60.12506013,62c50e9c1127f2cd403a315f,,,,,,,,,,,,,,,,,,,,,,,,,,,,,,,,,,,,,,,,,,,,,,,,,,,,,,,,,,,,,,,,,,,,,,,,,,,,,,,,,,,,,,,,,,,,,,,,,,,,,,,,,,,,,,,,,,,,,,,,,,,,,,,,,,,,,,,,,,,,,,,,,,,,,,,,,,,,,,,,,,,,
0,73,73,17,1,,615b2b907ab500ee5de14716,62c53a0b54d8f26fb4f3eecb,2022-07-06_09h49.10.014,Colour_Asymmetry_Pilot,2022.1.3,Win32,60.12506013,62c50e9c1127f2cd403a315f,,,,,,,,,,,,,,,,,,,,,,,,,,,,,,,,,,,,,,,,,,,,,,,,,,,,,,,,,,,,,,,,,,,,,,,,,,,,,,,,,,,,,,,,,,,,,,,,,,,,,,,,,,,,,,,,,,,,,,,,,,,,,,,,,,,,,,,,,,,,,,,,,,,,,,,,,,,,,,,,,,,,
0,74,74,87,1,,615b2b907ab500ee5de14716,62c53a0b54d8f26fb4f3eecb,2022-07-06_09h49.10.014,Colour_Asymmetry_Pilot,2022.1.3,Win32,60.12506013,62c50e9c1127f2cd403a315f,,,,,,,,,,,,,,,,,,,,,,,,,,,,,,,,,,,,,,,,,,,,,,,,,,,,,,,,,,,,,,,,,,,,,,,,,,,,,,,,,,,,,,,,,,,,,,,,,,,,,,,,,,,,,,,,,,,,,,,,,,,,,,,,,,,,,,,,,,,,,,,,,,,,,,,,,,,,,,,,,,,,
0,75,75,11,1,,615b2b907ab500ee5de14716,62c53a0b54d8f26fb4f3eecb,2022-07-06_09h49.10.014,Colour_Asymmetry_Pilot,2022.1.3,Win32,60.12506013,62c50e9c1127f2cd403a315f,,,,,,,,,,,,,,,,,,,,,,,,,,,,,,,,,,,,,,,,,,,,,,,,,,,,,,,,,,,,,,,,,,,,,,,,,,,,,,,,,,,,,,,,,,,,,,,,,,,,,,,,,,,,,,,,,,,,,,,,,,,,,,,,,,,,,,,,,,,,,,,,,,,,,,,,,,,,,,,,,,,,
0,76,76,16,1,,615b2b907ab500ee5de14716,62c53a0b54d8f26fb4f3eecb,2022-07-06_09h49.10.014,Colour_Asymmetry_Pilot,2022.1.3,Win32,60.12506013,62c50e9c1127f2cd403a315f,,,,,,,,,,,,,,,,,,,,,,,,,,,,,,,,,,,,,,,,,,,,,,,,,,,,,,,,,,,,,,,,,,,,,,,,,,,,,,,,,,,,,,,,,,,,,,,,,,,,,,,,,,,,,,,,,,,,,,,,,,,,,,,,,,,,,,,,,,,,,,,,,,,,,,,,,,,,,,,,,,,,
0,77,77,21,1,,615b2b907ab500ee5de14716,62c53a0b54d8f26fb4f3eecb,2022-07-06_09h49.10.014,Colour_Asymmetry_Pilot,2022.1.3,Win32,60.12506013,62c50e9c1127f2cd403a315f,,,,,,,,,,,,,,,,,,,,,,,,,,,,,,,,,,,,,,,,,,,,,,,,,,,,,,,,,,,,,,,,,,,,,,,,,,,,,,,,,,,,,,,,,,,,,,,,,,,,,,,,,,,,,,,,,,,,,,,,,,,,,,,,,,,,,,,,,,,,,,,,,,,,,,,,,,,,,,,,,,,,
0,78,78,63,1,,615b2b907ab500ee5de14716,62c53a0b54d8f26fb4f3eecb,2022-07-06_09h49.10.014,Colour_Asymmetry_Pilot,2022.1.3,Win32,60.12506013,62c50e9c1127f2cd403a315f,,,,,,,,,,,,,,,,,,,,,,,,,,,,,,,,,,,,,,,,,,,,,,,,,,,,,,,,,,,,,,,,,,,,,,,,,,,,,,,,,,,,,,,,,,,,,,,,,,,,,,,,,,,,,,,,,,,,,,,,,,,,,,,,,,,,,,,,,,,,,,,,,,,,,,,,,,,,,,,,,,,,
0,79,79,14,1,,615b2b907ab500ee5de14716,62c53a0b54d8f26fb4f3eecb,2022-07-06_09h49.10.014,Colour_Asymmetry_Pilot,2022.1.3,Win32,60.12506013,62c50e9c1127f2cd403a315f,,,,,,,,,,,,,,,,,,,,,,,,,,,,,,,,,,,,,,,,,,,,,,,,,,,,,,,,,,,,,,,,,,,,,,,,,,,,,,,,,,,,,,,,,,,,,,,,,,,,,,,,,,,,,,,,,,,,,,,,,,,,,,,,,,,,,,,,,,,,,,,,,,,,,,,,,,,,,,,,,,,,
0,80,80,52,1,,615b2b907ab500ee5de14716,62c53a0b54d8f26fb4f3eecb,2022-07-06_09h49.10.014,Colour_Asymmetry_Pilot,2022.1.3,Win32,60.12506013,62c50e9c1127f2cd403a315f,,,,,,,,,,,,,,,,,,,,,,,,,,,,,,,,,,,,,,,,,,,,,,,,,,,,,,,,,,,,,,,,,,,,,,,,,,,,,,,,,,,,,,,,,,,,,,,,,,,,,,,,,,,,,,,,,,,,,,,,,,,,,,,,,,,,,,,,,,,,,,,,,,,,,,,,,,,,,,,,,,,,
0,81,81,22,1,,615b2b907ab500ee5de14716,62c53a0b54d8f26fb4f3eecb,2022-07-06_09h49.10.014,Colour_Asymmetry_Pilot,2022.1.3,Win32,60.12506013,62c50e9c1127f2cd403a315f,,,,,,,,,,,,,,,,,,,,,,,,,,,,,,,,,,,,,,,,,,,,,,,,,,,,,,,,,,,,,,,,,,,,,,,,,,,,,,,,,,,,,,,,,,,,,,,,,,,,,,,,,,,,,,,,,,,,,,,,,,,,,,,,,,,,,,,,,,,,,,,,,,,,,,,,,,,,,,,,,,,,
0,82,82,31,1,,615b2b907ab500ee5de14716,62c53a0b54d8f26fb4f3eecb,2022-07-06_09h49.10.014,Colour_Asymmetry_Pilot,2022.1.3,Win32,60.12506013,62c50e9c1127f2cd403a315f,,,,,,,,,,,,,,,,,,,,,,,,,,,,,,,,,,,,,,,,,,,,,,,,,,,,,,,,,,,,,,,,,,,,,,,,,,,,,,,,,,,,,,,,,,,,,,,,,,,,,,,,,,,,,,,,,,,,,,,,,,,,,,,,,,,,,,,,,,,,,,,,,,,,,,,,,,,,,,,,,,,,
0,83,83,72,1,,615b2b907ab500ee5de14716,62c53a0b54d8f26fb4f3eecb,2022-07-06_09h49.10.014,Colour_Asymmetry_Pilot,2022.1.3,Win32,60.12506013,62c50e9c1127f2cd403a315f,,,,,,,,,,,,,,,,,,,,,,,,,,,,,,,,,,,,,,,,,,,,,,,,,,,,,,,,,,,,,,,,,,,,,,,,,,,,,,,,,,,,,,,,,,,,,,,,,,,,,,,,,,,,,,,,,,,,,,,,,,,,,,,,,,,,,,,,,,,,,,,,,,,,,,,,,,,,,,,,,,,,
0,84,84,86,1,,615b2b907ab500ee5de14716,62c53a0b54d8f26fb4f3eecb,2022-07-06_09h49.10.014,Colour_Asymmetry_Pilot,2022.1.3,Win32,60.12506013,62c50e9c1127f2cd403a315f,,,,,,,,,,,,,,,,,,,,,,,,,,,,,,,,,,,,,,,,,,,,,,,,,,,,,,,,,,,,,,,,,,,,,,,,,,,,,,,,,,,,,,,,,,,,,,,,,,,,,,,,,,,,,,,,,,,,,,,,,,,,,,,,,,,,,,,,,,,,,,,,,,,,,,,,,,,,,,,,,,,,
0,85,85,64,1,,615b2b907ab500ee5de14716,62c53a0b54d8f26fb4f3eecb,2022-07-06_09h49.10.014,Colour_Asymmetry_Pilot,2022.1.3,Win32,60.12506013,62c50e9c1127f2cd403a315f,,,,,,,,,,,,,,,,,,,,,,,,,,,,,,,,,,,,,,,,,,,,,,,,,,,,,,,,,,,,,,,,,,,,,,,,,,,,,,,,,,,,,,,,,,,,,,,,,,,,,,,,,,,,,,,,,,,,,,,,,,,,,,,,,,,,,,,,,,,,,,,,,,,,,,,,,,,,,,,,,,,,
0,86,86,2,1,,615b2b907ab500ee5de14716,62c53a0b54d8f26fb4f3eecb,2022-07-06_09h49.10.014,Colour_Asymmetry_Pilot,2022.1.3,Win32,60.12506013,62c50e9c1127f2cd403a315f,,,,,,,,,,,,,,,,,,,,,,,,,,,,,,,,,,,,,,,,,,,,,,,,,,,,,,,,,,,,,,,,,,,,,,,,,,,,,,,,,,,,,,,,,,,,,,,,,,,,,,,,,,,,,,,,,,,,,,,,,,,,,,,,,,,,,,,,,,,,,,,,,,,,,,,,,,,,,,,,,,,,
0,87,87,56,1,,615b2b907ab500ee5de14716,62c53a0b54d8f26fb4f3eecb,2022-07-06_09h49.10.014,Colour_Asymmetry_Pilot,2022.1.3,Win32,60.12506013,62c50e9c1127f2cd403a315f,,,,,,,,,,,,,,,,,,,,,,,,,,,,,,,,,,,,,,,,,,,,,,,,,,,,,,,,,,,,,,,,,,,,,,,,,,,,,,,,,,,,,,,,,,,,,,,,,,,,,,,,,,,,,,,,,,,,,,,,,,,,,,,,,,,,,,,,,,,,,,,,,,,,,,,,,,,,,,,,,,,,
0,88,88,58,1,,615b2b907ab500ee5de14716,62c53a0b54d8f26fb4f3eecb,2022-07-06_09h49.10.014,Colour_Asymmetry_Pilot,2022.1.3,Win32,60.12506013,62c50e9c1127f2cd403a315f,,,,,,,,,,,,,,,,,,,,,,,,,,,,,,,,,,,,,,,,,,,,,,,,,,,,,,,,,,,,,,,,,,,,,,,,,,,,,,,,,,,,,,,,,,,,,,,,,,,,,,,,,,,,,,,,,,,,,,,,,,,,,,,,,,,,,,,,,,,,,,,,,,,,,,,,,,,,,,,,,,,,
0,89,89,85,1,,615b2b907ab500ee5de14716,62c53a0b54d8f26fb4f3eecb,2022-07-06_09h49.10.014,Colour_Asymmetry_Pilot,2022.1.3,Win32,60.12506013,62c50e9c1127f2cd403a315f,,,,,,,,,,,,,,,,,,,,,,,,,,,,,,,,,,,,,,,,,,,,,,,,,,,,,,,,,,,,,,,,,,,,,,,,,,,,,,,,,,,,,,,,,,,,,,,,,,,,,,,,,,,,,,,,,,,,,,,,,,,,,,,,,,,,,,,,,,,,,,,,,,,,,,,,,,,,,,,,,,,,
0,90,90,5,1,,615b2b907ab500ee5de14716,62c53a0b54d8f26fb4f3eecb,2022-07-06_09h49.10.014,Colour_Asymmetry_Pilot,2022.1.3,Win32,60.12506013,62c50e9c1127f2cd403a315f,,,,,,,,,,,,,,,,,,,,,,,,,,,,,,,,,,,,,,,,,,,,,,,,,,,,,,,,,,,,,,,,,,,,,,,,,,,,,,,,,,,,,,,,,,,,,,,,,,,,,,,,,,,,,,,,,,,,,,,,,,,,,,,,,,,,,,,,,,,,,,,,,,,,,,,,,,,,,,,,,,,,
0,91,91,3,1,,615b2b907ab500ee5de14716,62c53a0b54d8f26fb4f3eecb,2022-07-06_09h49.10.014,Colour_Asymmetry_Pilot,2022.1.3,Win32,60.12506013,62c50e9c1127f2cd403a315f,,,,,,,,,,,,,,,,,,,,,,,,,,,,,,,,,,,,,,,,,,,,,,,,,,,,,,,,,,,,,,,,,,,,,,,,,,,,,,,,,,,,,,,,,,,,,,,,,,,,,,,,,,,,,,,,,,,,,,,,,,,,,,,,,,,,,,,,,,,,,,,,,,,,,,,,,,,,,,,,,,,,
0,92,92,91,1,,615b2b907ab500ee5de14716,62c53a0b54d8f26fb4f3eecb,2022-07-06_09h49.10.014,Colour_Asymmetry_Pilot,2022.1.3,Win32,60.12506013,62c50e9c1127f2cd403a315f,,,,,,,,,,,,,,,,,,,,,,,,,,,,,,,,,,,,,,,,,,,,,,,,,,,,,,,,,,,,,,,,,,,,,,,,,,,,,,,,,,,,,,,,,,,,,,,,,,,,,,,,,,,,,,,,,,,,,,,,,,,,,,,,,,,,,,,,,,,,,,,,,,,,,,,,,,,,,,,,,,,,
,,,,,,615b2b907ab500ee5de14716,62c53a0b54d8f26fb4f3eecb,2022-07-06_09h49.10.014,Colour_Asymmetry_Pilot,2022.1.3,Win32,60.12506013,62c50e9c1127f2cd403a315f,0,0,0,119,1,fourthree,,,,,,,,,,,,,,,,,,,,,,,,,,,,,,,,,,,,,,,,,,,,,,,,,,,,,,,,,,,,,,,,,,,,,,,,,,,,,,,,,,,,,,,,,,,,,,,,,,,,,,,,,,,,,,,,,,,,,,,,,,,,,,,,,,,,,,,,,,,,,,,,,,,,,,,,,,,,,,
,,,,,,615b2b907ab500ee5de14716,62c53a0b54d8f26fb4f3eecb,2022-07-06_09h49.10.014,Colour_Asymmetry_Pilot,2022.1.3,Win32,60.12506013,62c50e9c1127f2cd403a315f,0,1,1,70,1,fourtwo,,,,,,,,,,,,,,,,,,,,,,,,,,,,,,,,,,,,,,,,,,,,,,,,,,,,,,,,,,,,,,,,,,,,,,,,,,,,,,,,,,,,,,,,,,,,,,,,,,,,,,,,,,,,,,,,,,,,,,,,,,,,,,,,,,,,,,,,,,,,,,,,,,,,,,,,,,,,,,
,,,,,,615b2b907ab500ee5de14716,62c53a0b54d8f26fb4f3eecb,2022-07-06_09h49.10.014,Colour_Asymmetry_Pilot,2022.1.3,Win32,60.12506013,62c50e9c1127f2cd403a315f,0,2,2,83,1,twofour,,,,,,,,,,,,,,,,,,,,,,,,,,,,,,,,,,,,,,,,,,,,,,,,,,,,,,,,,,,,,,,,,,,,,,,,,,,,,,,,,,,,,,,,,,,,,,,,,,,,,,,,,,,,,,,,,,,,,,,,,,,,,,,,,,,,,,,,,,,,,,,,,,,,,,,,,,,,,,
,,,,,,615b2b907ab500ee5de14716,62c53a0b54d8f26fb4f3eecb,2022-07-06_09h49.10.014,Colour_Asymmetry_Pilot,2022.1.3,Win32,60.12506013,62c50e9c1127f2cd403a315f,0,3,3,25,1,onethree,,,,,,,,,,,,,,,,,,,,,,,,,,,,,,,,,,,,,,,,,,,,,,,,,,,,,,,,,,,,,,,,,,,,,,,,,,,,,,,,,,,,,,,,,,,,,,,,,,,,,,,,,,,,,,,,,,,,,,,,,,,,,,,,,,,,,,,,,,,,,,,,,,,,,,,,,,,,,,
,,,,,,615b2b907ab500ee5de14716,62c53a0b54d8f26fb4f3eecb,2022-07-06_09h49.10.014,Colour_Asymmetry_Pilot,2022.1.3,Win32,60.12506013,62c50e9c1127f2cd403a315f,0,4,4,151,1,fourthree,,,,,,,,,,,,,,,,,,,,,,,,,,,,,,,,,,,,,,,,,,,,,,,,,,,,,,,,,,,,,,,,,,,,,,,,,,,,,,,,,,,,,,,,,,,,,,,,,,,,,,,,,,,,,,,,,,,,,,,,,,,,,,,,,,,,,,,,,,,,,,,,,,,,,,,,,,,,,,
,,,,,,615b2b907ab500ee5de14716,62c53a0b54d8f26fb4f3eecb,2022-07-06_09h49.10.014,Colour_Asymmetry_Pilot,2022.1.3,Win32,60.12506013,62c50e9c1127f2cd403a315f,0,5,5,41,1,onethree,,,,,,,,,,,,,,,,,,,,,,,,,,,,,,,,,,,,,,,,,,,,,,,,,,,,,,,,,,,,,,,,,,,,,,,,,,,,,,,,,,,,,,,,,,,,,,,,,,,,,,,,,,,,,,,,,,,,,,,,,,,,,,,,,,,,,,,,,,,,,,,,,,,,,,,,,,,,,,
,,,,,,615b2b907ab500ee5de14716,62c53a0b54d8f26fb4f3eecb,2022-07-06_09h49.10.014,Colour_Asymmetry_Pilot,2022.1.3,Win32,60.12506013,62c50e9c1127f2cd403a315f,0,6,6,135,1,fourthree,,,,,,,,,,,,,,,,,,,,,,,,,,,,,,,,,,,,,,,,,,,,,,,,,,,,,,,,,,,,,,,,,,,,,,,,,,,,,,,,,,,,,,,,,,,,,,,,,,,,,,,,,,,,,,,,,,,,,,,,,,,,,,,,,,,,,,,,,,,,,,,,,,,,,,,,,,,,,,
,,,,,,615b2b907ab500ee5de14716,62c53a0b54d8f26fb4f3eecb,2022-07-06_09h49.10.014,Colour_Asymmetry_Pilot,2022.1.3,Win32,60.12506013,62c50e9c1127f2cd403a315f,0,7,7,64,1,onetwo,,,,,,,,,,,,,,,,,,,,,,,,,,,,,,,,,,,,,,,,,,,,,,,,,,,,,,,,,,,,,,,,,,,,,,,,,,,,,,,,,,,,,,,,,,,,,,,,,,,,,,,,,,,,,,,,,,,,,,,,,,,,,,,,,,,,,,,,,,,,,,,,,,,,,,,,,,,,,,
,,,,,,615b2b907ab500ee5de14716,62c53a0b54d8f26fb4f3eecb,2022-07-06_09h49.10.014,Colour_Asymmetry_Pilot,2022.1.3,Win32,60.12506013,62c50e9c1127f2cd403a315f,0,8,8,115,1,twofour,,,,,,,,,,,,,,,,,,,,,,,,,,,,,,,,,,,,,,,,,,,,,,,,,,,,,,,,,,,,,,,,,,,,,,,,,,,,,,,,,,,,,,,,,,,,,,,,,,,,,,,,,,,,,,,,,,,,,,,,,,,,,,,,,,,,,,,,,,,,,,,,,,,,,,,,,,,,,,
,,,,,,615b2b907ab500ee5de14716,62c53a0b54d8f26fb4f3eecb,2022-07-06_09h49.10.014,Colour_Asymmetry_Pilot,2022.1.3,Win32,60.12506013,62c50e9c1127f2cd403a315f,0,9,9,78,1,fourtwo,,,,,,,,,,,,,,,,,,,,,,,,,,,,,,,,,,,,,,,,,,,,,,,,,,,,,,,,,,,,,,,,,,,,,,,,,,,,,,,,,,,,,,,,,,,,,,,,,,,,,,,,,,,,,,,,,,,,,,,,,,,,,,,,,,,,,,,,,,,,,,,,,,,,,,,,,,,,,,
,,,,,,615b2b907ab500ee5de14716,62c53a0b54d8f26fb4f3eecb,2022-07-06_09h49.10.014,Colour_Asymmetry_Pilot,2022.1.3,Win32,60.12506013,62c50e9c1127f2cd403a315f,0,10,10,101,1,threefour,,,,,,,,,,,,,,,,,,,,,,,,,,,,,,,,,,,,,,,,,,,,,,,,,,,,,,,,,,,,,,,,,,,,,,,,,,,,,,,,,,,,,,,,,,,,,,,,,,,,,,,,,,,,,,,,,,,,,,,,,,,,,,,,,,,,,,,,,,,,,,,,,,,,,,,,,,,,,,
,,,,,,615b2b907ab500ee5de14716,62c53a0b54d8f26fb4f3eecb,2022-07-06_09h49.10.014,Colour_Asymmetry_Pilot,2022.1.3,Win32,60.12506013,62c50e9c1127f2cd403a315f,0,11,11,59,1,twofour,,,,,,,,,,,,,,,,,,,,,,,,,,,,,,,,,,,,,,,,,,,,,,,,,,,,,,,,,,,,,,,,,,,,,,,,,,,,,,,,,,,,,,,,,,,,,,,,,,,,,,,,,,,,,,,,,,,,,,,,,,,,,,,,,,,,,,,,,,,,,,,,,,,,,,,,,,,,,,
,,,,,,615b2b907ab500ee5de14716,62c53a0b54d8f26fb4f3eecb,2022-07-06_09h49.10.014,Colour_Asymmetry_Pilot,2022.1.3,Win32,60.12506013,62c50e9c1127f2cd403a315f,0,12,12,42,1,twoone,,,,,,,,,,,,,,,,,,,,,,,,,,,,,,,,,,,,,,,,,,,,,,,,,,,,,,,,,,,,,,,,,,,,,,,,,,,,,,,,,,,,,,,,,,,,,,,,,,,,,,,,,,,,,,,,,,,,,,,,,,,,,,,,,,,,,,,,,,,,,,,,,,,,,,,,,,,,,,
,,,,,,615b2b907ab500ee5de14716,62c53a0b54d8f26fb4f3eecb,2022-07-06_09h49.10.014,Colour_Asymmetry_Pilot,2022.1.3,Win32,60.12506013,62c50e9c1127f2cd403a315f,0,13,13,43,1,twofour,,,,,,,,,,,,,,,,,,,,,,,,,,,,,,,,,,,,,,,,,,,,,,,,,,,,,,,,,,,,,,,,,,,,,,,,,,,,,,,,,,,,,,,,,,,,,,,,,,,,,,,,,,,,,,,,,,,,,,,,,,,,,,,,,,,,,,,,,,,,,,,,,,,,,,,,,,,,,,
,,,,,,615b2b907ab500ee5de14716,62c53a0b54d8f26fb4f3eecb,2022-07-06_09h49.10.014,Colour_Asymmetry_Pilot,2022.1.3,Win32,60.12506013,62c50e9c1127f2cd403a315f,0,14,14,2,1,twoone,,,,,,,,,,,,,,,,,,,,,,,,,,,,,,,,,,,,,,,,,,,,,,,,,,,,,,,,,,,,,,,,,,,,,,,,,,,,,,,,,,,,,,,,,,,,,,,,,,,,,,,,,,,,,,,,,,,,,,,,,,,,,,,,,,,,,,,,,,,,,,,,,,,,,,,,,,,,,,
,,,,,,615b2b907ab500ee5de14716,62c53a0b54d8f26fb4f3eecb,2022-07-06_09h49.10.014,Colour_Asymmetry_Pilot,2022.1.3,Win32,60.12506013,62c50e9c1127f2cd403a315f,0,15,15,57,1,onethree,,,,,,,,,,,,,,,,,,,,,,,,,,,,,,,,,,,,,,,,,,,,,,,,,,,,,,,,,,,,,,,,,,,,,,,,,,,,,,,,,,,,,,,,,,,,,,,,,,,,,,,,,,,,,,,,,,,,,,,,,,,,,,,,,,,,,,,,,,,,,,,,,,,,,,,,,,,,,,
,,,,,,615b2b907ab500ee5de14716,62c53a0b54d8f26fb4f3eecb,2022-07-06_09h49.10.014,Colour_Asymmetry_Pilot,2022.1.3,Win32,60.12506013,62c50e9c1127f2cd403a315f,0,16,16,113,1,onethree,,,,,,,,,,,,,,,,,,,,,,,,,,,,,,,,,,,,,,,,,,,,,,,,,,,,,,,,,,,,,,,,,,,,,,,,,,,,,,,,,,,,,,,,,,,,,,,,,,,,,,,,,,,,,,,,,,,,,,,,,,,,,,,,,,,,,,,,,,,,,,,,,,,,,,,,,,,,,,
,,,,,,615b2b907ab500ee5de14716,62c53a0b54d8f26fb4f3eecb,2022-07-06_09h49.10.014,Colour_Asymmetry_Pilot,2022.1.3,Win32,60.12506013,62c50e9c1127f2cd403a315f,0,17,17,86,1,fourtwo,,,,,,,,,,,,,,,,,,,,,,,,,,,,,,,,,,,,,,,,,,,,,,,,,,,,,,,,,,,,,,,,,,,,,,,,,,,,,,,,,,,,,,,,,,,,,,,,,,,,,,,,,,,,,,,,,,,,,,,,,,,,,,,,,,,,,,,,,,,,,,,,,,,,,,,,,,,,,,
,,,,,,615b2b907ab500ee5de14716,62c53a0b54d8f26fb4f3eecb,2022-07-06_09h49.10.014,Colour_Asymmetry_Pilot,2022.1.3,Win32,60.12506013,62c50e9c1127f2cd403a315f,0,18,18,85,1,threefour,,,,,,,,,,,,,,,,,,,,,,,,,,,,,,,,,,,,,,,,,,,,,,,,,,,,,,,,,,,,,,,,,,,,,,,,,,,,,,,,,,,,,,,,,,,,,,,,,,,,,,,,,,,,,,,,,,,,,,,,,,,,,,,,,,,,,,,,,,,,,,,,,,,,,,,,,,,,,,
,,,,,,615b2b907ab500ee5de14716,62c53a0b54d8f26fb4f3eecb,2022-07-06_09h49.10.014,Colour_Asymmetry_Pilot,2022.1.3,Win32,60.12506013,62c50e9c1127f2cd403a315f,0,19,19,139,1,twofour,,,,,,,,,,,,,,,,,,,,,,,,,,,,,,,,,,,,,,,,,,,,,,,,,,,,,,,,,,,,,,,,,,,,,,,,,,,,,,,,,,,,,,,,,,,,,,,,,,,,,,,,,,,,,,,,,,,,,,,,,,,,,,,,,,,,,,,,,,,,,,,,,,,,,,,,,,,,,,
,,,,,,615b2b907ab500ee5de14716,62c53a0b54d8f26fb4f3eecb,2022-07-06_09h49.10.014,Colour_Asymmetry_Pilot,2022.1.3,Win32,60.12506013,62c50e9c1127f2cd403a315f,0,20,20,87,1,fourthree,,,,,,,,,,,,,,,,,,,,,,,,,,,,,,,,,,,,,,,,,,,,,,,,,,,,,,,,,,,,,,,,,,,,,,,,,,,,,,,,,,,,,,,,,,,,,,,,,,,,,,,,,,,,,,,,,,,,,,,,,,,,,,,,,,,,,,,,,,,,,,,,,,,,,,,,,,,,,,
,,,,,,615b2b907ab500ee5de14716,62c53a0b54d8f26fb4f3eecb,2022-07-06_09h49.10.014,Colour_Asymmetry_Pilot,2022.1.3,Win32,60.12506013,62c50e9c1127f2cd403a315f,0,21,21,108,1,threeone,,,,,,,,,,,,,,,,,,,,,,,,,,,,,,,,,,,,,,,,,,,,,,,,,,,,,,,,,,,,,,,,,,,,,,,,,,,,,,,,,,,,,,,,,,,,,,,,,,,,,,,,,,,,,,,,,,,,,,,,,,,,,,,,,,,,,,,,,,,,,,,,,,,,,,,,,,,,,,
,,,,,,615b2b907ab500ee5de14716,62c53a0b54d8f26fb4f3eecb,2022-07-06_09h49.10.014,Colour_Asymmetry_Pilot,2022.1.3,Win32,60.12506013,62c50e9c1127f2cd403a315f,0,22,22,13,1,threefour,,,,,,,,,,,,,,,,,,,,,,,,,,,,,,,,,,,,,,,,,,,,,,,,,,,,,,,,,,,,,,,,,,,,,,,,,,,,,,,,,,,,,,,,,,,,,,,,,,,,,,,,,,,,,,,,,,,,,,,,,,,,,,,,,,,,,,,,,,,,,,,,,,,,,,,,,,,,,,
,,,,,,615b2b907ab500ee5de14716,62c53a0b54d8f26fb4f3eecb,2022-07-06_09h49.10.014,Colour_Asymmetry_Pilot,2022.1.3,Win32,60.12506013,62c50e9c1127f2cd403a315f,0,23,23,11,1,twofour,,,,,,,,,,,,,,,,,,,,,,,,,,,,,,,,,,,,,,,,,,,,,,,,,,,,,,,,,,,,,,,,,,,,,,,,,,,,,,,,,,,,,,,,,,,,,,,,,,,,,,,,,,,,,,,,,,,,,,,,,,,,,,,,,,,,,,,,,,,,,,,,,,,,,,,,,,,,,,
,,,,,,615b2b907ab500ee5de14716,62c53a0b54d8f26fb4f3eecb,2022-07-06_09h49.10.014,Colour_Asymmetry_Pilot,2022.1.3,Win32,60.12506013,62c50e9c1127f2cd403a315f,0,24,24,33,1,onethree,,,,,,,,,,,,,,,,,,,,,,,,,,,,,,,,,,,,,,,,,,,,,,,,,,,,,,,,,,,,,,,,,,,,,,,,,,,,,,,,,,,,,,,,,,,,,,,,,,,,,,,,,,,,,,,,,,,,,,,,,,,,,,,,,,,,,,,,,,,,,,,,,,,,,,,,,,,,,,
,,,,,,615b2b907ab500ee5de14716,62c53a0b54d8f26fb4f3eecb,2022-07-06_09h49.10.014,Colour_Asymmetry_Pilot,2022.1.3,Win32,60.12506013,62c50e9c1127f2cd403a315f,0,25,25,52,1,threeone,,,,,,,,,,,,,,,,,,,,,,,,,,,,,,,,,,,,,,,,,,,,,,,,,,,,,,,,,,,,,,,,,,,,,,,,,,,,,,,,,,,,,,,,,,,,,,,,,,,,,,,,,,,,,,,,,,,,,,,,,,,,,,,,,,,,,,,,,,,,,,,,,,,,,,,,,,,,,,
,,,,,,615b2b907ab500ee5de14716,62c53a0b54d8f26fb4f3eecb,2022-07-06_09h49.10.014,Colour_Asymmetry_Pilot,2022.1.3,Win32,60.12506013,62c50e9c1127f2cd403a315f,0,26,26,15,1,fourthree,,,,,,,,,,,,,,,,,,,,,,,,,,,,,,,,,,,,,,,,,,,,,,,,,,,,,,,,,,,,,,,,,,,,,,,,,,,,,,,,,,,,,,,,,,,,,,,,,,,,,,,,,,,,,,,,,,,,,,,,,,,,,,,,,,,,,,,,,,,,,,,,,,,,,,,,,,,,,,
,,,,,,615b2b907ab500ee5de14716,62c53a0b54d8f26fb4f3eecb,2022-07-06_09h49.10.014,Colour_Asymmetry_Pilot,2022.1.3,Win32,60.12506013,62c50e9c1127f2cd403a315f,0,27,27,3,1,twofour,,,,,,,,,,,,,,,,,,,,,,,,,,,,,,,,,,,,,,,,,,,,,,,,,,,,,,,,,,,,,,,,,,,,,,,,,,,,,,,,,,,,,,,,,,,,,,,,,,,,,,,,,,,,,,,,,,,,,,,,,,,,,,,,,,,,,,,,,,,,,,,,,,,,,,,,,,,,,,
,,,,,,615b2b907ab500ee5de14716,62c53a0b54d8f26fb4f3eecb,2022-07-06_09h49.10.014,Colour_Asymmetry_Pilot,2022.1.3,Win32,60.12506013,62c50e9c1127f2cd403a315f,0,28,28,5,1,threefour,,,,,,,,,,,,,,,,,,,,,,,,,,,,,,,,,,,,,,,,,,,,,,,,,,,,,,,,,,,,,,,,,,,,,,,,,,,,,,,,,,,,,,,,,,,,,,,,,,,,,,,,,,,,,,,,,,,,,,,,,,,,,,,,,,,,,,,,,,,,,,,,,,,,,,,,,,,,,,
,,,,,,615b2b907ab500ee5de14716,62c53a0b54d8f26fb4f3eecb,2022-07-06_09h49.10.014,Colour_Asymmetry_Pilot,2022.1.3,Win32,60.12506013,62c50e9c1127f2cd403a315f,0,29,29,91,1,twofour,,,,,,,,,,,,,,,,,,,,,,,,,,,,,,,,,,,,,,,,,,,,,,,,,,,,,,,,,,,,,,,,,,,,,,,,,,,,,,,,,,,,,,,,,,,,,,,,,,,,,,,,,,,,,,,,,,,,,,,,,,,,,,,,,,,,,,,,,,,,,,,,,,,,,,,,,,,,,,
,,,,,,615b2b907ab500ee5de14716,62c53a0b54d8f26fb4f3eecb,2022-07-06_09h49.10.014,Colour_Asymmetry_Pilot,2022.1.3,Win32,60.12506013,62c50e9c1127f2cd403a315f,0,30,30,65,1,onethree,,,,,,,,,,,,,,,,,,,,,,,,,,,,,,,,,,,,,,,,,,,,,,,,,,,,,,,,,,,,,,,,,,,,,,,,,,,,,,,,,,,,,,,,,,,,,,,,,,,,,,,,,,,,,,,,,,,,,,,,,,,,,,,,,,,,,,,,,,,,,,,,,,,,,,,,,,,,,,
,,,,,,615b2b907ab500ee5de14716,62c53a0b54d8f26fb4f3eecb,2022-07-06_09h49.10.014,Colour_Asymmetry_Pilot,2022.1.3,Win32,60.12506013,62c50e9c1127f2cd403a315f,0,31,31,50,1,twoone,,,,,,,,,,,,,,,,,,,,,,,,,,,,,,,,,,,,,,,,,,,,,,,,,,,,,,,,,,,,,,,,,,,,,,,,,,,,,,,,,,,,,,,,,,,,,,,,,,,,,,,,,,,,,,,,,,,,,,,,,,,,,,,,,,,,,,,,,,,,,,,,,,,,,,,,,,,,,,
,,,,,,615b2b907ab500ee5de14716,62c53a0b54d8f26fb4f3eecb,2022-07-06_09h49.10.014,Colour_Asymmetry_Pilot,2022.1.3,Win32,60.12506013,62c50e9c1127f2cd403a315f,0,32,32,144,1,onetwo,,,,,,,,,,,,,,,,,,,,,,,,,,,,,,,,,,,,,,,,,,,,,,,,,,,,,,,,,,,,,,,,,,,,,,,,,,,,,,,,,,,,,,,,,,,,,,,,,,,,,,,,,,,,,,,,,,,,,,,,,,,,,,,,,,,,,,,,,,,,,,,,,,,,,,,,,,,,,,
,,,,,,615b2b907ab500ee5de14716,62c53a0b54d8f26fb4f3eecb,2022-07-06_09h49.10.014,Colour_Asymmetry_Pilot,2022.1.3,Win32,60.12506013,62c50e9c1127f2cd403a315f,0,33,33,105,1,onethree,,,,,,,,,,,,,,,,,,,,,,,,,,,,,,,,,,,,,,,,,,,,,,,,,,,,,,,,,,,,,,,,,,,,,,,,,,,,,,,,,,,,,,,,,,,,,,,,,,,,,,,,,,,,,,,,,,,,,,,,,,,,,,,,,,,,,,,,,,,,,,,,,,,,,,,,,,,,,,
,,,,,,615b2b907ab500ee5de14716,62c53a0b54d8f26fb4f3eecb,2022-07-06_09h49.10.014,Colour_Asymmetry_Pilot,2022.1.3,Win32,60.12506013,62c50e9c1127f2cd403a315f,0,34,34,142,1,fourtwo,,,,,,,,,,,,,,,,,,,,,,,,,,,,,,,,,,,,,,,,,,,,,,,,,,,,,,,,,,,,,,,,,,,,,,,,,,,,,,,,,,,,,,,,,,,,,,,,,,,,,,,,,,,,,,,,,,,,,,,,,,,,,,,,,,,,,,,,,,,,,,,,,,,,,,,,,,,,,,
,,,,,,615b2b907ab500ee5de14716,62c53a0b54d8f26fb4f3eecb,2022-07-06_09h49.10.014,Colour_Asymmetry_Pilot,2022.1.3,Win32,60.12506013,62c50e9c1127f2cd403a315f,0,35,35,128,1,onetwo,,,,,,,,,,,,,,,,,,,,,,,,,,,,,,,,,,,,,,,,,,,,,,,,,,,,,,,,,,,,,,,,,,,,,,,,,,,,,,,,,,,,,,,,,,,,,,,,,,,,,,,,,,,,,,,,,,,,,,,,,,,,,,,,,,,,,,,,,,,,,,,,,,,,,,,,,,,,,,
,,,,,,615b2b907ab500ee5de14716,62c53a0b54d8f26fb4f3eecb,2022-07-06_09h49.10.014,Colour_Asymmetry_Pilot,2022.1.3,Win32,60.12506013,62c50e9c1127f2cd403a315f,0,36,36,34,1,twoone,,,,,,,,,,,,,,,,,,,,,,,,,,,,,,,,,,,,,,,,,,,,,,,,,,,,,,,,,,,,,,,,,,,,,,,,,,,,,,,,,,,,,,,,,,,,,,,,,,,,,,,,,,,,,,,,,,,,,,,,,,,,,,,,,,,,,,,,,,,,,,,,,,,,,,,,,,,,,,
,,,,,,615b2b907ab500ee5de14716,62c53a0b54d8f26fb4f3eecb,2022-07-06_09h49.10.014,Colour_Asymmetry_Pilot,2022.1.3,Win32,60.12506013,62c50e9c1127f2cd403a315f,0,37,37,122,1,twoone,,,,,,,,,,,,,,,,,,,,,,,,,,,,,,,,,,,,,,,,,,,,,,,,,,,,,,,,,,,,,,,,,,,,,,,,,,,,,,,,,,,,,,,,,,,,,,,,,,,,,,,,,,,,,,,,,,,,,,,,,,,,,,,,,,,,,,,,,,,,,,,,,,,,,,,,,,,,,,
,,,,,,615b2b907ab500ee5de14716,62c53a0b54d8f26fb4f3eecb,2022-07-06_09h49.10.014,Colour_Asymmetry_Pilot,2022.1.3,Win32,60.12506013,62c50e9c1127f2cd403a315f,0,38,38,54,1,fourtwo,,,,,,,,,,,,,,,,,,,,,,,,,,,,,,,,,,,,,,,,,,,,,,,,,,,,,,,,,,,,,,,,,,,,,,,,,,,,,,,,,,,,,,,,,,,,,,,,,,,,,,,,,,,,,,,,,,,,,,,,,,,,,,,,,,,,,,,,,,,,,,,,,,,,,,,,,,,,,,
,,,,,,615b2b907ab500ee5de14716,62c53a0b54d8f26fb4f3eecb,2022-07-06_09h49.10.014,Colour_Asymmetry_Pilot,2022.1.3,Win32,60.12506013,62c50e9c1127f2cd403a315f,0,39,39,23,1,fourthree,,,,,,,,,,,,,,,,,,,,,,,,,,,,,,,,,,,,,,,,,,,,,,,,,,,,,,,,,,,,,,,,,,,,,,,,,,,,,,,,,,,,,,,,,,,,,,,,,,,,,,,,,,,,,,,,,,,,,,,,,,,,,,,,,,,,,,,,,,,,,,,,,,,,,,,,,,,,,,
,,,,,,615b2b907ab500ee5de14716,62c53a0b54d8f26fb4f3eecb,2022-07-06_09h49.10.014,Colour_Asymmetry_Pilot,2022.1.3,Win32,60.12506013,62c50e9c1127f2cd403a315f,0,40,40,136,1,onetwo,,,,,,,,,,,,,,,,,,,,,,,,,,,,,,,,,,,,,,,,,,,,,,,,,,,,,,,,,,,,,,,,,,,,,,,,,,,,,,,,,,,,,,,,,,,,,,,,,,,,,,,,,,,,,,,,,,,,,,,,,,,,,,,,,,,,,,,,,,,,,,,,,,,,,,,,,,,,,,
,,,,,,615b2b907ab500ee5de14716,62c53a0b54d8f26fb4f3eecb,2022-07-06_09h49.10.014,Colour_Asymmetry_Pilot,2022.1.3,Win32,60.12506013,62c50e9c1127f2cd403a315f,0,41,41,106,1,twoone,,,,,,,,,,,,,,,,,,,,,,,,,,,,,,,,,,,,,,,,,,,,,,,,,,,,,,,,,,,,,,,,,,,,,,,,,,,,,,,,,,,,,,,,,,,,,,,,,,,,,,,,,,,,,,,,,,,,,,,,,,,,,,,,,,,,,,,,,,,,,,,,,,,,,,,,,,,,,,
,,,,,,615b2b907ab500ee5de14716,62c53a0b54d8f26fb4f3eecb,2022-07-06_09h49.10.014,Colour_Asymmetry_Pilot,2022.1.3,Win32,60.12506013,62c50e9c1127f2cd403a315f,0,42,42,131,1,twofour,,,,,,,,,,,,,,,,,,,,,,,,,,,,,,,,,,,,,,,,,,,,,,,,,,,,,,,,,,,,,,,,,,,,,,,,,,,,,,,,,,,,,,,,,,,,,,,,,,,,,,,,,,,,,,,,,,,,,,,,,,,,,,,,,,,,,,,,,,,,,,,,,,,,,,,,,,,,,,
,,,,,,615b2b907ab500ee5de14716,62c53a0b54d8f26fb4f3eecb,2022-07-06_09h49.10.014,Colour_Asymmetry_Pilot,2022.1.3,Win32,60.12506013,62c50e9c1127f2cd403a315f,0,43,43,80,1,onetwo,,,,,,,,,,,,,,,,,,,,,,,,,,,,,,,,,,,,,,,,,,,,,,,,,,,,,,,,,,,,,,,,,,,,,,,,,,,,,,,,,,,,,,,,,,,,,,,,,,,,,,,,,,,,,,,,,,,,,,,,,,,,,,,,,,,,,,,,,,,,,,,,,,,,,,,,,,,,,,
,,,,,,615b2b907ab500ee5de14716,62c53a0b54d8f26fb4f3eecb,2022-07-06_09h49.10.014,Colour_Asymmetry_Pilot,2022.1.3,Win32,60.12506013,62c50e9c1127f2cd403a315f,0,44,44,109,1,threefour,,,,,,,,,,,,,,,,,,,,,,,,,,,,,,,,,,,,,,,,,,,,,,,,,,,,,,,,,,,,,,,,,,,,,,,,,,,,,,,,,,,,,,,,,,,,,,,,,,,,,,,,,,,,,,,,,,,,,,,,,,,,,,,,,,,,,,,,,,,,,,,,,,,,,,,,,,,,,,
,,,,,,615b2b907ab500ee5de14716,62c53a0b54d8f26fb4f3eecb,2022-07-06_09h49.10.014,Colour_Asymmetry_Pilot,2022.1.3,Win32,60.12506013,62c50e9c1127f2cd403a315f,0,45,45,51,1,twofour,,,,,,,,,,,,,,,,,,,,,,,,,,,,,,,,,,,,,,,,,,,,,,,,,,,,,,,,,,,,,,,,,,,,,,,,,,,,,,,,,,,,,,,,,,,,,,,,,,,,,,,,,,,,,,,,,,,,,,,,,,,,,,,,,,,,,,,,,,,,,,,,,,,,,,,,,,,,,,
,,,,,,615b2b907ab500ee5de14716,62c53a0b54d8f26fb4f3eecb,2022-07-06_09h49.10.014,Colour_Asymmetry_Pilot,2022.1.3,Win32,60.12506013,62c50e9c1127f2cd403a315f,0,46,46,18,1,twoone,,,,,,,,,,,,,,,,,,,,,,,,,,,,,,,,,,,,,,,,,,,,,,,,,,,,,,,,,,,,,,,,,,,,,,,,,,,,,,,,,,,,,,,,,,,,,,,,,,,,,,,,,,,,,,,,,,,,,,,,,,,,,,,,,,,,,,,,,,,,,,,,,,,,,,,,,,,,,,
,,,,,,615b2b907ab500ee5de14716,62c53a0b54d8f26fb4f3eecb,2022-07-06_09h49.10.014,Colour_Asymmetry_Pilot,2022.1.3,Win32,60.12506013,62c50e9c1127f2cd403a315f,0,47,47,31,1,fourthree,,,,,,,,,,,,,,,,,,,,,,,,,,,,,,,,,,,,,,,,,,,,,,,,,,,,,,,,,,,,,,,,,,,,,,,,,,,,,,,,,,,,,,,,,,,,,,,,,,,,,,,,,,,,,,,,,,,,,,,,,,,,,,,,,,,,,,,,,,,,,,,,,,,,,,,,,,,,,,
,,,,,,615b2b907ab500ee5de14716,62c53a0b54d8f26fb4f3eecb,2022-07-06_09h49.10.014,Colour_Asymmetry_Pilot,2022.1.3,Win32,60.12506013,62c50e9c1127f2cd403a315f,0,48,48,125,1,threefour,,,,,,,,,,,,,,,,,,,,,,,,,,,,,,,,,,,,,,,,,,,,,,,,,,,,,,,,,,,,,,,,,,,,,,,,,,,,,,,,,,,,,,,,,,,,,,,,,,,,,,,,,,,,,,,,,,,,,,,,,,,,,,,,,,,,,,,,,,,,,,,,,,,,,,,,,,,,,,
,,,,,,615b2b907ab500ee5de14716,62c53a0b54d8f26fb4f3eecb,2022-07-06_09h49.10.014,Colour_Asymmetry_Pilot,2022.1.3,Win32,60.12506013,62c50e9c1127f2cd403a315f,0,49,49,148,1,threeone,,,,,,,,,,,,,,,,,,,,,,,,,,,,,,,,,,,,,,,,,,,,,,,,,,,,,,,,,,,,,,,,,,,,,,,,,,,,,,,,,,,,,,,,,,,,,,,,,,,,,,,,,,,,,,,,,,,,,,,,,,,,,,,,,,,,,,,,,,,,,,,,,,,,,,,,,,,,,,
,,,,,,615b2b907ab500ee5de14716,62c53a0b54d8f26fb4f3eecb,2022-07-06_09h49.10.014,Colour_Asymmetry_Pilot,2022.1.3,Win32,60.12506013,62c50e9c1127f2cd403a315f,0,50,50,99,1,twofour,,,,,,,,,,,,,,,,,,,,,,,,,,,,,,,,,,,,,,,,,,,,,,,,,,,,,,,,,,,,,,,,,,,,,,,,,,,,,,,,,,,,,,,,,,,,,,,,,,,,,,,,,,,,,,,,,,,,,,,,,,,,,,,,,,,,,,,,,,,,,,,,,,,,,,,,,,,,,,
,,,,,,615b2b907ab500ee5de14716,62c53a0b54d8f26fb4f3eecb,2022-07-06_09h49.10.014,Colour_Asymmetry_Pilot,2022.1.3,Win32,60.12506013,62c50e9c1127f2cd403a315f,0,51,51,30,1,fourtwo,,,,,,,,,,,,,,,,,,,,,,,,,,,,,,,,,,,,,,,,,,,,,,,,,,,,,,,,,,,,,,,,,,,,,,,,,,,,,,,,,,,,,,,,,,,,,,,,,,,,,,,,,,,,,,,,,,,,,,,,,,,,,,,,,,,,,,,,,,,,,,,,,,,,,,,,,,,,,,
,,,,,,615b2b907ab500ee5de14716,62c53a0b54d8f26fb4f3eecb,2022-07-06_09h49.10.014,Colour_Asymmetry_Pilot,2022.1.3,Win32,60.12506013,62c50e9c1127f2cd403a315f,0,52,52,82,1,twoone,,,,,,,,,,,,,,,,,,,,,,,,,,,,,,,,,,,,,,,,,,,,,,,,,,,,,,,,,,,,,,,,,,,,,,,,,,,,,,,,,,,,,,,,,,,,,,,,,,,,,,,,,,,,,,,,,,,,,,,,,,,,,,,,,,,,,,,,,,,,,,,,,,,,,,,,,,,,,,
,,,,,,615b2b907ab500ee5de14716,62c53a0b54d8f26fb4f3eecb,2022-07-06_09h49.10.014,Colour_Asymmetry_Pilot,2022.1.3,Win32,60.12506013,62c50e9c1127f2cd403a315f,0,53,53,7,1,fourthree,,,,,,,,,,,,,,,,,,,,,,,,,,,,,,,,,,,,,,,,,,,,,,,,,,,,,,,,,,,,,,,,,,,,,,,,,,,,,,,,,,,,,,,,,,,,,,,,,,,,,,,,,,,,,,,,,,,,,,,,,,,,,,,,,,,,,,,,,,,,,,,,,,,,,,,,,,,,,,
,,,,,,615b2b907ab500ee5de14716,62c53a0b54d8f26fb4f3eecb,2022-07-06_09h49.10.014,Colour_Asymmetry_Pilot,2022.1.3,Win32,60.12506013,62c50e9c1127f2cd403a315f,0,54,54,98,1,twoone,,,,,,,,,,,,,,,,,,,,,,,,,,,,,,,,,,,,,,,,,,,,,,,,,,,,,,,,,,,,,,,,,,,,,,,,,,,,,,,,,,,,,,,,,,,,,,,,,,,,,,,,,,,,,,,,,,,,,,,,,,,,,,,,,,,,,,,,,,,,,,,,,,,,,,,,,,,,,,
,,,,,,615b2b907ab500ee5de14716,62c53a0b54d8f26fb4f3eecb,2022-07-06_09h49.10.014,Colour_Asymmetry_Pilot,2022.1.3,Win32,60.12506013,62c50e9c1127f2cd403a315f,0,55,55,69,1,threefour,,,,,,,,,,,,,,,,,,,,,,,,,,,,,,,,,,,,,,,,,,,,,,,,,,,,,,,,,,,,,,,,,,,,,,,,,,,,,,,,,,,,,,,,,,,,,,,,,,,,,,,,,,,,,,,,,,,,,,,,,,,,,,,,,,,,,,,,,,,,,,,,,,,,,,,,,,,,,,
,,,,,,615b2b907ab500ee5de14716,62c53a0b54d8f26fb4f3eecb,2022-07-06_09h49.10.014,Colour_Asymmetry_Pilot,2022.1.3,Win32,60.12506013,62c50e9c1127f2cd403a315f,0,56,56,153,1,onethree,,,,,,,,,,,,,,,,,,,,,,,,,,,,,,,,,,,,,,,,,,,,,,,,,,,,,,,,,,,,,,,,,,,,,,,,,,,,,,,,,,,,,,,,,,,,,,,,,,,,,,,,,,,,,,,,,,,,,,,,,,,,,,,,,,,,,,,,,,,,,,,,,,,,,,,,,,,,,,
,,,,,,615b2b907ab500ee5de14716,62c53a0b54d8f26fb4f3eecb,2022-07-06_09h49.10.014,Colour_Asymmetry_Pilot,2022.1.3,Win32,60.12506013,62c50e9c1127f2cd403a315f,0,57,57,95,1,fourthree,,,,,,,,,,,,,,,,,,,,,,,,,,,,,,,,,,,,,,,,,,,,,,,,,,,,,,,,,,,,,,,,,,,,,,,,,,,,,,,,,,,,,,,,,,,,,,,,,,,,,,,,,,,,,,,,,,,,,,,,,,,,,,,,,,,,,,,,,,,,,,,,,,,,,,,,,,,,,,
,,,,,,615b2b907ab500ee5de14716,62c53a0b54d8f26fb4f3eecb,2022-07-06_09h49.10.014,Colour_Asymmetry_Pilot,2022.1.3,Win32,60.12506013,62c50e9c1127f2cd403a315f,0,58,58,45,1,threefour,,,,,,,,,,,,,,,,,,,,,,,,,,,,,,,,,,,,,,,,,,,,,,,,,,,,,,,,,,,,,,,,,,,,,,,,,,,,,,,,,,,,,,,,,,,,,,,,,,,,,,,,,,,,,,,,,,,,,,,,,,,,,,,,,,,,,,,,,,,,,,,,,,,,,,,,,,,,,,
,,,,,,615b2b907ab500ee5de14716,62c53a0b54d8f26fb4f3eecb,2022-07-06_09h49.10.014,Colour_Asymmetry_Pilot,2022.1.3,Win32,60.12506013,62c50e9c1127f2cd403a315f,0,59,59,156,1,threeone,,,,,,,,,,,,,,,,,,,,,,,,,,,,,,,,,,,,,,,,,,,,,,,,,,,,,,,,,,,,,,,,,,,,,,,,,,,,,,,,,,,,,,,,,,,,,,,,,,,,,,,,,,,,,,,,,,,,,,,,,,,,,,,,,,,,,,,,,,,,,,,,,,,,,,,,,,,,,,
,,,,,,615b2b907ab500ee5de14716,62c53a0b54d8f26fb4f3eecb,2022-07-06_09h49.10.014,Colour_Asymmetry_Pilot,2022.1.3,Win32,60.12506013,62c50e9c1127f2cd403a315f,0,60,60,92,1,threeone,,,,,,,,,,,,,,,,,,,,,,,,,,,,,,,,,,,,,,,,,,,,,,,,,,,,,,,,,,,,,,,,,,,,,,,,,,,,,,,,,,,,,,,,,,,,,,,,,,,,,,,,,,,,,,,,,,,,,,,,,,,,,,,,,,,,,,,,,,,,,,,,,,,,,,,,,,,,,,
,,,,,,615b2b907ab500ee5de14716,62c53a0b54d8f26fb4f3eecb,2022-07-06_09h49.10.014,Colour_Asymmetry_Pilot,2022.1.3,Win32,60.12506013,62c50e9c1127f2cd403a315f,0,61,61,152,1,onetwo,,,,,,,,,,,,,,,,,,,,,,,,,,,,,,,,,,,,,,,,,,,,,,,,,,,,,,,,,,,,,,,,,,,,,,,,,,,,,,,,,,,,,,,,,,,,,,,,,,,,,,,,,,,,,,,,,,,,,,,,,,,,,,,,,,,,,,,,,,,,,,,,,,,,,,,,,,,,,,
,,,,,,615b2b907ab500ee5de14716,62c53a0b54d8f26fb4f3eecb,2022-07-06_09h49.10.014,Colour_Asymmetry_Pilot,2022.1.3,Win32,60.12506013,62c50e9c1127f2cd403a315f,0,62,62,16,1,onetwo,,,,,,,,,,,,,,,,,,,,,,,,,,,,,,,,,,,,,,,,,,,,,,,,,,,,,,,,,,,,,,,,,,,,,,,,,,,,,,,,,,,,,,,,,,,,,,,,,,,,,,,,,,,,,,,,,,,,,,,,,,,,,,,,,,,,,,,,,,,,,,,,,,,,,,,,,,,,,,
,,,,,,615b2b907ab500ee5de14716,62c53a0b54d8f26fb4f3eecb,2022-07-06_09h49.10.014,Colour_Asymmetry_Pilot,2022.1.3,Win32,60.12506013,62c50e9c1127f2cd403a315f,0,63,63,143,1,fourthree,,,,,,,,,,,,,,,,,,,,,,,,,,,,,,,,,,,,,,,,,,,,,,,,,,,,,,,,,,,,,,,,,,,,,,,,,,,,,,,,,,,,,,,,,,,,,,,,,,,,,,,,,,,,,,,,,,,,,,,,,,,,,,,,,,,,,,,,,,,,,,,,,,,,,,,,,,,,,,
,,,,,,615b2b907ab500ee5de14716,62c53a0b54d8f26fb4f3eecb,2022-07-06_09h49.10.014,Colour_Asymmetry_Pilot,2022.1.3,Win32,60.12506013,62c50e9c1127f2cd403a315f,0,64,64,53,1,threefour,,,,,,,,,,,,,,,,,,,,,,,,,,,,,,,,,,,,,,,,,,,,,,,,,,,,,,,,,,,,,,,,,,,,,,,,,,,,,,,,,,,,,,,,,,,,,,,,,,,,,,,,,,,,,,,,,,,,,,,,,,,,,,,,,,,,,,,,,,,,,,,,,,,,,,,,,,,,,,
,,,,,,615b2b907ab500ee5de14716,62c53a0b54d8f26fb4f3eecb,2022-07-06_09h49.10.014,Colour_Asymmetry_Pilot,2022.1.3,Win32,60.12506013,62c50e9c1127f2cd403a315f,0,65,65,120,1,onetwo,,,,,,,,,,,,,,,,,,,,,,,,,,,,,,,,,,,,,,,,,,,,,,,,,,,,,,,,,,,,,,,,,,,,,,,,,,,,,,,,,,,,,,,,,,,,,,,,,,,,,,,,,,,,,,,,,,,,,,,,,,,,,,,,,,,,,,,,,,,,,,,,,,,,,,,,,,,,,,
,,,,,,615b2b907ab500ee5de14716,62c53a0b54d8f26fb4f3eecb,2022-07-06_09h49.10.014,Colour_Asymmetry_Pilot,2022.1.3,Win32,60.12506013,62c50e9c1127f2cd403a315f,0,66,66,140,1,threeone,,,,,,,,,,,,,,,,,,,,,,,,,,,,,,,,,,,,,,,,,,,,,,,,,,,,,,,,,,,,,,,,,,,,,,,,,,,,,,,,,,,,,,,,,,,,,,,,,,,,,,,,,,,,,,,,,,,,,,,,,,,,,,,,,,,,,,,,,,,,,,,,,,,,,,,,,,,,,,
,,,,,,615b2b907ab500ee5de14716,62c53a0b54d8f26fb4f3eecb,2022-07-06_09h49.10.014,Colour_Asymmetry_Pilot,2022.1.3,Win32,60.12506013,62c50e9c1127f2cd403a315f,0,67,67,129,1,onethree,,,,,,,,,,,,,,,,,,,,,,,,,,,,,,,,,,,,,,,,,,,,,,,,,,,,,,,,,,,,,,,,,,,,,,,,,,,,,,,,,,,,,,,,,,,,,,,,,,,,,,,,,,,,,,,,,,,,,,,,,,,,,,,,,,,,,,,,,,,,,,,,,,,,,,,,,,,,,,
,,,,,,615b2b907ab500ee5de14716,62c53a0b54d8f26fb4f3eecb,2022-07-06_09h49.10.014,Colour_Asymmetry_Pilot,2022.1.3,Win32,60.12506013,62c50e9c1127f2cd403a315f,0,68,68,130,1,twoone,,,,,,,,,,,,,,,,,,,,,,,,,,,,,,,,,,,,,,,,,,,,,,,,,,,,,,,,,,,,,,,,,,,,,,,,,,,,,,,,,,,,,,,,,,,,,,,,,,,,,,,,,,,,,,,,,,,,,,,,,,,,,,,,,,,,,,,,,,,,,,,,,,,,,,,,,,,,,,
,,,,,,615b2b907ab500ee5de14716,62c53a0b54d8f26fb4f3eecb,2022-07-06_09h49.10.014,Colour_Asymmetry_Pilot,2022.1.3,Win32,60.12506013,62c50e9c1127f2cd403a315f,0,69,69,12,1,threeone,,,,,,,,,,,,,,,,,,,,,,,,,,,,,,,,,,,,,,,,,,,,,,,,,,,,,,,,,,,,,,,,,,,,,,,,,,,,,,,,,,,,,,,,,,,,,,,,,,,,,,,,,,,,,,,,,,,,,,,,,,,,,,,,,,,,,,,,,,,,,,,,,,,,,,,,,,,,,,
,,,,,,615b2b907ab500ee5de14716,62c53a0b54d8f26fb4f3eecb,2022-07-06_09h49.10.014,Colour_Asymmetry_Pilot,2022.1.3,Win32,60.12506013,62c50e9c1127f2cd403a315f,0,70,70,32,1,onetwo,,,,,,,,,,,,,,,,,,,,,,,,,,,,,,,,,,,,,,,,,,,,,,,,,,,,,,,,,,,,,,,,,,,,,,,,,,,,,,,,,,,,,,,,,,,,,,,,,,,,,,,,,,,,,,,,,,,,,,,,,,,,,,,,,,,,,,,,,,,,,,,,,,,,,,,,,,,,,,
,,,,,,615b2b907ab500ee5de14716,62c53a0b54d8f26fb4f3eecb,2022-07-06_09h49.10.014,Colour_Asymmetry_Pilot,2022.1.3,Win32,60.12506013,62c50e9c1127f2cd403a315f,0,71,71,133,1,threefour,,,,,,,,,,,,,,,,,,,,,,,,,,,,,,,,,,,,,,,,,,,,,,,,,,,,,,,,,,,,,,,,,,,,,,,,,,,,,,,,,,,,,,,,,,,,,,,,,,,,,,,,,,,,,,,,,,,,,,,,,,,,,,,,,,,,,,,,,,,,,,,,,,,,,,,,,,,,,,
,,,,,,615b2b907ab500ee5de14716,62c53a0b54d8f26fb4f3eecb,2022-07-06_09h49.10.014,Colour_Asymmetry_Pilot,2022.1.3,Win32,60.12506013,62c50e9c1127f2cd403a315f,0,72,72,114,1,twoone,,,,,,,,,,,,,,,,,,,,,,,,,,,,,,,,,,,,,,,,,,,,,,,,,,,,,,,,,,,,,,,,,,,,,,,,,,,,,,,,,,,,,,,,,,,,,,,,,,,,,,,,,,,,,,,,,,,,,,,,,,,,,,,,,,,,,,,,,,,,,,,,,,,,,,,,,,,,,,
,,,,,,615b2b907ab500ee5de14716,62c53a0b54d8f26fb4f3eecb,2022-07-06_09h49.10.014,Colour_Asymmetry_Pilot,2022.1.3,Win32,60.12506013,62c50e9c1127f2cd403a315f,0,73,73,90,1,twoone,,,,,,,,,,,,,,,,,,,,,,,,,,,,,,,,,,,,,,,,,,,,,,,,,,,,,,,,,,,,,,,,,,,,,,,,,,,,,,,,,,,,,,,,,,,,,,,,,,,,,,,,,,,,,,,,,,,,,,,,,,,,,,,,,,,,,,,,,,,,,,,,,,,,,,,,,,,,,,
,,,,,,615b2b907ab500ee5de14716,62c53a0b54d8f26fb4f3eecb,2022-07-06_09h49.10.014,Colour_Asymmetry_Pilot,2022.1.3,Win32,60.12506013,62c50e9c1127f2cd403a315f,0,74,74,117,1,threefour,,,,,,,,,,,,,,,,,,,,,,,,,,,,,,,,,,,,,,,,,,,,,,,,,,,,,,,,,,,,,,,,,,,,,,,,,,,,,,,,,,,,,,,,,,,,,,,,,,,,,,,,,,,,,,,,,,,,,,,,,,,,,,,,,,,,,,,,,,,,,,,,,,,,,,,,,,,,,,
,,,,,,615b2b907ab500ee5de14716,62c53a0b54d8f26fb4f3eecb,2022-07-06_09h49.10.014,Colour_Asymmetry_Pilot,2022.1.3,Win32,60.12506013,62c50e9c1127f2cd403a315f,0,75,75,1,1,onethree,,,,,,,,,,,,,,,,,,,,,,,,,,,,,,,,,,,,,,,,,,,,,,,,,,,,,,,,,,,,,,,,,,,,,,,,,,,,,,,,,,,,,,,,,,,,,,,,,,,,,,,,,,,,,,,,,,,,,,,,,,,,,,,,,,,,,,,,,,,,,,,,,,,,,,,,,,,,,,
,,,,,,615b2b907ab500ee5de14716,62c53a0b54d8f26fb4f3eecb,2022-07-06_09h49.10.014,Colour_Asymmetry_Pilot,2022.1.3,Win32,60.12506013,62c50e9c1127f2cd403a315f,0,76,76,161,1,onethree,,,,,,,,,,,,,,,,,,,,,,,,,,,,,,,,,,,,,,,,,,,,,,,,,,,,,,,,,,,,,,,,,,,,,,,,,,,,,,,,,,,,,,,,,,,,,,,,,,,,,,,,,,,,,,,,,,,,,,,,,,,,,,,,,,,,,,,,,,,,,,,,,,,,,,,,,,,,,,
,,,,,,615b2b907ab500ee5de14716,62c53a0b54d8f26fb4f3eecb,2022-07-06_09h49.10.014,Colour_Asymmetry_Pilot,2022.1.3,Win32,60.12506013,62c50e9c1127f2cd403a315f,0,77,77,146,1,twoone,,,,,,,,,,,,,,,,,,,,,,,,,,,,,,,,,,,,,,,,,,,,,,,,,,,,,,,,,,,,,,,,,,,,,,,,,,,,,,,,,,,,,,,,,,,,,,,,,,,,,,,,,,,,,,,,,,,,,,,,,,,,,,,,,,,,,,,,,,,,,,,,,,,,,,,,,,,,,,
,,,,,,615b2b907ab500ee5de14716,62c53a0b54d8f26fb4f3eecb,2022-07-06_09h49.10.014,Colour_Asymmetry_Pilot,2022.1.3,Win32,60.12506013,62c50e9c1127f2cd403a315f,0,78,78,66,1,twoone,,,,,,,,,,,,,,,,,,,,,,,,,,,,,,,,,,,,,,,,,,,,,,,,,,,,,,,,,,,,,,,,,,,,,,,,,,,,,,,,,,,,,,,,,,,,,,,,,,,,,,,,,,,,,,,,,,,,,,,,,,,,,,,,,,,,,,,,,,,,,,,,,,,,,,,,,,,,,,
,,,,,,615b2b907ab500ee5de14716,62c53a0b54d8f26fb4f3eecb,2022-07-06_09h49.10.014,Colour_Asymmetry_Pilot,2022.1.3,Win32,60.12506013,62c50e9c1127f2cd403a315f,0,79,79,55,1,fourthree,,,,,,,,,,,,,,,,,,,,,,,,,,,,,,,,,,,,,,,,,,,,,,,,,,,,,,,,,,,,,,,,,,,,,,,,,,,,,,,,,,,,,,,,,,,,,,,,,,,,,,,,,,,,,,,,,,,,,,,,,,,,,,,,,,,,,,,,,,,,,,,,,,,,,,,,,,,,,,
,,,,,,615b2b907ab500ee5de14716,62c53a0b54d8f26fb4f3eecb,2022-07-06_09h49.10.014,Colour_Asymmetry_Pilot,2022.1.3,Win32,60.12506013,62c50e9c1127f2cd403a315f,0,80,80,74,1,twoone,,,,,,,,,,,,,,,,,,,,,,,,,,,,,,,,,,,,,,,,,,,,,,,,,,,,,,,,,,,,,,,,,,,,,,,,,,,,,,,,,,,,,,,,,,,,,,,,,,,,,,,,,,,,,,,,,,,,,,,,,,,,,,,,,,,,,,,,,,,,,,,,,,,,,,,,,,,,,,
,,,,,,615b2b907ab500ee5de14716,62c53a0b54d8f26fb4f3eecb,2022-07-06_09h49.10.014,Colour_Asymmetry_Pilot,2022.1.3,Win32,60.12506013,62c50e9c1127f2cd403a315f,0,81,81,124,1,threeone,,,,,,,,,,,,,,,,,,,,,,,,,,,,,,,,,,,,,,,,,,,,,,,,,,,,,,,,,,,,,,,,,,,,,,,,,,,,,,,,,,,,,,,,,,,,,,,,,,,,,,,,,,,,,,,,,,,,,,,,,,,,,,,,,,,,,,,,,,,,,,,,,,,,,,,,,,,,,,
,,,,,,615b2b907ab500ee5de14716,62c53a0b54d8f26fb4f3eecb,2022-07-06_09h49.10.014,Colour_Asymmetry_Pilot,2022.1.3,Win32,60.12506013,62c50e9c1127f2cd403a315f,0,82,82,104,1,onetwo,,,,,,,,,,,,,,,,,,,,,,,,,,,,,,,,,,,,,,,,,,,,,,,,,,,,,,,,,,,,,,,,,,,,,,,,,,,,,,,,,,,,,,,,,,,,,,,,,,,,,,,,,,,,,,,,,,,,,,,,,,,,,,,,,,,,,,,,,,,,,,,,,,,,,,,,,,,,,,
,,,,,,615b2b907ab500ee5de14716,62c53a0b54d8f26fb4f3eecb,2022-07-06_09h49.10.014,Colour_Asymmetry_Pilot,2022.1.3,Win32,60.12506013,62c50e9c1127f2cd403a315f,0,83,83,58,1,twoone,,,,,,,,,,,,,,,,,,,,,,,,,,,,,,,,,,,,,,,,,,,,,,,,,,,,,,,,,,,,,,,,,,,,,,,,,,,,,,,,,,,,,,,,,,,,,,,,,,,,,,,,,,,,,,,,,,,,,,,,,,,,,,,,,,,,,,,,,,,,,,,,,,,,,,,,,,,,,,
,,,,,,615b2b907ab500ee5de14716,62c53a0b54d8f26fb4f3eecb,2022-07-06_09h49.10.014,Colour_Asymmetry_Pilot,2022.1.3,Win32,60.12506013,62c50e9c1127f2cd403a315f,0,84,84,77,1,threefour,,,,,,,,,,,,,,,,,,,,,,,,,,,,,,,,,,,,,,,,,,,,,,,,,,,,,,,,,,,,,,,,,,,,,,,,,,,,,,,,,,,,,,,,,,,,,,,,,,,,,,,,,,,,,,,,,,,,,,,,,,,,,,,,,,,,,,,,,,,,,,,,,,,,,,,,,,,,,,
,,,,,,615b2b907ab500ee5de14716,62c53a0b54d8f26fb4f3eecb,2022-07-06_09h49.10.014,Colour_Asymmetry_Pilot,2022.1.3,Win32,60.12506013,62c50e9c1127f2cd403a315f,0,85,85,28,1,threeone,,,,,,,,,,,,,,,,,,,,,,,,,,,,,,,,,,,,,,,,,,,,,,,,,,,,,,,,,,,,,,,,,,,,,,,,,,,,,,,,,,,,,,,,,,,,,,,,,,,,,,,,,,,,,,,,,,,,,,,,,,,,,,,,,,,,,,,,,,,,,,,,,,,,,,,,,,,,,,
,,,,,,615b2b907ab500ee5de14716,62c53a0b54d8f26fb4f3eecb,2022-07-06_09h49.10.014,Colour_Asymmetry_Pilot,2022.1.3,Win32,60.12506013,62c50e9c1127f2cd403a315f,0,86,86,47,1,fourthree,,,,,,,,,,,,,,,,,,,,,,,,,,,,,,,,,,,,,,,,,,,,,,,,,,,,,,,,,,,,,,,,,,,,,,,,,,,,,,,,,,,,,,,,,,,,,,,,,,,,,,,,,,,,,,,,,,,,,,,,,,,,,,,,,,,,,,,,,,,,,,,,,,,,,,,,,,,,,,
,,,,,,615b2b907ab500ee5de14716,62c53a0b54d8f26fb4f3eecb,2022-07-06_09h49.10.014,Colour_Asymmetry_Pilot,2022.1.3,Win32,60.12506013,62c50e9c1127f2cd403a315f,0,87,87,123,1,twofour,,,,,,,,,,,,,,,,,,,,,,,,,,,,,,,,,,,,,,,,,,,,,,,,,,,,,,,,,,,,,,,,,,,,,,,,,,,,,,,,,,,,,,,,,,,,,,,,,,,,,,,,,,,,,,,,,,,,,,,,,,,,,,,,,,,,,,,,,,,,,,,,,,,,,,,,,,,,,,
,,,,,,615b2b907ab500ee5de14716,62c53a0b54d8f26fb4f3eecb,2022-07-06_09h49.10.014,Colour_Asymmetry_Pilot,2022.1.3,Win32,60.12506013,62c50e9c1127f2cd403a315f,0,88,88,39,1,fourthree,,,,,,,,,,,,,,,,,,,,,,,,,,,,,,,,,,,,,,,,,,,,,,,,,,,,,,,,,,,,,,,,,,,,,,,,,,,,,,,,,,,,,,,,,,,,,,,,,,,,,,,,,,,,,,,,,,,,,,,,,,,,,,,,,,,,,,,,,,,,,,,,,,,,,,,,,,,,,,
,,,,,,615b2b907ab500ee5de14716,62c53a0b54d8f26fb4f3eecb,2022-07-06_09h49.10.014,Colour_Asymmetry_Pilot,2022.1.3,Win32,60.12506013,62c50e9c1127f2cd403a315f,0,89,89,94,1,fourtwo,,,,,,,,,,,,,,,,,,,,,,,,,,,,,,,,,,,,,,,,,,,,,,,,,,,,,,,,,,,,,,,,,,,,,,,,,,,,,,,,,,,,,,,,,,,,,,,,,,,,,,,,,,,,,,,,,,,,,,,,,,,,,,,,,,,,,,,,,,,,,,,,,,,,,,,,,,,,,,
,,,,,,615b2b907ab500ee5de14716,62c53a0b54d8f26fb4f3eecb,2022-07-06_09h49.10.014,Colour_Asymmetry_Pilot,2022.1.3,Win32,60.12506013,62c50e9c1127f2cd403a315f,0,90,90,107,1,twofour,,,,,,,,,,,,,,,,,,,,,,,,,,,,,,,,,,,,,,,,,,,,,,,,,,,,,,,,,,,,,,,,,,,,,,,,,,,,,,,,,,,,,,,,,,,,,,,,,,,,,,,,,,,,,,,,,,,,,,,,,,,,,,,,,,,,,,,,,,,,,,,,,,,,,,,,,,,,,,
,,,,,,615b2b907ab500ee5de14716,62c53a0b54d8f26fb4f3eecb,2022-07-06_09h49.10.014,Colour_Asymmetry_Pilot,2022.1.3,Win32,60.12506013,62c50e9c1127f2cd403a315f,0,91,91,49,1,onethree,,,,,,,,,,,,,,,,,,,,,,,,,,,,,,,,,,,,,,,,,,,,,,,,,,,,,,,,,,,,,,,,,,,,,,,,,,,,,,,,,,,,,,,,,,,,,,,,,,,,,,,,,,,,,,,,,,,,,,,,,,,,,,,,,,,,,,,,,,,,,,,,,,,,,,,,,,,,,,
,,,,,,615b2b907ab500ee5de14716,62c53a0b54d8f26fb4f3eecb,2022-07-06_09h49.10.014,Colour_Asymmetry_Pilot,2022.1.3,Win32,60.12506013,62c50e9c1127f2cd403a315f,0,92,92,75,1,twofour,,,,,,,,,,,,,,,,,,,,,,,,,,,,,,,,,,,,,,,,,,,,,,,,,,,,,,,,,,,,,,,,,,,,,,,,,,,,,,,,,,,,,,,,,,,,,,,,,,,,,,,,,,,,,,,,,,,,,,,,,,,,,,,,,,,,,,,,,,,,,,,,,,,,,,,,,,,,,,
,,,,,,615b2b907ab500ee5de14716,62c53a0b54d8f26fb4f3eecb,2022-07-06_09h49.10.014,Colour_Asymmetry_Pilot,2022.1.3,Win32,60.12506013,62c50e9c1127f2cd403a315f,0,93,93,88,1,onetwo,,,,,,,,,,,,,,,,,,,,,,,,,,,,,,,,,,,,,,,,,,,,,,,,,,,,,,,,,,,,,,,,,,,,,,,,,,,,,,,,,,,,,,,,,,,,,,,,,,,,,,,,,,,,,,,,,,,,,,,,,,,,,,,,,,,,,,,,,,,,,,,,,,,,,,,,,,,,,,
,,,,,,615b2b907ab500ee5de14716,62c53a0b54d8f26fb4f3eecb,2022-07-06_09h49.10.014,Colour_Asymmetry_Pilot,2022.1.3,Win32,60.12506013,62c50e9c1127f2cd403a315f,0,94,94,72,1,onetwo,,,,,,,,,,,,,,,,,,,,,,,,,,,,,,,,,,,,,,,,,,,,,,,,,,,,,,,,,,,,,,,,,,,,,,,,,,,,,,,,,,,,,,,,,,,,,,,,,,,,,,,,,,,,,,,,,,,,,,,,,,,,,,,,,,,,,,,,,,,,,,,,,,,,,,,,,,,,,,
,,,,,,615b2b907ab500ee5de14716,62c53a0b54d8f26fb4f3eecb,2022-07-06_09h49.10.014,Colour_Asymmetry_Pilot,2022.1.3,Win32,60.12506013,62c50e9c1127f2cd403a315f,0,95,95,134,1,fourtwo,,,,,,,,,,,,,,,,,,,,,,,,,,,,,,,,,,,,,,,,,,,,,,,,,,,,,,,,,,,,,,,,,,,,,,,,,,,,,,,,,,,,,,,,,,,,,,,,,,,,,,,,,,,,,,,,,,,,,,,,,,,,,,,,,,,,,,,,,,,,,,,,,,,,,,,,,,,,,,
,,,,,,615b2b907ab500ee5de14716,62c53a0b54d8f26fb4f3eecb,2022-07-06_09h49.10.014,Colour_Asymmetry_Pilot,2022.1.3,Win32,60.12506013,62c50e9c1127f2cd403a315f,0,96,96,158,1,fourtwo,,,,,,,,,,,,,,,,,,,,,,,,,,,,,,,,,,,,,,,,,,,,,,,,,,,,,,,,,,,,,,,,,,,,,,,,,,,,,,,,,,,,,,,,,,,,,,,,,,,,,,,,,,,,,,,,,,,,,,,,,,,,,,,,,,,,,,,,,,,,,,,,,,,,,,,,,,,,,,
,,,,,,615b2b907ab500ee5de14716,62c53a0b54d8f26fb4f3eecb,2022-07-06_09h49.10.014,Colour_Asymmetry_Pilot,2022.1.3,Win32,60.12506013,62c50e9c1127f2cd403a315f,0,97,97,155,1,twofour,,,,,,,,,,,,,,,,,,,,,,,,,,,,,,,,,,,,,,,,,,,,,,,,,,,,,,,,,,,,,,,,,,,,,,,,,,,,,,,,,,,,,,,,,,,,,,,,,,,,,,,,,,,,,,,,,,,,,,,,,,,,,,,,,,,,,,,,,,,,,,,,,,,,,,,,,,,,,,
,,,,,,615b2b907ab500ee5de14716,62c53a0b54d8f26fb4f3eecb,2022-07-06_09h49.10.014,Colour_Asymmetry_Pilot,2022.1.3,Win32,60.12506013,62c50e9c1127f2cd403a315f,0,98,98,81,1,onethree,,,,,,,,,,,,,,,,,,,,,,,,,,,,,,,,,,,,,,,,,,,,,,,,,,,,,,,,,,,,,,,,,,,,,,,,,,,,,,,,,,,,,,,,,,,,,,,,,,,,,,,,,,,,,,,,,,,,,,,,,,,,,,,,,,,,,,,,,,,,,,,,,,,,,,,,,,,,,,
,,,,,,615b2b907ab500ee5de14716,62c53a0b54d8f26fb4f3eecb,2022-07-06_09h49.10.014,Colour_Asymmetry_Pilot,2022.1.3,Win32,60.12506013,62c50e9c1127f2cd403a315f,0,99,99,29,1,threefour,,,,,,,,,,,,,,,,,,,,,,,,,,,,,,,,,,,,,,,,,,,,,,,,,,,,,,,,,,,,,,,,,,,,,,,,,,,,,,,,,,,,,,,,,,,,,,,,,,,,,,,,,,,,,,,,,,,,,,,,,,,,,,,,,,,,,,,,,,,,,,,,,,,,,,,,,,,,,,
,,,,,,615b2b907ab500ee5de14716,62c53a0b54d8f26fb4f3eecb,2022-07-06_09h49.10.014,Colour_Asymmetry_Pilot,2022.1.3,Win32,60.12506013,62c50e9c1127f2cd403a315f,0,100,100,35,1,twofour,,,,,,,,,,,,,,,,,,,,,,,,,,,,,,,,,,,,,,,,,,,,,,,,,,,,,,,,,,,,,,,,,,,,,,,,,,,,,,,,,,,,,,,,,,,,,,,,,,,,,,,,,,,,,,,,,,,,,,,,,,,,,,,,,,,,,,,,,,,,,,,,,,,,,,,,,,,,,,
,,,,,,615b2b907ab500ee5de14716,62c53a0b54d8f26fb4f3eecb,2022-07-06_09h49.10.014,Colour_Asymmetry_Pilot,2022.1.3,Win32,60.12506013,62c50e9c1127f2cd403a315f,0,101,101,24,1,onetwo,,,,,,,,,,,,,,,,,,,,,,,,,,,,,,,,,,,,,,,,,,,,,,,,,,,,,,,,,,,,,,,,,,,,,,,,,,,,,,,,,,,,,,,,,,,,,,,,,,,,,,,,,,,,,,,,,,,,,,,,,,,,,,,,,,,,,,,,,,,,,,,,,,,,,,,,,,,,,,
,,,,,,615b2b907ab500ee5de14716,62c53a0b54d8f26fb4f3eecb,2022-07-06_09h49.10.014,Colour_Asymmetry_Pilot,2022.1.3,Win32,60.12506013,62c50e9c1127f2cd403a315f,0,102,102,159,1,fourthree,,,,,,,,,,,,,,,,,,,,,,,,,,,,,,,,,,,,,,,,,,,,,,,,,,,,,,,,,,,,,,,,,,,,,,,,,,,,,,,,,,,,,,,,,,,,,,,,,,,,,,,,,,,,,,,,,,,,,,,,,,,,,,,,,,,,,,,,,,,,,,,,,,,,,,,,,,,,,,
,,,,,,615b2b907ab500ee5de14716,62c53a0b54d8f26fb4f3eecb,2022-07-06_09h49.10.014,Colour_Asymmetry_Pilot,2022.1.3,Win32,60.12506013,62c50e9c1127f2cd403a315f,0,103,103,121,1,onethree,,,,,,,,,,,,,,,,,,,,,,,,,,,,,,,,,,,,,,,,,,,,,,,,,,,,,,,,,,,,,,,,,,,,,,,,,,,,,,,,,,,,,,,,,,,,,,,,,,,,,,,,,,,,,,,,,,,,,,,,,,,,,,,,,,,,,,,,,,,,,,,,,,,,,,,,,,,,,,
,,,,,,615b2b907ab500ee5de14716,62c53a0b54d8f26fb4f3eecb,2022-07-06_09h49.10.014,Colour_Asymmetry_Pilot,2022.1.3,Win32,60.12506013,62c50e9c1127f2cd403a315f,0,104,104,96,1,onetwo,,,,,,,,,,,,,,,,,,,,,,,,,,,,,,,,,,,,,,,,,,,,,,,,,,,,,,,,,,,,,,,,,,,,,,,,,,,,,,,,,,,,,,,,,,,,,,,,,,,,,,,,,,,,,,,,,,,,,,,,,,,,,,,,,,,,,,,,,,,,,,,,,,,,,,,,,,,,,,
,,,,,,615b2b907ab500ee5de14716,62c53a0b54d8f26fb4f3eecb,2022-07-06_09h49.10.014,Colour_Asymmetry_Pilot,2022.1.3,Win32,60.12506013,62c50e9c1127f2cd403a315f,0,105,105,67,1,twofour,,,,,,,,,,,,,,,,,,,,,,,,,,,,,,,,,,,,,,,,,,,,,,,,,,,,,,,,,,,,,,,,,,,,,,,,,,,,,,,,,,,,,,,,,,,,,,,,,,,,,,,,,,,,,,,,,,,,,,,,,,,,,,,,,,,,,,,,,,,,,,,,,,,,,,,,,,,,,,
,,,,,,615b2b907ab500ee5de14716,62c53a0b54d8f26fb4f3eecb,2022-07-06_09h49.10.014,Colour_Asymmetry_Pilot,2022.1.3,Win32,60.12506013,62c50e9c1127f2cd403a315f,0,106,106,26,1,twoone,,,,,,,,,,,,,,,,,,,,,,,,,,,,,,,,,,,,,,,,,,,,,,,,,,,,,,,,,,,,,,,,,,,,,,,,,,,,,,,,,,,,,,,,,,,,,,,,,,,,,,,,,,,,,,,,,,,,,,,,,,,,,,,,,,,,,,,,,,,,,,,,,,,,,,,,,,,,,,
,,,,,,615b2b907ab500ee5de14716,62c53a0b54d8f26fb4f3eecb,2022-07-06_09h49.10.014,Colour_Asymmetry_Pilot,2022.1.3,Win32,60.12506013,62c50e9c1127f2cd403a315f,0,107,107,14,1,fourtwo,,,,,,,,,,,,,,,,,,,,,,,,,,,,,,,,,,,,,,,,,,,,,,,,,,,,,,,,,,,,,,,,,,,,,,,,,,,,,,,,,,,,,,,,,,,,,,,,,,,,,,,,,,,,,,,,,,,,,,,,,,,,,,,,,,,,,,,,,,,,,,,,,,,,,,,,,,,,,,
,,,,,,615b2b907ab500ee5de14716,62c53a0b54d8f26fb4f3eecb,2022-07-06_09h49.10.014,Colour_Asymmetry_Pilot,2022.1.3,Win32,60.12506013,62c50e9c1127f2cd403a315f,0,108,108,73,1,onethree,,,,,,,,,,,,,,,,,,,,,,,,,,,,,,,,,,,,,,,,,,,,,,,,,,,,,,,,,,,,,,,,,,,,,,,,,,,,,,,,,,,,,,,,,,,,,,,,,,,,,,,,,,,,,,,,,,,,,,,,,,,,,,,,,,,,,,,,,,,,,,,,,,,,,,,,,,,,,,
,,,,,,615b2b907ab500ee5de14716,62c53a0b54d8f26fb4f3eecb,2022-07-06_09h49.10.014,Colour_Asymmetry_Pilot,2022.1.3,Win32,60.12506013,62c50e9c1127f2cd403a315f,0,109,109,132,1,threeone,,,,,,,,,,,,,,,,,,,,,,,,,,,,,,,,,,,,,,,,,,,,,,,,,,,,,,,,,,,,,,,,,,,,,,,,,,,,,,,,,,,,,,,,,,,,,,,,,,,,,,,,,,,,,,,,,,,,,,,,,,,,,,,,,,,,,,,,,,,,,,,,,,,,,,,,,,,,,,
,,,,,,615b2b907ab500ee5de14716,62c53a0b54d8f26fb4f3eecb,2022-07-06_09h49.10.014,Colour_Asymmetry_Pilot,2022.1.3,Win32,60.12506013,62c50e9c1127f2cd403a315f,0,110,110,111,1,fourthree,,,,,,,,,,,,,,,,,,,,,,,,,,,,,,,,,,,,,,,,,,,,,,,,,,,,,,,,,,,,,,,,,,,,,,,,,,,,,,,,,,,,,,,,,,,,,,,,,,,,,,,,,,,,,,,,,,,,,,,,,,,,,,,,,,,,,,,,,,,,,,,,,,,,,,,,,,,,,,
,,,,,,615b2b907ab500ee5de14716,62c53a0b54d8f26fb4f3eecb,2022-07-06_09h49.10.014,Colour_Asymmetry_Pilot,2022.1.3,Win32,60.12506013,62c50e9c1127f2cd403a315f,0,111,111,116,1,threeone,,,,,,,,,,,,,,,,,,,,,,,,,,,,,,,,,,,,,,,,,,,,,,,,,,,,,,,,,,,,,,,,,,,,,,,,,,,,,,,,,,,,,,,,,,,,,,,,,,,,,,,,,,,,,,,,,,,,,,,,,,,,,,,,,,,,,,,,,,,,,,,,,,,,,,,,,,,,,,
,,,,,,615b2b907ab500ee5de14716,62c53a0b54d8f26fb4f3eecb,2022-07-06_09h49.10.014,Colour_Asymmetry_Pilot,2022.1.3,Win32,60.12506013,62c50e9c1127f2cd403a315f,0,112,112,44,1,threeone,,,,,,,,,,,,,,,,,,,,,,,,,,,,,,,,,,,,,,,,,,,,,,,,,,,,,,,,,,,,,,,,,,,,,,,,,,,,,,,,,,,,,,,,,,,,,,,,,,,,,,,,,,,,,,,,,,,,,,,,,,,,,,,,,,,,,,,,,,,,,,,,,,,,,,,,,,,,,,
,,,,,,615b2b907ab500ee5de14716,62c53a0b54d8f26fb4f3eecb,2022-07-06_09h49.10.014,Colour_Asymmetry_Pilot,2022.1.3,Win32,60.12506013,62c50e9c1127f2cd403a315f,0,113,113,138,1,twoone,,,,,,,,,,,,,,,,,,,,,,,,,,,,,,,,,,,,,,,,,,,,,,,,,,,,,,,,,,,,,,,,,,,,,,,,,,,,,,,,,,,,,,,,,,,,,,,,,,,,,,,,,,,,,,,,,,,,,,,,,,,,,,,,,,,,,,,,,,,,,,,,,,,,,,,,,,,,,,
,,,,,,615b2b907ab500ee5de14716,62c53a0b54d8f26fb4f3eecb,2022-07-06_09h49.10.014,Colour_Asymmetry_Pilot,2022.1.3,Win32,60.12506013,62c50e9c1127f2cd403a315f,0,114,114,38,1,fourtwo,,,,,,,,,,,,,,,,,,,,,,,,,,,,,,,,,,,,,,,,,,,,,,,,,,,,,,,,,,,,,,,,,,,,,,,,,,,,,,,,,,,,,,,,,,,,,,,,,,,,,,,,,,,,,,,,,,,,,,,,,,,,,,,,,,,,,,,,,,,,,,,,,,,,,,,,,,,,,,
,,,,,,615b2b907ab500ee5de14716,62c53a0b54d8f26fb4f3eecb,2022-07-06_09h49.10.014,Colour_Asymmetry_Pilot,2022.1.3,Win32,60.12506013,62c50e9c1127f2cd403a315f,0,115,115,0,1,onetwo,,,,,,,,,,,,,,,,,,,,,,,,,,,,,,,,,,,,,,,,,,,,,,,,,,,,,,,,,,,,,,,,,,,,,,,,,,,,,,,,,,,,,,,,,,,,,,,,,,,,,,,,,,,,,,,,,,,,,,,,,,,,,,,,,,,,,,,,,,,,,,,,,,,,,,,,,,,,,,
,,,,,,615b2b907ab500ee5de14716,62c53a0b54d8f26fb4f3eecb,2022-07-06_09h49.10.014,Colour_Asymmetry_Pilot,2022.1.3,Win32,60.12506013,62c50e9c1127f2cd403a315f,0,116,116,48,1,onetwo,,,,,,,,,,,,,,,,,,,,,,,,,,,,,,,,,,,,,,,,,,,,,,,,,,,,,,,,,,,,,,,,,,,,,,,,,,,,,,,,,,,,,,,,,,,,,,,,,,,,,,,,,,,,,,,,,,,,,,,,,,,,,,,,,,,,,,,,,,,,,,,,,,,,,,,,,,,,,,
,,,,,,615b2b907ab500ee5de14716,62c53a0b54d8f26fb4f3eecb,2022-07-06_09h49.10.014,Colour_Asymmetry_Pilot,2022.1.3,Win32,60.12506013,62c50e9c1127f2cd403a315f,0,117,117,150,1,fourtwo,,,,,,,,,,,,,,,,,,,,,,,,,,,,,,,,,,,,,,,,,,,,,,,,,,,,,,,,,,,,,,,,,,,,,,,,,,,,,,,,,,,,,,,,,,,,,,,,,,,,,,,,,,,,,,,,,,,,,,,,,,,,,,,,,,,,,,,,,,,,,,,,,,,,,,,,,,,,,,
,,,,,,615b2b907ab500ee5de14716,62c53a0b54d8f26fb4f3eecb,2022-07-06_09h49.10.014,Colour_Asymmetry_Pilot,2022.1.3,Win32,60.12506013,62c50e9c1127f2cd403a315f,0,118,118,10,1,twoone,,,,,,,,,,,,,,,,,,,,,,,,,,,,,,,,,,,,,,,,,,,,,,,,,,,,,,,,,,,,,,,,,,,,,,,,,,,,,,,,,,,,,,,,,,,,,,,,,,,,,,,,,,,,,,,,,,,,,,,,,,,,,,,,,,,,,,,,,,,,,,,,,,,,,,,,,,,,,,
,,,,,,615b2b907ab500ee5de14716,62c53a0b54d8f26fb4f3eecb,2022-07-06_09h49.10.014,Colour_Asymmetry_Pilot,2022.1.3,Win32,60.12506013,62c50e9c1127f2cd403a315f,0,119,119,137,1,onethree,,,,,,,,,,,,,,,,,,,,,,,,,,,,,,,,,,,,,,,,,,,,,,,,,,,,,,,,,,,,,,,,,,,,,,,,,,,,,,,,,,,,,,,,,,,,,,,,,,,,,,,,,,,,,,,,,,,,,,,,,,,,,,,,,,,,,,,,,,,,,,,,,,,,,,,,,,,,,,
,,,,,,615b2b907ab500ee5de14716,62c53a0b54d8f26fb4f3eecb,2022-07-06_09h49.10.014,Colour_Asymmetry_Pilot,2022.1.3,Win32,60.12506013,62c50e9c1127f2cd403a315f,0,120,120,79,1,fourthree,,,,,,,,,,,,,,,,,,,,,,,,,,,,,,,,,,,,,,,,,,,,,,,,,,,,,,,,,,,,,,,,,,,,,,,,,,,,,,,,,,,,,,,,,,,,,,,,,,,,,,,,,,,,,,,,,,,,,,,,,,,,,,,,,,,,,,,,,,,,,,,,,,,,,,,,,,,,,,
,,,,,,615b2b907ab500ee5de14716,62c53a0b54d8f26fb4f3eecb,2022-07-06_09h49.10.014,Colour_Asymmetry_Pilot,2022.1.3,Win32,60.12506013,62c50e9c1127f2cd403a315f,0,121,121,84,1,threeone,,,,,,,,,,,,,,,,,,,,,,,,,,,,,,,,,,,,,,,,,,,,,,,,,,,,,,,,,,,,,,,,,,,,,,,,,,,,,,,,,,,,,,,,,,,,,,,,,,,,,,,,,,,,,,,,,,,,,,,,,,,,,,,,,,,,,,,,,,,,,,,,,,,,,,,,,,,,,,
,,,,,,615b2b907ab500ee5de14716,62c53a0b54d8f26fb4f3eecb,2022-07-06_09h49.10.014,Colour_Asymmetry_Pilot,2022.1.3,Win32,60.12506013,62c50e9c1127f2cd403a315f,0,122,122,71,1,fourthree,,,,,,,,,,,,,,,,,,,,,,,,,,,,,,,,,,,,,,,,,,,,,,,,,,,,,,,,,,,,,,,,,,,,,,,,,,,,,,,,,,,,,,,,,,,,,,,,,,,,,,,,,,,,,,,,,,,,,,,,,,,,,,,,,,,,,,,,,,,,,,,,,,,,,,,,,,,,,,
,,,,,,615b2b907ab500ee5de14716,62c53a0b54d8f26fb4f3eecb,2022-07-06_09h49.10.014,Colour_Asymmetry_Pilot,2022.1.3,Win32,60.12506013,62c50e9c1127f2cd403a315f,0,123,123,126,1,fourtwo,,,,,,,,,,,,,,,,,,,,,,,,,,,,,,,,,,,,,,,,,,,,,,,,,,,,,,,,,,,,,,,,,,,,,,,,,,,,,,,,,,,,,,,,,,,,,,,,,,,,,,,,,,,,,,,,,,,,,,,,,,,,,,,,,,,,,,,,,,,,,,,,,,,,,,,,,,,,,,
,,,,,,615b2b907ab500ee5de14716,62c53a0b54d8f26fb4f3eecb,2022-07-06_09h49.10.014,Colour_Asymmetry_Pilot,2022.1.3,Win32,60.12506013,62c50e9c1127f2cd403a315f,0,124,124,93,1,threefour,,,,,,,,,,,,,,,,,,,,,,,,,,,,,,,,,,,,,,,,,,,,,,,,,,,,,,,,,,,,,,,,,,,,,,,,,,,,,,,,,,,,,,,,,,,,,,,,,,,,,,,,,,,,,,,,,,,,,,,,,,,,,,,,,,,,,,,,,,,,,,,,,,,,,,,,,,,,,,
,,,,,,615b2b907ab500ee5de14716,62c53a0b54d8f26fb4f3eecb,2022-07-06_09h49.10.014,Colour_Asymmetry_Pilot,2022.1.3,Win32,60.12506013,62c50e9c1127f2cd403a315f,0,125,125,89,1,onethree,,,,,,,,,,,,,,,,,,,,,,,,,,,,,,,,,,,,,,,,,,,,,,,,,,,,,,,,,,,,,,,,,,,,,,,,,,,,,,,,,,,,,,,,,,,,,,,,,,,,,,,,,,,,,,,,,,,,,,,,,,,,,,,,,,,,,,,,,,,,,,,,,,,,,,,,,,,,,,
,,,,,,615b2b907ab500ee5de14716,62c53a0b54d8f26fb4f3eecb,2022-07-06_09h49.10.014,Colour_Asymmetry_Pilot,2022.1.3,Win32,60.12506013,62c50e9c1127f2cd403a315f,0,126,126,154,1,twoone,,,,,,,,,,,,,,,,,,,,,,,,,,,,,,,,,,,,,,,,,,,,,,,,,,,,,,,,,,,,,,,,,,,,,,,,,,,,,,,,,,,,,,,,,,,,,,,,,,,,,,,,,,,,,,,,,,,,,,,,,,,,,,,,,,,,,,,,,,,,,,,,,,,,,,,,,,,,,,
,,,,,,615b2b907ab500ee5de14716,62c53a0b54d8f26fb4f3eecb,2022-07-06_09h49.10.014,Colour_Asymmetry_Pilot,2022.1.3,Win32,60.12506013,62c50e9c1127f2cd403a315f,0,127,127,27,1,twofour,,,,,,,,,,,,,,,,,,,,,,,,,,,,,,,,,,,,,,,,,,,,,,,,,,,,,,,,,,,,,,,,,,,,,,,,,,,,,,,,,,,,,,,,,,,,,,,,,,,,,,,,,,,,,,,,,,,,,,,,,,,,,,,,,,,,,,,,,,,,,,,,,,,,,,,,,,,,,,
,,,,,,615b2b907ab500ee5de14716,62c53a0b54d8f26fb4f3eecb,2022-07-06_09h49.10.014,Colour_Asymmetry_Pilot,2022.1.3,Win32,60.12506013,62c50e9c1127f2cd403a315f,0,128,128,145,1,onethree,,,,,,,,,,,,,,,,,,,,,,,,,,,,,,,,,,,,,,,,,,,,,,,,,,,,,,,,,,,,,,,,,,,,,,,,,,,,,,,,,,,,,,,,,,,,,,,,,,,,,,,,,,,,,,,,,,,,,,,,,,,,,,,,,,,,,,,,,,,,,,,,,,,,,,,,,,,,,,
,,,,,,615b2b907ab500ee5de14716,62c53a0b54d8f26fb4f3eecb,2022-07-06_09h49.10.014,Colour_Asymmetry_Pilot,2022.1.3,Win32,60.12506013,62c50e9c1127f2cd403a315f,0,129,129,17,1,onethree,,,,,,,,,,,,,,,,,,,,,,,,,,,,,,,,,,,,,,,,,,,,,,,,,,,,,,,,,,,,,,,,,,,,,,,,,,,,,,,,,,,,,,,,,,,,,,,,,,,,,,,,,,,,,,,,,,,,,,,,,,,,,,,,,,,,,,,,,,,,,,,,,,,,,,,,,,,,,,
,,,,,,615b2b907ab500ee5de14716,62c53a0b54d8f26fb4f3eecb,2022-07-06_09h49.10.014,Colour_Asymmetry_Pilot,2022.1.3,Win32,60.12506013,62c50e9c1127f2cd403a315f,0,130,130,9,1,onethree,,,,,,,,,,,,,,,,,,,,,,,,,,,,,,,,,,,,,,,,,,,,,,,,,,,,,,,,,,,,,,,,,,,,,,,,,,,,,,,,,,,,,,,,,,,,,,,,,,,,,,,,,,,,,,,,,,,,,,,,,,,,,,,,,,,,,,,,,,,,,,,,,,,,,,,,,,,,,,
,,,,,,615b2b907ab500ee5de14716,62c53a0b54d8f26fb4f3eecb,2022-07-06_09h49.10.014,Colour_Asymmetry_Pilot,2022.1.3,Win32,60.12506013,62c50e9c1127f2cd403a315f,0,131,131,46,1,fourtwo,,,,,,,,,,,,,,,,,,,,,,,,,,,,,,,,,,,,,,,,,,,,,,,,,,,,,,,,,,,,,,,,,,,,,,,,,,,,,,,,,,,,,,,,,,,,,,,,,,,,,,,,,,,,,,,,,,,,,,,,,,,,,,,,,,,,,,,,,,,,,,,,,,,,,,,,,,,,,,
,,,,,,615b2b907ab500ee5de14716,62c53a0b54d8f26fb4f3eecb,2022-07-06_09h49.10.014,Colour_Asymmetry_Pilot,2022.1.3,Win32,60.12506013,62c50e9c1127f2cd403a315f,0,132,132,160,1,onetwo,,,,,,,,,,,,,,,,,,,,,,,,,,,,,,,,,,,,,,,,,,,,,,,,,,,,,,,,,,,,,,,,,,,,,,,,,,,,,,,,,,,,,,,,,,,,,,,,,,,,,,,,,,,,,,,,,,,,,,,,,,,,,,,,,,,,,,,,,,,,,,,,,,,,,,,,,,,,,,
,,,,,,615b2b907ab500ee5de14716,62c53a0b54d8f26fb4f3eecb,2022-07-06_09h49.10.014,Colour_Asymmetry_Pilot,2022.1.3,Win32,60.12506013,62c50e9c1127f2cd403a315f,0,133,133,76,1,threeone,,,,,,,,,,,,,,,,,,,,,,,,,,,,,,,,,,,,,,,,,,,,,,,,,,,,,,,,,,,,,,,,,,,,,,,,,,,,,,,,,,,,,,,,,,,,,,,,,,,,,,,,,,,,,,,,,,,,,,,,,,,,,,,,,,,,,,,,,,,,,,,,,,,,,,,,,,,,,,
,,,,,,615b2b907ab500ee5de14716,62c53a0b54d8f26fb4f3eecb,2022-07-06_09h49.10.014,Colour_Asymmetry_Pilot,2022.1.3,Win32,60.12506013,62c50e9c1127f2cd403a315f,0,134,134,100,1,threeone,,,,,,,,,,,,,,,,,,,,,,,,,,,,,,,,,,,,,,,,,,,,,,,,,,,,,,,,,,,,,,,,,,,,,,,,,,,,,,,,,,,,,,,,,,,,,,,,,,,,,,,,,,,,,,,,,,,,,,,,,,,,,,,,,,,,,,,,,,,,,,,,,,,,,,,,,,,,,,
,,,,,,615b2b907ab500ee5de14716,62c53a0b54d8f26fb4f3eecb,2022-07-06_09h49.10.014,Colour_Asymmetry_Pilot,2022.1.3,Win32,60.12506013,62c50e9c1127f2cd403a315f,0,135,135,149,1,threefour,,,,,,,,,,,,,,,,,,,,,,,,,,,,,,,,,,,,,,,,,,,,,,,,,,,,,,,,,,,,,,,,,,,,,,,,,,,,,,,,,,,,,,,,,,,,,,,,,,,,,,,,,,,,,,,,,,,,,,,,,,,,,,,,,,,,,,,,,,,,,,,,,,,,,,,,,,,,,,
,,,,,,615b2b907ab500ee5de14716,62c53a0b54d8f26fb4f3eecb,2022-07-06_09h49.10.014,Colour_Asymmetry_Pilot,2022.1.3,Win32,60.12506013,62c50e9c1127f2cd403a315f,0,136,136,21,1,threefour,,,,,,,,,,,,,,,,,,,,,,,,,,,,,,,,,,,,,,,,,,,,,,,,,,,,,,,,,,,,,,,,,,,,,,,,,,,,,,,,,,,,,,,,,,,,,,,,,,,,,,,,,,,,,,,,,,,,,,,,,,,,,,,,,,,,,,,,,,,,,,,,,,,,,,,,,,,,,,
,,,,,,615b2b907ab500ee5de14716,62c53a0b54d8f26fb4f3eecb,2022-07-06_09h49.10.014,Colour_Asymmetry_Pilot,2022.1.3,Win32,60.12506013,62c50e9c1127f2cd403a315f,0,137,137,157,1,threefour,,,,,,,,,,,,,,,,,,,,,,,,,,,,,,,,,,,,,,,,,,,,,,,,,,,,,,,,,,,,,,,,,,,,,,,,,,,,,,,,,,,,,,,,,,,,,,,,,,,,,,,,,,,,,,,,,,,,,,,,,,,,,,,,,,,,,,,,,,,,,,,,,,,,,,,,,,,,,,
,,,,,,615b2b907ab500ee5de14716,62c53a0b54d8f26fb4f3eecb,2022-07-06_09h49.10.014,Colour_Asymmetry_Pilot,2022.1.3,Win32,60.12506013,62c50e9c1127f2cd403a315f,0,138,138,147,1,twofour,,,,,,,,,,,,,,,,,,,,,,,,,,,,,,,,,,,,,,,,,,,,,,,,,,,,,,,,,,,,,,,,,,,,,,,,,,,,,,,,,,,,,,,,,,,,,,,,,,,,,,,,,,,,,,,,,,,,,,,,,,,,,,,,,,,,,,,,,,,,,,,,,,,,,,,,,,,,,,
,,,,,,615b2b907ab500ee5de14716,62c53a0b54d8f26fb4f3eecb,2022-07-06_09h49.10.014,Colour_Asymmetry_Pilot,2022.1.3,Win32,60.12506013,62c50e9c1127f2cd403a315f,0,139,139,36,1,threeone,,,,,,,,,,,,,,,,,,,,,,,,,,,,,,,,,,,,,,,,,,,,,,,,,,,,,,,,,,,,,,,,,,,,,,,,,,,,,,,,,,,,,,,,,,,,,,,,,,,,,,,,,,,,,,,,,,,,,,,,,,,,,,,,,,,,,,,,,,,,,,,,,,,,,,,,,,,,,,
,,,,,,615b2b907ab500ee5de14716,62c53a0b54d8f26fb4f3eecb,2022-07-06_09h49.10.014,Colour_Asymmetry_Pilot,2022.1.3,Win32,60.12506013,62c50e9c1127f2cd403a315f,0,140,140,22,1,fourtwo,,,,,,,,,,,,,,,,,,,,,,,,,,,,,,,,,,,,,,,,,,,,,,,,,,,,,,,,,,,,,,,,,,,,,,,,,,,,,,,,,,,,,,,,,,,,,,,,,,,,,,,,,,,,,,,,,,,,,,,,,,,,,,,,,,,,,,,,,,,,,,,,,,,,,,,,,,,,,,
,,,,,,615b2b907ab500ee5de14716,62c53a0b54d8f26fb4f3eecb,2022-07-06_09h49.10.014,Colour_Asymmetry_Pilot,2022.1.3,Win32,60.12506013,62c50e9c1127f2cd403a315f,0,141,141,4,1,threeone,,,,,,,,,,,,,,,,,,,,,,,,,,,,,,,,,,,,,,,,,,,,,,,,,,,,,,,,,,,,,,,,,,,,,,,,,,,,,,,,,,,,,,,,,,,,,,,,,,,,,,,,,,,,,,,,,,,,,,,,,,,,,,,,,,,,,,,,,,,,,,,,,,,,,,,,,,,,,,
,,,,,,615b2b907ab500ee5de14716,62c53a0b54d8f26fb4f3eecb,2022-07-06_09h49.10.014,Colour_Asymmetry_Pilot,2022.1.3,Win32,60.12506013,62c50e9c1127f2cd403a315f,0,142,142,61,1,threefour,,,,,,,,,,,,,,,,,,,,,,,,,,,,,,,,,,,,,,,,,,,,,,,,,,,,,,,,,,,,,,,,,,,,,,,,,,,,,,,,,,,,,,,,,,,,,,,,,,,,,,,,,,,,,,,,,,,,,,,,,,,,,,,,,,,,,,,,,,,,,,,,,,,,,,,,,,,,,,
,,,,,,615b2b907ab500ee5de14716,62c53a0b54d8f26fb4f3eecb,2022-07-06_09h49.10.014,Colour_Asymmetry_Pilot,2022.1.3,Win32,60.12506013,62c50e9c1127f2cd403a315f,0,143,143,60,1,threeone,,,,,,,,,,,,,,,,,,,,,,,,,,,,,,,,,,,,,,,,,,,,,,,,,,,,,,,,,,,,,,,,,,,,,,,,,,,,,,,,,,,,,,,,,,,,,,,,,,,,,,,,,,,,,,,,,,,,,,,,,,,,,,,,,,,,,,,,,,,,,,,,,,,,,,,,,,,,,,
,,,,,,615b2b907ab500ee5de14716,62c53a0b54d8f26fb4f3eecb,2022-07-06_09h49.10.014,Colour_Asymmetry_Pilot,2022.1.3,Win32,60.12506013,62c50e9c1127f2cd403a315f,0,144,144,56,1,onetwo,,,,,,,,,,,,,,,,,,,,,,,,,,,,,,,,,,,,,,,,,,,,,,,,,,,,,,,,,,,,,,,,,,,,,,,,,,,,,,,,,,,,,,,,,,,,,,,,,,,,,,,,,,,,,,,,,,,,,,,,,,,,,,,,,,,,,,,,,,,,,,,,,,,,,,,,,,,,,,
,,,,,,615b2b907ab500ee5de14716,62c53a0b54d8f26fb4f3eecb,2022-07-06_09h49.10.014,Colour_Asymmetry_Pilot,2022.1.3,Win32,60.12506013,62c50e9c1127f2cd403a315f,0,145,145,97,1,onethree,,,,,,,,,,,,,,,,,,,,,,,,,,,,,,,,,,,,,,,,,,,,,,,,,,,,,,,,,,,,,,,,,,,,,,,,,,,,,,,,,,,,,,,,,,,,,,,,,,,,,,,,,,,,,,,,,,,,,,,,,,,,,,,,,,,,,,,,,,,,,,,,,,,,,,,,,,,,,,
,,,,,,615b2b907ab500ee5de14716,62c53a0b54d8f26fb4f3eecb,2022-07-06_09h49.10.014,Colour_Asymmetry_Pilot,2022.1.3,Win32,60.12506013,62c50e9c1127f2cd403a315f,0,146,146,68,1,threeone,,,,,,,,,,,,,,,,,,,,,,,,,,,,,,,,,,,,,,,,,,,,,,,,,,,,,,,,,,,,,,,,,,,,,,,,,,,,,,,,,,,,,,,,,,,,,,,,,,,,,,,,,,,,,,,,,,,,,,,,,,,,,,,,,,,,,,,,,,,,,,,,,,,,,,,,,,,,,,
,,,,,,615b2b907ab500ee5de14716,62c53a0b54d8f26fb4f3eecb,2022-07-06_09h49.10.014,Colour_Asymmetry_Pilot,2022.1.3,Win32,60.12506013,62c50e9c1127f2cd403a315f,0,147,147,110,1,fourtwo,,,,,,,,,,,,,,,,,,,,,,,,,,,,,,,,,,,,,,,,,,,,,,,,,,,,,,,,,,,,,,,,,,,,,,,,,,,,,,,,,,,,,,,,,,,,,,,,,,,,,,,,,,,,,,,,,,,,,,,,,,,,,,,,,,,,,,,,,,,,,,,,,,,,,,,,,,,,,,
,,,,,,615b2b907ab500ee5de14716,62c53a0b54d8f26fb4f3eecb,2022-07-06_09h49.10.014,Colour_Asymmetry_Pilot,2022.1.3,Win32,60.12506013,62c50e9c1127f2cd403a315f,0,148,148,112,1,onetwo,,,,,,,,,,,,,,,,,,,,,,,,,,,,,,,,,,,,,,,,,,,,,,,,,,,,,,,,,,,,,,,,,,,,,,,,,,,,,,,,,,,,,,,,,,,,,,,,,,,,,,,,,,,,,,,,,,,,,,,,,,,,,,,,,,,,,,,,,,,,,,,,,,,,,,,,,,,,,,
,,,,,,615b2b907ab500ee5de14716,62c53a0b54d8f26fb4f3eecb,2022-07-06_09h49.10.014,Colour_Asymmetry_Pilot,2022.1.3,Win32,60.12506013,62c50e9c1127f2cd403a315f,0,149,149,8,1,onetwo,,,,,,,,,,,,,,,,,,,,,,,,,,,,,,,,,,,,,,,,,,,,,,,,,,,,,,,,,,,,,,,,,,,,,,,,,,,,,,,,,,,,,,,,,,,,,,,,,,,,,,,,,,,,,,,,,,,,,,,,,,,,,,,,,,,,,,,,,,,,,,,,,,,,,,,,,,,,,,
,,,,,,615b2b907ab500ee5de14716,62c53a0b54d8f26fb4f3eecb,2022-07-06_09h49.10.014,Colour_Asymmetry_Pilot,2022.1.3,Win32,60.12506013,62c50e9c1127f2cd403a315f,0,150,150,102,1,fourtwo,,,,,,,,,,,,,,,,,,,,,,,,,,,,,,,,,,,,,,,,,,,,,,,,,,,,,,,,,,,,,,,,,,,,,,,,,,,,,,,,,,,,,,,,,,,,,,,,,,,,,,,,,,,,,,,,,,,,,,,,,,,,,,,,,,,,,,,,,,,,,,,,,,,,,,,,,,,,,,
,,,,,,615b2b907ab500ee5de14716,62c53a0b54d8f26fb4f3eecb,2022-07-06_09h49.10.014,Colour_Asymmetry_Pilot,2022.1.3,Win32,60.12506013,62c50e9c1127f2cd403a315f,0,151,151,103,1,fourthree,,,,,,,,,,,,,,,,,,,,,,,,,,,,,,,,,,,,,,,,,,,,,,,,,,,,,,,,,,,,,,,,,,,,,,,,,,,,,,,,,,,,,,,,,,,,,,,,,,,,,,,,,,,,,,,,,,,,,,,,,,,,,,,,,,,,,,,,,,,,,,,,,,,,,,,,,,,,,,
,,,,,,615b2b907ab500ee5de14716,62c53a0b54d8f26fb4f3eecb,2022-07-06_09h49.10.014,Colour_Asymmetry_Pilot,2022.1.3,Win32,60.12506013,62c50e9c1127f2cd403a315f,0,152,152,62,1,fourtwo,,,,,,,,,,,,,,,,,,,,,,,,,,,,,,,,,,,,,,,,,,,,,,,,,,,,,,,,,,,,,,,,,,,,,,,,,,,,,,,,,,,,,,,,,,,,,,,,,,,,,,,,,,,,,,,,,,,,,,,,,,,,,,,,,,,,,,,,,,,,,,,,,,,,,,,,,,,,,,
,,,,,,615b2b907ab500ee5de14716,62c53a0b54d8f26fb4f3eecb,2022-07-06_09h49.10.014,Colour_Asymmetry_Pilot,2022.1.3,Win32,60.12506013,62c50e9c1127f2cd403a315f,0,153,153,40,1,onetwo,,,,,,,,,,,,,,,,,,,,,,,,,,,,,,,,,,,,,,,,,,,,,,,,,,,,,,,,,,,,,,,,,,,,,,,,,,,,,,,,,,,,,,,,,,,,,,,,,,,,,,,,,,,,,,,,,,,,,,,,,,,,,,,,,,,,,,,,,,,,,,,,,,,,,,,,,,,,,,
,,,,,,615b2b907ab500ee5de14716,62c53a0b54d8f26fb4f3eecb,2022-07-06_09h49.10.014,Colour_Asymmetry_Pilot,2022.1.3,Win32,60.12506013,62c50e9c1127f2cd403a315f,0,154,154,37,1,threefour,,,,,,,,,,,,,,,,,,,,,,,,,,,,,,,,,,,,,,,,,,,,,,,,,,,,,,,,,,,,,,,,,,,,,,,,,,,,,,,,,,,,,,,,,,,,,,,,,,,,,,,,,,,,,,,,,,,,,,,,,,,,,,,,,,,,,,,,,,,,,,,,,,,,,,,,,,,,,,
,,,,,,615b2b907ab500ee5de14716,62c53a0b54d8f26fb4f3eecb,2022-07-06_09h49.10.014,Colour_Asymmetry_Pilot,2022.1.3,Win32,60.12506013,62c50e9c1127f2cd403a315f,0,155,155,127,1,fourthree,,,,,,,,,,,,,,,,,,,,,,,,,,,,,,,,,,,,,,,,,,,,,,,,,,,,,,,,,,,,,,,,,,,,,,,,,,,,,,,,,,,,,,,,,,,,,,,,,,,,,,,,,,,,,,,,,,,,,,,,,,,,,,,,,,,,,,,,,,,,,,,,,,,,,,,,,,,,,,
,,,,,,615b2b907ab500ee5de14716,62c53a0b54d8f26fb4f3eecb,2022-07-06_09h49.10.014,Colour_Asymmetry_Pilot,2022.1.3,Win32,60.12506013,62c50e9c1127f2cd403a315f,0,156,156,63,1,fourthree,,,,,,,,,,,,,,,,,,,,,,,,,,,,,,,,,,,,,,,,,,,,,,,,,,,,,,,,,,,,,,,,,,,,,,,,,,,,,,,,,,,,,,,,,,,,,,,,,,,,,,,,,,,,,,,,,,,,,,,,,,,,,,,,,,,,,,,,,,,,,,,,,,,,,,,,,,,,,,
,,,,,,615b2b907ab500ee5de14716,62c53a0b54d8f26fb4f3eecb,2022-07-06_09h49.10.014,Colour_Asymmetry_Pilot,2022.1.3,Win32,60.12506013,62c50e9c1127f2cd403a315f,0,157,157,20,1,threeone,,,,,,,,,,,,,,,,,,,,,,,,,,,,,,,,,,,,,,,,,,,,,,,,,,,,,,,,,,,,,,,,,,,,,,,,,,,,,,,,,,,,,,,,,,,,,,,,,,,,,,,,,,,,,,,,,,,,,,,,,,,,,,,,,,,,,,,,,,,,,,,,,,,,,,,,,,,,,,
,,,,,,615b2b907ab500ee5de14716,62c53a0b54d8f26fb4f3eecb,2022-07-06_09h49.10.014,Colour_Asymmetry_Pilot,2022.1.3,Win32,60.12506013,62c50e9c1127f2cd403a315f,0,158,158,141,1,threefour,,,,,,,,,,,,,,,,,,,,,,,,,,,,,,,,,,,,,,,,,,,,,,,,,,,,,,,,,,,,,,,,,,,,,,,,,,,,,,,,,,,,,,,,,,,,,,,,,,,,,,,,,,,,,,,,,,,,,,,,,,,,,,,,,,,,,,,,,,,,,,,,,,,,,,,,,,,,,,
,,,,,,615b2b907ab500ee5de14716,62c53a0b54d8f26fb4f3eecb,2022-07-06_09h49.10.014,Colour_Asymmetry_Pilot,2022.1.3,Win32,60.12506013,62c50e9c1127f2cd403a315f,0,159,159,118,1,fourtwo,,,,,,,,,,,,,,,,,,,,,,,,,,,,,,,,,,,,,,,,,,,,,,,,,,,,,,,,,,,,,,,,,,,,,,,,,,,,,,,,,,,,,,,,,,,,,,,,,,,,,,,,,,,,,,,,,,,,,,,,,,,,,,,,,,,,,,,,,,,,,,,,,,,,,,,,,,,,,,
,,,,,,615b2b907ab500ee5de14716,62c53a0b54d8f26fb4f3eecb,2022-07-06_09h49.10.014,Colour_Asymmetry_Pilot,2022.1.3,Win32,60.12506013,62c50e9c1127f2cd403a315f,0,160,160,6,1,fourtwo,,,,,,,,,,,,,,,,,,,,,,,,,,,,,,,,,,,,,,,,,,,,,,,,,,,,,,,,,,,,,,,,,,,,,,,,,,,,,,,,,,,,,,,,,,,,,,,,,,,,,,,,,,,,,,,,,,,,,,,,,,,,,,,,,,,,,,,,,,,,,,,,,,,,,,,,,,,,,,
,,,,,,615b2b907ab500ee5de14716,62c53a0b54d8f26fb4f3eecb,2022-07-06_09h49.10.014,Colour_Asymmetry_Pilot,2022.1.3,Win32,60.12506013,62c50e9c1127f2cd403a315f,0,161,161,19,1,twofour,,,,,,,,,,,,,,,,,,,,,,,,,,,,,,,,,,,,,,,,,,,,,,,,,,,,,,,,,,,,,,,,,,,,,,,,,,,,,,,,,,,,,,,,,,,,,,,,,,,,,,,,,,,,,,,,,,,,,,,,,,,,,,,,,,,,,,,,,,,,,,,,,,,,,,,,,,,,,,
,,,,,,615b2b907ab500ee5de14716,62c53a0b54d8f26fb4f3eecb,2022-07-06_09h49.10.014,Colour_Asymmetry_Pilot,2022.1.3,Win32,60.12506013,62c50e9c1127f2cd403a315f,,,,,,,space,8.535599999,space,56.7589,space,83.8901,space,23.6284,space,4.4365,space,6.1096,"[0.3881999999999999,-0.23939999999999995,-0.05040000000000011]",twofour,"[-0.4902000000000001,0.2704,-0.45899999999999996]",4,21.7154,69.60003662,84,1,0,0,response1disk_5,3.200012207,-7.200012207,0,0,1,rectangle_8,3.200012207,-7.200012207,0,0,1,2,3.200012207,-7.200012207,0,0,1,0,0,0,0,1,,,,,,,,,,,,,,,,,,,,,,,,,,,,,,,,,,,,,,,,,,,,,,,,,,,,,,,,,,,,,,,,,,,,,,,,,,,,,,,,,,,,,,,,,,,,,,,,,,,,,,,,,,,,,,,,,
,,,,,,615b2b907ab500ee5de14716,62c53a0b54d8f26fb4f3eecb,2022-07-06_09h49.10.014,Colour_Asymmetry_Pilot,2022.1.3,Win32,60.12506013,62c50e9c1127f2cd403a315f,,,,,,,,,,,,,,,,,,,"[0.9213999999999998,0.6391999999999998,-0.9922]",onetwo,"[-0.0040000000000000036,0.02739999999999987,-0.08239999999999992]",4,8.9921,32.79998779,74.3999939,1,0,0,response1disk_5,0.799987793,3.199981689,0,0,1,rectangle_8,0.799987793,3.199981689,0,0,1,2,0.799987793,3.199981689,0,0,1,1,0,1,0,1,,,,,,,,,,,,,,,,,,,,,,,,,,,,,,,,,,,,,,,,,,,,,,,,,,,,,,,,,,,,,,,,,,,,,,,,,,,,,,,,,,,,,,,,,,,,,,,,,,,,,,,,,,,,,,,,,
,,,,,,615b2b907ab500ee5de14716,62c53a0b54d8f26fb4f3eecb,2022-07-06_09h49.10.014,Colour_Asymmetry_Pilot,2022.1.3,Win32,60.12506013,62c50e9c1127f2cd403a315f,,,,,,,,,,,,,,,,,,,"[-0.9766,-0.6472,0.07440000000000002]",twofour,"[-0.4982,-0.2942,-0.0354000000000001]",4,4.4136,36.79998779,80.79998779,1,0,0,response1disk_5,0,1.600006104,0,0,1,rectangle_8,0,1.600006104,0,0,1,2,0,1.600006104,0,0,1,2,0,2,0,1,,,,,,,,,,,,,,,,,,,,,,,,,,,,,,,,,,,,,,,,,,,,,,,,,,,,,,,,,,,,,,,,,,,,,,,,,,,,,,,,,,,,,,,,,,,,,,,,,,,,,,,,,,,,,,,,,
,,,,,,615b2b907ab500ee5de14716,62c53a0b54d8f26fb4f3eecb,2022-07-06_09h49.10.014,Colour_Asymmetry_Pilot,2022.1.3,Win32,60.12506013,62c50e9c1127f2cd403a315f,,,,,,,,,,,,,,,,,,,"[0.22340000000000004,-0.9296,-0.7884]",onetwo,"[-0.34920000000000007,-0.702,-0.5216]",-4,3.6499,-43.20001221,76,1,0,0,response7disk_5,-2.399963379,4.799987793,0,0,1,rectangle_8,96,-46.3999939,0,0,1,2,-4,0,0,0,1,3,0,3,0,1,response3disk_7,5,rectangle_4,,,,,,,,,,,,,,,,,,,,,,,,,,,,,,,,,,,,,,,,,,,,,,,,,,,,,,,,,,,,,,,,,,,,,,,,,,,,,,,,,,,,,,,,,,,,,,,,,,,,,,,,,,,,,,
,,,,,,615b2b907ab500ee5de14716,62c53a0b54d8f26fb4f3eecb,2022-07-06_09h49.10.014,Colour_Asymmetry_Pilot,2022.1.3,Win32,60.12506013,62c50e9c1127f2cd403a315f,,,,,,,,,,,,,,,,,,,"[0.04299999999999993,0.16060000000000008,-0.6628000000000001]",fourthree,"[-0.4746,-0.0354000000000001,0.5449999999999999]",-4,3.0983,-72.79998779,92,0,0,1,response7disk_5,3.200012207,-1.600006104,0,0,1,rectangle_8,92.79998779,-58.3999939,0,0,1,2,2.400024414,-8,0,0,1,4,0,4,0,1,response3disk_7,5,rectangle_4,,,,,,,,,,,,,,,,,,,,,,,,,,,,,,,,,,,,,,,,,,,,,,,,,,,,,,,,,,,,,,,,,,,,,,,,,,,,,,,,,,,,,,,,,,,,,,,,,,,,,,,,,,,,,,
,,,,,,615b2b907ab500ee5de14716,62c53a0b54d8f26fb4f3eecb,2022-07-06_09h49.10.014,Colour_Asymmetry_Pilot,2022.1.3,Win32,60.12506013,62c50e9c1127f2cd403a315f,,,,,,,,,,,,,,,,,,,"[0.7176,-0.906,-0.6864]",twofour,"[1,0.12939999999999996,-1]",-4,4.650099999,-48,96,1,0,0,response7disk_5,8.799987793,3.199981689,0,0,1,rectangle_8,8.799987793,3.199981689,0,0,1,2,8.799987793,3.199981689,0,0,1,5,0,5,0,1,,,,,,,,,,,,,,,,,,,,,,,,,,,,,,,,,,,,,,,,,,,,,,,,,,,,,,,,,,,,,,,,,,,,,,,,,,,,,,,,,,,,,,,,,,,,,,,,,,,,,,,,,,,,,,,,,
,,,,,,615b2b907ab500ee5de14716,62c53a0b54d8f26fb4f3eecb,2022-07-06_09h49.10.014,Colour_Asymmetry_Pilot,2022.1.3,Win32,60.12506013,62c50e9c1127f2cd403a315f,,,,,,,,,,,,,,,,,,,"[0.6547999999999998,-0.043199999999999905,-0.011800000000000033]",threefour,"[0.6547999999999998,-0.043199999999999905,-0.011800000000000033]",4,2.8209,45.60003662,86.3999939,1,0,0,response1disk_5,2.400024414,-8.800018311,0,0,1,rectangle_8,2.400024414,-8.800018311,0,0,1,2,2.400024414,-8.800018311,0,0,1,6,0,6,0,1,,,,,,,,,,,,,,,,,,,,,,,,,,,,,,,,,,,,,,,,,,,,,,,,,,,,,,,,,,,,,,,,,,,,,,,,,,,,,,,,,,,,,,,,,,,,,,,,,,,,,,,,,,,,,,,,,
,,,,,,615b2b907ab500ee5de14716,62c53a0b54d8f26fb4f3eecb,2022-07-06_09h49.10.014,Colour_Asymmetry_Pilot,2022.1.3,Win32,60.12506013,62c50e9c1127f2cd403a315f,,,,,,,,,,,,,,,,,,,,fourthree,,-4,4.1053,,,,,,,,,,,,,,,,,,,,,,,,,,,,,,,,space,5.2865,"[-0.9688,-0.7412000000000001,-0.4902000000000001]","[0.37240000000000006,0.4980000000000002,-0.2864]",-50.39996338,87.19998169,1,0,0,response7disk,8.799987793,1.600006104,0,0,1,rectangle,8.799987793,1.600006104,0,0,1,,2,0.0076,0,8.799987793,1.600006104,0,0,1,0,0,0,51,1,51,first,,,,,,,,,,,,,,,,,,,,,,,,,,,,,,,,,,,,,,,,,,,,,,,,,,,,,,,,,,,,,,,,,,,,,,,,,
,,,,,,615b2b907ab500ee5de14716,62c53a0b54d8f26fb4f3eecb,2022-07-06_09h49.10.014,Colour_Asymmetry_Pilot,2022.1.3,Win32,60.12506013,62c50e9c1127f2cd403a315f,,,,,,,,,,,,,,,,,,,,fourtwo,,-4,2.611299999,,,,,,,,,,,,,,,,,,,,,,,,,,,,,,,,,,"[-0.09019999999999995,0.44300000000000006,0.5371999999999999]","[-0.38039999999999996,-0.4276,-0.1452]",-41.59997559,70.3999939,1,0,0,response7disk,-5.599975586,-5.600006104,0,0,1,rectangle,-5.599975586,-5.600006104,0,0,1,,2,0.0004,0,-5.599975586,-5.600006104,0,0,1,0,1,1,95,1,14,second,,,,,,,,,,,,,,,,,,,,,,,,,,,,,,,,,,,,,,,,,,,,,,,,,,,,,,,,,,,,,,,,,,,,,,,,,
,,,,,,615b2b907ab500ee5de14716,62c53a0b54d8f26fb4f3eecb,2022-07-06_09h49.10.014,Colour_Asymmetry_Pilot,2022.1.3,Win32,60.12506013,62c50e9c1127f2cd403a315f,,,,,,,,,,,,,,,,,,,,twofour,,-4,1.9114,,,,,,,,,,,,,,,,,,,,,,,,,,,,,,,,,,"[0.7018,0.7802,-0.16079999999999994]","[-0.45899999999999996,-0.3256,-0.9374]",-45.59997559,77.6000061,1,0,0,response7disk,-9.599975586,-1.600006104,0,0,1,rectangle,-9.599975586,-1.600006104,0,0,1,,3,0.0015,0,-9.599975586,-1.600006104,0,0,1,0,2,2,146,1,65,second,,,,,,,,,,,,,,,,,,,,,,,,,,,,,,,,,,,,,,,,,,,,,,,,,,,,,,,,,,,,,,,,,,,,,,,,,
,,,,,,615b2b907ab500ee5de14716,62c53a0b54d8f26fb4f3eecb,2022-07-06_09h49.10.014,Colour_Asymmetry_Pilot,2022.1.3,Win32,60.12506013,62c50e9c1127f2cd403a315f,,,,,,,,,,,,,,,,,,,,onethree,,-4,2.484,,,,,,,,,,,,,,,,,,,,,,,,,,,,,,,,,,"[-0.17659999999999998,0.3253999999999999,0.19999999999999996]","[0.6625999999999999,0.4980000000000002,-0.357]",-49.59997559,86.3999939,1,0,0,response7disk,-9.599975586,-1.600006104,0,0,1,rectangle,-9.599975586,-1.600006104,0,0,1,,3,0.0005,0,-9.599975586,-1.600006104,0,0,1,0,3,3,96,1,15,second,,,,,,,,,,,,,,,,,,,,,,,,,,,,,,,,,,,,,,,,,,,,,,,,,,,,,,,,,,,,,,,,,,,,,,,,,
,,,,,,615b2b907ab500ee5de14716,62c53a0b54d8f26fb4f3eecb,2022-07-06_09h49.10.014,Colour_Asymmetry_Pilot,2022.1.3,Win32,60.12506013,62c50e9c1127f2cd403a315f,,,,,,,,,,,,,,,,,,,,fourthree,,-4,1.115400001,,,,,,,,,,,,,,,,,,,,,,,,,,,,,,,,,,"[-0.45899999999999996,-0.3256,-0.9374]","[0.7018,0.7802,-0.16079999999999994]",-41.59997559,64,1,0,0,response7disk,4,-6.399993896,0,0,1,rectangle,4,-6.399993896,0,0,1,,1,0.0015,0,4,-6.399993896,0,0,1,0,4,4,65,1,65,first,,,,,,,,,,,,,,,,,,,,,,,,,,,,,,,,,,,,,,,,,,,,,,,,,,,,,,,,,,,,,,,,,,,,,,,,,
,,,,,,615b2b907ab500ee5de14716,62c53a0b54d8f26fb4f3eecb,2022-07-06_09h49.10.014,Colour_Asymmetry_Pilot,2022.1.3,Win32,60.12506013,62c50e9c1127f2cd403a315f,,,,,,,,,,,,,,,,,,,,onethree,,-4,1.2188,,,,,,,,,,,,,,,,,,,,,,,,,,,,,,,,,,"[-0.26280000000000003,-0.2158,-0.3256]","[0.4196,0.4665999999999999,0.3568]",-44,84,1,0,0,response7disk,-4,-8,0,0,1,rectangle,-4,-8,0,0,1,,2,0.0015,0,-4,-8,0,0,1,0,5,5,45,1,45,first,,,,,,,,,,,,,,,,,,,,,,,,,,,,,,,,,,,,,,,,,,,,,,,,,,,,,,,,,,,,,,,,,,,,,,,,,
,,,,,,615b2b907ab500ee5de14716,62c53a0b54d8f26fb4f3eecb,2022-07-06_09h49.10.014,Colour_Asymmetry_Pilot,2022.1.3,Win32,60.12506013,62c50e9c1127f2cd403a315f,,,,,,,,,,,,,,,,,,,,fourthree,,-4,1.0562,,,,,,,,,,,,,,,,,,,,,,,,,,,,,,,,,,"[-0.011800000000000033,-0.906,-0.45100000000000007]","[0.796,0.2156,-0.27859999999999996]",-36,68,1,0,0,response7disk,-10.39996338,-2.399993896,0,0,1,rectangle,-10.39996338,-2.399993896,0,0,1,,1,0.0018,0,-10.39996338,-2.399993896,0,0,1,0,6,6,43,1,43,first,,,,,,,,,,,,,,,,,,,,,,,,,,,,,,,,,,,,,,,,,,,,,,,,,,,,,,,,,,,,,,,,,,,,,,,,,
,,,,,,615b2b907ab500ee5de14716,62c53a0b54d8f26fb4f3eecb,2022-07-06_09h49.10.014,Colour_Asymmetry_Pilot,2022.1.3,Win32,60.12506013,62c50e9c1127f2cd403a315f,,,,,,,,,,,,,,,,,,,,onetwo,,4,2.6008,,,,,,,,,,,,,,,,,,,,,,,,,,,,,,,,,,"[-0.6942,-0.7648,-0.12959999999999994]","[-0.10599999999999998,-0.10599999999999998,0.5841999999999998]",36,84,1,0,0,response1disk,0,-6.399993896,1,0,0,rectangle,0,-6.399993896,1,0,0,,3,0.002,0,0,-6.399993896,1,0,0,0,7,7,121,1,40,second,,,,,,,,,,,,,,,,,,,,,,,,,,,,,,,,,,,,,,,,,,,,,,,,,,,,,,,,,,,,,,,,,,,,,,,,,
,,,,,,615b2b907ab500ee5de14716,62c53a0b54d8f26fb4f3eecb,2022-07-06_09h49.10.014,Colour_Asymmetry_Pilot,2022.1.3,Win32,60.12506013,62c50e9c1127f2cd403a315f,,,,,,,,,,,,,,,,,,,,twofour,,-4,1.000799999,,,,,,,,,,,,,,,,,,,,,,,,,,,,,,,,,,"[0.2784,-0.31000000000000005,-0.5452]","[0.34099999999999997,0.12939999999999996,-0.9766]",-31.20001221,63.19998169,1,0,0,response7disk,-10.39996338,4.799987793,1,0,0,rectangle,53.60003662,-99.20001221,0,0,1,1,1,5.752700001,1,-1.599975586,-4.800018311,1,0,0,0,8,8,136,1,55,second,response3disk_3,rectangle,,,,,,,,,,,,,,,,,,,,,,,,,,,,,,,,,,,,,,,,,,,,,,,,,,,,,,,,,,,,,,,,,,,,,,,
,,,,,,615b2b907ab500ee5de14716,62c53a0b54d8f26fb4f3eecb,2022-07-06_09h49.10.014,Colour_Asymmetry_Pilot,2022.1.3,Win32,60.12506013,62c50e9c1127f2cd403a315f,,,,,,,,,,,,,,,,,,,,fourtwo,,-4,1.4644,,,,,,,,,,,,,,,,,,,,,,,,,,,,,,,,,,"[-0.17659999999999998,-0.2864,-0.8354]","[0.23920000000000008,0.2704,0.16060000000000008]",-48.79998779,80.79998779,1,0,0,response7disk,-8.799987793,7.199981689,1,0,0,rectangle,-8.799987793,7.199981689,1,0,0,1,1,0.0004,0,-8.799987793,7.199981689,1,0,0,0,9,9,86,1,5,second,,,,,,,,,,,,,,,,,,,,,,,,,,,,,,,,,,,,,,,,,,,,,,,,,,,,,,,,,,,,,,,,,,,,,,,,,
,,,,,,615b2b907ab500ee5de14716,62c53a0b54d8f26fb4f3eecb,2022-07-06_09h49.10.014,Colour_Asymmetry_Pilot,2022.1.3,Win32,60.12506013,62c50e9c1127f2cd403a315f,,,,,,,,,,,,,,,,,,,,threefour,,-4,1.214900001,,,,,,,,,,,,,,,,,,,,,,,,,,,,,,,,,,"[0.37240000000000006,-0.050999999999999934,-0.5216]","[-0.45899999999999996,-0.3256,-0.9374]",-36.79998779,59.19998169,1,0,0,response7disk,-0.799987793,0.799987793,0,0,1,rectangle,-0.799987793,0.799987793,0,0,1,1,3,0.0025,0,-0.799987793,0.799987793,0,0,1,0,10,10,59,1,59,first,,,,,,,,,,,,,,,,,,,,,,,,,,,,,,,,,,,,,,,,,,,,,,,,,,,,,,,,,,,,,,,,,,,,,,,,,
,,,,,,615b2b907ab500ee5de14716,62c53a0b54d8f26fb4f3eecb,2022-07-06_09h49.10.014,Colour_Asymmetry_Pilot,2022.1.3,Win32,60.12506013,62c50e9c1127f2cd403a315f,,,,,,,,,,,,,,,,,,,,twofour,,-4,1.389,,,,,,,,,,,,,,,,,,,,,,,,,,,,,,,,,,"[-0.9844,-0.9688,-0.9922]","[-0.050999999999999934,-0.6706000000000001,-0.804]",-34.39996338,60.79998779,1,0,0,response7disk,-8.799987793,0,1,0,0,rectangle,-8.799987793,0,1,0,0,1,3,9.99994E-05,0,-8.799987793,0,1,0,0,0,11,11,21,1,21,first,,,,,,,,,,,,,,,,,,,,,,,,,,,,,,,,,,,,,,,,,,,,,,,,,,,,,,,,,,,,,,,,,,,,,,,,,
,,,,,,615b2b907ab500ee5de14716,62c53a0b54d8f26fb4f3eecb,2022-07-06_09h49.10.014,Colour_Asymmetry_Pilot,2022.1.3,Win32,60.12506013,62c50e9c1127f2cd403a315f,,,,,,,,,,,,,,,,,,,,twoone,,-4,0.9316,,,,,,,,,,,,,,,,,,,,,,,,,,,,,,,,,,"[0.7018,0.7802,-0.16079999999999994]","[-0.34920000000000007,-0.702,-0.5216]",-38.39996338,80.79998779,1,0,0,response7disk,-8.799987793,0,0,0,1,rectangle,-8.799987793,0,0,0,1,1,2,0.002,0,-8.799987793,0,0,0,1,0,12,12,13,1,13,first,,,,,,,,,,,,,,,,,,,,,,,,,,,,,,,,,,,,,,,,,,,,,,,,,,,,,,,,,,,,,,,,,,,,,,,,,
,,,,,,615b2b907ab500ee5de14716,62c53a0b54d8f26fb4f3eecb,2022-07-06_09h49.10.014,Colour_Asymmetry_Pilot,2022.1.3,Win32,60.12506013,62c50e9c1127f2cd403a315f,,,,,,,,,,,,,,,,,,,,twofour,,-4,1.1088,,,,,,,,,,,,,,,,,,,,,,,,,,,,,,,,,,"[0.5528,0.7409999999999999,-0.71]","[-0.48240000000000005,0.3175999999999999,0.2156]",-32,56,1,0,0,response7disk,-7.200012207,-4.800018311,1,0,0,rectangle,-7.200012207,-4.800018311,1,0,0,1,2,0.0005,0,-7.200012207,-4.800018311,1,0,0,0,13,13,48,1,48,first,,,,,,,,,,,,,,,,,,,,,,,,,,,,,,,,,,,,,,,,,,,,,,,,,,,,,,,,,,,,,,,,,,,,,,,,,
,,,,,,615b2b907ab500ee5de14716,62c53a0b54d8f26fb4f3eecb,2022-07-06_09h49.10.014,Colour_Asymmetry_Pilot,2022.1.3,Win32,60.12506013,62c50e9c1127f2cd403a315f,,,,,,,,,,,,,,,,,,,,twoone,,-4,1.184400001,,,,,,,,,,,,,,,,,,,,,,,,,,,,,,,,,,"[-0.2942,-0.24719999999999998,-0.357]","[-0.9766,-0.6472,0.07440000000000002]",-50.39996338,97.6000061,1,0,0,response7disk,-17.59997559,-2.399993896,1,0,0,rectangle,-17.59997559,-2.399993896,1,0,0,1,1,0.0038,0,-17.59997559,-2.399993896,1,0,0,0,14,14,118,1,37,second,,,,,,,,,,,,,,,,,,,,,,,,,,,,,,,,,,,,,,,,,,,,,,,,,,,,,,,,,,,,,,,,,,,,,,,,,
