trials.thisRepN,trials.thisTrialN,trials.thisN,trials.thisIndex,trials.ran,Colourcodes,participant,session,date,expName,psychopyVersion,OS,frameRate,study_id,trials_4.thisRepN,trials_4.thisTrialN,trials_4.thisN,trials_4.thisIndex,trials_4.ran,StimulusPos,key_resp.keys,key_resp.rt,key_resp_2.keys,key_resp_2.rt,key_resp_15.keys,key_resp_15.rt,key_resp_17.keys,key_resp_17.rt,key_resp_9.keys,key_resp_9.rt,key_resp_10.keys,key_resp_10.rt,Circle1_col,Ecc,Circle2_col,similarity,response_time,mouse_5.x,mouse_5.y,mouse_5.leftButton,mouse_5.midButton,mouse_5.rightButton,mouse_5.clicked_name,mouse_10.x,mouse_10.y,mouse_10.leftButton,mouse_10.midButton,mouse_10.rightButton,mouse_10.clicked_name,mouse_7.x,mouse_7.y,mouse_7.leftButton,mouse_7.midButton,mouse_7.rightButton,mouse_7.clicked_name,catchprac,catchnumberprac,mouse_6.x,mouse_6.y,mouse_6.leftButton,mouse_6.midButton,mouse_6.rightButton,mouse_6.clicked_name,duringprac.thisRepN,duringprac.thisTrialN,duringprac.thisN,duringprac.thisIndex,duringprac.ran,key_resp_22.keys,key_resp_22.rt,Circle1_colour,Circle2_colour,mouse.x,mouse.y,mouse.leftButton,mouse.midButton,mouse.rightButton,mouse.clicked_name,mouse_2.x,mouse_2.y,mouse_2.leftButton,mouse_2.midButton,mouse_2.rightButton,mouse_2.clicked_name,mouse_3.x,mouse_3.y,mouse_3.leftButton,mouse_3.midButton,mouse_3.rightButton,catchresponse,catchnumber,response_time_catch,Catch,mouse_11.x,mouse_11.y,mouse_11.leftButton,mouse_11.midButton,mouse_11.rightButton,trials_2.thisRepN,trials_2.thisTrialN,trials_2.thisN,trials_2.thisIndex,trials_2.ran,Colourpair,Temporder,mouse_3.clicked_name,mouse_11.clicked_name,trials_3.thisRepN,trials_3.thisTrialN,trials_3.thisN,trials_3.thisIndex,trials_3.ran,key_resp_instr_Ishi.keys,key_resp_instr_Ishi.rt,Ishi_trial_keyresp.keys,Ishi_textbox.text,Ishi_mouse.x,Ishi_mouse.y,Ishi_mouse.leftButton,Ishi_mouse.midButton,Ishi_mouse.rightButton,Ishi_mouse.clicked_name,Ishi_loop.thisRepN,Ishi_loop.thisTrialN,Ishi_loop.thisN,Ishi_loop.thisIndex,Ishi_loop.ran,imageaddress,textbox.text,mouse_4.x,mouse_4.y,mouse_4.leftButton,mouse_4.midButton,mouse_4.rightButton,mouse_4.clicked_name,textbox_2.text,mouse_8.x,mouse_8.y,mouse_8.leftButton,mouse_8.midButton,mouse_8.rightButton,mouse_8.clicked_name,textbox_3.text,mouse_9.x,mouse_9.y,mouse_9.leftButton,mouse_9.midButton,mouse_9.rightButton,mouse_9.clicked_name,textbox_4.text,mouse_12.x,mouse_12.y,mouse_12.leftButton,mouse_12.midButton,mouse_12.rightButton,mouse_12.clicked_name,textbox_5.text,mouse_13.x,mouse_13.y,mouse_13.leftButton,mouse_13.midButton,mouse_13.rightButton,mouse_13.clicked_name,textbox_6.text,mouse_14.x,mouse_14.y,mouse_14.leftButton,mouse_14.midButton,mouse_14.rightButton,mouse_14.clicked_name,textbox_7.text,mouse_15.x,mouse_15.y,mouse_15.leftButton,mouse_15.midButton,mouse_15.rightButton,mouse_15.clicked_name
0,0,0,34,1,,60d333c3c400caf1dcdbe2a4,62c53a176609812547edd1e5,2022-07-06_09h31.53.601,Colour_Asymmetry_Pilot,2022.1.3,Win32,75.00187505,62c50e9c1127f2cd403a315f,,,,,,,,,,,,,,,,,,,,,,,,,,,,,,,,,,,,,,,,,,,,,,,,,,,,,,,,,,,,,,,,,,,,,,,,,,,,,,,,,,,,,,,,,,,,,,,,,,,,,,,,,,,,,,,,,,,,,,,,,,,,,,,,,,,,,,,,,,,,,,,,,,,,,,,,,,,,,,,,,,,
0,1,1,80,1,,60d333c3c400caf1dcdbe2a4,62c53a176609812547edd1e5,2022-07-06_09h31.53.601,Colour_Asymmetry_Pilot,2022.1.3,Win32,75.00187505,62c50e9c1127f2cd403a315f,,,,,,,,,,,,,,,,,,,,,,,,,,,,,,,,,,,,,,,,,,,,,,,,,,,,,,,,,,,,,,,,,,,,,,,,,,,,,,,,,,,,,,,,,,,,,,,,,,,,,,,,,,,,,,,,,,,,,,,,,,,,,,,,,,,,,,,,,,,,,,,,,,,,,,,,,,,,,,,,,,,
0,2,2,22,1,,60d333c3c400caf1dcdbe2a4,62c53a176609812547edd1e5,2022-07-06_09h31.53.601,Colour_Asymmetry_Pilot,2022.1.3,Win32,75.00187505,62c50e9c1127f2cd403a315f,,,,,,,,,,,,,,,,,,,,,,,,,,,,,,,,,,,,,,,,,,,,,,,,,,,,,,,,,,,,,,,,,,,,,,,,,,,,,,,,,,,,,,,,,,,,,,,,,,,,,,,,,,,,,,,,,,,,,,,,,,,,,,,,,,,,,,,,,,,,,,,,,,,,,,,,,,,,,,,,,,,
0,3,3,25,1,,60d333c3c400caf1dcdbe2a4,62c53a176609812547edd1e5,2022-07-06_09h31.53.601,Colour_Asymmetry_Pilot,2022.1.3,Win32,75.00187505,62c50e9c1127f2cd403a315f,,,,,,,,,,,,,,,,,,,,,,,,,,,,,,,,,,,,,,,,,,,,,,,,,,,,,,,,,,,,,,,,,,,,,,,,,,,,,,,,,,,,,,,,,,,,,,,,,,,,,,,,,,,,,,,,,,,,,,,,,,,,,,,,,,,,,,,,,,,,,,,,,,,,,,,,,,,,,,,,,,,
0,4,4,10,1,,60d333c3c400caf1dcdbe2a4,62c53a176609812547edd1e5,2022-07-06_09h31.53.601,Colour_Asymmetry_Pilot,2022.1.3,Win32,75.00187505,62c50e9c1127f2cd403a315f,,,,,,,,,,,,,,,,,,,,,,,,,,,,,,,,,,,,,,,,,,,,,,,,,,,,,,,,,,,,,,,,,,,,,,,,,,,,,,,,,,,,,,,,,,,,,,,,,,,,,,,,,,,,,,,,,,,,,,,,,,,,,,,,,,,,,,,,,,,,,,,,,,,,,,,,,,,,,,,,,,,
0,5,5,24,1,,60d333c3c400caf1dcdbe2a4,62c53a176609812547edd1e5,2022-07-06_09h31.53.601,Colour_Asymmetry_Pilot,2022.1.3,Win32,75.00187505,62c50e9c1127f2cd403a315f,,,,,,,,,,,,,,,,,,,,,,,,,,,,,,,,,,,,,,,,,,,,,,,,,,,,,,,,,,,,,,,,,,,,,,,,,,,,,,,,,,,,,,,,,,,,,,,,,,,,,,,,,,,,,,,,,,,,,,,,,,,,,,,,,,,,,,,,,,,,,,,,,,,,,,,,,,,,,,,,,,,
0,6,6,12,1,,60d333c3c400caf1dcdbe2a4,62c53a176609812547edd1e5,2022-07-06_09h31.53.601,Colour_Asymmetry_Pilot,2022.1.3,Win32,75.00187505,62c50e9c1127f2cd403a315f,,,,,,,,,,,,,,,,,,,,,,,,,,,,,,,,,,,,,,,,,,,,,,,,,,,,,,,,,,,,,,,,,,,,,,,,,,,,,,,,,,,,,,,,,,,,,,,,,,,,,,,,,,,,,,,,,,,,,,,,,,,,,,,,,,,,,,,,,,,,,,,,,,,,,,,,,,,,,,,,,,,
0,7,7,48,1,,60d333c3c400caf1dcdbe2a4,62c53a176609812547edd1e5,2022-07-06_09h31.53.601,Colour_Asymmetry_Pilot,2022.1.3,Win32,75.00187505,62c50e9c1127f2cd403a315f,,,,,,,,,,,,,,,,,,,,,,,,,,,,,,,,,,,,,,,,,,,,,,,,,,,,,,,,,,,,,,,,,,,,,,,,,,,,,,,,,,,,,,,,,,,,,,,,,,,,,,,,,,,,,,,,,,,,,,,,,,,,,,,,,,,,,,,,,,,,,,,,,,,,,,,,,,,,,,,,,,,
0,8,8,68,1,,60d333c3c400caf1dcdbe2a4,62c53a176609812547edd1e5,2022-07-06_09h31.53.601,Colour_Asymmetry_Pilot,2022.1.3,Win32,75.00187505,62c50e9c1127f2cd403a315f,,,,,,,,,,,,,,,,,,,,,,,,,,,,,,,,,,,,,,,,,,,,,,,,,,,,,,,,,,,,,,,,,,,,,,,,,,,,,,,,,,,,,,,,,,,,,,,,,,,,,,,,,,,,,,,,,,,,,,,,,,,,,,,,,,,,,,,,,,,,,,,,,,,,,,,,,,,,,,,,,,,
0,9,9,51,1,,60d333c3c400caf1dcdbe2a4,62c53a176609812547edd1e5,2022-07-06_09h31.53.601,Colour_Asymmetry_Pilot,2022.1.3,Win32,75.00187505,62c50e9c1127f2cd403a315f,,,,,,,,,,,,,,,,,,,,,,,,,,,,,,,,,,,,,,,,,,,,,,,,,,,,,,,,,,,,,,,,,,,,,,,,,,,,,,,,,,,,,,,,,,,,,,,,,,,,,,,,,,,,,,,,,,,,,,,,,,,,,,,,,,,,,,,,,,,,,,,,,,,,,,,,,,,,,,,,,,,
0,10,10,49,1,,60d333c3c400caf1dcdbe2a4,62c53a176609812547edd1e5,2022-07-06_09h31.53.601,Colour_Asymmetry_Pilot,2022.1.3,Win32,75.00187505,62c50e9c1127f2cd403a315f,,,,,,,,,,,,,,,,,,,,,,,,,,,,,,,,,,,,,,,,,,,,,,,,,,,,,,,,,,,,,,,,,,,,,,,,,,,,,,,,,,,,,,,,,,,,,,,,,,,,,,,,,,,,,,,,,,,,,,,,,,,,,,,,,,,,,,,,,,,,,,,,,,,,,,,,,,,,,,,,,,,
0,11,11,27,1,,60d333c3c400caf1dcdbe2a4,62c53a176609812547edd1e5,2022-07-06_09h31.53.601,Colour_Asymmetry_Pilot,2022.1.3,Win32,75.00187505,62c50e9c1127f2cd403a315f,,,,,,,,,,,,,,,,,,,,,,,,,,,,,,,,,,,,,,,,,,,,,,,,,,,,,,,,,,,,,,,,,,,,,,,,,,,,,,,,,,,,,,,,,,,,,,,,,,,,,,,,,,,,,,,,,,,,,,,,,,,,,,,,,,,,,,,,,,,,,,,,,,,,,,,,,,,,,,,,,,,
0,12,12,81,1,,60d333c3c400caf1dcdbe2a4,62c53a176609812547edd1e5,2022-07-06_09h31.53.601,Colour_Asymmetry_Pilot,2022.1.3,Win32,75.00187505,62c50e9c1127f2cd403a315f,,,,,,,,,,,,,,,,,,,,,,,,,,,,,,,,,,,,,,,,,,,,,,,,,,,,,,,,,,,,,,,,,,,,,,,,,,,,,,,,,,,,,,,,,,,,,,,,,,,,,,,,,,,,,,,,,,,,,,,,,,,,,,,,,,,,,,,,,,,,,,,,,,,,,,,,,,,,,,,,,,,
0,13,13,44,1,,60d333c3c400caf1dcdbe2a4,62c53a176609812547edd1e5,2022-07-06_09h31.53.601,Colour_Asymmetry_Pilot,2022.1.3,Win32,75.00187505,62c50e9c1127f2cd403a315f,,,,,,,,,,,,,,,,,,,,,,,,,,,,,,,,,,,,,,,,,,,,,,,,,,,,,,,,,,,,,,,,,,,,,,,,,,,,,,,,,,,,,,,,,,,,,,,,,,,,,,,,,,,,,,,,,,,,,,,,,,,,,,,,,,,,,,,,,,,,,,,,,,,,,,,,,,,,,,,,,,,
0,14,14,35,1,,60d333c3c400caf1dcdbe2a4,62c53a176609812547edd1e5,2022-07-06_09h31.53.601,Colour_Asymmetry_Pilot,2022.1.3,Win32,75.00187505,62c50e9c1127f2cd403a315f,,,,,,,,,,,,,,,,,,,,,,,,,,,,,,,,,,,,,,,,,,,,,,,,,,,,,,,,,,,,,,,,,,,,,,,,,,,,,,,,,,,,,,,,,,,,,,,,,,,,,,,,,,,,,,,,,,,,,,,,,,,,,,,,,,,,,,,,,,,,,,,,,,,,,,,,,,,,,,,,,,,
0,15,15,67,1,,60d333c3c400caf1dcdbe2a4,62c53a176609812547edd1e5,2022-07-06_09h31.53.601,Colour_Asymmetry_Pilot,2022.1.3,Win32,75.00187505,62c50e9c1127f2cd403a315f,,,,,,,,,,,,,,,,,,,,,,,,,,,,,,,,,,,,,,,,,,,,,,,,,,,,,,,,,,,,,,,,,,,,,,,,,,,,,,,,,,,,,,,,,,,,,,,,,,,,,,,,,,,,,,,,,,,,,,,,,,,,,,,,,,,,,,,,,,,,,,,,,,,,,,,,,,,,,,,,,,,
0,16,16,70,1,,60d333c3c400caf1dcdbe2a4,62c53a176609812547edd1e5,2022-07-06_09h31.53.601,Colour_Asymmetry_Pilot,2022.1.3,Win32,75.00187505,62c50e9c1127f2cd403a315f,,,,,,,,,,,,,,,,,,,,,,,,,,,,,,,,,,,,,,,,,,,,,,,,,,,,,,,,,,,,,,,,,,,,,,,,,,,,,,,,,,,,,,,,,,,,,,,,,,,,,,,,,,,,,,,,,,,,,,,,,,,,,,,,,,,,,,,,,,,,,,,,,,,,,,,,,,,,,,,,,,,
0,17,17,30,1,,60d333c3c400caf1dcdbe2a4,62c53a176609812547edd1e5,2022-07-06_09h31.53.601,Colour_Asymmetry_Pilot,2022.1.3,Win32,75.00187505,62c50e9c1127f2cd403a315f,,,,,,,,,,,,,,,,,,,,,,,,,,,,,,,,,,,,,,,,,,,,,,,,,,,,,,,,,,,,,,,,,,,,,,,,,,,,,,,,,,,,,,,,,,,,,,,,,,,,,,,,,,,,,,,,,,,,,,,,,,,,,,,,,,,,,,,,,,,,,,,,,,,,,,,,,,,,,,,,,,,
0,18,18,36,1,,60d333c3c400caf1dcdbe2a4,62c53a176609812547edd1e5,2022-07-06_09h31.53.601,Colour_Asymmetry_Pilot,2022.1.3,Win32,75.00187505,62c50e9c1127f2cd403a315f,,,,,,,,,,,,,,,,,,,,,,,,,,,,,,,,,,,,,,,,,,,,,,,,,,,,,,,,,,,,,,,,,,,,,,,,,,,,,,,,,,,,,,,,,,,,,,,,,,,,,,,,,,,,,,,,,,,,,,,,,,,,,,,,,,,,,,,,,,,,,,,,,,,,,,,,,,,,,,,,,,,
0,19,19,26,1,,60d333c3c400caf1dcdbe2a4,62c53a176609812547edd1e5,2022-07-06_09h31.53.601,Colour_Asymmetry_Pilot,2022.1.3,Win32,75.00187505,62c50e9c1127f2cd403a315f,,,,,,,,,,,,,,,,,,,,,,,,,,,,,,,,,,,,,,,,,,,,,,,,,,,,,,,,,,,,,,,,,,,,,,,,,,,,,,,,,,,,,,,,,,,,,,,,,,,,,,,,,,,,,,,,,,,,,,,,,,,,,,,,,,,,,,,,,,,,,,,,,,,,,,,,,,,,,,,,,,,
0,20,20,8,1,,60d333c3c400caf1dcdbe2a4,62c53a176609812547edd1e5,2022-07-06_09h31.53.601,Colour_Asymmetry_Pilot,2022.1.3,Win32,75.00187505,62c50e9c1127f2cd403a315f,,,,,,,,,,,,,,,,,,,,,,,,,,,,,,,,,,,,,,,,,,,,,,,,,,,,,,,,,,,,,,,,,,,,,,,,,,,,,,,,,,,,,,,,,,,,,,,,,,,,,,,,,,,,,,,,,,,,,,,,,,,,,,,,,,,,,,,,,,,,,,,,,,,,,,,,,,,,,,,,,,,
0,21,21,13,1,,60d333c3c400caf1dcdbe2a4,62c53a176609812547edd1e5,2022-07-06_09h31.53.601,Colour_Asymmetry_Pilot,2022.1.3,Win32,75.00187505,62c50e9c1127f2cd403a315f,,,,,,,,,,,,,,,,,,,,,,,,,,,,,,,,,,,,,,,,,,,,,,,,,,,,,,,,,,,,,,,,,,,,,,,,,,,,,,,,,,,,,,,,,,,,,,,,,,,,,,,,,,,,,,,,,,,,,,,,,,,,,,,,,,,,,,,,,,,,,,,,,,,,,,,,,,,,,,,,,,,
0,22,22,74,1,,60d333c3c400caf1dcdbe2a4,62c53a176609812547edd1e5,2022-07-06_09h31.53.601,Colour_Asymmetry_Pilot,2022.1.3,Win32,75.00187505,62c50e9c1127f2cd403a315f,,,,,,,,,,,,,,,,,,,,,,,,,,,,,,,,,,,,,,,,,,,,,,,,,,,,,,,,,,,,,,,,,,,,,,,,,,,,,,,,,,,,,,,,,,,,,,,,,,,,,,,,,,,,,,,,,,,,,,,,,,,,,,,,,,,,,,,,,,,,,,,,,,,,,,,,,,,,,,,,,,,
0,23,23,64,1,,60d333c3c400caf1dcdbe2a4,62c53a176609812547edd1e5,2022-07-06_09h31.53.601,Colour_Asymmetry_Pilot,2022.1.3,Win32,75.00187505,62c50e9c1127f2cd403a315f,,,,,,,,,,,,,,,,,,,,,,,,,,,,,,,,,,,,,,,,,,,,,,,,,,,,,,,,,,,,,,,,,,,,,,,,,,,,,,,,,,,,,,,,,,,,,,,,,,,,,,,,,,,,,,,,,,,,,,,,,,,,,,,,,,,,,,,,,,,,,,,,,,,,,,,,,,,,,,,,,,,
0,24,24,42,1,,60d333c3c400caf1dcdbe2a4,62c53a176609812547edd1e5,2022-07-06_09h31.53.601,Colour_Asymmetry_Pilot,2022.1.3,Win32,75.00187505,62c50e9c1127f2cd403a315f,,,,,,,,,,,,,,,,,,,,,,,,,,,,,,,,,,,,,,,,,,,,,,,,,,,,,,,,,,,,,,,,,,,,,,,,,,,,,,,,,,,,,,,,,,,,,,,,,,,,,,,,,,,,,,,,,,,,,,,,,,,,,,,,,,,,,,,,,,,,,,,,,,,,,,,,,,,,,,,,,,,
0,25,25,0,1,,60d333c3c400caf1dcdbe2a4,62c53a176609812547edd1e5,2022-07-06_09h31.53.601,Colour_Asymmetry_Pilot,2022.1.3,Win32,75.00187505,62c50e9c1127f2cd403a315f,,,,,,,,,,,,,,,,,,,,,,,,,,,,,,,,,,,,,,,,,,,,,,,,,,,,,,,,,,,,,,,,,,,,,,,,,,,,,,,,,,,,,,,,,,,,,,,,,,,,,,,,,,,,,,,,,,,,,,,,,,,,,,,,,,,,,,,,,,,,,,,,,,,,,,,,,,,,,,,,,,,
0,26,26,85,1,,60d333c3c400caf1dcdbe2a4,62c53a176609812547edd1e5,2022-07-06_09h31.53.601,Colour_Asymmetry_Pilot,2022.1.3,Win32,75.00187505,62c50e9c1127f2cd403a315f,,,,,,,,,,,,,,,,,,,,,,,,,,,,,,,,,,,,,,,,,,,,,,,,,,,,,,,,,,,,,,,,,,,,,,,,,,,,,,,,,,,,,,,,,,,,,,,,,,,,,,,,,,,,,,,,,,,,,,,,,,,,,,,,,,,,,,,,,,,,,,,,,,,,,,,,,,,,,,,,,,,
0,27,27,11,1,,60d333c3c400caf1dcdbe2a4,62c53a176609812547edd1e5,2022-07-06_09h31.53.601,Colour_Asymmetry_Pilot,2022.1.3,Win32,75.00187505,62c50e9c1127f2cd403a315f,,,,,,,,,,,,,,,,,,,,,,,,,,,,,,,,,,,,,,,,,,,,,,,,,,,,,,,,,,,,,,,,,,,,,,,,,,,,,,,,,,,,,,,,,,,,,,,,,,,,,,,,,,,,,,,,,,,,,,,,,,,,,,,,,,,,,,,,,,,,,,,,,,,,,,,,,,,,,,,,,,,
0,28,28,45,1,,60d333c3c400caf1dcdbe2a4,62c53a176609812547edd1e5,2022-07-06_09h31.53.601,Colour_Asymmetry_Pilot,2022.1.3,Win32,75.00187505,62c50e9c1127f2cd403a315f,,,,,,,,,,,,,,,,,,,,,,,,,,,,,,,,,,,,,,,,,,,,,,,,,,,,,,,,,,,,,,,,,,,,,,,,,,,,,,,,,,,,,,,,,,,,,,,,,,,,,,,,,,,,,,,,,,,,,,,,,,,,,,,,,,,,,,,,,,,,,,,,,,,,,,,,,,,,,,,,,,,
0,29,29,57,1,,60d333c3c400caf1dcdbe2a4,62c53a176609812547edd1e5,2022-07-06_09h31.53.601,Colour_Asymmetry_Pilot,2022.1.3,Win32,75.00187505,62c50e9c1127f2cd403a315f,,,,,,,,,,,,,,,,,,,,,,,,,,,,,,,,,,,,,,,,,,,,,,,,,,,,,,,,,,,,,,,,,,,,,,,,,,,,,,,,,,,,,,,,,,,,,,,,,,,,,,,,,,,,,,,,,,,,,,,,,,,,,,,,,,,,,,,,,,,,,,,,,,,,,,,,,,,,,,,,,,,
0,30,30,14,1,,60d333c3c400caf1dcdbe2a4,62c53a176609812547edd1e5,2022-07-06_09h31.53.601,Colour_Asymmetry_Pilot,2022.1.3,Win32,75.00187505,62c50e9c1127f2cd403a315f,,,,,,,,,,,,,,,,,,,,,,,,,,,,,,,,,,,,,,,,,,,,,,,,,,,,,,,,,,,,,,,,,,,,,,,,,,,,,,,,,,,,,,,,,,,,,,,,,,,,,,,,,,,,,,,,,,,,,,,,,,,,,,,,,,,,,,,,,,,,,,,,,,,,,,,,,,,,,,,,,,,
0,31,31,28,1,,60d333c3c400caf1dcdbe2a4,62c53a176609812547edd1e5,2022-07-06_09h31.53.601,Colour_Asymmetry_Pilot,2022.1.3,Win32,75.00187505,62c50e9c1127f2cd403a315f,,,,,,,,,,,,,,,,,,,,,,,,,,,,,,,,,,,,,,,,,,,,,,,,,,,,,,,,,,,,,,,,,,,,,,,,,,,,,,,,,,,,,,,,,,,,,,,,,,,,,,,,,,,,,,,,,,,,,,,,,,,,,,,,,,,,,,,,,,,,,,,,,,,,,,,,,,,,,,,,,,,
0,32,32,56,1,,60d333c3c400caf1dcdbe2a4,62c53a176609812547edd1e5,2022-07-06_09h31.53.601,Colour_Asymmetry_Pilot,2022.1.3,Win32,75.00187505,62c50e9c1127f2cd403a315f,,,,,,,,,,,,,,,,,,,,,,,,,,,,,,,,,,,,,,,,,,,,,,,,,,,,,,,,,,,,,,,,,,,,,,,,,,,,,,,,,,,,,,,,,,,,,,,,,,,,,,,,,,,,,,,,,,,,,,,,,,,,,,,,,,,,,,,,,,,,,,,,,,,,,,,,,,,,,,,,,,,
0,33,33,53,1,,60d333c3c400caf1dcdbe2a4,62c53a176609812547edd1e5,2022-07-06_09h31.53.601,Colour_Asymmetry_Pilot,2022.1.3,Win32,75.00187505,62c50e9c1127f2cd403a315f,,,,,,,,,,,,,,,,,,,,,,,,,,,,,,,,,,,,,,,,,,,,,,,,,,,,,,,,,,,,,,,,,,,,,,,,,,,,,,,,,,,,,,,,,,,,,,,,,,,,,,,,,,,,,,,,,,,,,,,,,,,,,,,,,,,,,,,,,,,,,,,,,,,,,,,,,,,,,,,,,,,
0,34,34,82,1,,60d333c3c400caf1dcdbe2a4,62c53a176609812547edd1e5,2022-07-06_09h31.53.601,Colour_Asymmetry_Pilot,2022.1.3,Win32,75.00187505,62c50e9c1127f2cd403a315f,,,,,,,,,,,,,,,,,,,,,,,,,,,,,,,,,,,,,,,,,,,,,,,,,,,,,,,,,,,,,,,,,,,,,,,,,,,,,,,,,,,,,,,,,,,,,,,,,,,,,,,,,,,,,,,,,,,,,,,,,,,,,,,,,,,,,,,,,,,,,,,,,,,,,,,,,,,,,,,,,,,
0,35,35,66,1,,60d333c3c400caf1dcdbe2a4,62c53a176609812547edd1e5,2022-07-06_09h31.53.601,Colour_Asymmetry_Pilot,2022.1.3,Win32,75.00187505,62c50e9c1127f2cd403a315f,,,,,,,,,,,,,,,,,,,,,,,,,,,,,,,,,,,,,,,,,,,,,,,,,,,,,,,,,,,,,,,,,,,,,,,,,,,,,,,,,,,,,,,,,,,,,,,,,,,,,,,,,,,,,,,,,,,,,,,,,,,,,,,,,,,,,,,,,,,,,,,,,,,,,,,,,,,,,,,,,,,
0,36,36,6,1,,60d333c3c400caf1dcdbe2a4,62c53a176609812547edd1e5,2022-07-06_09h31.53.601,Colour_Asymmetry_Pilot,2022.1.3,Win32,75.00187505,62c50e9c1127f2cd403a315f,,,,,,,,,,,,,,,,,,,,,,,,,,,,,,,,,,,,,,,,,,,,,,,,,,,,,,,,,,,,,,,,,,,,,,,,,,,,,,,,,,,,,,,,,,,,,,,,,,,,,,,,,,,,,,,,,,,,,,,,,,,,,,,,,,,,,,,,,,,,,,,,,,,,,,,,,,,,,,,,,,,
0,37,37,29,1,,60d333c3c400caf1dcdbe2a4,62c53a176609812547edd1e5,2022-07-06_09h31.53.601,Colour_Asymmetry_Pilot,2022.1.3,Win32,75.00187505,62c50e9c1127f2cd403a315f,,,,,,,,,,,,,,,,,,,,,,,,,,,,,,,,,,,,,,,,,,,,,,,,,,,,,,,,,,,,,,,,,,,,,,,,,,,,,,,,,,,,,,,,,,,,,,,,,,,,,,,,,,,,,,,,,,,,,,,,,,,,,,,,,,,,,,,,,,,,,,,,,,,,,,,,,,,,,,,,,,,
0,38,38,89,1,,60d333c3c400caf1dcdbe2a4,62c53a176609812547edd1e5,2022-07-06_09h31.53.601,Colour_Asymmetry_Pilot,2022.1.3,Win32,75.00187505,62c50e9c1127f2cd403a315f,,,,,,,,,,,,,,,,,,,,,,,,,,,,,,,,,,,,,,,,,,,,,,,,,,,,,,,,,,,,,,,,,,,,,,,,,,,,,,,,,,,,,,,,,,,,,,,,,,,,,,,,,,,,,,,,,,,,,,,,,,,,,,,,,,,,,,,,,,,,,,,,,,,,,,,,,,,,,,,,,,,
0,39,39,59,1,,60d333c3c400caf1dcdbe2a4,62c53a176609812547edd1e5,2022-07-06_09h31.53.601,Colour_Asymmetry_Pilot,2022.1.3,Win32,75.00187505,62c50e9c1127f2cd403a315f,,,,,,,,,,,,,,,,,,,,,,,,,,,,,,,,,,,,,,,,,,,,,,,,,,,,,,,,,,,,,,,,,,,,,,,,,,,,,,,,,,,,,,,,,,,,,,,,,,,,,,,,,,,,,,,,,,,,,,,,,,,,,,,,,,,,,,,,,,,,,,,,,,,,,,,,,,,,,,,,,,,
0,40,40,3,1,,60d333c3c400caf1dcdbe2a4,62c53a176609812547edd1e5,2022-07-06_09h31.53.601,Colour_Asymmetry_Pilot,2022.1.3,Win32,75.00187505,62c50e9c1127f2cd403a315f,,,,,,,,,,,,,,,,,,,,,,,,,,,,,,,,,,,,,,,,,,,,,,,,,,,,,,,,,,,,,,,,,,,,,,,,,,,,,,,,,,,,,,,,,,,,,,,,,,,,,,,,,,,,,,,,,,,,,,,,,,,,,,,,,,,,,,,,,,,,,,,,,,,,,,,,,,,,,,,,,,,
0,41,41,33,1,,60d333c3c400caf1dcdbe2a4,62c53a176609812547edd1e5,2022-07-06_09h31.53.601,Colour_Asymmetry_Pilot,2022.1.3,Win32,75.00187505,62c50e9c1127f2cd403a315f,,,,,,,,,,,,,,,,,,,,,,,,,,,,,,,,,,,,,,,,,,,,,,,,,,,,,,,,,,,,,,,,,,,,,,,,,,,,,,,,,,,,,,,,,,,,,,,,,,,,,,,,,,,,,,,,,,,,,,,,,,,,,,,,,,,,,,,,,,,,,,,,,,,,,,,,,,,,,,,,,,,
0,42,42,18,1,,60d333c3c400caf1dcdbe2a4,62c53a176609812547edd1e5,2022-07-06_09h31.53.601,Colour_Asymmetry_Pilot,2022.1.3,Win32,75.00187505,62c50e9c1127f2cd403a315f,,,,,,,,,,,,,,,,,,,,,,,,,,,,,,,,,,,,,,,,,,,,,,,,,,,,,,,,,,,,,,,,,,,,,,,,,,,,,,,,,,,,,,,,,,,,,,,,,,,,,,,,,,,,,,,,,,,,,,,,,,,,,,,,,,,,,,,,,,,,,,,,,,,,,,,,,,,,,,,,,,,
0,43,43,87,1,,60d333c3c400caf1dcdbe2a4,62c53a176609812547edd1e5,2022-07-06_09h31.53.601,Colour_Asymmetry_Pilot,2022.1.3,Win32,75.00187505,62c50e9c1127f2cd403a315f,,,,,,,,,,,,,,,,,,,,,,,,,,,,,,,,,,,,,,,,,,,,,,,,,,,,,,,,,,,,,,,,,,,,,,,,,,,,,,,,,,,,,,,,,,,,,,,,,,,,,,,,,,,,,,,,,,,,,,,,,,,,,,,,,,,,,,,,,,,,,,,,,,,,,,,,,,,,,,,,,,,
0,44,44,39,1,,60d333c3c400caf1dcdbe2a4,62c53a176609812547edd1e5,2022-07-06_09h31.53.601,Colour_Asymmetry_Pilot,2022.1.3,Win32,75.00187505,62c50e9c1127f2cd403a315f,,,,,,,,,,,,,,,,,,,,,,,,,,,,,,,,,,,,,,,,,,,,,,,,,,,,,,,,,,,,,,,,,,,,,,,,,,,,,,,,,,,,,,,,,,,,,,,,,,,,,,,,,,,,,,,,,,,,,,,,,,,,,,,,,,,,,,,,,,,,,,,,,,,,,,,,,,,,,,,,,,,
0,45,45,15,1,,60d333c3c400caf1dcdbe2a4,62c53a176609812547edd1e5,2022-07-06_09h31.53.601,Colour_Asymmetry_Pilot,2022.1.3,Win32,75.00187505,62c50e9c1127f2cd403a315f,,,,,,,,,,,,,,,,,,,,,,,,,,,,,,,,,,,,,,,,,,,,,,,,,,,,,,,,,,,,,,,,,,,,,,,,,,,,,,,,,,,,,,,,,,,,,,,,,,,,,,,,,,,,,,,,,,,,,,,,,,,,,,,,,,,,,,,,,,,,,,,,,,,,,,,,,,,,,,,,,,,
0,46,46,90,1,,60d333c3c400caf1dcdbe2a4,62c53a176609812547edd1e5,2022-07-06_09h31.53.601,Colour_Asymmetry_Pilot,2022.1.3,Win32,75.00187505,62c50e9c1127f2cd403a315f,,,,,,,,,,,,,,,,,,,,,,,,,,,,,,,,,,,,,,,,,,,,,,,,,,,,,,,,,,,,,,,,,,,,,,,,,,,,,,,,,,,,,,,,,,,,,,,,,,,,,,,,,,,,,,,,,,,,,,,,,,,,,,,,,,,,,,,,,,,,,,,,,,,,,,,,,,,,,,,,,,,
0,47,47,55,1,,60d333c3c400caf1dcdbe2a4,62c53a176609812547edd1e5,2022-07-06_09h31.53.601,Colour_Asymmetry_Pilot,2022.1.3,Win32,75.00187505,62c50e9c1127f2cd403a315f,,,,,,,,,,,,,,,,,,,,,,,,,,,,,,,,,,,,,,,,,,,,,,,,,,,,,,,,,,,,,,,,,,,,,,,,,,,,,,,,,,,,,,,,,,,,,,,,,,,,,,,,,,,,,,,,,,,,,,,,,,,,,,,,,,,,,,,,,,,,,,,,,,,,,,,,,,,,,,,,,,,
0,48,48,23,1,,60d333c3c400caf1dcdbe2a4,62c53a176609812547edd1e5,2022-07-06_09h31.53.601,Colour_Asymmetry_Pilot,2022.1.3,Win32,75.00187505,62c50e9c1127f2cd403a315f,,,,,,,,,,,,,,,,,,,,,,,,,,,,,,,,,,,,,,,,,,,,,,,,,,,,,,,,,,,,,,,,,,,,,,,,,,,,,,,,,,,,,,,,,,,,,,,,,,,,,,,,,,,,,,,,,,,,,,,,,,,,,,,,,,,,,,,,,,,,,,,,,,,,,,,,,,,,,,,,,,,
0,49,49,60,1,,60d333c3c400caf1dcdbe2a4,62c53a176609812547edd1e5,2022-07-06_09h31.53.601,Colour_Asymmetry_Pilot,2022.1.3,Win32,75.00187505,62c50e9c1127f2cd403a315f,,,,,,,,,,,,,,,,,,,,,,,,,,,,,,,,,,,,,,,,,,,,,,,,,,,,,,,,,,,,,,,,,,,,,,,,,,,,,,,,,,,,,,,,,,,,,,,,,,,,,,,,,,,,,,,,,,,,,,,,,,,,,,,,,,,,,,,,,,,,,,,,,,,,,,,,,,,,,,,,,,,
0,50,50,73,1,,60d333c3c400caf1dcdbe2a4,62c53a176609812547edd1e5,2022-07-06_09h31.53.601,Colour_Asymmetry_Pilot,2022.1.3,Win32,75.00187505,62c50e9c1127f2cd403a315f,,,,,,,,,,,,,,,,,,,,,,,,,,,,,,,,,,,,,,,,,,,,,,,,,,,,,,,,,,,,,,,,,,,,,,,,,,,,,,,,,,,,,,,,,,,,,,,,,,,,,,,,,,,,,,,,,,,,,,,,,,,,,,,,,,,,,,,,,,,,,,,,,,,,,,,,,,,,,,,,,,,
0,51,51,38,1,,60d333c3c400caf1dcdbe2a4,62c53a176609812547edd1e5,2022-07-06_09h31.53.601,Colour_Asymmetry_Pilot,2022.1.3,Win32,75.00187505,62c50e9c1127f2cd403a315f,,,,,,,,,,,,,,,,,,,,,,,,,,,,,,,,,,,,,,,,,,,,,,,,,,,,,,,,,,,,,,,,,,,,,,,,,,,,,,,,,,,,,,,,,,,,,,,,,,,,,,,,,,,,,,,,,,,,,,,,,,,,,,,,,,,,,,,,,,,,,,,,,,,,,,,,,,,,,,,,,,,
0,52,52,40,1,,60d333c3c400caf1dcdbe2a4,62c53a176609812547edd1e5,2022-07-06_09h31.53.601,Colour_Asymmetry_Pilot,2022.1.3,Win32,75.00187505,62c50e9c1127f2cd403a315f,,,,,,,,,,,,,,,,,,,,,,,,,,,,,,,,,,,,,,,,,,,,,,,,,,,,,,,,,,,,,,,,,,,,,,,,,,,,,,,,,,,,,,,,,,,,,,,,,,,,,,,,,,,,,,,,,,,,,,,,,,,,,,,,,,,,,,,,,,,,,,,,,,,,,,,,,,,,,,,,,,,
0,53,53,63,1,,60d333c3c400caf1dcdbe2a4,62c53a176609812547edd1e5,2022-07-06_09h31.53.601,Colour_Asymmetry_Pilot,2022.1.3,Win32,75.00187505,62c50e9c1127f2cd403a315f,,,,,,,,,,,,,,,,,,,,,,,,,,,,,,,,,,,,,,,,,,,,,,,,,,,,,,,,,,,,,,,,,,,,,,,,,,,,,,,,,,,,,,,,,,,,,,,,,,,,,,,,,,,,,,,,,,,,,,,,,,,,,,,,,,,,,,,,,,,,,,,,,,,,,,,,,,,,,,,,,,,
0,54,54,31,1,,60d333c3c400caf1dcdbe2a4,62c53a176609812547edd1e5,2022-07-06_09h31.53.601,Colour_Asymmetry_Pilot,2022.1.3,Win32,75.00187505,62c50e9c1127f2cd403a315f,,,,,,,,,,,,,,,,,,,,,,,,,,,,,,,,,,,,,,,,,,,,,,,,,,,,,,,,,,,,,,,,,,,,,,,,,,,,,,,,,,,,,,,,,,,,,,,,,,,,,,,,,,,,,,,,,,,,,,,,,,,,,,,,,,,,,,,,,,,,,,,,,,,,,,,,,,,,,,,,,,,
0,55,55,61,1,,60d333c3c400caf1dcdbe2a4,62c53a176609812547edd1e5,2022-07-06_09h31.53.601,Colour_Asymmetry_Pilot,2022.1.3,Win32,75.00187505,62c50e9c1127f2cd403a315f,,,,,,,,,,,,,,,,,,,,,,,,,,,,,,,,,,,,,,,,,,,,,,,,,,,,,,,,,,,,,,,,,,,,,,,,,,,,,,,,,,,,,,,,,,,,,,,,,,,,,,,,,,,,,,,,,,,,,,,,,,,,,,,,,,,,,,,,,,,,,,,,,,,,,,,,,,,,,,,,,,,
0,56,56,9,1,,60d333c3c400caf1dcdbe2a4,62c53a176609812547edd1e5,2022-07-06_09h31.53.601,Colour_Asymmetry_Pilot,2022.1.3,Win32,75.00187505,62c50e9c1127f2cd403a315f,,,,,,,,,,,,,,,,,,,,,,,,,,,,,,,,,,,,,,,,,,,,,,,,,,,,,,,,,,,,,,,,,,,,,,,,,,,,,,,,,,,,,,,,,,,,,,,,,,,,,,,,,,,,,,,,,,,,,,,,,,,,,,,,,,,,,,,,,,,,,,,,,,,,,,,,,,,,,,,,,,,
0,57,57,88,1,,60d333c3c400caf1dcdbe2a4,62c53a176609812547edd1e5,2022-07-06_09h31.53.601,Colour_Asymmetry_Pilot,2022.1.3,Win32,75.00187505,62c50e9c1127f2cd403a315f,,,,,,,,,,,,,,,,,,,,,,,,,,,,,,,,,,,,,,,,,,,,,,,,,,,,,,,,,,,,,,,,,,,,,,,,,,,,,,,,,,,,,,,,,,,,,,,,,,,,,,,,,,,,,,,,,,,,,,,,,,,,,,,,,,,,,,,,,,,,,,,,,,,,,,,,,,,,,,,,,,,
0,58,58,50,1,,60d333c3c400caf1dcdbe2a4,62c53a176609812547edd1e5,2022-07-06_09h31.53.601,Colour_Asymmetry_Pilot,2022.1.3,Win32,75.00187505,62c50e9c1127f2cd403a315f,,,,,,,,,,,,,,,,,,,,,,,,,,,,,,,,,,,,,,,,,,,,,,,,,,,,,,,,,,,,,,,,,,,,,,,,,,,,,,,,,,,,,,,,,,,,,,,,,,,,,,,,,,,,,,,,,,,,,,,,,,,,,,,,,,,,,,,,,,,,,,,,,,,,,,,,,,,,,,,,,,,
0,59,59,54,1,,60d333c3c400caf1dcdbe2a4,62c53a176609812547edd1e5,2022-07-06_09h31.53.601,Colour_Asymmetry_Pilot,2022.1.3,Win32,75.00187505,62c50e9c1127f2cd403a315f,,,,,,,,,,,,,,,,,,,,,,,,,,,,,,,,,,,,,,,,,,,,,,,,,,,,,,,,,,,,,,,,,,,,,,,,,,,,,,,,,,,,,,,,,,,,,,,,,,,,,,,,,,,,,,,,,,,,,,,,,,,,,,,,,,,,,,,,,,,,,,,,,,,,,,,,,,,,,,,,,,,
0,60,60,16,1,,60d333c3c400caf1dcdbe2a4,62c53a176609812547edd1e5,2022-07-06_09h31.53.601,Colour_Asymmetry_Pilot,2022.1.3,Win32,75.00187505,62c50e9c1127f2cd403a315f,,,,,,,,,,,,,,,,,,,,,,,,,,,,,,,,,,,,,,,,,,,,,,,,,,,,,,,,,,,,,,,,,,,,,,,,,,,,,,,,,,,,,,,,,,,,,,,,,,,,,,,,,,,,,,,,,,,,,,,,,,,,,,,,,,,,,,,,,,,,,,,,,,,,,,,,,,,,,,,,,,,
0,61,61,41,1,,60d333c3c400caf1dcdbe2a4,62c53a176609812547edd1e5,2022-07-06_09h31.53.601,Colour_Asymmetry_Pilot,2022.1.3,Win32,75.00187505,62c50e9c1127f2cd403a315f,,,,,,,,,,,,,,,,,,,,,,,,,,,,,,,,,,,,,,,,,,,,,,,,,,,,,,,,,,,,,,,,,,,,,,,,,,,,,,,,,,,,,,,,,,,,,,,,,,,,,,,,,,,,,,,,,,,,,,,,,,,,,,,,,,,,,,,,,,,,,,,,,,,,,,,,,,,,,,,,,,,
0,62,62,83,1,,60d333c3c400caf1dcdbe2a4,62c53a176609812547edd1e5,2022-07-06_09h31.53.601,Colour_Asymmetry_Pilot,2022.1.3,Win32,75.00187505,62c50e9c1127f2cd403a315f,,,,,,,,,,,,,,,,,,,,,,,,,,,,,,,,,,,,,,,,,,,,,,,,,,,,,,,,,,,,,,,,,,,,,,,,,,,,,,,,,,,,,,,,,,,,,,,,,,,,,,,,,,,,,,,,,,,,,,,,,,,,,,,,,,,,,,,,,,,,,,,,,,,,,,,,,,,,,,,,,,,
0,63,63,7,1,,60d333c3c400caf1dcdbe2a4,62c53a176609812547edd1e5,2022-07-06_09h31.53.601,Colour_Asymmetry_Pilot,2022.1.3,Win32,75.00187505,62c50e9c1127f2cd403a315f,,,,,,,,,,,,,,,,,,,,,,,,,,,,,,,,,,,,,,,,,,,,,,,,,,,,,,,,,,,,,,,,,,,,,,,,,,,,,,,,,,,,,,,,,,,,,,,,,,,,,,,,,,,,,,,,,,,,,,,,,,,,,,,,,,,,,,,,,,,,,,,,,,,,,,,,,,,,,,,,,,,
0,64,64,32,1,,60d333c3c400caf1dcdbe2a4,62c53a176609812547edd1e5,2022-07-06_09h31.53.601,Colour_Asymmetry_Pilot,2022.1.3,Win32,75.00187505,62c50e9c1127f2cd403a315f,,,,,,,,,,,,,,,,,,,,,,,,,,,,,,,,,,,,,,,,,,,,,,,,,,,,,,,,,,,,,,,,,,,,,,,,,,,,,,,,,,,,,,,,,,,,,,,,,,,,,,,,,,,,,,,,,,,,,,,,,,,,,,,,,,,,,,,,,,,,,,,,,,,,,,,,,,,,,,,,,,,
0,65,65,1,1,,60d333c3c400caf1dcdbe2a4,62c53a176609812547edd1e5,2022-07-06_09h31.53.601,Colour_Asymmetry_Pilot,2022.1.3,Win32,75.00187505,62c50e9c1127f2cd403a315f,,,,,,,,,,,,,,,,,,,,,,,,,,,,,,,,,,,,,,,,,,,,,,,,,,,,,,,,,,,,,,,,,,,,,,,,,,,,,,,,,,,,,,,,,,,,,,,,,,,,,,,,,,,,,,,,,,,,,,,,,,,,,,,,,,,,,,,,,,,,,,,,,,,,,,,,,,,,,,,,,,,
0,66,66,19,1,,60d333c3c400caf1dcdbe2a4,62c53a176609812547edd1e5,2022-07-06_09h31.53.601,Colour_Asymmetry_Pilot,2022.1.3,Win32,75.00187505,62c50e9c1127f2cd403a315f,,,,,,,,,,,,,,,,,,,,,,,,,,,,,,,,,,,,,,,,,,,,,,,,,,,,,,,,,,,,,,,,,,,,,,,,,,,,,,,,,,,,,,,,,,,,,,,,,,,,,,,,,,,,,,,,,,,,,,,,,,,,,,,,,,,,,,,,,,,,,,,,,,,,,,,,,,,,,,,,,,,
0,67,67,58,1,,60d333c3c400caf1dcdbe2a4,62c53a176609812547edd1e5,2022-07-06_09h31.53.601,Colour_Asymmetry_Pilot,2022.1.3,Win32,75.00187505,62c50e9c1127f2cd403a315f,,,,,,,,,,,,,,,,,,,,,,,,,,,,,,,,,,,,,,,,,,,,,,,,,,,,,,,,,,,,,,,,,,,,,,,,,,,,,,,,,,,,,,,,,,,,,,,,,,,,,,,,,,,,,,,,,,,,,,,,,,,,,,,,,,,,,,,,,,,,,,,,,,,,,,,,,,,,,,,,,,,
0,68,68,52,1,,60d333c3c400caf1dcdbe2a4,62c53a176609812547edd1e5,2022-07-06_09h31.53.601,Colour_Asymmetry_Pilot,2022.1.3,Win32,75.00187505,62c50e9c1127f2cd403a315f,,,,,,,,,,,,,,,,,,,,,,,,,,,,,,,,,,,,,,,,,,,,,,,,,,,,,,,,,,,,,,,,,,,,,,,,,,,,,,,,,,,,,,,,,,,,,,,,,,,,,,,,,,,,,,,,,,,,,,,,,,,,,,,,,,,,,,,,,,,,,,,,,,,,,,,,,,,,,,,,,,,
0,69,69,72,1,,60d333c3c400caf1dcdbe2a4,62c53a176609812547edd1e5,2022-07-06_09h31.53.601,Colour_Asymmetry_Pilot,2022.1.3,Win32,75.00187505,62c50e9c1127f2cd403a315f,,,,,,,,,,,,,,,,,,,,,,,,,,,,,,,,,,,,,,,,,,,,,,,,,,,,,,,,,,,,,,,,,,,,,,,,,,,,,,,,,,,,,,,,,,,,,,,,,,,,,,,,,,,,,,,,,,,,,,,,,,,,,,,,,,,,,,,,,,,,,,,,,,,,,,,,,,,,,,,,,,,
0,70,70,17,1,,60d333c3c400caf1dcdbe2a4,62c53a176609812547edd1e5,2022-07-06_09h31.53.601,Colour_Asymmetry_Pilot,2022.1.3,Win32,75.00187505,62c50e9c1127f2cd403a315f,,,,,,,,,,,,,,,,,,,,,,,,,,,,,,,,,,,,,,,,,,,,,,,,,,,,,,,,,,,,,,,,,,,,,,,,,,,,,,,,,,,,,,,,,,,,,,,,,,,,,,,,,,,,,,,,,,,,,,,,,,,,,,,,,,,,,,,,,,,,,,,,,,,,,,,,,,,,,,,,,,,
0,71,71,75,1,,60d333c3c400caf1dcdbe2a4,62c53a176609812547edd1e5,2022-07-06_09h31.53.601,Colour_Asymmetry_Pilot,2022.1.3,Win32,75.00187505,62c50e9c1127f2cd403a315f,,,,,,,,,,,,,,,,,,,,,,,,,,,,,,,,,,,,,,,,,,,,,,,,,,,,,,,,,,,,,,,,,,,,,,,,,,,,,,,,,,,,,,,,,,,,,,,,,,,,,,,,,,,,,,,,,,,,,,,,,,,,,,,,,,,,,,,,,,,,,,,,,,,,,,,,,,,,,,,,,,,
0,72,72,91,1,,60d333c3c400caf1dcdbe2a4,62c53a176609812547edd1e5,2022-07-06_09h31.53.601,Colour_Asymmetry_Pilot,2022.1.3,Win32,75.00187505,62c50e9c1127f2cd403a315f,,,,,,,,,,,,,,,,,,,,,,,,,,,,,,,,,,,,,,,,,,,,,,,,,,,,,,,,,,,,,,,,,,,,,,,,,,,,,,,,,,,,,,,,,,,,,,,,,,,,,,,,,,,,,,,,,,,,,,,,,,,,,,,,,,,,,,,,,,,,,,,,,,,,,,,,,,,,,,,,,,,
0,73,73,76,1,,60d333c3c400caf1dcdbe2a4,62c53a176609812547edd1e5,2022-07-06_09h31.53.601,Colour_Asymmetry_Pilot,2022.1.3,Win32,75.00187505,62c50e9c1127f2cd403a315f,,,,,,,,,,,,,,,,,,,,,,,,,,,,,,,,,,,,,,,,,,,,,,,,,,,,,,,,,,,,,,,,,,,,,,,,,,,,,,,,,,,,,,,,,,,,,,,,,,,,,,,,,,,,,,,,,,,,,,,,,,,,,,,,,,,,,,,,,,,,,,,,,,,,,,,,,,,,,,,,,,,
0,74,74,21,1,,60d333c3c400caf1dcdbe2a4,62c53a176609812547edd1e5,2022-07-06_09h31.53.601,Colour_Asymmetry_Pilot,2022.1.3,Win32,75.00187505,62c50e9c1127f2cd403a315f,,,,,,,,,,,,,,,,,,,,,,,,,,,,,,,,,,,,,,,,,,,,,,,,,,,,,,,,,,,,,,,,,,,,,,,,,,,,,,,,,,,,,,,,,,,,,,,,,,,,,,,,,,,,,,,,,,,,,,,,,,,,,,,,,,,,,,,,,,,,,,,,,,,,,,,,,,,,,,,,,,,
0,75,75,92,1,,60d333c3c400caf1dcdbe2a4,62c53a176609812547edd1e5,2022-07-06_09h31.53.601,Colour_Asymmetry_Pilot,2022.1.3,Win32,75.00187505,62c50e9c1127f2cd403a315f,,,,,,,,,,,,,,,,,,,,,,,,,,,,,,,,,,,,,,,,,,,,,,,,,,,,,,,,,,,,,,,,,,,,,,,,,,,,,,,,,,,,,,,,,,,,,,,,,,,,,,,,,,,,,,,,,,,,,,,,,,,,,,,,,,,,,,,,,,,,,,,,,,,,,,,,,,,,,,,,,,,
0,76,76,62,1,,60d333c3c400caf1dcdbe2a4,62c53a176609812547edd1e5,2022-07-06_09h31.53.601,Colour_Asymmetry_Pilot,2022.1.3,Win32,75.00187505,62c50e9c1127f2cd403a315f,,,,,,,,,,,,,,,,,,,,,,,,,,,,,,,,,,,,,,,,,,,,,,,,,,,,,,,,,,,,,,,,,,,,,,,,,,,,,,,,,,,,,,,,,,,,,,,,,,,,,,,,,,,,,,,,,,,,,,,,,,,,,,,,,,,,,,,,,,,,,,,,,,,,,,,,,,,,,,,,,,,
0,77,77,65,1,,60d333c3c400caf1dcdbe2a4,62c53a176609812547edd1e5,2022-07-06_09h31.53.601,Colour_Asymmetry_Pilot,2022.1.3,Win32,75.00187505,62c50e9c1127f2cd403a315f,,,,,,,,,,,,,,,,,,,,,,,,,,,,,,,,,,,,,,,,,,,,,,,,,,,,,,,,,,,,,,,,,,,,,,,,,,,,,,,,,,,,,,,,,,,,,,,,,,,,,,,,,,,,,,,,,,,,,,,,,,,,,,,,,,,,,,,,,,,,,,,,,,,,,,,,,,,,,,,,,,,
0,78,78,86,1,,60d333c3c400caf1dcdbe2a4,62c53a176609812547edd1e5,2022-07-06_09h31.53.601,Colour_Asymmetry_Pilot,2022.1.3,Win32,75.00187505,62c50e9c1127f2cd403a315f,,,,,,,,,,,,,,,,,,,,,,,,,,,,,,,,,,,,,,,,,,,,,,,,,,,,,,,,,,,,,,,,,,,,,,,,,,,,,,,,,,,,,,,,,,,,,,,,,,,,,,,,,,,,,,,,,,,,,,,,,,,,,,,,,,,,,,,,,,,,,,,,,,,,,,,,,,,,,,,,,,,
0,79,79,37,1,,60d333c3c400caf1dcdbe2a4,62c53a176609812547edd1e5,2022-07-06_09h31.53.601,Colour_Asymmetry_Pilot,2022.1.3,Win32,75.00187505,62c50e9c1127f2cd403a315f,,,,,,,,,,,,,,,,,,,,,,,,,,,,,,,,,,,,,,,,,,,,,,,,,,,,,,,,,,,,,,,,,,,,,,,,,,,,,,,,,,,,,,,,,,,,,,,,,,,,,,,,,,,,,,,,,,,,,,,,,,,,,,,,,,,,,,,,,,,,,,,,,,,,,,,,,,,,,,,,,,,
0,80,80,71,1,,60d333c3c400caf1dcdbe2a4,62c53a176609812547edd1e5,2022-07-06_09h31.53.601,Colour_Asymmetry_Pilot,2022.1.3,Win32,75.00187505,62c50e9c1127f2cd403a315f,,,,,,,,,,,,,,,,,,,,,,,,,,,,,,,,,,,,,,,,,,,,,,,,,,,,,,,,,,,,,,,,,,,,,,,,,,,,,,,,,,,,,,,,,,,,,,,,,,,,,,,,,,,,,,,,,,,,,,,,,,,,,,,,,,,,,,,,,,,,,,,,,,,,,,,,,,,,,,,,,,,
0,81,81,47,1,,60d333c3c400caf1dcdbe2a4,62c53a176609812547edd1e5,2022-07-06_09h31.53.601,Colour_Asymmetry_Pilot,2022.1.3,Win32,75.00187505,62c50e9c1127f2cd403a315f,,,,,,,,,,,,,,,,,,,,,,,,,,,,,,,,,,,,,,,,,,,,,,,,,,,,,,,,,,,,,,,,,,,,,,,,,,,,,,,,,,,,,,,,,,,,,,,,,,,,,,,,,,,,,,,,,,,,,,,,,,,,,,,,,,,,,,,,,,,,,,,,,,,,,,,,,,,,,,,,,,,
0,82,82,69,1,,60d333c3c400caf1dcdbe2a4,62c53a176609812547edd1e5,2022-07-06_09h31.53.601,Colour_Asymmetry_Pilot,2022.1.3,Win32,75.00187505,62c50e9c1127f2cd403a315f,,,,,,,,,,,,,,,,,,,,,,,,,,,,,,,,,,,,,,,,,,,,,,,,,,,,,,,,,,,,,,,,,,,,,,,,,,,,,,,,,,,,,,,,,,,,,,,,,,,,,,,,,,,,,,,,,,,,,,,,,,,,,,,,,,,,,,,,,,,,,,,,,,,,,,,,,,,,,,,,,,,
0,83,83,84,1,,60d333c3c400caf1dcdbe2a4,62c53a176609812547edd1e5,2022-07-06_09h31.53.601,Colour_Asymmetry_Pilot,2022.1.3,Win32,75.00187505,62c50e9c1127f2cd403a315f,,,,,,,,,,,,,,,,,,,,,,,,,,,,,,,,,,,,,,,,,,,,,,,,,,,,,,,,,,,,,,,,,,,,,,,,,,,,,,,,,,,,,,,,,,,,,,,,,,,,,,,,,,,,,,,,,,,,,,,,,,,,,,,,,,,,,,,,,,,,,,,,,,,,,,,,,,,,,,,,,,,
0,84,84,46,1,,60d333c3c400caf1dcdbe2a4,62c53a176609812547edd1e5,2022-07-06_09h31.53.601,Colour_Asymmetry_Pilot,2022.1.3,Win32,75.00187505,62c50e9c1127f2cd403a315f,,,,,,,,,,,,,,,,,,,,,,,,,,,,,,,,,,,,,,,,,,,,,,,,,,,,,,,,,,,,,,,,,,,,,,,,,,,,,,,,,,,,,,,,,,,,,,,,,,,,,,,,,,,,,,,,,,,,,,,,,,,,,,,,,,,,,,,,,,,,,,,,,,,,,,,,,,,,,,,,,,,
0,85,85,79,1,,60d333c3c400caf1dcdbe2a4,62c53a176609812547edd1e5,2022-07-06_09h31.53.601,Colour_Asymmetry_Pilot,2022.1.3,Win32,75.00187505,62c50e9c1127f2cd403a315f,,,,,,,,,,,,,,,,,,,,,,,,,,,,,,,,,,,,,,,,,,,,,,,,,,,,,,,,,,,,,,,,,,,,,,,,,,,,,,,,,,,,,,,,,,,,,,,,,,,,,,,,,,,,,,,,,,,,,,,,,,,,,,,,,,,,,,,,,,,,,,,,,,,,,,,,,,,,,,,,,,,
0,86,86,5,1,,60d333c3c400caf1dcdbe2a4,62c53a176609812547edd1e5,2022-07-06_09h31.53.601,Colour_Asymmetry_Pilot,2022.1.3,Win32,75.00187505,62c50e9c1127f2cd403a315f,,,,,,,,,,,,,,,,,,,,,,,,,,,,,,,,,,,,,,,,,,,,,,,,,,,,,,,,,,,,,,,,,,,,,,,,,,,,,,,,,,,,,,,,,,,,,,,,,,,,,,,,,,,,,,,,,,,,,,,,,,,,,,,,,,,,,,,,,,,,,,,,,,,,,,,,,,,,,,,,,,,
0,87,87,77,1,,60d333c3c400caf1dcdbe2a4,62c53a176609812547edd1e5,2022-07-06_09h31.53.601,Colour_Asymmetry_Pilot,2022.1.3,Win32,75.00187505,62c50e9c1127f2cd403a315f,,,,,,,,,,,,,,,,,,,,,,,,,,,,,,,,,,,,,,,,,,,,,,,,,,,,,,,,,,,,,,,,,,,,,,,,,,,,,,,,,,,,,,,,,,,,,,,,,,,,,,,,,,,,,,,,,,,,,,,,,,,,,,,,,,,,,,,,,,,,,,,,,,,,,,,,,,,,,,,,,,,
0,88,88,4,1,,60d333c3c400caf1dcdbe2a4,62c53a176609812547edd1e5,2022-07-06_09h31.53.601,Colour_Asymmetry_Pilot,2022.1.3,Win32,75.00187505,62c50e9c1127f2cd403a315f,,,,,,,,,,,,,,,,,,,,,,,,,,,,,,,,,,,,,,,,,,,,,,,,,,,,,,,,,,,,,,,,,,,,,,,,,,,,,,,,,,,,,,,,,,,,,,,,,,,,,,,,,,,,,,,,,,,,,,,,,,,,,,,,,,,,,,,,,,,,,,,,,,,,,,,,,,,,,,,,,,,
0,89,89,78,1,,60d333c3c400caf1dcdbe2a4,62c53a176609812547edd1e5,2022-07-06_09h31.53.601,Colour_Asymmetry_Pilot,2022.1.3,Win32,75.00187505,62c50e9c1127f2cd403a315f,,,,,,,,,,,,,,,,,,,,,,,,,,,,,,,,,,,,,,,,,,,,,,,,,,,,,,,,,,,,,,,,,,,,,,,,,,,,,,,,,,,,,,,,,,,,,,,,,,,,,,,,,,,,,,,,,,,,,,,,,,,,,,,,,,,,,,,,,,,,,,,,,,,,,,,,,,,,,,,,,,,
0,90,90,2,1,,60d333c3c400caf1dcdbe2a4,62c53a176609812547edd1e5,2022-07-06_09h31.53.601,Colour_Asymmetry_Pilot,2022.1.3,Win32,75.00187505,62c50e9c1127f2cd403a315f,,,,,,,,,,,,,,,,,,,,,,,,,,,,,,,,,,,,,,,,,,,,,,,,,,,,,,,,,,,,,,,,,,,,,,,,,,,,,,,,,,,,,,,,,,,,,,,,,,,,,,,,,,,,,,,,,,,,,,,,,,,,,,,,,,,,,,,,,,,,,,,,,,,,,,,,,,,,,,,,,,,
0,91,91,20,1,,60d333c3c400caf1dcdbe2a4,62c53a176609812547edd1e5,2022-07-06_09h31.53.601,Colour_Asymmetry_Pilot,2022.1.3,Win32,75.00187505,62c50e9c1127f2cd403a315f,,,,,,,,,,,,,,,,,,,,,,,,,,,,,,,,,,,,,,,,,,,,,,,,,,,,,,,,,,,,,,,,,,,,,,,,,,,,,,,,,,,,,,,,,,,,,,,,,,,,,,,,,,,,,,,,,,,,,,,,,,,,,,,,,,,,,,,,,,,,,,,,,,,,,,,,,,,,,,,,,,,
0,92,92,43,1,,60d333c3c400caf1dcdbe2a4,62c53a176609812547edd1e5,2022-07-06_09h31.53.601,Colour_Asymmetry_Pilot,2022.1.3,Win32,75.00187505,62c50e9c1127f2cd403a315f,,,,,,,,,,,,,,,,,,,,,,,,,,,,,,,,,,,,,,,,,,,,,,,,,,,,,,,,,,,,,,,,,,,,,,,,,,,,,,,,,,,,,,,,,,,,,,,,,,,,,,,,,,,,,,,,,,,,,,,,,,,,,,,,,,,,,,,,,,,,,,,,,,,,,,,,,,,,,,,,,,,
,,,,,,60d333c3c400caf1dcdbe2a4,62c53a176609812547edd1e5,2022-07-06_09h31.53.601,Colour_Asymmetry_Pilot,2022.1.3,Win32,75.00187505,62c50e9c1127f2cd403a315f,0,0,0,137,1,onethree,,,,,,,,,,,,,,,,,,,,,,,,,,,,,,,,,,,,,,,,,,,,,,,,,,,,,,,,,,,,,,,,,,,,,,,,,,,,,,,,,,,,,,,,,,,,,,,,,,,,,,,,,,,,,,,,,,,,,,,,,,,,,,,,,,,,,,,,,,,,,,,,,,,,,,,,,,,,,
,,,,,,60d333c3c400caf1dcdbe2a4,62c53a176609812547edd1e5,2022-07-06_09h31.53.601,Colour_Asymmetry_Pilot,2022.1.3,Win32,75.00187505,62c50e9c1127f2cd403a315f,0,1,1,146,1,twoone,,,,,,,,,,,,,,,,,,,,,,,,,,,,,,,,,,,,,,,,,,,,,,,,,,,,,,,,,,,,,,,,,,,,,,,,,,,,,,,,,,,,,,,,,,,,,,,,,,,,,,,,,,,,,,,,,,,,,,,,,,,,,,,,,,,,,,,,,,,,,,,,,,,,,,,,,,,,,
,,,,,,60d333c3c400caf1dcdbe2a4,62c53a176609812547edd1e5,2022-07-06_09h31.53.601,Colour_Asymmetry_Pilot,2022.1.3,Win32,75.00187505,62c50e9c1127f2cd403a315f,0,2,2,49,1,onethree,,,,,,,,,,,,,,,,,,,,,,,,,,,,,,,,,,,,,,,,,,,,,,,,,,,,,,,,,,,,,,,,,,,,,,,,,,,,,,,,,,,,,,,,,,,,,,,,,,,,,,,,,,,,,,,,,,,,,,,,,,,,,,,,,,,,,,,,,,,,,,,,,,,,,,,,,,,,,
,,,,,,60d333c3c400caf1dcdbe2a4,62c53a176609812547edd1e5,2022-07-06_09h31.53.601,Colour_Asymmetry_Pilot,2022.1.3,Win32,75.00187505,62c50e9c1127f2cd403a315f,0,3,3,47,1,fourthree,,,,,,,,,,,,,,,,,,,,,,,,,,,,,,,,,,,,,,,,,,,,,,,,,,,,,,,,,,,,,,,,,,,,,,,,,,,,,,,,,,,,,,,,,,,,,,,,,,,,,,,,,,,,,,,,,,,,,,,,,,,,,,,,,,,,,,,,,,,,,,,,,,,,,,,,,,,,,
,,,,,,60d333c3c400caf1dcdbe2a4,62c53a176609812547edd1e5,2022-07-06_09h31.53.601,Colour_Asymmetry_Pilot,2022.1.3,Win32,75.00187505,62c50e9c1127f2cd403a315f,0,4,4,160,1,onetwo,,,,,,,,,,,,,,,,,,,,,,,,,,,,,,,,,,,,,,,,,,,,,,,,,,,,,,,,,,,,,,,,,,,,,,,,,,,,,,,,,,,,,,,,,,,,,,,,,,,,,,,,,,,,,,,,,,,,,,,,,,,,,,,,,,,,,,,,,,,,,,,,,,,,,,,,,,,,,
,,,,,,60d333c3c400caf1dcdbe2a4,62c53a176609812547edd1e5,2022-07-06_09h31.53.601,Colour_Asymmetry_Pilot,2022.1.3,Win32,75.00187505,62c50e9c1127f2cd403a315f,0,5,5,115,1,twofour,,,,,,,,,,,,,,,,,,,,,,,,,,,,,,,,,,,,,,,,,,,,,,,,,,,,,,,,,,,,,,,,,,,,,,,,,,,,,,,,,,,,,,,,,,,,,,,,,,,,,,,,,,,,,,,,,,,,,,,,,,,,,,,,,,,,,,,,,,,,,,,,,,,,,,,,,,,,,
,,,,,,60d333c3c400caf1dcdbe2a4,62c53a176609812547edd1e5,2022-07-06_09h31.53.601,Colour_Asymmetry_Pilot,2022.1.3,Win32,75.00187505,62c50e9c1127f2cd403a315f,0,6,6,97,1,onethree,,,,,,,,,,,,,,,,,,,,,,,,,,,,,,,,,,,,,,,,,,,,,,,,,,,,,,,,,,,,,,,,,,,,,,,,,,,,,,,,,,,,,,,,,,,,,,,,,,,,,,,,,,,,,,,,,,,,,,,,,,,,,,,,,,,,,,,,,,,,,,,,,,,,,,,,,,,,,
,,,,,,60d333c3c400caf1dcdbe2a4,62c53a176609812547edd1e5,2022-07-06_09h31.53.601,Colour_Asymmetry_Pilot,2022.1.3,Win32,75.00187505,62c50e9c1127f2cd403a315f,0,7,7,135,1,fourthree,,,,,,,,,,,,,,,,,,,,,,,,,,,,,,,,,,,,,,,,,,,,,,,,,,,,,,,,,,,,,,,,,,,,,,,,,,,,,,,,,,,,,,,,,,,,,,,,,,,,,,,,,,,,,,,,,,,,,,,,,,,,,,,,,,,,,,,,,,,,,,,,,,,,,,,,,,,,,
,,,,,,60d333c3c400caf1dcdbe2a4,62c53a176609812547edd1e5,2022-07-06_09h31.53.601,Colour_Asymmetry_Pilot,2022.1.3,Win32,75.00187505,62c50e9c1127f2cd403a315f,0,8,8,92,1,threeone,,,,,,,,,,,,,,,,,,,,,,,,,,,,,,,,,,,,,,,,,,,,,,,,,,,,,,,,,,,,,,,,,,,,,,,,,,,,,,,,,,,,,,,,,,,,,,,,,,,,,,,,,,,,,,,,,,,,,,,,,,,,,,,,,,,,,,,,,,,,,,,,,,,,,,,,,,,,,
,,,,,,60d333c3c400caf1dcdbe2a4,62c53a176609812547edd1e5,2022-07-06_09h31.53.601,Colour_Asymmetry_Pilot,2022.1.3,Win32,75.00187505,62c50e9c1127f2cd403a315f,0,9,9,59,1,twofour,,,,,,,,,,,,,,,,,,,,,,,,,,,,,,,,,,,,,,,,,,,,,,,,,,,,,,,,,,,,,,,,,,,,,,,,,,,,,,,,,,,,,,,,,,,,,,,,,,,,,,,,,,,,,,,,,,,,,,,,,,,,,,,,,,,,,,,,,,,,,,,,,,,,,,,,,,,,,
,,,,,,60d333c3c400caf1dcdbe2a4,62c53a176609812547edd1e5,2022-07-06_09h31.53.601,Colour_Asymmetry_Pilot,2022.1.3,Win32,75.00187505,62c50e9c1127f2cd403a315f,0,10,10,140,1,threeone,,,,,,,,,,,,,,,,,,,,,,,,,,,,,,,,,,,,,,,,,,,,,,,,,,,,,,,,,,,,,,,,,,,,,,,,,,,,,,,,,,,,,,,,,,,,,,,,,,,,,,,,,,,,,,,,,,,,,,,,,,,,,,,,,,,,,,,,,,,,,,,,,,,,,,,,,,,,,
,,,,,,60d333c3c400caf1dcdbe2a4,62c53a176609812547edd1e5,2022-07-06_09h31.53.601,Colour_Asymmetry_Pilot,2022.1.3,Win32,75.00187505,62c50e9c1127f2cd403a315f,0,11,11,45,1,threefour,,,,,,,,,,,,,,,,,,,,,,,,,,,,,,,,,,,,,,,,,,,,,,,,,,,,,,,,,,,,,,,,,,,,,,,,,,,,,,,,,,,,,,,,,,,,,,,,,,,,,,,,,,,,,,,,,,,,,,,,,,,,,,,,,,,,,,,,,,,,,,,,,,,,,,,,,,,,,
,,,,,,60d333c3c400caf1dcdbe2a4,62c53a176609812547edd1e5,2022-07-06_09h31.53.601,Colour_Asymmetry_Pilot,2022.1.3,Win32,75.00187505,62c50e9c1127f2cd403a315f,0,12,12,112,1,onetwo,,,,,,,,,,,,,,,,,,,,,,,,,,,,,,,,,,,,,,,,,,,,,,,,,,,,,,,,,,,,,,,,,,,,,,,,,,,,,,,,,,,,,,,,,,,,,,,,,,,,,,,,,,,,,,,,,,,,,,,,,,,,,,,,,,,,,,,,,,,,,,,,,,,,,,,,,,,,,
,,,,,,60d333c3c400caf1dcdbe2a4,62c53a176609812547edd1e5,2022-07-06_09h31.53.601,Colour_Asymmetry_Pilot,2022.1.3,Win32,75.00187505,62c50e9c1127f2cd403a315f,0,13,13,119,1,fourthree,,,,,,,,,,,,,,,,,,,,,,,,,,,,,,,,,,,,,,,,,,,,,,,,,,,,,,,,,,,,,,,,,,,,,,,,,,,,,,,,,,,,,,,,,,,,,,,,,,,,,,,,,,,,,,,,,,,,,,,,,,,,,,,,,,,,,,,,,,,,,,,,,,,,,,,,,,,,,
,,,,,,60d333c3c400caf1dcdbe2a4,62c53a176609812547edd1e5,2022-07-06_09h31.53.601,Colour_Asymmetry_Pilot,2022.1.3,Win32,75.00187505,62c50e9c1127f2cd403a315f,0,14,14,26,1,twoone,,,,,,,,,,,,,,,,,,,,,,,,,,,,,,,,,,,,,,,,,,,,,,,,,,,,,,,,,,,,,,,,,,,,,,,,,,,,,,,,,,,,,,,,,,,,,,,,,,,,,,,,,,,,,,,,,,,,,,,,,,,,,,,,,,,,,,,,,,,,,,,,,,,,,,,,,,,,,
,,,,,,60d333c3c400caf1dcdbe2a4,62c53a176609812547edd1e5,2022-07-06_09h31.53.601,Colour_Asymmetry_Pilot,2022.1.3,Win32,75.00187505,62c50e9c1127f2cd403a315f,0,15,15,27,1,twofour,,,,,,,,,,,,,,,,,,,,,,,,,,,,,,,,,,,,,,,,,,,,,,,,,,,,,,,,,,,,,,,,,,,,,,,,,,,,,,,,,,,,,,,,,,,,,,,,,,,,,,,,,,,,,,,,,,,,,,,,,,,,,,,,,,,,,,,,,,,,,,,,,,,,,,,,,,,,,
,,,,,,60d333c3c400caf1dcdbe2a4,62c53a176609812547edd1e5,2022-07-06_09h31.53.601,Colour_Asymmetry_Pilot,2022.1.3,Win32,75.00187505,62c50e9c1127f2cd403a315f,0,16,16,44,1,threeone,,,,,,,,,,,,,,,,,,,,,,,,,,,,,,,,,,,,,,,,,,,,,,,,,,,,,,,,,,,,,,,,,,,,,,,,,,,,,,,,,,,,,,,,,,,,,,,,,,,,,,,,,,,,,,,,,,,,,,,,,,,,,,,,,,,,,,,,,,,,,,,,,,,,,,,,,,,,,
,,,,,,60d333c3c400caf1dcdbe2a4,62c53a176609812547edd1e5,2022-07-06_09h31.53.601,Colour_Asymmetry_Pilot,2022.1.3,Win32,75.00187505,62c50e9c1127f2cd403a315f,0,17,17,19,1,twofour,,,,,,,,,,,,,,,,,,,,,,,,,,,,,,,,,,,,,,,,,,,,,,,,,,,,,,,,,,,,,,,,,,,,,,,,,,,,,,,,,,,,,,,,,,,,,,,,,,,,,,,,,,,,,,,,,,,,,,,,,,,,,,,,,,,,,,,,,,,,,,,,,,,,,,,,,,,,,
,,,,,,60d333c3c400caf1dcdbe2a4,62c53a176609812547edd1e5,2022-07-06_09h31.53.601,Colour_Asymmetry_Pilot,2022.1.3,Win32,75.00187505,62c50e9c1127f2cd403a315f,0,18,18,54,1,fourtwo,,,,,,,,,,,,,,,,,,,,,,,,,,,,,,,,,,,,,,,,,,,,,,,,,,,,,,,,,,,,,,,,,,,,,,,,,,,,,,,,,,,,,,,,,,,,,,,,,,,,,,,,,,,,,,,,,,,,,,,,,,,,,,,,,,,,,,,,,,,,,,,,,,,,,,,,,,,,,
,,,,,,60d333c3c400caf1dcdbe2a4,62c53a176609812547edd1e5,2022-07-06_09h31.53.601,Colour_Asymmetry_Pilot,2022.1.3,Win32,75.00187505,62c50e9c1127f2cd403a315f,0,19,19,96,1,onetwo,,,,,,,,,,,,,,,,,,,,,,,,,,,,,,,,,,,,,,,,,,,,,,,,,,,,,,,,,,,,,,,,,,,,,,,,,,,,,,,,,,,,,,,,,,,,,,,,,,,,,,,,,,,,,,,,,,,,,,,,,,,,,,,,,,,,,,,,,,,,,,,,,,,,,,,,,,,,,
,,,,,,60d333c3c400caf1dcdbe2a4,62c53a176609812547edd1e5,2022-07-06_09h31.53.601,Colour_Asymmetry_Pilot,2022.1.3,Win32,75.00187505,62c50e9c1127f2cd403a315f,0,20,20,14,1,fourtwo,,,,,,,,,,,,,,,,,,,,,,,,,,,,,,,,,,,,,,,,,,,,,,,,,,,,,,,,,,,,,,,,,,,,,,,,,,,,,,,,,,,,,,,,,,,,,,,,,,,,,,,,,,,,,,,,,,,,,,,,,,,,,,,,,,,,,,,,,,,,,,,,,,,,,,,,,,,,,
,,,,,,60d333c3c400caf1dcdbe2a4,62c53a176609812547edd1e5,2022-07-06_09h31.53.601,Colour_Asymmetry_Pilot,2022.1.3,Win32,75.00187505,62c50e9c1127f2cd403a315f,0,21,21,123,1,twofour,,,,,,,,,,,,,,,,,,,,,,,,,,,,,,,,,,,,,,,,,,,,,,,,,,,,,,,,,,,,,,,,,,,,,,,,,,,,,,,,,,,,,,,,,,,,,,,,,,,,,,,,,,,,,,,,,,,,,,,,,,,,,,,,,,,,,,,,,,,,,,,,,,,,,,,,,,,,,
,,,,,,60d333c3c400caf1dcdbe2a4,62c53a176609812547edd1e5,2022-07-06_09h31.53.601,Colour_Asymmetry_Pilot,2022.1.3,Win32,75.00187505,62c50e9c1127f2cd403a315f,0,22,22,145,1,onethree,,,,,,,,,,,,,,,,,,,,,,,,,,,,,,,,,,,,,,,,,,,,,,,,,,,,,,,,,,,,,,,,,,,,,,,,,,,,,,,,,,,,,,,,,,,,,,,,,,,,,,,,,,,,,,,,,,,,,,,,,,,,,,,,,,,,,,,,,,,,,,,,,,,,,,,,,,,,,
,,,,,,60d333c3c400caf1dcdbe2a4,62c53a176609812547edd1e5,2022-07-06_09h31.53.601,Colour_Asymmetry_Pilot,2022.1.3,Win32,75.00187505,62c50e9c1127f2cd403a315f,0,23,23,29,1,threefour,,,,,,,,,,,,,,,,,,,,,,,,,,,,,,,,,,,,,,,,,,,,,,,,,,,,,,,,,,,,,,,,,,,,,,,,,,,,,,,,,,,,,,,,,,,,,,,,,,,,,,,,,,,,,,,,,,,,,,,,,,,,,,,,,,,,,,,,,,,,,,,,,,,,,,,,,,,,,
,,,,,,60d333c3c400caf1dcdbe2a4,62c53a176609812547edd1e5,2022-07-06_09h31.53.601,Colour_Asymmetry_Pilot,2022.1.3,Win32,75.00187505,62c50e9c1127f2cd403a315f,0,24,24,67,1,twofour,,,,,,,,,,,,,,,,,,,,,,,,,,,,,,,,,,,,,,,,,,,,,,,,,,,,,,,,,,,,,,,,,,,,,,,,,,,,,,,,,,,,,,,,,,,,,,,,,,,,,,,,,,,,,,,,,,,,,,,,,,,,,,,,,,,,,,,,,,,,,,,,,,,,,,,,,,,,,
,,,,,,60d333c3c400caf1dcdbe2a4,62c53a176609812547edd1e5,2022-07-06_09h31.53.601,Colour_Asymmetry_Pilot,2022.1.3,Win32,75.00187505,62c50e9c1127f2cd403a315f,0,25,25,124,1,threeone,,,,,,,,,,,,,,,,,,,,,,,,,,,,,,,,,,,,,,,,,,,,,,,,,,,,,,,,,,,,,,,,,,,,,,,,,,,,,,,,,,,,,,,,,,,,,,,,,,,,,,,,,,,,,,,,,,,,,,,,,,,,,,,,,,,,,,,,,,,,,,,,,,,,,,,,,,,,,
,,,,,,60d333c3c400caf1dcdbe2a4,62c53a176609812547edd1e5,2022-07-06_09h31.53.601,Colour_Asymmetry_Pilot,2022.1.3,Win32,75.00187505,62c50e9c1127f2cd403a315f,0,26,26,117,1,threefour,,,,,,,,,,,,,,,,,,,,,,,,,,,,,,,,,,,,,,,,,,,,,,,,,,,,,,,,,,,,,,,,,,,,,,,,,,,,,,,,,,,,,,,,,,,,,,,,,,,,,,,,,,,,,,,,,,,,,,,,,,,,,,,,,,,,,,,,,,,,,,,,,,,,,,,,,,,,,
,,,,,,60d333c3c400caf1dcdbe2a4,62c53a176609812547edd1e5,2022-07-06_09h31.53.601,Colour_Asymmetry_Pilot,2022.1.3,Win32,75.00187505,62c50e9c1127f2cd403a315f,0,27,27,161,1,onethree,,,,,,,,,,,,,,,,,,,,,,,,,,,,,,,,,,,,,,,,,,,,,,,,,,,,,,,,,,,,,,,,,,,,,,,,,,,,,,,,,,,,,,,,,,,,,,,,,,,,,,,,,,,,,,,,,,,,,,,,,,,,,,,,,,,,,,,,,,,,,,,,,,,,,,,,,,,,,
,,,,,,60d333c3c400caf1dcdbe2a4,62c53a176609812547edd1e5,2022-07-06_09h31.53.601,Colour_Asymmetry_Pilot,2022.1.3,Win32,75.00187505,62c50e9c1127f2cd403a315f,0,28,28,120,1,onetwo,,,,,,,,,,,,,,,,,,,,,,,,,,,,,,,,,,,,,,,,,,,,,,,,,,,,,,,,,,,,,,,,,,,,,,,,,,,,,,,,,,,,,,,,,,,,,,,,,,,,,,,,,,,,,,,,,,,,,,,,,,,,,,,,,,,,,,,,,,,,,,,,,,,,,,,,,,,,,
,,,,,,60d333c3c400caf1dcdbe2a4,62c53a176609812547edd1e5,2022-07-06_09h31.53.601,Colour_Asymmetry_Pilot,2022.1.3,Win32,75.00187505,62c50e9c1127f2cd403a315f,0,29,29,40,1,onetwo,,,,,,,,,,,,,,,,,,,,,,,,,,,,,,,,,,,,,,,,,,,,,,,,,,,,,,,,,,,,,,,,,,,,,,,,,,,,,,,,,,,,,,,,,,,,,,,,,,,,,,,,,,,,,,,,,,,,,,,,,,,,,,,,,,,,,,,,,,,,,,,,,,,,,,,,,,,,,
,,,,,,60d333c3c400caf1dcdbe2a4,62c53a176609812547edd1e5,2022-07-06_09h31.53.601,Colour_Asymmetry_Pilot,2022.1.3,Win32,75.00187505,62c50e9c1127f2cd403a315f,0,30,30,86,1,fourtwo,,,,,,,,,,,,,,,,,,,,,,,,,,,,,,,,,,,,,,,,,,,,,,,,,,,,,,,,,,,,,,,,,,,,,,,,,,,,,,,,,,,,,,,,,,,,,,,,,,,,,,,,,,,,,,,,,,,,,,,,,,,,,,,,,,,,,,,,,,,,,,,,,,,,,,,,,,,,,
,,,,,,60d333c3c400caf1dcdbe2a4,62c53a176609812547edd1e5,2022-07-06_09h31.53.601,Colour_Asymmetry_Pilot,2022.1.3,Win32,75.00187505,62c50e9c1127f2cd403a315f,0,31,31,113,1,onethree,,,,,,,,,,,,,,,,,,,,,,,,,,,,,,,,,,,,,,,,,,,,,,,,,,,,,,,,,,,,,,,,,,,,,,,,,,,,,,,,,,,,,,,,,,,,,,,,,,,,,,,,,,,,,,,,,,,,,,,,,,,,,,,,,,,,,,,,,,,,,,,,,,,,,,,,,,,,,
,,,,,,60d333c3c400caf1dcdbe2a4,62c53a176609812547edd1e5,2022-07-06_09h31.53.601,Colour_Asymmetry_Pilot,2022.1.3,Win32,75.00187505,62c50e9c1127f2cd403a315f,0,32,32,154,1,twoone,,,,,,,,,,,,,,,,,,,,,,,,,,,,,,,,,,,,,,,,,,,,,,,,,,,,,,,,,,,,,,,,,,,,,,,,,,,,,,,,,,,,,,,,,,,,,,,,,,,,,,,,,,,,,,,,,,,,,,,,,,,,,,,,,,,,,,,,,,,,,,,,,,,,,,,,,,,,,
,,,,,,60d333c3c400caf1dcdbe2a4,62c53a176609812547edd1e5,2022-07-06_09h31.53.601,Colour_Asymmetry_Pilot,2022.1.3,Win32,75.00187505,62c50e9c1127f2cd403a315f,0,33,33,10,1,twoone,,,,,,,,,,,,,,,,,,,,,,,,,,,,,,,,,,,,,,,,,,,,,,,,,,,,,,,,,,,,,,,,,,,,,,,,,,,,,,,,,,,,,,,,,,,,,,,,,,,,,,,,,,,,,,,,,,,,,,,,,,,,,,,,,,,,,,,,,,,,,,,,,,,,,,,,,,,,,
,,,,,,60d333c3c400caf1dcdbe2a4,62c53a176609812547edd1e5,2022-07-06_09h31.53.601,Colour_Asymmetry_Pilot,2022.1.3,Win32,75.00187505,62c50e9c1127f2cd403a315f,0,34,34,35,1,twofour,,,,,,,,,,,,,,,,,,,,,,,,,,,,,,,,,,,,,,,,,,,,,,,,,,,,,,,,,,,,,,,,,,,,,,,,,,,,,,,,,,,,,,,,,,,,,,,,,,,,,,,,,,,,,,,,,,,,,,,,,,,,,,,,,,,,,,,,,,,,,,,,,,,,,,,,,,,,,
,,,,,,60d333c3c400caf1dcdbe2a4,62c53a176609812547edd1e5,2022-07-06_09h31.53.601,Colour_Asymmetry_Pilot,2022.1.3,Win32,75.00187505,62c50e9c1127f2cd403a315f,0,35,35,15,1,fourthree,,,,,,,,,,,,,,,,,,,,,,,,,,,,,,,,,,,,,,,,,,,,,,,,,,,,,,,,,,,,,,,,,,,,,,,,,,,,,,,,,,,,,,,,,,,,,,,,,,,,,,,,,,,,,,,,,,,,,,,,,,,,,,,,,,,,,,,,,,,,,,,,,,,,,,,,,,,,,
,,,,,,60d333c3c400caf1dcdbe2a4,62c53a176609812547edd1e5,2022-07-06_09h31.53.601,Colour_Asymmetry_Pilot,2022.1.3,Win32,75.00187505,62c50e9c1127f2cd403a315f,0,36,36,63,1,fourthree,,,,,,,,,,,,,,,,,,,,,,,,,,,,,,,,,,,,,,,,,,,,,,,,,,,,,,,,,,,,,,,,,,,,,,,,,,,,,,,,,,,,,,,,,,,,,,,,,,,,,,,,,,,,,,,,,,,,,,,,,,,,,,,,,,,,,,,,,,,,,,,,,,,,,,,,,,,,,
,,,,,,60d333c3c400caf1dcdbe2a4,62c53a176609812547edd1e5,2022-07-06_09h31.53.601,Colour_Asymmetry_Pilot,2022.1.3,Win32,75.00187505,62c50e9c1127f2cd403a315f,0,37,37,32,1,onetwo,,,,,,,,,,,,,,,,,,,,,,,,,,,,,,,,,,,,,,,,,,,,,,,,,,,,,,,,,,,,,,,,,,,,,,,,,,,,,,,,,,,,,,,,,,,,,,,,,,,,,,,,,,,,,,,,,,,,,,,,,,,,,,,,,,,,,,,,,,,,,,,,,,,,,,,,,,,,,
,,,,,,60d333c3c400caf1dcdbe2a4,62c53a176609812547edd1e5,2022-07-06_09h31.53.601,Colour_Asymmetry_Pilot,2022.1.3,Win32,75.00187505,62c50e9c1127f2cd403a315f,0,38,38,69,1,threefour,,,,,,,,,,,,,,,,,,,,,,,,,,,,,,,,,,,,,,,,,,,,,,,,,,,,,,,,,,,,,,,,,,,,,,,,,,,,,,,,,,,,,,,,,,,,,,,,,,,,,,,,,,,,,,,,,,,,,,,,,,,,,,,,,,,,,,,,,,,,,,,,,,,,,,,,,,,,,
,,,,,,60d333c3c400caf1dcdbe2a4,62c53a176609812547edd1e5,2022-07-06_09h31.53.601,Colour_Asymmetry_Pilot,2022.1.3,Win32,75.00187505,62c50e9c1127f2cd403a315f,0,39,39,158,1,fourtwo,,,,,,,,,,,,,,,,,,,,,,,,,,,,,,,,,,,,,,,,,,,,,,,,,,,,,,,,,,,,,,,,,,,,,,,,,,,,,,,,,,,,,,,,,,,,,,,,,,,,,,,,,,,,,,,,,,,,,,,,,,,,,,,,,,,,,,,,,,,,,,,,,,,,,,,,,,,,,
,,,,,,60d333c3c400caf1dcdbe2a4,62c53a176609812547edd1e5,2022-07-06_09h31.53.601,Colour_Asymmetry_Pilot,2022.1.3,Win32,75.00187505,62c50e9c1127f2cd403a315f,0,40,40,51,1,twofour,,,,,,,,,,,,,,,,,,,,,,,,,,,,,,,,,,,,,,,,,,,,,,,,,,,,,,,,,,,,,,,,,,,,,,,,,,,,,,,,,,,,,,,,,,,,,,,,,,,,,,,,,,,,,,,,,,,,,,,,,,,,,,,,,,,,,,,,,,,,,,,,,,,,,,,,,,,,,
,,,,,,60d333c3c400caf1dcdbe2a4,62c53a176609812547edd1e5,2022-07-06_09h31.53.601,Colour_Asymmetry_Pilot,2022.1.3,Win32,75.00187505,62c50e9c1127f2cd403a315f,0,41,41,131,1,twofour,,,,,,,,,,,,,,,,,,,,,,,,,,,,,,,,,,,,,,,,,,,,,,,,,,,,,,,,,,,,,,,,,,,,,,,,,,,,,,,,,,,,,,,,,,,,,,,,,,,,,,,,,,,,,,,,,,,,,,,,,,,,,,,,,,,,,,,,,,,,,,,,,,,,,,,,,,,,,
,,,,,,60d333c3c400caf1dcdbe2a4,62c53a176609812547edd1e5,2022-07-06_09h31.53.601,Colour_Asymmetry_Pilot,2022.1.3,Win32,75.00187505,62c50e9c1127f2cd403a315f,0,42,42,81,1,onethree,,,,,,,,,,,,,,,,,,,,,,,,,,,,,,,,,,,,,,,,,,,,,,,,,,,,,,,,,,,,,,,,,,,,,,,,,,,,,,,,,,,,,,,,,,,,,,,,,,,,,,,,,,,,,,,,,,,,,,,,,,,,,,,,,,,,,,,,,,,,,,,,,,,,,,,,,,,,,
,,,,,,60d333c3c400caf1dcdbe2a4,62c53a176609812547edd1e5,2022-07-06_09h31.53.601,Colour_Asymmetry_Pilot,2022.1.3,Win32,75.00187505,62c50e9c1127f2cd403a315f,0,43,43,72,1,onetwo,,,,,,,,,,,,,,,,,,,,,,,,,,,,,,,,,,,,,,,,,,,,,,,,,,,,,,,,,,,,,,,,,,,,,,,,,,,,,,,,,,,,,,,,,,,,,,,,,,,,,,,,,,,,,,,,,,,,,,,,,,,,,,,,,,,,,,,,,,,,,,,,,,,,,,,,,,,,,
,,,,,,60d333c3c400caf1dcdbe2a4,62c53a176609812547edd1e5,2022-07-06_09h31.53.601,Colour_Asymmetry_Pilot,2022.1.3,Win32,75.00187505,62c50e9c1127f2cd403a315f,0,44,44,122,1,twoone,,,,,,,,,,,,,,,,,,,,,,,,,,,,,,,,,,,,,,,,,,,,,,,,,,,,,,,,,,,,,,,,,,,,,,,,,,,,,,,,,,,,,,,,,,,,,,,,,,,,,,,,,,,,,,,,,,,,,,,,,,,,,,,,,,,,,,,,,,,,,,,,,,,,,,,,,,,,,
,,,,,,60d333c3c400caf1dcdbe2a4,62c53a176609812547edd1e5,2022-07-06_09h31.53.601,Colour_Asymmetry_Pilot,2022.1.3,Win32,75.00187505,62c50e9c1127f2cd403a315f,0,45,45,108,1,threeone,,,,,,,,,,,,,,,,,,,,,,,,,,,,,,,,,,,,,,,,,,,,,,,,,,,,,,,,,,,,,,,,,,,,,,,,,,,,,,,,,,,,,,,,,,,,,,,,,,,,,,,,,,,,,,,,,,,,,,,,,,,,,,,,,,,,,,,,,,,,,,,,,,,,,,,,,,,,,
,,,,,,60d333c3c400caf1dcdbe2a4,62c53a176609812547edd1e5,2022-07-06_09h31.53.601,Colour_Asymmetry_Pilot,2022.1.3,Win32,75.00187505,62c50e9c1127f2cd403a315f,0,46,46,41,1,onethree,,,,,,,,,,,,,,,,,,,,,,,,,,,,,,,,,,,,,,,,,,,,,,,,,,,,,,,,,,,,,,,,,,,,,,,,,,,,,,,,,,,,,,,,,,,,,,,,,,,,,,,,,,,,,,,,,,,,,,,,,,,,,,,,,,,,,,,,,,,,,,,,,,,,,,,,,,,,,
,,,,,,60d333c3c400caf1dcdbe2a4,62c53a176609812547edd1e5,2022-07-06_09h31.53.601,Colour_Asymmetry_Pilot,2022.1.3,Win32,75.00187505,62c50e9c1127f2cd403a315f,0,47,47,61,1,threefour,,,,,,,,,,,,,,,,,,,,,,,,,,,,,,,,,,,,,,,,,,,,,,,,,,,,,,,,,,,,,,,,,,,,,,,,,,,,,,,,,,,,,,,,,,,,,,,,,,,,,,,,,,,,,,,,,,,,,,,,,,,,,,,,,,,,,,,,,,,,,,,,,,,,,,,,,,,,,
,,,,,,60d333c3c400caf1dcdbe2a4,62c53a176609812547edd1e5,2022-07-06_09h31.53.601,Colour_Asymmetry_Pilot,2022.1.3,Win32,75.00187505,62c50e9c1127f2cd403a315f,0,48,48,38,1,fourtwo,,,,,,,,,,,,,,,,,,,,,,,,,,,,,,,,,,,,,,,,,,,,,,,,,,,,,,,,,,,,,,,,,,,,,,,,,,,,,,,,,,,,,,,,,,,,,,,,,,,,,,,,,,,,,,,,,,,,,,,,,,,,,,,,,,,,,,,,,,,,,,,,,,,,,,,,,,,,,
,,,,,,60d333c3c400caf1dcdbe2a4,62c53a176609812547edd1e5,2022-07-06_09h31.53.601,Colour_Asymmetry_Pilot,2022.1.3,Win32,75.00187505,62c50e9c1127f2cd403a315f,0,49,49,82,1,twoone,,,,,,,,,,,,,,,,,,,,,,,,,,,,,,,,,,,,,,,,,,,,,,,,,,,,,,,,,,,,,,,,,,,,,,,,,,,,,,,,,,,,,,,,,,,,,,,,,,,,,,,,,,,,,,,,,,,,,,,,,,,,,,,,,,,,,,,,,,,,,,,,,,,,,,,,,,,,,
,,,,,,60d333c3c400caf1dcdbe2a4,62c53a176609812547edd1e5,2022-07-06_09h31.53.601,Colour_Asymmetry_Pilot,2022.1.3,Win32,75.00187505,62c50e9c1127f2cd403a315f,0,50,50,43,1,twofour,,,,,,,,,,,,,,,,,,,,,,,,,,,,,,,,,,,,,,,,,,,,,,,,,,,,,,,,,,,,,,,,,,,,,,,,,,,,,,,,,,,,,,,,,,,,,,,,,,,,,,,,,,,,,,,,,,,,,,,,,,,,,,,,,,,,,,,,,,,,,,,,,,,,,,,,,,,,,
,,,,,,60d333c3c400caf1dcdbe2a4,62c53a176609812547edd1e5,2022-07-06_09h31.53.601,Colour_Asymmetry_Pilot,2022.1.3,Win32,75.00187505,62c50e9c1127f2cd403a315f,0,51,51,109,1,threefour,,,,,,,,,,,,,,,,,,,,,,,,,,,,,,,,,,,,,,,,,,,,,,,,,,,,,,,,,,,,,,,,,,,,,,,,,,,,,,,,,,,,,,,,,,,,,,,,,,,,,,,,,,,,,,,,,,,,,,,,,,,,,,,,,,,,,,,,,,,,,,,,,,,,,,,,,,,,,
,,,,,,60d333c3c400caf1dcdbe2a4,62c53a176609812547edd1e5,2022-07-06_09h31.53.601,Colour_Asymmetry_Pilot,2022.1.3,Win32,75.00187505,62c50e9c1127f2cd403a315f,0,52,52,159,1,fourthree,,,,,,,,,,,,,,,,,,,,,,,,,,,,,,,,,,,,,,,,,,,,,,,,,,,,,,,,,,,,,,,,,,,,,,,,,,,,,,,,,,,,,,,,,,,,,,,,,,,,,,,,,,,,,,,,,,,,,,,,,,,,,,,,,,,,,,,,,,,,,,,,,,,,,,,,,,,,,
,,,,,,60d333c3c400caf1dcdbe2a4,62c53a176609812547edd1e5,2022-07-06_09h31.53.601,Colour_Asymmetry_Pilot,2022.1.3,Win32,75.00187505,62c50e9c1127f2cd403a315f,0,53,53,156,1,threeone,,,,,,,,,,,,,,,,,,,,,,,,,,,,,,,,,,,,,,,,,,,,,,,,,,,,,,,,,,,,,,,,,,,,,,,,,,,,,,,,,,,,,,,,,,,,,,,,,,,,,,,,,,,,,,,,,,,,,,,,,,,,,,,,,,,,,,,,,,,,,,,,,,,,,,,,,,,,,
,,,,,,60d333c3c400caf1dcdbe2a4,62c53a176609812547edd1e5,2022-07-06_09h31.53.601,Colour_Asymmetry_Pilot,2022.1.3,Win32,75.00187505,62c50e9c1127f2cd403a315f,0,54,54,28,1,threeone,,,,,,,,,,,,,,,,,,,,,,,,,,,,,,,,,,,,,,,,,,,,,,,,,,,,,,,,,,,,,,,,,,,,,,,,,,,,,,,,,,,,,,,,,,,,,,,,,,,,,,,,,,,,,,,,,,,,,,,,,,,,,,,,,,,,,,,,,,,,,,,,,,,,,,,,,,,,,
,,,,,,60d333c3c400caf1dcdbe2a4,62c53a176609812547edd1e5,2022-07-06_09h31.53.601,Colour_Asymmetry_Pilot,2022.1.3,Win32,75.00187505,62c50e9c1127f2cd403a315f,0,55,55,12,1,threeone,,,,,,,,,,,,,,,,,,,,,,,,,,,,,,,,,,,,,,,,,,,,,,,,,,,,,,,,,,,,,,,,,,,,,,,,,,,,,,,,,,,,,,,,,,,,,,,,,,,,,,,,,,,,,,,,,,,,,,,,,,,,,,,,,,,,,,,,,,,,,,,,,,,,,,,,,,,,,
,,,,,,60d333c3c400caf1dcdbe2a4,62c53a176609812547edd1e5,2022-07-06_09h31.53.601,Colour_Asymmetry_Pilot,2022.1.3,Win32,75.00187505,62c50e9c1127f2cd403a315f,0,56,56,31,1,fourthree,,,,,,,,,,,,,,,,,,,,,,,,,,,,,,,,,,,,,,,,,,,,,,,,,,,,,,,,,,,,,,,,,,,,,,,,,,,,,,,,,,,,,,,,,,,,,,,,,,,,,,,,,,,,,,,,,,,,,,,,,,,,,,,,,,,,,,,,,,,,,,,,,,,,,,,,,,,,,
,,,,,,60d333c3c400caf1dcdbe2a4,62c53a176609812547edd1e5,2022-07-06_09h31.53.601,Colour_Asymmetry_Pilot,2022.1.3,Win32,75.00187505,62c50e9c1127f2cd403a315f,0,57,57,127,1,fourthree,,,,,,,,,,,,,,,,,,,,,,,,,,,,,,,,,,,,,,,,,,,,,,,,,,,,,,,,,,,,,,,,,,,,,,,,,,,,,,,,,,,,,,,,,,,,,,,,,,,,,,,,,,,,,,,,,,,,,,,,,,,,,,,,,,,,,,,,,,,,,,,,,,,,,,,,,,,,,
,,,,,,60d333c3c400caf1dcdbe2a4,62c53a176609812547edd1e5,2022-07-06_09h31.53.601,Colour_Asymmetry_Pilot,2022.1.3,Win32,75.00187505,62c50e9c1127f2cd403a315f,0,58,58,22,1,fourtwo,,,,,,,,,,,,,,,,,,,,,,,,,,,,,,,,,,,,,,,,,,,,,,,,,,,,,,,,,,,,,,,,,,,,,,,,,,,,,,,,,,,,,,,,,,,,,,,,,,,,,,,,,,,,,,,,,,,,,,,,,,,,,,,,,,,,,,,,,,,,,,,,,,,,,,,,,,,,,
,,,,,,60d333c3c400caf1dcdbe2a4,62c53a176609812547edd1e5,2022-07-06_09h31.53.601,Colour_Asymmetry_Pilot,2022.1.3,Win32,75.00187505,62c50e9c1127f2cd403a315f,0,59,59,153,1,onethree,,,,,,,,,,,,,,,,,,,,,,,,,,,,,,,,,,,,,,,,,,,,,,,,,,,,,,,,,,,,,,,,,,,,,,,,,,,,,,,,,,,,,,,,,,,,,,,,,,,,,,,,,,,,,,,,,,,,,,,,,,,,,,,,,,,,,,,,,,,,,,,,,,,,,,,,,,,,,
,,,,,,60d333c3c400caf1dcdbe2a4,62c53a176609812547edd1e5,2022-07-06_09h31.53.601,Colour_Asymmetry_Pilot,2022.1.3,Win32,75.00187505,62c50e9c1127f2cd403a315f,0,60,60,143,1,fourthree,,,,,,,,,,,,,,,,,,,,,,,,,,,,,,,,,,,,,,,,,,,,,,,,,,,,,,,,,,,,,,,,,,,,,,,,,,,,,,,,,,,,,,,,,,,,,,,,,,,,,,,,,,,,,,,,,,,,,,,,,,,,,,,,,,,,,,,,,,,,,,,,,,,,,,,,,,,,,
,,,,,,60d333c3c400caf1dcdbe2a4,62c53a176609812547edd1e5,2022-07-06_09h31.53.601,Colour_Asymmetry_Pilot,2022.1.3,Win32,75.00187505,62c50e9c1127f2cd403a315f,0,61,61,103,1,fourthree,,,,,,,,,,,,,,,,,,,,,,,,,,,,,,,,,,,,,,,,,,,,,,,,,,,,,,,,,,,,,,,,,,,,,,,,,,,,,,,,,,,,,,,,,,,,,,,,,,,,,,,,,,,,,,,,,,,,,,,,,,,,,,,,,,,,,,,,,,,,,,,,,,,,,,,,,,,,,
,,,,,,60d333c3c400caf1dcdbe2a4,62c53a176609812547edd1e5,2022-07-06_09h31.53.601,Colour_Asymmetry_Pilot,2022.1.3,Win32,75.00187505,62c50e9c1127f2cd403a315f,0,62,62,83,1,twofour,,,,,,,,,,,,,,,,,,,,,,,,,,,,,,,,,,,,,,,,,,,,,,,,,,,,,,,,,,,,,,,,,,,,,,,,,,,,,,,,,,,,,,,,,,,,,,,,,,,,,,,,,,,,,,,,,,,,,,,,,,,,,,,,,,,,,,,,,,,,,,,,,,,,,,,,,,,,,
,,,,,,60d333c3c400caf1dcdbe2a4,62c53a176609812547edd1e5,2022-07-06_09h31.53.601,Colour_Asymmetry_Pilot,2022.1.3,Win32,75.00187505,62c50e9c1127f2cd403a315f,0,63,63,141,1,threefour,,,,,,,,,,,,,,,,,,,,,,,,,,,,,,,,,,,,,,,,,,,,,,,,,,,,,,,,,,,,,,,,,,,,,,,,,,,,,,,,,,,,,,,,,,,,,,,,,,,,,,,,,,,,,,,,,,,,,,,,,,,,,,,,,,,,,,,,,,,,,,,,,,,,,,,,,,,,,
,,,,,,60d333c3c400caf1dcdbe2a4,62c53a176609812547edd1e5,2022-07-06_09h31.53.601,Colour_Asymmetry_Pilot,2022.1.3,Win32,75.00187505,62c50e9c1127f2cd403a315f,0,64,64,94,1,fourtwo,,,,,,,,,,,,,,,,,,,,,,,,,,,,,,,,,,,,,,,,,,,,,,,,,,,,,,,,,,,,,,,,,,,,,,,,,,,,,,,,,,,,,,,,,,,,,,,,,,,,,,,,,,,,,,,,,,,,,,,,,,,,,,,,,,,,,,,,,,,,,,,,,,,,,,,,,,,,,
,,,,,,60d333c3c400caf1dcdbe2a4,62c53a176609812547edd1e5,2022-07-06_09h31.53.601,Colour_Asymmetry_Pilot,2022.1.3,Win32,75.00187505,62c50e9c1127f2cd403a315f,0,65,65,17,1,onethree,,,,,,,,,,,,,,,,,,,,,,,,,,,,,,,,,,,,,,,,,,,,,,,,,,,,,,,,,,,,,,,,,,,,,,,,,,,,,,,,,,,,,,,,,,,,,,,,,,,,,,,,,,,,,,,,,,,,,,,,,,,,,,,,,,,,,,,,,,,,,,,,,,,,,,,,,,,,,
,,,,,,60d333c3c400caf1dcdbe2a4,62c53a176609812547edd1e5,2022-07-06_09h31.53.601,Colour_Asymmetry_Pilot,2022.1.3,Win32,75.00187505,62c50e9c1127f2cd403a315f,0,66,66,90,1,twoone,,,,,,,,,,,,,,,,,,,,,,,,,,,,,,,,,,,,,,,,,,,,,,,,,,,,,,,,,,,,,,,,,,,,,,,,,,,,,,,,,,,,,,,,,,,,,,,,,,,,,,,,,,,,,,,,,,,,,,,,,,,,,,,,,,,,,,,,,,,,,,,,,,,,,,,,,,,,,
,,,,,,60d333c3c400caf1dcdbe2a4,62c53a176609812547edd1e5,2022-07-06_09h31.53.601,Colour_Asymmetry_Pilot,2022.1.3,Win32,75.00187505,62c50e9c1127f2cd403a315f,0,67,67,79,1,fourthree,,,,,,,,,,,,,,,,,,,,,,,,,,,,,,,,,,,,,,,,,,,,,,,,,,,,,,,,,,,,,,,,,,,,,,,,,,,,,,,,,,,,,,,,,,,,,,,,,,,,,,,,,,,,,,,,,,,,,,,,,,,,,,,,,,,,,,,,,,,,,,,,,,,,,,,,,,,,,
,,,,,,60d333c3c400caf1dcdbe2a4,62c53a176609812547edd1e5,2022-07-06_09h31.53.601,Colour_Asymmetry_Pilot,2022.1.3,Win32,75.00187505,62c50e9c1127f2cd403a315f,0,68,68,20,1,threeone,,,,,,,,,,,,,,,,,,,,,,,,,,,,,,,,,,,,,,,,,,,,,,,,,,,,,,,,,,,,,,,,,,,,,,,,,,,,,,,,,,,,,,,,,,,,,,,,,,,,,,,,,,,,,,,,,,,,,,,,,,,,,,,,,,,,,,,,,,,,,,,,,,,,,,,,,,,,,
,,,,,,60d333c3c400caf1dcdbe2a4,62c53a176609812547edd1e5,2022-07-06_09h31.53.601,Colour_Asymmetry_Pilot,2022.1.3,Win32,75.00187505,62c50e9c1127f2cd403a315f,0,69,69,98,1,twoone,,,,,,,,,,,,,,,,,,,,,,,,,,,,,,,,,,,,,,,,,,,,,,,,,,,,,,,,,,,,,,,,,,,,,,,,,,,,,,,,,,,,,,,,,,,,,,,,,,,,,,,,,,,,,,,,,,,,,,,,,,,,,,,,,,,,,,,,,,,,,,,,,,,,,,,,,,,,,
,,,,,,60d333c3c400caf1dcdbe2a4,62c53a176609812547edd1e5,2022-07-06_09h31.53.601,Colour_Asymmetry_Pilot,2022.1.3,Win32,75.00187505,62c50e9c1127f2cd403a315f,0,70,70,25,1,onethree,,,,,,,,,,,,,,,,,,,,,,,,,,,,,,,,,,,,,,,,,,,,,,,,,,,,,,,,,,,,,,,,,,,,,,,,,,,,,,,,,,,,,,,,,,,,,,,,,,,,,,,,,,,,,,,,,,,,,,,,,,,,,,,,,,,,,,,,,,,,,,,,,,,,,,,,,,,,,
,,,,,,60d333c3c400caf1dcdbe2a4,62c53a176609812547edd1e5,2022-07-06_09h31.53.601,Colour_Asymmetry_Pilot,2022.1.3,Win32,75.00187505,62c50e9c1127f2cd403a315f,0,71,71,58,1,twoone,,,,,,,,,,,,,,,,,,,,,,,,,,,,,,,,,,,,,,,,,,,,,,,,,,,,,,,,,,,,,,,,,,,,,,,,,,,,,,,,,,,,,,,,,,,,,,,,,,,,,,,,,,,,,,,,,,,,,,,,,,,,,,,,,,,,,,,,,,,,,,,,,,,,,,,,,,,,,
,,,,,,60d333c3c400caf1dcdbe2a4,62c53a176609812547edd1e5,2022-07-06_09h31.53.601,Colour_Asymmetry_Pilot,2022.1.3,Win32,75.00187505,62c50e9c1127f2cd403a315f,0,72,72,74,1,twoone,,,,,,,,,,,,,,,,,,,,,,,,,,,,,,,,,,,,,,,,,,,,,,,,,,,,,,,,,,,,,,,,,,,,,,,,,,,,,,,,,,,,,,,,,,,,,,,,,,,,,,,,,,,,,,,,,,,,,,,,,,,,,,,,,,,,,,,,,,,,,,,,,,,,,,,,,,,,,
,,,,,,60d333c3c400caf1dcdbe2a4,62c53a176609812547edd1e5,2022-07-06_09h31.53.601,Colour_Asymmetry_Pilot,2022.1.3,Win32,75.00187505,62c50e9c1127f2cd403a315f,0,73,73,134,1,fourtwo,,,,,,,,,,,,,,,,,,,,,,,,,,,,,,,,,,,,,,,,,,,,,,,,,,,,,,,,,,,,,,,,,,,,,,,,,,,,,,,,,,,,,,,,,,,,,,,,,,,,,,,,,,,,,,,,,,,,,,,,,,,,,,,,,,,,,,,,,,,,,,,,,,,,,,,,,,,,,
,,,,,,60d333c3c400caf1dcdbe2a4,62c53a176609812547edd1e5,2022-07-06_09h31.53.601,Colour_Asymmetry_Pilot,2022.1.3,Win32,75.00187505,62c50e9c1127f2cd403a315f,0,74,74,73,1,onethree,,,,,,,,,,,,,,,,,,,,,,,,,,,,,,,,,,,,,,,,,,,,,,,,,,,,,,,,,,,,,,,,,,,,,,,,,,,,,,,,,,,,,,,,,,,,,,,,,,,,,,,,,,,,,,,,,,,,,,,,,,,,,,,,,,,,,,,,,,,,,,,,,,,,,,,,,,,,,
,,,,,,60d333c3c400caf1dcdbe2a4,62c53a176609812547edd1e5,2022-07-06_09h31.53.601,Colour_Asymmetry_Pilot,2022.1.3,Win32,75.00187505,62c50e9c1127f2cd403a315f,0,75,75,100,1,threeone,,,,,,,,,,,,,,,,,,,,,,,,,,,,,,,,,,,,,,,,,,,,,,,,,,,,,,,,,,,,,,,,,,,,,,,,,,,,,,,,,,,,,,,,,,,,,,,,,,,,,,,,,,,,,,,,,,,,,,,,,,,,,,,,,,,,,,,,,,,,,,,,,,,,,,,,,,,,,
,,,,,,60d333c3c400caf1dcdbe2a4,62c53a176609812547edd1e5,2022-07-06_09h31.53.601,Colour_Asymmetry_Pilot,2022.1.3,Win32,75.00187505,62c50e9c1127f2cd403a315f,0,76,76,0,1,onetwo,,,,,,,,,,,,,,,,,,,,,,,,,,,,,,,,,,,,,,,,,,,,,,,,,,,,,,,,,,,,,,,,,,,,,,,,,,,,,,,,,,,,,,,,,,,,,,,,,,,,,,,,,,,,,,,,,,,,,,,,,,,,,,,,,,,,,,,,,,,,,,,,,,,,,,,,,,,,,
,,,,,,60d333c3c400caf1dcdbe2a4,62c53a176609812547edd1e5,2022-07-06_09h31.53.601,Colour_Asymmetry_Pilot,2022.1.3,Win32,75.00187505,62c50e9c1127f2cd403a315f,0,77,77,125,1,threefour,,,,,,,,,,,,,,,,,,,,,,,,,,,,,,,,,,,,,,,,,,,,,,,,,,,,,,,,,,,,,,,,,,,,,,,,,,,,,,,,,,,,,,,,,,,,,,,,,,,,,,,,,,,,,,,,,,,,,,,,,,,,,,,,,,,,,,,,,,,,,,,,,,,,,,,,,,,,,
,,,,,,60d333c3c400caf1dcdbe2a4,62c53a176609812547edd1e5,2022-07-06_09h31.53.601,Colour_Asymmetry_Pilot,2022.1.3,Win32,75.00187505,62c50e9c1127f2cd403a315f,0,78,78,110,1,fourtwo,,,,,,,,,,,,,,,,,,,,,,,,,,,,,,,,,,,,,,,,,,,,,,,,,,,,,,,,,,,,,,,,,,,,,,,,,,,,,,,,,,,,,,,,,,,,,,,,,,,,,,,,,,,,,,,,,,,,,,,,,,,,,,,,,,,,,,,,,,,,,,,,,,,,,,,,,,,,,
,,,,,,60d333c3c400caf1dcdbe2a4,62c53a176609812547edd1e5,2022-07-06_09h31.53.601,Colour_Asymmetry_Pilot,2022.1.3,Win32,75.00187505,62c50e9c1127f2cd403a315f,0,79,79,152,1,onetwo,,,,,,,,,,,,,,,,,,,,,,,,,,,,,,,,,,,,,,,,,,,,,,,,,,,,,,,,,,,,,,,,,,,,,,,,,,,,,,,,,,,,,,,,,,,,,,,,,,,,,,,,,,,,,,,,,,,,,,,,,,,,,,,,,,,,,,,,,,,,,,,,,,,,,,,,,,,,,
,,,,,,60d333c3c400caf1dcdbe2a4,62c53a176609812547edd1e5,2022-07-06_09h31.53.601,Colour_Asymmetry_Pilot,2022.1.3,Win32,75.00187505,62c50e9c1127f2cd403a315f,0,80,80,55,1,fourthree,,,,,,,,,,,,,,,,,,,,,,,,,,,,,,,,,,,,,,,,,,,,,,,,,,,,,,,,,,,,,,,,,,,,,,,,,,,,,,,,,,,,,,,,,,,,,,,,,,,,,,,,,,,,,,,,,,,,,,,,,,,,,,,,,,,,,,,,,,,,,,,,,,,,,,,,,,,,,
,,,,,,60d333c3c400caf1dcdbe2a4,62c53a176609812547edd1e5,2022-07-06_09h31.53.601,Colour_Asymmetry_Pilot,2022.1.3,Win32,75.00187505,62c50e9c1127f2cd403a315f,0,81,81,2,1,twoone,,,,,,,,,,,,,,,,,,,,,,,,,,,,,,,,,,,,,,,,,,,,,,,,,,,,,,,,,,,,,,,,,,,,,,,,,,,,,,,,,,,,,,,,,,,,,,,,,,,,,,,,,,,,,,,,,,,,,,,,,,,,,,,,,,,,,,,,,,,,,,,,,,,,,,,,,,,,,
,,,,,,60d333c3c400caf1dcdbe2a4,62c53a176609812547edd1e5,2022-07-06_09h31.53.601,Colour_Asymmetry_Pilot,2022.1.3,Win32,75.00187505,62c50e9c1127f2cd403a315f,0,82,82,34,1,twoone,,,,,,,,,,,,,,,,,,,,,,,,,,,,,,,,,,,,,,,,,,,,,,,,,,,,,,,,,,,,,,,,,,,,,,,,,,,,,,,,,,,,,,,,,,,,,,,,,,,,,,,,,,,,,,,,,,,,,,,,,,,,,,,,,,,,,,,,,,,,,,,,,,,,,,,,,,,,,
,,,,,,60d333c3c400caf1dcdbe2a4,62c53a176609812547edd1e5,2022-07-06_09h31.53.601,Colour_Asymmetry_Pilot,2022.1.3,Win32,75.00187505,62c50e9c1127f2cd403a315f,0,83,83,130,1,twoone,,,,,,,,,,,,,,,,,,,,,,,,,,,,,,,,,,,,,,,,,,,,,,,,,,,,,,,,,,,,,,,,,,,,,,,,,,,,,,,,,,,,,,,,,,,,,,,,,,,,,,,,,,,,,,,,,,,,,,,,,,,,,,,,,,,,,,,,,,,,,,,,,,,,,,,,,,,,,
,,,,,,60d333c3c400caf1dcdbe2a4,62c53a176609812547edd1e5,2022-07-06_09h31.53.601,Colour_Asymmetry_Pilot,2022.1.3,Win32,75.00187505,62c50e9c1127f2cd403a315f,0,84,84,89,1,onethree,,,,,,,,,,,,,,,,,,,,,,,,,,,,,,,,,,,,,,,,,,,,,,,,,,,,,,,,,,,,,,,,,,,,,,,,,,,,,,,,,,,,,,,,,,,,,,,,,,,,,,,,,,,,,,,,,,,,,,,,,,,,,,,,,,,,,,,,,,,,,,,,,,,,,,,,,,,,,
,,,,,,60d333c3c400caf1dcdbe2a4,62c53a176609812547edd1e5,2022-07-06_09h31.53.601,Colour_Asymmetry_Pilot,2022.1.3,Win32,75.00187505,62c50e9c1127f2cd403a315f,0,85,85,136,1,onetwo,,,,,,,,,,,,,,,,,,,,,,,,,,,,,,,,,,,,,,,,,,,,,,,,,,,,,,,,,,,,,,,,,,,,,,,,,,,,,,,,,,,,,,,,,,,,,,,,,,,,,,,,,,,,,,,,,,,,,,,,,,,,,,,,,,,,,,,,,,,,,,,,,,,,,,,,,,,,,
,,,,,,60d333c3c400caf1dcdbe2a4,62c53a176609812547edd1e5,2022-07-06_09h31.53.601,Colour_Asymmetry_Pilot,2022.1.3,Win32,75.00187505,62c50e9c1127f2cd403a315f,0,86,86,88,1,onetwo,,,,,,,,,,,,,,,,,,,,,,,,,,,,,,,,,,,,,,,,,,,,,,,,,,,,,,,,,,,,,,,,,,,,,,,,,,,,,,,,,,,,,,,,,,,,,,,,,,,,,,,,,,,,,,,,,,,,,,,,,,,,,,,,,,,,,,,,,,,,,,,,,,,,,,,,,,,,,
,,,,,,60d333c3c400caf1dcdbe2a4,62c53a176609812547edd1e5,2022-07-06_09h31.53.601,Colour_Asymmetry_Pilot,2022.1.3,Win32,75.00187505,62c50e9c1127f2cd403a315f,0,87,87,148,1,threeone,,,,,,,,,,,,,,,,,,,,,,,,,,,,,,,,,,,,,,,,,,,,,,,,,,,,,,,,,,,,,,,,,,,,,,,,,,,,,,,,,,,,,,,,,,,,,,,,,,,,,,,,,,,,,,,,,,,,,,,,,,,,,,,,,,,,,,,,,,,,,,,,,,,,,,,,,,,,,
,,,,,,60d333c3c400caf1dcdbe2a4,62c53a176609812547edd1e5,2022-07-06_09h31.53.601,Colour_Asymmetry_Pilot,2022.1.3,Win32,75.00187505,62c50e9c1127f2cd403a315f,0,88,88,91,1,twofour,,,,,,,,,,,,,,,,,,,,,,,,,,,,,,,,,,,,,,,,,,,,,,,,,,,,,,,,,,,,,,,,,,,,,,,,,,,,,,,,,,,,,,,,,,,,,,,,,,,,,,,,,,,,,,,,,,,,,,,,,,,,,,,,,,,,,,,,,,,,,,,,,,,,,,,,,,,,,
,,,,,,60d333c3c400caf1dcdbe2a4,62c53a176609812547edd1e5,2022-07-06_09h31.53.601,Colour_Asymmetry_Pilot,2022.1.3,Win32,75.00187505,62c50e9c1127f2cd403a315f,0,89,89,142,1,fourtwo,,,,,,,,,,,,,,,,,,,,,,,,,,,,,,,,,,,,,,,,,,,,,,,,,,,,,,,,,,,,,,,,,,,,,,,,,,,,,,,,,,,,,,,,,,,,,,,,,,,,,,,,,,,,,,,,,,,,,,,,,,,,,,,,,,,,,,,,,,,,,,,,,,,,,,,,,,,,,
,,,,,,60d333c3c400caf1dcdbe2a4,62c53a176609812547edd1e5,2022-07-06_09h31.53.601,Colour_Asymmetry_Pilot,2022.1.3,Win32,75.00187505,62c50e9c1127f2cd403a315f,0,90,90,37,1,threefour,,,,,,,,,,,,,,,,,,,,,,,,,,,,,,,,,,,,,,,,,,,,,,,,,,,,,,,,,,,,,,,,,,,,,,,,,,,,,,,,,,,,,,,,,,,,,,,,,,,,,,,,,,,,,,,,,,,,,,,,,,,,,,,,,,,,,,,,,,,,,,,,,,,,,,,,,,,,,
,,,,,,60d333c3c400caf1dcdbe2a4,62c53a176609812547edd1e5,2022-07-06_09h31.53.601,Colour_Asymmetry_Pilot,2022.1.3,Win32,75.00187505,62c50e9c1127f2cd403a315f,0,91,91,3,1,twofour,,,,,,,,,,,,,,,,,,,,,,,,,,,,,,,,,,,,,,,,,,,,,,,,,,,,,,,,,,,,,,,,,,,,,,,,,,,,,,,,,,,,,,,,,,,,,,,,,,,,,,,,,,,,,,,,,,,,,,,,,,,,,,,,,,,,,,,,,,,,,,,,,,,,,,,,,,,,,
,,,,,,60d333c3c400caf1dcdbe2a4,62c53a176609812547edd1e5,2022-07-06_09h31.53.601,Colour_Asymmetry_Pilot,2022.1.3,Win32,75.00187505,62c50e9c1127f2cd403a315f,0,92,92,147,1,twofour,,,,,,,,,,,,,,,,,,,,,,,,,,,,,,,,,,,,,,,,,,,,,,,,,,,,,,,,,,,,,,,,,,,,,,,,,,,,,,,,,,,,,,,,,,,,,,,,,,,,,,,,,,,,,,,,,,,,,,,,,,,,,,,,,,,,,,,,,,,,,,,,,,,,,,,,,,,,,
,,,,,,60d333c3c400caf1dcdbe2a4,62c53a176609812547edd1e5,2022-07-06_09h31.53.601,Colour_Asymmetry_Pilot,2022.1.3,Win32,75.00187505,62c50e9c1127f2cd403a315f,0,93,93,7,1,fourthree,,,,,,,,,,,,,,,,,,,,,,,,,,,,,,,,,,,,,,,,,,,,,,,,,,,,,,,,,,,,,,,,,,,,,,,,,,,,,,,,,,,,,,,,,,,,,,,,,,,,,,,,,,,,,,,,,,,,,,,,,,,,,,,,,,,,,,,,,,,,,,,,,,,,,,,,,,,,,
,,,,,,60d333c3c400caf1dcdbe2a4,62c53a176609812547edd1e5,2022-07-06_09h31.53.601,Colour_Asymmetry_Pilot,2022.1.3,Win32,75.00187505,62c50e9c1127f2cd403a315f,0,94,94,150,1,fourtwo,,,,,,,,,,,,,,,,,,,,,,,,,,,,,,,,,,,,,,,,,,,,,,,,,,,,,,,,,,,,,,,,,,,,,,,,,,,,,,,,,,,,,,,,,,,,,,,,,,,,,,,,,,,,,,,,,,,,,,,,,,,,,,,,,,,,,,,,,,,,,,,,,,,,,,,,,,,,,
,,,,,,60d333c3c400caf1dcdbe2a4,62c53a176609812547edd1e5,2022-07-06_09h31.53.601,Colour_Asymmetry_Pilot,2022.1.3,Win32,75.00187505,62c50e9c1127f2cd403a315f,0,95,95,42,1,twoone,,,,,,,,,,,,,,,,,,,,,,,,,,,,,,,,,,,,,,,,,,,,,,,,,,,,,,,,,,,,,,,,,,,,,,,,,,,,,,,,,,,,,,,,,,,,,,,,,,,,,,,,,,,,,,,,,,,,,,,,,,,,,,,,,,,,,,,,,,,,,,,,,,,,,,,,,,,,,
,,,,,,60d333c3c400caf1dcdbe2a4,62c53a176609812547edd1e5,2022-07-06_09h31.53.601,Colour_Asymmetry_Pilot,2022.1.3,Win32,75.00187505,62c50e9c1127f2cd403a315f,0,96,96,149,1,threefour,,,,,,,,,,,,,,,,,,,,,,,,,,,,,,,,,,,,,,,,,,,,,,,,,,,,,,,,,,,,,,,,,,,,,,,,,,,,,,,,,,,,,,,,,,,,,,,,,,,,,,,,,,,,,,,,,,,,,,,,,,,,,,,,,,,,,,,,,,,,,,,,,,,,,,,,,,,,,
,,,,,,60d333c3c400caf1dcdbe2a4,62c53a176609812547edd1e5,2022-07-06_09h31.53.601,Colour_Asymmetry_Pilot,2022.1.3,Win32,75.00187505,62c50e9c1127f2cd403a315f,0,97,97,102,1,fourtwo,,,,,,,,,,,,,,,,,,,,,,,,,,,,,,,,,,,,,,,,,,,,,,,,,,,,,,,,,,,,,,,,,,,,,,,,,,,,,,,,,,,,,,,,,,,,,,,,,,,,,,,,,,,,,,,,,,,,,,,,,,,,,,,,,,,,,,,,,,,,,,,,,,,,,,,,,,,,,
,,,,,,60d333c3c400caf1dcdbe2a4,62c53a176609812547edd1e5,2022-07-06_09h31.53.601,Colour_Asymmetry_Pilot,2022.1.3,Win32,75.00187505,62c50e9c1127f2cd403a315f,0,98,98,56,1,onetwo,,,,,,,,,,,,,,,,,,,,,,,,,,,,,,,,,,,,,,,,,,,,,,,,,,,,,,,,,,,,,,,,,,,,,,,,,,,,,,,,,,,,,,,,,,,,,,,,,,,,,,,,,,,,,,,,,,,,,,,,,,,,,,,,,,,,,,,,,,,,,,,,,,,,,,,,,,,,,
,,,,,,60d333c3c400caf1dcdbe2a4,62c53a176609812547edd1e5,2022-07-06_09h31.53.601,Colour_Asymmetry_Pilot,2022.1.3,Win32,75.00187505,62c50e9c1127f2cd403a315f,0,99,99,48,1,onetwo,,,,,,,,,,,,,,,,,,,,,,,,,,,,,,,,,,,,,,,,,,,,,,,,,,,,,,,,,,,,,,,,,,,,,,,,,,,,,,,,,,,,,,,,,,,,,,,,,,,,,,,,,,,,,,,,,,,,,,,,,,,,,,,,,,,,,,,,,,,,,,,,,,,,,,,,,,,,,
,,,,,,60d333c3c400caf1dcdbe2a4,62c53a176609812547edd1e5,2022-07-06_09h31.53.601,Colour_Asymmetry_Pilot,2022.1.3,Win32,75.00187505,62c50e9c1127f2cd403a315f,0,100,100,95,1,fourthree,,,,,,,,,,,,,,,,,,,,,,,,,,,,,,,,,,,,,,,,,,,,,,,,,,,,,,,,,,,,,,,,,,,,,,,,,,,,,,,,,,,,,,,,,,,,,,,,,,,,,,,,,,,,,,,,,,,,,,,,,,,,,,,,,,,,,,,,,,,,,,,,,,,,,,,,,,,,,
,,,,,,60d333c3c400caf1dcdbe2a4,62c53a176609812547edd1e5,2022-07-06_09h31.53.601,Colour_Asymmetry_Pilot,2022.1.3,Win32,75.00187505,62c50e9c1127f2cd403a315f,0,101,101,93,1,threefour,,,,,,,,,,,,,,,,,,,,,,,,,,,,,,,,,,,,,,,,,,,,,,,,,,,,,,,,,,,,,,,,,,,,,,,,,,,,,,,,,,,,,,,,,,,,,,,,,,,,,,,,,,,,,,,,,,,,,,,,,,,,,,,,,,,,,,,,,,,,,,,,,,,,,,,,,,,,,
,,,,,,60d333c3c400caf1dcdbe2a4,62c53a176609812547edd1e5,2022-07-06_09h31.53.601,Colour_Asymmetry_Pilot,2022.1.3,Win32,75.00187505,62c50e9c1127f2cd403a315f,0,102,102,133,1,threefour,,,,,,,,,,,,,,,,,,,,,,,,,,,,,,,,,,,,,,,,,,,,,,,,,,,,,,,,,,,,,,,,,,,,,,,,,,,,,,,,,,,,,,,,,,,,,,,,,,,,,,,,,,,,,,,,,,,,,,,,,,,,,,,,,,,,,,,,,,,,,,,,,,,,,,,,,,,,,
,,,,,,60d333c3c400caf1dcdbe2a4,62c53a176609812547edd1e5,2022-07-06_09h31.53.601,Colour_Asymmetry_Pilot,2022.1.3,Win32,75.00187505,62c50e9c1127f2cd403a315f,0,103,103,139,1,twofour,,,,,,,,,,,,,,,,,,,,,,,,,,,,,,,,,,,,,,,,,,,,,,,,,,,,,,,,,,,,,,,,,,,,,,,,,,,,,,,,,,,,,,,,,,,,,,,,,,,,,,,,,,,,,,,,,,,,,,,,,,,,,,,,,,,,,,,,,,,,,,,,,,,,,,,,,,,,,
,,,,,,60d333c3c400caf1dcdbe2a4,62c53a176609812547edd1e5,2022-07-06_09h31.53.601,Colour_Asymmetry_Pilot,2022.1.3,Win32,75.00187505,62c50e9c1127f2cd403a315f,0,104,104,76,1,threeone,,,,,,,,,,,,,,,,,,,,,,,,,,,,,,,,,,,,,,,,,,,,,,,,,,,,,,,,,,,,,,,,,,,,,,,,,,,,,,,,,,,,,,,,,,,,,,,,,,,,,,,,,,,,,,,,,,,,,,,,,,,,,,,,,,,,,,,,,,,,,,,,,,,,,,,,,,,,,
,,,,,,60d333c3c400caf1dcdbe2a4,62c53a176609812547edd1e5,2022-07-06_09h31.53.601,Colour_Asymmetry_Pilot,2022.1.3,Win32,75.00187505,62c50e9c1127f2cd403a315f,0,105,105,106,1,twoone,,,,,,,,,,,,,,,,,,,,,,,,,,,,,,,,,,,,,,,,,,,,,,,,,,,,,,,,,,,,,,,,,,,,,,,,,,,,,,,,,,,,,,,,,,,,,,,,,,,,,,,,,,,,,,,,,,,,,,,,,,,,,,,,,,,,,,,,,,,,,,,,,,,,,,,,,,,,,
,,,,,,60d333c3c400caf1dcdbe2a4,62c53a176609812547edd1e5,2022-07-06_09h31.53.601,Colour_Asymmetry_Pilot,2022.1.3,Win32,75.00187505,62c50e9c1127f2cd403a315f,0,106,106,11,1,twofour,,,,,,,,,,,,,,,,,,,,,,,,,,,,,,,,,,,,,,,,,,,,,,,,,,,,,,,,,,,,,,,,,,,,,,,,,,,,,,,,,,,,,,,,,,,,,,,,,,,,,,,,,,,,,,,,,,,,,,,,,,,,,,,,,,,,,,,,,,,,,,,,,,,,,,,,,,,,,
,,,,,,60d333c3c400caf1dcdbe2a4,62c53a176609812547edd1e5,2022-07-06_09h31.53.601,Colour_Asymmetry_Pilot,2022.1.3,Win32,75.00187505,62c50e9c1127f2cd403a315f,0,107,107,70,1,fourtwo,,,,,,,,,,,,,,,,,,,,,,,,,,,,,,,,,,,,,,,,,,,,,,,,,,,,,,,,,,,,,,,,,,,,,,,,,,,,,,,,,,,,,,,,,,,,,,,,,,,,,,,,,,,,,,,,,,,,,,,,,,,,,,,,,,,,,,,,,,,,,,,,,,,,,,,,,,,,,
,,,,,,60d333c3c400caf1dcdbe2a4,62c53a176609812547edd1e5,2022-07-06_09h31.53.601,Colour_Asymmetry_Pilot,2022.1.3,Win32,75.00187505,62c50e9c1127f2cd403a315f,0,108,108,6,1,fourtwo,,,,,,,,,,,,,,,,,,,,,,,,,,,,,,,,,,,,,,,,,,,,,,,,,,,,,,,,,,,,,,,,,,,,,,,,,,,,,,,,,,,,,,,,,,,,,,,,,,,,,,,,,,,,,,,,,,,,,,,,,,,,,,,,,,,,,,,,,,,,,,,,,,,,,,,,,,,,,
,,,,,,60d333c3c400caf1dcdbe2a4,62c53a176609812547edd1e5,2022-07-06_09h31.53.601,Colour_Asymmetry_Pilot,2022.1.3,Win32,75.00187505,62c50e9c1127f2cd403a315f,0,109,109,105,1,onethree,,,,,,,,,,,,,,,,,,,,,,,,,,,,,,,,,,,,,,,,,,,,,,,,,,,,,,,,,,,,,,,,,,,,,,,,,,,,,,,,,,,,,,,,,,,,,,,,,,,,,,,,,,,,,,,,,,,,,,,,,,,,,,,,,,,,,,,,,,,,,,,,,,,,,,,,,,,,,
,,,,,,60d333c3c400caf1dcdbe2a4,62c53a176609812547edd1e5,2022-07-06_09h31.53.601,Colour_Asymmetry_Pilot,2022.1.3,Win32,75.00187505,62c50e9c1127f2cd403a315f,0,110,110,1,1,onethree,,,,,,,,,,,,,,,,,,,,,,,,,,,,,,,,,,,,,,,,,,,,,,,,,,,,,,,,,,,,,,,,,,,,,,,,,,,,,,,,,,,,,,,,,,,,,,,,,,,,,,,,,,,,,,,,,,,,,,,,,,,,,,,,,,,,,,,,,,,,,,,,,,,,,,,,,,,,,
,,,,,,60d333c3c400caf1dcdbe2a4,62c53a176609812547edd1e5,2022-07-06_09h31.53.601,Colour_Asymmetry_Pilot,2022.1.3,Win32,75.00187505,62c50e9c1127f2cd403a315f,0,111,111,87,1,fourthree,,,,,,,,,,,,,,,,,,,,,,,,,,,,,,,,,,,,,,,,,,,,,,,,,,,,,,,,,,,,,,,,,,,,,,,,,,,,,,,,,,,,,,,,,,,,,,,,,,,,,,,,,,,,,,,,,,,,,,,,,,,,,,,,,,,,,,,,,,,,,,,,,,,,,,,,,,,,,
,,,,,,60d333c3c400caf1dcdbe2a4,62c53a176609812547edd1e5,2022-07-06_09h31.53.601,Colour_Asymmetry_Pilot,2022.1.3,Win32,75.00187505,62c50e9c1127f2cd403a315f,0,112,112,68,1,threeone,,,,,,,,,,,,,,,,,,,,,,,,,,,,,,,,,,,,,,,,,,,,,,,,,,,,,,,,,,,,,,,,,,,,,,,,,,,,,,,,,,,,,,,,,,,,,,,,,,,,,,,,,,,,,,,,,,,,,,,,,,,,,,,,,,,,,,,,,,,,,,,,,,,,,,,,,,,,,
,,,,,,60d333c3c400caf1dcdbe2a4,62c53a176609812547edd1e5,2022-07-06_09h31.53.601,Colour_Asymmetry_Pilot,2022.1.3,Win32,75.00187505,62c50e9c1127f2cd403a315f,0,113,113,75,1,twofour,,,,,,,,,,,,,,,,,,,,,,,,,,,,,,,,,,,,,,,,,,,,,,,,,,,,,,,,,,,,,,,,,,,,,,,,,,,,,,,,,,,,,,,,,,,,,,,,,,,,,,,,,,,,,,,,,,,,,,,,,,,,,,,,,,,,,,,,,,,,,,,,,,,,,,,,,,,,,
,,,,,,60d333c3c400caf1dcdbe2a4,62c53a176609812547edd1e5,2022-07-06_09h31.53.601,Colour_Asymmetry_Pilot,2022.1.3,Win32,75.00187505,62c50e9c1127f2cd403a315f,0,114,114,157,1,threefour,,,,,,,,,,,,,,,,,,,,,,,,,,,,,,,,,,,,,,,,,,,,,,,,,,,,,,,,,,,,,,,,,,,,,,,,,,,,,,,,,,,,,,,,,,,,,,,,,,,,,,,,,,,,,,,,,,,,,,,,,,,,,,,,,,,,,,,,,,,,,,,,,,,,,,,,,,,,,
,,,,,,60d333c3c400caf1dcdbe2a4,62c53a176609812547edd1e5,2022-07-06_09h31.53.601,Colour_Asymmetry_Pilot,2022.1.3,Win32,75.00187505,62c50e9c1127f2cd403a315f,0,115,115,53,1,threefour,,,,,,,,,,,,,,,,,,,,,,,,,,,,,,,,,,,,,,,,,,,,,,,,,,,,,,,,,,,,,,,,,,,,,,,,,,,,,,,,,,,,,,,,,,,,,,,,,,,,,,,,,,,,,,,,,,,,,,,,,,,,,,,,,,,,,,,,,,,,,,,,,,,,,,,,,,,,,
,,,,,,60d333c3c400caf1dcdbe2a4,62c53a176609812547edd1e5,2022-07-06_09h31.53.601,Colour_Asymmetry_Pilot,2022.1.3,Win32,75.00187505,62c50e9c1127f2cd403a315f,0,116,116,99,1,twofour,,,,,,,,,,,,,,,,,,,,,,,,,,,,,,,,,,,,,,,,,,,,,,,,,,,,,,,,,,,,,,,,,,,,,,,,,,,,,,,,,,,,,,,,,,,,,,,,,,,,,,,,,,,,,,,,,,,,,,,,,,,,,,,,,,,,,,,,,,,,,,,,,,,,,,,,,,,,,
,,,,,,60d333c3c400caf1dcdbe2a4,62c53a176609812547edd1e5,2022-07-06_09h31.53.601,Colour_Asymmetry_Pilot,2022.1.3,Win32,75.00187505,62c50e9c1127f2cd403a315f,0,117,117,60,1,threeone,,,,,,,,,,,,,,,,,,,,,,,,,,,,,,,,,,,,,,,,,,,,,,,,,,,,,,,,,,,,,,,,,,,,,,,,,,,,,,,,,,,,,,,,,,,,,,,,,,,,,,,,,,,,,,,,,,,,,,,,,,,,,,,,,,,,,,,,,,,,,,,,,,,,,,,,,,,,,
,,,,,,60d333c3c400caf1dcdbe2a4,62c53a176609812547edd1e5,2022-07-06_09h31.53.601,Colour_Asymmetry_Pilot,2022.1.3,Win32,75.00187505,62c50e9c1127f2cd403a315f,0,118,118,52,1,threeone,,,,,,,,,,,,,,,,,,,,,,,,,,,,,,,,,,,,,,,,,,,,,,,,,,,,,,,,,,,,,,,,,,,,,,,,,,,,,,,,,,,,,,,,,,,,,,,,,,,,,,,,,,,,,,,,,,,,,,,,,,,,,,,,,,,,,,,,,,,,,,,,,,,,,,,,,,,,,
,,,,,,60d333c3c400caf1dcdbe2a4,62c53a176609812547edd1e5,2022-07-06_09h31.53.601,Colour_Asymmetry_Pilot,2022.1.3,Win32,75.00187505,62c50e9c1127f2cd403a315f,0,119,119,128,1,onetwo,,,,,,,,,,,,,,,,,,,,,,,,,,,,,,,,,,,,,,,,,,,,,,,,,,,,,,,,,,,,,,,,,,,,,,,,,,,,,,,,,,,,,,,,,,,,,,,,,,,,,,,,,,,,,,,,,,,,,,,,,,,,,,,,,,,,,,,,,,,,,,,,,,,,,,,,,,,,,
,,,,,,60d333c3c400caf1dcdbe2a4,62c53a176609812547edd1e5,2022-07-06_09h31.53.601,Colour_Asymmetry_Pilot,2022.1.3,Win32,75.00187505,62c50e9c1127f2cd403a315f,0,120,120,21,1,threefour,,,,,,,,,,,,,,,,,,,,,,,,,,,,,,,,,,,,,,,,,,,,,,,,,,,,,,,,,,,,,,,,,,,,,,,,,,,,,,,,,,,,,,,,,,,,,,,,,,,,,,,,,,,,,,,,,,,,,,,,,,,,,,,,,,,,,,,,,,,,,,,,,,,,,,,,,,,,,
,,,,,,60d333c3c400caf1dcdbe2a4,62c53a176609812547edd1e5,2022-07-06_09h31.53.601,Colour_Asymmetry_Pilot,2022.1.3,Win32,75.00187505,62c50e9c1127f2cd403a315f,0,121,121,77,1,threefour,,,,,,,,,,,,,,,,,,,,,,,,,,,,,,,,,,,,,,,,,,,,,,,,,,,,,,,,,,,,,,,,,,,,,,,,,,,,,,,,,,,,,,,,,,,,,,,,,,,,,,,,,,,,,,,,,,,,,,,,,,,,,,,,,,,,,,,,,,,,,,,,,,,,,,,,,,,,,
,,,,,,60d333c3c400caf1dcdbe2a4,62c53a176609812547edd1e5,2022-07-06_09h31.53.601,Colour_Asymmetry_Pilot,2022.1.3,Win32,75.00187505,62c50e9c1127f2cd403a315f,0,122,122,126,1,fourtwo,,,,,,,,,,,,,,,,,,,,,,,,,,,,,,,,,,,,,,,,,,,,,,,,,,,,,,,,,,,,,,,,,,,,,,,,,,,,,,,,,,,,,,,,,,,,,,,,,,,,,,,,,,,,,,,,,,,,,,,,,,,,,,,,,,,,,,,,,,,,,,,,,,,,,,,,,,,,,
,,,,,,60d333c3c400caf1dcdbe2a4,62c53a176609812547edd1e5,2022-07-06_09h31.53.601,Colour_Asymmetry_Pilot,2022.1.3,Win32,75.00187505,62c50e9c1127f2cd403a315f,0,123,123,62,1,fourtwo,,,,,,,,,,,,,,,,,,,,,,,,,,,,,,,,,,,,,,,,,,,,,,,,,,,,,,,,,,,,,,,,,,,,,,,,,,,,,,,,,,,,,,,,,,,,,,,,,,,,,,,,,,,,,,,,,,,,,,,,,,,,,,,,,,,,,,,,,,,,,,,,,,,,,,,,,,,,,
,,,,,,60d333c3c400caf1dcdbe2a4,62c53a176609812547edd1e5,2022-07-06_09h31.53.601,Colour_Asymmetry_Pilot,2022.1.3,Win32,75.00187505,62c50e9c1127f2cd403a315f,0,124,124,104,1,onetwo,,,,,,,,,,,,,,,,,,,,,,,,,,,,,,,,,,,,,,,,,,,,,,,,,,,,,,,,,,,,,,,,,,,,,,,,,,,,,,,,,,,,,,,,,,,,,,,,,,,,,,,,,,,,,,,,,,,,,,,,,,,,,,,,,,,,,,,,,,,,,,,,,,,,,,,,,,,,,
,,,,,,60d333c3c400caf1dcdbe2a4,62c53a176609812547edd1e5,2022-07-06_09h31.53.601,Colour_Asymmetry_Pilot,2022.1.3,Win32,75.00187505,62c50e9c1127f2cd403a315f,0,125,125,121,1,onethree,,,,,,,,,,,,,,,,,,,,,,,,,,,,,,,,,,,,,,,,,,,,,,,,,,,,,,,,,,,,,,,,,,,,,,,,,,,,,,,,,,,,,,,,,,,,,,,,,,,,,,,,,,,,,,,,,,,,,,,,,,,,,,,,,,,,,,,,,,,,,,,,,,,,,,,,,,,,,
,,,,,,60d333c3c400caf1dcdbe2a4,62c53a176609812547edd1e5,2022-07-06_09h31.53.601,Colour_Asymmetry_Pilot,2022.1.3,Win32,75.00187505,62c50e9c1127f2cd403a315f,0,126,126,80,1,onetwo,,,,,,,,,,,,,,,,,,,,,,,,,,,,,,,,,,,,,,,,,,,,,,,,,,,,,,,,,,,,,,,,,,,,,,,,,,,,,,,,,,,,,,,,,,,,,,,,,,,,,,,,,,,,,,,,,,,,,,,,,,,,,,,,,,,,,,,,,,,,,,,,,,,,,,,,,,,,,
,,,,,,60d333c3c400caf1dcdbe2a4,62c53a176609812547edd1e5,2022-07-06_09h31.53.601,Colour_Asymmetry_Pilot,2022.1.3,Win32,75.00187505,62c50e9c1127f2cd403a315f,0,127,127,118,1,fourtwo,,,,,,,,,,,,,,,,,,,,,,,,,,,,,,,,,,,,,,,,,,,,,,,,,,,,,,,,,,,,,,,,,,,,,,,,,,,,,,,,,,,,,,,,,,,,,,,,,,,,,,,,,,,,,,,,,,,,,,,,,,,,,,,,,,,,,,,,,,,,,,,,,,,,,,,,,,,,,
,,,,,,60d333c3c400caf1dcdbe2a4,62c53a176609812547edd1e5,2022-07-06_09h31.53.601,Colour_Asymmetry_Pilot,2022.1.3,Win32,75.00187505,62c50e9c1127f2cd403a315f,0,128,128,66,1,twoone,,,,,,,,,,,,,,,,,,,,,,,,,,,,,,,,,,,,,,,,,,,,,,,,,,,,,,,,,,,,,,,,,,,,,,,,,,,,,,,,,,,,,,,,,,,,,,,,,,,,,,,,,,,,,,,,,,,,,,,,,,,,,,,,,,,,,,,,,,,,,,,,,,,,,,,,,,,,,
,,,,,,60d333c3c400caf1dcdbe2a4,62c53a176609812547edd1e5,2022-07-06_09h31.53.601,Colour_Asymmetry_Pilot,2022.1.3,Win32,75.00187505,62c50e9c1127f2cd403a315f,0,129,129,64,1,onetwo,,,,,,,,,,,,,,,,,,,,,,,,,,,,,,,,,,,,,,,,,,,,,,,,,,,,,,,,,,,,,,,,,,,,,,,,,,,,,,,,,,,,,,,,,,,,,,,,,,,,,,,,,,,,,,,,,,,,,,,,,,,,,,,,,,,,,,,,,,,,,,,,,,,,,,,,,,,,,
,,,,,,60d333c3c400caf1dcdbe2a4,62c53a176609812547edd1e5,2022-07-06_09h31.53.601,Colour_Asymmetry_Pilot,2022.1.3,Win32,75.00187505,62c50e9c1127f2cd403a315f,0,130,130,9,1,onethree,,,,,,,,,,,,,,,,,,,,,,,,,,,,,,,,,,,,,,,,,,,,,,,,,,,,,,,,,,,,,,,,,,,,,,,,,,,,,,,,,,,,,,,,,,,,,,,,,,,,,,,,,,,,,,,,,,,,,,,,,,,,,,,,,,,,,,,,,,,,,,,,,,,,,,,,,,,,,
,,,,,,60d333c3c400caf1dcdbe2a4,62c53a176609812547edd1e5,2022-07-06_09h31.53.601,Colour_Asymmetry_Pilot,2022.1.3,Win32,75.00187505,62c50e9c1127f2cd403a315f,0,131,131,138,1,twoone,,,,,,,,,,,,,,,,,,,,,,,,,,,,,,,,,,,,,,,,,,,,,,,,,,,,,,,,,,,,,,,,,,,,,,,,,,,,,,,,,,,,,,,,,,,,,,,,,,,,,,,,,,,,,,,,,,,,,,,,,,,,,,,,,,,,,,,,,,,,,,,,,,,,,,,,,,,,,
,,,,,,60d333c3c400caf1dcdbe2a4,62c53a176609812547edd1e5,2022-07-06_09h31.53.601,Colour_Asymmetry_Pilot,2022.1.3,Win32,75.00187505,62c50e9c1127f2cd403a315f,0,132,132,36,1,threeone,,,,,,,,,,,,,,,,,,,,,,,,,,,,,,,,,,,,,,,,,,,,,,,,,,,,,,,,,,,,,,,,,,,,,,,,,,,,,,,,,,,,,,,,,,,,,,,,,,,,,,,,,,,,,,,,,,,,,,,,,,,,,,,,,,,,,,,,,,,,,,,,,,,,,,,,,,,,,
,,,,,,60d333c3c400caf1dcdbe2a4,62c53a176609812547edd1e5,2022-07-06_09h31.53.601,Colour_Asymmetry_Pilot,2022.1.3,Win32,75.00187505,62c50e9c1127f2cd403a315f,0,133,133,30,1,fourtwo,,,,,,,,,,,,,,,,,,,,,,,,,,,,,,,,,,,,,,,,,,,,,,,,,,,,,,,,,,,,,,,,,,,,,,,,,,,,,,,,,,,,,,,,,,,,,,,,,,,,,,,,,,,,,,,,,,,,,,,,,,,,,,,,,,,,,,,,,,,,,,,,,,,,,,,,,,,,,
,,,,,,60d333c3c400caf1dcdbe2a4,62c53a176609812547edd1e5,2022-07-06_09h31.53.601,Colour_Asymmetry_Pilot,2022.1.3,Win32,75.00187505,62c50e9c1127f2cd403a315f,0,134,134,5,1,threefour,,,,,,,,,,,,,,,,,,,,,,,,,,,,,,,,,,,,,,,,,,,,,,,,,,,,,,,,,,,,,,,,,,,,,,,,,,,,,,,,,,,,,,,,,,,,,,,,,,,,,,,,,,,,,,,,,,,,,,,,,,,,,,,,,,,,,,,,,,,,,,,,,,,,,,,,,,,,,
,,,,,,60d333c3c400caf1dcdbe2a4,62c53a176609812547edd1e5,2022-07-06_09h31.53.601,Colour_Asymmetry_Pilot,2022.1.3,Win32,75.00187505,62c50e9c1127f2cd403a315f,0,135,135,144,1,onetwo,,,,,,,,,,,,,,,,,,,,,,,,,,,,,,,,,,,,,,,,,,,,,,,,,,,,,,,,,,,,,,,,,,,,,,,,,,,,,,,,,,,,,,,,,,,,,,,,,,,,,,,,,,,,,,,,,,,,,,,,,,,,,,,,,,,,,,,,,,,,,,,,,,,,,,,,,,,,,
,,,,,,60d333c3c400caf1dcdbe2a4,62c53a176609812547edd1e5,2022-07-06_09h31.53.601,Colour_Asymmetry_Pilot,2022.1.3,Win32,75.00187505,62c50e9c1127f2cd403a315f,0,136,136,23,1,fourthree,,,,,,,,,,,,,,,,,,,,,,,,,,,,,,,,,,,,,,,,,,,,,,,,,,,,,,,,,,,,,,,,,,,,,,,,,,,,,,,,,,,,,,,,,,,,,,,,,,,,,,,,,,,,,,,,,,,,,,,,,,,,,,,,,,,,,,,,,,,,,,,,,,,,,,,,,,,,,
,,,,,,60d333c3c400caf1dcdbe2a4,62c53a176609812547edd1e5,2022-07-06_09h31.53.601,Colour_Asymmetry_Pilot,2022.1.3,Win32,75.00187505,62c50e9c1127f2cd403a315f,0,137,137,8,1,onetwo,,,,,,,,,,,,,,,,,,,,,,,,,,,,,,,,,,,,,,,,,,,,,,,,,,,,,,,,,,,,,,,,,,,,,,,,,,,,,,,,,,,,,,,,,,,,,,,,,,,,,,,,,,,,,,,,,,,,,,,,,,,,,,,,,,,,,,,,,,,,,,,,,,,,,,,,,,,,,
,,,,,,60d333c3c400caf1dcdbe2a4,62c53a176609812547edd1e5,2022-07-06_09h31.53.601,Colour_Asymmetry_Pilot,2022.1.3,Win32,75.00187505,62c50e9c1127f2cd403a315f,0,138,138,24,1,onetwo,,,,,,,,,,,,,,,,,,,,,,,,,,,,,,,,,,,,,,,,,,,,,,,,,,,,,,,,,,,,,,,,,,,,,,,,,,,,,,,,,,,,,,,,,,,,,,,,,,,,,,,,,,,,,,,,,,,,,,,,,,,,,,,,,,,,,,,,,,,,,,,,,,,,,,,,,,,,,
,,,,,,60d333c3c400caf1dcdbe2a4,62c53a176609812547edd1e5,2022-07-06_09h31.53.601,Colour_Asymmetry_Pilot,2022.1.3,Win32,75.00187505,62c50e9c1127f2cd403a315f,0,139,139,78,1,fourtwo,,,,,,,,,,,,,,,,,,,,,,,,,,,,,,,,,,,,,,,,,,,,,,,,,,,,,,,,,,,,,,,,,,,,,,,,,,,,,,,,,,,,,,,,,,,,,,,,,,,,,,,,,,,,,,,,,,,,,,,,,,,,,,,,,,,,,,,,,,,,,,,,,,,,,,,,,,,,,
,,,,,,60d333c3c400caf1dcdbe2a4,62c53a176609812547edd1e5,2022-07-06_09h31.53.601,Colour_Asymmetry_Pilot,2022.1.3,Win32,75.00187505,62c50e9c1127f2cd403a315f,0,140,140,71,1,fourthree,,,,,,,,,,,,,,,,,,,,,,,,,,,,,,,,,,,,,,,,,,,,,,,,,,,,,,,,,,,,,,,,,,,,,,,,,,,,,,,,,,,,,,,,,,,,,,,,,,,,,,,,,,,,,,,,,,,,,,,,,,,,,,,,,,,,,,,,,,,,,,,,,,,,,,,,,,,,,
,,,,,,60d333c3c400caf1dcdbe2a4,62c53a176609812547edd1e5,2022-07-06_09h31.53.601,Colour_Asymmetry_Pilot,2022.1.3,Win32,75.00187505,62c50e9c1127f2cd403a315f,0,141,141,18,1,twoone,,,,,,,,,,,,,,,,,,,,,,,,,,,,,,,,,,,,,,,,,,,,,,,,,,,,,,,,,,,,,,,,,,,,,,,,,,,,,,,,,,,,,,,,,,,,,,,,,,,,,,,,,,,,,,,,,,,,,,,,,,,,,,,,,,,,,,,,,,,,,,,,,,,,,,,,,,,,,
,,,,,,60d333c3c400caf1dcdbe2a4,62c53a176609812547edd1e5,2022-07-06_09h31.53.601,Colour_Asymmetry_Pilot,2022.1.3,Win32,75.00187505,62c50e9c1127f2cd403a315f,0,142,142,4,1,threeone,,,,,,,,,,,,,,,,,,,,,,,,,,,,,,,,,,,,,,,,,,,,,,,,,,,,,,,,,,,,,,,,,,,,,,,,,,,,,,,,,,,,,,,,,,,,,,,,,,,,,,,,,,,,,,,,,,,,,,,,,,,,,,,,,,,,,,,,,,,,,,,,,,,,,,,,,,,,,
,,,,,,60d333c3c400caf1dcdbe2a4,62c53a176609812547edd1e5,2022-07-06_09h31.53.601,Colour_Asymmetry_Pilot,2022.1.3,Win32,75.00187505,62c50e9c1127f2cd403a315f,0,143,143,16,1,onetwo,,,,,,,,,,,,,,,,,,,,,,,,,,,,,,,,,,,,,,,,,,,,,,,,,,,,,,,,,,,,,,,,,,,,,,,,,,,,,,,,,,,,,,,,,,,,,,,,,,,,,,,,,,,,,,,,,,,,,,,,,,,,,,,,,,,,,,,,,,,,,,,,,,,,,,,,,,,,,
,,,,,,60d333c3c400caf1dcdbe2a4,62c53a176609812547edd1e5,2022-07-06_09h31.53.601,Colour_Asymmetry_Pilot,2022.1.3,Win32,75.00187505,62c50e9c1127f2cd403a315f,0,144,144,151,1,fourthree,,,,,,,,,,,,,,,,,,,,,,,,,,,,,,,,,,,,,,,,,,,,,,,,,,,,,,,,,,,,,,,,,,,,,,,,,,,,,,,,,,,,,,,,,,,,,,,,,,,,,,,,,,,,,,,,,,,,,,,,,,,,,,,,,,,,,,,,,,,,,,,,,,,,,,,,,,,,,
,,,,,,60d333c3c400caf1dcdbe2a4,62c53a176609812547edd1e5,2022-07-06_09h31.53.601,Colour_Asymmetry_Pilot,2022.1.3,Win32,75.00187505,62c50e9c1127f2cd403a315f,0,145,145,114,1,twoone,,,,,,,,,,,,,,,,,,,,,,,,,,,,,,,,,,,,,,,,,,,,,,,,,,,,,,,,,,,,,,,,,,,,,,,,,,,,,,,,,,,,,,,,,,,,,,,,,,,,,,,,,,,,,,,,,,,,,,,,,,,,,,,,,,,,,,,,,,,,,,,,,,,,,,,,,,,,,
,,,,,,60d333c3c400caf1dcdbe2a4,62c53a176609812547edd1e5,2022-07-06_09h31.53.601,Colour_Asymmetry_Pilot,2022.1.3,Win32,75.00187505,62c50e9c1127f2cd403a315f,0,146,146,39,1,fourthree,,,,,,,,,,,,,,,,,,,,,,,,,,,,,,,,,,,,,,,,,,,,,,,,,,,,,,,,,,,,,,,,,,,,,,,,,,,,,,,,,,,,,,,,,,,,,,,,,,,,,,,,,,,,,,,,,,,,,,,,,,,,,,,,,,,,,,,,,,,,,,,,,,,,,,,,,,,,,
,,,,,,60d333c3c400caf1dcdbe2a4,62c53a176609812547edd1e5,2022-07-06_09h31.53.601,Colour_Asymmetry_Pilot,2022.1.3,Win32,75.00187505,62c50e9c1127f2cd403a315f,0,147,147,84,1,threeone,,,,,,,,,,,,,,,,,,,,,,,,,,,,,,,,,,,,,,,,,,,,,,,,,,,,,,,,,,,,,,,,,,,,,,,,,,,,,,,,,,,,,,,,,,,,,,,,,,,,,,,,,,,,,,,,,,,,,,,,,,,,,,,,,,,,,,,,,,,,,,,,,,,,,,,,,,,,,
,,,,,,60d333c3c400caf1dcdbe2a4,62c53a176609812547edd1e5,2022-07-06_09h31.53.601,Colour_Asymmetry_Pilot,2022.1.3,Win32,75.00187505,62c50e9c1127f2cd403a315f,0,148,148,132,1,threeone,,,,,,,,,,,,,,,,,,,,,,,,,,,,,,,,,,,,,,,,,,,,,,,,,,,,,,,,,,,,,,,,,,,,,,,,,,,,,,,,,,,,,,,,,,,,,,,,,,,,,,,,,,,,,,,,,,,,,,,,,,,,,,,,,,,,,,,,,,,,,,,,,,,,,,,,,,,,,
,,,,,,60d333c3c400caf1dcdbe2a4,62c53a176609812547edd1e5,2022-07-06_09h31.53.601,Colour_Asymmetry_Pilot,2022.1.3,Win32,75.00187505,62c50e9c1127f2cd403a315f,0,149,149,155,1,twofour,,,,,,,,,,,,,,,,,,,,,,,,,,,,,,,,,,,,,,,,,,,,,,,,,,,,,,,,,,,,,,,,,,,,,,,,,,,,,,,,,,,,,,,,,,,,,,,,,,,,,,,,,,,,,,,,,,,,,,,,,,,,,,,,,,,,,,,,,,,,,,,,,,,,,,,,,,,,,
,,,,,,60d333c3c400caf1dcdbe2a4,62c53a176609812547edd1e5,2022-07-06_09h31.53.601,Colour_Asymmetry_Pilot,2022.1.3,Win32,75.00187505,62c50e9c1127f2cd403a315f,0,150,150,46,1,fourtwo,,,,,,,,,,,,,,,,,,,,,,,,,,,,,,,,,,,,,,,,,,,,,,,,,,,,,,,,,,,,,,,,,,,,,,,,,,,,,,,,,,,,,,,,,,,,,,,,,,,,,,,,,,,,,,,,,,,,,,,,,,,,,,,,,,,,,,,,,,,,,,,,,,,,,,,,,,,,,
,,,,,,60d333c3c400caf1dcdbe2a4,62c53a176609812547edd1e5,2022-07-06_09h31.53.601,Colour_Asymmetry_Pilot,2022.1.3,Win32,75.00187505,62c50e9c1127f2cd403a315f,0,151,151,101,1,threefour,,,,,,,,,,,,,,,,,,,,,,,,,,,,,,,,,,,,,,,,,,,,,,,,,,,,,,,,,,,,,,,,,,,,,,,,,,,,,,,,,,,,,,,,,,,,,,,,,,,,,,,,,,,,,,,,,,,,,,,,,,,,,,,,,,,,,,,,,,,,,,,,,,,,,,,,,,,,,
,,,,,,60d333c3c400caf1dcdbe2a4,62c53a176609812547edd1e5,2022-07-06_09h31.53.601,Colour_Asymmetry_Pilot,2022.1.3,Win32,75.00187505,62c50e9c1127f2cd403a315f,0,152,152,57,1,onethree,,,,,,,,,,,,,,,,,,,,,,,,,,,,,,,,,,,,,,,,,,,,,,,,,,,,,,,,,,,,,,,,,,,,,,,,,,,,,,,,,,,,,,,,,,,,,,,,,,,,,,,,,,,,,,,,,,,,,,,,,,,,,,,,,,,,,,,,,,,,,,,,,,,,,,,,,,,,,
,,,,,,60d333c3c400caf1dcdbe2a4,62c53a176609812547edd1e5,2022-07-06_09h31.53.601,Colour_Asymmetry_Pilot,2022.1.3,Win32,75.00187505,62c50e9c1127f2cd403a315f,0,153,153,107,1,twofour,,,,,,,,,,,,,,,,,,,,,,,,,,,,,,,,,,,,,,,,,,,,,,,,,,,,,,,,,,,,,,,,,,,,,,,,,,,,,,,,,,,,,,,,,,,,,,,,,,,,,,,,,,,,,,,,,,,,,,,,,,,,,,,,,,,,,,,,,,,,,,,,,,,,,,,,,,,,,
,,,,,,60d333c3c400caf1dcdbe2a4,62c53a176609812547edd1e5,2022-07-06_09h31.53.601,Colour_Asymmetry_Pilot,2022.1.3,Win32,75.00187505,62c50e9c1127f2cd403a315f,0,154,154,65,1,onethree,,,,,,,,,,,,,,,,,,,,,,,,,,,,,,,,,,,,,,,,,,,,,,,,,,,,,,,,,,,,,,,,,,,,,,,,,,,,,,,,,,,,,,,,,,,,,,,,,,,,,,,,,,,,,,,,,,,,,,,,,,,,,,,,,,,,,,,,,,,,,,,,,,,,,,,,,,,,,
,,,,,,60d333c3c400caf1dcdbe2a4,62c53a176609812547edd1e5,2022-07-06_09h31.53.601,Colour_Asymmetry_Pilot,2022.1.3,Win32,75.00187505,62c50e9c1127f2cd403a315f,0,155,155,129,1,onethree,,,,,,,,,,,,,,,,,,,,,,,,,,,,,,,,,,,,,,,,,,,,,,,,,,,,,,,,,,,,,,,,,,,,,,,,,,,,,,,,,,,,,,,,,,,,,,,,,,,,,,,,,,,,,,,,,,,,,,,,,,,,,,,,,,,,,,,,,,,,,,,,,,,,,,,,,,,,,
,,,,,,60d333c3c400caf1dcdbe2a4,62c53a176609812547edd1e5,2022-07-06_09h31.53.601,Colour_Asymmetry_Pilot,2022.1.3,Win32,75.00187505,62c50e9c1127f2cd403a315f,0,156,156,111,1,fourthree,,,,,,,,,,,,,,,,,,,,,,,,,,,,,,,,,,,,,,,,,,,,,,,,,,,,,,,,,,,,,,,,,,,,,,,,,,,,,,,,,,,,,,,,,,,,,,,,,,,,,,,,,,,,,,,,,,,,,,,,,,,,,,,,,,,,,,,,,,,,,,,,,,,,,,,,,,,,,
,,,,,,60d333c3c400caf1dcdbe2a4,62c53a176609812547edd1e5,2022-07-06_09h31.53.601,Colour_Asymmetry_Pilot,2022.1.3,Win32,75.00187505,62c50e9c1127f2cd403a315f,0,157,157,50,1,twoone,,,,,,,,,,,,,,,,,,,,,,,,,,,,,,,,,,,,,,,,,,,,,,,,,,,,,,,,,,,,,,,,,,,,,,,,,,,,,,,,,,,,,,,,,,,,,,,,,,,,,,,,,,,,,,,,,,,,,,,,,,,,,,,,,,,,,,,,,,,,,,,,,,,,,,,,,,,,,
,,,,,,60d333c3c400caf1dcdbe2a4,62c53a176609812547edd1e5,2022-07-06_09h31.53.601,Colour_Asymmetry_Pilot,2022.1.3,Win32,75.00187505,62c50e9c1127f2cd403a315f,0,158,158,33,1,onethree,,,,,,,,,,,,,,,,,,,,,,,,,,,,,,,,,,,,,,,,,,,,,,,,,,,,,,,,,,,,,,,,,,,,,,,,,,,,,,,,,,,,,,,,,,,,,,,,,,,,,,,,,,,,,,,,,,,,,,,,,,,,,,,,,,,,,,,,,,,,,,,,,,,,,,,,,,,,,
,,,,,,60d333c3c400caf1dcdbe2a4,62c53a176609812547edd1e5,2022-07-06_09h31.53.601,Colour_Asymmetry_Pilot,2022.1.3,Win32,75.00187505,62c50e9c1127f2cd403a315f,0,159,159,116,1,threeone,,,,,,,,,,,,,,,,,,,,,,,,,,,,,,,,,,,,,,,,,,,,,,,,,,,,,,,,,,,,,,,,,,,,,,,,,,,,,,,,,,,,,,,,,,,,,,,,,,,,,,,,,,,,,,,,,,,,,,,,,,,,,,,,,,,,,,,,,,,,,,,,,,,,,,,,,,,,,
,,,,,,60d333c3c400caf1dcdbe2a4,62c53a176609812547edd1e5,2022-07-06_09h31.53.601,Colour_Asymmetry_Pilot,2022.1.3,Win32,75.00187505,62c50e9c1127f2cd403a315f,0,160,160,13,1,threefour,,,,,,,,,,,,,,,,,,,,,,,,,,,,,,,,,,,,,,,,,,,,,,,,,,,,,,,,,,,,,,,,,,,,,,,,,,,,,,,,,,,,,,,,,,,,,,,,,,,,,,,,,,,,,,,,,,,,,,,,,,,,,,,,,,,,,,,,,,,,,,,,,,,,,,,,,,,,,
,,,,,,60d333c3c400caf1dcdbe2a4,62c53a176609812547edd1e5,2022-07-06_09h31.53.601,Colour_Asymmetry_Pilot,2022.1.3,Win32,75.00187505,62c50e9c1127f2cd403a315f,0,161,161,85,1,threefour,,,,,,,,,,,,,,,,,,,,,,,,,,,,,,,,,,,,,,,,,,,,,,,,,,,,,,,,,,,,,,,,,,,,,,,,,,,,,,,,,,,,,,,,,,,,,,,,,,,,,,,,,,,,,,,,,,,,,,,,,,,,,,,,,,,,,,,,,,,,,,,,,,,,,,,,,,,,,
,,,,,,60d333c3c400caf1dcdbe2a4,62c53a176609812547edd1e5,2022-07-06_09h31.53.601,Colour_Asymmetry_Pilot,2022.1.3,Win32,75.00187505,62c50e9c1127f2cd403a315f,,,,,,,space,5.6508,space,8.7977,space,30.9928,space,29.3774,space,2.7853,space,6.647,"[-0.6942,-0.7648,-0.12959999999999994]",threefour,"[0.0351999999999999,0.41159999999999997,0.0038000000000000256]",3,17.8979,66,28,1,0,0,response1disk_5,2,-4,1,0,0,rectangle_8,75,31,1,0,0,response1disk_7,6,3,-6,-5,1,0,0,rectangle_4,0,0,0,0,1,,,,,,,,,,,,,,,,,,,,,,,,,,,,,,,,,,,,,,,,,,,,,,,,,,,,,,,,,,,,,,,,,,,,,,,,,,,,,,,,,,,,,,,,,,,,,,,,,,,,,,,,,,,,,
,,,,,,60d333c3c400caf1dcdbe2a4,62c53a176609812547edd1e5,2022-07-06_09h31.53.601,Colour_Asymmetry_Pilot,2022.1.3,Win32,75.00187505,62c50e9c1127f2cd403a315f,,,,,,,,,,,,,,,,,,,"[0.9686000000000001,0.3802000000000001,0.19999999999999996]",threefour,"[-0.9688,-0.38039999999999996,-0.41979999999999995]",2,2.6522,54,-40,1,0,0,response3disk_5,-3,1,1,0,0,rectangle_8,-3,1,1,0,0,,,3,-3,1,1,0,0,,1,0,1,0,1,,,,,,,,,,,,,,,,,,,,,,,,,,,,,,,,,,,,,,,,,,,,,,,,,,,,,,,,,,,,,,,,,,,,,,,,,,,,,,,,,,,,,,,,,,,,,,,,,,,,,,,,,,,,,
,,,,,,60d333c3c400caf1dcdbe2a4,62c53a176609812547edd1e5,2022-07-06_09h31.53.601,Colour_Asymmetry_Pilot,2022.1.3,Win32,75.00187505,62c50e9c1127f2cd403a315f,,,,,,,,,,,,,,,,,,,"[-0.2942,-0.24719999999999998,-0.357]",twoone,"[-0.8982,-0.37259999999999993,0.2784]",-2,1.7072,-71,-39,1,0,0,response5disk_5,-11,3,1,0,0,rectangle_8,69,33,1,0,0,response1disk_7,6,3,11,6,1,0,0,rectangle_4,2,0,2,0,1,,,,,,,,,,,,,,,,,,,,,,,,,,,,,,,,,,,,,,,,,,,,,,,,,,,,,,,,,,,,,,,,,,,,,,,,,,,,,,,,,,,,,,,,,,,,,,,,,,,,,,,,,,,,,
,,,,,,60d333c3c400caf1dcdbe2a4,62c53a176609812547edd1e5,2022-07-06_09h31.53.601,Colour_Asymmetry_Pilot,2022.1.3,Win32,75.00187505,62c50e9c1127f2cd403a315f,,,,,,,,,,,,,,,,,,,"[-0.9766,-0.34920000000000007,0.2156]",threefour,"[-0.9844,-0.9688,-0.9922]",3,3.2122,76,31,1,0,0,response1disk_5,-5,-5,1,0,0,rectangle_8,-5,-5,1,0,0,,,3,-5,-5,1,0,0,,3,0,3,0,1,,,,,,,,,,,,,,,,,,,,,,,,,,,,,,,,,,,,,,,,,,,,,,,,,,,,,,,,,,,,,,,,,,,,,,,,,,,,,,,,,,,,,,,,,,,,,,,,,,,,,,,,,,,,,
,,,,,,60d333c3c400caf1dcdbe2a4,62c53a176609812547edd1e5,2022-07-06_09h31.53.601,Colour_Asymmetry_Pilot,2022.1.3,Win32,75.00187505,62c50e9c1127f2cd403a315f,,,,,,,,,,,,,,,,,,,"[-0.26280000000000003,-0.4746,-0.2158]",fourtwo,"[-0.6706000000000001,-0.6157999999999999,-0.6786]",4,2.9722,34,60,1,0,0,response1disk_5,-17,-12,1,0,0,rectangle_8,-17,-12,1,0,0,,,3,-17,-12,1,0,0,,4,0,4,0,1,,,,,,,,,,,,,,,,,,,,,,,,,,,,,,,,,,,,,,,,,,,,,,,,,,,,,,,,,,,,,,,,,,,,,,,,,,,,,,,,,,,,,,,,,,,,,,,,,,,,,,,,,,,,,
,,,,,,60d333c3c400caf1dcdbe2a4,62c53a176609812547edd1e5,2022-07-06_09h31.53.601,Colour_Asymmetry_Pilot,2022.1.3,Win32,75.00187505,62c50e9c1127f2cd403a315f,,,,,,,,,,,,,,,,,,,"[-0.2942,-0.24719999999999998,-0.357]",threeone,"[0.796,0.2156,-0.27859999999999996]",-2,1.6922,-74,-42,1,0,0,response5disk_5,11,5,1,0,0,rectangle_8,11,5,1,0,0,,,3,11,5,1,0,0,,5,0,5,0,1,,,,,,,,,,,,,,,,,,,,,,,,,,,,,,,,,,,,,,,,,,,,,,,,,,,,,,,,,,,,,,,,,,,,,,,,,,,,,,,,,,,,,,,,,,,,,,,,,,,,,,,,,,,,,
,,,,,,60d333c3c400caf1dcdbe2a4,62c53a176609812547edd1e5,2022-07-06_09h31.53.601,Colour_Asymmetry_Pilot,2022.1.3,Win32,75.00187505,62c50e9c1127f2cd403a315f,,,,,,,,,,,,,,,,,,,"[-0.17659999999999998,-0.2864,-0.8354]",twofour,"[-0.6,0.16860000000000008,0.44300000000000006]",-1,1.4657,-59,-87,1,0,0,response5disk_5,-8,3,1,0,0,rectangle_8,-8,3,1,0,0,,,3,-8,3,1,0,0,,6,0,6,0,1,,,,,,,,,,,,,,,,,,,,,,,,,,,,,,,,,,,,,,,,,,,,,,,,,,,,,,,,,,,,,,,,,,,,,,,,,,,,,,,,,,,,,,,,,,,,,,,,,,,,,,,,,,,,,
,,,,,,60d333c3c400caf1dcdbe2a4,62c53a176609812547edd1e5,2022-07-06_09h31.53.601,Colour_Asymmetry_Pilot,2022.1.3,Win32,75.00187505,62c50e9c1127f2cd403a315f,,,,,,,,,,,,,,,,,,,,onethree,,2,2.7885,,,,,,,,,,,,,,,,,,,,,,,,,,,,,,,,space,6.3793,"[0.4196,0.4665999999999999,0.3568]","[0.9686000000000001,0.5763999999999998,0.11359999999999992]",81,-50,1,0,0,response3disk,-22,9,1,0,0,rectangle,-22,9,1,0,0,,3,0.0043,0,-22,9,1,0,0,0,0,0,151,1,70,second,,,,,,,,,,,,,,,,,,,,,,,,,,,,,,,,,,,,,,,,,,,,,,,,,,,,,,,,,,,,,,,,,,,,,,,,
,,,,,,60d333c3c400caf1dcdbe2a4,62c53a176609812547edd1e5,2022-07-06_09h31.53.601,Colour_Asymmetry_Pilot,2022.1.3,Win32,75.00187505,62c50e9c1127f2cd403a315f,,,,,,,,,,,,,,,,,,,,twoone,,-2,1.2674,,,,,,,,,,,,,,,,,,,,,,,,,,,,,,,,,,"[-0.6,0.16860000000000008,0.44300000000000006]","[0.9686000000000001,0.5763999999999998,0.11359999999999992]",-75,-33,1,0,0,response5disk,-6,-12,1,0,0,rectangle,-6,-12,1,0,0,,3,9.99999E-05,0,-6,-12,1,0,0,0,1,1,152,1,71,second,,,,,,,,,,,,,,,,,,,,,,,,,,,,,,,,,,,,,,,,,,,,,,,,,,,,,,,,,,,,,,,,,,,,,,,,
,,,,,,60d333c3c400caf1dcdbe2a4,62c53a176609812547edd1e5,2022-07-06_09h31.53.601,Colour_Asymmetry_Pilot,2022.1.3,Win32,75.00187505,62c50e9c1127f2cd403a315f,,,,,,,,,,,,,,,,,,,,onethree,,3,1.0806,,,,,,,,,,,,,,,,,,,,,,,,,,,,,,,,,,"[-0.48240000000000005,0.3175999999999999,0.2156]","[-0.9688,-0.38039999999999996,-0.41979999999999995]",88,31,1,0,0,response1disk,6,-5,1,0,0,rectangle,54,-30,1,0,0,2,2,4.6252,1,5,2,1,0,0,0,2,2,55,1,55,first,response3disk_3,rectangle,,,,,,,,,,,,,,,,,,,,,,,,,,,,,,,,,,,,,,,,,,,,,,,,,,,,,,,,,,,,,,,,,,,,,,
,,,,,,60d333c3c400caf1dcdbe2a4,62c53a176609812547edd1e5,2022-07-06_09h31.53.601,Colour_Asymmetry_Pilot,2022.1.3,Win32,75.00187505,62c50e9c1127f2cd403a315f,,,,,,,,,,,,,,,,,,,,fourthree,,3,0.9851,,,,,,,,,,,,,,,,,,,,,,,,,,,,,,,,,,"[-0.4746,-0.0354000000000001,0.5449999999999999]","[-0.38039999999999996,-0.4276,-0.1452]",85,54,1,0,0,response1disk,-18,16,1,0,0,rectangle,-18,16,1,0,0,-3,3,0.0006,0,-18,16,1,0,0,0,3,3,48,1,48,first,,,,,,,,,,,,,,,,,,,,,,,,,,,,,,,,,,,,,,,,,,,,,,,,,,,,,,,,,,,,,,,,,,,,,,,,
,,,,,,60d333c3c400caf1dcdbe2a4,62c53a176609812547edd1e5,2022-07-06_09h31.53.601,Colour_Asymmetry_Pilot,2022.1.3,Win32,75.00187505,62c50e9c1127f2cd403a315f,,,,,,,,,,,,,,,,,,,,onetwo,,2,1.1365,,,,,,,,,,,,,,,,,,,,,,,,,,,,,,,,,,"[0.2862,0.7802,0.3568]","[-0.9138,-0.5296000000000001,-0.5529999999999999]",56,-32,1,0,0,response3disk,1,6,1,0,0,rectangle,1,6,1,0,0,-3,3,0.0002,0,1,6,1,0,0,0,4,4,112,1,31,second,,,,,,,,,,,,,,,,,,,,,,,,,,,,,,,,,,,,,,,,,,,,,,,,,,,,,,,,,,,,,,,,,,,,,,,,
,,,,,,60d333c3c400caf1dcdbe2a4,62c53a176609812547edd1e5,2022-07-06_09h31.53.601,Colour_Asymmetry_Pilot,2022.1.3,Win32,75.00187505,62c50e9c1127f2cd403a315f,,,,,,,,,,,,,,,,,,,,twofour,,-3,0.8664,,,,,,,,,,,,,,,,,,,,,,,,,,,,,,,,,,"[0.23120000000000007,-0.7726,-0.34120000000000006]","[0.19199999999999995,0.18419999999999992,0.5136000000000001]",-58,27,1,0,0,response7disk,-2,0,1,0,0,rectangle,-2,0,1,0,0,-3,1,0.0009,0,-2,0,1,0,0,0,5,5,116,1,35,second,,,,,,,,,,,,,,,,,,,,,,,,,,,,,,,,,,,,,,,,,,,,,,,,,,,,,,,,,,,,,,,,,,,,,,,,
,,,,,,60d333c3c400caf1dcdbe2a4,62c53a176609812547edd1e5,2022-07-06_09h31.53.601,Colour_Asymmetry_Pilot,2022.1.3,Win32,75.00187505,62c50e9c1127f2cd403a315f,,,,,,,,,,,,,,,,,,,,onethree,,2,1.7331,,,,,,,,,,,,,,,,,,,,,,,,,,,,,,,,,,"[0.40379999999999994,0.09000000000000008,0.44300000000000006]","[0.30180000000000007,-0.7884,-0.9844]",56,-42,1,0,0,response3disk,8,6,1,0,0,rectangle,8,6,1,0,0,-3,2,0.0015,0,8,6,1,0,0,0,6,6,140,1,59,second,,,,,,,,,,,,,,,,,,,,,,,,,,,,,,,,,,,,,,,,,,,,,,,,,,,,,,,,,,,,,,,,,,,,,,,,
,,,,,,60d333c3c400caf1dcdbe2a4,62c53a176609812547edd1e5,2022-07-06_09h31.53.601,Colour_Asymmetry_Pilot,2022.1.3,Win32,75.00187505,62c50e9c1127f2cd403a315f,,,,,,,,,,,,,,,,,,,,fourthree,,3,1.3193,,,,,,,,,,,,,,,,,,,,,,,,,,,,,,,,,,"[0.3568,-0.20799999999999996,-0.9844]","[-0.9138,-0.5296000000000001,-0.5529999999999999]",58,32,1,0,0,response1disk,-10,-10,1,0,0,rectangle,-10,-10,1,0,0,-3,2,9.99999E-05,0,-10,-10,1,0,0,0,7,7,87,1,6,second,,,,,,,,,,,,,,,,,,,,,,,,,,,,,,,,,,,,,,,,,,,,,,,,,,,,,,,,,,,,,,,,,,,,,,,,
,,,,,,60d333c3c400caf1dcdbe2a4,62c53a176609812547edd1e5,2022-07-06_09h31.53.601,Colour_Asymmetry_Pilot,2022.1.3,Win32,75.00187505,62c50e9c1127f2cd403a315f,,,,,,,,,,,,,,,,,,,,threeone,,-1,1.1864,,,,,,,,,,,,,,,,,,,,,,,,,,,,,,,,,,"[0.5528,0.7409999999999999,-0.71]","[-0.5922000000000001,-0.7492000000000001,-0.5296000000000001]",-38,-80,1,0,0,response5disk,-11,-6,1,0,0,rectangle,-11,-6,1,0,0,-3,3,0.0009,0,-11,-6,1,0,0,0,8,8,18,1,18,first,,,,,,,,,,,,,,,,,,,,,,,,,,,,,,,,,,,,,,,,,,,,,,,,,,,,,,,,,,,,,,,,,,,,,,,,
,,,,,,60d333c3c400caf1dcdbe2a4,62c53a176609812547edd1e5,2022-07-06_09h31.53.601,Colour_Asymmetry_Pilot,2022.1.3,Win32,75.00187505,62c50e9c1127f2cd403a315f,,,,,,,,,,,,,,,,,,,,twofour,,3,1.8248,,,,,,,,,,,,,,,,,,,,,,,,,,,,,,,,,,"[0.23120000000000007,-0.7726,-0.34120000000000006]","[0.40379999999999994,0.09000000000000008,0.44300000000000006]",65,25,1,0,0,response1disk,0,7,1,0,0,rectangle,0,7,1,0,0,-3,2,0.0009,0,0,7,1,0,0,0,9,9,5,1,5,first,,,,,,,,,,,,,,,,,,,,,,,,,,,,,,,,,,,,,,,,,,,,,,,,,,,,,,,,,,,,,,,,,,,,,,,,
,,,,,,60d333c3c400caf1dcdbe2a4,62c53a176609812547edd1e5,2022-07-06_09h31.53.601,Colour_Asymmetry_Pilot,2022.1.3,Win32,75.00187505,62c50e9c1127f2cd403a315f,,,,,,,,,,,,,,,,,,,,threeone,,-1,1.5329,,,,,,,,,,,,,,,,,,,,,,,,,,,,,,,,,,"[-0.9138,-0.5296000000000001,-0.5529999999999999]","[0.22340000000000004,-0.9296,-0.7884]",-32,-76,1,0,0,response5disk,2,-1,1,0,0,rectangle,2,-1,1,0,0,-3,2,0.0002,0,2,-1,1,0,0,0,10,10,43,1,43,first,,,,,,,,,,,,,,,,,,,,,,,,,,,,,,,,,,,,,,,,,,,,,,,,,,,,,,,,,,,,,,,,,,,,,,,,
,,,,,,60d333c3c400caf1dcdbe2a4,62c53a176609812547edd1e5,2022-07-06_09h31.53.601,Colour_Asymmetry_Pilot,2022.1.3,Win32,75.00187505,62c50e9c1127f2cd403a315f,,,,,,,,,,,,,,,,,,,,threefour,,-2,1.4795,,,,,,,,,,,,,,,,,,,,,,,,,,,,,,,,,,"[0.5528,0.7409999999999999,-0.71]","[0.04299999999999993,0.16060000000000008,-0.6628000000000001]",-73,-36,1,0,0,response5disk,25,7,1,0,0,rectangle,25,7,1,0,0,-3,2,0.0002,0,25,7,1,0,0,0,11,11,72,1,72,first,,,,,,,,,,,,,,,,,,,,,,,,,,,,,,,,,,,,,,,,,,,,,,,,,,,,,,,,,,,,,,,,,,,,,,,,
,,,,,,60d333c3c400caf1dcdbe2a4,62c53a176609812547edd1e5,2022-07-06_09h31.53.601,Colour_Asymmetry_Pilot,2022.1.3,Win32,75.00187505,62c50e9c1127f2cd403a315f,,,,,,,,,,,,,,,,,,,,onetwo,,3,0.8941,,,,,,,,,,,,,,,,,,,,,,,,,,,,,,,,,,"[-0.24719999999999998,-0.0354000000000001,0.3175999999999999]","[-0.9138,-0.5296000000000001,-0.5529999999999999]",65,28,1,0,0,response1disk,17,8,1,0,0,rectangle,17,8,1,0,0,-3,3,0.0006,0,17,8,1,0,0,0,12,12,158,1,77,second,,,,,,,,,,,,,,,,,,,,,,,,,,,,,,,,,,,,,,,,,,,,,,,,,,,,,,,,,,,,,,,,,,,,,,,,
,,,,,,60d333c3c400caf1dcdbe2a4,62c53a176609812547edd1e5,2022-07-06_09h31.53.601,Colour_Asymmetry_Pilot,2022.1.3,Win32,75.00187505,62c50e9c1127f2cd403a315f,,,,,,,,,,,,,,,,,,,,fourthree,,-1,0.9072,,,,,,,,,,,,,,,,,,,,,,,,,,,,,,,,,,"[-0.9844,-0.9688,-0.9922]","[0.34099999999999997,0.5841999999999998,-0.9844]",-26,-54,1,0,0,response5disk,-8,2,1,0,0,rectangle,-8,2,1,0,0,-3,2,0.001,0,-8,2,1,0,0,0,13,13,12,1,12,first,,,,,,,,,,,,,,,,,,,,,,,,,,,,,,,,,,,,,,,,,,,,,,,,,,,,,,,,,,,,,,,,,,,,,,,,
,,,,,,60d333c3c400caf1dcdbe2a4,62c53a176609812547edd1e5,2022-07-06_09h31.53.601,Colour_Asymmetry_Pilot,2022.1.3,Win32,75.00187505,62c50e9c1127f2cd403a315f,,,,,,,,,,,,,,,,,,,,twoone,,1,0.9737,,,,,,,,,,,,,,,,,,,,,,,,,,,,,,,,,,"[-0.09019999999999995,0.44300000000000006,0.5371999999999999]","[-0.2942,-0.7648,-0.7492000000000001]",36,-70,1,0,0,response3disk,21,-3,1,0,0,rectangle,21,-3,1,0,0,-3,1,0.0008,0,21,-3,1,0,0,0,14,14,29,1,29,first,,,,,,,,,,,,,,,,,,,,,,,,,,,,,,,,,,,,,,,,,,,,,,,,,,,,,,,,,,,,,,,,,,,,,,,,
,,,,,,60d333c3c400caf1dcdbe2a4,62c53a176609812547edd1e5,2022-07-06_09h31.53.601,Colour_Asymmetry_Pilot,2022.1.3,Win32,75.00187505,62c50e9c1127f2cd403a315f,,,,,,,,,,,,,,,,,,,,twofour,,-2,1.2395,,,,,,,,,,,,,,,,,,,,,,,,,,,,,,,,,,"[-0.10599999999999998,-0.15300000000000002,0.15280000000000005]","[0.3568,-0.20799999999999996,-0.9844]",-54,-40,1,0,0,response5disk,12,-8,1,0,0,rectangle,12,-8,1,0,0,-3,2,0.0008,0,12,-8,1,0,0,0,15,15,109,1,28,second,,,,,,,,,,,,,,,,,,,,,,,,,,,,,,,,,,,,,,,,,,,,,,,,,,,,,,,,,,,,,,,,,,,,,,,,
,,,,,,60d333c3c400caf1dcdbe2a4,62c53a176609812547edd1e5,2022-07-06_09h31.53.601,Colour_Asymmetry_Pilot,2022.1.3,Win32,75.00187505,62c50e9c1127f2cd403a315f,,,,,,,,,,,,,,,,,,,,threeone,,1,0.492,,,,,,,,,,,,,,,,,,,,,,,,,,,,,,,,,,"[0.6625999999999999,0.4980000000000002,-0.357]","[0.0351999999999999,0.41159999999999997,0.0038000000000000256]",27,-65,1,0,0,response3disk,2,-11,1,0,0,rectangle,2,-11,1,0,0,-3,3,0.0006,0,2,-11,1,0,0,0,16,16,39,1,39,first,,,,,,,,,,,,,,,,,,,,,,,,,,,,,,,,,,,,,,,,,,,,,,,,,,,,,,,,,,,,,,,,,,,,,,,,
,,,,,,60d333c3c400caf1dcdbe2a4,62c53a176609812547edd1e5,2022-07-06_09h31.53.601,Colour_Asymmetry_Pilot,2022.1.3,Win32,75.00187505,62c50e9c1127f2cd403a315f,,,,,,,,,,,,,,,,,,,,twofour,,-3,1.0248,,,,,,,,,,,,,,,,,,,,,,,,,,,,,,,,,,"[0.0351999999999999,0.41159999999999997,0.0038000000000000256]","[0.6625999999999999,0.4980000000000002,-0.357]",-66,26,1,0,0,response7disk,3,0,1,0,0,rectangle,3,0,1,0,0,-3,1,0.0006,0,3,0,1,0,0,0,17,17,120,1,39,second,,,,,,,,,,,,,,,,,,,,,,,,,,,,,,,,,,,,,,,,,,,,,,,,,,,,,,,,,,,,,,,,,,,,,,,,
