trials.thisRepN,trials.thisTrialN,trials.thisN,trials.thisIndex,trials.ran,Colourcodes,participant,session,date,expName,psychopyVersion,OS,frameRate,study_id,trials_4.thisRepN,trials_4.thisTrialN,trials_4.thisN,trials_4.thisIndex,trials_4.ran,StimulusPos,key_resp.keys,key_resp.rt,key_resp_2.keys,key_resp_2.rt,key_resp_15.keys,key_resp_15.rt,key_resp_17.keys,key_resp_17.rt,key_resp_9.keys,key_resp_9.rt,key_resp_10.keys,key_resp_10.rt,Circle1_col,Ecc,Circle2_col,similarity,response_time,mouse_5.x,mouse_5.y,mouse_5.leftButton,mouse_5.midButton,mouse_5.rightButton,mouse_5.clicked_name,mouse_10.x,mouse_10.y,mouse_10.leftButton,mouse_10.midButton,mouse_10.rightButton,mouse_10.clicked_name,mouse_7.x,mouse_7.y,mouse_7.leftButton,mouse_7.midButton,mouse_7.rightButton,catchnumberprac,mouse_6.x,mouse_6.y,mouse_6.leftButton,mouse_6.midButton,mouse_6.rightButton,duringprac.thisRepN,duringprac.thisTrialN,duringprac.thisN,duringprac.thisIndex,duringprac.ran,mouse_7.clicked_name,catchprac,mouse_6.clicked_name,key_resp_22.keys,key_resp_22.rt,Circle1_colour,Circle2_colour,mouse.x,mouse.y,mouse.leftButton,mouse.midButton,mouse.rightButton,mouse.clicked_name,mouse_2.x,mouse_2.y,mouse_2.leftButton,mouse_2.midButton,mouse_2.rightButton,mouse_2.clicked_name,mouse_3.x,mouse_3.y,mouse_3.leftButton,mouse_3.midButton,mouse_3.rightButton,catchresponse,catchnumber,response_time_catch,Catch,mouse_11.x,mouse_11.y,mouse_11.leftButton,mouse_11.midButton,mouse_11.rightButton,trials_2.thisRepN,trials_2.thisTrialN,trials_2.thisN,trials_2.thisIndex,trials_2.ran,Colourpair,Temporder,mouse_3.clicked_name,mouse_11.clicked_name,trials_3.thisRepN,trials_3.thisTrialN,trials_3.thisN,trials_3.thisIndex,trials_3.ran,key_resp_instr_Ishi.keys,key_resp_instr_Ishi.rt,Ishi_trial_keyresp.keys,Ishi_textbox.text,Ishi_mouse.x,Ishi_mouse.y,Ishi_mouse.leftButton,Ishi_mouse.midButton,Ishi_mouse.rightButton,Ishi_mouse.clicked_name,Ishi_loop.thisRepN,Ishi_loop.thisTrialN,Ishi_loop.thisN,Ishi_loop.thisIndex,Ishi_loop.ran,imageaddress,textbox.text,mouse_4.x,mouse_4.y,mouse_4.leftButton,mouse_4.midButton,mouse_4.rightButton,mouse_4.clicked_name,textbox_2.text,mouse_8.x,mouse_8.y,mouse_8.leftButton,mouse_8.midButton,mouse_8.rightButton,mouse_8.clicked_name,textbox_3.text,mouse_9.x,mouse_9.y,mouse_9.leftButton,mouse_9.midButton,mouse_9.rightButton,mouse_9.clicked_name,textbox_4.text,mouse_12.x,mouse_12.y,mouse_12.leftButton,mouse_12.midButton,mouse_12.rightButton,mouse_12.clicked_name,textbox_5.text,mouse_13.x,mouse_13.y,mouse_13.leftButton,mouse_13.midButton,mouse_13.rightButton,mouse_13.clicked_name,textbox_6.text,mouse_14.x,mouse_14.y,mouse_14.leftButton,mouse_14.midButton,mouse_14.rightButton,mouse_14.clicked_name,textbox_7.text,mouse_15.x,mouse_15.y,mouse_15.leftButton,mouse_15.midButton,mouse_15.rightButton,mouse_15.clicked_name
0,0,0,26,1,,615c6b6db80030c2df00f6b7,62c5561eb3080155d5c495a6,2022-07-06_10h30.20.119,Colour_Asymmetry_Pilot,2022.1.3,MacIntel,59.99880002,62c50e9c1127f2cd403a315f,,,,,,,,,,,,,,,,,,,,,,,,,,,,,,,,,,,,,,,,,,,,,,,,,,,,,,,,,,,,,,,,,,,,,,,,,,,,,,,,,,,,,,,,,,,,,,,,,,,,,,,,,,,,,,,,,,,,,,,,,,,,,,,,,,,,,,,,,,,,,,,,,,,,,,,,,,,,,,,,,,,
0,1,1,9,1,,615c6b6db80030c2df00f6b7,62c5561eb3080155d5c495a6,2022-07-06_10h30.20.119,Colour_Asymmetry_Pilot,2022.1.3,MacIntel,59.99880002,62c50e9c1127f2cd403a315f,,,,,,,,,,,,,,,,,,,,,,,,,,,,,,,,,,,,,,,,,,,,,,,,,,,,,,,,,,,,,,,,,,,,,,,,,,,,,,,,,,,,,,,,,,,,,,,,,,,,,,,,,,,,,,,,,,,,,,,,,,,,,,,,,,,,,,,,,,,,,,,,,,,,,,,,,,,,,,,,,,,
0,2,2,43,1,,615c6b6db80030c2df00f6b7,62c5561eb3080155d5c495a6,2022-07-06_10h30.20.119,Colour_Asymmetry_Pilot,2022.1.3,MacIntel,59.99880002,62c50e9c1127f2cd403a315f,,,,,,,,,,,,,,,,,,,,,,,,,,,,,,,,,,,,,,,,,,,,,,,,,,,,,,,,,,,,,,,,,,,,,,,,,,,,,,,,,,,,,,,,,,,,,,,,,,,,,,,,,,,,,,,,,,,,,,,,,,,,,,,,,,,,,,,,,,,,,,,,,,,,,,,,,,,,,,,,,,,
0,3,3,77,1,,615c6b6db80030c2df00f6b7,62c5561eb3080155d5c495a6,2022-07-06_10h30.20.119,Colour_Asymmetry_Pilot,2022.1.3,MacIntel,59.99880002,62c50e9c1127f2cd403a315f,,,,,,,,,,,,,,,,,,,,,,,,,,,,,,,,,,,,,,,,,,,,,,,,,,,,,,,,,,,,,,,,,,,,,,,,,,,,,,,,,,,,,,,,,,,,,,,,,,,,,,,,,,,,,,,,,,,,,,,,,,,,,,,,,,,,,,,,,,,,,,,,,,,,,,,,,,,,,,,,,,,
0,4,4,54,1,,615c6b6db80030c2df00f6b7,62c5561eb3080155d5c495a6,2022-07-06_10h30.20.119,Colour_Asymmetry_Pilot,2022.1.3,MacIntel,59.99880002,62c50e9c1127f2cd403a315f,,,,,,,,,,,,,,,,,,,,,,,,,,,,,,,,,,,,,,,,,,,,,,,,,,,,,,,,,,,,,,,,,,,,,,,,,,,,,,,,,,,,,,,,,,,,,,,,,,,,,,,,,,,,,,,,,,,,,,,,,,,,,,,,,,,,,,,,,,,,,,,,,,,,,,,,,,,,,,,,,,,
0,5,5,39,1,,615c6b6db80030c2df00f6b7,62c5561eb3080155d5c495a6,2022-07-06_10h30.20.119,Colour_Asymmetry_Pilot,2022.1.3,MacIntel,59.99880002,62c50e9c1127f2cd403a315f,,,,,,,,,,,,,,,,,,,,,,,,,,,,,,,,,,,,,,,,,,,,,,,,,,,,,,,,,,,,,,,,,,,,,,,,,,,,,,,,,,,,,,,,,,,,,,,,,,,,,,,,,,,,,,,,,,,,,,,,,,,,,,,,,,,,,,,,,,,,,,,,,,,,,,,,,,,,,,,,,,,
0,6,6,78,1,,615c6b6db80030c2df00f6b7,62c5561eb3080155d5c495a6,2022-07-06_10h30.20.119,Colour_Asymmetry_Pilot,2022.1.3,MacIntel,59.99880002,62c50e9c1127f2cd403a315f,,,,,,,,,,,,,,,,,,,,,,,,,,,,,,,,,,,,,,,,,,,,,,,,,,,,,,,,,,,,,,,,,,,,,,,,,,,,,,,,,,,,,,,,,,,,,,,,,,,,,,,,,,,,,,,,,,,,,,,,,,,,,,,,,,,,,,,,,,,,,,,,,,,,,,,,,,,,,,,,,,,
0,7,7,86,1,,615c6b6db80030c2df00f6b7,62c5561eb3080155d5c495a6,2022-07-06_10h30.20.119,Colour_Asymmetry_Pilot,2022.1.3,MacIntel,59.99880002,62c50e9c1127f2cd403a315f,,,,,,,,,,,,,,,,,,,,,,,,,,,,,,,,,,,,,,,,,,,,,,,,,,,,,,,,,,,,,,,,,,,,,,,,,,,,,,,,,,,,,,,,,,,,,,,,,,,,,,,,,,,,,,,,,,,,,,,,,,,,,,,,,,,,,,,,,,,,,,,,,,,,,,,,,,,,,,,,,,,
0,8,8,57,1,,615c6b6db80030c2df00f6b7,62c5561eb3080155d5c495a6,2022-07-06_10h30.20.119,Colour_Asymmetry_Pilot,2022.1.3,MacIntel,59.99880002,62c50e9c1127f2cd403a315f,,,,,,,,,,,,,,,,,,,,,,,,,,,,,,,,,,,,,,,,,,,,,,,,,,,,,,,,,,,,,,,,,,,,,,,,,,,,,,,,,,,,,,,,,,,,,,,,,,,,,,,,,,,,,,,,,,,,,,,,,,,,,,,,,,,,,,,,,,,,,,,,,,,,,,,,,,,,,,,,,,,
0,9,9,67,1,,615c6b6db80030c2df00f6b7,62c5561eb3080155d5c495a6,2022-07-06_10h30.20.119,Colour_Asymmetry_Pilot,2022.1.3,MacIntel,59.99880002,62c50e9c1127f2cd403a315f,,,,,,,,,,,,,,,,,,,,,,,,,,,,,,,,,,,,,,,,,,,,,,,,,,,,,,,,,,,,,,,,,,,,,,,,,,,,,,,,,,,,,,,,,,,,,,,,,,,,,,,,,,,,,,,,,,,,,,,,,,,,,,,,,,,,,,,,,,,,,,,,,,,,,,,,,,,,,,,,,,,
0,10,10,8,1,,615c6b6db80030c2df00f6b7,62c5561eb3080155d5c495a6,2022-07-06_10h30.20.119,Colour_Asymmetry_Pilot,2022.1.3,MacIntel,59.99880002,62c50e9c1127f2cd403a315f,,,,,,,,,,,,,,,,,,,,,,,,,,,,,,,,,,,,,,,,,,,,,,,,,,,,,,,,,,,,,,,,,,,,,,,,,,,,,,,,,,,,,,,,,,,,,,,,,,,,,,,,,,,,,,,,,,,,,,,,,,,,,,,,,,,,,,,,,,,,,,,,,,,,,,,,,,,,,,,,,,,
0,11,11,79,1,,615c6b6db80030c2df00f6b7,62c5561eb3080155d5c495a6,2022-07-06_10h30.20.119,Colour_Asymmetry_Pilot,2022.1.3,MacIntel,59.99880002,62c50e9c1127f2cd403a315f,,,,,,,,,,,,,,,,,,,,,,,,,,,,,,,,,,,,,,,,,,,,,,,,,,,,,,,,,,,,,,,,,,,,,,,,,,,,,,,,,,,,,,,,,,,,,,,,,,,,,,,,,,,,,,,,,,,,,,,,,,,,,,,,,,,,,,,,,,,,,,,,,,,,,,,,,,,,,,,,,,,
0,12,12,52,1,,615c6b6db80030c2df00f6b7,62c5561eb3080155d5c495a6,2022-07-06_10h30.20.119,Colour_Asymmetry_Pilot,2022.1.3,MacIntel,59.99880002,62c50e9c1127f2cd403a315f,,,,,,,,,,,,,,,,,,,,,,,,,,,,,,,,,,,,,,,,,,,,,,,,,,,,,,,,,,,,,,,,,,,,,,,,,,,,,,,,,,,,,,,,,,,,,,,,,,,,,,,,,,,,,,,,,,,,,,,,,,,,,,,,,,,,,,,,,,,,,,,,,,,,,,,,,,,,,,,,,,,
0,13,13,38,1,,615c6b6db80030c2df00f6b7,62c5561eb3080155d5c495a6,2022-07-06_10h30.20.119,Colour_Asymmetry_Pilot,2022.1.3,MacIntel,59.99880002,62c50e9c1127f2cd403a315f,,,,,,,,,,,,,,,,,,,,,,,,,,,,,,,,,,,,,,,,,,,,,,,,,,,,,,,,,,,,,,,,,,,,,,,,,,,,,,,,,,,,,,,,,,,,,,,,,,,,,,,,,,,,,,,,,,,,,,,,,,,,,,,,,,,,,,,,,,,,,,,,,,,,,,,,,,,,,,,,,,,
0,14,14,85,1,,615c6b6db80030c2df00f6b7,62c5561eb3080155d5c495a6,2022-07-06_10h30.20.119,Colour_Asymmetry_Pilot,2022.1.3,MacIntel,59.99880002,62c50e9c1127f2cd403a315f,,,,,,,,,,,,,,,,,,,,,,,,,,,,,,,,,,,,,,,,,,,,,,,,,,,,,,,,,,,,,,,,,,,,,,,,,,,,,,,,,,,,,,,,,,,,,,,,,,,,,,,,,,,,,,,,,,,,,,,,,,,,,,,,,,,,,,,,,,,,,,,,,,,,,,,,,,,,,,,,,,,
0,15,15,47,1,,615c6b6db80030c2df00f6b7,62c5561eb3080155d5c495a6,2022-07-06_10h30.20.119,Colour_Asymmetry_Pilot,2022.1.3,MacIntel,59.99880002,62c50e9c1127f2cd403a315f,,,,,,,,,,,,,,,,,,,,,,,,,,,,,,,,,,,,,,,,,,,,,,,,,,,,,,,,,,,,,,,,,,,,,,,,,,,,,,,,,,,,,,,,,,,,,,,,,,,,,,,,,,,,,,,,,,,,,,,,,,,,,,,,,,,,,,,,,,,,,,,,,,,,,,,,,,,,,,,,,,,
0,16,16,58,1,,615c6b6db80030c2df00f6b7,62c5561eb3080155d5c495a6,2022-07-06_10h30.20.119,Colour_Asymmetry_Pilot,2022.1.3,MacIntel,59.99880002,62c50e9c1127f2cd403a315f,,,,,,,,,,,,,,,,,,,,,,,,,,,,,,,,,,,,,,,,,,,,,,,,,,,,,,,,,,,,,,,,,,,,,,,,,,,,,,,,,,,,,,,,,,,,,,,,,,,,,,,,,,,,,,,,,,,,,,,,,,,,,,,,,,,,,,,,,,,,,,,,,,,,,,,,,,,,,,,,,,,
0,17,17,0,1,,615c6b6db80030c2df00f6b7,62c5561eb3080155d5c495a6,2022-07-06_10h30.20.119,Colour_Asymmetry_Pilot,2022.1.3,MacIntel,59.99880002,62c50e9c1127f2cd403a315f,,,,,,,,,,,,,,,,,,,,,,,,,,,,,,,,,,,,,,,,,,,,,,,,,,,,,,,,,,,,,,,,,,,,,,,,,,,,,,,,,,,,,,,,,,,,,,,,,,,,,,,,,,,,,,,,,,,,,,,,,,,,,,,,,,,,,,,,,,,,,,,,,,,,,,,,,,,,,,,,,,,
0,18,18,33,1,,615c6b6db80030c2df00f6b7,62c5561eb3080155d5c495a6,2022-07-06_10h30.20.119,Colour_Asymmetry_Pilot,2022.1.3,MacIntel,59.99880002,62c50e9c1127f2cd403a315f,,,,,,,,,,,,,,,,,,,,,,,,,,,,,,,,,,,,,,,,,,,,,,,,,,,,,,,,,,,,,,,,,,,,,,,,,,,,,,,,,,,,,,,,,,,,,,,,,,,,,,,,,,,,,,,,,,,,,,,,,,,,,,,,,,,,,,,,,,,,,,,,,,,,,,,,,,,,,,,,,,,
0,19,19,56,1,,615c6b6db80030c2df00f6b7,62c5561eb3080155d5c495a6,2022-07-06_10h30.20.119,Colour_Asymmetry_Pilot,2022.1.3,MacIntel,59.99880002,62c50e9c1127f2cd403a315f,,,,,,,,,,,,,,,,,,,,,,,,,,,,,,,,,,,,,,,,,,,,,,,,,,,,,,,,,,,,,,,,,,,,,,,,,,,,,,,,,,,,,,,,,,,,,,,,,,,,,,,,,,,,,,,,,,,,,,,,,,,,,,,,,,,,,,,,,,,,,,,,,,,,,,,,,,,,,,,,,,,
0,20,20,74,1,,615c6b6db80030c2df00f6b7,62c5561eb3080155d5c495a6,2022-07-06_10h30.20.119,Colour_Asymmetry_Pilot,2022.1.3,MacIntel,59.99880002,62c50e9c1127f2cd403a315f,,,,,,,,,,,,,,,,,,,,,,,,,,,,,,,,,,,,,,,,,,,,,,,,,,,,,,,,,,,,,,,,,,,,,,,,,,,,,,,,,,,,,,,,,,,,,,,,,,,,,,,,,,,,,,,,,,,,,,,,,,,,,,,,,,,,,,,,,,,,,,,,,,,,,,,,,,,,,,,,,,,
0,21,21,17,1,,615c6b6db80030c2df00f6b7,62c5561eb3080155d5c495a6,2022-07-06_10h30.20.119,Colour_Asymmetry_Pilot,2022.1.3,MacIntel,59.99880002,62c50e9c1127f2cd403a315f,,,,,,,,,,,,,,,,,,,,,,,,,,,,,,,,,,,,,,,,,,,,,,,,,,,,,,,,,,,,,,,,,,,,,,,,,,,,,,,,,,,,,,,,,,,,,,,,,,,,,,,,,,,,,,,,,,,,,,,,,,,,,,,,,,,,,,,,,,,,,,,,,,,,,,,,,,,,,,,,,,,
0,22,22,31,1,,615c6b6db80030c2df00f6b7,62c5561eb3080155d5c495a6,2022-07-06_10h30.20.119,Colour_Asymmetry_Pilot,2022.1.3,MacIntel,59.99880002,62c50e9c1127f2cd403a315f,,,,,,,,,,,,,,,,,,,,,,,,,,,,,,,,,,,,,,,,,,,,,,,,,,,,,,,,,,,,,,,,,,,,,,,,,,,,,,,,,,,,,,,,,,,,,,,,,,,,,,,,,,,,,,,,,,,,,,,,,,,,,,,,,,,,,,,,,,,,,,,,,,,,,,,,,,,,,,,,,,,
0,23,23,48,1,,615c6b6db80030c2df00f6b7,62c5561eb3080155d5c495a6,2022-07-06_10h30.20.119,Colour_Asymmetry_Pilot,2022.1.3,MacIntel,59.99880002,62c50e9c1127f2cd403a315f,,,,,,,,,,,,,,,,,,,,,,,,,,,,,,,,,,,,,,,,,,,,,,,,,,,,,,,,,,,,,,,,,,,,,,,,,,,,,,,,,,,,,,,,,,,,,,,,,,,,,,,,,,,,,,,,,,,,,,,,,,,,,,,,,,,,,,,,,,,,,,,,,,,,,,,,,,,,,,,,,,,
0,24,24,41,1,,615c6b6db80030c2df00f6b7,62c5561eb3080155d5c495a6,2022-07-06_10h30.20.119,Colour_Asymmetry_Pilot,2022.1.3,MacIntel,59.99880002,62c50e9c1127f2cd403a315f,,,,,,,,,,,,,,,,,,,,,,,,,,,,,,,,,,,,,,,,,,,,,,,,,,,,,,,,,,,,,,,,,,,,,,,,,,,,,,,,,,,,,,,,,,,,,,,,,,,,,,,,,,,,,,,,,,,,,,,,,,,,,,,,,,,,,,,,,,,,,,,,,,,,,,,,,,,,,,,,,,,
0,25,25,4,1,,615c6b6db80030c2df00f6b7,62c5561eb3080155d5c495a6,2022-07-06_10h30.20.119,Colour_Asymmetry_Pilot,2022.1.3,MacIntel,59.99880002,62c50e9c1127f2cd403a315f,,,,,,,,,,,,,,,,,,,,,,,,,,,,,,,,,,,,,,,,,,,,,,,,,,,,,,,,,,,,,,,,,,,,,,,,,,,,,,,,,,,,,,,,,,,,,,,,,,,,,,,,,,,,,,,,,,,,,,,,,,,,,,,,,,,,,,,,,,,,,,,,,,,,,,,,,,,,,,,,,,,
0,26,26,5,1,,615c6b6db80030c2df00f6b7,62c5561eb3080155d5c495a6,2022-07-06_10h30.20.119,Colour_Asymmetry_Pilot,2022.1.3,MacIntel,59.99880002,62c50e9c1127f2cd403a315f,,,,,,,,,,,,,,,,,,,,,,,,,,,,,,,,,,,,,,,,,,,,,,,,,,,,,,,,,,,,,,,,,,,,,,,,,,,,,,,,,,,,,,,,,,,,,,,,,,,,,,,,,,,,,,,,,,,,,,,,,,,,,,,,,,,,,,,,,,,,,,,,,,,,,,,,,,,,,,,,,,,
0,27,27,73,1,,615c6b6db80030c2df00f6b7,62c5561eb3080155d5c495a6,2022-07-06_10h30.20.119,Colour_Asymmetry_Pilot,2022.1.3,MacIntel,59.99880002,62c50e9c1127f2cd403a315f,,,,,,,,,,,,,,,,,,,,,,,,,,,,,,,,,,,,,,,,,,,,,,,,,,,,,,,,,,,,,,,,,,,,,,,,,,,,,,,,,,,,,,,,,,,,,,,,,,,,,,,,,,,,,,,,,,,,,,,,,,,,,,,,,,,,,,,,,,,,,,,,,,,,,,,,,,,,,,,,,,,
0,28,28,92,1,,615c6b6db80030c2df00f6b7,62c5561eb3080155d5c495a6,2022-07-06_10h30.20.119,Colour_Asymmetry_Pilot,2022.1.3,MacIntel,59.99880002,62c50e9c1127f2cd403a315f,,,,,,,,,,,,,,,,,,,,,,,,,,,,,,,,,,,,,,,,,,,,,,,,,,,,,,,,,,,,,,,,,,,,,,,,,,,,,,,,,,,,,,,,,,,,,,,,,,,,,,,,,,,,,,,,,,,,,,,,,,,,,,,,,,,,,,,,,,,,,,,,,,,,,,,,,,,,,,,,,,,
0,29,29,21,1,,615c6b6db80030c2df00f6b7,62c5561eb3080155d5c495a6,2022-07-06_10h30.20.119,Colour_Asymmetry_Pilot,2022.1.3,MacIntel,59.99880002,62c50e9c1127f2cd403a315f,,,,,,,,,,,,,,,,,,,,,,,,,,,,,,,,,,,,,,,,,,,,,,,,,,,,,,,,,,,,,,,,,,,,,,,,,,,,,,,,,,,,,,,,,,,,,,,,,,,,,,,,,,,,,,,,,,,,,,,,,,,,,,,,,,,,,,,,,,,,,,,,,,,,,,,,,,,,,,,,,,,
0,30,30,18,1,,615c6b6db80030c2df00f6b7,62c5561eb3080155d5c495a6,2022-07-06_10h30.20.119,Colour_Asymmetry_Pilot,2022.1.3,MacIntel,59.99880002,62c50e9c1127f2cd403a315f,,,,,,,,,,,,,,,,,,,,,,,,,,,,,,,,,,,,,,,,,,,,,,,,,,,,,,,,,,,,,,,,,,,,,,,,,,,,,,,,,,,,,,,,,,,,,,,,,,,,,,,,,,,,,,,,,,,,,,,,,,,,,,,,,,,,,,,,,,,,,,,,,,,,,,,,,,,,,,,,,,,
0,31,31,71,1,,615c6b6db80030c2df00f6b7,62c5561eb3080155d5c495a6,2022-07-06_10h30.20.119,Colour_Asymmetry_Pilot,2022.1.3,MacIntel,59.99880002,62c50e9c1127f2cd403a315f,,,,,,,,,,,,,,,,,,,,,,,,,,,,,,,,,,,,,,,,,,,,,,,,,,,,,,,,,,,,,,,,,,,,,,,,,,,,,,,,,,,,,,,,,,,,,,,,,,,,,,,,,,,,,,,,,,,,,,,,,,,,,,,,,,,,,,,,,,,,,,,,,,,,,,,,,,,,,,,,,,,
0,32,32,27,1,,615c6b6db80030c2df00f6b7,62c5561eb3080155d5c495a6,2022-07-06_10h30.20.119,Colour_Asymmetry_Pilot,2022.1.3,MacIntel,59.99880002,62c50e9c1127f2cd403a315f,,,,,,,,,,,,,,,,,,,,,,,,,,,,,,,,,,,,,,,,,,,,,,,,,,,,,,,,,,,,,,,,,,,,,,,,,,,,,,,,,,,,,,,,,,,,,,,,,,,,,,,,,,,,,,,,,,,,,,,,,,,,,,,,,,,,,,,,,,,,,,,,,,,,,,,,,,,,,,,,,,,
0,33,33,90,1,,615c6b6db80030c2df00f6b7,62c5561eb3080155d5c495a6,2022-07-06_10h30.20.119,Colour_Asymmetry_Pilot,2022.1.3,MacIntel,59.99880002,62c50e9c1127f2cd403a315f,,,,,,,,,,,,,,,,,,,,,,,,,,,,,,,,,,,,,,,,,,,,,,,,,,,,,,,,,,,,,,,,,,,,,,,,,,,,,,,,,,,,,,,,,,,,,,,,,,,,,,,,,,,,,,,,,,,,,,,,,,,,,,,,,,,,,,,,,,,,,,,,,,,,,,,,,,,,,,,,,,,
0,34,34,36,1,,615c6b6db80030c2df00f6b7,62c5561eb3080155d5c495a6,2022-07-06_10h30.20.119,Colour_Asymmetry_Pilot,2022.1.3,MacIntel,59.99880002,62c50e9c1127f2cd403a315f,,,,,,,,,,,,,,,,,,,,,,,,,,,,,,,,,,,,,,,,,,,,,,,,,,,,,,,,,,,,,,,,,,,,,,,,,,,,,,,,,,,,,,,,,,,,,,,,,,,,,,,,,,,,,,,,,,,,,,,,,,,,,,,,,,,,,,,,,,,,,,,,,,,,,,,,,,,,,,,,,,,
0,35,35,6,1,,615c6b6db80030c2df00f6b7,62c5561eb3080155d5c495a6,2022-07-06_10h30.20.119,Colour_Asymmetry_Pilot,2022.1.3,MacIntel,59.99880002,62c50e9c1127f2cd403a315f,,,,,,,,,,,,,,,,,,,,,,,,,,,,,,,,,,,,,,,,,,,,,,,,,,,,,,,,,,,,,,,,,,,,,,,,,,,,,,,,,,,,,,,,,,,,,,,,,,,,,,,,,,,,,,,,,,,,,,,,,,,,,,,,,,,,,,,,,,,,,,,,,,,,,,,,,,,,,,,,,,,
0,36,36,11,1,,615c6b6db80030c2df00f6b7,62c5561eb3080155d5c495a6,2022-07-06_10h30.20.119,Colour_Asymmetry_Pilot,2022.1.3,MacIntel,59.99880002,62c50e9c1127f2cd403a315f,,,,,,,,,,,,,,,,,,,,,,,,,,,,,,,,,,,,,,,,,,,,,,,,,,,,,,,,,,,,,,,,,,,,,,,,,,,,,,,,,,,,,,,,,,,,,,,,,,,,,,,,,,,,,,,,,,,,,,,,,,,,,,,,,,,,,,,,,,,,,,,,,,,,,,,,,,,,,,,,,,,
0,37,37,20,1,,615c6b6db80030c2df00f6b7,62c5561eb3080155d5c495a6,2022-07-06_10h30.20.119,Colour_Asymmetry_Pilot,2022.1.3,MacIntel,59.99880002,62c50e9c1127f2cd403a315f,,,,,,,,,,,,,,,,,,,,,,,,,,,,,,,,,,,,,,,,,,,,,,,,,,,,,,,,,,,,,,,,,,,,,,,,,,,,,,,,,,,,,,,,,,,,,,,,,,,,,,,,,,,,,,,,,,,,,,,,,,,,,,,,,,,,,,,,,,,,,,,,,,,,,,,,,,,,,,,,,,,
0,38,38,40,1,,615c6b6db80030c2df00f6b7,62c5561eb3080155d5c495a6,2022-07-06_10h30.20.119,Colour_Asymmetry_Pilot,2022.1.3,MacIntel,59.99880002,62c50e9c1127f2cd403a315f,,,,,,,,,,,,,,,,,,,,,,,,,,,,,,,,,,,,,,,,,,,,,,,,,,,,,,,,,,,,,,,,,,,,,,,,,,,,,,,,,,,,,,,,,,,,,,,,,,,,,,,,,,,,,,,,,,,,,,,,,,,,,,,,,,,,,,,,,,,,,,,,,,,,,,,,,,,,,,,,,,,
0,39,39,68,1,,615c6b6db80030c2df00f6b7,62c5561eb3080155d5c495a6,2022-07-06_10h30.20.119,Colour_Asymmetry_Pilot,2022.1.3,MacIntel,59.99880002,62c50e9c1127f2cd403a315f,,,,,,,,,,,,,,,,,,,,,,,,,,,,,,,,,,,,,,,,,,,,,,,,,,,,,,,,,,,,,,,,,,,,,,,,,,,,,,,,,,,,,,,,,,,,,,,,,,,,,,,,,,,,,,,,,,,,,,,,,,,,,,,,,,,,,,,,,,,,,,,,,,,,,,,,,,,,,,,,,,,
0,40,40,14,1,,615c6b6db80030c2df00f6b7,62c5561eb3080155d5c495a6,2022-07-06_10h30.20.119,Colour_Asymmetry_Pilot,2022.1.3,MacIntel,59.99880002,62c50e9c1127f2cd403a315f,,,,,,,,,,,,,,,,,,,,,,,,,,,,,,,,,,,,,,,,,,,,,,,,,,,,,,,,,,,,,,,,,,,,,,,,,,,,,,,,,,,,,,,,,,,,,,,,,,,,,,,,,,,,,,,,,,,,,,,,,,,,,,,,,,,,,,,,,,,,,,,,,,,,,,,,,,,,,,,,,,,
0,41,41,70,1,,615c6b6db80030c2df00f6b7,62c5561eb3080155d5c495a6,2022-07-06_10h30.20.119,Colour_Asymmetry_Pilot,2022.1.3,MacIntel,59.99880002,62c50e9c1127f2cd403a315f,,,,,,,,,,,,,,,,,,,,,,,,,,,,,,,,,,,,,,,,,,,,,,,,,,,,,,,,,,,,,,,,,,,,,,,,,,,,,,,,,,,,,,,,,,,,,,,,,,,,,,,,,,,,,,,,,,,,,,,,,,,,,,,,,,,,,,,,,,,,,,,,,,,,,,,,,,,,,,,,,,,
0,42,42,2,1,,615c6b6db80030c2df00f6b7,62c5561eb3080155d5c495a6,2022-07-06_10h30.20.119,Colour_Asymmetry_Pilot,2022.1.3,MacIntel,59.99880002,62c50e9c1127f2cd403a315f,,,,,,,,,,,,,,,,,,,,,,,,,,,,,,,,,,,,,,,,,,,,,,,,,,,,,,,,,,,,,,,,,,,,,,,,,,,,,,,,,,,,,,,,,,,,,,,,,,,,,,,,,,,,,,,,,,,,,,,,,,,,,,,,,,,,,,,,,,,,,,,,,,,,,,,,,,,,,,,,,,,
0,43,43,7,1,,615c6b6db80030c2df00f6b7,62c5561eb3080155d5c495a6,2022-07-06_10h30.20.119,Colour_Asymmetry_Pilot,2022.1.3,MacIntel,59.99880002,62c50e9c1127f2cd403a315f,,,,,,,,,,,,,,,,,,,,,,,,,,,,,,,,,,,,,,,,,,,,,,,,,,,,,,,,,,,,,,,,,,,,,,,,,,,,,,,,,,,,,,,,,,,,,,,,,,,,,,,,,,,,,,,,,,,,,,,,,,,,,,,,,,,,,,,,,,,,,,,,,,,,,,,,,,,,,,,,,,,
0,44,44,72,1,,615c6b6db80030c2df00f6b7,62c5561eb3080155d5c495a6,2022-07-06_10h30.20.119,Colour_Asymmetry_Pilot,2022.1.3,MacIntel,59.99880002,62c50e9c1127f2cd403a315f,,,,,,,,,,,,,,,,,,,,,,,,,,,,,,,,,,,,,,,,,,,,,,,,,,,,,,,,,,,,,,,,,,,,,,,,,,,,,,,,,,,,,,,,,,,,,,,,,,,,,,,,,,,,,,,,,,,,,,,,,,,,,,,,,,,,,,,,,,,,,,,,,,,,,,,,,,,,,,,,,,,
0,45,45,23,1,,615c6b6db80030c2df00f6b7,62c5561eb3080155d5c495a6,2022-07-06_10h30.20.119,Colour_Asymmetry_Pilot,2022.1.3,MacIntel,59.99880002,62c50e9c1127f2cd403a315f,,,,,,,,,,,,,,,,,,,,,,,,,,,,,,,,,,,,,,,,,,,,,,,,,,,,,,,,,,,,,,,,,,,,,,,,,,,,,,,,,,,,,,,,,,,,,,,,,,,,,,,,,,,,,,,,,,,,,,,,,,,,,,,,,,,,,,,,,,,,,,,,,,,,,,,,,,,,,,,,,,,
0,46,46,24,1,,615c6b6db80030c2df00f6b7,62c5561eb3080155d5c495a6,2022-07-06_10h30.20.119,Colour_Asymmetry_Pilot,2022.1.3,MacIntel,59.99880002,62c50e9c1127f2cd403a315f,,,,,,,,,,,,,,,,,,,,,,,,,,,,,,,,,,,,,,,,,,,,,,,,,,,,,,,,,,,,,,,,,,,,,,,,,,,,,,,,,,,,,,,,,,,,,,,,,,,,,,,,,,,,,,,,,,,,,,,,,,,,,,,,,,,,,,,,,,,,,,,,,,,,,,,,,,,,,,,,,,,
0,47,47,32,1,,615c6b6db80030c2df00f6b7,62c5561eb3080155d5c495a6,2022-07-06_10h30.20.119,Colour_Asymmetry_Pilot,2022.1.3,MacIntel,59.99880002,62c50e9c1127f2cd403a315f,,,,,,,,,,,,,,,,,,,,,,,,,,,,,,,,,,,,,,,,,,,,,,,,,,,,,,,,,,,,,,,,,,,,,,,,,,,,,,,,,,,,,,,,,,,,,,,,,,,,,,,,,,,,,,,,,,,,,,,,,,,,,,,,,,,,,,,,,,,,,,,,,,,,,,,,,,,,,,,,,,,
0,48,48,35,1,,615c6b6db80030c2df00f6b7,62c5561eb3080155d5c495a6,2022-07-06_10h30.20.119,Colour_Asymmetry_Pilot,2022.1.3,MacIntel,59.99880002,62c50e9c1127f2cd403a315f,,,,,,,,,,,,,,,,,,,,,,,,,,,,,,,,,,,,,,,,,,,,,,,,,,,,,,,,,,,,,,,,,,,,,,,,,,,,,,,,,,,,,,,,,,,,,,,,,,,,,,,,,,,,,,,,,,,,,,,,,,,,,,,,,,,,,,,,,,,,,,,,,,,,,,,,,,,,,,,,,,,
0,49,49,30,1,,615c6b6db80030c2df00f6b7,62c5561eb3080155d5c495a6,2022-07-06_10h30.20.119,Colour_Asymmetry_Pilot,2022.1.3,MacIntel,59.99880002,62c50e9c1127f2cd403a315f,,,,,,,,,,,,,,,,,,,,,,,,,,,,,,,,,,,,,,,,,,,,,,,,,,,,,,,,,,,,,,,,,,,,,,,,,,,,,,,,,,,,,,,,,,,,,,,,,,,,,,,,,,,,,,,,,,,,,,,,,,,,,,,,,,,,,,,,,,,,,,,,,,,,,,,,,,,,,,,,,,,
0,50,50,64,1,,615c6b6db80030c2df00f6b7,62c5561eb3080155d5c495a6,2022-07-06_10h30.20.119,Colour_Asymmetry_Pilot,2022.1.3,MacIntel,59.99880002,62c50e9c1127f2cd403a315f,,,,,,,,,,,,,,,,,,,,,,,,,,,,,,,,,,,,,,,,,,,,,,,,,,,,,,,,,,,,,,,,,,,,,,,,,,,,,,,,,,,,,,,,,,,,,,,,,,,,,,,,,,,,,,,,,,,,,,,,,,,,,,,,,,,,,,,,,,,,,,,,,,,,,,,,,,,,,,,,,,,
0,51,51,25,1,,615c6b6db80030c2df00f6b7,62c5561eb3080155d5c495a6,2022-07-06_10h30.20.119,Colour_Asymmetry_Pilot,2022.1.3,MacIntel,59.99880002,62c50e9c1127f2cd403a315f,,,,,,,,,,,,,,,,,,,,,,,,,,,,,,,,,,,,,,,,,,,,,,,,,,,,,,,,,,,,,,,,,,,,,,,,,,,,,,,,,,,,,,,,,,,,,,,,,,,,,,,,,,,,,,,,,,,,,,,,,,,,,,,,,,,,,,,,,,,,,,,,,,,,,,,,,,,,,,,,,,,
0,52,52,46,1,,615c6b6db80030c2df00f6b7,62c5561eb3080155d5c495a6,2022-07-06_10h30.20.119,Colour_Asymmetry_Pilot,2022.1.3,MacIntel,59.99880002,62c50e9c1127f2cd403a315f,,,,,,,,,,,,,,,,,,,,,,,,,,,,,,,,,,,,,,,,,,,,,,,,,,,,,,,,,,,,,,,,,,,,,,,,,,,,,,,,,,,,,,,,,,,,,,,,,,,,,,,,,,,,,,,,,,,,,,,,,,,,,,,,,,,,,,,,,,,,,,,,,,,,,,,,,,,,,,,,,,,
0,53,53,45,1,,615c6b6db80030c2df00f6b7,62c5561eb3080155d5c495a6,2022-07-06_10h30.20.119,Colour_Asymmetry_Pilot,2022.1.3,MacIntel,59.99880002,62c50e9c1127f2cd403a315f,,,,,,,,,,,,,,,,,,,,,,,,,,,,,,,,,,,,,,,,,,,,,,,,,,,,,,,,,,,,,,,,,,,,,,,,,,,,,,,,,,,,,,,,,,,,,,,,,,,,,,,,,,,,,,,,,,,,,,,,,,,,,,,,,,,,,,,,,,,,,,,,,,,,,,,,,,,,,,,,,,,
0,54,54,65,1,,615c6b6db80030c2df00f6b7,62c5561eb3080155d5c495a6,2022-07-06_10h30.20.119,Colour_Asymmetry_Pilot,2022.1.3,MacIntel,59.99880002,62c50e9c1127f2cd403a315f,,,,,,,,,,,,,,,,,,,,,,,,,,,,,,,,,,,,,,,,,,,,,,,,,,,,,,,,,,,,,,,,,,,,,,,,,,,,,,,,,,,,,,,,,,,,,,,,,,,,,,,,,,,,,,,,,,,,,,,,,,,,,,,,,,,,,,,,,,,,,,,,,,,,,,,,,,,,,,,,,,,
0,55,55,42,1,,615c6b6db80030c2df00f6b7,62c5561eb3080155d5c495a6,2022-07-06_10h30.20.119,Colour_Asymmetry_Pilot,2022.1.3,MacIntel,59.99880002,62c50e9c1127f2cd403a315f,,,,,,,,,,,,,,,,,,,,,,,,,,,,,,,,,,,,,,,,,,,,,,,,,,,,,,,,,,,,,,,,,,,,,,,,,,,,,,,,,,,,,,,,,,,,,,,,,,,,,,,,,,,,,,,,,,,,,,,,,,,,,,,,,,,,,,,,,,,,,,,,,,,,,,,,,,,,,,,,,,,
0,56,56,91,1,,615c6b6db80030c2df00f6b7,62c5561eb3080155d5c495a6,2022-07-06_10h30.20.119,Colour_Asymmetry_Pilot,2022.1.3,MacIntel,59.99880002,62c50e9c1127f2cd403a315f,,,,,,,,,,,,,,,,,,,,,,,,,,,,,,,,,,,,,,,,,,,,,,,,,,,,,,,,,,,,,,,,,,,,,,,,,,,,,,,,,,,,,,,,,,,,,,,,,,,,,,,,,,,,,,,,,,,,,,,,,,,,,,,,,,,,,,,,,,,,,,,,,,,,,,,,,,,,,,,,,,,
0,57,57,37,1,,615c6b6db80030c2df00f6b7,62c5561eb3080155d5c495a6,2022-07-06_10h30.20.119,Colour_Asymmetry_Pilot,2022.1.3,MacIntel,59.99880002,62c50e9c1127f2cd403a315f,,,,,,,,,,,,,,,,,,,,,,,,,,,,,,,,,,,,,,,,,,,,,,,,,,,,,,,,,,,,,,,,,,,,,,,,,,,,,,,,,,,,,,,,,,,,,,,,,,,,,,,,,,,,,,,,,,,,,,,,,,,,,,,,,,,,,,,,,,,,,,,,,,,,,,,,,,,,,,,,,,,
0,58,58,12,1,,615c6b6db80030c2df00f6b7,62c5561eb3080155d5c495a6,2022-07-06_10h30.20.119,Colour_Asymmetry_Pilot,2022.1.3,MacIntel,59.99880002,62c50e9c1127f2cd403a315f,,,,,,,,,,,,,,,,,,,,,,,,,,,,,,,,,,,,,,,,,,,,,,,,,,,,,,,,,,,,,,,,,,,,,,,,,,,,,,,,,,,,,,,,,,,,,,,,,,,,,,,,,,,,,,,,,,,,,,,,,,,,,,,,,,,,,,,,,,,,,,,,,,,,,,,,,,,,,,,,,,,
0,59,59,1,1,,615c6b6db80030c2df00f6b7,62c5561eb3080155d5c495a6,2022-07-06_10h30.20.119,Colour_Asymmetry_Pilot,2022.1.3,MacIntel,59.99880002,62c50e9c1127f2cd403a315f,,,,,,,,,,,,,,,,,,,,,,,,,,,,,,,,,,,,,,,,,,,,,,,,,,,,,,,,,,,,,,,,,,,,,,,,,,,,,,,,,,,,,,,,,,,,,,,,,,,,,,,,,,,,,,,,,,,,,,,,,,,,,,,,,,,,,,,,,,,,,,,,,,,,,,,,,,,,,,,,,,,
0,60,60,63,1,,615c6b6db80030c2df00f6b7,62c5561eb3080155d5c495a6,2022-07-06_10h30.20.119,Colour_Asymmetry_Pilot,2022.1.3,MacIntel,59.99880002,62c50e9c1127f2cd403a315f,,,,,,,,,,,,,,,,,,,,,,,,,,,,,,,,,,,,,,,,,,,,,,,,,,,,,,,,,,,,,,,,,,,,,,,,,,,,,,,,,,,,,,,,,,,,,,,,,,,,,,,,,,,,,,,,,,,,,,,,,,,,,,,,,,,,,,,,,,,,,,,,,,,,,,,,,,,,,,,,,,,
0,61,61,55,1,,615c6b6db80030c2df00f6b7,62c5561eb3080155d5c495a6,2022-07-06_10h30.20.119,Colour_Asymmetry_Pilot,2022.1.3,MacIntel,59.99880002,62c50e9c1127f2cd403a315f,,,,,,,,,,,,,,,,,,,,,,,,,,,,,,,,,,,,,,,,,,,,,,,,,,,,,,,,,,,,,,,,,,,,,,,,,,,,,,,,,,,,,,,,,,,,,,,,,,,,,,,,,,,,,,,,,,,,,,,,,,,,,,,,,,,,,,,,,,,,,,,,,,,,,,,,,,,,,,,,,,,
0,62,62,49,1,,615c6b6db80030c2df00f6b7,62c5561eb3080155d5c495a6,2022-07-06_10h30.20.119,Colour_Asymmetry_Pilot,2022.1.3,MacIntel,59.99880002,62c50e9c1127f2cd403a315f,,,,,,,,,,,,,,,,,,,,,,,,,,,,,,,,,,,,,,,,,,,,,,,,,,,,,,,,,,,,,,,,,,,,,,,,,,,,,,,,,,,,,,,,,,,,,,,,,,,,,,,,,,,,,,,,,,,,,,,,,,,,,,,,,,,,,,,,,,,,,,,,,,,,,,,,,,,,,,,,,,,
0,63,63,75,1,,615c6b6db80030c2df00f6b7,62c5561eb3080155d5c495a6,2022-07-06_10h30.20.119,Colour_Asymmetry_Pilot,2022.1.3,MacIntel,59.99880002,62c50e9c1127f2cd403a315f,,,,,,,,,,,,,,,,,,,,,,,,,,,,,,,,,,,,,,,,,,,,,,,,,,,,,,,,,,,,,,,,,,,,,,,,,,,,,,,,,,,,,,,,,,,,,,,,,,,,,,,,,,,,,,,,,,,,,,,,,,,,,,,,,,,,,,,,,,,,,,,,,,,,,,,,,,,,,,,,,,,
0,64,64,62,1,,615c6b6db80030c2df00f6b7,62c5561eb3080155d5c495a6,2022-07-06_10h30.20.119,Colour_Asymmetry_Pilot,2022.1.3,MacIntel,59.99880002,62c50e9c1127f2cd403a315f,,,,,,,,,,,,,,,,,,,,,,,,,,,,,,,,,,,,,,,,,,,,,,,,,,,,,,,,,,,,,,,,,,,,,,,,,,,,,,,,,,,,,,,,,,,,,,,,,,,,,,,,,,,,,,,,,,,,,,,,,,,,,,,,,,,,,,,,,,,,,,,,,,,,,,,,,,,,,,,,,,,
0,65,65,66,1,,615c6b6db80030c2df00f6b7,62c5561eb3080155d5c495a6,2022-07-06_10h30.20.119,Colour_Asymmetry_Pilot,2022.1.3,MacIntel,59.99880002,62c50e9c1127f2cd403a315f,,,,,,,,,,,,,,,,,,,,,,,,,,,,,,,,,,,,,,,,,,,,,,,,,,,,,,,,,,,,,,,,,,,,,,,,,,,,,,,,,,,,,,,,,,,,,,,,,,,,,,,,,,,,,,,,,,,,,,,,,,,,,,,,,,,,,,,,,,,,,,,,,,,,,,,,,,,,,,,,,,,
0,66,66,80,1,,615c6b6db80030c2df00f6b7,62c5561eb3080155d5c495a6,2022-07-06_10h30.20.119,Colour_Asymmetry_Pilot,2022.1.3,MacIntel,59.99880002,62c50e9c1127f2cd403a315f,,,,,,,,,,,,,,,,,,,,,,,,,,,,,,,,,,,,,,,,,,,,,,,,,,,,,,,,,,,,,,,,,,,,,,,,,,,,,,,,,,,,,,,,,,,,,,,,,,,,,,,,,,,,,,,,,,,,,,,,,,,,,,,,,,,,,,,,,,,,,,,,,,,,,,,,,,,,,,,,,,,
0,67,67,44,1,,615c6b6db80030c2df00f6b7,62c5561eb3080155d5c495a6,2022-07-06_10h30.20.119,Colour_Asymmetry_Pilot,2022.1.3,MacIntel,59.99880002,62c50e9c1127f2cd403a315f,,,,,,,,,,,,,,,,,,,,,,,,,,,,,,,,,,,,,,,,,,,,,,,,,,,,,,,,,,,,,,,,,,,,,,,,,,,,,,,,,,,,,,,,,,,,,,,,,,,,,,,,,,,,,,,,,,,,,,,,,,,,,,,,,,,,,,,,,,,,,,,,,,,,,,,,,,,,,,,,,,,
0,68,68,60,1,,615c6b6db80030c2df00f6b7,62c5561eb3080155d5c495a6,2022-07-06_10h30.20.119,Colour_Asymmetry_Pilot,2022.1.3,MacIntel,59.99880002,62c50e9c1127f2cd403a315f,,,,,,,,,,,,,,,,,,,,,,,,,,,,,,,,,,,,,,,,,,,,,,,,,,,,,,,,,,,,,,,,,,,,,,,,,,,,,,,,,,,,,,,,,,,,,,,,,,,,,,,,,,,,,,,,,,,,,,,,,,,,,,,,,,,,,,,,,,,,,,,,,,,,,,,,,,,,,,,,,,,
0,69,69,29,1,,615c6b6db80030c2df00f6b7,62c5561eb3080155d5c495a6,2022-07-06_10h30.20.119,Colour_Asymmetry_Pilot,2022.1.3,MacIntel,59.99880002,62c50e9c1127f2cd403a315f,,,,,,,,,,,,,,,,,,,,,,,,,,,,,,,,,,,,,,,,,,,,,,,,,,,,,,,,,,,,,,,,,,,,,,,,,,,,,,,,,,,,,,,,,,,,,,,,,,,,,,,,,,,,,,,,,,,,,,,,,,,,,,,,,,,,,,,,,,,,,,,,,,,,,,,,,,,,,,,,,,,
0,70,70,22,1,,615c6b6db80030c2df00f6b7,62c5561eb3080155d5c495a6,2022-07-06_10h30.20.119,Colour_Asymmetry_Pilot,2022.1.3,MacIntel,59.99880002,62c50e9c1127f2cd403a315f,,,,,,,,,,,,,,,,,,,,,,,,,,,,,,,,,,,,,,,,,,,,,,,,,,,,,,,,,,,,,,,,,,,,,,,,,,,,,,,,,,,,,,,,,,,,,,,,,,,,,,,,,,,,,,,,,,,,,,,,,,,,,,,,,,,,,,,,,,,,,,,,,,,,,,,,,,,,,,,,,,,
0,71,71,51,1,,615c6b6db80030c2df00f6b7,62c5561eb3080155d5c495a6,2022-07-06_10h30.20.119,Colour_Asymmetry_Pilot,2022.1.3,MacIntel,59.99880002,62c50e9c1127f2cd403a315f,,,,,,,,,,,,,,,,,,,,,,,,,,,,,,,,,,,,,,,,,,,,,,,,,,,,,,,,,,,,,,,,,,,,,,,,,,,,,,,,,,,,,,,,,,,,,,,,,,,,,,,,,,,,,,,,,,,,,,,,,,,,,,,,,,,,,,,,,,,,,,,,,,,,,,,,,,,,,,,,,,,
0,72,72,15,1,,615c6b6db80030c2df00f6b7,62c5561eb3080155d5c495a6,2022-07-06_10h30.20.119,Colour_Asymmetry_Pilot,2022.1.3,MacIntel,59.99880002,62c50e9c1127f2cd403a315f,,,,,,,,,,,,,,,,,,,,,,,,,,,,,,,,,,,,,,,,,,,,,,,,,,,,,,,,,,,,,,,,,,,,,,,,,,,,,,,,,,,,,,,,,,,,,,,,,,,,,,,,,,,,,,,,,,,,,,,,,,,,,,,,,,,,,,,,,,,,,,,,,,,,,,,,,,,,,,,,,,,
0,73,73,10,1,,615c6b6db80030c2df00f6b7,62c5561eb3080155d5c495a6,2022-07-06_10h30.20.119,Colour_Asymmetry_Pilot,2022.1.3,MacIntel,59.99880002,62c50e9c1127f2cd403a315f,,,,,,,,,,,,,,,,,,,,,,,,,,,,,,,,,,,,,,,,,,,,,,,,,,,,,,,,,,,,,,,,,,,,,,,,,,,,,,,,,,,,,,,,,,,,,,,,,,,,,,,,,,,,,,,,,,,,,,,,,,,,,,,,,,,,,,,,,,,,,,,,,,,,,,,,,,,,,,,,,,,
0,74,74,50,1,,615c6b6db80030c2df00f6b7,62c5561eb3080155d5c495a6,2022-07-06_10h30.20.119,Colour_Asymmetry_Pilot,2022.1.3,MacIntel,59.99880002,62c50e9c1127f2cd403a315f,,,,,,,,,,,,,,,,,,,,,,,,,,,,,,,,,,,,,,,,,,,,,,,,,,,,,,,,,,,,,,,,,,,,,,,,,,,,,,,,,,,,,,,,,,,,,,,,,,,,,,,,,,,,,,,,,,,,,,,,,,,,,,,,,,,,,,,,,,,,,,,,,,,,,,,,,,,,,,,,,,,
0,75,75,34,1,,615c6b6db80030c2df00f6b7,62c5561eb3080155d5c495a6,2022-07-06_10h30.20.119,Colour_Asymmetry_Pilot,2022.1.3,MacIntel,59.99880002,62c50e9c1127f2cd403a315f,,,,,,,,,,,,,,,,,,,,,,,,,,,,,,,,,,,,,,,,,,,,,,,,,,,,,,,,,,,,,,,,,,,,,,,,,,,,,,,,,,,,,,,,,,,,,,,,,,,,,,,,,,,,,,,,,,,,,,,,,,,,,,,,,,,,,,,,,,,,,,,,,,,,,,,,,,,,,,,,,,,
0,76,76,53,1,,615c6b6db80030c2df00f6b7,62c5561eb3080155d5c495a6,2022-07-06_10h30.20.119,Colour_Asymmetry_Pilot,2022.1.3,MacIntel,59.99880002,62c50e9c1127f2cd403a315f,,,,,,,,,,,,,,,,,,,,,,,,,,,,,,,,,,,,,,,,,,,,,,,,,,,,,,,,,,,,,,,,,,,,,,,,,,,,,,,,,,,,,,,,,,,,,,,,,,,,,,,,,,,,,,,,,,,,,,,,,,,,,,,,,,,,,,,,,,,,,,,,,,,,,,,,,,,,,,,,,,,
0,77,77,89,1,,615c6b6db80030c2df00f6b7,62c5561eb3080155d5c495a6,2022-07-06_10h30.20.119,Colour_Asymmetry_Pilot,2022.1.3,MacIntel,59.99880002,62c50e9c1127f2cd403a315f,,,,,,,,,,,,,,,,,,,,,,,,,,,,,,,,,,,,,,,,,,,,,,,,,,,,,,,,,,,,,,,,,,,,,,,,,,,,,,,,,,,,,,,,,,,,,,,,,,,,,,,,,,,,,,,,,,,,,,,,,,,,,,,,,,,,,,,,,,,,,,,,,,,,,,,,,,,,,,,,,,,
0,78,78,61,1,,615c6b6db80030c2df00f6b7,62c5561eb3080155d5c495a6,2022-07-06_10h30.20.119,Colour_Asymmetry_Pilot,2022.1.3,MacIntel,59.99880002,62c50e9c1127f2cd403a315f,,,,,,,,,,,,,,,,,,,,,,,,,,,,,,,,,,,,,,,,,,,,,,,,,,,,,,,,,,,,,,,,,,,,,,,,,,,,,,,,,,,,,,,,,,,,,,,,,,,,,,,,,,,,,,,,,,,,,,,,,,,,,,,,,,,,,,,,,,,,,,,,,,,,,,,,,,,,,,,,,,,
0,79,79,82,1,,615c6b6db80030c2df00f6b7,62c5561eb3080155d5c495a6,2022-07-06_10h30.20.119,Colour_Asymmetry_Pilot,2022.1.3,MacIntel,59.99880002,62c50e9c1127f2cd403a315f,,,,,,,,,,,,,,,,,,,,,,,,,,,,,,,,,,,,,,,,,,,,,,,,,,,,,,,,,,,,,,,,,,,,,,,,,,,,,,,,,,,,,,,,,,,,,,,,,,,,,,,,,,,,,,,,,,,,,,,,,,,,,,,,,,,,,,,,,,,,,,,,,,,,,,,,,,,,,,,,,,,
0,80,80,16,1,,615c6b6db80030c2df00f6b7,62c5561eb3080155d5c495a6,2022-07-06_10h30.20.119,Colour_Asymmetry_Pilot,2022.1.3,MacIntel,59.99880002,62c50e9c1127f2cd403a315f,,,,,,,,,,,,,,,,,,,,,,,,,,,,,,,,,,,,,,,,,,,,,,,,,,,,,,,,,,,,,,,,,,,,,,,,,,,,,,,,,,,,,,,,,,,,,,,,,,,,,,,,,,,,,,,,,,,,,,,,,,,,,,,,,,,,,,,,,,,,,,,,,,,,,,,,,,,,,,,,,,,
0,81,81,19,1,,615c6b6db80030c2df00f6b7,62c5561eb3080155d5c495a6,2022-07-06_10h30.20.119,Colour_Asymmetry_Pilot,2022.1.3,MacIntel,59.99880002,62c50e9c1127f2cd403a315f,,,,,,,,,,,,,,,,,,,,,,,,,,,,,,,,,,,,,,,,,,,,,,,,,,,,,,,,,,,,,,,,,,,,,,,,,,,,,,,,,,,,,,,,,,,,,,,,,,,,,,,,,,,,,,,,,,,,,,,,,,,,,,,,,,,,,,,,,,,,,,,,,,,,,,,,,,,,,,,,,,,
0,82,82,3,1,,615c6b6db80030c2df00f6b7,62c5561eb3080155d5c495a6,2022-07-06_10h30.20.119,Colour_Asymmetry_Pilot,2022.1.3,MacIntel,59.99880002,62c50e9c1127f2cd403a315f,,,,,,,,,,,,,,,,,,,,,,,,,,,,,,,,,,,,,,,,,,,,,,,,,,,,,,,,,,,,,,,,,,,,,,,,,,,,,,,,,,,,,,,,,,,,,,,,,,,,,,,,,,,,,,,,,,,,,,,,,,,,,,,,,,,,,,,,,,,,,,,,,,,,,,,,,,,,,,,,,,,
0,83,83,83,1,,615c6b6db80030c2df00f6b7,62c5561eb3080155d5c495a6,2022-07-06_10h30.20.119,Colour_Asymmetry_Pilot,2022.1.3,MacIntel,59.99880002,62c50e9c1127f2cd403a315f,,,,,,,,,,,,,,,,,,,,,,,,,,,,,,,,,,,,,,,,,,,,,,,,,,,,,,,,,,,,,,,,,,,,,,,,,,,,,,,,,,,,,,,,,,,,,,,,,,,,,,,,,,,,,,,,,,,,,,,,,,,,,,,,,,,,,,,,,,,,,,,,,,,,,,,,,,,,,,,,,,,
0,84,84,76,1,,615c6b6db80030c2df00f6b7,62c5561eb3080155d5c495a6,2022-07-06_10h30.20.119,Colour_Asymmetry_Pilot,2022.1.3,MacIntel,59.99880002,62c50e9c1127f2cd403a315f,,,,,,,,,,,,,,,,,,,,,,,,,,,,,,,,,,,,,,,,,,,,,,,,,,,,,,,,,,,,,,,,,,,,,,,,,,,,,,,,,,,,,,,,,,,,,,,,,,,,,,,,,,,,,,,,,,,,,,,,,,,,,,,,,,,,,,,,,,,,,,,,,,,,,,,,,,,,,,,,,,,
0,85,85,69,1,,615c6b6db80030c2df00f6b7,62c5561eb3080155d5c495a6,2022-07-06_10h30.20.119,Colour_Asymmetry_Pilot,2022.1.3,MacIntel,59.99880002,62c50e9c1127f2cd403a315f,,,,,,,,,,,,,,,,,,,,,,,,,,,,,,,,,,,,,,,,,,,,,,,,,,,,,,,,,,,,,,,,,,,,,,,,,,,,,,,,,,,,,,,,,,,,,,,,,,,,,,,,,,,,,,,,,,,,,,,,,,,,,,,,,,,,,,,,,,,,,,,,,,,,,,,,,,,,,,,,,,,
0,86,86,84,1,,615c6b6db80030c2df00f6b7,62c5561eb3080155d5c495a6,2022-07-06_10h30.20.119,Colour_Asymmetry_Pilot,2022.1.3,MacIntel,59.99880002,62c50e9c1127f2cd403a315f,,,,,,,,,,,,,,,,,,,,,,,,,,,,,,,,,,,,,,,,,,,,,,,,,,,,,,,,,,,,,,,,,,,,,,,,,,,,,,,,,,,,,,,,,,,,,,,,,,,,,,,,,,,,,,,,,,,,,,,,,,,,,,,,,,,,,,,,,,,,,,,,,,,,,,,,,,,,,,,,,,,
0,87,87,28,1,,615c6b6db80030c2df00f6b7,62c5561eb3080155d5c495a6,2022-07-06_10h30.20.119,Colour_Asymmetry_Pilot,2022.1.3,MacIntel,59.99880002,62c50e9c1127f2cd403a315f,,,,,,,,,,,,,,,,,,,,,,,,,,,,,,,,,,,,,,,,,,,,,,,,,,,,,,,,,,,,,,,,,,,,,,,,,,,,,,,,,,,,,,,,,,,,,,,,,,,,,,,,,,,,,,,,,,,,,,,,,,,,,,,,,,,,,,,,,,,,,,,,,,,,,,,,,,,,,,,,,,,
0,88,88,87,1,,615c6b6db80030c2df00f6b7,62c5561eb3080155d5c495a6,2022-07-06_10h30.20.119,Colour_Asymmetry_Pilot,2022.1.3,MacIntel,59.99880002,62c50e9c1127f2cd403a315f,,,,,,,,,,,,,,,,,,,,,,,,,,,,,,,,,,,,,,,,,,,,,,,,,,,,,,,,,,,,,,,,,,,,,,,,,,,,,,,,,,,,,,,,,,,,,,,,,,,,,,,,,,,,,,,,,,,,,,,,,,,,,,,,,,,,,,,,,,,,,,,,,,,,,,,,,,,,,,,,,,,
0,89,89,81,1,,615c6b6db80030c2df00f6b7,62c5561eb3080155d5c495a6,2022-07-06_10h30.20.119,Colour_Asymmetry_Pilot,2022.1.3,MacIntel,59.99880002,62c50e9c1127f2cd403a315f,,,,,,,,,,,,,,,,,,,,,,,,,,,,,,,,,,,,,,,,,,,,,,,,,,,,,,,,,,,,,,,,,,,,,,,,,,,,,,,,,,,,,,,,,,,,,,,,,,,,,,,,,,,,,,,,,,,,,,,,,,,,,,,,,,,,,,,,,,,,,,,,,,,,,,,,,,,,,,,,,,,
0,90,90,88,1,,615c6b6db80030c2df00f6b7,62c5561eb3080155d5c495a6,2022-07-06_10h30.20.119,Colour_Asymmetry_Pilot,2022.1.3,MacIntel,59.99880002,62c50e9c1127f2cd403a315f,,,,,,,,,,,,,,,,,,,,,,,,,,,,,,,,,,,,,,,,,,,,,,,,,,,,,,,,,,,,,,,,,,,,,,,,,,,,,,,,,,,,,,,,,,,,,,,,,,,,,,,,,,,,,,,,,,,,,,,,,,,,,,,,,,,,,,,,,,,,,,,,,,,,,,,,,,,,,,,,,,,
0,91,91,59,1,,615c6b6db80030c2df00f6b7,62c5561eb3080155d5c495a6,2022-07-06_10h30.20.119,Colour_Asymmetry_Pilot,2022.1.3,MacIntel,59.99880002,62c50e9c1127f2cd403a315f,,,,,,,,,,,,,,,,,,,,,,,,,,,,,,,,,,,,,,,,,,,,,,,,,,,,,,,,,,,,,,,,,,,,,,,,,,,,,,,,,,,,,,,,,,,,,,,,,,,,,,,,,,,,,,,,,,,,,,,,,,,,,,,,,,,,,,,,,,,,,,,,,,,,,,,,,,,,,,,,,,,
0,92,92,13,1,,615c6b6db80030c2df00f6b7,62c5561eb3080155d5c495a6,2022-07-06_10h30.20.119,Colour_Asymmetry_Pilot,2022.1.3,MacIntel,59.99880002,62c50e9c1127f2cd403a315f,,,,,,,,,,,,,,,,,,,,,,,,,,,,,,,,,,,,,,,,,,,,,,,,,,,,,,,,,,,,,,,,,,,,,,,,,,,,,,,,,,,,,,,,,,,,,,,,,,,,,,,,,,,,,,,,,,,,,,,,,,,,,,,,,,,,,,,,,,,,,,,,,,,,,,,,,,,,,,,,,,,
,,,,,,615c6b6db80030c2df00f6b7,62c5561eb3080155d5c495a6,2022-07-06_10h30.20.119,Colour_Asymmetry_Pilot,2022.1.3,MacIntel,59.99880002,62c50e9c1127f2cd403a315f,0,0,0,46,1,fourtwo,,,,,,,,,,,,,,,,,,,,,,,,,,,,,,,,,,,,,,,,,,,,,,,,,,,,,,,,,,,,,,,,,,,,,,,,,,,,,,,,,,,,,,,,,,,,,,,,,,,,,,,,,,,,,,,,,,,,,,,,,,,,,,,,,,,,,,,,,,,,,,,,,,,,,,,,,,,,,
,,,,,,615c6b6db80030c2df00f6b7,62c5561eb3080155d5c495a6,2022-07-06_10h30.20.119,Colour_Asymmetry_Pilot,2022.1.3,MacIntel,59.99880002,62c50e9c1127f2cd403a315f,0,1,1,36,1,threeone,,,,,,,,,,,,,,,,,,,,,,,,,,,,,,,,,,,,,,,,,,,,,,,,,,,,,,,,,,,,,,,,,,,,,,,,,,,,,,,,,,,,,,,,,,,,,,,,,,,,,,,,,,,,,,,,,,,,,,,,,,,,,,,,,,,,,,,,,,,,,,,,,,,,,,,,,,,,,
,,,,,,615c6b6db80030c2df00f6b7,62c5561eb3080155d5c495a6,2022-07-06_10h30.20.119,Colour_Asymmetry_Pilot,2022.1.3,MacIntel,59.99880002,62c50e9c1127f2cd403a315f,0,2,2,137,1,onethree,,,,,,,,,,,,,,,,,,,,,,,,,,,,,,,,,,,,,,,,,,,,,,,,,,,,,,,,,,,,,,,,,,,,,,,,,,,,,,,,,,,,,,,,,,,,,,,,,,,,,,,,,,,,,,,,,,,,,,,,,,,,,,,,,,,,,,,,,,,,,,,,,,,,,,,,,,,,,
,,,,,,615c6b6db80030c2df00f6b7,62c5561eb3080155d5c495a6,2022-07-06_10h30.20.119,Colour_Asymmetry_Pilot,2022.1.3,MacIntel,59.99880002,62c50e9c1127f2cd403a315f,0,3,3,135,1,fourthree,,,,,,,,,,,,,,,,,,,,,,,,,,,,,,,,,,,,,,,,,,,,,,,,,,,,,,,,,,,,,,,,,,,,,,,,,,,,,,,,,,,,,,,,,,,,,,,,,,,,,,,,,,,,,,,,,,,,,,,,,,,,,,,,,,,,,,,,,,,,,,,,,,,,,,,,,,,,,
,,,,,,615c6b6db80030c2df00f6b7,62c5561eb3080155d5c495a6,2022-07-06_10h30.20.119,Colour_Asymmetry_Pilot,2022.1.3,MacIntel,59.99880002,62c50e9c1127f2cd403a315f,0,4,4,14,1,fourtwo,,,,,,,,,,,,,,,,,,,,,,,,,,,,,,,,,,,,,,,,,,,,,,,,,,,,,,,,,,,,,,,,,,,,,,,,,,,,,,,,,,,,,,,,,,,,,,,,,,,,,,,,,,,,,,,,,,,,,,,,,,,,,,,,,,,,,,,,,,,,,,,,,,,,,,,,,,,,,
,,,,,,615c6b6db80030c2df00f6b7,62c5561eb3080155d5c495a6,2022-07-06_10h30.20.119,Colour_Asymmetry_Pilot,2022.1.3,MacIntel,59.99880002,62c50e9c1127f2cd403a315f,0,5,5,34,1,twoone,,,,,,,,,,,,,,,,,,,,,,,,,,,,,,,,,,,,,,,,,,,,,,,,,,,,,,,,,,,,,,,,,,,,,,,,,,,,,,,,,,,,,,,,,,,,,,,,,,,,,,,,,,,,,,,,,,,,,,,,,,,,,,,,,,,,,,,,,,,,,,,,,,,,,,,,,,,,,
,,,,,,615c6b6db80030c2df00f6b7,62c5561eb3080155d5c495a6,2022-07-06_10h30.20.119,Colour_Asymmetry_Pilot,2022.1.3,MacIntel,59.99880002,62c50e9c1127f2cd403a315f,0,6,6,58,1,twoone,,,,,,,,,,,,,,,,,,,,,,,,,,,,,,,,,,,,,,,,,,,,,,,,,,,,,,,,,,,,,,,,,,,,,,,,,,,,,,,,,,,,,,,,,,,,,,,,,,,,,,,,,,,,,,,,,,,,,,,,,,,,,,,,,,,,,,,,,,,,,,,,,,,,,,,,,,,,,
,,,,,,615c6b6db80030c2df00f6b7,62c5561eb3080155d5c495a6,2022-07-06_10h30.20.119,Colour_Asymmetry_Pilot,2022.1.3,MacIntel,59.99880002,62c50e9c1127f2cd403a315f,0,7,7,94,1,fourtwo,,,,,,,,,,,,,,,,,,,,,,,,,,,,,,,,,,,,,,,,,,,,,,,,,,,,,,,,,,,,,,,,,,,,,,,,,,,,,,,,,,,,,,,,,,,,,,,,,,,,,,,,,,,,,,,,,,,,,,,,,,,,,,,,,,,,,,,,,,,,,,,,,,,,,,,,,,,,,
,,,,,,615c6b6db80030c2df00f6b7,62c5561eb3080155d5c495a6,2022-07-06_10h30.20.119,Colour_Asymmetry_Pilot,2022.1.3,MacIntel,59.99880002,62c50e9c1127f2cd403a315f,0,8,8,109,1,threefour,,,,,,,,,,,,,,,,,,,,,,,,,,,,,,,,,,,,,,,,,,,,,,,,,,,,,,,,,,,,,,,,,,,,,,,,,,,,,,,,,,,,,,,,,,,,,,,,,,,,,,,,,,,,,,,,,,,,,,,,,,,,,,,,,,,,,,,,,,,,,,,,,,,,,,,,,,,,,
,,,,,,615c6b6db80030c2df00f6b7,62c5561eb3080155d5c495a6,2022-07-06_10h30.20.119,Colour_Asymmetry_Pilot,2022.1.3,MacIntel,59.99880002,62c50e9c1127f2cd403a315f,0,9,9,77,1,threefour,,,,,,,,,,,,,,,,,,,,,,,,,,,,,,,,,,,,,,,,,,,,,,,,,,,,,,,,,,,,,,,,,,,,,,,,,,,,,,,,,,,,,,,,,,,,,,,,,,,,,,,,,,,,,,,,,,,,,,,,,,,,,,,,,,,,,,,,,,,,,,,,,,,,,,,,,,,,,
,,,,,,615c6b6db80030c2df00f6b7,62c5561eb3080155d5c495a6,2022-07-06_10h30.20.119,Colour_Asymmetry_Pilot,2022.1.3,MacIntel,59.99880002,62c50e9c1127f2cd403a315f,0,10,10,54,1,fourtwo,,,,,,,,,,,,,,,,,,,,,,,,,,,,,,,,,,,,,,,,,,,,,,,,,,,,,,,,,,,,,,,,,,,,,,,,,,,,,,,,,,,,,,,,,,,,,,,,,,,,,,,,,,,,,,,,,,,,,,,,,,,,,,,,,,,,,,,,,,,,,,,,,,,,,,,,,,,,,
,,,,,,615c6b6db80030c2df00f6b7,62c5561eb3080155d5c495a6,2022-07-06_10h30.20.119,Colour_Asymmetry_Pilot,2022.1.3,MacIntel,59.99880002,62c50e9c1127f2cd403a315f,0,11,11,12,1,threeone,,,,,,,,,,,,,,,,,,,,,,,,,,,,,,,,,,,,,,,,,,,,,,,,,,,,,,,,,,,,,,,,,,,,,,,,,,,,,,,,,,,,,,,,,,,,,,,,,,,,,,,,,,,,,,,,,,,,,,,,,,,,,,,,,,,,,,,,,,,,,,,,,,,,,,,,,,,,,
,,,,,,615c6b6db80030c2df00f6b7,62c5561eb3080155d5c495a6,2022-07-06_10h30.20.119,Colour_Asymmetry_Pilot,2022.1.3,MacIntel,59.99880002,62c50e9c1127f2cd403a315f,0,12,12,73,1,onethree,,,,,,,,,,,,,,,,,,,,,,,,,,,,,,,,,,,,,,,,,,,,,,,,,,,,,,,,,,,,,,,,,,,,,,,,,,,,,,,,,,,,,,,,,,,,,,,,,,,,,,,,,,,,,,,,,,,,,,,,,,,,,,,,,,,,,,,,,,,,,,,,,,,,,,,,,,,,,
,,,,,,615c6b6db80030c2df00f6b7,62c5561eb3080155d5c495a6,2022-07-06_10h30.20.119,Colour_Asymmetry_Pilot,2022.1.3,MacIntel,59.99880002,62c50e9c1127f2cd403a315f,0,13,13,67,1,twofour,,,,,,,,,,,,,,,,,,,,,,,,,,,,,,,,,,,,,,,,,,,,,,,,,,,,,,,,,,,,,,,,,,,,,,,,,,,,,,,,,,,,,,,,,,,,,,,,,,,,,,,,,,,,,,,,,,,,,,,,,,,,,,,,,,,,,,,,,,,,,,,,,,,,,,,,,,,,,
,,,,,,615c6b6db80030c2df00f6b7,62c5561eb3080155d5c495a6,2022-07-06_10h30.20.119,Colour_Asymmetry_Pilot,2022.1.3,MacIntel,59.99880002,62c50e9c1127f2cd403a315f,0,14,14,95,1,fourthree,,,,,,,,,,,,,,,,,,,,,,,,,,,,,,,,,,,,,,,,,,,,,,,,,,,,,,,,,,,,,,,,,,,,,,,,,,,,,,,,,,,,,,,,,,,,,,,,,,,,,,,,,,,,,,,,,,,,,,,,,,,,,,,,,,,,,,,,,,,,,,,,,,,,,,,,,,,,,
,,,,,,615c6b6db80030c2df00f6b7,62c5561eb3080155d5c495a6,2022-07-06_10h30.20.119,Colour_Asymmetry_Pilot,2022.1.3,MacIntel,59.99880002,62c50e9c1127f2cd403a315f,0,15,15,107,1,twofour,,,,,,,,,,,,,,,,,,,,,,,,,,,,,,,,,,,,,,,,,,,,,,,,,,,,,,,,,,,,,,,,,,,,,,,,,,,,,,,,,,,,,,,,,,,,,,,,,,,,,,,,,,,,,,,,,,,,,,,,,,,,,,,,,,,,,,,,,,,,,,,,,,,,,,,,,,,,,
,,,,,,615c6b6db80030c2df00f6b7,62c5561eb3080155d5c495a6,2022-07-06_10h30.20.119,Colour_Asymmetry_Pilot,2022.1.3,MacIntel,59.99880002,62c50e9c1127f2cd403a315f,0,16,16,23,1,fourthree,,,,,,,,,,,,,,,,,,,,,,,,,,,,,,,,,,,,,,,,,,,,,,,,,,,,,,,,,,,,,,,,,,,,,,,,,,,,,,,,,,,,,,,,,,,,,,,,,,,,,,,,,,,,,,,,,,,,,,,,,,,,,,,,,,,,,,,,,,,,,,,,,,,,,,,,,,,,,
,,,,,,615c6b6db80030c2df00f6b7,62c5561eb3080155d5c495a6,2022-07-06_10h30.20.119,Colour_Asymmetry_Pilot,2022.1.3,MacIntel,59.99880002,62c50e9c1127f2cd403a315f,0,17,17,7,1,fourthree,,,,,,,,,,,,,,,,,,,,,,,,,,,,,,,,,,,,,,,,,,,,,,,,,,,,,,,,,,,,,,,,,,,,,,,,,,,,,,,,,,,,,,,,,,,,,,,,,,,,,,,,,,,,,,,,,,,,,,,,,,,,,,,,,,,,,,,,,,,,,,,,,,,,,,,,,,,,,
,,,,,,615c6b6db80030c2df00f6b7,62c5561eb3080155d5c495a6,2022-07-06_10h30.20.119,Colour_Asymmetry_Pilot,2022.1.3,MacIntel,59.99880002,62c50e9c1127f2cd403a315f,0,18,18,110,1,fourtwo,,,,,,,,,,,,,,,,,,,,,,,,,,,,,,,,,,,,,,,,,,,,,,,,,,,,,,,,,,,,,,,,,,,,,,,,,,,,,,,,,,,,,,,,,,,,,,,,,,,,,,,,,,,,,,,,,,,,,,,,,,,,,,,,,,,,,,,,,,,,,,,,,,,,,,,,,,,,,
,,,,,,615c6b6db80030c2df00f6b7,62c5561eb3080155d5c495a6,2022-07-06_10h30.20.119,Colour_Asymmetry_Pilot,2022.1.3,MacIntel,59.99880002,62c50e9c1127f2cd403a315f,0,19,19,120,1,onetwo,,,,,,,,,,,,,,,,,,,,,,,,,,,,,,,,,,,,,,,,,,,,,,,,,,,,,,,,,,,,,,,,,,,,,,,,,,,,,,,,,,,,,,,,,,,,,,,,,,,,,,,,,,,,,,,,,,,,,,,,,,,,,,,,,,,,,,,,,,,,,,,,,,,,,,,,,,,,,
,,,,,,615c6b6db80030c2df00f6b7,62c5561eb3080155d5c495a6,2022-07-06_10h30.20.119,Colour_Asymmetry_Pilot,2022.1.3,MacIntel,59.99880002,62c50e9c1127f2cd403a315f,0,20,20,152,1,onetwo,,,,,,,,,,,,,,,,,,,,,,,,,,,,,,,,,,,,,,,,,,,,,,,,,,,,,,,,,,,,,,,,,,,,,,,,,,,,,,,,,,,,,,,,,,,,,,,,,,,,,,,,,,,,,,,,,,,,,,,,,,,,,,,,,,,,,,,,,,,,,,,,,,,,,,,,,,,,,
,,,,,,615c6b6db80030c2df00f6b7,62c5561eb3080155d5c495a6,2022-07-06_10h30.20.119,Colour_Asymmetry_Pilot,2022.1.3,MacIntel,59.99880002,62c50e9c1127f2cd403a315f,0,21,21,64,1,onetwo,,,,,,,,,,,,,,,,,,,,,,,,,,,,,,,,,,,,,,,,,,,,,,,,,,,,,,,,,,,,,,,,,,,,,,,,,,,,,,,,,,,,,,,,,,,,,,,,,,,,,,,,,,,,,,,,,,,,,,,,,,,,,,,,,,,,,,,,,,,,,,,,,,,,,,,,,,,,,
,,,,,,615c6b6db80030c2df00f6b7,62c5561eb3080155d5c495a6,2022-07-06_10h30.20.119,Colour_Asymmetry_Pilot,2022.1.3,MacIntel,59.99880002,62c50e9c1127f2cd403a315f,0,22,22,21,1,threefour,,,,,,,,,,,,,,,,,,,,,,,,,,,,,,,,,,,,,,,,,,,,,,,,,,,,,,,,,,,,,,,,,,,,,,,,,,,,,,,,,,,,,,,,,,,,,,,,,,,,,,,,,,,,,,,,,,,,,,,,,,,,,,,,,,,,,,,,,,,,,,,,,,,,,,,,,,,,,
,,,,,,615c6b6db80030c2df00f6b7,62c5561eb3080155d5c495a6,2022-07-06_10h30.20.119,Colour_Asymmetry_Pilot,2022.1.3,MacIntel,59.99880002,62c50e9c1127f2cd403a315f,0,23,23,75,1,twofour,,,,,,,,,,,,,,,,,,,,,,,,,,,,,,,,,,,,,,,,,,,,,,,,,,,,,,,,,,,,,,,,,,,,,,,,,,,,,,,,,,,,,,,,,,,,,,,,,,,,,,,,,,,,,,,,,,,,,,,,,,,,,,,,,,,,,,,,,,,,,,,,,,,,,,,,,,,,,
,,,,,,615c6b6db80030c2df00f6b7,62c5561eb3080155d5c495a6,2022-07-06_10h30.20.119,Colour_Asymmetry_Pilot,2022.1.3,MacIntel,59.99880002,62c50e9c1127f2cd403a315f,0,24,24,1,1,onethree,,,,,,,,,,,,,,,,,,,,,,,,,,,,,,,,,,,,,,,,,,,,,,,,,,,,,,,,,,,,,,,,,,,,,,,,,,,,,,,,,,,,,,,,,,,,,,,,,,,,,,,,,,,,,,,,,,,,,,,,,,,,,,,,,,,,,,,,,,,,,,,,,,,,,,,,,,,,,
,,,,,,615c6b6db80030c2df00f6b7,62c5561eb3080155d5c495a6,2022-07-06_10h30.20.119,Colour_Asymmetry_Pilot,2022.1.3,MacIntel,59.99880002,62c50e9c1127f2cd403a315f,0,25,25,103,1,fourthree,,,,,,,,,,,,,,,,,,,,,,,,,,,,,,,,,,,,,,,,,,,,,,,,,,,,,,,,,,,,,,,,,,,,,,,,,,,,,,,,,,,,,,,,,,,,,,,,,,,,,,,,,,,,,,,,,,,,,,,,,,,,,,,,,,,,,,,,,,,,,,,,,,,,,,,,,,,,,
,,,,,,615c6b6db80030c2df00f6b7,62c5561eb3080155d5c495a6,2022-07-06_10h30.20.119,Colour_Asymmetry_Pilot,2022.1.3,MacIntel,59.99880002,62c50e9c1127f2cd403a315f,0,26,26,80,1,onetwo,,,,,,,,,,,,,,,,,,,,,,,,,,,,,,,,,,,,,,,,,,,,,,,,,,,,,,,,,,,,,,,,,,,,,,,,,,,,,,,,,,,,,,,,,,,,,,,,,,,,,,,,,,,,,,,,,,,,,,,,,,,,,,,,,,,,,,,,,,,,,,,,,,,,,,,,,,,,,
,,,,,,615c6b6db80030c2df00f6b7,62c5561eb3080155d5c495a6,2022-07-06_10h30.20.119,Colour_Asymmetry_Pilot,2022.1.3,MacIntel,59.99880002,62c50e9c1127f2cd403a315f,0,27,27,60,1,threeone,,,,,,,,,,,,,,,,,,,,,,,,,,,,,,,,,,,,,,,,,,,,,,,,,,,,,,,,,,,,,,,,,,,,,,,,,,,,,,,,,,,,,,,,,,,,,,,,,,,,,,,,,,,,,,,,,,,,,,,,,,,,,,,,,,,,,,,,,,,,,,,,,,,,,,,,,,,,,
,,,,,,615c6b6db80030c2df00f6b7,62c5561eb3080155d5c495a6,2022-07-06_10h30.20.119,Colour_Asymmetry_Pilot,2022.1.3,MacIntel,59.99880002,62c50e9c1127f2cd403a315f,0,28,28,102,1,fourtwo,,,,,,,,,,,,,,,,,,,,,,,,,,,,,,,,,,,,,,,,,,,,,,,,,,,,,,,,,,,,,,,,,,,,,,,,,,,,,,,,,,,,,,,,,,,,,,,,,,,,,,,,,,,,,,,,,,,,,,,,,,,,,,,,,,,,,,,,,,,,,,,,,,,,,,,,,,,,,
,,,,,,615c6b6db80030c2df00f6b7,62c5561eb3080155d5c495a6,2022-07-06_10h30.20.119,Colour_Asymmetry_Pilot,2022.1.3,MacIntel,59.99880002,62c50e9c1127f2cd403a315f,0,29,29,134,1,fourtwo,,,,,,,,,,,,,,,,,,,,,,,,,,,,,,,,,,,,,,,,,,,,,,,,,,,,,,,,,,,,,,,,,,,,,,,,,,,,,,,,,,,,,,,,,,,,,,,,,,,,,,,,,,,,,,,,,,,,,,,,,,,,,,,,,,,,,,,,,,,,,,,,,,,,,,,,,,,,,
,,,,,,615c6b6db80030c2df00f6b7,62c5561eb3080155d5c495a6,2022-07-06_10h30.20.119,Colour_Asymmetry_Pilot,2022.1.3,MacIntel,59.99880002,62c50e9c1127f2cd403a315f,0,30,30,20,1,threeone,,,,,,,,,,,,,,,,,,,,,,,,,,,,,,,,,,,,,,,,,,,,,,,,,,,,,,,,,,,,,,,,,,,,,,,,,,,,,,,,,,,,,,,,,,,,,,,,,,,,,,,,,,,,,,,,,,,,,,,,,,,,,,,,,,,,,,,,,,,,,,,,,,,,,,,,,,,,,
,,,,,,615c6b6db80030c2df00f6b7,62c5561eb3080155d5c495a6,2022-07-06_10h30.20.119,Colour_Asymmetry_Pilot,2022.1.3,MacIntel,59.99880002,62c50e9c1127f2cd403a315f,0,31,31,112,1,onetwo,,,,,,,,,,,,,,,,,,,,,,,,,,,,,,,,,,,,,,,,,,,,,,,,,,,,,,,,,,,,,,,,,,,,,,,,,,,,,,,,,,,,,,,,,,,,,,,,,,,,,,,,,,,,,,,,,,,,,,,,,,,,,,,,,,,,,,,,,,,,,,,,,,,,,,,,,,,,,
,,,,,,615c6b6db80030c2df00f6b7,62c5561eb3080155d5c495a6,2022-07-06_10h30.20.119,Colour_Asymmetry_Pilot,2022.1.3,MacIntel,59.99880002,62c50e9c1127f2cd403a315f,0,32,32,76,1,threeone,,,,,,,,,,,,,,,,,,,,,,,,,,,,,,,,,,,,,,,,,,,,,,,,,,,,,,,,,,,,,,,,,,,,,,,,,,,,,,,,,,,,,,,,,,,,,,,,,,,,,,,,,,,,,,,,,,,,,,,,,,,,,,,,,,,,,,,,,,,,,,,,,,,,,,,,,,,,,
,,,,,,615c6b6db80030c2df00f6b7,62c5561eb3080155d5c495a6,2022-07-06_10h30.20.119,Colour_Asymmetry_Pilot,2022.1.3,MacIntel,59.99880002,62c50e9c1127f2cd403a315f,0,33,33,99,1,twofour,,,,,,,,,,,,,,,,,,,,,,,,,,,,,,,,,,,,,,,,,,,,,,,,,,,,,,,,,,,,,,,,,,,,,,,,,,,,,,,,,,,,,,,,,,,,,,,,,,,,,,,,,,,,,,,,,,,,,,,,,,,,,,,,,,,,,,,,,,,,,,,,,,,,,,,,,,,,,
,,,,,,615c6b6db80030c2df00f6b7,62c5561eb3080155d5c495a6,2022-07-06_10h30.20.119,Colour_Asymmetry_Pilot,2022.1.3,MacIntel,59.99880002,62c50e9c1127f2cd403a315f,0,34,34,91,1,twofour,,,,,,,,,,,,,,,,,,,,,,,,,,,,,,,,,,,,,,,,,,,,,,,,,,,,,,,,,,,,,,,,,,,,,,,,,,,,,,,,,,,,,,,,,,,,,,,,,,,,,,,,,,,,,,,,,,,,,,,,,,,,,,,,,,,,,,,,,,,,,,,,,,,,,,,,,,,,,
,,,,,,615c6b6db80030c2df00f6b7,62c5561eb3080155d5c495a6,2022-07-06_10h30.20.119,Colour_Asymmetry_Pilot,2022.1.3,MacIntel,59.99880002,62c50e9c1127f2cd403a315f,0,35,35,79,1,fourthree,,,,,,,,,,,,,,,,,,,,,,,,,,,,,,,,,,,,,,,,,,,,,,,,,,,,,,,,,,,,,,,,,,,,,,,,,,,,,,,,,,,,,,,,,,,,,,,,,,,,,,,,,,,,,,,,,,,,,,,,,,,,,,,,,,,,,,,,,,,,,,,,,,,,,,,,,,,,,
,,,,,,615c6b6db80030c2df00f6b7,62c5561eb3080155d5c495a6,2022-07-06_10h30.20.119,Colour_Asymmetry_Pilot,2022.1.3,MacIntel,59.99880002,62c50e9c1127f2cd403a315f,0,36,36,146,1,twoone,,,,,,,,,,,,,,,,,,,,,,,,,,,,,,,,,,,,,,,,,,,,,,,,,,,,,,,,,,,,,,,,,,,,,,,,,,,,,,,,,,,,,,,,,,,,,,,,,,,,,,,,,,,,,,,,,,,,,,,,,,,,,,,,,,,,,,,,,,,,,,,,,,,,,,,,,,,,,
,,,,,,615c6b6db80030c2df00f6b7,62c5561eb3080155d5c495a6,2022-07-06_10h30.20.119,Colour_Asymmetry_Pilot,2022.1.3,MacIntel,59.99880002,62c50e9c1127f2cd403a315f,0,37,37,150,1,fourtwo,,,,,,,,,,,,,,,,,,,,,,,,,,,,,,,,,,,,,,,,,,,,,,,,,,,,,,,,,,,,,,,,,,,,,,,,,,,,,,,,,,,,,,,,,,,,,,,,,,,,,,,,,,,,,,,,,,,,,,,,,,,,,,,,,,,,,,,,,,,,,,,,,,,,,,,,,,,,,
,,,,,,615c6b6db80030c2df00f6b7,62c5561eb3080155d5c495a6,2022-07-06_10h30.20.119,Colour_Asymmetry_Pilot,2022.1.3,MacIntel,59.99880002,62c50e9c1127f2cd403a315f,0,38,38,22,1,fourtwo,,,,,,,,,,,,,,,,,,,,,,,,,,,,,,,,,,,,,,,,,,,,,,,,,,,,,,,,,,,,,,,,,,,,,,,,,,,,,,,,,,,,,,,,,,,,,,,,,,,,,,,,,,,,,,,,,,,,,,,,,,,,,,,,,,,,,,,,,,,,,,,,,,,,,,,,,,,,,
,,,,,,615c6b6db80030c2df00f6b7,62c5561eb3080155d5c495a6,2022-07-06_10h30.20.119,Colour_Asymmetry_Pilot,2022.1.3,MacIntel,59.99880002,62c50e9c1127f2cd403a315f,0,39,39,0,1,onetwo,,,,,,,,,,,,,,,,,,,,,,,,,,,,,,,,,,,,,,,,,,,,,,,,,,,,,,,,,,,,,,,,,,,,,,,,,,,,,,,,,,,,,,,,,,,,,,,,,,,,,,,,,,,,,,,,,,,,,,,,,,,,,,,,,,,,,,,,,,,,,,,,,,,,,,,,,,,,,
,,,,,,615c6b6db80030c2df00f6b7,62c5561eb3080155d5c495a6,2022-07-06_10h30.20.119,Colour_Asymmetry_Pilot,2022.1.3,MacIntel,59.99880002,62c50e9c1127f2cd403a315f,0,40,40,108,1,threeone,,,,,,,,,,,,,,,,,,,,,,,,,,,,,,,,,,,,,,,,,,,,,,,,,,,,,,,,,,,,,,,,,,,,,,,,,,,,,,,,,,,,,,,,,,,,,,,,,,,,,,,,,,,,,,,,,,,,,,,,,,,,,,,,,,,,,,,,,,,,,,,,,,,,,,,,,,,,,
,,,,,,615c6b6db80030c2df00f6b7,62c5561eb3080155d5c495a6,2022-07-06_10h30.20.119,Colour_Asymmetry_Pilot,2022.1.3,MacIntel,59.99880002,62c50e9c1127f2cd403a315f,0,41,41,15,1,fourthree,,,,,,,,,,,,,,,,,,,,,,,,,,,,,,,,,,,,,,,,,,,,,,,,,,,,,,,,,,,,,,,,,,,,,,,,,,,,,,,,,,,,,,,,,,,,,,,,,,,,,,,,,,,,,,,,,,,,,,,,,,,,,,,,,,,,,,,,,,,,,,,,,,,,,,,,,,,,,
,,,,,,615c6b6db80030c2df00f6b7,62c5561eb3080155d5c495a6,2022-07-06_10h30.20.119,Colour_Asymmetry_Pilot,2022.1.3,MacIntel,59.99880002,62c50e9c1127f2cd403a315f,0,42,42,82,1,twoone,,,,,,,,,,,,,,,,,,,,,,,,,,,,,,,,,,,,,,,,,,,,,,,,,,,,,,,,,,,,,,,,,,,,,,,,,,,,,,,,,,,,,,,,,,,,,,,,,,,,,,,,,,,,,,,,,,,,,,,,,,,,,,,,,,,,,,,,,,,,,,,,,,,,,,,,,,,,,
,,,,,,615c6b6db80030c2df00f6b7,62c5561eb3080155d5c495a6,2022-07-06_10h30.20.119,Colour_Asymmetry_Pilot,2022.1.3,MacIntel,59.99880002,62c50e9c1127f2cd403a315f,0,43,43,122,1,twoone,,,,,,,,,,,,,,,,,,,,,,,,,,,,,,,,,,,,,,,,,,,,,,,,,,,,,,,,,,,,,,,,,,,,,,,,,,,,,,,,,,,,,,,,,,,,,,,,,,,,,,,,,,,,,,,,,,,,,,,,,,,,,,,,,,,,,,,,,,,,,,,,,,,,,,,,,,,,,
,,,,,,615c6b6db80030c2df00f6b7,62c5561eb3080155d5c495a6,2022-07-06_10h30.20.119,Colour_Asymmetry_Pilot,2022.1.3,MacIntel,59.99880002,62c50e9c1127f2cd403a315f,0,44,44,133,1,threefour,,,,,,,,,,,,,,,,,,,,,,,,,,,,,,,,,,,,,,,,,,,,,,,,,,,,,,,,,,,,,,,,,,,,,,,,,,,,,,,,,,,,,,,,,,,,,,,,,,,,,,,,,,,,,,,,,,,,,,,,,,,,,,,,,,,,,,,,,,,,,,,,,,,,,,,,,,,,,
,,,,,,615c6b6db80030c2df00f6b7,62c5561eb3080155d5c495a6,2022-07-06_10h30.20.119,Colour_Asymmetry_Pilot,2022.1.3,MacIntel,59.99880002,62c50e9c1127f2cd403a315f,0,45,45,131,1,twofour,,,,,,,,,,,,,,,,,,,,,,,,,,,,,,,,,,,,,,,,,,,,,,,,,,,,,,,,,,,,,,,,,,,,,,,,,,,,,,,,,,,,,,,,,,,,,,,,,,,,,,,,,,,,,,,,,,,,,,,,,,,,,,,,,,,,,,,,,,,,,,,,,,,,,,,,,,,,,
,,,,,,615c6b6db80030c2df00f6b7,62c5561eb3080155d5c495a6,2022-07-06_10h30.20.119,Colour_Asymmetry_Pilot,2022.1.3,MacIntel,59.99880002,62c50e9c1127f2cd403a315f,0,46,46,37,1,threefour,,,,,,,,,,,,,,,,,,,,,,,,,,,,,,,,,,,,,,,,,,,,,,,,,,,,,,,,,,,,,,,,,,,,,,,,,,,,,,,,,,,,,,,,,,,,,,,,,,,,,,,,,,,,,,,,,,,,,,,,,,,,,,,,,,,,,,,,,,,,,,,,,,,,,,,,,,,,,
,,,,,,615c6b6db80030c2df00f6b7,62c5561eb3080155d5c495a6,2022-07-06_10h30.20.119,Colour_Asymmetry_Pilot,2022.1.3,MacIntel,59.99880002,62c50e9c1127f2cd403a315f,0,47,47,59,1,twofour,,,,,,,,,,,,,,,,,,,,,,,,,,,,,,,,,,,,,,,,,,,,,,,,,,,,,,,,,,,,,,,,,,,,,,,,,,,,,,,,,,,,,,,,,,,,,,,,,,,,,,,,,,,,,,,,,,,,,,,,,,,,,,,,,,,,,,,,,,,,,,,,,,,,,,,,,,,,,
,,,,,,615c6b6db80030c2df00f6b7,62c5561eb3080155d5c495a6,2022-07-06_10h30.20.119,Colour_Asymmetry_Pilot,2022.1.3,MacIntel,59.99880002,62c50e9c1127f2cd403a315f,0,48,48,88,1,onetwo,,,,,,,,,,,,,,,,,,,,,,,,,,,,,,,,,,,,,,,,,,,,,,,,,,,,,,,,,,,,,,,,,,,,,,,,,,,,,,,,,,,,,,,,,,,,,,,,,,,,,,,,,,,,,,,,,,,,,,,,,,,,,,,,,,,,,,,,,,,,,,,,,,,,,,,,,,,,,
,,,,,,615c6b6db80030c2df00f6b7,62c5561eb3080155d5c495a6,2022-07-06_10h30.20.119,Colour_Asymmetry_Pilot,2022.1.3,MacIntel,59.99880002,62c50e9c1127f2cd403a315f,0,49,49,31,1,fourthree,,,,,,,,,,,,,,,,,,,,,,,,,,,,,,,,,,,,,,,,,,,,,,,,,,,,,,,,,,,,,,,,,,,,,,,,,,,,,,,,,,,,,,,,,,,,,,,,,,,,,,,,,,,,,,,,,,,,,,,,,,,,,,,,,,,,,,,,,,,,,,,,,,,,,,,,,,,,,
,,,,,,615c6b6db80030c2df00f6b7,62c5561eb3080155d5c495a6,2022-07-06_10h30.20.119,Colour_Asymmetry_Pilot,2022.1.3,MacIntel,59.99880002,62c50e9c1127f2cd403a315f,0,50,50,57,1,onethree,,,,,,,,,,,,,,,,,,,,,,,,,,,,,,,,,,,,,,,,,,,,,,,,,,,,,,,,,,,,,,,,,,,,,,,,,,,,,,,,,,,,,,,,,,,,,,,,,,,,,,,,,,,,,,,,,,,,,,,,,,,,,,,,,,,,,,,,,,,,,,,,,,,,,,,,,,,,,
,,,,,,615c6b6db80030c2df00f6b7,62c5561eb3080155d5c495a6,2022-07-06_10h30.20.119,Colour_Asymmetry_Pilot,2022.1.3,MacIntel,59.99880002,62c50e9c1127f2cd403a315f,0,51,51,81,1,onethree,,,,,,,,,,,,,,,,,,,,,,,,,,,,,,,,,,,,,,,,,,,,,,,,,,,,,,,,,,,,,,,,,,,,,,,,,,,,,,,,,,,,,,,,,,,,,,,,,,,,,,,,,,,,,,,,,,,,,,,,,,,,,,,,,,,,,,,,,,,,,,,,,,,,,,,,,,,,,
,,,,,,615c6b6db80030c2df00f6b7,62c5561eb3080155d5c495a6,2022-07-06_10h30.20.119,Colour_Asymmetry_Pilot,2022.1.3,MacIntel,59.99880002,62c50e9c1127f2cd403a315f,0,52,52,25,1,onethree,,,,,,,,,,,,,,,,,,,,,,,,,,,,,,,,,,,,,,,,,,,,,,,,,,,,,,,,,,,,,,,,,,,,,,,,,,,,,,,,,,,,,,,,,,,,,,,,,,,,,,,,,,,,,,,,,,,,,,,,,,,,,,,,,,,,,,,,,,,,,,,,,,,,,,,,,,,,,
,,,,,,615c6b6db80030c2df00f6b7,62c5561eb3080155d5c495a6,2022-07-06_10h30.20.119,Colour_Asymmetry_Pilot,2022.1.3,MacIntel,59.99880002,62c50e9c1127f2cd403a315f,0,53,53,47,1,fourthree,,,,,,,,,,,,,,,,,,,,,,,,,,,,,,,,,,,,,,,,,,,,,,,,,,,,,,,,,,,,,,,,,,,,,,,,,,,,,,,,,,,,,,,,,,,,,,,,,,,,,,,,,,,,,,,,,,,,,,,,,,,,,,,,,,,,,,,,,,,,,,,,,,,,,,,,,,,,,
,,,,,,615c6b6db80030c2df00f6b7,62c5561eb3080155d5c495a6,2022-07-06_10h30.20.119,Colour_Asymmetry_Pilot,2022.1.3,MacIntel,59.99880002,62c50e9c1127f2cd403a315f,0,54,54,13,1,threefour,,,,,,,,,,,,,,,,,,,,,,,,,,,,,,,,,,,,,,,,,,,,,,,,,,,,,,,,,,,,,,,,,,,,,,,,,,,,,,,,,,,,,,,,,,,,,,,,,,,,,,,,,,,,,,,,,,,,,,,,,,,,,,,,,,,,,,,,,,,,,,,,,,,,,,,,,,,,,
,,,,,,615c6b6db80030c2df00f6b7,62c5561eb3080155d5c495a6,2022-07-06_10h30.20.119,Colour_Asymmetry_Pilot,2022.1.3,MacIntel,59.99880002,62c50e9c1127f2cd403a315f,0,55,55,78,1,fourtwo,,,,,,,,,,,,,,,,,,,,,,,,,,,,,,,,,,,,,,,,,,,,,,,,,,,,,,,,,,,,,,,,,,,,,,,,,,,,,,,,,,,,,,,,,,,,,,,,,,,,,,,,,,,,,,,,,,,,,,,,,,,,,,,,,,,,,,,,,,,,,,,,,,,,,,,,,,,,,
,,,,,,615c6b6db80030c2df00f6b7,62c5561eb3080155d5c495a6,2022-07-06_10h30.20.119,Colour_Asymmetry_Pilot,2022.1.3,MacIntel,59.99880002,62c50e9c1127f2cd403a315f,0,56,56,132,1,threeone,,,,,,,,,,,,,,,,,,,,,,,,,,,,,,,,,,,,,,,,,,,,,,,,,,,,,,,,,,,,,,,,,,,,,,,,,,,,,,,,,,,,,,,,,,,,,,,,,,,,,,,,,,,,,,,,,,,,,,,,,,,,,,,,,,,,,,,,,,,,,,,,,,,,,,,,,,,,,
,,,,,,615c6b6db80030c2df00f6b7,62c5561eb3080155d5c495a6,2022-07-06_10h30.20.119,Colour_Asymmetry_Pilot,2022.1.3,MacIntel,59.99880002,62c50e9c1127f2cd403a315f,0,57,57,48,1,onetwo,,,,,,,,,,,,,,,,,,,,,,,,,,,,,,,,,,,,,,,,,,,,,,,,,,,,,,,,,,,,,,,,,,,,,,,,,,,,,,,,,,,,,,,,,,,,,,,,,,,,,,,,,,,,,,,,,,,,,,,,,,,,,,,,,,,,,,,,,,,,,,,,,,,,,,,,,,,,,
,,,,,,615c6b6db80030c2df00f6b7,62c5561eb3080155d5c495a6,2022-07-06_10h30.20.119,Colour_Asymmetry_Pilot,2022.1.3,MacIntel,59.99880002,62c50e9c1127f2cd403a315f,0,58,58,86,1,fourtwo,,,,,,,,,,,,,,,,,,,,,,,,,,,,,,,,,,,,,,,,,,,,,,,,,,,,,,,,,,,,,,,,,,,,,,,,,,,,,,,,,,,,,,,,,,,,,,,,,,,,,,,,,,,,,,,,,,,,,,,,,,,,,,,,,,,,,,,,,,,,,,,,,,,,,,,,,,,,,
,,,,,,615c6b6db80030c2df00f6b7,62c5561eb3080155d5c495a6,2022-07-06_10h30.20.119,Colour_Asymmetry_Pilot,2022.1.3,MacIntel,59.99880002,62c50e9c1127f2cd403a315f,0,59,59,18,1,twoone,,,,,,,,,,,,,,,,,,,,,,,,,,,,,,,,,,,,,,,,,,,,,,,,,,,,,,,,,,,,,,,,,,,,,,,,,,,,,,,,,,,,,,,,,,,,,,,,,,,,,,,,,,,,,,,,,,,,,,,,,,,,,,,,,,,,,,,,,,,,,,,,,,,,,,,,,,,,,
,,,,,,615c6b6db80030c2df00f6b7,62c5561eb3080155d5c495a6,2022-07-06_10h30.20.119,Colour_Asymmetry_Pilot,2022.1.3,MacIntel,59.99880002,62c50e9c1127f2cd403a315f,0,60,60,160,1,onetwo,,,,,,,,,,,,,,,,,,,,,,,,,,,,,,,,,,,,,,,,,,,,,,,,,,,,,,,,,,,,,,,,,,,,,,,,,,,,,,,,,,,,,,,,,,,,,,,,,,,,,,,,,,,,,,,,,,,,,,,,,,,,,,,,,,,,,,,,,,,,,,,,,,,,,,,,,,,,,
,,,,,,615c6b6db80030c2df00f6b7,62c5561eb3080155d5c495a6,2022-07-06_10h30.20.119,Colour_Asymmetry_Pilot,2022.1.3,MacIntel,59.99880002,62c50e9c1127f2cd403a315f,0,61,61,104,1,onetwo,,,,,,,,,,,,,,,,,,,,,,,,,,,,,,,,,,,,,,,,,,,,,,,,,,,,,,,,,,,,,,,,,,,,,,,,,,,,,,,,,,,,,,,,,,,,,,,,,,,,,,,,,,,,,,,,,,,,,,,,,,,,,,,,,,,,,,,,,,,,,,,,,,,,,,,,,,,,,
,,,,,,615c6b6db80030c2df00f6b7,62c5561eb3080155d5c495a6,2022-07-06_10h30.20.119,Colour_Asymmetry_Pilot,2022.1.3,MacIntel,59.99880002,62c50e9c1127f2cd403a315f,0,62,62,4,1,threeone,,,,,,,,,,,,,,,,,,,,,,,,,,,,,,,,,,,,,,,,,,,,,,,,,,,,,,,,,,,,,,,,,,,,,,,,,,,,,,,,,,,,,,,,,,,,,,,,,,,,,,,,,,,,,,,,,,,,,,,,,,,,,,,,,,,,,,,,,,,,,,,,,,,,,,,,,,,,,
,,,,,,615c6b6db80030c2df00f6b7,62c5561eb3080155d5c495a6,2022-07-06_10h30.20.119,Colour_Asymmetry_Pilot,2022.1.3,MacIntel,59.99880002,62c50e9c1127f2cd403a315f,0,63,63,140,1,threeone,,,,,,,,,,,,,,,,,,,,,,,,,,,,,,,,,,,,,,,,,,,,,,,,,,,,,,,,,,,,,,,,,,,,,,,,,,,,,,,,,,,,,,,,,,,,,,,,,,,,,,,,,,,,,,,,,,,,,,,,,,,,,,,,,,,,,,,,,,,,,,,,,,,,,,,,,,,,,
,,,,,,615c6b6db80030c2df00f6b7,62c5561eb3080155d5c495a6,2022-07-06_10h30.20.119,Colour_Asymmetry_Pilot,2022.1.3,MacIntel,59.99880002,62c50e9c1127f2cd403a315f,0,64,64,27,1,twofour,,,,,,,,,,,,,,,,,,,,,,,,,,,,,,,,,,,,,,,,,,,,,,,,,,,,,,,,,,,,,,,,,,,,,,,,,,,,,,,,,,,,,,,,,,,,,,,,,,,,,,,,,,,,,,,,,,,,,,,,,,,,,,,,,,,,,,,,,,,,,,,,,,,,,,,,,,,,,
,,,,,,615c6b6db80030c2df00f6b7,62c5561eb3080155d5c495a6,2022-07-06_10h30.20.119,Colour_Asymmetry_Pilot,2022.1.3,MacIntel,59.99880002,62c50e9c1127f2cd403a315f,0,65,65,69,1,threefour,,,,,,,,,,,,,,,,,,,,,,,,,,,,,,,,,,,,,,,,,,,,,,,,,,,,,,,,,,,,,,,,,,,,,,,,,,,,,,,,,,,,,,,,,,,,,,,,,,,,,,,,,,,,,,,,,,,,,,,,,,,,,,,,,,,,,,,,,,,,,,,,,,,,,,,,,,,,,
,,,,,,615c6b6db80030c2df00f6b7,62c5561eb3080155d5c495a6,2022-07-06_10h30.20.119,Colour_Asymmetry_Pilot,2022.1.3,MacIntel,59.99880002,62c50e9c1127f2cd403a315f,0,66,66,53,1,threefour,,,,,,,,,,,,,,,,,,,,,,,,,,,,,,,,,,,,,,,,,,,,,,,,,,,,,,,,,,,,,,,,,,,,,,,,,,,,,,,,,,,,,,,,,,,,,,,,,,,,,,,,,,,,,,,,,,,,,,,,,,,,,,,,,,,,,,,,,,,,,,,,,,,,,,,,,,,,,
,,,,,,615c6b6db80030c2df00f6b7,62c5561eb3080155d5c495a6,2022-07-06_10h30.20.119,Colour_Asymmetry_Pilot,2022.1.3,MacIntel,59.99880002,62c50e9c1127f2cd403a315f,0,67,67,71,1,fourthree,,,,,,,,,,,,,,,,,,,,,,,,,,,,,,,,,,,,,,,,,,,,,,,,,,,,,,,,,,,,,,,,,,,,,,,,,,,,,,,,,,,,,,,,,,,,,,,,,,,,,,,,,,,,,,,,,,,,,,,,,,,,,,,,,,,,,,,,,,,,,,,,,,,,,,,,,,,,,
,,,,,,615c6b6db80030c2df00f6b7,62c5561eb3080155d5c495a6,2022-07-06_10h30.20.119,Colour_Asymmetry_Pilot,2022.1.3,MacIntel,59.99880002,62c50e9c1127f2cd403a315f,0,68,68,159,1,fourthree,,,,,,,,,,,,,,,,,,,,,,,,,,,,,,,,,,,,,,,,,,,,,,,,,,,,,,,,,,,,,,,,,,,,,,,,,,,,,,,,,,,,,,,,,,,,,,,,,,,,,,,,,,,,,,,,,,,,,,,,,,,,,,,,,,,,,,,,,,,,,,,,,,,,,,,,,,,,,
,,,,,,615c6b6db80030c2df00f6b7,62c5561eb3080155d5c495a6,2022-07-06_10h30.20.119,Colour_Asymmetry_Pilot,2022.1.3,MacIntel,59.99880002,62c50e9c1127f2cd403a315f,0,69,69,68,1,threeone,,,,,,,,,,,,,,,,,,,,,,,,,,,,,,,,,,,,,,,,,,,,,,,,,,,,,,,,,,,,,,,,,,,,,,,,,,,,,,,,,,,,,,,,,,,,,,,,,,,,,,,,,,,,,,,,,,,,,,,,,,,,,,,,,,,,,,,,,,,,,,,,,,,,,,,,,,,,,
,,,,,,615c6b6db80030c2df00f6b7,62c5561eb3080155d5c495a6,2022-07-06_10h30.20.119,Colour_Asymmetry_Pilot,2022.1.3,MacIntel,59.99880002,62c50e9c1127f2cd403a315f,0,70,70,130,1,twoone,,,,,,,,,,,,,,,,,,,,,,,,,,,,,,,,,,,,,,,,,,,,,,,,,,,,,,,,,,,,,,,,,,,,,,,,,,,,,,,,,,,,,,,,,,,,,,,,,,,,,,,,,,,,,,,,,,,,,,,,,,,,,,,,,,,,,,,,,,,,,,,,,,,,,,,,,,,,,
,,,,,,615c6b6db80030c2df00f6b7,62c5561eb3080155d5c495a6,2022-07-06_10h30.20.119,Colour_Asymmetry_Pilot,2022.1.3,MacIntel,59.99880002,62c50e9c1127f2cd403a315f,0,71,71,49,1,onethree,,,,,,,,,,,,,,,,,,,,,,,,,,,,,,,,,,,,,,,,,,,,,,,,,,,,,,,,,,,,,,,,,,,,,,,,,,,,,,,,,,,,,,,,,,,,,,,,,,,,,,,,,,,,,,,,,,,,,,,,,,,,,,,,,,,,,,,,,,,,,,,,,,,,,,,,,,,,,
,,,,,,615c6b6db80030c2df00f6b7,62c5561eb3080155d5c495a6,2022-07-06_10h30.20.119,Colour_Asymmetry_Pilot,2022.1.3,MacIntel,59.99880002,62c50e9c1127f2cd403a315f,0,72,72,161,1,onethree,,,,,,,,,,,,,,,,,,,,,,,,,,,,,,,,,,,,,,,,,,,,,,,,,,,,,,,,,,,,,,,,,,,,,,,,,,,,,,,,,,,,,,,,,,,,,,,,,,,,,,,,,,,,,,,,,,,,,,,,,,,,,,,,,,,,,,,,,,,,,,,,,,,,,,,,,,,,,
,,,,,,615c6b6db80030c2df00f6b7,62c5561eb3080155d5c495a6,2022-07-06_10h30.20.119,Colour_Asymmetry_Pilot,2022.1.3,MacIntel,59.99880002,62c50e9c1127f2cd403a315f,0,73,73,6,1,fourtwo,,,,,,,,,,,,,,,,,,,,,,,,,,,,,,,,,,,,,,,,,,,,,,,,,,,,,,,,,,,,,,,,,,,,,,,,,,,,,,,,,,,,,,,,,,,,,,,,,,,,,,,,,,,,,,,,,,,,,,,,,,,,,,,,,,,,,,,,,,,,,,,,,,,,,,,,,,,,,
,,,,,,615c6b6db80030c2df00f6b7,62c5561eb3080155d5c495a6,2022-07-06_10h30.20.119,Colour_Asymmetry_Pilot,2022.1.3,MacIntel,59.99880002,62c50e9c1127f2cd403a315f,0,74,74,50,1,twoone,,,,,,,,,,,,,,,,,,,,,,,,,,,,,,,,,,,,,,,,,,,,,,,,,,,,,,,,,,,,,,,,,,,,,,,,,,,,,,,,,,,,,,,,,,,,,,,,,,,,,,,,,,,,,,,,,,,,,,,,,,,,,,,,,,,,,,,,,,,,,,,,,,,,,,,,,,,,,
,,,,,,615c6b6db80030c2df00f6b7,62c5561eb3080155d5c495a6,2022-07-06_10h30.20.119,Colour_Asymmetry_Pilot,2022.1.3,MacIntel,59.99880002,62c50e9c1127f2cd403a315f,0,75,75,128,1,onetwo,,,,,,,,,,,,,,,,,,,,,,,,,,,,,,,,,,,,,,,,,,,,,,,,,,,,,,,,,,,,,,,,,,,,,,,,,,,,,,,,,,,,,,,,,,,,,,,,,,,,,,,,,,,,,,,,,,,,,,,,,,,,,,,,,,,,,,,,,,,,,,,,,,,,,,,,,,,,,
,,,,,,615c6b6db80030c2df00f6b7,62c5561eb3080155d5c495a6,2022-07-06_10h30.20.119,Colour_Asymmetry_Pilot,2022.1.3,MacIntel,59.99880002,62c50e9c1127f2cd403a315f,0,76,76,32,1,onetwo,,,,,,,,,,,,,,,,,,,,,,,,,,,,,,,,,,,,,,,,,,,,,,,,,,,,,,,,,,,,,,,,,,,,,,,,,,,,,,,,,,,,,,,,,,,,,,,,,,,,,,,,,,,,,,,,,,,,,,,,,,,,,,,,,,,,,,,,,,,,,,,,,,,,,,,,,,,,,
,,,,,,615c6b6db80030c2df00f6b7,62c5561eb3080155d5c495a6,2022-07-06_10h30.20.119,Colour_Asymmetry_Pilot,2022.1.3,MacIntel,59.99880002,62c50e9c1127f2cd403a315f,0,77,77,139,1,twofour,,,,,,,,,,,,,,,,,,,,,,,,,,,,,,,,,,,,,,,,,,,,,,,,,,,,,,,,,,,,,,,,,,,,,,,,,,,,,,,,,,,,,,,,,,,,,,,,,,,,,,,,,,,,,,,,,,,,,,,,,,,,,,,,,,,,,,,,,,,,,,,,,,,,,,,,,,,,,
,,,,,,615c6b6db80030c2df00f6b7,62c5561eb3080155d5c495a6,2022-07-06_10h30.20.119,Colour_Asymmetry_Pilot,2022.1.3,MacIntel,59.99880002,62c50e9c1127f2cd403a315f,0,78,78,44,1,threeone,,,,,,,,,,,,,,,,,,,,,,,,,,,,,,,,,,,,,,,,,,,,,,,,,,,,,,,,,,,,,,,,,,,,,,,,,,,,,,,,,,,,,,,,,,,,,,,,,,,,,,,,,,,,,,,,,,,,,,,,,,,,,,,,,,,,,,,,,,,,,,,,,,,,,,,,,,,,,
,,,,,,615c6b6db80030c2df00f6b7,62c5561eb3080155d5c495a6,2022-07-06_10h30.20.119,Colour_Asymmetry_Pilot,2022.1.3,MacIntel,59.99880002,62c50e9c1127f2cd403a315f,0,79,79,125,1,threefour,,,,,,,,,,,,,,,,,,,,,,,,,,,,,,,,,,,,,,,,,,,,,,,,,,,,,,,,,,,,,,,,,,,,,,,,,,,,,,,,,,,,,,,,,,,,,,,,,,,,,,,,,,,,,,,,,,,,,,,,,,,,,,,,,,,,,,,,,,,,,,,,,,,,,,,,,,,,,
,,,,,,615c6b6db80030c2df00f6b7,62c5561eb3080155d5c495a6,2022-07-06_10h30.20.119,Colour_Asymmetry_Pilot,2022.1.3,MacIntel,59.99880002,62c50e9c1127f2cd403a315f,0,80,80,45,1,threefour,,,,,,,,,,,,,,,,,,,,,,,,,,,,,,,,,,,,,,,,,,,,,,,,,,,,,,,,,,,,,,,,,,,,,,,,,,,,,,,,,,,,,,,,,,,,,,,,,,,,,,,,,,,,,,,,,,,,,,,,,,,,,,,,,,,,,,,,,,,,,,,,,,,,,,,,,,,,,
,,,,,,615c6b6db80030c2df00f6b7,62c5561eb3080155d5c495a6,2022-07-06_10h30.20.119,Colour_Asymmetry_Pilot,2022.1.3,MacIntel,59.99880002,62c50e9c1127f2cd403a315f,0,81,81,143,1,fourthree,,,,,,,,,,,,,,,,,,,,,,,,,,,,,,,,,,,,,,,,,,,,,,,,,,,,,,,,,,,,,,,,,,,,,,,,,,,,,,,,,,,,,,,,,,,,,,,,,,,,,,,,,,,,,,,,,,,,,,,,,,,,,,,,,,,,,,,,,,,,,,,,,,,,,,,,,,,,,
,,,,,,615c6b6db80030c2df00f6b7,62c5561eb3080155d5c495a6,2022-07-06_10h30.20.119,Colour_Asymmetry_Pilot,2022.1.3,MacIntel,59.99880002,62c50e9c1127f2cd403a315f,0,82,82,118,1,fourtwo,,,,,,,,,,,,,,,,,,,,,,,,,,,,,,,,,,,,,,,,,,,,,,,,,,,,,,,,,,,,,,,,,,,,,,,,,,,,,,,,,,,,,,,,,,,,,,,,,,,,,,,,,,,,,,,,,,,,,,,,,,,,,,,,,,,,,,,,,,,,,,,,,,,,,,,,,,,,,
,,,,,,615c6b6db80030c2df00f6b7,62c5561eb3080155d5c495a6,2022-07-06_10h30.20.119,Colour_Asymmetry_Pilot,2022.1.3,MacIntel,59.99880002,62c50e9c1127f2cd403a315f,0,83,83,90,1,twoone,,,,,,,,,,,,,,,,,,,,,,,,,,,,,,,,,,,,,,,,,,,,,,,,,,,,,,,,,,,,,,,,,,,,,,,,,,,,,,,,,,,,,,,,,,,,,,,,,,,,,,,,,,,,,,,,,,,,,,,,,,,,,,,,,,,,,,,,,,,,,,,,,,,,,,,,,,,,,
,,,,,,615c6b6db80030c2df00f6b7,62c5561eb3080155d5c495a6,2022-07-06_10h30.20.119,Colour_Asymmetry_Pilot,2022.1.3,MacIntel,59.99880002,62c50e9c1127f2cd403a315f,0,84,84,65,1,onethree,,,,,,,,,,,,,,,,,,,,,,,,,,,,,,,,,,,,,,,,,,,,,,,,,,,,,,,,,,,,,,,,,,,,,,,,,,,,,,,,,,,,,,,,,,,,,,,,,,,,,,,,,,,,,,,,,,,,,,,,,,,,,,,,,,,,,,,,,,,,,,,,,,,,,,,,,,,,,
,,,,,,615c6b6db80030c2df00f6b7,62c5561eb3080155d5c495a6,2022-07-06_10h30.20.119,Colour_Asymmetry_Pilot,2022.1.3,MacIntel,59.99880002,62c50e9c1127f2cd403a315f,0,85,85,38,1,fourtwo,,,,,,,,,,,,,,,,,,,,,,,,,,,,,,,,,,,,,,,,,,,,,,,,,,,,,,,,,,,,,,,,,,,,,,,,,,,,,,,,,,,,,,,,,,,,,,,,,,,,,,,,,,,,,,,,,,,,,,,,,,,,,,,,,,,,,,,,,,,,,,,,,,,,,,,,,,,,,
,,,,,,615c6b6db80030c2df00f6b7,62c5561eb3080155d5c495a6,2022-07-06_10h30.20.119,Colour_Asymmetry_Pilot,2022.1.3,MacIntel,59.99880002,62c50e9c1127f2cd403a315f,0,86,86,127,1,fourthree,,,,,,,,,,,,,,,,,,,,,,,,,,,,,,,,,,,,,,,,,,,,,,,,,,,,,,,,,,,,,,,,,,,,,,,,,,,,,,,,,,,,,,,,,,,,,,,,,,,,,,,,,,,,,,,,,,,,,,,,,,,,,,,,,,,,,,,,,,,,,,,,,,,,,,,,,,,,,
,,,,,,615c6b6db80030c2df00f6b7,62c5561eb3080155d5c495a6,2022-07-06_10h30.20.119,Colour_Asymmetry_Pilot,2022.1.3,MacIntel,59.99880002,62c50e9c1127f2cd403a315f,0,87,87,24,1,onetwo,,,,,,,,,,,,,,,,,,,,,,,,,,,,,,,,,,,,,,,,,,,,,,,,,,,,,,,,,,,,,,,,,,,,,,,,,,,,,,,,,,,,,,,,,,,,,,,,,,,,,,,,,,,,,,,,,,,,,,,,,,,,,,,,,,,,,,,,,,,,,,,,,,,,,,,,,,,,,
,,,,,,615c6b6db80030c2df00f6b7,62c5561eb3080155d5c495a6,2022-07-06_10h30.20.119,Colour_Asymmetry_Pilot,2022.1.3,MacIntel,59.99880002,62c50e9c1127f2cd403a315f,0,88,88,30,1,fourtwo,,,,,,,,,,,,,,,,,,,,,,,,,,,,,,,,,,,,,,,,,,,,,,,,,,,,,,,,,,,,,,,,,,,,,,,,,,,,,,,,,,,,,,,,,,,,,,,,,,,,,,,,,,,,,,,,,,,,,,,,,,,,,,,,,,,,,,,,,,,,,,,,,,,,,,,,,,,,,
,,,,,,615c6b6db80030c2df00f6b7,62c5561eb3080155d5c495a6,2022-07-06_10h30.20.119,Colour_Asymmetry_Pilot,2022.1.3,MacIntel,59.99880002,62c50e9c1127f2cd403a315f,0,89,89,105,1,onethree,,,,,,,,,,,,,,,,,,,,,,,,,,,,,,,,,,,,,,,,,,,,,,,,,,,,,,,,,,,,,,,,,,,,,,,,,,,,,,,,,,,,,,,,,,,,,,,,,,,,,,,,,,,,,,,,,,,,,,,,,,,,,,,,,,,,,,,,,,,,,,,,,,,,,,,,,,,,,
,,,,,,615c6b6db80030c2df00f6b7,62c5561eb3080155d5c495a6,2022-07-06_10h30.20.119,Colour_Asymmetry_Pilot,2022.1.3,MacIntel,59.99880002,62c50e9c1127f2cd403a315f,0,90,90,9,1,onethree,,,,,,,,,,,,,,,,,,,,,,,,,,,,,,,,,,,,,,,,,,,,,,,,,,,,,,,,,,,,,,,,,,,,,,,,,,,,,,,,,,,,,,,,,,,,,,,,,,,,,,,,,,,,,,,,,,,,,,,,,,,,,,,,,,,,,,,,,,,,,,,,,,,,,,,,,,,,,
,,,,,,615c6b6db80030c2df00f6b7,62c5561eb3080155d5c495a6,2022-07-06_10h30.20.119,Colour_Asymmetry_Pilot,2022.1.3,MacIntel,59.99880002,62c50e9c1127f2cd403a315f,0,91,91,16,1,onetwo,,,,,,,,,,,,,,,,,,,,,,,,,,,,,,,,,,,,,,,,,,,,,,,,,,,,,,,,,,,,,,,,,,,,,,,,,,,,,,,,,,,,,,,,,,,,,,,,,,,,,,,,,,,,,,,,,,,,,,,,,,,,,,,,,,,,,,,,,,,,,,,,,,,,,,,,,,,,,
,,,,,,615c6b6db80030c2df00f6b7,62c5561eb3080155d5c495a6,2022-07-06_10h30.20.119,Colour_Asymmetry_Pilot,2022.1.3,MacIntel,59.99880002,62c50e9c1127f2cd403a315f,0,92,92,97,1,onethree,,,,,,,,,,,,,,,,,,,,,,,,,,,,,,,,,,,,,,,,,,,,,,,,,,,,,,,,,,,,,,,,,,,,,,,,,,,,,,,,,,,,,,,,,,,,,,,,,,,,,,,,,,,,,,,,,,,,,,,,,,,,,,,,,,,,,,,,,,,,,,,,,,,,,,,,,,,,,
,,,,,,615c6b6db80030c2df00f6b7,62c5561eb3080155d5c495a6,2022-07-06_10h30.20.119,Colour_Asymmetry_Pilot,2022.1.3,MacIntel,59.99880002,62c50e9c1127f2cd403a315f,0,93,93,145,1,onethree,,,,,,,,,,,,,,,,,,,,,,,,,,,,,,,,,,,,,,,,,,,,,,,,,,,,,,,,,,,,,,,,,,,,,,,,,,,,,,,,,,,,,,,,,,,,,,,,,,,,,,,,,,,,,,,,,,,,,,,,,,,,,,,,,,,,,,,,,,,,,,,,,,,,,,,,,,,,,
,,,,,,615c6b6db80030c2df00f6b7,62c5561eb3080155d5c495a6,2022-07-06_10h30.20.119,Colour_Asymmetry_Pilot,2022.1.3,MacIntel,59.99880002,62c50e9c1127f2cd403a315f,0,94,94,66,1,twoone,,,,,,,,,,,,,,,,,,,,,,,,,,,,,,,,,,,,,,,,,,,,,,,,,,,,,,,,,,,,,,,,,,,,,,,,,,,,,,,,,,,,,,,,,,,,,,,,,,,,,,,,,,,,,,,,,,,,,,,,,,,,,,,,,,,,,,,,,,,,,,,,,,,,,,,,,,,,,
,,,,,,615c6b6db80030c2df00f6b7,62c5561eb3080155d5c495a6,2022-07-06_10h30.20.119,Colour_Asymmetry_Pilot,2022.1.3,MacIntel,59.99880002,62c50e9c1127f2cd403a315f,0,95,95,141,1,threefour,,,,,,,,,,,,,,,,,,,,,,,,,,,,,,,,,,,,,,,,,,,,,,,,,,,,,,,,,,,,,,,,,,,,,,,,,,,,,,,,,,,,,,,,,,,,,,,,,,,,,,,,,,,,,,,,,,,,,,,,,,,,,,,,,,,,,,,,,,,,,,,,,,,,,,,,,,,,,
,,,,,,615c6b6db80030c2df00f6b7,62c5561eb3080155d5c495a6,2022-07-06_10h30.20.119,Colour_Asymmetry_Pilot,2022.1.3,MacIntel,59.99880002,62c50e9c1127f2cd403a315f,0,96,96,111,1,fourthree,,,,,,,,,,,,,,,,,,,,,,,,,,,,,,,,,,,,,,,,,,,,,,,,,,,,,,,,,,,,,,,,,,,,,,,,,,,,,,,,,,,,,,,,,,,,,,,,,,,,,,,,,,,,,,,,,,,,,,,,,,,,,,,,,,,,,,,,,,,,,,,,,,,,,,,,,,,,,
,,,,,,615c6b6db80030c2df00f6b7,62c5561eb3080155d5c495a6,2022-07-06_10h30.20.119,Colour_Asymmetry_Pilot,2022.1.3,MacIntel,59.99880002,62c50e9c1127f2cd403a315f,0,97,97,147,1,twofour,,,,,,,,,,,,,,,,,,,,,,,,,,,,,,,,,,,,,,,,,,,,,,,,,,,,,,,,,,,,,,,,,,,,,,,,,,,,,,,,,,,,,,,,,,,,,,,,,,,,,,,,,,,,,,,,,,,,,,,,,,,,,,,,,,,,,,,,,,,,,,,,,,,,,,,,,,,,,
,,,,,,615c6b6db80030c2df00f6b7,62c5561eb3080155d5c495a6,2022-07-06_10h30.20.119,Colour_Asymmetry_Pilot,2022.1.3,MacIntel,59.99880002,62c50e9c1127f2cd403a315f,0,98,98,123,1,twofour,,,,,,,,,,,,,,,,,,,,,,,,,,,,,,,,,,,,,,,,,,,,,,,,,,,,,,,,,,,,,,,,,,,,,,,,,,,,,,,,,,,,,,,,,,,,,,,,,,,,,,,,,,,,,,,,,,,,,,,,,,,,,,,,,,,,,,,,,,,,,,,,,,,,,,,,,,,,,
,,,,,,615c6b6db80030c2df00f6b7,62c5561eb3080155d5c495a6,2022-07-06_10h30.20.119,Colour_Asymmetry_Pilot,2022.1.3,MacIntel,59.99880002,62c50e9c1127f2cd403a315f,0,99,99,148,1,threeone,,,,,,,,,,,,,,,,,,,,,,,,,,,,,,,,,,,,,,,,,,,,,,,,,,,,,,,,,,,,,,,,,,,,,,,,,,,,,,,,,,,,,,,,,,,,,,,,,,,,,,,,,,,,,,,,,,,,,,,,,,,,,,,,,,,,,,,,,,,,,,,,,,,,,,,,,,,,,
,,,,,,615c6b6db80030c2df00f6b7,62c5561eb3080155d5c495a6,2022-07-06_10h30.20.119,Colour_Asymmetry_Pilot,2022.1.3,MacIntel,59.99880002,62c50e9c1127f2cd403a315f,0,100,100,121,1,onethree,,,,,,,,,,,,,,,,,,,,,,,,,,,,,,,,,,,,,,,,,,,,,,,,,,,,,,,,,,,,,,,,,,,,,,,,,,,,,,,,,,,,,,,,,,,,,,,,,,,,,,,,,,,,,,,,,,,,,,,,,,,,,,,,,,,,,,,,,,,,,,,,,,,,,,,,,,,,,
,,,,,,615c6b6db80030c2df00f6b7,62c5561eb3080155d5c495a6,2022-07-06_10h30.20.119,Colour_Asymmetry_Pilot,2022.1.3,MacIntel,59.99880002,62c50e9c1127f2cd403a315f,0,101,101,158,1,fourtwo,,,,,,,,,,,,,,,,,,,,,,,,,,,,,,,,,,,,,,,,,,,,,,,,,,,,,,,,,,,,,,,,,,,,,,,,,,,,,,,,,,,,,,,,,,,,,,,,,,,,,,,,,,,,,,,,,,,,,,,,,,,,,,,,,,,,,,,,,,,,,,,,,,,,,,,,,,,,,
,,,,,,615c6b6db80030c2df00f6b7,62c5561eb3080155d5c495a6,2022-07-06_10h30.20.119,Colour_Asymmetry_Pilot,2022.1.3,MacIntel,59.99880002,62c50e9c1127f2cd403a315f,0,102,102,98,1,twoone,,,,,,,,,,,,,,,,,,,,,,,,,,,,,,,,,,,,,,,,,,,,,,,,,,,,,,,,,,,,,,,,,,,,,,,,,,,,,,,,,,,,,,,,,,,,,,,,,,,,,,,,,,,,,,,,,,,,,,,,,,,,,,,,,,,,,,,,,,,,,,,,,,,,,,,,,,,,,
,,,,,,615c6b6db80030c2df00f6b7,62c5561eb3080155d5c495a6,2022-07-06_10h30.20.119,Colour_Asymmetry_Pilot,2022.1.3,MacIntel,59.99880002,62c50e9c1127f2cd403a315f,0,103,103,29,1,threefour,,,,,,,,,,,,,,,,,,,,,,,,,,,,,,,,,,,,,,,,,,,,,,,,,,,,,,,,,,,,,,,,,,,,,,,,,,,,,,,,,,,,,,,,,,,,,,,,,,,,,,,,,,,,,,,,,,,,,,,,,,,,,,,,,,,,,,,,,,,,,,,,,,,,,,,,,,,,,
,,,,,,615c6b6db80030c2df00f6b7,62c5561eb3080155d5c495a6,2022-07-06_10h30.20.119,Colour_Asymmetry_Pilot,2022.1.3,MacIntel,59.99880002,62c50e9c1127f2cd403a315f,0,104,104,115,1,twofour,,,,,,,,,,,,,,,,,,,,,,,,,,,,,,,,,,,,,,,,,,,,,,,,,,,,,,,,,,,,,,,,,,,,,,,,,,,,,,,,,,,,,,,,,,,,,,,,,,,,,,,,,,,,,,,,,,,,,,,,,,,,,,,,,,,,,,,,,,,,,,,,,,,,,,,,,,,,,
,,,,,,615c6b6db80030c2df00f6b7,62c5561eb3080155d5c495a6,2022-07-06_10h30.20.119,Colour_Asymmetry_Pilot,2022.1.3,MacIntel,59.99880002,62c50e9c1127f2cd403a315f,0,105,105,136,1,onetwo,,,,,,,,,,,,,,,,,,,,,,,,,,,,,,,,,,,,,,,,,,,,,,,,,,,,,,,,,,,,,,,,,,,,,,,,,,,,,,,,,,,,,,,,,,,,,,,,,,,,,,,,,,,,,,,,,,,,,,,,,,,,,,,,,,,,,,,,,,,,,,,,,,,,,,,,,,,,,
,,,,,,615c6b6db80030c2df00f6b7,62c5561eb3080155d5c495a6,2022-07-06_10h30.20.119,Colour_Asymmetry_Pilot,2022.1.3,MacIntel,59.99880002,62c50e9c1127f2cd403a315f,0,106,106,117,1,threefour,,,,,,,,,,,,,,,,,,,,,,,,,,,,,,,,,,,,,,,,,,,,,,,,,,,,,,,,,,,,,,,,,,,,,,,,,,,,,,,,,,,,,,,,,,,,,,,,,,,,,,,,,,,,,,,,,,,,,,,,,,,,,,,,,,,,,,,,,,,,,,,,,,,,,,,,,,,,,
,,,,,,615c6b6db80030c2df00f6b7,62c5561eb3080155d5c495a6,2022-07-06_10h30.20.119,Colour_Asymmetry_Pilot,2022.1.3,MacIntel,59.99880002,62c50e9c1127f2cd403a315f,0,107,107,74,1,twoone,,,,,,,,,,,,,,,,,,,,,,,,,,,,,,,,,,,,,,,,,,,,,,,,,,,,,,,,,,,,,,,,,,,,,,,,,,,,,,,,,,,,,,,,,,,,,,,,,,,,,,,,,,,,,,,,,,,,,,,,,,,,,,,,,,,,,,,,,,,,,,,,,,,,,,,,,,,,,
,,,,,,615c6b6db80030c2df00f6b7,62c5561eb3080155d5c495a6,2022-07-06_10h30.20.119,Colour_Asymmetry_Pilot,2022.1.3,MacIntel,59.99880002,62c50e9c1127f2cd403a315f,0,108,108,5,1,threefour,,,,,,,,,,,,,,,,,,,,,,,,,,,,,,,,,,,,,,,,,,,,,,,,,,,,,,,,,,,,,,,,,,,,,,,,,,,,,,,,,,,,,,,,,,,,,,,,,,,,,,,,,,,,,,,,,,,,,,,,,,,,,,,,,,,,,,,,,,,,,,,,,,,,,,,,,,,,,
,,,,,,615c6b6db80030c2df00f6b7,62c5561eb3080155d5c495a6,2022-07-06_10h30.20.119,Colour_Asymmetry_Pilot,2022.1.3,MacIntel,59.99880002,62c50e9c1127f2cd403a315f,0,109,109,83,1,twofour,,,,,,,,,,,,,,,,,,,,,,,,,,,,,,,,,,,,,,,,,,,,,,,,,,,,,,,,,,,,,,,,,,,,,,,,,,,,,,,,,,,,,,,,,,,,,,,,,,,,,,,,,,,,,,,,,,,,,,,,,,,,,,,,,,,,,,,,,,,,,,,,,,,,,,,,,,,,,
,,,,,,615c6b6db80030c2df00f6b7,62c5561eb3080155d5c495a6,2022-07-06_10h30.20.119,Colour_Asymmetry_Pilot,2022.1.3,MacIntel,59.99880002,62c50e9c1127f2cd403a315f,0,110,110,41,1,onethree,,,,,,,,,,,,,,,,,,,,,,,,,,,,,,,,,,,,,,,,,,,,,,,,,,,,,,,,,,,,,,,,,,,,,,,,,,,,,,,,,,,,,,,,,,,,,,,,,,,,,,,,,,,,,,,,,,,,,,,,,,,,,,,,,,,,,,,,,,,,,,,,,,,,,,,,,,,,,
,,,,,,615c6b6db80030c2df00f6b7,62c5561eb3080155d5c495a6,2022-07-06_10h30.20.119,Colour_Asymmetry_Pilot,2022.1.3,MacIntel,59.99880002,62c50e9c1127f2cd403a315f,0,111,111,153,1,onethree,,,,,,,,,,,,,,,,,,,,,,,,,,,,,,,,,,,,,,,,,,,,,,,,,,,,,,,,,,,,,,,,,,,,,,,,,,,,,,,,,,,,,,,,,,,,,,,,,,,,,,,,,,,,,,,,,,,,,,,,,,,,,,,,,,,,,,,,,,,,,,,,,,,,,,,,,,,,,
,,,,,,615c6b6db80030c2df00f6b7,62c5561eb3080155d5c495a6,2022-07-06_10h30.20.119,Colour_Asymmetry_Pilot,2022.1.3,MacIntel,59.99880002,62c50e9c1127f2cd403a315f,0,112,112,63,1,fourthree,,,,,,,,,,,,,,,,,,,,,,,,,,,,,,,,,,,,,,,,,,,,,,,,,,,,,,,,,,,,,,,,,,,,,,,,,,,,,,,,,,,,,,,,,,,,,,,,,,,,,,,,,,,,,,,,,,,,,,,,,,,,,,,,,,,,,,,,,,,,,,,,,,,,,,,,,,,,,
,,,,,,615c6b6db80030c2df00f6b7,62c5561eb3080155d5c495a6,2022-07-06_10h30.20.119,Colour_Asymmetry_Pilot,2022.1.3,MacIntel,59.99880002,62c50e9c1127f2cd403a315f,0,113,113,96,1,onetwo,,,,,,,,,,,,,,,,,,,,,,,,,,,,,,,,,,,,,,,,,,,,,,,,,,,,,,,,,,,,,,,,,,,,,,,,,,,,,,,,,,,,,,,,,,,,,,,,,,,,,,,,,,,,,,,,,,,,,,,,,,,,,,,,,,,,,,,,,,,,,,,,,,,,,,,,,,,,,
,,,,,,615c6b6db80030c2df00f6b7,62c5561eb3080155d5c495a6,2022-07-06_10h30.20.119,Colour_Asymmetry_Pilot,2022.1.3,MacIntel,59.99880002,62c50e9c1127f2cd403a315f,0,114,114,26,1,twoone,,,,,,,,,,,,,,,,,,,,,,,,,,,,,,,,,,,,,,,,,,,,,,,,,,,,,,,,,,,,,,,,,,,,,,,,,,,,,,,,,,,,,,,,,,,,,,,,,,,,,,,,,,,,,,,,,,,,,,,,,,,,,,,,,,,,,,,,,,,,,,,,,,,,,,,,,,,,,
,,,,,,615c6b6db80030c2df00f6b7,62c5561eb3080155d5c495a6,2022-07-06_10h30.20.119,Colour_Asymmetry_Pilot,2022.1.3,MacIntel,59.99880002,62c50e9c1127f2cd403a315f,0,115,115,101,1,threefour,,,,,,,,,,,,,,,,,,,,,,,,,,,,,,,,,,,,,,,,,,,,,,,,,,,,,,,,,,,,,,,,,,,,,,,,,,,,,,,,,,,,,,,,,,,,,,,,,,,,,,,,,,,,,,,,,,,,,,,,,,,,,,,,,,,,,,,,,,,,,,,,,,,,,,,,,,,,,
,,,,,,615c6b6db80030c2df00f6b7,62c5561eb3080155d5c495a6,2022-07-06_10h30.20.119,Colour_Asymmetry_Pilot,2022.1.3,MacIntel,59.99880002,62c50e9c1127f2cd403a315f,0,116,116,156,1,threeone,,,,,,,,,,,,,,,,,,,,,,,,,,,,,,,,,,,,,,,,,,,,,,,,,,,,,,,,,,,,,,,,,,,,,,,,,,,,,,,,,,,,,,,,,,,,,,,,,,,,,,,,,,,,,,,,,,,,,,,,,,,,,,,,,,,,,,,,,,,,,,,,,,,,,,,,,,,,,
,,,,,,615c6b6db80030c2df00f6b7,62c5561eb3080155d5c495a6,2022-07-06_10h30.20.119,Colour_Asymmetry_Pilot,2022.1.3,MacIntel,59.99880002,62c50e9c1127f2cd403a315f,0,117,117,35,1,twofour,,,,,,,,,,,,,,,,,,,,,,,,,,,,,,,,,,,,,,,,,,,,,,,,,,,,,,,,,,,,,,,,,,,,,,,,,,,,,,,,,,,,,,,,,,,,,,,,,,,,,,,,,,,,,,,,,,,,,,,,,,,,,,,,,,,,,,,,,,,,,,,,,,,,,,,,,,,,,
,,,,,,615c6b6db80030c2df00f6b7,62c5561eb3080155d5c495a6,2022-07-06_10h30.20.119,Colour_Asymmetry_Pilot,2022.1.3,MacIntel,59.99880002,62c50e9c1127f2cd403a315f,0,118,118,100,1,threeone,,,,,,,,,,,,,,,,,,,,,,,,,,,,,,,,,,,,,,,,,,,,,,,,,,,,,,,,,,,,,,,,,,,,,,,,,,,,,,,,,,,,,,,,,,,,,,,,,,,,,,,,,,,,,,,,,,,,,,,,,,,,,,,,,,,,,,,,,,,,,,,,,,,,,,,,,,,,,
,,,,,,615c6b6db80030c2df00f6b7,62c5561eb3080155d5c495a6,2022-07-06_10h30.20.119,Colour_Asymmetry_Pilot,2022.1.3,MacIntel,59.99880002,62c50e9c1127f2cd403a315f,0,119,119,89,1,onethree,,,,,,,,,,,,,,,,,,,,,,,,,,,,,,,,,,,,,,,,,,,,,,,,,,,,,,,,,,,,,,,,,,,,,,,,,,,,,,,,,,,,,,,,,,,,,,,,,,,,,,,,,,,,,,,,,,,,,,,,,,,,,,,,,,,,,,,,,,,,,,,,,,,,,,,,,,,,,
,,,,,,615c6b6db80030c2df00f6b7,62c5561eb3080155d5c495a6,2022-07-06_10h30.20.119,Colour_Asymmetry_Pilot,2022.1.3,MacIntel,59.99880002,62c50e9c1127f2cd403a315f,0,120,120,126,1,fourtwo,,,,,,,,,,,,,,,,,,,,,,,,,,,,,,,,,,,,,,,,,,,,,,,,,,,,,,,,,,,,,,,,,,,,,,,,,,,,,,,,,,,,,,,,,,,,,,,,,,,,,,,,,,,,,,,,,,,,,,,,,,,,,,,,,,,,,,,,,,,,,,,,,,,,,,,,,,,,,
,,,,,,615c6b6db80030c2df00f6b7,62c5561eb3080155d5c495a6,2022-07-06_10h30.20.119,Colour_Asymmetry_Pilot,2022.1.3,MacIntel,59.99880002,62c50e9c1127f2cd403a315f,0,121,121,154,1,twoone,,,,,,,,,,,,,,,,,,,,,,,,,,,,,,,,,,,,,,,,,,,,,,,,,,,,,,,,,,,,,,,,,,,,,,,,,,,,,,,,,,,,,,,,,,,,,,,,,,,,,,,,,,,,,,,,,,,,,,,,,,,,,,,,,,,,,,,,,,,,,,,,,,,,,,,,,,,,,
,,,,,,615c6b6db80030c2df00f6b7,62c5561eb3080155d5c495a6,2022-07-06_10h30.20.119,Colour_Asymmetry_Pilot,2022.1.3,MacIntel,59.99880002,62c50e9c1127f2cd403a315f,0,122,122,39,1,fourthree,,,,,,,,,,,,,,,,,,,,,,,,,,,,,,,,,,,,,,,,,,,,,,,,,,,,,,,,,,,,,,,,,,,,,,,,,,,,,,,,,,,,,,,,,,,,,,,,,,,,,,,,,,,,,,,,,,,,,,,,,,,,,,,,,,,,,,,,,,,,,,,,,,,,,,,,,,,,,
,,,,,,615c6b6db80030c2df00f6b7,62c5561eb3080155d5c495a6,2022-07-06_10h30.20.119,Colour_Asymmetry_Pilot,2022.1.3,MacIntel,59.99880002,62c50e9c1127f2cd403a315f,0,123,123,51,1,twofour,,,,,,,,,,,,,,,,,,,,,,,,,,,,,,,,,,,,,,,,,,,,,,,,,,,,,,,,,,,,,,,,,,,,,,,,,,,,,,,,,,,,,,,,,,,,,,,,,,,,,,,,,,,,,,,,,,,,,,,,,,,,,,,,,,,,,,,,,,,,,,,,,,,,,,,,,,,,,
,,,,,,615c6b6db80030c2df00f6b7,62c5561eb3080155d5c495a6,2022-07-06_10h30.20.119,Colour_Asymmetry_Pilot,2022.1.3,MacIntel,59.99880002,62c50e9c1127f2cd403a315f,0,124,124,33,1,onethree,,,,,,,,,,,,,,,,,,,,,,,,,,,,,,,,,,,,,,,,,,,,,,,,,,,,,,,,,,,,,,,,,,,,,,,,,,,,,,,,,,,,,,,,,,,,,,,,,,,,,,,,,,,,,,,,,,,,,,,,,,,,,,,,,,,,,,,,,,,,,,,,,,,,,,,,,,,,,
,,,,,,615c6b6db80030c2df00f6b7,62c5561eb3080155d5c495a6,2022-07-06_10h30.20.119,Colour_Asymmetry_Pilot,2022.1.3,MacIntel,59.99880002,62c50e9c1127f2cd403a315f,0,125,125,19,1,twofour,,,,,,,,,,,,,,,,,,,,,,,,,,,,,,,,,,,,,,,,,,,,,,,,,,,,,,,,,,,,,,,,,,,,,,,,,,,,,,,,,,,,,,,,,,,,,,,,,,,,,,,,,,,,,,,,,,,,,,,,,,,,,,,,,,,,,,,,,,,,,,,,,,,,,,,,,,,,,
,,,,,,615c6b6db80030c2df00f6b7,62c5561eb3080155d5c495a6,2022-07-06_10h30.20.119,Colour_Asymmetry_Pilot,2022.1.3,MacIntel,59.99880002,62c50e9c1127f2cd403a315f,0,126,126,72,1,onetwo,,,,,,,,,,,,,,,,,,,,,,,,,,,,,,,,,,,,,,,,,,,,,,,,,,,,,,,,,,,,,,,,,,,,,,,,,,,,,,,,,,,,,,,,,,,,,,,,,,,,,,,,,,,,,,,,,,,,,,,,,,,,,,,,,,,,,,,,,,,,,,,,,,,,,,,,,,,,,
,,,,,,615c6b6db80030c2df00f6b7,62c5561eb3080155d5c495a6,2022-07-06_10h30.20.119,Colour_Asymmetry_Pilot,2022.1.3,MacIntel,59.99880002,62c50e9c1127f2cd403a315f,0,127,127,11,1,twofour,,,,,,,,,,,,,,,,,,,,,,,,,,,,,,,,,,,,,,,,,,,,,,,,,,,,,,,,,,,,,,,,,,,,,,,,,,,,,,,,,,,,,,,,,,,,,,,,,,,,,,,,,,,,,,,,,,,,,,,,,,,,,,,,,,,,,,,,,,,,,,,,,,,,,,,,,,,,,
,,,,,,615c6b6db80030c2df00f6b7,62c5561eb3080155d5c495a6,2022-07-06_10h30.20.119,Colour_Asymmetry_Pilot,2022.1.3,MacIntel,59.99880002,62c50e9c1127f2cd403a315f,0,128,128,106,1,twoone,,,,,,,,,,,,,,,,,,,,,,,,,,,,,,,,,,,,,,,,,,,,,,,,,,,,,,,,,,,,,,,,,,,,,,,,,,,,,,,,,,,,,,,,,,,,,,,,,,,,,,,,,,,,,,,,,,,,,,,,,,,,,,,,,,,,,,,,,,,,,,,,,,,,,,,,,,,,,
,,,,,,615c6b6db80030c2df00f6b7,62c5561eb3080155d5c495a6,2022-07-06_10h30.20.119,Colour_Asymmetry_Pilot,2022.1.3,MacIntel,59.99880002,62c50e9c1127f2cd403a315f,0,129,129,138,1,twoone,,,,,,,,,,,,,,,,,,,,,,,,,,,,,,,,,,,,,,,,,,,,,,,,,,,,,,,,,,,,,,,,,,,,,,,,,,,,,,,,,,,,,,,,,,,,,,,,,,,,,,,,,,,,,,,,,,,,,,,,,,,,,,,,,,,,,,,,,,,,,,,,,,,,,,,,,,,,,
,,,,,,615c6b6db80030c2df00f6b7,62c5561eb3080155d5c495a6,2022-07-06_10h30.20.119,Colour_Asymmetry_Pilot,2022.1.3,MacIntel,59.99880002,62c50e9c1127f2cd403a315f,0,130,130,85,1,threefour,,,,,,,,,,,,,,,,,,,,,,,,,,,,,,,,,,,,,,,,,,,,,,,,,,,,,,,,,,,,,,,,,,,,,,,,,,,,,,,,,,,,,,,,,,,,,,,,,,,,,,,,,,,,,,,,,,,,,,,,,,,,,,,,,,,,,,,,,,,,,,,,,,,,,,,,,,,,,
,,,,,,615c6b6db80030c2df00f6b7,62c5561eb3080155d5c495a6,2022-07-06_10h30.20.119,Colour_Asymmetry_Pilot,2022.1.3,MacIntel,59.99880002,62c50e9c1127f2cd403a315f,0,131,131,17,1,onethree,,,,,,,,,,,,,,,,,,,,,,,,,,,,,,,,,,,,,,,,,,,,,,,,,,,,,,,,,,,,,,,,,,,,,,,,,,,,,,,,,,,,,,,,,,,,,,,,,,,,,,,,,,,,,,,,,,,,,,,,,,,,,,,,,,,,,,,,,,,,,,,,,,,,,,,,,,,,,
,,,,,,615c6b6db80030c2df00f6b7,62c5561eb3080155d5c495a6,2022-07-06_10h30.20.119,Colour_Asymmetry_Pilot,2022.1.3,MacIntel,59.99880002,62c50e9c1127f2cd403a315f,0,132,132,43,1,twofour,,,,,,,,,,,,,,,,,,,,,,,,,,,,,,,,,,,,,,,,,,,,,,,,,,,,,,,,,,,,,,,,,,,,,,,,,,,,,,,,,,,,,,,,,,,,,,,,,,,,,,,,,,,,,,,,,,,,,,,,,,,,,,,,,,,,,,,,,,,,,,,,,,,,,,,,,,,,,
,,,,,,615c6b6db80030c2df00f6b7,62c5561eb3080155d5c495a6,2022-07-06_10h30.20.119,Colour_Asymmetry_Pilot,2022.1.3,MacIntel,59.99880002,62c50e9c1127f2cd403a315f,0,133,133,8,1,onetwo,,,,,,,,,,,,,,,,,,,,,,,,,,,,,,,,,,,,,,,,,,,,,,,,,,,,,,,,,,,,,,,,,,,,,,,,,,,,,,,,,,,,,,,,,,,,,,,,,,,,,,,,,,,,,,,,,,,,,,,,,,,,,,,,,,,,,,,,,,,,,,,,,,,,,,,,,,,,,
,,,,,,615c6b6db80030c2df00f6b7,62c5561eb3080155d5c495a6,2022-07-06_10h30.20.119,Colour_Asymmetry_Pilot,2022.1.3,MacIntel,59.99880002,62c50e9c1127f2cd403a315f,0,134,134,119,1,fourthree,,,,,,,,,,,,,,,,,,,,,,,,,,,,,,,,,,,,,,,,,,,,,,,,,,,,,,,,,,,,,,,,,,,,,,,,,,,,,,,,,,,,,,,,,,,,,,,,,,,,,,,,,,,,,,,,,,,,,,,,,,,,,,,,,,,,,,,,,,,,,,,,,,,,,,,,,,,,,
,,,,,,615c6b6db80030c2df00f6b7,62c5561eb3080155d5c495a6,2022-07-06_10h30.20.119,Colour_Asymmetry_Pilot,2022.1.3,MacIntel,59.99880002,62c50e9c1127f2cd403a315f,0,135,135,3,1,twofour,,,,,,,,,,,,,,,,,,,,,,,,,,,,,,,,,,,,,,,,,,,,,,,,,,,,,,,,,,,,,,,,,,,,,,,,,,,,,,,,,,,,,,,,,,,,,,,,,,,,,,,,,,,,,,,,,,,,,,,,,,,,,,,,,,,,,,,,,,,,,,,,,,,,,,,,,,,,,
,,,,,,615c6b6db80030c2df00f6b7,62c5561eb3080155d5c495a6,2022-07-06_10h30.20.119,Colour_Asymmetry_Pilot,2022.1.3,MacIntel,59.99880002,62c50e9c1127f2cd403a315f,0,136,136,55,1,fourthree,,,,,,,,,,,,,,,,,,,,,,,,,,,,,,,,,,,,,,,,,,,,,,,,,,,,,,,,,,,,,,,,,,,,,,,,,,,,,,,,,,,,,,,,,,,,,,,,,,,,,,,,,,,,,,,,,,,,,,,,,,,,,,,,,,,,,,,,,,,,,,,,,,,,,,,,,,,,,
,,,,,,615c6b6db80030c2df00f6b7,62c5561eb3080155d5c495a6,2022-07-06_10h30.20.119,Colour_Asymmetry_Pilot,2022.1.3,MacIntel,59.99880002,62c50e9c1127f2cd403a315f,0,137,137,151,1,fourthree,,,,,,,,,,,,,,,,,,,,,,,,,,,,,,,,,,,,,,,,,,,,,,,,,,,,,,,,,,,,,,,,,,,,,,,,,,,,,,,,,,,,,,,,,,,,,,,,,,,,,,,,,,,,,,,,,,,,,,,,,,,,,,,,,,,,,,,,,,,,,,,,,,,,,,,,,,,,,
,,,,,,615c6b6db80030c2df00f6b7,62c5561eb3080155d5c495a6,2022-07-06_10h30.20.119,Colour_Asymmetry_Pilot,2022.1.3,MacIntel,59.99880002,62c50e9c1127f2cd403a315f,0,138,138,56,1,onetwo,,,,,,,,,,,,,,,,,,,,,,,,,,,,,,,,,,,,,,,,,,,,,,,,,,,,,,,,,,,,,,,,,,,,,,,,,,,,,,,,,,,,,,,,,,,,,,,,,,,,,,,,,,,,,,,,,,,,,,,,,,,,,,,,,,,,,,,,,,,,,,,,,,,,,,,,,,,,,
,,,,,,615c6b6db80030c2df00f6b7,62c5561eb3080155d5c495a6,2022-07-06_10h30.20.119,Colour_Asymmetry_Pilot,2022.1.3,MacIntel,59.99880002,62c50e9c1127f2cd403a315f,0,139,139,28,1,threeone,,,,,,,,,,,,,,,,,,,,,,,,,,,,,,,,,,,,,,,,,,,,,,,,,,,,,,,,,,,,,,,,,,,,,,,,,,,,,,,,,,,,,,,,,,,,,,,,,,,,,,,,,,,,,,,,,,,,,,,,,,,,,,,,,,,,,,,,,,,,,,,,,,,,,,,,,,,,,
,,,,,,615c6b6db80030c2df00f6b7,62c5561eb3080155d5c495a6,2022-07-06_10h30.20.119,Colour_Asymmetry_Pilot,2022.1.3,MacIntel,59.99880002,62c50e9c1127f2cd403a315f,0,140,140,10,1,twoone,,,,,,,,,,,,,,,,,,,,,,,,,,,,,,,,,,,,,,,,,,,,,,,,,,,,,,,,,,,,,,,,,,,,,,,,,,,,,,,,,,,,,,,,,,,,,,,,,,,,,,,,,,,,,,,,,,,,,,,,,,,,,,,,,,,,,,,,,,,,,,,,,,,,,,,,,,,,,
,,,,,,615c6b6db80030c2df00f6b7,62c5561eb3080155d5c495a6,2022-07-06_10h30.20.119,Colour_Asymmetry_Pilot,2022.1.3,MacIntel,59.99880002,62c50e9c1127f2cd403a315f,0,141,141,157,1,threefour,,,,,,,,,,,,,,,,,,,,,,,,,,,,,,,,,,,,,,,,,,,,,,,,,,,,,,,,,,,,,,,,,,,,,,,,,,,,,,,,,,,,,,,,,,,,,,,,,,,,,,,,,,,,,,,,,,,,,,,,,,,,,,,,,,,,,,,,,,,,,,,,,,,,,,,,,,,,,
,,,,,,615c6b6db80030c2df00f6b7,62c5561eb3080155d5c495a6,2022-07-06_10h30.20.119,Colour_Asymmetry_Pilot,2022.1.3,MacIntel,59.99880002,62c50e9c1127f2cd403a315f,0,142,142,70,1,fourtwo,,,,,,,,,,,,,,,,,,,,,,,,,,,,,,,,,,,,,,,,,,,,,,,,,,,,,,,,,,,,,,,,,,,,,,,,,,,,,,,,,,,,,,,,,,,,,,,,,,,,,,,,,,,,,,,,,,,,,,,,,,,,,,,,,,,,,,,,,,,,,,,,,,,,,,,,,,,,,
,,,,,,615c6b6db80030c2df00f6b7,62c5561eb3080155d5c495a6,2022-07-06_10h30.20.119,Colour_Asymmetry_Pilot,2022.1.3,MacIntel,59.99880002,62c50e9c1127f2cd403a315f,0,143,143,2,1,twoone,,,,,,,,,,,,,,,,,,,,,,,,,,,,,,,,,,,,,,,,,,,,,,,,,,,,,,,,,,,,,,,,,,,,,,,,,,,,,,,,,,,,,,,,,,,,,,,,,,,,,,,,,,,,,,,,,,,,,,,,,,,,,,,,,,,,,,,,,,,,,,,,,,,,,,,,,,,,,
,,,,,,615c6b6db80030c2df00f6b7,62c5561eb3080155d5c495a6,2022-07-06_10h30.20.119,Colour_Asymmetry_Pilot,2022.1.3,MacIntel,59.99880002,62c50e9c1127f2cd403a315f,0,144,144,93,1,threefour,,,,,,,,,,,,,,,,,,,,,,,,,,,,,,,,,,,,,,,,,,,,,,,,,,,,,,,,,,,,,,,,,,,,,,,,,,,,,,,,,,,,,,,,,,,,,,,,,,,,,,,,,,,,,,,,,,,,,,,,,,,,,,,,,,,,,,,,,,,,,,,,,,,,,,,,,,,,,
,,,,,,615c6b6db80030c2df00f6b7,62c5561eb3080155d5c495a6,2022-07-06_10h30.20.119,Colour_Asymmetry_Pilot,2022.1.3,MacIntel,59.99880002,62c50e9c1127f2cd403a315f,0,145,145,87,1,fourthree,,,,,,,,,,,,,,,,,,,,,,,,,,,,,,,,,,,,,,,,,,,,,,,,,,,,,,,,,,,,,,,,,,,,,,,,,,,,,,,,,,,,,,,,,,,,,,,,,,,,,,,,,,,,,,,,,,,,,,,,,,,,,,,,,,,,,,,,,,,,,,,,,,,,,,,,,,,,,
,,,,,,615c6b6db80030c2df00f6b7,62c5561eb3080155d5c495a6,2022-07-06_10h30.20.119,Colour_Asymmetry_Pilot,2022.1.3,MacIntel,59.99880002,62c50e9c1127f2cd403a315f,0,146,146,92,1,threeone,,,,,,,,,,,,,,,,,,,,,,,,,,,,,,,,,,,,,,,,,,,,,,,,,,,,,,,,,,,,,,,,,,,,,,,,,,,,,,,,,,,,,,,,,,,,,,,,,,,,,,,,,,,,,,,,,,,,,,,,,,,,,,,,,,,,,,,,,,,,,,,,,,,,,,,,,,,,,
,,,,,,615c6b6db80030c2df00f6b7,62c5561eb3080155d5c495a6,2022-07-06_10h30.20.119,Colour_Asymmetry_Pilot,2022.1.3,MacIntel,59.99880002,62c50e9c1127f2cd403a315f,0,147,147,114,1,twoone,,,,,,,,,,,,,,,,,,,,,,,,,,,,,,,,,,,,,,,,,,,,,,,,,,,,,,,,,,,,,,,,,,,,,,,,,,,,,,,,,,,,,,,,,,,,,,,,,,,,,,,,,,,,,,,,,,,,,,,,,,,,,,,,,,,,,,,,,,,,,,,,,,,,,,,,,,,,,
,,,,,,615c6b6db80030c2df00f6b7,62c5561eb3080155d5c495a6,2022-07-06_10h30.20.119,Colour_Asymmetry_Pilot,2022.1.3,MacIntel,59.99880002,62c50e9c1127f2cd403a315f,0,148,148,144,1,onetwo,,,,,,,,,,,,,,,,,,,,,,,,,,,,,,,,,,,,,,,,,,,,,,,,,,,,,,,,,,,,,,,,,,,,,,,,,,,,,,,,,,,,,,,,,,,,,,,,,,,,,,,,,,,,,,,,,,,,,,,,,,,,,,,,,,,,,,,,,,,,,,,,,,,,,,,,,,,,,
,,,,,,615c6b6db80030c2df00f6b7,62c5561eb3080155d5c495a6,2022-07-06_10h30.20.119,Colour_Asymmetry_Pilot,2022.1.3,MacIntel,59.99880002,62c50e9c1127f2cd403a315f,0,149,149,113,1,onethree,,,,,,,,,,,,,,,,,,,,,,,,,,,,,,,,,,,,,,,,,,,,,,,,,,,,,,,,,,,,,,,,,,,,,,,,,,,,,,,,,,,,,,,,,,,,,,,,,,,,,,,,,,,,,,,,,,,,,,,,,,,,,,,,,,,,,,,,,,,,,,,,,,,,,,,,,,,,,
,,,,,,615c6b6db80030c2df00f6b7,62c5561eb3080155d5c495a6,2022-07-06_10h30.20.119,Colour_Asymmetry_Pilot,2022.1.3,MacIntel,59.99880002,62c50e9c1127f2cd403a315f,0,150,150,155,1,twofour,,,,,,,,,,,,,,,,,,,,,,,,,,,,,,,,,,,,,,,,,,,,,,,,,,,,,,,,,,,,,,,,,,,,,,,,,,,,,,,,,,,,,,,,,,,,,,,,,,,,,,,,,,,,,,,,,,,,,,,,,,,,,,,,,,,,,,,,,,,,,,,,,,,,,,,,,,,,,
,,,,,,615c6b6db80030c2df00f6b7,62c5561eb3080155d5c495a6,2022-07-06_10h30.20.119,Colour_Asymmetry_Pilot,2022.1.3,MacIntel,59.99880002,62c50e9c1127f2cd403a315f,0,151,151,84,1,threeone,,,,,,,,,,,,,,,,,,,,,,,,,,,,,,,,,,,,,,,,,,,,,,,,,,,,,,,,,,,,,,,,,,,,,,,,,,,,,,,,,,,,,,,,,,,,,,,,,,,,,,,,,,,,,,,,,,,,,,,,,,,,,,,,,,,,,,,,,,,,,,,,,,,,,,,,,,,,,
,,,,,,615c6b6db80030c2df00f6b7,62c5561eb3080155d5c495a6,2022-07-06_10h30.20.119,Colour_Asymmetry_Pilot,2022.1.3,MacIntel,59.99880002,62c50e9c1127f2cd403a315f,0,152,152,62,1,fourtwo,,,,,,,,,,,,,,,,,,,,,,,,,,,,,,,,,,,,,,,,,,,,,,,,,,,,,,,,,,,,,,,,,,,,,,,,,,,,,,,,,,,,,,,,,,,,,,,,,,,,,,,,,,,,,,,,,,,,,,,,,,,,,,,,,,,,,,,,,,,,,,,,,,,,,,,,,,,,,
,,,,,,615c6b6db80030c2df00f6b7,62c5561eb3080155d5c495a6,2022-07-06_10h30.20.119,Colour_Asymmetry_Pilot,2022.1.3,MacIntel,59.99880002,62c50e9c1127f2cd403a315f,0,153,153,149,1,threefour,,,,,,,,,,,,,,,,,,,,,,,,,,,,,,,,,,,,,,,,,,,,,,,,,,,,,,,,,,,,,,,,,,,,,,,,,,,,,,,,,,,,,,,,,,,,,,,,,,,,,,,,,,,,,,,,,,,,,,,,,,,,,,,,,,,,,,,,,,,,,,,,,,,,,,,,,,,,,
,,,,,,615c6b6db80030c2df00f6b7,62c5561eb3080155d5c495a6,2022-07-06_10h30.20.119,Colour_Asymmetry_Pilot,2022.1.3,MacIntel,59.99880002,62c50e9c1127f2cd403a315f,0,154,154,42,1,twoone,,,,,,,,,,,,,,,,,,,,,,,,,,,,,,,,,,,,,,,,,,,,,,,,,,,,,,,,,,,,,,,,,,,,,,,,,,,,,,,,,,,,,,,,,,,,,,,,,,,,,,,,,,,,,,,,,,,,,,,,,,,,,,,,,,,,,,,,,,,,,,,,,,,,,,,,,,,,,
,,,,,,615c6b6db80030c2df00f6b7,62c5561eb3080155d5c495a6,2022-07-06_10h30.20.119,Colour_Asymmetry_Pilot,2022.1.3,MacIntel,59.99880002,62c50e9c1127f2cd403a315f,0,155,155,116,1,threeone,,,,,,,,,,,,,,,,,,,,,,,,,,,,,,,,,,,,,,,,,,,,,,,,,,,,,,,,,,,,,,,,,,,,,,,,,,,,,,,,,,,,,,,,,,,,,,,,,,,,,,,,,,,,,,,,,,,,,,,,,,,,,,,,,,,,,,,,,,,,,,,,,,,,,,,,,,,,,
,,,,,,615c6b6db80030c2df00f6b7,62c5561eb3080155d5c495a6,2022-07-06_10h30.20.119,Colour_Asymmetry_Pilot,2022.1.3,MacIntel,59.99880002,62c50e9c1127f2cd403a315f,0,156,156,124,1,threeone,,,,,,,,,,,,,,,,,,,,,,,,,,,,,,,,,,,,,,,,,,,,,,,,,,,,,,,,,,,,,,,,,,,,,,,,,,,,,,,,,,,,,,,,,,,,,,,,,,,,,,,,,,,,,,,,,,,,,,,,,,,,,,,,,,,,,,,,,,,,,,,,,,,,,,,,,,,,,
,,,,,,615c6b6db80030c2df00f6b7,62c5561eb3080155d5c495a6,2022-07-06_10h30.20.119,Colour_Asymmetry_Pilot,2022.1.3,MacIntel,59.99880002,62c50e9c1127f2cd403a315f,0,157,157,129,1,onethree,,,,,,,,,,,,,,,,,,,,,,,,,,,,,,,,,,,,,,,,,,,,,,,,,,,,,,,,,,,,,,,,,,,,,,,,,,,,,,,,,,,,,,,,,,,,,,,,,,,,,,,,,,,,,,,,,,,,,,,,,,,,,,,,,,,,,,,,,,,,,,,,,,,,,,,,,,,,,
,,,,,,615c6b6db80030c2df00f6b7,62c5561eb3080155d5c495a6,2022-07-06_10h30.20.119,Colour_Asymmetry_Pilot,2022.1.3,MacIntel,59.99880002,62c50e9c1127f2cd403a315f,0,158,158,61,1,threefour,,,,,,,,,,,,,,,,,,,,,,,,,,,,,,,,,,,,,,,,,,,,,,,,,,,,,,,,,,,,,,,,,,,,,,,,,,,,,,,,,,,,,,,,,,,,,,,,,,,,,,,,,,,,,,,,,,,,,,,,,,,,,,,,,,,,,,,,,,,,,,,,,,,,,,,,,,,,,
,,,,,,615c6b6db80030c2df00f6b7,62c5561eb3080155d5c495a6,2022-07-06_10h30.20.119,Colour_Asymmetry_Pilot,2022.1.3,MacIntel,59.99880002,62c50e9c1127f2cd403a315f,0,159,159,142,1,fourtwo,,,,,,,,,,,,,,,,,,,,,,,,,,,,,,,,,,,,,,,,,,,,,,,,,,,,,,,,,,,,,,,,,,,,,,,,,,,,,,,,,,,,,,,,,,,,,,,,,,,,,,,,,,,,,,,,,,,,,,,,,,,,,,,,,,,,,,,,,,,,,,,,,,,,,,,,,,,,,
,,,,,,615c6b6db80030c2df00f6b7,62c5561eb3080155d5c495a6,2022-07-06_10h30.20.119,Colour_Asymmetry_Pilot,2022.1.3,MacIntel,59.99880002,62c50e9c1127f2cd403a315f,0,160,160,52,1,threeone,,,,,,,,,,,,,,,,,,,,,,,,,,,,,,,,,,,,,,,,,,,,,,,,,,,,,,,,,,,,,,,,,,,,,,,,,,,,,,,,,,,,,,,,,,,,,,,,,,,,,,,,,,,,,,,,,,,,,,,,,,,,,,,,,,,,,,,,,,,,,,,,,,,,,,,,,,,,,
,,,,,,615c6b6db80030c2df00f6b7,62c5561eb3080155d5c495a6,2022-07-06_10h30.20.119,Colour_Asymmetry_Pilot,2022.1.3,MacIntel,59.99880002,62c50e9c1127f2cd403a315f,0,161,161,40,1,onetwo,,,,,,,,,,,,,,,,,,,,,,,,,,,,,,,,,,,,,,,,,,,,,,,,,,,,,,,,,,,,,,,,,,,,,,,,,,,,,,,,,,,,,,,,,,,,,,,,,,,,,,,,,,,,,,,,,,,,,,,,,,,,,,,,,,,,,,,,,,,,,,,,,,,,,,,,,,,,,
,,,,,,615c6b6db80030c2df00f6b7,62c5561eb3080155d5c495a6,2022-07-06_10h30.20.119,Colour_Asymmetry_Pilot,2022.1.3,MacIntel,59.99880002,62c50e9c1127f2cd403a315f,,,,,,,space,2.1322,space,5.2789,space,25.4849,space,5.5009,space,1.5713,space,3.5847,"[0.23920000000000008,0.2704,0.16060000000000008]",fourtwo,"[-0.8118,-0.8198,-0.5452]",-4,10.7194,-42.203125,88.1328125,1,0,0,response7disk_5,5.33203125,-0.26171875,1,0,0,rectangle_8,5.33203125,-0.26171875,1,0,0,3,5.33203125,-0.26171875,1,0,0,0,0,0,0,1,,,,,,,,,,,,,,,,,,,,,,,,,,,,,,,,,,,,,,,,,,,,,,,,,,,,,,,,,,,,,,,,,,,,,,,,,,,,,,,,,,,,,,,,,,,,,,,,,,,,,,,,,,,,,,,,
,,,,,,615c6b6db80030c2df00f6b7,62c5561eb3080155d5c495a6,2022-07-06_10h30.20.119,Colour_Asymmetry_Pilot,2022.1.3,MacIntel,59.99880002,62c50e9c1127f2cd403a315f,,,,,,,,,,,,,,,,,,,"[0.9213999999999998,0.6391999999999998,-0.9922]",threeone,"[0.3568,-0.20799999999999996,-0.9844]",-2,11.6511,-74.79296875,-32.4375,1,0,0,response5disk_5,-17.59765625,-0.89453125,1,0,0,rectangle_8,-17.59765625,-0.89453125,1,0,0,3,-17.59765625,-0.89453125,1,0,0,1,0,1,0,1,,,,,,,,,,,,,,,,,,,,,,,,,,,,,,,,,,,,,,,,,,,,,,,,,,,,,,,,,,,,,,,,,,,,,,,,,,,,,,,,,,,,,,,,,,,,,,,,,,,,,,,,,,,,,,,,
,,,,,,615c6b6db80030c2df00f6b7,62c5561eb3080155d5c495a6,2022-07-06_10h30.20.119,Colour_Asymmetry_Pilot,2022.1.3,MacIntel,59.99880002,62c50e9c1127f2cd403a315f,,,,,,,,,,,,,,,,,,,"[0.3568,-0.20799999999999996,-0.9844]",twofour,"[0.12939999999999996,-0.2864,0.3253999999999999]",-4,1.635,-41.73828125,69.62109375,1,0,0,response7disk_5,-0.796875,-11.8515625,1,0,0,rectangle_8,80.71484375,31.5,1,0,0,3,6.8046875,2.69140625,1,0,0,2,0,2,0,1,response1disk_7,6,rectangle_4,,,,,,,,,,,,,,,,,,,,,,,,,,,,,,,,,,,,,,,,,,,,,,,,,,,,,,,,,,,,,,,,,,,,,,,,,,,,,,,,,,,,,,,,,,,,,,,,,,,,,,,,,,,,,
,,,,,,615c6b6db80030c2df00f6b7,62c5561eb3080155d5c495a6,2022-07-06_10h30.20.119,Colour_Asymmetry_Pilot,2022.1.3,MacIntel,59.99880002,62c50e9c1127f2cd403a315f,,,,,,,,,,,,,,,,,,,"[-0.30200000000000005,0.14500000000000002,0.2784]",onethree,"[-0.26280000000000003,-0.4746,-0.2158]",-3,1.2681,-83.9921875,26.05859375,1,0,0,response7disk_5,10.41015625,-2,1,0,0,rectangle_8,10.41015625,-2,1,0,0,3,10.41015625,-2,1,0,0,3,0,3,0,1,,,,,,,,,,,,,,,,,,,,,,,,,,,,,,,,,,,,,,,,,,,,,,,,,,,,,,,,,,,,,,,,,,,,,,,,,,,,,,,,,,,,,,,,,,,,,,,,,,,,,,,,,,,,,,,,
,,,,,,615c6b6db80030c2df00f6b7,62c5561eb3080155d5c495a6,2022-07-06_10h30.20.119,Colour_Asymmetry_Pilot,2022.1.3,MacIntel,59.99880002,62c50e9c1127f2cd403a315f,,,,,,,,,,,,,,,,,,,"[-0.9138,-0.5296000000000001,-0.5529999999999999]",onethree,"[-0.34920000000000007,-0.702,-0.5216]",2,3.1656,96.10546875,-42.125,1,0,0,response3disk_5,8.54296875,-10.7890625,1,0,0,rectangle_8,91.55859375,33.234375,1,0,0,3,24.84765625,0.359375,1,0,0,4,0,4,0,1,response1disk_7,6,rectangle_4,,,,,,,,,,,,,,,,,,,,,,,,,,,,,,,,,,,,,,,,,,,,,,,,,,,,,,,,,,,,,,,,,,,,,,,,,,,,,,,,,,,,,,,,,,,,,,,,,,,,,,,,,,,,,
,,,,,,615c6b6db80030c2df00f6b7,62c5561eb3080155d5c495a6,2022-07-06_10h30.20.119,Colour_Asymmetry_Pilot,2022.1.3,MacIntel,59.99880002,62c50e9c1127f2cd403a315f,,,,,,,,,,,,,,,,,,,"[-0.6,0.16860000000000008,0.44300000000000006]",threeone,"[0.796,0.2156,-0.27859999999999996]",-3,1.2853,-81.57421875,37.765625,1,0,0,response7disk_5,8.13671875,-10.0625,1,0,0,rectangle_8,8.13671875,-10.0625,1,0,0,3,8.13671875,-10.0625,1,0,0,5,0,5,0,1,,,,,,,,,,,,,,,,,,,,,,,,,,,,,,,,,,,,,,,,,,,,,,,,,,,,,,,,,,,,,,,,,,,,,,,,,,,,,,,,,,,,,,,,,,,,,,,,,,,,,,,,,,,,,,,,
,,,,,,615c6b6db80030c2df00f6b7,62c5561eb3080155d5c495a6,2022-07-06_10h30.20.119,Colour_Asymmetry_Pilot,2022.1.3,MacIntel,59.99880002,62c50e9c1127f2cd403a315f,,,,,,,,,,,,,,,,,,,"[0.8115999999999999,-0.0040000000000000036,-0.09819999999999995]",onetwo,"[0.18419999999999992,-0.4276,-0.404]",3,1.8004,93.46484375,29.08203125,1,0,0,response1disk_5,-1.2578125,-1.10546875,1,0,0,rectangle_8,-1.2578125,-1.10546875,1,0,0,3,-1.2578125,-1.10546875,1,0,0,6,0,6,0,1,,,,,,,,,,,,,,,,,,,,,,,,,,,,,,,,,,,,,,,,,,,,,,,,,,,,,,,,,,,,,,,,,,,,,,,,,,,,,,,,,,,,,,,,,,,,,,,,,,,,,,,,,,,,,,,,
,,,,,,615c6b6db80030c2df00f6b7,62c5561eb3080155d5c495a6,2022-07-06_10h30.20.119,Colour_Asymmetry_Pilot,2022.1.3,MacIntel,59.99880002,62c50e9c1127f2cd403a315f,,,,,,,,,,,,,,,,,,,,fourtwo,,2,1.2521,,,,,,,,,,,,,,,,,,,,,,,,,,,,,,,,space,3.634,"[0.7018,0.7802,-0.16079999999999994]","[0.9763999999999999,-0.1137999999999999,-0.6314]",95.0390625,-35.93359375,1,0,0,response3disk,-3.3125,-9.0078125,1,0,0,rectangle,-3.3125,-9.0078125,1,0,0,,1,0.0029,0,-3.3125,-9.0078125,1,0,0,0,0,0,79,1,79,first,,,,,,,,,,,,,,,,,,,,,,,,,,,,,,,,,,,,,,,,,,,,,,,,,,,,,,,,,,,,,,,,,,,,,,,,
,,,,,,615c6b6db80030c2df00f6b7,62c5561eb3080155d5c495a6,2022-07-06_10h30.20.119,Colour_Asymmetry_Pilot,2022.1.3,MacIntel,59.99880002,62c50e9c1127f2cd403a315f,,,,,,,,,,,,,,,,,,,,threeone,,2,0.7838,,,,,,,,,,,,,,,,,,,,,,,,,,,,,,,,,,"[-0.9688,-0.7412000000000001,-0.4902000000000001]","[-0.48240000000000005,0.3175999999999999,0.2156]",103.9257813,-52.0546875,1,0,0,response3disk,6.65234375,-10.55078125,1,0,0,rectangle,6.65234375,-10.55078125,1,0,0,,2,0.002,0,6.65234375,-10.55078125,1,0,0,0,1,1,144,1,63,second,,,,,,,,,,,,,,,,,,,,,,,,,,,,,,,,,,,,,,,,,,,,,,,,,,,,,,,,,,,,,,,,,,,,,,,,
,,,,,,615c6b6db80030c2df00f6b7,62c5561eb3080155d5c495a6,2022-07-06_10h30.20.119,Colour_Asymmetry_Pilot,2022.1.3,MacIntel,59.99880002,62c50e9c1127f2cd403a315f,,,,,,,,,,,,,,,,,,,,onethree,,2,0.584,,,,,,,,,,,,,,,,,,,,,,,,,,,,,,,,,,"[0.9763999999999999,-0.1137999999999999,-0.6314]","[0.7018,0.7802,-0.16079999999999994]",117.3828125,-52.91015625,1,0,0,response3disk,14.515625,-8.83203125,1,0,0,rectangle,91.01171875,30.625,1,0,0,3,3,2.2502,1,21.38671875,8.8671875,1,0,0,0,2,2,160,1,79,second,response1disk_3,rectangle,,,,,,,,,,,,,,,,,,,,,,,,,,,,,,,,,,,,,,,,,,,,,,,,,,,,,,,,,,,,,,,,,,,,,,
,,,,,,615c6b6db80030c2df00f6b7,62c5561eb3080155d5c495a6,2022-07-06_10h30.20.119,Colour_Asymmetry_Pilot,2022.1.3,MacIntel,59.99880002,62c50e9c1127f2cd403a315f,,,,,,,,,,,,,,,,,,,,fourthree,,-2,0.832,,,,,,,,,,,,,,,,,,,,,,,,,,,,,,,,,,"[0.796,0.2156,-0.27859999999999996]","[0.09799999999999986,-0.24719999999999998,0.15280000000000005]",-70.83984375,-46.48828125,1,0,0,response5disk,13.03515625,-3.921875,1,0,0,rectangle,13.03515625,-3.921875,1,0,0,3,1,0.0011,0,13.03515625,-3.921875,1,0,0,0,3,3,73,1,73,first,,,,,,,,,,,,,,,,,,,,,,,,,,,,,,,,,,,,,,,,,,,,,,,,,,,,,,,,,,,,,,,,,,,,,,,,
,,,,,,615c6b6db80030c2df00f6b7,62c5561eb3080155d5c495a6,2022-07-06_10h30.20.119,Colour_Asymmetry_Pilot,2022.1.3,MacIntel,59.99880002,62c50e9c1127f2cd403a315f,,,,,,,,,,,,,,,,,,,,fourtwo,,3,0.7334,,,,,,,,,,,,,,,,,,,,,,,,,,,,,,,,,,"[-0.07459999999999989,0.12139999999999995,-0.9922]","[-0.17659999999999998,0.3253999999999999,0.19999999999999996]",92.1171875,24.83203125,1,0,0,response1disk,6.109375,1.25390625,1,0,0,rectangle,6.109375,1.25390625,1,0,0,3,2,0.0024,0,6.109375,1.25390625,1,0,0,0,4,4,101,1,20,second,,,,,,,,,,,,,,,,,,,,,,,,,,,,,,,,,,,,,,,,,,,,,,,,,,,,,,,,,,,,,,,,,,,,,,,,
,,,,,,615c6b6db80030c2df00f6b7,62c5561eb3080155d5c495a6,2022-07-06_10h30.20.119,Colour_Asymmetry_Pilot,2022.1.3,MacIntel,59.99880002,62c50e9c1127f2cd403a315f,,,,,,,,,,,,,,,,,,,,twoone,,3,0.3679,,,,,,,,,,,,,,,,,,,,,,,,,,,,,,,,,,"[-0.17659999999999998,0.3253999999999999,0.19999999999999996]","[-0.07459999999999989,0.12139999999999995,-0.9922]",91.59375,30.3984375,1,0,0,response1disk,6.33984375,2.15625,1,0,0,rectangle,6.33984375,2.15625,1,0,0,3,1,0.0018,0,6.33984375,2.15625,1,0,0,0,5,5,20,1,20,first,,,,,,,,,,,,,,,,,,,,,,,,,,,,,,,,,,,,,,,,,,,,,,,,,,,,,,,,,,,,,,,,,,,,,,,,
,,,,,,615c6b6db80030c2df00f6b7,62c5561eb3080155d5c495a6,2022-07-06_10h30.20.119,Colour_Asymmetry_Pilot,2022.1.3,MacIntel,59.99880002,62c50e9c1127f2cd403a315f,,,,,,,,,,,,,,,,,,,,twoone,,-4,0.5664,,,,,,,,,,,,,,,,,,,,,,,,,,,,,,,,,,"[-0.17659999999999998,0.3253999999999999,0.19999999999999996]","[-0.9844,-0.9688,-0.9922]",-36.03125,73.9765625,1,0,0,response7disk,2.390625,6.890625,1,0,0,rectangle,63.8984375,-98.2890625,1,0,0,1,1,1.7329,1,10.99609375,0.36328125,1,0,0,0,6,6,161,1,80,second,response3disk_3,rectangle,,,,,,,,,,,,,,,,,,,,,,,,,,,,,,,,,,,,,,,,,,,,,,,,,,,,,,,,,,,,,,,,,,,,,,
,,,,,,615c6b6db80030c2df00f6b7,62c5561eb3080155d5c495a6,2022-07-06_10h30.20.119,Colour_Asymmetry_Pilot,2022.1.3,MacIntel,59.99880002,62c50e9c1127f2cd403a315f,,,,,,,,,,,,,,,,,,,,fourtwo,,-2,0.5507,,,,,,,,,,,,,,,,,,,,,,,,,,,,,,,,,,"[-0.06680000000000008,-0.45100000000000007,-0.906]","[-0.8982,-0.37259999999999993,0.2784]",-68.765625,-45.07421875,1,0,0,response5disk,-9.5546875,-13.35546875,1,0,0,rectangle,-9.5546875,-13.35546875,1,0,0,1,3,0.0015,0,-9.5546875,-13.35546875,1,0,0,0,7,7,35,1,35,first,,,,,,,,,,,,,,,,,,,,,,,,,,,,,,,,,,,,,,,,,,,,,,,,,,,,,,,,,,,,,,,,,,,,,,,,
,,,,,,615c6b6db80030c2df00f6b7,62c5561eb3080155d5c495a6,2022-07-06_10h30.20.119,Colour_Asymmetry_Pilot,2022.1.3,MacIntel,59.99880002,62c50e9c1127f2cd403a315f,,,,,,,,,,,,,,,,,,,,threefour,,3,1.0338,,,,,,,,,,,,,,,,,,,,,,,,,,,,,,,,,,"[-0.6706000000000001,-0.6157999999999999,-0.6786]","[-0.9138,-0.5296000000000001,-0.5529999999999999]",84.34765625,47.8515625,1,0,0,response1disk,31.14453125,4.74609375,1,0,0,rectangle,31.14453125,4.74609375,1,0,0,1,3,0.0006,0,31.14453125,4.74609375,1,0,0,0,8,8,120,1,39,second,,,,,,,,,,,,,,,,,,,,,,,,,,,,,,,,,,,,,,,,,,,,,,,,,,,,,,,,,,,,,,,,,,,,,,,,
,,,,,,615c6b6db80030c2df00f6b7,62c5561eb3080155d5c495a6,2022-07-06_10h30.20.119,Colour_Asymmetry_Pilot,2022.1.3,MacIntel,59.99880002,62c50e9c1127f2cd403a315f,,,,,,,,,,,,,,,,,,,,threefour,,2,0.9004,,,,,,,,,,,,,,,,,,,,,,,,,,,,,,,,,,"[-0.4276,0.0038000000000000256,-0.3256]","[-0.24719999999999998,-0.0354000000000001,0.3175999999999999]",93.828125,-34.234375,1,0,0,response3disk,18.625,-12.8671875,1,0,0,rectangle,18.625,-12.8671875,1,0,0,1,1,0.0023,0,18.625,-12.8671875,1,0,0,0,9,9,37,1,37,first,,,,,,,,,,,,,,,,,,,,,,,,,,,,,,,,,,,,,,,,,,,,,,,,,,,,,,,,,,,,,,,,,,,,,,,,
,,,,,,615c6b6db80030c2df00f6b7,62c5561eb3080155d5c495a6,2022-07-06_10h30.20.119,Colour_Asymmetry_Pilot,2022.1.3,MacIntel,59.99880002,62c50e9c1127f2cd403a315f,,,,,,,,,,,,,,,,,,,,fourtwo,,-3,1.2168,,,,,,,,,,,,,,,,,,,,,,,,,,,,,,,,,,"[-0.8982,-0.37259999999999993,0.2784]","[-0.06680000000000008,-0.45100000000000007,-0.906]",-73.9453125,51.7734375,1,0,0,response7disk,-2.2734375,-6.234375,1,0,0,rectangle,-2.2734375,-6.234375,1,0,0,1,1,0.0005,0,-2.2734375,-6.234375,1,0,0,0,10,10,116,1,35,second,,,,,,,,,,,,,,,,,,,,,,,,,,,,,,,,,,,,,,,,,,,,,,,,,,,,,,,,,,,,,,,,,,,,,,,,
,,,,,,615c6b6db80030c2df00f6b7,62c5561eb3080155d5c495a6,2022-07-06_10h30.20.119,Colour_Asymmetry_Pilot,2022.1.3,MacIntel,59.99880002,62c50e9c1127f2cd403a315f,,,,,,,,,,,,,,,,,,,,threeone,,3,2.1001,,,,,,,,,,,,,,,,,,,,,,,,,,,,,,,,,,"[-0.8118,-0.8198,-0.5452]","[-0.10599999999999998,-0.15300000000000002,0.15280000000000005]",91.0703125,43.20703125,1,0,0,response1disk,-2.24609375,-12.703125,1,0,0,rectangle,89.58984375,41.61328125,1,0,0,3,3,3.0807,1,19.87109375,4.07421875,1,0,0,0,11,11,36,1,36,first,response1disk_3,rectangle,,,,,,,,,,,,,,,,,,,,,,,,,,,,,,,,,,,,,,,,,,,,,,,,,,,,,,,,,,,,,,,,,,,,,,
,,,,,,615c6b6db80030c2df00f6b7,62c5561eb3080155d5c495a6,2022-07-06_10h30.20.119,Colour_Asymmetry_Pilot,2022.1.3,MacIntel,59.99880002,62c50e9c1127f2cd403a315f,,,,,,,,,,,,,,,,,,,,onethree,,-3,1.017,,,,,,,,,,,,,,,,,,,,,,,,,,,,,,,,,,"[0.0351999999999999,0.41159999999999997,0.0038000000000000256]","[0.09799999999999986,-0.24719999999999998,0.15280000000000005]",-108.3085938,36.28125,1,0,0,response7disk,-7.34375,5.57421875,1,0,0,rectangle,-7.34375,5.57421875,1,0,0,3,3,0.0004,0,-7.34375,5.57421875,1,0,0,0,12,12,81,1,0,second,,,,,,,,,,,,,,,,,,,,,,,,,,,,,,,,,,,,,,,,,,,,,,,,,,,,,,,,,,,,,,,,,,,,,,,,
