trials.thisRepN,trials.thisTrialN,trials.thisN,trials.thisIndex,trials.ran,Colourcodes,participant,session,date,expName,psychopyVersion,OS,frameRate,study_id,trials_4.thisRepN,trials_4.thisTrialN,trials_4.thisN,trials_4.thisIndex,trials_4.ran,StimulusPos,key_resp.keys,key_resp.rt,key_resp_2.keys,key_resp_2.rt,key_resp_15.keys,key_resp_15.rt,key_resp_17.keys,key_resp_17.rt,key_resp_9.keys,key_resp_9.rt,key_resp_10.keys,key_resp_10.rt,Circle1_col,Ecc,Circle2_col,similarity,response_time,mouse_5.x,mouse_5.y,mouse_5.leftButton,mouse_5.midButton,mouse_5.rightButton,mouse_5.clicked_name,mouse_10.x,mouse_10.y,mouse_10.leftButton,mouse_10.midButton,mouse_10.rightButton,mouse_10.clicked_name,mouse_7.x,mouse_7.y,mouse_7.leftButton,mouse_7.midButton,mouse_7.rightButton,catchnumberprac,mouse_6.x,mouse_6.y,mouse_6.leftButton,mouse_6.midButton,mouse_6.rightButton,duringprac.thisRepN,duringprac.thisTrialN,duringprac.thisN,duringprac.thisIndex,duringprac.ran,mouse_7.clicked_name,catchprac,mouse_6.clicked_name,key_resp_22.keys,key_resp_22.rt,Circle1_colour,Circle2_colour,mouse.x,mouse.y,mouse.leftButton,mouse.midButton,mouse.rightButton,mouse.clicked_name,mouse_2.x,mouse_2.y,mouse_2.leftButton,mouse_2.midButton,mouse_2.rightButton,mouse_2.clicked_name,mouse_3.x,mouse_3.y,mouse_3.leftButton,mouse_3.midButton,mouse_3.rightButton,catchresponse,catchnumber,response_time_catch,Catch,mouse_11.x,mouse_11.y,mouse_11.leftButton,mouse_11.midButton,mouse_11.rightButton,trials_2.thisRepN,trials_2.thisTrialN,trials_2.thisN,trials_2.thisIndex,trials_2.ran,Colourpair,Temporder,mouse_3.clicked_name,mouse_11.clicked_name,trials_3.thisRepN,trials_3.thisTrialN,trials_3.thisN,trials_3.thisIndex,trials_3.ran,key_resp_instr_Ishi.keys,key_resp_instr_Ishi.rt,Ishi_trial_keyresp.keys,Ishi_textbox.text,Ishi_mouse.x,Ishi_mouse.y,Ishi_mouse.leftButton,Ishi_mouse.midButton,Ishi_mouse.rightButton,Ishi_mouse.clicked_name,Ishi_loop.thisRepN,Ishi_loop.thisTrialN,Ishi_loop.thisN,Ishi_loop.thisIndex,Ishi_loop.ran,imageaddress,textbox.text,mouse_4.x,mouse_4.y,mouse_4.leftButton,mouse_4.midButton,mouse_4.rightButton,mouse_4.clicked_name,textbox_2.text,mouse_8.x,mouse_8.y,mouse_8.leftButton,mouse_8.midButton,mouse_8.rightButton,mouse_8.clicked_name,textbox_3.text,mouse_9.x,mouse_9.y,mouse_9.leftButton,mouse_9.midButton,mouse_9.rightButton,mouse_9.clicked_name,textbox_4.text,mouse_12.x,mouse_12.y,mouse_12.leftButton,mouse_12.midButton,mouse_12.rightButton,mouse_12.clicked_name,textbox_5.text,mouse_13.x,mouse_13.y,mouse_13.leftButton,mouse_13.midButton,mouse_13.rightButton,mouse_13.clicked_name,textbox_6.text,mouse_14.x,mouse_14.y,mouse_14.leftButton,mouse_14.midButton,mouse_14.rightButton,mouse_14.clicked_name,textbox_7.text,mouse_15.x,mouse_15.y,mouse_15.leftButton,mouse_15.midButton,mouse_15.rightButton,mouse_15.clicked_name
0,0,0,8,1,,6160f5524121cc64e5734edc,62c53a423d012ff394c79240,2022-07-06_09h33.24.429,Colour_Asymmetry_Pilot,2022.1.3,Win32,60.03121623,62c50e9c1127f2cd403a315f,,,,,,,,,,,,,,,,,,,,,,,,,,,,,,,,,,,,,,,,,,,,,,,,,,,,,,,,,,,,,,,,,,,,,,,,,,,,,,,,,,,,,,,,,,,,,,,,,,,,,,,,,,,,,,,,,,,,,,,,,,,,,,,,,,,,,,,,,,,,,,,,,,,,,,,,,,,,,,,,,,,
0,1,1,74,1,,6160f5524121cc64e5734edc,62c53a423d012ff394c79240,2022-07-06_09h33.24.429,Colour_Asymmetry_Pilot,2022.1.3,Win32,60.03121623,62c50e9c1127f2cd403a315f,,,,,,,,,,,,,,,,,,,,,,,,,,,,,,,,,,,,,,,,,,,,,,,,,,,,,,,,,,,,,,,,,,,,,,,,,,,,,,,,,,,,,,,,,,,,,,,,,,,,,,,,,,,,,,,,,,,,,,,,,,,,,,,,,,,,,,,,,,,,,,,,,,,,,,,,,,,,,,,,,,,
0,2,2,19,1,,6160f5524121cc64e5734edc,62c53a423d012ff394c79240,2022-07-06_09h33.24.429,Colour_Asymmetry_Pilot,2022.1.3,Win32,60.03121623,62c50e9c1127f2cd403a315f,,,,,,,,,,,,,,,,,,,,,,,,,,,,,,,,,,,,,,,,,,,,,,,,,,,,,,,,,,,,,,,,,,,,,,,,,,,,,,,,,,,,,,,,,,,,,,,,,,,,,,,,,,,,,,,,,,,,,,,,,,,,,,,,,,,,,,,,,,,,,,,,,,,,,,,,,,,,,,,,,,,
0,3,3,6,1,,6160f5524121cc64e5734edc,62c53a423d012ff394c79240,2022-07-06_09h33.24.429,Colour_Asymmetry_Pilot,2022.1.3,Win32,60.03121623,62c50e9c1127f2cd403a315f,,,,,,,,,,,,,,,,,,,,,,,,,,,,,,,,,,,,,,,,,,,,,,,,,,,,,,,,,,,,,,,,,,,,,,,,,,,,,,,,,,,,,,,,,,,,,,,,,,,,,,,,,,,,,,,,,,,,,,,,,,,,,,,,,,,,,,,,,,,,,,,,,,,,,,,,,,,,,,,,,,,
0,4,4,15,1,,6160f5524121cc64e5734edc,62c53a423d012ff394c79240,2022-07-06_09h33.24.429,Colour_Asymmetry_Pilot,2022.1.3,Win32,60.03121623,62c50e9c1127f2cd403a315f,,,,,,,,,,,,,,,,,,,,,,,,,,,,,,,,,,,,,,,,,,,,,,,,,,,,,,,,,,,,,,,,,,,,,,,,,,,,,,,,,,,,,,,,,,,,,,,,,,,,,,,,,,,,,,,,,,,,,,,,,,,,,,,,,,,,,,,,,,,,,,,,,,,,,,,,,,,,,,,,,,,
0,5,5,85,1,,6160f5524121cc64e5734edc,62c53a423d012ff394c79240,2022-07-06_09h33.24.429,Colour_Asymmetry_Pilot,2022.1.3,Win32,60.03121623,62c50e9c1127f2cd403a315f,,,,,,,,,,,,,,,,,,,,,,,,,,,,,,,,,,,,,,,,,,,,,,,,,,,,,,,,,,,,,,,,,,,,,,,,,,,,,,,,,,,,,,,,,,,,,,,,,,,,,,,,,,,,,,,,,,,,,,,,,,,,,,,,,,,,,,,,,,,,,,,,,,,,,,,,,,,,,,,,,,,
0,6,6,55,1,,6160f5524121cc64e5734edc,62c53a423d012ff394c79240,2022-07-06_09h33.24.429,Colour_Asymmetry_Pilot,2022.1.3,Win32,60.03121623,62c50e9c1127f2cd403a315f,,,,,,,,,,,,,,,,,,,,,,,,,,,,,,,,,,,,,,,,,,,,,,,,,,,,,,,,,,,,,,,,,,,,,,,,,,,,,,,,,,,,,,,,,,,,,,,,,,,,,,,,,,,,,,,,,,,,,,,,,,,,,,,,,,,,,,,,,,,,,,,,,,,,,,,,,,,,,,,,,,,
0,7,7,35,1,,6160f5524121cc64e5734edc,62c53a423d012ff394c79240,2022-07-06_09h33.24.429,Colour_Asymmetry_Pilot,2022.1.3,Win32,60.03121623,62c50e9c1127f2cd403a315f,,,,,,,,,,,,,,,,,,,,,,,,,,,,,,,,,,,,,,,,,,,,,,,,,,,,,,,,,,,,,,,,,,,,,,,,,,,,,,,,,,,,,,,,,,,,,,,,,,,,,,,,,,,,,,,,,,,,,,,,,,,,,,,,,,,,,,,,,,,,,,,,,,,,,,,,,,,,,,,,,,,
0,8,8,61,1,,6160f5524121cc64e5734edc,62c53a423d012ff394c79240,2022-07-06_09h33.24.429,Colour_Asymmetry_Pilot,2022.1.3,Win32,60.03121623,62c50e9c1127f2cd403a315f,,,,,,,,,,,,,,,,,,,,,,,,,,,,,,,,,,,,,,,,,,,,,,,,,,,,,,,,,,,,,,,,,,,,,,,,,,,,,,,,,,,,,,,,,,,,,,,,,,,,,,,,,,,,,,,,,,,,,,,,,,,,,,,,,,,,,,,,,,,,,,,,,,,,,,,,,,,,,,,,,,,
0,9,9,38,1,,6160f5524121cc64e5734edc,62c53a423d012ff394c79240,2022-07-06_09h33.24.429,Colour_Asymmetry_Pilot,2022.1.3,Win32,60.03121623,62c50e9c1127f2cd403a315f,,,,,,,,,,,,,,,,,,,,,,,,,,,,,,,,,,,,,,,,,,,,,,,,,,,,,,,,,,,,,,,,,,,,,,,,,,,,,,,,,,,,,,,,,,,,,,,,,,,,,,,,,,,,,,,,,,,,,,,,,,,,,,,,,,,,,,,,,,,,,,,,,,,,,,,,,,,,,,,,,,,
0,10,10,63,1,,6160f5524121cc64e5734edc,62c53a423d012ff394c79240,2022-07-06_09h33.24.429,Colour_Asymmetry_Pilot,2022.1.3,Win32,60.03121623,62c50e9c1127f2cd403a315f,,,,,,,,,,,,,,,,,,,,,,,,,,,,,,,,,,,,,,,,,,,,,,,,,,,,,,,,,,,,,,,,,,,,,,,,,,,,,,,,,,,,,,,,,,,,,,,,,,,,,,,,,,,,,,,,,,,,,,,,,,,,,,,,,,,,,,,,,,,,,,,,,,,,,,,,,,,,,,,,,,,
0,11,11,31,1,,6160f5524121cc64e5734edc,62c53a423d012ff394c79240,2022-07-06_09h33.24.429,Colour_Asymmetry_Pilot,2022.1.3,Win32,60.03121623,62c50e9c1127f2cd403a315f,,,,,,,,,,,,,,,,,,,,,,,,,,,,,,,,,,,,,,,,,,,,,,,,,,,,,,,,,,,,,,,,,,,,,,,,,,,,,,,,,,,,,,,,,,,,,,,,,,,,,,,,,,,,,,,,,,,,,,,,,,,,,,,,,,,,,,,,,,,,,,,,,,,,,,,,,,,,,,,,,,,
0,12,12,18,1,,6160f5524121cc64e5734edc,62c53a423d012ff394c79240,2022-07-06_09h33.24.429,Colour_Asymmetry_Pilot,2022.1.3,Win32,60.03121623,62c50e9c1127f2cd403a315f,,,,,,,,,,,,,,,,,,,,,,,,,,,,,,,,,,,,,,,,,,,,,,,,,,,,,,,,,,,,,,,,,,,,,,,,,,,,,,,,,,,,,,,,,,,,,,,,,,,,,,,,,,,,,,,,,,,,,,,,,,,,,,,,,,,,,,,,,,,,,,,,,,,,,,,,,,,,,,,,,,,
0,13,13,28,1,,6160f5524121cc64e5734edc,62c53a423d012ff394c79240,2022-07-06_09h33.24.429,Colour_Asymmetry_Pilot,2022.1.3,Win32,60.03121623,62c50e9c1127f2cd403a315f,,,,,,,,,,,,,,,,,,,,,,,,,,,,,,,,,,,,,,,,,,,,,,,,,,,,,,,,,,,,,,,,,,,,,,,,,,,,,,,,,,,,,,,,,,,,,,,,,,,,,,,,,,,,,,,,,,,,,,,,,,,,,,,,,,,,,,,,,,,,,,,,,,,,,,,,,,,,,,,,,,,
0,14,14,29,1,,6160f5524121cc64e5734edc,62c53a423d012ff394c79240,2022-07-06_09h33.24.429,Colour_Asymmetry_Pilot,2022.1.3,Win32,60.03121623,62c50e9c1127f2cd403a315f,,,,,,,,,,,,,,,,,,,,,,,,,,,,,,,,,,,,,,,,,,,,,,,,,,,,,,,,,,,,,,,,,,,,,,,,,,,,,,,,,,,,,,,,,,,,,,,,,,,,,,,,,,,,,,,,,,,,,,,,,,,,,,,,,,,,,,,,,,,,,,,,,,,,,,,,,,,,,,,,,,,
0,15,15,52,1,,6160f5524121cc64e5734edc,62c53a423d012ff394c79240,2022-07-06_09h33.24.429,Colour_Asymmetry_Pilot,2022.1.3,Win32,60.03121623,62c50e9c1127f2cd403a315f,,,,,,,,,,,,,,,,,,,,,,,,,,,,,,,,,,,,,,,,,,,,,,,,,,,,,,,,,,,,,,,,,,,,,,,,,,,,,,,,,,,,,,,,,,,,,,,,,,,,,,,,,,,,,,,,,,,,,,,,,,,,,,,,,,,,,,,,,,,,,,,,,,,,,,,,,,,,,,,,,,,
0,16,16,26,1,,6160f5524121cc64e5734edc,62c53a423d012ff394c79240,2022-07-06_09h33.24.429,Colour_Asymmetry_Pilot,2022.1.3,Win32,60.03121623,62c50e9c1127f2cd403a315f,,,,,,,,,,,,,,,,,,,,,,,,,,,,,,,,,,,,,,,,,,,,,,,,,,,,,,,,,,,,,,,,,,,,,,,,,,,,,,,,,,,,,,,,,,,,,,,,,,,,,,,,,,,,,,,,,,,,,,,,,,,,,,,,,,,,,,,,,,,,,,,,,,,,,,,,,,,,,,,,,,,
0,17,17,59,1,,6160f5524121cc64e5734edc,62c53a423d012ff394c79240,2022-07-06_09h33.24.429,Colour_Asymmetry_Pilot,2022.1.3,Win32,60.03121623,62c50e9c1127f2cd403a315f,,,,,,,,,,,,,,,,,,,,,,,,,,,,,,,,,,,,,,,,,,,,,,,,,,,,,,,,,,,,,,,,,,,,,,,,,,,,,,,,,,,,,,,,,,,,,,,,,,,,,,,,,,,,,,,,,,,,,,,,,,,,,,,,,,,,,,,,,,,,,,,,,,,,,,,,,,,,,,,,,,,
0,18,18,72,1,,6160f5524121cc64e5734edc,62c53a423d012ff394c79240,2022-07-06_09h33.24.429,Colour_Asymmetry_Pilot,2022.1.3,Win32,60.03121623,62c50e9c1127f2cd403a315f,,,,,,,,,,,,,,,,,,,,,,,,,,,,,,,,,,,,,,,,,,,,,,,,,,,,,,,,,,,,,,,,,,,,,,,,,,,,,,,,,,,,,,,,,,,,,,,,,,,,,,,,,,,,,,,,,,,,,,,,,,,,,,,,,,,,,,,,,,,,,,,,,,,,,,,,,,,,,,,,,,,
0,19,19,39,1,,6160f5524121cc64e5734edc,62c53a423d012ff394c79240,2022-07-06_09h33.24.429,Colour_Asymmetry_Pilot,2022.1.3,Win32,60.03121623,62c50e9c1127f2cd403a315f,,,,,,,,,,,,,,,,,,,,,,,,,,,,,,,,,,,,,,,,,,,,,,,,,,,,,,,,,,,,,,,,,,,,,,,,,,,,,,,,,,,,,,,,,,,,,,,,,,,,,,,,,,,,,,,,,,,,,,,,,,,,,,,,,,,,,,,,,,,,,,,,,,,,,,,,,,,,,,,,,,,
0,20,20,66,1,,6160f5524121cc64e5734edc,62c53a423d012ff394c79240,2022-07-06_09h33.24.429,Colour_Asymmetry_Pilot,2022.1.3,Win32,60.03121623,62c50e9c1127f2cd403a315f,,,,,,,,,,,,,,,,,,,,,,,,,,,,,,,,,,,,,,,,,,,,,,,,,,,,,,,,,,,,,,,,,,,,,,,,,,,,,,,,,,,,,,,,,,,,,,,,,,,,,,,,,,,,,,,,,,,,,,,,,,,,,,,,,,,,,,,,,,,,,,,,,,,,,,,,,,,,,,,,,,,
0,21,21,60,1,,6160f5524121cc64e5734edc,62c53a423d012ff394c79240,2022-07-06_09h33.24.429,Colour_Asymmetry_Pilot,2022.1.3,Win32,60.03121623,62c50e9c1127f2cd403a315f,,,,,,,,,,,,,,,,,,,,,,,,,,,,,,,,,,,,,,,,,,,,,,,,,,,,,,,,,,,,,,,,,,,,,,,,,,,,,,,,,,,,,,,,,,,,,,,,,,,,,,,,,,,,,,,,,,,,,,,,,,,,,,,,,,,,,,,,,,,,,,,,,,,,,,,,,,,,,,,,,,,
0,22,22,27,1,,6160f5524121cc64e5734edc,62c53a423d012ff394c79240,2022-07-06_09h33.24.429,Colour_Asymmetry_Pilot,2022.1.3,Win32,60.03121623,62c50e9c1127f2cd403a315f,,,,,,,,,,,,,,,,,,,,,,,,,,,,,,,,,,,,,,,,,,,,,,,,,,,,,,,,,,,,,,,,,,,,,,,,,,,,,,,,,,,,,,,,,,,,,,,,,,,,,,,,,,,,,,,,,,,,,,,,,,,,,,,,,,,,,,,,,,,,,,,,,,,,,,,,,,,,,,,,,,,
0,23,23,77,1,,6160f5524121cc64e5734edc,62c53a423d012ff394c79240,2022-07-06_09h33.24.429,Colour_Asymmetry_Pilot,2022.1.3,Win32,60.03121623,62c50e9c1127f2cd403a315f,,,,,,,,,,,,,,,,,,,,,,,,,,,,,,,,,,,,,,,,,,,,,,,,,,,,,,,,,,,,,,,,,,,,,,,,,,,,,,,,,,,,,,,,,,,,,,,,,,,,,,,,,,,,,,,,,,,,,,,,,,,,,,,,,,,,,,,,,,,,,,,,,,,,,,,,,,,,,,,,,,,
0,24,24,71,1,,6160f5524121cc64e5734edc,62c53a423d012ff394c79240,2022-07-06_09h33.24.429,Colour_Asymmetry_Pilot,2022.1.3,Win32,60.03121623,62c50e9c1127f2cd403a315f,,,,,,,,,,,,,,,,,,,,,,,,,,,,,,,,,,,,,,,,,,,,,,,,,,,,,,,,,,,,,,,,,,,,,,,,,,,,,,,,,,,,,,,,,,,,,,,,,,,,,,,,,,,,,,,,,,,,,,,,,,,,,,,,,,,,,,,,,,,,,,,,,,,,,,,,,,,,,,,,,,,
0,25,25,42,1,,6160f5524121cc64e5734edc,62c53a423d012ff394c79240,2022-07-06_09h33.24.429,Colour_Asymmetry_Pilot,2022.1.3,Win32,60.03121623,62c50e9c1127f2cd403a315f,,,,,,,,,,,,,,,,,,,,,,,,,,,,,,,,,,,,,,,,,,,,,,,,,,,,,,,,,,,,,,,,,,,,,,,,,,,,,,,,,,,,,,,,,,,,,,,,,,,,,,,,,,,,,,,,,,,,,,,,,,,,,,,,,,,,,,,,,,,,,,,,,,,,,,,,,,,,,,,,,,,
0,26,26,56,1,,6160f5524121cc64e5734edc,62c53a423d012ff394c79240,2022-07-06_09h33.24.429,Colour_Asymmetry_Pilot,2022.1.3,Win32,60.03121623,62c50e9c1127f2cd403a315f,,,,,,,,,,,,,,,,,,,,,,,,,,,,,,,,,,,,,,,,,,,,,,,,,,,,,,,,,,,,,,,,,,,,,,,,,,,,,,,,,,,,,,,,,,,,,,,,,,,,,,,,,,,,,,,,,,,,,,,,,,,,,,,,,,,,,,,,,,,,,,,,,,,,,,,,,,,,,,,,,,,
0,27,27,83,1,,6160f5524121cc64e5734edc,62c53a423d012ff394c79240,2022-07-06_09h33.24.429,Colour_Asymmetry_Pilot,2022.1.3,Win32,60.03121623,62c50e9c1127f2cd403a315f,,,,,,,,,,,,,,,,,,,,,,,,,,,,,,,,,,,,,,,,,,,,,,,,,,,,,,,,,,,,,,,,,,,,,,,,,,,,,,,,,,,,,,,,,,,,,,,,,,,,,,,,,,,,,,,,,,,,,,,,,,,,,,,,,,,,,,,,,,,,,,,,,,,,,,,,,,,,,,,,,,,
0,28,28,89,1,,6160f5524121cc64e5734edc,62c53a423d012ff394c79240,2022-07-06_09h33.24.429,Colour_Asymmetry_Pilot,2022.1.3,Win32,60.03121623,62c50e9c1127f2cd403a315f,,,,,,,,,,,,,,,,,,,,,,,,,,,,,,,,,,,,,,,,,,,,,,,,,,,,,,,,,,,,,,,,,,,,,,,,,,,,,,,,,,,,,,,,,,,,,,,,,,,,,,,,,,,,,,,,,,,,,,,,,,,,,,,,,,,,,,,,,,,,,,,,,,,,,,,,,,,,,,,,,,,
0,29,29,24,1,,6160f5524121cc64e5734edc,62c53a423d012ff394c79240,2022-07-06_09h33.24.429,Colour_Asymmetry_Pilot,2022.1.3,Win32,60.03121623,62c50e9c1127f2cd403a315f,,,,,,,,,,,,,,,,,,,,,,,,,,,,,,,,,,,,,,,,,,,,,,,,,,,,,,,,,,,,,,,,,,,,,,,,,,,,,,,,,,,,,,,,,,,,,,,,,,,,,,,,,,,,,,,,,,,,,,,,,,,,,,,,,,,,,,,,,,,,,,,,,,,,,,,,,,,,,,,,,,,
0,30,30,30,1,,6160f5524121cc64e5734edc,62c53a423d012ff394c79240,2022-07-06_09h33.24.429,Colour_Asymmetry_Pilot,2022.1.3,Win32,60.03121623,62c50e9c1127f2cd403a315f,,,,,,,,,,,,,,,,,,,,,,,,,,,,,,,,,,,,,,,,,,,,,,,,,,,,,,,,,,,,,,,,,,,,,,,,,,,,,,,,,,,,,,,,,,,,,,,,,,,,,,,,,,,,,,,,,,,,,,,,,,,,,,,,,,,,,,,,,,,,,,,,,,,,,,,,,,,,,,,,,,,
0,31,31,68,1,,6160f5524121cc64e5734edc,62c53a423d012ff394c79240,2022-07-06_09h33.24.429,Colour_Asymmetry_Pilot,2022.1.3,Win32,60.03121623,62c50e9c1127f2cd403a315f,,,,,,,,,,,,,,,,,,,,,,,,,,,,,,,,,,,,,,,,,,,,,,,,,,,,,,,,,,,,,,,,,,,,,,,,,,,,,,,,,,,,,,,,,,,,,,,,,,,,,,,,,,,,,,,,,,,,,,,,,,,,,,,,,,,,,,,,,,,,,,,,,,,,,,,,,,,,,,,,,,,
0,32,32,58,1,,6160f5524121cc64e5734edc,62c53a423d012ff394c79240,2022-07-06_09h33.24.429,Colour_Asymmetry_Pilot,2022.1.3,Win32,60.03121623,62c50e9c1127f2cd403a315f,,,,,,,,,,,,,,,,,,,,,,,,,,,,,,,,,,,,,,,,,,,,,,,,,,,,,,,,,,,,,,,,,,,,,,,,,,,,,,,,,,,,,,,,,,,,,,,,,,,,,,,,,,,,,,,,,,,,,,,,,,,,,,,,,,,,,,,,,,,,,,,,,,,,,,,,,,,,,,,,,,,
0,33,33,54,1,,6160f5524121cc64e5734edc,62c53a423d012ff394c79240,2022-07-06_09h33.24.429,Colour_Asymmetry_Pilot,2022.1.3,Win32,60.03121623,62c50e9c1127f2cd403a315f,,,,,,,,,,,,,,,,,,,,,,,,,,,,,,,,,,,,,,,,,,,,,,,,,,,,,,,,,,,,,,,,,,,,,,,,,,,,,,,,,,,,,,,,,,,,,,,,,,,,,,,,,,,,,,,,,,,,,,,,,,,,,,,,,,,,,,,,,,,,,,,,,,,,,,,,,,,,,,,,,,,
0,34,34,13,1,,6160f5524121cc64e5734edc,62c53a423d012ff394c79240,2022-07-06_09h33.24.429,Colour_Asymmetry_Pilot,2022.1.3,Win32,60.03121623,62c50e9c1127f2cd403a315f,,,,,,,,,,,,,,,,,,,,,,,,,,,,,,,,,,,,,,,,,,,,,,,,,,,,,,,,,,,,,,,,,,,,,,,,,,,,,,,,,,,,,,,,,,,,,,,,,,,,,,,,,,,,,,,,,,,,,,,,,,,,,,,,,,,,,,,,,,,,,,,,,,,,,,,,,,,,,,,,,,,
0,35,35,14,1,,6160f5524121cc64e5734edc,62c53a423d012ff394c79240,2022-07-06_09h33.24.429,Colour_Asymmetry_Pilot,2022.1.3,Win32,60.03121623,62c50e9c1127f2cd403a315f,,,,,,,,,,,,,,,,,,,,,,,,,,,,,,,,,,,,,,,,,,,,,,,,,,,,,,,,,,,,,,,,,,,,,,,,,,,,,,,,,,,,,,,,,,,,,,,,,,,,,,,,,,,,,,,,,,,,,,,,,,,,,,,,,,,,,,,,,,,,,,,,,,,,,,,,,,,,,,,,,,,
0,36,36,50,1,,6160f5524121cc64e5734edc,62c53a423d012ff394c79240,2022-07-06_09h33.24.429,Colour_Asymmetry_Pilot,2022.1.3,Win32,60.03121623,62c50e9c1127f2cd403a315f,,,,,,,,,,,,,,,,,,,,,,,,,,,,,,,,,,,,,,,,,,,,,,,,,,,,,,,,,,,,,,,,,,,,,,,,,,,,,,,,,,,,,,,,,,,,,,,,,,,,,,,,,,,,,,,,,,,,,,,,,,,,,,,,,,,,,,,,,,,,,,,,,,,,,,,,,,,,,,,,,,,
0,37,37,16,1,,6160f5524121cc64e5734edc,62c53a423d012ff394c79240,2022-07-06_09h33.24.429,Colour_Asymmetry_Pilot,2022.1.3,Win32,60.03121623,62c50e9c1127f2cd403a315f,,,,,,,,,,,,,,,,,,,,,,,,,,,,,,,,,,,,,,,,,,,,,,,,,,,,,,,,,,,,,,,,,,,,,,,,,,,,,,,,,,,,,,,,,,,,,,,,,,,,,,,,,,,,,,,,,,,,,,,,,,,,,,,,,,,,,,,,,,,,,,,,,,,,,,,,,,,,,,,,,,,
0,38,38,92,1,,6160f5524121cc64e5734edc,62c53a423d012ff394c79240,2022-07-06_09h33.24.429,Colour_Asymmetry_Pilot,2022.1.3,Win32,60.03121623,62c50e9c1127f2cd403a315f,,,,,,,,,,,,,,,,,,,,,,,,,,,,,,,,,,,,,,,,,,,,,,,,,,,,,,,,,,,,,,,,,,,,,,,,,,,,,,,,,,,,,,,,,,,,,,,,,,,,,,,,,,,,,,,,,,,,,,,,,,,,,,,,,,,,,,,,,,,,,,,,,,,,,,,,,,,,,,,,,,,
0,39,39,78,1,,6160f5524121cc64e5734edc,62c53a423d012ff394c79240,2022-07-06_09h33.24.429,Colour_Asymmetry_Pilot,2022.1.3,Win32,60.03121623,62c50e9c1127f2cd403a315f,,,,,,,,,,,,,,,,,,,,,,,,,,,,,,,,,,,,,,,,,,,,,,,,,,,,,,,,,,,,,,,,,,,,,,,,,,,,,,,,,,,,,,,,,,,,,,,,,,,,,,,,,,,,,,,,,,,,,,,,,,,,,,,,,,,,,,,,,,,,,,,,,,,,,,,,,,,,,,,,,,,
0,40,40,0,1,,6160f5524121cc64e5734edc,62c53a423d012ff394c79240,2022-07-06_09h33.24.429,Colour_Asymmetry_Pilot,2022.1.3,Win32,60.03121623,62c50e9c1127f2cd403a315f,,,,,,,,,,,,,,,,,,,,,,,,,,,,,,,,,,,,,,,,,,,,,,,,,,,,,,,,,,,,,,,,,,,,,,,,,,,,,,,,,,,,,,,,,,,,,,,,,,,,,,,,,,,,,,,,,,,,,,,,,,,,,,,,,,,,,,,,,,,,,,,,,,,,,,,,,,,,,,,,,,,
0,41,41,49,1,,6160f5524121cc64e5734edc,62c53a423d012ff394c79240,2022-07-06_09h33.24.429,Colour_Asymmetry_Pilot,2022.1.3,Win32,60.03121623,62c50e9c1127f2cd403a315f,,,,,,,,,,,,,,,,,,,,,,,,,,,,,,,,,,,,,,,,,,,,,,,,,,,,,,,,,,,,,,,,,,,,,,,,,,,,,,,,,,,,,,,,,,,,,,,,,,,,,,,,,,,,,,,,,,,,,,,,,,,,,,,,,,,,,,,,,,,,,,,,,,,,,,,,,,,,,,,,,,,
0,42,42,23,1,,6160f5524121cc64e5734edc,62c53a423d012ff394c79240,2022-07-06_09h33.24.429,Colour_Asymmetry_Pilot,2022.1.3,Win32,60.03121623,62c50e9c1127f2cd403a315f,,,,,,,,,,,,,,,,,,,,,,,,,,,,,,,,,,,,,,,,,,,,,,,,,,,,,,,,,,,,,,,,,,,,,,,,,,,,,,,,,,,,,,,,,,,,,,,,,,,,,,,,,,,,,,,,,,,,,,,,,,,,,,,,,,,,,,,,,,,,,,,,,,,,,,,,,,,,,,,,,,,
0,43,43,4,1,,6160f5524121cc64e5734edc,62c53a423d012ff394c79240,2022-07-06_09h33.24.429,Colour_Asymmetry_Pilot,2022.1.3,Win32,60.03121623,62c50e9c1127f2cd403a315f,,,,,,,,,,,,,,,,,,,,,,,,,,,,,,,,,,,,,,,,,,,,,,,,,,,,,,,,,,,,,,,,,,,,,,,,,,,,,,,,,,,,,,,,,,,,,,,,,,,,,,,,,,,,,,,,,,,,,,,,,,,,,,,,,,,,,,,,,,,,,,,,,,,,,,,,,,,,,,,,,,,
0,44,44,47,1,,6160f5524121cc64e5734edc,62c53a423d012ff394c79240,2022-07-06_09h33.24.429,Colour_Asymmetry_Pilot,2022.1.3,Win32,60.03121623,62c50e9c1127f2cd403a315f,,,,,,,,,,,,,,,,,,,,,,,,,,,,,,,,,,,,,,,,,,,,,,,,,,,,,,,,,,,,,,,,,,,,,,,,,,,,,,,,,,,,,,,,,,,,,,,,,,,,,,,,,,,,,,,,,,,,,,,,,,,,,,,,,,,,,,,,,,,,,,,,,,,,,,,,,,,,,,,,,,,
0,45,45,73,1,,6160f5524121cc64e5734edc,62c53a423d012ff394c79240,2022-07-06_09h33.24.429,Colour_Asymmetry_Pilot,2022.1.3,Win32,60.03121623,62c50e9c1127f2cd403a315f,,,,,,,,,,,,,,,,,,,,,,,,,,,,,,,,,,,,,,,,,,,,,,,,,,,,,,,,,,,,,,,,,,,,,,,,,,,,,,,,,,,,,,,,,,,,,,,,,,,,,,,,,,,,,,,,,,,,,,,,,,,,,,,,,,,,,,,,,,,,,,,,,,,,,,,,,,,,,,,,,,,
0,46,46,81,1,,6160f5524121cc64e5734edc,62c53a423d012ff394c79240,2022-07-06_09h33.24.429,Colour_Asymmetry_Pilot,2022.1.3,Win32,60.03121623,62c50e9c1127f2cd403a315f,,,,,,,,,,,,,,,,,,,,,,,,,,,,,,,,,,,,,,,,,,,,,,,,,,,,,,,,,,,,,,,,,,,,,,,,,,,,,,,,,,,,,,,,,,,,,,,,,,,,,,,,,,,,,,,,,,,,,,,,,,,,,,,,,,,,,,,,,,,,,,,,,,,,,,,,,,,,,,,,,,,
0,47,47,7,1,,6160f5524121cc64e5734edc,62c53a423d012ff394c79240,2022-07-06_09h33.24.429,Colour_Asymmetry_Pilot,2022.1.3,Win32,60.03121623,62c50e9c1127f2cd403a315f,,,,,,,,,,,,,,,,,,,,,,,,,,,,,,,,,,,,,,,,,,,,,,,,,,,,,,,,,,,,,,,,,,,,,,,,,,,,,,,,,,,,,,,,,,,,,,,,,,,,,,,,,,,,,,,,,,,,,,,,,,,,,,,,,,,,,,,,,,,,,,,,,,,,,,,,,,,,,,,,,,,
0,48,48,41,1,,6160f5524121cc64e5734edc,62c53a423d012ff394c79240,2022-07-06_09h33.24.429,Colour_Asymmetry_Pilot,2022.1.3,Win32,60.03121623,62c50e9c1127f2cd403a315f,,,,,,,,,,,,,,,,,,,,,,,,,,,,,,,,,,,,,,,,,,,,,,,,,,,,,,,,,,,,,,,,,,,,,,,,,,,,,,,,,,,,,,,,,,,,,,,,,,,,,,,,,,,,,,,,,,,,,,,,,,,,,,,,,,,,,,,,,,,,,,,,,,,,,,,,,,,,,,,,,,,
0,49,49,37,1,,6160f5524121cc64e5734edc,62c53a423d012ff394c79240,2022-07-06_09h33.24.429,Colour_Asymmetry_Pilot,2022.1.3,Win32,60.03121623,62c50e9c1127f2cd403a315f,,,,,,,,,,,,,,,,,,,,,,,,,,,,,,,,,,,,,,,,,,,,,,,,,,,,,,,,,,,,,,,,,,,,,,,,,,,,,,,,,,,,,,,,,,,,,,,,,,,,,,,,,,,,,,,,,,,,,,,,,,,,,,,,,,,,,,,,,,,,,,,,,,,,,,,,,,,,,,,,,,,
0,50,50,45,1,,6160f5524121cc64e5734edc,62c53a423d012ff394c79240,2022-07-06_09h33.24.429,Colour_Asymmetry_Pilot,2022.1.3,Win32,60.03121623,62c50e9c1127f2cd403a315f,,,,,,,,,,,,,,,,,,,,,,,,,,,,,,,,,,,,,,,,,,,,,,,,,,,,,,,,,,,,,,,,,,,,,,,,,,,,,,,,,,,,,,,,,,,,,,,,,,,,,,,,,,,,,,,,,,,,,,,,,,,,,,,,,,,,,,,,,,,,,,,,,,,,,,,,,,,,,,,,,,,
0,51,51,70,1,,6160f5524121cc64e5734edc,62c53a423d012ff394c79240,2022-07-06_09h33.24.429,Colour_Asymmetry_Pilot,2022.1.3,Win32,60.03121623,62c50e9c1127f2cd403a315f,,,,,,,,,,,,,,,,,,,,,,,,,,,,,,,,,,,,,,,,,,,,,,,,,,,,,,,,,,,,,,,,,,,,,,,,,,,,,,,,,,,,,,,,,,,,,,,,,,,,,,,,,,,,,,,,,,,,,,,,,,,,,,,,,,,,,,,,,,,,,,,,,,,,,,,,,,,,,,,,,,,
0,52,52,90,1,,6160f5524121cc64e5734edc,62c53a423d012ff394c79240,2022-07-06_09h33.24.429,Colour_Asymmetry_Pilot,2022.1.3,Win32,60.03121623,62c50e9c1127f2cd403a315f,,,,,,,,,,,,,,,,,,,,,,,,,,,,,,,,,,,,,,,,,,,,,,,,,,,,,,,,,,,,,,,,,,,,,,,,,,,,,,,,,,,,,,,,,,,,,,,,,,,,,,,,,,,,,,,,,,,,,,,,,,,,,,,,,,,,,,,,,,,,,,,,,,,,,,,,,,,,,,,,,,,
0,53,53,22,1,,6160f5524121cc64e5734edc,62c53a423d012ff394c79240,2022-07-06_09h33.24.429,Colour_Asymmetry_Pilot,2022.1.3,Win32,60.03121623,62c50e9c1127f2cd403a315f,,,,,,,,,,,,,,,,,,,,,,,,,,,,,,,,,,,,,,,,,,,,,,,,,,,,,,,,,,,,,,,,,,,,,,,,,,,,,,,,,,,,,,,,,,,,,,,,,,,,,,,,,,,,,,,,,,,,,,,,,,,,,,,,,,,,,,,,,,,,,,,,,,,,,,,,,,,,,,,,,,,
0,54,54,5,1,,6160f5524121cc64e5734edc,62c53a423d012ff394c79240,2022-07-06_09h33.24.429,Colour_Asymmetry_Pilot,2022.1.3,Win32,60.03121623,62c50e9c1127f2cd403a315f,,,,,,,,,,,,,,,,,,,,,,,,,,,,,,,,,,,,,,,,,,,,,,,,,,,,,,,,,,,,,,,,,,,,,,,,,,,,,,,,,,,,,,,,,,,,,,,,,,,,,,,,,,,,,,,,,,,,,,,,,,,,,,,,,,,,,,,,,,,,,,,,,,,,,,,,,,,,,,,,,,,
0,55,55,46,1,,6160f5524121cc64e5734edc,62c53a423d012ff394c79240,2022-07-06_09h33.24.429,Colour_Asymmetry_Pilot,2022.1.3,Win32,60.03121623,62c50e9c1127f2cd403a315f,,,,,,,,,,,,,,,,,,,,,,,,,,,,,,,,,,,,,,,,,,,,,,,,,,,,,,,,,,,,,,,,,,,,,,,,,,,,,,,,,,,,,,,,,,,,,,,,,,,,,,,,,,,,,,,,,,,,,,,,,,,,,,,,,,,,,,,,,,,,,,,,,,,,,,,,,,,,,,,,,,,
0,56,56,65,1,,6160f5524121cc64e5734edc,62c53a423d012ff394c79240,2022-07-06_09h33.24.429,Colour_Asymmetry_Pilot,2022.1.3,Win32,60.03121623,62c50e9c1127f2cd403a315f,,,,,,,,,,,,,,,,,,,,,,,,,,,,,,,,,,,,,,,,,,,,,,,,,,,,,,,,,,,,,,,,,,,,,,,,,,,,,,,,,,,,,,,,,,,,,,,,,,,,,,,,,,,,,,,,,,,,,,,,,,,,,,,,,,,,,,,,,,,,,,,,,,,,,,,,,,,,,,,,,,,
0,57,57,32,1,,6160f5524121cc64e5734edc,62c53a423d012ff394c79240,2022-07-06_09h33.24.429,Colour_Asymmetry_Pilot,2022.1.3,Win32,60.03121623,62c50e9c1127f2cd403a315f,,,,,,,,,,,,,,,,,,,,,,,,,,,,,,,,,,,,,,,,,,,,,,,,,,,,,,,,,,,,,,,,,,,,,,,,,,,,,,,,,,,,,,,,,,,,,,,,,,,,,,,,,,,,,,,,,,,,,,,,,,,,,,,,,,,,,,,,,,,,,,,,,,,,,,,,,,,,,,,,,,,
0,58,58,69,1,,6160f5524121cc64e5734edc,62c53a423d012ff394c79240,2022-07-06_09h33.24.429,Colour_Asymmetry_Pilot,2022.1.3,Win32,60.03121623,62c50e9c1127f2cd403a315f,,,,,,,,,,,,,,,,,,,,,,,,,,,,,,,,,,,,,,,,,,,,,,,,,,,,,,,,,,,,,,,,,,,,,,,,,,,,,,,,,,,,,,,,,,,,,,,,,,,,,,,,,,,,,,,,,,,,,,,,,,,,,,,,,,,,,,,,,,,,,,,,,,,,,,,,,,,,,,,,,,,
0,59,59,43,1,,6160f5524121cc64e5734edc,62c53a423d012ff394c79240,2022-07-06_09h33.24.429,Colour_Asymmetry_Pilot,2022.1.3,Win32,60.03121623,62c50e9c1127f2cd403a315f,,,,,,,,,,,,,,,,,,,,,,,,,,,,,,,,,,,,,,,,,,,,,,,,,,,,,,,,,,,,,,,,,,,,,,,,,,,,,,,,,,,,,,,,,,,,,,,,,,,,,,,,,,,,,,,,,,,,,,,,,,,,,,,,,,,,,,,,,,,,,,,,,,,,,,,,,,,,,,,,,,,
0,60,60,17,1,,6160f5524121cc64e5734edc,62c53a423d012ff394c79240,2022-07-06_09h33.24.429,Colour_Asymmetry_Pilot,2022.1.3,Win32,60.03121623,62c50e9c1127f2cd403a315f,,,,,,,,,,,,,,,,,,,,,,,,,,,,,,,,,,,,,,,,,,,,,,,,,,,,,,,,,,,,,,,,,,,,,,,,,,,,,,,,,,,,,,,,,,,,,,,,,,,,,,,,,,,,,,,,,,,,,,,,,,,,,,,,,,,,,,,,,,,,,,,,,,,,,,,,,,,,,,,,,,,
0,61,61,2,1,,6160f5524121cc64e5734edc,62c53a423d012ff394c79240,2022-07-06_09h33.24.429,Colour_Asymmetry_Pilot,2022.1.3,Win32,60.03121623,62c50e9c1127f2cd403a315f,,,,,,,,,,,,,,,,,,,,,,,,,,,,,,,,,,,,,,,,,,,,,,,,,,,,,,,,,,,,,,,,,,,,,,,,,,,,,,,,,,,,,,,,,,,,,,,,,,,,,,,,,,,,,,,,,,,,,,,,,,,,,,,,,,,,,,,,,,,,,,,,,,,,,,,,,,,,,,,,,,,
0,62,62,67,1,,6160f5524121cc64e5734edc,62c53a423d012ff394c79240,2022-07-06_09h33.24.429,Colour_Asymmetry_Pilot,2022.1.3,Win32,60.03121623,62c50e9c1127f2cd403a315f,,,,,,,,,,,,,,,,,,,,,,,,,,,,,,,,,,,,,,,,,,,,,,,,,,,,,,,,,,,,,,,,,,,,,,,,,,,,,,,,,,,,,,,,,,,,,,,,,,,,,,,,,,,,,,,,,,,,,,,,,,,,,,,,,,,,,,,,,,,,,,,,,,,,,,,,,,,,,,,,,,,
0,63,63,9,1,,6160f5524121cc64e5734edc,62c53a423d012ff394c79240,2022-07-06_09h33.24.429,Colour_Asymmetry_Pilot,2022.1.3,Win32,60.03121623,62c50e9c1127f2cd403a315f,,,,,,,,,,,,,,,,,,,,,,,,,,,,,,,,,,,,,,,,,,,,,,,,,,,,,,,,,,,,,,,,,,,,,,,,,,,,,,,,,,,,,,,,,,,,,,,,,,,,,,,,,,,,,,,,,,,,,,,,,,,,,,,,,,,,,,,,,,,,,,,,,,,,,,,,,,,,,,,,,,,
0,64,64,62,1,,6160f5524121cc64e5734edc,62c53a423d012ff394c79240,2022-07-06_09h33.24.429,Colour_Asymmetry_Pilot,2022.1.3,Win32,60.03121623,62c50e9c1127f2cd403a315f,,,,,,,,,,,,,,,,,,,,,,,,,,,,,,,,,,,,,,,,,,,,,,,,,,,,,,,,,,,,,,,,,,,,,,,,,,,,,,,,,,,,,,,,,,,,,,,,,,,,,,,,,,,,,,,,,,,,,,,,,,,,,,,,,,,,,,,,,,,,,,,,,,,,,,,,,,,,,,,,,,,
0,65,65,75,1,,6160f5524121cc64e5734edc,62c53a423d012ff394c79240,2022-07-06_09h33.24.429,Colour_Asymmetry_Pilot,2022.1.3,Win32,60.03121623,62c50e9c1127f2cd403a315f,,,,,,,,,,,,,,,,,,,,,,,,,,,,,,,,,,,,,,,,,,,,,,,,,,,,,,,,,,,,,,,,,,,,,,,,,,,,,,,,,,,,,,,,,,,,,,,,,,,,,,,,,,,,,,,,,,,,,,,,,,,,,,,,,,,,,,,,,,,,,,,,,,,,,,,,,,,,,,,,,,,
0,66,66,36,1,,6160f5524121cc64e5734edc,62c53a423d012ff394c79240,2022-07-06_09h33.24.429,Colour_Asymmetry_Pilot,2022.1.3,Win32,60.03121623,62c50e9c1127f2cd403a315f,,,,,,,,,,,,,,,,,,,,,,,,,,,,,,,,,,,,,,,,,,,,,,,,,,,,,,,,,,,,,,,,,,,,,,,,,,,,,,,,,,,,,,,,,,,,,,,,,,,,,,,,,,,,,,,,,,,,,,,,,,,,,,,,,,,,,,,,,,,,,,,,,,,,,,,,,,,,,,,,,,,
0,67,67,25,1,,6160f5524121cc64e5734edc,62c53a423d012ff394c79240,2022-07-06_09h33.24.429,Colour_Asymmetry_Pilot,2022.1.3,Win32,60.03121623,62c50e9c1127f2cd403a315f,,,,,,,,,,,,,,,,,,,,,,,,,,,,,,,,,,,,,,,,,,,,,,,,,,,,,,,,,,,,,,,,,,,,,,,,,,,,,,,,,,,,,,,,,,,,,,,,,,,,,,,,,,,,,,,,,,,,,,,,,,,,,,,,,,,,,,,,,,,,,,,,,,,,,,,,,,,,,,,,,,,
0,68,68,10,1,,6160f5524121cc64e5734edc,62c53a423d012ff394c79240,2022-07-06_09h33.24.429,Colour_Asymmetry_Pilot,2022.1.3,Win32,60.03121623,62c50e9c1127f2cd403a315f,,,,,,,,,,,,,,,,,,,,,,,,,,,,,,,,,,,,,,,,,,,,,,,,,,,,,,,,,,,,,,,,,,,,,,,,,,,,,,,,,,,,,,,,,,,,,,,,,,,,,,,,,,,,,,,,,,,,,,,,,,,,,,,,,,,,,,,,,,,,,,,,,,,,,,,,,,,,,,,,,,,
0,69,69,84,1,,6160f5524121cc64e5734edc,62c53a423d012ff394c79240,2022-07-06_09h33.24.429,Colour_Asymmetry_Pilot,2022.1.3,Win32,60.03121623,62c50e9c1127f2cd403a315f,,,,,,,,,,,,,,,,,,,,,,,,,,,,,,,,,,,,,,,,,,,,,,,,,,,,,,,,,,,,,,,,,,,,,,,,,,,,,,,,,,,,,,,,,,,,,,,,,,,,,,,,,,,,,,,,,,,,,,,,,,,,,,,,,,,,,,,,,,,,,,,,,,,,,,,,,,,,,,,,,,,
0,70,70,57,1,,6160f5524121cc64e5734edc,62c53a423d012ff394c79240,2022-07-06_09h33.24.429,Colour_Asymmetry_Pilot,2022.1.3,Win32,60.03121623,62c50e9c1127f2cd403a315f,,,,,,,,,,,,,,,,,,,,,,,,,,,,,,,,,,,,,,,,,,,,,,,,,,,,,,,,,,,,,,,,,,,,,,,,,,,,,,,,,,,,,,,,,,,,,,,,,,,,,,,,,,,,,,,,,,,,,,,,,,,,,,,,,,,,,,,,,,,,,,,,,,,,,,,,,,,,,,,,,,,
0,71,71,33,1,,6160f5524121cc64e5734edc,62c53a423d012ff394c79240,2022-07-06_09h33.24.429,Colour_Asymmetry_Pilot,2022.1.3,Win32,60.03121623,62c50e9c1127f2cd403a315f,,,,,,,,,,,,,,,,,,,,,,,,,,,,,,,,,,,,,,,,,,,,,,,,,,,,,,,,,,,,,,,,,,,,,,,,,,,,,,,,,,,,,,,,,,,,,,,,,,,,,,,,,,,,,,,,,,,,,,,,,,,,,,,,,,,,,,,,,,,,,,,,,,,,,,,,,,,,,,,,,,,
0,72,72,3,1,,6160f5524121cc64e5734edc,62c53a423d012ff394c79240,2022-07-06_09h33.24.429,Colour_Asymmetry_Pilot,2022.1.3,Win32,60.03121623,62c50e9c1127f2cd403a315f,,,,,,,,,,,,,,,,,,,,,,,,,,,,,,,,,,,,,,,,,,,,,,,,,,,,,,,,,,,,,,,,,,,,,,,,,,,,,,,,,,,,,,,,,,,,,,,,,,,,,,,,,,,,,,,,,,,,,,,,,,,,,,,,,,,,,,,,,,,,,,,,,,,,,,,,,,,,,,,,,,,
0,73,73,91,1,,6160f5524121cc64e5734edc,62c53a423d012ff394c79240,2022-07-06_09h33.24.429,Colour_Asymmetry_Pilot,2022.1.3,Win32,60.03121623,62c50e9c1127f2cd403a315f,,,,,,,,,,,,,,,,,,,,,,,,,,,,,,,,,,,,,,,,,,,,,,,,,,,,,,,,,,,,,,,,,,,,,,,,,,,,,,,,,,,,,,,,,,,,,,,,,,,,,,,,,,,,,,,,,,,,,,,,,,,,,,,,,,,,,,,,,,,,,,,,,,,,,,,,,,,,,,,,,,,
0,74,74,53,1,,6160f5524121cc64e5734edc,62c53a423d012ff394c79240,2022-07-06_09h33.24.429,Colour_Asymmetry_Pilot,2022.1.3,Win32,60.03121623,62c50e9c1127f2cd403a315f,,,,,,,,,,,,,,,,,,,,,,,,,,,,,,,,,,,,,,,,,,,,,,,,,,,,,,,,,,,,,,,,,,,,,,,,,,,,,,,,,,,,,,,,,,,,,,,,,,,,,,,,,,,,,,,,,,,,,,,,,,,,,,,,,,,,,,,,,,,,,,,,,,,,,,,,,,,,,,,,,,,
0,75,75,79,1,,6160f5524121cc64e5734edc,62c53a423d012ff394c79240,2022-07-06_09h33.24.429,Colour_Asymmetry_Pilot,2022.1.3,Win32,60.03121623,62c50e9c1127f2cd403a315f,,,,,,,,,,,,,,,,,,,,,,,,,,,,,,,,,,,,,,,,,,,,,,,,,,,,,,,,,,,,,,,,,,,,,,,,,,,,,,,,,,,,,,,,,,,,,,,,,,,,,,,,,,,,,,,,,,,,,,,,,,,,,,,,,,,,,,,,,,,,,,,,,,,,,,,,,,,,,,,,,,,
0,76,76,48,1,,6160f5524121cc64e5734edc,62c53a423d012ff394c79240,2022-07-06_09h33.24.429,Colour_Asymmetry_Pilot,2022.1.3,Win32,60.03121623,62c50e9c1127f2cd403a315f,,,,,,,,,,,,,,,,,,,,,,,,,,,,,,,,,,,,,,,,,,,,,,,,,,,,,,,,,,,,,,,,,,,,,,,,,,,,,,,,,,,,,,,,,,,,,,,,,,,,,,,,,,,,,,,,,,,,,,,,,,,,,,,,,,,,,,,,,,,,,,,,,,,,,,,,,,,,,,,,,,,
0,77,77,40,1,,6160f5524121cc64e5734edc,62c53a423d012ff394c79240,2022-07-06_09h33.24.429,Colour_Asymmetry_Pilot,2022.1.3,Win32,60.03121623,62c50e9c1127f2cd403a315f,,,,,,,,,,,,,,,,,,,,,,,,,,,,,,,,,,,,,,,,,,,,,,,,,,,,,,,,,,,,,,,,,,,,,,,,,,,,,,,,,,,,,,,,,,,,,,,,,,,,,,,,,,,,,,,,,,,,,,,,,,,,,,,,,,,,,,,,,,,,,,,,,,,,,,,,,,,,,,,,,,,
0,78,78,21,1,,6160f5524121cc64e5734edc,62c53a423d012ff394c79240,2022-07-06_09h33.24.429,Colour_Asymmetry_Pilot,2022.1.3,Win32,60.03121623,62c50e9c1127f2cd403a315f,,,,,,,,,,,,,,,,,,,,,,,,,,,,,,,,,,,,,,,,,,,,,,,,,,,,,,,,,,,,,,,,,,,,,,,,,,,,,,,,,,,,,,,,,,,,,,,,,,,,,,,,,,,,,,,,,,,,,,,,,,,,,,,,,,,,,,,,,,,,,,,,,,,,,,,,,,,,,,,,,,,
0,79,79,44,1,,6160f5524121cc64e5734edc,62c53a423d012ff394c79240,2022-07-06_09h33.24.429,Colour_Asymmetry_Pilot,2022.1.3,Win32,60.03121623,62c50e9c1127f2cd403a315f,,,,,,,,,,,,,,,,,,,,,,,,,,,,,,,,,,,,,,,,,,,,,,,,,,,,,,,,,,,,,,,,,,,,,,,,,,,,,,,,,,,,,,,,,,,,,,,,,,,,,,,,,,,,,,,,,,,,,,,,,,,,,,,,,,,,,,,,,,,,,,,,,,,,,,,,,,,,,,,,,,,
0,80,80,34,1,,6160f5524121cc64e5734edc,62c53a423d012ff394c79240,2022-07-06_09h33.24.429,Colour_Asymmetry_Pilot,2022.1.3,Win32,60.03121623,62c50e9c1127f2cd403a315f,,,,,,,,,,,,,,,,,,,,,,,,,,,,,,,,,,,,,,,,,,,,,,,,,,,,,,,,,,,,,,,,,,,,,,,,,,,,,,,,,,,,,,,,,,,,,,,,,,,,,,,,,,,,,,,,,,,,,,,,,,,,,,,,,,,,,,,,,,,,,,,,,,,,,,,,,,,,,,,,,,,
0,81,81,64,1,,6160f5524121cc64e5734edc,62c53a423d012ff394c79240,2022-07-06_09h33.24.429,Colour_Asymmetry_Pilot,2022.1.3,Win32,60.03121623,62c50e9c1127f2cd403a315f,,,,,,,,,,,,,,,,,,,,,,,,,,,,,,,,,,,,,,,,,,,,,,,,,,,,,,,,,,,,,,,,,,,,,,,,,,,,,,,,,,,,,,,,,,,,,,,,,,,,,,,,,,,,,,,,,,,,,,,,,,,,,,,,,,,,,,,,,,,,,,,,,,,,,,,,,,,,,,,,,,,
0,82,82,20,1,,6160f5524121cc64e5734edc,62c53a423d012ff394c79240,2022-07-06_09h33.24.429,Colour_Asymmetry_Pilot,2022.1.3,Win32,60.03121623,62c50e9c1127f2cd403a315f,,,,,,,,,,,,,,,,,,,,,,,,,,,,,,,,,,,,,,,,,,,,,,,,,,,,,,,,,,,,,,,,,,,,,,,,,,,,,,,,,,,,,,,,,,,,,,,,,,,,,,,,,,,,,,,,,,,,,,,,,,,,,,,,,,,,,,,,,,,,,,,,,,,,,,,,,,,,,,,,,,,
0,83,83,1,1,,6160f5524121cc64e5734edc,62c53a423d012ff394c79240,2022-07-06_09h33.24.429,Colour_Asymmetry_Pilot,2022.1.3,Win32,60.03121623,62c50e9c1127f2cd403a315f,,,,,,,,,,,,,,,,,,,,,,,,,,,,,,,,,,,,,,,,,,,,,,,,,,,,,,,,,,,,,,,,,,,,,,,,,,,,,,,,,,,,,,,,,,,,,,,,,,,,,,,,,,,,,,,,,,,,,,,,,,,,,,,,,,,,,,,,,,,,,,,,,,,,,,,,,,,,,,,,,,,
0,84,84,51,1,,6160f5524121cc64e5734edc,62c53a423d012ff394c79240,2022-07-06_09h33.24.429,Colour_Asymmetry_Pilot,2022.1.3,Win32,60.03121623,62c50e9c1127f2cd403a315f,,,,,,,,,,,,,,,,,,,,,,,,,,,,,,,,,,,,,,,,,,,,,,,,,,,,,,,,,,,,,,,,,,,,,,,,,,,,,,,,,,,,,,,,,,,,,,,,,,,,,,,,,,,,,,,,,,,,,,,,,,,,,,,,,,,,,,,,,,,,,,,,,,,,,,,,,,,,,,,,,,,
0,85,85,87,1,,6160f5524121cc64e5734edc,62c53a423d012ff394c79240,2022-07-06_09h33.24.429,Colour_Asymmetry_Pilot,2022.1.3,Win32,60.03121623,62c50e9c1127f2cd403a315f,,,,,,,,,,,,,,,,,,,,,,,,,,,,,,,,,,,,,,,,,,,,,,,,,,,,,,,,,,,,,,,,,,,,,,,,,,,,,,,,,,,,,,,,,,,,,,,,,,,,,,,,,,,,,,,,,,,,,,,,,,,,,,,,,,,,,,,,,,,,,,,,,,,,,,,,,,,,,,,,,,,
0,86,86,12,1,,6160f5524121cc64e5734edc,62c53a423d012ff394c79240,2022-07-06_09h33.24.429,Colour_Asymmetry_Pilot,2022.1.3,Win32,60.03121623,62c50e9c1127f2cd403a315f,,,,,,,,,,,,,,,,,,,,,,,,,,,,,,,,,,,,,,,,,,,,,,,,,,,,,,,,,,,,,,,,,,,,,,,,,,,,,,,,,,,,,,,,,,,,,,,,,,,,,,,,,,,,,,,,,,,,,,,,,,,,,,,,,,,,,,,,,,,,,,,,,,,,,,,,,,,,,,,,,,,
0,87,87,11,1,,6160f5524121cc64e5734edc,62c53a423d012ff394c79240,2022-07-06_09h33.24.429,Colour_Asymmetry_Pilot,2022.1.3,Win32,60.03121623,62c50e9c1127f2cd403a315f,,,,,,,,,,,,,,,,,,,,,,,,,,,,,,,,,,,,,,,,,,,,,,,,,,,,,,,,,,,,,,,,,,,,,,,,,,,,,,,,,,,,,,,,,,,,,,,,,,,,,,,,,,,,,,,,,,,,,,,,,,,,,,,,,,,,,,,,,,,,,,,,,,,,,,,,,,,,,,,,,,,
0,88,88,82,1,,6160f5524121cc64e5734edc,62c53a423d012ff394c79240,2022-07-06_09h33.24.429,Colour_Asymmetry_Pilot,2022.1.3,Win32,60.03121623,62c50e9c1127f2cd403a315f,,,,,,,,,,,,,,,,,,,,,,,,,,,,,,,,,,,,,,,,,,,,,,,,,,,,,,,,,,,,,,,,,,,,,,,,,,,,,,,,,,,,,,,,,,,,,,,,,,,,,,,,,,,,,,,,,,,,,,,,,,,,,,,,,,,,,,,,,,,,,,,,,,,,,,,,,,,,,,,,,,,
0,89,89,88,1,,6160f5524121cc64e5734edc,62c53a423d012ff394c79240,2022-07-06_09h33.24.429,Colour_Asymmetry_Pilot,2022.1.3,Win32,60.03121623,62c50e9c1127f2cd403a315f,,,,,,,,,,,,,,,,,,,,,,,,,,,,,,,,,,,,,,,,,,,,,,,,,,,,,,,,,,,,,,,,,,,,,,,,,,,,,,,,,,,,,,,,,,,,,,,,,,,,,,,,,,,,,,,,,,,,,,,,,,,,,,,,,,,,,,,,,,,,,,,,,,,,,,,,,,,,,,,,,,,
0,90,90,80,1,,6160f5524121cc64e5734edc,62c53a423d012ff394c79240,2022-07-06_09h33.24.429,Colour_Asymmetry_Pilot,2022.1.3,Win32,60.03121623,62c50e9c1127f2cd403a315f,,,,,,,,,,,,,,,,,,,,,,,,,,,,,,,,,,,,,,,,,,,,,,,,,,,,,,,,,,,,,,,,,,,,,,,,,,,,,,,,,,,,,,,,,,,,,,,,,,,,,,,,,,,,,,,,,,,,,,,,,,,,,,,,,,,,,,,,,,,,,,,,,,,,,,,,,,,,,,,,,,,
0,91,91,76,1,,6160f5524121cc64e5734edc,62c53a423d012ff394c79240,2022-07-06_09h33.24.429,Colour_Asymmetry_Pilot,2022.1.3,Win32,60.03121623,62c50e9c1127f2cd403a315f,,,,,,,,,,,,,,,,,,,,,,,,,,,,,,,,,,,,,,,,,,,,,,,,,,,,,,,,,,,,,,,,,,,,,,,,,,,,,,,,,,,,,,,,,,,,,,,,,,,,,,,,,,,,,,,,,,,,,,,,,,,,,,,,,,,,,,,,,,,,,,,,,,,,,,,,,,,,,,,,,,,
0,92,92,86,1,,6160f5524121cc64e5734edc,62c53a423d012ff394c79240,2022-07-06_09h33.24.429,Colour_Asymmetry_Pilot,2022.1.3,Win32,60.03121623,62c50e9c1127f2cd403a315f,,,,,,,,,,,,,,,,,,,,,,,,,,,,,,,,,,,,,,,,,,,,,,,,,,,,,,,,,,,,,,,,,,,,,,,,,,,,,,,,,,,,,,,,,,,,,,,,,,,,,,,,,,,,,,,,,,,,,,,,,,,,,,,,,,,,,,,,,,,,,,,,,,,,,,,,,,,,,,,,,,,
,,,,,,6160f5524121cc64e5734edc,62c53a423d012ff394c79240,2022-07-06_09h33.24.429,Colour_Asymmetry_Pilot,2022.1.3,Win32,60.03121623,62c50e9c1127f2cd403a315f,0,0,0,3,1,twofour,,,,,,,,,,,,,,,,,,,,,,,,,,,,,,,,,,,,,,,,,,,,,,,,,,,,,,,,,,,,,,,,,,,,,,,,,,,,,,,,,,,,,,,,,,,,,,,,,,,,,,,,,,,,,,,,,,,,,,,,,,,,,,,,,,,,,,,,,,,,,,,,,,,,,,,,,,,,,
,,,,,,6160f5524121cc64e5734edc,62c53a423d012ff394c79240,2022-07-06_09h33.24.429,Colour_Asymmetry_Pilot,2022.1.3,Win32,60.03121623,62c50e9c1127f2cd403a315f,0,1,1,102,1,fourtwo,,,,,,,,,,,,,,,,,,,,,,,,,,,,,,,,,,,,,,,,,,,,,,,,,,,,,,,,,,,,,,,,,,,,,,,,,,,,,,,,,,,,,,,,,,,,,,,,,,,,,,,,,,,,,,,,,,,,,,,,,,,,,,,,,,,,,,,,,,,,,,,,,,,,,,,,,,,,,
,,,,,,6160f5524121cc64e5734edc,62c53a423d012ff394c79240,2022-07-06_09h33.24.429,Colour_Asymmetry_Pilot,2022.1.3,Win32,60.03121623,62c50e9c1127f2cd403a315f,0,2,2,117,1,threefour,,,,,,,,,,,,,,,,,,,,,,,,,,,,,,,,,,,,,,,,,,,,,,,,,,,,,,,,,,,,,,,,,,,,,,,,,,,,,,,,,,,,,,,,,,,,,,,,,,,,,,,,,,,,,,,,,,,,,,,,,,,,,,,,,,,,,,,,,,,,,,,,,,,,,,,,,,,,,
,,,,,,6160f5524121cc64e5734edc,62c53a423d012ff394c79240,2022-07-06_09h33.24.429,Colour_Asymmetry_Pilot,2022.1.3,Win32,60.03121623,62c50e9c1127f2cd403a315f,0,3,3,16,1,onetwo,,,,,,,,,,,,,,,,,,,,,,,,,,,,,,,,,,,,,,,,,,,,,,,,,,,,,,,,,,,,,,,,,,,,,,,,,,,,,,,,,,,,,,,,,,,,,,,,,,,,,,,,,,,,,,,,,,,,,,,,,,,,,,,,,,,,,,,,,,,,,,,,,,,,,,,,,,,,,
,,,,,,6160f5524121cc64e5734edc,62c53a423d012ff394c79240,2022-07-06_09h33.24.429,Colour_Asymmetry_Pilot,2022.1.3,Win32,60.03121623,62c50e9c1127f2cd403a315f,0,4,4,86,1,fourtwo,,,,,,,,,,,,,,,,,,,,,,,,,,,,,,,,,,,,,,,,,,,,,,,,,,,,,,,,,,,,,,,,,,,,,,,,,,,,,,,,,,,,,,,,,,,,,,,,,,,,,,,,,,,,,,,,,,,,,,,,,,,,,,,,,,,,,,,,,,,,,,,,,,,,,,,,,,,,,
,,,,,,6160f5524121cc64e5734edc,62c53a423d012ff394c79240,2022-07-06_09h33.24.429,Colour_Asymmetry_Pilot,2022.1.3,Win32,60.03121623,62c50e9c1127f2cd403a315f,0,5,5,96,1,onetwo,,,,,,,,,,,,,,,,,,,,,,,,,,,,,,,,,,,,,,,,,,,,,,,,,,,,,,,,,,,,,,,,,,,,,,,,,,,,,,,,,,,,,,,,,,,,,,,,,,,,,,,,,,,,,,,,,,,,,,,,,,,,,,,,,,,,,,,,,,,,,,,,,,,,,,,,,,,,,
,,,,,,6160f5524121cc64e5734edc,62c53a423d012ff394c79240,2022-07-06_09h33.24.429,Colour_Asymmetry_Pilot,2022.1.3,Win32,60.03121623,62c50e9c1127f2cd403a315f,0,6,6,79,1,fourthree,,,,,,,,,,,,,,,,,,,,,,,,,,,,,,,,,,,,,,,,,,,,,,,,,,,,,,,,,,,,,,,,,,,,,,,,,,,,,,,,,,,,,,,,,,,,,,,,,,,,,,,,,,,,,,,,,,,,,,,,,,,,,,,,,,,,,,,,,,,,,,,,,,,,,,,,,,,,,
,,,,,,6160f5524121cc64e5734edc,62c53a423d012ff394c79240,2022-07-06_09h33.24.429,Colour_Asymmetry_Pilot,2022.1.3,Win32,60.03121623,62c50e9c1127f2cd403a315f,0,7,7,126,1,fourtwo,,,,,,,,,,,,,,,,,,,,,,,,,,,,,,,,,,,,,,,,,,,,,,,,,,,,,,,,,,,,,,,,,,,,,,,,,,,,,,,,,,,,,,,,,,,,,,,,,,,,,,,,,,,,,,,,,,,,,,,,,,,,,,,,,,,,,,,,,,,,,,,,,,,,,,,,,,,,,
,,,,,,6160f5524121cc64e5734edc,62c53a423d012ff394c79240,2022-07-06_09h33.24.429,Colour_Asymmetry_Pilot,2022.1.3,Win32,60.03121623,62c50e9c1127f2cd403a315f,0,8,8,158,1,fourtwo,,,,,,,,,,,,,,,,,,,,,,,,,,,,,,,,,,,,,,,,,,,,,,,,,,,,,,,,,,,,,,,,,,,,,,,,,,,,,,,,,,,,,,,,,,,,,,,,,,,,,,,,,,,,,,,,,,,,,,,,,,,,,,,,,,,,,,,,,,,,,,,,,,,,,,,,,,,,,
,,,,,,6160f5524121cc64e5734edc,62c53a423d012ff394c79240,2022-07-06_09h33.24.429,Colour_Asymmetry_Pilot,2022.1.3,Win32,60.03121623,62c50e9c1127f2cd403a315f,0,9,9,152,1,onetwo,,,,,,,,,,,,,,,,,,,,,,,,,,,,,,,,,,,,,,,,,,,,,,,,,,,,,,,,,,,,,,,,,,,,,,,,,,,,,,,,,,,,,,,,,,,,,,,,,,,,,,,,,,,,,,,,,,,,,,,,,,,,,,,,,,,,,,,,,,,,,,,,,,,,,,,,,,,,,
,,,,,,6160f5524121cc64e5734edc,62c53a423d012ff394c79240,2022-07-06_09h33.24.429,Colour_Asymmetry_Pilot,2022.1.3,Win32,60.03121623,62c50e9c1127f2cd403a315f,0,10,10,31,1,fourthree,,,,,,,,,,,,,,,,,,,,,,,,,,,,,,,,,,,,,,,,,,,,,,,,,,,,,,,,,,,,,,,,,,,,,,,,,,,,,,,,,,,,,,,,,,,,,,,,,,,,,,,,,,,,,,,,,,,,,,,,,,,,,,,,,,,,,,,,,,,,,,,,,,,,,,,,,,,,,
,,,,,,6160f5524121cc64e5734edc,62c53a423d012ff394c79240,2022-07-06_09h33.24.429,Colour_Asymmetry_Pilot,2022.1.3,Win32,60.03121623,62c50e9c1127f2cd403a315f,0,11,11,59,1,twofour,,,,,,,,,,,,,,,,,,,,,,,,,,,,,,,,,,,,,,,,,,,,,,,,,,,,,,,,,,,,,,,,,,,,,,,,,,,,,,,,,,,,,,,,,,,,,,,,,,,,,,,,,,,,,,,,,,,,,,,,,,,,,,,,,,,,,,,,,,,,,,,,,,,,,,,,,,,,,
,,,,,,6160f5524121cc64e5734edc,62c53a423d012ff394c79240,2022-07-06_09h33.24.429,Colour_Asymmetry_Pilot,2022.1.3,Win32,60.03121623,62c50e9c1127f2cd403a315f,0,12,12,46,1,fourtwo,,,,,,,,,,,,,,,,,,,,,,,,,,,,,,,,,,,,,,,,,,,,,,,,,,,,,,,,,,,,,,,,,,,,,,,,,,,,,,,,,,,,,,,,,,,,,,,,,,,,,,,,,,,,,,,,,,,,,,,,,,,,,,,,,,,,,,,,,,,,,,,,,,,,,,,,,,,,,
,,,,,,6160f5524121cc64e5734edc,62c53a423d012ff394c79240,2022-07-06_09h33.24.429,Colour_Asymmetry_Pilot,2022.1.3,Win32,60.03121623,62c50e9c1127f2cd403a315f,0,13,13,41,1,onethree,,,,,,,,,,,,,,,,,,,,,,,,,,,,,,,,,,,,,,,,,,,,,,,,,,,,,,,,,,,,,,,,,,,,,,,,,,,,,,,,,,,,,,,,,,,,,,,,,,,,,,,,,,,,,,,,,,,,,,,,,,,,,,,,,,,,,,,,,,,,,,,,,,,,,,,,,,,,,
,,,,,,6160f5524121cc64e5734edc,62c53a423d012ff394c79240,2022-07-06_09h33.24.429,Colour_Asymmetry_Pilot,2022.1.3,Win32,60.03121623,62c50e9c1127f2cd403a315f,0,14,14,23,1,fourthree,,,,,,,,,,,,,,,,,,,,,,,,,,,,,,,,,,,,,,,,,,,,,,,,,,,,,,,,,,,,,,,,,,,,,,,,,,,,,,,,,,,,,,,,,,,,,,,,,,,,,,,,,,,,,,,,,,,,,,,,,,,,,,,,,,,,,,,,,,,,,,,,,,,,,,,,,,,,,
,,,,,,6160f5524121cc64e5734edc,62c53a423d012ff394c79240,2022-07-06_09h33.24.429,Colour_Asymmetry_Pilot,2022.1.3,Win32,60.03121623,62c50e9c1127f2cd403a315f,0,15,15,49,1,onethree,,,,,,,,,,,,,,,,,,,,,,,,,,,,,,,,,,,,,,,,,,,,,,,,,,,,,,,,,,,,,,,,,,,,,,,,,,,,,,,,,,,,,,,,,,,,,,,,,,,,,,,,,,,,,,,,,,,,,,,,,,,,,,,,,,,,,,,,,,,,,,,,,,,,,,,,,,,,,
,,,,,,6160f5524121cc64e5734edc,62c53a423d012ff394c79240,2022-07-06_09h33.24.429,Colour_Asymmetry_Pilot,2022.1.3,Win32,60.03121623,62c50e9c1127f2cd403a315f,0,16,16,36,1,threeone,,,,,,,,,,,,,,,,,,,,,,,,,,,,,,,,,,,,,,,,,,,,,,,,,,,,,,,,,,,,,,,,,,,,,,,,,,,,,,,,,,,,,,,,,,,,,,,,,,,,,,,,,,,,,,,,,,,,,,,,,,,,,,,,,,,,,,,,,,,,,,,,,,,,,,,,,,,,,
,,,,,,6160f5524121cc64e5734edc,62c53a423d012ff394c79240,2022-07-06_09h33.24.429,Colour_Asymmetry_Pilot,2022.1.3,Win32,60.03121623,62c50e9c1127f2cd403a315f,0,17,17,82,1,twoone,,,,,,,,,,,,,,,,,,,,,,,,,,,,,,,,,,,,,,,,,,,,,,,,,,,,,,,,,,,,,,,,,,,,,,,,,,,,,,,,,,,,,,,,,,,,,,,,,,,,,,,,,,,,,,,,,,,,,,,,,,,,,,,,,,,,,,,,,,,,,,,,,,,,,,,,,,,,,
,,,,,,6160f5524121cc64e5734edc,62c53a423d012ff394c79240,2022-07-06_09h33.24.429,Colour_Asymmetry_Pilot,2022.1.3,Win32,60.03121623,62c50e9c1127f2cd403a315f,0,18,18,111,1,fourthree,,,,,,,,,,,,,,,,,,,,,,,,,,,,,,,,,,,,,,,,,,,,,,,,,,,,,,,,,,,,,,,,,,,,,,,,,,,,,,,,,,,,,,,,,,,,,,,,,,,,,,,,,,,,,,,,,,,,,,,,,,,,,,,,,,,,,,,,,,,,,,,,,,,,,,,,,,,,,
,,,,,,6160f5524121cc64e5734edc,62c53a423d012ff394c79240,2022-07-06_09h33.24.429,Colour_Asymmetry_Pilot,2022.1.3,Win32,60.03121623,62c50e9c1127f2cd403a315f,0,19,19,34,1,twoone,,,,,,,,,,,,,,,,,,,,,,,,,,,,,,,,,,,,,,,,,,,,,,,,,,,,,,,,,,,,,,,,,,,,,,,,,,,,,,,,,,,,,,,,,,,,,,,,,,,,,,,,,,,,,,,,,,,,,,,,,,,,,,,,,,,,,,,,,,,,,,,,,,,,,,,,,,,,,
,,,,,,6160f5524121cc64e5734edc,62c53a423d012ff394c79240,2022-07-06_09h33.24.429,Colour_Asymmetry_Pilot,2022.1.3,Win32,60.03121623,62c50e9c1127f2cd403a315f,0,20,20,141,1,threefour,,,,,,,,,,,,,,,,,,,,,,,,,,,,,,,,,,,,,,,,,,,,,,,,,,,,,,,,,,,,,,,,,,,,,,,,,,,,,,,,,,,,,,,,,,,,,,,,,,,,,,,,,,,,,,,,,,,,,,,,,,,,,,,,,,,,,,,,,,,,,,,,,,,,,,,,,,,,,
,,,,,,6160f5524121cc64e5734edc,62c53a423d012ff394c79240,2022-07-06_09h33.24.429,Colour_Asymmetry_Pilot,2022.1.3,Win32,60.03121623,62c50e9c1127f2cd403a315f,0,21,21,127,1,fourthree,,,,,,,,,,,,,,,,,,,,,,,,,,,,,,,,,,,,,,,,,,,,,,,,,,,,,,,,,,,,,,,,,,,,,,,,,,,,,,,,,,,,,,,,,,,,,,,,,,,,,,,,,,,,,,,,,,,,,,,,,,,,,,,,,,,,,,,,,,,,,,,,,,,,,,,,,,,,,
,,,,,,6160f5524121cc64e5734edc,62c53a423d012ff394c79240,2022-07-06_09h33.24.429,Colour_Asymmetry_Pilot,2022.1.3,Win32,60.03121623,62c50e9c1127f2cd403a315f,0,22,22,160,1,onetwo,,,,,,,,,,,,,,,,,,,,,,,,,,,,,,,,,,,,,,,,,,,,,,,,,,,,,,,,,,,,,,,,,,,,,,,,,,,,,,,,,,,,,,,,,,,,,,,,,,,,,,,,,,,,,,,,,,,,,,,,,,,,,,,,,,,,,,,,,,,,,,,,,,,,,,,,,,,,,
,,,,,,6160f5524121cc64e5734edc,62c53a423d012ff394c79240,2022-07-06_09h33.24.429,Colour_Asymmetry_Pilot,2022.1.3,Win32,60.03121623,62c50e9c1127f2cd403a315f,0,23,23,52,1,threeone,,,,,,,,,,,,,,,,,,,,,,,,,,,,,,,,,,,,,,,,,,,,,,,,,,,,,,,,,,,,,,,,,,,,,,,,,,,,,,,,,,,,,,,,,,,,,,,,,,,,,,,,,,,,,,,,,,,,,,,,,,,,,,,,,,,,,,,,,,,,,,,,,,,,,,,,,,,,,
,,,,,,6160f5524121cc64e5734edc,62c53a423d012ff394c79240,2022-07-06_09h33.24.429,Colour_Asymmetry_Pilot,2022.1.3,Win32,60.03121623,62c50e9c1127f2cd403a315f,0,24,24,123,1,twofour,,,,,,,,,,,,,,,,,,,,,,,,,,,,,,,,,,,,,,,,,,,,,,,,,,,,,,,,,,,,,,,,,,,,,,,,,,,,,,,,,,,,,,,,,,,,,,,,,,,,,,,,,,,,,,,,,,,,,,,,,,,,,,,,,,,,,,,,,,,,,,,,,,,,,,,,,,,,,
,,,,,,6160f5524121cc64e5734edc,62c53a423d012ff394c79240,2022-07-06_09h33.24.429,Colour_Asymmetry_Pilot,2022.1.3,Win32,60.03121623,62c50e9c1127f2cd403a315f,0,25,25,105,1,onethree,,,,,,,,,,,,,,,,,,,,,,,,,,,,,,,,,,,,,,,,,,,,,,,,,,,,,,,,,,,,,,,,,,,,,,,,,,,,,,,,,,,,,,,,,,,,,,,,,,,,,,,,,,,,,,,,,,,,,,,,,,,,,,,,,,,,,,,,,,,,,,,,,,,,,,,,,,,,,
,,,,,,6160f5524121cc64e5734edc,62c53a423d012ff394c79240,2022-07-06_09h33.24.429,Colour_Asymmetry_Pilot,2022.1.3,Win32,60.03121623,62c50e9c1127f2cd403a315f,0,26,26,100,1,threeone,,,,,,,,,,,,,,,,,,,,,,,,,,,,,,,,,,,,,,,,,,,,,,,,,,,,,,,,,,,,,,,,,,,,,,,,,,,,,,,,,,,,,,,,,,,,,,,,,,,,,,,,,,,,,,,,,,,,,,,,,,,,,,,,,,,,,,,,,,,,,,,,,,,,,,,,,,,,,
,,,,,,6160f5524121cc64e5734edc,62c53a423d012ff394c79240,2022-07-06_09h33.24.429,Colour_Asymmetry_Pilot,2022.1.3,Win32,60.03121623,62c50e9c1127f2cd403a315f,0,27,27,11,1,twofour,,,,,,,,,,,,,,,,,,,,,,,,,,,,,,,,,,,,,,,,,,,,,,,,,,,,,,,,,,,,,,,,,,,,,,,,,,,,,,,,,,,,,,,,,,,,,,,,,,,,,,,,,,,,,,,,,,,,,,,,,,,,,,,,,,,,,,,,,,,,,,,,,,,,,,,,,,,,,
,,,,,,6160f5524121cc64e5734edc,62c53a423d012ff394c79240,2022-07-06_09h33.24.429,Colour_Asymmetry_Pilot,2022.1.3,Win32,60.03121623,62c50e9c1127f2cd403a315f,0,28,28,38,1,fourtwo,,,,,,,,,,,,,,,,,,,,,,,,,,,,,,,,,,,,,,,,,,,,,,,,,,,,,,,,,,,,,,,,,,,,,,,,,,,,,,,,,,,,,,,,,,,,,,,,,,,,,,,,,,,,,,,,,,,,,,,,,,,,,,,,,,,,,,,,,,,,,,,,,,,,,,,,,,,,,
,,,,,,6160f5524121cc64e5734edc,62c53a423d012ff394c79240,2022-07-06_09h33.24.429,Colour_Asymmetry_Pilot,2022.1.3,Win32,60.03121623,62c50e9c1127f2cd403a315f,0,29,29,90,1,twoone,,,,,,,,,,,,,,,,,,,,,,,,,,,,,,,,,,,,,,,,,,,,,,,,,,,,,,,,,,,,,,,,,,,,,,,,,,,,,,,,,,,,,,,,,,,,,,,,,,,,,,,,,,,,,,,,,,,,,,,,,,,,,,,,,,,,,,,,,,,,,,,,,,,,,,,,,,,,,
,,,,,,6160f5524121cc64e5734edc,62c53a423d012ff394c79240,2022-07-06_09h33.24.429,Colour_Asymmetry_Pilot,2022.1.3,Win32,60.03121623,62c50e9c1127f2cd403a315f,0,30,30,153,1,onethree,,,,,,,,,,,,,,,,,,,,,,,,,,,,,,,,,,,,,,,,,,,,,,,,,,,,,,,,,,,,,,,,,,,,,,,,,,,,,,,,,,,,,,,,,,,,,,,,,,,,,,,,,,,,,,,,,,,,,,,,,,,,,,,,,,,,,,,,,,,,,,,,,,,,,,,,,,,,,
,,,,,,6160f5524121cc64e5734edc,62c53a423d012ff394c79240,2022-07-06_09h33.24.429,Colour_Asymmetry_Pilot,2022.1.3,Win32,60.03121623,62c50e9c1127f2cd403a315f,0,31,31,53,1,threefour,,,,,,,,,,,,,,,,,,,,,,,,,,,,,,,,,,,,,,,,,,,,,,,,,,,,,,,,,,,,,,,,,,,,,,,,,,,,,,,,,,,,,,,,,,,,,,,,,,,,,,,,,,,,,,,,,,,,,,,,,,,,,,,,,,,,,,,,,,,,,,,,,,,,,,,,,,,,,
,,,,,,6160f5524121cc64e5734edc,62c53a423d012ff394c79240,2022-07-06_09h33.24.429,Colour_Asymmetry_Pilot,2022.1.3,Win32,60.03121623,62c50e9c1127f2cd403a315f,0,32,32,156,1,threeone,,,,,,,,,,,,,,,,,,,,,,,,,,,,,,,,,,,,,,,,,,,,,,,,,,,,,,,,,,,,,,,,,,,,,,,,,,,,,,,,,,,,,,,,,,,,,,,,,,,,,,,,,,,,,,,,,,,,,,,,,,,,,,,,,,,,,,,,,,,,,,,,,,,,,,,,,,,,,
,,,,,,6160f5524121cc64e5734edc,62c53a423d012ff394c79240,2022-07-06_09h33.24.429,Colour_Asymmetry_Pilot,2022.1.3,Win32,60.03121623,62c50e9c1127f2cd403a315f,0,33,33,61,1,threefour,,,,,,,,,,,,,,,,,,,,,,,,,,,,,,,,,,,,,,,,,,,,,,,,,,,,,,,,,,,,,,,,,,,,,,,,,,,,,,,,,,,,,,,,,,,,,,,,,,,,,,,,,,,,,,,,,,,,,,,,,,,,,,,,,,,,,,,,,,,,,,,,,,,,,,,,,,,,,
,,,,,,6160f5524121cc64e5734edc,62c53a423d012ff394c79240,2022-07-06_09h33.24.429,Colour_Asymmetry_Pilot,2022.1.3,Win32,60.03121623,62c50e9c1127f2cd403a315f,0,34,34,139,1,twofour,,,,,,,,,,,,,,,,,,,,,,,,,,,,,,,,,,,,,,,,,,,,,,,,,,,,,,,,,,,,,,,,,,,,,,,,,,,,,,,,,,,,,,,,,,,,,,,,,,,,,,,,,,,,,,,,,,,,,,,,,,,,,,,,,,,,,,,,,,,,,,,,,,,,,,,,,,,,,
,,,,,,6160f5524121cc64e5734edc,62c53a423d012ff394c79240,2022-07-06_09h33.24.429,Colour_Asymmetry_Pilot,2022.1.3,Win32,60.03121623,62c50e9c1127f2cd403a315f,0,35,35,40,1,onetwo,,,,,,,,,,,,,,,,,,,,,,,,,,,,,,,,,,,,,,,,,,,,,,,,,,,,,,,,,,,,,,,,,,,,,,,,,,,,,,,,,,,,,,,,,,,,,,,,,,,,,,,,,,,,,,,,,,,,,,,,,,,,,,,,,,,,,,,,,,,,,,,,,,,,,,,,,,,,,
,,,,,,6160f5524121cc64e5734edc,62c53a423d012ff394c79240,2022-07-06_09h33.24.429,Colour_Asymmetry_Pilot,2022.1.3,Win32,60.03121623,62c50e9c1127f2cd403a315f,0,36,36,37,1,threefour,,,,,,,,,,,,,,,,,,,,,,,,,,,,,,,,,,,,,,,,,,,,,,,,,,,,,,,,,,,,,,,,,,,,,,,,,,,,,,,,,,,,,,,,,,,,,,,,,,,,,,,,,,,,,,,,,,,,,,,,,,,,,,,,,,,,,,,,,,,,,,,,,,,,,,,,,,,,,
,,,,,,6160f5524121cc64e5734edc,62c53a423d012ff394c79240,2022-07-06_09h33.24.429,Colour_Asymmetry_Pilot,2022.1.3,Win32,60.03121623,62c50e9c1127f2cd403a315f,0,37,37,50,1,twoone,,,,,,,,,,,,,,,,,,,,,,,,,,,,,,,,,,,,,,,,,,,,,,,,,,,,,,,,,,,,,,,,,,,,,,,,,,,,,,,,,,,,,,,,,,,,,,,,,,,,,,,,,,,,,,,,,,,,,,,,,,,,,,,,,,,,,,,,,,,,,,,,,,,,,,,,,,,,,
,,,,,,6160f5524121cc64e5734edc,62c53a423d012ff394c79240,2022-07-06_09h33.24.429,Colour_Asymmetry_Pilot,2022.1.3,Win32,60.03121623,62c50e9c1127f2cd403a315f,0,38,38,130,1,twoone,,,,,,,,,,,,,,,,,,,,,,,,,,,,,,,,,,,,,,,,,,,,,,,,,,,,,,,,,,,,,,,,,,,,,,,,,,,,,,,,,,,,,,,,,,,,,,,,,,,,,,,,,,,,,,,,,,,,,,,,,,,,,,,,,,,,,,,,,,,,,,,,,,,,,,,,,,,,,
,,,,,,6160f5524121cc64e5734edc,62c53a423d012ff394c79240,2022-07-06_09h33.24.429,Colour_Asymmetry_Pilot,2022.1.3,Win32,60.03121623,62c50e9c1127f2cd403a315f,0,39,39,118,1,fourtwo,,,,,,,,,,,,,,,,,,,,,,,,,,,,,,,,,,,,,,,,,,,,,,,,,,,,,,,,,,,,,,,,,,,,,,,,,,,,,,,,,,,,,,,,,,,,,,,,,,,,,,,,,,,,,,,,,,,,,,,,,,,,,,,,,,,,,,,,,,,,,,,,,,,,,,,,,,,,,
,,,,,,6160f5524121cc64e5734edc,62c53a423d012ff394c79240,2022-07-06_09h33.24.429,Colour_Asymmetry_Pilot,2022.1.3,Win32,60.03121623,62c50e9c1127f2cd403a315f,0,40,40,44,1,threeone,,,,,,,,,,,,,,,,,,,,,,,,,,,,,,,,,,,,,,,,,,,,,,,,,,,,,,,,,,,,,,,,,,,,,,,,,,,,,,,,,,,,,,,,,,,,,,,,,,,,,,,,,,,,,,,,,,,,,,,,,,,,,,,,,,,,,,,,,,,,,,,,,,,,,,,,,,,,,
,,,,,,6160f5524121cc64e5734edc,62c53a423d012ff394c79240,2022-07-06_09h33.24.429,Colour_Asymmetry_Pilot,2022.1.3,Win32,60.03121623,62c50e9c1127f2cd403a315f,0,41,41,6,1,fourtwo,,,,,,,,,,,,,,,,,,,,,,,,,,,,,,,,,,,,,,,,,,,,,,,,,,,,,,,,,,,,,,,,,,,,,,,,,,,,,,,,,,,,,,,,,,,,,,,,,,,,,,,,,,,,,,,,,,,,,,,,,,,,,,,,,,,,,,,,,,,,,,,,,,,,,,,,,,,,,
,,,,,,6160f5524121cc64e5734edc,62c53a423d012ff394c79240,2022-07-06_09h33.24.429,Colour_Asymmetry_Pilot,2022.1.3,Win32,60.03121623,62c50e9c1127f2cd403a315f,0,42,42,28,1,threeone,,,,,,,,,,,,,,,,,,,,,,,,,,,,,,,,,,,,,,,,,,,,,,,,,,,,,,,,,,,,,,,,,,,,,,,,,,,,,,,,,,,,,,,,,,,,,,,,,,,,,,,,,,,,,,,,,,,,,,,,,,,,,,,,,,,,,,,,,,,,,,,,,,,,,,,,,,,,,
,,,,,,6160f5524121cc64e5734edc,62c53a423d012ff394c79240,2022-07-06_09h33.24.429,Colour_Asymmetry_Pilot,2022.1.3,Win32,60.03121623,62c50e9c1127f2cd403a315f,0,43,43,148,1,threeone,,,,,,,,,,,,,,,,,,,,,,,,,,,,,,,,,,,,,,,,,,,,,,,,,,,,,,,,,,,,,,,,,,,,,,,,,,,,,,,,,,,,,,,,,,,,,,,,,,,,,,,,,,,,,,,,,,,,,,,,,,,,,,,,,,,,,,,,,,,,,,,,,,,,,,,,,,,,,
,,,,,,6160f5524121cc64e5734edc,62c53a423d012ff394c79240,2022-07-06_09h33.24.429,Colour_Asymmetry_Pilot,2022.1.3,Win32,60.03121623,62c50e9c1127f2cd403a315f,0,44,44,42,1,twoone,,,,,,,,,,,,,,,,,,,,,,,,,,,,,,,,,,,,,,,,,,,,,,,,,,,,,,,,,,,,,,,,,,,,,,,,,,,,,,,,,,,,,,,,,,,,,,,,,,,,,,,,,,,,,,,,,,,,,,,,,,,,,,,,,,,,,,,,,,,,,,,,,,,,,,,,,,,,,
,,,,,,6160f5524121cc64e5734edc,62c53a423d012ff394c79240,2022-07-06_09h33.24.429,Colour_Asymmetry_Pilot,2022.1.3,Win32,60.03121623,62c50e9c1127f2cd403a315f,0,45,45,136,1,onetwo,,,,,,,,,,,,,,,,,,,,,,,,,,,,,,,,,,,,,,,,,,,,,,,,,,,,,,,,,,,,,,,,,,,,,,,,,,,,,,,,,,,,,,,,,,,,,,,,,,,,,,,,,,,,,,,,,,,,,,,,,,,,,,,,,,,,,,,,,,,,,,,,,,,,,,,,,,,,,
,,,,,,6160f5524121cc64e5734edc,62c53a423d012ff394c79240,2022-07-06_09h33.24.429,Colour_Asymmetry_Pilot,2022.1.3,Win32,60.03121623,62c50e9c1127f2cd403a315f,0,46,46,110,1,fourtwo,,,,,,,,,,,,,,,,,,,,,,,,,,,,,,,,,,,,,,,,,,,,,,,,,,,,,,,,,,,,,,,,,,,,,,,,,,,,,,,,,,,,,,,,,,,,,,,,,,,,,,,,,,,,,,,,,,,,,,,,,,,,,,,,,,,,,,,,,,,,,,,,,,,,,,,,,,,,,
,,,,,,6160f5524121cc64e5734edc,62c53a423d012ff394c79240,2022-07-06_09h33.24.429,Colour_Asymmetry_Pilot,2022.1.3,Win32,60.03121623,62c50e9c1127f2cd403a315f,0,47,47,89,1,onethree,,,,,,,,,,,,,,,,,,,,,,,,,,,,,,,,,,,,,,,,,,,,,,,,,,,,,,,,,,,,,,,,,,,,,,,,,,,,,,,,,,,,,,,,,,,,,,,,,,,,,,,,,,,,,,,,,,,,,,,,,,,,,,,,,,,,,,,,,,,,,,,,,,,,,,,,,,,,,
,,,,,,6160f5524121cc64e5734edc,62c53a423d012ff394c79240,2022-07-06_09h33.24.429,Colour_Asymmetry_Pilot,2022.1.3,Win32,60.03121623,62c50e9c1127f2cd403a315f,0,48,48,99,1,twofour,,,,,,,,,,,,,,,,,,,,,,,,,,,,,,,,,,,,,,,,,,,,,,,,,,,,,,,,,,,,,,,,,,,,,,,,,,,,,,,,,,,,,,,,,,,,,,,,,,,,,,,,,,,,,,,,,,,,,,,,,,,,,,,,,,,,,,,,,,,,,,,,,,,,,,,,,,,,,
,,,,,,6160f5524121cc64e5734edc,62c53a423d012ff394c79240,2022-07-06_09h33.24.429,Colour_Asymmetry_Pilot,2022.1.3,Win32,60.03121623,62c50e9c1127f2cd403a315f,0,49,49,113,1,onethree,,,,,,,,,,,,,,,,,,,,,,,,,,,,,,,,,,,,,,,,,,,,,,,,,,,,,,,,,,,,,,,,,,,,,,,,,,,,,,,,,,,,,,,,,,,,,,,,,,,,,,,,,,,,,,,,,,,,,,,,,,,,,,,,,,,,,,,,,,,,,,,,,,,,,,,,,,,,,
,,,,,,6160f5524121cc64e5734edc,62c53a423d012ff394c79240,2022-07-06_09h33.24.429,Colour_Asymmetry_Pilot,2022.1.3,Win32,60.03121623,62c50e9c1127f2cd403a315f,0,50,50,45,1,threefour,,,,,,,,,,,,,,,,,,,,,,,,,,,,,,,,,,,,,,,,,,,,,,,,,,,,,,,,,,,,,,,,,,,,,,,,,,,,,,,,,,,,,,,,,,,,,,,,,,,,,,,,,,,,,,,,,,,,,,,,,,,,,,,,,,,,,,,,,,,,,,,,,,,,,,,,,,,,,
,,,,,,6160f5524121cc64e5734edc,62c53a423d012ff394c79240,2022-07-06_09h33.24.429,Colour_Asymmetry_Pilot,2022.1.3,Win32,60.03121623,62c50e9c1127f2cd403a315f,0,51,51,63,1,fourthree,,,,,,,,,,,,,,,,,,,,,,,,,,,,,,,,,,,,,,,,,,,,,,,,,,,,,,,,,,,,,,,,,,,,,,,,,,,,,,,,,,,,,,,,,,,,,,,,,,,,,,,,,,,,,,,,,,,,,,,,,,,,,,,,,,,,,,,,,,,,,,,,,,,,,,,,,,,,,
,,,,,,6160f5524121cc64e5734edc,62c53a423d012ff394c79240,2022-07-06_09h33.24.429,Colour_Asymmetry_Pilot,2022.1.3,Win32,60.03121623,62c50e9c1127f2cd403a315f,0,52,52,72,1,onetwo,,,,,,,,,,,,,,,,,,,,,,,,,,,,,,,,,,,,,,,,,,,,,,,,,,,,,,,,,,,,,,,,,,,,,,,,,,,,,,,,,,,,,,,,,,,,,,,,,,,,,,,,,,,,,,,,,,,,,,,,,,,,,,,,,,,,,,,,,,,,,,,,,,,,,,,,,,,,,
,,,,,,6160f5524121cc64e5734edc,62c53a423d012ff394c79240,2022-07-06_09h33.24.429,Colour_Asymmetry_Pilot,2022.1.3,Win32,60.03121623,62c50e9c1127f2cd403a315f,0,53,53,47,1,fourthree,,,,,,,,,,,,,,,,,,,,,,,,,,,,,,,,,,,,,,,,,,,,,,,,,,,,,,,,,,,,,,,,,,,,,,,,,,,,,,,,,,,,,,,,,,,,,,,,,,,,,,,,,,,,,,,,,,,,,,,,,,,,,,,,,,,,,,,,,,,,,,,,,,,,,,,,,,,,,
,,,,,,6160f5524121cc64e5734edc,62c53a423d012ff394c79240,2022-07-06_09h33.24.429,Colour_Asymmetry_Pilot,2022.1.3,Win32,60.03121623,62c50e9c1127f2cd403a315f,0,54,54,67,1,twofour,,,,,,,,,,,,,,,,,,,,,,,,,,,,,,,,,,,,,,,,,,,,,,,,,,,,,,,,,,,,,,,,,,,,,,,,,,,,,,,,,,,,,,,,,,,,,,,,,,,,,,,,,,,,,,,,,,,,,,,,,,,,,,,,,,,,,,,,,,,,,,,,,,,,,,,,,,,,,
,,,,,,6160f5524121cc64e5734edc,62c53a423d012ff394c79240,2022-07-06_09h33.24.429,Colour_Asymmetry_Pilot,2022.1.3,Win32,60.03121623,62c50e9c1127f2cd403a315f,0,55,55,104,1,onetwo,,,,,,,,,,,,,,,,,,,,,,,,,,,,,,,,,,,,,,,,,,,,,,,,,,,,,,,,,,,,,,,,,,,,,,,,,,,,,,,,,,,,,,,,,,,,,,,,,,,,,,,,,,,,,,,,,,,,,,,,,,,,,,,,,,,,,,,,,,,,,,,,,,,,,,,,,,,,,
,,,,,,6160f5524121cc64e5734edc,62c53a423d012ff394c79240,2022-07-06_09h33.24.429,Colour_Asymmetry_Pilot,2022.1.3,Win32,60.03121623,62c50e9c1127f2cd403a315f,0,56,56,122,1,twoone,,,,,,,,,,,,,,,,,,,,,,,,,,,,,,,,,,,,,,,,,,,,,,,,,,,,,,,,,,,,,,,,,,,,,,,,,,,,,,,,,,,,,,,,,,,,,,,,,,,,,,,,,,,,,,,,,,,,,,,,,,,,,,,,,,,,,,,,,,,,,,,,,,,,,,,,,,,,,
,,,,,,6160f5524121cc64e5734edc,62c53a423d012ff394c79240,2022-07-06_09h33.24.429,Colour_Asymmetry_Pilot,2022.1.3,Win32,60.03121623,62c50e9c1127f2cd403a315f,0,57,57,154,1,twoone,,,,,,,,,,,,,,,,,,,,,,,,,,,,,,,,,,,,,,,,,,,,,,,,,,,,,,,,,,,,,,,,,,,,,,,,,,,,,,,,,,,,,,,,,,,,,,,,,,,,,,,,,,,,,,,,,,,,,,,,,,,,,,,,,,,,,,,,,,,,,,,,,,,,,,,,,,,,,
,,,,,,6160f5524121cc64e5734edc,62c53a423d012ff394c79240,2022-07-06_09h33.24.429,Colour_Asymmetry_Pilot,2022.1.3,Win32,60.03121623,62c50e9c1127f2cd403a315f,0,58,58,13,1,threefour,,,,,,,,,,,,,,,,,,,,,,,,,,,,,,,,,,,,,,,,,,,,,,,,,,,,,,,,,,,,,,,,,,,,,,,,,,,,,,,,,,,,,,,,,,,,,,,,,,,,,,,,,,,,,,,,,,,,,,,,,,,,,,,,,,,,,,,,,,,,,,,,,,,,,,,,,,,,,
,,,,,,6160f5524121cc64e5734edc,62c53a423d012ff394c79240,2022-07-06_09h33.24.429,Colour_Asymmetry_Pilot,2022.1.3,Win32,60.03121623,62c50e9c1127f2cd403a315f,0,59,59,140,1,threeone,,,,,,,,,,,,,,,,,,,,,,,,,,,,,,,,,,,,,,,,,,,,,,,,,,,,,,,,,,,,,,,,,,,,,,,,,,,,,,,,,,,,,,,,,,,,,,,,,,,,,,,,,,,,,,,,,,,,,,,,,,,,,,,,,,,,,,,,,,,,,,,,,,,,,,,,,,,,,
,,,,,,6160f5524121cc64e5734edc,62c53a423d012ff394c79240,2022-07-06_09h33.24.429,Colour_Asymmetry_Pilot,2022.1.3,Win32,60.03121623,62c50e9c1127f2cd403a315f,0,60,60,65,1,onethree,,,,,,,,,,,,,,,,,,,,,,,,,,,,,,,,,,,,,,,,,,,,,,,,,,,,,,,,,,,,,,,,,,,,,,,,,,,,,,,,,,,,,,,,,,,,,,,,,,,,,,,,,,,,,,,,,,,,,,,,,,,,,,,,,,,,,,,,,,,,,,,,,,,,,,,,,,,,,
,,,,,,6160f5524121cc64e5734edc,62c53a423d012ff394c79240,2022-07-06_09h33.24.429,Colour_Asymmetry_Pilot,2022.1.3,Win32,60.03121623,62c50e9c1127f2cd403a315f,0,61,61,75,1,twofour,,,,,,,,,,,,,,,,,,,,,,,,,,,,,,,,,,,,,,,,,,,,,,,,,,,,,,,,,,,,,,,,,,,,,,,,,,,,,,,,,,,,,,,,,,,,,,,,,,,,,,,,,,,,,,,,,,,,,,,,,,,,,,,,,,,,,,,,,,,,,,,,,,,,,,,,,,,,,
,,,,,,6160f5524121cc64e5734edc,62c53a423d012ff394c79240,2022-07-06_09h33.24.429,Colour_Asymmetry_Pilot,2022.1.3,Win32,60.03121623,62c50e9c1127f2cd403a315f,0,62,62,92,1,threeone,,,,,,,,,,,,,,,,,,,,,,,,,,,,,,,,,,,,,,,,,,,,,,,,,,,,,,,,,,,,,,,,,,,,,,,,,,,,,,,,,,,,,,,,,,,,,,,,,,,,,,,,,,,,,,,,,,,,,,,,,,,,,,,,,,,,,,,,,,,,,,,,,,,,,,,,,,,,,
,,,,,,6160f5524121cc64e5734edc,62c53a423d012ff394c79240,2022-07-06_09h33.24.429,Colour_Asymmetry_Pilot,2022.1.3,Win32,60.03121623,62c50e9c1127f2cd403a315f,0,63,63,48,1,onetwo,,,,,,,,,,,,,,,,,,,,,,,,,,,,,,,,,,,,,,,,,,,,,,,,,,,,,,,,,,,,,,,,,,,,,,,,,,,,,,,,,,,,,,,,,,,,,,,,,,,,,,,,,,,,,,,,,,,,,,,,,,,,,,,,,,,,,,,,,,,,,,,,,,,,,,,,,,,,,
,,,,,,6160f5524121cc64e5734edc,62c53a423d012ff394c79240,2022-07-06_09h33.24.429,Colour_Asymmetry_Pilot,2022.1.3,Win32,60.03121623,62c50e9c1127f2cd403a315f,0,64,64,64,1,onetwo,,,,,,,,,,,,,,,,,,,,,,,,,,,,,,,,,,,,,,,,,,,,,,,,,,,,,,,,,,,,,,,,,,,,,,,,,,,,,,,,,,,,,,,,,,,,,,,,,,,,,,,,,,,,,,,,,,,,,,,,,,,,,,,,,,,,,,,,,,,,,,,,,,,,,,,,,,,,,
,,,,,,6160f5524121cc64e5734edc,62c53a423d012ff394c79240,2022-07-06_09h33.24.429,Colour_Asymmetry_Pilot,2022.1.3,Win32,60.03121623,62c50e9c1127f2cd403a315f,0,65,65,135,1,fourthree,,,,,,,,,,,,,,,,,,,,,,,,,,,,,,,,,,,,,,,,,,,,,,,,,,,,,,,,,,,,,,,,,,,,,,,,,,,,,,,,,,,,,,,,,,,,,,,,,,,,,,,,,,,,,,,,,,,,,,,,,,,,,,,,,,,,,,,,,,,,,,,,,,,,,,,,,,,,,
,,,,,,6160f5524121cc64e5734edc,62c53a423d012ff394c79240,2022-07-06_09h33.24.429,Colour_Asymmetry_Pilot,2022.1.3,Win32,60.03121623,62c50e9c1127f2cd403a315f,0,66,66,66,1,twoone,,,,,,,,,,,,,,,,,,,,,,,,,,,,,,,,,,,,,,,,,,,,,,,,,,,,,,,,,,,,,,,,,,,,,,,,,,,,,,,,,,,,,,,,,,,,,,,,,,,,,,,,,,,,,,,,,,,,,,,,,,,,,,,,,,,,,,,,,,,,,,,,,,,,,,,,,,,,,
,,,,,,6160f5524121cc64e5734edc,62c53a423d012ff394c79240,2022-07-06_09h33.24.429,Colour_Asymmetry_Pilot,2022.1.3,Win32,60.03121623,62c50e9c1127f2cd403a315f,0,67,67,33,1,onethree,,,,,,,,,,,,,,,,,,,,,,,,,,,,,,,,,,,,,,,,,,,,,,,,,,,,,,,,,,,,,,,,,,,,,,,,,,,,,,,,,,,,,,,,,,,,,,,,,,,,,,,,,,,,,,,,,,,,,,,,,,,,,,,,,,,,,,,,,,,,,,,,,,,,,,,,,,,,,
,,,,,,6160f5524121cc64e5734edc,62c53a423d012ff394c79240,2022-07-06_09h33.24.429,Colour_Asymmetry_Pilot,2022.1.3,Win32,60.03121623,62c50e9c1127f2cd403a315f,0,68,68,8,1,onetwo,,,,,,,,,,,,,,,,,,,,,,,,,,,,,,,,,,,,,,,,,,,,,,,,,,,,,,,,,,,,,,,,,,,,,,,,,,,,,,,,,,,,,,,,,,,,,,,,,,,,,,,,,,,,,,,,,,,,,,,,,,,,,,,,,,,,,,,,,,,,,,,,,,,,,,,,,,,,,
,,,,,,6160f5524121cc64e5734edc,62c53a423d012ff394c79240,2022-07-06_09h33.24.429,Colour_Asymmetry_Pilot,2022.1.3,Win32,60.03121623,62c50e9c1127f2cd403a315f,0,69,69,147,1,twofour,,,,,,,,,,,,,,,,,,,,,,,,,,,,,,,,,,,,,,,,,,,,,,,,,,,,,,,,,,,,,,,,,,,,,,,,,,,,,,,,,,,,,,,,,,,,,,,,,,,,,,,,,,,,,,,,,,,,,,,,,,,,,,,,,,,,,,,,,,,,,,,,,,,,,,,,,,,,,
,,,,,,6160f5524121cc64e5734edc,62c53a423d012ff394c79240,2022-07-06_09h33.24.429,Colour_Asymmetry_Pilot,2022.1.3,Win32,60.03121623,62c50e9c1127f2cd403a315f,0,70,70,39,1,fourthree,,,,,,,,,,,,,,,,,,,,,,,,,,,,,,,,,,,,,,,,,,,,,,,,,,,,,,,,,,,,,,,,,,,,,,,,,,,,,,,,,,,,,,,,,,,,,,,,,,,,,,,,,,,,,,,,,,,,,,,,,,,,,,,,,,,,,,,,,,,,,,,,,,,,,,,,,,,,,
,,,,,,6160f5524121cc64e5734edc,62c53a423d012ff394c79240,2022-07-06_09h33.24.429,Colour_Asymmetry_Pilot,2022.1.3,Win32,60.03121623,62c50e9c1127f2cd403a315f,0,71,71,125,1,threefour,,,,,,,,,,,,,,,,,,,,,,,,,,,,,,,,,,,,,,,,,,,,,,,,,,,,,,,,,,,,,,,,,,,,,,,,,,,,,,,,,,,,,,,,,,,,,,,,,,,,,,,,,,,,,,,,,,,,,,,,,,,,,,,,,,,,,,,,,,,,,,,,,,,,,,,,,,,,,
,,,,,,6160f5524121cc64e5734edc,62c53a423d012ff394c79240,2022-07-06_09h33.24.429,Colour_Asymmetry_Pilot,2022.1.3,Win32,60.03121623,62c50e9c1127f2cd403a315f,0,72,72,132,1,threeone,,,,,,,,,,,,,,,,,,,,,,,,,,,,,,,,,,,,,,,,,,,,,,,,,,,,,,,,,,,,,,,,,,,,,,,,,,,,,,,,,,,,,,,,,,,,,,,,,,,,,,,,,,,,,,,,,,,,,,,,,,,,,,,,,,,,,,,,,,,,,,,,,,,,,,,,,,,,,
,,,,,,6160f5524121cc64e5734edc,62c53a423d012ff394c79240,2022-07-06_09h33.24.429,Colour_Asymmetry_Pilot,2022.1.3,Win32,60.03121623,62c50e9c1127f2cd403a315f,0,73,73,121,1,onethree,,,,,,,,,,,,,,,,,,,,,,,,,,,,,,,,,,,,,,,,,,,,,,,,,,,,,,,,,,,,,,,,,,,,,,,,,,,,,,,,,,,,,,,,,,,,,,,,,,,,,,,,,,,,,,,,,,,,,,,,,,,,,,,,,,,,,,,,,,,,,,,,,,,,,,,,,,,,,
,,,,,,6160f5524121cc64e5734edc,62c53a423d012ff394c79240,2022-07-06_09h33.24.429,Colour_Asymmetry_Pilot,2022.1.3,Win32,60.03121623,62c50e9c1127f2cd403a315f,0,74,74,43,1,twofour,,,,,,,,,,,,,,,,,,,,,,,,,,,,,,,,,,,,,,,,,,,,,,,,,,,,,,,,,,,,,,,,,,,,,,,,,,,,,,,,,,,,,,,,,,,,,,,,,,,,,,,,,,,,,,,,,,,,,,,,,,,,,,,,,,,,,,,,,,,,,,,,,,,,,,,,,,,,,
,,,,,,6160f5524121cc64e5734edc,62c53a423d012ff394c79240,2022-07-06_09h33.24.429,Colour_Asymmetry_Pilot,2022.1.3,Win32,60.03121623,62c50e9c1127f2cd403a315f,0,75,75,84,1,threeone,,,,,,,,,,,,,,,,,,,,,,,,,,,,,,,,,,,,,,,,,,,,,,,,,,,,,,,,,,,,,,,,,,,,,,,,,,,,,,,,,,,,,,,,,,,,,,,,,,,,,,,,,,,,,,,,,,,,,,,,,,,,,,,,,,,,,,,,,,,,,,,,,,,,,,,,,,,,,
,,,,,,6160f5524121cc64e5734edc,62c53a423d012ff394c79240,2022-07-06_09h33.24.429,Colour_Asymmetry_Pilot,2022.1.3,Win32,60.03121623,62c50e9c1127f2cd403a315f,0,76,76,97,1,onethree,,,,,,,,,,,,,,,,,,,,,,,,,,,,,,,,,,,,,,,,,,,,,,,,,,,,,,,,,,,,,,,,,,,,,,,,,,,,,,,,,,,,,,,,,,,,,,,,,,,,,,,,,,,,,,,,,,,,,,,,,,,,,,,,,,,,,,,,,,,,,,,,,,,,,,,,,,,,,
,,,,,,6160f5524121cc64e5734edc,62c53a423d012ff394c79240,2022-07-06_09h33.24.429,Colour_Asymmetry_Pilot,2022.1.3,Win32,60.03121623,62c50e9c1127f2cd403a315f,0,77,77,12,1,threeone,,,,,,,,,,,,,,,,,,,,,,,,,,,,,,,,,,,,,,,,,,,,,,,,,,,,,,,,,,,,,,,,,,,,,,,,,,,,,,,,,,,,,,,,,,,,,,,,,,,,,,,,,,,,,,,,,,,,,,,,,,,,,,,,,,,,,,,,,,,,,,,,,,,,,,,,,,,,,
,,,,,,6160f5524121cc64e5734edc,62c53a423d012ff394c79240,2022-07-06_09h33.24.429,Colour_Asymmetry_Pilot,2022.1.3,Win32,60.03121623,62c50e9c1127f2cd403a315f,0,78,78,81,1,onethree,,,,,,,,,,,,,,,,,,,,,,,,,,,,,,,,,,,,,,,,,,,,,,,,,,,,,,,,,,,,,,,,,,,,,,,,,,,,,,,,,,,,,,,,,,,,,,,,,,,,,,,,,,,,,,,,,,,,,,,,,,,,,,,,,,,,,,,,,,,,,,,,,,,,,,,,,,,,,
,,,,,,6160f5524121cc64e5734edc,62c53a423d012ff394c79240,2022-07-06_09h33.24.429,Colour_Asymmetry_Pilot,2022.1.3,Win32,60.03121623,62c50e9c1127f2cd403a315f,0,79,79,80,1,onetwo,,,,,,,,,,,,,,,,,,,,,,,,,,,,,,,,,,,,,,,,,,,,,,,,,,,,,,,,,,,,,,,,,,,,,,,,,,,,,,,,,,,,,,,,,,,,,,,,,,,,,,,,,,,,,,,,,,,,,,,,,,,,,,,,,,,,,,,,,,,,,,,,,,,,,,,,,,,,,
,,,,,,6160f5524121cc64e5734edc,62c53a423d012ff394c79240,2022-07-06_09h33.24.429,Colour_Asymmetry_Pilot,2022.1.3,Win32,60.03121623,62c50e9c1127f2cd403a315f,0,80,80,69,1,threefour,,,,,,,,,,,,,,,,,,,,,,,,,,,,,,,,,,,,,,,,,,,,,,,,,,,,,,,,,,,,,,,,,,,,,,,,,,,,,,,,,,,,,,,,,,,,,,,,,,,,,,,,,,,,,,,,,,,,,,,,,,,,,,,,,,,,,,,,,,,,,,,,,,,,,,,,,,,,,
,,,,,,6160f5524121cc64e5734edc,62c53a423d012ff394c79240,2022-07-06_09h33.24.429,Colour_Asymmetry_Pilot,2022.1.3,Win32,60.03121623,62c50e9c1127f2cd403a315f,0,81,81,4,1,threeone,,,,,,,,,,,,,,,,,,,,,,,,,,,,,,,,,,,,,,,,,,,,,,,,,,,,,,,,,,,,,,,,,,,,,,,,,,,,,,,,,,,,,,,,,,,,,,,,,,,,,,,,,,,,,,,,,,,,,,,,,,,,,,,,,,,,,,,,,,,,,,,,,,,,,,,,,,,,,
,,,,,,6160f5524121cc64e5734edc,62c53a423d012ff394c79240,2022-07-06_09h33.24.429,Colour_Asymmetry_Pilot,2022.1.3,Win32,60.03121623,62c50e9c1127f2cd403a315f,0,82,82,120,1,onetwo,,,,,,,,,,,,,,,,,,,,,,,,,,,,,,,,,,,,,,,,,,,,,,,,,,,,,,,,,,,,,,,,,,,,,,,,,,,,,,,,,,,,,,,,,,,,,,,,,,,,,,,,,,,,,,,,,,,,,,,,,,,,,,,,,,,,,,,,,,,,,,,,,,,,,,,,,,,,,
,,,,,,6160f5524121cc64e5734edc,62c53a423d012ff394c79240,2022-07-06_09h33.24.429,Colour_Asymmetry_Pilot,2022.1.3,Win32,60.03121623,62c50e9c1127f2cd403a315f,0,83,83,94,1,fourtwo,,,,,,,,,,,,,,,,,,,,,,,,,,,,,,,,,,,,,,,,,,,,,,,,,,,,,,,,,,,,,,,,,,,,,,,,,,,,,,,,,,,,,,,,,,,,,,,,,,,,,,,,,,,,,,,,,,,,,,,,,,,,,,,,,,,,,,,,,,,,,,,,,,,,,,,,,,,,,
,,,,,,6160f5524121cc64e5734edc,62c53a423d012ff394c79240,2022-07-06_09h33.24.429,Colour_Asymmetry_Pilot,2022.1.3,Win32,60.03121623,62c50e9c1127f2cd403a315f,0,84,84,93,1,threefour,,,,,,,,,,,,,,,,,,,,,,,,,,,,,,,,,,,,,,,,,,,,,,,,,,,,,,,,,,,,,,,,,,,,,,,,,,,,,,,,,,,,,,,,,,,,,,,,,,,,,,,,,,,,,,,,,,,,,,,,,,,,,,,,,,,,,,,,,,,,,,,,,,,,,,,,,,,,,
,,,,,,6160f5524121cc64e5734edc,62c53a423d012ff394c79240,2022-07-06_09h33.24.429,Colour_Asymmetry_Pilot,2022.1.3,Win32,60.03121623,62c50e9c1127f2cd403a315f,0,85,85,30,1,fourtwo,,,,,,,,,,,,,,,,,,,,,,,,,,,,,,,,,,,,,,,,,,,,,,,,,,,,,,,,,,,,,,,,,,,,,,,,,,,,,,,,,,,,,,,,,,,,,,,,,,,,,,,,,,,,,,,,,,,,,,,,,,,,,,,,,,,,,,,,,,,,,,,,,,,,,,,,,,,,,
,,,,,,6160f5524121cc64e5734edc,62c53a423d012ff394c79240,2022-07-06_09h33.24.429,Colour_Asymmetry_Pilot,2022.1.3,Win32,60.03121623,62c50e9c1127f2cd403a315f,0,86,86,27,1,twofour,,,,,,,,,,,,,,,,,,,,,,,,,,,,,,,,,,,,,,,,,,,,,,,,,,,,,,,,,,,,,,,,,,,,,,,,,,,,,,,,,,,,,,,,,,,,,,,,,,,,,,,,,,,,,,,,,,,,,,,,,,,,,,,,,,,,,,,,,,,,,,,,,,,,,,,,,,,,,
,,,,,,6160f5524121cc64e5734edc,62c53a423d012ff394c79240,2022-07-06_09h33.24.429,Colour_Asymmetry_Pilot,2022.1.3,Win32,60.03121623,62c50e9c1127f2cd403a315f,0,87,87,114,1,twoone,,,,,,,,,,,,,,,,,,,,,,,,,,,,,,,,,,,,,,,,,,,,,,,,,,,,,,,,,,,,,,,,,,,,,,,,,,,,,,,,,,,,,,,,,,,,,,,,,,,,,,,,,,,,,,,,,,,,,,,,,,,,,,,,,,,,,,,,,,,,,,,,,,,,,,,,,,,,,
,,,,,,6160f5524121cc64e5734edc,62c53a423d012ff394c79240,2022-07-06_09h33.24.429,Colour_Asymmetry_Pilot,2022.1.3,Win32,60.03121623,62c50e9c1127f2cd403a315f,0,88,88,115,1,twofour,,,,,,,,,,,,,,,,,,,,,,,,,,,,,,,,,,,,,,,,,,,,,,,,,,,,,,,,,,,,,,,,,,,,,,,,,,,,,,,,,,,,,,,,,,,,,,,,,,,,,,,,,,,,,,,,,,,,,,,,,,,,,,,,,,,,,,,,,,,,,,,,,,,,,,,,,,,,,
,,,,,,6160f5524121cc64e5734edc,62c53a423d012ff394c79240,2022-07-06_09h33.24.429,Colour_Asymmetry_Pilot,2022.1.3,Win32,60.03121623,62c50e9c1127f2cd403a315f,0,89,89,161,1,onethree,,,,,,,,,,,,,,,,,,,,,,,,,,,,,,,,,,,,,,,,,,,,,,,,,,,,,,,,,,,,,,,,,,,,,,,,,,,,,,,,,,,,,,,,,,,,,,,,,,,,,,,,,,,,,,,,,,,,,,,,,,,,,,,,,,,,,,,,,,,,,,,,,,,,,,,,,,,,,
,,,,,,6160f5524121cc64e5734edc,62c53a423d012ff394c79240,2022-07-06_09h33.24.429,Colour_Asymmetry_Pilot,2022.1.3,Win32,60.03121623,62c50e9c1127f2cd403a315f,0,90,90,88,1,onetwo,,,,,,,,,,,,,,,,,,,,,,,,,,,,,,,,,,,,,,,,,,,,,,,,,,,,,,,,,,,,,,,,,,,,,,,,,,,,,,,,,,,,,,,,,,,,,,,,,,,,,,,,,,,,,,,,,,,,,,,,,,,,,,,,,,,,,,,,,,,,,,,,,,,,,,,,,,,,,
,,,,,,6160f5524121cc64e5734edc,62c53a423d012ff394c79240,2022-07-06_09h33.24.429,Colour_Asymmetry_Pilot,2022.1.3,Win32,60.03121623,62c50e9c1127f2cd403a315f,0,91,91,51,1,twofour,,,,,,,,,,,,,,,,,,,,,,,,,,,,,,,,,,,,,,,,,,,,,,,,,,,,,,,,,,,,,,,,,,,,,,,,,,,,,,,,,,,,,,,,,,,,,,,,,,,,,,,,,,,,,,,,,,,,,,,,,,,,,,,,,,,,,,,,,,,,,,,,,,,,,,,,,,,,,
,,,,,,6160f5524121cc64e5734edc,62c53a423d012ff394c79240,2022-07-06_09h33.24.429,Colour_Asymmetry_Pilot,2022.1.3,Win32,60.03121623,62c50e9c1127f2cd403a315f,0,92,92,1,1,onethree,,,,,,,,,,,,,,,,,,,,,,,,,,,,,,,,,,,,,,,,,,,,,,,,,,,,,,,,,,,,,,,,,,,,,,,,,,,,,,,,,,,,,,,,,,,,,,,,,,,,,,,,,,,,,,,,,,,,,,,,,,,,,,,,,,,,,,,,,,,,,,,,,,,,,,,,,,,,,
,,,,,,6160f5524121cc64e5734edc,62c53a423d012ff394c79240,2022-07-06_09h33.24.429,Colour_Asymmetry_Pilot,2022.1.3,Win32,60.03121623,62c50e9c1127f2cd403a315f,0,93,93,0,1,onetwo,,,,,,,,,,,,,,,,,,,,,,,,,,,,,,,,,,,,,,,,,,,,,,,,,,,,,,,,,,,,,,,,,,,,,,,,,,,,,,,,,,,,,,,,,,,,,,,,,,,,,,,,,,,,,,,,,,,,,,,,,,,,,,,,,,,,,,,,,,,,,,,,,,,,,,,,,,,,,
,,,,,,6160f5524121cc64e5734edc,62c53a423d012ff394c79240,2022-07-06_09h33.24.429,Colour_Asymmetry_Pilot,2022.1.3,Win32,60.03121623,62c50e9c1127f2cd403a315f,0,94,94,116,1,threeone,,,,,,,,,,,,,,,,,,,,,,,,,,,,,,,,,,,,,,,,,,,,,,,,,,,,,,,,,,,,,,,,,,,,,,,,,,,,,,,,,,,,,,,,,,,,,,,,,,,,,,,,,,,,,,,,,,,,,,,,,,,,,,,,,,,,,,,,,,,,,,,,,,,,,,,,,,,,,
,,,,,,6160f5524121cc64e5734edc,62c53a423d012ff394c79240,2022-07-06_09h33.24.429,Colour_Asymmetry_Pilot,2022.1.3,Win32,60.03121623,62c50e9c1127f2cd403a315f,0,95,95,159,1,fourthree,,,,,,,,,,,,,,,,,,,,,,,,,,,,,,,,,,,,,,,,,,,,,,,,,,,,,,,,,,,,,,,,,,,,,,,,,,,,,,,,,,,,,,,,,,,,,,,,,,,,,,,,,,,,,,,,,,,,,,,,,,,,,,,,,,,,,,,,,,,,,,,,,,,,,,,,,,,,,
,,,,,,6160f5524121cc64e5734edc,62c53a423d012ff394c79240,2022-07-06_09h33.24.429,Colour_Asymmetry_Pilot,2022.1.3,Win32,60.03121623,62c50e9c1127f2cd403a315f,0,96,96,103,1,fourthree,,,,,,,,,,,,,,,,,,,,,,,,,,,,,,,,,,,,,,,,,,,,,,,,,,,,,,,,,,,,,,,,,,,,,,,,,,,,,,,,,,,,,,,,,,,,,,,,,,,,,,,,,,,,,,,,,,,,,,,,,,,,,,,,,,,,,,,,,,,,,,,,,,,,,,,,,,,,,
,,,,,,6160f5524121cc64e5734edc,62c53a423d012ff394c79240,2022-07-06_09h33.24.429,Colour_Asymmetry_Pilot,2022.1.3,Win32,60.03121623,62c50e9c1127f2cd403a315f,0,97,97,71,1,fourthree,,,,,,,,,,,,,,,,,,,,,,,,,,,,,,,,,,,,,,,,,,,,,,,,,,,,,,,,,,,,,,,,,,,,,,,,,,,,,,,,,,,,,,,,,,,,,,,,,,,,,,,,,,,,,,,,,,,,,,,,,,,,,,,,,,,,,,,,,,,,,,,,,,,,,,,,,,,,,
,,,,,,6160f5524121cc64e5734edc,62c53a423d012ff394c79240,2022-07-06_09h33.24.429,Colour_Asymmetry_Pilot,2022.1.3,Win32,60.03121623,62c50e9c1127f2cd403a315f,0,98,98,77,1,threefour,,,,,,,,,,,,,,,,,,,,,,,,,,,,,,,,,,,,,,,,,,,,,,,,,,,,,,,,,,,,,,,,,,,,,,,,,,,,,,,,,,,,,,,,,,,,,,,,,,,,,,,,,,,,,,,,,,,,,,,,,,,,,,,,,,,,,,,,,,,,,,,,,,,,,,,,,,,,,
,,,,,,6160f5524121cc64e5734edc,62c53a423d012ff394c79240,2022-07-06_09h33.24.429,Colour_Asymmetry_Pilot,2022.1.3,Win32,60.03121623,62c50e9c1127f2cd403a315f,0,99,99,20,1,threeone,,,,,,,,,,,,,,,,,,,,,,,,,,,,,,,,,,,,,,,,,,,,,,,,,,,,,,,,,,,,,,,,,,,,,,,,,,,,,,,,,,,,,,,,,,,,,,,,,,,,,,,,,,,,,,,,,,,,,,,,,,,,,,,,,,,,,,,,,,,,,,,,,,,,,,,,,,,,,
,,,,,,6160f5524121cc64e5734edc,62c53a423d012ff394c79240,2022-07-06_09h33.24.429,Colour_Asymmetry_Pilot,2022.1.3,Win32,60.03121623,62c50e9c1127f2cd403a315f,0,100,100,32,1,onetwo,,,,,,,,,,,,,,,,,,,,,,,,,,,,,,,,,,,,,,,,,,,,,,,,,,,,,,,,,,,,,,,,,,,,,,,,,,,,,,,,,,,,,,,,,,,,,,,,,,,,,,,,,,,,,,,,,,,,,,,,,,,,,,,,,,,,,,,,,,,,,,,,,,,,,,,,,,,,,
,,,,,,6160f5524121cc64e5734edc,62c53a423d012ff394c79240,2022-07-06_09h33.24.429,Colour_Asymmetry_Pilot,2022.1.3,Win32,60.03121623,62c50e9c1127f2cd403a315f,0,101,101,68,1,threeone,,,,,,,,,,,,,,,,,,,,,,,,,,,,,,,,,,,,,,,,,,,,,,,,,,,,,,,,,,,,,,,,,,,,,,,,,,,,,,,,,,,,,,,,,,,,,,,,,,,,,,,,,,,,,,,,,,,,,,,,,,,,,,,,,,,,,,,,,,,,,,,,,,,,,,,,,,,,,
,,,,,,6160f5524121cc64e5734edc,62c53a423d012ff394c79240,2022-07-06_09h33.24.429,Colour_Asymmetry_Pilot,2022.1.3,Win32,60.03121623,62c50e9c1127f2cd403a315f,0,102,102,142,1,fourtwo,,,,,,,,,,,,,,,,,,,,,,,,,,,,,,,,,,,,,,,,,,,,,,,,,,,,,,,,,,,,,,,,,,,,,,,,,,,,,,,,,,,,,,,,,,,,,,,,,,,,,,,,,,,,,,,,,,,,,,,,,,,,,,,,,,,,,,,,,,,,,,,,,,,,,,,,,,,,,
,,,,,,6160f5524121cc64e5734edc,62c53a423d012ff394c79240,2022-07-06_09h33.24.429,Colour_Asymmetry_Pilot,2022.1.3,Win32,60.03121623,62c50e9c1127f2cd403a315f,0,103,103,58,1,twoone,,,,,,,,,,,,,,,,,,,,,,,,,,,,,,,,,,,,,,,,,,,,,,,,,,,,,,,,,,,,,,,,,,,,,,,,,,,,,,,,,,,,,,,,,,,,,,,,,,,,,,,,,,,,,,,,,,,,,,,,,,,,,,,,,,,,,,,,,,,,,,,,,,,,,,,,,,,,,
,,,,,,6160f5524121cc64e5734edc,62c53a423d012ff394c79240,2022-07-06_09h33.24.429,Colour_Asymmetry_Pilot,2022.1.3,Win32,60.03121623,62c50e9c1127f2cd403a315f,0,104,104,21,1,threefour,,,,,,,,,,,,,,,,,,,,,,,,,,,,,,,,,,,,,,,,,,,,,,,,,,,,,,,,,,,,,,,,,,,,,,,,,,,,,,,,,,,,,,,,,,,,,,,,,,,,,,,,,,,,,,,,,,,,,,,,,,,,,,,,,,,,,,,,,,,,,,,,,,,,,,,,,,,,,
,,,,,,6160f5524121cc64e5734edc,62c53a423d012ff394c79240,2022-07-06_09h33.24.429,Colour_Asymmetry_Pilot,2022.1.3,Win32,60.03121623,62c50e9c1127f2cd403a315f,0,105,105,106,1,twoone,,,,,,,,,,,,,,,,,,,,,,,,,,,,,,,,,,,,,,,,,,,,,,,,,,,,,,,,,,,,,,,,,,,,,,,,,,,,,,,,,,,,,,,,,,,,,,,,,,,,,,,,,,,,,,,,,,,,,,,,,,,,,,,,,,,,,,,,,,,,,,,,,,,,,,,,,,,,,
,,,,,,6160f5524121cc64e5734edc,62c53a423d012ff394c79240,2022-07-06_09h33.24.429,Colour_Asymmetry_Pilot,2022.1.3,Win32,60.03121623,62c50e9c1127f2cd403a315f,0,106,106,57,1,onethree,,,,,,,,,,,,,,,,,,,,,,,,,,,,,,,,,,,,,,,,,,,,,,,,,,,,,,,,,,,,,,,,,,,,,,,,,,,,,,,,,,,,,,,,,,,,,,,,,,,,,,,,,,,,,,,,,,,,,,,,,,,,,,,,,,,,,,,,,,,,,,,,,,,,,,,,,,,,,
,,,,,,6160f5524121cc64e5734edc,62c53a423d012ff394c79240,2022-07-06_09h33.24.429,Colour_Asymmetry_Pilot,2022.1.3,Win32,60.03121623,62c50e9c1127f2cd403a315f,0,107,107,78,1,fourtwo,,,,,,,,,,,,,,,,,,,,,,,,,,,,,,,,,,,,,,,,,,,,,,,,,,,,,,,,,,,,,,,,,,,,,,,,,,,,,,,,,,,,,,,,,,,,,,,,,,,,,,,,,,,,,,,,,,,,,,,,,,,,,,,,,,,,,,,,,,,,,,,,,,,,,,,,,,,,,
,,,,,,6160f5524121cc64e5734edc,62c53a423d012ff394c79240,2022-07-06_09h33.24.429,Colour_Asymmetry_Pilot,2022.1.3,Win32,60.03121623,62c50e9c1127f2cd403a315f,0,108,108,35,1,twofour,,,,,,,,,,,,,,,,,,,,,,,,,,,,,,,,,,,,,,,,,,,,,,,,,,,,,,,,,,,,,,,,,,,,,,,,,,,,,,,,,,,,,,,,,,,,,,,,,,,,,,,,,,,,,,,,,,,,,,,,,,,,,,,,,,,,,,,,,,,,,,,,,,,,,,,,,,,,,
,,,,,,6160f5524121cc64e5734edc,62c53a423d012ff394c79240,2022-07-06_09h33.24.429,Colour_Asymmetry_Pilot,2022.1.3,Win32,60.03121623,62c50e9c1127f2cd403a315f,0,109,109,24,1,onetwo,,,,,,,,,,,,,,,,,,,,,,,,,,,,,,,,,,,,,,,,,,,,,,,,,,,,,,,,,,,,,,,,,,,,,,,,,,,,,,,,,,,,,,,,,,,,,,,,,,,,,,,,,,,,,,,,,,,,,,,,,,,,,,,,,,,,,,,,,,,,,,,,,,,,,,,,,,,,,
,,,,,,6160f5524121cc64e5734edc,62c53a423d012ff394c79240,2022-07-06_09h33.24.429,Colour_Asymmetry_Pilot,2022.1.3,Win32,60.03121623,62c50e9c1127f2cd403a315f,0,110,110,54,1,fourtwo,,,,,,,,,,,,,,,,,,,,,,,,,,,,,,,,,,,,,,,,,,,,,,,,,,,,,,,,,,,,,,,,,,,,,,,,,,,,,,,,,,,,,,,,,,,,,,,,,,,,,,,,,,,,,,,,,,,,,,,,,,,,,,,,,,,,,,,,,,,,,,,,,,,,,,,,,,,,,
,,,,,,6160f5524121cc64e5734edc,62c53a423d012ff394c79240,2022-07-06_09h33.24.429,Colour_Asymmetry_Pilot,2022.1.3,Win32,60.03121623,62c50e9c1127f2cd403a315f,0,111,111,150,1,fourtwo,,,,,,,,,,,,,,,,,,,,,,,,,,,,,,,,,,,,,,,,,,,,,,,,,,,,,,,,,,,,,,,,,,,,,,,,,,,,,,,,,,,,,,,,,,,,,,,,,,,,,,,,,,,,,,,,,,,,,,,,,,,,,,,,,,,,,,,,,,,,,,,,,,,,,,,,,,,,,
,,,,,,6160f5524121cc64e5734edc,62c53a423d012ff394c79240,2022-07-06_09h33.24.429,Colour_Asymmetry_Pilot,2022.1.3,Win32,60.03121623,62c50e9c1127f2cd403a315f,0,112,112,149,1,threefour,,,,,,,,,,,,,,,,,,,,,,,,,,,,,,,,,,,,,,,,,,,,,,,,,,,,,,,,,,,,,,,,,,,,,,,,,,,,,,,,,,,,,,,,,,,,,,,,,,,,,,,,,,,,,,,,,,,,,,,,,,,,,,,,,,,,,,,,,,,,,,,,,,,,,,,,,,,,,
,,,,,,6160f5524121cc64e5734edc,62c53a423d012ff394c79240,2022-07-06_09h33.24.429,Colour_Asymmetry_Pilot,2022.1.3,Win32,60.03121623,62c50e9c1127f2cd403a315f,0,113,113,83,1,twofour,,,,,,,,,,,,,,,,,,,,,,,,,,,,,,,,,,,,,,,,,,,,,,,,,,,,,,,,,,,,,,,,,,,,,,,,,,,,,,,,,,,,,,,,,,,,,,,,,,,,,,,,,,,,,,,,,,,,,,,,,,,,,,,,,,,,,,,,,,,,,,,,,,,,,,,,,,,,,
,,,,,,6160f5524121cc64e5734edc,62c53a423d012ff394c79240,2022-07-06_09h33.24.429,Colour_Asymmetry_Pilot,2022.1.3,Win32,60.03121623,62c50e9c1127f2cd403a315f,0,114,114,87,1,fourthree,,,,,,,,,,,,,,,,,,,,,,,,,,,,,,,,,,,,,,,,,,,,,,,,,,,,,,,,,,,,,,,,,,,,,,,,,,,,,,,,,,,,,,,,,,,,,,,,,,,,,,,,,,,,,,,,,,,,,,,,,,,,,,,,,,,,,,,,,,,,,,,,,,,,,,,,,,,,,
,,,,,,6160f5524121cc64e5734edc,62c53a423d012ff394c79240,2022-07-06_09h33.24.429,Colour_Asymmetry_Pilot,2022.1.3,Win32,60.03121623,62c50e9c1127f2cd403a315f,0,115,115,129,1,onethree,,,,,,,,,,,,,,,,,,,,,,,,,,,,,,,,,,,,,,,,,,,,,,,,,,,,,,,,,,,,,,,,,,,,,,,,,,,,,,,,,,,,,,,,,,,,,,,,,,,,,,,,,,,,,,,,,,,,,,,,,,,,,,,,,,,,,,,,,,,,,,,,,,,,,,,,,,,,,
,,,,,,6160f5524121cc64e5734edc,62c53a423d012ff394c79240,2022-07-06_09h33.24.429,Colour_Asymmetry_Pilot,2022.1.3,Win32,60.03121623,62c50e9c1127f2cd403a315f,0,116,116,9,1,onethree,,,,,,,,,,,,,,,,,,,,,,,,,,,,,,,,,,,,,,,,,,,,,,,,,,,,,,,,,,,,,,,,,,,,,,,,,,,,,,,,,,,,,,,,,,,,,,,,,,,,,,,,,,,,,,,,,,,,,,,,,,,,,,,,,,,,,,,,,,,,,,,,,,,,,,,,,,,,,
,,,,,,6160f5524121cc64e5734edc,62c53a423d012ff394c79240,2022-07-06_09h33.24.429,Colour_Asymmetry_Pilot,2022.1.3,Win32,60.03121623,62c50e9c1127f2cd403a315f,0,117,117,5,1,threefour,,,,,,,,,,,,,,,,,,,,,,,,,,,,,,,,,,,,,,,,,,,,,,,,,,,,,,,,,,,,,,,,,,,,,,,,,,,,,,,,,,,,,,,,,,,,,,,,,,,,,,,,,,,,,,,,,,,,,,,,,,,,,,,,,,,,,,,,,,,,,,,,,,,,,,,,,,,,,
,,,,,,6160f5524121cc64e5734edc,62c53a423d012ff394c79240,2022-07-06_09h33.24.429,Colour_Asymmetry_Pilot,2022.1.3,Win32,60.03121623,62c50e9c1127f2cd403a315f,0,118,118,95,1,fourthree,,,,,,,,,,,,,,,,,,,,,,,,,,,,,,,,,,,,,,,,,,,,,,,,,,,,,,,,,,,,,,,,,,,,,,,,,,,,,,,,,,,,,,,,,,,,,,,,,,,,,,,,,,,,,,,,,,,,,,,,,,,,,,,,,,,,,,,,,,,,,,,,,,,,,,,,,,,,,
,,,,,,6160f5524121cc64e5734edc,62c53a423d012ff394c79240,2022-07-06_09h33.24.429,Colour_Asymmetry_Pilot,2022.1.3,Win32,60.03121623,62c50e9c1127f2cd403a315f,0,119,119,155,1,twofour,,,,,,,,,,,,,,,,,,,,,,,,,,,,,,,,,,,,,,,,,,,,,,,,,,,,,,,,,,,,,,,,,,,,,,,,,,,,,,,,,,,,,,,,,,,,,,,,,,,,,,,,,,,,,,,,,,,,,,,,,,,,,,,,,,,,,,,,,,,,,,,,,,,,,,,,,,,,,
,,,,,,6160f5524121cc64e5734edc,62c53a423d012ff394c79240,2022-07-06_09h33.24.429,Colour_Asymmetry_Pilot,2022.1.3,Win32,60.03121623,62c50e9c1127f2cd403a315f,0,120,120,157,1,threefour,,,,,,,,,,,,,,,,,,,,,,,,,,,,,,,,,,,,,,,,,,,,,,,,,,,,,,,,,,,,,,,,,,,,,,,,,,,,,,,,,,,,,,,,,,,,,,,,,,,,,,,,,,,,,,,,,,,,,,,,,,,,,,,,,,,,,,,,,,,,,,,,,,,,,,,,,,,,,
,,,,,,6160f5524121cc64e5734edc,62c53a423d012ff394c79240,2022-07-06_09h33.24.429,Colour_Asymmetry_Pilot,2022.1.3,Win32,60.03121623,62c50e9c1127f2cd403a315f,0,121,121,98,1,twoone,,,,,,,,,,,,,,,,,,,,,,,,,,,,,,,,,,,,,,,,,,,,,,,,,,,,,,,,,,,,,,,,,,,,,,,,,,,,,,,,,,,,,,,,,,,,,,,,,,,,,,,,,,,,,,,,,,,,,,,,,,,,,,,,,,,,,,,,,,,,,,,,,,,,,,,,,,,,,
,,,,,,6160f5524121cc64e5734edc,62c53a423d012ff394c79240,2022-07-06_09h33.24.429,Colour_Asymmetry_Pilot,2022.1.3,Win32,60.03121623,62c50e9c1127f2cd403a315f,0,122,122,22,1,fourtwo,,,,,,,,,,,,,,,,,,,,,,,,,,,,,,,,,,,,,,,,,,,,,,,,,,,,,,,,,,,,,,,,,,,,,,,,,,,,,,,,,,,,,,,,,,,,,,,,,,,,,,,,,,,,,,,,,,,,,,,,,,,,,,,,,,,,,,,,,,,,,,,,,,,,,,,,,,,,,
,,,,,,6160f5524121cc64e5734edc,62c53a423d012ff394c79240,2022-07-06_09h33.24.429,Colour_Asymmetry_Pilot,2022.1.3,Win32,60.03121623,62c50e9c1127f2cd403a315f,0,123,123,109,1,threefour,,,,,,,,,,,,,,,,,,,,,,,,,,,,,,,,,,,,,,,,,,,,,,,,,,,,,,,,,,,,,,,,,,,,,,,,,,,,,,,,,,,,,,,,,,,,,,,,,,,,,,,,,,,,,,,,,,,,,,,,,,,,,,,,,,,,,,,,,,,,,,,,,,,,,,,,,,,,,
,,,,,,6160f5524121cc64e5734edc,62c53a423d012ff394c79240,2022-07-06_09h33.24.429,Colour_Asymmetry_Pilot,2022.1.3,Win32,60.03121623,62c50e9c1127f2cd403a315f,0,124,124,26,1,twoone,,,,,,,,,,,,,,,,,,,,,,,,,,,,,,,,,,,,,,,,,,,,,,,,,,,,,,,,,,,,,,,,,,,,,,,,,,,,,,,,,,,,,,,,,,,,,,,,,,,,,,,,,,,,,,,,,,,,,,,,,,,,,,,,,,,,,,,,,,,,,,,,,,,,,,,,,,,,,
,,,,,,6160f5524121cc64e5734edc,62c53a423d012ff394c79240,2022-07-06_09h33.24.429,Colour_Asymmetry_Pilot,2022.1.3,Win32,60.03121623,62c50e9c1127f2cd403a315f,0,125,125,29,1,threefour,,,,,,,,,,,,,,,,,,,,,,,,,,,,,,,,,,,,,,,,,,,,,,,,,,,,,,,,,,,,,,,,,,,,,,,,,,,,,,,,,,,,,,,,,,,,,,,,,,,,,,,,,,,,,,,,,,,,,,,,,,,,,,,,,,,,,,,,,,,,,,,,,,,,,,,,,,,,,
,,,,,,6160f5524121cc64e5734edc,62c53a423d012ff394c79240,2022-07-06_09h33.24.429,Colour_Asymmetry_Pilot,2022.1.3,Win32,60.03121623,62c50e9c1127f2cd403a315f,0,126,126,19,1,twofour,,,,,,,,,,,,,,,,,,,,,,,,,,,,,,,,,,,,,,,,,,,,,,,,,,,,,,,,,,,,,,,,,,,,,,,,,,,,,,,,,,,,,,,,,,,,,,,,,,,,,,,,,,,,,,,,,,,,,,,,,,,,,,,,,,,,,,,,,,,,,,,,,,,,,,,,,,,,,
,,,,,,6160f5524121cc64e5734edc,62c53a423d012ff394c79240,2022-07-06_09h33.24.429,Colour_Asymmetry_Pilot,2022.1.3,Win32,60.03121623,62c50e9c1127f2cd403a315f,0,127,127,70,1,fourtwo,,,,,,,,,,,,,,,,,,,,,,,,,,,,,,,,,,,,,,,,,,,,,,,,,,,,,,,,,,,,,,,,,,,,,,,,,,,,,,,,,,,,,,,,,,,,,,,,,,,,,,,,,,,,,,,,,,,,,,,,,,,,,,,,,,,,,,,,,,,,,,,,,,,,,,,,,,,,,
,,,,,,6160f5524121cc64e5734edc,62c53a423d012ff394c79240,2022-07-06_09h33.24.429,Colour_Asymmetry_Pilot,2022.1.3,Win32,60.03121623,62c50e9c1127f2cd403a315f,0,128,128,145,1,onethree,,,,,,,,,,,,,,,,,,,,,,,,,,,,,,,,,,,,,,,,,,,,,,,,,,,,,,,,,,,,,,,,,,,,,,,,,,,,,,,,,,,,,,,,,,,,,,,,,,,,,,,,,,,,,,,,,,,,,,,,,,,,,,,,,,,,,,,,,,,,,,,,,,,,,,,,,,,,,
,,,,,,6160f5524121cc64e5734edc,62c53a423d012ff394c79240,2022-07-06_09h33.24.429,Colour_Asymmetry_Pilot,2022.1.3,Win32,60.03121623,62c50e9c1127f2cd403a315f,0,129,129,85,1,threefour,,,,,,,,,,,,,,,,,,,,,,,,,,,,,,,,,,,,,,,,,,,,,,,,,,,,,,,,,,,,,,,,,,,,,,,,,,,,,,,,,,,,,,,,,,,,,,,,,,,,,,,,,,,,,,,,,,,,,,,,,,,,,,,,,,,,,,,,,,,,,,,,,,,,,,,,,,,,,
,,,,,,6160f5524121cc64e5734edc,62c53a423d012ff394c79240,2022-07-06_09h33.24.429,Colour_Asymmetry_Pilot,2022.1.3,Win32,60.03121623,62c50e9c1127f2cd403a315f,0,130,130,56,1,onetwo,,,,,,,,,,,,,,,,,,,,,,,,,,,,,,,,,,,,,,,,,,,,,,,,,,,,,,,,,,,,,,,,,,,,,,,,,,,,,,,,,,,,,,,,,,,,,,,,,,,,,,,,,,,,,,,,,,,,,,,,,,,,,,,,,,,,,,,,,,,,,,,,,,,,,,,,,,,,,
,,,,,,6160f5524121cc64e5734edc,62c53a423d012ff394c79240,2022-07-06_09h33.24.429,Colour_Asymmetry_Pilot,2022.1.3,Win32,60.03121623,62c50e9c1127f2cd403a315f,0,131,131,151,1,fourthree,,,,,,,,,,,,,,,,,,,,,,,,,,,,,,,,,,,,,,,,,,,,,,,,,,,,,,,,,,,,,,,,,,,,,,,,,,,,,,,,,,,,,,,,,,,,,,,,,,,,,,,,,,,,,,,,,,,,,,,,,,,,,,,,,,,,,,,,,,,,,,,,,,,,,,,,,,,,,
,,,,,,6160f5524121cc64e5734edc,62c53a423d012ff394c79240,2022-07-06_09h33.24.429,Colour_Asymmetry_Pilot,2022.1.3,Win32,60.03121623,62c50e9c1127f2cd403a315f,0,132,132,133,1,threefour,,,,,,,,,,,,,,,,,,,,,,,,,,,,,,,,,,,,,,,,,,,,,,,,,,,,,,,,,,,,,,,,,,,,,,,,,,,,,,,,,,,,,,,,,,,,,,,,,,,,,,,,,,,,,,,,,,,,,,,,,,,,,,,,,,,,,,,,,,,,,,,,,,,,,,,,,,,,,
,,,,,,6160f5524121cc64e5734edc,62c53a423d012ff394c79240,2022-07-06_09h33.24.429,Colour_Asymmetry_Pilot,2022.1.3,Win32,60.03121623,62c50e9c1127f2cd403a315f,0,133,133,144,1,onetwo,,,,,,,,,,,,,,,,,,,,,,,,,,,,,,,,,,,,,,,,,,,,,,,,,,,,,,,,,,,,,,,,,,,,,,,,,,,,,,,,,,,,,,,,,,,,,,,,,,,,,,,,,,,,,,,,,,,,,,,,,,,,,,,,,,,,,,,,,,,,,,,,,,,,,,,,,,,,,
,,,,,,6160f5524121cc64e5734edc,62c53a423d012ff394c79240,2022-07-06_09h33.24.429,Colour_Asymmetry_Pilot,2022.1.3,Win32,60.03121623,62c50e9c1127f2cd403a315f,0,134,134,55,1,fourthree,,,,,,,,,,,,,,,,,,,,,,,,,,,,,,,,,,,,,,,,,,,,,,,,,,,,,,,,,,,,,,,,,,,,,,,,,,,,,,,,,,,,,,,,,,,,,,,,,,,,,,,,,,,,,,,,,,,,,,,,,,,,,,,,,,,,,,,,,,,,,,,,,,,,,,,,,,,,,
,,,,,,6160f5524121cc64e5734edc,62c53a423d012ff394c79240,2022-07-06_09h33.24.429,Colour_Asymmetry_Pilot,2022.1.3,Win32,60.03121623,62c50e9c1127f2cd403a315f,0,135,135,112,1,onetwo,,,,,,,,,,,,,,,,,,,,,,,,,,,,,,,,,,,,,,,,,,,,,,,,,,,,,,,,,,,,,,,,,,,,,,,,,,,,,,,,,,,,,,,,,,,,,,,,,,,,,,,,,,,,,,,,,,,,,,,,,,,,,,,,,,,,,,,,,,,,,,,,,,,,,,,,,,,,,
,,,,,,6160f5524121cc64e5734edc,62c53a423d012ff394c79240,2022-07-06_09h33.24.429,Colour_Asymmetry_Pilot,2022.1.3,Win32,60.03121623,62c50e9c1127f2cd403a315f,0,136,136,143,1,fourthree,,,,,,,,,,,,,,,,,,,,,,,,,,,,,,,,,,,,,,,,,,,,,,,,,,,,,,,,,,,,,,,,,,,,,,,,,,,,,,,,,,,,,,,,,,,,,,,,,,,,,,,,,,,,,,,,,,,,,,,,,,,,,,,,,,,,,,,,,,,,,,,,,,,,,,,,,,,,,
,,,,,,6160f5524121cc64e5734edc,62c53a423d012ff394c79240,2022-07-06_09h33.24.429,Colour_Asymmetry_Pilot,2022.1.3,Win32,60.03121623,62c50e9c1127f2cd403a315f,0,137,137,108,1,threeone,,,,,,,,,,,,,,,,,,,,,,,,,,,,,,,,,,,,,,,,,,,,,,,,,,,,,,,,,,,,,,,,,,,,,,,,,,,,,,,,,,,,,,,,,,,,,,,,,,,,,,,,,,,,,,,,,,,,,,,,,,,,,,,,,,,,,,,,,,,,,,,,,,,,,,,,,,,,,
,,,,,,6160f5524121cc64e5734edc,62c53a423d012ff394c79240,2022-07-06_09h33.24.429,Colour_Asymmetry_Pilot,2022.1.3,Win32,60.03121623,62c50e9c1127f2cd403a315f,0,138,138,134,1,fourtwo,,,,,,,,,,,,,,,,,,,,,,,,,,,,,,,,,,,,,,,,,,,,,,,,,,,,,,,,,,,,,,,,,,,,,,,,,,,,,,,,,,,,,,,,,,,,,,,,,,,,,,,,,,,,,,,,,,,,,,,,,,,,,,,,,,,,,,,,,,,,,,,,,,,,,,,,,,,,,
,,,,,,6160f5524121cc64e5734edc,62c53a423d012ff394c79240,2022-07-06_09h33.24.429,Colour_Asymmetry_Pilot,2022.1.3,Win32,60.03121623,62c50e9c1127f2cd403a315f,0,139,139,17,1,onethree,,,,,,,,,,,,,,,,,,,,,,,,,,,,,,,,,,,,,,,,,,,,,,,,,,,,,,,,,,,,,,,,,,,,,,,,,,,,,,,,,,,,,,,,,,,,,,,,,,,,,,,,,,,,,,,,,,,,,,,,,,,,,,,,,,,,,,,,,,,,,,,,,,,,,,,,,,,,,
,,,,,,6160f5524121cc64e5734edc,62c53a423d012ff394c79240,2022-07-06_09h33.24.429,Colour_Asymmetry_Pilot,2022.1.3,Win32,60.03121623,62c50e9c1127f2cd403a315f,0,140,140,60,1,threeone,,,,,,,,,,,,,,,,,,,,,,,,,,,,,,,,,,,,,,,,,,,,,,,,,,,,,,,,,,,,,,,,,,,,,,,,,,,,,,,,,,,,,,,,,,,,,,,,,,,,,,,,,,,,,,,,,,,,,,,,,,,,,,,,,,,,,,,,,,,,,,,,,,,,,,,,,,,,,
,,,,,,6160f5524121cc64e5734edc,62c53a423d012ff394c79240,2022-07-06_09h33.24.429,Colour_Asymmetry_Pilot,2022.1.3,Win32,60.03121623,62c50e9c1127f2cd403a315f,0,141,141,2,1,twoone,,,,,,,,,,,,,,,,,,,,,,,,,,,,,,,,,,,,,,,,,,,,,,,,,,,,,,,,,,,,,,,,,,,,,,,,,,,,,,,,,,,,,,,,,,,,,,,,,,,,,,,,,,,,,,,,,,,,,,,,,,,,,,,,,,,,,,,,,,,,,,,,,,,,,,,,,,,,,
,,,,,,6160f5524121cc64e5734edc,62c53a423d012ff394c79240,2022-07-06_09h33.24.429,Colour_Asymmetry_Pilot,2022.1.3,Win32,60.03121623,62c50e9c1127f2cd403a315f,0,142,142,76,1,threeone,,,,,,,,,,,,,,,,,,,,,,,,,,,,,,,,,,,,,,,,,,,,,,,,,,,,,,,,,,,,,,,,,,,,,,,,,,,,,,,,,,,,,,,,,,,,,,,,,,,,,,,,,,,,,,,,,,,,,,,,,,,,,,,,,,,,,,,,,,,,,,,,,,,,,,,,,,,,,
,,,,,,6160f5524121cc64e5734edc,62c53a423d012ff394c79240,2022-07-06_09h33.24.429,Colour_Asymmetry_Pilot,2022.1.3,Win32,60.03121623,62c50e9c1127f2cd403a315f,0,143,143,138,1,twoone,,,,,,,,,,,,,,,,,,,,,,,,,,,,,,,,,,,,,,,,,,,,,,,,,,,,,,,,,,,,,,,,,,,,,,,,,,,,,,,,,,,,,,,,,,,,,,,,,,,,,,,,,,,,,,,,,,,,,,,,,,,,,,,,,,,,,,,,,,,,,,,,,,,,,,,,,,,,,
,,,,,,6160f5524121cc64e5734edc,62c53a423d012ff394c79240,2022-07-06_09h33.24.429,Colour_Asymmetry_Pilot,2022.1.3,Win32,60.03121623,62c50e9c1127f2cd403a315f,0,144,144,131,1,twofour,,,,,,,,,,,,,,,,,,,,,,,,,,,,,,,,,,,,,,,,,,,,,,,,,,,,,,,,,,,,,,,,,,,,,,,,,,,,,,,,,,,,,,,,,,,,,,,,,,,,,,,,,,,,,,,,,,,,,,,,,,,,,,,,,,,,,,,,,,,,,,,,,,,,,,,,,,,,,
,,,,,,6160f5524121cc64e5734edc,62c53a423d012ff394c79240,2022-07-06_09h33.24.429,Colour_Asymmetry_Pilot,2022.1.3,Win32,60.03121623,62c50e9c1127f2cd403a315f,0,145,145,14,1,fourtwo,,,,,,,,,,,,,,,,,,,,,,,,,,,,,,,,,,,,,,,,,,,,,,,,,,,,,,,,,,,,,,,,,,,,,,,,,,,,,,,,,,,,,,,,,,,,,,,,,,,,,,,,,,,,,,,,,,,,,,,,,,,,,,,,,,,,,,,,,,,,,,,,,,,,,,,,,,,,,
,,,,,,6160f5524121cc64e5734edc,62c53a423d012ff394c79240,2022-07-06_09h33.24.429,Colour_Asymmetry_Pilot,2022.1.3,Win32,60.03121623,62c50e9c1127f2cd403a315f,0,146,146,119,1,fourthree,,,,,,,,,,,,,,,,,,,,,,,,,,,,,,,,,,,,,,,,,,,,,,,,,,,,,,,,,,,,,,,,,,,,,,,,,,,,,,,,,,,,,,,,,,,,,,,,,,,,,,,,,,,,,,,,,,,,,,,,,,,,,,,,,,,,,,,,,,,,,,,,,,,,,,,,,,,,,
,,,,,,6160f5524121cc64e5734edc,62c53a423d012ff394c79240,2022-07-06_09h33.24.429,Colour_Asymmetry_Pilot,2022.1.3,Win32,60.03121623,62c50e9c1127f2cd403a315f,0,147,147,128,1,onetwo,,,,,,,,,,,,,,,,,,,,,,,,,,,,,,,,,,,,,,,,,,,,,,,,,,,,,,,,,,,,,,,,,,,,,,,,,,,,,,,,,,,,,,,,,,,,,,,,,,,,,,,,,,,,,,,,,,,,,,,,,,,,,,,,,,,,,,,,,,,,,,,,,,,,,,,,,,,,,
,,,,,,6160f5524121cc64e5734edc,62c53a423d012ff394c79240,2022-07-06_09h33.24.429,Colour_Asymmetry_Pilot,2022.1.3,Win32,60.03121623,62c50e9c1127f2cd403a315f,0,148,148,107,1,twofour,,,,,,,,,,,,,,,,,,,,,,,,,,,,,,,,,,,,,,,,,,,,,,,,,,,,,,,,,,,,,,,,,,,,,,,,,,,,,,,,,,,,,,,,,,,,,,,,,,,,,,,,,,,,,,,,,,,,,,,,,,,,,,,,,,,,,,,,,,,,,,,,,,,,,,,,,,,,,
,,,,,,6160f5524121cc64e5734edc,62c53a423d012ff394c79240,2022-07-06_09h33.24.429,Colour_Asymmetry_Pilot,2022.1.3,Win32,60.03121623,62c50e9c1127f2cd403a315f,0,149,149,25,1,onethree,,,,,,,,,,,,,,,,,,,,,,,,,,,,,,,,,,,,,,,,,,,,,,,,,,,,,,,,,,,,,,,,,,,,,,,,,,,,,,,,,,,,,,,,,,,,,,,,,,,,,,,,,,,,,,,,,,,,,,,,,,,,,,,,,,,,,,,,,,,,,,,,,,,,,,,,,,,,,
,,,,,,6160f5524121cc64e5734edc,62c53a423d012ff394c79240,2022-07-06_09h33.24.429,Colour_Asymmetry_Pilot,2022.1.3,Win32,60.03121623,62c50e9c1127f2cd403a315f,0,150,150,62,1,fourtwo,,,,,,,,,,,,,,,,,,,,,,,,,,,,,,,,,,,,,,,,,,,,,,,,,,,,,,,,,,,,,,,,,,,,,,,,,,,,,,,,,,,,,,,,,,,,,,,,,,,,,,,,,,,,,,,,,,,,,,,,,,,,,,,,,,,,,,,,,,,,,,,,,,,,,,,,,,,,,
,,,,,,6160f5524121cc64e5734edc,62c53a423d012ff394c79240,2022-07-06_09h33.24.429,Colour_Asymmetry_Pilot,2022.1.3,Win32,60.03121623,62c50e9c1127f2cd403a315f,0,151,151,146,1,twoone,,,,,,,,,,,,,,,,,,,,,,,,,,,,,,,,,,,,,,,,,,,,,,,,,,,,,,,,,,,,,,,,,,,,,,,,,,,,,,,,,,,,,,,,,,,,,,,,,,,,,,,,,,,,,,,,,,,,,,,,,,,,,,,,,,,,,,,,,,,,,,,,,,,,,,,,,,,,,
,,,,,,6160f5524121cc64e5734edc,62c53a423d012ff394c79240,2022-07-06_09h33.24.429,Colour_Asymmetry_Pilot,2022.1.3,Win32,60.03121623,62c50e9c1127f2cd403a315f,0,152,152,137,1,onethree,,,,,,,,,,,,,,,,,,,,,,,,,,,,,,,,,,,,,,,,,,,,,,,,,,,,,,,,,,,,,,,,,,,,,,,,,,,,,,,,,,,,,,,,,,,,,,,,,,,,,,,,,,,,,,,,,,,,,,,,,,,,,,,,,,,,,,,,,,,,,,,,,,,,,,,,,,,,,
,,,,,,6160f5524121cc64e5734edc,62c53a423d012ff394c79240,2022-07-06_09h33.24.429,Colour_Asymmetry_Pilot,2022.1.3,Win32,60.03121623,62c50e9c1127f2cd403a315f,0,153,153,7,1,fourthree,,,,,,,,,,,,,,,,,,,,,,,,,,,,,,,,,,,,,,,,,,,,,,,,,,,,,,,,,,,,,,,,,,,,,,,,,,,,,,,,,,,,,,,,,,,,,,,,,,,,,,,,,,,,,,,,,,,,,,,,,,,,,,,,,,,,,,,,,,,,,,,,,,,,,,,,,,,,,
,,,,,,6160f5524121cc64e5734edc,62c53a423d012ff394c79240,2022-07-06_09h33.24.429,Colour_Asymmetry_Pilot,2022.1.3,Win32,60.03121623,62c50e9c1127f2cd403a315f,0,154,154,124,1,threeone,,,,,,,,,,,,,,,,,,,,,,,,,,,,,,,,,,,,,,,,,,,,,,,,,,,,,,,,,,,,,,,,,,,,,,,,,,,,,,,,,,,,,,,,,,,,,,,,,,,,,,,,,,,,,,,,,,,,,,,,,,,,,,,,,,,,,,,,,,,,,,,,,,,,,,,,,,,,,
,,,,,,6160f5524121cc64e5734edc,62c53a423d012ff394c79240,2022-07-06_09h33.24.429,Colour_Asymmetry_Pilot,2022.1.3,Win32,60.03121623,62c50e9c1127f2cd403a315f,0,155,155,18,1,twoone,,,,,,,,,,,,,,,,,,,,,,,,,,,,,,,,,,,,,,,,,,,,,,,,,,,,,,,,,,,,,,,,,,,,,,,,,,,,,,,,,,,,,,,,,,,,,,,,,,,,,,,,,,,,,,,,,,,,,,,,,,,,,,,,,,,,,,,,,,,,,,,,,,,,,,,,,,,,,
,,,,,,6160f5524121cc64e5734edc,62c53a423d012ff394c79240,2022-07-06_09h33.24.429,Colour_Asymmetry_Pilot,2022.1.3,Win32,60.03121623,62c50e9c1127f2cd403a315f,0,156,156,101,1,threefour,,,,,,,,,,,,,,,,,,,,,,,,,,,,,,,,,,,,,,,,,,,,,,,,,,,,,,,,,,,,,,,,,,,,,,,,,,,,,,,,,,,,,,,,,,,,,,,,,,,,,,,,,,,,,,,,,,,,,,,,,,,,,,,,,,,,,,,,,,,,,,,,,,,,,,,,,,,,,
,,,,,,6160f5524121cc64e5734edc,62c53a423d012ff394c79240,2022-07-06_09h33.24.429,Colour_Asymmetry_Pilot,2022.1.3,Win32,60.03121623,62c50e9c1127f2cd403a315f,0,157,157,74,1,twoone,,,,,,,,,,,,,,,,,,,,,,,,,,,,,,,,,,,,,,,,,,,,,,,,,,,,,,,,,,,,,,,,,,,,,,,,,,,,,,,,,,,,,,,,,,,,,,,,,,,,,,,,,,,,,,,,,,,,,,,,,,,,,,,,,,,,,,,,,,,,,,,,,,,,,,,,,,,,,
,,,,,,6160f5524121cc64e5734edc,62c53a423d012ff394c79240,2022-07-06_09h33.24.429,Colour_Asymmetry_Pilot,2022.1.3,Win32,60.03121623,62c50e9c1127f2cd403a315f,0,158,158,73,1,onethree,,,,,,,,,,,,,,,,,,,,,,,,,,,,,,,,,,,,,,,,,,,,,,,,,,,,,,,,,,,,,,,,,,,,,,,,,,,,,,,,,,,,,,,,,,,,,,,,,,,,,,,,,,,,,,,,,,,,,,,,,,,,,,,,,,,,,,,,,,,,,,,,,,,,,,,,,,,,,
,,,,,,6160f5524121cc64e5734edc,62c53a423d012ff394c79240,2022-07-06_09h33.24.429,Colour_Asymmetry_Pilot,2022.1.3,Win32,60.03121623,62c50e9c1127f2cd403a315f,0,159,159,10,1,twoone,,,,,,,,,,,,,,,,,,,,,,,,,,,,,,,,,,,,,,,,,,,,,,,,,,,,,,,,,,,,,,,,,,,,,,,,,,,,,,,,,,,,,,,,,,,,,,,,,,,,,,,,,,,,,,,,,,,,,,,,,,,,,,,,,,,,,,,,,,,,,,,,,,,,,,,,,,,,,
,,,,,,6160f5524121cc64e5734edc,62c53a423d012ff394c79240,2022-07-06_09h33.24.429,Colour_Asymmetry_Pilot,2022.1.3,Win32,60.03121623,62c50e9c1127f2cd403a315f,0,160,160,91,1,twofour,,,,,,,,,,,,,,,,,,,,,,,,,,,,,,,,,,,,,,,,,,,,,,,,,,,,,,,,,,,,,,,,,,,,,,,,,,,,,,,,,,,,,,,,,,,,,,,,,,,,,,,,,,,,,,,,,,,,,,,,,,,,,,,,,,,,,,,,,,,,,,,,,,,,,,,,,,,,,
,,,,,,6160f5524121cc64e5734edc,62c53a423d012ff394c79240,2022-07-06_09h33.24.429,Colour_Asymmetry_Pilot,2022.1.3,Win32,60.03121623,62c50e9c1127f2cd403a315f,0,161,161,15,1,fourthree,,,,,,,,,,,,,,,,,,,,,,,,,,,,,,,,,,,,,,,,,,,,,,,,,,,,,,,,,,,,,,,,,,,,,,,,,,,,,,,,,,,,,,,,,,,,,,,,,,,,,,,,,,,,,,,,,,,,,,,,,,,,,,,,,,,,,,,,,,,,,,,,,,,,,,,,,,,,,
,,,,,,6160f5524121cc64e5734edc,62c53a423d012ff394c79240,2022-07-06_09h33.24.429,Colour_Asymmetry_Pilot,2022.1.3,Win32,60.03121623,62c50e9c1127f2cd403a315f,,,,,,,space,36.068,space,43.7125,space,41.3189,space,13.6085,space,9.0839,space,8.1046,"[-0.6,0.16860000000000008,0.44300000000000006]",threeone,"[0.12939999999999996,-0.2864,0.3253999999999999]",3,5.9721,72,35,1,0,0,response1disk_5,4,3,1,0,0,rectangle_8,4,3,1,0,0,2,4,3,1,0,0,0,0,0,0,1,,,,,,,,,,,,,,,,,,,,,,,,,,,,,,,,,,,,,,,,,,,,,,,,,,,,,,,,,,,,,,,,,,,,,,,,,,,,,,,,,,,,,,,,,,,,,,,,,,,,,,,,,,,,,,,,
,,,,,,6160f5524121cc64e5734edc,62c53a423d012ff394c79240,2022-07-06_09h33.24.429,Colour_Asymmetry_Pilot,2022.1.3,Win32,60.03121623,62c50e9c1127f2cd403a315f,,,,,,,,,,,,,,,,,,,"[-0.050999999999999934,-0.6706000000000001,-0.804]",twoone,"[-0.01980000000000004,-0.5138,-0.38039999999999996]",3,2.3173,70,43,1,0,0,response1disk_5,5,-4,1,0,0,rectangle_8,5,-4,1,0,0,2,5,-4,1,0,0,1,0,1,0,1,,,,,,,,,,,,,,,,,,,,,,,,,,,,,,,,,,,,,,,,,,,,,,,,,,,,,,,,,,,,,,,,,,,,,,,,,,,,,,,,,,,,,,,,,,,,,,,,,,,,,,,,,,,,,,,,
,,,,,,6160f5524121cc64e5734edc,62c53a423d012ff394c79240,2022-07-06_09h33.24.429,Colour_Asymmetry_Pilot,2022.1.3,Win32,60.03121623,62c50e9c1127f2cd403a315f,,,,,,,,,,,,,,,,,,,"[-0.9844,-0.9688,-0.9922]",fourthree,"[-0.10599999999999998,-0.10599999999999998,0.5841999999999998]",-4,2.9334,-39,72,1,0,0,response7disk_5,-17,5,1,0,0,rectangle_8,78,-36,1,0,0,2,-6,-2,1,0,0,2,0,2,0,1,response3disk_7,5,rectangle_4,,,,,,,,,,,,,,,,,,,,,,,,,,,,,,,,,,,,,,,,,,,,,,,,,,,,,,,,,,,,,,,,,,,,,,,,,,,,,,,,,,,,,,,,,,,,,,,,,,,,,,,,,,,,,
,,,,,,6160f5524121cc64e5734edc,62c53a423d012ff394c79240,2022-07-06_09h33.24.429,Colour_Asymmetry_Pilot,2022.1.3,Win32,60.03121623,62c50e9c1127f2cd403a315f,,,,,,,,,,,,,,,,,,,"[0.9763999999999999,-0.1137999999999999,-0.6314]",fourthree,"[-0.4982,-0.2942,-0.0354000000000001]",-3,1.9538,-76,28,1,0,0,response7disk_5,-9,4,1,0,0,rectangle_8,-9,4,1,0,0,2,-9,4,1,0,0,3,0,3,0,1,,,,,,,,,,,,,,,,,,,,,,,,,,,,,,,,,,,,,,,,,,,,,,,,,,,,,,,,,,,,,,,,,,,,,,,,,,,,,,,,,,,,,,,,,,,,,,,,,,,,,,,,,,,,,,,,
,,,,,,6160f5524121cc64e5734edc,62c53a423d012ff394c79240,2022-07-06_09h33.24.429,Colour_Asymmetry_Pilot,2022.1.3,Win32,60.03121623,62c50e9c1127f2cd403a315f,,,,,,,,,,,,,,,,,,,"[0.5449999999999999,-0.31000000000000005,-0.0354000000000001]",onethree,"[-0.9688,-0.38039999999999996,-0.41979999999999995]",-4,1.6557,-42,70,1,0,0,response7disk_5,-18,7,1,0,0,rectangle_8,-18,7,1,0,0,2,-18,7,1,0,0,4,0,4,0,1,,,,,,,,,,,,,,,,,,,,,,,,,,,,,,,,,,,,,,,,,,,,,,,,,,,,,,,,,,,,,,,,,,,,,,,,,,,,,,,,,,,,,,,,,,,,,,,,,,,,,,,,,,,,,,,,
,,,,,,6160f5524121cc64e5734edc,62c53a423d012ff394c79240,2022-07-06_09h33.24.429,Colour_Asymmetry_Pilot,2022.1.3,Win32,60.03121623,62c50e9c1127f2cd403a315f,,,,,,,,,,,,,,,,,,,"[-0.5922000000000001,-0.7492000000000001,-0.5296000000000001]",onetwo,"[-0.10599999999999998,-0.10599999999999998,0.5841999999999998]",-4,1.154,-28,87,1,0,0,response7disk_5,-16,0,1,0,0,rectangle_8,86,-54,1,0,0,2,-1,0,1,0,0,5,0,5,0,1,response3disk_7,5,rectangle_4,,,,,,,,,,,,,,,,,,,,,,,,,,,,,,,,,,,,,,,,,,,,,,,,,,,,,,,,,,,,,,,,,,,,,,,,,,,,,,,,,,,,,,,,,,,,,,,,,,,,,,,,,,,,,
,,,,,,6160f5524121cc64e5734edc,62c53a423d012ff394c79240,2022-07-06_09h33.24.429,Colour_Asymmetry_Pilot,2022.1.3,Win32,60.03121623,62c50e9c1127f2cd403a315f,,,,,,,,,,,,,,,,,,,"[-0.5922000000000001,-0.7492000000000001,-0.5296000000000001]",twoone,"[0.0351999999999999,0.41159999999999997,0.0038000000000000256]",-2,1.9391,-83,-32,1,0,0,response5disk_5,5,5,1,0,0,rectangle_8,5,5,1,0,0,2,5,5,1,0,0,6,0,6,0,1,,,,,,,,,,,,,,,,,,,,,,,,,,,,,,,,,,,,,,,,,,,,,,,,,,,,,,,,,,,,,,,,,,,,,,,,,,,,,,,,,,,,,,,,,,,,,,,,,,,,,,,,,,,,,,,,
,,,,,,6160f5524121cc64e5734edc,62c53a423d012ff394c79240,2022-07-06_09h33.24.429,Colour_Asymmetry_Pilot,2022.1.3,Win32,60.03121623,62c50e9c1127f2cd403a315f,,,,,,,,,,,,,,,,,,,,twofour,,-2,2.5821,,,,,,,,,,,,,,,,,,,,,,,,,,,,,,,,space,32.8602,"[-0.9216,-0.5529999999999999,-0.3962]","[0.9686000000000001,0.5763999999999998,0.11359999999999992]",-96,-48,1,0,0,response5disk,3,3,1,0,0,rectangle,3,3,1,0,0,,1,0.007,0,3,3,1,0,0,0,0,0,126,1,45,second,,,,,,,,,,,,,,,,,,,,,,,,,,,,,,,,,,,,,,,,,,,,,,,,,,,,,,,,,,,,,,,,,,,,,,,,
,,,,,,6160f5524121cc64e5734edc,62c53a423d012ff394c79240,2022-07-06_09h33.24.429,Colour_Asymmetry_Pilot,2022.1.3,Win32,60.03121623,62c50e9c1127f2cd403a315f,,,,,,,,,,,,,,,,,,,,fourtwo,,-1,3.1696,,,,,,,,,,,,,,,,,,,,,,,,,,,,,,,,,,"[0.23920000000000008,0.2704,0.16060000000000008]","[0.0351999999999999,0.41159999999999997,0.0038000000000000256]",-58,-77,1,0,0,response5disk,-12,8,1,0,0,rectangle,-12,8,1,0,0,,3,0.0027,0,-12,8,1,0,0,0,1,1,42,1,42,first,,,,,,,,,,,,,,,,,,,,,,,,,,,,,,,,,,,,,,,,,,,,,,,,,,,,,,,,,,,,,,,,,,,,,,,,
,,,,,,6160f5524121cc64e5734edc,62c53a423d012ff394c79240,2022-07-06_09h33.24.429,Colour_Asymmetry_Pilot,2022.1.3,Win32,60.03121623,62c50e9c1127f2cd403a315f,,,,,,,,,,,,,,,,,,,,threefour,,-4,0.8723,,,,,,,,,,,,,,,,,,,,,,,,,,,,,,,,,,"[0.9763999999999999,0.30979999999999985,-0.6786]","[-0.48240000000000005,0.3175999999999999,0.2156]",-55,74,1,0,0,response7disk,-13,2,1,0,0,rectangle,-13,2,1,0,0,,2,0.0029,0,-13,2,1,0,0,0,2,2,154,1,73,second,,,,,,,,,,,,,,,,,,,,,,,,,,,,,,,,,,,,,,,,,,,,,,,,,,,,,,,,,,,,,,,,,,,,,,,,
,,,,,,6160f5524121cc64e5734edc,62c53a423d012ff394c79240,2022-07-06_09h33.24.429,Colour_Asymmetry_Pilot,2022.1.3,Win32,60.03121623,62c50e9c1127f2cd403a315f,,,,,,,,,,,,,,,,,,,,onetwo,,-1,0.9052,,,,,,,,,,,,,,,,,,,,,,,,,,,,,,,,,,"[1,0.12939999999999996,-1]","[-0.5922000000000001,-0.7492000000000001,-0.5296000000000001]",-42,-78,1,0,0,response5disk,-5,4,1,0,0,rectangle,-5,4,1,0,0,,1,0.003,0,-5,4,1,0,0,0,3,3,62,1,62,first,,,,,,,,,,,,,,,,,,,,,,,,,,,,,,,,,,,,,,,,,,,,,,,,,,,,,,,,,,,,,,,,,,,,,,,,
,,,,,,6160f5524121cc64e5734edc,62c53a423d012ff394c79240,2022-07-06_09h33.24.429,Colour_Asymmetry_Pilot,2022.1.3,Win32,60.03121623,62c50e9c1127f2cd403a315f,,,,,,,,,,,,,,,,,,,,fourtwo,,-1,2.2181,,,,,,,,,,,,,,,,,,,,,,,,,,,,,,,,,,"[0.9686000000000001,0.5763999999999998,0.11359999999999992]","[0.34099999999999997,0.5841999999999998,-0.9844]",-44,-84,1,0,0,response5disk,-1,-8,1,0,0,rectangle,-1,-8,1,0,0,,1,0.0005,0,-1,-8,1,0,0,0,4,4,157,1,76,second,,,,,,,,,,,,,,,,,,,,,,,,,,,,,,,,,,,,,,,,,,,,,,,,,,,,,,,,,,,,,,,,,,,,,,,,
,,,,,,6160f5524121cc64e5734edc,62c53a423d012ff394c79240,2022-07-06_09h33.24.429,Colour_Asymmetry_Pilot,2022.1.3,Win32,60.03121623,62c50e9c1127f2cd403a315f,,,,,,,,,,,,,,,,,,,,onetwo,,-2,1.8444,,,,,,,,,,,,,,,,,,,,,,,,,,,,,,,,,,"[0.0351999999999999,0.41159999999999997,0.0038000000000000256]","[0.23920000000000008,0.2704,0.16060000000000008]",-66,-46,1,0,0,response5disk,8,-1,1,0,0,rectangle,8,-1,1,0,0,,2,0.0034,0,8,-1,1,0,0,0,5,5,123,1,42,second,,,,,,,,,,,,,,,,,,,,,,,,,,,,,,,,,,,,,,,,,,,,,,,,,,,,,,,,,,,,,,,,,,,,,,,,
,,,,,,6160f5524121cc64e5734edc,62c53a423d012ff394c79240,2022-07-06_09h33.24.429,Colour_Asymmetry_Pilot,2022.1.3,Win32,60.03121623,62c50e9c1127f2cd403a315f,,,,,,,,,,,,,,,,,,,,fourthree,,-3,0.8506,,,,,,,,,,,,,,,,,,,,,,,,,,,,,,,,,,"[-0.4902000000000001,0.2704,-0.45899999999999996]","[-0.2942,-0.24719999999999998,-0.357]",-51,34,1,0,0,response7disk,-11,1,1,0,0,rectangle,-11,1,1,0,0,,2,0.0009,0,-11,1,1,0,0,0,6,6,79,1,79,first,,,,,,,,,,,,,,,,,,,,,,,,,,,,,,,,,,,,,,,,,,,,,,,,,,,,,,,,,,,,,,,,,,,,,,,,
,,,,,,6160f5524121cc64e5734edc,62c53a423d012ff394c79240,2022-07-06_09h33.24.429,Colour_Asymmetry_Pilot,2022.1.3,Win32,60.03121623,62c50e9c1127f2cd403a315f,,,,,,,,,,,,,,,,,,,,fourtwo,,1,0.867,,,,,,,,,,,,,,,,,,,,,,,,,,,,,,,,,,"[0.2784,-0.31000000000000005,-0.5452]","[-0.38039999999999996,-0.4276,-0.1452]",39,-65,1,0,0,response3disk,-2,-4,1,0,0,rectangle,-2,-4,1,0,0,,1,0.0047,0,-2,-4,1,0,0,0,7,7,111,1,30,second,,,,,,,,,,,,,,,,,,,,,,,,,,,,,,,,,,,,,,,,,,,,,,,,,,,,,,,,,,,,,,,,,,,,,,,,
,,,,,,6160f5524121cc64e5734edc,62c53a423d012ff394c79240,2022-07-06_09h33.24.429,Colour_Asymmetry_Pilot,2022.1.3,Win32,60.03121623,62c50e9c1127f2cd403a315f,,,,,,,,,,,,,,,,,,,,fourtwo,,-1,0.8181,,,,,,,,,,,,,,,,,,,,,,,,,,,,,,,,,,"[-0.9688,-0.4902000000000001,-0.12159999999999993]","[-0.9688,-0.7412000000000001,-0.4902000000000001]",-41,-54,1,0,0,response5disk,4,3,1,0,0,rectangle,4,3,1,0,0,,1,0.0011,0,4,3,1,0,0,0,8,8,12,1,12,first,,,,,,,,,,,,,,,,,,,,,,,,,,,,,,,,,,,,,,,,,,,,,,,,,,,,,,,,,,,,,,,,,,,,,,,,
,,,,,,6160f5524121cc64e5734edc,62c53a423d012ff394c79240,2022-07-06_09h33.24.429,Colour_Asymmetry_Pilot,2022.1.3,Win32,60.03121623,62c50e9c1127f2cd403a315f,,,,,,,,,,,,,,,,,,,,onetwo,,-3,1.5527,,,,,,,,,,,,,,,,,,,,,,,,,,,,,,,,,,"[0.2862,0.7802,0.3568]","[-0.9766,-0.6472,0.07440000000000002]",-69,34,1,0,0,response7disk,-15,0,1,0,0,rectangle,-15,0,1,0,0,,3,0.0032,0,-15,0,1,0,0,0,9,9,114,1,33,second,,,,,,,,,,,,,,,,,,,,,,,,,,,,,,,,,,,,,,,,,,,,,,,,,,,,,,,,,,,,,,,,,,,,,,,,
,,,,,,6160f5524121cc64e5734edc,62c53a423d012ff394c79240,2022-07-06_09h33.24.429,Colour_Asymmetry_Pilot,2022.1.3,Win32,60.03121623,62c50e9c1127f2cd403a315f,,,,,,,,,,,,,,,,,,,,fourthree,,-1,0.6896,,,,,,,,,,,,,,,,,,,,,,,,,,,,,,,,,,"[-0.45899999999999996,-0.3256,-0.9374]","[-0.38039999999999996,-0.4276,-0.1452]",-41,-86,1,0,0,response5disk,8,-4,1,0,0,rectangle,8,-4,1,0,0,,3,0.0005,0,8,-4,1,0,0,0,10,10,142,1,61,second,,,,,,,,,,,,,,,,,,,,,,,,,,,,,,,,,,,,,,,,,,,,,,,,,,,,,,,,,,,,,,,,,,,,,,,,
,,,,,,6160f5524121cc64e5734edc,62c53a423d012ff394c79240,2022-07-06_09h33.24.429,Colour_Asymmetry_Pilot,2022.1.3,Win32,60.03121623,62c50e9c1127f2cd403a315f,,,,,,,,,,,,,,,,,,,,twofour,,-1,1.9536,,,,,,,,,,,,,,,,,,,,,,,,,,,,,,,,,,"[0.37240000000000006,0.4980000000000002,-0.2864]","[0.9213999999999998,0.6391999999999998,-0.9922]",-42,-83,1,0,0,response5disk,-7,3,1,0,0,rectangle,-7,3,1,0,0,,2,0.004,0,-7,3,1,0,0,0,11,11,91,1,10,second,,,,,,,,,,,,,,,,,,,,,,,,,,,,,,,,,,,,,,,,,,,,,,,,,,,,,,,,,,,,,,,,,,,,,,,,
,,,,,,6160f5524121cc64e5734edc,62c53a423d012ff394c79240,2022-07-06_09h33.24.429,Colour_Asymmetry_Pilot,2022.1.3,Win32,60.03121623,62c50e9c1127f2cd403a315f,,,,,,,,,,,,,,,,,,,,fourtwo,,-1,0.9528,,,,,,,,,,,,,,,,,,,,,,,,,,,,,,,,,,"[0.5528,0.7409999999999999,-0.71]","[0.23920000000000008,0.2704,0.16060000000000008]",-41,-73,1,0,0,response5disk,-11,-4,1,0,0,rectangle,-11,-4,1,0,0,,3,0.003,0,-11,-4,1,0,0,0,12,12,3,1,3,first,,,,,,,,,,,,,,,,,,,,,,,,,,,,,,,,,,,,,,,,,,,,,,,,,,,,,,,,,,,,,,,,,,,,,,,,
,,,,,,6160f5524121cc64e5734edc,62c53a423d012ff394c79240,2022-07-06_09h33.24.429,Colour_Asymmetry_Pilot,2022.1.3,Win32,60.03121623,62c50e9c1127f2cd403a315f,,,,,,,,,,,,,,,,,,,,onethree,,1,0.8027,,,,,,,,,,,,,,,,,,,,,,,,,,,,,,,,,,"[-0.011800000000000033,-0.906,-0.45100000000000007]","[0.3881999999999999,-0.23939999999999995,-0.05040000000000011]",42,-82,1,0,0,response3disk,-8,4,1,0,0,rectangle,-8,4,1,0,0,,3,0.0011,0,-8,4,1,0,0,0,13,13,83,1,2,second,,,,,,,,,,,,,,,,,,,,,,,,,,,,,,,,,,,,,,,,,,,,,,,,,,,,,,,,,,,,,,,,,,,,,,,,
,,,,,,6160f5524121cc64e5734edc,62c53a423d012ff394c79240,2022-07-06_09h33.24.429,Colour_Asymmetry_Pilot,2022.1.3,Win32,60.03121623,62c50e9c1127f2cd403a315f,,,,,,,,,,,,,,,,,,,,fourthree,,-1,0.7041,,,,,,,,,,,,,,,,,,,,,,,,,,,,,,,,,,"[0.37240000000000006,-0.050999999999999934,-0.5216]","[0.2862,0.7802,0.3568]",-45,-59,1,0,0,response5disk,1,6,1,0,0,rectangle,1,6,1,0,0,,3,0.0005,0,1,6,1,0,0,0,14,14,46,1,46,first,,,,,,,,,,,,,,,,,,,,,,,,,,,,,,,,,,,,,,,,,,,,,,,,,,,,,,,,,,,,,,,,,,,,,,,,
,,,,,,6160f5524121cc64e5734edc,62c53a423d012ff394c79240,2022-07-06_09h33.24.429,Colour_Asymmetry_Pilot,2022.1.3,Win32,60.03121623,62c50e9c1127f2cd403a315f,,,,,,,,,,,,,,,,,,,,onethree,,-2,0.6325,,,,,,,,,,,,,,,,,,,,,,,,,,,,,,,,,,"[-0.050999999999999934,-0.6706000000000001,-0.804]","[0.37240000000000006,0.4980000000000002,-0.2864]",-54,-35,1,0,0,response5disk,8,1,1,0,0,rectangle,8,1,1,0,0,,1,0.0027,0,8,1,1,0,0,0,15,15,40,1,40,first,,,,,,,,,,,,,,,,,,,,,,,,,,,,,,,,,,,,,,,,,,,,,,,,,,,,,,,,,,,,,,,,,,,,,,,,
,,,,,,6160f5524121cc64e5734edc,62c53a423d012ff394c79240,2022-07-06_09h33.24.429,Colour_Asymmetry_Pilot,2022.1.3,Win32,60.03121623,62c50e9c1127f2cd403a315f,,,,,,,,,,,,,,,,,,,,threeone,,4,0.9705,,,,,,,,,,,,,,,,,,,,,,,,,,,,,,,,,,"[0.12939999999999996,-0.2864,0.3253999999999999]","[-0.20799999999999996,-0.655,-0.01980000000000004]",31,81,1,0,0,response1disk,-1,6,1,0,0,rectangle,-1,6,1,0,0,,2,0.0036,0,-1,6,1,0,0,0,16,16,148,1,67,second,,,,,,,,,,,,,,,,,,,,,,,,,,,,,,,,,,,,,,,,,,,,,,,,,,,,,,,,,,,,,,,,,,,,,,,,
,,,,,,6160f5524121cc64e5734edc,62c53a423d012ff394c79240,2022-07-06_09h33.24.429,Colour_Asymmetry_Pilot,2022.1.3,Win32,60.03121623,62c50e9c1127f2cd403a315f,,,,,,,,,,,,,,,,,,,,twoone,,4,0.7387,,,,,,,,,,,,,,,,,,,,,,,,,,,,,,,,,,"[0.2784,-0.31000000000000005,-0.5452]","[0.3568,-0.20799999999999996,-0.9844]",34,69,1,0,0,response1disk,5,-1,1,0,0,rectangle,5,-1,1,0,0,,1,0.0028,0,5,-1,1,0,0,0,17,17,147,1,66,second,,,,,,,,,,,,,,,,,,,,,,,,,,,,,,,,,,,,,,,,,,,,,,,,,,,,,,,,,,,,,,,,,,,,,,,,
