trials.thisRepN,trials.thisTrialN,trials.thisN,trials.thisIndex,trials.ran,Colourcodes,participant,session,date,expName,psychopyVersion,OS,frameRate,study_id,trials_4.thisRepN,trials_4.thisTrialN,trials_4.thisN,trials_4.thisIndex,trials_4.ran,StimulusPos,key_resp.keys,key_resp.rt,key_resp_2.keys,key_resp_2.rt,key_resp_15.keys,key_resp_15.rt,key_resp_17.keys,key_resp_17.rt,key_resp_9.keys,key_resp_9.rt,key_resp_10.keys,key_resp_10.rt,Circle1_col,Ecc,Circle2_col,similarity,response_time,mouse_5.x,mouse_5.y,mouse_5.leftButton,mouse_5.midButton,mouse_5.rightButton,mouse_5.clicked_name,mouse_10.x,mouse_10.y,mouse_10.leftButton,mouse_10.midButton,mouse_10.rightButton,mouse_10.clicked_name,mouse_7.x,mouse_7.y,mouse_7.leftButton,mouse_7.midButton,mouse_7.rightButton,mouse_7.clicked_name,catchprac,catchnumberprac,mouse_6.x,mouse_6.y,mouse_6.leftButton,mouse_6.midButton,mouse_6.rightButton,mouse_6.clicked_name,duringprac.thisRepN,duringprac.thisTrialN,duringprac.thisN,duringprac.thisIndex,duringprac.ran,key_resp_22.keys,key_resp_22.rt,Circle1_colour,Circle2_colour,mouse.x,mouse.y,mouse.leftButton,mouse.midButton,mouse.rightButton,mouse.clicked_name,mouse_2.x,mouse_2.y,mouse_2.leftButton,mouse_2.midButton,mouse_2.rightButton,mouse_2.clicked_name,mouse_3.x,mouse_3.y,mouse_3.leftButton,mouse_3.midButton,mouse_3.rightButton,catchresponse,catchnumber,response_time_catch,Catch,mouse_11.x,mouse_11.y,mouse_11.leftButton,mouse_11.midButton,mouse_11.rightButton,trials_2.thisRepN,trials_2.thisTrialN,trials_2.thisN,trials_2.thisIndex,trials_2.ran,Colourpair,Temporder,mouse_3.clicked_name,mouse_11.clicked_name,trials_3.thisRepN,trials_3.thisTrialN,trials_3.thisN,trials_3.thisIndex,trials_3.ran,key_resp_instr_Ishi.keys,key_resp_instr_Ishi.rt,Ishi_trial_keyresp.keys,Ishi_trial_keyresp.rt,Ishi_textbox.text,Ishi_mouse.x,Ishi_mouse.y,Ishi_mouse.leftButton,Ishi_mouse.midButton,Ishi_mouse.rightButton,Ishi_loop.thisRepN,Ishi_loop.thisTrialN,Ishi_loop.thisN,Ishi_loop.thisIndex,Ishi_loop.ran,imageaddress,Ishi_mouse.clicked_name,textbox.text,mouse_4.x,mouse_4.y,mouse_4.leftButton,mouse_4.midButton,mouse_4.rightButton,mouse_4.clicked_name,textbox_2.text,mouse_8.x,mouse_8.y,mouse_8.leftButton,mouse_8.midButton,mouse_8.rightButton,mouse_8.clicked_name,textbox_3.text,mouse_9.x,mouse_9.y,mouse_9.leftButton,mouse_9.midButton,mouse_9.rightButton,mouse_9.clicked_name,textbox_4.text,mouse_12.x,mouse_12.y,mouse_12.leftButton,mouse_12.midButton,mouse_12.rightButton,mouse_12.clicked_name,textbox_5.text,mouse_13.x,mouse_13.y,mouse_13.leftButton,mouse_13.midButton,mouse_13.rightButton,mouse_13.clicked_name,textbox_6.text,mouse_14.x,mouse_14.y,mouse_14.leftButton,mouse_14.midButton,mouse_14.rightButton,mouse_14.clicked_name,textbox_7.text,mouse_15.x,mouse_15.y,mouse_15.leftButton,mouse_15.midButton,mouse_15.rightButton,mouse_15.clicked_name
0,0,0,31,1,,5fb015142942a535524f55fc,62c53a6cc6e828eebd792f39,2022-07-06_09h39.11.015,Colour_Asymmetry_Pilot,2022.1.3,Win32,59.91970759,62c50e9c1127f2cd403a315f,,,,,,,,,,,,,,,,,,,,,,,,,,,,,,,,,,,,,,,,,,,,,,,,,,,,,,,,,,,,,,,,,,,,,,,,,,,,,,,,,,,,,,,,,,,,,,,,,,,,,,,,,,,,,,,,,,,,,,,,,,,,,,,,,,,,,,,,,,,,,,,,,,,,,,,,,,,,,,,,,,,,
0,1,1,8,1,,5fb015142942a535524f55fc,62c53a6cc6e828eebd792f39,2022-07-06_09h39.11.015,Colour_Asymmetry_Pilot,2022.1.3,Win32,59.91970759,62c50e9c1127f2cd403a315f,,,,,,,,,,,,,,,,,,,,,,,,,,,,,,,,,,,,,,,,,,,,,,,,,,,,,,,,,,,,,,,,,,,,,,,,,,,,,,,,,,,,,,,,,,,,,,,,,,,,,,,,,,,,,,,,,,,,,,,,,,,,,,,,,,,,,,,,,,,,,,,,,,,,,,,,,,,,,,,,,,,,
0,2,2,54,1,,5fb015142942a535524f55fc,62c53a6cc6e828eebd792f39,2022-07-06_09h39.11.015,Colour_Asymmetry_Pilot,2022.1.3,Win32,59.91970759,62c50e9c1127f2cd403a315f,,,,,,,,,,,,,,,,,,,,,,,,,,,,,,,,,,,,,,,,,,,,,,,,,,,,,,,,,,,,,,,,,,,,,,,,,,,,,,,,,,,,,,,,,,,,,,,,,,,,,,,,,,,,,,,,,,,,,,,,,,,,,,,,,,,,,,,,,,,,,,,,,,,,,,,,,,,,,,,,,,,,
0,3,3,3,1,,5fb015142942a535524f55fc,62c53a6cc6e828eebd792f39,2022-07-06_09h39.11.015,Colour_Asymmetry_Pilot,2022.1.3,Win32,59.91970759,62c50e9c1127f2cd403a315f,,,,,,,,,,,,,,,,,,,,,,,,,,,,,,,,,,,,,,,,,,,,,,,,,,,,,,,,,,,,,,,,,,,,,,,,,,,,,,,,,,,,,,,,,,,,,,,,,,,,,,,,,,,,,,,,,,,,,,,,,,,,,,,,,,,,,,,,,,,,,,,,,,,,,,,,,,,,,,,,,,,,
0,4,4,11,1,,5fb015142942a535524f55fc,62c53a6cc6e828eebd792f39,2022-07-06_09h39.11.015,Colour_Asymmetry_Pilot,2022.1.3,Win32,59.91970759,62c50e9c1127f2cd403a315f,,,,,,,,,,,,,,,,,,,,,,,,,,,,,,,,,,,,,,,,,,,,,,,,,,,,,,,,,,,,,,,,,,,,,,,,,,,,,,,,,,,,,,,,,,,,,,,,,,,,,,,,,,,,,,,,,,,,,,,,,,,,,,,,,,,,,,,,,,,,,,,,,,,,,,,,,,,,,,,,,,,,
0,5,5,51,1,,5fb015142942a535524f55fc,62c53a6cc6e828eebd792f39,2022-07-06_09h39.11.015,Colour_Asymmetry_Pilot,2022.1.3,Win32,59.91970759,62c50e9c1127f2cd403a315f,,,,,,,,,,,,,,,,,,,,,,,,,,,,,,,,,,,,,,,,,,,,,,,,,,,,,,,,,,,,,,,,,,,,,,,,,,,,,,,,,,,,,,,,,,,,,,,,,,,,,,,,,,,,,,,,,,,,,,,,,,,,,,,,,,,,,,,,,,,,,,,,,,,,,,,,,,,,,,,,,,,,
0,6,6,64,1,,5fb015142942a535524f55fc,62c53a6cc6e828eebd792f39,2022-07-06_09h39.11.015,Colour_Asymmetry_Pilot,2022.1.3,Win32,59.91970759,62c50e9c1127f2cd403a315f,,,,,,,,,,,,,,,,,,,,,,,,,,,,,,,,,,,,,,,,,,,,,,,,,,,,,,,,,,,,,,,,,,,,,,,,,,,,,,,,,,,,,,,,,,,,,,,,,,,,,,,,,,,,,,,,,,,,,,,,,,,,,,,,,,,,,,,,,,,,,,,,,,,,,,,,,,,,,,,,,,,,
0,7,7,52,1,,5fb015142942a535524f55fc,62c53a6cc6e828eebd792f39,2022-07-06_09h39.11.015,Colour_Asymmetry_Pilot,2022.1.3,Win32,59.91970759,62c50e9c1127f2cd403a315f,,,,,,,,,,,,,,,,,,,,,,,,,,,,,,,,,,,,,,,,,,,,,,,,,,,,,,,,,,,,,,,,,,,,,,,,,,,,,,,,,,,,,,,,,,,,,,,,,,,,,,,,,,,,,,,,,,,,,,,,,,,,,,,,,,,,,,,,,,,,,,,,,,,,,,,,,,,,,,,,,,,,
0,8,8,32,1,,5fb015142942a535524f55fc,62c53a6cc6e828eebd792f39,2022-07-06_09h39.11.015,Colour_Asymmetry_Pilot,2022.1.3,Win32,59.91970759,62c50e9c1127f2cd403a315f,,,,,,,,,,,,,,,,,,,,,,,,,,,,,,,,,,,,,,,,,,,,,,,,,,,,,,,,,,,,,,,,,,,,,,,,,,,,,,,,,,,,,,,,,,,,,,,,,,,,,,,,,,,,,,,,,,,,,,,,,,,,,,,,,,,,,,,,,,,,,,,,,,,,,,,,,,,,,,,,,,,,
0,9,9,89,1,,5fb015142942a535524f55fc,62c53a6cc6e828eebd792f39,2022-07-06_09h39.11.015,Colour_Asymmetry_Pilot,2022.1.3,Win32,59.91970759,62c50e9c1127f2cd403a315f,,,,,,,,,,,,,,,,,,,,,,,,,,,,,,,,,,,,,,,,,,,,,,,,,,,,,,,,,,,,,,,,,,,,,,,,,,,,,,,,,,,,,,,,,,,,,,,,,,,,,,,,,,,,,,,,,,,,,,,,,,,,,,,,,,,,,,,,,,,,,,,,,,,,,,,,,,,,,,,,,,,,
0,10,10,60,1,,5fb015142942a535524f55fc,62c53a6cc6e828eebd792f39,2022-07-06_09h39.11.015,Colour_Asymmetry_Pilot,2022.1.3,Win32,59.91970759,62c50e9c1127f2cd403a315f,,,,,,,,,,,,,,,,,,,,,,,,,,,,,,,,,,,,,,,,,,,,,,,,,,,,,,,,,,,,,,,,,,,,,,,,,,,,,,,,,,,,,,,,,,,,,,,,,,,,,,,,,,,,,,,,,,,,,,,,,,,,,,,,,,,,,,,,,,,,,,,,,,,,,,,,,,,,,,,,,,,,
0,11,11,29,1,,5fb015142942a535524f55fc,62c53a6cc6e828eebd792f39,2022-07-06_09h39.11.015,Colour_Asymmetry_Pilot,2022.1.3,Win32,59.91970759,62c50e9c1127f2cd403a315f,,,,,,,,,,,,,,,,,,,,,,,,,,,,,,,,,,,,,,,,,,,,,,,,,,,,,,,,,,,,,,,,,,,,,,,,,,,,,,,,,,,,,,,,,,,,,,,,,,,,,,,,,,,,,,,,,,,,,,,,,,,,,,,,,,,,,,,,,,,,,,,,,,,,,,,,,,,,,,,,,,,,
0,12,12,19,1,,5fb015142942a535524f55fc,62c53a6cc6e828eebd792f39,2022-07-06_09h39.11.015,Colour_Asymmetry_Pilot,2022.1.3,Win32,59.91970759,62c50e9c1127f2cd403a315f,,,,,,,,,,,,,,,,,,,,,,,,,,,,,,,,,,,,,,,,,,,,,,,,,,,,,,,,,,,,,,,,,,,,,,,,,,,,,,,,,,,,,,,,,,,,,,,,,,,,,,,,,,,,,,,,,,,,,,,,,,,,,,,,,,,,,,,,,,,,,,,,,,,,,,,,,,,,,,,,,,,,
0,13,13,26,1,,5fb015142942a535524f55fc,62c53a6cc6e828eebd792f39,2022-07-06_09h39.11.015,Colour_Asymmetry_Pilot,2022.1.3,Win32,59.91970759,62c50e9c1127f2cd403a315f,,,,,,,,,,,,,,,,,,,,,,,,,,,,,,,,,,,,,,,,,,,,,,,,,,,,,,,,,,,,,,,,,,,,,,,,,,,,,,,,,,,,,,,,,,,,,,,,,,,,,,,,,,,,,,,,,,,,,,,,,,,,,,,,,,,,,,,,,,,,,,,,,,,,,,,,,,,,,,,,,,,,
0,14,14,9,1,,5fb015142942a535524f55fc,62c53a6cc6e828eebd792f39,2022-07-06_09h39.11.015,Colour_Asymmetry_Pilot,2022.1.3,Win32,59.91970759,62c50e9c1127f2cd403a315f,,,,,,,,,,,,,,,,,,,,,,,,,,,,,,,,,,,,,,,,,,,,,,,,,,,,,,,,,,,,,,,,,,,,,,,,,,,,,,,,,,,,,,,,,,,,,,,,,,,,,,,,,,,,,,,,,,,,,,,,,,,,,,,,,,,,,,,,,,,,,,,,,,,,,,,,,,,,,,,,,,,,
0,15,15,0,1,,5fb015142942a535524f55fc,62c53a6cc6e828eebd792f39,2022-07-06_09h39.11.015,Colour_Asymmetry_Pilot,2022.1.3,Win32,59.91970759,62c50e9c1127f2cd403a315f,,,,,,,,,,,,,,,,,,,,,,,,,,,,,,,,,,,,,,,,,,,,,,,,,,,,,,,,,,,,,,,,,,,,,,,,,,,,,,,,,,,,,,,,,,,,,,,,,,,,,,,,,,,,,,,,,,,,,,,,,,,,,,,,,,,,,,,,,,,,,,,,,,,,,,,,,,,,,,,,,,,,
0,16,16,79,1,,5fb015142942a535524f55fc,62c53a6cc6e828eebd792f39,2022-07-06_09h39.11.015,Colour_Asymmetry_Pilot,2022.1.3,Win32,59.91970759,62c50e9c1127f2cd403a315f,,,,,,,,,,,,,,,,,,,,,,,,,,,,,,,,,,,,,,,,,,,,,,,,,,,,,,,,,,,,,,,,,,,,,,,,,,,,,,,,,,,,,,,,,,,,,,,,,,,,,,,,,,,,,,,,,,,,,,,,,,,,,,,,,,,,,,,,,,,,,,,,,,,,,,,,,,,,,,,,,,,,
0,17,17,86,1,,5fb015142942a535524f55fc,62c53a6cc6e828eebd792f39,2022-07-06_09h39.11.015,Colour_Asymmetry_Pilot,2022.1.3,Win32,59.91970759,62c50e9c1127f2cd403a315f,,,,,,,,,,,,,,,,,,,,,,,,,,,,,,,,,,,,,,,,,,,,,,,,,,,,,,,,,,,,,,,,,,,,,,,,,,,,,,,,,,,,,,,,,,,,,,,,,,,,,,,,,,,,,,,,,,,,,,,,,,,,,,,,,,,,,,,,,,,,,,,,,,,,,,,,,,,,,,,,,,,,
0,18,18,69,1,,5fb015142942a535524f55fc,62c53a6cc6e828eebd792f39,2022-07-06_09h39.11.015,Colour_Asymmetry_Pilot,2022.1.3,Win32,59.91970759,62c50e9c1127f2cd403a315f,,,,,,,,,,,,,,,,,,,,,,,,,,,,,,,,,,,,,,,,,,,,,,,,,,,,,,,,,,,,,,,,,,,,,,,,,,,,,,,,,,,,,,,,,,,,,,,,,,,,,,,,,,,,,,,,,,,,,,,,,,,,,,,,,,,,,,,,,,,,,,,,,,,,,,,,,,,,,,,,,,,,
0,19,19,58,1,,5fb015142942a535524f55fc,62c53a6cc6e828eebd792f39,2022-07-06_09h39.11.015,Colour_Asymmetry_Pilot,2022.1.3,Win32,59.91970759,62c50e9c1127f2cd403a315f,,,,,,,,,,,,,,,,,,,,,,,,,,,,,,,,,,,,,,,,,,,,,,,,,,,,,,,,,,,,,,,,,,,,,,,,,,,,,,,,,,,,,,,,,,,,,,,,,,,,,,,,,,,,,,,,,,,,,,,,,,,,,,,,,,,,,,,,,,,,,,,,,,,,,,,,,,,,,,,,,,,,
0,20,20,38,1,,5fb015142942a535524f55fc,62c53a6cc6e828eebd792f39,2022-07-06_09h39.11.015,Colour_Asymmetry_Pilot,2022.1.3,Win32,59.91970759,62c50e9c1127f2cd403a315f,,,,,,,,,,,,,,,,,,,,,,,,,,,,,,,,,,,,,,,,,,,,,,,,,,,,,,,,,,,,,,,,,,,,,,,,,,,,,,,,,,,,,,,,,,,,,,,,,,,,,,,,,,,,,,,,,,,,,,,,,,,,,,,,,,,,,,,,,,,,,,,,,,,,,,,,,,,,,,,,,,,,
0,21,21,36,1,,5fb015142942a535524f55fc,62c53a6cc6e828eebd792f39,2022-07-06_09h39.11.015,Colour_Asymmetry_Pilot,2022.1.3,Win32,59.91970759,62c50e9c1127f2cd403a315f,,,,,,,,,,,,,,,,,,,,,,,,,,,,,,,,,,,,,,,,,,,,,,,,,,,,,,,,,,,,,,,,,,,,,,,,,,,,,,,,,,,,,,,,,,,,,,,,,,,,,,,,,,,,,,,,,,,,,,,,,,,,,,,,,,,,,,,,,,,,,,,,,,,,,,,,,,,,,,,,,,,,
0,22,22,16,1,,5fb015142942a535524f55fc,62c53a6cc6e828eebd792f39,2022-07-06_09h39.11.015,Colour_Asymmetry_Pilot,2022.1.3,Win32,59.91970759,62c50e9c1127f2cd403a315f,,,,,,,,,,,,,,,,,,,,,,,,,,,,,,,,,,,,,,,,,,,,,,,,,,,,,,,,,,,,,,,,,,,,,,,,,,,,,,,,,,,,,,,,,,,,,,,,,,,,,,,,,,,,,,,,,,,,,,,,,,,,,,,,,,,,,,,,,,,,,,,,,,,,,,,,,,,,,,,,,,,,
0,23,23,30,1,,5fb015142942a535524f55fc,62c53a6cc6e828eebd792f39,2022-07-06_09h39.11.015,Colour_Asymmetry_Pilot,2022.1.3,Win32,59.91970759,62c50e9c1127f2cd403a315f,,,,,,,,,,,,,,,,,,,,,,,,,,,,,,,,,,,,,,,,,,,,,,,,,,,,,,,,,,,,,,,,,,,,,,,,,,,,,,,,,,,,,,,,,,,,,,,,,,,,,,,,,,,,,,,,,,,,,,,,,,,,,,,,,,,,,,,,,,,,,,,,,,,,,,,,,,,,,,,,,,,,
0,24,24,70,1,,5fb015142942a535524f55fc,62c53a6cc6e828eebd792f39,2022-07-06_09h39.11.015,Colour_Asymmetry_Pilot,2022.1.3,Win32,59.91970759,62c50e9c1127f2cd403a315f,,,,,,,,,,,,,,,,,,,,,,,,,,,,,,,,,,,,,,,,,,,,,,,,,,,,,,,,,,,,,,,,,,,,,,,,,,,,,,,,,,,,,,,,,,,,,,,,,,,,,,,,,,,,,,,,,,,,,,,,,,,,,,,,,,,,,,,,,,,,,,,,,,,,,,,,,,,,,,,,,,,,
0,25,25,43,1,,5fb015142942a535524f55fc,62c53a6cc6e828eebd792f39,2022-07-06_09h39.11.015,Colour_Asymmetry_Pilot,2022.1.3,Win32,59.91970759,62c50e9c1127f2cd403a315f,,,,,,,,,,,,,,,,,,,,,,,,,,,,,,,,,,,,,,,,,,,,,,,,,,,,,,,,,,,,,,,,,,,,,,,,,,,,,,,,,,,,,,,,,,,,,,,,,,,,,,,,,,,,,,,,,,,,,,,,,,,,,,,,,,,,,,,,,,,,,,,,,,,,,,,,,,,,,,,,,,,,
0,26,26,10,1,,5fb015142942a535524f55fc,62c53a6cc6e828eebd792f39,2022-07-06_09h39.11.015,Colour_Asymmetry_Pilot,2022.1.3,Win32,59.91970759,62c50e9c1127f2cd403a315f,,,,,,,,,,,,,,,,,,,,,,,,,,,,,,,,,,,,,,,,,,,,,,,,,,,,,,,,,,,,,,,,,,,,,,,,,,,,,,,,,,,,,,,,,,,,,,,,,,,,,,,,,,,,,,,,,,,,,,,,,,,,,,,,,,,,,,,,,,,,,,,,,,,,,,,,,,,,,,,,,,,,
0,27,27,62,1,,5fb015142942a535524f55fc,62c53a6cc6e828eebd792f39,2022-07-06_09h39.11.015,Colour_Asymmetry_Pilot,2022.1.3,Win32,59.91970759,62c50e9c1127f2cd403a315f,,,,,,,,,,,,,,,,,,,,,,,,,,,,,,,,,,,,,,,,,,,,,,,,,,,,,,,,,,,,,,,,,,,,,,,,,,,,,,,,,,,,,,,,,,,,,,,,,,,,,,,,,,,,,,,,,,,,,,,,,,,,,,,,,,,,,,,,,,,,,,,,,,,,,,,,,,,,,,,,,,,,
0,28,28,66,1,,5fb015142942a535524f55fc,62c53a6cc6e828eebd792f39,2022-07-06_09h39.11.015,Colour_Asymmetry_Pilot,2022.1.3,Win32,59.91970759,62c50e9c1127f2cd403a315f,,,,,,,,,,,,,,,,,,,,,,,,,,,,,,,,,,,,,,,,,,,,,,,,,,,,,,,,,,,,,,,,,,,,,,,,,,,,,,,,,,,,,,,,,,,,,,,,,,,,,,,,,,,,,,,,,,,,,,,,,,,,,,,,,,,,,,,,,,,,,,,,,,,,,,,,,,,,,,,,,,,,
0,29,29,87,1,,5fb015142942a535524f55fc,62c53a6cc6e828eebd792f39,2022-07-06_09h39.11.015,Colour_Asymmetry_Pilot,2022.1.3,Win32,59.91970759,62c50e9c1127f2cd403a315f,,,,,,,,,,,,,,,,,,,,,,,,,,,,,,,,,,,,,,,,,,,,,,,,,,,,,,,,,,,,,,,,,,,,,,,,,,,,,,,,,,,,,,,,,,,,,,,,,,,,,,,,,,,,,,,,,,,,,,,,,,,,,,,,,,,,,,,,,,,,,,,,,,,,,,,,,,,,,,,,,,,,
0,30,30,13,1,,5fb015142942a535524f55fc,62c53a6cc6e828eebd792f39,2022-07-06_09h39.11.015,Colour_Asymmetry_Pilot,2022.1.3,Win32,59.91970759,62c50e9c1127f2cd403a315f,,,,,,,,,,,,,,,,,,,,,,,,,,,,,,,,,,,,,,,,,,,,,,,,,,,,,,,,,,,,,,,,,,,,,,,,,,,,,,,,,,,,,,,,,,,,,,,,,,,,,,,,,,,,,,,,,,,,,,,,,,,,,,,,,,,,,,,,,,,,,,,,,,,,,,,,,,,,,,,,,,,,
0,31,31,25,1,,5fb015142942a535524f55fc,62c53a6cc6e828eebd792f39,2022-07-06_09h39.11.015,Colour_Asymmetry_Pilot,2022.1.3,Win32,59.91970759,62c50e9c1127f2cd403a315f,,,,,,,,,,,,,,,,,,,,,,,,,,,,,,,,,,,,,,,,,,,,,,,,,,,,,,,,,,,,,,,,,,,,,,,,,,,,,,,,,,,,,,,,,,,,,,,,,,,,,,,,,,,,,,,,,,,,,,,,,,,,,,,,,,,,,,,,,,,,,,,,,,,,,,,,,,,,,,,,,,,,
0,32,32,6,1,,5fb015142942a535524f55fc,62c53a6cc6e828eebd792f39,2022-07-06_09h39.11.015,Colour_Asymmetry_Pilot,2022.1.3,Win32,59.91970759,62c50e9c1127f2cd403a315f,,,,,,,,,,,,,,,,,,,,,,,,,,,,,,,,,,,,,,,,,,,,,,,,,,,,,,,,,,,,,,,,,,,,,,,,,,,,,,,,,,,,,,,,,,,,,,,,,,,,,,,,,,,,,,,,,,,,,,,,,,,,,,,,,,,,,,,,,,,,,,,,,,,,,,,,,,,,,,,,,,,,
0,33,33,61,1,,5fb015142942a535524f55fc,62c53a6cc6e828eebd792f39,2022-07-06_09h39.11.015,Colour_Asymmetry_Pilot,2022.1.3,Win32,59.91970759,62c50e9c1127f2cd403a315f,,,,,,,,,,,,,,,,,,,,,,,,,,,,,,,,,,,,,,,,,,,,,,,,,,,,,,,,,,,,,,,,,,,,,,,,,,,,,,,,,,,,,,,,,,,,,,,,,,,,,,,,,,,,,,,,,,,,,,,,,,,,,,,,,,,,,,,,,,,,,,,,,,,,,,,,,,,,,,,,,,,,
0,34,34,67,1,,5fb015142942a535524f55fc,62c53a6cc6e828eebd792f39,2022-07-06_09h39.11.015,Colour_Asymmetry_Pilot,2022.1.3,Win32,59.91970759,62c50e9c1127f2cd403a315f,,,,,,,,,,,,,,,,,,,,,,,,,,,,,,,,,,,,,,,,,,,,,,,,,,,,,,,,,,,,,,,,,,,,,,,,,,,,,,,,,,,,,,,,,,,,,,,,,,,,,,,,,,,,,,,,,,,,,,,,,,,,,,,,,,,,,,,,,,,,,,,,,,,,,,,,,,,,,,,,,,,,
0,35,35,49,1,,5fb015142942a535524f55fc,62c53a6cc6e828eebd792f39,2022-07-06_09h39.11.015,Colour_Asymmetry_Pilot,2022.1.3,Win32,59.91970759,62c50e9c1127f2cd403a315f,,,,,,,,,,,,,,,,,,,,,,,,,,,,,,,,,,,,,,,,,,,,,,,,,,,,,,,,,,,,,,,,,,,,,,,,,,,,,,,,,,,,,,,,,,,,,,,,,,,,,,,,,,,,,,,,,,,,,,,,,,,,,,,,,,,,,,,,,,,,,,,,,,,,,,,,,,,,,,,,,,,,
0,36,36,2,1,,5fb015142942a535524f55fc,62c53a6cc6e828eebd792f39,2022-07-06_09h39.11.015,Colour_Asymmetry_Pilot,2022.1.3,Win32,59.91970759,62c50e9c1127f2cd403a315f,,,,,,,,,,,,,,,,,,,,,,,,,,,,,,,,,,,,,,,,,,,,,,,,,,,,,,,,,,,,,,,,,,,,,,,,,,,,,,,,,,,,,,,,,,,,,,,,,,,,,,,,,,,,,,,,,,,,,,,,,,,,,,,,,,,,,,,,,,,,,,,,,,,,,,,,,,,,,,,,,,,,
0,37,37,41,1,,5fb015142942a535524f55fc,62c53a6cc6e828eebd792f39,2022-07-06_09h39.11.015,Colour_Asymmetry_Pilot,2022.1.3,Win32,59.91970759,62c50e9c1127f2cd403a315f,,,,,,,,,,,,,,,,,,,,,,,,,,,,,,,,,,,,,,,,,,,,,,,,,,,,,,,,,,,,,,,,,,,,,,,,,,,,,,,,,,,,,,,,,,,,,,,,,,,,,,,,,,,,,,,,,,,,,,,,,,,,,,,,,,,,,,,,,,,,,,,,,,,,,,,,,,,,,,,,,,,,
0,38,38,68,1,,5fb015142942a535524f55fc,62c53a6cc6e828eebd792f39,2022-07-06_09h39.11.015,Colour_Asymmetry_Pilot,2022.1.3,Win32,59.91970759,62c50e9c1127f2cd403a315f,,,,,,,,,,,,,,,,,,,,,,,,,,,,,,,,,,,,,,,,,,,,,,,,,,,,,,,,,,,,,,,,,,,,,,,,,,,,,,,,,,,,,,,,,,,,,,,,,,,,,,,,,,,,,,,,,,,,,,,,,,,,,,,,,,,,,,,,,,,,,,,,,,,,,,,,,,,,,,,,,,,,
0,39,39,39,1,,5fb015142942a535524f55fc,62c53a6cc6e828eebd792f39,2022-07-06_09h39.11.015,Colour_Asymmetry_Pilot,2022.1.3,Win32,59.91970759,62c50e9c1127f2cd403a315f,,,,,,,,,,,,,,,,,,,,,,,,,,,,,,,,,,,,,,,,,,,,,,,,,,,,,,,,,,,,,,,,,,,,,,,,,,,,,,,,,,,,,,,,,,,,,,,,,,,,,,,,,,,,,,,,,,,,,,,,,,,,,,,,,,,,,,,,,,,,,,,,,,,,,,,,,,,,,,,,,,,,
0,40,40,88,1,,5fb015142942a535524f55fc,62c53a6cc6e828eebd792f39,2022-07-06_09h39.11.015,Colour_Asymmetry_Pilot,2022.1.3,Win32,59.91970759,62c50e9c1127f2cd403a315f,,,,,,,,,,,,,,,,,,,,,,,,,,,,,,,,,,,,,,,,,,,,,,,,,,,,,,,,,,,,,,,,,,,,,,,,,,,,,,,,,,,,,,,,,,,,,,,,,,,,,,,,,,,,,,,,,,,,,,,,,,,,,,,,,,,,,,,,,,,,,,,,,,,,,,,,,,,,,,,,,,,,
0,41,41,91,1,,5fb015142942a535524f55fc,62c53a6cc6e828eebd792f39,2022-07-06_09h39.11.015,Colour_Asymmetry_Pilot,2022.1.3,Win32,59.91970759,62c50e9c1127f2cd403a315f,,,,,,,,,,,,,,,,,,,,,,,,,,,,,,,,,,,,,,,,,,,,,,,,,,,,,,,,,,,,,,,,,,,,,,,,,,,,,,,,,,,,,,,,,,,,,,,,,,,,,,,,,,,,,,,,,,,,,,,,,,,,,,,,,,,,,,,,,,,,,,,,,,,,,,,,,,,,,,,,,,,,
0,42,42,80,1,,5fb015142942a535524f55fc,62c53a6cc6e828eebd792f39,2022-07-06_09h39.11.015,Colour_Asymmetry_Pilot,2022.1.3,Win32,59.91970759,62c50e9c1127f2cd403a315f,,,,,,,,,,,,,,,,,,,,,,,,,,,,,,,,,,,,,,,,,,,,,,,,,,,,,,,,,,,,,,,,,,,,,,,,,,,,,,,,,,,,,,,,,,,,,,,,,,,,,,,,,,,,,,,,,,,,,,,,,,,,,,,,,,,,,,,,,,,,,,,,,,,,,,,,,,,,,,,,,,,,
0,43,43,12,1,,5fb015142942a535524f55fc,62c53a6cc6e828eebd792f39,2022-07-06_09h39.11.015,Colour_Asymmetry_Pilot,2022.1.3,Win32,59.91970759,62c50e9c1127f2cd403a315f,,,,,,,,,,,,,,,,,,,,,,,,,,,,,,,,,,,,,,,,,,,,,,,,,,,,,,,,,,,,,,,,,,,,,,,,,,,,,,,,,,,,,,,,,,,,,,,,,,,,,,,,,,,,,,,,,,,,,,,,,,,,,,,,,,,,,,,,,,,,,,,,,,,,,,,,,,,,,,,,,,,,
0,44,44,7,1,,5fb015142942a535524f55fc,62c53a6cc6e828eebd792f39,2022-07-06_09h39.11.015,Colour_Asymmetry_Pilot,2022.1.3,Win32,59.91970759,62c50e9c1127f2cd403a315f,,,,,,,,,,,,,,,,,,,,,,,,,,,,,,,,,,,,,,,,,,,,,,,,,,,,,,,,,,,,,,,,,,,,,,,,,,,,,,,,,,,,,,,,,,,,,,,,,,,,,,,,,,,,,,,,,,,,,,,,,,,,,,,,,,,,,,,,,,,,,,,,,,,,,,,,,,,,,,,,,,,,
0,45,45,78,1,,5fb015142942a535524f55fc,62c53a6cc6e828eebd792f39,2022-07-06_09h39.11.015,Colour_Asymmetry_Pilot,2022.1.3,Win32,59.91970759,62c50e9c1127f2cd403a315f,,,,,,,,,,,,,,,,,,,,,,,,,,,,,,,,,,,,,,,,,,,,,,,,,,,,,,,,,,,,,,,,,,,,,,,,,,,,,,,,,,,,,,,,,,,,,,,,,,,,,,,,,,,,,,,,,,,,,,,,,,,,,,,,,,,,,,,,,,,,,,,,,,,,,,,,,,,,,,,,,,,,
0,46,46,47,1,,5fb015142942a535524f55fc,62c53a6cc6e828eebd792f39,2022-07-06_09h39.11.015,Colour_Asymmetry_Pilot,2022.1.3,Win32,59.91970759,62c50e9c1127f2cd403a315f,,,,,,,,,,,,,,,,,,,,,,,,,,,,,,,,,,,,,,,,,,,,,,,,,,,,,,,,,,,,,,,,,,,,,,,,,,,,,,,,,,,,,,,,,,,,,,,,,,,,,,,,,,,,,,,,,,,,,,,,,,,,,,,,,,,,,,,,,,,,,,,,,,,,,,,,,,,,,,,,,,,,
0,47,47,50,1,,5fb015142942a535524f55fc,62c53a6cc6e828eebd792f39,2022-07-06_09h39.11.015,Colour_Asymmetry_Pilot,2022.1.3,Win32,59.91970759,62c50e9c1127f2cd403a315f,,,,,,,,,,,,,,,,,,,,,,,,,,,,,,,,,,,,,,,,,,,,,,,,,,,,,,,,,,,,,,,,,,,,,,,,,,,,,,,,,,,,,,,,,,,,,,,,,,,,,,,,,,,,,,,,,,,,,,,,,,,,,,,,,,,,,,,,,,,,,,,,,,,,,,,,,,,,,,,,,,,,
0,48,48,17,1,,5fb015142942a535524f55fc,62c53a6cc6e828eebd792f39,2022-07-06_09h39.11.015,Colour_Asymmetry_Pilot,2022.1.3,Win32,59.91970759,62c50e9c1127f2cd403a315f,,,,,,,,,,,,,,,,,,,,,,,,,,,,,,,,,,,,,,,,,,,,,,,,,,,,,,,,,,,,,,,,,,,,,,,,,,,,,,,,,,,,,,,,,,,,,,,,,,,,,,,,,,,,,,,,,,,,,,,,,,,,,,,,,,,,,,,,,,,,,,,,,,,,,,,,,,,,,,,,,,,,
0,49,49,34,1,,5fb015142942a535524f55fc,62c53a6cc6e828eebd792f39,2022-07-06_09h39.11.015,Colour_Asymmetry_Pilot,2022.1.3,Win32,59.91970759,62c50e9c1127f2cd403a315f,,,,,,,,,,,,,,,,,,,,,,,,,,,,,,,,,,,,,,,,,,,,,,,,,,,,,,,,,,,,,,,,,,,,,,,,,,,,,,,,,,,,,,,,,,,,,,,,,,,,,,,,,,,,,,,,,,,,,,,,,,,,,,,,,,,,,,,,,,,,,,,,,,,,,,,,,,,,,,,,,,,,
0,50,50,72,1,,5fb015142942a535524f55fc,62c53a6cc6e828eebd792f39,2022-07-06_09h39.11.015,Colour_Asymmetry_Pilot,2022.1.3,Win32,59.91970759,62c50e9c1127f2cd403a315f,,,,,,,,,,,,,,,,,,,,,,,,,,,,,,,,,,,,,,,,,,,,,,,,,,,,,,,,,,,,,,,,,,,,,,,,,,,,,,,,,,,,,,,,,,,,,,,,,,,,,,,,,,,,,,,,,,,,,,,,,,,,,,,,,,,,,,,,,,,,,,,,,,,,,,,,,,,,,,,,,,,,
0,51,51,53,1,,5fb015142942a535524f55fc,62c53a6cc6e828eebd792f39,2022-07-06_09h39.11.015,Colour_Asymmetry_Pilot,2022.1.3,Win32,59.91970759,62c50e9c1127f2cd403a315f,,,,,,,,,,,,,,,,,,,,,,,,,,,,,,,,,,,,,,,,,,,,,,,,,,,,,,,,,,,,,,,,,,,,,,,,,,,,,,,,,,,,,,,,,,,,,,,,,,,,,,,,,,,,,,,,,,,,,,,,,,,,,,,,,,,,,,,,,,,,,,,,,,,,,,,,,,,,,,,,,,,,
0,52,52,28,1,,5fb015142942a535524f55fc,62c53a6cc6e828eebd792f39,2022-07-06_09h39.11.015,Colour_Asymmetry_Pilot,2022.1.3,Win32,59.91970759,62c50e9c1127f2cd403a315f,,,,,,,,,,,,,,,,,,,,,,,,,,,,,,,,,,,,,,,,,,,,,,,,,,,,,,,,,,,,,,,,,,,,,,,,,,,,,,,,,,,,,,,,,,,,,,,,,,,,,,,,,,,,,,,,,,,,,,,,,,,,,,,,,,,,,,,,,,,,,,,,,,,,,,,,,,,,,,,,,,,,
0,53,53,14,1,,5fb015142942a535524f55fc,62c53a6cc6e828eebd792f39,2022-07-06_09h39.11.015,Colour_Asymmetry_Pilot,2022.1.3,Win32,59.91970759,62c50e9c1127f2cd403a315f,,,,,,,,,,,,,,,,,,,,,,,,,,,,,,,,,,,,,,,,,,,,,,,,,,,,,,,,,,,,,,,,,,,,,,,,,,,,,,,,,,,,,,,,,,,,,,,,,,,,,,,,,,,,,,,,,,,,,,,,,,,,,,,,,,,,,,,,,,,,,,,,,,,,,,,,,,,,,,,,,,,,
0,54,54,82,1,,5fb015142942a535524f55fc,62c53a6cc6e828eebd792f39,2022-07-06_09h39.11.015,Colour_Asymmetry_Pilot,2022.1.3,Win32,59.91970759,62c50e9c1127f2cd403a315f,,,,,,,,,,,,,,,,,,,,,,,,,,,,,,,,,,,,,,,,,,,,,,,,,,,,,,,,,,,,,,,,,,,,,,,,,,,,,,,,,,,,,,,,,,,,,,,,,,,,,,,,,,,,,,,,,,,,,,,,,,,,,,,,,,,,,,,,,,,,,,,,,,,,,,,,,,,,,,,,,,,,
0,55,55,5,1,,5fb015142942a535524f55fc,62c53a6cc6e828eebd792f39,2022-07-06_09h39.11.015,Colour_Asymmetry_Pilot,2022.1.3,Win32,59.91970759,62c50e9c1127f2cd403a315f,,,,,,,,,,,,,,,,,,,,,,,,,,,,,,,,,,,,,,,,,,,,,,,,,,,,,,,,,,,,,,,,,,,,,,,,,,,,,,,,,,,,,,,,,,,,,,,,,,,,,,,,,,,,,,,,,,,,,,,,,,,,,,,,,,,,,,,,,,,,,,,,,,,,,,,,,,,,,,,,,,,,
0,56,56,37,1,,5fb015142942a535524f55fc,62c53a6cc6e828eebd792f39,2022-07-06_09h39.11.015,Colour_Asymmetry_Pilot,2022.1.3,Win32,59.91970759,62c50e9c1127f2cd403a315f,,,,,,,,,,,,,,,,,,,,,,,,,,,,,,,,,,,,,,,,,,,,,,,,,,,,,,,,,,,,,,,,,,,,,,,,,,,,,,,,,,,,,,,,,,,,,,,,,,,,,,,,,,,,,,,,,,,,,,,,,,,,,,,,,,,,,,,,,,,,,,,,,,,,,,,,,,,,,,,,,,,,
0,57,57,71,1,,5fb015142942a535524f55fc,62c53a6cc6e828eebd792f39,2022-07-06_09h39.11.015,Colour_Asymmetry_Pilot,2022.1.3,Win32,59.91970759,62c50e9c1127f2cd403a315f,,,,,,,,,,,,,,,,,,,,,,,,,,,,,,,,,,,,,,,,,,,,,,,,,,,,,,,,,,,,,,,,,,,,,,,,,,,,,,,,,,,,,,,,,,,,,,,,,,,,,,,,,,,,,,,,,,,,,,,,,,,,,,,,,,,,,,,,,,,,,,,,,,,,,,,,,,,,,,,,,,,,
0,58,58,33,1,,5fb015142942a535524f55fc,62c53a6cc6e828eebd792f39,2022-07-06_09h39.11.015,Colour_Asymmetry_Pilot,2022.1.3,Win32,59.91970759,62c50e9c1127f2cd403a315f,,,,,,,,,,,,,,,,,,,,,,,,,,,,,,,,,,,,,,,,,,,,,,,,,,,,,,,,,,,,,,,,,,,,,,,,,,,,,,,,,,,,,,,,,,,,,,,,,,,,,,,,,,,,,,,,,,,,,,,,,,,,,,,,,,,,,,,,,,,,,,,,,,,,,,,,,,,,,,,,,,,,
0,59,59,15,1,,5fb015142942a535524f55fc,62c53a6cc6e828eebd792f39,2022-07-06_09h39.11.015,Colour_Asymmetry_Pilot,2022.1.3,Win32,59.91970759,62c50e9c1127f2cd403a315f,,,,,,,,,,,,,,,,,,,,,,,,,,,,,,,,,,,,,,,,,,,,,,,,,,,,,,,,,,,,,,,,,,,,,,,,,,,,,,,,,,,,,,,,,,,,,,,,,,,,,,,,,,,,,,,,,,,,,,,,,,,,,,,,,,,,,,,,,,,,,,,,,,,,,,,,,,,,,,,,,,,,
0,60,60,59,1,,5fb015142942a535524f55fc,62c53a6cc6e828eebd792f39,2022-07-06_09h39.11.015,Colour_Asymmetry_Pilot,2022.1.3,Win32,59.91970759,62c50e9c1127f2cd403a315f,,,,,,,,,,,,,,,,,,,,,,,,,,,,,,,,,,,,,,,,,,,,,,,,,,,,,,,,,,,,,,,,,,,,,,,,,,,,,,,,,,,,,,,,,,,,,,,,,,,,,,,,,,,,,,,,,,,,,,,,,,,,,,,,,,,,,,,,,,,,,,,,,,,,,,,,,,,,,,,,,,,,
0,61,61,45,1,,5fb015142942a535524f55fc,62c53a6cc6e828eebd792f39,2022-07-06_09h39.11.015,Colour_Asymmetry_Pilot,2022.1.3,Win32,59.91970759,62c50e9c1127f2cd403a315f,,,,,,,,,,,,,,,,,,,,,,,,,,,,,,,,,,,,,,,,,,,,,,,,,,,,,,,,,,,,,,,,,,,,,,,,,,,,,,,,,,,,,,,,,,,,,,,,,,,,,,,,,,,,,,,,,,,,,,,,,,,,,,,,,,,,,,,,,,,,,,,,,,,,,,,,,,,,,,,,,,,,
0,62,62,48,1,,5fb015142942a535524f55fc,62c53a6cc6e828eebd792f39,2022-07-06_09h39.11.015,Colour_Asymmetry_Pilot,2022.1.3,Win32,59.91970759,62c50e9c1127f2cd403a315f,,,,,,,,,,,,,,,,,,,,,,,,,,,,,,,,,,,,,,,,,,,,,,,,,,,,,,,,,,,,,,,,,,,,,,,,,,,,,,,,,,,,,,,,,,,,,,,,,,,,,,,,,,,,,,,,,,,,,,,,,,,,,,,,,,,,,,,,,,,,,,,,,,,,,,,,,,,,,,,,,,,,
0,63,63,21,1,,5fb015142942a535524f55fc,62c53a6cc6e828eebd792f39,2022-07-06_09h39.11.015,Colour_Asymmetry_Pilot,2022.1.3,Win32,59.91970759,62c50e9c1127f2cd403a315f,,,,,,,,,,,,,,,,,,,,,,,,,,,,,,,,,,,,,,,,,,,,,,,,,,,,,,,,,,,,,,,,,,,,,,,,,,,,,,,,,,,,,,,,,,,,,,,,,,,,,,,,,,,,,,,,,,,,,,,,,,,,,,,,,,,,,,,,,,,,,,,,,,,,,,,,,,,,,,,,,,,,
0,64,64,55,1,,5fb015142942a535524f55fc,62c53a6cc6e828eebd792f39,2022-07-06_09h39.11.015,Colour_Asymmetry_Pilot,2022.1.3,Win32,59.91970759,62c50e9c1127f2cd403a315f,,,,,,,,,,,,,,,,,,,,,,,,,,,,,,,,,,,,,,,,,,,,,,,,,,,,,,,,,,,,,,,,,,,,,,,,,,,,,,,,,,,,,,,,,,,,,,,,,,,,,,,,,,,,,,,,,,,,,,,,,,,,,,,,,,,,,,,,,,,,,,,,,,,,,,,,,,,,,,,,,,,,
0,65,65,42,1,,5fb015142942a535524f55fc,62c53a6cc6e828eebd792f39,2022-07-06_09h39.11.015,Colour_Asymmetry_Pilot,2022.1.3,Win32,59.91970759,62c50e9c1127f2cd403a315f,,,,,,,,,,,,,,,,,,,,,,,,,,,,,,,,,,,,,,,,,,,,,,,,,,,,,,,,,,,,,,,,,,,,,,,,,,,,,,,,,,,,,,,,,,,,,,,,,,,,,,,,,,,,,,,,,,,,,,,,,,,,,,,,,,,,,,,,,,,,,,,,,,,,,,,,,,,,,,,,,,,,
0,66,66,81,1,,5fb015142942a535524f55fc,62c53a6cc6e828eebd792f39,2022-07-06_09h39.11.015,Colour_Asymmetry_Pilot,2022.1.3,Win32,59.91970759,62c50e9c1127f2cd403a315f,,,,,,,,,,,,,,,,,,,,,,,,,,,,,,,,,,,,,,,,,,,,,,,,,,,,,,,,,,,,,,,,,,,,,,,,,,,,,,,,,,,,,,,,,,,,,,,,,,,,,,,,,,,,,,,,,,,,,,,,,,,,,,,,,,,,,,,,,,,,,,,,,,,,,,,,,,,,,,,,,,,,
0,67,67,35,1,,5fb015142942a535524f55fc,62c53a6cc6e828eebd792f39,2022-07-06_09h39.11.015,Colour_Asymmetry_Pilot,2022.1.3,Win32,59.91970759,62c50e9c1127f2cd403a315f,,,,,,,,,,,,,,,,,,,,,,,,,,,,,,,,,,,,,,,,,,,,,,,,,,,,,,,,,,,,,,,,,,,,,,,,,,,,,,,,,,,,,,,,,,,,,,,,,,,,,,,,,,,,,,,,,,,,,,,,,,,,,,,,,,,,,,,,,,,,,,,,,,,,,,,,,,,,,,,,,,,,
0,68,68,77,1,,5fb015142942a535524f55fc,62c53a6cc6e828eebd792f39,2022-07-06_09h39.11.015,Colour_Asymmetry_Pilot,2022.1.3,Win32,59.91970759,62c50e9c1127f2cd403a315f,,,,,,,,,,,,,,,,,,,,,,,,,,,,,,,,,,,,,,,,,,,,,,,,,,,,,,,,,,,,,,,,,,,,,,,,,,,,,,,,,,,,,,,,,,,,,,,,,,,,,,,,,,,,,,,,,,,,,,,,,,,,,,,,,,,,,,,,,,,,,,,,,,,,,,,,,,,,,,,,,,,,
0,69,69,18,1,,5fb015142942a535524f55fc,62c53a6cc6e828eebd792f39,2022-07-06_09h39.11.015,Colour_Asymmetry_Pilot,2022.1.3,Win32,59.91970759,62c50e9c1127f2cd403a315f,,,,,,,,,,,,,,,,,,,,,,,,,,,,,,,,,,,,,,,,,,,,,,,,,,,,,,,,,,,,,,,,,,,,,,,,,,,,,,,,,,,,,,,,,,,,,,,,,,,,,,,,,,,,,,,,,,,,,,,,,,,,,,,,,,,,,,,,,,,,,,,,,,,,,,,,,,,,,,,,,,,,
0,70,70,23,1,,5fb015142942a535524f55fc,62c53a6cc6e828eebd792f39,2022-07-06_09h39.11.015,Colour_Asymmetry_Pilot,2022.1.3,Win32,59.91970759,62c50e9c1127f2cd403a315f,,,,,,,,,,,,,,,,,,,,,,,,,,,,,,,,,,,,,,,,,,,,,,,,,,,,,,,,,,,,,,,,,,,,,,,,,,,,,,,,,,,,,,,,,,,,,,,,,,,,,,,,,,,,,,,,,,,,,,,,,,,,,,,,,,,,,,,,,,,,,,,,,,,,,,,,,,,,,,,,,,,,
0,71,71,46,1,,5fb015142942a535524f55fc,62c53a6cc6e828eebd792f39,2022-07-06_09h39.11.015,Colour_Asymmetry_Pilot,2022.1.3,Win32,59.91970759,62c50e9c1127f2cd403a315f,,,,,,,,,,,,,,,,,,,,,,,,,,,,,,,,,,,,,,,,,,,,,,,,,,,,,,,,,,,,,,,,,,,,,,,,,,,,,,,,,,,,,,,,,,,,,,,,,,,,,,,,,,,,,,,,,,,,,,,,,,,,,,,,,,,,,,,,,,,,,,,,,,,,,,,,,,,,,,,,,,,,
0,72,72,65,1,,5fb015142942a535524f55fc,62c53a6cc6e828eebd792f39,2022-07-06_09h39.11.015,Colour_Asymmetry_Pilot,2022.1.3,Win32,59.91970759,62c50e9c1127f2cd403a315f,,,,,,,,,,,,,,,,,,,,,,,,,,,,,,,,,,,,,,,,,,,,,,,,,,,,,,,,,,,,,,,,,,,,,,,,,,,,,,,,,,,,,,,,,,,,,,,,,,,,,,,,,,,,,,,,,,,,,,,,,,,,,,,,,,,,,,,,,,,,,,,,,,,,,,,,,,,,,,,,,,,,
0,73,73,1,1,,5fb015142942a535524f55fc,62c53a6cc6e828eebd792f39,2022-07-06_09h39.11.015,Colour_Asymmetry_Pilot,2022.1.3,Win32,59.91970759,62c50e9c1127f2cd403a315f,,,,,,,,,,,,,,,,,,,,,,,,,,,,,,,,,,,,,,,,,,,,,,,,,,,,,,,,,,,,,,,,,,,,,,,,,,,,,,,,,,,,,,,,,,,,,,,,,,,,,,,,,,,,,,,,,,,,,,,,,,,,,,,,,,,,,,,,,,,,,,,,,,,,,,,,,,,,,,,,,,,,
0,74,74,83,1,,5fb015142942a535524f55fc,62c53a6cc6e828eebd792f39,2022-07-06_09h39.11.015,Colour_Asymmetry_Pilot,2022.1.3,Win32,59.91970759,62c50e9c1127f2cd403a315f,,,,,,,,,,,,,,,,,,,,,,,,,,,,,,,,,,,,,,,,,,,,,,,,,,,,,,,,,,,,,,,,,,,,,,,,,,,,,,,,,,,,,,,,,,,,,,,,,,,,,,,,,,,,,,,,,,,,,,,,,,,,,,,,,,,,,,,,,,,,,,,,,,,,,,,,,,,,,,,,,,,,
0,75,75,27,1,,5fb015142942a535524f55fc,62c53a6cc6e828eebd792f39,2022-07-06_09h39.11.015,Colour_Asymmetry_Pilot,2022.1.3,Win32,59.91970759,62c50e9c1127f2cd403a315f,,,,,,,,,,,,,,,,,,,,,,,,,,,,,,,,,,,,,,,,,,,,,,,,,,,,,,,,,,,,,,,,,,,,,,,,,,,,,,,,,,,,,,,,,,,,,,,,,,,,,,,,,,,,,,,,,,,,,,,,,,,,,,,,,,,,,,,,,,,,,,,,,,,,,,,,,,,,,,,,,,,,
0,76,76,24,1,,5fb015142942a535524f55fc,62c53a6cc6e828eebd792f39,2022-07-06_09h39.11.015,Colour_Asymmetry_Pilot,2022.1.3,Win32,59.91970759,62c50e9c1127f2cd403a315f,,,,,,,,,,,,,,,,,,,,,,,,,,,,,,,,,,,,,,,,,,,,,,,,,,,,,,,,,,,,,,,,,,,,,,,,,,,,,,,,,,,,,,,,,,,,,,,,,,,,,,,,,,,,,,,,,,,,,,,,,,,,,,,,,,,,,,,,,,,,,,,,,,,,,,,,,,,,,,,,,,,,
0,77,77,76,1,,5fb015142942a535524f55fc,62c53a6cc6e828eebd792f39,2022-07-06_09h39.11.015,Colour_Asymmetry_Pilot,2022.1.3,Win32,59.91970759,62c50e9c1127f2cd403a315f,,,,,,,,,,,,,,,,,,,,,,,,,,,,,,,,,,,,,,,,,,,,,,,,,,,,,,,,,,,,,,,,,,,,,,,,,,,,,,,,,,,,,,,,,,,,,,,,,,,,,,,,,,,,,,,,,,,,,,,,,,,,,,,,,,,,,,,,,,,,,,,,,,,,,,,,,,,,,,,,,,,,
0,78,78,40,1,,5fb015142942a535524f55fc,62c53a6cc6e828eebd792f39,2022-07-06_09h39.11.015,Colour_Asymmetry_Pilot,2022.1.3,Win32,59.91970759,62c50e9c1127f2cd403a315f,,,,,,,,,,,,,,,,,,,,,,,,,,,,,,,,,,,,,,,,,,,,,,,,,,,,,,,,,,,,,,,,,,,,,,,,,,,,,,,,,,,,,,,,,,,,,,,,,,,,,,,,,,,,,,,,,,,,,,,,,,,,,,,,,,,,,,,,,,,,,,,,,,,,,,,,,,,,,,,,,,,,
0,79,79,4,1,,5fb015142942a535524f55fc,62c53a6cc6e828eebd792f39,2022-07-06_09h39.11.015,Colour_Asymmetry_Pilot,2022.1.3,Win32,59.91970759,62c50e9c1127f2cd403a315f,,,,,,,,,,,,,,,,,,,,,,,,,,,,,,,,,,,,,,,,,,,,,,,,,,,,,,,,,,,,,,,,,,,,,,,,,,,,,,,,,,,,,,,,,,,,,,,,,,,,,,,,,,,,,,,,,,,,,,,,,,,,,,,,,,,,,,,,,,,,,,,,,,,,,,,,,,,,,,,,,,,,
0,80,80,85,1,,5fb015142942a535524f55fc,62c53a6cc6e828eebd792f39,2022-07-06_09h39.11.015,Colour_Asymmetry_Pilot,2022.1.3,Win32,59.91970759,62c50e9c1127f2cd403a315f,,,,,,,,,,,,,,,,,,,,,,,,,,,,,,,,,,,,,,,,,,,,,,,,,,,,,,,,,,,,,,,,,,,,,,,,,,,,,,,,,,,,,,,,,,,,,,,,,,,,,,,,,,,,,,,,,,,,,,,,,,,,,,,,,,,,,,,,,,,,,,,,,,,,,,,,,,,,,,,,,,,,
0,81,81,84,1,,5fb015142942a535524f55fc,62c53a6cc6e828eebd792f39,2022-07-06_09h39.11.015,Colour_Asymmetry_Pilot,2022.1.3,Win32,59.91970759,62c50e9c1127f2cd403a315f,,,,,,,,,,,,,,,,,,,,,,,,,,,,,,,,,,,,,,,,,,,,,,,,,,,,,,,,,,,,,,,,,,,,,,,,,,,,,,,,,,,,,,,,,,,,,,,,,,,,,,,,,,,,,,,,,,,,,,,,,,,,,,,,,,,,,,,,,,,,,,,,,,,,,,,,,,,,,,,,,,,,
0,82,82,56,1,,5fb015142942a535524f55fc,62c53a6cc6e828eebd792f39,2022-07-06_09h39.11.015,Colour_Asymmetry_Pilot,2022.1.3,Win32,59.91970759,62c50e9c1127f2cd403a315f,,,,,,,,,,,,,,,,,,,,,,,,,,,,,,,,,,,,,,,,,,,,,,,,,,,,,,,,,,,,,,,,,,,,,,,,,,,,,,,,,,,,,,,,,,,,,,,,,,,,,,,,,,,,,,,,,,,,,,,,,,,,,,,,,,,,,,,,,,,,,,,,,,,,,,,,,,,,,,,,,,,,
0,83,83,44,1,,5fb015142942a535524f55fc,62c53a6cc6e828eebd792f39,2022-07-06_09h39.11.015,Colour_Asymmetry_Pilot,2022.1.3,Win32,59.91970759,62c50e9c1127f2cd403a315f,,,,,,,,,,,,,,,,,,,,,,,,,,,,,,,,,,,,,,,,,,,,,,,,,,,,,,,,,,,,,,,,,,,,,,,,,,,,,,,,,,,,,,,,,,,,,,,,,,,,,,,,,,,,,,,,,,,,,,,,,,,,,,,,,,,,,,,,,,,,,,,,,,,,,,,,,,,,,,,,,,,,
0,84,84,73,1,,5fb015142942a535524f55fc,62c53a6cc6e828eebd792f39,2022-07-06_09h39.11.015,Colour_Asymmetry_Pilot,2022.1.3,Win32,59.91970759,62c50e9c1127f2cd403a315f,,,,,,,,,,,,,,,,,,,,,,,,,,,,,,,,,,,,,,,,,,,,,,,,,,,,,,,,,,,,,,,,,,,,,,,,,,,,,,,,,,,,,,,,,,,,,,,,,,,,,,,,,,,,,,,,,,,,,,,,,,,,,,,,,,,,,,,,,,,,,,,,,,,,,,,,,,,,,,,,,,,,
0,85,85,90,1,,5fb015142942a535524f55fc,62c53a6cc6e828eebd792f39,2022-07-06_09h39.11.015,Colour_Asymmetry_Pilot,2022.1.3,Win32,59.91970759,62c50e9c1127f2cd403a315f,,,,,,,,,,,,,,,,,,,,,,,,,,,,,,,,,,,,,,,,,,,,,,,,,,,,,,,,,,,,,,,,,,,,,,,,,,,,,,,,,,,,,,,,,,,,,,,,,,,,,,,,,,,,,,,,,,,,,,,,,,,,,,,,,,,,,,,,,,,,,,,,,,,,,,,,,,,,,,,,,,,,
0,86,86,74,1,,5fb015142942a535524f55fc,62c53a6cc6e828eebd792f39,2022-07-06_09h39.11.015,Colour_Asymmetry_Pilot,2022.1.3,Win32,59.91970759,62c50e9c1127f2cd403a315f,,,,,,,,,,,,,,,,,,,,,,,,,,,,,,,,,,,,,,,,,,,,,,,,,,,,,,,,,,,,,,,,,,,,,,,,,,,,,,,,,,,,,,,,,,,,,,,,,,,,,,,,,,,,,,,,,,,,,,,,,,,,,,,,,,,,,,,,,,,,,,,,,,,,,,,,,,,,,,,,,,,,
0,87,87,75,1,,5fb015142942a535524f55fc,62c53a6cc6e828eebd792f39,2022-07-06_09h39.11.015,Colour_Asymmetry_Pilot,2022.1.3,Win32,59.91970759,62c50e9c1127f2cd403a315f,,,,,,,,,,,,,,,,,,,,,,,,,,,,,,,,,,,,,,,,,,,,,,,,,,,,,,,,,,,,,,,,,,,,,,,,,,,,,,,,,,,,,,,,,,,,,,,,,,,,,,,,,,,,,,,,,,,,,,,,,,,,,,,,,,,,,,,,,,,,,,,,,,,,,,,,,,,,,,,,,,,,
0,88,88,57,1,,5fb015142942a535524f55fc,62c53a6cc6e828eebd792f39,2022-07-06_09h39.11.015,Colour_Asymmetry_Pilot,2022.1.3,Win32,59.91970759,62c50e9c1127f2cd403a315f,,,,,,,,,,,,,,,,,,,,,,,,,,,,,,,,,,,,,,,,,,,,,,,,,,,,,,,,,,,,,,,,,,,,,,,,,,,,,,,,,,,,,,,,,,,,,,,,,,,,,,,,,,,,,,,,,,,,,,,,,,,,,,,,,,,,,,,,,,,,,,,,,,,,,,,,,,,,,,,,,,,,
0,89,89,92,1,,5fb015142942a535524f55fc,62c53a6cc6e828eebd792f39,2022-07-06_09h39.11.015,Colour_Asymmetry_Pilot,2022.1.3,Win32,59.91970759,62c50e9c1127f2cd403a315f,,,,,,,,,,,,,,,,,,,,,,,,,,,,,,,,,,,,,,,,,,,,,,,,,,,,,,,,,,,,,,,,,,,,,,,,,,,,,,,,,,,,,,,,,,,,,,,,,,,,,,,,,,,,,,,,,,,,,,,,,,,,,,,,,,,,,,,,,,,,,,,,,,,,,,,,,,,,,,,,,,,,
0,90,90,22,1,,5fb015142942a535524f55fc,62c53a6cc6e828eebd792f39,2022-07-06_09h39.11.015,Colour_Asymmetry_Pilot,2022.1.3,Win32,59.91970759,62c50e9c1127f2cd403a315f,,,,,,,,,,,,,,,,,,,,,,,,,,,,,,,,,,,,,,,,,,,,,,,,,,,,,,,,,,,,,,,,,,,,,,,,,,,,,,,,,,,,,,,,,,,,,,,,,,,,,,,,,,,,,,,,,,,,,,,,,,,,,,,,,,,,,,,,,,,,,,,,,,,,,,,,,,,,,,,,,,,,
0,91,91,63,1,,5fb015142942a535524f55fc,62c53a6cc6e828eebd792f39,2022-07-06_09h39.11.015,Colour_Asymmetry_Pilot,2022.1.3,Win32,59.91970759,62c50e9c1127f2cd403a315f,,,,,,,,,,,,,,,,,,,,,,,,,,,,,,,,,,,,,,,,,,,,,,,,,,,,,,,,,,,,,,,,,,,,,,,,,,,,,,,,,,,,,,,,,,,,,,,,,,,,,,,,,,,,,,,,,,,,,,,,,,,,,,,,,,,,,,,,,,,,,,,,,,,,,,,,,,,,,,,,,,,,
0,92,92,20,1,,5fb015142942a535524f55fc,62c53a6cc6e828eebd792f39,2022-07-06_09h39.11.015,Colour_Asymmetry_Pilot,2022.1.3,Win32,59.91970759,62c50e9c1127f2cd403a315f,,,,,,,,,,,,,,,,,,,,,,,,,,,,,,,,,,,,,,,,,,,,,,,,,,,,,,,,,,,,,,,,,,,,,,,,,,,,,,,,,,,,,,,,,,,,,,,,,,,,,,,,,,,,,,,,,,,,,,,,,,,,,,,,,,,,,,,,,,,,,,,,,,,,,,,,,,,,,,,,,,,,
,,,,,,5fb015142942a535524f55fc,62c53a6cc6e828eebd792f39,2022-07-06_09h39.11.015,Colour_Asymmetry_Pilot,2022.1.3,Win32,59.91970759,62c50e9c1127f2cd403a315f,0,0,0,114,1,twoone,,,,,,,,,,,,,,,,,,,,,,,,,,,,,,,,,,,,,,,,,,,,,,,,,,,,,,,,,,,,,,,,,,,,,,,,,,,,,,,,,,,,,,,,,,,,,,,,,,,,,,,,,,,,,,,,,,,,,,,,,,,,,,,,,,,,,,,,,,,,,,,,,,,,,,,,,,,,,,
,,,,,,5fb015142942a535524f55fc,62c53a6cc6e828eebd792f39,2022-07-06_09h39.11.015,Colour_Asymmetry_Pilot,2022.1.3,Win32,59.91970759,62c50e9c1127f2cd403a315f,0,1,1,4,1,threeone,,,,,,,,,,,,,,,,,,,,,,,,,,,,,,,,,,,,,,,,,,,,,,,,,,,,,,,,,,,,,,,,,,,,,,,,,,,,,,,,,,,,,,,,,,,,,,,,,,,,,,,,,,,,,,,,,,,,,,,,,,,,,,,,,,,,,,,,,,,,,,,,,,,,,,,,,,,,,,
,,,,,,5fb015142942a535524f55fc,62c53a6cc6e828eebd792f39,2022-07-06_09h39.11.015,Colour_Asymmetry_Pilot,2022.1.3,Win32,59.91970759,62c50e9c1127f2cd403a315f,0,2,2,22,1,fourtwo,,,,,,,,,,,,,,,,,,,,,,,,,,,,,,,,,,,,,,,,,,,,,,,,,,,,,,,,,,,,,,,,,,,,,,,,,,,,,,,,,,,,,,,,,,,,,,,,,,,,,,,,,,,,,,,,,,,,,,,,,,,,,,,,,,,,,,,,,,,,,,,,,,,,,,,,,,,,,,
,,,,,,5fb015142942a535524f55fc,62c53a6cc6e828eebd792f39,2022-07-06_09h39.11.015,Colour_Asymmetry_Pilot,2022.1.3,Win32,59.91970759,62c50e9c1127f2cd403a315f,0,3,3,111,1,fourthree,,,,,,,,,,,,,,,,,,,,,,,,,,,,,,,,,,,,,,,,,,,,,,,,,,,,,,,,,,,,,,,,,,,,,,,,,,,,,,,,,,,,,,,,,,,,,,,,,,,,,,,,,,,,,,,,,,,,,,,,,,,,,,,,,,,,,,,,,,,,,,,,,,,,,,,,,,,,,,
,,,,,,5fb015142942a535524f55fc,62c53a6cc6e828eebd792f39,2022-07-06_09h39.11.015,Colour_Asymmetry_Pilot,2022.1.3,Win32,59.91970759,62c50e9c1127f2cd403a315f,0,4,4,67,1,twofour,,,,,,,,,,,,,,,,,,,,,,,,,,,,,,,,,,,,,,,,,,,,,,,,,,,,,,,,,,,,,,,,,,,,,,,,,,,,,,,,,,,,,,,,,,,,,,,,,,,,,,,,,,,,,,,,,,,,,,,,,,,,,,,,,,,,,,,,,,,,,,,,,,,,,,,,,,,,,,
,,,,,,5fb015142942a535524f55fc,62c53a6cc6e828eebd792f39,2022-07-06_09h39.11.015,Colour_Asymmetry_Pilot,2022.1.3,Win32,59.91970759,62c50e9c1127f2cd403a315f,0,5,5,8,1,onetwo,,,,,,,,,,,,,,,,,,,,,,,,,,,,,,,,,,,,,,,,,,,,,,,,,,,,,,,,,,,,,,,,,,,,,,,,,,,,,,,,,,,,,,,,,,,,,,,,,,,,,,,,,,,,,,,,,,,,,,,,,,,,,,,,,,,,,,,,,,,,,,,,,,,,,,,,,,,,,,
,,,,,,5fb015142942a535524f55fc,62c53a6cc6e828eebd792f39,2022-07-06_09h39.11.015,Colour_Asymmetry_Pilot,2022.1.3,Win32,59.91970759,62c50e9c1127f2cd403a315f,0,6,6,36,1,threeone,,,,,,,,,,,,,,,,,,,,,,,,,,,,,,,,,,,,,,,,,,,,,,,,,,,,,,,,,,,,,,,,,,,,,,,,,,,,,,,,,,,,,,,,,,,,,,,,,,,,,,,,,,,,,,,,,,,,,,,,,,,,,,,,,,,,,,,,,,,,,,,,,,,,,,,,,,,,,,
,,,,,,5fb015142942a535524f55fc,62c53a6cc6e828eebd792f39,2022-07-06_09h39.11.015,Colour_Asymmetry_Pilot,2022.1.3,Win32,59.91970759,62c50e9c1127f2cd403a315f,0,7,7,3,1,twofour,,,,,,,,,,,,,,,,,,,,,,,,,,,,,,,,,,,,,,,,,,,,,,,,,,,,,,,,,,,,,,,,,,,,,,,,,,,,,,,,,,,,,,,,,,,,,,,,,,,,,,,,,,,,,,,,,,,,,,,,,,,,,,,,,,,,,,,,,,,,,,,,,,,,,,,,,,,,,,
,,,,,,5fb015142942a535524f55fc,62c53a6cc6e828eebd792f39,2022-07-06_09h39.11.015,Colour_Asymmetry_Pilot,2022.1.3,Win32,59.91970759,62c50e9c1127f2cd403a315f,0,8,8,159,1,fourthree,,,,,,,,,,,,,,,,,,,,,,,,,,,,,,,,,,,,,,,,,,,,,,,,,,,,,,,,,,,,,,,,,,,,,,,,,,,,,,,,,,,,,,,,,,,,,,,,,,,,,,,,,,,,,,,,,,,,,,,,,,,,,,,,,,,,,,,,,,,,,,,,,,,,,,,,,,,,,,
,,,,,,5fb015142942a535524f55fc,62c53a6cc6e828eebd792f39,2022-07-06_09h39.11.015,Colour_Asymmetry_Pilot,2022.1.3,Win32,59.91970759,62c50e9c1127f2cd403a315f,0,9,9,84,1,threeone,,,,,,,,,,,,,,,,,,,,,,,,,,,,,,,,,,,,,,,,,,,,,,,,,,,,,,,,,,,,,,,,,,,,,,,,,,,,,,,,,,,,,,,,,,,,,,,,,,,,,,,,,,,,,,,,,,,,,,,,,,,,,,,,,,,,,,,,,,,,,,,,,,,,,,,,,,,,,,
,,,,,,5fb015142942a535524f55fc,62c53a6cc6e828eebd792f39,2022-07-06_09h39.11.015,Colour_Asymmetry_Pilot,2022.1.3,Win32,59.91970759,62c50e9c1127f2cd403a315f,0,10,10,62,1,fourtwo,,,,,,,,,,,,,,,,,,,,,,,,,,,,,,,,,,,,,,,,,,,,,,,,,,,,,,,,,,,,,,,,,,,,,,,,,,,,,,,,,,,,,,,,,,,,,,,,,,,,,,,,,,,,,,,,,,,,,,,,,,,,,,,,,,,,,,,,,,,,,,,,,,,,,,,,,,,,,,
,,,,,,5fb015142942a535524f55fc,62c53a6cc6e828eebd792f39,2022-07-06_09h39.11.015,Colour_Asymmetry_Pilot,2022.1.3,Win32,59.91970759,62c50e9c1127f2cd403a315f,0,11,11,158,1,fourtwo,,,,,,,,,,,,,,,,,,,,,,,,,,,,,,,,,,,,,,,,,,,,,,,,,,,,,,,,,,,,,,,,,,,,,,,,,,,,,,,,,,,,,,,,,,,,,,,,,,,,,,,,,,,,,,,,,,,,,,,,,,,,,,,,,,,,,,,,,,,,,,,,,,,,,,,,,,,,,,
,,,,,,5fb015142942a535524f55fc,62c53a6cc6e828eebd792f39,2022-07-06_09h39.11.015,Colour_Asymmetry_Pilot,2022.1.3,Win32,59.91970759,62c50e9c1127f2cd403a315f,0,12,12,16,1,onetwo,,,,,,,,,,,,,,,,,,,,,,,,,,,,,,,,,,,,,,,,,,,,,,,,,,,,,,,,,,,,,,,,,,,,,,,,,,,,,,,,,,,,,,,,,,,,,,,,,,,,,,,,,,,,,,,,,,,,,,,,,,,,,,,,,,,,,,,,,,,,,,,,,,,,,,,,,,,,,,
,,,,,,5fb015142942a535524f55fc,62c53a6cc6e828eebd792f39,2022-07-06_09h39.11.015,Colour_Asymmetry_Pilot,2022.1.3,Win32,59.91970759,62c50e9c1127f2cd403a315f,0,13,13,124,1,threeone,,,,,,,,,,,,,,,,,,,,,,,,,,,,,,,,,,,,,,,,,,,,,,,,,,,,,,,,,,,,,,,,,,,,,,,,,,,,,,,,,,,,,,,,,,,,,,,,,,,,,,,,,,,,,,,,,,,,,,,,,,,,,,,,,,,,,,,,,,,,,,,,,,,,,,,,,,,,,,
,,,,,,5fb015142942a535524f55fc,62c53a6cc6e828eebd792f39,2022-07-06_09h39.11.015,Colour_Asymmetry_Pilot,2022.1.3,Win32,59.91970759,62c50e9c1127f2cd403a315f,0,14,14,52,1,threeone,,,,,,,,,,,,,,,,,,,,,,,,,,,,,,,,,,,,,,,,,,,,,,,,,,,,,,,,,,,,,,,,,,,,,,,,,,,,,,,,,,,,,,,,,,,,,,,,,,,,,,,,,,,,,,,,,,,,,,,,,,,,,,,,,,,,,,,,,,,,,,,,,,,,,,,,,,,,,,
,,,,,,5fb015142942a535524f55fc,62c53a6cc6e828eebd792f39,2022-07-06_09h39.11.015,Colour_Asymmetry_Pilot,2022.1.3,Win32,59.91970759,62c50e9c1127f2cd403a315f,0,15,15,102,1,fourtwo,,,,,,,,,,,,,,,,,,,,,,,,,,,,,,,,,,,,,,,,,,,,,,,,,,,,,,,,,,,,,,,,,,,,,,,,,,,,,,,,,,,,,,,,,,,,,,,,,,,,,,,,,,,,,,,,,,,,,,,,,,,,,,,,,,,,,,,,,,,,,,,,,,,,,,,,,,,,,,
,,,,,,5fb015142942a535524f55fc,62c53a6cc6e828eebd792f39,2022-07-06_09h39.11.015,Colour_Asymmetry_Pilot,2022.1.3,Win32,59.91970759,62c50e9c1127f2cd403a315f,0,16,16,78,1,fourtwo,,,,,,,,,,,,,,,,,,,,,,,,,,,,,,,,,,,,,,,,,,,,,,,,,,,,,,,,,,,,,,,,,,,,,,,,,,,,,,,,,,,,,,,,,,,,,,,,,,,,,,,,,,,,,,,,,,,,,,,,,,,,,,,,,,,,,,,,,,,,,,,,,,,,,,,,,,,,,,
,,,,,,5fb015142942a535524f55fc,62c53a6cc6e828eebd792f39,2022-07-06_09h39.11.015,Colour_Asymmetry_Pilot,2022.1.3,Win32,59.91970759,62c50e9c1127f2cd403a315f,0,17,17,82,1,twoone,,,,,,,,,,,,,,,,,,,,,,,,,,,,,,,,,,,,,,,,,,,,,,,,,,,,,,,,,,,,,,,,,,,,,,,,,,,,,,,,,,,,,,,,,,,,,,,,,,,,,,,,,,,,,,,,,,,,,,,,,,,,,,,,,,,,,,,,,,,,,,,,,,,,,,,,,,,,,,
,,,,,,5fb015142942a535524f55fc,62c53a6cc6e828eebd792f39,2022-07-06_09h39.11.015,Colour_Asymmetry_Pilot,2022.1.3,Win32,59.91970759,62c50e9c1127f2cd403a315f,0,18,18,53,1,threefour,,,,,,,,,,,,,,,,,,,,,,,,,,,,,,,,,,,,,,,,,,,,,,,,,,,,,,,,,,,,,,,,,,,,,,,,,,,,,,,,,,,,,,,,,,,,,,,,,,,,,,,,,,,,,,,,,,,,,,,,,,,,,,,,,,,,,,,,,,,,,,,,,,,,,,,,,,,,,,
,,,,,,5fb015142942a535524f55fc,62c53a6cc6e828eebd792f39,2022-07-06_09h39.11.015,Colour_Asymmetry_Pilot,2022.1.3,Win32,59.91970759,62c50e9c1127f2cd403a315f,0,19,19,25,1,onethree,,,,,,,,,,,,,,,,,,,,,,,,,,,,,,,,,,,,,,,,,,,,,,,,,,,,,,,,,,,,,,,,,,,,,,,,,,,,,,,,,,,,,,,,,,,,,,,,,,,,,,,,,,,,,,,,,,,,,,,,,,,,,,,,,,,,,,,,,,,,,,,,,,,,,,,,,,,,,,
,,,,,,5fb015142942a535524f55fc,62c53a6cc6e828eebd792f39,2022-07-06_09h39.11.015,Colour_Asymmetry_Pilot,2022.1.3,Win32,59.91970759,62c50e9c1127f2cd403a315f,0,20,20,49,1,onethree,,,,,,,,,,,,,,,,,,,,,,,,,,,,,,,,,,,,,,,,,,,,,,,,,,,,,,,,,,,,,,,,,,,,,,,,,,,,,,,,,,,,,,,,,,,,,,,,,,,,,,,,,,,,,,,,,,,,,,,,,,,,,,,,,,,,,,,,,,,,,,,,,,,,,,,,,,,,,,
,,,,,,5fb015142942a535524f55fc,62c53a6cc6e828eebd792f39,2022-07-06_09h39.11.015,Colour_Asymmetry_Pilot,2022.1.3,Win32,59.91970759,62c50e9c1127f2cd403a315f,0,21,21,2,1,twoone,,,,,,,,,,,,,,,,,,,,,,,,,,,,,,,,,,,,,,,,,,,,,,,,,,,,,,,,,,,,,,,,,,,,,,,,,,,,,,,,,,,,,,,,,,,,,,,,,,,,,,,,,,,,,,,,,,,,,,,,,,,,,,,,,,,,,,,,,,,,,,,,,,,,,,,,,,,,,,
,,,,,,5fb015142942a535524f55fc,62c53a6cc6e828eebd792f39,2022-07-06_09h39.11.015,Colour_Asymmetry_Pilot,2022.1.3,Win32,59.91970759,62c50e9c1127f2cd403a315f,0,22,22,160,1,onetwo,,,,,,,,,,,,,,,,,,,,,,,,,,,,,,,,,,,,,,,,,,,,,,,,,,,,,,,,,,,,,,,,,,,,,,,,,,,,,,,,,,,,,,,,,,,,,,,,,,,,,,,,,,,,,,,,,,,,,,,,,,,,,,,,,,,,,,,,,,,,,,,,,,,,,,,,,,,,,,
,,,,,,5fb015142942a535524f55fc,62c53a6cc6e828eebd792f39,2022-07-06_09h39.11.015,Colour_Asymmetry_Pilot,2022.1.3,Win32,59.91970759,62c50e9c1127f2cd403a315f,0,23,23,5,1,threefour,,,,,,,,,,,,,,,,,,,,,,,,,,,,,,,,,,,,,,,,,,,,,,,,,,,,,,,,,,,,,,,,,,,,,,,,,,,,,,,,,,,,,,,,,,,,,,,,,,,,,,,,,,,,,,,,,,,,,,,,,,,,,,,,,,,,,,,,,,,,,,,,,,,,,,,,,,,,,,
,,,,,,5fb015142942a535524f55fc,62c53a6cc6e828eebd792f39,2022-07-06_09h39.11.015,Colour_Asymmetry_Pilot,2022.1.3,Win32,59.91970759,62c50e9c1127f2cd403a315f,0,24,24,38,1,fourtwo,,,,,,,,,,,,,,,,,,,,,,,,,,,,,,,,,,,,,,,,,,,,,,,,,,,,,,,,,,,,,,,,,,,,,,,,,,,,,,,,,,,,,,,,,,,,,,,,,,,,,,,,,,,,,,,,,,,,,,,,,,,,,,,,,,,,,,,,,,,,,,,,,,,,,,,,,,,,,,
,,,,,,5fb015142942a535524f55fc,62c53a6cc6e828eebd792f39,2022-07-06_09h39.11.015,Colour_Asymmetry_Pilot,2022.1.3,Win32,59.91970759,62c50e9c1127f2cd403a315f,0,25,25,146,1,twoone,,,,,,,,,,,,,,,,,,,,,,,,,,,,,,,,,,,,,,,,,,,,,,,,,,,,,,,,,,,,,,,,,,,,,,,,,,,,,,,,,,,,,,,,,,,,,,,,,,,,,,,,,,,,,,,,,,,,,,,,,,,,,,,,,,,,,,,,,,,,,,,,,,,,,,,,,,,,,,
,,,,,,5fb015142942a535524f55fc,62c53a6cc6e828eebd792f39,2022-07-06_09h39.11.015,Colour_Asymmetry_Pilot,2022.1.3,Win32,59.91970759,62c50e9c1127f2cd403a315f,0,26,26,137,1,onethree,,,,,,,,,,,,,,,,,,,,,,,,,,,,,,,,,,,,,,,,,,,,,,,,,,,,,,,,,,,,,,,,,,,,,,,,,,,,,,,,,,,,,,,,,,,,,,,,,,,,,,,,,,,,,,,,,,,,,,,,,,,,,,,,,,,,,,,,,,,,,,,,,,,,,,,,,,,,,,
,,,,,,5fb015142942a535524f55fc,62c53a6cc6e828eebd792f39,2022-07-06_09h39.11.015,Colour_Asymmetry_Pilot,2022.1.3,Win32,59.91970759,62c50e9c1127f2cd403a315f,0,27,27,86,1,fourtwo,,,,,,,,,,,,,,,,,,,,,,,,,,,,,,,,,,,,,,,,,,,,,,,,,,,,,,,,,,,,,,,,,,,,,,,,,,,,,,,,,,,,,,,,,,,,,,,,,,,,,,,,,,,,,,,,,,,,,,,,,,,,,,,,,,,,,,,,,,,,,,,,,,,,,,,,,,,,,,
,,,,,,5fb015142942a535524f55fc,62c53a6cc6e828eebd792f39,2022-07-06_09h39.11.015,Colour_Asymmetry_Pilot,2022.1.3,Win32,59.91970759,62c50e9c1127f2cd403a315f,0,28,28,43,1,twofour,,,,,,,,,,,,,,,,,,,,,,,,,,,,,,,,,,,,,,,,,,,,,,,,,,,,,,,,,,,,,,,,,,,,,,,,,,,,,,,,,,,,,,,,,,,,,,,,,,,,,,,,,,,,,,,,,,,,,,,,,,,,,,,,,,,,,,,,,,,,,,,,,,,,,,,,,,,,,,
,,,,,,5fb015142942a535524f55fc,62c53a6cc6e828eebd792f39,2022-07-06_09h39.11.015,Colour_Asymmetry_Pilot,2022.1.3,Win32,59.91970759,62c50e9c1127f2cd403a315f,0,29,29,134,1,fourtwo,,,,,,,,,,,,,,,,,,,,,,,,,,,,,,,,,,,,,,,,,,,,,,,,,,,,,,,,,,,,,,,,,,,,,,,,,,,,,,,,,,,,,,,,,,,,,,,,,,,,,,,,,,,,,,,,,,,,,,,,,,,,,,,,,,,,,,,,,,,,,,,,,,,,,,,,,,,,,,
,,,,,,5fb015142942a535524f55fc,62c53a6cc6e828eebd792f39,2022-07-06_09h39.11.015,Colour_Asymmetry_Pilot,2022.1.3,Win32,59.91970759,62c50e9c1127f2cd403a315f,0,30,30,127,1,fourthree,,,,,,,,,,,,,,,,,,,,,,,,,,,,,,,,,,,,,,,,,,,,,,,,,,,,,,,,,,,,,,,,,,,,,,,,,,,,,,,,,,,,,,,,,,,,,,,,,,,,,,,,,,,,,,,,,,,,,,,,,,,,,,,,,,,,,,,,,,,,,,,,,,,,,,,,,,,,,,
,,,,,,5fb015142942a535524f55fc,62c53a6cc6e828eebd792f39,2022-07-06_09h39.11.015,Colour_Asymmetry_Pilot,2022.1.3,Win32,59.91970759,62c50e9c1127f2cd403a315f,0,31,31,157,1,threefour,,,,,,,,,,,,,,,,,,,,,,,,,,,,,,,,,,,,,,,,,,,,,,,,,,,,,,,,,,,,,,,,,,,,,,,,,,,,,,,,,,,,,,,,,,,,,,,,,,,,,,,,,,,,,,,,,,,,,,,,,,,,,,,,,,,,,,,,,,,,,,,,,,,,,,,,,,,,,,
,,,,,,5fb015142942a535524f55fc,62c53a6cc6e828eebd792f39,2022-07-06_09h39.11.015,Colour_Asymmetry_Pilot,2022.1.3,Win32,59.91970759,62c50e9c1127f2cd403a315f,0,32,32,57,1,onethree,,,,,,,,,,,,,,,,,,,,,,,,,,,,,,,,,,,,,,,,,,,,,,,,,,,,,,,,,,,,,,,,,,,,,,,,,,,,,,,,,,,,,,,,,,,,,,,,,,,,,,,,,,,,,,,,,,,,,,,,,,,,,,,,,,,,,,,,,,,,,,,,,,,,,,,,,,,,,,
,,,,,,5fb015142942a535524f55fc,62c53a6cc6e828eebd792f39,2022-07-06_09h39.11.015,Colour_Asymmetry_Pilot,2022.1.3,Win32,59.91970759,62c50e9c1127f2cd403a315f,0,33,33,125,1,threefour,,,,,,,,,,,,,,,,,,,,,,,,,,,,,,,,,,,,,,,,,,,,,,,,,,,,,,,,,,,,,,,,,,,,,,,,,,,,,,,,,,,,,,,,,,,,,,,,,,,,,,,,,,,,,,,,,,,,,,,,,,,,,,,,,,,,,,,,,,,,,,,,,,,,,,,,,,,,,,
,,,,,,5fb015142942a535524f55fc,62c53a6cc6e828eebd792f39,2022-07-06_09h39.11.015,Colour_Asymmetry_Pilot,2022.1.3,Win32,59.91970759,62c50e9c1127f2cd403a315f,0,34,34,142,1,fourtwo,,,,,,,,,,,,,,,,,,,,,,,,,,,,,,,,,,,,,,,,,,,,,,,,,,,,,,,,,,,,,,,,,,,,,,,,,,,,,,,,,,,,,,,,,,,,,,,,,,,,,,,,,,,,,,,,,,,,,,,,,,,,,,,,,,,,,,,,,,,,,,,,,,,,,,,,,,,,,,
,,,,,,5fb015142942a535524f55fc,62c53a6cc6e828eebd792f39,2022-07-06_09h39.11.015,Colour_Asymmetry_Pilot,2022.1.3,Win32,59.91970759,62c50e9c1127f2cd403a315f,0,35,35,64,1,onetwo,,,,,,,,,,,,,,,,,,,,,,,,,,,,,,,,,,,,,,,,,,,,,,,,,,,,,,,,,,,,,,,,,,,,,,,,,,,,,,,,,,,,,,,,,,,,,,,,,,,,,,,,,,,,,,,,,,,,,,,,,,,,,,,,,,,,,,,,,,,,,,,,,,,,,,,,,,,,,,
,,,,,,5fb015142942a535524f55fc,62c53a6cc6e828eebd792f39,2022-07-06_09h39.11.015,Colour_Asymmetry_Pilot,2022.1.3,Win32,59.91970759,62c50e9c1127f2cd403a315f,0,36,36,75,1,twofour,,,,,,,,,,,,,,,,,,,,,,,,,,,,,,,,,,,,,,,,,,,,,,,,,,,,,,,,,,,,,,,,,,,,,,,,,,,,,,,,,,,,,,,,,,,,,,,,,,,,,,,,,,,,,,,,,,,,,,,,,,,,,,,,,,,,,,,,,,,,,,,,,,,,,,,,,,,,,,
,,,,,,5fb015142942a535524f55fc,62c53a6cc6e828eebd792f39,2022-07-06_09h39.11.015,Colour_Asymmetry_Pilot,2022.1.3,Win32,59.91970759,62c50e9c1127f2cd403a315f,0,37,37,138,1,twoone,,,,,,,,,,,,,,,,,,,,,,,,,,,,,,,,,,,,,,,,,,,,,,,,,,,,,,,,,,,,,,,,,,,,,,,,,,,,,,,,,,,,,,,,,,,,,,,,,,,,,,,,,,,,,,,,,,,,,,,,,,,,,,,,,,,,,,,,,,,,,,,,,,,,,,,,,,,,,,
,,,,,,5fb015142942a535524f55fc,62c53a6cc6e828eebd792f39,2022-07-06_09h39.11.015,Colour_Asymmetry_Pilot,2022.1.3,Win32,59.91970759,62c50e9c1127f2cd403a315f,0,38,38,77,1,threefour,,,,,,,,,,,,,,,,,,,,,,,,,,,,,,,,,,,,,,,,,,,,,,,,,,,,,,,,,,,,,,,,,,,,,,,,,,,,,,,,,,,,,,,,,,,,,,,,,,,,,,,,,,,,,,,,,,,,,,,,,,,,,,,,,,,,,,,,,,,,,,,,,,,,,,,,,,,,,,
,,,,,,5fb015142942a535524f55fc,62c53a6cc6e828eebd792f39,2022-07-06_09h39.11.015,Colour_Asymmetry_Pilot,2022.1.3,Win32,59.91970759,62c50e9c1127f2cd403a315f,0,39,39,40,1,onetwo,,,,,,,,,,,,,,,,,,,,,,,,,,,,,,,,,,,,,,,,,,,,,,,,,,,,,,,,,,,,,,,,,,,,,,,,,,,,,,,,,,,,,,,,,,,,,,,,,,,,,,,,,,,,,,,,,,,,,,,,,,,,,,,,,,,,,,,,,,,,,,,,,,,,,,,,,,,,,,
,,,,,,5fb015142942a535524f55fc,62c53a6cc6e828eebd792f39,2022-07-06_09h39.11.015,Colour_Asymmetry_Pilot,2022.1.3,Win32,59.91970759,62c50e9c1127f2cd403a315f,0,40,40,91,1,twofour,,,,,,,,,,,,,,,,,,,,,,,,,,,,,,,,,,,,,,,,,,,,,,,,,,,,,,,,,,,,,,,,,,,,,,,,,,,,,,,,,,,,,,,,,,,,,,,,,,,,,,,,,,,,,,,,,,,,,,,,,,,,,,,,,,,,,,,,,,,,,,,,,,,,,,,,,,,,,,
,,,,,,5fb015142942a535524f55fc,62c53a6cc6e828eebd792f39,2022-07-06_09h39.11.015,Colour_Asymmetry_Pilot,2022.1.3,Win32,59.91970759,62c50e9c1127f2cd403a315f,0,41,41,59,1,twofour,,,,,,,,,,,,,,,,,,,,,,,,,,,,,,,,,,,,,,,,,,,,,,,,,,,,,,,,,,,,,,,,,,,,,,,,,,,,,,,,,,,,,,,,,,,,,,,,,,,,,,,,,,,,,,,,,,,,,,,,,,,,,,,,,,,,,,,,,,,,,,,,,,,,,,,,,,,,,,
,,,,,,5fb015142942a535524f55fc,62c53a6cc6e828eebd792f39,2022-07-06_09h39.11.015,Colour_Asymmetry_Pilot,2022.1.3,Win32,59.91970759,62c50e9c1127f2cd403a315f,0,42,42,107,1,twofour,,,,,,,,,,,,,,,,,,,,,,,,,,,,,,,,,,,,,,,,,,,,,,,,,,,,,,,,,,,,,,,,,,,,,,,,,,,,,,,,,,,,,,,,,,,,,,,,,,,,,,,,,,,,,,,,,,,,,,,,,,,,,,,,,,,,,,,,,,,,,,,,,,,,,,,,,,,,,,
,,,,,,5fb015142942a535524f55fc,62c53a6cc6e828eebd792f39,2022-07-06_09h39.11.015,Colour_Asymmetry_Pilot,2022.1.3,Win32,59.91970759,62c50e9c1127f2cd403a315f,0,43,43,121,1,onethree,,,,,,,,,,,,,,,,,,,,,,,,,,,,,,,,,,,,,,,,,,,,,,,,,,,,,,,,,,,,,,,,,,,,,,,,,,,,,,,,,,,,,,,,,,,,,,,,,,,,,,,,,,,,,,,,,,,,,,,,,,,,,,,,,,,,,,,,,,,,,,,,,,,,,,,,,,,,,,
,,,,,,5fb015142942a535524f55fc,62c53a6cc6e828eebd792f39,2022-07-06_09h39.11.015,Colour_Asymmetry_Pilot,2022.1.3,Win32,59.91970759,62c50e9c1127f2cd403a315f,0,44,44,83,1,twofour,,,,,,,,,,,,,,,,,,,,,,,,,,,,,,,,,,,,,,,,,,,,,,,,,,,,,,,,,,,,,,,,,,,,,,,,,,,,,,,,,,,,,,,,,,,,,,,,,,,,,,,,,,,,,,,,,,,,,,,,,,,,,,,,,,,,,,,,,,,,,,,,,,,,,,,,,,,,,,
,,,,,,5fb015142942a535524f55fc,62c53a6cc6e828eebd792f39,2022-07-06_09h39.11.015,Colour_Asymmetry_Pilot,2022.1.3,Win32,59.91970759,62c50e9c1127f2cd403a315f,0,45,45,33,1,onethree,,,,,,,,,,,,,,,,,,,,,,,,,,,,,,,,,,,,,,,,,,,,,,,,,,,,,,,,,,,,,,,,,,,,,,,,,,,,,,,,,,,,,,,,,,,,,,,,,,,,,,,,,,,,,,,,,,,,,,,,,,,,,,,,,,,,,,,,,,,,,,,,,,,,,,,,,,,,,,
,,,,,,5fb015142942a535524f55fc,62c53a6cc6e828eebd792f39,2022-07-06_09h39.11.015,Colour_Asymmetry_Pilot,2022.1.3,Win32,59.91970759,62c50e9c1127f2cd403a315f,0,46,46,136,1,onetwo,,,,,,,,,,,,,,,,,,,,,,,,,,,,,,,,,,,,,,,,,,,,,,,,,,,,,,,,,,,,,,,,,,,,,,,,,,,,,,,,,,,,,,,,,,,,,,,,,,,,,,,,,,,,,,,,,,,,,,,,,,,,,,,,,,,,,,,,,,,,,,,,,,,,,,,,,,,,,,
,,,,,,5fb015142942a535524f55fc,62c53a6cc6e828eebd792f39,2022-07-06_09h39.11.015,Colour_Asymmetry_Pilot,2022.1.3,Win32,59.91970759,62c50e9c1127f2cd403a315f,0,47,47,54,1,fourtwo,,,,,,,,,,,,,,,,,,,,,,,,,,,,,,,,,,,,,,,,,,,,,,,,,,,,,,,,,,,,,,,,,,,,,,,,,,,,,,,,,,,,,,,,,,,,,,,,,,,,,,,,,,,,,,,,,,,,,,,,,,,,,,,,,,,,,,,,,,,,,,,,,,,,,,,,,,,,,,
,,,,,,5fb015142942a535524f55fc,62c53a6cc6e828eebd792f39,2022-07-06_09h39.11.015,Colour_Asymmetry_Pilot,2022.1.3,Win32,59.91970759,62c50e9c1127f2cd403a315f,0,48,48,14,1,fourtwo,,,,,,,,,,,,,,,,,,,,,,,,,,,,,,,,,,,,,,,,,,,,,,,,,,,,,,,,,,,,,,,,,,,,,,,,,,,,,,,,,,,,,,,,,,,,,,,,,,,,,,,,,,,,,,,,,,,,,,,,,,,,,,,,,,,,,,,,,,,,,,,,,,,,,,,,,,,,,,
,,,,,,5fb015142942a535524f55fc,62c53a6cc6e828eebd792f39,2022-07-06_09h39.11.015,Colour_Asymmetry_Pilot,2022.1.3,Win32,59.91970759,62c50e9c1127f2cd403a315f,0,49,49,23,1,fourthree,,,,,,,,,,,,,,,,,,,,,,,,,,,,,,,,,,,,,,,,,,,,,,,,,,,,,,,,,,,,,,,,,,,,,,,,,,,,,,,,,,,,,,,,,,,,,,,,,,,,,,,,,,,,,,,,,,,,,,,,,,,,,,,,,,,,,,,,,,,,,,,,,,,,,,,,,,,,,,
,,,,,,5fb015142942a535524f55fc,62c53a6cc6e828eebd792f39,2022-07-06_09h39.11.015,Colour_Asymmetry_Pilot,2022.1.3,Win32,59.91970759,62c50e9c1127f2cd403a315f,0,50,50,45,1,threefour,,,,,,,,,,,,,,,,,,,,,,,,,,,,,,,,,,,,,,,,,,,,,,,,,,,,,,,,,,,,,,,,,,,,,,,,,,,,,,,,,,,,,,,,,,,,,,,,,,,,,,,,,,,,,,,,,,,,,,,,,,,,,,,,,,,,,,,,,,,,,,,,,,,,,,,,,,,,,,
,,,,,,5fb015142942a535524f55fc,62c53a6cc6e828eebd792f39,2022-07-06_09h39.11.015,Colour_Asymmetry_Pilot,2022.1.3,Win32,59.91970759,62c50e9c1127f2cd403a315f,0,51,51,154,1,twoone,,,,,,,,,,,,,,,,,,,,,,,,,,,,,,,,,,,,,,,,,,,,,,,,,,,,,,,,,,,,,,,,,,,,,,,,,,,,,,,,,,,,,,,,,,,,,,,,,,,,,,,,,,,,,,,,,,,,,,,,,,,,,,,,,,,,,,,,,,,,,,,,,,,,,,,,,,,,,,
,,,,,,5fb015142942a535524f55fc,62c53a6cc6e828eebd792f39,2022-07-06_09h39.11.015,Colour_Asymmetry_Pilot,2022.1.3,Win32,59.91970759,62c50e9c1127f2cd403a315f,0,52,52,132,1,threeone,,,,,,,,,,,,,,,,,,,,,,,,,,,,,,,,,,,,,,,,,,,,,,,,,,,,,,,,,,,,,,,,,,,,,,,,,,,,,,,,,,,,,,,,,,,,,,,,,,,,,,,,,,,,,,,,,,,,,,,,,,,,,,,,,,,,,,,,,,,,,,,,,,,,,,,,,,,,,,
,,,,,,5fb015142942a535524f55fc,62c53a6cc6e828eebd792f39,2022-07-06_09h39.11.015,Colour_Asymmetry_Pilot,2022.1.3,Win32,59.91970759,62c50e9c1127f2cd403a315f,0,53,53,6,1,fourtwo,,,,,,,,,,,,,,,,,,,,,,,,,,,,,,,,,,,,,,,,,,,,,,,,,,,,,,,,,,,,,,,,,,,,,,,,,,,,,,,,,,,,,,,,,,,,,,,,,,,,,,,,,,,,,,,,,,,,,,,,,,,,,,,,,,,,,,,,,,,,,,,,,,,,,,,,,,,,,,
,,,,,,5fb015142942a535524f55fc,62c53a6cc6e828eebd792f39,2022-07-06_09h39.11.015,Colour_Asymmetry_Pilot,2022.1.3,Win32,59.91970759,62c50e9c1127f2cd403a315f,0,54,54,55,1,fourthree,,,,,,,,,,,,,,,,,,,,,,,,,,,,,,,,,,,,,,,,,,,,,,,,,,,,,,,,,,,,,,,,,,,,,,,,,,,,,,,,,,,,,,,,,,,,,,,,,,,,,,,,,,,,,,,,,,,,,,,,,,,,,,,,,,,,,,,,,,,,,,,,,,,,,,,,,,,,,,
,,,,,,5fb015142942a535524f55fc,62c53a6cc6e828eebd792f39,2022-07-06_09h39.11.015,Colour_Asymmetry_Pilot,2022.1.3,Win32,59.91970759,62c50e9c1127f2cd403a315f,0,55,55,11,1,twofour,,,,,,,,,,,,,,,,,,,,,,,,,,,,,,,,,,,,,,,,,,,,,,,,,,,,,,,,,,,,,,,,,,,,,,,,,,,,,,,,,,,,,,,,,,,,,,,,,,,,,,,,,,,,,,,,,,,,,,,,,,,,,,,,,,,,,,,,,,,,,,,,,,,,,,,,,,,,,,
,,,,,,5fb015142942a535524f55fc,62c53a6cc6e828eebd792f39,2022-07-06_09h39.11.015,Colour_Asymmetry_Pilot,2022.1.3,Win32,59.91970759,62c50e9c1127f2cd403a315f,0,56,56,29,1,threefour,,,,,,,,,,,,,,,,,,,,,,,,,,,,,,,,,,,,,,,,,,,,,,,,,,,,,,,,,,,,,,,,,,,,,,,,,,,,,,,,,,,,,,,,,,,,,,,,,,,,,,,,,,,,,,,,,,,,,,,,,,,,,,,,,,,,,,,,,,,,,,,,,,,,,,,,,,,,,,
,,,,,,5fb015142942a535524f55fc,62c53a6cc6e828eebd792f39,2022-07-06_09h39.11.015,Colour_Asymmetry_Pilot,2022.1.3,Win32,59.91970759,62c50e9c1127f2cd403a315f,0,57,57,47,1,fourthree,,,,,,,,,,,,,,,,,,,,,,,,,,,,,,,,,,,,,,,,,,,,,,,,,,,,,,,,,,,,,,,,,,,,,,,,,,,,,,,,,,,,,,,,,,,,,,,,,,,,,,,,,,,,,,,,,,,,,,,,,,,,,,,,,,,,,,,,,,,,,,,,,,,,,,,,,,,,,,
,,,,,,5fb015142942a535524f55fc,62c53a6cc6e828eebd792f39,2022-07-06_09h39.11.015,Colour_Asymmetry_Pilot,2022.1.3,Win32,59.91970759,62c50e9c1127f2cd403a315f,0,58,58,139,1,twofour,,,,,,,,,,,,,,,,,,,,,,,,,,,,,,,,,,,,,,,,,,,,,,,,,,,,,,,,,,,,,,,,,,,,,,,,,,,,,,,,,,,,,,,,,,,,,,,,,,,,,,,,,,,,,,,,,,,,,,,,,,,,,,,,,,,,,,,,,,,,,,,,,,,,,,,,,,,,,,
,,,,,,5fb015142942a535524f55fc,62c53a6cc6e828eebd792f39,2022-07-06_09h39.11.015,Colour_Asymmetry_Pilot,2022.1.3,Win32,59.91970759,62c50e9c1127f2cd403a315f,0,59,59,105,1,onethree,,,,,,,,,,,,,,,,,,,,,,,,,,,,,,,,,,,,,,,,,,,,,,,,,,,,,,,,,,,,,,,,,,,,,,,,,,,,,,,,,,,,,,,,,,,,,,,,,,,,,,,,,,,,,,,,,,,,,,,,,,,,,,,,,,,,,,,,,,,,,,,,,,,,,,,,,,,,,,
,,,,,,5fb015142942a535524f55fc,62c53a6cc6e828eebd792f39,2022-07-06_09h39.11.015,Colour_Asymmetry_Pilot,2022.1.3,Win32,59.91970759,62c50e9c1127f2cd403a315f,0,60,60,98,1,twoone,,,,,,,,,,,,,,,,,,,,,,,,,,,,,,,,,,,,,,,,,,,,,,,,,,,,,,,,,,,,,,,,,,,,,,,,,,,,,,,,,,,,,,,,,,,,,,,,,,,,,,,,,,,,,,,,,,,,,,,,,,,,,,,,,,,,,,,,,,,,,,,,,,,,,,,,,,,,,,
,,,,,,5fb015142942a535524f55fc,62c53a6cc6e828eebd792f39,2022-07-06_09h39.11.015,Colour_Asymmetry_Pilot,2022.1.3,Win32,59.91970759,62c50e9c1127f2cd403a315f,0,61,61,151,1,fourthree,,,,,,,,,,,,,,,,,,,,,,,,,,,,,,,,,,,,,,,,,,,,,,,,,,,,,,,,,,,,,,,,,,,,,,,,,,,,,,,,,,,,,,,,,,,,,,,,,,,,,,,,,,,,,,,,,,,,,,,,,,,,,,,,,,,,,,,,,,,,,,,,,,,,,,,,,,,,,,
,,,,,,5fb015142942a535524f55fc,62c53a6cc6e828eebd792f39,2022-07-06_09h39.11.015,Colour_Asymmetry_Pilot,2022.1.3,Win32,59.91970759,62c50e9c1127f2cd403a315f,0,62,62,65,1,onethree,,,,,,,,,,,,,,,,,,,,,,,,,,,,,,,,,,,,,,,,,,,,,,,,,,,,,,,,,,,,,,,,,,,,,,,,,,,,,,,,,,,,,,,,,,,,,,,,,,,,,,,,,,,,,,,,,,,,,,,,,,,,,,,,,,,,,,,,,,,,,,,,,,,,,,,,,,,,,,
,,,,,,5fb015142942a535524f55fc,62c53a6cc6e828eebd792f39,2022-07-06_09h39.11.015,Colour_Asymmetry_Pilot,2022.1.3,Win32,59.91970759,62c50e9c1127f2cd403a315f,0,63,63,101,1,threefour,,,,,,,,,,,,,,,,,,,,,,,,,,,,,,,,,,,,,,,,,,,,,,,,,,,,,,,,,,,,,,,,,,,,,,,,,,,,,,,,,,,,,,,,,,,,,,,,,,,,,,,,,,,,,,,,,,,,,,,,,,,,,,,,,,,,,,,,,,,,,,,,,,,,,,,,,,,,,,
,,,,,,5fb015142942a535524f55fc,62c53a6cc6e828eebd792f39,2022-07-06_09h39.11.015,Colour_Asymmetry_Pilot,2022.1.3,Win32,59.91970759,62c50e9c1127f2cd403a315f,0,64,64,117,1,threefour,,,,,,,,,,,,,,,,,,,,,,,,,,,,,,,,,,,,,,,,,,,,,,,,,,,,,,,,,,,,,,,,,,,,,,,,,,,,,,,,,,,,,,,,,,,,,,,,,,,,,,,,,,,,,,,,,,,,,,,,,,,,,,,,,,,,,,,,,,,,,,,,,,,,,,,,,,,,,,
,,,,,,5fb015142942a535524f55fc,62c53a6cc6e828eebd792f39,2022-07-06_09h39.11.015,Colour_Asymmetry_Pilot,2022.1.3,Win32,59.91970759,62c50e9c1127f2cd403a315f,0,65,65,48,1,onetwo,,,,,,,,,,,,,,,,,,,,,,,,,,,,,,,,,,,,,,,,,,,,,,,,,,,,,,,,,,,,,,,,,,,,,,,,,,,,,,,,,,,,,,,,,,,,,,,,,,,,,,,,,,,,,,,,,,,,,,,,,,,,,,,,,,,,,,,,,,,,,,,,,,,,,,,,,,,,,,
,,,,,,5fb015142942a535524f55fc,62c53a6cc6e828eebd792f39,2022-07-06_09h39.11.015,Colour_Asymmetry_Pilot,2022.1.3,Win32,59.91970759,62c50e9c1127f2cd403a315f,0,66,66,95,1,fourthree,,,,,,,,,,,,,,,,,,,,,,,,,,,,,,,,,,,,,,,,,,,,,,,,,,,,,,,,,,,,,,,,,,,,,,,,,,,,,,,,,,,,,,,,,,,,,,,,,,,,,,,,,,,,,,,,,,,,,,,,,,,,,,,,,,,,,,,,,,,,,,,,,,,,,,,,,,,,,,
,,,,,,5fb015142942a535524f55fc,62c53a6cc6e828eebd792f39,2022-07-06_09h39.11.015,Colour_Asymmetry_Pilot,2022.1.3,Win32,59.91970759,62c50e9c1127f2cd403a315f,0,67,67,88,1,onetwo,,,,,,,,,,,,,,,,,,,,,,,,,,,,,,,,,,,,,,,,,,,,,,,,,,,,,,,,,,,,,,,,,,,,,,,,,,,,,,,,,,,,,,,,,,,,,,,,,,,,,,,,,,,,,,,,,,,,,,,,,,,,,,,,,,,,,,,,,,,,,,,,,,,,,,,,,,,,,,
,,,,,,5fb015142942a535524f55fc,62c53a6cc6e828eebd792f39,2022-07-06_09h39.11.015,Colour_Asymmetry_Pilot,2022.1.3,Win32,59.91970759,62c50e9c1127f2cd403a315f,0,68,68,112,1,onetwo,,,,,,,,,,,,,,,,,,,,,,,,,,,,,,,,,,,,,,,,,,,,,,,,,,,,,,,,,,,,,,,,,,,,,,,,,,,,,,,,,,,,,,,,,,,,,,,,,,,,,,,,,,,,,,,,,,,,,,,,,,,,,,,,,,,,,,,,,,,,,,,,,,,,,,,,,,,,,,
,,,,,,5fb015142942a535524f55fc,62c53a6cc6e828eebd792f39,2022-07-06_09h39.11.015,Colour_Asymmetry_Pilot,2022.1.3,Win32,59.91970759,62c50e9c1127f2cd403a315f,0,69,69,128,1,onetwo,,,,,,,,,,,,,,,,,,,,,,,,,,,,,,,,,,,,,,,,,,,,,,,,,,,,,,,,,,,,,,,,,,,,,,,,,,,,,,,,,,,,,,,,,,,,,,,,,,,,,,,,,,,,,,,,,,,,,,,,,,,,,,,,,,,,,,,,,,,,,,,,,,,,,,,,,,,,,,
,,,,,,5fb015142942a535524f55fc,62c53a6cc6e828eebd792f39,2022-07-06_09h39.11.015,Colour_Asymmetry_Pilot,2022.1.3,Win32,59.91970759,62c50e9c1127f2cd403a315f,0,70,70,103,1,fourthree,,,,,,,,,,,,,,,,,,,,,,,,,,,,,,,,,,,,,,,,,,,,,,,,,,,,,,,,,,,,,,,,,,,,,,,,,,,,,,,,,,,,,,,,,,,,,,,,,,,,,,,,,,,,,,,,,,,,,,,,,,,,,,,,,,,,,,,,,,,,,,,,,,,,,,,,,,,,,,
,,,,,,5fb015142942a535524f55fc,62c53a6cc6e828eebd792f39,2022-07-06_09h39.11.015,Colour_Asymmetry_Pilot,2022.1.3,Win32,59.91970759,62c50e9c1127f2cd403a315f,0,71,71,69,1,threefour,,,,,,,,,,,,,,,,,,,,,,,,,,,,,,,,,,,,,,,,,,,,,,,,,,,,,,,,,,,,,,,,,,,,,,,,,,,,,,,,,,,,,,,,,,,,,,,,,,,,,,,,,,,,,,,,,,,,,,,,,,,,,,,,,,,,,,,,,,,,,,,,,,,,,,,,,,,,,,
,,,,,,5fb015142942a535524f55fc,62c53a6cc6e828eebd792f39,2022-07-06_09h39.11.015,Colour_Asymmetry_Pilot,2022.1.3,Win32,59.91970759,62c50e9c1127f2cd403a315f,0,72,72,152,1,onetwo,,,,,,,,,,,,,,,,,,,,,,,,,,,,,,,,,,,,,,,,,,,,,,,,,,,,,,,,,,,,,,,,,,,,,,,,,,,,,,,,,,,,,,,,,,,,,,,,,,,,,,,,,,,,,,,,,,,,,,,,,,,,,,,,,,,,,,,,,,,,,,,,,,,,,,,,,,,,,,
,,,,,,5fb015142942a535524f55fc,62c53a6cc6e828eebd792f39,2022-07-06_09h39.11.015,Colour_Asymmetry_Pilot,2022.1.3,Win32,59.91970759,62c50e9c1127f2cd403a315f,0,73,73,148,1,threeone,,,,,,,,,,,,,,,,,,,,,,,,,,,,,,,,,,,,,,,,,,,,,,,,,,,,,,,,,,,,,,,,,,,,,,,,,,,,,,,,,,,,,,,,,,,,,,,,,,,,,,,,,,,,,,,,,,,,,,,,,,,,,,,,,,,,,,,,,,,,,,,,,,,,,,,,,,,,,,
,,,,,,5fb015142942a535524f55fc,62c53a6cc6e828eebd792f39,2022-07-06_09h39.11.015,Colour_Asymmetry_Pilot,2022.1.3,Win32,59.91970759,62c50e9c1127f2cd403a315f,0,74,74,143,1,fourthree,,,,,,,,,,,,,,,,,,,,,,,,,,,,,,,,,,,,,,,,,,,,,,,,,,,,,,,,,,,,,,,,,,,,,,,,,,,,,,,,,,,,,,,,,,,,,,,,,,,,,,,,,,,,,,,,,,,,,,,,,,,,,,,,,,,,,,,,,,,,,,,,,,,,,,,,,,,,,,
,,,,,,5fb015142942a535524f55fc,62c53a6cc6e828eebd792f39,2022-07-06_09h39.11.015,Colour_Asymmetry_Pilot,2022.1.3,Win32,59.91970759,62c50e9c1127f2cd403a315f,0,75,75,10,1,twoone,,,,,,,,,,,,,,,,,,,,,,,,,,,,,,,,,,,,,,,,,,,,,,,,,,,,,,,,,,,,,,,,,,,,,,,,,,,,,,,,,,,,,,,,,,,,,,,,,,,,,,,,,,,,,,,,,,,,,,,,,,,,,,,,,,,,,,,,,,,,,,,,,,,,,,,,,,,,,,
,,,,,,5fb015142942a535524f55fc,62c53a6cc6e828eebd792f39,2022-07-06_09h39.11.015,Colour_Asymmetry_Pilot,2022.1.3,Win32,59.91970759,62c50e9c1127f2cd403a315f,0,76,76,37,1,threefour,,,,,,,,,,,,,,,,,,,,,,,,,,,,,,,,,,,,,,,,,,,,,,,,,,,,,,,,,,,,,,,,,,,,,,,,,,,,,,,,,,,,,,,,,,,,,,,,,,,,,,,,,,,,,,,,,,,,,,,,,,,,,,,,,,,,,,,,,,,,,,,,,,,,,,,,,,,,,,
,,,,,,5fb015142942a535524f55fc,62c53a6cc6e828eebd792f39,2022-07-06_09h39.11.015,Colour_Asymmetry_Pilot,2022.1.3,Win32,59.91970759,62c50e9c1127f2cd403a315f,0,77,77,17,1,onethree,,,,,,,,,,,,,,,,,,,,,,,,,,,,,,,,,,,,,,,,,,,,,,,,,,,,,,,,,,,,,,,,,,,,,,,,,,,,,,,,,,,,,,,,,,,,,,,,,,,,,,,,,,,,,,,,,,,,,,,,,,,,,,,,,,,,,,,,,,,,,,,,,,,,,,,,,,,,,,
,,,,,,5fb015142942a535524f55fc,62c53a6cc6e828eebd792f39,2022-07-06_09h39.11.015,Colour_Asymmetry_Pilot,2022.1.3,Win32,59.91970759,62c50e9c1127f2cd403a315f,0,78,78,118,1,fourtwo,,,,,,,,,,,,,,,,,,,,,,,,,,,,,,,,,,,,,,,,,,,,,,,,,,,,,,,,,,,,,,,,,,,,,,,,,,,,,,,,,,,,,,,,,,,,,,,,,,,,,,,,,,,,,,,,,,,,,,,,,,,,,,,,,,,,,,,,,,,,,,,,,,,,,,,,,,,,,,
,,,,,,5fb015142942a535524f55fc,62c53a6cc6e828eebd792f39,2022-07-06_09h39.11.015,Colour_Asymmetry_Pilot,2022.1.3,Win32,59.91970759,62c50e9c1127f2cd403a315f,0,79,79,155,1,twofour,,,,,,,,,,,,,,,,,,,,,,,,,,,,,,,,,,,,,,,,,,,,,,,,,,,,,,,,,,,,,,,,,,,,,,,,,,,,,,,,,,,,,,,,,,,,,,,,,,,,,,,,,,,,,,,,,,,,,,,,,,,,,,,,,,,,,,,,,,,,,,,,,,,,,,,,,,,,,,
,,,,,,5fb015142942a535524f55fc,62c53a6cc6e828eebd792f39,2022-07-06_09h39.11.015,Colour_Asymmetry_Pilot,2022.1.3,Win32,59.91970759,62c50e9c1127f2cd403a315f,0,80,80,28,1,threeone,,,,,,,,,,,,,,,,,,,,,,,,,,,,,,,,,,,,,,,,,,,,,,,,,,,,,,,,,,,,,,,,,,,,,,,,,,,,,,,,,,,,,,,,,,,,,,,,,,,,,,,,,,,,,,,,,,,,,,,,,,,,,,,,,,,,,,,,,,,,,,,,,,,,,,,,,,,,,,
,,,,,,5fb015142942a535524f55fc,62c53a6cc6e828eebd792f39,2022-07-06_09h39.11.015,Colour_Asymmetry_Pilot,2022.1.3,Win32,59.91970759,62c50e9c1127f2cd403a315f,0,81,81,87,1,fourthree,,,,,,,,,,,,,,,,,,,,,,,,,,,,,,,,,,,,,,,,,,,,,,,,,,,,,,,,,,,,,,,,,,,,,,,,,,,,,,,,,,,,,,,,,,,,,,,,,,,,,,,,,,,,,,,,,,,,,,,,,,,,,,,,,,,,,,,,,,,,,,,,,,,,,,,,,,,,,,
,,,,,,5fb015142942a535524f55fc,62c53a6cc6e828eebd792f39,2022-07-06_09h39.11.015,Colour_Asymmetry_Pilot,2022.1.3,Win32,59.91970759,62c50e9c1127f2cd403a315f,0,82,82,60,1,threeone,,,,,,,,,,,,,,,,,,,,,,,,,,,,,,,,,,,,,,,,,,,,,,,,,,,,,,,,,,,,,,,,,,,,,,,,,,,,,,,,,,,,,,,,,,,,,,,,,,,,,,,,,,,,,,,,,,,,,,,,,,,,,,,,,,,,,,,,,,,,,,,,,,,,,,,,,,,,,,
,,,,,,5fb015142942a535524f55fc,62c53a6cc6e828eebd792f39,2022-07-06_09h39.11.015,Colour_Asymmetry_Pilot,2022.1.3,Win32,59.91970759,62c50e9c1127f2cd403a315f,0,83,83,123,1,twofour,,,,,,,,,,,,,,,,,,,,,,,,,,,,,,,,,,,,,,,,,,,,,,,,,,,,,,,,,,,,,,,,,,,,,,,,,,,,,,,,,,,,,,,,,,,,,,,,,,,,,,,,,,,,,,,,,,,,,,,,,,,,,,,,,,,,,,,,,,,,,,,,,,,,,,,,,,,,,,
,,,,,,5fb015142942a535524f55fc,62c53a6cc6e828eebd792f39,2022-07-06_09h39.11.015,Colour_Asymmetry_Pilot,2022.1.3,Win32,59.91970759,62c50e9c1127f2cd403a315f,0,84,84,131,1,twofour,,,,,,,,,,,,,,,,,,,,,,,,,,,,,,,,,,,,,,,,,,,,,,,,,,,,,,,,,,,,,,,,,,,,,,,,,,,,,,,,,,,,,,,,,,,,,,,,,,,,,,,,,,,,,,,,,,,,,,,,,,,,,,,,,,,,,,,,,,,,,,,,,,,,,,,,,,,,,,
,,,,,,5fb015142942a535524f55fc,62c53a6cc6e828eebd792f39,2022-07-06_09h39.11.015,Colour_Asymmetry_Pilot,2022.1.3,Win32,59.91970759,62c50e9c1127f2cd403a315f,0,85,85,71,1,fourthree,,,,,,,,,,,,,,,,,,,,,,,,,,,,,,,,,,,,,,,,,,,,,,,,,,,,,,,,,,,,,,,,,,,,,,,,,,,,,,,,,,,,,,,,,,,,,,,,,,,,,,,,,,,,,,,,,,,,,,,,,,,,,,,,,,,,,,,,,,,,,,,,,,,,,,,,,,,,,,
,,,,,,5fb015142942a535524f55fc,62c53a6cc6e828eebd792f39,2022-07-06_09h39.11.015,Colour_Asymmetry_Pilot,2022.1.3,Win32,59.91970759,62c50e9c1127f2cd403a315f,0,86,86,96,1,onetwo,,,,,,,,,,,,,,,,,,,,,,,,,,,,,,,,,,,,,,,,,,,,,,,,,,,,,,,,,,,,,,,,,,,,,,,,,,,,,,,,,,,,,,,,,,,,,,,,,,,,,,,,,,,,,,,,,,,,,,,,,,,,,,,,,,,,,,,,,,,,,,,,,,,,,,,,,,,,,,
,,,,,,5fb015142942a535524f55fc,62c53a6cc6e828eebd792f39,2022-07-06_09h39.11.015,Colour_Asymmetry_Pilot,2022.1.3,Win32,59.91970759,62c50e9c1127f2cd403a315f,0,87,87,68,1,threeone,,,,,,,,,,,,,,,,,,,,,,,,,,,,,,,,,,,,,,,,,,,,,,,,,,,,,,,,,,,,,,,,,,,,,,,,,,,,,,,,,,,,,,,,,,,,,,,,,,,,,,,,,,,,,,,,,,,,,,,,,,,,,,,,,,,,,,,,,,,,,,,,,,,,,,,,,,,,,,
,,,,,,5fb015142942a535524f55fc,62c53a6cc6e828eebd792f39,2022-07-06_09h39.11.015,Colour_Asymmetry_Pilot,2022.1.3,Win32,59.91970759,62c50e9c1127f2cd403a315f,0,88,88,19,1,twofour,,,,,,,,,,,,,,,,,,,,,,,,,,,,,,,,,,,,,,,,,,,,,,,,,,,,,,,,,,,,,,,,,,,,,,,,,,,,,,,,,,,,,,,,,,,,,,,,,,,,,,,,,,,,,,,,,,,,,,,,,,,,,,,,,,,,,,,,,,,,,,,,,,,,,,,,,,,,,,
,,,,,,5fb015142942a535524f55fc,62c53a6cc6e828eebd792f39,2022-07-06_09h39.11.015,Colour_Asymmetry_Pilot,2022.1.3,Win32,59.91970759,62c50e9c1127f2cd403a315f,0,89,89,99,1,twofour,,,,,,,,,,,,,,,,,,,,,,,,,,,,,,,,,,,,,,,,,,,,,,,,,,,,,,,,,,,,,,,,,,,,,,,,,,,,,,,,,,,,,,,,,,,,,,,,,,,,,,,,,,,,,,,,,,,,,,,,,,,,,,,,,,,,,,,,,,,,,,,,,,,,,,,,,,,,,,
,,,,,,5fb015142942a535524f55fc,62c53a6cc6e828eebd792f39,2022-07-06_09h39.11.015,Colour_Asymmetry_Pilot,2022.1.3,Win32,59.91970759,62c50e9c1127f2cd403a315f,0,90,90,144,1,onetwo,,,,,,,,,,,,,,,,,,,,,,,,,,,,,,,,,,,,,,,,,,,,,,,,,,,,,,,,,,,,,,,,,,,,,,,,,,,,,,,,,,,,,,,,,,,,,,,,,,,,,,,,,,,,,,,,,,,,,,,,,,,,,,,,,,,,,,,,,,,,,,,,,,,,,,,,,,,,,,
,,,,,,5fb015142942a535524f55fc,62c53a6cc6e828eebd792f39,2022-07-06_09h39.11.015,Colour_Asymmetry_Pilot,2022.1.3,Win32,59.91970759,62c50e9c1127f2cd403a315f,0,91,91,116,1,threeone,,,,,,,,,,,,,,,,,,,,,,,,,,,,,,,,,,,,,,,,,,,,,,,,,,,,,,,,,,,,,,,,,,,,,,,,,,,,,,,,,,,,,,,,,,,,,,,,,,,,,,,,,,,,,,,,,,,,,,,,,,,,,,,,,,,,,,,,,,,,,,,,,,,,,,,,,,,,,,
,,,,,,5fb015142942a535524f55fc,62c53a6cc6e828eebd792f39,2022-07-06_09h39.11.015,Colour_Asymmetry_Pilot,2022.1.3,Win32,59.91970759,62c50e9c1127f2cd403a315f,0,92,92,34,1,twoone,,,,,,,,,,,,,,,,,,,,,,,,,,,,,,,,,,,,,,,,,,,,,,,,,,,,,,,,,,,,,,,,,,,,,,,,,,,,,,,,,,,,,,,,,,,,,,,,,,,,,,,,,,,,,,,,,,,,,,,,,,,,,,,,,,,,,,,,,,,,,,,,,,,,,,,,,,,,,,
,,,,,,5fb015142942a535524f55fc,62c53a6cc6e828eebd792f39,2022-07-06_09h39.11.015,Colour_Asymmetry_Pilot,2022.1.3,Win32,59.91970759,62c50e9c1127f2cd403a315f,0,93,93,61,1,threefour,,,,,,,,,,,,,,,,,,,,,,,,,,,,,,,,,,,,,,,,,,,,,,,,,,,,,,,,,,,,,,,,,,,,,,,,,,,,,,,,,,,,,,,,,,,,,,,,,,,,,,,,,,,,,,,,,,,,,,,,,,,,,,,,,,,,,,,,,,,,,,,,,,,,,,,,,,,,,,
,,,,,,5fb015142942a535524f55fc,62c53a6cc6e828eebd792f39,2022-07-06_09h39.11.015,Colour_Asymmetry_Pilot,2022.1.3,Win32,59.91970759,62c50e9c1127f2cd403a315f,0,94,94,12,1,threeone,,,,,,,,,,,,,,,,,,,,,,,,,,,,,,,,,,,,,,,,,,,,,,,,,,,,,,,,,,,,,,,,,,,,,,,,,,,,,,,,,,,,,,,,,,,,,,,,,,,,,,,,,,,,,,,,,,,,,,,,,,,,,,,,,,,,,,,,,,,,,,,,,,,,,,,,,,,,,,
,,,,,,5fb015142942a535524f55fc,62c53a6cc6e828eebd792f39,2022-07-06_09h39.11.015,Colour_Asymmetry_Pilot,2022.1.3,Win32,59.91970759,62c50e9c1127f2cd403a315f,0,95,95,153,1,onethree,,,,,,,,,,,,,,,,,,,,,,,,,,,,,,,,,,,,,,,,,,,,,,,,,,,,,,,,,,,,,,,,,,,,,,,,,,,,,,,,,,,,,,,,,,,,,,,,,,,,,,,,,,,,,,,,,,,,,,,,,,,,,,,,,,,,,,,,,,,,,,,,,,,,,,,,,,,,,,
,,,,,,5fb015142942a535524f55fc,62c53a6cc6e828eebd792f39,2022-07-06_09h39.11.015,Colour_Asymmetry_Pilot,2022.1.3,Win32,59.91970759,62c50e9c1127f2cd403a315f,0,96,96,0,1,onetwo,,,,,,,,,,,,,,,,,,,,,,,,,,,,,,,,,,,,,,,,,,,,,,,,,,,,,,,,,,,,,,,,,,,,,,,,,,,,,,,,,,,,,,,,,,,,,,,,,,,,,,,,,,,,,,,,,,,,,,,,,,,,,,,,,,,,,,,,,,,,,,,,,,,,,,,,,,,,,,
,,,,,,5fb015142942a535524f55fc,62c53a6cc6e828eebd792f39,2022-07-06_09h39.11.015,Colour_Asymmetry_Pilot,2022.1.3,Win32,59.91970759,62c50e9c1127f2cd403a315f,0,97,97,161,1,onethree,,,,,,,,,,,,,,,,,,,,,,,,,,,,,,,,,,,,,,,,,,,,,,,,,,,,,,,,,,,,,,,,,,,,,,,,,,,,,,,,,,,,,,,,,,,,,,,,,,,,,,,,,,,,,,,,,,,,,,,,,,,,,,,,,,,,,,,,,,,,,,,,,,,,,,,,,,,,,,
,,,,,,5fb015142942a535524f55fc,62c53a6cc6e828eebd792f39,2022-07-06_09h39.11.015,Colour_Asymmetry_Pilot,2022.1.3,Win32,59.91970759,62c50e9c1127f2cd403a315f,0,98,98,140,1,threeone,,,,,,,,,,,,,,,,,,,,,,,,,,,,,,,,,,,,,,,,,,,,,,,,,,,,,,,,,,,,,,,,,,,,,,,,,,,,,,,,,,,,,,,,,,,,,,,,,,,,,,,,,,,,,,,,,,,,,,,,,,,,,,,,,,,,,,,,,,,,,,,,,,,,,,,,,,,,,,
,,,,,,5fb015142942a535524f55fc,62c53a6cc6e828eebd792f39,2022-07-06_09h39.11.015,Colour_Asymmetry_Pilot,2022.1.3,Win32,59.91970759,62c50e9c1127f2cd403a315f,0,99,99,18,1,twoone,,,,,,,,,,,,,,,,,,,,,,,,,,,,,,,,,,,,,,,,,,,,,,,,,,,,,,,,,,,,,,,,,,,,,,,,,,,,,,,,,,,,,,,,,,,,,,,,,,,,,,,,,,,,,,,,,,,,,,,,,,,,,,,,,,,,,,,,,,,,,,,,,,,,,,,,,,,,,,
,,,,,,5fb015142942a535524f55fc,62c53a6cc6e828eebd792f39,2022-07-06_09h39.11.015,Colour_Asymmetry_Pilot,2022.1.3,Win32,59.91970759,62c50e9c1127f2cd403a315f,0,100,100,106,1,twoone,,,,,,,,,,,,,,,,,,,,,,,,,,,,,,,,,,,,,,,,,,,,,,,,,,,,,,,,,,,,,,,,,,,,,,,,,,,,,,,,,,,,,,,,,,,,,,,,,,,,,,,,,,,,,,,,,,,,,,,,,,,,,,,,,,,,,,,,,,,,,,,,,,,,,,,,,,,,,,
,,,,,,5fb015142942a535524f55fc,62c53a6cc6e828eebd792f39,2022-07-06_09h39.11.015,Colour_Asymmetry_Pilot,2022.1.3,Win32,59.91970759,62c50e9c1127f2cd403a315f,0,101,101,76,1,threeone,,,,,,,,,,,,,,,,,,,,,,,,,,,,,,,,,,,,,,,,,,,,,,,,,,,,,,,,,,,,,,,,,,,,,,,,,,,,,,,,,,,,,,,,,,,,,,,,,,,,,,,,,,,,,,,,,,,,,,,,,,,,,,,,,,,,,,,,,,,,,,,,,,,,,,,,,,,,,,
,,,,,,5fb015142942a535524f55fc,62c53a6cc6e828eebd792f39,2022-07-06_09h39.11.015,Colour_Asymmetry_Pilot,2022.1.3,Win32,59.91970759,62c50e9c1127f2cd403a315f,0,102,102,32,1,onetwo,,,,,,,,,,,,,,,,,,,,,,,,,,,,,,,,,,,,,,,,,,,,,,,,,,,,,,,,,,,,,,,,,,,,,,,,,,,,,,,,,,,,,,,,,,,,,,,,,,,,,,,,,,,,,,,,,,,,,,,,,,,,,,,,,,,,,,,,,,,,,,,,,,,,,,,,,,,,,,
,,,,,,5fb015142942a535524f55fc,62c53a6cc6e828eebd792f39,2022-07-06_09h39.11.015,Colour_Asymmetry_Pilot,2022.1.3,Win32,59.91970759,62c50e9c1127f2cd403a315f,0,103,103,93,1,threefour,,,,,,,,,,,,,,,,,,,,,,,,,,,,,,,,,,,,,,,,,,,,,,,,,,,,,,,,,,,,,,,,,,,,,,,,,,,,,,,,,,,,,,,,,,,,,,,,,,,,,,,,,,,,,,,,,,,,,,,,,,,,,,,,,,,,,,,,,,,,,,,,,,,,,,,,,,,,,,
,,,,,,5fb015142942a535524f55fc,62c53a6cc6e828eebd792f39,2022-07-06_09h39.11.015,Colour_Asymmetry_Pilot,2022.1.3,Win32,59.91970759,62c50e9c1127f2cd403a315f,0,104,104,100,1,threeone,,,,,,,,,,,,,,,,,,,,,,,,,,,,,,,,,,,,,,,,,,,,,,,,,,,,,,,,,,,,,,,,,,,,,,,,,,,,,,,,,,,,,,,,,,,,,,,,,,,,,,,,,,,,,,,,,,,,,,,,,,,,,,,,,,,,,,,,,,,,,,,,,,,,,,,,,,,,,,
,,,,,,5fb015142942a535524f55fc,62c53a6cc6e828eebd792f39,2022-07-06_09h39.11.015,Colour_Asymmetry_Pilot,2022.1.3,Win32,59.91970759,62c50e9c1127f2cd403a315f,0,105,105,70,1,fourtwo,,,,,,,,,,,,,,,,,,,,,,,,,,,,,,,,,,,,,,,,,,,,,,,,,,,,,,,,,,,,,,,,,,,,,,,,,,,,,,,,,,,,,,,,,,,,,,,,,,,,,,,,,,,,,,,,,,,,,,,,,,,,,,,,,,,,,,,,,,,,,,,,,,,,,,,,,,,,,,
,,,,,,5fb015142942a535524f55fc,62c53a6cc6e828eebd792f39,2022-07-06_09h39.11.015,Colour_Asymmetry_Pilot,2022.1.3,Win32,59.91970759,62c50e9c1127f2cd403a315f,0,106,106,56,1,onetwo,,,,,,,,,,,,,,,,,,,,,,,,,,,,,,,,,,,,,,,,,,,,,,,,,,,,,,,,,,,,,,,,,,,,,,,,,,,,,,,,,,,,,,,,,,,,,,,,,,,,,,,,,,,,,,,,,,,,,,,,,,,,,,,,,,,,,,,,,,,,,,,,,,,,,,,,,,,,,,
,,,,,,5fb015142942a535524f55fc,62c53a6cc6e828eebd792f39,2022-07-06_09h39.11.015,Colour_Asymmetry_Pilot,2022.1.3,Win32,59.91970759,62c50e9c1127f2cd403a315f,0,107,107,1,1,onethree,,,,,,,,,,,,,,,,,,,,,,,,,,,,,,,,,,,,,,,,,,,,,,,,,,,,,,,,,,,,,,,,,,,,,,,,,,,,,,,,,,,,,,,,,,,,,,,,,,,,,,,,,,,,,,,,,,,,,,,,,,,,,,,,,,,,,,,,,,,,,,,,,,,,,,,,,,,,,,
,,,,,,5fb015142942a535524f55fc,62c53a6cc6e828eebd792f39,2022-07-06_09h39.11.015,Colour_Asymmetry_Pilot,2022.1.3,Win32,59.91970759,62c50e9c1127f2cd403a315f,0,108,108,94,1,fourtwo,,,,,,,,,,,,,,,,,,,,,,,,,,,,,,,,,,,,,,,,,,,,,,,,,,,,,,,,,,,,,,,,,,,,,,,,,,,,,,,,,,,,,,,,,,,,,,,,,,,,,,,,,,,,,,,,,,,,,,,,,,,,,,,,,,,,,,,,,,,,,,,,,,,,,,,,,,,,,,
,,,,,,5fb015142942a535524f55fc,62c53a6cc6e828eebd792f39,2022-07-06_09h39.11.015,Colour_Asymmetry_Pilot,2022.1.3,Win32,59.91970759,62c50e9c1127f2cd403a315f,0,109,109,150,1,fourtwo,,,,,,,,,,,,,,,,,,,,,,,,,,,,,,,,,,,,,,,,,,,,,,,,,,,,,,,,,,,,,,,,,,,,,,,,,,,,,,,,,,,,,,,,,,,,,,,,,,,,,,,,,,,,,,,,,,,,,,,,,,,,,,,,,,,,,,,,,,,,,,,,,,,,,,,,,,,,,,
,,,,,,5fb015142942a535524f55fc,62c53a6cc6e828eebd792f39,2022-07-06_09h39.11.015,Colour_Asymmetry_Pilot,2022.1.3,Win32,59.91970759,62c50e9c1127f2cd403a315f,0,110,110,42,1,twoone,,,,,,,,,,,,,,,,,,,,,,,,,,,,,,,,,,,,,,,,,,,,,,,,,,,,,,,,,,,,,,,,,,,,,,,,,,,,,,,,,,,,,,,,,,,,,,,,,,,,,,,,,,,,,,,,,,,,,,,,,,,,,,,,,,,,,,,,,,,,,,,,,,,,,,,,,,,,,,
,,,,,,5fb015142942a535524f55fc,62c53a6cc6e828eebd792f39,2022-07-06_09h39.11.015,Colour_Asymmetry_Pilot,2022.1.3,Win32,59.91970759,62c50e9c1127f2cd403a315f,0,111,111,110,1,fourtwo,,,,,,,,,,,,,,,,,,,,,,,,,,,,,,,,,,,,,,,,,,,,,,,,,,,,,,,,,,,,,,,,,,,,,,,,,,,,,,,,,,,,,,,,,,,,,,,,,,,,,,,,,,,,,,,,,,,,,,,,,,,,,,,,,,,,,,,,,,,,,,,,,,,,,,,,,,,,,,
,,,,,,5fb015142942a535524f55fc,62c53a6cc6e828eebd792f39,2022-07-06_09h39.11.015,Colour_Asymmetry_Pilot,2022.1.3,Win32,59.91970759,62c50e9c1127f2cd403a315f,0,112,112,120,1,onetwo,,,,,,,,,,,,,,,,,,,,,,,,,,,,,,,,,,,,,,,,,,,,,,,,,,,,,,,,,,,,,,,,,,,,,,,,,,,,,,,,,,,,,,,,,,,,,,,,,,,,,,,,,,,,,,,,,,,,,,,,,,,,,,,,,,,,,,,,,,,,,,,,,,,,,,,,,,,,,,
,,,,,,5fb015142942a535524f55fc,62c53a6cc6e828eebd792f39,2022-07-06_09h39.11.015,Colour_Asymmetry_Pilot,2022.1.3,Win32,59.91970759,62c50e9c1127f2cd403a315f,0,113,113,156,1,threeone,,,,,,,,,,,,,,,,,,,,,,,,,,,,,,,,,,,,,,,,,,,,,,,,,,,,,,,,,,,,,,,,,,,,,,,,,,,,,,,,,,,,,,,,,,,,,,,,,,,,,,,,,,,,,,,,,,,,,,,,,,,,,,,,,,,,,,,,,,,,,,,,,,,,,,,,,,,,,,
,,,,,,5fb015142942a535524f55fc,62c53a6cc6e828eebd792f39,2022-07-06_09h39.11.015,Colour_Asymmetry_Pilot,2022.1.3,Win32,59.91970759,62c50e9c1127f2cd403a315f,0,114,114,81,1,onethree,,,,,,,,,,,,,,,,,,,,,,,,,,,,,,,,,,,,,,,,,,,,,,,,,,,,,,,,,,,,,,,,,,,,,,,,,,,,,,,,,,,,,,,,,,,,,,,,,,,,,,,,,,,,,,,,,,,,,,,,,,,,,,,,,,,,,,,,,,,,,,,,,,,,,,,,,,,,,,
,,,,,,5fb015142942a535524f55fc,62c53a6cc6e828eebd792f39,2022-07-06_09h39.11.015,Colour_Asymmetry_Pilot,2022.1.3,Win32,59.91970759,62c50e9c1127f2cd403a315f,0,115,115,126,1,fourtwo,,,,,,,,,,,,,,,,,,,,,,,,,,,,,,,,,,,,,,,,,,,,,,,,,,,,,,,,,,,,,,,,,,,,,,,,,,,,,,,,,,,,,,,,,,,,,,,,,,,,,,,,,,,,,,,,,,,,,,,,,,,,,,,,,,,,,,,,,,,,,,,,,,,,,,,,,,,,,,
,,,,,,5fb015142942a535524f55fc,62c53a6cc6e828eebd792f39,2022-07-06_09h39.11.015,Colour_Asymmetry_Pilot,2022.1.3,Win32,59.91970759,62c50e9c1127f2cd403a315f,0,116,116,97,1,onethree,,,,,,,,,,,,,,,,,,,,,,,,,,,,,,,,,,,,,,,,,,,,,,,,,,,,,,,,,,,,,,,,,,,,,,,,,,,,,,,,,,,,,,,,,,,,,,,,,,,,,,,,,,,,,,,,,,,,,,,,,,,,,,,,,,,,,,,,,,,,,,,,,,,,,,,,,,,,,,
,,,,,,5fb015142942a535524f55fc,62c53a6cc6e828eebd792f39,2022-07-06_09h39.11.015,Colour_Asymmetry_Pilot,2022.1.3,Win32,59.91970759,62c50e9c1127f2cd403a315f,0,117,117,31,1,fourthree,,,,,,,,,,,,,,,,,,,,,,,,,,,,,,,,,,,,,,,,,,,,,,,,,,,,,,,,,,,,,,,,,,,,,,,,,,,,,,,,,,,,,,,,,,,,,,,,,,,,,,,,,,,,,,,,,,,,,,,,,,,,,,,,,,,,,,,,,,,,,,,,,,,,,,,,,,,,,,
,,,,,,5fb015142942a535524f55fc,62c53a6cc6e828eebd792f39,2022-07-06_09h39.11.015,Colour_Asymmetry_Pilot,2022.1.3,Win32,59.91970759,62c50e9c1127f2cd403a315f,0,118,118,46,1,fourtwo,,,,,,,,,,,,,,,,,,,,,,,,,,,,,,,,,,,,,,,,,,,,,,,,,,,,,,,,,,,,,,,,,,,,,,,,,,,,,,,,,,,,,,,,,,,,,,,,,,,,,,,,,,,,,,,,,,,,,,,,,,,,,,,,,,,,,,,,,,,,,,,,,,,,,,,,,,,,,,
,,,,,,5fb015142942a535524f55fc,62c53a6cc6e828eebd792f39,2022-07-06_09h39.11.015,Colour_Asymmetry_Pilot,2022.1.3,Win32,59.91970759,62c50e9c1127f2cd403a315f,0,119,119,119,1,fourthree,,,,,,,,,,,,,,,,,,,,,,,,,,,,,,,,,,,,,,,,,,,,,,,,,,,,,,,,,,,,,,,,,,,,,,,,,,,,,,,,,,,,,,,,,,,,,,,,,,,,,,,,,,,,,,,,,,,,,,,,,,,,,,,,,,,,,,,,,,,,,,,,,,,,,,,,,,,,,,
,,,,,,5fb015142942a535524f55fc,62c53a6cc6e828eebd792f39,2022-07-06_09h39.11.015,Colour_Asymmetry_Pilot,2022.1.3,Win32,59.91970759,62c50e9c1127f2cd403a315f,0,120,120,109,1,threefour,,,,,,,,,,,,,,,,,,,,,,,,,,,,,,,,,,,,,,,,,,,,,,,,,,,,,,,,,,,,,,,,,,,,,,,,,,,,,,,,,,,,,,,,,,,,,,,,,,,,,,,,,,,,,,,,,,,,,,,,,,,,,,,,,,,,,,,,,,,,,,,,,,,,,,,,,,,,,,
,,,,,,5fb015142942a535524f55fc,62c53a6cc6e828eebd792f39,2022-07-06_09h39.11.015,Colour_Asymmetry_Pilot,2022.1.3,Win32,59.91970759,62c50e9c1127f2cd403a315f,0,121,121,66,1,twoone,,,,,,,,,,,,,,,,,,,,,,,,,,,,,,,,,,,,,,,,,,,,,,,,,,,,,,,,,,,,,,,,,,,,,,,,,,,,,,,,,,,,,,,,,,,,,,,,,,,,,,,,,,,,,,,,,,,,,,,,,,,,,,,,,,,,,,,,,,,,,,,,,,,,,,,,,,,,,,
,,,,,,5fb015142942a535524f55fc,62c53a6cc6e828eebd792f39,2022-07-06_09h39.11.015,Colour_Asymmetry_Pilot,2022.1.3,Win32,59.91970759,62c50e9c1127f2cd403a315f,0,122,122,74,1,twoone,,,,,,,,,,,,,,,,,,,,,,,,,,,,,,,,,,,,,,,,,,,,,,,,,,,,,,,,,,,,,,,,,,,,,,,,,,,,,,,,,,,,,,,,,,,,,,,,,,,,,,,,,,,,,,,,,,,,,,,,,,,,,,,,,,,,,,,,,,,,,,,,,,,,,,,,,,,,,,
,,,,,,5fb015142942a535524f55fc,62c53a6cc6e828eebd792f39,2022-07-06_09h39.11.015,Colour_Asymmetry_Pilot,2022.1.3,Win32,59.91970759,62c50e9c1127f2cd403a315f,0,123,123,13,1,threefour,,,,,,,,,,,,,,,,,,,,,,,,,,,,,,,,,,,,,,,,,,,,,,,,,,,,,,,,,,,,,,,,,,,,,,,,,,,,,,,,,,,,,,,,,,,,,,,,,,,,,,,,,,,,,,,,,,,,,,,,,,,,,,,,,,,,,,,,,,,,,,,,,,,,,,,,,,,,,,
,,,,,,5fb015142942a535524f55fc,62c53a6cc6e828eebd792f39,2022-07-06_09h39.11.015,Colour_Asymmetry_Pilot,2022.1.3,Win32,59.91970759,62c50e9c1127f2cd403a315f,0,124,124,35,1,twofour,,,,,,,,,,,,,,,,,,,,,,,,,,,,,,,,,,,,,,,,,,,,,,,,,,,,,,,,,,,,,,,,,,,,,,,,,,,,,,,,,,,,,,,,,,,,,,,,,,,,,,,,,,,,,,,,,,,,,,,,,,,,,,,,,,,,,,,,,,,,,,,,,,,,,,,,,,,,,,
,,,,,,5fb015142942a535524f55fc,62c53a6cc6e828eebd792f39,2022-07-06_09h39.11.015,Colour_Asymmetry_Pilot,2022.1.3,Win32,59.91970759,62c50e9c1127f2cd403a315f,0,125,125,63,1,fourthree,,,,,,,,,,,,,,,,,,,,,,,,,,,,,,,,,,,,,,,,,,,,,,,,,,,,,,,,,,,,,,,,,,,,,,,,,,,,,,,,,,,,,,,,,,,,,,,,,,,,,,,,,,,,,,,,,,,,,,,,,,,,,,,,,,,,,,,,,,,,,,,,,,,,,,,,,,,,,,
,,,,,,5fb015142942a535524f55fc,62c53a6cc6e828eebd792f39,2022-07-06_09h39.11.015,Colour_Asymmetry_Pilot,2022.1.3,Win32,59.91970759,62c50e9c1127f2cd403a315f,0,126,126,147,1,twofour,,,,,,,,,,,,,,,,,,,,,,,,,,,,,,,,,,,,,,,,,,,,,,,,,,,,,,,,,,,,,,,,,,,,,,,,,,,,,,,,,,,,,,,,,,,,,,,,,,,,,,,,,,,,,,,,,,,,,,,,,,,,,,,,,,,,,,,,,,,,,,,,,,,,,,,,,,,,,,
,,,,,,5fb015142942a535524f55fc,62c53a6cc6e828eebd792f39,2022-07-06_09h39.11.015,Colour_Asymmetry_Pilot,2022.1.3,Win32,59.91970759,62c50e9c1127f2cd403a315f,0,127,127,90,1,twoone,,,,,,,,,,,,,,,,,,,,,,,,,,,,,,,,,,,,,,,,,,,,,,,,,,,,,,,,,,,,,,,,,,,,,,,,,,,,,,,,,,,,,,,,,,,,,,,,,,,,,,,,,,,,,,,,,,,,,,,,,,,,,,,,,,,,,,,,,,,,,,,,,,,,,,,,,,,,,,
,,,,,,5fb015142942a535524f55fc,62c53a6cc6e828eebd792f39,2022-07-06_09h39.11.015,Colour_Asymmetry_Pilot,2022.1.3,Win32,59.91970759,62c50e9c1127f2cd403a315f,0,128,128,7,1,fourthree,,,,,,,,,,,,,,,,,,,,,,,,,,,,,,,,,,,,,,,,,,,,,,,,,,,,,,,,,,,,,,,,,,,,,,,,,,,,,,,,,,,,,,,,,,,,,,,,,,,,,,,,,,,,,,,,,,,,,,,,,,,,,,,,,,,,,,,,,,,,,,,,,,,,,,,,,,,,,,
,,,,,,5fb015142942a535524f55fc,62c53a6cc6e828eebd792f39,2022-07-06_09h39.11.015,Colour_Asymmetry_Pilot,2022.1.3,Win32,59.91970759,62c50e9c1127f2cd403a315f,0,129,129,149,1,threefour,,,,,,,,,,,,,,,,,,,,,,,,,,,,,,,,,,,,,,,,,,,,,,,,,,,,,,,,,,,,,,,,,,,,,,,,,,,,,,,,,,,,,,,,,,,,,,,,,,,,,,,,,,,,,,,,,,,,,,,,,,,,,,,,,,,,,,,,,,,,,,,,,,,,,,,,,,,,,,
,,,,,,5fb015142942a535524f55fc,62c53a6cc6e828eebd792f39,2022-07-06_09h39.11.015,Colour_Asymmetry_Pilot,2022.1.3,Win32,59.91970759,62c50e9c1127f2cd403a315f,0,130,130,27,1,twofour,,,,,,,,,,,,,,,,,,,,,,,,,,,,,,,,,,,,,,,,,,,,,,,,,,,,,,,,,,,,,,,,,,,,,,,,,,,,,,,,,,,,,,,,,,,,,,,,,,,,,,,,,,,,,,,,,,,,,,,,,,,,,,,,,,,,,,,,,,,,,,,,,,,,,,,,,,,,,,
,,,,,,5fb015142942a535524f55fc,62c53a6cc6e828eebd792f39,2022-07-06_09h39.11.015,Colour_Asymmetry_Pilot,2022.1.3,Win32,59.91970759,62c50e9c1127f2cd403a315f,0,131,131,9,1,onethree,,,,,,,,,,,,,,,,,,,,,,,,,,,,,,,,,,,,,,,,,,,,,,,,,,,,,,,,,,,,,,,,,,,,,,,,,,,,,,,,,,,,,,,,,,,,,,,,,,,,,,,,,,,,,,,,,,,,,,,,,,,,,,,,,,,,,,,,,,,,,,,,,,,,,,,,,,,,,,
,,,,,,5fb015142942a535524f55fc,62c53a6cc6e828eebd792f39,2022-07-06_09h39.11.015,Colour_Asymmetry_Pilot,2022.1.3,Win32,59.91970759,62c50e9c1127f2cd403a315f,0,132,132,20,1,threeone,,,,,,,,,,,,,,,,,,,,,,,,,,,,,,,,,,,,,,,,,,,,,,,,,,,,,,,,,,,,,,,,,,,,,,,,,,,,,,,,,,,,,,,,,,,,,,,,,,,,,,,,,,,,,,,,,,,,,,,,,,,,,,,,,,,,,,,,,,,,,,,,,,,,,,,,,,,,,,
,,,,,,5fb015142942a535524f55fc,62c53a6cc6e828eebd792f39,2022-07-06_09h39.11.015,Colour_Asymmetry_Pilot,2022.1.3,Win32,59.91970759,62c50e9c1127f2cd403a315f,0,133,133,115,1,twofour,,,,,,,,,,,,,,,,,,,,,,,,,,,,,,,,,,,,,,,,,,,,,,,,,,,,,,,,,,,,,,,,,,,,,,,,,,,,,,,,,,,,,,,,,,,,,,,,,,,,,,,,,,,,,,,,,,,,,,,,,,,,,,,,,,,,,,,,,,,,,,,,,,,,,,,,,,,,,,
,,,,,,5fb015142942a535524f55fc,62c53a6cc6e828eebd792f39,2022-07-06_09h39.11.015,Colour_Asymmetry_Pilot,2022.1.3,Win32,59.91970759,62c50e9c1127f2cd403a315f,0,134,134,113,1,onethree,,,,,,,,,,,,,,,,,,,,,,,,,,,,,,,,,,,,,,,,,,,,,,,,,,,,,,,,,,,,,,,,,,,,,,,,,,,,,,,,,,,,,,,,,,,,,,,,,,,,,,,,,,,,,,,,,,,,,,,,,,,,,,,,,,,,,,,,,,,,,,,,,,,,,,,,,,,,,,
,,,,,,5fb015142942a535524f55fc,62c53a6cc6e828eebd792f39,2022-07-06_09h39.11.015,Colour_Asymmetry_Pilot,2022.1.3,Win32,59.91970759,62c50e9c1127f2cd403a315f,0,135,135,58,1,twoone,,,,,,,,,,,,,,,,,,,,,,,,,,,,,,,,,,,,,,,,,,,,,,,,,,,,,,,,,,,,,,,,,,,,,,,,,,,,,,,,,,,,,,,,,,,,,,,,,,,,,,,,,,,,,,,,,,,,,,,,,,,,,,,,,,,,,,,,,,,,,,,,,,,,,,,,,,,,,,
,,,,,,5fb015142942a535524f55fc,62c53a6cc6e828eebd792f39,2022-07-06_09h39.11.015,Colour_Asymmetry_Pilot,2022.1.3,Win32,59.91970759,62c50e9c1127f2cd403a315f,0,136,136,141,1,threefour,,,,,,,,,,,,,,,,,,,,,,,,,,,,,,,,,,,,,,,,,,,,,,,,,,,,,,,,,,,,,,,,,,,,,,,,,,,,,,,,,,,,,,,,,,,,,,,,,,,,,,,,,,,,,,,,,,,,,,,,,,,,,,,,,,,,,,,,,,,,,,,,,,,,,,,,,,,,,,
,,,,,,5fb015142942a535524f55fc,62c53a6cc6e828eebd792f39,2022-07-06_09h39.11.015,Colour_Asymmetry_Pilot,2022.1.3,Win32,59.91970759,62c50e9c1127f2cd403a315f,0,137,137,30,1,fourtwo,,,,,,,,,,,,,,,,,,,,,,,,,,,,,,,,,,,,,,,,,,,,,,,,,,,,,,,,,,,,,,,,,,,,,,,,,,,,,,,,,,,,,,,,,,,,,,,,,,,,,,,,,,,,,,,,,,,,,,,,,,,,,,,,,,,,,,,,,,,,,,,,,,,,,,,,,,,,,,
,,,,,,5fb015142942a535524f55fc,62c53a6cc6e828eebd792f39,2022-07-06_09h39.11.015,Colour_Asymmetry_Pilot,2022.1.3,Win32,59.91970759,62c50e9c1127f2cd403a315f,0,138,138,50,1,twoone,,,,,,,,,,,,,,,,,,,,,,,,,,,,,,,,,,,,,,,,,,,,,,,,,,,,,,,,,,,,,,,,,,,,,,,,,,,,,,,,,,,,,,,,,,,,,,,,,,,,,,,,,,,,,,,,,,,,,,,,,,,,,,,,,,,,,,,,,,,,,,,,,,,,,,,,,,,,,,
,,,,,,5fb015142942a535524f55fc,62c53a6cc6e828eebd792f39,2022-07-06_09h39.11.015,Colour_Asymmetry_Pilot,2022.1.3,Win32,59.91970759,62c50e9c1127f2cd403a315f,0,139,139,72,1,onetwo,,,,,,,,,,,,,,,,,,,,,,,,,,,,,,,,,,,,,,,,,,,,,,,,,,,,,,,,,,,,,,,,,,,,,,,,,,,,,,,,,,,,,,,,,,,,,,,,,,,,,,,,,,,,,,,,,,,,,,,,,,,,,,,,,,,,,,,,,,,,,,,,,,,,,,,,,,,,,,
,,,,,,5fb015142942a535524f55fc,62c53a6cc6e828eebd792f39,2022-07-06_09h39.11.015,Colour_Asymmetry_Pilot,2022.1.3,Win32,59.91970759,62c50e9c1127f2cd403a315f,0,140,140,41,1,onethree,,,,,,,,,,,,,,,,,,,,,,,,,,,,,,,,,,,,,,,,,,,,,,,,,,,,,,,,,,,,,,,,,,,,,,,,,,,,,,,,,,,,,,,,,,,,,,,,,,,,,,,,,,,,,,,,,,,,,,,,,,,,,,,,,,,,,,,,,,,,,,,,,,,,,,,,,,,,,,
,,,,,,5fb015142942a535524f55fc,62c53a6cc6e828eebd792f39,2022-07-06_09h39.11.015,Colour_Asymmetry_Pilot,2022.1.3,Win32,59.91970759,62c50e9c1127f2cd403a315f,0,141,141,80,1,onetwo,,,,,,,,,,,,,,,,,,,,,,,,,,,,,,,,,,,,,,,,,,,,,,,,,,,,,,,,,,,,,,,,,,,,,,,,,,,,,,,,,,,,,,,,,,,,,,,,,,,,,,,,,,,,,,,,,,,,,,,,,,,,,,,,,,,,,,,,,,,,,,,,,,,,,,,,,,,,,,
,,,,,,5fb015142942a535524f55fc,62c53a6cc6e828eebd792f39,2022-07-06_09h39.11.015,Colour_Asymmetry_Pilot,2022.1.3,Win32,59.91970759,62c50e9c1127f2cd403a315f,0,142,142,79,1,fourthree,,,,,,,,,,,,,,,,,,,,,,,,,,,,,,,,,,,,,,,,,,,,,,,,,,,,,,,,,,,,,,,,,,,,,,,,,,,,,,,,,,,,,,,,,,,,,,,,,,,,,,,,,,,,,,,,,,,,,,,,,,,,,,,,,,,,,,,,,,,,,,,,,,,,,,,,,,,,,,
,,,,,,5fb015142942a535524f55fc,62c53a6cc6e828eebd792f39,2022-07-06_09h39.11.015,Colour_Asymmetry_Pilot,2022.1.3,Win32,59.91970759,62c50e9c1127f2cd403a315f,0,143,143,135,1,fourthree,,,,,,,,,,,,,,,,,,,,,,,,,,,,,,,,,,,,,,,,,,,,,,,,,,,,,,,,,,,,,,,,,,,,,,,,,,,,,,,,,,,,,,,,,,,,,,,,,,,,,,,,,,,,,,,,,,,,,,,,,,,,,,,,,,,,,,,,,,,,,,,,,,,,,,,,,,,,,,
,,,,,,5fb015142942a535524f55fc,62c53a6cc6e828eebd792f39,2022-07-06_09h39.11.015,Colour_Asymmetry_Pilot,2022.1.3,Win32,59.91970759,62c50e9c1127f2cd403a315f,0,144,144,133,1,threefour,,,,,,,,,,,,,,,,,,,,,,,,,,,,,,,,,,,,,,,,,,,,,,,,,,,,,,,,,,,,,,,,,,,,,,,,,,,,,,,,,,,,,,,,,,,,,,,,,,,,,,,,,,,,,,,,,,,,,,,,,,,,,,,,,,,,,,,,,,,,,,,,,,,,,,,,,,,,,,
,,,,,,5fb015142942a535524f55fc,62c53a6cc6e828eebd792f39,2022-07-06_09h39.11.015,Colour_Asymmetry_Pilot,2022.1.3,Win32,59.91970759,62c50e9c1127f2cd403a315f,0,145,145,122,1,twoone,,,,,,,,,,,,,,,,,,,,,,,,,,,,,,,,,,,,,,,,,,,,,,,,,,,,,,,,,,,,,,,,,,,,,,,,,,,,,,,,,,,,,,,,,,,,,,,,,,,,,,,,,,,,,,,,,,,,,,,,,,,,,,,,,,,,,,,,,,,,,,,,,,,,,,,,,,,,,,
,,,,,,5fb015142942a535524f55fc,62c53a6cc6e828eebd792f39,2022-07-06_09h39.11.015,Colour_Asymmetry_Pilot,2022.1.3,Win32,59.91970759,62c50e9c1127f2cd403a315f,0,146,146,44,1,threeone,,,,,,,,,,,,,,,,,,,,,,,,,,,,,,,,,,,,,,,,,,,,,,,,,,,,,,,,,,,,,,,,,,,,,,,,,,,,,,,,,,,,,,,,,,,,,,,,,,,,,,,,,,,,,,,,,,,,,,,,,,,,,,,,,,,,,,,,,,,,,,,,,,,,,,,,,,,,,,
,,,,,,5fb015142942a535524f55fc,62c53a6cc6e828eebd792f39,2022-07-06_09h39.11.015,Colour_Asymmetry_Pilot,2022.1.3,Win32,59.91970759,62c50e9c1127f2cd403a315f,0,147,147,89,1,onethree,,,,,,,,,,,,,,,,,,,,,,,,,,,,,,,,,,,,,,,,,,,,,,,,,,,,,,,,,,,,,,,,,,,,,,,,,,,,,,,,,,,,,,,,,,,,,,,,,,,,,,,,,,,,,,,,,,,,,,,,,,,,,,,,,,,,,,,,,,,,,,,,,,,,,,,,,,,,,,
,,,,,,5fb015142942a535524f55fc,62c53a6cc6e828eebd792f39,2022-07-06_09h39.11.015,Colour_Asymmetry_Pilot,2022.1.3,Win32,59.91970759,62c50e9c1127f2cd403a315f,0,148,148,26,1,twoone,,,,,,,,,,,,,,,,,,,,,,,,,,,,,,,,,,,,,,,,,,,,,,,,,,,,,,,,,,,,,,,,,,,,,,,,,,,,,,,,,,,,,,,,,,,,,,,,,,,,,,,,,,,,,,,,,,,,,,,,,,,,,,,,,,,,,,,,,,,,,,,,,,,,,,,,,,,,,,
,,,,,,5fb015142942a535524f55fc,62c53a6cc6e828eebd792f39,2022-07-06_09h39.11.015,Colour_Asymmetry_Pilot,2022.1.3,Win32,59.91970759,62c50e9c1127f2cd403a315f,0,149,149,24,1,onetwo,,,,,,,,,,,,,,,,,,,,,,,,,,,,,,,,,,,,,,,,,,,,,,,,,,,,,,,,,,,,,,,,,,,,,,,,,,,,,,,,,,,,,,,,,,,,,,,,,,,,,,,,,,,,,,,,,,,,,,,,,,,,,,,,,,,,,,,,,,,,,,,,,,,,,,,,,,,,,,
,,,,,,5fb015142942a535524f55fc,62c53a6cc6e828eebd792f39,2022-07-06_09h39.11.015,Colour_Asymmetry_Pilot,2022.1.3,Win32,59.91970759,62c50e9c1127f2cd403a315f,0,150,150,129,1,onethree,,,,,,,,,,,,,,,,,,,,,,,,,,,,,,,,,,,,,,,,,,,,,,,,,,,,,,,,,,,,,,,,,,,,,,,,,,,,,,,,,,,,,,,,,,,,,,,,,,,,,,,,,,,,,,,,,,,,,,,,,,,,,,,,,,,,,,,,,,,,,,,,,,,,,,,,,,,,,,
,,,,,,5fb015142942a535524f55fc,62c53a6cc6e828eebd792f39,2022-07-06_09h39.11.015,Colour_Asymmetry_Pilot,2022.1.3,Win32,59.91970759,62c50e9c1127f2cd403a315f,0,151,151,73,1,onethree,,,,,,,,,,,,,,,,,,,,,,,,,,,,,,,,,,,,,,,,,,,,,,,,,,,,,,,,,,,,,,,,,,,,,,,,,,,,,,,,,,,,,,,,,,,,,,,,,,,,,,,,,,,,,,,,,,,,,,,,,,,,,,,,,,,,,,,,,,,,,,,,,,,,,,,,,,,,,,
,,,,,,5fb015142942a535524f55fc,62c53a6cc6e828eebd792f39,2022-07-06_09h39.11.015,Colour_Asymmetry_Pilot,2022.1.3,Win32,59.91970759,62c50e9c1127f2cd403a315f,0,152,152,104,1,onetwo,,,,,,,,,,,,,,,,,,,,,,,,,,,,,,,,,,,,,,,,,,,,,,,,,,,,,,,,,,,,,,,,,,,,,,,,,,,,,,,,,,,,,,,,,,,,,,,,,,,,,,,,,,,,,,,,,,,,,,,,,,,,,,,,,,,,,,,,,,,,,,,,,,,,,,,,,,,,,,
,,,,,,5fb015142942a535524f55fc,62c53a6cc6e828eebd792f39,2022-07-06_09h39.11.015,Colour_Asymmetry_Pilot,2022.1.3,Win32,59.91970759,62c50e9c1127f2cd403a315f,0,153,153,145,1,onethree,,,,,,,,,,,,,,,,,,,,,,,,,,,,,,,,,,,,,,,,,,,,,,,,,,,,,,,,,,,,,,,,,,,,,,,,,,,,,,,,,,,,,,,,,,,,,,,,,,,,,,,,,,,,,,,,,,,,,,,,,,,,,,,,,,,,,,,,,,,,,,,,,,,,,,,,,,,,,,
,,,,,,5fb015142942a535524f55fc,62c53a6cc6e828eebd792f39,2022-07-06_09h39.11.015,Colour_Asymmetry_Pilot,2022.1.3,Win32,59.91970759,62c50e9c1127f2cd403a315f,0,154,154,108,1,threeone,,,,,,,,,,,,,,,,,,,,,,,,,,,,,,,,,,,,,,,,,,,,,,,,,,,,,,,,,,,,,,,,,,,,,,,,,,,,,,,,,,,,,,,,,,,,,,,,,,,,,,,,,,,,,,,,,,,,,,,,,,,,,,,,,,,,,,,,,,,,,,,,,,,,,,,,,,,,,,
,,,,,,5fb015142942a535524f55fc,62c53a6cc6e828eebd792f39,2022-07-06_09h39.11.015,Colour_Asymmetry_Pilot,2022.1.3,Win32,59.91970759,62c50e9c1127f2cd403a315f,0,155,155,21,1,threefour,,,,,,,,,,,,,,,,,,,,,,,,,,,,,,,,,,,,,,,,,,,,,,,,,,,,,,,,,,,,,,,,,,,,,,,,,,,,,,,,,,,,,,,,,,,,,,,,,,,,,,,,,,,,,,,,,,,,,,,,,,,,,,,,,,,,,,,,,,,,,,,,,,,,,,,,,,,,,,
,,,,,,5fb015142942a535524f55fc,62c53a6cc6e828eebd792f39,2022-07-06_09h39.11.015,Colour_Asymmetry_Pilot,2022.1.3,Win32,59.91970759,62c50e9c1127f2cd403a315f,0,156,156,15,1,fourthree,,,,,,,,,,,,,,,,,,,,,,,,,,,,,,,,,,,,,,,,,,,,,,,,,,,,,,,,,,,,,,,,,,,,,,,,,,,,,,,,,,,,,,,,,,,,,,,,,,,,,,,,,,,,,,,,,,,,,,,,,,,,,,,,,,,,,,,,,,,,,,,,,,,,,,,,,,,,,,
,,,,,,5fb015142942a535524f55fc,62c53a6cc6e828eebd792f39,2022-07-06_09h39.11.015,Colour_Asymmetry_Pilot,2022.1.3,Win32,59.91970759,62c50e9c1127f2cd403a315f,0,157,157,130,1,twoone,,,,,,,,,,,,,,,,,,,,,,,,,,,,,,,,,,,,,,,,,,,,,,,,,,,,,,,,,,,,,,,,,,,,,,,,,,,,,,,,,,,,,,,,,,,,,,,,,,,,,,,,,,,,,,,,,,,,,,,,,,,,,,,,,,,,,,,,,,,,,,,,,,,,,,,,,,,,,,
,,,,,,5fb015142942a535524f55fc,62c53a6cc6e828eebd792f39,2022-07-06_09h39.11.015,Colour_Asymmetry_Pilot,2022.1.3,Win32,59.91970759,62c50e9c1127f2cd403a315f,0,158,158,92,1,threeone,,,,,,,,,,,,,,,,,,,,,,,,,,,,,,,,,,,,,,,,,,,,,,,,,,,,,,,,,,,,,,,,,,,,,,,,,,,,,,,,,,,,,,,,,,,,,,,,,,,,,,,,,,,,,,,,,,,,,,,,,,,,,,,,,,,,,,,,,,,,,,,,,,,,,,,,,,,,,,
,,,,,,5fb015142942a535524f55fc,62c53a6cc6e828eebd792f39,2022-07-06_09h39.11.015,Colour_Asymmetry_Pilot,2022.1.3,Win32,59.91970759,62c50e9c1127f2cd403a315f,0,159,159,51,1,twofour,,,,,,,,,,,,,,,,,,,,,,,,,,,,,,,,,,,,,,,,,,,,,,,,,,,,,,,,,,,,,,,,,,,,,,,,,,,,,,,,,,,,,,,,,,,,,,,,,,,,,,,,,,,,,,,,,,,,,,,,,,,,,,,,,,,,,,,,,,,,,,,,,,,,,,,,,,,,,,
,,,,,,5fb015142942a535524f55fc,62c53a6cc6e828eebd792f39,2022-07-06_09h39.11.015,Colour_Asymmetry_Pilot,2022.1.3,Win32,59.91970759,62c50e9c1127f2cd403a315f,0,160,160,39,1,fourthree,,,,,,,,,,,,,,,,,,,,,,,,,,,,,,,,,,,,,,,,,,,,,,,,,,,,,,,,,,,,,,,,,,,,,,,,,,,,,,,,,,,,,,,,,,,,,,,,,,,,,,,,,,,,,,,,,,,,,,,,,,,,,,,,,,,,,,,,,,,,,,,,,,,,,,,,,,,,,,
,,,,,,5fb015142942a535524f55fc,62c53a6cc6e828eebd792f39,2022-07-06_09h39.11.015,Colour_Asymmetry_Pilot,2022.1.3,Win32,59.91970759,62c50e9c1127f2cd403a315f,0,161,161,85,1,threefour,,,,,,,,,,,,,,,,,,,,,,,,,,,,,,,,,,,,,,,,,,,,,,,,,,,,,,,,,,,,,,,,,,,,,,,,,,,,,,,,,,,,,,,,,,,,,,,,,,,,,,,,,,,,,,,,,,,,,,,,,,,,,,,,,,,,,,,,,,,,,,,,,,,,,,,,,,,,,,
,,,,,,5fb015142942a535524f55fc,62c53a6cc6e828eebd792f39,2022-07-06_09h39.11.015,Colour_Asymmetry_Pilot,2022.1.3,Win32,59.91970759,62c50e9c1127f2cd403a315f,,,,,,,space,7.8206,space,8.9344,space,45.7872,space,28.1257,space,2.7843,space,28.3922,"[-0.10599999999999998,-0.10599999999999998,0.5841999999999998]",onethree,"[0.9763999999999999,0.8588,-0.05900000000000005]",-3,2.4679,-49,49,1,0,0,response7disk_5,-6,-7,1,0,0,rectangle_8,34,-84,1,0,0,response3disk_7,4,1,-2,-1,1,0,0,rectangle_4,0,0,0,0,1,,,,,,,,,,,,,,,,,,,,,,,,,,,,,,,,,,,,,,,,,,,,,,,,,,,,,,,,,,,,,,,,,,,,,,,,,,,,,,,,,,,,,,,,,,,,,,,,,,,,,,,,,,,,,,
,,,,,,5fb015142942a535524f55fc,62c53a6cc6e828eebd792f39,2022-07-06_09h39.11.015,Colour_Asymmetry_Pilot,2022.1.3,Win32,59.91970759,62c50e9c1127f2cd403a315f,,,,,,,,,,,,,,,,,,,"[0.7646000000000002,0.07440000000000002,0.2704]",fourtwo,"[-0.4276,0.0038000000000000256,-0.3256]",-4,1.5685,-49,81,1,0,0,response7disk_5,1,-6,1,0,0,rectangle_8,1,-6,1,0,0,,,1,1,-6,1,0,0,,1,0,1,0,1,,,,,,,,,,,,,,,,,,,,,,,,,,,,,,,,,,,,,,,,,,,,,,,,,,,,,,,,,,,,,,,,,,,,,,,,,,,,,,,,,,,,,,,,,,,,,,,,,,,,,,,,,,,,,,
,,,,,,5fb015142942a535524f55fc,62c53a6cc6e828eebd792f39,2022-07-06_09h39.11.015,Colour_Asymmetry_Pilot,2022.1.3,Win32,59.91970759,62c50e9c1127f2cd403a315f,,,,,,,,,,,,,,,,,,,"[0.7646000000000002,0.07440000000000002,0.2704]",threeone,"[0.6547999999999998,-0.043199999999999905,-0.011800000000000033]",4,1.7566,58,74,1,0,0,response1disk_5,30,11,1,0,0,rectangle_8,30,11,1,0,0,,,1,30,11,1,0,0,,2,0,2,0,1,,,,,,,,,,,,,,,,,,,,,,,,,,,,,,,,,,,,,,,,,,,,,,,,,,,,,,,,,,,,,,,,,,,,,,,,,,,,,,,,,,,,,,,,,,,,,,,,,,,,,,,,,,,,,,
,,,,,,5fb015142942a535524f55fc,62c53a6cc6e828eebd792f39,2022-07-06_09h39.11.015,Colour_Asymmetry_Pilot,2022.1.3,Win32,59.91970759,62c50e9c1127f2cd403a315f,,,,,,,,,,,,,,,,,,,"[-0.5688,-0.08239999999999992,-0.1844]",fourtwo,"[-0.9688,-0.7412000000000001,-0.4902000000000001]",-2,2.4373,-88,-54,1,0,0,response5disk_5,6,-3,1,0,0,rectangle_8,6,-3,1,0,0,,,1,6,-3,1,0,0,,3,0,3,0,1,,,,,,,,,,,,,,,,,,,,,,,,,,,,,,,,,,,,,,,,,,,,,,,,,,,,,,,,,,,,,,,,,,,,,,,,,,,,,,,,,,,,,,,,,,,,,,,,,,,,,,,,,,,,,,
,,,,,,5fb015142942a535524f55fc,62c53a6cc6e828eebd792f39,2022-07-06_09h39.11.015,Colour_Asymmetry_Pilot,2022.1.3,Win32,59.91970759,62c50e9c1127f2cd403a315f,,,,,,,,,,,,,,,,,,,"[-0.17659999999999998,-0.2864,-0.8354]",twofour,"[-0.48240000000000005,0.3175999999999999,0.2156]",-4,1.1208,-34,109,1,0,0,response7disk_5,4,-2,1,0,0,rectangle_8,4,-2,1,0,0,,,1,4,-2,1,0,0,,4,0,4,0,1,,,,,,,,,,,,,,,,,,,,,,,,,,,,,,,,,,,,,,,,,,,,,,,,,,,,,,,,,,,,,,,,,,,,,,,,,,,,,,,,,,,,,,,,,,,,,,,,,,,,,,,,,,,,,,
,,,,,,5fb015142942a535524f55fc,62c53a6cc6e828eebd792f39,2022-07-06_09h39.11.015,Colour_Asymmetry_Pilot,2022.1.3,Win32,59.91970759,62c50e9c1127f2cd403a315f,,,,,,,,,,,,,,,,,,,"[-0.9688,-0.4902000000000001,-0.12159999999999993]",twofour,"[-0.24719999999999998,-0.0354000000000001,0.3175999999999999]",-2,2.0155,-84,-56,1,0,0,response5disk_5,-10,-4,1,0,0,rectangle_8,-10,-4,1,0,0,,,1,-10,-4,1,0,0,,5,0,5,0,1,,,,,,,,,,,,,,,,,,,,,,,,,,,,,,,,,,,,,,,,,,,,,,,,,,,,,,,,,,,,,,,,,,,,,,,,,,,,,,,,,,,,,,,,,,,,,,,,,,,,,,,,,,,,,,
,,,,,,5fb015142942a535524f55fc,62c53a6cc6e828eebd792f39,2022-07-06_09h39.11.015,Colour_Asymmetry_Pilot,2022.1.3,Win32,59.91970759,62c50e9c1127f2cd403a315f,,,,,,,,,,,,,,,,,,,"[-0.09019999999999995,0.44300000000000006,0.5371999999999999]",twoone,"[-0.9216,-0.5529999999999999,-0.3962]",-3,2.0552,-64,45,1,0,0,response7disk_5,-5,-2,1,0,0,rectangle_8,-5,-2,1,0,0,,,1,-5,-2,1,0,0,,6,0,6,0,1,,,,,,,,,,,,,,,,,,,,,,,,,,,,,,,,,,,,,,,,,,,,,,,,,,,,,,,,,,,,,,,,,,,,,,,,,,,,,,,,,,,,,,,,,,,,,,,,,,,,,,,,,,,,,,
,,,,,,5fb015142942a535524f55fc,62c53a6cc6e828eebd792f39,2022-07-06_09h39.11.015,Colour_Asymmetry_Pilot,2022.1.3,Win32,59.91970759,62c50e9c1127f2cd403a315f,,,,,,,,,,,,,,,,,,,,twoone,,-2,2.0194,,,,,,,,,,,,,,,,,,,,,,,,,,,,,,,,space,4.1745,"[0.2862,0.7802,0.3568]","[-0.4746,-0.0354000000000001,0.5449999999999999]",-57,-30,1,0,0,response5disk,0,6,1,0,0,rectangle,0,6,1,0,0,,2,0.0026,0,0,6,1,0,0,0,0,0,113,1,32,second,,,,,,,,,,,,,,,,,,,,,,,,,,,,,,,,,,,,,,,,,,,,,,,,,,,,,,,,,,,,,,,,,,,,,,,,,
,,,,,,5fb015142942a535524f55fc,62c53a6cc6e828eebd792f39,2022-07-06_09h39.11.015,Colour_Asymmetry_Pilot,2022.1.3,Win32,59.91970759,62c50e9c1127f2cd403a315f,,,,,,,,,,,,,,,,,,,,threeone,,-4,0.7857,,,,,,,,,,,,,,,,,,,,,,,,,,,,,,,,,,"[-0.2942,-0.24719999999999998,-0.357]","[-0.30200000000000005,0.14500000000000002,0.2784]",-32,78,1,0,0,response7disk,18,-4,1,0,0,rectangle,18,-4,1,0,0,,2,0.0004,0,18,-4,1,0,0,0,1,1,126,1,45,second,,,,,,,,,,,,,,,,,,,,,,,,,,,,,,,,,,,,,,,,,,,,,,,,,,,,,,,,,,,,,,,,,,,,,,,,,
,,,,,,5fb015142942a535524f55fc,62c53a6cc6e828eebd792f39,2022-07-06_09h39.11.015,Colour_Asymmetry_Pilot,2022.1.3,Win32,59.91970759,62c50e9c1127f2cd403a315f,,,,,,,,,,,,,,,,,,,,fourtwo,,-2,1.3021,,,,,,,,,,,,,,,,,,,,,,,,,,,,,,,,,,"[0.40379999999999994,0.09000000000000008,0.44300000000000006]","[-0.34920000000000007,-0.702,-0.5216]",-68,-40,1,0,0,response5disk,12,2,1,0,0,rectangle,12,2,1,0,0,,1,0.003,0,12,2,1,0,0,0,2,2,144,1,63,second,,,,,,,,,,,,,,,,,,,,,,,,,,,,,,,,,,,,,,,,,,,,,,,,,,,,,,,,,,,,,,,,,,,,,,,,,
,,,,,,5fb015142942a535524f55fc,62c53a6cc6e828eebd792f39,2022-07-06_09h39.11.015,Colour_Asymmetry_Pilot,2022.1.3,Win32,59.91970759,62c50e9c1127f2cd403a315f,,,,,,,,,,,,,,,,,,,,fourthree,,-4,0.6342,,,,,,,,,,,,,,,,,,,,,,,,,,,,,,,,,,"[0.04299999999999993,0.16060000000000008,-0.6628000000000001]","[-0.5452,-0.608,0.2470000000000001]",-38,90,1,0,0,response7disk,14,8,1,0,0,rectangle,14,8,1,0,0,,3,0.0031,0,14,8,1,0,0,0,3,3,44,1,44,first,,,,,,,,,,,,,,,,,,,,,,,,,,,,,,,,,,,,,,,,,,,,,,,,,,,,,,,,,,,,,,,,,,,,,,,,,
,,,,,,5fb015142942a535524f55fc,62c53a6cc6e828eebd792f39,2022-07-06_09h39.11.015,Colour_Asymmetry_Pilot,2022.1.3,Win32,59.91970759,62c50e9c1127f2cd403a315f,,,,,,,,,,,,,,,,,,,,twofour,,-4,0.733,,,,,,,,,,,,,,,,,,,,,,,,,,,,,,,,,,"[-0.4668,-0.8746,-0.2942]","[0.3802000000000001,0.19199999999999995,-0.6394]",-35,83,1,0,0,response7disk,3,-8,1,0,0,rectangle,3,-8,1,0,0,,2,0.0029,0,3,-8,1,0,0,0,4,4,22,1,22,first,,,,,,,,,,,,,,,,,,,,,,,,,,,,,,,,,,,,,,,,,,,,,,,,,,,,,,,,,,,,,,,,,,,,,,,,,
,,,,,,5fb015142942a535524f55fc,62c53a6cc6e828eebd792f39,2022-07-06_09h39.11.015,Colour_Asymmetry_Pilot,2022.1.3,Win32,59.91970759,62c50e9c1127f2cd403a315f,,,,,,,,,,,,,,,,,,,,onetwo,,-4,0.616,,,,,,,,,,,,,,,,,,,,,,,,,,,,,,,,,,"[0.40379999999999994,0.09000000000000008,0.44300000000000006]","[0.37240000000000006,0.4980000000000002,-0.2864]",-46,78,1,0,0,response7disk,-13,-4,1,0,0,rectangle,-13,-4,1,0,0,,3,0.0034,0,-13,-4,1,0,0,0,5,5,92,1,11,second,,,,,,,,,,,,,,,,,,,,,,,,,,,,,,,,,,,,,,,,,,,,,,,,,,,,,,,,,,,,,,,,,,,,,,,,,
,,,,,,5fb015142942a535524f55fc,62c53a6cc6e828eebd792f39,2022-07-06_09h39.11.015,Colour_Asymmetry_Pilot,2022.1.3,Win32,59.91970759,62c50e9c1127f2cd403a315f,,,,,,,,,,,,,,,,,,,,threeone,,-3,1.066,,,,,,,,,,,,,,,,,,,,,,,,,,,,,,,,,,"[0.4196,0.4665999999999999,0.3568]","[-0.10599999999999998,-0.10599999999999998,0.5841999999999998]",-52,40,1,0,0,response7disk,2,8,1,0,0,rectangle,2,8,1,0,0,,2,0.003,0,2,8,1,0,0,0,6,6,9,1,9,first,,,,,,,,,,,,,,,,,,,,,,,,,,,,,,,,,,,,,,,,,,,,,,,,,,,,,,,,,,,,,,,,,,,,,,,,,
,,,,,,5fb015142942a535524f55fc,62c53a6cc6e828eebd792f39,2022-07-06_09h39.11.015,Colour_Asymmetry_Pilot,2022.1.3,Win32,59.91970759,62c50e9c1127f2cd403a315f,,,,,,,,,,,,,,,,,,,,twofour,,-4,0.5667,,,,,,,,,,,,,,,,,,,,,,,,,,,,,,,,,,"[0.11359999999999992,0.6312,0.5213999999999999]","[0.5528,0.7409999999999999,-0.71]",-26,87,1,0,0,response7disk,11,10,1,0,0,rectangle,11,10,1,0,0,,1,0.003,0,11,10,1,0,0,0,7,7,54,1,54,first,,,,,,,,,,,,,,,,,,,,,,,,,,,,,,,,,,,,,,,,,,,,,,,,,,,,,,,,,,,,,,,,,,,,,,,,,
,,,,,,5fb015142942a535524f55fc,62c53a6cc6e828eebd792f39,2022-07-06_09h39.11.015,Colour_Asymmetry_Pilot,2022.1.3,Win32,59.91970759,62c50e9c1127f2cd403a315f,,,,,,,,,,,,,,,,,,,,fourthree,,-3,1.2517,,,,,,,,,,,,,,,,,,,,,,,,,,,,,,,,,,"[0.9763999999999999,0.8588,-0.05900000000000005]","[0.05879999999999996,0.2784,0.5841999999999998]",-90,47,1,0,0,response7disk,7,5,1,0,0,rectangle,7,5,1,0,0,,2,0.0024,0,7,5,1,0,0,0,8,8,28,1,28,first,,,,,,,,,,,,,,,,,,,,,,,,,,,,,,,,,,,,,,,,,,,,,,,,,,,,,,,,,,,,,,,,,,,,,,,,,
,,,,,,5fb015142942a535524f55fc,62c53a6cc6e828eebd792f39,2022-07-06_09h39.11.015,Colour_Asymmetry_Pilot,2022.1.3,Win32,59.91970759,62c50e9c1127f2cd403a315f,,,,,,,,,,,,,,,,,,,,threeone,,-4,0.4833,,,,,,,,,,,,,,,,,,,,,,,,,,,,,,,,,,"[0.9686000000000001,0.3802000000000001,0.19999999999999996]","[-0.9766,-0.6472,0.07440000000000002]",-38,68,1,0,0,response7disk,-7,9,1,0,0,rectangle,-7,9,1,0,0,,1,0.0022,0,-7,9,1,0,0,0,9,9,137,1,56,second,,,,,,,,,,,,,,,,,,,,,,,,,,,,,,,,,,,,,,,,,,,,,,,,,,,,,,,,,,,,,,,,,,,,,,,,,
,,,,,,5fb015142942a535524f55fc,62c53a6cc6e828eebd792f39,2022-07-06_09h39.11.015,Colour_Asymmetry_Pilot,2022.1.3,Win32,59.91970759,62c50e9c1127f2cd403a315f,,,,,,,,,,,,,,,,,,,,fourtwo,,-2,0.9159,,,,,,,,,,,,,,,,,,,,,,,,,,,,,,,,,,"[0.7018,0.7802,-0.16079999999999994]","[0.37240000000000006,-0.050999999999999934,-0.5216]",-74,-28,1,0,0,response5disk,-20,1,1,0,0,rectangle,-20,1,1,0,0,,1,0.001,0,-20,1,1,0,0,0,10,10,8,1,8,first,,,,,,,,,,,,,,,,,,,,,,,,,,,,,,,,,,,,,,,,,,,,,,,,,,,,,,,,,,,,,,,,,,,,,,,,,
,,,,,,5fb015142942a535524f55fc,62c53a6cc6e828eebd792f39,2022-07-06_09h39.11.015,Colour_Asymmetry_Pilot,2022.1.3,Win32,59.91970759,62c50e9c1127f2cd403a315f,,,,,,,,,,,,,,,,,,,,fourtwo,,-3,0.6321,,,,,,,,,,,,,,,,,,,,,,,,,,,,,,,,,,"[-0.30200000000000005,0.14500000000000002,0.2784]","[-0.2942,-0.24719999999999998,-0.357]",-54,30,1,0,0,response7disk,-3,-3,1,0,0,rectangle,-3,-3,1,0,0,,3,0.0017,0,-3,-3,1,0,0,0,11,11,45,1,45,first,,,,,,,,,,,,,,,,,,,,,,,,,,,,,,,,,,,,,,,,,,,,,,,,,,,,,,,,,,,,,,,,,,,,,,,,,
,,,,,,5fb015142942a535524f55fc,62c53a6cc6e828eebd792f39,2022-07-06_09h39.11.015,Colour_Asymmetry_Pilot,2022.1.3,Win32,59.91970759,62c50e9c1127f2cd403a315f,,,,,,,,,,,,,,,,,,,,onetwo,,-4,0.5227,,,,,,,,,,,,,,,,,,,,,,,,,,,,,,,,,,"[-0.9138,-0.5296000000000001,-0.5529999999999999]","[0.5449999999999999,-0.31000000000000005,-0.0354000000000001]",-43,49,1,0,0,response7disk,-11,-5,1,0,0,rectangle,-11,-5,1,0,0,,1,0.0022,0,-11,-5,1,0,0,0,12,12,27,1,27,first,,,,,,,,,,,,,,,,,,,,,,,,,,,,,,,,,,,,,,,,,,,,,,,,,,,,,,,,,,,,,,,,,,,,,,,,,
,,,,,,5fb015142942a535524f55fc,62c53a6cc6e828eebd792f39,2022-07-06_09h39.11.015,Colour_Asymmetry_Pilot,2022.1.3,Win32,59.91970759,62c50e9c1127f2cd403a315f,,,,,,,,,,,,,,,,,,,,threeone,,-4,0.9823,,,,,,,,,,,,,,,,,,,,,,,,,,,,,,,,,,"[-0.4746,-0.0354000000000001,0.5449999999999999]","[0.9842,0.7409999999999999,-0.6628000000000001]",-35,78,1,0,0,response7disk,0,-2,1,0,0,rectangle,0,-2,1,0,0,,1,0.002,0,0,-2,1,0,0,0,13,13,59,1,59,first,,,,,,,,,,,,,,,,,,,,,,,,,,,,,,,,,,,,,,,,,,,,,,,,,,,,,,,,,,,,,,,,,,,,,,,,,
,,,,,,5fb015142942a535524f55fc,62c53a6cc6e828eebd792f39,2022-07-06_09h39.11.015,Colour_Asymmetry_Pilot,2022.1.3,Win32,59.91970759,62c50e9c1127f2cd403a315f,,,,,,,,,,,,,,,,,,,,threeone,,-4,0.5308,,,,,,,,,,,,,,,,,,,,,,,,,,,,,,,,,,"[0.9372,0.20779999999999998,0.2704]","[-0.5922000000000001,-0.7492000000000001,-0.5296000000000001]",-54,95,1,0,0,response7disk,11,2,1,0,0,rectangle,11,2,1,0,0,,2,0.0036,0,11,2,1,0,0,0,14,14,65,1,65,first,,,,,,,,,,,,,,,,,,,,,,,,,,,,,,,,,,,,,,,,,,,,,,,,,,,,,,,,,,,,,,,,,,,,,,,,,
,,,,,,5fb015142942a535524f55fc,62c53a6cc6e828eebd792f39,2022-07-06_09h39.11.015,Colour_Asymmetry_Pilot,2022.1.3,Win32,59.91970759,62c50e9c1127f2cd403a315f,,,,,,,,,,,,,,,,,,,,fourtwo,,-3,0.6166,,,,,,,,,,,,,,,,,,,,,,,,,,,,,,,,,,"[-0.01980000000000004,-0.5138,-0.38039999999999996]","[-0.4668,-0.8746,-0.2942]",-58,44,1,0,0,response7disk,1,7,1,0,0,rectangle,1,7,1,0,0,,2,0.0002,0,1,7,1,0,0,0,15,15,153,1,72,second,,,,,,,,,,,,,,,,,,,,,,,,,,,,,,,,,,,,,,,,,,,,,,,,,,,,,,,,,,,,,,,,,,,,,,,,,
,,,,,,5fb015142942a535524f55fc,62c53a6cc6e828eebd792f39,2022-07-06_09h39.11.015,Colour_Asymmetry_Pilot,2022.1.3,Win32,59.91970759,62c50e9c1127f2cd403a315f,,,,,,,,,,,,,,,,,,,,fourtwo,,-4,0.4116,,,,,,,,,,,,,,,,,,,,,,,,,,,,,,,,,,"[-0.9766,-0.34920000000000007,0.2156]","[0.40379999999999994,0.09000000000000008,0.44300000000000006]",-48,74,1,0,0,response7disk,-11,3,1,0,0,rectangle,-11,3,1,0,0,,3,0.0026,0,-11,3,1,0,0,0,16,16,43,1,43,first,,,,,,,,,,,,,,,,,,,,,,,,,,,,,,,,,,,,,,,,,,,,,,,,,,,,,,,,,,,,,,,,,,,,,,,,,
