trials.thisRepN,trials.thisTrialN,trials.thisN,trials.thisIndex,trials.ran,Colourcodes,participant,session,date,expName,psychopyVersion,OS,frameRate,study_id,trials_4.thisRepN,trials_4.thisTrialN,trials_4.thisN,trials_4.thisIndex,trials_4.ran,StimulusPos,key_resp.keys,key_resp.rt,key_resp_2.keys,key_resp_2.rt,key_resp_15.keys,key_resp_15.rt,key_resp_17.keys,key_resp_17.rt,key_resp_9.keys,key_resp_9.rt,key_resp_10.keys,key_resp_10.rt,Circle1_col,Ecc,Circle2_col,similarity,response_time,mouse_5.x,mouse_5.y,mouse_5.leftButton,mouse_5.midButton,mouse_5.rightButton,mouse_5.clicked_name,mouse_10.x,mouse_10.y,mouse_10.leftButton,mouse_10.midButton,mouse_10.rightButton,mouse_10.clicked_name,mouse_7.x,mouse_7.y,mouse_7.leftButton,mouse_7.midButton,mouse_7.rightButton,catchnumberprac,mouse_6.x,mouse_6.y,mouse_6.leftButton,mouse_6.midButton,mouse_6.rightButton,duringprac.thisRepN,duringprac.thisTrialN,duringprac.thisN,duringprac.thisIndex,duringprac.ran,mouse_7.clicked_name,catchprac,mouse_6.clicked_name,key_resp_22.keys,key_resp_22.rt,Circle1_colour,Circle2_colour,mouse.x,mouse.y,mouse.leftButton,mouse.midButton,mouse.rightButton,mouse.clicked_name,mouse_2.x,mouse_2.y,mouse_2.leftButton,mouse_2.midButton,mouse_2.rightButton,mouse_2.clicked_name,mouse_3.x,mouse_3.y,mouse_3.leftButton,mouse_3.midButton,mouse_3.rightButton,catchresponse,catchnumber,response_time_catch,Catch,mouse_11.x,mouse_11.y,mouse_11.leftButton,mouse_11.midButton,mouse_11.rightButton,trials_2.thisRepN,trials_2.thisTrialN,trials_2.thisN,trials_2.thisIndex,trials_2.ran,Colourpair,Temporder,mouse_3.clicked_name,mouse_11.clicked_name,trials_3.thisRepN,trials_3.thisTrialN,trials_3.thisN,trials_3.thisIndex,trials_3.ran,key_resp_instr_Ishi.keys,key_resp_instr_Ishi.rt,Ishi_trial_keyresp.keys,Ishi_textbox.text,Ishi_mouse.x,Ishi_mouse.y,Ishi_mouse.leftButton,Ishi_mouse.midButton,Ishi_mouse.rightButton,Ishi_mouse.clicked_name,Ishi_loop.thisRepN,Ishi_loop.thisTrialN,Ishi_loop.thisN,Ishi_loop.thisIndex,Ishi_loop.ran,imageaddress,textbox.text,mouse_4.x,mouse_4.y,mouse_4.leftButton,mouse_4.midButton,mouse_4.rightButton,mouse_4.clicked_name,textbox_2.text,mouse_8.x,mouse_8.y,mouse_8.leftButton,mouse_8.midButton,mouse_8.rightButton,mouse_8.clicked_name,textbox_3.text,mouse_9.x,mouse_9.y,mouse_9.leftButton,mouse_9.midButton,mouse_9.rightButton,mouse_9.clicked_name,textbox_4.text,mouse_12.x,mouse_12.y,mouse_12.leftButton,mouse_12.midButton,mouse_12.rightButton,mouse_12.clicked_name,textbox_5.text,mouse_13.x,mouse_13.y,mouse_13.leftButton,mouse_13.midButton,mouse_13.rightButton,mouse_13.clicked_name,textbox_6.text,mouse_14.x,mouse_14.y,mouse_14.leftButton,mouse_14.midButton,mouse_14.rightButton,mouse_14.clicked_name,textbox_7.text,mouse_15.x,mouse_15.y,mouse_15.leftButton,mouse_15.midButton,mouse_15.rightButton,mouse_15.clicked_name
0,0,0,3,1,,5d6ff29b6fa93a001d61fc06,62c5397cf93e51d4ae53c7b9,2022-07-06_10h29.10.313,Colour_Asymmetry_Pilot,2022.1.3,Win32,59.95203837,62c50e9c1127f2cd403a315f,,,,,,,,,,,,,,,,,,,,,,,,,,,,,,,,,,,,,,,,,,,,,,,,,,,,,,,,,,,,,,,,,,,,,,,,,,,,,,,,,,,,,,,,,,,,,,,,,,,,,,,,,,,,,,,,,,,,,,,,,,,,,,,,,,,,,,,,,,,,,,,,,,,,,,,,,,,,,,,,,,,
0,1,1,31,1,,5d6ff29b6fa93a001d61fc06,62c5397cf93e51d4ae53c7b9,2022-07-06_10h29.10.313,Colour_Asymmetry_Pilot,2022.1.3,Win32,59.95203837,62c50e9c1127f2cd403a315f,,,,,,,,,,,,,,,,,,,,,,,,,,,,,,,,,,,,,,,,,,,,,,,,,,,,,,,,,,,,,,,,,,,,,,,,,,,,,,,,,,,,,,,,,,,,,,,,,,,,,,,,,,,,,,,,,,,,,,,,,,,,,,,,,,,,,,,,,,,,,,,,,,,,,,,,,,,,,,,,,,,
0,2,2,65,1,,5d6ff29b6fa93a001d61fc06,62c5397cf93e51d4ae53c7b9,2022-07-06_10h29.10.313,Colour_Asymmetry_Pilot,2022.1.3,Win32,59.95203837,62c50e9c1127f2cd403a315f,,,,,,,,,,,,,,,,,,,,,,,,,,,,,,,,,,,,,,,,,,,,,,,,,,,,,,,,,,,,,,,,,,,,,,,,,,,,,,,,,,,,,,,,,,,,,,,,,,,,,,,,,,,,,,,,,,,,,,,,,,,,,,,,,,,,,,,,,,,,,,,,,,,,,,,,,,,,,,,,,,,
0,3,3,55,1,,5d6ff29b6fa93a001d61fc06,62c5397cf93e51d4ae53c7b9,2022-07-06_10h29.10.313,Colour_Asymmetry_Pilot,2022.1.3,Win32,59.95203837,62c50e9c1127f2cd403a315f,,,,,,,,,,,,,,,,,,,,,,,,,,,,,,,,,,,,,,,,,,,,,,,,,,,,,,,,,,,,,,,,,,,,,,,,,,,,,,,,,,,,,,,,,,,,,,,,,,,,,,,,,,,,,,,,,,,,,,,,,,,,,,,,,,,,,,,,,,,,,,,,,,,,,,,,,,,,,,,,,,,
0,4,4,87,1,,5d6ff29b6fa93a001d61fc06,62c5397cf93e51d4ae53c7b9,2022-07-06_10h29.10.313,Colour_Asymmetry_Pilot,2022.1.3,Win32,59.95203837,62c50e9c1127f2cd403a315f,,,,,,,,,,,,,,,,,,,,,,,,,,,,,,,,,,,,,,,,,,,,,,,,,,,,,,,,,,,,,,,,,,,,,,,,,,,,,,,,,,,,,,,,,,,,,,,,,,,,,,,,,,,,,,,,,,,,,,,,,,,,,,,,,,,,,,,,,,,,,,,,,,,,,,,,,,,,,,,,,,,
0,5,5,22,1,,5d6ff29b6fa93a001d61fc06,62c5397cf93e51d4ae53c7b9,2022-07-06_10h29.10.313,Colour_Asymmetry_Pilot,2022.1.3,Win32,59.95203837,62c50e9c1127f2cd403a315f,,,,,,,,,,,,,,,,,,,,,,,,,,,,,,,,,,,,,,,,,,,,,,,,,,,,,,,,,,,,,,,,,,,,,,,,,,,,,,,,,,,,,,,,,,,,,,,,,,,,,,,,,,,,,,,,,,,,,,,,,,,,,,,,,,,,,,,,,,,,,,,,,,,,,,,,,,,,,,,,,,,
0,6,6,24,1,,5d6ff29b6fa93a001d61fc06,62c5397cf93e51d4ae53c7b9,2022-07-06_10h29.10.313,Colour_Asymmetry_Pilot,2022.1.3,Win32,59.95203837,62c50e9c1127f2cd403a315f,,,,,,,,,,,,,,,,,,,,,,,,,,,,,,,,,,,,,,,,,,,,,,,,,,,,,,,,,,,,,,,,,,,,,,,,,,,,,,,,,,,,,,,,,,,,,,,,,,,,,,,,,,,,,,,,,,,,,,,,,,,,,,,,,,,,,,,,,,,,,,,,,,,,,,,,,,,,,,,,,,,
0,7,7,17,1,,5d6ff29b6fa93a001d61fc06,62c5397cf93e51d4ae53c7b9,2022-07-06_10h29.10.313,Colour_Asymmetry_Pilot,2022.1.3,Win32,59.95203837,62c50e9c1127f2cd403a315f,,,,,,,,,,,,,,,,,,,,,,,,,,,,,,,,,,,,,,,,,,,,,,,,,,,,,,,,,,,,,,,,,,,,,,,,,,,,,,,,,,,,,,,,,,,,,,,,,,,,,,,,,,,,,,,,,,,,,,,,,,,,,,,,,,,,,,,,,,,,,,,,,,,,,,,,,,,,,,,,,,,
0,8,8,18,1,,5d6ff29b6fa93a001d61fc06,62c5397cf93e51d4ae53c7b9,2022-07-06_10h29.10.313,Colour_Asymmetry_Pilot,2022.1.3,Win32,59.95203837,62c50e9c1127f2cd403a315f,,,,,,,,,,,,,,,,,,,,,,,,,,,,,,,,,,,,,,,,,,,,,,,,,,,,,,,,,,,,,,,,,,,,,,,,,,,,,,,,,,,,,,,,,,,,,,,,,,,,,,,,,,,,,,,,,,,,,,,,,,,,,,,,,,,,,,,,,,,,,,,,,,,,,,,,,,,,,,,,,,,
0,9,9,16,1,,5d6ff29b6fa93a001d61fc06,62c5397cf93e51d4ae53c7b9,2022-07-06_10h29.10.313,Colour_Asymmetry_Pilot,2022.1.3,Win32,59.95203837,62c50e9c1127f2cd403a315f,,,,,,,,,,,,,,,,,,,,,,,,,,,,,,,,,,,,,,,,,,,,,,,,,,,,,,,,,,,,,,,,,,,,,,,,,,,,,,,,,,,,,,,,,,,,,,,,,,,,,,,,,,,,,,,,,,,,,,,,,,,,,,,,,,,,,,,,,,,,,,,,,,,,,,,,,,,,,,,,,,,
0,10,10,81,1,,5d6ff29b6fa93a001d61fc06,62c5397cf93e51d4ae53c7b9,2022-07-06_10h29.10.313,Colour_Asymmetry_Pilot,2022.1.3,Win32,59.95203837,62c50e9c1127f2cd403a315f,,,,,,,,,,,,,,,,,,,,,,,,,,,,,,,,,,,,,,,,,,,,,,,,,,,,,,,,,,,,,,,,,,,,,,,,,,,,,,,,,,,,,,,,,,,,,,,,,,,,,,,,,,,,,,,,,,,,,,,,,,,,,,,,,,,,,,,,,,,,,,,,,,,,,,,,,,,,,,,,,,,
0,11,11,46,1,,5d6ff29b6fa93a001d61fc06,62c5397cf93e51d4ae53c7b9,2022-07-06_10h29.10.313,Colour_Asymmetry_Pilot,2022.1.3,Win32,59.95203837,62c50e9c1127f2cd403a315f,,,,,,,,,,,,,,,,,,,,,,,,,,,,,,,,,,,,,,,,,,,,,,,,,,,,,,,,,,,,,,,,,,,,,,,,,,,,,,,,,,,,,,,,,,,,,,,,,,,,,,,,,,,,,,,,,,,,,,,,,,,,,,,,,,,,,,,,,,,,,,,,,,,,,,,,,,,,,,,,,,,
0,12,12,19,1,,5d6ff29b6fa93a001d61fc06,62c5397cf93e51d4ae53c7b9,2022-07-06_10h29.10.313,Colour_Asymmetry_Pilot,2022.1.3,Win32,59.95203837,62c50e9c1127f2cd403a315f,,,,,,,,,,,,,,,,,,,,,,,,,,,,,,,,,,,,,,,,,,,,,,,,,,,,,,,,,,,,,,,,,,,,,,,,,,,,,,,,,,,,,,,,,,,,,,,,,,,,,,,,,,,,,,,,,,,,,,,,,,,,,,,,,,,,,,,,,,,,,,,,,,,,,,,,,,,,,,,,,,,
0,13,13,64,1,,5d6ff29b6fa93a001d61fc06,62c5397cf93e51d4ae53c7b9,2022-07-06_10h29.10.313,Colour_Asymmetry_Pilot,2022.1.3,Win32,59.95203837,62c50e9c1127f2cd403a315f,,,,,,,,,,,,,,,,,,,,,,,,,,,,,,,,,,,,,,,,,,,,,,,,,,,,,,,,,,,,,,,,,,,,,,,,,,,,,,,,,,,,,,,,,,,,,,,,,,,,,,,,,,,,,,,,,,,,,,,,,,,,,,,,,,,,,,,,,,,,,,,,,,,,,,,,,,,,,,,,,,,
0,14,14,12,1,,5d6ff29b6fa93a001d61fc06,62c5397cf93e51d4ae53c7b9,2022-07-06_10h29.10.313,Colour_Asymmetry_Pilot,2022.1.3,Win32,59.95203837,62c50e9c1127f2cd403a315f,,,,,,,,,,,,,,,,,,,,,,,,,,,,,,,,,,,,,,,,,,,,,,,,,,,,,,,,,,,,,,,,,,,,,,,,,,,,,,,,,,,,,,,,,,,,,,,,,,,,,,,,,,,,,,,,,,,,,,,,,,,,,,,,,,,,,,,,,,,,,,,,,,,,,,,,,,,,,,,,,,,
0,15,15,20,1,,5d6ff29b6fa93a001d61fc06,62c5397cf93e51d4ae53c7b9,2022-07-06_10h29.10.313,Colour_Asymmetry_Pilot,2022.1.3,Win32,59.95203837,62c50e9c1127f2cd403a315f,,,,,,,,,,,,,,,,,,,,,,,,,,,,,,,,,,,,,,,,,,,,,,,,,,,,,,,,,,,,,,,,,,,,,,,,,,,,,,,,,,,,,,,,,,,,,,,,,,,,,,,,,,,,,,,,,,,,,,,,,,,,,,,,,,,,,,,,,,,,,,,,,,,,,,,,,,,,,,,,,,,
0,16,16,60,1,,5d6ff29b6fa93a001d61fc06,62c5397cf93e51d4ae53c7b9,2022-07-06_10h29.10.313,Colour_Asymmetry_Pilot,2022.1.3,Win32,59.95203837,62c50e9c1127f2cd403a315f,,,,,,,,,,,,,,,,,,,,,,,,,,,,,,,,,,,,,,,,,,,,,,,,,,,,,,,,,,,,,,,,,,,,,,,,,,,,,,,,,,,,,,,,,,,,,,,,,,,,,,,,,,,,,,,,,,,,,,,,,,,,,,,,,,,,,,,,,,,,,,,,,,,,,,,,,,,,,,,,,,,
0,17,17,34,1,,5d6ff29b6fa93a001d61fc06,62c5397cf93e51d4ae53c7b9,2022-07-06_10h29.10.313,Colour_Asymmetry_Pilot,2022.1.3,Win32,59.95203837,62c50e9c1127f2cd403a315f,,,,,,,,,,,,,,,,,,,,,,,,,,,,,,,,,,,,,,,,,,,,,,,,,,,,,,,,,,,,,,,,,,,,,,,,,,,,,,,,,,,,,,,,,,,,,,,,,,,,,,,,,,,,,,,,,,,,,,,,,,,,,,,,,,,,,,,,,,,,,,,,,,,,,,,,,,,,,,,,,,,
0,18,18,14,1,,5d6ff29b6fa93a001d61fc06,62c5397cf93e51d4ae53c7b9,2022-07-06_10h29.10.313,Colour_Asymmetry_Pilot,2022.1.3,Win32,59.95203837,62c50e9c1127f2cd403a315f,,,,,,,,,,,,,,,,,,,,,,,,,,,,,,,,,,,,,,,,,,,,,,,,,,,,,,,,,,,,,,,,,,,,,,,,,,,,,,,,,,,,,,,,,,,,,,,,,,,,,,,,,,,,,,,,,,,,,,,,,,,,,,,,,,,,,,,,,,,,,,,,,,,,,,,,,,,,,,,,,,,
0,19,19,53,1,,5d6ff29b6fa93a001d61fc06,62c5397cf93e51d4ae53c7b9,2022-07-06_10h29.10.313,Colour_Asymmetry_Pilot,2022.1.3,Win32,59.95203837,62c50e9c1127f2cd403a315f,,,,,,,,,,,,,,,,,,,,,,,,,,,,,,,,,,,,,,,,,,,,,,,,,,,,,,,,,,,,,,,,,,,,,,,,,,,,,,,,,,,,,,,,,,,,,,,,,,,,,,,,,,,,,,,,,,,,,,,,,,,,,,,,,,,,,,,,,,,,,,,,,,,,,,,,,,,,,,,,,,,
0,20,20,38,1,,5d6ff29b6fa93a001d61fc06,62c5397cf93e51d4ae53c7b9,2022-07-06_10h29.10.313,Colour_Asymmetry_Pilot,2022.1.3,Win32,59.95203837,62c50e9c1127f2cd403a315f,,,,,,,,,,,,,,,,,,,,,,,,,,,,,,,,,,,,,,,,,,,,,,,,,,,,,,,,,,,,,,,,,,,,,,,,,,,,,,,,,,,,,,,,,,,,,,,,,,,,,,,,,,,,,,,,,,,,,,,,,,,,,,,,,,,,,,,,,,,,,,,,,,,,,,,,,,,,,,,,,,,
0,21,21,50,1,,5d6ff29b6fa93a001d61fc06,62c5397cf93e51d4ae53c7b9,2022-07-06_10h29.10.313,Colour_Asymmetry_Pilot,2022.1.3,Win32,59.95203837,62c50e9c1127f2cd403a315f,,,,,,,,,,,,,,,,,,,,,,,,,,,,,,,,,,,,,,,,,,,,,,,,,,,,,,,,,,,,,,,,,,,,,,,,,,,,,,,,,,,,,,,,,,,,,,,,,,,,,,,,,,,,,,,,,,,,,,,,,,,,,,,,,,,,,,,,,,,,,,,,,,,,,,,,,,,,,,,,,,,
0,22,22,74,1,,5d6ff29b6fa93a001d61fc06,62c5397cf93e51d4ae53c7b9,2022-07-06_10h29.10.313,Colour_Asymmetry_Pilot,2022.1.3,Win32,59.95203837,62c50e9c1127f2cd403a315f,,,,,,,,,,,,,,,,,,,,,,,,,,,,,,,,,,,,,,,,,,,,,,,,,,,,,,,,,,,,,,,,,,,,,,,,,,,,,,,,,,,,,,,,,,,,,,,,,,,,,,,,,,,,,,,,,,,,,,,,,,,,,,,,,,,,,,,,,,,,,,,,,,,,,,,,,,,,,,,,,,,
0,23,23,8,1,,5d6ff29b6fa93a001d61fc06,62c5397cf93e51d4ae53c7b9,2022-07-06_10h29.10.313,Colour_Asymmetry_Pilot,2022.1.3,Win32,59.95203837,62c50e9c1127f2cd403a315f,,,,,,,,,,,,,,,,,,,,,,,,,,,,,,,,,,,,,,,,,,,,,,,,,,,,,,,,,,,,,,,,,,,,,,,,,,,,,,,,,,,,,,,,,,,,,,,,,,,,,,,,,,,,,,,,,,,,,,,,,,,,,,,,,,,,,,,,,,,,,,,,,,,,,,,,,,,,,,,,,,,
0,24,24,90,1,,5d6ff29b6fa93a001d61fc06,62c5397cf93e51d4ae53c7b9,2022-07-06_10h29.10.313,Colour_Asymmetry_Pilot,2022.1.3,Win32,59.95203837,62c50e9c1127f2cd403a315f,,,,,,,,,,,,,,,,,,,,,,,,,,,,,,,,,,,,,,,,,,,,,,,,,,,,,,,,,,,,,,,,,,,,,,,,,,,,,,,,,,,,,,,,,,,,,,,,,,,,,,,,,,,,,,,,,,,,,,,,,,,,,,,,,,,,,,,,,,,,,,,,,,,,,,,,,,,,,,,,,,,
0,25,25,0,1,,5d6ff29b6fa93a001d61fc06,62c5397cf93e51d4ae53c7b9,2022-07-06_10h29.10.313,Colour_Asymmetry_Pilot,2022.1.3,Win32,59.95203837,62c50e9c1127f2cd403a315f,,,,,,,,,,,,,,,,,,,,,,,,,,,,,,,,,,,,,,,,,,,,,,,,,,,,,,,,,,,,,,,,,,,,,,,,,,,,,,,,,,,,,,,,,,,,,,,,,,,,,,,,,,,,,,,,,,,,,,,,,,,,,,,,,,,,,,,,,,,,,,,,,,,,,,,,,,,,,,,,,,,
0,26,26,26,1,,5d6ff29b6fa93a001d61fc06,62c5397cf93e51d4ae53c7b9,2022-07-06_10h29.10.313,Colour_Asymmetry_Pilot,2022.1.3,Win32,59.95203837,62c50e9c1127f2cd403a315f,,,,,,,,,,,,,,,,,,,,,,,,,,,,,,,,,,,,,,,,,,,,,,,,,,,,,,,,,,,,,,,,,,,,,,,,,,,,,,,,,,,,,,,,,,,,,,,,,,,,,,,,,,,,,,,,,,,,,,,,,,,,,,,,,,,,,,,,,,,,,,,,,,,,,,,,,,,,,,,,,,,
0,27,27,88,1,,5d6ff29b6fa93a001d61fc06,62c5397cf93e51d4ae53c7b9,2022-07-06_10h29.10.313,Colour_Asymmetry_Pilot,2022.1.3,Win32,59.95203837,62c50e9c1127f2cd403a315f,,,,,,,,,,,,,,,,,,,,,,,,,,,,,,,,,,,,,,,,,,,,,,,,,,,,,,,,,,,,,,,,,,,,,,,,,,,,,,,,,,,,,,,,,,,,,,,,,,,,,,,,,,,,,,,,,,,,,,,,,,,,,,,,,,,,,,,,,,,,,,,,,,,,,,,,,,,,,,,,,,,
0,28,28,67,1,,5d6ff29b6fa93a001d61fc06,62c5397cf93e51d4ae53c7b9,2022-07-06_10h29.10.313,Colour_Asymmetry_Pilot,2022.1.3,Win32,59.95203837,62c50e9c1127f2cd403a315f,,,,,,,,,,,,,,,,,,,,,,,,,,,,,,,,,,,,,,,,,,,,,,,,,,,,,,,,,,,,,,,,,,,,,,,,,,,,,,,,,,,,,,,,,,,,,,,,,,,,,,,,,,,,,,,,,,,,,,,,,,,,,,,,,,,,,,,,,,,,,,,,,,,,,,,,,,,,,,,,,,,
0,29,29,5,1,,5d6ff29b6fa93a001d61fc06,62c5397cf93e51d4ae53c7b9,2022-07-06_10h29.10.313,Colour_Asymmetry_Pilot,2022.1.3,Win32,59.95203837,62c50e9c1127f2cd403a315f,,,,,,,,,,,,,,,,,,,,,,,,,,,,,,,,,,,,,,,,,,,,,,,,,,,,,,,,,,,,,,,,,,,,,,,,,,,,,,,,,,,,,,,,,,,,,,,,,,,,,,,,,,,,,,,,,,,,,,,,,,,,,,,,,,,,,,,,,,,,,,,,,,,,,,,,,,,,,,,,,,,
0,30,30,52,1,,5d6ff29b6fa93a001d61fc06,62c5397cf93e51d4ae53c7b9,2022-07-06_10h29.10.313,Colour_Asymmetry_Pilot,2022.1.3,Win32,59.95203837,62c50e9c1127f2cd403a315f,,,,,,,,,,,,,,,,,,,,,,,,,,,,,,,,,,,,,,,,,,,,,,,,,,,,,,,,,,,,,,,,,,,,,,,,,,,,,,,,,,,,,,,,,,,,,,,,,,,,,,,,,,,,,,,,,,,,,,,,,,,,,,,,,,,,,,,,,,,,,,,,,,,,,,,,,,,,,,,,,,,
0,31,31,83,1,,5d6ff29b6fa93a001d61fc06,62c5397cf93e51d4ae53c7b9,2022-07-06_10h29.10.313,Colour_Asymmetry_Pilot,2022.1.3,Win32,59.95203837,62c50e9c1127f2cd403a315f,,,,,,,,,,,,,,,,,,,,,,,,,,,,,,,,,,,,,,,,,,,,,,,,,,,,,,,,,,,,,,,,,,,,,,,,,,,,,,,,,,,,,,,,,,,,,,,,,,,,,,,,,,,,,,,,,,,,,,,,,,,,,,,,,,,,,,,,,,,,,,,,,,,,,,,,,,,,,,,,,,,
0,32,32,35,1,,5d6ff29b6fa93a001d61fc06,62c5397cf93e51d4ae53c7b9,2022-07-06_10h29.10.313,Colour_Asymmetry_Pilot,2022.1.3,Win32,59.95203837,62c50e9c1127f2cd403a315f,,,,,,,,,,,,,,,,,,,,,,,,,,,,,,,,,,,,,,,,,,,,,,,,,,,,,,,,,,,,,,,,,,,,,,,,,,,,,,,,,,,,,,,,,,,,,,,,,,,,,,,,,,,,,,,,,,,,,,,,,,,,,,,,,,,,,,,,,,,,,,,,,,,,,,,,,,,,,,,,,,,
0,33,33,73,1,,5d6ff29b6fa93a001d61fc06,62c5397cf93e51d4ae53c7b9,2022-07-06_10h29.10.313,Colour_Asymmetry_Pilot,2022.1.3,Win32,59.95203837,62c50e9c1127f2cd403a315f,,,,,,,,,,,,,,,,,,,,,,,,,,,,,,,,,,,,,,,,,,,,,,,,,,,,,,,,,,,,,,,,,,,,,,,,,,,,,,,,,,,,,,,,,,,,,,,,,,,,,,,,,,,,,,,,,,,,,,,,,,,,,,,,,,,,,,,,,,,,,,,,,,,,,,,,,,,,,,,,,,,
0,34,34,70,1,,5d6ff29b6fa93a001d61fc06,62c5397cf93e51d4ae53c7b9,2022-07-06_10h29.10.313,Colour_Asymmetry_Pilot,2022.1.3,Win32,59.95203837,62c50e9c1127f2cd403a315f,,,,,,,,,,,,,,,,,,,,,,,,,,,,,,,,,,,,,,,,,,,,,,,,,,,,,,,,,,,,,,,,,,,,,,,,,,,,,,,,,,,,,,,,,,,,,,,,,,,,,,,,,,,,,,,,,,,,,,,,,,,,,,,,,,,,,,,,,,,,,,,,,,,,,,,,,,,,,,,,,,,
0,35,35,79,1,,5d6ff29b6fa93a001d61fc06,62c5397cf93e51d4ae53c7b9,2022-07-06_10h29.10.313,Colour_Asymmetry_Pilot,2022.1.3,Win32,59.95203837,62c50e9c1127f2cd403a315f,,,,,,,,,,,,,,,,,,,,,,,,,,,,,,,,,,,,,,,,,,,,,,,,,,,,,,,,,,,,,,,,,,,,,,,,,,,,,,,,,,,,,,,,,,,,,,,,,,,,,,,,,,,,,,,,,,,,,,,,,,,,,,,,,,,,,,,,,,,,,,,,,,,,,,,,,,,,,,,,,,,
0,36,36,45,1,,5d6ff29b6fa93a001d61fc06,62c5397cf93e51d4ae53c7b9,2022-07-06_10h29.10.313,Colour_Asymmetry_Pilot,2022.1.3,Win32,59.95203837,62c50e9c1127f2cd403a315f,,,,,,,,,,,,,,,,,,,,,,,,,,,,,,,,,,,,,,,,,,,,,,,,,,,,,,,,,,,,,,,,,,,,,,,,,,,,,,,,,,,,,,,,,,,,,,,,,,,,,,,,,,,,,,,,,,,,,,,,,,,,,,,,,,,,,,,,,,,,,,,,,,,,,,,,,,,,,,,,,,,
0,37,37,68,1,,5d6ff29b6fa93a001d61fc06,62c5397cf93e51d4ae53c7b9,2022-07-06_10h29.10.313,Colour_Asymmetry_Pilot,2022.1.3,Win32,59.95203837,62c50e9c1127f2cd403a315f,,,,,,,,,,,,,,,,,,,,,,,,,,,,,,,,,,,,,,,,,,,,,,,,,,,,,,,,,,,,,,,,,,,,,,,,,,,,,,,,,,,,,,,,,,,,,,,,,,,,,,,,,,,,,,,,,,,,,,,,,,,,,,,,,,,,,,,,,,,,,,,,,,,,,,,,,,,,,,,,,,,
0,38,38,71,1,,5d6ff29b6fa93a001d61fc06,62c5397cf93e51d4ae53c7b9,2022-07-06_10h29.10.313,Colour_Asymmetry_Pilot,2022.1.3,Win32,59.95203837,62c50e9c1127f2cd403a315f,,,,,,,,,,,,,,,,,,,,,,,,,,,,,,,,,,,,,,,,,,,,,,,,,,,,,,,,,,,,,,,,,,,,,,,,,,,,,,,,,,,,,,,,,,,,,,,,,,,,,,,,,,,,,,,,,,,,,,,,,,,,,,,,,,,,,,,,,,,,,,,,,,,,,,,,,,,,,,,,,,,
0,39,39,47,1,,5d6ff29b6fa93a001d61fc06,62c5397cf93e51d4ae53c7b9,2022-07-06_10h29.10.313,Colour_Asymmetry_Pilot,2022.1.3,Win32,59.95203837,62c50e9c1127f2cd403a315f,,,,,,,,,,,,,,,,,,,,,,,,,,,,,,,,,,,,,,,,,,,,,,,,,,,,,,,,,,,,,,,,,,,,,,,,,,,,,,,,,,,,,,,,,,,,,,,,,,,,,,,,,,,,,,,,,,,,,,,,,,,,,,,,,,,,,,,,,,,,,,,,,,,,,,,,,,,,,,,,,,,
0,40,40,57,1,,5d6ff29b6fa93a001d61fc06,62c5397cf93e51d4ae53c7b9,2022-07-06_10h29.10.313,Colour_Asymmetry_Pilot,2022.1.3,Win32,59.95203837,62c50e9c1127f2cd403a315f,,,,,,,,,,,,,,,,,,,,,,,,,,,,,,,,,,,,,,,,,,,,,,,,,,,,,,,,,,,,,,,,,,,,,,,,,,,,,,,,,,,,,,,,,,,,,,,,,,,,,,,,,,,,,,,,,,,,,,,,,,,,,,,,,,,,,,,,,,,,,,,,,,,,,,,,,,,,,,,,,,,
0,41,41,82,1,,5d6ff29b6fa93a001d61fc06,62c5397cf93e51d4ae53c7b9,2022-07-06_10h29.10.313,Colour_Asymmetry_Pilot,2022.1.3,Win32,59.95203837,62c50e9c1127f2cd403a315f,,,,,,,,,,,,,,,,,,,,,,,,,,,,,,,,,,,,,,,,,,,,,,,,,,,,,,,,,,,,,,,,,,,,,,,,,,,,,,,,,,,,,,,,,,,,,,,,,,,,,,,,,,,,,,,,,,,,,,,,,,,,,,,,,,,,,,,,,,,,,,,,,,,,,,,,,,,,,,,,,,,
0,42,42,69,1,,5d6ff29b6fa93a001d61fc06,62c5397cf93e51d4ae53c7b9,2022-07-06_10h29.10.313,Colour_Asymmetry_Pilot,2022.1.3,Win32,59.95203837,62c50e9c1127f2cd403a315f,,,,,,,,,,,,,,,,,,,,,,,,,,,,,,,,,,,,,,,,,,,,,,,,,,,,,,,,,,,,,,,,,,,,,,,,,,,,,,,,,,,,,,,,,,,,,,,,,,,,,,,,,,,,,,,,,,,,,,,,,,,,,,,,,,,,,,,,,,,,,,,,,,,,,,,,,,,,,,,,,,,
0,43,43,92,1,,5d6ff29b6fa93a001d61fc06,62c5397cf93e51d4ae53c7b9,2022-07-06_10h29.10.313,Colour_Asymmetry_Pilot,2022.1.3,Win32,59.95203837,62c50e9c1127f2cd403a315f,,,,,,,,,,,,,,,,,,,,,,,,,,,,,,,,,,,,,,,,,,,,,,,,,,,,,,,,,,,,,,,,,,,,,,,,,,,,,,,,,,,,,,,,,,,,,,,,,,,,,,,,,,,,,,,,,,,,,,,,,,,,,,,,,,,,,,,,,,,,,,,,,,,,,,,,,,,,,,,,,,,
0,44,44,29,1,,5d6ff29b6fa93a001d61fc06,62c5397cf93e51d4ae53c7b9,2022-07-06_10h29.10.313,Colour_Asymmetry_Pilot,2022.1.3,Win32,59.95203837,62c50e9c1127f2cd403a315f,,,,,,,,,,,,,,,,,,,,,,,,,,,,,,,,,,,,,,,,,,,,,,,,,,,,,,,,,,,,,,,,,,,,,,,,,,,,,,,,,,,,,,,,,,,,,,,,,,,,,,,,,,,,,,,,,,,,,,,,,,,,,,,,,,,,,,,,,,,,,,,,,,,,,,,,,,,,,,,,,,,
0,45,45,40,1,,5d6ff29b6fa93a001d61fc06,62c5397cf93e51d4ae53c7b9,2022-07-06_10h29.10.313,Colour_Asymmetry_Pilot,2022.1.3,Win32,59.95203837,62c50e9c1127f2cd403a315f,,,,,,,,,,,,,,,,,,,,,,,,,,,,,,,,,,,,,,,,,,,,,,,,,,,,,,,,,,,,,,,,,,,,,,,,,,,,,,,,,,,,,,,,,,,,,,,,,,,,,,,,,,,,,,,,,,,,,,,,,,,,,,,,,,,,,,,,,,,,,,,,,,,,,,,,,,,,,,,,,,,
0,46,46,43,1,,5d6ff29b6fa93a001d61fc06,62c5397cf93e51d4ae53c7b9,2022-07-06_10h29.10.313,Colour_Asymmetry_Pilot,2022.1.3,Win32,59.95203837,62c50e9c1127f2cd403a315f,,,,,,,,,,,,,,,,,,,,,,,,,,,,,,,,,,,,,,,,,,,,,,,,,,,,,,,,,,,,,,,,,,,,,,,,,,,,,,,,,,,,,,,,,,,,,,,,,,,,,,,,,,,,,,,,,,,,,,,,,,,,,,,,,,,,,,,,,,,,,,,,,,,,,,,,,,,,,,,,,,,
0,47,47,72,1,,5d6ff29b6fa93a001d61fc06,62c5397cf93e51d4ae53c7b9,2022-07-06_10h29.10.313,Colour_Asymmetry_Pilot,2022.1.3,Win32,59.95203837,62c50e9c1127f2cd403a315f,,,,,,,,,,,,,,,,,,,,,,,,,,,,,,,,,,,,,,,,,,,,,,,,,,,,,,,,,,,,,,,,,,,,,,,,,,,,,,,,,,,,,,,,,,,,,,,,,,,,,,,,,,,,,,,,,,,,,,,,,,,,,,,,,,,,,,,,,,,,,,,,,,,,,,,,,,,,,,,,,,,
0,48,48,49,1,,5d6ff29b6fa93a001d61fc06,62c5397cf93e51d4ae53c7b9,2022-07-06_10h29.10.313,Colour_Asymmetry_Pilot,2022.1.3,Win32,59.95203837,62c50e9c1127f2cd403a315f,,,,,,,,,,,,,,,,,,,,,,,,,,,,,,,,,,,,,,,,,,,,,,,,,,,,,,,,,,,,,,,,,,,,,,,,,,,,,,,,,,,,,,,,,,,,,,,,,,,,,,,,,,,,,,,,,,,,,,,,,,,,,,,,,,,,,,,,,,,,,,,,,,,,,,,,,,,,,,,,,,,
0,49,49,15,1,,5d6ff29b6fa93a001d61fc06,62c5397cf93e51d4ae53c7b9,2022-07-06_10h29.10.313,Colour_Asymmetry_Pilot,2022.1.3,Win32,59.95203837,62c50e9c1127f2cd403a315f,,,,,,,,,,,,,,,,,,,,,,,,,,,,,,,,,,,,,,,,,,,,,,,,,,,,,,,,,,,,,,,,,,,,,,,,,,,,,,,,,,,,,,,,,,,,,,,,,,,,,,,,,,,,,,,,,,,,,,,,,,,,,,,,,,,,,,,,,,,,,,,,,,,,,,,,,,,,,,,,,,,
0,50,50,56,1,,5d6ff29b6fa93a001d61fc06,62c5397cf93e51d4ae53c7b9,2022-07-06_10h29.10.313,Colour_Asymmetry_Pilot,2022.1.3,Win32,59.95203837,62c50e9c1127f2cd403a315f,,,,,,,,,,,,,,,,,,,,,,,,,,,,,,,,,,,,,,,,,,,,,,,,,,,,,,,,,,,,,,,,,,,,,,,,,,,,,,,,,,,,,,,,,,,,,,,,,,,,,,,,,,,,,,,,,,,,,,,,,,,,,,,,,,,,,,,,,,,,,,,,,,,,,,,,,,,,,,,,,,,
0,51,51,78,1,,5d6ff29b6fa93a001d61fc06,62c5397cf93e51d4ae53c7b9,2022-07-06_10h29.10.313,Colour_Asymmetry_Pilot,2022.1.3,Win32,59.95203837,62c50e9c1127f2cd403a315f,,,,,,,,,,,,,,,,,,,,,,,,,,,,,,,,,,,,,,,,,,,,,,,,,,,,,,,,,,,,,,,,,,,,,,,,,,,,,,,,,,,,,,,,,,,,,,,,,,,,,,,,,,,,,,,,,,,,,,,,,,,,,,,,,,,,,,,,,,,,,,,,,,,,,,,,,,,,,,,,,,,
0,52,52,86,1,,5d6ff29b6fa93a001d61fc06,62c5397cf93e51d4ae53c7b9,2022-07-06_10h29.10.313,Colour_Asymmetry_Pilot,2022.1.3,Win32,59.95203837,62c50e9c1127f2cd403a315f,,,,,,,,,,,,,,,,,,,,,,,,,,,,,,,,,,,,,,,,,,,,,,,,,,,,,,,,,,,,,,,,,,,,,,,,,,,,,,,,,,,,,,,,,,,,,,,,,,,,,,,,,,,,,,,,,,,,,,,,,,,,,,,,,,,,,,,,,,,,,,,,,,,,,,,,,,,,,,,,,,,
0,53,53,89,1,,5d6ff29b6fa93a001d61fc06,62c5397cf93e51d4ae53c7b9,2022-07-06_10h29.10.313,Colour_Asymmetry_Pilot,2022.1.3,Win32,59.95203837,62c50e9c1127f2cd403a315f,,,,,,,,,,,,,,,,,,,,,,,,,,,,,,,,,,,,,,,,,,,,,,,,,,,,,,,,,,,,,,,,,,,,,,,,,,,,,,,,,,,,,,,,,,,,,,,,,,,,,,,,,,,,,,,,,,,,,,,,,,,,,,,,,,,,,,,,,,,,,,,,,,,,,,,,,,,,,,,,,,,
0,54,54,2,1,,5d6ff29b6fa93a001d61fc06,62c5397cf93e51d4ae53c7b9,2022-07-06_10h29.10.313,Colour_Asymmetry_Pilot,2022.1.3,Win32,59.95203837,62c50e9c1127f2cd403a315f,,,,,,,,,,,,,,,,,,,,,,,,,,,,,,,,,,,,,,,,,,,,,,,,,,,,,,,,,,,,,,,,,,,,,,,,,,,,,,,,,,,,,,,,,,,,,,,,,,,,,,,,,,,,,,,,,,,,,,,,,,,,,,,,,,,,,,,,,,,,,,,,,,,,,,,,,,,,,,,,,,,
0,55,55,7,1,,5d6ff29b6fa93a001d61fc06,62c5397cf93e51d4ae53c7b9,2022-07-06_10h29.10.313,Colour_Asymmetry_Pilot,2022.1.3,Win32,59.95203837,62c50e9c1127f2cd403a315f,,,,,,,,,,,,,,,,,,,,,,,,,,,,,,,,,,,,,,,,,,,,,,,,,,,,,,,,,,,,,,,,,,,,,,,,,,,,,,,,,,,,,,,,,,,,,,,,,,,,,,,,,,,,,,,,,,,,,,,,,,,,,,,,,,,,,,,,,,,,,,,,,,,,,,,,,,,,,,,,,,,
0,56,56,48,1,,5d6ff29b6fa93a001d61fc06,62c5397cf93e51d4ae53c7b9,2022-07-06_10h29.10.313,Colour_Asymmetry_Pilot,2022.1.3,Win32,59.95203837,62c50e9c1127f2cd403a315f,,,,,,,,,,,,,,,,,,,,,,,,,,,,,,,,,,,,,,,,,,,,,,,,,,,,,,,,,,,,,,,,,,,,,,,,,,,,,,,,,,,,,,,,,,,,,,,,,,,,,,,,,,,,,,,,,,,,,,,,,,,,,,,,,,,,,,,,,,,,,,,,,,,,,,,,,,,,,,,,,,,
0,57,57,23,1,,5d6ff29b6fa93a001d61fc06,62c5397cf93e51d4ae53c7b9,2022-07-06_10h29.10.313,Colour_Asymmetry_Pilot,2022.1.3,Win32,59.95203837,62c50e9c1127f2cd403a315f,,,,,,,,,,,,,,,,,,,,,,,,,,,,,,,,,,,,,,,,,,,,,,,,,,,,,,,,,,,,,,,,,,,,,,,,,,,,,,,,,,,,,,,,,,,,,,,,,,,,,,,,,,,,,,,,,,,,,,,,,,,,,,,,,,,,,,,,,,,,,,,,,,,,,,,,,,,,,,,,,,,
0,58,58,1,1,,5d6ff29b6fa93a001d61fc06,62c5397cf93e51d4ae53c7b9,2022-07-06_10h29.10.313,Colour_Asymmetry_Pilot,2022.1.3,Win32,59.95203837,62c50e9c1127f2cd403a315f,,,,,,,,,,,,,,,,,,,,,,,,,,,,,,,,,,,,,,,,,,,,,,,,,,,,,,,,,,,,,,,,,,,,,,,,,,,,,,,,,,,,,,,,,,,,,,,,,,,,,,,,,,,,,,,,,,,,,,,,,,,,,,,,,,,,,,,,,,,,,,,,,,,,,,,,,,,,,,,,,,,
0,59,59,63,1,,5d6ff29b6fa93a001d61fc06,62c5397cf93e51d4ae53c7b9,2022-07-06_10h29.10.313,Colour_Asymmetry_Pilot,2022.1.3,Win32,59.95203837,62c50e9c1127f2cd403a315f,,,,,,,,,,,,,,,,,,,,,,,,,,,,,,,,,,,,,,,,,,,,,,,,,,,,,,,,,,,,,,,,,,,,,,,,,,,,,,,,,,,,,,,,,,,,,,,,,,,,,,,,,,,,,,,,,,,,,,,,,,,,,,,,,,,,,,,,,,,,,,,,,,,,,,,,,,,,,,,,,,,
0,60,60,76,1,,5d6ff29b6fa93a001d61fc06,62c5397cf93e51d4ae53c7b9,2022-07-06_10h29.10.313,Colour_Asymmetry_Pilot,2022.1.3,Win32,59.95203837,62c50e9c1127f2cd403a315f,,,,,,,,,,,,,,,,,,,,,,,,,,,,,,,,,,,,,,,,,,,,,,,,,,,,,,,,,,,,,,,,,,,,,,,,,,,,,,,,,,,,,,,,,,,,,,,,,,,,,,,,,,,,,,,,,,,,,,,,,,,,,,,,,,,,,,,,,,,,,,,,,,,,,,,,,,,,,,,,,,,
0,61,61,80,1,,5d6ff29b6fa93a001d61fc06,62c5397cf93e51d4ae53c7b9,2022-07-06_10h29.10.313,Colour_Asymmetry_Pilot,2022.1.3,Win32,59.95203837,62c50e9c1127f2cd403a315f,,,,,,,,,,,,,,,,,,,,,,,,,,,,,,,,,,,,,,,,,,,,,,,,,,,,,,,,,,,,,,,,,,,,,,,,,,,,,,,,,,,,,,,,,,,,,,,,,,,,,,,,,,,,,,,,,,,,,,,,,,,,,,,,,,,,,,,,,,,,,,,,,,,,,,,,,,,,,,,,,,,
0,62,62,25,1,,5d6ff29b6fa93a001d61fc06,62c5397cf93e51d4ae53c7b9,2022-07-06_10h29.10.313,Colour_Asymmetry_Pilot,2022.1.3,Win32,59.95203837,62c50e9c1127f2cd403a315f,,,,,,,,,,,,,,,,,,,,,,,,,,,,,,,,,,,,,,,,,,,,,,,,,,,,,,,,,,,,,,,,,,,,,,,,,,,,,,,,,,,,,,,,,,,,,,,,,,,,,,,,,,,,,,,,,,,,,,,,,,,,,,,,,,,,,,,,,,,,,,,,,,,,,,,,,,,,,,,,,,,
0,63,63,77,1,,5d6ff29b6fa93a001d61fc06,62c5397cf93e51d4ae53c7b9,2022-07-06_10h29.10.313,Colour_Asymmetry_Pilot,2022.1.3,Win32,59.95203837,62c50e9c1127f2cd403a315f,,,,,,,,,,,,,,,,,,,,,,,,,,,,,,,,,,,,,,,,,,,,,,,,,,,,,,,,,,,,,,,,,,,,,,,,,,,,,,,,,,,,,,,,,,,,,,,,,,,,,,,,,,,,,,,,,,,,,,,,,,,,,,,,,,,,,,,,,,,,,,,,,,,,,,,,,,,,,,,,,,,
0,64,64,13,1,,5d6ff29b6fa93a001d61fc06,62c5397cf93e51d4ae53c7b9,2022-07-06_10h29.10.313,Colour_Asymmetry_Pilot,2022.1.3,Win32,59.95203837,62c50e9c1127f2cd403a315f,,,,,,,,,,,,,,,,,,,,,,,,,,,,,,,,,,,,,,,,,,,,,,,,,,,,,,,,,,,,,,,,,,,,,,,,,,,,,,,,,,,,,,,,,,,,,,,,,,,,,,,,,,,,,,,,,,,,,,,,,,,,,,,,,,,,,,,,,,,,,,,,,,,,,,,,,,,,,,,,,,,
0,65,65,33,1,,5d6ff29b6fa93a001d61fc06,62c5397cf93e51d4ae53c7b9,2022-07-06_10h29.10.313,Colour_Asymmetry_Pilot,2022.1.3,Win32,59.95203837,62c50e9c1127f2cd403a315f,,,,,,,,,,,,,,,,,,,,,,,,,,,,,,,,,,,,,,,,,,,,,,,,,,,,,,,,,,,,,,,,,,,,,,,,,,,,,,,,,,,,,,,,,,,,,,,,,,,,,,,,,,,,,,,,,,,,,,,,,,,,,,,,,,,,,,,,,,,,,,,,,,,,,,,,,,,,,,,,,,,
0,66,66,11,1,,5d6ff29b6fa93a001d61fc06,62c5397cf93e51d4ae53c7b9,2022-07-06_10h29.10.313,Colour_Asymmetry_Pilot,2022.1.3,Win32,59.95203837,62c50e9c1127f2cd403a315f,,,,,,,,,,,,,,,,,,,,,,,,,,,,,,,,,,,,,,,,,,,,,,,,,,,,,,,,,,,,,,,,,,,,,,,,,,,,,,,,,,,,,,,,,,,,,,,,,,,,,,,,,,,,,,,,,,,,,,,,,,,,,,,,,,,,,,,,,,,,,,,,,,,,,,,,,,,,,,,,,,,
0,67,67,85,1,,5d6ff29b6fa93a001d61fc06,62c5397cf93e51d4ae53c7b9,2022-07-06_10h29.10.313,Colour_Asymmetry_Pilot,2022.1.3,Win32,59.95203837,62c50e9c1127f2cd403a315f,,,,,,,,,,,,,,,,,,,,,,,,,,,,,,,,,,,,,,,,,,,,,,,,,,,,,,,,,,,,,,,,,,,,,,,,,,,,,,,,,,,,,,,,,,,,,,,,,,,,,,,,,,,,,,,,,,,,,,,,,,,,,,,,,,,,,,,,,,,,,,,,,,,,,,,,,,,,,,,,,,,
0,68,68,54,1,,5d6ff29b6fa93a001d61fc06,62c5397cf93e51d4ae53c7b9,2022-07-06_10h29.10.313,Colour_Asymmetry_Pilot,2022.1.3,Win32,59.95203837,62c50e9c1127f2cd403a315f,,,,,,,,,,,,,,,,,,,,,,,,,,,,,,,,,,,,,,,,,,,,,,,,,,,,,,,,,,,,,,,,,,,,,,,,,,,,,,,,,,,,,,,,,,,,,,,,,,,,,,,,,,,,,,,,,,,,,,,,,,,,,,,,,,,,,,,,,,,,,,,,,,,,,,,,,,,,,,,,,,,
0,69,69,84,1,,5d6ff29b6fa93a001d61fc06,62c5397cf93e51d4ae53c7b9,2022-07-06_10h29.10.313,Colour_Asymmetry_Pilot,2022.1.3,Win32,59.95203837,62c50e9c1127f2cd403a315f,,,,,,,,,,,,,,,,,,,,,,,,,,,,,,,,,,,,,,,,,,,,,,,,,,,,,,,,,,,,,,,,,,,,,,,,,,,,,,,,,,,,,,,,,,,,,,,,,,,,,,,,,,,,,,,,,,,,,,,,,,,,,,,,,,,,,,,,,,,,,,,,,,,,,,,,,,,,,,,,,,,
0,70,70,30,1,,5d6ff29b6fa93a001d61fc06,62c5397cf93e51d4ae53c7b9,2022-07-06_10h29.10.313,Colour_Asymmetry_Pilot,2022.1.3,Win32,59.95203837,62c50e9c1127f2cd403a315f,,,,,,,,,,,,,,,,,,,,,,,,,,,,,,,,,,,,,,,,,,,,,,,,,,,,,,,,,,,,,,,,,,,,,,,,,,,,,,,,,,,,,,,,,,,,,,,,,,,,,,,,,,,,,,,,,,,,,,,,,,,,,,,,,,,,,,,,,,,,,,,,,,,,,,,,,,,,,,,,,,,
0,71,71,58,1,,5d6ff29b6fa93a001d61fc06,62c5397cf93e51d4ae53c7b9,2022-07-06_10h29.10.313,Colour_Asymmetry_Pilot,2022.1.3,Win32,59.95203837,62c50e9c1127f2cd403a315f,,,,,,,,,,,,,,,,,,,,,,,,,,,,,,,,,,,,,,,,,,,,,,,,,,,,,,,,,,,,,,,,,,,,,,,,,,,,,,,,,,,,,,,,,,,,,,,,,,,,,,,,,,,,,,,,,,,,,,,,,,,,,,,,,,,,,,,,,,,,,,,,,,,,,,,,,,,,,,,,,,,
0,72,72,66,1,,5d6ff29b6fa93a001d61fc06,62c5397cf93e51d4ae53c7b9,2022-07-06_10h29.10.313,Colour_Asymmetry_Pilot,2022.1.3,Win32,59.95203837,62c50e9c1127f2cd403a315f,,,,,,,,,,,,,,,,,,,,,,,,,,,,,,,,,,,,,,,,,,,,,,,,,,,,,,,,,,,,,,,,,,,,,,,,,,,,,,,,,,,,,,,,,,,,,,,,,,,,,,,,,,,,,,,,,,,,,,,,,,,,,,,,,,,,,,,,,,,,,,,,,,,,,,,,,,,,,,,,,,,
0,73,73,27,1,,5d6ff29b6fa93a001d61fc06,62c5397cf93e51d4ae53c7b9,2022-07-06_10h29.10.313,Colour_Asymmetry_Pilot,2022.1.3,Win32,59.95203837,62c50e9c1127f2cd403a315f,,,,,,,,,,,,,,,,,,,,,,,,,,,,,,,,,,,,,,,,,,,,,,,,,,,,,,,,,,,,,,,,,,,,,,,,,,,,,,,,,,,,,,,,,,,,,,,,,,,,,,,,,,,,,,,,,,,,,,,,,,,,,,,,,,,,,,,,,,,,,,,,,,,,,,,,,,,,,,,,,,,
0,74,74,59,1,,5d6ff29b6fa93a001d61fc06,62c5397cf93e51d4ae53c7b9,2022-07-06_10h29.10.313,Colour_Asymmetry_Pilot,2022.1.3,Win32,59.95203837,62c50e9c1127f2cd403a315f,,,,,,,,,,,,,,,,,,,,,,,,,,,,,,,,,,,,,,,,,,,,,,,,,,,,,,,,,,,,,,,,,,,,,,,,,,,,,,,,,,,,,,,,,,,,,,,,,,,,,,,,,,,,,,,,,,,,,,,,,,,,,,,,,,,,,,,,,,,,,,,,,,,,,,,,,,,,,,,,,,,
0,75,75,36,1,,5d6ff29b6fa93a001d61fc06,62c5397cf93e51d4ae53c7b9,2022-07-06_10h29.10.313,Colour_Asymmetry_Pilot,2022.1.3,Win32,59.95203837,62c50e9c1127f2cd403a315f,,,,,,,,,,,,,,,,,,,,,,,,,,,,,,,,,,,,,,,,,,,,,,,,,,,,,,,,,,,,,,,,,,,,,,,,,,,,,,,,,,,,,,,,,,,,,,,,,,,,,,,,,,,,,,,,,,,,,,,,,,,,,,,,,,,,,,,,,,,,,,,,,,,,,,,,,,,,,,,,,,,
0,76,76,39,1,,5d6ff29b6fa93a001d61fc06,62c5397cf93e51d4ae53c7b9,2022-07-06_10h29.10.313,Colour_Asymmetry_Pilot,2022.1.3,Win32,59.95203837,62c50e9c1127f2cd403a315f,,,,,,,,,,,,,,,,,,,,,,,,,,,,,,,,,,,,,,,,,,,,,,,,,,,,,,,,,,,,,,,,,,,,,,,,,,,,,,,,,,,,,,,,,,,,,,,,,,,,,,,,,,,,,,,,,,,,,,,,,,,,,,,,,,,,,,,,,,,,,,,,,,,,,,,,,,,,,,,,,,,
0,77,77,51,1,,5d6ff29b6fa93a001d61fc06,62c5397cf93e51d4ae53c7b9,2022-07-06_10h29.10.313,Colour_Asymmetry_Pilot,2022.1.3,Win32,59.95203837,62c50e9c1127f2cd403a315f,,,,,,,,,,,,,,,,,,,,,,,,,,,,,,,,,,,,,,,,,,,,,,,,,,,,,,,,,,,,,,,,,,,,,,,,,,,,,,,,,,,,,,,,,,,,,,,,,,,,,,,,,,,,,,,,,,,,,,,,,,,,,,,,,,,,,,,,,,,,,,,,,,,,,,,,,,,,,,,,,,,
0,78,78,4,1,,5d6ff29b6fa93a001d61fc06,62c5397cf93e51d4ae53c7b9,2022-07-06_10h29.10.313,Colour_Asymmetry_Pilot,2022.1.3,Win32,59.95203837,62c50e9c1127f2cd403a315f,,,,,,,,,,,,,,,,,,,,,,,,,,,,,,,,,,,,,,,,,,,,,,,,,,,,,,,,,,,,,,,,,,,,,,,,,,,,,,,,,,,,,,,,,,,,,,,,,,,,,,,,,,,,,,,,,,,,,,,,,,,,,,,,,,,,,,,,,,,,,,,,,,,,,,,,,,,,,,,,,,,
0,79,79,10,1,,5d6ff29b6fa93a001d61fc06,62c5397cf93e51d4ae53c7b9,2022-07-06_10h29.10.313,Colour_Asymmetry_Pilot,2022.1.3,Win32,59.95203837,62c50e9c1127f2cd403a315f,,,,,,,,,,,,,,,,,,,,,,,,,,,,,,,,,,,,,,,,,,,,,,,,,,,,,,,,,,,,,,,,,,,,,,,,,,,,,,,,,,,,,,,,,,,,,,,,,,,,,,,,,,,,,,,,,,,,,,,,,,,,,,,,,,,,,,,,,,,,,,,,,,,,,,,,,,,,,,,,,,,
0,80,80,6,1,,5d6ff29b6fa93a001d61fc06,62c5397cf93e51d4ae53c7b9,2022-07-06_10h29.10.313,Colour_Asymmetry_Pilot,2022.1.3,Win32,59.95203837,62c50e9c1127f2cd403a315f,,,,,,,,,,,,,,,,,,,,,,,,,,,,,,,,,,,,,,,,,,,,,,,,,,,,,,,,,,,,,,,,,,,,,,,,,,,,,,,,,,,,,,,,,,,,,,,,,,,,,,,,,,,,,,,,,,,,,,,,,,,,,,,,,,,,,,,,,,,,,,,,,,,,,,,,,,,,,,,,,,,
0,81,81,9,1,,5d6ff29b6fa93a001d61fc06,62c5397cf93e51d4ae53c7b9,2022-07-06_10h29.10.313,Colour_Asymmetry_Pilot,2022.1.3,Win32,59.95203837,62c50e9c1127f2cd403a315f,,,,,,,,,,,,,,,,,,,,,,,,,,,,,,,,,,,,,,,,,,,,,,,,,,,,,,,,,,,,,,,,,,,,,,,,,,,,,,,,,,,,,,,,,,,,,,,,,,,,,,,,,,,,,,,,,,,,,,,,,,,,,,,,,,,,,,,,,,,,,,,,,,,,,,,,,,,,,,,,,,,
0,82,82,32,1,,5d6ff29b6fa93a001d61fc06,62c5397cf93e51d4ae53c7b9,2022-07-06_10h29.10.313,Colour_Asymmetry_Pilot,2022.1.3,Win32,59.95203837,62c50e9c1127f2cd403a315f,,,,,,,,,,,,,,,,,,,,,,,,,,,,,,,,,,,,,,,,,,,,,,,,,,,,,,,,,,,,,,,,,,,,,,,,,,,,,,,,,,,,,,,,,,,,,,,,,,,,,,,,,,,,,,,,,,,,,,,,,,,,,,,,,,,,,,,,,,,,,,,,,,,,,,,,,,,,,,,,,,,
0,83,83,75,1,,5d6ff29b6fa93a001d61fc06,62c5397cf93e51d4ae53c7b9,2022-07-06_10h29.10.313,Colour_Asymmetry_Pilot,2022.1.3,Win32,59.95203837,62c50e9c1127f2cd403a315f,,,,,,,,,,,,,,,,,,,,,,,,,,,,,,,,,,,,,,,,,,,,,,,,,,,,,,,,,,,,,,,,,,,,,,,,,,,,,,,,,,,,,,,,,,,,,,,,,,,,,,,,,,,,,,,,,,,,,,,,,,,,,,,,,,,,,,,,,,,,,,,,,,,,,,,,,,,,,,,,,,,
0,84,84,28,1,,5d6ff29b6fa93a001d61fc06,62c5397cf93e51d4ae53c7b9,2022-07-06_10h29.10.313,Colour_Asymmetry_Pilot,2022.1.3,Win32,59.95203837,62c50e9c1127f2cd403a315f,,,,,,,,,,,,,,,,,,,,,,,,,,,,,,,,,,,,,,,,,,,,,,,,,,,,,,,,,,,,,,,,,,,,,,,,,,,,,,,,,,,,,,,,,,,,,,,,,,,,,,,,,,,,,,,,,,,,,,,,,,,,,,,,,,,,,,,,,,,,,,,,,,,,,,,,,,,,,,,,,,,
0,85,85,62,1,,5d6ff29b6fa93a001d61fc06,62c5397cf93e51d4ae53c7b9,2022-07-06_10h29.10.313,Colour_Asymmetry_Pilot,2022.1.3,Win32,59.95203837,62c50e9c1127f2cd403a315f,,,,,,,,,,,,,,,,,,,,,,,,,,,,,,,,,,,,,,,,,,,,,,,,,,,,,,,,,,,,,,,,,,,,,,,,,,,,,,,,,,,,,,,,,,,,,,,,,,,,,,,,,,,,,,,,,,,,,,,,,,,,,,,,,,,,,,,,,,,,,,,,,,,,,,,,,,,,,,,,,,,
0,86,86,61,1,,5d6ff29b6fa93a001d61fc06,62c5397cf93e51d4ae53c7b9,2022-07-06_10h29.10.313,Colour_Asymmetry_Pilot,2022.1.3,Win32,59.95203837,62c50e9c1127f2cd403a315f,,,,,,,,,,,,,,,,,,,,,,,,,,,,,,,,,,,,,,,,,,,,,,,,,,,,,,,,,,,,,,,,,,,,,,,,,,,,,,,,,,,,,,,,,,,,,,,,,,,,,,,,,,,,,,,,,,,,,,,,,,,,,,,,,,,,,,,,,,,,,,,,,,,,,,,,,,,,,,,,,,,
0,87,87,21,1,,5d6ff29b6fa93a001d61fc06,62c5397cf93e51d4ae53c7b9,2022-07-06_10h29.10.313,Colour_Asymmetry_Pilot,2022.1.3,Win32,59.95203837,62c50e9c1127f2cd403a315f,,,,,,,,,,,,,,,,,,,,,,,,,,,,,,,,,,,,,,,,,,,,,,,,,,,,,,,,,,,,,,,,,,,,,,,,,,,,,,,,,,,,,,,,,,,,,,,,,,,,,,,,,,,,,,,,,,,,,,,,,,,,,,,,,,,,,,,,,,,,,,,,,,,,,,,,,,,,,,,,,,,
0,88,88,44,1,,5d6ff29b6fa93a001d61fc06,62c5397cf93e51d4ae53c7b9,2022-07-06_10h29.10.313,Colour_Asymmetry_Pilot,2022.1.3,Win32,59.95203837,62c50e9c1127f2cd403a315f,,,,,,,,,,,,,,,,,,,,,,,,,,,,,,,,,,,,,,,,,,,,,,,,,,,,,,,,,,,,,,,,,,,,,,,,,,,,,,,,,,,,,,,,,,,,,,,,,,,,,,,,,,,,,,,,,,,,,,,,,,,,,,,,,,,,,,,,,,,,,,,,,,,,,,,,,,,,,,,,,,,
0,89,89,91,1,,5d6ff29b6fa93a001d61fc06,62c5397cf93e51d4ae53c7b9,2022-07-06_10h29.10.313,Colour_Asymmetry_Pilot,2022.1.3,Win32,59.95203837,62c50e9c1127f2cd403a315f,,,,,,,,,,,,,,,,,,,,,,,,,,,,,,,,,,,,,,,,,,,,,,,,,,,,,,,,,,,,,,,,,,,,,,,,,,,,,,,,,,,,,,,,,,,,,,,,,,,,,,,,,,,,,,,,,,,,,,,,,,,,,,,,,,,,,,,,,,,,,,,,,,,,,,,,,,,,,,,,,,,
0,90,90,37,1,,5d6ff29b6fa93a001d61fc06,62c5397cf93e51d4ae53c7b9,2022-07-06_10h29.10.313,Colour_Asymmetry_Pilot,2022.1.3,Win32,59.95203837,62c50e9c1127f2cd403a315f,,,,,,,,,,,,,,,,,,,,,,,,,,,,,,,,,,,,,,,,,,,,,,,,,,,,,,,,,,,,,,,,,,,,,,,,,,,,,,,,,,,,,,,,,,,,,,,,,,,,,,,,,,,,,,,,,,,,,,,,,,,,,,,,,,,,,,,,,,,,,,,,,,,,,,,,,,,,,,,,,,,
0,91,91,41,1,,5d6ff29b6fa93a001d61fc06,62c5397cf93e51d4ae53c7b9,2022-07-06_10h29.10.313,Colour_Asymmetry_Pilot,2022.1.3,Win32,59.95203837,62c50e9c1127f2cd403a315f,,,,,,,,,,,,,,,,,,,,,,,,,,,,,,,,,,,,,,,,,,,,,,,,,,,,,,,,,,,,,,,,,,,,,,,,,,,,,,,,,,,,,,,,,,,,,,,,,,,,,,,,,,,,,,,,,,,,,,,,,,,,,,,,,,,,,,,,,,,,,,,,,,,,,,,,,,,,,,,,,,,
0,92,92,42,1,,5d6ff29b6fa93a001d61fc06,62c5397cf93e51d4ae53c7b9,2022-07-06_10h29.10.313,Colour_Asymmetry_Pilot,2022.1.3,Win32,59.95203837,62c50e9c1127f2cd403a315f,,,,,,,,,,,,,,,,,,,,,,,,,,,,,,,,,,,,,,,,,,,,,,,,,,,,,,,,,,,,,,,,,,,,,,,,,,,,,,,,,,,,,,,,,,,,,,,,,,,,,,,,,,,,,,,,,,,,,,,,,,,,,,,,,,,,,,,,,,,,,,,,,,,,,,,,,,,,,,,,,,,
,,,,,,5d6ff29b6fa93a001d61fc06,62c5397cf93e51d4ae53c7b9,2022-07-06_10h29.10.313,Colour_Asymmetry_Pilot,2022.1.3,Win32,59.95203837,62c50e9c1127f2cd403a315f,0,0,0,156,1,threeone,,,,,,,,,,,,,,,,,,,,,,,,,,,,,,,,,,,,,,,,,,,,,,,,,,,,,,,,,,,,,,,,,,,,,,,,,,,,,,,,,,,,,,,,,,,,,,,,,,,,,,,,,,,,,,,,,,,,,,,,,,,,,,,,,,,,,,,,,,,,,,,,,,,,,,,,,,,,,
,,,,,,5d6ff29b6fa93a001d61fc06,62c5397cf93e51d4ae53c7b9,2022-07-06_10h29.10.313,Colour_Asymmetry_Pilot,2022.1.3,Win32,59.95203837,62c50e9c1127f2cd403a315f,0,1,1,50,1,twoone,,,,,,,,,,,,,,,,,,,,,,,,,,,,,,,,,,,,,,,,,,,,,,,,,,,,,,,,,,,,,,,,,,,,,,,,,,,,,,,,,,,,,,,,,,,,,,,,,,,,,,,,,,,,,,,,,,,,,,,,,,,,,,,,,,,,,,,,,,,,,,,,,,,,,,,,,,,,,
,,,,,,5d6ff29b6fa93a001d61fc06,62c5397cf93e51d4ae53c7b9,2022-07-06_10h29.10.313,Colour_Asymmetry_Pilot,2022.1.3,Win32,59.95203837,62c50e9c1127f2cd403a315f,0,2,2,82,1,twoone,,,,,,,,,,,,,,,,,,,,,,,,,,,,,,,,,,,,,,,,,,,,,,,,,,,,,,,,,,,,,,,,,,,,,,,,,,,,,,,,,,,,,,,,,,,,,,,,,,,,,,,,,,,,,,,,,,,,,,,,,,,,,,,,,,,,,,,,,,,,,,,,,,,,,,,,,,,,,
,,,,,,5d6ff29b6fa93a001d61fc06,62c5397cf93e51d4ae53c7b9,2022-07-06_10h29.10.313,Colour_Asymmetry_Pilot,2022.1.3,Win32,59.95203837,62c50e9c1127f2cd403a315f,0,3,3,77,1,threefour,,,,,,,,,,,,,,,,,,,,,,,,,,,,,,,,,,,,,,,,,,,,,,,,,,,,,,,,,,,,,,,,,,,,,,,,,,,,,,,,,,,,,,,,,,,,,,,,,,,,,,,,,,,,,,,,,,,,,,,,,,,,,,,,,,,,,,,,,,,,,,,,,,,,,,,,,,,,,
,,,,,,5d6ff29b6fa93a001d61fc06,62c5397cf93e51d4ae53c7b9,2022-07-06_10h29.10.313,Colour_Asymmetry_Pilot,2022.1.3,Win32,59.95203837,62c50e9c1127f2cd403a315f,0,4,4,138,1,twoone,,,,,,,,,,,,,,,,,,,,,,,,,,,,,,,,,,,,,,,,,,,,,,,,,,,,,,,,,,,,,,,,,,,,,,,,,,,,,,,,,,,,,,,,,,,,,,,,,,,,,,,,,,,,,,,,,,,,,,,,,,,,,,,,,,,,,,,,,,,,,,,,,,,,,,,,,,,,,
,,,,,,5d6ff29b6fa93a001d61fc06,62c5397cf93e51d4ae53c7b9,2022-07-06_10h29.10.313,Colour_Asymmetry_Pilot,2022.1.3,Win32,59.95203837,62c50e9c1127f2cd403a315f,0,5,5,153,1,onethree,,,,,,,,,,,,,,,,,,,,,,,,,,,,,,,,,,,,,,,,,,,,,,,,,,,,,,,,,,,,,,,,,,,,,,,,,,,,,,,,,,,,,,,,,,,,,,,,,,,,,,,,,,,,,,,,,,,,,,,,,,,,,,,,,,,,,,,,,,,,,,,,,,,,,,,,,,,,,
,,,,,,5d6ff29b6fa93a001d61fc06,62c5397cf93e51d4ae53c7b9,2022-07-06_10h29.10.313,Colour_Asymmetry_Pilot,2022.1.3,Win32,59.95203837,62c50e9c1127f2cd403a315f,0,6,6,133,1,threefour,,,,,,,,,,,,,,,,,,,,,,,,,,,,,,,,,,,,,,,,,,,,,,,,,,,,,,,,,,,,,,,,,,,,,,,,,,,,,,,,,,,,,,,,,,,,,,,,,,,,,,,,,,,,,,,,,,,,,,,,,,,,,,,,,,,,,,,,,,,,,,,,,,,,,,,,,,,,,
,,,,,,5d6ff29b6fa93a001d61fc06,62c5397cf93e51d4ae53c7b9,2022-07-06_10h29.10.313,Colour_Asymmetry_Pilot,2022.1.3,Win32,59.95203837,62c50e9c1127f2cd403a315f,0,7,7,64,1,onetwo,,,,,,,,,,,,,,,,,,,,,,,,,,,,,,,,,,,,,,,,,,,,,,,,,,,,,,,,,,,,,,,,,,,,,,,,,,,,,,,,,,,,,,,,,,,,,,,,,,,,,,,,,,,,,,,,,,,,,,,,,,,,,,,,,,,,,,,,,,,,,,,,,,,,,,,,,,,,,
,,,,,,5d6ff29b6fa93a001d61fc06,62c5397cf93e51d4ae53c7b9,2022-07-06_10h29.10.313,Colour_Asymmetry_Pilot,2022.1.3,Win32,59.95203837,62c50e9c1127f2cd403a315f,0,8,8,149,1,threefour,,,,,,,,,,,,,,,,,,,,,,,,,,,,,,,,,,,,,,,,,,,,,,,,,,,,,,,,,,,,,,,,,,,,,,,,,,,,,,,,,,,,,,,,,,,,,,,,,,,,,,,,,,,,,,,,,,,,,,,,,,,,,,,,,,,,,,,,,,,,,,,,,,,,,,,,,,,,,
,,,,,,5d6ff29b6fa93a001d61fc06,62c5397cf93e51d4ae53c7b9,2022-07-06_10h29.10.313,Colour_Asymmetry_Pilot,2022.1.3,Win32,59.95203837,62c50e9c1127f2cd403a315f,0,9,9,137,1,onethree,,,,,,,,,,,,,,,,,,,,,,,,,,,,,,,,,,,,,,,,,,,,,,,,,,,,,,,,,,,,,,,,,,,,,,,,,,,,,,,,,,,,,,,,,,,,,,,,,,,,,,,,,,,,,,,,,,,,,,,,,,,,,,,,,,,,,,,,,,,,,,,,,,,,,,,,,,,,,
,,,,,,5d6ff29b6fa93a001d61fc06,62c5397cf93e51d4ae53c7b9,2022-07-06_10h29.10.313,Colour_Asymmetry_Pilot,2022.1.3,Win32,59.95203837,62c50e9c1127f2cd403a315f,0,10,10,143,1,fourthree,,,,,,,,,,,,,,,,,,,,,,,,,,,,,,,,,,,,,,,,,,,,,,,,,,,,,,,,,,,,,,,,,,,,,,,,,,,,,,,,,,,,,,,,,,,,,,,,,,,,,,,,,,,,,,,,,,,,,,,,,,,,,,,,,,,,,,,,,,,,,,,,,,,,,,,,,,,,,
,,,,,,5d6ff29b6fa93a001d61fc06,62c5397cf93e51d4ae53c7b9,2022-07-06_10h29.10.313,Colour_Asymmetry_Pilot,2022.1.3,Win32,59.95203837,62c50e9c1127f2cd403a315f,0,11,11,5,1,threefour,,,,,,,,,,,,,,,,,,,,,,,,,,,,,,,,,,,,,,,,,,,,,,,,,,,,,,,,,,,,,,,,,,,,,,,,,,,,,,,,,,,,,,,,,,,,,,,,,,,,,,,,,,,,,,,,,,,,,,,,,,,,,,,,,,,,,,,,,,,,,,,,,,,,,,,,,,,,,
,,,,,,5d6ff29b6fa93a001d61fc06,62c5397cf93e51d4ae53c7b9,2022-07-06_10h29.10.313,Colour_Asymmetry_Pilot,2022.1.3,Win32,59.95203837,62c50e9c1127f2cd403a315f,0,12,12,12,1,threeone,,,,,,,,,,,,,,,,,,,,,,,,,,,,,,,,,,,,,,,,,,,,,,,,,,,,,,,,,,,,,,,,,,,,,,,,,,,,,,,,,,,,,,,,,,,,,,,,,,,,,,,,,,,,,,,,,,,,,,,,,,,,,,,,,,,,,,,,,,,,,,,,,,,,,,,,,,,,,
,,,,,,5d6ff29b6fa93a001d61fc06,62c5397cf93e51d4ae53c7b9,2022-07-06_10h29.10.313,Colour_Asymmetry_Pilot,2022.1.3,Win32,59.95203837,62c50e9c1127f2cd403a315f,0,13,13,35,1,twofour,,,,,,,,,,,,,,,,,,,,,,,,,,,,,,,,,,,,,,,,,,,,,,,,,,,,,,,,,,,,,,,,,,,,,,,,,,,,,,,,,,,,,,,,,,,,,,,,,,,,,,,,,,,,,,,,,,,,,,,,,,,,,,,,,,,,,,,,,,,,,,,,,,,,,,,,,,,,,
,,,,,,5d6ff29b6fa93a001d61fc06,62c5397cf93e51d4ae53c7b9,2022-07-06_10h29.10.313,Colour_Asymmetry_Pilot,2022.1.3,Win32,59.95203837,62c50e9c1127f2cd403a315f,0,14,14,161,1,onethree,,,,,,,,,,,,,,,,,,,,,,,,,,,,,,,,,,,,,,,,,,,,,,,,,,,,,,,,,,,,,,,,,,,,,,,,,,,,,,,,,,,,,,,,,,,,,,,,,,,,,,,,,,,,,,,,,,,,,,,,,,,,,,,,,,,,,,,,,,,,,,,,,,,,,,,,,,,,,
,,,,,,5d6ff29b6fa93a001d61fc06,62c5397cf93e51d4ae53c7b9,2022-07-06_10h29.10.313,Colour_Asymmetry_Pilot,2022.1.3,Win32,59.95203837,62c50e9c1127f2cd403a315f,0,15,15,58,1,twoone,,,,,,,,,,,,,,,,,,,,,,,,,,,,,,,,,,,,,,,,,,,,,,,,,,,,,,,,,,,,,,,,,,,,,,,,,,,,,,,,,,,,,,,,,,,,,,,,,,,,,,,,,,,,,,,,,,,,,,,,,,,,,,,,,,,,,,,,,,,,,,,,,,,,,,,,,,,,,
,,,,,,5d6ff29b6fa93a001d61fc06,62c5397cf93e51d4ae53c7b9,2022-07-06_10h29.10.313,Colour_Asymmetry_Pilot,2022.1.3,Win32,59.95203837,62c50e9c1127f2cd403a315f,0,16,16,148,1,threeone,,,,,,,,,,,,,,,,,,,,,,,,,,,,,,,,,,,,,,,,,,,,,,,,,,,,,,,,,,,,,,,,,,,,,,,,,,,,,,,,,,,,,,,,,,,,,,,,,,,,,,,,,,,,,,,,,,,,,,,,,,,,,,,,,,,,,,,,,,,,,,,,,,,,,,,,,,,,,
,,,,,,5d6ff29b6fa93a001d61fc06,62c5397cf93e51d4ae53c7b9,2022-07-06_10h29.10.313,Colour_Asymmetry_Pilot,2022.1.3,Win32,59.95203837,62c50e9c1127f2cd403a315f,0,17,17,61,1,threefour,,,,,,,,,,,,,,,,,,,,,,,,,,,,,,,,,,,,,,,,,,,,,,,,,,,,,,,,,,,,,,,,,,,,,,,,,,,,,,,,,,,,,,,,,,,,,,,,,,,,,,,,,,,,,,,,,,,,,,,,,,,,,,,,,,,,,,,,,,,,,,,,,,,,,,,,,,,,,
,,,,,,5d6ff29b6fa93a001d61fc06,62c5397cf93e51d4ae53c7b9,2022-07-06_10h29.10.313,Colour_Asymmetry_Pilot,2022.1.3,Win32,59.95203837,62c50e9c1127f2cd403a315f,0,18,18,67,1,twofour,,,,,,,,,,,,,,,,,,,,,,,,,,,,,,,,,,,,,,,,,,,,,,,,,,,,,,,,,,,,,,,,,,,,,,,,,,,,,,,,,,,,,,,,,,,,,,,,,,,,,,,,,,,,,,,,,,,,,,,,,,,,,,,,,,,,,,,,,,,,,,,,,,,,,,,,,,,,,
,,,,,,5d6ff29b6fa93a001d61fc06,62c5397cf93e51d4ae53c7b9,2022-07-06_10h29.10.313,Colour_Asymmetry_Pilot,2022.1.3,Win32,59.95203837,62c50e9c1127f2cd403a315f,0,19,19,62,1,fourtwo,,,,,,,,,,,,,,,,,,,,,,,,,,,,,,,,,,,,,,,,,,,,,,,,,,,,,,,,,,,,,,,,,,,,,,,,,,,,,,,,,,,,,,,,,,,,,,,,,,,,,,,,,,,,,,,,,,,,,,,,,,,,,,,,,,,,,,,,,,,,,,,,,,,,,,,,,,,,,
,,,,,,5d6ff29b6fa93a001d61fc06,62c5397cf93e51d4ae53c7b9,2022-07-06_10h29.10.313,Colour_Asymmetry_Pilot,2022.1.3,Win32,59.95203837,62c50e9c1127f2cd403a315f,0,20,20,157,1,threefour,,,,,,,,,,,,,,,,,,,,,,,,,,,,,,,,,,,,,,,,,,,,,,,,,,,,,,,,,,,,,,,,,,,,,,,,,,,,,,,,,,,,,,,,,,,,,,,,,,,,,,,,,,,,,,,,,,,,,,,,,,,,,,,,,,,,,,,,,,,,,,,,,,,,,,,,,,,,,
,,,,,,5d6ff29b6fa93a001d61fc06,62c5397cf93e51d4ae53c7b9,2022-07-06_10h29.10.313,Colour_Asymmetry_Pilot,2022.1.3,Win32,59.95203837,62c50e9c1127f2cd403a315f,0,21,21,125,1,threefour,,,,,,,,,,,,,,,,,,,,,,,,,,,,,,,,,,,,,,,,,,,,,,,,,,,,,,,,,,,,,,,,,,,,,,,,,,,,,,,,,,,,,,,,,,,,,,,,,,,,,,,,,,,,,,,,,,,,,,,,,,,,,,,,,,,,,,,,,,,,,,,,,,,,,,,,,,,,,
,,,,,,5d6ff29b6fa93a001d61fc06,62c5397cf93e51d4ae53c7b9,2022-07-06_10h29.10.313,Colour_Asymmetry_Pilot,2022.1.3,Win32,59.95203837,62c50e9c1127f2cd403a315f,0,22,22,99,1,twofour,,,,,,,,,,,,,,,,,,,,,,,,,,,,,,,,,,,,,,,,,,,,,,,,,,,,,,,,,,,,,,,,,,,,,,,,,,,,,,,,,,,,,,,,,,,,,,,,,,,,,,,,,,,,,,,,,,,,,,,,,,,,,,,,,,,,,,,,,,,,,,,,,,,,,,,,,,,,,
,,,,,,5d6ff29b6fa93a001d61fc06,62c5397cf93e51d4ae53c7b9,2022-07-06_10h29.10.313,Colour_Asymmetry_Pilot,2022.1.3,Win32,59.95203837,62c50e9c1127f2cd403a315f,0,23,23,69,1,threefour,,,,,,,,,,,,,,,,,,,,,,,,,,,,,,,,,,,,,,,,,,,,,,,,,,,,,,,,,,,,,,,,,,,,,,,,,,,,,,,,,,,,,,,,,,,,,,,,,,,,,,,,,,,,,,,,,,,,,,,,,,,,,,,,,,,,,,,,,,,,,,,,,,,,,,,,,,,,,
,,,,,,5d6ff29b6fa93a001d61fc06,62c5397cf93e51d4ae53c7b9,2022-07-06_10h29.10.313,Colour_Asymmetry_Pilot,2022.1.3,Win32,59.95203837,62c50e9c1127f2cd403a315f,0,24,24,71,1,fourthree,,,,,,,,,,,,,,,,,,,,,,,,,,,,,,,,,,,,,,,,,,,,,,,,,,,,,,,,,,,,,,,,,,,,,,,,,,,,,,,,,,,,,,,,,,,,,,,,,,,,,,,,,,,,,,,,,,,,,,,,,,,,,,,,,,,,,,,,,,,,,,,,,,,,,,,,,,,,,
,,,,,,5d6ff29b6fa93a001d61fc06,62c5397cf93e51d4ae53c7b9,2022-07-06_10h29.10.313,Colour_Asymmetry_Pilot,2022.1.3,Win32,59.95203837,62c50e9c1127f2cd403a315f,0,25,25,59,1,twofour,,,,,,,,,,,,,,,,,,,,,,,,,,,,,,,,,,,,,,,,,,,,,,,,,,,,,,,,,,,,,,,,,,,,,,,,,,,,,,,,,,,,,,,,,,,,,,,,,,,,,,,,,,,,,,,,,,,,,,,,,,,,,,,,,,,,,,,,,,,,,,,,,,,,,,,,,,,,,
,,,,,,5d6ff29b6fa93a001d61fc06,62c5397cf93e51d4ae53c7b9,2022-07-06_10h29.10.313,Colour_Asymmetry_Pilot,2022.1.3,Win32,59.95203837,62c50e9c1127f2cd403a315f,0,26,26,112,1,onetwo,,,,,,,,,,,,,,,,,,,,,,,,,,,,,,,,,,,,,,,,,,,,,,,,,,,,,,,,,,,,,,,,,,,,,,,,,,,,,,,,,,,,,,,,,,,,,,,,,,,,,,,,,,,,,,,,,,,,,,,,,,,,,,,,,,,,,,,,,,,,,,,,,,,,,,,,,,,,,
,,,,,,5d6ff29b6fa93a001d61fc06,62c5397cf93e51d4ae53c7b9,2022-07-06_10h29.10.313,Colour_Asymmetry_Pilot,2022.1.3,Win32,59.95203837,62c50e9c1127f2cd403a315f,0,27,27,6,1,fourtwo,,,,,,,,,,,,,,,,,,,,,,,,,,,,,,,,,,,,,,,,,,,,,,,,,,,,,,,,,,,,,,,,,,,,,,,,,,,,,,,,,,,,,,,,,,,,,,,,,,,,,,,,,,,,,,,,,,,,,,,,,,,,,,,,,,,,,,,,,,,,,,,,,,,,,,,,,,,,,
,,,,,,5d6ff29b6fa93a001d61fc06,62c5397cf93e51d4ae53c7b9,2022-07-06_10h29.10.313,Colour_Asymmetry_Pilot,2022.1.3,Win32,59.95203837,62c50e9c1127f2cd403a315f,0,28,28,7,1,fourthree,,,,,,,,,,,,,,,,,,,,,,,,,,,,,,,,,,,,,,,,,,,,,,,,,,,,,,,,,,,,,,,,,,,,,,,,,,,,,,,,,,,,,,,,,,,,,,,,,,,,,,,,,,,,,,,,,,,,,,,,,,,,,,,,,,,,,,,,,,,,,,,,,,,,,,,,,,,,,
,,,,,,5d6ff29b6fa93a001d61fc06,62c5397cf93e51d4ae53c7b9,2022-07-06_10h29.10.313,Colour_Asymmetry_Pilot,2022.1.3,Win32,59.95203837,62c50e9c1127f2cd403a315f,0,29,29,88,1,onetwo,,,,,,,,,,,,,,,,,,,,,,,,,,,,,,,,,,,,,,,,,,,,,,,,,,,,,,,,,,,,,,,,,,,,,,,,,,,,,,,,,,,,,,,,,,,,,,,,,,,,,,,,,,,,,,,,,,,,,,,,,,,,,,,,,,,,,,,,,,,,,,,,,,,,,,,,,,,,,
,,,,,,5d6ff29b6fa93a001d61fc06,62c5397cf93e51d4ae53c7b9,2022-07-06_10h29.10.313,Colour_Asymmetry_Pilot,2022.1.3,Win32,59.95203837,62c50e9c1127f2cd403a315f,0,30,30,8,1,onetwo,,,,,,,,,,,,,,,,,,,,,,,,,,,,,,,,,,,,,,,,,,,,,,,,,,,,,,,,,,,,,,,,,,,,,,,,,,,,,,,,,,,,,,,,,,,,,,,,,,,,,,,,,,,,,,,,,,,,,,,,,,,,,,,,,,,,,,,,,,,,,,,,,,,,,,,,,,,,,
,,,,,,5d6ff29b6fa93a001d61fc06,62c5397cf93e51d4ae53c7b9,2022-07-06_10h29.10.313,Colour_Asymmetry_Pilot,2022.1.3,Win32,59.95203837,62c50e9c1127f2cd403a315f,0,31,31,134,1,fourtwo,,,,,,,,,,,,,,,,,,,,,,,,,,,,,,,,,,,,,,,,,,,,,,,,,,,,,,,,,,,,,,,,,,,,,,,,,,,,,,,,,,,,,,,,,,,,,,,,,,,,,,,,,,,,,,,,,,,,,,,,,,,,,,,,,,,,,,,,,,,,,,,,,,,,,,,,,,,,,
,,,,,,5d6ff29b6fa93a001d61fc06,62c5397cf93e51d4ae53c7b9,2022-07-06_10h29.10.313,Colour_Asymmetry_Pilot,2022.1.3,Win32,59.95203837,62c50e9c1127f2cd403a315f,0,32,32,118,1,fourtwo,,,,,,,,,,,,,,,,,,,,,,,,,,,,,,,,,,,,,,,,,,,,,,,,,,,,,,,,,,,,,,,,,,,,,,,,,,,,,,,,,,,,,,,,,,,,,,,,,,,,,,,,,,,,,,,,,,,,,,,,,,,,,,,,,,,,,,,,,,,,,,,,,,,,,,,,,,,,,
,,,,,,5d6ff29b6fa93a001d61fc06,62c5397cf93e51d4ae53c7b9,2022-07-06_10h29.10.313,Colour_Asymmetry_Pilot,2022.1.3,Win32,59.95203837,62c50e9c1127f2cd403a315f,0,33,33,114,1,twoone,,,,,,,,,,,,,,,,,,,,,,,,,,,,,,,,,,,,,,,,,,,,,,,,,,,,,,,,,,,,,,,,,,,,,,,,,,,,,,,,,,,,,,,,,,,,,,,,,,,,,,,,,,,,,,,,,,,,,,,,,,,,,,,,,,,,,,,,,,,,,,,,,,,,,,,,,,,,,
,,,,,,5d6ff29b6fa93a001d61fc06,62c5397cf93e51d4ae53c7b9,2022-07-06_10h29.10.313,Colour_Asymmetry_Pilot,2022.1.3,Win32,59.95203837,62c50e9c1127f2cd403a315f,0,34,34,145,1,onethree,,,,,,,,,,,,,,,,,,,,,,,,,,,,,,,,,,,,,,,,,,,,,,,,,,,,,,,,,,,,,,,,,,,,,,,,,,,,,,,,,,,,,,,,,,,,,,,,,,,,,,,,,,,,,,,,,,,,,,,,,,,,,,,,,,,,,,,,,,,,,,,,,,,,,,,,,,,,,
,,,,,,5d6ff29b6fa93a001d61fc06,62c5397cf93e51d4ae53c7b9,2022-07-06_10h29.10.313,Colour_Asymmetry_Pilot,2022.1.3,Win32,59.95203837,62c50e9c1127f2cd403a315f,0,35,35,116,1,threeone,,,,,,,,,,,,,,,,,,,,,,,,,,,,,,,,,,,,,,,,,,,,,,,,,,,,,,,,,,,,,,,,,,,,,,,,,,,,,,,,,,,,,,,,,,,,,,,,,,,,,,,,,,,,,,,,,,,,,,,,,,,,,,,,,,,,,,,,,,,,,,,,,,,,,,,,,,,,,
,,,,,,5d6ff29b6fa93a001d61fc06,62c5397cf93e51d4ae53c7b9,2022-07-06_10h29.10.313,Colour_Asymmetry_Pilot,2022.1.3,Win32,59.95203837,62c50e9c1127f2cd403a315f,0,36,36,40,1,onetwo,,,,,,,,,,,,,,,,,,,,,,,,,,,,,,,,,,,,,,,,,,,,,,,,,,,,,,,,,,,,,,,,,,,,,,,,,,,,,,,,,,,,,,,,,,,,,,,,,,,,,,,,,,,,,,,,,,,,,,,,,,,,,,,,,,,,,,,,,,,,,,,,,,,,,,,,,,,,,
,,,,,,5d6ff29b6fa93a001d61fc06,62c5397cf93e51d4ae53c7b9,2022-07-06_10h29.10.313,Colour_Asymmetry_Pilot,2022.1.3,Win32,59.95203837,62c50e9c1127f2cd403a315f,0,37,37,109,1,threefour,,,,,,,,,,,,,,,,,,,,,,,,,,,,,,,,,,,,,,,,,,,,,,,,,,,,,,,,,,,,,,,,,,,,,,,,,,,,,,,,,,,,,,,,,,,,,,,,,,,,,,,,,,,,,,,,,,,,,,,,,,,,,,,,,,,,,,,,,,,,,,,,,,,,,,,,,,,,,
,,,,,,5d6ff29b6fa93a001d61fc06,62c5397cf93e51d4ae53c7b9,2022-07-06_10h29.10.313,Colour_Asymmetry_Pilot,2022.1.3,Win32,59.95203837,62c50e9c1127f2cd403a315f,0,38,38,129,1,onethree,,,,,,,,,,,,,,,,,,,,,,,,,,,,,,,,,,,,,,,,,,,,,,,,,,,,,,,,,,,,,,,,,,,,,,,,,,,,,,,,,,,,,,,,,,,,,,,,,,,,,,,,,,,,,,,,,,,,,,,,,,,,,,,,,,,,,,,,,,,,,,,,,,,,,,,,,,,,,
,,,,,,5d6ff29b6fa93a001d61fc06,62c5397cf93e51d4ae53c7b9,2022-07-06_10h29.10.313,Colour_Asymmetry_Pilot,2022.1.3,Win32,59.95203837,62c50e9c1127f2cd403a315f,0,39,39,51,1,twofour,,,,,,,,,,,,,,,,,,,,,,,,,,,,,,,,,,,,,,,,,,,,,,,,,,,,,,,,,,,,,,,,,,,,,,,,,,,,,,,,,,,,,,,,,,,,,,,,,,,,,,,,,,,,,,,,,,,,,,,,,,,,,,,,,,,,,,,,,,,,,,,,,,,,,,,,,,,,,
,,,,,,5d6ff29b6fa93a001d61fc06,62c5397cf93e51d4ae53c7b9,2022-07-06_10h29.10.313,Colour_Asymmetry_Pilot,2022.1.3,Win32,59.95203837,62c50e9c1127f2cd403a315f,0,40,40,100,1,threeone,,,,,,,,,,,,,,,,,,,,,,,,,,,,,,,,,,,,,,,,,,,,,,,,,,,,,,,,,,,,,,,,,,,,,,,,,,,,,,,,,,,,,,,,,,,,,,,,,,,,,,,,,,,,,,,,,,,,,,,,,,,,,,,,,,,,,,,,,,,,,,,,,,,,,,,,,,,,,
,,,,,,5d6ff29b6fa93a001d61fc06,62c5397cf93e51d4ae53c7b9,2022-07-06_10h29.10.313,Colour_Asymmetry_Pilot,2022.1.3,Win32,59.95203837,62c50e9c1127f2cd403a315f,0,41,41,44,1,threeone,,,,,,,,,,,,,,,,,,,,,,,,,,,,,,,,,,,,,,,,,,,,,,,,,,,,,,,,,,,,,,,,,,,,,,,,,,,,,,,,,,,,,,,,,,,,,,,,,,,,,,,,,,,,,,,,,,,,,,,,,,,,,,,,,,,,,,,,,,,,,,,,,,,,,,,,,,,,,
,,,,,,5d6ff29b6fa93a001d61fc06,62c5397cf93e51d4ae53c7b9,2022-07-06_10h29.10.313,Colour_Asymmetry_Pilot,2022.1.3,Win32,59.95203837,62c50e9c1127f2cd403a315f,0,42,42,11,1,twofour,,,,,,,,,,,,,,,,,,,,,,,,,,,,,,,,,,,,,,,,,,,,,,,,,,,,,,,,,,,,,,,,,,,,,,,,,,,,,,,,,,,,,,,,,,,,,,,,,,,,,,,,,,,,,,,,,,,,,,,,,,,,,,,,,,,,,,,,,,,,,,,,,,,,,,,,,,,,,
,,,,,,5d6ff29b6fa93a001d61fc06,62c5397cf93e51d4ae53c7b9,2022-07-06_10h29.10.313,Colour_Asymmetry_Pilot,2022.1.3,Win32,59.95203837,62c50e9c1127f2cd403a315f,0,43,43,14,1,fourtwo,,,,,,,,,,,,,,,,,,,,,,,,,,,,,,,,,,,,,,,,,,,,,,,,,,,,,,,,,,,,,,,,,,,,,,,,,,,,,,,,,,,,,,,,,,,,,,,,,,,,,,,,,,,,,,,,,,,,,,,,,,,,,,,,,,,,,,,,,,,,,,,,,,,,,,,,,,,,,
,,,,,,5d6ff29b6fa93a001d61fc06,62c5397cf93e51d4ae53c7b9,2022-07-06_10h29.10.313,Colour_Asymmetry_Pilot,2022.1.3,Win32,59.95203837,62c50e9c1127f2cd403a315f,0,44,44,147,1,twofour,,,,,,,,,,,,,,,,,,,,,,,,,,,,,,,,,,,,,,,,,,,,,,,,,,,,,,,,,,,,,,,,,,,,,,,,,,,,,,,,,,,,,,,,,,,,,,,,,,,,,,,,,,,,,,,,,,,,,,,,,,,,,,,,,,,,,,,,,,,,,,,,,,,,,,,,,,,,,
,,,,,,5d6ff29b6fa93a001d61fc06,62c5397cf93e51d4ae53c7b9,2022-07-06_10h29.10.313,Colour_Asymmetry_Pilot,2022.1.3,Win32,59.95203837,62c50e9c1127f2cd403a315f,0,45,45,28,1,threeone,,,,,,,,,,,,,,,,,,,,,,,,,,,,,,,,,,,,,,,,,,,,,,,,,,,,,,,,,,,,,,,,,,,,,,,,,,,,,,,,,,,,,,,,,,,,,,,,,,,,,,,,,,,,,,,,,,,,,,,,,,,,,,,,,,,,,,,,,,,,,,,,,,,,,,,,,,,,,
,,,,,,5d6ff29b6fa93a001d61fc06,62c5397cf93e51d4ae53c7b9,2022-07-06_10h29.10.313,Colour_Asymmetry_Pilot,2022.1.3,Win32,59.95203837,62c50e9c1127f2cd403a315f,0,46,46,150,1,fourtwo,,,,,,,,,,,,,,,,,,,,,,,,,,,,,,,,,,,,,,,,,,,,,,,,,,,,,,,,,,,,,,,,,,,,,,,,,,,,,,,,,,,,,,,,,,,,,,,,,,,,,,,,,,,,,,,,,,,,,,,,,,,,,,,,,,,,,,,,,,,,,,,,,,,,,,,,,,,,,
,,,,,,5d6ff29b6fa93a001d61fc06,62c5397cf93e51d4ae53c7b9,2022-07-06_10h29.10.313,Colour_Asymmetry_Pilot,2022.1.3,Win32,59.95203837,62c50e9c1127f2cd403a315f,0,47,47,66,1,twoone,,,,,,,,,,,,,,,,,,,,,,,,,,,,,,,,,,,,,,,,,,,,,,,,,,,,,,,,,,,,,,,,,,,,,,,,,,,,,,,,,,,,,,,,,,,,,,,,,,,,,,,,,,,,,,,,,,,,,,,,,,,,,,,,,,,,,,,,,,,,,,,,,,,,,,,,,,,,,
,,,,,,5d6ff29b6fa93a001d61fc06,62c5397cf93e51d4ae53c7b9,2022-07-06_10h29.10.313,Colour_Asymmetry_Pilot,2022.1.3,Win32,59.95203837,62c50e9c1127f2cd403a315f,0,48,48,30,1,fourtwo,,,,,,,,,,,,,,,,,,,,,,,,,,,,,,,,,,,,,,,,,,,,,,,,,,,,,,,,,,,,,,,,,,,,,,,,,,,,,,,,,,,,,,,,,,,,,,,,,,,,,,,,,,,,,,,,,,,,,,,,,,,,,,,,,,,,,,,,,,,,,,,,,,,,,,,,,,,,,
,,,,,,5d6ff29b6fa93a001d61fc06,62c5397cf93e51d4ae53c7b9,2022-07-06_10h29.10.313,Colour_Asymmetry_Pilot,2022.1.3,Win32,59.95203837,62c50e9c1127f2cd403a315f,0,49,49,101,1,threefour,,,,,,,,,,,,,,,,,,,,,,,,,,,,,,,,,,,,,,,,,,,,,,,,,,,,,,,,,,,,,,,,,,,,,,,,,,,,,,,,,,,,,,,,,,,,,,,,,,,,,,,,,,,,,,,,,,,,,,,,,,,,,,,,,,,,,,,,,,,,,,,,,,,,,,,,,,,,,
,,,,,,5d6ff29b6fa93a001d61fc06,62c5397cf93e51d4ae53c7b9,2022-07-06_10h29.10.313,Colour_Asymmetry_Pilot,2022.1.3,Win32,59.95203837,62c50e9c1127f2cd403a315f,0,50,50,46,1,fourtwo,,,,,,,,,,,,,,,,,,,,,,,,,,,,,,,,,,,,,,,,,,,,,,,,,,,,,,,,,,,,,,,,,,,,,,,,,,,,,,,,,,,,,,,,,,,,,,,,,,,,,,,,,,,,,,,,,,,,,,,,,,,,,,,,,,,,,,,,,,,,,,,,,,,,,,,,,,,,,
,,,,,,5d6ff29b6fa93a001d61fc06,62c5397cf93e51d4ae53c7b9,2022-07-06_10h29.10.313,Colour_Asymmetry_Pilot,2022.1.3,Win32,59.95203837,62c50e9c1127f2cd403a315f,0,51,51,120,1,onetwo,,,,,,,,,,,,,,,,,,,,,,,,,,,,,,,,,,,,,,,,,,,,,,,,,,,,,,,,,,,,,,,,,,,,,,,,,,,,,,,,,,,,,,,,,,,,,,,,,,,,,,,,,,,,,,,,,,,,,,,,,,,,,,,,,,,,,,,,,,,,,,,,,,,,,,,,,,,,,
,,,,,,5d6ff29b6fa93a001d61fc06,62c5397cf93e51d4ae53c7b9,2022-07-06_10h29.10.313,Colour_Asymmetry_Pilot,2022.1.3,Win32,59.95203837,62c50e9c1127f2cd403a315f,0,52,52,13,1,threefour,,,,,,,,,,,,,,,,,,,,,,,,,,,,,,,,,,,,,,,,,,,,,,,,,,,,,,,,,,,,,,,,,,,,,,,,,,,,,,,,,,,,,,,,,,,,,,,,,,,,,,,,,,,,,,,,,,,,,,,,,,,,,,,,,,,,,,,,,,,,,,,,,,,,,,,,,,,,,
,,,,,,5d6ff29b6fa93a001d61fc06,62c5397cf93e51d4ae53c7b9,2022-07-06_10h29.10.313,Colour_Asymmetry_Pilot,2022.1.3,Win32,59.95203837,62c50e9c1127f2cd403a315f,0,53,53,96,1,onetwo,,,,,,,,,,,,,,,,,,,,,,,,,,,,,,,,,,,,,,,,,,,,,,,,,,,,,,,,,,,,,,,,,,,,,,,,,,,,,,,,,,,,,,,,,,,,,,,,,,,,,,,,,,,,,,,,,,,,,,,,,,,,,,,,,,,,,,,,,,,,,,,,,,,,,,,,,,,,,
,,,,,,5d6ff29b6fa93a001d61fc06,62c5397cf93e51d4ae53c7b9,2022-07-06_10h29.10.313,Colour_Asymmetry_Pilot,2022.1.3,Win32,59.95203837,62c50e9c1127f2cd403a315f,0,54,54,85,1,threefour,,,,,,,,,,,,,,,,,,,,,,,,,,,,,,,,,,,,,,,,,,,,,,,,,,,,,,,,,,,,,,,,,,,,,,,,,,,,,,,,,,,,,,,,,,,,,,,,,,,,,,,,,,,,,,,,,,,,,,,,,,,,,,,,,,,,,,,,,,,,,,,,,,,,,,,,,,,,,
,,,,,,5d6ff29b6fa93a001d61fc06,62c5397cf93e51d4ae53c7b9,2022-07-06_10h29.10.313,Colour_Asymmetry_Pilot,2022.1.3,Win32,59.95203837,62c50e9c1127f2cd403a315f,0,55,55,152,1,onetwo,,,,,,,,,,,,,,,,,,,,,,,,,,,,,,,,,,,,,,,,,,,,,,,,,,,,,,,,,,,,,,,,,,,,,,,,,,,,,,,,,,,,,,,,,,,,,,,,,,,,,,,,,,,,,,,,,,,,,,,,,,,,,,,,,,,,,,,,,,,,,,,,,,,,,,,,,,,,,
,,,,,,5d6ff29b6fa93a001d61fc06,62c5397cf93e51d4ae53c7b9,2022-07-06_10h29.10.313,Colour_Asymmetry_Pilot,2022.1.3,Win32,59.95203837,62c50e9c1127f2cd403a315f,0,56,56,79,1,fourthree,,,,,,,,,,,,,,,,,,,,,,,,,,,,,,,,,,,,,,,,,,,,,,,,,,,,,,,,,,,,,,,,,,,,,,,,,,,,,,,,,,,,,,,,,,,,,,,,,,,,,,,,,,,,,,,,,,,,,,,,,,,,,,,,,,,,,,,,,,,,,,,,,,,,,,,,,,,,,
,,,,,,5d6ff29b6fa93a001d61fc06,62c5397cf93e51d4ae53c7b9,2022-07-06_10h29.10.313,Colour_Asymmetry_Pilot,2022.1.3,Win32,59.95203837,62c50e9c1127f2cd403a315f,0,57,57,10,1,twoone,,,,,,,,,,,,,,,,,,,,,,,,,,,,,,,,,,,,,,,,,,,,,,,,,,,,,,,,,,,,,,,,,,,,,,,,,,,,,,,,,,,,,,,,,,,,,,,,,,,,,,,,,,,,,,,,,,,,,,,,,,,,,,,,,,,,,,,,,,,,,,,,,,,,,,,,,,,,,
,,,,,,5d6ff29b6fa93a001d61fc06,62c5397cf93e51d4ae53c7b9,2022-07-06_10h29.10.313,Colour_Asymmetry_Pilot,2022.1.3,Win32,59.95203837,62c50e9c1127f2cd403a315f,0,58,58,68,1,threeone,,,,,,,,,,,,,,,,,,,,,,,,,,,,,,,,,,,,,,,,,,,,,,,,,,,,,,,,,,,,,,,,,,,,,,,,,,,,,,,,,,,,,,,,,,,,,,,,,,,,,,,,,,,,,,,,,,,,,,,,,,,,,,,,,,,,,,,,,,,,,,,,,,,,,,,,,,,,,
,,,,,,5d6ff29b6fa93a001d61fc06,62c5397cf93e51d4ae53c7b9,2022-07-06_10h29.10.313,Colour_Asymmetry_Pilot,2022.1.3,Win32,59.95203837,62c50e9c1127f2cd403a315f,0,59,59,158,1,fourtwo,,,,,,,,,,,,,,,,,,,,,,,,,,,,,,,,,,,,,,,,,,,,,,,,,,,,,,,,,,,,,,,,,,,,,,,,,,,,,,,,,,,,,,,,,,,,,,,,,,,,,,,,,,,,,,,,,,,,,,,,,,,,,,,,,,,,,,,,,,,,,,,,,,,,,,,,,,,,,
,,,,,,5d6ff29b6fa93a001d61fc06,62c5397cf93e51d4ae53c7b9,2022-07-06_10h29.10.313,Colour_Asymmetry_Pilot,2022.1.3,Win32,59.95203837,62c50e9c1127f2cd403a315f,0,60,60,26,1,twoone,,,,,,,,,,,,,,,,,,,,,,,,,,,,,,,,,,,,,,,,,,,,,,,,,,,,,,,,,,,,,,,,,,,,,,,,,,,,,,,,,,,,,,,,,,,,,,,,,,,,,,,,,,,,,,,,,,,,,,,,,,,,,,,,,,,,,,,,,,,,,,,,,,,,,,,,,,,,,
,,,,,,5d6ff29b6fa93a001d61fc06,62c5397cf93e51d4ae53c7b9,2022-07-06_10h29.10.313,Colour_Asymmetry_Pilot,2022.1.3,Win32,59.95203837,62c50e9c1127f2cd403a315f,0,61,61,111,1,fourthree,,,,,,,,,,,,,,,,,,,,,,,,,,,,,,,,,,,,,,,,,,,,,,,,,,,,,,,,,,,,,,,,,,,,,,,,,,,,,,,,,,,,,,,,,,,,,,,,,,,,,,,,,,,,,,,,,,,,,,,,,,,,,,,,,,,,,,,,,,,,,,,,,,,,,,,,,,,,,
,,,,,,5d6ff29b6fa93a001d61fc06,62c5397cf93e51d4ae53c7b9,2022-07-06_10h29.10.313,Colour_Asymmetry_Pilot,2022.1.3,Win32,59.95203837,62c50e9c1127f2cd403a315f,0,62,62,160,1,onetwo,,,,,,,,,,,,,,,,,,,,,,,,,,,,,,,,,,,,,,,,,,,,,,,,,,,,,,,,,,,,,,,,,,,,,,,,,,,,,,,,,,,,,,,,,,,,,,,,,,,,,,,,,,,,,,,,,,,,,,,,,,,,,,,,,,,,,,,,,,,,,,,,,,,,,,,,,,,,,
,,,,,,5d6ff29b6fa93a001d61fc06,62c5397cf93e51d4ae53c7b9,2022-07-06_10h29.10.313,Colour_Asymmetry_Pilot,2022.1.3,Win32,59.95203837,62c50e9c1127f2cd403a315f,0,63,63,131,1,twofour,,,,,,,,,,,,,,,,,,,,,,,,,,,,,,,,,,,,,,,,,,,,,,,,,,,,,,,,,,,,,,,,,,,,,,,,,,,,,,,,,,,,,,,,,,,,,,,,,,,,,,,,,,,,,,,,,,,,,,,,,,,,,,,,,,,,,,,,,,,,,,,,,,,,,,,,,,,,,
,,,,,,5d6ff29b6fa93a001d61fc06,62c5397cf93e51d4ae53c7b9,2022-07-06_10h29.10.313,Colour_Asymmetry_Pilot,2022.1.3,Win32,59.95203837,62c50e9c1127f2cd403a315f,0,64,64,87,1,fourthree,,,,,,,,,,,,,,,,,,,,,,,,,,,,,,,,,,,,,,,,,,,,,,,,,,,,,,,,,,,,,,,,,,,,,,,,,,,,,,,,,,,,,,,,,,,,,,,,,,,,,,,,,,,,,,,,,,,,,,,,,,,,,,,,,,,,,,,,,,,,,,,,,,,,,,,,,,,,,
,,,,,,5d6ff29b6fa93a001d61fc06,62c5397cf93e51d4ae53c7b9,2022-07-06_10h29.10.313,Colour_Asymmetry_Pilot,2022.1.3,Win32,59.95203837,62c50e9c1127f2cd403a315f,0,65,65,32,1,onetwo,,,,,,,,,,,,,,,,,,,,,,,,,,,,,,,,,,,,,,,,,,,,,,,,,,,,,,,,,,,,,,,,,,,,,,,,,,,,,,,,,,,,,,,,,,,,,,,,,,,,,,,,,,,,,,,,,,,,,,,,,,,,,,,,,,,,,,,,,,,,,,,,,,,,,,,,,,,,,
,,,,,,5d6ff29b6fa93a001d61fc06,62c5397cf93e51d4ae53c7b9,2022-07-06_10h29.10.313,Colour_Asymmetry_Pilot,2022.1.3,Win32,59.95203837,62c50e9c1127f2cd403a315f,0,66,66,128,1,onetwo,,,,,,,,,,,,,,,,,,,,,,,,,,,,,,,,,,,,,,,,,,,,,,,,,,,,,,,,,,,,,,,,,,,,,,,,,,,,,,,,,,,,,,,,,,,,,,,,,,,,,,,,,,,,,,,,,,,,,,,,,,,,,,,,,,,,,,,,,,,,,,,,,,,,,,,,,,,,,
,,,,,,5d6ff29b6fa93a001d61fc06,62c5397cf93e51d4ae53c7b9,2022-07-06_10h29.10.313,Colour_Asymmetry_Pilot,2022.1.3,Win32,59.95203837,62c50e9c1127f2cd403a315f,0,67,67,45,1,threefour,,,,,,,,,,,,,,,,,,,,,,,,,,,,,,,,,,,,,,,,,,,,,,,,,,,,,,,,,,,,,,,,,,,,,,,,,,,,,,,,,,,,,,,,,,,,,,,,,,,,,,,,,,,,,,,,,,,,,,,,,,,,,,,,,,,,,,,,,,,,,,,,,,,,,,,,,,,,,
,,,,,,5d6ff29b6fa93a001d61fc06,62c5397cf93e51d4ae53c7b9,2022-07-06_10h29.10.313,Colour_Asymmetry_Pilot,2022.1.3,Win32,59.95203837,62c50e9c1127f2cd403a315f,0,68,68,18,1,twoone,,,,,,,,,,,,,,,,,,,,,,,,,,,,,,,,,,,,,,,,,,,,,,,,,,,,,,,,,,,,,,,,,,,,,,,,,,,,,,,,,,,,,,,,,,,,,,,,,,,,,,,,,,,,,,,,,,,,,,,,,,,,,,,,,,,,,,,,,,,,,,,,,,,,,,,,,,,,,
,,,,,,5d6ff29b6fa93a001d61fc06,62c5397cf93e51d4ae53c7b9,2022-07-06_10h29.10.313,Colour_Asymmetry_Pilot,2022.1.3,Win32,59.95203837,62c50e9c1127f2cd403a315f,0,69,69,103,1,fourthree,,,,,,,,,,,,,,,,,,,,,,,,,,,,,,,,,,,,,,,,,,,,,,,,,,,,,,,,,,,,,,,,,,,,,,,,,,,,,,,,,,,,,,,,,,,,,,,,,,,,,,,,,,,,,,,,,,,,,,,,,,,,,,,,,,,,,,,,,,,,,,,,,,,,,,,,,,,,,
,,,,,,5d6ff29b6fa93a001d61fc06,62c5397cf93e51d4ae53c7b9,2022-07-06_10h29.10.313,Colour_Asymmetry_Pilot,2022.1.3,Win32,59.95203837,62c50e9c1127f2cd403a315f,0,70,70,123,1,twofour,,,,,,,,,,,,,,,,,,,,,,,,,,,,,,,,,,,,,,,,,,,,,,,,,,,,,,,,,,,,,,,,,,,,,,,,,,,,,,,,,,,,,,,,,,,,,,,,,,,,,,,,,,,,,,,,,,,,,,,,,,,,,,,,,,,,,,,,,,,,,,,,,,,,,,,,,,,,,
,,,,,,5d6ff29b6fa93a001d61fc06,62c5397cf93e51d4ae53c7b9,2022-07-06_10h29.10.313,Colour_Asymmetry_Pilot,2022.1.3,Win32,59.95203837,62c50e9c1127f2cd403a315f,0,71,71,38,1,fourtwo,,,,,,,,,,,,,,,,,,,,,,,,,,,,,,,,,,,,,,,,,,,,,,,,,,,,,,,,,,,,,,,,,,,,,,,,,,,,,,,,,,,,,,,,,,,,,,,,,,,,,,,,,,,,,,,,,,,,,,,,,,,,,,,,,,,,,,,,,,,,,,,,,,,,,,,,,,,,,
,,,,,,5d6ff29b6fa93a001d61fc06,62c5397cf93e51d4ae53c7b9,2022-07-06_10h29.10.313,Colour_Asymmetry_Pilot,2022.1.3,Win32,59.95203837,62c50e9c1127f2cd403a315f,0,72,72,110,1,fourtwo,,,,,,,,,,,,,,,,,,,,,,,,,,,,,,,,,,,,,,,,,,,,,,,,,,,,,,,,,,,,,,,,,,,,,,,,,,,,,,,,,,,,,,,,,,,,,,,,,,,,,,,,,,,,,,,,,,,,,,,,,,,,,,,,,,,,,,,,,,,,,,,,,,,,,,,,,,,,,
,,,,,,5d6ff29b6fa93a001d61fc06,62c5397cf93e51d4ae53c7b9,2022-07-06_10h29.10.313,Colour_Asymmetry_Pilot,2022.1.3,Win32,59.95203837,62c50e9c1127f2cd403a315f,0,73,73,130,1,twoone,,,,,,,,,,,,,,,,,,,,,,,,,,,,,,,,,,,,,,,,,,,,,,,,,,,,,,,,,,,,,,,,,,,,,,,,,,,,,,,,,,,,,,,,,,,,,,,,,,,,,,,,,,,,,,,,,,,,,,,,,,,,,,,,,,,,,,,,,,,,,,,,,,,,,,,,,,,,,
,,,,,,5d6ff29b6fa93a001d61fc06,62c5397cf93e51d4ae53c7b9,2022-07-06_10h29.10.313,Colour_Asymmetry_Pilot,2022.1.3,Win32,59.95203837,62c50e9c1127f2cd403a315f,0,74,74,24,1,onetwo,,,,,,,,,,,,,,,,,,,,,,,,,,,,,,,,,,,,,,,,,,,,,,,,,,,,,,,,,,,,,,,,,,,,,,,,,,,,,,,,,,,,,,,,,,,,,,,,,,,,,,,,,,,,,,,,,,,,,,,,,,,,,,,,,,,,,,,,,,,,,,,,,,,,,,,,,,,,,
,,,,,,5d6ff29b6fa93a001d61fc06,62c5397cf93e51d4ae53c7b9,2022-07-06_10h29.10.313,Colour_Asymmetry_Pilot,2022.1.3,Win32,59.95203837,62c50e9c1127f2cd403a315f,0,75,75,43,1,twofour,,,,,,,,,,,,,,,,,,,,,,,,,,,,,,,,,,,,,,,,,,,,,,,,,,,,,,,,,,,,,,,,,,,,,,,,,,,,,,,,,,,,,,,,,,,,,,,,,,,,,,,,,,,,,,,,,,,,,,,,,,,,,,,,,,,,,,,,,,,,,,,,,,,,,,,,,,,,,
,,,,,,5d6ff29b6fa93a001d61fc06,62c5397cf93e51d4ae53c7b9,2022-07-06_10h29.10.313,Colour_Asymmetry_Pilot,2022.1.3,Win32,59.95203837,62c50e9c1127f2cd403a315f,0,76,76,39,1,fourthree,,,,,,,,,,,,,,,,,,,,,,,,,,,,,,,,,,,,,,,,,,,,,,,,,,,,,,,,,,,,,,,,,,,,,,,,,,,,,,,,,,,,,,,,,,,,,,,,,,,,,,,,,,,,,,,,,,,,,,,,,,,,,,,,,,,,,,,,,,,,,,,,,,,,,,,,,,,,,
,,,,,,5d6ff29b6fa93a001d61fc06,62c5397cf93e51d4ae53c7b9,2022-07-06_10h29.10.313,Colour_Asymmetry_Pilot,2022.1.3,Win32,59.95203837,62c50e9c1127f2cd403a315f,0,77,77,95,1,fourthree,,,,,,,,,,,,,,,,,,,,,,,,,,,,,,,,,,,,,,,,,,,,,,,,,,,,,,,,,,,,,,,,,,,,,,,,,,,,,,,,,,,,,,,,,,,,,,,,,,,,,,,,,,,,,,,,,,,,,,,,,,,,,,,,,,,,,,,,,,,,,,,,,,,,,,,,,,,,,
,,,,,,5d6ff29b6fa93a001d61fc06,62c5397cf93e51d4ae53c7b9,2022-07-06_10h29.10.313,Colour_Asymmetry_Pilot,2022.1.3,Win32,59.95203837,62c50e9c1127f2cd403a315f,0,78,78,19,1,twofour,,,,,,,,,,,,,,,,,,,,,,,,,,,,,,,,,,,,,,,,,,,,,,,,,,,,,,,,,,,,,,,,,,,,,,,,,,,,,,,,,,,,,,,,,,,,,,,,,,,,,,,,,,,,,,,,,,,,,,,,,,,,,,,,,,,,,,,,,,,,,,,,,,,,,,,,,,,,,
,,,,,,5d6ff29b6fa93a001d61fc06,62c5397cf93e51d4ae53c7b9,2022-07-06_10h29.10.313,Colour_Asymmetry_Pilot,2022.1.3,Win32,59.95203837,62c50e9c1127f2cd403a315f,0,79,79,108,1,threeone,,,,,,,,,,,,,,,,,,,,,,,,,,,,,,,,,,,,,,,,,,,,,,,,,,,,,,,,,,,,,,,,,,,,,,,,,,,,,,,,,,,,,,,,,,,,,,,,,,,,,,,,,,,,,,,,,,,,,,,,,,,,,,,,,,,,,,,,,,,,,,,,,,,,,,,,,,,,,
,,,,,,5d6ff29b6fa93a001d61fc06,62c5397cf93e51d4ae53c7b9,2022-07-06_10h29.10.313,Colour_Asymmetry_Pilot,2022.1.3,Win32,59.95203837,62c50e9c1127f2cd403a315f,0,80,80,98,1,twoone,,,,,,,,,,,,,,,,,,,,,,,,,,,,,,,,,,,,,,,,,,,,,,,,,,,,,,,,,,,,,,,,,,,,,,,,,,,,,,,,,,,,,,,,,,,,,,,,,,,,,,,,,,,,,,,,,,,,,,,,,,,,,,,,,,,,,,,,,,,,,,,,,,,,,,,,,,,,,
,,,,,,5d6ff29b6fa93a001d61fc06,62c5397cf93e51d4ae53c7b9,2022-07-06_10h29.10.313,Colour_Asymmetry_Pilot,2022.1.3,Win32,59.95203837,62c50e9c1127f2cd403a315f,0,81,81,127,1,fourthree,,,,,,,,,,,,,,,,,,,,,,,,,,,,,,,,,,,,,,,,,,,,,,,,,,,,,,,,,,,,,,,,,,,,,,,,,,,,,,,,,,,,,,,,,,,,,,,,,,,,,,,,,,,,,,,,,,,,,,,,,,,,,,,,,,,,,,,,,,,,,,,,,,,,,,,,,,,,,
,,,,,,5d6ff29b6fa93a001d61fc06,62c5397cf93e51d4ae53c7b9,2022-07-06_10h29.10.313,Colour_Asymmetry_Pilot,2022.1.3,Win32,59.95203837,62c50e9c1127f2cd403a315f,0,82,82,76,1,threeone,,,,,,,,,,,,,,,,,,,,,,,,,,,,,,,,,,,,,,,,,,,,,,,,,,,,,,,,,,,,,,,,,,,,,,,,,,,,,,,,,,,,,,,,,,,,,,,,,,,,,,,,,,,,,,,,,,,,,,,,,,,,,,,,,,,,,,,,,,,,,,,,,,,,,,,,,,,,,
,,,,,,5d6ff29b6fa93a001d61fc06,62c5397cf93e51d4ae53c7b9,2022-07-06_10h29.10.313,Colour_Asymmetry_Pilot,2022.1.3,Win32,59.95203837,62c50e9c1127f2cd403a315f,0,83,83,27,1,twofour,,,,,,,,,,,,,,,,,,,,,,,,,,,,,,,,,,,,,,,,,,,,,,,,,,,,,,,,,,,,,,,,,,,,,,,,,,,,,,,,,,,,,,,,,,,,,,,,,,,,,,,,,,,,,,,,,,,,,,,,,,,,,,,,,,,,,,,,,,,,,,,,,,,,,,,,,,,,,
,,,,,,5d6ff29b6fa93a001d61fc06,62c5397cf93e51d4ae53c7b9,2022-07-06_10h29.10.313,Colour_Asymmetry_Pilot,2022.1.3,Win32,59.95203837,62c50e9c1127f2cd403a315f,0,84,84,105,1,onethree,,,,,,,,,,,,,,,,,,,,,,,,,,,,,,,,,,,,,,,,,,,,,,,,,,,,,,,,,,,,,,,,,,,,,,,,,,,,,,,,,,,,,,,,,,,,,,,,,,,,,,,,,,,,,,,,,,,,,,,,,,,,,,,,,,,,,,,,,,,,,,,,,,,,,,,,,,,,,
,,,,,,5d6ff29b6fa93a001d61fc06,62c5397cf93e51d4ae53c7b9,2022-07-06_10h29.10.313,Colour_Asymmetry_Pilot,2022.1.3,Win32,59.95203837,62c50e9c1127f2cd403a315f,0,85,85,49,1,onethree,,,,,,,,,,,,,,,,,,,,,,,,,,,,,,,,,,,,,,,,,,,,,,,,,,,,,,,,,,,,,,,,,,,,,,,,,,,,,,,,,,,,,,,,,,,,,,,,,,,,,,,,,,,,,,,,,,,,,,,,,,,,,,,,,,,,,,,,,,,,,,,,,,,,,,,,,,,,,
,,,,,,5d6ff29b6fa93a001d61fc06,62c5397cf93e51d4ae53c7b9,2022-07-06_10h29.10.313,Colour_Asymmetry_Pilot,2022.1.3,Win32,59.95203837,62c50e9c1127f2cd403a315f,0,86,86,142,1,fourtwo,,,,,,,,,,,,,,,,,,,,,,,,,,,,,,,,,,,,,,,,,,,,,,,,,,,,,,,,,,,,,,,,,,,,,,,,,,,,,,,,,,,,,,,,,,,,,,,,,,,,,,,,,,,,,,,,,,,,,,,,,,,,,,,,,,,,,,,,,,,,,,,,,,,,,,,,,,,,,
,,,,,,5d6ff29b6fa93a001d61fc06,62c5397cf93e51d4ae53c7b9,2022-07-06_10h29.10.313,Colour_Asymmetry_Pilot,2022.1.3,Win32,59.95203837,62c50e9c1127f2cd403a315f,0,87,87,37,1,threefour,,,,,,,,,,,,,,,,,,,,,,,,,,,,,,,,,,,,,,,,,,,,,,,,,,,,,,,,,,,,,,,,,,,,,,,,,,,,,,,,,,,,,,,,,,,,,,,,,,,,,,,,,,,,,,,,,,,,,,,,,,,,,,,,,,,,,,,,,,,,,,,,,,,,,,,,,,,,,
,,,,,,5d6ff29b6fa93a001d61fc06,62c5397cf93e51d4ae53c7b9,2022-07-06_10h29.10.313,Colour_Asymmetry_Pilot,2022.1.3,Win32,59.95203837,62c50e9c1127f2cd403a315f,0,88,88,78,1,fourtwo,,,,,,,,,,,,,,,,,,,,,,,,,,,,,,,,,,,,,,,,,,,,,,,,,,,,,,,,,,,,,,,,,,,,,,,,,,,,,,,,,,,,,,,,,,,,,,,,,,,,,,,,,,,,,,,,,,,,,,,,,,,,,,,,,,,,,,,,,,,,,,,,,,,,,,,,,,,,,
,,,,,,5d6ff29b6fa93a001d61fc06,62c5397cf93e51d4ae53c7b9,2022-07-06_10h29.10.313,Colour_Asymmetry_Pilot,2022.1.3,Win32,59.95203837,62c50e9c1127f2cd403a315f,0,89,89,0,1,onetwo,,,,,,,,,,,,,,,,,,,,,,,,,,,,,,,,,,,,,,,,,,,,,,,,,,,,,,,,,,,,,,,,,,,,,,,,,,,,,,,,,,,,,,,,,,,,,,,,,,,,,,,,,,,,,,,,,,,,,,,,,,,,,,,,,,,,,,,,,,,,,,,,,,,,,,,,,,,,,
,,,,,,5d6ff29b6fa93a001d61fc06,62c5397cf93e51d4ae53c7b9,2022-07-06_10h29.10.313,Colour_Asymmetry_Pilot,2022.1.3,Win32,59.95203837,62c50e9c1127f2cd403a315f,0,90,90,89,1,onethree,,,,,,,,,,,,,,,,,,,,,,,,,,,,,,,,,,,,,,,,,,,,,,,,,,,,,,,,,,,,,,,,,,,,,,,,,,,,,,,,,,,,,,,,,,,,,,,,,,,,,,,,,,,,,,,,,,,,,,,,,,,,,,,,,,,,,,,,,,,,,,,,,,,,,,,,,,,,,
,,,,,,5d6ff29b6fa93a001d61fc06,62c5397cf93e51d4ae53c7b9,2022-07-06_10h29.10.313,Colour_Asymmetry_Pilot,2022.1.3,Win32,59.95203837,62c50e9c1127f2cd403a315f,0,91,91,4,1,threeone,,,,,,,,,,,,,,,,,,,,,,,,,,,,,,,,,,,,,,,,,,,,,,,,,,,,,,,,,,,,,,,,,,,,,,,,,,,,,,,,,,,,,,,,,,,,,,,,,,,,,,,,,,,,,,,,,,,,,,,,,,,,,,,,,,,,,,,,,,,,,,,,,,,,,,,,,,,,,
,,,,,,5d6ff29b6fa93a001d61fc06,62c5397cf93e51d4ae53c7b9,2022-07-06_10h29.10.313,Colour_Asymmetry_Pilot,2022.1.3,Win32,59.95203837,62c50e9c1127f2cd403a315f,0,92,92,25,1,onethree,,,,,,,,,,,,,,,,,,,,,,,,,,,,,,,,,,,,,,,,,,,,,,,,,,,,,,,,,,,,,,,,,,,,,,,,,,,,,,,,,,,,,,,,,,,,,,,,,,,,,,,,,,,,,,,,,,,,,,,,,,,,,,,,,,,,,,,,,,,,,,,,,,,,,,,,,,,,,
,,,,,,5d6ff29b6fa93a001d61fc06,62c5397cf93e51d4ae53c7b9,2022-07-06_10h29.10.313,Colour_Asymmetry_Pilot,2022.1.3,Win32,59.95203837,62c50e9c1127f2cd403a315f,0,93,93,97,1,onethree,,,,,,,,,,,,,,,,,,,,,,,,,,,,,,,,,,,,,,,,,,,,,,,,,,,,,,,,,,,,,,,,,,,,,,,,,,,,,,,,,,,,,,,,,,,,,,,,,,,,,,,,,,,,,,,,,,,,,,,,,,,,,,,,,,,,,,,,,,,,,,,,,,,,,,,,,,,,,
,,,,,,5d6ff29b6fa93a001d61fc06,62c5397cf93e51d4ae53c7b9,2022-07-06_10h29.10.313,Colour_Asymmetry_Pilot,2022.1.3,Win32,59.95203837,62c50e9c1127f2cd403a315f,0,94,94,107,1,twofour,,,,,,,,,,,,,,,,,,,,,,,,,,,,,,,,,,,,,,,,,,,,,,,,,,,,,,,,,,,,,,,,,,,,,,,,,,,,,,,,,,,,,,,,,,,,,,,,,,,,,,,,,,,,,,,,,,,,,,,,,,,,,,,,,,,,,,,,,,,,,,,,,,,,,,,,,,,,,
,,,,,,5d6ff29b6fa93a001d61fc06,62c5397cf93e51d4ae53c7b9,2022-07-06_10h29.10.313,Colour_Asymmetry_Pilot,2022.1.3,Win32,59.95203837,62c50e9c1127f2cd403a315f,0,95,95,55,1,fourthree,,,,,,,,,,,,,,,,,,,,,,,,,,,,,,,,,,,,,,,,,,,,,,,,,,,,,,,,,,,,,,,,,,,,,,,,,,,,,,,,,,,,,,,,,,,,,,,,,,,,,,,,,,,,,,,,,,,,,,,,,,,,,,,,,,,,,,,,,,,,,,,,,,,,,,,,,,,,,
,,,,,,5d6ff29b6fa93a001d61fc06,62c5397cf93e51d4ae53c7b9,2022-07-06_10h29.10.313,Colour_Asymmetry_Pilot,2022.1.3,Win32,59.95203837,62c50e9c1127f2cd403a315f,0,96,96,56,1,onetwo,,,,,,,,,,,,,,,,,,,,,,,,,,,,,,,,,,,,,,,,,,,,,,,,,,,,,,,,,,,,,,,,,,,,,,,,,,,,,,,,,,,,,,,,,,,,,,,,,,,,,,,,,,,,,,,,,,,,,,,,,,,,,,,,,,,,,,,,,,,,,,,,,,,,,,,,,,,,,
,,,,,,5d6ff29b6fa93a001d61fc06,62c5397cf93e51d4ae53c7b9,2022-07-06_10h29.10.313,Colour_Asymmetry_Pilot,2022.1.3,Win32,59.95203837,62c50e9c1127f2cd403a315f,0,97,97,126,1,fourtwo,,,,,,,,,,,,,,,,,,,,,,,,,,,,,,,,,,,,,,,,,,,,,,,,,,,,,,,,,,,,,,,,,,,,,,,,,,,,,,,,,,,,,,,,,,,,,,,,,,,,,,,,,,,,,,,,,,,,,,,,,,,,,,,,,,,,,,,,,,,,,,,,,,,,,,,,,,,,,
,,,,,,5d6ff29b6fa93a001d61fc06,62c5397cf93e51d4ae53c7b9,2022-07-06_10h29.10.313,Colour_Asymmetry_Pilot,2022.1.3,Win32,59.95203837,62c50e9c1127f2cd403a315f,0,98,98,136,1,onetwo,,,,,,,,,,,,,,,,,,,,,,,,,,,,,,,,,,,,,,,,,,,,,,,,,,,,,,,,,,,,,,,,,,,,,,,,,,,,,,,,,,,,,,,,,,,,,,,,,,,,,,,,,,,,,,,,,,,,,,,,,,,,,,,,,,,,,,,,,,,,,,,,,,,,,,,,,,,,,
,,,,,,5d6ff29b6fa93a001d61fc06,62c5397cf93e51d4ae53c7b9,2022-07-06_10h29.10.313,Colour_Asymmetry_Pilot,2022.1.3,Win32,59.95203837,62c50e9c1127f2cd403a315f,0,99,99,155,1,twofour,,,,,,,,,,,,,,,,,,,,,,,,,,,,,,,,,,,,,,,,,,,,,,,,,,,,,,,,,,,,,,,,,,,,,,,,,,,,,,,,,,,,,,,,,,,,,,,,,,,,,,,,,,,,,,,,,,,,,,,,,,,,,,,,,,,,,,,,,,,,,,,,,,,,,,,,,,,,,
,,,,,,5d6ff29b6fa93a001d61fc06,62c5397cf93e51d4ae53c7b9,2022-07-06_10h29.10.313,Colour_Asymmetry_Pilot,2022.1.3,Win32,59.95203837,62c50e9c1127f2cd403a315f,0,100,100,86,1,fourtwo,,,,,,,,,,,,,,,,,,,,,,,,,,,,,,,,,,,,,,,,,,,,,,,,,,,,,,,,,,,,,,,,,,,,,,,,,,,,,,,,,,,,,,,,,,,,,,,,,,,,,,,,,,,,,,,,,,,,,,,,,,,,,,,,,,,,,,,,,,,,,,,,,,,,,,,,,,,,,
,,,,,,5d6ff29b6fa93a001d61fc06,62c5397cf93e51d4ae53c7b9,2022-07-06_10h29.10.313,Colour_Asymmetry_Pilot,2022.1.3,Win32,59.95203837,62c50e9c1127f2cd403a315f,0,101,101,91,1,twofour,,,,,,,,,,,,,,,,,,,,,,,,,,,,,,,,,,,,,,,,,,,,,,,,,,,,,,,,,,,,,,,,,,,,,,,,,,,,,,,,,,,,,,,,,,,,,,,,,,,,,,,,,,,,,,,,,,,,,,,,,,,,,,,,,,,,,,,,,,,,,,,,,,,,,,,,,,,,,
,,,,,,5d6ff29b6fa93a001d61fc06,62c5397cf93e51d4ae53c7b9,2022-07-06_10h29.10.313,Colour_Asymmetry_Pilot,2022.1.3,Win32,59.95203837,62c50e9c1127f2cd403a315f,0,102,102,74,1,twoone,,,,,,,,,,,,,,,,,,,,,,,,,,,,,,,,,,,,,,,,,,,,,,,,,,,,,,,,,,,,,,,,,,,,,,,,,,,,,,,,,,,,,,,,,,,,,,,,,,,,,,,,,,,,,,,,,,,,,,,,,,,,,,,,,,,,,,,,,,,,,,,,,,,,,,,,,,,,,
,,,,,,5d6ff29b6fa93a001d61fc06,62c5397cf93e51d4ae53c7b9,2022-07-06_10h29.10.313,Colour_Asymmetry_Pilot,2022.1.3,Win32,59.95203837,62c50e9c1127f2cd403a315f,0,103,103,84,1,threeone,,,,,,,,,,,,,,,,,,,,,,,,,,,,,,,,,,,,,,,,,,,,,,,,,,,,,,,,,,,,,,,,,,,,,,,,,,,,,,,,,,,,,,,,,,,,,,,,,,,,,,,,,,,,,,,,,,,,,,,,,,,,,,,,,,,,,,,,,,,,,,,,,,,,,,,,,,,,,
,,,,,,5d6ff29b6fa93a001d61fc06,62c5397cf93e51d4ae53c7b9,2022-07-06_10h29.10.313,Colour_Asymmetry_Pilot,2022.1.3,Win32,59.95203837,62c50e9c1127f2cd403a315f,0,104,104,94,1,fourtwo,,,,,,,,,,,,,,,,,,,,,,,,,,,,,,,,,,,,,,,,,,,,,,,,,,,,,,,,,,,,,,,,,,,,,,,,,,,,,,,,,,,,,,,,,,,,,,,,,,,,,,,,,,,,,,,,,,,,,,,,,,,,,,,,,,,,,,,,,,,,,,,,,,,,,,,,,,,,,
,,,,,,5d6ff29b6fa93a001d61fc06,62c5397cf93e51d4ae53c7b9,2022-07-06_10h29.10.313,Colour_Asymmetry_Pilot,2022.1.3,Win32,59.95203837,62c50e9c1127f2cd403a315f,0,105,105,106,1,twoone,,,,,,,,,,,,,,,,,,,,,,,,,,,,,,,,,,,,,,,,,,,,,,,,,,,,,,,,,,,,,,,,,,,,,,,,,,,,,,,,,,,,,,,,,,,,,,,,,,,,,,,,,,,,,,,,,,,,,,,,,,,,,,,,,,,,,,,,,,,,,,,,,,,,,,,,,,,,,
,,,,,,5d6ff29b6fa93a001d61fc06,62c5397cf93e51d4ae53c7b9,2022-07-06_10h29.10.313,Colour_Asymmetry_Pilot,2022.1.3,Win32,59.95203837,62c50e9c1127f2cd403a315f,0,106,106,9,1,onethree,,,,,,,,,,,,,,,,,,,,,,,,,,,,,,,,,,,,,,,,,,,,,,,,,,,,,,,,,,,,,,,,,,,,,,,,,,,,,,,,,,,,,,,,,,,,,,,,,,,,,,,,,,,,,,,,,,,,,,,,,,,,,,,,,,,,,,,,,,,,,,,,,,,,,,,,,,,,,
,,,,,,5d6ff29b6fa93a001d61fc06,62c5397cf93e51d4ae53c7b9,2022-07-06_10h29.10.313,Colour_Asymmetry_Pilot,2022.1.3,Win32,59.95203837,62c50e9c1127f2cd403a315f,0,107,107,93,1,threefour,,,,,,,,,,,,,,,,,,,,,,,,,,,,,,,,,,,,,,,,,,,,,,,,,,,,,,,,,,,,,,,,,,,,,,,,,,,,,,,,,,,,,,,,,,,,,,,,,,,,,,,,,,,,,,,,,,,,,,,,,,,,,,,,,,,,,,,,,,,,,,,,,,,,,,,,,,,,,
,,,,,,5d6ff29b6fa93a001d61fc06,62c5397cf93e51d4ae53c7b9,2022-07-06_10h29.10.313,Colour_Asymmetry_Pilot,2022.1.3,Win32,59.95203837,62c50e9c1127f2cd403a315f,0,108,108,122,1,twoone,,,,,,,,,,,,,,,,,,,,,,,,,,,,,,,,,,,,,,,,,,,,,,,,,,,,,,,,,,,,,,,,,,,,,,,,,,,,,,,,,,,,,,,,,,,,,,,,,,,,,,,,,,,,,,,,,,,,,,,,,,,,,,,,,,,,,,,,,,,,,,,,,,,,,,,,,,,,,
,,,,,,5d6ff29b6fa93a001d61fc06,62c5397cf93e51d4ae53c7b9,2022-07-06_10h29.10.313,Colour_Asymmetry_Pilot,2022.1.3,Win32,59.95203837,62c50e9c1127f2cd403a315f,0,109,109,36,1,threeone,,,,,,,,,,,,,,,,,,,,,,,,,,,,,,,,,,,,,,,,,,,,,,,,,,,,,,,,,,,,,,,,,,,,,,,,,,,,,,,,,,,,,,,,,,,,,,,,,,,,,,,,,,,,,,,,,,,,,,,,,,,,,,,,,,,,,,,,,,,,,,,,,,,,,,,,,,,,,
,,,,,,5d6ff29b6fa93a001d61fc06,62c5397cf93e51d4ae53c7b9,2022-07-06_10h29.10.313,Colour_Asymmetry_Pilot,2022.1.3,Win32,59.95203837,62c50e9c1127f2cd403a315f,0,110,110,72,1,onetwo,,,,,,,,,,,,,,,,,,,,,,,,,,,,,,,,,,,,,,,,,,,,,,,,,,,,,,,,,,,,,,,,,,,,,,,,,,,,,,,,,,,,,,,,,,,,,,,,,,,,,,,,,,,,,,,,,,,,,,,,,,,,,,,,,,,,,,,,,,,,,,,,,,,,,,,,,,,,,
,,,,,,5d6ff29b6fa93a001d61fc06,62c5397cf93e51d4ae53c7b9,2022-07-06_10h29.10.313,Colour_Asymmetry_Pilot,2022.1.3,Win32,59.95203837,62c50e9c1127f2cd403a315f,0,111,111,15,1,fourthree,,,,,,,,,,,,,,,,,,,,,,,,,,,,,,,,,,,,,,,,,,,,,,,,,,,,,,,,,,,,,,,,,,,,,,,,,,,,,,,,,,,,,,,,,,,,,,,,,,,,,,,,,,,,,,,,,,,,,,,,,,,,,,,,,,,,,,,,,,,,,,,,,,,,,,,,,,,,,
,,,,,,5d6ff29b6fa93a001d61fc06,62c5397cf93e51d4ae53c7b9,2022-07-06_10h29.10.313,Colour_Asymmetry_Pilot,2022.1.3,Win32,59.95203837,62c50e9c1127f2cd403a315f,0,112,112,63,1,fourthree,,,,,,,,,,,,,,,,,,,,,,,,,,,,,,,,,,,,,,,,,,,,,,,,,,,,,,,,,,,,,,,,,,,,,,,,,,,,,,,,,,,,,,,,,,,,,,,,,,,,,,,,,,,,,,,,,,,,,,,,,,,,,,,,,,,,,,,,,,,,,,,,,,,,,,,,,,,,,
,,,,,,5d6ff29b6fa93a001d61fc06,62c5397cf93e51d4ae53c7b9,2022-07-06_10h29.10.313,Colour_Asymmetry_Pilot,2022.1.3,Win32,59.95203837,62c50e9c1127f2cd403a315f,0,113,113,139,1,twofour,,,,,,,,,,,,,,,,,,,,,,,,,,,,,,,,,,,,,,,,,,,,,,,,,,,,,,,,,,,,,,,,,,,,,,,,,,,,,,,,,,,,,,,,,,,,,,,,,,,,,,,,,,,,,,,,,,,,,,,,,,,,,,,,,,,,,,,,,,,,,,,,,,,,,,,,,,,,,
,,,,,,5d6ff29b6fa93a001d61fc06,62c5397cf93e51d4ae53c7b9,2022-07-06_10h29.10.313,Colour_Asymmetry_Pilot,2022.1.3,Win32,59.95203837,62c50e9c1127f2cd403a315f,0,114,114,113,1,onethree,,,,,,,,,,,,,,,,,,,,,,,,,,,,,,,,,,,,,,,,,,,,,,,,,,,,,,,,,,,,,,,,,,,,,,,,,,,,,,,,,,,,,,,,,,,,,,,,,,,,,,,,,,,,,,,,,,,,,,,,,,,,,,,,,,,,,,,,,,,,,,,,,,,,,,,,,,,,,
,,,,,,5d6ff29b6fa93a001d61fc06,62c5397cf93e51d4ae53c7b9,2022-07-06_10h29.10.313,Colour_Asymmetry_Pilot,2022.1.3,Win32,59.95203837,62c50e9c1127f2cd403a315f,0,115,115,135,1,fourthree,,,,,,,,,,,,,,,,,,,,,,,,,,,,,,,,,,,,,,,,,,,,,,,,,,,,,,,,,,,,,,,,,,,,,,,,,,,,,,,,,,,,,,,,,,,,,,,,,,,,,,,,,,,,,,,,,,,,,,,,,,,,,,,,,,,,,,,,,,,,,,,,,,,,,,,,,,,,,
,,,,,,5d6ff29b6fa93a001d61fc06,62c5397cf93e51d4ae53c7b9,2022-07-06_10h29.10.313,Colour_Asymmetry_Pilot,2022.1.3,Win32,59.95203837,62c50e9c1127f2cd403a315f,0,116,116,33,1,onethree,,,,,,,,,,,,,,,,,,,,,,,,,,,,,,,,,,,,,,,,,,,,,,,,,,,,,,,,,,,,,,,,,,,,,,,,,,,,,,,,,,,,,,,,,,,,,,,,,,,,,,,,,,,,,,,,,,,,,,,,,,,,,,,,,,,,,,,,,,,,,,,,,,,,,,,,,,,,,
,,,,,,5d6ff29b6fa93a001d61fc06,62c5397cf93e51d4ae53c7b9,2022-07-06_10h29.10.313,Colour_Asymmetry_Pilot,2022.1.3,Win32,59.95203837,62c50e9c1127f2cd403a315f,0,117,117,159,1,fourthree,,,,,,,,,,,,,,,,,,,,,,,,,,,,,,,,,,,,,,,,,,,,,,,,,,,,,,,,,,,,,,,,,,,,,,,,,,,,,,,,,,,,,,,,,,,,,,,,,,,,,,,,,,,,,,,,,,,,,,,,,,,,,,,,,,,,,,,,,,,,,,,,,,,,,,,,,,,,,
,,,,,,5d6ff29b6fa93a001d61fc06,62c5397cf93e51d4ae53c7b9,2022-07-06_10h29.10.313,Colour_Asymmetry_Pilot,2022.1.3,Win32,59.95203837,62c50e9c1127f2cd403a315f,0,118,118,104,1,onetwo,,,,,,,,,,,,,,,,,,,,,,,,,,,,,,,,,,,,,,,,,,,,,,,,,,,,,,,,,,,,,,,,,,,,,,,,,,,,,,,,,,,,,,,,,,,,,,,,,,,,,,,,,,,,,,,,,,,,,,,,,,,,,,,,,,,,,,,,,,,,,,,,,,,,,,,,,,,,,
,,,,,,5d6ff29b6fa93a001d61fc06,62c5397cf93e51d4ae53c7b9,2022-07-06_10h29.10.313,Colour_Asymmetry_Pilot,2022.1.3,Win32,59.95203837,62c50e9c1127f2cd403a315f,0,119,119,41,1,onethree,,,,,,,,,,,,,,,,,,,,,,,,,,,,,,,,,,,,,,,,,,,,,,,,,,,,,,,,,,,,,,,,,,,,,,,,,,,,,,,,,,,,,,,,,,,,,,,,,,,,,,,,,,,,,,,,,,,,,,,,,,,,,,,,,,,,,,,,,,,,,,,,,,,,,,,,,,,,,
,,,,,,5d6ff29b6fa93a001d61fc06,62c5397cf93e51d4ae53c7b9,2022-07-06_10h29.10.313,Colour_Asymmetry_Pilot,2022.1.3,Win32,59.95203837,62c50e9c1127f2cd403a315f,0,120,120,60,1,threeone,,,,,,,,,,,,,,,,,,,,,,,,,,,,,,,,,,,,,,,,,,,,,,,,,,,,,,,,,,,,,,,,,,,,,,,,,,,,,,,,,,,,,,,,,,,,,,,,,,,,,,,,,,,,,,,,,,,,,,,,,,,,,,,,,,,,,,,,,,,,,,,,,,,,,,,,,,,,,
,,,,,,5d6ff29b6fa93a001d61fc06,62c5397cf93e51d4ae53c7b9,2022-07-06_10h29.10.313,Colour_Asymmetry_Pilot,2022.1.3,Win32,59.95203837,62c50e9c1127f2cd403a315f,0,121,121,132,1,threeone,,,,,,,,,,,,,,,,,,,,,,,,,,,,,,,,,,,,,,,,,,,,,,,,,,,,,,,,,,,,,,,,,,,,,,,,,,,,,,,,,,,,,,,,,,,,,,,,,,,,,,,,,,,,,,,,,,,,,,,,,,,,,,,,,,,,,,,,,,,,,,,,,,,,,,,,,,,,,
,,,,,,5d6ff29b6fa93a001d61fc06,62c5397cf93e51d4ae53c7b9,2022-07-06_10h29.10.313,Colour_Asymmetry_Pilot,2022.1.3,Win32,59.95203837,62c50e9c1127f2cd403a315f,0,122,122,154,1,twoone,,,,,,,,,,,,,,,,,,,,,,,,,,,,,,,,,,,,,,,,,,,,,,,,,,,,,,,,,,,,,,,,,,,,,,,,,,,,,,,,,,,,,,,,,,,,,,,,,,,,,,,,,,,,,,,,,,,,,,,,,,,,,,,,,,,,,,,,,,,,,,,,,,,,,,,,,,,,,
,,,,,,5d6ff29b6fa93a001d61fc06,62c5397cf93e51d4ae53c7b9,2022-07-06_10h29.10.313,Colour_Asymmetry_Pilot,2022.1.3,Win32,59.95203837,62c50e9c1127f2cd403a315f,0,123,123,57,1,onethree,,,,,,,,,,,,,,,,,,,,,,,,,,,,,,,,,,,,,,,,,,,,,,,,,,,,,,,,,,,,,,,,,,,,,,,,,,,,,,,,,,,,,,,,,,,,,,,,,,,,,,,,,,,,,,,,,,,,,,,,,,,,,,,,,,,,,,,,,,,,,,,,,,,,,,,,,,,,,
,,,,,,5d6ff29b6fa93a001d61fc06,62c5397cf93e51d4ae53c7b9,2022-07-06_10h29.10.313,Colour_Asymmetry_Pilot,2022.1.3,Win32,59.95203837,62c50e9c1127f2cd403a315f,0,124,124,42,1,twoone,,,,,,,,,,,,,,,,,,,,,,,,,,,,,,,,,,,,,,,,,,,,,,,,,,,,,,,,,,,,,,,,,,,,,,,,,,,,,,,,,,,,,,,,,,,,,,,,,,,,,,,,,,,,,,,,,,,,,,,,,,,,,,,,,,,,,,,,,,,,,,,,,,,,,,,,,,,,,
,,,,,,5d6ff29b6fa93a001d61fc06,62c5397cf93e51d4ae53c7b9,2022-07-06_10h29.10.313,Colour_Asymmetry_Pilot,2022.1.3,Win32,59.95203837,62c50e9c1127f2cd403a315f,0,125,125,17,1,onethree,,,,,,,,,,,,,,,,,,,,,,,,,,,,,,,,,,,,,,,,,,,,,,,,,,,,,,,,,,,,,,,,,,,,,,,,,,,,,,,,,,,,,,,,,,,,,,,,,,,,,,,,,,,,,,,,,,,,,,,,,,,,,,,,,,,,,,,,,,,,,,,,,,,,,,,,,,,,,
,,,,,,5d6ff29b6fa93a001d61fc06,62c5397cf93e51d4ae53c7b9,2022-07-06_10h29.10.313,Colour_Asymmetry_Pilot,2022.1.3,Win32,59.95203837,62c50e9c1127f2cd403a315f,0,126,126,141,1,threefour,,,,,,,,,,,,,,,,,,,,,,,,,,,,,,,,,,,,,,,,,,,,,,,,,,,,,,,,,,,,,,,,,,,,,,,,,,,,,,,,,,,,,,,,,,,,,,,,,,,,,,,,,,,,,,,,,,,,,,,,,,,,,,,,,,,,,,,,,,,,,,,,,,,,,,,,,,,,,
,,,,,,5d6ff29b6fa93a001d61fc06,62c5397cf93e51d4ae53c7b9,2022-07-06_10h29.10.313,Colour_Asymmetry_Pilot,2022.1.3,Win32,59.95203837,62c50e9c1127f2cd403a315f,0,127,127,80,1,onetwo,,,,,,,,,,,,,,,,,,,,,,,,,,,,,,,,,,,,,,,,,,,,,,,,,,,,,,,,,,,,,,,,,,,,,,,,,,,,,,,,,,,,,,,,,,,,,,,,,,,,,,,,,,,,,,,,,,,,,,,,,,,,,,,,,,,,,,,,,,,,,,,,,,,,,,,,,,,,,
,,,,,,5d6ff29b6fa93a001d61fc06,62c5397cf93e51d4ae53c7b9,2022-07-06_10h29.10.313,Colour_Asymmetry_Pilot,2022.1.3,Win32,59.95203837,62c50e9c1127f2cd403a315f,0,128,128,75,1,twofour,,,,,,,,,,,,,,,,,,,,,,,,,,,,,,,,,,,,,,,,,,,,,,,,,,,,,,,,,,,,,,,,,,,,,,,,,,,,,,,,,,,,,,,,,,,,,,,,,,,,,,,,,,,,,,,,,,,,,,,,,,,,,,,,,,,,,,,,,,,,,,,,,,,,,,,,,,,,,
,,,,,,5d6ff29b6fa93a001d61fc06,62c5397cf93e51d4ae53c7b9,2022-07-06_10h29.10.313,Colour_Asymmetry_Pilot,2022.1.3,Win32,59.95203837,62c50e9c1127f2cd403a315f,0,129,129,83,1,twofour,,,,,,,,,,,,,,,,,,,,,,,,,,,,,,,,,,,,,,,,,,,,,,,,,,,,,,,,,,,,,,,,,,,,,,,,,,,,,,,,,,,,,,,,,,,,,,,,,,,,,,,,,,,,,,,,,,,,,,,,,,,,,,,,,,,,,,,,,,,,,,,,,,,,,,,,,,,,,
,,,,,,5d6ff29b6fa93a001d61fc06,62c5397cf93e51d4ae53c7b9,2022-07-06_10h29.10.313,Colour_Asymmetry_Pilot,2022.1.3,Win32,59.95203837,62c50e9c1127f2cd403a315f,0,130,130,102,1,fourtwo,,,,,,,,,,,,,,,,,,,,,,,,,,,,,,,,,,,,,,,,,,,,,,,,,,,,,,,,,,,,,,,,,,,,,,,,,,,,,,,,,,,,,,,,,,,,,,,,,,,,,,,,,,,,,,,,,,,,,,,,,,,,,,,,,,,,,,,,,,,,,,,,,,,,,,,,,,,,,
,,,,,,5d6ff29b6fa93a001d61fc06,62c5397cf93e51d4ae53c7b9,2022-07-06_10h29.10.313,Colour_Asymmetry_Pilot,2022.1.3,Win32,59.95203837,62c50e9c1127f2cd403a315f,0,131,131,90,1,twoone,,,,,,,,,,,,,,,,,,,,,,,,,,,,,,,,,,,,,,,,,,,,,,,,,,,,,,,,,,,,,,,,,,,,,,,,,,,,,,,,,,,,,,,,,,,,,,,,,,,,,,,,,,,,,,,,,,,,,,,,,,,,,,,,,,,,,,,,,,,,,,,,,,,,,,,,,,,,,
,,,,,,5d6ff29b6fa93a001d61fc06,62c5397cf93e51d4ae53c7b9,2022-07-06_10h29.10.313,Colour_Asymmetry_Pilot,2022.1.3,Win32,59.95203837,62c50e9c1127f2cd403a315f,0,132,132,1,1,onethree,,,,,,,,,,,,,,,,,,,,,,,,,,,,,,,,,,,,,,,,,,,,,,,,,,,,,,,,,,,,,,,,,,,,,,,,,,,,,,,,,,,,,,,,,,,,,,,,,,,,,,,,,,,,,,,,,,,,,,,,,,,,,,,,,,,,,,,,,,,,,,,,,,,,,,,,,,,,,
,,,,,,5d6ff29b6fa93a001d61fc06,62c5397cf93e51d4ae53c7b9,2022-07-06_10h29.10.313,Colour_Asymmetry_Pilot,2022.1.3,Win32,59.95203837,62c50e9c1127f2cd403a315f,0,133,133,52,1,threeone,,,,,,,,,,,,,,,,,,,,,,,,,,,,,,,,,,,,,,,,,,,,,,,,,,,,,,,,,,,,,,,,,,,,,,,,,,,,,,,,,,,,,,,,,,,,,,,,,,,,,,,,,,,,,,,,,,,,,,,,,,,,,,,,,,,,,,,,,,,,,,,,,,,,,,,,,,,,,
,,,,,,5d6ff29b6fa93a001d61fc06,62c5397cf93e51d4ae53c7b9,2022-07-06_10h29.10.313,Colour_Asymmetry_Pilot,2022.1.3,Win32,59.95203837,62c50e9c1127f2cd403a315f,0,134,134,65,1,onethree,,,,,,,,,,,,,,,,,,,,,,,,,,,,,,,,,,,,,,,,,,,,,,,,,,,,,,,,,,,,,,,,,,,,,,,,,,,,,,,,,,,,,,,,,,,,,,,,,,,,,,,,,,,,,,,,,,,,,,,,,,,,,,,,,,,,,,,,,,,,,,,,,,,,,,,,,,,,,
,,,,,,5d6ff29b6fa93a001d61fc06,62c5397cf93e51d4ae53c7b9,2022-07-06_10h29.10.313,Colour_Asymmetry_Pilot,2022.1.3,Win32,59.95203837,62c50e9c1127f2cd403a315f,0,135,135,117,1,threefour,,,,,,,,,,,,,,,,,,,,,,,,,,,,,,,,,,,,,,,,,,,,,,,,,,,,,,,,,,,,,,,,,,,,,,,,,,,,,,,,,,,,,,,,,,,,,,,,,,,,,,,,,,,,,,,,,,,,,,,,,,,,,,,,,,,,,,,,,,,,,,,,,,,,,,,,,,,,,
,,,,,,5d6ff29b6fa93a001d61fc06,62c5397cf93e51d4ae53c7b9,2022-07-06_10h29.10.313,Colour_Asymmetry_Pilot,2022.1.3,Win32,59.95203837,62c50e9c1127f2cd403a315f,0,136,136,92,1,threeone,,,,,,,,,,,,,,,,,,,,,,,,,,,,,,,,,,,,,,,,,,,,,,,,,,,,,,,,,,,,,,,,,,,,,,,,,,,,,,,,,,,,,,,,,,,,,,,,,,,,,,,,,,,,,,,,,,,,,,,,,,,,,,,,,,,,,,,,,,,,,,,,,,,,,,,,,,,,,
,,,,,,5d6ff29b6fa93a001d61fc06,62c5397cf93e51d4ae53c7b9,2022-07-06_10h29.10.313,Colour_Asymmetry_Pilot,2022.1.3,Win32,59.95203837,62c50e9c1127f2cd403a315f,0,137,137,121,1,onethree,,,,,,,,,,,,,,,,,,,,,,,,,,,,,,,,,,,,,,,,,,,,,,,,,,,,,,,,,,,,,,,,,,,,,,,,,,,,,,,,,,,,,,,,,,,,,,,,,,,,,,,,,,,,,,,,,,,,,,,,,,,,,,,,,,,,,,,,,,,,,,,,,,,,,,,,,,,,,
,,,,,,5d6ff29b6fa93a001d61fc06,62c5397cf93e51d4ae53c7b9,2022-07-06_10h29.10.313,Colour_Asymmetry_Pilot,2022.1.3,Win32,59.95203837,62c50e9c1127f2cd403a315f,0,138,138,22,1,fourtwo,,,,,,,,,,,,,,,,,,,,,,,,,,,,,,,,,,,,,,,,,,,,,,,,,,,,,,,,,,,,,,,,,,,,,,,,,,,,,,,,,,,,,,,,,,,,,,,,,,,,,,,,,,,,,,,,,,,,,,,,,,,,,,,,,,,,,,,,,,,,,,,,,,,,,,,,,,,,,
,,,,,,5d6ff29b6fa93a001d61fc06,62c5397cf93e51d4ae53c7b9,2022-07-06_10h29.10.313,Colour_Asymmetry_Pilot,2022.1.3,Win32,59.95203837,62c50e9c1127f2cd403a315f,0,139,139,2,1,twoone,,,,,,,,,,,,,,,,,,,,,,,,,,,,,,,,,,,,,,,,,,,,,,,,,,,,,,,,,,,,,,,,,,,,,,,,,,,,,,,,,,,,,,,,,,,,,,,,,,,,,,,,,,,,,,,,,,,,,,,,,,,,,,,,,,,,,,,,,,,,,,,,,,,,,,,,,,,,,
,,,,,,5d6ff29b6fa93a001d61fc06,62c5397cf93e51d4ae53c7b9,2022-07-06_10h29.10.313,Colour_Asymmetry_Pilot,2022.1.3,Win32,59.95203837,62c50e9c1127f2cd403a315f,0,140,140,70,1,fourtwo,,,,,,,,,,,,,,,,,,,,,,,,,,,,,,,,,,,,,,,,,,,,,,,,,,,,,,,,,,,,,,,,,,,,,,,,,,,,,,,,,,,,,,,,,,,,,,,,,,,,,,,,,,,,,,,,,,,,,,,,,,,,,,,,,,,,,,,,,,,,,,,,,,,,,,,,,,,,,
,,,,,,5d6ff29b6fa93a001d61fc06,62c5397cf93e51d4ae53c7b9,2022-07-06_10h29.10.313,Colour_Asymmetry_Pilot,2022.1.3,Win32,59.95203837,62c50e9c1127f2cd403a315f,0,141,141,16,1,onetwo,,,,,,,,,,,,,,,,,,,,,,,,,,,,,,,,,,,,,,,,,,,,,,,,,,,,,,,,,,,,,,,,,,,,,,,,,,,,,,,,,,,,,,,,,,,,,,,,,,,,,,,,,,,,,,,,,,,,,,,,,,,,,,,,,,,,,,,,,,,,,,,,,,,,,,,,,,,,,
,,,,,,5d6ff29b6fa93a001d61fc06,62c5397cf93e51d4ae53c7b9,2022-07-06_10h29.10.313,Colour_Asymmetry_Pilot,2022.1.3,Win32,59.95203837,62c50e9c1127f2cd403a315f,0,142,142,29,1,threefour,,,,,,,,,,,,,,,,,,,,,,,,,,,,,,,,,,,,,,,,,,,,,,,,,,,,,,,,,,,,,,,,,,,,,,,,,,,,,,,,,,,,,,,,,,,,,,,,,,,,,,,,,,,,,,,,,,,,,,,,,,,,,,,,,,,,,,,,,,,,,,,,,,,,,,,,,,,,,
,,,,,,5d6ff29b6fa93a001d61fc06,62c5397cf93e51d4ae53c7b9,2022-07-06_10h29.10.313,Colour_Asymmetry_Pilot,2022.1.3,Win32,59.95203837,62c50e9c1127f2cd403a315f,0,143,143,54,1,fourtwo,,,,,,,,,,,,,,,,,,,,,,,,,,,,,,,,,,,,,,,,,,,,,,,,,,,,,,,,,,,,,,,,,,,,,,,,,,,,,,,,,,,,,,,,,,,,,,,,,,,,,,,,,,,,,,,,,,,,,,,,,,,,,,,,,,,,,,,,,,,,,,,,,,,,,,,,,,,,,
,,,,,,5d6ff29b6fa93a001d61fc06,62c5397cf93e51d4ae53c7b9,2022-07-06_10h29.10.313,Colour_Asymmetry_Pilot,2022.1.3,Win32,59.95203837,62c50e9c1127f2cd403a315f,0,144,144,81,1,onethree,,,,,,,,,,,,,,,,,,,,,,,,,,,,,,,,,,,,,,,,,,,,,,,,,,,,,,,,,,,,,,,,,,,,,,,,,,,,,,,,,,,,,,,,,,,,,,,,,,,,,,,,,,,,,,,,,,,,,,,,,,,,,,,,,,,,,,,,,,,,,,,,,,,,,,,,,,,,,
,,,,,,5d6ff29b6fa93a001d61fc06,62c5397cf93e51d4ae53c7b9,2022-07-06_10h29.10.313,Colour_Asymmetry_Pilot,2022.1.3,Win32,59.95203837,62c50e9c1127f2cd403a315f,0,145,145,146,1,twoone,,,,,,,,,,,,,,,,,,,,,,,,,,,,,,,,,,,,,,,,,,,,,,,,,,,,,,,,,,,,,,,,,,,,,,,,,,,,,,,,,,,,,,,,,,,,,,,,,,,,,,,,,,,,,,,,,,,,,,,,,,,,,,,,,,,,,,,,,,,,,,,,,,,,,,,,,,,,,
,,,,,,5d6ff29b6fa93a001d61fc06,62c5397cf93e51d4ae53c7b9,2022-07-06_10h29.10.313,Colour_Asymmetry_Pilot,2022.1.3,Win32,59.95203837,62c50e9c1127f2cd403a315f,0,146,146,73,1,onethree,,,,,,,,,,,,,,,,,,,,,,,,,,,,,,,,,,,,,,,,,,,,,,,,,,,,,,,,,,,,,,,,,,,,,,,,,,,,,,,,,,,,,,,,,,,,,,,,,,,,,,,,,,,,,,,,,,,,,,,,,,,,,,,,,,,,,,,,,,,,,,,,,,,,,,,,,,,,,
,,,,,,5d6ff29b6fa93a001d61fc06,62c5397cf93e51d4ae53c7b9,2022-07-06_10h29.10.313,Colour_Asymmetry_Pilot,2022.1.3,Win32,59.95203837,62c50e9c1127f2cd403a315f,0,147,147,144,1,onetwo,,,,,,,,,,,,,,,,,,,,,,,,,,,,,,,,,,,,,,,,,,,,,,,,,,,,,,,,,,,,,,,,,,,,,,,,,,,,,,,,,,,,,,,,,,,,,,,,,,,,,,,,,,,,,,,,,,,,,,,,,,,,,,,,,,,,,,,,,,,,,,,,,,,,,,,,,,,,,
,,,,,,5d6ff29b6fa93a001d61fc06,62c5397cf93e51d4ae53c7b9,2022-07-06_10h29.10.313,Colour_Asymmetry_Pilot,2022.1.3,Win32,59.95203837,62c50e9c1127f2cd403a315f,0,148,148,3,1,twofour,,,,,,,,,,,,,,,,,,,,,,,,,,,,,,,,,,,,,,,,,,,,,,,,,,,,,,,,,,,,,,,,,,,,,,,,,,,,,,,,,,,,,,,,,,,,,,,,,,,,,,,,,,,,,,,,,,,,,,,,,,,,,,,,,,,,,,,,,,,,,,,,,,,,,,,,,,,,,
,,,,,,5d6ff29b6fa93a001d61fc06,62c5397cf93e51d4ae53c7b9,2022-07-06_10h29.10.313,Colour_Asymmetry_Pilot,2022.1.3,Win32,59.95203837,62c50e9c1127f2cd403a315f,0,149,149,119,1,fourthree,,,,,,,,,,,,,,,,,,,,,,,,,,,,,,,,,,,,,,,,,,,,,,,,,,,,,,,,,,,,,,,,,,,,,,,,,,,,,,,,,,,,,,,,,,,,,,,,,,,,,,,,,,,,,,,,,,,,,,,,,,,,,,,,,,,,,,,,,,,,,,,,,,,,,,,,,,,,,
,,,,,,5d6ff29b6fa93a001d61fc06,62c5397cf93e51d4ae53c7b9,2022-07-06_10h29.10.313,Colour_Asymmetry_Pilot,2022.1.3,Win32,59.95203837,62c50e9c1127f2cd403a315f,0,150,150,34,1,twoone,,,,,,,,,,,,,,,,,,,,,,,,,,,,,,,,,,,,,,,,,,,,,,,,,,,,,,,,,,,,,,,,,,,,,,,,,,,,,,,,,,,,,,,,,,,,,,,,,,,,,,,,,,,,,,,,,,,,,,,,,,,,,,,,,,,,,,,,,,,,,,,,,,,,,,,,,,,,,
,,,,,,5d6ff29b6fa93a001d61fc06,62c5397cf93e51d4ae53c7b9,2022-07-06_10h29.10.313,Colour_Asymmetry_Pilot,2022.1.3,Win32,59.95203837,62c50e9c1127f2cd403a315f,0,151,151,48,1,onetwo,,,,,,,,,,,,,,,,,,,,,,,,,,,,,,,,,,,,,,,,,,,,,,,,,,,,,,,,,,,,,,,,,,,,,,,,,,,,,,,,,,,,,,,,,,,,,,,,,,,,,,,,,,,,,,,,,,,,,,,,,,,,,,,,,,,,,,,,,,,,,,,,,,,,,,,,,,,,,
,,,,,,5d6ff29b6fa93a001d61fc06,62c5397cf93e51d4ae53c7b9,2022-07-06_10h29.10.313,Colour_Asymmetry_Pilot,2022.1.3,Win32,59.95203837,62c50e9c1127f2cd403a315f,0,152,152,23,1,fourthree,,,,,,,,,,,,,,,,,,,,,,,,,,,,,,,,,,,,,,,,,,,,,,,,,,,,,,,,,,,,,,,,,,,,,,,,,,,,,,,,,,,,,,,,,,,,,,,,,,,,,,,,,,,,,,,,,,,,,,,,,,,,,,,,,,,,,,,,,,,,,,,,,,,,,,,,,,,,,
,,,,,,5d6ff29b6fa93a001d61fc06,62c5397cf93e51d4ae53c7b9,2022-07-06_10h29.10.313,Colour_Asymmetry_Pilot,2022.1.3,Win32,59.95203837,62c50e9c1127f2cd403a315f,0,153,153,115,1,twofour,,,,,,,,,,,,,,,,,,,,,,,,,,,,,,,,,,,,,,,,,,,,,,,,,,,,,,,,,,,,,,,,,,,,,,,,,,,,,,,,,,,,,,,,,,,,,,,,,,,,,,,,,,,,,,,,,,,,,,,,,,,,,,,,,,,,,,,,,,,,,,,,,,,,,,,,,,,,,
,,,,,,5d6ff29b6fa93a001d61fc06,62c5397cf93e51d4ae53c7b9,2022-07-06_10h29.10.313,Colour_Asymmetry_Pilot,2022.1.3,Win32,59.95203837,62c50e9c1127f2cd403a315f,0,154,154,21,1,threefour,,,,,,,,,,,,,,,,,,,,,,,,,,,,,,,,,,,,,,,,,,,,,,,,,,,,,,,,,,,,,,,,,,,,,,,,,,,,,,,,,,,,,,,,,,,,,,,,,,,,,,,,,,,,,,,,,,,,,,,,,,,,,,,,,,,,,,,,,,,,,,,,,,,,,,,,,,,,,
,,,,,,5d6ff29b6fa93a001d61fc06,62c5397cf93e51d4ae53c7b9,2022-07-06_10h29.10.313,Colour_Asymmetry_Pilot,2022.1.3,Win32,59.95203837,62c50e9c1127f2cd403a315f,0,155,155,140,1,threeone,,,,,,,,,,,,,,,,,,,,,,,,,,,,,,,,,,,,,,,,,,,,,,,,,,,,,,,,,,,,,,,,,,,,,,,,,,,,,,,,,,,,,,,,,,,,,,,,,,,,,,,,,,,,,,,,,,,,,,,,,,,,,,,,,,,,,,,,,,,,,,,,,,,,,,,,,,,,,
,,,,,,5d6ff29b6fa93a001d61fc06,62c5397cf93e51d4ae53c7b9,2022-07-06_10h29.10.313,Colour_Asymmetry_Pilot,2022.1.3,Win32,59.95203837,62c50e9c1127f2cd403a315f,0,156,156,151,1,fourthree,,,,,,,,,,,,,,,,,,,,,,,,,,,,,,,,,,,,,,,,,,,,,,,,,,,,,,,,,,,,,,,,,,,,,,,,,,,,,,,,,,,,,,,,,,,,,,,,,,,,,,,,,,,,,,,,,,,,,,,,,,,,,,,,,,,,,,,,,,,,,,,,,,,,,,,,,,,,,
,,,,,,5d6ff29b6fa93a001d61fc06,62c5397cf93e51d4ae53c7b9,2022-07-06_10h29.10.313,Colour_Asymmetry_Pilot,2022.1.3,Win32,59.95203837,62c50e9c1127f2cd403a315f,0,157,157,124,1,threeone,,,,,,,,,,,,,,,,,,,,,,,,,,,,,,,,,,,,,,,,,,,,,,,,,,,,,,,,,,,,,,,,,,,,,,,,,,,,,,,,,,,,,,,,,,,,,,,,,,,,,,,,,,,,,,,,,,,,,,,,,,,,,,,,,,,,,,,,,,,,,,,,,,,,,,,,,,,,,
,,,,,,5d6ff29b6fa93a001d61fc06,62c5397cf93e51d4ae53c7b9,2022-07-06_10h29.10.313,Colour_Asymmetry_Pilot,2022.1.3,Win32,59.95203837,62c50e9c1127f2cd403a315f,0,158,158,20,1,threeone,,,,,,,,,,,,,,,,,,,,,,,,,,,,,,,,,,,,,,,,,,,,,,,,,,,,,,,,,,,,,,,,,,,,,,,,,,,,,,,,,,,,,,,,,,,,,,,,,,,,,,,,,,,,,,,,,,,,,,,,,,,,,,,,,,,,,,,,,,,,,,,,,,,,,,,,,,,,,
,,,,,,5d6ff29b6fa93a001d61fc06,62c5397cf93e51d4ae53c7b9,2022-07-06_10h29.10.313,Colour_Asymmetry_Pilot,2022.1.3,Win32,59.95203837,62c50e9c1127f2cd403a315f,0,159,159,47,1,fourthree,,,,,,,,,,,,,,,,,,,,,,,,,,,,,,,,,,,,,,,,,,,,,,,,,,,,,,,,,,,,,,,,,,,,,,,,,,,,,,,,,,,,,,,,,,,,,,,,,,,,,,,,,,,,,,,,,,,,,,,,,,,,,,,,,,,,,,,,,,,,,,,,,,,,,,,,,,,,,
,,,,,,5d6ff29b6fa93a001d61fc06,62c5397cf93e51d4ae53c7b9,2022-07-06_10h29.10.313,Colour_Asymmetry_Pilot,2022.1.3,Win32,59.95203837,62c50e9c1127f2cd403a315f,0,160,160,31,1,fourthree,,,,,,,,,,,,,,,,,,,,,,,,,,,,,,,,,,,,,,,,,,,,,,,,,,,,,,,,,,,,,,,,,,,,,,,,,,,,,,,,,,,,,,,,,,,,,,,,,,,,,,,,,,,,,,,,,,,,,,,,,,,,,,,,,,,,,,,,,,,,,,,,,,,,,,,,,,,,,
,,,,,,5d6ff29b6fa93a001d61fc06,62c5397cf93e51d4ae53c7b9,2022-07-06_10h29.10.313,Colour_Asymmetry_Pilot,2022.1.3,Win32,59.95203837,62c50e9c1127f2cd403a315f,0,161,161,53,1,threefour,,,,,,,,,,,,,,,,,,,,,,,,,,,,,,,,,,,,,,,,,,,,,,,,,,,,,,,,,,,,,,,,,,,,,,,,,,,,,,,,,,,,,,,,,,,,,,,,,,,,,,,,,,,,,,,,,,,,,,,,,,,,,,,,,,,,,,,,,,,,,,,,,,,,,,,,,,,,,
,,,,,,5d6ff29b6fa93a001d61fc06,62c5397cf93e51d4ae53c7b9,2022-07-06_10h29.10.313,Colour_Asymmetry_Pilot,2022.1.3,Win32,59.95203837,62c50e9c1127f2cd403a315f,,,,,,,space,4.011,space,11.886,space,34.336,space,10.896,space,4.526,space,3.664,"[-0.2942,-0.24719999999999998,-0.357]",threefour,"[-0.38039999999999996,-0.4276,-0.1452]",-2,19.796,-100,-34,1,0,0,response5disk_5,-4,-3,1,0,0,rectangle_8,-4,-3,1,0,0,3,-4,-3,1,0,0,0,0,0,0,1,,,,,,,,,,,,,,,,,,,,,,,,,,,,,,,,,,,,,,,,,,,,,,,,,,,,,,,,,,,,,,,,,,,,,,,,,,,,,,,,,,,,,,,,,,,,,,,,,,,,,,,,,,,,,,,,
,,,,,,5d6ff29b6fa93a001d61fc06,62c5397cf93e51d4ae53c7b9,2022-07-06_10h29.10.313,Colour_Asymmetry_Pilot,2022.1.3,Win32,59.95203837,62c50e9c1127f2cd403a315f,,,,,,,,,,,,,,,,,,,"[-0.01980000000000004,-0.5138,-0.38039999999999996]",threefour,"[-0.07459999999999989,0.12139999999999995,-0.9922]",-3,5.464,-59,22,1,0,0,response7disk_5,-15,2,1,0,0,rectangle_8,-15,2,1,0,0,3,-15,2,1,0,0,1,0,1,0,1,,,,,,,,,,,,,,,,,,,,,,,,,,,,,,,,,,,,,,,,,,,,,,,,,,,,,,,,,,,,,,,,,,,,,,,,,,,,,,,,,,,,,,,,,,,,,,,,,,,,,,,,,,,,,,,,
,,,,,,5d6ff29b6fa93a001d61fc06,62c5397cf93e51d4ae53c7b9,2022-07-06_10h29.10.313,Colour_Asymmetry_Pilot,2022.1.3,Win32,59.95203837,62c50e9c1127f2cd403a315f,,,,,,,,,,,,,,,,,,,"[-0.26280000000000003,-0.4746,-0.2158]",fourtwo,"[-0.01980000000000004,-0.5138,-0.38039999999999996]",-2,4.009,-62,-49,1,0,0,response5disk_5,-10,-6,1,0,0,rectangle_8,-10,-6,1,0,0,3,-10,-6,1,0,0,2,0,2,0,1,,,,,,,,,,,,,,,,,,,,,,,,,,,,,,,,,,,,,,,,,,,,,,,,,,,,,,,,,,,,,,,,,,,,,,,,,,,,,,,,,,,,,,,,,,,,,,,,,,,,,,,,,,,,,,,,
,,,,,,5d6ff29b6fa93a001d61fc06,62c5397cf93e51d4ae53c7b9,2022-07-06_10h29.10.313,Colour_Asymmetry_Pilot,2022.1.3,Win32,59.95203837,62c50e9c1127f2cd403a315f,,,,,,,,,,,,,,,,,,,"[0.12939999999999996,-0.2864,0.3253999999999999]",twoone,"[0.12939999999999996,-0.2864,0.3253999999999999]",-1,1.939,-19,-75,1,0,0,response5disk_5,-13,-10,1,0,0,rectangle_8,-13,-10,1,0,0,3,-13,-10,1,0,0,3,0,3,0,1,,,,,,,,,,,,,,,,,,,,,,,,,,,,,,,,,,,,,,,,,,,,,,,,,,,,,,,,,,,,,,,,,,,,,,,,,,,,,,,,,,,,,,,,,,,,,,,,,,,,,,,,,,,,,,,,
,,,,,,5d6ff29b6fa93a001d61fc06,62c5397cf93e51d4ae53c7b9,2022-07-06_10h29.10.313,Colour_Asymmetry_Pilot,2022.1.3,Win32,59.95203837,62c50e9c1127f2cd403a315f,,,,,,,,,,,,,,,,,,,"[-0.24719999999999998,-0.0354000000000001,0.3175999999999999]",threefour,"[-0.9766,-0.34920000000000007,0.2156]",1,5.113,31,-103,1,0,0,response3disk_5,-11,13,1,0,0,rectangle_8,-11,13,1,0,0,3,-11,13,1,0,0,4,0,4,0,1,,,,,,,,,,,,,,,,,,,,,,,,,,,,,,,,,,,,,,,,,,,,,,,,,,,,,,,,,,,,,,,,,,,,,,,,,,,,,,,,,,,,,,,,,,,,,,,,,,,,,,,,,,,,,,,,
,,,,,,5d6ff29b6fa93a001d61fc06,62c5397cf93e51d4ae53c7b9,2022-07-06_10h29.10.313,Colour_Asymmetry_Pilot,2022.1.3,Win32,59.95203837,62c50e9c1127f2cd403a315f,,,,,,,,,,,,,,,,,,,"[0.19199999999999995,0.18419999999999992,0.5136000000000001]",twoone,"[-0.9766,-0.34920000000000007,0.2156]",-1,2.238,-25,-91,1,0,0,response5disk_5,-16,1,1,0,0,rectangle_8,77,40,1,0,0,3,8,0,1,0,0,5,0,5,0,1,response1disk_7,6,rectangle_4,,,,,,,,,,,,,,,,,,,,,,,,,,,,,,,,,,,,,,,,,,,,,,,,,,,,,,,,,,,,,,,,,,,,,,,,,,,,,,,,,,,,,,,,,,,,,,,,,,,,,,,,,,,,,
,,,,,,5d6ff29b6fa93a001d61fc06,62c5397cf93e51d4ae53c7b9,2022-07-06_10h29.10.313,Colour_Asymmetry_Pilot,2022.1.3,Win32,59.95203837,62c50e9c1127f2cd403a315f,,,,,,,,,,,,,,,,,,,"[-0.06680000000000008,-0.45100000000000007,-0.906]",twofour,"[0.9372,0.9450000000000001,0.8980000000000001]",-4,2.656,-33,52,1,0,0,response7disk_5,-12,0,1,0,0,rectangle_8,-12,0,1,0,0,3,-12,0,1,0,0,6,0,6,0,1,,,,,,,,,,,,,,,,,,,,,,,,,,,,,,,,,,,,,,,,,,,,,,,,,,,,,,,,,,,,,,,,,,,,,,,,,,,,,,,,,,,,,,,,,,,,,,,,,,,,,,,,,,,,,,,,
,,,,,,5d6ff29b6fa93a001d61fc06,62c5397cf93e51d4ae53c7b9,2022-07-06_10h29.10.313,Colour_Asymmetry_Pilot,2022.1.3,Win32,59.95203837,62c50e9c1127f2cd403a315f,,,,,,,,,,,,,,,,,,,,threeone,,-3,4.327,,,,,,,,,,,,,,,,,,,,,,,,,,,,,,,,space,31.078,"[-0.09019999999999995,0.44300000000000006,0.5371999999999999]","[-0.011800000000000033,-0.906,-0.45100000000000007]",-96,45,1,0,0,response7disk,-18,-2,1,0,0,rectangle,-18,-2,1,0,0,,3,0.009,0,-18,-2,1,0,0,0,0,0,61,1,61,first,,,,,,,,,,,,,,,,,,,,,,,,,,,,,,,,,,,,,,,,,,,,,,,,,,,,,,,,,,,,,,,,,,,,,,,,
,,,,,,5d6ff29b6fa93a001d61fc06,62c5397cf93e51d4ae53c7b9,2022-07-06_10h29.10.313,Colour_Asymmetry_Pilot,2022.1.3,Win32,59.95203837,62c50e9c1127f2cd403a315f,,,,,,,,,,,,,,,,,,,,twoone,,-4,1.446,,,,,,,,,,,,,,,,,,,,,,,,,,,,,,,,,,"[-0.06680000000000008,-0.45100000000000007,-0.906]","[-0.5452,-0.608,0.2470000000000001]",-42,63,1,0,0,response7disk,-16,3,1,0,0,rectangle,-16,3,1,0,0,,2,0.003,0,-16,3,1,0,0,0,1,1,130,1,49,second,,,,,,,,,,,,,,,,,,,,,,,,,,,,,,,,,,,,,,,,,,,,,,,,,,,,,,,,,,,,,,,,,,,,,,,,
,,,,,,5d6ff29b6fa93a001d61fc06,62c5397cf93e51d4ae53c7b9,2022-07-06_10h29.10.313,Colour_Asymmetry_Pilot,2022.1.3,Win32,59.95203837,62c50e9c1127f2cd403a315f,,,,,,,,,,,,,,,,,,,,twoone,,-2,4.36,,,,,,,,,,,,,,,,,,,,,,,,,,,,,,,,,,"[-0.48240000000000005,0.3175999999999999,0.2156]","[-0.26280000000000003,-0.4746,-0.2158]",-61,-45,1,0,0,response5disk,10,1,1,0,0,rectangle,10,1,1,0,0,,1,0.004,0,10,1,1,0,0,0,2,2,22,1,22,first,,,,,,,,,,,,,,,,,,,,,,,,,,,,,,,,,,,,,,,,,,,,,,,,,,,,,,,,,,,,,,,,,,,,,,,,
,,,,,,5d6ff29b6fa93a001d61fc06,62c5397cf93e51d4ae53c7b9,2022-07-06_10h29.10.313,Colour_Asymmetry_Pilot,2022.1.3,Win32,59.95203837,62c50e9c1127f2cd403a315f,,,,,,,,,,,,,,,,,,,,threefour,,-4,4.145,,,,,,,,,,,,,,,,,,,,,,,,,,,,,,,,,,"[-0.07459999999999989,0.12139999999999995,-0.9922]","[-0.9766,-0.6472,0.07440000000000002]",-48,75,1,0,0,response7disk,-11,-5,1,0,0,rectangle,-11,-5,1,0,0,,3,0.005,0,-11,-5,1,0,0,0,3,3,153,1,72,second,,,,,,,,,,,,,,,,,,,,,,,,,,,,,,,,,,,,,,,,,,,,,,,,,,,,,,,,,,,,,,,,,,,,,,,,
,,,,,,5d6ff29b6fa93a001d61fc06,62c5397cf93e51d4ae53c7b9,2022-07-06_10h29.10.313,Colour_Asymmetry_Pilot,2022.1.3,Win32,59.95203837,62c50e9c1127f2cd403a315f,,,,,,,,,,,,,,,,,,,,twoone,,-1,8.32,,,,,,,,,,,,,,,,,,,,,,,,,,,,,,,,,,"[0.6547999999999998,-0.043199999999999905,-0.011800000000000033]","[-0.2942,-0.7648,-0.7492000000000001]",-21,-78,1,0,0,response5disk,-2,-4,1,0,0,rectangle,-2,-4,1,0,0,,2,0.007,0,-2,-4,1,0,0,0,4,4,80,1,80,first,,,,,,,,,,,,,,,,,,,,,,,,,,,,,,,,,,,,,,,,,,,,,,,,,,,,,,,,,,,,,,,,,,,,,,,,
,,,,,,5d6ff29b6fa93a001d61fc06,62c5397cf93e51d4ae53c7b9,2022-07-06_10h29.10.313,Colour_Asymmetry_Pilot,2022.1.3,Win32,59.95203837,62c50e9c1127f2cd403a315f,,,,,,,,,,,,,,,,,,,,onethree,,-4,0.841,,,,,,,,,,,,,,,,,,,,,,,,,,,,,,,,,,"[-0.2942,-0.7648,-0.7492000000000001]","[-0.4746,-0.0354000000000001,0.5449999999999999]",-29,54,1,0,0,response7disk,-8,-8,1,0,0,rectangle,-8,-8,1,0,0,,3,0.005,0,-8,-8,1,0,0,0,5,5,144,1,63,second,,,,,,,,,,,,,,,,,,,,,,,,,,,,,,,,,,,,,,,,,,,,,,,,,,,,,,,,,,,,,,,,,,,,,,,,
,,,,,,5d6ff29b6fa93a001d61fc06,62c5397cf93e51d4ae53c7b9,2022-07-06_10h29.10.313,Colour_Asymmetry_Pilot,2022.1.3,Win32,59.95203837,62c50e9c1127f2cd403a315f,,,,,,,,,,,,,,,,,,,,threefour,,-2,6.931,,,,,,,,,,,,,,,,,,,,,,,,,,,,,,,,,,"[0.19199999999999995,0.18419999999999992,0.5136000000000001]","[0.37240000000000006,-0.050999999999999934,-0.5216]",-74,-48,1,0,0,response5disk,-3,5,1,0,0,rectangle,-3,5,1,0,0,,1,0.006,0,-3,5,1,0,0,0,6,6,151,1,70,second,,,,,,,,,,,,,,,,,,,,,,,,,,,,,,,,,,,,,,,,,,,,,,,,,,,,,,,,,,,,,,,,,,,,,,,,
,,,,,,5d6ff29b6fa93a001d61fc06,62c5397cf93e51d4ae53c7b9,2022-07-06_10h29.10.313,Colour_Asymmetry_Pilot,2022.1.3,Win32,59.95203837,62c50e9c1127f2cd403a315f,,,,,,,,,,,,,,,,,,,,onetwo,,3,1.989,,,,,,,,,,,,,,,,,,,,,,,,,,,,,,,,,,"[1,0.12939999999999996,-1]","[0.9763999999999999,-0.1137999999999999,-0.6314]",67,36,1,0,0,response1disk,11,2,1,0,0,rectangle,11,2,1,0,0,,2,0.005,0,11,2,1,0,0,0,7,7,17,1,17,first,,,,,,,,,,,,,,,,,,,,,,,,,,,,,,,,,,,,,,,,,,,,,,,,,,,,,,,,,,,,,,,,,,,,,,,,
,,,,,,5d6ff29b6fa93a001d61fc06,62c5397cf93e51d4ae53c7b9,2022-07-06_10h29.10.313,Colour_Asymmetry_Pilot,2022.1.3,Win32,59.95203837,62c50e9c1127f2cd403a315f,,,,,,,,,,,,,,,,,,,,threefour,,-3,1.22,,,,,,,,,,,,,,,,,,,,,,,,,,,,,,,,,,"[0.30180000000000007,-0.7884,-0.9844]","[-0.24719999999999998,-0.0354000000000001,0.3175999999999999]",-64,31,1,0,0,response7disk,-4,-12,1,0,0,rectangle,-4,-12,1,0,0,,2,0.001,0,-4,-12,1,0,0,0,8,8,122,1,41,second,,,,,,,,,,,,,,,,,,,,,,,,,,,,,,,,,,,,,,,,,,,,,,,,,,,,,,,,,,,,,,,,,,,,,,,,
,,,,,,5d6ff29b6fa93a001d61fc06,62c5397cf93e51d4ae53c7b9,2022-07-06_10h29.10.313,Colour_Asymmetry_Pilot,2022.1.3,Win32,59.95203837,62c50e9c1127f2cd403a315f,,,,,,,,,,,,,,,,,,,,onethree,,-4,3.925,,,,,,,,,,,,,,,,,,,,,,,,,,,,,,,,,,"[-0.4982,-0.2942,-0.0354000000000001]","[-0.2942,-0.7648,-0.7492000000000001]",-49,71,1,0,0,response7disk,0,-4,1,0,0,rectangle,0,-4,1,0,0,,2,0.001,0,0,-4,1,0,0,0,9,9,62,1,62,first,,,,,,,,,,,,,,,,,,,,,,,,,,,,,,,,,,,,,,,,,,,,,,,,,,,,,,,,,,,,,,,,,,,,,,,,
,,,,,,5d6ff29b6fa93a001d61fc06,62c5397cf93e51d4ae53c7b9,2022-07-06_10h29.10.313,Colour_Asymmetry_Pilot,2022.1.3,Win32,59.95203837,62c50e9c1127f2cd403a315f,,,,,,,,,,,,,,,,,,,,fourthree,,-4,1.621,,,,,,,,,,,,,,,,,,,,,,,,,,,,,,,,,,"[0.3881999999999999,-0.23939999999999995,-0.05040000000000011]","[0.9686000000000001,0.5763999999999998,0.11359999999999992]",-40,51,1,0,0,response7disk,-13,9,1,0,0,rectangle,-13,9,1,0,0,,3,0.004,0,-13,9,1,0,0,0,10,10,82,1,1,second,,,,,,,,,,,,,,,,,,,,,,,,,,,,,,,,,,,,,,,,,,,,,,,,,,,,,,,,,,,,,,,,,,,,,,,,
,,,,,,5d6ff29b6fa93a001d61fc06,62c5397cf93e51d4ae53c7b9,2022-07-06_10h29.10.313,Colour_Asymmetry_Pilot,2022.1.3,Win32,59.95203837,62c50e9c1127f2cd403a315f,,,,,,,,,,,,,,,,,,,,threefour,,-4,0.669,,,,,,,,,,,,,,,,,,,,,,,,,,,,,,,,,,"[0.4196,0.4665999999999999,0.3568]","[-0.34920000000000007,-0.702,-0.5216]",-47,65,1,0,0,response7disk,1,14,1,0,0,rectangle,1,14,1,0,0,,2,0.005,0,1,14,1,0,0,0,11,11,51,1,51,first,,,,,,,,,,,,,,,,,,,,,,,,,,,,,,,,,,,,,,,,,,,,,,,,,,,,,,,,,,,,,,,,,,,,,,,,
,,,,,,5d6ff29b6fa93a001d61fc06,62c5397cf93e51d4ae53c7b9,2022-07-06_10h29.10.313,Colour_Asymmetry_Pilot,2022.1.3,Win32,59.95203837,62c50e9c1127f2cd403a315f,,,,,,,,,,,,,,,,,,,,threeone,,-4,1.253,,,,,,,,,,,,,,,,,,,,,,,,,,,,,,,,,,"[0.6547999999999998,-0.043199999999999905,-0.011800000000000033]","[-0.5688,-0.08239999999999992,-0.1844]",-48,68,1,0,0,response7disk,-7,6,1,0,0,rectangle,-7,6,1,0,0,,2,0,0,-7,6,1,0,0,0,12,12,33,1,33,first,,,,,,,,,,,,,,,,,,,,,,,,,,,,,,,,,,,,,,,,,,,,,,,,,,,,,,,,,,,,,,,,,,,,,,,,
,,,,,,5d6ff29b6fa93a001d61fc06,62c5397cf93e51d4ae53c7b9,2022-07-06_10h29.10.313,Colour_Asymmetry_Pilot,2022.1.3,Win32,59.95203837,62c50e9c1127f2cd403a315f,,,,,,,,,,,,,,,,,,,,twofour,,-2,2.461,,,,,,,,,,,,,,,,,,,,,,,,,,,,,,,,,,"[-0.5452,-0.608,0.2470000000000001]","[0.12939999999999996,-0.2864,0.3253999999999999]",-63,-54,1,0,0,response5disk,-4,-7,1,0,0,rectangle,-4,-7,1,0,0,,3,0.004,0,-4,-7,1,0,0,0,13,13,108,1,27,second,,,,,,,,,,,,,,,,,,,,,,,,,,,,,,,,,,,,,,,,,,,,,,,,,,,,,,,,,,,,,,,,,,,,,,,,
,,,,,,5d6ff29b6fa93a001d61fc06,62c5397cf93e51d4ae53c7b9,2022-07-06_10h29.10.313,Colour_Asymmetry_Pilot,2022.1.3,Win32,59.95203837,62c50e9c1127f2cd403a315f,,,,,,,,,,,,,,,,,,,,onethree,,-4,0.585,,,,,,,,,,,,,,,,,,,,,,,,,,,,,,,,,,"[-0.24719999999999998,-0.0354000000000001,0.3175999999999999]","[0.9763999999999999,0.30979999999999985,-0.6786]",-38,67,1,0,0,response7disk,-5,12,1,0,0,rectangle,-5,12,1,0,0,,1,0.004,0,-5,12,1,0,0,0,14,14,95,1,14,second,,,,,,,,,,,,,,,,,,,,,,,,,,,,,,,,,,,,,,,,,,,,,,,,,,,,,,,,,,,,,,,,,,,,,,,,
,,,,,,5d6ff29b6fa93a001d61fc06,62c5397cf93e51d4ae53c7b9,2022-07-06_10h29.10.313,Colour_Asymmetry_Pilot,2022.1.3,Win32,59.95203837,62c50e9c1127f2cd403a315f,,,,,,,,,,,,,,,,,,,,twoone,,-4,1.621,,,,,,,,,,,,,,,,,,,,,,,,,,,,,,,,,,"[0.37240000000000006,0.4980000000000002,-0.2864]","[-0.01980000000000004,-0.5138,-0.38039999999999996]",-47,61,1,0,0,response7disk,1,4,1,0,0,rectangle,1,4,1,0,0,,3,0.008,0,1,4,1,0,0,0,15,15,124,1,43,second,,,,,,,,,,,,,,,,,,,,,,,,,,,,,,,,,,,,,,,,,,,,,,,,,,,,,,,,,,,,,,,,,,,,,,,,
,,,,,,5d6ff29b6fa93a001d61fc06,62c5397cf93e51d4ae53c7b9,2022-07-06_10h29.10.313,Colour_Asymmetry_Pilot,2022.1.3,Win32,59.95203837,62c50e9c1127f2cd403a315f,,,,,,,,,,,,,,,,,,,,threeone,,-4,1.091,,,,,,,,,,,,,,,,,,,,,,,,,,,,,,,,,,"[0.9763999999999999,-0.1137999999999999,-0.6314]","[-0.9688,-0.4902000000000001,-0.12159999999999993]",-50,68,1,0,0,response7disk,-6,-12,1,0,0,rectangle,-6,-12,1,0,0,,3,0.002,0,-6,-12,1,0,0,0,16,16,158,1,77,second,,,,,,,,,,,,,,,,,,,,,,,,,,,,,,,,,,,,,,,,,,,,,,,,,,,,,,,,,,,,,,,,,,,,,,,,
,,,,,,5d6ff29b6fa93a001d61fc06,62c5397cf93e51d4ae53c7b9,2022-07-06_10h29.10.313,Colour_Asymmetry_Pilot,2022.1.3,Win32,59.95203837,62c50e9c1127f2cd403a315f,,,,,,,,,,,,,,,,,,,,threefour,,-4,1.687,,,,,,,,,,,,,,,,,,,,,,,,,,,,,,,,,,"[1,0.12939999999999996,-1]","[0.7646000000000002,0.07440000000000002,0.2704]",-53,69,1,0,0,response7disk,-2,5,1,0,0,rectangle,-2,5,1,0,0,,3,0.002,0,-2,5,1,0,0,0,17,17,111,1,30,second,,,,,,,,,,,,,,,,,,,,,,,,,,,,,,,,,,,,,,,,,,,,,,,,,,,,,,,,,,,,,,,,,,,,,,,,
