trials.thisRepN,trials.thisTrialN,trials.thisN,trials.thisIndex,trials.ran,Colourcodes,participant,session,date,expName,psychopyVersion,OS,frameRate,study_id,trials_4.thisRepN,trials_4.thisTrialN,trials_4.thisN,trials_4.thisIndex,trials_4.ran,StimulusPos,key_resp.keys,key_resp.rt,key_resp_2.keys,key_resp_2.rt,key_resp_15.keys,key_resp_15.rt,key_resp_17.keys,key_resp_17.rt,key_resp_9.keys,key_resp_9.rt,key_resp_10.keys,key_resp_10.rt,Circle1_col,Ecc,Circle2_col,similarity,response_time,mouse_5.x,mouse_5.y,mouse_5.leftButton,mouse_5.midButton,mouse_5.rightButton,mouse_5.clicked_name,mouse_10.x,mouse_10.y,mouse_10.leftButton,mouse_10.midButton,mouse_10.rightButton,mouse_10.clicked_name,mouse_7.x,mouse_7.y,mouse_7.leftButton,mouse_7.midButton,mouse_7.rightButton,catchnumberprac,mouse_6.x,mouse_6.y,mouse_6.leftButton,mouse_6.midButton,mouse_6.rightButton,duringprac.thisRepN,duringprac.thisTrialN,duringprac.thisN,duringprac.thisIndex,duringprac.ran,mouse_7.clicked_name,catchprac,mouse_6.clicked_name,key_resp_22.keys,key_resp_22.rt,Circle1_colour,Circle2_colour,mouse.x,mouse.y,mouse.leftButton,mouse.midButton,mouse.rightButton,mouse.clicked_name,mouse_2.x,mouse_2.y,mouse_2.leftButton,mouse_2.midButton,mouse_2.rightButton,mouse_2.clicked_name,mouse_3.x,mouse_3.y,mouse_3.leftButton,mouse_3.midButton,mouse_3.rightButton,catchresponse,catchnumber,response_time_catch,Catch,mouse_11.x,mouse_11.y,mouse_11.leftButton,mouse_11.midButton,mouse_11.rightButton,trials_2.thisRepN,trials_2.thisTrialN,trials_2.thisN,trials_2.thisIndex,trials_2.ran,Colourpair,Temporder,mouse_3.clicked_name,mouse_11.clicked_name,trials_3.thisRepN,trials_3.thisTrialN,trials_3.thisN,trials_3.thisIndex,trials_3.ran,key_resp_instr_Ishi.keys,key_resp_instr_Ishi.rt,Ishi_trial_keyresp.keys,Ishi_textbox.text,Ishi_mouse.x,Ishi_mouse.y,Ishi_mouse.leftButton,Ishi_mouse.midButton,Ishi_mouse.rightButton,Ishi_mouse.clicked_name,Ishi_loop.thisRepN,Ishi_loop.thisTrialN,Ishi_loop.thisN,Ishi_loop.thisIndex,Ishi_loop.ran,imageaddress,Ishi_trial_keyresp.rt,textbox.text,mouse_4.x,mouse_4.y,mouse_4.leftButton,mouse_4.midButton,mouse_4.rightButton,mouse_4.clicked_name,textbox_2.text,mouse_8.x,mouse_8.y,mouse_8.leftButton,mouse_8.midButton,mouse_8.rightButton,mouse_8.clicked_name,textbox_3.text,mouse_9.x,mouse_9.y,mouse_9.leftButton,mouse_9.midButton,mouse_9.rightButton,mouse_9.clicked_name,textbox_4.text,mouse_12.x,mouse_12.y,mouse_12.leftButton,mouse_12.midButton,mouse_12.rightButton,mouse_12.clicked_name,textbox_5.text,mouse_13.x,mouse_13.y,mouse_13.leftButton,mouse_13.midButton,mouse_13.rightButton,mouse_13.clicked_name,textbox_6.text,mouse_14.x,mouse_14.y,mouse_14.leftButton,mouse_14.midButton,mouse_14.rightButton,mouse_14.clicked_name,textbox_7.text,mouse_15.x,mouse_15.y,mouse_15.leftButton,mouse_15.midButton,mouse_15.rightButton,mouse_15.clicked_name
0,0,0,41,1,,5e9efe26ffd5fe04e506d7f3,62c53a1e9c6a1df059af4ef7,2022-07-06_09h35.23.334,Colour_Asymmetry_Pilot,2022.1.3,Win32,60.72751564,62c50e9c1127f2cd403a315f,,,,,,,,,,,,,,,,,,,,,,,,,,,,,,,,,,,,,,,,,,,,,,,,,,,,,,,,,,,,,,,,,,,,,,,,,,,,,,,,,,,,,,,,,,,,,,,,,,,,,,,,,,,,,,,,,,,,,,,,,,,,,,,,,,,,,,,,,,,,,,,,,,,,,,,,,,,,,,,,,,,,
0,1,1,35,1,,5e9efe26ffd5fe04e506d7f3,62c53a1e9c6a1df059af4ef7,2022-07-06_09h35.23.334,Colour_Asymmetry_Pilot,2022.1.3,Win32,60.72751564,62c50e9c1127f2cd403a315f,,,,,,,,,,,,,,,,,,,,,,,,,,,,,,,,,,,,,,,,,,,,,,,,,,,,,,,,,,,,,,,,,,,,,,,,,,,,,,,,,,,,,,,,,,,,,,,,,,,,,,,,,,,,,,,,,,,,,,,,,,,,,,,,,,,,,,,,,,,,,,,,,,,,,,,,,,,,,,,,,,,,
0,2,2,31,1,,5e9efe26ffd5fe04e506d7f3,62c53a1e9c6a1df059af4ef7,2022-07-06_09h35.23.334,Colour_Asymmetry_Pilot,2022.1.3,Win32,60.72751564,62c50e9c1127f2cd403a315f,,,,,,,,,,,,,,,,,,,,,,,,,,,,,,,,,,,,,,,,,,,,,,,,,,,,,,,,,,,,,,,,,,,,,,,,,,,,,,,,,,,,,,,,,,,,,,,,,,,,,,,,,,,,,,,,,,,,,,,,,,,,,,,,,,,,,,,,,,,,,,,,,,,,,,,,,,,,,,,,,,,,
0,3,3,75,1,,5e9efe26ffd5fe04e506d7f3,62c53a1e9c6a1df059af4ef7,2022-07-06_09h35.23.334,Colour_Asymmetry_Pilot,2022.1.3,Win32,60.72751564,62c50e9c1127f2cd403a315f,,,,,,,,,,,,,,,,,,,,,,,,,,,,,,,,,,,,,,,,,,,,,,,,,,,,,,,,,,,,,,,,,,,,,,,,,,,,,,,,,,,,,,,,,,,,,,,,,,,,,,,,,,,,,,,,,,,,,,,,,,,,,,,,,,,,,,,,,,,,,,,,,,,,,,,,,,,,,,,,,,,,
0,4,4,2,1,,5e9efe26ffd5fe04e506d7f3,62c53a1e9c6a1df059af4ef7,2022-07-06_09h35.23.334,Colour_Asymmetry_Pilot,2022.1.3,Win32,60.72751564,62c50e9c1127f2cd403a315f,,,,,,,,,,,,,,,,,,,,,,,,,,,,,,,,,,,,,,,,,,,,,,,,,,,,,,,,,,,,,,,,,,,,,,,,,,,,,,,,,,,,,,,,,,,,,,,,,,,,,,,,,,,,,,,,,,,,,,,,,,,,,,,,,,,,,,,,,,,,,,,,,,,,,,,,,,,,,,,,,,,,
0,5,5,15,1,,5e9efe26ffd5fe04e506d7f3,62c53a1e9c6a1df059af4ef7,2022-07-06_09h35.23.334,Colour_Asymmetry_Pilot,2022.1.3,Win32,60.72751564,62c50e9c1127f2cd403a315f,,,,,,,,,,,,,,,,,,,,,,,,,,,,,,,,,,,,,,,,,,,,,,,,,,,,,,,,,,,,,,,,,,,,,,,,,,,,,,,,,,,,,,,,,,,,,,,,,,,,,,,,,,,,,,,,,,,,,,,,,,,,,,,,,,,,,,,,,,,,,,,,,,,,,,,,,,,,,,,,,,,,
0,6,6,18,1,,5e9efe26ffd5fe04e506d7f3,62c53a1e9c6a1df059af4ef7,2022-07-06_09h35.23.334,Colour_Asymmetry_Pilot,2022.1.3,Win32,60.72751564,62c50e9c1127f2cd403a315f,,,,,,,,,,,,,,,,,,,,,,,,,,,,,,,,,,,,,,,,,,,,,,,,,,,,,,,,,,,,,,,,,,,,,,,,,,,,,,,,,,,,,,,,,,,,,,,,,,,,,,,,,,,,,,,,,,,,,,,,,,,,,,,,,,,,,,,,,,,,,,,,,,,,,,,,,,,,,,,,,,,,
0,7,7,74,1,,5e9efe26ffd5fe04e506d7f3,62c53a1e9c6a1df059af4ef7,2022-07-06_09h35.23.334,Colour_Asymmetry_Pilot,2022.1.3,Win32,60.72751564,62c50e9c1127f2cd403a315f,,,,,,,,,,,,,,,,,,,,,,,,,,,,,,,,,,,,,,,,,,,,,,,,,,,,,,,,,,,,,,,,,,,,,,,,,,,,,,,,,,,,,,,,,,,,,,,,,,,,,,,,,,,,,,,,,,,,,,,,,,,,,,,,,,,,,,,,,,,,,,,,,,,,,,,,,,,,,,,,,,,,
0,8,8,51,1,,5e9efe26ffd5fe04e506d7f3,62c53a1e9c6a1df059af4ef7,2022-07-06_09h35.23.334,Colour_Asymmetry_Pilot,2022.1.3,Win32,60.72751564,62c50e9c1127f2cd403a315f,,,,,,,,,,,,,,,,,,,,,,,,,,,,,,,,,,,,,,,,,,,,,,,,,,,,,,,,,,,,,,,,,,,,,,,,,,,,,,,,,,,,,,,,,,,,,,,,,,,,,,,,,,,,,,,,,,,,,,,,,,,,,,,,,,,,,,,,,,,,,,,,,,,,,,,,,,,,,,,,,,,,
0,9,9,88,1,,5e9efe26ffd5fe04e506d7f3,62c53a1e9c6a1df059af4ef7,2022-07-06_09h35.23.334,Colour_Asymmetry_Pilot,2022.1.3,Win32,60.72751564,62c50e9c1127f2cd403a315f,,,,,,,,,,,,,,,,,,,,,,,,,,,,,,,,,,,,,,,,,,,,,,,,,,,,,,,,,,,,,,,,,,,,,,,,,,,,,,,,,,,,,,,,,,,,,,,,,,,,,,,,,,,,,,,,,,,,,,,,,,,,,,,,,,,,,,,,,,,,,,,,,,,,,,,,,,,,,,,,,,,,
0,10,10,7,1,,5e9efe26ffd5fe04e506d7f3,62c53a1e9c6a1df059af4ef7,2022-07-06_09h35.23.334,Colour_Asymmetry_Pilot,2022.1.3,Win32,60.72751564,62c50e9c1127f2cd403a315f,,,,,,,,,,,,,,,,,,,,,,,,,,,,,,,,,,,,,,,,,,,,,,,,,,,,,,,,,,,,,,,,,,,,,,,,,,,,,,,,,,,,,,,,,,,,,,,,,,,,,,,,,,,,,,,,,,,,,,,,,,,,,,,,,,,,,,,,,,,,,,,,,,,,,,,,,,,,,,,,,,,,
0,11,11,16,1,,5e9efe26ffd5fe04e506d7f3,62c53a1e9c6a1df059af4ef7,2022-07-06_09h35.23.334,Colour_Asymmetry_Pilot,2022.1.3,Win32,60.72751564,62c50e9c1127f2cd403a315f,,,,,,,,,,,,,,,,,,,,,,,,,,,,,,,,,,,,,,,,,,,,,,,,,,,,,,,,,,,,,,,,,,,,,,,,,,,,,,,,,,,,,,,,,,,,,,,,,,,,,,,,,,,,,,,,,,,,,,,,,,,,,,,,,,,,,,,,,,,,,,,,,,,,,,,,,,,,,,,,,,,,
0,12,12,90,1,,5e9efe26ffd5fe04e506d7f3,62c53a1e9c6a1df059af4ef7,2022-07-06_09h35.23.334,Colour_Asymmetry_Pilot,2022.1.3,Win32,60.72751564,62c50e9c1127f2cd403a315f,,,,,,,,,,,,,,,,,,,,,,,,,,,,,,,,,,,,,,,,,,,,,,,,,,,,,,,,,,,,,,,,,,,,,,,,,,,,,,,,,,,,,,,,,,,,,,,,,,,,,,,,,,,,,,,,,,,,,,,,,,,,,,,,,,,,,,,,,,,,,,,,,,,,,,,,,,,,,,,,,,,,
0,13,13,64,1,,5e9efe26ffd5fe04e506d7f3,62c53a1e9c6a1df059af4ef7,2022-07-06_09h35.23.334,Colour_Asymmetry_Pilot,2022.1.3,Win32,60.72751564,62c50e9c1127f2cd403a315f,,,,,,,,,,,,,,,,,,,,,,,,,,,,,,,,,,,,,,,,,,,,,,,,,,,,,,,,,,,,,,,,,,,,,,,,,,,,,,,,,,,,,,,,,,,,,,,,,,,,,,,,,,,,,,,,,,,,,,,,,,,,,,,,,,,,,,,,,,,,,,,,,,,,,,,,,,,,,,,,,,,,
0,14,14,83,1,,5e9efe26ffd5fe04e506d7f3,62c53a1e9c6a1df059af4ef7,2022-07-06_09h35.23.334,Colour_Asymmetry_Pilot,2022.1.3,Win32,60.72751564,62c50e9c1127f2cd403a315f,,,,,,,,,,,,,,,,,,,,,,,,,,,,,,,,,,,,,,,,,,,,,,,,,,,,,,,,,,,,,,,,,,,,,,,,,,,,,,,,,,,,,,,,,,,,,,,,,,,,,,,,,,,,,,,,,,,,,,,,,,,,,,,,,,,,,,,,,,,,,,,,,,,,,,,,,,,,,,,,,,,,
0,15,15,69,1,,5e9efe26ffd5fe04e506d7f3,62c53a1e9c6a1df059af4ef7,2022-07-06_09h35.23.334,Colour_Asymmetry_Pilot,2022.1.3,Win32,60.72751564,62c50e9c1127f2cd403a315f,,,,,,,,,,,,,,,,,,,,,,,,,,,,,,,,,,,,,,,,,,,,,,,,,,,,,,,,,,,,,,,,,,,,,,,,,,,,,,,,,,,,,,,,,,,,,,,,,,,,,,,,,,,,,,,,,,,,,,,,,,,,,,,,,,,,,,,,,,,,,,,,,,,,,,,,,,,,,,,,,,,,
0,16,16,73,1,,5e9efe26ffd5fe04e506d7f3,62c53a1e9c6a1df059af4ef7,2022-07-06_09h35.23.334,Colour_Asymmetry_Pilot,2022.1.3,Win32,60.72751564,62c50e9c1127f2cd403a315f,,,,,,,,,,,,,,,,,,,,,,,,,,,,,,,,,,,,,,,,,,,,,,,,,,,,,,,,,,,,,,,,,,,,,,,,,,,,,,,,,,,,,,,,,,,,,,,,,,,,,,,,,,,,,,,,,,,,,,,,,,,,,,,,,,,,,,,,,,,,,,,,,,,,,,,,,,,,,,,,,,,,
0,17,17,57,1,,5e9efe26ffd5fe04e506d7f3,62c53a1e9c6a1df059af4ef7,2022-07-06_09h35.23.334,Colour_Asymmetry_Pilot,2022.1.3,Win32,60.72751564,62c50e9c1127f2cd403a315f,,,,,,,,,,,,,,,,,,,,,,,,,,,,,,,,,,,,,,,,,,,,,,,,,,,,,,,,,,,,,,,,,,,,,,,,,,,,,,,,,,,,,,,,,,,,,,,,,,,,,,,,,,,,,,,,,,,,,,,,,,,,,,,,,,,,,,,,,,,,,,,,,,,,,,,,,,,,,,,,,,,,
0,18,18,87,1,,5e9efe26ffd5fe04e506d7f3,62c53a1e9c6a1df059af4ef7,2022-07-06_09h35.23.334,Colour_Asymmetry_Pilot,2022.1.3,Win32,60.72751564,62c50e9c1127f2cd403a315f,,,,,,,,,,,,,,,,,,,,,,,,,,,,,,,,,,,,,,,,,,,,,,,,,,,,,,,,,,,,,,,,,,,,,,,,,,,,,,,,,,,,,,,,,,,,,,,,,,,,,,,,,,,,,,,,,,,,,,,,,,,,,,,,,,,,,,,,,,,,,,,,,,,,,,,,,,,,,,,,,,,,
0,19,19,39,1,,5e9efe26ffd5fe04e506d7f3,62c53a1e9c6a1df059af4ef7,2022-07-06_09h35.23.334,Colour_Asymmetry_Pilot,2022.1.3,Win32,60.72751564,62c50e9c1127f2cd403a315f,,,,,,,,,,,,,,,,,,,,,,,,,,,,,,,,,,,,,,,,,,,,,,,,,,,,,,,,,,,,,,,,,,,,,,,,,,,,,,,,,,,,,,,,,,,,,,,,,,,,,,,,,,,,,,,,,,,,,,,,,,,,,,,,,,,,,,,,,,,,,,,,,,,,,,,,,,,,,,,,,,,,
0,20,20,32,1,,5e9efe26ffd5fe04e506d7f3,62c53a1e9c6a1df059af4ef7,2022-07-06_09h35.23.334,Colour_Asymmetry_Pilot,2022.1.3,Win32,60.72751564,62c50e9c1127f2cd403a315f,,,,,,,,,,,,,,,,,,,,,,,,,,,,,,,,,,,,,,,,,,,,,,,,,,,,,,,,,,,,,,,,,,,,,,,,,,,,,,,,,,,,,,,,,,,,,,,,,,,,,,,,,,,,,,,,,,,,,,,,,,,,,,,,,,,,,,,,,,,,,,,,,,,,,,,,,,,,,,,,,,,,
0,21,21,72,1,,5e9efe26ffd5fe04e506d7f3,62c53a1e9c6a1df059af4ef7,2022-07-06_09h35.23.334,Colour_Asymmetry_Pilot,2022.1.3,Win32,60.72751564,62c50e9c1127f2cd403a315f,,,,,,,,,,,,,,,,,,,,,,,,,,,,,,,,,,,,,,,,,,,,,,,,,,,,,,,,,,,,,,,,,,,,,,,,,,,,,,,,,,,,,,,,,,,,,,,,,,,,,,,,,,,,,,,,,,,,,,,,,,,,,,,,,,,,,,,,,,,,,,,,,,,,,,,,,,,,,,,,,,,,
0,22,22,36,1,,5e9efe26ffd5fe04e506d7f3,62c53a1e9c6a1df059af4ef7,2022-07-06_09h35.23.334,Colour_Asymmetry_Pilot,2022.1.3,Win32,60.72751564,62c50e9c1127f2cd403a315f,,,,,,,,,,,,,,,,,,,,,,,,,,,,,,,,,,,,,,,,,,,,,,,,,,,,,,,,,,,,,,,,,,,,,,,,,,,,,,,,,,,,,,,,,,,,,,,,,,,,,,,,,,,,,,,,,,,,,,,,,,,,,,,,,,,,,,,,,,,,,,,,,,,,,,,,,,,,,,,,,,,,
0,23,23,6,1,,5e9efe26ffd5fe04e506d7f3,62c53a1e9c6a1df059af4ef7,2022-07-06_09h35.23.334,Colour_Asymmetry_Pilot,2022.1.3,Win32,60.72751564,62c50e9c1127f2cd403a315f,,,,,,,,,,,,,,,,,,,,,,,,,,,,,,,,,,,,,,,,,,,,,,,,,,,,,,,,,,,,,,,,,,,,,,,,,,,,,,,,,,,,,,,,,,,,,,,,,,,,,,,,,,,,,,,,,,,,,,,,,,,,,,,,,,,,,,,,,,,,,,,,,,,,,,,,,,,,,,,,,,,,
0,24,24,28,1,,5e9efe26ffd5fe04e506d7f3,62c53a1e9c6a1df059af4ef7,2022-07-06_09h35.23.334,Colour_Asymmetry_Pilot,2022.1.3,Win32,60.72751564,62c50e9c1127f2cd403a315f,,,,,,,,,,,,,,,,,,,,,,,,,,,,,,,,,,,,,,,,,,,,,,,,,,,,,,,,,,,,,,,,,,,,,,,,,,,,,,,,,,,,,,,,,,,,,,,,,,,,,,,,,,,,,,,,,,,,,,,,,,,,,,,,,,,,,,,,,,,,,,,,,,,,,,,,,,,,,,,,,,,,
0,25,25,17,1,,5e9efe26ffd5fe04e506d7f3,62c53a1e9c6a1df059af4ef7,2022-07-06_09h35.23.334,Colour_Asymmetry_Pilot,2022.1.3,Win32,60.72751564,62c50e9c1127f2cd403a315f,,,,,,,,,,,,,,,,,,,,,,,,,,,,,,,,,,,,,,,,,,,,,,,,,,,,,,,,,,,,,,,,,,,,,,,,,,,,,,,,,,,,,,,,,,,,,,,,,,,,,,,,,,,,,,,,,,,,,,,,,,,,,,,,,,,,,,,,,,,,,,,,,,,,,,,,,,,,,,,,,,,,
0,26,26,80,1,,5e9efe26ffd5fe04e506d7f3,62c53a1e9c6a1df059af4ef7,2022-07-06_09h35.23.334,Colour_Asymmetry_Pilot,2022.1.3,Win32,60.72751564,62c50e9c1127f2cd403a315f,,,,,,,,,,,,,,,,,,,,,,,,,,,,,,,,,,,,,,,,,,,,,,,,,,,,,,,,,,,,,,,,,,,,,,,,,,,,,,,,,,,,,,,,,,,,,,,,,,,,,,,,,,,,,,,,,,,,,,,,,,,,,,,,,,,,,,,,,,,,,,,,,,,,,,,,,,,,,,,,,,,,
0,27,27,62,1,,5e9efe26ffd5fe04e506d7f3,62c53a1e9c6a1df059af4ef7,2022-07-06_09h35.23.334,Colour_Asymmetry_Pilot,2022.1.3,Win32,60.72751564,62c50e9c1127f2cd403a315f,,,,,,,,,,,,,,,,,,,,,,,,,,,,,,,,,,,,,,,,,,,,,,,,,,,,,,,,,,,,,,,,,,,,,,,,,,,,,,,,,,,,,,,,,,,,,,,,,,,,,,,,,,,,,,,,,,,,,,,,,,,,,,,,,,,,,,,,,,,,,,,,,,,,,,,,,,,,,,,,,,,,
0,28,28,1,1,,5e9efe26ffd5fe04e506d7f3,62c53a1e9c6a1df059af4ef7,2022-07-06_09h35.23.334,Colour_Asymmetry_Pilot,2022.1.3,Win32,60.72751564,62c50e9c1127f2cd403a315f,,,,,,,,,,,,,,,,,,,,,,,,,,,,,,,,,,,,,,,,,,,,,,,,,,,,,,,,,,,,,,,,,,,,,,,,,,,,,,,,,,,,,,,,,,,,,,,,,,,,,,,,,,,,,,,,,,,,,,,,,,,,,,,,,,,,,,,,,,,,,,,,,,,,,,,,,,,,,,,,,,,,
0,29,29,25,1,,5e9efe26ffd5fe04e506d7f3,62c53a1e9c6a1df059af4ef7,2022-07-06_09h35.23.334,Colour_Asymmetry_Pilot,2022.1.3,Win32,60.72751564,62c50e9c1127f2cd403a315f,,,,,,,,,,,,,,,,,,,,,,,,,,,,,,,,,,,,,,,,,,,,,,,,,,,,,,,,,,,,,,,,,,,,,,,,,,,,,,,,,,,,,,,,,,,,,,,,,,,,,,,,,,,,,,,,,,,,,,,,,,,,,,,,,,,,,,,,,,,,,,,,,,,,,,,,,,,,,,,,,,,,
0,30,30,0,1,,5e9efe26ffd5fe04e506d7f3,62c53a1e9c6a1df059af4ef7,2022-07-06_09h35.23.334,Colour_Asymmetry_Pilot,2022.1.3,Win32,60.72751564,62c50e9c1127f2cd403a315f,,,,,,,,,,,,,,,,,,,,,,,,,,,,,,,,,,,,,,,,,,,,,,,,,,,,,,,,,,,,,,,,,,,,,,,,,,,,,,,,,,,,,,,,,,,,,,,,,,,,,,,,,,,,,,,,,,,,,,,,,,,,,,,,,,,,,,,,,,,,,,,,,,,,,,,,,,,,,,,,,,,,
0,31,31,8,1,,5e9efe26ffd5fe04e506d7f3,62c53a1e9c6a1df059af4ef7,2022-07-06_09h35.23.334,Colour_Asymmetry_Pilot,2022.1.3,Win32,60.72751564,62c50e9c1127f2cd403a315f,,,,,,,,,,,,,,,,,,,,,,,,,,,,,,,,,,,,,,,,,,,,,,,,,,,,,,,,,,,,,,,,,,,,,,,,,,,,,,,,,,,,,,,,,,,,,,,,,,,,,,,,,,,,,,,,,,,,,,,,,,,,,,,,,,,,,,,,,,,,,,,,,,,,,,,,,,,,,,,,,,,,
0,32,32,19,1,,5e9efe26ffd5fe04e506d7f3,62c53a1e9c6a1df059af4ef7,2022-07-06_09h35.23.334,Colour_Asymmetry_Pilot,2022.1.3,Win32,60.72751564,62c50e9c1127f2cd403a315f,,,,,,,,,,,,,,,,,,,,,,,,,,,,,,,,,,,,,,,,,,,,,,,,,,,,,,,,,,,,,,,,,,,,,,,,,,,,,,,,,,,,,,,,,,,,,,,,,,,,,,,,,,,,,,,,,,,,,,,,,,,,,,,,,,,,,,,,,,,,,,,,,,,,,,,,,,,,,,,,,,,,
0,33,33,34,1,,5e9efe26ffd5fe04e506d7f3,62c53a1e9c6a1df059af4ef7,2022-07-06_09h35.23.334,Colour_Asymmetry_Pilot,2022.1.3,Win32,60.72751564,62c50e9c1127f2cd403a315f,,,,,,,,,,,,,,,,,,,,,,,,,,,,,,,,,,,,,,,,,,,,,,,,,,,,,,,,,,,,,,,,,,,,,,,,,,,,,,,,,,,,,,,,,,,,,,,,,,,,,,,,,,,,,,,,,,,,,,,,,,,,,,,,,,,,,,,,,,,,,,,,,,,,,,,,,,,,,,,,,,,,
0,34,34,70,1,,5e9efe26ffd5fe04e506d7f3,62c53a1e9c6a1df059af4ef7,2022-07-06_09h35.23.334,Colour_Asymmetry_Pilot,2022.1.3,Win32,60.72751564,62c50e9c1127f2cd403a315f,,,,,,,,,,,,,,,,,,,,,,,,,,,,,,,,,,,,,,,,,,,,,,,,,,,,,,,,,,,,,,,,,,,,,,,,,,,,,,,,,,,,,,,,,,,,,,,,,,,,,,,,,,,,,,,,,,,,,,,,,,,,,,,,,,,,,,,,,,,,,,,,,,,,,,,,,,,,,,,,,,,,
0,35,35,42,1,,5e9efe26ffd5fe04e506d7f3,62c53a1e9c6a1df059af4ef7,2022-07-06_09h35.23.334,Colour_Asymmetry_Pilot,2022.1.3,Win32,60.72751564,62c50e9c1127f2cd403a315f,,,,,,,,,,,,,,,,,,,,,,,,,,,,,,,,,,,,,,,,,,,,,,,,,,,,,,,,,,,,,,,,,,,,,,,,,,,,,,,,,,,,,,,,,,,,,,,,,,,,,,,,,,,,,,,,,,,,,,,,,,,,,,,,,,,,,,,,,,,,,,,,,,,,,,,,,,,,,,,,,,,,
0,36,36,37,1,,5e9efe26ffd5fe04e506d7f3,62c53a1e9c6a1df059af4ef7,2022-07-06_09h35.23.334,Colour_Asymmetry_Pilot,2022.1.3,Win32,60.72751564,62c50e9c1127f2cd403a315f,,,,,,,,,,,,,,,,,,,,,,,,,,,,,,,,,,,,,,,,,,,,,,,,,,,,,,,,,,,,,,,,,,,,,,,,,,,,,,,,,,,,,,,,,,,,,,,,,,,,,,,,,,,,,,,,,,,,,,,,,,,,,,,,,,,,,,,,,,,,,,,,,,,,,,,,,,,,,,,,,,,,
0,37,37,23,1,,5e9efe26ffd5fe04e506d7f3,62c53a1e9c6a1df059af4ef7,2022-07-06_09h35.23.334,Colour_Asymmetry_Pilot,2022.1.3,Win32,60.72751564,62c50e9c1127f2cd403a315f,,,,,,,,,,,,,,,,,,,,,,,,,,,,,,,,,,,,,,,,,,,,,,,,,,,,,,,,,,,,,,,,,,,,,,,,,,,,,,,,,,,,,,,,,,,,,,,,,,,,,,,,,,,,,,,,,,,,,,,,,,,,,,,,,,,,,,,,,,,,,,,,,,,,,,,,,,,,,,,,,,,,
0,38,38,66,1,,5e9efe26ffd5fe04e506d7f3,62c53a1e9c6a1df059af4ef7,2022-07-06_09h35.23.334,Colour_Asymmetry_Pilot,2022.1.3,Win32,60.72751564,62c50e9c1127f2cd403a315f,,,,,,,,,,,,,,,,,,,,,,,,,,,,,,,,,,,,,,,,,,,,,,,,,,,,,,,,,,,,,,,,,,,,,,,,,,,,,,,,,,,,,,,,,,,,,,,,,,,,,,,,,,,,,,,,,,,,,,,,,,,,,,,,,,,,,,,,,,,,,,,,,,,,,,,,,,,,,,,,,,,,
0,39,39,79,1,,5e9efe26ffd5fe04e506d7f3,62c53a1e9c6a1df059af4ef7,2022-07-06_09h35.23.334,Colour_Asymmetry_Pilot,2022.1.3,Win32,60.72751564,62c50e9c1127f2cd403a315f,,,,,,,,,,,,,,,,,,,,,,,,,,,,,,,,,,,,,,,,,,,,,,,,,,,,,,,,,,,,,,,,,,,,,,,,,,,,,,,,,,,,,,,,,,,,,,,,,,,,,,,,,,,,,,,,,,,,,,,,,,,,,,,,,,,,,,,,,,,,,,,,,,,,,,,,,,,,,,,,,,,,
0,40,40,58,1,,5e9efe26ffd5fe04e506d7f3,62c53a1e9c6a1df059af4ef7,2022-07-06_09h35.23.334,Colour_Asymmetry_Pilot,2022.1.3,Win32,60.72751564,62c50e9c1127f2cd403a315f,,,,,,,,,,,,,,,,,,,,,,,,,,,,,,,,,,,,,,,,,,,,,,,,,,,,,,,,,,,,,,,,,,,,,,,,,,,,,,,,,,,,,,,,,,,,,,,,,,,,,,,,,,,,,,,,,,,,,,,,,,,,,,,,,,,,,,,,,,,,,,,,,,,,,,,,,,,,,,,,,,,,
0,41,41,47,1,,5e9efe26ffd5fe04e506d7f3,62c53a1e9c6a1df059af4ef7,2022-07-06_09h35.23.334,Colour_Asymmetry_Pilot,2022.1.3,Win32,60.72751564,62c50e9c1127f2cd403a315f,,,,,,,,,,,,,,,,,,,,,,,,,,,,,,,,,,,,,,,,,,,,,,,,,,,,,,,,,,,,,,,,,,,,,,,,,,,,,,,,,,,,,,,,,,,,,,,,,,,,,,,,,,,,,,,,,,,,,,,,,,,,,,,,,,,,,,,,,,,,,,,,,,,,,,,,,,,,,,,,,,,,
0,42,42,65,1,,5e9efe26ffd5fe04e506d7f3,62c53a1e9c6a1df059af4ef7,2022-07-06_09h35.23.334,Colour_Asymmetry_Pilot,2022.1.3,Win32,60.72751564,62c50e9c1127f2cd403a315f,,,,,,,,,,,,,,,,,,,,,,,,,,,,,,,,,,,,,,,,,,,,,,,,,,,,,,,,,,,,,,,,,,,,,,,,,,,,,,,,,,,,,,,,,,,,,,,,,,,,,,,,,,,,,,,,,,,,,,,,,,,,,,,,,,,,,,,,,,,,,,,,,,,,,,,,,,,,,,,,,,,,
0,43,43,55,1,,5e9efe26ffd5fe04e506d7f3,62c53a1e9c6a1df059af4ef7,2022-07-06_09h35.23.334,Colour_Asymmetry_Pilot,2022.1.3,Win32,60.72751564,62c50e9c1127f2cd403a315f,,,,,,,,,,,,,,,,,,,,,,,,,,,,,,,,,,,,,,,,,,,,,,,,,,,,,,,,,,,,,,,,,,,,,,,,,,,,,,,,,,,,,,,,,,,,,,,,,,,,,,,,,,,,,,,,,,,,,,,,,,,,,,,,,,,,,,,,,,,,,,,,,,,,,,,,,,,,,,,,,,,,
0,44,44,24,1,,5e9efe26ffd5fe04e506d7f3,62c53a1e9c6a1df059af4ef7,2022-07-06_09h35.23.334,Colour_Asymmetry_Pilot,2022.1.3,Win32,60.72751564,62c50e9c1127f2cd403a315f,,,,,,,,,,,,,,,,,,,,,,,,,,,,,,,,,,,,,,,,,,,,,,,,,,,,,,,,,,,,,,,,,,,,,,,,,,,,,,,,,,,,,,,,,,,,,,,,,,,,,,,,,,,,,,,,,,,,,,,,,,,,,,,,,,,,,,,,,,,,,,,,,,,,,,,,,,,,,,,,,,,,
0,45,45,85,1,,5e9efe26ffd5fe04e506d7f3,62c53a1e9c6a1df059af4ef7,2022-07-06_09h35.23.334,Colour_Asymmetry_Pilot,2022.1.3,Win32,60.72751564,62c50e9c1127f2cd403a315f,,,,,,,,,,,,,,,,,,,,,,,,,,,,,,,,,,,,,,,,,,,,,,,,,,,,,,,,,,,,,,,,,,,,,,,,,,,,,,,,,,,,,,,,,,,,,,,,,,,,,,,,,,,,,,,,,,,,,,,,,,,,,,,,,,,,,,,,,,,,,,,,,,,,,,,,,,,,,,,,,,,,
0,46,46,14,1,,5e9efe26ffd5fe04e506d7f3,62c53a1e9c6a1df059af4ef7,2022-07-06_09h35.23.334,Colour_Asymmetry_Pilot,2022.1.3,Win32,60.72751564,62c50e9c1127f2cd403a315f,,,,,,,,,,,,,,,,,,,,,,,,,,,,,,,,,,,,,,,,,,,,,,,,,,,,,,,,,,,,,,,,,,,,,,,,,,,,,,,,,,,,,,,,,,,,,,,,,,,,,,,,,,,,,,,,,,,,,,,,,,,,,,,,,,,,,,,,,,,,,,,,,,,,,,,,,,,,,,,,,,,,
0,47,47,63,1,,5e9efe26ffd5fe04e506d7f3,62c53a1e9c6a1df059af4ef7,2022-07-06_09h35.23.334,Colour_Asymmetry_Pilot,2022.1.3,Win32,60.72751564,62c50e9c1127f2cd403a315f,,,,,,,,,,,,,,,,,,,,,,,,,,,,,,,,,,,,,,,,,,,,,,,,,,,,,,,,,,,,,,,,,,,,,,,,,,,,,,,,,,,,,,,,,,,,,,,,,,,,,,,,,,,,,,,,,,,,,,,,,,,,,,,,,,,,,,,,,,,,,,,,,,,,,,,,,,,,,,,,,,,,
0,48,48,21,1,,5e9efe26ffd5fe04e506d7f3,62c53a1e9c6a1df059af4ef7,2022-07-06_09h35.23.334,Colour_Asymmetry_Pilot,2022.1.3,Win32,60.72751564,62c50e9c1127f2cd403a315f,,,,,,,,,,,,,,,,,,,,,,,,,,,,,,,,,,,,,,,,,,,,,,,,,,,,,,,,,,,,,,,,,,,,,,,,,,,,,,,,,,,,,,,,,,,,,,,,,,,,,,,,,,,,,,,,,,,,,,,,,,,,,,,,,,,,,,,,,,,,,,,,,,,,,,,,,,,,,,,,,,,,
0,49,49,78,1,,5e9efe26ffd5fe04e506d7f3,62c53a1e9c6a1df059af4ef7,2022-07-06_09h35.23.334,Colour_Asymmetry_Pilot,2022.1.3,Win32,60.72751564,62c50e9c1127f2cd403a315f,,,,,,,,,,,,,,,,,,,,,,,,,,,,,,,,,,,,,,,,,,,,,,,,,,,,,,,,,,,,,,,,,,,,,,,,,,,,,,,,,,,,,,,,,,,,,,,,,,,,,,,,,,,,,,,,,,,,,,,,,,,,,,,,,,,,,,,,,,,,,,,,,,,,,,,,,,,,,,,,,,,,
0,50,50,91,1,,5e9efe26ffd5fe04e506d7f3,62c53a1e9c6a1df059af4ef7,2022-07-06_09h35.23.334,Colour_Asymmetry_Pilot,2022.1.3,Win32,60.72751564,62c50e9c1127f2cd403a315f,,,,,,,,,,,,,,,,,,,,,,,,,,,,,,,,,,,,,,,,,,,,,,,,,,,,,,,,,,,,,,,,,,,,,,,,,,,,,,,,,,,,,,,,,,,,,,,,,,,,,,,,,,,,,,,,,,,,,,,,,,,,,,,,,,,,,,,,,,,,,,,,,,,,,,,,,,,,,,,,,,,,
0,51,51,44,1,,5e9efe26ffd5fe04e506d7f3,62c53a1e9c6a1df059af4ef7,2022-07-06_09h35.23.334,Colour_Asymmetry_Pilot,2022.1.3,Win32,60.72751564,62c50e9c1127f2cd403a315f,,,,,,,,,,,,,,,,,,,,,,,,,,,,,,,,,,,,,,,,,,,,,,,,,,,,,,,,,,,,,,,,,,,,,,,,,,,,,,,,,,,,,,,,,,,,,,,,,,,,,,,,,,,,,,,,,,,,,,,,,,,,,,,,,,,,,,,,,,,,,,,,,,,,,,,,,,,,,,,,,,,,
0,52,52,38,1,,5e9efe26ffd5fe04e506d7f3,62c53a1e9c6a1df059af4ef7,2022-07-06_09h35.23.334,Colour_Asymmetry_Pilot,2022.1.3,Win32,60.72751564,62c50e9c1127f2cd403a315f,,,,,,,,,,,,,,,,,,,,,,,,,,,,,,,,,,,,,,,,,,,,,,,,,,,,,,,,,,,,,,,,,,,,,,,,,,,,,,,,,,,,,,,,,,,,,,,,,,,,,,,,,,,,,,,,,,,,,,,,,,,,,,,,,,,,,,,,,,,,,,,,,,,,,,,,,,,,,,,,,,,,
0,53,53,60,1,,5e9efe26ffd5fe04e506d7f3,62c53a1e9c6a1df059af4ef7,2022-07-06_09h35.23.334,Colour_Asymmetry_Pilot,2022.1.3,Win32,60.72751564,62c50e9c1127f2cd403a315f,,,,,,,,,,,,,,,,,,,,,,,,,,,,,,,,,,,,,,,,,,,,,,,,,,,,,,,,,,,,,,,,,,,,,,,,,,,,,,,,,,,,,,,,,,,,,,,,,,,,,,,,,,,,,,,,,,,,,,,,,,,,,,,,,,,,,,,,,,,,,,,,,,,,,,,,,,,,,,,,,,,,
0,54,54,30,1,,5e9efe26ffd5fe04e506d7f3,62c53a1e9c6a1df059af4ef7,2022-07-06_09h35.23.334,Colour_Asymmetry_Pilot,2022.1.3,Win32,60.72751564,62c50e9c1127f2cd403a315f,,,,,,,,,,,,,,,,,,,,,,,,,,,,,,,,,,,,,,,,,,,,,,,,,,,,,,,,,,,,,,,,,,,,,,,,,,,,,,,,,,,,,,,,,,,,,,,,,,,,,,,,,,,,,,,,,,,,,,,,,,,,,,,,,,,,,,,,,,,,,,,,,,,,,,,,,,,,,,,,,,,,
0,55,55,82,1,,5e9efe26ffd5fe04e506d7f3,62c53a1e9c6a1df059af4ef7,2022-07-06_09h35.23.334,Colour_Asymmetry_Pilot,2022.1.3,Win32,60.72751564,62c50e9c1127f2cd403a315f,,,,,,,,,,,,,,,,,,,,,,,,,,,,,,,,,,,,,,,,,,,,,,,,,,,,,,,,,,,,,,,,,,,,,,,,,,,,,,,,,,,,,,,,,,,,,,,,,,,,,,,,,,,,,,,,,,,,,,,,,,,,,,,,,,,,,,,,,,,,,,,,,,,,,,,,,,,,,,,,,,,,
0,56,56,92,1,,5e9efe26ffd5fe04e506d7f3,62c53a1e9c6a1df059af4ef7,2022-07-06_09h35.23.334,Colour_Asymmetry_Pilot,2022.1.3,Win32,60.72751564,62c50e9c1127f2cd403a315f,,,,,,,,,,,,,,,,,,,,,,,,,,,,,,,,,,,,,,,,,,,,,,,,,,,,,,,,,,,,,,,,,,,,,,,,,,,,,,,,,,,,,,,,,,,,,,,,,,,,,,,,,,,,,,,,,,,,,,,,,,,,,,,,,,,,,,,,,,,,,,,,,,,,,,,,,,,,,,,,,,,,
0,57,57,68,1,,5e9efe26ffd5fe04e506d7f3,62c53a1e9c6a1df059af4ef7,2022-07-06_09h35.23.334,Colour_Asymmetry_Pilot,2022.1.3,Win32,60.72751564,62c50e9c1127f2cd403a315f,,,,,,,,,,,,,,,,,,,,,,,,,,,,,,,,,,,,,,,,,,,,,,,,,,,,,,,,,,,,,,,,,,,,,,,,,,,,,,,,,,,,,,,,,,,,,,,,,,,,,,,,,,,,,,,,,,,,,,,,,,,,,,,,,,,,,,,,,,,,,,,,,,,,,,,,,,,,,,,,,,,,
0,58,58,13,1,,5e9efe26ffd5fe04e506d7f3,62c53a1e9c6a1df059af4ef7,2022-07-06_09h35.23.334,Colour_Asymmetry_Pilot,2022.1.3,Win32,60.72751564,62c50e9c1127f2cd403a315f,,,,,,,,,,,,,,,,,,,,,,,,,,,,,,,,,,,,,,,,,,,,,,,,,,,,,,,,,,,,,,,,,,,,,,,,,,,,,,,,,,,,,,,,,,,,,,,,,,,,,,,,,,,,,,,,,,,,,,,,,,,,,,,,,,,,,,,,,,,,,,,,,,,,,,,,,,,,,,,,,,,,
0,59,59,40,1,,5e9efe26ffd5fe04e506d7f3,62c53a1e9c6a1df059af4ef7,2022-07-06_09h35.23.334,Colour_Asymmetry_Pilot,2022.1.3,Win32,60.72751564,62c50e9c1127f2cd403a315f,,,,,,,,,,,,,,,,,,,,,,,,,,,,,,,,,,,,,,,,,,,,,,,,,,,,,,,,,,,,,,,,,,,,,,,,,,,,,,,,,,,,,,,,,,,,,,,,,,,,,,,,,,,,,,,,,,,,,,,,,,,,,,,,,,,,,,,,,,,,,,,,,,,,,,,,,,,,,,,,,,,,
0,60,60,77,1,,5e9efe26ffd5fe04e506d7f3,62c53a1e9c6a1df059af4ef7,2022-07-06_09h35.23.334,Colour_Asymmetry_Pilot,2022.1.3,Win32,60.72751564,62c50e9c1127f2cd403a315f,,,,,,,,,,,,,,,,,,,,,,,,,,,,,,,,,,,,,,,,,,,,,,,,,,,,,,,,,,,,,,,,,,,,,,,,,,,,,,,,,,,,,,,,,,,,,,,,,,,,,,,,,,,,,,,,,,,,,,,,,,,,,,,,,,,,,,,,,,,,,,,,,,,,,,,,,,,,,,,,,,,,
0,61,61,29,1,,5e9efe26ffd5fe04e506d7f3,62c53a1e9c6a1df059af4ef7,2022-07-06_09h35.23.334,Colour_Asymmetry_Pilot,2022.1.3,Win32,60.72751564,62c50e9c1127f2cd403a315f,,,,,,,,,,,,,,,,,,,,,,,,,,,,,,,,,,,,,,,,,,,,,,,,,,,,,,,,,,,,,,,,,,,,,,,,,,,,,,,,,,,,,,,,,,,,,,,,,,,,,,,,,,,,,,,,,,,,,,,,,,,,,,,,,,,,,,,,,,,,,,,,,,,,,,,,,,,,,,,,,,,,
0,62,62,84,1,,5e9efe26ffd5fe04e506d7f3,62c53a1e9c6a1df059af4ef7,2022-07-06_09h35.23.334,Colour_Asymmetry_Pilot,2022.1.3,Win32,60.72751564,62c50e9c1127f2cd403a315f,,,,,,,,,,,,,,,,,,,,,,,,,,,,,,,,,,,,,,,,,,,,,,,,,,,,,,,,,,,,,,,,,,,,,,,,,,,,,,,,,,,,,,,,,,,,,,,,,,,,,,,,,,,,,,,,,,,,,,,,,,,,,,,,,,,,,,,,,,,,,,,,,,,,,,,,,,,,,,,,,,,,
0,63,63,9,1,,5e9efe26ffd5fe04e506d7f3,62c53a1e9c6a1df059af4ef7,2022-07-06_09h35.23.334,Colour_Asymmetry_Pilot,2022.1.3,Win32,60.72751564,62c50e9c1127f2cd403a315f,,,,,,,,,,,,,,,,,,,,,,,,,,,,,,,,,,,,,,,,,,,,,,,,,,,,,,,,,,,,,,,,,,,,,,,,,,,,,,,,,,,,,,,,,,,,,,,,,,,,,,,,,,,,,,,,,,,,,,,,,,,,,,,,,,,,,,,,,,,,,,,,,,,,,,,,,,,,,,,,,,,,
0,64,64,5,1,,5e9efe26ffd5fe04e506d7f3,62c53a1e9c6a1df059af4ef7,2022-07-06_09h35.23.334,Colour_Asymmetry_Pilot,2022.1.3,Win32,60.72751564,62c50e9c1127f2cd403a315f,,,,,,,,,,,,,,,,,,,,,,,,,,,,,,,,,,,,,,,,,,,,,,,,,,,,,,,,,,,,,,,,,,,,,,,,,,,,,,,,,,,,,,,,,,,,,,,,,,,,,,,,,,,,,,,,,,,,,,,,,,,,,,,,,,,,,,,,,,,,,,,,,,,,,,,,,,,,,,,,,,,,
0,65,65,26,1,,5e9efe26ffd5fe04e506d7f3,62c53a1e9c6a1df059af4ef7,2022-07-06_09h35.23.334,Colour_Asymmetry_Pilot,2022.1.3,Win32,60.72751564,62c50e9c1127f2cd403a315f,,,,,,,,,,,,,,,,,,,,,,,,,,,,,,,,,,,,,,,,,,,,,,,,,,,,,,,,,,,,,,,,,,,,,,,,,,,,,,,,,,,,,,,,,,,,,,,,,,,,,,,,,,,,,,,,,,,,,,,,,,,,,,,,,,,,,,,,,,,,,,,,,,,,,,,,,,,,,,,,,,,,
0,66,66,3,1,,5e9efe26ffd5fe04e506d7f3,62c53a1e9c6a1df059af4ef7,2022-07-06_09h35.23.334,Colour_Asymmetry_Pilot,2022.1.3,Win32,60.72751564,62c50e9c1127f2cd403a315f,,,,,,,,,,,,,,,,,,,,,,,,,,,,,,,,,,,,,,,,,,,,,,,,,,,,,,,,,,,,,,,,,,,,,,,,,,,,,,,,,,,,,,,,,,,,,,,,,,,,,,,,,,,,,,,,,,,,,,,,,,,,,,,,,,,,,,,,,,,,,,,,,,,,,,,,,,,,,,,,,,,,
0,67,67,59,1,,5e9efe26ffd5fe04e506d7f3,62c53a1e9c6a1df059af4ef7,2022-07-06_09h35.23.334,Colour_Asymmetry_Pilot,2022.1.3,Win32,60.72751564,62c50e9c1127f2cd403a315f,,,,,,,,,,,,,,,,,,,,,,,,,,,,,,,,,,,,,,,,,,,,,,,,,,,,,,,,,,,,,,,,,,,,,,,,,,,,,,,,,,,,,,,,,,,,,,,,,,,,,,,,,,,,,,,,,,,,,,,,,,,,,,,,,,,,,,,,,,,,,,,,,,,,,,,,,,,,,,,,,,,,
0,68,68,10,1,,5e9efe26ffd5fe04e506d7f3,62c53a1e9c6a1df059af4ef7,2022-07-06_09h35.23.334,Colour_Asymmetry_Pilot,2022.1.3,Win32,60.72751564,62c50e9c1127f2cd403a315f,,,,,,,,,,,,,,,,,,,,,,,,,,,,,,,,,,,,,,,,,,,,,,,,,,,,,,,,,,,,,,,,,,,,,,,,,,,,,,,,,,,,,,,,,,,,,,,,,,,,,,,,,,,,,,,,,,,,,,,,,,,,,,,,,,,,,,,,,,,,,,,,,,,,,,,,,,,,,,,,,,,,
0,69,69,48,1,,5e9efe26ffd5fe04e506d7f3,62c53a1e9c6a1df059af4ef7,2022-07-06_09h35.23.334,Colour_Asymmetry_Pilot,2022.1.3,Win32,60.72751564,62c50e9c1127f2cd403a315f,,,,,,,,,,,,,,,,,,,,,,,,,,,,,,,,,,,,,,,,,,,,,,,,,,,,,,,,,,,,,,,,,,,,,,,,,,,,,,,,,,,,,,,,,,,,,,,,,,,,,,,,,,,,,,,,,,,,,,,,,,,,,,,,,,,,,,,,,,,,,,,,,,,,,,,,,,,,,,,,,,,,
0,70,70,89,1,,5e9efe26ffd5fe04e506d7f3,62c53a1e9c6a1df059af4ef7,2022-07-06_09h35.23.334,Colour_Asymmetry_Pilot,2022.1.3,Win32,60.72751564,62c50e9c1127f2cd403a315f,,,,,,,,,,,,,,,,,,,,,,,,,,,,,,,,,,,,,,,,,,,,,,,,,,,,,,,,,,,,,,,,,,,,,,,,,,,,,,,,,,,,,,,,,,,,,,,,,,,,,,,,,,,,,,,,,,,,,,,,,,,,,,,,,,,,,,,,,,,,,,,,,,,,,,,,,,,,,,,,,,,,
0,71,71,67,1,,5e9efe26ffd5fe04e506d7f3,62c53a1e9c6a1df059af4ef7,2022-07-06_09h35.23.334,Colour_Asymmetry_Pilot,2022.1.3,Win32,60.72751564,62c50e9c1127f2cd403a315f,,,,,,,,,,,,,,,,,,,,,,,,,,,,,,,,,,,,,,,,,,,,,,,,,,,,,,,,,,,,,,,,,,,,,,,,,,,,,,,,,,,,,,,,,,,,,,,,,,,,,,,,,,,,,,,,,,,,,,,,,,,,,,,,,,,,,,,,,,,,,,,,,,,,,,,,,,,,,,,,,,,,
0,72,72,86,1,,5e9efe26ffd5fe04e506d7f3,62c53a1e9c6a1df059af4ef7,2022-07-06_09h35.23.334,Colour_Asymmetry_Pilot,2022.1.3,Win32,60.72751564,62c50e9c1127f2cd403a315f,,,,,,,,,,,,,,,,,,,,,,,,,,,,,,,,,,,,,,,,,,,,,,,,,,,,,,,,,,,,,,,,,,,,,,,,,,,,,,,,,,,,,,,,,,,,,,,,,,,,,,,,,,,,,,,,,,,,,,,,,,,,,,,,,,,,,,,,,,,,,,,,,,,,,,,,,,,,,,,,,,,,
0,73,73,11,1,,5e9efe26ffd5fe04e506d7f3,62c53a1e9c6a1df059af4ef7,2022-07-06_09h35.23.334,Colour_Asymmetry_Pilot,2022.1.3,Win32,60.72751564,62c50e9c1127f2cd403a315f,,,,,,,,,,,,,,,,,,,,,,,,,,,,,,,,,,,,,,,,,,,,,,,,,,,,,,,,,,,,,,,,,,,,,,,,,,,,,,,,,,,,,,,,,,,,,,,,,,,,,,,,,,,,,,,,,,,,,,,,,,,,,,,,,,,,,,,,,,,,,,,,,,,,,,,,,,,,,,,,,,,,
0,74,74,27,1,,5e9efe26ffd5fe04e506d7f3,62c53a1e9c6a1df059af4ef7,2022-07-06_09h35.23.334,Colour_Asymmetry_Pilot,2022.1.3,Win32,60.72751564,62c50e9c1127f2cd403a315f,,,,,,,,,,,,,,,,,,,,,,,,,,,,,,,,,,,,,,,,,,,,,,,,,,,,,,,,,,,,,,,,,,,,,,,,,,,,,,,,,,,,,,,,,,,,,,,,,,,,,,,,,,,,,,,,,,,,,,,,,,,,,,,,,,,,,,,,,,,,,,,,,,,,,,,,,,,,,,,,,,,,
0,75,75,49,1,,5e9efe26ffd5fe04e506d7f3,62c53a1e9c6a1df059af4ef7,2022-07-06_09h35.23.334,Colour_Asymmetry_Pilot,2022.1.3,Win32,60.72751564,62c50e9c1127f2cd403a315f,,,,,,,,,,,,,,,,,,,,,,,,,,,,,,,,,,,,,,,,,,,,,,,,,,,,,,,,,,,,,,,,,,,,,,,,,,,,,,,,,,,,,,,,,,,,,,,,,,,,,,,,,,,,,,,,,,,,,,,,,,,,,,,,,,,,,,,,,,,,,,,,,,,,,,,,,,,,,,,,,,,,
0,76,76,12,1,,5e9efe26ffd5fe04e506d7f3,62c53a1e9c6a1df059af4ef7,2022-07-06_09h35.23.334,Colour_Asymmetry_Pilot,2022.1.3,Win32,60.72751564,62c50e9c1127f2cd403a315f,,,,,,,,,,,,,,,,,,,,,,,,,,,,,,,,,,,,,,,,,,,,,,,,,,,,,,,,,,,,,,,,,,,,,,,,,,,,,,,,,,,,,,,,,,,,,,,,,,,,,,,,,,,,,,,,,,,,,,,,,,,,,,,,,,,,,,,,,,,,,,,,,,,,,,,,,,,,,,,,,,,,
0,77,77,45,1,,5e9efe26ffd5fe04e506d7f3,62c53a1e9c6a1df059af4ef7,2022-07-06_09h35.23.334,Colour_Asymmetry_Pilot,2022.1.3,Win32,60.72751564,62c50e9c1127f2cd403a315f,,,,,,,,,,,,,,,,,,,,,,,,,,,,,,,,,,,,,,,,,,,,,,,,,,,,,,,,,,,,,,,,,,,,,,,,,,,,,,,,,,,,,,,,,,,,,,,,,,,,,,,,,,,,,,,,,,,,,,,,,,,,,,,,,,,,,,,,,,,,,,,,,,,,,,,,,,,,,,,,,,,,
0,78,78,76,1,,5e9efe26ffd5fe04e506d7f3,62c53a1e9c6a1df059af4ef7,2022-07-06_09h35.23.334,Colour_Asymmetry_Pilot,2022.1.3,Win32,60.72751564,62c50e9c1127f2cd403a315f,,,,,,,,,,,,,,,,,,,,,,,,,,,,,,,,,,,,,,,,,,,,,,,,,,,,,,,,,,,,,,,,,,,,,,,,,,,,,,,,,,,,,,,,,,,,,,,,,,,,,,,,,,,,,,,,,,,,,,,,,,,,,,,,,,,,,,,,,,,,,,,,,,,,,,,,,,,,,,,,,,,,
0,79,79,52,1,,5e9efe26ffd5fe04e506d7f3,62c53a1e9c6a1df059af4ef7,2022-07-06_09h35.23.334,Colour_Asymmetry_Pilot,2022.1.3,Win32,60.72751564,62c50e9c1127f2cd403a315f,,,,,,,,,,,,,,,,,,,,,,,,,,,,,,,,,,,,,,,,,,,,,,,,,,,,,,,,,,,,,,,,,,,,,,,,,,,,,,,,,,,,,,,,,,,,,,,,,,,,,,,,,,,,,,,,,,,,,,,,,,,,,,,,,,,,,,,,,,,,,,,,,,,,,,,,,,,,,,,,,,,,
0,80,80,22,1,,5e9efe26ffd5fe04e506d7f3,62c53a1e9c6a1df059af4ef7,2022-07-06_09h35.23.334,Colour_Asymmetry_Pilot,2022.1.3,Win32,60.72751564,62c50e9c1127f2cd403a315f,,,,,,,,,,,,,,,,,,,,,,,,,,,,,,,,,,,,,,,,,,,,,,,,,,,,,,,,,,,,,,,,,,,,,,,,,,,,,,,,,,,,,,,,,,,,,,,,,,,,,,,,,,,,,,,,,,,,,,,,,,,,,,,,,,,,,,,,,,,,,,,,,,,,,,,,,,,,,,,,,,,,
0,81,81,81,1,,5e9efe26ffd5fe04e506d7f3,62c53a1e9c6a1df059af4ef7,2022-07-06_09h35.23.334,Colour_Asymmetry_Pilot,2022.1.3,Win32,60.72751564,62c50e9c1127f2cd403a315f,,,,,,,,,,,,,,,,,,,,,,,,,,,,,,,,,,,,,,,,,,,,,,,,,,,,,,,,,,,,,,,,,,,,,,,,,,,,,,,,,,,,,,,,,,,,,,,,,,,,,,,,,,,,,,,,,,,,,,,,,,,,,,,,,,,,,,,,,,,,,,,,,,,,,,,,,,,,,,,,,,,,
0,82,82,54,1,,5e9efe26ffd5fe04e506d7f3,62c53a1e9c6a1df059af4ef7,2022-07-06_09h35.23.334,Colour_Asymmetry_Pilot,2022.1.3,Win32,60.72751564,62c50e9c1127f2cd403a315f,,,,,,,,,,,,,,,,,,,,,,,,,,,,,,,,,,,,,,,,,,,,,,,,,,,,,,,,,,,,,,,,,,,,,,,,,,,,,,,,,,,,,,,,,,,,,,,,,,,,,,,,,,,,,,,,,,,,,,,,,,,,,,,,,,,,,,,,,,,,,,,,,,,,,,,,,,,,,,,,,,,,
0,83,83,53,1,,5e9efe26ffd5fe04e506d7f3,62c53a1e9c6a1df059af4ef7,2022-07-06_09h35.23.334,Colour_Asymmetry_Pilot,2022.1.3,Win32,60.72751564,62c50e9c1127f2cd403a315f,,,,,,,,,,,,,,,,,,,,,,,,,,,,,,,,,,,,,,,,,,,,,,,,,,,,,,,,,,,,,,,,,,,,,,,,,,,,,,,,,,,,,,,,,,,,,,,,,,,,,,,,,,,,,,,,,,,,,,,,,,,,,,,,,,,,,,,,,,,,,,,,,,,,,,,,,,,,,,,,,,,,
0,84,84,61,1,,5e9efe26ffd5fe04e506d7f3,62c53a1e9c6a1df059af4ef7,2022-07-06_09h35.23.334,Colour_Asymmetry_Pilot,2022.1.3,Win32,60.72751564,62c50e9c1127f2cd403a315f,,,,,,,,,,,,,,,,,,,,,,,,,,,,,,,,,,,,,,,,,,,,,,,,,,,,,,,,,,,,,,,,,,,,,,,,,,,,,,,,,,,,,,,,,,,,,,,,,,,,,,,,,,,,,,,,,,,,,,,,,,,,,,,,,,,,,,,,,,,,,,,,,,,,,,,,,,,,,,,,,,,,
0,85,85,20,1,,5e9efe26ffd5fe04e506d7f3,62c53a1e9c6a1df059af4ef7,2022-07-06_09h35.23.334,Colour_Asymmetry_Pilot,2022.1.3,Win32,60.72751564,62c50e9c1127f2cd403a315f,,,,,,,,,,,,,,,,,,,,,,,,,,,,,,,,,,,,,,,,,,,,,,,,,,,,,,,,,,,,,,,,,,,,,,,,,,,,,,,,,,,,,,,,,,,,,,,,,,,,,,,,,,,,,,,,,,,,,,,,,,,,,,,,,,,,,,,,,,,,,,,,,,,,,,,,,,,,,,,,,,,,
0,86,86,33,1,,5e9efe26ffd5fe04e506d7f3,62c53a1e9c6a1df059af4ef7,2022-07-06_09h35.23.334,Colour_Asymmetry_Pilot,2022.1.3,Win32,60.72751564,62c50e9c1127f2cd403a315f,,,,,,,,,,,,,,,,,,,,,,,,,,,,,,,,,,,,,,,,,,,,,,,,,,,,,,,,,,,,,,,,,,,,,,,,,,,,,,,,,,,,,,,,,,,,,,,,,,,,,,,,,,,,,,,,,,,,,,,,,,,,,,,,,,,,,,,,,,,,,,,,,,,,,,,,,,,,,,,,,,,,
0,87,87,50,1,,5e9efe26ffd5fe04e506d7f3,62c53a1e9c6a1df059af4ef7,2022-07-06_09h35.23.334,Colour_Asymmetry_Pilot,2022.1.3,Win32,60.72751564,62c50e9c1127f2cd403a315f,,,,,,,,,,,,,,,,,,,,,,,,,,,,,,,,,,,,,,,,,,,,,,,,,,,,,,,,,,,,,,,,,,,,,,,,,,,,,,,,,,,,,,,,,,,,,,,,,,,,,,,,,,,,,,,,,,,,,,,,,,,,,,,,,,,,,,,,,,,,,,,,,,,,,,,,,,,,,,,,,,,,
0,88,88,4,1,,5e9efe26ffd5fe04e506d7f3,62c53a1e9c6a1df059af4ef7,2022-07-06_09h35.23.334,Colour_Asymmetry_Pilot,2022.1.3,Win32,60.72751564,62c50e9c1127f2cd403a315f,,,,,,,,,,,,,,,,,,,,,,,,,,,,,,,,,,,,,,,,,,,,,,,,,,,,,,,,,,,,,,,,,,,,,,,,,,,,,,,,,,,,,,,,,,,,,,,,,,,,,,,,,,,,,,,,,,,,,,,,,,,,,,,,,,,,,,,,,,,,,,,,,,,,,,,,,,,,,,,,,,,,
0,89,89,56,1,,5e9efe26ffd5fe04e506d7f3,62c53a1e9c6a1df059af4ef7,2022-07-06_09h35.23.334,Colour_Asymmetry_Pilot,2022.1.3,Win32,60.72751564,62c50e9c1127f2cd403a315f,,,,,,,,,,,,,,,,,,,,,,,,,,,,,,,,,,,,,,,,,,,,,,,,,,,,,,,,,,,,,,,,,,,,,,,,,,,,,,,,,,,,,,,,,,,,,,,,,,,,,,,,,,,,,,,,,,,,,,,,,,,,,,,,,,,,,,,,,,,,,,,,,,,,,,,,,,,,,,,,,,,,
0,90,90,43,1,,5e9efe26ffd5fe04e506d7f3,62c53a1e9c6a1df059af4ef7,2022-07-06_09h35.23.334,Colour_Asymmetry_Pilot,2022.1.3,Win32,60.72751564,62c50e9c1127f2cd403a315f,,,,,,,,,,,,,,,,,,,,,,,,,,,,,,,,,,,,,,,,,,,,,,,,,,,,,,,,,,,,,,,,,,,,,,,,,,,,,,,,,,,,,,,,,,,,,,,,,,,,,,,,,,,,,,,,,,,,,,,,,,,,,,,,,,,,,,,,,,,,,,,,,,,,,,,,,,,,,,,,,,,,
0,91,91,71,1,,5e9efe26ffd5fe04e506d7f3,62c53a1e9c6a1df059af4ef7,2022-07-06_09h35.23.334,Colour_Asymmetry_Pilot,2022.1.3,Win32,60.72751564,62c50e9c1127f2cd403a315f,,,,,,,,,,,,,,,,,,,,,,,,,,,,,,,,,,,,,,,,,,,,,,,,,,,,,,,,,,,,,,,,,,,,,,,,,,,,,,,,,,,,,,,,,,,,,,,,,,,,,,,,,,,,,,,,,,,,,,,,,,,,,,,,,,,,,,,,,,,,,,,,,,,,,,,,,,,,,,,,,,,,
0,92,92,46,1,,5e9efe26ffd5fe04e506d7f3,62c53a1e9c6a1df059af4ef7,2022-07-06_09h35.23.334,Colour_Asymmetry_Pilot,2022.1.3,Win32,60.72751564,62c50e9c1127f2cd403a315f,,,,,,,,,,,,,,,,,,,,,,,,,,,,,,,,,,,,,,,,,,,,,,,,,,,,,,,,,,,,,,,,,,,,,,,,,,,,,,,,,,,,,,,,,,,,,,,,,,,,,,,,,,,,,,,,,,,,,,,,,,,,,,,,,,,,,,,,,,,,,,,,,,,,,,,,,,,,,,,,,,,,
,,,,,,5e9efe26ffd5fe04e506d7f3,62c53a1e9c6a1df059af4ef7,2022-07-06_09h35.23.334,Colour_Asymmetry_Pilot,2022.1.3,Win32,60.72751564,62c50e9c1127f2cd403a315f,0,0,0,122,1,twoone,,,,,,,,,,,,,,,,,,,,,,,,,,,,,,,,,,,,,,,,,,,,,,,,,,,,,,,,,,,,,,,,,,,,,,,,,,,,,,,,,,,,,,,,,,,,,,,,,,,,,,,,,,,,,,,,,,,,,,,,,,,,,,,,,,,,,,,,,,,,,,,,,,,,,,,,,,,,,,
,,,,,,5e9efe26ffd5fe04e506d7f3,62c53a1e9c6a1df059af4ef7,2022-07-06_09h35.23.334,Colour_Asymmetry_Pilot,2022.1.3,Win32,60.72751564,62c50e9c1127f2cd403a315f,0,1,1,29,1,threefour,,,,,,,,,,,,,,,,,,,,,,,,,,,,,,,,,,,,,,,,,,,,,,,,,,,,,,,,,,,,,,,,,,,,,,,,,,,,,,,,,,,,,,,,,,,,,,,,,,,,,,,,,,,,,,,,,,,,,,,,,,,,,,,,,,,,,,,,,,,,,,,,,,,,,,,,,,,,,,
,,,,,,5e9efe26ffd5fe04e506d7f3,62c53a1e9c6a1df059af4ef7,2022-07-06_09h35.23.334,Colour_Asymmetry_Pilot,2022.1.3,Win32,60.72751564,62c50e9c1127f2cd403a315f,0,2,2,135,1,fourthree,,,,,,,,,,,,,,,,,,,,,,,,,,,,,,,,,,,,,,,,,,,,,,,,,,,,,,,,,,,,,,,,,,,,,,,,,,,,,,,,,,,,,,,,,,,,,,,,,,,,,,,,,,,,,,,,,,,,,,,,,,,,,,,,,,,,,,,,,,,,,,,,,,,,,,,,,,,,,,
,,,,,,5e9efe26ffd5fe04e506d7f3,62c53a1e9c6a1df059af4ef7,2022-07-06_09h35.23.334,Colour_Asymmetry_Pilot,2022.1.3,Win32,60.72751564,62c50e9c1127f2cd403a315f,0,3,3,156,1,threeone,,,,,,,,,,,,,,,,,,,,,,,,,,,,,,,,,,,,,,,,,,,,,,,,,,,,,,,,,,,,,,,,,,,,,,,,,,,,,,,,,,,,,,,,,,,,,,,,,,,,,,,,,,,,,,,,,,,,,,,,,,,,,,,,,,,,,,,,,,,,,,,,,,,,,,,,,,,,,,
,,,,,,5e9efe26ffd5fe04e506d7f3,62c53a1e9c6a1df059af4ef7,2022-07-06_09h35.23.334,Colour_Asymmetry_Pilot,2022.1.3,Win32,60.72751564,62c50e9c1127f2cd403a315f,0,4,4,108,1,threeone,,,,,,,,,,,,,,,,,,,,,,,,,,,,,,,,,,,,,,,,,,,,,,,,,,,,,,,,,,,,,,,,,,,,,,,,,,,,,,,,,,,,,,,,,,,,,,,,,,,,,,,,,,,,,,,,,,,,,,,,,,,,,,,,,,,,,,,,,,,,,,,,,,,,,,,,,,,,,,
,,,,,,5e9efe26ffd5fe04e506d7f3,62c53a1e9c6a1df059af4ef7,2022-07-06_09h35.23.334,Colour_Asymmetry_Pilot,2022.1.3,Win32,60.72751564,62c50e9c1127f2cd403a315f,0,5,5,38,1,fourtwo,,,,,,,,,,,,,,,,,,,,,,,,,,,,,,,,,,,,,,,,,,,,,,,,,,,,,,,,,,,,,,,,,,,,,,,,,,,,,,,,,,,,,,,,,,,,,,,,,,,,,,,,,,,,,,,,,,,,,,,,,,,,,,,,,,,,,,,,,,,,,,,,,,,,,,,,,,,,,,
,,,,,,5e9efe26ffd5fe04e506d7f3,62c53a1e9c6a1df059af4ef7,2022-07-06_09h35.23.334,Colour_Asymmetry_Pilot,2022.1.3,Win32,60.72751564,62c50e9c1127f2cd403a315f,0,6,6,41,1,onethree,,,,,,,,,,,,,,,,,,,,,,,,,,,,,,,,,,,,,,,,,,,,,,,,,,,,,,,,,,,,,,,,,,,,,,,,,,,,,,,,,,,,,,,,,,,,,,,,,,,,,,,,,,,,,,,,,,,,,,,,,,,,,,,,,,,,,,,,,,,,,,,,,,,,,,,,,,,,,,
,,,,,,5e9efe26ffd5fe04e506d7f3,62c53a1e9c6a1df059af4ef7,2022-07-06_09h35.23.334,Colour_Asymmetry_Pilot,2022.1.3,Win32,60.72751564,62c50e9c1127f2cd403a315f,0,7,7,76,1,threeone,,,,,,,,,,,,,,,,,,,,,,,,,,,,,,,,,,,,,,,,,,,,,,,,,,,,,,,,,,,,,,,,,,,,,,,,,,,,,,,,,,,,,,,,,,,,,,,,,,,,,,,,,,,,,,,,,,,,,,,,,,,,,,,,,,,,,,,,,,,,,,,,,,,,,,,,,,,,,,
,,,,,,5e9efe26ffd5fe04e506d7f3,62c53a1e9c6a1df059af4ef7,2022-07-06_09h35.23.334,Colour_Asymmetry_Pilot,2022.1.3,Win32,60.72751564,62c50e9c1127f2cd403a315f,0,8,8,52,1,threeone,,,,,,,,,,,,,,,,,,,,,,,,,,,,,,,,,,,,,,,,,,,,,,,,,,,,,,,,,,,,,,,,,,,,,,,,,,,,,,,,,,,,,,,,,,,,,,,,,,,,,,,,,,,,,,,,,,,,,,,,,,,,,,,,,,,,,,,,,,,,,,,,,,,,,,,,,,,,,,
,,,,,,5e9efe26ffd5fe04e506d7f3,62c53a1e9c6a1df059af4ef7,2022-07-06_09h35.23.334,Colour_Asymmetry_Pilot,2022.1.3,Win32,60.72751564,62c50e9c1127f2cd403a315f,0,9,9,151,1,fourthree,,,,,,,,,,,,,,,,,,,,,,,,,,,,,,,,,,,,,,,,,,,,,,,,,,,,,,,,,,,,,,,,,,,,,,,,,,,,,,,,,,,,,,,,,,,,,,,,,,,,,,,,,,,,,,,,,,,,,,,,,,,,,,,,,,,,,,,,,,,,,,,,,,,,,,,,,,,,,,
,,,,,,5e9efe26ffd5fe04e506d7f3,62c53a1e9c6a1df059af4ef7,2022-07-06_09h35.23.334,Colour_Asymmetry_Pilot,2022.1.3,Win32,60.72751564,62c50e9c1127f2cd403a315f,0,10,10,117,1,threefour,,,,,,,,,,,,,,,,,,,,,,,,,,,,,,,,,,,,,,,,,,,,,,,,,,,,,,,,,,,,,,,,,,,,,,,,,,,,,,,,,,,,,,,,,,,,,,,,,,,,,,,,,,,,,,,,,,,,,,,,,,,,,,,,,,,,,,,,,,,,,,,,,,,,,,,,,,,,,,
,,,,,,5e9efe26ffd5fe04e506d7f3,62c53a1e9c6a1df059af4ef7,2022-07-06_09h35.23.334,Colour_Asymmetry_Pilot,2022.1.3,Win32,60.72751564,62c50e9c1127f2cd403a315f,0,11,11,48,1,onetwo,,,,,,,,,,,,,,,,,,,,,,,,,,,,,,,,,,,,,,,,,,,,,,,,,,,,,,,,,,,,,,,,,,,,,,,,,,,,,,,,,,,,,,,,,,,,,,,,,,,,,,,,,,,,,,,,,,,,,,,,,,,,,,,,,,,,,,,,,,,,,,,,,,,,,,,,,,,,,,
,,,,,,5e9efe26ffd5fe04e506d7f3,62c53a1e9c6a1df059af4ef7,2022-07-06_09h35.23.334,Colour_Asymmetry_Pilot,2022.1.3,Win32,60.72751564,62c50e9c1127f2cd403a315f,0,12,12,98,1,twoone,,,,,,,,,,,,,,,,,,,,,,,,,,,,,,,,,,,,,,,,,,,,,,,,,,,,,,,,,,,,,,,,,,,,,,,,,,,,,,,,,,,,,,,,,,,,,,,,,,,,,,,,,,,,,,,,,,,,,,,,,,,,,,,,,,,,,,,,,,,,,,,,,,,,,,,,,,,,,,
,,,,,,5e9efe26ffd5fe04e506d7f3,62c53a1e9c6a1df059af4ef7,2022-07-06_09h35.23.334,Colour_Asymmetry_Pilot,2022.1.3,Win32,60.72751564,62c50e9c1127f2cd403a315f,0,13,13,2,1,twoone,,,,,,,,,,,,,,,,,,,,,,,,,,,,,,,,,,,,,,,,,,,,,,,,,,,,,,,,,,,,,,,,,,,,,,,,,,,,,,,,,,,,,,,,,,,,,,,,,,,,,,,,,,,,,,,,,,,,,,,,,,,,,,,,,,,,,,,,,,,,,,,,,,,,,,,,,,,,,,
,,,,,,5e9efe26ffd5fe04e506d7f3,62c53a1e9c6a1df059af4ef7,2022-07-06_09h35.23.334,Colour_Asymmetry_Pilot,2022.1.3,Win32,60.72751564,62c50e9c1127f2cd403a315f,0,14,14,70,1,fourtwo,,,,,,,,,,,,,,,,,,,,,,,,,,,,,,,,,,,,,,,,,,,,,,,,,,,,,,,,,,,,,,,,,,,,,,,,,,,,,,,,,,,,,,,,,,,,,,,,,,,,,,,,,,,,,,,,,,,,,,,,,,,,,,,,,,,,,,,,,,,,,,,,,,,,,,,,,,,,,,
,,,,,,5e9efe26ffd5fe04e506d7f3,62c53a1e9c6a1df059af4ef7,2022-07-06_09h35.23.334,Colour_Asymmetry_Pilot,2022.1.3,Win32,60.72751564,62c50e9c1127f2cd403a315f,0,15,15,146,1,twoone,,,,,,,,,,,,,,,,,,,,,,,,,,,,,,,,,,,,,,,,,,,,,,,,,,,,,,,,,,,,,,,,,,,,,,,,,,,,,,,,,,,,,,,,,,,,,,,,,,,,,,,,,,,,,,,,,,,,,,,,,,,,,,,,,,,,,,,,,,,,,,,,,,,,,,,,,,,,,,
,,,,,,5e9efe26ffd5fe04e506d7f3,62c53a1e9c6a1df059af4ef7,2022-07-06_09h35.23.334,Colour_Asymmetry_Pilot,2022.1.3,Win32,60.72751564,62c50e9c1127f2cd403a315f,0,16,16,61,1,threefour,,,,,,,,,,,,,,,,,,,,,,,,,,,,,,,,,,,,,,,,,,,,,,,,,,,,,,,,,,,,,,,,,,,,,,,,,,,,,,,,,,,,,,,,,,,,,,,,,,,,,,,,,,,,,,,,,,,,,,,,,,,,,,,,,,,,,,,,,,,,,,,,,,,,,,,,,,,,,,
,,,,,,5e9efe26ffd5fe04e506d7f3,62c53a1e9c6a1df059af4ef7,2022-07-06_09h35.23.334,Colour_Asymmetry_Pilot,2022.1.3,Win32,60.72751564,62c50e9c1127f2cd403a315f,0,17,17,106,1,twoone,,,,,,,,,,,,,,,,,,,,,,,,,,,,,,,,,,,,,,,,,,,,,,,,,,,,,,,,,,,,,,,,,,,,,,,,,,,,,,,,,,,,,,,,,,,,,,,,,,,,,,,,,,,,,,,,,,,,,,,,,,,,,,,,,,,,,,,,,,,,,,,,,,,,,,,,,,,,,,
,,,,,,5e9efe26ffd5fe04e506d7f3,62c53a1e9c6a1df059af4ef7,2022-07-06_09h35.23.334,Colour_Asymmetry_Pilot,2022.1.3,Win32,60.72751564,62c50e9c1127f2cd403a315f,0,18,18,50,1,twoone,,,,,,,,,,,,,,,,,,,,,,,,,,,,,,,,,,,,,,,,,,,,,,,,,,,,,,,,,,,,,,,,,,,,,,,,,,,,,,,,,,,,,,,,,,,,,,,,,,,,,,,,,,,,,,,,,,,,,,,,,,,,,,,,,,,,,,,,,,,,,,,,,,,,,,,,,,,,,,
,,,,,,5e9efe26ffd5fe04e506d7f3,62c53a1e9c6a1df059af4ef7,2022-07-06_09h35.23.334,Colour_Asymmetry_Pilot,2022.1.3,Win32,60.72751564,62c50e9c1127f2cd403a315f,0,19,19,130,1,twoone,,,,,,,,,,,,,,,,,,,,,,,,,,,,,,,,,,,,,,,,,,,,,,,,,,,,,,,,,,,,,,,,,,,,,,,,,,,,,,,,,,,,,,,,,,,,,,,,,,,,,,,,,,,,,,,,,,,,,,,,,,,,,,,,,,,,,,,,,,,,,,,,,,,,,,,,,,,,,,
,,,,,,5e9efe26ffd5fe04e506d7f3,62c53a1e9c6a1df059af4ef7,2022-07-06_09h35.23.334,Colour_Asymmetry_Pilot,2022.1.3,Win32,60.72751564,62c50e9c1127f2cd403a315f,0,20,20,131,1,twofour,,,,,,,,,,,,,,,,,,,,,,,,,,,,,,,,,,,,,,,,,,,,,,,,,,,,,,,,,,,,,,,,,,,,,,,,,,,,,,,,,,,,,,,,,,,,,,,,,,,,,,,,,,,,,,,,,,,,,,,,,,,,,,,,,,,,,,,,,,,,,,,,,,,,,,,,,,,,,,
,,,,,,5e9efe26ffd5fe04e506d7f3,62c53a1e9c6a1df059af4ef7,2022-07-06_09h35.23.334,Colour_Asymmetry_Pilot,2022.1.3,Win32,60.72751564,62c50e9c1127f2cd403a315f,0,21,21,59,1,twofour,,,,,,,,,,,,,,,,,,,,,,,,,,,,,,,,,,,,,,,,,,,,,,,,,,,,,,,,,,,,,,,,,,,,,,,,,,,,,,,,,,,,,,,,,,,,,,,,,,,,,,,,,,,,,,,,,,,,,,,,,,,,,,,,,,,,,,,,,,,,,,,,,,,,,,,,,,,,,,
,,,,,,5e9efe26ffd5fe04e506d7f3,62c53a1e9c6a1df059af4ef7,2022-07-06_09h35.23.334,Colour_Asymmetry_Pilot,2022.1.3,Win32,60.72751564,62c50e9c1127f2cd403a315f,0,22,22,115,1,twofour,,,,,,,,,,,,,,,,,,,,,,,,,,,,,,,,,,,,,,,,,,,,,,,,,,,,,,,,,,,,,,,,,,,,,,,,,,,,,,,,,,,,,,,,,,,,,,,,,,,,,,,,,,,,,,,,,,,,,,,,,,,,,,,,,,,,,,,,,,,,,,,,,,,,,,,,,,,,,,
,,,,,,5e9efe26ffd5fe04e506d7f3,62c53a1e9c6a1df059af4ef7,2022-07-06_09h35.23.334,Colour_Asymmetry_Pilot,2022.1.3,Win32,60.72751564,62c50e9c1127f2cd403a315f,0,23,23,128,1,onetwo,,,,,,,,,,,,,,,,,,,,,,,,,,,,,,,,,,,,,,,,,,,,,,,,,,,,,,,,,,,,,,,,,,,,,,,,,,,,,,,,,,,,,,,,,,,,,,,,,,,,,,,,,,,,,,,,,,,,,,,,,,,,,,,,,,,,,,,,,,,,,,,,,,,,,,,,,,,,,,
,,,,,,5e9efe26ffd5fe04e506d7f3,62c53a1e9c6a1df059af4ef7,2022-07-06_09h35.23.334,Colour_Asymmetry_Pilot,2022.1.3,Win32,60.72751564,62c50e9c1127f2cd403a315f,0,24,24,30,1,fourtwo,,,,,,,,,,,,,,,,,,,,,,,,,,,,,,,,,,,,,,,,,,,,,,,,,,,,,,,,,,,,,,,,,,,,,,,,,,,,,,,,,,,,,,,,,,,,,,,,,,,,,,,,,,,,,,,,,,,,,,,,,,,,,,,,,,,,,,,,,,,,,,,,,,,,,,,,,,,,,,
,,,,,,5e9efe26ffd5fe04e506d7f3,62c53a1e9c6a1df059af4ef7,2022-07-06_09h35.23.334,Colour_Asymmetry_Pilot,2022.1.3,Win32,60.72751564,62c50e9c1127f2cd403a315f,0,25,25,81,1,onethree,,,,,,,,,,,,,,,,,,,,,,,,,,,,,,,,,,,,,,,,,,,,,,,,,,,,,,,,,,,,,,,,,,,,,,,,,,,,,,,,,,,,,,,,,,,,,,,,,,,,,,,,,,,,,,,,,,,,,,,,,,,,,,,,,,,,,,,,,,,,,,,,,,,,,,,,,,,,,,
,,,,,,5e9efe26ffd5fe04e506d7f3,62c53a1e9c6a1df059af4ef7,2022-07-06_09h35.23.334,Colour_Asymmetry_Pilot,2022.1.3,Win32,60.72751564,62c50e9c1127f2cd403a315f,0,26,26,71,1,fourthree,,,,,,,,,,,,,,,,,,,,,,,,,,,,,,,,,,,,,,,,,,,,,,,,,,,,,,,,,,,,,,,,,,,,,,,,,,,,,,,,,,,,,,,,,,,,,,,,,,,,,,,,,,,,,,,,,,,,,,,,,,,,,,,,,,,,,,,,,,,,,,,,,,,,,,,,,,,,,,
,,,,,,5e9efe26ffd5fe04e506d7f3,62c53a1e9c6a1df059af4ef7,2022-07-06_09h35.23.334,Colour_Asymmetry_Pilot,2022.1.3,Win32,60.72751564,62c50e9c1127f2cd403a315f,0,27,27,129,1,onethree,,,,,,,,,,,,,,,,,,,,,,,,,,,,,,,,,,,,,,,,,,,,,,,,,,,,,,,,,,,,,,,,,,,,,,,,,,,,,,,,,,,,,,,,,,,,,,,,,,,,,,,,,,,,,,,,,,,,,,,,,,,,,,,,,,,,,,,,,,,,,,,,,,,,,,,,,,,,,,
,,,,,,5e9efe26ffd5fe04e506d7f3,62c53a1e9c6a1df059af4ef7,2022-07-06_09h35.23.334,Colour_Asymmetry_Pilot,2022.1.3,Win32,60.72751564,62c50e9c1127f2cd403a315f,0,28,28,86,1,fourtwo,,,,,,,,,,,,,,,,,,,,,,,,,,,,,,,,,,,,,,,,,,,,,,,,,,,,,,,,,,,,,,,,,,,,,,,,,,,,,,,,,,,,,,,,,,,,,,,,,,,,,,,,,,,,,,,,,,,,,,,,,,,,,,,,,,,,,,,,,,,,,,,,,,,,,,,,,,,,,,
,,,,,,5e9efe26ffd5fe04e506d7f3,62c53a1e9c6a1df059af4ef7,2022-07-06_09h35.23.334,Colour_Asymmetry_Pilot,2022.1.3,Win32,60.72751564,62c50e9c1127f2cd403a315f,0,29,29,105,1,onethree,,,,,,,,,,,,,,,,,,,,,,,,,,,,,,,,,,,,,,,,,,,,,,,,,,,,,,,,,,,,,,,,,,,,,,,,,,,,,,,,,,,,,,,,,,,,,,,,,,,,,,,,,,,,,,,,,,,,,,,,,,,,,,,,,,,,,,,,,,,,,,,,,,,,,,,,,,,,,,
,,,,,,5e9efe26ffd5fe04e506d7f3,62c53a1e9c6a1df059af4ef7,2022-07-06_09h35.23.334,Colour_Asymmetry_Pilot,2022.1.3,Win32,60.72751564,62c50e9c1127f2cd403a315f,0,30,30,102,1,fourtwo,,,,,,,,,,,,,,,,,,,,,,,,,,,,,,,,,,,,,,,,,,,,,,,,,,,,,,,,,,,,,,,,,,,,,,,,,,,,,,,,,,,,,,,,,,,,,,,,,,,,,,,,,,,,,,,,,,,,,,,,,,,,,,,,,,,,,,,,,,,,,,,,,,,,,,,,,,,,,,
,,,,,,5e9efe26ffd5fe04e506d7f3,62c53a1e9c6a1df059af4ef7,2022-07-06_09h35.23.334,Colour_Asymmetry_Pilot,2022.1.3,Win32,60.72751564,62c50e9c1127f2cd403a315f,0,31,31,17,1,onethree,,,,,,,,,,,,,,,,,,,,,,,,,,,,,,,,,,,,,,,,,,,,,,,,,,,,,,,,,,,,,,,,,,,,,,,,,,,,,,,,,,,,,,,,,,,,,,,,,,,,,,,,,,,,,,,,,,,,,,,,,,,,,,,,,,,,,,,,,,,,,,,,,,,,,,,,,,,,,,
,,,,,,5e9efe26ffd5fe04e506d7f3,62c53a1e9c6a1df059af4ef7,2022-07-06_09h35.23.334,Colour_Asymmetry_Pilot,2022.1.3,Win32,60.72751564,62c50e9c1127f2cd403a315f,0,32,32,104,1,onetwo,,,,,,,,,,,,,,,,,,,,,,,,,,,,,,,,,,,,,,,,,,,,,,,,,,,,,,,,,,,,,,,,,,,,,,,,,,,,,,,,,,,,,,,,,,,,,,,,,,,,,,,,,,,,,,,,,,,,,,,,,,,,,,,,,,,,,,,,,,,,,,,,,,,,,,,,,,,,,,
,,,,,,5e9efe26ffd5fe04e506d7f3,62c53a1e9c6a1df059af4ef7,2022-07-06_09h35.23.334,Colour_Asymmetry_Pilot,2022.1.3,Win32,60.72751564,62c50e9c1127f2cd403a315f,0,33,33,33,1,onethree,,,,,,,,,,,,,,,,,,,,,,,,,,,,,,,,,,,,,,,,,,,,,,,,,,,,,,,,,,,,,,,,,,,,,,,,,,,,,,,,,,,,,,,,,,,,,,,,,,,,,,,,,,,,,,,,,,,,,,,,,,,,,,,,,,,,,,,,,,,,,,,,,,,,,,,,,,,,,,
,,,,,,5e9efe26ffd5fe04e506d7f3,62c53a1e9c6a1df059af4ef7,2022-07-06_09h35.23.334,Colour_Asymmetry_Pilot,2022.1.3,Win32,60.72751564,62c50e9c1127f2cd403a315f,0,34,34,44,1,threeone,,,,,,,,,,,,,,,,,,,,,,,,,,,,,,,,,,,,,,,,,,,,,,,,,,,,,,,,,,,,,,,,,,,,,,,,,,,,,,,,,,,,,,,,,,,,,,,,,,,,,,,,,,,,,,,,,,,,,,,,,,,,,,,,,,,,,,,,,,,,,,,,,,,,,,,,,,,,,,
,,,,,,5e9efe26ffd5fe04e506d7f3,62c53a1e9c6a1df059af4ef7,2022-07-06_09h35.23.334,Colour_Asymmetry_Pilot,2022.1.3,Win32,60.72751564,62c50e9c1127f2cd403a315f,0,35,35,39,1,fourthree,,,,,,,,,,,,,,,,,,,,,,,,,,,,,,,,,,,,,,,,,,,,,,,,,,,,,,,,,,,,,,,,,,,,,,,,,,,,,,,,,,,,,,,,,,,,,,,,,,,,,,,,,,,,,,,,,,,,,,,,,,,,,,,,,,,,,,,,,,,,,,,,,,,,,,,,,,,,,,
,,,,,,5e9efe26ffd5fe04e506d7f3,62c53a1e9c6a1df059af4ef7,2022-07-06_09h35.23.334,Colour_Asymmetry_Pilot,2022.1.3,Win32,60.72751564,62c50e9c1127f2cd403a315f,0,36,36,91,1,twofour,,,,,,,,,,,,,,,,,,,,,,,,,,,,,,,,,,,,,,,,,,,,,,,,,,,,,,,,,,,,,,,,,,,,,,,,,,,,,,,,,,,,,,,,,,,,,,,,,,,,,,,,,,,,,,,,,,,,,,,,,,,,,,,,,,,,,,,,,,,,,,,,,,,,,,,,,,,,,,
,,,,,,5e9efe26ffd5fe04e506d7f3,62c53a1e9c6a1df059af4ef7,2022-07-06_09h35.23.334,Colour_Asymmetry_Pilot,2022.1.3,Win32,60.72751564,62c50e9c1127f2cd403a315f,0,37,37,114,1,twoone,,,,,,,,,,,,,,,,,,,,,,,,,,,,,,,,,,,,,,,,,,,,,,,,,,,,,,,,,,,,,,,,,,,,,,,,,,,,,,,,,,,,,,,,,,,,,,,,,,,,,,,,,,,,,,,,,,,,,,,,,,,,,,,,,,,,,,,,,,,,,,,,,,,,,,,,,,,,,,
,,,,,,5e9efe26ffd5fe04e506d7f3,62c53a1e9c6a1df059af4ef7,2022-07-06_09h35.23.334,Colour_Asymmetry_Pilot,2022.1.3,Win32,60.72751564,62c50e9c1127f2cd403a315f,0,38,38,0,1,onetwo,,,,,,,,,,,,,,,,,,,,,,,,,,,,,,,,,,,,,,,,,,,,,,,,,,,,,,,,,,,,,,,,,,,,,,,,,,,,,,,,,,,,,,,,,,,,,,,,,,,,,,,,,,,,,,,,,,,,,,,,,,,,,,,,,,,,,,,,,,,,,,,,,,,,,,,,,,,,,,
,,,,,,5e9efe26ffd5fe04e506d7f3,62c53a1e9c6a1df059af4ef7,2022-07-06_09h35.23.334,Colour_Asymmetry_Pilot,2022.1.3,Win32,60.72751564,62c50e9c1127f2cd403a315f,0,39,39,155,1,twofour,,,,,,,,,,,,,,,,,,,,,,,,,,,,,,,,,,,,,,,,,,,,,,,,,,,,,,,,,,,,,,,,,,,,,,,,,,,,,,,,,,,,,,,,,,,,,,,,,,,,,,,,,,,,,,,,,,,,,,,,,,,,,,,,,,,,,,,,,,,,,,,,,,,,,,,,,,,,,,
,,,,,,5e9efe26ffd5fe04e506d7f3,62c53a1e9c6a1df059af4ef7,2022-07-06_09h35.23.334,Colour_Asymmetry_Pilot,2022.1.3,Win32,60.72751564,62c50e9c1127f2cd403a315f,0,40,40,116,1,threeone,,,,,,,,,,,,,,,,,,,,,,,,,,,,,,,,,,,,,,,,,,,,,,,,,,,,,,,,,,,,,,,,,,,,,,,,,,,,,,,,,,,,,,,,,,,,,,,,,,,,,,,,,,,,,,,,,,,,,,,,,,,,,,,,,,,,,,,,,,,,,,,,,,,,,,,,,,,,,,
,,,,,,5e9efe26ffd5fe04e506d7f3,62c53a1e9c6a1df059af4ef7,2022-07-06_09h35.23.334,Colour_Asymmetry_Pilot,2022.1.3,Win32,60.72751564,62c50e9c1127f2cd403a315f,0,41,41,148,1,threeone,,,,,,,,,,,,,,,,,,,,,,,,,,,,,,,,,,,,,,,,,,,,,,,,,,,,,,,,,,,,,,,,,,,,,,,,,,,,,,,,,,,,,,,,,,,,,,,,,,,,,,,,,,,,,,,,,,,,,,,,,,,,,,,,,,,,,,,,,,,,,,,,,,,,,,,,,,,,,,
,,,,,,5e9efe26ffd5fe04e506d7f3,62c53a1e9c6a1df059af4ef7,2022-07-06_09h35.23.334,Colour_Asymmetry_Pilot,2022.1.3,Win32,60.72751564,62c50e9c1127f2cd403a315f,0,42,42,88,1,onetwo,,,,,,,,,,,,,,,,,,,,,,,,,,,,,,,,,,,,,,,,,,,,,,,,,,,,,,,,,,,,,,,,,,,,,,,,,,,,,,,,,,,,,,,,,,,,,,,,,,,,,,,,,,,,,,,,,,,,,,,,,,,,,,,,,,,,,,,,,,,,,,,,,,,,,,,,,,,,,,
,,,,,,5e9efe26ffd5fe04e506d7f3,62c53a1e9c6a1df059af4ef7,2022-07-06_09h35.23.334,Colour_Asymmetry_Pilot,2022.1.3,Win32,60.72751564,62c50e9c1127f2cd403a315f,0,43,43,21,1,threefour,,,,,,,,,,,,,,,,,,,,,,,,,,,,,,,,,,,,,,,,,,,,,,,,,,,,,,,,,,,,,,,,,,,,,,,,,,,,,,,,,,,,,,,,,,,,,,,,,,,,,,,,,,,,,,,,,,,,,,,,,,,,,,,,,,,,,,,,,,,,,,,,,,,,,,,,,,,,,,
,,,,,,5e9efe26ffd5fe04e506d7f3,62c53a1e9c6a1df059af4ef7,2022-07-06_09h35.23.334,Colour_Asymmetry_Pilot,2022.1.3,Win32,60.72751564,62c50e9c1127f2cd403a315f,0,44,44,93,1,threefour,,,,,,,,,,,,,,,,,,,,,,,,,,,,,,,,,,,,,,,,,,,,,,,,,,,,,,,,,,,,,,,,,,,,,,,,,,,,,,,,,,,,,,,,,,,,,,,,,,,,,,,,,,,,,,,,,,,,,,,,,,,,,,,,,,,,,,,,,,,,,,,,,,,,,,,,,,,,,,
,,,,,,5e9efe26ffd5fe04e506d7f3,62c53a1e9c6a1df059af4ef7,2022-07-06_09h35.23.334,Colour_Asymmetry_Pilot,2022.1.3,Win32,60.72751564,62c50e9c1127f2cd403a315f,0,45,45,55,1,fourthree,,,,,,,,,,,,,,,,,,,,,,,,,,,,,,,,,,,,,,,,,,,,,,,,,,,,,,,,,,,,,,,,,,,,,,,,,,,,,,,,,,,,,,,,,,,,,,,,,,,,,,,,,,,,,,,,,,,,,,,,,,,,,,,,,,,,,,,,,,,,,,,,,,,,,,,,,,,,,,
,,,,,,5e9efe26ffd5fe04e506d7f3,62c53a1e9c6a1df059af4ef7,2022-07-06_09h35.23.334,Colour_Asymmetry_Pilot,2022.1.3,Win32,60.72751564,62c50e9c1127f2cd403a315f,0,46,46,9,1,onethree,,,,,,,,,,,,,,,,,,,,,,,,,,,,,,,,,,,,,,,,,,,,,,,,,,,,,,,,,,,,,,,,,,,,,,,,,,,,,,,,,,,,,,,,,,,,,,,,,,,,,,,,,,,,,,,,,,,,,,,,,,,,,,,,,,,,,,,,,,,,,,,,,,,,,,,,,,,,,,
,,,,,,5e9efe26ffd5fe04e506d7f3,62c53a1e9c6a1df059af4ef7,2022-07-06_09h35.23.334,Colour_Asymmetry_Pilot,2022.1.3,Win32,60.72751564,62c50e9c1127f2cd403a315f,0,47,47,69,1,threefour,,,,,,,,,,,,,,,,,,,,,,,,,,,,,,,,,,,,,,,,,,,,,,,,,,,,,,,,,,,,,,,,,,,,,,,,,,,,,,,,,,,,,,,,,,,,,,,,,,,,,,,,,,,,,,,,,,,,,,,,,,,,,,,,,,,,,,,,,,,,,,,,,,,,,,,,,,,,,,
,,,,,,5e9efe26ffd5fe04e506d7f3,62c53a1e9c6a1df059af4ef7,2022-07-06_09h35.23.334,Colour_Asymmetry_Pilot,2022.1.3,Win32,60.72751564,62c50e9c1127f2cd403a315f,0,48,48,57,1,onethree,,,,,,,,,,,,,,,,,,,,,,,,,,,,,,,,,,,,,,,,,,,,,,,,,,,,,,,,,,,,,,,,,,,,,,,,,,,,,,,,,,,,,,,,,,,,,,,,,,,,,,,,,,,,,,,,,,,,,,,,,,,,,,,,,,,,,,,,,,,,,,,,,,,,,,,,,,,,,,
,,,,,,5e9efe26ffd5fe04e506d7f3,62c53a1e9c6a1df059af4ef7,2022-07-06_09h35.23.334,Colour_Asymmetry_Pilot,2022.1.3,Win32,60.72751564,62c50e9c1127f2cd403a315f,0,49,49,123,1,twofour,,,,,,,,,,,,,,,,,,,,,,,,,,,,,,,,,,,,,,,,,,,,,,,,,,,,,,,,,,,,,,,,,,,,,,,,,,,,,,,,,,,,,,,,,,,,,,,,,,,,,,,,,,,,,,,,,,,,,,,,,,,,,,,,,,,,,,,,,,,,,,,,,,,,,,,,,,,,,,
,,,,,,5e9efe26ffd5fe04e506d7f3,62c53a1e9c6a1df059af4ef7,2022-07-06_09h35.23.334,Colour_Asymmetry_Pilot,2022.1.3,Win32,60.72751564,62c50e9c1127f2cd403a315f,0,50,50,12,1,threeone,,,,,,,,,,,,,,,,,,,,,,,,,,,,,,,,,,,,,,,,,,,,,,,,,,,,,,,,,,,,,,,,,,,,,,,,,,,,,,,,,,,,,,,,,,,,,,,,,,,,,,,,,,,,,,,,,,,,,,,,,,,,,,,,,,,,,,,,,,,,,,,,,,,,,,,,,,,,,,
,,,,,,5e9efe26ffd5fe04e506d7f3,62c53a1e9c6a1df059af4ef7,2022-07-06_09h35.23.334,Colour_Asymmetry_Pilot,2022.1.3,Win32,60.72751564,62c50e9c1127f2cd403a315f,0,51,51,133,1,threefour,,,,,,,,,,,,,,,,,,,,,,,,,,,,,,,,,,,,,,,,,,,,,,,,,,,,,,,,,,,,,,,,,,,,,,,,,,,,,,,,,,,,,,,,,,,,,,,,,,,,,,,,,,,,,,,,,,,,,,,,,,,,,,,,,,,,,,,,,,,,,,,,,,,,,,,,,,,,,,
,,,,,,5e9efe26ffd5fe04e506d7f3,62c53a1e9c6a1df059af4ef7,2022-07-06_09h35.23.334,Colour_Asymmetry_Pilot,2022.1.3,Win32,60.72751564,62c50e9c1127f2cd403a315f,0,52,52,99,1,twofour,,,,,,,,,,,,,,,,,,,,,,,,,,,,,,,,,,,,,,,,,,,,,,,,,,,,,,,,,,,,,,,,,,,,,,,,,,,,,,,,,,,,,,,,,,,,,,,,,,,,,,,,,,,,,,,,,,,,,,,,,,,,,,,,,,,,,,,,,,,,,,,,,,,,,,,,,,,,,,
,,,,,,5e9efe26ffd5fe04e506d7f3,62c53a1e9c6a1df059af4ef7,2022-07-06_09h35.23.334,Colour_Asymmetry_Pilot,2022.1.3,Win32,60.72751564,62c50e9c1127f2cd403a315f,0,53,53,18,1,twoone,,,,,,,,,,,,,,,,,,,,,,,,,,,,,,,,,,,,,,,,,,,,,,,,,,,,,,,,,,,,,,,,,,,,,,,,,,,,,,,,,,,,,,,,,,,,,,,,,,,,,,,,,,,,,,,,,,,,,,,,,,,,,,,,,,,,,,,,,,,,,,,,,,,,,,,,,,,,,,
,,,,,,5e9efe26ffd5fe04e506d7f3,62c53a1e9c6a1df059af4ef7,2022-07-06_09h35.23.334,Colour_Asymmetry_Pilot,2022.1.3,Win32,60.72751564,62c50e9c1127f2cd403a315f,0,54,54,34,1,twoone,,,,,,,,,,,,,,,,,,,,,,,,,,,,,,,,,,,,,,,,,,,,,,,,,,,,,,,,,,,,,,,,,,,,,,,,,,,,,,,,,,,,,,,,,,,,,,,,,,,,,,,,,,,,,,,,,,,,,,,,,,,,,,,,,,,,,,,,,,,,,,,,,,,,,,,,,,,,,,
,,,,,,5e9efe26ffd5fe04e506d7f3,62c53a1e9c6a1df059af4ef7,2022-07-06_09h35.23.334,Colour_Asymmetry_Pilot,2022.1.3,Win32,60.72751564,62c50e9c1127f2cd403a315f,0,55,55,124,1,threeone,,,,,,,,,,,,,,,,,,,,,,,,,,,,,,,,,,,,,,,,,,,,,,,,,,,,,,,,,,,,,,,,,,,,,,,,,,,,,,,,,,,,,,,,,,,,,,,,,,,,,,,,,,,,,,,,,,,,,,,,,,,,,,,,,,,,,,,,,,,,,,,,,,,,,,,,,,,,,,
,,,,,,5e9efe26ffd5fe04e506d7f3,62c53a1e9c6a1df059af4ef7,2022-07-06_09h35.23.334,Colour_Asymmetry_Pilot,2022.1.3,Win32,60.72751564,62c50e9c1127f2cd403a315f,0,56,56,109,1,threefour,,,,,,,,,,,,,,,,,,,,,,,,,,,,,,,,,,,,,,,,,,,,,,,,,,,,,,,,,,,,,,,,,,,,,,,,,,,,,,,,,,,,,,,,,,,,,,,,,,,,,,,,,,,,,,,,,,,,,,,,,,,,,,,,,,,,,,,,,,,,,,,,,,,,,,,,,,,,,,
,,,,,,5e9efe26ffd5fe04e506d7f3,62c53a1e9c6a1df059af4ef7,2022-07-06_09h35.23.334,Colour_Asymmetry_Pilot,2022.1.3,Win32,60.72751564,62c50e9c1127f2cd403a315f,0,57,57,97,1,onethree,,,,,,,,,,,,,,,,,,,,,,,,,,,,,,,,,,,,,,,,,,,,,,,,,,,,,,,,,,,,,,,,,,,,,,,,,,,,,,,,,,,,,,,,,,,,,,,,,,,,,,,,,,,,,,,,,,,,,,,,,,,,,,,,,,,,,,,,,,,,,,,,,,,,,,,,,,,,,,
,,,,,,5e9efe26ffd5fe04e506d7f3,62c53a1e9c6a1df059af4ef7,2022-07-06_09h35.23.334,Colour_Asymmetry_Pilot,2022.1.3,Win32,60.72751564,62c50e9c1127f2cd403a315f,0,58,58,10,1,twoone,,,,,,,,,,,,,,,,,,,,,,,,,,,,,,,,,,,,,,,,,,,,,,,,,,,,,,,,,,,,,,,,,,,,,,,,,,,,,,,,,,,,,,,,,,,,,,,,,,,,,,,,,,,,,,,,,,,,,,,,,,,,,,,,,,,,,,,,,,,,,,,,,,,,,,,,,,,,,,
,,,,,,5e9efe26ffd5fe04e506d7f3,62c53a1e9c6a1df059af4ef7,2022-07-06_09h35.23.334,Colour_Asymmetry_Pilot,2022.1.3,Win32,60.72751564,62c50e9c1127f2cd403a315f,0,59,59,20,1,threeone,,,,,,,,,,,,,,,,,,,,,,,,,,,,,,,,,,,,,,,,,,,,,,,,,,,,,,,,,,,,,,,,,,,,,,,,,,,,,,,,,,,,,,,,,,,,,,,,,,,,,,,,,,,,,,,,,,,,,,,,,,,,,,,,,,,,,,,,,,,,,,,,,,,,,,,,,,,,,,
,,,,,,5e9efe26ffd5fe04e506d7f3,62c53a1e9c6a1df059af4ef7,2022-07-06_09h35.23.334,Colour_Asymmetry_Pilot,2022.1.3,Win32,60.72751564,62c50e9c1127f2cd403a315f,0,60,60,138,1,twoone,,,,,,,,,,,,,,,,,,,,,,,,,,,,,,,,,,,,,,,,,,,,,,,,,,,,,,,,,,,,,,,,,,,,,,,,,,,,,,,,,,,,,,,,,,,,,,,,,,,,,,,,,,,,,,,,,,,,,,,,,,,,,,,,,,,,,,,,,,,,,,,,,,,,,,,,,,,,,,
,,,,,,5e9efe26ffd5fe04e506d7f3,62c53a1e9c6a1df059af4ef7,2022-07-06_09h35.23.334,Colour_Asymmetry_Pilot,2022.1.3,Win32,60.72751564,62c50e9c1127f2cd403a315f,0,61,61,113,1,onethree,,,,,,,,,,,,,,,,,,,,,,,,,,,,,,,,,,,,,,,,,,,,,,,,,,,,,,,,,,,,,,,,,,,,,,,,,,,,,,,,,,,,,,,,,,,,,,,,,,,,,,,,,,,,,,,,,,,,,,,,,,,,,,,,,,,,,,,,,,,,,,,,,,,,,,,,,,,,,,
,,,,,,5e9efe26ffd5fe04e506d7f3,62c53a1e9c6a1df059af4ef7,2022-07-06_09h35.23.334,Colour_Asymmetry_Pilot,2022.1.3,Win32,60.72751564,62c50e9c1127f2cd403a315f,0,62,62,143,1,fourthree,,,,,,,,,,,,,,,,,,,,,,,,,,,,,,,,,,,,,,,,,,,,,,,,,,,,,,,,,,,,,,,,,,,,,,,,,,,,,,,,,,,,,,,,,,,,,,,,,,,,,,,,,,,,,,,,,,,,,,,,,,,,,,,,,,,,,,,,,,,,,,,,,,,,,,,,,,,,,,
,,,,,,5e9efe26ffd5fe04e506d7f3,62c53a1e9c6a1df059af4ef7,2022-07-06_09h35.23.334,Colour_Asymmetry_Pilot,2022.1.3,Win32,60.72751564,62c50e9c1127f2cd403a315f,0,63,63,60,1,threeone,,,,,,,,,,,,,,,,,,,,,,,,,,,,,,,,,,,,,,,,,,,,,,,,,,,,,,,,,,,,,,,,,,,,,,,,,,,,,,,,,,,,,,,,,,,,,,,,,,,,,,,,,,,,,,,,,,,,,,,,,,,,,,,,,,,,,,,,,,,,,,,,,,,,,,,,,,,,,,
,,,,,,5e9efe26ffd5fe04e506d7f3,62c53a1e9c6a1df059af4ef7,2022-07-06_09h35.23.334,Colour_Asymmetry_Pilot,2022.1.3,Win32,60.72751564,62c50e9c1127f2cd403a315f,0,64,64,65,1,onethree,,,,,,,,,,,,,,,,,,,,,,,,,,,,,,,,,,,,,,,,,,,,,,,,,,,,,,,,,,,,,,,,,,,,,,,,,,,,,,,,,,,,,,,,,,,,,,,,,,,,,,,,,,,,,,,,,,,,,,,,,,,,,,,,,,,,,,,,,,,,,,,,,,,,,,,,,,,,,,
,,,,,,5e9efe26ffd5fe04e506d7f3,62c53a1e9c6a1df059af4ef7,2022-07-06_09h35.23.334,Colour_Asymmetry_Pilot,2022.1.3,Win32,60.72751564,62c50e9c1127f2cd403a315f,0,65,65,45,1,threefour,,,,,,,,,,,,,,,,,,,,,,,,,,,,,,,,,,,,,,,,,,,,,,,,,,,,,,,,,,,,,,,,,,,,,,,,,,,,,,,,,,,,,,,,,,,,,,,,,,,,,,,,,,,,,,,,,,,,,,,,,,,,,,,,,,,,,,,,,,,,,,,,,,,,,,,,,,,,,,
,,,,,,5e9efe26ffd5fe04e506d7f3,62c53a1e9c6a1df059af4ef7,2022-07-06_09h35.23.334,Colour_Asymmetry_Pilot,2022.1.3,Win32,60.72751564,62c50e9c1127f2cd403a315f,0,66,66,136,1,onetwo,,,,,,,,,,,,,,,,,,,,,,,,,,,,,,,,,,,,,,,,,,,,,,,,,,,,,,,,,,,,,,,,,,,,,,,,,,,,,,,,,,,,,,,,,,,,,,,,,,,,,,,,,,,,,,,,,,,,,,,,,,,,,,,,,,,,,,,,,,,,,,,,,,,,,,,,,,,,,,
,,,,,,5e9efe26ffd5fe04e506d7f3,62c53a1e9c6a1df059af4ef7,2022-07-06_09h35.23.334,Colour_Asymmetry_Pilot,2022.1.3,Win32,60.72751564,62c50e9c1127f2cd403a315f,0,67,67,3,1,twofour,,,,,,,,,,,,,,,,,,,,,,,,,,,,,,,,,,,,,,,,,,,,,,,,,,,,,,,,,,,,,,,,,,,,,,,,,,,,,,,,,,,,,,,,,,,,,,,,,,,,,,,,,,,,,,,,,,,,,,,,,,,,,,,,,,,,,,,,,,,,,,,,,,,,,,,,,,,,,,
,,,,,,5e9efe26ffd5fe04e506d7f3,62c53a1e9c6a1df059af4ef7,2022-07-06_09h35.23.334,Colour_Asymmetry_Pilot,2022.1.3,Win32,60.72751564,62c50e9c1127f2cd403a315f,0,68,68,158,1,fourtwo,,,,,,,,,,,,,,,,,,,,,,,,,,,,,,,,,,,,,,,,,,,,,,,,,,,,,,,,,,,,,,,,,,,,,,,,,,,,,,,,,,,,,,,,,,,,,,,,,,,,,,,,,,,,,,,,,,,,,,,,,,,,,,,,,,,,,,,,,,,,,,,,,,,,,,,,,,,,,,
,,,,,,5e9efe26ffd5fe04e506d7f3,62c53a1e9c6a1df059af4ef7,2022-07-06_09h35.23.334,Colour_Asymmetry_Pilot,2022.1.3,Win32,60.72751564,62c50e9c1127f2cd403a315f,0,69,69,56,1,onetwo,,,,,,,,,,,,,,,,,,,,,,,,,,,,,,,,,,,,,,,,,,,,,,,,,,,,,,,,,,,,,,,,,,,,,,,,,,,,,,,,,,,,,,,,,,,,,,,,,,,,,,,,,,,,,,,,,,,,,,,,,,,,,,,,,,,,,,,,,,,,,,,,,,,,,,,,,,,,,,
,,,,,,5e9efe26ffd5fe04e506d7f3,62c53a1e9c6a1df059af4ef7,2022-07-06_09h35.23.334,Colour_Asymmetry_Pilot,2022.1.3,Win32,60.72751564,62c50e9c1127f2cd403a315f,0,70,70,67,1,twofour,,,,,,,,,,,,,,,,,,,,,,,,,,,,,,,,,,,,,,,,,,,,,,,,,,,,,,,,,,,,,,,,,,,,,,,,,,,,,,,,,,,,,,,,,,,,,,,,,,,,,,,,,,,,,,,,,,,,,,,,,,,,,,,,,,,,,,,,,,,,,,,,,,,,,,,,,,,,,,
,,,,,,5e9efe26ffd5fe04e506d7f3,62c53a1e9c6a1df059af4ef7,2022-07-06_09h35.23.334,Colour_Asymmetry_Pilot,2022.1.3,Win32,60.72751564,62c50e9c1127f2cd403a315f,0,71,71,154,1,twoone,,,,,,,,,,,,,,,,,,,,,,,,,,,,,,,,,,,,,,,,,,,,,,,,,,,,,,,,,,,,,,,,,,,,,,,,,,,,,,,,,,,,,,,,,,,,,,,,,,,,,,,,,,,,,,,,,,,,,,,,,,,,,,,,,,,,,,,,,,,,,,,,,,,,,,,,,,,,,,
,,,,,,5e9efe26ffd5fe04e506d7f3,62c53a1e9c6a1df059af4ef7,2022-07-06_09h35.23.334,Colour_Asymmetry_Pilot,2022.1.3,Win32,60.72751564,62c50e9c1127f2cd403a315f,0,72,72,82,1,twoone,,,,,,,,,,,,,,,,,,,,,,,,,,,,,,,,,,,,,,,,,,,,,,,,,,,,,,,,,,,,,,,,,,,,,,,,,,,,,,,,,,,,,,,,,,,,,,,,,,,,,,,,,,,,,,,,,,,,,,,,,,,,,,,,,,,,,,,,,,,,,,,,,,,,,,,,,,,,,,
,,,,,,5e9efe26ffd5fe04e506d7f3,62c53a1e9c6a1df059af4ef7,2022-07-06_09h35.23.334,Colour_Asymmetry_Pilot,2022.1.3,Win32,60.72751564,62c50e9c1127f2cd403a315f,0,73,73,66,1,twoone,,,,,,,,,,,,,,,,,,,,,,,,,,,,,,,,,,,,,,,,,,,,,,,,,,,,,,,,,,,,,,,,,,,,,,,,,,,,,,,,,,,,,,,,,,,,,,,,,,,,,,,,,,,,,,,,,,,,,,,,,,,,,,,,,,,,,,,,,,,,,,,,,,,,,,,,,,,,,,
,,,,,,5e9efe26ffd5fe04e506d7f3,62c53a1e9c6a1df059af4ef7,2022-07-06_09h35.23.334,Colour_Asymmetry_Pilot,2022.1.3,Win32,60.72751564,62c50e9c1127f2cd403a315f,0,74,74,74,1,twoone,,,,,,,,,,,,,,,,,,,,,,,,,,,,,,,,,,,,,,,,,,,,,,,,,,,,,,,,,,,,,,,,,,,,,,,,,,,,,,,,,,,,,,,,,,,,,,,,,,,,,,,,,,,,,,,,,,,,,,,,,,,,,,,,,,,,,,,,,,,,,,,,,,,,,,,,,,,,,,
,,,,,,5e9efe26ffd5fe04e506d7f3,62c53a1e9c6a1df059af4ef7,2022-07-06_09h35.23.334,Colour_Asymmetry_Pilot,2022.1.3,Win32,60.72751564,62c50e9c1127f2cd403a315f,0,75,75,157,1,threefour,,,,,,,,,,,,,,,,,,,,,,,,,,,,,,,,,,,,,,,,,,,,,,,,,,,,,,,,,,,,,,,,,,,,,,,,,,,,,,,,,,,,,,,,,,,,,,,,,,,,,,,,,,,,,,,,,,,,,,,,,,,,,,,,,,,,,,,,,,,,,,,,,,,,,,,,,,,,,,
,,,,,,5e9efe26ffd5fe04e506d7f3,62c53a1e9c6a1df059af4ef7,2022-07-06_09h35.23.334,Colour_Asymmetry_Pilot,2022.1.3,Win32,60.72751564,62c50e9c1127f2cd403a315f,0,76,76,14,1,fourtwo,,,,,,,,,,,,,,,,,,,,,,,,,,,,,,,,,,,,,,,,,,,,,,,,,,,,,,,,,,,,,,,,,,,,,,,,,,,,,,,,,,,,,,,,,,,,,,,,,,,,,,,,,,,,,,,,,,,,,,,,,,,,,,,,,,,,,,,,,,,,,,,,,,,,,,,,,,,,,,
,,,,,,5e9efe26ffd5fe04e506d7f3,62c53a1e9c6a1df059af4ef7,2022-07-06_09h35.23.334,Colour_Asymmetry_Pilot,2022.1.3,Win32,60.72751564,62c50e9c1127f2cd403a315f,0,77,77,42,1,twoone,,,,,,,,,,,,,,,,,,,,,,,,,,,,,,,,,,,,,,,,,,,,,,,,,,,,,,,,,,,,,,,,,,,,,,,,,,,,,,,,,,,,,,,,,,,,,,,,,,,,,,,,,,,,,,,,,,,,,,,,,,,,,,,,,,,,,,,,,,,,,,,,,,,,,,,,,,,,,,
,,,,,,5e9efe26ffd5fe04e506d7f3,62c53a1e9c6a1df059af4ef7,2022-07-06_09h35.23.334,Colour_Asymmetry_Pilot,2022.1.3,Win32,60.72751564,62c50e9c1127f2cd403a315f,0,78,78,149,1,threefour,,,,,,,,,,,,,,,,,,,,,,,,,,,,,,,,,,,,,,,,,,,,,,,,,,,,,,,,,,,,,,,,,,,,,,,,,,,,,,,,,,,,,,,,,,,,,,,,,,,,,,,,,,,,,,,,,,,,,,,,,,,,,,,,,,,,,,,,,,,,,,,,,,,,,,,,,,,,,,
,,,,,,5e9efe26ffd5fe04e506d7f3,62c53a1e9c6a1df059af4ef7,2022-07-06_09h35.23.334,Colour_Asymmetry_Pilot,2022.1.3,Win32,60.72751564,62c50e9c1127f2cd403a315f,0,79,79,147,1,twofour,,,,,,,,,,,,,,,,,,,,,,,,,,,,,,,,,,,,,,,,,,,,,,,,,,,,,,,,,,,,,,,,,,,,,,,,,,,,,,,,,,,,,,,,,,,,,,,,,,,,,,,,,,,,,,,,,,,,,,,,,,,,,,,,,,,,,,,,,,,,,,,,,,,,,,,,,,,,,,
,,,,,,5e9efe26ffd5fe04e506d7f3,62c53a1e9c6a1df059af4ef7,2022-07-06_09h35.23.334,Colour_Asymmetry_Pilot,2022.1.3,Win32,60.72751564,62c50e9c1127f2cd403a315f,0,80,80,110,1,fourtwo,,,,,,,,,,,,,,,,,,,,,,,,,,,,,,,,,,,,,,,,,,,,,,,,,,,,,,,,,,,,,,,,,,,,,,,,,,,,,,,,,,,,,,,,,,,,,,,,,,,,,,,,,,,,,,,,,,,,,,,,,,,,,,,,,,,,,,,,,,,,,,,,,,,,,,,,,,,,,,
,,,,,,5e9efe26ffd5fe04e506d7f3,62c53a1e9c6a1df059af4ef7,2022-07-06_09h35.23.334,Colour_Asymmetry_Pilot,2022.1.3,Win32,60.72751564,62c50e9c1127f2cd403a315f,0,81,81,144,1,onetwo,,,,,,,,,,,,,,,,,,,,,,,,,,,,,,,,,,,,,,,,,,,,,,,,,,,,,,,,,,,,,,,,,,,,,,,,,,,,,,,,,,,,,,,,,,,,,,,,,,,,,,,,,,,,,,,,,,,,,,,,,,,,,,,,,,,,,,,,,,,,,,,,,,,,,,,,,,,,,,
,,,,,,5e9efe26ffd5fe04e506d7f3,62c53a1e9c6a1df059af4ef7,2022-07-06_09h35.23.334,Colour_Asymmetry_Pilot,2022.1.3,Win32,60.72751564,62c50e9c1127f2cd403a315f,0,82,82,107,1,twofour,,,,,,,,,,,,,,,,,,,,,,,,,,,,,,,,,,,,,,,,,,,,,,,,,,,,,,,,,,,,,,,,,,,,,,,,,,,,,,,,,,,,,,,,,,,,,,,,,,,,,,,,,,,,,,,,,,,,,,,,,,,,,,,,,,,,,,,,,,,,,,,,,,,,,,,,,,,,,,
,,,,,,5e9efe26ffd5fe04e506d7f3,62c53a1e9c6a1df059af4ef7,2022-07-06_09h35.23.334,Colour_Asymmetry_Pilot,2022.1.3,Win32,60.72751564,62c50e9c1127f2cd403a315f,0,83,83,126,1,fourtwo,,,,,,,,,,,,,,,,,,,,,,,,,,,,,,,,,,,,,,,,,,,,,,,,,,,,,,,,,,,,,,,,,,,,,,,,,,,,,,,,,,,,,,,,,,,,,,,,,,,,,,,,,,,,,,,,,,,,,,,,,,,,,,,,,,,,,,,,,,,,,,,,,,,,,,,,,,,,,,
,,,,,,5e9efe26ffd5fe04e506d7f3,62c53a1e9c6a1df059af4ef7,2022-07-06_09h35.23.334,Colour_Asymmetry_Pilot,2022.1.3,Win32,60.72751564,62c50e9c1127f2cd403a315f,0,84,84,27,1,twofour,,,,,,,,,,,,,,,,,,,,,,,,,,,,,,,,,,,,,,,,,,,,,,,,,,,,,,,,,,,,,,,,,,,,,,,,,,,,,,,,,,,,,,,,,,,,,,,,,,,,,,,,,,,,,,,,,,,,,,,,,,,,,,,,,,,,,,,,,,,,,,,,,,,,,,,,,,,,,,
,,,,,,5e9efe26ffd5fe04e506d7f3,62c53a1e9c6a1df059af4ef7,2022-07-06_09h35.23.334,Colour_Asymmetry_Pilot,2022.1.3,Win32,60.72751564,62c50e9c1127f2cd403a315f,0,85,85,141,1,threefour,,,,,,,,,,,,,,,,,,,,,,,,,,,,,,,,,,,,,,,,,,,,,,,,,,,,,,,,,,,,,,,,,,,,,,,,,,,,,,,,,,,,,,,,,,,,,,,,,,,,,,,,,,,,,,,,,,,,,,,,,,,,,,,,,,,,,,,,,,,,,,,,,,,,,,,,,,,,,,
,,,,,,5e9efe26ffd5fe04e506d7f3,62c53a1e9c6a1df059af4ef7,2022-07-06_09h35.23.334,Colour_Asymmetry_Pilot,2022.1.3,Win32,60.72751564,62c50e9c1127f2cd403a315f,0,86,86,1,1,onethree,,,,,,,,,,,,,,,,,,,,,,,,,,,,,,,,,,,,,,,,,,,,,,,,,,,,,,,,,,,,,,,,,,,,,,,,,,,,,,,,,,,,,,,,,,,,,,,,,,,,,,,,,,,,,,,,,,,,,,,,,,,,,,,,,,,,,,,,,,,,,,,,,,,,,,,,,,,,,,
,,,,,,5e9efe26ffd5fe04e506d7f3,62c53a1e9c6a1df059af4ef7,2022-07-06_09h35.23.334,Colour_Asymmetry_Pilot,2022.1.3,Win32,60.72751564,62c50e9c1127f2cd403a315f,0,87,87,85,1,threefour,,,,,,,,,,,,,,,,,,,,,,,,,,,,,,,,,,,,,,,,,,,,,,,,,,,,,,,,,,,,,,,,,,,,,,,,,,,,,,,,,,,,,,,,,,,,,,,,,,,,,,,,,,,,,,,,,,,,,,,,,,,,,,,,,,,,,,,,,,,,,,,,,,,,,,,,,,,,,,
,,,,,,5e9efe26ffd5fe04e506d7f3,62c53a1e9c6a1df059af4ef7,2022-07-06_09h35.23.334,Colour_Asymmetry_Pilot,2022.1.3,Win32,60.72751564,62c50e9c1127f2cd403a315f,0,88,88,16,1,onetwo,,,,,,,,,,,,,,,,,,,,,,,,,,,,,,,,,,,,,,,,,,,,,,,,,,,,,,,,,,,,,,,,,,,,,,,,,,,,,,,,,,,,,,,,,,,,,,,,,,,,,,,,,,,,,,,,,,,,,,,,,,,,,,,,,,,,,,,,,,,,,,,,,,,,,,,,,,,,,,
,,,,,,5e9efe26ffd5fe04e506d7f3,62c53a1e9c6a1df059af4ef7,2022-07-06_09h35.23.334,Colour_Asymmetry_Pilot,2022.1.3,Win32,60.72751564,62c50e9c1127f2cd403a315f,0,89,89,53,1,threefour,,,,,,,,,,,,,,,,,,,,,,,,,,,,,,,,,,,,,,,,,,,,,,,,,,,,,,,,,,,,,,,,,,,,,,,,,,,,,,,,,,,,,,,,,,,,,,,,,,,,,,,,,,,,,,,,,,,,,,,,,,,,,,,,,,,,,,,,,,,,,,,,,,,,,,,,,,,,,,
,,,,,,5e9efe26ffd5fe04e506d7f3,62c53a1e9c6a1df059af4ef7,2022-07-06_09h35.23.334,Colour_Asymmetry_Pilot,2022.1.3,Win32,60.72751564,62c50e9c1127f2cd403a315f,0,90,90,40,1,onetwo,,,,,,,,,,,,,,,,,,,,,,,,,,,,,,,,,,,,,,,,,,,,,,,,,,,,,,,,,,,,,,,,,,,,,,,,,,,,,,,,,,,,,,,,,,,,,,,,,,,,,,,,,,,,,,,,,,,,,,,,,,,,,,,,,,,,,,,,,,,,,,,,,,,,,,,,,,,,,,
,,,,,,5e9efe26ffd5fe04e506d7f3,62c53a1e9c6a1df059af4ef7,2022-07-06_09h35.23.334,Colour_Asymmetry_Pilot,2022.1.3,Win32,60.72751564,62c50e9c1127f2cd403a315f,0,91,91,139,1,twofour,,,,,,,,,,,,,,,,,,,,,,,,,,,,,,,,,,,,,,,,,,,,,,,,,,,,,,,,,,,,,,,,,,,,,,,,,,,,,,,,,,,,,,,,,,,,,,,,,,,,,,,,,,,,,,,,,,,,,,,,,,,,,,,,,,,,,,,,,,,,,,,,,,,,,,,,,,,,,,
,,,,,,5e9efe26ffd5fe04e506d7f3,62c53a1e9c6a1df059af4ef7,2022-07-06_09h35.23.334,Colour_Asymmetry_Pilot,2022.1.3,Win32,60.72751564,62c50e9c1127f2cd403a315f,0,92,92,94,1,fourtwo,,,,,,,,,,,,,,,,,,,,,,,,,,,,,,,,,,,,,,,,,,,,,,,,,,,,,,,,,,,,,,,,,,,,,,,,,,,,,,,,,,,,,,,,,,,,,,,,,,,,,,,,,,,,,,,,,,,,,,,,,,,,,,,,,,,,,,,,,,,,,,,,,,,,,,,,,,,,,,
,,,,,,5e9efe26ffd5fe04e506d7f3,62c53a1e9c6a1df059af4ef7,2022-07-06_09h35.23.334,Colour_Asymmetry_Pilot,2022.1.3,Win32,60.72751564,62c50e9c1127f2cd403a315f,0,93,93,22,1,fourtwo,,,,,,,,,,,,,,,,,,,,,,,,,,,,,,,,,,,,,,,,,,,,,,,,,,,,,,,,,,,,,,,,,,,,,,,,,,,,,,,,,,,,,,,,,,,,,,,,,,,,,,,,,,,,,,,,,,,,,,,,,,,,,,,,,,,,,,,,,,,,,,,,,,,,,,,,,,,,,,
,,,,,,5e9efe26ffd5fe04e506d7f3,62c53a1e9c6a1df059af4ef7,2022-07-06_09h35.23.334,Colour_Asymmetry_Pilot,2022.1.3,Win32,60.72751564,62c50e9c1127f2cd403a315f,0,94,94,75,1,twofour,,,,,,,,,,,,,,,,,,,,,,,,,,,,,,,,,,,,,,,,,,,,,,,,,,,,,,,,,,,,,,,,,,,,,,,,,,,,,,,,,,,,,,,,,,,,,,,,,,,,,,,,,,,,,,,,,,,,,,,,,,,,,,,,,,,,,,,,,,,,,,,,,,,,,,,,,,,,,,
,,,,,,5e9efe26ffd5fe04e506d7f3,62c53a1e9c6a1df059af4ef7,2022-07-06_09h35.23.334,Colour_Asymmetry_Pilot,2022.1.3,Win32,60.72751564,62c50e9c1127f2cd403a315f,0,95,95,134,1,fourtwo,,,,,,,,,,,,,,,,,,,,,,,,,,,,,,,,,,,,,,,,,,,,,,,,,,,,,,,,,,,,,,,,,,,,,,,,,,,,,,,,,,,,,,,,,,,,,,,,,,,,,,,,,,,,,,,,,,,,,,,,,,,,,,,,,,,,,,,,,,,,,,,,,,,,,,,,,,,,,,
,,,,,,5e9efe26ffd5fe04e506d7f3,62c53a1e9c6a1df059af4ef7,2022-07-06_09h35.23.334,Colour_Asymmetry_Pilot,2022.1.3,Win32,60.72751564,62c50e9c1127f2cd403a315f,0,96,96,5,1,threefour,,,,,,,,,,,,,,,,,,,,,,,,,,,,,,,,,,,,,,,,,,,,,,,,,,,,,,,,,,,,,,,,,,,,,,,,,,,,,,,,,,,,,,,,,,,,,,,,,,,,,,,,,,,,,,,,,,,,,,,,,,,,,,,,,,,,,,,,,,,,,,,,,,,,,,,,,,,,,,
,,,,,,5e9efe26ffd5fe04e506d7f3,62c53a1e9c6a1df059af4ef7,2022-07-06_09h35.23.334,Colour_Asymmetry_Pilot,2022.1.3,Win32,60.72751564,62c50e9c1127f2cd403a315f,0,97,97,73,1,onethree,,,,,,,,,,,,,,,,,,,,,,,,,,,,,,,,,,,,,,,,,,,,,,,,,,,,,,,,,,,,,,,,,,,,,,,,,,,,,,,,,,,,,,,,,,,,,,,,,,,,,,,,,,,,,,,,,,,,,,,,,,,,,,,,,,,,,,,,,,,,,,,,,,,,,,,,,,,,,,
,,,,,,5e9efe26ffd5fe04e506d7f3,62c53a1e9c6a1df059af4ef7,2022-07-06_09h35.23.334,Colour_Asymmetry_Pilot,2022.1.3,Win32,60.72751564,62c50e9c1127f2cd403a315f,0,98,98,79,1,fourthree,,,,,,,,,,,,,,,,,,,,,,,,,,,,,,,,,,,,,,,,,,,,,,,,,,,,,,,,,,,,,,,,,,,,,,,,,,,,,,,,,,,,,,,,,,,,,,,,,,,,,,,,,,,,,,,,,,,,,,,,,,,,,,,,,,,,,,,,,,,,,,,,,,,,,,,,,,,,,,
,,,,,,5e9efe26ffd5fe04e506d7f3,62c53a1e9c6a1df059af4ef7,2022-07-06_09h35.23.334,Colour_Asymmetry_Pilot,2022.1.3,Win32,60.72751564,62c50e9c1127f2cd403a315f,0,99,99,132,1,threeone,,,,,,,,,,,,,,,,,,,,,,,,,,,,,,,,,,,,,,,,,,,,,,,,,,,,,,,,,,,,,,,,,,,,,,,,,,,,,,,,,,,,,,,,,,,,,,,,,,,,,,,,,,,,,,,,,,,,,,,,,,,,,,,,,,,,,,,,,,,,,,,,,,,,,,,,,,,,,,
,,,,,,5e9efe26ffd5fe04e506d7f3,62c53a1e9c6a1df059af4ef7,2022-07-06_09h35.23.334,Colour_Asymmetry_Pilot,2022.1.3,Win32,60.72751564,62c50e9c1127f2cd403a315f,0,100,100,36,1,threeone,,,,,,,,,,,,,,,,,,,,,,,,,,,,,,,,,,,,,,,,,,,,,,,,,,,,,,,,,,,,,,,,,,,,,,,,,,,,,,,,,,,,,,,,,,,,,,,,,,,,,,,,,,,,,,,,,,,,,,,,,,,,,,,,,,,,,,,,,,,,,,,,,,,,,,,,,,,,,,
,,,,,,5e9efe26ffd5fe04e506d7f3,62c53a1e9c6a1df059af4ef7,2022-07-06_09h35.23.334,Colour_Asymmetry_Pilot,2022.1.3,Win32,60.72751564,62c50e9c1127f2cd403a315f,0,101,101,77,1,threefour,,,,,,,,,,,,,,,,,,,,,,,,,,,,,,,,,,,,,,,,,,,,,,,,,,,,,,,,,,,,,,,,,,,,,,,,,,,,,,,,,,,,,,,,,,,,,,,,,,,,,,,,,,,,,,,,,,,,,,,,,,,,,,,,,,,,,,,,,,,,,,,,,,,,,,,,,,,,,,
,,,,,,5e9efe26ffd5fe04e506d7f3,62c53a1e9c6a1df059af4ef7,2022-07-06_09h35.23.334,Colour_Asymmetry_Pilot,2022.1.3,Win32,60.72751564,62c50e9c1127f2cd403a315f,0,102,102,152,1,onetwo,,,,,,,,,,,,,,,,,,,,,,,,,,,,,,,,,,,,,,,,,,,,,,,,,,,,,,,,,,,,,,,,,,,,,,,,,,,,,,,,,,,,,,,,,,,,,,,,,,,,,,,,,,,,,,,,,,,,,,,,,,,,,,,,,,,,,,,,,,,,,,,,,,,,,,,,,,,,,,
,,,,,,5e9efe26ffd5fe04e506d7f3,62c53a1e9c6a1df059af4ef7,2022-07-06_09h35.23.334,Colour_Asymmetry_Pilot,2022.1.3,Win32,60.72751564,62c50e9c1127f2cd403a315f,0,103,103,142,1,fourtwo,,,,,,,,,,,,,,,,,,,,,,,,,,,,,,,,,,,,,,,,,,,,,,,,,,,,,,,,,,,,,,,,,,,,,,,,,,,,,,,,,,,,,,,,,,,,,,,,,,,,,,,,,,,,,,,,,,,,,,,,,,,,,,,,,,,,,,,,,,,,,,,,,,,,,,,,,,,,,,
,,,,,,5e9efe26ffd5fe04e506d7f3,62c53a1e9c6a1df059af4ef7,2022-07-06_09h35.23.334,Colour_Asymmetry_Pilot,2022.1.3,Win32,60.72751564,62c50e9c1127f2cd403a315f,0,104,104,159,1,fourthree,,,,,,,,,,,,,,,,,,,,,,,,,,,,,,,,,,,,,,,,,,,,,,,,,,,,,,,,,,,,,,,,,,,,,,,,,,,,,,,,,,,,,,,,,,,,,,,,,,,,,,,,,,,,,,,,,,,,,,,,,,,,,,,,,,,,,,,,,,,,,,,,,,,,,,,,,,,,,,
,,,,,,5e9efe26ffd5fe04e506d7f3,62c53a1e9c6a1df059af4ef7,2022-07-06_09h35.23.334,Colour_Asymmetry_Pilot,2022.1.3,Win32,60.72751564,62c50e9c1127f2cd403a315f,0,105,105,100,1,threeone,,,,,,,,,,,,,,,,,,,,,,,,,,,,,,,,,,,,,,,,,,,,,,,,,,,,,,,,,,,,,,,,,,,,,,,,,,,,,,,,,,,,,,,,,,,,,,,,,,,,,,,,,,,,,,,,,,,,,,,,,,,,,,,,,,,,,,,,,,,,,,,,,,,,,,,,,,,,,,
,,,,,,5e9efe26ffd5fe04e506d7f3,62c53a1e9c6a1df059af4ef7,2022-07-06_09h35.23.334,Colour_Asymmetry_Pilot,2022.1.3,Win32,60.72751564,62c50e9c1127f2cd403a315f,0,106,106,103,1,fourthree,,,,,,,,,,,,,,,,,,,,,,,,,,,,,,,,,,,,,,,,,,,,,,,,,,,,,,,,,,,,,,,,,,,,,,,,,,,,,,,,,,,,,,,,,,,,,,,,,,,,,,,,,,,,,,,,,,,,,,,,,,,,,,,,,,,,,,,,,,,,,,,,,,,,,,,,,,,,,,
,,,,,,5e9efe26ffd5fe04e506d7f3,62c53a1e9c6a1df059af4ef7,2022-07-06_09h35.23.334,Colour_Asymmetry_Pilot,2022.1.3,Win32,60.72751564,62c50e9c1127f2cd403a315f,0,107,107,127,1,fourthree,,,,,,,,,,,,,,,,,,,,,,,,,,,,,,,,,,,,,,,,,,,,,,,,,,,,,,,,,,,,,,,,,,,,,,,,,,,,,,,,,,,,,,,,,,,,,,,,,,,,,,,,,,,,,,,,,,,,,,,,,,,,,,,,,,,,,,,,,,,,,,,,,,,,,,,,,,,,,,
,,,,,,5e9efe26ffd5fe04e506d7f3,62c53a1e9c6a1df059af4ef7,2022-07-06_09h35.23.334,Colour_Asymmetry_Pilot,2022.1.3,Win32,60.72751564,62c50e9c1127f2cd403a315f,0,108,108,111,1,fourthree,,,,,,,,,,,,,,,,,,,,,,,,,,,,,,,,,,,,,,,,,,,,,,,,,,,,,,,,,,,,,,,,,,,,,,,,,,,,,,,,,,,,,,,,,,,,,,,,,,,,,,,,,,,,,,,,,,,,,,,,,,,,,,,,,,,,,,,,,,,,,,,,,,,,,,,,,,,,,,
,,,,,,5e9efe26ffd5fe04e506d7f3,62c53a1e9c6a1df059af4ef7,2022-07-06_09h35.23.334,Colour_Asymmetry_Pilot,2022.1.3,Win32,60.72751564,62c50e9c1127f2cd403a315f,0,109,109,80,1,onetwo,,,,,,,,,,,,,,,,,,,,,,,,,,,,,,,,,,,,,,,,,,,,,,,,,,,,,,,,,,,,,,,,,,,,,,,,,,,,,,,,,,,,,,,,,,,,,,,,,,,,,,,,,,,,,,,,,,,,,,,,,,,,,,,,,,,,,,,,,,,,,,,,,,,,,,,,,,,,,,
,,,,,,5e9efe26ffd5fe04e506d7f3,62c53a1e9c6a1df059af4ef7,2022-07-06_09h35.23.334,Colour_Asymmetry_Pilot,2022.1.3,Win32,60.72751564,62c50e9c1127f2cd403a315f,0,110,110,83,1,twofour,,,,,,,,,,,,,,,,,,,,,,,,,,,,,,,,,,,,,,,,,,,,,,,,,,,,,,,,,,,,,,,,,,,,,,,,,,,,,,,,,,,,,,,,,,,,,,,,,,,,,,,,,,,,,,,,,,,,,,,,,,,,,,,,,,,,,,,,,,,,,,,,,,,,,,,,,,,,,,
,,,,,,5e9efe26ffd5fe04e506d7f3,62c53a1e9c6a1df059af4ef7,2022-07-06_09h35.23.334,Colour_Asymmetry_Pilot,2022.1.3,Win32,60.72751564,62c50e9c1127f2cd403a315f,0,111,111,43,1,twofour,,,,,,,,,,,,,,,,,,,,,,,,,,,,,,,,,,,,,,,,,,,,,,,,,,,,,,,,,,,,,,,,,,,,,,,,,,,,,,,,,,,,,,,,,,,,,,,,,,,,,,,,,,,,,,,,,,,,,,,,,,,,,,,,,,,,,,,,,,,,,,,,,,,,,,,,,,,,,,
,,,,,,5e9efe26ffd5fe04e506d7f3,62c53a1e9c6a1df059af4ef7,2022-07-06_09h35.23.334,Colour_Asymmetry_Pilot,2022.1.3,Win32,60.72751564,62c50e9c1127f2cd403a315f,0,112,112,7,1,fourthree,,,,,,,,,,,,,,,,,,,,,,,,,,,,,,,,,,,,,,,,,,,,,,,,,,,,,,,,,,,,,,,,,,,,,,,,,,,,,,,,,,,,,,,,,,,,,,,,,,,,,,,,,,,,,,,,,,,,,,,,,,,,,,,,,,,,,,,,,,,,,,,,,,,,,,,,,,,,,,
,,,,,,5e9efe26ffd5fe04e506d7f3,62c53a1e9c6a1df059af4ef7,2022-07-06_09h35.23.334,Colour_Asymmetry_Pilot,2022.1.3,Win32,60.72751564,62c50e9c1127f2cd403a315f,0,113,113,90,1,twoone,,,,,,,,,,,,,,,,,,,,,,,,,,,,,,,,,,,,,,,,,,,,,,,,,,,,,,,,,,,,,,,,,,,,,,,,,,,,,,,,,,,,,,,,,,,,,,,,,,,,,,,,,,,,,,,,,,,,,,,,,,,,,,,,,,,,,,,,,,,,,,,,,,,,,,,,,,,,,,
,,,,,,5e9efe26ffd5fe04e506d7f3,62c53a1e9c6a1df059af4ef7,2022-07-06_09h35.23.334,Colour_Asymmetry_Pilot,2022.1.3,Win32,60.72751564,62c50e9c1127f2cd403a315f,0,114,114,101,1,threefour,,,,,,,,,,,,,,,,,,,,,,,,,,,,,,,,,,,,,,,,,,,,,,,,,,,,,,,,,,,,,,,,,,,,,,,,,,,,,,,,,,,,,,,,,,,,,,,,,,,,,,,,,,,,,,,,,,,,,,,,,,,,,,,,,,,,,,,,,,,,,,,,,,,,,,,,,,,,,,
,,,,,,5e9efe26ffd5fe04e506d7f3,62c53a1e9c6a1df059af4ef7,2022-07-06_09h35.23.334,Colour_Asymmetry_Pilot,2022.1.3,Win32,60.72751564,62c50e9c1127f2cd403a315f,0,115,115,26,1,twoone,,,,,,,,,,,,,,,,,,,,,,,,,,,,,,,,,,,,,,,,,,,,,,,,,,,,,,,,,,,,,,,,,,,,,,,,,,,,,,,,,,,,,,,,,,,,,,,,,,,,,,,,,,,,,,,,,,,,,,,,,,,,,,,,,,,,,,,,,,,,,,,,,,,,,,,,,,,,,,
,,,,,,5e9efe26ffd5fe04e506d7f3,62c53a1e9c6a1df059af4ef7,2022-07-06_09h35.23.334,Colour_Asymmetry_Pilot,2022.1.3,Win32,60.72751564,62c50e9c1127f2cd403a315f,0,116,116,11,1,twofour,,,,,,,,,,,,,,,,,,,,,,,,,,,,,,,,,,,,,,,,,,,,,,,,,,,,,,,,,,,,,,,,,,,,,,,,,,,,,,,,,,,,,,,,,,,,,,,,,,,,,,,,,,,,,,,,,,,,,,,,,,,,,,,,,,,,,,,,,,,,,,,,,,,,,,,,,,,,,,
,,,,,,5e9efe26ffd5fe04e506d7f3,62c53a1e9c6a1df059af4ef7,2022-07-06_09h35.23.334,Colour_Asymmetry_Pilot,2022.1.3,Win32,60.72751564,62c50e9c1127f2cd403a315f,0,117,117,13,1,threefour,,,,,,,,,,,,,,,,,,,,,,,,,,,,,,,,,,,,,,,,,,,,,,,,,,,,,,,,,,,,,,,,,,,,,,,,,,,,,,,,,,,,,,,,,,,,,,,,,,,,,,,,,,,,,,,,,,,,,,,,,,,,,,,,,,,,,,,,,,,,,,,,,,,,,,,,,,,,,,
,,,,,,5e9efe26ffd5fe04e506d7f3,62c53a1e9c6a1df059af4ef7,2022-07-06_09h35.23.334,Colour_Asymmetry_Pilot,2022.1.3,Win32,60.72751564,62c50e9c1127f2cd403a315f,0,118,118,63,1,fourthree,,,,,,,,,,,,,,,,,,,,,,,,,,,,,,,,,,,,,,,,,,,,,,,,,,,,,,,,,,,,,,,,,,,,,,,,,,,,,,,,,,,,,,,,,,,,,,,,,,,,,,,,,,,,,,,,,,,,,,,,,,,,,,,,,,,,,,,,,,,,,,,,,,,,,,,,,,,,,,
,,,,,,5e9efe26ffd5fe04e506d7f3,62c53a1e9c6a1df059af4ef7,2022-07-06_09h35.23.334,Colour_Asymmetry_Pilot,2022.1.3,Win32,60.72751564,62c50e9c1127f2cd403a315f,0,119,119,24,1,onetwo,,,,,,,,,,,,,,,,,,,,,,,,,,,,,,,,,,,,,,,,,,,,,,,,,,,,,,,,,,,,,,,,,,,,,,,,,,,,,,,,,,,,,,,,,,,,,,,,,,,,,,,,,,,,,,,,,,,,,,,,,,,,,,,,,,,,,,,,,,,,,,,,,,,,,,,,,,,,,,
,,,,,,5e9efe26ffd5fe04e506d7f3,62c53a1e9c6a1df059af4ef7,2022-07-06_09h35.23.334,Colour_Asymmetry_Pilot,2022.1.3,Win32,60.72751564,62c50e9c1127f2cd403a315f,0,120,120,8,1,onetwo,,,,,,,,,,,,,,,,,,,,,,,,,,,,,,,,,,,,,,,,,,,,,,,,,,,,,,,,,,,,,,,,,,,,,,,,,,,,,,,,,,,,,,,,,,,,,,,,,,,,,,,,,,,,,,,,,,,,,,,,,,,,,,,,,,,,,,,,,,,,,,,,,,,,,,,,,,,,,,
,,,,,,5e9efe26ffd5fe04e506d7f3,62c53a1e9c6a1df059af4ef7,2022-07-06_09h35.23.334,Colour_Asymmetry_Pilot,2022.1.3,Win32,60.72751564,62c50e9c1127f2cd403a315f,0,121,121,95,1,fourthree,,,,,,,,,,,,,,,,,,,,,,,,,,,,,,,,,,,,,,,,,,,,,,,,,,,,,,,,,,,,,,,,,,,,,,,,,,,,,,,,,,,,,,,,,,,,,,,,,,,,,,,,,,,,,,,,,,,,,,,,,,,,,,,,,,,,,,,,,,,,,,,,,,,,,,,,,,,,,,
,,,,,,5e9efe26ffd5fe04e506d7f3,62c53a1e9c6a1df059af4ef7,2022-07-06_09h35.23.334,Colour_Asymmetry_Pilot,2022.1.3,Win32,60.72751564,62c50e9c1127f2cd403a315f,0,122,122,19,1,twofour,,,,,,,,,,,,,,,,,,,,,,,,,,,,,,,,,,,,,,,,,,,,,,,,,,,,,,,,,,,,,,,,,,,,,,,,,,,,,,,,,,,,,,,,,,,,,,,,,,,,,,,,,,,,,,,,,,,,,,,,,,,,,,,,,,,,,,,,,,,,,,,,,,,,,,,,,,,,,,
,,,,,,5e9efe26ffd5fe04e506d7f3,62c53a1e9c6a1df059af4ef7,2022-07-06_09h35.23.334,Colour_Asymmetry_Pilot,2022.1.3,Win32,60.72751564,62c50e9c1127f2cd403a315f,0,123,123,47,1,fourthree,,,,,,,,,,,,,,,,,,,,,,,,,,,,,,,,,,,,,,,,,,,,,,,,,,,,,,,,,,,,,,,,,,,,,,,,,,,,,,,,,,,,,,,,,,,,,,,,,,,,,,,,,,,,,,,,,,,,,,,,,,,,,,,,,,,,,,,,,,,,,,,,,,,,,,,,,,,,,,
,,,,,,5e9efe26ffd5fe04e506d7f3,62c53a1e9c6a1df059af4ef7,2022-07-06_09h35.23.334,Colour_Asymmetry_Pilot,2022.1.3,Win32,60.72751564,62c50e9c1127f2cd403a315f,0,124,124,23,1,fourthree,,,,,,,,,,,,,,,,,,,,,,,,,,,,,,,,,,,,,,,,,,,,,,,,,,,,,,,,,,,,,,,,,,,,,,,,,,,,,,,,,,,,,,,,,,,,,,,,,,,,,,,,,,,,,,,,,,,,,,,,,,,,,,,,,,,,,,,,,,,,,,,,,,,,,,,,,,,,,,
,,,,,,5e9efe26ffd5fe04e506d7f3,62c53a1e9c6a1df059af4ef7,2022-07-06_09h35.23.334,Colour_Asymmetry_Pilot,2022.1.3,Win32,60.72751564,62c50e9c1127f2cd403a315f,0,125,125,96,1,onetwo,,,,,,,,,,,,,,,,,,,,,,,,,,,,,,,,,,,,,,,,,,,,,,,,,,,,,,,,,,,,,,,,,,,,,,,,,,,,,,,,,,,,,,,,,,,,,,,,,,,,,,,,,,,,,,,,,,,,,,,,,,,,,,,,,,,,,,,,,,,,,,,,,,,,,,,,,,,,,,
,,,,,,5e9efe26ffd5fe04e506d7f3,62c53a1e9c6a1df059af4ef7,2022-07-06_09h35.23.334,Colour_Asymmetry_Pilot,2022.1.3,Win32,60.72751564,62c50e9c1127f2cd403a315f,0,126,126,15,1,fourthree,,,,,,,,,,,,,,,,,,,,,,,,,,,,,,,,,,,,,,,,,,,,,,,,,,,,,,,,,,,,,,,,,,,,,,,,,,,,,,,,,,,,,,,,,,,,,,,,,,,,,,,,,,,,,,,,,,,,,,,,,,,,,,,,,,,,,,,,,,,,,,,,,,,,,,,,,,,,,,
,,,,,,5e9efe26ffd5fe04e506d7f3,62c53a1e9c6a1df059af4ef7,2022-07-06_09h35.23.334,Colour_Asymmetry_Pilot,2022.1.3,Win32,60.72751564,62c50e9c1127f2cd403a315f,0,127,127,153,1,onethree,,,,,,,,,,,,,,,,,,,,,,,,,,,,,,,,,,,,,,,,,,,,,,,,,,,,,,,,,,,,,,,,,,,,,,,,,,,,,,,,,,,,,,,,,,,,,,,,,,,,,,,,,,,,,,,,,,,,,,,,,,,,,,,,,,,,,,,,,,,,,,,,,,,,,,,,,,,,,,
,,,,,,5e9efe26ffd5fe04e506d7f3,62c53a1e9c6a1df059af4ef7,2022-07-06_09h35.23.334,Colour_Asymmetry_Pilot,2022.1.3,Win32,60.72751564,62c50e9c1127f2cd403a315f,0,128,128,161,1,onethree,,,,,,,,,,,,,,,,,,,,,,,,,,,,,,,,,,,,,,,,,,,,,,,,,,,,,,,,,,,,,,,,,,,,,,,,,,,,,,,,,,,,,,,,,,,,,,,,,,,,,,,,,,,,,,,,,,,,,,,,,,,,,,,,,,,,,,,,,,,,,,,,,,,,,,,,,,,,,,
,,,,,,5e9efe26ffd5fe04e506d7f3,62c53a1e9c6a1df059af4ef7,2022-07-06_09h35.23.334,Colour_Asymmetry_Pilot,2022.1.3,Win32,60.72751564,62c50e9c1127f2cd403a315f,0,129,129,68,1,threeone,,,,,,,,,,,,,,,,,,,,,,,,,,,,,,,,,,,,,,,,,,,,,,,,,,,,,,,,,,,,,,,,,,,,,,,,,,,,,,,,,,,,,,,,,,,,,,,,,,,,,,,,,,,,,,,,,,,,,,,,,,,,,,,,,,,,,,,,,,,,,,,,,,,,,,,,,,,,,,
,,,,,,5e9efe26ffd5fe04e506d7f3,62c53a1e9c6a1df059af4ef7,2022-07-06_09h35.23.334,Colour_Asymmetry_Pilot,2022.1.3,Win32,60.72751564,62c50e9c1127f2cd403a315f,0,130,130,125,1,threefour,,,,,,,,,,,,,,,,,,,,,,,,,,,,,,,,,,,,,,,,,,,,,,,,,,,,,,,,,,,,,,,,,,,,,,,,,,,,,,,,,,,,,,,,,,,,,,,,,,,,,,,,,,,,,,,,,,,,,,,,,,,,,,,,,,,,,,,,,,,,,,,,,,,,,,,,,,,,,,
,,,,,,5e9efe26ffd5fe04e506d7f3,62c53a1e9c6a1df059af4ef7,2022-07-06_09h35.23.334,Colour_Asymmetry_Pilot,2022.1.3,Win32,60.72751564,62c50e9c1127f2cd403a315f,0,131,131,78,1,fourtwo,,,,,,,,,,,,,,,,,,,,,,,,,,,,,,,,,,,,,,,,,,,,,,,,,,,,,,,,,,,,,,,,,,,,,,,,,,,,,,,,,,,,,,,,,,,,,,,,,,,,,,,,,,,,,,,,,,,,,,,,,,,,,,,,,,,,,,,,,,,,,,,,,,,,,,,,,,,,,,
,,,,,,5e9efe26ffd5fe04e506d7f3,62c53a1e9c6a1df059af4ef7,2022-07-06_09h35.23.334,Colour_Asymmetry_Pilot,2022.1.3,Win32,60.72751564,62c50e9c1127f2cd403a315f,0,132,132,92,1,threeone,,,,,,,,,,,,,,,,,,,,,,,,,,,,,,,,,,,,,,,,,,,,,,,,,,,,,,,,,,,,,,,,,,,,,,,,,,,,,,,,,,,,,,,,,,,,,,,,,,,,,,,,,,,,,,,,,,,,,,,,,,,,,,,,,,,,,,,,,,,,,,,,,,,,,,,,,,,,,,
,,,,,,5e9efe26ffd5fe04e506d7f3,62c53a1e9c6a1df059af4ef7,2022-07-06_09h35.23.334,Colour_Asymmetry_Pilot,2022.1.3,Win32,60.72751564,62c50e9c1127f2cd403a315f,0,133,133,54,1,fourtwo,,,,,,,,,,,,,,,,,,,,,,,,,,,,,,,,,,,,,,,,,,,,,,,,,,,,,,,,,,,,,,,,,,,,,,,,,,,,,,,,,,,,,,,,,,,,,,,,,,,,,,,,,,,,,,,,,,,,,,,,,,,,,,,,,,,,,,,,,,,,,,,,,,,,,,,,,,,,,,
,,,,,,5e9efe26ffd5fe04e506d7f3,62c53a1e9c6a1df059af4ef7,2022-07-06_09h35.23.334,Colour_Asymmetry_Pilot,2022.1.3,Win32,60.72751564,62c50e9c1127f2cd403a315f,0,134,134,28,1,threeone,,,,,,,,,,,,,,,,,,,,,,,,,,,,,,,,,,,,,,,,,,,,,,,,,,,,,,,,,,,,,,,,,,,,,,,,,,,,,,,,,,,,,,,,,,,,,,,,,,,,,,,,,,,,,,,,,,,,,,,,,,,,,,,,,,,,,,,,,,,,,,,,,,,,,,,,,,,,,,
,,,,,,5e9efe26ffd5fe04e506d7f3,62c53a1e9c6a1df059af4ef7,2022-07-06_09h35.23.334,Colour_Asymmetry_Pilot,2022.1.3,Win32,60.72751564,62c50e9c1127f2cd403a315f,0,135,135,25,1,onethree,,,,,,,,,,,,,,,,,,,,,,,,,,,,,,,,,,,,,,,,,,,,,,,,,,,,,,,,,,,,,,,,,,,,,,,,,,,,,,,,,,,,,,,,,,,,,,,,,,,,,,,,,,,,,,,,,,,,,,,,,,,,,,,,,,,,,,,,,,,,,,,,,,,,,,,,,,,,,,
,,,,,,5e9efe26ffd5fe04e506d7f3,62c53a1e9c6a1df059af4ef7,2022-07-06_09h35.23.334,Colour_Asymmetry_Pilot,2022.1.3,Win32,60.72751564,62c50e9c1127f2cd403a315f,0,136,136,119,1,fourthree,,,,,,,,,,,,,,,,,,,,,,,,,,,,,,,,,,,,,,,,,,,,,,,,,,,,,,,,,,,,,,,,,,,,,,,,,,,,,,,,,,,,,,,,,,,,,,,,,,,,,,,,,,,,,,,,,,,,,,,,,,,,,,,,,,,,,,,,,,,,,,,,,,,,,,,,,,,,,,
,,,,,,5e9efe26ffd5fe04e506d7f3,62c53a1e9c6a1df059af4ef7,2022-07-06_09h35.23.334,Colour_Asymmetry_Pilot,2022.1.3,Win32,60.72751564,62c50e9c1127f2cd403a315f,0,137,137,31,1,fourthree,,,,,,,,,,,,,,,,,,,,,,,,,,,,,,,,,,,,,,,,,,,,,,,,,,,,,,,,,,,,,,,,,,,,,,,,,,,,,,,,,,,,,,,,,,,,,,,,,,,,,,,,,,,,,,,,,,,,,,,,,,,,,,,,,,,,,,,,,,,,,,,,,,,,,,,,,,,,,,
,,,,,,5e9efe26ffd5fe04e506d7f3,62c53a1e9c6a1df059af4ef7,2022-07-06_09h35.23.334,Colour_Asymmetry_Pilot,2022.1.3,Win32,60.72751564,62c50e9c1127f2cd403a315f,0,138,138,6,1,fourtwo,,,,,,,,,,,,,,,,,,,,,,,,,,,,,,,,,,,,,,,,,,,,,,,,,,,,,,,,,,,,,,,,,,,,,,,,,,,,,,,,,,,,,,,,,,,,,,,,,,,,,,,,,,,,,,,,,,,,,,,,,,,,,,,,,,,,,,,,,,,,,,,,,,,,,,,,,,,,,,
,,,,,,5e9efe26ffd5fe04e506d7f3,62c53a1e9c6a1df059af4ef7,2022-07-06_09h35.23.334,Colour_Asymmetry_Pilot,2022.1.3,Win32,60.72751564,62c50e9c1127f2cd403a315f,0,139,139,72,1,onetwo,,,,,,,,,,,,,,,,,,,,,,,,,,,,,,,,,,,,,,,,,,,,,,,,,,,,,,,,,,,,,,,,,,,,,,,,,,,,,,,,,,,,,,,,,,,,,,,,,,,,,,,,,,,,,,,,,,,,,,,,,,,,,,,,,,,,,,,,,,,,,,,,,,,,,,,,,,,,,,
,,,,,,5e9efe26ffd5fe04e506d7f3,62c53a1e9c6a1df059af4ef7,2022-07-06_09h35.23.334,Colour_Asymmetry_Pilot,2022.1.3,Win32,60.72751564,62c50e9c1127f2cd403a315f,0,140,140,112,1,onetwo,,,,,,,,,,,,,,,,,,,,,,,,,,,,,,,,,,,,,,,,,,,,,,,,,,,,,,,,,,,,,,,,,,,,,,,,,,,,,,,,,,,,,,,,,,,,,,,,,,,,,,,,,,,,,,,,,,,,,,,,,,,,,,,,,,,,,,,,,,,,,,,,,,,,,,,,,,,,,,
,,,,,,5e9efe26ffd5fe04e506d7f3,62c53a1e9c6a1df059af4ef7,2022-07-06_09h35.23.334,Colour_Asymmetry_Pilot,2022.1.3,Win32,60.72751564,62c50e9c1127f2cd403a315f,0,141,141,160,1,onetwo,,,,,,,,,,,,,,,,,,,,,,,,,,,,,,,,,,,,,,,,,,,,,,,,,,,,,,,,,,,,,,,,,,,,,,,,,,,,,,,,,,,,,,,,,,,,,,,,,,,,,,,,,,,,,,,,,,,,,,,,,,,,,,,,,,,,,,,,,,,,,,,,,,,,,,,,,,,,,,
,,,,,,5e9efe26ffd5fe04e506d7f3,62c53a1e9c6a1df059af4ef7,2022-07-06_09h35.23.334,Colour_Asymmetry_Pilot,2022.1.3,Win32,60.72751564,62c50e9c1127f2cd403a315f,0,142,142,140,1,threeone,,,,,,,,,,,,,,,,,,,,,,,,,,,,,,,,,,,,,,,,,,,,,,,,,,,,,,,,,,,,,,,,,,,,,,,,,,,,,,,,,,,,,,,,,,,,,,,,,,,,,,,,,,,,,,,,,,,,,,,,,,,,,,,,,,,,,,,,,,,,,,,,,,,,,,,,,,,,,,
,,,,,,5e9efe26ffd5fe04e506d7f3,62c53a1e9c6a1df059af4ef7,2022-07-06_09h35.23.334,Colour_Asymmetry_Pilot,2022.1.3,Win32,60.72751564,62c50e9c1127f2cd403a315f,0,143,143,58,1,twoone,,,,,,,,,,,,,,,,,,,,,,,,,,,,,,,,,,,,,,,,,,,,,,,,,,,,,,,,,,,,,,,,,,,,,,,,,,,,,,,,,,,,,,,,,,,,,,,,,,,,,,,,,,,,,,,,,,,,,,,,,,,,,,,,,,,,,,,,,,,,,,,,,,,,,,,,,,,,,,
,,,,,,5e9efe26ffd5fe04e506d7f3,62c53a1e9c6a1df059af4ef7,2022-07-06_09h35.23.334,Colour_Asymmetry_Pilot,2022.1.3,Win32,60.72751564,62c50e9c1127f2cd403a315f,0,144,144,89,1,onethree,,,,,,,,,,,,,,,,,,,,,,,,,,,,,,,,,,,,,,,,,,,,,,,,,,,,,,,,,,,,,,,,,,,,,,,,,,,,,,,,,,,,,,,,,,,,,,,,,,,,,,,,,,,,,,,,,,,,,,,,,,,,,,,,,,,,,,,,,,,,,,,,,,,,,,,,,,,,,,
,,,,,,5e9efe26ffd5fe04e506d7f3,62c53a1e9c6a1df059af4ef7,2022-07-06_09h35.23.334,Colour_Asymmetry_Pilot,2022.1.3,Win32,60.72751564,62c50e9c1127f2cd403a315f,0,145,145,137,1,onethree,,,,,,,,,,,,,,,,,,,,,,,,,,,,,,,,,,,,,,,,,,,,,,,,,,,,,,,,,,,,,,,,,,,,,,,,,,,,,,,,,,,,,,,,,,,,,,,,,,,,,,,,,,,,,,,,,,,,,,,,,,,,,,,,,,,,,,,,,,,,,,,,,,,,,,,,,,,,,,
,,,,,,5e9efe26ffd5fe04e506d7f3,62c53a1e9c6a1df059af4ef7,2022-07-06_09h35.23.334,Colour_Asymmetry_Pilot,2022.1.3,Win32,60.72751564,62c50e9c1127f2cd403a315f,0,146,146,120,1,onetwo,,,,,,,,,,,,,,,,,,,,,,,,,,,,,,,,,,,,,,,,,,,,,,,,,,,,,,,,,,,,,,,,,,,,,,,,,,,,,,,,,,,,,,,,,,,,,,,,,,,,,,,,,,,,,,,,,,,,,,,,,,,,,,,,,,,,,,,,,,,,,,,,,,,,,,,,,,,,,,
,,,,,,5e9efe26ffd5fe04e506d7f3,62c53a1e9c6a1df059af4ef7,2022-07-06_09h35.23.334,Colour_Asymmetry_Pilot,2022.1.3,Win32,60.72751564,62c50e9c1127f2cd403a315f,0,147,147,145,1,onethree,,,,,,,,,,,,,,,,,,,,,,,,,,,,,,,,,,,,,,,,,,,,,,,,,,,,,,,,,,,,,,,,,,,,,,,,,,,,,,,,,,,,,,,,,,,,,,,,,,,,,,,,,,,,,,,,,,,,,,,,,,,,,,,,,,,,,,,,,,,,,,,,,,,,,,,,,,,,,,
,,,,,,5e9efe26ffd5fe04e506d7f3,62c53a1e9c6a1df059af4ef7,2022-07-06_09h35.23.334,Colour_Asymmetry_Pilot,2022.1.3,Win32,60.72751564,62c50e9c1127f2cd403a315f,0,148,148,84,1,threeone,,,,,,,,,,,,,,,,,,,,,,,,,,,,,,,,,,,,,,,,,,,,,,,,,,,,,,,,,,,,,,,,,,,,,,,,,,,,,,,,,,,,,,,,,,,,,,,,,,,,,,,,,,,,,,,,,,,,,,,,,,,,,,,,,,,,,,,,,,,,,,,,,,,,,,,,,,,,,,
,,,,,,5e9efe26ffd5fe04e506d7f3,62c53a1e9c6a1df059af4ef7,2022-07-06_09h35.23.334,Colour_Asymmetry_Pilot,2022.1.3,Win32,60.72751564,62c50e9c1127f2cd403a315f,0,149,149,46,1,fourtwo,,,,,,,,,,,,,,,,,,,,,,,,,,,,,,,,,,,,,,,,,,,,,,,,,,,,,,,,,,,,,,,,,,,,,,,,,,,,,,,,,,,,,,,,,,,,,,,,,,,,,,,,,,,,,,,,,,,,,,,,,,,,,,,,,,,,,,,,,,,,,,,,,,,,,,,,,,,,,,
,,,,,,5e9efe26ffd5fe04e506d7f3,62c53a1e9c6a1df059af4ef7,2022-07-06_09h35.23.334,Colour_Asymmetry_Pilot,2022.1.3,Win32,60.72751564,62c50e9c1127f2cd403a315f,0,150,150,35,1,twofour,,,,,,,,,,,,,,,,,,,,,,,,,,,,,,,,,,,,,,,,,,,,,,,,,,,,,,,,,,,,,,,,,,,,,,,,,,,,,,,,,,,,,,,,,,,,,,,,,,,,,,,,,,,,,,,,,,,,,,,,,,,,,,,,,,,,,,,,,,,,,,,,,,,,,,,,,,,,,,
,,,,,,5e9efe26ffd5fe04e506d7f3,62c53a1e9c6a1df059af4ef7,2022-07-06_09h35.23.334,Colour_Asymmetry_Pilot,2022.1.3,Win32,60.72751564,62c50e9c1127f2cd403a315f,0,151,151,49,1,onethree,,,,,,,,,,,,,,,,,,,,,,,,,,,,,,,,,,,,,,,,,,,,,,,,,,,,,,,,,,,,,,,,,,,,,,,,,,,,,,,,,,,,,,,,,,,,,,,,,,,,,,,,,,,,,,,,,,,,,,,,,,,,,,,,,,,,,,,,,,,,,,,,,,,,,,,,,,,,,,
,,,,,,5e9efe26ffd5fe04e506d7f3,62c53a1e9c6a1df059af4ef7,2022-07-06_09h35.23.334,Colour_Asymmetry_Pilot,2022.1.3,Win32,60.72751564,62c50e9c1127f2cd403a315f,0,152,152,64,1,onetwo,,,,,,,,,,,,,,,,,,,,,,,,,,,,,,,,,,,,,,,,,,,,,,,,,,,,,,,,,,,,,,,,,,,,,,,,,,,,,,,,,,,,,,,,,,,,,,,,,,,,,,,,,,,,,,,,,,,,,,,,,,,,,,,,,,,,,,,,,,,,,,,,,,,,,,,,,,,,,,
,,,,,,5e9efe26ffd5fe04e506d7f3,62c53a1e9c6a1df059af4ef7,2022-07-06_09h35.23.334,Colour_Asymmetry_Pilot,2022.1.3,Win32,60.72751564,62c50e9c1127f2cd403a315f,0,153,153,4,1,threeone,,,,,,,,,,,,,,,,,,,,,,,,,,,,,,,,,,,,,,,,,,,,,,,,,,,,,,,,,,,,,,,,,,,,,,,,,,,,,,,,,,,,,,,,,,,,,,,,,,,,,,,,,,,,,,,,,,,,,,,,,,,,,,,,,,,,,,,,,,,,,,,,,,,,,,,,,,,,,,
,,,,,,5e9efe26ffd5fe04e506d7f3,62c53a1e9c6a1df059af4ef7,2022-07-06_09h35.23.334,Colour_Asymmetry_Pilot,2022.1.3,Win32,60.72751564,62c50e9c1127f2cd403a315f,0,154,154,62,1,fourtwo,,,,,,,,,,,,,,,,,,,,,,,,,,,,,,,,,,,,,,,,,,,,,,,,,,,,,,,,,,,,,,,,,,,,,,,,,,,,,,,,,,,,,,,,,,,,,,,,,,,,,,,,,,,,,,,,,,,,,,,,,,,,,,,,,,,,,,,,,,,,,,,,,,,,,,,,,,,,,,
,,,,,,5e9efe26ffd5fe04e506d7f3,62c53a1e9c6a1df059af4ef7,2022-07-06_09h35.23.334,Colour_Asymmetry_Pilot,2022.1.3,Win32,60.72751564,62c50e9c1127f2cd403a315f,0,155,155,51,1,twofour,,,,,,,,,,,,,,,,,,,,,,,,,,,,,,,,,,,,,,,,,,,,,,,,,,,,,,,,,,,,,,,,,,,,,,,,,,,,,,,,,,,,,,,,,,,,,,,,,,,,,,,,,,,,,,,,,,,,,,,,,,,,,,,,,,,,,,,,,,,,,,,,,,,,,,,,,,,,,,
,,,,,,5e9efe26ffd5fe04e506d7f3,62c53a1e9c6a1df059af4ef7,2022-07-06_09h35.23.334,Colour_Asymmetry_Pilot,2022.1.3,Win32,60.72751564,62c50e9c1127f2cd403a315f,0,156,156,32,1,onetwo,,,,,,,,,,,,,,,,,,,,,,,,,,,,,,,,,,,,,,,,,,,,,,,,,,,,,,,,,,,,,,,,,,,,,,,,,,,,,,,,,,,,,,,,,,,,,,,,,,,,,,,,,,,,,,,,,,,,,,,,,,,,,,,,,,,,,,,,,,,,,,,,,,,,,,,,,,,,,,
,,,,,,5e9efe26ffd5fe04e506d7f3,62c53a1e9c6a1df059af4ef7,2022-07-06_09h35.23.334,Colour_Asymmetry_Pilot,2022.1.3,Win32,60.72751564,62c50e9c1127f2cd403a315f,0,157,157,118,1,fourtwo,,,,,,,,,,,,,,,,,,,,,,,,,,,,,,,,,,,,,,,,,,,,,,,,,,,,,,,,,,,,,,,,,,,,,,,,,,,,,,,,,,,,,,,,,,,,,,,,,,,,,,,,,,,,,,,,,,,,,,,,,,,,,,,,,,,,,,,,,,,,,,,,,,,,,,,,,,,,,,
,,,,,,5e9efe26ffd5fe04e506d7f3,62c53a1e9c6a1df059af4ef7,2022-07-06_09h35.23.334,Colour_Asymmetry_Pilot,2022.1.3,Win32,60.72751564,62c50e9c1127f2cd403a315f,0,158,158,150,1,fourtwo,,,,,,,,,,,,,,,,,,,,,,,,,,,,,,,,,,,,,,,,,,,,,,,,,,,,,,,,,,,,,,,,,,,,,,,,,,,,,,,,,,,,,,,,,,,,,,,,,,,,,,,,,,,,,,,,,,,,,,,,,,,,,,,,,,,,,,,,,,,,,,,,,,,,,,,,,,,,,,
,,,,,,5e9efe26ffd5fe04e506d7f3,62c53a1e9c6a1df059af4ef7,2022-07-06_09h35.23.334,Colour_Asymmetry_Pilot,2022.1.3,Win32,60.72751564,62c50e9c1127f2cd403a315f,0,159,159,121,1,onethree,,,,,,,,,,,,,,,,,,,,,,,,,,,,,,,,,,,,,,,,,,,,,,,,,,,,,,,,,,,,,,,,,,,,,,,,,,,,,,,,,,,,,,,,,,,,,,,,,,,,,,,,,,,,,,,,,,,,,,,,,,,,,,,,,,,,,,,,,,,,,,,,,,,,,,,,,,,,,,
,,,,,,5e9efe26ffd5fe04e506d7f3,62c53a1e9c6a1df059af4ef7,2022-07-06_09h35.23.334,Colour_Asymmetry_Pilot,2022.1.3,Win32,60.72751564,62c50e9c1127f2cd403a315f,0,160,160,87,1,fourthree,,,,,,,,,,,,,,,,,,,,,,,,,,,,,,,,,,,,,,,,,,,,,,,,,,,,,,,,,,,,,,,,,,,,,,,,,,,,,,,,,,,,,,,,,,,,,,,,,,,,,,,,,,,,,,,,,,,,,,,,,,,,,,,,,,,,,,,,,,,,,,,,,,,,,,,,,,,,,,
,,,,,,5e9efe26ffd5fe04e506d7f3,62c53a1e9c6a1df059af4ef7,2022-07-06_09h35.23.334,Colour_Asymmetry_Pilot,2022.1.3,Win32,60.72751564,62c50e9c1127f2cd403a315f,0,161,161,37,1,threefour,,,,,,,,,,,,,,,,,,,,,,,,,,,,,,,,,,,,,,,,,,,,,,,,,,,,,,,,,,,,,,,,,,,,,,,,,,,,,,,,,,,,,,,,,,,,,,,,,,,,,,,,,,,,,,,,,,,,,,,,,,,,,,,,,,,,,,,,,,,,,,,,,,,,,,,,,,,,,,
,,,,,,5e9efe26ffd5fe04e506d7f3,62c53a1e9c6a1df059af4ef7,2022-07-06_09h35.23.334,Colour_Asymmetry_Pilot,2022.1.3,Win32,60.72751564,62c50e9c1127f2cd403a315f,,,,,,,space,1.5134,space,3.7775,space,54.3997,space,10.1569,space,3.6934,space,7.9349,"[-0.10599999999999998,-0.15300000000000002,0.15280000000000005]",threefour,"[0.37240000000000006,0.4980000000000002,-0.2864]",4,1.1006,57.60003662,108,1,0,0,response1disk_5,-0.799987793,-8,1,0,0,rectangle_8,-0.799987793,-8,1,0,0,1,-0.799987793,-8,1,0,0,0,0,0,0,1,,,,,,,,,,,,,,,,,,,,,,,,,,,,,,,,,,,,,,,,,,,,,,,,,,,,,,,,,,,,,,,,,,,,,,,,,,,,,,,,,,,,,,,,,,,,,,,,,,,,,,,,,,,,,,,,,
,,,,,,5e9efe26ffd5fe04e506d7f3,62c53a1e9c6a1df059af4ef7,2022-07-06_09h35.23.334,Colour_Asymmetry_Pilot,2022.1.3,Win32,60.72751564,62c50e9c1127f2cd403a315f,,,,,,,,,,,,,,,,,,,"[-0.07459999999999989,0.12139999999999995,-0.9922]",fourtwo,"[0.9372,0.9450000000000001,0.8980000000000001]",-4,1.7486,-51.20001221,116.7999878,1,0,0,response7disk_5,-17.59997559,2.399993896,1,0,0,rectangle_8,-17.59997559,2.399993896,1,0,0,1,-17.59997559,2.399993896,1,0,0,1,0,1,0,1,,,,,,,,,,,,,,,,,,,,,,,,,,,,,,,,,,,,,,,,,,,,,,,,,,,,,,,,,,,,,,,,,,,,,,,,,,,,,,,,,,,,,,,,,,,,,,,,,,,,,,,,,,,,,,,,,
,,,,,,5e9efe26ffd5fe04e506d7f3,62c53a1e9c6a1df059af4ef7,2022-07-06_09h35.23.334,Colour_Asymmetry_Pilot,2022.1.3,Win32,60.72751564,62c50e9c1127f2cd403a315f,,,,,,,,,,,,,,,,,,,"[0.9686000000000001,0.3802000000000001,0.19999999999999996]",twofour,"[-0.48240000000000005,0.3175999999999999,0.2156]",-4,2.4645,-52,92,1,0,0,response7disk_5,-15.20001221,0,1,0,0,rectangle_8,-15.20001221,0,1,0,0,1,-15.20001221,0,1,0,0,2,0,2,0,1,,,,,,,,,,,,,,,,,,,,,,,,,,,,,,,,,,,,,,,,,,,,,,,,,,,,,,,,,,,,,,,,,,,,,,,,,,,,,,,,,,,,,,,,,,,,,,,,,,,,,,,,,,,,,,,,,
,,,,,,5e9efe26ffd5fe04e506d7f3,62c53a1e9c6a1df059af4ef7,2022-07-06_09h35.23.334,Colour_Asymmetry_Pilot,2022.1.3,Win32,60.72751564,62c50e9c1127f2cd403a315f,,,,,,,,,,,,,,,,,,,"[0.3802000000000001,0.19199999999999995,-0.6394]",threeone,"[0.9842,0.7409999999999999,-0.6628000000000001]",4,1.7992,36,80,1,0,0,response1disk_5,-6.399963379,5.600006104,1,0,0,rectangle_8,-6.399963379,5.600006104,1,0,0,1,-6.399963379,5.600006104,1,0,0,3,0,3,0,1,,,,,,,,,,,,,,,,,,,,,,,,,,,,,,,,,,,,,,,,,,,,,,,,,,,,,,,,,,,,,,,,,,,,,,,,,,,,,,,,,,,,,,,,,,,,,,,,,,,,,,,,,,,,,,,,,
,,,,,,5e9efe26ffd5fe04e506d7f3,62c53a1e9c6a1df059af4ef7,2022-07-06_09h35.23.334,Colour_Asymmetry_Pilot,2022.1.3,Win32,60.72751564,62c50e9c1127f2cd403a315f,,,,,,,,,,,,,,,,,,,"[0.6547999999999998,-0.043199999999999905,-0.011800000000000033]",fourtwo,"[0.34099999999999997,0.5841999999999998,-0.9844]",4,1.4987,40,88,1,0,0,response1disk_5,-15.20001221,4,1,0,0,rectangle_8,36.79998779,-111.2000122,1,0,0,1,-14.39996338,-1.600006104,1,0,0,4,0,4,0,1,response3disk_7,4,rectangle_4,,,,,,,,,,,,,,,,,,,,,,,,,,,,,,,,,,,,,,,,,,,,,,,,,,,,,,,,,,,,,,,,,,,,,,,,,,,,,,,,,,,,,,,,,,,,,,,,,,,,,,,,,,,,,,
,,,,,,5e9efe26ffd5fe04e506d7f3,62c53a1e9c6a1df059af4ef7,2022-07-06_09h35.23.334,Colour_Asymmetry_Pilot,2022.1.3,Win32,60.72751564,62c50e9c1127f2cd403a315f,,,,,,,,,,,,,,,,,,,"[0.34099999999999997,0.5841999999999998,-0.9844]",threefour,"[-0.10599999999999998,-0.10599999999999998,0.5841999999999998]",-4,2.1484,-47.20001221,101.6000061,1,0,0,response7disk_5,3.200012207,-2.399993896,1,0,0,rectangle_8,3.200012207,-2.399993896,1,0,0,1,3.200012207,-2.399993896,1,0,0,5,0,5,0,1,,,,,,,,,,,,,,,,,,,,,,,,,,,,,,,,,,,,,,,,,,,,,,,,,,,,,,,,,,,,,,,,,,,,,,,,,,,,,,,,,,,,,,,,,,,,,,,,,,,,,,,,,,,,,,,,,
,,,,,,5e9efe26ffd5fe04e506d7f3,62c53a1e9c6a1df059af4ef7,2022-07-06_09h35.23.334,Colour_Asymmetry_Pilot,2022.1.3,Win32,60.72751564,62c50e9c1127f2cd403a315f,,,,,,,,,,,,,,,,,,,"[0.9763999999999999,0.30979999999999985,-0.6786]",onethree,"[0.7646000000000002,0.07440000000000002,0.2704]",-4,0.8978,-44.79998779,122.3999939,1,0,0,response7disk_5,16.79998779,0.799987793,1,0,0,rectangle_8,16.79998779,0.799987793,1,0,0,1,16.79998779,0.799987793,1,0,0,6,0,6,0,1,,,,,,,,,,,,,,,,,,,,,,,,,,,,,,,,,,,,,,,,,,,,,,,,,,,,,,,,,,,,,,,,,,,,,,,,,,,,,,,,,,,,,,,,,,,,,,,,,,,,,,,,,,,,,,,,,
,,,,,,5e9efe26ffd5fe04e506d7f3,62c53a1e9c6a1df059af4ef7,2022-07-06_09h35.23.334,Colour_Asymmetry_Pilot,2022.1.3,Win32,60.72751564,62c50e9c1127f2cd403a315f,,,,,,,,,,,,,,,,,,,,twoone,,4,0.6988,,,,,,,,,,,,,,,,,,,,,,,,,,,,,,,,space,41.604,"[0.34099999999999997,0.5841999999999998,-0.9844]","[0.6625999999999999,0.4980000000000002,-0.357]",72.79998779,104.7999878,1,0,0,response1disk,-5.599975586,1.600006104,1,0,0,rectangle,-5.599975586,1.600006104,1,0,0,,3,0.0033,0,-5.599975586,1.600006104,1,0,0,0,0,0,143,1,62,second,,,,,,,,,,,,,,,,,,,,,,,,,,,,,,,,,,,,,,,,,,,,,,,,,,,,,,,,,,,,,,,,,,,,,,,,,
,,,,,,5e9efe26ffd5fe04e506d7f3,62c53a1e9c6a1df059af4ef7,2022-07-06_09h35.23.334,Colour_Asymmetry_Pilot,2022.1.3,Win32,60.72751564,62c50e9c1127f2cd403a315f,,,,,,,,,,,,,,,,,,,,threefour,,-4,0.5584,,,,,,,,,,,,,,,,,,,,,,,,,,,,,,,,,,"[0.23120000000000007,-0.7726,-0.34120000000000006]","[0.05879999999999996,0.2784,0.5841999999999998]",-73.59997559,132.7999878,1,0,0,response7disk,3.200012207,0.799987793,1,0,0,rectangle,3.200012207,0.799987793,1,0,0,,1,0.0019,0,3.200012207,0.799987793,1,0,0,0,1,1,121,1,40,second,,,,,,,,,,,,,,,,,,,,,,,,,,,,,,,,,,,,,,,,,,,,,,,,,,,,,,,,,,,,,,,,,,,,,,,,,
,,,,,,5e9efe26ffd5fe04e506d7f3,62c53a1e9c6a1df059af4ef7,2022-07-06_09h35.23.334,Colour_Asymmetry_Pilot,2022.1.3,Win32,60.72751564,62c50e9c1127f2cd403a315f,,,,,,,,,,,,,,,,,,,,fourthree,,4,0.6579,,,,,,,,,,,,,,,,,,,,,,,,,,,,,,,,,,"[-0.9296,-0.12959999999999994,-0.043199999999999905]","[-0.8118,-0.8198,-0.5452]",43.20001221,129.6000061,1,0,0,response1disk,-8.799987793,7.199981689,1,0,0,rectangle,-8.799987793,7.199981689,1,0,0,,1,0.0009,0,-8.799987793,7.199981689,1,0,0,0,2,2,3,1,3,first,,,,,,,,,,,,,,,,,,,,,,,,,,,,,,,,,,,,,,,,,,,,,,,,,,,,,,,,,,,,,,,,,,,,,,,,,
,,,,,,5e9efe26ffd5fe04e506d7f3,62c53a1e9c6a1df059af4ef7,2022-07-06_09h35.23.334,Colour_Asymmetry_Pilot,2022.1.3,Win32,60.72751564,62c50e9c1127f2cd403a315f,,,,,,,,,,,,,,,,,,,,threeone,,-4,0.6149,,,,,,,,,,,,,,,,,,,,,,,,,,,,,,,,,,"[-0.17659999999999998,0.3253999999999999,0.19999999999999996]","[1,0.12939999999999996,-1]",-59.20001221,94.3999939,1,0,0,response7disk,-3.200012207,4,1,0,0,rectangle,-3.200012207,4,1,0,0,,3,0.0022,0,-3.200012207,4,1,0,0,0,3,3,14,1,14,first,,,,,,,,,,,,,,,,,,,,,,,,,,,,,,,,,,,,,,,,,,,,,,,,,,,,,,,,,,,,,,,,,,,,,,,,,
,,,,,,5e9efe26ffd5fe04e506d7f3,62c53a1e9c6a1df059af4ef7,2022-07-06_09h35.23.334,Colour_Asymmetry_Pilot,2022.1.3,Win32,60.72751564,62c50e9c1127f2cd403a315f,,,,,,,,,,,,,,,,,,,,threeone,,-4,0.7745,,,,,,,,,,,,,,,,,,,,,,,,,,,,,,,,,,"[-0.9688,-0.7412000000000001,-0.4902000000000001]","[0.9842,0.7409999999999999,-0.6628000000000001]",-61.59997559,99.19998169,1,0,0,response7disk,1.600036621,8.799987793,1,0,0,rectangle,1.600036621,8.799987793,1,0,0,,1,0.0032,0,1.600036621,8.799987793,1,0,0,0,4,4,101,1,20,second,,,,,,,,,,,,,,,,,,,,,,,,,,,,,,,,,,,,,,,,,,,,,,,,,,,,,,,,,,,,,,,,,,,,,,,,,
,,,,,,5e9efe26ffd5fe04e506d7f3,62c53a1e9c6a1df059af4ef7,2022-07-06_09h35.23.334,Colour_Asymmetry_Pilot,2022.1.3,Win32,60.72751564,62c50e9c1127f2cd403a315f,,,,,,,,,,,,,,,,,,,,fourtwo,,-4,0.6659,,,,,,,,,,,,,,,,,,,,,,,,,,,,,,,,,,"[0.30180000000000007,-0.7884,-0.9844]","[0.9686000000000001,0.3802000000000001,0.19999999999999996]",-30.39996338,104,1,0,0,response7disk,-4.799987793,-10.3999939,1,0,0,rectangle,-4.799987793,-10.3999939,1,0,0,,3,0.0026,0,-4.799987793,-10.3999939,1,0,0,0,5,5,141,1,60,second,,,,,,,,,,,,,,,,,,,,,,,,,,,,,,,,,,,,,,,,,,,,,,,,,,,,,,,,,,,,,,,,,,,,,,,,,
,,,,,,5e9efe26ffd5fe04e506d7f3,62c53a1e9c6a1df059af4ef7,2022-07-06_09h35.23.334,Colour_Asymmetry_Pilot,2022.1.3,Win32,60.72751564,62c50e9c1127f2cd403a315f,,,,,,,,,,,,,,,,,,,,onethree,,4,0.8661,,,,,,,,,,,,,,,,,,,,,,,,,,,,,,,,,,"[-0.2942,-0.24719999999999998,-0.357]","[-0.30200000000000005,0.14500000000000002,0.2784]",50.40002441,102.3999939,1,0,0,response1disk,-4,4.799987793,1,0,0,rectangle,-4,4.799987793,1,0,0,,1,0.0022,0,-4,4.799987793,1,0,0,0,6,6,144,1,63,second,,,,,,,,,,,,,,,,,,,,,,,,,,,,,,,,,,,,,,,,,,,,,,,,,,,,,,,,,,,,,,,,,,,,,,,,,
,,,,,,5e9efe26ffd5fe04e506d7f3,62c53a1e9c6a1df059af4ef7,2022-07-06_09h35.23.334,Colour_Asymmetry_Pilot,2022.1.3,Win32,60.72751564,62c50e9c1127f2cd403a315f,,,,,,,,,,,,,,,,,,,,threeone,,-4,1.2409,,,,,,,,,,,,,,,,,,,,,,,,,,,,,,,,,,"[-0.38039999999999996,-0.4276,-0.1452]","[-0.4902000000000001,0.2704,-0.45899999999999996]",-45.59997559,110.3999939,1,0,0,response7disk,-0.799987793,4,1,0,0,rectangle,-0.799987793,4,1,0,0,,2,0.0025,0,-0.799987793,4,1,0,0,0,7,7,45,1,45,first,,,,,,,,,,,,,,,,,,,,,,,,,,,,,,,,,,,,,,,,,,,,,,,,,,,,,,,,,,,,,,,,,,,,,,,,,
,,,,,,5e9efe26ffd5fe04e506d7f3,62c53a1e9c6a1df059af4ef7,2022-07-06_09h35.23.334,Colour_Asymmetry_Pilot,2022.1.3,Win32,60.72751564,62c50e9c1127f2cd403a315f,,,,,,,,,,,,,,,,,,,,threeone,,4,1.457,,,,,,,,,,,,,,,,,,,,,,,,,,,,,,,,,,"[0.9372,0.9450000000000001,0.8980000000000001]","[0.7018,0.7176,0.6155999999999999]",51.20001221,94.3999939,1,0,0,response1disk,-5.599975586,-1.600006104,1,0,0,rectangle,-5.599975586,-1.600006104,1,0,0,,2,0.0003,0,-5.599975586,-1.600006104,1,0,0,0,8,8,93,1,12,second,,,,,,,,,,,,,,,,,,,,,,,,,,,,,,,,,,,,,,,,,,,,,,,,,,,,,,,,,,,,,,,,,,,,,,,,,
,,,,,,5e9efe26ffd5fe04e506d7f3,62c53a1e9c6a1df059af4ef7,2022-07-06_09h35.23.334,Colour_Asymmetry_Pilot,2022.1.3,Win32,60.72751564,62c50e9c1127f2cd403a315f,,,,,,,,,,,,,,,,,,,,fourthree,,-4,1.2492,,,,,,,,,,,,,,,,,,,,,,,,,,,,,,,,,,"[-0.8982,-0.37259999999999993,0.2784]","[0.18419999999999992,-0.4276,-0.404]",-54.39996338,113.6000061,1,0,0,response7disk,18.40002441,4,1,0,0,rectangle,18.40002441,4,1,0,0,,1,0.0032,0,18.40002441,4,1,0,0,0,9,9,157,1,76,second,,,,,,,,,,,,,,,,,,,,,,,,,,,,,,,,,,,,,,,,,,,,,,,,,,,,,,,,,,,,,,,,,,,,,,,,,
,,,,,,5e9efe26ffd5fe04e506d7f3,62c53a1e9c6a1df059af4ef7,2022-07-06_09h35.23.334,Colour_Asymmetry_Pilot,2022.1.3,Win32,60.72751564,62c50e9c1127f2cd403a315f,,,,,,,,,,,,,,,,,,,,threefour,,-4,1.1157,,,,,,,,,,,,,,,,,,,,,,,,,,,,,,,,,,"[0.7018,0.7176,0.6155999999999999]","[-0.06680000000000008,-0.45100000000000007,-0.906]",-52,106.3999939,1,0,0,response7disk,-12,8,1,0,0,rectangle,-12,8,1,0,0,,1,0.0004,0,-12,8,1,0,0,0,10,10,56,1,56,first,,,,,,,,,,,,,,,,,,,,,,,,,,,,,,,,,,,,,,,,,,,,,,,,,,,,,,,,,,,,,,,,,,,,,,,,,
,,,,,,5e9efe26ffd5fe04e506d7f3,62c53a1e9c6a1df059af4ef7,2022-07-06_09h35.23.334,Colour_Asymmetry_Pilot,2022.1.3,Win32,60.72751564,62c50e9c1127f2cd403a315f,,,,,,,,,,,,,,,,,,,,onetwo,,-4,0.666,,,,,,,,,,,,,,,,,,,,,,,,,,,,,,,,,,"[0.18419999999999992,-0.4276,-0.404]","[-0.8982,-0.37259999999999993,0.2784]",-57.59997559,115.1999817,1,0,0,response7disk,13.60003662,-3.200012207,1,0,0,rectangle,94.40002441,52.79998779,1,0,0,3,3,4.2107,1,-9.599975586,-3.200012207,1,0,0,0,11,11,76,1,76,first,response1disk_3,rectangle,,,,,,,,,,,,,,,,,,,,,,,,,,,,,,,,,,,,,,,,,,,,,,,,,,,,,,,,,,,,,,,,,,,,,,,
,,,,,,5e9efe26ffd5fe04e506d7f3,62c53a1e9c6a1df059af4ef7,2022-07-06_09h35.23.334,Colour_Asymmetry_Pilot,2022.1.3,Win32,60.72751564,62c50e9c1127f2cd403a315f,,,,,,,,,,,,,,,,,,,,twoone,,4,1.0814,,,,,,,,,,,,,,,,,,,,,,,,,,,,,,,,,,"[0.796,0.2156,-0.27859999999999996]","[0.9213999999999998,0.6391999999999998,-0.9922]",37.60003662,96,1,0,0,response1disk,-3.200012207,3.199981689,1,0,0,rectangle,-3.200012207,3.199981689,1,0,0,3,1,0.0029,0,-3.200012207,3.199981689,1,0,0,0,12,12,77,1,77,first,,,,,,,,,,,,,,,,,,,,,,,,,,,,,,,,,,,,,,,,,,,,,,,,,,,,,,,,,,,,,,,,,,,,,,,,,
,,,,,,5e9efe26ffd5fe04e506d7f3,62c53a1e9c6a1df059af4ef7,2022-07-06_09h35.23.334,Colour_Asymmetry_Pilot,2022.1.3,Win32,60.72751564,62c50e9c1127f2cd403a315f,,,,,,,,,,,,,,,,,,,,twoone,,4,1.2577,,,,,,,,,,,,,,,,,,,,,,,,,,,,,,,,,,"[-0.4902000000000001,0.2704,-0.45899999999999996]","[-0.07459999999999989,0.12139999999999995,-0.9922]",49.60003662,108.7999878,1,0,0,response1disk,-12,-6.399993896,1,0,0,rectangle,-12,-6.399993896,1,0,0,3,2,0.0027,0,-12,-6.399993896,1,0,0,0,13,13,142,1,61,second,,,,,,,,,,,,,,,,,,,,,,,,,,,,,,,,,,,,,,,,,,,,,,,,,,,,,,,,,,,,,,,,,,,,,,,,,
,,,,,,5e9efe26ffd5fe04e506d7f3,62c53a1e9c6a1df059af4ef7,2022-07-06_09h35.23.334,Colour_Asymmetry_Pilot,2022.1.3,Win32,60.72751564,62c50e9c1127f2cd403a315f,,,,,,,,,,,,,,,,,,,,fourtwo,,-4,0.5409,,,,,,,,,,,,,,,,,,,,,,,,,,,,,,,,,,"[0.4196,0.4665999999999999,0.3568]","[0.9842,0.7409999999999999,-0.6628000000000001]",-36.79998779,108.7999878,1,0,0,response7disk,-4.799987793,-0.800018311,1,0,0,rectangle,91.20001221,-49.6000061,1,0,0,2,2,2.9649,1,24,11.19998169,1,0,0,0,14,14,104,1,23,second,response3disk_3,rectangle,,,,,,,,,,,,,,,,,,,,,,,,,,,,,,,,,,,,,,,,,,,,,,,,,,,,,,,,,,,,,,,,,,,,,,,
