trials.thisRepN,trials.thisTrialN,trials.thisN,trials.thisIndex,trials.ran,Colourcodes,participant,session,date,expName,psychopyVersion,OS,frameRate,study_id,trials_4.thisRepN,trials_4.thisTrialN,trials_4.thisN,trials_4.thisIndex,trials_4.ran,StimulusPos,key_resp.keys,key_resp.rt,key_resp_2.keys,key_resp_2.rt,key_resp_15.keys,key_resp_15.rt,key_resp_17.keys,key_resp_17.rt,key_resp_9.keys,key_resp_9.rt,key_resp_10.keys,key_resp_10.rt,Circle1_col,Ecc,Circle2_col,similarity,response_time,mouse_5.x,mouse_5.y,mouse_5.leftButton,mouse_5.midButton,mouse_5.rightButton,mouse_5.clicked_name,mouse_10.x,mouse_10.y,mouse_10.leftButton,mouse_10.midButton,mouse_10.rightButton,mouse_10.clicked_name,mouse_7.x,mouse_7.y,mouse_7.leftButton,mouse_7.midButton,mouse_7.rightButton,catchnumberprac,mouse_6.x,mouse_6.y,mouse_6.leftButton,mouse_6.midButton,mouse_6.rightButton,duringprac.thisRepN,duringprac.thisTrialN,duringprac.thisN,duringprac.thisIndex,duringprac.ran,mouse_7.clicked_name,catchprac,mouse_6.clicked_name,key_resp_22.keys,key_resp_22.rt,Circle1_colour,Circle2_colour,mouse.x,mouse.y,mouse.leftButton,mouse.midButton,mouse.rightButton,mouse.clicked_name,mouse_2.x,mouse_2.y,mouse_2.leftButton,mouse_2.midButton,mouse_2.rightButton,mouse_2.clicked_name,mouse_3.x,mouse_3.y,mouse_3.leftButton,mouse_3.midButton,mouse_3.rightButton,catchresponse,catchnumber,response_time_catch,Catch,mouse_11.x,mouse_11.y,mouse_11.leftButton,mouse_11.midButton,mouse_11.rightButton,trials_2.thisRepN,trials_2.thisTrialN,trials_2.thisN,trials_2.thisIndex,trials_2.ran,Colourpair,Temporder,mouse_3.clicked_name,mouse_11.clicked_name,trials_3.thisRepN,trials_3.thisTrialN,trials_3.thisN,trials_3.thisIndex,trials_3.ran,key_resp_instr_Ishi.keys,key_resp_instr_Ishi.rt,Ishi_trial_keyresp.keys,Ishi_textbox.text,Ishi_mouse.x,Ishi_mouse.y,Ishi_mouse.leftButton,Ishi_mouse.midButton,Ishi_mouse.rightButton,Ishi_mouse.clicked_name,Ishi_loop.thisRepN,Ishi_loop.thisTrialN,Ishi_loop.thisN,Ishi_loop.thisIndex,Ishi_loop.ran,imageaddress,textbox.text,mouse_4.x,mouse_4.y,mouse_4.leftButton,mouse_4.midButton,mouse_4.rightButton,mouse_4.clicked_name,textbox_2.text,mouse_8.x,mouse_8.y,mouse_8.leftButton,mouse_8.midButton,mouse_8.rightButton,mouse_8.clicked_name,textbox_3.text,mouse_9.x,mouse_9.y,mouse_9.leftButton,mouse_9.midButton,mouse_9.rightButton,mouse_9.clicked_name,textbox_4.text,mouse_12.x,mouse_12.y,mouse_12.leftButton,mouse_12.midButton,mouse_12.rightButton,mouse_12.clicked_name,textbox_5.text,mouse_13.x,mouse_13.y,mouse_13.leftButton,mouse_13.midButton,mouse_13.rightButton,mouse_13.clicked_name,textbox_6.text,mouse_14.x,mouse_14.y,mouse_14.leftButton,mouse_14.midButton,mouse_14.rightButton,textbox_7.text,mouse_15.x,mouse_15.y,mouse_15.leftButton,mouse_15.midButton,mouse_15.rightButton,mouse_15.clicked_name
0,0,0,27,1,,6093e92dd23145f26f9bf2e6,62c53a81e76ea1e86072de72,2022-07-06_10h32.34.472,Colour_Asymmetry_Pilot,2022.1.3,Win32,59.60185958,62c50e9c1127f2cd403a315f,,,,,,,,,,,,,,,,,,,,,,,,,,,,,,,,,,,,,,,,,,,,,,,,,,,,,,,,,,,,,,,,,,,,,,,,,,,,,,,,,,,,,,,,,,,,,,,,,,,,,,,,,,,,,,,,,,,,,,,,,,,,,,,,,,,,,,,,,,,,,,,,,,,,,,,,,,,,,,,,,,
0,1,1,39,1,,6093e92dd23145f26f9bf2e6,62c53a81e76ea1e86072de72,2022-07-06_10h32.34.472,Colour_Asymmetry_Pilot,2022.1.3,Win32,59.60185958,62c50e9c1127f2cd403a315f,,,,,,,,,,,,,,,,,,,,,,,,,,,,,,,,,,,,,,,,,,,,,,,,,,,,,,,,,,,,,,,,,,,,,,,,,,,,,,,,,,,,,,,,,,,,,,,,,,,,,,,,,,,,,,,,,,,,,,,,,,,,,,,,,,,,,,,,,,,,,,,,,,,,,,,,,,,,,,,,,,
0,2,2,54,1,,6093e92dd23145f26f9bf2e6,62c53a81e76ea1e86072de72,2022-07-06_10h32.34.472,Colour_Asymmetry_Pilot,2022.1.3,Win32,59.60185958,62c50e9c1127f2cd403a315f,,,,,,,,,,,,,,,,,,,,,,,,,,,,,,,,,,,,,,,,,,,,,,,,,,,,,,,,,,,,,,,,,,,,,,,,,,,,,,,,,,,,,,,,,,,,,,,,,,,,,,,,,,,,,,,,,,,,,,,,,,,,,,,,,,,,,,,,,,,,,,,,,,,,,,,,,,,,,,,,,,
0,3,3,7,1,,6093e92dd23145f26f9bf2e6,62c53a81e76ea1e86072de72,2022-07-06_10h32.34.472,Colour_Asymmetry_Pilot,2022.1.3,Win32,59.60185958,62c50e9c1127f2cd403a315f,,,,,,,,,,,,,,,,,,,,,,,,,,,,,,,,,,,,,,,,,,,,,,,,,,,,,,,,,,,,,,,,,,,,,,,,,,,,,,,,,,,,,,,,,,,,,,,,,,,,,,,,,,,,,,,,,,,,,,,,,,,,,,,,,,,,,,,,,,,,,,,,,,,,,,,,,,,,,,,,,,
0,4,4,68,1,,6093e92dd23145f26f9bf2e6,62c53a81e76ea1e86072de72,2022-07-06_10h32.34.472,Colour_Asymmetry_Pilot,2022.1.3,Win32,59.60185958,62c50e9c1127f2cd403a315f,,,,,,,,,,,,,,,,,,,,,,,,,,,,,,,,,,,,,,,,,,,,,,,,,,,,,,,,,,,,,,,,,,,,,,,,,,,,,,,,,,,,,,,,,,,,,,,,,,,,,,,,,,,,,,,,,,,,,,,,,,,,,,,,,,,,,,,,,,,,,,,,,,,,,,,,,,,,,,,,,,
0,5,5,0,1,,6093e92dd23145f26f9bf2e6,62c53a81e76ea1e86072de72,2022-07-06_10h32.34.472,Colour_Asymmetry_Pilot,2022.1.3,Win32,59.60185958,62c50e9c1127f2cd403a315f,,,,,,,,,,,,,,,,,,,,,,,,,,,,,,,,,,,,,,,,,,,,,,,,,,,,,,,,,,,,,,,,,,,,,,,,,,,,,,,,,,,,,,,,,,,,,,,,,,,,,,,,,,,,,,,,,,,,,,,,,,,,,,,,,,,,,,,,,,,,,,,,,,,,,,,,,,,,,,,,,,
0,6,6,43,1,,6093e92dd23145f26f9bf2e6,62c53a81e76ea1e86072de72,2022-07-06_10h32.34.472,Colour_Asymmetry_Pilot,2022.1.3,Win32,59.60185958,62c50e9c1127f2cd403a315f,,,,,,,,,,,,,,,,,,,,,,,,,,,,,,,,,,,,,,,,,,,,,,,,,,,,,,,,,,,,,,,,,,,,,,,,,,,,,,,,,,,,,,,,,,,,,,,,,,,,,,,,,,,,,,,,,,,,,,,,,,,,,,,,,,,,,,,,,,,,,,,,,,,,,,,,,,,,,,,,,,
0,7,7,45,1,,6093e92dd23145f26f9bf2e6,62c53a81e76ea1e86072de72,2022-07-06_10h32.34.472,Colour_Asymmetry_Pilot,2022.1.3,Win32,59.60185958,62c50e9c1127f2cd403a315f,,,,,,,,,,,,,,,,,,,,,,,,,,,,,,,,,,,,,,,,,,,,,,,,,,,,,,,,,,,,,,,,,,,,,,,,,,,,,,,,,,,,,,,,,,,,,,,,,,,,,,,,,,,,,,,,,,,,,,,,,,,,,,,,,,,,,,,,,,,,,,,,,,,,,,,,,,,,,,,,,,
0,8,8,62,1,,6093e92dd23145f26f9bf2e6,62c53a81e76ea1e86072de72,2022-07-06_10h32.34.472,Colour_Asymmetry_Pilot,2022.1.3,Win32,59.60185958,62c50e9c1127f2cd403a315f,,,,,,,,,,,,,,,,,,,,,,,,,,,,,,,,,,,,,,,,,,,,,,,,,,,,,,,,,,,,,,,,,,,,,,,,,,,,,,,,,,,,,,,,,,,,,,,,,,,,,,,,,,,,,,,,,,,,,,,,,,,,,,,,,,,,,,,,,,,,,,,,,,,,,,,,,,,,,,,,,,
0,9,9,30,1,,6093e92dd23145f26f9bf2e6,62c53a81e76ea1e86072de72,2022-07-06_10h32.34.472,Colour_Asymmetry_Pilot,2022.1.3,Win32,59.60185958,62c50e9c1127f2cd403a315f,,,,,,,,,,,,,,,,,,,,,,,,,,,,,,,,,,,,,,,,,,,,,,,,,,,,,,,,,,,,,,,,,,,,,,,,,,,,,,,,,,,,,,,,,,,,,,,,,,,,,,,,,,,,,,,,,,,,,,,,,,,,,,,,,,,,,,,,,,,,,,,,,,,,,,,,,,,,,,,,,,
0,10,10,83,1,,6093e92dd23145f26f9bf2e6,62c53a81e76ea1e86072de72,2022-07-06_10h32.34.472,Colour_Asymmetry_Pilot,2022.1.3,Win32,59.60185958,62c50e9c1127f2cd403a315f,,,,,,,,,,,,,,,,,,,,,,,,,,,,,,,,,,,,,,,,,,,,,,,,,,,,,,,,,,,,,,,,,,,,,,,,,,,,,,,,,,,,,,,,,,,,,,,,,,,,,,,,,,,,,,,,,,,,,,,,,,,,,,,,,,,,,,,,,,,,,,,,,,,,,,,,,,,,,,,,,,
0,11,11,16,1,,6093e92dd23145f26f9bf2e6,62c53a81e76ea1e86072de72,2022-07-06_10h32.34.472,Colour_Asymmetry_Pilot,2022.1.3,Win32,59.60185958,62c50e9c1127f2cd403a315f,,,,,,,,,,,,,,,,,,,,,,,,,,,,,,,,,,,,,,,,,,,,,,,,,,,,,,,,,,,,,,,,,,,,,,,,,,,,,,,,,,,,,,,,,,,,,,,,,,,,,,,,,,,,,,,,,,,,,,,,,,,,,,,,,,,,,,,,,,,,,,,,,,,,,,,,,,,,,,,,,,
0,12,12,38,1,,6093e92dd23145f26f9bf2e6,62c53a81e76ea1e86072de72,2022-07-06_10h32.34.472,Colour_Asymmetry_Pilot,2022.1.3,Win32,59.60185958,62c50e9c1127f2cd403a315f,,,,,,,,,,,,,,,,,,,,,,,,,,,,,,,,,,,,,,,,,,,,,,,,,,,,,,,,,,,,,,,,,,,,,,,,,,,,,,,,,,,,,,,,,,,,,,,,,,,,,,,,,,,,,,,,,,,,,,,,,,,,,,,,,,,,,,,,,,,,,,,,,,,,,,,,,,,,,,,,,,
0,13,13,59,1,,6093e92dd23145f26f9bf2e6,62c53a81e76ea1e86072de72,2022-07-06_10h32.34.472,Colour_Asymmetry_Pilot,2022.1.3,Win32,59.60185958,62c50e9c1127f2cd403a315f,,,,,,,,,,,,,,,,,,,,,,,,,,,,,,,,,,,,,,,,,,,,,,,,,,,,,,,,,,,,,,,,,,,,,,,,,,,,,,,,,,,,,,,,,,,,,,,,,,,,,,,,,,,,,,,,,,,,,,,,,,,,,,,,,,,,,,,,,,,,,,,,,,,,,,,,,,,,,,,,,,
0,14,14,63,1,,6093e92dd23145f26f9bf2e6,62c53a81e76ea1e86072de72,2022-07-06_10h32.34.472,Colour_Asymmetry_Pilot,2022.1.3,Win32,59.60185958,62c50e9c1127f2cd403a315f,,,,,,,,,,,,,,,,,,,,,,,,,,,,,,,,,,,,,,,,,,,,,,,,,,,,,,,,,,,,,,,,,,,,,,,,,,,,,,,,,,,,,,,,,,,,,,,,,,,,,,,,,,,,,,,,,,,,,,,,,,,,,,,,,,,,,,,,,,,,,,,,,,,,,,,,,,,,,,,,,,
0,15,15,75,1,,6093e92dd23145f26f9bf2e6,62c53a81e76ea1e86072de72,2022-07-06_10h32.34.472,Colour_Asymmetry_Pilot,2022.1.3,Win32,59.60185958,62c50e9c1127f2cd403a315f,,,,,,,,,,,,,,,,,,,,,,,,,,,,,,,,,,,,,,,,,,,,,,,,,,,,,,,,,,,,,,,,,,,,,,,,,,,,,,,,,,,,,,,,,,,,,,,,,,,,,,,,,,,,,,,,,,,,,,,,,,,,,,,,,,,,,,,,,,,,,,,,,,,,,,,,,,,,,,,,,,
0,16,16,78,1,,6093e92dd23145f26f9bf2e6,62c53a81e76ea1e86072de72,2022-07-06_10h32.34.472,Colour_Asymmetry_Pilot,2022.1.3,Win32,59.60185958,62c50e9c1127f2cd403a315f,,,,,,,,,,,,,,,,,,,,,,,,,,,,,,,,,,,,,,,,,,,,,,,,,,,,,,,,,,,,,,,,,,,,,,,,,,,,,,,,,,,,,,,,,,,,,,,,,,,,,,,,,,,,,,,,,,,,,,,,,,,,,,,,,,,,,,,,,,,,,,,,,,,,,,,,,,,,,,,,,,
0,17,17,89,1,,6093e92dd23145f26f9bf2e6,62c53a81e76ea1e86072de72,2022-07-06_10h32.34.472,Colour_Asymmetry_Pilot,2022.1.3,Win32,59.60185958,62c50e9c1127f2cd403a315f,,,,,,,,,,,,,,,,,,,,,,,,,,,,,,,,,,,,,,,,,,,,,,,,,,,,,,,,,,,,,,,,,,,,,,,,,,,,,,,,,,,,,,,,,,,,,,,,,,,,,,,,,,,,,,,,,,,,,,,,,,,,,,,,,,,,,,,,,,,,,,,,,,,,,,,,,,,,,,,,,,
0,18,18,82,1,,6093e92dd23145f26f9bf2e6,62c53a81e76ea1e86072de72,2022-07-06_10h32.34.472,Colour_Asymmetry_Pilot,2022.1.3,Win32,59.60185958,62c50e9c1127f2cd403a315f,,,,,,,,,,,,,,,,,,,,,,,,,,,,,,,,,,,,,,,,,,,,,,,,,,,,,,,,,,,,,,,,,,,,,,,,,,,,,,,,,,,,,,,,,,,,,,,,,,,,,,,,,,,,,,,,,,,,,,,,,,,,,,,,,,,,,,,,,,,,,,,,,,,,,,,,,,,,,,,,,,
0,19,19,19,1,,6093e92dd23145f26f9bf2e6,62c53a81e76ea1e86072de72,2022-07-06_10h32.34.472,Colour_Asymmetry_Pilot,2022.1.3,Win32,59.60185958,62c50e9c1127f2cd403a315f,,,,,,,,,,,,,,,,,,,,,,,,,,,,,,,,,,,,,,,,,,,,,,,,,,,,,,,,,,,,,,,,,,,,,,,,,,,,,,,,,,,,,,,,,,,,,,,,,,,,,,,,,,,,,,,,,,,,,,,,,,,,,,,,,,,,,,,,,,,,,,,,,,,,,,,,,,,,,,,,,,
0,20,20,2,1,,6093e92dd23145f26f9bf2e6,62c53a81e76ea1e86072de72,2022-07-06_10h32.34.472,Colour_Asymmetry_Pilot,2022.1.3,Win32,59.60185958,62c50e9c1127f2cd403a315f,,,,,,,,,,,,,,,,,,,,,,,,,,,,,,,,,,,,,,,,,,,,,,,,,,,,,,,,,,,,,,,,,,,,,,,,,,,,,,,,,,,,,,,,,,,,,,,,,,,,,,,,,,,,,,,,,,,,,,,,,,,,,,,,,,,,,,,,,,,,,,,,,,,,,,,,,,,,,,,,,,
0,21,21,50,1,,6093e92dd23145f26f9bf2e6,62c53a81e76ea1e86072de72,2022-07-06_10h32.34.472,Colour_Asymmetry_Pilot,2022.1.3,Win32,59.60185958,62c50e9c1127f2cd403a315f,,,,,,,,,,,,,,,,,,,,,,,,,,,,,,,,,,,,,,,,,,,,,,,,,,,,,,,,,,,,,,,,,,,,,,,,,,,,,,,,,,,,,,,,,,,,,,,,,,,,,,,,,,,,,,,,,,,,,,,,,,,,,,,,,,,,,,,,,,,,,,,,,,,,,,,,,,,,,,,,,,
0,22,22,77,1,,6093e92dd23145f26f9bf2e6,62c53a81e76ea1e86072de72,2022-07-06_10h32.34.472,Colour_Asymmetry_Pilot,2022.1.3,Win32,59.60185958,62c50e9c1127f2cd403a315f,,,,,,,,,,,,,,,,,,,,,,,,,,,,,,,,,,,,,,,,,,,,,,,,,,,,,,,,,,,,,,,,,,,,,,,,,,,,,,,,,,,,,,,,,,,,,,,,,,,,,,,,,,,,,,,,,,,,,,,,,,,,,,,,,,,,,,,,,,,,,,,,,,,,,,,,,,,,,,,,,,
0,23,23,80,1,,6093e92dd23145f26f9bf2e6,62c53a81e76ea1e86072de72,2022-07-06_10h32.34.472,Colour_Asymmetry_Pilot,2022.1.3,Win32,59.60185958,62c50e9c1127f2cd403a315f,,,,,,,,,,,,,,,,,,,,,,,,,,,,,,,,,,,,,,,,,,,,,,,,,,,,,,,,,,,,,,,,,,,,,,,,,,,,,,,,,,,,,,,,,,,,,,,,,,,,,,,,,,,,,,,,,,,,,,,,,,,,,,,,,,,,,,,,,,,,,,,,,,,,,,,,,,,,,,,,,,
0,24,24,37,1,,6093e92dd23145f26f9bf2e6,62c53a81e76ea1e86072de72,2022-07-06_10h32.34.472,Colour_Asymmetry_Pilot,2022.1.3,Win32,59.60185958,62c50e9c1127f2cd403a315f,,,,,,,,,,,,,,,,,,,,,,,,,,,,,,,,,,,,,,,,,,,,,,,,,,,,,,,,,,,,,,,,,,,,,,,,,,,,,,,,,,,,,,,,,,,,,,,,,,,,,,,,,,,,,,,,,,,,,,,,,,,,,,,,,,,,,,,,,,,,,,,,,,,,,,,,,,,,,,,,,,
0,25,25,65,1,,6093e92dd23145f26f9bf2e6,62c53a81e76ea1e86072de72,2022-07-06_10h32.34.472,Colour_Asymmetry_Pilot,2022.1.3,Win32,59.60185958,62c50e9c1127f2cd403a315f,,,,,,,,,,,,,,,,,,,,,,,,,,,,,,,,,,,,,,,,,,,,,,,,,,,,,,,,,,,,,,,,,,,,,,,,,,,,,,,,,,,,,,,,,,,,,,,,,,,,,,,,,,,,,,,,,,,,,,,,,,,,,,,,,,,,,,,,,,,,,,,,,,,,,,,,,,,,,,,,,,
0,26,26,90,1,,6093e92dd23145f26f9bf2e6,62c53a81e76ea1e86072de72,2022-07-06_10h32.34.472,Colour_Asymmetry_Pilot,2022.1.3,Win32,59.60185958,62c50e9c1127f2cd403a315f,,,,,,,,,,,,,,,,,,,,,,,,,,,,,,,,,,,,,,,,,,,,,,,,,,,,,,,,,,,,,,,,,,,,,,,,,,,,,,,,,,,,,,,,,,,,,,,,,,,,,,,,,,,,,,,,,,,,,,,,,,,,,,,,,,,,,,,,,,,,,,,,,,,,,,,,,,,,,,,,,,
0,27,27,6,1,,6093e92dd23145f26f9bf2e6,62c53a81e76ea1e86072de72,2022-07-06_10h32.34.472,Colour_Asymmetry_Pilot,2022.1.3,Win32,59.60185958,62c50e9c1127f2cd403a315f,,,,,,,,,,,,,,,,,,,,,,,,,,,,,,,,,,,,,,,,,,,,,,,,,,,,,,,,,,,,,,,,,,,,,,,,,,,,,,,,,,,,,,,,,,,,,,,,,,,,,,,,,,,,,,,,,,,,,,,,,,,,,,,,,,,,,,,,,,,,,,,,,,,,,,,,,,,,,,,,,,
0,28,28,64,1,,6093e92dd23145f26f9bf2e6,62c53a81e76ea1e86072de72,2022-07-06_10h32.34.472,Colour_Asymmetry_Pilot,2022.1.3,Win32,59.60185958,62c50e9c1127f2cd403a315f,,,,,,,,,,,,,,,,,,,,,,,,,,,,,,,,,,,,,,,,,,,,,,,,,,,,,,,,,,,,,,,,,,,,,,,,,,,,,,,,,,,,,,,,,,,,,,,,,,,,,,,,,,,,,,,,,,,,,,,,,,,,,,,,,,,,,,,,,,,,,,,,,,,,,,,,,,,,,,,,,,
0,29,29,32,1,,6093e92dd23145f26f9bf2e6,62c53a81e76ea1e86072de72,2022-07-06_10h32.34.472,Colour_Asymmetry_Pilot,2022.1.3,Win32,59.60185958,62c50e9c1127f2cd403a315f,,,,,,,,,,,,,,,,,,,,,,,,,,,,,,,,,,,,,,,,,,,,,,,,,,,,,,,,,,,,,,,,,,,,,,,,,,,,,,,,,,,,,,,,,,,,,,,,,,,,,,,,,,,,,,,,,,,,,,,,,,,,,,,,,,,,,,,,,,,,,,,,,,,,,,,,,,,,,,,,,,
0,30,30,15,1,,6093e92dd23145f26f9bf2e6,62c53a81e76ea1e86072de72,2022-07-06_10h32.34.472,Colour_Asymmetry_Pilot,2022.1.3,Win32,59.60185958,62c50e9c1127f2cd403a315f,,,,,,,,,,,,,,,,,,,,,,,,,,,,,,,,,,,,,,,,,,,,,,,,,,,,,,,,,,,,,,,,,,,,,,,,,,,,,,,,,,,,,,,,,,,,,,,,,,,,,,,,,,,,,,,,,,,,,,,,,,,,,,,,,,,,,,,,,,,,,,,,,,,,,,,,,,,,,,,,,,
0,31,31,48,1,,6093e92dd23145f26f9bf2e6,62c53a81e76ea1e86072de72,2022-07-06_10h32.34.472,Colour_Asymmetry_Pilot,2022.1.3,Win32,59.60185958,62c50e9c1127f2cd403a315f,,,,,,,,,,,,,,,,,,,,,,,,,,,,,,,,,,,,,,,,,,,,,,,,,,,,,,,,,,,,,,,,,,,,,,,,,,,,,,,,,,,,,,,,,,,,,,,,,,,,,,,,,,,,,,,,,,,,,,,,,,,,,,,,,,,,,,,,,,,,,,,,,,,,,,,,,,,,,,,,,,
0,32,32,86,1,,6093e92dd23145f26f9bf2e6,62c53a81e76ea1e86072de72,2022-07-06_10h32.34.472,Colour_Asymmetry_Pilot,2022.1.3,Win32,59.60185958,62c50e9c1127f2cd403a315f,,,,,,,,,,,,,,,,,,,,,,,,,,,,,,,,,,,,,,,,,,,,,,,,,,,,,,,,,,,,,,,,,,,,,,,,,,,,,,,,,,,,,,,,,,,,,,,,,,,,,,,,,,,,,,,,,,,,,,,,,,,,,,,,,,,,,,,,,,,,,,,,,,,,,,,,,,,,,,,,,,
0,33,33,56,1,,6093e92dd23145f26f9bf2e6,62c53a81e76ea1e86072de72,2022-07-06_10h32.34.472,Colour_Asymmetry_Pilot,2022.1.3,Win32,59.60185958,62c50e9c1127f2cd403a315f,,,,,,,,,,,,,,,,,,,,,,,,,,,,,,,,,,,,,,,,,,,,,,,,,,,,,,,,,,,,,,,,,,,,,,,,,,,,,,,,,,,,,,,,,,,,,,,,,,,,,,,,,,,,,,,,,,,,,,,,,,,,,,,,,,,,,,,,,,,,,,,,,,,,,,,,,,,,,,,,,,
0,34,34,52,1,,6093e92dd23145f26f9bf2e6,62c53a81e76ea1e86072de72,2022-07-06_10h32.34.472,Colour_Asymmetry_Pilot,2022.1.3,Win32,59.60185958,62c50e9c1127f2cd403a315f,,,,,,,,,,,,,,,,,,,,,,,,,,,,,,,,,,,,,,,,,,,,,,,,,,,,,,,,,,,,,,,,,,,,,,,,,,,,,,,,,,,,,,,,,,,,,,,,,,,,,,,,,,,,,,,,,,,,,,,,,,,,,,,,,,,,,,,,,,,,,,,,,,,,,,,,,,,,,,,,,,
0,35,35,13,1,,6093e92dd23145f26f9bf2e6,62c53a81e76ea1e86072de72,2022-07-06_10h32.34.472,Colour_Asymmetry_Pilot,2022.1.3,Win32,59.60185958,62c50e9c1127f2cd403a315f,,,,,,,,,,,,,,,,,,,,,,,,,,,,,,,,,,,,,,,,,,,,,,,,,,,,,,,,,,,,,,,,,,,,,,,,,,,,,,,,,,,,,,,,,,,,,,,,,,,,,,,,,,,,,,,,,,,,,,,,,,,,,,,,,,,,,,,,,,,,,,,,,,,,,,,,,,,,,,,,,,
0,36,36,58,1,,6093e92dd23145f26f9bf2e6,62c53a81e76ea1e86072de72,2022-07-06_10h32.34.472,Colour_Asymmetry_Pilot,2022.1.3,Win32,59.60185958,62c50e9c1127f2cd403a315f,,,,,,,,,,,,,,,,,,,,,,,,,,,,,,,,,,,,,,,,,,,,,,,,,,,,,,,,,,,,,,,,,,,,,,,,,,,,,,,,,,,,,,,,,,,,,,,,,,,,,,,,,,,,,,,,,,,,,,,,,,,,,,,,,,,,,,,,,,,,,,,,,,,,,,,,,,,,,,,,,,
0,37,37,79,1,,6093e92dd23145f26f9bf2e6,62c53a81e76ea1e86072de72,2022-07-06_10h32.34.472,Colour_Asymmetry_Pilot,2022.1.3,Win32,59.60185958,62c50e9c1127f2cd403a315f,,,,,,,,,,,,,,,,,,,,,,,,,,,,,,,,,,,,,,,,,,,,,,,,,,,,,,,,,,,,,,,,,,,,,,,,,,,,,,,,,,,,,,,,,,,,,,,,,,,,,,,,,,,,,,,,,,,,,,,,,,,,,,,,,,,,,,,,,,,,,,,,,,,,,,,,,,,,,,,,,,
0,38,38,76,1,,6093e92dd23145f26f9bf2e6,62c53a81e76ea1e86072de72,2022-07-06_10h32.34.472,Colour_Asymmetry_Pilot,2022.1.3,Win32,59.60185958,62c50e9c1127f2cd403a315f,,,,,,,,,,,,,,,,,,,,,,,,,,,,,,,,,,,,,,,,,,,,,,,,,,,,,,,,,,,,,,,,,,,,,,,,,,,,,,,,,,,,,,,,,,,,,,,,,,,,,,,,,,,,,,,,,,,,,,,,,,,,,,,,,,,,,,,,,,,,,,,,,,,,,,,,,,,,,,,,,,
0,39,39,66,1,,6093e92dd23145f26f9bf2e6,62c53a81e76ea1e86072de72,2022-07-06_10h32.34.472,Colour_Asymmetry_Pilot,2022.1.3,Win32,59.60185958,62c50e9c1127f2cd403a315f,,,,,,,,,,,,,,,,,,,,,,,,,,,,,,,,,,,,,,,,,,,,,,,,,,,,,,,,,,,,,,,,,,,,,,,,,,,,,,,,,,,,,,,,,,,,,,,,,,,,,,,,,,,,,,,,,,,,,,,,,,,,,,,,,,,,,,,,,,,,,,,,,,,,,,,,,,,,,,,,,,
0,40,40,44,1,,6093e92dd23145f26f9bf2e6,62c53a81e76ea1e86072de72,2022-07-06_10h32.34.472,Colour_Asymmetry_Pilot,2022.1.3,Win32,59.60185958,62c50e9c1127f2cd403a315f,,,,,,,,,,,,,,,,,,,,,,,,,,,,,,,,,,,,,,,,,,,,,,,,,,,,,,,,,,,,,,,,,,,,,,,,,,,,,,,,,,,,,,,,,,,,,,,,,,,,,,,,,,,,,,,,,,,,,,,,,,,,,,,,,,,,,,,,,,,,,,,,,,,,,,,,,,,,,,,,,,
0,41,41,8,1,,6093e92dd23145f26f9bf2e6,62c53a81e76ea1e86072de72,2022-07-06_10h32.34.472,Colour_Asymmetry_Pilot,2022.1.3,Win32,59.60185958,62c50e9c1127f2cd403a315f,,,,,,,,,,,,,,,,,,,,,,,,,,,,,,,,,,,,,,,,,,,,,,,,,,,,,,,,,,,,,,,,,,,,,,,,,,,,,,,,,,,,,,,,,,,,,,,,,,,,,,,,,,,,,,,,,,,,,,,,,,,,,,,,,,,,,,,,,,,,,,,,,,,,,,,,,,,,,,,,,,
0,42,42,88,1,,6093e92dd23145f26f9bf2e6,62c53a81e76ea1e86072de72,2022-07-06_10h32.34.472,Colour_Asymmetry_Pilot,2022.1.3,Win32,59.60185958,62c50e9c1127f2cd403a315f,,,,,,,,,,,,,,,,,,,,,,,,,,,,,,,,,,,,,,,,,,,,,,,,,,,,,,,,,,,,,,,,,,,,,,,,,,,,,,,,,,,,,,,,,,,,,,,,,,,,,,,,,,,,,,,,,,,,,,,,,,,,,,,,,,,,,,,,,,,,,,,,,,,,,,,,,,,,,,,,,,
0,43,43,4,1,,6093e92dd23145f26f9bf2e6,62c53a81e76ea1e86072de72,2022-07-06_10h32.34.472,Colour_Asymmetry_Pilot,2022.1.3,Win32,59.60185958,62c50e9c1127f2cd403a315f,,,,,,,,,,,,,,,,,,,,,,,,,,,,,,,,,,,,,,,,,,,,,,,,,,,,,,,,,,,,,,,,,,,,,,,,,,,,,,,,,,,,,,,,,,,,,,,,,,,,,,,,,,,,,,,,,,,,,,,,,,,,,,,,,,,,,,,,,,,,,,,,,,,,,,,,,,,,,,,,,,
0,44,44,25,1,,6093e92dd23145f26f9bf2e6,62c53a81e76ea1e86072de72,2022-07-06_10h32.34.472,Colour_Asymmetry_Pilot,2022.1.3,Win32,59.60185958,62c50e9c1127f2cd403a315f,,,,,,,,,,,,,,,,,,,,,,,,,,,,,,,,,,,,,,,,,,,,,,,,,,,,,,,,,,,,,,,,,,,,,,,,,,,,,,,,,,,,,,,,,,,,,,,,,,,,,,,,,,,,,,,,,,,,,,,,,,,,,,,,,,,,,,,,,,,,,,,,,,,,,,,,,,,,,,,,,,
0,45,45,74,1,,6093e92dd23145f26f9bf2e6,62c53a81e76ea1e86072de72,2022-07-06_10h32.34.472,Colour_Asymmetry_Pilot,2022.1.3,Win32,59.60185958,62c50e9c1127f2cd403a315f,,,,,,,,,,,,,,,,,,,,,,,,,,,,,,,,,,,,,,,,,,,,,,,,,,,,,,,,,,,,,,,,,,,,,,,,,,,,,,,,,,,,,,,,,,,,,,,,,,,,,,,,,,,,,,,,,,,,,,,,,,,,,,,,,,,,,,,,,,,,,,,,,,,,,,,,,,,,,,,,,,
0,46,46,87,1,,6093e92dd23145f26f9bf2e6,62c53a81e76ea1e86072de72,2022-07-06_10h32.34.472,Colour_Asymmetry_Pilot,2022.1.3,Win32,59.60185958,62c50e9c1127f2cd403a315f,,,,,,,,,,,,,,,,,,,,,,,,,,,,,,,,,,,,,,,,,,,,,,,,,,,,,,,,,,,,,,,,,,,,,,,,,,,,,,,,,,,,,,,,,,,,,,,,,,,,,,,,,,,,,,,,,,,,,,,,,,,,,,,,,,,,,,,,,,,,,,,,,,,,,,,,,,,,,,,,,,
0,47,47,11,1,,6093e92dd23145f26f9bf2e6,62c53a81e76ea1e86072de72,2022-07-06_10h32.34.472,Colour_Asymmetry_Pilot,2022.1.3,Win32,59.60185958,62c50e9c1127f2cd403a315f,,,,,,,,,,,,,,,,,,,,,,,,,,,,,,,,,,,,,,,,,,,,,,,,,,,,,,,,,,,,,,,,,,,,,,,,,,,,,,,,,,,,,,,,,,,,,,,,,,,,,,,,,,,,,,,,,,,,,,,,,,,,,,,,,,,,,,,,,,,,,,,,,,,,,,,,,,,,,,,,,,
0,48,48,49,1,,6093e92dd23145f26f9bf2e6,62c53a81e76ea1e86072de72,2022-07-06_10h32.34.472,Colour_Asymmetry_Pilot,2022.1.3,Win32,59.60185958,62c50e9c1127f2cd403a315f,,,,,,,,,,,,,,,,,,,,,,,,,,,,,,,,,,,,,,,,,,,,,,,,,,,,,,,,,,,,,,,,,,,,,,,,,,,,,,,,,,,,,,,,,,,,,,,,,,,,,,,,,,,,,,,,,,,,,,,,,,,,,,,,,,,,,,,,,,,,,,,,,,,,,,,,,,,,,,,,,,
0,49,49,1,1,,6093e92dd23145f26f9bf2e6,62c53a81e76ea1e86072de72,2022-07-06_10h32.34.472,Colour_Asymmetry_Pilot,2022.1.3,Win32,59.60185958,62c50e9c1127f2cd403a315f,,,,,,,,,,,,,,,,,,,,,,,,,,,,,,,,,,,,,,,,,,,,,,,,,,,,,,,,,,,,,,,,,,,,,,,,,,,,,,,,,,,,,,,,,,,,,,,,,,,,,,,,,,,,,,,,,,,,,,,,,,,,,,,,,,,,,,,,,,,,,,,,,,,,,,,,,,,,,,,,,,
0,50,50,14,1,,6093e92dd23145f26f9bf2e6,62c53a81e76ea1e86072de72,2022-07-06_10h32.34.472,Colour_Asymmetry_Pilot,2022.1.3,Win32,59.60185958,62c50e9c1127f2cd403a315f,,,,,,,,,,,,,,,,,,,,,,,,,,,,,,,,,,,,,,,,,,,,,,,,,,,,,,,,,,,,,,,,,,,,,,,,,,,,,,,,,,,,,,,,,,,,,,,,,,,,,,,,,,,,,,,,,,,,,,,,,,,,,,,,,,,,,,,,,,,,,,,,,,,,,,,,,,,,,,,,,,
0,51,51,18,1,,6093e92dd23145f26f9bf2e6,62c53a81e76ea1e86072de72,2022-07-06_10h32.34.472,Colour_Asymmetry_Pilot,2022.1.3,Win32,59.60185958,62c50e9c1127f2cd403a315f,,,,,,,,,,,,,,,,,,,,,,,,,,,,,,,,,,,,,,,,,,,,,,,,,,,,,,,,,,,,,,,,,,,,,,,,,,,,,,,,,,,,,,,,,,,,,,,,,,,,,,,,,,,,,,,,,,,,,,,,,,,,,,,,,,,,,,,,,,,,,,,,,,,,,,,,,,,,,,,,,,
0,52,52,36,1,,6093e92dd23145f26f9bf2e6,62c53a81e76ea1e86072de72,2022-07-06_10h32.34.472,Colour_Asymmetry_Pilot,2022.1.3,Win32,59.60185958,62c50e9c1127f2cd403a315f,,,,,,,,,,,,,,,,,,,,,,,,,,,,,,,,,,,,,,,,,,,,,,,,,,,,,,,,,,,,,,,,,,,,,,,,,,,,,,,,,,,,,,,,,,,,,,,,,,,,,,,,,,,,,,,,,,,,,,,,,,,,,,,,,,,,,,,,,,,,,,,,,,,,,,,,,,,,,,,,,,
0,53,53,22,1,,6093e92dd23145f26f9bf2e6,62c53a81e76ea1e86072de72,2022-07-06_10h32.34.472,Colour_Asymmetry_Pilot,2022.1.3,Win32,59.60185958,62c50e9c1127f2cd403a315f,,,,,,,,,,,,,,,,,,,,,,,,,,,,,,,,,,,,,,,,,,,,,,,,,,,,,,,,,,,,,,,,,,,,,,,,,,,,,,,,,,,,,,,,,,,,,,,,,,,,,,,,,,,,,,,,,,,,,,,,,,,,,,,,,,,,,,,,,,,,,,,,,,,,,,,,,,,,,,,,,,
0,54,54,33,1,,6093e92dd23145f26f9bf2e6,62c53a81e76ea1e86072de72,2022-07-06_10h32.34.472,Colour_Asymmetry_Pilot,2022.1.3,Win32,59.60185958,62c50e9c1127f2cd403a315f,,,,,,,,,,,,,,,,,,,,,,,,,,,,,,,,,,,,,,,,,,,,,,,,,,,,,,,,,,,,,,,,,,,,,,,,,,,,,,,,,,,,,,,,,,,,,,,,,,,,,,,,,,,,,,,,,,,,,,,,,,,,,,,,,,,,,,,,,,,,,,,,,,,,,,,,,,,,,,,,,,
0,55,55,46,1,,6093e92dd23145f26f9bf2e6,62c53a81e76ea1e86072de72,2022-07-06_10h32.34.472,Colour_Asymmetry_Pilot,2022.1.3,Win32,59.60185958,62c50e9c1127f2cd403a315f,,,,,,,,,,,,,,,,,,,,,,,,,,,,,,,,,,,,,,,,,,,,,,,,,,,,,,,,,,,,,,,,,,,,,,,,,,,,,,,,,,,,,,,,,,,,,,,,,,,,,,,,,,,,,,,,,,,,,,,,,,,,,,,,,,,,,,,,,,,,,,,,,,,,,,,,,,,,,,,,,,
0,56,56,92,1,,6093e92dd23145f26f9bf2e6,62c53a81e76ea1e86072de72,2022-07-06_10h32.34.472,Colour_Asymmetry_Pilot,2022.1.3,Win32,59.60185958,62c50e9c1127f2cd403a315f,,,,,,,,,,,,,,,,,,,,,,,,,,,,,,,,,,,,,,,,,,,,,,,,,,,,,,,,,,,,,,,,,,,,,,,,,,,,,,,,,,,,,,,,,,,,,,,,,,,,,,,,,,,,,,,,,,,,,,,,,,,,,,,,,,,,,,,,,,,,,,,,,,,,,,,,,,,,,,,,,,
0,57,57,20,1,,6093e92dd23145f26f9bf2e6,62c53a81e76ea1e86072de72,2022-07-06_10h32.34.472,Colour_Asymmetry_Pilot,2022.1.3,Win32,59.60185958,62c50e9c1127f2cd403a315f,,,,,,,,,,,,,,,,,,,,,,,,,,,,,,,,,,,,,,,,,,,,,,,,,,,,,,,,,,,,,,,,,,,,,,,,,,,,,,,,,,,,,,,,,,,,,,,,,,,,,,,,,,,,,,,,,,,,,,,,,,,,,,,,,,,,,,,,,,,,,,,,,,,,,,,,,,,,,,,,,,
0,58,58,28,1,,6093e92dd23145f26f9bf2e6,62c53a81e76ea1e86072de72,2022-07-06_10h32.34.472,Colour_Asymmetry_Pilot,2022.1.3,Win32,59.60185958,62c50e9c1127f2cd403a315f,,,,,,,,,,,,,,,,,,,,,,,,,,,,,,,,,,,,,,,,,,,,,,,,,,,,,,,,,,,,,,,,,,,,,,,,,,,,,,,,,,,,,,,,,,,,,,,,,,,,,,,,,,,,,,,,,,,,,,,,,,,,,,,,,,,,,,,,,,,,,,,,,,,,,,,,,,,,,,,,,,
0,59,59,9,1,,6093e92dd23145f26f9bf2e6,62c53a81e76ea1e86072de72,2022-07-06_10h32.34.472,Colour_Asymmetry_Pilot,2022.1.3,Win32,59.60185958,62c50e9c1127f2cd403a315f,,,,,,,,,,,,,,,,,,,,,,,,,,,,,,,,,,,,,,,,,,,,,,,,,,,,,,,,,,,,,,,,,,,,,,,,,,,,,,,,,,,,,,,,,,,,,,,,,,,,,,,,,,,,,,,,,,,,,,,,,,,,,,,,,,,,,,,,,,,,,,,,,,,,,,,,,,,,,,,,,,
0,60,60,21,1,,6093e92dd23145f26f9bf2e6,62c53a81e76ea1e86072de72,2022-07-06_10h32.34.472,Colour_Asymmetry_Pilot,2022.1.3,Win32,59.60185958,62c50e9c1127f2cd403a315f,,,,,,,,,,,,,,,,,,,,,,,,,,,,,,,,,,,,,,,,,,,,,,,,,,,,,,,,,,,,,,,,,,,,,,,,,,,,,,,,,,,,,,,,,,,,,,,,,,,,,,,,,,,,,,,,,,,,,,,,,,,,,,,,,,,,,,,,,,,,,,,,,,,,,,,,,,,,,,,,,,
0,61,61,51,1,,6093e92dd23145f26f9bf2e6,62c53a81e76ea1e86072de72,2022-07-06_10h32.34.472,Colour_Asymmetry_Pilot,2022.1.3,Win32,59.60185958,62c50e9c1127f2cd403a315f,,,,,,,,,,,,,,,,,,,,,,,,,,,,,,,,,,,,,,,,,,,,,,,,,,,,,,,,,,,,,,,,,,,,,,,,,,,,,,,,,,,,,,,,,,,,,,,,,,,,,,,,,,,,,,,,,,,,,,,,,,,,,,,,,,,,,,,,,,,,,,,,,,,,,,,,,,,,,,,,,,
0,62,62,17,1,,6093e92dd23145f26f9bf2e6,62c53a81e76ea1e86072de72,2022-07-06_10h32.34.472,Colour_Asymmetry_Pilot,2022.1.3,Win32,59.60185958,62c50e9c1127f2cd403a315f,,,,,,,,,,,,,,,,,,,,,,,,,,,,,,,,,,,,,,,,,,,,,,,,,,,,,,,,,,,,,,,,,,,,,,,,,,,,,,,,,,,,,,,,,,,,,,,,,,,,,,,,,,,,,,,,,,,,,,,,,,,,,,,,,,,,,,,,,,,,,,,,,,,,,,,,,,,,,,,,,,
0,63,63,12,1,,6093e92dd23145f26f9bf2e6,62c53a81e76ea1e86072de72,2022-07-06_10h32.34.472,Colour_Asymmetry_Pilot,2022.1.3,Win32,59.60185958,62c50e9c1127f2cd403a315f,,,,,,,,,,,,,,,,,,,,,,,,,,,,,,,,,,,,,,,,,,,,,,,,,,,,,,,,,,,,,,,,,,,,,,,,,,,,,,,,,,,,,,,,,,,,,,,,,,,,,,,,,,,,,,,,,,,,,,,,,,,,,,,,,,,,,,,,,,,,,,,,,,,,,,,,,,,,,,,,,,
0,64,64,53,1,,6093e92dd23145f26f9bf2e6,62c53a81e76ea1e86072de72,2022-07-06_10h32.34.472,Colour_Asymmetry_Pilot,2022.1.3,Win32,59.60185958,62c50e9c1127f2cd403a315f,,,,,,,,,,,,,,,,,,,,,,,,,,,,,,,,,,,,,,,,,,,,,,,,,,,,,,,,,,,,,,,,,,,,,,,,,,,,,,,,,,,,,,,,,,,,,,,,,,,,,,,,,,,,,,,,,,,,,,,,,,,,,,,,,,,,,,,,,,,,,,,,,,,,,,,,,,,,,,,,,,
0,65,65,10,1,,6093e92dd23145f26f9bf2e6,62c53a81e76ea1e86072de72,2022-07-06_10h32.34.472,Colour_Asymmetry_Pilot,2022.1.3,Win32,59.60185958,62c50e9c1127f2cd403a315f,,,,,,,,,,,,,,,,,,,,,,,,,,,,,,,,,,,,,,,,,,,,,,,,,,,,,,,,,,,,,,,,,,,,,,,,,,,,,,,,,,,,,,,,,,,,,,,,,,,,,,,,,,,,,,,,,,,,,,,,,,,,,,,,,,,,,,,,,,,,,,,,,,,,,,,,,,,,,,,,,,
0,66,66,55,1,,6093e92dd23145f26f9bf2e6,62c53a81e76ea1e86072de72,2022-07-06_10h32.34.472,Colour_Asymmetry_Pilot,2022.1.3,Win32,59.60185958,62c50e9c1127f2cd403a315f,,,,,,,,,,,,,,,,,,,,,,,,,,,,,,,,,,,,,,,,,,,,,,,,,,,,,,,,,,,,,,,,,,,,,,,,,,,,,,,,,,,,,,,,,,,,,,,,,,,,,,,,,,,,,,,,,,,,,,,,,,,,,,,,,,,,,,,,,,,,,,,,,,,,,,,,,,,,,,,,,,
0,67,67,24,1,,6093e92dd23145f26f9bf2e6,62c53a81e76ea1e86072de72,2022-07-06_10h32.34.472,Colour_Asymmetry_Pilot,2022.1.3,Win32,59.60185958,62c50e9c1127f2cd403a315f,,,,,,,,,,,,,,,,,,,,,,,,,,,,,,,,,,,,,,,,,,,,,,,,,,,,,,,,,,,,,,,,,,,,,,,,,,,,,,,,,,,,,,,,,,,,,,,,,,,,,,,,,,,,,,,,,,,,,,,,,,,,,,,,,,,,,,,,,,,,,,,,,,,,,,,,,,,,,,,,,,
0,68,68,85,1,,6093e92dd23145f26f9bf2e6,62c53a81e76ea1e86072de72,2022-07-06_10h32.34.472,Colour_Asymmetry_Pilot,2022.1.3,Win32,59.60185958,62c50e9c1127f2cd403a315f,,,,,,,,,,,,,,,,,,,,,,,,,,,,,,,,,,,,,,,,,,,,,,,,,,,,,,,,,,,,,,,,,,,,,,,,,,,,,,,,,,,,,,,,,,,,,,,,,,,,,,,,,,,,,,,,,,,,,,,,,,,,,,,,,,,,,,,,,,,,,,,,,,,,,,,,,,,,,,,,,,
0,69,69,41,1,,6093e92dd23145f26f9bf2e6,62c53a81e76ea1e86072de72,2022-07-06_10h32.34.472,Colour_Asymmetry_Pilot,2022.1.3,Win32,59.60185958,62c50e9c1127f2cd403a315f,,,,,,,,,,,,,,,,,,,,,,,,,,,,,,,,,,,,,,,,,,,,,,,,,,,,,,,,,,,,,,,,,,,,,,,,,,,,,,,,,,,,,,,,,,,,,,,,,,,,,,,,,,,,,,,,,,,,,,,,,,,,,,,,,,,,,,,,,,,,,,,,,,,,,,,,,,,,,,,,,,
0,70,70,72,1,,6093e92dd23145f26f9bf2e6,62c53a81e76ea1e86072de72,2022-07-06_10h32.34.472,Colour_Asymmetry_Pilot,2022.1.3,Win32,59.60185958,62c50e9c1127f2cd403a315f,,,,,,,,,,,,,,,,,,,,,,,,,,,,,,,,,,,,,,,,,,,,,,,,,,,,,,,,,,,,,,,,,,,,,,,,,,,,,,,,,,,,,,,,,,,,,,,,,,,,,,,,,,,,,,,,,,,,,,,,,,,,,,,,,,,,,,,,,,,,,,,,,,,,,,,,,,,,,,,,,,
0,71,71,26,1,,6093e92dd23145f26f9bf2e6,62c53a81e76ea1e86072de72,2022-07-06_10h32.34.472,Colour_Asymmetry_Pilot,2022.1.3,Win32,59.60185958,62c50e9c1127f2cd403a315f,,,,,,,,,,,,,,,,,,,,,,,,,,,,,,,,,,,,,,,,,,,,,,,,,,,,,,,,,,,,,,,,,,,,,,,,,,,,,,,,,,,,,,,,,,,,,,,,,,,,,,,,,,,,,,,,,,,,,,,,,,,,,,,,,,,,,,,,,,,,,,,,,,,,,,,,,,,,,,,,,,
0,72,72,34,1,,6093e92dd23145f26f9bf2e6,62c53a81e76ea1e86072de72,2022-07-06_10h32.34.472,Colour_Asymmetry_Pilot,2022.1.3,Win32,59.60185958,62c50e9c1127f2cd403a315f,,,,,,,,,,,,,,,,,,,,,,,,,,,,,,,,,,,,,,,,,,,,,,,,,,,,,,,,,,,,,,,,,,,,,,,,,,,,,,,,,,,,,,,,,,,,,,,,,,,,,,,,,,,,,,,,,,,,,,,,,,,,,,,,,,,,,,,,,,,,,,,,,,,,,,,,,,,,,,,,,,
0,73,73,3,1,,6093e92dd23145f26f9bf2e6,62c53a81e76ea1e86072de72,2022-07-06_10h32.34.472,Colour_Asymmetry_Pilot,2022.1.3,Win32,59.60185958,62c50e9c1127f2cd403a315f,,,,,,,,,,,,,,,,,,,,,,,,,,,,,,,,,,,,,,,,,,,,,,,,,,,,,,,,,,,,,,,,,,,,,,,,,,,,,,,,,,,,,,,,,,,,,,,,,,,,,,,,,,,,,,,,,,,,,,,,,,,,,,,,,,,,,,,,,,,,,,,,,,,,,,,,,,,,,,,,,,
0,74,74,81,1,,6093e92dd23145f26f9bf2e6,62c53a81e76ea1e86072de72,2022-07-06_10h32.34.472,Colour_Asymmetry_Pilot,2022.1.3,Win32,59.60185958,62c50e9c1127f2cd403a315f,,,,,,,,,,,,,,,,,,,,,,,,,,,,,,,,,,,,,,,,,,,,,,,,,,,,,,,,,,,,,,,,,,,,,,,,,,,,,,,,,,,,,,,,,,,,,,,,,,,,,,,,,,,,,,,,,,,,,,,,,,,,,,,,,,,,,,,,,,,,,,,,,,,,,,,,,,,,,,,,,,
0,75,75,91,1,,6093e92dd23145f26f9bf2e6,62c53a81e76ea1e86072de72,2022-07-06_10h32.34.472,Colour_Asymmetry_Pilot,2022.1.3,Win32,59.60185958,62c50e9c1127f2cd403a315f,,,,,,,,,,,,,,,,,,,,,,,,,,,,,,,,,,,,,,,,,,,,,,,,,,,,,,,,,,,,,,,,,,,,,,,,,,,,,,,,,,,,,,,,,,,,,,,,,,,,,,,,,,,,,,,,,,,,,,,,,,,,,,,,,,,,,,,,,,,,,,,,,,,,,,,,,,,,,,,,,,
0,76,76,61,1,,6093e92dd23145f26f9bf2e6,62c53a81e76ea1e86072de72,2022-07-06_10h32.34.472,Colour_Asymmetry_Pilot,2022.1.3,Win32,59.60185958,62c50e9c1127f2cd403a315f,,,,,,,,,,,,,,,,,,,,,,,,,,,,,,,,,,,,,,,,,,,,,,,,,,,,,,,,,,,,,,,,,,,,,,,,,,,,,,,,,,,,,,,,,,,,,,,,,,,,,,,,,,,,,,,,,,,,,,,,,,,,,,,,,,,,,,,,,,,,,,,,,,,,,,,,,,,,,,,,,,
0,77,77,84,1,,6093e92dd23145f26f9bf2e6,62c53a81e76ea1e86072de72,2022-07-06_10h32.34.472,Colour_Asymmetry_Pilot,2022.1.3,Win32,59.60185958,62c50e9c1127f2cd403a315f,,,,,,,,,,,,,,,,,,,,,,,,,,,,,,,,,,,,,,,,,,,,,,,,,,,,,,,,,,,,,,,,,,,,,,,,,,,,,,,,,,,,,,,,,,,,,,,,,,,,,,,,,,,,,,,,,,,,,,,,,,,,,,,,,,,,,,,,,,,,,,,,,,,,,,,,,,,,,,,,,,
0,78,78,31,1,,6093e92dd23145f26f9bf2e6,62c53a81e76ea1e86072de72,2022-07-06_10h32.34.472,Colour_Asymmetry_Pilot,2022.1.3,Win32,59.60185958,62c50e9c1127f2cd403a315f,,,,,,,,,,,,,,,,,,,,,,,,,,,,,,,,,,,,,,,,,,,,,,,,,,,,,,,,,,,,,,,,,,,,,,,,,,,,,,,,,,,,,,,,,,,,,,,,,,,,,,,,,,,,,,,,,,,,,,,,,,,,,,,,,,,,,,,,,,,,,,,,,,,,,,,,,,,,,,,,,,
0,79,79,69,1,,6093e92dd23145f26f9bf2e6,62c53a81e76ea1e86072de72,2022-07-06_10h32.34.472,Colour_Asymmetry_Pilot,2022.1.3,Win32,59.60185958,62c50e9c1127f2cd403a315f,,,,,,,,,,,,,,,,,,,,,,,,,,,,,,,,,,,,,,,,,,,,,,,,,,,,,,,,,,,,,,,,,,,,,,,,,,,,,,,,,,,,,,,,,,,,,,,,,,,,,,,,,,,,,,,,,,,,,,,,,,,,,,,,,,,,,,,,,,,,,,,,,,,,,,,,,,,,,,,,,,
0,80,80,29,1,,6093e92dd23145f26f9bf2e6,62c53a81e76ea1e86072de72,2022-07-06_10h32.34.472,Colour_Asymmetry_Pilot,2022.1.3,Win32,59.60185958,62c50e9c1127f2cd403a315f,,,,,,,,,,,,,,,,,,,,,,,,,,,,,,,,,,,,,,,,,,,,,,,,,,,,,,,,,,,,,,,,,,,,,,,,,,,,,,,,,,,,,,,,,,,,,,,,,,,,,,,,,,,,,,,,,,,,,,,,,,,,,,,,,,,,,,,,,,,,,,,,,,,,,,,,,,,,,,,,,,
0,81,81,40,1,,6093e92dd23145f26f9bf2e6,62c53a81e76ea1e86072de72,2022-07-06_10h32.34.472,Colour_Asymmetry_Pilot,2022.1.3,Win32,59.60185958,62c50e9c1127f2cd403a315f,,,,,,,,,,,,,,,,,,,,,,,,,,,,,,,,,,,,,,,,,,,,,,,,,,,,,,,,,,,,,,,,,,,,,,,,,,,,,,,,,,,,,,,,,,,,,,,,,,,,,,,,,,,,,,,,,,,,,,,,,,,,,,,,,,,,,,,,,,,,,,,,,,,,,,,,,,,,,,,,,,
0,82,82,67,1,,6093e92dd23145f26f9bf2e6,62c53a81e76ea1e86072de72,2022-07-06_10h32.34.472,Colour_Asymmetry_Pilot,2022.1.3,Win32,59.60185958,62c50e9c1127f2cd403a315f,,,,,,,,,,,,,,,,,,,,,,,,,,,,,,,,,,,,,,,,,,,,,,,,,,,,,,,,,,,,,,,,,,,,,,,,,,,,,,,,,,,,,,,,,,,,,,,,,,,,,,,,,,,,,,,,,,,,,,,,,,,,,,,,,,,,,,,,,,,,,,,,,,,,,,,,,,,,,,,,,,
0,83,83,42,1,,6093e92dd23145f26f9bf2e6,62c53a81e76ea1e86072de72,2022-07-06_10h32.34.472,Colour_Asymmetry_Pilot,2022.1.3,Win32,59.60185958,62c50e9c1127f2cd403a315f,,,,,,,,,,,,,,,,,,,,,,,,,,,,,,,,,,,,,,,,,,,,,,,,,,,,,,,,,,,,,,,,,,,,,,,,,,,,,,,,,,,,,,,,,,,,,,,,,,,,,,,,,,,,,,,,,,,,,,,,,,,,,,,,,,,,,,,,,,,,,,,,,,,,,,,,,,,,,,,,,,
0,84,84,71,1,,6093e92dd23145f26f9bf2e6,62c53a81e76ea1e86072de72,2022-07-06_10h32.34.472,Colour_Asymmetry_Pilot,2022.1.3,Win32,59.60185958,62c50e9c1127f2cd403a315f,,,,,,,,,,,,,,,,,,,,,,,,,,,,,,,,,,,,,,,,,,,,,,,,,,,,,,,,,,,,,,,,,,,,,,,,,,,,,,,,,,,,,,,,,,,,,,,,,,,,,,,,,,,,,,,,,,,,,,,,,,,,,,,,,,,,,,,,,,,,,,,,,,,,,,,,,,,,,,,,,,
0,85,85,73,1,,6093e92dd23145f26f9bf2e6,62c53a81e76ea1e86072de72,2022-07-06_10h32.34.472,Colour_Asymmetry_Pilot,2022.1.3,Win32,59.60185958,62c50e9c1127f2cd403a315f,,,,,,,,,,,,,,,,,,,,,,,,,,,,,,,,,,,,,,,,,,,,,,,,,,,,,,,,,,,,,,,,,,,,,,,,,,,,,,,,,,,,,,,,,,,,,,,,,,,,,,,,,,,,,,,,,,,,,,,,,,,,,,,,,,,,,,,,,,,,,,,,,,,,,,,,,,,,,,,,,,
0,86,86,35,1,,6093e92dd23145f26f9bf2e6,62c53a81e76ea1e86072de72,2022-07-06_10h32.34.472,Colour_Asymmetry_Pilot,2022.1.3,Win32,59.60185958,62c50e9c1127f2cd403a315f,,,,,,,,,,,,,,,,,,,,,,,,,,,,,,,,,,,,,,,,,,,,,,,,,,,,,,,,,,,,,,,,,,,,,,,,,,,,,,,,,,,,,,,,,,,,,,,,,,,,,,,,,,,,,,,,,,,,,,,,,,,,,,,,,,,,,,,,,,,,,,,,,,,,,,,,,,,,,,,,,,
0,87,87,70,1,,6093e92dd23145f26f9bf2e6,62c53a81e76ea1e86072de72,2022-07-06_10h32.34.472,Colour_Asymmetry_Pilot,2022.1.3,Win32,59.60185958,62c50e9c1127f2cd403a315f,,,,,,,,,,,,,,,,,,,,,,,,,,,,,,,,,,,,,,,,,,,,,,,,,,,,,,,,,,,,,,,,,,,,,,,,,,,,,,,,,,,,,,,,,,,,,,,,,,,,,,,,,,,,,,,,,,,,,,,,,,,,,,,,,,,,,,,,,,,,,,,,,,,,,,,,,,,,,,,,,,
0,88,88,47,1,,6093e92dd23145f26f9bf2e6,62c53a81e76ea1e86072de72,2022-07-06_10h32.34.472,Colour_Asymmetry_Pilot,2022.1.3,Win32,59.60185958,62c50e9c1127f2cd403a315f,,,,,,,,,,,,,,,,,,,,,,,,,,,,,,,,,,,,,,,,,,,,,,,,,,,,,,,,,,,,,,,,,,,,,,,,,,,,,,,,,,,,,,,,,,,,,,,,,,,,,,,,,,,,,,,,,,,,,,,,,,,,,,,,,,,,,,,,,,,,,,,,,,,,,,,,,,,,,,,,,,
0,89,89,5,1,,6093e92dd23145f26f9bf2e6,62c53a81e76ea1e86072de72,2022-07-06_10h32.34.472,Colour_Asymmetry_Pilot,2022.1.3,Win32,59.60185958,62c50e9c1127f2cd403a315f,,,,,,,,,,,,,,,,,,,,,,,,,,,,,,,,,,,,,,,,,,,,,,,,,,,,,,,,,,,,,,,,,,,,,,,,,,,,,,,,,,,,,,,,,,,,,,,,,,,,,,,,,,,,,,,,,,,,,,,,,,,,,,,,,,,,,,,,,,,,,,,,,,,,,,,,,,,,,,,,,,
0,90,90,60,1,,6093e92dd23145f26f9bf2e6,62c53a81e76ea1e86072de72,2022-07-06_10h32.34.472,Colour_Asymmetry_Pilot,2022.1.3,Win32,59.60185958,62c50e9c1127f2cd403a315f,,,,,,,,,,,,,,,,,,,,,,,,,,,,,,,,,,,,,,,,,,,,,,,,,,,,,,,,,,,,,,,,,,,,,,,,,,,,,,,,,,,,,,,,,,,,,,,,,,,,,,,,,,,,,,,,,,,,,,,,,,,,,,,,,,,,,,,,,,,,,,,,,,,,,,,,,,,,,,,,,,
0,91,91,57,1,,6093e92dd23145f26f9bf2e6,62c53a81e76ea1e86072de72,2022-07-06_10h32.34.472,Colour_Asymmetry_Pilot,2022.1.3,Win32,59.60185958,62c50e9c1127f2cd403a315f,,,,,,,,,,,,,,,,,,,,,,,,,,,,,,,,,,,,,,,,,,,,,,,,,,,,,,,,,,,,,,,,,,,,,,,,,,,,,,,,,,,,,,,,,,,,,,,,,,,,,,,,,,,,,,,,,,,,,,,,,,,,,,,,,,,,,,,,,,,,,,,,,,,,,,,,,,,,,,,,,,
0,92,92,23,1,,6093e92dd23145f26f9bf2e6,62c53a81e76ea1e86072de72,2022-07-06_10h32.34.472,Colour_Asymmetry_Pilot,2022.1.3,Win32,59.60185958,62c50e9c1127f2cd403a315f,,,,,,,,,,,,,,,,,,,,,,,,,,,,,,,,,,,,,,,,,,,,,,,,,,,,,,,,,,,,,,,,,,,,,,,,,,,,,,,,,,,,,,,,,,,,,,,,,,,,,,,,,,,,,,,,,,,,,,,,,,,,,,,,,,,,,,,,,,,,,,,,,,,,,,,,,,,,,,,,,,
,,,,,,6093e92dd23145f26f9bf2e6,62c53a81e76ea1e86072de72,2022-07-06_10h32.34.472,Colour_Asymmetry_Pilot,2022.1.3,Win32,59.60185958,62c50e9c1127f2cd403a315f,0,0,0,61,1,threefour,,,,,,,,,,,,,,,,,,,,,,,,,,,,,,,,,,,,,,,,,,,,,,,,,,,,,,,,,,,,,,,,,,,,,,,,,,,,,,,,,,,,,,,,,,,,,,,,,,,,,,,,,,,,,,,,,,,,,,,,,,,,,,,,,,,,,,,,,,,,,,,,,,,,,,,,,,,,
,,,,,,6093e92dd23145f26f9bf2e6,62c53a81e76ea1e86072de72,2022-07-06_10h32.34.472,Colour_Asymmetry_Pilot,2022.1.3,Win32,59.60185958,62c50e9c1127f2cd403a315f,0,1,1,60,1,threeone,,,,,,,,,,,,,,,,,,,,,,,,,,,,,,,,,,,,,,,,,,,,,,,,,,,,,,,,,,,,,,,,,,,,,,,,,,,,,,,,,,,,,,,,,,,,,,,,,,,,,,,,,,,,,,,,,,,,,,,,,,,,,,,,,,,,,,,,,,,,,,,,,,,,,,,,,,,,
,,,,,,6093e92dd23145f26f9bf2e6,62c53a81e76ea1e86072de72,2022-07-06_10h32.34.472,Colour_Asymmetry_Pilot,2022.1.3,Win32,59.60185958,62c50e9c1127f2cd403a315f,0,2,2,155,1,twofour,,,,,,,,,,,,,,,,,,,,,,,,,,,,,,,,,,,,,,,,,,,,,,,,,,,,,,,,,,,,,,,,,,,,,,,,,,,,,,,,,,,,,,,,,,,,,,,,,,,,,,,,,,,,,,,,,,,,,,,,,,,,,,,,,,,,,,,,,,,,,,,,,,,,,,,,,,,,
,,,,,,6093e92dd23145f26f9bf2e6,62c53a81e76ea1e86072de72,2022-07-06_10h32.34.472,Colour_Asymmetry_Pilot,2022.1.3,Win32,59.60185958,62c50e9c1127f2cd403a315f,0,3,3,36,1,threeone,,,,,,,,,,,,,,,,,,,,,,,,,,,,,,,,,,,,,,,,,,,,,,,,,,,,,,,,,,,,,,,,,,,,,,,,,,,,,,,,,,,,,,,,,,,,,,,,,,,,,,,,,,,,,,,,,,,,,,,,,,,,,,,,,,,,,,,,,,,,,,,,,,,,,,,,,,,,
,,,,,,6093e92dd23145f26f9bf2e6,62c53a81e76ea1e86072de72,2022-07-06_10h32.34.472,Colour_Asymmetry_Pilot,2022.1.3,Win32,59.60185958,62c50e9c1127f2cd403a315f,0,4,4,31,1,fourthree,,,,,,,,,,,,,,,,,,,,,,,,,,,,,,,,,,,,,,,,,,,,,,,,,,,,,,,,,,,,,,,,,,,,,,,,,,,,,,,,,,,,,,,,,,,,,,,,,,,,,,,,,,,,,,,,,,,,,,,,,,,,,,,,,,,,,,,,,,,,,,,,,,,,,,,,,,,,
,,,,,,6093e92dd23145f26f9bf2e6,62c53a81e76ea1e86072de72,2022-07-06_10h32.34.472,Colour_Asymmetry_Pilot,2022.1.3,Win32,59.60185958,62c50e9c1127f2cd403a315f,0,5,5,151,1,fourthree,,,,,,,,,,,,,,,,,,,,,,,,,,,,,,,,,,,,,,,,,,,,,,,,,,,,,,,,,,,,,,,,,,,,,,,,,,,,,,,,,,,,,,,,,,,,,,,,,,,,,,,,,,,,,,,,,,,,,,,,,,,,,,,,,,,,,,,,,,,,,,,,,,,,,,,,,,,,
,,,,,,6093e92dd23145f26f9bf2e6,62c53a81e76ea1e86072de72,2022-07-06_10h32.34.472,Colour_Asymmetry_Pilot,2022.1.3,Win32,59.60185958,62c50e9c1127f2cd403a315f,0,6,6,43,1,twofour,,,,,,,,,,,,,,,,,,,,,,,,,,,,,,,,,,,,,,,,,,,,,,,,,,,,,,,,,,,,,,,,,,,,,,,,,,,,,,,,,,,,,,,,,,,,,,,,,,,,,,,,,,,,,,,,,,,,,,,,,,,,,,,,,,,,,,,,,,,,,,,,,,,,,,,,,,,,
,,,,,,6093e92dd23145f26f9bf2e6,62c53a81e76ea1e86072de72,2022-07-06_10h32.34.472,Colour_Asymmetry_Pilot,2022.1.3,Win32,59.60185958,62c50e9c1127f2cd403a315f,0,7,7,93,1,threefour,,,,,,,,,,,,,,,,,,,,,,,,,,,,,,,,,,,,,,,,,,,,,,,,,,,,,,,,,,,,,,,,,,,,,,,,,,,,,,,,,,,,,,,,,,,,,,,,,,,,,,,,,,,,,,,,,,,,,,,,,,,,,,,,,,,,,,,,,,,,,,,,,,,,,,,,,,,,
,,,,,,6093e92dd23145f26f9bf2e6,62c53a81e76ea1e86072de72,2022-07-06_10h32.34.472,Colour_Asymmetry_Pilot,2022.1.3,Win32,59.60185958,62c50e9c1127f2cd403a315f,0,8,8,40,1,onetwo,,,,,,,,,,,,,,,,,,,,,,,,,,,,,,,,,,,,,,,,,,,,,,,,,,,,,,,,,,,,,,,,,,,,,,,,,,,,,,,,,,,,,,,,,,,,,,,,,,,,,,,,,,,,,,,,,,,,,,,,,,,,,,,,,,,,,,,,,,,,,,,,,,,,,,,,,,,,
,,,,,,6093e92dd23145f26f9bf2e6,62c53a81e76ea1e86072de72,2022-07-06_10h32.34.472,Colour_Asymmetry_Pilot,2022.1.3,Win32,59.60185958,62c50e9c1127f2cd403a315f,0,9,9,4,1,threeone,,,,,,,,,,,,,,,,,,,,,,,,,,,,,,,,,,,,,,,,,,,,,,,,,,,,,,,,,,,,,,,,,,,,,,,,,,,,,,,,,,,,,,,,,,,,,,,,,,,,,,,,,,,,,,,,,,,,,,,,,,,,,,,,,,,,,,,,,,,,,,,,,,,,,,,,,,,,
,,,,,,6093e92dd23145f26f9bf2e6,62c53a81e76ea1e86072de72,2022-07-06_10h32.34.472,Colour_Asymmetry_Pilot,2022.1.3,Win32,59.60185958,62c50e9c1127f2cd403a315f,0,10,10,88,1,onetwo,,,,,,,,,,,,,,,,,,,,,,,,,,,,,,,,,,,,,,,,,,,,,,,,,,,,,,,,,,,,,,,,,,,,,,,,,,,,,,,,,,,,,,,,,,,,,,,,,,,,,,,,,,,,,,,,,,,,,,,,,,,,,,,,,,,,,,,,,,,,,,,,,,,,,,,,,,,,
,,,,,,6093e92dd23145f26f9bf2e6,62c53a81e76ea1e86072de72,2022-07-06_10h32.34.472,Colour_Asymmetry_Pilot,2022.1.3,Win32,59.60185958,62c50e9c1127f2cd403a315f,0,11,11,87,1,fourthree,,,,,,,,,,,,,,,,,,,,,,,,,,,,,,,,,,,,,,,,,,,,,,,,,,,,,,,,,,,,,,,,,,,,,,,,,,,,,,,,,,,,,,,,,,,,,,,,,,,,,,,,,,,,,,,,,,,,,,,,,,,,,,,,,,,,,,,,,,,,,,,,,,,,,,,,,,,,
,,,,,,6093e92dd23145f26f9bf2e6,62c53a81e76ea1e86072de72,2022-07-06_10h32.34.472,Colour_Asymmetry_Pilot,2022.1.3,Win32,59.60185958,62c50e9c1127f2cd403a315f,0,12,12,102,1,fourtwo,,,,,,,,,,,,,,,,,,,,,,,,,,,,,,,,,,,,,,,,,,,,,,,,,,,,,,,,,,,,,,,,,,,,,,,,,,,,,,,,,,,,,,,,,,,,,,,,,,,,,,,,,,,,,,,,,,,,,,,,,,,,,,,,,,,,,,,,,,,,,,,,,,,,,,,,,,,,
,,,,,,6093e92dd23145f26f9bf2e6,62c53a81e76ea1e86072de72,2022-07-06_10h32.34.472,Colour_Asymmetry_Pilot,2022.1.3,Win32,59.60185958,62c50e9c1127f2cd403a315f,0,13,13,117,1,threefour,,,,,,,,,,,,,,,,,,,,,,,,,,,,,,,,,,,,,,,,,,,,,,,,,,,,,,,,,,,,,,,,,,,,,,,,,,,,,,,,,,,,,,,,,,,,,,,,,,,,,,,,,,,,,,,,,,,,,,,,,,,,,,,,,,,,,,,,,,,,,,,,,,,,,,,,,,,,
,,,,,,6093e92dd23145f26f9bf2e6,62c53a81e76ea1e86072de72,2022-07-06_10h32.34.472,Colour_Asymmetry_Pilot,2022.1.3,Win32,59.60185958,62c50e9c1127f2cd403a315f,0,14,14,15,1,fourthree,,,,,,,,,,,,,,,,,,,,,,,,,,,,,,,,,,,,,,,,,,,,,,,,,,,,,,,,,,,,,,,,,,,,,,,,,,,,,,,,,,,,,,,,,,,,,,,,,,,,,,,,,,,,,,,,,,,,,,,,,,,,,,,,,,,,,,,,,,,,,,,,,,,,,,,,,,,,
,,,,,,6093e92dd23145f26f9bf2e6,62c53a81e76ea1e86072de72,2022-07-06_10h32.34.472,Colour_Asymmetry_Pilot,2022.1.3,Win32,59.60185958,62c50e9c1127f2cd403a315f,0,15,15,141,1,threefour,,,,,,,,,,,,,,,,,,,,,,,,,,,,,,,,,,,,,,,,,,,,,,,,,,,,,,,,,,,,,,,,,,,,,,,,,,,,,,,,,,,,,,,,,,,,,,,,,,,,,,,,,,,,,,,,,,,,,,,,,,,,,,,,,,,,,,,,,,,,,,,,,,,,,,,,,,,,
,,,,,,6093e92dd23145f26f9bf2e6,62c53a81e76ea1e86072de72,2022-07-06_10h32.34.472,Colour_Asymmetry_Pilot,2022.1.3,Win32,59.60185958,62c50e9c1127f2cd403a315f,0,16,16,140,1,threeone,,,,,,,,,,,,,,,,,,,,,,,,,,,,,,,,,,,,,,,,,,,,,,,,,,,,,,,,,,,,,,,,,,,,,,,,,,,,,,,,,,,,,,,,,,,,,,,,,,,,,,,,,,,,,,,,,,,,,,,,,,,,,,,,,,,,,,,,,,,,,,,,,,,,,,,,,,,,
,,,,,,6093e92dd23145f26f9bf2e6,62c53a81e76ea1e86072de72,2022-07-06_10h32.34.472,Colour_Asymmetry_Pilot,2022.1.3,Win32,59.60185958,62c50e9c1127f2cd403a315f,0,17,17,124,1,threeone,,,,,,,,,,,,,,,,,,,,,,,,,,,,,,,,,,,,,,,,,,,,,,,,,,,,,,,,,,,,,,,,,,,,,,,,,,,,,,,,,,,,,,,,,,,,,,,,,,,,,,,,,,,,,,,,,,,,,,,,,,,,,,,,,,,,,,,,,,,,,,,,,,,,,,,,,,,,
,,,,,,6093e92dd23145f26f9bf2e6,62c53a81e76ea1e86072de72,2022-07-06_10h32.34.472,Colour_Asymmetry_Pilot,2022.1.3,Win32,59.60185958,62c50e9c1127f2cd403a315f,0,18,18,89,1,onethree,,,,,,,,,,,,,,,,,,,,,,,,,,,,,,,,,,,,,,,,,,,,,,,,,,,,,,,,,,,,,,,,,,,,,,,,,,,,,,,,,,,,,,,,,,,,,,,,,,,,,,,,,,,,,,,,,,,,,,,,,,,,,,,,,,,,,,,,,,,,,,,,,,,,,,,,,,,,
,,,,,,6093e92dd23145f26f9bf2e6,62c53a81e76ea1e86072de72,2022-07-06_10h32.34.472,Colour_Asymmetry_Pilot,2022.1.3,Win32,59.60185958,62c50e9c1127f2cd403a315f,0,19,19,113,1,onethree,,,,,,,,,,,,,,,,,,,,,,,,,,,,,,,,,,,,,,,,,,,,,,,,,,,,,,,,,,,,,,,,,,,,,,,,,,,,,,,,,,,,,,,,,,,,,,,,,,,,,,,,,,,,,,,,,,,,,,,,,,,,,,,,,,,,,,,,,,,,,,,,,,,,,,,,,,,,
,,,,,,6093e92dd23145f26f9bf2e6,62c53a81e76ea1e86072de72,2022-07-06_10h32.34.472,Colour_Asymmetry_Pilot,2022.1.3,Win32,59.60185958,62c50e9c1127f2cd403a315f,0,20,20,26,1,twoone,,,,,,,,,,,,,,,,,,,,,,,,,,,,,,,,,,,,,,,,,,,,,,,,,,,,,,,,,,,,,,,,,,,,,,,,,,,,,,,,,,,,,,,,,,,,,,,,,,,,,,,,,,,,,,,,,,,,,,,,,,,,,,,,,,,,,,,,,,,,,,,,,,,,,,,,,,,,
,,,,,,6093e92dd23145f26f9bf2e6,62c53a81e76ea1e86072de72,2022-07-06_10h32.34.472,Colour_Asymmetry_Pilot,2022.1.3,Win32,59.60185958,62c50e9c1127f2cd403a315f,0,21,21,131,1,twofour,,,,,,,,,,,,,,,,,,,,,,,,,,,,,,,,,,,,,,,,,,,,,,,,,,,,,,,,,,,,,,,,,,,,,,,,,,,,,,,,,,,,,,,,,,,,,,,,,,,,,,,,,,,,,,,,,,,,,,,,,,,,,,,,,,,,,,,,,,,,,,,,,,,,,,,,,,,,
,,,,,,6093e92dd23145f26f9bf2e6,62c53a81e76ea1e86072de72,2022-07-06_10h32.34.472,Colour_Asymmetry_Pilot,2022.1.3,Win32,59.60185958,62c50e9c1127f2cd403a315f,0,22,22,81,1,onethree,,,,,,,,,,,,,,,,,,,,,,,,,,,,,,,,,,,,,,,,,,,,,,,,,,,,,,,,,,,,,,,,,,,,,,,,,,,,,,,,,,,,,,,,,,,,,,,,,,,,,,,,,,,,,,,,,,,,,,,,,,,,,,,,,,,,,,,,,,,,,,,,,,,,,,,,,,,,
,,,,,,6093e92dd23145f26f9bf2e6,62c53a81e76ea1e86072de72,2022-07-06_10h32.34.472,Colour_Asymmetry_Pilot,2022.1.3,Win32,59.60185958,62c50e9c1127f2cd403a315f,0,23,23,112,1,onetwo,,,,,,,,,,,,,,,,,,,,,,,,,,,,,,,,,,,,,,,,,,,,,,,,,,,,,,,,,,,,,,,,,,,,,,,,,,,,,,,,,,,,,,,,,,,,,,,,,,,,,,,,,,,,,,,,,,,,,,,,,,,,,,,,,,,,,,,,,,,,,,,,,,,,,,,,,,,,
,,,,,,6093e92dd23145f26f9bf2e6,62c53a81e76ea1e86072de72,2022-07-06_10h32.34.472,Colour_Asymmetry_Pilot,2022.1.3,Win32,59.60185958,62c50e9c1127f2cd403a315f,0,24,24,30,1,fourtwo,,,,,,,,,,,,,,,,,,,,,,,,,,,,,,,,,,,,,,,,,,,,,,,,,,,,,,,,,,,,,,,,,,,,,,,,,,,,,,,,,,,,,,,,,,,,,,,,,,,,,,,,,,,,,,,,,,,,,,,,,,,,,,,,,,,,,,,,,,,,,,,,,,,,,,,,,,,,
,,,,,,6093e92dd23145f26f9bf2e6,62c53a81e76ea1e86072de72,2022-07-06_10h32.34.472,Colour_Asymmetry_Pilot,2022.1.3,Win32,59.60185958,62c50e9c1127f2cd403a315f,0,25,25,129,1,onethree,,,,,,,,,,,,,,,,,,,,,,,,,,,,,,,,,,,,,,,,,,,,,,,,,,,,,,,,,,,,,,,,,,,,,,,,,,,,,,,,,,,,,,,,,,,,,,,,,,,,,,,,,,,,,,,,,,,,,,,,,,,,,,,,,,,,,,,,,,,,,,,,,,,,,,,,,,,,
,,,,,,6093e92dd23145f26f9bf2e6,62c53a81e76ea1e86072de72,2022-07-06_10h32.34.472,Colour_Asymmetry_Pilot,2022.1.3,Win32,59.60185958,62c50e9c1127f2cd403a315f,0,26,26,135,1,fourthree,,,,,,,,,,,,,,,,,,,,,,,,,,,,,,,,,,,,,,,,,,,,,,,,,,,,,,,,,,,,,,,,,,,,,,,,,,,,,,,,,,,,,,,,,,,,,,,,,,,,,,,,,,,,,,,,,,,,,,,,,,,,,,,,,,,,,,,,,,,,,,,,,,,,,,,,,,,,
,,,,,,6093e92dd23145f26f9bf2e6,62c53a81e76ea1e86072de72,2022-07-06_10h32.34.472,Colour_Asymmetry_Pilot,2022.1.3,Win32,59.60185958,62c50e9c1127f2cd403a315f,0,27,27,101,1,threefour,,,,,,,,,,,,,,,,,,,,,,,,,,,,,,,,,,,,,,,,,,,,,,,,,,,,,,,,,,,,,,,,,,,,,,,,,,,,,,,,,,,,,,,,,,,,,,,,,,,,,,,,,,,,,,,,,,,,,,,,,,,,,,,,,,,,,,,,,,,,,,,,,,,,,,,,,,,,
,,,,,,6093e92dd23145f26f9bf2e6,62c53a81e76ea1e86072de72,2022-07-06_10h32.34.472,Colour_Asymmetry_Pilot,2022.1.3,Win32,59.60185958,62c50e9c1127f2cd403a315f,0,28,28,59,1,twofour,,,,,,,,,,,,,,,,,,,,,,,,,,,,,,,,,,,,,,,,,,,,,,,,,,,,,,,,,,,,,,,,,,,,,,,,,,,,,,,,,,,,,,,,,,,,,,,,,,,,,,,,,,,,,,,,,,,,,,,,,,,,,,,,,,,,,,,,,,,,,,,,,,,,,,,,,,,,
,,,,,,6093e92dd23145f26f9bf2e6,62c53a81e76ea1e86072de72,2022-07-06_10h32.34.472,Colour_Asymmetry_Pilot,2022.1.3,Win32,59.60185958,62c50e9c1127f2cd403a315f,0,29,29,33,1,onethree,,,,,,,,,,,,,,,,,,,,,,,,,,,,,,,,,,,,,,,,,,,,,,,,,,,,,,,,,,,,,,,,,,,,,,,,,,,,,,,,,,,,,,,,,,,,,,,,,,,,,,,,,,,,,,,,,,,,,,,,,,,,,,,,,,,,,,,,,,,,,,,,,,,,,,,,,,,,
,,,,,,6093e92dd23145f26f9bf2e6,62c53a81e76ea1e86072de72,2022-07-06_10h32.34.472,Colour_Asymmetry_Pilot,2022.1.3,Win32,59.60185958,62c50e9c1127f2cd403a315f,0,30,30,95,1,fourthree,,,,,,,,,,,,,,,,,,,,,,,,,,,,,,,,,,,,,,,,,,,,,,,,,,,,,,,,,,,,,,,,,,,,,,,,,,,,,,,,,,,,,,,,,,,,,,,,,,,,,,,,,,,,,,,,,,,,,,,,,,,,,,,,,,,,,,,,,,,,,,,,,,,,,,,,,,,,
,,,,,,6093e92dd23145f26f9bf2e6,62c53a81e76ea1e86072de72,2022-07-06_10h32.34.472,Colour_Asymmetry_Pilot,2022.1.3,Win32,59.60185958,62c50e9c1127f2cd403a315f,0,31,31,57,1,onethree,,,,,,,,,,,,,,,,,,,,,,,,,,,,,,,,,,,,,,,,,,,,,,,,,,,,,,,,,,,,,,,,,,,,,,,,,,,,,,,,,,,,,,,,,,,,,,,,,,,,,,,,,,,,,,,,,,,,,,,,,,,,,,,,,,,,,,,,,,,,,,,,,,,,,,,,,,,,
,,,,,,6093e92dd23145f26f9bf2e6,62c53a81e76ea1e86072de72,2022-07-06_10h32.34.472,Colour_Asymmetry_Pilot,2022.1.3,Win32,59.60185958,62c50e9c1127f2cd403a315f,0,32,32,23,1,fourthree,,,,,,,,,,,,,,,,,,,,,,,,,,,,,,,,,,,,,,,,,,,,,,,,,,,,,,,,,,,,,,,,,,,,,,,,,,,,,,,,,,,,,,,,,,,,,,,,,,,,,,,,,,,,,,,,,,,,,,,,,,,,,,,,,,,,,,,,,,,,,,,,,,,,,,,,,,,,
,,,,,,6093e92dd23145f26f9bf2e6,62c53a81e76ea1e86072de72,2022-07-06_10h32.34.472,Colour_Asymmetry_Pilot,2022.1.3,Win32,59.60185958,62c50e9c1127f2cd403a315f,0,33,33,147,1,twofour,,,,,,,,,,,,,,,,,,,,,,,,,,,,,,,,,,,,,,,,,,,,,,,,,,,,,,,,,,,,,,,,,,,,,,,,,,,,,,,,,,,,,,,,,,,,,,,,,,,,,,,,,,,,,,,,,,,,,,,,,,,,,,,,,,,,,,,,,,,,,,,,,,,,,,,,,,,,
,,,,,,6093e92dd23145f26f9bf2e6,62c53a81e76ea1e86072de72,2022-07-06_10h32.34.472,Colour_Asymmetry_Pilot,2022.1.3,Win32,59.60185958,62c50e9c1127f2cd403a315f,0,34,34,128,1,onetwo,,,,,,,,,,,,,,,,,,,,,,,,,,,,,,,,,,,,,,,,,,,,,,,,,,,,,,,,,,,,,,,,,,,,,,,,,,,,,,,,,,,,,,,,,,,,,,,,,,,,,,,,,,,,,,,,,,,,,,,,,,,,,,,,,,,,,,,,,,,,,,,,,,,,,,,,,,,,
,,,,,,6093e92dd23145f26f9bf2e6,62c53a81e76ea1e86072de72,2022-07-06_10h32.34.472,Colour_Asymmetry_Pilot,2022.1.3,Win32,59.60185958,62c50e9c1127f2cd403a315f,0,35,35,18,1,twoone,,,,,,,,,,,,,,,,,,,,,,,,,,,,,,,,,,,,,,,,,,,,,,,,,,,,,,,,,,,,,,,,,,,,,,,,,,,,,,,,,,,,,,,,,,,,,,,,,,,,,,,,,,,,,,,,,,,,,,,,,,,,,,,,,,,,,,,,,,,,,,,,,,,,,,,,,,,,
,,,,,,6093e92dd23145f26f9bf2e6,62c53a81e76ea1e86072de72,2022-07-06_10h32.34.472,Colour_Asymmetry_Pilot,2022.1.3,Win32,59.60185958,62c50e9c1127f2cd403a315f,0,36,36,115,1,twofour,,,,,,,,,,,,,,,,,,,,,,,,,,,,,,,,,,,,,,,,,,,,,,,,,,,,,,,,,,,,,,,,,,,,,,,,,,,,,,,,,,,,,,,,,,,,,,,,,,,,,,,,,,,,,,,,,,,,,,,,,,,,,,,,,,,,,,,,,,,,,,,,,,,,,,,,,,,,
,,,,,,6093e92dd23145f26f9bf2e6,62c53a81e76ea1e86072de72,2022-07-06_10h32.34.472,Colour_Asymmetry_Pilot,2022.1.3,Win32,59.60185958,62c50e9c1127f2cd403a315f,0,37,37,92,1,threeone,,,,,,,,,,,,,,,,,,,,,,,,,,,,,,,,,,,,,,,,,,,,,,,,,,,,,,,,,,,,,,,,,,,,,,,,,,,,,,,,,,,,,,,,,,,,,,,,,,,,,,,,,,,,,,,,,,,,,,,,,,,,,,,,,,,,,,,,,,,,,,,,,,,,,,,,,,,,
,,,,,,6093e92dd23145f26f9bf2e6,62c53a81e76ea1e86072de72,2022-07-06_10h32.34.472,Colour_Asymmetry_Pilot,2022.1.3,Win32,59.60185958,62c50e9c1127f2cd403a315f,0,38,38,100,1,threeone,,,,,,,,,,,,,,,,,,,,,,,,,,,,,,,,,,,,,,,,,,,,,,,,,,,,,,,,,,,,,,,,,,,,,,,,,,,,,,,,,,,,,,,,,,,,,,,,,,,,,,,,,,,,,,,,,,,,,,,,,,,,,,,,,,,,,,,,,,,,,,,,,,,,,,,,,,,,
,,,,,,6093e92dd23145f26f9bf2e6,62c53a81e76ea1e86072de72,2022-07-06_10h32.34.472,Colour_Asymmetry_Pilot,2022.1.3,Win32,59.60185958,62c50e9c1127f2cd403a315f,0,39,39,21,1,threefour,,,,,,,,,,,,,,,,,,,,,,,,,,,,,,,,,,,,,,,,,,,,,,,,,,,,,,,,,,,,,,,,,,,,,,,,,,,,,,,,,,,,,,,,,,,,,,,,,,,,,,,,,,,,,,,,,,,,,,,,,,,,,,,,,,,,,,,,,,,,,,,,,,,,,,,,,,,,
,,,,,,6093e92dd23145f26f9bf2e6,62c53a81e76ea1e86072de72,2022-07-06_10h32.34.472,Colour_Asymmetry_Pilot,2022.1.3,Win32,59.60185958,62c50e9c1127f2cd403a315f,0,40,40,22,1,fourtwo,,,,,,,,,,,,,,,,,,,,,,,,,,,,,,,,,,,,,,,,,,,,,,,,,,,,,,,,,,,,,,,,,,,,,,,,,,,,,,,,,,,,,,,,,,,,,,,,,,,,,,,,,,,,,,,,,,,,,,,,,,,,,,,,,,,,,,,,,,,,,,,,,,,,,,,,,,,,
,,,,,,6093e92dd23145f26f9bf2e6,62c53a81e76ea1e86072de72,2022-07-06_10h32.34.472,Colour_Asymmetry_Pilot,2022.1.3,Win32,59.60185958,62c50e9c1127f2cd403a315f,0,41,41,104,1,onetwo,,,,,,,,,,,,,,,,,,,,,,,,,,,,,,,,,,,,,,,,,,,,,,,,,,,,,,,,,,,,,,,,,,,,,,,,,,,,,,,,,,,,,,,,,,,,,,,,,,,,,,,,,,,,,,,,,,,,,,,,,,,,,,,,,,,,,,,,,,,,,,,,,,,,,,,,,,,,
,,,,,,6093e92dd23145f26f9bf2e6,62c53a81e76ea1e86072de72,2022-07-06_10h32.34.472,Colour_Asymmetry_Pilot,2022.1.3,Win32,59.60185958,62c50e9c1127f2cd403a315f,0,42,42,29,1,threefour,,,,,,,,,,,,,,,,,,,,,,,,,,,,,,,,,,,,,,,,,,,,,,,,,,,,,,,,,,,,,,,,,,,,,,,,,,,,,,,,,,,,,,,,,,,,,,,,,,,,,,,,,,,,,,,,,,,,,,,,,,,,,,,,,,,,,,,,,,,,,,,,,,,,,,,,,,,,
,,,,,,6093e92dd23145f26f9bf2e6,62c53a81e76ea1e86072de72,2022-07-06_10h32.34.472,Colour_Asymmetry_Pilot,2022.1.3,Win32,59.60185958,62c50e9c1127f2cd403a315f,0,43,43,138,1,twoone,,,,,,,,,,,,,,,,,,,,,,,,,,,,,,,,,,,,,,,,,,,,,,,,,,,,,,,,,,,,,,,,,,,,,,,,,,,,,,,,,,,,,,,,,,,,,,,,,,,,,,,,,,,,,,,,,,,,,,,,,,,,,,,,,,,,,,,,,,,,,,,,,,,,,,,,,,,,
,,,,,,6093e92dd23145f26f9bf2e6,62c53a81e76ea1e86072de72,2022-07-06_10h32.34.472,Colour_Asymmetry_Pilot,2022.1.3,Win32,59.60185958,62c50e9c1127f2cd403a315f,0,44,44,103,1,fourthree,,,,,,,,,,,,,,,,,,,,,,,,,,,,,,,,,,,,,,,,,,,,,,,,,,,,,,,,,,,,,,,,,,,,,,,,,,,,,,,,,,,,,,,,,,,,,,,,,,,,,,,,,,,,,,,,,,,,,,,,,,,,,,,,,,,,,,,,,,,,,,,,,,,,,,,,,,,,
,,,,,,6093e92dd23145f26f9bf2e6,62c53a81e76ea1e86072de72,2022-07-06_10h32.34.472,Colour_Asymmetry_Pilot,2022.1.3,Win32,59.60185958,62c50e9c1127f2cd403a315f,0,45,45,44,1,threeone,,,,,,,,,,,,,,,,,,,,,,,,,,,,,,,,,,,,,,,,,,,,,,,,,,,,,,,,,,,,,,,,,,,,,,,,,,,,,,,,,,,,,,,,,,,,,,,,,,,,,,,,,,,,,,,,,,,,,,,,,,,,,,,,,,,,,,,,,,,,,,,,,,,,,,,,,,,,
,,,,,,6093e92dd23145f26f9bf2e6,62c53a81e76ea1e86072de72,2022-07-06_10h32.34.472,Colour_Asymmetry_Pilot,2022.1.3,Win32,59.60185958,62c50e9c1127f2cd403a315f,0,46,46,42,1,twoone,,,,,,,,,,,,,,,,,,,,,,,,,,,,,,,,,,,,,,,,,,,,,,,,,,,,,,,,,,,,,,,,,,,,,,,,,,,,,,,,,,,,,,,,,,,,,,,,,,,,,,,,,,,,,,,,,,,,,,,,,,,,,,,,,,,,,,,,,,,,,,,,,,,,,,,,,,,,
,,,,,,6093e92dd23145f26f9bf2e6,62c53a81e76ea1e86072de72,2022-07-06_10h32.34.472,Colour_Asymmetry_Pilot,2022.1.3,Win32,59.60185958,62c50e9c1127f2cd403a315f,0,47,47,99,1,twofour,,,,,,,,,,,,,,,,,,,,,,,,,,,,,,,,,,,,,,,,,,,,,,,,,,,,,,,,,,,,,,,,,,,,,,,,,,,,,,,,,,,,,,,,,,,,,,,,,,,,,,,,,,,,,,,,,,,,,,,,,,,,,,,,,,,,,,,,,,,,,,,,,,,,,,,,,,,,
,,,,,,6093e92dd23145f26f9bf2e6,62c53a81e76ea1e86072de72,2022-07-06_10h32.34.472,Colour_Asymmetry_Pilot,2022.1.3,Win32,59.60185958,62c50e9c1127f2cd403a315f,0,48,48,6,1,fourtwo,,,,,,,,,,,,,,,,,,,,,,,,,,,,,,,,,,,,,,,,,,,,,,,,,,,,,,,,,,,,,,,,,,,,,,,,,,,,,,,,,,,,,,,,,,,,,,,,,,,,,,,,,,,,,,,,,,,,,,,,,,,,,,,,,,,,,,,,,,,,,,,,,,,,,,,,,,,,
,,,,,,6093e92dd23145f26f9bf2e6,62c53a81e76ea1e86072de72,2022-07-06_10h32.34.472,Colour_Asymmetry_Pilot,2022.1.3,Win32,59.60185958,62c50e9c1127f2cd403a315f,0,49,49,153,1,onethree,,,,,,,,,,,,,,,,,,,,,,,,,,,,,,,,,,,,,,,,,,,,,,,,,,,,,,,,,,,,,,,,,,,,,,,,,,,,,,,,,,,,,,,,,,,,,,,,,,,,,,,,,,,,,,,,,,,,,,,,,,,,,,,,,,,,,,,,,,,,,,,,,,,,,,,,,,,,
,,,,,,6093e92dd23145f26f9bf2e6,62c53a81e76ea1e86072de72,2022-07-06_10h32.34.472,Colour_Asymmetry_Pilot,2022.1.3,Win32,59.60185958,62c50e9c1127f2cd403a315f,0,50,50,52,1,threeone,,,,,,,,,,,,,,,,,,,,,,,,,,,,,,,,,,,,,,,,,,,,,,,,,,,,,,,,,,,,,,,,,,,,,,,,,,,,,,,,,,,,,,,,,,,,,,,,,,,,,,,,,,,,,,,,,,,,,,,,,,,,,,,,,,,,,,,,,,,,,,,,,,,,,,,,,,,,
,,,,,,6093e92dd23145f26f9bf2e6,62c53a81e76ea1e86072de72,2022-07-06_10h32.34.472,Colour_Asymmetry_Pilot,2022.1.3,Win32,59.60185958,62c50e9c1127f2cd403a315f,0,51,51,74,1,twoone,,,,,,,,,,,,,,,,,,,,,,,,,,,,,,,,,,,,,,,,,,,,,,,,,,,,,,,,,,,,,,,,,,,,,,,,,,,,,,,,,,,,,,,,,,,,,,,,,,,,,,,,,,,,,,,,,,,,,,,,,,,,,,,,,,,,,,,,,,,,,,,,,,,,,,,,,,,,
,,,,,,6093e92dd23145f26f9bf2e6,62c53a81e76ea1e86072de72,2022-07-06_10h32.34.472,Colour_Asymmetry_Pilot,2022.1.3,Win32,59.60185958,62c50e9c1127f2cd403a315f,0,52,52,86,1,fourtwo,,,,,,,,,,,,,,,,,,,,,,,,,,,,,,,,,,,,,,,,,,,,,,,,,,,,,,,,,,,,,,,,,,,,,,,,,,,,,,,,,,,,,,,,,,,,,,,,,,,,,,,,,,,,,,,,,,,,,,,,,,,,,,,,,,,,,,,,,,,,,,,,,,,,,,,,,,,,
,,,,,,6093e92dd23145f26f9bf2e6,62c53a81e76ea1e86072de72,2022-07-06_10h32.34.472,Colour_Asymmetry_Pilot,2022.1.3,Win32,59.60185958,62c50e9c1127f2cd403a315f,0,53,53,25,1,onethree,,,,,,,,,,,,,,,,,,,,,,,,,,,,,,,,,,,,,,,,,,,,,,,,,,,,,,,,,,,,,,,,,,,,,,,,,,,,,,,,,,,,,,,,,,,,,,,,,,,,,,,,,,,,,,,,,,,,,,,,,,,,,,,,,,,,,,,,,,,,,,,,,,,,,,,,,,,,
,,,,,,6093e92dd23145f26f9bf2e6,62c53a81e76ea1e86072de72,2022-07-06_10h32.34.472,Colour_Asymmetry_Pilot,2022.1.3,Win32,59.60185958,62c50e9c1127f2cd403a315f,0,54,54,67,1,twofour,,,,,,,,,,,,,,,,,,,,,,,,,,,,,,,,,,,,,,,,,,,,,,,,,,,,,,,,,,,,,,,,,,,,,,,,,,,,,,,,,,,,,,,,,,,,,,,,,,,,,,,,,,,,,,,,,,,,,,,,,,,,,,,,,,,,,,,,,,,,,,,,,,,,,,,,,,,,
,,,,,,6093e92dd23145f26f9bf2e6,62c53a81e76ea1e86072de72,2022-07-06_10h32.34.472,Colour_Asymmetry_Pilot,2022.1.3,Win32,59.60185958,62c50e9c1127f2cd403a315f,0,55,55,65,1,onethree,,,,,,,,,,,,,,,,,,,,,,,,,,,,,,,,,,,,,,,,,,,,,,,,,,,,,,,,,,,,,,,,,,,,,,,,,,,,,,,,,,,,,,,,,,,,,,,,,,,,,,,,,,,,,,,,,,,,,,,,,,,,,,,,,,,,,,,,,,,,,,,,,,,,,,,,,,,,
,,,,,,6093e92dd23145f26f9bf2e6,62c53a81e76ea1e86072de72,2022-07-06_10h32.34.472,Colour_Asymmetry_Pilot,2022.1.3,Win32,59.60185958,62c50e9c1127f2cd403a315f,0,56,56,160,1,onetwo,,,,,,,,,,,,,,,,,,,,,,,,,,,,,,,,,,,,,,,,,,,,,,,,,,,,,,,,,,,,,,,,,,,,,,,,,,,,,,,,,,,,,,,,,,,,,,,,,,,,,,,,,,,,,,,,,,,,,,,,,,,,,,,,,,,,,,,,,,,,,,,,,,,,,,,,,,,,
,,,,,,6093e92dd23145f26f9bf2e6,62c53a81e76ea1e86072de72,2022-07-06_10h32.34.472,Colour_Asymmetry_Pilot,2022.1.3,Win32,59.60185958,62c50e9c1127f2cd403a315f,0,57,57,136,1,onetwo,,,,,,,,,,,,,,,,,,,,,,,,,,,,,,,,,,,,,,,,,,,,,,,,,,,,,,,,,,,,,,,,,,,,,,,,,,,,,,,,,,,,,,,,,,,,,,,,,,,,,,,,,,,,,,,,,,,,,,,,,,,,,,,,,,,,,,,,,,,,,,,,,,,,,,,,,,,,
,,,,,,6093e92dd23145f26f9bf2e6,62c53a81e76ea1e86072de72,2022-07-06_10h32.34.472,Colour_Asymmetry_Pilot,2022.1.3,Win32,59.60185958,62c50e9c1127f2cd403a315f,0,58,58,157,1,threefour,,,,,,,,,,,,,,,,,,,,,,,,,,,,,,,,,,,,,,,,,,,,,,,,,,,,,,,,,,,,,,,,,,,,,,,,,,,,,,,,,,,,,,,,,,,,,,,,,,,,,,,,,,,,,,,,,,,,,,,,,,,,,,,,,,,,,,,,,,,,,,,,,,,,,,,,,,,,
,,,,,,6093e92dd23145f26f9bf2e6,62c53a81e76ea1e86072de72,2022-07-06_10h32.34.472,Colour_Asymmetry_Pilot,2022.1.3,Win32,59.60185958,62c50e9c1127f2cd403a315f,0,59,59,143,1,fourthree,,,,,,,,,,,,,,,,,,,,,,,,,,,,,,,,,,,,,,,,,,,,,,,,,,,,,,,,,,,,,,,,,,,,,,,,,,,,,,,,,,,,,,,,,,,,,,,,,,,,,,,,,,,,,,,,,,,,,,,,,,,,,,,,,,,,,,,,,,,,,,,,,,,,,,,,,,,,
,,,,,,6093e92dd23145f26f9bf2e6,62c53a81e76ea1e86072de72,2022-07-06_10h32.34.472,Colour_Asymmetry_Pilot,2022.1.3,Win32,59.60185958,62c50e9c1127f2cd403a315f,0,60,60,19,1,twofour,,,,,,,,,,,,,,,,,,,,,,,,,,,,,,,,,,,,,,,,,,,,,,,,,,,,,,,,,,,,,,,,,,,,,,,,,,,,,,,,,,,,,,,,,,,,,,,,,,,,,,,,,,,,,,,,,,,,,,,,,,,,,,,,,,,,,,,,,,,,,,,,,,,,,,,,,,,,
,,,,,,6093e92dd23145f26f9bf2e6,62c53a81e76ea1e86072de72,2022-07-06_10h32.34.472,Colour_Asymmetry_Pilot,2022.1.3,Win32,59.60185958,62c50e9c1127f2cd403a315f,0,61,61,46,1,fourtwo,,,,,,,,,,,,,,,,,,,,,,,,,,,,,,,,,,,,,,,,,,,,,,,,,,,,,,,,,,,,,,,,,,,,,,,,,,,,,,,,,,,,,,,,,,,,,,,,,,,,,,,,,,,,,,,,,,,,,,,,,,,,,,,,,,,,,,,,,,,,,,,,,,,,,,,,,,,,
,,,,,,6093e92dd23145f26f9bf2e6,62c53a81e76ea1e86072de72,2022-07-06_10h32.34.472,Colour_Asymmetry_Pilot,2022.1.3,Win32,59.60185958,62c50e9c1127f2cd403a315f,0,62,62,161,1,onethree,,,,,,,,,,,,,,,,,,,,,,,,,,,,,,,,,,,,,,,,,,,,,,,,,,,,,,,,,,,,,,,,,,,,,,,,,,,,,,,,,,,,,,,,,,,,,,,,,,,,,,,,,,,,,,,,,,,,,,,,,,,,,,,,,,,,,,,,,,,,,,,,,,,,,,,,,,,,
,,,,,,6093e92dd23145f26f9bf2e6,62c53a81e76ea1e86072de72,2022-07-06_10h32.34.472,Colour_Asymmetry_Pilot,2022.1.3,Win32,59.60185958,62c50e9c1127f2cd403a315f,0,63,63,68,1,threeone,,,,,,,,,,,,,,,,,,,,,,,,,,,,,,,,,,,,,,,,,,,,,,,,,,,,,,,,,,,,,,,,,,,,,,,,,,,,,,,,,,,,,,,,,,,,,,,,,,,,,,,,,,,,,,,,,,,,,,,,,,,,,,,,,,,,,,,,,,,,,,,,,,,,,,,,,,,,
,,,,,,6093e92dd23145f26f9bf2e6,62c53a81e76ea1e86072de72,2022-07-06_10h32.34.472,Colour_Asymmetry_Pilot,2022.1.3,Win32,59.60185958,62c50e9c1127f2cd403a315f,0,64,64,158,1,fourtwo,,,,,,,,,,,,,,,,,,,,,,,,,,,,,,,,,,,,,,,,,,,,,,,,,,,,,,,,,,,,,,,,,,,,,,,,,,,,,,,,,,,,,,,,,,,,,,,,,,,,,,,,,,,,,,,,,,,,,,,,,,,,,,,,,,,,,,,,,,,,,,,,,,,,,,,,,,,,
,,,,,,6093e92dd23145f26f9bf2e6,62c53a81e76ea1e86072de72,2022-07-06_10h32.34.472,Colour_Asymmetry_Pilot,2022.1.3,Win32,59.60185958,62c50e9c1127f2cd403a315f,0,65,65,16,1,onetwo,,,,,,,,,,,,,,,,,,,,,,,,,,,,,,,,,,,,,,,,,,,,,,,,,,,,,,,,,,,,,,,,,,,,,,,,,,,,,,,,,,,,,,,,,,,,,,,,,,,,,,,,,,,,,,,,,,,,,,,,,,,,,,,,,,,,,,,,,,,,,,,,,,,,,,,,,,,,
,,,,,,6093e92dd23145f26f9bf2e6,62c53a81e76ea1e86072de72,2022-07-06_10h32.34.472,Colour_Asymmetry_Pilot,2022.1.3,Win32,59.60185958,62c50e9c1127f2cd403a315f,0,66,66,28,1,threeone,,,,,,,,,,,,,,,,,,,,,,,,,,,,,,,,,,,,,,,,,,,,,,,,,,,,,,,,,,,,,,,,,,,,,,,,,,,,,,,,,,,,,,,,,,,,,,,,,,,,,,,,,,,,,,,,,,,,,,,,,,,,,,,,,,,,,,,,,,,,,,,,,,,,,,,,,,,,
,,,,,,6093e92dd23145f26f9bf2e6,62c53a81e76ea1e86072de72,2022-07-06_10h32.34.472,Colour_Asymmetry_Pilot,2022.1.3,Win32,59.60185958,62c50e9c1127f2cd403a315f,0,67,67,56,1,onetwo,,,,,,,,,,,,,,,,,,,,,,,,,,,,,,,,,,,,,,,,,,,,,,,,,,,,,,,,,,,,,,,,,,,,,,,,,,,,,,,,,,,,,,,,,,,,,,,,,,,,,,,,,,,,,,,,,,,,,,,,,,,,,,,,,,,,,,,,,,,,,,,,,,,,,,,,,,,,
,,,,,,6093e92dd23145f26f9bf2e6,62c53a81e76ea1e86072de72,2022-07-06_10h32.34.472,Colour_Asymmetry_Pilot,2022.1.3,Win32,59.60185958,62c50e9c1127f2cd403a315f,0,68,68,69,1,threefour,,,,,,,,,,,,,,,,,,,,,,,,,,,,,,,,,,,,,,,,,,,,,,,,,,,,,,,,,,,,,,,,,,,,,,,,,,,,,,,,,,,,,,,,,,,,,,,,,,,,,,,,,,,,,,,,,,,,,,,,,,,,,,,,,,,,,,,,,,,,,,,,,,,,,,,,,,,,
,,,,,,6093e92dd23145f26f9bf2e6,62c53a81e76ea1e86072de72,2022-07-06_10h32.34.472,Colour_Asymmetry_Pilot,2022.1.3,Win32,59.60185958,62c50e9c1127f2cd403a315f,0,69,69,5,1,threefour,,,,,,,,,,,,,,,,,,,,,,,,,,,,,,,,,,,,,,,,,,,,,,,,,,,,,,,,,,,,,,,,,,,,,,,,,,,,,,,,,,,,,,,,,,,,,,,,,,,,,,,,,,,,,,,,,,,,,,,,,,,,,,,,,,,,,,,,,,,,,,,,,,,,,,,,,,,,
,,,,,,6093e92dd23145f26f9bf2e6,62c53a81e76ea1e86072de72,2022-07-06_10h32.34.472,Colour_Asymmetry_Pilot,2022.1.3,Win32,59.60185958,62c50e9c1127f2cd403a315f,0,70,70,48,1,onetwo,,,,,,,,,,,,,,,,,,,,,,,,,,,,,,,,,,,,,,,,,,,,,,,,,,,,,,,,,,,,,,,,,,,,,,,,,,,,,,,,,,,,,,,,,,,,,,,,,,,,,,,,,,,,,,,,,,,,,,,,,,,,,,,,,,,,,,,,,,,,,,,,,,,,,,,,,,,,
,,,,,,6093e92dd23145f26f9bf2e6,62c53a81e76ea1e86072de72,2022-07-06_10h32.34.472,Colour_Asymmetry_Pilot,2022.1.3,Win32,59.60185958,62c50e9c1127f2cd403a315f,0,71,71,13,1,threefour,,,,,,,,,,,,,,,,,,,,,,,,,,,,,,,,,,,,,,,,,,,,,,,,,,,,,,,,,,,,,,,,,,,,,,,,,,,,,,,,,,,,,,,,,,,,,,,,,,,,,,,,,,,,,,,,,,,,,,,,,,,,,,,,,,,,,,,,,,,,,,,,,,,,,,,,,,,,
,,,,,,6093e92dd23145f26f9bf2e6,62c53a81e76ea1e86072de72,2022-07-06_10h32.34.472,Colour_Asymmetry_Pilot,2022.1.3,Win32,59.60185958,62c50e9c1127f2cd403a315f,0,72,72,53,1,threefour,,,,,,,,,,,,,,,,,,,,,,,,,,,,,,,,,,,,,,,,,,,,,,,,,,,,,,,,,,,,,,,,,,,,,,,,,,,,,,,,,,,,,,,,,,,,,,,,,,,,,,,,,,,,,,,,,,,,,,,,,,,,,,,,,,,,,,,,,,,,,,,,,,,,,,,,,,,,
,,,,,,6093e92dd23145f26f9bf2e6,62c53a81e76ea1e86072de72,2022-07-06_10h32.34.472,Colour_Asymmetry_Pilot,2022.1.3,Win32,59.60185958,62c50e9c1127f2cd403a315f,0,73,73,122,1,twoone,,,,,,,,,,,,,,,,,,,,,,,,,,,,,,,,,,,,,,,,,,,,,,,,,,,,,,,,,,,,,,,,,,,,,,,,,,,,,,,,,,,,,,,,,,,,,,,,,,,,,,,,,,,,,,,,,,,,,,,,,,,,,,,,,,,,,,,,,,,,,,,,,,,,,,,,,,,,
,,,,,,6093e92dd23145f26f9bf2e6,62c53a81e76ea1e86072de72,2022-07-06_10h32.34.472,Colour_Asymmetry_Pilot,2022.1.3,Win32,59.60185958,62c50e9c1127f2cd403a315f,0,74,74,106,1,twoone,,,,,,,,,,,,,,,,,,,,,,,,,,,,,,,,,,,,,,,,,,,,,,,,,,,,,,,,,,,,,,,,,,,,,,,,,,,,,,,,,,,,,,,,,,,,,,,,,,,,,,,,,,,,,,,,,,,,,,,,,,,,,,,,,,,,,,,,,,,,,,,,,,,,,,,,,,,,
,,,,,,6093e92dd23145f26f9bf2e6,62c53a81e76ea1e86072de72,2022-07-06_10h32.34.472,Colour_Asymmetry_Pilot,2022.1.3,Win32,59.60185958,62c50e9c1127f2cd403a315f,0,75,75,108,1,threeone,,,,,,,,,,,,,,,,,,,,,,,,,,,,,,,,,,,,,,,,,,,,,,,,,,,,,,,,,,,,,,,,,,,,,,,,,,,,,,,,,,,,,,,,,,,,,,,,,,,,,,,,,,,,,,,,,,,,,,,,,,,,,,,,,,,,,,,,,,,,,,,,,,,,,,,,,,,,
,,,,,,6093e92dd23145f26f9bf2e6,62c53a81e76ea1e86072de72,2022-07-06_10h32.34.472,Colour_Asymmetry_Pilot,2022.1.3,Win32,59.60185958,62c50e9c1127f2cd403a315f,0,76,76,0,1,onetwo,,,,,,,,,,,,,,,,,,,,,,,,,,,,,,,,,,,,,,,,,,,,,,,,,,,,,,,,,,,,,,,,,,,,,,,,,,,,,,,,,,,,,,,,,,,,,,,,,,,,,,,,,,,,,,,,,,,,,,,,,,,,,,,,,,,,,,,,,,,,,,,,,,,,,,,,,,,,
,,,,,,6093e92dd23145f26f9bf2e6,62c53a81e76ea1e86072de72,2022-07-06_10h32.34.472,Colour_Asymmetry_Pilot,2022.1.3,Win32,59.60185958,62c50e9c1127f2cd403a315f,0,77,77,45,1,threefour,,,,,,,,,,,,,,,,,,,,,,,,,,,,,,,,,,,,,,,,,,,,,,,,,,,,,,,,,,,,,,,,,,,,,,,,,,,,,,,,,,,,,,,,,,,,,,,,,,,,,,,,,,,,,,,,,,,,,,,,,,,,,,,,,,,,,,,,,,,,,,,,,,,,,,,,,,,,
,,,,,,6093e92dd23145f26f9bf2e6,62c53a81e76ea1e86072de72,2022-07-06_10h32.34.472,Colour_Asymmetry_Pilot,2022.1.3,Win32,59.60185958,62c50e9c1127f2cd403a315f,0,78,78,11,1,twofour,,,,,,,,,,,,,,,,,,,,,,,,,,,,,,,,,,,,,,,,,,,,,,,,,,,,,,,,,,,,,,,,,,,,,,,,,,,,,,,,,,,,,,,,,,,,,,,,,,,,,,,,,,,,,,,,,,,,,,,,,,,,,,,,,,,,,,,,,,,,,,,,,,,,,,,,,,,,
,,,,,,6093e92dd23145f26f9bf2e6,62c53a81e76ea1e86072de72,2022-07-06_10h32.34.472,Colour_Asymmetry_Pilot,2022.1.3,Win32,59.60185958,62c50e9c1127f2cd403a315f,0,79,79,1,1,onethree,,,,,,,,,,,,,,,,,,,,,,,,,,,,,,,,,,,,,,,,,,,,,,,,,,,,,,,,,,,,,,,,,,,,,,,,,,,,,,,,,,,,,,,,,,,,,,,,,,,,,,,,,,,,,,,,,,,,,,,,,,,,,,,,,,,,,,,,,,,,,,,,,,,,,,,,,,,,
,,,,,,6093e92dd23145f26f9bf2e6,62c53a81e76ea1e86072de72,2022-07-06_10h32.34.472,Colour_Asymmetry_Pilot,2022.1.3,Win32,59.60185958,62c50e9c1127f2cd403a315f,0,80,80,150,1,fourtwo,,,,,,,,,,,,,,,,,,,,,,,,,,,,,,,,,,,,,,,,,,,,,,,,,,,,,,,,,,,,,,,,,,,,,,,,,,,,,,,,,,,,,,,,,,,,,,,,,,,,,,,,,,,,,,,,,,,,,,,,,,,,,,,,,,,,,,,,,,,,,,,,,,,,,,,,,,,,
,,,,,,6093e92dd23145f26f9bf2e6,62c53a81e76ea1e86072de72,2022-07-06_10h32.34.472,Colour_Asymmetry_Pilot,2022.1.3,Win32,59.60185958,62c50e9c1127f2cd403a315f,0,81,81,58,1,twoone,,,,,,,,,,,,,,,,,,,,,,,,,,,,,,,,,,,,,,,,,,,,,,,,,,,,,,,,,,,,,,,,,,,,,,,,,,,,,,,,,,,,,,,,,,,,,,,,,,,,,,,,,,,,,,,,,,,,,,,,,,,,,,,,,,,,,,,,,,,,,,,,,,,,,,,,,,,,
,,,,,,6093e92dd23145f26f9bf2e6,62c53a81e76ea1e86072de72,2022-07-06_10h32.34.472,Colour_Asymmetry_Pilot,2022.1.3,Win32,59.60185958,62c50e9c1127f2cd403a315f,0,82,82,3,1,twofour,,,,,,,,,,,,,,,,,,,,,,,,,,,,,,,,,,,,,,,,,,,,,,,,,,,,,,,,,,,,,,,,,,,,,,,,,,,,,,,,,,,,,,,,,,,,,,,,,,,,,,,,,,,,,,,,,,,,,,,,,,,,,,,,,,,,,,,,,,,,,,,,,,,,,,,,,,,,
,,,,,,6093e92dd23145f26f9bf2e6,62c53a81e76ea1e86072de72,2022-07-06_10h32.34.472,Colour_Asymmetry_Pilot,2022.1.3,Win32,59.60185958,62c50e9c1127f2cd403a315f,0,83,83,10,1,twoone,,,,,,,,,,,,,,,,,,,,,,,,,,,,,,,,,,,,,,,,,,,,,,,,,,,,,,,,,,,,,,,,,,,,,,,,,,,,,,,,,,,,,,,,,,,,,,,,,,,,,,,,,,,,,,,,,,,,,,,,,,,,,,,,,,,,,,,,,,,,,,,,,,,,,,,,,,,,
,,,,,,6093e92dd23145f26f9bf2e6,62c53a81e76ea1e86072de72,2022-07-06_10h32.34.472,Colour_Asymmetry_Pilot,2022.1.3,Win32,59.60185958,62c50e9c1127f2cd403a315f,0,84,84,47,1,fourthree,,,,,,,,,,,,,,,,,,,,,,,,,,,,,,,,,,,,,,,,,,,,,,,,,,,,,,,,,,,,,,,,,,,,,,,,,,,,,,,,,,,,,,,,,,,,,,,,,,,,,,,,,,,,,,,,,,,,,,,,,,,,,,,,,,,,,,,,,,,,,,,,,,,,,,,,,,,,
,,,,,,6093e92dd23145f26f9bf2e6,62c53a81e76ea1e86072de72,2022-07-06_10h32.34.472,Colour_Asymmetry_Pilot,2022.1.3,Win32,59.60185958,62c50e9c1127f2cd403a315f,0,85,85,126,1,fourtwo,,,,,,,,,,,,,,,,,,,,,,,,,,,,,,,,,,,,,,,,,,,,,,,,,,,,,,,,,,,,,,,,,,,,,,,,,,,,,,,,,,,,,,,,,,,,,,,,,,,,,,,,,,,,,,,,,,,,,,,,,,,,,,,,,,,,,,,,,,,,,,,,,,,,,,,,,,,,
,,,,,,6093e92dd23145f26f9bf2e6,62c53a81e76ea1e86072de72,2022-07-06_10h32.34.472,Colour_Asymmetry_Pilot,2022.1.3,Win32,59.60185958,62c50e9c1127f2cd403a315f,0,86,86,132,1,threeone,,,,,,,,,,,,,,,,,,,,,,,,,,,,,,,,,,,,,,,,,,,,,,,,,,,,,,,,,,,,,,,,,,,,,,,,,,,,,,,,,,,,,,,,,,,,,,,,,,,,,,,,,,,,,,,,,,,,,,,,,,,,,,,,,,,,,,,,,,,,,,,,,,,,,,,,,,,,
,,,,,,6093e92dd23145f26f9bf2e6,62c53a81e76ea1e86072de72,2022-07-06_10h32.34.472,Colour_Asymmetry_Pilot,2022.1.3,Win32,59.60185958,62c50e9c1127f2cd403a315f,0,87,87,32,1,onetwo,,,,,,,,,,,,,,,,,,,,,,,,,,,,,,,,,,,,,,,,,,,,,,,,,,,,,,,,,,,,,,,,,,,,,,,,,,,,,,,,,,,,,,,,,,,,,,,,,,,,,,,,,,,,,,,,,,,,,,,,,,,,,,,,,,,,,,,,,,,,,,,,,,,,,,,,,,,,
,,,,,,6093e92dd23145f26f9bf2e6,62c53a81e76ea1e86072de72,2022-07-06_10h32.34.472,Colour_Asymmetry_Pilot,2022.1.3,Win32,59.60185958,62c50e9c1127f2cd403a315f,0,88,88,94,1,fourtwo,,,,,,,,,,,,,,,,,,,,,,,,,,,,,,,,,,,,,,,,,,,,,,,,,,,,,,,,,,,,,,,,,,,,,,,,,,,,,,,,,,,,,,,,,,,,,,,,,,,,,,,,,,,,,,,,,,,,,,,,,,,,,,,,,,,,,,,,,,,,,,,,,,,,,,,,,,,,
,,,,,,6093e92dd23145f26f9bf2e6,62c53a81e76ea1e86072de72,2022-07-06_10h32.34.472,Colour_Asymmetry_Pilot,2022.1.3,Win32,59.60185958,62c50e9c1127f2cd403a315f,0,89,89,118,1,fourtwo,,,,,,,,,,,,,,,,,,,,,,,,,,,,,,,,,,,,,,,,,,,,,,,,,,,,,,,,,,,,,,,,,,,,,,,,,,,,,,,,,,,,,,,,,,,,,,,,,,,,,,,,,,,,,,,,,,,,,,,,,,,,,,,,,,,,,,,,,,,,,,,,,,,,,,,,,,,,
,,,,,,6093e92dd23145f26f9bf2e6,62c53a81e76ea1e86072de72,2022-07-06_10h32.34.472,Colour_Asymmetry_Pilot,2022.1.3,Win32,59.60185958,62c50e9c1127f2cd403a315f,0,90,90,9,1,onethree,,,,,,,,,,,,,,,,,,,,,,,,,,,,,,,,,,,,,,,,,,,,,,,,,,,,,,,,,,,,,,,,,,,,,,,,,,,,,,,,,,,,,,,,,,,,,,,,,,,,,,,,,,,,,,,,,,,,,,,,,,,,,,,,,,,,,,,,,,,,,,,,,,,,,,,,,,,,
,,,,,,6093e92dd23145f26f9bf2e6,62c53a81e76ea1e86072de72,2022-07-06_10h32.34.472,Colour_Asymmetry_Pilot,2022.1.3,Win32,59.60185958,62c50e9c1127f2cd403a315f,0,91,91,127,1,fourthree,,,,,,,,,,,,,,,,,,,,,,,,,,,,,,,,,,,,,,,,,,,,,,,,,,,,,,,,,,,,,,,,,,,,,,,,,,,,,,,,,,,,,,,,,,,,,,,,,,,,,,,,,,,,,,,,,,,,,,,,,,,,,,,,,,,,,,,,,,,,,,,,,,,,,,,,,,,,
,,,,,,6093e92dd23145f26f9bf2e6,62c53a81e76ea1e86072de72,2022-07-06_10h32.34.472,Colour_Asymmetry_Pilot,2022.1.3,Win32,59.60185958,62c50e9c1127f2cd403a315f,0,92,92,72,1,onetwo,,,,,,,,,,,,,,,,,,,,,,,,,,,,,,,,,,,,,,,,,,,,,,,,,,,,,,,,,,,,,,,,,,,,,,,,,,,,,,,,,,,,,,,,,,,,,,,,,,,,,,,,,,,,,,,,,,,,,,,,,,,,,,,,,,,,,,,,,,,,,,,,,,,,,,,,,,,,
,,,,,,6093e92dd23145f26f9bf2e6,62c53a81e76ea1e86072de72,2022-07-06_10h32.34.472,Colour_Asymmetry_Pilot,2022.1.3,Win32,59.60185958,62c50e9c1127f2cd403a315f,0,93,93,119,1,fourthree,,,,,,,,,,,,,,,,,,,,,,,,,,,,,,,,,,,,,,,,,,,,,,,,,,,,,,,,,,,,,,,,,,,,,,,,,,,,,,,,,,,,,,,,,,,,,,,,,,,,,,,,,,,,,,,,,,,,,,,,,,,,,,,,,,,,,,,,,,,,,,,,,,,,,,,,,,,,
,,,,,,6093e92dd23145f26f9bf2e6,62c53a81e76ea1e86072de72,2022-07-06_10h32.34.472,Colour_Asymmetry_Pilot,2022.1.3,Win32,59.60185958,62c50e9c1127f2cd403a315f,0,94,94,123,1,twofour,,,,,,,,,,,,,,,,,,,,,,,,,,,,,,,,,,,,,,,,,,,,,,,,,,,,,,,,,,,,,,,,,,,,,,,,,,,,,,,,,,,,,,,,,,,,,,,,,,,,,,,,,,,,,,,,,,,,,,,,,,,,,,,,,,,,,,,,,,,,,,,,,,,,,,,,,,,,
,,,,,,6093e92dd23145f26f9bf2e6,62c53a81e76ea1e86072de72,2022-07-06_10h32.34.472,Colour_Asymmetry_Pilot,2022.1.3,Win32,59.60185958,62c50e9c1127f2cd403a315f,0,95,95,39,1,fourthree,,,,,,,,,,,,,,,,,,,,,,,,,,,,,,,,,,,,,,,,,,,,,,,,,,,,,,,,,,,,,,,,,,,,,,,,,,,,,,,,,,,,,,,,,,,,,,,,,,,,,,,,,,,,,,,,,,,,,,,,,,,,,,,,,,,,,,,,,,,,,,,,,,,,,,,,,,,,
,,,,,,6093e92dd23145f26f9bf2e6,62c53a81e76ea1e86072de72,2022-07-06_10h32.34.472,Colour_Asymmetry_Pilot,2022.1.3,Win32,59.60185958,62c50e9c1127f2cd403a315f,0,96,96,62,1,fourtwo,,,,,,,,,,,,,,,,,,,,,,,,,,,,,,,,,,,,,,,,,,,,,,,,,,,,,,,,,,,,,,,,,,,,,,,,,,,,,,,,,,,,,,,,,,,,,,,,,,,,,,,,,,,,,,,,,,,,,,,,,,,,,,,,,,,,,,,,,,,,,,,,,,,,,,,,,,,,
,,,,,,6093e92dd23145f26f9bf2e6,62c53a81e76ea1e86072de72,2022-07-06_10h32.34.472,Colour_Asymmetry_Pilot,2022.1.3,Win32,59.60185958,62c50e9c1127f2cd403a315f,0,97,97,85,1,threefour,,,,,,,,,,,,,,,,,,,,,,,,,,,,,,,,,,,,,,,,,,,,,,,,,,,,,,,,,,,,,,,,,,,,,,,,,,,,,,,,,,,,,,,,,,,,,,,,,,,,,,,,,,,,,,,,,,,,,,,,,,,,,,,,,,,,,,,,,,,,,,,,,,,,,,,,,,,,
,,,,,,6093e92dd23145f26f9bf2e6,62c53a81e76ea1e86072de72,2022-07-06_10h32.34.472,Colour_Asymmetry_Pilot,2022.1.3,Win32,59.60185958,62c50e9c1127f2cd403a315f,0,98,98,148,1,threeone,,,,,,,,,,,,,,,,,,,,,,,,,,,,,,,,,,,,,,,,,,,,,,,,,,,,,,,,,,,,,,,,,,,,,,,,,,,,,,,,,,,,,,,,,,,,,,,,,,,,,,,,,,,,,,,,,,,,,,,,,,,,,,,,,,,,,,,,,,,,,,,,,,,,,,,,,,,,
,,,,,,6093e92dd23145f26f9bf2e6,62c53a81e76ea1e86072de72,2022-07-06_10h32.34.472,Colour_Asymmetry_Pilot,2022.1.3,Win32,59.60185958,62c50e9c1127f2cd403a315f,0,99,99,156,1,threeone,,,,,,,,,,,,,,,,,,,,,,,,,,,,,,,,,,,,,,,,,,,,,,,,,,,,,,,,,,,,,,,,,,,,,,,,,,,,,,,,,,,,,,,,,,,,,,,,,,,,,,,,,,,,,,,,,,,,,,,,,,,,,,,,,,,,,,,,,,,,,,,,,,,,,,,,,,,,
,,,,,,6093e92dd23145f26f9bf2e6,62c53a81e76ea1e86072de72,2022-07-06_10h32.34.472,Colour_Asymmetry_Pilot,2022.1.3,Win32,59.60185958,62c50e9c1127f2cd403a315f,0,100,100,79,1,fourthree,,,,,,,,,,,,,,,,,,,,,,,,,,,,,,,,,,,,,,,,,,,,,,,,,,,,,,,,,,,,,,,,,,,,,,,,,,,,,,,,,,,,,,,,,,,,,,,,,,,,,,,,,,,,,,,,,,,,,,,,,,,,,,,,,,,,,,,,,,,,,,,,,,,,,,,,,,,,
,,,,,,6093e92dd23145f26f9bf2e6,62c53a81e76ea1e86072de72,2022-07-06_10h32.34.472,Colour_Asymmetry_Pilot,2022.1.3,Win32,59.60185958,62c50e9c1127f2cd403a315f,0,101,101,14,1,fourtwo,,,,,,,,,,,,,,,,,,,,,,,,,,,,,,,,,,,,,,,,,,,,,,,,,,,,,,,,,,,,,,,,,,,,,,,,,,,,,,,,,,,,,,,,,,,,,,,,,,,,,,,,,,,,,,,,,,,,,,,,,,,,,,,,,,,,,,,,,,,,,,,,,,,,,,,,,,,,
,,,,,,6093e92dd23145f26f9bf2e6,62c53a81e76ea1e86072de72,2022-07-06_10h32.34.472,Colour_Asymmetry_Pilot,2022.1.3,Win32,59.60185958,62c50e9c1127f2cd403a315f,0,102,102,71,1,fourthree,,,,,,,,,,,,,,,,,,,,,,,,,,,,,,,,,,,,,,,,,,,,,,,,,,,,,,,,,,,,,,,,,,,,,,,,,,,,,,,,,,,,,,,,,,,,,,,,,,,,,,,,,,,,,,,,,,,,,,,,,,,,,,,,,,,,,,,,,,,,,,,,,,,,,,,,,,,,
,,,,,,6093e92dd23145f26f9bf2e6,62c53a81e76ea1e86072de72,2022-07-06_10h32.34.472,Colour_Asymmetry_Pilot,2022.1.3,Win32,59.60185958,62c50e9c1127f2cd403a315f,0,103,103,152,1,onetwo,,,,,,,,,,,,,,,,,,,,,,,,,,,,,,,,,,,,,,,,,,,,,,,,,,,,,,,,,,,,,,,,,,,,,,,,,,,,,,,,,,,,,,,,,,,,,,,,,,,,,,,,,,,,,,,,,,,,,,,,,,,,,,,,,,,,,,,,,,,,,,,,,,,,,,,,,,,,
,,,,,,6093e92dd23145f26f9bf2e6,62c53a81e76ea1e86072de72,2022-07-06_10h32.34.472,Colour_Asymmetry_Pilot,2022.1.3,Win32,59.60185958,62c50e9c1127f2cd403a315f,0,104,104,7,1,fourthree,,,,,,,,,,,,,,,,,,,,,,,,,,,,,,,,,,,,,,,,,,,,,,,,,,,,,,,,,,,,,,,,,,,,,,,,,,,,,,,,,,,,,,,,,,,,,,,,,,,,,,,,,,,,,,,,,,,,,,,,,,,,,,,,,,,,,,,,,,,,,,,,,,,,,,,,,,,,
,,,,,,6093e92dd23145f26f9bf2e6,62c53a81e76ea1e86072de72,2022-07-06_10h32.34.472,Colour_Asymmetry_Pilot,2022.1.3,Win32,59.60185958,62c50e9c1127f2cd403a315f,0,105,105,96,1,onetwo,,,,,,,,,,,,,,,,,,,,,,,,,,,,,,,,,,,,,,,,,,,,,,,,,,,,,,,,,,,,,,,,,,,,,,,,,,,,,,,,,,,,,,,,,,,,,,,,,,,,,,,,,,,,,,,,,,,,,,,,,,,,,,,,,,,,,,,,,,,,,,,,,,,,,,,,,,,,
,,,,,,6093e92dd23145f26f9bf2e6,62c53a81e76ea1e86072de72,2022-07-06_10h32.34.472,Colour_Asymmetry_Pilot,2022.1.3,Win32,59.60185958,62c50e9c1127f2cd403a315f,0,106,106,97,1,onethree,,,,,,,,,,,,,,,,,,,,,,,,,,,,,,,,,,,,,,,,,,,,,,,,,,,,,,,,,,,,,,,,,,,,,,,,,,,,,,,,,,,,,,,,,,,,,,,,,,,,,,,,,,,,,,,,,,,,,,,,,,,,,,,,,,,,,,,,,,,,,,,,,,,,,,,,,,,,
,,,,,,6093e92dd23145f26f9bf2e6,62c53a81e76ea1e86072de72,2022-07-06_10h32.34.472,Colour_Asymmetry_Pilot,2022.1.3,Win32,59.60185958,62c50e9c1127f2cd403a315f,0,107,107,77,1,threefour,,,,,,,,,,,,,,,,,,,,,,,,,,,,,,,,,,,,,,,,,,,,,,,,,,,,,,,,,,,,,,,,,,,,,,,,,,,,,,,,,,,,,,,,,,,,,,,,,,,,,,,,,,,,,,,,,,,,,,,,,,,,,,,,,,,,,,,,,,,,,,,,,,,,,,,,,,,,
,,,,,,6093e92dd23145f26f9bf2e6,62c53a81e76ea1e86072de72,2022-07-06_10h32.34.472,Colour_Asymmetry_Pilot,2022.1.3,Win32,59.60185958,62c50e9c1127f2cd403a315f,0,108,108,37,1,threefour,,,,,,,,,,,,,,,,,,,,,,,,,,,,,,,,,,,,,,,,,,,,,,,,,,,,,,,,,,,,,,,,,,,,,,,,,,,,,,,,,,,,,,,,,,,,,,,,,,,,,,,,,,,,,,,,,,,,,,,,,,,,,,,,,,,,,,,,,,,,,,,,,,,,,,,,,,,,
,,,,,,6093e92dd23145f26f9bf2e6,62c53a81e76ea1e86072de72,2022-07-06_10h32.34.472,Colour_Asymmetry_Pilot,2022.1.3,Win32,59.60185958,62c50e9c1127f2cd403a315f,0,109,109,2,1,twoone,,,,,,,,,,,,,,,,,,,,,,,,,,,,,,,,,,,,,,,,,,,,,,,,,,,,,,,,,,,,,,,,,,,,,,,,,,,,,,,,,,,,,,,,,,,,,,,,,,,,,,,,,,,,,,,,,,,,,,,,,,,,,,,,,,,,,,,,,,,,,,,,,,,,,,,,,,,,
,,,,,,6093e92dd23145f26f9bf2e6,62c53a81e76ea1e86072de72,2022-07-06_10h32.34.472,Colour_Asymmetry_Pilot,2022.1.3,Win32,59.60185958,62c50e9c1127f2cd403a315f,0,110,110,109,1,threefour,,,,,,,,,,,,,,,,,,,,,,,,,,,,,,,,,,,,,,,,,,,,,,,,,,,,,,,,,,,,,,,,,,,,,,,,,,,,,,,,,,,,,,,,,,,,,,,,,,,,,,,,,,,,,,,,,,,,,,,,,,,,,,,,,,,,,,,,,,,,,,,,,,,,,,,,,,,,
,,,,,,6093e92dd23145f26f9bf2e6,62c53a81e76ea1e86072de72,2022-07-06_10h32.34.472,Colour_Asymmetry_Pilot,2022.1.3,Win32,59.60185958,62c50e9c1127f2cd403a315f,0,111,111,35,1,twofour,,,,,,,,,,,,,,,,,,,,,,,,,,,,,,,,,,,,,,,,,,,,,,,,,,,,,,,,,,,,,,,,,,,,,,,,,,,,,,,,,,,,,,,,,,,,,,,,,,,,,,,,,,,,,,,,,,,,,,,,,,,,,,,,,,,,,,,,,,,,,,,,,,,,,,,,,,,,
,,,,,,6093e92dd23145f26f9bf2e6,62c53a81e76ea1e86072de72,2022-07-06_10h32.34.472,Colour_Asymmetry_Pilot,2022.1.3,Win32,59.60185958,62c50e9c1127f2cd403a315f,0,112,112,146,1,twoone,,,,,,,,,,,,,,,,,,,,,,,,,,,,,,,,,,,,,,,,,,,,,,,,,,,,,,,,,,,,,,,,,,,,,,,,,,,,,,,,,,,,,,,,,,,,,,,,,,,,,,,,,,,,,,,,,,,,,,,,,,,,,,,,,,,,,,,,,,,,,,,,,,,,,,,,,,,,
,,,,,,6093e92dd23145f26f9bf2e6,62c53a81e76ea1e86072de72,2022-07-06_10h32.34.472,Colour_Asymmetry_Pilot,2022.1.3,Win32,59.60185958,62c50e9c1127f2cd403a315f,0,113,113,20,1,threeone,,,,,,,,,,,,,,,,,,,,,,,,,,,,,,,,,,,,,,,,,,,,,,,,,,,,,,,,,,,,,,,,,,,,,,,,,,,,,,,,,,,,,,,,,,,,,,,,,,,,,,,,,,,,,,,,,,,,,,,,,,,,,,,,,,,,,,,,,,,,,,,,,,,,,,,,,,,,
,,,,,,6093e92dd23145f26f9bf2e6,62c53a81e76ea1e86072de72,2022-07-06_10h32.34.472,Colour_Asymmetry_Pilot,2022.1.3,Win32,59.60185958,62c50e9c1127f2cd403a315f,0,114,114,149,1,threefour,,,,,,,,,,,,,,,,,,,,,,,,,,,,,,,,,,,,,,,,,,,,,,,,,,,,,,,,,,,,,,,,,,,,,,,,,,,,,,,,,,,,,,,,,,,,,,,,,,,,,,,,,,,,,,,,,,,,,,,,,,,,,,,,,,,,,,,,,,,,,,,,,,,,,,,,,,,,
,,,,,,6093e92dd23145f26f9bf2e6,62c53a81e76ea1e86072de72,2022-07-06_10h32.34.472,Colour_Asymmetry_Pilot,2022.1.3,Win32,59.60185958,62c50e9c1127f2cd403a315f,0,115,115,144,1,onetwo,,,,,,,,,,,,,,,,,,,,,,,,,,,,,,,,,,,,,,,,,,,,,,,,,,,,,,,,,,,,,,,,,,,,,,,,,,,,,,,,,,,,,,,,,,,,,,,,,,,,,,,,,,,,,,,,,,,,,,,,,,,,,,,,,,,,,,,,,,,,,,,,,,,,,,,,,,,,
,,,,,,6093e92dd23145f26f9bf2e6,62c53a81e76ea1e86072de72,2022-07-06_10h32.34.472,Colour_Asymmetry_Pilot,2022.1.3,Win32,59.60185958,62c50e9c1127f2cd403a315f,0,116,116,134,1,fourtwo,,,,,,,,,,,,,,,,,,,,,,,,,,,,,,,,,,,,,,,,,,,,,,,,,,,,,,,,,,,,,,,,,,,,,,,,,,,,,,,,,,,,,,,,,,,,,,,,,,,,,,,,,,,,,,,,,,,,,,,,,,,,,,,,,,,,,,,,,,,,,,,,,,,,,,,,,,,,
,,,,,,6093e92dd23145f26f9bf2e6,62c53a81e76ea1e86072de72,2022-07-06_10h32.34.472,Colour_Asymmetry_Pilot,2022.1.3,Win32,59.60185958,62c50e9c1127f2cd403a315f,0,117,117,83,1,twofour,,,,,,,,,,,,,,,,,,,,,,,,,,,,,,,,,,,,,,,,,,,,,,,,,,,,,,,,,,,,,,,,,,,,,,,,,,,,,,,,,,,,,,,,,,,,,,,,,,,,,,,,,,,,,,,,,,,,,,,,,,,,,,,,,,,,,,,,,,,,,,,,,,,,,,,,,,,,
,,,,,,6093e92dd23145f26f9bf2e6,62c53a81e76ea1e86072de72,2022-07-06_10h32.34.472,Colour_Asymmetry_Pilot,2022.1.3,Win32,59.60185958,62c50e9c1127f2cd403a315f,0,118,118,27,1,twofour,,,,,,,,,,,,,,,,,,,,,,,,,,,,,,,,,,,,,,,,,,,,,,,,,,,,,,,,,,,,,,,,,,,,,,,,,,,,,,,,,,,,,,,,,,,,,,,,,,,,,,,,,,,,,,,,,,,,,,,,,,,,,,,,,,,,,,,,,,,,,,,,,,,,,,,,,,,,
,,,,,,6093e92dd23145f26f9bf2e6,62c53a81e76ea1e86072de72,2022-07-06_10h32.34.472,Colour_Asymmetry_Pilot,2022.1.3,Win32,59.60185958,62c50e9c1127f2cd403a315f,0,119,119,137,1,onethree,,,,,,,,,,,,,,,,,,,,,,,,,,,,,,,,,,,,,,,,,,,,,,,,,,,,,,,,,,,,,,,,,,,,,,,,,,,,,,,,,,,,,,,,,,,,,,,,,,,,,,,,,,,,,,,,,,,,,,,,,,,,,,,,,,,,,,,,,,,,,,,,,,,,,,,,,,,,
,,,,,,6093e92dd23145f26f9bf2e6,62c53a81e76ea1e86072de72,2022-07-06_10h32.34.472,Colour_Asymmetry_Pilot,2022.1.3,Win32,59.60185958,62c50e9c1127f2cd403a315f,0,120,120,63,1,fourthree,,,,,,,,,,,,,,,,,,,,,,,,,,,,,,,,,,,,,,,,,,,,,,,,,,,,,,,,,,,,,,,,,,,,,,,,,,,,,,,,,,,,,,,,,,,,,,,,,,,,,,,,,,,,,,,,,,,,,,,,,,,,,,,,,,,,,,,,,,,,,,,,,,,,,,,,,,,,
,,,,,,6093e92dd23145f26f9bf2e6,62c53a81e76ea1e86072de72,2022-07-06_10h32.34.472,Colour_Asymmetry_Pilot,2022.1.3,Win32,59.60185958,62c50e9c1127f2cd403a315f,0,121,121,125,1,threefour,,,,,,,,,,,,,,,,,,,,,,,,,,,,,,,,,,,,,,,,,,,,,,,,,,,,,,,,,,,,,,,,,,,,,,,,,,,,,,,,,,,,,,,,,,,,,,,,,,,,,,,,,,,,,,,,,,,,,,,,,,,,,,,,,,,,,,,,,,,,,,,,,,,,,,,,,,,,
,,,,,,6093e92dd23145f26f9bf2e6,62c53a81e76ea1e86072de72,2022-07-06_10h32.34.472,Colour_Asymmetry_Pilot,2022.1.3,Win32,59.60185958,62c50e9c1127f2cd403a315f,0,122,122,107,1,twofour,,,,,,,,,,,,,,,,,,,,,,,,,,,,,,,,,,,,,,,,,,,,,,,,,,,,,,,,,,,,,,,,,,,,,,,,,,,,,,,,,,,,,,,,,,,,,,,,,,,,,,,,,,,,,,,,,,,,,,,,,,,,,,,,,,,,,,,,,,,,,,,,,,,,,,,,,,,,
,,,,,,6093e92dd23145f26f9bf2e6,62c53a81e76ea1e86072de72,2022-07-06_10h32.34.472,Colour_Asymmetry_Pilot,2022.1.3,Win32,59.60185958,62c50e9c1127f2cd403a315f,0,123,123,133,1,threefour,,,,,,,,,,,,,,,,,,,,,,,,,,,,,,,,,,,,,,,,,,,,,,,,,,,,,,,,,,,,,,,,,,,,,,,,,,,,,,,,,,,,,,,,,,,,,,,,,,,,,,,,,,,,,,,,,,,,,,,,,,,,,,,,,,,,,,,,,,,,,,,,,,,,,,,,,,,,
,,,,,,6093e92dd23145f26f9bf2e6,62c53a81e76ea1e86072de72,2022-07-06_10h32.34.472,Colour_Asymmetry_Pilot,2022.1.3,Win32,59.60185958,62c50e9c1127f2cd403a315f,0,124,124,82,1,twoone,,,,,,,,,,,,,,,,,,,,,,,,,,,,,,,,,,,,,,,,,,,,,,,,,,,,,,,,,,,,,,,,,,,,,,,,,,,,,,,,,,,,,,,,,,,,,,,,,,,,,,,,,,,,,,,,,,,,,,,,,,,,,,,,,,,,,,,,,,,,,,,,,,,,,,,,,,,,
,,,,,,6093e92dd23145f26f9bf2e6,62c53a81e76ea1e86072de72,2022-07-06_10h32.34.472,Colour_Asymmetry_Pilot,2022.1.3,Win32,59.60185958,62c50e9c1127f2cd403a315f,0,125,125,55,1,fourthree,,,,,,,,,,,,,,,,,,,,,,,,,,,,,,,,,,,,,,,,,,,,,,,,,,,,,,,,,,,,,,,,,,,,,,,,,,,,,,,,,,,,,,,,,,,,,,,,,,,,,,,,,,,,,,,,,,,,,,,,,,,,,,,,,,,,,,,,,,,,,,,,,,,,,,,,,,,,
,,,,,,6093e92dd23145f26f9bf2e6,62c53a81e76ea1e86072de72,2022-07-06_10h32.34.472,Colour_Asymmetry_Pilot,2022.1.3,Win32,59.60185958,62c50e9c1127f2cd403a315f,0,126,126,78,1,fourtwo,,,,,,,,,,,,,,,,,,,,,,,,,,,,,,,,,,,,,,,,,,,,,,,,,,,,,,,,,,,,,,,,,,,,,,,,,,,,,,,,,,,,,,,,,,,,,,,,,,,,,,,,,,,,,,,,,,,,,,,,,,,,,,,,,,,,,,,,,,,,,,,,,,,,,,,,,,,,
,,,,,,6093e92dd23145f26f9bf2e6,62c53a81e76ea1e86072de72,2022-07-06_10h32.34.472,Colour_Asymmetry_Pilot,2022.1.3,Win32,59.60185958,62c50e9c1127f2cd403a315f,0,127,127,64,1,onetwo,,,,,,,,,,,,,,,,,,,,,,,,,,,,,,,,,,,,,,,,,,,,,,,,,,,,,,,,,,,,,,,,,,,,,,,,,,,,,,,,,,,,,,,,,,,,,,,,,,,,,,,,,,,,,,,,,,,,,,,,,,,,,,,,,,,,,,,,,,,,,,,,,,,,,,,,,,,,
,,,,,,6093e92dd23145f26f9bf2e6,62c53a81e76ea1e86072de72,2022-07-06_10h32.34.472,Colour_Asymmetry_Pilot,2022.1.3,Win32,59.60185958,62c50e9c1127f2cd403a315f,0,128,128,73,1,onethree,,,,,,,,,,,,,,,,,,,,,,,,,,,,,,,,,,,,,,,,,,,,,,,,,,,,,,,,,,,,,,,,,,,,,,,,,,,,,,,,,,,,,,,,,,,,,,,,,,,,,,,,,,,,,,,,,,,,,,,,,,,,,,,,,,,,,,,,,,,,,,,,,,,,,,,,,,,,
,,,,,,6093e92dd23145f26f9bf2e6,62c53a81e76ea1e86072de72,2022-07-06_10h32.34.472,Colour_Asymmetry_Pilot,2022.1.3,Win32,59.60185958,62c50e9c1127f2cd403a315f,0,129,129,76,1,threeone,,,,,,,,,,,,,,,,,,,,,,,,,,,,,,,,,,,,,,,,,,,,,,,,,,,,,,,,,,,,,,,,,,,,,,,,,,,,,,,,,,,,,,,,,,,,,,,,,,,,,,,,,,,,,,,,,,,,,,,,,,,,,,,,,,,,,,,,,,,,,,,,,,,,,,,,,,,,
,,,,,,6093e92dd23145f26f9bf2e6,62c53a81e76ea1e86072de72,2022-07-06_10h32.34.472,Colour_Asymmetry_Pilot,2022.1.3,Win32,59.60185958,62c50e9c1127f2cd403a315f,0,130,130,114,1,twoone,,,,,,,,,,,,,,,,,,,,,,,,,,,,,,,,,,,,,,,,,,,,,,,,,,,,,,,,,,,,,,,,,,,,,,,,,,,,,,,,,,,,,,,,,,,,,,,,,,,,,,,,,,,,,,,,,,,,,,,,,,,,,,,,,,,,,,,,,,,,,,,,,,,,,,,,,,,,
,,,,,,6093e92dd23145f26f9bf2e6,62c53a81e76ea1e86072de72,2022-07-06_10h32.34.472,Colour_Asymmetry_Pilot,2022.1.3,Win32,59.60185958,62c50e9c1127f2cd403a315f,0,131,131,49,1,onethree,,,,,,,,,,,,,,,,,,,,,,,,,,,,,,,,,,,,,,,,,,,,,,,,,,,,,,,,,,,,,,,,,,,,,,,,,,,,,,,,,,,,,,,,,,,,,,,,,,,,,,,,,,,,,,,,,,,,,,,,,,,,,,,,,,,,,,,,,,,,,,,,,,,,,,,,,,,,
,,,,,,6093e92dd23145f26f9bf2e6,62c53a81e76ea1e86072de72,2022-07-06_10h32.34.472,Colour_Asymmetry_Pilot,2022.1.3,Win32,59.60185958,62c50e9c1127f2cd403a315f,0,132,132,17,1,onethree,,,,,,,,,,,,,,,,,,,,,,,,,,,,,,,,,,,,,,,,,,,,,,,,,,,,,,,,,,,,,,,,,,,,,,,,,,,,,,,,,,,,,,,,,,,,,,,,,,,,,,,,,,,,,,,,,,,,,,,,,,,,,,,,,,,,,,,,,,,,,,,,,,,,,,,,,,,,
,,,,,,6093e92dd23145f26f9bf2e6,62c53a81e76ea1e86072de72,2022-07-06_10h32.34.472,Colour_Asymmetry_Pilot,2022.1.3,Win32,59.60185958,62c50e9c1127f2cd403a315f,0,133,133,80,1,onetwo,,,,,,,,,,,,,,,,,,,,,,,,,,,,,,,,,,,,,,,,,,,,,,,,,,,,,,,,,,,,,,,,,,,,,,,,,,,,,,,,,,,,,,,,,,,,,,,,,,,,,,,,,,,,,,,,,,,,,,,,,,,,,,,,,,,,,,,,,,,,,,,,,,,,,,,,,,,,
,,,,,,6093e92dd23145f26f9bf2e6,62c53a81e76ea1e86072de72,2022-07-06_10h32.34.472,Colour_Asymmetry_Pilot,2022.1.3,Win32,59.60185958,62c50e9c1127f2cd403a315f,0,134,134,159,1,fourthree,,,,,,,,,,,,,,,,,,,,,,,,,,,,,,,,,,,,,,,,,,,,,,,,,,,,,,,,,,,,,,,,,,,,,,,,,,,,,,,,,,,,,,,,,,,,,,,,,,,,,,,,,,,,,,,,,,,,,,,,,,,,,,,,,,,,,,,,,,,,,,,,,,,,,,,,,,,,
,,,,,,6093e92dd23145f26f9bf2e6,62c53a81e76ea1e86072de72,2022-07-06_10h32.34.472,Colour_Asymmetry_Pilot,2022.1.3,Win32,59.60185958,62c50e9c1127f2cd403a315f,0,135,135,51,1,twofour,,,,,,,,,,,,,,,,,,,,,,,,,,,,,,,,,,,,,,,,,,,,,,,,,,,,,,,,,,,,,,,,,,,,,,,,,,,,,,,,,,,,,,,,,,,,,,,,,,,,,,,,,,,,,,,,,,,,,,,,,,,,,,,,,,,,,,,,,,,,,,,,,,,,,,,,,,,,
,,,,,,6093e92dd23145f26f9bf2e6,62c53a81e76ea1e86072de72,2022-07-06_10h32.34.472,Colour_Asymmetry_Pilot,2022.1.3,Win32,59.60185958,62c50e9c1127f2cd403a315f,0,136,136,54,1,fourtwo,,,,,,,,,,,,,,,,,,,,,,,,,,,,,,,,,,,,,,,,,,,,,,,,,,,,,,,,,,,,,,,,,,,,,,,,,,,,,,,,,,,,,,,,,,,,,,,,,,,,,,,,,,,,,,,,,,,,,,,,,,,,,,,,,,,,,,,,,,,,,,,,,,,,,,,,,,,,
,,,,,,6093e92dd23145f26f9bf2e6,62c53a81e76ea1e86072de72,2022-07-06_10h32.34.472,Colour_Asymmetry_Pilot,2022.1.3,Win32,59.60185958,62c50e9c1127f2cd403a315f,0,137,137,120,1,onetwo,,,,,,,,,,,,,,,,,,,,,,,,,,,,,,,,,,,,,,,,,,,,,,,,,,,,,,,,,,,,,,,,,,,,,,,,,,,,,,,,,,,,,,,,,,,,,,,,,,,,,,,,,,,,,,,,,,,,,,,,,,,,,,,,,,,,,,,,,,,,,,,,,,,,,,,,,,,,
,,,,,,6093e92dd23145f26f9bf2e6,62c53a81e76ea1e86072de72,2022-07-06_10h32.34.472,Colour_Asymmetry_Pilot,2022.1.3,Win32,59.60185958,62c50e9c1127f2cd403a315f,0,138,138,12,1,threeone,,,,,,,,,,,,,,,,,,,,,,,,,,,,,,,,,,,,,,,,,,,,,,,,,,,,,,,,,,,,,,,,,,,,,,,,,,,,,,,,,,,,,,,,,,,,,,,,,,,,,,,,,,,,,,,,,,,,,,,,,,,,,,,,,,,,,,,,,,,,,,,,,,,,,,,,,,,,
,,,,,,6093e92dd23145f26f9bf2e6,62c53a81e76ea1e86072de72,2022-07-06_10h32.34.472,Colour_Asymmetry_Pilot,2022.1.3,Win32,59.60185958,62c50e9c1127f2cd403a315f,0,139,139,121,1,onethree,,,,,,,,,,,,,,,,,,,,,,,,,,,,,,,,,,,,,,,,,,,,,,,,,,,,,,,,,,,,,,,,,,,,,,,,,,,,,,,,,,,,,,,,,,,,,,,,,,,,,,,,,,,,,,,,,,,,,,,,,,,,,,,,,,,,,,,,,,,,,,,,,,,,,,,,,,,,
,,,,,,6093e92dd23145f26f9bf2e6,62c53a81e76ea1e86072de72,2022-07-06_10h32.34.472,Colour_Asymmetry_Pilot,2022.1.3,Win32,59.60185958,62c50e9c1127f2cd403a315f,0,140,140,91,1,twofour,,,,,,,,,,,,,,,,,,,,,,,,,,,,,,,,,,,,,,,,,,,,,,,,,,,,,,,,,,,,,,,,,,,,,,,,,,,,,,,,,,,,,,,,,,,,,,,,,,,,,,,,,,,,,,,,,,,,,,,,,,,,,,,,,,,,,,,,,,,,,,,,,,,,,,,,,,,,
,,,,,,6093e92dd23145f26f9bf2e6,62c53a81e76ea1e86072de72,2022-07-06_10h32.34.472,Colour_Asymmetry_Pilot,2022.1.3,Win32,59.60185958,62c50e9c1127f2cd403a315f,0,141,141,154,1,twoone,,,,,,,,,,,,,,,,,,,,,,,,,,,,,,,,,,,,,,,,,,,,,,,,,,,,,,,,,,,,,,,,,,,,,,,,,,,,,,,,,,,,,,,,,,,,,,,,,,,,,,,,,,,,,,,,,,,,,,,,,,,,,,,,,,,,,,,,,,,,,,,,,,,,,,,,,,,,
,,,,,,6093e92dd23145f26f9bf2e6,62c53a81e76ea1e86072de72,2022-07-06_10h32.34.472,Colour_Asymmetry_Pilot,2022.1.3,Win32,59.60185958,62c50e9c1127f2cd403a315f,0,142,142,50,1,twoone,,,,,,,,,,,,,,,,,,,,,,,,,,,,,,,,,,,,,,,,,,,,,,,,,,,,,,,,,,,,,,,,,,,,,,,,,,,,,,,,,,,,,,,,,,,,,,,,,,,,,,,,,,,,,,,,,,,,,,,,,,,,,,,,,,,,,,,,,,,,,,,,,,,,,,,,,,,,
,,,,,,6093e92dd23145f26f9bf2e6,62c53a81e76ea1e86072de72,2022-07-06_10h32.34.472,Colour_Asymmetry_Pilot,2022.1.3,Win32,59.60185958,62c50e9c1127f2cd403a315f,0,143,143,105,1,onethree,,,,,,,,,,,,,,,,,,,,,,,,,,,,,,,,,,,,,,,,,,,,,,,,,,,,,,,,,,,,,,,,,,,,,,,,,,,,,,,,,,,,,,,,,,,,,,,,,,,,,,,,,,,,,,,,,,,,,,,,,,,,,,,,,,,,,,,,,,,,,,,,,,,,,,,,,,,,
,,,,,,6093e92dd23145f26f9bf2e6,62c53a81e76ea1e86072de72,2022-07-06_10h32.34.472,Colour_Asymmetry_Pilot,2022.1.3,Win32,59.60185958,62c50e9c1127f2cd403a315f,0,144,144,111,1,fourthree,,,,,,,,,,,,,,,,,,,,,,,,,,,,,,,,,,,,,,,,,,,,,,,,,,,,,,,,,,,,,,,,,,,,,,,,,,,,,,,,,,,,,,,,,,,,,,,,,,,,,,,,,,,,,,,,,,,,,,,,,,,,,,,,,,,,,,,,,,,,,,,,,,,,,,,,,,,,
,,,,,,6093e92dd23145f26f9bf2e6,62c53a81e76ea1e86072de72,2022-07-06_10h32.34.472,Colour_Asymmetry_Pilot,2022.1.3,Win32,59.60185958,62c50e9c1127f2cd403a315f,0,145,145,116,1,threeone,,,,,,,,,,,,,,,,,,,,,,,,,,,,,,,,,,,,,,,,,,,,,,,,,,,,,,,,,,,,,,,,,,,,,,,,,,,,,,,,,,,,,,,,,,,,,,,,,,,,,,,,,,,,,,,,,,,,,,,,,,,,,,,,,,,,,,,,,,,,,,,,,,,,,,,,,,,,
,,,,,,6093e92dd23145f26f9bf2e6,62c53a81e76ea1e86072de72,2022-07-06_10h32.34.472,Colour_Asymmetry_Pilot,2022.1.3,Win32,59.60185958,62c50e9c1127f2cd403a315f,0,146,146,130,1,twoone,,,,,,,,,,,,,,,,,,,,,,,,,,,,,,,,,,,,,,,,,,,,,,,,,,,,,,,,,,,,,,,,,,,,,,,,,,,,,,,,,,,,,,,,,,,,,,,,,,,,,,,,,,,,,,,,,,,,,,,,,,,,,,,,,,,,,,,,,,,,,,,,,,,,,,,,,,,,
,,,,,,6093e92dd23145f26f9bf2e6,62c53a81e76ea1e86072de72,2022-07-06_10h32.34.472,Colour_Asymmetry_Pilot,2022.1.3,Win32,59.60185958,62c50e9c1127f2cd403a315f,0,147,147,66,1,twoone,,,,,,,,,,,,,,,,,,,,,,,,,,,,,,,,,,,,,,,,,,,,,,,,,,,,,,,,,,,,,,,,,,,,,,,,,,,,,,,,,,,,,,,,,,,,,,,,,,,,,,,,,,,,,,,,,,,,,,,,,,,,,,,,,,,,,,,,,,,,,,,,,,,,,,,,,,,,
,,,,,,6093e92dd23145f26f9bf2e6,62c53a81e76ea1e86072de72,2022-07-06_10h32.34.472,Colour_Asymmetry_Pilot,2022.1.3,Win32,59.60185958,62c50e9c1127f2cd403a315f,0,148,148,90,1,twoone,,,,,,,,,,,,,,,,,,,,,,,,,,,,,,,,,,,,,,,,,,,,,,,,,,,,,,,,,,,,,,,,,,,,,,,,,,,,,,,,,,,,,,,,,,,,,,,,,,,,,,,,,,,,,,,,,,,,,,,,,,,,,,,,,,,,,,,,,,,,,,,,,,,,,,,,,,,,
,,,,,,6093e92dd23145f26f9bf2e6,62c53a81e76ea1e86072de72,2022-07-06_10h32.34.472,Colour_Asymmetry_Pilot,2022.1.3,Win32,59.60185958,62c50e9c1127f2cd403a315f,0,149,149,139,1,twofour,,,,,,,,,,,,,,,,,,,,,,,,,,,,,,,,,,,,,,,,,,,,,,,,,,,,,,,,,,,,,,,,,,,,,,,,,,,,,,,,,,,,,,,,,,,,,,,,,,,,,,,,,,,,,,,,,,,,,,,,,,,,,,,,,,,,,,,,,,,,,,,,,,,,,,,,,,,,
,,,,,,6093e92dd23145f26f9bf2e6,62c53a81e76ea1e86072de72,2022-07-06_10h32.34.472,Colour_Asymmetry_Pilot,2022.1.3,Win32,59.60185958,62c50e9c1127f2cd403a315f,0,150,150,41,1,onethree,,,,,,,,,,,,,,,,,,,,,,,,,,,,,,,,,,,,,,,,,,,,,,,,,,,,,,,,,,,,,,,,,,,,,,,,,,,,,,,,,,,,,,,,,,,,,,,,,,,,,,,,,,,,,,,,,,,,,,,,,,,,,,,,,,,,,,,,,,,,,,,,,,,,,,,,,,,,
,,,,,,6093e92dd23145f26f9bf2e6,62c53a81e76ea1e86072de72,2022-07-06_10h32.34.472,Colour_Asymmetry_Pilot,2022.1.3,Win32,59.60185958,62c50e9c1127f2cd403a315f,0,151,151,34,1,twoone,,,,,,,,,,,,,,,,,,,,,,,,,,,,,,,,,,,,,,,,,,,,,,,,,,,,,,,,,,,,,,,,,,,,,,,,,,,,,,,,,,,,,,,,,,,,,,,,,,,,,,,,,,,,,,,,,,,,,,,,,,,,,,,,,,,,,,,,,,,,,,,,,,,,,,,,,,,,
,,,,,,6093e92dd23145f26f9bf2e6,62c53a81e76ea1e86072de72,2022-07-06_10h32.34.472,Colour_Asymmetry_Pilot,2022.1.3,Win32,59.60185958,62c50e9c1127f2cd403a315f,0,152,152,142,1,fourtwo,,,,,,,,,,,,,,,,,,,,,,,,,,,,,,,,,,,,,,,,,,,,,,,,,,,,,,,,,,,,,,,,,,,,,,,,,,,,,,,,,,,,,,,,,,,,,,,,,,,,,,,,,,,,,,,,,,,,,,,,,,,,,,,,,,,,,,,,,,,,,,,,,,,,,,,,,,,,
,,,,,,6093e92dd23145f26f9bf2e6,62c53a81e76ea1e86072de72,2022-07-06_10h32.34.472,Colour_Asymmetry_Pilot,2022.1.3,Win32,59.60185958,62c50e9c1127f2cd403a315f,0,153,153,84,1,threeone,,,,,,,,,,,,,,,,,,,,,,,,,,,,,,,,,,,,,,,,,,,,,,,,,,,,,,,,,,,,,,,,,,,,,,,,,,,,,,,,,,,,,,,,,,,,,,,,,,,,,,,,,,,,,,,,,,,,,,,,,,,,,,,,,,,,,,,,,,,,,,,,,,,,,,,,,,,,
,,,,,,6093e92dd23145f26f9bf2e6,62c53a81e76ea1e86072de72,2022-07-06_10h32.34.472,Colour_Asymmetry_Pilot,2022.1.3,Win32,59.60185958,62c50e9c1127f2cd403a315f,0,154,154,24,1,onetwo,,,,,,,,,,,,,,,,,,,,,,,,,,,,,,,,,,,,,,,,,,,,,,,,,,,,,,,,,,,,,,,,,,,,,,,,,,,,,,,,,,,,,,,,,,,,,,,,,,,,,,,,,,,,,,,,,,,,,,,,,,,,,,,,,,,,,,,,,,,,,,,,,,,,,,,,,,,,
,,,,,,6093e92dd23145f26f9bf2e6,62c53a81e76ea1e86072de72,2022-07-06_10h32.34.472,Colour_Asymmetry_Pilot,2022.1.3,Win32,59.60185958,62c50e9c1127f2cd403a315f,0,155,155,75,1,twofour,,,,,,,,,,,,,,,,,,,,,,,,,,,,,,,,,,,,,,,,,,,,,,,,,,,,,,,,,,,,,,,,,,,,,,,,,,,,,,,,,,,,,,,,,,,,,,,,,,,,,,,,,,,,,,,,,,,,,,,,,,,,,,,,,,,,,,,,,,,,,,,,,,,,,,,,,,,,
,,,,,,6093e92dd23145f26f9bf2e6,62c53a81e76ea1e86072de72,2022-07-06_10h32.34.472,Colour_Asymmetry_Pilot,2022.1.3,Win32,59.60185958,62c50e9c1127f2cd403a315f,0,156,156,8,1,onetwo,,,,,,,,,,,,,,,,,,,,,,,,,,,,,,,,,,,,,,,,,,,,,,,,,,,,,,,,,,,,,,,,,,,,,,,,,,,,,,,,,,,,,,,,,,,,,,,,,,,,,,,,,,,,,,,,,,,,,,,,,,,,,,,,,,,,,,,,,,,,,,,,,,,,,,,,,,,,
,,,,,,6093e92dd23145f26f9bf2e6,62c53a81e76ea1e86072de72,2022-07-06_10h32.34.472,Colour_Asymmetry_Pilot,2022.1.3,Win32,59.60185958,62c50e9c1127f2cd403a315f,0,157,157,145,1,onethree,,,,,,,,,,,,,,,,,,,,,,,,,,,,,,,,,,,,,,,,,,,,,,,,,,,,,,,,,,,,,,,,,,,,,,,,,,,,,,,,,,,,,,,,,,,,,,,,,,,,,,,,,,,,,,,,,,,,,,,,,,,,,,,,,,,,,,,,,,,,,,,,,,,,,,,,,,,,
,,,,,,6093e92dd23145f26f9bf2e6,62c53a81e76ea1e86072de72,2022-07-06_10h32.34.472,Colour_Asymmetry_Pilot,2022.1.3,Win32,59.60185958,62c50e9c1127f2cd403a315f,0,158,158,110,1,fourtwo,,,,,,,,,,,,,,,,,,,,,,,,,,,,,,,,,,,,,,,,,,,,,,,,,,,,,,,,,,,,,,,,,,,,,,,,,,,,,,,,,,,,,,,,,,,,,,,,,,,,,,,,,,,,,,,,,,,,,,,,,,,,,,,,,,,,,,,,,,,,,,,,,,,,,,,,,,,,
,,,,,,6093e92dd23145f26f9bf2e6,62c53a81e76ea1e86072de72,2022-07-06_10h32.34.472,Colour_Asymmetry_Pilot,2022.1.3,Win32,59.60185958,62c50e9c1127f2cd403a315f,0,159,159,98,1,twoone,,,,,,,,,,,,,,,,,,,,,,,,,,,,,,,,,,,,,,,,,,,,,,,,,,,,,,,,,,,,,,,,,,,,,,,,,,,,,,,,,,,,,,,,,,,,,,,,,,,,,,,,,,,,,,,,,,,,,,,,,,,,,,,,,,,,,,,,,,,,,,,,,,,,,,,,,,,,
,,,,,,6093e92dd23145f26f9bf2e6,62c53a81e76ea1e86072de72,2022-07-06_10h32.34.472,Colour_Asymmetry_Pilot,2022.1.3,Win32,59.60185958,62c50e9c1127f2cd403a315f,0,160,160,38,1,fourtwo,,,,,,,,,,,,,,,,,,,,,,,,,,,,,,,,,,,,,,,,,,,,,,,,,,,,,,,,,,,,,,,,,,,,,,,,,,,,,,,,,,,,,,,,,,,,,,,,,,,,,,,,,,,,,,,,,,,,,,,,,,,,,,,,,,,,,,,,,,,,,,,,,,,,,,,,,,,,
,,,,,,6093e92dd23145f26f9bf2e6,62c53a81e76ea1e86072de72,2022-07-06_10h32.34.472,Colour_Asymmetry_Pilot,2022.1.3,Win32,59.60185958,62c50e9c1127f2cd403a315f,0,161,161,70,1,fourtwo,,,,,,,,,,,,,,,,,,,,,,,,,,,,,,,,,,,,,,,,,,,,,,,,,,,,,,,,,,,,,,,,,,,,,,,,,,,,,,,,,,,,,,,,,,,,,,,,,,,,,,,,,,,,,,,,,,,,,,,,,,,,,,,,,,,,,,,,,,,,,,,,,,,,,,,,,,,,
,,,,,,6093e92dd23145f26f9bf2e6,62c53a81e76ea1e86072de72,2022-07-06_10h32.34.472,Colour_Asymmetry_Pilot,2022.1.3,Win32,59.60185958,62c50e9c1127f2cd403a315f,,,,,,,space,1.2946,space,16.5888,space,10.4486,space,5.4152,space,4.1971,space,2.2047,"[-0.6,0.16860000000000008,0.44300000000000006]",fourthree,"[0.37240000000000006,-0.050999999999999934,-0.5216]",4,4.5632,50,108,1,0,0,response1disk_5,3,-4,1,0,0,rectangle_8,3,-4,1,0,0,2,3,-4,1,0,0,0,0,0,0,1,,,,,,,,,,,,,,,,,,,,,,,,,,,,,,,,,,,,,,,,,,,,,,,,,,,,,,,,,,,,,,,,,,,,,,,,,,,,,,,,,,,,,,,,,,,,,,,,,,,,,,,,,,,,,,,
,,,,,,6093e92dd23145f26f9bf2e6,62c53a81e76ea1e86072de72,2022-07-06_10h32.34.472,Colour_Asymmetry_Pilot,2022.1.3,Win32,59.60185958,62c50e9c1127f2cd403a315f,,,,,,,,,,,,,,,,,,,"[0.9213999999999998,0.6391999999999998,-0.9922]",onethree,"[-0.8118,-0.8198,-0.5452]",-4,3.7332,-55,113,1,0,0,response7disk_5,11,1,1,0,0,rectangle_8,11,1,1,0,0,2,11,1,1,0,0,1,0,1,0,1,,,,,,,,,,,,,,,,,,,,,,,,,,,,,,,,,,,,,,,,,,,,,,,,,,,,,,,,,,,,,,,,,,,,,,,,,,,,,,,,,,,,,,,,,,,,,,,,,,,,,,,,,,,,,,,
,,,,,,6093e92dd23145f26f9bf2e6,62c53a81e76ea1e86072de72,2022-07-06_10h32.34.472,Colour_Asymmetry_Pilot,2022.1.3,Win32,59.60185958,62c50e9c1127f2cd403a315f,,,,,,,,,,,,,,,,,,,"[0.34099999999999997,0.12939999999999996,-0.9766]",fourthree,"[-0.17659999999999998,0.3253999999999999,0.19999999999999996]",-4,3.5506,-38,94,1,0,0,response7disk_5,0,-8,1,0,0,rectangle_8,0,-8,1,0,0,2,0,-8,1,0,0,2,0,2,0,1,,,,,,,,,,,,,,,,,,,,,,,,,,,,,,,,,,,,,,,,,,,,,,,,,,,,,,,,,,,,,,,,,,,,,,,,,,,,,,,,,,,,,,,,,,,,,,,,,,,,,,,,,,,,,,,
,,,,,,6093e92dd23145f26f9bf2e6,62c53a81e76ea1e86072de72,2022-07-06_10h32.34.472,Colour_Asymmetry_Pilot,2022.1.3,Win32,59.60185958,62c50e9c1127f2cd403a315f,,,,,,,,,,,,,,,,,,,"[0.23120000000000007,-0.7726,-0.34120000000000006]",twofour,"[-0.6,0.16860000000000008,0.44300000000000006]",-3,12.5152,-90,36,1,0,0,response7disk_5,2,7,1,0,0,rectangle_8,122,-63,1,0,0,2,-5,-19,1,0,0,3,0,3,0,1,response3disk_7,5,rectangle_4,,,,,,,,,,,,,,,,,,,,,,,,,,,,,,,,,,,,,,,,,,,,,,,,,,,,,,,,,,,,,,,,,,,,,,,,,,,,,,,,,,,,,,,,,,,,,,,,,,,,,,,,,,,,
,,,,,,6093e92dd23145f26f9bf2e6,62c53a81e76ea1e86072de72,2022-07-06_10h32.34.472,Colour_Asymmetry_Pilot,2022.1.3,Win32,59.60185958,62c50e9c1127f2cd403a315f,,,,,,,,,,,,,,,,,,,"[-0.17659999999999998,0.3253999999999999,0.19999999999999996]",threefour,"[0.34099999999999997,0.12939999999999996,-0.9766]",-2,3.1664,-115,-60,1,0,0,response5disk_5,18,10,1,0,0,rectangle_8,18,10,1,0,0,2,18,10,1,0,0,4,0,4,0,1,,,,,,,,,,,,,,,,,,,,,,,,,,,,,,,,,,,,,,,,,,,,,,,,,,,,,,,,,,,,,,,,,,,,,,,,,,,,,,,,,,,,,,,,,,,,,,,,,,,,,,,,,,,,,,,
,,,,,,6093e92dd23145f26f9bf2e6,62c53a81e76ea1e86072de72,2022-07-06_10h32.34.472,Colour_Asymmetry_Pilot,2022.1.3,Win32,59.60185958,62c50e9c1127f2cd403a315f,,,,,,,,,,,,,,,,,,,"[-0.2942,-0.7648,-0.7492000000000001]",twofour,"[0.9763999999999999,0.30979999999999985,-0.6786]",-4,1.1347,-65,109,1,0,0,response7disk_5,18,-3,1,0,0,rectangle_8,18,-3,1,0,0,2,18,-3,1,0,0,5,0,5,0,1,,,,,,,,,,,,,,,,,,,,,,,,,,,,,,,,,,,,,,,,,,,,,,,,,,,,,,,,,,,,,,,,,,,,,,,,,,,,,,,,,,,,,,,,,,,,,,,,,,,,,,,,,,,,,,,
,,,,,,6093e92dd23145f26f9bf2e6,62c53a81e76ea1e86072de72,2022-07-06_10h32.34.472,Colour_Asymmetry_Pilot,2022.1.3,Win32,59.60185958,62c50e9c1127f2cd403a315f,,,,,,,,,,,,,,,,,,,"[-0.01980000000000004,-0.5138,-0.38039999999999996]",twofour,"[-0.4982,-0.2942,-0.0354000000000001]",-1,1.983,-31,-105,1,0,0,response5disk_5,15,3,1,0,0,rectangle_8,15,3,1,0,0,2,15,3,1,0,0,6,0,6,0,1,,,,,,,,,,,,,,,,,,,,,,,,,,,,,,,,,,,,,,,,,,,,,,,,,,,,,,,,,,,,,,,,,,,,,,,,,,,,,,,,,,,,,,,,,,,,,,,,,,,,,,,,,,,,,,,
,,,,,,6093e92dd23145f26f9bf2e6,62c53a81e76ea1e86072de72,2022-07-06_10h32.34.472,Colour_Asymmetry_Pilot,2022.1.3,Win32,59.60185958,62c50e9c1127f2cd403a315f,,,,,,,,,,,,,,,,,,,,threefour,,-2,2.6266,,,,,,,,,,,,,,,,,,,,,,,,,,,,,,,,space,3.5106,"[-0.050999999999999934,-0.6706000000000001,-0.804]","[0.34099999999999997,0.12939999999999996,-0.9766]",-105,-52,1,0,0,response5disk,-7,-4,1,0,0,rectangle,-7,-4,1,0,0,,1,0.0057,0,-7,-4,1,0,0,0,0,0,115,1,34,second,,,,,,,,,,,,,,,,,,,,,,,,,,,,,,,,,,,,,,,,,,,,,,,,,,,,,,,,,,,,,,,,,,,,,,,
,,,,,,6093e92dd23145f26f9bf2e6,62c53a81e76ea1e86072de72,2022-07-06_10h32.34.472,Colour_Asymmetry_Pilot,2022.1.3,Win32,59.60185958,62c50e9c1127f2cd403a315f,,,,,,,,,,,,,,,,,,,,threeone,,-4,2.0998,,,,,,,,,,,,,,,,,,,,,,,,,,,,,,,,,,"[-0.9766,-0.6472,0.07440000000000002]","[0.9213999999999998,0.6391999999999998,-0.9922]",-54,85,1,0,0,response7disk,-14,-5,1,0,0,rectangle,-14,-5,1,0,0,,3,0.0031,0,-14,-5,1,0,0,0,1,1,43,1,43,first,,,,,,,,,,,,,,,,,,,,,,,,,,,,,,,,,,,,,,,,,,,,,,,,,,,,,,,,,,,,,,,,,,,,,,,
,,,,,,6093e92dd23145f26f9bf2e6,62c53a81e76ea1e86072de72,2022-07-06_10h32.34.472,Colour_Asymmetry_Pilot,2022.1.3,Win32,59.60185958,62c50e9c1127f2cd403a315f,,,,,,,,,,,,,,,,,,,,twofour,,1,2.8334,,,,,,,,,,,,,,,,,,,,,,,,,,,,,,,,,,"[0.6547999999999998,-0.043199999999999905,-0.011800000000000033]","[-0.2942,-0.7648,-0.7492000000000001]",53,-89,1,0,0,response3disk,1,-9,1,0,0,rectangle,1,-9,1,0,0,,3,0.0007,0,1,-9,1,0,0,0,2,2,95,1,14,second,,,,,,,,,,,,,,,,,,,,,,,,,,,,,,,,,,,,,,,,,,,,,,,,,,,,,,,,,,,,,,,,,,,,,,,
,,,,,,6093e92dd23145f26f9bf2e6,62c53a81e76ea1e86072de72,2022-07-06_10h32.34.472,Colour_Asymmetry_Pilot,2022.1.3,Win32,59.60185958,62c50e9c1127f2cd403a315f,,,,,,,,,,,,,,,,,,,,threeone,,-1,2.5499,,,,,,,,,,,,,,,,,,,,,,,,,,,,,,,,,,"[0.9372,0.20779999999999998,0.2704]","[0.3802000000000001,0.19199999999999995,-0.6394]",-77,-87,1,0,0,response5disk,-8,-14,1,0,0,rectangle,-8,-14,1,0,0,,1,0.0026,0,-8,-14,1,0,0,0,3,3,4,1,4,first,,,,,,,,,,,,,,,,,,,,,,,,,,,,,,,,,,,,,,,,,,,,,,,,,,,,,,,,,,,,,,,,,,,,,,,
,,,,,,6093e92dd23145f26f9bf2e6,62c53a81e76ea1e86072de72,2022-07-06_10h32.34.472,Colour_Asymmetry_Pilot,2022.1.3,Win32,59.60185958,62c50e9c1127f2cd403a315f,,,,,,,,,,,,,,,,,,,,fourthree,,-3,1.7995,,,,,,,,,,,,,,,,,,,,,,,,,,,,,,,,,,"[-0.4902000000000001,0.2704,-0.45899999999999996]","[0.18419999999999992,-0.4276,-0.404]",-110,38,1,0,0,response7disk,12,-8,1,0,0,rectangle,144,37,1,0,0,3,3,2.9839,1,1,-9,1,0,0,0,4,4,97,1,16,second,response1disk_3,rectangle,,,,,,,,,,,,,,,,,,,,,,,,,,,,,,,,,,,,,,,,,,,,,,,,,,,,,,,,,,,,,,,,,,,,,
,,,,,,6093e92dd23145f26f9bf2e6,62c53a81e76ea1e86072de72,2022-07-06_10h32.34.472,Colour_Asymmetry_Pilot,2022.1.3,Win32,59.60185958,62c50e9c1127f2cd403a315f,,,,,,,,,,,,,,,,,,,,fourthree,,-1,2.6831,,,,,,,,,,,,,,,,,,,,,,,,,,,,,,,,,,"[0.18419999999999992,-0.4276,-0.404]","[0.2862,0.7802,0.3568]",-39,-106,1,0,0,response5disk,-10,5,1,0,0,rectangle,-10,5,1,0,0,3,3,0.0008,0,-10,5,1,0,0,0,5,5,119,1,38,second,,,,,,,,,,,,,,,,,,,,,,,,,,,,,,,,,,,,,,,,,,,,,,,,,,,,,,,,,,,,,,,,,,,,,,,
,,,,,,6093e92dd23145f26f9bf2e6,62c53a81e76ea1e86072de72,2022-07-06_10h32.34.472,Colour_Asymmetry_Pilot,2022.1.3,Win32,59.60185958,62c50e9c1127f2cd403a315f,,,,,,,,,,,,,,,,,,,,twofour,,1,0.7587,,,,,,,,,,,,,,,,,,,,,,,,,,,,,,,,,,"[1,0.12939999999999996,-1]","[-0.5688,-0.08239999999999992,-0.1844]",28,-102,1,0,0,response3disk,8,10,1,0,0,rectangle,8,10,1,0,0,3,2,0.0028,0,8,10,1,0,0,0,6,6,57,1,57,first,,,,,,,,,,,,,,,,,,,,,,,,,,,,,,,,,,,,,,,,,,,,,,,,,,,,,,,,,,,,,,,,,,,,,,,
,,,,,,6093e92dd23145f26f9bf2e6,62c53a81e76ea1e86072de72,2022-07-06_10h32.34.472,Colour_Asymmetry_Pilot,2022.1.3,Win32,59.60185958,62c50e9c1127f2cd403a315f,,,,,,,,,,,,,,,,,,,,threefour,,-4,0.7667,,,,,,,,,,,,,,,,,,,,,,,,,,,,,,,,,,"[-0.34920000000000007,-0.702,-0.5216]","[0.37240000000000006,0.4980000000000002,-0.2864]",-73,114,1,0,0,response7disk,6,-10,1,0,0,rectangle,6,-10,1,0,0,3,1,0.0027,0,6,-10,1,0,0,0,7,7,96,1,15,second,,,,,,,,,,,,,,,,,,,,,,,,,,,,,,,,,,,,,,,,,,,,,,,,,,,,,,,,,,,,,,,,,,,,,,,
,,,,,,6093e92dd23145f26f9bf2e6,62c53a81e76ea1e86072de72,2022-07-06_10h32.34.472,Colour_Asymmetry_Pilot,2022.1.3,Win32,59.60185958,62c50e9c1127f2cd403a315f,,,,,,,,,,,,,,,,,,,,onetwo,,2,0.9167,,,,,,,,,,,,,,,,,,,,,,,,,,,,,,,,,,"[-0.17659999999999998,-0.2864,-0.8354]","[-0.5688,-0.08239999999999992,-0.1844]",76,-47,1,0,0,response3disk,-6,-1,1,0,0,rectangle,-6,-1,1,0,0,3,3,0.003,0,-6,-1,1,0,0,0,8,8,150,1,69,second,,,,,,,,,,,,,,,,,,,,,,,,,,,,,,,,,,,,,,,,,,,,,,,,,,,,,,,,,,,,,,,,,,,,,,,
,,,,,,6093e92dd23145f26f9bf2e6,62c53a81e76ea1e86072de72,2022-07-06_10h32.34.472,Colour_Asymmetry_Pilot,2022.1.3,Win32,59.60185958,62c50e9c1127f2cd403a315f,,,,,,,,,,,,,,,,,,,,threeone,,3,1.1329,,,,,,,,,,,,,,,,,,,,,,,,,,,,,,,,,,"[0.8274000000000001,-0.5844,-0.9452]","[0.8115999999999999,-0.0040000000000000036,-0.09819999999999995]",126,42,1,0,0,response1disk,28,-2,1,0,0,rectangle,28,-2,1,0,0,3,2,0.0027,0,28,-2,1,0,0,0,9,9,88,1,7,second,,,,,,,,,,,,,,,,,,,,,,,,,,,,,,,,,,,,,,,,,,,,,,,,,,,,,,,,,,,,,,,,,,,,,,,
,,,,,,6093e92dd23145f26f9bf2e6,62c53a81e76ea1e86072de72,2022-07-06_10h32.34.472,Colour_Asymmetry_Pilot,2022.1.3,Win32,59.60185958,62c50e9c1127f2cd403a315f,,,,,,,,,,,,,,,,,,,,onetwo,,2,0.783,,,,,,,,,,,,,,,,,,,,,,,,,,,,,,,,,,"[0.12939999999999996,-0.2864,0.3253999999999999]","[-0.8118,-0.8198,-0.5452]",114,-65,1,0,0,response3disk,4,2,1,0,0,rectangle,4,2,1,0,0,3,3,0.0029,0,4,2,1,0,0,0,10,10,25,1,25,first,,,,,,,,,,,,,,,,,,,,,,,,,,,,,,,,,,,,,,,,,,,,,,,,,,,,,,,,,,,,,,,,,,,,,,,
,,,,,,6093e92dd23145f26f9bf2e6,62c53a81e76ea1e86072de72,2022-07-06_10h32.34.472,Colour_Asymmetry_Pilot,2022.1.3,Win32,59.60185958,62c50e9c1127f2cd403a315f,,,,,,,,,,,,,,,,,,,,fourthree,,1,0.4824,,,,,,,,,,,,,,,,,,,,,,,,,,,,,,,,,,"[-0.5452,-0.608,0.2470000000000001]","[0.09799999999999986,-0.24719999999999998,0.15280000000000005]",55,-119,1,0,0,response3disk,7,-4,1,0,0,rectangle,7,-4,1,0,0,3,1,0.003,0,7,-4,1,0,0,0,11,11,137,1,56,second,,,,,,,,,,,,,,,,,,,,,,,,,,,,,,,,,,,,,,,,,,,,,,,,,,,,,,,,,,,,,,,,,,,,,,,
,,,,,,6093e92dd23145f26f9bf2e6,62c53a81e76ea1e86072de72,2022-07-06_10h32.34.472,Colour_Asymmetry_Pilot,2022.1.3,Win32,59.60185958,62c50e9c1127f2cd403a315f,,,,,,,,,,,,,,,,,,,,fourtwo,,-3,0.4825,,,,,,,,,,,,,,,,,,,,,,,,,,,,,,,,,,"[-0.8198,-0.5138,-0.7492000000000001]","[0.796,0.2156,-0.27859999999999996]",-77,38,1,0,0,response7disk,18,-9,1,0,0,rectangle,18,-9,1,0,0,3,3,0.0026,0,18,-9,1,0,0,0,12,12,101,1,20,second,,,,,,,,,,,,,,,,,,,,,,,,,,,,,,,,,,,,,,,,,,,,,,,,,,,,,,,,,,,,,,,,,,,,,,,
,,,,,,6093e92dd23145f26f9bf2e6,62c53a81e76ea1e86072de72,2022-07-06_10h32.34.472,Colour_Asymmetry_Pilot,2022.1.3,Win32,59.60185958,62c50e9c1127f2cd403a315f,,,,,,,,,,,,,,,,,,,,threefour,,3,1.0328,,,,,,,,,,,,,,,,,,,,,,,,,,,,,,,,,,"[0.9686000000000001,0.5763999999999998,0.11359999999999992]","[0.34099999999999997,0.12939999999999996,-0.9766]",120,40,1,0,0,response1disk,6,-4,1,0,0,rectangle,6,-4,1,0,0,3,2,0.0028,0,6,-4,1,0,0,0,13,13,1,1,1,first,,,,,,,,,,,,,,,,,,,,,,,,,,,,,,,,,,,,,,,,,,,,,,,,,,,,,,,,,,,,,,,,,,,,,,,
,,,,,,6093e92dd23145f26f9bf2e6,62c53a81e76ea1e86072de72,2022-07-06_10h32.34.472,Colour_Asymmetry_Pilot,2022.1.3,Win32,59.60185958,62c50e9c1127f2cd403a315f,,,,,,,,,,,,,,,,,,,,fourthree,,-4,1.5323,,,,,,,,,,,,,,,,,,,,,,,,,,,,,,,,,,"[0.9213999999999998,0.6391999999999998,-0.9922]","[-0.9766,-0.6472,0.07440000000000002]",-66,86,1,0,0,response7disk,10,-10,1,0,0,rectangle,10,-10,1,0,0,3,2,0.0007,0,10,-10,1,0,0,0,14,14,124,1,43,second,,,,,,,,,,,,,,,,,,,,,,,,,,,,,,,,,,,,,,,,,,,,,,,,,,,,,,,,,,,,,,,,,,,,,,,
,,,,,,6093e92dd23145f26f9bf2e6,62c53a81e76ea1e86072de72,2022-07-06_10h32.34.472,Colour_Asymmetry_Pilot,2022.1.3,Win32,59.60185958,62c50e9c1127f2cd403a315f,,,,,,,,,,,,,,,,,,,,threefour,,-3,1.0662,,,,,,,,,,,,,,,,,,,,,,,,,,,,,,,,,,"[0.9372,0.9450000000000001,0.8980000000000001]","[-0.34920000000000007,-0.702,-0.5216]",-94,53,1,0,0,response7disk,8,-10,1,0,0,rectangle,8,-10,1,0,0,3,1,0.0028,0,8,-10,1,0,0,0,15,15,29,1,29,first,,,,,,,,,,,,,,,,,,,,,,,,,,,,,,,,,,,,,,,,,,,,,,,,,,,,,,,,,,,,,,,,,,,,,,,
,,,,,,6093e92dd23145f26f9bf2e6,62c53a81e76ea1e86072de72,2022-07-06_10h32.34.472,Colour_Asymmetry_Pilot,2022.1.3,Win32,59.60185958,62c50e9c1127f2cd403a315f,,,,,,,,,,,,,,,,,,,,threeone,,-3,0.3273,,,,,,,,,,,,,,,,,,,,,,,,,,,,,,,,,,"[0.9372,0.9450000000000001,0.8980000000000001]","[0.18419999999999992,-0.4276,-0.404]",-99,29,1,0,0,response7disk,19,5,1,0,0,rectangle,19,5,1,0,0,3,3,0.0027,0,19,5,1,0,0,0,16,16,45,1,45,first,,,,,,,,,,,,,,,,,,,,,,,,,,,,,,,,,,,,,,,,,,,,,,,,,,,,,,,,,,,,,,,,,,,,,,,
,,,,,,6093e92dd23145f26f9bf2e6,62c53a81e76ea1e86072de72,2022-07-06_10h32.34.472,Colour_Asymmetry_Pilot,2022.1.3,Win32,59.60185958,62c50e9c1127f2cd403a315f,,,,,,,,,,,,,,,,,,,,threeone,,3,1.083,,,,,,,,,,,,,,,,,,,,,,,,,,,,,,,,,,"[0.37240000000000006,-0.050999999999999934,-0.5216]","[0.9763999999999999,0.8588,-0.05900000000000005]",117,49,1,0,0,response1disk,-4,4,1,0,0,rectangle,-4,4,1,0,0,3,2,0.0028,0,-4,4,1,0,0,0,17,17,134,1,53,second,,,,,,,,,,,,,,,,,,,,,,,,,,,,,,,,,,,,,,,,,,,,,,,,,,,,,,,,,,,,,,,,,,,,,,,
,,,,,,6093e92dd23145f26f9bf2e6,62c53a81e76ea1e86072de72,2022-07-06_10h32.34.472,Colour_Asymmetry_Pilot,2022.1.3,Win32,59.60185958,62c50e9c1127f2cd403a315f,,,,,,,,,,,,,,,,,,,,onethree,,-3,0.5494,,,,,,,,,,,,,,,,,,,,,,,,,,,,,,,,,,"[0.22340000000000004,-0.9296,-0.7884]","[-0.9766,-0.34920000000000007,0.2156]",-115,45,1,0,0,response7disk,-29,-3,1,0,0,rectangle,-29,-3,1,0,0,3,3,0.0025,0,-29,-3,1,0,0,0,18,18,141,1,60,second,,,,,,,,,,,,,,,,,,,,,,,,,,,,,,,,,,,,,,,,,,,,,,,,,,,,,,,,,,,,,,,,,,,,,,,
