trials.thisRepN,trials.thisTrialN,trials.thisN,trials.thisIndex,trials.ran,Colourcodes,participant,session,date,expName,psychopyVersion,OS,frameRate,study_id,trials_4.thisRepN,trials_4.thisTrialN,trials_4.thisN,trials_4.thisIndex,trials_4.ran,StimulusPos,key_resp.keys,key_resp.rt,key_resp_2.keys,key_resp_2.rt,key_resp_15.keys,key_resp_15.rt,key_resp_17.keys,key_resp_17.rt,key_resp_9.keys,key_resp_9.rt,key_resp_10.keys,key_resp_10.rt,Circle1_col,Ecc,Circle2_col,similarity,response_time,mouse_5.x,mouse_5.y,mouse_5.leftButton,mouse_5.midButton,mouse_5.rightButton,mouse_5.clicked_name,mouse_10.x,mouse_10.y,mouse_10.leftButton,mouse_10.midButton,mouse_10.rightButton,mouse_10.clicked_name,mouse_7.x,mouse_7.y,mouse_7.leftButton,mouse_7.midButton,mouse_7.rightButton,catchnumberprac,mouse_6.x,mouse_6.y,mouse_6.leftButton,mouse_6.midButton,mouse_6.rightButton,duringprac.thisRepN,duringprac.thisTrialN,duringprac.thisN,duringprac.thisIndex,duringprac.ran,mouse_7.clicked_name,catchprac,mouse_6.clicked_name,key_resp_22.keys,key_resp_22.rt,Circle1_colour,Circle2_colour,mouse.x,mouse.y,mouse.leftButton,mouse.midButton,mouse.rightButton,mouse.clicked_name,mouse_2.x,mouse_2.y,mouse_2.leftButton,mouse_2.midButton,mouse_2.rightButton,mouse_2.clicked_name,mouse_3.x,mouse_3.y,mouse_3.leftButton,mouse_3.midButton,mouse_3.rightButton,catchresponse,catchnumber,response_time_catch,Catch,mouse_11.x,mouse_11.y,mouse_11.leftButton,mouse_11.midButton,mouse_11.rightButton,trials_2.thisRepN,trials_2.thisTrialN,trials_2.thisN,trials_2.thisIndex,trials_2.ran,Colourpair,Temporder,mouse_3.clicked_name,mouse_11.clicked_name,trials_3.thisRepN,trials_3.thisTrialN,trials_3.thisN,trials_3.thisIndex,trials_3.ran,key_resp_instr_Ishi.keys,key_resp_instr_Ishi.rt,Ishi_trial_keyresp.keys,Ishi_textbox.text,Ishi_mouse.x,Ishi_mouse.y,Ishi_mouse.leftButton,Ishi_mouse.midButton,Ishi_mouse.rightButton,Ishi_mouse.clicked_name,Ishi_loop.thisRepN,Ishi_loop.thisTrialN,Ishi_loop.thisN,Ishi_loop.thisIndex,Ishi_loop.ran,imageaddress,textbox.text,mouse_4.x,mouse_4.y,mouse_4.leftButton,mouse_4.midButton,mouse_4.rightButton,mouse_4.clicked_name,textbox_2.text,mouse_8.x,mouse_8.y,mouse_8.leftButton,mouse_8.midButton,mouse_8.rightButton,mouse_8.clicked_name,textbox_3.text,mouse_9.x,mouse_9.y,mouse_9.leftButton,mouse_9.midButton,mouse_9.rightButton,mouse_9.clicked_name,textbox_4.text,mouse_12.x,mouse_12.y,mouse_12.leftButton,mouse_12.midButton,mouse_12.rightButton,mouse_12.clicked_name,textbox_5.text,mouse_13.x,mouse_13.y,mouse_13.leftButton,mouse_13.midButton,mouse_13.rightButton,mouse_13.clicked_name,textbox_6.text,mouse_14.x,mouse_14.y,mouse_14.leftButton,mouse_14.midButton,mouse_14.rightButton,mouse_14.clicked_name,textbox_7.text,mouse_15.x,mouse_15.y,mouse_15.leftButton,mouse_15.midButton,mouse_15.rightButton,mouse_15.clicked_name
0,0,0,15,1,,615b20797df87e1bdb2bca91,62c539cedeca570d4abc80cb,2022-07-06_09h32.31.625,Colour_Asymmetry_Pilot,2022.1.3,Win32,59.89099838,62c50e9c1127f2cd403a315f,,,,,,,,,,,,,,,,,,,,,,,,,,,,,,,,,,,,,,,,,,,,,,,,,,,,,,,,,,,,,,,,,,,,,,,,,,,,,,,,,,,,,,,,,,,,,,,,,,,,,,,,,,,,,,,,,,,,,,,,,,,,,,,,,,,,,,,,,,,,,,,,,,,,,,,,,,,,,,,,,,,
0,1,1,25,1,,615b20797df87e1bdb2bca91,62c539cedeca570d4abc80cb,2022-07-06_09h32.31.625,Colour_Asymmetry_Pilot,2022.1.3,Win32,59.89099838,62c50e9c1127f2cd403a315f,,,,,,,,,,,,,,,,,,,,,,,,,,,,,,,,,,,,,,,,,,,,,,,,,,,,,,,,,,,,,,,,,,,,,,,,,,,,,,,,,,,,,,,,,,,,,,,,,,,,,,,,,,,,,,,,,,,,,,,,,,,,,,,,,,,,,,,,,,,,,,,,,,,,,,,,,,,,,,,,,,,
0,2,2,79,1,,615b20797df87e1bdb2bca91,62c539cedeca570d4abc80cb,2022-07-06_09h32.31.625,Colour_Asymmetry_Pilot,2022.1.3,Win32,59.89099838,62c50e9c1127f2cd403a315f,,,,,,,,,,,,,,,,,,,,,,,,,,,,,,,,,,,,,,,,,,,,,,,,,,,,,,,,,,,,,,,,,,,,,,,,,,,,,,,,,,,,,,,,,,,,,,,,,,,,,,,,,,,,,,,,,,,,,,,,,,,,,,,,,,,,,,,,,,,,,,,,,,,,,,,,,,,,,,,,,,,
0,3,3,48,1,,615b20797df87e1bdb2bca91,62c539cedeca570d4abc80cb,2022-07-06_09h32.31.625,Colour_Asymmetry_Pilot,2022.1.3,Win32,59.89099838,62c50e9c1127f2cd403a315f,,,,,,,,,,,,,,,,,,,,,,,,,,,,,,,,,,,,,,,,,,,,,,,,,,,,,,,,,,,,,,,,,,,,,,,,,,,,,,,,,,,,,,,,,,,,,,,,,,,,,,,,,,,,,,,,,,,,,,,,,,,,,,,,,,,,,,,,,,,,,,,,,,,,,,,,,,,,,,,,,,,
0,4,4,31,1,,615b20797df87e1bdb2bca91,62c539cedeca570d4abc80cb,2022-07-06_09h32.31.625,Colour_Asymmetry_Pilot,2022.1.3,Win32,59.89099838,62c50e9c1127f2cd403a315f,,,,,,,,,,,,,,,,,,,,,,,,,,,,,,,,,,,,,,,,,,,,,,,,,,,,,,,,,,,,,,,,,,,,,,,,,,,,,,,,,,,,,,,,,,,,,,,,,,,,,,,,,,,,,,,,,,,,,,,,,,,,,,,,,,,,,,,,,,,,,,,,,,,,,,,,,,,,,,,,,,,
0,5,5,18,1,,615b20797df87e1bdb2bca91,62c539cedeca570d4abc80cb,2022-07-06_09h32.31.625,Colour_Asymmetry_Pilot,2022.1.3,Win32,59.89099838,62c50e9c1127f2cd403a315f,,,,,,,,,,,,,,,,,,,,,,,,,,,,,,,,,,,,,,,,,,,,,,,,,,,,,,,,,,,,,,,,,,,,,,,,,,,,,,,,,,,,,,,,,,,,,,,,,,,,,,,,,,,,,,,,,,,,,,,,,,,,,,,,,,,,,,,,,,,,,,,,,,,,,,,,,,,,,,,,,,,
0,6,6,20,1,,615b20797df87e1bdb2bca91,62c539cedeca570d4abc80cb,2022-07-06_09h32.31.625,Colour_Asymmetry_Pilot,2022.1.3,Win32,59.89099838,62c50e9c1127f2cd403a315f,,,,,,,,,,,,,,,,,,,,,,,,,,,,,,,,,,,,,,,,,,,,,,,,,,,,,,,,,,,,,,,,,,,,,,,,,,,,,,,,,,,,,,,,,,,,,,,,,,,,,,,,,,,,,,,,,,,,,,,,,,,,,,,,,,,,,,,,,,,,,,,,,,,,,,,,,,,,,,,,,,,
0,7,7,68,1,,615b20797df87e1bdb2bca91,62c539cedeca570d4abc80cb,2022-07-06_09h32.31.625,Colour_Asymmetry_Pilot,2022.1.3,Win32,59.89099838,62c50e9c1127f2cd403a315f,,,,,,,,,,,,,,,,,,,,,,,,,,,,,,,,,,,,,,,,,,,,,,,,,,,,,,,,,,,,,,,,,,,,,,,,,,,,,,,,,,,,,,,,,,,,,,,,,,,,,,,,,,,,,,,,,,,,,,,,,,,,,,,,,,,,,,,,,,,,,,,,,,,,,,,,,,,,,,,,,,,
0,8,8,61,1,,615b20797df87e1bdb2bca91,62c539cedeca570d4abc80cb,2022-07-06_09h32.31.625,Colour_Asymmetry_Pilot,2022.1.3,Win32,59.89099838,62c50e9c1127f2cd403a315f,,,,,,,,,,,,,,,,,,,,,,,,,,,,,,,,,,,,,,,,,,,,,,,,,,,,,,,,,,,,,,,,,,,,,,,,,,,,,,,,,,,,,,,,,,,,,,,,,,,,,,,,,,,,,,,,,,,,,,,,,,,,,,,,,,,,,,,,,,,,,,,,,,,,,,,,,,,,,,,,,,,
0,9,9,50,1,,615b20797df87e1bdb2bca91,62c539cedeca570d4abc80cb,2022-07-06_09h32.31.625,Colour_Asymmetry_Pilot,2022.1.3,Win32,59.89099838,62c50e9c1127f2cd403a315f,,,,,,,,,,,,,,,,,,,,,,,,,,,,,,,,,,,,,,,,,,,,,,,,,,,,,,,,,,,,,,,,,,,,,,,,,,,,,,,,,,,,,,,,,,,,,,,,,,,,,,,,,,,,,,,,,,,,,,,,,,,,,,,,,,,,,,,,,,,,,,,,,,,,,,,,,,,,,,,,,,,
0,10,10,4,1,,615b20797df87e1bdb2bca91,62c539cedeca570d4abc80cb,2022-07-06_09h32.31.625,Colour_Asymmetry_Pilot,2022.1.3,Win32,59.89099838,62c50e9c1127f2cd403a315f,,,,,,,,,,,,,,,,,,,,,,,,,,,,,,,,,,,,,,,,,,,,,,,,,,,,,,,,,,,,,,,,,,,,,,,,,,,,,,,,,,,,,,,,,,,,,,,,,,,,,,,,,,,,,,,,,,,,,,,,,,,,,,,,,,,,,,,,,,,,,,,,,,,,,,,,,,,,,,,,,,,
0,11,11,67,1,,615b20797df87e1bdb2bca91,62c539cedeca570d4abc80cb,2022-07-06_09h32.31.625,Colour_Asymmetry_Pilot,2022.1.3,Win32,59.89099838,62c50e9c1127f2cd403a315f,,,,,,,,,,,,,,,,,,,,,,,,,,,,,,,,,,,,,,,,,,,,,,,,,,,,,,,,,,,,,,,,,,,,,,,,,,,,,,,,,,,,,,,,,,,,,,,,,,,,,,,,,,,,,,,,,,,,,,,,,,,,,,,,,,,,,,,,,,,,,,,,,,,,,,,,,,,,,,,,,,,
0,12,12,57,1,,615b20797df87e1bdb2bca91,62c539cedeca570d4abc80cb,2022-07-06_09h32.31.625,Colour_Asymmetry_Pilot,2022.1.3,Win32,59.89099838,62c50e9c1127f2cd403a315f,,,,,,,,,,,,,,,,,,,,,,,,,,,,,,,,,,,,,,,,,,,,,,,,,,,,,,,,,,,,,,,,,,,,,,,,,,,,,,,,,,,,,,,,,,,,,,,,,,,,,,,,,,,,,,,,,,,,,,,,,,,,,,,,,,,,,,,,,,,,,,,,,,,,,,,,,,,,,,,,,,,
0,13,13,85,1,,615b20797df87e1bdb2bca91,62c539cedeca570d4abc80cb,2022-07-06_09h32.31.625,Colour_Asymmetry_Pilot,2022.1.3,Win32,59.89099838,62c50e9c1127f2cd403a315f,,,,,,,,,,,,,,,,,,,,,,,,,,,,,,,,,,,,,,,,,,,,,,,,,,,,,,,,,,,,,,,,,,,,,,,,,,,,,,,,,,,,,,,,,,,,,,,,,,,,,,,,,,,,,,,,,,,,,,,,,,,,,,,,,,,,,,,,,,,,,,,,,,,,,,,,,,,,,,,,,,,
0,14,14,21,1,,615b20797df87e1bdb2bca91,62c539cedeca570d4abc80cb,2022-07-06_09h32.31.625,Colour_Asymmetry_Pilot,2022.1.3,Win32,59.89099838,62c50e9c1127f2cd403a315f,,,,,,,,,,,,,,,,,,,,,,,,,,,,,,,,,,,,,,,,,,,,,,,,,,,,,,,,,,,,,,,,,,,,,,,,,,,,,,,,,,,,,,,,,,,,,,,,,,,,,,,,,,,,,,,,,,,,,,,,,,,,,,,,,,,,,,,,,,,,,,,,,,,,,,,,,,,,,,,,,,,
0,15,15,91,1,,615b20797df87e1bdb2bca91,62c539cedeca570d4abc80cb,2022-07-06_09h32.31.625,Colour_Asymmetry_Pilot,2022.1.3,Win32,59.89099838,62c50e9c1127f2cd403a315f,,,,,,,,,,,,,,,,,,,,,,,,,,,,,,,,,,,,,,,,,,,,,,,,,,,,,,,,,,,,,,,,,,,,,,,,,,,,,,,,,,,,,,,,,,,,,,,,,,,,,,,,,,,,,,,,,,,,,,,,,,,,,,,,,,,,,,,,,,,,,,,,,,,,,,,,,,,,,,,,,,,
0,16,16,22,1,,615b20797df87e1bdb2bca91,62c539cedeca570d4abc80cb,2022-07-06_09h32.31.625,Colour_Asymmetry_Pilot,2022.1.3,Win32,59.89099838,62c50e9c1127f2cd403a315f,,,,,,,,,,,,,,,,,,,,,,,,,,,,,,,,,,,,,,,,,,,,,,,,,,,,,,,,,,,,,,,,,,,,,,,,,,,,,,,,,,,,,,,,,,,,,,,,,,,,,,,,,,,,,,,,,,,,,,,,,,,,,,,,,,,,,,,,,,,,,,,,,,,,,,,,,,,,,,,,,,,
0,17,17,28,1,,615b20797df87e1bdb2bca91,62c539cedeca570d4abc80cb,2022-07-06_09h32.31.625,Colour_Asymmetry_Pilot,2022.1.3,Win32,59.89099838,62c50e9c1127f2cd403a315f,,,,,,,,,,,,,,,,,,,,,,,,,,,,,,,,,,,,,,,,,,,,,,,,,,,,,,,,,,,,,,,,,,,,,,,,,,,,,,,,,,,,,,,,,,,,,,,,,,,,,,,,,,,,,,,,,,,,,,,,,,,,,,,,,,,,,,,,,,,,,,,,,,,,,,,,,,,,,,,,,,,
0,18,18,86,1,,615b20797df87e1bdb2bca91,62c539cedeca570d4abc80cb,2022-07-06_09h32.31.625,Colour_Asymmetry_Pilot,2022.1.3,Win32,59.89099838,62c50e9c1127f2cd403a315f,,,,,,,,,,,,,,,,,,,,,,,,,,,,,,,,,,,,,,,,,,,,,,,,,,,,,,,,,,,,,,,,,,,,,,,,,,,,,,,,,,,,,,,,,,,,,,,,,,,,,,,,,,,,,,,,,,,,,,,,,,,,,,,,,,,,,,,,,,,,,,,,,,,,,,,,,,,,,,,,,,,
0,19,19,33,1,,615b20797df87e1bdb2bca91,62c539cedeca570d4abc80cb,2022-07-06_09h32.31.625,Colour_Asymmetry_Pilot,2022.1.3,Win32,59.89099838,62c50e9c1127f2cd403a315f,,,,,,,,,,,,,,,,,,,,,,,,,,,,,,,,,,,,,,,,,,,,,,,,,,,,,,,,,,,,,,,,,,,,,,,,,,,,,,,,,,,,,,,,,,,,,,,,,,,,,,,,,,,,,,,,,,,,,,,,,,,,,,,,,,,,,,,,,,,,,,,,,,,,,,,,,,,,,,,,,,,
0,20,20,60,1,,615b20797df87e1bdb2bca91,62c539cedeca570d4abc80cb,2022-07-06_09h32.31.625,Colour_Asymmetry_Pilot,2022.1.3,Win32,59.89099838,62c50e9c1127f2cd403a315f,,,,,,,,,,,,,,,,,,,,,,,,,,,,,,,,,,,,,,,,,,,,,,,,,,,,,,,,,,,,,,,,,,,,,,,,,,,,,,,,,,,,,,,,,,,,,,,,,,,,,,,,,,,,,,,,,,,,,,,,,,,,,,,,,,,,,,,,,,,,,,,,,,,,,,,,,,,,,,,,,,,
0,21,21,45,1,,615b20797df87e1bdb2bca91,62c539cedeca570d4abc80cb,2022-07-06_09h32.31.625,Colour_Asymmetry_Pilot,2022.1.3,Win32,59.89099838,62c50e9c1127f2cd403a315f,,,,,,,,,,,,,,,,,,,,,,,,,,,,,,,,,,,,,,,,,,,,,,,,,,,,,,,,,,,,,,,,,,,,,,,,,,,,,,,,,,,,,,,,,,,,,,,,,,,,,,,,,,,,,,,,,,,,,,,,,,,,,,,,,,,,,,,,,,,,,,,,,,,,,,,,,,,,,,,,,,,
0,22,22,42,1,,615b20797df87e1bdb2bca91,62c539cedeca570d4abc80cb,2022-07-06_09h32.31.625,Colour_Asymmetry_Pilot,2022.1.3,Win32,59.89099838,62c50e9c1127f2cd403a315f,,,,,,,,,,,,,,,,,,,,,,,,,,,,,,,,,,,,,,,,,,,,,,,,,,,,,,,,,,,,,,,,,,,,,,,,,,,,,,,,,,,,,,,,,,,,,,,,,,,,,,,,,,,,,,,,,,,,,,,,,,,,,,,,,,,,,,,,,,,,,,,,,,,,,,,,,,,,,,,,,,,
0,23,23,63,1,,615b20797df87e1bdb2bca91,62c539cedeca570d4abc80cb,2022-07-06_09h32.31.625,Colour_Asymmetry_Pilot,2022.1.3,Win32,59.89099838,62c50e9c1127f2cd403a315f,,,,,,,,,,,,,,,,,,,,,,,,,,,,,,,,,,,,,,,,,,,,,,,,,,,,,,,,,,,,,,,,,,,,,,,,,,,,,,,,,,,,,,,,,,,,,,,,,,,,,,,,,,,,,,,,,,,,,,,,,,,,,,,,,,,,,,,,,,,,,,,,,,,,,,,,,,,,,,,,,,,
0,24,24,92,1,,615b20797df87e1bdb2bca91,62c539cedeca570d4abc80cb,2022-07-06_09h32.31.625,Colour_Asymmetry_Pilot,2022.1.3,Win32,59.89099838,62c50e9c1127f2cd403a315f,,,,,,,,,,,,,,,,,,,,,,,,,,,,,,,,,,,,,,,,,,,,,,,,,,,,,,,,,,,,,,,,,,,,,,,,,,,,,,,,,,,,,,,,,,,,,,,,,,,,,,,,,,,,,,,,,,,,,,,,,,,,,,,,,,,,,,,,,,,,,,,,,,,,,,,,,,,,,,,,,,,
0,25,25,62,1,,615b20797df87e1bdb2bca91,62c539cedeca570d4abc80cb,2022-07-06_09h32.31.625,Colour_Asymmetry_Pilot,2022.1.3,Win32,59.89099838,62c50e9c1127f2cd403a315f,,,,,,,,,,,,,,,,,,,,,,,,,,,,,,,,,,,,,,,,,,,,,,,,,,,,,,,,,,,,,,,,,,,,,,,,,,,,,,,,,,,,,,,,,,,,,,,,,,,,,,,,,,,,,,,,,,,,,,,,,,,,,,,,,,,,,,,,,,,,,,,,,,,,,,,,,,,,,,,,,,,
0,26,26,44,1,,615b20797df87e1bdb2bca91,62c539cedeca570d4abc80cb,2022-07-06_09h32.31.625,Colour_Asymmetry_Pilot,2022.1.3,Win32,59.89099838,62c50e9c1127f2cd403a315f,,,,,,,,,,,,,,,,,,,,,,,,,,,,,,,,,,,,,,,,,,,,,,,,,,,,,,,,,,,,,,,,,,,,,,,,,,,,,,,,,,,,,,,,,,,,,,,,,,,,,,,,,,,,,,,,,,,,,,,,,,,,,,,,,,,,,,,,,,,,,,,,,,,,,,,,,,,,,,,,,,,
0,27,27,14,1,,615b20797df87e1bdb2bca91,62c539cedeca570d4abc80cb,2022-07-06_09h32.31.625,Colour_Asymmetry_Pilot,2022.1.3,Win32,59.89099838,62c50e9c1127f2cd403a315f,,,,,,,,,,,,,,,,,,,,,,,,,,,,,,,,,,,,,,,,,,,,,,,,,,,,,,,,,,,,,,,,,,,,,,,,,,,,,,,,,,,,,,,,,,,,,,,,,,,,,,,,,,,,,,,,,,,,,,,,,,,,,,,,,,,,,,,,,,,,,,,,,,,,,,,,,,,,,,,,,,,
0,28,28,55,1,,615b20797df87e1bdb2bca91,62c539cedeca570d4abc80cb,2022-07-06_09h32.31.625,Colour_Asymmetry_Pilot,2022.1.3,Win32,59.89099838,62c50e9c1127f2cd403a315f,,,,,,,,,,,,,,,,,,,,,,,,,,,,,,,,,,,,,,,,,,,,,,,,,,,,,,,,,,,,,,,,,,,,,,,,,,,,,,,,,,,,,,,,,,,,,,,,,,,,,,,,,,,,,,,,,,,,,,,,,,,,,,,,,,,,,,,,,,,,,,,,,,,,,,,,,,,,,,,,,,,
0,29,29,69,1,,615b20797df87e1bdb2bca91,62c539cedeca570d4abc80cb,2022-07-06_09h32.31.625,Colour_Asymmetry_Pilot,2022.1.3,Win32,59.89099838,62c50e9c1127f2cd403a315f,,,,,,,,,,,,,,,,,,,,,,,,,,,,,,,,,,,,,,,,,,,,,,,,,,,,,,,,,,,,,,,,,,,,,,,,,,,,,,,,,,,,,,,,,,,,,,,,,,,,,,,,,,,,,,,,,,,,,,,,,,,,,,,,,,,,,,,,,,,,,,,,,,,,,,,,,,,,,,,,,,,
0,30,30,77,1,,615b20797df87e1bdb2bca91,62c539cedeca570d4abc80cb,2022-07-06_09h32.31.625,Colour_Asymmetry_Pilot,2022.1.3,Win32,59.89099838,62c50e9c1127f2cd403a315f,,,,,,,,,,,,,,,,,,,,,,,,,,,,,,,,,,,,,,,,,,,,,,,,,,,,,,,,,,,,,,,,,,,,,,,,,,,,,,,,,,,,,,,,,,,,,,,,,,,,,,,,,,,,,,,,,,,,,,,,,,,,,,,,,,,,,,,,,,,,,,,,,,,,,,,,,,,,,,,,,,,
0,31,31,54,1,,615b20797df87e1bdb2bca91,62c539cedeca570d4abc80cb,2022-07-06_09h32.31.625,Colour_Asymmetry_Pilot,2022.1.3,Win32,59.89099838,62c50e9c1127f2cd403a315f,,,,,,,,,,,,,,,,,,,,,,,,,,,,,,,,,,,,,,,,,,,,,,,,,,,,,,,,,,,,,,,,,,,,,,,,,,,,,,,,,,,,,,,,,,,,,,,,,,,,,,,,,,,,,,,,,,,,,,,,,,,,,,,,,,,,,,,,,,,,,,,,,,,,,,,,,,,,,,,,,,,
0,32,32,12,1,,615b20797df87e1bdb2bca91,62c539cedeca570d4abc80cb,2022-07-06_09h32.31.625,Colour_Asymmetry_Pilot,2022.1.3,Win32,59.89099838,62c50e9c1127f2cd403a315f,,,,,,,,,,,,,,,,,,,,,,,,,,,,,,,,,,,,,,,,,,,,,,,,,,,,,,,,,,,,,,,,,,,,,,,,,,,,,,,,,,,,,,,,,,,,,,,,,,,,,,,,,,,,,,,,,,,,,,,,,,,,,,,,,,,,,,,,,,,,,,,,,,,,,,,,,,,,,,,,,,,
0,33,33,40,1,,615b20797df87e1bdb2bca91,62c539cedeca570d4abc80cb,2022-07-06_09h32.31.625,Colour_Asymmetry_Pilot,2022.1.3,Win32,59.89099838,62c50e9c1127f2cd403a315f,,,,,,,,,,,,,,,,,,,,,,,,,,,,,,,,,,,,,,,,,,,,,,,,,,,,,,,,,,,,,,,,,,,,,,,,,,,,,,,,,,,,,,,,,,,,,,,,,,,,,,,,,,,,,,,,,,,,,,,,,,,,,,,,,,,,,,,,,,,,,,,,,,,,,,,,,,,,,,,,,,,
0,34,34,70,1,,615b20797df87e1bdb2bca91,62c539cedeca570d4abc80cb,2022-07-06_09h32.31.625,Colour_Asymmetry_Pilot,2022.1.3,Win32,59.89099838,62c50e9c1127f2cd403a315f,,,,,,,,,,,,,,,,,,,,,,,,,,,,,,,,,,,,,,,,,,,,,,,,,,,,,,,,,,,,,,,,,,,,,,,,,,,,,,,,,,,,,,,,,,,,,,,,,,,,,,,,,,,,,,,,,,,,,,,,,,,,,,,,,,,,,,,,,,,,,,,,,,,,,,,,,,,,,,,,,,,
0,35,35,36,1,,615b20797df87e1bdb2bca91,62c539cedeca570d4abc80cb,2022-07-06_09h32.31.625,Colour_Asymmetry_Pilot,2022.1.3,Win32,59.89099838,62c50e9c1127f2cd403a315f,,,,,,,,,,,,,,,,,,,,,,,,,,,,,,,,,,,,,,,,,,,,,,,,,,,,,,,,,,,,,,,,,,,,,,,,,,,,,,,,,,,,,,,,,,,,,,,,,,,,,,,,,,,,,,,,,,,,,,,,,,,,,,,,,,,,,,,,,,,,,,,,,,,,,,,,,,,,,,,,,,,
0,36,36,32,1,,615b20797df87e1bdb2bca91,62c539cedeca570d4abc80cb,2022-07-06_09h32.31.625,Colour_Asymmetry_Pilot,2022.1.3,Win32,59.89099838,62c50e9c1127f2cd403a315f,,,,,,,,,,,,,,,,,,,,,,,,,,,,,,,,,,,,,,,,,,,,,,,,,,,,,,,,,,,,,,,,,,,,,,,,,,,,,,,,,,,,,,,,,,,,,,,,,,,,,,,,,,,,,,,,,,,,,,,,,,,,,,,,,,,,,,,,,,,,,,,,,,,,,,,,,,,,,,,,,,,
0,37,37,81,1,,615b20797df87e1bdb2bca91,62c539cedeca570d4abc80cb,2022-07-06_09h32.31.625,Colour_Asymmetry_Pilot,2022.1.3,Win32,59.89099838,62c50e9c1127f2cd403a315f,,,,,,,,,,,,,,,,,,,,,,,,,,,,,,,,,,,,,,,,,,,,,,,,,,,,,,,,,,,,,,,,,,,,,,,,,,,,,,,,,,,,,,,,,,,,,,,,,,,,,,,,,,,,,,,,,,,,,,,,,,,,,,,,,,,,,,,,,,,,,,,,,,,,,,,,,,,,,,,,,,,
0,38,38,41,1,,615b20797df87e1bdb2bca91,62c539cedeca570d4abc80cb,2022-07-06_09h32.31.625,Colour_Asymmetry_Pilot,2022.1.3,Win32,59.89099838,62c50e9c1127f2cd403a315f,,,,,,,,,,,,,,,,,,,,,,,,,,,,,,,,,,,,,,,,,,,,,,,,,,,,,,,,,,,,,,,,,,,,,,,,,,,,,,,,,,,,,,,,,,,,,,,,,,,,,,,,,,,,,,,,,,,,,,,,,,,,,,,,,,,,,,,,,,,,,,,,,,,,,,,,,,,,,,,,,,,
0,39,39,27,1,,615b20797df87e1bdb2bca91,62c539cedeca570d4abc80cb,2022-07-06_09h32.31.625,Colour_Asymmetry_Pilot,2022.1.3,Win32,59.89099838,62c50e9c1127f2cd403a315f,,,,,,,,,,,,,,,,,,,,,,,,,,,,,,,,,,,,,,,,,,,,,,,,,,,,,,,,,,,,,,,,,,,,,,,,,,,,,,,,,,,,,,,,,,,,,,,,,,,,,,,,,,,,,,,,,,,,,,,,,,,,,,,,,,,,,,,,,,,,,,,,,,,,,,,,,,,,,,,,,,,
0,40,40,39,1,,615b20797df87e1bdb2bca91,62c539cedeca570d4abc80cb,2022-07-06_09h32.31.625,Colour_Asymmetry_Pilot,2022.1.3,Win32,59.89099838,62c50e9c1127f2cd403a315f,,,,,,,,,,,,,,,,,,,,,,,,,,,,,,,,,,,,,,,,,,,,,,,,,,,,,,,,,,,,,,,,,,,,,,,,,,,,,,,,,,,,,,,,,,,,,,,,,,,,,,,,,,,,,,,,,,,,,,,,,,,,,,,,,,,,,,,,,,,,,,,,,,,,,,,,,,,,,,,,,,,
0,41,41,53,1,,615b20797df87e1bdb2bca91,62c539cedeca570d4abc80cb,2022-07-06_09h32.31.625,Colour_Asymmetry_Pilot,2022.1.3,Win32,59.89099838,62c50e9c1127f2cd403a315f,,,,,,,,,,,,,,,,,,,,,,,,,,,,,,,,,,,,,,,,,,,,,,,,,,,,,,,,,,,,,,,,,,,,,,,,,,,,,,,,,,,,,,,,,,,,,,,,,,,,,,,,,,,,,,,,,,,,,,,,,,,,,,,,,,,,,,,,,,,,,,,,,,,,,,,,,,,,,,,,,,,
0,42,42,90,1,,615b20797df87e1bdb2bca91,62c539cedeca570d4abc80cb,2022-07-06_09h32.31.625,Colour_Asymmetry_Pilot,2022.1.3,Win32,59.89099838,62c50e9c1127f2cd403a315f,,,,,,,,,,,,,,,,,,,,,,,,,,,,,,,,,,,,,,,,,,,,,,,,,,,,,,,,,,,,,,,,,,,,,,,,,,,,,,,,,,,,,,,,,,,,,,,,,,,,,,,,,,,,,,,,,,,,,,,,,,,,,,,,,,,,,,,,,,,,,,,,,,,,,,,,,,,,,,,,,,,
0,43,43,24,1,,615b20797df87e1bdb2bca91,62c539cedeca570d4abc80cb,2022-07-06_09h32.31.625,Colour_Asymmetry_Pilot,2022.1.3,Win32,59.89099838,62c50e9c1127f2cd403a315f,,,,,,,,,,,,,,,,,,,,,,,,,,,,,,,,,,,,,,,,,,,,,,,,,,,,,,,,,,,,,,,,,,,,,,,,,,,,,,,,,,,,,,,,,,,,,,,,,,,,,,,,,,,,,,,,,,,,,,,,,,,,,,,,,,,,,,,,,,,,,,,,,,,,,,,,,,,,,,,,,,,
0,44,44,38,1,,615b20797df87e1bdb2bca91,62c539cedeca570d4abc80cb,2022-07-06_09h32.31.625,Colour_Asymmetry_Pilot,2022.1.3,Win32,59.89099838,62c50e9c1127f2cd403a315f,,,,,,,,,,,,,,,,,,,,,,,,,,,,,,,,,,,,,,,,,,,,,,,,,,,,,,,,,,,,,,,,,,,,,,,,,,,,,,,,,,,,,,,,,,,,,,,,,,,,,,,,,,,,,,,,,,,,,,,,,,,,,,,,,,,,,,,,,,,,,,,,,,,,,,,,,,,,,,,,,,,
0,45,45,51,1,,615b20797df87e1bdb2bca91,62c539cedeca570d4abc80cb,2022-07-06_09h32.31.625,Colour_Asymmetry_Pilot,2022.1.3,Win32,59.89099838,62c50e9c1127f2cd403a315f,,,,,,,,,,,,,,,,,,,,,,,,,,,,,,,,,,,,,,,,,,,,,,,,,,,,,,,,,,,,,,,,,,,,,,,,,,,,,,,,,,,,,,,,,,,,,,,,,,,,,,,,,,,,,,,,,,,,,,,,,,,,,,,,,,,,,,,,,,,,,,,,,,,,,,,,,,,,,,,,,,,
0,46,46,52,1,,615b20797df87e1bdb2bca91,62c539cedeca570d4abc80cb,2022-07-06_09h32.31.625,Colour_Asymmetry_Pilot,2022.1.3,Win32,59.89099838,62c50e9c1127f2cd403a315f,,,,,,,,,,,,,,,,,,,,,,,,,,,,,,,,,,,,,,,,,,,,,,,,,,,,,,,,,,,,,,,,,,,,,,,,,,,,,,,,,,,,,,,,,,,,,,,,,,,,,,,,,,,,,,,,,,,,,,,,,,,,,,,,,,,,,,,,,,,,,,,,,,,,,,,,,,,,,,,,,,,
0,47,47,3,1,,615b20797df87e1bdb2bca91,62c539cedeca570d4abc80cb,2022-07-06_09h32.31.625,Colour_Asymmetry_Pilot,2022.1.3,Win32,59.89099838,62c50e9c1127f2cd403a315f,,,,,,,,,,,,,,,,,,,,,,,,,,,,,,,,,,,,,,,,,,,,,,,,,,,,,,,,,,,,,,,,,,,,,,,,,,,,,,,,,,,,,,,,,,,,,,,,,,,,,,,,,,,,,,,,,,,,,,,,,,,,,,,,,,,,,,,,,,,,,,,,,,,,,,,,,,,,,,,,,,,
0,48,48,9,1,,615b20797df87e1bdb2bca91,62c539cedeca570d4abc80cb,2022-07-06_09h32.31.625,Colour_Asymmetry_Pilot,2022.1.3,Win32,59.89099838,62c50e9c1127f2cd403a315f,,,,,,,,,,,,,,,,,,,,,,,,,,,,,,,,,,,,,,,,,,,,,,,,,,,,,,,,,,,,,,,,,,,,,,,,,,,,,,,,,,,,,,,,,,,,,,,,,,,,,,,,,,,,,,,,,,,,,,,,,,,,,,,,,,,,,,,,,,,,,,,,,,,,,,,,,,,,,,,,,,,
0,49,49,37,1,,615b20797df87e1bdb2bca91,62c539cedeca570d4abc80cb,2022-07-06_09h32.31.625,Colour_Asymmetry_Pilot,2022.1.3,Win32,59.89099838,62c50e9c1127f2cd403a315f,,,,,,,,,,,,,,,,,,,,,,,,,,,,,,,,,,,,,,,,,,,,,,,,,,,,,,,,,,,,,,,,,,,,,,,,,,,,,,,,,,,,,,,,,,,,,,,,,,,,,,,,,,,,,,,,,,,,,,,,,,,,,,,,,,,,,,,,,,,,,,,,,,,,,,,,,,,,,,,,,,,
0,50,50,71,1,,615b20797df87e1bdb2bca91,62c539cedeca570d4abc80cb,2022-07-06_09h32.31.625,Colour_Asymmetry_Pilot,2022.1.3,Win32,59.89099838,62c50e9c1127f2cd403a315f,,,,,,,,,,,,,,,,,,,,,,,,,,,,,,,,,,,,,,,,,,,,,,,,,,,,,,,,,,,,,,,,,,,,,,,,,,,,,,,,,,,,,,,,,,,,,,,,,,,,,,,,,,,,,,,,,,,,,,,,,,,,,,,,,,,,,,,,,,,,,,,,,,,,,,,,,,,,,,,,,,,
0,51,51,49,1,,615b20797df87e1bdb2bca91,62c539cedeca570d4abc80cb,2022-07-06_09h32.31.625,Colour_Asymmetry_Pilot,2022.1.3,Win32,59.89099838,62c50e9c1127f2cd403a315f,,,,,,,,,,,,,,,,,,,,,,,,,,,,,,,,,,,,,,,,,,,,,,,,,,,,,,,,,,,,,,,,,,,,,,,,,,,,,,,,,,,,,,,,,,,,,,,,,,,,,,,,,,,,,,,,,,,,,,,,,,,,,,,,,,,,,,,,,,,,,,,,,,,,,,,,,,,,,,,,,,,
0,52,52,73,1,,615b20797df87e1bdb2bca91,62c539cedeca570d4abc80cb,2022-07-06_09h32.31.625,Colour_Asymmetry_Pilot,2022.1.3,Win32,59.89099838,62c50e9c1127f2cd403a315f,,,,,,,,,,,,,,,,,,,,,,,,,,,,,,,,,,,,,,,,,,,,,,,,,,,,,,,,,,,,,,,,,,,,,,,,,,,,,,,,,,,,,,,,,,,,,,,,,,,,,,,,,,,,,,,,,,,,,,,,,,,,,,,,,,,,,,,,,,,,,,,,,,,,,,,,,,,,,,,,,,,
0,53,53,11,1,,615b20797df87e1bdb2bca91,62c539cedeca570d4abc80cb,2022-07-06_09h32.31.625,Colour_Asymmetry_Pilot,2022.1.3,Win32,59.89099838,62c50e9c1127f2cd403a315f,,,,,,,,,,,,,,,,,,,,,,,,,,,,,,,,,,,,,,,,,,,,,,,,,,,,,,,,,,,,,,,,,,,,,,,,,,,,,,,,,,,,,,,,,,,,,,,,,,,,,,,,,,,,,,,,,,,,,,,,,,,,,,,,,,,,,,,,,,,,,,,,,,,,,,,,,,,,,,,,,,,
0,54,54,17,1,,615b20797df87e1bdb2bca91,62c539cedeca570d4abc80cb,2022-07-06_09h32.31.625,Colour_Asymmetry_Pilot,2022.1.3,Win32,59.89099838,62c50e9c1127f2cd403a315f,,,,,,,,,,,,,,,,,,,,,,,,,,,,,,,,,,,,,,,,,,,,,,,,,,,,,,,,,,,,,,,,,,,,,,,,,,,,,,,,,,,,,,,,,,,,,,,,,,,,,,,,,,,,,,,,,,,,,,,,,,,,,,,,,,,,,,,,,,,,,,,,,,,,,,,,,,,,,,,,,,,
0,55,55,26,1,,615b20797df87e1bdb2bca91,62c539cedeca570d4abc80cb,2022-07-06_09h32.31.625,Colour_Asymmetry_Pilot,2022.1.3,Win32,59.89099838,62c50e9c1127f2cd403a315f,,,,,,,,,,,,,,,,,,,,,,,,,,,,,,,,,,,,,,,,,,,,,,,,,,,,,,,,,,,,,,,,,,,,,,,,,,,,,,,,,,,,,,,,,,,,,,,,,,,,,,,,,,,,,,,,,,,,,,,,,,,,,,,,,,,,,,,,,,,,,,,,,,,,,,,,,,,,,,,,,,,
0,56,56,47,1,,615b20797df87e1bdb2bca91,62c539cedeca570d4abc80cb,2022-07-06_09h32.31.625,Colour_Asymmetry_Pilot,2022.1.3,Win32,59.89099838,62c50e9c1127f2cd403a315f,,,,,,,,,,,,,,,,,,,,,,,,,,,,,,,,,,,,,,,,,,,,,,,,,,,,,,,,,,,,,,,,,,,,,,,,,,,,,,,,,,,,,,,,,,,,,,,,,,,,,,,,,,,,,,,,,,,,,,,,,,,,,,,,,,,,,,,,,,,,,,,,,,,,,,,,,,,,,,,,,,,
0,57,57,13,1,,615b20797df87e1bdb2bca91,62c539cedeca570d4abc80cb,2022-07-06_09h32.31.625,Colour_Asymmetry_Pilot,2022.1.3,Win32,59.89099838,62c50e9c1127f2cd403a315f,,,,,,,,,,,,,,,,,,,,,,,,,,,,,,,,,,,,,,,,,,,,,,,,,,,,,,,,,,,,,,,,,,,,,,,,,,,,,,,,,,,,,,,,,,,,,,,,,,,,,,,,,,,,,,,,,,,,,,,,,,,,,,,,,,,,,,,,,,,,,,,,,,,,,,,,,,,,,,,,,,,
0,58,58,16,1,,615b20797df87e1bdb2bca91,62c539cedeca570d4abc80cb,2022-07-06_09h32.31.625,Colour_Asymmetry_Pilot,2022.1.3,Win32,59.89099838,62c50e9c1127f2cd403a315f,,,,,,,,,,,,,,,,,,,,,,,,,,,,,,,,,,,,,,,,,,,,,,,,,,,,,,,,,,,,,,,,,,,,,,,,,,,,,,,,,,,,,,,,,,,,,,,,,,,,,,,,,,,,,,,,,,,,,,,,,,,,,,,,,,,,,,,,,,,,,,,,,,,,,,,,,,,,,,,,,,,
0,59,59,58,1,,615b20797df87e1bdb2bca91,62c539cedeca570d4abc80cb,2022-07-06_09h32.31.625,Colour_Asymmetry_Pilot,2022.1.3,Win32,59.89099838,62c50e9c1127f2cd403a315f,,,,,,,,,,,,,,,,,,,,,,,,,,,,,,,,,,,,,,,,,,,,,,,,,,,,,,,,,,,,,,,,,,,,,,,,,,,,,,,,,,,,,,,,,,,,,,,,,,,,,,,,,,,,,,,,,,,,,,,,,,,,,,,,,,,,,,,,,,,,,,,,,,,,,,,,,,,,,,,,,,,
0,60,60,82,1,,615b20797df87e1bdb2bca91,62c539cedeca570d4abc80cb,2022-07-06_09h32.31.625,Colour_Asymmetry_Pilot,2022.1.3,Win32,59.89099838,62c50e9c1127f2cd403a315f,,,,,,,,,,,,,,,,,,,,,,,,,,,,,,,,,,,,,,,,,,,,,,,,,,,,,,,,,,,,,,,,,,,,,,,,,,,,,,,,,,,,,,,,,,,,,,,,,,,,,,,,,,,,,,,,,,,,,,,,,,,,,,,,,,,,,,,,,,,,,,,,,,,,,,,,,,,,,,,,,,,
0,61,61,66,1,,615b20797df87e1bdb2bca91,62c539cedeca570d4abc80cb,2022-07-06_09h32.31.625,Colour_Asymmetry_Pilot,2022.1.3,Win32,59.89099838,62c50e9c1127f2cd403a315f,,,,,,,,,,,,,,,,,,,,,,,,,,,,,,,,,,,,,,,,,,,,,,,,,,,,,,,,,,,,,,,,,,,,,,,,,,,,,,,,,,,,,,,,,,,,,,,,,,,,,,,,,,,,,,,,,,,,,,,,,,,,,,,,,,,,,,,,,,,,,,,,,,,,,,,,,,,,,,,,,,,
0,62,62,30,1,,615b20797df87e1bdb2bca91,62c539cedeca570d4abc80cb,2022-07-06_09h32.31.625,Colour_Asymmetry_Pilot,2022.1.3,Win32,59.89099838,62c50e9c1127f2cd403a315f,,,,,,,,,,,,,,,,,,,,,,,,,,,,,,,,,,,,,,,,,,,,,,,,,,,,,,,,,,,,,,,,,,,,,,,,,,,,,,,,,,,,,,,,,,,,,,,,,,,,,,,,,,,,,,,,,,,,,,,,,,,,,,,,,,,,,,,,,,,,,,,,,,,,,,,,,,,,,,,,,,,
0,63,63,29,1,,615b20797df87e1bdb2bca91,62c539cedeca570d4abc80cb,2022-07-06_09h32.31.625,Colour_Asymmetry_Pilot,2022.1.3,Win32,59.89099838,62c50e9c1127f2cd403a315f,,,,,,,,,,,,,,,,,,,,,,,,,,,,,,,,,,,,,,,,,,,,,,,,,,,,,,,,,,,,,,,,,,,,,,,,,,,,,,,,,,,,,,,,,,,,,,,,,,,,,,,,,,,,,,,,,,,,,,,,,,,,,,,,,,,,,,,,,,,,,,,,,,,,,,,,,,,,,,,,,,,
0,64,64,56,1,,615b20797df87e1bdb2bca91,62c539cedeca570d4abc80cb,2022-07-06_09h32.31.625,Colour_Asymmetry_Pilot,2022.1.3,Win32,59.89099838,62c50e9c1127f2cd403a315f,,,,,,,,,,,,,,,,,,,,,,,,,,,,,,,,,,,,,,,,,,,,,,,,,,,,,,,,,,,,,,,,,,,,,,,,,,,,,,,,,,,,,,,,,,,,,,,,,,,,,,,,,,,,,,,,,,,,,,,,,,,,,,,,,,,,,,,,,,,,,,,,,,,,,,,,,,,,,,,,,,,
0,65,65,83,1,,615b20797df87e1bdb2bca91,62c539cedeca570d4abc80cb,2022-07-06_09h32.31.625,Colour_Asymmetry_Pilot,2022.1.3,Win32,59.89099838,62c50e9c1127f2cd403a315f,,,,,,,,,,,,,,,,,,,,,,,,,,,,,,,,,,,,,,,,,,,,,,,,,,,,,,,,,,,,,,,,,,,,,,,,,,,,,,,,,,,,,,,,,,,,,,,,,,,,,,,,,,,,,,,,,,,,,,,,,,,,,,,,,,,,,,,,,,,,,,,,,,,,,,,,,,,,,,,,,,,
0,66,66,8,1,,615b20797df87e1bdb2bca91,62c539cedeca570d4abc80cb,2022-07-06_09h32.31.625,Colour_Asymmetry_Pilot,2022.1.3,Win32,59.89099838,62c50e9c1127f2cd403a315f,,,,,,,,,,,,,,,,,,,,,,,,,,,,,,,,,,,,,,,,,,,,,,,,,,,,,,,,,,,,,,,,,,,,,,,,,,,,,,,,,,,,,,,,,,,,,,,,,,,,,,,,,,,,,,,,,,,,,,,,,,,,,,,,,,,,,,,,,,,,,,,,,,,,,,,,,,,,,,,,,,,
0,67,67,72,1,,615b20797df87e1bdb2bca91,62c539cedeca570d4abc80cb,2022-07-06_09h32.31.625,Colour_Asymmetry_Pilot,2022.1.3,Win32,59.89099838,62c50e9c1127f2cd403a315f,,,,,,,,,,,,,,,,,,,,,,,,,,,,,,,,,,,,,,,,,,,,,,,,,,,,,,,,,,,,,,,,,,,,,,,,,,,,,,,,,,,,,,,,,,,,,,,,,,,,,,,,,,,,,,,,,,,,,,,,,,,,,,,,,,,,,,,,,,,,,,,,,,,,,,,,,,,,,,,,,,,
0,68,68,76,1,,615b20797df87e1bdb2bca91,62c539cedeca570d4abc80cb,2022-07-06_09h32.31.625,Colour_Asymmetry_Pilot,2022.1.3,Win32,59.89099838,62c50e9c1127f2cd403a315f,,,,,,,,,,,,,,,,,,,,,,,,,,,,,,,,,,,,,,,,,,,,,,,,,,,,,,,,,,,,,,,,,,,,,,,,,,,,,,,,,,,,,,,,,,,,,,,,,,,,,,,,,,,,,,,,,,,,,,,,,,,,,,,,,,,,,,,,,,,,,,,,,,,,,,,,,,,,,,,,,,,
0,69,69,6,1,,615b20797df87e1bdb2bca91,62c539cedeca570d4abc80cb,2022-07-06_09h32.31.625,Colour_Asymmetry_Pilot,2022.1.3,Win32,59.89099838,62c50e9c1127f2cd403a315f,,,,,,,,,,,,,,,,,,,,,,,,,,,,,,,,,,,,,,,,,,,,,,,,,,,,,,,,,,,,,,,,,,,,,,,,,,,,,,,,,,,,,,,,,,,,,,,,,,,,,,,,,,,,,,,,,,,,,,,,,,,,,,,,,,,,,,,,,,,,,,,,,,,,,,,,,,,,,,,,,,,
0,70,70,35,1,,615b20797df87e1bdb2bca91,62c539cedeca570d4abc80cb,2022-07-06_09h32.31.625,Colour_Asymmetry_Pilot,2022.1.3,Win32,59.89099838,62c50e9c1127f2cd403a315f,,,,,,,,,,,,,,,,,,,,,,,,,,,,,,,,,,,,,,,,,,,,,,,,,,,,,,,,,,,,,,,,,,,,,,,,,,,,,,,,,,,,,,,,,,,,,,,,,,,,,,,,,,,,,,,,,,,,,,,,,,,,,,,,,,,,,,,,,,,,,,,,,,,,,,,,,,,,,,,,,,,
0,71,71,2,1,,615b20797df87e1bdb2bca91,62c539cedeca570d4abc80cb,2022-07-06_09h32.31.625,Colour_Asymmetry_Pilot,2022.1.3,Win32,59.89099838,62c50e9c1127f2cd403a315f,,,,,,,,,,,,,,,,,,,,,,,,,,,,,,,,,,,,,,,,,,,,,,,,,,,,,,,,,,,,,,,,,,,,,,,,,,,,,,,,,,,,,,,,,,,,,,,,,,,,,,,,,,,,,,,,,,,,,,,,,,,,,,,,,,,,,,,,,,,,,,,,,,,,,,,,,,,,,,,,,,,
0,72,72,0,1,,615b20797df87e1bdb2bca91,62c539cedeca570d4abc80cb,2022-07-06_09h32.31.625,Colour_Asymmetry_Pilot,2022.1.3,Win32,59.89099838,62c50e9c1127f2cd403a315f,,,,,,,,,,,,,,,,,,,,,,,,,,,,,,,,,,,,,,,,,,,,,,,,,,,,,,,,,,,,,,,,,,,,,,,,,,,,,,,,,,,,,,,,,,,,,,,,,,,,,,,,,,,,,,,,,,,,,,,,,,,,,,,,,,,,,,,,,,,,,,,,,,,,,,,,,,,,,,,,,,,
0,73,73,89,1,,615b20797df87e1bdb2bca91,62c539cedeca570d4abc80cb,2022-07-06_09h32.31.625,Colour_Asymmetry_Pilot,2022.1.3,Win32,59.89099838,62c50e9c1127f2cd403a315f,,,,,,,,,,,,,,,,,,,,,,,,,,,,,,,,,,,,,,,,,,,,,,,,,,,,,,,,,,,,,,,,,,,,,,,,,,,,,,,,,,,,,,,,,,,,,,,,,,,,,,,,,,,,,,,,,,,,,,,,,,,,,,,,,,,,,,,,,,,,,,,,,,,,,,,,,,,,,,,,,,,
0,74,74,84,1,,615b20797df87e1bdb2bca91,62c539cedeca570d4abc80cb,2022-07-06_09h32.31.625,Colour_Asymmetry_Pilot,2022.1.3,Win32,59.89099838,62c50e9c1127f2cd403a315f,,,,,,,,,,,,,,,,,,,,,,,,,,,,,,,,,,,,,,,,,,,,,,,,,,,,,,,,,,,,,,,,,,,,,,,,,,,,,,,,,,,,,,,,,,,,,,,,,,,,,,,,,,,,,,,,,,,,,,,,,,,,,,,,,,,,,,,,,,,,,,,,,,,,,,,,,,,,,,,,,,,
0,75,75,88,1,,615b20797df87e1bdb2bca91,62c539cedeca570d4abc80cb,2022-07-06_09h32.31.625,Colour_Asymmetry_Pilot,2022.1.3,Win32,59.89099838,62c50e9c1127f2cd403a315f,,,,,,,,,,,,,,,,,,,,,,,,,,,,,,,,,,,,,,,,,,,,,,,,,,,,,,,,,,,,,,,,,,,,,,,,,,,,,,,,,,,,,,,,,,,,,,,,,,,,,,,,,,,,,,,,,,,,,,,,,,,,,,,,,,,,,,,,,,,,,,,,,,,,,,,,,,,,,,,,,,,
0,76,76,34,1,,615b20797df87e1bdb2bca91,62c539cedeca570d4abc80cb,2022-07-06_09h32.31.625,Colour_Asymmetry_Pilot,2022.1.3,Win32,59.89099838,62c50e9c1127f2cd403a315f,,,,,,,,,,,,,,,,,,,,,,,,,,,,,,,,,,,,,,,,,,,,,,,,,,,,,,,,,,,,,,,,,,,,,,,,,,,,,,,,,,,,,,,,,,,,,,,,,,,,,,,,,,,,,,,,,,,,,,,,,,,,,,,,,,,,,,,,,,,,,,,,,,,,,,,,,,,,,,,,,,,
0,77,77,64,1,,615b20797df87e1bdb2bca91,62c539cedeca570d4abc80cb,2022-07-06_09h32.31.625,Colour_Asymmetry_Pilot,2022.1.3,Win32,59.89099838,62c50e9c1127f2cd403a315f,,,,,,,,,,,,,,,,,,,,,,,,,,,,,,,,,,,,,,,,,,,,,,,,,,,,,,,,,,,,,,,,,,,,,,,,,,,,,,,,,,,,,,,,,,,,,,,,,,,,,,,,,,,,,,,,,,,,,,,,,,,,,,,,,,,,,,,,,,,,,,,,,,,,,,,,,,,,,,,,,,,
0,78,78,78,1,,615b20797df87e1bdb2bca91,62c539cedeca570d4abc80cb,2022-07-06_09h32.31.625,Colour_Asymmetry_Pilot,2022.1.3,Win32,59.89099838,62c50e9c1127f2cd403a315f,,,,,,,,,,,,,,,,,,,,,,,,,,,,,,,,,,,,,,,,,,,,,,,,,,,,,,,,,,,,,,,,,,,,,,,,,,,,,,,,,,,,,,,,,,,,,,,,,,,,,,,,,,,,,,,,,,,,,,,,,,,,,,,,,,,,,,,,,,,,,,,,,,,,,,,,,,,,,,,,,,,
0,79,79,7,1,,615b20797df87e1bdb2bca91,62c539cedeca570d4abc80cb,2022-07-06_09h32.31.625,Colour_Asymmetry_Pilot,2022.1.3,Win32,59.89099838,62c50e9c1127f2cd403a315f,,,,,,,,,,,,,,,,,,,,,,,,,,,,,,,,,,,,,,,,,,,,,,,,,,,,,,,,,,,,,,,,,,,,,,,,,,,,,,,,,,,,,,,,,,,,,,,,,,,,,,,,,,,,,,,,,,,,,,,,,,,,,,,,,,,,,,,,,,,,,,,,,,,,,,,,,,,,,,,,,,,
0,80,80,80,1,,615b20797df87e1bdb2bca91,62c539cedeca570d4abc80cb,2022-07-06_09h32.31.625,Colour_Asymmetry_Pilot,2022.1.3,Win32,59.89099838,62c50e9c1127f2cd403a315f,,,,,,,,,,,,,,,,,,,,,,,,,,,,,,,,,,,,,,,,,,,,,,,,,,,,,,,,,,,,,,,,,,,,,,,,,,,,,,,,,,,,,,,,,,,,,,,,,,,,,,,,,,,,,,,,,,,,,,,,,,,,,,,,,,,,,,,,,,,,,,,,,,,,,,,,,,,,,,,,,,,
0,81,81,65,1,,615b20797df87e1bdb2bca91,62c539cedeca570d4abc80cb,2022-07-06_09h32.31.625,Colour_Asymmetry_Pilot,2022.1.3,Win32,59.89099838,62c50e9c1127f2cd403a315f,,,,,,,,,,,,,,,,,,,,,,,,,,,,,,,,,,,,,,,,,,,,,,,,,,,,,,,,,,,,,,,,,,,,,,,,,,,,,,,,,,,,,,,,,,,,,,,,,,,,,,,,,,,,,,,,,,,,,,,,,,,,,,,,,,,,,,,,,,,,,,,,,,,,,,,,,,,,,,,,,,,
0,82,82,10,1,,615b20797df87e1bdb2bca91,62c539cedeca570d4abc80cb,2022-07-06_09h32.31.625,Colour_Asymmetry_Pilot,2022.1.3,Win32,59.89099838,62c50e9c1127f2cd403a315f,,,,,,,,,,,,,,,,,,,,,,,,,,,,,,,,,,,,,,,,,,,,,,,,,,,,,,,,,,,,,,,,,,,,,,,,,,,,,,,,,,,,,,,,,,,,,,,,,,,,,,,,,,,,,,,,,,,,,,,,,,,,,,,,,,,,,,,,,,,,,,,,,,,,,,,,,,,,,,,,,,,
0,83,83,19,1,,615b20797df87e1bdb2bca91,62c539cedeca570d4abc80cb,2022-07-06_09h32.31.625,Colour_Asymmetry_Pilot,2022.1.3,Win32,59.89099838,62c50e9c1127f2cd403a315f,,,,,,,,,,,,,,,,,,,,,,,,,,,,,,,,,,,,,,,,,,,,,,,,,,,,,,,,,,,,,,,,,,,,,,,,,,,,,,,,,,,,,,,,,,,,,,,,,,,,,,,,,,,,,,,,,,,,,,,,,,,,,,,,,,,,,,,,,,,,,,,,,,,,,,,,,,,,,,,,,,,
0,84,84,5,1,,615b20797df87e1bdb2bca91,62c539cedeca570d4abc80cb,2022-07-06_09h32.31.625,Colour_Asymmetry_Pilot,2022.1.3,Win32,59.89099838,62c50e9c1127f2cd403a315f,,,,,,,,,,,,,,,,,,,,,,,,,,,,,,,,,,,,,,,,,,,,,,,,,,,,,,,,,,,,,,,,,,,,,,,,,,,,,,,,,,,,,,,,,,,,,,,,,,,,,,,,,,,,,,,,,,,,,,,,,,,,,,,,,,,,,,,,,,,,,,,,,,,,,,,,,,,,,,,,,,,
0,85,85,1,1,,615b20797df87e1bdb2bca91,62c539cedeca570d4abc80cb,2022-07-06_09h32.31.625,Colour_Asymmetry_Pilot,2022.1.3,Win32,59.89099838,62c50e9c1127f2cd403a315f,,,,,,,,,,,,,,,,,,,,,,,,,,,,,,,,,,,,,,,,,,,,,,,,,,,,,,,,,,,,,,,,,,,,,,,,,,,,,,,,,,,,,,,,,,,,,,,,,,,,,,,,,,,,,,,,,,,,,,,,,,,,,,,,,,,,,,,,,,,,,,,,,,,,,,,,,,,,,,,,,,,
0,86,86,74,1,,615b20797df87e1bdb2bca91,62c539cedeca570d4abc80cb,2022-07-06_09h32.31.625,Colour_Asymmetry_Pilot,2022.1.3,Win32,59.89099838,62c50e9c1127f2cd403a315f,,,,,,,,,,,,,,,,,,,,,,,,,,,,,,,,,,,,,,,,,,,,,,,,,,,,,,,,,,,,,,,,,,,,,,,,,,,,,,,,,,,,,,,,,,,,,,,,,,,,,,,,,,,,,,,,,,,,,,,,,,,,,,,,,,,,,,,,,,,,,,,,,,,,,,,,,,,,,,,,,,,
0,87,87,59,1,,615b20797df87e1bdb2bca91,62c539cedeca570d4abc80cb,2022-07-06_09h32.31.625,Colour_Asymmetry_Pilot,2022.1.3,Win32,59.89099838,62c50e9c1127f2cd403a315f,,,,,,,,,,,,,,,,,,,,,,,,,,,,,,,,,,,,,,,,,,,,,,,,,,,,,,,,,,,,,,,,,,,,,,,,,,,,,,,,,,,,,,,,,,,,,,,,,,,,,,,,,,,,,,,,,,,,,,,,,,,,,,,,,,,,,,,,,,,,,,,,,,,,,,,,,,,,,,,,,,,
0,88,88,87,1,,615b20797df87e1bdb2bca91,62c539cedeca570d4abc80cb,2022-07-06_09h32.31.625,Colour_Asymmetry_Pilot,2022.1.3,Win32,59.89099838,62c50e9c1127f2cd403a315f,,,,,,,,,,,,,,,,,,,,,,,,,,,,,,,,,,,,,,,,,,,,,,,,,,,,,,,,,,,,,,,,,,,,,,,,,,,,,,,,,,,,,,,,,,,,,,,,,,,,,,,,,,,,,,,,,,,,,,,,,,,,,,,,,,,,,,,,,,,,,,,,,,,,,,,,,,,,,,,,,,,
0,89,89,46,1,,615b20797df87e1bdb2bca91,62c539cedeca570d4abc80cb,2022-07-06_09h32.31.625,Colour_Asymmetry_Pilot,2022.1.3,Win32,59.89099838,62c50e9c1127f2cd403a315f,,,,,,,,,,,,,,,,,,,,,,,,,,,,,,,,,,,,,,,,,,,,,,,,,,,,,,,,,,,,,,,,,,,,,,,,,,,,,,,,,,,,,,,,,,,,,,,,,,,,,,,,,,,,,,,,,,,,,,,,,,,,,,,,,,,,,,,,,,,,,,,,,,,,,,,,,,,,,,,,,,,
0,90,90,23,1,,615b20797df87e1bdb2bca91,62c539cedeca570d4abc80cb,2022-07-06_09h32.31.625,Colour_Asymmetry_Pilot,2022.1.3,Win32,59.89099838,62c50e9c1127f2cd403a315f,,,,,,,,,,,,,,,,,,,,,,,,,,,,,,,,,,,,,,,,,,,,,,,,,,,,,,,,,,,,,,,,,,,,,,,,,,,,,,,,,,,,,,,,,,,,,,,,,,,,,,,,,,,,,,,,,,,,,,,,,,,,,,,,,,,,,,,,,,,,,,,,,,,,,,,,,,,,,,,,,,,
0,91,91,43,1,,615b20797df87e1bdb2bca91,62c539cedeca570d4abc80cb,2022-07-06_09h32.31.625,Colour_Asymmetry_Pilot,2022.1.3,Win32,59.89099838,62c50e9c1127f2cd403a315f,,,,,,,,,,,,,,,,,,,,,,,,,,,,,,,,,,,,,,,,,,,,,,,,,,,,,,,,,,,,,,,,,,,,,,,,,,,,,,,,,,,,,,,,,,,,,,,,,,,,,,,,,,,,,,,,,,,,,,,,,,,,,,,,,,,,,,,,,,,,,,,,,,,,,,,,,,,,,,,,,,,
0,92,92,75,1,,615b20797df87e1bdb2bca91,62c539cedeca570d4abc80cb,2022-07-06_09h32.31.625,Colour_Asymmetry_Pilot,2022.1.3,Win32,59.89099838,62c50e9c1127f2cd403a315f,,,,,,,,,,,,,,,,,,,,,,,,,,,,,,,,,,,,,,,,,,,,,,,,,,,,,,,,,,,,,,,,,,,,,,,,,,,,,,,,,,,,,,,,,,,,,,,,,,,,,,,,,,,,,,,,,,,,,,,,,,,,,,,,,,,,,,,,,,,,,,,,,,,,,,,,,,,,,,,,,,,
,,,,,,615b20797df87e1bdb2bca91,62c539cedeca570d4abc80cb,2022-07-06_09h32.31.625,Colour_Asymmetry_Pilot,2022.1.3,Win32,59.89099838,62c50e9c1127f2cd403a315f,0,0,0,55,1,fourthree,,,,,,,,,,,,,,,,,,,,,,,,,,,,,,,,,,,,,,,,,,,,,,,,,,,,,,,,,,,,,,,,,,,,,,,,,,,,,,,,,,,,,,,,,,,,,,,,,,,,,,,,,,,,,,,,,,,,,,,,,,,,,,,,,,,,,,,,,,,,,,,,,,,,,,,,,,,,,
,,,,,,615b20797df87e1bdb2bca91,62c539cedeca570d4abc80cb,2022-07-06_09h32.31.625,Colour_Asymmetry_Pilot,2022.1.3,Win32,59.89099838,62c50e9c1127f2cd403a315f,0,1,1,94,1,fourtwo,,,,,,,,,,,,,,,,,,,,,,,,,,,,,,,,,,,,,,,,,,,,,,,,,,,,,,,,,,,,,,,,,,,,,,,,,,,,,,,,,,,,,,,,,,,,,,,,,,,,,,,,,,,,,,,,,,,,,,,,,,,,,,,,,,,,,,,,,,,,,,,,,,,,,,,,,,,,,
,,,,,,615b20797df87e1bdb2bca91,62c539cedeca570d4abc80cb,2022-07-06_09h32.31.625,Colour_Asymmetry_Pilot,2022.1.3,Win32,59.89099838,62c50e9c1127f2cd403a315f,0,2,2,72,1,onetwo,,,,,,,,,,,,,,,,,,,,,,,,,,,,,,,,,,,,,,,,,,,,,,,,,,,,,,,,,,,,,,,,,,,,,,,,,,,,,,,,,,,,,,,,,,,,,,,,,,,,,,,,,,,,,,,,,,,,,,,,,,,,,,,,,,,,,,,,,,,,,,,,,,,,,,,,,,,,,
,,,,,,615b20797df87e1bdb2bca91,62c539cedeca570d4abc80cb,2022-07-06_09h32.31.625,Colour_Asymmetry_Pilot,2022.1.3,Win32,59.89099838,62c50e9c1127f2cd403a315f,0,3,3,88,1,onetwo,,,,,,,,,,,,,,,,,,,,,,,,,,,,,,,,,,,,,,,,,,,,,,,,,,,,,,,,,,,,,,,,,,,,,,,,,,,,,,,,,,,,,,,,,,,,,,,,,,,,,,,,,,,,,,,,,,,,,,,,,,,,,,,,,,,,,,,,,,,,,,,,,,,,,,,,,,,,,
,,,,,,615b20797df87e1bdb2bca91,62c539cedeca570d4abc80cb,2022-07-06_09h32.31.625,Colour_Asymmetry_Pilot,2022.1.3,Win32,59.89099838,62c50e9c1127f2cd403a315f,0,4,4,132,1,threeone,,,,,,,,,,,,,,,,,,,,,,,,,,,,,,,,,,,,,,,,,,,,,,,,,,,,,,,,,,,,,,,,,,,,,,,,,,,,,,,,,,,,,,,,,,,,,,,,,,,,,,,,,,,,,,,,,,,,,,,,,,,,,,,,,,,,,,,,,,,,,,,,,,,,,,,,,,,,,
,,,,,,615b20797df87e1bdb2bca91,62c539cedeca570d4abc80cb,2022-07-06_09h32.31.625,Colour_Asymmetry_Pilot,2022.1.3,Win32,59.89099838,62c50e9c1127f2cd403a315f,0,5,5,49,1,onethree,,,,,,,,,,,,,,,,,,,,,,,,,,,,,,,,,,,,,,,,,,,,,,,,,,,,,,,,,,,,,,,,,,,,,,,,,,,,,,,,,,,,,,,,,,,,,,,,,,,,,,,,,,,,,,,,,,,,,,,,,,,,,,,,,,,,,,,,,,,,,,,,,,,,,,,,,,,,,
,,,,,,615b20797df87e1bdb2bca91,62c539cedeca570d4abc80cb,2022-07-06_09h32.31.625,Colour_Asymmetry_Pilot,2022.1.3,Win32,59.89099838,62c50e9c1127f2cd403a315f,0,6,6,34,1,twoone,,,,,,,,,,,,,,,,,,,,,,,,,,,,,,,,,,,,,,,,,,,,,,,,,,,,,,,,,,,,,,,,,,,,,,,,,,,,,,,,,,,,,,,,,,,,,,,,,,,,,,,,,,,,,,,,,,,,,,,,,,,,,,,,,,,,,,,,,,,,,,,,,,,,,,,,,,,,,
,,,,,,615b20797df87e1bdb2bca91,62c539cedeca570d4abc80cb,2022-07-06_09h32.31.625,Colour_Asymmetry_Pilot,2022.1.3,Win32,59.89099838,62c50e9c1127f2cd403a315f,0,7,7,57,1,onethree,,,,,,,,,,,,,,,,,,,,,,,,,,,,,,,,,,,,,,,,,,,,,,,,,,,,,,,,,,,,,,,,,,,,,,,,,,,,,,,,,,,,,,,,,,,,,,,,,,,,,,,,,,,,,,,,,,,,,,,,,,,,,,,,,,,,,,,,,,,,,,,,,,,,,,,,,,,,,
,,,,,,615b20797df87e1bdb2bca91,62c539cedeca570d4abc80cb,2022-07-06_09h32.31.625,Colour_Asymmetry_Pilot,2022.1.3,Win32,59.89099838,62c50e9c1127f2cd403a315f,0,8,8,47,1,fourthree,,,,,,,,,,,,,,,,,,,,,,,,,,,,,,,,,,,,,,,,,,,,,,,,,,,,,,,,,,,,,,,,,,,,,,,,,,,,,,,,,,,,,,,,,,,,,,,,,,,,,,,,,,,,,,,,,,,,,,,,,,,,,,,,,,,,,,,,,,,,,,,,,,,,,,,,,,,,,
,,,,,,615b20797df87e1bdb2bca91,62c539cedeca570d4abc80cb,2022-07-06_09h32.31.625,Colour_Asymmetry_Pilot,2022.1.3,Win32,59.89099838,62c50e9c1127f2cd403a315f,0,9,9,136,1,onetwo,,,,,,,,,,,,,,,,,,,,,,,,,,,,,,,,,,,,,,,,,,,,,,,,,,,,,,,,,,,,,,,,,,,,,,,,,,,,,,,,,,,,,,,,,,,,,,,,,,,,,,,,,,,,,,,,,,,,,,,,,,,,,,,,,,,,,,,,,,,,,,,,,,,,,,,,,,,,,
,,,,,,615b20797df87e1bdb2bca91,62c539cedeca570d4abc80cb,2022-07-06_09h32.31.625,Colour_Asymmetry_Pilot,2022.1.3,Win32,59.89099838,62c50e9c1127f2cd403a315f,0,10,10,0,1,onetwo,,,,,,,,,,,,,,,,,,,,,,,,,,,,,,,,,,,,,,,,,,,,,,,,,,,,,,,,,,,,,,,,,,,,,,,,,,,,,,,,,,,,,,,,,,,,,,,,,,,,,,,,,,,,,,,,,,,,,,,,,,,,,,,,,,,,,,,,,,,,,,,,,,,,,,,,,,,,,
,,,,,,615b20797df87e1bdb2bca91,62c539cedeca570d4abc80cb,2022-07-06_09h32.31.625,Colour_Asymmetry_Pilot,2022.1.3,Win32,59.89099838,62c50e9c1127f2cd403a315f,0,11,11,85,1,threefour,,,,,,,,,,,,,,,,,,,,,,,,,,,,,,,,,,,,,,,,,,,,,,,,,,,,,,,,,,,,,,,,,,,,,,,,,,,,,,,,,,,,,,,,,,,,,,,,,,,,,,,,,,,,,,,,,,,,,,,,,,,,,,,,,,,,,,,,,,,,,,,,,,,,,,,,,,,,,
,,,,,,615b20797df87e1bdb2bca91,62c539cedeca570d4abc80cb,2022-07-06_09h32.31.625,Colour_Asymmetry_Pilot,2022.1.3,Win32,59.89099838,62c50e9c1127f2cd403a315f,0,12,12,18,1,twoone,,,,,,,,,,,,,,,,,,,,,,,,,,,,,,,,,,,,,,,,,,,,,,,,,,,,,,,,,,,,,,,,,,,,,,,,,,,,,,,,,,,,,,,,,,,,,,,,,,,,,,,,,,,,,,,,,,,,,,,,,,,,,,,,,,,,,,,,,,,,,,,,,,,,,,,,,,,,,
,,,,,,615b20797df87e1bdb2bca91,62c539cedeca570d4abc80cb,2022-07-06_09h32.31.625,Colour_Asymmetry_Pilot,2022.1.3,Win32,59.89099838,62c50e9c1127f2cd403a315f,0,13,13,53,1,threefour,,,,,,,,,,,,,,,,,,,,,,,,,,,,,,,,,,,,,,,,,,,,,,,,,,,,,,,,,,,,,,,,,,,,,,,,,,,,,,,,,,,,,,,,,,,,,,,,,,,,,,,,,,,,,,,,,,,,,,,,,,,,,,,,,,,,,,,,,,,,,,,,,,,,,,,,,,,,,
,,,,,,615b20797df87e1bdb2bca91,62c539cedeca570d4abc80cb,2022-07-06_09h32.31.625,Colour_Asymmetry_Pilot,2022.1.3,Win32,59.89099838,62c50e9c1127f2cd403a315f,0,14,14,100,1,threeone,,,,,,,,,,,,,,,,,,,,,,,,,,,,,,,,,,,,,,,,,,,,,,,,,,,,,,,,,,,,,,,,,,,,,,,,,,,,,,,,,,,,,,,,,,,,,,,,,,,,,,,,,,,,,,,,,,,,,,,,,,,,,,,,,,,,,,,,,,,,,,,,,,,,,,,,,,,,,
,,,,,,615b20797df87e1bdb2bca91,62c539cedeca570d4abc80cb,2022-07-06_09h32.31.625,Colour_Asymmetry_Pilot,2022.1.3,Win32,59.89099838,62c50e9c1127f2cd403a315f,0,15,15,65,1,onethree,,,,,,,,,,,,,,,,,,,,,,,,,,,,,,,,,,,,,,,,,,,,,,,,,,,,,,,,,,,,,,,,,,,,,,,,,,,,,,,,,,,,,,,,,,,,,,,,,,,,,,,,,,,,,,,,,,,,,,,,,,,,,,,,,,,,,,,,,,,,,,,,,,,,,,,,,,,,,
,,,,,,615b20797df87e1bdb2bca91,62c539cedeca570d4abc80cb,2022-07-06_09h32.31.625,Colour_Asymmetry_Pilot,2022.1.3,Win32,59.89099838,62c50e9c1127f2cd403a315f,0,16,16,92,1,threeone,,,,,,,,,,,,,,,,,,,,,,,,,,,,,,,,,,,,,,,,,,,,,,,,,,,,,,,,,,,,,,,,,,,,,,,,,,,,,,,,,,,,,,,,,,,,,,,,,,,,,,,,,,,,,,,,,,,,,,,,,,,,,,,,,,,,,,,,,,,,,,,,,,,,,,,,,,,,,
,,,,,,615b20797df87e1bdb2bca91,62c539cedeca570d4abc80cb,2022-07-06_09h32.31.625,Colour_Asymmetry_Pilot,2022.1.3,Win32,59.89099838,62c50e9c1127f2cd403a315f,0,17,17,134,1,fourtwo,,,,,,,,,,,,,,,,,,,,,,,,,,,,,,,,,,,,,,,,,,,,,,,,,,,,,,,,,,,,,,,,,,,,,,,,,,,,,,,,,,,,,,,,,,,,,,,,,,,,,,,,,,,,,,,,,,,,,,,,,,,,,,,,,,,,,,,,,,,,,,,,,,,,,,,,,,,,,
,,,,,,615b20797df87e1bdb2bca91,62c539cedeca570d4abc80cb,2022-07-06_09h32.31.625,Colour_Asymmetry_Pilot,2022.1.3,Win32,59.89099838,62c50e9c1127f2cd403a315f,0,18,18,156,1,threeone,,,,,,,,,,,,,,,,,,,,,,,,,,,,,,,,,,,,,,,,,,,,,,,,,,,,,,,,,,,,,,,,,,,,,,,,,,,,,,,,,,,,,,,,,,,,,,,,,,,,,,,,,,,,,,,,,,,,,,,,,,,,,,,,,,,,,,,,,,,,,,,,,,,,,,,,,,,,,
,,,,,,615b20797df87e1bdb2bca91,62c539cedeca570d4abc80cb,2022-07-06_09h32.31.625,Colour_Asymmetry_Pilot,2022.1.3,Win32,59.89099838,62c50e9c1127f2cd403a315f,0,19,19,84,1,threeone,,,,,,,,,,,,,,,,,,,,,,,,,,,,,,,,,,,,,,,,,,,,,,,,,,,,,,,,,,,,,,,,,,,,,,,,,,,,,,,,,,,,,,,,,,,,,,,,,,,,,,,,,,,,,,,,,,,,,,,,,,,,,,,,,,,,,,,,,,,,,,,,,,,,,,,,,,,,,
,,,,,,615b20797df87e1bdb2bca91,62c539cedeca570d4abc80cb,2022-07-06_09h32.31.625,Colour_Asymmetry_Pilot,2022.1.3,Win32,59.89099838,62c50e9c1127f2cd403a315f,0,20,20,63,1,fourthree,,,,,,,,,,,,,,,,,,,,,,,,,,,,,,,,,,,,,,,,,,,,,,,,,,,,,,,,,,,,,,,,,,,,,,,,,,,,,,,,,,,,,,,,,,,,,,,,,,,,,,,,,,,,,,,,,,,,,,,,,,,,,,,,,,,,,,,,,,,,,,,,,,,,,,,,,,,,,
,,,,,,615b20797df87e1bdb2bca91,62c539cedeca570d4abc80cb,2022-07-06_09h32.31.625,Colour_Asymmetry_Pilot,2022.1.3,Win32,59.89099838,62c50e9c1127f2cd403a315f,0,21,21,135,1,fourthree,,,,,,,,,,,,,,,,,,,,,,,,,,,,,,,,,,,,,,,,,,,,,,,,,,,,,,,,,,,,,,,,,,,,,,,,,,,,,,,,,,,,,,,,,,,,,,,,,,,,,,,,,,,,,,,,,,,,,,,,,,,,,,,,,,,,,,,,,,,,,,,,,,,,,,,,,,,,,
,,,,,,615b20797df87e1bdb2bca91,62c539cedeca570d4abc80cb,2022-07-06_09h32.31.625,Colour_Asymmetry_Pilot,2022.1.3,Win32,59.89099838,62c50e9c1127f2cd403a315f,0,22,22,99,1,twofour,,,,,,,,,,,,,,,,,,,,,,,,,,,,,,,,,,,,,,,,,,,,,,,,,,,,,,,,,,,,,,,,,,,,,,,,,,,,,,,,,,,,,,,,,,,,,,,,,,,,,,,,,,,,,,,,,,,,,,,,,,,,,,,,,,,,,,,,,,,,,,,,,,,,,,,,,,,,,
,,,,,,615b20797df87e1bdb2bca91,62c539cedeca570d4abc80cb,2022-07-06_09h32.31.625,Colour_Asymmetry_Pilot,2022.1.3,Win32,59.89099838,62c50e9c1127f2cd403a315f,0,23,23,152,1,onetwo,,,,,,,,,,,,,,,,,,,,,,,,,,,,,,,,,,,,,,,,,,,,,,,,,,,,,,,,,,,,,,,,,,,,,,,,,,,,,,,,,,,,,,,,,,,,,,,,,,,,,,,,,,,,,,,,,,,,,,,,,,,,,,,,,,,,,,,,,,,,,,,,,,,,,,,,,,,,,
,,,,,,615b20797df87e1bdb2bca91,62c539cedeca570d4abc80cb,2022-07-06_09h32.31.625,Colour_Asymmetry_Pilot,2022.1.3,Win32,59.89099838,62c50e9c1127f2cd403a315f,0,24,24,14,1,fourtwo,,,,,,,,,,,,,,,,,,,,,,,,,,,,,,,,,,,,,,,,,,,,,,,,,,,,,,,,,,,,,,,,,,,,,,,,,,,,,,,,,,,,,,,,,,,,,,,,,,,,,,,,,,,,,,,,,,,,,,,,,,,,,,,,,,,,,,,,,,,,,,,,,,,,,,,,,,,,,
,,,,,,615b20797df87e1bdb2bca91,62c539cedeca570d4abc80cb,2022-07-06_09h32.31.625,Colour_Asymmetry_Pilot,2022.1.3,Win32,59.89099838,62c50e9c1127f2cd403a315f,0,25,25,109,1,threefour,,,,,,,,,,,,,,,,,,,,,,,,,,,,,,,,,,,,,,,,,,,,,,,,,,,,,,,,,,,,,,,,,,,,,,,,,,,,,,,,,,,,,,,,,,,,,,,,,,,,,,,,,,,,,,,,,,,,,,,,,,,,,,,,,,,,,,,,,,,,,,,,,,,,,,,,,,,,,
,,,,,,615b20797df87e1bdb2bca91,62c539cedeca570d4abc80cb,2022-07-06_09h32.31.625,Colour_Asymmetry_Pilot,2022.1.3,Win32,59.89099838,62c50e9c1127f2cd403a315f,0,26,26,48,1,onetwo,,,,,,,,,,,,,,,,,,,,,,,,,,,,,,,,,,,,,,,,,,,,,,,,,,,,,,,,,,,,,,,,,,,,,,,,,,,,,,,,,,,,,,,,,,,,,,,,,,,,,,,,,,,,,,,,,,,,,,,,,,,,,,,,,,,,,,,,,,,,,,,,,,,,,,,,,,,,,
,,,,,,615b20797df87e1bdb2bca91,62c539cedeca570d4abc80cb,2022-07-06_09h32.31.625,Colour_Asymmetry_Pilot,2022.1.3,Win32,59.89099838,62c50e9c1127f2cd403a315f,0,27,27,145,1,onethree,,,,,,,,,,,,,,,,,,,,,,,,,,,,,,,,,,,,,,,,,,,,,,,,,,,,,,,,,,,,,,,,,,,,,,,,,,,,,,,,,,,,,,,,,,,,,,,,,,,,,,,,,,,,,,,,,,,,,,,,,,,,,,,,,,,,,,,,,,,,,,,,,,,,,,,,,,,,,
,,,,,,615b20797df87e1bdb2bca91,62c539cedeca570d4abc80cb,2022-07-06_09h32.31.625,Colour_Asymmetry_Pilot,2022.1.3,Win32,59.89099838,62c50e9c1127f2cd403a315f,0,28,28,6,1,fourtwo,,,,,,,,,,,,,,,,,,,,,,,,,,,,,,,,,,,,,,,,,,,,,,,,,,,,,,,,,,,,,,,,,,,,,,,,,,,,,,,,,,,,,,,,,,,,,,,,,,,,,,,,,,,,,,,,,,,,,,,,,,,,,,,,,,,,,,,,,,,,,,,,,,,,,,,,,,,,,
,,,,,,615b20797df87e1bdb2bca91,62c539cedeca570d4abc80cb,2022-07-06_09h32.31.625,Colour_Asymmetry_Pilot,2022.1.3,Win32,59.89099838,62c50e9c1127f2cd403a315f,0,29,29,67,1,twofour,,,,,,,,,,,,,,,,,,,,,,,,,,,,,,,,,,,,,,,,,,,,,,,,,,,,,,,,,,,,,,,,,,,,,,,,,,,,,,,,,,,,,,,,,,,,,,,,,,,,,,,,,,,,,,,,,,,,,,,,,,,,,,,,,,,,,,,,,,,,,,,,,,,,,,,,,,,,,
,,,,,,615b20797df87e1bdb2bca91,62c539cedeca570d4abc80cb,2022-07-06_09h32.31.625,Colour_Asymmetry_Pilot,2022.1.3,Win32,59.89099838,62c50e9c1127f2cd403a315f,0,30,30,112,1,onetwo,,,,,,,,,,,,,,,,,,,,,,,,,,,,,,,,,,,,,,,,,,,,,,,,,,,,,,,,,,,,,,,,,,,,,,,,,,,,,,,,,,,,,,,,,,,,,,,,,,,,,,,,,,,,,,,,,,,,,,,,,,,,,,,,,,,,,,,,,,,,,,,,,,,,,,,,,,,,,
,,,,,,615b20797df87e1bdb2bca91,62c539cedeca570d4abc80cb,2022-07-06_09h32.31.625,Colour_Asymmetry_Pilot,2022.1.3,Win32,59.89099838,62c50e9c1127f2cd403a315f,0,31,31,62,1,fourtwo,,,,,,,,,,,,,,,,,,,,,,,,,,,,,,,,,,,,,,,,,,,,,,,,,,,,,,,,,,,,,,,,,,,,,,,,,,,,,,,,,,,,,,,,,,,,,,,,,,,,,,,,,,,,,,,,,,,,,,,,,,,,,,,,,,,,,,,,,,,,,,,,,,,,,,,,,,,,,
,,,,,,615b20797df87e1bdb2bca91,62c539cedeca570d4abc80cb,2022-07-06_09h32.31.625,Colour_Asymmetry_Pilot,2022.1.3,Win32,59.89099838,62c50e9c1127f2cd403a315f,0,32,32,117,1,threefour,,,,,,,,,,,,,,,,,,,,,,,,,,,,,,,,,,,,,,,,,,,,,,,,,,,,,,,,,,,,,,,,,,,,,,,,,,,,,,,,,,,,,,,,,,,,,,,,,,,,,,,,,,,,,,,,,,,,,,,,,,,,,,,,,,,,,,,,,,,,,,,,,,,,,,,,,,,,,
,,,,,,615b20797df87e1bdb2bca91,62c539cedeca570d4abc80cb,2022-07-06_09h32.31.625,Colour_Asymmetry_Pilot,2022.1.3,Win32,59.89099838,62c50e9c1127f2cd403a315f,0,33,33,87,1,fourthree,,,,,,,,,,,,,,,,,,,,,,,,,,,,,,,,,,,,,,,,,,,,,,,,,,,,,,,,,,,,,,,,,,,,,,,,,,,,,,,,,,,,,,,,,,,,,,,,,,,,,,,,,,,,,,,,,,,,,,,,,,,,,,,,,,,,,,,,,,,,,,,,,,,,,,,,,,,,,
,,,,,,615b20797df87e1bdb2bca91,62c539cedeca570d4abc80cb,2022-07-06_09h32.31.625,Colour_Asymmetry_Pilot,2022.1.3,Win32,59.89099838,62c50e9c1127f2cd403a315f,0,34,34,30,1,fourtwo,,,,,,,,,,,,,,,,,,,,,,,,,,,,,,,,,,,,,,,,,,,,,,,,,,,,,,,,,,,,,,,,,,,,,,,,,,,,,,,,,,,,,,,,,,,,,,,,,,,,,,,,,,,,,,,,,,,,,,,,,,,,,,,,,,,,,,,,,,,,,,,,,,,,,,,,,,,,,
,,,,,,615b20797df87e1bdb2bca91,62c539cedeca570d4abc80cb,2022-07-06_09h32.31.625,Colour_Asymmetry_Pilot,2022.1.3,Win32,59.89099838,62c50e9c1127f2cd403a315f,0,35,35,61,1,threefour,,,,,,,,,,,,,,,,,,,,,,,,,,,,,,,,,,,,,,,,,,,,,,,,,,,,,,,,,,,,,,,,,,,,,,,,,,,,,,,,,,,,,,,,,,,,,,,,,,,,,,,,,,,,,,,,,,,,,,,,,,,,,,,,,,,,,,,,,,,,,,,,,,,,,,,,,,,,,
,,,,,,615b20797df87e1bdb2bca91,62c539cedeca570d4abc80cb,2022-07-06_09h32.31.625,Colour_Asymmetry_Pilot,2022.1.3,Win32,59.89099838,62c50e9c1127f2cd403a315f,0,36,36,96,1,onetwo,,,,,,,,,,,,,,,,,,,,,,,,,,,,,,,,,,,,,,,,,,,,,,,,,,,,,,,,,,,,,,,,,,,,,,,,,,,,,,,,,,,,,,,,,,,,,,,,,,,,,,,,,,,,,,,,,,,,,,,,,,,,,,,,,,,,,,,,,,,,,,,,,,,,,,,,,,,,,
,,,,,,615b20797df87e1bdb2bca91,62c539cedeca570d4abc80cb,2022-07-06_09h32.31.625,Colour_Asymmetry_Pilot,2022.1.3,Win32,59.89099838,62c50e9c1127f2cd403a315f,0,37,37,138,1,twoone,,,,,,,,,,,,,,,,,,,,,,,,,,,,,,,,,,,,,,,,,,,,,,,,,,,,,,,,,,,,,,,,,,,,,,,,,,,,,,,,,,,,,,,,,,,,,,,,,,,,,,,,,,,,,,,,,,,,,,,,,,,,,,,,,,,,,,,,,,,,,,,,,,,,,,,,,,,,,
,,,,,,615b20797df87e1bdb2bca91,62c539cedeca570d4abc80cb,2022-07-06_09h32.31.625,Colour_Asymmetry_Pilot,2022.1.3,Win32,59.89099838,62c50e9c1127f2cd403a315f,0,38,38,120,1,onetwo,,,,,,,,,,,,,,,,,,,,,,,,,,,,,,,,,,,,,,,,,,,,,,,,,,,,,,,,,,,,,,,,,,,,,,,,,,,,,,,,,,,,,,,,,,,,,,,,,,,,,,,,,,,,,,,,,,,,,,,,,,,,,,,,,,,,,,,,,,,,,,,,,,,,,,,,,,,,,
,,,,,,615b20797df87e1bdb2bca91,62c539cedeca570d4abc80cb,2022-07-06_09h32.31.625,Colour_Asymmetry_Pilot,2022.1.3,Win32,59.89099838,62c50e9c1127f2cd403a315f,0,39,39,103,1,fourthree,,,,,,,,,,,,,,,,,,,,,,,,,,,,,,,,,,,,,,,,,,,,,,,,,,,,,,,,,,,,,,,,,,,,,,,,,,,,,,,,,,,,,,,,,,,,,,,,,,,,,,,,,,,,,,,,,,,,,,,,,,,,,,,,,,,,,,,,,,,,,,,,,,,,,,,,,,,,,
,,,,,,615b20797df87e1bdb2bca91,62c539cedeca570d4abc80cb,2022-07-06_09h32.31.625,Colour_Asymmetry_Pilot,2022.1.3,Win32,59.89099838,62c50e9c1127f2cd403a315f,0,40,40,151,1,fourthree,,,,,,,,,,,,,,,,,,,,,,,,,,,,,,,,,,,,,,,,,,,,,,,,,,,,,,,,,,,,,,,,,,,,,,,,,,,,,,,,,,,,,,,,,,,,,,,,,,,,,,,,,,,,,,,,,,,,,,,,,,,,,,,,,,,,,,,,,,,,,,,,,,,,,,,,,,,,,
,,,,,,615b20797df87e1bdb2bca91,62c539cedeca570d4abc80cb,2022-07-06_09h32.31.625,Colour_Asymmetry_Pilot,2022.1.3,Win32,59.89099838,62c50e9c1127f2cd403a315f,0,41,41,77,1,threefour,,,,,,,,,,,,,,,,,,,,,,,,,,,,,,,,,,,,,,,,,,,,,,,,,,,,,,,,,,,,,,,,,,,,,,,,,,,,,,,,,,,,,,,,,,,,,,,,,,,,,,,,,,,,,,,,,,,,,,,,,,,,,,,,,,,,,,,,,,,,,,,,,,,,,,,,,,,,,
,,,,,,615b20797df87e1bdb2bca91,62c539cedeca570d4abc80cb,2022-07-06_09h32.31.625,Colour_Asymmetry_Pilot,2022.1.3,Win32,59.89099838,62c50e9c1127f2cd403a315f,0,42,42,4,1,threeone,,,,,,,,,,,,,,,,,,,,,,,,,,,,,,,,,,,,,,,,,,,,,,,,,,,,,,,,,,,,,,,,,,,,,,,,,,,,,,,,,,,,,,,,,,,,,,,,,,,,,,,,,,,,,,,,,,,,,,,,,,,,,,,,,,,,,,,,,,,,,,,,,,,,,,,,,,,,,
,,,,,,615b20797df87e1bdb2bca91,62c539cedeca570d4abc80cb,2022-07-06_09h32.31.625,Colour_Asymmetry_Pilot,2022.1.3,Win32,59.89099838,62c50e9c1127f2cd403a315f,0,43,43,83,1,twofour,,,,,,,,,,,,,,,,,,,,,,,,,,,,,,,,,,,,,,,,,,,,,,,,,,,,,,,,,,,,,,,,,,,,,,,,,,,,,,,,,,,,,,,,,,,,,,,,,,,,,,,,,,,,,,,,,,,,,,,,,,,,,,,,,,,,,,,,,,,,,,,,,,,,,,,,,,,,,
,,,,,,615b20797df87e1bdb2bca91,62c539cedeca570d4abc80cb,2022-07-06_09h32.31.625,Colour_Asymmetry_Pilot,2022.1.3,Win32,59.89099838,62c50e9c1127f2cd403a315f,0,44,44,161,1,onethree,,,,,,,,,,,,,,,,,,,,,,,,,,,,,,,,,,,,,,,,,,,,,,,,,,,,,,,,,,,,,,,,,,,,,,,,,,,,,,,,,,,,,,,,,,,,,,,,,,,,,,,,,,,,,,,,,,,,,,,,,,,,,,,,,,,,,,,,,,,,,,,,,,,,,,,,,,,,,
,,,,,,615b20797df87e1bdb2bca91,62c539cedeca570d4abc80cb,2022-07-06_09h32.31.625,Colour_Asymmetry_Pilot,2022.1.3,Win32,59.89099838,62c50e9c1127f2cd403a315f,0,45,45,157,1,threefour,,,,,,,,,,,,,,,,,,,,,,,,,,,,,,,,,,,,,,,,,,,,,,,,,,,,,,,,,,,,,,,,,,,,,,,,,,,,,,,,,,,,,,,,,,,,,,,,,,,,,,,,,,,,,,,,,,,,,,,,,,,,,,,,,,,,,,,,,,,,,,,,,,,,,,,,,,,,,
,,,,,,615b20797df87e1bdb2bca91,62c539cedeca570d4abc80cb,2022-07-06_09h32.31.625,Colour_Asymmetry_Pilot,2022.1.3,Win32,59.89099838,62c50e9c1127f2cd403a315f,0,46,46,86,1,fourtwo,,,,,,,,,,,,,,,,,,,,,,,,,,,,,,,,,,,,,,,,,,,,,,,,,,,,,,,,,,,,,,,,,,,,,,,,,,,,,,,,,,,,,,,,,,,,,,,,,,,,,,,,,,,,,,,,,,,,,,,,,,,,,,,,,,,,,,,,,,,,,,,,,,,,,,,,,,,,,
,,,,,,615b20797df87e1bdb2bca91,62c539cedeca570d4abc80cb,2022-07-06_09h32.31.625,Colour_Asymmetry_Pilot,2022.1.3,Win32,59.89099838,62c50e9c1127f2cd403a315f,0,47,47,50,1,twoone,,,,,,,,,,,,,,,,,,,,,,,,,,,,,,,,,,,,,,,,,,,,,,,,,,,,,,,,,,,,,,,,,,,,,,,,,,,,,,,,,,,,,,,,,,,,,,,,,,,,,,,,,,,,,,,,,,,,,,,,,,,,,,,,,,,,,,,,,,,,,,,,,,,,,,,,,,,,,
,,,,,,615b20797df87e1bdb2bca91,62c539cedeca570d4abc80cb,2022-07-06_09h32.31.625,Colour_Asymmetry_Pilot,2022.1.3,Win32,59.89099838,62c50e9c1127f2cd403a315f,0,48,48,56,1,onetwo,,,,,,,,,,,,,,,,,,,,,,,,,,,,,,,,,,,,,,,,,,,,,,,,,,,,,,,,,,,,,,,,,,,,,,,,,,,,,,,,,,,,,,,,,,,,,,,,,,,,,,,,,,,,,,,,,,,,,,,,,,,,,,,,,,,,,,,,,,,,,,,,,,,,,,,,,,,,,
,,,,,,615b20797df87e1bdb2bca91,62c539cedeca570d4abc80cb,2022-07-06_09h32.31.625,Colour_Asymmetry_Pilot,2022.1.3,Win32,59.89099838,62c50e9c1127f2cd403a315f,0,49,49,42,1,twoone,,,,,,,,,,,,,,,,,,,,,,,,,,,,,,,,,,,,,,,,,,,,,,,,,,,,,,,,,,,,,,,,,,,,,,,,,,,,,,,,,,,,,,,,,,,,,,,,,,,,,,,,,,,,,,,,,,,,,,,,,,,,,,,,,,,,,,,,,,,,,,,,,,,,,,,,,,,,,
,,,,,,615b20797df87e1bdb2bca91,62c539cedeca570d4abc80cb,2022-07-06_09h32.31.625,Colour_Asymmetry_Pilot,2022.1.3,Win32,59.89099838,62c50e9c1127f2cd403a315f,0,50,50,140,1,threeone,,,,,,,,,,,,,,,,,,,,,,,,,,,,,,,,,,,,,,,,,,,,,,,,,,,,,,,,,,,,,,,,,,,,,,,,,,,,,,,,,,,,,,,,,,,,,,,,,,,,,,,,,,,,,,,,,,,,,,,,,,,,,,,,,,,,,,,,,,,,,,,,,,,,,,,,,,,,,
,,,,,,615b20797df87e1bdb2bca91,62c539cedeca570d4abc80cb,2022-07-06_09h32.31.625,Colour_Asymmetry_Pilot,2022.1.3,Win32,59.89099838,62c50e9c1127f2cd403a315f,0,51,51,89,1,onethree,,,,,,,,,,,,,,,,,,,,,,,,,,,,,,,,,,,,,,,,,,,,,,,,,,,,,,,,,,,,,,,,,,,,,,,,,,,,,,,,,,,,,,,,,,,,,,,,,,,,,,,,,,,,,,,,,,,,,,,,,,,,,,,,,,,,,,,,,,,,,,,,,,,,,,,,,,,,,
,,,,,,615b20797df87e1bdb2bca91,62c539cedeca570d4abc80cb,2022-07-06_09h32.31.625,Colour_Asymmetry_Pilot,2022.1.3,Win32,59.89099838,62c50e9c1127f2cd403a315f,0,52,52,129,1,onethree,,,,,,,,,,,,,,,,,,,,,,,,,,,,,,,,,,,,,,,,,,,,,,,,,,,,,,,,,,,,,,,,,,,,,,,,,,,,,,,,,,,,,,,,,,,,,,,,,,,,,,,,,,,,,,,,,,,,,,,,,,,,,,,,,,,,,,,,,,,,,,,,,,,,,,,,,,,,,
,,,,,,615b20797df87e1bdb2bca91,62c539cedeca570d4abc80cb,2022-07-06_09h32.31.625,Colour_Asymmetry_Pilot,2022.1.3,Win32,59.89099838,62c50e9c1127f2cd403a315f,0,53,53,71,1,fourthree,,,,,,,,,,,,,,,,,,,,,,,,,,,,,,,,,,,,,,,,,,,,,,,,,,,,,,,,,,,,,,,,,,,,,,,,,,,,,,,,,,,,,,,,,,,,,,,,,,,,,,,,,,,,,,,,,,,,,,,,,,,,,,,,,,,,,,,,,,,,,,,,,,,,,,,,,,,,,
,,,,,,615b20797df87e1bdb2bca91,62c539cedeca570d4abc80cb,2022-07-06_09h32.31.625,Colour_Asymmetry_Pilot,2022.1.3,Win32,59.89099838,62c50e9c1127f2cd403a315f,0,54,54,160,1,onetwo,,,,,,,,,,,,,,,,,,,,,,,,,,,,,,,,,,,,,,,,,,,,,,,,,,,,,,,,,,,,,,,,,,,,,,,,,,,,,,,,,,,,,,,,,,,,,,,,,,,,,,,,,,,,,,,,,,,,,,,,,,,,,,,,,,,,,,,,,,,,,,,,,,,,,,,,,,,,,
,,,,,,615b20797df87e1bdb2bca91,62c539cedeca570d4abc80cb,2022-07-06_09h32.31.625,Colour_Asymmetry_Pilot,2022.1.3,Win32,59.89099838,62c50e9c1127f2cd403a315f,0,55,55,146,1,twoone,,,,,,,,,,,,,,,,,,,,,,,,,,,,,,,,,,,,,,,,,,,,,,,,,,,,,,,,,,,,,,,,,,,,,,,,,,,,,,,,,,,,,,,,,,,,,,,,,,,,,,,,,,,,,,,,,,,,,,,,,,,,,,,,,,,,,,,,,,,,,,,,,,,,,,,,,,,,,
,,,,,,615b20797df87e1bdb2bca91,62c539cedeca570d4abc80cb,2022-07-06_09h32.31.625,Colour_Asymmetry_Pilot,2022.1.3,Win32,59.89099838,62c50e9c1127f2cd403a315f,0,56,56,147,1,twofour,,,,,,,,,,,,,,,,,,,,,,,,,,,,,,,,,,,,,,,,,,,,,,,,,,,,,,,,,,,,,,,,,,,,,,,,,,,,,,,,,,,,,,,,,,,,,,,,,,,,,,,,,,,,,,,,,,,,,,,,,,,,,,,,,,,,,,,,,,,,,,,,,,,,,,,,,,,,,
,,,,,,615b20797df87e1bdb2bca91,62c539cedeca570d4abc80cb,2022-07-06_09h32.31.625,Colour_Asymmetry_Pilot,2022.1.3,Win32,59.89099838,62c50e9c1127f2cd403a315f,0,57,57,15,1,fourthree,,,,,,,,,,,,,,,,,,,,,,,,,,,,,,,,,,,,,,,,,,,,,,,,,,,,,,,,,,,,,,,,,,,,,,,,,,,,,,,,,,,,,,,,,,,,,,,,,,,,,,,,,,,,,,,,,,,,,,,,,,,,,,,,,,,,,,,,,,,,,,,,,,,,,,,,,,,,,
,,,,,,615b20797df87e1bdb2bca91,62c539cedeca570d4abc80cb,2022-07-06_09h32.31.625,Colour_Asymmetry_Pilot,2022.1.3,Win32,59.89099838,62c50e9c1127f2cd403a315f,0,58,58,123,1,twofour,,,,,,,,,,,,,,,,,,,,,,,,,,,,,,,,,,,,,,,,,,,,,,,,,,,,,,,,,,,,,,,,,,,,,,,,,,,,,,,,,,,,,,,,,,,,,,,,,,,,,,,,,,,,,,,,,,,,,,,,,,,,,,,,,,,,,,,,,,,,,,,,,,,,,,,,,,,,,
,,,,,,615b20797df87e1bdb2bca91,62c539cedeca570d4abc80cb,2022-07-06_09h32.31.625,Colour_Asymmetry_Pilot,2022.1.3,Win32,59.89099838,62c50e9c1127f2cd403a315f,0,59,59,26,1,twoone,,,,,,,,,,,,,,,,,,,,,,,,,,,,,,,,,,,,,,,,,,,,,,,,,,,,,,,,,,,,,,,,,,,,,,,,,,,,,,,,,,,,,,,,,,,,,,,,,,,,,,,,,,,,,,,,,,,,,,,,,,,,,,,,,,,,,,,,,,,,,,,,,,,,,,,,,,,,,
,,,,,,615b20797df87e1bdb2bca91,62c539cedeca570d4abc80cb,2022-07-06_09h32.31.625,Colour_Asymmetry_Pilot,2022.1.3,Win32,59.89099838,62c50e9c1127f2cd403a315f,0,60,60,137,1,onethree,,,,,,,,,,,,,,,,,,,,,,,,,,,,,,,,,,,,,,,,,,,,,,,,,,,,,,,,,,,,,,,,,,,,,,,,,,,,,,,,,,,,,,,,,,,,,,,,,,,,,,,,,,,,,,,,,,,,,,,,,,,,,,,,,,,,,,,,,,,,,,,,,,,,,,,,,,,,,
,,,,,,615b20797df87e1bdb2bca91,62c539cedeca570d4abc80cb,2022-07-06_09h32.31.625,Colour_Asymmetry_Pilot,2022.1.3,Win32,59.89099838,62c50e9c1127f2cd403a315f,0,61,61,21,1,threefour,,,,,,,,,,,,,,,,,,,,,,,,,,,,,,,,,,,,,,,,,,,,,,,,,,,,,,,,,,,,,,,,,,,,,,,,,,,,,,,,,,,,,,,,,,,,,,,,,,,,,,,,,,,,,,,,,,,,,,,,,,,,,,,,,,,,,,,,,,,,,,,,,,,,,,,,,,,,,
,,,,,,615b20797df87e1bdb2bca91,62c539cedeca570d4abc80cb,2022-07-06_09h32.31.625,Colour_Asymmetry_Pilot,2022.1.3,Win32,59.89099838,62c50e9c1127f2cd403a315f,0,62,62,139,1,twofour,,,,,,,,,,,,,,,,,,,,,,,,,,,,,,,,,,,,,,,,,,,,,,,,,,,,,,,,,,,,,,,,,,,,,,,,,,,,,,,,,,,,,,,,,,,,,,,,,,,,,,,,,,,,,,,,,,,,,,,,,,,,,,,,,,,,,,,,,,,,,,,,,,,,,,,,,,,,,
,,,,,,615b20797df87e1bdb2bca91,62c539cedeca570d4abc80cb,2022-07-06_09h32.31.625,Colour_Asymmetry_Pilot,2022.1.3,Win32,59.89099838,62c50e9c1127f2cd403a315f,0,63,63,20,1,threeone,,,,,,,,,,,,,,,,,,,,,,,,,,,,,,,,,,,,,,,,,,,,,,,,,,,,,,,,,,,,,,,,,,,,,,,,,,,,,,,,,,,,,,,,,,,,,,,,,,,,,,,,,,,,,,,,,,,,,,,,,,,,,,,,,,,,,,,,,,,,,,,,,,,,,,,,,,,,,
,,,,,,615b20797df87e1bdb2bca91,62c539cedeca570d4abc80cb,2022-07-06_09h32.31.625,Colour_Asymmetry_Pilot,2022.1.3,Win32,59.89099838,62c50e9c1127f2cd403a315f,0,64,64,142,1,fourtwo,,,,,,,,,,,,,,,,,,,,,,,,,,,,,,,,,,,,,,,,,,,,,,,,,,,,,,,,,,,,,,,,,,,,,,,,,,,,,,,,,,,,,,,,,,,,,,,,,,,,,,,,,,,,,,,,,,,,,,,,,,,,,,,,,,,,,,,,,,,,,,,,,,,,,,,,,,,,,
,,,,,,615b20797df87e1bdb2bca91,62c539cedeca570d4abc80cb,2022-07-06_09h32.31.625,Colour_Asymmetry_Pilot,2022.1.3,Win32,59.89099838,62c50e9c1127f2cd403a315f,0,65,65,158,1,fourtwo,,,,,,,,,,,,,,,,,,,,,,,,,,,,,,,,,,,,,,,,,,,,,,,,,,,,,,,,,,,,,,,,,,,,,,,,,,,,,,,,,,,,,,,,,,,,,,,,,,,,,,,,,,,,,,,,,,,,,,,,,,,,,,,,,,,,,,,,,,,,,,,,,,,,,,,,,,,,,
,,,,,,615b20797df87e1bdb2bca91,62c539cedeca570d4abc80cb,2022-07-06_09h32.31.625,Colour_Asymmetry_Pilot,2022.1.3,Win32,59.89099838,62c50e9c1127f2cd403a315f,0,66,66,37,1,threefour,,,,,,,,,,,,,,,,,,,,,,,,,,,,,,,,,,,,,,,,,,,,,,,,,,,,,,,,,,,,,,,,,,,,,,,,,,,,,,,,,,,,,,,,,,,,,,,,,,,,,,,,,,,,,,,,,,,,,,,,,,,,,,,,,,,,,,,,,,,,,,,,,,,,,,,,,,,,,
,,,,,,615b20797df87e1bdb2bca91,62c539cedeca570d4abc80cb,2022-07-06_09h32.31.625,Colour_Asymmetry_Pilot,2022.1.3,Win32,59.89099838,62c50e9c1127f2cd403a315f,0,67,67,41,1,onethree,,,,,,,,,,,,,,,,,,,,,,,,,,,,,,,,,,,,,,,,,,,,,,,,,,,,,,,,,,,,,,,,,,,,,,,,,,,,,,,,,,,,,,,,,,,,,,,,,,,,,,,,,,,,,,,,,,,,,,,,,,,,,,,,,,,,,,,,,,,,,,,,,,,,,,,,,,,,,
,,,,,,615b20797df87e1bdb2bca91,62c539cedeca570d4abc80cb,2022-07-06_09h32.31.625,Colour_Asymmetry_Pilot,2022.1.3,Win32,59.89099838,62c50e9c1127f2cd403a315f,0,68,68,39,1,fourthree,,,,,,,,,,,,,,,,,,,,,,,,,,,,,,,,,,,,,,,,,,,,,,,,,,,,,,,,,,,,,,,,,,,,,,,,,,,,,,,,,,,,,,,,,,,,,,,,,,,,,,,,,,,,,,,,,,,,,,,,,,,,,,,,,,,,,,,,,,,,,,,,,,,,,,,,,,,,,
,,,,,,615b20797df87e1bdb2bca91,62c539cedeca570d4abc80cb,2022-07-06_09h32.31.625,Colour_Asymmetry_Pilot,2022.1.3,Win32,59.89099838,62c50e9c1127f2cd403a315f,0,69,69,2,1,twoone,,,,,,,,,,,,,,,,,,,,,,,,,,,,,,,,,,,,,,,,,,,,,,,,,,,,,,,,,,,,,,,,,,,,,,,,,,,,,,,,,,,,,,,,,,,,,,,,,,,,,,,,,,,,,,,,,,,,,,,,,,,,,,,,,,,,,,,,,,,,,,,,,,,,,,,,,,,,,
,,,,,,615b20797df87e1bdb2bca91,62c539cedeca570d4abc80cb,2022-07-06_09h32.31.625,Colour_Asymmetry_Pilot,2022.1.3,Win32,59.89099838,62c50e9c1127f2cd403a315f,0,70,70,81,1,onethree,,,,,,,,,,,,,,,,,,,,,,,,,,,,,,,,,,,,,,,,,,,,,,,,,,,,,,,,,,,,,,,,,,,,,,,,,,,,,,,,,,,,,,,,,,,,,,,,,,,,,,,,,,,,,,,,,,,,,,,,,,,,,,,,,,,,,,,,,,,,,,,,,,,,,,,,,,,,,
,,,,,,615b20797df87e1bdb2bca91,62c539cedeca570d4abc80cb,2022-07-06_09h32.31.625,Colour_Asymmetry_Pilot,2022.1.3,Win32,59.89099838,62c50e9c1127f2cd403a315f,0,71,71,148,1,threeone,,,,,,,,,,,,,,,,,,,,,,,,,,,,,,,,,,,,,,,,,,,,,,,,,,,,,,,,,,,,,,,,,,,,,,,,,,,,,,,,,,,,,,,,,,,,,,,,,,,,,,,,,,,,,,,,,,,,,,,,,,,,,,,,,,,,,,,,,,,,,,,,,,,,,,,,,,,,,
,,,,,,615b20797df87e1bdb2bca91,62c539cedeca570d4abc80cb,2022-07-06_09h32.31.625,Colour_Asymmetry_Pilot,2022.1.3,Win32,59.89099838,62c50e9c1127f2cd403a315f,0,72,72,126,1,fourtwo,,,,,,,,,,,,,,,,,,,,,,,,,,,,,,,,,,,,,,,,,,,,,,,,,,,,,,,,,,,,,,,,,,,,,,,,,,,,,,,,,,,,,,,,,,,,,,,,,,,,,,,,,,,,,,,,,,,,,,,,,,,,,,,,,,,,,,,,,,,,,,,,,,,,,,,,,,,,,
,,,,,,615b20797df87e1bdb2bca91,62c539cedeca570d4abc80cb,2022-07-06_09h32.31.625,Colour_Asymmetry_Pilot,2022.1.3,Win32,59.89099838,62c50e9c1127f2cd403a315f,0,73,73,113,1,onethree,,,,,,,,,,,,,,,,,,,,,,,,,,,,,,,,,,,,,,,,,,,,,,,,,,,,,,,,,,,,,,,,,,,,,,,,,,,,,,,,,,,,,,,,,,,,,,,,,,,,,,,,,,,,,,,,,,,,,,,,,,,,,,,,,,,,,,,,,,,,,,,,,,,,,,,,,,,,,
,,,,,,615b20797df87e1bdb2bca91,62c539cedeca570d4abc80cb,2022-07-06_09h32.31.625,Colour_Asymmetry_Pilot,2022.1.3,Win32,59.89099838,62c50e9c1127f2cd403a315f,0,74,74,133,1,threefour,,,,,,,,,,,,,,,,,,,,,,,,,,,,,,,,,,,,,,,,,,,,,,,,,,,,,,,,,,,,,,,,,,,,,,,,,,,,,,,,,,,,,,,,,,,,,,,,,,,,,,,,,,,,,,,,,,,,,,,,,,,,,,,,,,,,,,,,,,,,,,,,,,,,,,,,,,,,,
,,,,,,615b20797df87e1bdb2bca91,62c539cedeca570d4abc80cb,2022-07-06_09h32.31.625,Colour_Asymmetry_Pilot,2022.1.3,Win32,59.89099838,62c50e9c1127f2cd403a315f,0,75,75,58,1,twoone,,,,,,,,,,,,,,,,,,,,,,,,,,,,,,,,,,,,,,,,,,,,,,,,,,,,,,,,,,,,,,,,,,,,,,,,,,,,,,,,,,,,,,,,,,,,,,,,,,,,,,,,,,,,,,,,,,,,,,,,,,,,,,,,,,,,,,,,,,,,,,,,,,,,,,,,,,,,,
,,,,,,615b20797df87e1bdb2bca91,62c539cedeca570d4abc80cb,2022-07-06_09h32.31.625,Colour_Asymmetry_Pilot,2022.1.3,Win32,59.89099838,62c50e9c1127f2cd403a315f,0,76,76,98,1,twoone,,,,,,,,,,,,,,,,,,,,,,,,,,,,,,,,,,,,,,,,,,,,,,,,,,,,,,,,,,,,,,,,,,,,,,,,,,,,,,,,,,,,,,,,,,,,,,,,,,,,,,,,,,,,,,,,,,,,,,,,,,,,,,,,,,,,,,,,,,,,,,,,,,,,,,,,,,,,,
,,,,,,615b20797df87e1bdb2bca91,62c539cedeca570d4abc80cb,2022-07-06_09h32.31.625,Colour_Asymmetry_Pilot,2022.1.3,Win32,59.89099838,62c50e9c1127f2cd403a315f,0,77,77,153,1,onethree,,,,,,,,,,,,,,,,,,,,,,,,,,,,,,,,,,,,,,,,,,,,,,,,,,,,,,,,,,,,,,,,,,,,,,,,,,,,,,,,,,,,,,,,,,,,,,,,,,,,,,,,,,,,,,,,,,,,,,,,,,,,,,,,,,,,,,,,,,,,,,,,,,,,,,,,,,,,,
,,,,,,615b20797df87e1bdb2bca91,62c539cedeca570d4abc80cb,2022-07-06_09h32.31.625,Colour_Asymmetry_Pilot,2022.1.3,Win32,59.89099838,62c50e9c1127f2cd403a315f,0,78,78,102,1,fourtwo,,,,,,,,,,,,,,,,,,,,,,,,,,,,,,,,,,,,,,,,,,,,,,,,,,,,,,,,,,,,,,,,,,,,,,,,,,,,,,,,,,,,,,,,,,,,,,,,,,,,,,,,,,,,,,,,,,,,,,,,,,,,,,,,,,,,,,,,,,,,,,,,,,,,,,,,,,,,,
,,,,,,615b20797df87e1bdb2bca91,62c539cedeca570d4abc80cb,2022-07-06_09h32.31.625,Colour_Asymmetry_Pilot,2022.1.3,Win32,59.89099838,62c50e9c1127f2cd403a315f,0,79,79,52,1,threeone,,,,,,,,,,,,,,,,,,,,,,,,,,,,,,,,,,,,,,,,,,,,,,,,,,,,,,,,,,,,,,,,,,,,,,,,,,,,,,,,,,,,,,,,,,,,,,,,,,,,,,,,,,,,,,,,,,,,,,,,,,,,,,,,,,,,,,,,,,,,,,,,,,,,,,,,,,,,,
,,,,,,615b20797df87e1bdb2bca91,62c539cedeca570d4abc80cb,2022-07-06_09h32.31.625,Colour_Asymmetry_Pilot,2022.1.3,Win32,59.89099838,62c50e9c1127f2cd403a315f,0,80,80,130,1,twoone,,,,,,,,,,,,,,,,,,,,,,,,,,,,,,,,,,,,,,,,,,,,,,,,,,,,,,,,,,,,,,,,,,,,,,,,,,,,,,,,,,,,,,,,,,,,,,,,,,,,,,,,,,,,,,,,,,,,,,,,,,,,,,,,,,,,,,,,,,,,,,,,,,,,,,,,,,,,,
,,,,,,615b20797df87e1bdb2bca91,62c539cedeca570d4abc80cb,2022-07-06_09h32.31.625,Colour_Asymmetry_Pilot,2022.1.3,Win32,59.89099838,62c50e9c1127f2cd403a315f,0,81,81,80,1,onetwo,,,,,,,,,,,,,,,,,,,,,,,,,,,,,,,,,,,,,,,,,,,,,,,,,,,,,,,,,,,,,,,,,,,,,,,,,,,,,,,,,,,,,,,,,,,,,,,,,,,,,,,,,,,,,,,,,,,,,,,,,,,,,,,,,,,,,,,,,,,,,,,,,,,,,,,,,,,,,
,,,,,,615b20797df87e1bdb2bca91,62c539cedeca570d4abc80cb,2022-07-06_09h32.31.625,Colour_Asymmetry_Pilot,2022.1.3,Win32,59.89099838,62c50e9c1127f2cd403a315f,0,82,82,74,1,twoone,,,,,,,,,,,,,,,,,,,,,,,,,,,,,,,,,,,,,,,,,,,,,,,,,,,,,,,,,,,,,,,,,,,,,,,,,,,,,,,,,,,,,,,,,,,,,,,,,,,,,,,,,,,,,,,,,,,,,,,,,,,,,,,,,,,,,,,,,,,,,,,,,,,,,,,,,,,,,
,,,,,,615b20797df87e1bdb2bca91,62c539cedeca570d4abc80cb,2022-07-06_09h32.31.625,Colour_Asymmetry_Pilot,2022.1.3,Win32,59.89099838,62c50e9c1127f2cd403a315f,0,83,83,5,1,threefour,,,,,,,,,,,,,,,,,,,,,,,,,,,,,,,,,,,,,,,,,,,,,,,,,,,,,,,,,,,,,,,,,,,,,,,,,,,,,,,,,,,,,,,,,,,,,,,,,,,,,,,,,,,,,,,,,,,,,,,,,,,,,,,,,,,,,,,,,,,,,,,,,,,,,,,,,,,,,
,,,,,,615b20797df87e1bdb2bca91,62c539cedeca570d4abc80cb,2022-07-06_09h32.31.625,Colour_Asymmetry_Pilot,2022.1.3,Win32,59.89099838,62c50e9c1127f2cd403a315f,0,84,84,78,1,fourtwo,,,,,,,,,,,,,,,,,,,,,,,,,,,,,,,,,,,,,,,,,,,,,,,,,,,,,,,,,,,,,,,,,,,,,,,,,,,,,,,,,,,,,,,,,,,,,,,,,,,,,,,,,,,,,,,,,,,,,,,,,,,,,,,,,,,,,,,,,,,,,,,,,,,,,,,,,,,,,
,,,,,,615b20797df87e1bdb2bca91,62c539cedeca570d4abc80cb,2022-07-06_09h32.31.625,Colour_Asymmetry_Pilot,2022.1.3,Win32,59.89099838,62c50e9c1127f2cd403a315f,0,85,85,59,1,twofour,,,,,,,,,,,,,,,,,,,,,,,,,,,,,,,,,,,,,,,,,,,,,,,,,,,,,,,,,,,,,,,,,,,,,,,,,,,,,,,,,,,,,,,,,,,,,,,,,,,,,,,,,,,,,,,,,,,,,,,,,,,,,,,,,,,,,,,,,,,,,,,,,,,,,,,,,,,,,
,,,,,,615b20797df87e1bdb2bca91,62c539cedeca570d4abc80cb,2022-07-06_09h32.31.625,Colour_Asymmetry_Pilot,2022.1.3,Win32,59.89099838,62c50e9c1127f2cd403a315f,0,86,86,107,1,twofour,,,,,,,,,,,,,,,,,,,,,,,,,,,,,,,,,,,,,,,,,,,,,,,,,,,,,,,,,,,,,,,,,,,,,,,,,,,,,,,,,,,,,,,,,,,,,,,,,,,,,,,,,,,,,,,,,,,,,,,,,,,,,,,,,,,,,,,,,,,,,,,,,,,,,,,,,,,,,
,,,,,,615b20797df87e1bdb2bca91,62c539cedeca570d4abc80cb,2022-07-06_09h32.31.625,Colour_Asymmetry_Pilot,2022.1.3,Win32,59.89099838,62c50e9c1127f2cd403a315f,0,87,87,38,1,fourtwo,,,,,,,,,,,,,,,,,,,,,,,,,,,,,,,,,,,,,,,,,,,,,,,,,,,,,,,,,,,,,,,,,,,,,,,,,,,,,,,,,,,,,,,,,,,,,,,,,,,,,,,,,,,,,,,,,,,,,,,,,,,,,,,,,,,,,,,,,,,,,,,,,,,,,,,,,,,,,
,,,,,,615b20797df87e1bdb2bca91,62c539cedeca570d4abc80cb,2022-07-06_09h32.31.625,Colour_Asymmetry_Pilot,2022.1.3,Win32,59.89099838,62c50e9c1127f2cd403a315f,0,88,88,27,1,twofour,,,,,,,,,,,,,,,,,,,,,,,,,,,,,,,,,,,,,,,,,,,,,,,,,,,,,,,,,,,,,,,,,,,,,,,,,,,,,,,,,,,,,,,,,,,,,,,,,,,,,,,,,,,,,,,,,,,,,,,,,,,,,,,,,,,,,,,,,,,,,,,,,,,,,,,,,,,,,
,,,,,,615b20797df87e1bdb2bca91,62c539cedeca570d4abc80cb,2022-07-06_09h32.31.625,Colour_Asymmetry_Pilot,2022.1.3,Win32,59.89099838,62c50e9c1127f2cd403a315f,0,89,89,16,1,onetwo,,,,,,,,,,,,,,,,,,,,,,,,,,,,,,,,,,,,,,,,,,,,,,,,,,,,,,,,,,,,,,,,,,,,,,,,,,,,,,,,,,,,,,,,,,,,,,,,,,,,,,,,,,,,,,,,,,,,,,,,,,,,,,,,,,,,,,,,,,,,,,,,,,,,,,,,,,,,,
,,,,,,615b20797df87e1bdb2bca91,62c539cedeca570d4abc80cb,2022-07-06_09h32.31.625,Colour_Asymmetry_Pilot,2022.1.3,Win32,59.89099838,62c50e9c1127f2cd403a315f,0,90,90,97,1,onethree,,,,,,,,,,,,,,,,,,,,,,,,,,,,,,,,,,,,,,,,,,,,,,,,,,,,,,,,,,,,,,,,,,,,,,,,,,,,,,,,,,,,,,,,,,,,,,,,,,,,,,,,,,,,,,,,,,,,,,,,,,,,,,,,,,,,,,,,,,,,,,,,,,,,,,,,,,,,,
,,,,,,615b20797df87e1bdb2bca91,62c539cedeca570d4abc80cb,2022-07-06_09h32.31.625,Colour_Asymmetry_Pilot,2022.1.3,Win32,59.89099838,62c50e9c1127f2cd403a315f,0,91,91,10,1,twoone,,,,,,,,,,,,,,,,,,,,,,,,,,,,,,,,,,,,,,,,,,,,,,,,,,,,,,,,,,,,,,,,,,,,,,,,,,,,,,,,,,,,,,,,,,,,,,,,,,,,,,,,,,,,,,,,,,,,,,,,,,,,,,,,,,,,,,,,,,,,,,,,,,,,,,,,,,,,,
,,,,,,615b20797df87e1bdb2bca91,62c539cedeca570d4abc80cb,2022-07-06_09h32.31.625,Colour_Asymmetry_Pilot,2022.1.3,Win32,59.89099838,62c50e9c1127f2cd403a315f,0,92,92,75,1,twofour,,,,,,,,,,,,,,,,,,,,,,,,,,,,,,,,,,,,,,,,,,,,,,,,,,,,,,,,,,,,,,,,,,,,,,,,,,,,,,,,,,,,,,,,,,,,,,,,,,,,,,,,,,,,,,,,,,,,,,,,,,,,,,,,,,,,,,,,,,,,,,,,,,,,,,,,,,,,,
,,,,,,615b20797df87e1bdb2bca91,62c539cedeca570d4abc80cb,2022-07-06_09h32.31.625,Colour_Asymmetry_Pilot,2022.1.3,Win32,59.89099838,62c50e9c1127f2cd403a315f,0,93,93,95,1,fourthree,,,,,,,,,,,,,,,,,,,,,,,,,,,,,,,,,,,,,,,,,,,,,,,,,,,,,,,,,,,,,,,,,,,,,,,,,,,,,,,,,,,,,,,,,,,,,,,,,,,,,,,,,,,,,,,,,,,,,,,,,,,,,,,,,,,,,,,,,,,,,,,,,,,,,,,,,,,,,
,,,,,,615b20797df87e1bdb2bca91,62c539cedeca570d4abc80cb,2022-07-06_09h32.31.625,Colour_Asymmetry_Pilot,2022.1.3,Win32,59.89099838,62c50e9c1127f2cd403a315f,0,94,94,150,1,fourtwo,,,,,,,,,,,,,,,,,,,,,,,,,,,,,,,,,,,,,,,,,,,,,,,,,,,,,,,,,,,,,,,,,,,,,,,,,,,,,,,,,,,,,,,,,,,,,,,,,,,,,,,,,,,,,,,,,,,,,,,,,,,,,,,,,,,,,,,,,,,,,,,,,,,,,,,,,,,,,
,,,,,,615b20797df87e1bdb2bca91,62c539cedeca570d4abc80cb,2022-07-06_09h32.31.625,Colour_Asymmetry_Pilot,2022.1.3,Win32,59.89099838,62c50e9c1127f2cd403a315f,0,95,95,64,1,onetwo,,,,,,,,,,,,,,,,,,,,,,,,,,,,,,,,,,,,,,,,,,,,,,,,,,,,,,,,,,,,,,,,,,,,,,,,,,,,,,,,,,,,,,,,,,,,,,,,,,,,,,,,,,,,,,,,,,,,,,,,,,,,,,,,,,,,,,,,,,,,,,,,,,,,,,,,,,,,,
,,,,,,615b20797df87e1bdb2bca91,62c539cedeca570d4abc80cb,2022-07-06_09h32.31.625,Colour_Asymmetry_Pilot,2022.1.3,Win32,59.89099838,62c50e9c1127f2cd403a315f,0,96,96,23,1,fourthree,,,,,,,,,,,,,,,,,,,,,,,,,,,,,,,,,,,,,,,,,,,,,,,,,,,,,,,,,,,,,,,,,,,,,,,,,,,,,,,,,,,,,,,,,,,,,,,,,,,,,,,,,,,,,,,,,,,,,,,,,,,,,,,,,,,,,,,,,,,,,,,,,,,,,,,,,,,,,
,,,,,,615b20797df87e1bdb2bca91,62c539cedeca570d4abc80cb,2022-07-06_09h32.31.625,Colour_Asymmetry_Pilot,2022.1.3,Win32,59.89099838,62c50e9c1127f2cd403a315f,0,97,97,154,1,twoone,,,,,,,,,,,,,,,,,,,,,,,,,,,,,,,,,,,,,,,,,,,,,,,,,,,,,,,,,,,,,,,,,,,,,,,,,,,,,,,,,,,,,,,,,,,,,,,,,,,,,,,,,,,,,,,,,,,,,,,,,,,,,,,,,,,,,,,,,,,,,,,,,,,,,,,,,,,,,
,,,,,,615b20797df87e1bdb2bca91,62c539cedeca570d4abc80cb,2022-07-06_09h32.31.625,Colour_Asymmetry_Pilot,2022.1.3,Win32,59.89099838,62c50e9c1127f2cd403a315f,0,98,98,3,1,twofour,,,,,,,,,,,,,,,,,,,,,,,,,,,,,,,,,,,,,,,,,,,,,,,,,,,,,,,,,,,,,,,,,,,,,,,,,,,,,,,,,,,,,,,,,,,,,,,,,,,,,,,,,,,,,,,,,,,,,,,,,,,,,,,,,,,,,,,,,,,,,,,,,,,,,,,,,,,,,
,,,,,,615b20797df87e1bdb2bca91,62c539cedeca570d4abc80cb,2022-07-06_09h32.31.625,Colour_Asymmetry_Pilot,2022.1.3,Win32,59.89099838,62c50e9c1127f2cd403a315f,0,99,99,111,1,fourthree,,,,,,,,,,,,,,,,,,,,,,,,,,,,,,,,,,,,,,,,,,,,,,,,,,,,,,,,,,,,,,,,,,,,,,,,,,,,,,,,,,,,,,,,,,,,,,,,,,,,,,,,,,,,,,,,,,,,,,,,,,,,,,,,,,,,,,,,,,,,,,,,,,,,,,,,,,,,,
,,,,,,615b20797df87e1bdb2bca91,62c539cedeca570d4abc80cb,2022-07-06_09h32.31.625,Colour_Asymmetry_Pilot,2022.1.3,Win32,59.89099838,62c50e9c1127f2cd403a315f,0,100,100,122,1,twoone,,,,,,,,,,,,,,,,,,,,,,,,,,,,,,,,,,,,,,,,,,,,,,,,,,,,,,,,,,,,,,,,,,,,,,,,,,,,,,,,,,,,,,,,,,,,,,,,,,,,,,,,,,,,,,,,,,,,,,,,,,,,,,,,,,,,,,,,,,,,,,,,,,,,,,,,,,,,,
,,,,,,615b20797df87e1bdb2bca91,62c539cedeca570d4abc80cb,2022-07-06_09h32.31.625,Colour_Asymmetry_Pilot,2022.1.3,Win32,59.89099838,62c50e9c1127f2cd403a315f,0,101,101,46,1,fourtwo,,,,,,,,,,,,,,,,,,,,,,,,,,,,,,,,,,,,,,,,,,,,,,,,,,,,,,,,,,,,,,,,,,,,,,,,,,,,,,,,,,,,,,,,,,,,,,,,,,,,,,,,,,,,,,,,,,,,,,,,,,,,,,,,,,,,,,,,,,,,,,,,,,,,,,,,,,,,,
,,,,,,615b20797df87e1bdb2bca91,62c539cedeca570d4abc80cb,2022-07-06_09h32.31.625,Colour_Asymmetry_Pilot,2022.1.3,Win32,59.89099838,62c50e9c1127f2cd403a315f,0,102,102,141,1,threefour,,,,,,,,,,,,,,,,,,,,,,,,,,,,,,,,,,,,,,,,,,,,,,,,,,,,,,,,,,,,,,,,,,,,,,,,,,,,,,,,,,,,,,,,,,,,,,,,,,,,,,,,,,,,,,,,,,,,,,,,,,,,,,,,,,,,,,,,,,,,,,,,,,,,,,,,,,,,,
,,,,,,615b20797df87e1bdb2bca91,62c539cedeca570d4abc80cb,2022-07-06_09h32.31.625,Colour_Asymmetry_Pilot,2022.1.3,Win32,59.89099838,62c50e9c1127f2cd403a315f,0,103,103,115,1,twofour,,,,,,,,,,,,,,,,,,,,,,,,,,,,,,,,,,,,,,,,,,,,,,,,,,,,,,,,,,,,,,,,,,,,,,,,,,,,,,,,,,,,,,,,,,,,,,,,,,,,,,,,,,,,,,,,,,,,,,,,,,,,,,,,,,,,,,,,,,,,,,,,,,,,,,,,,,,,,
,,,,,,615b20797df87e1bdb2bca91,62c539cedeca570d4abc80cb,2022-07-06_09h32.31.625,Colour_Asymmetry_Pilot,2022.1.3,Win32,59.89099838,62c50e9c1127f2cd403a315f,0,104,104,36,1,threeone,,,,,,,,,,,,,,,,,,,,,,,,,,,,,,,,,,,,,,,,,,,,,,,,,,,,,,,,,,,,,,,,,,,,,,,,,,,,,,,,,,,,,,,,,,,,,,,,,,,,,,,,,,,,,,,,,,,,,,,,,,,,,,,,,,,,,,,,,,,,,,,,,,,,,,,,,,,,,
,,,,,,615b20797df87e1bdb2bca91,62c539cedeca570d4abc80cb,2022-07-06_09h32.31.625,Colour_Asymmetry_Pilot,2022.1.3,Win32,59.89099838,62c50e9c1127f2cd403a315f,0,105,105,31,1,fourthree,,,,,,,,,,,,,,,,,,,,,,,,,,,,,,,,,,,,,,,,,,,,,,,,,,,,,,,,,,,,,,,,,,,,,,,,,,,,,,,,,,,,,,,,,,,,,,,,,,,,,,,,,,,,,,,,,,,,,,,,,,,,,,,,,,,,,,,,,,,,,,,,,,,,,,,,,,,,,
,,,,,,615b20797df87e1bdb2bca91,62c539cedeca570d4abc80cb,2022-07-06_09h32.31.625,Colour_Asymmetry_Pilot,2022.1.3,Win32,59.89099838,62c50e9c1127f2cd403a315f,0,106,106,51,1,twofour,,,,,,,,,,,,,,,,,,,,,,,,,,,,,,,,,,,,,,,,,,,,,,,,,,,,,,,,,,,,,,,,,,,,,,,,,,,,,,,,,,,,,,,,,,,,,,,,,,,,,,,,,,,,,,,,,,,,,,,,,,,,,,,,,,,,,,,,,,,,,,,,,,,,,,,,,,,,,
,,,,,,615b20797df87e1bdb2bca91,62c539cedeca570d4abc80cb,2022-07-06_09h32.31.625,Colour_Asymmetry_Pilot,2022.1.3,Win32,59.89099838,62c50e9c1127f2cd403a315f,0,107,107,121,1,onethree,,,,,,,,,,,,,,,,,,,,,,,,,,,,,,,,,,,,,,,,,,,,,,,,,,,,,,,,,,,,,,,,,,,,,,,,,,,,,,,,,,,,,,,,,,,,,,,,,,,,,,,,,,,,,,,,,,,,,,,,,,,,,,,,,,,,,,,,,,,,,,,,,,,,,,,,,,,,,
,,,,,,615b20797df87e1bdb2bca91,62c539cedeca570d4abc80cb,2022-07-06_09h32.31.625,Colour_Asymmetry_Pilot,2022.1.3,Win32,59.89099838,62c50e9c1127f2cd403a315f,0,108,108,9,1,onethree,,,,,,,,,,,,,,,,,,,,,,,,,,,,,,,,,,,,,,,,,,,,,,,,,,,,,,,,,,,,,,,,,,,,,,,,,,,,,,,,,,,,,,,,,,,,,,,,,,,,,,,,,,,,,,,,,,,,,,,,,,,,,,,,,,,,,,,,,,,,,,,,,,,,,,,,,,,,,
,,,,,,615b20797df87e1bdb2bca91,62c539cedeca570d4abc80cb,2022-07-06_09h32.31.625,Colour_Asymmetry_Pilot,2022.1.3,Win32,59.89099838,62c50e9c1127f2cd403a315f,0,109,109,1,1,onethree,,,,,,,,,,,,,,,,,,,,,,,,,,,,,,,,,,,,,,,,,,,,,,,,,,,,,,,,,,,,,,,,,,,,,,,,,,,,,,,,,,,,,,,,,,,,,,,,,,,,,,,,,,,,,,,,,,,,,,,,,,,,,,,,,,,,,,,,,,,,,,,,,,,,,,,,,,,,,
,,,,,,615b20797df87e1bdb2bca91,62c539cedeca570d4abc80cb,2022-07-06_09h32.31.625,Colour_Asymmetry_Pilot,2022.1.3,Win32,59.89099838,62c50e9c1127f2cd403a315f,0,110,110,118,1,fourtwo,,,,,,,,,,,,,,,,,,,,,,,,,,,,,,,,,,,,,,,,,,,,,,,,,,,,,,,,,,,,,,,,,,,,,,,,,,,,,,,,,,,,,,,,,,,,,,,,,,,,,,,,,,,,,,,,,,,,,,,,,,,,,,,,,,,,,,,,,,,,,,,,,,,,,,,,,,,,,
,,,,,,615b20797df87e1bdb2bca91,62c539cedeca570d4abc80cb,2022-07-06_09h32.31.625,Colour_Asymmetry_Pilot,2022.1.3,Win32,59.89099838,62c50e9c1127f2cd403a315f,0,111,111,45,1,threefour,,,,,,,,,,,,,,,,,,,,,,,,,,,,,,,,,,,,,,,,,,,,,,,,,,,,,,,,,,,,,,,,,,,,,,,,,,,,,,,,,,,,,,,,,,,,,,,,,,,,,,,,,,,,,,,,,,,,,,,,,,,,,,,,,,,,,,,,,,,,,,,,,,,,,,,,,,,,,
,,,,,,615b20797df87e1bdb2bca91,62c539cedeca570d4abc80cb,2022-07-06_09h32.31.625,Colour_Asymmetry_Pilot,2022.1.3,Win32,59.89099838,62c50e9c1127f2cd403a315f,0,112,112,143,1,fourthree,,,,,,,,,,,,,,,,,,,,,,,,,,,,,,,,,,,,,,,,,,,,,,,,,,,,,,,,,,,,,,,,,,,,,,,,,,,,,,,,,,,,,,,,,,,,,,,,,,,,,,,,,,,,,,,,,,,,,,,,,,,,,,,,,,,,,,,,,,,,,,,,,,,,,,,,,,,,,
,,,,,,615b20797df87e1bdb2bca91,62c539cedeca570d4abc80cb,2022-07-06_09h32.31.625,Colour_Asymmetry_Pilot,2022.1.3,Win32,59.89099838,62c50e9c1127f2cd403a315f,0,113,113,28,1,threeone,,,,,,,,,,,,,,,,,,,,,,,,,,,,,,,,,,,,,,,,,,,,,,,,,,,,,,,,,,,,,,,,,,,,,,,,,,,,,,,,,,,,,,,,,,,,,,,,,,,,,,,,,,,,,,,,,,,,,,,,,,,,,,,,,,,,,,,,,,,,,,,,,,,,,,,,,,,,,
,,,,,,615b20797df87e1bdb2bca91,62c539cedeca570d4abc80cb,2022-07-06_09h32.31.625,Colour_Asymmetry_Pilot,2022.1.3,Win32,59.89099838,62c50e9c1127f2cd403a315f,0,114,114,40,1,onetwo,,,,,,,,,,,,,,,,,,,,,,,,,,,,,,,,,,,,,,,,,,,,,,,,,,,,,,,,,,,,,,,,,,,,,,,,,,,,,,,,,,,,,,,,,,,,,,,,,,,,,,,,,,,,,,,,,,,,,,,,,,,,,,,,,,,,,,,,,,,,,,,,,,,,,,,,,,,,,
,,,,,,615b20797df87e1bdb2bca91,62c539cedeca570d4abc80cb,2022-07-06_09h32.31.625,Colour_Asymmetry_Pilot,2022.1.3,Win32,59.89099838,62c50e9c1127f2cd403a315f,0,115,115,73,1,onethree,,,,,,,,,,,,,,,,,,,,,,,,,,,,,,,,,,,,,,,,,,,,,,,,,,,,,,,,,,,,,,,,,,,,,,,,,,,,,,,,,,,,,,,,,,,,,,,,,,,,,,,,,,,,,,,,,,,,,,,,,,,,,,,,,,,,,,,,,,,,,,,,,,,,,,,,,,,,,
,,,,,,615b20797df87e1bdb2bca91,62c539cedeca570d4abc80cb,2022-07-06_09h32.31.625,Colour_Asymmetry_Pilot,2022.1.3,Win32,59.89099838,62c50e9c1127f2cd403a315f,0,116,116,106,1,twoone,,,,,,,,,,,,,,,,,,,,,,,,,,,,,,,,,,,,,,,,,,,,,,,,,,,,,,,,,,,,,,,,,,,,,,,,,,,,,,,,,,,,,,,,,,,,,,,,,,,,,,,,,,,,,,,,,,,,,,,,,,,,,,,,,,,,,,,,,,,,,,,,,,,,,,,,,,,,,
,,,,,,615b20797df87e1bdb2bca91,62c539cedeca570d4abc80cb,2022-07-06_09h32.31.625,Colour_Asymmetry_Pilot,2022.1.3,Win32,59.89099838,62c50e9c1127f2cd403a315f,0,117,117,116,1,threeone,,,,,,,,,,,,,,,,,,,,,,,,,,,,,,,,,,,,,,,,,,,,,,,,,,,,,,,,,,,,,,,,,,,,,,,,,,,,,,,,,,,,,,,,,,,,,,,,,,,,,,,,,,,,,,,,,,,,,,,,,,,,,,,,,,,,,,,,,,,,,,,,,,,,,,,,,,,,,
,,,,,,615b20797df87e1bdb2bca91,62c539cedeca570d4abc80cb,2022-07-06_09h32.31.625,Colour_Asymmetry_Pilot,2022.1.3,Win32,59.89099838,62c50e9c1127f2cd403a315f,0,118,118,119,1,fourthree,,,,,,,,,,,,,,,,,,,,,,,,,,,,,,,,,,,,,,,,,,,,,,,,,,,,,,,,,,,,,,,,,,,,,,,,,,,,,,,,,,,,,,,,,,,,,,,,,,,,,,,,,,,,,,,,,,,,,,,,,,,,,,,,,,,,,,,,,,,,,,,,,,,,,,,,,,,,,
,,,,,,615b20797df87e1bdb2bca91,62c539cedeca570d4abc80cb,2022-07-06_09h32.31.625,Colour_Asymmetry_Pilot,2022.1.3,Win32,59.89099838,62c50e9c1127f2cd403a315f,0,119,119,108,1,threeone,,,,,,,,,,,,,,,,,,,,,,,,,,,,,,,,,,,,,,,,,,,,,,,,,,,,,,,,,,,,,,,,,,,,,,,,,,,,,,,,,,,,,,,,,,,,,,,,,,,,,,,,,,,,,,,,,,,,,,,,,,,,,,,,,,,,,,,,,,,,,,,,,,,,,,,,,,,,,
,,,,,,615b20797df87e1bdb2bca91,62c539cedeca570d4abc80cb,2022-07-06_09h32.31.625,Colour_Asymmetry_Pilot,2022.1.3,Win32,59.89099838,62c50e9c1127f2cd403a315f,0,120,120,11,1,twofour,,,,,,,,,,,,,,,,,,,,,,,,,,,,,,,,,,,,,,,,,,,,,,,,,,,,,,,,,,,,,,,,,,,,,,,,,,,,,,,,,,,,,,,,,,,,,,,,,,,,,,,,,,,,,,,,,,,,,,,,,,,,,,,,,,,,,,,,,,,,,,,,,,,,,,,,,,,,,
,,,,,,615b20797df87e1bdb2bca91,62c539cedeca570d4abc80cb,2022-07-06_09h32.31.625,Colour_Asymmetry_Pilot,2022.1.3,Win32,59.89099838,62c50e9c1127f2cd403a315f,0,121,121,8,1,onetwo,,,,,,,,,,,,,,,,,,,,,,,,,,,,,,,,,,,,,,,,,,,,,,,,,,,,,,,,,,,,,,,,,,,,,,,,,,,,,,,,,,,,,,,,,,,,,,,,,,,,,,,,,,,,,,,,,,,,,,,,,,,,,,,,,,,,,,,,,,,,,,,,,,,,,,,,,,,,,
,,,,,,615b20797df87e1bdb2bca91,62c539cedeca570d4abc80cb,2022-07-06_09h32.31.625,Colour_Asymmetry_Pilot,2022.1.3,Win32,59.89099838,62c50e9c1127f2cd403a315f,0,122,122,93,1,threefour,,,,,,,,,,,,,,,,,,,,,,,,,,,,,,,,,,,,,,,,,,,,,,,,,,,,,,,,,,,,,,,,,,,,,,,,,,,,,,,,,,,,,,,,,,,,,,,,,,,,,,,,,,,,,,,,,,,,,,,,,,,,,,,,,,,,,,,,,,,,,,,,,,,,,,,,,,,,,
,,,,,,615b20797df87e1bdb2bca91,62c539cedeca570d4abc80cb,2022-07-06_09h32.31.625,Colour_Asymmetry_Pilot,2022.1.3,Win32,59.89099838,62c50e9c1127f2cd403a315f,0,123,123,124,1,threeone,,,,,,,,,,,,,,,,,,,,,,,,,,,,,,,,,,,,,,,,,,,,,,,,,,,,,,,,,,,,,,,,,,,,,,,,,,,,,,,,,,,,,,,,,,,,,,,,,,,,,,,,,,,,,,,,,,,,,,,,,,,,,,,,,,,,,,,,,,,,,,,,,,,,,,,,,,,,,
,,,,,,615b20797df87e1bdb2bca91,62c539cedeca570d4abc80cb,2022-07-06_09h32.31.625,Colour_Asymmetry_Pilot,2022.1.3,Win32,59.89099838,62c50e9c1127f2cd403a315f,0,124,124,70,1,fourtwo,,,,,,,,,,,,,,,,,,,,,,,,,,,,,,,,,,,,,,,,,,,,,,,,,,,,,,,,,,,,,,,,,,,,,,,,,,,,,,,,,,,,,,,,,,,,,,,,,,,,,,,,,,,,,,,,,,,,,,,,,,,,,,,,,,,,,,,,,,,,,,,,,,,,,,,,,,,,,
,,,,,,615b20797df87e1bdb2bca91,62c539cedeca570d4abc80cb,2022-07-06_09h32.31.625,Colour_Asymmetry_Pilot,2022.1.3,Win32,59.89099838,62c50e9c1127f2cd403a315f,0,125,125,43,1,twofour,,,,,,,,,,,,,,,,,,,,,,,,,,,,,,,,,,,,,,,,,,,,,,,,,,,,,,,,,,,,,,,,,,,,,,,,,,,,,,,,,,,,,,,,,,,,,,,,,,,,,,,,,,,,,,,,,,,,,,,,,,,,,,,,,,,,,,,,,,,,,,,,,,,,,,,,,,,,,
,,,,,,615b20797df87e1bdb2bca91,62c539cedeca570d4abc80cb,2022-07-06_09h32.31.625,Colour_Asymmetry_Pilot,2022.1.3,Win32,59.89099838,62c50e9c1127f2cd403a315f,0,126,126,60,1,threeone,,,,,,,,,,,,,,,,,,,,,,,,,,,,,,,,,,,,,,,,,,,,,,,,,,,,,,,,,,,,,,,,,,,,,,,,,,,,,,,,,,,,,,,,,,,,,,,,,,,,,,,,,,,,,,,,,,,,,,,,,,,,,,,,,,,,,,,,,,,,,,,,,,,,,,,,,,,,,
,,,,,,615b20797df87e1bdb2bca91,62c539cedeca570d4abc80cb,2022-07-06_09h32.31.625,Colour_Asymmetry_Pilot,2022.1.3,Win32,59.89099838,62c50e9c1127f2cd403a315f,0,127,127,128,1,onetwo,,,,,,,,,,,,,,,,,,,,,,,,,,,,,,,,,,,,,,,,,,,,,,,,,,,,,,,,,,,,,,,,,,,,,,,,,,,,,,,,,,,,,,,,,,,,,,,,,,,,,,,,,,,,,,,,,,,,,,,,,,,,,,,,,,,,,,,,,,,,,,,,,,,,,,,,,,,,,
,,,,,,615b20797df87e1bdb2bca91,62c539cedeca570d4abc80cb,2022-07-06_09h32.31.625,Colour_Asymmetry_Pilot,2022.1.3,Win32,59.89099838,62c50e9c1127f2cd403a315f,0,128,128,105,1,onethree,,,,,,,,,,,,,,,,,,,,,,,,,,,,,,,,,,,,,,,,,,,,,,,,,,,,,,,,,,,,,,,,,,,,,,,,,,,,,,,,,,,,,,,,,,,,,,,,,,,,,,,,,,,,,,,,,,,,,,,,,,,,,,,,,,,,,,,,,,,,,,,,,,,,,,,,,,,,,
,,,,,,615b20797df87e1bdb2bca91,62c539cedeca570d4abc80cb,2022-07-06_09h32.31.625,Colour_Asymmetry_Pilot,2022.1.3,Win32,59.89099838,62c50e9c1127f2cd403a315f,0,129,129,12,1,threeone,,,,,,,,,,,,,,,,,,,,,,,,,,,,,,,,,,,,,,,,,,,,,,,,,,,,,,,,,,,,,,,,,,,,,,,,,,,,,,,,,,,,,,,,,,,,,,,,,,,,,,,,,,,,,,,,,,,,,,,,,,,,,,,,,,,,,,,,,,,,,,,,,,,,,,,,,,,,,
,,,,,,615b20797df87e1bdb2bca91,62c539cedeca570d4abc80cb,2022-07-06_09h32.31.625,Colour_Asymmetry_Pilot,2022.1.3,Win32,59.89099838,62c50e9c1127f2cd403a315f,0,130,130,25,1,onethree,,,,,,,,,,,,,,,,,,,,,,,,,,,,,,,,,,,,,,,,,,,,,,,,,,,,,,,,,,,,,,,,,,,,,,,,,,,,,,,,,,,,,,,,,,,,,,,,,,,,,,,,,,,,,,,,,,,,,,,,,,,,,,,,,,,,,,,,,,,,,,,,,,,,,,,,,,,,,
,,,,,,615b20797df87e1bdb2bca91,62c539cedeca570d4abc80cb,2022-07-06_09h32.31.625,Colour_Asymmetry_Pilot,2022.1.3,Win32,59.89099838,62c50e9c1127f2cd403a315f,0,131,131,101,1,threefour,,,,,,,,,,,,,,,,,,,,,,,,,,,,,,,,,,,,,,,,,,,,,,,,,,,,,,,,,,,,,,,,,,,,,,,,,,,,,,,,,,,,,,,,,,,,,,,,,,,,,,,,,,,,,,,,,,,,,,,,,,,,,,,,,,,,,,,,,,,,,,,,,,,,,,,,,,,,,
,,,,,,615b20797df87e1bdb2bca91,62c539cedeca570d4abc80cb,2022-07-06_09h32.31.625,Colour_Asymmetry_Pilot,2022.1.3,Win32,59.89099838,62c50e9c1127f2cd403a315f,0,132,132,79,1,fourthree,,,,,,,,,,,,,,,,,,,,,,,,,,,,,,,,,,,,,,,,,,,,,,,,,,,,,,,,,,,,,,,,,,,,,,,,,,,,,,,,,,,,,,,,,,,,,,,,,,,,,,,,,,,,,,,,,,,,,,,,,,,,,,,,,,,,,,,,,,,,,,,,,,,,,,,,,,,,,
,,,,,,615b20797df87e1bdb2bca91,62c539cedeca570d4abc80cb,2022-07-06_09h32.31.625,Colour_Asymmetry_Pilot,2022.1.3,Win32,59.89099838,62c50e9c1127f2cd403a315f,0,133,133,127,1,fourthree,,,,,,,,,,,,,,,,,,,,,,,,,,,,,,,,,,,,,,,,,,,,,,,,,,,,,,,,,,,,,,,,,,,,,,,,,,,,,,,,,,,,,,,,,,,,,,,,,,,,,,,,,,,,,,,,,,,,,,,,,,,,,,,,,,,,,,,,,,,,,,,,,,,,,,,,,,,,,
,,,,,,615b20797df87e1bdb2bca91,62c539cedeca570d4abc80cb,2022-07-06_09h32.31.625,Colour_Asymmetry_Pilot,2022.1.3,Win32,59.89099838,62c50e9c1127f2cd403a315f,0,134,134,19,1,twofour,,,,,,,,,,,,,,,,,,,,,,,,,,,,,,,,,,,,,,,,,,,,,,,,,,,,,,,,,,,,,,,,,,,,,,,,,,,,,,,,,,,,,,,,,,,,,,,,,,,,,,,,,,,,,,,,,,,,,,,,,,,,,,,,,,,,,,,,,,,,,,,,,,,,,,,,,,,,,
,,,,,,615b20797df87e1bdb2bca91,62c539cedeca570d4abc80cb,2022-07-06_09h32.31.625,Colour_Asymmetry_Pilot,2022.1.3,Win32,59.89099838,62c50e9c1127f2cd403a315f,0,135,135,104,1,onetwo,,,,,,,,,,,,,,,,,,,,,,,,,,,,,,,,,,,,,,,,,,,,,,,,,,,,,,,,,,,,,,,,,,,,,,,,,,,,,,,,,,,,,,,,,,,,,,,,,,,,,,,,,,,,,,,,,,,,,,,,,,,,,,,,,,,,,,,,,,,,,,,,,,,,,,,,,,,,,
,,,,,,615b20797df87e1bdb2bca91,62c539cedeca570d4abc80cb,2022-07-06_09h32.31.625,Colour_Asymmetry_Pilot,2022.1.3,Win32,59.89099838,62c50e9c1127f2cd403a315f,0,136,136,144,1,onetwo,,,,,,,,,,,,,,,,,,,,,,,,,,,,,,,,,,,,,,,,,,,,,,,,,,,,,,,,,,,,,,,,,,,,,,,,,,,,,,,,,,,,,,,,,,,,,,,,,,,,,,,,,,,,,,,,,,,,,,,,,,,,,,,,,,,,,,,,,,,,,,,,,,,,,,,,,,,,,
,,,,,,615b20797df87e1bdb2bca91,62c539cedeca570d4abc80cb,2022-07-06_09h32.31.625,Colour_Asymmetry_Pilot,2022.1.3,Win32,59.89099838,62c50e9c1127f2cd403a315f,0,137,137,82,1,twoone,,,,,,,,,,,,,,,,,,,,,,,,,,,,,,,,,,,,,,,,,,,,,,,,,,,,,,,,,,,,,,,,,,,,,,,,,,,,,,,,,,,,,,,,,,,,,,,,,,,,,,,,,,,,,,,,,,,,,,,,,,,,,,,,,,,,,,,,,,,,,,,,,,,,,,,,,,,,,
,,,,,,615b20797df87e1bdb2bca91,62c539cedeca570d4abc80cb,2022-07-06_09h32.31.625,Colour_Asymmetry_Pilot,2022.1.3,Win32,59.89099838,62c50e9c1127f2cd403a315f,0,138,138,159,1,fourthree,,,,,,,,,,,,,,,,,,,,,,,,,,,,,,,,,,,,,,,,,,,,,,,,,,,,,,,,,,,,,,,,,,,,,,,,,,,,,,,,,,,,,,,,,,,,,,,,,,,,,,,,,,,,,,,,,,,,,,,,,,,,,,,,,,,,,,,,,,,,,,,,,,,,,,,,,,,,,
,,,,,,615b20797df87e1bdb2bca91,62c539cedeca570d4abc80cb,2022-07-06_09h32.31.625,Colour_Asymmetry_Pilot,2022.1.3,Win32,59.89099838,62c50e9c1127f2cd403a315f,0,139,139,66,1,twoone,,,,,,,,,,,,,,,,,,,,,,,,,,,,,,,,,,,,,,,,,,,,,,,,,,,,,,,,,,,,,,,,,,,,,,,,,,,,,,,,,,,,,,,,,,,,,,,,,,,,,,,,,,,,,,,,,,,,,,,,,,,,,,,,,,,,,,,,,,,,,,,,,,,,,,,,,,,,,
,,,,,,615b20797df87e1bdb2bca91,62c539cedeca570d4abc80cb,2022-07-06_09h32.31.625,Colour_Asymmetry_Pilot,2022.1.3,Win32,59.89099838,62c50e9c1127f2cd403a315f,0,140,140,76,1,threeone,,,,,,,,,,,,,,,,,,,,,,,,,,,,,,,,,,,,,,,,,,,,,,,,,,,,,,,,,,,,,,,,,,,,,,,,,,,,,,,,,,,,,,,,,,,,,,,,,,,,,,,,,,,,,,,,,,,,,,,,,,,,,,,,,,,,,,,,,,,,,,,,,,,,,,,,,,,,,
,,,,,,615b20797df87e1bdb2bca91,62c539cedeca570d4abc80cb,2022-07-06_09h32.31.625,Colour_Asymmetry_Pilot,2022.1.3,Win32,59.89099838,62c50e9c1127f2cd403a315f,0,141,141,69,1,threefour,,,,,,,,,,,,,,,,,,,,,,,,,,,,,,,,,,,,,,,,,,,,,,,,,,,,,,,,,,,,,,,,,,,,,,,,,,,,,,,,,,,,,,,,,,,,,,,,,,,,,,,,,,,,,,,,,,,,,,,,,,,,,,,,,,,,,,,,,,,,,,,,,,,,,,,,,,,,,
,,,,,,615b20797df87e1bdb2bca91,62c539cedeca570d4abc80cb,2022-07-06_09h32.31.625,Colour_Asymmetry_Pilot,2022.1.3,Win32,59.89099838,62c50e9c1127f2cd403a315f,0,142,142,114,1,twoone,,,,,,,,,,,,,,,,,,,,,,,,,,,,,,,,,,,,,,,,,,,,,,,,,,,,,,,,,,,,,,,,,,,,,,,,,,,,,,,,,,,,,,,,,,,,,,,,,,,,,,,,,,,,,,,,,,,,,,,,,,,,,,,,,,,,,,,,,,,,,,,,,,,,,,,,,,,,,
,,,,,,615b20797df87e1bdb2bca91,62c539cedeca570d4abc80cb,2022-07-06_09h32.31.625,Colour_Asymmetry_Pilot,2022.1.3,Win32,59.89099838,62c50e9c1127f2cd403a315f,0,143,143,54,1,fourtwo,,,,,,,,,,,,,,,,,,,,,,,,,,,,,,,,,,,,,,,,,,,,,,,,,,,,,,,,,,,,,,,,,,,,,,,,,,,,,,,,,,,,,,,,,,,,,,,,,,,,,,,,,,,,,,,,,,,,,,,,,,,,,,,,,,,,,,,,,,,,,,,,,,,,,,,,,,,,,
,,,,,,615b20797df87e1bdb2bca91,62c539cedeca570d4abc80cb,2022-07-06_09h32.31.625,Colour_Asymmetry_Pilot,2022.1.3,Win32,59.89099838,62c50e9c1127f2cd403a315f,0,144,144,13,1,threefour,,,,,,,,,,,,,,,,,,,,,,,,,,,,,,,,,,,,,,,,,,,,,,,,,,,,,,,,,,,,,,,,,,,,,,,,,,,,,,,,,,,,,,,,,,,,,,,,,,,,,,,,,,,,,,,,,,,,,,,,,,,,,,,,,,,,,,,,,,,,,,,,,,,,,,,,,,,,,
,,,,,,615b20797df87e1bdb2bca91,62c539cedeca570d4abc80cb,2022-07-06_09h32.31.625,Colour_Asymmetry_Pilot,2022.1.3,Win32,59.89099838,62c50e9c1127f2cd403a315f,0,145,145,125,1,threefour,,,,,,,,,,,,,,,,,,,,,,,,,,,,,,,,,,,,,,,,,,,,,,,,,,,,,,,,,,,,,,,,,,,,,,,,,,,,,,,,,,,,,,,,,,,,,,,,,,,,,,,,,,,,,,,,,,,,,,,,,,,,,,,,,,,,,,,,,,,,,,,,,,,,,,,,,,,,,
,,,,,,615b20797df87e1bdb2bca91,62c539cedeca570d4abc80cb,2022-07-06_09h32.31.625,Colour_Asymmetry_Pilot,2022.1.3,Win32,59.89099838,62c50e9c1127f2cd403a315f,0,146,146,110,1,fourtwo,,,,,,,,,,,,,,,,,,,,,,,,,,,,,,,,,,,,,,,,,,,,,,,,,,,,,,,,,,,,,,,,,,,,,,,,,,,,,,,,,,,,,,,,,,,,,,,,,,,,,,,,,,,,,,,,,,,,,,,,,,,,,,,,,,,,,,,,,,,,,,,,,,,,,,,,,,,,,
,,,,,,615b20797df87e1bdb2bca91,62c539cedeca570d4abc80cb,2022-07-06_09h32.31.625,Colour_Asymmetry_Pilot,2022.1.3,Win32,59.89099838,62c50e9c1127f2cd403a315f,0,147,147,35,1,twofour,,,,,,,,,,,,,,,,,,,,,,,,,,,,,,,,,,,,,,,,,,,,,,,,,,,,,,,,,,,,,,,,,,,,,,,,,,,,,,,,,,,,,,,,,,,,,,,,,,,,,,,,,,,,,,,,,,,,,,,,,,,,,,,,,,,,,,,,,,,,,,,,,,,,,,,,,,,,,
,,,,,,615b20797df87e1bdb2bca91,62c539cedeca570d4abc80cb,2022-07-06_09h32.31.625,Colour_Asymmetry_Pilot,2022.1.3,Win32,59.89099838,62c50e9c1127f2cd403a315f,0,148,148,91,1,twofour,,,,,,,,,,,,,,,,,,,,,,,,,,,,,,,,,,,,,,,,,,,,,,,,,,,,,,,,,,,,,,,,,,,,,,,,,,,,,,,,,,,,,,,,,,,,,,,,,,,,,,,,,,,,,,,,,,,,,,,,,,,,,,,,,,,,,,,,,,,,,,,,,,,,,,,,,,,,,
,,,,,,615b20797df87e1bdb2bca91,62c539cedeca570d4abc80cb,2022-07-06_09h32.31.625,Colour_Asymmetry_Pilot,2022.1.3,Win32,59.89099838,62c50e9c1127f2cd403a315f,0,149,149,22,1,fourtwo,,,,,,,,,,,,,,,,,,,,,,,,,,,,,,,,,,,,,,,,,,,,,,,,,,,,,,,,,,,,,,,,,,,,,,,,,,,,,,,,,,,,,,,,,,,,,,,,,,,,,,,,,,,,,,,,,,,,,,,,,,,,,,,,,,,,,,,,,,,,,,,,,,,,,,,,,,,,,
,,,,,,615b20797df87e1bdb2bca91,62c539cedeca570d4abc80cb,2022-07-06_09h32.31.625,Colour_Asymmetry_Pilot,2022.1.3,Win32,59.89099838,62c50e9c1127f2cd403a315f,0,150,150,68,1,threeone,,,,,,,,,,,,,,,,,,,,,,,,,,,,,,,,,,,,,,,,,,,,,,,,,,,,,,,,,,,,,,,,,,,,,,,,,,,,,,,,,,,,,,,,,,,,,,,,,,,,,,,,,,,,,,,,,,,,,,,,,,,,,,,,,,,,,,,,,,,,,,,,,,,,,,,,,,,,,
,,,,,,615b20797df87e1bdb2bca91,62c539cedeca570d4abc80cb,2022-07-06_09h32.31.625,Colour_Asymmetry_Pilot,2022.1.3,Win32,59.89099838,62c50e9c1127f2cd403a315f,0,151,151,17,1,onethree,,,,,,,,,,,,,,,,,,,,,,,,,,,,,,,,,,,,,,,,,,,,,,,,,,,,,,,,,,,,,,,,,,,,,,,,,,,,,,,,,,,,,,,,,,,,,,,,,,,,,,,,,,,,,,,,,,,,,,,,,,,,,,,,,,,,,,,,,,,,,,,,,,,,,,,,,,,,,
,,,,,,615b20797df87e1bdb2bca91,62c539cedeca570d4abc80cb,2022-07-06_09h32.31.625,Colour_Asymmetry_Pilot,2022.1.3,Win32,59.89099838,62c50e9c1127f2cd403a315f,0,152,152,149,1,threefour,,,,,,,,,,,,,,,,,,,,,,,,,,,,,,,,,,,,,,,,,,,,,,,,,,,,,,,,,,,,,,,,,,,,,,,,,,,,,,,,,,,,,,,,,,,,,,,,,,,,,,,,,,,,,,,,,,,,,,,,,,,,,,,,,,,,,,,,,,,,,,,,,,,,,,,,,,,,,
,,,,,,615b20797df87e1bdb2bca91,62c539cedeca570d4abc80cb,2022-07-06_09h32.31.625,Colour_Asymmetry_Pilot,2022.1.3,Win32,59.89099838,62c50e9c1127f2cd403a315f,0,153,153,155,1,twofour,,,,,,,,,,,,,,,,,,,,,,,,,,,,,,,,,,,,,,,,,,,,,,,,,,,,,,,,,,,,,,,,,,,,,,,,,,,,,,,,,,,,,,,,,,,,,,,,,,,,,,,,,,,,,,,,,,,,,,,,,,,,,,,,,,,,,,,,,,,,,,,,,,,,,,,,,,,,,
,,,,,,615b20797df87e1bdb2bca91,62c539cedeca570d4abc80cb,2022-07-06_09h32.31.625,Colour_Asymmetry_Pilot,2022.1.3,Win32,59.89099838,62c50e9c1127f2cd403a315f,0,154,154,44,1,threeone,,,,,,,,,,,,,,,,,,,,,,,,,,,,,,,,,,,,,,,,,,,,,,,,,,,,,,,,,,,,,,,,,,,,,,,,,,,,,,,,,,,,,,,,,,,,,,,,,,,,,,,,,,,,,,,,,,,,,,,,,,,,,,,,,,,,,,,,,,,,,,,,,,,,,,,,,,,,,
,,,,,,615b20797df87e1bdb2bca91,62c539cedeca570d4abc80cb,2022-07-06_09h32.31.625,Colour_Asymmetry_Pilot,2022.1.3,Win32,59.89099838,62c50e9c1127f2cd403a315f,0,155,155,7,1,fourthree,,,,,,,,,,,,,,,,,,,,,,,,,,,,,,,,,,,,,,,,,,,,,,,,,,,,,,,,,,,,,,,,,,,,,,,,,,,,,,,,,,,,,,,,,,,,,,,,,,,,,,,,,,,,,,,,,,,,,,,,,,,,,,,,,,,,,,,,,,,,,,,,,,,,,,,,,,,,,
,,,,,,615b20797df87e1bdb2bca91,62c539cedeca570d4abc80cb,2022-07-06_09h32.31.625,Colour_Asymmetry_Pilot,2022.1.3,Win32,59.89099838,62c50e9c1127f2cd403a315f,0,156,156,24,1,onetwo,,,,,,,,,,,,,,,,,,,,,,,,,,,,,,,,,,,,,,,,,,,,,,,,,,,,,,,,,,,,,,,,,,,,,,,,,,,,,,,,,,,,,,,,,,,,,,,,,,,,,,,,,,,,,,,,,,,,,,,,,,,,,,,,,,,,,,,,,,,,,,,,,,,,,,,,,,,,,
,,,,,,615b20797df87e1bdb2bca91,62c539cedeca570d4abc80cb,2022-07-06_09h32.31.625,Colour_Asymmetry_Pilot,2022.1.3,Win32,59.89099838,62c50e9c1127f2cd403a315f,0,157,157,29,1,threefour,,,,,,,,,,,,,,,,,,,,,,,,,,,,,,,,,,,,,,,,,,,,,,,,,,,,,,,,,,,,,,,,,,,,,,,,,,,,,,,,,,,,,,,,,,,,,,,,,,,,,,,,,,,,,,,,,,,,,,,,,,,,,,,,,,,,,,,,,,,,,,,,,,,,,,,,,,,,,
,,,,,,615b20797df87e1bdb2bca91,62c539cedeca570d4abc80cb,2022-07-06_09h32.31.625,Colour_Asymmetry_Pilot,2022.1.3,Win32,59.89099838,62c50e9c1127f2cd403a315f,0,158,158,131,1,twofour,,,,,,,,,,,,,,,,,,,,,,,,,,,,,,,,,,,,,,,,,,,,,,,,,,,,,,,,,,,,,,,,,,,,,,,,,,,,,,,,,,,,,,,,,,,,,,,,,,,,,,,,,,,,,,,,,,,,,,,,,,,,,,,,,,,,,,,,,,,,,,,,,,,,,,,,,,,,,
,,,,,,615b20797df87e1bdb2bca91,62c539cedeca570d4abc80cb,2022-07-06_09h32.31.625,Colour_Asymmetry_Pilot,2022.1.3,Win32,59.89099838,62c50e9c1127f2cd403a315f,0,159,159,32,1,onetwo,,,,,,,,,,,,,,,,,,,,,,,,,,,,,,,,,,,,,,,,,,,,,,,,,,,,,,,,,,,,,,,,,,,,,,,,,,,,,,,,,,,,,,,,,,,,,,,,,,,,,,,,,,,,,,,,,,,,,,,,,,,,,,,,,,,,,,,,,,,,,,,,,,,,,,,,,,,,,
,,,,,,615b20797df87e1bdb2bca91,62c539cedeca570d4abc80cb,2022-07-06_09h32.31.625,Colour_Asymmetry_Pilot,2022.1.3,Win32,59.89099838,62c50e9c1127f2cd403a315f,0,160,160,90,1,twoone,,,,,,,,,,,,,,,,,,,,,,,,,,,,,,,,,,,,,,,,,,,,,,,,,,,,,,,,,,,,,,,,,,,,,,,,,,,,,,,,,,,,,,,,,,,,,,,,,,,,,,,,,,,,,,,,,,,,,,,,,,,,,,,,,,,,,,,,,,,,,,,,,,,,,,,,,,,,,
,,,,,,615b20797df87e1bdb2bca91,62c539cedeca570d4abc80cb,2022-07-06_09h32.31.625,Colour_Asymmetry_Pilot,2022.1.3,Win32,59.89099838,62c50e9c1127f2cd403a315f,0,161,161,33,1,onethree,,,,,,,,,,,,,,,,,,,,,,,,,,,,,,,,,,,,,,,,,,,,,,,,,,,,,,,,,,,,,,,,,,,,,,,,,,,,,,,,,,,,,,,,,,,,,,,,,,,,,,,,,,,,,,,,,,,,,,,,,,,,,,,,,,,,,,,,,,,,,,,,,,,,,,,,,,,,,
,,,,,,615b20797df87e1bdb2bca91,62c539cedeca570d4abc80cb,2022-07-06_09h32.31.625,Colour_Asymmetry_Pilot,2022.1.3,Win32,59.89099838,62c50e9c1127f2cd403a315f,,,,,,,space,147.165,space,9.038,space,23.1553,space,5.7582,space,3.1026,space,6.8681,"[0.6625999999999999,0.4980000000000002,-0.357]",onethree,"[-0.24719999999999998,-0.0354000000000001,0.3175999999999999]",-3,5.5323,-66,43,1,0,0,response7disk_5,1,5,1,0,0,rectangle_8,1,5,1,0,0,4,1,5,1,0,0,0,0,0,0,1,,,,,,,,,,,,,,,,,,,,,,,,,,,,,,,,,,,,,,,,,,,,,,,,,,,,,,,,,,,,,,,,,,,,,,,,,,,,,,,,,,,,,,,,,,,,,,,,,,,,,,,,,,,,,,,,
,,,,,,615b20797df87e1bdb2bca91,62c539cedeca570d4abc80cb,2022-07-06_09h32.31.625,Colour_Asymmetry_Pilot,2022.1.3,Win32,59.89099838,62c50e9c1127f2cd403a315f,,,,,,,,,,,,,,,,,,,"[0.19199999999999995,0.18419999999999992,0.5136000000000001]",twofour,"[-0.6,0.16860000000000008,0.44300000000000006]",1,5.5284,33,-53,1,0,0,response3disk_5,-5,-5,1,0,0,rectangle_8,-5,-5,1,0,0,4,-5,-5,1,0,0,1,0,1,0,1,,,,,,,,,,,,,,,,,,,,,,,,,,,,,,,,,,,,,,,,,,,,,,,,,,,,,,,,,,,,,,,,,,,,,,,,,,,,,,,,,,,,,,,,,,,,,,,,,,,,,,,,,,,,,,,,
,,,,,,615b20797df87e1bdb2bca91,62c539cedeca570d4abc80cb,2022-07-06_09h32.31.625,Colour_Asymmetry_Pilot,2022.1.3,Win32,59.89099838,62c50e9c1127f2cd403a315f,,,,,,,,,,,,,,,,,,,"[0.09799999999999986,-0.24719999999999998,0.15280000000000005]",onetwo,"[-0.34920000000000007,-0.702,-0.5216]",-1,4.7054,-40,-75,1,0,0,response5disk_5,-1,-6,1,0,0,rectangle_8,43,91,1,0,0,4,5,-5,1,0,0,2,0,2,0,1,response1disk_7,7,rectangle_4,,,,,,,,,,,,,,,,,,,,,,,,,,,,,,,,,,,,,,,,,,,,,,,,,,,,,,,,,,,,,,,,,,,,,,,,,,,,,,,,,,,,,,,,,,,,,,,,,,,,,,,,,,,,,
,,,,,,615b20797df87e1bdb2bca91,62c539cedeca570d4abc80cb,2022-07-06_09h32.31.625,Colour_Asymmetry_Pilot,2022.1.3,Win32,59.89099838,62c50e9c1127f2cd403a315f,,,,,,,,,,,,,,,,,,,"[0.0351999999999999,0.41159999999999997,0.0038000000000000256]",fourthree,"[-0.30200000000000005,0.14500000000000002,0.2784]",-4,2.9035,-44,86,1,0,0,response7disk_5,-8,8,1,0,0,rectangle_8,-8,8,1,0,0,4,-8,8,1,0,0,3,0,3,0,1,,,,,,,,,,,,,,,,,,,,,,,,,,,,,,,,,,,,,,,,,,,,,,,,,,,,,,,,,,,,,,,,,,,,,,,,,,,,,,,,,,,,,,,,,,,,,,,,,,,,,,,,,,,,,,,,
,,,,,,615b20797df87e1bdb2bca91,62c539cedeca570d4abc80cb,2022-07-06_09h32.31.625,Colour_Asymmetry_Pilot,2022.1.3,Win32,59.89099838,62c50e9c1127f2cd403a315f,,,,,,,,,,,,,,,,,,,"[0.9763999999999999,0.30979999999999985,-0.6786]",onethree,"[0.7018,0.7176,0.6155999999999999]",-4,2.6252,-31,91,1,0,0,response7disk_5,8,7,1,0,0,rectangle_8,8,7,1,0,0,4,8,7,1,0,0,4,0,4,0,1,,,,,,,,,,,,,,,,,,,,,,,,,,,,,,,,,,,,,,,,,,,,,,,,,,,,,,,,,,,,,,,,,,,,,,,,,,,,,,,,,,,,,,,,,,,,,,,,,,,,,,,,,,,,,,,,
,,,,,,615b20797df87e1bdb2bca91,62c539cedeca570d4abc80cb,2022-07-06_09h32.31.625,Colour_Asymmetry_Pilot,2022.1.3,Win32,59.89099838,62c50e9c1127f2cd403a315f,,,,,,,,,,,,,,,,,,,"[0.09799999999999986,-0.24719999999999998,0.15280000000000005]",onetwo,"[-0.6942,-0.7648,-0.12959999999999994]",-2,2.17,-82,-37,1,0,0,response5disk_5,-12,1,1,0,0,rectangle_8,-12,1,1,0,0,4,-12,1,1,0,0,5,0,5,0,1,,,,,,,,,,,,,,,,,,,,,,,,,,,,,,,,,,,,,,,,,,,,,,,,,,,,,,,,,,,,,,,,,,,,,,,,,,,,,,,,,,,,,,,,,,,,,,,,,,,,,,,,,,,,,,,,
,,,,,,615b20797df87e1bdb2bca91,62c539cedeca570d4abc80cb,2022-07-06_09h32.31.625,Colour_Asymmetry_Pilot,2022.1.3,Win32,59.89099838,62c50e9c1127f2cd403a315f,,,,,,,,,,,,,,,,,,,"[-0.4668,-0.8746,-0.2942]",onethree,"[-0.7412000000000001,-0.08239999999999992,-0.6864]",-4,1.003,-34,95,1,0,0,response7disk_5,2,4,1,0,0,rectangle_8,2,4,1,0,0,4,2,4,1,0,0,6,0,6,0,1,,,,,,,,,,,,,,,,,,,,,,,,,,,,,,,,,,,,,,,,,,,,,,,,,,,,,,,,,,,,,,,,,,,,,,,,,,,,,,,,,,,,,,,,,,,,,,,,,,,,,,,,,,,,,,,,
,,,,,,615b20797df87e1bdb2bca91,62c539cedeca570d4abc80cb,2022-07-06_09h32.31.625,Colour_Asymmetry_Pilot,2022.1.3,Win32,59.89099838,62c50e9c1127f2cd403a315f,,,,,,,,,,,,,,,,,,,,fourthree,,-1,3.5225,,,,,,,,,,,,,,,,,,,,,,,,,,,,,,,,space,79.1512,"[0.4196,0.4665999999999999,0.3568]","[-0.2942,-0.24719999999999998,-0.357]",-46,-89,1,0,0,response5disk,-2,7,1,0,0,rectangle,-2,7,1,0,0,,3,0.005,0,-2,7,1,0,0,0,0,0,158,1,77,second,,,,,,,,,,,,,,,,,,,,,,,,,,,,,,,,,,,,,,,,,,,,,,,,,,,,,,,,,,,,,,,,,,,,,,,,
,,,,,,615b20797df87e1bdb2bca91,62c539cedeca570d4abc80cb,2022-07-06_09h32.31.625,Colour_Asymmetry_Pilot,2022.1.3,Win32,59.89099838,62c50e9c1127f2cd403a315f,,,,,,,,,,,,,,,,,,,,fourtwo,,-3,2.3204,,,,,,,,,,,,,,,,,,,,,,,,,,,,,,,,,,"[-0.6706000000000001,-0.6157999999999999,-0.6786]","[-0.9688,-0.4902000000000001,-0.12159999999999993]",-82,55,1,0,0,response7disk,-5,3,1,0,0,rectangle,-5,3,1,0,0,,2,0.0032,0,-5,3,1,0,0,0,1,1,68,1,68,first,,,,,,,,,,,,,,,,,,,,,,,,,,,,,,,,,,,,,,,,,,,,,,,,,,,,,,,,,,,,,,,,,,,,,,,,
,,,,,,615b20797df87e1bdb2bca91,62c539cedeca570d4abc80cb,2022-07-06_09h32.31.625,Colour_Asymmetry_Pilot,2022.1.3,Win32,59.89099838,62c50e9c1127f2cd403a315f,,,,,,,,,,,,,,,,,,,,onetwo,,-4,0.9781,,,,,,,,,,,,,,,,,,,,,,,,,,,,,,,,,,"[-0.4668,-0.8746,-0.2942]","[-0.050999999999999934,-0.6706000000000001,-0.804]",-40,69,1,0,0,response7disk,10,-9,1,0,0,rectangle,10,-9,1,0,0,,2,0.0006,0,10,-9,1,0,0,0,2,2,59,1,59,first,,,,,,,,,,,,,,,,,,,,,,,,,,,,,,,,,,,,,,,,,,,,,,,,,,,,,,,,,,,,,,,,,,,,,,,,
,,,,,,615b20797df87e1bdb2bca91,62c539cedeca570d4abc80cb,2022-07-06_09h32.31.625,Colour_Asymmetry_Pilot,2022.1.3,Win32,59.89099838,62c50e9c1127f2cd403a315f,,,,,,,,,,,,,,,,,,,,onetwo,,-4,1.0703,,,,,,,,,,,,,,,,,,,,,,,,,,,,,,,,,,"[0.9372,0.20779999999999998,0.2704]","[-0.9688,-0.7412000000000001,-0.4902000000000001]",-43,84,1,0,0,response7disk,3,-5,1,0,0,rectangle,3,-5,1,0,0,,2,0.0016,0,3,-5,1,0,0,0,3,3,107,1,26,second,,,,,,,,,,,,,,,,,,,,,,,,,,,,,,,,,,,,,,,,,,,,,,,,,,,,,,,,,,,,,,,,,,,,,,,,
,,,,,,615b20797df87e1bdb2bca91,62c539cedeca570d4abc80cb,2022-07-06_09h32.31.625,Colour_Asymmetry_Pilot,2022.1.3,Win32,59.89099838,62c50e9c1127f2cd403a315f,,,,,,,,,,,,,,,,,,,,threeone,,2,1.9041,,,,,,,,,,,,,,,,,,,,,,,,,,,,,,,,,,"[-0.9688,-0.4902000000000001,-0.12159999999999993]","[-0.38039999999999996,-0.4276,-0.1452]",75,-51,1,0,0,response3disk,12,1,1,0,0,rectangle,83,40,1,0,0,3,3,4.7347,1,0,4,1,0,0,0,4,4,97,1,16,second,response1disk_3,rectangle,,,,,,,,,,,,,,,,,,,,,,,,,,,,,,,,,,,,,,,,,,,,,,,,,,,,,,,,,,,,,,,,,,,,,,
,,,,,,615b20797df87e1bdb2bca91,62c539cedeca570d4abc80cb,2022-07-06_09h32.31.625,Colour_Asymmetry_Pilot,2022.1.3,Win32,59.89099838,62c50e9c1127f2cd403a315f,,,,,,,,,,,,,,,,,,,,onethree,,-2,1.5015,,,,,,,,,,,,,,,,,,,,,,,,,,,,,,,,,,"[0.0351999999999999,0.41159999999999997,0.0038000000000000256]","[-0.6,0.16860000000000008,0.44300000000000006]",-67,-40,1,0,0,response5disk,-9,-1,1,0,0,rectangle,34,-70,1,0,0,1,1,3.2257,1,6,-6,1,0,0,0,5,5,55,1,55,first,response3disk_3,rectangle,,,,,,,,,,,,,,,,,,,,,,,,,,,,,,,,,,,,,,,,,,,,,,,,,,,,,,,,,,,,,,,,,,,,,,
,,,,,,615b20797df87e1bdb2bca91,62c539cedeca570d4abc80cb,2022-07-06_09h32.31.625,Colour_Asymmetry_Pilot,2022.1.3,Win32,59.89099838,62c50e9c1127f2cd403a315f,,,,,,,,,,,,,,,,,,,,twoone,,-2,2.5569,,,,,,,,,,,,,,,,,,,,,,,,,,,,,,,,,,"[0.8274000000000001,-0.5844,-0.9452]","[0.3881999999999999,-0.23939999999999995,-0.05040000000000011]",-98,-44,1,0,0,response5disk,11,0,1,0,0,rectangle,11,0,1,0,0,1,3,0.0076,0,11,0,1,0,0,0,6,6,146,1,65,second,,,,,,,,,,,,,,,,,,,,,,,,,,,,,,,,,,,,,,,,,,,,,,,,,,,,,,,,,,,,,,,,,,,,,,,,
,,,,,,615b20797df87e1bdb2bca91,62c539cedeca570d4abc80cb,2022-07-06_09h32.31.625,Colour_Asymmetry_Pilot,2022.1.3,Win32,59.89099838,62c50e9c1127f2cd403a315f,,,,,,,,,,,,,,,,,,,,onethree,,-3,1.4877,,,,,,,,,,,,,,,,,,,,,,,,,,,,,,,,,,"[-0.01980000000000004,-0.5138,-0.38039999999999996]","[-0.9688,-0.7412000000000001,-0.4902000000000001]",-78,45,1,0,0,response7disk,14,3,1,0,0,rectangle,14,3,1,0,0,1,1,0.0029,0,14,3,1,0,0,0,7,7,8,1,8,first,,,,,,,,,,,,,,,,,,,,,,,,,,,,,,,,,,,,,,,,,,,,,,,,,,,,,,,,,,,,,,,,,,,,,,,,
,,,,,,615b20797df87e1bdb2bca91,62c539cedeca570d4abc80cb,2022-07-06_09h32.31.625,Colour_Asymmetry_Pilot,2022.1.3,Win32,59.89099838,62c50e9c1127f2cd403a315f,,,,,,,,,,,,,,,,,,,,fourthree,,-1,1.317,,,,,,,,,,,,,,,,,,,,,,,,,,,,,,,,,,"[0.7018,0.7176,0.6155999999999999]","[0.40379999999999994,0.09000000000000008,0.44300000000000006]",-28,-82,1,0,0,response5disk,-9,3,1,0,0,rectangle,-9,3,1,0,0,1,2,0.0032,0,-9,3,1,0,0,0,8,8,64,1,64,first,,,,,,,,,,,,,,,,,,,,,,,,,,,,,,,,,,,,,,,,,,,,,,,,,,,,,,,,,,,,,,,,,,,,,,,,
,,,,,,615b20797df87e1bdb2bca91,62c539cedeca570d4abc80cb,2022-07-06_09h32.31.625,Colour_Asymmetry_Pilot,2022.1.3,Win32,59.89099838,62c50e9c1127f2cd403a315f,,,,,,,,,,,,,,,,,,,,onetwo,,-4,0.8513,,,,,,,,,,,,,,,,,,,,,,,,,,,,,,,,,,"[-0.17659999999999998,-0.2864,-0.8354]","[-0.10599999999999998,-0.15300000000000002,0.15280000000000005]",-50,83,1,0,0,response7disk,-22,4,1,0,0,rectangle,-22,4,1,0,0,1,2,0.0009,0,-22,4,1,0,0,0,9,9,106,1,25,second,,,,,,,,,,,,,,,,,,,,,,,,,,,,,,,,,,,,,,,,,,,,,,,,,,,,,,,,,,,,,,,,,,,,,,,,
,,,,,,615b20797df87e1bdb2bca91,62c539cedeca570d4abc80cb,2022-07-06_09h32.31.625,Colour_Asymmetry_Pilot,2022.1.3,Win32,59.89099838,62c50e9c1127f2cd403a315f,,,,,,,,,,,,,,,,,,,,onetwo,,-4,0.696,,,,,,,,,,,,,,,,,,,,,,,,,,,,,,,,,,"[0.9842,0.7409999999999999,-0.6628000000000001]","[-0.5452,-0.608,0.2470000000000001]",-35,93,1,0,0,response7disk,1,1,1,0,0,rectangle,1,1,1,0,0,1,2,0.0018,0,1,1,1,0,0,0,10,10,29,1,29,first,,,,,,,,,,,,,,,,,,,,,,,,,,,,,,,,,,,,,,,,,,,,,,,,,,,,,,,,,,,,,,,,,,,,,,,,
,,,,,,615b20797df87e1bdb2bca91,62c539cedeca570d4abc80cb,2022-07-06_09h32.31.625,Colour_Asymmetry_Pilot,2022.1.3,Win32,59.89099838,62c50e9c1127f2cd403a315f,,,,,,,,,,,,,,,,,,,,threefour,,-4,2.2522,,,,,,,,,,,,,,,,,,,,,,,,,,,,,,,,,,"[-0.0040000000000000036,0.02739999999999987,-0.08239999999999992]","[0.7018,0.7176,0.6155999999999999]",-33,104,1,0,0,response7disk,-4,8,1,0,0,rectangle,-4,8,1,0,0,1,2,0.0032,0,-4,8,1,0,0,0,11,11,90,1,9,second,,,,,,,,,,,,,,,,,,,,,,,,,,,,,,,,,,,,,,,,,,,,,,,,,,,,,,,,,,,,,,,,,,,,,,,,
,,,,,,615b20797df87e1bdb2bca91,62c539cedeca570d4abc80cb,2022-07-06_09h32.31.625,Colour_Asymmetry_Pilot,2022.1.3,Win32,59.89099838,62c50e9c1127f2cd403a315f,,,,,,,,,,,,,,,,,,,,twoone,,-1,1.6194,,,,,,,,,,,,,,,,,,,,,,,,,,,,,,,,,,"[-0.9296,-0.12959999999999994,-0.043199999999999905]","[-0.9688,-0.38039999999999996,-0.41979999999999995]",-31,-76,1,0,0,response5disk,0,0,1,0,0,rectangle,0,0,1,0,0,1,2,0.0006,0,0,0,1,0,0,0,12,12,45,1,45,first,,,,,,,,,,,,,,,,,,,,,,,,,,,,,,,,,,,,,,,,,,,,,,,,,,,,,,,,,,,,,,,,,,,,,,,,
,,,,,,615b20797df87e1bdb2bca91,62c539cedeca570d4abc80cb,2022-07-06_09h32.31.625,Colour_Asymmetry_Pilot,2022.1.3,Win32,59.89099838,62c50e9c1127f2cd403a315f,,,,,,,,,,,,,,,,,,,,threefour,,-4,0.8706,,,,,,,,,,,,,,,,,,,,,,,,,,,,,,,,,,"[-0.050999999999999934,-0.6706000000000001,-0.804]","[-0.4668,-0.8746,-0.2942]",-31,84,1,0,0,response7disk,7,1,1,0,0,rectangle,7,1,1,0,0,1,2,0.0008,0,7,1,1,0,0,0,13,13,140,1,59,second,,,,,,,,,,,,,,,,,,,,,,,,,,,,,,,,,,,,,,,,,,,,,,,,,,,,,,,,,,,,,,,,,,,,,,,,
,,,,,,615b20797df87e1bdb2bca91,62c539cedeca570d4abc80cb,2022-07-06_09h32.31.625,Colour_Asymmetry_Pilot,2022.1.3,Win32,59.89099838,62c50e9c1127f2cd403a315f,,,,,,,,,,,,,,,,,,,,threeone,,-1,2.1213,,,,,,,,,,,,,,,,,,,,,,,,,,,,,,,,,,"[0.8115999999999999,-0.0040000000000000036,-0.09819999999999995]","[0.9763999999999999,0.8588,-0.05900000000000005]",-38,-79,1,0,0,response5disk,5,-5,1,0,0,rectangle,5,-5,1,0,0,1,1,0.0025,0,5,-5,1,0,0,0,14,14,135,1,54,second,,,,,,,,,,,,,,,,,,,,,,,,,,,,,,,,,,,,,,,,,,,,,,,,,,,,,,,,,,,,,,,,,,,,,,,,
,,,,,,615b20797df87e1bdb2bca91,62c539cedeca570d4abc80cb,2022-07-06_09h32.31.625,Colour_Asymmetry_Pilot,2022.1.3,Win32,59.89099838,62c50e9c1127f2cd403a315f,,,,,,,,,,,,,,,,,,,,onethree,,1,2.4677,,,,,,,,,,,,,,,,,,,,,,,,,,,,,,,,,,"[0.2862,0.7802,0.3568]","[-0.4746,-0.0354000000000001,0.5449999999999999]",27,-85,1,0,0,response3disk,13,3,1,0,0,rectangle,13,3,1,0,0,1,3,0.0032,0,13,3,1,0,0,0,15,15,81,1,0,second,,,,,,,,,,,,,,,,,,,,,,,,,,,,,,,,,,,,,,,,,,,,,,,,,,,,,,,,,,,,,,,,,,,,,,,,
,,,,,,615b20797df87e1bdb2bca91,62c539cedeca570d4abc80cb,2022-07-06_09h32.31.625,Colour_Asymmetry_Pilot,2022.1.3,Win32,59.89099838,62c50e9c1127f2cd403a315f,,,,,,,,,,,,,,,,,,,,threeone,,-3,1.1371,,,,,,,,,,,,,,,,,,,,,,,,,,,,,,,,,,"[0.6547999999999998,-0.043199999999999905,-0.011800000000000033]","[-0.26280000000000003,-0.2158,-0.3256]",-90,46,1,0,0,response7disk,-14,4,1,0,0,rectangle,-14,4,1,0,0,1,1,0.0028,0,-14,4,1,0,0,0,16,16,155,1,74,second,,,,,,,,,,,,,,,,,,,,,,,,,,,,,,,,,,,,,,,,,,,,,,,,,,,,,,,,,,,,,,,,,,,,,,,,
,,,,,,615b20797df87e1bdb2bca91,62c539cedeca570d4abc80cb,2022-07-06_09h32.31.625,Colour_Asymmetry_Pilot,2022.1.3,Win32,59.89099838,62c50e9c1127f2cd403a315f,,,,,,,,,,,,,,,,,,,,fourtwo,,-4,0.687,,,,,,,,,,,,,,,,,,,,,,,,,,,,,,,,,,"[0.3881999999999999,-0.23939999999999995,-0.05040000000000011]","[-0.6235999999999999,-0.6786,-0.08239999999999992]",-27,76,1,0,0,response7disk,2,7,1,0,0,rectangle,2,7,1,0,0,1,1,0.0013,0,2,7,1,0,0,0,17,17,147,1,66,second,,,,,,,,,,,,,,,,,,,,,,,,,,,,,,,,,,,,,,,,,,,,,,,,,,,,,,,,,,,,,,,,,,,,,,,,
