trials.thisRepN,trials.thisTrialN,trials.thisN,trials.thisIndex,trials.ran,Colourcodes,participant,session,date,expName,psychopyVersion,OS,frameRate,study_id,trials_4.thisRepN,trials_4.thisTrialN,trials_4.thisN,trials_4.thisIndex,trials_4.ran,StimulusPos,key_resp.keys,key_resp.rt,key_resp_2.keys,key_resp_2.rt,key_resp_15.keys,key_resp_15.rt,key_resp_17.keys,key_resp_17.rt,key_resp_9.keys,key_resp_9.rt,key_resp_10.keys,key_resp_10.rt,Circle1_col,Ecc,Circle2_col,similarity,response_time,mouse_5.x,mouse_5.y,mouse_5.leftButton,mouse_5.midButton,mouse_5.rightButton,mouse_5.clicked_name,mouse_10.x,mouse_10.y,mouse_10.leftButton,mouse_10.midButton,mouse_10.rightButton,mouse_10.clicked_name,mouse_7.x,mouse_7.y,mouse_7.leftButton,mouse_7.midButton,mouse_7.rightButton,catchnumberprac,mouse_6.x,mouse_6.y,mouse_6.leftButton,mouse_6.midButton,mouse_6.rightButton,duringprac.thisRepN,duringprac.thisTrialN,duringprac.thisN,duringprac.thisIndex,duringprac.ran,mouse_7.clicked_name,catchprac,mouse_6.clicked_name,key_resp_22.keys,key_resp_22.rt,Circle1_colour,Circle2_colour,mouse.x,mouse.y,mouse.leftButton,mouse.midButton,mouse.rightButton,mouse.clicked_name,mouse_2.x,mouse_2.y,mouse_2.leftButton,mouse_2.midButton,mouse_2.rightButton,mouse_2.clicked_name,mouse_3.x,mouse_3.y,mouse_3.leftButton,mouse_3.midButton,mouse_3.rightButton,catchresponse,catchnumber,response_time_catch,Catch,mouse_11.x,mouse_11.y,mouse_11.leftButton,mouse_11.midButton,mouse_11.rightButton,trials_2.thisRepN,trials_2.thisTrialN,trials_2.thisN,trials_2.thisIndex,trials_2.ran,Colourpair,Temporder,mouse_3.clicked_name,mouse_11.clicked_name,trials_3.thisRepN,trials_3.thisTrialN,trials_3.thisN,trials_3.thisIndex,trials_3.ran,key_resp_instr_Ishi.keys,key_resp_instr_Ishi.rt,Ishi_trial_keyresp.keys,Ishi_textbox.text,Ishi_mouse.x,Ishi_mouse.y,Ishi_mouse.leftButton,Ishi_mouse.midButton,Ishi_mouse.rightButton,Ishi_mouse.clicked_name,Ishi_loop.thisRepN,Ishi_loop.thisTrialN,Ishi_loop.thisN,Ishi_loop.thisIndex,Ishi_loop.ran,imageaddress,textbox.text,mouse_4.x,mouse_4.y,mouse_4.leftButton,mouse_4.midButton,mouse_4.rightButton,mouse_4.clicked_name,textbox_2.text,mouse_8.x,mouse_8.y,mouse_8.leftButton,mouse_8.midButton,mouse_8.rightButton,mouse_8.clicked_name,textbox_3.text,mouse_9.x,mouse_9.y,mouse_9.leftButton,mouse_9.midButton,mouse_9.rightButton,mouse_9.clicked_name,textbox_4.text,mouse_12.x,mouse_12.y,mouse_12.leftButton,mouse_12.midButton,mouse_12.rightButton,mouse_12.clicked_name,textbox_5.text,mouse_13.x,mouse_13.y,mouse_13.leftButton,mouse_13.midButton,mouse_13.rightButton,mouse_13.clicked_name,textbox_6.text,mouse_14.x,mouse_14.y,mouse_14.leftButton,mouse_14.midButton,mouse_14.rightButton,mouse_14.clicked_name,textbox_7.text,mouse_15.x,mouse_15.y,mouse_15.leftButton,mouse_15.midButton,mouse_15.rightButton,mouse_15.clicked_name
0,0,0,76,1,,6133586c82c52424d8d5ed6a,62c53ac9bfdcea14d8b4879c,2022-07-06_09h35.11.575,Colour_Asymmetry_Pilot,2022.1.3,Win32,60.33546519,62c50e9c1127f2cd403a315f,,,,,,,,,,,,,,,,,,,,,,,,,,,,,,,,,,,,,,,,,,,,,,,,,,,,,,,,,,,,,,,,,,,,,,,,,,,,,,,,,,,,,,,,,,,,,,,,,,,,,,,,,,,,,,,,,,,,,,,,,,,,,,,,,,,,,,,,,,,,,,,,,,,,,,,,,,,,,,,,,,,
0,1,1,52,1,,6133586c82c52424d8d5ed6a,62c53ac9bfdcea14d8b4879c,2022-07-06_09h35.11.575,Colour_Asymmetry_Pilot,2022.1.3,Win32,60.33546519,62c50e9c1127f2cd403a315f,,,,,,,,,,,,,,,,,,,,,,,,,,,,,,,,,,,,,,,,,,,,,,,,,,,,,,,,,,,,,,,,,,,,,,,,,,,,,,,,,,,,,,,,,,,,,,,,,,,,,,,,,,,,,,,,,,,,,,,,,,,,,,,,,,,,,,,,,,,,,,,,,,,,,,,,,,,,,,,,,,,
0,2,2,91,1,,6133586c82c52424d8d5ed6a,62c53ac9bfdcea14d8b4879c,2022-07-06_09h35.11.575,Colour_Asymmetry_Pilot,2022.1.3,Win32,60.33546519,62c50e9c1127f2cd403a315f,,,,,,,,,,,,,,,,,,,,,,,,,,,,,,,,,,,,,,,,,,,,,,,,,,,,,,,,,,,,,,,,,,,,,,,,,,,,,,,,,,,,,,,,,,,,,,,,,,,,,,,,,,,,,,,,,,,,,,,,,,,,,,,,,,,,,,,,,,,,,,,,,,,,,,,,,,,,,,,,,,,
0,3,3,23,1,,6133586c82c52424d8d5ed6a,62c53ac9bfdcea14d8b4879c,2022-07-06_09h35.11.575,Colour_Asymmetry_Pilot,2022.1.3,Win32,60.33546519,62c50e9c1127f2cd403a315f,,,,,,,,,,,,,,,,,,,,,,,,,,,,,,,,,,,,,,,,,,,,,,,,,,,,,,,,,,,,,,,,,,,,,,,,,,,,,,,,,,,,,,,,,,,,,,,,,,,,,,,,,,,,,,,,,,,,,,,,,,,,,,,,,,,,,,,,,,,,,,,,,,,,,,,,,,,,,,,,,,,
0,4,4,44,1,,6133586c82c52424d8d5ed6a,62c53ac9bfdcea14d8b4879c,2022-07-06_09h35.11.575,Colour_Asymmetry_Pilot,2022.1.3,Win32,60.33546519,62c50e9c1127f2cd403a315f,,,,,,,,,,,,,,,,,,,,,,,,,,,,,,,,,,,,,,,,,,,,,,,,,,,,,,,,,,,,,,,,,,,,,,,,,,,,,,,,,,,,,,,,,,,,,,,,,,,,,,,,,,,,,,,,,,,,,,,,,,,,,,,,,,,,,,,,,,,,,,,,,,,,,,,,,,,,,,,,,,,
0,5,5,50,1,,6133586c82c52424d8d5ed6a,62c53ac9bfdcea14d8b4879c,2022-07-06_09h35.11.575,Colour_Asymmetry_Pilot,2022.1.3,Win32,60.33546519,62c50e9c1127f2cd403a315f,,,,,,,,,,,,,,,,,,,,,,,,,,,,,,,,,,,,,,,,,,,,,,,,,,,,,,,,,,,,,,,,,,,,,,,,,,,,,,,,,,,,,,,,,,,,,,,,,,,,,,,,,,,,,,,,,,,,,,,,,,,,,,,,,,,,,,,,,,,,,,,,,,,,,,,,,,,,,,,,,,,
0,6,6,74,1,,6133586c82c52424d8d5ed6a,62c53ac9bfdcea14d8b4879c,2022-07-06_09h35.11.575,Colour_Asymmetry_Pilot,2022.1.3,Win32,60.33546519,62c50e9c1127f2cd403a315f,,,,,,,,,,,,,,,,,,,,,,,,,,,,,,,,,,,,,,,,,,,,,,,,,,,,,,,,,,,,,,,,,,,,,,,,,,,,,,,,,,,,,,,,,,,,,,,,,,,,,,,,,,,,,,,,,,,,,,,,,,,,,,,,,,,,,,,,,,,,,,,,,,,,,,,,,,,,,,,,,,,
0,7,7,75,1,,6133586c82c52424d8d5ed6a,62c53ac9bfdcea14d8b4879c,2022-07-06_09h35.11.575,Colour_Asymmetry_Pilot,2022.1.3,Win32,60.33546519,62c50e9c1127f2cd403a315f,,,,,,,,,,,,,,,,,,,,,,,,,,,,,,,,,,,,,,,,,,,,,,,,,,,,,,,,,,,,,,,,,,,,,,,,,,,,,,,,,,,,,,,,,,,,,,,,,,,,,,,,,,,,,,,,,,,,,,,,,,,,,,,,,,,,,,,,,,,,,,,,,,,,,,,,,,,,,,,,,,,
0,8,8,66,1,,6133586c82c52424d8d5ed6a,62c53ac9bfdcea14d8b4879c,2022-07-06_09h35.11.575,Colour_Asymmetry_Pilot,2022.1.3,Win32,60.33546519,62c50e9c1127f2cd403a315f,,,,,,,,,,,,,,,,,,,,,,,,,,,,,,,,,,,,,,,,,,,,,,,,,,,,,,,,,,,,,,,,,,,,,,,,,,,,,,,,,,,,,,,,,,,,,,,,,,,,,,,,,,,,,,,,,,,,,,,,,,,,,,,,,,,,,,,,,,,,,,,,,,,,,,,,,,,,,,,,,,,
0,9,9,39,1,,6133586c82c52424d8d5ed6a,62c53ac9bfdcea14d8b4879c,2022-07-06_09h35.11.575,Colour_Asymmetry_Pilot,2022.1.3,Win32,60.33546519,62c50e9c1127f2cd403a315f,,,,,,,,,,,,,,,,,,,,,,,,,,,,,,,,,,,,,,,,,,,,,,,,,,,,,,,,,,,,,,,,,,,,,,,,,,,,,,,,,,,,,,,,,,,,,,,,,,,,,,,,,,,,,,,,,,,,,,,,,,,,,,,,,,,,,,,,,,,,,,,,,,,,,,,,,,,,,,,,,,,
0,10,10,63,1,,6133586c82c52424d8d5ed6a,62c53ac9bfdcea14d8b4879c,2022-07-06_09h35.11.575,Colour_Asymmetry_Pilot,2022.1.3,Win32,60.33546519,62c50e9c1127f2cd403a315f,,,,,,,,,,,,,,,,,,,,,,,,,,,,,,,,,,,,,,,,,,,,,,,,,,,,,,,,,,,,,,,,,,,,,,,,,,,,,,,,,,,,,,,,,,,,,,,,,,,,,,,,,,,,,,,,,,,,,,,,,,,,,,,,,,,,,,,,,,,,,,,,,,,,,,,,,,,,,,,,,,,
0,11,11,0,1,,6133586c82c52424d8d5ed6a,62c53ac9bfdcea14d8b4879c,2022-07-06_09h35.11.575,Colour_Asymmetry_Pilot,2022.1.3,Win32,60.33546519,62c50e9c1127f2cd403a315f,,,,,,,,,,,,,,,,,,,,,,,,,,,,,,,,,,,,,,,,,,,,,,,,,,,,,,,,,,,,,,,,,,,,,,,,,,,,,,,,,,,,,,,,,,,,,,,,,,,,,,,,,,,,,,,,,,,,,,,,,,,,,,,,,,,,,,,,,,,,,,,,,,,,,,,,,,,,,,,,,,,
0,12,12,67,1,,6133586c82c52424d8d5ed6a,62c53ac9bfdcea14d8b4879c,2022-07-06_09h35.11.575,Colour_Asymmetry_Pilot,2022.1.3,Win32,60.33546519,62c50e9c1127f2cd403a315f,,,,,,,,,,,,,,,,,,,,,,,,,,,,,,,,,,,,,,,,,,,,,,,,,,,,,,,,,,,,,,,,,,,,,,,,,,,,,,,,,,,,,,,,,,,,,,,,,,,,,,,,,,,,,,,,,,,,,,,,,,,,,,,,,,,,,,,,,,,,,,,,,,,,,,,,,,,,,,,,,,,
0,13,13,90,1,,6133586c82c52424d8d5ed6a,62c53ac9bfdcea14d8b4879c,2022-07-06_09h35.11.575,Colour_Asymmetry_Pilot,2022.1.3,Win32,60.33546519,62c50e9c1127f2cd403a315f,,,,,,,,,,,,,,,,,,,,,,,,,,,,,,,,,,,,,,,,,,,,,,,,,,,,,,,,,,,,,,,,,,,,,,,,,,,,,,,,,,,,,,,,,,,,,,,,,,,,,,,,,,,,,,,,,,,,,,,,,,,,,,,,,,,,,,,,,,,,,,,,,,,,,,,,,,,,,,,,,,,
0,14,14,89,1,,6133586c82c52424d8d5ed6a,62c53ac9bfdcea14d8b4879c,2022-07-06_09h35.11.575,Colour_Asymmetry_Pilot,2022.1.3,Win32,60.33546519,62c50e9c1127f2cd403a315f,,,,,,,,,,,,,,,,,,,,,,,,,,,,,,,,,,,,,,,,,,,,,,,,,,,,,,,,,,,,,,,,,,,,,,,,,,,,,,,,,,,,,,,,,,,,,,,,,,,,,,,,,,,,,,,,,,,,,,,,,,,,,,,,,,,,,,,,,,,,,,,,,,,,,,,,,,,,,,,,,,,
0,15,15,24,1,,6133586c82c52424d8d5ed6a,62c53ac9bfdcea14d8b4879c,2022-07-06_09h35.11.575,Colour_Asymmetry_Pilot,2022.1.3,Win32,60.33546519,62c50e9c1127f2cd403a315f,,,,,,,,,,,,,,,,,,,,,,,,,,,,,,,,,,,,,,,,,,,,,,,,,,,,,,,,,,,,,,,,,,,,,,,,,,,,,,,,,,,,,,,,,,,,,,,,,,,,,,,,,,,,,,,,,,,,,,,,,,,,,,,,,,,,,,,,,,,,,,,,,,,,,,,,,,,,,,,,,,,
0,16,16,59,1,,6133586c82c52424d8d5ed6a,62c53ac9bfdcea14d8b4879c,2022-07-06_09h35.11.575,Colour_Asymmetry_Pilot,2022.1.3,Win32,60.33546519,62c50e9c1127f2cd403a315f,,,,,,,,,,,,,,,,,,,,,,,,,,,,,,,,,,,,,,,,,,,,,,,,,,,,,,,,,,,,,,,,,,,,,,,,,,,,,,,,,,,,,,,,,,,,,,,,,,,,,,,,,,,,,,,,,,,,,,,,,,,,,,,,,,,,,,,,,,,,,,,,,,,,,,,,,,,,,,,,,,,
0,17,17,1,1,,6133586c82c52424d8d5ed6a,62c53ac9bfdcea14d8b4879c,2022-07-06_09h35.11.575,Colour_Asymmetry_Pilot,2022.1.3,Win32,60.33546519,62c50e9c1127f2cd403a315f,,,,,,,,,,,,,,,,,,,,,,,,,,,,,,,,,,,,,,,,,,,,,,,,,,,,,,,,,,,,,,,,,,,,,,,,,,,,,,,,,,,,,,,,,,,,,,,,,,,,,,,,,,,,,,,,,,,,,,,,,,,,,,,,,,,,,,,,,,,,,,,,,,,,,,,,,,,,,,,,,,,
0,18,18,37,1,,6133586c82c52424d8d5ed6a,62c53ac9bfdcea14d8b4879c,2022-07-06_09h35.11.575,Colour_Asymmetry_Pilot,2022.1.3,Win32,60.33546519,62c50e9c1127f2cd403a315f,,,,,,,,,,,,,,,,,,,,,,,,,,,,,,,,,,,,,,,,,,,,,,,,,,,,,,,,,,,,,,,,,,,,,,,,,,,,,,,,,,,,,,,,,,,,,,,,,,,,,,,,,,,,,,,,,,,,,,,,,,,,,,,,,,,,,,,,,,,,,,,,,,,,,,,,,,,,,,,,,,,
0,19,19,33,1,,6133586c82c52424d8d5ed6a,62c53ac9bfdcea14d8b4879c,2022-07-06_09h35.11.575,Colour_Asymmetry_Pilot,2022.1.3,Win32,60.33546519,62c50e9c1127f2cd403a315f,,,,,,,,,,,,,,,,,,,,,,,,,,,,,,,,,,,,,,,,,,,,,,,,,,,,,,,,,,,,,,,,,,,,,,,,,,,,,,,,,,,,,,,,,,,,,,,,,,,,,,,,,,,,,,,,,,,,,,,,,,,,,,,,,,,,,,,,,,,,,,,,,,,,,,,,,,,,,,,,,,,
0,20,20,65,1,,6133586c82c52424d8d5ed6a,62c53ac9bfdcea14d8b4879c,2022-07-06_09h35.11.575,Colour_Asymmetry_Pilot,2022.1.3,Win32,60.33546519,62c50e9c1127f2cd403a315f,,,,,,,,,,,,,,,,,,,,,,,,,,,,,,,,,,,,,,,,,,,,,,,,,,,,,,,,,,,,,,,,,,,,,,,,,,,,,,,,,,,,,,,,,,,,,,,,,,,,,,,,,,,,,,,,,,,,,,,,,,,,,,,,,,,,,,,,,,,,,,,,,,,,,,,,,,,,,,,,,,,
0,21,21,85,1,,6133586c82c52424d8d5ed6a,62c53ac9bfdcea14d8b4879c,2022-07-06_09h35.11.575,Colour_Asymmetry_Pilot,2022.1.3,Win32,60.33546519,62c50e9c1127f2cd403a315f,,,,,,,,,,,,,,,,,,,,,,,,,,,,,,,,,,,,,,,,,,,,,,,,,,,,,,,,,,,,,,,,,,,,,,,,,,,,,,,,,,,,,,,,,,,,,,,,,,,,,,,,,,,,,,,,,,,,,,,,,,,,,,,,,,,,,,,,,,,,,,,,,,,,,,,,,,,,,,,,,,,
0,22,22,31,1,,6133586c82c52424d8d5ed6a,62c53ac9bfdcea14d8b4879c,2022-07-06_09h35.11.575,Colour_Asymmetry_Pilot,2022.1.3,Win32,60.33546519,62c50e9c1127f2cd403a315f,,,,,,,,,,,,,,,,,,,,,,,,,,,,,,,,,,,,,,,,,,,,,,,,,,,,,,,,,,,,,,,,,,,,,,,,,,,,,,,,,,,,,,,,,,,,,,,,,,,,,,,,,,,,,,,,,,,,,,,,,,,,,,,,,,,,,,,,,,,,,,,,,,,,,,,,,,,,,,,,,,,
0,23,23,38,1,,6133586c82c52424d8d5ed6a,62c53ac9bfdcea14d8b4879c,2022-07-06_09h35.11.575,Colour_Asymmetry_Pilot,2022.1.3,Win32,60.33546519,62c50e9c1127f2cd403a315f,,,,,,,,,,,,,,,,,,,,,,,,,,,,,,,,,,,,,,,,,,,,,,,,,,,,,,,,,,,,,,,,,,,,,,,,,,,,,,,,,,,,,,,,,,,,,,,,,,,,,,,,,,,,,,,,,,,,,,,,,,,,,,,,,,,,,,,,,,,,,,,,,,,,,,,,,,,,,,,,,,,
0,24,24,69,1,,6133586c82c52424d8d5ed6a,62c53ac9bfdcea14d8b4879c,2022-07-06_09h35.11.575,Colour_Asymmetry_Pilot,2022.1.3,Win32,60.33546519,62c50e9c1127f2cd403a315f,,,,,,,,,,,,,,,,,,,,,,,,,,,,,,,,,,,,,,,,,,,,,,,,,,,,,,,,,,,,,,,,,,,,,,,,,,,,,,,,,,,,,,,,,,,,,,,,,,,,,,,,,,,,,,,,,,,,,,,,,,,,,,,,,,,,,,,,,,,,,,,,,,,,,,,,,,,,,,,,,,,
0,25,25,88,1,,6133586c82c52424d8d5ed6a,62c53ac9bfdcea14d8b4879c,2022-07-06_09h35.11.575,Colour_Asymmetry_Pilot,2022.1.3,Win32,60.33546519,62c50e9c1127f2cd403a315f,,,,,,,,,,,,,,,,,,,,,,,,,,,,,,,,,,,,,,,,,,,,,,,,,,,,,,,,,,,,,,,,,,,,,,,,,,,,,,,,,,,,,,,,,,,,,,,,,,,,,,,,,,,,,,,,,,,,,,,,,,,,,,,,,,,,,,,,,,,,,,,,,,,,,,,,,,,,,,,,,,,
0,26,26,80,1,,6133586c82c52424d8d5ed6a,62c53ac9bfdcea14d8b4879c,2022-07-06_09h35.11.575,Colour_Asymmetry_Pilot,2022.1.3,Win32,60.33546519,62c50e9c1127f2cd403a315f,,,,,,,,,,,,,,,,,,,,,,,,,,,,,,,,,,,,,,,,,,,,,,,,,,,,,,,,,,,,,,,,,,,,,,,,,,,,,,,,,,,,,,,,,,,,,,,,,,,,,,,,,,,,,,,,,,,,,,,,,,,,,,,,,,,,,,,,,,,,,,,,,,,,,,,,,,,,,,,,,,,
0,27,27,21,1,,6133586c82c52424d8d5ed6a,62c53ac9bfdcea14d8b4879c,2022-07-06_09h35.11.575,Colour_Asymmetry_Pilot,2022.1.3,Win32,60.33546519,62c50e9c1127f2cd403a315f,,,,,,,,,,,,,,,,,,,,,,,,,,,,,,,,,,,,,,,,,,,,,,,,,,,,,,,,,,,,,,,,,,,,,,,,,,,,,,,,,,,,,,,,,,,,,,,,,,,,,,,,,,,,,,,,,,,,,,,,,,,,,,,,,,,,,,,,,,,,,,,,,,,,,,,,,,,,,,,,,,,
0,28,28,32,1,,6133586c82c52424d8d5ed6a,62c53ac9bfdcea14d8b4879c,2022-07-06_09h35.11.575,Colour_Asymmetry_Pilot,2022.1.3,Win32,60.33546519,62c50e9c1127f2cd403a315f,,,,,,,,,,,,,,,,,,,,,,,,,,,,,,,,,,,,,,,,,,,,,,,,,,,,,,,,,,,,,,,,,,,,,,,,,,,,,,,,,,,,,,,,,,,,,,,,,,,,,,,,,,,,,,,,,,,,,,,,,,,,,,,,,,,,,,,,,,,,,,,,,,,,,,,,,,,,,,,,,,,
0,29,29,87,1,,6133586c82c52424d8d5ed6a,62c53ac9bfdcea14d8b4879c,2022-07-06_09h35.11.575,Colour_Asymmetry_Pilot,2022.1.3,Win32,60.33546519,62c50e9c1127f2cd403a315f,,,,,,,,,,,,,,,,,,,,,,,,,,,,,,,,,,,,,,,,,,,,,,,,,,,,,,,,,,,,,,,,,,,,,,,,,,,,,,,,,,,,,,,,,,,,,,,,,,,,,,,,,,,,,,,,,,,,,,,,,,,,,,,,,,,,,,,,,,,,,,,,,,,,,,,,,,,,,,,,,,,
0,30,30,41,1,,6133586c82c52424d8d5ed6a,62c53ac9bfdcea14d8b4879c,2022-07-06_09h35.11.575,Colour_Asymmetry_Pilot,2022.1.3,Win32,60.33546519,62c50e9c1127f2cd403a315f,,,,,,,,,,,,,,,,,,,,,,,,,,,,,,,,,,,,,,,,,,,,,,,,,,,,,,,,,,,,,,,,,,,,,,,,,,,,,,,,,,,,,,,,,,,,,,,,,,,,,,,,,,,,,,,,,,,,,,,,,,,,,,,,,,,,,,,,,,,,,,,,,,,,,,,,,,,,,,,,,,,
0,31,31,54,1,,6133586c82c52424d8d5ed6a,62c53ac9bfdcea14d8b4879c,2022-07-06_09h35.11.575,Colour_Asymmetry_Pilot,2022.1.3,Win32,60.33546519,62c50e9c1127f2cd403a315f,,,,,,,,,,,,,,,,,,,,,,,,,,,,,,,,,,,,,,,,,,,,,,,,,,,,,,,,,,,,,,,,,,,,,,,,,,,,,,,,,,,,,,,,,,,,,,,,,,,,,,,,,,,,,,,,,,,,,,,,,,,,,,,,,,,,,,,,,,,,,,,,,,,,,,,,,,,,,,,,,,,
0,32,32,27,1,,6133586c82c52424d8d5ed6a,62c53ac9bfdcea14d8b4879c,2022-07-06_09h35.11.575,Colour_Asymmetry_Pilot,2022.1.3,Win32,60.33546519,62c50e9c1127f2cd403a315f,,,,,,,,,,,,,,,,,,,,,,,,,,,,,,,,,,,,,,,,,,,,,,,,,,,,,,,,,,,,,,,,,,,,,,,,,,,,,,,,,,,,,,,,,,,,,,,,,,,,,,,,,,,,,,,,,,,,,,,,,,,,,,,,,,,,,,,,,,,,,,,,,,,,,,,,,,,,,,,,,,,
0,33,33,49,1,,6133586c82c52424d8d5ed6a,62c53ac9bfdcea14d8b4879c,2022-07-06_09h35.11.575,Colour_Asymmetry_Pilot,2022.1.3,Win32,60.33546519,62c50e9c1127f2cd403a315f,,,,,,,,,,,,,,,,,,,,,,,,,,,,,,,,,,,,,,,,,,,,,,,,,,,,,,,,,,,,,,,,,,,,,,,,,,,,,,,,,,,,,,,,,,,,,,,,,,,,,,,,,,,,,,,,,,,,,,,,,,,,,,,,,,,,,,,,,,,,,,,,,,,,,,,,,,,,,,,,,,,
0,34,34,26,1,,6133586c82c52424d8d5ed6a,62c53ac9bfdcea14d8b4879c,2022-07-06_09h35.11.575,Colour_Asymmetry_Pilot,2022.1.3,Win32,60.33546519,62c50e9c1127f2cd403a315f,,,,,,,,,,,,,,,,,,,,,,,,,,,,,,,,,,,,,,,,,,,,,,,,,,,,,,,,,,,,,,,,,,,,,,,,,,,,,,,,,,,,,,,,,,,,,,,,,,,,,,,,,,,,,,,,,,,,,,,,,,,,,,,,,,,,,,,,,,,,,,,,,,,,,,,,,,,,,,,,,,,
0,35,35,13,1,,6133586c82c52424d8d5ed6a,62c53ac9bfdcea14d8b4879c,2022-07-06_09h35.11.575,Colour_Asymmetry_Pilot,2022.1.3,Win32,60.33546519,62c50e9c1127f2cd403a315f,,,,,,,,,,,,,,,,,,,,,,,,,,,,,,,,,,,,,,,,,,,,,,,,,,,,,,,,,,,,,,,,,,,,,,,,,,,,,,,,,,,,,,,,,,,,,,,,,,,,,,,,,,,,,,,,,,,,,,,,,,,,,,,,,,,,,,,,,,,,,,,,,,,,,,,,,,,,,,,,,,,
0,36,36,58,1,,6133586c82c52424d8d5ed6a,62c53ac9bfdcea14d8b4879c,2022-07-06_09h35.11.575,Colour_Asymmetry_Pilot,2022.1.3,Win32,60.33546519,62c50e9c1127f2cd403a315f,,,,,,,,,,,,,,,,,,,,,,,,,,,,,,,,,,,,,,,,,,,,,,,,,,,,,,,,,,,,,,,,,,,,,,,,,,,,,,,,,,,,,,,,,,,,,,,,,,,,,,,,,,,,,,,,,,,,,,,,,,,,,,,,,,,,,,,,,,,,,,,,,,,,,,,,,,,,,,,,,,,
0,37,37,83,1,,6133586c82c52424d8d5ed6a,62c53ac9bfdcea14d8b4879c,2022-07-06_09h35.11.575,Colour_Asymmetry_Pilot,2022.1.3,Win32,60.33546519,62c50e9c1127f2cd403a315f,,,,,,,,,,,,,,,,,,,,,,,,,,,,,,,,,,,,,,,,,,,,,,,,,,,,,,,,,,,,,,,,,,,,,,,,,,,,,,,,,,,,,,,,,,,,,,,,,,,,,,,,,,,,,,,,,,,,,,,,,,,,,,,,,,,,,,,,,,,,,,,,,,,,,,,,,,,,,,,,,,,
0,38,38,5,1,,6133586c82c52424d8d5ed6a,62c53ac9bfdcea14d8b4879c,2022-07-06_09h35.11.575,Colour_Asymmetry_Pilot,2022.1.3,Win32,60.33546519,62c50e9c1127f2cd403a315f,,,,,,,,,,,,,,,,,,,,,,,,,,,,,,,,,,,,,,,,,,,,,,,,,,,,,,,,,,,,,,,,,,,,,,,,,,,,,,,,,,,,,,,,,,,,,,,,,,,,,,,,,,,,,,,,,,,,,,,,,,,,,,,,,,,,,,,,,,,,,,,,,,,,,,,,,,,,,,,,,,,
0,39,39,36,1,,6133586c82c52424d8d5ed6a,62c53ac9bfdcea14d8b4879c,2022-07-06_09h35.11.575,Colour_Asymmetry_Pilot,2022.1.3,Win32,60.33546519,62c50e9c1127f2cd403a315f,,,,,,,,,,,,,,,,,,,,,,,,,,,,,,,,,,,,,,,,,,,,,,,,,,,,,,,,,,,,,,,,,,,,,,,,,,,,,,,,,,,,,,,,,,,,,,,,,,,,,,,,,,,,,,,,,,,,,,,,,,,,,,,,,,,,,,,,,,,,,,,,,,,,,,,,,,,,,,,,,,,
0,40,40,79,1,,6133586c82c52424d8d5ed6a,62c53ac9bfdcea14d8b4879c,2022-07-06_09h35.11.575,Colour_Asymmetry_Pilot,2022.1.3,Win32,60.33546519,62c50e9c1127f2cd403a315f,,,,,,,,,,,,,,,,,,,,,,,,,,,,,,,,,,,,,,,,,,,,,,,,,,,,,,,,,,,,,,,,,,,,,,,,,,,,,,,,,,,,,,,,,,,,,,,,,,,,,,,,,,,,,,,,,,,,,,,,,,,,,,,,,,,,,,,,,,,,,,,,,,,,,,,,,,,,,,,,,,,
0,41,41,15,1,,6133586c82c52424d8d5ed6a,62c53ac9bfdcea14d8b4879c,2022-07-06_09h35.11.575,Colour_Asymmetry_Pilot,2022.1.3,Win32,60.33546519,62c50e9c1127f2cd403a315f,,,,,,,,,,,,,,,,,,,,,,,,,,,,,,,,,,,,,,,,,,,,,,,,,,,,,,,,,,,,,,,,,,,,,,,,,,,,,,,,,,,,,,,,,,,,,,,,,,,,,,,,,,,,,,,,,,,,,,,,,,,,,,,,,,,,,,,,,,,,,,,,,,,,,,,,,,,,,,,,,,,
0,42,42,48,1,,6133586c82c52424d8d5ed6a,62c53ac9bfdcea14d8b4879c,2022-07-06_09h35.11.575,Colour_Asymmetry_Pilot,2022.1.3,Win32,60.33546519,62c50e9c1127f2cd403a315f,,,,,,,,,,,,,,,,,,,,,,,,,,,,,,,,,,,,,,,,,,,,,,,,,,,,,,,,,,,,,,,,,,,,,,,,,,,,,,,,,,,,,,,,,,,,,,,,,,,,,,,,,,,,,,,,,,,,,,,,,,,,,,,,,,,,,,,,,,,,,,,,,,,,,,,,,,,,,,,,,,,
0,43,43,64,1,,6133586c82c52424d8d5ed6a,62c53ac9bfdcea14d8b4879c,2022-07-06_09h35.11.575,Colour_Asymmetry_Pilot,2022.1.3,Win32,60.33546519,62c50e9c1127f2cd403a315f,,,,,,,,,,,,,,,,,,,,,,,,,,,,,,,,,,,,,,,,,,,,,,,,,,,,,,,,,,,,,,,,,,,,,,,,,,,,,,,,,,,,,,,,,,,,,,,,,,,,,,,,,,,,,,,,,,,,,,,,,,,,,,,,,,,,,,,,,,,,,,,,,,,,,,,,,,,,,,,,,,,
0,44,44,43,1,,6133586c82c52424d8d5ed6a,62c53ac9bfdcea14d8b4879c,2022-07-06_09h35.11.575,Colour_Asymmetry_Pilot,2022.1.3,Win32,60.33546519,62c50e9c1127f2cd403a315f,,,,,,,,,,,,,,,,,,,,,,,,,,,,,,,,,,,,,,,,,,,,,,,,,,,,,,,,,,,,,,,,,,,,,,,,,,,,,,,,,,,,,,,,,,,,,,,,,,,,,,,,,,,,,,,,,,,,,,,,,,,,,,,,,,,,,,,,,,,,,,,,,,,,,,,,,,,,,,,,,,,
0,45,45,20,1,,6133586c82c52424d8d5ed6a,62c53ac9bfdcea14d8b4879c,2022-07-06_09h35.11.575,Colour_Asymmetry_Pilot,2022.1.3,Win32,60.33546519,62c50e9c1127f2cd403a315f,,,,,,,,,,,,,,,,,,,,,,,,,,,,,,,,,,,,,,,,,,,,,,,,,,,,,,,,,,,,,,,,,,,,,,,,,,,,,,,,,,,,,,,,,,,,,,,,,,,,,,,,,,,,,,,,,,,,,,,,,,,,,,,,,,,,,,,,,,,,,,,,,,,,,,,,,,,,,,,,,,,
0,46,46,30,1,,6133586c82c52424d8d5ed6a,62c53ac9bfdcea14d8b4879c,2022-07-06_09h35.11.575,Colour_Asymmetry_Pilot,2022.1.3,Win32,60.33546519,62c50e9c1127f2cd403a315f,,,,,,,,,,,,,,,,,,,,,,,,,,,,,,,,,,,,,,,,,,,,,,,,,,,,,,,,,,,,,,,,,,,,,,,,,,,,,,,,,,,,,,,,,,,,,,,,,,,,,,,,,,,,,,,,,,,,,,,,,,,,,,,,,,,,,,,,,,,,,,,,,,,,,,,,,,,,,,,,,,,
0,47,47,17,1,,6133586c82c52424d8d5ed6a,62c53ac9bfdcea14d8b4879c,2022-07-06_09h35.11.575,Colour_Asymmetry_Pilot,2022.1.3,Win32,60.33546519,62c50e9c1127f2cd403a315f,,,,,,,,,,,,,,,,,,,,,,,,,,,,,,,,,,,,,,,,,,,,,,,,,,,,,,,,,,,,,,,,,,,,,,,,,,,,,,,,,,,,,,,,,,,,,,,,,,,,,,,,,,,,,,,,,,,,,,,,,,,,,,,,,,,,,,,,,,,,,,,,,,,,,,,,,,,,,,,,,,,
0,48,48,84,1,,6133586c82c52424d8d5ed6a,62c53ac9bfdcea14d8b4879c,2022-07-06_09h35.11.575,Colour_Asymmetry_Pilot,2022.1.3,Win32,60.33546519,62c50e9c1127f2cd403a315f,,,,,,,,,,,,,,,,,,,,,,,,,,,,,,,,,,,,,,,,,,,,,,,,,,,,,,,,,,,,,,,,,,,,,,,,,,,,,,,,,,,,,,,,,,,,,,,,,,,,,,,,,,,,,,,,,,,,,,,,,,,,,,,,,,,,,,,,,,,,,,,,,,,,,,,,,,,,,,,,,,,
0,49,49,62,1,,6133586c82c52424d8d5ed6a,62c53ac9bfdcea14d8b4879c,2022-07-06_09h35.11.575,Colour_Asymmetry_Pilot,2022.1.3,Win32,60.33546519,62c50e9c1127f2cd403a315f,,,,,,,,,,,,,,,,,,,,,,,,,,,,,,,,,,,,,,,,,,,,,,,,,,,,,,,,,,,,,,,,,,,,,,,,,,,,,,,,,,,,,,,,,,,,,,,,,,,,,,,,,,,,,,,,,,,,,,,,,,,,,,,,,,,,,,,,,,,,,,,,,,,,,,,,,,,,,,,,,,,
0,50,50,25,1,,6133586c82c52424d8d5ed6a,62c53ac9bfdcea14d8b4879c,2022-07-06_09h35.11.575,Colour_Asymmetry_Pilot,2022.1.3,Win32,60.33546519,62c50e9c1127f2cd403a315f,,,,,,,,,,,,,,,,,,,,,,,,,,,,,,,,,,,,,,,,,,,,,,,,,,,,,,,,,,,,,,,,,,,,,,,,,,,,,,,,,,,,,,,,,,,,,,,,,,,,,,,,,,,,,,,,,,,,,,,,,,,,,,,,,,,,,,,,,,,,,,,,,,,,,,,,,,,,,,,,,,,
0,51,51,34,1,,6133586c82c52424d8d5ed6a,62c53ac9bfdcea14d8b4879c,2022-07-06_09h35.11.575,Colour_Asymmetry_Pilot,2022.1.3,Win32,60.33546519,62c50e9c1127f2cd403a315f,,,,,,,,,,,,,,,,,,,,,,,,,,,,,,,,,,,,,,,,,,,,,,,,,,,,,,,,,,,,,,,,,,,,,,,,,,,,,,,,,,,,,,,,,,,,,,,,,,,,,,,,,,,,,,,,,,,,,,,,,,,,,,,,,,,,,,,,,,,,,,,,,,,,,,,,,,,,,,,,,,,
0,52,52,4,1,,6133586c82c52424d8d5ed6a,62c53ac9bfdcea14d8b4879c,2022-07-06_09h35.11.575,Colour_Asymmetry_Pilot,2022.1.3,Win32,60.33546519,62c50e9c1127f2cd403a315f,,,,,,,,,,,,,,,,,,,,,,,,,,,,,,,,,,,,,,,,,,,,,,,,,,,,,,,,,,,,,,,,,,,,,,,,,,,,,,,,,,,,,,,,,,,,,,,,,,,,,,,,,,,,,,,,,,,,,,,,,,,,,,,,,,,,,,,,,,,,,,,,,,,,,,,,,,,,,,,,,,,
0,53,53,82,1,,6133586c82c52424d8d5ed6a,62c53ac9bfdcea14d8b4879c,2022-07-06_09h35.11.575,Colour_Asymmetry_Pilot,2022.1.3,Win32,60.33546519,62c50e9c1127f2cd403a315f,,,,,,,,,,,,,,,,,,,,,,,,,,,,,,,,,,,,,,,,,,,,,,,,,,,,,,,,,,,,,,,,,,,,,,,,,,,,,,,,,,,,,,,,,,,,,,,,,,,,,,,,,,,,,,,,,,,,,,,,,,,,,,,,,,,,,,,,,,,,,,,,,,,,,,,,,,,,,,,,,,,
0,54,54,19,1,,6133586c82c52424d8d5ed6a,62c53ac9bfdcea14d8b4879c,2022-07-06_09h35.11.575,Colour_Asymmetry_Pilot,2022.1.3,Win32,60.33546519,62c50e9c1127f2cd403a315f,,,,,,,,,,,,,,,,,,,,,,,,,,,,,,,,,,,,,,,,,,,,,,,,,,,,,,,,,,,,,,,,,,,,,,,,,,,,,,,,,,,,,,,,,,,,,,,,,,,,,,,,,,,,,,,,,,,,,,,,,,,,,,,,,,,,,,,,,,,,,,,,,,,,,,,,,,,,,,,,,,,
0,55,55,14,1,,6133586c82c52424d8d5ed6a,62c53ac9bfdcea14d8b4879c,2022-07-06_09h35.11.575,Colour_Asymmetry_Pilot,2022.1.3,Win32,60.33546519,62c50e9c1127f2cd403a315f,,,,,,,,,,,,,,,,,,,,,,,,,,,,,,,,,,,,,,,,,,,,,,,,,,,,,,,,,,,,,,,,,,,,,,,,,,,,,,,,,,,,,,,,,,,,,,,,,,,,,,,,,,,,,,,,,,,,,,,,,,,,,,,,,,,,,,,,,,,,,,,,,,,,,,,,,,,,,,,,,,,
0,56,56,78,1,,6133586c82c52424d8d5ed6a,62c53ac9bfdcea14d8b4879c,2022-07-06_09h35.11.575,Colour_Asymmetry_Pilot,2022.1.3,Win32,60.33546519,62c50e9c1127f2cd403a315f,,,,,,,,,,,,,,,,,,,,,,,,,,,,,,,,,,,,,,,,,,,,,,,,,,,,,,,,,,,,,,,,,,,,,,,,,,,,,,,,,,,,,,,,,,,,,,,,,,,,,,,,,,,,,,,,,,,,,,,,,,,,,,,,,,,,,,,,,,,,,,,,,,,,,,,,,,,,,,,,,,,
0,57,57,35,1,,6133586c82c52424d8d5ed6a,62c53ac9bfdcea14d8b4879c,2022-07-06_09h35.11.575,Colour_Asymmetry_Pilot,2022.1.3,Win32,60.33546519,62c50e9c1127f2cd403a315f,,,,,,,,,,,,,,,,,,,,,,,,,,,,,,,,,,,,,,,,,,,,,,,,,,,,,,,,,,,,,,,,,,,,,,,,,,,,,,,,,,,,,,,,,,,,,,,,,,,,,,,,,,,,,,,,,,,,,,,,,,,,,,,,,,,,,,,,,,,,,,,,,,,,,,,,,,,,,,,,,,,
0,58,58,18,1,,6133586c82c52424d8d5ed6a,62c53ac9bfdcea14d8b4879c,2022-07-06_09h35.11.575,Colour_Asymmetry_Pilot,2022.1.3,Win32,60.33546519,62c50e9c1127f2cd403a315f,,,,,,,,,,,,,,,,,,,,,,,,,,,,,,,,,,,,,,,,,,,,,,,,,,,,,,,,,,,,,,,,,,,,,,,,,,,,,,,,,,,,,,,,,,,,,,,,,,,,,,,,,,,,,,,,,,,,,,,,,,,,,,,,,,,,,,,,,,,,,,,,,,,,,,,,,,,,,,,,,,,
0,59,59,16,1,,6133586c82c52424d8d5ed6a,62c53ac9bfdcea14d8b4879c,2022-07-06_09h35.11.575,Colour_Asymmetry_Pilot,2022.1.3,Win32,60.33546519,62c50e9c1127f2cd403a315f,,,,,,,,,,,,,,,,,,,,,,,,,,,,,,,,,,,,,,,,,,,,,,,,,,,,,,,,,,,,,,,,,,,,,,,,,,,,,,,,,,,,,,,,,,,,,,,,,,,,,,,,,,,,,,,,,,,,,,,,,,,,,,,,,,,,,,,,,,,,,,,,,,,,,,,,,,,,,,,,,,,
0,60,60,3,1,,6133586c82c52424d8d5ed6a,62c53ac9bfdcea14d8b4879c,2022-07-06_09h35.11.575,Colour_Asymmetry_Pilot,2022.1.3,Win32,60.33546519,62c50e9c1127f2cd403a315f,,,,,,,,,,,,,,,,,,,,,,,,,,,,,,,,,,,,,,,,,,,,,,,,,,,,,,,,,,,,,,,,,,,,,,,,,,,,,,,,,,,,,,,,,,,,,,,,,,,,,,,,,,,,,,,,,,,,,,,,,,,,,,,,,,,,,,,,,,,,,,,,,,,,,,,,,,,,,,,,,,,
0,61,61,77,1,,6133586c82c52424d8d5ed6a,62c53ac9bfdcea14d8b4879c,2022-07-06_09h35.11.575,Colour_Asymmetry_Pilot,2022.1.3,Win32,60.33546519,62c50e9c1127f2cd403a315f,,,,,,,,,,,,,,,,,,,,,,,,,,,,,,,,,,,,,,,,,,,,,,,,,,,,,,,,,,,,,,,,,,,,,,,,,,,,,,,,,,,,,,,,,,,,,,,,,,,,,,,,,,,,,,,,,,,,,,,,,,,,,,,,,,,,,,,,,,,,,,,,,,,,,,,,,,,,,,,,,,,
0,62,62,73,1,,6133586c82c52424d8d5ed6a,62c53ac9bfdcea14d8b4879c,2022-07-06_09h35.11.575,Colour_Asymmetry_Pilot,2022.1.3,Win32,60.33546519,62c50e9c1127f2cd403a315f,,,,,,,,,,,,,,,,,,,,,,,,,,,,,,,,,,,,,,,,,,,,,,,,,,,,,,,,,,,,,,,,,,,,,,,,,,,,,,,,,,,,,,,,,,,,,,,,,,,,,,,,,,,,,,,,,,,,,,,,,,,,,,,,,,,,,,,,,,,,,,,,,,,,,,,,,,,,,,,,,,,
0,63,63,46,1,,6133586c82c52424d8d5ed6a,62c53ac9bfdcea14d8b4879c,2022-07-06_09h35.11.575,Colour_Asymmetry_Pilot,2022.1.3,Win32,60.33546519,62c50e9c1127f2cd403a315f,,,,,,,,,,,,,,,,,,,,,,,,,,,,,,,,,,,,,,,,,,,,,,,,,,,,,,,,,,,,,,,,,,,,,,,,,,,,,,,,,,,,,,,,,,,,,,,,,,,,,,,,,,,,,,,,,,,,,,,,,,,,,,,,,,,,,,,,,,,,,,,,,,,,,,,,,,,,,,,,,,,
0,64,64,8,1,,6133586c82c52424d8d5ed6a,62c53ac9bfdcea14d8b4879c,2022-07-06_09h35.11.575,Colour_Asymmetry_Pilot,2022.1.3,Win32,60.33546519,62c50e9c1127f2cd403a315f,,,,,,,,,,,,,,,,,,,,,,,,,,,,,,,,,,,,,,,,,,,,,,,,,,,,,,,,,,,,,,,,,,,,,,,,,,,,,,,,,,,,,,,,,,,,,,,,,,,,,,,,,,,,,,,,,,,,,,,,,,,,,,,,,,,,,,,,,,,,,,,,,,,,,,,,,,,,,,,,,,,
0,65,65,71,1,,6133586c82c52424d8d5ed6a,62c53ac9bfdcea14d8b4879c,2022-07-06_09h35.11.575,Colour_Asymmetry_Pilot,2022.1.3,Win32,60.33546519,62c50e9c1127f2cd403a315f,,,,,,,,,,,,,,,,,,,,,,,,,,,,,,,,,,,,,,,,,,,,,,,,,,,,,,,,,,,,,,,,,,,,,,,,,,,,,,,,,,,,,,,,,,,,,,,,,,,,,,,,,,,,,,,,,,,,,,,,,,,,,,,,,,,,,,,,,,,,,,,,,,,,,,,,,,,,,,,,,,,
0,66,66,40,1,,6133586c82c52424d8d5ed6a,62c53ac9bfdcea14d8b4879c,2022-07-06_09h35.11.575,Colour_Asymmetry_Pilot,2022.1.3,Win32,60.33546519,62c50e9c1127f2cd403a315f,,,,,,,,,,,,,,,,,,,,,,,,,,,,,,,,,,,,,,,,,,,,,,,,,,,,,,,,,,,,,,,,,,,,,,,,,,,,,,,,,,,,,,,,,,,,,,,,,,,,,,,,,,,,,,,,,,,,,,,,,,,,,,,,,,,,,,,,,,,,,,,,,,,,,,,,,,,,,,,,,,,
0,67,67,92,1,,6133586c82c52424d8d5ed6a,62c53ac9bfdcea14d8b4879c,2022-07-06_09h35.11.575,Colour_Asymmetry_Pilot,2022.1.3,Win32,60.33546519,62c50e9c1127f2cd403a315f,,,,,,,,,,,,,,,,,,,,,,,,,,,,,,,,,,,,,,,,,,,,,,,,,,,,,,,,,,,,,,,,,,,,,,,,,,,,,,,,,,,,,,,,,,,,,,,,,,,,,,,,,,,,,,,,,,,,,,,,,,,,,,,,,,,,,,,,,,,,,,,,,,,,,,,,,,,,,,,,,,,
0,68,68,61,1,,6133586c82c52424d8d5ed6a,62c53ac9bfdcea14d8b4879c,2022-07-06_09h35.11.575,Colour_Asymmetry_Pilot,2022.1.3,Win32,60.33546519,62c50e9c1127f2cd403a315f,,,,,,,,,,,,,,,,,,,,,,,,,,,,,,,,,,,,,,,,,,,,,,,,,,,,,,,,,,,,,,,,,,,,,,,,,,,,,,,,,,,,,,,,,,,,,,,,,,,,,,,,,,,,,,,,,,,,,,,,,,,,,,,,,,,,,,,,,,,,,,,,,,,,,,,,,,,,,,,,,,,
0,69,69,56,1,,6133586c82c52424d8d5ed6a,62c53ac9bfdcea14d8b4879c,2022-07-06_09h35.11.575,Colour_Asymmetry_Pilot,2022.1.3,Win32,60.33546519,62c50e9c1127f2cd403a315f,,,,,,,,,,,,,,,,,,,,,,,,,,,,,,,,,,,,,,,,,,,,,,,,,,,,,,,,,,,,,,,,,,,,,,,,,,,,,,,,,,,,,,,,,,,,,,,,,,,,,,,,,,,,,,,,,,,,,,,,,,,,,,,,,,,,,,,,,,,,,,,,,,,,,,,,,,,,,,,,,,,
0,70,70,81,1,,6133586c82c52424d8d5ed6a,62c53ac9bfdcea14d8b4879c,2022-07-06_09h35.11.575,Colour_Asymmetry_Pilot,2022.1.3,Win32,60.33546519,62c50e9c1127f2cd403a315f,,,,,,,,,,,,,,,,,,,,,,,,,,,,,,,,,,,,,,,,,,,,,,,,,,,,,,,,,,,,,,,,,,,,,,,,,,,,,,,,,,,,,,,,,,,,,,,,,,,,,,,,,,,,,,,,,,,,,,,,,,,,,,,,,,,,,,,,,,,,,,,,,,,,,,,,,,,,,,,,,,,
0,71,71,42,1,,6133586c82c52424d8d5ed6a,62c53ac9bfdcea14d8b4879c,2022-07-06_09h35.11.575,Colour_Asymmetry_Pilot,2022.1.3,Win32,60.33546519,62c50e9c1127f2cd403a315f,,,,,,,,,,,,,,,,,,,,,,,,,,,,,,,,,,,,,,,,,,,,,,,,,,,,,,,,,,,,,,,,,,,,,,,,,,,,,,,,,,,,,,,,,,,,,,,,,,,,,,,,,,,,,,,,,,,,,,,,,,,,,,,,,,,,,,,,,,,,,,,,,,,,,,,,,,,,,,,,,,,
0,72,72,2,1,,6133586c82c52424d8d5ed6a,62c53ac9bfdcea14d8b4879c,2022-07-06_09h35.11.575,Colour_Asymmetry_Pilot,2022.1.3,Win32,60.33546519,62c50e9c1127f2cd403a315f,,,,,,,,,,,,,,,,,,,,,,,,,,,,,,,,,,,,,,,,,,,,,,,,,,,,,,,,,,,,,,,,,,,,,,,,,,,,,,,,,,,,,,,,,,,,,,,,,,,,,,,,,,,,,,,,,,,,,,,,,,,,,,,,,,,,,,,,,,,,,,,,,,,,,,,,,,,,,,,,,,,
0,73,73,55,1,,6133586c82c52424d8d5ed6a,62c53ac9bfdcea14d8b4879c,2022-07-06_09h35.11.575,Colour_Asymmetry_Pilot,2022.1.3,Win32,60.33546519,62c50e9c1127f2cd403a315f,,,,,,,,,,,,,,,,,,,,,,,,,,,,,,,,,,,,,,,,,,,,,,,,,,,,,,,,,,,,,,,,,,,,,,,,,,,,,,,,,,,,,,,,,,,,,,,,,,,,,,,,,,,,,,,,,,,,,,,,,,,,,,,,,,,,,,,,,,,,,,,,,,,,,,,,,,,,,,,,,,,
0,74,74,10,1,,6133586c82c52424d8d5ed6a,62c53ac9bfdcea14d8b4879c,2022-07-06_09h35.11.575,Colour_Asymmetry_Pilot,2022.1.3,Win32,60.33546519,62c50e9c1127f2cd403a315f,,,,,,,,,,,,,,,,,,,,,,,,,,,,,,,,,,,,,,,,,,,,,,,,,,,,,,,,,,,,,,,,,,,,,,,,,,,,,,,,,,,,,,,,,,,,,,,,,,,,,,,,,,,,,,,,,,,,,,,,,,,,,,,,,,,,,,,,,,,,,,,,,,,,,,,,,,,,,,,,,,,
0,75,75,28,1,,6133586c82c52424d8d5ed6a,62c53ac9bfdcea14d8b4879c,2022-07-06_09h35.11.575,Colour_Asymmetry_Pilot,2022.1.3,Win32,60.33546519,62c50e9c1127f2cd403a315f,,,,,,,,,,,,,,,,,,,,,,,,,,,,,,,,,,,,,,,,,,,,,,,,,,,,,,,,,,,,,,,,,,,,,,,,,,,,,,,,,,,,,,,,,,,,,,,,,,,,,,,,,,,,,,,,,,,,,,,,,,,,,,,,,,,,,,,,,,,,,,,,,,,,,,,,,,,,,,,,,,,
0,76,76,22,1,,6133586c82c52424d8d5ed6a,62c53ac9bfdcea14d8b4879c,2022-07-06_09h35.11.575,Colour_Asymmetry_Pilot,2022.1.3,Win32,60.33546519,62c50e9c1127f2cd403a315f,,,,,,,,,,,,,,,,,,,,,,,,,,,,,,,,,,,,,,,,,,,,,,,,,,,,,,,,,,,,,,,,,,,,,,,,,,,,,,,,,,,,,,,,,,,,,,,,,,,,,,,,,,,,,,,,,,,,,,,,,,,,,,,,,,,,,,,,,,,,,,,,,,,,,,,,,,,,,,,,,,,
0,77,77,86,1,,6133586c82c52424d8d5ed6a,62c53ac9bfdcea14d8b4879c,2022-07-06_09h35.11.575,Colour_Asymmetry_Pilot,2022.1.3,Win32,60.33546519,62c50e9c1127f2cd403a315f,,,,,,,,,,,,,,,,,,,,,,,,,,,,,,,,,,,,,,,,,,,,,,,,,,,,,,,,,,,,,,,,,,,,,,,,,,,,,,,,,,,,,,,,,,,,,,,,,,,,,,,,,,,,,,,,,,,,,,,,,,,,,,,,,,,,,,,,,,,,,,,,,,,,,,,,,,,,,,,,,,,
0,78,78,60,1,,6133586c82c52424d8d5ed6a,62c53ac9bfdcea14d8b4879c,2022-07-06_09h35.11.575,Colour_Asymmetry_Pilot,2022.1.3,Win32,60.33546519,62c50e9c1127f2cd403a315f,,,,,,,,,,,,,,,,,,,,,,,,,,,,,,,,,,,,,,,,,,,,,,,,,,,,,,,,,,,,,,,,,,,,,,,,,,,,,,,,,,,,,,,,,,,,,,,,,,,,,,,,,,,,,,,,,,,,,,,,,,,,,,,,,,,,,,,,,,,,,,,,,,,,,,,,,,,,,,,,,,,
0,79,79,57,1,,6133586c82c52424d8d5ed6a,62c53ac9bfdcea14d8b4879c,2022-07-06_09h35.11.575,Colour_Asymmetry_Pilot,2022.1.3,Win32,60.33546519,62c50e9c1127f2cd403a315f,,,,,,,,,,,,,,,,,,,,,,,,,,,,,,,,,,,,,,,,,,,,,,,,,,,,,,,,,,,,,,,,,,,,,,,,,,,,,,,,,,,,,,,,,,,,,,,,,,,,,,,,,,,,,,,,,,,,,,,,,,,,,,,,,,,,,,,,,,,,,,,,,,,,,,,,,,,,,,,,,,,
0,80,80,9,1,,6133586c82c52424d8d5ed6a,62c53ac9bfdcea14d8b4879c,2022-07-06_09h35.11.575,Colour_Asymmetry_Pilot,2022.1.3,Win32,60.33546519,62c50e9c1127f2cd403a315f,,,,,,,,,,,,,,,,,,,,,,,,,,,,,,,,,,,,,,,,,,,,,,,,,,,,,,,,,,,,,,,,,,,,,,,,,,,,,,,,,,,,,,,,,,,,,,,,,,,,,,,,,,,,,,,,,,,,,,,,,,,,,,,,,,,,,,,,,,,,,,,,,,,,,,,,,,,,,,,,,,,
0,81,81,29,1,,6133586c82c52424d8d5ed6a,62c53ac9bfdcea14d8b4879c,2022-07-06_09h35.11.575,Colour_Asymmetry_Pilot,2022.1.3,Win32,60.33546519,62c50e9c1127f2cd403a315f,,,,,,,,,,,,,,,,,,,,,,,,,,,,,,,,,,,,,,,,,,,,,,,,,,,,,,,,,,,,,,,,,,,,,,,,,,,,,,,,,,,,,,,,,,,,,,,,,,,,,,,,,,,,,,,,,,,,,,,,,,,,,,,,,,,,,,,,,,,,,,,,,,,,,,,,,,,,,,,,,,,
0,82,82,6,1,,6133586c82c52424d8d5ed6a,62c53ac9bfdcea14d8b4879c,2022-07-06_09h35.11.575,Colour_Asymmetry_Pilot,2022.1.3,Win32,60.33546519,62c50e9c1127f2cd403a315f,,,,,,,,,,,,,,,,,,,,,,,,,,,,,,,,,,,,,,,,,,,,,,,,,,,,,,,,,,,,,,,,,,,,,,,,,,,,,,,,,,,,,,,,,,,,,,,,,,,,,,,,,,,,,,,,,,,,,,,,,,,,,,,,,,,,,,,,,,,,,,,,,,,,,,,,,,,,,,,,,,,
0,83,83,11,1,,6133586c82c52424d8d5ed6a,62c53ac9bfdcea14d8b4879c,2022-07-06_09h35.11.575,Colour_Asymmetry_Pilot,2022.1.3,Win32,60.33546519,62c50e9c1127f2cd403a315f,,,,,,,,,,,,,,,,,,,,,,,,,,,,,,,,,,,,,,,,,,,,,,,,,,,,,,,,,,,,,,,,,,,,,,,,,,,,,,,,,,,,,,,,,,,,,,,,,,,,,,,,,,,,,,,,,,,,,,,,,,,,,,,,,,,,,,,,,,,,,,,,,,,,,,,,,,,,,,,,,,,
0,84,84,70,1,,6133586c82c52424d8d5ed6a,62c53ac9bfdcea14d8b4879c,2022-07-06_09h35.11.575,Colour_Asymmetry_Pilot,2022.1.3,Win32,60.33546519,62c50e9c1127f2cd403a315f,,,,,,,,,,,,,,,,,,,,,,,,,,,,,,,,,,,,,,,,,,,,,,,,,,,,,,,,,,,,,,,,,,,,,,,,,,,,,,,,,,,,,,,,,,,,,,,,,,,,,,,,,,,,,,,,,,,,,,,,,,,,,,,,,,,,,,,,,,,,,,,,,,,,,,,,,,,,,,,,,,,
0,85,85,47,1,,6133586c82c52424d8d5ed6a,62c53ac9bfdcea14d8b4879c,2022-07-06_09h35.11.575,Colour_Asymmetry_Pilot,2022.1.3,Win32,60.33546519,62c50e9c1127f2cd403a315f,,,,,,,,,,,,,,,,,,,,,,,,,,,,,,,,,,,,,,,,,,,,,,,,,,,,,,,,,,,,,,,,,,,,,,,,,,,,,,,,,,,,,,,,,,,,,,,,,,,,,,,,,,,,,,,,,,,,,,,,,,,,,,,,,,,,,,,,,,,,,,,,,,,,,,,,,,,,,,,,,,,
0,86,86,72,1,,6133586c82c52424d8d5ed6a,62c53ac9bfdcea14d8b4879c,2022-07-06_09h35.11.575,Colour_Asymmetry_Pilot,2022.1.3,Win32,60.33546519,62c50e9c1127f2cd403a315f,,,,,,,,,,,,,,,,,,,,,,,,,,,,,,,,,,,,,,,,,,,,,,,,,,,,,,,,,,,,,,,,,,,,,,,,,,,,,,,,,,,,,,,,,,,,,,,,,,,,,,,,,,,,,,,,,,,,,,,,,,,,,,,,,,,,,,,,,,,,,,,,,,,,,,,,,,,,,,,,,,,
0,87,87,45,1,,6133586c82c52424d8d5ed6a,62c53ac9bfdcea14d8b4879c,2022-07-06_09h35.11.575,Colour_Asymmetry_Pilot,2022.1.3,Win32,60.33546519,62c50e9c1127f2cd403a315f,,,,,,,,,,,,,,,,,,,,,,,,,,,,,,,,,,,,,,,,,,,,,,,,,,,,,,,,,,,,,,,,,,,,,,,,,,,,,,,,,,,,,,,,,,,,,,,,,,,,,,,,,,,,,,,,,,,,,,,,,,,,,,,,,,,,,,,,,,,,,,,,,,,,,,,,,,,,,,,,,,,
0,88,88,68,1,,6133586c82c52424d8d5ed6a,62c53ac9bfdcea14d8b4879c,2022-07-06_09h35.11.575,Colour_Asymmetry_Pilot,2022.1.3,Win32,60.33546519,62c50e9c1127f2cd403a315f,,,,,,,,,,,,,,,,,,,,,,,,,,,,,,,,,,,,,,,,,,,,,,,,,,,,,,,,,,,,,,,,,,,,,,,,,,,,,,,,,,,,,,,,,,,,,,,,,,,,,,,,,,,,,,,,,,,,,,,,,,,,,,,,,,,,,,,,,,,,,,,,,,,,,,,,,,,,,,,,,,,
0,89,89,53,1,,6133586c82c52424d8d5ed6a,62c53ac9bfdcea14d8b4879c,2022-07-06_09h35.11.575,Colour_Asymmetry_Pilot,2022.1.3,Win32,60.33546519,62c50e9c1127f2cd403a315f,,,,,,,,,,,,,,,,,,,,,,,,,,,,,,,,,,,,,,,,,,,,,,,,,,,,,,,,,,,,,,,,,,,,,,,,,,,,,,,,,,,,,,,,,,,,,,,,,,,,,,,,,,,,,,,,,,,,,,,,,,,,,,,,,,,,,,,,,,,,,,,,,,,,,,,,,,,,,,,,,,,
0,90,90,51,1,,6133586c82c52424d8d5ed6a,62c53ac9bfdcea14d8b4879c,2022-07-06_09h35.11.575,Colour_Asymmetry_Pilot,2022.1.3,Win32,60.33546519,62c50e9c1127f2cd403a315f,,,,,,,,,,,,,,,,,,,,,,,,,,,,,,,,,,,,,,,,,,,,,,,,,,,,,,,,,,,,,,,,,,,,,,,,,,,,,,,,,,,,,,,,,,,,,,,,,,,,,,,,,,,,,,,,,,,,,,,,,,,,,,,,,,,,,,,,,,,,,,,,,,,,,,,,,,,,,,,,,,,
0,91,91,12,1,,6133586c82c52424d8d5ed6a,62c53ac9bfdcea14d8b4879c,2022-07-06_09h35.11.575,Colour_Asymmetry_Pilot,2022.1.3,Win32,60.33546519,62c50e9c1127f2cd403a315f,,,,,,,,,,,,,,,,,,,,,,,,,,,,,,,,,,,,,,,,,,,,,,,,,,,,,,,,,,,,,,,,,,,,,,,,,,,,,,,,,,,,,,,,,,,,,,,,,,,,,,,,,,,,,,,,,,,,,,,,,,,,,,,,,,,,,,,,,,,,,,,,,,,,,,,,,,,,,,,,,,,
0,92,92,7,1,,6133586c82c52424d8d5ed6a,62c53ac9bfdcea14d8b4879c,2022-07-06_09h35.11.575,Colour_Asymmetry_Pilot,2022.1.3,Win32,60.33546519,62c50e9c1127f2cd403a315f,,,,,,,,,,,,,,,,,,,,,,,,,,,,,,,,,,,,,,,,,,,,,,,,,,,,,,,,,,,,,,,,,,,,,,,,,,,,,,,,,,,,,,,,,,,,,,,,,,,,,,,,,,,,,,,,,,,,,,,,,,,,,,,,,,,,,,,,,,,,,,,,,,,,,,,,,,,,,,,,,,,
,,,,,,6133586c82c52424d8d5ed6a,62c53ac9bfdcea14d8b4879c,2022-07-06_09h35.11.575,Colour_Asymmetry_Pilot,2022.1.3,Win32,60.33546519,62c50e9c1127f2cd403a315f,0,0,0,12,1,threeone,,,,,,,,,,,,,,,,,,,,,,,,,,,,,,,,,,,,,,,,,,,,,,,,,,,,,,,,,,,,,,,,,,,,,,,,,,,,,,,,,,,,,,,,,,,,,,,,,,,,,,,,,,,,,,,,,,,,,,,,,,,,,,,,,,,,,,,,,,,,,,,,,,,,,,,,,,,,,
,,,,,,6133586c82c52424d8d5ed6a,62c53ac9bfdcea14d8b4879c,2022-07-06_09h35.11.575,Colour_Asymmetry_Pilot,2022.1.3,Win32,60.33546519,62c50e9c1127f2cd403a315f,0,1,1,114,1,twoone,,,,,,,,,,,,,,,,,,,,,,,,,,,,,,,,,,,,,,,,,,,,,,,,,,,,,,,,,,,,,,,,,,,,,,,,,,,,,,,,,,,,,,,,,,,,,,,,,,,,,,,,,,,,,,,,,,,,,,,,,,,,,,,,,,,,,,,,,,,,,,,,,,,,,,,,,,,,,
,,,,,,6133586c82c52424d8d5ed6a,62c53ac9bfdcea14d8b4879c,2022-07-06_09h35.11.575,Colour_Asymmetry_Pilot,2022.1.3,Win32,60.33546519,62c50e9c1127f2cd403a315f,0,2,2,99,1,twofour,,,,,,,,,,,,,,,,,,,,,,,,,,,,,,,,,,,,,,,,,,,,,,,,,,,,,,,,,,,,,,,,,,,,,,,,,,,,,,,,,,,,,,,,,,,,,,,,,,,,,,,,,,,,,,,,,,,,,,,,,,,,,,,,,,,,,,,,,,,,,,,,,,,,,,,,,,,,,
,,,,,,6133586c82c52424d8d5ed6a,62c53ac9bfdcea14d8b4879c,2022-07-06_09h35.11.575,Colour_Asymmetry_Pilot,2022.1.3,Win32,60.33546519,62c50e9c1127f2cd403a315f,0,3,3,69,1,threefour,,,,,,,,,,,,,,,,,,,,,,,,,,,,,,,,,,,,,,,,,,,,,,,,,,,,,,,,,,,,,,,,,,,,,,,,,,,,,,,,,,,,,,,,,,,,,,,,,,,,,,,,,,,,,,,,,,,,,,,,,,,,,,,,,,,,,,,,,,,,,,,,,,,,,,,,,,,,,
,,,,,,6133586c82c52424d8d5ed6a,62c53ac9bfdcea14d8b4879c,2022-07-06_09h35.11.575,Colour_Asymmetry_Pilot,2022.1.3,Win32,60.33546519,62c50e9c1127f2cd403a315f,0,4,4,148,1,threeone,,,,,,,,,,,,,,,,,,,,,,,,,,,,,,,,,,,,,,,,,,,,,,,,,,,,,,,,,,,,,,,,,,,,,,,,,,,,,,,,,,,,,,,,,,,,,,,,,,,,,,,,,,,,,,,,,,,,,,,,,,,,,,,,,,,,,,,,,,,,,,,,,,,,,,,,,,,,,
,,,,,,6133586c82c52424d8d5ed6a,62c53ac9bfdcea14d8b4879c,2022-07-06_09h35.11.575,Colour_Asymmetry_Pilot,2022.1.3,Win32,60.33546519,62c50e9c1127f2cd403a315f,0,5,5,0,1,onetwo,,,,,,,,,,,,,,,,,,,,,,,,,,,,,,,,,,,,,,,,,,,,,,,,,,,,,,,,,,,,,,,,,,,,,,,,,,,,,,,,,,,,,,,,,,,,,,,,,,,,,,,,,,,,,,,,,,,,,,,,,,,,,,,,,,,,,,,,,,,,,,,,,,,,,,,,,,,,,
,,,,,,6133586c82c52424d8d5ed6a,62c53ac9bfdcea14d8b4879c,2022-07-06_09h35.11.575,Colour_Asymmetry_Pilot,2022.1.3,Win32,60.33546519,62c50e9c1127f2cd403a315f,0,6,6,116,1,threeone,,,,,,,,,,,,,,,,,,,,,,,,,,,,,,,,,,,,,,,,,,,,,,,,,,,,,,,,,,,,,,,,,,,,,,,,,,,,,,,,,,,,,,,,,,,,,,,,,,,,,,,,,,,,,,,,,,,,,,,,,,,,,,,,,,,,,,,,,,,,,,,,,,,,,,,,,,,,,
,,,,,,6133586c82c52424d8d5ed6a,62c53ac9bfdcea14d8b4879c,2022-07-06_09h35.11.575,Colour_Asymmetry_Pilot,2022.1.3,Win32,60.33546519,62c50e9c1127f2cd403a315f,0,7,7,27,1,twofour,,,,,,,,,,,,,,,,,,,,,,,,,,,,,,,,,,,,,,,,,,,,,,,,,,,,,,,,,,,,,,,,,,,,,,,,,,,,,,,,,,,,,,,,,,,,,,,,,,,,,,,,,,,,,,,,,,,,,,,,,,,,,,,,,,,,,,,,,,,,,,,,,,,,,,,,,,,,,
,,,,,,6133586c82c52424d8d5ed6a,62c53ac9bfdcea14d8b4879c,2022-07-06_09h35.11.575,Colour_Asymmetry_Pilot,2022.1.3,Win32,60.33546519,62c50e9c1127f2cd403a315f,0,8,8,151,1,fourthree,,,,,,,,,,,,,,,,,,,,,,,,,,,,,,,,,,,,,,,,,,,,,,,,,,,,,,,,,,,,,,,,,,,,,,,,,,,,,,,,,,,,,,,,,,,,,,,,,,,,,,,,,,,,,,,,,,,,,,,,,,,,,,,,,,,,,,,,,,,,,,,,,,,,,,,,,,,,,
,,,,,,6133586c82c52424d8d5ed6a,62c53ac9bfdcea14d8b4879c,2022-07-06_09h35.11.575,Colour_Asymmetry_Pilot,2022.1.3,Win32,60.33546519,62c50e9c1127f2cd403a315f,0,9,9,125,1,threefour,,,,,,,,,,,,,,,,,,,,,,,,,,,,,,,,,,,,,,,,,,,,,,,,,,,,,,,,,,,,,,,,,,,,,,,,,,,,,,,,,,,,,,,,,,,,,,,,,,,,,,,,,,,,,,,,,,,,,,,,,,,,,,,,,,,,,,,,,,,,,,,,,,,,,,,,,,,,,
,,,,,,6133586c82c52424d8d5ed6a,62c53ac9bfdcea14d8b4879c,2022-07-06_09h35.11.575,Colour_Asymmetry_Pilot,2022.1.3,Win32,60.33546519,62c50e9c1127f2cd403a315f,0,10,10,8,1,onetwo,,,,,,,,,,,,,,,,,,,,,,,,,,,,,,,,,,,,,,,,,,,,,,,,,,,,,,,,,,,,,,,,,,,,,,,,,,,,,,,,,,,,,,,,,,,,,,,,,,,,,,,,,,,,,,,,,,,,,,,,,,,,,,,,,,,,,,,,,,,,,,,,,,,,,,,,,,,,,
,,,,,,6133586c82c52424d8d5ed6a,62c53ac9bfdcea14d8b4879c,2022-07-06_09h35.11.575,Colour_Asymmetry_Pilot,2022.1.3,Win32,60.33546519,62c50e9c1127f2cd403a315f,0,11,11,70,1,fourtwo,,,,,,,,,,,,,,,,,,,,,,,,,,,,,,,,,,,,,,,,,,,,,,,,,,,,,,,,,,,,,,,,,,,,,,,,,,,,,,,,,,,,,,,,,,,,,,,,,,,,,,,,,,,,,,,,,,,,,,,,,,,,,,,,,,,,,,,,,,,,,,,,,,,,,,,,,,,,,
,,,,,,6133586c82c52424d8d5ed6a,62c53ac9bfdcea14d8b4879c,2022-07-06_09h35.11.575,Colour_Asymmetry_Pilot,2022.1.3,Win32,60.33546519,62c50e9c1127f2cd403a315f,0,12,12,24,1,onetwo,,,,,,,,,,,,,,,,,,,,,,,,,,,,,,,,,,,,,,,,,,,,,,,,,,,,,,,,,,,,,,,,,,,,,,,,,,,,,,,,,,,,,,,,,,,,,,,,,,,,,,,,,,,,,,,,,,,,,,,,,,,,,,,,,,,,,,,,,,,,,,,,,,,,,,,,,,,,,
,,,,,,6133586c82c52424d8d5ed6a,62c53ac9bfdcea14d8b4879c,2022-07-06_09h35.11.575,Colour_Asymmetry_Pilot,2022.1.3,Win32,60.33546519,62c50e9c1127f2cd403a315f,0,13,13,32,1,onetwo,,,,,,,,,,,,,,,,,,,,,,,,,,,,,,,,,,,,,,,,,,,,,,,,,,,,,,,,,,,,,,,,,,,,,,,,,,,,,,,,,,,,,,,,,,,,,,,,,,,,,,,,,,,,,,,,,,,,,,,,,,,,,,,,,,,,,,,,,,,,,,,,,,,,,,,,,,,,,
,,,,,,6133586c82c52424d8d5ed6a,62c53ac9bfdcea14d8b4879c,2022-07-06_09h35.11.575,Colour_Asymmetry_Pilot,2022.1.3,Win32,60.33546519,62c50e9c1127f2cd403a315f,0,14,14,102,1,fourtwo,,,,,,,,,,,,,,,,,,,,,,,,,,,,,,,,,,,,,,,,,,,,,,,,,,,,,,,,,,,,,,,,,,,,,,,,,,,,,,,,,,,,,,,,,,,,,,,,,,,,,,,,,,,,,,,,,,,,,,,,,,,,,,,,,,,,,,,,,,,,,,,,,,,,,,,,,,,,,
,,,,,,6133586c82c52424d8d5ed6a,62c53ac9bfdcea14d8b4879c,2022-07-06_09h35.11.575,Colour_Asymmetry_Pilot,2022.1.3,Win32,60.33546519,62c50e9c1127f2cd403a315f,0,15,15,127,1,fourthree,,,,,,,,,,,,,,,,,,,,,,,,,,,,,,,,,,,,,,,,,,,,,,,,,,,,,,,,,,,,,,,,,,,,,,,,,,,,,,,,,,,,,,,,,,,,,,,,,,,,,,,,,,,,,,,,,,,,,,,,,,,,,,,,,,,,,,,,,,,,,,,,,,,,,,,,,,,,,
,,,,,,6133586c82c52424d8d5ed6a,62c53ac9bfdcea14d8b4879c,2022-07-06_09h35.11.575,Colour_Asymmetry_Pilot,2022.1.3,Win32,60.33546519,62c50e9c1127f2cd403a315f,0,16,16,36,1,threeone,,,,,,,,,,,,,,,,,,,,,,,,,,,,,,,,,,,,,,,,,,,,,,,,,,,,,,,,,,,,,,,,,,,,,,,,,,,,,,,,,,,,,,,,,,,,,,,,,,,,,,,,,,,,,,,,,,,,,,,,,,,,,,,,,,,,,,,,,,,,,,,,,,,,,,,,,,,,,
,,,,,,6133586c82c52424d8d5ed6a,62c53ac9bfdcea14d8b4879c,2022-07-06_09h35.11.575,Colour_Asymmetry_Pilot,2022.1.3,Win32,60.33546519,62c50e9c1127f2cd403a315f,0,17,17,2,1,twoone,,,,,,,,,,,,,,,,,,,,,,,,,,,,,,,,,,,,,,,,,,,,,,,,,,,,,,,,,,,,,,,,,,,,,,,,,,,,,,,,,,,,,,,,,,,,,,,,,,,,,,,,,,,,,,,,,,,,,,,,,,,,,,,,,,,,,,,,,,,,,,,,,,,,,,,,,,,,,
,,,,,,6133586c82c52424d8d5ed6a,62c53ac9bfdcea14d8b4879c,2022-07-06_09h35.11.575,Colour_Asymmetry_Pilot,2022.1.3,Win32,60.33546519,62c50e9c1127f2cd403a315f,0,18,18,56,1,onetwo,,,,,,,,,,,,,,,,,,,,,,,,,,,,,,,,,,,,,,,,,,,,,,,,,,,,,,,,,,,,,,,,,,,,,,,,,,,,,,,,,,,,,,,,,,,,,,,,,,,,,,,,,,,,,,,,,,,,,,,,,,,,,,,,,,,,,,,,,,,,,,,,,,,,,,,,,,,,,
,,,,,,6133586c82c52424d8d5ed6a,62c53ac9bfdcea14d8b4879c,2022-07-06_09h35.11.575,Colour_Asymmetry_Pilot,2022.1.3,Win32,60.33546519,62c50e9c1127f2cd403a315f,0,19,19,79,1,fourthree,,,,,,,,,,,,,,,,,,,,,,,,,,,,,,,,,,,,,,,,,,,,,,,,,,,,,,,,,,,,,,,,,,,,,,,,,,,,,,,,,,,,,,,,,,,,,,,,,,,,,,,,,,,,,,,,,,,,,,,,,,,,,,,,,,,,,,,,,,,,,,,,,,,,,,,,,,,,,
,,,,,,6133586c82c52424d8d5ed6a,62c53ac9bfdcea14d8b4879c,2022-07-06_09h35.11.575,Colour_Asymmetry_Pilot,2022.1.3,Win32,60.33546519,62c50e9c1127f2cd403a315f,0,20,20,160,1,onetwo,,,,,,,,,,,,,,,,,,,,,,,,,,,,,,,,,,,,,,,,,,,,,,,,,,,,,,,,,,,,,,,,,,,,,,,,,,,,,,,,,,,,,,,,,,,,,,,,,,,,,,,,,,,,,,,,,,,,,,,,,,,,,,,,,,,,,,,,,,,,,,,,,,,,,,,,,,,,,
,,,,,,6133586c82c52424d8d5ed6a,62c53ac9bfdcea14d8b4879c,2022-07-06_09h35.11.575,Colour_Asymmetry_Pilot,2022.1.3,Win32,60.33546519,62c50e9c1127f2cd403a315f,0,21,21,81,1,onethree,,,,,,,,,,,,,,,,,,,,,,,,,,,,,,,,,,,,,,,,,,,,,,,,,,,,,,,,,,,,,,,,,,,,,,,,,,,,,,,,,,,,,,,,,,,,,,,,,,,,,,,,,,,,,,,,,,,,,,,,,,,,,,,,,,,,,,,,,,,,,,,,,,,,,,,,,,,,,
,,,,,,6133586c82c52424d8d5ed6a,62c53ac9bfdcea14d8b4879c,2022-07-06_09h35.11.575,Colour_Asymmetry_Pilot,2022.1.3,Win32,60.33546519,62c50e9c1127f2cd403a315f,0,22,22,15,1,fourthree,,,,,,,,,,,,,,,,,,,,,,,,,,,,,,,,,,,,,,,,,,,,,,,,,,,,,,,,,,,,,,,,,,,,,,,,,,,,,,,,,,,,,,,,,,,,,,,,,,,,,,,,,,,,,,,,,,,,,,,,,,,,,,,,,,,,,,,,,,,,,,,,,,,,,,,,,,,,,
,,,,,,6133586c82c52424d8d5ed6a,62c53ac9bfdcea14d8b4879c,2022-07-06_09h35.11.575,Colour_Asymmetry_Pilot,2022.1.3,Win32,60.33546519,62c50e9c1127f2cd403a315f,0,23,23,38,1,fourtwo,,,,,,,,,,,,,,,,,,,,,,,,,,,,,,,,,,,,,,,,,,,,,,,,,,,,,,,,,,,,,,,,,,,,,,,,,,,,,,,,,,,,,,,,,,,,,,,,,,,,,,,,,,,,,,,,,,,,,,,,,,,,,,,,,,,,,,,,,,,,,,,,,,,,,,,,,,,,,
,,,,,,6133586c82c52424d8d5ed6a,62c53ac9bfdcea14d8b4879c,2022-07-06_09h35.11.575,Colour_Asymmetry_Pilot,2022.1.3,Win32,60.33546519,62c50e9c1127f2cd403a315f,0,24,24,146,1,twoone,,,,,,,,,,,,,,,,,,,,,,,,,,,,,,,,,,,,,,,,,,,,,,,,,,,,,,,,,,,,,,,,,,,,,,,,,,,,,,,,,,,,,,,,,,,,,,,,,,,,,,,,,,,,,,,,,,,,,,,,,,,,,,,,,,,,,,,,,,,,,,,,,,,,,,,,,,,,,
,,,,,,6133586c82c52424d8d5ed6a,62c53ac9bfdcea14d8b4879c,2022-07-06_09h35.11.575,Colour_Asymmetry_Pilot,2022.1.3,Win32,60.33546519,62c50e9c1127f2cd403a315f,0,25,25,83,1,twofour,,,,,,,,,,,,,,,,,,,,,,,,,,,,,,,,,,,,,,,,,,,,,,,,,,,,,,,,,,,,,,,,,,,,,,,,,,,,,,,,,,,,,,,,,,,,,,,,,,,,,,,,,,,,,,,,,,,,,,,,,,,,,,,,,,,,,,,,,,,,,,,,,,,,,,,,,,,,,
,,,,,,6133586c82c52424d8d5ed6a,62c53ac9bfdcea14d8b4879c,2022-07-06_09h35.11.575,Colour_Asymmetry_Pilot,2022.1.3,Win32,60.33546519,62c50e9c1127f2cd403a315f,0,26,26,159,1,fourthree,,,,,,,,,,,,,,,,,,,,,,,,,,,,,,,,,,,,,,,,,,,,,,,,,,,,,,,,,,,,,,,,,,,,,,,,,,,,,,,,,,,,,,,,,,,,,,,,,,,,,,,,,,,,,,,,,,,,,,,,,,,,,,,,,,,,,,,,,,,,,,,,,,,,,,,,,,,,,
,,,,,,6133586c82c52424d8d5ed6a,62c53ac9bfdcea14d8b4879c,2022-07-06_09h35.11.575,Colour_Asymmetry_Pilot,2022.1.3,Win32,60.33546519,62c50e9c1127f2cd403a315f,0,27,27,145,1,onethree,,,,,,,,,,,,,,,,,,,,,,,,,,,,,,,,,,,,,,,,,,,,,,,,,,,,,,,,,,,,,,,,,,,,,,,,,,,,,,,,,,,,,,,,,,,,,,,,,,,,,,,,,,,,,,,,,,,,,,,,,,,,,,,,,,,,,,,,,,,,,,,,,,,,,,,,,,,,,
,,,,,,6133586c82c52424d8d5ed6a,62c53ac9bfdcea14d8b4879c,2022-07-06_09h35.11.575,Colour_Asymmetry_Pilot,2022.1.3,Win32,60.33546519,62c50e9c1127f2cd403a315f,0,28,28,71,1,fourthree,,,,,,,,,,,,,,,,,,,,,,,,,,,,,,,,,,,,,,,,,,,,,,,,,,,,,,,,,,,,,,,,,,,,,,,,,,,,,,,,,,,,,,,,,,,,,,,,,,,,,,,,,,,,,,,,,,,,,,,,,,,,,,,,,,,,,,,,,,,,,,,,,,,,,,,,,,,,,
,,,,,,6133586c82c52424d8d5ed6a,62c53ac9bfdcea14d8b4879c,2022-07-06_09h35.11.575,Colour_Asymmetry_Pilot,2022.1.3,Win32,60.33546519,62c50e9c1127f2cd403a315f,0,29,29,4,1,threeone,,,,,,,,,,,,,,,,,,,,,,,,,,,,,,,,,,,,,,,,,,,,,,,,,,,,,,,,,,,,,,,,,,,,,,,,,,,,,,,,,,,,,,,,,,,,,,,,,,,,,,,,,,,,,,,,,,,,,,,,,,,,,,,,,,,,,,,,,,,,,,,,,,,,,,,,,,,,,
,,,,,,6133586c82c52424d8d5ed6a,62c53ac9bfdcea14d8b4879c,2022-07-06_09h35.11.575,Colour_Asymmetry_Pilot,2022.1.3,Win32,60.33546519,62c50e9c1127f2cd403a315f,0,30,30,76,1,threeone,,,,,,,,,,,,,,,,,,,,,,,,,,,,,,,,,,,,,,,,,,,,,,,,,,,,,,,,,,,,,,,,,,,,,,,,,,,,,,,,,,,,,,,,,,,,,,,,,,,,,,,,,,,,,,,,,,,,,,,,,,,,,,,,,,,,,,,,,,,,,,,,,,,,,,,,,,,,,
,,,,,,6133586c82c52424d8d5ed6a,62c53ac9bfdcea14d8b4879c,2022-07-06_09h35.11.575,Colour_Asymmetry_Pilot,2022.1.3,Win32,60.33546519,62c50e9c1127f2cd403a315f,0,31,31,118,1,fourtwo,,,,,,,,,,,,,,,,,,,,,,,,,,,,,,,,,,,,,,,,,,,,,,,,,,,,,,,,,,,,,,,,,,,,,,,,,,,,,,,,,,,,,,,,,,,,,,,,,,,,,,,,,,,,,,,,,,,,,,,,,,,,,,,,,,,,,,,,,,,,,,,,,,,,,,,,,,,,,
,,,,,,6133586c82c52424d8d5ed6a,62c53ac9bfdcea14d8b4879c,2022-07-06_09h35.11.575,Colour_Asymmetry_Pilot,2022.1.3,Win32,60.33546519,62c50e9c1127f2cd403a315f,0,32,32,6,1,fourtwo,,,,,,,,,,,,,,,,,,,,,,,,,,,,,,,,,,,,,,,,,,,,,,,,,,,,,,,,,,,,,,,,,,,,,,,,,,,,,,,,,,,,,,,,,,,,,,,,,,,,,,,,,,,,,,,,,,,,,,,,,,,,,,,,,,,,,,,,,,,,,,,,,,,,,,,,,,,,,
,,,,,,6133586c82c52424d8d5ed6a,62c53ac9bfdcea14d8b4879c,2022-07-06_09h35.11.575,Colour_Asymmetry_Pilot,2022.1.3,Win32,60.33546519,62c50e9c1127f2cd403a315f,0,33,33,115,1,twofour,,,,,,,,,,,,,,,,,,,,,,,,,,,,,,,,,,,,,,,,,,,,,,,,,,,,,,,,,,,,,,,,,,,,,,,,,,,,,,,,,,,,,,,,,,,,,,,,,,,,,,,,,,,,,,,,,,,,,,,,,,,,,,,,,,,,,,,,,,,,,,,,,,,,,,,,,,,,,
,,,,,,6133586c82c52424d8d5ed6a,62c53ac9bfdcea14d8b4879c,2022-07-06_09h35.11.575,Colour_Asymmetry_Pilot,2022.1.3,Win32,60.33546519,62c50e9c1127f2cd403a315f,0,34,34,63,1,fourthree,,,,,,,,,,,,,,,,,,,,,,,,,,,,,,,,,,,,,,,,,,,,,,,,,,,,,,,,,,,,,,,,,,,,,,,,,,,,,,,,,,,,,,,,,,,,,,,,,,,,,,,,,,,,,,,,,,,,,,,,,,,,,,,,,,,,,,,,,,,,,,,,,,,,,,,,,,,,,
,,,,,,6133586c82c52424d8d5ed6a,62c53ac9bfdcea14d8b4879c,2022-07-06_09h35.11.575,Colour_Asymmetry_Pilot,2022.1.3,Win32,60.33546519,62c50e9c1127f2cd403a315f,0,35,35,48,1,onetwo,,,,,,,,,,,,,,,,,,,,,,,,,,,,,,,,,,,,,,,,,,,,,,,,,,,,,,,,,,,,,,,,,,,,,,,,,,,,,,,,,,,,,,,,,,,,,,,,,,,,,,,,,,,,,,,,,,,,,,,,,,,,,,,,,,,,,,,,,,,,,,,,,,,,,,,,,,,,,
,,,,,,6133586c82c52424d8d5ed6a,62c53ac9bfdcea14d8b4879c,2022-07-06_09h35.11.575,Colour_Asymmetry_Pilot,2022.1.3,Win32,60.33546519,62c50e9c1127f2cd403a315f,0,36,36,82,1,twoone,,,,,,,,,,,,,,,,,,,,,,,,,,,,,,,,,,,,,,,,,,,,,,,,,,,,,,,,,,,,,,,,,,,,,,,,,,,,,,,,,,,,,,,,,,,,,,,,,,,,,,,,,,,,,,,,,,,,,,,,,,,,,,,,,,,,,,,,,,,,,,,,,,,,,,,,,,,,,
,,,,,,6133586c82c52424d8d5ed6a,62c53ac9bfdcea14d8b4879c,2022-07-06_09h35.11.575,Colour_Asymmetry_Pilot,2022.1.3,Win32,60.33546519,62c50e9c1127f2cd403a315f,0,37,37,68,1,threeone,,,,,,,,,,,,,,,,,,,,,,,,,,,,,,,,,,,,,,,,,,,,,,,,,,,,,,,,,,,,,,,,,,,,,,,,,,,,,,,,,,,,,,,,,,,,,,,,,,,,,,,,,,,,,,,,,,,,,,,,,,,,,,,,,,,,,,,,,,,,,,,,,,,,,,,,,,,,,
,,,,,,6133586c82c52424d8d5ed6a,62c53ac9bfdcea14d8b4879c,2022-07-06_09h35.11.575,Colour_Asymmetry_Pilot,2022.1.3,Win32,60.33546519,62c50e9c1127f2cd403a315f,0,38,38,152,1,onetwo,,,,,,,,,,,,,,,,,,,,,,,,,,,,,,,,,,,,,,,,,,,,,,,,,,,,,,,,,,,,,,,,,,,,,,,,,,,,,,,,,,,,,,,,,,,,,,,,,,,,,,,,,,,,,,,,,,,,,,,,,,,,,,,,,,,,,,,,,,,,,,,,,,,,,,,,,,,,,
,,,,,,6133586c82c52424d8d5ed6a,62c53ac9bfdcea14d8b4879c,2022-07-06_09h35.11.575,Colour_Asymmetry_Pilot,2022.1.3,Win32,60.33546519,62c50e9c1127f2cd403a315f,0,39,39,31,1,fourthree,,,,,,,,,,,,,,,,,,,,,,,,,,,,,,,,,,,,,,,,,,,,,,,,,,,,,,,,,,,,,,,,,,,,,,,,,,,,,,,,,,,,,,,,,,,,,,,,,,,,,,,,,,,,,,,,,,,,,,,,,,,,,,,,,,,,,,,,,,,,,,,,,,,,,,,,,,,,,
,,,,,,6133586c82c52424d8d5ed6a,62c53ac9bfdcea14d8b4879c,2022-07-06_09h35.11.575,Colour_Asymmetry_Pilot,2022.1.3,Win32,60.33546519,62c50e9c1127f2cd403a315f,0,40,40,111,1,fourthree,,,,,,,,,,,,,,,,,,,,,,,,,,,,,,,,,,,,,,,,,,,,,,,,,,,,,,,,,,,,,,,,,,,,,,,,,,,,,,,,,,,,,,,,,,,,,,,,,,,,,,,,,,,,,,,,,,,,,,,,,,,,,,,,,,,,,,,,,,,,,,,,,,,,,,,,,,,,,
,,,,,,6133586c82c52424d8d5ed6a,62c53ac9bfdcea14d8b4879c,2022-07-06_09h35.11.575,Colour_Asymmetry_Pilot,2022.1.3,Win32,60.33546519,62c50e9c1127f2cd403a315f,0,41,41,45,1,threefour,,,,,,,,,,,,,,,,,,,,,,,,,,,,,,,,,,,,,,,,,,,,,,,,,,,,,,,,,,,,,,,,,,,,,,,,,,,,,,,,,,,,,,,,,,,,,,,,,,,,,,,,,,,,,,,,,,,,,,,,,,,,,,,,,,,,,,,,,,,,,,,,,,,,,,,,,,,,,
,,,,,,6133586c82c52424d8d5ed6a,62c53ac9bfdcea14d8b4879c,2022-07-06_09h35.11.575,Colour_Asymmetry_Pilot,2022.1.3,Win32,60.33546519,62c50e9c1127f2cd403a315f,0,42,42,94,1,fourtwo,,,,,,,,,,,,,,,,,,,,,,,,,,,,,,,,,,,,,,,,,,,,,,,,,,,,,,,,,,,,,,,,,,,,,,,,,,,,,,,,,,,,,,,,,,,,,,,,,,,,,,,,,,,,,,,,,,,,,,,,,,,,,,,,,,,,,,,,,,,,,,,,,,,,,,,,,,,,,
,,,,,,6133586c82c52424d8d5ed6a,62c53ac9bfdcea14d8b4879c,2022-07-06_09h35.11.575,Colour_Asymmetry_Pilot,2022.1.3,Win32,60.33546519,62c50e9c1127f2cd403a315f,0,43,43,134,1,fourtwo,,,,,,,,,,,,,,,,,,,,,,,,,,,,,,,,,,,,,,,,,,,,,,,,,,,,,,,,,,,,,,,,,,,,,,,,,,,,,,,,,,,,,,,,,,,,,,,,,,,,,,,,,,,,,,,,,,,,,,,,,,,,,,,,,,,,,,,,,,,,,,,,,,,,,,,,,,,,,
,,,,,,6133586c82c52424d8d5ed6a,62c53ac9bfdcea14d8b4879c,2022-07-06_09h35.11.575,Colour_Asymmetry_Pilot,2022.1.3,Win32,60.33546519,62c50e9c1127f2cd403a315f,0,44,44,133,1,threefour,,,,,,,,,,,,,,,,,,,,,,,,,,,,,,,,,,,,,,,,,,,,,,,,,,,,,,,,,,,,,,,,,,,,,,,,,,,,,,,,,,,,,,,,,,,,,,,,,,,,,,,,,,,,,,,,,,,,,,,,,,,,,,,,,,,,,,,,,,,,,,,,,,,,,,,,,,,,,
,,,,,,6133586c82c52424d8d5ed6a,62c53ac9bfdcea14d8b4879c,2022-07-06_09h35.11.575,Colour_Asymmetry_Pilot,2022.1.3,Win32,60.33546519,62c50e9c1127f2cd403a315f,0,45,45,136,1,onetwo,,,,,,,,,,,,,,,,,,,,,,,,,,,,,,,,,,,,,,,,,,,,,,,,,,,,,,,,,,,,,,,,,,,,,,,,,,,,,,,,,,,,,,,,,,,,,,,,,,,,,,,,,,,,,,,,,,,,,,,,,,,,,,,,,,,,,,,,,,,,,,,,,,,,,,,,,,,,,
,,,,,,6133586c82c52424d8d5ed6a,62c53ac9bfdcea14d8b4879c,2022-07-06_09h35.11.575,Colour_Asymmetry_Pilot,2022.1.3,Win32,60.33546519,62c50e9c1127f2cd403a315f,0,46,46,122,1,twoone,,,,,,,,,,,,,,,,,,,,,,,,,,,,,,,,,,,,,,,,,,,,,,,,,,,,,,,,,,,,,,,,,,,,,,,,,,,,,,,,,,,,,,,,,,,,,,,,,,,,,,,,,,,,,,,,,,,,,,,,,,,,,,,,,,,,,,,,,,,,,,,,,,,,,,,,,,,,,
,,,,,,6133586c82c52424d8d5ed6a,62c53ac9bfdcea14d8b4879c,2022-07-06_09h35.11.575,Colour_Asymmetry_Pilot,2022.1.3,Win32,60.33546519,62c50e9c1127f2cd403a315f,0,47,47,153,1,onethree,,,,,,,,,,,,,,,,,,,,,,,,,,,,,,,,,,,,,,,,,,,,,,,,,,,,,,,,,,,,,,,,,,,,,,,,,,,,,,,,,,,,,,,,,,,,,,,,,,,,,,,,,,,,,,,,,,,,,,,,,,,,,,,,,,,,,,,,,,,,,,,,,,,,,,,,,,,,,
,,,,,,6133586c82c52424d8d5ed6a,62c53ac9bfdcea14d8b4879c,2022-07-06_09h35.11.575,Colour_Asymmetry_Pilot,2022.1.3,Win32,60.33546519,62c50e9c1127f2cd403a315f,0,48,48,28,1,threeone,,,,,,,,,,,,,,,,,,,,,,,,,,,,,,,,,,,,,,,,,,,,,,,,,,,,,,,,,,,,,,,,,,,,,,,,,,,,,,,,,,,,,,,,,,,,,,,,,,,,,,,,,,,,,,,,,,,,,,,,,,,,,,,,,,,,,,,,,,,,,,,,,,,,,,,,,,,,,
,,,,,,6133586c82c52424d8d5ed6a,62c53ac9bfdcea14d8b4879c,2022-07-06_09h35.11.575,Colour_Asymmetry_Pilot,2022.1.3,Win32,60.33546519,62c50e9c1127f2cd403a315f,0,49,49,137,1,onethree,,,,,,,,,,,,,,,,,,,,,,,,,,,,,,,,,,,,,,,,,,,,,,,,,,,,,,,,,,,,,,,,,,,,,,,,,,,,,,,,,,,,,,,,,,,,,,,,,,,,,,,,,,,,,,,,,,,,,,,,,,,,,,,,,,,,,,,,,,,,,,,,,,,,,,,,,,,,,
,,,,,,6133586c82c52424d8d5ed6a,62c53ac9bfdcea14d8b4879c,2022-07-06_09h35.11.575,Colour_Asymmetry_Pilot,2022.1.3,Win32,60.33546519,62c50e9c1127f2cd403a315f,0,50,50,120,1,onetwo,,,,,,,,,,,,,,,,,,,,,,,,,,,,,,,,,,,,,,,,,,,,,,,,,,,,,,,,,,,,,,,,,,,,,,,,,,,,,,,,,,,,,,,,,,,,,,,,,,,,,,,,,,,,,,,,,,,,,,,,,,,,,,,,,,,,,,,,,,,,,,,,,,,,,,,,,,,,,
,,,,,,6133586c82c52424d8d5ed6a,62c53ac9bfdcea14d8b4879c,2022-07-06_09h35.11.575,Colour_Asymmetry_Pilot,2022.1.3,Win32,60.33546519,62c50e9c1127f2cd403a315f,0,51,51,86,1,fourtwo,,,,,,,,,,,,,,,,,,,,,,,,,,,,,,,,,,,,,,,,,,,,,,,,,,,,,,,,,,,,,,,,,,,,,,,,,,,,,,,,,,,,,,,,,,,,,,,,,,,,,,,,,,,,,,,,,,,,,,,,,,,,,,,,,,,,,,,,,,,,,,,,,,,,,,,,,,,,,
,,,,,,6133586c82c52424d8d5ed6a,62c53ac9bfdcea14d8b4879c,2022-07-06_09h35.11.575,Colour_Asymmetry_Pilot,2022.1.3,Win32,60.33546519,62c50e9c1127f2cd403a315f,0,52,52,78,1,fourtwo,,,,,,,,,,,,,,,,,,,,,,,,,,,,,,,,,,,,,,,,,,,,,,,,,,,,,,,,,,,,,,,,,,,,,,,,,,,,,,,,,,,,,,,,,,,,,,,,,,,,,,,,,,,,,,,,,,,,,,,,,,,,,,,,,,,,,,,,,,,,,,,,,,,,,,,,,,,,,
,,,,,,6133586c82c52424d8d5ed6a,62c53ac9bfdcea14d8b4879c,2022-07-06_09h35.11.575,Colour_Asymmetry_Pilot,2022.1.3,Win32,60.33546519,62c50e9c1127f2cd403a315f,0,53,53,72,1,onetwo,,,,,,,,,,,,,,,,,,,,,,,,,,,,,,,,,,,,,,,,,,,,,,,,,,,,,,,,,,,,,,,,,,,,,,,,,,,,,,,,,,,,,,,,,,,,,,,,,,,,,,,,,,,,,,,,,,,,,,,,,,,,,,,,,,,,,,,,,,,,,,,,,,,,,,,,,,,,,
,,,,,,6133586c82c52424d8d5ed6a,62c53ac9bfdcea14d8b4879c,2022-07-06_09h35.11.575,Colour_Asymmetry_Pilot,2022.1.3,Win32,60.33546519,62c50e9c1127f2cd403a315f,0,54,54,139,1,twofour,,,,,,,,,,,,,,,,,,,,,,,,,,,,,,,,,,,,,,,,,,,,,,,,,,,,,,,,,,,,,,,,,,,,,,,,,,,,,,,,,,,,,,,,,,,,,,,,,,,,,,,,,,,,,,,,,,,,,,,,,,,,,,,,,,,,,,,,,,,,,,,,,,,,,,,,,,,,,
,,,,,,6133586c82c52424d8d5ed6a,62c53ac9bfdcea14d8b4879c,2022-07-06_09h35.11.575,Colour_Asymmetry_Pilot,2022.1.3,Win32,60.33546519,62c50e9c1127f2cd403a315f,0,55,55,140,1,threeone,,,,,,,,,,,,,,,,,,,,,,,,,,,,,,,,,,,,,,,,,,,,,,,,,,,,,,,,,,,,,,,,,,,,,,,,,,,,,,,,,,,,,,,,,,,,,,,,,,,,,,,,,,,,,,,,,,,,,,,,,,,,,,,,,,,,,,,,,,,,,,,,,,,,,,,,,,,,,
,,,,,,6133586c82c52424d8d5ed6a,62c53ac9bfdcea14d8b4879c,2022-07-06_09h35.11.575,Colour_Asymmetry_Pilot,2022.1.3,Win32,60.33546519,62c50e9c1127f2cd403a315f,0,56,56,3,1,twofour,,,,,,,,,,,,,,,,,,,,,,,,,,,,,,,,,,,,,,,,,,,,,,,,,,,,,,,,,,,,,,,,,,,,,,,,,,,,,,,,,,,,,,,,,,,,,,,,,,,,,,,,,,,,,,,,,,,,,,,,,,,,,,,,,,,,,,,,,,,,,,,,,,,,,,,,,,,,,
,,,,,,6133586c82c52424d8d5ed6a,62c53ac9bfdcea14d8b4879c,2022-07-06_09h35.11.575,Colour_Asymmetry_Pilot,2022.1.3,Win32,60.33546519,62c50e9c1127f2cd403a315f,0,57,57,107,1,twofour,,,,,,,,,,,,,,,,,,,,,,,,,,,,,,,,,,,,,,,,,,,,,,,,,,,,,,,,,,,,,,,,,,,,,,,,,,,,,,,,,,,,,,,,,,,,,,,,,,,,,,,,,,,,,,,,,,,,,,,,,,,,,,,,,,,,,,,,,,,,,,,,,,,,,,,,,,,,,
,,,,,,6133586c82c52424d8d5ed6a,62c53ac9bfdcea14d8b4879c,2022-07-06_09h35.11.575,Colour_Asymmetry_Pilot,2022.1.3,Win32,60.33546519,62c50e9c1127f2cd403a315f,0,58,58,7,1,fourthree,,,,,,,,,,,,,,,,,,,,,,,,,,,,,,,,,,,,,,,,,,,,,,,,,,,,,,,,,,,,,,,,,,,,,,,,,,,,,,,,,,,,,,,,,,,,,,,,,,,,,,,,,,,,,,,,,,,,,,,,,,,,,,,,,,,,,,,,,,,,,,,,,,,,,,,,,,,,,
,,,,,,6133586c82c52424d8d5ed6a,62c53ac9bfdcea14d8b4879c,2022-07-06_09h35.11.575,Colour_Asymmetry_Pilot,2022.1.3,Win32,60.33546519,62c50e9c1127f2cd403a315f,0,59,59,60,1,threeone,,,,,,,,,,,,,,,,,,,,,,,,,,,,,,,,,,,,,,,,,,,,,,,,,,,,,,,,,,,,,,,,,,,,,,,,,,,,,,,,,,,,,,,,,,,,,,,,,,,,,,,,,,,,,,,,,,,,,,,,,,,,,,,,,,,,,,,,,,,,,,,,,,,,,,,,,,,,,
,,,,,,6133586c82c52424d8d5ed6a,62c53ac9bfdcea14d8b4879c,2022-07-06_09h35.11.575,Colour_Asymmetry_Pilot,2022.1.3,Win32,60.33546519,62c50e9c1127f2cd403a315f,0,60,60,33,1,onethree,,,,,,,,,,,,,,,,,,,,,,,,,,,,,,,,,,,,,,,,,,,,,,,,,,,,,,,,,,,,,,,,,,,,,,,,,,,,,,,,,,,,,,,,,,,,,,,,,,,,,,,,,,,,,,,,,,,,,,,,,,,,,,,,,,,,,,,,,,,,,,,,,,,,,,,,,,,,,
,,,,,,6133586c82c52424d8d5ed6a,62c53ac9bfdcea14d8b4879c,2022-07-06_09h35.11.575,Colour_Asymmetry_Pilot,2022.1.3,Win32,60.33546519,62c50e9c1127f2cd403a315f,0,61,61,106,1,twoone,,,,,,,,,,,,,,,,,,,,,,,,,,,,,,,,,,,,,,,,,,,,,,,,,,,,,,,,,,,,,,,,,,,,,,,,,,,,,,,,,,,,,,,,,,,,,,,,,,,,,,,,,,,,,,,,,,,,,,,,,,,,,,,,,,,,,,,,,,,,,,,,,,,,,,,,,,,,,
,,,,,,6133586c82c52424d8d5ed6a,62c53ac9bfdcea14d8b4879c,2022-07-06_09h35.11.575,Colour_Asymmetry_Pilot,2022.1.3,Win32,60.33546519,62c50e9c1127f2cd403a315f,0,62,62,96,1,onetwo,,,,,,,,,,,,,,,,,,,,,,,,,,,,,,,,,,,,,,,,,,,,,,,,,,,,,,,,,,,,,,,,,,,,,,,,,,,,,,,,,,,,,,,,,,,,,,,,,,,,,,,,,,,,,,,,,,,,,,,,,,,,,,,,,,,,,,,,,,,,,,,,,,,,,,,,,,,,,
,,,,,,6133586c82c52424d8d5ed6a,62c53ac9bfdcea14d8b4879c,2022-07-06_09h35.11.575,Colour_Asymmetry_Pilot,2022.1.3,Win32,60.33546519,62c50e9c1127f2cd403a315f,0,63,63,5,1,threefour,,,,,,,,,,,,,,,,,,,,,,,,,,,,,,,,,,,,,,,,,,,,,,,,,,,,,,,,,,,,,,,,,,,,,,,,,,,,,,,,,,,,,,,,,,,,,,,,,,,,,,,,,,,,,,,,,,,,,,,,,,,,,,,,,,,,,,,,,,,,,,,,,,,,,,,,,,,,,
,,,,,,6133586c82c52424d8d5ed6a,62c53ac9bfdcea14d8b4879c,2022-07-06_09h35.11.575,Colour_Asymmetry_Pilot,2022.1.3,Win32,60.33546519,62c50e9c1127f2cd403a315f,0,64,64,144,1,onetwo,,,,,,,,,,,,,,,,,,,,,,,,,,,,,,,,,,,,,,,,,,,,,,,,,,,,,,,,,,,,,,,,,,,,,,,,,,,,,,,,,,,,,,,,,,,,,,,,,,,,,,,,,,,,,,,,,,,,,,,,,,,,,,,,,,,,,,,,,,,,,,,,,,,,,,,,,,,,,
,,,,,,6133586c82c52424d8d5ed6a,62c53ac9bfdcea14d8b4879c,2022-07-06_09h35.11.575,Colour_Asymmetry_Pilot,2022.1.3,Win32,60.33546519,62c50e9c1127f2cd403a315f,0,65,65,156,1,threeone,,,,,,,,,,,,,,,,,,,,,,,,,,,,,,,,,,,,,,,,,,,,,,,,,,,,,,,,,,,,,,,,,,,,,,,,,,,,,,,,,,,,,,,,,,,,,,,,,,,,,,,,,,,,,,,,,,,,,,,,,,,,,,,,,,,,,,,,,,,,,,,,,,,,,,,,,,,,,
,,,,,,6133586c82c52424d8d5ed6a,62c53ac9bfdcea14d8b4879c,2022-07-06_09h35.11.575,Colour_Asymmetry_Pilot,2022.1.3,Win32,60.33546519,62c50e9c1127f2cd403a315f,0,66,66,124,1,threeone,,,,,,,,,,,,,,,,,,,,,,,,,,,,,,,,,,,,,,,,,,,,,,,,,,,,,,,,,,,,,,,,,,,,,,,,,,,,,,,,,,,,,,,,,,,,,,,,,,,,,,,,,,,,,,,,,,,,,,,,,,,,,,,,,,,,,,,,,,,,,,,,,,,,,,,,,,,,,
,,,,,,6133586c82c52424d8d5ed6a,62c53ac9bfdcea14d8b4879c,2022-07-06_09h35.11.575,Colour_Asymmetry_Pilot,2022.1.3,Win32,60.33546519,62c50e9c1127f2cd403a315f,0,67,67,66,1,twoone,,,,,,,,,,,,,,,,,,,,,,,,,,,,,,,,,,,,,,,,,,,,,,,,,,,,,,,,,,,,,,,,,,,,,,,,,,,,,,,,,,,,,,,,,,,,,,,,,,,,,,,,,,,,,,,,,,,,,,,,,,,,,,,,,,,,,,,,,,,,,,,,,,,,,,,,,,,,,
,,,,,,6133586c82c52424d8d5ed6a,62c53ac9bfdcea14d8b4879c,2022-07-06_09h35.11.575,Colour_Asymmetry_Pilot,2022.1.3,Win32,60.33546519,62c50e9c1127f2cd403a315f,0,68,68,132,1,threeone,,,,,,,,,,,,,,,,,,,,,,,,,,,,,,,,,,,,,,,,,,,,,,,,,,,,,,,,,,,,,,,,,,,,,,,,,,,,,,,,,,,,,,,,,,,,,,,,,,,,,,,,,,,,,,,,,,,,,,,,,,,,,,,,,,,,,,,,,,,,,,,,,,,,,,,,,,,,,
,,,,,,6133586c82c52424d8d5ed6a,62c53ac9bfdcea14d8b4879c,2022-07-06_09h35.11.575,Colour_Asymmetry_Pilot,2022.1.3,Win32,60.33546519,62c50e9c1127f2cd403a315f,0,69,69,21,1,threefour,,,,,,,,,,,,,,,,,,,,,,,,,,,,,,,,,,,,,,,,,,,,,,,,,,,,,,,,,,,,,,,,,,,,,,,,,,,,,,,,,,,,,,,,,,,,,,,,,,,,,,,,,,,,,,,,,,,,,,,,,,,,,,,,,,,,,,,,,,,,,,,,,,,,,,,,,,,,,
,,,,,,6133586c82c52424d8d5ed6a,62c53ac9bfdcea14d8b4879c,2022-07-06_09h35.11.575,Colour_Asymmetry_Pilot,2022.1.3,Win32,60.33546519,62c50e9c1127f2cd403a315f,0,70,70,121,1,onethree,,,,,,,,,,,,,,,,,,,,,,,,,,,,,,,,,,,,,,,,,,,,,,,,,,,,,,,,,,,,,,,,,,,,,,,,,,,,,,,,,,,,,,,,,,,,,,,,,,,,,,,,,,,,,,,,,,,,,,,,,,,,,,,,,,,,,,,,,,,,,,,,,,,,,,,,,,,,,
,,,,,,6133586c82c52424d8d5ed6a,62c53ac9bfdcea14d8b4879c,2022-07-06_09h35.11.575,Colour_Asymmetry_Pilot,2022.1.3,Win32,60.33546519,62c50e9c1127f2cd403a315f,0,71,71,22,1,fourtwo,,,,,,,,,,,,,,,,,,,,,,,,,,,,,,,,,,,,,,,,,,,,,,,,,,,,,,,,,,,,,,,,,,,,,,,,,,,,,,,,,,,,,,,,,,,,,,,,,,,,,,,,,,,,,,,,,,,,,,,,,,,,,,,,,,,,,,,,,,,,,,,,,,,,,,,,,,,,,
,,,,,,6133586c82c52424d8d5ed6a,62c53ac9bfdcea14d8b4879c,2022-07-06_09h35.11.575,Colour_Asymmetry_Pilot,2022.1.3,Win32,60.33546519,62c50e9c1127f2cd403a315f,0,72,72,43,1,twofour,,,,,,,,,,,,,,,,,,,,,,,,,,,,,,,,,,,,,,,,,,,,,,,,,,,,,,,,,,,,,,,,,,,,,,,,,,,,,,,,,,,,,,,,,,,,,,,,,,,,,,,,,,,,,,,,,,,,,,,,,,,,,,,,,,,,,,,,,,,,,,,,,,,,,,,,,,,,,
,,,,,,6133586c82c52424d8d5ed6a,62c53ac9bfdcea14d8b4879c,2022-07-06_09h35.11.575,Colour_Asymmetry_Pilot,2022.1.3,Win32,60.33546519,62c50e9c1127f2cd403a315f,0,73,73,117,1,threefour,,,,,,,,,,,,,,,,,,,,,,,,,,,,,,,,,,,,,,,,,,,,,,,,,,,,,,,,,,,,,,,,,,,,,,,,,,,,,,,,,,,,,,,,,,,,,,,,,,,,,,,,,,,,,,,,,,,,,,,,,,,,,,,,,,,,,,,,,,,,,,,,,,,,,,,,,,,,,
,,,,,,6133586c82c52424d8d5ed6a,62c53ac9bfdcea14d8b4879c,2022-07-06_09h35.11.575,Colour_Asymmetry_Pilot,2022.1.3,Win32,60.33546519,62c50e9c1127f2cd403a315f,0,74,74,62,1,fourtwo,,,,,,,,,,,,,,,,,,,,,,,,,,,,,,,,,,,,,,,,,,,,,,,,,,,,,,,,,,,,,,,,,,,,,,,,,,,,,,,,,,,,,,,,,,,,,,,,,,,,,,,,,,,,,,,,,,,,,,,,,,,,,,,,,,,,,,,,,,,,,,,,,,,,,,,,,,,,,
,,,,,,6133586c82c52424d8d5ed6a,62c53ac9bfdcea14d8b4879c,2022-07-06_09h35.11.575,Colour_Asymmetry_Pilot,2022.1.3,Win32,60.33546519,62c50e9c1127f2cd403a315f,0,75,75,157,1,threefour,,,,,,,,,,,,,,,,,,,,,,,,,,,,,,,,,,,,,,,,,,,,,,,,,,,,,,,,,,,,,,,,,,,,,,,,,,,,,,,,,,,,,,,,,,,,,,,,,,,,,,,,,,,,,,,,,,,,,,,,,,,,,,,,,,,,,,,,,,,,,,,,,,,,,,,,,,,,,
,,,,,,6133586c82c52424d8d5ed6a,62c53ac9bfdcea14d8b4879c,2022-07-06_09h35.11.575,Colour_Asymmetry_Pilot,2022.1.3,Win32,60.33546519,62c50e9c1127f2cd403a315f,0,76,76,26,1,twoone,,,,,,,,,,,,,,,,,,,,,,,,,,,,,,,,,,,,,,,,,,,,,,,,,,,,,,,,,,,,,,,,,,,,,,,,,,,,,,,,,,,,,,,,,,,,,,,,,,,,,,,,,,,,,,,,,,,,,,,,,,,,,,,,,,,,,,,,,,,,,,,,,,,,,,,,,,,,,
,,,,,,6133586c82c52424d8d5ed6a,62c53ac9bfdcea14d8b4879c,2022-07-06_09h35.11.575,Colour_Asymmetry_Pilot,2022.1.3,Win32,60.33546519,62c50e9c1127f2cd403a315f,0,77,77,73,1,onethree,,,,,,,,,,,,,,,,,,,,,,,,,,,,,,,,,,,,,,,,,,,,,,,,,,,,,,,,,,,,,,,,,,,,,,,,,,,,,,,,,,,,,,,,,,,,,,,,,,,,,,,,,,,,,,,,,,,,,,,,,,,,,,,,,,,,,,,,,,,,,,,,,,,,,,,,,,,,,
,,,,,,6133586c82c52424d8d5ed6a,62c53ac9bfdcea14d8b4879c,2022-07-06_09h35.11.575,Colour_Asymmetry_Pilot,2022.1.3,Win32,60.33546519,62c50e9c1127f2cd403a315f,0,78,78,64,1,onetwo,,,,,,,,,,,,,,,,,,,,,,,,,,,,,,,,,,,,,,,,,,,,,,,,,,,,,,,,,,,,,,,,,,,,,,,,,,,,,,,,,,,,,,,,,,,,,,,,,,,,,,,,,,,,,,,,,,,,,,,,,,,,,,,,,,,,,,,,,,,,,,,,,,,,,,,,,,,,,
,,,,,,6133586c82c52424d8d5ed6a,62c53ac9bfdcea14d8b4879c,2022-07-06_09h35.11.575,Colour_Asymmetry_Pilot,2022.1.3,Win32,60.33546519,62c50e9c1127f2cd403a315f,0,79,79,46,1,fourtwo,,,,,,,,,,,,,,,,,,,,,,,,,,,,,,,,,,,,,,,,,,,,,,,,,,,,,,,,,,,,,,,,,,,,,,,,,,,,,,,,,,,,,,,,,,,,,,,,,,,,,,,,,,,,,,,,,,,,,,,,,,,,,,,,,,,,,,,,,,,,,,,,,,,,,,,,,,,,,
,,,,,,6133586c82c52424d8d5ed6a,62c53ac9bfdcea14d8b4879c,2022-07-06_09h35.11.575,Colour_Asymmetry_Pilot,2022.1.3,Win32,60.33546519,62c50e9c1127f2cd403a315f,0,80,80,74,1,twoone,,,,,,,,,,,,,,,,,,,,,,,,,,,,,,,,,,,,,,,,,,,,,,,,,,,,,,,,,,,,,,,,,,,,,,,,,,,,,,,,,,,,,,,,,,,,,,,,,,,,,,,,,,,,,,,,,,,,,,,,,,,,,,,,,,,,,,,,,,,,,,,,,,,,,,,,,,,,,
,,,,,,6133586c82c52424d8d5ed6a,62c53ac9bfdcea14d8b4879c,2022-07-06_09h35.11.575,Colour_Asymmetry_Pilot,2022.1.3,Win32,60.33546519,62c50e9c1127f2cd403a315f,0,81,81,16,1,onetwo,,,,,,,,,,,,,,,,,,,,,,,,,,,,,,,,,,,,,,,,,,,,,,,,,,,,,,,,,,,,,,,,,,,,,,,,,,,,,,,,,,,,,,,,,,,,,,,,,,,,,,,,,,,,,,,,,,,,,,,,,,,,,,,,,,,,,,,,,,,,,,,,,,,,,,,,,,,,,
,,,,,,6133586c82c52424d8d5ed6a,62c53ac9bfdcea14d8b4879c,2022-07-06_09h35.11.575,Colour_Asymmetry_Pilot,2022.1.3,Win32,60.33546519,62c50e9c1127f2cd403a315f,0,82,82,87,1,fourthree,,,,,,,,,,,,,,,,,,,,,,,,,,,,,,,,,,,,,,,,,,,,,,,,,,,,,,,,,,,,,,,,,,,,,,,,,,,,,,,,,,,,,,,,,,,,,,,,,,,,,,,,,,,,,,,,,,,,,,,,,,,,,,,,,,,,,,,,,,,,,,,,,,,,,,,,,,,,,
,,,,,,6133586c82c52424d8d5ed6a,62c53ac9bfdcea14d8b4879c,2022-07-06_09h35.11.575,Colour_Asymmetry_Pilot,2022.1.3,Win32,60.33546519,62c50e9c1127f2cd403a315f,0,83,83,35,1,twofour,,,,,,,,,,,,,,,,,,,,,,,,,,,,,,,,,,,,,,,,,,,,,,,,,,,,,,,,,,,,,,,,,,,,,,,,,,,,,,,,,,,,,,,,,,,,,,,,,,,,,,,,,,,,,,,,,,,,,,,,,,,,,,,,,,,,,,,,,,,,,,,,,,,,,,,,,,,,,
,,,,,,6133586c82c52424d8d5ed6a,62c53ac9bfdcea14d8b4879c,2022-07-06_09h35.11.575,Colour_Asymmetry_Pilot,2022.1.3,Win32,60.33546519,62c50e9c1127f2cd403a315f,0,84,84,53,1,threefour,,,,,,,,,,,,,,,,,,,,,,,,,,,,,,,,,,,,,,,,,,,,,,,,,,,,,,,,,,,,,,,,,,,,,,,,,,,,,,,,,,,,,,,,,,,,,,,,,,,,,,,,,,,,,,,,,,,,,,,,,,,,,,,,,,,,,,,,,,,,,,,,,,,,,,,,,,,,,
,,,,,,6133586c82c52424d8d5ed6a,62c53ac9bfdcea14d8b4879c,2022-07-06_09h35.11.575,Colour_Asymmetry_Pilot,2022.1.3,Win32,60.33546519,62c50e9c1127f2cd403a315f,0,85,85,142,1,fourtwo,,,,,,,,,,,,,,,,,,,,,,,,,,,,,,,,,,,,,,,,,,,,,,,,,,,,,,,,,,,,,,,,,,,,,,,,,,,,,,,,,,,,,,,,,,,,,,,,,,,,,,,,,,,,,,,,,,,,,,,,,,,,,,,,,,,,,,,,,,,,,,,,,,,,,,,,,,,,,
,,,,,,6133586c82c52424d8d5ed6a,62c53ac9bfdcea14d8b4879c,2022-07-06_09h35.11.575,Colour_Asymmetry_Pilot,2022.1.3,Win32,60.33546519,62c50e9c1127f2cd403a315f,0,86,86,138,1,twoone,,,,,,,,,,,,,,,,,,,,,,,,,,,,,,,,,,,,,,,,,,,,,,,,,,,,,,,,,,,,,,,,,,,,,,,,,,,,,,,,,,,,,,,,,,,,,,,,,,,,,,,,,,,,,,,,,,,,,,,,,,,,,,,,,,,,,,,,,,,,,,,,,,,,,,,,,,,,,
,,,,,,6133586c82c52424d8d5ed6a,62c53ac9bfdcea14d8b4879c,2022-07-06_09h35.11.575,Colour_Asymmetry_Pilot,2022.1.3,Win32,60.33546519,62c50e9c1127f2cd403a315f,0,87,87,143,1,fourthree,,,,,,,,,,,,,,,,,,,,,,,,,,,,,,,,,,,,,,,,,,,,,,,,,,,,,,,,,,,,,,,,,,,,,,,,,,,,,,,,,,,,,,,,,,,,,,,,,,,,,,,,,,,,,,,,,,,,,,,,,,,,,,,,,,,,,,,,,,,,,,,,,,,,,,,,,,,,,
,,,,,,6133586c82c52424d8d5ed6a,62c53ac9bfdcea14d8b4879c,2022-07-06_09h35.11.575,Colour_Asymmetry_Pilot,2022.1.3,Win32,60.33546519,62c50e9c1127f2cd403a315f,0,88,88,19,1,twofour,,,,,,,,,,,,,,,,,,,,,,,,,,,,,,,,,,,,,,,,,,,,,,,,,,,,,,,,,,,,,,,,,,,,,,,,,,,,,,,,,,,,,,,,,,,,,,,,,,,,,,,,,,,,,,,,,,,,,,,,,,,,,,,,,,,,,,,,,,,,,,,,,,,,,,,,,,,,,
,,,,,,6133586c82c52424d8d5ed6a,62c53ac9bfdcea14d8b4879c,2022-07-06_09h35.11.575,Colour_Asymmetry_Pilot,2022.1.3,Win32,60.33546519,62c50e9c1127f2cd403a315f,0,89,89,131,1,twofour,,,,,,,,,,,,,,,,,,,,,,,,,,,,,,,,,,,,,,,,,,,,,,,,,,,,,,,,,,,,,,,,,,,,,,,,,,,,,,,,,,,,,,,,,,,,,,,,,,,,,,,,,,,,,,,,,,,,,,,,,,,,,,,,,,,,,,,,,,,,,,,,,,,,,,,,,,,,,
,,,,,,6133586c82c52424d8d5ed6a,62c53ac9bfdcea14d8b4879c,2022-07-06_09h35.11.575,Colour_Asymmetry_Pilot,2022.1.3,Win32,60.33546519,62c50e9c1127f2cd403a315f,0,90,90,20,1,threeone,,,,,,,,,,,,,,,,,,,,,,,,,,,,,,,,,,,,,,,,,,,,,,,,,,,,,,,,,,,,,,,,,,,,,,,,,,,,,,,,,,,,,,,,,,,,,,,,,,,,,,,,,,,,,,,,,,,,,,,,,,,,,,,,,,,,,,,,,,,,,,,,,,,,,,,,,,,,,
,,,,,,6133586c82c52424d8d5ed6a,62c53ac9bfdcea14d8b4879c,2022-07-06_09h35.11.575,Colour_Asymmetry_Pilot,2022.1.3,Win32,60.33546519,62c50e9c1127f2cd403a315f,0,91,91,97,1,onethree,,,,,,,,,,,,,,,,,,,,,,,,,,,,,,,,,,,,,,,,,,,,,,,,,,,,,,,,,,,,,,,,,,,,,,,,,,,,,,,,,,,,,,,,,,,,,,,,,,,,,,,,,,,,,,,,,,,,,,,,,,,,,,,,,,,,,,,,,,,,,,,,,,,,,,,,,,,,,
,,,,,,6133586c82c52424d8d5ed6a,62c53ac9bfdcea14d8b4879c,2022-07-06_09h35.11.575,Colour_Asymmetry_Pilot,2022.1.3,Win32,60.33546519,62c50e9c1127f2cd403a315f,0,92,92,147,1,twofour,,,,,,,,,,,,,,,,,,,,,,,,,,,,,,,,,,,,,,,,,,,,,,,,,,,,,,,,,,,,,,,,,,,,,,,,,,,,,,,,,,,,,,,,,,,,,,,,,,,,,,,,,,,,,,,,,,,,,,,,,,,,,,,,,,,,,,,,,,,,,,,,,,,,,,,,,,,,,
,,,,,,6133586c82c52424d8d5ed6a,62c53ac9bfdcea14d8b4879c,2022-07-06_09h35.11.575,Colour_Asymmetry_Pilot,2022.1.3,Win32,60.33546519,62c50e9c1127f2cd403a315f,0,93,93,59,1,twofour,,,,,,,,,,,,,,,,,,,,,,,,,,,,,,,,,,,,,,,,,,,,,,,,,,,,,,,,,,,,,,,,,,,,,,,,,,,,,,,,,,,,,,,,,,,,,,,,,,,,,,,,,,,,,,,,,,,,,,,,,,,,,,,,,,,,,,,,,,,,,,,,,,,,,,,,,,,,,
,,,,,,6133586c82c52424d8d5ed6a,62c53ac9bfdcea14d8b4879c,2022-07-06_09h35.11.575,Colour_Asymmetry_Pilot,2022.1.3,Win32,60.33546519,62c50e9c1127f2cd403a315f,0,94,94,112,1,onetwo,,,,,,,,,,,,,,,,,,,,,,,,,,,,,,,,,,,,,,,,,,,,,,,,,,,,,,,,,,,,,,,,,,,,,,,,,,,,,,,,,,,,,,,,,,,,,,,,,,,,,,,,,,,,,,,,,,,,,,,,,,,,,,,,,,,,,,,,,,,,,,,,,,,,,,,,,,,,,
,,,,,,6133586c82c52424d8d5ed6a,62c53ac9bfdcea14d8b4879c,2022-07-06_09h35.11.575,Colour_Asymmetry_Pilot,2022.1.3,Win32,60.33546519,62c50e9c1127f2cd403a315f,0,95,95,130,1,twoone,,,,,,,,,,,,,,,,,,,,,,,,,,,,,,,,,,,,,,,,,,,,,,,,,,,,,,,,,,,,,,,,,,,,,,,,,,,,,,,,,,,,,,,,,,,,,,,,,,,,,,,,,,,,,,,,,,,,,,,,,,,,,,,,,,,,,,,,,,,,,,,,,,,,,,,,,,,,,
,,,,,,6133586c82c52424d8d5ed6a,62c53ac9bfdcea14d8b4879c,2022-07-06_09h35.11.575,Colour_Asymmetry_Pilot,2022.1.3,Win32,60.33546519,62c50e9c1127f2cd403a315f,0,96,96,17,1,onethree,,,,,,,,,,,,,,,,,,,,,,,,,,,,,,,,,,,,,,,,,,,,,,,,,,,,,,,,,,,,,,,,,,,,,,,,,,,,,,,,,,,,,,,,,,,,,,,,,,,,,,,,,,,,,,,,,,,,,,,,,,,,,,,,,,,,,,,,,,,,,,,,,,,,,,,,,,,,,
,,,,,,6133586c82c52424d8d5ed6a,62c53ac9bfdcea14d8b4879c,2022-07-06_09h35.11.575,Colour_Asymmetry_Pilot,2022.1.3,Win32,60.33546519,62c50e9c1127f2cd403a315f,0,97,97,44,1,threeone,,,,,,,,,,,,,,,,,,,,,,,,,,,,,,,,,,,,,,,,,,,,,,,,,,,,,,,,,,,,,,,,,,,,,,,,,,,,,,,,,,,,,,,,,,,,,,,,,,,,,,,,,,,,,,,,,,,,,,,,,,,,,,,,,,,,,,,,,,,,,,,,,,,,,,,,,,,,,
,,,,,,6133586c82c52424d8d5ed6a,62c53ac9bfdcea14d8b4879c,2022-07-06_09h35.11.575,Colour_Asymmetry_Pilot,2022.1.3,Win32,60.33546519,62c50e9c1127f2cd403a315f,0,98,98,104,1,onetwo,,,,,,,,,,,,,,,,,,,,,,,,,,,,,,,,,,,,,,,,,,,,,,,,,,,,,,,,,,,,,,,,,,,,,,,,,,,,,,,,,,,,,,,,,,,,,,,,,,,,,,,,,,,,,,,,,,,,,,,,,,,,,,,,,,,,,,,,,,,,,,,,,,,,,,,,,,,,,
,,,,,,6133586c82c52424d8d5ed6a,62c53ac9bfdcea14d8b4879c,2022-07-06_09h35.11.575,Colour_Asymmetry_Pilot,2022.1.3,Win32,60.33546519,62c50e9c1127f2cd403a315f,0,99,99,54,1,fourtwo,,,,,,,,,,,,,,,,,,,,,,,,,,,,,,,,,,,,,,,,,,,,,,,,,,,,,,,,,,,,,,,,,,,,,,,,,,,,,,,,,,,,,,,,,,,,,,,,,,,,,,,,,,,,,,,,,,,,,,,,,,,,,,,,,,,,,,,,,,,,,,,,,,,,,,,,,,,,,
,,,,,,6133586c82c52424d8d5ed6a,62c53ac9bfdcea14d8b4879c,2022-07-06_09h35.11.575,Colour_Asymmetry_Pilot,2022.1.3,Win32,60.33546519,62c50e9c1127f2cd403a315f,0,100,100,109,1,threefour,,,,,,,,,,,,,,,,,,,,,,,,,,,,,,,,,,,,,,,,,,,,,,,,,,,,,,,,,,,,,,,,,,,,,,,,,,,,,,,,,,,,,,,,,,,,,,,,,,,,,,,,,,,,,,,,,,,,,,,,,,,,,,,,,,,,,,,,,,,,,,,,,,,,,,,,,,,,,
,,,,,,6133586c82c52424d8d5ed6a,62c53ac9bfdcea14d8b4879c,2022-07-06_09h35.11.575,Colour_Asymmetry_Pilot,2022.1.3,Win32,60.33546519,62c50e9c1127f2cd403a315f,0,101,101,52,1,threeone,,,,,,,,,,,,,,,,,,,,,,,,,,,,,,,,,,,,,,,,,,,,,,,,,,,,,,,,,,,,,,,,,,,,,,,,,,,,,,,,,,,,,,,,,,,,,,,,,,,,,,,,,,,,,,,,,,,,,,,,,,,,,,,,,,,,,,,,,,,,,,,,,,,,,,,,,,,,,
,,,,,,6133586c82c52424d8d5ed6a,62c53ac9bfdcea14d8b4879c,2022-07-06_09h35.11.575,Colour_Asymmetry_Pilot,2022.1.3,Win32,60.33546519,62c50e9c1127f2cd403a315f,0,102,102,84,1,threeone,,,,,,,,,,,,,,,,,,,,,,,,,,,,,,,,,,,,,,,,,,,,,,,,,,,,,,,,,,,,,,,,,,,,,,,,,,,,,,,,,,,,,,,,,,,,,,,,,,,,,,,,,,,,,,,,,,,,,,,,,,,,,,,,,,,,,,,,,,,,,,,,,,,,,,,,,,,,,
,,,,,,6133586c82c52424d8d5ed6a,62c53ac9bfdcea14d8b4879c,2022-07-06_09h35.11.575,Colour_Asymmetry_Pilot,2022.1.3,Win32,60.33546519,62c50e9c1127f2cd403a315f,0,103,103,92,1,threeone,,,,,,,,,,,,,,,,,,,,,,,,,,,,,,,,,,,,,,,,,,,,,,,,,,,,,,,,,,,,,,,,,,,,,,,,,,,,,,,,,,,,,,,,,,,,,,,,,,,,,,,,,,,,,,,,,,,,,,,,,,,,,,,,,,,,,,,,,,,,,,,,,,,,,,,,,,,,,
,,,,,,6133586c82c52424d8d5ed6a,62c53ac9bfdcea14d8b4879c,2022-07-06_09h35.11.575,Colour_Asymmetry_Pilot,2022.1.3,Win32,60.33546519,62c50e9c1127f2cd403a315f,0,104,104,135,1,fourthree,,,,,,,,,,,,,,,,,,,,,,,,,,,,,,,,,,,,,,,,,,,,,,,,,,,,,,,,,,,,,,,,,,,,,,,,,,,,,,,,,,,,,,,,,,,,,,,,,,,,,,,,,,,,,,,,,,,,,,,,,,,,,,,,,,,,,,,,,,,,,,,,,,,,,,,,,,,,,
,,,,,,6133586c82c52424d8d5ed6a,62c53ac9bfdcea14d8b4879c,2022-07-06_09h35.11.575,Colour_Asymmetry_Pilot,2022.1.3,Win32,60.33546519,62c50e9c1127f2cd403a315f,0,105,105,1,1,onethree,,,,,,,,,,,,,,,,,,,,,,,,,,,,,,,,,,,,,,,,,,,,,,,,,,,,,,,,,,,,,,,,,,,,,,,,,,,,,,,,,,,,,,,,,,,,,,,,,,,,,,,,,,,,,,,,,,,,,,,,,,,,,,,,,,,,,,,,,,,,,,,,,,,,,,,,,,,,,
,,,,,,6133586c82c52424d8d5ed6a,62c53ac9bfdcea14d8b4879c,2022-07-06_09h35.11.575,Colour_Asymmetry_Pilot,2022.1.3,Win32,60.33546519,62c50e9c1127f2cd403a315f,0,106,106,101,1,threefour,,,,,,,,,,,,,,,,,,,,,,,,,,,,,,,,,,,,,,,,,,,,,,,,,,,,,,,,,,,,,,,,,,,,,,,,,,,,,,,,,,,,,,,,,,,,,,,,,,,,,,,,,,,,,,,,,,,,,,,,,,,,,,,,,,,,,,,,,,,,,,,,,,,,,,,,,,,,,
,,,,,,6133586c82c52424d8d5ed6a,62c53ac9bfdcea14d8b4879c,2022-07-06_09h35.11.575,Colour_Asymmetry_Pilot,2022.1.3,Win32,60.33546519,62c50e9c1127f2cd403a315f,0,107,107,55,1,fourthree,,,,,,,,,,,,,,,,,,,,,,,,,,,,,,,,,,,,,,,,,,,,,,,,,,,,,,,,,,,,,,,,,,,,,,,,,,,,,,,,,,,,,,,,,,,,,,,,,,,,,,,,,,,,,,,,,,,,,,,,,,,,,,,,,,,,,,,,,,,,,,,,,,,,,,,,,,,,,
,,,,,,6133586c82c52424d8d5ed6a,62c53ac9bfdcea14d8b4879c,2022-07-06_09h35.11.575,Colour_Asymmetry_Pilot,2022.1.3,Win32,60.33546519,62c50e9c1127f2cd403a315f,0,108,108,158,1,fourtwo,,,,,,,,,,,,,,,,,,,,,,,,,,,,,,,,,,,,,,,,,,,,,,,,,,,,,,,,,,,,,,,,,,,,,,,,,,,,,,,,,,,,,,,,,,,,,,,,,,,,,,,,,,,,,,,,,,,,,,,,,,,,,,,,,,,,,,,,,,,,,,,,,,,,,,,,,,,,,
,,,,,,6133586c82c52424d8d5ed6a,62c53ac9bfdcea14d8b4879c,2022-07-06_09h35.11.575,Colour_Asymmetry_Pilot,2022.1.3,Win32,60.33546519,62c50e9c1127f2cd403a315f,0,109,109,75,1,twofour,,,,,,,,,,,,,,,,,,,,,,,,,,,,,,,,,,,,,,,,,,,,,,,,,,,,,,,,,,,,,,,,,,,,,,,,,,,,,,,,,,,,,,,,,,,,,,,,,,,,,,,,,,,,,,,,,,,,,,,,,,,,,,,,,,,,,,,,,,,,,,,,,,,,,,,,,,,,,
,,,,,,6133586c82c52424d8d5ed6a,62c53ac9bfdcea14d8b4879c,2022-07-06_09h35.11.575,Colour_Asymmetry_Pilot,2022.1.3,Win32,60.33546519,62c50e9c1127f2cd403a315f,0,110,110,57,1,onethree,,,,,,,,,,,,,,,,,,,,,,,,,,,,,,,,,,,,,,,,,,,,,,,,,,,,,,,,,,,,,,,,,,,,,,,,,,,,,,,,,,,,,,,,,,,,,,,,,,,,,,,,,,,,,,,,,,,,,,,,,,,,,,,,,,,,,,,,,,,,,,,,,,,,,,,,,,,,,
,,,,,,6133586c82c52424d8d5ed6a,62c53ac9bfdcea14d8b4879c,2022-07-06_09h35.11.575,Colour_Asymmetry_Pilot,2022.1.3,Win32,60.33546519,62c50e9c1127f2cd403a315f,0,111,111,61,1,threefour,,,,,,,,,,,,,,,,,,,,,,,,,,,,,,,,,,,,,,,,,,,,,,,,,,,,,,,,,,,,,,,,,,,,,,,,,,,,,,,,,,,,,,,,,,,,,,,,,,,,,,,,,,,,,,,,,,,,,,,,,,,,,,,,,,,,,,,,,,,,,,,,,,,,,,,,,,,,,
,,,,,,6133586c82c52424d8d5ed6a,62c53ac9bfdcea14d8b4879c,2022-07-06_09h35.11.575,Colour_Asymmetry_Pilot,2022.1.3,Win32,60.33546519,62c50e9c1127f2cd403a315f,0,112,112,51,1,twofour,,,,,,,,,,,,,,,,,,,,,,,,,,,,,,,,,,,,,,,,,,,,,,,,,,,,,,,,,,,,,,,,,,,,,,,,,,,,,,,,,,,,,,,,,,,,,,,,,,,,,,,,,,,,,,,,,,,,,,,,,,,,,,,,,,,,,,,,,,,,,,,,,,,,,,,,,,,,,
,,,,,,6133586c82c52424d8d5ed6a,62c53ac9bfdcea14d8b4879c,2022-07-06_09h35.11.575,Colour_Asymmetry_Pilot,2022.1.3,Win32,60.33546519,62c50e9c1127f2cd403a315f,0,113,113,141,1,threefour,,,,,,,,,,,,,,,,,,,,,,,,,,,,,,,,,,,,,,,,,,,,,,,,,,,,,,,,,,,,,,,,,,,,,,,,,,,,,,,,,,,,,,,,,,,,,,,,,,,,,,,,,,,,,,,,,,,,,,,,,,,,,,,,,,,,,,,,,,,,,,,,,,,,,,,,,,,,,
,,,,,,6133586c82c52424d8d5ed6a,62c53ac9bfdcea14d8b4879c,2022-07-06_09h35.11.575,Colour_Asymmetry_Pilot,2022.1.3,Win32,60.33546519,62c50e9c1127f2cd403a315f,0,114,114,154,1,twoone,,,,,,,,,,,,,,,,,,,,,,,,,,,,,,,,,,,,,,,,,,,,,,,,,,,,,,,,,,,,,,,,,,,,,,,,,,,,,,,,,,,,,,,,,,,,,,,,,,,,,,,,,,,,,,,,,,,,,,,,,,,,,,,,,,,,,,,,,,,,,,,,,,,,,,,,,,,,,
,,,,,,6133586c82c52424d8d5ed6a,62c53ac9bfdcea14d8b4879c,2022-07-06_09h35.11.575,Colour_Asymmetry_Pilot,2022.1.3,Win32,60.33546519,62c50e9c1127f2cd403a315f,0,115,115,113,1,onethree,,,,,,,,,,,,,,,,,,,,,,,,,,,,,,,,,,,,,,,,,,,,,,,,,,,,,,,,,,,,,,,,,,,,,,,,,,,,,,,,,,,,,,,,,,,,,,,,,,,,,,,,,,,,,,,,,,,,,,,,,,,,,,,,,,,,,,,,,,,,,,,,,,,,,,,,,,,,,
,,,,,,6133586c82c52424d8d5ed6a,62c53ac9bfdcea14d8b4879c,2022-07-06_09h35.11.575,Colour_Asymmetry_Pilot,2022.1.3,Win32,60.33546519,62c50e9c1127f2cd403a315f,0,116,116,25,1,onethree,,,,,,,,,,,,,,,,,,,,,,,,,,,,,,,,,,,,,,,,,,,,,,,,,,,,,,,,,,,,,,,,,,,,,,,,,,,,,,,,,,,,,,,,,,,,,,,,,,,,,,,,,,,,,,,,,,,,,,,,,,,,,,,,,,,,,,,,,,,,,,,,,,,,,,,,,,,,,
,,,,,,6133586c82c52424d8d5ed6a,62c53ac9bfdcea14d8b4879c,2022-07-06_09h35.11.575,Colour_Asymmetry_Pilot,2022.1.3,Win32,60.33546519,62c50e9c1127f2cd403a315f,0,117,117,41,1,onethree,,,,,,,,,,,,,,,,,,,,,,,,,,,,,,,,,,,,,,,,,,,,,,,,,,,,,,,,,,,,,,,,,,,,,,,,,,,,,,,,,,,,,,,,,,,,,,,,,,,,,,,,,,,,,,,,,,,,,,,,,,,,,,,,,,,,,,,,,,,,,,,,,,,,,,,,,,,,,
,,,,,,6133586c82c52424d8d5ed6a,62c53ac9bfdcea14d8b4879c,2022-07-06_09h35.11.575,Colour_Asymmetry_Pilot,2022.1.3,Win32,60.33546519,62c50e9c1127f2cd403a315f,0,118,118,110,1,fourtwo,,,,,,,,,,,,,,,,,,,,,,,,,,,,,,,,,,,,,,,,,,,,,,,,,,,,,,,,,,,,,,,,,,,,,,,,,,,,,,,,,,,,,,,,,,,,,,,,,,,,,,,,,,,,,,,,,,,,,,,,,,,,,,,,,,,,,,,,,,,,,,,,,,,,,,,,,,,,,
,,,,,,6133586c82c52424d8d5ed6a,62c53ac9bfdcea14d8b4879c,2022-07-06_09h35.11.575,Colour_Asymmetry_Pilot,2022.1.3,Win32,60.33546519,62c50e9c1127f2cd403a315f,0,119,119,98,1,twoone,,,,,,,,,,,,,,,,,,,,,,,,,,,,,,,,,,,,,,,,,,,,,,,,,,,,,,,,,,,,,,,,,,,,,,,,,,,,,,,,,,,,,,,,,,,,,,,,,,,,,,,,,,,,,,,,,,,,,,,,,,,,,,,,,,,,,,,,,,,,,,,,,,,,,,,,,,,,,
,,,,,,6133586c82c52424d8d5ed6a,62c53ac9bfdcea14d8b4879c,2022-07-06_09h35.11.575,Colour_Asymmetry_Pilot,2022.1.3,Win32,60.33546519,62c50e9c1127f2cd403a315f,0,120,120,67,1,twofour,,,,,,,,,,,,,,,,,,,,,,,,,,,,,,,,,,,,,,,,,,,,,,,,,,,,,,,,,,,,,,,,,,,,,,,,,,,,,,,,,,,,,,,,,,,,,,,,,,,,,,,,,,,,,,,,,,,,,,,,,,,,,,,,,,,,,,,,,,,,,,,,,,,,,,,,,,,,,
,,,,,,6133586c82c52424d8d5ed6a,62c53ac9bfdcea14d8b4879c,2022-07-06_09h35.11.575,Colour_Asymmetry_Pilot,2022.1.3,Win32,60.33546519,62c50e9c1127f2cd403a315f,0,121,121,30,1,fourtwo,,,,,,,,,,,,,,,,,,,,,,,,,,,,,,,,,,,,,,,,,,,,,,,,,,,,,,,,,,,,,,,,,,,,,,,,,,,,,,,,,,,,,,,,,,,,,,,,,,,,,,,,,,,,,,,,,,,,,,,,,,,,,,,,,,,,,,,,,,,,,,,,,,,,,,,,,,,,,
,,,,,,6133586c82c52424d8d5ed6a,62c53ac9bfdcea14d8b4879c,2022-07-06_09h35.11.575,Colour_Asymmetry_Pilot,2022.1.3,Win32,60.33546519,62c50e9c1127f2cd403a315f,0,122,122,80,1,onetwo,,,,,,,,,,,,,,,,,,,,,,,,,,,,,,,,,,,,,,,,,,,,,,,,,,,,,,,,,,,,,,,,,,,,,,,,,,,,,,,,,,,,,,,,,,,,,,,,,,,,,,,,,,,,,,,,,,,,,,,,,,,,,,,,,,,,,,,,,,,,,,,,,,,,,,,,,,,,,
,,,,,,6133586c82c52424d8d5ed6a,62c53ac9bfdcea14d8b4879c,2022-07-06_09h35.11.575,Colour_Asymmetry_Pilot,2022.1.3,Win32,60.33546519,62c50e9c1127f2cd403a315f,0,123,123,161,1,onethree,,,,,,,,,,,,,,,,,,,,,,,,,,,,,,,,,,,,,,,,,,,,,,,,,,,,,,,,,,,,,,,,,,,,,,,,,,,,,,,,,,,,,,,,,,,,,,,,,,,,,,,,,,,,,,,,,,,,,,,,,,,,,,,,,,,,,,,,,,,,,,,,,,,,,,,,,,,,,
,,,,,,6133586c82c52424d8d5ed6a,62c53ac9bfdcea14d8b4879c,2022-07-06_09h35.11.575,Colour_Asymmetry_Pilot,2022.1.3,Win32,60.33546519,62c50e9c1127f2cd403a315f,0,124,124,103,1,fourthree,,,,,,,,,,,,,,,,,,,,,,,,,,,,,,,,,,,,,,,,,,,,,,,,,,,,,,,,,,,,,,,,,,,,,,,,,,,,,,,,,,,,,,,,,,,,,,,,,,,,,,,,,,,,,,,,,,,,,,,,,,,,,,,,,,,,,,,,,,,,,,,,,,,,,,,,,,,,,
,,,,,,6133586c82c52424d8d5ed6a,62c53ac9bfdcea14d8b4879c,2022-07-06_09h35.11.575,Colour_Asymmetry_Pilot,2022.1.3,Win32,60.33546519,62c50e9c1127f2cd403a315f,0,125,125,119,1,fourthree,,,,,,,,,,,,,,,,,,,,,,,,,,,,,,,,,,,,,,,,,,,,,,,,,,,,,,,,,,,,,,,,,,,,,,,,,,,,,,,,,,,,,,,,,,,,,,,,,,,,,,,,,,,,,,,,,,,,,,,,,,,,,,,,,,,,,,,,,,,,,,,,,,,,,,,,,,,,,
,,,,,,6133586c82c52424d8d5ed6a,62c53ac9bfdcea14d8b4879c,2022-07-06_09h35.11.575,Colour_Asymmetry_Pilot,2022.1.3,Win32,60.33546519,62c50e9c1127f2cd403a315f,0,126,126,58,1,twoone,,,,,,,,,,,,,,,,,,,,,,,,,,,,,,,,,,,,,,,,,,,,,,,,,,,,,,,,,,,,,,,,,,,,,,,,,,,,,,,,,,,,,,,,,,,,,,,,,,,,,,,,,,,,,,,,,,,,,,,,,,,,,,,,,,,,,,,,,,,,,,,,,,,,,,,,,,,,,
,,,,,,6133586c82c52424d8d5ed6a,62c53ac9bfdcea14d8b4879c,2022-07-06_09h35.11.575,Colour_Asymmetry_Pilot,2022.1.3,Win32,60.33546519,62c50e9c1127f2cd403a315f,0,127,127,29,1,threefour,,,,,,,,,,,,,,,,,,,,,,,,,,,,,,,,,,,,,,,,,,,,,,,,,,,,,,,,,,,,,,,,,,,,,,,,,,,,,,,,,,,,,,,,,,,,,,,,,,,,,,,,,,,,,,,,,,,,,,,,,,,,,,,,,,,,,,,,,,,,,,,,,,,,,,,,,,,,,
,,,,,,6133586c82c52424d8d5ed6a,62c53ac9bfdcea14d8b4879c,2022-07-06_09h35.11.575,Colour_Asymmetry_Pilot,2022.1.3,Win32,60.33546519,62c50e9c1127f2cd403a315f,0,128,128,88,1,onetwo,,,,,,,,,,,,,,,,,,,,,,,,,,,,,,,,,,,,,,,,,,,,,,,,,,,,,,,,,,,,,,,,,,,,,,,,,,,,,,,,,,,,,,,,,,,,,,,,,,,,,,,,,,,,,,,,,,,,,,,,,,,,,,,,,,,,,,,,,,,,,,,,,,,,,,,,,,,,,
,,,,,,6133586c82c52424d8d5ed6a,62c53ac9bfdcea14d8b4879c,2022-07-06_09h35.11.575,Colour_Asymmetry_Pilot,2022.1.3,Win32,60.33546519,62c50e9c1127f2cd403a315f,0,129,129,129,1,onethree,,,,,,,,,,,,,,,,,,,,,,,,,,,,,,,,,,,,,,,,,,,,,,,,,,,,,,,,,,,,,,,,,,,,,,,,,,,,,,,,,,,,,,,,,,,,,,,,,,,,,,,,,,,,,,,,,,,,,,,,,,,,,,,,,,,,,,,,,,,,,,,,,,,,,,,,,,,,,
,,,,,,6133586c82c52424d8d5ed6a,62c53ac9bfdcea14d8b4879c,2022-07-06_09h35.11.575,Colour_Asymmetry_Pilot,2022.1.3,Win32,60.33546519,62c50e9c1127f2cd403a315f,0,130,130,18,1,twoone,,,,,,,,,,,,,,,,,,,,,,,,,,,,,,,,,,,,,,,,,,,,,,,,,,,,,,,,,,,,,,,,,,,,,,,,,,,,,,,,,,,,,,,,,,,,,,,,,,,,,,,,,,,,,,,,,,,,,,,,,,,,,,,,,,,,,,,,,,,,,,,,,,,,,,,,,,,,,
,,,,,,6133586c82c52424d8d5ed6a,62c53ac9bfdcea14d8b4879c,2022-07-06_09h35.11.575,Colour_Asymmetry_Pilot,2022.1.3,Win32,60.33546519,62c50e9c1127f2cd403a315f,0,131,131,95,1,fourthree,,,,,,,,,,,,,,,,,,,,,,,,,,,,,,,,,,,,,,,,,,,,,,,,,,,,,,,,,,,,,,,,,,,,,,,,,,,,,,,,,,,,,,,,,,,,,,,,,,,,,,,,,,,,,,,,,,,,,,,,,,,,,,,,,,,,,,,,,,,,,,,,,,,,,,,,,,,,,
,,,,,,6133586c82c52424d8d5ed6a,62c53ac9bfdcea14d8b4879c,2022-07-06_09h35.11.575,Colour_Asymmetry_Pilot,2022.1.3,Win32,60.33546519,62c50e9c1127f2cd403a315f,0,132,132,9,1,onethree,,,,,,,,,,,,,,,,,,,,,,,,,,,,,,,,,,,,,,,,,,,,,,,,,,,,,,,,,,,,,,,,,,,,,,,,,,,,,,,,,,,,,,,,,,,,,,,,,,,,,,,,,,,,,,,,,,,,,,,,,,,,,,,,,,,,,,,,,,,,,,,,,,,,,,,,,,,,,
,,,,,,6133586c82c52424d8d5ed6a,62c53ac9bfdcea14d8b4879c,2022-07-06_09h35.11.575,Colour_Asymmetry_Pilot,2022.1.3,Win32,60.33546519,62c50e9c1127f2cd403a315f,0,133,133,91,1,twofour,,,,,,,,,,,,,,,,,,,,,,,,,,,,,,,,,,,,,,,,,,,,,,,,,,,,,,,,,,,,,,,,,,,,,,,,,,,,,,,,,,,,,,,,,,,,,,,,,,,,,,,,,,,,,,,,,,,,,,,,,,,,,,,,,,,,,,,,,,,,,,,,,,,,,,,,,,,,,
,,,,,,6133586c82c52424d8d5ed6a,62c53ac9bfdcea14d8b4879c,2022-07-06_09h35.11.575,Colour_Asymmetry_Pilot,2022.1.3,Win32,60.33546519,62c50e9c1127f2cd403a315f,0,134,134,13,1,threefour,,,,,,,,,,,,,,,,,,,,,,,,,,,,,,,,,,,,,,,,,,,,,,,,,,,,,,,,,,,,,,,,,,,,,,,,,,,,,,,,,,,,,,,,,,,,,,,,,,,,,,,,,,,,,,,,,,,,,,,,,,,,,,,,,,,,,,,,,,,,,,,,,,,,,,,,,,,,,
,,,,,,6133586c82c52424d8d5ed6a,62c53ac9bfdcea14d8b4879c,2022-07-06_09h35.11.575,Colour_Asymmetry_Pilot,2022.1.3,Win32,60.33546519,62c50e9c1127f2cd403a315f,0,135,135,50,1,twoone,,,,,,,,,,,,,,,,,,,,,,,,,,,,,,,,,,,,,,,,,,,,,,,,,,,,,,,,,,,,,,,,,,,,,,,,,,,,,,,,,,,,,,,,,,,,,,,,,,,,,,,,,,,,,,,,,,,,,,,,,,,,,,,,,,,,,,,,,,,,,,,,,,,,,,,,,,,,,
,,,,,,6133586c82c52424d8d5ed6a,62c53ac9bfdcea14d8b4879c,2022-07-06_09h35.11.575,Colour_Asymmetry_Pilot,2022.1.3,Win32,60.33546519,62c50e9c1127f2cd403a315f,0,136,136,34,1,twoone,,,,,,,,,,,,,,,,,,,,,,,,,,,,,,,,,,,,,,,,,,,,,,,,,,,,,,,,,,,,,,,,,,,,,,,,,,,,,,,,,,,,,,,,,,,,,,,,,,,,,,,,,,,,,,,,,,,,,,,,,,,,,,,,,,,,,,,,,,,,,,,,,,,,,,,,,,,,,
,,,,,,6133586c82c52424d8d5ed6a,62c53ac9bfdcea14d8b4879c,2022-07-06_09h35.11.575,Colour_Asymmetry_Pilot,2022.1.3,Win32,60.33546519,62c50e9c1127f2cd403a315f,0,137,137,128,1,onetwo,,,,,,,,,,,,,,,,,,,,,,,,,,,,,,,,,,,,,,,,,,,,,,,,,,,,,,,,,,,,,,,,,,,,,,,,,,,,,,,,,,,,,,,,,,,,,,,,,,,,,,,,,,,,,,,,,,,,,,,,,,,,,,,,,,,,,,,,,,,,,,,,,,,,,,,,,,,,,
,,,,,,6133586c82c52424d8d5ed6a,62c53ac9bfdcea14d8b4879c,2022-07-06_09h35.11.575,Colour_Asymmetry_Pilot,2022.1.3,Win32,60.33546519,62c50e9c1127f2cd403a315f,0,138,138,65,1,onethree,,,,,,,,,,,,,,,,,,,,,,,,,,,,,,,,,,,,,,,,,,,,,,,,,,,,,,,,,,,,,,,,,,,,,,,,,,,,,,,,,,,,,,,,,,,,,,,,,,,,,,,,,,,,,,,,,,,,,,,,,,,,,,,,,,,,,,,,,,,,,,,,,,,,,,,,,,,,,
,,,,,,6133586c82c52424d8d5ed6a,62c53ac9bfdcea14d8b4879c,2022-07-06_09h35.11.575,Colour_Asymmetry_Pilot,2022.1.3,Win32,60.33546519,62c50e9c1127f2cd403a315f,0,139,139,39,1,fourthree,,,,,,,,,,,,,,,,,,,,,,,,,,,,,,,,,,,,,,,,,,,,,,,,,,,,,,,,,,,,,,,,,,,,,,,,,,,,,,,,,,,,,,,,,,,,,,,,,,,,,,,,,,,,,,,,,,,,,,,,,,,,,,,,,,,,,,,,,,,,,,,,,,,,,,,,,,,,,
,,,,,,6133586c82c52424d8d5ed6a,62c53ac9bfdcea14d8b4879c,2022-07-06_09h35.11.575,Colour_Asymmetry_Pilot,2022.1.3,Win32,60.33546519,62c50e9c1127f2cd403a315f,0,140,140,40,1,onetwo,,,,,,,,,,,,,,,,,,,,,,,,,,,,,,,,,,,,,,,,,,,,,,,,,,,,,,,,,,,,,,,,,,,,,,,,,,,,,,,,,,,,,,,,,,,,,,,,,,,,,,,,,,,,,,,,,,,,,,,,,,,,,,,,,,,,,,,,,,,,,,,,,,,,,,,,,,,,,
,,,,,,6133586c82c52424d8d5ed6a,62c53ac9bfdcea14d8b4879c,2022-07-06_09h35.11.575,Colour_Asymmetry_Pilot,2022.1.3,Win32,60.33546519,62c50e9c1127f2cd403a315f,0,141,141,37,1,threefour,,,,,,,,,,,,,,,,,,,,,,,,,,,,,,,,,,,,,,,,,,,,,,,,,,,,,,,,,,,,,,,,,,,,,,,,,,,,,,,,,,,,,,,,,,,,,,,,,,,,,,,,,,,,,,,,,,,,,,,,,,,,,,,,,,,,,,,,,,,,,,,,,,,,,,,,,,,,,
,,,,,,6133586c82c52424d8d5ed6a,62c53ac9bfdcea14d8b4879c,2022-07-06_09h35.11.575,Colour_Asymmetry_Pilot,2022.1.3,Win32,60.33546519,62c50e9c1127f2cd403a315f,0,142,142,47,1,fourthree,,,,,,,,,,,,,,,,,,,,,,,,,,,,,,,,,,,,,,,,,,,,,,,,,,,,,,,,,,,,,,,,,,,,,,,,,,,,,,,,,,,,,,,,,,,,,,,,,,,,,,,,,,,,,,,,,,,,,,,,,,,,,,,,,,,,,,,,,,,,,,,,,,,,,,,,,,,,,
,,,,,,6133586c82c52424d8d5ed6a,62c53ac9bfdcea14d8b4879c,2022-07-06_09h35.11.575,Colour_Asymmetry_Pilot,2022.1.3,Win32,60.33546519,62c50e9c1127f2cd403a315f,0,143,143,90,1,twoone,,,,,,,,,,,,,,,,,,,,,,,,,,,,,,,,,,,,,,,,,,,,,,,,,,,,,,,,,,,,,,,,,,,,,,,,,,,,,,,,,,,,,,,,,,,,,,,,,,,,,,,,,,,,,,,,,,,,,,,,,,,,,,,,,,,,,,,,,,,,,,,,,,,,,,,,,,,,,
,,,,,,6133586c82c52424d8d5ed6a,62c53ac9bfdcea14d8b4879c,2022-07-06_09h35.11.575,Colour_Asymmetry_Pilot,2022.1.3,Win32,60.33546519,62c50e9c1127f2cd403a315f,0,144,144,108,1,threeone,,,,,,,,,,,,,,,,,,,,,,,,,,,,,,,,,,,,,,,,,,,,,,,,,,,,,,,,,,,,,,,,,,,,,,,,,,,,,,,,,,,,,,,,,,,,,,,,,,,,,,,,,,,,,,,,,,,,,,,,,,,,,,,,,,,,,,,,,,,,,,,,,,,,,,,,,,,,,
,,,,,,6133586c82c52424d8d5ed6a,62c53ac9bfdcea14d8b4879c,2022-07-06_09h35.11.575,Colour_Asymmetry_Pilot,2022.1.3,Win32,60.33546519,62c50e9c1127f2cd403a315f,0,145,145,100,1,threeone,,,,,,,,,,,,,,,,,,,,,,,,,,,,,,,,,,,,,,,,,,,,,,,,,,,,,,,,,,,,,,,,,,,,,,,,,,,,,,,,,,,,,,,,,,,,,,,,,,,,,,,,,,,,,,,,,,,,,,,,,,,,,,,,,,,,,,,,,,,,,,,,,,,,,,,,,,,,,
,,,,,,6133586c82c52424d8d5ed6a,62c53ac9bfdcea14d8b4879c,2022-07-06_09h35.11.575,Colour_Asymmetry_Pilot,2022.1.3,Win32,60.33546519,62c50e9c1127f2cd403a315f,0,146,146,85,1,threefour,,,,,,,,,,,,,,,,,,,,,,,,,,,,,,,,,,,,,,,,,,,,,,,,,,,,,,,,,,,,,,,,,,,,,,,,,,,,,,,,,,,,,,,,,,,,,,,,,,,,,,,,,,,,,,,,,,,,,,,,,,,,,,,,,,,,,,,,,,,,,,,,,,,,,,,,,,,,,
,,,,,,6133586c82c52424d8d5ed6a,62c53ac9bfdcea14d8b4879c,2022-07-06_09h35.11.575,Colour_Asymmetry_Pilot,2022.1.3,Win32,60.33546519,62c50e9c1127f2cd403a315f,0,147,147,77,1,threefour,,,,,,,,,,,,,,,,,,,,,,,,,,,,,,,,,,,,,,,,,,,,,,,,,,,,,,,,,,,,,,,,,,,,,,,,,,,,,,,,,,,,,,,,,,,,,,,,,,,,,,,,,,,,,,,,,,,,,,,,,,,,,,,,,,,,,,,,,,,,,,,,,,,,,,,,,,,,,
,,,,,,6133586c82c52424d8d5ed6a,62c53ac9bfdcea14d8b4879c,2022-07-06_09h35.11.575,Colour_Asymmetry_Pilot,2022.1.3,Win32,60.33546519,62c50e9c1127f2cd403a315f,0,148,148,14,1,fourtwo,,,,,,,,,,,,,,,,,,,,,,,,,,,,,,,,,,,,,,,,,,,,,,,,,,,,,,,,,,,,,,,,,,,,,,,,,,,,,,,,,,,,,,,,,,,,,,,,,,,,,,,,,,,,,,,,,,,,,,,,,,,,,,,,,,,,,,,,,,,,,,,,,,,,,,,,,,,,,
,,,,,,6133586c82c52424d8d5ed6a,62c53ac9bfdcea14d8b4879c,2022-07-06_09h35.11.575,Colour_Asymmetry_Pilot,2022.1.3,Win32,60.33546519,62c50e9c1127f2cd403a315f,0,149,149,11,1,twofour,,,,,,,,,,,,,,,,,,,,,,,,,,,,,,,,,,,,,,,,,,,,,,,,,,,,,,,,,,,,,,,,,,,,,,,,,,,,,,,,,,,,,,,,,,,,,,,,,,,,,,,,,,,,,,,,,,,,,,,,,,,,,,,,,,,,,,,,,,,,,,,,,,,,,,,,,,,,,
,,,,,,6133586c82c52424d8d5ed6a,62c53ac9bfdcea14d8b4879c,2022-07-06_09h35.11.575,Colour_Asymmetry_Pilot,2022.1.3,Win32,60.33546519,62c50e9c1127f2cd403a315f,0,150,150,49,1,onethree,,,,,,,,,,,,,,,,,,,,,,,,,,,,,,,,,,,,,,,,,,,,,,,,,,,,,,,,,,,,,,,,,,,,,,,,,,,,,,,,,,,,,,,,,,,,,,,,,,,,,,,,,,,,,,,,,,,,,,,,,,,,,,,,,,,,,,,,,,,,,,,,,,,,,,,,,,,,,
,,,,,,6133586c82c52424d8d5ed6a,62c53ac9bfdcea14d8b4879c,2022-07-06_09h35.11.575,Colour_Asymmetry_Pilot,2022.1.3,Win32,60.33546519,62c50e9c1127f2cd403a315f,0,151,151,93,1,threefour,,,,,,,,,,,,,,,,,,,,,,,,,,,,,,,,,,,,,,,,,,,,,,,,,,,,,,,,,,,,,,,,,,,,,,,,,,,,,,,,,,,,,,,,,,,,,,,,,,,,,,,,,,,,,,,,,,,,,,,,,,,,,,,,,,,,,,,,,,,,,,,,,,,,,,,,,,,,,
,,,,,,6133586c82c52424d8d5ed6a,62c53ac9bfdcea14d8b4879c,2022-07-06_09h35.11.575,Colour_Asymmetry_Pilot,2022.1.3,Win32,60.33546519,62c50e9c1127f2cd403a315f,0,152,152,89,1,onethree,,,,,,,,,,,,,,,,,,,,,,,,,,,,,,,,,,,,,,,,,,,,,,,,,,,,,,,,,,,,,,,,,,,,,,,,,,,,,,,,,,,,,,,,,,,,,,,,,,,,,,,,,,,,,,,,,,,,,,,,,,,,,,,,,,,,,,,,,,,,,,,,,,,,,,,,,,,,,
,,,,,,6133586c82c52424d8d5ed6a,62c53ac9bfdcea14d8b4879c,2022-07-06_09h35.11.575,Colour_Asymmetry_Pilot,2022.1.3,Win32,60.33546519,62c50e9c1127f2cd403a315f,0,153,153,10,1,twoone,,,,,,,,,,,,,,,,,,,,,,,,,,,,,,,,,,,,,,,,,,,,,,,,,,,,,,,,,,,,,,,,,,,,,,,,,,,,,,,,,,,,,,,,,,,,,,,,,,,,,,,,,,,,,,,,,,,,,,,,,,,,,,,,,,,,,,,,,,,,,,,,,,,,,,,,,,,,,
,,,,,,6133586c82c52424d8d5ed6a,62c53ac9bfdcea14d8b4879c,2022-07-06_09h35.11.575,Colour_Asymmetry_Pilot,2022.1.3,Win32,60.33546519,62c50e9c1127f2cd403a315f,0,154,154,42,1,twoone,,,,,,,,,,,,,,,,,,,,,,,,,,,,,,,,,,,,,,,,,,,,,,,,,,,,,,,,,,,,,,,,,,,,,,,,,,,,,,,,,,,,,,,,,,,,,,,,,,,,,,,,,,,,,,,,,,,,,,,,,,,,,,,,,,,,,,,,,,,,,,,,,,,,,,,,,,,,,
,,,,,,6133586c82c52424d8d5ed6a,62c53ac9bfdcea14d8b4879c,2022-07-06_09h35.11.575,Colour_Asymmetry_Pilot,2022.1.3,Win32,60.33546519,62c50e9c1127f2cd403a315f,0,155,155,105,1,onethree,,,,,,,,,,,,,,,,,,,,,,,,,,,,,,,,,,,,,,,,,,,,,,,,,,,,,,,,,,,,,,,,,,,,,,,,,,,,,,,,,,,,,,,,,,,,,,,,,,,,,,,,,,,,,,,,,,,,,,,,,,,,,,,,,,,,,,,,,,,,,,,,,,,,,,,,,,,,,
,,,,,,6133586c82c52424d8d5ed6a,62c53ac9bfdcea14d8b4879c,2022-07-06_09h35.11.575,Colour_Asymmetry_Pilot,2022.1.3,Win32,60.33546519,62c50e9c1127f2cd403a315f,0,156,156,126,1,fourtwo,,,,,,,,,,,,,,,,,,,,,,,,,,,,,,,,,,,,,,,,,,,,,,,,,,,,,,,,,,,,,,,,,,,,,,,,,,,,,,,,,,,,,,,,,,,,,,,,,,,,,,,,,,,,,,,,,,,,,,,,,,,,,,,,,,,,,,,,,,,,,,,,,,,,,,,,,,,,,
,,,,,,6133586c82c52424d8d5ed6a,62c53ac9bfdcea14d8b4879c,2022-07-06_09h35.11.575,Colour_Asymmetry_Pilot,2022.1.3,Win32,60.33546519,62c50e9c1127f2cd403a315f,0,157,157,123,1,twofour,,,,,,,,,,,,,,,,,,,,,,,,,,,,,,,,,,,,,,,,,,,,,,,,,,,,,,,,,,,,,,,,,,,,,,,,,,,,,,,,,,,,,,,,,,,,,,,,,,,,,,,,,,,,,,,,,,,,,,,,,,,,,,,,,,,,,,,,,,,,,,,,,,,,,,,,,,,,,
,,,,,,6133586c82c52424d8d5ed6a,62c53ac9bfdcea14d8b4879c,2022-07-06_09h35.11.575,Colour_Asymmetry_Pilot,2022.1.3,Win32,60.33546519,62c50e9c1127f2cd403a315f,0,158,158,149,1,threefour,,,,,,,,,,,,,,,,,,,,,,,,,,,,,,,,,,,,,,,,,,,,,,,,,,,,,,,,,,,,,,,,,,,,,,,,,,,,,,,,,,,,,,,,,,,,,,,,,,,,,,,,,,,,,,,,,,,,,,,,,,,,,,,,,,,,,,,,,,,,,,,,,,,,,,,,,,,,,
,,,,,,6133586c82c52424d8d5ed6a,62c53ac9bfdcea14d8b4879c,2022-07-06_09h35.11.575,Colour_Asymmetry_Pilot,2022.1.3,Win32,60.33546519,62c50e9c1127f2cd403a315f,0,159,159,155,1,twofour,,,,,,,,,,,,,,,,,,,,,,,,,,,,,,,,,,,,,,,,,,,,,,,,,,,,,,,,,,,,,,,,,,,,,,,,,,,,,,,,,,,,,,,,,,,,,,,,,,,,,,,,,,,,,,,,,,,,,,,,,,,,,,,,,,,,,,,,,,,,,,,,,,,,,,,,,,,,,
,,,,,,6133586c82c52424d8d5ed6a,62c53ac9bfdcea14d8b4879c,2022-07-06_09h35.11.575,Colour_Asymmetry_Pilot,2022.1.3,Win32,60.33546519,62c50e9c1127f2cd403a315f,0,160,160,23,1,fourthree,,,,,,,,,,,,,,,,,,,,,,,,,,,,,,,,,,,,,,,,,,,,,,,,,,,,,,,,,,,,,,,,,,,,,,,,,,,,,,,,,,,,,,,,,,,,,,,,,,,,,,,,,,,,,,,,,,,,,,,,,,,,,,,,,,,,,,,,,,,,,,,,,,,,,,,,,,,,,
,,,,,,6133586c82c52424d8d5ed6a,62c53ac9bfdcea14d8b4879c,2022-07-06_09h35.11.575,Colour_Asymmetry_Pilot,2022.1.3,Win32,60.33546519,62c50e9c1127f2cd403a315f,0,161,161,150,1,fourtwo,,,,,,,,,,,,,,,,,,,,,,,,,,,,,,,,,,,,,,,,,,,,,,,,,,,,,,,,,,,,,,,,,,,,,,,,,,,,,,,,,,,,,,,,,,,,,,,,,,,,,,,,,,,,,,,,,,,,,,,,,,,,,,,,,,,,,,,,,,,,,,,,,,,,,,,,,,,,,
,,,,,,6133586c82c52424d8d5ed6a,62c53ac9bfdcea14d8b4879c,2022-07-06_09h35.11.575,Colour_Asymmetry_Pilot,2022.1.3,Win32,60.33546519,62c50e9c1127f2cd403a315f,,,,,,,space,6.5539,space,17.5378,space,96.8539,space,35.9944,space,7.133,space,7.4993,"[-0.4668,-0.8746,-0.2942]",onetwo,"[-0.4982,-0.2942,-0.0354000000000001]",-4,24.0863,-41,79,1,0,0,response7disk_5,-7,-6,1,0,0,rectangle_8,-7,-6,1,0,0,1,-7,-6,1,0,0,0,0,0,0,1,,,,,,,,,,,,,,,,,,,,,,,,,,,,,,,,,,,,,,,,,,,,,,,,,,,,,,,,,,,,,,,,,,,,,,,,,,,,,,,,,,,,,,,,,,,,,,,,,,,,,,,,,,,,,,,,
,,,,,,6133586c82c52424d8d5ed6a,62c53ac9bfdcea14d8b4879c,2022-07-06_09h35.11.575,Colour_Asymmetry_Pilot,2022.1.3,Win32,60.33546519,62c50e9c1127f2cd403a315f,,,,,,,,,,,,,,,,,,,"[0.8115999999999999,-0.0040000000000000036,-0.09819999999999995]",fourtwo,"[0.34099999999999997,0.5841999999999998,-0.9844]",-3,25.884,-65,36,1,0,0,response7disk_5,-9,12,1,0,0,rectangle_8,17,-56,1,0,0,1,0,-6,1,0,0,1,0,1,0,1,response3disk_7,4,rectangle_4,,,,,,,,,,,,,,,,,,,,,,,,,,,,,,,,,,,,,,,,,,,,,,,,,,,,,,,,,,,,,,,,,,,,,,,,,,,,,,,,,,,,,,,,,,,,,,,,,,,,,,,,,,,,,
,,,,,,6133586c82c52424d8d5ed6a,62c53ac9bfdcea14d8b4879c,2022-07-06_09h35.11.575,Colour_Asymmetry_Pilot,2022.1.3,Win32,60.33546519,62c50e9c1127f2cd403a315f,,,,,,,,,,,,,,,,,,,"[-0.26280000000000003,-0.4746,-0.2158]",threeone,"[-0.9766,-0.34920000000000007,0.2156]",1,5.6013,26,-55,1,0,0,response3disk_5,2,8,1,0,0,rectangle_8,2,8,1,0,0,1,2,8,1,0,0,2,0,2,0,1,,,,,,,,,,,,,,,,,,,,,,,,,,,,,,,,,,,,,,,,,,,,,,,,,,,,,,,,,,,,,,,,,,,,,,,,,,,,,,,,,,,,,,,,,,,,,,,,,,,,,,,,,,,,,,,,
,,,,,,6133586c82c52424d8d5ed6a,62c53ac9bfdcea14d8b4879c,2022-07-06_09h35.11.575,Colour_Asymmetry_Pilot,2022.1.3,Win32,60.33546519,62c50e9c1127f2cd403a315f,,,,,,,,,,,,,,,,,,,"[0.5449999999999999,-0.31000000000000005,-0.0354000000000001]",onetwo,"[0.3802000000000001,0.19199999999999995,-0.6394]",-1,3.7623,-29,-80,1,0,0,response5disk_5,5,-4,1,0,0,rectangle_8,20,-77,1,0,0,1,-2,11,1,0,0,3,0,3,0,1,response3disk_7,4,rectangle_4,,,,,,,,,,,,,,,,,,,,,,,,,,,,,,,,,,,,,,,,,,,,,,,,,,,,,,,,,,,,,,,,,,,,,,,,,,,,,,,,,,,,,,,,,,,,,,,,,,,,,,,,,,,,,
,,,,,,6133586c82c52424d8d5ed6a,62c53ac9bfdcea14d8b4879c,2022-07-06_09h35.11.575,Colour_Asymmetry_Pilot,2022.1.3,Win32,60.33546519,62c50e9c1127f2cd403a315f,,,,,,,,,,,,,,,,,,,"[-0.6706000000000001,-0.6157999999999999,-0.6786]",onetwo,"[-0.10599999999999998,-0.15300000000000002,0.15280000000000005]",-3,3.2691,-87,29,1,0,0,response7disk_5,-9,6,1,0,0,rectangle_8,-9,6,1,0,0,1,-9,6,1,0,0,4,0,4,0,1,,,,,,,,,,,,,,,,,,,,,,,,,,,,,,,,,,,,,,,,,,,,,,,,,,,,,,,,,,,,,,,,,,,,,,,,,,,,,,,,,,,,,,,,,,,,,,,,,,,,,,,,,,,,,,,,
,,,,,,6133586c82c52424d8d5ed6a,62c53ac9bfdcea14d8b4879c,2022-07-06_09h35.11.575,Colour_Asymmetry_Pilot,2022.1.3,Win32,60.33546519,62c50e9c1127f2cd403a315f,,,,,,,,,,,,,,,,,,,"[-0.2942,-0.24719999999999998,-0.357]",threeone,"[0.09799999999999986,-0.24719999999999998,0.15280000000000005]",-4,1.9826,-25,54,1,0,0,response7disk_5,-1,-12,1,0,0,rectangle_8,-1,-12,1,0,0,1,-1,-12,1,0,0,5,0,5,0,1,,,,,,,,,,,,,,,,,,,,,,,,,,,,,,,,,,,,,,,,,,,,,,,,,,,,,,,,,,,,,,,,,,,,,,,,,,,,,,,,,,,,,,,,,,,,,,,,,,,,,,,,,,,,,,,,
,,,,,,6133586c82c52424d8d5ed6a,62c53ac9bfdcea14d8b4879c,2022-07-06_09h35.11.575,Colour_Asymmetry_Pilot,2022.1.3,Win32,60.33546519,62c50e9c1127f2cd403a315f,,,,,,,,,,,,,,,,,,,"[0.37240000000000006,-0.050999999999999934,-0.5216]",twoone,"[0.34099999999999997,0.5841999999999998,-0.9844]",-3,9.9515,-74,29,1,0,0,response7disk_5,18,0,1,0,0,rectangle_8,18,0,1,0,0,1,18,0,1,0,0,6,0,6,0,1,,,,,,,,,,,,,,,,,,,,,,,,,,,,,,,,,,,,,,,,,,,,,,,,,,,,,,,,,,,,,,,,,,,,,,,,,,,,,,,,,,,,,,,,,,,,,,,,,,,,,,,,,,,,,,,,
,,,,,,6133586c82c52424d8d5ed6a,62c53ac9bfdcea14d8b4879c,2022-07-06_09h35.11.575,Colour_Asymmetry_Pilot,2022.1.3,Win32,60.33546519,62c50e9c1127f2cd403a315f,,,,,,,,,,,,,,,,,,,,threeone,,-3,3.2198,,,,,,,,,,,,,,,,,,,,,,,,,,,,,,,,space,3.3435,"[0.04299999999999993,0.16060000000000008,-0.6628000000000001]","[0.796,0.2156,-0.27859999999999996]",-46,26,1,0,0,response7disk,-17,5,1,0,0,rectangle,-17,5,1,0,0,,3,0.003,0,-17,5,1,0,0,0,0,0,69,1,69,first,,,,,,,,,,,,,,,,,,,,,,,,,,,,,,,,,,,,,,,,,,,,,,,,,,,,,,,,,,,,,,,,,,,,,,,,
,,,,,,6133586c82c52424d8d5ed6a,62c53ac9bfdcea14d8b4879c,2022-07-06_09h35.11.575,Colour_Asymmetry_Pilot,2022.1.3,Win32,60.33546519,62c50e9c1127f2cd403a315f,,,,,,,,,,,,,,,,,,,,twoone,,1,3.517,,,,,,,,,,,,,,,,,,,,,,,,,,,,,,,,,,"[-0.8118,-0.8198,-0.5452]","[-0.30200000000000005,0.14500000000000002,0.2784]",46,-70,1,0,0,response3disk,-8,-1,1,0,0,rectangle,-8,-1,1,0,0,,1,0.0011,0,-8,-1,1,0,0,0,1,1,110,1,29,second,,,,,,,,,,,,,,,,,,,,,,,,,,,,,,,,,,,,,,,,,,,,,,,,,,,,,,,,,,,,,,,,,,,,,,,,
,,,,,,6133586c82c52424d8d5ed6a,62c53ac9bfdcea14d8b4879c,2022-07-06_09h35.11.575,Colour_Asymmetry_Pilot,2022.1.3,Win32,60.33546519,62c50e9c1127f2cd403a315f,,,,,,,,,,,,,,,,,,,,twofour,,-4,3.8665,,,,,,,,,,,,,,,,,,,,,,,,,,,,,,,,,,"[0.9372,0.9450000000000001,0.8980000000000001]","[-0.5922000000000001,-0.7492000000000001,-0.5296000000000001]",-37,64,1,0,0,response7disk,1,-15,1,0,0,rectangle,1,-15,1,0,0,,1,0.0003,0,1,-15,1,0,0,0,2,2,113,1,32,second,,,,,,,,,,,,,,,,,,,,,,,,,,,,,,,,,,,,,,,,,,,,,,,,,,,,,,,,,,,,,,,,,,,,,,,,
,,,,,,6133586c82c52424d8d5ed6a,62c53ac9bfdcea14d8b4879c,2022-07-06_09h35.11.575,Colour_Asymmetry_Pilot,2022.1.3,Win32,60.33546519,62c50e9c1127f2cd403a315f,,,,,,,,,,,,,,,,,,,,threefour,,-4,6.5826,,,,,,,,,,,,,,,,,,,,,,,,,,,,,,,,,,"[-0.9216,-0.5529999999999999,-0.3962]","[0.2784,-0.31000000000000005,-0.5452]",-66,70,1,0,0,response7disk,6,-9,1,0,0,rectangle,6,-9,1,0,0,,1,0.0005,0,6,-9,1,0,0,0,3,3,143,1,62,second,,,,,,,,,,,,,,,,,,,,,,,,,,,,,,,,,,,,,,,,,,,,,,,,,,,,,,,,,,,,,,,,,,,,,,,,
,,,,,,6133586c82c52424d8d5ed6a,62c53ac9bfdcea14d8b4879c,2022-07-06_09h35.11.575,Colour_Asymmetry_Pilot,2022.1.3,Win32,60.33546519,62c50e9c1127f2cd403a315f,,,,,,,,,,,,,,,,,,,,threeone,,1,3.5336,,,,,,,,,,,,,,,,,,,,,,,,,,,,,,,,,,"[1,0.12939999999999996,-1]","[0.7802,-0.23140000000000005,-0.20799999999999996]",34,-51,1,0,0,response3disk,-4,-6,1,0,0,rectangle,-4,-6,1,0,0,,1,0.0002,0,-4,-6,1,0,0,0,4,4,115,1,34,second,,,,,,,,,,,,,,,,,,,,,,,,,,,,,,,,,,,,,,,,,,,,,,,,,,,,,,,,,,,,,,,,,,,,,,,,
,,,,,,6133586c82c52424d8d5ed6a,62c53ac9bfdcea14d8b4879c,2022-07-06_09h35.11.575,Colour_Asymmetry_Pilot,2022.1.3,Win32,60.33546519,62c50e9c1127f2cd403a315f,,,,,,,,,,,,,,,,,,,,onetwo,,2,2.4456,,,,,,,,,,,,,,,,,,,,,,,,,,,,,,,,,,"[-0.9688,-0.7412000000000001,-0.4902000000000001]","[-0.6706000000000001,-0.6157999999999999,-0.6786]",66,-20,1,0,0,response3disk,-9,3,1,0,0,rectangle,-9,3,1,0,0,,3,0.001,0,-9,3,1,0,0,0,5,5,127,1,46,second,,,,,,,,,,,,,,,,,,,,,,,,,,,,,,,,,,,,,,,,,,,,,,,,,,,,,,,,,,,,,,,,,,,,,,,,
,,,,,,6133586c82c52424d8d5ed6a,62c53ac9bfdcea14d8b4879c,2022-07-06_09h35.11.575,Colour_Asymmetry_Pilot,2022.1.3,Win32,60.33546519,62c50e9c1127f2cd403a315f,,,,,,,,,,,,,,,,,,,,threeone,,-4,1.9689,,,,,,,,,,,,,,,,,,,,,,,,,,,,,,,,,,"[-0.4668,-0.8746,-0.2942]","[-0.24719999999999998,0.5213999999999999,-0.12959999999999994]",-36,82,1,0,0,response7disk,-11,-12,1,0,0,rectangle,-11,-12,1,0,0,,2,0.0009,0,-11,-12,1,0,0,0,6,6,6,1,6,first,,,,,,,,,,,,,,,,,,,,,,,,,,,,,,,,,,,,,,,,,,,,,,,,,,,,,,,,,,,,,,,,,,,,,,,,
,,,,,,6133586c82c52424d8d5ed6a,62c53ac9bfdcea14d8b4879c,2022-07-06_09h35.11.575,Colour_Asymmetry_Pilot,2022.1.3,Win32,60.33546519,62c50e9c1127f2cd403a315f,,,,,,,,,,,,,,,,,,,,twofour,,-4,3.1394,,,,,,,,,,,,,,,,,,,,,,,,,,,,,,,,,,"[0.6625999999999999,0.4980000000000002,-0.357]","[-0.9766,-0.34920000000000007,0.2156]",-42,52,1,0,0,response7disk,-21,8,1,0,0,rectangle,-21,8,1,0,0,,2,0.0012,0,-21,8,1,0,0,0,7,7,101,1,20,second,,,,,,,,,,,,,,,,,,,,,,,,,,,,,,,,,,,,,,,,,,,,,,,,,,,,,,,,,,,,,,,,,,,,,,,,
,,,,,,6133586c82c52424d8d5ed6a,62c53ac9bfdcea14d8b4879c,2022-07-06_09h35.11.575,Colour_Asymmetry_Pilot,2022.1.3,Win32,60.33546519,62c50e9c1127f2cd403a315f,,,,,,,,,,,,,,,,,,,,fourthree,,-2,6.1359,,,,,,,,,,,,,,,,,,,,,,,,,,,,,,,,,,"[0.7802,-0.23140000000000005,-0.20799999999999996]","[-0.17659999999999998,-0.2864,-0.8354]",-72,-51,1,0,0,response5disk,-19,7,1,0,0,rectangle,-19,7,1,0,0,,3,0.0008,0,-19,7,1,0,0,0,8,8,154,1,73,second,,,,,,,,,,,,,,,,,,,,,,,,,,,,,,,,,,,,,,,,,,,,,,,,,,,,,,,,,,,,,,,,,,,,,,,,
,,,,,,6133586c82c52424d8d5ed6a,62c53ac9bfdcea14d8b4879c,2022-07-06_09h35.11.575,Colour_Asymmetry_Pilot,2022.1.3,Win32,60.33546519,62c50e9c1127f2cd403a315f,,,,,,,,,,,,,,,,,,,,threefour,,1,2.386,,,,,,,,,,,,,,,,,,,,,,,,,,,,,,,,,,"[-0.011800000000000033,-0.906,-0.45100000000000007]","[-0.10599999999999998,-0.15300000000000002,0.15280000000000005]",45,-68,1,0,0,response3disk,-1,9,1,0,0,rectangle,-1,9,1,0,0,,2,0.0008,0,-1,9,1,0,0,0,9,9,135,1,54,second,,,,,,,,,,,,,,,,,,,,,,,,,,,,,,,,,,,,,,,,,,,,,,,,,,,,,,,,,,,,,,,,,,,,,,,,
,,,,,,6133586c82c52424d8d5ed6a,62c53ac9bfdcea14d8b4879c,2022-07-06_09h35.11.575,Colour_Asymmetry_Pilot,2022.1.3,Win32,60.33546519,62c50e9c1127f2cd403a315f,,,,,,,,,,,,,,,,,,,,onetwo,,-4,1.6219,,,,,,,,,,,,,,,,,,,,,,,,,,,,,,,,,,"[0.04299999999999993,0.16060000000000008,-0.6628000000000001]","[-0.6706000000000001,-0.6157999999999999,-0.6786]",-39,89,1,0,0,response7disk,-6,-10,1,0,0,rectangle,-6,-10,1,0,0,,3,0.0007,0,-6,-10,1,0,0,0,10,10,70,1,70,first,,,,,,,,,,,,,,,,,,,,,,,,,,,,,,,,,,,,,,,,,,,,,,,,,,,,,,,,,,,,,,,,,,,,,,,,
,,,,,,6133586c82c52424d8d5ed6a,62c53ac9bfdcea14d8b4879c,2022-07-06_09h35.11.575,Colour_Asymmetry_Pilot,2022.1.3,Win32,60.33546519,62c50e9c1127f2cd403a315f,,,,,,,,,,,,,,,,,,,,fourtwo,,-2,4.2385,,,,,,,,,,,,,,,,,,,,,,,,,,,,,,,,,,"[0.3881999999999999,-0.23939999999999995,-0.05040000000000011]","[0.3802000000000001,0.19199999999999995,-0.6394]",-59,-24,1,0,0,response5disk,-10,6,1,0,0,rectangle,-10,6,1,0,0,,3,0.0005,0,-10,6,1,0,0,0,11,11,77,1,77,first,,,,,,,,,,,,,,,,,,,,,,,,,,,,,,,,,,,,,,,,,,,,,,,,,,,,,,,,,,,,,,,,,,,,,,,,
,,,,,,6133586c82c52424d8d5ed6a,62c53ac9bfdcea14d8b4879c,2022-07-06_09h35.11.575,Colour_Asymmetry_Pilot,2022.1.3,Win32,60.33546519,62c50e9c1127f2cd403a315f,,,,,,,,,,,,,,,,,,,,onetwo,,3,1.3636,,,,,,,,,,,,,,,,,,,,,,,,,,,,,,,,,,"[0.9842,0.7409999999999999,-0.6628000000000001]","[0.37240000000000006,-0.050999999999999934,-0.5216]",62,29,1,0,0,response1disk,-32,1,1,0,0,rectangle,-32,1,1,0,0,,2,0.0017,0,-32,1,1,0,0,0,12,12,92,1,11,second,,,,,,,,,,,,,,,,,,,,,,,,,,,,,,,,,,,,,,,,,,,,,,,,,,,,,,,,,,,,,,,,,,,,,,,,
,,,,,,6133586c82c52424d8d5ed6a,62c53ac9bfdcea14d8b4879c,2022-07-06_09h35.11.575,Colour_Asymmetry_Pilot,2022.1.3,Win32,60.33546519,62c50e9c1127f2cd403a315f,,,,,,,,,,,,,,,,,,,,onetwo,,-2,1.5827,,,,,,,,,,,,,,,,,,,,,,,,,,,,,,,,,,"[0.9686000000000001,0.5763999999999998,0.11359999999999992]","[0.40379999999999994,0.09000000000000008,0.44300000000000006]",-74,-35,1,0,0,response5disk,5,-1,1,0,0,rectangle,5,-1,1,0,0,,3,0.0022,0,5,-1,1,0,0,0,13,13,16,1,16,first,,,,,,,,,,,,,,,,,,,,,,,,,,,,,,,,,,,,,,,,,,,,,,,,,,,,,,,,,,,,,,,,,,,,,,,,
,,,,,,6133586c82c52424d8d5ed6a,62c53ac9bfdcea14d8b4879c,2022-07-06_09h35.11.575,Colour_Asymmetry_Pilot,2022.1.3,Win32,60.33546519,62c50e9c1127f2cd403a315f,,,,,,,,,,,,,,,,,,,,fourtwo,,-2,2.2785,,,,,,,,,,,,,,,,,,,,,,,,,,,,,,,,,,"[0.34099999999999997,0.12939999999999996,-0.9766]","[0.0351999999999999,0.41159999999999997,0.0038000000000000256]",-59,-34,1,0,0,response5disk,-13,-3,1,0,0,rectangle,-13,-3,1,0,0,,3,0.0002,0,-13,-3,1,0,0,0,14,14,21,1,21,first,,,,,,,,,,,,,,,,,,,,,,,,,,,,,,,,,,,,,,,,,,,,,,,,,,,,,,,,,,,,,,,,,,,,,,,,
,,,,,,6133586c82c52424d8d5ed6a,62c53ac9bfdcea14d8b4879c,2022-07-06_09h35.11.575,Colour_Asymmetry_Pilot,2022.1.3,Win32,60.33546519,62c50e9c1127f2cd403a315f,,,,,,,,,,,,,,,,,,,,fourthree,,-3,1.3185,,,,,,,,,,,,,,,,,,,,,,,,,,,,,,,,,,"[0.9213999999999998,0.6391999999999998,-0.9922]","[0.23920000000000008,0.2704,0.16060000000000008]",-70,23,1,0,0,response7disk,-24,7,1,0,0,rectangle,-24,7,1,0,0,,1,0.0008,0,-24,7,1,0,0,0,15,15,94,1,13,second,,,,,,,,,,,,,,,,,,,,,,,,,,,,,,,,,,,,,,,,,,,,,,,,,,,,,,,,,,,,,,,,,,,,,,,,
,,,,,,6133586c82c52424d8d5ed6a,62c53ac9bfdcea14d8b4879c,2022-07-06_09h35.11.575,Colour_Asymmetry_Pilot,2022.1.3,Win32,60.33546519,62c50e9c1127f2cd403a315f,,,,,,,,,,,,,,,,,,,,threeone,,-3,2.5195,,,,,,,,,,,,,,,,,,,,,,,,,,,,,,,,,,"[-0.45899999999999996,-0.3256,-0.9374]","[-0.38039999999999996,-0.4276,-0.1452]",-46,32,1,0,0,response7disk,-16,4,1,0,0,rectangle,-16,4,1,0,0,,1,0.0003,0,-16,4,1,0,0,0,16,16,156,1,75,second,,,,,,,,,,,,,,,,,,,,,,,,,,,,,,,,,,,,,,,,,,,,,,,,,,,,,,,,,,,,,,,,,,,,,,,,
,,,,,,6133586c82c52424d8d5ed6a,62c53ac9bfdcea14d8b4879c,2022-07-06_09h35.11.575,Colour_Asymmetry_Pilot,2022.1.3,Win32,60.33546519,62c50e9c1127f2cd403a315f,,,,,,,,,,,,,,,,,,,,twoone,,-3,1.899,,,,,,,,,,,,,,,,,,,,,,,,,,,,,,,,,,"[-0.20799999999999996,-0.655,-0.01980000000000004]","[-0.26280000000000003,-0.2158,-0.3256]",-57,32,1,0,0,response7disk,-18,5,1,0,0,rectangle,-18,5,1,0,0,,1,0.0001,0,-18,5,1,0,0,0,17,17,88,1,7,second,,,,,,,,,,,,,,,,,,,,,,,,,,,,,,,,,,,,,,,,,,,,,,,,,,,,,,,,,,,,,,,,,,,,,,,,
