trials.thisRepN,trials.thisTrialN,trials.thisN,trials.thisIndex,trials.ran,Colourcodes,participant,session,date,expName,psychopyVersion,OS,frameRate,study_id,trials_4.thisRepN,trials_4.thisTrialN,trials_4.thisN,trials_4.thisIndex,trials_4.ran,StimulusPos,key_resp.keys,key_resp.rt,key_resp_2.keys,key_resp_2.rt,key_resp_15.keys,key_resp_15.rt,key_resp_17.keys,key_resp_17.rt,key_resp_9.keys,key_resp_9.rt,key_resp_10.keys,key_resp_10.rt,Circle1_col,Ecc,Circle2_col,similarity,response_time,mouse_5.x,mouse_5.y,mouse_5.leftButton,mouse_5.midButton,mouse_5.rightButton,mouse_5.clicked_name,mouse_10.x,mouse_10.y,mouse_10.leftButton,mouse_10.midButton,mouse_10.rightButton,mouse_10.clicked_name,mouse_7.x,mouse_7.y,mouse_7.leftButton,mouse_7.midButton,mouse_7.rightButton,catchnumberprac,mouse_6.x,mouse_6.y,mouse_6.leftButton,mouse_6.midButton,mouse_6.rightButton,duringprac.thisRepN,duringprac.thisTrialN,duringprac.thisN,duringprac.thisIndex,duringprac.ran,mouse_7.clicked_name,catchprac,mouse_6.clicked_name,key_resp_22.keys,key_resp_22.rt,Circle1_colour,Circle2_colour,mouse.x,mouse.y,mouse.leftButton,mouse.midButton,mouse.rightButton,mouse.clicked_name,mouse_2.x,mouse_2.y,mouse_2.leftButton,mouse_2.midButton,mouse_2.rightButton,mouse_2.clicked_name,mouse_3.x,mouse_3.y,mouse_3.leftButton,mouse_3.midButton,mouse_3.rightButton,catchresponse,catchnumber,response_time_catch,Catch,mouse_11.x,mouse_11.y,mouse_11.leftButton,mouse_11.midButton,mouse_11.rightButton,trials_2.thisRepN,trials_2.thisTrialN,trials_2.thisN,trials_2.thisIndex,trials_2.ran,Colourpair,Temporder,mouse_3.clicked_name,mouse_11.clicked_name,trials_3.thisRepN,trials_3.thisTrialN,trials_3.thisN,trials_3.thisIndex,trials_3.ran,key_resp_instr_Ishi.keys,key_resp_instr_Ishi.rt,Ishi_trial_keyresp.keys,Ishi_textbox.text,Ishi_mouse.x,Ishi_mouse.y,Ishi_mouse.leftButton,Ishi_mouse.midButton,Ishi_mouse.rightButton,Ishi_mouse.clicked_name,Ishi_loop.thisRepN,Ishi_loop.thisTrialN,Ishi_loop.thisN,Ishi_loop.thisIndex,Ishi_loop.ran,imageaddress,textbox.text,mouse_4.x,mouse_4.y,mouse_4.leftButton,mouse_4.midButton,mouse_4.rightButton,mouse_4.clicked_name,textbox_2.text,mouse_8.x,mouse_8.y,mouse_8.leftButton,mouse_8.midButton,mouse_8.rightButton,mouse_8.clicked_name,textbox_3.text,mouse_9.x,mouse_9.y,mouse_9.leftButton,mouse_9.midButton,mouse_9.rightButton,mouse_9.clicked_name,textbox_4.text,mouse_12.x,mouse_12.y,mouse_12.leftButton,mouse_12.midButton,mouse_12.rightButton,mouse_12.clicked_name,textbox_5.text,mouse_13.x,mouse_13.y,mouse_13.leftButton,mouse_13.midButton,mouse_13.rightButton,mouse_13.clicked_name,textbox_6.text,mouse_14.x,mouse_14.y,mouse_14.leftButton,mouse_14.midButton,mouse_14.rightButton,mouse_14.clicked_name,textbox_7.text,mouse_15.x,mouse_15.y,mouse_15.leftButton,mouse_15.midButton,mouse_15.rightButton,mouse_15.clicked_name
0,0,0,12,1,,60f4357cca3a9867c33ca65b,62c53bb912f839c363f3eed2,2022-07-06_09h39.53.905,Colour_Asymmetry_Pilot,2022.1.3,Win32,59.9880024,62c50e9c1127f2cd403a315f,,,,,,,,,,,,,,,,,,,,,,,,,,,,,,,,,,,,,,,,,,,,,,,,,,,,,,,,,,,,,,,,,,,,,,,,,,,,,,,,,,,,,,,,,,,,,,,,,,,,,,,,,,,,,,,,,,,,,,,,,,,,,,,,,,,,,,,,,,,,,,,,,,,,,,,,,,,,,,,,,,,
0,1,1,60,1,,60f4357cca3a9867c33ca65b,62c53bb912f839c363f3eed2,2022-07-06_09h39.53.905,Colour_Asymmetry_Pilot,2022.1.3,Win32,59.9880024,62c50e9c1127f2cd403a315f,,,,,,,,,,,,,,,,,,,,,,,,,,,,,,,,,,,,,,,,,,,,,,,,,,,,,,,,,,,,,,,,,,,,,,,,,,,,,,,,,,,,,,,,,,,,,,,,,,,,,,,,,,,,,,,,,,,,,,,,,,,,,,,,,,,,,,,,,,,,,,,,,,,,,,,,,,,,,,,,,,,
0,2,2,62,1,,60f4357cca3a9867c33ca65b,62c53bb912f839c363f3eed2,2022-07-06_09h39.53.905,Colour_Asymmetry_Pilot,2022.1.3,Win32,59.9880024,62c50e9c1127f2cd403a315f,,,,,,,,,,,,,,,,,,,,,,,,,,,,,,,,,,,,,,,,,,,,,,,,,,,,,,,,,,,,,,,,,,,,,,,,,,,,,,,,,,,,,,,,,,,,,,,,,,,,,,,,,,,,,,,,,,,,,,,,,,,,,,,,,,,,,,,,,,,,,,,,,,,,,,,,,,,,,,,,,,,
0,3,3,5,1,,60f4357cca3a9867c33ca65b,62c53bb912f839c363f3eed2,2022-07-06_09h39.53.905,Colour_Asymmetry_Pilot,2022.1.3,Win32,59.9880024,62c50e9c1127f2cd403a315f,,,,,,,,,,,,,,,,,,,,,,,,,,,,,,,,,,,,,,,,,,,,,,,,,,,,,,,,,,,,,,,,,,,,,,,,,,,,,,,,,,,,,,,,,,,,,,,,,,,,,,,,,,,,,,,,,,,,,,,,,,,,,,,,,,,,,,,,,,,,,,,,,,,,,,,,,,,,,,,,,,,
0,4,4,91,1,,60f4357cca3a9867c33ca65b,62c53bb912f839c363f3eed2,2022-07-06_09h39.53.905,Colour_Asymmetry_Pilot,2022.1.3,Win32,59.9880024,62c50e9c1127f2cd403a315f,,,,,,,,,,,,,,,,,,,,,,,,,,,,,,,,,,,,,,,,,,,,,,,,,,,,,,,,,,,,,,,,,,,,,,,,,,,,,,,,,,,,,,,,,,,,,,,,,,,,,,,,,,,,,,,,,,,,,,,,,,,,,,,,,,,,,,,,,,,,,,,,,,,,,,,,,,,,,,,,,,,
0,5,5,21,1,,60f4357cca3a9867c33ca65b,62c53bb912f839c363f3eed2,2022-07-06_09h39.53.905,Colour_Asymmetry_Pilot,2022.1.3,Win32,59.9880024,62c50e9c1127f2cd403a315f,,,,,,,,,,,,,,,,,,,,,,,,,,,,,,,,,,,,,,,,,,,,,,,,,,,,,,,,,,,,,,,,,,,,,,,,,,,,,,,,,,,,,,,,,,,,,,,,,,,,,,,,,,,,,,,,,,,,,,,,,,,,,,,,,,,,,,,,,,,,,,,,,,,,,,,,,,,,,,,,,,,
0,6,6,32,1,,60f4357cca3a9867c33ca65b,62c53bb912f839c363f3eed2,2022-07-06_09h39.53.905,Colour_Asymmetry_Pilot,2022.1.3,Win32,59.9880024,62c50e9c1127f2cd403a315f,,,,,,,,,,,,,,,,,,,,,,,,,,,,,,,,,,,,,,,,,,,,,,,,,,,,,,,,,,,,,,,,,,,,,,,,,,,,,,,,,,,,,,,,,,,,,,,,,,,,,,,,,,,,,,,,,,,,,,,,,,,,,,,,,,,,,,,,,,,,,,,,,,,,,,,,,,,,,,,,,,,
0,7,7,48,1,,60f4357cca3a9867c33ca65b,62c53bb912f839c363f3eed2,2022-07-06_09h39.53.905,Colour_Asymmetry_Pilot,2022.1.3,Win32,59.9880024,62c50e9c1127f2cd403a315f,,,,,,,,,,,,,,,,,,,,,,,,,,,,,,,,,,,,,,,,,,,,,,,,,,,,,,,,,,,,,,,,,,,,,,,,,,,,,,,,,,,,,,,,,,,,,,,,,,,,,,,,,,,,,,,,,,,,,,,,,,,,,,,,,,,,,,,,,,,,,,,,,,,,,,,,,,,,,,,,,,,
0,8,8,49,1,,60f4357cca3a9867c33ca65b,62c53bb912f839c363f3eed2,2022-07-06_09h39.53.905,Colour_Asymmetry_Pilot,2022.1.3,Win32,59.9880024,62c50e9c1127f2cd403a315f,,,,,,,,,,,,,,,,,,,,,,,,,,,,,,,,,,,,,,,,,,,,,,,,,,,,,,,,,,,,,,,,,,,,,,,,,,,,,,,,,,,,,,,,,,,,,,,,,,,,,,,,,,,,,,,,,,,,,,,,,,,,,,,,,,,,,,,,,,,,,,,,,,,,,,,,,,,,,,,,,,,
0,9,9,27,1,,60f4357cca3a9867c33ca65b,62c53bb912f839c363f3eed2,2022-07-06_09h39.53.905,Colour_Asymmetry_Pilot,2022.1.3,Win32,59.9880024,62c50e9c1127f2cd403a315f,,,,,,,,,,,,,,,,,,,,,,,,,,,,,,,,,,,,,,,,,,,,,,,,,,,,,,,,,,,,,,,,,,,,,,,,,,,,,,,,,,,,,,,,,,,,,,,,,,,,,,,,,,,,,,,,,,,,,,,,,,,,,,,,,,,,,,,,,,,,,,,,,,,,,,,,,,,,,,,,,,,
0,10,10,16,1,,60f4357cca3a9867c33ca65b,62c53bb912f839c363f3eed2,2022-07-06_09h39.53.905,Colour_Asymmetry_Pilot,2022.1.3,Win32,59.9880024,62c50e9c1127f2cd403a315f,,,,,,,,,,,,,,,,,,,,,,,,,,,,,,,,,,,,,,,,,,,,,,,,,,,,,,,,,,,,,,,,,,,,,,,,,,,,,,,,,,,,,,,,,,,,,,,,,,,,,,,,,,,,,,,,,,,,,,,,,,,,,,,,,,,,,,,,,,,,,,,,,,,,,,,,,,,,,,,,,,,
0,11,11,38,1,,60f4357cca3a9867c33ca65b,62c53bb912f839c363f3eed2,2022-07-06_09h39.53.905,Colour_Asymmetry_Pilot,2022.1.3,Win32,59.9880024,62c50e9c1127f2cd403a315f,,,,,,,,,,,,,,,,,,,,,,,,,,,,,,,,,,,,,,,,,,,,,,,,,,,,,,,,,,,,,,,,,,,,,,,,,,,,,,,,,,,,,,,,,,,,,,,,,,,,,,,,,,,,,,,,,,,,,,,,,,,,,,,,,,,,,,,,,,,,,,,,,,,,,,,,,,,,,,,,,,,
0,12,12,51,1,,60f4357cca3a9867c33ca65b,62c53bb912f839c363f3eed2,2022-07-06_09h39.53.905,Colour_Asymmetry_Pilot,2022.1.3,Win32,59.9880024,62c50e9c1127f2cd403a315f,,,,,,,,,,,,,,,,,,,,,,,,,,,,,,,,,,,,,,,,,,,,,,,,,,,,,,,,,,,,,,,,,,,,,,,,,,,,,,,,,,,,,,,,,,,,,,,,,,,,,,,,,,,,,,,,,,,,,,,,,,,,,,,,,,,,,,,,,,,,,,,,,,,,,,,,,,,,,,,,,,,
0,13,13,41,1,,60f4357cca3a9867c33ca65b,62c53bb912f839c363f3eed2,2022-07-06_09h39.53.905,Colour_Asymmetry_Pilot,2022.1.3,Win32,59.9880024,62c50e9c1127f2cd403a315f,,,,,,,,,,,,,,,,,,,,,,,,,,,,,,,,,,,,,,,,,,,,,,,,,,,,,,,,,,,,,,,,,,,,,,,,,,,,,,,,,,,,,,,,,,,,,,,,,,,,,,,,,,,,,,,,,,,,,,,,,,,,,,,,,,,,,,,,,,,,,,,,,,,,,,,,,,,,,,,,,,,
0,14,14,19,1,,60f4357cca3a9867c33ca65b,62c53bb912f839c363f3eed2,2022-07-06_09h39.53.905,Colour_Asymmetry_Pilot,2022.1.3,Win32,59.9880024,62c50e9c1127f2cd403a315f,,,,,,,,,,,,,,,,,,,,,,,,,,,,,,,,,,,,,,,,,,,,,,,,,,,,,,,,,,,,,,,,,,,,,,,,,,,,,,,,,,,,,,,,,,,,,,,,,,,,,,,,,,,,,,,,,,,,,,,,,,,,,,,,,,,,,,,,,,,,,,,,,,,,,,,,,,,,,,,,,,,
0,15,15,31,1,,60f4357cca3a9867c33ca65b,62c53bb912f839c363f3eed2,2022-07-06_09h39.53.905,Colour_Asymmetry_Pilot,2022.1.3,Win32,59.9880024,62c50e9c1127f2cd403a315f,,,,,,,,,,,,,,,,,,,,,,,,,,,,,,,,,,,,,,,,,,,,,,,,,,,,,,,,,,,,,,,,,,,,,,,,,,,,,,,,,,,,,,,,,,,,,,,,,,,,,,,,,,,,,,,,,,,,,,,,,,,,,,,,,,,,,,,,,,,,,,,,,,,,,,,,,,,,,,,,,,,
0,16,16,57,1,,60f4357cca3a9867c33ca65b,62c53bb912f839c363f3eed2,2022-07-06_09h39.53.905,Colour_Asymmetry_Pilot,2022.1.3,Win32,59.9880024,62c50e9c1127f2cd403a315f,,,,,,,,,,,,,,,,,,,,,,,,,,,,,,,,,,,,,,,,,,,,,,,,,,,,,,,,,,,,,,,,,,,,,,,,,,,,,,,,,,,,,,,,,,,,,,,,,,,,,,,,,,,,,,,,,,,,,,,,,,,,,,,,,,,,,,,,,,,,,,,,,,,,,,,,,,,,,,,,,,,
0,17,17,65,1,,60f4357cca3a9867c33ca65b,62c53bb912f839c363f3eed2,2022-07-06_09h39.53.905,Colour_Asymmetry_Pilot,2022.1.3,Win32,59.9880024,62c50e9c1127f2cd403a315f,,,,,,,,,,,,,,,,,,,,,,,,,,,,,,,,,,,,,,,,,,,,,,,,,,,,,,,,,,,,,,,,,,,,,,,,,,,,,,,,,,,,,,,,,,,,,,,,,,,,,,,,,,,,,,,,,,,,,,,,,,,,,,,,,,,,,,,,,,,,,,,,,,,,,,,,,,,,,,,,,,,
0,18,18,43,1,,60f4357cca3a9867c33ca65b,62c53bb912f839c363f3eed2,2022-07-06_09h39.53.905,Colour_Asymmetry_Pilot,2022.1.3,Win32,59.9880024,62c50e9c1127f2cd403a315f,,,,,,,,,,,,,,,,,,,,,,,,,,,,,,,,,,,,,,,,,,,,,,,,,,,,,,,,,,,,,,,,,,,,,,,,,,,,,,,,,,,,,,,,,,,,,,,,,,,,,,,,,,,,,,,,,,,,,,,,,,,,,,,,,,,,,,,,,,,,,,,,,,,,,,,,,,,,,,,,,,,
0,19,19,61,1,,60f4357cca3a9867c33ca65b,62c53bb912f839c363f3eed2,2022-07-06_09h39.53.905,Colour_Asymmetry_Pilot,2022.1.3,Win32,59.9880024,62c50e9c1127f2cd403a315f,,,,,,,,,,,,,,,,,,,,,,,,,,,,,,,,,,,,,,,,,,,,,,,,,,,,,,,,,,,,,,,,,,,,,,,,,,,,,,,,,,,,,,,,,,,,,,,,,,,,,,,,,,,,,,,,,,,,,,,,,,,,,,,,,,,,,,,,,,,,,,,,,,,,,,,,,,,,,,,,,,,
0,20,20,14,1,,60f4357cca3a9867c33ca65b,62c53bb912f839c363f3eed2,2022-07-06_09h39.53.905,Colour_Asymmetry_Pilot,2022.1.3,Win32,59.9880024,62c50e9c1127f2cd403a315f,,,,,,,,,,,,,,,,,,,,,,,,,,,,,,,,,,,,,,,,,,,,,,,,,,,,,,,,,,,,,,,,,,,,,,,,,,,,,,,,,,,,,,,,,,,,,,,,,,,,,,,,,,,,,,,,,,,,,,,,,,,,,,,,,,,,,,,,,,,,,,,,,,,,,,,,,,,,,,,,,,,
0,21,21,6,1,,60f4357cca3a9867c33ca65b,62c53bb912f839c363f3eed2,2022-07-06_09h39.53.905,Colour_Asymmetry_Pilot,2022.1.3,Win32,59.9880024,62c50e9c1127f2cd403a315f,,,,,,,,,,,,,,,,,,,,,,,,,,,,,,,,,,,,,,,,,,,,,,,,,,,,,,,,,,,,,,,,,,,,,,,,,,,,,,,,,,,,,,,,,,,,,,,,,,,,,,,,,,,,,,,,,,,,,,,,,,,,,,,,,,,,,,,,,,,,,,,,,,,,,,,,,,,,,,,,,,,
0,22,22,70,1,,60f4357cca3a9867c33ca65b,62c53bb912f839c363f3eed2,2022-07-06_09h39.53.905,Colour_Asymmetry_Pilot,2022.1.3,Win32,59.9880024,62c50e9c1127f2cd403a315f,,,,,,,,,,,,,,,,,,,,,,,,,,,,,,,,,,,,,,,,,,,,,,,,,,,,,,,,,,,,,,,,,,,,,,,,,,,,,,,,,,,,,,,,,,,,,,,,,,,,,,,,,,,,,,,,,,,,,,,,,,,,,,,,,,,,,,,,,,,,,,,,,,,,,,,,,,,,,,,,,,,
0,23,23,26,1,,60f4357cca3a9867c33ca65b,62c53bb912f839c363f3eed2,2022-07-06_09h39.53.905,Colour_Asymmetry_Pilot,2022.1.3,Win32,59.9880024,62c50e9c1127f2cd403a315f,,,,,,,,,,,,,,,,,,,,,,,,,,,,,,,,,,,,,,,,,,,,,,,,,,,,,,,,,,,,,,,,,,,,,,,,,,,,,,,,,,,,,,,,,,,,,,,,,,,,,,,,,,,,,,,,,,,,,,,,,,,,,,,,,,,,,,,,,,,,,,,,,,,,,,,,,,,,,,,,,,,
0,24,24,17,1,,60f4357cca3a9867c33ca65b,62c53bb912f839c363f3eed2,2022-07-06_09h39.53.905,Colour_Asymmetry_Pilot,2022.1.3,Win32,59.9880024,62c50e9c1127f2cd403a315f,,,,,,,,,,,,,,,,,,,,,,,,,,,,,,,,,,,,,,,,,,,,,,,,,,,,,,,,,,,,,,,,,,,,,,,,,,,,,,,,,,,,,,,,,,,,,,,,,,,,,,,,,,,,,,,,,,,,,,,,,,,,,,,,,,,,,,,,,,,,,,,,,,,,,,,,,,,,,,,,,,,
0,25,25,50,1,,60f4357cca3a9867c33ca65b,62c53bb912f839c363f3eed2,2022-07-06_09h39.53.905,Colour_Asymmetry_Pilot,2022.1.3,Win32,59.9880024,62c50e9c1127f2cd403a315f,,,,,,,,,,,,,,,,,,,,,,,,,,,,,,,,,,,,,,,,,,,,,,,,,,,,,,,,,,,,,,,,,,,,,,,,,,,,,,,,,,,,,,,,,,,,,,,,,,,,,,,,,,,,,,,,,,,,,,,,,,,,,,,,,,,,,,,,,,,,,,,,,,,,,,,,,,,,,,,,,,,
0,26,26,34,1,,60f4357cca3a9867c33ca65b,62c53bb912f839c363f3eed2,2022-07-06_09h39.53.905,Colour_Asymmetry_Pilot,2022.1.3,Win32,59.9880024,62c50e9c1127f2cd403a315f,,,,,,,,,,,,,,,,,,,,,,,,,,,,,,,,,,,,,,,,,,,,,,,,,,,,,,,,,,,,,,,,,,,,,,,,,,,,,,,,,,,,,,,,,,,,,,,,,,,,,,,,,,,,,,,,,,,,,,,,,,,,,,,,,,,,,,,,,,,,,,,,,,,,,,,,,,,,,,,,,,,
0,27,27,10,1,,60f4357cca3a9867c33ca65b,62c53bb912f839c363f3eed2,2022-07-06_09h39.53.905,Colour_Asymmetry_Pilot,2022.1.3,Win32,59.9880024,62c50e9c1127f2cd403a315f,,,,,,,,,,,,,,,,,,,,,,,,,,,,,,,,,,,,,,,,,,,,,,,,,,,,,,,,,,,,,,,,,,,,,,,,,,,,,,,,,,,,,,,,,,,,,,,,,,,,,,,,,,,,,,,,,,,,,,,,,,,,,,,,,,,,,,,,,,,,,,,,,,,,,,,,,,,,,,,,,,,
0,28,28,79,1,,60f4357cca3a9867c33ca65b,62c53bb912f839c363f3eed2,2022-07-06_09h39.53.905,Colour_Asymmetry_Pilot,2022.1.3,Win32,59.9880024,62c50e9c1127f2cd403a315f,,,,,,,,,,,,,,,,,,,,,,,,,,,,,,,,,,,,,,,,,,,,,,,,,,,,,,,,,,,,,,,,,,,,,,,,,,,,,,,,,,,,,,,,,,,,,,,,,,,,,,,,,,,,,,,,,,,,,,,,,,,,,,,,,,,,,,,,,,,,,,,,,,,,,,,,,,,,,,,,,,,
0,29,29,7,1,,60f4357cca3a9867c33ca65b,62c53bb912f839c363f3eed2,2022-07-06_09h39.53.905,Colour_Asymmetry_Pilot,2022.1.3,Win32,59.9880024,62c50e9c1127f2cd403a315f,,,,,,,,,,,,,,,,,,,,,,,,,,,,,,,,,,,,,,,,,,,,,,,,,,,,,,,,,,,,,,,,,,,,,,,,,,,,,,,,,,,,,,,,,,,,,,,,,,,,,,,,,,,,,,,,,,,,,,,,,,,,,,,,,,,,,,,,,,,,,,,,,,,,,,,,,,,,,,,,,,,
0,30,30,75,1,,60f4357cca3a9867c33ca65b,62c53bb912f839c363f3eed2,2022-07-06_09h39.53.905,Colour_Asymmetry_Pilot,2022.1.3,Win32,59.9880024,62c50e9c1127f2cd403a315f,,,,,,,,,,,,,,,,,,,,,,,,,,,,,,,,,,,,,,,,,,,,,,,,,,,,,,,,,,,,,,,,,,,,,,,,,,,,,,,,,,,,,,,,,,,,,,,,,,,,,,,,,,,,,,,,,,,,,,,,,,,,,,,,,,,,,,,,,,,,,,,,,,,,,,,,,,,,,,,,,,,
0,31,31,30,1,,60f4357cca3a9867c33ca65b,62c53bb912f839c363f3eed2,2022-07-06_09h39.53.905,Colour_Asymmetry_Pilot,2022.1.3,Win32,59.9880024,62c50e9c1127f2cd403a315f,,,,,,,,,,,,,,,,,,,,,,,,,,,,,,,,,,,,,,,,,,,,,,,,,,,,,,,,,,,,,,,,,,,,,,,,,,,,,,,,,,,,,,,,,,,,,,,,,,,,,,,,,,,,,,,,,,,,,,,,,,,,,,,,,,,,,,,,,,,,,,,,,,,,,,,,,,,,,,,,,,,
0,32,32,45,1,,60f4357cca3a9867c33ca65b,62c53bb912f839c363f3eed2,2022-07-06_09h39.53.905,Colour_Asymmetry_Pilot,2022.1.3,Win32,59.9880024,62c50e9c1127f2cd403a315f,,,,,,,,,,,,,,,,,,,,,,,,,,,,,,,,,,,,,,,,,,,,,,,,,,,,,,,,,,,,,,,,,,,,,,,,,,,,,,,,,,,,,,,,,,,,,,,,,,,,,,,,,,,,,,,,,,,,,,,,,,,,,,,,,,,,,,,,,,,,,,,,,,,,,,,,,,,,,,,,,,,
0,33,33,90,1,,60f4357cca3a9867c33ca65b,62c53bb912f839c363f3eed2,2022-07-06_09h39.53.905,Colour_Asymmetry_Pilot,2022.1.3,Win32,59.9880024,62c50e9c1127f2cd403a315f,,,,,,,,,,,,,,,,,,,,,,,,,,,,,,,,,,,,,,,,,,,,,,,,,,,,,,,,,,,,,,,,,,,,,,,,,,,,,,,,,,,,,,,,,,,,,,,,,,,,,,,,,,,,,,,,,,,,,,,,,,,,,,,,,,,,,,,,,,,,,,,,,,,,,,,,,,,,,,,,,,,
0,34,34,64,1,,60f4357cca3a9867c33ca65b,62c53bb912f839c363f3eed2,2022-07-06_09h39.53.905,Colour_Asymmetry_Pilot,2022.1.3,Win32,59.9880024,62c50e9c1127f2cd403a315f,,,,,,,,,,,,,,,,,,,,,,,,,,,,,,,,,,,,,,,,,,,,,,,,,,,,,,,,,,,,,,,,,,,,,,,,,,,,,,,,,,,,,,,,,,,,,,,,,,,,,,,,,,,,,,,,,,,,,,,,,,,,,,,,,,,,,,,,,,,,,,,,,,,,,,,,,,,,,,,,,,,
0,35,35,28,1,,60f4357cca3a9867c33ca65b,62c53bb912f839c363f3eed2,2022-07-06_09h39.53.905,Colour_Asymmetry_Pilot,2022.1.3,Win32,59.9880024,62c50e9c1127f2cd403a315f,,,,,,,,,,,,,,,,,,,,,,,,,,,,,,,,,,,,,,,,,,,,,,,,,,,,,,,,,,,,,,,,,,,,,,,,,,,,,,,,,,,,,,,,,,,,,,,,,,,,,,,,,,,,,,,,,,,,,,,,,,,,,,,,,,,,,,,,,,,,,,,,,,,,,,,,,,,,,,,,,,,
0,36,36,9,1,,60f4357cca3a9867c33ca65b,62c53bb912f839c363f3eed2,2022-07-06_09h39.53.905,Colour_Asymmetry_Pilot,2022.1.3,Win32,59.9880024,62c50e9c1127f2cd403a315f,,,,,,,,,,,,,,,,,,,,,,,,,,,,,,,,,,,,,,,,,,,,,,,,,,,,,,,,,,,,,,,,,,,,,,,,,,,,,,,,,,,,,,,,,,,,,,,,,,,,,,,,,,,,,,,,,,,,,,,,,,,,,,,,,,,,,,,,,,,,,,,,,,,,,,,,,,,,,,,,,,,
0,37,37,18,1,,60f4357cca3a9867c33ca65b,62c53bb912f839c363f3eed2,2022-07-06_09h39.53.905,Colour_Asymmetry_Pilot,2022.1.3,Win32,59.9880024,62c50e9c1127f2cd403a315f,,,,,,,,,,,,,,,,,,,,,,,,,,,,,,,,,,,,,,,,,,,,,,,,,,,,,,,,,,,,,,,,,,,,,,,,,,,,,,,,,,,,,,,,,,,,,,,,,,,,,,,,,,,,,,,,,,,,,,,,,,,,,,,,,,,,,,,,,,,,,,,,,,,,,,,,,,,,,,,,,,,
0,38,38,55,1,,60f4357cca3a9867c33ca65b,62c53bb912f839c363f3eed2,2022-07-06_09h39.53.905,Colour_Asymmetry_Pilot,2022.1.3,Win32,59.9880024,62c50e9c1127f2cd403a315f,,,,,,,,,,,,,,,,,,,,,,,,,,,,,,,,,,,,,,,,,,,,,,,,,,,,,,,,,,,,,,,,,,,,,,,,,,,,,,,,,,,,,,,,,,,,,,,,,,,,,,,,,,,,,,,,,,,,,,,,,,,,,,,,,,,,,,,,,,,,,,,,,,,,,,,,,,,,,,,,,,,
0,39,39,42,1,,60f4357cca3a9867c33ca65b,62c53bb912f839c363f3eed2,2022-07-06_09h39.53.905,Colour_Asymmetry_Pilot,2022.1.3,Win32,59.9880024,62c50e9c1127f2cd403a315f,,,,,,,,,,,,,,,,,,,,,,,,,,,,,,,,,,,,,,,,,,,,,,,,,,,,,,,,,,,,,,,,,,,,,,,,,,,,,,,,,,,,,,,,,,,,,,,,,,,,,,,,,,,,,,,,,,,,,,,,,,,,,,,,,,,,,,,,,,,,,,,,,,,,,,,,,,,,,,,,,,,
0,40,40,53,1,,60f4357cca3a9867c33ca65b,62c53bb912f839c363f3eed2,2022-07-06_09h39.53.905,Colour_Asymmetry_Pilot,2022.1.3,Win32,59.9880024,62c50e9c1127f2cd403a315f,,,,,,,,,,,,,,,,,,,,,,,,,,,,,,,,,,,,,,,,,,,,,,,,,,,,,,,,,,,,,,,,,,,,,,,,,,,,,,,,,,,,,,,,,,,,,,,,,,,,,,,,,,,,,,,,,,,,,,,,,,,,,,,,,,,,,,,,,,,,,,,,,,,,,,,,,,,,,,,,,,,
0,41,41,39,1,,60f4357cca3a9867c33ca65b,62c53bb912f839c363f3eed2,2022-07-06_09h39.53.905,Colour_Asymmetry_Pilot,2022.1.3,Win32,59.9880024,62c50e9c1127f2cd403a315f,,,,,,,,,,,,,,,,,,,,,,,,,,,,,,,,,,,,,,,,,,,,,,,,,,,,,,,,,,,,,,,,,,,,,,,,,,,,,,,,,,,,,,,,,,,,,,,,,,,,,,,,,,,,,,,,,,,,,,,,,,,,,,,,,,,,,,,,,,,,,,,,,,,,,,,,,,,,,,,,,,,
0,42,42,40,1,,60f4357cca3a9867c33ca65b,62c53bb912f839c363f3eed2,2022-07-06_09h39.53.905,Colour_Asymmetry_Pilot,2022.1.3,Win32,59.9880024,62c50e9c1127f2cd403a315f,,,,,,,,,,,,,,,,,,,,,,,,,,,,,,,,,,,,,,,,,,,,,,,,,,,,,,,,,,,,,,,,,,,,,,,,,,,,,,,,,,,,,,,,,,,,,,,,,,,,,,,,,,,,,,,,,,,,,,,,,,,,,,,,,,,,,,,,,,,,,,,,,,,,,,,,,,,,,,,,,,,
0,43,43,47,1,,60f4357cca3a9867c33ca65b,62c53bb912f839c363f3eed2,2022-07-06_09h39.53.905,Colour_Asymmetry_Pilot,2022.1.3,Win32,59.9880024,62c50e9c1127f2cd403a315f,,,,,,,,,,,,,,,,,,,,,,,,,,,,,,,,,,,,,,,,,,,,,,,,,,,,,,,,,,,,,,,,,,,,,,,,,,,,,,,,,,,,,,,,,,,,,,,,,,,,,,,,,,,,,,,,,,,,,,,,,,,,,,,,,,,,,,,,,,,,,,,,,,,,,,,,,,,,,,,,,,,
0,44,44,44,1,,60f4357cca3a9867c33ca65b,62c53bb912f839c363f3eed2,2022-07-06_09h39.53.905,Colour_Asymmetry_Pilot,2022.1.3,Win32,59.9880024,62c50e9c1127f2cd403a315f,,,,,,,,,,,,,,,,,,,,,,,,,,,,,,,,,,,,,,,,,,,,,,,,,,,,,,,,,,,,,,,,,,,,,,,,,,,,,,,,,,,,,,,,,,,,,,,,,,,,,,,,,,,,,,,,,,,,,,,,,,,,,,,,,,,,,,,,,,,,,,,,,,,,,,,,,,,,,,,,,,,
0,45,45,76,1,,60f4357cca3a9867c33ca65b,62c53bb912f839c363f3eed2,2022-07-06_09h39.53.905,Colour_Asymmetry_Pilot,2022.1.3,Win32,59.9880024,62c50e9c1127f2cd403a315f,,,,,,,,,,,,,,,,,,,,,,,,,,,,,,,,,,,,,,,,,,,,,,,,,,,,,,,,,,,,,,,,,,,,,,,,,,,,,,,,,,,,,,,,,,,,,,,,,,,,,,,,,,,,,,,,,,,,,,,,,,,,,,,,,,,,,,,,,,,,,,,,,,,,,,,,,,,,,,,,,,,
0,46,46,88,1,,60f4357cca3a9867c33ca65b,62c53bb912f839c363f3eed2,2022-07-06_09h39.53.905,Colour_Asymmetry_Pilot,2022.1.3,Win32,59.9880024,62c50e9c1127f2cd403a315f,,,,,,,,,,,,,,,,,,,,,,,,,,,,,,,,,,,,,,,,,,,,,,,,,,,,,,,,,,,,,,,,,,,,,,,,,,,,,,,,,,,,,,,,,,,,,,,,,,,,,,,,,,,,,,,,,,,,,,,,,,,,,,,,,,,,,,,,,,,,,,,,,,,,,,,,,,,,,,,,,,,
0,47,47,73,1,,60f4357cca3a9867c33ca65b,62c53bb912f839c363f3eed2,2022-07-06_09h39.53.905,Colour_Asymmetry_Pilot,2022.1.3,Win32,59.9880024,62c50e9c1127f2cd403a315f,,,,,,,,,,,,,,,,,,,,,,,,,,,,,,,,,,,,,,,,,,,,,,,,,,,,,,,,,,,,,,,,,,,,,,,,,,,,,,,,,,,,,,,,,,,,,,,,,,,,,,,,,,,,,,,,,,,,,,,,,,,,,,,,,,,,,,,,,,,,,,,,,,,,,,,,,,,,,,,,,,,
0,48,48,71,1,,60f4357cca3a9867c33ca65b,62c53bb912f839c363f3eed2,2022-07-06_09h39.53.905,Colour_Asymmetry_Pilot,2022.1.3,Win32,59.9880024,62c50e9c1127f2cd403a315f,,,,,,,,,,,,,,,,,,,,,,,,,,,,,,,,,,,,,,,,,,,,,,,,,,,,,,,,,,,,,,,,,,,,,,,,,,,,,,,,,,,,,,,,,,,,,,,,,,,,,,,,,,,,,,,,,,,,,,,,,,,,,,,,,,,,,,,,,,,,,,,,,,,,,,,,,,,,,,,,,,,
0,49,49,86,1,,60f4357cca3a9867c33ca65b,62c53bb912f839c363f3eed2,2022-07-06_09h39.53.905,Colour_Asymmetry_Pilot,2022.1.3,Win32,59.9880024,62c50e9c1127f2cd403a315f,,,,,,,,,,,,,,,,,,,,,,,,,,,,,,,,,,,,,,,,,,,,,,,,,,,,,,,,,,,,,,,,,,,,,,,,,,,,,,,,,,,,,,,,,,,,,,,,,,,,,,,,,,,,,,,,,,,,,,,,,,,,,,,,,,,,,,,,,,,,,,,,,,,,,,,,,,,,,,,,,,,
0,50,50,87,1,,60f4357cca3a9867c33ca65b,62c53bb912f839c363f3eed2,2022-07-06_09h39.53.905,Colour_Asymmetry_Pilot,2022.1.3,Win32,59.9880024,62c50e9c1127f2cd403a315f,,,,,,,,,,,,,,,,,,,,,,,,,,,,,,,,,,,,,,,,,,,,,,,,,,,,,,,,,,,,,,,,,,,,,,,,,,,,,,,,,,,,,,,,,,,,,,,,,,,,,,,,,,,,,,,,,,,,,,,,,,,,,,,,,,,,,,,,,,,,,,,,,,,,,,,,,,,,,,,,,,,
0,51,51,46,1,,60f4357cca3a9867c33ca65b,62c53bb912f839c363f3eed2,2022-07-06_09h39.53.905,Colour_Asymmetry_Pilot,2022.1.3,Win32,59.9880024,62c50e9c1127f2cd403a315f,,,,,,,,,,,,,,,,,,,,,,,,,,,,,,,,,,,,,,,,,,,,,,,,,,,,,,,,,,,,,,,,,,,,,,,,,,,,,,,,,,,,,,,,,,,,,,,,,,,,,,,,,,,,,,,,,,,,,,,,,,,,,,,,,,,,,,,,,,,,,,,,,,,,,,,,,,,,,,,,,,,
0,52,52,20,1,,60f4357cca3a9867c33ca65b,62c53bb912f839c363f3eed2,2022-07-06_09h39.53.905,Colour_Asymmetry_Pilot,2022.1.3,Win32,59.9880024,62c50e9c1127f2cd403a315f,,,,,,,,,,,,,,,,,,,,,,,,,,,,,,,,,,,,,,,,,,,,,,,,,,,,,,,,,,,,,,,,,,,,,,,,,,,,,,,,,,,,,,,,,,,,,,,,,,,,,,,,,,,,,,,,,,,,,,,,,,,,,,,,,,,,,,,,,,,,,,,,,,,,,,,,,,,,,,,,,,,
0,53,53,84,1,,60f4357cca3a9867c33ca65b,62c53bb912f839c363f3eed2,2022-07-06_09h39.53.905,Colour_Asymmetry_Pilot,2022.1.3,Win32,59.9880024,62c50e9c1127f2cd403a315f,,,,,,,,,,,,,,,,,,,,,,,,,,,,,,,,,,,,,,,,,,,,,,,,,,,,,,,,,,,,,,,,,,,,,,,,,,,,,,,,,,,,,,,,,,,,,,,,,,,,,,,,,,,,,,,,,,,,,,,,,,,,,,,,,,,,,,,,,,,,,,,,,,,,,,,,,,,,,,,,,,,
0,54,54,89,1,,60f4357cca3a9867c33ca65b,62c53bb912f839c363f3eed2,2022-07-06_09h39.53.905,Colour_Asymmetry_Pilot,2022.1.3,Win32,59.9880024,62c50e9c1127f2cd403a315f,,,,,,,,,,,,,,,,,,,,,,,,,,,,,,,,,,,,,,,,,,,,,,,,,,,,,,,,,,,,,,,,,,,,,,,,,,,,,,,,,,,,,,,,,,,,,,,,,,,,,,,,,,,,,,,,,,,,,,,,,,,,,,,,,,,,,,,,,,,,,,,,,,,,,,,,,,,,,,,,,,,
0,55,55,68,1,,60f4357cca3a9867c33ca65b,62c53bb912f839c363f3eed2,2022-07-06_09h39.53.905,Colour_Asymmetry_Pilot,2022.1.3,Win32,59.9880024,62c50e9c1127f2cd403a315f,,,,,,,,,,,,,,,,,,,,,,,,,,,,,,,,,,,,,,,,,,,,,,,,,,,,,,,,,,,,,,,,,,,,,,,,,,,,,,,,,,,,,,,,,,,,,,,,,,,,,,,,,,,,,,,,,,,,,,,,,,,,,,,,,,,,,,,,,,,,,,,,,,,,,,,,,,,,,,,,,,,
0,56,56,8,1,,60f4357cca3a9867c33ca65b,62c53bb912f839c363f3eed2,2022-07-06_09h39.53.905,Colour_Asymmetry_Pilot,2022.1.3,Win32,59.9880024,62c50e9c1127f2cd403a315f,,,,,,,,,,,,,,,,,,,,,,,,,,,,,,,,,,,,,,,,,,,,,,,,,,,,,,,,,,,,,,,,,,,,,,,,,,,,,,,,,,,,,,,,,,,,,,,,,,,,,,,,,,,,,,,,,,,,,,,,,,,,,,,,,,,,,,,,,,,,,,,,,,,,,,,,,,,,,,,,,,,
0,57,57,24,1,,60f4357cca3a9867c33ca65b,62c53bb912f839c363f3eed2,2022-07-06_09h39.53.905,Colour_Asymmetry_Pilot,2022.1.3,Win32,59.9880024,62c50e9c1127f2cd403a315f,,,,,,,,,,,,,,,,,,,,,,,,,,,,,,,,,,,,,,,,,,,,,,,,,,,,,,,,,,,,,,,,,,,,,,,,,,,,,,,,,,,,,,,,,,,,,,,,,,,,,,,,,,,,,,,,,,,,,,,,,,,,,,,,,,,,,,,,,,,,,,,,,,,,,,,,,,,,,,,,,,,
0,58,58,58,1,,60f4357cca3a9867c33ca65b,62c53bb912f839c363f3eed2,2022-07-06_09h39.53.905,Colour_Asymmetry_Pilot,2022.1.3,Win32,59.9880024,62c50e9c1127f2cd403a315f,,,,,,,,,,,,,,,,,,,,,,,,,,,,,,,,,,,,,,,,,,,,,,,,,,,,,,,,,,,,,,,,,,,,,,,,,,,,,,,,,,,,,,,,,,,,,,,,,,,,,,,,,,,,,,,,,,,,,,,,,,,,,,,,,,,,,,,,,,,,,,,,,,,,,,,,,,,,,,,,,,,
0,59,59,56,1,,60f4357cca3a9867c33ca65b,62c53bb912f839c363f3eed2,2022-07-06_09h39.53.905,Colour_Asymmetry_Pilot,2022.1.3,Win32,59.9880024,62c50e9c1127f2cd403a315f,,,,,,,,,,,,,,,,,,,,,,,,,,,,,,,,,,,,,,,,,,,,,,,,,,,,,,,,,,,,,,,,,,,,,,,,,,,,,,,,,,,,,,,,,,,,,,,,,,,,,,,,,,,,,,,,,,,,,,,,,,,,,,,,,,,,,,,,,,,,,,,,,,,,,,,,,,,,,,,,,,,
0,60,60,92,1,,60f4357cca3a9867c33ca65b,62c53bb912f839c363f3eed2,2022-07-06_09h39.53.905,Colour_Asymmetry_Pilot,2022.1.3,Win32,59.9880024,62c50e9c1127f2cd403a315f,,,,,,,,,,,,,,,,,,,,,,,,,,,,,,,,,,,,,,,,,,,,,,,,,,,,,,,,,,,,,,,,,,,,,,,,,,,,,,,,,,,,,,,,,,,,,,,,,,,,,,,,,,,,,,,,,,,,,,,,,,,,,,,,,,,,,,,,,,,,,,,,,,,,,,,,,,,,,,,,,,,
0,61,61,66,1,,60f4357cca3a9867c33ca65b,62c53bb912f839c363f3eed2,2022-07-06_09h39.53.905,Colour_Asymmetry_Pilot,2022.1.3,Win32,59.9880024,62c50e9c1127f2cd403a315f,,,,,,,,,,,,,,,,,,,,,,,,,,,,,,,,,,,,,,,,,,,,,,,,,,,,,,,,,,,,,,,,,,,,,,,,,,,,,,,,,,,,,,,,,,,,,,,,,,,,,,,,,,,,,,,,,,,,,,,,,,,,,,,,,,,,,,,,,,,,,,,,,,,,,,,,,,,,,,,,,,,
0,62,62,72,1,,60f4357cca3a9867c33ca65b,62c53bb912f839c363f3eed2,2022-07-06_09h39.53.905,Colour_Asymmetry_Pilot,2022.1.3,Win32,59.9880024,62c50e9c1127f2cd403a315f,,,,,,,,,,,,,,,,,,,,,,,,,,,,,,,,,,,,,,,,,,,,,,,,,,,,,,,,,,,,,,,,,,,,,,,,,,,,,,,,,,,,,,,,,,,,,,,,,,,,,,,,,,,,,,,,,,,,,,,,,,,,,,,,,,,,,,,,,,,,,,,,,,,,,,,,,,,,,,,,,,,
0,63,63,63,1,,60f4357cca3a9867c33ca65b,62c53bb912f839c363f3eed2,2022-07-06_09h39.53.905,Colour_Asymmetry_Pilot,2022.1.3,Win32,59.9880024,62c50e9c1127f2cd403a315f,,,,,,,,,,,,,,,,,,,,,,,,,,,,,,,,,,,,,,,,,,,,,,,,,,,,,,,,,,,,,,,,,,,,,,,,,,,,,,,,,,,,,,,,,,,,,,,,,,,,,,,,,,,,,,,,,,,,,,,,,,,,,,,,,,,,,,,,,,,,,,,,,,,,,,,,,,,,,,,,,,,
0,64,64,2,1,,60f4357cca3a9867c33ca65b,62c53bb912f839c363f3eed2,2022-07-06_09h39.53.905,Colour_Asymmetry_Pilot,2022.1.3,Win32,59.9880024,62c50e9c1127f2cd403a315f,,,,,,,,,,,,,,,,,,,,,,,,,,,,,,,,,,,,,,,,,,,,,,,,,,,,,,,,,,,,,,,,,,,,,,,,,,,,,,,,,,,,,,,,,,,,,,,,,,,,,,,,,,,,,,,,,,,,,,,,,,,,,,,,,,,,,,,,,,,,,,,,,,,,,,,,,,,,,,,,,,,
0,65,65,81,1,,60f4357cca3a9867c33ca65b,62c53bb912f839c363f3eed2,2022-07-06_09h39.53.905,Colour_Asymmetry_Pilot,2022.1.3,Win32,59.9880024,62c50e9c1127f2cd403a315f,,,,,,,,,,,,,,,,,,,,,,,,,,,,,,,,,,,,,,,,,,,,,,,,,,,,,,,,,,,,,,,,,,,,,,,,,,,,,,,,,,,,,,,,,,,,,,,,,,,,,,,,,,,,,,,,,,,,,,,,,,,,,,,,,,,,,,,,,,,,,,,,,,,,,,,,,,,,,,,,,,,
0,66,66,85,1,,60f4357cca3a9867c33ca65b,62c53bb912f839c363f3eed2,2022-07-06_09h39.53.905,Colour_Asymmetry_Pilot,2022.1.3,Win32,59.9880024,62c50e9c1127f2cd403a315f,,,,,,,,,,,,,,,,,,,,,,,,,,,,,,,,,,,,,,,,,,,,,,,,,,,,,,,,,,,,,,,,,,,,,,,,,,,,,,,,,,,,,,,,,,,,,,,,,,,,,,,,,,,,,,,,,,,,,,,,,,,,,,,,,,,,,,,,,,,,,,,,,,,,,,,,,,,,,,,,,,,
0,67,67,37,1,,60f4357cca3a9867c33ca65b,62c53bb912f839c363f3eed2,2022-07-06_09h39.53.905,Colour_Asymmetry_Pilot,2022.1.3,Win32,59.9880024,62c50e9c1127f2cd403a315f,,,,,,,,,,,,,,,,,,,,,,,,,,,,,,,,,,,,,,,,,,,,,,,,,,,,,,,,,,,,,,,,,,,,,,,,,,,,,,,,,,,,,,,,,,,,,,,,,,,,,,,,,,,,,,,,,,,,,,,,,,,,,,,,,,,,,,,,,,,,,,,,,,,,,,,,,,,,,,,,,,,
0,68,68,77,1,,60f4357cca3a9867c33ca65b,62c53bb912f839c363f3eed2,2022-07-06_09h39.53.905,Colour_Asymmetry_Pilot,2022.1.3,Win32,59.9880024,62c50e9c1127f2cd403a315f,,,,,,,,,,,,,,,,,,,,,,,,,,,,,,,,,,,,,,,,,,,,,,,,,,,,,,,,,,,,,,,,,,,,,,,,,,,,,,,,,,,,,,,,,,,,,,,,,,,,,,,,,,,,,,,,,,,,,,,,,,,,,,,,,,,,,,,,,,,,,,,,,,,,,,,,,,,,,,,,,,,
0,69,69,74,1,,60f4357cca3a9867c33ca65b,62c53bb912f839c363f3eed2,2022-07-06_09h39.53.905,Colour_Asymmetry_Pilot,2022.1.3,Win32,59.9880024,62c50e9c1127f2cd403a315f,,,,,,,,,,,,,,,,,,,,,,,,,,,,,,,,,,,,,,,,,,,,,,,,,,,,,,,,,,,,,,,,,,,,,,,,,,,,,,,,,,,,,,,,,,,,,,,,,,,,,,,,,,,,,,,,,,,,,,,,,,,,,,,,,,,,,,,,,,,,,,,,,,,,,,,,,,,,,,,,,,,
0,70,70,67,1,,60f4357cca3a9867c33ca65b,62c53bb912f839c363f3eed2,2022-07-06_09h39.53.905,Colour_Asymmetry_Pilot,2022.1.3,Win32,59.9880024,62c50e9c1127f2cd403a315f,,,,,,,,,,,,,,,,,,,,,,,,,,,,,,,,,,,,,,,,,,,,,,,,,,,,,,,,,,,,,,,,,,,,,,,,,,,,,,,,,,,,,,,,,,,,,,,,,,,,,,,,,,,,,,,,,,,,,,,,,,,,,,,,,,,,,,,,,,,,,,,,,,,,,,,,,,,,,,,,,,,
0,71,71,35,1,,60f4357cca3a9867c33ca65b,62c53bb912f839c363f3eed2,2022-07-06_09h39.53.905,Colour_Asymmetry_Pilot,2022.1.3,Win32,59.9880024,62c50e9c1127f2cd403a315f,,,,,,,,,,,,,,,,,,,,,,,,,,,,,,,,,,,,,,,,,,,,,,,,,,,,,,,,,,,,,,,,,,,,,,,,,,,,,,,,,,,,,,,,,,,,,,,,,,,,,,,,,,,,,,,,,,,,,,,,,,,,,,,,,,,,,,,,,,,,,,,,,,,,,,,,,,,,,,,,,,,
0,72,72,36,1,,60f4357cca3a9867c33ca65b,62c53bb912f839c363f3eed2,2022-07-06_09h39.53.905,Colour_Asymmetry_Pilot,2022.1.3,Win32,59.9880024,62c50e9c1127f2cd403a315f,,,,,,,,,,,,,,,,,,,,,,,,,,,,,,,,,,,,,,,,,,,,,,,,,,,,,,,,,,,,,,,,,,,,,,,,,,,,,,,,,,,,,,,,,,,,,,,,,,,,,,,,,,,,,,,,,,,,,,,,,,,,,,,,,,,,,,,,,,,,,,,,,,,,,,,,,,,,,,,,,,,
0,73,73,33,1,,60f4357cca3a9867c33ca65b,62c53bb912f839c363f3eed2,2022-07-06_09h39.53.905,Colour_Asymmetry_Pilot,2022.1.3,Win32,59.9880024,62c50e9c1127f2cd403a315f,,,,,,,,,,,,,,,,,,,,,,,,,,,,,,,,,,,,,,,,,,,,,,,,,,,,,,,,,,,,,,,,,,,,,,,,,,,,,,,,,,,,,,,,,,,,,,,,,,,,,,,,,,,,,,,,,,,,,,,,,,,,,,,,,,,,,,,,,,,,,,,,,,,,,,,,,,,,,,,,,,,
0,74,74,59,1,,60f4357cca3a9867c33ca65b,62c53bb912f839c363f3eed2,2022-07-06_09h39.53.905,Colour_Asymmetry_Pilot,2022.1.3,Win32,59.9880024,62c50e9c1127f2cd403a315f,,,,,,,,,,,,,,,,,,,,,,,,,,,,,,,,,,,,,,,,,,,,,,,,,,,,,,,,,,,,,,,,,,,,,,,,,,,,,,,,,,,,,,,,,,,,,,,,,,,,,,,,,,,,,,,,,,,,,,,,,,,,,,,,,,,,,,,,,,,,,,,,,,,,,,,,,,,,,,,,,,,
0,75,75,82,1,,60f4357cca3a9867c33ca65b,62c53bb912f839c363f3eed2,2022-07-06_09h39.53.905,Colour_Asymmetry_Pilot,2022.1.3,Win32,59.9880024,62c50e9c1127f2cd403a315f,,,,,,,,,,,,,,,,,,,,,,,,,,,,,,,,,,,,,,,,,,,,,,,,,,,,,,,,,,,,,,,,,,,,,,,,,,,,,,,,,,,,,,,,,,,,,,,,,,,,,,,,,,,,,,,,,,,,,,,,,,,,,,,,,,,,,,,,,,,,,,,,,,,,,,,,,,,,,,,,,,,
0,76,76,25,1,,60f4357cca3a9867c33ca65b,62c53bb912f839c363f3eed2,2022-07-06_09h39.53.905,Colour_Asymmetry_Pilot,2022.1.3,Win32,59.9880024,62c50e9c1127f2cd403a315f,,,,,,,,,,,,,,,,,,,,,,,,,,,,,,,,,,,,,,,,,,,,,,,,,,,,,,,,,,,,,,,,,,,,,,,,,,,,,,,,,,,,,,,,,,,,,,,,,,,,,,,,,,,,,,,,,,,,,,,,,,,,,,,,,,,,,,,,,,,,,,,,,,,,,,,,,,,,,,,,,,,
0,77,77,23,1,,60f4357cca3a9867c33ca65b,62c53bb912f839c363f3eed2,2022-07-06_09h39.53.905,Colour_Asymmetry_Pilot,2022.1.3,Win32,59.9880024,62c50e9c1127f2cd403a315f,,,,,,,,,,,,,,,,,,,,,,,,,,,,,,,,,,,,,,,,,,,,,,,,,,,,,,,,,,,,,,,,,,,,,,,,,,,,,,,,,,,,,,,,,,,,,,,,,,,,,,,,,,,,,,,,,,,,,,,,,,,,,,,,,,,,,,,,,,,,,,,,,,,,,,,,,,,,,,,,,,,
0,78,78,11,1,,60f4357cca3a9867c33ca65b,62c53bb912f839c363f3eed2,2022-07-06_09h39.53.905,Colour_Asymmetry_Pilot,2022.1.3,Win32,59.9880024,62c50e9c1127f2cd403a315f,,,,,,,,,,,,,,,,,,,,,,,,,,,,,,,,,,,,,,,,,,,,,,,,,,,,,,,,,,,,,,,,,,,,,,,,,,,,,,,,,,,,,,,,,,,,,,,,,,,,,,,,,,,,,,,,,,,,,,,,,,,,,,,,,,,,,,,,,,,,,,,,,,,,,,,,,,,,,,,,,,,
0,79,79,13,1,,60f4357cca3a9867c33ca65b,62c53bb912f839c363f3eed2,2022-07-06_09h39.53.905,Colour_Asymmetry_Pilot,2022.1.3,Win32,59.9880024,62c50e9c1127f2cd403a315f,,,,,,,,,,,,,,,,,,,,,,,,,,,,,,,,,,,,,,,,,,,,,,,,,,,,,,,,,,,,,,,,,,,,,,,,,,,,,,,,,,,,,,,,,,,,,,,,,,,,,,,,,,,,,,,,,,,,,,,,,,,,,,,,,,,,,,,,,,,,,,,,,,,,,,,,,,,,,,,,,,,
0,80,80,54,1,,60f4357cca3a9867c33ca65b,62c53bb912f839c363f3eed2,2022-07-06_09h39.53.905,Colour_Asymmetry_Pilot,2022.1.3,Win32,59.9880024,62c50e9c1127f2cd403a315f,,,,,,,,,,,,,,,,,,,,,,,,,,,,,,,,,,,,,,,,,,,,,,,,,,,,,,,,,,,,,,,,,,,,,,,,,,,,,,,,,,,,,,,,,,,,,,,,,,,,,,,,,,,,,,,,,,,,,,,,,,,,,,,,,,,,,,,,,,,,,,,,,,,,,,,,,,,,,,,,,,,
0,81,81,4,1,,60f4357cca3a9867c33ca65b,62c53bb912f839c363f3eed2,2022-07-06_09h39.53.905,Colour_Asymmetry_Pilot,2022.1.3,Win32,59.9880024,62c50e9c1127f2cd403a315f,,,,,,,,,,,,,,,,,,,,,,,,,,,,,,,,,,,,,,,,,,,,,,,,,,,,,,,,,,,,,,,,,,,,,,,,,,,,,,,,,,,,,,,,,,,,,,,,,,,,,,,,,,,,,,,,,,,,,,,,,,,,,,,,,,,,,,,,,,,,,,,,,,,,,,,,,,,,,,,,,,,
0,82,82,69,1,,60f4357cca3a9867c33ca65b,62c53bb912f839c363f3eed2,2022-07-06_09h39.53.905,Colour_Asymmetry_Pilot,2022.1.3,Win32,59.9880024,62c50e9c1127f2cd403a315f,,,,,,,,,,,,,,,,,,,,,,,,,,,,,,,,,,,,,,,,,,,,,,,,,,,,,,,,,,,,,,,,,,,,,,,,,,,,,,,,,,,,,,,,,,,,,,,,,,,,,,,,,,,,,,,,,,,,,,,,,,,,,,,,,,,,,,,,,,,,,,,,,,,,,,,,,,,,,,,,,,,
0,83,83,3,1,,60f4357cca3a9867c33ca65b,62c53bb912f839c363f3eed2,2022-07-06_09h39.53.905,Colour_Asymmetry_Pilot,2022.1.3,Win32,59.9880024,62c50e9c1127f2cd403a315f,,,,,,,,,,,,,,,,,,,,,,,,,,,,,,,,,,,,,,,,,,,,,,,,,,,,,,,,,,,,,,,,,,,,,,,,,,,,,,,,,,,,,,,,,,,,,,,,,,,,,,,,,,,,,,,,,,,,,,,,,,,,,,,,,,,,,,,,,,,,,,,,,,,,,,,,,,,,,,,,,,,
0,84,84,29,1,,60f4357cca3a9867c33ca65b,62c53bb912f839c363f3eed2,2022-07-06_09h39.53.905,Colour_Asymmetry_Pilot,2022.1.3,Win32,59.9880024,62c50e9c1127f2cd403a315f,,,,,,,,,,,,,,,,,,,,,,,,,,,,,,,,,,,,,,,,,,,,,,,,,,,,,,,,,,,,,,,,,,,,,,,,,,,,,,,,,,,,,,,,,,,,,,,,,,,,,,,,,,,,,,,,,,,,,,,,,,,,,,,,,,,,,,,,,,,,,,,,,,,,,,,,,,,,,,,,,,,
0,85,85,83,1,,60f4357cca3a9867c33ca65b,62c53bb912f839c363f3eed2,2022-07-06_09h39.53.905,Colour_Asymmetry_Pilot,2022.1.3,Win32,59.9880024,62c50e9c1127f2cd403a315f,,,,,,,,,,,,,,,,,,,,,,,,,,,,,,,,,,,,,,,,,,,,,,,,,,,,,,,,,,,,,,,,,,,,,,,,,,,,,,,,,,,,,,,,,,,,,,,,,,,,,,,,,,,,,,,,,,,,,,,,,,,,,,,,,,,,,,,,,,,,,,,,,,,,,,,,,,,,,,,,,,,
0,86,86,52,1,,60f4357cca3a9867c33ca65b,62c53bb912f839c363f3eed2,2022-07-06_09h39.53.905,Colour_Asymmetry_Pilot,2022.1.3,Win32,59.9880024,62c50e9c1127f2cd403a315f,,,,,,,,,,,,,,,,,,,,,,,,,,,,,,,,,,,,,,,,,,,,,,,,,,,,,,,,,,,,,,,,,,,,,,,,,,,,,,,,,,,,,,,,,,,,,,,,,,,,,,,,,,,,,,,,,,,,,,,,,,,,,,,,,,,,,,,,,,,,,,,,,,,,,,,,,,,,,,,,,,,
0,87,87,78,1,,60f4357cca3a9867c33ca65b,62c53bb912f839c363f3eed2,2022-07-06_09h39.53.905,Colour_Asymmetry_Pilot,2022.1.3,Win32,59.9880024,62c50e9c1127f2cd403a315f,,,,,,,,,,,,,,,,,,,,,,,,,,,,,,,,,,,,,,,,,,,,,,,,,,,,,,,,,,,,,,,,,,,,,,,,,,,,,,,,,,,,,,,,,,,,,,,,,,,,,,,,,,,,,,,,,,,,,,,,,,,,,,,,,,,,,,,,,,,,,,,,,,,,,,,,,,,,,,,,,,,
0,88,88,0,1,,60f4357cca3a9867c33ca65b,62c53bb912f839c363f3eed2,2022-07-06_09h39.53.905,Colour_Asymmetry_Pilot,2022.1.3,Win32,59.9880024,62c50e9c1127f2cd403a315f,,,,,,,,,,,,,,,,,,,,,,,,,,,,,,,,,,,,,,,,,,,,,,,,,,,,,,,,,,,,,,,,,,,,,,,,,,,,,,,,,,,,,,,,,,,,,,,,,,,,,,,,,,,,,,,,,,,,,,,,,,,,,,,,,,,,,,,,,,,,,,,,,,,,,,,,,,,,,,,,,,,
0,89,89,22,1,,60f4357cca3a9867c33ca65b,62c53bb912f839c363f3eed2,2022-07-06_09h39.53.905,Colour_Asymmetry_Pilot,2022.1.3,Win32,59.9880024,62c50e9c1127f2cd403a315f,,,,,,,,,,,,,,,,,,,,,,,,,,,,,,,,,,,,,,,,,,,,,,,,,,,,,,,,,,,,,,,,,,,,,,,,,,,,,,,,,,,,,,,,,,,,,,,,,,,,,,,,,,,,,,,,,,,,,,,,,,,,,,,,,,,,,,,,,,,,,,,,,,,,,,,,,,,,,,,,,,,
0,90,90,80,1,,60f4357cca3a9867c33ca65b,62c53bb912f839c363f3eed2,2022-07-06_09h39.53.905,Colour_Asymmetry_Pilot,2022.1.3,Win32,59.9880024,62c50e9c1127f2cd403a315f,,,,,,,,,,,,,,,,,,,,,,,,,,,,,,,,,,,,,,,,,,,,,,,,,,,,,,,,,,,,,,,,,,,,,,,,,,,,,,,,,,,,,,,,,,,,,,,,,,,,,,,,,,,,,,,,,,,,,,,,,,,,,,,,,,,,,,,,,,,,,,,,,,,,,,,,,,,,,,,,,,,
0,91,91,1,1,,60f4357cca3a9867c33ca65b,62c53bb912f839c363f3eed2,2022-07-06_09h39.53.905,Colour_Asymmetry_Pilot,2022.1.3,Win32,59.9880024,62c50e9c1127f2cd403a315f,,,,,,,,,,,,,,,,,,,,,,,,,,,,,,,,,,,,,,,,,,,,,,,,,,,,,,,,,,,,,,,,,,,,,,,,,,,,,,,,,,,,,,,,,,,,,,,,,,,,,,,,,,,,,,,,,,,,,,,,,,,,,,,,,,,,,,,,,,,,,,,,,,,,,,,,,,,,,,,,,,,
0,92,92,15,1,,60f4357cca3a9867c33ca65b,62c53bb912f839c363f3eed2,2022-07-06_09h39.53.905,Colour_Asymmetry_Pilot,2022.1.3,Win32,59.9880024,62c50e9c1127f2cd403a315f,,,,,,,,,,,,,,,,,,,,,,,,,,,,,,,,,,,,,,,,,,,,,,,,,,,,,,,,,,,,,,,,,,,,,,,,,,,,,,,,,,,,,,,,,,,,,,,,,,,,,,,,,,,,,,,,,,,,,,,,,,,,,,,,,,,,,,,,,,,,,,,,,,,,,,,,,,,,,,,,,,,
,,,,,,60f4357cca3a9867c33ca65b,62c53bb912f839c363f3eed2,2022-07-06_09h39.53.905,Colour_Asymmetry_Pilot,2022.1.3,Win32,59.9880024,62c50e9c1127f2cd403a315f,0,0,0,5,1,threefour,,,,,,,,,,,,,,,,,,,,,,,,,,,,,,,,,,,,,,,,,,,,,,,,,,,,,,,,,,,,,,,,,,,,,,,,,,,,,,,,,,,,,,,,,,,,,,,,,,,,,,,,,,,,,,,,,,,,,,,,,,,,,,,,,,,,,,,,,,,,,,,,,,,,,,,,,,,,,
,,,,,,60f4357cca3a9867c33ca65b,62c53bb912f839c363f3eed2,2022-07-06_09h39.53.905,Colour_Asymmetry_Pilot,2022.1.3,Win32,59.9880024,62c50e9c1127f2cd403a315f,0,1,1,62,1,fourtwo,,,,,,,,,,,,,,,,,,,,,,,,,,,,,,,,,,,,,,,,,,,,,,,,,,,,,,,,,,,,,,,,,,,,,,,,,,,,,,,,,,,,,,,,,,,,,,,,,,,,,,,,,,,,,,,,,,,,,,,,,,,,,,,,,,,,,,,,,,,,,,,,,,,,,,,,,,,,,
,,,,,,60f4357cca3a9867c33ca65b,62c53bb912f839c363f3eed2,2022-07-06_09h39.53.905,Colour_Asymmetry_Pilot,2022.1.3,Win32,59.9880024,62c50e9c1127f2cd403a315f,0,2,2,141,1,threefour,,,,,,,,,,,,,,,,,,,,,,,,,,,,,,,,,,,,,,,,,,,,,,,,,,,,,,,,,,,,,,,,,,,,,,,,,,,,,,,,,,,,,,,,,,,,,,,,,,,,,,,,,,,,,,,,,,,,,,,,,,,,,,,,,,,,,,,,,,,,,,,,,,,,,,,,,,,,,
,,,,,,60f4357cca3a9867c33ca65b,62c53bb912f839c363f3eed2,2022-07-06_09h39.53.905,Colour_Asymmetry_Pilot,2022.1.3,Win32,59.9880024,62c50e9c1127f2cd403a315f,0,3,3,149,1,threefour,,,,,,,,,,,,,,,,,,,,,,,,,,,,,,,,,,,,,,,,,,,,,,,,,,,,,,,,,,,,,,,,,,,,,,,,,,,,,,,,,,,,,,,,,,,,,,,,,,,,,,,,,,,,,,,,,,,,,,,,,,,,,,,,,,,,,,,,,,,,,,,,,,,,,,,,,,,,,
,,,,,,60f4357cca3a9867c33ca65b,62c53bb912f839c363f3eed2,2022-07-06_09h39.53.905,Colour_Asymmetry_Pilot,2022.1.3,Win32,59.9880024,62c50e9c1127f2cd403a315f,0,4,4,88,1,onetwo,,,,,,,,,,,,,,,,,,,,,,,,,,,,,,,,,,,,,,,,,,,,,,,,,,,,,,,,,,,,,,,,,,,,,,,,,,,,,,,,,,,,,,,,,,,,,,,,,,,,,,,,,,,,,,,,,,,,,,,,,,,,,,,,,,,,,,,,,,,,,,,,,,,,,,,,,,,,,
,,,,,,60f4357cca3a9867c33ca65b,62c53bb912f839c363f3eed2,2022-07-06_09h39.53.905,Colour_Asymmetry_Pilot,2022.1.3,Win32,59.9880024,62c50e9c1127f2cd403a315f,0,5,5,7,1,fourthree,,,,,,,,,,,,,,,,,,,,,,,,,,,,,,,,,,,,,,,,,,,,,,,,,,,,,,,,,,,,,,,,,,,,,,,,,,,,,,,,,,,,,,,,,,,,,,,,,,,,,,,,,,,,,,,,,,,,,,,,,,,,,,,,,,,,,,,,,,,,,,,,,,,,,,,,,,,,,
,,,,,,60f4357cca3a9867c33ca65b,62c53bb912f839c363f3eed2,2022-07-06_09h39.53.905,Colour_Asymmetry_Pilot,2022.1.3,Win32,59.9880024,62c50e9c1127f2cd403a315f,0,6,6,72,1,onetwo,,,,,,,,,,,,,,,,,,,,,,,,,,,,,,,,,,,,,,,,,,,,,,,,,,,,,,,,,,,,,,,,,,,,,,,,,,,,,,,,,,,,,,,,,,,,,,,,,,,,,,,,,,,,,,,,,,,,,,,,,,,,,,,,,,,,,,,,,,,,,,,,,,,,,,,,,,,,,
,,,,,,60f4357cca3a9867c33ca65b,62c53bb912f839c363f3eed2,2022-07-06_09h39.53.905,Colour_Asymmetry_Pilot,2022.1.3,Win32,59.9880024,62c50e9c1127f2cd403a315f,0,7,7,161,1,onethree,,,,,,,,,,,,,,,,,,,,,,,,,,,,,,,,,,,,,,,,,,,,,,,,,,,,,,,,,,,,,,,,,,,,,,,,,,,,,,,,,,,,,,,,,,,,,,,,,,,,,,,,,,,,,,,,,,,,,,,,,,,,,,,,,,,,,,,,,,,,,,,,,,,,,,,,,,,,,
,,,,,,60f4357cca3a9867c33ca65b,62c53bb912f839c363f3eed2,2022-07-06_09h39.53.905,Colour_Asymmetry_Pilot,2022.1.3,Win32,59.9880024,62c50e9c1127f2cd403a315f,0,8,8,3,1,twofour,,,,,,,,,,,,,,,,,,,,,,,,,,,,,,,,,,,,,,,,,,,,,,,,,,,,,,,,,,,,,,,,,,,,,,,,,,,,,,,,,,,,,,,,,,,,,,,,,,,,,,,,,,,,,,,,,,,,,,,,,,,,,,,,,,,,,,,,,,,,,,,,,,,,,,,,,,,,,
,,,,,,60f4357cca3a9867c33ca65b,62c53bb912f839c363f3eed2,2022-07-06_09h39.53.905,Colour_Asymmetry_Pilot,2022.1.3,Win32,59.9880024,62c50e9c1127f2cd403a315f,0,9,9,11,1,twofour,,,,,,,,,,,,,,,,,,,,,,,,,,,,,,,,,,,,,,,,,,,,,,,,,,,,,,,,,,,,,,,,,,,,,,,,,,,,,,,,,,,,,,,,,,,,,,,,,,,,,,,,,,,,,,,,,,,,,,,,,,,,,,,,,,,,,,,,,,,,,,,,,,,,,,,,,,,,,
,,,,,,60f4357cca3a9867c33ca65b,62c53bb912f839c363f3eed2,2022-07-06_09h39.53.905,Colour_Asymmetry_Pilot,2022.1.3,Win32,59.9880024,62c50e9c1127f2cd403a315f,0,10,10,152,1,onetwo,,,,,,,,,,,,,,,,,,,,,,,,,,,,,,,,,,,,,,,,,,,,,,,,,,,,,,,,,,,,,,,,,,,,,,,,,,,,,,,,,,,,,,,,,,,,,,,,,,,,,,,,,,,,,,,,,,,,,,,,,,,,,,,,,,,,,,,,,,,,,,,,,,,,,,,,,,,,,
,,,,,,60f4357cca3a9867c33ca65b,62c53bb912f839c363f3eed2,2022-07-06_09h39.53.905,Colour_Asymmetry_Pilot,2022.1.3,Win32,59.9880024,62c50e9c1127f2cd403a315f,0,11,11,56,1,onetwo,,,,,,,,,,,,,,,,,,,,,,,,,,,,,,,,,,,,,,,,,,,,,,,,,,,,,,,,,,,,,,,,,,,,,,,,,,,,,,,,,,,,,,,,,,,,,,,,,,,,,,,,,,,,,,,,,,,,,,,,,,,,,,,,,,,,,,,,,,,,,,,,,,,,,,,,,,,,,
,,,,,,60f4357cca3a9867c33ca65b,62c53bb912f839c363f3eed2,2022-07-06_09h39.53.905,Colour_Asymmetry_Pilot,2022.1.3,Win32,59.9880024,62c50e9c1127f2cd403a315f,0,12,12,117,1,threefour,,,,,,,,,,,,,,,,,,,,,,,,,,,,,,,,,,,,,,,,,,,,,,,,,,,,,,,,,,,,,,,,,,,,,,,,,,,,,,,,,,,,,,,,,,,,,,,,,,,,,,,,,,,,,,,,,,,,,,,,,,,,,,,,,,,,,,,,,,,,,,,,,,,,,,,,,,,,,
,,,,,,60f4357cca3a9867c33ca65b,62c53bb912f839c363f3eed2,2022-07-06_09h39.53.905,Colour_Asymmetry_Pilot,2022.1.3,Win32,59.9880024,62c50e9c1127f2cd403a315f,0,13,13,19,1,twofour,,,,,,,,,,,,,,,,,,,,,,,,,,,,,,,,,,,,,,,,,,,,,,,,,,,,,,,,,,,,,,,,,,,,,,,,,,,,,,,,,,,,,,,,,,,,,,,,,,,,,,,,,,,,,,,,,,,,,,,,,,,,,,,,,,,,,,,,,,,,,,,,,,,,,,,,,,,,,
,,,,,,60f4357cca3a9867c33ca65b,62c53bb912f839c363f3eed2,2022-07-06_09h39.53.905,Colour_Asymmetry_Pilot,2022.1.3,Win32,59.9880024,62c50e9c1127f2cd403a315f,0,14,14,52,1,threeone,,,,,,,,,,,,,,,,,,,,,,,,,,,,,,,,,,,,,,,,,,,,,,,,,,,,,,,,,,,,,,,,,,,,,,,,,,,,,,,,,,,,,,,,,,,,,,,,,,,,,,,,,,,,,,,,,,,,,,,,,,,,,,,,,,,,,,,,,,,,,,,,,,,,,,,,,,,,,
,,,,,,60f4357cca3a9867c33ca65b,62c53bb912f839c363f3eed2,2022-07-06_09h39.53.905,Colour_Asymmetry_Pilot,2022.1.3,Win32,59.9880024,62c50e9c1127f2cd403a315f,0,15,15,100,1,threeone,,,,,,,,,,,,,,,,,,,,,,,,,,,,,,,,,,,,,,,,,,,,,,,,,,,,,,,,,,,,,,,,,,,,,,,,,,,,,,,,,,,,,,,,,,,,,,,,,,,,,,,,,,,,,,,,,,,,,,,,,,,,,,,,,,,,,,,,,,,,,,,,,,,,,,,,,,,,,
,,,,,,60f4357cca3a9867c33ca65b,62c53bb912f839c363f3eed2,2022-07-06_09h39.53.905,Colour_Asymmetry_Pilot,2022.1.3,Win32,59.9880024,62c50e9c1127f2cd403a315f,0,16,16,119,1,fourthree,,,,,,,,,,,,,,,,,,,,,,,,,,,,,,,,,,,,,,,,,,,,,,,,,,,,,,,,,,,,,,,,,,,,,,,,,,,,,,,,,,,,,,,,,,,,,,,,,,,,,,,,,,,,,,,,,,,,,,,,,,,,,,,,,,,,,,,,,,,,,,,,,,,,,,,,,,,,,
,,,,,,60f4357cca3a9867c33ca65b,62c53bb912f839c363f3eed2,2022-07-06_09h39.53.905,Colour_Asymmetry_Pilot,2022.1.3,Win32,59.9880024,62c50e9c1127f2cd403a315f,0,17,17,75,1,twofour,,,,,,,,,,,,,,,,,,,,,,,,,,,,,,,,,,,,,,,,,,,,,,,,,,,,,,,,,,,,,,,,,,,,,,,,,,,,,,,,,,,,,,,,,,,,,,,,,,,,,,,,,,,,,,,,,,,,,,,,,,,,,,,,,,,,,,,,,,,,,,,,,,,,,,,,,,,,,
,,,,,,60f4357cca3a9867c33ca65b,62c53bb912f839c363f3eed2,2022-07-06_09h39.53.905,Colour_Asymmetry_Pilot,2022.1.3,Win32,59.9880024,62c50e9c1127f2cd403a315f,0,18,18,79,1,fourthree,,,,,,,,,,,,,,,,,,,,,,,,,,,,,,,,,,,,,,,,,,,,,,,,,,,,,,,,,,,,,,,,,,,,,,,,,,,,,,,,,,,,,,,,,,,,,,,,,,,,,,,,,,,,,,,,,,,,,,,,,,,,,,,,,,,,,,,,,,,,,,,,,,,,,,,,,,,,,
,,,,,,60f4357cca3a9867c33ca65b,62c53bb912f839c363f3eed2,2022-07-06_09h39.53.905,Colour_Asymmetry_Pilot,2022.1.3,Win32,59.9880024,62c50e9c1127f2cd403a315f,0,19,19,95,1,fourthree,,,,,,,,,,,,,,,,,,,,,,,,,,,,,,,,,,,,,,,,,,,,,,,,,,,,,,,,,,,,,,,,,,,,,,,,,,,,,,,,,,,,,,,,,,,,,,,,,,,,,,,,,,,,,,,,,,,,,,,,,,,,,,,,,,,,,,,,,,,,,,,,,,,,,,,,,,,,,
,,,,,,60f4357cca3a9867c33ca65b,62c53bb912f839c363f3eed2,2022-07-06_09h39.53.905,Colour_Asymmetry_Pilot,2022.1.3,Win32,59.9880024,62c50e9c1127f2cd403a315f,0,20,20,38,1,fourtwo,,,,,,,,,,,,,,,,,,,,,,,,,,,,,,,,,,,,,,,,,,,,,,,,,,,,,,,,,,,,,,,,,,,,,,,,,,,,,,,,,,,,,,,,,,,,,,,,,,,,,,,,,,,,,,,,,,,,,,,,,,,,,,,,,,,,,,,,,,,,,,,,,,,,,,,,,,,,,
,,,,,,60f4357cca3a9867c33ca65b,62c53bb912f839c363f3eed2,2022-07-06_09h39.53.905,Colour_Asymmetry_Pilot,2022.1.3,Win32,59.9880024,62c50e9c1127f2cd403a315f,0,21,21,91,1,twofour,,,,,,,,,,,,,,,,,,,,,,,,,,,,,,,,,,,,,,,,,,,,,,,,,,,,,,,,,,,,,,,,,,,,,,,,,,,,,,,,,,,,,,,,,,,,,,,,,,,,,,,,,,,,,,,,,,,,,,,,,,,,,,,,,,,,,,,,,,,,,,,,,,,,,,,,,,,,,
,,,,,,60f4357cca3a9867c33ca65b,62c53bb912f839c363f3eed2,2022-07-06_09h39.53.905,Colour_Asymmetry_Pilot,2022.1.3,Win32,59.9880024,62c50e9c1127f2cd403a315f,0,22,22,139,1,twofour,,,,,,,,,,,,,,,,,,,,,,,,,,,,,,,,,,,,,,,,,,,,,,,,,,,,,,,,,,,,,,,,,,,,,,,,,,,,,,,,,,,,,,,,,,,,,,,,,,,,,,,,,,,,,,,,,,,,,,,,,,,,,,,,,,,,,,,,,,,,,,,,,,,,,,,,,,,,,
,,,,,,60f4357cca3a9867c33ca65b,62c53bb912f839c363f3eed2,2022-07-06_09h39.53.905,Colour_Asymmetry_Pilot,2022.1.3,Win32,59.9880024,62c50e9c1127f2cd403a315f,0,23,23,146,1,twoone,,,,,,,,,,,,,,,,,,,,,,,,,,,,,,,,,,,,,,,,,,,,,,,,,,,,,,,,,,,,,,,,,,,,,,,,,,,,,,,,,,,,,,,,,,,,,,,,,,,,,,,,,,,,,,,,,,,,,,,,,,,,,,,,,,,,,,,,,,,,,,,,,,,,,,,,,,,,,
,,,,,,60f4357cca3a9867c33ca65b,62c53bb912f839c363f3eed2,2022-07-06_09h39.53.905,Colour_Asymmetry_Pilot,2022.1.3,Win32,59.9880024,62c50e9c1127f2cd403a315f,0,24,24,140,1,threeone,,,,,,,,,,,,,,,,,,,,,,,,,,,,,,,,,,,,,,,,,,,,,,,,,,,,,,,,,,,,,,,,,,,,,,,,,,,,,,,,,,,,,,,,,,,,,,,,,,,,,,,,,,,,,,,,,,,,,,,,,,,,,,,,,,,,,,,,,,,,,,,,,,,,,,,,,,,,,
,,,,,,60f4357cca3a9867c33ca65b,62c53bb912f839c363f3eed2,2022-07-06_09h39.53.905,Colour_Asymmetry_Pilot,2022.1.3,Win32,59.9880024,62c50e9c1127f2cd403a315f,0,25,25,147,1,twofour,,,,,,,,,,,,,,,,,,,,,,,,,,,,,,,,,,,,,,,,,,,,,,,,,,,,,,,,,,,,,,,,,,,,,,,,,,,,,,,,,,,,,,,,,,,,,,,,,,,,,,,,,,,,,,,,,,,,,,,,,,,,,,,,,,,,,,,,,,,,,,,,,,,,,,,,,,,,,
,,,,,,60f4357cca3a9867c33ca65b,62c53bb912f839c363f3eed2,2022-07-06_09h39.53.905,Colour_Asymmetry_Pilot,2022.1.3,Win32,59.9880024,62c50e9c1127f2cd403a315f,0,26,26,83,1,twofour,,,,,,,,,,,,,,,,,,,,,,,,,,,,,,,,,,,,,,,,,,,,,,,,,,,,,,,,,,,,,,,,,,,,,,,,,,,,,,,,,,,,,,,,,,,,,,,,,,,,,,,,,,,,,,,,,,,,,,,,,,,,,,,,,,,,,,,,,,,,,,,,,,,,,,,,,,,,,
,,,,,,60f4357cca3a9867c33ca65b,62c53bb912f839c363f3eed2,2022-07-06_09h39.53.905,Colour_Asymmetry_Pilot,2022.1.3,Win32,59.9880024,62c50e9c1127f2cd403a315f,0,27,27,154,1,twoone,,,,,,,,,,,,,,,,,,,,,,,,,,,,,,,,,,,,,,,,,,,,,,,,,,,,,,,,,,,,,,,,,,,,,,,,,,,,,,,,,,,,,,,,,,,,,,,,,,,,,,,,,,,,,,,,,,,,,,,,,,,,,,,,,,,,,,,,,,,,,,,,,,,,,,,,,,,,,
,,,,,,60f4357cca3a9867c33ca65b,62c53bb912f839c363f3eed2,2022-07-06_09h39.53.905,Colour_Asymmetry_Pilot,2022.1.3,Win32,59.9880024,62c50e9c1127f2cd403a315f,0,28,28,70,1,fourtwo,,,,,,,,,,,,,,,,,,,,,,,,,,,,,,,,,,,,,,,,,,,,,,,,,,,,,,,,,,,,,,,,,,,,,,,,,,,,,,,,,,,,,,,,,,,,,,,,,,,,,,,,,,,,,,,,,,,,,,,,,,,,,,,,,,,,,,,,,,,,,,,,,,,,,,,,,,,,,
,,,,,,60f4357cca3a9867c33ca65b,62c53bb912f839c363f3eed2,2022-07-06_09h39.53.905,Colour_Asymmetry_Pilot,2022.1.3,Win32,59.9880024,62c50e9c1127f2cd403a315f,0,29,29,118,1,fourtwo,,,,,,,,,,,,,,,,,,,,,,,,,,,,,,,,,,,,,,,,,,,,,,,,,,,,,,,,,,,,,,,,,,,,,,,,,,,,,,,,,,,,,,,,,,,,,,,,,,,,,,,,,,,,,,,,,,,,,,,,,,,,,,,,,,,,,,,,,,,,,,,,,,,,,,,,,,,,,
,,,,,,60f4357cca3a9867c33ca65b,62c53bb912f839c363f3eed2,2022-07-06_09h39.53.905,Colour_Asymmetry_Pilot,2022.1.3,Win32,59.9880024,62c50e9c1127f2cd403a315f,0,30,30,47,1,fourthree,,,,,,,,,,,,,,,,,,,,,,,,,,,,,,,,,,,,,,,,,,,,,,,,,,,,,,,,,,,,,,,,,,,,,,,,,,,,,,,,,,,,,,,,,,,,,,,,,,,,,,,,,,,,,,,,,,,,,,,,,,,,,,,,,,,,,,,,,,,,,,,,,,,,,,,,,,,,,
,,,,,,60f4357cca3a9867c33ca65b,62c53bb912f839c363f3eed2,2022-07-06_09h39.53.905,Colour_Asymmetry_Pilot,2022.1.3,Win32,59.9880024,62c50e9c1127f2cd403a315f,0,31,31,57,1,onethree,,,,,,,,,,,,,,,,,,,,,,,,,,,,,,,,,,,,,,,,,,,,,,,,,,,,,,,,,,,,,,,,,,,,,,,,,,,,,,,,,,,,,,,,,,,,,,,,,,,,,,,,,,,,,,,,,,,,,,,,,,,,,,,,,,,,,,,,,,,,,,,,,,,,,,,,,,,,,
,,,,,,60f4357cca3a9867c33ca65b,62c53bb912f839c363f3eed2,2022-07-06_09h39.53.905,Colour_Asymmetry_Pilot,2022.1.3,Win32,59.9880024,62c50e9c1127f2cd403a315f,0,32,32,156,1,threeone,,,,,,,,,,,,,,,,,,,,,,,,,,,,,,,,,,,,,,,,,,,,,,,,,,,,,,,,,,,,,,,,,,,,,,,,,,,,,,,,,,,,,,,,,,,,,,,,,,,,,,,,,,,,,,,,,,,,,,,,,,,,,,,,,,,,,,,,,,,,,,,,,,,,,,,,,,,,,
,,,,,,60f4357cca3a9867c33ca65b,62c53bb912f839c363f3eed2,2022-07-06_09h39.53.905,Colour_Asymmetry_Pilot,2022.1.3,Win32,59.9880024,62c50e9c1127f2cd403a315f,0,33,33,9,1,onethree,,,,,,,,,,,,,,,,,,,,,,,,,,,,,,,,,,,,,,,,,,,,,,,,,,,,,,,,,,,,,,,,,,,,,,,,,,,,,,,,,,,,,,,,,,,,,,,,,,,,,,,,,,,,,,,,,,,,,,,,,,,,,,,,,,,,,,,,,,,,,,,,,,,,,,,,,,,,,
,,,,,,60f4357cca3a9867c33ca65b,62c53bb912f839c363f3eed2,2022-07-06_09h39.53.905,Colour_Asymmetry_Pilot,2022.1.3,Win32,59.9880024,62c50e9c1127f2cd403a315f,0,34,34,44,1,threeone,,,,,,,,,,,,,,,,,,,,,,,,,,,,,,,,,,,,,,,,,,,,,,,,,,,,,,,,,,,,,,,,,,,,,,,,,,,,,,,,,,,,,,,,,,,,,,,,,,,,,,,,,,,,,,,,,,,,,,,,,,,,,,,,,,,,,,,,,,,,,,,,,,,,,,,,,,,,,
,,,,,,60f4357cca3a9867c33ca65b,62c53bb912f839c363f3eed2,2022-07-06_09h39.53.905,Colour_Asymmetry_Pilot,2022.1.3,Win32,59.9880024,62c50e9c1127f2cd403a315f,0,35,35,37,1,threefour,,,,,,,,,,,,,,,,,,,,,,,,,,,,,,,,,,,,,,,,,,,,,,,,,,,,,,,,,,,,,,,,,,,,,,,,,,,,,,,,,,,,,,,,,,,,,,,,,,,,,,,,,,,,,,,,,,,,,,,,,,,,,,,,,,,,,,,,,,,,,,,,,,,,,,,,,,,,,
,,,,,,60f4357cca3a9867c33ca65b,62c53bb912f839c363f3eed2,2022-07-06_09h39.53.905,Colour_Asymmetry_Pilot,2022.1.3,Win32,59.9880024,62c50e9c1127f2cd403a315f,0,36,36,14,1,fourtwo,,,,,,,,,,,,,,,,,,,,,,,,,,,,,,,,,,,,,,,,,,,,,,,,,,,,,,,,,,,,,,,,,,,,,,,,,,,,,,,,,,,,,,,,,,,,,,,,,,,,,,,,,,,,,,,,,,,,,,,,,,,,,,,,,,,,,,,,,,,,,,,,,,,,,,,,,,,,,
,,,,,,60f4357cca3a9867c33ca65b,62c53bb912f839c363f3eed2,2022-07-06_09h39.53.905,Colour_Asymmetry_Pilot,2022.1.3,Win32,59.9880024,62c50e9c1127f2cd403a315f,0,37,37,71,1,fourthree,,,,,,,,,,,,,,,,,,,,,,,,,,,,,,,,,,,,,,,,,,,,,,,,,,,,,,,,,,,,,,,,,,,,,,,,,,,,,,,,,,,,,,,,,,,,,,,,,,,,,,,,,,,,,,,,,,,,,,,,,,,,,,,,,,,,,,,,,,,,,,,,,,,,,,,,,,,,,
,,,,,,60f4357cca3a9867c33ca65b,62c53bb912f839c363f3eed2,2022-07-06_09h39.53.905,Colour_Asymmetry_Pilot,2022.1.3,Win32,59.9880024,62c50e9c1127f2cd403a315f,0,38,38,86,1,fourtwo,,,,,,,,,,,,,,,,,,,,,,,,,,,,,,,,,,,,,,,,,,,,,,,,,,,,,,,,,,,,,,,,,,,,,,,,,,,,,,,,,,,,,,,,,,,,,,,,,,,,,,,,,,,,,,,,,,,,,,,,,,,,,,,,,,,,,,,,,,,,,,,,,,,,,,,,,,,,,
,,,,,,60f4357cca3a9867c33ca65b,62c53bb912f839c363f3eed2,2022-07-06_09h39.53.905,Colour_Asymmetry_Pilot,2022.1.3,Win32,59.9880024,62c50e9c1127f2cd403a315f,0,39,39,105,1,onethree,,,,,,,,,,,,,,,,,,,,,,,,,,,,,,,,,,,,,,,,,,,,,,,,,,,,,,,,,,,,,,,,,,,,,,,,,,,,,,,,,,,,,,,,,,,,,,,,,,,,,,,,,,,,,,,,,,,,,,,,,,,,,,,,,,,,,,,,,,,,,,,,,,,,,,,,,,,,,
,,,,,,60f4357cca3a9867c33ca65b,62c53bb912f839c363f3eed2,2022-07-06_09h39.53.905,Colour_Asymmetry_Pilot,2022.1.3,Win32,59.9880024,62c50e9c1127f2cd403a315f,0,40,40,134,1,fourtwo,,,,,,,,,,,,,,,,,,,,,,,,,,,,,,,,,,,,,,,,,,,,,,,,,,,,,,,,,,,,,,,,,,,,,,,,,,,,,,,,,,,,,,,,,,,,,,,,,,,,,,,,,,,,,,,,,,,,,,,,,,,,,,,,,,,,,,,,,,,,,,,,,,,,,,,,,,,,,
,,,,,,60f4357cca3a9867c33ca65b,62c53bb912f839c363f3eed2,2022-07-06_09h39.53.905,Colour_Asymmetry_Pilot,2022.1.3,Win32,59.9880024,62c50e9c1127f2cd403a315f,0,41,41,138,1,twoone,,,,,,,,,,,,,,,,,,,,,,,,,,,,,,,,,,,,,,,,,,,,,,,,,,,,,,,,,,,,,,,,,,,,,,,,,,,,,,,,,,,,,,,,,,,,,,,,,,,,,,,,,,,,,,,,,,,,,,,,,,,,,,,,,,,,,,,,,,,,,,,,,,,,,,,,,,,,,
,,,,,,60f4357cca3a9867c33ca65b,62c53bb912f839c363f3eed2,2022-07-06_09h39.53.905,Colour_Asymmetry_Pilot,2022.1.3,Win32,59.9880024,62c50e9c1127f2cd403a315f,0,42,42,102,1,fourtwo,,,,,,,,,,,,,,,,,,,,,,,,,,,,,,,,,,,,,,,,,,,,,,,,,,,,,,,,,,,,,,,,,,,,,,,,,,,,,,,,,,,,,,,,,,,,,,,,,,,,,,,,,,,,,,,,,,,,,,,,,,,,,,,,,,,,,,,,,,,,,,,,,,,,,,,,,,,,,
,,,,,,60f4357cca3a9867c33ca65b,62c53bb912f839c363f3eed2,2022-07-06_09h39.53.905,Colour_Asymmetry_Pilot,2022.1.3,Win32,59.9880024,62c50e9c1127f2cd403a315f,0,43,43,46,1,fourtwo,,,,,,,,,,,,,,,,,,,,,,,,,,,,,,,,,,,,,,,,,,,,,,,,,,,,,,,,,,,,,,,,,,,,,,,,,,,,,,,,,,,,,,,,,,,,,,,,,,,,,,,,,,,,,,,,,,,,,,,,,,,,,,,,,,,,,,,,,,,,,,,,,,,,,,,,,,,,,
,,,,,,60f4357cca3a9867c33ca65b,62c53bb912f839c363f3eed2,2022-07-06_09h39.53.905,Colour_Asymmetry_Pilot,2022.1.3,Win32,59.9880024,62c50e9c1127f2cd403a315f,0,44,44,23,1,fourthree,,,,,,,,,,,,,,,,,,,,,,,,,,,,,,,,,,,,,,,,,,,,,,,,,,,,,,,,,,,,,,,,,,,,,,,,,,,,,,,,,,,,,,,,,,,,,,,,,,,,,,,,,,,,,,,,,,,,,,,,,,,,,,,,,,,,,,,,,,,,,,,,,,,,,,,,,,,,,
,,,,,,60f4357cca3a9867c33ca65b,62c53bb912f839c363f3eed2,2022-07-06_09h39.53.905,Colour_Asymmetry_Pilot,2022.1.3,Win32,59.9880024,62c50e9c1127f2cd403a315f,0,45,45,133,1,threefour,,,,,,,,,,,,,,,,,,,,,,,,,,,,,,,,,,,,,,,,,,,,,,,,,,,,,,,,,,,,,,,,,,,,,,,,,,,,,,,,,,,,,,,,,,,,,,,,,,,,,,,,,,,,,,,,,,,,,,,,,,,,,,,,,,,,,,,,,,,,,,,,,,,,,,,,,,,,,
,,,,,,60f4357cca3a9867c33ca65b,62c53bb912f839c363f3eed2,2022-07-06_09h39.53.905,Colour_Asymmetry_Pilot,2022.1.3,Win32,59.9880024,62c50e9c1127f2cd403a315f,0,46,46,158,1,fourtwo,,,,,,,,,,,,,,,,,,,,,,,,,,,,,,,,,,,,,,,,,,,,,,,,,,,,,,,,,,,,,,,,,,,,,,,,,,,,,,,,,,,,,,,,,,,,,,,,,,,,,,,,,,,,,,,,,,,,,,,,,,,,,,,,,,,,,,,,,,,,,,,,,,,,,,,,,,,,,
,,,,,,60f4357cca3a9867c33ca65b,62c53bb912f839c363f3eed2,2022-07-06_09h39.53.905,Colour_Asymmetry_Pilot,2022.1.3,Win32,59.9880024,62c50e9c1127f2cd403a315f,0,47,47,144,1,onetwo,,,,,,,,,,,,,,,,,,,,,,,,,,,,,,,,,,,,,,,,,,,,,,,,,,,,,,,,,,,,,,,,,,,,,,,,,,,,,,,,,,,,,,,,,,,,,,,,,,,,,,,,,,,,,,,,,,,,,,,,,,,,,,,,,,,,,,,,,,,,,,,,,,,,,,,,,,,,,
,,,,,,60f4357cca3a9867c33ca65b,62c53bb912f839c363f3eed2,2022-07-06_09h39.53.905,Colour_Asymmetry_Pilot,2022.1.3,Win32,59.9880024,62c50e9c1127f2cd403a315f,0,48,48,63,1,fourthree,,,,,,,,,,,,,,,,,,,,,,,,,,,,,,,,,,,,,,,,,,,,,,,,,,,,,,,,,,,,,,,,,,,,,,,,,,,,,,,,,,,,,,,,,,,,,,,,,,,,,,,,,,,,,,,,,,,,,,,,,,,,,,,,,,,,,,,,,,,,,,,,,,,,,,,,,,,,,
,,,,,,60f4357cca3a9867c33ca65b,62c53bb912f839c363f3eed2,2022-07-06_09h39.53.905,Colour_Asymmetry_Pilot,2022.1.3,Win32,59.9880024,62c50e9c1127f2cd403a315f,0,49,49,114,1,twoone,,,,,,,,,,,,,,,,,,,,,,,,,,,,,,,,,,,,,,,,,,,,,,,,,,,,,,,,,,,,,,,,,,,,,,,,,,,,,,,,,,,,,,,,,,,,,,,,,,,,,,,,,,,,,,,,,,,,,,,,,,,,,,,,,,,,,,,,,,,,,,,,,,,,,,,,,,,,,
,,,,,,60f4357cca3a9867c33ca65b,62c53bb912f839c363f3eed2,2022-07-06_09h39.53.905,Colour_Asymmetry_Pilot,2022.1.3,Win32,59.9880024,62c50e9c1127f2cd403a315f,0,50,50,35,1,twofour,,,,,,,,,,,,,,,,,,,,,,,,,,,,,,,,,,,,,,,,,,,,,,,,,,,,,,,,,,,,,,,,,,,,,,,,,,,,,,,,,,,,,,,,,,,,,,,,,,,,,,,,,,,,,,,,,,,,,,,,,,,,,,,,,,,,,,,,,,,,,,,,,,,,,,,,,,,,,
,,,,,,60f4357cca3a9867c33ca65b,62c53bb912f839c363f3eed2,2022-07-06_09h39.53.905,Colour_Asymmetry_Pilot,2022.1.3,Win32,59.9880024,62c50e9c1127f2cd403a315f,0,51,51,2,1,twoone,,,,,,,,,,,,,,,,,,,,,,,,,,,,,,,,,,,,,,,,,,,,,,,,,,,,,,,,,,,,,,,,,,,,,,,,,,,,,,,,,,,,,,,,,,,,,,,,,,,,,,,,,,,,,,,,,,,,,,,,,,,,,,,,,,,,,,,,,,,,,,,,,,,,,,,,,,,,,
,,,,,,60f4357cca3a9867c33ca65b,62c53bb912f839c363f3eed2,2022-07-06_09h39.53.905,Colour_Asymmetry_Pilot,2022.1.3,Win32,59.9880024,62c50e9c1127f2cd403a315f,0,52,52,113,1,onethree,,,,,,,,,,,,,,,,,,,,,,,,,,,,,,,,,,,,,,,,,,,,,,,,,,,,,,,,,,,,,,,,,,,,,,,,,,,,,,,,,,,,,,,,,,,,,,,,,,,,,,,,,,,,,,,,,,,,,,,,,,,,,,,,,,,,,,,,,,,,,,,,,,,,,,,,,,,,,
,,,,,,60f4357cca3a9867c33ca65b,62c53bb912f839c363f3eed2,2022-07-06_09h39.53.905,Colour_Asymmetry_Pilot,2022.1.3,Win32,59.9880024,62c50e9c1127f2cd403a315f,0,53,53,94,1,fourtwo,,,,,,,,,,,,,,,,,,,,,,,,,,,,,,,,,,,,,,,,,,,,,,,,,,,,,,,,,,,,,,,,,,,,,,,,,,,,,,,,,,,,,,,,,,,,,,,,,,,,,,,,,,,,,,,,,,,,,,,,,,,,,,,,,,,,,,,,,,,,,,,,,,,,,,,,,,,,,
,,,,,,60f4357cca3a9867c33ca65b,62c53bb912f839c363f3eed2,2022-07-06_09h39.53.905,Colour_Asymmetry_Pilot,2022.1.3,Win32,59.9880024,62c50e9c1127f2cd403a315f,0,54,54,59,1,twofour,,,,,,,,,,,,,,,,,,,,,,,,,,,,,,,,,,,,,,,,,,,,,,,,,,,,,,,,,,,,,,,,,,,,,,,,,,,,,,,,,,,,,,,,,,,,,,,,,,,,,,,,,,,,,,,,,,,,,,,,,,,,,,,,,,,,,,,,,,,,,,,,,,,,,,,,,,,,,
,,,,,,60f4357cca3a9867c33ca65b,62c53bb912f839c363f3eed2,2022-07-06_09h39.53.905,Colour_Asymmetry_Pilot,2022.1.3,Win32,59.9880024,62c50e9c1127f2cd403a315f,0,55,55,21,1,threefour,,,,,,,,,,,,,,,,,,,,,,,,,,,,,,,,,,,,,,,,,,,,,,,,,,,,,,,,,,,,,,,,,,,,,,,,,,,,,,,,,,,,,,,,,,,,,,,,,,,,,,,,,,,,,,,,,,,,,,,,,,,,,,,,,,,,,,,,,,,,,,,,,,,,,,,,,,,,,
,,,,,,60f4357cca3a9867c33ca65b,62c53bb912f839c363f3eed2,2022-07-06_09h39.53.905,Colour_Asymmetry_Pilot,2022.1.3,Win32,59.9880024,62c50e9c1127f2cd403a315f,0,56,56,120,1,onetwo,,,,,,,,,,,,,,,,,,,,,,,,,,,,,,,,,,,,,,,,,,,,,,,,,,,,,,,,,,,,,,,,,,,,,,,,,,,,,,,,,,,,,,,,,,,,,,,,,,,,,,,,,,,,,,,,,,,,,,,,,,,,,,,,,,,,,,,,,,,,,,,,,,,,,,,,,,,,,
,,,,,,60f4357cca3a9867c33ca65b,62c53bb912f839c363f3eed2,2022-07-06_09h39.53.905,Colour_Asymmetry_Pilot,2022.1.3,Win32,59.9880024,62c50e9c1127f2cd403a315f,0,57,57,45,1,threefour,,,,,,,,,,,,,,,,,,,,,,,,,,,,,,,,,,,,,,,,,,,,,,,,,,,,,,,,,,,,,,,,,,,,,,,,,,,,,,,,,,,,,,,,,,,,,,,,,,,,,,,,,,,,,,,,,,,,,,,,,,,,,,,,,,,,,,,,,,,,,,,,,,,,,,,,,,,,,
,,,,,,60f4357cca3a9867c33ca65b,62c53bb912f839c363f3eed2,2022-07-06_09h39.53.905,Colour_Asymmetry_Pilot,2022.1.3,Win32,59.9880024,62c50e9c1127f2cd403a315f,0,58,58,87,1,fourthree,,,,,,,,,,,,,,,,,,,,,,,,,,,,,,,,,,,,,,,,,,,,,,,,,,,,,,,,,,,,,,,,,,,,,,,,,,,,,,,,,,,,,,,,,,,,,,,,,,,,,,,,,,,,,,,,,,,,,,,,,,,,,,,,,,,,,,,,,,,,,,,,,,,,,,,,,,,,,
,,,,,,60f4357cca3a9867c33ca65b,62c53bb912f839c363f3eed2,2022-07-06_09h39.53.905,Colour_Asymmetry_Pilot,2022.1.3,Win32,59.9880024,62c50e9c1127f2cd403a315f,0,59,59,115,1,twofour,,,,,,,,,,,,,,,,,,,,,,,,,,,,,,,,,,,,,,,,,,,,,,,,,,,,,,,,,,,,,,,,,,,,,,,,,,,,,,,,,,,,,,,,,,,,,,,,,,,,,,,,,,,,,,,,,,,,,,,,,,,,,,,,,,,,,,,,,,,,,,,,,,,,,,,,,,,,,
,,,,,,60f4357cca3a9867c33ca65b,62c53bb912f839c363f3eed2,2022-07-06_09h39.53.905,Colour_Asymmetry_Pilot,2022.1.3,Win32,59.9880024,62c50e9c1127f2cd403a315f,0,60,60,64,1,onetwo,,,,,,,,,,,,,,,,,,,,,,,,,,,,,,,,,,,,,,,,,,,,,,,,,,,,,,,,,,,,,,,,,,,,,,,,,,,,,,,,,,,,,,,,,,,,,,,,,,,,,,,,,,,,,,,,,,,,,,,,,,,,,,,,,,,,,,,,,,,,,,,,,,,,,,,,,,,,,
,,,,,,60f4357cca3a9867c33ca65b,62c53bb912f839c363f3eed2,2022-07-06_09h39.53.905,Colour_Asymmetry_Pilot,2022.1.3,Win32,59.9880024,62c50e9c1127f2cd403a315f,0,61,61,90,1,twoone,,,,,,,,,,,,,,,,,,,,,,,,,,,,,,,,,,,,,,,,,,,,,,,,,,,,,,,,,,,,,,,,,,,,,,,,,,,,,,,,,,,,,,,,,,,,,,,,,,,,,,,,,,,,,,,,,,,,,,,,,,,,,,,,,,,,,,,,,,,,,,,,,,,,,,,,,,,,,
,,,,,,60f4357cca3a9867c33ca65b,62c53bb912f839c363f3eed2,2022-07-06_09h39.53.905,Colour_Asymmetry_Pilot,2022.1.3,Win32,59.9880024,62c50e9c1127f2cd403a315f,0,62,62,0,1,onetwo,,,,,,,,,,,,,,,,,,,,,,,,,,,,,,,,,,,,,,,,,,,,,,,,,,,,,,,,,,,,,,,,,,,,,,,,,,,,,,,,,,,,,,,,,,,,,,,,,,,,,,,,,,,,,,,,,,,,,,,,,,,,,,,,,,,,,,,,,,,,,,,,,,,,,,,,,,,,,
,,,,,,60f4357cca3a9867c33ca65b,62c53bb912f839c363f3eed2,2022-07-06_09h39.53.905,Colour_Asymmetry_Pilot,2022.1.3,Win32,59.9880024,62c50e9c1127f2cd403a315f,0,63,63,8,1,onetwo,,,,,,,,,,,,,,,,,,,,,,,,,,,,,,,,,,,,,,,,,,,,,,,,,,,,,,,,,,,,,,,,,,,,,,,,,,,,,,,,,,,,,,,,,,,,,,,,,,,,,,,,,,,,,,,,,,,,,,,,,,,,,,,,,,,,,,,,,,,,,,,,,,,,,,,,,,,,,
,,,,,,60f4357cca3a9867c33ca65b,62c53bb912f839c363f3eed2,2022-07-06_09h39.53.905,Colour_Asymmetry_Pilot,2022.1.3,Win32,59.9880024,62c50e9c1127f2cd403a315f,0,64,64,12,1,threeone,,,,,,,,,,,,,,,,,,,,,,,,,,,,,,,,,,,,,,,,,,,,,,,,,,,,,,,,,,,,,,,,,,,,,,,,,,,,,,,,,,,,,,,,,,,,,,,,,,,,,,,,,,,,,,,,,,,,,,,,,,,,,,,,,,,,,,,,,,,,,,,,,,,,,,,,,,,,,
,,,,,,60f4357cca3a9867c33ca65b,62c53bb912f839c363f3eed2,2022-07-06_09h39.53.905,Colour_Asymmetry_Pilot,2022.1.3,Win32,59.9880024,62c50e9c1127f2cd403a315f,0,65,65,22,1,fourtwo,,,,,,,,,,,,,,,,,,,,,,,,,,,,,,,,,,,,,,,,,,,,,,,,,,,,,,,,,,,,,,,,,,,,,,,,,,,,,,,,,,,,,,,,,,,,,,,,,,,,,,,,,,,,,,,,,,,,,,,,,,,,,,,,,,,,,,,,,,,,,,,,,,,,,,,,,,,,,
,,,,,,60f4357cca3a9867c33ca65b,62c53bb912f839c363f3eed2,2022-07-06_09h39.53.905,Colour_Asymmetry_Pilot,2022.1.3,Win32,59.9880024,62c50e9c1127f2cd403a315f,0,66,66,4,1,threeone,,,,,,,,,,,,,,,,,,,,,,,,,,,,,,,,,,,,,,,,,,,,,,,,,,,,,,,,,,,,,,,,,,,,,,,,,,,,,,,,,,,,,,,,,,,,,,,,,,,,,,,,,,,,,,,,,,,,,,,,,,,,,,,,,,,,,,,,,,,,,,,,,,,,,,,,,,,,,
,,,,,,60f4357cca3a9867c33ca65b,62c53bb912f839c363f3eed2,2022-07-06_09h39.53.905,Colour_Asymmetry_Pilot,2022.1.3,Win32,59.9880024,62c50e9c1127f2cd403a315f,0,67,67,130,1,twoone,,,,,,,,,,,,,,,,,,,,,,,,,,,,,,,,,,,,,,,,,,,,,,,,,,,,,,,,,,,,,,,,,,,,,,,,,,,,,,,,,,,,,,,,,,,,,,,,,,,,,,,,,,,,,,,,,,,,,,,,,,,,,,,,,,,,,,,,,,,,,,,,,,,,,,,,,,,,,
,,,,,,60f4357cca3a9867c33ca65b,62c53bb912f839c363f3eed2,2022-07-06_09h39.53.905,Colour_Asymmetry_Pilot,2022.1.3,Win32,59.9880024,62c50e9c1127f2cd403a315f,0,68,68,50,1,twoone,,,,,,,,,,,,,,,,,,,,,,,,,,,,,,,,,,,,,,,,,,,,,,,,,,,,,,,,,,,,,,,,,,,,,,,,,,,,,,,,,,,,,,,,,,,,,,,,,,,,,,,,,,,,,,,,,,,,,,,,,,,,,,,,,,,,,,,,,,,,,,,,,,,,,,,,,,,,,
,,,,,,60f4357cca3a9867c33ca65b,62c53bb912f839c363f3eed2,2022-07-06_09h39.53.905,Colour_Asymmetry_Pilot,2022.1.3,Win32,59.9880024,62c50e9c1127f2cd403a315f,0,69,69,111,1,fourthree,,,,,,,,,,,,,,,,,,,,,,,,,,,,,,,,,,,,,,,,,,,,,,,,,,,,,,,,,,,,,,,,,,,,,,,,,,,,,,,,,,,,,,,,,,,,,,,,,,,,,,,,,,,,,,,,,,,,,,,,,,,,,,,,,,,,,,,,,,,,,,,,,,,,,,,,,,,,,
,,,,,,60f4357cca3a9867c33ca65b,62c53bb912f839c363f3eed2,2022-07-06_09h39.53.905,Colour_Asymmetry_Pilot,2022.1.3,Win32,59.9880024,62c50e9c1127f2cd403a315f,0,70,70,122,1,twoone,,,,,,,,,,,,,,,,,,,,,,,,,,,,,,,,,,,,,,,,,,,,,,,,,,,,,,,,,,,,,,,,,,,,,,,,,,,,,,,,,,,,,,,,,,,,,,,,,,,,,,,,,,,,,,,,,,,,,,,,,,,,,,,,,,,,,,,,,,,,,,,,,,,,,,,,,,,,,
,,,,,,60f4357cca3a9867c33ca65b,62c53bb912f839c363f3eed2,2022-07-06_09h39.53.905,Colour_Asymmetry_Pilot,2022.1.3,Win32,59.9880024,62c50e9c1127f2cd403a315f,0,71,71,66,1,twoone,,,,,,,,,,,,,,,,,,,,,,,,,,,,,,,,,,,,,,,,,,,,,,,,,,,,,,,,,,,,,,,,,,,,,,,,,,,,,,,,,,,,,,,,,,,,,,,,,,,,,,,,,,,,,,,,,,,,,,,,,,,,,,,,,,,,,,,,,,,,,,,,,,,,,,,,,,,,,
,,,,,,60f4357cca3a9867c33ca65b,62c53bb912f839c363f3eed2,2022-07-06_09h39.53.905,Colour_Asymmetry_Pilot,2022.1.3,Win32,59.9880024,62c50e9c1127f2cd403a315f,0,72,72,89,1,onethree,,,,,,,,,,,,,,,,,,,,,,,,,,,,,,,,,,,,,,,,,,,,,,,,,,,,,,,,,,,,,,,,,,,,,,,,,,,,,,,,,,,,,,,,,,,,,,,,,,,,,,,,,,,,,,,,,,,,,,,,,,,,,,,,,,,,,,,,,,,,,,,,,,,,,,,,,,,,,
,,,,,,60f4357cca3a9867c33ca65b,62c53bb912f839c363f3eed2,2022-07-06_09h39.53.905,Colour_Asymmetry_Pilot,2022.1.3,Win32,59.9880024,62c50e9c1127f2cd403a315f,0,73,73,6,1,fourtwo,,,,,,,,,,,,,,,,,,,,,,,,,,,,,,,,,,,,,,,,,,,,,,,,,,,,,,,,,,,,,,,,,,,,,,,,,,,,,,,,,,,,,,,,,,,,,,,,,,,,,,,,,,,,,,,,,,,,,,,,,,,,,,,,,,,,,,,,,,,,,,,,,,,,,,,,,,,,,
,,,,,,60f4357cca3a9867c33ca65b,62c53bb912f839c363f3eed2,2022-07-06_09h39.53.905,Colour_Asymmetry_Pilot,2022.1.3,Win32,59.9880024,62c50e9c1127f2cd403a315f,0,74,74,80,1,onetwo,,,,,,,,,,,,,,,,,,,,,,,,,,,,,,,,,,,,,,,,,,,,,,,,,,,,,,,,,,,,,,,,,,,,,,,,,,,,,,,,,,,,,,,,,,,,,,,,,,,,,,,,,,,,,,,,,,,,,,,,,,,,,,,,,,,,,,,,,,,,,,,,,,,,,,,,,,,,,
,,,,,,60f4357cca3a9867c33ca65b,62c53bb912f839c363f3eed2,2022-07-06_09h39.53.905,Colour_Asymmetry_Pilot,2022.1.3,Win32,59.9880024,62c50e9c1127f2cd403a315f,0,75,75,155,1,twofour,,,,,,,,,,,,,,,,,,,,,,,,,,,,,,,,,,,,,,,,,,,,,,,,,,,,,,,,,,,,,,,,,,,,,,,,,,,,,,,,,,,,,,,,,,,,,,,,,,,,,,,,,,,,,,,,,,,,,,,,,,,,,,,,,,,,,,,,,,,,,,,,,,,,,,,,,,,,,
,,,,,,60f4357cca3a9867c33ca65b,62c53bb912f839c363f3eed2,2022-07-06_09h39.53.905,Colour_Asymmetry_Pilot,2022.1.3,Win32,59.9880024,62c50e9c1127f2cd403a315f,0,76,76,24,1,onetwo,,,,,,,,,,,,,,,,,,,,,,,,,,,,,,,,,,,,,,,,,,,,,,,,,,,,,,,,,,,,,,,,,,,,,,,,,,,,,,,,,,,,,,,,,,,,,,,,,,,,,,,,,,,,,,,,,,,,,,,,,,,,,,,,,,,,,,,,,,,,,,,,,,,,,,,,,,,,,
,,,,,,60f4357cca3a9867c33ca65b,62c53bb912f839c363f3eed2,2022-07-06_09h39.53.905,Colour_Asymmetry_Pilot,2022.1.3,Win32,59.9880024,62c50e9c1127f2cd403a315f,0,77,77,108,1,threeone,,,,,,,,,,,,,,,,,,,,,,,,,,,,,,,,,,,,,,,,,,,,,,,,,,,,,,,,,,,,,,,,,,,,,,,,,,,,,,,,,,,,,,,,,,,,,,,,,,,,,,,,,,,,,,,,,,,,,,,,,,,,,,,,,,,,,,,,,,,,,,,,,,,,,,,,,,,,,
,,,,,,60f4357cca3a9867c33ca65b,62c53bb912f839c363f3eed2,2022-07-06_09h39.53.905,Colour_Asymmetry_Pilot,2022.1.3,Win32,59.9880024,62c50e9c1127f2cd403a315f,0,78,78,104,1,onetwo,,,,,,,,,,,,,,,,,,,,,,,,,,,,,,,,,,,,,,,,,,,,,,,,,,,,,,,,,,,,,,,,,,,,,,,,,,,,,,,,,,,,,,,,,,,,,,,,,,,,,,,,,,,,,,,,,,,,,,,,,,,,,,,,,,,,,,,,,,,,,,,,,,,,,,,,,,,,,
,,,,,,60f4357cca3a9867c33ca65b,62c53bb912f839c363f3eed2,2022-07-06_09h39.53.905,Colour_Asymmetry_Pilot,2022.1.3,Win32,59.9880024,62c50e9c1127f2cd403a315f,0,79,79,26,1,twoone,,,,,,,,,,,,,,,,,,,,,,,,,,,,,,,,,,,,,,,,,,,,,,,,,,,,,,,,,,,,,,,,,,,,,,,,,,,,,,,,,,,,,,,,,,,,,,,,,,,,,,,,,,,,,,,,,,,,,,,,,,,,,,,,,,,,,,,,,,,,,,,,,,,,,,,,,,,,,
,,,,,,60f4357cca3a9867c33ca65b,62c53bb912f839c363f3eed2,2022-07-06_09h39.53.905,Colour_Asymmetry_Pilot,2022.1.3,Win32,59.9880024,62c50e9c1127f2cd403a315f,0,80,80,54,1,fourtwo,,,,,,,,,,,,,,,,,,,,,,,,,,,,,,,,,,,,,,,,,,,,,,,,,,,,,,,,,,,,,,,,,,,,,,,,,,,,,,,,,,,,,,,,,,,,,,,,,,,,,,,,,,,,,,,,,,,,,,,,,,,,,,,,,,,,,,,,,,,,,,,,,,,,,,,,,,,,,
,,,,,,60f4357cca3a9867c33ca65b,62c53bb912f839c363f3eed2,2022-07-06_09h39.53.905,Colour_Asymmetry_Pilot,2022.1.3,Win32,59.9880024,62c50e9c1127f2cd403a315f,0,81,81,103,1,fourthree,,,,,,,,,,,,,,,,,,,,,,,,,,,,,,,,,,,,,,,,,,,,,,,,,,,,,,,,,,,,,,,,,,,,,,,,,,,,,,,,,,,,,,,,,,,,,,,,,,,,,,,,,,,,,,,,,,,,,,,,,,,,,,,,,,,,,,,,,,,,,,,,,,,,,,,,,,,,,
,,,,,,60f4357cca3a9867c33ca65b,62c53bb912f839c363f3eed2,2022-07-06_09h39.53.905,Colour_Asymmetry_Pilot,2022.1.3,Win32,59.9880024,62c50e9c1127f2cd403a315f,0,82,82,125,1,threefour,,,,,,,,,,,,,,,,,,,,,,,,,,,,,,,,,,,,,,,,,,,,,,,,,,,,,,,,,,,,,,,,,,,,,,,,,,,,,,,,,,,,,,,,,,,,,,,,,,,,,,,,,,,,,,,,,,,,,,,,,,,,,,,,,,,,,,,,,,,,,,,,,,,,,,,,,,,,,
,,,,,,60f4357cca3a9867c33ca65b,62c53bb912f839c363f3eed2,2022-07-06_09h39.53.905,Colour_Asymmetry_Pilot,2022.1.3,Win32,59.9880024,62c50e9c1127f2cd403a315f,0,83,83,27,1,twofour,,,,,,,,,,,,,,,,,,,,,,,,,,,,,,,,,,,,,,,,,,,,,,,,,,,,,,,,,,,,,,,,,,,,,,,,,,,,,,,,,,,,,,,,,,,,,,,,,,,,,,,,,,,,,,,,,,,,,,,,,,,,,,,,,,,,,,,,,,,,,,,,,,,,,,,,,,,,,
,,,,,,60f4357cca3a9867c33ca65b,62c53bb912f839c363f3eed2,2022-07-06_09h39.53.905,Colour_Asymmetry_Pilot,2022.1.3,Win32,59.9880024,62c50e9c1127f2cd403a315f,0,84,84,65,1,onethree,,,,,,,,,,,,,,,,,,,,,,,,,,,,,,,,,,,,,,,,,,,,,,,,,,,,,,,,,,,,,,,,,,,,,,,,,,,,,,,,,,,,,,,,,,,,,,,,,,,,,,,,,,,,,,,,,,,,,,,,,,,,,,,,,,,,,,,,,,,,,,,,,,,,,,,,,,,,,
,,,,,,60f4357cca3a9867c33ca65b,62c53bb912f839c363f3eed2,2022-07-06_09h39.53.905,Colour_Asymmetry_Pilot,2022.1.3,Win32,59.9880024,62c50e9c1127f2cd403a315f,0,85,85,67,1,twofour,,,,,,,,,,,,,,,,,,,,,,,,,,,,,,,,,,,,,,,,,,,,,,,,,,,,,,,,,,,,,,,,,,,,,,,,,,,,,,,,,,,,,,,,,,,,,,,,,,,,,,,,,,,,,,,,,,,,,,,,,,,,,,,,,,,,,,,,,,,,,,,,,,,,,,,,,,,,,
,,,,,,60f4357cca3a9867c33ca65b,62c53bb912f839c363f3eed2,2022-07-06_09h39.53.905,Colour_Asymmetry_Pilot,2022.1.3,Win32,59.9880024,62c50e9c1127f2cd403a315f,0,86,86,142,1,fourtwo,,,,,,,,,,,,,,,,,,,,,,,,,,,,,,,,,,,,,,,,,,,,,,,,,,,,,,,,,,,,,,,,,,,,,,,,,,,,,,,,,,,,,,,,,,,,,,,,,,,,,,,,,,,,,,,,,,,,,,,,,,,,,,,,,,,,,,,,,,,,,,,,,,,,,,,,,,,,,
,,,,,,60f4357cca3a9867c33ca65b,62c53bb912f839c363f3eed2,2022-07-06_09h39.53.905,Colour_Asymmetry_Pilot,2022.1.3,Win32,59.9880024,62c50e9c1127f2cd403a315f,0,87,87,1,1,onethree,,,,,,,,,,,,,,,,,,,,,,,,,,,,,,,,,,,,,,,,,,,,,,,,,,,,,,,,,,,,,,,,,,,,,,,,,,,,,,,,,,,,,,,,,,,,,,,,,,,,,,,,,,,,,,,,,,,,,,,,,,,,,,,,,,,,,,,,,,,,,,,,,,,,,,,,,,,,,
,,,,,,60f4357cca3a9867c33ca65b,62c53bb912f839c363f3eed2,2022-07-06_09h39.53.905,Colour_Asymmetry_Pilot,2022.1.3,Win32,59.9880024,62c50e9c1127f2cd403a315f,0,88,88,69,1,threefour,,,,,,,,,,,,,,,,,,,,,,,,,,,,,,,,,,,,,,,,,,,,,,,,,,,,,,,,,,,,,,,,,,,,,,,,,,,,,,,,,,,,,,,,,,,,,,,,,,,,,,,,,,,,,,,,,,,,,,,,,,,,,,,,,,,,,,,,,,,,,,,,,,,,,,,,,,,,,
,,,,,,60f4357cca3a9867c33ca65b,62c53bb912f839c363f3eed2,2022-07-06_09h39.53.905,Colour_Asymmetry_Pilot,2022.1.3,Win32,59.9880024,62c50e9c1127f2cd403a315f,0,89,89,126,1,fourtwo,,,,,,,,,,,,,,,,,,,,,,,,,,,,,,,,,,,,,,,,,,,,,,,,,,,,,,,,,,,,,,,,,,,,,,,,,,,,,,,,,,,,,,,,,,,,,,,,,,,,,,,,,,,,,,,,,,,,,,,,,,,,,,,,,,,,,,,,,,,,,,,,,,,,,,,,,,,,,
,,,,,,60f4357cca3a9867c33ca65b,62c53bb912f839c363f3eed2,2022-07-06_09h39.53.905,Colour_Asymmetry_Pilot,2022.1.3,Win32,59.9880024,62c50e9c1127f2cd403a315f,0,90,90,48,1,onetwo,,,,,,,,,,,,,,,,,,,,,,,,,,,,,,,,,,,,,,,,,,,,,,,,,,,,,,,,,,,,,,,,,,,,,,,,,,,,,,,,,,,,,,,,,,,,,,,,,,,,,,,,,,,,,,,,,,,,,,,,,,,,,,,,,,,,,,,,,,,,,,,,,,,,,,,,,,,,,
,,,,,,60f4357cca3a9867c33ca65b,62c53bb912f839c363f3eed2,2022-07-06_09h39.53.905,Colour_Asymmetry_Pilot,2022.1.3,Win32,59.9880024,62c50e9c1127f2cd403a315f,0,91,91,34,1,twoone,,,,,,,,,,,,,,,,,,,,,,,,,,,,,,,,,,,,,,,,,,,,,,,,,,,,,,,,,,,,,,,,,,,,,,,,,,,,,,,,,,,,,,,,,,,,,,,,,,,,,,,,,,,,,,,,,,,,,,,,,,,,,,,,,,,,,,,,,,,,,,,,,,,,,,,,,,,,,
,,,,,,60f4357cca3a9867c33ca65b,62c53bb912f839c363f3eed2,2022-07-06_09h39.53.905,Colour_Asymmetry_Pilot,2022.1.3,Win32,59.9880024,62c50e9c1127f2cd403a315f,0,92,92,101,1,threefour,,,,,,,,,,,,,,,,,,,,,,,,,,,,,,,,,,,,,,,,,,,,,,,,,,,,,,,,,,,,,,,,,,,,,,,,,,,,,,,,,,,,,,,,,,,,,,,,,,,,,,,,,,,,,,,,,,,,,,,,,,,,,,,,,,,,,,,,,,,,,,,,,,,,,,,,,,,,,
,,,,,,60f4357cca3a9867c33ca65b,62c53bb912f839c363f3eed2,2022-07-06_09h39.53.905,Colour_Asymmetry_Pilot,2022.1.3,Win32,59.9880024,62c50e9c1127f2cd403a315f,0,93,93,123,1,twofour,,,,,,,,,,,,,,,,,,,,,,,,,,,,,,,,,,,,,,,,,,,,,,,,,,,,,,,,,,,,,,,,,,,,,,,,,,,,,,,,,,,,,,,,,,,,,,,,,,,,,,,,,,,,,,,,,,,,,,,,,,,,,,,,,,,,,,,,,,,,,,,,,,,,,,,,,,,,,
,,,,,,60f4357cca3a9867c33ca65b,62c53bb912f839c363f3eed2,2022-07-06_09h39.53.905,Colour_Asymmetry_Pilot,2022.1.3,Win32,59.9880024,62c50e9c1127f2cd403a315f,0,94,94,145,1,onethree,,,,,,,,,,,,,,,,,,,,,,,,,,,,,,,,,,,,,,,,,,,,,,,,,,,,,,,,,,,,,,,,,,,,,,,,,,,,,,,,,,,,,,,,,,,,,,,,,,,,,,,,,,,,,,,,,,,,,,,,,,,,,,,,,,,,,,,,,,,,,,,,,,,,,,,,,,,,,
,,,,,,60f4357cca3a9867c33ca65b,62c53bb912f839c363f3eed2,2022-07-06_09h39.53.905,Colour_Asymmetry_Pilot,2022.1.3,Win32,59.9880024,62c50e9c1127f2cd403a315f,0,95,95,40,1,onetwo,,,,,,,,,,,,,,,,,,,,,,,,,,,,,,,,,,,,,,,,,,,,,,,,,,,,,,,,,,,,,,,,,,,,,,,,,,,,,,,,,,,,,,,,,,,,,,,,,,,,,,,,,,,,,,,,,,,,,,,,,,,,,,,,,,,,,,,,,,,,,,,,,,,,,,,,,,,,,
,,,,,,60f4357cca3a9867c33ca65b,62c53bb912f839c363f3eed2,2022-07-06_09h39.53.905,Colour_Asymmetry_Pilot,2022.1.3,Win32,59.9880024,62c50e9c1127f2cd403a315f,0,96,96,33,1,onethree,,,,,,,,,,,,,,,,,,,,,,,,,,,,,,,,,,,,,,,,,,,,,,,,,,,,,,,,,,,,,,,,,,,,,,,,,,,,,,,,,,,,,,,,,,,,,,,,,,,,,,,,,,,,,,,,,,,,,,,,,,,,,,,,,,,,,,,,,,,,,,,,,,,,,,,,,,,,,
,,,,,,60f4357cca3a9867c33ca65b,62c53bb912f839c363f3eed2,2022-07-06_09h39.53.905,Colour_Asymmetry_Pilot,2022.1.3,Win32,59.9880024,62c50e9c1127f2cd403a315f,0,97,97,124,1,threeone,,,,,,,,,,,,,,,,,,,,,,,,,,,,,,,,,,,,,,,,,,,,,,,,,,,,,,,,,,,,,,,,,,,,,,,,,,,,,,,,,,,,,,,,,,,,,,,,,,,,,,,,,,,,,,,,,,,,,,,,,,,,,,,,,,,,,,,,,,,,,,,,,,,,,,,,,,,,,
,,,,,,60f4357cca3a9867c33ca65b,62c53bb912f839c363f3eed2,2022-07-06_09h39.53.905,Colour_Asymmetry_Pilot,2022.1.3,Win32,59.9880024,62c50e9c1127f2cd403a315f,0,98,98,159,1,fourthree,,,,,,,,,,,,,,,,,,,,,,,,,,,,,,,,,,,,,,,,,,,,,,,,,,,,,,,,,,,,,,,,,,,,,,,,,,,,,,,,,,,,,,,,,,,,,,,,,,,,,,,,,,,,,,,,,,,,,,,,,,,,,,,,,,,,,,,,,,,,,,,,,,,,,,,,,,,,,
,,,,,,60f4357cca3a9867c33ca65b,62c53bb912f839c363f3eed2,2022-07-06_09h39.53.905,Colour_Asymmetry_Pilot,2022.1.3,Win32,59.9880024,62c50e9c1127f2cd403a315f,0,99,99,81,1,onethree,,,,,,,,,,,,,,,,,,,,,,,,,,,,,,,,,,,,,,,,,,,,,,,,,,,,,,,,,,,,,,,,,,,,,,,,,,,,,,,,,,,,,,,,,,,,,,,,,,,,,,,,,,,,,,,,,,,,,,,,,,,,,,,,,,,,,,,,,,,,,,,,,,,,,,,,,,,,,
,,,,,,60f4357cca3a9867c33ca65b,62c53bb912f839c363f3eed2,2022-07-06_09h39.53.905,Colour_Asymmetry_Pilot,2022.1.3,Win32,59.9880024,62c50e9c1127f2cd403a315f,0,100,100,41,1,onethree,,,,,,,,,,,,,,,,,,,,,,,,,,,,,,,,,,,,,,,,,,,,,,,,,,,,,,,,,,,,,,,,,,,,,,,,,,,,,,,,,,,,,,,,,,,,,,,,,,,,,,,,,,,,,,,,,,,,,,,,,,,,,,,,,,,,,,,,,,,,,,,,,,,,,,,,,,,,,
,,,,,,60f4357cca3a9867c33ca65b,62c53bb912f839c363f3eed2,2022-07-06_09h39.53.905,Colour_Asymmetry_Pilot,2022.1.3,Win32,59.9880024,62c50e9c1127f2cd403a315f,0,101,101,137,1,onethree,,,,,,,,,,,,,,,,,,,,,,,,,,,,,,,,,,,,,,,,,,,,,,,,,,,,,,,,,,,,,,,,,,,,,,,,,,,,,,,,,,,,,,,,,,,,,,,,,,,,,,,,,,,,,,,,,,,,,,,,,,,,,,,,,,,,,,,,,,,,,,,,,,,,,,,,,,,,,
,,,,,,60f4357cca3a9867c33ca65b,62c53bb912f839c363f3eed2,2022-07-06_09h39.53.905,Colour_Asymmetry_Pilot,2022.1.3,Win32,59.9880024,62c50e9c1127f2cd403a315f,0,102,102,82,1,twoone,,,,,,,,,,,,,,,,,,,,,,,,,,,,,,,,,,,,,,,,,,,,,,,,,,,,,,,,,,,,,,,,,,,,,,,,,,,,,,,,,,,,,,,,,,,,,,,,,,,,,,,,,,,,,,,,,,,,,,,,,,,,,,,,,,,,,,,,,,,,,,,,,,,,,,,,,,,,,
,,,,,,60f4357cca3a9867c33ca65b,62c53bb912f839c363f3eed2,2022-07-06_09h39.53.905,Colour_Asymmetry_Pilot,2022.1.3,Win32,59.9880024,62c50e9c1127f2cd403a315f,0,103,103,42,1,twoone,,,,,,,,,,,,,,,,,,,,,,,,,,,,,,,,,,,,,,,,,,,,,,,,,,,,,,,,,,,,,,,,,,,,,,,,,,,,,,,,,,,,,,,,,,,,,,,,,,,,,,,,,,,,,,,,,,,,,,,,,,,,,,,,,,,,,,,,,,,,,,,,,,,,,,,,,,,,,
,,,,,,60f4357cca3a9867c33ca65b,62c53bb912f839c363f3eed2,2022-07-06_09h39.53.905,Colour_Asymmetry_Pilot,2022.1.3,Win32,59.9880024,62c50e9c1127f2cd403a315f,0,104,104,148,1,threeone,,,,,,,,,,,,,,,,,,,,,,,,,,,,,,,,,,,,,,,,,,,,,,,,,,,,,,,,,,,,,,,,,,,,,,,,,,,,,,,,,,,,,,,,,,,,,,,,,,,,,,,,,,,,,,,,,,,,,,,,,,,,,,,,,,,,,,,,,,,,,,,,,,,,,,,,,,,,,
,,,,,,60f4357cca3a9867c33ca65b,62c53bb912f839c363f3eed2,2022-07-06_09h39.53.905,Colour_Asymmetry_Pilot,2022.1.3,Win32,59.9880024,62c50e9c1127f2cd403a315f,0,105,105,32,1,onetwo,,,,,,,,,,,,,,,,,,,,,,,,,,,,,,,,,,,,,,,,,,,,,,,,,,,,,,,,,,,,,,,,,,,,,,,,,,,,,,,,,,,,,,,,,,,,,,,,,,,,,,,,,,,,,,,,,,,,,,,,,,,,,,,,,,,,,,,,,,,,,,,,,,,,,,,,,,,,,
,,,,,,60f4357cca3a9867c33ca65b,62c53bb912f839c363f3eed2,2022-07-06_09h39.53.905,Colour_Asymmetry_Pilot,2022.1.3,Win32,59.9880024,62c50e9c1127f2cd403a315f,0,106,106,128,1,onetwo,,,,,,,,,,,,,,,,,,,,,,,,,,,,,,,,,,,,,,,,,,,,,,,,,,,,,,,,,,,,,,,,,,,,,,,,,,,,,,,,,,,,,,,,,,,,,,,,,,,,,,,,,,,,,,,,,,,,,,,,,,,,,,,,,,,,,,,,,,,,,,,,,,,,,,,,,,,,,
,,,,,,60f4357cca3a9867c33ca65b,62c53bb912f839c363f3eed2,2022-07-06_09h39.53.905,Colour_Asymmetry_Pilot,2022.1.3,Win32,59.9880024,62c50e9c1127f2cd403a315f,0,107,107,160,1,onetwo,,,,,,,,,,,,,,,,,,,,,,,,,,,,,,,,,,,,,,,,,,,,,,,,,,,,,,,,,,,,,,,,,,,,,,,,,,,,,,,,,,,,,,,,,,,,,,,,,,,,,,,,,,,,,,,,,,,,,,,,,,,,,,,,,,,,,,,,,,,,,,,,,,,,,,,,,,,,,
,,,,,,60f4357cca3a9867c33ca65b,62c53bb912f839c363f3eed2,2022-07-06_09h39.53.905,Colour_Asymmetry_Pilot,2022.1.3,Win32,59.9880024,62c50e9c1127f2cd403a315f,0,108,108,39,1,fourthree,,,,,,,,,,,,,,,,,,,,,,,,,,,,,,,,,,,,,,,,,,,,,,,,,,,,,,,,,,,,,,,,,,,,,,,,,,,,,,,,,,,,,,,,,,,,,,,,,,,,,,,,,,,,,,,,,,,,,,,,,,,,,,,,,,,,,,,,,,,,,,,,,,,,,,,,,,,,,
,,,,,,60f4357cca3a9867c33ca65b,62c53bb912f839c363f3eed2,2022-07-06_09h39.53.905,Colour_Asymmetry_Pilot,2022.1.3,Win32,59.9880024,62c50e9c1127f2cd403a315f,0,109,109,73,1,onethree,,,,,,,,,,,,,,,,,,,,,,,,,,,,,,,,,,,,,,,,,,,,,,,,,,,,,,,,,,,,,,,,,,,,,,,,,,,,,,,,,,,,,,,,,,,,,,,,,,,,,,,,,,,,,,,,,,,,,,,,,,,,,,,,,,,,,,,,,,,,,,,,,,,,,,,,,,,,,
,,,,,,60f4357cca3a9867c33ca65b,62c53bb912f839c363f3eed2,2022-07-06_09h39.53.905,Colour_Asymmetry_Pilot,2022.1.3,Win32,59.9880024,62c50e9c1127f2cd403a315f,0,110,110,150,1,fourtwo,,,,,,,,,,,,,,,,,,,,,,,,,,,,,,,,,,,,,,,,,,,,,,,,,,,,,,,,,,,,,,,,,,,,,,,,,,,,,,,,,,,,,,,,,,,,,,,,,,,,,,,,,,,,,,,,,,,,,,,,,,,,,,,,,,,,,,,,,,,,,,,,,,,,,,,,,,,,,
,,,,,,60f4357cca3a9867c33ca65b,62c53bb912f839c363f3eed2,2022-07-06_09h39.53.905,Colour_Asymmetry_Pilot,2022.1.3,Win32,59.9880024,62c50e9c1127f2cd403a315f,0,111,111,107,1,twofour,,,,,,,,,,,,,,,,,,,,,,,,,,,,,,,,,,,,,,,,,,,,,,,,,,,,,,,,,,,,,,,,,,,,,,,,,,,,,,,,,,,,,,,,,,,,,,,,,,,,,,,,,,,,,,,,,,,,,,,,,,,,,,,,,,,,,,,,,,,,,,,,,,,,,,,,,,,,,
,,,,,,60f4357cca3a9867c33ca65b,62c53bb912f839c363f3eed2,2022-07-06_09h39.53.905,Colour_Asymmetry_Pilot,2022.1.3,Win32,59.9880024,62c50e9c1127f2cd403a315f,0,112,112,68,1,threeone,,,,,,,,,,,,,,,,,,,,,,,,,,,,,,,,,,,,,,,,,,,,,,,,,,,,,,,,,,,,,,,,,,,,,,,,,,,,,,,,,,,,,,,,,,,,,,,,,,,,,,,,,,,,,,,,,,,,,,,,,,,,,,,,,,,,,,,,,,,,,,,,,,,,,,,,,,,,,
,,,,,,60f4357cca3a9867c33ca65b,62c53bb912f839c363f3eed2,2022-07-06_09h39.53.905,Colour_Asymmetry_Pilot,2022.1.3,Win32,59.9880024,62c50e9c1127f2cd403a315f,0,113,113,78,1,fourtwo,,,,,,,,,,,,,,,,,,,,,,,,,,,,,,,,,,,,,,,,,,,,,,,,,,,,,,,,,,,,,,,,,,,,,,,,,,,,,,,,,,,,,,,,,,,,,,,,,,,,,,,,,,,,,,,,,,,,,,,,,,,,,,,,,,,,,,,,,,,,,,,,,,,,,,,,,,,,,
,,,,,,60f4357cca3a9867c33ca65b,62c53bb912f839c363f3eed2,2022-07-06_09h39.53.905,Colour_Asymmetry_Pilot,2022.1.3,Win32,59.9880024,62c50e9c1127f2cd403a315f,0,114,114,58,1,twoone,,,,,,,,,,,,,,,,,,,,,,,,,,,,,,,,,,,,,,,,,,,,,,,,,,,,,,,,,,,,,,,,,,,,,,,,,,,,,,,,,,,,,,,,,,,,,,,,,,,,,,,,,,,,,,,,,,,,,,,,,,,,,,,,,,,,,,,,,,,,,,,,,,,,,,,,,,,,,
,,,,,,60f4357cca3a9867c33ca65b,62c53bb912f839c363f3eed2,2022-07-06_09h39.53.905,Colour_Asymmetry_Pilot,2022.1.3,Win32,59.9880024,62c50e9c1127f2cd403a315f,0,115,115,29,1,threefour,,,,,,,,,,,,,,,,,,,,,,,,,,,,,,,,,,,,,,,,,,,,,,,,,,,,,,,,,,,,,,,,,,,,,,,,,,,,,,,,,,,,,,,,,,,,,,,,,,,,,,,,,,,,,,,,,,,,,,,,,,,,,,,,,,,,,,,,,,,,,,,,,,,,,,,,,,,,,
,,,,,,60f4357cca3a9867c33ca65b,62c53bb912f839c363f3eed2,2022-07-06_09h39.53.905,Colour_Asymmetry_Pilot,2022.1.3,Win32,59.9880024,62c50e9c1127f2cd403a315f,0,116,116,60,1,threeone,,,,,,,,,,,,,,,,,,,,,,,,,,,,,,,,,,,,,,,,,,,,,,,,,,,,,,,,,,,,,,,,,,,,,,,,,,,,,,,,,,,,,,,,,,,,,,,,,,,,,,,,,,,,,,,,,,,,,,,,,,,,,,,,,,,,,,,,,,,,,,,,,,,,,,,,,,,,,
,,,,,,60f4357cca3a9867c33ca65b,62c53bb912f839c363f3eed2,2022-07-06_09h39.53.905,Colour_Asymmetry_Pilot,2022.1.3,Win32,59.9880024,62c50e9c1127f2cd403a315f,0,117,117,49,1,onethree,,,,,,,,,,,,,,,,,,,,,,,,,,,,,,,,,,,,,,,,,,,,,,,,,,,,,,,,,,,,,,,,,,,,,,,,,,,,,,,,,,,,,,,,,,,,,,,,,,,,,,,,,,,,,,,,,,,,,,,,,,,,,,,,,,,,,,,,,,,,,,,,,,,,,,,,,,,,,
,,,,,,60f4357cca3a9867c33ca65b,62c53bb912f839c363f3eed2,2022-07-06_09h39.53.905,Colour_Asymmetry_Pilot,2022.1.3,Win32,59.9880024,62c50e9c1127f2cd403a315f,0,118,118,20,1,threeone,,,,,,,,,,,,,,,,,,,,,,,,,,,,,,,,,,,,,,,,,,,,,,,,,,,,,,,,,,,,,,,,,,,,,,,,,,,,,,,,,,,,,,,,,,,,,,,,,,,,,,,,,,,,,,,,,,,,,,,,,,,,,,,,,,,,,,,,,,,,,,,,,,,,,,,,,,,,,
,,,,,,60f4357cca3a9867c33ca65b,62c53bb912f839c363f3eed2,2022-07-06_09h39.53.905,Colour_Asymmetry_Pilot,2022.1.3,Win32,59.9880024,62c50e9c1127f2cd403a315f,0,119,119,151,1,fourthree,,,,,,,,,,,,,,,,,,,,,,,,,,,,,,,,,,,,,,,,,,,,,,,,,,,,,,,,,,,,,,,,,,,,,,,,,,,,,,,,,,,,,,,,,,,,,,,,,,,,,,,,,,,,,,,,,,,,,,,,,,,,,,,,,,,,,,,,,,,,,,,,,,,,,,,,,,,,,
,,,,,,60f4357cca3a9867c33ca65b,62c53bb912f839c363f3eed2,2022-07-06_09h39.53.905,Colour_Asymmetry_Pilot,2022.1.3,Win32,59.9880024,62c50e9c1127f2cd403a315f,0,120,120,98,1,twoone,,,,,,,,,,,,,,,,,,,,,,,,,,,,,,,,,,,,,,,,,,,,,,,,,,,,,,,,,,,,,,,,,,,,,,,,,,,,,,,,,,,,,,,,,,,,,,,,,,,,,,,,,,,,,,,,,,,,,,,,,,,,,,,,,,,,,,,,,,,,,,,,,,,,,,,,,,,,,
,,,,,,60f4357cca3a9867c33ca65b,62c53bb912f839c363f3eed2,2022-07-06_09h39.53.905,Colour_Asymmetry_Pilot,2022.1.3,Win32,59.9880024,62c50e9c1127f2cd403a315f,0,121,121,51,1,twofour,,,,,,,,,,,,,,,,,,,,,,,,,,,,,,,,,,,,,,,,,,,,,,,,,,,,,,,,,,,,,,,,,,,,,,,,,,,,,,,,,,,,,,,,,,,,,,,,,,,,,,,,,,,,,,,,,,,,,,,,,,,,,,,,,,,,,,,,,,,,,,,,,,,,,,,,,,,,,
,,,,,,60f4357cca3a9867c33ca65b,62c53bb912f839c363f3eed2,2022-07-06_09h39.53.905,Colour_Asymmetry_Pilot,2022.1.3,Win32,59.9880024,62c50e9c1127f2cd403a315f,0,122,122,31,1,fourthree,,,,,,,,,,,,,,,,,,,,,,,,,,,,,,,,,,,,,,,,,,,,,,,,,,,,,,,,,,,,,,,,,,,,,,,,,,,,,,,,,,,,,,,,,,,,,,,,,,,,,,,,,,,,,,,,,,,,,,,,,,,,,,,,,,,,,,,,,,,,,,,,,,,,,,,,,,,,,
,,,,,,60f4357cca3a9867c33ca65b,62c53bb912f839c363f3eed2,2022-07-06_09h39.53.905,Colour_Asymmetry_Pilot,2022.1.3,Win32,59.9880024,62c50e9c1127f2cd403a315f,0,123,123,93,1,threefour,,,,,,,,,,,,,,,,,,,,,,,,,,,,,,,,,,,,,,,,,,,,,,,,,,,,,,,,,,,,,,,,,,,,,,,,,,,,,,,,,,,,,,,,,,,,,,,,,,,,,,,,,,,,,,,,,,,,,,,,,,,,,,,,,,,,,,,,,,,,,,,,,,,,,,,,,,,,,
,,,,,,60f4357cca3a9867c33ca65b,62c53bb912f839c363f3eed2,2022-07-06_09h39.53.905,Colour_Asymmetry_Pilot,2022.1.3,Win32,59.9880024,62c50e9c1127f2cd403a315f,0,124,124,36,1,threeone,,,,,,,,,,,,,,,,,,,,,,,,,,,,,,,,,,,,,,,,,,,,,,,,,,,,,,,,,,,,,,,,,,,,,,,,,,,,,,,,,,,,,,,,,,,,,,,,,,,,,,,,,,,,,,,,,,,,,,,,,,,,,,,,,,,,,,,,,,,,,,,,,,,,,,,,,,,,,
,,,,,,60f4357cca3a9867c33ca65b,62c53bb912f839c363f3eed2,2022-07-06_09h39.53.905,Colour_Asymmetry_Pilot,2022.1.3,Win32,59.9880024,62c50e9c1127f2cd403a315f,0,125,125,25,1,onethree,,,,,,,,,,,,,,,,,,,,,,,,,,,,,,,,,,,,,,,,,,,,,,,,,,,,,,,,,,,,,,,,,,,,,,,,,,,,,,,,,,,,,,,,,,,,,,,,,,,,,,,,,,,,,,,,,,,,,,,,,,,,,,,,,,,,,,,,,,,,,,,,,,,,,,,,,,,,,
,,,,,,60f4357cca3a9867c33ca65b,62c53bb912f839c363f3eed2,2022-07-06_09h39.53.905,Colour_Asymmetry_Pilot,2022.1.3,Win32,59.9880024,62c50e9c1127f2cd403a315f,0,126,126,106,1,twoone,,,,,,,,,,,,,,,,,,,,,,,,,,,,,,,,,,,,,,,,,,,,,,,,,,,,,,,,,,,,,,,,,,,,,,,,,,,,,,,,,,,,,,,,,,,,,,,,,,,,,,,,,,,,,,,,,,,,,,,,,,,,,,,,,,,,,,,,,,,,,,,,,,,,,,,,,,,,,
,,,,,,60f4357cca3a9867c33ca65b,62c53bb912f839c363f3eed2,2022-07-06_09h39.53.905,Colour_Asymmetry_Pilot,2022.1.3,Win32,59.9880024,62c50e9c1127f2cd403a315f,0,127,127,99,1,twofour,,,,,,,,,,,,,,,,,,,,,,,,,,,,,,,,,,,,,,,,,,,,,,,,,,,,,,,,,,,,,,,,,,,,,,,,,,,,,,,,,,,,,,,,,,,,,,,,,,,,,,,,,,,,,,,,,,,,,,,,,,,,,,,,,,,,,,,,,,,,,,,,,,,,,,,,,,,,,
,,,,,,60f4357cca3a9867c33ca65b,62c53bb912f839c363f3eed2,2022-07-06_09h39.53.905,Colour_Asymmetry_Pilot,2022.1.3,Win32,59.9880024,62c50e9c1127f2cd403a315f,0,128,128,61,1,threefour,,,,,,,,,,,,,,,,,,,,,,,,,,,,,,,,,,,,,,,,,,,,,,,,,,,,,,,,,,,,,,,,,,,,,,,,,,,,,,,,,,,,,,,,,,,,,,,,,,,,,,,,,,,,,,,,,,,,,,,,,,,,,,,,,,,,,,,,,,,,,,,,,,,,,,,,,,,,,
,,,,,,60f4357cca3a9867c33ca65b,62c53bb912f839c363f3eed2,2022-07-06_09h39.53.905,Colour_Asymmetry_Pilot,2022.1.3,Win32,59.9880024,62c50e9c1127f2cd403a315f,0,129,129,43,1,twofour,,,,,,,,,,,,,,,,,,,,,,,,,,,,,,,,,,,,,,,,,,,,,,,,,,,,,,,,,,,,,,,,,,,,,,,,,,,,,,,,,,,,,,,,,,,,,,,,,,,,,,,,,,,,,,,,,,,,,,,,,,,,,,,,,,,,,,,,,,,,,,,,,,,,,,,,,,,,,
,,,,,,60f4357cca3a9867c33ca65b,62c53bb912f839c363f3eed2,2022-07-06_09h39.53.905,Colour_Asymmetry_Pilot,2022.1.3,Win32,59.9880024,62c50e9c1127f2cd403a315f,0,130,130,16,1,onetwo,,,,,,,,,,,,,,,,,,,,,,,,,,,,,,,,,,,,,,,,,,,,,,,,,,,,,,,,,,,,,,,,,,,,,,,,,,,,,,,,,,,,,,,,,,,,,,,,,,,,,,,,,,,,,,,,,,,,,,,,,,,,,,,,,,,,,,,,,,,,,,,,,,,,,,,,,,,,,
,,,,,,60f4357cca3a9867c33ca65b,62c53bb912f839c363f3eed2,2022-07-06_09h39.53.905,Colour_Asymmetry_Pilot,2022.1.3,Win32,59.9880024,62c50e9c1127f2cd403a315f,0,131,131,157,1,threefour,,,,,,,,,,,,,,,,,,,,,,,,,,,,,,,,,,,,,,,,,,,,,,,,,,,,,,,,,,,,,,,,,,,,,,,,,,,,,,,,,,,,,,,,,,,,,,,,,,,,,,,,,,,,,,,,,,,,,,,,,,,,,,,,,,,,,,,,,,,,,,,,,,,,,,,,,,,,,
,,,,,,60f4357cca3a9867c33ca65b,62c53bb912f839c363f3eed2,2022-07-06_09h39.53.905,Colour_Asymmetry_Pilot,2022.1.3,Win32,59.9880024,62c50e9c1127f2cd403a315f,0,132,132,132,1,threeone,,,,,,,,,,,,,,,,,,,,,,,,,,,,,,,,,,,,,,,,,,,,,,,,,,,,,,,,,,,,,,,,,,,,,,,,,,,,,,,,,,,,,,,,,,,,,,,,,,,,,,,,,,,,,,,,,,,,,,,,,,,,,,,,,,,,,,,,,,,,,,,,,,,,,,,,,,,,,
,,,,,,60f4357cca3a9867c33ca65b,62c53bb912f839c363f3eed2,2022-07-06_09h39.53.905,Colour_Asymmetry_Pilot,2022.1.3,Win32,59.9880024,62c50e9c1127f2cd403a315f,0,133,133,143,1,fourthree,,,,,,,,,,,,,,,,,,,,,,,,,,,,,,,,,,,,,,,,,,,,,,,,,,,,,,,,,,,,,,,,,,,,,,,,,,,,,,,,,,,,,,,,,,,,,,,,,,,,,,,,,,,,,,,,,,,,,,,,,,,,,,,,,,,,,,,,,,,,,,,,,,,,,,,,,,,,,
,,,,,,60f4357cca3a9867c33ca65b,62c53bb912f839c363f3eed2,2022-07-06_09h39.53.905,Colour_Asymmetry_Pilot,2022.1.3,Win32,59.9880024,62c50e9c1127f2cd403a315f,0,134,134,30,1,fourtwo,,,,,,,,,,,,,,,,,,,,,,,,,,,,,,,,,,,,,,,,,,,,,,,,,,,,,,,,,,,,,,,,,,,,,,,,,,,,,,,,,,,,,,,,,,,,,,,,,,,,,,,,,,,,,,,,,,,,,,,,,,,,,,,,,,,,,,,,,,,,,,,,,,,,,,,,,,,,,
,,,,,,60f4357cca3a9867c33ca65b,62c53bb912f839c363f3eed2,2022-07-06_09h39.53.905,Colour_Asymmetry_Pilot,2022.1.3,Win32,59.9880024,62c50e9c1127f2cd403a315f,0,135,135,17,1,onethree,,,,,,,,,,,,,,,,,,,,,,,,,,,,,,,,,,,,,,,,,,,,,,,,,,,,,,,,,,,,,,,,,,,,,,,,,,,,,,,,,,,,,,,,,,,,,,,,,,,,,,,,,,,,,,,,,,,,,,,,,,,,,,,,,,,,,,,,,,,,,,,,,,,,,,,,,,,,,
,,,,,,60f4357cca3a9867c33ca65b,62c53bb912f839c363f3eed2,2022-07-06_09h39.53.905,Colour_Asymmetry_Pilot,2022.1.3,Win32,59.9880024,62c50e9c1127f2cd403a315f,0,136,136,85,1,threefour,,,,,,,,,,,,,,,,,,,,,,,,,,,,,,,,,,,,,,,,,,,,,,,,,,,,,,,,,,,,,,,,,,,,,,,,,,,,,,,,,,,,,,,,,,,,,,,,,,,,,,,,,,,,,,,,,,,,,,,,,,,,,,,,,,,,,,,,,,,,,,,,,,,,,,,,,,,,,
,,,,,,60f4357cca3a9867c33ca65b,62c53bb912f839c363f3eed2,2022-07-06_09h39.53.905,Colour_Asymmetry_Pilot,2022.1.3,Win32,59.9880024,62c50e9c1127f2cd403a315f,0,137,137,131,1,twofour,,,,,,,,,,,,,,,,,,,,,,,,,,,,,,,,,,,,,,,,,,,,,,,,,,,,,,,,,,,,,,,,,,,,,,,,,,,,,,,,,,,,,,,,,,,,,,,,,,,,,,,,,,,,,,,,,,,,,,,,,,,,,,,,,,,,,,,,,,,,,,,,,,,,,,,,,,,,,
,,,,,,60f4357cca3a9867c33ca65b,62c53bb912f839c363f3eed2,2022-07-06_09h39.53.905,Colour_Asymmetry_Pilot,2022.1.3,Win32,59.9880024,62c50e9c1127f2cd403a315f,0,138,138,53,1,threefour,,,,,,,,,,,,,,,,,,,,,,,,,,,,,,,,,,,,,,,,,,,,,,,,,,,,,,,,,,,,,,,,,,,,,,,,,,,,,,,,,,,,,,,,,,,,,,,,,,,,,,,,,,,,,,,,,,,,,,,,,,,,,,,,,,,,,,,,,,,,,,,,,,,,,,,,,,,,,
,,,,,,60f4357cca3a9867c33ca65b,62c53bb912f839c363f3eed2,2022-07-06_09h39.53.905,Colour_Asymmetry_Pilot,2022.1.3,Win32,59.9880024,62c50e9c1127f2cd403a315f,0,139,139,77,1,threefour,,,,,,,,,,,,,,,,,,,,,,,,,,,,,,,,,,,,,,,,,,,,,,,,,,,,,,,,,,,,,,,,,,,,,,,,,,,,,,,,,,,,,,,,,,,,,,,,,,,,,,,,,,,,,,,,,,,,,,,,,,,,,,,,,,,,,,,,,,,,,,,,,,,,,,,,,,,,,
,,,,,,60f4357cca3a9867c33ca65b,62c53bb912f839c363f3eed2,2022-07-06_09h39.53.905,Colour_Asymmetry_Pilot,2022.1.3,Win32,59.9880024,62c50e9c1127f2cd403a315f,0,140,140,110,1,fourtwo,,,,,,,,,,,,,,,,,,,,,,,,,,,,,,,,,,,,,,,,,,,,,,,,,,,,,,,,,,,,,,,,,,,,,,,,,,,,,,,,,,,,,,,,,,,,,,,,,,,,,,,,,,,,,,,,,,,,,,,,,,,,,,,,,,,,,,,,,,,,,,,,,,,,,,,,,,,,,
,,,,,,60f4357cca3a9867c33ca65b,62c53bb912f839c363f3eed2,2022-07-06_09h39.53.905,Colour_Asymmetry_Pilot,2022.1.3,Win32,59.9880024,62c50e9c1127f2cd403a315f,0,141,141,121,1,onethree,,,,,,,,,,,,,,,,,,,,,,,,,,,,,,,,,,,,,,,,,,,,,,,,,,,,,,,,,,,,,,,,,,,,,,,,,,,,,,,,,,,,,,,,,,,,,,,,,,,,,,,,,,,,,,,,,,,,,,,,,,,,,,,,,,,,,,,,,,,,,,,,,,,,,,,,,,,,,
,,,,,,60f4357cca3a9867c33ca65b,62c53bb912f839c363f3eed2,2022-07-06_09h39.53.905,Colour_Asymmetry_Pilot,2022.1.3,Win32,59.9880024,62c50e9c1127f2cd403a315f,0,142,142,127,1,fourthree,,,,,,,,,,,,,,,,,,,,,,,,,,,,,,,,,,,,,,,,,,,,,,,,,,,,,,,,,,,,,,,,,,,,,,,,,,,,,,,,,,,,,,,,,,,,,,,,,,,,,,,,,,,,,,,,,,,,,,,,,,,,,,,,,,,,,,,,,,,,,,,,,,,,,,,,,,,,,
,,,,,,60f4357cca3a9867c33ca65b,62c53bb912f839c363f3eed2,2022-07-06_09h39.53.905,Colour_Asymmetry_Pilot,2022.1.3,Win32,59.9880024,62c50e9c1127f2cd403a315f,0,143,143,10,1,twoone,,,,,,,,,,,,,,,,,,,,,,,,,,,,,,,,,,,,,,,,,,,,,,,,,,,,,,,,,,,,,,,,,,,,,,,,,,,,,,,,,,,,,,,,,,,,,,,,,,,,,,,,,,,,,,,,,,,,,,,,,,,,,,,,,,,,,,,,,,,,,,,,,,,,,,,,,,,,,
,,,,,,60f4357cca3a9867c33ca65b,62c53bb912f839c363f3eed2,2022-07-06_09h39.53.905,Colour_Asymmetry_Pilot,2022.1.3,Win32,59.9880024,62c50e9c1127f2cd403a315f,0,144,144,153,1,onethree,,,,,,,,,,,,,,,,,,,,,,,,,,,,,,,,,,,,,,,,,,,,,,,,,,,,,,,,,,,,,,,,,,,,,,,,,,,,,,,,,,,,,,,,,,,,,,,,,,,,,,,,,,,,,,,,,,,,,,,,,,,,,,,,,,,,,,,,,,,,,,,,,,,,,,,,,,,,,
,,,,,,60f4357cca3a9867c33ca65b,62c53bb912f839c363f3eed2,2022-07-06_09h39.53.905,Colour_Asymmetry_Pilot,2022.1.3,Win32,59.9880024,62c50e9c1127f2cd403a315f,0,145,145,135,1,fourthree,,,,,,,,,,,,,,,,,,,,,,,,,,,,,,,,,,,,,,,,,,,,,,,,,,,,,,,,,,,,,,,,,,,,,,,,,,,,,,,,,,,,,,,,,,,,,,,,,,,,,,,,,,,,,,,,,,,,,,,,,,,,,,,,,,,,,,,,,,,,,,,,,,,,,,,,,,,,,
,,,,,,60f4357cca3a9867c33ca65b,62c53bb912f839c363f3eed2,2022-07-06_09h39.53.905,Colour_Asymmetry_Pilot,2022.1.3,Win32,59.9880024,62c50e9c1127f2cd403a315f,0,146,146,116,1,threeone,,,,,,,,,,,,,,,,,,,,,,,,,,,,,,,,,,,,,,,,,,,,,,,,,,,,,,,,,,,,,,,,,,,,,,,,,,,,,,,,,,,,,,,,,,,,,,,,,,,,,,,,,,,,,,,,,,,,,,,,,,,,,,,,,,,,,,,,,,,,,,,,,,,,,,,,,,,,,
,,,,,,60f4357cca3a9867c33ca65b,62c53bb912f839c363f3eed2,2022-07-06_09h39.53.905,Colour_Asymmetry_Pilot,2022.1.3,Win32,59.9880024,62c50e9c1127f2cd403a315f,0,147,147,97,1,onethree,,,,,,,,,,,,,,,,,,,,,,,,,,,,,,,,,,,,,,,,,,,,,,,,,,,,,,,,,,,,,,,,,,,,,,,,,,,,,,,,,,,,,,,,,,,,,,,,,,,,,,,,,,,,,,,,,,,,,,,,,,,,,,,,,,,,,,,,,,,,,,,,,,,,,,,,,,,,,
,,,,,,60f4357cca3a9867c33ca65b,62c53bb912f839c363f3eed2,2022-07-06_09h39.53.905,Colour_Asymmetry_Pilot,2022.1.3,Win32,59.9880024,62c50e9c1127f2cd403a315f,0,148,148,109,1,threefour,,,,,,,,,,,,,,,,,,,,,,,,,,,,,,,,,,,,,,,,,,,,,,,,,,,,,,,,,,,,,,,,,,,,,,,,,,,,,,,,,,,,,,,,,,,,,,,,,,,,,,,,,,,,,,,,,,,,,,,,,,,,,,,,,,,,,,,,,,,,,,,,,,,,,,,,,,,,,
,,,,,,60f4357cca3a9867c33ca65b,62c53bb912f839c363f3eed2,2022-07-06_09h39.53.905,Colour_Asymmetry_Pilot,2022.1.3,Win32,59.9880024,62c50e9c1127f2cd403a315f,0,149,149,136,1,onetwo,,,,,,,,,,,,,,,,,,,,,,,,,,,,,,,,,,,,,,,,,,,,,,,,,,,,,,,,,,,,,,,,,,,,,,,,,,,,,,,,,,,,,,,,,,,,,,,,,,,,,,,,,,,,,,,,,,,,,,,,,,,,,,,,,,,,,,,,,,,,,,,,,,,,,,,,,,,,,
,,,,,,60f4357cca3a9867c33ca65b,62c53bb912f839c363f3eed2,2022-07-06_09h39.53.905,Colour_Asymmetry_Pilot,2022.1.3,Win32,59.9880024,62c50e9c1127f2cd403a315f,0,150,150,15,1,fourthree,,,,,,,,,,,,,,,,,,,,,,,,,,,,,,,,,,,,,,,,,,,,,,,,,,,,,,,,,,,,,,,,,,,,,,,,,,,,,,,,,,,,,,,,,,,,,,,,,,,,,,,,,,,,,,,,,,,,,,,,,,,,,,,,,,,,,,,,,,,,,,,,,,,,,,,,,,,,,
,,,,,,60f4357cca3a9867c33ca65b,62c53bb912f839c363f3eed2,2022-07-06_09h39.53.905,Colour_Asymmetry_Pilot,2022.1.3,Win32,59.9880024,62c50e9c1127f2cd403a315f,0,151,151,112,1,onetwo,,,,,,,,,,,,,,,,,,,,,,,,,,,,,,,,,,,,,,,,,,,,,,,,,,,,,,,,,,,,,,,,,,,,,,,,,,,,,,,,,,,,,,,,,,,,,,,,,,,,,,,,,,,,,,,,,,,,,,,,,,,,,,,,,,,,,,,,,,,,,,,,,,,,,,,,,,,,,
,,,,,,60f4357cca3a9867c33ca65b,62c53bb912f839c363f3eed2,2022-07-06_09h39.53.905,Colour_Asymmetry_Pilot,2022.1.3,Win32,59.9880024,62c50e9c1127f2cd403a315f,0,152,152,18,1,twoone,,,,,,,,,,,,,,,,,,,,,,,,,,,,,,,,,,,,,,,,,,,,,,,,,,,,,,,,,,,,,,,,,,,,,,,,,,,,,,,,,,,,,,,,,,,,,,,,,,,,,,,,,,,,,,,,,,,,,,,,,,,,,,,,,,,,,,,,,,,,,,,,,,,,,,,,,,,,,
,,,,,,60f4357cca3a9867c33ca65b,62c53bb912f839c363f3eed2,2022-07-06_09h39.53.905,Colour_Asymmetry_Pilot,2022.1.3,Win32,59.9880024,62c50e9c1127f2cd403a315f,0,153,153,84,1,threeone,,,,,,,,,,,,,,,,,,,,,,,,,,,,,,,,,,,,,,,,,,,,,,,,,,,,,,,,,,,,,,,,,,,,,,,,,,,,,,,,,,,,,,,,,,,,,,,,,,,,,,,,,,,,,,,,,,,,,,,,,,,,,,,,,,,,,,,,,,,,,,,,,,,,,,,,,,,,,
,,,,,,60f4357cca3a9867c33ca65b,62c53bb912f839c363f3eed2,2022-07-06_09h39.53.905,Colour_Asymmetry_Pilot,2022.1.3,Win32,59.9880024,62c50e9c1127f2cd403a315f,0,154,154,28,1,threeone,,,,,,,,,,,,,,,,,,,,,,,,,,,,,,,,,,,,,,,,,,,,,,,,,,,,,,,,,,,,,,,,,,,,,,,,,,,,,,,,,,,,,,,,,,,,,,,,,,,,,,,,,,,,,,,,,,,,,,,,,,,,,,,,,,,,,,,,,,,,,,,,,,,,,,,,,,,,,
,,,,,,60f4357cca3a9867c33ca65b,62c53bb912f839c363f3eed2,2022-07-06_09h39.53.905,Colour_Asymmetry_Pilot,2022.1.3,Win32,59.9880024,62c50e9c1127f2cd403a315f,0,155,155,74,1,twoone,,,,,,,,,,,,,,,,,,,,,,,,,,,,,,,,,,,,,,,,,,,,,,,,,,,,,,,,,,,,,,,,,,,,,,,,,,,,,,,,,,,,,,,,,,,,,,,,,,,,,,,,,,,,,,,,,,,,,,,,,,,,,,,,,,,,,,,,,,,,,,,,,,,,,,,,,,,,,
,,,,,,60f4357cca3a9867c33ca65b,62c53bb912f839c363f3eed2,2022-07-06_09h39.53.905,Colour_Asymmetry_Pilot,2022.1.3,Win32,59.9880024,62c50e9c1127f2cd403a315f,0,156,156,76,1,threeone,,,,,,,,,,,,,,,,,,,,,,,,,,,,,,,,,,,,,,,,,,,,,,,,,,,,,,,,,,,,,,,,,,,,,,,,,,,,,,,,,,,,,,,,,,,,,,,,,,,,,,,,,,,,,,,,,,,,,,,,,,,,,,,,,,,,,,,,,,,,,,,,,,,,,,,,,,,,,
,,,,,,60f4357cca3a9867c33ca65b,62c53bb912f839c363f3eed2,2022-07-06_09h39.53.905,Colour_Asymmetry_Pilot,2022.1.3,Win32,59.9880024,62c50e9c1127f2cd403a315f,0,157,157,129,1,onethree,,,,,,,,,,,,,,,,,,,,,,,,,,,,,,,,,,,,,,,,,,,,,,,,,,,,,,,,,,,,,,,,,,,,,,,,,,,,,,,,,,,,,,,,,,,,,,,,,,,,,,,,,,,,,,,,,,,,,,,,,,,,,,,,,,,,,,,,,,,,,,,,,,,,,,,,,,,,,
,,,,,,60f4357cca3a9867c33ca65b,62c53bb912f839c363f3eed2,2022-07-06_09h39.53.905,Colour_Asymmetry_Pilot,2022.1.3,Win32,59.9880024,62c50e9c1127f2cd403a315f,0,158,158,13,1,threefour,,,,,,,,,,,,,,,,,,,,,,,,,,,,,,,,,,,,,,,,,,,,,,,,,,,,,,,,,,,,,,,,,,,,,,,,,,,,,,,,,,,,,,,,,,,,,,,,,,,,,,,,,,,,,,,,,,,,,,,,,,,,,,,,,,,,,,,,,,,,,,,,,,,,,,,,,,,,,
,,,,,,60f4357cca3a9867c33ca65b,62c53bb912f839c363f3eed2,2022-07-06_09h39.53.905,Colour_Asymmetry_Pilot,2022.1.3,Win32,59.9880024,62c50e9c1127f2cd403a315f,0,159,159,92,1,threeone,,,,,,,,,,,,,,,,,,,,,,,,,,,,,,,,,,,,,,,,,,,,,,,,,,,,,,,,,,,,,,,,,,,,,,,,,,,,,,,,,,,,,,,,,,,,,,,,,,,,,,,,,,,,,,,,,,,,,,,,,,,,,,,,,,,,,,,,,,,,,,,,,,,,,,,,,,,,,
,,,,,,60f4357cca3a9867c33ca65b,62c53bb912f839c363f3eed2,2022-07-06_09h39.53.905,Colour_Asymmetry_Pilot,2022.1.3,Win32,59.9880024,62c50e9c1127f2cd403a315f,0,160,160,96,1,onetwo,,,,,,,,,,,,,,,,,,,,,,,,,,,,,,,,,,,,,,,,,,,,,,,,,,,,,,,,,,,,,,,,,,,,,,,,,,,,,,,,,,,,,,,,,,,,,,,,,,,,,,,,,,,,,,,,,,,,,,,,,,,,,,,,,,,,,,,,,,,,,,,,,,,,,,,,,,,,,
,,,,,,60f4357cca3a9867c33ca65b,62c53bb912f839c363f3eed2,2022-07-06_09h39.53.905,Colour_Asymmetry_Pilot,2022.1.3,Win32,59.9880024,62c50e9c1127f2cd403a315f,0,161,161,55,1,fourthree,,,,,,,,,,,,,,,,,,,,,,,,,,,,,,,,,,,,,,,,,,,,,,,,,,,,,,,,,,,,,,,,,,,,,,,,,,,,,,,,,,,,,,,,,,,,,,,,,,,,,,,,,,,,,,,,,,,,,,,,,,,,,,,,,,,,,,,,,,,,,,,,,,,,,,,,,,,,,
,,,,,,60f4357cca3a9867c33ca65b,62c53bb912f839c363f3eed2,2022-07-06_09h39.53.905,Colour_Asymmetry_Pilot,2022.1.3,Win32,59.9880024,62c50e9c1127f2cd403a315f,,,,,,,space,1.7359,space,6.9351,space,17.9702,space,7.023,space,2.1689,space,2.1005,"[-0.9766,-0.34920000000000007,0.2156]",threefour,"[-0.9688,-0.38039999999999996,-0.41979999999999995]",-1,7.8736,-41.59997559,-87.20001221,1,0,0,response5disk_5,-7.200012207,-3.200012207,1,0,0,rectangle_8,-7.200012207,-3.200012207,1,0,0,3,-7.200012207,-3.200012207,1,0,0,0,0,0,0,1,,,,,,,,,,,,,,,,,,,,,,,,,,,,,,,,,,,,,,,,,,,,,,,,,,,,,,,,,,,,,,,,,,,,,,,,,,,,,,,,,,,,,,,,,,,,,,,,,,,,,,,,,,,,,,,,
,,,,,,60f4357cca3a9867c33ca65b,62c53bb912f839c363f3eed2,2022-07-06_09h39.53.905,Colour_Asymmetry_Pilot,2022.1.3,Win32,59.9880024,62c50e9c1127f2cd403a315f,,,,,,,,,,,,,,,,,,,"[-0.4276,0.0038000000000000256,-0.3256]",fourtwo,"[0.19199999999999995,0.18419999999999992,0.5136000000000001]",1,4.0371,40,-104,1,0,0,response3disk_5,1.600036621,0.799987793,1,0,0,rectangle_8,1.600036621,0.799987793,1,0,0,3,1.600036621,0.799987793,1,0,0,1,0,1,0,1,,,,,,,,,,,,,,,,,,,,,,,,,,,,,,,,,,,,,,,,,,,,,,,,,,,,,,,,,,,,,,,,,,,,,,,,,,,,,,,,,,,,,,,,,,,,,,,,,,,,,,,,,,,,,,,,
,,,,,,60f4357cca3a9867c33ca65b,62c53bb912f839c363f3eed2,2022-07-06_09h39.53.905,Colour_Asymmetry_Pilot,2022.1.3,Win32,59.9880024,62c50e9c1127f2cd403a315f,,,,,,,,,,,,,,,,,,,"[-0.9296,-0.12959999999999994,-0.043199999999999905]",twofour,"[-0.4276,0.0038000000000000256,-0.3256]",-2,1.4581,-89.59997559,-39.20001221,1,0,0,response5disk_5,-3.200012207,-4,1,0,0,rectangle_8,106.4000244,44.79998779,1,0,0,3,16,7.199981689,1,0,0,2,0,2,0,1,response1disk_7,6,rectangle_4,,,,,,,,,,,,,,,,,,,,,,,,,,,,,,,,,,,,,,,,,,,,,,,,,,,,,,,,,,,,,,,,,,,,,,,,,,,,,,,,,,,,,,,,,,,,,,,,,,,,,,,,,,,,,
,,,,,,60f4357cca3a9867c33ca65b,62c53bb912f839c363f3eed2,2022-07-06_09h39.53.905,Colour_Asymmetry_Pilot,2022.1.3,Win32,59.9880024,62c50e9c1127f2cd403a315f,,,,,,,,,,,,,,,,,,,"[0.34099999999999997,0.12939999999999996,-0.9766]",fourtwo,"[0.796,0.2156,-0.27859999999999996]",3,1.8683,105.6000366,36,1,0,0,response1disk_5,14.40002441,-11.20001221,1,0,0,rectangle_8,14.40002441,-11.20001221,1,0,0,3,14.40002441,-11.20001221,1,0,0,3,0,3,0,1,,,,,,,,,,,,,,,,,,,,,,,,,,,,,,,,,,,,,,,,,,,,,,,,,,,,,,,,,,,,,,,,,,,,,,,,,,,,,,,,,,,,,,,,,,,,,,,,,,,,,,,,,,,,,,,,
,,,,,,60f4357cca3a9867c33ca65b,62c53bb912f839c363f3eed2,2022-07-06_09h39.53.905,Colour_Asymmetry_Pilot,2022.1.3,Win32,59.9880024,62c50e9c1127f2cd403a315f,,,,,,,,,,,,,,,,,,,"[0.6547999999999998,-0.043199999999999905,-0.011800000000000033]",fourthree,"[-0.24719999999999998,-0.0354000000000001,0.3175999999999999]",-2,3.0359,-108,-28,1,0,0,response5disk_5,16,12,1,0,0,rectangle_8,16,12,1,0,0,3,16,12,1,0,0,4,0,4,0,1,,,,,,,,,,,,,,,,,,,,,,,,,,,,,,,,,,,,,,,,,,,,,,,,,,,,,,,,,,,,,,,,,,,,,,,,,,,,,,,,,,,,,,,,,,,,,,,,,,,,,,,,,,,,,,,,
,,,,,,60f4357cca3a9867c33ca65b,62c53bb912f839c363f3eed2,2022-07-06_09h39.53.905,Colour_Asymmetry_Pilot,2022.1.3,Win32,59.9880024,62c50e9c1127f2cd403a315f,,,,,,,,,,,,,,,,,,,"[-0.30200000000000005,0.14500000000000002,0.2784]",onetwo,"[-0.5688,-0.08239999999999992,-0.1844]",1,1.8015,64,-98.40002441,1,0,0,response3disk_5,-5.599975586,3.199981689,1,0,0,rectangle_8,-5.599975586,3.199981689,1,0,0,3,-5.599975586,3.199981689,1,0,0,5,0,5,0,1,,,,,,,,,,,,,,,,,,,,,,,,,,,,,,,,,,,,,,,,,,,,,,,,,,,,,,,,,,,,,,,,,,,,,,,,,,,,,,,,,,,,,,,,,,,,,,,,,,,,,,,,,,,,,,,,
,,,,,,60f4357cca3a9867c33ca65b,62c53bb912f839c363f3eed2,2022-07-06_09h39.53.905,Colour_Asymmetry_Pilot,2022.1.3,Win32,59.9880024,62c50e9c1127f2cd403a315f,,,,,,,,,,,,,,,,,,,"[0.7646000000000002,0.07440000000000002,0.2704]",twofour,"[-0.17659999999999998,-0.2864,-0.8354]",-3,3.3025,-112,38.3999939,1,0,0,response7disk_5,10.40002441,6.399993896,1,0,0,rectangle_8,10.40002441,6.399993896,1,0,0,3,10.40002441,6.399993896,1,0,0,6,0,6,0,1,,,,,,,,,,,,,,,,,,,,,,,,,,,,,,,,,,,,,,,,,,,,,,,,,,,,,,,,,,,,,,,,,,,,,,,,,,,,,,,,,,,,,,,,,,,,,,,,,,,,,,,,,,,,,,,,
,,,,,,60f4357cca3a9867c33ca65b,62c53bb912f839c363f3eed2,2022-07-06_09h39.53.905,Colour_Asymmetry_Pilot,2022.1.3,Win32,59.9880024,62c50e9c1127f2cd403a315f,,,,,,,,,,,,,,,,,,,,threefour,,-1,0.8173,,,,,,,,,,,,,,,,,,,,,,,,,,,,,,,,space,5.0661,"[0.9372,0.20779999999999998,0.2704]","[0.12939999999999996,-0.2864,0.3253999999999999]",-66.39996338,-97.60003662,1,0,0,response5disk,8.799987793,0,1,0,0,rectangle,8.799987793,0,1,0,0,,2,0.0015,0,8.799987793,0,1,0,0,0,0,0,3,1,3,first,,,,,,,,,,,,,,,,,,,,,,,,,,,,,,,,,,,,,,,,,,,,,,,,,,,,,,,,,,,,,,,,,,,,,,,,
,,,,,,60f4357cca3a9867c33ca65b,62c53bb912f839c363f3eed2,2022-07-06_09h39.53.905,Colour_Asymmetry_Pilot,2022.1.3,Win32,59.9880024,62c50e9c1127f2cd403a315f,,,,,,,,,,,,,,,,,,,,fourtwo,,-2,1.3843,,,,,,,,,,,,,,,,,,,,,,,,,,,,,,,,,,"[-0.5688,-0.08239999999999992,-0.1844]","[0.04299999999999993,0.16060000000000008,-0.6628000000000001]",-100.7999878,-34.40002441,1,0,0,response5disk,-3.200012207,5.600006104,1,0,0,rectangle,-3.200012207,5.600006104,1,0,0,,2,9.99999E-05,0,-3.200012207,5.600006104,1,0,0,0,1,1,47,1,47,first,,,,,,,,,,,,,,,,,,,,,,,,,,,,,,,,,,,,,,,,,,,,,,,,,,,,,,,,,,,,,,,,,,,,,,,,
,,,,,,60f4357cca3a9867c33ca65b,62c53bb912f839c363f3eed2,2022-07-06_09h39.53.905,Colour_Asymmetry_Pilot,2022.1.3,Win32,59.9880024,62c50e9c1127f2cd403a315f,,,,,,,,,,,,,,,,,,,,threefour,,1,0.834,,,,,,,,,,,,,,,,,,,,,,,,,,,,,,,,,,"[-0.48240000000000005,0.3175999999999999,0.2156]","[-0.4668,-0.8746,-0.2942]",45.60003662,-96.79998779,1,0,0,response3disk,-7.200012207,8.799987793,1,0,0,rectangle,-7.200012207,8.799987793,1,0,0,,1,0.0015,0,-7.200012207,8.799987793,1,0,0,0,2,2,67,1,67,first,,,,,,,,,,,,,,,,,,,,,,,,,,,,,,,,,,,,,,,,,,,,,,,,,,,,,,,,,,,,,,,,,,,,,,,,
,,,,,,60f4357cca3a9867c33ca65b,62c53bb912f839c363f3eed2,2022-07-06_09h39.53.905,Colour_Asymmetry_Pilot,2022.1.3,Win32,59.9880024,62c50e9c1127f2cd403a315f,,,,,,,,,,,,,,,,,,,,threefour,,3,1.8341,,,,,,,,,,,,,,,,,,,,,,,,,,,,,,,,,,"[-0.10599999999999998,-0.10599999999999998,0.5841999999999998]","[-0.9296,-0.12959999999999994,-0.043199999999999905]",108,64.79998779,1,0,0,response1disk,0.799987793,-4,1,0,0,rectangle,0.799987793,-4,1,0,0,,2,0.0007,0,0.799987793,-4,1,0,0,0,3,3,81,1,0,second,,,,,,,,,,,,,,,,,,,,,,,,,,,,,,,,,,,,,,,,,,,,,,,,,,,,,,,,,,,,,,,,,,,,,,,,
,,,,,,60f4357cca3a9867c33ca65b,62c53bb912f839c363f3eed2,2022-07-06_09h39.53.905,Colour_Asymmetry_Pilot,2022.1.3,Win32,59.9880024,62c50e9c1127f2cd403a315f,,,,,,,,,,,,,,,,,,,,onetwo,,4,0.4835,,,,,,,,,,,,,,,,,,,,,,,,,,,,,,,,,,"[0.23120000000000007,-0.7726,-0.34120000000000006]","[-0.26280000000000003,-0.2158,-0.3256]",52,124,1,0,0,response1disk,-1.599975586,-5.600006104,1,0,0,rectangle,-1.599975586,-5.600006104,1,0,0,,3,0.0007,0,-1.599975586,-5.600006104,1,0,0,0,4,4,94,1,13,second,,,,,,,,,,,,,,,,,,,,,,,,,,,,,,,,,,,,,,,,,,,,,,,,,,,,,,,,,,,,,,,,,,,,,,,,
,,,,,,60f4357cca3a9867c33ca65b,62c53bb912f839c363f3eed2,2022-07-06_09h39.53.905,Colour_Asymmetry_Pilot,2022.1.3,Win32,59.9880024,62c50e9c1127f2cd403a315f,,,,,,,,,,,,,,,,,,,,fourthree,,3,1.0499,,,,,,,,,,,,,,,,,,,,,,,,,,,,,,,,,,"[-0.9138,-0.5296000000000001,-0.5529999999999999]","[-0.4668,-0.8746,-0.2942]",100.7999878,36.79998779,1,0,0,response1disk,2.400024414,-2.399993896,1,0,0,rectangle,2.400024414,-2.399993896,1,0,0,,1,0.0007,0,2.400024414,-2.399993896,1,0,0,0,5,5,118,1,37,second,,,,,,,,,,,,,,,,,,,,,,,,,,,,,,,,,,,,,,,,,,,,,,,,,,,,,,,,,,,,,,,,,,,,,,,,
,,,,,,60f4357cca3a9867c33ca65b,62c53bb912f839c363f3eed2,2022-07-06_09h39.53.905,Colour_Asymmetry_Pilot,2022.1.3,Win32,59.9880024,62c50e9c1127f2cd403a315f,,,,,,,,,,,,,,,,,,,,onetwo,,3,1.3679,,,,,,,,,,,,,,,,,,,,,,,,,,,,,,,,,,"[-0.9216,-0.5529999999999999,-0.3962]","[-0.4982,-0.2942,-0.0354000000000001]",100,52.79998779,1,0,0,response1disk,12.79998779,2.399993896,1,0,0,rectangle,12.79998779,2.399993896,1,0,0,,3,0.0007,0,12.79998779,2.399993896,1,0,0,0,6,6,52,1,52,first,,,,,,,,,,,,,,,,,,,,,,,,,,,,,,,,,,,,,,,,,,,,,,,,,,,,,,,,,,,,,,,,,,,,,,,,
,,,,,,60f4357cca3a9867c33ca65b,62c53bb912f839c363f3eed2,2022-07-06_09h39.53.905,Colour_Asymmetry_Pilot,2022.1.3,Win32,59.9880024,62c50e9c1127f2cd403a315f,,,,,,,,,,,,,,,,,,,,onethree,,2,0.5507,,,,,,,,,,,,,,,,,,,,,,,,,,,,,,,,,,"[-0.9296,-0.12959999999999994,-0.043199999999999905]","[-0.10599999999999998,-0.10599999999999998,0.5841999999999998]",91.20001221,-50.40002441,1,0,0,response3disk,23.20001221,-1.600006104,1,0,0,rectangle,23.20001221,-1.600006104,1,0,0,,3,0.0003,0,23.20001221,-1.600006104,1,0,0,0,7,7,0,1,0,first,,,,,,,,,,,,,,,,,,,,,,,,,,,,,,,,,,,,,,,,,,,,,,,,,,,,,,,,,,,,,,,,,,,,,,,,
,,,,,,60f4357cca3a9867c33ca65b,62c53bb912f839c363f3eed2,2022-07-06_09h39.53.905,Colour_Asymmetry_Pilot,2022.1.3,Win32,59.9880024,62c50e9c1127f2cd403a315f,,,,,,,,,,,,,,,,,,,,twofour,,-4,0.6665,,,,,,,,,,,,,,,,,,,,,,,,,,,,,,,,,,"[-0.2942,-0.7648,-0.7492000000000001]","[0.9372,0.9450000000000001,0.8980000000000001]",-41.59997559,106.3999939,1,0,0,response7disk,15.20001221,-6.399993896,1,0,0,rectangle,15.20001221,-6.399993896,1,0,0,,1,0.0006,0,15.20001221,-6.399993896,1,0,0,0,8,8,101,1,20,second,,,,,,,,,,,,,,,,,,,,,,,,,,,,,,,,,,,,,,,,,,,,,,,,,,,,,,,,,,,,,,,,,,,,,,,,
,,,,,,60f4357cca3a9867c33ca65b,62c53bb912f839c363f3eed2,2022-07-06_09h39.53.905,Colour_Asymmetry_Pilot,2022.1.3,Win32,59.9880024,62c50e9c1127f2cd403a315f,,,,,,,,,,,,,,,,,,,,twofour,,-2,0.7175,,,,,,,,,,,,,,,,,,,,,,,,,,,,,,,,,,"[0.34099999999999997,0.12939999999999996,-0.9766]","[0.2862,0.7802,0.3568]",-117.5999756,-48,1,0,0,response5disk,7.200012207,5.600006104,1,0,0,rectangle,7.200012207,5.600006104,1,0,0,,3,0.0006,0,7.200012207,5.600006104,1,0,0,0,9,9,45,1,45,first,,,,,,,,,,,,,,,,,,,,,,,,,,,,,,,,,,,,,,,,,,,,,,,,,,,,,,,,,,,,,,,,,,,,,,,,
,,,,,,60f4357cca3a9867c33ca65b,62c53bb912f839c363f3eed2,2022-07-06_09h39.53.905,Colour_Asymmetry_Pilot,2022.1.3,Win32,59.9880024,62c50e9c1127f2cd403a315f,,,,,,,,,,,,,,,,,,,,onetwo,,2,2.1514,,,,,,,,,,,,,,,,,,,,,,,,,,,,,,,,,,"[0.5528,0.7409999999999999,-0.71]","[0.3568,-0.20799999999999996,-0.9844]",93.60003662,-43.20001221,1,0,0,response3disk,5.600036621,2.399993896,1,0,0,rectangle,5.600036621,2.399993896,1,0,0,,3,0.0004,0,5.600036621,2.399993896,1,0,0,0,10,10,54,1,54,first,,,,,,,,,,,,,,,,,,,,,,,,,,,,,,,,,,,,,,,,,,,,,,,,,,,,,,,,,,,,,,,,,,,,,,,,
,,,,,,60f4357cca3a9867c33ca65b,62c53bb912f839c363f3eed2,2022-07-06_09h39.53.905,Colour_Asymmetry_Pilot,2022.1.3,Win32,59.9880024,62c50e9c1127f2cd403a315f,,,,,,,,,,,,,,,,,,,,onetwo,,-2,1.7016,,,,,,,,,,,,,,,,,,,,,,,,,,,,,,,,,,"[-0.01980000000000004,-0.5138,-0.38039999999999996]","[-0.5452,-0.608,0.2470000000000001]",-93.59997559,-52,1,0,0,response5disk,8,3.199981689,1,0,0,rectangle,8,3.199981689,1,0,0,,2,0.0007,0,8,3.199981689,1,0,0,0,11,11,9,1,9,first,,,,,,,,,,,,,,,,,,,,,,,,,,,,,,,,,,,,,,,,,,,,,,,,,,,,,,,,,,,,,,,,,,,,,,,,
,,,,,,60f4357cca3a9867c33ca65b,62c53bb912f839c363f3eed2,2022-07-06_09h39.53.905,Colour_Asymmetry_Pilot,2022.1.3,Win32,59.9880024,62c50e9c1127f2cd403a315f,,,,,,,,,,,,,,,,,,,,threefour,,-3,0.6342,,,,,,,,,,,,,,,,,,,,,,,,,,,,,,,,,,"[0.2862,0.7802,0.3568]","[-0.9766,-0.6472,0.07440000000000002]",-102.3999634,32,1,0,0,response7disk,11.20001221,6.399993896,1,0,0,rectangle,11.20001221,6.399993896,1,0,0,,3,0.0007,0,11.20001221,6.399993896,1,0,0,0,12,12,86,1,5,second,,,,,,,,,,,,,,,,,,,,,,,,,,,,,,,,,,,,,,,,,,,,,,,,,,,,,,,,,,,,,,,,,,,,,,,,
,,,,,,60f4357cca3a9867c33ca65b,62c53bb912f839c363f3eed2,2022-07-06_09h39.53.905,Colour_Asymmetry_Pilot,2022.1.3,Win32,59.9880024,62c50e9c1127f2cd403a315f,,,,,,,,,,,,,,,,,,,,twofour,,-3,1.3002,,,,,,,,,,,,,,,,,,,,,,,,,,,,,,,,,,"[-0.07459999999999989,0.12139999999999995,-0.9922]","[0.2862,0.7802,0.3568]",-92.79998779,36.79998779,1,0,0,response7disk,32,-8,1,0,0,rectangle,32,-8,1,0,0,,1,0.0009,0,32,-8,1,0,0,0,13,13,44,1,44,first,,,,,,,,,,,,,,,,,,,,,,,,,,,,,,,,,,,,,,,,,,,,,,,,,,,,,,,,,,,,,,,,,,,,,,,,
,,,,,,60f4357cca3a9867c33ca65b,62c53bb912f839c363f3eed2,2022-07-06_09h39.53.905,Colour_Asymmetry_Pilot,2022.1.3,Win32,59.9880024,62c50e9c1127f2cd403a315f,,,,,,,,,,,,,,,,,,,,threeone,,-2,0.6506,,,,,,,,,,,,,,,,,,,,,,,,,,,,,,,,,,"[-0.5452,-0.608,0.2470000000000001]","[-0.01980000000000004,-0.5138,-0.38039999999999996]",-84,-51.20001221,1,0,0,response5disk,8,-16.80001831,1,0,0,rectangle,8,-16.80001831,1,0,0,,3,0.0008,0,8,-16.80001831,1,0,0,0,14,14,90,1,9,second,,,,,,,,,,,,,,,,,,,,,,,,,,,,,,,,,,,,,,,,,,,,,,,,,,,,,,,,,,,,,,,,,,,,,,,,
,,,,,,60f4357cca3a9867c33ca65b,62c53bb912f839c363f3eed2,2022-07-06_09h39.53.905,Colour_Asymmetry_Pilot,2022.1.3,Win32,59.9880024,62c50e9c1127f2cd403a315f,,,,,,,,,,,,,,,,,,,,threeone,,-2,0.7239,,,,,,,,,,,,,,,,,,,,,,,,,,,,,,,,,,"[-0.2942,-0.24719999999999998,-0.357]","[0.04299999999999993,0.16060000000000008,-0.6628000000000001]",-93.59997559,-54.40002441,1,0,0,response5disk,-9.599975586,-7.200012207,1,0,0,rectangle,-9.599975586,-7.200012207,1,0,0,,1,0.0005,0,-9.599975586,-7.200012207,1,0,0,0,15,15,111,1,30,second,,,,,,,,,,,,,,,,,,,,,,,,,,,,,,,,,,,,,,,,,,,,,,,,,,,,,,,,,,,,,,,,,,,,,,,,
