trials.thisRepN,trials.thisTrialN,trials.thisN,trials.thisIndex,trials.ran,Colourcodes,participant,session,date,expName,psychopyVersion,OS,frameRate,study_id,trials_4.thisRepN,trials_4.thisTrialN,trials_4.thisN,trials_4.thisIndex,trials_4.ran,StimulusPos,key_resp.keys,key_resp.rt,key_resp_2.keys,key_resp_2.rt,key_resp_15.keys,key_resp_15.rt,key_resp_17.keys,key_resp_17.rt,key_resp_9.keys,key_resp_9.rt,key_resp_10.keys,key_resp_10.rt,Circle1_col,Ecc,Circle2_col,similarity,response_time,mouse_5.x,mouse_5.y,mouse_5.leftButton,mouse_5.midButton,mouse_5.rightButton,mouse_5.clicked_name,mouse_10.x,mouse_10.y,mouse_10.leftButton,mouse_10.midButton,mouse_10.rightButton,mouse_10.clicked_name,mouse_7.x,mouse_7.y,mouse_7.leftButton,mouse_7.midButton,mouse_7.rightButton,mouse_7.clicked_name,catchprac,catchnumberprac,mouse_6.x,mouse_6.y,mouse_6.leftButton,mouse_6.midButton,mouse_6.rightButton,mouse_6.clicked_name,duringprac.thisRepN,duringprac.thisTrialN,duringprac.thisN,duringprac.thisIndex,duringprac.ran,key_resp_22.keys,key_resp_22.rt,Circle1_colour,Circle2_colour,mouse.x,mouse.y,mouse.leftButton,mouse.midButton,mouse.rightButton,mouse.clicked_name,mouse_2.x,mouse_2.y,mouse_2.leftButton,mouse_2.midButton,mouse_2.rightButton,mouse_2.clicked_name,mouse_3.x,mouse_3.y,mouse_3.leftButton,mouse_3.midButton,mouse_3.rightButton,catchresponse,catchnumber,response_time_catch,Catch,mouse_11.x,mouse_11.y,mouse_11.leftButton,mouse_11.midButton,mouse_11.rightButton,trials_2.thisRepN,trials_2.thisTrialN,trials_2.thisN,trials_2.thisIndex,trials_2.ran,Colourpair,Temporder,mouse_3.clicked_name,mouse_11.clicked_name,trials_3.thisRepN,trials_3.thisTrialN,trials_3.thisN,trials_3.thisIndex,trials_3.ran,key_resp_instr_Ishi.keys,key_resp_instr_Ishi.rt,Ishi_trial_keyresp.keys,Ishi_textbox.text,Ishi_mouse.x,Ishi_mouse.y,Ishi_mouse.leftButton,Ishi_mouse.midButton,Ishi_mouse.rightButton,Ishi_mouse.clicked_name,Ishi_loop.thisRepN,Ishi_loop.thisTrialN,Ishi_loop.thisN,Ishi_loop.thisIndex,Ishi_loop.ran,imageaddress,textbox.text,mouse_4.x,mouse_4.y,mouse_4.leftButton,mouse_4.midButton,mouse_4.rightButton,mouse_4.clicked_name,textbox_2.text,mouse_8.x,mouse_8.y,mouse_8.leftButton,mouse_8.midButton,mouse_8.rightButton,mouse_8.clicked_name,textbox_3.text,mouse_9.x,mouse_9.y,mouse_9.leftButton,mouse_9.midButton,mouse_9.rightButton,mouse_9.clicked_name,textbox_4.text,mouse_12.x,mouse_12.y,mouse_12.leftButton,mouse_12.midButton,mouse_12.rightButton,mouse_12.clicked_name,textbox_5.text,mouse_13.x,mouse_13.y,mouse_13.leftButton,mouse_13.midButton,mouse_13.rightButton,mouse_13.clicked_name,textbox_6.text,mouse_14.x,mouse_14.y,mouse_14.leftButton,mouse_14.midButton,mouse_14.rightButton,mouse_14.clicked_name,textbox_7.text,mouse_15.x,mouse_15.y,mouse_15.leftButton,mouse_15.midButton,mouse_15.rightButton,mouse_15.clicked_name
0,0,0,44,1,,60dc2b51b0c4eaa32e391d87,62c53a3858c7705bdcbb4b37,2022-07-06_09h33.06.177,Colour_Asymmetry_Pilot,2022.1.3,Win32,144.092219,62c50e9c1127f2cd403a315f,,,,,,,,,,,,,,,,,,,,,,,,,,,,,,,,,,,,,,,,,,,,,,,,,,,,,,,,,,,,,,,,,,,,,,,,,,,,,,,,,,,,,,,,,,,,,,,,,,,,,,,,,,,,,,,,,,,,,,,,,,,,,,,,,,,,,,,,,,,,,,,,,,,,,,,,,,,,,,,,,,,
0,1,1,42,1,,60dc2b51b0c4eaa32e391d87,62c53a3858c7705bdcbb4b37,2022-07-06_09h33.06.177,Colour_Asymmetry_Pilot,2022.1.3,Win32,144.092219,62c50e9c1127f2cd403a315f,,,,,,,,,,,,,,,,,,,,,,,,,,,,,,,,,,,,,,,,,,,,,,,,,,,,,,,,,,,,,,,,,,,,,,,,,,,,,,,,,,,,,,,,,,,,,,,,,,,,,,,,,,,,,,,,,,,,,,,,,,,,,,,,,,,,,,,,,,,,,,,,,,,,,,,,,,,,,,,,,,,
0,2,2,31,1,,60dc2b51b0c4eaa32e391d87,62c53a3858c7705bdcbb4b37,2022-07-06_09h33.06.177,Colour_Asymmetry_Pilot,2022.1.3,Win32,144.092219,62c50e9c1127f2cd403a315f,,,,,,,,,,,,,,,,,,,,,,,,,,,,,,,,,,,,,,,,,,,,,,,,,,,,,,,,,,,,,,,,,,,,,,,,,,,,,,,,,,,,,,,,,,,,,,,,,,,,,,,,,,,,,,,,,,,,,,,,,,,,,,,,,,,,,,,,,,,,,,,,,,,,,,,,,,,,,,,,,,,
0,3,3,66,1,,60dc2b51b0c4eaa32e391d87,62c53a3858c7705bdcbb4b37,2022-07-06_09h33.06.177,Colour_Asymmetry_Pilot,2022.1.3,Win32,144.092219,62c50e9c1127f2cd403a315f,,,,,,,,,,,,,,,,,,,,,,,,,,,,,,,,,,,,,,,,,,,,,,,,,,,,,,,,,,,,,,,,,,,,,,,,,,,,,,,,,,,,,,,,,,,,,,,,,,,,,,,,,,,,,,,,,,,,,,,,,,,,,,,,,,,,,,,,,,,,,,,,,,,,,,,,,,,,,,,,,,,
0,4,4,91,1,,60dc2b51b0c4eaa32e391d87,62c53a3858c7705bdcbb4b37,2022-07-06_09h33.06.177,Colour_Asymmetry_Pilot,2022.1.3,Win32,144.092219,62c50e9c1127f2cd403a315f,,,,,,,,,,,,,,,,,,,,,,,,,,,,,,,,,,,,,,,,,,,,,,,,,,,,,,,,,,,,,,,,,,,,,,,,,,,,,,,,,,,,,,,,,,,,,,,,,,,,,,,,,,,,,,,,,,,,,,,,,,,,,,,,,,,,,,,,,,,,,,,,,,,,,,,,,,,,,,,,,,,
0,5,5,56,1,,60dc2b51b0c4eaa32e391d87,62c53a3858c7705bdcbb4b37,2022-07-06_09h33.06.177,Colour_Asymmetry_Pilot,2022.1.3,Win32,144.092219,62c50e9c1127f2cd403a315f,,,,,,,,,,,,,,,,,,,,,,,,,,,,,,,,,,,,,,,,,,,,,,,,,,,,,,,,,,,,,,,,,,,,,,,,,,,,,,,,,,,,,,,,,,,,,,,,,,,,,,,,,,,,,,,,,,,,,,,,,,,,,,,,,,,,,,,,,,,,,,,,,,,,,,,,,,,,,,,,,,,
0,6,6,41,1,,60dc2b51b0c4eaa32e391d87,62c53a3858c7705bdcbb4b37,2022-07-06_09h33.06.177,Colour_Asymmetry_Pilot,2022.1.3,Win32,144.092219,62c50e9c1127f2cd403a315f,,,,,,,,,,,,,,,,,,,,,,,,,,,,,,,,,,,,,,,,,,,,,,,,,,,,,,,,,,,,,,,,,,,,,,,,,,,,,,,,,,,,,,,,,,,,,,,,,,,,,,,,,,,,,,,,,,,,,,,,,,,,,,,,,,,,,,,,,,,,,,,,,,,,,,,,,,,,,,,,,,,
0,7,7,7,1,,60dc2b51b0c4eaa32e391d87,62c53a3858c7705bdcbb4b37,2022-07-06_09h33.06.177,Colour_Asymmetry_Pilot,2022.1.3,Win32,144.092219,62c50e9c1127f2cd403a315f,,,,,,,,,,,,,,,,,,,,,,,,,,,,,,,,,,,,,,,,,,,,,,,,,,,,,,,,,,,,,,,,,,,,,,,,,,,,,,,,,,,,,,,,,,,,,,,,,,,,,,,,,,,,,,,,,,,,,,,,,,,,,,,,,,,,,,,,,,,,,,,,,,,,,,,,,,,,,,,,,,,
0,8,8,55,1,,60dc2b51b0c4eaa32e391d87,62c53a3858c7705bdcbb4b37,2022-07-06_09h33.06.177,Colour_Asymmetry_Pilot,2022.1.3,Win32,144.092219,62c50e9c1127f2cd403a315f,,,,,,,,,,,,,,,,,,,,,,,,,,,,,,,,,,,,,,,,,,,,,,,,,,,,,,,,,,,,,,,,,,,,,,,,,,,,,,,,,,,,,,,,,,,,,,,,,,,,,,,,,,,,,,,,,,,,,,,,,,,,,,,,,,,,,,,,,,,,,,,,,,,,,,,,,,,,,,,,,,,
0,9,9,18,1,,60dc2b51b0c4eaa32e391d87,62c53a3858c7705bdcbb4b37,2022-07-06_09h33.06.177,Colour_Asymmetry_Pilot,2022.1.3,Win32,144.092219,62c50e9c1127f2cd403a315f,,,,,,,,,,,,,,,,,,,,,,,,,,,,,,,,,,,,,,,,,,,,,,,,,,,,,,,,,,,,,,,,,,,,,,,,,,,,,,,,,,,,,,,,,,,,,,,,,,,,,,,,,,,,,,,,,,,,,,,,,,,,,,,,,,,,,,,,,,,,,,,,,,,,,,,,,,,,,,,,,,,
0,10,10,24,1,,60dc2b51b0c4eaa32e391d87,62c53a3858c7705bdcbb4b37,2022-07-06_09h33.06.177,Colour_Asymmetry_Pilot,2022.1.3,Win32,144.092219,62c50e9c1127f2cd403a315f,,,,,,,,,,,,,,,,,,,,,,,,,,,,,,,,,,,,,,,,,,,,,,,,,,,,,,,,,,,,,,,,,,,,,,,,,,,,,,,,,,,,,,,,,,,,,,,,,,,,,,,,,,,,,,,,,,,,,,,,,,,,,,,,,,,,,,,,,,,,,,,,,,,,,,,,,,,,,,,,,,,
0,11,11,53,1,,60dc2b51b0c4eaa32e391d87,62c53a3858c7705bdcbb4b37,2022-07-06_09h33.06.177,Colour_Asymmetry_Pilot,2022.1.3,Win32,144.092219,62c50e9c1127f2cd403a315f,,,,,,,,,,,,,,,,,,,,,,,,,,,,,,,,,,,,,,,,,,,,,,,,,,,,,,,,,,,,,,,,,,,,,,,,,,,,,,,,,,,,,,,,,,,,,,,,,,,,,,,,,,,,,,,,,,,,,,,,,,,,,,,,,,,,,,,,,,,,,,,,,,,,,,,,,,,,,,,,,,,
0,12,12,29,1,,60dc2b51b0c4eaa32e391d87,62c53a3858c7705bdcbb4b37,2022-07-06_09h33.06.177,Colour_Asymmetry_Pilot,2022.1.3,Win32,144.092219,62c50e9c1127f2cd403a315f,,,,,,,,,,,,,,,,,,,,,,,,,,,,,,,,,,,,,,,,,,,,,,,,,,,,,,,,,,,,,,,,,,,,,,,,,,,,,,,,,,,,,,,,,,,,,,,,,,,,,,,,,,,,,,,,,,,,,,,,,,,,,,,,,,,,,,,,,,,,,,,,,,,,,,,,,,,,,,,,,,,
0,13,13,68,1,,60dc2b51b0c4eaa32e391d87,62c53a3858c7705bdcbb4b37,2022-07-06_09h33.06.177,Colour_Asymmetry_Pilot,2022.1.3,Win32,144.092219,62c50e9c1127f2cd403a315f,,,,,,,,,,,,,,,,,,,,,,,,,,,,,,,,,,,,,,,,,,,,,,,,,,,,,,,,,,,,,,,,,,,,,,,,,,,,,,,,,,,,,,,,,,,,,,,,,,,,,,,,,,,,,,,,,,,,,,,,,,,,,,,,,,,,,,,,,,,,,,,,,,,,,,,,,,,,,,,,,,,
0,14,14,23,1,,60dc2b51b0c4eaa32e391d87,62c53a3858c7705bdcbb4b37,2022-07-06_09h33.06.177,Colour_Asymmetry_Pilot,2022.1.3,Win32,144.092219,62c50e9c1127f2cd403a315f,,,,,,,,,,,,,,,,,,,,,,,,,,,,,,,,,,,,,,,,,,,,,,,,,,,,,,,,,,,,,,,,,,,,,,,,,,,,,,,,,,,,,,,,,,,,,,,,,,,,,,,,,,,,,,,,,,,,,,,,,,,,,,,,,,,,,,,,,,,,,,,,,,,,,,,,,,,,,,,,,,,
0,15,15,33,1,,60dc2b51b0c4eaa32e391d87,62c53a3858c7705bdcbb4b37,2022-07-06_09h33.06.177,Colour_Asymmetry_Pilot,2022.1.3,Win32,144.092219,62c50e9c1127f2cd403a315f,,,,,,,,,,,,,,,,,,,,,,,,,,,,,,,,,,,,,,,,,,,,,,,,,,,,,,,,,,,,,,,,,,,,,,,,,,,,,,,,,,,,,,,,,,,,,,,,,,,,,,,,,,,,,,,,,,,,,,,,,,,,,,,,,,,,,,,,,,,,,,,,,,,,,,,,,,,,,,,,,,,
0,16,16,46,1,,60dc2b51b0c4eaa32e391d87,62c53a3858c7705bdcbb4b37,2022-07-06_09h33.06.177,Colour_Asymmetry_Pilot,2022.1.3,Win32,144.092219,62c50e9c1127f2cd403a315f,,,,,,,,,,,,,,,,,,,,,,,,,,,,,,,,,,,,,,,,,,,,,,,,,,,,,,,,,,,,,,,,,,,,,,,,,,,,,,,,,,,,,,,,,,,,,,,,,,,,,,,,,,,,,,,,,,,,,,,,,,,,,,,,,,,,,,,,,,,,,,,,,,,,,,,,,,,,,,,,,,,
0,17,17,73,1,,60dc2b51b0c4eaa32e391d87,62c53a3858c7705bdcbb4b37,2022-07-06_09h33.06.177,Colour_Asymmetry_Pilot,2022.1.3,Win32,144.092219,62c50e9c1127f2cd403a315f,,,,,,,,,,,,,,,,,,,,,,,,,,,,,,,,,,,,,,,,,,,,,,,,,,,,,,,,,,,,,,,,,,,,,,,,,,,,,,,,,,,,,,,,,,,,,,,,,,,,,,,,,,,,,,,,,,,,,,,,,,,,,,,,,,,,,,,,,,,,,,,,,,,,,,,,,,,,,,,,,,,
0,18,18,47,1,,60dc2b51b0c4eaa32e391d87,62c53a3858c7705bdcbb4b37,2022-07-06_09h33.06.177,Colour_Asymmetry_Pilot,2022.1.3,Win32,144.092219,62c50e9c1127f2cd403a315f,,,,,,,,,,,,,,,,,,,,,,,,,,,,,,,,,,,,,,,,,,,,,,,,,,,,,,,,,,,,,,,,,,,,,,,,,,,,,,,,,,,,,,,,,,,,,,,,,,,,,,,,,,,,,,,,,,,,,,,,,,,,,,,,,,,,,,,,,,,,,,,,,,,,,,,,,,,,,,,,,,,
0,19,19,4,1,,60dc2b51b0c4eaa32e391d87,62c53a3858c7705bdcbb4b37,2022-07-06_09h33.06.177,Colour_Asymmetry_Pilot,2022.1.3,Win32,144.092219,62c50e9c1127f2cd403a315f,,,,,,,,,,,,,,,,,,,,,,,,,,,,,,,,,,,,,,,,,,,,,,,,,,,,,,,,,,,,,,,,,,,,,,,,,,,,,,,,,,,,,,,,,,,,,,,,,,,,,,,,,,,,,,,,,,,,,,,,,,,,,,,,,,,,,,,,,,,,,,,,,,,,,,,,,,,,,,,,,,,
0,20,20,49,1,,60dc2b51b0c4eaa32e391d87,62c53a3858c7705bdcbb4b37,2022-07-06_09h33.06.177,Colour_Asymmetry_Pilot,2022.1.3,Win32,144.092219,62c50e9c1127f2cd403a315f,,,,,,,,,,,,,,,,,,,,,,,,,,,,,,,,,,,,,,,,,,,,,,,,,,,,,,,,,,,,,,,,,,,,,,,,,,,,,,,,,,,,,,,,,,,,,,,,,,,,,,,,,,,,,,,,,,,,,,,,,,,,,,,,,,,,,,,,,,,,,,,,,,,,,,,,,,,,,,,,,,,
0,21,21,19,1,,60dc2b51b0c4eaa32e391d87,62c53a3858c7705bdcbb4b37,2022-07-06_09h33.06.177,Colour_Asymmetry_Pilot,2022.1.3,Win32,144.092219,62c50e9c1127f2cd403a315f,,,,,,,,,,,,,,,,,,,,,,,,,,,,,,,,,,,,,,,,,,,,,,,,,,,,,,,,,,,,,,,,,,,,,,,,,,,,,,,,,,,,,,,,,,,,,,,,,,,,,,,,,,,,,,,,,,,,,,,,,,,,,,,,,,,,,,,,,,,,,,,,,,,,,,,,,,,,,,,,,,,
0,22,22,30,1,,60dc2b51b0c4eaa32e391d87,62c53a3858c7705bdcbb4b37,2022-07-06_09h33.06.177,Colour_Asymmetry_Pilot,2022.1.3,Win32,144.092219,62c50e9c1127f2cd403a315f,,,,,,,,,,,,,,,,,,,,,,,,,,,,,,,,,,,,,,,,,,,,,,,,,,,,,,,,,,,,,,,,,,,,,,,,,,,,,,,,,,,,,,,,,,,,,,,,,,,,,,,,,,,,,,,,,,,,,,,,,,,,,,,,,,,,,,,,,,,,,,,,,,,,,,,,,,,,,,,,,,,
0,23,23,20,1,,60dc2b51b0c4eaa32e391d87,62c53a3858c7705bdcbb4b37,2022-07-06_09h33.06.177,Colour_Asymmetry_Pilot,2022.1.3,Win32,144.092219,62c50e9c1127f2cd403a315f,,,,,,,,,,,,,,,,,,,,,,,,,,,,,,,,,,,,,,,,,,,,,,,,,,,,,,,,,,,,,,,,,,,,,,,,,,,,,,,,,,,,,,,,,,,,,,,,,,,,,,,,,,,,,,,,,,,,,,,,,,,,,,,,,,,,,,,,,,,,,,,,,,,,,,,,,,,,,,,,,,,
0,24,24,71,1,,60dc2b51b0c4eaa32e391d87,62c53a3858c7705bdcbb4b37,2022-07-06_09h33.06.177,Colour_Asymmetry_Pilot,2022.1.3,Win32,144.092219,62c50e9c1127f2cd403a315f,,,,,,,,,,,,,,,,,,,,,,,,,,,,,,,,,,,,,,,,,,,,,,,,,,,,,,,,,,,,,,,,,,,,,,,,,,,,,,,,,,,,,,,,,,,,,,,,,,,,,,,,,,,,,,,,,,,,,,,,,,,,,,,,,,,,,,,,,,,,,,,,,,,,,,,,,,,,,,,,,,,
0,25,25,10,1,,60dc2b51b0c4eaa32e391d87,62c53a3858c7705bdcbb4b37,2022-07-06_09h33.06.177,Colour_Asymmetry_Pilot,2022.1.3,Win32,144.092219,62c50e9c1127f2cd403a315f,,,,,,,,,,,,,,,,,,,,,,,,,,,,,,,,,,,,,,,,,,,,,,,,,,,,,,,,,,,,,,,,,,,,,,,,,,,,,,,,,,,,,,,,,,,,,,,,,,,,,,,,,,,,,,,,,,,,,,,,,,,,,,,,,,,,,,,,,,,,,,,,,,,,,,,,,,,,,,,,,,,
0,26,26,63,1,,60dc2b51b0c4eaa32e391d87,62c53a3858c7705bdcbb4b37,2022-07-06_09h33.06.177,Colour_Asymmetry_Pilot,2022.1.3,Win32,144.092219,62c50e9c1127f2cd403a315f,,,,,,,,,,,,,,,,,,,,,,,,,,,,,,,,,,,,,,,,,,,,,,,,,,,,,,,,,,,,,,,,,,,,,,,,,,,,,,,,,,,,,,,,,,,,,,,,,,,,,,,,,,,,,,,,,,,,,,,,,,,,,,,,,,,,,,,,,,,,,,,,,,,,,,,,,,,,,,,,,,,
0,27,27,14,1,,60dc2b51b0c4eaa32e391d87,62c53a3858c7705bdcbb4b37,2022-07-06_09h33.06.177,Colour_Asymmetry_Pilot,2022.1.3,Win32,144.092219,62c50e9c1127f2cd403a315f,,,,,,,,,,,,,,,,,,,,,,,,,,,,,,,,,,,,,,,,,,,,,,,,,,,,,,,,,,,,,,,,,,,,,,,,,,,,,,,,,,,,,,,,,,,,,,,,,,,,,,,,,,,,,,,,,,,,,,,,,,,,,,,,,,,,,,,,,,,,,,,,,,,,,,,,,,,,,,,,,,,
0,28,28,34,1,,60dc2b51b0c4eaa32e391d87,62c53a3858c7705bdcbb4b37,2022-07-06_09h33.06.177,Colour_Asymmetry_Pilot,2022.1.3,Win32,144.092219,62c50e9c1127f2cd403a315f,,,,,,,,,,,,,,,,,,,,,,,,,,,,,,,,,,,,,,,,,,,,,,,,,,,,,,,,,,,,,,,,,,,,,,,,,,,,,,,,,,,,,,,,,,,,,,,,,,,,,,,,,,,,,,,,,,,,,,,,,,,,,,,,,,,,,,,,,,,,,,,,,,,,,,,,,,,,,,,,,,,
0,29,29,80,1,,60dc2b51b0c4eaa32e391d87,62c53a3858c7705bdcbb4b37,2022-07-06_09h33.06.177,Colour_Asymmetry_Pilot,2022.1.3,Win32,144.092219,62c50e9c1127f2cd403a315f,,,,,,,,,,,,,,,,,,,,,,,,,,,,,,,,,,,,,,,,,,,,,,,,,,,,,,,,,,,,,,,,,,,,,,,,,,,,,,,,,,,,,,,,,,,,,,,,,,,,,,,,,,,,,,,,,,,,,,,,,,,,,,,,,,,,,,,,,,,,,,,,,,,,,,,,,,,,,,,,,,,
0,30,30,11,1,,60dc2b51b0c4eaa32e391d87,62c53a3858c7705bdcbb4b37,2022-07-06_09h33.06.177,Colour_Asymmetry_Pilot,2022.1.3,Win32,144.092219,62c50e9c1127f2cd403a315f,,,,,,,,,,,,,,,,,,,,,,,,,,,,,,,,,,,,,,,,,,,,,,,,,,,,,,,,,,,,,,,,,,,,,,,,,,,,,,,,,,,,,,,,,,,,,,,,,,,,,,,,,,,,,,,,,,,,,,,,,,,,,,,,,,,,,,,,,,,,,,,,,,,,,,,,,,,,,,,,,,,
0,31,31,35,1,,60dc2b51b0c4eaa32e391d87,62c53a3858c7705bdcbb4b37,2022-07-06_09h33.06.177,Colour_Asymmetry_Pilot,2022.1.3,Win32,144.092219,62c50e9c1127f2cd403a315f,,,,,,,,,,,,,,,,,,,,,,,,,,,,,,,,,,,,,,,,,,,,,,,,,,,,,,,,,,,,,,,,,,,,,,,,,,,,,,,,,,,,,,,,,,,,,,,,,,,,,,,,,,,,,,,,,,,,,,,,,,,,,,,,,,,,,,,,,,,,,,,,,,,,,,,,,,,,,,,,,,,
0,32,32,62,1,,60dc2b51b0c4eaa32e391d87,62c53a3858c7705bdcbb4b37,2022-07-06_09h33.06.177,Colour_Asymmetry_Pilot,2022.1.3,Win32,144.092219,62c50e9c1127f2cd403a315f,,,,,,,,,,,,,,,,,,,,,,,,,,,,,,,,,,,,,,,,,,,,,,,,,,,,,,,,,,,,,,,,,,,,,,,,,,,,,,,,,,,,,,,,,,,,,,,,,,,,,,,,,,,,,,,,,,,,,,,,,,,,,,,,,,,,,,,,,,,,,,,,,,,,,,,,,,,,,,,,,,,
0,33,33,89,1,,60dc2b51b0c4eaa32e391d87,62c53a3858c7705bdcbb4b37,2022-07-06_09h33.06.177,Colour_Asymmetry_Pilot,2022.1.3,Win32,144.092219,62c50e9c1127f2cd403a315f,,,,,,,,,,,,,,,,,,,,,,,,,,,,,,,,,,,,,,,,,,,,,,,,,,,,,,,,,,,,,,,,,,,,,,,,,,,,,,,,,,,,,,,,,,,,,,,,,,,,,,,,,,,,,,,,,,,,,,,,,,,,,,,,,,,,,,,,,,,,,,,,,,,,,,,,,,,,,,,,,,,
0,34,34,16,1,,60dc2b51b0c4eaa32e391d87,62c53a3858c7705bdcbb4b37,2022-07-06_09h33.06.177,Colour_Asymmetry_Pilot,2022.1.3,Win32,144.092219,62c50e9c1127f2cd403a315f,,,,,,,,,,,,,,,,,,,,,,,,,,,,,,,,,,,,,,,,,,,,,,,,,,,,,,,,,,,,,,,,,,,,,,,,,,,,,,,,,,,,,,,,,,,,,,,,,,,,,,,,,,,,,,,,,,,,,,,,,,,,,,,,,,,,,,,,,,,,,,,,,,,,,,,,,,,,,,,,,,,
0,35,35,92,1,,60dc2b51b0c4eaa32e391d87,62c53a3858c7705bdcbb4b37,2022-07-06_09h33.06.177,Colour_Asymmetry_Pilot,2022.1.3,Win32,144.092219,62c50e9c1127f2cd403a315f,,,,,,,,,,,,,,,,,,,,,,,,,,,,,,,,,,,,,,,,,,,,,,,,,,,,,,,,,,,,,,,,,,,,,,,,,,,,,,,,,,,,,,,,,,,,,,,,,,,,,,,,,,,,,,,,,,,,,,,,,,,,,,,,,,,,,,,,,,,,,,,,,,,,,,,,,,,,,,,,,,,
0,36,36,28,1,,60dc2b51b0c4eaa32e391d87,62c53a3858c7705bdcbb4b37,2022-07-06_09h33.06.177,Colour_Asymmetry_Pilot,2022.1.3,Win32,144.092219,62c50e9c1127f2cd403a315f,,,,,,,,,,,,,,,,,,,,,,,,,,,,,,,,,,,,,,,,,,,,,,,,,,,,,,,,,,,,,,,,,,,,,,,,,,,,,,,,,,,,,,,,,,,,,,,,,,,,,,,,,,,,,,,,,,,,,,,,,,,,,,,,,,,,,,,,,,,,,,,,,,,,,,,,,,,,,,,,,,,
0,37,37,70,1,,60dc2b51b0c4eaa32e391d87,62c53a3858c7705bdcbb4b37,2022-07-06_09h33.06.177,Colour_Asymmetry_Pilot,2022.1.3,Win32,144.092219,62c50e9c1127f2cd403a315f,,,,,,,,,,,,,,,,,,,,,,,,,,,,,,,,,,,,,,,,,,,,,,,,,,,,,,,,,,,,,,,,,,,,,,,,,,,,,,,,,,,,,,,,,,,,,,,,,,,,,,,,,,,,,,,,,,,,,,,,,,,,,,,,,,,,,,,,,,,,,,,,,,,,,,,,,,,,,,,,,,,
0,38,38,2,1,,60dc2b51b0c4eaa32e391d87,62c53a3858c7705bdcbb4b37,2022-07-06_09h33.06.177,Colour_Asymmetry_Pilot,2022.1.3,Win32,144.092219,62c50e9c1127f2cd403a315f,,,,,,,,,,,,,,,,,,,,,,,,,,,,,,,,,,,,,,,,,,,,,,,,,,,,,,,,,,,,,,,,,,,,,,,,,,,,,,,,,,,,,,,,,,,,,,,,,,,,,,,,,,,,,,,,,,,,,,,,,,,,,,,,,,,,,,,,,,,,,,,,,,,,,,,,,,,,,,,,,,,
0,39,39,67,1,,60dc2b51b0c4eaa32e391d87,62c53a3858c7705bdcbb4b37,2022-07-06_09h33.06.177,Colour_Asymmetry_Pilot,2022.1.3,Win32,144.092219,62c50e9c1127f2cd403a315f,,,,,,,,,,,,,,,,,,,,,,,,,,,,,,,,,,,,,,,,,,,,,,,,,,,,,,,,,,,,,,,,,,,,,,,,,,,,,,,,,,,,,,,,,,,,,,,,,,,,,,,,,,,,,,,,,,,,,,,,,,,,,,,,,,,,,,,,,,,,,,,,,,,,,,,,,,,,,,,,,,,
0,40,40,69,1,,60dc2b51b0c4eaa32e391d87,62c53a3858c7705bdcbb4b37,2022-07-06_09h33.06.177,Colour_Asymmetry_Pilot,2022.1.3,Win32,144.092219,62c50e9c1127f2cd403a315f,,,,,,,,,,,,,,,,,,,,,,,,,,,,,,,,,,,,,,,,,,,,,,,,,,,,,,,,,,,,,,,,,,,,,,,,,,,,,,,,,,,,,,,,,,,,,,,,,,,,,,,,,,,,,,,,,,,,,,,,,,,,,,,,,,,,,,,,,,,,,,,,,,,,,,,,,,,,,,,,,,,
0,41,41,77,1,,60dc2b51b0c4eaa32e391d87,62c53a3858c7705bdcbb4b37,2022-07-06_09h33.06.177,Colour_Asymmetry_Pilot,2022.1.3,Win32,144.092219,62c50e9c1127f2cd403a315f,,,,,,,,,,,,,,,,,,,,,,,,,,,,,,,,,,,,,,,,,,,,,,,,,,,,,,,,,,,,,,,,,,,,,,,,,,,,,,,,,,,,,,,,,,,,,,,,,,,,,,,,,,,,,,,,,,,,,,,,,,,,,,,,,,,,,,,,,,,,,,,,,,,,,,,,,,,,,,,,,,,
0,42,42,43,1,,60dc2b51b0c4eaa32e391d87,62c53a3858c7705bdcbb4b37,2022-07-06_09h33.06.177,Colour_Asymmetry_Pilot,2022.1.3,Win32,144.092219,62c50e9c1127f2cd403a315f,,,,,,,,,,,,,,,,,,,,,,,,,,,,,,,,,,,,,,,,,,,,,,,,,,,,,,,,,,,,,,,,,,,,,,,,,,,,,,,,,,,,,,,,,,,,,,,,,,,,,,,,,,,,,,,,,,,,,,,,,,,,,,,,,,,,,,,,,,,,,,,,,,,,,,,,,,,,,,,,,,,
0,43,43,61,1,,60dc2b51b0c4eaa32e391d87,62c53a3858c7705bdcbb4b37,2022-07-06_09h33.06.177,Colour_Asymmetry_Pilot,2022.1.3,Win32,144.092219,62c50e9c1127f2cd403a315f,,,,,,,,,,,,,,,,,,,,,,,,,,,,,,,,,,,,,,,,,,,,,,,,,,,,,,,,,,,,,,,,,,,,,,,,,,,,,,,,,,,,,,,,,,,,,,,,,,,,,,,,,,,,,,,,,,,,,,,,,,,,,,,,,,,,,,,,,,,,,,,,,,,,,,,,,,,,,,,,,,,
0,44,44,58,1,,60dc2b51b0c4eaa32e391d87,62c53a3858c7705bdcbb4b37,2022-07-06_09h33.06.177,Colour_Asymmetry_Pilot,2022.1.3,Win32,144.092219,62c50e9c1127f2cd403a315f,,,,,,,,,,,,,,,,,,,,,,,,,,,,,,,,,,,,,,,,,,,,,,,,,,,,,,,,,,,,,,,,,,,,,,,,,,,,,,,,,,,,,,,,,,,,,,,,,,,,,,,,,,,,,,,,,,,,,,,,,,,,,,,,,,,,,,,,,,,,,,,,,,,,,,,,,,,,,,,,,,,
0,45,45,86,1,,60dc2b51b0c4eaa32e391d87,62c53a3858c7705bdcbb4b37,2022-07-06_09h33.06.177,Colour_Asymmetry_Pilot,2022.1.3,Win32,144.092219,62c50e9c1127f2cd403a315f,,,,,,,,,,,,,,,,,,,,,,,,,,,,,,,,,,,,,,,,,,,,,,,,,,,,,,,,,,,,,,,,,,,,,,,,,,,,,,,,,,,,,,,,,,,,,,,,,,,,,,,,,,,,,,,,,,,,,,,,,,,,,,,,,,,,,,,,,,,,,,,,,,,,,,,,,,,,,,,,,,,
0,46,46,50,1,,60dc2b51b0c4eaa32e391d87,62c53a3858c7705bdcbb4b37,2022-07-06_09h33.06.177,Colour_Asymmetry_Pilot,2022.1.3,Win32,144.092219,62c50e9c1127f2cd403a315f,,,,,,,,,,,,,,,,,,,,,,,,,,,,,,,,,,,,,,,,,,,,,,,,,,,,,,,,,,,,,,,,,,,,,,,,,,,,,,,,,,,,,,,,,,,,,,,,,,,,,,,,,,,,,,,,,,,,,,,,,,,,,,,,,,,,,,,,,,,,,,,,,,,,,,,,,,,,,,,,,,,
0,47,47,51,1,,60dc2b51b0c4eaa32e391d87,62c53a3858c7705bdcbb4b37,2022-07-06_09h33.06.177,Colour_Asymmetry_Pilot,2022.1.3,Win32,144.092219,62c50e9c1127f2cd403a315f,,,,,,,,,,,,,,,,,,,,,,,,,,,,,,,,,,,,,,,,,,,,,,,,,,,,,,,,,,,,,,,,,,,,,,,,,,,,,,,,,,,,,,,,,,,,,,,,,,,,,,,,,,,,,,,,,,,,,,,,,,,,,,,,,,,,,,,,,,,,,,,,,,,,,,,,,,,,,,,,,,,
0,48,48,40,1,,60dc2b51b0c4eaa32e391d87,62c53a3858c7705bdcbb4b37,2022-07-06_09h33.06.177,Colour_Asymmetry_Pilot,2022.1.3,Win32,144.092219,62c50e9c1127f2cd403a315f,,,,,,,,,,,,,,,,,,,,,,,,,,,,,,,,,,,,,,,,,,,,,,,,,,,,,,,,,,,,,,,,,,,,,,,,,,,,,,,,,,,,,,,,,,,,,,,,,,,,,,,,,,,,,,,,,,,,,,,,,,,,,,,,,,,,,,,,,,,,,,,,,,,,,,,,,,,,,,,,,,,
0,49,49,82,1,,60dc2b51b0c4eaa32e391d87,62c53a3858c7705bdcbb4b37,2022-07-06_09h33.06.177,Colour_Asymmetry_Pilot,2022.1.3,Win32,144.092219,62c50e9c1127f2cd403a315f,,,,,,,,,,,,,,,,,,,,,,,,,,,,,,,,,,,,,,,,,,,,,,,,,,,,,,,,,,,,,,,,,,,,,,,,,,,,,,,,,,,,,,,,,,,,,,,,,,,,,,,,,,,,,,,,,,,,,,,,,,,,,,,,,,,,,,,,,,,,,,,,,,,,,,,,,,,,,,,,,,,
0,50,50,65,1,,60dc2b51b0c4eaa32e391d87,62c53a3858c7705bdcbb4b37,2022-07-06_09h33.06.177,Colour_Asymmetry_Pilot,2022.1.3,Win32,144.092219,62c50e9c1127f2cd403a315f,,,,,,,,,,,,,,,,,,,,,,,,,,,,,,,,,,,,,,,,,,,,,,,,,,,,,,,,,,,,,,,,,,,,,,,,,,,,,,,,,,,,,,,,,,,,,,,,,,,,,,,,,,,,,,,,,,,,,,,,,,,,,,,,,,,,,,,,,,,,,,,,,,,,,,,,,,,,,,,,,,,
0,51,51,3,1,,60dc2b51b0c4eaa32e391d87,62c53a3858c7705bdcbb4b37,2022-07-06_09h33.06.177,Colour_Asymmetry_Pilot,2022.1.3,Win32,144.092219,62c50e9c1127f2cd403a315f,,,,,,,,,,,,,,,,,,,,,,,,,,,,,,,,,,,,,,,,,,,,,,,,,,,,,,,,,,,,,,,,,,,,,,,,,,,,,,,,,,,,,,,,,,,,,,,,,,,,,,,,,,,,,,,,,,,,,,,,,,,,,,,,,,,,,,,,,,,,,,,,,,,,,,,,,,,,,,,,,,,
0,52,52,12,1,,60dc2b51b0c4eaa32e391d87,62c53a3858c7705bdcbb4b37,2022-07-06_09h33.06.177,Colour_Asymmetry_Pilot,2022.1.3,Win32,144.092219,62c50e9c1127f2cd403a315f,,,,,,,,,,,,,,,,,,,,,,,,,,,,,,,,,,,,,,,,,,,,,,,,,,,,,,,,,,,,,,,,,,,,,,,,,,,,,,,,,,,,,,,,,,,,,,,,,,,,,,,,,,,,,,,,,,,,,,,,,,,,,,,,,,,,,,,,,,,,,,,,,,,,,,,,,,,,,,,,,,,
0,53,53,72,1,,60dc2b51b0c4eaa32e391d87,62c53a3858c7705bdcbb4b37,2022-07-06_09h33.06.177,Colour_Asymmetry_Pilot,2022.1.3,Win32,144.092219,62c50e9c1127f2cd403a315f,,,,,,,,,,,,,,,,,,,,,,,,,,,,,,,,,,,,,,,,,,,,,,,,,,,,,,,,,,,,,,,,,,,,,,,,,,,,,,,,,,,,,,,,,,,,,,,,,,,,,,,,,,,,,,,,,,,,,,,,,,,,,,,,,,,,,,,,,,,,,,,,,,,,,,,,,,,,,,,,,,,
0,54,54,6,1,,60dc2b51b0c4eaa32e391d87,62c53a3858c7705bdcbb4b37,2022-07-06_09h33.06.177,Colour_Asymmetry_Pilot,2022.1.3,Win32,144.092219,62c50e9c1127f2cd403a315f,,,,,,,,,,,,,,,,,,,,,,,,,,,,,,,,,,,,,,,,,,,,,,,,,,,,,,,,,,,,,,,,,,,,,,,,,,,,,,,,,,,,,,,,,,,,,,,,,,,,,,,,,,,,,,,,,,,,,,,,,,,,,,,,,,,,,,,,,,,,,,,,,,,,,,,,,,,,,,,,,,,
0,55,55,79,1,,60dc2b51b0c4eaa32e391d87,62c53a3858c7705bdcbb4b37,2022-07-06_09h33.06.177,Colour_Asymmetry_Pilot,2022.1.3,Win32,144.092219,62c50e9c1127f2cd403a315f,,,,,,,,,,,,,,,,,,,,,,,,,,,,,,,,,,,,,,,,,,,,,,,,,,,,,,,,,,,,,,,,,,,,,,,,,,,,,,,,,,,,,,,,,,,,,,,,,,,,,,,,,,,,,,,,,,,,,,,,,,,,,,,,,,,,,,,,,,,,,,,,,,,,,,,,,,,,,,,,,,,
0,56,56,75,1,,60dc2b51b0c4eaa32e391d87,62c53a3858c7705bdcbb4b37,2022-07-06_09h33.06.177,Colour_Asymmetry_Pilot,2022.1.3,Win32,144.092219,62c50e9c1127f2cd403a315f,,,,,,,,,,,,,,,,,,,,,,,,,,,,,,,,,,,,,,,,,,,,,,,,,,,,,,,,,,,,,,,,,,,,,,,,,,,,,,,,,,,,,,,,,,,,,,,,,,,,,,,,,,,,,,,,,,,,,,,,,,,,,,,,,,,,,,,,,,,,,,,,,,,,,,,,,,,,,,,,,,,
0,57,57,83,1,,60dc2b51b0c4eaa32e391d87,62c53a3858c7705bdcbb4b37,2022-07-06_09h33.06.177,Colour_Asymmetry_Pilot,2022.1.3,Win32,144.092219,62c50e9c1127f2cd403a315f,,,,,,,,,,,,,,,,,,,,,,,,,,,,,,,,,,,,,,,,,,,,,,,,,,,,,,,,,,,,,,,,,,,,,,,,,,,,,,,,,,,,,,,,,,,,,,,,,,,,,,,,,,,,,,,,,,,,,,,,,,,,,,,,,,,,,,,,,,,,,,,,,,,,,,,,,,,,,,,,,,,
0,58,58,13,1,,60dc2b51b0c4eaa32e391d87,62c53a3858c7705bdcbb4b37,2022-07-06_09h33.06.177,Colour_Asymmetry_Pilot,2022.1.3,Win32,144.092219,62c50e9c1127f2cd403a315f,,,,,,,,,,,,,,,,,,,,,,,,,,,,,,,,,,,,,,,,,,,,,,,,,,,,,,,,,,,,,,,,,,,,,,,,,,,,,,,,,,,,,,,,,,,,,,,,,,,,,,,,,,,,,,,,,,,,,,,,,,,,,,,,,,,,,,,,,,,,,,,,,,,,,,,,,,,,,,,,,,,
0,59,59,39,1,,60dc2b51b0c4eaa32e391d87,62c53a3858c7705bdcbb4b37,2022-07-06_09h33.06.177,Colour_Asymmetry_Pilot,2022.1.3,Win32,144.092219,62c50e9c1127f2cd403a315f,,,,,,,,,,,,,,,,,,,,,,,,,,,,,,,,,,,,,,,,,,,,,,,,,,,,,,,,,,,,,,,,,,,,,,,,,,,,,,,,,,,,,,,,,,,,,,,,,,,,,,,,,,,,,,,,,,,,,,,,,,,,,,,,,,,,,,,,,,,,,,,,,,,,,,,,,,,,,,,,,,,
0,60,60,8,1,,60dc2b51b0c4eaa32e391d87,62c53a3858c7705bdcbb4b37,2022-07-06_09h33.06.177,Colour_Asymmetry_Pilot,2022.1.3,Win32,144.092219,62c50e9c1127f2cd403a315f,,,,,,,,,,,,,,,,,,,,,,,,,,,,,,,,,,,,,,,,,,,,,,,,,,,,,,,,,,,,,,,,,,,,,,,,,,,,,,,,,,,,,,,,,,,,,,,,,,,,,,,,,,,,,,,,,,,,,,,,,,,,,,,,,,,,,,,,,,,,,,,,,,,,,,,,,,,,,,,,,,,
0,61,61,36,1,,60dc2b51b0c4eaa32e391d87,62c53a3858c7705bdcbb4b37,2022-07-06_09h33.06.177,Colour_Asymmetry_Pilot,2022.1.3,Win32,144.092219,62c50e9c1127f2cd403a315f,,,,,,,,,,,,,,,,,,,,,,,,,,,,,,,,,,,,,,,,,,,,,,,,,,,,,,,,,,,,,,,,,,,,,,,,,,,,,,,,,,,,,,,,,,,,,,,,,,,,,,,,,,,,,,,,,,,,,,,,,,,,,,,,,,,,,,,,,,,,,,,,,,,,,,,,,,,,,,,,,,,
0,62,62,57,1,,60dc2b51b0c4eaa32e391d87,62c53a3858c7705bdcbb4b37,2022-07-06_09h33.06.177,Colour_Asymmetry_Pilot,2022.1.3,Win32,144.092219,62c50e9c1127f2cd403a315f,,,,,,,,,,,,,,,,,,,,,,,,,,,,,,,,,,,,,,,,,,,,,,,,,,,,,,,,,,,,,,,,,,,,,,,,,,,,,,,,,,,,,,,,,,,,,,,,,,,,,,,,,,,,,,,,,,,,,,,,,,,,,,,,,,,,,,,,,,,,,,,,,,,,,,,,,,,,,,,,,,,
0,63,63,52,1,,60dc2b51b0c4eaa32e391d87,62c53a3858c7705bdcbb4b37,2022-07-06_09h33.06.177,Colour_Asymmetry_Pilot,2022.1.3,Win32,144.092219,62c50e9c1127f2cd403a315f,,,,,,,,,,,,,,,,,,,,,,,,,,,,,,,,,,,,,,,,,,,,,,,,,,,,,,,,,,,,,,,,,,,,,,,,,,,,,,,,,,,,,,,,,,,,,,,,,,,,,,,,,,,,,,,,,,,,,,,,,,,,,,,,,,,,,,,,,,,,,,,,,,,,,,,,,,,,,,,,,,,
0,64,64,37,1,,60dc2b51b0c4eaa32e391d87,62c53a3858c7705bdcbb4b37,2022-07-06_09h33.06.177,Colour_Asymmetry_Pilot,2022.1.3,Win32,144.092219,62c50e9c1127f2cd403a315f,,,,,,,,,,,,,,,,,,,,,,,,,,,,,,,,,,,,,,,,,,,,,,,,,,,,,,,,,,,,,,,,,,,,,,,,,,,,,,,,,,,,,,,,,,,,,,,,,,,,,,,,,,,,,,,,,,,,,,,,,,,,,,,,,,,,,,,,,,,,,,,,,,,,,,,,,,,,,,,,,,,
0,65,65,26,1,,60dc2b51b0c4eaa32e391d87,62c53a3858c7705bdcbb4b37,2022-07-06_09h33.06.177,Colour_Asymmetry_Pilot,2022.1.3,Win32,144.092219,62c50e9c1127f2cd403a315f,,,,,,,,,,,,,,,,,,,,,,,,,,,,,,,,,,,,,,,,,,,,,,,,,,,,,,,,,,,,,,,,,,,,,,,,,,,,,,,,,,,,,,,,,,,,,,,,,,,,,,,,,,,,,,,,,,,,,,,,,,,,,,,,,,,,,,,,,,,,,,,,,,,,,,,,,,,,,,,,,,,
0,66,66,32,1,,60dc2b51b0c4eaa32e391d87,62c53a3858c7705bdcbb4b37,2022-07-06_09h33.06.177,Colour_Asymmetry_Pilot,2022.1.3,Win32,144.092219,62c50e9c1127f2cd403a315f,,,,,,,,,,,,,,,,,,,,,,,,,,,,,,,,,,,,,,,,,,,,,,,,,,,,,,,,,,,,,,,,,,,,,,,,,,,,,,,,,,,,,,,,,,,,,,,,,,,,,,,,,,,,,,,,,,,,,,,,,,,,,,,,,,,,,,,,,,,,,,,,,,,,,,,,,,,,,,,,,,,
0,67,67,74,1,,60dc2b51b0c4eaa32e391d87,62c53a3858c7705bdcbb4b37,2022-07-06_09h33.06.177,Colour_Asymmetry_Pilot,2022.1.3,Win32,144.092219,62c50e9c1127f2cd403a315f,,,,,,,,,,,,,,,,,,,,,,,,,,,,,,,,,,,,,,,,,,,,,,,,,,,,,,,,,,,,,,,,,,,,,,,,,,,,,,,,,,,,,,,,,,,,,,,,,,,,,,,,,,,,,,,,,,,,,,,,,,,,,,,,,,,,,,,,,,,,,,,,,,,,,,,,,,,,,,,,,,,
0,68,68,15,1,,60dc2b51b0c4eaa32e391d87,62c53a3858c7705bdcbb4b37,2022-07-06_09h33.06.177,Colour_Asymmetry_Pilot,2022.1.3,Win32,144.092219,62c50e9c1127f2cd403a315f,,,,,,,,,,,,,,,,,,,,,,,,,,,,,,,,,,,,,,,,,,,,,,,,,,,,,,,,,,,,,,,,,,,,,,,,,,,,,,,,,,,,,,,,,,,,,,,,,,,,,,,,,,,,,,,,,,,,,,,,,,,,,,,,,,,,,,,,,,,,,,,,,,,,,,,,,,,,,,,,,,,
0,69,69,22,1,,60dc2b51b0c4eaa32e391d87,62c53a3858c7705bdcbb4b37,2022-07-06_09h33.06.177,Colour_Asymmetry_Pilot,2022.1.3,Win32,144.092219,62c50e9c1127f2cd403a315f,,,,,,,,,,,,,,,,,,,,,,,,,,,,,,,,,,,,,,,,,,,,,,,,,,,,,,,,,,,,,,,,,,,,,,,,,,,,,,,,,,,,,,,,,,,,,,,,,,,,,,,,,,,,,,,,,,,,,,,,,,,,,,,,,,,,,,,,,,,,,,,,,,,,,,,,,,,,,,,,,,,
0,70,70,85,1,,60dc2b51b0c4eaa32e391d87,62c53a3858c7705bdcbb4b37,2022-07-06_09h33.06.177,Colour_Asymmetry_Pilot,2022.1.3,Win32,144.092219,62c50e9c1127f2cd403a315f,,,,,,,,,,,,,,,,,,,,,,,,,,,,,,,,,,,,,,,,,,,,,,,,,,,,,,,,,,,,,,,,,,,,,,,,,,,,,,,,,,,,,,,,,,,,,,,,,,,,,,,,,,,,,,,,,,,,,,,,,,,,,,,,,,,,,,,,,,,,,,,,,,,,,,,,,,,,,,,,,,,
0,71,71,45,1,,60dc2b51b0c4eaa32e391d87,62c53a3858c7705bdcbb4b37,2022-07-06_09h33.06.177,Colour_Asymmetry_Pilot,2022.1.3,Win32,144.092219,62c50e9c1127f2cd403a315f,,,,,,,,,,,,,,,,,,,,,,,,,,,,,,,,,,,,,,,,,,,,,,,,,,,,,,,,,,,,,,,,,,,,,,,,,,,,,,,,,,,,,,,,,,,,,,,,,,,,,,,,,,,,,,,,,,,,,,,,,,,,,,,,,,,,,,,,,,,,,,,,,,,,,,,,,,,,,,,,,,,
0,72,72,76,1,,60dc2b51b0c4eaa32e391d87,62c53a3858c7705bdcbb4b37,2022-07-06_09h33.06.177,Colour_Asymmetry_Pilot,2022.1.3,Win32,144.092219,62c50e9c1127f2cd403a315f,,,,,,,,,,,,,,,,,,,,,,,,,,,,,,,,,,,,,,,,,,,,,,,,,,,,,,,,,,,,,,,,,,,,,,,,,,,,,,,,,,,,,,,,,,,,,,,,,,,,,,,,,,,,,,,,,,,,,,,,,,,,,,,,,,,,,,,,,,,,,,,,,,,,,,,,,,,,,,,,,,,
0,73,73,17,1,,60dc2b51b0c4eaa32e391d87,62c53a3858c7705bdcbb4b37,2022-07-06_09h33.06.177,Colour_Asymmetry_Pilot,2022.1.3,Win32,144.092219,62c50e9c1127f2cd403a315f,,,,,,,,,,,,,,,,,,,,,,,,,,,,,,,,,,,,,,,,,,,,,,,,,,,,,,,,,,,,,,,,,,,,,,,,,,,,,,,,,,,,,,,,,,,,,,,,,,,,,,,,,,,,,,,,,,,,,,,,,,,,,,,,,,,,,,,,,,,,,,,,,,,,,,,,,,,,,,,,,,,
0,74,74,5,1,,60dc2b51b0c4eaa32e391d87,62c53a3858c7705bdcbb4b37,2022-07-06_09h33.06.177,Colour_Asymmetry_Pilot,2022.1.3,Win32,144.092219,62c50e9c1127f2cd403a315f,,,,,,,,,,,,,,,,,,,,,,,,,,,,,,,,,,,,,,,,,,,,,,,,,,,,,,,,,,,,,,,,,,,,,,,,,,,,,,,,,,,,,,,,,,,,,,,,,,,,,,,,,,,,,,,,,,,,,,,,,,,,,,,,,,,,,,,,,,,,,,,,,,,,,,,,,,,,,,,,,,,
0,75,75,1,1,,60dc2b51b0c4eaa32e391d87,62c53a3858c7705bdcbb4b37,2022-07-06_09h33.06.177,Colour_Asymmetry_Pilot,2022.1.3,Win32,144.092219,62c50e9c1127f2cd403a315f,,,,,,,,,,,,,,,,,,,,,,,,,,,,,,,,,,,,,,,,,,,,,,,,,,,,,,,,,,,,,,,,,,,,,,,,,,,,,,,,,,,,,,,,,,,,,,,,,,,,,,,,,,,,,,,,,,,,,,,,,,,,,,,,,,,,,,,,,,,,,,,,,,,,,,,,,,,,,,,,,,,
0,76,76,27,1,,60dc2b51b0c4eaa32e391d87,62c53a3858c7705bdcbb4b37,2022-07-06_09h33.06.177,Colour_Asymmetry_Pilot,2022.1.3,Win32,144.092219,62c50e9c1127f2cd403a315f,,,,,,,,,,,,,,,,,,,,,,,,,,,,,,,,,,,,,,,,,,,,,,,,,,,,,,,,,,,,,,,,,,,,,,,,,,,,,,,,,,,,,,,,,,,,,,,,,,,,,,,,,,,,,,,,,,,,,,,,,,,,,,,,,,,,,,,,,,,,,,,,,,,,,,,,,,,,,,,,,,,
0,77,77,54,1,,60dc2b51b0c4eaa32e391d87,62c53a3858c7705bdcbb4b37,2022-07-06_09h33.06.177,Colour_Asymmetry_Pilot,2022.1.3,Win32,144.092219,62c50e9c1127f2cd403a315f,,,,,,,,,,,,,,,,,,,,,,,,,,,,,,,,,,,,,,,,,,,,,,,,,,,,,,,,,,,,,,,,,,,,,,,,,,,,,,,,,,,,,,,,,,,,,,,,,,,,,,,,,,,,,,,,,,,,,,,,,,,,,,,,,,,,,,,,,,,,,,,,,,,,,,,,,,,,,,,,,,,
0,78,78,81,1,,60dc2b51b0c4eaa32e391d87,62c53a3858c7705bdcbb4b37,2022-07-06_09h33.06.177,Colour_Asymmetry_Pilot,2022.1.3,Win32,144.092219,62c50e9c1127f2cd403a315f,,,,,,,,,,,,,,,,,,,,,,,,,,,,,,,,,,,,,,,,,,,,,,,,,,,,,,,,,,,,,,,,,,,,,,,,,,,,,,,,,,,,,,,,,,,,,,,,,,,,,,,,,,,,,,,,,,,,,,,,,,,,,,,,,,,,,,,,,,,,,,,,,,,,,,,,,,,,,,,,,,,
0,79,79,84,1,,60dc2b51b0c4eaa32e391d87,62c53a3858c7705bdcbb4b37,2022-07-06_09h33.06.177,Colour_Asymmetry_Pilot,2022.1.3,Win32,144.092219,62c50e9c1127f2cd403a315f,,,,,,,,,,,,,,,,,,,,,,,,,,,,,,,,,,,,,,,,,,,,,,,,,,,,,,,,,,,,,,,,,,,,,,,,,,,,,,,,,,,,,,,,,,,,,,,,,,,,,,,,,,,,,,,,,,,,,,,,,,,,,,,,,,,,,,,,,,,,,,,,,,,,,,,,,,,,,,,,,,,
0,80,80,78,1,,60dc2b51b0c4eaa32e391d87,62c53a3858c7705bdcbb4b37,2022-07-06_09h33.06.177,Colour_Asymmetry_Pilot,2022.1.3,Win32,144.092219,62c50e9c1127f2cd403a315f,,,,,,,,,,,,,,,,,,,,,,,,,,,,,,,,,,,,,,,,,,,,,,,,,,,,,,,,,,,,,,,,,,,,,,,,,,,,,,,,,,,,,,,,,,,,,,,,,,,,,,,,,,,,,,,,,,,,,,,,,,,,,,,,,,,,,,,,,,,,,,,,,,,,,,,,,,,,,,,,,,,
0,81,81,59,1,,60dc2b51b0c4eaa32e391d87,62c53a3858c7705bdcbb4b37,2022-07-06_09h33.06.177,Colour_Asymmetry_Pilot,2022.1.3,Win32,144.092219,62c50e9c1127f2cd403a315f,,,,,,,,,,,,,,,,,,,,,,,,,,,,,,,,,,,,,,,,,,,,,,,,,,,,,,,,,,,,,,,,,,,,,,,,,,,,,,,,,,,,,,,,,,,,,,,,,,,,,,,,,,,,,,,,,,,,,,,,,,,,,,,,,,,,,,,,,,,,,,,,,,,,,,,,,,,,,,,,,,,
0,82,82,38,1,,60dc2b51b0c4eaa32e391d87,62c53a3858c7705bdcbb4b37,2022-07-06_09h33.06.177,Colour_Asymmetry_Pilot,2022.1.3,Win32,144.092219,62c50e9c1127f2cd403a315f,,,,,,,,,,,,,,,,,,,,,,,,,,,,,,,,,,,,,,,,,,,,,,,,,,,,,,,,,,,,,,,,,,,,,,,,,,,,,,,,,,,,,,,,,,,,,,,,,,,,,,,,,,,,,,,,,,,,,,,,,,,,,,,,,,,,,,,,,,,,,,,,,,,,,,,,,,,,,,,,,,,
0,83,83,90,1,,60dc2b51b0c4eaa32e391d87,62c53a3858c7705bdcbb4b37,2022-07-06_09h33.06.177,Colour_Asymmetry_Pilot,2022.1.3,Win32,144.092219,62c50e9c1127f2cd403a315f,,,,,,,,,,,,,,,,,,,,,,,,,,,,,,,,,,,,,,,,,,,,,,,,,,,,,,,,,,,,,,,,,,,,,,,,,,,,,,,,,,,,,,,,,,,,,,,,,,,,,,,,,,,,,,,,,,,,,,,,,,,,,,,,,,,,,,,,,,,,,,,,,,,,,,,,,,,,,,,,,,,
0,84,84,87,1,,60dc2b51b0c4eaa32e391d87,62c53a3858c7705bdcbb4b37,2022-07-06_09h33.06.177,Colour_Asymmetry_Pilot,2022.1.3,Win32,144.092219,62c50e9c1127f2cd403a315f,,,,,,,,,,,,,,,,,,,,,,,,,,,,,,,,,,,,,,,,,,,,,,,,,,,,,,,,,,,,,,,,,,,,,,,,,,,,,,,,,,,,,,,,,,,,,,,,,,,,,,,,,,,,,,,,,,,,,,,,,,,,,,,,,,,,,,,,,,,,,,,,,,,,,,,,,,,,,,,,,,,
0,85,85,88,1,,60dc2b51b0c4eaa32e391d87,62c53a3858c7705bdcbb4b37,2022-07-06_09h33.06.177,Colour_Asymmetry_Pilot,2022.1.3,Win32,144.092219,62c50e9c1127f2cd403a315f,,,,,,,,,,,,,,,,,,,,,,,,,,,,,,,,,,,,,,,,,,,,,,,,,,,,,,,,,,,,,,,,,,,,,,,,,,,,,,,,,,,,,,,,,,,,,,,,,,,,,,,,,,,,,,,,,,,,,,,,,,,,,,,,,,,,,,,,,,,,,,,,,,,,,,,,,,,,,,,,,,,
0,86,86,60,1,,60dc2b51b0c4eaa32e391d87,62c53a3858c7705bdcbb4b37,2022-07-06_09h33.06.177,Colour_Asymmetry_Pilot,2022.1.3,Win32,144.092219,62c50e9c1127f2cd403a315f,,,,,,,,,,,,,,,,,,,,,,,,,,,,,,,,,,,,,,,,,,,,,,,,,,,,,,,,,,,,,,,,,,,,,,,,,,,,,,,,,,,,,,,,,,,,,,,,,,,,,,,,,,,,,,,,,,,,,,,,,,,,,,,,,,,,,,,,,,,,,,,,,,,,,,,,,,,,,,,,,,,
0,87,87,25,1,,60dc2b51b0c4eaa32e391d87,62c53a3858c7705bdcbb4b37,2022-07-06_09h33.06.177,Colour_Asymmetry_Pilot,2022.1.3,Win32,144.092219,62c50e9c1127f2cd403a315f,,,,,,,,,,,,,,,,,,,,,,,,,,,,,,,,,,,,,,,,,,,,,,,,,,,,,,,,,,,,,,,,,,,,,,,,,,,,,,,,,,,,,,,,,,,,,,,,,,,,,,,,,,,,,,,,,,,,,,,,,,,,,,,,,,,,,,,,,,,,,,,,,,,,,,,,,,,,,,,,,,,
0,88,88,64,1,,60dc2b51b0c4eaa32e391d87,62c53a3858c7705bdcbb4b37,2022-07-06_09h33.06.177,Colour_Asymmetry_Pilot,2022.1.3,Win32,144.092219,62c50e9c1127f2cd403a315f,,,,,,,,,,,,,,,,,,,,,,,,,,,,,,,,,,,,,,,,,,,,,,,,,,,,,,,,,,,,,,,,,,,,,,,,,,,,,,,,,,,,,,,,,,,,,,,,,,,,,,,,,,,,,,,,,,,,,,,,,,,,,,,,,,,,,,,,,,,,,,,,,,,,,,,,,,,,,,,,,,,
0,89,89,21,1,,60dc2b51b0c4eaa32e391d87,62c53a3858c7705bdcbb4b37,2022-07-06_09h33.06.177,Colour_Asymmetry_Pilot,2022.1.3,Win32,144.092219,62c50e9c1127f2cd403a315f,,,,,,,,,,,,,,,,,,,,,,,,,,,,,,,,,,,,,,,,,,,,,,,,,,,,,,,,,,,,,,,,,,,,,,,,,,,,,,,,,,,,,,,,,,,,,,,,,,,,,,,,,,,,,,,,,,,,,,,,,,,,,,,,,,,,,,,,,,,,,,,,,,,,,,,,,,,,,,,,,,,
0,90,90,48,1,,60dc2b51b0c4eaa32e391d87,62c53a3858c7705bdcbb4b37,2022-07-06_09h33.06.177,Colour_Asymmetry_Pilot,2022.1.3,Win32,144.092219,62c50e9c1127f2cd403a315f,,,,,,,,,,,,,,,,,,,,,,,,,,,,,,,,,,,,,,,,,,,,,,,,,,,,,,,,,,,,,,,,,,,,,,,,,,,,,,,,,,,,,,,,,,,,,,,,,,,,,,,,,,,,,,,,,,,,,,,,,,,,,,,,,,,,,,,,,,,,,,,,,,,,,,,,,,,,,,,,,,,
0,91,91,0,1,,60dc2b51b0c4eaa32e391d87,62c53a3858c7705bdcbb4b37,2022-07-06_09h33.06.177,Colour_Asymmetry_Pilot,2022.1.3,Win32,144.092219,62c50e9c1127f2cd403a315f,,,,,,,,,,,,,,,,,,,,,,,,,,,,,,,,,,,,,,,,,,,,,,,,,,,,,,,,,,,,,,,,,,,,,,,,,,,,,,,,,,,,,,,,,,,,,,,,,,,,,,,,,,,,,,,,,,,,,,,,,,,,,,,,,,,,,,,,,,,,,,,,,,,,,,,,,,,,,,,,,,,
0,92,92,9,1,,60dc2b51b0c4eaa32e391d87,62c53a3858c7705bdcbb4b37,2022-07-06_09h33.06.177,Colour_Asymmetry_Pilot,2022.1.3,Win32,144.092219,62c50e9c1127f2cd403a315f,,,,,,,,,,,,,,,,,,,,,,,,,,,,,,,,,,,,,,,,,,,,,,,,,,,,,,,,,,,,,,,,,,,,,,,,,,,,,,,,,,,,,,,,,,,,,,,,,,,,,,,,,,,,,,,,,,,,,,,,,,,,,,,,,,,,,,,,,,,,,,,,,,,,,,,,,,,,,,,,,,,
,,,,,,60dc2b51b0c4eaa32e391d87,62c53a3858c7705bdcbb4b37,2022-07-06_09h33.06.177,Colour_Asymmetry_Pilot,2022.1.3,Win32,144.092219,62c50e9c1127f2cd403a315f,0,0,0,143,1,fourthree,,,,,,,,,,,,,,,,,,,,,,,,,,,,,,,,,,,,,,,,,,,,,,,,,,,,,,,,,,,,,,,,,,,,,,,,,,,,,,,,,,,,,,,,,,,,,,,,,,,,,,,,,,,,,,,,,,,,,,,,,,,,,,,,,,,,,,,,,,,,,,,,,,,,,,,,,,,,,
,,,,,,60dc2b51b0c4eaa32e391d87,62c53a3858c7705bdcbb4b37,2022-07-06_09h33.06.177,Colour_Asymmetry_Pilot,2022.1.3,Win32,144.092219,62c50e9c1127f2cd403a315f,0,1,1,115,1,twofour,,,,,,,,,,,,,,,,,,,,,,,,,,,,,,,,,,,,,,,,,,,,,,,,,,,,,,,,,,,,,,,,,,,,,,,,,,,,,,,,,,,,,,,,,,,,,,,,,,,,,,,,,,,,,,,,,,,,,,,,,,,,,,,,,,,,,,,,,,,,,,,,,,,,,,,,,,,,,
,,,,,,60dc2b51b0c4eaa32e391d87,62c53a3858c7705bdcbb4b37,2022-07-06_09h33.06.177,Colour_Asymmetry_Pilot,2022.1.3,Win32,144.092219,62c50e9c1127f2cd403a315f,0,2,2,74,1,twoone,,,,,,,,,,,,,,,,,,,,,,,,,,,,,,,,,,,,,,,,,,,,,,,,,,,,,,,,,,,,,,,,,,,,,,,,,,,,,,,,,,,,,,,,,,,,,,,,,,,,,,,,,,,,,,,,,,,,,,,,,,,,,,,,,,,,,,,,,,,,,,,,,,,,,,,,,,,,,
,,,,,,60dc2b51b0c4eaa32e391d87,62c53a3858c7705bdcbb4b37,2022-07-06_09h33.06.177,Colour_Asymmetry_Pilot,2022.1.3,Win32,144.092219,62c50e9c1127f2cd403a315f,0,3,3,68,1,threeone,,,,,,,,,,,,,,,,,,,,,,,,,,,,,,,,,,,,,,,,,,,,,,,,,,,,,,,,,,,,,,,,,,,,,,,,,,,,,,,,,,,,,,,,,,,,,,,,,,,,,,,,,,,,,,,,,,,,,,,,,,,,,,,,,,,,,,,,,,,,,,,,,,,,,,,,,,,,,
,,,,,,60dc2b51b0c4eaa32e391d87,62c53a3858c7705bdcbb4b37,2022-07-06_09h33.06.177,Colour_Asymmetry_Pilot,2022.1.3,Win32,144.092219,62c50e9c1127f2cd403a315f,0,4,4,50,1,twoone,,,,,,,,,,,,,,,,,,,,,,,,,,,,,,,,,,,,,,,,,,,,,,,,,,,,,,,,,,,,,,,,,,,,,,,,,,,,,,,,,,,,,,,,,,,,,,,,,,,,,,,,,,,,,,,,,,,,,,,,,,,,,,,,,,,,,,,,,,,,,,,,,,,,,,,,,,,,,
,,,,,,60dc2b51b0c4eaa32e391d87,62c53a3858c7705bdcbb4b37,2022-07-06_09h33.06.177,Colour_Asymmetry_Pilot,2022.1.3,Win32,144.092219,62c50e9c1127f2cd403a315f,0,5,5,79,1,fourthree,,,,,,,,,,,,,,,,,,,,,,,,,,,,,,,,,,,,,,,,,,,,,,,,,,,,,,,,,,,,,,,,,,,,,,,,,,,,,,,,,,,,,,,,,,,,,,,,,,,,,,,,,,,,,,,,,,,,,,,,,,,,,,,,,,,,,,,,,,,,,,,,,,,,,,,,,,,,,
,,,,,,60dc2b51b0c4eaa32e391d87,62c53a3858c7705bdcbb4b37,2022-07-06_09h33.06.177,Colour_Asymmetry_Pilot,2022.1.3,Win32,144.092219,62c50e9c1127f2cd403a315f,0,6,6,57,1,onethree,,,,,,,,,,,,,,,,,,,,,,,,,,,,,,,,,,,,,,,,,,,,,,,,,,,,,,,,,,,,,,,,,,,,,,,,,,,,,,,,,,,,,,,,,,,,,,,,,,,,,,,,,,,,,,,,,,,,,,,,,,,,,,,,,,,,,,,,,,,,,,,,,,,,,,,,,,,,,
,,,,,,60dc2b51b0c4eaa32e391d87,62c53a3858c7705bdcbb4b37,2022-07-06_09h33.06.177,Colour_Asymmetry_Pilot,2022.1.3,Win32,144.092219,62c50e9c1127f2cd403a315f,0,7,7,43,1,twofour,,,,,,,,,,,,,,,,,,,,,,,,,,,,,,,,,,,,,,,,,,,,,,,,,,,,,,,,,,,,,,,,,,,,,,,,,,,,,,,,,,,,,,,,,,,,,,,,,,,,,,,,,,,,,,,,,,,,,,,,,,,,,,,,,,,,,,,,,,,,,,,,,,,,,,,,,,,,,
,,,,,,60dc2b51b0c4eaa32e391d87,62c53a3858c7705bdcbb4b37,2022-07-06_09h33.06.177,Colour_Asymmetry_Pilot,2022.1.3,Win32,144.092219,62c50e9c1127f2cd403a315f,0,8,8,41,1,onethree,,,,,,,,,,,,,,,,,,,,,,,,,,,,,,,,,,,,,,,,,,,,,,,,,,,,,,,,,,,,,,,,,,,,,,,,,,,,,,,,,,,,,,,,,,,,,,,,,,,,,,,,,,,,,,,,,,,,,,,,,,,,,,,,,,,,,,,,,,,,,,,,,,,,,,,,,,,,,
,,,,,,60dc2b51b0c4eaa32e391d87,62c53a3858c7705bdcbb4b37,2022-07-06_09h33.06.177,Colour_Asymmetry_Pilot,2022.1.3,Win32,144.092219,62c50e9c1127f2cd403a315f,0,9,9,98,1,twoone,,,,,,,,,,,,,,,,,,,,,,,,,,,,,,,,,,,,,,,,,,,,,,,,,,,,,,,,,,,,,,,,,,,,,,,,,,,,,,,,,,,,,,,,,,,,,,,,,,,,,,,,,,,,,,,,,,,,,,,,,,,,,,,,,,,,,,,,,,,,,,,,,,,,,,,,,,,,,
,,,,,,60dc2b51b0c4eaa32e391d87,62c53a3858c7705bdcbb4b37,2022-07-06_09h33.06.177,Colour_Asymmetry_Pilot,2022.1.3,Win32,144.092219,62c50e9c1127f2cd403a315f,0,10,10,5,1,threefour,,,,,,,,,,,,,,,,,,,,,,,,,,,,,,,,,,,,,,,,,,,,,,,,,,,,,,,,,,,,,,,,,,,,,,,,,,,,,,,,,,,,,,,,,,,,,,,,,,,,,,,,,,,,,,,,,,,,,,,,,,,,,,,,,,,,,,,,,,,,,,,,,,,,,,,,,,,,,
,,,,,,60dc2b51b0c4eaa32e391d87,62c53a3858c7705bdcbb4b37,2022-07-06_09h33.06.177,Colour_Asymmetry_Pilot,2022.1.3,Win32,144.092219,62c50e9c1127f2cd403a315f,0,11,11,122,1,twoone,,,,,,,,,,,,,,,,,,,,,,,,,,,,,,,,,,,,,,,,,,,,,,,,,,,,,,,,,,,,,,,,,,,,,,,,,,,,,,,,,,,,,,,,,,,,,,,,,,,,,,,,,,,,,,,,,,,,,,,,,,,,,,,,,,,,,,,,,,,,,,,,,,,,,,,,,,,,,
,,,,,,60dc2b51b0c4eaa32e391d87,62c53a3858c7705bdcbb4b37,2022-07-06_09h33.06.177,Colour_Asymmetry_Pilot,2022.1.3,Win32,144.092219,62c50e9c1127f2cd403a315f,0,12,12,94,1,fourtwo,,,,,,,,,,,,,,,,,,,,,,,,,,,,,,,,,,,,,,,,,,,,,,,,,,,,,,,,,,,,,,,,,,,,,,,,,,,,,,,,,,,,,,,,,,,,,,,,,,,,,,,,,,,,,,,,,,,,,,,,,,,,,,,,,,,,,,,,,,,,,,,,,,,,,,,,,,,,,
,,,,,,60dc2b51b0c4eaa32e391d87,62c53a3858c7705bdcbb4b37,2022-07-06_09h33.06.177,Colour_Asymmetry_Pilot,2022.1.3,Win32,144.092219,62c50e9c1127f2cd403a315f,0,13,13,130,1,twoone,,,,,,,,,,,,,,,,,,,,,,,,,,,,,,,,,,,,,,,,,,,,,,,,,,,,,,,,,,,,,,,,,,,,,,,,,,,,,,,,,,,,,,,,,,,,,,,,,,,,,,,,,,,,,,,,,,,,,,,,,,,,,,,,,,,,,,,,,,,,,,,,,,,,,,,,,,,,,
,,,,,,60dc2b51b0c4eaa32e391d87,62c53a3858c7705bdcbb4b37,2022-07-06_09h33.06.177,Colour_Asymmetry_Pilot,2022.1.3,Win32,144.092219,62c50e9c1127f2cd403a315f,0,14,14,136,1,onetwo,,,,,,,,,,,,,,,,,,,,,,,,,,,,,,,,,,,,,,,,,,,,,,,,,,,,,,,,,,,,,,,,,,,,,,,,,,,,,,,,,,,,,,,,,,,,,,,,,,,,,,,,,,,,,,,,,,,,,,,,,,,,,,,,,,,,,,,,,,,,,,,,,,,,,,,,,,,,,
,,,,,,60dc2b51b0c4eaa32e391d87,62c53a3858c7705bdcbb4b37,2022-07-06_09h33.06.177,Colour_Asymmetry_Pilot,2022.1.3,Win32,144.092219,62c50e9c1127f2cd403a315f,0,15,15,152,1,onetwo,,,,,,,,,,,,,,,,,,,,,,,,,,,,,,,,,,,,,,,,,,,,,,,,,,,,,,,,,,,,,,,,,,,,,,,,,,,,,,,,,,,,,,,,,,,,,,,,,,,,,,,,,,,,,,,,,,,,,,,,,,,,,,,,,,,,,,,,,,,,,,,,,,,,,,,,,,,,,
,,,,,,60dc2b51b0c4eaa32e391d87,62c53a3858c7705bdcbb4b37,2022-07-06_09h33.06.177,Colour_Asymmetry_Pilot,2022.1.3,Win32,144.092219,62c50e9c1127f2cd403a315f,0,16,16,113,1,onethree,,,,,,,,,,,,,,,,,,,,,,,,,,,,,,,,,,,,,,,,,,,,,,,,,,,,,,,,,,,,,,,,,,,,,,,,,,,,,,,,,,,,,,,,,,,,,,,,,,,,,,,,,,,,,,,,,,,,,,,,,,,,,,,,,,,,,,,,,,,,,,,,,,,,,,,,,,,,,
,,,,,,60dc2b51b0c4eaa32e391d87,62c53a3858c7705bdcbb4b37,2022-07-06_09h33.06.177,Colour_Asymmetry_Pilot,2022.1.3,Win32,144.092219,62c50e9c1127f2cd403a315f,0,17,17,77,1,threefour,,,,,,,,,,,,,,,,,,,,,,,,,,,,,,,,,,,,,,,,,,,,,,,,,,,,,,,,,,,,,,,,,,,,,,,,,,,,,,,,,,,,,,,,,,,,,,,,,,,,,,,,,,,,,,,,,,,,,,,,,,,,,,,,,,,,,,,,,,,,,,,,,,,,,,,,,,,,,
,,,,,,60dc2b51b0c4eaa32e391d87,62c53a3858c7705bdcbb4b37,2022-07-06_09h33.06.177,Colour_Asymmetry_Pilot,2022.1.3,Win32,144.092219,62c50e9c1127f2cd403a315f,0,18,18,106,1,twoone,,,,,,,,,,,,,,,,,,,,,,,,,,,,,,,,,,,,,,,,,,,,,,,,,,,,,,,,,,,,,,,,,,,,,,,,,,,,,,,,,,,,,,,,,,,,,,,,,,,,,,,,,,,,,,,,,,,,,,,,,,,,,,,,,,,,,,,,,,,,,,,,,,,,,,,,,,,,,
,,,,,,60dc2b51b0c4eaa32e391d87,62c53a3858c7705bdcbb4b37,2022-07-06_09h33.06.177,Colour_Asymmetry_Pilot,2022.1.3,Win32,144.092219,62c50e9c1127f2cd403a315f,0,19,19,22,1,fourtwo,,,,,,,,,,,,,,,,,,,,,,,,,,,,,,,,,,,,,,,,,,,,,,,,,,,,,,,,,,,,,,,,,,,,,,,,,,,,,,,,,,,,,,,,,,,,,,,,,,,,,,,,,,,,,,,,,,,,,,,,,,,,,,,,,,,,,,,,,,,,,,,,,,,,,,,,,,,,,
,,,,,,60dc2b51b0c4eaa32e391d87,62c53a3858c7705bdcbb4b37,2022-07-06_09h33.06.177,Colour_Asymmetry_Pilot,2022.1.3,Win32,144.092219,62c50e9c1127f2cd403a315f,0,20,20,95,1,fourthree,,,,,,,,,,,,,,,,,,,,,,,,,,,,,,,,,,,,,,,,,,,,,,,,,,,,,,,,,,,,,,,,,,,,,,,,,,,,,,,,,,,,,,,,,,,,,,,,,,,,,,,,,,,,,,,,,,,,,,,,,,,,,,,,,,,,,,,,,,,,,,,,,,,,,,,,,,,,,
,,,,,,60dc2b51b0c4eaa32e391d87,62c53a3858c7705bdcbb4b37,2022-07-06_09h33.06.177,Colour_Asymmetry_Pilot,2022.1.3,Win32,144.092219,62c50e9c1127f2cd403a315f,0,21,21,156,1,threeone,,,,,,,,,,,,,,,,,,,,,,,,,,,,,,,,,,,,,,,,,,,,,,,,,,,,,,,,,,,,,,,,,,,,,,,,,,,,,,,,,,,,,,,,,,,,,,,,,,,,,,,,,,,,,,,,,,,,,,,,,,,,,,,,,,,,,,,,,,,,,,,,,,,,,,,,,,,,,
,,,,,,60dc2b51b0c4eaa32e391d87,62c53a3858c7705bdcbb4b37,2022-07-06_09h33.06.177,Colour_Asymmetry_Pilot,2022.1.3,Win32,144.092219,62c50e9c1127f2cd403a315f,0,22,22,104,1,onetwo,,,,,,,,,,,,,,,,,,,,,,,,,,,,,,,,,,,,,,,,,,,,,,,,,,,,,,,,,,,,,,,,,,,,,,,,,,,,,,,,,,,,,,,,,,,,,,,,,,,,,,,,,,,,,,,,,,,,,,,,,,,,,,,,,,,,,,,,,,,,,,,,,,,,,,,,,,,,,
,,,,,,60dc2b51b0c4eaa32e391d87,62c53a3858c7705bdcbb4b37,2022-07-06_09h33.06.177,Colour_Asymmetry_Pilot,2022.1.3,Win32,144.092219,62c50e9c1127f2cd403a315f,0,23,23,67,1,twofour,,,,,,,,,,,,,,,,,,,,,,,,,,,,,,,,,,,,,,,,,,,,,,,,,,,,,,,,,,,,,,,,,,,,,,,,,,,,,,,,,,,,,,,,,,,,,,,,,,,,,,,,,,,,,,,,,,,,,,,,,,,,,,,,,,,,,,,,,,,,,,,,,,,,,,,,,,,,,
,,,,,,60dc2b51b0c4eaa32e391d87,62c53a3858c7705bdcbb4b37,2022-07-06_09h33.06.177,Colour_Asymmetry_Pilot,2022.1.3,Win32,144.092219,62c50e9c1127f2cd403a315f,0,24,24,23,1,fourthree,,,,,,,,,,,,,,,,,,,,,,,,,,,,,,,,,,,,,,,,,,,,,,,,,,,,,,,,,,,,,,,,,,,,,,,,,,,,,,,,,,,,,,,,,,,,,,,,,,,,,,,,,,,,,,,,,,,,,,,,,,,,,,,,,,,,,,,,,,,,,,,,,,,,,,,,,,,,,
,,,,,,60dc2b51b0c4eaa32e391d87,62c53a3858c7705bdcbb4b37,2022-07-06_09h33.06.177,Colour_Asymmetry_Pilot,2022.1.3,Win32,144.092219,62c50e9c1127f2cd403a315f,0,25,25,90,1,twoone,,,,,,,,,,,,,,,,,,,,,,,,,,,,,,,,,,,,,,,,,,,,,,,,,,,,,,,,,,,,,,,,,,,,,,,,,,,,,,,,,,,,,,,,,,,,,,,,,,,,,,,,,,,,,,,,,,,,,,,,,,,,,,,,,,,,,,,,,,,,,,,,,,,,,,,,,,,,,
,,,,,,60dc2b51b0c4eaa32e391d87,62c53a3858c7705bdcbb4b37,2022-07-06_09h33.06.177,Colour_Asymmetry_Pilot,2022.1.3,Win32,144.092219,62c50e9c1127f2cd403a315f,0,26,26,128,1,onetwo,,,,,,,,,,,,,,,,,,,,,,,,,,,,,,,,,,,,,,,,,,,,,,,,,,,,,,,,,,,,,,,,,,,,,,,,,,,,,,,,,,,,,,,,,,,,,,,,,,,,,,,,,,,,,,,,,,,,,,,,,,,,,,,,,,,,,,,,,,,,,,,,,,,,,,,,,,,,,
,,,,,,60dc2b51b0c4eaa32e391d87,62c53a3858c7705bdcbb4b37,2022-07-06_09h33.06.177,Colour_Asymmetry_Pilot,2022.1.3,Win32,144.092219,62c50e9c1127f2cd403a315f,0,27,27,75,1,twofour,,,,,,,,,,,,,,,,,,,,,,,,,,,,,,,,,,,,,,,,,,,,,,,,,,,,,,,,,,,,,,,,,,,,,,,,,,,,,,,,,,,,,,,,,,,,,,,,,,,,,,,,,,,,,,,,,,,,,,,,,,,,,,,,,,,,,,,,,,,,,,,,,,,,,,,,,,,,,
,,,,,,60dc2b51b0c4eaa32e391d87,62c53a3858c7705bdcbb4b37,2022-07-06_09h33.06.177,Colour_Asymmetry_Pilot,2022.1.3,Win32,144.092219,62c50e9c1127f2cd403a315f,0,28,28,26,1,twoone,,,,,,,,,,,,,,,,,,,,,,,,,,,,,,,,,,,,,,,,,,,,,,,,,,,,,,,,,,,,,,,,,,,,,,,,,,,,,,,,,,,,,,,,,,,,,,,,,,,,,,,,,,,,,,,,,,,,,,,,,,,,,,,,,,,,,,,,,,,,,,,,,,,,,,,,,,,,,
,,,,,,60dc2b51b0c4eaa32e391d87,62c53a3858c7705bdcbb4b37,2022-07-06_09h33.06.177,Colour_Asymmetry_Pilot,2022.1.3,Win32,144.092219,62c50e9c1127f2cd403a315f,0,29,29,27,1,twofour,,,,,,,,,,,,,,,,,,,,,,,,,,,,,,,,,,,,,,,,,,,,,,,,,,,,,,,,,,,,,,,,,,,,,,,,,,,,,,,,,,,,,,,,,,,,,,,,,,,,,,,,,,,,,,,,,,,,,,,,,,,,,,,,,,,,,,,,,,,,,,,,,,,,,,,,,,,,,
,,,,,,60dc2b51b0c4eaa32e391d87,62c53a3858c7705bdcbb4b37,2022-07-06_09h33.06.177,Colour_Asymmetry_Pilot,2022.1.3,Win32,144.092219,62c50e9c1127f2cd403a315f,0,30,30,53,1,threefour,,,,,,,,,,,,,,,,,,,,,,,,,,,,,,,,,,,,,,,,,,,,,,,,,,,,,,,,,,,,,,,,,,,,,,,,,,,,,,,,,,,,,,,,,,,,,,,,,,,,,,,,,,,,,,,,,,,,,,,,,,,,,,,,,,,,,,,,,,,,,,,,,,,,,,,,,,,,,
,,,,,,60dc2b51b0c4eaa32e391d87,62c53a3858c7705bdcbb4b37,2022-07-06_09h33.06.177,Colour_Asymmetry_Pilot,2022.1.3,Win32,144.092219,62c50e9c1127f2cd403a315f,0,31,31,131,1,twofour,,,,,,,,,,,,,,,,,,,,,,,,,,,,,,,,,,,,,,,,,,,,,,,,,,,,,,,,,,,,,,,,,,,,,,,,,,,,,,,,,,,,,,,,,,,,,,,,,,,,,,,,,,,,,,,,,,,,,,,,,,,,,,,,,,,,,,,,,,,,,,,,,,,,,,,,,,,,,
,,,,,,60dc2b51b0c4eaa32e391d87,62c53a3858c7705bdcbb4b37,2022-07-06_09h33.06.177,Colour_Asymmetry_Pilot,2022.1.3,Win32,144.092219,62c50e9c1127f2cd403a315f,0,32,32,141,1,threefour,,,,,,,,,,,,,,,,,,,,,,,,,,,,,,,,,,,,,,,,,,,,,,,,,,,,,,,,,,,,,,,,,,,,,,,,,,,,,,,,,,,,,,,,,,,,,,,,,,,,,,,,,,,,,,,,,,,,,,,,,,,,,,,,,,,,,,,,,,,,,,,,,,,,,,,,,,,,,
,,,,,,60dc2b51b0c4eaa32e391d87,62c53a3858c7705bdcbb4b37,2022-07-06_09h33.06.177,Colour_Asymmetry_Pilot,2022.1.3,Win32,144.092219,62c50e9c1127f2cd403a315f,0,33,33,34,1,twoone,,,,,,,,,,,,,,,,,,,,,,,,,,,,,,,,,,,,,,,,,,,,,,,,,,,,,,,,,,,,,,,,,,,,,,,,,,,,,,,,,,,,,,,,,,,,,,,,,,,,,,,,,,,,,,,,,,,,,,,,,,,,,,,,,,,,,,,,,,,,,,,,,,,,,,,,,,,,,
,,,,,,60dc2b51b0c4eaa32e391d87,62c53a3858c7705bdcbb4b37,2022-07-06_09h33.06.177,Colour_Asymmetry_Pilot,2022.1.3,Win32,144.092219,62c50e9c1127f2cd403a315f,0,34,34,73,1,onethree,,,,,,,,,,,,,,,,,,,,,,,,,,,,,,,,,,,,,,,,,,,,,,,,,,,,,,,,,,,,,,,,,,,,,,,,,,,,,,,,,,,,,,,,,,,,,,,,,,,,,,,,,,,,,,,,,,,,,,,,,,,,,,,,,,,,,,,,,,,,,,,,,,,,,,,,,,,,,
,,,,,,60dc2b51b0c4eaa32e391d87,62c53a3858c7705bdcbb4b37,2022-07-06_09h33.06.177,Colour_Asymmetry_Pilot,2022.1.3,Win32,144.092219,62c50e9c1127f2cd403a315f,0,35,35,81,1,onethree,,,,,,,,,,,,,,,,,,,,,,,,,,,,,,,,,,,,,,,,,,,,,,,,,,,,,,,,,,,,,,,,,,,,,,,,,,,,,,,,,,,,,,,,,,,,,,,,,,,,,,,,,,,,,,,,,,,,,,,,,,,,,,,,,,,,,,,,,,,,,,,,,,,,,,,,,,,,,
,,,,,,60dc2b51b0c4eaa32e391d87,62c53a3858c7705bdcbb4b37,2022-07-06_09h33.06.177,Colour_Asymmetry_Pilot,2022.1.3,Win32,144.092219,62c50e9c1127f2cd403a315f,0,36,36,132,1,threeone,,,,,,,,,,,,,,,,,,,,,,,,,,,,,,,,,,,,,,,,,,,,,,,,,,,,,,,,,,,,,,,,,,,,,,,,,,,,,,,,,,,,,,,,,,,,,,,,,,,,,,,,,,,,,,,,,,,,,,,,,,,,,,,,,,,,,,,,,,,,,,,,,,,,,,,,,,,,,
,,,,,,60dc2b51b0c4eaa32e391d87,62c53a3858c7705bdcbb4b37,2022-07-06_09h33.06.177,Colour_Asymmetry_Pilot,2022.1.3,Win32,144.092219,62c50e9c1127f2cd403a315f,0,37,37,126,1,fourtwo,,,,,,,,,,,,,,,,,,,,,,,,,,,,,,,,,,,,,,,,,,,,,,,,,,,,,,,,,,,,,,,,,,,,,,,,,,,,,,,,,,,,,,,,,,,,,,,,,,,,,,,,,,,,,,,,,,,,,,,,,,,,,,,,,,,,,,,,,,,,,,,,,,,,,,,,,,,,,
,,,,,,60dc2b51b0c4eaa32e391d87,62c53a3858c7705bdcbb4b37,2022-07-06_09h33.06.177,Colour_Asymmetry_Pilot,2022.1.3,Win32,144.092219,62c50e9c1127f2cd403a315f,0,38,38,135,1,fourthree,,,,,,,,,,,,,,,,,,,,,,,,,,,,,,,,,,,,,,,,,,,,,,,,,,,,,,,,,,,,,,,,,,,,,,,,,,,,,,,,,,,,,,,,,,,,,,,,,,,,,,,,,,,,,,,,,,,,,,,,,,,,,,,,,,,,,,,,,,,,,,,,,,,,,,,,,,,,,
,,,,,,60dc2b51b0c4eaa32e391d87,62c53a3858c7705bdcbb4b37,2022-07-06_09h33.06.177,Colour_Asymmetry_Pilot,2022.1.3,Win32,144.092219,62c50e9c1127f2cd403a315f,0,39,39,54,1,fourtwo,,,,,,,,,,,,,,,,,,,,,,,,,,,,,,,,,,,,,,,,,,,,,,,,,,,,,,,,,,,,,,,,,,,,,,,,,,,,,,,,,,,,,,,,,,,,,,,,,,,,,,,,,,,,,,,,,,,,,,,,,,,,,,,,,,,,,,,,,,,,,,,,,,,,,,,,,,,,,
,,,,,,60dc2b51b0c4eaa32e391d87,62c53a3858c7705bdcbb4b37,2022-07-06_09h33.06.177,Colour_Asymmetry_Pilot,2022.1.3,Win32,144.092219,62c50e9c1127f2cd403a315f,0,40,40,146,1,twoone,,,,,,,,,,,,,,,,,,,,,,,,,,,,,,,,,,,,,,,,,,,,,,,,,,,,,,,,,,,,,,,,,,,,,,,,,,,,,,,,,,,,,,,,,,,,,,,,,,,,,,,,,,,,,,,,,,,,,,,,,,,,,,,,,,,,,,,,,,,,,,,,,,,,,,,,,,,,,
,,,,,,60dc2b51b0c4eaa32e391d87,62c53a3858c7705bdcbb4b37,2022-07-06_09h33.06.177,Colour_Asymmetry_Pilot,2022.1.3,Win32,144.092219,62c50e9c1127f2cd403a315f,0,41,41,11,1,twofour,,,,,,,,,,,,,,,,,,,,,,,,,,,,,,,,,,,,,,,,,,,,,,,,,,,,,,,,,,,,,,,,,,,,,,,,,,,,,,,,,,,,,,,,,,,,,,,,,,,,,,,,,,,,,,,,,,,,,,,,,,,,,,,,,,,,,,,,,,,,,,,,,,,,,,,,,,,,,
,,,,,,60dc2b51b0c4eaa32e391d87,62c53a3858c7705bdcbb4b37,2022-07-06_09h33.06.177,Colour_Asymmetry_Pilot,2022.1.3,Win32,144.092219,62c50e9c1127f2cd403a315f,0,42,42,129,1,onethree,,,,,,,,,,,,,,,,,,,,,,,,,,,,,,,,,,,,,,,,,,,,,,,,,,,,,,,,,,,,,,,,,,,,,,,,,,,,,,,,,,,,,,,,,,,,,,,,,,,,,,,,,,,,,,,,,,,,,,,,,,,,,,,,,,,,,,,,,,,,,,,,,,,,,,,,,,,,,
,,,,,,60dc2b51b0c4eaa32e391d87,62c53a3858c7705bdcbb4b37,2022-07-06_09h33.06.177,Colour_Asymmetry_Pilot,2022.1.3,Win32,144.092219,62c50e9c1127f2cd403a315f,0,43,43,147,1,twofour,,,,,,,,,,,,,,,,,,,,,,,,,,,,,,,,,,,,,,,,,,,,,,,,,,,,,,,,,,,,,,,,,,,,,,,,,,,,,,,,,,,,,,,,,,,,,,,,,,,,,,,,,,,,,,,,,,,,,,,,,,,,,,,,,,,,,,,,,,,,,,,,,,,,,,,,,,,,,
,,,,,,60dc2b51b0c4eaa32e391d87,62c53a3858c7705bdcbb4b37,2022-07-06_09h33.06.177,Colour_Asymmetry_Pilot,2022.1.3,Win32,144.092219,62c50e9c1127f2cd403a315f,0,44,44,72,1,onetwo,,,,,,,,,,,,,,,,,,,,,,,,,,,,,,,,,,,,,,,,,,,,,,,,,,,,,,,,,,,,,,,,,,,,,,,,,,,,,,,,,,,,,,,,,,,,,,,,,,,,,,,,,,,,,,,,,,,,,,,,,,,,,,,,,,,,,,,,,,,,,,,,,,,,,,,,,,,,,
,,,,,,60dc2b51b0c4eaa32e391d87,62c53a3858c7705bdcbb4b37,2022-07-06_09h33.06.177,Colour_Asymmetry_Pilot,2022.1.3,Win32,144.092219,62c50e9c1127f2cd403a315f,0,45,45,100,1,threeone,,,,,,,,,,,,,,,,,,,,,,,,,,,,,,,,,,,,,,,,,,,,,,,,,,,,,,,,,,,,,,,,,,,,,,,,,,,,,,,,,,,,,,,,,,,,,,,,,,,,,,,,,,,,,,,,,,,,,,,,,,,,,,,,,,,,,,,,,,,,,,,,,,,,,,,,,,,,,
,,,,,,60dc2b51b0c4eaa32e391d87,62c53a3858c7705bdcbb4b37,2022-07-06_09h33.06.177,Colour_Asymmetry_Pilot,2022.1.3,Win32,144.092219,62c50e9c1127f2cd403a315f,0,46,46,25,1,onethree,,,,,,,,,,,,,,,,,,,,,,,,,,,,,,,,,,,,,,,,,,,,,,,,,,,,,,,,,,,,,,,,,,,,,,,,,,,,,,,,,,,,,,,,,,,,,,,,,,,,,,,,,,,,,,,,,,,,,,,,,,,,,,,,,,,,,,,,,,,,,,,,,,,,,,,,,,,,,
,,,,,,60dc2b51b0c4eaa32e391d87,62c53a3858c7705bdcbb4b37,2022-07-06_09h33.06.177,Colour_Asymmetry_Pilot,2022.1.3,Win32,144.092219,62c50e9c1127f2cd403a315f,0,47,47,37,1,threefour,,,,,,,,,,,,,,,,,,,,,,,,,,,,,,,,,,,,,,,,,,,,,,,,,,,,,,,,,,,,,,,,,,,,,,,,,,,,,,,,,,,,,,,,,,,,,,,,,,,,,,,,,,,,,,,,,,,,,,,,,,,,,,,,,,,,,,,,,,,,,,,,,,,,,,,,,,,,,
,,,,,,60dc2b51b0c4eaa32e391d87,62c53a3858c7705bdcbb4b37,2022-07-06_09h33.06.177,Colour_Asymmetry_Pilot,2022.1.3,Win32,144.092219,62c50e9c1127f2cd403a315f,0,48,48,28,1,threeone,,,,,,,,,,,,,,,,,,,,,,,,,,,,,,,,,,,,,,,,,,,,,,,,,,,,,,,,,,,,,,,,,,,,,,,,,,,,,,,,,,,,,,,,,,,,,,,,,,,,,,,,,,,,,,,,,,,,,,,,,,,,,,,,,,,,,,,,,,,,,,,,,,,,,,,,,,,,,
,,,,,,60dc2b51b0c4eaa32e391d87,62c53a3858c7705bdcbb4b37,2022-07-06_09h33.06.177,Colour_Asymmetry_Pilot,2022.1.3,Win32,144.092219,62c50e9c1127f2cd403a315f,0,49,49,80,1,onetwo,,,,,,,,,,,,,,,,,,,,,,,,,,,,,,,,,,,,,,,,,,,,,,,,,,,,,,,,,,,,,,,,,,,,,,,,,,,,,,,,,,,,,,,,,,,,,,,,,,,,,,,,,,,,,,,,,,,,,,,,,,,,,,,,,,,,,,,,,,,,,,,,,,,,,,,,,,,,,
,,,,,,60dc2b51b0c4eaa32e391d87,62c53a3858c7705bdcbb4b37,2022-07-06_09h33.06.177,Colour_Asymmetry_Pilot,2022.1.3,Win32,144.092219,62c50e9c1127f2cd403a315f,0,50,50,56,1,onetwo,,,,,,,,,,,,,,,,,,,,,,,,,,,,,,,,,,,,,,,,,,,,,,,,,,,,,,,,,,,,,,,,,,,,,,,,,,,,,,,,,,,,,,,,,,,,,,,,,,,,,,,,,,,,,,,,,,,,,,,,,,,,,,,,,,,,,,,,,,,,,,,,,,,,,,,,,,,,,
,,,,,,60dc2b51b0c4eaa32e391d87,62c53a3858c7705bdcbb4b37,2022-07-06_09h33.06.177,Colour_Asymmetry_Pilot,2022.1.3,Win32,144.092219,62c50e9c1127f2cd403a315f,0,51,51,31,1,fourthree,,,,,,,,,,,,,,,,,,,,,,,,,,,,,,,,,,,,,,,,,,,,,,,,,,,,,,,,,,,,,,,,,,,,,,,,,,,,,,,,,,,,,,,,,,,,,,,,,,,,,,,,,,,,,,,,,,,,,,,,,,,,,,,,,,,,,,,,,,,,,,,,,,,,,,,,,,,,,
,,,,,,60dc2b51b0c4eaa32e391d87,62c53a3858c7705bdcbb4b37,2022-07-06_09h33.06.177,Colour_Asymmetry_Pilot,2022.1.3,Win32,144.092219,62c50e9c1127f2cd403a315f,0,52,52,148,1,threeone,,,,,,,,,,,,,,,,,,,,,,,,,,,,,,,,,,,,,,,,,,,,,,,,,,,,,,,,,,,,,,,,,,,,,,,,,,,,,,,,,,,,,,,,,,,,,,,,,,,,,,,,,,,,,,,,,,,,,,,,,,,,,,,,,,,,,,,,,,,,,,,,,,,,,,,,,,,,,
,,,,,,60dc2b51b0c4eaa32e391d87,62c53a3858c7705bdcbb4b37,2022-07-06_09h33.06.177,Colour_Asymmetry_Pilot,2022.1.3,Win32,144.092219,62c50e9c1127f2cd403a315f,0,53,53,87,1,fourthree,,,,,,,,,,,,,,,,,,,,,,,,,,,,,,,,,,,,,,,,,,,,,,,,,,,,,,,,,,,,,,,,,,,,,,,,,,,,,,,,,,,,,,,,,,,,,,,,,,,,,,,,,,,,,,,,,,,,,,,,,,,,,,,,,,,,,,,,,,,,,,,,,,,,,,,,,,,,,
,,,,,,60dc2b51b0c4eaa32e391d87,62c53a3858c7705bdcbb4b37,2022-07-06_09h33.06.177,Colour_Asymmetry_Pilot,2022.1.3,Win32,144.092219,62c50e9c1127f2cd403a315f,0,54,54,96,1,onetwo,,,,,,,,,,,,,,,,,,,,,,,,,,,,,,,,,,,,,,,,,,,,,,,,,,,,,,,,,,,,,,,,,,,,,,,,,,,,,,,,,,,,,,,,,,,,,,,,,,,,,,,,,,,,,,,,,,,,,,,,,,,,,,,,,,,,,,,,,,,,,,,,,,,,,,,,,,,,,
,,,,,,60dc2b51b0c4eaa32e391d87,62c53a3858c7705bdcbb4b37,2022-07-06_09h33.06.177,Colour_Asymmetry_Pilot,2022.1.3,Win32,144.092219,62c50e9c1127f2cd403a315f,0,55,55,150,1,fourtwo,,,,,,,,,,,,,,,,,,,,,,,,,,,,,,,,,,,,,,,,,,,,,,,,,,,,,,,,,,,,,,,,,,,,,,,,,,,,,,,,,,,,,,,,,,,,,,,,,,,,,,,,,,,,,,,,,,,,,,,,,,,,,,,,,,,,,,,,,,,,,,,,,,,,,,,,,,,,,
,,,,,,60dc2b51b0c4eaa32e391d87,62c53a3858c7705bdcbb4b37,2022-07-06_09h33.06.177,Colour_Asymmetry_Pilot,2022.1.3,Win32,144.092219,62c50e9c1127f2cd403a315f,0,56,56,6,1,fourtwo,,,,,,,,,,,,,,,,,,,,,,,,,,,,,,,,,,,,,,,,,,,,,,,,,,,,,,,,,,,,,,,,,,,,,,,,,,,,,,,,,,,,,,,,,,,,,,,,,,,,,,,,,,,,,,,,,,,,,,,,,,,,,,,,,,,,,,,,,,,,,,,,,,,,,,,,,,,,,
,,,,,,60dc2b51b0c4eaa32e391d87,62c53a3858c7705bdcbb4b37,2022-07-06_09h33.06.177,Colour_Asymmetry_Pilot,2022.1.3,Win32,144.092219,62c50e9c1127f2cd403a315f,0,57,57,116,1,threeone,,,,,,,,,,,,,,,,,,,,,,,,,,,,,,,,,,,,,,,,,,,,,,,,,,,,,,,,,,,,,,,,,,,,,,,,,,,,,,,,,,,,,,,,,,,,,,,,,,,,,,,,,,,,,,,,,,,,,,,,,,,,,,,,,,,,,,,,,,,,,,,,,,,,,,,,,,,,,
,,,,,,60dc2b51b0c4eaa32e391d87,62c53a3858c7705bdcbb4b37,2022-07-06_09h33.06.177,Colour_Asymmetry_Pilot,2022.1.3,Win32,144.092219,62c50e9c1127f2cd403a315f,0,58,58,18,1,twoone,,,,,,,,,,,,,,,,,,,,,,,,,,,,,,,,,,,,,,,,,,,,,,,,,,,,,,,,,,,,,,,,,,,,,,,,,,,,,,,,,,,,,,,,,,,,,,,,,,,,,,,,,,,,,,,,,,,,,,,,,,,,,,,,,,,,,,,,,,,,,,,,,,,,,,,,,,,,,
,,,,,,60dc2b51b0c4eaa32e391d87,62c53a3858c7705bdcbb4b37,2022-07-06_09h33.06.177,Colour_Asymmetry_Pilot,2022.1.3,Win32,144.092219,62c50e9c1127f2cd403a315f,0,59,59,2,1,twoone,,,,,,,,,,,,,,,,,,,,,,,,,,,,,,,,,,,,,,,,,,,,,,,,,,,,,,,,,,,,,,,,,,,,,,,,,,,,,,,,,,,,,,,,,,,,,,,,,,,,,,,,,,,,,,,,,,,,,,,,,,,,,,,,,,,,,,,,,,,,,,,,,,,,,,,,,,,,,
,,,,,,60dc2b51b0c4eaa32e391d87,62c53a3858c7705bdcbb4b37,2022-07-06_09h33.06.177,Colour_Asymmetry_Pilot,2022.1.3,Win32,144.092219,62c50e9c1127f2cd403a315f,0,60,60,151,1,fourthree,,,,,,,,,,,,,,,,,,,,,,,,,,,,,,,,,,,,,,,,,,,,,,,,,,,,,,,,,,,,,,,,,,,,,,,,,,,,,,,,,,,,,,,,,,,,,,,,,,,,,,,,,,,,,,,,,,,,,,,,,,,,,,,,,,,,,,,,,,,,,,,,,,,,,,,,,,,,,
,,,,,,60dc2b51b0c4eaa32e391d87,62c53a3858c7705bdcbb4b37,2022-07-06_09h33.06.177,Colour_Asymmetry_Pilot,2022.1.3,Win32,144.092219,62c50e9c1127f2cd403a315f,0,61,61,85,1,threefour,,,,,,,,,,,,,,,,,,,,,,,,,,,,,,,,,,,,,,,,,,,,,,,,,,,,,,,,,,,,,,,,,,,,,,,,,,,,,,,,,,,,,,,,,,,,,,,,,,,,,,,,,,,,,,,,,,,,,,,,,,,,,,,,,,,,,,,,,,,,,,,,,,,,,,,,,,,,,
,,,,,,60dc2b51b0c4eaa32e391d87,62c53a3858c7705bdcbb4b37,2022-07-06_09h33.06.177,Colour_Asymmetry_Pilot,2022.1.3,Win32,144.092219,62c50e9c1127f2cd403a315f,0,62,62,9,1,onethree,,,,,,,,,,,,,,,,,,,,,,,,,,,,,,,,,,,,,,,,,,,,,,,,,,,,,,,,,,,,,,,,,,,,,,,,,,,,,,,,,,,,,,,,,,,,,,,,,,,,,,,,,,,,,,,,,,,,,,,,,,,,,,,,,,,,,,,,,,,,,,,,,,,,,,,,,,,,,
,,,,,,60dc2b51b0c4eaa32e391d87,62c53a3858c7705bdcbb4b37,2022-07-06_09h33.06.177,Colour_Asymmetry_Pilot,2022.1.3,Win32,144.092219,62c50e9c1127f2cd403a315f,0,63,63,59,1,twofour,,,,,,,,,,,,,,,,,,,,,,,,,,,,,,,,,,,,,,,,,,,,,,,,,,,,,,,,,,,,,,,,,,,,,,,,,,,,,,,,,,,,,,,,,,,,,,,,,,,,,,,,,,,,,,,,,,,,,,,,,,,,,,,,,,,,,,,,,,,,,,,,,,,,,,,,,,,,,
,,,,,,60dc2b51b0c4eaa32e391d87,62c53a3858c7705bdcbb4b37,2022-07-06_09h33.06.177,Colour_Asymmetry_Pilot,2022.1.3,Win32,144.092219,62c50e9c1127f2cd403a315f,0,64,64,47,1,fourthree,,,,,,,,,,,,,,,,,,,,,,,,,,,,,,,,,,,,,,,,,,,,,,,,,,,,,,,,,,,,,,,,,,,,,,,,,,,,,,,,,,,,,,,,,,,,,,,,,,,,,,,,,,,,,,,,,,,,,,,,,,,,,,,,,,,,,,,,,,,,,,,,,,,,,,,,,,,,,
,,,,,,60dc2b51b0c4eaa32e391d87,62c53a3858c7705bdcbb4b37,2022-07-06_09h33.06.177,Colour_Asymmetry_Pilot,2022.1.3,Win32,144.092219,62c50e9c1127f2cd403a315f,0,65,65,127,1,fourthree,,,,,,,,,,,,,,,,,,,,,,,,,,,,,,,,,,,,,,,,,,,,,,,,,,,,,,,,,,,,,,,,,,,,,,,,,,,,,,,,,,,,,,,,,,,,,,,,,,,,,,,,,,,,,,,,,,,,,,,,,,,,,,,,,,,,,,,,,,,,,,,,,,,,,,,,,,,,,
,,,,,,60dc2b51b0c4eaa32e391d87,62c53a3858c7705bdcbb4b37,2022-07-06_09h33.06.177,Colour_Asymmetry_Pilot,2022.1.3,Win32,144.092219,62c50e9c1127f2cd403a315f,0,66,66,21,1,threefour,,,,,,,,,,,,,,,,,,,,,,,,,,,,,,,,,,,,,,,,,,,,,,,,,,,,,,,,,,,,,,,,,,,,,,,,,,,,,,,,,,,,,,,,,,,,,,,,,,,,,,,,,,,,,,,,,,,,,,,,,,,,,,,,,,,,,,,,,,,,,,,,,,,,,,,,,,,,,
,,,,,,60dc2b51b0c4eaa32e391d87,62c53a3858c7705bdcbb4b37,2022-07-06_09h33.06.177,Colour_Asymmetry_Pilot,2022.1.3,Win32,144.092219,62c50e9c1127f2cd403a315f,0,67,67,153,1,onethree,,,,,,,,,,,,,,,,,,,,,,,,,,,,,,,,,,,,,,,,,,,,,,,,,,,,,,,,,,,,,,,,,,,,,,,,,,,,,,,,,,,,,,,,,,,,,,,,,,,,,,,,,,,,,,,,,,,,,,,,,,,,,,,,,,,,,,,,,,,,,,,,,,,,,,,,,,,,,
,,,,,,60dc2b51b0c4eaa32e391d87,62c53a3858c7705bdcbb4b37,2022-07-06_09h33.06.177,Colour_Asymmetry_Pilot,2022.1.3,Win32,144.092219,62c50e9c1127f2cd403a315f,0,68,68,17,1,onethree,,,,,,,,,,,,,,,,,,,,,,,,,,,,,,,,,,,,,,,,,,,,,,,,,,,,,,,,,,,,,,,,,,,,,,,,,,,,,,,,,,,,,,,,,,,,,,,,,,,,,,,,,,,,,,,,,,,,,,,,,,,,,,,,,,,,,,,,,,,,,,,,,,,,,,,,,,,,,
,,,,,,60dc2b51b0c4eaa32e391d87,62c53a3858c7705bdcbb4b37,2022-07-06_09h33.06.177,Colour_Asymmetry_Pilot,2022.1.3,Win32,144.092219,62c50e9c1127f2cd403a315f,0,69,69,14,1,fourtwo,,,,,,,,,,,,,,,,,,,,,,,,,,,,,,,,,,,,,,,,,,,,,,,,,,,,,,,,,,,,,,,,,,,,,,,,,,,,,,,,,,,,,,,,,,,,,,,,,,,,,,,,,,,,,,,,,,,,,,,,,,,,,,,,,,,,,,,,,,,,,,,,,,,,,,,,,,,,,
,,,,,,60dc2b51b0c4eaa32e391d87,62c53a3858c7705bdcbb4b37,2022-07-06_09h33.06.177,Colour_Asymmetry_Pilot,2022.1.3,Win32,144.092219,62c50e9c1127f2cd403a315f,0,70,70,159,1,fourthree,,,,,,,,,,,,,,,,,,,,,,,,,,,,,,,,,,,,,,,,,,,,,,,,,,,,,,,,,,,,,,,,,,,,,,,,,,,,,,,,,,,,,,,,,,,,,,,,,,,,,,,,,,,,,,,,,,,,,,,,,,,,,,,,,,,,,,,,,,,,,,,,,,,,,,,,,,,,,
,,,,,,60dc2b51b0c4eaa32e391d87,62c53a3858c7705bdcbb4b37,2022-07-06_09h33.06.177,Colour_Asymmetry_Pilot,2022.1.3,Win32,144.092219,62c50e9c1127f2cd403a315f,0,71,71,20,1,threeone,,,,,,,,,,,,,,,,,,,,,,,,,,,,,,,,,,,,,,,,,,,,,,,,,,,,,,,,,,,,,,,,,,,,,,,,,,,,,,,,,,,,,,,,,,,,,,,,,,,,,,,,,,,,,,,,,,,,,,,,,,,,,,,,,,,,,,,,,,,,,,,,,,,,,,,,,,,,,
,,,,,,60dc2b51b0c4eaa32e391d87,62c53a3858c7705bdcbb4b37,2022-07-06_09h33.06.177,Colour_Asymmetry_Pilot,2022.1.3,Win32,144.092219,62c50e9c1127f2cd403a315f,0,72,72,103,1,fourthree,,,,,,,,,,,,,,,,,,,,,,,,,,,,,,,,,,,,,,,,,,,,,,,,,,,,,,,,,,,,,,,,,,,,,,,,,,,,,,,,,,,,,,,,,,,,,,,,,,,,,,,,,,,,,,,,,,,,,,,,,,,,,,,,,,,,,,,,,,,,,,,,,,,,,,,,,,,,,
,,,,,,60dc2b51b0c4eaa32e391d87,62c53a3858c7705bdcbb4b37,2022-07-06_09h33.06.177,Colour_Asymmetry_Pilot,2022.1.3,Win32,144.092219,62c50e9c1127f2cd403a315f,0,73,73,13,1,threefour,,,,,,,,,,,,,,,,,,,,,,,,,,,,,,,,,,,,,,,,,,,,,,,,,,,,,,,,,,,,,,,,,,,,,,,,,,,,,,,,,,,,,,,,,,,,,,,,,,,,,,,,,,,,,,,,,,,,,,,,,,,,,,,,,,,,,,,,,,,,,,,,,,,,,,,,,,,,,
,,,,,,60dc2b51b0c4eaa32e391d87,62c53a3858c7705bdcbb4b37,2022-07-06_09h33.06.177,Colour_Asymmetry_Pilot,2022.1.3,Win32,144.092219,62c50e9c1127f2cd403a315f,0,74,74,137,1,onethree,,,,,,,,,,,,,,,,,,,,,,,,,,,,,,,,,,,,,,,,,,,,,,,,,,,,,,,,,,,,,,,,,,,,,,,,,,,,,,,,,,,,,,,,,,,,,,,,,,,,,,,,,,,,,,,,,,,,,,,,,,,,,,,,,,,,,,,,,,,,,,,,,,,,,,,,,,,,,
,,,,,,60dc2b51b0c4eaa32e391d87,62c53a3858c7705bdcbb4b37,2022-07-06_09h33.06.177,Colour_Asymmetry_Pilot,2022.1.3,Win32,144.092219,62c50e9c1127f2cd403a315f,0,75,75,44,1,threeone,,,,,,,,,,,,,,,,,,,,,,,,,,,,,,,,,,,,,,,,,,,,,,,,,,,,,,,,,,,,,,,,,,,,,,,,,,,,,,,,,,,,,,,,,,,,,,,,,,,,,,,,,,,,,,,,,,,,,,,,,,,,,,,,,,,,,,,,,,,,,,,,,,,,,,,,,,,,,
,,,,,,60dc2b51b0c4eaa32e391d87,62c53a3858c7705bdcbb4b37,2022-07-06_09h33.06.177,Colour_Asymmetry_Pilot,2022.1.3,Win32,144.092219,62c50e9c1127f2cd403a315f,0,76,76,60,1,threeone,,,,,,,,,,,,,,,,,,,,,,,,,,,,,,,,,,,,,,,,,,,,,,,,,,,,,,,,,,,,,,,,,,,,,,,,,,,,,,,,,,,,,,,,,,,,,,,,,,,,,,,,,,,,,,,,,,,,,,,,,,,,,,,,,,,,,,,,,,,,,,,,,,,,,,,,,,,,,
,,,,,,60dc2b51b0c4eaa32e391d87,62c53a3858c7705bdcbb4b37,2022-07-06_09h33.06.177,Colour_Asymmetry_Pilot,2022.1.3,Win32,144.092219,62c50e9c1127f2cd403a315f,0,77,77,84,1,threeone,,,,,,,,,,,,,,,,,,,,,,,,,,,,,,,,,,,,,,,,,,,,,,,,,,,,,,,,,,,,,,,,,,,,,,,,,,,,,,,,,,,,,,,,,,,,,,,,,,,,,,,,,,,,,,,,,,,,,,,,,,,,,,,,,,,,,,,,,,,,,,,,,,,,,,,,,,,,,
,,,,,,60dc2b51b0c4eaa32e391d87,62c53a3858c7705bdcbb4b37,2022-07-06_09h33.06.177,Colour_Asymmetry_Pilot,2022.1.3,Win32,144.092219,62c50e9c1127f2cd403a315f,0,78,78,15,1,fourthree,,,,,,,,,,,,,,,,,,,,,,,,,,,,,,,,,,,,,,,,,,,,,,,,,,,,,,,,,,,,,,,,,,,,,,,,,,,,,,,,,,,,,,,,,,,,,,,,,,,,,,,,,,,,,,,,,,,,,,,,,,,,,,,,,,,,,,,,,,,,,,,,,,,,,,,,,,,,,
,,,,,,60dc2b51b0c4eaa32e391d87,62c53a3858c7705bdcbb4b37,2022-07-06_09h33.06.177,Colour_Asymmetry_Pilot,2022.1.3,Win32,144.092219,62c50e9c1127f2cd403a315f,0,79,79,117,1,threefour,,,,,,,,,,,,,,,,,,,,,,,,,,,,,,,,,,,,,,,,,,,,,,,,,,,,,,,,,,,,,,,,,,,,,,,,,,,,,,,,,,,,,,,,,,,,,,,,,,,,,,,,,,,,,,,,,,,,,,,,,,,,,,,,,,,,,,,,,,,,,,,,,,,,,,,,,,,,,
,,,,,,60dc2b51b0c4eaa32e391d87,62c53a3858c7705bdcbb4b37,2022-07-06_09h33.06.177,Colour_Asymmetry_Pilot,2022.1.3,Win32,144.092219,62c50e9c1127f2cd403a315f,0,80,80,108,1,threeone,,,,,,,,,,,,,,,,,,,,,,,,,,,,,,,,,,,,,,,,,,,,,,,,,,,,,,,,,,,,,,,,,,,,,,,,,,,,,,,,,,,,,,,,,,,,,,,,,,,,,,,,,,,,,,,,,,,,,,,,,,,,,,,,,,,,,,,,,,,,,,,,,,,,,,,,,,,,,
,,,,,,60dc2b51b0c4eaa32e391d87,62c53a3858c7705bdcbb4b37,2022-07-06_09h33.06.177,Colour_Asymmetry_Pilot,2022.1.3,Win32,144.092219,62c50e9c1127f2cd403a315f,0,81,81,157,1,threefour,,,,,,,,,,,,,,,,,,,,,,,,,,,,,,,,,,,,,,,,,,,,,,,,,,,,,,,,,,,,,,,,,,,,,,,,,,,,,,,,,,,,,,,,,,,,,,,,,,,,,,,,,,,,,,,,,,,,,,,,,,,,,,,,,,,,,,,,,,,,,,,,,,,,,,,,,,,,,
,,,,,,60dc2b51b0c4eaa32e391d87,62c53a3858c7705bdcbb4b37,2022-07-06_09h33.06.177,Colour_Asymmetry_Pilot,2022.1.3,Win32,144.092219,62c50e9c1127f2cd403a315f,0,82,82,35,1,twofour,,,,,,,,,,,,,,,,,,,,,,,,,,,,,,,,,,,,,,,,,,,,,,,,,,,,,,,,,,,,,,,,,,,,,,,,,,,,,,,,,,,,,,,,,,,,,,,,,,,,,,,,,,,,,,,,,,,,,,,,,,,,,,,,,,,,,,,,,,,,,,,,,,,,,,,,,,,,,
,,,,,,60dc2b51b0c4eaa32e391d87,62c53a3858c7705bdcbb4b37,2022-07-06_09h33.06.177,Colour_Asymmetry_Pilot,2022.1.3,Win32,144.092219,62c50e9c1127f2cd403a315f,0,83,83,149,1,threefour,,,,,,,,,,,,,,,,,,,,,,,,,,,,,,,,,,,,,,,,,,,,,,,,,,,,,,,,,,,,,,,,,,,,,,,,,,,,,,,,,,,,,,,,,,,,,,,,,,,,,,,,,,,,,,,,,,,,,,,,,,,,,,,,,,,,,,,,,,,,,,,,,,,,,,,,,,,,,
,,,,,,60dc2b51b0c4eaa32e391d87,62c53a3858c7705bdcbb4b37,2022-07-06_09h33.06.177,Colour_Asymmetry_Pilot,2022.1.3,Win32,144.092219,62c50e9c1127f2cd403a315f,0,84,84,7,1,fourthree,,,,,,,,,,,,,,,,,,,,,,,,,,,,,,,,,,,,,,,,,,,,,,,,,,,,,,,,,,,,,,,,,,,,,,,,,,,,,,,,,,,,,,,,,,,,,,,,,,,,,,,,,,,,,,,,,,,,,,,,,,,,,,,,,,,,,,,,,,,,,,,,,,,,,,,,,,,,,
,,,,,,60dc2b51b0c4eaa32e391d87,62c53a3858c7705bdcbb4b37,2022-07-06_09h33.06.177,Colour_Asymmetry_Pilot,2022.1.3,Win32,144.092219,62c50e9c1127f2cd403a315f,0,85,85,120,1,onetwo,,,,,,,,,,,,,,,,,,,,,,,,,,,,,,,,,,,,,,,,,,,,,,,,,,,,,,,,,,,,,,,,,,,,,,,,,,,,,,,,,,,,,,,,,,,,,,,,,,,,,,,,,,,,,,,,,,,,,,,,,,,,,,,,,,,,,,,,,,,,,,,,,,,,,,,,,,,,,
,,,,,,60dc2b51b0c4eaa32e391d87,62c53a3858c7705bdcbb4b37,2022-07-06_09h33.06.177,Colour_Asymmetry_Pilot,2022.1.3,Win32,144.092219,62c50e9c1127f2cd403a315f,0,86,86,19,1,twofour,,,,,,,,,,,,,,,,,,,,,,,,,,,,,,,,,,,,,,,,,,,,,,,,,,,,,,,,,,,,,,,,,,,,,,,,,,,,,,,,,,,,,,,,,,,,,,,,,,,,,,,,,,,,,,,,,,,,,,,,,,,,,,,,,,,,,,,,,,,,,,,,,,,,,,,,,,,,,
,,,,,,60dc2b51b0c4eaa32e391d87,62c53a3858c7705bdcbb4b37,2022-07-06_09h33.06.177,Colour_Asymmetry_Pilot,2022.1.3,Win32,144.092219,62c50e9c1127f2cd403a315f,0,87,87,99,1,twofour,,,,,,,,,,,,,,,,,,,,,,,,,,,,,,,,,,,,,,,,,,,,,,,,,,,,,,,,,,,,,,,,,,,,,,,,,,,,,,,,,,,,,,,,,,,,,,,,,,,,,,,,,,,,,,,,,,,,,,,,,,,,,,,,,,,,,,,,,,,,,,,,,,,,,,,,,,,,,
,,,,,,60dc2b51b0c4eaa32e391d87,62c53a3858c7705bdcbb4b37,2022-07-06_09h33.06.177,Colour_Asymmetry_Pilot,2022.1.3,Win32,144.092219,62c50e9c1127f2cd403a315f,0,88,88,36,1,threeone,,,,,,,,,,,,,,,,,,,,,,,,,,,,,,,,,,,,,,,,,,,,,,,,,,,,,,,,,,,,,,,,,,,,,,,,,,,,,,,,,,,,,,,,,,,,,,,,,,,,,,,,,,,,,,,,,,,,,,,,,,,,,,,,,,,,,,,,,,,,,,,,,,,,,,,,,,,,,
,,,,,,60dc2b51b0c4eaa32e391d87,62c53a3858c7705bdcbb4b37,2022-07-06_09h33.06.177,Colour_Asymmetry_Pilot,2022.1.3,Win32,144.092219,62c50e9c1127f2cd403a315f,0,89,89,112,1,onetwo,,,,,,,,,,,,,,,,,,,,,,,,,,,,,,,,,,,,,,,,,,,,,,,,,,,,,,,,,,,,,,,,,,,,,,,,,,,,,,,,,,,,,,,,,,,,,,,,,,,,,,,,,,,,,,,,,,,,,,,,,,,,,,,,,,,,,,,,,,,,,,,,,,,,,,,,,,,,,
,,,,,,60dc2b51b0c4eaa32e391d87,62c53a3858c7705bdcbb4b37,2022-07-06_09h33.06.177,Colour_Asymmetry_Pilot,2022.1.3,Win32,144.092219,62c50e9c1127f2cd403a315f,0,90,90,145,1,onethree,,,,,,,,,,,,,,,,,,,,,,,,,,,,,,,,,,,,,,,,,,,,,,,,,,,,,,,,,,,,,,,,,,,,,,,,,,,,,,,,,,,,,,,,,,,,,,,,,,,,,,,,,,,,,,,,,,,,,,,,,,,,,,,,,,,,,,,,,,,,,,,,,,,,,,,,,,,,,
,,,,,,60dc2b51b0c4eaa32e391d87,62c53a3858c7705bdcbb4b37,2022-07-06_09h33.06.177,Colour_Asymmetry_Pilot,2022.1.3,Win32,144.092219,62c50e9c1127f2cd403a315f,0,91,91,70,1,fourtwo,,,,,,,,,,,,,,,,,,,,,,,,,,,,,,,,,,,,,,,,,,,,,,,,,,,,,,,,,,,,,,,,,,,,,,,,,,,,,,,,,,,,,,,,,,,,,,,,,,,,,,,,,,,,,,,,,,,,,,,,,,,,,,,,,,,,,,,,,,,,,,,,,,,,,,,,,,,,,
,,,,,,60dc2b51b0c4eaa32e391d87,62c53a3858c7705bdcbb4b37,2022-07-06_09h33.06.177,Colour_Asymmetry_Pilot,2022.1.3,Win32,144.092219,62c50e9c1127f2cd403a315f,0,92,92,97,1,onethree,,,,,,,,,,,,,,,,,,,,,,,,,,,,,,,,,,,,,,,,,,,,,,,,,,,,,,,,,,,,,,,,,,,,,,,,,,,,,,,,,,,,,,,,,,,,,,,,,,,,,,,,,,,,,,,,,,,,,,,,,,,,,,,,,,,,,,,,,,,,,,,,,,,,,,,,,,,,,
,,,,,,60dc2b51b0c4eaa32e391d87,62c53a3858c7705bdcbb4b37,2022-07-06_09h33.06.177,Colour_Asymmetry_Pilot,2022.1.3,Win32,144.092219,62c50e9c1127f2cd403a315f,0,93,93,46,1,fourtwo,,,,,,,,,,,,,,,,,,,,,,,,,,,,,,,,,,,,,,,,,,,,,,,,,,,,,,,,,,,,,,,,,,,,,,,,,,,,,,,,,,,,,,,,,,,,,,,,,,,,,,,,,,,,,,,,,,,,,,,,,,,,,,,,,,,,,,,,,,,,,,,,,,,,,,,,,,,,,
,,,,,,60dc2b51b0c4eaa32e391d87,62c53a3858c7705bdcbb4b37,2022-07-06_09h33.06.177,Colour_Asymmetry_Pilot,2022.1.3,Win32,144.092219,62c50e9c1127f2cd403a315f,0,94,94,76,1,threeone,,,,,,,,,,,,,,,,,,,,,,,,,,,,,,,,,,,,,,,,,,,,,,,,,,,,,,,,,,,,,,,,,,,,,,,,,,,,,,,,,,,,,,,,,,,,,,,,,,,,,,,,,,,,,,,,,,,,,,,,,,,,,,,,,,,,,,,,,,,,,,,,,,,,,,,,,,,,,
,,,,,,60dc2b51b0c4eaa32e391d87,62c53a3858c7705bdcbb4b37,2022-07-06_09h33.06.177,Colour_Asymmetry_Pilot,2022.1.3,Win32,144.092219,62c50e9c1127f2cd403a315f,0,95,95,102,1,fourtwo,,,,,,,,,,,,,,,,,,,,,,,,,,,,,,,,,,,,,,,,,,,,,,,,,,,,,,,,,,,,,,,,,,,,,,,,,,,,,,,,,,,,,,,,,,,,,,,,,,,,,,,,,,,,,,,,,,,,,,,,,,,,,,,,,,,,,,,,,,,,,,,,,,,,,,,,,,,,,
,,,,,,60dc2b51b0c4eaa32e391d87,62c53a3858c7705bdcbb4b37,2022-07-06_09h33.06.177,Colour_Asymmetry_Pilot,2022.1.3,Win32,144.092219,62c50e9c1127f2cd403a315f,0,96,96,82,1,twoone,,,,,,,,,,,,,,,,,,,,,,,,,,,,,,,,,,,,,,,,,,,,,,,,,,,,,,,,,,,,,,,,,,,,,,,,,,,,,,,,,,,,,,,,,,,,,,,,,,,,,,,,,,,,,,,,,,,,,,,,,,,,,,,,,,,,,,,,,,,,,,,,,,,,,,,,,,,,,
,,,,,,60dc2b51b0c4eaa32e391d87,62c53a3858c7705bdcbb4b37,2022-07-06_09h33.06.177,Colour_Asymmetry_Pilot,2022.1.3,Win32,144.092219,62c50e9c1127f2cd403a315f,0,97,97,65,1,onethree,,,,,,,,,,,,,,,,,,,,,,,,,,,,,,,,,,,,,,,,,,,,,,,,,,,,,,,,,,,,,,,,,,,,,,,,,,,,,,,,,,,,,,,,,,,,,,,,,,,,,,,,,,,,,,,,,,,,,,,,,,,,,,,,,,,,,,,,,,,,,,,,,,,,,,,,,,,,,
,,,,,,60dc2b51b0c4eaa32e391d87,62c53a3858c7705bdcbb4b37,2022-07-06_09h33.06.177,Colour_Asymmetry_Pilot,2022.1.3,Win32,144.092219,62c50e9c1127f2cd403a315f,0,98,98,121,1,onethree,,,,,,,,,,,,,,,,,,,,,,,,,,,,,,,,,,,,,,,,,,,,,,,,,,,,,,,,,,,,,,,,,,,,,,,,,,,,,,,,,,,,,,,,,,,,,,,,,,,,,,,,,,,,,,,,,,,,,,,,,,,,,,,,,,,,,,,,,,,,,,,,,,,,,,,,,,,,,
,,,,,,60dc2b51b0c4eaa32e391d87,62c53a3858c7705bdcbb4b37,2022-07-06_09h33.06.177,Colour_Asymmetry_Pilot,2022.1.3,Win32,144.092219,62c50e9c1127f2cd403a315f,0,99,99,45,1,threefour,,,,,,,,,,,,,,,,,,,,,,,,,,,,,,,,,,,,,,,,,,,,,,,,,,,,,,,,,,,,,,,,,,,,,,,,,,,,,,,,,,,,,,,,,,,,,,,,,,,,,,,,,,,,,,,,,,,,,,,,,,,,,,,,,,,,,,,,,,,,,,,,,,,,,,,,,,,,,
,,,,,,60dc2b51b0c4eaa32e391d87,62c53a3858c7705bdcbb4b37,2022-07-06_09h33.06.177,Colour_Asymmetry_Pilot,2022.1.3,Win32,144.092219,62c50e9c1127f2cd403a315f,0,100,100,86,1,fourtwo,,,,,,,,,,,,,,,,,,,,,,,,,,,,,,,,,,,,,,,,,,,,,,,,,,,,,,,,,,,,,,,,,,,,,,,,,,,,,,,,,,,,,,,,,,,,,,,,,,,,,,,,,,,,,,,,,,,,,,,,,,,,,,,,,,,,,,,,,,,,,,,,,,,,,,,,,,,,,
,,,,,,60dc2b51b0c4eaa32e391d87,62c53a3858c7705bdcbb4b37,2022-07-06_09h33.06.177,Colour_Asymmetry_Pilot,2022.1.3,Win32,144.092219,62c50e9c1127f2cd403a315f,0,101,101,48,1,onetwo,,,,,,,,,,,,,,,,,,,,,,,,,,,,,,,,,,,,,,,,,,,,,,,,,,,,,,,,,,,,,,,,,,,,,,,,,,,,,,,,,,,,,,,,,,,,,,,,,,,,,,,,,,,,,,,,,,,,,,,,,,,,,,,,,,,,,,,,,,,,,,,,,,,,,,,,,,,,,
,,,,,,60dc2b51b0c4eaa32e391d87,62c53a3858c7705bdcbb4b37,2022-07-06_09h33.06.177,Colour_Asymmetry_Pilot,2022.1.3,Win32,144.092219,62c50e9c1127f2cd403a315f,0,102,102,61,1,threefour,,,,,,,,,,,,,,,,,,,,,,,,,,,,,,,,,,,,,,,,,,,,,,,,,,,,,,,,,,,,,,,,,,,,,,,,,,,,,,,,,,,,,,,,,,,,,,,,,,,,,,,,,,,,,,,,,,,,,,,,,,,,,,,,,,,,,,,,,,,,,,,,,,,,,,,,,,,,,
,,,,,,60dc2b51b0c4eaa32e391d87,62c53a3858c7705bdcbb4b37,2022-07-06_09h33.06.177,Colour_Asymmetry_Pilot,2022.1.3,Win32,144.092219,62c50e9c1127f2cd403a315f,0,103,103,107,1,twofour,,,,,,,,,,,,,,,,,,,,,,,,,,,,,,,,,,,,,,,,,,,,,,,,,,,,,,,,,,,,,,,,,,,,,,,,,,,,,,,,,,,,,,,,,,,,,,,,,,,,,,,,,,,,,,,,,,,,,,,,,,,,,,,,,,,,,,,,,,,,,,,,,,,,,,,,,,,,,
,,,,,,60dc2b51b0c4eaa32e391d87,62c53a3858c7705bdcbb4b37,2022-07-06_09h33.06.177,Colour_Asymmetry_Pilot,2022.1.3,Win32,144.092219,62c50e9c1127f2cd403a315f,0,104,104,3,1,twofour,,,,,,,,,,,,,,,,,,,,,,,,,,,,,,,,,,,,,,,,,,,,,,,,,,,,,,,,,,,,,,,,,,,,,,,,,,,,,,,,,,,,,,,,,,,,,,,,,,,,,,,,,,,,,,,,,,,,,,,,,,,,,,,,,,,,,,,,,,,,,,,,,,,,,,,,,,,,,
,,,,,,60dc2b51b0c4eaa32e391d87,62c53a3858c7705bdcbb4b37,2022-07-06_09h33.06.177,Colour_Asymmetry_Pilot,2022.1.3,Win32,144.092219,62c50e9c1127f2cd403a315f,0,105,105,125,1,threefour,,,,,,,,,,,,,,,,,,,,,,,,,,,,,,,,,,,,,,,,,,,,,,,,,,,,,,,,,,,,,,,,,,,,,,,,,,,,,,,,,,,,,,,,,,,,,,,,,,,,,,,,,,,,,,,,,,,,,,,,,,,,,,,,,,,,,,,,,,,,,,,,,,,,,,,,,,,,,
,,,,,,60dc2b51b0c4eaa32e391d87,62c53a3858c7705bdcbb4b37,2022-07-06_09h33.06.177,Colour_Asymmetry_Pilot,2022.1.3,Win32,144.092219,62c50e9c1127f2cd403a315f,0,106,106,55,1,fourthree,,,,,,,,,,,,,,,,,,,,,,,,,,,,,,,,,,,,,,,,,,,,,,,,,,,,,,,,,,,,,,,,,,,,,,,,,,,,,,,,,,,,,,,,,,,,,,,,,,,,,,,,,,,,,,,,,,,,,,,,,,,,,,,,,,,,,,,,,,,,,,,,,,,,,,,,,,,,,
,,,,,,60dc2b51b0c4eaa32e391d87,62c53a3858c7705bdcbb4b37,2022-07-06_09h33.06.177,Colour_Asymmetry_Pilot,2022.1.3,Win32,144.092219,62c50e9c1127f2cd403a315f,0,107,107,64,1,onetwo,,,,,,,,,,,,,,,,,,,,,,,,,,,,,,,,,,,,,,,,,,,,,,,,,,,,,,,,,,,,,,,,,,,,,,,,,,,,,,,,,,,,,,,,,,,,,,,,,,,,,,,,,,,,,,,,,,,,,,,,,,,,,,,,,,,,,,,,,,,,,,,,,,,,,,,,,,,,,
,,,,,,60dc2b51b0c4eaa32e391d87,62c53a3858c7705bdcbb4b37,2022-07-06_09h33.06.177,Colour_Asymmetry_Pilot,2022.1.3,Win32,144.092219,62c50e9c1127f2cd403a315f,0,108,108,63,1,fourthree,,,,,,,,,,,,,,,,,,,,,,,,,,,,,,,,,,,,,,,,,,,,,,,,,,,,,,,,,,,,,,,,,,,,,,,,,,,,,,,,,,,,,,,,,,,,,,,,,,,,,,,,,,,,,,,,,,,,,,,,,,,,,,,,,,,,,,,,,,,,,,,,,,,,,,,,,,,,,
,,,,,,60dc2b51b0c4eaa32e391d87,62c53a3858c7705bdcbb4b37,2022-07-06_09h33.06.177,Colour_Asymmetry_Pilot,2022.1.3,Win32,144.092219,62c50e9c1127f2cd403a315f,0,109,109,49,1,onethree,,,,,,,,,,,,,,,,,,,,,,,,,,,,,,,,,,,,,,,,,,,,,,,,,,,,,,,,,,,,,,,,,,,,,,,,,,,,,,,,,,,,,,,,,,,,,,,,,,,,,,,,,,,,,,,,,,,,,,,,,,,,,,,,,,,,,,,,,,,,,,,,,,,,,,,,,,,,,
,,,,,,60dc2b51b0c4eaa32e391d87,62c53a3858c7705bdcbb4b37,2022-07-06_09h33.06.177,Colour_Asymmetry_Pilot,2022.1.3,Win32,144.092219,62c50e9c1127f2cd403a315f,0,110,110,24,1,onetwo,,,,,,,,,,,,,,,,,,,,,,,,,,,,,,,,,,,,,,,,,,,,,,,,,,,,,,,,,,,,,,,,,,,,,,,,,,,,,,,,,,,,,,,,,,,,,,,,,,,,,,,,,,,,,,,,,,,,,,,,,,,,,,,,,,,,,,,,,,,,,,,,,,,,,,,,,,,,,
,,,,,,60dc2b51b0c4eaa32e391d87,62c53a3858c7705bdcbb4b37,2022-07-06_09h33.06.177,Colour_Asymmetry_Pilot,2022.1.3,Win32,144.092219,62c50e9c1127f2cd403a315f,0,111,111,140,1,threeone,,,,,,,,,,,,,,,,,,,,,,,,,,,,,,,,,,,,,,,,,,,,,,,,,,,,,,,,,,,,,,,,,,,,,,,,,,,,,,,,,,,,,,,,,,,,,,,,,,,,,,,,,,,,,,,,,,,,,,,,,,,,,,,,,,,,,,,,,,,,,,,,,,,,,,,,,,,,,
,,,,,,60dc2b51b0c4eaa32e391d87,62c53a3858c7705bdcbb4b37,2022-07-06_09h33.06.177,Colour_Asymmetry_Pilot,2022.1.3,Win32,144.092219,62c50e9c1127f2cd403a315f,0,112,112,110,1,fourtwo,,,,,,,,,,,,,,,,,,,,,,,,,,,,,,,,,,,,,,,,,,,,,,,,,,,,,,,,,,,,,,,,,,,,,,,,,,,,,,,,,,,,,,,,,,,,,,,,,,,,,,,,,,,,,,,,,,,,,,,,,,,,,,,,,,,,,,,,,,,,,,,,,,,,,,,,,,,,,
,,,,,,60dc2b51b0c4eaa32e391d87,62c53a3858c7705bdcbb4b37,2022-07-06_09h33.06.177,Colour_Asymmetry_Pilot,2022.1.3,Win32,144.092219,62c50e9c1127f2cd403a315f,0,113,113,133,1,threefour,,,,,,,,,,,,,,,,,,,,,,,,,,,,,,,,,,,,,,,,,,,,,,,,,,,,,,,,,,,,,,,,,,,,,,,,,,,,,,,,,,,,,,,,,,,,,,,,,,,,,,,,,,,,,,,,,,,,,,,,,,,,,,,,,,,,,,,,,,,,,,,,,,,,,,,,,,,,,
,,,,,,60dc2b51b0c4eaa32e391d87,62c53a3858c7705bdcbb4b37,2022-07-06_09h33.06.177,Colour_Asymmetry_Pilot,2022.1.3,Win32,144.092219,62c50e9c1127f2cd403a315f,0,114,114,111,1,fourthree,,,,,,,,,,,,,,,,,,,,,,,,,,,,,,,,,,,,,,,,,,,,,,,,,,,,,,,,,,,,,,,,,,,,,,,,,,,,,,,,,,,,,,,,,,,,,,,,,,,,,,,,,,,,,,,,,,,,,,,,,,,,,,,,,,,,,,,,,,,,,,,,,,,,,,,,,,,,,
,,,,,,60dc2b51b0c4eaa32e391d87,62c53a3858c7705bdcbb4b37,2022-07-06_09h33.06.177,Colour_Asymmetry_Pilot,2022.1.3,Win32,144.092219,62c50e9c1127f2cd403a315f,0,115,115,134,1,fourtwo,,,,,,,,,,,,,,,,,,,,,,,,,,,,,,,,,,,,,,,,,,,,,,,,,,,,,,,,,,,,,,,,,,,,,,,,,,,,,,,,,,,,,,,,,,,,,,,,,,,,,,,,,,,,,,,,,,,,,,,,,,,,,,,,,,,,,,,,,,,,,,,,,,,,,,,,,,,,,
,,,,,,60dc2b51b0c4eaa32e391d87,62c53a3858c7705bdcbb4b37,2022-07-06_09h33.06.177,Colour_Asymmetry_Pilot,2022.1.3,Win32,144.092219,62c50e9c1127f2cd403a315f,0,116,116,32,1,onetwo,,,,,,,,,,,,,,,,,,,,,,,,,,,,,,,,,,,,,,,,,,,,,,,,,,,,,,,,,,,,,,,,,,,,,,,,,,,,,,,,,,,,,,,,,,,,,,,,,,,,,,,,,,,,,,,,,,,,,,,,,,,,,,,,,,,,,,,,,,,,,,,,,,,,,,,,,,,,,
,,,,,,60dc2b51b0c4eaa32e391d87,62c53a3858c7705bdcbb4b37,2022-07-06_09h33.06.177,Colour_Asymmetry_Pilot,2022.1.3,Win32,144.092219,62c50e9c1127f2cd403a315f,0,117,117,30,1,fourtwo,,,,,,,,,,,,,,,,,,,,,,,,,,,,,,,,,,,,,,,,,,,,,,,,,,,,,,,,,,,,,,,,,,,,,,,,,,,,,,,,,,,,,,,,,,,,,,,,,,,,,,,,,,,,,,,,,,,,,,,,,,,,,,,,,,,,,,,,,,,,,,,,,,,,,,,,,,,,,
,,,,,,60dc2b51b0c4eaa32e391d87,62c53a3858c7705bdcbb4b37,2022-07-06_09h33.06.177,Colour_Asymmetry_Pilot,2022.1.3,Win32,144.092219,62c50e9c1127f2cd403a315f,0,118,118,88,1,onetwo,,,,,,,,,,,,,,,,,,,,,,,,,,,,,,,,,,,,,,,,,,,,,,,,,,,,,,,,,,,,,,,,,,,,,,,,,,,,,,,,,,,,,,,,,,,,,,,,,,,,,,,,,,,,,,,,,,,,,,,,,,,,,,,,,,,,,,,,,,,,,,,,,,,,,,,,,,,,,
,,,,,,60dc2b51b0c4eaa32e391d87,62c53a3858c7705bdcbb4b37,2022-07-06_09h33.06.177,Colour_Asymmetry_Pilot,2022.1.3,Win32,144.092219,62c50e9c1127f2cd403a315f,0,119,119,38,1,fourtwo,,,,,,,,,,,,,,,,,,,,,,,,,,,,,,,,,,,,,,,,,,,,,,,,,,,,,,,,,,,,,,,,,,,,,,,,,,,,,,,,,,,,,,,,,,,,,,,,,,,,,,,,,,,,,,,,,,,,,,,,,,,,,,,,,,,,,,,,,,,,,,,,,,,,,,,,,,,,,
,,,,,,60dc2b51b0c4eaa32e391d87,62c53a3858c7705bdcbb4b37,2022-07-06_09h33.06.177,Colour_Asymmetry_Pilot,2022.1.3,Win32,144.092219,62c50e9c1127f2cd403a315f,0,120,120,124,1,threeone,,,,,,,,,,,,,,,,,,,,,,,,,,,,,,,,,,,,,,,,,,,,,,,,,,,,,,,,,,,,,,,,,,,,,,,,,,,,,,,,,,,,,,,,,,,,,,,,,,,,,,,,,,,,,,,,,,,,,,,,,,,,,,,,,,,,,,,,,,,,,,,,,,,,,,,,,,,,,
,,,,,,60dc2b51b0c4eaa32e391d87,62c53a3858c7705bdcbb4b37,2022-07-06_09h33.06.177,Colour_Asymmetry_Pilot,2022.1.3,Win32,144.092219,62c50e9c1127f2cd403a315f,0,121,121,89,1,onethree,,,,,,,,,,,,,,,,,,,,,,,,,,,,,,,,,,,,,,,,,,,,,,,,,,,,,,,,,,,,,,,,,,,,,,,,,,,,,,,,,,,,,,,,,,,,,,,,,,,,,,,,,,,,,,,,,,,,,,,,,,,,,,,,,,,,,,,,,,,,,,,,,,,,,,,,,,,,,
,,,,,,60dc2b51b0c4eaa32e391d87,62c53a3858c7705bdcbb4b37,2022-07-06_09h33.06.177,Colour_Asymmetry_Pilot,2022.1.3,Win32,144.092219,62c50e9c1127f2cd403a315f,0,122,122,29,1,threefour,,,,,,,,,,,,,,,,,,,,,,,,,,,,,,,,,,,,,,,,,,,,,,,,,,,,,,,,,,,,,,,,,,,,,,,,,,,,,,,,,,,,,,,,,,,,,,,,,,,,,,,,,,,,,,,,,,,,,,,,,,,,,,,,,,,,,,,,,,,,,,,,,,,,,,,,,,,,,
,,,,,,60dc2b51b0c4eaa32e391d87,62c53a3858c7705bdcbb4b37,2022-07-06_09h33.06.177,Colour_Asymmetry_Pilot,2022.1.3,Win32,144.092219,62c50e9c1127f2cd403a315f,0,123,123,142,1,fourtwo,,,,,,,,,,,,,,,,,,,,,,,,,,,,,,,,,,,,,,,,,,,,,,,,,,,,,,,,,,,,,,,,,,,,,,,,,,,,,,,,,,,,,,,,,,,,,,,,,,,,,,,,,,,,,,,,,,,,,,,,,,,,,,,,,,,,,,,,,,,,,,,,,,,,,,,,,,,,,
,,,,,,60dc2b51b0c4eaa32e391d87,62c53a3858c7705bdcbb4b37,2022-07-06_09h33.06.177,Colour_Asymmetry_Pilot,2022.1.3,Win32,144.092219,62c50e9c1127f2cd403a315f,0,124,124,52,1,threeone,,,,,,,,,,,,,,,,,,,,,,,,,,,,,,,,,,,,,,,,,,,,,,,,,,,,,,,,,,,,,,,,,,,,,,,,,,,,,,,,,,,,,,,,,,,,,,,,,,,,,,,,,,,,,,,,,,,,,,,,,,,,,,,,,,,,,,,,,,,,,,,,,,,,,,,,,,,,,
,,,,,,60dc2b51b0c4eaa32e391d87,62c53a3858c7705bdcbb4b37,2022-07-06_09h33.06.177,Colour_Asymmetry_Pilot,2022.1.3,Win32,144.092219,62c50e9c1127f2cd403a315f,0,125,125,71,1,fourthree,,,,,,,,,,,,,,,,,,,,,,,,,,,,,,,,,,,,,,,,,,,,,,,,,,,,,,,,,,,,,,,,,,,,,,,,,,,,,,,,,,,,,,,,,,,,,,,,,,,,,,,,,,,,,,,,,,,,,,,,,,,,,,,,,,,,,,,,,,,,,,,,,,,,,,,,,,,,,
,,,,,,60dc2b51b0c4eaa32e391d87,62c53a3858c7705bdcbb4b37,2022-07-06_09h33.06.177,Colour_Asymmetry_Pilot,2022.1.3,Win32,144.092219,62c50e9c1127f2cd403a315f,0,126,126,83,1,twofour,,,,,,,,,,,,,,,,,,,,,,,,,,,,,,,,,,,,,,,,,,,,,,,,,,,,,,,,,,,,,,,,,,,,,,,,,,,,,,,,,,,,,,,,,,,,,,,,,,,,,,,,,,,,,,,,,,,,,,,,,,,,,,,,,,,,,,,,,,,,,,,,,,,,,,,,,,,,,
,,,,,,60dc2b51b0c4eaa32e391d87,62c53a3858c7705bdcbb4b37,2022-07-06_09h33.06.177,Colour_Asymmetry_Pilot,2022.1.3,Win32,144.092219,62c50e9c1127f2cd403a315f,0,127,127,0,1,onetwo,,,,,,,,,,,,,,,,,,,,,,,,,,,,,,,,,,,,,,,,,,,,,,,,,,,,,,,,,,,,,,,,,,,,,,,,,,,,,,,,,,,,,,,,,,,,,,,,,,,,,,,,,,,,,,,,,,,,,,,,,,,,,,,,,,,,,,,,,,,,,,,,,,,,,,,,,,,,,
,,,,,,60dc2b51b0c4eaa32e391d87,62c53a3858c7705bdcbb4b37,2022-07-06_09h33.06.177,Colour_Asymmetry_Pilot,2022.1.3,Win32,144.092219,62c50e9c1127f2cd403a315f,0,128,128,10,1,twoone,,,,,,,,,,,,,,,,,,,,,,,,,,,,,,,,,,,,,,,,,,,,,,,,,,,,,,,,,,,,,,,,,,,,,,,,,,,,,,,,,,,,,,,,,,,,,,,,,,,,,,,,,,,,,,,,,,,,,,,,,,,,,,,,,,,,,,,,,,,,,,,,,,,,,,,,,,,,,
,,,,,,60dc2b51b0c4eaa32e391d87,62c53a3858c7705bdcbb4b37,2022-07-06_09h33.06.177,Colour_Asymmetry_Pilot,2022.1.3,Win32,144.092219,62c50e9c1127f2cd403a315f,0,129,129,91,1,twofour,,,,,,,,,,,,,,,,,,,,,,,,,,,,,,,,,,,,,,,,,,,,,,,,,,,,,,,,,,,,,,,,,,,,,,,,,,,,,,,,,,,,,,,,,,,,,,,,,,,,,,,,,,,,,,,,,,,,,,,,,,,,,,,,,,,,,,,,,,,,,,,,,,,,,,,,,,,,,
,,,,,,60dc2b51b0c4eaa32e391d87,62c53a3858c7705bdcbb4b37,2022-07-06_09h33.06.177,Colour_Asymmetry_Pilot,2022.1.3,Win32,144.092219,62c50e9c1127f2cd403a315f,0,130,130,4,1,threeone,,,,,,,,,,,,,,,,,,,,,,,,,,,,,,,,,,,,,,,,,,,,,,,,,,,,,,,,,,,,,,,,,,,,,,,,,,,,,,,,,,,,,,,,,,,,,,,,,,,,,,,,,,,,,,,,,,,,,,,,,,,,,,,,,,,,,,,,,,,,,,,,,,,,,,,,,,,,,
,,,,,,60dc2b51b0c4eaa32e391d87,62c53a3858c7705bdcbb4b37,2022-07-06_09h33.06.177,Colour_Asymmetry_Pilot,2022.1.3,Win32,144.092219,62c50e9c1127f2cd403a315f,0,131,131,12,1,threeone,,,,,,,,,,,,,,,,,,,,,,,,,,,,,,,,,,,,,,,,,,,,,,,,,,,,,,,,,,,,,,,,,,,,,,,,,,,,,,,,,,,,,,,,,,,,,,,,,,,,,,,,,,,,,,,,,,,,,,,,,,,,,,,,,,,,,,,,,,,,,,,,,,,,,,,,,,,,,
,,,,,,60dc2b51b0c4eaa32e391d87,62c53a3858c7705bdcbb4b37,2022-07-06_09h33.06.177,Colour_Asymmetry_Pilot,2022.1.3,Win32,144.092219,62c50e9c1127f2cd403a315f,0,132,132,92,1,threeone,,,,,,,,,,,,,,,,,,,,,,,,,,,,,,,,,,,,,,,,,,,,,,,,,,,,,,,,,,,,,,,,,,,,,,,,,,,,,,,,,,,,,,,,,,,,,,,,,,,,,,,,,,,,,,,,,,,,,,,,,,,,,,,,,,,,,,,,,,,,,,,,,,,,,,,,,,,,,
,,,,,,60dc2b51b0c4eaa32e391d87,62c53a3858c7705bdcbb4b37,2022-07-06_09h33.06.177,Colour_Asymmetry_Pilot,2022.1.3,Win32,144.092219,62c50e9c1127f2cd403a315f,0,133,133,93,1,threefour,,,,,,,,,,,,,,,,,,,,,,,,,,,,,,,,,,,,,,,,,,,,,,,,,,,,,,,,,,,,,,,,,,,,,,,,,,,,,,,,,,,,,,,,,,,,,,,,,,,,,,,,,,,,,,,,,,,,,,,,,,,,,,,,,,,,,,,,,,,,,,,,,,,,,,,,,,,,,
,,,,,,60dc2b51b0c4eaa32e391d87,62c53a3858c7705bdcbb4b37,2022-07-06_09h33.06.177,Colour_Asymmetry_Pilot,2022.1.3,Win32,144.092219,62c50e9c1127f2cd403a315f,0,134,134,114,1,twoone,,,,,,,,,,,,,,,,,,,,,,,,,,,,,,,,,,,,,,,,,,,,,,,,,,,,,,,,,,,,,,,,,,,,,,,,,,,,,,,,,,,,,,,,,,,,,,,,,,,,,,,,,,,,,,,,,,,,,,,,,,,,,,,,,,,,,,,,,,,,,,,,,,,,,,,,,,,,,
,,,,,,60dc2b51b0c4eaa32e391d87,62c53a3858c7705bdcbb4b37,2022-07-06_09h33.06.177,Colour_Asymmetry_Pilot,2022.1.3,Win32,144.092219,62c50e9c1127f2cd403a315f,0,135,135,39,1,fourthree,,,,,,,,,,,,,,,,,,,,,,,,,,,,,,,,,,,,,,,,,,,,,,,,,,,,,,,,,,,,,,,,,,,,,,,,,,,,,,,,,,,,,,,,,,,,,,,,,,,,,,,,,,,,,,,,,,,,,,,,,,,,,,,,,,,,,,,,,,,,,,,,,,,,,,,,,,,,,
,,,,,,60dc2b51b0c4eaa32e391d87,62c53a3858c7705bdcbb4b37,2022-07-06_09h33.06.177,Colour_Asymmetry_Pilot,2022.1.3,Win32,144.092219,62c50e9c1127f2cd403a315f,0,136,136,66,1,twoone,,,,,,,,,,,,,,,,,,,,,,,,,,,,,,,,,,,,,,,,,,,,,,,,,,,,,,,,,,,,,,,,,,,,,,,,,,,,,,,,,,,,,,,,,,,,,,,,,,,,,,,,,,,,,,,,,,,,,,,,,,,,,,,,,,,,,,,,,,,,,,,,,,,,,,,,,,,,,
,,,,,,60dc2b51b0c4eaa32e391d87,62c53a3858c7705bdcbb4b37,2022-07-06_09h33.06.177,Colour_Asymmetry_Pilot,2022.1.3,Win32,144.092219,62c50e9c1127f2cd403a315f,0,137,137,51,1,twofour,,,,,,,,,,,,,,,,,,,,,,,,,,,,,,,,,,,,,,,,,,,,,,,,,,,,,,,,,,,,,,,,,,,,,,,,,,,,,,,,,,,,,,,,,,,,,,,,,,,,,,,,,,,,,,,,,,,,,,,,,,,,,,,,,,,,,,,,,,,,,,,,,,,,,,,,,,,,,
,,,,,,60dc2b51b0c4eaa32e391d87,62c53a3858c7705bdcbb4b37,2022-07-06_09h33.06.177,Colour_Asymmetry_Pilot,2022.1.3,Win32,144.092219,62c50e9c1127f2cd403a315f,0,138,138,118,1,fourtwo,,,,,,,,,,,,,,,,,,,,,,,,,,,,,,,,,,,,,,,,,,,,,,,,,,,,,,,,,,,,,,,,,,,,,,,,,,,,,,,,,,,,,,,,,,,,,,,,,,,,,,,,,,,,,,,,,,,,,,,,,,,,,,,,,,,,,,,,,,,,,,,,,,,,,,,,,,,,,
,,,,,,60dc2b51b0c4eaa32e391d87,62c53a3858c7705bdcbb4b37,2022-07-06_09h33.06.177,Colour_Asymmetry_Pilot,2022.1.3,Win32,144.092219,62c50e9c1127f2cd403a315f,0,139,139,144,1,onetwo,,,,,,,,,,,,,,,,,,,,,,,,,,,,,,,,,,,,,,,,,,,,,,,,,,,,,,,,,,,,,,,,,,,,,,,,,,,,,,,,,,,,,,,,,,,,,,,,,,,,,,,,,,,,,,,,,,,,,,,,,,,,,,,,,,,,,,,,,,,,,,,,,,,,,,,,,,,,,
,,,,,,60dc2b51b0c4eaa32e391d87,62c53a3858c7705bdcbb4b37,2022-07-06_09h33.06.177,Colour_Asymmetry_Pilot,2022.1.3,Win32,144.092219,62c50e9c1127f2cd403a315f,0,140,140,138,1,twoone,,,,,,,,,,,,,,,,,,,,,,,,,,,,,,,,,,,,,,,,,,,,,,,,,,,,,,,,,,,,,,,,,,,,,,,,,,,,,,,,,,,,,,,,,,,,,,,,,,,,,,,,,,,,,,,,,,,,,,,,,,,,,,,,,,,,,,,,,,,,,,,,,,,,,,,,,,,,,
,,,,,,60dc2b51b0c4eaa32e391d87,62c53a3858c7705bdcbb4b37,2022-07-06_09h33.06.177,Colour_Asymmetry_Pilot,2022.1.3,Win32,144.092219,62c50e9c1127f2cd403a315f,0,141,141,78,1,fourtwo,,,,,,,,,,,,,,,,,,,,,,,,,,,,,,,,,,,,,,,,,,,,,,,,,,,,,,,,,,,,,,,,,,,,,,,,,,,,,,,,,,,,,,,,,,,,,,,,,,,,,,,,,,,,,,,,,,,,,,,,,,,,,,,,,,,,,,,,,,,,,,,,,,,,,,,,,,,,,
,,,,,,60dc2b51b0c4eaa32e391d87,62c53a3858c7705bdcbb4b37,2022-07-06_09h33.06.177,Colour_Asymmetry_Pilot,2022.1.3,Win32,144.092219,62c50e9c1127f2cd403a315f,0,142,142,101,1,threefour,,,,,,,,,,,,,,,,,,,,,,,,,,,,,,,,,,,,,,,,,,,,,,,,,,,,,,,,,,,,,,,,,,,,,,,,,,,,,,,,,,,,,,,,,,,,,,,,,,,,,,,,,,,,,,,,,,,,,,,,,,,,,,,,,,,,,,,,,,,,,,,,,,,,,,,,,,,,,
,,,,,,60dc2b51b0c4eaa32e391d87,62c53a3858c7705bdcbb4b37,2022-07-06_09h33.06.177,Colour_Asymmetry_Pilot,2022.1.3,Win32,144.092219,62c50e9c1127f2cd403a315f,0,143,143,69,1,threefour,,,,,,,,,,,,,,,,,,,,,,,,,,,,,,,,,,,,,,,,,,,,,,,,,,,,,,,,,,,,,,,,,,,,,,,,,,,,,,,,,,,,,,,,,,,,,,,,,,,,,,,,,,,,,,,,,,,,,,,,,,,,,,,,,,,,,,,,,,,,,,,,,,,,,,,,,,,,,
,,,,,,60dc2b51b0c4eaa32e391d87,62c53a3858c7705bdcbb4b37,2022-07-06_09h33.06.177,Colour_Asymmetry_Pilot,2022.1.3,Win32,144.092219,62c50e9c1127f2cd403a315f,0,144,144,123,1,twofour,,,,,,,,,,,,,,,,,,,,,,,,,,,,,,,,,,,,,,,,,,,,,,,,,,,,,,,,,,,,,,,,,,,,,,,,,,,,,,,,,,,,,,,,,,,,,,,,,,,,,,,,,,,,,,,,,,,,,,,,,,,,,,,,,,,,,,,,,,,,,,,,,,,,,,,,,,,,,
,,,,,,60dc2b51b0c4eaa32e391d87,62c53a3858c7705bdcbb4b37,2022-07-06_09h33.06.177,Colour_Asymmetry_Pilot,2022.1.3,Win32,144.092219,62c50e9c1127f2cd403a315f,0,145,145,155,1,twofour,,,,,,,,,,,,,,,,,,,,,,,,,,,,,,,,,,,,,,,,,,,,,,,,,,,,,,,,,,,,,,,,,,,,,,,,,,,,,,,,,,,,,,,,,,,,,,,,,,,,,,,,,,,,,,,,,,,,,,,,,,,,,,,,,,,,,,,,,,,,,,,,,,,,,,,,,,,,,
,,,,,,60dc2b51b0c4eaa32e391d87,62c53a3858c7705bdcbb4b37,2022-07-06_09h33.06.177,Colour_Asymmetry_Pilot,2022.1.3,Win32,144.092219,62c50e9c1127f2cd403a315f,0,146,146,160,1,onetwo,,,,,,,,,,,,,,,,,,,,,,,,,,,,,,,,,,,,,,,,,,,,,,,,,,,,,,,,,,,,,,,,,,,,,,,,,,,,,,,,,,,,,,,,,,,,,,,,,,,,,,,,,,,,,,,,,,,,,,,,,,,,,,,,,,,,,,,,,,,,,,,,,,,,,,,,,,,,,
,,,,,,60dc2b51b0c4eaa32e391d87,62c53a3858c7705bdcbb4b37,2022-07-06_09h33.06.177,Colour_Asymmetry_Pilot,2022.1.3,Win32,144.092219,62c50e9c1127f2cd403a315f,0,147,147,33,1,onethree,,,,,,,,,,,,,,,,,,,,,,,,,,,,,,,,,,,,,,,,,,,,,,,,,,,,,,,,,,,,,,,,,,,,,,,,,,,,,,,,,,,,,,,,,,,,,,,,,,,,,,,,,,,,,,,,,,,,,,,,,,,,,,,,,,,,,,,,,,,,,,,,,,,,,,,,,,,,,
,,,,,,60dc2b51b0c4eaa32e391d87,62c53a3858c7705bdcbb4b37,2022-07-06_09h33.06.177,Colour_Asymmetry_Pilot,2022.1.3,Win32,144.092219,62c50e9c1127f2cd403a315f,0,148,148,119,1,fourthree,,,,,,,,,,,,,,,,,,,,,,,,,,,,,,,,,,,,,,,,,,,,,,,,,,,,,,,,,,,,,,,,,,,,,,,,,,,,,,,,,,,,,,,,,,,,,,,,,,,,,,,,,,,,,,,,,,,,,,,,,,,,,,,,,,,,,,,,,,,,,,,,,,,,,,,,,,,,,
,,,,,,60dc2b51b0c4eaa32e391d87,62c53a3858c7705bdcbb4b37,2022-07-06_09h33.06.177,Colour_Asymmetry_Pilot,2022.1.3,Win32,144.092219,62c50e9c1127f2cd403a315f,0,149,149,161,1,onethree,,,,,,,,,,,,,,,,,,,,,,,,,,,,,,,,,,,,,,,,,,,,,,,,,,,,,,,,,,,,,,,,,,,,,,,,,,,,,,,,,,,,,,,,,,,,,,,,,,,,,,,,,,,,,,,,,,,,,,,,,,,,,,,,,,,,,,,,,,,,,,,,,,,,,,,,,,,,,
,,,,,,60dc2b51b0c4eaa32e391d87,62c53a3858c7705bdcbb4b37,2022-07-06_09h33.06.177,Colour_Asymmetry_Pilot,2022.1.3,Win32,144.092219,62c50e9c1127f2cd403a315f,0,150,150,62,1,fourtwo,,,,,,,,,,,,,,,,,,,,,,,,,,,,,,,,,,,,,,,,,,,,,,,,,,,,,,,,,,,,,,,,,,,,,,,,,,,,,,,,,,,,,,,,,,,,,,,,,,,,,,,,,,,,,,,,,,,,,,,,,,,,,,,,,,,,,,,,,,,,,,,,,,,,,,,,,,,,,
,,,,,,60dc2b51b0c4eaa32e391d87,62c53a3858c7705bdcbb4b37,2022-07-06_09h33.06.177,Colour_Asymmetry_Pilot,2022.1.3,Win32,144.092219,62c50e9c1127f2cd403a315f,0,151,151,154,1,twoone,,,,,,,,,,,,,,,,,,,,,,,,,,,,,,,,,,,,,,,,,,,,,,,,,,,,,,,,,,,,,,,,,,,,,,,,,,,,,,,,,,,,,,,,,,,,,,,,,,,,,,,,,,,,,,,,,,,,,,,,,,,,,,,,,,,,,,,,,,,,,,,,,,,,,,,,,,,,,
,,,,,,60dc2b51b0c4eaa32e391d87,62c53a3858c7705bdcbb4b37,2022-07-06_09h33.06.177,Colour_Asymmetry_Pilot,2022.1.3,Win32,144.092219,62c50e9c1127f2cd403a315f,0,152,152,40,1,onetwo,,,,,,,,,,,,,,,,,,,,,,,,,,,,,,,,,,,,,,,,,,,,,,,,,,,,,,,,,,,,,,,,,,,,,,,,,,,,,,,,,,,,,,,,,,,,,,,,,,,,,,,,,,,,,,,,,,,,,,,,,,,,,,,,,,,,,,,,,,,,,,,,,,,,,,,,,,,,,
,,,,,,60dc2b51b0c4eaa32e391d87,62c53a3858c7705bdcbb4b37,2022-07-06_09h33.06.177,Colour_Asymmetry_Pilot,2022.1.3,Win32,144.092219,62c50e9c1127f2cd403a315f,0,153,153,139,1,twofour,,,,,,,,,,,,,,,,,,,,,,,,,,,,,,,,,,,,,,,,,,,,,,,,,,,,,,,,,,,,,,,,,,,,,,,,,,,,,,,,,,,,,,,,,,,,,,,,,,,,,,,,,,,,,,,,,,,,,,,,,,,,,,,,,,,,,,,,,,,,,,,,,,,,,,,,,,,,,
,,,,,,60dc2b51b0c4eaa32e391d87,62c53a3858c7705bdcbb4b37,2022-07-06_09h33.06.177,Colour_Asymmetry_Pilot,2022.1.3,Win32,144.092219,62c50e9c1127f2cd403a315f,0,154,154,109,1,threefour,,,,,,,,,,,,,,,,,,,,,,,,,,,,,,,,,,,,,,,,,,,,,,,,,,,,,,,,,,,,,,,,,,,,,,,,,,,,,,,,,,,,,,,,,,,,,,,,,,,,,,,,,,,,,,,,,,,,,,,,,,,,,,,,,,,,,,,,,,,,,,,,,,,,,,,,,,,,,
,,,,,,60dc2b51b0c4eaa32e391d87,62c53a3858c7705bdcbb4b37,2022-07-06_09h33.06.177,Colour_Asymmetry_Pilot,2022.1.3,Win32,144.092219,62c50e9c1127f2cd403a315f,0,155,155,16,1,onetwo,,,,,,,,,,,,,,,,,,,,,,,,,,,,,,,,,,,,,,,,,,,,,,,,,,,,,,,,,,,,,,,,,,,,,,,,,,,,,,,,,,,,,,,,,,,,,,,,,,,,,,,,,,,,,,,,,,,,,,,,,,,,,,,,,,,,,,,,,,,,,,,,,,,,,,,,,,,,,
,,,,,,60dc2b51b0c4eaa32e391d87,62c53a3858c7705bdcbb4b37,2022-07-06_09h33.06.177,Colour_Asymmetry_Pilot,2022.1.3,Win32,144.092219,62c50e9c1127f2cd403a315f,0,156,156,58,1,twoone,,,,,,,,,,,,,,,,,,,,,,,,,,,,,,,,,,,,,,,,,,,,,,,,,,,,,,,,,,,,,,,,,,,,,,,,,,,,,,,,,,,,,,,,,,,,,,,,,,,,,,,,,,,,,,,,,,,,,,,,,,,,,,,,,,,,,,,,,,,,,,,,,,,,,,,,,,,,,
,,,,,,60dc2b51b0c4eaa32e391d87,62c53a3858c7705bdcbb4b37,2022-07-06_09h33.06.177,Colour_Asymmetry_Pilot,2022.1.3,Win32,144.092219,62c50e9c1127f2cd403a315f,0,157,157,1,1,onethree,,,,,,,,,,,,,,,,,,,,,,,,,,,,,,,,,,,,,,,,,,,,,,,,,,,,,,,,,,,,,,,,,,,,,,,,,,,,,,,,,,,,,,,,,,,,,,,,,,,,,,,,,,,,,,,,,,,,,,,,,,,,,,,,,,,,,,,,,,,,,,,,,,,,,,,,,,,,,
,,,,,,60dc2b51b0c4eaa32e391d87,62c53a3858c7705bdcbb4b37,2022-07-06_09h33.06.177,Colour_Asymmetry_Pilot,2022.1.3,Win32,144.092219,62c50e9c1127f2cd403a315f,0,158,158,42,1,twoone,,,,,,,,,,,,,,,,,,,,,,,,,,,,,,,,,,,,,,,,,,,,,,,,,,,,,,,,,,,,,,,,,,,,,,,,,,,,,,,,,,,,,,,,,,,,,,,,,,,,,,,,,,,,,,,,,,,,,,,,,,,,,,,,,,,,,,,,,,,,,,,,,,,,,,,,,,,,,
,,,,,,60dc2b51b0c4eaa32e391d87,62c53a3858c7705bdcbb4b37,2022-07-06_09h33.06.177,Colour_Asymmetry_Pilot,2022.1.3,Win32,144.092219,62c50e9c1127f2cd403a315f,0,159,159,8,1,onetwo,,,,,,,,,,,,,,,,,,,,,,,,,,,,,,,,,,,,,,,,,,,,,,,,,,,,,,,,,,,,,,,,,,,,,,,,,,,,,,,,,,,,,,,,,,,,,,,,,,,,,,,,,,,,,,,,,,,,,,,,,,,,,,,,,,,,,,,,,,,,,,,,,,,,,,,,,,,,,
,,,,,,60dc2b51b0c4eaa32e391d87,62c53a3858c7705bdcbb4b37,2022-07-06_09h33.06.177,Colour_Asymmetry_Pilot,2022.1.3,Win32,144.092219,62c50e9c1127f2cd403a315f,0,160,160,158,1,fourtwo,,,,,,,,,,,,,,,,,,,,,,,,,,,,,,,,,,,,,,,,,,,,,,,,,,,,,,,,,,,,,,,,,,,,,,,,,,,,,,,,,,,,,,,,,,,,,,,,,,,,,,,,,,,,,,,,,,,,,,,,,,,,,,,,,,,,,,,,,,,,,,,,,,,,,,,,,,,,,
,,,,,,60dc2b51b0c4eaa32e391d87,62c53a3858c7705bdcbb4b37,2022-07-06_09h33.06.177,Colour_Asymmetry_Pilot,2022.1.3,Win32,144.092219,62c50e9c1127f2cd403a315f,0,161,161,105,1,onethree,,,,,,,,,,,,,,,,,,,,,,,,,,,,,,,,,,,,,,,,,,,,,,,,,,,,,,,,,,,,,,,,,,,,,,,,,,,,,,,,,,,,,,,,,,,,,,,,,,,,,,,,,,,,,,,,,,,,,,,,,,,,,,,,,,,,,,,,,,,,,,,,,,,,,,,,,,,,,
,,,,,,60dc2b51b0c4eaa32e391d87,62c53a3858c7705bdcbb4b37,2022-07-06_09h33.06.177,Colour_Asymmetry_Pilot,2022.1.3,Win32,144.092219,62c50e9c1127f2cd403a315f,,,,,,,space,17.215,space,10.893,space,83.237,space,32.289,space,5.832,space,74.467,"[-0.8118,-0.8198,-0.5452]",fourthree,"[0.37240000000000006,0.4980000000000002,-0.2864]",-1,14.876,-37,-109,1,0,0,response5disk_5,-3,-6,1,0,0,rectangle_8,85,-41,1,0,0,response3disk_7,5,2,2,4,1,0,0,rectangle_4,0,0,0,0,1,,,,,,,,,,,,,,,,,,,,,,,,,,,,,,,,,,,,,,,,,,,,,,,,,,,,,,,,,,,,,,,,,,,,,,,,,,,,,,,,,,,,,,,,,,,,,,,,,,,,,,,,,,,,,
,,,,,,60dc2b51b0c4eaa32e391d87,62c53a3858c7705bdcbb4b37,2022-07-06_09h33.06.177,Colour_Asymmetry_Pilot,2022.1.3,Win32,144.092219,62c50e9c1127f2cd403a315f,,,,,,,,,,,,,,,,,,,"[-0.6942,-0.7648,-0.12959999999999994]",twoone,"[0.05879999999999996,0.2784,0.5841999999999998]",3,2.397,118,46,1,0,0,response1disk_5,-1,-3,1,0,0,rectangle_8,-1,-3,1,0,0,,,2,-1,-3,1,0,0,,1,0,1,0,1,,,,,,,,,,,,,,,,,,,,,,,,,,,,,,,,,,,,,,,,,,,,,,,,,,,,,,,,,,,,,,,,,,,,,,,,,,,,,,,,,,,,,,,,,,,,,,,,,,,,,,,,,,,,,
,,,,,,60dc2b51b0c4eaa32e391d87,62c53a3858c7705bdcbb4b37,2022-07-06_09h33.06.177,Colour_Asymmetry_Pilot,2022.1.3,Win32,144.092219,62c50e9c1127f2cd403a315f,,,,,,,,,,,,,,,,,,,"[-0.2942,-0.24719999999999998,-0.357]",fourthree,"[-0.2942,-0.24719999999999998,-0.357]",4,1.257,51,84,1,0,0,response1disk_5,2,-3,1,0,0,rectangle_8,2,-3,1,0,0,,,2,2,-3,1,0,0,,2,0,2,0,1,,,,,,,,,,,,,,,,,,,,,,,,,,,,,,,,,,,,,,,,,,,,,,,,,,,,,,,,,,,,,,,,,,,,,,,,,,,,,,,,,,,,,,,,,,,,,,,,,,,,,,,,,,,,,
,,,,,,60dc2b51b0c4eaa32e391d87,62c53a3858c7705bdcbb4b37,2022-07-06_09h33.06.177,Colour_Asymmetry_Pilot,2022.1.3,Win32,144.092219,62c50e9c1127f2cd403a315f,,,,,,,,,,,,,,,,,,,"[1,0.12939999999999996,-1]",twoone,"[0.5528,0.7409999999999999,-0.71]",1,3.041,43,-106,1,0,0,response3disk_5,-26,-2,1,0,0,rectangle_8,-26,-2,1,0,0,,,2,-26,-2,1,0,0,,3,0,3,0,1,,,,,,,,,,,,,,,,,,,,,,,,,,,,,,,,,,,,,,,,,,,,,,,,,,,,,,,,,,,,,,,,,,,,,,,,,,,,,,,,,,,,,,,,,,,,,,,,,,,,,,,,,,,,,
,,,,,,60dc2b51b0c4eaa32e391d87,62c53a3858c7705bdcbb4b37,2022-07-06_09h33.06.177,Colour_Asymmetry_Pilot,2022.1.3,Win32,144.092219,62c50e9c1127f2cd403a315f,,,,,,,,,,,,,,,,,,,"[-0.0040000000000000036,0.02739999999999987,-0.08239999999999992]",onethree,"[0.05879999999999996,0.2784,0.5841999999999998]",3,4.739,74,33,1,0,0,response1disk_5,18,-2,1,0,0,rectangle_8,109,-43,1,0,0,response3disk_7,5,2,-4,-7,1,0,0,rectangle_4,4,0,4,0,1,,,,,,,,,,,,,,,,,,,,,,,,,,,,,,,,,,,,,,,,,,,,,,,,,,,,,,,,,,,,,,,,,,,,,,,,,,,,,,,,,,,,,,,,,,,,,,,,,,,,,,,,,,,,,
,,,,,,60dc2b51b0c4eaa32e391d87,62c53a3858c7705bdcbb4b37,2022-07-06_09h33.06.177,Colour_Asymmetry_Pilot,2022.1.3,Win32,144.092219,62c50e9c1127f2cd403a315f,,,,,,,,,,,,,,,,,,,"[-0.2942,-0.24719999999999998,-0.357]",fourthree,"[-0.9688,-0.38039999999999996,-0.41979999999999995]",2,3.209,109,-35,1,0,0,response3disk_5,-8,-2,1,0,0,rectangle_8,-8,-2,1,0,0,,,2,-8,-2,1,0,0,,5,0,5,0,1,,,,,,,,,,,,,,,,,,,,,,,,,,,,,,,,,,,,,,,,,,,,,,,,,,,,,,,,,,,,,,,,,,,,,,,,,,,,,,,,,,,,,,,,,,,,,,,,,,,,,,,,,,,,,
,,,,,,60dc2b51b0c4eaa32e391d87,62c53a3858c7705bdcbb4b37,2022-07-06_09h33.06.177,Colour_Asymmetry_Pilot,2022.1.3,Win32,144.092219,62c50e9c1127f2cd403a315f,,,,,,,,,,,,,,,,,,,"[-0.6942,-0.7648,-0.12959999999999994]",onethree,"[0.9686000000000001,0.5763999999999998,0.11359999999999992]",-3,1.487,-74,33,1,0,0,response7disk_5,21,3,1,0,0,rectangle_8,21,3,1,0,0,,,2,21,3,1,0,0,,6,0,6,0,1,,,,,,,,,,,,,,,,,,,,,,,,,,,,,,,,,,,,,,,,,,,,,,,,,,,,,,,,,,,,,,,,,,,,,,,,,,,,,,,,,,,,,,,,,,,,,,,,,,,,,,,,,,,,,
,,,,,,60dc2b51b0c4eaa32e391d87,62c53a3858c7705bdcbb4b37,2022-07-06_09h33.06.177,Colour_Asymmetry_Pilot,2022.1.3,Win32,144.092219,62c50e9c1127f2cd403a315f,,,,,,,,,,,,,,,,,,,,fourthree,,-3,1.786,,,,,,,,,,,,,,,,,,,,,,,,,,,,,,,,space,4.303,"[0.6547999999999998,-0.043199999999999905,-0.011800000000000033]","[-0.38039999999999996,-0.4276,-0.1452]",-80,42,1,0,0,response7disk,0,-2,1,0,0,rectangle,0,-2,1,0,0,,1,0.003,0,0,-2,1,0,0,0,0,0,81,1,0,second,,,,,,,,,,,,,,,,,,,,,,,,,,,,,,,,,,,,,,,,,,,,,,,,,,,,,,,,,,,,,,,,,,,,,,,,
,,,,,,60dc2b51b0c4eaa32e391d87,62c53a3858c7705bdcbb4b37,2022-07-06_09h33.06.177,Colour_Asymmetry_Pilot,2022.1.3,Win32,144.092219,62c50e9c1127f2cd403a315f,,,,,,,,,,,,,,,,,,,,twofour,,-1,1.014,,,,,,,,,,,,,,,,,,,,,,,,,,,,,,,,,,"[-0.5452,-0.608,0.2470000000000001]","[0.23920000000000008,0.2704,0.16060000000000008]",-29,-69,1,0,0,response5disk,2,6,1,0,0,rectangle,2,6,1,0,0,,3,0.001,0,2,6,1,0,0,0,1,1,41,1,41,first,,,,,,,,,,,,,,,,,,,,,,,,,,,,,,,,,,,,,,,,,,,,,,,,,,,,,,,,,,,,,,,,,,,,,,,,
,,,,,,60dc2b51b0c4eaa32e391d87,62c53a3858c7705bdcbb4b37,2022-07-06_09h33.06.177,Colour_Asymmetry_Pilot,2022.1.3,Win32,144.092219,62c50e9c1127f2cd403a315f,,,,,,,,,,,,,,,,,,,,twoone,,-3,0.716,,,,,,,,,,,,,,,,,,,,,,,,,,,,,,,,,,"[0.34099999999999997,0.5841999999999998,-0.9844]","[0.7646000000000002,0.07440000000000002,0.2704]",-55,34,1,0,0,response7disk,5,5,1,0,0,rectangle,5,5,1,0,0,,3,0,0,5,5,1,0,0,0,2,2,61,1,61,first,,,,,,,,,,,,,,,,,,,,,,,,,,,,,,,,,,,,,,,,,,,,,,,,,,,,,,,,,,,,,,,,,,,,,,,,
,,,,,,60dc2b51b0c4eaa32e391d87,62c53a3858c7705bdcbb4b37,2022-07-06_09h33.06.177,Colour_Asymmetry_Pilot,2022.1.3,Win32,144.092219,62c50e9c1127f2cd403a315f,,,,,,,,,,,,,,,,,,,,threeone,,-1,0.666,,,,,,,,,,,,,,,,,,,,,,,,,,,,,,,,,,"[0.37240000000000006,0.4980000000000002,-0.2864]","[0.19199999999999995,0.18419999999999992,0.5136000000000001]",-62,-122,1,0,0,response5disk,1,-7,1,0,0,rectangle,94,-46,1,0,0,2,2,1.639,1,-2,0,1,0,0,0,3,3,161,1,80,second,response3disk_3,rectangle,,,,,,,,,,,,,,,,,,,,,,,,,,,,,,,,,,,,,,,,,,,,,,,,,,,,,,,,,,,,,,,,,,,,,,
,,,,,,60dc2b51b0c4eaa32e391d87,62c53a3858c7705bdcbb4b37,2022-07-06_09h33.06.177,Colour_Asymmetry_Pilot,2022.1.3,Win32,144.092219,62c50e9c1127f2cd403a315f,,,,,,,,,,,,,,,,,,,,twoone,,1,2.896,,,,,,,,,,,,,,,,,,,,,,,,,,,,,,,,,,"[-0.4276,0.0038000000000000256,-0.3256]","[-0.06680000000000008,-0.45100000000000007,-0.906]",42,-86,1,0,0,response3disk,-9,-2,1,0,0,rectangle,-9,-2,1,0,0,2,1,0.001,0,-9,-2,1,0,0,0,4,4,38,1,38,first,,,,,,,,,,,,,,,,,,,,,,,,,,,,,,,,,,,,,,,,,,,,,,,,,,,,,,,,,,,,,,,,,,,,,,,,
,,,,,,60dc2b51b0c4eaa32e391d87,62c53a3858c7705bdcbb4b37,2022-07-06_09h33.06.177,Colour_Asymmetry_Pilot,2022.1.3,Win32,144.092219,62c50e9c1127f2cd403a315f,,,,,,,,,,,,,,,,,,,,fourthree,,1,1.278,,,,,,,,,,,,,,,,,,,,,,,,,,,,,,,,,,"[-0.9844,-0.9688,-0.9922]","[-0.8982,-0.37259999999999993,0.2784]",54,-87,1,0,0,response3disk,-7,1,1,0,0,rectangle,-7,1,1,0,0,2,3,0,0,-7,1,1,0,0,0,5,5,29,1,29,first,,,,,,,,,,,,,,,,,,,,,,,,,,,,,,,,,,,,,,,,,,,,,,,,,,,,,,,,,,,,,,,,,,,,,,,,
,,,,,,60dc2b51b0c4eaa32e391d87,62c53a3858c7705bdcbb4b37,2022-07-06_09h33.06.177,Colour_Asymmetry_Pilot,2022.1.3,Win32,144.092219,62c50e9c1127f2cd403a315f,,,,,,,,,,,,,,,,,,,,onethree,,-2,0.799,,,,,,,,,,,,,,,,,,,,,,,,,,,,,,,,,,"[-0.09019999999999995,0.44300000000000006,0.5371999999999999]","[0.9372,0.20779999999999998,0.2704]",-70,-41,1,0,0,response5disk,-2,0,1,0,0,rectangle,-2,0,1,0,0,2,3,0,0,-2,0,1,0,0,0,6,6,140,1,59,second,,,,,,,,,,,,,,,,,,,,,,,,,,,,,,,,,,,,,,,,,,,,,,,,,,,,,,,,,,,,,,,,,,,,,,,,
,,,,,,60dc2b51b0c4eaa32e391d87,62c53a3858c7705bdcbb4b37,2022-07-06_09h33.06.177,Colour_Asymmetry_Pilot,2022.1.3,Win32,144.092219,62c50e9c1127f2cd403a315f,,,,,,,,,,,,,,,,,,,,twofour,,1,1.042,,,,,,,,,,,,,,,,,,,,,,,,,,,,,,,,,,"[0.3568,-0.20799999999999996,-0.9844]","[-0.2942,-0.24719999999999998,-0.357]",34,-81,1,0,0,response3disk,1,-6,1,0,0,rectangle,1,-6,1,0,0,2,2,0.002,0,1,-6,1,0,0,0,7,7,148,1,67,second,,,,,,,,,,,,,,,,,,,,,,,,,,,,,,,,,,,,,,,,,,,,,,,,,,,,,,,,,,,,,,,,,,,,,,,,
,,,,,,60dc2b51b0c4eaa32e391d87,62c53a3858c7705bdcbb4b37,2022-07-06_09h33.06.177,Colour_Asymmetry_Pilot,2022.1.3,Win32,144.092219,62c50e9c1127f2cd403a315f,,,,,,,,,,,,,,,,,,,,onethree,,3,0.854,,,,,,,,,,,,,,,,,,,,,,,,,,,,,,,,,,"[0.0351999999999999,0.41159999999999997,0.0038000000000000256]","[-0.7412000000000001,-0.08239999999999992,-0.6864]",102,31,1,0,0,response1disk,5,-2,1,0,0,rectangle,5,-2,1,0,0,2,3,0.001,0,5,-2,1,0,0,0,8,8,96,1,15,second,,,,,,,,,,,,,,,,,,,,,,,,,,,,,,,,,,,,,,,,,,,,,,,,,,,,,,,,,,,,,,,,,,,,,,,,
,,,,,,60dc2b51b0c4eaa32e391d87,62c53a3858c7705bdcbb4b37,2022-07-06_09h33.06.177,Colour_Asymmetry_Pilot,2022.1.3,Win32,144.092219,62c50e9c1127f2cd403a315f,,,,,,,,,,,,,,,,,,,,twoone,,2,3.25,,,,,,,,,,,,,,,,,,,,,,,,,,,,,,,,,,"[-0.2942,-0.24719999999999998,-0.357]","[-0.2942,-0.7648,-0.7492000000000001]",109,-47,1,0,0,response3disk,-7,1,1,0,0,rectangle,-7,1,1,0,0,2,3,0,0,-7,1,1,0,0,0,9,9,149,1,68,second,,,,,,,,,,,,,,,,,,,,,,,,,,,,,,,,,,,,,,,,,,,,,,,,,,,,,,,,,,,,,,,,,,,,,,,,
,,,,,,60dc2b51b0c4eaa32e391d87,62c53a3858c7705bdcbb4b37,2022-07-06_09h33.06.177,Colour_Asymmetry_Pilot,2022.1.3,Win32,144.092219,62c50e9c1127f2cd403a315f,,,,,,,,,,,,,,,,,,,,threefour,,-1,0.909,,,,,,,,,,,,,,,,,,,,,,,,,,,,,,,,,,"[0.0351999999999999,0.41159999999999997,0.0038000000000000256]","[-0.10599999999999998,-0.15300000000000002,0.15280000000000005]",-22,-90,1,0,0,response5disk,6,-10,1,0,0,rectangle,6,-10,1,0,0,2,1,0.001,0,6,-10,1,0,0,0,10,10,99,1,18,second,,,,,,,,,,,,,,,,,,,,,,,,,,,,,,,,,,,,,,,,,,,,,,,,,,,,,,,,,,,,,,,,,,,,,,,,
,,,,,,60dc2b51b0c4eaa32e391d87,62c53a3858c7705bdcbb4b37,2022-07-06_09h33.06.177,Colour_Asymmetry_Pilot,2022.1.3,Win32,144.092219,62c50e9c1127f2cd403a315f,,,,,,,,,,,,,,,,,,,,twoone,,1,0.659,,,,,,,,,,,,,,,,,,,,,,,,,,,,,,,,,,"[-0.5688,-0.08239999999999992,-0.1844]","[0.37240000000000006,0.4980000000000002,-0.2864]",49,-62,1,0,0,response3disk,19,-8,1,0,0,rectangle,110,44,1,0,0,3,3,2.056,1,-5,-3,1,0,0,0,11,11,136,1,55,second,response1disk_3,rectangle,,,,,,,,,,,,,,,,,,,,,,,,,,,,,,,,,,,,,,,,,,,,,,,,,,,,,,,,,,,,,,,,,,,,,,
,,,,,,60dc2b51b0c4eaa32e391d87,62c53a3858c7705bdcbb4b37,2022-07-06_09h33.06.177,Colour_Asymmetry_Pilot,2022.1.3,Win32,144.092219,62c50e9c1127f2cd403a315f,,,,,,,,,,,,,,,,,,,,fourtwo,,-4,2.924,,,,,,,,,,,,,,,,,,,,,,,,,,,,,,,,,,"[-0.9688,-0.7412000000000001,-0.4902000000000001]","[0.9213999999999998,0.6391999999999998,-0.9922]",-33,107,1,0,0,response7disk,5,-4,1,0,0,rectangle,5,-4,1,0,0,3,1,0.001,0,5,-4,1,0,0,0,12,12,107,1,26,second,,,,,,,,,,,,,,,,,,,,,,,,,,,,,,,,,,,,,,,,,,,,,,,,,,,,,,,,,,,,,,,,,,,,,,,,
,,,,,,60dc2b51b0c4eaa32e391d87,62c53a3858c7705bdcbb4b37,2022-07-06_09h33.06.177,Colour_Asymmetry_Pilot,2022.1.3,Win32,144.092219,62c50e9c1127f2cd403a315f,,,,,,,,,,,,,,,,,,,,twoone,,-1,3.131,,,,,,,,,,,,,,,,,,,,,,,,,,,,,,,,,,"[-0.20799999999999996,-0.655,-0.01980000000000004]","[0.7802,-0.23140000000000005,-0.20799999999999996]",-28,-114,1,0,0,response5disk,-2,2,1,0,0,rectangle,-2,2,1,0,0,3,3,0.002,0,-2,2,1,0,0,0,13,13,14,1,14,first,,,,,,,,,,,,,,,,,,,,,,,,,,,,,,,,,,,,,,,,,,,,,,,,,,,,,,,,,,,,,,,,,,,,,,,,
,,,,,,60dc2b51b0c4eaa32e391d87,62c53a3858c7705bdcbb4b37,2022-07-06_09h33.06.177,Colour_Asymmetry_Pilot,2022.1.3,Win32,144.092219,62c50e9c1127f2cd403a315f,,,,,,,,,,,,,,,,,,,,onetwo,,-4,0.611,,,,,,,,,,,,,,,,,,,,,,,,,,,,,,,,,,"[0.9763999999999999,-0.1137999999999999,-0.6314]","[-0.8198,-0.5138,-0.7492000000000001]",-50,92,1,0,0,response7disk,-6,-3,1,0,0,rectangle,-6,-3,1,0,0,3,2,0.001,0,-6,-3,1,0,0,0,14,14,133,1,52,second,,,,,,,,,,,,,,,,,,,,,,,,,,,,,,,,,,,,,,,,,,,,,,,,,,,,,,,,,,,,,,,,,,,,,,,,
,,,,,,60dc2b51b0c4eaa32e391d87,62c53a3858c7705bdcbb4b37,2022-07-06_09h33.06.177,Colour_Asymmetry_Pilot,2022.1.3,Win32,144.092219,62c50e9c1127f2cd403a315f,,,,,,,,,,,,,,,,,,,,onetwo,,3,0.653,,,,,,,,,,,,,,,,,,,,,,,,,,,,,,,,,,"[-0.10599999999999998,-0.15300000000000002,0.15280000000000005]","[-0.6,0.16860000000000008,0.44300000000000006]",84,35,1,0,0,response1disk,13,-7,1,0,0,rectangle,103,-39,1,0,0,2,2,2.334,1,7,6,1,0,0,0,15,15,160,1,79,second,response3disk_3,rectangle,,,,,,,,,,,,,,,,,,,,,,,,,,,,,,,,,,,,,,,,,,,,,,,,,,,,,,,,,,,,,,,,,,,,,,
,,,,,,60dc2b51b0c4eaa32e391d87,62c53a3858c7705bdcbb4b37,2022-07-06_09h33.06.177,Colour_Asymmetry_Pilot,2022.1.3,Win32,144.092219,62c50e9c1127f2cd403a315f,,,,,,,,,,,,,,,,,,,,onethree,,-3,0.744,,,,,,,,,,,,,,,,,,,,,,,,,,,,,,,,,,"[0.9686000000000001,0.3802000000000001,0.19999999999999996]","[-0.9844,-0.9688,-0.9922]",-81,26,1,0,0,response7disk,-2,-2,1,0,0,rectangle,-2,-2,1,0,0,2,1,0.002,0,-2,-2,1,0,0,0,16,16,92,1,11,second,,,,,,,,,,,,,,,,,,,,,,,,,,,,,,,,,,,,,,,,,,,,,,,,,,,,,,,,,,,,,,,,,,,,,,,,
,,,,,,60dc2b51b0c4eaa32e391d87,62c53a3858c7705bdcbb4b37,2022-07-06_09h33.06.177,Colour_Asymmetry_Pilot,2022.1.3,Win32,144.092219,62c50e9c1127f2cd403a315f,,,,,,,,,,,,,,,,,,,,threefour,,4,0.598,,,,,,,,,,,,,,,,,,,,,,,,,,,,,,,,,,"[0.9763999999999999,0.30979999999999985,-0.6786]","[1,0.12939999999999996,-1]",46,72,1,0,0,response1disk,8,-6,1,0,0,rectangle,8,-6,1,0,0,2,2,0.002,0,8,-6,1,0,0,0,17,17,50,1,50,first,,,,,,,,,,,,,,,,,,,,,,,,,,,,,,,,,,,,,,,,,,,,,,,,,,,,,,,,,,,,,,,,,,,,,,,,
