trials.thisRepN,trials.thisTrialN,trials.thisN,trials.thisIndex,trials.ran,Colourcodes,participant,session,date,expName,psychopyVersion,OS,frameRate,study_id,trials_4.thisRepN,trials_4.thisTrialN,trials_4.thisN,trials_4.thisIndex,trials_4.ran,StimulusPos,key_resp.keys,key_resp.rt,key_resp_2.keys,key_resp_2.rt,key_resp_15.keys,key_resp_15.rt,key_resp_17.keys,key_resp_17.rt,key_resp_9.keys,key_resp_9.rt,key_resp_10.keys,key_resp_10.rt,Circle1_col,Ecc,Circle2_col,similarity,response_time,mouse_5.x,mouse_5.y,mouse_5.leftButton,mouse_5.midButton,mouse_5.rightButton,mouse_5.clicked_name,mouse_10.x,mouse_10.y,mouse_10.leftButton,mouse_10.midButton,mouse_10.rightButton,mouse_10.clicked_name,mouse_7.x,mouse_7.y,mouse_7.leftButton,mouse_7.midButton,mouse_7.rightButton,catchnumberprac,mouse_6.x,mouse_6.y,mouse_6.leftButton,mouse_6.midButton,mouse_6.rightButton,duringprac.thisRepN,duringprac.thisTrialN,duringprac.thisN,duringprac.thisIndex,duringprac.ran,mouse_7.clicked_name,catchprac,mouse_6.clicked_name,key_resp_22.keys,key_resp_22.rt,Circle1_colour,Circle2_colour,mouse.x,mouse.y,mouse.leftButton,mouse.midButton,mouse.rightButton,mouse.clicked_name,mouse_2.x,mouse_2.y,mouse_2.leftButton,mouse_2.midButton,mouse_2.rightButton,mouse_2.clicked_name,mouse_3.x,mouse_3.y,mouse_3.leftButton,mouse_3.midButton,mouse_3.rightButton,catchresponse,catchnumber,response_time_catch,Catch,mouse_11.x,mouse_11.y,mouse_11.leftButton,mouse_11.midButton,mouse_11.rightButton,trials_2.thisRepN,trials_2.thisTrialN,trials_2.thisN,trials_2.thisIndex,trials_2.ran,Colourpair,Temporder,mouse_3.clicked_name,mouse_11.clicked_name,trials_3.thisRepN,trials_3.thisTrialN,trials_3.thisN,trials_3.thisIndex,trials_3.ran,key_resp_instr_Ishi.keys,key_resp_instr_Ishi.rt,Ishi_trial_keyresp.keys,Ishi_textbox.text,Ishi_mouse.x,Ishi_mouse.y,Ishi_mouse.leftButton,Ishi_mouse.midButton,Ishi_mouse.rightButton,Ishi_mouse.clicked_name,Ishi_loop.thisRepN,Ishi_loop.thisTrialN,Ishi_loop.thisN,Ishi_loop.thisIndex,Ishi_loop.ran,imageaddress,textbox.text,mouse_4.x,mouse_4.y,mouse_4.leftButton,mouse_4.midButton,mouse_4.rightButton,mouse_4.clicked_name,textbox_2.text,mouse_8.x,mouse_8.y,mouse_8.leftButton,mouse_8.midButton,mouse_8.rightButton,mouse_8.clicked_name,textbox_3.text,mouse_9.x,mouse_9.y,mouse_9.leftButton,mouse_9.midButton,mouse_9.rightButton,mouse_9.clicked_name,textbox_4.text,mouse_12.x,mouse_12.y,mouse_12.leftButton,mouse_12.midButton,mouse_12.rightButton,mouse_12.clicked_name,textbox_5.text,mouse_13.x,mouse_13.y,mouse_13.leftButton,mouse_13.midButton,mouse_13.rightButton,mouse_13.clicked_name,textbox_6.text,mouse_14.x,mouse_14.y,mouse_14.leftButton,mouse_14.midButton,mouse_14.rightButton,mouse_14.clicked_name,textbox_7.text,mouse_15.x,mouse_15.y,mouse_15.leftButton,mouse_15.midButton,mouse_15.rightButton,mouse_15.clicked_name
0,0,0,37,1,,605d54bdad62f3a65e139402,62c539be69f683a4de3533f3,2022-07-06_03h31.05.981,Colour_Asymmetry_Pilot,2022.1.3,Win32,60.0240096,62c50e9c1127f2cd403a315f,,,,,,,,,,,,,,,,,,,,,,,,,,,,,,,,,,,,,,,,,,,,,,,,,,,,,,,,,,,,,,,,,,,,,,,,,,,,,,,,,,,,,,,,,,,,,,,,,,,,,,,,,,,,,,,,,,,,,,,,,,,,,,,,,,,,,,,,,,,,,,,,,,,,,,,,,,,,,,,,,,,
0,1,1,19,1,,605d54bdad62f3a65e139402,62c539be69f683a4de3533f3,2022-07-06_03h31.05.981,Colour_Asymmetry_Pilot,2022.1.3,Win32,60.0240096,62c50e9c1127f2cd403a315f,,,,,,,,,,,,,,,,,,,,,,,,,,,,,,,,,,,,,,,,,,,,,,,,,,,,,,,,,,,,,,,,,,,,,,,,,,,,,,,,,,,,,,,,,,,,,,,,,,,,,,,,,,,,,,,,,,,,,,,,,,,,,,,,,,,,,,,,,,,,,,,,,,,,,,,,,,,,,,,,,,,
0,2,2,21,1,,605d54bdad62f3a65e139402,62c539be69f683a4de3533f3,2022-07-06_03h31.05.981,Colour_Asymmetry_Pilot,2022.1.3,Win32,60.0240096,62c50e9c1127f2cd403a315f,,,,,,,,,,,,,,,,,,,,,,,,,,,,,,,,,,,,,,,,,,,,,,,,,,,,,,,,,,,,,,,,,,,,,,,,,,,,,,,,,,,,,,,,,,,,,,,,,,,,,,,,,,,,,,,,,,,,,,,,,,,,,,,,,,,,,,,,,,,,,,,,,,,,,,,,,,,,,,,,,,,
0,3,3,12,1,,605d54bdad62f3a65e139402,62c539be69f683a4de3533f3,2022-07-06_03h31.05.981,Colour_Asymmetry_Pilot,2022.1.3,Win32,60.0240096,62c50e9c1127f2cd403a315f,,,,,,,,,,,,,,,,,,,,,,,,,,,,,,,,,,,,,,,,,,,,,,,,,,,,,,,,,,,,,,,,,,,,,,,,,,,,,,,,,,,,,,,,,,,,,,,,,,,,,,,,,,,,,,,,,,,,,,,,,,,,,,,,,,,,,,,,,,,,,,,,,,,,,,,,,,,,,,,,,,,
0,4,4,6,1,,605d54bdad62f3a65e139402,62c539be69f683a4de3533f3,2022-07-06_03h31.05.981,Colour_Asymmetry_Pilot,2022.1.3,Win32,60.0240096,62c50e9c1127f2cd403a315f,,,,,,,,,,,,,,,,,,,,,,,,,,,,,,,,,,,,,,,,,,,,,,,,,,,,,,,,,,,,,,,,,,,,,,,,,,,,,,,,,,,,,,,,,,,,,,,,,,,,,,,,,,,,,,,,,,,,,,,,,,,,,,,,,,,,,,,,,,,,,,,,,,,,,,,,,,,,,,,,,,,
0,5,5,13,1,,605d54bdad62f3a65e139402,62c539be69f683a4de3533f3,2022-07-06_03h31.05.981,Colour_Asymmetry_Pilot,2022.1.3,Win32,60.0240096,62c50e9c1127f2cd403a315f,,,,,,,,,,,,,,,,,,,,,,,,,,,,,,,,,,,,,,,,,,,,,,,,,,,,,,,,,,,,,,,,,,,,,,,,,,,,,,,,,,,,,,,,,,,,,,,,,,,,,,,,,,,,,,,,,,,,,,,,,,,,,,,,,,,,,,,,,,,,,,,,,,,,,,,,,,,,,,,,,,,
0,6,6,56,1,,605d54bdad62f3a65e139402,62c539be69f683a4de3533f3,2022-07-06_03h31.05.981,Colour_Asymmetry_Pilot,2022.1.3,Win32,60.0240096,62c50e9c1127f2cd403a315f,,,,,,,,,,,,,,,,,,,,,,,,,,,,,,,,,,,,,,,,,,,,,,,,,,,,,,,,,,,,,,,,,,,,,,,,,,,,,,,,,,,,,,,,,,,,,,,,,,,,,,,,,,,,,,,,,,,,,,,,,,,,,,,,,,,,,,,,,,,,,,,,,,,,,,,,,,,,,,,,,,,
0,7,7,66,1,,605d54bdad62f3a65e139402,62c539be69f683a4de3533f3,2022-07-06_03h31.05.981,Colour_Asymmetry_Pilot,2022.1.3,Win32,60.0240096,62c50e9c1127f2cd403a315f,,,,,,,,,,,,,,,,,,,,,,,,,,,,,,,,,,,,,,,,,,,,,,,,,,,,,,,,,,,,,,,,,,,,,,,,,,,,,,,,,,,,,,,,,,,,,,,,,,,,,,,,,,,,,,,,,,,,,,,,,,,,,,,,,,,,,,,,,,,,,,,,,,,,,,,,,,,,,,,,,,,
0,8,8,39,1,,605d54bdad62f3a65e139402,62c539be69f683a4de3533f3,2022-07-06_03h31.05.981,Colour_Asymmetry_Pilot,2022.1.3,Win32,60.0240096,62c50e9c1127f2cd403a315f,,,,,,,,,,,,,,,,,,,,,,,,,,,,,,,,,,,,,,,,,,,,,,,,,,,,,,,,,,,,,,,,,,,,,,,,,,,,,,,,,,,,,,,,,,,,,,,,,,,,,,,,,,,,,,,,,,,,,,,,,,,,,,,,,,,,,,,,,,,,,,,,,,,,,,,,,,,,,,,,,,,
0,9,9,75,1,,605d54bdad62f3a65e139402,62c539be69f683a4de3533f3,2022-07-06_03h31.05.981,Colour_Asymmetry_Pilot,2022.1.3,Win32,60.0240096,62c50e9c1127f2cd403a315f,,,,,,,,,,,,,,,,,,,,,,,,,,,,,,,,,,,,,,,,,,,,,,,,,,,,,,,,,,,,,,,,,,,,,,,,,,,,,,,,,,,,,,,,,,,,,,,,,,,,,,,,,,,,,,,,,,,,,,,,,,,,,,,,,,,,,,,,,,,,,,,,,,,,,,,,,,,,,,,,,,,
0,10,10,81,1,,605d54bdad62f3a65e139402,62c539be69f683a4de3533f3,2022-07-06_03h31.05.981,Colour_Asymmetry_Pilot,2022.1.3,Win32,60.0240096,62c50e9c1127f2cd403a315f,,,,,,,,,,,,,,,,,,,,,,,,,,,,,,,,,,,,,,,,,,,,,,,,,,,,,,,,,,,,,,,,,,,,,,,,,,,,,,,,,,,,,,,,,,,,,,,,,,,,,,,,,,,,,,,,,,,,,,,,,,,,,,,,,,,,,,,,,,,,,,,,,,,,,,,,,,,,,,,,,,,
0,11,11,55,1,,605d54bdad62f3a65e139402,62c539be69f683a4de3533f3,2022-07-06_03h31.05.981,Colour_Asymmetry_Pilot,2022.1.3,Win32,60.0240096,62c50e9c1127f2cd403a315f,,,,,,,,,,,,,,,,,,,,,,,,,,,,,,,,,,,,,,,,,,,,,,,,,,,,,,,,,,,,,,,,,,,,,,,,,,,,,,,,,,,,,,,,,,,,,,,,,,,,,,,,,,,,,,,,,,,,,,,,,,,,,,,,,,,,,,,,,,,,,,,,,,,,,,,,,,,,,,,,,,,
0,12,12,32,1,,605d54bdad62f3a65e139402,62c539be69f683a4de3533f3,2022-07-06_03h31.05.981,Colour_Asymmetry_Pilot,2022.1.3,Win32,60.0240096,62c50e9c1127f2cd403a315f,,,,,,,,,,,,,,,,,,,,,,,,,,,,,,,,,,,,,,,,,,,,,,,,,,,,,,,,,,,,,,,,,,,,,,,,,,,,,,,,,,,,,,,,,,,,,,,,,,,,,,,,,,,,,,,,,,,,,,,,,,,,,,,,,,,,,,,,,,,,,,,,,,,,,,,,,,,,,,,,,,,
0,13,13,92,1,,605d54bdad62f3a65e139402,62c539be69f683a4de3533f3,2022-07-06_03h31.05.981,Colour_Asymmetry_Pilot,2022.1.3,Win32,60.0240096,62c50e9c1127f2cd403a315f,,,,,,,,,,,,,,,,,,,,,,,,,,,,,,,,,,,,,,,,,,,,,,,,,,,,,,,,,,,,,,,,,,,,,,,,,,,,,,,,,,,,,,,,,,,,,,,,,,,,,,,,,,,,,,,,,,,,,,,,,,,,,,,,,,,,,,,,,,,,,,,,,,,,,,,,,,,,,,,,,,,
0,14,14,90,1,,605d54bdad62f3a65e139402,62c539be69f683a4de3533f3,2022-07-06_03h31.05.981,Colour_Asymmetry_Pilot,2022.1.3,Win32,60.0240096,62c50e9c1127f2cd403a315f,,,,,,,,,,,,,,,,,,,,,,,,,,,,,,,,,,,,,,,,,,,,,,,,,,,,,,,,,,,,,,,,,,,,,,,,,,,,,,,,,,,,,,,,,,,,,,,,,,,,,,,,,,,,,,,,,,,,,,,,,,,,,,,,,,,,,,,,,,,,,,,,,,,,,,,,,,,,,,,,,,,
0,15,15,17,1,,605d54bdad62f3a65e139402,62c539be69f683a4de3533f3,2022-07-06_03h31.05.981,Colour_Asymmetry_Pilot,2022.1.3,Win32,60.0240096,62c50e9c1127f2cd403a315f,,,,,,,,,,,,,,,,,,,,,,,,,,,,,,,,,,,,,,,,,,,,,,,,,,,,,,,,,,,,,,,,,,,,,,,,,,,,,,,,,,,,,,,,,,,,,,,,,,,,,,,,,,,,,,,,,,,,,,,,,,,,,,,,,,,,,,,,,,,,,,,,,,,,,,,,,,,,,,,,,,,
0,16,16,50,1,,605d54bdad62f3a65e139402,62c539be69f683a4de3533f3,2022-07-06_03h31.05.981,Colour_Asymmetry_Pilot,2022.1.3,Win32,60.0240096,62c50e9c1127f2cd403a315f,,,,,,,,,,,,,,,,,,,,,,,,,,,,,,,,,,,,,,,,,,,,,,,,,,,,,,,,,,,,,,,,,,,,,,,,,,,,,,,,,,,,,,,,,,,,,,,,,,,,,,,,,,,,,,,,,,,,,,,,,,,,,,,,,,,,,,,,,,,,,,,,,,,,,,,,,,,,,,,,,,,
0,17,17,33,1,,605d54bdad62f3a65e139402,62c539be69f683a4de3533f3,2022-07-06_03h31.05.981,Colour_Asymmetry_Pilot,2022.1.3,Win32,60.0240096,62c50e9c1127f2cd403a315f,,,,,,,,,,,,,,,,,,,,,,,,,,,,,,,,,,,,,,,,,,,,,,,,,,,,,,,,,,,,,,,,,,,,,,,,,,,,,,,,,,,,,,,,,,,,,,,,,,,,,,,,,,,,,,,,,,,,,,,,,,,,,,,,,,,,,,,,,,,,,,,,,,,,,,,,,,,,,,,,,,,
0,18,18,38,1,,605d54bdad62f3a65e139402,62c539be69f683a4de3533f3,2022-07-06_03h31.05.981,Colour_Asymmetry_Pilot,2022.1.3,Win32,60.0240096,62c50e9c1127f2cd403a315f,,,,,,,,,,,,,,,,,,,,,,,,,,,,,,,,,,,,,,,,,,,,,,,,,,,,,,,,,,,,,,,,,,,,,,,,,,,,,,,,,,,,,,,,,,,,,,,,,,,,,,,,,,,,,,,,,,,,,,,,,,,,,,,,,,,,,,,,,,,,,,,,,,,,,,,,,,,,,,,,,,,
0,19,19,72,1,,605d54bdad62f3a65e139402,62c539be69f683a4de3533f3,2022-07-06_03h31.05.981,Colour_Asymmetry_Pilot,2022.1.3,Win32,60.0240096,62c50e9c1127f2cd403a315f,,,,,,,,,,,,,,,,,,,,,,,,,,,,,,,,,,,,,,,,,,,,,,,,,,,,,,,,,,,,,,,,,,,,,,,,,,,,,,,,,,,,,,,,,,,,,,,,,,,,,,,,,,,,,,,,,,,,,,,,,,,,,,,,,,,,,,,,,,,,,,,,,,,,,,,,,,,,,,,,,,,
0,20,20,76,1,,605d54bdad62f3a65e139402,62c539be69f683a4de3533f3,2022-07-06_03h31.05.981,Colour_Asymmetry_Pilot,2022.1.3,Win32,60.0240096,62c50e9c1127f2cd403a315f,,,,,,,,,,,,,,,,,,,,,,,,,,,,,,,,,,,,,,,,,,,,,,,,,,,,,,,,,,,,,,,,,,,,,,,,,,,,,,,,,,,,,,,,,,,,,,,,,,,,,,,,,,,,,,,,,,,,,,,,,,,,,,,,,,,,,,,,,,,,,,,,,,,,,,,,,,,,,,,,,,,
0,21,21,64,1,,605d54bdad62f3a65e139402,62c539be69f683a4de3533f3,2022-07-06_03h31.05.981,Colour_Asymmetry_Pilot,2022.1.3,Win32,60.0240096,62c50e9c1127f2cd403a315f,,,,,,,,,,,,,,,,,,,,,,,,,,,,,,,,,,,,,,,,,,,,,,,,,,,,,,,,,,,,,,,,,,,,,,,,,,,,,,,,,,,,,,,,,,,,,,,,,,,,,,,,,,,,,,,,,,,,,,,,,,,,,,,,,,,,,,,,,,,,,,,,,,,,,,,,,,,,,,,,,,,
0,22,22,31,1,,605d54bdad62f3a65e139402,62c539be69f683a4de3533f3,2022-07-06_03h31.05.981,Colour_Asymmetry_Pilot,2022.1.3,Win32,60.0240096,62c50e9c1127f2cd403a315f,,,,,,,,,,,,,,,,,,,,,,,,,,,,,,,,,,,,,,,,,,,,,,,,,,,,,,,,,,,,,,,,,,,,,,,,,,,,,,,,,,,,,,,,,,,,,,,,,,,,,,,,,,,,,,,,,,,,,,,,,,,,,,,,,,,,,,,,,,,,,,,,,,,,,,,,,,,,,,,,,,,
0,23,23,67,1,,605d54bdad62f3a65e139402,62c539be69f683a4de3533f3,2022-07-06_03h31.05.981,Colour_Asymmetry_Pilot,2022.1.3,Win32,60.0240096,62c50e9c1127f2cd403a315f,,,,,,,,,,,,,,,,,,,,,,,,,,,,,,,,,,,,,,,,,,,,,,,,,,,,,,,,,,,,,,,,,,,,,,,,,,,,,,,,,,,,,,,,,,,,,,,,,,,,,,,,,,,,,,,,,,,,,,,,,,,,,,,,,,,,,,,,,,,,,,,,,,,,,,,,,,,,,,,,,,,
0,24,24,65,1,,605d54bdad62f3a65e139402,62c539be69f683a4de3533f3,2022-07-06_03h31.05.981,Colour_Asymmetry_Pilot,2022.1.3,Win32,60.0240096,62c50e9c1127f2cd403a315f,,,,,,,,,,,,,,,,,,,,,,,,,,,,,,,,,,,,,,,,,,,,,,,,,,,,,,,,,,,,,,,,,,,,,,,,,,,,,,,,,,,,,,,,,,,,,,,,,,,,,,,,,,,,,,,,,,,,,,,,,,,,,,,,,,,,,,,,,,,,,,,,,,,,,,,,,,,,,,,,,,,
0,25,25,60,1,,605d54bdad62f3a65e139402,62c539be69f683a4de3533f3,2022-07-06_03h31.05.981,Colour_Asymmetry_Pilot,2022.1.3,Win32,60.0240096,62c50e9c1127f2cd403a315f,,,,,,,,,,,,,,,,,,,,,,,,,,,,,,,,,,,,,,,,,,,,,,,,,,,,,,,,,,,,,,,,,,,,,,,,,,,,,,,,,,,,,,,,,,,,,,,,,,,,,,,,,,,,,,,,,,,,,,,,,,,,,,,,,,,,,,,,,,,,,,,,,,,,,,,,,,,,,,,,,,,
0,26,26,42,1,,605d54bdad62f3a65e139402,62c539be69f683a4de3533f3,2022-07-06_03h31.05.981,Colour_Asymmetry_Pilot,2022.1.3,Win32,60.0240096,62c50e9c1127f2cd403a315f,,,,,,,,,,,,,,,,,,,,,,,,,,,,,,,,,,,,,,,,,,,,,,,,,,,,,,,,,,,,,,,,,,,,,,,,,,,,,,,,,,,,,,,,,,,,,,,,,,,,,,,,,,,,,,,,,,,,,,,,,,,,,,,,,,,,,,,,,,,,,,,,,,,,,,,,,,,,,,,,,,,
0,27,27,25,1,,605d54bdad62f3a65e139402,62c539be69f683a4de3533f3,2022-07-06_03h31.05.981,Colour_Asymmetry_Pilot,2022.1.3,Win32,60.0240096,62c50e9c1127f2cd403a315f,,,,,,,,,,,,,,,,,,,,,,,,,,,,,,,,,,,,,,,,,,,,,,,,,,,,,,,,,,,,,,,,,,,,,,,,,,,,,,,,,,,,,,,,,,,,,,,,,,,,,,,,,,,,,,,,,,,,,,,,,,,,,,,,,,,,,,,,,,,,,,,,,,,,,,,,,,,,,,,,,,,
0,28,28,9,1,,605d54bdad62f3a65e139402,62c539be69f683a4de3533f3,2022-07-06_03h31.05.981,Colour_Asymmetry_Pilot,2022.1.3,Win32,60.0240096,62c50e9c1127f2cd403a315f,,,,,,,,,,,,,,,,,,,,,,,,,,,,,,,,,,,,,,,,,,,,,,,,,,,,,,,,,,,,,,,,,,,,,,,,,,,,,,,,,,,,,,,,,,,,,,,,,,,,,,,,,,,,,,,,,,,,,,,,,,,,,,,,,,,,,,,,,,,,,,,,,,,,,,,,,,,,,,,,,,,
0,29,29,1,1,,605d54bdad62f3a65e139402,62c539be69f683a4de3533f3,2022-07-06_03h31.05.981,Colour_Asymmetry_Pilot,2022.1.3,Win32,60.0240096,62c50e9c1127f2cd403a315f,,,,,,,,,,,,,,,,,,,,,,,,,,,,,,,,,,,,,,,,,,,,,,,,,,,,,,,,,,,,,,,,,,,,,,,,,,,,,,,,,,,,,,,,,,,,,,,,,,,,,,,,,,,,,,,,,,,,,,,,,,,,,,,,,,,,,,,,,,,,,,,,,,,,,,,,,,,,,,,,,,,
0,30,30,73,1,,605d54bdad62f3a65e139402,62c539be69f683a4de3533f3,2022-07-06_03h31.05.981,Colour_Asymmetry_Pilot,2022.1.3,Win32,60.0240096,62c50e9c1127f2cd403a315f,,,,,,,,,,,,,,,,,,,,,,,,,,,,,,,,,,,,,,,,,,,,,,,,,,,,,,,,,,,,,,,,,,,,,,,,,,,,,,,,,,,,,,,,,,,,,,,,,,,,,,,,,,,,,,,,,,,,,,,,,,,,,,,,,,,,,,,,,,,,,,,,,,,,,,,,,,,,,,,,,,,
0,31,31,3,1,,605d54bdad62f3a65e139402,62c539be69f683a4de3533f3,2022-07-06_03h31.05.981,Colour_Asymmetry_Pilot,2022.1.3,Win32,60.0240096,62c50e9c1127f2cd403a315f,,,,,,,,,,,,,,,,,,,,,,,,,,,,,,,,,,,,,,,,,,,,,,,,,,,,,,,,,,,,,,,,,,,,,,,,,,,,,,,,,,,,,,,,,,,,,,,,,,,,,,,,,,,,,,,,,,,,,,,,,,,,,,,,,,,,,,,,,,,,,,,,,,,,,,,,,,,,,,,,,,,
0,32,32,28,1,,605d54bdad62f3a65e139402,62c539be69f683a4de3533f3,2022-07-06_03h31.05.981,Colour_Asymmetry_Pilot,2022.1.3,Win32,60.0240096,62c50e9c1127f2cd403a315f,,,,,,,,,,,,,,,,,,,,,,,,,,,,,,,,,,,,,,,,,,,,,,,,,,,,,,,,,,,,,,,,,,,,,,,,,,,,,,,,,,,,,,,,,,,,,,,,,,,,,,,,,,,,,,,,,,,,,,,,,,,,,,,,,,,,,,,,,,,,,,,,,,,,,,,,,,,,,,,,,,,
0,33,33,18,1,,605d54bdad62f3a65e139402,62c539be69f683a4de3533f3,2022-07-06_03h31.05.981,Colour_Asymmetry_Pilot,2022.1.3,Win32,60.0240096,62c50e9c1127f2cd403a315f,,,,,,,,,,,,,,,,,,,,,,,,,,,,,,,,,,,,,,,,,,,,,,,,,,,,,,,,,,,,,,,,,,,,,,,,,,,,,,,,,,,,,,,,,,,,,,,,,,,,,,,,,,,,,,,,,,,,,,,,,,,,,,,,,,,,,,,,,,,,,,,,,,,,,,,,,,,,,,,,,,,
0,34,34,46,1,,605d54bdad62f3a65e139402,62c539be69f683a4de3533f3,2022-07-06_03h31.05.981,Colour_Asymmetry_Pilot,2022.1.3,Win32,60.0240096,62c50e9c1127f2cd403a315f,,,,,,,,,,,,,,,,,,,,,,,,,,,,,,,,,,,,,,,,,,,,,,,,,,,,,,,,,,,,,,,,,,,,,,,,,,,,,,,,,,,,,,,,,,,,,,,,,,,,,,,,,,,,,,,,,,,,,,,,,,,,,,,,,,,,,,,,,,,,,,,,,,,,,,,,,,,,,,,,,,,
0,35,35,78,1,,605d54bdad62f3a65e139402,62c539be69f683a4de3533f3,2022-07-06_03h31.05.981,Colour_Asymmetry_Pilot,2022.1.3,Win32,60.0240096,62c50e9c1127f2cd403a315f,,,,,,,,,,,,,,,,,,,,,,,,,,,,,,,,,,,,,,,,,,,,,,,,,,,,,,,,,,,,,,,,,,,,,,,,,,,,,,,,,,,,,,,,,,,,,,,,,,,,,,,,,,,,,,,,,,,,,,,,,,,,,,,,,,,,,,,,,,,,,,,,,,,,,,,,,,,,,,,,,,,
0,36,36,22,1,,605d54bdad62f3a65e139402,62c539be69f683a4de3533f3,2022-07-06_03h31.05.981,Colour_Asymmetry_Pilot,2022.1.3,Win32,60.0240096,62c50e9c1127f2cd403a315f,,,,,,,,,,,,,,,,,,,,,,,,,,,,,,,,,,,,,,,,,,,,,,,,,,,,,,,,,,,,,,,,,,,,,,,,,,,,,,,,,,,,,,,,,,,,,,,,,,,,,,,,,,,,,,,,,,,,,,,,,,,,,,,,,,,,,,,,,,,,,,,,,,,,,,,,,,,,,,,,,,,
0,37,37,58,1,,605d54bdad62f3a65e139402,62c539be69f683a4de3533f3,2022-07-06_03h31.05.981,Colour_Asymmetry_Pilot,2022.1.3,Win32,60.0240096,62c50e9c1127f2cd403a315f,,,,,,,,,,,,,,,,,,,,,,,,,,,,,,,,,,,,,,,,,,,,,,,,,,,,,,,,,,,,,,,,,,,,,,,,,,,,,,,,,,,,,,,,,,,,,,,,,,,,,,,,,,,,,,,,,,,,,,,,,,,,,,,,,,,,,,,,,,,,,,,,,,,,,,,,,,,,,,,,,,,
0,38,38,27,1,,605d54bdad62f3a65e139402,62c539be69f683a4de3533f3,2022-07-06_03h31.05.981,Colour_Asymmetry_Pilot,2022.1.3,Win32,60.0240096,62c50e9c1127f2cd403a315f,,,,,,,,,,,,,,,,,,,,,,,,,,,,,,,,,,,,,,,,,,,,,,,,,,,,,,,,,,,,,,,,,,,,,,,,,,,,,,,,,,,,,,,,,,,,,,,,,,,,,,,,,,,,,,,,,,,,,,,,,,,,,,,,,,,,,,,,,,,,,,,,,,,,,,,,,,,,,,,,,,,
0,39,39,49,1,,605d54bdad62f3a65e139402,62c539be69f683a4de3533f3,2022-07-06_03h31.05.981,Colour_Asymmetry_Pilot,2022.1.3,Win32,60.0240096,62c50e9c1127f2cd403a315f,,,,,,,,,,,,,,,,,,,,,,,,,,,,,,,,,,,,,,,,,,,,,,,,,,,,,,,,,,,,,,,,,,,,,,,,,,,,,,,,,,,,,,,,,,,,,,,,,,,,,,,,,,,,,,,,,,,,,,,,,,,,,,,,,,,,,,,,,,,,,,,,,,,,,,,,,,,,,,,,,,,
0,40,40,70,1,,605d54bdad62f3a65e139402,62c539be69f683a4de3533f3,2022-07-06_03h31.05.981,Colour_Asymmetry_Pilot,2022.1.3,Win32,60.0240096,62c50e9c1127f2cd403a315f,,,,,,,,,,,,,,,,,,,,,,,,,,,,,,,,,,,,,,,,,,,,,,,,,,,,,,,,,,,,,,,,,,,,,,,,,,,,,,,,,,,,,,,,,,,,,,,,,,,,,,,,,,,,,,,,,,,,,,,,,,,,,,,,,,,,,,,,,,,,,,,,,,,,,,,,,,,,,,,,,,,
0,41,41,24,1,,605d54bdad62f3a65e139402,62c539be69f683a4de3533f3,2022-07-06_03h31.05.981,Colour_Asymmetry_Pilot,2022.1.3,Win32,60.0240096,62c50e9c1127f2cd403a315f,,,,,,,,,,,,,,,,,,,,,,,,,,,,,,,,,,,,,,,,,,,,,,,,,,,,,,,,,,,,,,,,,,,,,,,,,,,,,,,,,,,,,,,,,,,,,,,,,,,,,,,,,,,,,,,,,,,,,,,,,,,,,,,,,,,,,,,,,,,,,,,,,,,,,,,,,,,,,,,,,,,
0,42,42,86,1,,605d54bdad62f3a65e139402,62c539be69f683a4de3533f3,2022-07-06_03h31.05.981,Colour_Asymmetry_Pilot,2022.1.3,Win32,60.0240096,62c50e9c1127f2cd403a315f,,,,,,,,,,,,,,,,,,,,,,,,,,,,,,,,,,,,,,,,,,,,,,,,,,,,,,,,,,,,,,,,,,,,,,,,,,,,,,,,,,,,,,,,,,,,,,,,,,,,,,,,,,,,,,,,,,,,,,,,,,,,,,,,,,,,,,,,,,,,,,,,,,,,,,,,,,,,,,,,,,,
0,43,43,8,1,,605d54bdad62f3a65e139402,62c539be69f683a4de3533f3,2022-07-06_03h31.05.981,Colour_Asymmetry_Pilot,2022.1.3,Win32,60.0240096,62c50e9c1127f2cd403a315f,,,,,,,,,,,,,,,,,,,,,,,,,,,,,,,,,,,,,,,,,,,,,,,,,,,,,,,,,,,,,,,,,,,,,,,,,,,,,,,,,,,,,,,,,,,,,,,,,,,,,,,,,,,,,,,,,,,,,,,,,,,,,,,,,,,,,,,,,,,,,,,,,,,,,,,,,,,,,,,,,,,
0,44,44,61,1,,605d54bdad62f3a65e139402,62c539be69f683a4de3533f3,2022-07-06_03h31.05.981,Colour_Asymmetry_Pilot,2022.1.3,Win32,60.0240096,62c50e9c1127f2cd403a315f,,,,,,,,,,,,,,,,,,,,,,,,,,,,,,,,,,,,,,,,,,,,,,,,,,,,,,,,,,,,,,,,,,,,,,,,,,,,,,,,,,,,,,,,,,,,,,,,,,,,,,,,,,,,,,,,,,,,,,,,,,,,,,,,,,,,,,,,,,,,,,,,,,,,,,,,,,,,,,,,,,,
0,45,45,36,1,,605d54bdad62f3a65e139402,62c539be69f683a4de3533f3,2022-07-06_03h31.05.981,Colour_Asymmetry_Pilot,2022.1.3,Win32,60.0240096,62c50e9c1127f2cd403a315f,,,,,,,,,,,,,,,,,,,,,,,,,,,,,,,,,,,,,,,,,,,,,,,,,,,,,,,,,,,,,,,,,,,,,,,,,,,,,,,,,,,,,,,,,,,,,,,,,,,,,,,,,,,,,,,,,,,,,,,,,,,,,,,,,,,,,,,,,,,,,,,,,,,,,,,,,,,,,,,,,,,
0,46,46,74,1,,605d54bdad62f3a65e139402,62c539be69f683a4de3533f3,2022-07-06_03h31.05.981,Colour_Asymmetry_Pilot,2022.1.3,Win32,60.0240096,62c50e9c1127f2cd403a315f,,,,,,,,,,,,,,,,,,,,,,,,,,,,,,,,,,,,,,,,,,,,,,,,,,,,,,,,,,,,,,,,,,,,,,,,,,,,,,,,,,,,,,,,,,,,,,,,,,,,,,,,,,,,,,,,,,,,,,,,,,,,,,,,,,,,,,,,,,,,,,,,,,,,,,,,,,,,,,,,,,,
0,47,47,71,1,,605d54bdad62f3a65e139402,62c539be69f683a4de3533f3,2022-07-06_03h31.05.981,Colour_Asymmetry_Pilot,2022.1.3,Win32,60.0240096,62c50e9c1127f2cd403a315f,,,,,,,,,,,,,,,,,,,,,,,,,,,,,,,,,,,,,,,,,,,,,,,,,,,,,,,,,,,,,,,,,,,,,,,,,,,,,,,,,,,,,,,,,,,,,,,,,,,,,,,,,,,,,,,,,,,,,,,,,,,,,,,,,,,,,,,,,,,,,,,,,,,,,,,,,,,,,,,,,,,
0,48,48,89,1,,605d54bdad62f3a65e139402,62c539be69f683a4de3533f3,2022-07-06_03h31.05.981,Colour_Asymmetry_Pilot,2022.1.3,Win32,60.0240096,62c50e9c1127f2cd403a315f,,,,,,,,,,,,,,,,,,,,,,,,,,,,,,,,,,,,,,,,,,,,,,,,,,,,,,,,,,,,,,,,,,,,,,,,,,,,,,,,,,,,,,,,,,,,,,,,,,,,,,,,,,,,,,,,,,,,,,,,,,,,,,,,,,,,,,,,,,,,,,,,,,,,,,,,,,,,,,,,,,,
0,49,49,51,1,,605d54bdad62f3a65e139402,62c539be69f683a4de3533f3,2022-07-06_03h31.05.981,Colour_Asymmetry_Pilot,2022.1.3,Win32,60.0240096,62c50e9c1127f2cd403a315f,,,,,,,,,,,,,,,,,,,,,,,,,,,,,,,,,,,,,,,,,,,,,,,,,,,,,,,,,,,,,,,,,,,,,,,,,,,,,,,,,,,,,,,,,,,,,,,,,,,,,,,,,,,,,,,,,,,,,,,,,,,,,,,,,,,,,,,,,,,,,,,,,,,,,,,,,,,,,,,,,,,
0,50,50,77,1,,605d54bdad62f3a65e139402,62c539be69f683a4de3533f3,2022-07-06_03h31.05.981,Colour_Asymmetry_Pilot,2022.1.3,Win32,60.0240096,62c50e9c1127f2cd403a315f,,,,,,,,,,,,,,,,,,,,,,,,,,,,,,,,,,,,,,,,,,,,,,,,,,,,,,,,,,,,,,,,,,,,,,,,,,,,,,,,,,,,,,,,,,,,,,,,,,,,,,,,,,,,,,,,,,,,,,,,,,,,,,,,,,,,,,,,,,,,,,,,,,,,,,,,,,,,,,,,,,,
0,51,51,35,1,,605d54bdad62f3a65e139402,62c539be69f683a4de3533f3,2022-07-06_03h31.05.981,Colour_Asymmetry_Pilot,2022.1.3,Win32,60.0240096,62c50e9c1127f2cd403a315f,,,,,,,,,,,,,,,,,,,,,,,,,,,,,,,,,,,,,,,,,,,,,,,,,,,,,,,,,,,,,,,,,,,,,,,,,,,,,,,,,,,,,,,,,,,,,,,,,,,,,,,,,,,,,,,,,,,,,,,,,,,,,,,,,,,,,,,,,,,,,,,,,,,,,,,,,,,,,,,,,,,
0,52,52,5,1,,605d54bdad62f3a65e139402,62c539be69f683a4de3533f3,2022-07-06_03h31.05.981,Colour_Asymmetry_Pilot,2022.1.3,Win32,60.0240096,62c50e9c1127f2cd403a315f,,,,,,,,,,,,,,,,,,,,,,,,,,,,,,,,,,,,,,,,,,,,,,,,,,,,,,,,,,,,,,,,,,,,,,,,,,,,,,,,,,,,,,,,,,,,,,,,,,,,,,,,,,,,,,,,,,,,,,,,,,,,,,,,,,,,,,,,,,,,,,,,,,,,,,,,,,,,,,,,,,,
0,53,53,16,1,,605d54bdad62f3a65e139402,62c539be69f683a4de3533f3,2022-07-06_03h31.05.981,Colour_Asymmetry_Pilot,2022.1.3,Win32,60.0240096,62c50e9c1127f2cd403a315f,,,,,,,,,,,,,,,,,,,,,,,,,,,,,,,,,,,,,,,,,,,,,,,,,,,,,,,,,,,,,,,,,,,,,,,,,,,,,,,,,,,,,,,,,,,,,,,,,,,,,,,,,,,,,,,,,,,,,,,,,,,,,,,,,,,,,,,,,,,,,,,,,,,,,,,,,,,,,,,,,,,
0,54,54,14,1,,605d54bdad62f3a65e139402,62c539be69f683a4de3533f3,2022-07-06_03h31.05.981,Colour_Asymmetry_Pilot,2022.1.3,Win32,60.0240096,62c50e9c1127f2cd403a315f,,,,,,,,,,,,,,,,,,,,,,,,,,,,,,,,,,,,,,,,,,,,,,,,,,,,,,,,,,,,,,,,,,,,,,,,,,,,,,,,,,,,,,,,,,,,,,,,,,,,,,,,,,,,,,,,,,,,,,,,,,,,,,,,,,,,,,,,,,,,,,,,,,,,,,,,,,,,,,,,,,,
0,55,55,80,1,,605d54bdad62f3a65e139402,62c539be69f683a4de3533f3,2022-07-06_03h31.05.981,Colour_Asymmetry_Pilot,2022.1.3,Win32,60.0240096,62c50e9c1127f2cd403a315f,,,,,,,,,,,,,,,,,,,,,,,,,,,,,,,,,,,,,,,,,,,,,,,,,,,,,,,,,,,,,,,,,,,,,,,,,,,,,,,,,,,,,,,,,,,,,,,,,,,,,,,,,,,,,,,,,,,,,,,,,,,,,,,,,,,,,,,,,,,,,,,,,,,,,,,,,,,,,,,,,,,
0,56,56,10,1,,605d54bdad62f3a65e139402,62c539be69f683a4de3533f3,2022-07-06_03h31.05.981,Colour_Asymmetry_Pilot,2022.1.3,Win32,60.0240096,62c50e9c1127f2cd403a315f,,,,,,,,,,,,,,,,,,,,,,,,,,,,,,,,,,,,,,,,,,,,,,,,,,,,,,,,,,,,,,,,,,,,,,,,,,,,,,,,,,,,,,,,,,,,,,,,,,,,,,,,,,,,,,,,,,,,,,,,,,,,,,,,,,,,,,,,,,,,,,,,,,,,,,,,,,,,,,,,,,,
0,57,57,85,1,,605d54bdad62f3a65e139402,62c539be69f683a4de3533f3,2022-07-06_03h31.05.981,Colour_Asymmetry_Pilot,2022.1.3,Win32,60.0240096,62c50e9c1127f2cd403a315f,,,,,,,,,,,,,,,,,,,,,,,,,,,,,,,,,,,,,,,,,,,,,,,,,,,,,,,,,,,,,,,,,,,,,,,,,,,,,,,,,,,,,,,,,,,,,,,,,,,,,,,,,,,,,,,,,,,,,,,,,,,,,,,,,,,,,,,,,,,,,,,,,,,,,,,,,,,,,,,,,,,
0,58,58,4,1,,605d54bdad62f3a65e139402,62c539be69f683a4de3533f3,2022-07-06_03h31.05.981,Colour_Asymmetry_Pilot,2022.1.3,Win32,60.0240096,62c50e9c1127f2cd403a315f,,,,,,,,,,,,,,,,,,,,,,,,,,,,,,,,,,,,,,,,,,,,,,,,,,,,,,,,,,,,,,,,,,,,,,,,,,,,,,,,,,,,,,,,,,,,,,,,,,,,,,,,,,,,,,,,,,,,,,,,,,,,,,,,,,,,,,,,,,,,,,,,,,,,,,,,,,,,,,,,,,,
0,59,59,20,1,,605d54bdad62f3a65e139402,62c539be69f683a4de3533f3,2022-07-06_03h31.05.981,Colour_Asymmetry_Pilot,2022.1.3,Win32,60.0240096,62c50e9c1127f2cd403a315f,,,,,,,,,,,,,,,,,,,,,,,,,,,,,,,,,,,,,,,,,,,,,,,,,,,,,,,,,,,,,,,,,,,,,,,,,,,,,,,,,,,,,,,,,,,,,,,,,,,,,,,,,,,,,,,,,,,,,,,,,,,,,,,,,,,,,,,,,,,,,,,,,,,,,,,,,,,,,,,,,,,
0,60,60,59,1,,605d54bdad62f3a65e139402,62c539be69f683a4de3533f3,2022-07-06_03h31.05.981,Colour_Asymmetry_Pilot,2022.1.3,Win32,60.0240096,62c50e9c1127f2cd403a315f,,,,,,,,,,,,,,,,,,,,,,,,,,,,,,,,,,,,,,,,,,,,,,,,,,,,,,,,,,,,,,,,,,,,,,,,,,,,,,,,,,,,,,,,,,,,,,,,,,,,,,,,,,,,,,,,,,,,,,,,,,,,,,,,,,,,,,,,,,,,,,,,,,,,,,,,,,,,,,,,,,,
0,61,61,23,1,,605d54bdad62f3a65e139402,62c539be69f683a4de3533f3,2022-07-06_03h31.05.981,Colour_Asymmetry_Pilot,2022.1.3,Win32,60.0240096,62c50e9c1127f2cd403a315f,,,,,,,,,,,,,,,,,,,,,,,,,,,,,,,,,,,,,,,,,,,,,,,,,,,,,,,,,,,,,,,,,,,,,,,,,,,,,,,,,,,,,,,,,,,,,,,,,,,,,,,,,,,,,,,,,,,,,,,,,,,,,,,,,,,,,,,,,,,,,,,,,,,,,,,,,,,,,,,,,,,
0,62,62,26,1,,605d54bdad62f3a65e139402,62c539be69f683a4de3533f3,2022-07-06_03h31.05.981,Colour_Asymmetry_Pilot,2022.1.3,Win32,60.0240096,62c50e9c1127f2cd403a315f,,,,,,,,,,,,,,,,,,,,,,,,,,,,,,,,,,,,,,,,,,,,,,,,,,,,,,,,,,,,,,,,,,,,,,,,,,,,,,,,,,,,,,,,,,,,,,,,,,,,,,,,,,,,,,,,,,,,,,,,,,,,,,,,,,,,,,,,,,,,,,,,,,,,,,,,,,,,,,,,,,,
0,63,63,29,1,,605d54bdad62f3a65e139402,62c539be69f683a4de3533f3,2022-07-06_03h31.05.981,Colour_Asymmetry_Pilot,2022.1.3,Win32,60.0240096,62c50e9c1127f2cd403a315f,,,,,,,,,,,,,,,,,,,,,,,,,,,,,,,,,,,,,,,,,,,,,,,,,,,,,,,,,,,,,,,,,,,,,,,,,,,,,,,,,,,,,,,,,,,,,,,,,,,,,,,,,,,,,,,,,,,,,,,,,,,,,,,,,,,,,,,,,,,,,,,,,,,,,,,,,,,,,,,,,,,
0,64,64,40,1,,605d54bdad62f3a65e139402,62c539be69f683a4de3533f3,2022-07-06_03h31.05.981,Colour_Asymmetry_Pilot,2022.1.3,Win32,60.0240096,62c50e9c1127f2cd403a315f,,,,,,,,,,,,,,,,,,,,,,,,,,,,,,,,,,,,,,,,,,,,,,,,,,,,,,,,,,,,,,,,,,,,,,,,,,,,,,,,,,,,,,,,,,,,,,,,,,,,,,,,,,,,,,,,,,,,,,,,,,,,,,,,,,,,,,,,,,,,,,,,,,,,,,,,,,,,,,,,,,,
0,65,65,62,1,,605d54bdad62f3a65e139402,62c539be69f683a4de3533f3,2022-07-06_03h31.05.981,Colour_Asymmetry_Pilot,2022.1.3,Win32,60.0240096,62c50e9c1127f2cd403a315f,,,,,,,,,,,,,,,,,,,,,,,,,,,,,,,,,,,,,,,,,,,,,,,,,,,,,,,,,,,,,,,,,,,,,,,,,,,,,,,,,,,,,,,,,,,,,,,,,,,,,,,,,,,,,,,,,,,,,,,,,,,,,,,,,,,,,,,,,,,,,,,,,,,,,,,,,,,,,,,,,,,
0,66,66,54,1,,605d54bdad62f3a65e139402,62c539be69f683a4de3533f3,2022-07-06_03h31.05.981,Colour_Asymmetry_Pilot,2022.1.3,Win32,60.0240096,62c50e9c1127f2cd403a315f,,,,,,,,,,,,,,,,,,,,,,,,,,,,,,,,,,,,,,,,,,,,,,,,,,,,,,,,,,,,,,,,,,,,,,,,,,,,,,,,,,,,,,,,,,,,,,,,,,,,,,,,,,,,,,,,,,,,,,,,,,,,,,,,,,,,,,,,,,,,,,,,,,,,,,,,,,,,,,,,,,,
0,67,67,41,1,,605d54bdad62f3a65e139402,62c539be69f683a4de3533f3,2022-07-06_03h31.05.981,Colour_Asymmetry_Pilot,2022.1.3,Win32,60.0240096,62c50e9c1127f2cd403a315f,,,,,,,,,,,,,,,,,,,,,,,,,,,,,,,,,,,,,,,,,,,,,,,,,,,,,,,,,,,,,,,,,,,,,,,,,,,,,,,,,,,,,,,,,,,,,,,,,,,,,,,,,,,,,,,,,,,,,,,,,,,,,,,,,,,,,,,,,,,,,,,,,,,,,,,,,,,,,,,,,,,
0,68,68,69,1,,605d54bdad62f3a65e139402,62c539be69f683a4de3533f3,2022-07-06_03h31.05.981,Colour_Asymmetry_Pilot,2022.1.3,Win32,60.0240096,62c50e9c1127f2cd403a315f,,,,,,,,,,,,,,,,,,,,,,,,,,,,,,,,,,,,,,,,,,,,,,,,,,,,,,,,,,,,,,,,,,,,,,,,,,,,,,,,,,,,,,,,,,,,,,,,,,,,,,,,,,,,,,,,,,,,,,,,,,,,,,,,,,,,,,,,,,,,,,,,,,,,,,,,,,,,,,,,,,,
0,69,69,45,1,,605d54bdad62f3a65e139402,62c539be69f683a4de3533f3,2022-07-06_03h31.05.981,Colour_Asymmetry_Pilot,2022.1.3,Win32,60.0240096,62c50e9c1127f2cd403a315f,,,,,,,,,,,,,,,,,,,,,,,,,,,,,,,,,,,,,,,,,,,,,,,,,,,,,,,,,,,,,,,,,,,,,,,,,,,,,,,,,,,,,,,,,,,,,,,,,,,,,,,,,,,,,,,,,,,,,,,,,,,,,,,,,,,,,,,,,,,,,,,,,,,,,,,,,,,,,,,,,,,
0,70,70,63,1,,605d54bdad62f3a65e139402,62c539be69f683a4de3533f3,2022-07-06_03h31.05.981,Colour_Asymmetry_Pilot,2022.1.3,Win32,60.0240096,62c50e9c1127f2cd403a315f,,,,,,,,,,,,,,,,,,,,,,,,,,,,,,,,,,,,,,,,,,,,,,,,,,,,,,,,,,,,,,,,,,,,,,,,,,,,,,,,,,,,,,,,,,,,,,,,,,,,,,,,,,,,,,,,,,,,,,,,,,,,,,,,,,,,,,,,,,,,,,,,,,,,,,,,,,,,,,,,,,,
0,71,71,34,1,,605d54bdad62f3a65e139402,62c539be69f683a4de3533f3,2022-07-06_03h31.05.981,Colour_Asymmetry_Pilot,2022.1.3,Win32,60.0240096,62c50e9c1127f2cd403a315f,,,,,,,,,,,,,,,,,,,,,,,,,,,,,,,,,,,,,,,,,,,,,,,,,,,,,,,,,,,,,,,,,,,,,,,,,,,,,,,,,,,,,,,,,,,,,,,,,,,,,,,,,,,,,,,,,,,,,,,,,,,,,,,,,,,,,,,,,,,,,,,,,,,,,,,,,,,,,,,,,,,
0,72,72,88,1,,605d54bdad62f3a65e139402,62c539be69f683a4de3533f3,2022-07-06_03h31.05.981,Colour_Asymmetry_Pilot,2022.1.3,Win32,60.0240096,62c50e9c1127f2cd403a315f,,,,,,,,,,,,,,,,,,,,,,,,,,,,,,,,,,,,,,,,,,,,,,,,,,,,,,,,,,,,,,,,,,,,,,,,,,,,,,,,,,,,,,,,,,,,,,,,,,,,,,,,,,,,,,,,,,,,,,,,,,,,,,,,,,,,,,,,,,,,,,,,,,,,,,,,,,,,,,,,,,,
0,73,73,11,1,,605d54bdad62f3a65e139402,62c539be69f683a4de3533f3,2022-07-06_03h31.05.981,Colour_Asymmetry_Pilot,2022.1.3,Win32,60.0240096,62c50e9c1127f2cd403a315f,,,,,,,,,,,,,,,,,,,,,,,,,,,,,,,,,,,,,,,,,,,,,,,,,,,,,,,,,,,,,,,,,,,,,,,,,,,,,,,,,,,,,,,,,,,,,,,,,,,,,,,,,,,,,,,,,,,,,,,,,,,,,,,,,,,,,,,,,,,,,,,,,,,,,,,,,,,,,,,,,,,
0,74,74,44,1,,605d54bdad62f3a65e139402,62c539be69f683a4de3533f3,2022-07-06_03h31.05.981,Colour_Asymmetry_Pilot,2022.1.3,Win32,60.0240096,62c50e9c1127f2cd403a315f,,,,,,,,,,,,,,,,,,,,,,,,,,,,,,,,,,,,,,,,,,,,,,,,,,,,,,,,,,,,,,,,,,,,,,,,,,,,,,,,,,,,,,,,,,,,,,,,,,,,,,,,,,,,,,,,,,,,,,,,,,,,,,,,,,,,,,,,,,,,,,,,,,,,,,,,,,,,,,,,,,,
0,75,75,82,1,,605d54bdad62f3a65e139402,62c539be69f683a4de3533f3,2022-07-06_03h31.05.981,Colour_Asymmetry_Pilot,2022.1.3,Win32,60.0240096,62c50e9c1127f2cd403a315f,,,,,,,,,,,,,,,,,,,,,,,,,,,,,,,,,,,,,,,,,,,,,,,,,,,,,,,,,,,,,,,,,,,,,,,,,,,,,,,,,,,,,,,,,,,,,,,,,,,,,,,,,,,,,,,,,,,,,,,,,,,,,,,,,,,,,,,,,,,,,,,,,,,,,,,,,,,,,,,,,,,
0,76,76,43,1,,605d54bdad62f3a65e139402,62c539be69f683a4de3533f3,2022-07-06_03h31.05.981,Colour_Asymmetry_Pilot,2022.1.3,Win32,60.0240096,62c50e9c1127f2cd403a315f,,,,,,,,,,,,,,,,,,,,,,,,,,,,,,,,,,,,,,,,,,,,,,,,,,,,,,,,,,,,,,,,,,,,,,,,,,,,,,,,,,,,,,,,,,,,,,,,,,,,,,,,,,,,,,,,,,,,,,,,,,,,,,,,,,,,,,,,,,,,,,,,,,,,,,,,,,,,,,,,,,,
0,77,77,0,1,,605d54bdad62f3a65e139402,62c539be69f683a4de3533f3,2022-07-06_03h31.05.981,Colour_Asymmetry_Pilot,2022.1.3,Win32,60.0240096,62c50e9c1127f2cd403a315f,,,,,,,,,,,,,,,,,,,,,,,,,,,,,,,,,,,,,,,,,,,,,,,,,,,,,,,,,,,,,,,,,,,,,,,,,,,,,,,,,,,,,,,,,,,,,,,,,,,,,,,,,,,,,,,,,,,,,,,,,,,,,,,,,,,,,,,,,,,,,,,,,,,,,,,,,,,,,,,,,,,
0,78,78,48,1,,605d54bdad62f3a65e139402,62c539be69f683a4de3533f3,2022-07-06_03h31.05.981,Colour_Asymmetry_Pilot,2022.1.3,Win32,60.0240096,62c50e9c1127f2cd403a315f,,,,,,,,,,,,,,,,,,,,,,,,,,,,,,,,,,,,,,,,,,,,,,,,,,,,,,,,,,,,,,,,,,,,,,,,,,,,,,,,,,,,,,,,,,,,,,,,,,,,,,,,,,,,,,,,,,,,,,,,,,,,,,,,,,,,,,,,,,,,,,,,,,,,,,,,,,,,,,,,,,,
0,79,79,79,1,,605d54bdad62f3a65e139402,62c539be69f683a4de3533f3,2022-07-06_03h31.05.981,Colour_Asymmetry_Pilot,2022.1.3,Win32,60.0240096,62c50e9c1127f2cd403a315f,,,,,,,,,,,,,,,,,,,,,,,,,,,,,,,,,,,,,,,,,,,,,,,,,,,,,,,,,,,,,,,,,,,,,,,,,,,,,,,,,,,,,,,,,,,,,,,,,,,,,,,,,,,,,,,,,,,,,,,,,,,,,,,,,,,,,,,,,,,,,,,,,,,,,,,,,,,,,,,,,,,
0,80,80,57,1,,605d54bdad62f3a65e139402,62c539be69f683a4de3533f3,2022-07-06_03h31.05.981,Colour_Asymmetry_Pilot,2022.1.3,Win32,60.0240096,62c50e9c1127f2cd403a315f,,,,,,,,,,,,,,,,,,,,,,,,,,,,,,,,,,,,,,,,,,,,,,,,,,,,,,,,,,,,,,,,,,,,,,,,,,,,,,,,,,,,,,,,,,,,,,,,,,,,,,,,,,,,,,,,,,,,,,,,,,,,,,,,,,,,,,,,,,,,,,,,,,,,,,,,,,,,,,,,,,,
0,81,81,7,1,,605d54bdad62f3a65e139402,62c539be69f683a4de3533f3,2022-07-06_03h31.05.981,Colour_Asymmetry_Pilot,2022.1.3,Win32,60.0240096,62c50e9c1127f2cd403a315f,,,,,,,,,,,,,,,,,,,,,,,,,,,,,,,,,,,,,,,,,,,,,,,,,,,,,,,,,,,,,,,,,,,,,,,,,,,,,,,,,,,,,,,,,,,,,,,,,,,,,,,,,,,,,,,,,,,,,,,,,,,,,,,,,,,,,,,,,,,,,,,,,,,,,,,,,,,,,,,,,,,
0,82,82,87,1,,605d54bdad62f3a65e139402,62c539be69f683a4de3533f3,2022-07-06_03h31.05.981,Colour_Asymmetry_Pilot,2022.1.3,Win32,60.0240096,62c50e9c1127f2cd403a315f,,,,,,,,,,,,,,,,,,,,,,,,,,,,,,,,,,,,,,,,,,,,,,,,,,,,,,,,,,,,,,,,,,,,,,,,,,,,,,,,,,,,,,,,,,,,,,,,,,,,,,,,,,,,,,,,,,,,,,,,,,,,,,,,,,,,,,,,,,,,,,,,,,,,,,,,,,,,,,,,,,,
0,83,83,53,1,,605d54bdad62f3a65e139402,62c539be69f683a4de3533f3,2022-07-06_03h31.05.981,Colour_Asymmetry_Pilot,2022.1.3,Win32,60.0240096,62c50e9c1127f2cd403a315f,,,,,,,,,,,,,,,,,,,,,,,,,,,,,,,,,,,,,,,,,,,,,,,,,,,,,,,,,,,,,,,,,,,,,,,,,,,,,,,,,,,,,,,,,,,,,,,,,,,,,,,,,,,,,,,,,,,,,,,,,,,,,,,,,,,,,,,,,,,,,,,,,,,,,,,,,,,,,,,,,,,
0,84,84,52,1,,605d54bdad62f3a65e139402,62c539be69f683a4de3533f3,2022-07-06_03h31.05.981,Colour_Asymmetry_Pilot,2022.1.3,Win32,60.0240096,62c50e9c1127f2cd403a315f,,,,,,,,,,,,,,,,,,,,,,,,,,,,,,,,,,,,,,,,,,,,,,,,,,,,,,,,,,,,,,,,,,,,,,,,,,,,,,,,,,,,,,,,,,,,,,,,,,,,,,,,,,,,,,,,,,,,,,,,,,,,,,,,,,,,,,,,,,,,,,,,,,,,,,,,,,,,,,,,,,,
0,85,85,91,1,,605d54bdad62f3a65e139402,62c539be69f683a4de3533f3,2022-07-06_03h31.05.981,Colour_Asymmetry_Pilot,2022.1.3,Win32,60.0240096,62c50e9c1127f2cd403a315f,,,,,,,,,,,,,,,,,,,,,,,,,,,,,,,,,,,,,,,,,,,,,,,,,,,,,,,,,,,,,,,,,,,,,,,,,,,,,,,,,,,,,,,,,,,,,,,,,,,,,,,,,,,,,,,,,,,,,,,,,,,,,,,,,,,,,,,,,,,,,,,,,,,,,,,,,,,,,,,,,,,
0,86,86,84,1,,605d54bdad62f3a65e139402,62c539be69f683a4de3533f3,2022-07-06_03h31.05.981,Colour_Asymmetry_Pilot,2022.1.3,Win32,60.0240096,62c50e9c1127f2cd403a315f,,,,,,,,,,,,,,,,,,,,,,,,,,,,,,,,,,,,,,,,,,,,,,,,,,,,,,,,,,,,,,,,,,,,,,,,,,,,,,,,,,,,,,,,,,,,,,,,,,,,,,,,,,,,,,,,,,,,,,,,,,,,,,,,,,,,,,,,,,,,,,,,,,,,,,,,,,,,,,,,,,,
0,87,87,47,1,,605d54bdad62f3a65e139402,62c539be69f683a4de3533f3,2022-07-06_03h31.05.981,Colour_Asymmetry_Pilot,2022.1.3,Win32,60.0240096,62c50e9c1127f2cd403a315f,,,,,,,,,,,,,,,,,,,,,,,,,,,,,,,,,,,,,,,,,,,,,,,,,,,,,,,,,,,,,,,,,,,,,,,,,,,,,,,,,,,,,,,,,,,,,,,,,,,,,,,,,,,,,,,,,,,,,,,,,,,,,,,,,,,,,,,,,,,,,,,,,,,,,,,,,,,,,,,,,,,
0,88,88,68,1,,605d54bdad62f3a65e139402,62c539be69f683a4de3533f3,2022-07-06_03h31.05.981,Colour_Asymmetry_Pilot,2022.1.3,Win32,60.0240096,62c50e9c1127f2cd403a315f,,,,,,,,,,,,,,,,,,,,,,,,,,,,,,,,,,,,,,,,,,,,,,,,,,,,,,,,,,,,,,,,,,,,,,,,,,,,,,,,,,,,,,,,,,,,,,,,,,,,,,,,,,,,,,,,,,,,,,,,,,,,,,,,,,,,,,,,,,,,,,,,,,,,,,,,,,,,,,,,,,,
0,89,89,30,1,,605d54bdad62f3a65e139402,62c539be69f683a4de3533f3,2022-07-06_03h31.05.981,Colour_Asymmetry_Pilot,2022.1.3,Win32,60.0240096,62c50e9c1127f2cd403a315f,,,,,,,,,,,,,,,,,,,,,,,,,,,,,,,,,,,,,,,,,,,,,,,,,,,,,,,,,,,,,,,,,,,,,,,,,,,,,,,,,,,,,,,,,,,,,,,,,,,,,,,,,,,,,,,,,,,,,,,,,,,,,,,,,,,,,,,,,,,,,,,,,,,,,,,,,,,,,,,,,,,
0,90,90,83,1,,605d54bdad62f3a65e139402,62c539be69f683a4de3533f3,2022-07-06_03h31.05.981,Colour_Asymmetry_Pilot,2022.1.3,Win32,60.0240096,62c50e9c1127f2cd403a315f,,,,,,,,,,,,,,,,,,,,,,,,,,,,,,,,,,,,,,,,,,,,,,,,,,,,,,,,,,,,,,,,,,,,,,,,,,,,,,,,,,,,,,,,,,,,,,,,,,,,,,,,,,,,,,,,,,,,,,,,,,,,,,,,,,,,,,,,,,,,,,,,,,,,,,,,,,,,,,,,,,,
0,91,91,15,1,,605d54bdad62f3a65e139402,62c539be69f683a4de3533f3,2022-07-06_03h31.05.981,Colour_Asymmetry_Pilot,2022.1.3,Win32,60.0240096,62c50e9c1127f2cd403a315f,,,,,,,,,,,,,,,,,,,,,,,,,,,,,,,,,,,,,,,,,,,,,,,,,,,,,,,,,,,,,,,,,,,,,,,,,,,,,,,,,,,,,,,,,,,,,,,,,,,,,,,,,,,,,,,,,,,,,,,,,,,,,,,,,,,,,,,,,,,,,,,,,,,,,,,,,,,,,,,,,,,
0,92,92,2,1,,605d54bdad62f3a65e139402,62c539be69f683a4de3533f3,2022-07-06_03h31.05.981,Colour_Asymmetry_Pilot,2022.1.3,Win32,60.0240096,62c50e9c1127f2cd403a315f,,,,,,,,,,,,,,,,,,,,,,,,,,,,,,,,,,,,,,,,,,,,,,,,,,,,,,,,,,,,,,,,,,,,,,,,,,,,,,,,,,,,,,,,,,,,,,,,,,,,,,,,,,,,,,,,,,,,,,,,,,,,,,,,,,,,,,,,,,,,,,,,,,,,,,,,,,,,,,,,,,,
,,,,,,605d54bdad62f3a65e139402,62c539be69f683a4de3533f3,2022-07-06_03h31.05.981,Colour_Asymmetry_Pilot,2022.1.3,Win32,60.0240096,62c50e9c1127f2cd403a315f,0,0,0,52,1,threeone,,,,,,,,,,,,,,,,,,,,,,,,,,,,,,,,,,,,,,,,,,,,,,,,,,,,,,,,,,,,,,,,,,,,,,,,,,,,,,,,,,,,,,,,,,,,,,,,,,,,,,,,,,,,,,,,,,,,,,,,,,,,,,,,,,,,,,,,,,,,,,,,,,,,,,,,,,,,,
,,,,,,605d54bdad62f3a65e139402,62c539be69f683a4de3533f3,2022-07-06_03h31.05.981,Colour_Asymmetry_Pilot,2022.1.3,Win32,60.0240096,62c50e9c1127f2cd403a315f,0,1,1,109,1,threefour,,,,,,,,,,,,,,,,,,,,,,,,,,,,,,,,,,,,,,,,,,,,,,,,,,,,,,,,,,,,,,,,,,,,,,,,,,,,,,,,,,,,,,,,,,,,,,,,,,,,,,,,,,,,,,,,,,,,,,,,,,,,,,,,,,,,,,,,,,,,,,,,,,,,,,,,,,,,,
,,,,,,605d54bdad62f3a65e139402,62c539be69f683a4de3533f3,2022-07-06_03h31.05.981,Colour_Asymmetry_Pilot,2022.1.3,Win32,60.0240096,62c50e9c1127f2cd403a315f,0,2,2,87,1,fourthree,,,,,,,,,,,,,,,,,,,,,,,,,,,,,,,,,,,,,,,,,,,,,,,,,,,,,,,,,,,,,,,,,,,,,,,,,,,,,,,,,,,,,,,,,,,,,,,,,,,,,,,,,,,,,,,,,,,,,,,,,,,,,,,,,,,,,,,,,,,,,,,,,,,,,,,,,,,,,
,,,,,,605d54bdad62f3a65e139402,62c539be69f683a4de3533f3,2022-07-06_03h31.05.981,Colour_Asymmetry_Pilot,2022.1.3,Win32,60.0240096,62c50e9c1127f2cd403a315f,0,3,3,101,1,threefour,,,,,,,,,,,,,,,,,,,,,,,,,,,,,,,,,,,,,,,,,,,,,,,,,,,,,,,,,,,,,,,,,,,,,,,,,,,,,,,,,,,,,,,,,,,,,,,,,,,,,,,,,,,,,,,,,,,,,,,,,,,,,,,,,,,,,,,,,,,,,,,,,,,,,,,,,,,,,
,,,,,,605d54bdad62f3a65e139402,62c539be69f683a4de3533f3,2022-07-06_03h31.05.981,Colour_Asymmetry_Pilot,2022.1.3,Win32,60.0240096,62c50e9c1127f2cd403a315f,0,4,4,147,1,twofour,,,,,,,,,,,,,,,,,,,,,,,,,,,,,,,,,,,,,,,,,,,,,,,,,,,,,,,,,,,,,,,,,,,,,,,,,,,,,,,,,,,,,,,,,,,,,,,,,,,,,,,,,,,,,,,,,,,,,,,,,,,,,,,,,,,,,,,,,,,,,,,,,,,,,,,,,,,,,
,,,,,,605d54bdad62f3a65e139402,62c539be69f683a4de3533f3,2022-07-06_03h31.05.981,Colour_Asymmetry_Pilot,2022.1.3,Win32,60.0240096,62c50e9c1127f2cd403a315f,0,5,5,118,1,fourtwo,,,,,,,,,,,,,,,,,,,,,,,,,,,,,,,,,,,,,,,,,,,,,,,,,,,,,,,,,,,,,,,,,,,,,,,,,,,,,,,,,,,,,,,,,,,,,,,,,,,,,,,,,,,,,,,,,,,,,,,,,,,,,,,,,,,,,,,,,,,,,,,,,,,,,,,,,,,,,
,,,,,,605d54bdad62f3a65e139402,62c539be69f683a4de3533f3,2022-07-06_03h31.05.981,Colour_Asymmetry_Pilot,2022.1.3,Win32,60.0240096,62c50e9c1127f2cd403a315f,0,6,6,98,1,twoone,,,,,,,,,,,,,,,,,,,,,,,,,,,,,,,,,,,,,,,,,,,,,,,,,,,,,,,,,,,,,,,,,,,,,,,,,,,,,,,,,,,,,,,,,,,,,,,,,,,,,,,,,,,,,,,,,,,,,,,,,,,,,,,,,,,,,,,,,,,,,,,,,,,,,,,,,,,,,
,,,,,,605d54bdad62f3a65e139402,62c539be69f683a4de3533f3,2022-07-06_03h31.05.981,Colour_Asymmetry_Pilot,2022.1.3,Win32,60.0240096,62c50e9c1127f2cd403a315f,0,7,7,14,1,fourtwo,,,,,,,,,,,,,,,,,,,,,,,,,,,,,,,,,,,,,,,,,,,,,,,,,,,,,,,,,,,,,,,,,,,,,,,,,,,,,,,,,,,,,,,,,,,,,,,,,,,,,,,,,,,,,,,,,,,,,,,,,,,,,,,,,,,,,,,,,,,,,,,,,,,,,,,,,,,,,
,,,,,,605d54bdad62f3a65e139402,62c539be69f683a4de3533f3,2022-07-06_03h31.05.981,Colour_Asymmetry_Pilot,2022.1.3,Win32,60.0240096,62c50e9c1127f2cd403a315f,0,8,8,145,1,onethree,,,,,,,,,,,,,,,,,,,,,,,,,,,,,,,,,,,,,,,,,,,,,,,,,,,,,,,,,,,,,,,,,,,,,,,,,,,,,,,,,,,,,,,,,,,,,,,,,,,,,,,,,,,,,,,,,,,,,,,,,,,,,,,,,,,,,,,,,,,,,,,,,,,,,,,,,,,,,
,,,,,,605d54bdad62f3a65e139402,62c539be69f683a4de3533f3,2022-07-06_03h31.05.981,Colour_Asymmetry_Pilot,2022.1.3,Win32,60.0240096,62c50e9c1127f2cd403a315f,0,9,9,37,1,threefour,,,,,,,,,,,,,,,,,,,,,,,,,,,,,,,,,,,,,,,,,,,,,,,,,,,,,,,,,,,,,,,,,,,,,,,,,,,,,,,,,,,,,,,,,,,,,,,,,,,,,,,,,,,,,,,,,,,,,,,,,,,,,,,,,,,,,,,,,,,,,,,,,,,,,,,,,,,,,
,,,,,,605d54bdad62f3a65e139402,62c539be69f683a4de3533f3,2022-07-06_03h31.05.981,Colour_Asymmetry_Pilot,2022.1.3,Win32,60.0240096,62c50e9c1127f2cd403a315f,0,10,10,100,1,threeone,,,,,,,,,,,,,,,,,,,,,,,,,,,,,,,,,,,,,,,,,,,,,,,,,,,,,,,,,,,,,,,,,,,,,,,,,,,,,,,,,,,,,,,,,,,,,,,,,,,,,,,,,,,,,,,,,,,,,,,,,,,,,,,,,,,,,,,,,,,,,,,,,,,,,,,,,,,,,
,,,,,,605d54bdad62f3a65e139402,62c539be69f683a4de3533f3,2022-07-06_03h31.05.981,Colour_Asymmetry_Pilot,2022.1.3,Win32,60.0240096,62c50e9c1127f2cd403a315f,0,11,11,140,1,threeone,,,,,,,,,,,,,,,,,,,,,,,,,,,,,,,,,,,,,,,,,,,,,,,,,,,,,,,,,,,,,,,,,,,,,,,,,,,,,,,,,,,,,,,,,,,,,,,,,,,,,,,,,,,,,,,,,,,,,,,,,,,,,,,,,,,,,,,,,,,,,,,,,,,,,,,,,,,,,
,,,,,,605d54bdad62f3a65e139402,62c539be69f683a4de3533f3,2022-07-06_03h31.05.981,Colour_Asymmetry_Pilot,2022.1.3,Win32,60.0240096,62c50e9c1127f2cd403a315f,0,12,12,93,1,threefour,,,,,,,,,,,,,,,,,,,,,,,,,,,,,,,,,,,,,,,,,,,,,,,,,,,,,,,,,,,,,,,,,,,,,,,,,,,,,,,,,,,,,,,,,,,,,,,,,,,,,,,,,,,,,,,,,,,,,,,,,,,,,,,,,,,,,,,,,,,,,,,,,,,,,,,,,,,,,
,,,,,,605d54bdad62f3a65e139402,62c539be69f683a4de3533f3,2022-07-06_03h31.05.981,Colour_Asymmetry_Pilot,2022.1.3,Win32,60.0240096,62c50e9c1127f2cd403a315f,0,13,13,40,1,onetwo,,,,,,,,,,,,,,,,,,,,,,,,,,,,,,,,,,,,,,,,,,,,,,,,,,,,,,,,,,,,,,,,,,,,,,,,,,,,,,,,,,,,,,,,,,,,,,,,,,,,,,,,,,,,,,,,,,,,,,,,,,,,,,,,,,,,,,,,,,,,,,,,,,,,,,,,,,,,,
,,,,,,605d54bdad62f3a65e139402,62c539be69f683a4de3533f3,2022-07-06_03h31.05.981,Colour_Asymmetry_Pilot,2022.1.3,Win32,60.0240096,62c50e9c1127f2cd403a315f,0,14,14,123,1,twofour,,,,,,,,,,,,,,,,,,,,,,,,,,,,,,,,,,,,,,,,,,,,,,,,,,,,,,,,,,,,,,,,,,,,,,,,,,,,,,,,,,,,,,,,,,,,,,,,,,,,,,,,,,,,,,,,,,,,,,,,,,,,,,,,,,,,,,,,,,,,,,,,,,,,,,,,,,,,,
,,,,,,605d54bdad62f3a65e139402,62c539be69f683a4de3533f3,2022-07-06_03h31.05.981,Colour_Asymmetry_Pilot,2022.1.3,Win32,60.0240096,62c50e9c1127f2cd403a315f,0,15,15,20,1,threeone,,,,,,,,,,,,,,,,,,,,,,,,,,,,,,,,,,,,,,,,,,,,,,,,,,,,,,,,,,,,,,,,,,,,,,,,,,,,,,,,,,,,,,,,,,,,,,,,,,,,,,,,,,,,,,,,,,,,,,,,,,,,,,,,,,,,,,,,,,,,,,,,,,,,,,,,,,,,,
,,,,,,605d54bdad62f3a65e139402,62c539be69f683a4de3533f3,2022-07-06_03h31.05.981,Colour_Asymmetry_Pilot,2022.1.3,Win32,60.0240096,62c50e9c1127f2cd403a315f,0,16,16,58,1,twoone,,,,,,,,,,,,,,,,,,,,,,,,,,,,,,,,,,,,,,,,,,,,,,,,,,,,,,,,,,,,,,,,,,,,,,,,,,,,,,,,,,,,,,,,,,,,,,,,,,,,,,,,,,,,,,,,,,,,,,,,,,,,,,,,,,,,,,,,,,,,,,,,,,,,,,,,,,,,,
,,,,,,605d54bdad62f3a65e139402,62c539be69f683a4de3533f3,2022-07-06_03h31.05.981,Colour_Asymmetry_Pilot,2022.1.3,Win32,60.0240096,62c50e9c1127f2cd403a315f,0,17,17,75,1,twofour,,,,,,,,,,,,,,,,,,,,,,,,,,,,,,,,,,,,,,,,,,,,,,,,,,,,,,,,,,,,,,,,,,,,,,,,,,,,,,,,,,,,,,,,,,,,,,,,,,,,,,,,,,,,,,,,,,,,,,,,,,,,,,,,,,,,,,,,,,,,,,,,,,,,,,,,,,,,,
,,,,,,605d54bdad62f3a65e139402,62c539be69f683a4de3533f3,2022-07-06_03h31.05.981,Colour_Asymmetry_Pilot,2022.1.3,Win32,60.0240096,62c50e9c1127f2cd403a315f,0,18,18,53,1,threefour,,,,,,,,,,,,,,,,,,,,,,,,,,,,,,,,,,,,,,,,,,,,,,,,,,,,,,,,,,,,,,,,,,,,,,,,,,,,,,,,,,,,,,,,,,,,,,,,,,,,,,,,,,,,,,,,,,,,,,,,,,,,,,,,,,,,,,,,,,,,,,,,,,,,,,,,,,,,,
,,,,,,605d54bdad62f3a65e139402,62c539be69f683a4de3533f3,2022-07-06_03h31.05.981,Colour_Asymmetry_Pilot,2022.1.3,Win32,60.0240096,62c50e9c1127f2cd403a315f,0,19,19,8,1,onetwo,,,,,,,,,,,,,,,,,,,,,,,,,,,,,,,,,,,,,,,,,,,,,,,,,,,,,,,,,,,,,,,,,,,,,,,,,,,,,,,,,,,,,,,,,,,,,,,,,,,,,,,,,,,,,,,,,,,,,,,,,,,,,,,,,,,,,,,,,,,,,,,,,,,,,,,,,,,,,
,,,,,,605d54bdad62f3a65e139402,62c539be69f683a4de3533f3,2022-07-06_03h31.05.981,Colour_Asymmetry_Pilot,2022.1.3,Win32,60.0240096,62c50e9c1127f2cd403a315f,0,20,20,119,1,fourthree,,,,,,,,,,,,,,,,,,,,,,,,,,,,,,,,,,,,,,,,,,,,,,,,,,,,,,,,,,,,,,,,,,,,,,,,,,,,,,,,,,,,,,,,,,,,,,,,,,,,,,,,,,,,,,,,,,,,,,,,,,,,,,,,,,,,,,,,,,,,,,,,,,,,,,,,,,,,,
,,,,,,605d54bdad62f3a65e139402,62c539be69f683a4de3533f3,2022-07-06_03h31.05.981,Colour_Asymmetry_Pilot,2022.1.3,Win32,60.0240096,62c50e9c1127f2cd403a315f,0,21,21,94,1,fourtwo,,,,,,,,,,,,,,,,,,,,,,,,,,,,,,,,,,,,,,,,,,,,,,,,,,,,,,,,,,,,,,,,,,,,,,,,,,,,,,,,,,,,,,,,,,,,,,,,,,,,,,,,,,,,,,,,,,,,,,,,,,,,,,,,,,,,,,,,,,,,,,,,,,,,,,,,,,,,,
,,,,,,605d54bdad62f3a65e139402,62c539be69f683a4de3533f3,2022-07-06_03h31.05.981,Colour_Asymmetry_Pilot,2022.1.3,Win32,60.0240096,62c50e9c1127f2cd403a315f,0,22,22,36,1,threeone,,,,,,,,,,,,,,,,,,,,,,,,,,,,,,,,,,,,,,,,,,,,,,,,,,,,,,,,,,,,,,,,,,,,,,,,,,,,,,,,,,,,,,,,,,,,,,,,,,,,,,,,,,,,,,,,,,,,,,,,,,,,,,,,,,,,,,,,,,,,,,,,,,,,,,,,,,,,,
,,,,,,605d54bdad62f3a65e139402,62c539be69f683a4de3533f3,2022-07-06_03h31.05.981,Colour_Asymmetry_Pilot,2022.1.3,Win32,60.0240096,62c50e9c1127f2cd403a315f,0,23,23,115,1,twofour,,,,,,,,,,,,,,,,,,,,,,,,,,,,,,,,,,,,,,,,,,,,,,,,,,,,,,,,,,,,,,,,,,,,,,,,,,,,,,,,,,,,,,,,,,,,,,,,,,,,,,,,,,,,,,,,,,,,,,,,,,,,,,,,,,,,,,,,,,,,,,,,,,,,,,,,,,,,,
,,,,,,605d54bdad62f3a65e139402,62c539be69f683a4de3533f3,2022-07-06_03h31.05.981,Colour_Asymmetry_Pilot,2022.1.3,Win32,60.0240096,62c50e9c1127f2cd403a315f,0,24,24,74,1,twoone,,,,,,,,,,,,,,,,,,,,,,,,,,,,,,,,,,,,,,,,,,,,,,,,,,,,,,,,,,,,,,,,,,,,,,,,,,,,,,,,,,,,,,,,,,,,,,,,,,,,,,,,,,,,,,,,,,,,,,,,,,,,,,,,,,,,,,,,,,,,,,,,,,,,,,,,,,,,,
,,,,,,605d54bdad62f3a65e139402,62c539be69f683a4de3533f3,2022-07-06_03h31.05.981,Colour_Asymmetry_Pilot,2022.1.3,Win32,60.0240096,62c50e9c1127f2cd403a315f,0,25,25,92,1,threeone,,,,,,,,,,,,,,,,,,,,,,,,,,,,,,,,,,,,,,,,,,,,,,,,,,,,,,,,,,,,,,,,,,,,,,,,,,,,,,,,,,,,,,,,,,,,,,,,,,,,,,,,,,,,,,,,,,,,,,,,,,,,,,,,,,,,,,,,,,,,,,,,,,,,,,,,,,,,,
,,,,,,605d54bdad62f3a65e139402,62c539be69f683a4de3533f3,2022-07-06_03h31.05.981,Colour_Asymmetry_Pilot,2022.1.3,Win32,60.0240096,62c50e9c1127f2cd403a315f,0,26,26,137,1,onethree,,,,,,,,,,,,,,,,,,,,,,,,,,,,,,,,,,,,,,,,,,,,,,,,,,,,,,,,,,,,,,,,,,,,,,,,,,,,,,,,,,,,,,,,,,,,,,,,,,,,,,,,,,,,,,,,,,,,,,,,,,,,,,,,,,,,,,,,,,,,,,,,,,,,,,,,,,,,,
,,,,,,605d54bdad62f3a65e139402,62c539be69f683a4de3533f3,2022-07-06_03h31.05.981,Colour_Asymmetry_Pilot,2022.1.3,Win32,60.0240096,62c50e9c1127f2cd403a315f,0,27,27,156,1,threeone,,,,,,,,,,,,,,,,,,,,,,,,,,,,,,,,,,,,,,,,,,,,,,,,,,,,,,,,,,,,,,,,,,,,,,,,,,,,,,,,,,,,,,,,,,,,,,,,,,,,,,,,,,,,,,,,,,,,,,,,,,,,,,,,,,,,,,,,,,,,,,,,,,,,,,,,,,,,,
,,,,,,605d54bdad62f3a65e139402,62c539be69f683a4de3533f3,2022-07-06_03h31.05.981,Colour_Asymmetry_Pilot,2022.1.3,Win32,60.0240096,62c50e9c1127f2cd403a315f,0,28,28,46,1,fourtwo,,,,,,,,,,,,,,,,,,,,,,,,,,,,,,,,,,,,,,,,,,,,,,,,,,,,,,,,,,,,,,,,,,,,,,,,,,,,,,,,,,,,,,,,,,,,,,,,,,,,,,,,,,,,,,,,,,,,,,,,,,,,,,,,,,,,,,,,,,,,,,,,,,,,,,,,,,,,,
,,,,,,605d54bdad62f3a65e139402,62c539be69f683a4de3533f3,2022-07-06_03h31.05.981,Colour_Asymmetry_Pilot,2022.1.3,Win32,60.0240096,62c50e9c1127f2cd403a315f,0,29,29,33,1,onethree,,,,,,,,,,,,,,,,,,,,,,,,,,,,,,,,,,,,,,,,,,,,,,,,,,,,,,,,,,,,,,,,,,,,,,,,,,,,,,,,,,,,,,,,,,,,,,,,,,,,,,,,,,,,,,,,,,,,,,,,,,,,,,,,,,,,,,,,,,,,,,,,,,,,,,,,,,,,,
,,,,,,605d54bdad62f3a65e139402,62c539be69f683a4de3533f3,2022-07-06_03h31.05.981,Colour_Asymmetry_Pilot,2022.1.3,Win32,60.0240096,62c50e9c1127f2cd403a315f,0,30,30,0,1,onetwo,,,,,,,,,,,,,,,,,,,,,,,,,,,,,,,,,,,,,,,,,,,,,,,,,,,,,,,,,,,,,,,,,,,,,,,,,,,,,,,,,,,,,,,,,,,,,,,,,,,,,,,,,,,,,,,,,,,,,,,,,,,,,,,,,,,,,,,,,,,,,,,,,,,,,,,,,,,,,
,,,,,,605d54bdad62f3a65e139402,62c539be69f683a4de3533f3,2022-07-06_03h31.05.981,Colour_Asymmetry_Pilot,2022.1.3,Win32,60.0240096,62c50e9c1127f2cd403a315f,0,31,31,91,1,twofour,,,,,,,,,,,,,,,,,,,,,,,,,,,,,,,,,,,,,,,,,,,,,,,,,,,,,,,,,,,,,,,,,,,,,,,,,,,,,,,,,,,,,,,,,,,,,,,,,,,,,,,,,,,,,,,,,,,,,,,,,,,,,,,,,,,,,,,,,,,,,,,,,,,,,,,,,,,,,
,,,,,,605d54bdad62f3a65e139402,62c539be69f683a4de3533f3,2022-07-06_03h31.05.981,Colour_Asymmetry_Pilot,2022.1.3,Win32,60.0240096,62c50e9c1127f2cd403a315f,0,32,32,7,1,fourthree,,,,,,,,,,,,,,,,,,,,,,,,,,,,,,,,,,,,,,,,,,,,,,,,,,,,,,,,,,,,,,,,,,,,,,,,,,,,,,,,,,,,,,,,,,,,,,,,,,,,,,,,,,,,,,,,,,,,,,,,,,,,,,,,,,,,,,,,,,,,,,,,,,,,,,,,,,,,,
,,,,,,605d54bdad62f3a65e139402,62c539be69f683a4de3533f3,2022-07-06_03h31.05.981,Colour_Asymmetry_Pilot,2022.1.3,Win32,60.0240096,62c50e9c1127f2cd403a315f,0,33,33,146,1,twoone,,,,,,,,,,,,,,,,,,,,,,,,,,,,,,,,,,,,,,,,,,,,,,,,,,,,,,,,,,,,,,,,,,,,,,,,,,,,,,,,,,,,,,,,,,,,,,,,,,,,,,,,,,,,,,,,,,,,,,,,,,,,,,,,,,,,,,,,,,,,,,,,,,,,,,,,,,,,,
,,,,,,605d54bdad62f3a65e139402,62c539be69f683a4de3533f3,2022-07-06_03h31.05.981,Colour_Asymmetry_Pilot,2022.1.3,Win32,60.0240096,62c50e9c1127f2cd403a315f,0,34,34,81,1,onethree,,,,,,,,,,,,,,,,,,,,,,,,,,,,,,,,,,,,,,,,,,,,,,,,,,,,,,,,,,,,,,,,,,,,,,,,,,,,,,,,,,,,,,,,,,,,,,,,,,,,,,,,,,,,,,,,,,,,,,,,,,,,,,,,,,,,,,,,,,,,,,,,,,,,,,,,,,,,,
,,,,,,605d54bdad62f3a65e139402,62c539be69f683a4de3533f3,2022-07-06_03h31.05.981,Colour_Asymmetry_Pilot,2022.1.3,Win32,60.0240096,62c50e9c1127f2cd403a315f,0,35,35,16,1,onetwo,,,,,,,,,,,,,,,,,,,,,,,,,,,,,,,,,,,,,,,,,,,,,,,,,,,,,,,,,,,,,,,,,,,,,,,,,,,,,,,,,,,,,,,,,,,,,,,,,,,,,,,,,,,,,,,,,,,,,,,,,,,,,,,,,,,,,,,,,,,,,,,,,,,,,,,,,,,,,
,,,,,,605d54bdad62f3a65e139402,62c539be69f683a4de3533f3,2022-07-06_03h31.05.981,Colour_Asymmetry_Pilot,2022.1.3,Win32,60.0240096,62c50e9c1127f2cd403a315f,0,36,36,18,1,twoone,,,,,,,,,,,,,,,,,,,,,,,,,,,,,,,,,,,,,,,,,,,,,,,,,,,,,,,,,,,,,,,,,,,,,,,,,,,,,,,,,,,,,,,,,,,,,,,,,,,,,,,,,,,,,,,,,,,,,,,,,,,,,,,,,,,,,,,,,,,,,,,,,,,,,,,,,,,,,
,,,,,,605d54bdad62f3a65e139402,62c539be69f683a4de3533f3,2022-07-06_03h31.05.981,Colour_Asymmetry_Pilot,2022.1.3,Win32,60.0240096,62c50e9c1127f2cd403a315f,0,37,37,136,1,onetwo,,,,,,,,,,,,,,,,,,,,,,,,,,,,,,,,,,,,,,,,,,,,,,,,,,,,,,,,,,,,,,,,,,,,,,,,,,,,,,,,,,,,,,,,,,,,,,,,,,,,,,,,,,,,,,,,,,,,,,,,,,,,,,,,,,,,,,,,,,,,,,,,,,,,,,,,,,,,,
,,,,,,605d54bdad62f3a65e139402,62c539be69f683a4de3533f3,2022-07-06_03h31.05.981,Colour_Asymmetry_Pilot,2022.1.3,Win32,60.0240096,62c50e9c1127f2cd403a315f,0,38,38,12,1,threeone,,,,,,,,,,,,,,,,,,,,,,,,,,,,,,,,,,,,,,,,,,,,,,,,,,,,,,,,,,,,,,,,,,,,,,,,,,,,,,,,,,,,,,,,,,,,,,,,,,,,,,,,,,,,,,,,,,,,,,,,,,,,,,,,,,,,,,,,,,,,,,,,,,,,,,,,,,,,,
,,,,,,605d54bdad62f3a65e139402,62c539be69f683a4de3533f3,2022-07-06_03h31.05.981,Colour_Asymmetry_Pilot,2022.1.3,Win32,60.0240096,62c50e9c1127f2cd403a315f,0,39,39,34,1,twoone,,,,,,,,,,,,,,,,,,,,,,,,,,,,,,,,,,,,,,,,,,,,,,,,,,,,,,,,,,,,,,,,,,,,,,,,,,,,,,,,,,,,,,,,,,,,,,,,,,,,,,,,,,,,,,,,,,,,,,,,,,,,,,,,,,,,,,,,,,,,,,,,,,,,,,,,,,,,,
,,,,,,605d54bdad62f3a65e139402,62c539be69f683a4de3533f3,2022-07-06_03h31.05.981,Colour_Asymmetry_Pilot,2022.1.3,Win32,60.0240096,62c50e9c1127f2cd403a315f,0,40,40,149,1,threefour,,,,,,,,,,,,,,,,,,,,,,,,,,,,,,,,,,,,,,,,,,,,,,,,,,,,,,,,,,,,,,,,,,,,,,,,,,,,,,,,,,,,,,,,,,,,,,,,,,,,,,,,,,,,,,,,,,,,,,,,,,,,,,,,,,,,,,,,,,,,,,,,,,,,,,,,,,,,,
,,,,,,605d54bdad62f3a65e139402,62c539be69f683a4de3533f3,2022-07-06_03h31.05.981,Colour_Asymmetry_Pilot,2022.1.3,Win32,60.0240096,62c50e9c1127f2cd403a315f,0,41,41,27,1,twofour,,,,,,,,,,,,,,,,,,,,,,,,,,,,,,,,,,,,,,,,,,,,,,,,,,,,,,,,,,,,,,,,,,,,,,,,,,,,,,,,,,,,,,,,,,,,,,,,,,,,,,,,,,,,,,,,,,,,,,,,,,,,,,,,,,,,,,,,,,,,,,,,,,,,,,,,,,,,,
,,,,,,605d54bdad62f3a65e139402,62c539be69f683a4de3533f3,2022-07-06_03h31.05.981,Colour_Asymmetry_Pilot,2022.1.3,Win32,60.0240096,62c50e9c1127f2cd403a315f,0,42,42,69,1,threefour,,,,,,,,,,,,,,,,,,,,,,,,,,,,,,,,,,,,,,,,,,,,,,,,,,,,,,,,,,,,,,,,,,,,,,,,,,,,,,,,,,,,,,,,,,,,,,,,,,,,,,,,,,,,,,,,,,,,,,,,,,,,,,,,,,,,,,,,,,,,,,,,,,,,,,,,,,,,,
,,,,,,605d54bdad62f3a65e139402,62c539be69f683a4de3533f3,2022-07-06_03h31.05.981,Colour_Asymmetry_Pilot,2022.1.3,Win32,60.0240096,62c50e9c1127f2cd403a315f,0,43,43,48,1,onetwo,,,,,,,,,,,,,,,,,,,,,,,,,,,,,,,,,,,,,,,,,,,,,,,,,,,,,,,,,,,,,,,,,,,,,,,,,,,,,,,,,,,,,,,,,,,,,,,,,,,,,,,,,,,,,,,,,,,,,,,,,,,,,,,,,,,,,,,,,,,,,,,,,,,,,,,,,,,,,
,,,,,,605d54bdad62f3a65e139402,62c539be69f683a4de3533f3,2022-07-06_03h31.05.981,Colour_Asymmetry_Pilot,2022.1.3,Win32,60.0240096,62c50e9c1127f2cd403a315f,0,44,44,120,1,onetwo,,,,,,,,,,,,,,,,,,,,,,,,,,,,,,,,,,,,,,,,,,,,,,,,,,,,,,,,,,,,,,,,,,,,,,,,,,,,,,,,,,,,,,,,,,,,,,,,,,,,,,,,,,,,,,,,,,,,,,,,,,,,,,,,,,,,,,,,,,,,,,,,,,,,,,,,,,,,,
,,,,,,605d54bdad62f3a65e139402,62c539be69f683a4de3533f3,2022-07-06_03h31.05.981,Colour_Asymmetry_Pilot,2022.1.3,Win32,60.0240096,62c50e9c1127f2cd403a315f,0,45,45,151,1,fourthree,,,,,,,,,,,,,,,,,,,,,,,,,,,,,,,,,,,,,,,,,,,,,,,,,,,,,,,,,,,,,,,,,,,,,,,,,,,,,,,,,,,,,,,,,,,,,,,,,,,,,,,,,,,,,,,,,,,,,,,,,,,,,,,,,,,,,,,,,,,,,,,,,,,,,,,,,,,,,
,,,,,,605d54bdad62f3a65e139402,62c539be69f683a4de3533f3,2022-07-06_03h31.05.981,Colour_Asymmetry_Pilot,2022.1.3,Win32,60.0240096,62c50e9c1127f2cd403a315f,0,46,46,82,1,twoone,,,,,,,,,,,,,,,,,,,,,,,,,,,,,,,,,,,,,,,,,,,,,,,,,,,,,,,,,,,,,,,,,,,,,,,,,,,,,,,,,,,,,,,,,,,,,,,,,,,,,,,,,,,,,,,,,,,,,,,,,,,,,,,,,,,,,,,,,,,,,,,,,,,,,,,,,,,,,
,,,,,,605d54bdad62f3a65e139402,62c539be69f683a4de3533f3,2022-07-06_03h31.05.981,Colour_Asymmetry_Pilot,2022.1.3,Win32,60.0240096,62c50e9c1127f2cd403a315f,0,47,47,153,1,onethree,,,,,,,,,,,,,,,,,,,,,,,,,,,,,,,,,,,,,,,,,,,,,,,,,,,,,,,,,,,,,,,,,,,,,,,,,,,,,,,,,,,,,,,,,,,,,,,,,,,,,,,,,,,,,,,,,,,,,,,,,,,,,,,,,,,,,,,,,,,,,,,,,,,,,,,,,,,,,
,,,,,,605d54bdad62f3a65e139402,62c539be69f683a4de3533f3,2022-07-06_03h31.05.981,Colour_Asymmetry_Pilot,2022.1.3,Win32,60.0240096,62c50e9c1127f2cd403a315f,0,48,48,127,1,fourthree,,,,,,,,,,,,,,,,,,,,,,,,,,,,,,,,,,,,,,,,,,,,,,,,,,,,,,,,,,,,,,,,,,,,,,,,,,,,,,,,,,,,,,,,,,,,,,,,,,,,,,,,,,,,,,,,,,,,,,,,,,,,,,,,,,,,,,,,,,,,,,,,,,,,,,,,,,,,,
,,,,,,605d54bdad62f3a65e139402,62c539be69f683a4de3533f3,2022-07-06_03h31.05.981,Colour_Asymmetry_Pilot,2022.1.3,Win32,60.0240096,62c50e9c1127f2cd403a315f,0,49,49,21,1,threefour,,,,,,,,,,,,,,,,,,,,,,,,,,,,,,,,,,,,,,,,,,,,,,,,,,,,,,,,,,,,,,,,,,,,,,,,,,,,,,,,,,,,,,,,,,,,,,,,,,,,,,,,,,,,,,,,,,,,,,,,,,,,,,,,,,,,,,,,,,,,,,,,,,,,,,,,,,,,,
,,,,,,605d54bdad62f3a65e139402,62c539be69f683a4de3533f3,2022-07-06_03h31.05.981,Colour_Asymmetry_Pilot,2022.1.3,Win32,60.0240096,62c50e9c1127f2cd403a315f,0,50,50,66,1,twoone,,,,,,,,,,,,,,,,,,,,,,,,,,,,,,,,,,,,,,,,,,,,,,,,,,,,,,,,,,,,,,,,,,,,,,,,,,,,,,,,,,,,,,,,,,,,,,,,,,,,,,,,,,,,,,,,,,,,,,,,,,,,,,,,,,,,,,,,,,,,,,,,,,,,,,,,,,,,,
,,,,,,605d54bdad62f3a65e139402,62c539be69f683a4de3533f3,2022-07-06_03h31.05.981,Colour_Asymmetry_Pilot,2022.1.3,Win32,60.0240096,62c50e9c1127f2cd403a315f,0,51,51,142,1,fourtwo,,,,,,,,,,,,,,,,,,,,,,,,,,,,,,,,,,,,,,,,,,,,,,,,,,,,,,,,,,,,,,,,,,,,,,,,,,,,,,,,,,,,,,,,,,,,,,,,,,,,,,,,,,,,,,,,,,,,,,,,,,,,,,,,,,,,,,,,,,,,,,,,,,,,,,,,,,,,,
,,,,,,605d54bdad62f3a65e139402,62c539be69f683a4de3533f3,2022-07-06_03h31.05.981,Colour_Asymmetry_Pilot,2022.1.3,Win32,60.0240096,62c50e9c1127f2cd403a315f,0,52,52,90,1,twoone,,,,,,,,,,,,,,,,,,,,,,,,,,,,,,,,,,,,,,,,,,,,,,,,,,,,,,,,,,,,,,,,,,,,,,,,,,,,,,,,,,,,,,,,,,,,,,,,,,,,,,,,,,,,,,,,,,,,,,,,,,,,,,,,,,,,,,,,,,,,,,,,,,,,,,,,,,,,,
,,,,,,605d54bdad62f3a65e139402,62c539be69f683a4de3533f3,2022-07-06_03h31.05.981,Colour_Asymmetry_Pilot,2022.1.3,Win32,60.0240096,62c50e9c1127f2cd403a315f,0,53,53,31,1,fourthree,,,,,,,,,,,,,,,,,,,,,,,,,,,,,,,,,,,,,,,,,,,,,,,,,,,,,,,,,,,,,,,,,,,,,,,,,,,,,,,,,,,,,,,,,,,,,,,,,,,,,,,,,,,,,,,,,,,,,,,,,,,,,,,,,,,,,,,,,,,,,,,,,,,,,,,,,,,,,
,,,,,,605d54bdad62f3a65e139402,62c539be69f683a4de3533f3,2022-07-06_03h31.05.981,Colour_Asymmetry_Pilot,2022.1.3,Win32,60.0240096,62c50e9c1127f2cd403a315f,0,54,54,43,1,twofour,,,,,,,,,,,,,,,,,,,,,,,,,,,,,,,,,,,,,,,,,,,,,,,,,,,,,,,,,,,,,,,,,,,,,,,,,,,,,,,,,,,,,,,,,,,,,,,,,,,,,,,,,,,,,,,,,,,,,,,,,,,,,,,,,,,,,,,,,,,,,,,,,,,,,,,,,,,,,
,,,,,,605d54bdad62f3a65e139402,62c539be69f683a4de3533f3,2022-07-06_03h31.05.981,Colour_Asymmetry_Pilot,2022.1.3,Win32,60.0240096,62c50e9c1127f2cd403a315f,0,55,55,41,1,onethree,,,,,,,,,,,,,,,,,,,,,,,,,,,,,,,,,,,,,,,,,,,,,,,,,,,,,,,,,,,,,,,,,,,,,,,,,,,,,,,,,,,,,,,,,,,,,,,,,,,,,,,,,,,,,,,,,,,,,,,,,,,,,,,,,,,,,,,,,,,,,,,,,,,,,,,,,,,,,
,,,,,,605d54bdad62f3a65e139402,62c539be69f683a4de3533f3,2022-07-06_03h31.05.981,Colour_Asymmetry_Pilot,2022.1.3,Win32,60.0240096,62c50e9c1127f2cd403a315f,0,56,56,13,1,threefour,,,,,,,,,,,,,,,,,,,,,,,,,,,,,,,,,,,,,,,,,,,,,,,,,,,,,,,,,,,,,,,,,,,,,,,,,,,,,,,,,,,,,,,,,,,,,,,,,,,,,,,,,,,,,,,,,,,,,,,,,,,,,,,,,,,,,,,,,,,,,,,,,,,,,,,,,,,,,
,,,,,,605d54bdad62f3a65e139402,62c539be69f683a4de3533f3,2022-07-06_03h31.05.981,Colour_Asymmetry_Pilot,2022.1.3,Win32,60.0240096,62c50e9c1127f2cd403a315f,0,57,57,5,1,threefour,,,,,,,,,,,,,,,,,,,,,,,,,,,,,,,,,,,,,,,,,,,,,,,,,,,,,,,,,,,,,,,,,,,,,,,,,,,,,,,,,,,,,,,,,,,,,,,,,,,,,,,,,,,,,,,,,,,,,,,,,,,,,,,,,,,,,,,,,,,,,,,,,,,,,,,,,,,,,
,,,,,,605d54bdad62f3a65e139402,62c539be69f683a4de3533f3,2022-07-06_03h31.05.981,Colour_Asymmetry_Pilot,2022.1.3,Win32,60.0240096,62c50e9c1127f2cd403a315f,0,58,58,84,1,threeone,,,,,,,,,,,,,,,,,,,,,,,,,,,,,,,,,,,,,,,,,,,,,,,,,,,,,,,,,,,,,,,,,,,,,,,,,,,,,,,,,,,,,,,,,,,,,,,,,,,,,,,,,,,,,,,,,,,,,,,,,,,,,,,,,,,,,,,,,,,,,,,,,,,,,,,,,,,,,
,,,,,,605d54bdad62f3a65e139402,62c539be69f683a4de3533f3,2022-07-06_03h31.05.981,Colour_Asymmetry_Pilot,2022.1.3,Win32,60.0240096,62c50e9c1127f2cd403a315f,0,59,59,133,1,threefour,,,,,,,,,,,,,,,,,,,,,,,,,,,,,,,,,,,,,,,,,,,,,,,,,,,,,,,,,,,,,,,,,,,,,,,,,,,,,,,,,,,,,,,,,,,,,,,,,,,,,,,,,,,,,,,,,,,,,,,,,,,,,,,,,,,,,,,,,,,,,,,,,,,,,,,,,,,,,
,,,,,,605d54bdad62f3a65e139402,62c539be69f683a4de3533f3,2022-07-06_03h31.05.981,Colour_Asymmetry_Pilot,2022.1.3,Win32,60.0240096,62c50e9c1127f2cd403a315f,0,60,60,26,1,twoone,,,,,,,,,,,,,,,,,,,,,,,,,,,,,,,,,,,,,,,,,,,,,,,,,,,,,,,,,,,,,,,,,,,,,,,,,,,,,,,,,,,,,,,,,,,,,,,,,,,,,,,,,,,,,,,,,,,,,,,,,,,,,,,,,,,,,,,,,,,,,,,,,,,,,,,,,,,,,
,,,,,,605d54bdad62f3a65e139402,62c539be69f683a4de3533f3,2022-07-06_03h31.05.981,Colour_Asymmetry_Pilot,2022.1.3,Win32,60.0240096,62c50e9c1127f2cd403a315f,0,61,61,116,1,threeone,,,,,,,,,,,,,,,,,,,,,,,,,,,,,,,,,,,,,,,,,,,,,,,,,,,,,,,,,,,,,,,,,,,,,,,,,,,,,,,,,,,,,,,,,,,,,,,,,,,,,,,,,,,,,,,,,,,,,,,,,,,,,,,,,,,,,,,,,,,,,,,,,,,,,,,,,,,,,
,,,,,,605d54bdad62f3a65e139402,62c539be69f683a4de3533f3,2022-07-06_03h31.05.981,Colour_Asymmetry_Pilot,2022.1.3,Win32,60.0240096,62c50e9c1127f2cd403a315f,0,62,62,59,1,twofour,,,,,,,,,,,,,,,,,,,,,,,,,,,,,,,,,,,,,,,,,,,,,,,,,,,,,,,,,,,,,,,,,,,,,,,,,,,,,,,,,,,,,,,,,,,,,,,,,,,,,,,,,,,,,,,,,,,,,,,,,,,,,,,,,,,,,,,,,,,,,,,,,,,,,,,,,,,,,
,,,,,,605d54bdad62f3a65e139402,62c539be69f683a4de3533f3,2022-07-06_03h31.05.981,Colour_Asymmetry_Pilot,2022.1.3,Win32,60.0240096,62c50e9c1127f2cd403a315f,0,63,63,125,1,threefour,,,,,,,,,,,,,,,,,,,,,,,,,,,,,,,,,,,,,,,,,,,,,,,,,,,,,,,,,,,,,,,,,,,,,,,,,,,,,,,,,,,,,,,,,,,,,,,,,,,,,,,,,,,,,,,,,,,,,,,,,,,,,,,,,,,,,,,,,,,,,,,,,,,,,,,,,,,,,
,,,,,,605d54bdad62f3a65e139402,62c539be69f683a4de3533f3,2022-07-06_03h31.05.981,Colour_Asymmetry_Pilot,2022.1.3,Win32,60.0240096,62c50e9c1127f2cd403a315f,0,64,64,60,1,threeone,,,,,,,,,,,,,,,,,,,,,,,,,,,,,,,,,,,,,,,,,,,,,,,,,,,,,,,,,,,,,,,,,,,,,,,,,,,,,,,,,,,,,,,,,,,,,,,,,,,,,,,,,,,,,,,,,,,,,,,,,,,,,,,,,,,,,,,,,,,,,,,,,,,,,,,,,,,,,
,,,,,,605d54bdad62f3a65e139402,62c539be69f683a4de3533f3,2022-07-06_03h31.05.981,Colour_Asymmetry_Pilot,2022.1.3,Win32,60.0240096,62c50e9c1127f2cd403a315f,0,65,65,55,1,fourthree,,,,,,,,,,,,,,,,,,,,,,,,,,,,,,,,,,,,,,,,,,,,,,,,,,,,,,,,,,,,,,,,,,,,,,,,,,,,,,,,,,,,,,,,,,,,,,,,,,,,,,,,,,,,,,,,,,,,,,,,,,,,,,,,,,,,,,,,,,,,,,,,,,,,,,,,,,,,,
,,,,,,605d54bdad62f3a65e139402,62c539be69f683a4de3533f3,2022-07-06_03h31.05.981,Colour_Asymmetry_Pilot,2022.1.3,Win32,60.0240096,62c50e9c1127f2cd403a315f,0,66,66,65,1,onethree,,,,,,,,,,,,,,,,,,,,,,,,,,,,,,,,,,,,,,,,,,,,,,,,,,,,,,,,,,,,,,,,,,,,,,,,,,,,,,,,,,,,,,,,,,,,,,,,,,,,,,,,,,,,,,,,,,,,,,,,,,,,,,,,,,,,,,,,,,,,,,,,,,,,,,,,,,,,,
,,,,,,605d54bdad62f3a65e139402,62c539be69f683a4de3533f3,2022-07-06_03h31.05.981,Colour_Asymmetry_Pilot,2022.1.3,Win32,60.0240096,62c50e9c1127f2cd403a315f,0,67,67,132,1,threeone,,,,,,,,,,,,,,,,,,,,,,,,,,,,,,,,,,,,,,,,,,,,,,,,,,,,,,,,,,,,,,,,,,,,,,,,,,,,,,,,,,,,,,,,,,,,,,,,,,,,,,,,,,,,,,,,,,,,,,,,,,,,,,,,,,,,,,,,,,,,,,,,,,,,,,,,,,,,,
,,,,,,605d54bdad62f3a65e139402,62c539be69f683a4de3533f3,2022-07-06_03h31.05.981,Colour_Asymmetry_Pilot,2022.1.3,Win32,60.0240096,62c50e9c1127f2cd403a315f,0,68,68,32,1,onetwo,,,,,,,,,,,,,,,,,,,,,,,,,,,,,,,,,,,,,,,,,,,,,,,,,,,,,,,,,,,,,,,,,,,,,,,,,,,,,,,,,,,,,,,,,,,,,,,,,,,,,,,,,,,,,,,,,,,,,,,,,,,,,,,,,,,,,,,,,,,,,,,,,,,,,,,,,,,,,
,,,,,,605d54bdad62f3a65e139402,62c539be69f683a4de3533f3,2022-07-06_03h31.05.981,Colour_Asymmetry_Pilot,2022.1.3,Win32,60.0240096,62c50e9c1127f2cd403a315f,0,69,69,106,1,twoone,,,,,,,,,,,,,,,,,,,,,,,,,,,,,,,,,,,,,,,,,,,,,,,,,,,,,,,,,,,,,,,,,,,,,,,,,,,,,,,,,,,,,,,,,,,,,,,,,,,,,,,,,,,,,,,,,,,,,,,,,,,,,,,,,,,,,,,,,,,,,,,,,,,,,,,,,,,,,
,,,,,,605d54bdad62f3a65e139402,62c539be69f683a4de3533f3,2022-07-06_03h31.05.981,Colour_Asymmetry_Pilot,2022.1.3,Win32,60.0240096,62c50e9c1127f2cd403a315f,0,70,70,97,1,onethree,,,,,,,,,,,,,,,,,,,,,,,,,,,,,,,,,,,,,,,,,,,,,,,,,,,,,,,,,,,,,,,,,,,,,,,,,,,,,,,,,,,,,,,,,,,,,,,,,,,,,,,,,,,,,,,,,,,,,,,,,,,,,,,,,,,,,,,,,,,,,,,,,,,,,,,,,,,,,
,,,,,,605d54bdad62f3a65e139402,62c539be69f683a4de3533f3,2022-07-06_03h31.05.981,Colour_Asymmetry_Pilot,2022.1.3,Win32,60.0240096,62c50e9c1127f2cd403a315f,0,71,71,139,1,twofour,,,,,,,,,,,,,,,,,,,,,,,,,,,,,,,,,,,,,,,,,,,,,,,,,,,,,,,,,,,,,,,,,,,,,,,,,,,,,,,,,,,,,,,,,,,,,,,,,,,,,,,,,,,,,,,,,,,,,,,,,,,,,,,,,,,,,,,,,,,,,,,,,,,,,,,,,,,,,
,,,,,,605d54bdad62f3a65e139402,62c539be69f683a4de3533f3,2022-07-06_03h31.05.981,Colour_Asymmetry_Pilot,2022.1.3,Win32,60.0240096,62c50e9c1127f2cd403a315f,0,72,72,10,1,twoone,,,,,,,,,,,,,,,,,,,,,,,,,,,,,,,,,,,,,,,,,,,,,,,,,,,,,,,,,,,,,,,,,,,,,,,,,,,,,,,,,,,,,,,,,,,,,,,,,,,,,,,,,,,,,,,,,,,,,,,,,,,,,,,,,,,,,,,,,,,,,,,,,,,,,,,,,,,,,
,,,,,,605d54bdad62f3a65e139402,62c539be69f683a4de3533f3,2022-07-06_03h31.05.981,Colour_Asymmetry_Pilot,2022.1.3,Win32,60.0240096,62c50e9c1127f2cd403a315f,0,73,73,44,1,threeone,,,,,,,,,,,,,,,,,,,,,,,,,,,,,,,,,,,,,,,,,,,,,,,,,,,,,,,,,,,,,,,,,,,,,,,,,,,,,,,,,,,,,,,,,,,,,,,,,,,,,,,,,,,,,,,,,,,,,,,,,,,,,,,,,,,,,,,,,,,,,,,,,,,,,,,,,,,,,
,,,,,,605d54bdad62f3a65e139402,62c539be69f683a4de3533f3,2022-07-06_03h31.05.981,Colour_Asymmetry_Pilot,2022.1.3,Win32,60.0240096,62c50e9c1127f2cd403a315f,0,74,74,99,1,twofour,,,,,,,,,,,,,,,,,,,,,,,,,,,,,,,,,,,,,,,,,,,,,,,,,,,,,,,,,,,,,,,,,,,,,,,,,,,,,,,,,,,,,,,,,,,,,,,,,,,,,,,,,,,,,,,,,,,,,,,,,,,,,,,,,,,,,,,,,,,,,,,,,,,,,,,,,,,,,
,,,,,,605d54bdad62f3a65e139402,62c539be69f683a4de3533f3,2022-07-06_03h31.05.981,Colour_Asymmetry_Pilot,2022.1.3,Win32,60.0240096,62c50e9c1127f2cd403a315f,0,75,75,155,1,twofour,,,,,,,,,,,,,,,,,,,,,,,,,,,,,,,,,,,,,,,,,,,,,,,,,,,,,,,,,,,,,,,,,,,,,,,,,,,,,,,,,,,,,,,,,,,,,,,,,,,,,,,,,,,,,,,,,,,,,,,,,,,,,,,,,,,,,,,,,,,,,,,,,,,,,,,,,,,,,
,,,,,,605d54bdad62f3a65e139402,62c539be69f683a4de3533f3,2022-07-06_03h31.05.981,Colour_Asymmetry_Pilot,2022.1.3,Win32,60.0240096,62c50e9c1127f2cd403a315f,0,76,76,38,1,fourtwo,,,,,,,,,,,,,,,,,,,,,,,,,,,,,,,,,,,,,,,,,,,,,,,,,,,,,,,,,,,,,,,,,,,,,,,,,,,,,,,,,,,,,,,,,,,,,,,,,,,,,,,,,,,,,,,,,,,,,,,,,,,,,,,,,,,,,,,,,,,,,,,,,,,,,,,,,,,,,
,,,,,,605d54bdad62f3a65e139402,62c539be69f683a4de3533f3,2022-07-06_03h31.05.981,Colour_Asymmetry_Pilot,2022.1.3,Win32,60.0240096,62c50e9c1127f2cd403a315f,0,77,77,61,1,threefour,,,,,,,,,,,,,,,,,,,,,,,,,,,,,,,,,,,,,,,,,,,,,,,,,,,,,,,,,,,,,,,,,,,,,,,,,,,,,,,,,,,,,,,,,,,,,,,,,,,,,,,,,,,,,,,,,,,,,,,,,,,,,,,,,,,,,,,,,,,,,,,,,,,,,,,,,,,,,
,,,,,,605d54bdad62f3a65e139402,62c539be69f683a4de3533f3,2022-07-06_03h31.05.981,Colour_Asymmetry_Pilot,2022.1.3,Win32,60.0240096,62c50e9c1127f2cd403a315f,0,78,78,79,1,fourthree,,,,,,,,,,,,,,,,,,,,,,,,,,,,,,,,,,,,,,,,,,,,,,,,,,,,,,,,,,,,,,,,,,,,,,,,,,,,,,,,,,,,,,,,,,,,,,,,,,,,,,,,,,,,,,,,,,,,,,,,,,,,,,,,,,,,,,,,,,,,,,,,,,,,,,,,,,,,,
,,,,,,605d54bdad62f3a65e139402,62c539be69f683a4de3533f3,2022-07-06_03h31.05.981,Colour_Asymmetry_Pilot,2022.1.3,Win32,60.0240096,62c50e9c1127f2cd403a315f,0,79,79,70,1,fourtwo,,,,,,,,,,,,,,,,,,,,,,,,,,,,,,,,,,,,,,,,,,,,,,,,,,,,,,,,,,,,,,,,,,,,,,,,,,,,,,,,,,,,,,,,,,,,,,,,,,,,,,,,,,,,,,,,,,,,,,,,,,,,,,,,,,,,,,,,,,,,,,,,,,,,,,,,,,,,,
,,,,,,605d54bdad62f3a65e139402,62c539be69f683a4de3533f3,2022-07-06_03h31.05.981,Colour_Asymmetry_Pilot,2022.1.3,Win32,60.0240096,62c50e9c1127f2cd403a315f,0,80,80,71,1,fourthree,,,,,,,,,,,,,,,,,,,,,,,,,,,,,,,,,,,,,,,,,,,,,,,,,,,,,,,,,,,,,,,,,,,,,,,,,,,,,,,,,,,,,,,,,,,,,,,,,,,,,,,,,,,,,,,,,,,,,,,,,,,,,,,,,,,,,,,,,,,,,,,,,,,,,,,,,,,,,
,,,,,,605d54bdad62f3a65e139402,62c539be69f683a4de3533f3,2022-07-06_03h31.05.981,Colour_Asymmetry_Pilot,2022.1.3,Win32,60.0240096,62c50e9c1127f2cd403a315f,0,81,81,50,1,twoone,,,,,,,,,,,,,,,,,,,,,,,,,,,,,,,,,,,,,,,,,,,,,,,,,,,,,,,,,,,,,,,,,,,,,,,,,,,,,,,,,,,,,,,,,,,,,,,,,,,,,,,,,,,,,,,,,,,,,,,,,,,,,,,,,,,,,,,,,,,,,,,,,,,,,,,,,,,,,
,,,,,,605d54bdad62f3a65e139402,62c539be69f683a4de3533f3,2022-07-06_03h31.05.981,Colour_Asymmetry_Pilot,2022.1.3,Win32,60.0240096,62c50e9c1127f2cd403a315f,0,82,82,105,1,onethree,,,,,,,,,,,,,,,,,,,,,,,,,,,,,,,,,,,,,,,,,,,,,,,,,,,,,,,,,,,,,,,,,,,,,,,,,,,,,,,,,,,,,,,,,,,,,,,,,,,,,,,,,,,,,,,,,,,,,,,,,,,,,,,,,,,,,,,,,,,,,,,,,,,,,,,,,,,,,
,,,,,,605d54bdad62f3a65e139402,62c539be69f683a4de3533f3,2022-07-06_03h31.05.981,Colour_Asymmetry_Pilot,2022.1.3,Win32,60.0240096,62c50e9c1127f2cd403a315f,0,83,83,47,1,fourthree,,,,,,,,,,,,,,,,,,,,,,,,,,,,,,,,,,,,,,,,,,,,,,,,,,,,,,,,,,,,,,,,,,,,,,,,,,,,,,,,,,,,,,,,,,,,,,,,,,,,,,,,,,,,,,,,,,,,,,,,,,,,,,,,,,,,,,,,,,,,,,,,,,,,,,,,,,,,,
,,,,,,605d54bdad62f3a65e139402,62c539be69f683a4de3533f3,2022-07-06_03h31.05.981,Colour_Asymmetry_Pilot,2022.1.3,Win32,60.0240096,62c50e9c1127f2cd403a315f,0,84,84,28,1,threeone,,,,,,,,,,,,,,,,,,,,,,,,,,,,,,,,,,,,,,,,,,,,,,,,,,,,,,,,,,,,,,,,,,,,,,,,,,,,,,,,,,,,,,,,,,,,,,,,,,,,,,,,,,,,,,,,,,,,,,,,,,,,,,,,,,,,,,,,,,,,,,,,,,,,,,,,,,,,,
,,,,,,605d54bdad62f3a65e139402,62c539be69f683a4de3533f3,2022-07-06_03h31.05.981,Colour_Asymmetry_Pilot,2022.1.3,Win32,60.0240096,62c50e9c1127f2cd403a315f,0,85,85,117,1,threefour,,,,,,,,,,,,,,,,,,,,,,,,,,,,,,,,,,,,,,,,,,,,,,,,,,,,,,,,,,,,,,,,,,,,,,,,,,,,,,,,,,,,,,,,,,,,,,,,,,,,,,,,,,,,,,,,,,,,,,,,,,,,,,,,,,,,,,,,,,,,,,,,,,,,,,,,,,,,,
,,,,,,605d54bdad62f3a65e139402,62c539be69f683a4de3533f3,2022-07-06_03h31.05.981,Colour_Asymmetry_Pilot,2022.1.3,Win32,60.0240096,62c50e9c1127f2cd403a315f,0,86,86,130,1,twoone,,,,,,,,,,,,,,,,,,,,,,,,,,,,,,,,,,,,,,,,,,,,,,,,,,,,,,,,,,,,,,,,,,,,,,,,,,,,,,,,,,,,,,,,,,,,,,,,,,,,,,,,,,,,,,,,,,,,,,,,,,,,,,,,,,,,,,,,,,,,,,,,,,,,,,,,,,,,,
,,,,,,605d54bdad62f3a65e139402,62c539be69f683a4de3533f3,2022-07-06_03h31.05.981,Colour_Asymmetry_Pilot,2022.1.3,Win32,60.0240096,62c50e9c1127f2cd403a315f,0,87,87,23,1,fourthree,,,,,,,,,,,,,,,,,,,,,,,,,,,,,,,,,,,,,,,,,,,,,,,,,,,,,,,,,,,,,,,,,,,,,,,,,,,,,,,,,,,,,,,,,,,,,,,,,,,,,,,,,,,,,,,,,,,,,,,,,,,,,,,,,,,,,,,,,,,,,,,,,,,,,,,,,,,,,
,,,,,,605d54bdad62f3a65e139402,62c539be69f683a4de3533f3,2022-07-06_03h31.05.981,Colour_Asymmetry_Pilot,2022.1.3,Win32,60.0240096,62c50e9c1127f2cd403a315f,0,88,88,131,1,twofour,,,,,,,,,,,,,,,,,,,,,,,,,,,,,,,,,,,,,,,,,,,,,,,,,,,,,,,,,,,,,,,,,,,,,,,,,,,,,,,,,,,,,,,,,,,,,,,,,,,,,,,,,,,,,,,,,,,,,,,,,,,,,,,,,,,,,,,,,,,,,,,,,,,,,,,,,,,,,
,,,,,,605d54bdad62f3a65e139402,62c539be69f683a4de3533f3,2022-07-06_03h31.05.981,Colour_Asymmetry_Pilot,2022.1.3,Win32,60.0240096,62c50e9c1127f2cd403a315f,0,89,89,85,1,threefour,,,,,,,,,,,,,,,,,,,,,,,,,,,,,,,,,,,,,,,,,,,,,,,,,,,,,,,,,,,,,,,,,,,,,,,,,,,,,,,,,,,,,,,,,,,,,,,,,,,,,,,,,,,,,,,,,,,,,,,,,,,,,,,,,,,,,,,,,,,,,,,,,,,,,,,,,,,,,
,,,,,,605d54bdad62f3a65e139402,62c539be69f683a4de3533f3,2022-07-06_03h31.05.981,Colour_Asymmetry_Pilot,2022.1.3,Win32,60.0240096,62c50e9c1127f2cd403a315f,0,90,90,114,1,twoone,,,,,,,,,,,,,,,,,,,,,,,,,,,,,,,,,,,,,,,,,,,,,,,,,,,,,,,,,,,,,,,,,,,,,,,,,,,,,,,,,,,,,,,,,,,,,,,,,,,,,,,,,,,,,,,,,,,,,,,,,,,,,,,,,,,,,,,,,,,,,,,,,,,,,,,,,,,,,
,,,,,,605d54bdad62f3a65e139402,62c539be69f683a4de3533f3,2022-07-06_03h31.05.981,Colour_Asymmetry_Pilot,2022.1.3,Win32,60.0240096,62c50e9c1127f2cd403a315f,0,91,91,3,1,twofour,,,,,,,,,,,,,,,,,,,,,,,,,,,,,,,,,,,,,,,,,,,,,,,,,,,,,,,,,,,,,,,,,,,,,,,,,,,,,,,,,,,,,,,,,,,,,,,,,,,,,,,,,,,,,,,,,,,,,,,,,,,,,,,,,,,,,,,,,,,,,,,,,,,,,,,,,,,,,
,,,,,,605d54bdad62f3a65e139402,62c539be69f683a4de3533f3,2022-07-06_03h31.05.981,Colour_Asymmetry_Pilot,2022.1.3,Win32,60.0240096,62c50e9c1127f2cd403a315f,0,92,92,25,1,onethree,,,,,,,,,,,,,,,,,,,,,,,,,,,,,,,,,,,,,,,,,,,,,,,,,,,,,,,,,,,,,,,,,,,,,,,,,,,,,,,,,,,,,,,,,,,,,,,,,,,,,,,,,,,,,,,,,,,,,,,,,,,,,,,,,,,,,,,,,,,,,,,,,,,,,,,,,,,,,
,,,,,,605d54bdad62f3a65e139402,62c539be69f683a4de3533f3,2022-07-06_03h31.05.981,Colour_Asymmetry_Pilot,2022.1.3,Win32,60.0240096,62c50e9c1127f2cd403a315f,0,93,93,110,1,fourtwo,,,,,,,,,,,,,,,,,,,,,,,,,,,,,,,,,,,,,,,,,,,,,,,,,,,,,,,,,,,,,,,,,,,,,,,,,,,,,,,,,,,,,,,,,,,,,,,,,,,,,,,,,,,,,,,,,,,,,,,,,,,,,,,,,,,,,,,,,,,,,,,,,,,,,,,,,,,,,
,,,,,,605d54bdad62f3a65e139402,62c539be69f683a4de3533f3,2022-07-06_03h31.05.981,Colour_Asymmetry_Pilot,2022.1.3,Win32,60.0240096,62c50e9c1127f2cd403a315f,0,94,94,102,1,fourtwo,,,,,,,,,,,,,,,,,,,,,,,,,,,,,,,,,,,,,,,,,,,,,,,,,,,,,,,,,,,,,,,,,,,,,,,,,,,,,,,,,,,,,,,,,,,,,,,,,,,,,,,,,,,,,,,,,,,,,,,,,,,,,,,,,,,,,,,,,,,,,,,,,,,,,,,,,,,,,
,,,,,,605d54bdad62f3a65e139402,62c539be69f683a4de3533f3,2022-07-06_03h31.05.981,Colour_Asymmetry_Pilot,2022.1.3,Win32,60.0240096,62c50e9c1127f2cd403a315f,0,95,95,107,1,twofour,,,,,,,,,,,,,,,,,,,,,,,,,,,,,,,,,,,,,,,,,,,,,,,,,,,,,,,,,,,,,,,,,,,,,,,,,,,,,,,,,,,,,,,,,,,,,,,,,,,,,,,,,,,,,,,,,,,,,,,,,,,,,,,,,,,,,,,,,,,,,,,,,,,,,,,,,,,,,
,,,,,,605d54bdad62f3a65e139402,62c539be69f683a4de3533f3,2022-07-06_03h31.05.981,Colour_Asymmetry_Pilot,2022.1.3,Win32,60.0240096,62c50e9c1127f2cd403a315f,0,96,96,54,1,fourtwo,,,,,,,,,,,,,,,,,,,,,,,,,,,,,,,,,,,,,,,,,,,,,,,,,,,,,,,,,,,,,,,,,,,,,,,,,,,,,,,,,,,,,,,,,,,,,,,,,,,,,,,,,,,,,,,,,,,,,,,,,,,,,,,,,,,,,,,,,,,,,,,,,,,,,,,,,,,,,
,,,,,,605d54bdad62f3a65e139402,62c539be69f683a4de3533f3,2022-07-06_03h31.05.981,Colour_Asymmetry_Pilot,2022.1.3,Win32,60.0240096,62c50e9c1127f2cd403a315f,0,97,97,49,1,onethree,,,,,,,,,,,,,,,,,,,,,,,,,,,,,,,,,,,,,,,,,,,,,,,,,,,,,,,,,,,,,,,,,,,,,,,,,,,,,,,,,,,,,,,,,,,,,,,,,,,,,,,,,,,,,,,,,,,,,,,,,,,,,,,,,,,,,,,,,,,,,,,,,,,,,,,,,,,,,
,,,,,,605d54bdad62f3a65e139402,62c539be69f683a4de3533f3,2022-07-06_03h31.05.981,Colour_Asymmetry_Pilot,2022.1.3,Win32,60.0240096,62c50e9c1127f2cd403a315f,0,98,98,158,1,fourtwo,,,,,,,,,,,,,,,,,,,,,,,,,,,,,,,,,,,,,,,,,,,,,,,,,,,,,,,,,,,,,,,,,,,,,,,,,,,,,,,,,,,,,,,,,,,,,,,,,,,,,,,,,,,,,,,,,,,,,,,,,,,,,,,,,,,,,,,,,,,,,,,,,,,,,,,,,,,,,
,,,,,,605d54bdad62f3a65e139402,62c539be69f683a4de3533f3,2022-07-06_03h31.05.981,Colour_Asymmetry_Pilot,2022.1.3,Win32,60.0240096,62c50e9c1127f2cd403a315f,0,99,99,56,1,onetwo,,,,,,,,,,,,,,,,,,,,,,,,,,,,,,,,,,,,,,,,,,,,,,,,,,,,,,,,,,,,,,,,,,,,,,,,,,,,,,,,,,,,,,,,,,,,,,,,,,,,,,,,,,,,,,,,,,,,,,,,,,,,,,,,,,,,,,,,,,,,,,,,,,,,,,,,,,,,,
,,,,,,605d54bdad62f3a65e139402,62c539be69f683a4de3533f3,2022-07-06_03h31.05.981,Colour_Asymmetry_Pilot,2022.1.3,Win32,60.0240096,62c50e9c1127f2cd403a315f,0,100,100,45,1,threefour,,,,,,,,,,,,,,,,,,,,,,,,,,,,,,,,,,,,,,,,,,,,,,,,,,,,,,,,,,,,,,,,,,,,,,,,,,,,,,,,,,,,,,,,,,,,,,,,,,,,,,,,,,,,,,,,,,,,,,,,,,,,,,,,,,,,,,,,,,,,,,,,,,,,,,,,,,,,,
,,,,,,605d54bdad62f3a65e139402,62c539be69f683a4de3533f3,2022-07-06_03h31.05.981,Colour_Asymmetry_Pilot,2022.1.3,Win32,60.0240096,62c50e9c1127f2cd403a315f,0,101,101,57,1,onethree,,,,,,,,,,,,,,,,,,,,,,,,,,,,,,,,,,,,,,,,,,,,,,,,,,,,,,,,,,,,,,,,,,,,,,,,,,,,,,,,,,,,,,,,,,,,,,,,,,,,,,,,,,,,,,,,,,,,,,,,,,,,,,,,,,,,,,,,,,,,,,,,,,,,,,,,,,,,,
,,,,,,605d54bdad62f3a65e139402,62c539be69f683a4de3533f3,2022-07-06_03h31.05.981,Colour_Asymmetry_Pilot,2022.1.3,Win32,60.0240096,62c50e9c1127f2cd403a315f,0,102,102,11,1,twofour,,,,,,,,,,,,,,,,,,,,,,,,,,,,,,,,,,,,,,,,,,,,,,,,,,,,,,,,,,,,,,,,,,,,,,,,,,,,,,,,,,,,,,,,,,,,,,,,,,,,,,,,,,,,,,,,,,,,,,,,,,,,,,,,,,,,,,,,,,,,,,,,,,,,,,,,,,,,,
,,,,,,605d54bdad62f3a65e139402,62c539be69f683a4de3533f3,2022-07-06_03h31.05.981,Colour_Asymmetry_Pilot,2022.1.3,Win32,60.0240096,62c50e9c1127f2cd403a315f,0,103,103,96,1,onetwo,,,,,,,,,,,,,,,,,,,,,,,,,,,,,,,,,,,,,,,,,,,,,,,,,,,,,,,,,,,,,,,,,,,,,,,,,,,,,,,,,,,,,,,,,,,,,,,,,,,,,,,,,,,,,,,,,,,,,,,,,,,,,,,,,,,,,,,,,,,,,,,,,,,,,,,,,,,,,
,,,,,,605d54bdad62f3a65e139402,62c539be69f683a4de3533f3,2022-07-06_03h31.05.981,Colour_Asymmetry_Pilot,2022.1.3,Win32,60.0240096,62c50e9c1127f2cd403a315f,0,104,104,121,1,onethree,,,,,,,,,,,,,,,,,,,,,,,,,,,,,,,,,,,,,,,,,,,,,,,,,,,,,,,,,,,,,,,,,,,,,,,,,,,,,,,,,,,,,,,,,,,,,,,,,,,,,,,,,,,,,,,,,,,,,,,,,,,,,,,,,,,,,,,,,,,,,,,,,,,,,,,,,,,,,
,,,,,,605d54bdad62f3a65e139402,62c539be69f683a4de3533f3,2022-07-06_03h31.05.981,Colour_Asymmetry_Pilot,2022.1.3,Win32,60.0240096,62c50e9c1127f2cd403a315f,0,105,105,152,1,onetwo,,,,,,,,,,,,,,,,,,,,,,,,,,,,,,,,,,,,,,,,,,,,,,,,,,,,,,,,,,,,,,,,,,,,,,,,,,,,,,,,,,,,,,,,,,,,,,,,,,,,,,,,,,,,,,,,,,,,,,,,,,,,,,,,,,,,,,,,,,,,,,,,,,,,,,,,,,,,,
,,,,,,605d54bdad62f3a65e139402,62c539be69f683a4de3533f3,2022-07-06_03h31.05.981,Colour_Asymmetry_Pilot,2022.1.3,Win32,60.0240096,62c50e9c1127f2cd403a315f,0,106,106,51,1,twofour,,,,,,,,,,,,,,,,,,,,,,,,,,,,,,,,,,,,,,,,,,,,,,,,,,,,,,,,,,,,,,,,,,,,,,,,,,,,,,,,,,,,,,,,,,,,,,,,,,,,,,,,,,,,,,,,,,,,,,,,,,,,,,,,,,,,,,,,,,,,,,,,,,,,,,,,,,,,,
,,,,,,605d54bdad62f3a65e139402,62c539be69f683a4de3533f3,2022-07-06_03h31.05.981,Colour_Asymmetry_Pilot,2022.1.3,Win32,60.0240096,62c50e9c1127f2cd403a315f,0,107,107,157,1,threefour,,,,,,,,,,,,,,,,,,,,,,,,,,,,,,,,,,,,,,,,,,,,,,,,,,,,,,,,,,,,,,,,,,,,,,,,,,,,,,,,,,,,,,,,,,,,,,,,,,,,,,,,,,,,,,,,,,,,,,,,,,,,,,,,,,,,,,,,,,,,,,,,,,,,,,,,,,,,,
,,,,,,605d54bdad62f3a65e139402,62c539be69f683a4de3533f3,2022-07-06_03h31.05.981,Colour_Asymmetry_Pilot,2022.1.3,Win32,60.0240096,62c50e9c1127f2cd403a315f,0,108,108,104,1,onetwo,,,,,,,,,,,,,,,,,,,,,,,,,,,,,,,,,,,,,,,,,,,,,,,,,,,,,,,,,,,,,,,,,,,,,,,,,,,,,,,,,,,,,,,,,,,,,,,,,,,,,,,,,,,,,,,,,,,,,,,,,,,,,,,,,,,,,,,,,,,,,,,,,,,,,,,,,,,,,
,,,,,,605d54bdad62f3a65e139402,62c539be69f683a4de3533f3,2022-07-06_03h31.05.981,Colour_Asymmetry_Pilot,2022.1.3,Win32,60.0240096,62c50e9c1127f2cd403a315f,0,109,109,39,1,fourthree,,,,,,,,,,,,,,,,,,,,,,,,,,,,,,,,,,,,,,,,,,,,,,,,,,,,,,,,,,,,,,,,,,,,,,,,,,,,,,,,,,,,,,,,,,,,,,,,,,,,,,,,,,,,,,,,,,,,,,,,,,,,,,,,,,,,,,,,,,,,,,,,,,,,,,,,,,,,,
,,,,,,605d54bdad62f3a65e139402,62c539be69f683a4de3533f3,2022-07-06_03h31.05.981,Colour_Asymmetry_Pilot,2022.1.3,Win32,60.0240096,62c50e9c1127f2cd403a315f,0,110,110,63,1,fourthree,,,,,,,,,,,,,,,,,,,,,,,,,,,,,,,,,,,,,,,,,,,,,,,,,,,,,,,,,,,,,,,,,,,,,,,,,,,,,,,,,,,,,,,,,,,,,,,,,,,,,,,,,,,,,,,,,,,,,,,,,,,,,,,,,,,,,,,,,,,,,,,,,,,,,,,,,,,,,
,,,,,,605d54bdad62f3a65e139402,62c539be69f683a4de3533f3,2022-07-06_03h31.05.981,Colour_Asymmetry_Pilot,2022.1.3,Win32,60.0240096,62c50e9c1127f2cd403a315f,0,111,111,83,1,twofour,,,,,,,,,,,,,,,,,,,,,,,,,,,,,,,,,,,,,,,,,,,,,,,,,,,,,,,,,,,,,,,,,,,,,,,,,,,,,,,,,,,,,,,,,,,,,,,,,,,,,,,,,,,,,,,,,,,,,,,,,,,,,,,,,,,,,,,,,,,,,,,,,,,,,,,,,,,,,
,,,,,,605d54bdad62f3a65e139402,62c539be69f683a4de3533f3,2022-07-06_03h31.05.981,Colour_Asymmetry_Pilot,2022.1.3,Win32,60.0240096,62c50e9c1127f2cd403a315f,0,112,112,77,1,threefour,,,,,,,,,,,,,,,,,,,,,,,,,,,,,,,,,,,,,,,,,,,,,,,,,,,,,,,,,,,,,,,,,,,,,,,,,,,,,,,,,,,,,,,,,,,,,,,,,,,,,,,,,,,,,,,,,,,,,,,,,,,,,,,,,,,,,,,,,,,,,,,,,,,,,,,,,,,,,
,,,,,,605d54bdad62f3a65e139402,62c539be69f683a4de3533f3,2022-07-06_03h31.05.981,Colour_Asymmetry_Pilot,2022.1.3,Win32,60.0240096,62c50e9c1127f2cd403a315f,0,113,113,67,1,twofour,,,,,,,,,,,,,,,,,,,,,,,,,,,,,,,,,,,,,,,,,,,,,,,,,,,,,,,,,,,,,,,,,,,,,,,,,,,,,,,,,,,,,,,,,,,,,,,,,,,,,,,,,,,,,,,,,,,,,,,,,,,,,,,,,,,,,,,,,,,,,,,,,,,,,,,,,,,,,
,,,,,,605d54bdad62f3a65e139402,62c539be69f683a4de3533f3,2022-07-06_03h31.05.981,Colour_Asymmetry_Pilot,2022.1.3,Win32,60.0240096,62c50e9c1127f2cd403a315f,0,114,114,89,1,onethree,,,,,,,,,,,,,,,,,,,,,,,,,,,,,,,,,,,,,,,,,,,,,,,,,,,,,,,,,,,,,,,,,,,,,,,,,,,,,,,,,,,,,,,,,,,,,,,,,,,,,,,,,,,,,,,,,,,,,,,,,,,,,,,,,,,,,,,,,,,,,,,,,,,,,,,,,,,,,
,,,,,,605d54bdad62f3a65e139402,62c539be69f683a4de3533f3,2022-07-06_03h31.05.981,Colour_Asymmetry_Pilot,2022.1.3,Win32,60.0240096,62c50e9c1127f2cd403a315f,0,115,115,161,1,onethree,,,,,,,,,,,,,,,,,,,,,,,,,,,,,,,,,,,,,,,,,,,,,,,,,,,,,,,,,,,,,,,,,,,,,,,,,,,,,,,,,,,,,,,,,,,,,,,,,,,,,,,,,,,,,,,,,,,,,,,,,,,,,,,,,,,,,,,,,,,,,,,,,,,,,,,,,,,,,
,,,,,,605d54bdad62f3a65e139402,62c539be69f683a4de3533f3,2022-07-06_03h31.05.981,Colour_Asymmetry_Pilot,2022.1.3,Win32,60.0240096,62c50e9c1127f2cd403a315f,0,116,116,141,1,threefour,,,,,,,,,,,,,,,,,,,,,,,,,,,,,,,,,,,,,,,,,,,,,,,,,,,,,,,,,,,,,,,,,,,,,,,,,,,,,,,,,,,,,,,,,,,,,,,,,,,,,,,,,,,,,,,,,,,,,,,,,,,,,,,,,,,,,,,,,,,,,,,,,,,,,,,,,,,,,
,,,,,,605d54bdad62f3a65e139402,62c539be69f683a4de3533f3,2022-07-06_03h31.05.981,Colour_Asymmetry_Pilot,2022.1.3,Win32,60.0240096,62c50e9c1127f2cd403a315f,0,117,117,138,1,twoone,,,,,,,,,,,,,,,,,,,,,,,,,,,,,,,,,,,,,,,,,,,,,,,,,,,,,,,,,,,,,,,,,,,,,,,,,,,,,,,,,,,,,,,,,,,,,,,,,,,,,,,,,,,,,,,,,,,,,,,,,,,,,,,,,,,,,,,,,,,,,,,,,,,,,,,,,,,,,
,,,,,,605d54bdad62f3a65e139402,62c539be69f683a4de3533f3,2022-07-06_03h31.05.981,Colour_Asymmetry_Pilot,2022.1.3,Win32,60.0240096,62c50e9c1127f2cd403a315f,0,118,118,103,1,fourthree,,,,,,,,,,,,,,,,,,,,,,,,,,,,,,,,,,,,,,,,,,,,,,,,,,,,,,,,,,,,,,,,,,,,,,,,,,,,,,,,,,,,,,,,,,,,,,,,,,,,,,,,,,,,,,,,,,,,,,,,,,,,,,,,,,,,,,,,,,,,,,,,,,,,,,,,,,,,,
,,,,,,605d54bdad62f3a65e139402,62c539be69f683a4de3533f3,2022-07-06_03h31.05.981,Colour_Asymmetry_Pilot,2022.1.3,Win32,60.0240096,62c50e9c1127f2cd403a315f,0,119,119,76,1,threeone,,,,,,,,,,,,,,,,,,,,,,,,,,,,,,,,,,,,,,,,,,,,,,,,,,,,,,,,,,,,,,,,,,,,,,,,,,,,,,,,,,,,,,,,,,,,,,,,,,,,,,,,,,,,,,,,,,,,,,,,,,,,,,,,,,,,,,,,,,,,,,,,,,,,,,,,,,,,,
,,,,,,605d54bdad62f3a65e139402,62c539be69f683a4de3533f3,2022-07-06_03h31.05.981,Colour_Asymmetry_Pilot,2022.1.3,Win32,60.0240096,62c50e9c1127f2cd403a315f,0,120,120,80,1,onetwo,,,,,,,,,,,,,,,,,,,,,,,,,,,,,,,,,,,,,,,,,,,,,,,,,,,,,,,,,,,,,,,,,,,,,,,,,,,,,,,,,,,,,,,,,,,,,,,,,,,,,,,,,,,,,,,,,,,,,,,,,,,,,,,,,,,,,,,,,,,,,,,,,,,,,,,,,,,,,
,,,,,,605d54bdad62f3a65e139402,62c539be69f683a4de3533f3,2022-07-06_03h31.05.981,Colour_Asymmetry_Pilot,2022.1.3,Win32,60.0240096,62c50e9c1127f2cd403a315f,0,121,121,17,1,onethree,,,,,,,,,,,,,,,,,,,,,,,,,,,,,,,,,,,,,,,,,,,,,,,,,,,,,,,,,,,,,,,,,,,,,,,,,,,,,,,,,,,,,,,,,,,,,,,,,,,,,,,,,,,,,,,,,,,,,,,,,,,,,,,,,,,,,,,,,,,,,,,,,,,,,,,,,,,,,
,,,,,,605d54bdad62f3a65e139402,62c539be69f683a4de3533f3,2022-07-06_03h31.05.981,Colour_Asymmetry_Pilot,2022.1.3,Win32,60.0240096,62c50e9c1127f2cd403a315f,0,122,122,128,1,onetwo,,,,,,,,,,,,,,,,,,,,,,,,,,,,,,,,,,,,,,,,,,,,,,,,,,,,,,,,,,,,,,,,,,,,,,,,,,,,,,,,,,,,,,,,,,,,,,,,,,,,,,,,,,,,,,,,,,,,,,,,,,,,,,,,,,,,,,,,,,,,,,,,,,,,,,,,,,,,,
,,,,,,605d54bdad62f3a65e139402,62c539be69f683a4de3533f3,2022-07-06_03h31.05.981,Colour_Asymmetry_Pilot,2022.1.3,Win32,60.0240096,62c50e9c1127f2cd403a315f,0,123,123,129,1,onethree,,,,,,,,,,,,,,,,,,,,,,,,,,,,,,,,,,,,,,,,,,,,,,,,,,,,,,,,,,,,,,,,,,,,,,,,,,,,,,,,,,,,,,,,,,,,,,,,,,,,,,,,,,,,,,,,,,,,,,,,,,,,,,,,,,,,,,,,,,,,,,,,,,,,,,,,,,,,,
,,,,,,605d54bdad62f3a65e139402,62c539be69f683a4de3533f3,2022-07-06_03h31.05.981,Colour_Asymmetry_Pilot,2022.1.3,Win32,60.0240096,62c50e9c1127f2cd403a315f,0,124,124,126,1,fourtwo,,,,,,,,,,,,,,,,,,,,,,,,,,,,,,,,,,,,,,,,,,,,,,,,,,,,,,,,,,,,,,,,,,,,,,,,,,,,,,,,,,,,,,,,,,,,,,,,,,,,,,,,,,,,,,,,,,,,,,,,,,,,,,,,,,,,,,,,,,,,,,,,,,,,,,,,,,,,,
,,,,,,605d54bdad62f3a65e139402,62c539be69f683a4de3533f3,2022-07-06_03h31.05.981,Colour_Asymmetry_Pilot,2022.1.3,Win32,60.0240096,62c50e9c1127f2cd403a315f,0,125,125,113,1,onethree,,,,,,,,,,,,,,,,,,,,,,,,,,,,,,,,,,,,,,,,,,,,,,,,,,,,,,,,,,,,,,,,,,,,,,,,,,,,,,,,,,,,,,,,,,,,,,,,,,,,,,,,,,,,,,,,,,,,,,,,,,,,,,,,,,,,,,,,,,,,,,,,,,,,,,,,,,,,,
,,,,,,605d54bdad62f3a65e139402,62c539be69f683a4de3533f3,2022-07-06_03h31.05.981,Colour_Asymmetry_Pilot,2022.1.3,Win32,60.0240096,62c50e9c1127f2cd403a315f,0,126,126,108,1,threeone,,,,,,,,,,,,,,,,,,,,,,,,,,,,,,,,,,,,,,,,,,,,,,,,,,,,,,,,,,,,,,,,,,,,,,,,,,,,,,,,,,,,,,,,,,,,,,,,,,,,,,,,,,,,,,,,,,,,,,,,,,,,,,,,,,,,,,,,,,,,,,,,,,,,,,,,,,,,,
,,,,,,605d54bdad62f3a65e139402,62c539be69f683a4de3533f3,2022-07-06_03h31.05.981,Colour_Asymmetry_Pilot,2022.1.3,Win32,60.0240096,62c50e9c1127f2cd403a315f,0,127,127,111,1,fourthree,,,,,,,,,,,,,,,,,,,,,,,,,,,,,,,,,,,,,,,,,,,,,,,,,,,,,,,,,,,,,,,,,,,,,,,,,,,,,,,,,,,,,,,,,,,,,,,,,,,,,,,,,,,,,,,,,,,,,,,,,,,,,,,,,,,,,,,,,,,,,,,,,,,,,,,,,,,,,
,,,,,,605d54bdad62f3a65e139402,62c539be69f683a4de3533f3,2022-07-06_03h31.05.981,Colour_Asymmetry_Pilot,2022.1.3,Win32,60.0240096,62c50e9c1127f2cd403a315f,0,128,128,122,1,twoone,,,,,,,,,,,,,,,,,,,,,,,,,,,,,,,,,,,,,,,,,,,,,,,,,,,,,,,,,,,,,,,,,,,,,,,,,,,,,,,,,,,,,,,,,,,,,,,,,,,,,,,,,,,,,,,,,,,,,,,,,,,,,,,,,,,,,,,,,,,,,,,,,,,,,,,,,,,,,
,,,,,,605d54bdad62f3a65e139402,62c539be69f683a4de3533f3,2022-07-06_03h31.05.981,Colour_Asymmetry_Pilot,2022.1.3,Win32,60.0240096,62c50e9c1127f2cd403a315f,0,129,129,135,1,fourthree,,,,,,,,,,,,,,,,,,,,,,,,,,,,,,,,,,,,,,,,,,,,,,,,,,,,,,,,,,,,,,,,,,,,,,,,,,,,,,,,,,,,,,,,,,,,,,,,,,,,,,,,,,,,,,,,,,,,,,,,,,,,,,,,,,,,,,,,,,,,,,,,,,,,,,,,,,,,,
,,,,,,605d54bdad62f3a65e139402,62c539be69f683a4de3533f3,2022-07-06_03h31.05.981,Colour_Asymmetry_Pilot,2022.1.3,Win32,60.0240096,62c50e9c1127f2cd403a315f,0,130,130,154,1,twoone,,,,,,,,,,,,,,,,,,,,,,,,,,,,,,,,,,,,,,,,,,,,,,,,,,,,,,,,,,,,,,,,,,,,,,,,,,,,,,,,,,,,,,,,,,,,,,,,,,,,,,,,,,,,,,,,,,,,,,,,,,,,,,,,,,,,,,,,,,,,,,,,,,,,,,,,,,,,,
,,,,,,605d54bdad62f3a65e139402,62c539be69f683a4de3533f3,2022-07-06_03h31.05.981,Colour_Asymmetry_Pilot,2022.1.3,Win32,60.0240096,62c50e9c1127f2cd403a315f,0,131,131,30,1,fourtwo,,,,,,,,,,,,,,,,,,,,,,,,,,,,,,,,,,,,,,,,,,,,,,,,,,,,,,,,,,,,,,,,,,,,,,,,,,,,,,,,,,,,,,,,,,,,,,,,,,,,,,,,,,,,,,,,,,,,,,,,,,,,,,,,,,,,,,,,,,,,,,,,,,,,,,,,,,,,,
,,,,,,605d54bdad62f3a65e139402,62c539be69f683a4de3533f3,2022-07-06_03h31.05.981,Colour_Asymmetry_Pilot,2022.1.3,Win32,60.0240096,62c50e9c1127f2cd403a315f,0,132,132,72,1,onetwo,,,,,,,,,,,,,,,,,,,,,,,,,,,,,,,,,,,,,,,,,,,,,,,,,,,,,,,,,,,,,,,,,,,,,,,,,,,,,,,,,,,,,,,,,,,,,,,,,,,,,,,,,,,,,,,,,,,,,,,,,,,,,,,,,,,,,,,,,,,,,,,,,,,,,,,,,,,,,
,,,,,,605d54bdad62f3a65e139402,62c539be69f683a4de3533f3,2022-07-06_03h31.05.981,Colour_Asymmetry_Pilot,2022.1.3,Win32,60.0240096,62c50e9c1127f2cd403a315f,0,133,133,19,1,twofour,,,,,,,,,,,,,,,,,,,,,,,,,,,,,,,,,,,,,,,,,,,,,,,,,,,,,,,,,,,,,,,,,,,,,,,,,,,,,,,,,,,,,,,,,,,,,,,,,,,,,,,,,,,,,,,,,,,,,,,,,,,,,,,,,,,,,,,,,,,,,,,,,,,,,,,,,,,,,
,,,,,,605d54bdad62f3a65e139402,62c539be69f683a4de3533f3,2022-07-06_03h31.05.981,Colour_Asymmetry_Pilot,2022.1.3,Win32,60.0240096,62c50e9c1127f2cd403a315f,0,134,134,148,1,threeone,,,,,,,,,,,,,,,,,,,,,,,,,,,,,,,,,,,,,,,,,,,,,,,,,,,,,,,,,,,,,,,,,,,,,,,,,,,,,,,,,,,,,,,,,,,,,,,,,,,,,,,,,,,,,,,,,,,,,,,,,,,,,,,,,,,,,,,,,,,,,,,,,,,,,,,,,,,,,
,,,,,,605d54bdad62f3a65e139402,62c539be69f683a4de3533f3,2022-07-06_03h31.05.981,Colour_Asymmetry_Pilot,2022.1.3,Win32,60.0240096,62c50e9c1127f2cd403a315f,0,135,135,22,1,fourtwo,,,,,,,,,,,,,,,,,,,,,,,,,,,,,,,,,,,,,,,,,,,,,,,,,,,,,,,,,,,,,,,,,,,,,,,,,,,,,,,,,,,,,,,,,,,,,,,,,,,,,,,,,,,,,,,,,,,,,,,,,,,,,,,,,,,,,,,,,,,,,,,,,,,,,,,,,,,,,
,,,,,,605d54bdad62f3a65e139402,62c539be69f683a4de3533f3,2022-07-06_03h31.05.981,Colour_Asymmetry_Pilot,2022.1.3,Win32,60.0240096,62c50e9c1127f2cd403a315f,0,136,136,62,1,fourtwo,,,,,,,,,,,,,,,,,,,,,,,,,,,,,,,,,,,,,,,,,,,,,,,,,,,,,,,,,,,,,,,,,,,,,,,,,,,,,,,,,,,,,,,,,,,,,,,,,,,,,,,,,,,,,,,,,,,,,,,,,,,,,,,,,,,,,,,,,,,,,,,,,,,,,,,,,,,,,
,,,,,,605d54bdad62f3a65e139402,62c539be69f683a4de3533f3,2022-07-06_03h31.05.981,Colour_Asymmetry_Pilot,2022.1.3,Win32,60.0240096,62c50e9c1127f2cd403a315f,0,137,137,73,1,onethree,,,,,,,,,,,,,,,,,,,,,,,,,,,,,,,,,,,,,,,,,,,,,,,,,,,,,,,,,,,,,,,,,,,,,,,,,,,,,,,,,,,,,,,,,,,,,,,,,,,,,,,,,,,,,,,,,,,,,,,,,,,,,,,,,,,,,,,,,,,,,,,,,,,,,,,,,,,,,
,,,,,,605d54bdad62f3a65e139402,62c539be69f683a4de3533f3,2022-07-06_03h31.05.981,Colour_Asymmetry_Pilot,2022.1.3,Win32,60.0240096,62c50e9c1127f2cd403a315f,0,138,138,6,1,fourtwo,,,,,,,,,,,,,,,,,,,,,,,,,,,,,,,,,,,,,,,,,,,,,,,,,,,,,,,,,,,,,,,,,,,,,,,,,,,,,,,,,,,,,,,,,,,,,,,,,,,,,,,,,,,,,,,,,,,,,,,,,,,,,,,,,,,,,,,,,,,,,,,,,,,,,,,,,,,,,
,,,,,,605d54bdad62f3a65e139402,62c539be69f683a4de3533f3,2022-07-06_03h31.05.981,Colour_Asymmetry_Pilot,2022.1.3,Win32,60.0240096,62c50e9c1127f2cd403a315f,0,139,139,9,1,onethree,,,,,,,,,,,,,,,,,,,,,,,,,,,,,,,,,,,,,,,,,,,,,,,,,,,,,,,,,,,,,,,,,,,,,,,,,,,,,,,,,,,,,,,,,,,,,,,,,,,,,,,,,,,,,,,,,,,,,,,,,,,,,,,,,,,,,,,,,,,,,,,,,,,,,,,,,,,,,
,,,,,,605d54bdad62f3a65e139402,62c539be69f683a4de3533f3,2022-07-06_03h31.05.981,Colour_Asymmetry_Pilot,2022.1.3,Win32,60.0240096,62c50e9c1127f2cd403a315f,0,140,140,150,1,fourtwo,,,,,,,,,,,,,,,,,,,,,,,,,,,,,,,,,,,,,,,,,,,,,,,,,,,,,,,,,,,,,,,,,,,,,,,,,,,,,,,,,,,,,,,,,,,,,,,,,,,,,,,,,,,,,,,,,,,,,,,,,,,,,,,,,,,,,,,,,,,,,,,,,,,,,,,,,,,,,
,,,,,,605d54bdad62f3a65e139402,62c539be69f683a4de3533f3,2022-07-06_03h31.05.981,Colour_Asymmetry_Pilot,2022.1.3,Win32,60.0240096,62c50e9c1127f2cd403a315f,0,141,141,15,1,fourthree,,,,,,,,,,,,,,,,,,,,,,,,,,,,,,,,,,,,,,,,,,,,,,,,,,,,,,,,,,,,,,,,,,,,,,,,,,,,,,,,,,,,,,,,,,,,,,,,,,,,,,,,,,,,,,,,,,,,,,,,,,,,,,,,,,,,,,,,,,,,,,,,,,,,,,,,,,,,,
,,,,,,605d54bdad62f3a65e139402,62c539be69f683a4de3533f3,2022-07-06_03h31.05.981,Colour_Asymmetry_Pilot,2022.1.3,Win32,60.0240096,62c50e9c1127f2cd403a315f,0,142,142,24,1,onetwo,,,,,,,,,,,,,,,,,,,,,,,,,,,,,,,,,,,,,,,,,,,,,,,,,,,,,,,,,,,,,,,,,,,,,,,,,,,,,,,,,,,,,,,,,,,,,,,,,,,,,,,,,,,,,,,,,,,,,,,,,,,,,,,,,,,,,,,,,,,,,,,,,,,,,,,,,,,,,
,,,,,,605d54bdad62f3a65e139402,62c539be69f683a4de3533f3,2022-07-06_03h31.05.981,Colour_Asymmetry_Pilot,2022.1.3,Win32,60.0240096,62c50e9c1127f2cd403a315f,0,143,143,95,1,fourthree,,,,,,,,,,,,,,,,,,,,,,,,,,,,,,,,,,,,,,,,,,,,,,,,,,,,,,,,,,,,,,,,,,,,,,,,,,,,,,,,,,,,,,,,,,,,,,,,,,,,,,,,,,,,,,,,,,,,,,,,,,,,,,,,,,,,,,,,,,,,,,,,,,,,,,,,,,,,,
,,,,,,605d54bdad62f3a65e139402,62c539be69f683a4de3533f3,2022-07-06_03h31.05.981,Colour_Asymmetry_Pilot,2022.1.3,Win32,60.0240096,62c50e9c1127f2cd403a315f,0,144,144,29,1,threefour,,,,,,,,,,,,,,,,,,,,,,,,,,,,,,,,,,,,,,,,,,,,,,,,,,,,,,,,,,,,,,,,,,,,,,,,,,,,,,,,,,,,,,,,,,,,,,,,,,,,,,,,,,,,,,,,,,,,,,,,,,,,,,,,,,,,,,,,,,,,,,,,,,,,,,,,,,,,,
,,,,,,605d54bdad62f3a65e139402,62c539be69f683a4de3533f3,2022-07-06_03h31.05.981,Colour_Asymmetry_Pilot,2022.1.3,Win32,60.0240096,62c50e9c1127f2cd403a315f,0,145,145,143,1,fourthree,,,,,,,,,,,,,,,,,,,,,,,,,,,,,,,,,,,,,,,,,,,,,,,,,,,,,,,,,,,,,,,,,,,,,,,,,,,,,,,,,,,,,,,,,,,,,,,,,,,,,,,,,,,,,,,,,,,,,,,,,,,,,,,,,,,,,,,,,,,,,,,,,,,,,,,,,,,,,
,,,,,,605d54bdad62f3a65e139402,62c539be69f683a4de3533f3,2022-07-06_03h31.05.981,Colour_Asymmetry_Pilot,2022.1.3,Win32,60.0240096,62c50e9c1127f2cd403a315f,0,146,146,64,1,onetwo,,,,,,,,,,,,,,,,,,,,,,,,,,,,,,,,,,,,,,,,,,,,,,,,,,,,,,,,,,,,,,,,,,,,,,,,,,,,,,,,,,,,,,,,,,,,,,,,,,,,,,,,,,,,,,,,,,,,,,,,,,,,,,,,,,,,,,,,,,,,,,,,,,,,,,,,,,,,,
,,,,,,605d54bdad62f3a65e139402,62c539be69f683a4de3533f3,2022-07-06_03h31.05.981,Colour_Asymmetry_Pilot,2022.1.3,Win32,60.0240096,62c50e9c1127f2cd403a315f,0,147,147,78,1,fourtwo,,,,,,,,,,,,,,,,,,,,,,,,,,,,,,,,,,,,,,,,,,,,,,,,,,,,,,,,,,,,,,,,,,,,,,,,,,,,,,,,,,,,,,,,,,,,,,,,,,,,,,,,,,,,,,,,,,,,,,,,,,,,,,,,,,,,,,,,,,,,,,,,,,,,,,,,,,,,,
,,,,,,605d54bdad62f3a65e139402,62c539be69f683a4de3533f3,2022-07-06_03h31.05.981,Colour_Asymmetry_Pilot,2022.1.3,Win32,60.0240096,62c50e9c1127f2cd403a315f,0,148,148,2,1,twoone,,,,,,,,,,,,,,,,,,,,,,,,,,,,,,,,,,,,,,,,,,,,,,,,,,,,,,,,,,,,,,,,,,,,,,,,,,,,,,,,,,,,,,,,,,,,,,,,,,,,,,,,,,,,,,,,,,,,,,,,,,,,,,,,,,,,,,,,,,,,,,,,,,,,,,,,,,,,,
,,,,,,605d54bdad62f3a65e139402,62c539be69f683a4de3533f3,2022-07-06_03h31.05.981,Colour_Asymmetry_Pilot,2022.1.3,Win32,60.0240096,62c50e9c1127f2cd403a315f,0,149,149,68,1,threeone,,,,,,,,,,,,,,,,,,,,,,,,,,,,,,,,,,,,,,,,,,,,,,,,,,,,,,,,,,,,,,,,,,,,,,,,,,,,,,,,,,,,,,,,,,,,,,,,,,,,,,,,,,,,,,,,,,,,,,,,,,,,,,,,,,,,,,,,,,,,,,,,,,,,,,,,,,,,,
,,,,,,605d54bdad62f3a65e139402,62c539be69f683a4de3533f3,2022-07-06_03h31.05.981,Colour_Asymmetry_Pilot,2022.1.3,Win32,60.0240096,62c50e9c1127f2cd403a315f,0,150,150,144,1,onetwo,,,,,,,,,,,,,,,,,,,,,,,,,,,,,,,,,,,,,,,,,,,,,,,,,,,,,,,,,,,,,,,,,,,,,,,,,,,,,,,,,,,,,,,,,,,,,,,,,,,,,,,,,,,,,,,,,,,,,,,,,,,,,,,,,,,,,,,,,,,,,,,,,,,,,,,,,,,,,
,,,,,,605d54bdad62f3a65e139402,62c539be69f683a4de3533f3,2022-07-06_03h31.05.981,Colour_Asymmetry_Pilot,2022.1.3,Win32,60.0240096,62c50e9c1127f2cd403a315f,0,151,151,160,1,onetwo,,,,,,,,,,,,,,,,,,,,,,,,,,,,,,,,,,,,,,,,,,,,,,,,,,,,,,,,,,,,,,,,,,,,,,,,,,,,,,,,,,,,,,,,,,,,,,,,,,,,,,,,,,,,,,,,,,,,,,,,,,,,,,,,,,,,,,,,,,,,,,,,,,,,,,,,,,,,,
,,,,,,605d54bdad62f3a65e139402,62c539be69f683a4de3533f3,2022-07-06_03h31.05.981,Colour_Asymmetry_Pilot,2022.1.3,Win32,60.0240096,62c50e9c1127f2cd403a315f,0,152,152,86,1,fourtwo,,,,,,,,,,,,,,,,,,,,,,,,,,,,,,,,,,,,,,,,,,,,,,,,,,,,,,,,,,,,,,,,,,,,,,,,,,,,,,,,,,,,,,,,,,,,,,,,,,,,,,,,,,,,,,,,,,,,,,,,,,,,,,,,,,,,,,,,,,,,,,,,,,,,,,,,,,,,,
,,,,,,605d54bdad62f3a65e139402,62c539be69f683a4de3533f3,2022-07-06_03h31.05.981,Colour_Asymmetry_Pilot,2022.1.3,Win32,60.0240096,62c50e9c1127f2cd403a315f,0,153,153,42,1,twoone,,,,,,,,,,,,,,,,,,,,,,,,,,,,,,,,,,,,,,,,,,,,,,,,,,,,,,,,,,,,,,,,,,,,,,,,,,,,,,,,,,,,,,,,,,,,,,,,,,,,,,,,,,,,,,,,,,,,,,,,,,,,,,,,,,,,,,,,,,,,,,,,,,,,,,,,,,,,,
,,,,,,605d54bdad62f3a65e139402,62c539be69f683a4de3533f3,2022-07-06_03h31.05.981,Colour_Asymmetry_Pilot,2022.1.3,Win32,60.0240096,62c50e9c1127f2cd403a315f,0,154,154,4,1,threeone,,,,,,,,,,,,,,,,,,,,,,,,,,,,,,,,,,,,,,,,,,,,,,,,,,,,,,,,,,,,,,,,,,,,,,,,,,,,,,,,,,,,,,,,,,,,,,,,,,,,,,,,,,,,,,,,,,,,,,,,,,,,,,,,,,,,,,,,,,,,,,,,,,,,,,,,,,,,,
,,,,,,605d54bdad62f3a65e139402,62c539be69f683a4de3533f3,2022-07-06_03h31.05.981,Colour_Asymmetry_Pilot,2022.1.3,Win32,60.0240096,62c50e9c1127f2cd403a315f,0,155,155,1,1,onethree,,,,,,,,,,,,,,,,,,,,,,,,,,,,,,,,,,,,,,,,,,,,,,,,,,,,,,,,,,,,,,,,,,,,,,,,,,,,,,,,,,,,,,,,,,,,,,,,,,,,,,,,,,,,,,,,,,,,,,,,,,,,,,,,,,,,,,,,,,,,,,,,,,,,,,,,,,,,,
,,,,,,605d54bdad62f3a65e139402,62c539be69f683a4de3533f3,2022-07-06_03h31.05.981,Colour_Asymmetry_Pilot,2022.1.3,Win32,60.0240096,62c50e9c1127f2cd403a315f,0,156,156,88,1,onetwo,,,,,,,,,,,,,,,,,,,,,,,,,,,,,,,,,,,,,,,,,,,,,,,,,,,,,,,,,,,,,,,,,,,,,,,,,,,,,,,,,,,,,,,,,,,,,,,,,,,,,,,,,,,,,,,,,,,,,,,,,,,,,,,,,,,,,,,,,,,,,,,,,,,,,,,,,,,,,
,,,,,,605d54bdad62f3a65e139402,62c539be69f683a4de3533f3,2022-07-06_03h31.05.981,Colour_Asymmetry_Pilot,2022.1.3,Win32,60.0240096,62c50e9c1127f2cd403a315f,0,157,157,35,1,twofour,,,,,,,,,,,,,,,,,,,,,,,,,,,,,,,,,,,,,,,,,,,,,,,,,,,,,,,,,,,,,,,,,,,,,,,,,,,,,,,,,,,,,,,,,,,,,,,,,,,,,,,,,,,,,,,,,,,,,,,,,,,,,,,,,,,,,,,,,,,,,,,,,,,,,,,,,,,,,
,,,,,,605d54bdad62f3a65e139402,62c539be69f683a4de3533f3,2022-07-06_03h31.05.981,Colour_Asymmetry_Pilot,2022.1.3,Win32,60.0240096,62c50e9c1127f2cd403a315f,0,158,158,134,1,fourtwo,,,,,,,,,,,,,,,,,,,,,,,,,,,,,,,,,,,,,,,,,,,,,,,,,,,,,,,,,,,,,,,,,,,,,,,,,,,,,,,,,,,,,,,,,,,,,,,,,,,,,,,,,,,,,,,,,,,,,,,,,,,,,,,,,,,,,,,,,,,,,,,,,,,,,,,,,,,,,
,,,,,,605d54bdad62f3a65e139402,62c539be69f683a4de3533f3,2022-07-06_03h31.05.981,Colour_Asymmetry_Pilot,2022.1.3,Win32,60.0240096,62c50e9c1127f2cd403a315f,0,159,159,159,1,fourthree,,,,,,,,,,,,,,,,,,,,,,,,,,,,,,,,,,,,,,,,,,,,,,,,,,,,,,,,,,,,,,,,,,,,,,,,,,,,,,,,,,,,,,,,,,,,,,,,,,,,,,,,,,,,,,,,,,,,,,,,,,,,,,,,,,,,,,,,,,,,,,,,,,,,,,,,,,,,,
,,,,,,605d54bdad62f3a65e139402,62c539be69f683a4de3533f3,2022-07-06_03h31.05.981,Colour_Asymmetry_Pilot,2022.1.3,Win32,60.0240096,62c50e9c1127f2cd403a315f,0,160,160,124,1,threeone,,,,,,,,,,,,,,,,,,,,,,,,,,,,,,,,,,,,,,,,,,,,,,,,,,,,,,,,,,,,,,,,,,,,,,,,,,,,,,,,,,,,,,,,,,,,,,,,,,,,,,,,,,,,,,,,,,,,,,,,,,,,,,,,,,,,,,,,,,,,,,,,,,,,,,,,,,,,,
,,,,,,605d54bdad62f3a65e139402,62c539be69f683a4de3533f3,2022-07-06_03h31.05.981,Colour_Asymmetry_Pilot,2022.1.3,Win32,60.0240096,62c50e9c1127f2cd403a315f,0,161,161,112,1,onetwo,,,,,,,,,,,,,,,,,,,,,,,,,,,,,,,,,,,,,,,,,,,,,,,,,,,,,,,,,,,,,,,,,,,,,,,,,,,,,,,,,,,,,,,,,,,,,,,,,,,,,,,,,,,,,,,,,,,,,,,,,,,,,,,,,,,,,,,,,,,,,,,,,,,,,,,,,,,,,
,,,,,,605d54bdad62f3a65e139402,62c539be69f683a4de3533f3,2022-07-06_03h31.05.981,Colour_Asymmetry_Pilot,2022.1.3,Win32,60.0240096,62c50e9c1127f2cd403a315f,,,,,,,space,5.569,space,12.672,space,33.291,space,42.196,space,6.744,space,4.864,"[0.6625999999999999,0.4980000000000002,-0.357]",onethree,"[-0.26280000000000003,-0.2158,-0.3256]",-2,12.373,-84,-33,1,0,0,response5disk_5,-5,6,1,0,0,rectangle_8,-5,6,1,0,0,1,-5,6,1,0,0,0,0,0,0,1,,,,,,,,,,,,,,,,,,,,,,,,,,,,,,,,,,,,,,,,,,,,,,,,,,,,,,,,,,,,,,,,,,,,,,,,,,,,,,,,,,,,,,,,,,,,,,,,,,,,,,,,,,,,,,,,
,,,,,,605d54bdad62f3a65e139402,62c539be69f683a4de3533f3,2022-07-06_03h31.05.981,Colour_Asymmetry_Pilot,2022.1.3,Win32,60.0240096,62c50e9c1127f2cd403a315f,,,,,,,,,,,,,,,,,,,"[-0.4746,-0.0354000000000001,0.5449999999999999]",onetwo,"[1,0.12939999999999996,-1]",-4,3.997,-49,92,1,0,0,response7disk_5,-5,-6,1,0,0,rectangle_8,52,-103,1,0,0,1,-8,-2,1,0,0,1,0,1,0,1,response3disk_7,4,rectangle_4,,,,,,,,,,,,,,,,,,,,,,,,,,,,,,,,,,,,,,,,,,,,,,,,,,,,,,,,,,,,,,,,,,,,,,,,,,,,,,,,,,,,,,,,,,,,,,,,,,,,,,,,,,,,,
,,,,,,605d54bdad62f3a65e139402,62c539be69f683a4de3533f3,2022-07-06_03h31.05.981,Colour_Asymmetry_Pilot,2022.1.3,Win32,60.0240096,62c50e9c1127f2cd403a315f,,,,,,,,,,,,,,,,,,,"[0.8115999999999999,-0.0040000000000000036,-0.09819999999999995]",onethree,"[0.09799999999999986,-0.24719999999999998,0.15280000000000005]",1,5.062,50,-88,1,0,0,response3disk_5,-6,0,1,0,0,rectangle_8,-6,0,1,0,0,1,-6,0,1,0,0,2,0,2,0,1,,,,,,,,,,,,,,,,,,,,,,,,,,,,,,,,,,,,,,,,,,,,,,,,,,,,,,,,,,,,,,,,,,,,,,,,,,,,,,,,,,,,,,,,,,,,,,,,,,,,,,,,,,,,,,,,
,,,,,,605d54bdad62f3a65e139402,62c539be69f683a4de3533f3,2022-07-06_03h31.05.981,Colour_Asymmetry_Pilot,2022.1.3,Win32,60.0240096,62c50e9c1127f2cd403a315f,,,,,,,,,,,,,,,,,,,"[-0.9138,-0.5296000000000001,-0.5529999999999999]",onetwo,"[-0.38039999999999996,-0.4276,-0.1452]",-3,4.63,-97,41,1,0,0,response7disk_5,2,4,1,0,0,rectangle_8,2,4,1,0,0,1,2,4,1,0,0,3,0,3,0,1,,,,,,,,,,,,,,,,,,,,,,,,,,,,,,,,,,,,,,,,,,,,,,,,,,,,,,,,,,,,,,,,,,,,,,,,,,,,,,,,,,,,,,,,,,,,,,,,,,,,,,,,,,,,,,,,
,,,,,,605d54bdad62f3a65e139402,62c539be69f683a4de3533f3,2022-07-06_03h31.05.981,Colour_Asymmetry_Pilot,2022.1.3,Win32,60.0240096,62c50e9c1127f2cd403a315f,,,,,,,,,,,,,,,,,,,"[0.5528,0.7409999999999999,-0.71]",onethree,"[-0.9138,-0.5296000000000001,-0.5529999999999999]",-4,3.814,-50,79,1,0,0,response7disk_5,0,-2,1,0,0,rectangle_8,46,-91,1,0,0,1,5,-7,1,0,0,4,0,4,0,1,response3disk_7,4,rectangle_4,,,,,,,,,,,,,,,,,,,,,,,,,,,,,,,,,,,,,,,,,,,,,,,,,,,,,,,,,,,,,,,,,,,,,,,,,,,,,,,,,,,,,,,,,,,,,,,,,,,,,,,,,,,,,
,,,,,,605d54bdad62f3a65e139402,62c539be69f683a4de3533f3,2022-07-06_03h31.05.981,Colour_Asymmetry_Pilot,2022.1.3,Win32,60.0240096,62c50e9c1127f2cd403a315f,,,,,,,,,,,,,,,,,,,"[-0.6235999999999999,-0.6786,-0.08239999999999992]",threeone,"[0.7018,0.7176,0.6155999999999999]",-4,2.898,-30,91,1,0,0,response7disk_5,2,3,1,0,0,rectangle_8,2,3,1,0,0,1,2,3,1,0,0,5,0,5,0,1,,,,,,,,,,,,,,,,,,,,,,,,,,,,,,,,,,,,,,,,,,,,,,,,,,,,,,,,,,,,,,,,,,,,,,,,,,,,,,,,,,,,,,,,,,,,,,,,,,,,,,,,,,,,,,,,
,,,,,,605d54bdad62f3a65e139402,62c539be69f683a4de3533f3,2022-07-06_03h31.05.981,Colour_Asymmetry_Pilot,2022.1.3,Win32,60.0240096,62c50e9c1127f2cd403a315f,,,,,,,,,,,,,,,,,,,"[-0.9844,-0.9688,-0.9922]",twoone,"[0.34099999999999997,0.12939999999999996,-0.9766]",-4,3.664,-37,78,1,0,0,response7disk_5,11,3,1,0,0,rectangle_8,11,3,1,0,0,1,11,3,1,0,0,6,0,6,0,1,,,,,,,,,,,,,,,,,,,,,,,,,,,,,,,,,,,,,,,,,,,,,,,,,,,,,,,,,,,,,,,,,,,,,,,,,,,,,,,,,,,,,,,,,,,,,,,,,,,,,,,,,,,,,,,,
,,,,,,605d54bdad62f3a65e139402,62c539be69f683a4de3533f3,2022-07-06_03h31.05.981,Colour_Asymmetry_Pilot,2022.1.3,Win32,60.0240096,62c50e9c1127f2cd403a315f,,,,,,,,,,,,,,,,,,,,threeone,,2,3.797,,,,,,,,,,,,,,,,,,,,,,,,,,,,,,,,space,5.575,"[-0.4668,-0.8746,-0.2942]","[0.12939999999999996,-0.2864,0.3253999999999999]",81,-40,1,0,0,response3disk,-4,2,1,0,0,rectangle,-4,2,1,0,0,,1,0.005,0,-4,2,1,0,0,0,0,0,90,1,9,second,,,,,,,,,,,,,,,,,,,,,,,,,,,,,,,,,,,,,,,,,,,,,,,,,,,,,,,,,,,,,,,,,,,,,,,,
,,,,,,605d54bdad62f3a65e139402,62c539be69f683a4de3533f3,2022-07-06_03h31.05.981,Colour_Asymmetry_Pilot,2022.1.3,Win32,60.0240096,62c50e9c1127f2cd403a315f,,,,,,,,,,,,,,,,,,,,threefour,,-1,4.78,,,,,,,,,,,,,,,,,,,,,,,,,,,,,,,,,,"[-0.5922000000000001,-0.7492000000000001,-0.5296000000000001]","[0.7802,-0.23140000000000005,-0.20799999999999996]",-28,-75,1,0,0,response5disk,-2,-7,1,0,0,rectangle,-2,-7,1,0,0,,2,0.001,0,-2,-7,1,0,0,0,1,1,101,1,20,second,,,,,,,,,,,,,,,,,,,,,,,,,,,,,,,,,,,,,,,,,,,,,,,,,,,,,,,,,,,,,,,,,,,,,,,,
,,,,,,605d54bdad62f3a65e139402,62c539be69f683a4de3533f3,2022-07-06_03h31.05.981,Colour_Asymmetry_Pilot,2022.1.3,Win32,60.0240096,62c50e9c1127f2cd403a315f,,,,,,,,,,,,,,,,,,,,fourthree,,-1,7.677,,,,,,,,,,,,,,,,,,,,,,,,,,,,,,,,,,"[-0.09019999999999995,0.44300000000000006,0.5371999999999999]","[0.7646000000000002,0.07440000000000002,0.2704]",-33,-70,1,0,0,response5disk,-3,-4,1,0,0,rectangle,-3,-4,1,0,0,,3,0.001,0,-3,-4,1,0,0,0,2,2,17,1,17,first,,,,,,,,,,,,,,,,,,,,,,,,,,,,,,,,,,,,,,,,,,,,,,,,,,,,,,,,,,,,,,,,,,,,,,,,
,,,,,,605d54bdad62f3a65e139402,62c539be69f683a4de3533f3,2022-07-06_03h31.05.981,Colour_Asymmetry_Pilot,2022.1.3,Win32,60.0240096,62c50e9c1127f2cd403a315f,,,,,,,,,,,,,,,,,,,,threefour,,-2,6.795,,,,,,,,,,,,,,,,,,,,,,,,,,,,,,,,,,"[0.7018,0.7176,0.6155999999999999]","[0.6547999999999998,-0.043199999999999905,-0.011800000000000033]",-82,-32,1,0,0,response5disk,-3,-5,1,0,0,rectangle,-3,-5,1,0,0,,3,0,0,-3,-5,1,0,0,0,3,3,60,1,60,first,,,,,,,,,,,,,,,,,,,,,,,,,,,,,,,,,,,,,,,,,,,,,,,,,,,,,,,,,,,,,,,,,,,,,,,,
,,,,,,605d54bdad62f3a65e139402,62c539be69f683a4de3533f3,2022-07-06_03h31.05.981,Colour_Asymmetry_Pilot,2022.1.3,Win32,60.0240096,62c50e9c1127f2cd403a315f,,,,,,,,,,,,,,,,,,,,twofour,,-4,5.048,,,,,,,,,,,,,,,,,,,,,,,,,,,,,,,,,,"[0.23920000000000008,0.2704,0.16060000000000008]","[-0.10599999999999998,-0.10599999999999998,0.5841999999999998]",-42,89,1,0,0,response7disk,-2,0,1,0,0,rectangle,-2,0,1,0,0,,2,0.002,0,-2,0,1,0,0,0,4,4,41,1,41,first,,,,,,,,,,,,,,,,,,,,,,,,,,,,,,,,,,,,,,,,,,,,,,,,,,,,,,,,,,,,,,,,,,,,,,,,
,,,,,,605d54bdad62f3a65e139402,62c539be69f683a4de3533f3,2022-07-06_03h31.05.981,Colour_Asymmetry_Pilot,2022.1.3,Win32,60.0240096,62c50e9c1127f2cd403a315f,,,,,,,,,,,,,,,,,,,,fourtwo,,-4,3.648,,,,,,,,,,,,,,,,,,,,,,,,,,,,,,,,,,"[-0.2942,-0.7648,-0.7492000000000001]","[0.2862,0.7802,0.3568]",-40,106,1,0,0,response7disk,0,-4,1,0,0,rectangle,0,-4,1,0,0,,3,0.001,0,0,-4,1,0,0,0,5,5,4,1,4,first,,,,,,,,,,,,,,,,,,,,,,,,,,,,,,,,,,,,,,,,,,,,,,,,,,,,,,,,,,,,,,,,,,,,,,,,
,,,,,,605d54bdad62f3a65e139402,62c539be69f683a4de3533f3,2022-07-06_03h31.05.981,Colour_Asymmetry_Pilot,2022.1.3,Win32,60.0240096,62c50e9c1127f2cd403a315f,,,,,,,,,,,,,,,,,,,,twoone,,-2,6.428,,,,,,,,,,,,,,,,,,,,,,,,,,,,,,,,,,"[0.05879999999999996,0.2784,0.5841999999999998]","[-0.9216,-0.5529999999999999,-0.3962]",-66,-28,1,0,0,response5disk,-6,-2,1,0,0,rectangle,-6,-2,1,0,0,,2,0.002,0,-6,-2,1,0,0,0,6,6,151,1,70,second,,,,,,,,,,,,,,,,,,,,,,,,,,,,,,,,,,,,,,,,,,,,,,,,,,,,,,,,,,,,,,,,,,,,,,,,
,,,,,,605d54bdad62f3a65e139402,62c539be69f683a4de3533f3,2022-07-06_03h31.05.981,Colour_Asymmetry_Pilot,2022.1.3,Win32,60.0240096,62c50e9c1127f2cd403a315f,,,,,,,,,,,,,,,,,,,,fourtwo,,-4,6.261,,,,,,,,,,,,,,,,,,,,,,,,,,,,,,,,,,"[0.6625999999999999,0.4980000000000002,-0.357]","[0.22340000000000004,-0.9296,-0.7884]",-46,90,1,0,0,response7disk,8,-3,1,0,0,rectangle,8,-3,1,0,0,,1,0.003,0,8,-3,1,0,0,0,7,7,125,1,44,second,,,,,,,,,,,,,,,,,,,,,,,,,,,,,,,,,,,,,,,,,,,,,,,,,,,,,,,,,,,,,,,,,,,,,,,,
,,,,,,605d54bdad62f3a65e139402,62c539be69f683a4de3533f3,2022-07-06_03h31.05.981,Colour_Asymmetry_Pilot,2022.1.3,Win32,60.0240096,62c50e9c1127f2cd403a315f,,,,,,,,,,,,,,,,,,,,onethree,,-1,2.215,,,,,,,,,,,,,,,,,,,,,,,,,,,,,,,,,,"[-0.5688,-0.08239999999999992,-0.1844]","[-0.8982,-0.37259999999999993,0.2784]",-38,-66,1,0,0,response5disk,-3,-6,1,0,0,rectangle,39,-82,1,0,0,1,1,2.231,1,-10,2,1,0,0,0,8,8,104,1,23,second,response3disk_3,rectangle,,,,,,,,,,,,,,,,,,,,,,,,,,,,,,,,,,,,,,,,,,,,,,,,,,,,,,,,,,,,,,,,,,,,,,
,,,,,,605d54bdad62f3a65e139402,62c539be69f683a4de3533f3,2022-07-06_03h31.05.981,Colour_Asymmetry_Pilot,2022.1.3,Win32,60.0240096,62c50e9c1127f2cd403a315f,,,,,,,,,,,,,,,,,,,,threefour,,-4,1.783,,,,,,,,,,,,,,,,,,,,,,,,,,,,,,,,,,"[-0.09019999999999995,0.44300000000000006,0.5371999999999999]","[-0.4668,-0.8746,-0.2942]",-29,88,1,0,0,response7disk,-1,0,1,0,0,rectangle,-1,0,1,0,0,1,2,0.002,0,-1,0,1,0,0,0,9,9,0,1,0,first,,,,,,,,,,,,,,,,,,,,,,,,,,,,,,,,,,,,,,,,,,,,,,,,,,,,,,,,,,,,,,,,,,,,,,,,
,,,,,,605d54bdad62f3a65e139402,62c539be69f683a4de3533f3,2022-07-06_03h31.05.981,Colour_Asymmetry_Pilot,2022.1.3,Win32,60.0240096,62c50e9c1127f2cd403a315f,,,,,,,,,,,,,,,,,,,,threeone,,-3,1.998,,,,,,,,,,,,,,,,,,,,,,,,,,,,,,,,,,"[0.9842,0.7409999999999999,-0.6628000000000001]","[-0.9296,-0.12959999999999994,-0.043199999999999905]",-73,31,1,0,0,response7disk,-7,-1,1,0,0,rectangle,-7,-1,1,0,0,1,1,0.001,0,-7,-1,1,0,0,0,10,10,114,1,33,second,,,,,,,,,,,,,,,,,,,,,,,,,,,,,,,,,,,,,,,,,,,,,,,,,,,,,,,,,,,,,,,,,,,,,,,,
,,,,,,605d54bdad62f3a65e139402,62c539be69f683a4de3533f3,2022-07-06_03h31.05.981,Colour_Asymmetry_Pilot,2022.1.3,Win32,60.0240096,62c50e9c1127f2cd403a315f,,,,,,,,,,,,,,,,,,,,threeone,,4,3.332,,,,,,,,,,,,,,,,,,,,,,,,,,,,,,,,,,"[-0.34920000000000007,-0.702,-0.5216]","[-0.01980000000000004,-0.5138,-0.38039999999999996]",42,94,1,0,0,response1disk,-2,2,1,0,0,rectangle,-2,2,1,0,0,1,2,0.002,0,-2,2,1,0,0,0,11,11,94,1,13,second,,,,,,,,,,,,,,,,,,,,,,,,,,,,,,,,,,,,,,,,,,,,,,,,,,,,,,,,,,,,,,,,,,,,,,,,
,,,,,,605d54bdad62f3a65e139402,62c539be69f683a4de3533f3,2022-07-06_03h31.05.981,Colour_Asymmetry_Pilot,2022.1.3,Win32,60.0240096,62c50e9c1127f2cd403a315f,,,,,,,,,,,,,,,,,,,,threefour,,-3,1.966,,,,,,,,,,,,,,,,,,,,,,,,,,,,,,,,,,"[-0.48240000000000005,0.3175999999999999,0.2156]","[-0.011800000000000033,-0.906,-0.45100000000000007]",-96,39,1,0,0,response7disk,-8,6,1,0,0,rectangle,-8,6,1,0,0,1,1,0.003,0,-8,6,1,0,0,0,12,12,129,1,48,second,,,,,,,,,,,,,,,,,,,,,,,,,,,,,,,,,,,,,,,,,,,,,,,,,,,,,,,,,,,,,,,,,,,,,,,,
,,,,,,605d54bdad62f3a65e139402,62c539be69f683a4de3533f3,2022-07-06_03h31.05.981,Colour_Asymmetry_Pilot,2022.1.3,Win32,60.0240096,62c50e9c1127f2cd403a315f,,,,,,,,,,,,,,,,,,,,onetwo,,2,2.366,,,,,,,,,,,,,,,,,,,,,,,,,,,,,,,,,,"[0.3881999999999999,-0.23939999999999995,-0.05040000000000011]","[0.23120000000000007,-0.7726,-0.34120000000000006]",99,-38,1,0,0,response3disk,-10,8,1,0,0,rectangle,-10,8,1,0,0,1,3,0.002,0,-10,8,1,0,0,0,13,13,59,1,59,first,,,,,,,,,,,,,,,,,,,,,,,,,,,,,,,,,,,,,,,,,,,,,,,,,,,,,,,,,,,,,,,,,,,,,,,,
,,,,,,605d54bdad62f3a65e139402,62c539be69f683a4de3533f3,2022-07-06_03h31.05.981,Colour_Asymmetry_Pilot,2022.1.3,Win32,60.0240096,62c50e9c1127f2cd403a315f,,,,,,,,,,,,,,,,,,,,twofour,,-3,2.715,,,,,,,,,,,,,,,,,,,,,,,,,,,,,,,,,,"[-0.30200000000000005,0.14500000000000002,0.2784]","[-0.2942,-0.24719999999999998,-0.357]",-91,48,1,0,0,response7disk,5,-5,1,0,0,rectangle,5,-5,1,0,0,1,1,0.002,0,5,-5,1,0,0,0,14,14,51,1,51,first,,,,,,,,,,,,,,,,,,,,,,,,,,,,,,,,,,,,,,,,,,,,,,,,,,,,,,,,,,,,,,,,,,,,,,,,
,,,,,,605d54bdad62f3a65e139402,62c539be69f683a4de3533f3,2022-07-06_03h31.05.981,Colour_Asymmetry_Pilot,2022.1.3,Win32,60.0240096,62c50e9c1127f2cd403a315f,,,,,,,,,,,,,,,,,,,,threeone,,-3,1.865,,,,,,,,,,,,,,,,,,,,,,,,,,,,,,,,,,"[0.7646000000000002,0.07440000000000002,0.2704]","[-0.09019999999999995,0.44300000000000006,0.5371999999999999]",-94,54,1,0,0,response7disk,-3,3,1,0,0,rectangle,-3,3,1,0,0,1,2,0.002,0,-3,3,1,0,0,0,15,15,98,1,17,second,,,,,,,,,,,,,,,,,,,,,,,,,,,,,,,,,,,,,,,,,,,,,,,,,,,,,,,,,,,,,,,,,,,,,,,,
,,,,,,605d54bdad62f3a65e139402,62c539be69f683a4de3533f3,2022-07-06_03h31.05.981,Colour_Asymmetry_Pilot,2022.1.3,Win32,60.0240096,62c50e9c1127f2cd403a315f,,,,,,,,,,,,,,,,,,,,twoone,,-4,4.562,,,,,,,,,,,,,,,,,,,,,,,,,,,,,,,,,,"[-0.0040000000000000036,0.02739999999999987,-0.08239999999999992]","[-0.34920000000000007,-0.702,-0.5216]",-32,111,1,0,0,response7disk,-4,5,1,0,0,rectangle,109,-38,1,0,0,2,2,2.297,1,-21,14,1,0,0,0,16,16,55,1,55,first,response3disk_3,rectangle,,,,,,,,,,,,,,,,,,,,,,,,,,,,,,,,,,,,,,,,,,,,,,,,,,,,,,,,,,,,,,,,,,,,,,
,,,,,,605d54bdad62f3a65e139402,62c539be69f683a4de3533f3,2022-07-06_03h31.05.981,Colour_Asymmetry_Pilot,2022.1.3,Win32,60.0240096,62c50e9c1127f2cd403a315f,,,,,,,,,,,,,,,,,,,,twofour,,-4,2.016,,,,,,,,,,,,,,,,,,,,,,,,,,,,,,,,,,"[0.2862,0.7802,0.3568]","[-0.011800000000000033,-0.906,-0.45100000000000007]",-39,94,1,0,0,response7disk,3,5,1,0,0,rectangle,3,5,1,0,0,2,3,0.002,0,3,5,1,0,0,0,17,17,74,1,74,first,,,,,,,,,,,,,,,,,,,,,,,,,,,,,,,,,,,,,,,,,,,,,,,,,,,,,,,,,,,,,,,,,,,,,,,,
