trials.thisRepN,trials.thisTrialN,trials.thisN,trials.thisIndex,trials.ran,Colourcodes,participant,session,date,expName,psychopyVersion,OS,frameRate,study_id,trials_4.thisRepN,trials_4.thisTrialN,trials_4.thisN,trials_4.thisIndex,trials_4.ran,StimulusPos,key_resp.keys,key_resp.rt,key_resp_2.keys,key_resp_2.rt,key_resp_15.keys,key_resp_15.rt,key_resp_17.keys,key_resp_17.rt,key_resp_9.keys,key_resp_9.rt,key_resp_10.keys,key_resp_10.rt,Circle1_col,Ecc,Circle2_col,similarity,response_time,mouse_5.x,mouse_5.y,mouse_5.leftButton,mouse_5.midButton,mouse_5.rightButton,mouse_5.clicked_name,mouse_10.x,mouse_10.y,mouse_10.leftButton,mouse_10.midButton,mouse_10.rightButton,mouse_10.clicked_name,mouse_7.x,mouse_7.y,mouse_7.leftButton,mouse_7.midButton,mouse_7.rightButton,mouse_7.clicked_name,catchprac,catchnumberprac,mouse_6.x,mouse_6.y,mouse_6.leftButton,mouse_6.midButton,mouse_6.rightButton,mouse_6.clicked_name,duringprac.thisRepN,duringprac.thisTrialN,duringprac.thisN,duringprac.thisIndex,duringprac.ran,key_resp_22.keys,key_resp_22.rt,Circle1_colour,Circle2_colour,mouse.x,mouse.y,mouse.leftButton,mouse.midButton,mouse.rightButton,mouse.clicked_name,mouse_2.x,mouse_2.y,mouse_2.leftButton,mouse_2.midButton,mouse_2.rightButton,mouse_2.clicked_name,mouse_3.x,mouse_3.y,mouse_3.leftButton,mouse_3.midButton,mouse_3.rightButton,catchresponse,catchnumber,response_time_catch,Catch,mouse_11.x,mouse_11.y,mouse_11.leftButton,mouse_11.midButton,mouse_11.rightButton,trials_2.thisRepN,trials_2.thisTrialN,trials_2.thisN,trials_2.thisIndex,trials_2.ran,Colourpair,Temporder,mouse_3.clicked_name,mouse_11.clicked_name,trials_3.thisRepN,trials_3.thisTrialN,trials_3.thisN,trials_3.thisIndex,trials_3.ran,key_resp_instr_Ishi.keys,key_resp_instr_Ishi.rt,Ishi_trial_keyresp.keys,Ishi_textbox.text,Ishi_mouse.x,Ishi_mouse.y,Ishi_mouse.leftButton,Ishi_mouse.midButton,Ishi_mouse.rightButton,Ishi_mouse.clicked_name,Ishi_loop.thisRepN,Ishi_loop.thisTrialN,Ishi_loop.thisN,Ishi_loop.thisIndex,Ishi_loop.ran,imageaddress,textbox.text,mouse_4.x,mouse_4.y,mouse_4.leftButton,mouse_4.midButton,mouse_4.rightButton,mouse_4.clicked_name,textbox_2.text,mouse_8.x,mouse_8.y,mouse_8.leftButton,mouse_8.midButton,mouse_8.rightButton,mouse_8.clicked_name,textbox_3.text,mouse_9.x,mouse_9.y,mouse_9.leftButton,mouse_9.midButton,mouse_9.rightButton,mouse_9.clicked_name,textbox_4.text,mouse_12.x,mouse_12.y,mouse_12.leftButton,mouse_12.midButton,mouse_12.rightButton,mouse_12.clicked_name,textbox_5.text,mouse_13.x,mouse_13.y,mouse_13.leftButton,mouse_13.midButton,mouse_13.rightButton,mouse_13.clicked_name,textbox_6.text,mouse_14.x,mouse_14.y,mouse_14.leftButton,mouse_14.midButton,mouse_14.rightButton,mouse_14.clicked_name,textbox_7.text,mouse_15.x,mouse_15.y,mouse_15.leftButton,mouse_15.midButton,mouse_15.rightButton,mouse_15.clicked_name
0,0,0,15,1,,616e5ae706e970fe0aff99b6,62c5561c6aafd4167fd46dd3,2022-07-06_12h30.29.518,Colour_Asymmetry_Pilot,2022.1.3,Win32,59.9268892,62c50e9c1127f2cd403a315f,,,,,,,,,,,,,,,,,,,,,,,,,,,,,,,,,,,,,,,,,,,,,,,,,,,,,,,,,,,,,,,,,,,,,,,,,,,,,,,,,,,,,,,,,,,,,,,,,,,,,,,,,,,,,,,,,,,,,,,,,,,,,,,,,,,,,,,,,,,,,,,,,,,,,,,,,,,,,,,,,,,
0,1,1,4,1,,616e5ae706e970fe0aff99b6,62c5561c6aafd4167fd46dd3,2022-07-06_12h30.29.518,Colour_Asymmetry_Pilot,2022.1.3,Win32,59.9268892,62c50e9c1127f2cd403a315f,,,,,,,,,,,,,,,,,,,,,,,,,,,,,,,,,,,,,,,,,,,,,,,,,,,,,,,,,,,,,,,,,,,,,,,,,,,,,,,,,,,,,,,,,,,,,,,,,,,,,,,,,,,,,,,,,,,,,,,,,,,,,,,,,,,,,,,,,,,,,,,,,,,,,,,,,,,,,,,,,,,
0,2,2,6,1,,616e5ae706e970fe0aff99b6,62c5561c6aafd4167fd46dd3,2022-07-06_12h30.29.518,Colour_Asymmetry_Pilot,2022.1.3,Win32,59.9268892,62c50e9c1127f2cd403a315f,,,,,,,,,,,,,,,,,,,,,,,,,,,,,,,,,,,,,,,,,,,,,,,,,,,,,,,,,,,,,,,,,,,,,,,,,,,,,,,,,,,,,,,,,,,,,,,,,,,,,,,,,,,,,,,,,,,,,,,,,,,,,,,,,,,,,,,,,,,,,,,,,,,,,,,,,,,,,,,,,,,
0,3,3,31,1,,616e5ae706e970fe0aff99b6,62c5561c6aafd4167fd46dd3,2022-07-06_12h30.29.518,Colour_Asymmetry_Pilot,2022.1.3,Win32,59.9268892,62c50e9c1127f2cd403a315f,,,,,,,,,,,,,,,,,,,,,,,,,,,,,,,,,,,,,,,,,,,,,,,,,,,,,,,,,,,,,,,,,,,,,,,,,,,,,,,,,,,,,,,,,,,,,,,,,,,,,,,,,,,,,,,,,,,,,,,,,,,,,,,,,,,,,,,,,,,,,,,,,,,,,,,,,,,,,,,,,,,
0,4,4,59,1,,616e5ae706e970fe0aff99b6,62c5561c6aafd4167fd46dd3,2022-07-06_12h30.29.518,Colour_Asymmetry_Pilot,2022.1.3,Win32,59.9268892,62c50e9c1127f2cd403a315f,,,,,,,,,,,,,,,,,,,,,,,,,,,,,,,,,,,,,,,,,,,,,,,,,,,,,,,,,,,,,,,,,,,,,,,,,,,,,,,,,,,,,,,,,,,,,,,,,,,,,,,,,,,,,,,,,,,,,,,,,,,,,,,,,,,,,,,,,,,,,,,,,,,,,,,,,,,,,,,,,,,
0,5,5,36,1,,616e5ae706e970fe0aff99b6,62c5561c6aafd4167fd46dd3,2022-07-06_12h30.29.518,Colour_Asymmetry_Pilot,2022.1.3,Win32,59.9268892,62c50e9c1127f2cd403a315f,,,,,,,,,,,,,,,,,,,,,,,,,,,,,,,,,,,,,,,,,,,,,,,,,,,,,,,,,,,,,,,,,,,,,,,,,,,,,,,,,,,,,,,,,,,,,,,,,,,,,,,,,,,,,,,,,,,,,,,,,,,,,,,,,,,,,,,,,,,,,,,,,,,,,,,,,,,,,,,,,,,
0,6,6,24,1,,616e5ae706e970fe0aff99b6,62c5561c6aafd4167fd46dd3,2022-07-06_12h30.29.518,Colour_Asymmetry_Pilot,2022.1.3,Win32,59.9268892,62c50e9c1127f2cd403a315f,,,,,,,,,,,,,,,,,,,,,,,,,,,,,,,,,,,,,,,,,,,,,,,,,,,,,,,,,,,,,,,,,,,,,,,,,,,,,,,,,,,,,,,,,,,,,,,,,,,,,,,,,,,,,,,,,,,,,,,,,,,,,,,,,,,,,,,,,,,,,,,,,,,,,,,,,,,,,,,,,,,
0,7,7,37,1,,616e5ae706e970fe0aff99b6,62c5561c6aafd4167fd46dd3,2022-07-06_12h30.29.518,Colour_Asymmetry_Pilot,2022.1.3,Win32,59.9268892,62c50e9c1127f2cd403a315f,,,,,,,,,,,,,,,,,,,,,,,,,,,,,,,,,,,,,,,,,,,,,,,,,,,,,,,,,,,,,,,,,,,,,,,,,,,,,,,,,,,,,,,,,,,,,,,,,,,,,,,,,,,,,,,,,,,,,,,,,,,,,,,,,,,,,,,,,,,,,,,,,,,,,,,,,,,,,,,,,,,
0,8,8,51,1,,616e5ae706e970fe0aff99b6,62c5561c6aafd4167fd46dd3,2022-07-06_12h30.29.518,Colour_Asymmetry_Pilot,2022.1.3,Win32,59.9268892,62c50e9c1127f2cd403a315f,,,,,,,,,,,,,,,,,,,,,,,,,,,,,,,,,,,,,,,,,,,,,,,,,,,,,,,,,,,,,,,,,,,,,,,,,,,,,,,,,,,,,,,,,,,,,,,,,,,,,,,,,,,,,,,,,,,,,,,,,,,,,,,,,,,,,,,,,,,,,,,,,,,,,,,,,,,,,,,,,,,
0,9,9,27,1,,616e5ae706e970fe0aff99b6,62c5561c6aafd4167fd46dd3,2022-07-06_12h30.29.518,Colour_Asymmetry_Pilot,2022.1.3,Win32,59.9268892,62c50e9c1127f2cd403a315f,,,,,,,,,,,,,,,,,,,,,,,,,,,,,,,,,,,,,,,,,,,,,,,,,,,,,,,,,,,,,,,,,,,,,,,,,,,,,,,,,,,,,,,,,,,,,,,,,,,,,,,,,,,,,,,,,,,,,,,,,,,,,,,,,,,,,,,,,,,,,,,,,,,,,,,,,,,,,,,,,,,
0,10,10,71,1,,616e5ae706e970fe0aff99b6,62c5561c6aafd4167fd46dd3,2022-07-06_12h30.29.518,Colour_Asymmetry_Pilot,2022.1.3,Win32,59.9268892,62c50e9c1127f2cd403a315f,,,,,,,,,,,,,,,,,,,,,,,,,,,,,,,,,,,,,,,,,,,,,,,,,,,,,,,,,,,,,,,,,,,,,,,,,,,,,,,,,,,,,,,,,,,,,,,,,,,,,,,,,,,,,,,,,,,,,,,,,,,,,,,,,,,,,,,,,,,,,,,,,,,,,,,,,,,,,,,,,,,
0,11,11,81,1,,616e5ae706e970fe0aff99b6,62c5561c6aafd4167fd46dd3,2022-07-06_12h30.29.518,Colour_Asymmetry_Pilot,2022.1.3,Win32,59.9268892,62c50e9c1127f2cd403a315f,,,,,,,,,,,,,,,,,,,,,,,,,,,,,,,,,,,,,,,,,,,,,,,,,,,,,,,,,,,,,,,,,,,,,,,,,,,,,,,,,,,,,,,,,,,,,,,,,,,,,,,,,,,,,,,,,,,,,,,,,,,,,,,,,,,,,,,,,,,,,,,,,,,,,,,,,,,,,,,,,,,
0,12,12,90,1,,616e5ae706e970fe0aff99b6,62c5561c6aafd4167fd46dd3,2022-07-06_12h30.29.518,Colour_Asymmetry_Pilot,2022.1.3,Win32,59.9268892,62c50e9c1127f2cd403a315f,,,,,,,,,,,,,,,,,,,,,,,,,,,,,,,,,,,,,,,,,,,,,,,,,,,,,,,,,,,,,,,,,,,,,,,,,,,,,,,,,,,,,,,,,,,,,,,,,,,,,,,,,,,,,,,,,,,,,,,,,,,,,,,,,,,,,,,,,,,,,,,,,,,,,,,,,,,,,,,,,,,
0,13,13,56,1,,616e5ae706e970fe0aff99b6,62c5561c6aafd4167fd46dd3,2022-07-06_12h30.29.518,Colour_Asymmetry_Pilot,2022.1.3,Win32,59.9268892,62c50e9c1127f2cd403a315f,,,,,,,,,,,,,,,,,,,,,,,,,,,,,,,,,,,,,,,,,,,,,,,,,,,,,,,,,,,,,,,,,,,,,,,,,,,,,,,,,,,,,,,,,,,,,,,,,,,,,,,,,,,,,,,,,,,,,,,,,,,,,,,,,,,,,,,,,,,,,,,,,,,,,,,,,,,,,,,,,,,
0,14,14,69,1,,616e5ae706e970fe0aff99b6,62c5561c6aafd4167fd46dd3,2022-07-06_12h30.29.518,Colour_Asymmetry_Pilot,2022.1.3,Win32,59.9268892,62c50e9c1127f2cd403a315f,,,,,,,,,,,,,,,,,,,,,,,,,,,,,,,,,,,,,,,,,,,,,,,,,,,,,,,,,,,,,,,,,,,,,,,,,,,,,,,,,,,,,,,,,,,,,,,,,,,,,,,,,,,,,,,,,,,,,,,,,,,,,,,,,,,,,,,,,,,,,,,,,,,,,,,,,,,,,,,,,,,
0,15,15,34,1,,616e5ae706e970fe0aff99b6,62c5561c6aafd4167fd46dd3,2022-07-06_12h30.29.518,Colour_Asymmetry_Pilot,2022.1.3,Win32,59.9268892,62c50e9c1127f2cd403a315f,,,,,,,,,,,,,,,,,,,,,,,,,,,,,,,,,,,,,,,,,,,,,,,,,,,,,,,,,,,,,,,,,,,,,,,,,,,,,,,,,,,,,,,,,,,,,,,,,,,,,,,,,,,,,,,,,,,,,,,,,,,,,,,,,,,,,,,,,,,,,,,,,,,,,,,,,,,,,,,,,,,
0,16,16,0,1,,616e5ae706e970fe0aff99b6,62c5561c6aafd4167fd46dd3,2022-07-06_12h30.29.518,Colour_Asymmetry_Pilot,2022.1.3,Win32,59.9268892,62c50e9c1127f2cd403a315f,,,,,,,,,,,,,,,,,,,,,,,,,,,,,,,,,,,,,,,,,,,,,,,,,,,,,,,,,,,,,,,,,,,,,,,,,,,,,,,,,,,,,,,,,,,,,,,,,,,,,,,,,,,,,,,,,,,,,,,,,,,,,,,,,,,,,,,,,,,,,,,,,,,,,,,,,,,,,,,,,,,
0,17,17,68,1,,616e5ae706e970fe0aff99b6,62c5561c6aafd4167fd46dd3,2022-07-06_12h30.29.518,Colour_Asymmetry_Pilot,2022.1.3,Win32,59.9268892,62c50e9c1127f2cd403a315f,,,,,,,,,,,,,,,,,,,,,,,,,,,,,,,,,,,,,,,,,,,,,,,,,,,,,,,,,,,,,,,,,,,,,,,,,,,,,,,,,,,,,,,,,,,,,,,,,,,,,,,,,,,,,,,,,,,,,,,,,,,,,,,,,,,,,,,,,,,,,,,,,,,,,,,,,,,,,,,,,,,
0,18,18,60,1,,616e5ae706e970fe0aff99b6,62c5561c6aafd4167fd46dd3,2022-07-06_12h30.29.518,Colour_Asymmetry_Pilot,2022.1.3,Win32,59.9268892,62c50e9c1127f2cd403a315f,,,,,,,,,,,,,,,,,,,,,,,,,,,,,,,,,,,,,,,,,,,,,,,,,,,,,,,,,,,,,,,,,,,,,,,,,,,,,,,,,,,,,,,,,,,,,,,,,,,,,,,,,,,,,,,,,,,,,,,,,,,,,,,,,,,,,,,,,,,,,,,,,,,,,,,,,,,,,,,,,,,
0,19,19,58,1,,616e5ae706e970fe0aff99b6,62c5561c6aafd4167fd46dd3,2022-07-06_12h30.29.518,Colour_Asymmetry_Pilot,2022.1.3,Win32,59.9268892,62c50e9c1127f2cd403a315f,,,,,,,,,,,,,,,,,,,,,,,,,,,,,,,,,,,,,,,,,,,,,,,,,,,,,,,,,,,,,,,,,,,,,,,,,,,,,,,,,,,,,,,,,,,,,,,,,,,,,,,,,,,,,,,,,,,,,,,,,,,,,,,,,,,,,,,,,,,,,,,,,,,,,,,,,,,,,,,,,,,
0,20,20,19,1,,616e5ae706e970fe0aff99b6,62c5561c6aafd4167fd46dd3,2022-07-06_12h30.29.518,Colour_Asymmetry_Pilot,2022.1.3,Win32,59.9268892,62c50e9c1127f2cd403a315f,,,,,,,,,,,,,,,,,,,,,,,,,,,,,,,,,,,,,,,,,,,,,,,,,,,,,,,,,,,,,,,,,,,,,,,,,,,,,,,,,,,,,,,,,,,,,,,,,,,,,,,,,,,,,,,,,,,,,,,,,,,,,,,,,,,,,,,,,,,,,,,,,,,,,,,,,,,,,,,,,,,
0,21,21,25,1,,616e5ae706e970fe0aff99b6,62c5561c6aafd4167fd46dd3,2022-07-06_12h30.29.518,Colour_Asymmetry_Pilot,2022.1.3,Win32,59.9268892,62c50e9c1127f2cd403a315f,,,,,,,,,,,,,,,,,,,,,,,,,,,,,,,,,,,,,,,,,,,,,,,,,,,,,,,,,,,,,,,,,,,,,,,,,,,,,,,,,,,,,,,,,,,,,,,,,,,,,,,,,,,,,,,,,,,,,,,,,,,,,,,,,,,,,,,,,,,,,,,,,,,,,,,,,,,,,,,,,,,
0,22,22,79,1,,616e5ae706e970fe0aff99b6,62c5561c6aafd4167fd46dd3,2022-07-06_12h30.29.518,Colour_Asymmetry_Pilot,2022.1.3,Win32,59.9268892,62c50e9c1127f2cd403a315f,,,,,,,,,,,,,,,,,,,,,,,,,,,,,,,,,,,,,,,,,,,,,,,,,,,,,,,,,,,,,,,,,,,,,,,,,,,,,,,,,,,,,,,,,,,,,,,,,,,,,,,,,,,,,,,,,,,,,,,,,,,,,,,,,,,,,,,,,,,,,,,,,,,,,,,,,,,,,,,,,,,
0,23,23,40,1,,616e5ae706e970fe0aff99b6,62c5561c6aafd4167fd46dd3,2022-07-06_12h30.29.518,Colour_Asymmetry_Pilot,2022.1.3,Win32,59.9268892,62c50e9c1127f2cd403a315f,,,,,,,,,,,,,,,,,,,,,,,,,,,,,,,,,,,,,,,,,,,,,,,,,,,,,,,,,,,,,,,,,,,,,,,,,,,,,,,,,,,,,,,,,,,,,,,,,,,,,,,,,,,,,,,,,,,,,,,,,,,,,,,,,,,,,,,,,,,,,,,,,,,,,,,,,,,,,,,,,,,
0,24,24,5,1,,616e5ae706e970fe0aff99b6,62c5561c6aafd4167fd46dd3,2022-07-06_12h30.29.518,Colour_Asymmetry_Pilot,2022.1.3,Win32,59.9268892,62c50e9c1127f2cd403a315f,,,,,,,,,,,,,,,,,,,,,,,,,,,,,,,,,,,,,,,,,,,,,,,,,,,,,,,,,,,,,,,,,,,,,,,,,,,,,,,,,,,,,,,,,,,,,,,,,,,,,,,,,,,,,,,,,,,,,,,,,,,,,,,,,,,,,,,,,,,,,,,,,,,,,,,,,,,,,,,,,,,
0,25,25,8,1,,616e5ae706e970fe0aff99b6,62c5561c6aafd4167fd46dd3,2022-07-06_12h30.29.518,Colour_Asymmetry_Pilot,2022.1.3,Win32,59.9268892,62c50e9c1127f2cd403a315f,,,,,,,,,,,,,,,,,,,,,,,,,,,,,,,,,,,,,,,,,,,,,,,,,,,,,,,,,,,,,,,,,,,,,,,,,,,,,,,,,,,,,,,,,,,,,,,,,,,,,,,,,,,,,,,,,,,,,,,,,,,,,,,,,,,,,,,,,,,,,,,,,,,,,,,,,,,,,,,,,,,
0,26,26,63,1,,616e5ae706e970fe0aff99b6,62c5561c6aafd4167fd46dd3,2022-07-06_12h30.29.518,Colour_Asymmetry_Pilot,2022.1.3,Win32,59.9268892,62c50e9c1127f2cd403a315f,,,,,,,,,,,,,,,,,,,,,,,,,,,,,,,,,,,,,,,,,,,,,,,,,,,,,,,,,,,,,,,,,,,,,,,,,,,,,,,,,,,,,,,,,,,,,,,,,,,,,,,,,,,,,,,,,,,,,,,,,,,,,,,,,,,,,,,,,,,,,,,,,,,,,,,,,,,,,,,,,,,
0,27,27,32,1,,616e5ae706e970fe0aff99b6,62c5561c6aafd4167fd46dd3,2022-07-06_12h30.29.518,Colour_Asymmetry_Pilot,2022.1.3,Win32,59.9268892,62c50e9c1127f2cd403a315f,,,,,,,,,,,,,,,,,,,,,,,,,,,,,,,,,,,,,,,,,,,,,,,,,,,,,,,,,,,,,,,,,,,,,,,,,,,,,,,,,,,,,,,,,,,,,,,,,,,,,,,,,,,,,,,,,,,,,,,,,,,,,,,,,,,,,,,,,,,,,,,,,,,,,,,,,,,,,,,,,,,
0,28,28,35,1,,616e5ae706e970fe0aff99b6,62c5561c6aafd4167fd46dd3,2022-07-06_12h30.29.518,Colour_Asymmetry_Pilot,2022.1.3,Win32,59.9268892,62c50e9c1127f2cd403a315f,,,,,,,,,,,,,,,,,,,,,,,,,,,,,,,,,,,,,,,,,,,,,,,,,,,,,,,,,,,,,,,,,,,,,,,,,,,,,,,,,,,,,,,,,,,,,,,,,,,,,,,,,,,,,,,,,,,,,,,,,,,,,,,,,,,,,,,,,,,,,,,,,,,,,,,,,,,,,,,,,,,
0,29,29,23,1,,616e5ae706e970fe0aff99b6,62c5561c6aafd4167fd46dd3,2022-07-06_12h30.29.518,Colour_Asymmetry_Pilot,2022.1.3,Win32,59.9268892,62c50e9c1127f2cd403a315f,,,,,,,,,,,,,,,,,,,,,,,,,,,,,,,,,,,,,,,,,,,,,,,,,,,,,,,,,,,,,,,,,,,,,,,,,,,,,,,,,,,,,,,,,,,,,,,,,,,,,,,,,,,,,,,,,,,,,,,,,,,,,,,,,,,,,,,,,,,,,,,,,,,,,,,,,,,,,,,,,,,
0,30,30,28,1,,616e5ae706e970fe0aff99b6,62c5561c6aafd4167fd46dd3,2022-07-06_12h30.29.518,Colour_Asymmetry_Pilot,2022.1.3,Win32,59.9268892,62c50e9c1127f2cd403a315f,,,,,,,,,,,,,,,,,,,,,,,,,,,,,,,,,,,,,,,,,,,,,,,,,,,,,,,,,,,,,,,,,,,,,,,,,,,,,,,,,,,,,,,,,,,,,,,,,,,,,,,,,,,,,,,,,,,,,,,,,,,,,,,,,,,,,,,,,,,,,,,,,,,,,,,,,,,,,,,,,,,
0,31,31,86,1,,616e5ae706e970fe0aff99b6,62c5561c6aafd4167fd46dd3,2022-07-06_12h30.29.518,Colour_Asymmetry_Pilot,2022.1.3,Win32,59.9268892,62c50e9c1127f2cd403a315f,,,,,,,,,,,,,,,,,,,,,,,,,,,,,,,,,,,,,,,,,,,,,,,,,,,,,,,,,,,,,,,,,,,,,,,,,,,,,,,,,,,,,,,,,,,,,,,,,,,,,,,,,,,,,,,,,,,,,,,,,,,,,,,,,,,,,,,,,,,,,,,,,,,,,,,,,,,,,,,,,,,
0,32,32,43,1,,616e5ae706e970fe0aff99b6,62c5561c6aafd4167fd46dd3,2022-07-06_12h30.29.518,Colour_Asymmetry_Pilot,2022.1.3,Win32,59.9268892,62c50e9c1127f2cd403a315f,,,,,,,,,,,,,,,,,,,,,,,,,,,,,,,,,,,,,,,,,,,,,,,,,,,,,,,,,,,,,,,,,,,,,,,,,,,,,,,,,,,,,,,,,,,,,,,,,,,,,,,,,,,,,,,,,,,,,,,,,,,,,,,,,,,,,,,,,,,,,,,,,,,,,,,,,,,,,,,,,,,
0,33,33,41,1,,616e5ae706e970fe0aff99b6,62c5561c6aafd4167fd46dd3,2022-07-06_12h30.29.518,Colour_Asymmetry_Pilot,2022.1.3,Win32,59.9268892,62c50e9c1127f2cd403a315f,,,,,,,,,,,,,,,,,,,,,,,,,,,,,,,,,,,,,,,,,,,,,,,,,,,,,,,,,,,,,,,,,,,,,,,,,,,,,,,,,,,,,,,,,,,,,,,,,,,,,,,,,,,,,,,,,,,,,,,,,,,,,,,,,,,,,,,,,,,,,,,,,,,,,,,,,,,,,,,,,,,
0,34,34,76,1,,616e5ae706e970fe0aff99b6,62c5561c6aafd4167fd46dd3,2022-07-06_12h30.29.518,Colour_Asymmetry_Pilot,2022.1.3,Win32,59.9268892,62c50e9c1127f2cd403a315f,,,,,,,,,,,,,,,,,,,,,,,,,,,,,,,,,,,,,,,,,,,,,,,,,,,,,,,,,,,,,,,,,,,,,,,,,,,,,,,,,,,,,,,,,,,,,,,,,,,,,,,,,,,,,,,,,,,,,,,,,,,,,,,,,,,,,,,,,,,,,,,,,,,,,,,,,,,,,,,,,,,
0,35,35,10,1,,616e5ae706e970fe0aff99b6,62c5561c6aafd4167fd46dd3,2022-07-06_12h30.29.518,Colour_Asymmetry_Pilot,2022.1.3,Win32,59.9268892,62c50e9c1127f2cd403a315f,,,,,,,,,,,,,,,,,,,,,,,,,,,,,,,,,,,,,,,,,,,,,,,,,,,,,,,,,,,,,,,,,,,,,,,,,,,,,,,,,,,,,,,,,,,,,,,,,,,,,,,,,,,,,,,,,,,,,,,,,,,,,,,,,,,,,,,,,,,,,,,,,,,,,,,,,,,,,,,,,,,
0,36,36,62,1,,616e5ae706e970fe0aff99b6,62c5561c6aafd4167fd46dd3,2022-07-06_12h30.29.518,Colour_Asymmetry_Pilot,2022.1.3,Win32,59.9268892,62c50e9c1127f2cd403a315f,,,,,,,,,,,,,,,,,,,,,,,,,,,,,,,,,,,,,,,,,,,,,,,,,,,,,,,,,,,,,,,,,,,,,,,,,,,,,,,,,,,,,,,,,,,,,,,,,,,,,,,,,,,,,,,,,,,,,,,,,,,,,,,,,,,,,,,,,,,,,,,,,,,,,,,,,,,,,,,,,,,
0,37,37,3,1,,616e5ae706e970fe0aff99b6,62c5561c6aafd4167fd46dd3,2022-07-06_12h30.29.518,Colour_Asymmetry_Pilot,2022.1.3,Win32,59.9268892,62c50e9c1127f2cd403a315f,,,,,,,,,,,,,,,,,,,,,,,,,,,,,,,,,,,,,,,,,,,,,,,,,,,,,,,,,,,,,,,,,,,,,,,,,,,,,,,,,,,,,,,,,,,,,,,,,,,,,,,,,,,,,,,,,,,,,,,,,,,,,,,,,,,,,,,,,,,,,,,,,,,,,,,,,,,,,,,,,,,
0,38,38,65,1,,616e5ae706e970fe0aff99b6,62c5561c6aafd4167fd46dd3,2022-07-06_12h30.29.518,Colour_Asymmetry_Pilot,2022.1.3,Win32,59.9268892,62c50e9c1127f2cd403a315f,,,,,,,,,,,,,,,,,,,,,,,,,,,,,,,,,,,,,,,,,,,,,,,,,,,,,,,,,,,,,,,,,,,,,,,,,,,,,,,,,,,,,,,,,,,,,,,,,,,,,,,,,,,,,,,,,,,,,,,,,,,,,,,,,,,,,,,,,,,,,,,,,,,,,,,,,,,,,,,,,,,
0,39,39,38,1,,616e5ae706e970fe0aff99b6,62c5561c6aafd4167fd46dd3,2022-07-06_12h30.29.518,Colour_Asymmetry_Pilot,2022.1.3,Win32,59.9268892,62c50e9c1127f2cd403a315f,,,,,,,,,,,,,,,,,,,,,,,,,,,,,,,,,,,,,,,,,,,,,,,,,,,,,,,,,,,,,,,,,,,,,,,,,,,,,,,,,,,,,,,,,,,,,,,,,,,,,,,,,,,,,,,,,,,,,,,,,,,,,,,,,,,,,,,,,,,,,,,,,,,,,,,,,,,,,,,,,,,
0,40,40,45,1,,616e5ae706e970fe0aff99b6,62c5561c6aafd4167fd46dd3,2022-07-06_12h30.29.518,Colour_Asymmetry_Pilot,2022.1.3,Win32,59.9268892,62c50e9c1127f2cd403a315f,,,,,,,,,,,,,,,,,,,,,,,,,,,,,,,,,,,,,,,,,,,,,,,,,,,,,,,,,,,,,,,,,,,,,,,,,,,,,,,,,,,,,,,,,,,,,,,,,,,,,,,,,,,,,,,,,,,,,,,,,,,,,,,,,,,,,,,,,,,,,,,,,,,,,,,,,,,,,,,,,,,
0,41,41,47,1,,616e5ae706e970fe0aff99b6,62c5561c6aafd4167fd46dd3,2022-07-06_12h30.29.518,Colour_Asymmetry_Pilot,2022.1.3,Win32,59.9268892,62c50e9c1127f2cd403a315f,,,,,,,,,,,,,,,,,,,,,,,,,,,,,,,,,,,,,,,,,,,,,,,,,,,,,,,,,,,,,,,,,,,,,,,,,,,,,,,,,,,,,,,,,,,,,,,,,,,,,,,,,,,,,,,,,,,,,,,,,,,,,,,,,,,,,,,,,,,,,,,,,,,,,,,,,,,,,,,,,,,
0,42,42,30,1,,616e5ae706e970fe0aff99b6,62c5561c6aafd4167fd46dd3,2022-07-06_12h30.29.518,Colour_Asymmetry_Pilot,2022.1.3,Win32,59.9268892,62c50e9c1127f2cd403a315f,,,,,,,,,,,,,,,,,,,,,,,,,,,,,,,,,,,,,,,,,,,,,,,,,,,,,,,,,,,,,,,,,,,,,,,,,,,,,,,,,,,,,,,,,,,,,,,,,,,,,,,,,,,,,,,,,,,,,,,,,,,,,,,,,,,,,,,,,,,,,,,,,,,,,,,,,,,,,,,,,,,
0,43,43,12,1,,616e5ae706e970fe0aff99b6,62c5561c6aafd4167fd46dd3,2022-07-06_12h30.29.518,Colour_Asymmetry_Pilot,2022.1.3,Win32,59.9268892,62c50e9c1127f2cd403a315f,,,,,,,,,,,,,,,,,,,,,,,,,,,,,,,,,,,,,,,,,,,,,,,,,,,,,,,,,,,,,,,,,,,,,,,,,,,,,,,,,,,,,,,,,,,,,,,,,,,,,,,,,,,,,,,,,,,,,,,,,,,,,,,,,,,,,,,,,,,,,,,,,,,,,,,,,,,,,,,,,,,
0,44,44,61,1,,616e5ae706e970fe0aff99b6,62c5561c6aafd4167fd46dd3,2022-07-06_12h30.29.518,Colour_Asymmetry_Pilot,2022.1.3,Win32,59.9268892,62c50e9c1127f2cd403a315f,,,,,,,,,,,,,,,,,,,,,,,,,,,,,,,,,,,,,,,,,,,,,,,,,,,,,,,,,,,,,,,,,,,,,,,,,,,,,,,,,,,,,,,,,,,,,,,,,,,,,,,,,,,,,,,,,,,,,,,,,,,,,,,,,,,,,,,,,,,,,,,,,,,,,,,,,,,,,,,,,,,
0,45,45,7,1,,616e5ae706e970fe0aff99b6,62c5561c6aafd4167fd46dd3,2022-07-06_12h30.29.518,Colour_Asymmetry_Pilot,2022.1.3,Win32,59.9268892,62c50e9c1127f2cd403a315f,,,,,,,,,,,,,,,,,,,,,,,,,,,,,,,,,,,,,,,,,,,,,,,,,,,,,,,,,,,,,,,,,,,,,,,,,,,,,,,,,,,,,,,,,,,,,,,,,,,,,,,,,,,,,,,,,,,,,,,,,,,,,,,,,,,,,,,,,,,,,,,,,,,,,,,,,,,,,,,,,,,
0,46,46,74,1,,616e5ae706e970fe0aff99b6,62c5561c6aafd4167fd46dd3,2022-07-06_12h30.29.518,Colour_Asymmetry_Pilot,2022.1.3,Win32,59.9268892,62c50e9c1127f2cd403a315f,,,,,,,,,,,,,,,,,,,,,,,,,,,,,,,,,,,,,,,,,,,,,,,,,,,,,,,,,,,,,,,,,,,,,,,,,,,,,,,,,,,,,,,,,,,,,,,,,,,,,,,,,,,,,,,,,,,,,,,,,,,,,,,,,,,,,,,,,,,,,,,,,,,,,,,,,,,,,,,,,,,
0,47,47,73,1,,616e5ae706e970fe0aff99b6,62c5561c6aafd4167fd46dd3,2022-07-06_12h30.29.518,Colour_Asymmetry_Pilot,2022.1.3,Win32,59.9268892,62c50e9c1127f2cd403a315f,,,,,,,,,,,,,,,,,,,,,,,,,,,,,,,,,,,,,,,,,,,,,,,,,,,,,,,,,,,,,,,,,,,,,,,,,,,,,,,,,,,,,,,,,,,,,,,,,,,,,,,,,,,,,,,,,,,,,,,,,,,,,,,,,,,,,,,,,,,,,,,,,,,,,,,,,,,,,,,,,,,
0,48,48,91,1,,616e5ae706e970fe0aff99b6,62c5561c6aafd4167fd46dd3,2022-07-06_12h30.29.518,Colour_Asymmetry_Pilot,2022.1.3,Win32,59.9268892,62c50e9c1127f2cd403a315f,,,,,,,,,,,,,,,,,,,,,,,,,,,,,,,,,,,,,,,,,,,,,,,,,,,,,,,,,,,,,,,,,,,,,,,,,,,,,,,,,,,,,,,,,,,,,,,,,,,,,,,,,,,,,,,,,,,,,,,,,,,,,,,,,,,,,,,,,,,,,,,,,,,,,,,,,,,,,,,,,,,
0,49,49,57,1,,616e5ae706e970fe0aff99b6,62c5561c6aafd4167fd46dd3,2022-07-06_12h30.29.518,Colour_Asymmetry_Pilot,2022.1.3,Win32,59.9268892,62c50e9c1127f2cd403a315f,,,,,,,,,,,,,,,,,,,,,,,,,,,,,,,,,,,,,,,,,,,,,,,,,,,,,,,,,,,,,,,,,,,,,,,,,,,,,,,,,,,,,,,,,,,,,,,,,,,,,,,,,,,,,,,,,,,,,,,,,,,,,,,,,,,,,,,,,,,,,,,,,,,,,,,,,,,,,,,,,,,
0,50,50,42,1,,616e5ae706e970fe0aff99b6,62c5561c6aafd4167fd46dd3,2022-07-06_12h30.29.518,Colour_Asymmetry_Pilot,2022.1.3,Win32,59.9268892,62c50e9c1127f2cd403a315f,,,,,,,,,,,,,,,,,,,,,,,,,,,,,,,,,,,,,,,,,,,,,,,,,,,,,,,,,,,,,,,,,,,,,,,,,,,,,,,,,,,,,,,,,,,,,,,,,,,,,,,,,,,,,,,,,,,,,,,,,,,,,,,,,,,,,,,,,,,,,,,,,,,,,,,,,,,,,,,,,,,
0,51,51,11,1,,616e5ae706e970fe0aff99b6,62c5561c6aafd4167fd46dd3,2022-07-06_12h30.29.518,Colour_Asymmetry_Pilot,2022.1.3,Win32,59.9268892,62c50e9c1127f2cd403a315f,,,,,,,,,,,,,,,,,,,,,,,,,,,,,,,,,,,,,,,,,,,,,,,,,,,,,,,,,,,,,,,,,,,,,,,,,,,,,,,,,,,,,,,,,,,,,,,,,,,,,,,,,,,,,,,,,,,,,,,,,,,,,,,,,,,,,,,,,,,,,,,,,,,,,,,,,,,,,,,,,,,
0,52,52,13,1,,616e5ae706e970fe0aff99b6,62c5561c6aafd4167fd46dd3,2022-07-06_12h30.29.518,Colour_Asymmetry_Pilot,2022.1.3,Win32,59.9268892,62c50e9c1127f2cd403a315f,,,,,,,,,,,,,,,,,,,,,,,,,,,,,,,,,,,,,,,,,,,,,,,,,,,,,,,,,,,,,,,,,,,,,,,,,,,,,,,,,,,,,,,,,,,,,,,,,,,,,,,,,,,,,,,,,,,,,,,,,,,,,,,,,,,,,,,,,,,,,,,,,,,,,,,,,,,,,,,,,,,
0,53,53,82,1,,616e5ae706e970fe0aff99b6,62c5561c6aafd4167fd46dd3,2022-07-06_12h30.29.518,Colour_Asymmetry_Pilot,2022.1.3,Win32,59.9268892,62c50e9c1127f2cd403a315f,,,,,,,,,,,,,,,,,,,,,,,,,,,,,,,,,,,,,,,,,,,,,,,,,,,,,,,,,,,,,,,,,,,,,,,,,,,,,,,,,,,,,,,,,,,,,,,,,,,,,,,,,,,,,,,,,,,,,,,,,,,,,,,,,,,,,,,,,,,,,,,,,,,,,,,,,,,,,,,,,,,
0,54,54,39,1,,616e5ae706e970fe0aff99b6,62c5561c6aafd4167fd46dd3,2022-07-06_12h30.29.518,Colour_Asymmetry_Pilot,2022.1.3,Win32,59.9268892,62c50e9c1127f2cd403a315f,,,,,,,,,,,,,,,,,,,,,,,,,,,,,,,,,,,,,,,,,,,,,,,,,,,,,,,,,,,,,,,,,,,,,,,,,,,,,,,,,,,,,,,,,,,,,,,,,,,,,,,,,,,,,,,,,,,,,,,,,,,,,,,,,,,,,,,,,,,,,,,,,,,,,,,,,,,,,,,,,,,
0,55,55,84,1,,616e5ae706e970fe0aff99b6,62c5561c6aafd4167fd46dd3,2022-07-06_12h30.29.518,Colour_Asymmetry_Pilot,2022.1.3,Win32,59.9268892,62c50e9c1127f2cd403a315f,,,,,,,,,,,,,,,,,,,,,,,,,,,,,,,,,,,,,,,,,,,,,,,,,,,,,,,,,,,,,,,,,,,,,,,,,,,,,,,,,,,,,,,,,,,,,,,,,,,,,,,,,,,,,,,,,,,,,,,,,,,,,,,,,,,,,,,,,,,,,,,,,,,,,,,,,,,,,,,,,,,
0,56,56,67,1,,616e5ae706e970fe0aff99b6,62c5561c6aafd4167fd46dd3,2022-07-06_12h30.29.518,Colour_Asymmetry_Pilot,2022.1.3,Win32,59.9268892,62c50e9c1127f2cd403a315f,,,,,,,,,,,,,,,,,,,,,,,,,,,,,,,,,,,,,,,,,,,,,,,,,,,,,,,,,,,,,,,,,,,,,,,,,,,,,,,,,,,,,,,,,,,,,,,,,,,,,,,,,,,,,,,,,,,,,,,,,,,,,,,,,,,,,,,,,,,,,,,,,,,,,,,,,,,,,,,,,,,
0,57,57,55,1,,616e5ae706e970fe0aff99b6,62c5561c6aafd4167fd46dd3,2022-07-06_12h30.29.518,Colour_Asymmetry_Pilot,2022.1.3,Win32,59.9268892,62c50e9c1127f2cd403a315f,,,,,,,,,,,,,,,,,,,,,,,,,,,,,,,,,,,,,,,,,,,,,,,,,,,,,,,,,,,,,,,,,,,,,,,,,,,,,,,,,,,,,,,,,,,,,,,,,,,,,,,,,,,,,,,,,,,,,,,,,,,,,,,,,,,,,,,,,,,,,,,,,,,,,,,,,,,,,,,,,,,
0,58,58,17,1,,616e5ae706e970fe0aff99b6,62c5561c6aafd4167fd46dd3,2022-07-06_12h30.29.518,Colour_Asymmetry_Pilot,2022.1.3,Win32,59.9268892,62c50e9c1127f2cd403a315f,,,,,,,,,,,,,,,,,,,,,,,,,,,,,,,,,,,,,,,,,,,,,,,,,,,,,,,,,,,,,,,,,,,,,,,,,,,,,,,,,,,,,,,,,,,,,,,,,,,,,,,,,,,,,,,,,,,,,,,,,,,,,,,,,,,,,,,,,,,,,,,,,,,,,,,,,,,,,,,,,,,
0,59,59,14,1,,616e5ae706e970fe0aff99b6,62c5561c6aafd4167fd46dd3,2022-07-06_12h30.29.518,Colour_Asymmetry_Pilot,2022.1.3,Win32,59.9268892,62c50e9c1127f2cd403a315f,,,,,,,,,,,,,,,,,,,,,,,,,,,,,,,,,,,,,,,,,,,,,,,,,,,,,,,,,,,,,,,,,,,,,,,,,,,,,,,,,,,,,,,,,,,,,,,,,,,,,,,,,,,,,,,,,,,,,,,,,,,,,,,,,,,,,,,,,,,,,,,,,,,,,,,,,,,,,,,,,,,
0,60,60,83,1,,616e5ae706e970fe0aff99b6,62c5561c6aafd4167fd46dd3,2022-07-06_12h30.29.518,Colour_Asymmetry_Pilot,2022.1.3,Win32,59.9268892,62c50e9c1127f2cd403a315f,,,,,,,,,,,,,,,,,,,,,,,,,,,,,,,,,,,,,,,,,,,,,,,,,,,,,,,,,,,,,,,,,,,,,,,,,,,,,,,,,,,,,,,,,,,,,,,,,,,,,,,,,,,,,,,,,,,,,,,,,,,,,,,,,,,,,,,,,,,,,,,,,,,,,,,,,,,,,,,,,,,
0,61,61,70,1,,616e5ae706e970fe0aff99b6,62c5561c6aafd4167fd46dd3,2022-07-06_12h30.29.518,Colour_Asymmetry_Pilot,2022.1.3,Win32,59.9268892,62c50e9c1127f2cd403a315f,,,,,,,,,,,,,,,,,,,,,,,,,,,,,,,,,,,,,,,,,,,,,,,,,,,,,,,,,,,,,,,,,,,,,,,,,,,,,,,,,,,,,,,,,,,,,,,,,,,,,,,,,,,,,,,,,,,,,,,,,,,,,,,,,,,,,,,,,,,,,,,,,,,,,,,,,,,,,,,,,,,
0,62,62,77,1,,616e5ae706e970fe0aff99b6,62c5561c6aafd4167fd46dd3,2022-07-06_12h30.29.518,Colour_Asymmetry_Pilot,2022.1.3,Win32,59.9268892,62c50e9c1127f2cd403a315f,,,,,,,,,,,,,,,,,,,,,,,,,,,,,,,,,,,,,,,,,,,,,,,,,,,,,,,,,,,,,,,,,,,,,,,,,,,,,,,,,,,,,,,,,,,,,,,,,,,,,,,,,,,,,,,,,,,,,,,,,,,,,,,,,,,,,,,,,,,,,,,,,,,,,,,,,,,,,,,,,,,
0,63,63,16,1,,616e5ae706e970fe0aff99b6,62c5561c6aafd4167fd46dd3,2022-07-06_12h30.29.518,Colour_Asymmetry_Pilot,2022.1.3,Win32,59.9268892,62c50e9c1127f2cd403a315f,,,,,,,,,,,,,,,,,,,,,,,,,,,,,,,,,,,,,,,,,,,,,,,,,,,,,,,,,,,,,,,,,,,,,,,,,,,,,,,,,,,,,,,,,,,,,,,,,,,,,,,,,,,,,,,,,,,,,,,,,,,,,,,,,,,,,,,,,,,,,,,,,,,,,,,,,,,,,,,,,,,
0,64,64,72,1,,616e5ae706e970fe0aff99b6,62c5561c6aafd4167fd46dd3,2022-07-06_12h30.29.518,Colour_Asymmetry_Pilot,2022.1.3,Win32,59.9268892,62c50e9c1127f2cd403a315f,,,,,,,,,,,,,,,,,,,,,,,,,,,,,,,,,,,,,,,,,,,,,,,,,,,,,,,,,,,,,,,,,,,,,,,,,,,,,,,,,,,,,,,,,,,,,,,,,,,,,,,,,,,,,,,,,,,,,,,,,,,,,,,,,,,,,,,,,,,,,,,,,,,,,,,,,,,,,,,,,,,
0,65,65,26,1,,616e5ae706e970fe0aff99b6,62c5561c6aafd4167fd46dd3,2022-07-06_12h30.29.518,Colour_Asymmetry_Pilot,2022.1.3,Win32,59.9268892,62c50e9c1127f2cd403a315f,,,,,,,,,,,,,,,,,,,,,,,,,,,,,,,,,,,,,,,,,,,,,,,,,,,,,,,,,,,,,,,,,,,,,,,,,,,,,,,,,,,,,,,,,,,,,,,,,,,,,,,,,,,,,,,,,,,,,,,,,,,,,,,,,,,,,,,,,,,,,,,,,,,,,,,,,,,,,,,,,,,
0,66,66,2,1,,616e5ae706e970fe0aff99b6,62c5561c6aafd4167fd46dd3,2022-07-06_12h30.29.518,Colour_Asymmetry_Pilot,2022.1.3,Win32,59.9268892,62c50e9c1127f2cd403a315f,,,,,,,,,,,,,,,,,,,,,,,,,,,,,,,,,,,,,,,,,,,,,,,,,,,,,,,,,,,,,,,,,,,,,,,,,,,,,,,,,,,,,,,,,,,,,,,,,,,,,,,,,,,,,,,,,,,,,,,,,,,,,,,,,,,,,,,,,,,,,,,,,,,,,,,,,,,,,,,,,,,
0,67,67,87,1,,616e5ae706e970fe0aff99b6,62c5561c6aafd4167fd46dd3,2022-07-06_12h30.29.518,Colour_Asymmetry_Pilot,2022.1.3,Win32,59.9268892,62c50e9c1127f2cd403a315f,,,,,,,,,,,,,,,,,,,,,,,,,,,,,,,,,,,,,,,,,,,,,,,,,,,,,,,,,,,,,,,,,,,,,,,,,,,,,,,,,,,,,,,,,,,,,,,,,,,,,,,,,,,,,,,,,,,,,,,,,,,,,,,,,,,,,,,,,,,,,,,,,,,,,,,,,,,,,,,,,,,
0,68,68,66,1,,616e5ae706e970fe0aff99b6,62c5561c6aafd4167fd46dd3,2022-07-06_12h30.29.518,Colour_Asymmetry_Pilot,2022.1.3,Win32,59.9268892,62c50e9c1127f2cd403a315f,,,,,,,,,,,,,,,,,,,,,,,,,,,,,,,,,,,,,,,,,,,,,,,,,,,,,,,,,,,,,,,,,,,,,,,,,,,,,,,,,,,,,,,,,,,,,,,,,,,,,,,,,,,,,,,,,,,,,,,,,,,,,,,,,,,,,,,,,,,,,,,,,,,,,,,,,,,,,,,,,,,
0,69,69,1,1,,616e5ae706e970fe0aff99b6,62c5561c6aafd4167fd46dd3,2022-07-06_12h30.29.518,Colour_Asymmetry_Pilot,2022.1.3,Win32,59.9268892,62c50e9c1127f2cd403a315f,,,,,,,,,,,,,,,,,,,,,,,,,,,,,,,,,,,,,,,,,,,,,,,,,,,,,,,,,,,,,,,,,,,,,,,,,,,,,,,,,,,,,,,,,,,,,,,,,,,,,,,,,,,,,,,,,,,,,,,,,,,,,,,,,,,,,,,,,,,,,,,,,,,,,,,,,,,,,,,,,,,
0,70,70,92,1,,616e5ae706e970fe0aff99b6,62c5561c6aafd4167fd46dd3,2022-07-06_12h30.29.518,Colour_Asymmetry_Pilot,2022.1.3,Win32,59.9268892,62c50e9c1127f2cd403a315f,,,,,,,,,,,,,,,,,,,,,,,,,,,,,,,,,,,,,,,,,,,,,,,,,,,,,,,,,,,,,,,,,,,,,,,,,,,,,,,,,,,,,,,,,,,,,,,,,,,,,,,,,,,,,,,,,,,,,,,,,,,,,,,,,,,,,,,,,,,,,,,,,,,,,,,,,,,,,,,,,,,
0,71,71,78,1,,616e5ae706e970fe0aff99b6,62c5561c6aafd4167fd46dd3,2022-07-06_12h30.29.518,Colour_Asymmetry_Pilot,2022.1.3,Win32,59.9268892,62c50e9c1127f2cd403a315f,,,,,,,,,,,,,,,,,,,,,,,,,,,,,,,,,,,,,,,,,,,,,,,,,,,,,,,,,,,,,,,,,,,,,,,,,,,,,,,,,,,,,,,,,,,,,,,,,,,,,,,,,,,,,,,,,,,,,,,,,,,,,,,,,,,,,,,,,,,,,,,,,,,,,,,,,,,,,,,,,,,
0,72,72,20,1,,616e5ae706e970fe0aff99b6,62c5561c6aafd4167fd46dd3,2022-07-06_12h30.29.518,Colour_Asymmetry_Pilot,2022.1.3,Win32,59.9268892,62c50e9c1127f2cd403a315f,,,,,,,,,,,,,,,,,,,,,,,,,,,,,,,,,,,,,,,,,,,,,,,,,,,,,,,,,,,,,,,,,,,,,,,,,,,,,,,,,,,,,,,,,,,,,,,,,,,,,,,,,,,,,,,,,,,,,,,,,,,,,,,,,,,,,,,,,,,,,,,,,,,,,,,,,,,,,,,,,,,
0,73,73,54,1,,616e5ae706e970fe0aff99b6,62c5561c6aafd4167fd46dd3,2022-07-06_12h30.29.518,Colour_Asymmetry_Pilot,2022.1.3,Win32,59.9268892,62c50e9c1127f2cd403a315f,,,,,,,,,,,,,,,,,,,,,,,,,,,,,,,,,,,,,,,,,,,,,,,,,,,,,,,,,,,,,,,,,,,,,,,,,,,,,,,,,,,,,,,,,,,,,,,,,,,,,,,,,,,,,,,,,,,,,,,,,,,,,,,,,,,,,,,,,,,,,,,,,,,,,,,,,,,,,,,,,,,
0,74,74,33,1,,616e5ae706e970fe0aff99b6,62c5561c6aafd4167fd46dd3,2022-07-06_12h30.29.518,Colour_Asymmetry_Pilot,2022.1.3,Win32,59.9268892,62c50e9c1127f2cd403a315f,,,,,,,,,,,,,,,,,,,,,,,,,,,,,,,,,,,,,,,,,,,,,,,,,,,,,,,,,,,,,,,,,,,,,,,,,,,,,,,,,,,,,,,,,,,,,,,,,,,,,,,,,,,,,,,,,,,,,,,,,,,,,,,,,,,,,,,,,,,,,,,,,,,,,,,,,,,,,,,,,,,
0,75,75,53,1,,616e5ae706e970fe0aff99b6,62c5561c6aafd4167fd46dd3,2022-07-06_12h30.29.518,Colour_Asymmetry_Pilot,2022.1.3,Win32,59.9268892,62c50e9c1127f2cd403a315f,,,,,,,,,,,,,,,,,,,,,,,,,,,,,,,,,,,,,,,,,,,,,,,,,,,,,,,,,,,,,,,,,,,,,,,,,,,,,,,,,,,,,,,,,,,,,,,,,,,,,,,,,,,,,,,,,,,,,,,,,,,,,,,,,,,,,,,,,,,,,,,,,,,,,,,,,,,,,,,,,,,
0,76,76,52,1,,616e5ae706e970fe0aff99b6,62c5561c6aafd4167fd46dd3,2022-07-06_12h30.29.518,Colour_Asymmetry_Pilot,2022.1.3,Win32,59.9268892,62c50e9c1127f2cd403a315f,,,,,,,,,,,,,,,,,,,,,,,,,,,,,,,,,,,,,,,,,,,,,,,,,,,,,,,,,,,,,,,,,,,,,,,,,,,,,,,,,,,,,,,,,,,,,,,,,,,,,,,,,,,,,,,,,,,,,,,,,,,,,,,,,,,,,,,,,,,,,,,,,,,,,,,,,,,,,,,,,,,
0,77,77,21,1,,616e5ae706e970fe0aff99b6,62c5561c6aafd4167fd46dd3,2022-07-06_12h30.29.518,Colour_Asymmetry_Pilot,2022.1.3,Win32,59.9268892,62c50e9c1127f2cd403a315f,,,,,,,,,,,,,,,,,,,,,,,,,,,,,,,,,,,,,,,,,,,,,,,,,,,,,,,,,,,,,,,,,,,,,,,,,,,,,,,,,,,,,,,,,,,,,,,,,,,,,,,,,,,,,,,,,,,,,,,,,,,,,,,,,,,,,,,,,,,,,,,,,,,,,,,,,,,,,,,,,,,
0,78,78,88,1,,616e5ae706e970fe0aff99b6,62c5561c6aafd4167fd46dd3,2022-07-06_12h30.29.518,Colour_Asymmetry_Pilot,2022.1.3,Win32,59.9268892,62c50e9c1127f2cd403a315f,,,,,,,,,,,,,,,,,,,,,,,,,,,,,,,,,,,,,,,,,,,,,,,,,,,,,,,,,,,,,,,,,,,,,,,,,,,,,,,,,,,,,,,,,,,,,,,,,,,,,,,,,,,,,,,,,,,,,,,,,,,,,,,,,,,,,,,,,,,,,,,,,,,,,,,,,,,,,,,,,,,
0,79,79,50,1,,616e5ae706e970fe0aff99b6,62c5561c6aafd4167fd46dd3,2022-07-06_12h30.29.518,Colour_Asymmetry_Pilot,2022.1.3,Win32,59.9268892,62c50e9c1127f2cd403a315f,,,,,,,,,,,,,,,,,,,,,,,,,,,,,,,,,,,,,,,,,,,,,,,,,,,,,,,,,,,,,,,,,,,,,,,,,,,,,,,,,,,,,,,,,,,,,,,,,,,,,,,,,,,,,,,,,,,,,,,,,,,,,,,,,,,,,,,,,,,,,,,,,,,,,,,,,,,,,,,,,,,
0,80,80,49,1,,616e5ae706e970fe0aff99b6,62c5561c6aafd4167fd46dd3,2022-07-06_12h30.29.518,Colour_Asymmetry_Pilot,2022.1.3,Win32,59.9268892,62c50e9c1127f2cd403a315f,,,,,,,,,,,,,,,,,,,,,,,,,,,,,,,,,,,,,,,,,,,,,,,,,,,,,,,,,,,,,,,,,,,,,,,,,,,,,,,,,,,,,,,,,,,,,,,,,,,,,,,,,,,,,,,,,,,,,,,,,,,,,,,,,,,,,,,,,,,,,,,,,,,,,,,,,,,,,,,,,,,
0,81,81,44,1,,616e5ae706e970fe0aff99b6,62c5561c6aafd4167fd46dd3,2022-07-06_12h30.29.518,Colour_Asymmetry_Pilot,2022.1.3,Win32,59.9268892,62c50e9c1127f2cd403a315f,,,,,,,,,,,,,,,,,,,,,,,,,,,,,,,,,,,,,,,,,,,,,,,,,,,,,,,,,,,,,,,,,,,,,,,,,,,,,,,,,,,,,,,,,,,,,,,,,,,,,,,,,,,,,,,,,,,,,,,,,,,,,,,,,,,,,,,,,,,,,,,,,,,,,,,,,,,,,,,,,,,
0,82,82,9,1,,616e5ae706e970fe0aff99b6,62c5561c6aafd4167fd46dd3,2022-07-06_12h30.29.518,Colour_Asymmetry_Pilot,2022.1.3,Win32,59.9268892,62c50e9c1127f2cd403a315f,,,,,,,,,,,,,,,,,,,,,,,,,,,,,,,,,,,,,,,,,,,,,,,,,,,,,,,,,,,,,,,,,,,,,,,,,,,,,,,,,,,,,,,,,,,,,,,,,,,,,,,,,,,,,,,,,,,,,,,,,,,,,,,,,,,,,,,,,,,,,,,,,,,,,,,,,,,,,,,,,,,
0,83,83,18,1,,616e5ae706e970fe0aff99b6,62c5561c6aafd4167fd46dd3,2022-07-06_12h30.29.518,Colour_Asymmetry_Pilot,2022.1.3,Win32,59.9268892,62c50e9c1127f2cd403a315f,,,,,,,,,,,,,,,,,,,,,,,,,,,,,,,,,,,,,,,,,,,,,,,,,,,,,,,,,,,,,,,,,,,,,,,,,,,,,,,,,,,,,,,,,,,,,,,,,,,,,,,,,,,,,,,,,,,,,,,,,,,,,,,,,,,,,,,,,,,,,,,,,,,,,,,,,,,,,,,,,,,
0,84,84,64,1,,616e5ae706e970fe0aff99b6,62c5561c6aafd4167fd46dd3,2022-07-06_12h30.29.518,Colour_Asymmetry_Pilot,2022.1.3,Win32,59.9268892,62c50e9c1127f2cd403a315f,,,,,,,,,,,,,,,,,,,,,,,,,,,,,,,,,,,,,,,,,,,,,,,,,,,,,,,,,,,,,,,,,,,,,,,,,,,,,,,,,,,,,,,,,,,,,,,,,,,,,,,,,,,,,,,,,,,,,,,,,,,,,,,,,,,,,,,,,,,,,,,,,,,,,,,,,,,,,,,,,,,
0,85,85,85,1,,616e5ae706e970fe0aff99b6,62c5561c6aafd4167fd46dd3,2022-07-06_12h30.29.518,Colour_Asymmetry_Pilot,2022.1.3,Win32,59.9268892,62c50e9c1127f2cd403a315f,,,,,,,,,,,,,,,,,,,,,,,,,,,,,,,,,,,,,,,,,,,,,,,,,,,,,,,,,,,,,,,,,,,,,,,,,,,,,,,,,,,,,,,,,,,,,,,,,,,,,,,,,,,,,,,,,,,,,,,,,,,,,,,,,,,,,,,,,,,,,,,,,,,,,,,,,,,,,,,,,,,
0,86,86,29,1,,616e5ae706e970fe0aff99b6,62c5561c6aafd4167fd46dd3,2022-07-06_12h30.29.518,Colour_Asymmetry_Pilot,2022.1.3,Win32,59.9268892,62c50e9c1127f2cd403a315f,,,,,,,,,,,,,,,,,,,,,,,,,,,,,,,,,,,,,,,,,,,,,,,,,,,,,,,,,,,,,,,,,,,,,,,,,,,,,,,,,,,,,,,,,,,,,,,,,,,,,,,,,,,,,,,,,,,,,,,,,,,,,,,,,,,,,,,,,,,,,,,,,,,,,,,,,,,,,,,,,,,
0,87,87,75,1,,616e5ae706e970fe0aff99b6,62c5561c6aafd4167fd46dd3,2022-07-06_12h30.29.518,Colour_Asymmetry_Pilot,2022.1.3,Win32,59.9268892,62c50e9c1127f2cd403a315f,,,,,,,,,,,,,,,,,,,,,,,,,,,,,,,,,,,,,,,,,,,,,,,,,,,,,,,,,,,,,,,,,,,,,,,,,,,,,,,,,,,,,,,,,,,,,,,,,,,,,,,,,,,,,,,,,,,,,,,,,,,,,,,,,,,,,,,,,,,,,,,,,,,,,,,,,,,,,,,,,,,
0,88,88,22,1,,616e5ae706e970fe0aff99b6,62c5561c6aafd4167fd46dd3,2022-07-06_12h30.29.518,Colour_Asymmetry_Pilot,2022.1.3,Win32,59.9268892,62c50e9c1127f2cd403a315f,,,,,,,,,,,,,,,,,,,,,,,,,,,,,,,,,,,,,,,,,,,,,,,,,,,,,,,,,,,,,,,,,,,,,,,,,,,,,,,,,,,,,,,,,,,,,,,,,,,,,,,,,,,,,,,,,,,,,,,,,,,,,,,,,,,,,,,,,,,,,,,,,,,,,,,,,,,,,,,,,,,
0,89,89,80,1,,616e5ae706e970fe0aff99b6,62c5561c6aafd4167fd46dd3,2022-07-06_12h30.29.518,Colour_Asymmetry_Pilot,2022.1.3,Win32,59.9268892,62c50e9c1127f2cd403a315f,,,,,,,,,,,,,,,,,,,,,,,,,,,,,,,,,,,,,,,,,,,,,,,,,,,,,,,,,,,,,,,,,,,,,,,,,,,,,,,,,,,,,,,,,,,,,,,,,,,,,,,,,,,,,,,,,,,,,,,,,,,,,,,,,,,,,,,,,,,,,,,,,,,,,,,,,,,,,,,,,,,
0,90,90,48,1,,616e5ae706e970fe0aff99b6,62c5561c6aafd4167fd46dd3,2022-07-06_12h30.29.518,Colour_Asymmetry_Pilot,2022.1.3,Win32,59.9268892,62c50e9c1127f2cd403a315f,,,,,,,,,,,,,,,,,,,,,,,,,,,,,,,,,,,,,,,,,,,,,,,,,,,,,,,,,,,,,,,,,,,,,,,,,,,,,,,,,,,,,,,,,,,,,,,,,,,,,,,,,,,,,,,,,,,,,,,,,,,,,,,,,,,,,,,,,,,,,,,,,,,,,,,,,,,,,,,,,,,
0,91,91,89,1,,616e5ae706e970fe0aff99b6,62c5561c6aafd4167fd46dd3,2022-07-06_12h30.29.518,Colour_Asymmetry_Pilot,2022.1.3,Win32,59.9268892,62c50e9c1127f2cd403a315f,,,,,,,,,,,,,,,,,,,,,,,,,,,,,,,,,,,,,,,,,,,,,,,,,,,,,,,,,,,,,,,,,,,,,,,,,,,,,,,,,,,,,,,,,,,,,,,,,,,,,,,,,,,,,,,,,,,,,,,,,,,,,,,,,,,,,,,,,,,,,,,,,,,,,,,,,,,,,,,,,,,
0,92,92,46,1,,616e5ae706e970fe0aff99b6,62c5561c6aafd4167fd46dd3,2022-07-06_12h30.29.518,Colour_Asymmetry_Pilot,2022.1.3,Win32,59.9268892,62c50e9c1127f2cd403a315f,,,,,,,,,,,,,,,,,,,,,,,,,,,,,,,,,,,,,,,,,,,,,,,,,,,,,,,,,,,,,,,,,,,,,,,,,,,,,,,,,,,,,,,,,,,,,,,,,,,,,,,,,,,,,,,,,,,,,,,,,,,,,,,,,,,,,,,,,,,,,,,,,,,,,,,,,,,,,,,,,,,
,,,,,,616e5ae706e970fe0aff99b6,62c5561c6aafd4167fd46dd3,2022-07-06_12h30.29.518,Colour_Asymmetry_Pilot,2022.1.3,Win32,59.9268892,62c50e9c1127f2cd403a315f,0,0,0,11,1,twofour,,,,,,,,,,,,,,,,,,,,,,,,,,,,,,,,,,,,,,,,,,,,,,,,,,,,,,,,,,,,,,,,,,,,,,,,,,,,,,,,,,,,,,,,,,,,,,,,,,,,,,,,,,,,,,,,,,,,,,,,,,,,,,,,,,,,,,,,,,,,,,,,,,,,,,,,,,,,,
,,,,,,616e5ae706e970fe0aff99b6,62c5561c6aafd4167fd46dd3,2022-07-06_12h30.29.518,Colour_Asymmetry_Pilot,2022.1.3,Win32,59.9268892,62c50e9c1127f2cd403a315f,0,1,1,89,1,onethree,,,,,,,,,,,,,,,,,,,,,,,,,,,,,,,,,,,,,,,,,,,,,,,,,,,,,,,,,,,,,,,,,,,,,,,,,,,,,,,,,,,,,,,,,,,,,,,,,,,,,,,,,,,,,,,,,,,,,,,,,,,,,,,,,,,,,,,,,,,,,,,,,,,,,,,,,,,,,
,,,,,,616e5ae706e970fe0aff99b6,62c5561c6aafd4167fd46dd3,2022-07-06_12h30.29.518,Colour_Asymmetry_Pilot,2022.1.3,Win32,59.9268892,62c50e9c1127f2cd403a315f,0,2,2,24,1,onetwo,,,,,,,,,,,,,,,,,,,,,,,,,,,,,,,,,,,,,,,,,,,,,,,,,,,,,,,,,,,,,,,,,,,,,,,,,,,,,,,,,,,,,,,,,,,,,,,,,,,,,,,,,,,,,,,,,,,,,,,,,,,,,,,,,,,,,,,,,,,,,,,,,,,,,,,,,,,,,
,,,,,,616e5ae706e970fe0aff99b6,62c5561c6aafd4167fd46dd3,2022-07-06_12h30.29.518,Colour_Asymmetry_Pilot,2022.1.3,Win32,59.9268892,62c50e9c1127f2cd403a315f,0,3,3,16,1,onetwo,,,,,,,,,,,,,,,,,,,,,,,,,,,,,,,,,,,,,,,,,,,,,,,,,,,,,,,,,,,,,,,,,,,,,,,,,,,,,,,,,,,,,,,,,,,,,,,,,,,,,,,,,,,,,,,,,,,,,,,,,,,,,,,,,,,,,,,,,,,,,,,,,,,,,,,,,,,,,
,,,,,,616e5ae706e970fe0aff99b6,62c5561c6aafd4167fd46dd3,2022-07-06_12h30.29.518,Colour_Asymmetry_Pilot,2022.1.3,Win32,59.9268892,62c50e9c1127f2cd403a315f,0,4,4,94,1,fourtwo,,,,,,,,,,,,,,,,,,,,,,,,,,,,,,,,,,,,,,,,,,,,,,,,,,,,,,,,,,,,,,,,,,,,,,,,,,,,,,,,,,,,,,,,,,,,,,,,,,,,,,,,,,,,,,,,,,,,,,,,,,,,,,,,,,,,,,,,,,,,,,,,,,,,,,,,,,,,,
,,,,,,616e5ae706e970fe0aff99b6,62c5561c6aafd4167fd46dd3,2022-07-06_12h30.29.518,Colour_Asymmetry_Pilot,2022.1.3,Win32,59.9268892,62c50e9c1127f2cd403a315f,0,5,5,20,1,threeone,,,,,,,,,,,,,,,,,,,,,,,,,,,,,,,,,,,,,,,,,,,,,,,,,,,,,,,,,,,,,,,,,,,,,,,,,,,,,,,,,,,,,,,,,,,,,,,,,,,,,,,,,,,,,,,,,,,,,,,,,,,,,,,,,,,,,,,,,,,,,,,,,,,,,,,,,,,,,
,,,,,,616e5ae706e970fe0aff99b6,62c5561c6aafd4167fd46dd3,2022-07-06_12h30.29.518,Colour_Asymmetry_Pilot,2022.1.3,Win32,59.9268892,62c50e9c1127f2cd403a315f,0,6,6,30,1,fourtwo,,,,,,,,,,,,,,,,,,,,,,,,,,,,,,,,,,,,,,,,,,,,,,,,,,,,,,,,,,,,,,,,,,,,,,,,,,,,,,,,,,,,,,,,,,,,,,,,,,,,,,,,,,,,,,,,,,,,,,,,,,,,,,,,,,,,,,,,,,,,,,,,,,,,,,,,,,,,,
,,,,,,616e5ae706e970fe0aff99b6,62c5561c6aafd4167fd46dd3,2022-07-06_12h30.29.518,Colour_Asymmetry_Pilot,2022.1.3,Win32,59.9268892,62c50e9c1127f2cd403a315f,0,7,7,160,1,onetwo,,,,,,,,,,,,,,,,,,,,,,,,,,,,,,,,,,,,,,,,,,,,,,,,,,,,,,,,,,,,,,,,,,,,,,,,,,,,,,,,,,,,,,,,,,,,,,,,,,,,,,,,,,,,,,,,,,,,,,,,,,,,,,,,,,,,,,,,,,,,,,,,,,,,,,,,,,,,,
,,,,,,616e5ae706e970fe0aff99b6,62c5561c6aafd4167fd46dd3,2022-07-06_12h30.29.518,Colour_Asymmetry_Pilot,2022.1.3,Win32,59.9268892,62c50e9c1127f2cd403a315f,0,8,8,69,1,threefour,,,,,,,,,,,,,,,,,,,,,,,,,,,,,,,,,,,,,,,,,,,,,,,,,,,,,,,,,,,,,,,,,,,,,,,,,,,,,,,,,,,,,,,,,,,,,,,,,,,,,,,,,,,,,,,,,,,,,,,,,,,,,,,,,,,,,,,,,,,,,,,,,,,,,,,,,,,,,
,,,,,,616e5ae706e970fe0aff99b6,62c5561c6aafd4167fd46dd3,2022-07-06_12h30.29.518,Colour_Asymmetry_Pilot,2022.1.3,Win32,59.9268892,62c50e9c1127f2cd403a315f,0,9,9,102,1,fourtwo,,,,,,,,,,,,,,,,,,,,,,,,,,,,,,,,,,,,,,,,,,,,,,,,,,,,,,,,,,,,,,,,,,,,,,,,,,,,,,,,,,,,,,,,,,,,,,,,,,,,,,,,,,,,,,,,,,,,,,,,,,,,,,,,,,,,,,,,,,,,,,,,,,,,,,,,,,,,,
,,,,,,616e5ae706e970fe0aff99b6,62c5561c6aafd4167fd46dd3,2022-07-06_12h30.29.518,Colour_Asymmetry_Pilot,2022.1.3,Win32,59.9268892,62c50e9c1127f2cd403a315f,0,10,10,78,1,fourtwo,,,,,,,,,,,,,,,,,,,,,,,,,,,,,,,,,,,,,,,,,,,,,,,,,,,,,,,,,,,,,,,,,,,,,,,,,,,,,,,,,,,,,,,,,,,,,,,,,,,,,,,,,,,,,,,,,,,,,,,,,,,,,,,,,,,,,,,,,,,,,,,,,,,,,,,,,,,,,
,,,,,,616e5ae706e970fe0aff99b6,62c5561c6aafd4167fd46dd3,2022-07-06_12h30.29.518,Colour_Asymmetry_Pilot,2022.1.3,Win32,59.9268892,62c50e9c1127f2cd403a315f,0,11,11,68,1,threeone,,,,,,,,,,,,,,,,,,,,,,,,,,,,,,,,,,,,,,,,,,,,,,,,,,,,,,,,,,,,,,,,,,,,,,,,,,,,,,,,,,,,,,,,,,,,,,,,,,,,,,,,,,,,,,,,,,,,,,,,,,,,,,,,,,,,,,,,,,,,,,,,,,,,,,,,,,,,,
,,,,,,616e5ae706e970fe0aff99b6,62c5561c6aafd4167fd46dd3,2022-07-06_12h30.29.518,Colour_Asymmetry_Pilot,2022.1.3,Win32,59.9268892,62c50e9c1127f2cd403a315f,0,12,12,153,1,onethree,,,,,,,,,,,,,,,,,,,,,,,,,,,,,,,,,,,,,,,,,,,,,,,,,,,,,,,,,,,,,,,,,,,,,,,,,,,,,,,,,,,,,,,,,,,,,,,,,,,,,,,,,,,,,,,,,,,,,,,,,,,,,,,,,,,,,,,,,,,,,,,,,,,,,,,,,,,,,
,,,,,,616e5ae706e970fe0aff99b6,62c5561c6aafd4167fd46dd3,2022-07-06_12h30.29.518,Colour_Asymmetry_Pilot,2022.1.3,Win32,59.9268892,62c50e9c1127f2cd403a315f,0,13,13,133,1,threefour,,,,,,,,,,,,,,,,,,,,,,,,,,,,,,,,,,,,,,,,,,,,,,,,,,,,,,,,,,,,,,,,,,,,,,,,,,,,,,,,,,,,,,,,,,,,,,,,,,,,,,,,,,,,,,,,,,,,,,,,,,,,,,,,,,,,,,,,,,,,,,,,,,,,,,,,,,,,,
,,,,,,616e5ae706e970fe0aff99b6,62c5561c6aafd4167fd46dd3,2022-07-06_12h30.29.518,Colour_Asymmetry_Pilot,2022.1.3,Win32,59.9268892,62c50e9c1127f2cd403a315f,0,14,14,43,1,twofour,,,,,,,,,,,,,,,,,,,,,,,,,,,,,,,,,,,,,,,,,,,,,,,,,,,,,,,,,,,,,,,,,,,,,,,,,,,,,,,,,,,,,,,,,,,,,,,,,,,,,,,,,,,,,,,,,,,,,,,,,,,,,,,,,,,,,,,,,,,,,,,,,,,,,,,,,,,,,
,,,,,,616e5ae706e970fe0aff99b6,62c5561c6aafd4167fd46dd3,2022-07-06_12h30.29.518,Colour_Asymmetry_Pilot,2022.1.3,Win32,59.9268892,62c50e9c1127f2cd403a315f,0,15,15,28,1,threeone,,,,,,,,,,,,,,,,,,,,,,,,,,,,,,,,,,,,,,,,,,,,,,,,,,,,,,,,,,,,,,,,,,,,,,,,,,,,,,,,,,,,,,,,,,,,,,,,,,,,,,,,,,,,,,,,,,,,,,,,,,,,,,,,,,,,,,,,,,,,,,,,,,,,,,,,,,,,,
,,,,,,616e5ae706e970fe0aff99b6,62c5561c6aafd4167fd46dd3,2022-07-06_12h30.29.518,Colour_Asymmetry_Pilot,2022.1.3,Win32,59.9268892,62c50e9c1127f2cd403a315f,0,16,16,58,1,twoone,,,,,,,,,,,,,,,,,,,,,,,,,,,,,,,,,,,,,,,,,,,,,,,,,,,,,,,,,,,,,,,,,,,,,,,,,,,,,,,,,,,,,,,,,,,,,,,,,,,,,,,,,,,,,,,,,,,,,,,,,,,,,,,,,,,,,,,,,,,,,,,,,,,,,,,,,,,,,
,,,,,,616e5ae706e970fe0aff99b6,62c5561c6aafd4167fd46dd3,2022-07-06_12h30.29.518,Colour_Asymmetry_Pilot,2022.1.3,Win32,59.9268892,62c50e9c1127f2cd403a315f,0,17,17,95,1,fourthree,,,,,,,,,,,,,,,,,,,,,,,,,,,,,,,,,,,,,,,,,,,,,,,,,,,,,,,,,,,,,,,,,,,,,,,,,,,,,,,,,,,,,,,,,,,,,,,,,,,,,,,,,,,,,,,,,,,,,,,,,,,,,,,,,,,,,,,,,,,,,,,,,,,,,,,,,,,,,
,,,,,,616e5ae706e970fe0aff99b6,62c5561c6aafd4167fd46dd3,2022-07-06_12h30.29.518,Colour_Asymmetry_Pilot,2022.1.3,Win32,59.9268892,62c50e9c1127f2cd403a315f,0,18,18,139,1,twofour,,,,,,,,,,,,,,,,,,,,,,,,,,,,,,,,,,,,,,,,,,,,,,,,,,,,,,,,,,,,,,,,,,,,,,,,,,,,,,,,,,,,,,,,,,,,,,,,,,,,,,,,,,,,,,,,,,,,,,,,,,,,,,,,,,,,,,,,,,,,,,,,,,,,,,,,,,,,,
,,,,,,616e5ae706e970fe0aff99b6,62c5561c6aafd4167fd46dd3,2022-07-06_12h30.29.518,Colour_Asymmetry_Pilot,2022.1.3,Win32,59.9268892,62c50e9c1127f2cd403a315f,0,19,19,52,1,threeone,,,,,,,,,,,,,,,,,,,,,,,,,,,,,,,,,,,,,,,,,,,,,,,,,,,,,,,,,,,,,,,,,,,,,,,,,,,,,,,,,,,,,,,,,,,,,,,,,,,,,,,,,,,,,,,,,,,,,,,,,,,,,,,,,,,,,,,,,,,,,,,,,,,,,,,,,,,,,
,,,,,,616e5ae706e970fe0aff99b6,62c5561c6aafd4167fd46dd3,2022-07-06_12h30.29.518,Colour_Asymmetry_Pilot,2022.1.3,Win32,59.9268892,62c50e9c1127f2cd403a315f,0,20,20,99,1,twofour,,,,,,,,,,,,,,,,,,,,,,,,,,,,,,,,,,,,,,,,,,,,,,,,,,,,,,,,,,,,,,,,,,,,,,,,,,,,,,,,,,,,,,,,,,,,,,,,,,,,,,,,,,,,,,,,,,,,,,,,,,,,,,,,,,,,,,,,,,,,,,,,,,,,,,,,,,,,,
,,,,,,616e5ae706e970fe0aff99b6,62c5561c6aafd4167fd46dd3,2022-07-06_12h30.29.518,Colour_Asymmetry_Pilot,2022.1.3,Win32,59.9268892,62c50e9c1127f2cd403a315f,0,21,21,134,1,fourtwo,,,,,,,,,,,,,,,,,,,,,,,,,,,,,,,,,,,,,,,,,,,,,,,,,,,,,,,,,,,,,,,,,,,,,,,,,,,,,,,,,,,,,,,,,,,,,,,,,,,,,,,,,,,,,,,,,,,,,,,,,,,,,,,,,,,,,,,,,,,,,,,,,,,,,,,,,,,,,
,,,,,,616e5ae706e970fe0aff99b6,62c5561c6aafd4167fd46dd3,2022-07-06_12h30.29.518,Colour_Asymmetry_Pilot,2022.1.3,Win32,59.9268892,62c50e9c1127f2cd403a315f,0,22,22,74,1,twoone,,,,,,,,,,,,,,,,,,,,,,,,,,,,,,,,,,,,,,,,,,,,,,,,,,,,,,,,,,,,,,,,,,,,,,,,,,,,,,,,,,,,,,,,,,,,,,,,,,,,,,,,,,,,,,,,,,,,,,,,,,,,,,,,,,,,,,,,,,,,,,,,,,,,,,,,,,,,,
,,,,,,616e5ae706e970fe0aff99b6,62c5561c6aafd4167fd46dd3,2022-07-06_12h30.29.518,Colour_Asymmetry_Pilot,2022.1.3,Win32,59.9268892,62c50e9c1127f2cd403a315f,0,23,23,126,1,fourtwo,,,,,,,,,,,,,,,,,,,,,,,,,,,,,,,,,,,,,,,,,,,,,,,,,,,,,,,,,,,,,,,,,,,,,,,,,,,,,,,,,,,,,,,,,,,,,,,,,,,,,,,,,,,,,,,,,,,,,,,,,,,,,,,,,,,,,,,,,,,,,,,,,,,,,,,,,,,,,
,,,,,,616e5ae706e970fe0aff99b6,62c5561c6aafd4167fd46dd3,2022-07-06_12h30.29.518,Colour_Asymmetry_Pilot,2022.1.3,Win32,59.9268892,62c50e9c1127f2cd403a315f,0,24,24,110,1,fourtwo,,,,,,,,,,,,,,,,,,,,,,,,,,,,,,,,,,,,,,,,,,,,,,,,,,,,,,,,,,,,,,,,,,,,,,,,,,,,,,,,,,,,,,,,,,,,,,,,,,,,,,,,,,,,,,,,,,,,,,,,,,,,,,,,,,,,,,,,,,,,,,,,,,,,,,,,,,,,,
,,,,,,616e5ae706e970fe0aff99b6,62c5561c6aafd4167fd46dd3,2022-07-06_12h30.29.518,Colour_Asymmetry_Pilot,2022.1.3,Win32,59.9268892,62c50e9c1127f2cd403a315f,0,25,25,109,1,threefour,,,,,,,,,,,,,,,,,,,,,,,,,,,,,,,,,,,,,,,,,,,,,,,,,,,,,,,,,,,,,,,,,,,,,,,,,,,,,,,,,,,,,,,,,,,,,,,,,,,,,,,,,,,,,,,,,,,,,,,,,,,,,,,,,,,,,,,,,,,,,,,,,,,,,,,,,,,,,
,,,,,,616e5ae706e970fe0aff99b6,62c5561c6aafd4167fd46dd3,2022-07-06_12h30.29.518,Colour_Asymmetry_Pilot,2022.1.3,Win32,59.9268892,62c50e9c1127f2cd403a315f,0,26,26,149,1,threefour,,,,,,,,,,,,,,,,,,,,,,,,,,,,,,,,,,,,,,,,,,,,,,,,,,,,,,,,,,,,,,,,,,,,,,,,,,,,,,,,,,,,,,,,,,,,,,,,,,,,,,,,,,,,,,,,,,,,,,,,,,,,,,,,,,,,,,,,,,,,,,,,,,,,,,,,,,,,,
,,,,,,616e5ae706e970fe0aff99b6,62c5561c6aafd4167fd46dd3,2022-07-06_12h30.29.518,Colour_Asymmetry_Pilot,2022.1.3,Win32,59.9268892,62c50e9c1127f2cd403a315f,0,27,27,147,1,twofour,,,,,,,,,,,,,,,,,,,,,,,,,,,,,,,,,,,,,,,,,,,,,,,,,,,,,,,,,,,,,,,,,,,,,,,,,,,,,,,,,,,,,,,,,,,,,,,,,,,,,,,,,,,,,,,,,,,,,,,,,,,,,,,,,,,,,,,,,,,,,,,,,,,,,,,,,,,,,
,,,,,,616e5ae706e970fe0aff99b6,62c5561c6aafd4167fd46dd3,2022-07-06_12h30.29.518,Colour_Asymmetry_Pilot,2022.1.3,Win32,59.9268892,62c50e9c1127f2cd403a315f,0,28,28,18,1,twoone,,,,,,,,,,,,,,,,,,,,,,,,,,,,,,,,,,,,,,,,,,,,,,,,,,,,,,,,,,,,,,,,,,,,,,,,,,,,,,,,,,,,,,,,,,,,,,,,,,,,,,,,,,,,,,,,,,,,,,,,,,,,,,,,,,,,,,,,,,,,,,,,,,,,,,,,,,,,,
,,,,,,616e5ae706e970fe0aff99b6,62c5561c6aafd4167fd46dd3,2022-07-06_12h30.29.518,Colour_Asymmetry_Pilot,2022.1.3,Win32,59.9268892,62c50e9c1127f2cd403a315f,0,29,29,98,1,twoone,,,,,,,,,,,,,,,,,,,,,,,,,,,,,,,,,,,,,,,,,,,,,,,,,,,,,,,,,,,,,,,,,,,,,,,,,,,,,,,,,,,,,,,,,,,,,,,,,,,,,,,,,,,,,,,,,,,,,,,,,,,,,,,,,,,,,,,,,,,,,,,,,,,,,,,,,,,,,
,,,,,,616e5ae706e970fe0aff99b6,62c5561c6aafd4167fd46dd3,2022-07-06_12h30.29.518,Colour_Asymmetry_Pilot,2022.1.3,Win32,59.9268892,62c50e9c1127f2cd403a315f,0,30,30,47,1,fourthree,,,,,,,,,,,,,,,,,,,,,,,,,,,,,,,,,,,,,,,,,,,,,,,,,,,,,,,,,,,,,,,,,,,,,,,,,,,,,,,,,,,,,,,,,,,,,,,,,,,,,,,,,,,,,,,,,,,,,,,,,,,,,,,,,,,,,,,,,,,,,,,,,,,,,,,,,,,,,
,,,,,,616e5ae706e970fe0aff99b6,62c5561c6aafd4167fd46dd3,2022-07-06_12h30.29.518,Colour_Asymmetry_Pilot,2022.1.3,Win32,59.9268892,62c50e9c1127f2cd403a315f,0,31,31,146,1,twoone,,,,,,,,,,,,,,,,,,,,,,,,,,,,,,,,,,,,,,,,,,,,,,,,,,,,,,,,,,,,,,,,,,,,,,,,,,,,,,,,,,,,,,,,,,,,,,,,,,,,,,,,,,,,,,,,,,,,,,,,,,,,,,,,,,,,,,,,,,,,,,,,,,,,,,,,,,,,,
,,,,,,616e5ae706e970fe0aff99b6,62c5561c6aafd4167fd46dd3,2022-07-06_12h30.29.518,Colour_Asymmetry_Pilot,2022.1.3,Win32,59.9268892,62c50e9c1127f2cd403a315f,0,32,32,122,1,twoone,,,,,,,,,,,,,,,,,,,,,,,,,,,,,,,,,,,,,,,,,,,,,,,,,,,,,,,,,,,,,,,,,,,,,,,,,,,,,,,,,,,,,,,,,,,,,,,,,,,,,,,,,,,,,,,,,,,,,,,,,,,,,,,,,,,,,,,,,,,,,,,,,,,,,,,,,,,,,
,,,,,,616e5ae706e970fe0aff99b6,62c5561c6aafd4167fd46dd3,2022-07-06_12h30.29.518,Colour_Asymmetry_Pilot,2022.1.3,Win32,59.9268892,62c50e9c1127f2cd403a315f,0,33,33,115,1,twofour,,,,,,,,,,,,,,,,,,,,,,,,,,,,,,,,,,,,,,,,,,,,,,,,,,,,,,,,,,,,,,,,,,,,,,,,,,,,,,,,,,,,,,,,,,,,,,,,,,,,,,,,,,,,,,,,,,,,,,,,,,,,,,,,,,,,,,,,,,,,,,,,,,,,,,,,,,,,,
,,,,,,616e5ae706e970fe0aff99b6,62c5561c6aafd4167fd46dd3,2022-07-06_12h30.29.518,Colour_Asymmetry_Pilot,2022.1.3,Win32,59.9268892,62c50e9c1127f2cd403a315f,0,34,34,53,1,threefour,,,,,,,,,,,,,,,,,,,,,,,,,,,,,,,,,,,,,,,,,,,,,,,,,,,,,,,,,,,,,,,,,,,,,,,,,,,,,,,,,,,,,,,,,,,,,,,,,,,,,,,,,,,,,,,,,,,,,,,,,,,,,,,,,,,,,,,,,,,,,,,,,,,,,,,,,,,,,
,,,,,,616e5ae706e970fe0aff99b6,62c5561c6aafd4167fd46dd3,2022-07-06_12h30.29.518,Colour_Asymmetry_Pilot,2022.1.3,Win32,59.9268892,62c50e9c1127f2cd403a315f,0,35,35,156,1,threeone,,,,,,,,,,,,,,,,,,,,,,,,,,,,,,,,,,,,,,,,,,,,,,,,,,,,,,,,,,,,,,,,,,,,,,,,,,,,,,,,,,,,,,,,,,,,,,,,,,,,,,,,,,,,,,,,,,,,,,,,,,,,,,,,,,,,,,,,,,,,,,,,,,,,,,,,,,,,,
,,,,,,616e5ae706e970fe0aff99b6,62c5561c6aafd4167fd46dd3,2022-07-06_12h30.29.518,Colour_Asymmetry_Pilot,2022.1.3,Win32,59.9268892,62c50e9c1127f2cd403a315f,0,36,36,103,1,fourthree,,,,,,,,,,,,,,,,,,,,,,,,,,,,,,,,,,,,,,,,,,,,,,,,,,,,,,,,,,,,,,,,,,,,,,,,,,,,,,,,,,,,,,,,,,,,,,,,,,,,,,,,,,,,,,,,,,,,,,,,,,,,,,,,,,,,,,,,,,,,,,,,,,,,,,,,,,,,,
,,,,,,616e5ae706e970fe0aff99b6,62c5561c6aafd4167fd46dd3,2022-07-06_12h30.29.518,Colour_Asymmetry_Pilot,2022.1.3,Win32,59.9268892,62c50e9c1127f2cd403a315f,0,37,37,14,1,fourtwo,,,,,,,,,,,,,,,,,,,,,,,,,,,,,,,,,,,,,,,,,,,,,,,,,,,,,,,,,,,,,,,,,,,,,,,,,,,,,,,,,,,,,,,,,,,,,,,,,,,,,,,,,,,,,,,,,,,,,,,,,,,,,,,,,,,,,,,,,,,,,,,,,,,,,,,,,,,,,
,,,,,,616e5ae706e970fe0aff99b6,62c5561c6aafd4167fd46dd3,2022-07-06_12h30.29.518,Colour_Asymmetry_Pilot,2022.1.3,Win32,59.9268892,62c50e9c1127f2cd403a315f,0,38,38,145,1,onethree,,,,,,,,,,,,,,,,,,,,,,,,,,,,,,,,,,,,,,,,,,,,,,,,,,,,,,,,,,,,,,,,,,,,,,,,,,,,,,,,,,,,,,,,,,,,,,,,,,,,,,,,,,,,,,,,,,,,,,,,,,,,,,,,,,,,,,,,,,,,,,,,,,,,,,,,,,,,,
,,,,,,616e5ae706e970fe0aff99b6,62c5561c6aafd4167fd46dd3,2022-07-06_12h30.29.518,Colour_Asymmetry_Pilot,2022.1.3,Win32,59.9268892,62c50e9c1127f2cd403a315f,0,39,39,65,1,onethree,,,,,,,,,,,,,,,,,,,,,,,,,,,,,,,,,,,,,,,,,,,,,,,,,,,,,,,,,,,,,,,,,,,,,,,,,,,,,,,,,,,,,,,,,,,,,,,,,,,,,,,,,,,,,,,,,,,,,,,,,,,,,,,,,,,,,,,,,,,,,,,,,,,,,,,,,,,,,
,,,,,,616e5ae706e970fe0aff99b6,62c5561c6aafd4167fd46dd3,2022-07-06_12h30.29.518,Colour_Asymmetry_Pilot,2022.1.3,Win32,59.9268892,62c50e9c1127f2cd403a315f,0,40,40,66,1,twoone,,,,,,,,,,,,,,,,,,,,,,,,,,,,,,,,,,,,,,,,,,,,,,,,,,,,,,,,,,,,,,,,,,,,,,,,,,,,,,,,,,,,,,,,,,,,,,,,,,,,,,,,,,,,,,,,,,,,,,,,,,,,,,,,,,,,,,,,,,,,,,,,,,,,,,,,,,,,,
,,,,,,616e5ae706e970fe0aff99b6,62c5561c6aafd4167fd46dd3,2022-07-06_12h30.29.518,Colour_Asymmetry_Pilot,2022.1.3,Win32,59.9268892,62c50e9c1127f2cd403a315f,0,41,41,123,1,twofour,,,,,,,,,,,,,,,,,,,,,,,,,,,,,,,,,,,,,,,,,,,,,,,,,,,,,,,,,,,,,,,,,,,,,,,,,,,,,,,,,,,,,,,,,,,,,,,,,,,,,,,,,,,,,,,,,,,,,,,,,,,,,,,,,,,,,,,,,,,,,,,,,,,,,,,,,,,,,
,,,,,,616e5ae706e970fe0aff99b6,62c5561c6aafd4167fd46dd3,2022-07-06_12h30.29.518,Colour_Asymmetry_Pilot,2022.1.3,Win32,59.9268892,62c50e9c1127f2cd403a315f,0,42,42,91,1,twofour,,,,,,,,,,,,,,,,,,,,,,,,,,,,,,,,,,,,,,,,,,,,,,,,,,,,,,,,,,,,,,,,,,,,,,,,,,,,,,,,,,,,,,,,,,,,,,,,,,,,,,,,,,,,,,,,,,,,,,,,,,,,,,,,,,,,,,,,,,,,,,,,,,,,,,,,,,,,,
,,,,,,616e5ae706e970fe0aff99b6,62c5561c6aafd4167fd46dd3,2022-07-06_12h30.29.518,Colour_Asymmetry_Pilot,2022.1.3,Win32,59.9268892,62c50e9c1127f2cd403a315f,0,43,43,23,1,fourthree,,,,,,,,,,,,,,,,,,,,,,,,,,,,,,,,,,,,,,,,,,,,,,,,,,,,,,,,,,,,,,,,,,,,,,,,,,,,,,,,,,,,,,,,,,,,,,,,,,,,,,,,,,,,,,,,,,,,,,,,,,,,,,,,,,,,,,,,,,,,,,,,,,,,,,,,,,,,,
,,,,,,616e5ae706e970fe0aff99b6,62c5561c6aafd4167fd46dd3,2022-07-06_12h30.29.518,Colour_Asymmetry_Pilot,2022.1.3,Win32,59.9268892,62c50e9c1127f2cd403a315f,0,44,44,141,1,threefour,,,,,,,,,,,,,,,,,,,,,,,,,,,,,,,,,,,,,,,,,,,,,,,,,,,,,,,,,,,,,,,,,,,,,,,,,,,,,,,,,,,,,,,,,,,,,,,,,,,,,,,,,,,,,,,,,,,,,,,,,,,,,,,,,,,,,,,,,,,,,,,,,,,,,,,,,,,,,
,,,,,,616e5ae706e970fe0aff99b6,62c5561c6aafd4167fd46dd3,2022-07-06_12h30.29.518,Colour_Asymmetry_Pilot,2022.1.3,Win32,59.9268892,62c50e9c1127f2cd403a315f,0,45,45,9,1,onethree,,,,,,,,,,,,,,,,,,,,,,,,,,,,,,,,,,,,,,,,,,,,,,,,,,,,,,,,,,,,,,,,,,,,,,,,,,,,,,,,,,,,,,,,,,,,,,,,,,,,,,,,,,,,,,,,,,,,,,,,,,,,,,,,,,,,,,,,,,,,,,,,,,,,,,,,,,,,,
,,,,,,616e5ae706e970fe0aff99b6,62c5561c6aafd4167fd46dd3,2022-07-06_12h30.29.518,Colour_Asymmetry_Pilot,2022.1.3,Win32,59.9268892,62c50e9c1127f2cd403a315f,0,46,46,32,1,onetwo,,,,,,,,,,,,,,,,,,,,,,,,,,,,,,,,,,,,,,,,,,,,,,,,,,,,,,,,,,,,,,,,,,,,,,,,,,,,,,,,,,,,,,,,,,,,,,,,,,,,,,,,,,,,,,,,,,,,,,,,,,,,,,,,,,,,,,,,,,,,,,,,,,,,,,,,,,,,,
,,,,,,616e5ae706e970fe0aff99b6,62c5561c6aafd4167fd46dd3,2022-07-06_12h30.29.518,Colour_Asymmetry_Pilot,2022.1.3,Win32,59.9268892,62c50e9c1127f2cd403a315f,0,47,47,140,1,threeone,,,,,,,,,,,,,,,,,,,,,,,,,,,,,,,,,,,,,,,,,,,,,,,,,,,,,,,,,,,,,,,,,,,,,,,,,,,,,,,,,,,,,,,,,,,,,,,,,,,,,,,,,,,,,,,,,,,,,,,,,,,,,,,,,,,,,,,,,,,,,,,,,,,,,,,,,,,,,
,,,,,,616e5ae706e970fe0aff99b6,62c5561c6aafd4167fd46dd3,2022-07-06_12h30.29.518,Colour_Asymmetry_Pilot,2022.1.3,Win32,59.9268892,62c50e9c1127f2cd403a315f,0,48,48,101,1,threefour,,,,,,,,,,,,,,,,,,,,,,,,,,,,,,,,,,,,,,,,,,,,,,,,,,,,,,,,,,,,,,,,,,,,,,,,,,,,,,,,,,,,,,,,,,,,,,,,,,,,,,,,,,,,,,,,,,,,,,,,,,,,,,,,,,,,,,,,,,,,,,,,,,,,,,,,,,,,,
,,,,,,616e5ae706e970fe0aff99b6,62c5561c6aafd4167fd46dd3,2022-07-06_12h30.29.518,Colour_Asymmetry_Pilot,2022.1.3,Win32,59.9268892,62c50e9c1127f2cd403a315f,0,49,49,80,1,onetwo,,,,,,,,,,,,,,,,,,,,,,,,,,,,,,,,,,,,,,,,,,,,,,,,,,,,,,,,,,,,,,,,,,,,,,,,,,,,,,,,,,,,,,,,,,,,,,,,,,,,,,,,,,,,,,,,,,,,,,,,,,,,,,,,,,,,,,,,,,,,,,,,,,,,,,,,,,,,,
,,,,,,616e5ae706e970fe0aff99b6,62c5561c6aafd4167fd46dd3,2022-07-06_12h30.29.518,Colour_Asymmetry_Pilot,2022.1.3,Win32,59.9268892,62c50e9c1127f2cd403a315f,0,50,50,82,1,twoone,,,,,,,,,,,,,,,,,,,,,,,,,,,,,,,,,,,,,,,,,,,,,,,,,,,,,,,,,,,,,,,,,,,,,,,,,,,,,,,,,,,,,,,,,,,,,,,,,,,,,,,,,,,,,,,,,,,,,,,,,,,,,,,,,,,,,,,,,,,,,,,,,,,,,,,,,,,,,
,,,,,,616e5ae706e970fe0aff99b6,62c5561c6aafd4167fd46dd3,2022-07-06_12h30.29.518,Colour_Asymmetry_Pilot,2022.1.3,Win32,59.9268892,62c50e9c1127f2cd403a315f,0,51,51,33,1,onethree,,,,,,,,,,,,,,,,,,,,,,,,,,,,,,,,,,,,,,,,,,,,,,,,,,,,,,,,,,,,,,,,,,,,,,,,,,,,,,,,,,,,,,,,,,,,,,,,,,,,,,,,,,,,,,,,,,,,,,,,,,,,,,,,,,,,,,,,,,,,,,,,,,,,,,,,,,,,,
,,,,,,616e5ae706e970fe0aff99b6,62c5561c6aafd4167fd46dd3,2022-07-06_12h30.29.518,Colour_Asymmetry_Pilot,2022.1.3,Win32,59.9268892,62c50e9c1127f2cd403a315f,0,52,52,77,1,threefour,,,,,,,,,,,,,,,,,,,,,,,,,,,,,,,,,,,,,,,,,,,,,,,,,,,,,,,,,,,,,,,,,,,,,,,,,,,,,,,,,,,,,,,,,,,,,,,,,,,,,,,,,,,,,,,,,,,,,,,,,,,,,,,,,,,,,,,,,,,,,,,,,,,,,,,,,,,,,
,,,,,,616e5ae706e970fe0aff99b6,62c5561c6aafd4167fd46dd3,2022-07-06_12h30.29.518,Colour_Asymmetry_Pilot,2022.1.3,Win32,59.9268892,62c50e9c1127f2cd403a315f,0,53,53,25,1,onethree,,,,,,,,,,,,,,,,,,,,,,,,,,,,,,,,,,,,,,,,,,,,,,,,,,,,,,,,,,,,,,,,,,,,,,,,,,,,,,,,,,,,,,,,,,,,,,,,,,,,,,,,,,,,,,,,,,,,,,,,,,,,,,,,,,,,,,,,,,,,,,,,,,,,,,,,,,,,,
,,,,,,616e5ae706e970fe0aff99b6,62c5561c6aafd4167fd46dd3,2022-07-06_12h30.29.518,Colour_Asymmetry_Pilot,2022.1.3,Win32,59.9268892,62c50e9c1127f2cd403a315f,0,54,54,2,1,twoone,,,,,,,,,,,,,,,,,,,,,,,,,,,,,,,,,,,,,,,,,,,,,,,,,,,,,,,,,,,,,,,,,,,,,,,,,,,,,,,,,,,,,,,,,,,,,,,,,,,,,,,,,,,,,,,,,,,,,,,,,,,,,,,,,,,,,,,,,,,,,,,,,,,,,,,,,,,,,
,,,,,,616e5ae706e970fe0aff99b6,62c5561c6aafd4167fd46dd3,2022-07-06_12h30.29.518,Colour_Asymmetry_Pilot,2022.1.3,Win32,59.9268892,62c50e9c1127f2cd403a315f,0,55,55,132,1,threeone,,,,,,,,,,,,,,,,,,,,,,,,,,,,,,,,,,,,,,,,,,,,,,,,,,,,,,,,,,,,,,,,,,,,,,,,,,,,,,,,,,,,,,,,,,,,,,,,,,,,,,,,,,,,,,,,,,,,,,,,,,,,,,,,,,,,,,,,,,,,,,,,,,,,,,,,,,,,,
,,,,,,616e5ae706e970fe0aff99b6,62c5561c6aafd4167fd46dd3,2022-07-06_12h30.29.518,Colour_Asymmetry_Pilot,2022.1.3,Win32,59.9268892,62c50e9c1127f2cd403a315f,0,56,56,50,1,twoone,,,,,,,,,,,,,,,,,,,,,,,,,,,,,,,,,,,,,,,,,,,,,,,,,,,,,,,,,,,,,,,,,,,,,,,,,,,,,,,,,,,,,,,,,,,,,,,,,,,,,,,,,,,,,,,,,,,,,,,,,,,,,,,,,,,,,,,,,,,,,,,,,,,,,,,,,,,,,
,,,,,,616e5ae706e970fe0aff99b6,62c5561c6aafd4167fd46dd3,2022-07-06_12h30.29.518,Colour_Asymmetry_Pilot,2022.1.3,Win32,59.9268892,62c50e9c1127f2cd403a315f,0,57,57,125,1,threefour,,,,,,,,,,,,,,,,,,,,,,,,,,,,,,,,,,,,,,,,,,,,,,,,,,,,,,,,,,,,,,,,,,,,,,,,,,,,,,,,,,,,,,,,,,,,,,,,,,,,,,,,,,,,,,,,,,,,,,,,,,,,,,,,,,,,,,,,,,,,,,,,,,,,,,,,,,,,,
,,,,,,616e5ae706e970fe0aff99b6,62c5561c6aafd4167fd46dd3,2022-07-06_12h30.29.518,Colour_Asymmetry_Pilot,2022.1.3,Win32,59.9268892,62c50e9c1127f2cd403a315f,0,58,58,15,1,fourthree,,,,,,,,,,,,,,,,,,,,,,,,,,,,,,,,,,,,,,,,,,,,,,,,,,,,,,,,,,,,,,,,,,,,,,,,,,,,,,,,,,,,,,,,,,,,,,,,,,,,,,,,,,,,,,,,,,,,,,,,,,,,,,,,,,,,,,,,,,,,,,,,,,,,,,,,,,,,,
,,,,,,616e5ae706e970fe0aff99b6,62c5561c6aafd4167fd46dd3,2022-07-06_12h30.29.518,Colour_Asymmetry_Pilot,2022.1.3,Win32,59.9268892,62c50e9c1127f2cd403a315f,0,59,59,26,1,twoone,,,,,,,,,,,,,,,,,,,,,,,,,,,,,,,,,,,,,,,,,,,,,,,,,,,,,,,,,,,,,,,,,,,,,,,,,,,,,,,,,,,,,,,,,,,,,,,,,,,,,,,,,,,,,,,,,,,,,,,,,,,,,,,,,,,,,,,,,,,,,,,,,,,,,,,,,,,,,
,,,,,,616e5ae706e970fe0aff99b6,62c5561c6aafd4167fd46dd3,2022-07-06_12h30.29.518,Colour_Asymmetry_Pilot,2022.1.3,Win32,59.9268892,62c50e9c1127f2cd403a315f,0,60,60,31,1,fourthree,,,,,,,,,,,,,,,,,,,,,,,,,,,,,,,,,,,,,,,,,,,,,,,,,,,,,,,,,,,,,,,,,,,,,,,,,,,,,,,,,,,,,,,,,,,,,,,,,,,,,,,,,,,,,,,,,,,,,,,,,,,,,,,,,,,,,,,,,,,,,,,,,,,,,,,,,,,,,
,,,,,,616e5ae706e970fe0aff99b6,62c5561c6aafd4167fd46dd3,2022-07-06_12h30.29.518,Colour_Asymmetry_Pilot,2022.1.3,Win32,59.9268892,62c50e9c1127f2cd403a315f,0,61,61,8,1,onetwo,,,,,,,,,,,,,,,,,,,,,,,,,,,,,,,,,,,,,,,,,,,,,,,,,,,,,,,,,,,,,,,,,,,,,,,,,,,,,,,,,,,,,,,,,,,,,,,,,,,,,,,,,,,,,,,,,,,,,,,,,,,,,,,,,,,,,,,,,,,,,,,,,,,,,,,,,,,,,
,,,,,,616e5ae706e970fe0aff99b6,62c5561c6aafd4167fd46dd3,2022-07-06_12h30.29.518,Colour_Asymmetry_Pilot,2022.1.3,Win32,59.9268892,62c50e9c1127f2cd403a315f,0,62,62,81,1,onethree,,,,,,,,,,,,,,,,,,,,,,,,,,,,,,,,,,,,,,,,,,,,,,,,,,,,,,,,,,,,,,,,,,,,,,,,,,,,,,,,,,,,,,,,,,,,,,,,,,,,,,,,,,,,,,,,,,,,,,,,,,,,,,,,,,,,,,,,,,,,,,,,,,,,,,,,,,,,,
,,,,,,616e5ae706e970fe0aff99b6,62c5561c6aafd4167fd46dd3,2022-07-06_12h30.29.518,Colour_Asymmetry_Pilot,2022.1.3,Win32,59.9268892,62c50e9c1127f2cd403a315f,0,63,63,5,1,threefour,,,,,,,,,,,,,,,,,,,,,,,,,,,,,,,,,,,,,,,,,,,,,,,,,,,,,,,,,,,,,,,,,,,,,,,,,,,,,,,,,,,,,,,,,,,,,,,,,,,,,,,,,,,,,,,,,,,,,,,,,,,,,,,,,,,,,,,,,,,,,,,,,,,,,,,,,,,,,
,,,,,,616e5ae706e970fe0aff99b6,62c5561c6aafd4167fd46dd3,2022-07-06_12h30.29.518,Colour_Asymmetry_Pilot,2022.1.3,Win32,59.9268892,62c50e9c1127f2cd403a315f,0,64,64,112,1,onetwo,,,,,,,,,,,,,,,,,,,,,,,,,,,,,,,,,,,,,,,,,,,,,,,,,,,,,,,,,,,,,,,,,,,,,,,,,,,,,,,,,,,,,,,,,,,,,,,,,,,,,,,,,,,,,,,,,,,,,,,,,,,,,,,,,,,,,,,,,,,,,,,,,,,,,,,,,,,,,
,,,,,,616e5ae706e970fe0aff99b6,62c5561c6aafd4167fd46dd3,2022-07-06_12h30.29.518,Colour_Asymmetry_Pilot,2022.1.3,Win32,59.9268892,62c50e9c1127f2cd403a315f,0,65,65,7,1,fourthree,,,,,,,,,,,,,,,,,,,,,,,,,,,,,,,,,,,,,,,,,,,,,,,,,,,,,,,,,,,,,,,,,,,,,,,,,,,,,,,,,,,,,,,,,,,,,,,,,,,,,,,,,,,,,,,,,,,,,,,,,,,,,,,,,,,,,,,,,,,,,,,,,,,,,,,,,,,,,
,,,,,,616e5ae706e970fe0aff99b6,62c5561c6aafd4167fd46dd3,2022-07-06_12h30.29.518,Colour_Asymmetry_Pilot,2022.1.3,Win32,59.9268892,62c50e9c1127f2cd403a315f,0,66,66,121,1,onethree,,,,,,,,,,,,,,,,,,,,,,,,,,,,,,,,,,,,,,,,,,,,,,,,,,,,,,,,,,,,,,,,,,,,,,,,,,,,,,,,,,,,,,,,,,,,,,,,,,,,,,,,,,,,,,,,,,,,,,,,,,,,,,,,,,,,,,,,,,,,,,,,,,,,,,,,,,,,,
,,,,,,616e5ae706e970fe0aff99b6,62c5561c6aafd4167fd46dd3,2022-07-06_12h30.29.518,Colour_Asymmetry_Pilot,2022.1.3,Win32,59.9268892,62c50e9c1127f2cd403a315f,0,67,67,17,1,onethree,,,,,,,,,,,,,,,,,,,,,,,,,,,,,,,,,,,,,,,,,,,,,,,,,,,,,,,,,,,,,,,,,,,,,,,,,,,,,,,,,,,,,,,,,,,,,,,,,,,,,,,,,,,,,,,,,,,,,,,,,,,,,,,,,,,,,,,,,,,,,,,,,,,,,,,,,,,,,
,,,,,,616e5ae706e970fe0aff99b6,62c5561c6aafd4167fd46dd3,2022-07-06_12h30.29.518,Colour_Asymmetry_Pilot,2022.1.3,Win32,59.9268892,62c50e9c1127f2cd403a315f,0,68,68,137,1,onethree,,,,,,,,,,,,,,,,,,,,,,,,,,,,,,,,,,,,,,,,,,,,,,,,,,,,,,,,,,,,,,,,,,,,,,,,,,,,,,,,,,,,,,,,,,,,,,,,,,,,,,,,,,,,,,,,,,,,,,,,,,,,,,,,,,,,,,,,,,,,,,,,,,,,,,,,,,,,,
,,,,,,616e5ae706e970fe0aff99b6,62c5561c6aafd4167fd46dd3,2022-07-06_12h30.29.518,Colour_Asymmetry_Pilot,2022.1.3,Win32,59.9268892,62c50e9c1127f2cd403a315f,0,69,69,40,1,onetwo,,,,,,,,,,,,,,,,,,,,,,,,,,,,,,,,,,,,,,,,,,,,,,,,,,,,,,,,,,,,,,,,,,,,,,,,,,,,,,,,,,,,,,,,,,,,,,,,,,,,,,,,,,,,,,,,,,,,,,,,,,,,,,,,,,,,,,,,,,,,,,,,,,,,,,,,,,,,,
,,,,,,616e5ae706e970fe0aff99b6,62c5561c6aafd4167fd46dd3,2022-07-06_12h30.29.518,Colour_Asymmetry_Pilot,2022.1.3,Win32,59.9268892,62c50e9c1127f2cd403a315f,0,70,70,71,1,fourthree,,,,,,,,,,,,,,,,,,,,,,,,,,,,,,,,,,,,,,,,,,,,,,,,,,,,,,,,,,,,,,,,,,,,,,,,,,,,,,,,,,,,,,,,,,,,,,,,,,,,,,,,,,,,,,,,,,,,,,,,,,,,,,,,,,,,,,,,,,,,,,,,,,,,,,,,,,,,,
,,,,,,616e5ae706e970fe0aff99b6,62c5561c6aafd4167fd46dd3,2022-07-06_12h30.29.518,Colour_Asymmetry_Pilot,2022.1.3,Win32,59.9268892,62c50e9c1127f2cd403a315f,0,71,71,100,1,threeone,,,,,,,,,,,,,,,,,,,,,,,,,,,,,,,,,,,,,,,,,,,,,,,,,,,,,,,,,,,,,,,,,,,,,,,,,,,,,,,,,,,,,,,,,,,,,,,,,,,,,,,,,,,,,,,,,,,,,,,,,,,,,,,,,,,,,,,,,,,,,,,,,,,,,,,,,,,,,
,,,,,,616e5ae706e970fe0aff99b6,62c5561c6aafd4167fd46dd3,2022-07-06_12h30.29.518,Colour_Asymmetry_Pilot,2022.1.3,Win32,59.9268892,62c50e9c1127f2cd403a315f,0,72,72,21,1,threefour,,,,,,,,,,,,,,,,,,,,,,,,,,,,,,,,,,,,,,,,,,,,,,,,,,,,,,,,,,,,,,,,,,,,,,,,,,,,,,,,,,,,,,,,,,,,,,,,,,,,,,,,,,,,,,,,,,,,,,,,,,,,,,,,,,,,,,,,,,,,,,,,,,,,,,,,,,,,,
,,,,,,616e5ae706e970fe0aff99b6,62c5561c6aafd4167fd46dd3,2022-07-06_12h30.29.518,Colour_Asymmetry_Pilot,2022.1.3,Win32,59.9268892,62c50e9c1127f2cd403a315f,0,73,73,105,1,onethree,,,,,,,,,,,,,,,,,,,,,,,,,,,,,,,,,,,,,,,,,,,,,,,,,,,,,,,,,,,,,,,,,,,,,,,,,,,,,,,,,,,,,,,,,,,,,,,,,,,,,,,,,,,,,,,,,,,,,,,,,,,,,,,,,,,,,,,,,,,,,,,,,,,,,,,,,,,,,
,,,,,,616e5ae706e970fe0aff99b6,62c5561c6aafd4167fd46dd3,2022-07-06_12h30.29.518,Colour_Asymmetry_Pilot,2022.1.3,Win32,59.9268892,62c50e9c1127f2cd403a315f,0,74,74,161,1,onethree,,,,,,,,,,,,,,,,,,,,,,,,,,,,,,,,,,,,,,,,,,,,,,,,,,,,,,,,,,,,,,,,,,,,,,,,,,,,,,,,,,,,,,,,,,,,,,,,,,,,,,,,,,,,,,,,,,,,,,,,,,,,,,,,,,,,,,,,,,,,,,,,,,,,,,,,,,,,,
,,,,,,616e5ae706e970fe0aff99b6,62c5561c6aafd4167fd46dd3,2022-07-06_12h30.29.518,Colour_Asymmetry_Pilot,2022.1.3,Win32,59.9268892,62c50e9c1127f2cd403a315f,0,75,75,142,1,fourtwo,,,,,,,,,,,,,,,,,,,,,,,,,,,,,,,,,,,,,,,,,,,,,,,,,,,,,,,,,,,,,,,,,,,,,,,,,,,,,,,,,,,,,,,,,,,,,,,,,,,,,,,,,,,,,,,,,,,,,,,,,,,,,,,,,,,,,,,,,,,,,,,,,,,,,,,,,,,,,
,,,,,,616e5ae706e970fe0aff99b6,62c5561c6aafd4167fd46dd3,2022-07-06_12h30.29.518,Colour_Asymmetry_Pilot,2022.1.3,Win32,59.9268892,62c50e9c1127f2cd403a315f,0,76,76,44,1,threeone,,,,,,,,,,,,,,,,,,,,,,,,,,,,,,,,,,,,,,,,,,,,,,,,,,,,,,,,,,,,,,,,,,,,,,,,,,,,,,,,,,,,,,,,,,,,,,,,,,,,,,,,,,,,,,,,,,,,,,,,,,,,,,,,,,,,,,,,,,,,,,,,,,,,,,,,,,,,,
,,,,,,616e5ae706e970fe0aff99b6,62c5561c6aafd4167fd46dd3,2022-07-06_12h30.29.518,Colour_Asymmetry_Pilot,2022.1.3,Win32,59.9268892,62c50e9c1127f2cd403a315f,0,77,77,56,1,onetwo,,,,,,,,,,,,,,,,,,,,,,,,,,,,,,,,,,,,,,,,,,,,,,,,,,,,,,,,,,,,,,,,,,,,,,,,,,,,,,,,,,,,,,,,,,,,,,,,,,,,,,,,,,,,,,,,,,,,,,,,,,,,,,,,,,,,,,,,,,,,,,,,,,,,,,,,,,,,,
,,,,,,616e5ae706e970fe0aff99b6,62c5561c6aafd4167fd46dd3,2022-07-06_12h30.29.518,Colour_Asymmetry_Pilot,2022.1.3,Win32,59.9268892,62c50e9c1127f2cd403a315f,0,78,78,159,1,fourthree,,,,,,,,,,,,,,,,,,,,,,,,,,,,,,,,,,,,,,,,,,,,,,,,,,,,,,,,,,,,,,,,,,,,,,,,,,,,,,,,,,,,,,,,,,,,,,,,,,,,,,,,,,,,,,,,,,,,,,,,,,,,,,,,,,,,,,,,,,,,,,,,,,,,,,,,,,,,,
,,,,,,616e5ae706e970fe0aff99b6,62c5561c6aafd4167fd46dd3,2022-07-06_12h30.29.518,Colour_Asymmetry_Pilot,2022.1.3,Win32,59.9268892,62c50e9c1127f2cd403a315f,0,79,79,35,1,twofour,,,,,,,,,,,,,,,,,,,,,,,,,,,,,,,,,,,,,,,,,,,,,,,,,,,,,,,,,,,,,,,,,,,,,,,,,,,,,,,,,,,,,,,,,,,,,,,,,,,,,,,,,,,,,,,,,,,,,,,,,,,,,,,,,,,,,,,,,,,,,,,,,,,,,,,,,,,,,
,,,,,,616e5ae706e970fe0aff99b6,62c5561c6aafd4167fd46dd3,2022-07-06_12h30.29.518,Colour_Asymmetry_Pilot,2022.1.3,Win32,59.9268892,62c50e9c1127f2cd403a315f,0,80,80,63,1,fourthree,,,,,,,,,,,,,,,,,,,,,,,,,,,,,,,,,,,,,,,,,,,,,,,,,,,,,,,,,,,,,,,,,,,,,,,,,,,,,,,,,,,,,,,,,,,,,,,,,,,,,,,,,,,,,,,,,,,,,,,,,,,,,,,,,,,,,,,,,,,,,,,,,,,,,,,,,,,,,
,,,,,,616e5ae706e970fe0aff99b6,62c5561c6aafd4167fd46dd3,2022-07-06_12h30.29.518,Colour_Asymmetry_Pilot,2022.1.3,Win32,59.9268892,62c50e9c1127f2cd403a315f,0,81,81,13,1,threefour,,,,,,,,,,,,,,,,,,,,,,,,,,,,,,,,,,,,,,,,,,,,,,,,,,,,,,,,,,,,,,,,,,,,,,,,,,,,,,,,,,,,,,,,,,,,,,,,,,,,,,,,,,,,,,,,,,,,,,,,,,,,,,,,,,,,,,,,,,,,,,,,,,,,,,,,,,,,,
,,,,,,616e5ae706e970fe0aff99b6,62c5561c6aafd4167fd46dd3,2022-07-06_12h30.29.518,Colour_Asymmetry_Pilot,2022.1.3,Win32,59.9268892,62c50e9c1127f2cd403a315f,0,82,82,130,1,twoone,,,,,,,,,,,,,,,,,,,,,,,,,,,,,,,,,,,,,,,,,,,,,,,,,,,,,,,,,,,,,,,,,,,,,,,,,,,,,,,,,,,,,,,,,,,,,,,,,,,,,,,,,,,,,,,,,,,,,,,,,,,,,,,,,,,,,,,,,,,,,,,,,,,,,,,,,,,,,
,,,,,,616e5ae706e970fe0aff99b6,62c5561c6aafd4167fd46dd3,2022-07-06_12h30.29.518,Colour_Asymmetry_Pilot,2022.1.3,Win32,59.9268892,62c50e9c1127f2cd403a315f,0,83,83,136,1,onetwo,,,,,,,,,,,,,,,,,,,,,,,,,,,,,,,,,,,,,,,,,,,,,,,,,,,,,,,,,,,,,,,,,,,,,,,,,,,,,,,,,,,,,,,,,,,,,,,,,,,,,,,,,,,,,,,,,,,,,,,,,,,,,,,,,,,,,,,,,,,,,,,,,,,,,,,,,,,,,
,,,,,,616e5ae706e970fe0aff99b6,62c5561c6aafd4167fd46dd3,2022-07-06_12h30.29.518,Colour_Asymmetry_Pilot,2022.1.3,Win32,59.9268892,62c50e9c1127f2cd403a315f,0,84,84,1,1,onethree,,,,,,,,,,,,,,,,,,,,,,,,,,,,,,,,,,,,,,,,,,,,,,,,,,,,,,,,,,,,,,,,,,,,,,,,,,,,,,,,,,,,,,,,,,,,,,,,,,,,,,,,,,,,,,,,,,,,,,,,,,,,,,,,,,,,,,,,,,,,,,,,,,,,,,,,,,,,,
,,,,,,616e5ae706e970fe0aff99b6,62c5561c6aafd4167fd46dd3,2022-07-06_12h30.29.518,Colour_Asymmetry_Pilot,2022.1.3,Win32,59.9268892,62c50e9c1127f2cd403a315f,0,85,85,59,1,twofour,,,,,,,,,,,,,,,,,,,,,,,,,,,,,,,,,,,,,,,,,,,,,,,,,,,,,,,,,,,,,,,,,,,,,,,,,,,,,,,,,,,,,,,,,,,,,,,,,,,,,,,,,,,,,,,,,,,,,,,,,,,,,,,,,,,,,,,,,,,,,,,,,,,,,,,,,,,,,
,,,,,,616e5ae706e970fe0aff99b6,62c5561c6aafd4167fd46dd3,2022-07-06_12h30.29.518,Colour_Asymmetry_Pilot,2022.1.3,Win32,59.9268892,62c50e9c1127f2cd403a315f,0,86,86,79,1,fourthree,,,,,,,,,,,,,,,,,,,,,,,,,,,,,,,,,,,,,,,,,,,,,,,,,,,,,,,,,,,,,,,,,,,,,,,,,,,,,,,,,,,,,,,,,,,,,,,,,,,,,,,,,,,,,,,,,,,,,,,,,,,,,,,,,,,,,,,,,,,,,,,,,,,,,,,,,,,,,
,,,,,,616e5ae706e970fe0aff99b6,62c5561c6aafd4167fd46dd3,2022-07-06_12h30.29.518,Colour_Asymmetry_Pilot,2022.1.3,Win32,59.9268892,62c50e9c1127f2cd403a315f,0,87,87,129,1,onethree,,,,,,,,,,,,,,,,,,,,,,,,,,,,,,,,,,,,,,,,,,,,,,,,,,,,,,,,,,,,,,,,,,,,,,,,,,,,,,,,,,,,,,,,,,,,,,,,,,,,,,,,,,,,,,,,,,,,,,,,,,,,,,,,,,,,,,,,,,,,,,,,,,,,,,,,,,,,,
,,,,,,616e5ae706e970fe0aff99b6,62c5561c6aafd4167fd46dd3,2022-07-06_12h30.29.518,Colour_Asymmetry_Pilot,2022.1.3,Win32,59.9268892,62c50e9c1127f2cd403a315f,0,88,88,154,1,twoone,,,,,,,,,,,,,,,,,,,,,,,,,,,,,,,,,,,,,,,,,,,,,,,,,,,,,,,,,,,,,,,,,,,,,,,,,,,,,,,,,,,,,,,,,,,,,,,,,,,,,,,,,,,,,,,,,,,,,,,,,,,,,,,,,,,,,,,,,,,,,,,,,,,,,,,,,,,,,
,,,,,,616e5ae706e970fe0aff99b6,62c5561c6aafd4167fd46dd3,2022-07-06_12h30.29.518,Colour_Asymmetry_Pilot,2022.1.3,Win32,59.9268892,62c50e9c1127f2cd403a315f,0,89,89,106,1,twoone,,,,,,,,,,,,,,,,,,,,,,,,,,,,,,,,,,,,,,,,,,,,,,,,,,,,,,,,,,,,,,,,,,,,,,,,,,,,,,,,,,,,,,,,,,,,,,,,,,,,,,,,,,,,,,,,,,,,,,,,,,,,,,,,,,,,,,,,,,,,,,,,,,,,,,,,,,,,,
,,,,,,616e5ae706e970fe0aff99b6,62c5561c6aafd4167fd46dd3,2022-07-06_12h30.29.518,Colour_Asymmetry_Pilot,2022.1.3,Win32,59.9268892,62c50e9c1127f2cd403a315f,0,90,90,118,1,fourtwo,,,,,,,,,,,,,,,,,,,,,,,,,,,,,,,,,,,,,,,,,,,,,,,,,,,,,,,,,,,,,,,,,,,,,,,,,,,,,,,,,,,,,,,,,,,,,,,,,,,,,,,,,,,,,,,,,,,,,,,,,,,,,,,,,,,,,,,,,,,,,,,,,,,,,,,,,,,,,
,,,,,,616e5ae706e970fe0aff99b6,62c5561c6aafd4167fd46dd3,2022-07-06_12h30.29.518,Colour_Asymmetry_Pilot,2022.1.3,Win32,59.9268892,62c50e9c1127f2cd403a315f,0,91,91,38,1,fourtwo,,,,,,,,,,,,,,,,,,,,,,,,,,,,,,,,,,,,,,,,,,,,,,,,,,,,,,,,,,,,,,,,,,,,,,,,,,,,,,,,,,,,,,,,,,,,,,,,,,,,,,,,,,,,,,,,,,,,,,,,,,,,,,,,,,,,,,,,,,,,,,,,,,,,,,,,,,,,,
,,,,,,616e5ae706e970fe0aff99b6,62c5561c6aafd4167fd46dd3,2022-07-06_12h30.29.518,Colour_Asymmetry_Pilot,2022.1.3,Win32,59.9268892,62c50e9c1127f2cd403a315f,0,92,92,131,1,twofour,,,,,,,,,,,,,,,,,,,,,,,,,,,,,,,,,,,,,,,,,,,,,,,,,,,,,,,,,,,,,,,,,,,,,,,,,,,,,,,,,,,,,,,,,,,,,,,,,,,,,,,,,,,,,,,,,,,,,,,,,,,,,,,,,,,,,,,,,,,,,,,,,,,,,,,,,,,,,
,,,,,,616e5ae706e970fe0aff99b6,62c5561c6aafd4167fd46dd3,2022-07-06_12h30.29.518,Colour_Asymmetry_Pilot,2022.1.3,Win32,59.9268892,62c50e9c1127f2cd403a315f,0,93,93,150,1,fourtwo,,,,,,,,,,,,,,,,,,,,,,,,,,,,,,,,,,,,,,,,,,,,,,,,,,,,,,,,,,,,,,,,,,,,,,,,,,,,,,,,,,,,,,,,,,,,,,,,,,,,,,,,,,,,,,,,,,,,,,,,,,,,,,,,,,,,,,,,,,,,,,,,,,,,,,,,,,,,,
,,,,,,616e5ae706e970fe0aff99b6,62c5561c6aafd4167fd46dd3,2022-07-06_12h30.29.518,Colour_Asymmetry_Pilot,2022.1.3,Win32,59.9268892,62c50e9c1127f2cd403a315f,0,94,94,70,1,fourtwo,,,,,,,,,,,,,,,,,,,,,,,,,,,,,,,,,,,,,,,,,,,,,,,,,,,,,,,,,,,,,,,,,,,,,,,,,,,,,,,,,,,,,,,,,,,,,,,,,,,,,,,,,,,,,,,,,,,,,,,,,,,,,,,,,,,,,,,,,,,,,,,,,,,,,,,,,,,,,
,,,,,,616e5ae706e970fe0aff99b6,62c5561c6aafd4167fd46dd3,2022-07-06_12h30.29.518,Colour_Asymmetry_Pilot,2022.1.3,Win32,59.9268892,62c50e9c1127f2cd403a315f,0,95,95,46,1,fourtwo,,,,,,,,,,,,,,,,,,,,,,,,,,,,,,,,,,,,,,,,,,,,,,,,,,,,,,,,,,,,,,,,,,,,,,,,,,,,,,,,,,,,,,,,,,,,,,,,,,,,,,,,,,,,,,,,,,,,,,,,,,,,,,,,,,,,,,,,,,,,,,,,,,,,,,,,,,,,,
,,,,,,616e5ae706e970fe0aff99b6,62c5561c6aafd4167fd46dd3,2022-07-06_12h30.29.518,Colour_Asymmetry_Pilot,2022.1.3,Win32,59.9268892,62c50e9c1127f2cd403a315f,0,96,96,41,1,onethree,,,,,,,,,,,,,,,,,,,,,,,,,,,,,,,,,,,,,,,,,,,,,,,,,,,,,,,,,,,,,,,,,,,,,,,,,,,,,,,,,,,,,,,,,,,,,,,,,,,,,,,,,,,,,,,,,,,,,,,,,,,,,,,,,,,,,,,,,,,,,,,,,,,,,,,,,,,,,
,,,,,,616e5ae706e970fe0aff99b6,62c5561c6aafd4167fd46dd3,2022-07-06_12h30.29.518,Colour_Asymmetry_Pilot,2022.1.3,Win32,59.9268892,62c50e9c1127f2cd403a315f,0,97,97,0,1,onetwo,,,,,,,,,,,,,,,,,,,,,,,,,,,,,,,,,,,,,,,,,,,,,,,,,,,,,,,,,,,,,,,,,,,,,,,,,,,,,,,,,,,,,,,,,,,,,,,,,,,,,,,,,,,,,,,,,,,,,,,,,,,,,,,,,,,,,,,,,,,,,,,,,,,,,,,,,,,,,
,,,,,,616e5ae706e970fe0aff99b6,62c5561c6aafd4167fd46dd3,2022-07-06_12h30.29.518,Colour_Asymmetry_Pilot,2022.1.3,Win32,59.9268892,62c50e9c1127f2cd403a315f,0,98,98,39,1,fourthree,,,,,,,,,,,,,,,,,,,,,,,,,,,,,,,,,,,,,,,,,,,,,,,,,,,,,,,,,,,,,,,,,,,,,,,,,,,,,,,,,,,,,,,,,,,,,,,,,,,,,,,,,,,,,,,,,,,,,,,,,,,,,,,,,,,,,,,,,,,,,,,,,,,,,,,,,,,,,
,,,,,,616e5ae706e970fe0aff99b6,62c5561c6aafd4167fd46dd3,2022-07-06_12h30.29.518,Colour_Asymmetry_Pilot,2022.1.3,Win32,59.9268892,62c50e9c1127f2cd403a315f,0,99,99,116,1,threeone,,,,,,,,,,,,,,,,,,,,,,,,,,,,,,,,,,,,,,,,,,,,,,,,,,,,,,,,,,,,,,,,,,,,,,,,,,,,,,,,,,,,,,,,,,,,,,,,,,,,,,,,,,,,,,,,,,,,,,,,,,,,,,,,,,,,,,,,,,,,,,,,,,,,,,,,,,,,,
,,,,,,616e5ae706e970fe0aff99b6,62c5561c6aafd4167fd46dd3,2022-07-06_12h30.29.518,Colour_Asymmetry_Pilot,2022.1.3,Win32,59.9268892,62c50e9c1127f2cd403a315f,0,100,100,86,1,fourtwo,,,,,,,,,,,,,,,,,,,,,,,,,,,,,,,,,,,,,,,,,,,,,,,,,,,,,,,,,,,,,,,,,,,,,,,,,,,,,,,,,,,,,,,,,,,,,,,,,,,,,,,,,,,,,,,,,,,,,,,,,,,,,,,,,,,,,,,,,,,,,,,,,,,,,,,,,,,,,
,,,,,,616e5ae706e970fe0aff99b6,62c5561c6aafd4167fd46dd3,2022-07-06_12h30.29.518,Colour_Asymmetry_Pilot,2022.1.3,Win32,59.9268892,62c50e9c1127f2cd403a315f,0,101,101,117,1,threefour,,,,,,,,,,,,,,,,,,,,,,,,,,,,,,,,,,,,,,,,,,,,,,,,,,,,,,,,,,,,,,,,,,,,,,,,,,,,,,,,,,,,,,,,,,,,,,,,,,,,,,,,,,,,,,,,,,,,,,,,,,,,,,,,,,,,,,,,,,,,,,,,,,,,,,,,,,,,,
,,,,,,616e5ae706e970fe0aff99b6,62c5561c6aafd4167fd46dd3,2022-07-06_12h30.29.518,Colour_Asymmetry_Pilot,2022.1.3,Win32,59.9268892,62c50e9c1127f2cd403a315f,0,102,102,152,1,onetwo,,,,,,,,,,,,,,,,,,,,,,,,,,,,,,,,,,,,,,,,,,,,,,,,,,,,,,,,,,,,,,,,,,,,,,,,,,,,,,,,,,,,,,,,,,,,,,,,,,,,,,,,,,,,,,,,,,,,,,,,,,,,,,,,,,,,,,,,,,,,,,,,,,,,,,,,,,,,,
,,,,,,616e5ae706e970fe0aff99b6,62c5561c6aafd4167fd46dd3,2022-07-06_12h30.29.518,Colour_Asymmetry_Pilot,2022.1.3,Win32,59.9268892,62c50e9c1127f2cd403a315f,0,103,103,155,1,twofour,,,,,,,,,,,,,,,,,,,,,,,,,,,,,,,,,,,,,,,,,,,,,,,,,,,,,,,,,,,,,,,,,,,,,,,,,,,,,,,,,,,,,,,,,,,,,,,,,,,,,,,,,,,,,,,,,,,,,,,,,,,,,,,,,,,,,,,,,,,,,,,,,,,,,,,,,,,,,
,,,,,,616e5ae706e970fe0aff99b6,62c5561c6aafd4167fd46dd3,2022-07-06_12h30.29.518,Colour_Asymmetry_Pilot,2022.1.3,Win32,59.9268892,62c50e9c1127f2cd403a315f,0,104,104,107,1,twofour,,,,,,,,,,,,,,,,,,,,,,,,,,,,,,,,,,,,,,,,,,,,,,,,,,,,,,,,,,,,,,,,,,,,,,,,,,,,,,,,,,,,,,,,,,,,,,,,,,,,,,,,,,,,,,,,,,,,,,,,,,,,,,,,,,,,,,,,,,,,,,,,,,,,,,,,,,,,,
,,,,,,616e5ae706e970fe0aff99b6,62c5561c6aafd4167fd46dd3,2022-07-06_12h30.29.518,Colour_Asymmetry_Pilot,2022.1.3,Win32,59.9268892,62c50e9c1127f2cd403a315f,0,105,105,84,1,threeone,,,,,,,,,,,,,,,,,,,,,,,,,,,,,,,,,,,,,,,,,,,,,,,,,,,,,,,,,,,,,,,,,,,,,,,,,,,,,,,,,,,,,,,,,,,,,,,,,,,,,,,,,,,,,,,,,,,,,,,,,,,,,,,,,,,,,,,,,,,,,,,,,,,,,,,,,,,,,
,,,,,,616e5ae706e970fe0aff99b6,62c5561c6aafd4167fd46dd3,2022-07-06_12h30.29.518,Colour_Asymmetry_Pilot,2022.1.3,Win32,59.9268892,62c50e9c1127f2cd403a315f,0,106,106,19,1,twofour,,,,,,,,,,,,,,,,,,,,,,,,,,,,,,,,,,,,,,,,,,,,,,,,,,,,,,,,,,,,,,,,,,,,,,,,,,,,,,,,,,,,,,,,,,,,,,,,,,,,,,,,,,,,,,,,,,,,,,,,,,,,,,,,,,,,,,,,,,,,,,,,,,,,,,,,,,,,,
,,,,,,616e5ae706e970fe0aff99b6,62c5561c6aafd4167fd46dd3,2022-07-06_12h30.29.518,Colour_Asymmetry_Pilot,2022.1.3,Win32,59.9268892,62c50e9c1127f2cd403a315f,0,107,107,49,1,onethree,,,,,,,,,,,,,,,,,,,,,,,,,,,,,,,,,,,,,,,,,,,,,,,,,,,,,,,,,,,,,,,,,,,,,,,,,,,,,,,,,,,,,,,,,,,,,,,,,,,,,,,,,,,,,,,,,,,,,,,,,,,,,,,,,,,,,,,,,,,,,,,,,,,,,,,,,,,,,
,,,,,,616e5ae706e970fe0aff99b6,62c5561c6aafd4167fd46dd3,2022-07-06_12h30.29.518,Colour_Asymmetry_Pilot,2022.1.3,Win32,59.9268892,62c50e9c1127f2cd403a315f,0,108,108,135,1,fourthree,,,,,,,,,,,,,,,,,,,,,,,,,,,,,,,,,,,,,,,,,,,,,,,,,,,,,,,,,,,,,,,,,,,,,,,,,,,,,,,,,,,,,,,,,,,,,,,,,,,,,,,,,,,,,,,,,,,,,,,,,,,,,,,,,,,,,,,,,,,,,,,,,,,,,,,,,,,,,
,,,,,,616e5ae706e970fe0aff99b6,62c5561c6aafd4167fd46dd3,2022-07-06_12h30.29.518,Colour_Asymmetry_Pilot,2022.1.3,Win32,59.9268892,62c50e9c1127f2cd403a315f,0,109,109,57,1,onethree,,,,,,,,,,,,,,,,,,,,,,,,,,,,,,,,,,,,,,,,,,,,,,,,,,,,,,,,,,,,,,,,,,,,,,,,,,,,,,,,,,,,,,,,,,,,,,,,,,,,,,,,,,,,,,,,,,,,,,,,,,,,,,,,,,,,,,,,,,,,,,,,,,,,,,,,,,,,,
,,,,,,616e5ae706e970fe0aff99b6,62c5561c6aafd4167fd46dd3,2022-07-06_12h30.29.518,Colour_Asymmetry_Pilot,2022.1.3,Win32,59.9268892,62c50e9c1127f2cd403a315f,0,110,110,76,1,threeone,,,,,,,,,,,,,,,,,,,,,,,,,,,,,,,,,,,,,,,,,,,,,,,,,,,,,,,,,,,,,,,,,,,,,,,,,,,,,,,,,,,,,,,,,,,,,,,,,,,,,,,,,,,,,,,,,,,,,,,,,,,,,,,,,,,,,,,,,,,,,,,,,,,,,,,,,,,,,
,,,,,,616e5ae706e970fe0aff99b6,62c5561c6aafd4167fd46dd3,2022-07-06_12h30.29.518,Colour_Asymmetry_Pilot,2022.1.3,Win32,59.9268892,62c50e9c1127f2cd403a315f,0,111,111,143,1,fourthree,,,,,,,,,,,,,,,,,,,,,,,,,,,,,,,,,,,,,,,,,,,,,,,,,,,,,,,,,,,,,,,,,,,,,,,,,,,,,,,,,,,,,,,,,,,,,,,,,,,,,,,,,,,,,,,,,,,,,,,,,,,,,,,,,,,,,,,,,,,,,,,,,,,,,,,,,,,,,
,,,,,,616e5ae706e970fe0aff99b6,62c5561c6aafd4167fd46dd3,2022-07-06_12h30.29.518,Colour_Asymmetry_Pilot,2022.1.3,Win32,59.9268892,62c50e9c1127f2cd403a315f,0,112,112,114,1,twoone,,,,,,,,,,,,,,,,,,,,,,,,,,,,,,,,,,,,,,,,,,,,,,,,,,,,,,,,,,,,,,,,,,,,,,,,,,,,,,,,,,,,,,,,,,,,,,,,,,,,,,,,,,,,,,,,,,,,,,,,,,,,,,,,,,,,,,,,,,,,,,,,,,,,,,,,,,,,,
,,,,,,616e5ae706e970fe0aff99b6,62c5561c6aafd4167fd46dd3,2022-07-06_12h30.29.518,Colour_Asymmetry_Pilot,2022.1.3,Win32,59.9268892,62c50e9c1127f2cd403a315f,0,113,113,51,1,twofour,,,,,,,,,,,,,,,,,,,,,,,,,,,,,,,,,,,,,,,,,,,,,,,,,,,,,,,,,,,,,,,,,,,,,,,,,,,,,,,,,,,,,,,,,,,,,,,,,,,,,,,,,,,,,,,,,,,,,,,,,,,,,,,,,,,,,,,,,,,,,,,,,,,,,,,,,,,,,
,,,,,,616e5ae706e970fe0aff99b6,62c5561c6aafd4167fd46dd3,2022-07-06_12h30.29.518,Colour_Asymmetry_Pilot,2022.1.3,Win32,59.9268892,62c50e9c1127f2cd403a315f,0,114,114,72,1,onetwo,,,,,,,,,,,,,,,,,,,,,,,,,,,,,,,,,,,,,,,,,,,,,,,,,,,,,,,,,,,,,,,,,,,,,,,,,,,,,,,,,,,,,,,,,,,,,,,,,,,,,,,,,,,,,,,,,,,,,,,,,,,,,,,,,,,,,,,,,,,,,,,,,,,,,,,,,,,,,
,,,,,,616e5ae706e970fe0aff99b6,62c5561c6aafd4167fd46dd3,2022-07-06_12h30.29.518,Colour_Asymmetry_Pilot,2022.1.3,Win32,59.9268892,62c50e9c1127f2cd403a315f,0,115,115,62,1,fourtwo,,,,,,,,,,,,,,,,,,,,,,,,,,,,,,,,,,,,,,,,,,,,,,,,,,,,,,,,,,,,,,,,,,,,,,,,,,,,,,,,,,,,,,,,,,,,,,,,,,,,,,,,,,,,,,,,,,,,,,,,,,,,,,,,,,,,,,,,,,,,,,,,,,,,,,,,,,,,,
,,,,,,616e5ae706e970fe0aff99b6,62c5561c6aafd4167fd46dd3,2022-07-06_12h30.29.518,Colour_Asymmetry_Pilot,2022.1.3,Win32,59.9268892,62c50e9c1127f2cd403a315f,0,116,116,4,1,threeone,,,,,,,,,,,,,,,,,,,,,,,,,,,,,,,,,,,,,,,,,,,,,,,,,,,,,,,,,,,,,,,,,,,,,,,,,,,,,,,,,,,,,,,,,,,,,,,,,,,,,,,,,,,,,,,,,,,,,,,,,,,,,,,,,,,,,,,,,,,,,,,,,,,,,,,,,,,,,
,,,,,,616e5ae706e970fe0aff99b6,62c5561c6aafd4167fd46dd3,2022-07-06_12h30.29.518,Colour_Asymmetry_Pilot,2022.1.3,Win32,59.9268892,62c50e9c1127f2cd403a315f,0,117,117,85,1,threefour,,,,,,,,,,,,,,,,,,,,,,,,,,,,,,,,,,,,,,,,,,,,,,,,,,,,,,,,,,,,,,,,,,,,,,,,,,,,,,,,,,,,,,,,,,,,,,,,,,,,,,,,,,,,,,,,,,,,,,,,,,,,,,,,,,,,,,,,,,,,,,,,,,,,,,,,,,,,,
,,,,,,616e5ae706e970fe0aff99b6,62c5561c6aafd4167fd46dd3,2022-07-06_12h30.29.518,Colour_Asymmetry_Pilot,2022.1.3,Win32,59.9268892,62c50e9c1127f2cd403a315f,0,118,118,22,1,fourtwo,,,,,,,,,,,,,,,,,,,,,,,,,,,,,,,,,,,,,,,,,,,,,,,,,,,,,,,,,,,,,,,,,,,,,,,,,,,,,,,,,,,,,,,,,,,,,,,,,,,,,,,,,,,,,,,,,,,,,,,,,,,,,,,,,,,,,,,,,,,,,,,,,,,,,,,,,,,,,
,,,,,,616e5ae706e970fe0aff99b6,62c5561c6aafd4167fd46dd3,2022-07-06_12h30.29.518,Colour_Asymmetry_Pilot,2022.1.3,Win32,59.9268892,62c50e9c1127f2cd403a315f,0,119,119,12,1,threeone,,,,,,,,,,,,,,,,,,,,,,,,,,,,,,,,,,,,,,,,,,,,,,,,,,,,,,,,,,,,,,,,,,,,,,,,,,,,,,,,,,,,,,,,,,,,,,,,,,,,,,,,,,,,,,,,,,,,,,,,,,,,,,,,,,,,,,,,,,,,,,,,,,,,,,,,,,,,,
,,,,,,616e5ae706e970fe0aff99b6,62c5561c6aafd4167fd46dd3,2022-07-06_12h30.29.518,Colour_Asymmetry_Pilot,2022.1.3,Win32,59.9268892,62c50e9c1127f2cd403a315f,0,120,120,92,1,threeone,,,,,,,,,,,,,,,,,,,,,,,,,,,,,,,,,,,,,,,,,,,,,,,,,,,,,,,,,,,,,,,,,,,,,,,,,,,,,,,,,,,,,,,,,,,,,,,,,,,,,,,,,,,,,,,,,,,,,,,,,,,,,,,,,,,,,,,,,,,,,,,,,,,,,,,,,,,,,
,,,,,,616e5ae706e970fe0aff99b6,62c5561c6aafd4167fd46dd3,2022-07-06_12h30.29.518,Colour_Asymmetry_Pilot,2022.1.3,Win32,59.9268892,62c50e9c1127f2cd403a315f,0,121,121,124,1,threeone,,,,,,,,,,,,,,,,,,,,,,,,,,,,,,,,,,,,,,,,,,,,,,,,,,,,,,,,,,,,,,,,,,,,,,,,,,,,,,,,,,,,,,,,,,,,,,,,,,,,,,,,,,,,,,,,,,,,,,,,,,,,,,,,,,,,,,,,,,,,,,,,,,,,,,,,,,,,,
,,,,,,616e5ae706e970fe0aff99b6,62c5561c6aafd4167fd46dd3,2022-07-06_12h30.29.518,Colour_Asymmetry_Pilot,2022.1.3,Win32,59.9268892,62c50e9c1127f2cd403a315f,0,122,122,55,1,fourthree,,,,,,,,,,,,,,,,,,,,,,,,,,,,,,,,,,,,,,,,,,,,,,,,,,,,,,,,,,,,,,,,,,,,,,,,,,,,,,,,,,,,,,,,,,,,,,,,,,,,,,,,,,,,,,,,,,,,,,,,,,,,,,,,,,,,,,,,,,,,,,,,,,,,,,,,,,,,,
,,,,,,616e5ae706e970fe0aff99b6,62c5561c6aafd4167fd46dd3,2022-07-06_12h30.29.518,Colour_Asymmetry_Pilot,2022.1.3,Win32,59.9268892,62c50e9c1127f2cd403a315f,0,123,123,104,1,onetwo,,,,,,,,,,,,,,,,,,,,,,,,,,,,,,,,,,,,,,,,,,,,,,,,,,,,,,,,,,,,,,,,,,,,,,,,,,,,,,,,,,,,,,,,,,,,,,,,,,,,,,,,,,,,,,,,,,,,,,,,,,,,,,,,,,,,,,,,,,,,,,,,,,,,,,,,,,,,,
,,,,,,616e5ae706e970fe0aff99b6,62c5561c6aafd4167fd46dd3,2022-07-06_12h30.29.518,Colour_Asymmetry_Pilot,2022.1.3,Win32,59.9268892,62c50e9c1127f2cd403a315f,0,124,124,138,1,twoone,,,,,,,,,,,,,,,,,,,,,,,,,,,,,,,,,,,,,,,,,,,,,,,,,,,,,,,,,,,,,,,,,,,,,,,,,,,,,,,,,,,,,,,,,,,,,,,,,,,,,,,,,,,,,,,,,,,,,,,,,,,,,,,,,,,,,,,,,,,,,,,,,,,,,,,,,,,,,
,,,,,,616e5ae706e970fe0aff99b6,62c5561c6aafd4167fd46dd3,2022-07-06_12h30.29.518,Colour_Asymmetry_Pilot,2022.1.3,Win32,59.9268892,62c50e9c1127f2cd403a315f,0,125,125,64,1,onetwo,,,,,,,,,,,,,,,,,,,,,,,,,,,,,,,,,,,,,,,,,,,,,,,,,,,,,,,,,,,,,,,,,,,,,,,,,,,,,,,,,,,,,,,,,,,,,,,,,,,,,,,,,,,,,,,,,,,,,,,,,,,,,,,,,,,,,,,,,,,,,,,,,,,,,,,,,,,,,
,,,,,,616e5ae706e970fe0aff99b6,62c5561c6aafd4167fd46dd3,2022-07-06_12h30.29.518,Colour_Asymmetry_Pilot,2022.1.3,Win32,59.9268892,62c50e9c1127f2cd403a315f,0,126,126,60,1,threeone,,,,,,,,,,,,,,,,,,,,,,,,,,,,,,,,,,,,,,,,,,,,,,,,,,,,,,,,,,,,,,,,,,,,,,,,,,,,,,,,,,,,,,,,,,,,,,,,,,,,,,,,,,,,,,,,,,,,,,,,,,,,,,,,,,,,,,,,,,,,,,,,,,,,,,,,,,,,,
,,,,,,616e5ae706e970fe0aff99b6,62c5561c6aafd4167fd46dd3,2022-07-06_12h30.29.518,Colour_Asymmetry_Pilot,2022.1.3,Win32,59.9268892,62c50e9c1127f2cd403a315f,0,127,127,3,1,twofour,,,,,,,,,,,,,,,,,,,,,,,,,,,,,,,,,,,,,,,,,,,,,,,,,,,,,,,,,,,,,,,,,,,,,,,,,,,,,,,,,,,,,,,,,,,,,,,,,,,,,,,,,,,,,,,,,,,,,,,,,,,,,,,,,,,,,,,,,,,,,,,,,,,,,,,,,,,,,
,,,,,,616e5ae706e970fe0aff99b6,62c5561c6aafd4167fd46dd3,2022-07-06_12h30.29.518,Colour_Asymmetry_Pilot,2022.1.3,Win32,59.9268892,62c50e9c1127f2cd403a315f,0,128,128,113,1,onethree,,,,,,,,,,,,,,,,,,,,,,,,,,,,,,,,,,,,,,,,,,,,,,,,,,,,,,,,,,,,,,,,,,,,,,,,,,,,,,,,,,,,,,,,,,,,,,,,,,,,,,,,,,,,,,,,,,,,,,,,,,,,,,,,,,,,,,,,,,,,,,,,,,,,,,,,,,,,,
,,,,,,616e5ae706e970fe0aff99b6,62c5561c6aafd4167fd46dd3,2022-07-06_12h30.29.518,Colour_Asymmetry_Pilot,2022.1.3,Win32,59.9268892,62c50e9c1127f2cd403a315f,0,129,129,27,1,twofour,,,,,,,,,,,,,,,,,,,,,,,,,,,,,,,,,,,,,,,,,,,,,,,,,,,,,,,,,,,,,,,,,,,,,,,,,,,,,,,,,,,,,,,,,,,,,,,,,,,,,,,,,,,,,,,,,,,,,,,,,,,,,,,,,,,,,,,,,,,,,,,,,,,,,,,,,,,,,
,,,,,,616e5ae706e970fe0aff99b6,62c5561c6aafd4167fd46dd3,2022-07-06_12h30.29.518,Colour_Asymmetry_Pilot,2022.1.3,Win32,59.9268892,62c50e9c1127f2cd403a315f,0,130,130,90,1,twoone,,,,,,,,,,,,,,,,,,,,,,,,,,,,,,,,,,,,,,,,,,,,,,,,,,,,,,,,,,,,,,,,,,,,,,,,,,,,,,,,,,,,,,,,,,,,,,,,,,,,,,,,,,,,,,,,,,,,,,,,,,,,,,,,,,,,,,,,,,,,,,,,,,,,,,,,,,,,,
,,,,,,616e5ae706e970fe0aff99b6,62c5561c6aafd4167fd46dd3,2022-07-06_12h30.29.518,Colour_Asymmetry_Pilot,2022.1.3,Win32,59.9268892,62c50e9c1127f2cd403a315f,0,131,131,75,1,twofour,,,,,,,,,,,,,,,,,,,,,,,,,,,,,,,,,,,,,,,,,,,,,,,,,,,,,,,,,,,,,,,,,,,,,,,,,,,,,,,,,,,,,,,,,,,,,,,,,,,,,,,,,,,,,,,,,,,,,,,,,,,,,,,,,,,,,,,,,,,,,,,,,,,,,,,,,,,,,
,,,,,,616e5ae706e970fe0aff99b6,62c5561c6aafd4167fd46dd3,2022-07-06_12h30.29.518,Colour_Asymmetry_Pilot,2022.1.3,Win32,59.9268892,62c50e9c1127f2cd403a315f,0,132,132,128,1,onetwo,,,,,,,,,,,,,,,,,,,,,,,,,,,,,,,,,,,,,,,,,,,,,,,,,,,,,,,,,,,,,,,,,,,,,,,,,,,,,,,,,,,,,,,,,,,,,,,,,,,,,,,,,,,,,,,,,,,,,,,,,,,,,,,,,,,,,,,,,,,,,,,,,,,,,,,,,,,,,
,,,,,,616e5ae706e970fe0aff99b6,62c5561c6aafd4167fd46dd3,2022-07-06_12h30.29.518,Colour_Asymmetry_Pilot,2022.1.3,Win32,59.9268892,62c50e9c1127f2cd403a315f,0,133,133,45,1,threefour,,,,,,,,,,,,,,,,,,,,,,,,,,,,,,,,,,,,,,,,,,,,,,,,,,,,,,,,,,,,,,,,,,,,,,,,,,,,,,,,,,,,,,,,,,,,,,,,,,,,,,,,,,,,,,,,,,,,,,,,,,,,,,,,,,,,,,,,,,,,,,,,,,,,,,,,,,,,,
,,,,,,616e5ae706e970fe0aff99b6,62c5561c6aafd4167fd46dd3,2022-07-06_12h30.29.518,Colour_Asymmetry_Pilot,2022.1.3,Win32,59.9268892,62c50e9c1127f2cd403a315f,0,134,134,151,1,fourthree,,,,,,,,,,,,,,,,,,,,,,,,,,,,,,,,,,,,,,,,,,,,,,,,,,,,,,,,,,,,,,,,,,,,,,,,,,,,,,,,,,,,,,,,,,,,,,,,,,,,,,,,,,,,,,,,,,,,,,,,,,,,,,,,,,,,,,,,,,,,,,,,,,,,,,,,,,,,,
,,,,,,616e5ae706e970fe0aff99b6,62c5561c6aafd4167fd46dd3,2022-07-06_12h30.29.518,Colour_Asymmetry_Pilot,2022.1.3,Win32,59.9268892,62c50e9c1127f2cd403a315f,0,135,135,48,1,onetwo,,,,,,,,,,,,,,,,,,,,,,,,,,,,,,,,,,,,,,,,,,,,,,,,,,,,,,,,,,,,,,,,,,,,,,,,,,,,,,,,,,,,,,,,,,,,,,,,,,,,,,,,,,,,,,,,,,,,,,,,,,,,,,,,,,,,,,,,,,,,,,,,,,,,,,,,,,,,,
,,,,,,616e5ae706e970fe0aff99b6,62c5561c6aafd4167fd46dd3,2022-07-06_12h30.29.518,Colour_Asymmetry_Pilot,2022.1.3,Win32,59.9268892,62c50e9c1127f2cd403a315f,0,136,136,127,1,fourthree,,,,,,,,,,,,,,,,,,,,,,,,,,,,,,,,,,,,,,,,,,,,,,,,,,,,,,,,,,,,,,,,,,,,,,,,,,,,,,,,,,,,,,,,,,,,,,,,,,,,,,,,,,,,,,,,,,,,,,,,,,,,,,,,,,,,,,,,,,,,,,,,,,,,,,,,,,,,,
,,,,,,616e5ae706e970fe0aff99b6,62c5561c6aafd4167fd46dd3,2022-07-06_12h30.29.518,Colour_Asymmetry_Pilot,2022.1.3,Win32,59.9268892,62c50e9c1127f2cd403a315f,0,137,137,158,1,fourtwo,,,,,,,,,,,,,,,,,,,,,,,,,,,,,,,,,,,,,,,,,,,,,,,,,,,,,,,,,,,,,,,,,,,,,,,,,,,,,,,,,,,,,,,,,,,,,,,,,,,,,,,,,,,,,,,,,,,,,,,,,,,,,,,,,,,,,,,,,,,,,,,,,,,,,,,,,,,,,
,,,,,,616e5ae706e970fe0aff99b6,62c5561c6aafd4167fd46dd3,2022-07-06_12h30.29.518,Colour_Asymmetry_Pilot,2022.1.3,Win32,59.9268892,62c50e9c1127f2cd403a315f,0,138,138,83,1,twofour,,,,,,,,,,,,,,,,,,,,,,,,,,,,,,,,,,,,,,,,,,,,,,,,,,,,,,,,,,,,,,,,,,,,,,,,,,,,,,,,,,,,,,,,,,,,,,,,,,,,,,,,,,,,,,,,,,,,,,,,,,,,,,,,,,,,,,,,,,,,,,,,,,,,,,,,,,,,,
,,,,,,616e5ae706e970fe0aff99b6,62c5561c6aafd4167fd46dd3,2022-07-06_12h30.29.518,Colour_Asymmetry_Pilot,2022.1.3,Win32,59.9268892,62c50e9c1127f2cd403a315f,0,139,139,97,1,onethree,,,,,,,,,,,,,,,,,,,,,,,,,,,,,,,,,,,,,,,,,,,,,,,,,,,,,,,,,,,,,,,,,,,,,,,,,,,,,,,,,,,,,,,,,,,,,,,,,,,,,,,,,,,,,,,,,,,,,,,,,,,,,,,,,,,,,,,,,,,,,,,,,,,,,,,,,,,,,
,,,,,,616e5ae706e970fe0aff99b6,62c5561c6aafd4167fd46dd3,2022-07-06_12h30.29.518,Colour_Asymmetry_Pilot,2022.1.3,Win32,59.9268892,62c50e9c1127f2cd403a315f,0,140,140,10,1,twoone,,,,,,,,,,,,,,,,,,,,,,,,,,,,,,,,,,,,,,,,,,,,,,,,,,,,,,,,,,,,,,,,,,,,,,,,,,,,,,,,,,,,,,,,,,,,,,,,,,,,,,,,,,,,,,,,,,,,,,,,,,,,,,,,,,,,,,,,,,,,,,,,,,,,,,,,,,,,,
,,,,,,616e5ae706e970fe0aff99b6,62c5561c6aafd4167fd46dd3,2022-07-06_12h30.29.518,Colour_Asymmetry_Pilot,2022.1.3,Win32,59.9268892,62c50e9c1127f2cd403a315f,0,141,141,73,1,onethree,,,,,,,,,,,,,,,,,,,,,,,,,,,,,,,,,,,,,,,,,,,,,,,,,,,,,,,,,,,,,,,,,,,,,,,,,,,,,,,,,,,,,,,,,,,,,,,,,,,,,,,,,,,,,,,,,,,,,,,,,,,,,,,,,,,,,,,,,,,,,,,,,,,,,,,,,,,,,
,,,,,,616e5ae706e970fe0aff99b6,62c5561c6aafd4167fd46dd3,2022-07-06_12h30.29.518,Colour_Asymmetry_Pilot,2022.1.3,Win32,59.9268892,62c50e9c1127f2cd403a315f,0,142,142,29,1,threefour,,,,,,,,,,,,,,,,,,,,,,,,,,,,,,,,,,,,,,,,,,,,,,,,,,,,,,,,,,,,,,,,,,,,,,,,,,,,,,,,,,,,,,,,,,,,,,,,,,,,,,,,,,,,,,,,,,,,,,,,,,,,,,,,,,,,,,,,,,,,,,,,,,,,,,,,,,,,,
,,,,,,616e5ae706e970fe0aff99b6,62c5561c6aafd4167fd46dd3,2022-07-06_12h30.29.518,Colour_Asymmetry_Pilot,2022.1.3,Win32,59.9268892,62c50e9c1127f2cd403a315f,0,143,143,93,1,threefour,,,,,,,,,,,,,,,,,,,,,,,,,,,,,,,,,,,,,,,,,,,,,,,,,,,,,,,,,,,,,,,,,,,,,,,,,,,,,,,,,,,,,,,,,,,,,,,,,,,,,,,,,,,,,,,,,,,,,,,,,,,,,,,,,,,,,,,,,,,,,,,,,,,,,,,,,,,,,
,,,,,,616e5ae706e970fe0aff99b6,62c5561c6aafd4167fd46dd3,2022-07-06_12h30.29.518,Colour_Asymmetry_Pilot,2022.1.3,Win32,59.9268892,62c50e9c1127f2cd403a315f,0,144,144,36,1,threeone,,,,,,,,,,,,,,,,,,,,,,,,,,,,,,,,,,,,,,,,,,,,,,,,,,,,,,,,,,,,,,,,,,,,,,,,,,,,,,,,,,,,,,,,,,,,,,,,,,,,,,,,,,,,,,,,,,,,,,,,,,,,,,,,,,,,,,,,,,,,,,,,,,,,,,,,,,,,,
,,,,,,616e5ae706e970fe0aff99b6,62c5561c6aafd4167fd46dd3,2022-07-06_12h30.29.518,Colour_Asymmetry_Pilot,2022.1.3,Win32,59.9268892,62c50e9c1127f2cd403a315f,0,145,145,119,1,fourthree,,,,,,,,,,,,,,,,,,,,,,,,,,,,,,,,,,,,,,,,,,,,,,,,,,,,,,,,,,,,,,,,,,,,,,,,,,,,,,,,,,,,,,,,,,,,,,,,,,,,,,,,,,,,,,,,,,,,,,,,,,,,,,,,,,,,,,,,,,,,,,,,,,,,,,,,,,,,,
,,,,,,616e5ae706e970fe0aff99b6,62c5561c6aafd4167fd46dd3,2022-07-06_12h30.29.518,Colour_Asymmetry_Pilot,2022.1.3,Win32,59.9268892,62c50e9c1127f2cd403a315f,0,146,146,42,1,twoone,,,,,,,,,,,,,,,,,,,,,,,,,,,,,,,,,,,,,,,,,,,,,,,,,,,,,,,,,,,,,,,,,,,,,,,,,,,,,,,,,,,,,,,,,,,,,,,,,,,,,,,,,,,,,,,,,,,,,,,,,,,,,,,,,,,,,,,,,,,,,,,,,,,,,,,,,,,,,
,,,,,,616e5ae706e970fe0aff99b6,62c5561c6aafd4167fd46dd3,2022-07-06_12h30.29.518,Colour_Asymmetry_Pilot,2022.1.3,Win32,59.9268892,62c50e9c1127f2cd403a315f,0,147,147,6,1,fourtwo,,,,,,,,,,,,,,,,,,,,,,,,,,,,,,,,,,,,,,,,,,,,,,,,,,,,,,,,,,,,,,,,,,,,,,,,,,,,,,,,,,,,,,,,,,,,,,,,,,,,,,,,,,,,,,,,,,,,,,,,,,,,,,,,,,,,,,,,,,,,,,,,,,,,,,,,,,,,,
,,,,,,616e5ae706e970fe0aff99b6,62c5561c6aafd4167fd46dd3,2022-07-06_12h30.29.518,Colour_Asymmetry_Pilot,2022.1.3,Win32,59.9268892,62c50e9c1127f2cd403a315f,0,148,148,87,1,fourthree,,,,,,,,,,,,,,,,,,,,,,,,,,,,,,,,,,,,,,,,,,,,,,,,,,,,,,,,,,,,,,,,,,,,,,,,,,,,,,,,,,,,,,,,,,,,,,,,,,,,,,,,,,,,,,,,,,,,,,,,,,,,,,,,,,,,,,,,,,,,,,,,,,,,,,,,,,,,,
,,,,,,616e5ae706e970fe0aff99b6,62c5561c6aafd4167fd46dd3,2022-07-06_12h30.29.518,Colour_Asymmetry_Pilot,2022.1.3,Win32,59.9268892,62c50e9c1127f2cd403a315f,0,149,149,61,1,threefour,,,,,,,,,,,,,,,,,,,,,,,,,,,,,,,,,,,,,,,,,,,,,,,,,,,,,,,,,,,,,,,,,,,,,,,,,,,,,,,,,,,,,,,,,,,,,,,,,,,,,,,,,,,,,,,,,,,,,,,,,,,,,,,,,,,,,,,,,,,,,,,,,,,,,,,,,,,,,
,,,,,,616e5ae706e970fe0aff99b6,62c5561c6aafd4167fd46dd3,2022-07-06_12h30.29.518,Colour_Asymmetry_Pilot,2022.1.3,Win32,59.9268892,62c50e9c1127f2cd403a315f,0,150,150,108,1,threeone,,,,,,,,,,,,,,,,,,,,,,,,,,,,,,,,,,,,,,,,,,,,,,,,,,,,,,,,,,,,,,,,,,,,,,,,,,,,,,,,,,,,,,,,,,,,,,,,,,,,,,,,,,,,,,,,,,,,,,,,,,,,,,,,,,,,,,,,,,,,,,,,,,,,,,,,,,,,,
,,,,,,616e5ae706e970fe0aff99b6,62c5561c6aafd4167fd46dd3,2022-07-06_12h30.29.518,Colour_Asymmetry_Pilot,2022.1.3,Win32,59.9268892,62c50e9c1127f2cd403a315f,0,151,151,120,1,onetwo,,,,,,,,,,,,,,,,,,,,,,,,,,,,,,,,,,,,,,,,,,,,,,,,,,,,,,,,,,,,,,,,,,,,,,,,,,,,,,,,,,,,,,,,,,,,,,,,,,,,,,,,,,,,,,,,,,,,,,,,,,,,,,,,,,,,,,,,,,,,,,,,,,,,,,,,,,,,,
,,,,,,616e5ae706e970fe0aff99b6,62c5561c6aafd4167fd46dd3,2022-07-06_12h30.29.518,Colour_Asymmetry_Pilot,2022.1.3,Win32,59.9268892,62c50e9c1127f2cd403a315f,0,152,152,144,1,onetwo,,,,,,,,,,,,,,,,,,,,,,,,,,,,,,,,,,,,,,,,,,,,,,,,,,,,,,,,,,,,,,,,,,,,,,,,,,,,,,,,,,,,,,,,,,,,,,,,,,,,,,,,,,,,,,,,,,,,,,,,,,,,,,,,,,,,,,,,,,,,,,,,,,,,,,,,,,,,,
,,,,,,616e5ae706e970fe0aff99b6,62c5561c6aafd4167fd46dd3,2022-07-06_12h30.29.518,Colour_Asymmetry_Pilot,2022.1.3,Win32,59.9268892,62c50e9c1127f2cd403a315f,0,153,153,88,1,onetwo,,,,,,,,,,,,,,,,,,,,,,,,,,,,,,,,,,,,,,,,,,,,,,,,,,,,,,,,,,,,,,,,,,,,,,,,,,,,,,,,,,,,,,,,,,,,,,,,,,,,,,,,,,,,,,,,,,,,,,,,,,,,,,,,,,,,,,,,,,,,,,,,,,,,,,,,,,,,,
,,,,,,616e5ae706e970fe0aff99b6,62c5561c6aafd4167fd46dd3,2022-07-06_12h30.29.518,Colour_Asymmetry_Pilot,2022.1.3,Win32,59.9268892,62c50e9c1127f2cd403a315f,0,154,154,37,1,threefour,,,,,,,,,,,,,,,,,,,,,,,,,,,,,,,,,,,,,,,,,,,,,,,,,,,,,,,,,,,,,,,,,,,,,,,,,,,,,,,,,,,,,,,,,,,,,,,,,,,,,,,,,,,,,,,,,,,,,,,,,,,,,,,,,,,,,,,,,,,,,,,,,,,,,,,,,,,,,
,,,,,,616e5ae706e970fe0aff99b6,62c5561c6aafd4167fd46dd3,2022-07-06_12h30.29.518,Colour_Asymmetry_Pilot,2022.1.3,Win32,59.9268892,62c50e9c1127f2cd403a315f,0,155,155,148,1,threeone,,,,,,,,,,,,,,,,,,,,,,,,,,,,,,,,,,,,,,,,,,,,,,,,,,,,,,,,,,,,,,,,,,,,,,,,,,,,,,,,,,,,,,,,,,,,,,,,,,,,,,,,,,,,,,,,,,,,,,,,,,,,,,,,,,,,,,,,,,,,,,,,,,,,,,,,,,,,,
,,,,,,616e5ae706e970fe0aff99b6,62c5561c6aafd4167fd46dd3,2022-07-06_12h30.29.518,Colour_Asymmetry_Pilot,2022.1.3,Win32,59.9268892,62c50e9c1127f2cd403a315f,0,156,156,54,1,fourtwo,,,,,,,,,,,,,,,,,,,,,,,,,,,,,,,,,,,,,,,,,,,,,,,,,,,,,,,,,,,,,,,,,,,,,,,,,,,,,,,,,,,,,,,,,,,,,,,,,,,,,,,,,,,,,,,,,,,,,,,,,,,,,,,,,,,,,,,,,,,,,,,,,,,,,,,,,,,,,
,,,,,,616e5ae706e970fe0aff99b6,62c5561c6aafd4167fd46dd3,2022-07-06_12h30.29.518,Colour_Asymmetry_Pilot,2022.1.3,Win32,59.9268892,62c50e9c1127f2cd403a315f,0,157,157,96,1,onetwo,,,,,,,,,,,,,,,,,,,,,,,,,,,,,,,,,,,,,,,,,,,,,,,,,,,,,,,,,,,,,,,,,,,,,,,,,,,,,,,,,,,,,,,,,,,,,,,,,,,,,,,,,,,,,,,,,,,,,,,,,,,,,,,,,,,,,,,,,,,,,,,,,,,,,,,,,,,,,
,,,,,,616e5ae706e970fe0aff99b6,62c5561c6aafd4167fd46dd3,2022-07-06_12h30.29.518,Colour_Asymmetry_Pilot,2022.1.3,Win32,59.9268892,62c50e9c1127f2cd403a315f,0,158,158,157,1,threefour,,,,,,,,,,,,,,,,,,,,,,,,,,,,,,,,,,,,,,,,,,,,,,,,,,,,,,,,,,,,,,,,,,,,,,,,,,,,,,,,,,,,,,,,,,,,,,,,,,,,,,,,,,,,,,,,,,,,,,,,,,,,,,,,,,,,,,,,,,,,,,,,,,,,,,,,,,,,,
,,,,,,616e5ae706e970fe0aff99b6,62c5561c6aafd4167fd46dd3,2022-07-06_12h30.29.518,Colour_Asymmetry_Pilot,2022.1.3,Win32,59.9268892,62c50e9c1127f2cd403a315f,0,159,159,67,1,twofour,,,,,,,,,,,,,,,,,,,,,,,,,,,,,,,,,,,,,,,,,,,,,,,,,,,,,,,,,,,,,,,,,,,,,,,,,,,,,,,,,,,,,,,,,,,,,,,,,,,,,,,,,,,,,,,,,,,,,,,,,,,,,,,,,,,,,,,,,,,,,,,,,,,,,,,,,,,,,
,,,,,,616e5ae706e970fe0aff99b6,62c5561c6aafd4167fd46dd3,2022-07-06_12h30.29.518,Colour_Asymmetry_Pilot,2022.1.3,Win32,59.9268892,62c50e9c1127f2cd403a315f,0,160,160,111,1,fourthree,,,,,,,,,,,,,,,,,,,,,,,,,,,,,,,,,,,,,,,,,,,,,,,,,,,,,,,,,,,,,,,,,,,,,,,,,,,,,,,,,,,,,,,,,,,,,,,,,,,,,,,,,,,,,,,,,,,,,,,,,,,,,,,,,,,,,,,,,,,,,,,,,,,,,,,,,,,,,
,,,,,,616e5ae706e970fe0aff99b6,62c5561c6aafd4167fd46dd3,2022-07-06_12h30.29.518,Colour_Asymmetry_Pilot,2022.1.3,Win32,59.9268892,62c50e9c1127f2cd403a315f,0,161,161,34,1,twoone,,,,,,,,,,,,,,,,,,,,,,,,,,,,,,,,,,,,,,,,,,,,,,,,,,,,,,,,,,,,,,,,,,,,,,,,,,,,,,,,,,,,,,,,,,,,,,,,,,,,,,,,,,,,,,,,,,,,,,,,,,,,,,,,,,,,,,,,,,,,,,,,,,,,,,,,,,,,,
,,,,,,616e5ae706e970fe0aff99b6,62c5561c6aafd4167fd46dd3,2022-07-06_12h30.29.518,Colour_Asymmetry_Pilot,2022.1.3,Win32,59.9268892,62c50e9c1127f2cd403a315f,,,,,,,space,5.6445,space,2.874,space,31.0567,space,7.3946,space,0.7051,space,15.1214,"[0.34099999999999997,0.12939999999999996,-0.9766]",twoone,"[-0.4746,-0.0354000000000001,0.5449999999999999]",-1,11.366,-70,-106,1,0,0,response5disk_5,0,0,1,0,0,rectangle_8,50,133,1,0,0,response1disk_7,7,4,-14,-9,1,0,0,rectangle_4,0,0,0,0,1,,,,,,,,,,,,,,,,,,,,,,,,,,,,,,,,,,,,,,,,,,,,,,,,,,,,,,,,,,,,,,,,,,,,,,,,,,,,,,,,,,,,,,,,,,,,,,,,,,,,,,,,,,,,,
,,,,,,616e5ae706e970fe0aff99b6,62c5561c6aafd4167fd46dd3,2022-07-06_12h30.29.518,Colour_Asymmetry_Pilot,2022.1.3,Win32,59.9268892,62c50e9c1127f2cd403a315f,,,,,,,,,,,,,,,,,,,"[0.7646000000000002,0.07440000000000002,0.2704]",onetwo,"[0.37240000000000006,-0.050999999999999934,-0.5216]",1,3.8372,52,-129,1,0,0,response3disk_5,4,6,1,0,0,rectangle_8,4,6,1,0,0,,,4,4,6,1,0,0,,1,0,1,0,1,,,,,,,,,,,,,,,,,,,,,,,,,,,,,,,,,,,,,,,,,,,,,,,,,,,,,,,,,,,,,,,,,,,,,,,,,,,,,,,,,,,,,,,,,,,,,,,,,,,,,,,,,,,,,
,,,,,,616e5ae706e970fe0aff99b6,62c5561c6aafd4167fd46dd3,2022-07-06_12h30.29.518,Colour_Asymmetry_Pilot,2022.1.3,Win32,59.9268892,62c50e9c1127f2cd403a315f,,,,,,,,,,,,,,,,,,,"[0.40379999999999994,0.09000000000000008,0.44300000000000006]",twoone,"[0.04299999999999993,0.16060000000000008,-0.6628000000000001]",-2,3.5202,-126,-84,1,0,0,response5disk_5,9,-8,1,0,0,rectangle_8,9,-8,1,0,0,,,4,9,-8,1,0,0,,2,0,2,0,1,,,,,,,,,,,,,,,,,,,,,,,,,,,,,,,,,,,,,,,,,,,,,,,,,,,,,,,,,,,,,,,,,,,,,,,,,,,,,,,,,,,,,,,,,,,,,,,,,,,,,,,,,,,,,
,,,,,,616e5ae706e970fe0aff99b6,62c5561c6aafd4167fd46dd3,2022-07-06_12h30.29.518,Colour_Asymmetry_Pilot,2022.1.3,Win32,59.9268892,62c50e9c1127f2cd403a315f,,,,,,,,,,,,,,,,,,,"[0.9763999999999999,-0.1137999999999999,-0.6314]",threefour,"[0.9372,0.20779999999999998,0.2704]",2,1.3179,108,-55,1,0,0,response3disk_5,-19,3,1,0,0,rectangle_8,-19,3,1,0,0,,,4,-19,3,1,0,0,,3,0,3,0,1,,,,,,,,,,,,,,,,,,,,,,,,,,,,,,,,,,,,,,,,,,,,,,,,,,,,,,,,,,,,,,,,,,,,,,,,,,,,,,,,,,,,,,,,,,,,,,,,,,,,,,,,,,,,,
,,,,,,616e5ae706e970fe0aff99b6,62c5561c6aafd4167fd46dd3,2022-07-06_12h30.29.518,Colour_Asymmetry_Pilot,2022.1.3,Win32,59.9268892,62c50e9c1127f2cd403a315f,,,,,,,,,,,,,,,,,,,"[0.9763999999999999,-0.1137999999999999,-0.6314]",threefour,"[0.22340000000000004,-0.9296,-0.7884]",2,3.1865,116,-47,1,0,0,response3disk_5,19,6,1,0,0,rectangle_8,50,113,1,0,0,response1disk_7,7,4,-17,8,1,0,0,rectangle_4,4,0,4,0,1,,,,,,,,,,,,,,,,,,,,,,,,,,,,,,,,,,,,,,,,,,,,,,,,,,,,,,,,,,,,,,,,,,,,,,,,,,,,,,,,,,,,,,,,,,,,,,,,,,,,,,,,,,,,,
,,,,,,616e5ae706e970fe0aff99b6,62c5561c6aafd4167fd46dd3,2022-07-06_12h30.29.518,Colour_Asymmetry_Pilot,2022.1.3,Win32,59.9268892,62c50e9c1127f2cd403a315f,,,,,,,,,,,,,,,,,,,"[-0.050999999999999934,-0.6706000000000001,-0.804]",twofour,"[0.12939999999999996,-0.2864,0.3253999999999999]",1,1.4849,55,-105,1,0,0,response3disk_5,-29,12,1,0,0,rectangle_8,-29,12,1,0,0,,,4,-29,12,1,0,0,,5,0,5,0,1,,,,,,,,,,,,,,,,,,,,,,,,,,,,,,,,,,,,,,,,,,,,,,,,,,,,,,,,,,,,,,,,,,,,,,,,,,,,,,,,,,,,,,,,,,,,,,,,,,,,,,,,,,,,,
,,,,,,616e5ae706e970fe0aff99b6,62c5561c6aafd4167fd46dd3,2022-07-06_12h30.29.518,Colour_Asymmetry_Pilot,2022.1.3,Win32,59.9268892,62c50e9c1127f2cd403a315f,,,,,,,,,,,,,,,,,,,"[-0.17659999999999998,-0.2864,-0.8354]",onethree,"[-0.050999999999999934,-0.6706000000000001,-0.804]",-1,3.5535,-90,-114,1,0,0,response5disk_5,8,15,1,0,0,rectangle_8,8,15,1,0,0,,,4,8,15,1,0,0,,6,0,6,0,1,,,,,,,,,,,,,,,,,,,,,,,,,,,,,,,,,,,,,,,,,,,,,,,,,,,,,,,,,,,,,,,,,,,,,,,,,,,,,,,,,,,,,,,,,,,,,,,,,,,,,,,,,,,,,
,,,,,,616e5ae706e970fe0aff99b6,62c5561c6aafd4167fd46dd3,2022-07-06_12h30.29.518,Colour_Asymmetry_Pilot,2022.1.3,Win32,59.9268892,62c50e9c1127f2cd403a315f,,,,,,,,,,,,,,,,,,,,twofour,,-3,3.2703,,,,,,,,,,,,,,,,,,,,,,,,,,,,,,,,space,3.3069,"[-0.06680000000000008,-0.45100000000000007,-0.906]","[-0.4276,0.0038000000000000256,-0.3256]",-108,47,1,0,0,response7disk,-25,8,1,0,0,rectangle,-25,8,1,0,0,,1,0.0007,0,-25,8,1,0,0,0,0,0,89,1,8,second,,,,,,,,,,,,,,,,,,,,,,,,,,,,,,,,,,,,,,,,,,,,,,,,,,,,,,,,,,,,,,,,,,,,,,,,
,,,,,,616e5ae706e970fe0aff99b6,62c5561c6aafd4167fd46dd3,2022-07-06_12h30.29.518,Colour_Asymmetry_Pilot,2022.1.3,Win32,59.9268892,62c50e9c1127f2cd403a315f,,,,,,,,,,,,,,,,,,,,onethree,,4,0.9842,,,,,,,,,,,,,,,,,,,,,,,,,,,,,,,,,,"[0.7802,-0.23140000000000005,-0.20799999999999996]","[0.7802,-0.23140000000000005,-0.20799999999999996]",55,134,1,0,0,response1disk,-23,6,1,0,0,rectangle,-23,6,1,0,0,,2,0.0004,0,-23,6,1,0,0,0,1,1,108,1,27,second,,,,,,,,,,,,,,,,,,,,,,,,,,,,,,,,,,,,,,,,,,,,,,,,,,,,,,,,,,,,,,,,,,,,,,,,
,,,,,,616e5ae706e970fe0aff99b6,62c5561c6aafd4167fd46dd3,2022-07-06_12h30.29.518,Colour_Asymmetry_Pilot,2022.1.3,Win32,59.9268892,62c50e9c1127f2cd403a315f,,,,,,,,,,,,,,,,,,,,onetwo,,-4,0.8008,,,,,,,,,,,,,,,,,,,,,,,,,,,,,,,,,,"[0.5528,0.7409999999999999,-0.71]","[-0.9688,-0.7412000000000001,-0.4902000000000001]",-80,116,1,0,0,response7disk,-23,-1,1,0,0,rectangle,-23,-1,1,0,0,,3,0.0006,0,-23,-1,1,0,0,0,2,2,116,1,35,second,,,,,,,,,,,,,,,,,,,,,,,,,,,,,,,,,,,,,,,,,,,,,,,,,,,,,,,,,,,,,,,,,,,,,,,,
,,,,,,616e5ae706e970fe0aff99b6,62c5561c6aafd4167fd46dd3,2022-07-06_12h30.29.518,Colour_Asymmetry_Pilot,2022.1.3,Win32,59.9268892,62c50e9c1127f2cd403a315f,,,,,,,,,,,,,,,,,,,,onetwo,,-3,1.1345,,,,,,,,,,,,,,,,,,,,,,,,,,,,,,,,,,"[-0.09019999999999995,0.44300000000000006,0.5371999999999999]","[-0.011800000000000033,-0.906,-0.45100000000000007]",-106,37,1,0,0,response7disk,13,-5,1,0,0,rectangle,13,-5,1,0,0,,3,0,0,13,-5,1,0,0,0,3,3,38,1,38,first,,,,,,,,,,,,,,,,,,,,,,,,,,,,,,,,,,,,,,,,,,,,,,,,,,,,,,,,,,,,,,,,,,,,,,,,
,,,,,,616e5ae706e970fe0aff99b6,62c5561c6aafd4167fd46dd3,2022-07-06_12h30.29.518,Colour_Asymmetry_Pilot,2022.1.3,Win32,59.9268892,62c50e9c1127f2cd403a315f,,,,,,,,,,,,,,,,,,,,fourtwo,,-1,2.1351,,,,,,,,,,,,,,,,,,,,,,,,,,,,,,,,,,"[0.12939999999999996,-0.2864,0.3253999999999999]","[-0.6706000000000001,-0.6157999999999999,-0.6786]",-44,-102,1,0,0,response5disk,-24,-2,1,0,0,rectangle,-24,-2,1,0,0,,2,0.0005,0,-24,-2,1,0,0,0,4,4,148,1,67,second,,,,,,,,,,,,,,,,,,,,,,,,,,,,,,,,,,,,,,,,,,,,,,,,,,,,,,,,,,,,,,,,,,,,,,,,
,,,,,,616e5ae706e970fe0aff99b6,62c5561c6aafd4167fd46dd3,2022-07-06_12h30.29.518,Colour_Asymmetry_Pilot,2022.1.3,Win32,59.9268892,62c50e9c1127f2cd403a315f,,,,,,,,,,,,,,,,,,,,threeone,,1,1.0177,,,,,,,,,,,,,,,,,,,,,,,,,,,,,,,,,,"[0.19199999999999995,0.18419999999999992,0.5136000000000001]","[-0.9138,-0.5296000000000001,-0.5529999999999999]",38,-86,1,0,0,response3disk,0,-16,1,0,0,rectangle,0,-16,1,0,0,,3,0.0005,0,0,-16,1,0,0,0,5,5,10,1,10,first,,,,,,,,,,,,,,,,,,,,,,,,,,,,,,,,,,,,,,,,,,,,,,,,,,,,,,,,,,,,,,,,,,,,,,,,
,,,,,,616e5ae706e970fe0aff99b6,62c5561c6aafd4167fd46dd3,2022-07-06_12h30.29.518,Colour_Asymmetry_Pilot,2022.1.3,Win32,59.9268892,62c50e9c1127f2cd403a315f,,,,,,,,,,,,,,,,,,,,fourtwo,,2,0.634,,,,,,,,,,,,,,,,,,,,,,,,,,,,,,,,,,"[0.6547999999999998,-0.043199999999999905,-0.011800000000000033]","[1,0.12939999999999996,-1]",100,-52,1,0,0,response3disk,-2,-21,1,0,0,rectangle,-2,-21,1,0,0,,1,0.0005,0,-2,-21,1,0,0,0,6,6,58,1,58,first,,,,,,,,,,,,,,,,,,,,,,,,,,,,,,,,,,,,,,,,,,,,,,,,,,,,,,,,,,,,,,,,,,,,,,,,
,,,,,,616e5ae706e970fe0aff99b6,62c5561c6aafd4167fd46dd3,2022-07-06_12h30.29.518,Colour_Asymmetry_Pilot,2022.1.3,Win32,59.9268892,62c50e9c1127f2cd403a315f,,,,,,,,,,,,,,,,,,,,onetwo,,3,1.3343,,,,,,,,,,,,,,,,,,,,,,,,,,,,,,,,,,"[-0.9296,-0.12959999999999994,-0.043199999999999905]","[-0.6,0.16860000000000008,0.44300000000000006]",85,50,1,0,0,response1disk,21,8,1,0,0,rectangle,21,8,1,0,0,,1,0.0001,0,21,8,1,0,0,0,7,7,41,1,41,first,,,,,,,,,,,,,,,,,,,,,,,,,,,,,,,,,,,,,,,,,,,,,,,,,,,,,,,,,,,,,,,,,,,,,,,,
,,,,,,616e5ae706e970fe0aff99b6,62c5561c6aafd4167fd46dd3,2022-07-06_12h30.29.518,Colour_Asymmetry_Pilot,2022.1.3,Win32,59.9268892,62c50e9c1127f2cd403a315f,,,,,,,,,,,,,,,,,,,,threefour,,-1,4.5212,,,,,,,,,,,,,,,,,,,,,,,,,,,,,,,,,,"[-0.9296,-0.12959999999999994,-0.043199999999999905]","[0.04299999999999993,0.16060000000000008,-0.6628000000000001]",-69,-106,1,0,0,response5disk,0,-1,1,0,0,rectangle,0,-1,1,0,0,,2,0.0005,0,0,-1,1,0,0,0,8,8,77,1,77,first,,,,,,,,,,,,,,,,,,,,,,,,,,,,,,,,,,,,,,,,,,,,,,,,,,,,,,,,,,,,,,,,,,,,,,,,
,,,,,,616e5ae706e970fe0aff99b6,62c5561c6aafd4167fd46dd3,2022-07-06_12h30.29.518,Colour_Asymmetry_Pilot,2022.1.3,Win32,59.9268892,62c50e9c1127f2cd403a315f,,,,,,,,,,,,,,,,,,,,fourtwo,,1,3.9706,,,,,,,,,,,,,,,,,,,,,,,,,,,,,,,,,,"[0.18419999999999992,-0.4276,-0.404]","[0.09799999999999986,-0.24719999999999998,0.15280000000000005]",55,-89,1,0,0,response3disk,-2,-1,1,0,0,rectangle,-2,-1,1,0,0,,1,0.0005,0,-2,-1,1,0,0,0,9,9,69,1,69,first,,,,,,,,,,,,,,,,,,,,,,,,,,,,,,,,,,,,,,,,,,,,,,,,,,,,,,,,,,,,,,,,,,,,,,,,
,,,,,,616e5ae706e970fe0aff99b6,62c5561c6aafd4167fd46dd3,2022-07-06_12h30.29.518,Colour_Asymmetry_Pilot,2022.1.3,Win32,59.9268892,62c50e9c1127f2cd403a315f,,,,,,,,,,,,,,,,,,,,fourtwo,,3,0.7672,,,,,,,,,,,,,,,,,,,,,,,,,,,,,,,,,,"[-0.9138,-0.5296000000000001,-0.5529999999999999]","[-0.6942,-0.7648,-0.12959999999999994]",100,48,1,0,0,response1disk,-7,0,1,0,0,rectangle,-7,0,1,0,0,,1,0.0001,0,-7,0,1,0,0,0,10,10,154,1,73,second,,,,,,,,,,,,,,,,,,,,,,,,,,,,,,,,,,,,,,,,,,,,,,,,,,,,,,,,,,,,,,,,,,,,,,,,
,,,,,,616e5ae706e970fe0aff99b6,62c5561c6aafd4167fd46dd3,2022-07-06_12h30.29.518,Colour_Asymmetry_Pilot,2022.1.3,Win32,59.9268892,62c50e9c1127f2cd403a315f,,,,,,,,,,,,,,,,,,,,threeone,,-3,0.9176,,,,,,,,,,,,,,,,,,,,,,,,,,,,,,,,,,"[0.5449999999999999,-0.31000000000000005,-0.0354000000000001]","[-0.9688,-0.4902000000000001,-0.12159999999999993]",-120,38,1,0,0,response7disk,-8,-16,1,0,0,rectangle,-8,-16,1,0,0,,1,0.0001,0,-8,-16,1,0,0,0,11,11,22,1,22,first,,,,,,,,,,,,,,,,,,,,,,,,,,,,,,,,,,,,,,,,,,,,,,,,,,,,,,,,,,,,,,,,,,,,,,,,
,,,,,,616e5ae706e970fe0aff99b6,62c5561c6aafd4167fd46dd3,2022-07-06_12h30.29.518,Colour_Asymmetry_Pilot,2022.1.3,Win32,59.9268892,62c50e9c1127f2cd403a315f,,,,,,,,,,,,,,,,,,,,onethree,,3,0.5339,,,,,,,,,,,,,,,,,,,,,,,,,,,,,,,,,,"[-0.6,0.16860000000000008,0.44300000000000006]","[-0.9296,-0.12959999999999994,-0.043199999999999905]",113,41,1,0,0,response1disk,-4,-9,1,0,0,rectangle,-4,-9,1,0,0,,1,0.0001,0,-4,-9,1,0,0,0,12,12,122,1,41,second,,,,,,,,,,,,,,,,,,,,,,,,,,,,,,,,,,,,,,,,,,,,,,,,,,,,,,,,,,,,,,,,,,,,,,,,
,,,,,,616e5ae706e970fe0aff99b6,62c5561c6aafd4167fd46dd3,2022-07-06_12h30.29.518,Colour_Asymmetry_Pilot,2022.1.3,Win32,59.9268892,62c50e9c1127f2cd403a315f,,,,,,,,,,,,,,,,,,,,threefour,,-2,1.4181,,,,,,,,,,,,,,,,,,,,,,,,,,,,,,,,,,"[0.9372,0.20779999999999998,0.2704]","[0.04299999999999993,0.16060000000000008,-0.6628000000000001]",-117,-65,1,0,0,response5disk,-10,-4,1,0,0,rectangle,-10,-4,1,0,0,,2,0.0006,0,-10,-4,1,0,0,0,13,13,127,1,46,second,,,,,,,,,,,,,,,,,,,,,,,,,,,,,,,,,,,,,,,,,,,,,,,,,,,,,,,,,,,,,,,,,,,,,,,,
,,,,,,616e5ae706e970fe0aff99b6,62c5561c6aafd4167fd46dd3,2022-07-06_12h30.29.518,Colour_Asymmetry_Pilot,2022.1.3,Win32,59.9268892,62c50e9c1127f2cd403a315f,,,,,,,,,,,,,,,,,,,,twofour,,3,1.2676,,,,,,,,,,,,,,,,,,,,,,,,,,,,,,,,,,"[-0.07459999999999989,0.12139999999999995,-0.9922]","[-0.7412000000000001,-0.08239999999999992,-0.6864]",119,33,1,0,0,response1disk,-10,-13,1,0,0,rectangle,-10,-13,1,0,0,,1,0.0005,0,-10,-13,1,0,0,0,14,14,83,1,2,second,,,,,,,,,,,,,,,,,,,,,,,,,,,,,,,,,,,,,,,,,,,,,,,,,,,,,,,,,,,,,,,,,,,,,,,,
,,,,,,616e5ae706e970fe0aff99b6,62c5561c6aafd4167fd46dd3,2022-07-06_12h30.29.518,Colour_Asymmetry_Pilot,2022.1.3,Win32,59.9268892,62c50e9c1127f2cd403a315f,,,,,,,,,,,,,,,,,,,,threeone,,-3,1.3847,,,,,,,,,,,,,,,,,,,,,,,,,,,,,,,,,,"[-0.4902000000000001,0.2704,-0.45899999999999996]","[-0.9766,-0.6472,0.07440000000000002]",-95,49,1,0,0,response7disk,-15,-2,1,0,0,rectangle,-15,-2,1,0,0,,2,0.0005,0,-15,-2,1,0,0,0,15,15,133,1,52,second,,,,,,,,,,,,,,,,,,,,,,,,,,,,,,,,,,,,,,,,,,,,,,,,,,,,,,,,,,,,,,,,,,,,,,,,
,,,,,,616e5ae706e970fe0aff99b6,62c5561c6aafd4167fd46dd3,2022-07-06_12h30.29.518,Colour_Asymmetry_Pilot,2022.1.3,Win32,59.9268892,62c50e9c1127f2cd403a315f,,,,,,,,,,,,,,,,,,,,twoone,,2,1.318,,,,,,,,,,,,,,,,,,,,,,,,,,,,,,,,,,"[-0.17659999999999998,-0.2864,-0.8354]","[-0.26280000000000003,-0.2158,-0.3256]",119,-68,1,0,0,response3disk,-10,-11,1,0,0,rectangle,-10,-11,1,0,0,,3,0.0004,0,-10,-11,1,0,0,0,16,16,124,1,43,second,,,,,,,,,,,,,,,,,,,,,,,,,,,,,,,,,,,,,,,,,,,,,,,,,,,,,,,,,,,,,,,,,,,,,,,,
,,,,,,616e5ae706e970fe0aff99b6,62c5561c6aafd4167fd46dd3,2022-07-06_12h30.29.518,Colour_Asymmetry_Pilot,2022.1.3,Win32,59.9268892,62c50e9c1127f2cd403a315f,,,,,,,,,,,,,,,,,,,,fourthree,,-1,1.0845,,,,,,,,,,,,,,,,,,,,,,,,,,,,,,,,,,"[0.40379999999999994,0.09000000000000008,0.44300000000000006]","[-0.6,0.16860000000000008,0.44300000000000006]",-48,-122,1,0,0,response5disk,5,-5,1,0,0,rectangle,5,-5,1,0,0,,3,0,0,5,-5,1,0,0,0,17,17,110,1,29,second,,,,,,,,,,,,,,,,,,,,,,,,,,,,,,,,,,,,,,,,,,,,,,,,,,,,,,,,,,,,,,,,,,,,,,,,
