trials.thisRepN,trials.thisTrialN,trials.thisN,trials.thisIndex,trials.ran,Colourcodes,participant,session,date,expName,psychopyVersion,OS,frameRate,study_id,trials_4.thisRepN,trials_4.thisTrialN,trials_4.thisN,trials_4.thisIndex,trials_4.ran,StimulusPos,key_resp.keys,key_resp.rt,key_resp_2.keys,key_resp_2.rt,key_resp_15.keys,key_resp_15.rt,key_resp_17.keys,key_resp_17.rt,key_resp_9.keys,key_resp_9.rt,key_resp_10.keys,key_resp_10.rt,Circle1_col,Ecc,Circle2_col,similarity,response_time,mouse_5.x,mouse_5.y,mouse_5.leftButton,mouse_5.midButton,mouse_5.rightButton,mouse_5.clicked_name,mouse_10.x,mouse_10.y,mouse_10.leftButton,mouse_10.midButton,mouse_10.rightButton,mouse_10.clicked_name,mouse_7.x,mouse_7.y,mouse_7.leftButton,mouse_7.midButton,mouse_7.rightButton,catchnumberprac,mouse_6.x,mouse_6.y,mouse_6.leftButton,mouse_6.midButton,mouse_6.rightButton,duringprac.thisRepN,duringprac.thisTrialN,duringprac.thisN,duringprac.thisIndex,duringprac.ran,mouse_7.clicked_name,catchprac,mouse_6.clicked_name,key_resp_22.keys,key_resp_22.rt,Circle1_colour,Circle2_colour,mouse.x,mouse.y,mouse.leftButton,mouse.midButton,mouse.rightButton,mouse.clicked_name,mouse_2.x,mouse_2.y,mouse_2.leftButton,mouse_2.midButton,mouse_2.rightButton,mouse_2.clicked_name,mouse_3.x,mouse_3.y,mouse_3.leftButton,mouse_3.midButton,mouse_3.rightButton,catchresponse,catchnumber,response_time_catch,Catch,mouse_11.x,mouse_11.y,mouse_11.leftButton,mouse_11.midButton,mouse_11.rightButton,trials_2.thisRepN,trials_2.thisTrialN,trials_2.thisN,trials_2.thisIndex,trials_2.ran,Colourpair,Temporder,mouse_3.clicked_name,mouse_11.clicked_name,trials_3.thisRepN,trials_3.thisTrialN,trials_3.thisN,trials_3.thisIndex,trials_3.ran,key_resp_instr_Ishi.keys,key_resp_instr_Ishi.rt,Ishi_trial_keyresp.keys,Ishi_textbox.text,Ishi_mouse.x,Ishi_mouse.y,Ishi_mouse.leftButton,Ishi_mouse.midButton,Ishi_mouse.rightButton,Ishi_mouse.clicked_name,Ishi_loop.thisRepN,Ishi_loop.thisTrialN,Ishi_loop.thisN,Ishi_loop.thisIndex,Ishi_loop.ran,imageaddress,textbox.text,mouse_4.x,mouse_4.y,mouse_4.leftButton,mouse_4.midButton,mouse_4.rightButton,mouse_4.clicked_name,textbox_2.text,mouse_8.x,mouse_8.y,mouse_8.leftButton,mouse_8.midButton,mouse_8.rightButton,mouse_8.clicked_name,textbox_3.text,mouse_9.x,mouse_9.y,mouse_9.leftButton,mouse_9.midButton,mouse_9.rightButton,mouse_9.clicked_name,textbox_4.text,mouse_12.x,mouse_12.y,mouse_12.leftButton,mouse_12.midButton,mouse_12.rightButton,mouse_12.clicked_name,textbox_5.text,mouse_13.x,mouse_13.y,mouse_13.leftButton,mouse_13.midButton,mouse_13.rightButton,mouse_13.clicked_name,textbox_6.text,mouse_14.x,mouse_14.y,mouse_14.leftButton,mouse_14.midButton,mouse_14.rightButton,mouse_14.clicked_name,textbox_7.text,mouse_15.x,mouse_15.y,mouse_15.leftButton,mouse_15.midButton,mouse_15.rightButton,mouse_15.clicked_name
0,0,0,79,1,,5f5e7de4c81d3672642cd612,62c539b6c914d34f9b3fff55,2022-07-06_09h29.18.874,Colour_Asymmetry_Pilot,2022.1.3,Win32,59.56990528,62c50e9c1127f2cd403a315f,,,,,,,,,,,,,,,,,,,,,,,,,,,,,,,,,,,,,,,,,,,,,,,,,,,,,,,,,,,,,,,,,,,,,,,,,,,,,,,,,,,,,,,,,,,,,,,,,,,,,,,,,,,,,,,,,,,,,,,,,,,,,,,,,,,,,,,,,,,,,,,,,,,,,,,,,,,,,,,,,,,
0,1,1,23,1,,5f5e7de4c81d3672642cd612,62c539b6c914d34f9b3fff55,2022-07-06_09h29.18.874,Colour_Asymmetry_Pilot,2022.1.3,Win32,59.56990528,62c50e9c1127f2cd403a315f,,,,,,,,,,,,,,,,,,,,,,,,,,,,,,,,,,,,,,,,,,,,,,,,,,,,,,,,,,,,,,,,,,,,,,,,,,,,,,,,,,,,,,,,,,,,,,,,,,,,,,,,,,,,,,,,,,,,,,,,,,,,,,,,,,,,,,,,,,,,,,,,,,,,,,,,,,,,,,,,,,,
0,2,2,87,1,,5f5e7de4c81d3672642cd612,62c539b6c914d34f9b3fff55,2022-07-06_09h29.18.874,Colour_Asymmetry_Pilot,2022.1.3,Win32,59.56990528,62c50e9c1127f2cd403a315f,,,,,,,,,,,,,,,,,,,,,,,,,,,,,,,,,,,,,,,,,,,,,,,,,,,,,,,,,,,,,,,,,,,,,,,,,,,,,,,,,,,,,,,,,,,,,,,,,,,,,,,,,,,,,,,,,,,,,,,,,,,,,,,,,,,,,,,,,,,,,,,,,,,,,,,,,,,,,,,,,,,
0,3,3,20,1,,5f5e7de4c81d3672642cd612,62c539b6c914d34f9b3fff55,2022-07-06_09h29.18.874,Colour_Asymmetry_Pilot,2022.1.3,Win32,59.56990528,62c50e9c1127f2cd403a315f,,,,,,,,,,,,,,,,,,,,,,,,,,,,,,,,,,,,,,,,,,,,,,,,,,,,,,,,,,,,,,,,,,,,,,,,,,,,,,,,,,,,,,,,,,,,,,,,,,,,,,,,,,,,,,,,,,,,,,,,,,,,,,,,,,,,,,,,,,,,,,,,,,,,,,,,,,,,,,,,,,,
0,4,4,57,1,,5f5e7de4c81d3672642cd612,62c539b6c914d34f9b3fff55,2022-07-06_09h29.18.874,Colour_Asymmetry_Pilot,2022.1.3,Win32,59.56990528,62c50e9c1127f2cd403a315f,,,,,,,,,,,,,,,,,,,,,,,,,,,,,,,,,,,,,,,,,,,,,,,,,,,,,,,,,,,,,,,,,,,,,,,,,,,,,,,,,,,,,,,,,,,,,,,,,,,,,,,,,,,,,,,,,,,,,,,,,,,,,,,,,,,,,,,,,,,,,,,,,,,,,,,,,,,,,,,,,,,
0,5,5,25,1,,5f5e7de4c81d3672642cd612,62c539b6c914d34f9b3fff55,2022-07-06_09h29.18.874,Colour_Asymmetry_Pilot,2022.1.3,Win32,59.56990528,62c50e9c1127f2cd403a315f,,,,,,,,,,,,,,,,,,,,,,,,,,,,,,,,,,,,,,,,,,,,,,,,,,,,,,,,,,,,,,,,,,,,,,,,,,,,,,,,,,,,,,,,,,,,,,,,,,,,,,,,,,,,,,,,,,,,,,,,,,,,,,,,,,,,,,,,,,,,,,,,,,,,,,,,,,,,,,,,,,,
0,6,6,71,1,,5f5e7de4c81d3672642cd612,62c539b6c914d34f9b3fff55,2022-07-06_09h29.18.874,Colour_Asymmetry_Pilot,2022.1.3,Win32,59.56990528,62c50e9c1127f2cd403a315f,,,,,,,,,,,,,,,,,,,,,,,,,,,,,,,,,,,,,,,,,,,,,,,,,,,,,,,,,,,,,,,,,,,,,,,,,,,,,,,,,,,,,,,,,,,,,,,,,,,,,,,,,,,,,,,,,,,,,,,,,,,,,,,,,,,,,,,,,,,,,,,,,,,,,,,,,,,,,,,,,,,
0,7,7,64,1,,5f5e7de4c81d3672642cd612,62c539b6c914d34f9b3fff55,2022-07-06_09h29.18.874,Colour_Asymmetry_Pilot,2022.1.3,Win32,59.56990528,62c50e9c1127f2cd403a315f,,,,,,,,,,,,,,,,,,,,,,,,,,,,,,,,,,,,,,,,,,,,,,,,,,,,,,,,,,,,,,,,,,,,,,,,,,,,,,,,,,,,,,,,,,,,,,,,,,,,,,,,,,,,,,,,,,,,,,,,,,,,,,,,,,,,,,,,,,,,,,,,,,,,,,,,,,,,,,,,,,,
0,8,8,50,1,,5f5e7de4c81d3672642cd612,62c539b6c914d34f9b3fff55,2022-07-06_09h29.18.874,Colour_Asymmetry_Pilot,2022.1.3,Win32,59.56990528,62c50e9c1127f2cd403a315f,,,,,,,,,,,,,,,,,,,,,,,,,,,,,,,,,,,,,,,,,,,,,,,,,,,,,,,,,,,,,,,,,,,,,,,,,,,,,,,,,,,,,,,,,,,,,,,,,,,,,,,,,,,,,,,,,,,,,,,,,,,,,,,,,,,,,,,,,,,,,,,,,,,,,,,,,,,,,,,,,,,
0,9,9,26,1,,5f5e7de4c81d3672642cd612,62c539b6c914d34f9b3fff55,2022-07-06_09h29.18.874,Colour_Asymmetry_Pilot,2022.1.3,Win32,59.56990528,62c50e9c1127f2cd403a315f,,,,,,,,,,,,,,,,,,,,,,,,,,,,,,,,,,,,,,,,,,,,,,,,,,,,,,,,,,,,,,,,,,,,,,,,,,,,,,,,,,,,,,,,,,,,,,,,,,,,,,,,,,,,,,,,,,,,,,,,,,,,,,,,,,,,,,,,,,,,,,,,,,,,,,,,,,,,,,,,,,,
0,10,10,43,1,,5f5e7de4c81d3672642cd612,62c539b6c914d34f9b3fff55,2022-07-06_09h29.18.874,Colour_Asymmetry_Pilot,2022.1.3,Win32,59.56990528,62c50e9c1127f2cd403a315f,,,,,,,,,,,,,,,,,,,,,,,,,,,,,,,,,,,,,,,,,,,,,,,,,,,,,,,,,,,,,,,,,,,,,,,,,,,,,,,,,,,,,,,,,,,,,,,,,,,,,,,,,,,,,,,,,,,,,,,,,,,,,,,,,,,,,,,,,,,,,,,,,,,,,,,,,,,,,,,,,,,
0,11,11,72,1,,5f5e7de4c81d3672642cd612,62c539b6c914d34f9b3fff55,2022-07-06_09h29.18.874,Colour_Asymmetry_Pilot,2022.1.3,Win32,59.56990528,62c50e9c1127f2cd403a315f,,,,,,,,,,,,,,,,,,,,,,,,,,,,,,,,,,,,,,,,,,,,,,,,,,,,,,,,,,,,,,,,,,,,,,,,,,,,,,,,,,,,,,,,,,,,,,,,,,,,,,,,,,,,,,,,,,,,,,,,,,,,,,,,,,,,,,,,,,,,,,,,,,,,,,,,,,,,,,,,,,,
0,12,12,58,1,,5f5e7de4c81d3672642cd612,62c539b6c914d34f9b3fff55,2022-07-06_09h29.18.874,Colour_Asymmetry_Pilot,2022.1.3,Win32,59.56990528,62c50e9c1127f2cd403a315f,,,,,,,,,,,,,,,,,,,,,,,,,,,,,,,,,,,,,,,,,,,,,,,,,,,,,,,,,,,,,,,,,,,,,,,,,,,,,,,,,,,,,,,,,,,,,,,,,,,,,,,,,,,,,,,,,,,,,,,,,,,,,,,,,,,,,,,,,,,,,,,,,,,,,,,,,,,,,,,,,,,
0,13,13,65,1,,5f5e7de4c81d3672642cd612,62c539b6c914d34f9b3fff55,2022-07-06_09h29.18.874,Colour_Asymmetry_Pilot,2022.1.3,Win32,59.56990528,62c50e9c1127f2cd403a315f,,,,,,,,,,,,,,,,,,,,,,,,,,,,,,,,,,,,,,,,,,,,,,,,,,,,,,,,,,,,,,,,,,,,,,,,,,,,,,,,,,,,,,,,,,,,,,,,,,,,,,,,,,,,,,,,,,,,,,,,,,,,,,,,,,,,,,,,,,,,,,,,,,,,,,,,,,,,,,,,,,,
0,14,14,86,1,,5f5e7de4c81d3672642cd612,62c539b6c914d34f9b3fff55,2022-07-06_09h29.18.874,Colour_Asymmetry_Pilot,2022.1.3,Win32,59.56990528,62c50e9c1127f2cd403a315f,,,,,,,,,,,,,,,,,,,,,,,,,,,,,,,,,,,,,,,,,,,,,,,,,,,,,,,,,,,,,,,,,,,,,,,,,,,,,,,,,,,,,,,,,,,,,,,,,,,,,,,,,,,,,,,,,,,,,,,,,,,,,,,,,,,,,,,,,,,,,,,,,,,,,,,,,,,,,,,,,,,
0,15,15,76,1,,5f5e7de4c81d3672642cd612,62c539b6c914d34f9b3fff55,2022-07-06_09h29.18.874,Colour_Asymmetry_Pilot,2022.1.3,Win32,59.56990528,62c50e9c1127f2cd403a315f,,,,,,,,,,,,,,,,,,,,,,,,,,,,,,,,,,,,,,,,,,,,,,,,,,,,,,,,,,,,,,,,,,,,,,,,,,,,,,,,,,,,,,,,,,,,,,,,,,,,,,,,,,,,,,,,,,,,,,,,,,,,,,,,,,,,,,,,,,,,,,,,,,,,,,,,,,,,,,,,,,,
0,16,16,48,1,,5f5e7de4c81d3672642cd612,62c539b6c914d34f9b3fff55,2022-07-06_09h29.18.874,Colour_Asymmetry_Pilot,2022.1.3,Win32,59.56990528,62c50e9c1127f2cd403a315f,,,,,,,,,,,,,,,,,,,,,,,,,,,,,,,,,,,,,,,,,,,,,,,,,,,,,,,,,,,,,,,,,,,,,,,,,,,,,,,,,,,,,,,,,,,,,,,,,,,,,,,,,,,,,,,,,,,,,,,,,,,,,,,,,,,,,,,,,,,,,,,,,,,,,,,,,,,,,,,,,,,
0,17,17,73,1,,5f5e7de4c81d3672642cd612,62c539b6c914d34f9b3fff55,2022-07-06_09h29.18.874,Colour_Asymmetry_Pilot,2022.1.3,Win32,59.56990528,62c50e9c1127f2cd403a315f,,,,,,,,,,,,,,,,,,,,,,,,,,,,,,,,,,,,,,,,,,,,,,,,,,,,,,,,,,,,,,,,,,,,,,,,,,,,,,,,,,,,,,,,,,,,,,,,,,,,,,,,,,,,,,,,,,,,,,,,,,,,,,,,,,,,,,,,,,,,,,,,,,,,,,,,,,,,,,,,,,,
0,18,18,42,1,,5f5e7de4c81d3672642cd612,62c539b6c914d34f9b3fff55,2022-07-06_09h29.18.874,Colour_Asymmetry_Pilot,2022.1.3,Win32,59.56990528,62c50e9c1127f2cd403a315f,,,,,,,,,,,,,,,,,,,,,,,,,,,,,,,,,,,,,,,,,,,,,,,,,,,,,,,,,,,,,,,,,,,,,,,,,,,,,,,,,,,,,,,,,,,,,,,,,,,,,,,,,,,,,,,,,,,,,,,,,,,,,,,,,,,,,,,,,,,,,,,,,,,,,,,,,,,,,,,,,,,
0,19,19,59,1,,5f5e7de4c81d3672642cd612,62c539b6c914d34f9b3fff55,2022-07-06_09h29.18.874,Colour_Asymmetry_Pilot,2022.1.3,Win32,59.56990528,62c50e9c1127f2cd403a315f,,,,,,,,,,,,,,,,,,,,,,,,,,,,,,,,,,,,,,,,,,,,,,,,,,,,,,,,,,,,,,,,,,,,,,,,,,,,,,,,,,,,,,,,,,,,,,,,,,,,,,,,,,,,,,,,,,,,,,,,,,,,,,,,,,,,,,,,,,,,,,,,,,,,,,,,,,,,,,,,,,,
0,20,20,17,1,,5f5e7de4c81d3672642cd612,62c539b6c914d34f9b3fff55,2022-07-06_09h29.18.874,Colour_Asymmetry_Pilot,2022.1.3,Win32,59.56990528,62c50e9c1127f2cd403a315f,,,,,,,,,,,,,,,,,,,,,,,,,,,,,,,,,,,,,,,,,,,,,,,,,,,,,,,,,,,,,,,,,,,,,,,,,,,,,,,,,,,,,,,,,,,,,,,,,,,,,,,,,,,,,,,,,,,,,,,,,,,,,,,,,,,,,,,,,,,,,,,,,,,,,,,,,,,,,,,,,,,
0,21,21,14,1,,5f5e7de4c81d3672642cd612,62c539b6c914d34f9b3fff55,2022-07-06_09h29.18.874,Colour_Asymmetry_Pilot,2022.1.3,Win32,59.56990528,62c50e9c1127f2cd403a315f,,,,,,,,,,,,,,,,,,,,,,,,,,,,,,,,,,,,,,,,,,,,,,,,,,,,,,,,,,,,,,,,,,,,,,,,,,,,,,,,,,,,,,,,,,,,,,,,,,,,,,,,,,,,,,,,,,,,,,,,,,,,,,,,,,,,,,,,,,,,,,,,,,,,,,,,,,,,,,,,,,,
0,22,22,78,1,,5f5e7de4c81d3672642cd612,62c539b6c914d34f9b3fff55,2022-07-06_09h29.18.874,Colour_Asymmetry_Pilot,2022.1.3,Win32,59.56990528,62c50e9c1127f2cd403a315f,,,,,,,,,,,,,,,,,,,,,,,,,,,,,,,,,,,,,,,,,,,,,,,,,,,,,,,,,,,,,,,,,,,,,,,,,,,,,,,,,,,,,,,,,,,,,,,,,,,,,,,,,,,,,,,,,,,,,,,,,,,,,,,,,,,,,,,,,,,,,,,,,,,,,,,,,,,,,,,,,,,
0,23,23,30,1,,5f5e7de4c81d3672642cd612,62c539b6c914d34f9b3fff55,2022-07-06_09h29.18.874,Colour_Asymmetry_Pilot,2022.1.3,Win32,59.56990528,62c50e9c1127f2cd403a315f,,,,,,,,,,,,,,,,,,,,,,,,,,,,,,,,,,,,,,,,,,,,,,,,,,,,,,,,,,,,,,,,,,,,,,,,,,,,,,,,,,,,,,,,,,,,,,,,,,,,,,,,,,,,,,,,,,,,,,,,,,,,,,,,,,,,,,,,,,,,,,,,,,,,,,,,,,,,,,,,,,,
0,24,24,80,1,,5f5e7de4c81d3672642cd612,62c539b6c914d34f9b3fff55,2022-07-06_09h29.18.874,Colour_Asymmetry_Pilot,2022.1.3,Win32,59.56990528,62c50e9c1127f2cd403a315f,,,,,,,,,,,,,,,,,,,,,,,,,,,,,,,,,,,,,,,,,,,,,,,,,,,,,,,,,,,,,,,,,,,,,,,,,,,,,,,,,,,,,,,,,,,,,,,,,,,,,,,,,,,,,,,,,,,,,,,,,,,,,,,,,,,,,,,,,,,,,,,,,,,,,,,,,,,,,,,,,,,
0,25,25,10,1,,5f5e7de4c81d3672642cd612,62c539b6c914d34f9b3fff55,2022-07-06_09h29.18.874,Colour_Asymmetry_Pilot,2022.1.3,Win32,59.56990528,62c50e9c1127f2cd403a315f,,,,,,,,,,,,,,,,,,,,,,,,,,,,,,,,,,,,,,,,,,,,,,,,,,,,,,,,,,,,,,,,,,,,,,,,,,,,,,,,,,,,,,,,,,,,,,,,,,,,,,,,,,,,,,,,,,,,,,,,,,,,,,,,,,,,,,,,,,,,,,,,,,,,,,,,,,,,,,,,,,,
0,26,26,7,1,,5f5e7de4c81d3672642cd612,62c539b6c914d34f9b3fff55,2022-07-06_09h29.18.874,Colour_Asymmetry_Pilot,2022.1.3,Win32,59.56990528,62c50e9c1127f2cd403a315f,,,,,,,,,,,,,,,,,,,,,,,,,,,,,,,,,,,,,,,,,,,,,,,,,,,,,,,,,,,,,,,,,,,,,,,,,,,,,,,,,,,,,,,,,,,,,,,,,,,,,,,,,,,,,,,,,,,,,,,,,,,,,,,,,,,,,,,,,,,,,,,,,,,,,,,,,,,,,,,,,,,
0,27,27,12,1,,5f5e7de4c81d3672642cd612,62c539b6c914d34f9b3fff55,2022-07-06_09h29.18.874,Colour_Asymmetry_Pilot,2022.1.3,Win32,59.56990528,62c50e9c1127f2cd403a315f,,,,,,,,,,,,,,,,,,,,,,,,,,,,,,,,,,,,,,,,,,,,,,,,,,,,,,,,,,,,,,,,,,,,,,,,,,,,,,,,,,,,,,,,,,,,,,,,,,,,,,,,,,,,,,,,,,,,,,,,,,,,,,,,,,,,,,,,,,,,,,,,,,,,,,,,,,,,,,,,,,,
0,28,28,61,1,,5f5e7de4c81d3672642cd612,62c539b6c914d34f9b3fff55,2022-07-06_09h29.18.874,Colour_Asymmetry_Pilot,2022.1.3,Win32,59.56990528,62c50e9c1127f2cd403a315f,,,,,,,,,,,,,,,,,,,,,,,,,,,,,,,,,,,,,,,,,,,,,,,,,,,,,,,,,,,,,,,,,,,,,,,,,,,,,,,,,,,,,,,,,,,,,,,,,,,,,,,,,,,,,,,,,,,,,,,,,,,,,,,,,,,,,,,,,,,,,,,,,,,,,,,,,,,,,,,,,,,
0,29,29,75,1,,5f5e7de4c81d3672642cd612,62c539b6c914d34f9b3fff55,2022-07-06_09h29.18.874,Colour_Asymmetry_Pilot,2022.1.3,Win32,59.56990528,62c50e9c1127f2cd403a315f,,,,,,,,,,,,,,,,,,,,,,,,,,,,,,,,,,,,,,,,,,,,,,,,,,,,,,,,,,,,,,,,,,,,,,,,,,,,,,,,,,,,,,,,,,,,,,,,,,,,,,,,,,,,,,,,,,,,,,,,,,,,,,,,,,,,,,,,,,,,,,,,,,,,,,,,,,,,,,,,,,,
0,30,30,45,1,,5f5e7de4c81d3672642cd612,62c539b6c914d34f9b3fff55,2022-07-06_09h29.18.874,Colour_Asymmetry_Pilot,2022.1.3,Win32,59.56990528,62c50e9c1127f2cd403a315f,,,,,,,,,,,,,,,,,,,,,,,,,,,,,,,,,,,,,,,,,,,,,,,,,,,,,,,,,,,,,,,,,,,,,,,,,,,,,,,,,,,,,,,,,,,,,,,,,,,,,,,,,,,,,,,,,,,,,,,,,,,,,,,,,,,,,,,,,,,,,,,,,,,,,,,,,,,,,,,,,,,
0,31,31,33,1,,5f5e7de4c81d3672642cd612,62c539b6c914d34f9b3fff55,2022-07-06_09h29.18.874,Colour_Asymmetry_Pilot,2022.1.3,Win32,59.56990528,62c50e9c1127f2cd403a315f,,,,,,,,,,,,,,,,,,,,,,,,,,,,,,,,,,,,,,,,,,,,,,,,,,,,,,,,,,,,,,,,,,,,,,,,,,,,,,,,,,,,,,,,,,,,,,,,,,,,,,,,,,,,,,,,,,,,,,,,,,,,,,,,,,,,,,,,,,,,,,,,,,,,,,,,,,,,,,,,,,,
0,32,32,3,1,,5f5e7de4c81d3672642cd612,62c539b6c914d34f9b3fff55,2022-07-06_09h29.18.874,Colour_Asymmetry_Pilot,2022.1.3,Win32,59.56990528,62c50e9c1127f2cd403a315f,,,,,,,,,,,,,,,,,,,,,,,,,,,,,,,,,,,,,,,,,,,,,,,,,,,,,,,,,,,,,,,,,,,,,,,,,,,,,,,,,,,,,,,,,,,,,,,,,,,,,,,,,,,,,,,,,,,,,,,,,,,,,,,,,,,,,,,,,,,,,,,,,,,,,,,,,,,,,,,,,,,
0,33,33,35,1,,5f5e7de4c81d3672642cd612,62c539b6c914d34f9b3fff55,2022-07-06_09h29.18.874,Colour_Asymmetry_Pilot,2022.1.3,Win32,59.56990528,62c50e9c1127f2cd403a315f,,,,,,,,,,,,,,,,,,,,,,,,,,,,,,,,,,,,,,,,,,,,,,,,,,,,,,,,,,,,,,,,,,,,,,,,,,,,,,,,,,,,,,,,,,,,,,,,,,,,,,,,,,,,,,,,,,,,,,,,,,,,,,,,,,,,,,,,,,,,,,,,,,,,,,,,,,,,,,,,,,,
0,34,34,2,1,,5f5e7de4c81d3672642cd612,62c539b6c914d34f9b3fff55,2022-07-06_09h29.18.874,Colour_Asymmetry_Pilot,2022.1.3,Win32,59.56990528,62c50e9c1127f2cd403a315f,,,,,,,,,,,,,,,,,,,,,,,,,,,,,,,,,,,,,,,,,,,,,,,,,,,,,,,,,,,,,,,,,,,,,,,,,,,,,,,,,,,,,,,,,,,,,,,,,,,,,,,,,,,,,,,,,,,,,,,,,,,,,,,,,,,,,,,,,,,,,,,,,,,,,,,,,,,,,,,,,,,
0,35,35,15,1,,5f5e7de4c81d3672642cd612,62c539b6c914d34f9b3fff55,2022-07-06_09h29.18.874,Colour_Asymmetry_Pilot,2022.1.3,Win32,59.56990528,62c50e9c1127f2cd403a315f,,,,,,,,,,,,,,,,,,,,,,,,,,,,,,,,,,,,,,,,,,,,,,,,,,,,,,,,,,,,,,,,,,,,,,,,,,,,,,,,,,,,,,,,,,,,,,,,,,,,,,,,,,,,,,,,,,,,,,,,,,,,,,,,,,,,,,,,,,,,,,,,,,,,,,,,,,,,,,,,,,,
0,36,36,39,1,,5f5e7de4c81d3672642cd612,62c539b6c914d34f9b3fff55,2022-07-06_09h29.18.874,Colour_Asymmetry_Pilot,2022.1.3,Win32,59.56990528,62c50e9c1127f2cd403a315f,,,,,,,,,,,,,,,,,,,,,,,,,,,,,,,,,,,,,,,,,,,,,,,,,,,,,,,,,,,,,,,,,,,,,,,,,,,,,,,,,,,,,,,,,,,,,,,,,,,,,,,,,,,,,,,,,,,,,,,,,,,,,,,,,,,,,,,,,,,,,,,,,,,,,,,,,,,,,,,,,,,
0,37,37,84,1,,5f5e7de4c81d3672642cd612,62c539b6c914d34f9b3fff55,2022-07-06_09h29.18.874,Colour_Asymmetry_Pilot,2022.1.3,Win32,59.56990528,62c50e9c1127f2cd403a315f,,,,,,,,,,,,,,,,,,,,,,,,,,,,,,,,,,,,,,,,,,,,,,,,,,,,,,,,,,,,,,,,,,,,,,,,,,,,,,,,,,,,,,,,,,,,,,,,,,,,,,,,,,,,,,,,,,,,,,,,,,,,,,,,,,,,,,,,,,,,,,,,,,,,,,,,,,,,,,,,,,,
0,38,38,18,1,,5f5e7de4c81d3672642cd612,62c539b6c914d34f9b3fff55,2022-07-06_09h29.18.874,Colour_Asymmetry_Pilot,2022.1.3,Win32,59.56990528,62c50e9c1127f2cd403a315f,,,,,,,,,,,,,,,,,,,,,,,,,,,,,,,,,,,,,,,,,,,,,,,,,,,,,,,,,,,,,,,,,,,,,,,,,,,,,,,,,,,,,,,,,,,,,,,,,,,,,,,,,,,,,,,,,,,,,,,,,,,,,,,,,,,,,,,,,,,,,,,,,,,,,,,,,,,,,,,,,,,
0,39,39,31,1,,5f5e7de4c81d3672642cd612,62c539b6c914d34f9b3fff55,2022-07-06_09h29.18.874,Colour_Asymmetry_Pilot,2022.1.3,Win32,59.56990528,62c50e9c1127f2cd403a315f,,,,,,,,,,,,,,,,,,,,,,,,,,,,,,,,,,,,,,,,,,,,,,,,,,,,,,,,,,,,,,,,,,,,,,,,,,,,,,,,,,,,,,,,,,,,,,,,,,,,,,,,,,,,,,,,,,,,,,,,,,,,,,,,,,,,,,,,,,,,,,,,,,,,,,,,,,,,,,,,,,,
0,40,40,19,1,,5f5e7de4c81d3672642cd612,62c539b6c914d34f9b3fff55,2022-07-06_09h29.18.874,Colour_Asymmetry_Pilot,2022.1.3,Win32,59.56990528,62c50e9c1127f2cd403a315f,,,,,,,,,,,,,,,,,,,,,,,,,,,,,,,,,,,,,,,,,,,,,,,,,,,,,,,,,,,,,,,,,,,,,,,,,,,,,,,,,,,,,,,,,,,,,,,,,,,,,,,,,,,,,,,,,,,,,,,,,,,,,,,,,,,,,,,,,,,,,,,,,,,,,,,,,,,,,,,,,,,
0,41,41,40,1,,5f5e7de4c81d3672642cd612,62c539b6c914d34f9b3fff55,2022-07-06_09h29.18.874,Colour_Asymmetry_Pilot,2022.1.3,Win32,59.56990528,62c50e9c1127f2cd403a315f,,,,,,,,,,,,,,,,,,,,,,,,,,,,,,,,,,,,,,,,,,,,,,,,,,,,,,,,,,,,,,,,,,,,,,,,,,,,,,,,,,,,,,,,,,,,,,,,,,,,,,,,,,,,,,,,,,,,,,,,,,,,,,,,,,,,,,,,,,,,,,,,,,,,,,,,,,,,,,,,,,,
0,42,42,38,1,,5f5e7de4c81d3672642cd612,62c539b6c914d34f9b3fff55,2022-07-06_09h29.18.874,Colour_Asymmetry_Pilot,2022.1.3,Win32,59.56990528,62c50e9c1127f2cd403a315f,,,,,,,,,,,,,,,,,,,,,,,,,,,,,,,,,,,,,,,,,,,,,,,,,,,,,,,,,,,,,,,,,,,,,,,,,,,,,,,,,,,,,,,,,,,,,,,,,,,,,,,,,,,,,,,,,,,,,,,,,,,,,,,,,,,,,,,,,,,,,,,,,,,,,,,,,,,,,,,,,,,
0,43,43,51,1,,5f5e7de4c81d3672642cd612,62c539b6c914d34f9b3fff55,2022-07-06_09h29.18.874,Colour_Asymmetry_Pilot,2022.1.3,Win32,59.56990528,62c50e9c1127f2cd403a315f,,,,,,,,,,,,,,,,,,,,,,,,,,,,,,,,,,,,,,,,,,,,,,,,,,,,,,,,,,,,,,,,,,,,,,,,,,,,,,,,,,,,,,,,,,,,,,,,,,,,,,,,,,,,,,,,,,,,,,,,,,,,,,,,,,,,,,,,,,,,,,,,,,,,,,,,,,,,,,,,,,,
0,44,44,55,1,,5f5e7de4c81d3672642cd612,62c539b6c914d34f9b3fff55,2022-07-06_09h29.18.874,Colour_Asymmetry_Pilot,2022.1.3,Win32,59.56990528,62c50e9c1127f2cd403a315f,,,,,,,,,,,,,,,,,,,,,,,,,,,,,,,,,,,,,,,,,,,,,,,,,,,,,,,,,,,,,,,,,,,,,,,,,,,,,,,,,,,,,,,,,,,,,,,,,,,,,,,,,,,,,,,,,,,,,,,,,,,,,,,,,,,,,,,,,,,,,,,,,,,,,,,,,,,,,,,,,,,
0,45,45,85,1,,5f5e7de4c81d3672642cd612,62c539b6c914d34f9b3fff55,2022-07-06_09h29.18.874,Colour_Asymmetry_Pilot,2022.1.3,Win32,59.56990528,62c50e9c1127f2cd403a315f,,,,,,,,,,,,,,,,,,,,,,,,,,,,,,,,,,,,,,,,,,,,,,,,,,,,,,,,,,,,,,,,,,,,,,,,,,,,,,,,,,,,,,,,,,,,,,,,,,,,,,,,,,,,,,,,,,,,,,,,,,,,,,,,,,,,,,,,,,,,,,,,,,,,,,,,,,,,,,,,,,,
0,46,46,13,1,,5f5e7de4c81d3672642cd612,62c539b6c914d34f9b3fff55,2022-07-06_09h29.18.874,Colour_Asymmetry_Pilot,2022.1.3,Win32,59.56990528,62c50e9c1127f2cd403a315f,,,,,,,,,,,,,,,,,,,,,,,,,,,,,,,,,,,,,,,,,,,,,,,,,,,,,,,,,,,,,,,,,,,,,,,,,,,,,,,,,,,,,,,,,,,,,,,,,,,,,,,,,,,,,,,,,,,,,,,,,,,,,,,,,,,,,,,,,,,,,,,,,,,,,,,,,,,,,,,,,,,
0,47,47,70,1,,5f5e7de4c81d3672642cd612,62c539b6c914d34f9b3fff55,2022-07-06_09h29.18.874,Colour_Asymmetry_Pilot,2022.1.3,Win32,59.56990528,62c50e9c1127f2cd403a315f,,,,,,,,,,,,,,,,,,,,,,,,,,,,,,,,,,,,,,,,,,,,,,,,,,,,,,,,,,,,,,,,,,,,,,,,,,,,,,,,,,,,,,,,,,,,,,,,,,,,,,,,,,,,,,,,,,,,,,,,,,,,,,,,,,,,,,,,,,,,,,,,,,,,,,,,,,,,,,,,,,,
0,48,48,91,1,,5f5e7de4c81d3672642cd612,62c539b6c914d34f9b3fff55,2022-07-06_09h29.18.874,Colour_Asymmetry_Pilot,2022.1.3,Win32,59.56990528,62c50e9c1127f2cd403a315f,,,,,,,,,,,,,,,,,,,,,,,,,,,,,,,,,,,,,,,,,,,,,,,,,,,,,,,,,,,,,,,,,,,,,,,,,,,,,,,,,,,,,,,,,,,,,,,,,,,,,,,,,,,,,,,,,,,,,,,,,,,,,,,,,,,,,,,,,,,,,,,,,,,,,,,,,,,,,,,,,,,
0,49,49,69,1,,5f5e7de4c81d3672642cd612,62c539b6c914d34f9b3fff55,2022-07-06_09h29.18.874,Colour_Asymmetry_Pilot,2022.1.3,Win32,59.56990528,62c50e9c1127f2cd403a315f,,,,,,,,,,,,,,,,,,,,,,,,,,,,,,,,,,,,,,,,,,,,,,,,,,,,,,,,,,,,,,,,,,,,,,,,,,,,,,,,,,,,,,,,,,,,,,,,,,,,,,,,,,,,,,,,,,,,,,,,,,,,,,,,,,,,,,,,,,,,,,,,,,,,,,,,,,,,,,,,,,,
0,50,50,67,1,,5f5e7de4c81d3672642cd612,62c539b6c914d34f9b3fff55,2022-07-06_09h29.18.874,Colour_Asymmetry_Pilot,2022.1.3,Win32,59.56990528,62c50e9c1127f2cd403a315f,,,,,,,,,,,,,,,,,,,,,,,,,,,,,,,,,,,,,,,,,,,,,,,,,,,,,,,,,,,,,,,,,,,,,,,,,,,,,,,,,,,,,,,,,,,,,,,,,,,,,,,,,,,,,,,,,,,,,,,,,,,,,,,,,,,,,,,,,,,,,,,,,,,,,,,,,,,,,,,,,,,
0,51,51,6,1,,5f5e7de4c81d3672642cd612,62c539b6c914d34f9b3fff55,2022-07-06_09h29.18.874,Colour_Asymmetry_Pilot,2022.1.3,Win32,59.56990528,62c50e9c1127f2cd403a315f,,,,,,,,,,,,,,,,,,,,,,,,,,,,,,,,,,,,,,,,,,,,,,,,,,,,,,,,,,,,,,,,,,,,,,,,,,,,,,,,,,,,,,,,,,,,,,,,,,,,,,,,,,,,,,,,,,,,,,,,,,,,,,,,,,,,,,,,,,,,,,,,,,,,,,,,,,,,,,,,,,,
0,52,52,89,1,,5f5e7de4c81d3672642cd612,62c539b6c914d34f9b3fff55,2022-07-06_09h29.18.874,Colour_Asymmetry_Pilot,2022.1.3,Win32,59.56990528,62c50e9c1127f2cd403a315f,,,,,,,,,,,,,,,,,,,,,,,,,,,,,,,,,,,,,,,,,,,,,,,,,,,,,,,,,,,,,,,,,,,,,,,,,,,,,,,,,,,,,,,,,,,,,,,,,,,,,,,,,,,,,,,,,,,,,,,,,,,,,,,,,,,,,,,,,,,,,,,,,,,,,,,,,,,,,,,,,,,
0,53,53,90,1,,5f5e7de4c81d3672642cd612,62c539b6c914d34f9b3fff55,2022-07-06_09h29.18.874,Colour_Asymmetry_Pilot,2022.1.3,Win32,59.56990528,62c50e9c1127f2cd403a315f,,,,,,,,,,,,,,,,,,,,,,,,,,,,,,,,,,,,,,,,,,,,,,,,,,,,,,,,,,,,,,,,,,,,,,,,,,,,,,,,,,,,,,,,,,,,,,,,,,,,,,,,,,,,,,,,,,,,,,,,,,,,,,,,,,,,,,,,,,,,,,,,,,,,,,,,,,,,,,,,,,,
0,54,54,11,1,,5f5e7de4c81d3672642cd612,62c539b6c914d34f9b3fff55,2022-07-06_09h29.18.874,Colour_Asymmetry_Pilot,2022.1.3,Win32,59.56990528,62c50e9c1127f2cd403a315f,,,,,,,,,,,,,,,,,,,,,,,,,,,,,,,,,,,,,,,,,,,,,,,,,,,,,,,,,,,,,,,,,,,,,,,,,,,,,,,,,,,,,,,,,,,,,,,,,,,,,,,,,,,,,,,,,,,,,,,,,,,,,,,,,,,,,,,,,,,,,,,,,,,,,,,,,,,,,,,,,,,
0,55,55,47,1,,5f5e7de4c81d3672642cd612,62c539b6c914d34f9b3fff55,2022-07-06_09h29.18.874,Colour_Asymmetry_Pilot,2022.1.3,Win32,59.56990528,62c50e9c1127f2cd403a315f,,,,,,,,,,,,,,,,,,,,,,,,,,,,,,,,,,,,,,,,,,,,,,,,,,,,,,,,,,,,,,,,,,,,,,,,,,,,,,,,,,,,,,,,,,,,,,,,,,,,,,,,,,,,,,,,,,,,,,,,,,,,,,,,,,,,,,,,,,,,,,,,,,,,,,,,,,,,,,,,,,,
0,56,56,63,1,,5f5e7de4c81d3672642cd612,62c539b6c914d34f9b3fff55,2022-07-06_09h29.18.874,Colour_Asymmetry_Pilot,2022.1.3,Win32,59.56990528,62c50e9c1127f2cd403a315f,,,,,,,,,,,,,,,,,,,,,,,,,,,,,,,,,,,,,,,,,,,,,,,,,,,,,,,,,,,,,,,,,,,,,,,,,,,,,,,,,,,,,,,,,,,,,,,,,,,,,,,,,,,,,,,,,,,,,,,,,,,,,,,,,,,,,,,,,,,,,,,,,,,,,,,,,,,,,,,,,,,
0,57,57,52,1,,5f5e7de4c81d3672642cd612,62c539b6c914d34f9b3fff55,2022-07-06_09h29.18.874,Colour_Asymmetry_Pilot,2022.1.3,Win32,59.56990528,62c50e9c1127f2cd403a315f,,,,,,,,,,,,,,,,,,,,,,,,,,,,,,,,,,,,,,,,,,,,,,,,,,,,,,,,,,,,,,,,,,,,,,,,,,,,,,,,,,,,,,,,,,,,,,,,,,,,,,,,,,,,,,,,,,,,,,,,,,,,,,,,,,,,,,,,,,,,,,,,,,,,,,,,,,,,,,,,,,,
0,58,58,29,1,,5f5e7de4c81d3672642cd612,62c539b6c914d34f9b3fff55,2022-07-06_09h29.18.874,Colour_Asymmetry_Pilot,2022.1.3,Win32,59.56990528,62c50e9c1127f2cd403a315f,,,,,,,,,,,,,,,,,,,,,,,,,,,,,,,,,,,,,,,,,,,,,,,,,,,,,,,,,,,,,,,,,,,,,,,,,,,,,,,,,,,,,,,,,,,,,,,,,,,,,,,,,,,,,,,,,,,,,,,,,,,,,,,,,,,,,,,,,,,,,,,,,,,,,,,,,,,,,,,,,,,
0,59,59,22,1,,5f5e7de4c81d3672642cd612,62c539b6c914d34f9b3fff55,2022-07-06_09h29.18.874,Colour_Asymmetry_Pilot,2022.1.3,Win32,59.56990528,62c50e9c1127f2cd403a315f,,,,,,,,,,,,,,,,,,,,,,,,,,,,,,,,,,,,,,,,,,,,,,,,,,,,,,,,,,,,,,,,,,,,,,,,,,,,,,,,,,,,,,,,,,,,,,,,,,,,,,,,,,,,,,,,,,,,,,,,,,,,,,,,,,,,,,,,,,,,,,,,,,,,,,,,,,,,,,,,,,,
0,60,60,81,1,,5f5e7de4c81d3672642cd612,62c539b6c914d34f9b3fff55,2022-07-06_09h29.18.874,Colour_Asymmetry_Pilot,2022.1.3,Win32,59.56990528,62c50e9c1127f2cd403a315f,,,,,,,,,,,,,,,,,,,,,,,,,,,,,,,,,,,,,,,,,,,,,,,,,,,,,,,,,,,,,,,,,,,,,,,,,,,,,,,,,,,,,,,,,,,,,,,,,,,,,,,,,,,,,,,,,,,,,,,,,,,,,,,,,,,,,,,,,,,,,,,,,,,,,,,,,,,,,,,,,,,
0,61,61,16,1,,5f5e7de4c81d3672642cd612,62c539b6c914d34f9b3fff55,2022-07-06_09h29.18.874,Colour_Asymmetry_Pilot,2022.1.3,Win32,59.56990528,62c50e9c1127f2cd403a315f,,,,,,,,,,,,,,,,,,,,,,,,,,,,,,,,,,,,,,,,,,,,,,,,,,,,,,,,,,,,,,,,,,,,,,,,,,,,,,,,,,,,,,,,,,,,,,,,,,,,,,,,,,,,,,,,,,,,,,,,,,,,,,,,,,,,,,,,,,,,,,,,,,,,,,,,,,,,,,,,,,,
0,62,62,27,1,,5f5e7de4c81d3672642cd612,62c539b6c914d34f9b3fff55,2022-07-06_09h29.18.874,Colour_Asymmetry_Pilot,2022.1.3,Win32,59.56990528,62c50e9c1127f2cd403a315f,,,,,,,,,,,,,,,,,,,,,,,,,,,,,,,,,,,,,,,,,,,,,,,,,,,,,,,,,,,,,,,,,,,,,,,,,,,,,,,,,,,,,,,,,,,,,,,,,,,,,,,,,,,,,,,,,,,,,,,,,,,,,,,,,,,,,,,,,,,,,,,,,,,,,,,,,,,,,,,,,,,
0,63,63,82,1,,5f5e7de4c81d3672642cd612,62c539b6c914d34f9b3fff55,2022-07-06_09h29.18.874,Colour_Asymmetry_Pilot,2022.1.3,Win32,59.56990528,62c50e9c1127f2cd403a315f,,,,,,,,,,,,,,,,,,,,,,,,,,,,,,,,,,,,,,,,,,,,,,,,,,,,,,,,,,,,,,,,,,,,,,,,,,,,,,,,,,,,,,,,,,,,,,,,,,,,,,,,,,,,,,,,,,,,,,,,,,,,,,,,,,,,,,,,,,,,,,,,,,,,,,,,,,,,,,,,,,,
0,64,64,46,1,,5f5e7de4c81d3672642cd612,62c539b6c914d34f9b3fff55,2022-07-06_09h29.18.874,Colour_Asymmetry_Pilot,2022.1.3,Win32,59.56990528,62c50e9c1127f2cd403a315f,,,,,,,,,,,,,,,,,,,,,,,,,,,,,,,,,,,,,,,,,,,,,,,,,,,,,,,,,,,,,,,,,,,,,,,,,,,,,,,,,,,,,,,,,,,,,,,,,,,,,,,,,,,,,,,,,,,,,,,,,,,,,,,,,,,,,,,,,,,,,,,,,,,,,,,,,,,,,,,,,,,
0,65,65,68,1,,5f5e7de4c81d3672642cd612,62c539b6c914d34f9b3fff55,2022-07-06_09h29.18.874,Colour_Asymmetry_Pilot,2022.1.3,Win32,59.56990528,62c50e9c1127f2cd403a315f,,,,,,,,,,,,,,,,,,,,,,,,,,,,,,,,,,,,,,,,,,,,,,,,,,,,,,,,,,,,,,,,,,,,,,,,,,,,,,,,,,,,,,,,,,,,,,,,,,,,,,,,,,,,,,,,,,,,,,,,,,,,,,,,,,,,,,,,,,,,,,,,,,,,,,,,,,,,,,,,,,,
0,66,66,1,1,,5f5e7de4c81d3672642cd612,62c539b6c914d34f9b3fff55,2022-07-06_09h29.18.874,Colour_Asymmetry_Pilot,2022.1.3,Win32,59.56990528,62c50e9c1127f2cd403a315f,,,,,,,,,,,,,,,,,,,,,,,,,,,,,,,,,,,,,,,,,,,,,,,,,,,,,,,,,,,,,,,,,,,,,,,,,,,,,,,,,,,,,,,,,,,,,,,,,,,,,,,,,,,,,,,,,,,,,,,,,,,,,,,,,,,,,,,,,,,,,,,,,,,,,,,,,,,,,,,,,,,
0,67,67,77,1,,5f5e7de4c81d3672642cd612,62c539b6c914d34f9b3fff55,2022-07-06_09h29.18.874,Colour_Asymmetry_Pilot,2022.1.3,Win32,59.56990528,62c50e9c1127f2cd403a315f,,,,,,,,,,,,,,,,,,,,,,,,,,,,,,,,,,,,,,,,,,,,,,,,,,,,,,,,,,,,,,,,,,,,,,,,,,,,,,,,,,,,,,,,,,,,,,,,,,,,,,,,,,,,,,,,,,,,,,,,,,,,,,,,,,,,,,,,,,,,,,,,,,,,,,,,,,,,,,,,,,,
0,68,68,36,1,,5f5e7de4c81d3672642cd612,62c539b6c914d34f9b3fff55,2022-07-06_09h29.18.874,Colour_Asymmetry_Pilot,2022.1.3,Win32,59.56990528,62c50e9c1127f2cd403a315f,,,,,,,,,,,,,,,,,,,,,,,,,,,,,,,,,,,,,,,,,,,,,,,,,,,,,,,,,,,,,,,,,,,,,,,,,,,,,,,,,,,,,,,,,,,,,,,,,,,,,,,,,,,,,,,,,,,,,,,,,,,,,,,,,,,,,,,,,,,,,,,,,,,,,,,,,,,,,,,,,,,
0,69,69,37,1,,5f5e7de4c81d3672642cd612,62c539b6c914d34f9b3fff55,2022-07-06_09h29.18.874,Colour_Asymmetry_Pilot,2022.1.3,Win32,59.56990528,62c50e9c1127f2cd403a315f,,,,,,,,,,,,,,,,,,,,,,,,,,,,,,,,,,,,,,,,,,,,,,,,,,,,,,,,,,,,,,,,,,,,,,,,,,,,,,,,,,,,,,,,,,,,,,,,,,,,,,,,,,,,,,,,,,,,,,,,,,,,,,,,,,,,,,,,,,,,,,,,,,,,,,,,,,,,,,,,,,,
0,70,70,5,1,,5f5e7de4c81d3672642cd612,62c539b6c914d34f9b3fff55,2022-07-06_09h29.18.874,Colour_Asymmetry_Pilot,2022.1.3,Win32,59.56990528,62c50e9c1127f2cd403a315f,,,,,,,,,,,,,,,,,,,,,,,,,,,,,,,,,,,,,,,,,,,,,,,,,,,,,,,,,,,,,,,,,,,,,,,,,,,,,,,,,,,,,,,,,,,,,,,,,,,,,,,,,,,,,,,,,,,,,,,,,,,,,,,,,,,,,,,,,,,,,,,,,,,,,,,,,,,,,,,,,,,
0,71,71,74,1,,5f5e7de4c81d3672642cd612,62c539b6c914d34f9b3fff55,2022-07-06_09h29.18.874,Colour_Asymmetry_Pilot,2022.1.3,Win32,59.56990528,62c50e9c1127f2cd403a315f,,,,,,,,,,,,,,,,,,,,,,,,,,,,,,,,,,,,,,,,,,,,,,,,,,,,,,,,,,,,,,,,,,,,,,,,,,,,,,,,,,,,,,,,,,,,,,,,,,,,,,,,,,,,,,,,,,,,,,,,,,,,,,,,,,,,,,,,,,,,,,,,,,,,,,,,,,,,,,,,,,,
0,72,72,62,1,,5f5e7de4c81d3672642cd612,62c539b6c914d34f9b3fff55,2022-07-06_09h29.18.874,Colour_Asymmetry_Pilot,2022.1.3,Win32,59.56990528,62c50e9c1127f2cd403a315f,,,,,,,,,,,,,,,,,,,,,,,,,,,,,,,,,,,,,,,,,,,,,,,,,,,,,,,,,,,,,,,,,,,,,,,,,,,,,,,,,,,,,,,,,,,,,,,,,,,,,,,,,,,,,,,,,,,,,,,,,,,,,,,,,,,,,,,,,,,,,,,,,,,,,,,,,,,,,,,,,,,
0,73,73,66,1,,5f5e7de4c81d3672642cd612,62c539b6c914d34f9b3fff55,2022-07-06_09h29.18.874,Colour_Asymmetry_Pilot,2022.1.3,Win32,59.56990528,62c50e9c1127f2cd403a315f,,,,,,,,,,,,,,,,,,,,,,,,,,,,,,,,,,,,,,,,,,,,,,,,,,,,,,,,,,,,,,,,,,,,,,,,,,,,,,,,,,,,,,,,,,,,,,,,,,,,,,,,,,,,,,,,,,,,,,,,,,,,,,,,,,,,,,,,,,,,,,,,,,,,,,,,,,,,,,,,,,,
0,74,74,0,1,,5f5e7de4c81d3672642cd612,62c539b6c914d34f9b3fff55,2022-07-06_09h29.18.874,Colour_Asymmetry_Pilot,2022.1.3,Win32,59.56990528,62c50e9c1127f2cd403a315f,,,,,,,,,,,,,,,,,,,,,,,,,,,,,,,,,,,,,,,,,,,,,,,,,,,,,,,,,,,,,,,,,,,,,,,,,,,,,,,,,,,,,,,,,,,,,,,,,,,,,,,,,,,,,,,,,,,,,,,,,,,,,,,,,,,,,,,,,,,,,,,,,,,,,,,,,,,,,,,,,,,
0,75,75,49,1,,5f5e7de4c81d3672642cd612,62c539b6c914d34f9b3fff55,2022-07-06_09h29.18.874,Colour_Asymmetry_Pilot,2022.1.3,Win32,59.56990528,62c50e9c1127f2cd403a315f,,,,,,,,,,,,,,,,,,,,,,,,,,,,,,,,,,,,,,,,,,,,,,,,,,,,,,,,,,,,,,,,,,,,,,,,,,,,,,,,,,,,,,,,,,,,,,,,,,,,,,,,,,,,,,,,,,,,,,,,,,,,,,,,,,,,,,,,,,,,,,,,,,,,,,,,,,,,,,,,,,,
0,76,76,32,1,,5f5e7de4c81d3672642cd612,62c539b6c914d34f9b3fff55,2022-07-06_09h29.18.874,Colour_Asymmetry_Pilot,2022.1.3,Win32,59.56990528,62c50e9c1127f2cd403a315f,,,,,,,,,,,,,,,,,,,,,,,,,,,,,,,,,,,,,,,,,,,,,,,,,,,,,,,,,,,,,,,,,,,,,,,,,,,,,,,,,,,,,,,,,,,,,,,,,,,,,,,,,,,,,,,,,,,,,,,,,,,,,,,,,,,,,,,,,,,,,,,,,,,,,,,,,,,,,,,,,,,
0,77,77,60,1,,5f5e7de4c81d3672642cd612,62c539b6c914d34f9b3fff55,2022-07-06_09h29.18.874,Colour_Asymmetry_Pilot,2022.1.3,Win32,59.56990528,62c50e9c1127f2cd403a315f,,,,,,,,,,,,,,,,,,,,,,,,,,,,,,,,,,,,,,,,,,,,,,,,,,,,,,,,,,,,,,,,,,,,,,,,,,,,,,,,,,,,,,,,,,,,,,,,,,,,,,,,,,,,,,,,,,,,,,,,,,,,,,,,,,,,,,,,,,,,,,,,,,,,,,,,,,,,,,,,,,,
0,78,78,24,1,,5f5e7de4c81d3672642cd612,62c539b6c914d34f9b3fff55,2022-07-06_09h29.18.874,Colour_Asymmetry_Pilot,2022.1.3,Win32,59.56990528,62c50e9c1127f2cd403a315f,,,,,,,,,,,,,,,,,,,,,,,,,,,,,,,,,,,,,,,,,,,,,,,,,,,,,,,,,,,,,,,,,,,,,,,,,,,,,,,,,,,,,,,,,,,,,,,,,,,,,,,,,,,,,,,,,,,,,,,,,,,,,,,,,,,,,,,,,,,,,,,,,,,,,,,,,,,,,,,,,,,
0,79,79,88,1,,5f5e7de4c81d3672642cd612,62c539b6c914d34f9b3fff55,2022-07-06_09h29.18.874,Colour_Asymmetry_Pilot,2022.1.3,Win32,59.56990528,62c50e9c1127f2cd403a315f,,,,,,,,,,,,,,,,,,,,,,,,,,,,,,,,,,,,,,,,,,,,,,,,,,,,,,,,,,,,,,,,,,,,,,,,,,,,,,,,,,,,,,,,,,,,,,,,,,,,,,,,,,,,,,,,,,,,,,,,,,,,,,,,,,,,,,,,,,,,,,,,,,,,,,,,,,,,,,,,,,,
0,80,80,92,1,,5f5e7de4c81d3672642cd612,62c539b6c914d34f9b3fff55,2022-07-06_09h29.18.874,Colour_Asymmetry_Pilot,2022.1.3,Win32,59.56990528,62c50e9c1127f2cd403a315f,,,,,,,,,,,,,,,,,,,,,,,,,,,,,,,,,,,,,,,,,,,,,,,,,,,,,,,,,,,,,,,,,,,,,,,,,,,,,,,,,,,,,,,,,,,,,,,,,,,,,,,,,,,,,,,,,,,,,,,,,,,,,,,,,,,,,,,,,,,,,,,,,,,,,,,,,,,,,,,,,,,
0,81,81,83,1,,5f5e7de4c81d3672642cd612,62c539b6c914d34f9b3fff55,2022-07-06_09h29.18.874,Colour_Asymmetry_Pilot,2022.1.3,Win32,59.56990528,62c50e9c1127f2cd403a315f,,,,,,,,,,,,,,,,,,,,,,,,,,,,,,,,,,,,,,,,,,,,,,,,,,,,,,,,,,,,,,,,,,,,,,,,,,,,,,,,,,,,,,,,,,,,,,,,,,,,,,,,,,,,,,,,,,,,,,,,,,,,,,,,,,,,,,,,,,,,,,,,,,,,,,,,,,,,,,,,,,,
0,82,82,9,1,,5f5e7de4c81d3672642cd612,62c539b6c914d34f9b3fff55,2022-07-06_09h29.18.874,Colour_Asymmetry_Pilot,2022.1.3,Win32,59.56990528,62c50e9c1127f2cd403a315f,,,,,,,,,,,,,,,,,,,,,,,,,,,,,,,,,,,,,,,,,,,,,,,,,,,,,,,,,,,,,,,,,,,,,,,,,,,,,,,,,,,,,,,,,,,,,,,,,,,,,,,,,,,,,,,,,,,,,,,,,,,,,,,,,,,,,,,,,,,,,,,,,,,,,,,,,,,,,,,,,,,
0,83,83,44,1,,5f5e7de4c81d3672642cd612,62c539b6c914d34f9b3fff55,2022-07-06_09h29.18.874,Colour_Asymmetry_Pilot,2022.1.3,Win32,59.56990528,62c50e9c1127f2cd403a315f,,,,,,,,,,,,,,,,,,,,,,,,,,,,,,,,,,,,,,,,,,,,,,,,,,,,,,,,,,,,,,,,,,,,,,,,,,,,,,,,,,,,,,,,,,,,,,,,,,,,,,,,,,,,,,,,,,,,,,,,,,,,,,,,,,,,,,,,,,,,,,,,,,,,,,,,,,,,,,,,,,,
0,84,84,54,1,,5f5e7de4c81d3672642cd612,62c539b6c914d34f9b3fff55,2022-07-06_09h29.18.874,Colour_Asymmetry_Pilot,2022.1.3,Win32,59.56990528,62c50e9c1127f2cd403a315f,,,,,,,,,,,,,,,,,,,,,,,,,,,,,,,,,,,,,,,,,,,,,,,,,,,,,,,,,,,,,,,,,,,,,,,,,,,,,,,,,,,,,,,,,,,,,,,,,,,,,,,,,,,,,,,,,,,,,,,,,,,,,,,,,,,,,,,,,,,,,,,,,,,,,,,,,,,,,,,,,,,
0,85,85,41,1,,5f5e7de4c81d3672642cd612,62c539b6c914d34f9b3fff55,2022-07-06_09h29.18.874,Colour_Asymmetry_Pilot,2022.1.3,Win32,59.56990528,62c50e9c1127f2cd403a315f,,,,,,,,,,,,,,,,,,,,,,,,,,,,,,,,,,,,,,,,,,,,,,,,,,,,,,,,,,,,,,,,,,,,,,,,,,,,,,,,,,,,,,,,,,,,,,,,,,,,,,,,,,,,,,,,,,,,,,,,,,,,,,,,,,,,,,,,,,,,,,,,,,,,,,,,,,,,,,,,,,,
0,86,86,21,1,,5f5e7de4c81d3672642cd612,62c539b6c914d34f9b3fff55,2022-07-06_09h29.18.874,Colour_Asymmetry_Pilot,2022.1.3,Win32,59.56990528,62c50e9c1127f2cd403a315f,,,,,,,,,,,,,,,,,,,,,,,,,,,,,,,,,,,,,,,,,,,,,,,,,,,,,,,,,,,,,,,,,,,,,,,,,,,,,,,,,,,,,,,,,,,,,,,,,,,,,,,,,,,,,,,,,,,,,,,,,,,,,,,,,,,,,,,,,,,,,,,,,,,,,,,,,,,,,,,,,,,
0,87,87,8,1,,5f5e7de4c81d3672642cd612,62c539b6c914d34f9b3fff55,2022-07-06_09h29.18.874,Colour_Asymmetry_Pilot,2022.1.3,Win32,59.56990528,62c50e9c1127f2cd403a315f,,,,,,,,,,,,,,,,,,,,,,,,,,,,,,,,,,,,,,,,,,,,,,,,,,,,,,,,,,,,,,,,,,,,,,,,,,,,,,,,,,,,,,,,,,,,,,,,,,,,,,,,,,,,,,,,,,,,,,,,,,,,,,,,,,,,,,,,,,,,,,,,,,,,,,,,,,,,,,,,,,,
0,88,88,53,1,,5f5e7de4c81d3672642cd612,62c539b6c914d34f9b3fff55,2022-07-06_09h29.18.874,Colour_Asymmetry_Pilot,2022.1.3,Win32,59.56990528,62c50e9c1127f2cd403a315f,,,,,,,,,,,,,,,,,,,,,,,,,,,,,,,,,,,,,,,,,,,,,,,,,,,,,,,,,,,,,,,,,,,,,,,,,,,,,,,,,,,,,,,,,,,,,,,,,,,,,,,,,,,,,,,,,,,,,,,,,,,,,,,,,,,,,,,,,,,,,,,,,,,,,,,,,,,,,,,,,,,
0,89,89,4,1,,5f5e7de4c81d3672642cd612,62c539b6c914d34f9b3fff55,2022-07-06_09h29.18.874,Colour_Asymmetry_Pilot,2022.1.3,Win32,59.56990528,62c50e9c1127f2cd403a315f,,,,,,,,,,,,,,,,,,,,,,,,,,,,,,,,,,,,,,,,,,,,,,,,,,,,,,,,,,,,,,,,,,,,,,,,,,,,,,,,,,,,,,,,,,,,,,,,,,,,,,,,,,,,,,,,,,,,,,,,,,,,,,,,,,,,,,,,,,,,,,,,,,,,,,,,,,,,,,,,,,,
0,90,90,28,1,,5f5e7de4c81d3672642cd612,62c539b6c914d34f9b3fff55,2022-07-06_09h29.18.874,Colour_Asymmetry_Pilot,2022.1.3,Win32,59.56990528,62c50e9c1127f2cd403a315f,,,,,,,,,,,,,,,,,,,,,,,,,,,,,,,,,,,,,,,,,,,,,,,,,,,,,,,,,,,,,,,,,,,,,,,,,,,,,,,,,,,,,,,,,,,,,,,,,,,,,,,,,,,,,,,,,,,,,,,,,,,,,,,,,,,,,,,,,,,,,,,,,,,,,,,,,,,,,,,,,,,
0,91,91,34,1,,5f5e7de4c81d3672642cd612,62c539b6c914d34f9b3fff55,2022-07-06_09h29.18.874,Colour_Asymmetry_Pilot,2022.1.3,Win32,59.56990528,62c50e9c1127f2cd403a315f,,,,,,,,,,,,,,,,,,,,,,,,,,,,,,,,,,,,,,,,,,,,,,,,,,,,,,,,,,,,,,,,,,,,,,,,,,,,,,,,,,,,,,,,,,,,,,,,,,,,,,,,,,,,,,,,,,,,,,,,,,,,,,,,,,,,,,,,,,,,,,,,,,,,,,,,,,,,,,,,,,,
0,92,92,56,1,,5f5e7de4c81d3672642cd612,62c539b6c914d34f9b3fff55,2022-07-06_09h29.18.874,Colour_Asymmetry_Pilot,2022.1.3,Win32,59.56990528,62c50e9c1127f2cd403a315f,,,,,,,,,,,,,,,,,,,,,,,,,,,,,,,,,,,,,,,,,,,,,,,,,,,,,,,,,,,,,,,,,,,,,,,,,,,,,,,,,,,,,,,,,,,,,,,,,,,,,,,,,,,,,,,,,,,,,,,,,,,,,,,,,,,,,,,,,,,,,,,,,,,,,,,,,,,,,,,,,,,
,,,,,,5f5e7de4c81d3672642cd612,62c539b6c914d34f9b3fff55,2022-07-06_09h29.18.874,Colour_Asymmetry_Pilot,2022.1.3,Win32,59.56990528,62c50e9c1127f2cd403a315f,0,0,0,76,1,threeone,,,,,,,,,,,,,,,,,,,,,,,,,,,,,,,,,,,,,,,,,,,,,,,,,,,,,,,,,,,,,,,,,,,,,,,,,,,,,,,,,,,,,,,,,,,,,,,,,,,,,,,,,,,,,,,,,,,,,,,,,,,,,,,,,,,,,,,,,,,,,,,,,,,,,,,,,,,,,
,,,,,,5f5e7de4c81d3672642cd612,62c539b6c914d34f9b3fff55,2022-07-06_09h29.18.874,Colour_Asymmetry_Pilot,2022.1.3,Win32,59.56990528,62c50e9c1127f2cd403a315f,0,1,1,99,1,twofour,,,,,,,,,,,,,,,,,,,,,,,,,,,,,,,,,,,,,,,,,,,,,,,,,,,,,,,,,,,,,,,,,,,,,,,,,,,,,,,,,,,,,,,,,,,,,,,,,,,,,,,,,,,,,,,,,,,,,,,,,,,,,,,,,,,,,,,,,,,,,,,,,,,,,,,,,,,,,
,,,,,,5f5e7de4c81d3672642cd612,62c539b6c914d34f9b3fff55,2022-07-06_09h29.18.874,Colour_Asymmetry_Pilot,2022.1.3,Win32,59.56990528,62c50e9c1127f2cd403a315f,0,2,2,71,1,fourthree,,,,,,,,,,,,,,,,,,,,,,,,,,,,,,,,,,,,,,,,,,,,,,,,,,,,,,,,,,,,,,,,,,,,,,,,,,,,,,,,,,,,,,,,,,,,,,,,,,,,,,,,,,,,,,,,,,,,,,,,,,,,,,,,,,,,,,,,,,,,,,,,,,,,,,,,,,,,,
,,,,,,5f5e7de4c81d3672642cd612,62c539b6c914d34f9b3fff55,2022-07-06_09h29.18.874,Colour_Asymmetry_Pilot,2022.1.3,Win32,59.56990528,62c50e9c1127f2cd403a315f,0,3,3,97,1,onethree,,,,,,,,,,,,,,,,,,,,,,,,,,,,,,,,,,,,,,,,,,,,,,,,,,,,,,,,,,,,,,,,,,,,,,,,,,,,,,,,,,,,,,,,,,,,,,,,,,,,,,,,,,,,,,,,,,,,,,,,,,,,,,,,,,,,,,,,,,,,,,,,,,,,,,,,,,,,,
,,,,,,5f5e7de4c81d3672642cd612,62c539b6c914d34f9b3fff55,2022-07-06_09h29.18.874,Colour_Asymmetry_Pilot,2022.1.3,Win32,59.56990528,62c50e9c1127f2cd403a315f,0,4,4,17,1,onethree,,,,,,,,,,,,,,,,,,,,,,,,,,,,,,,,,,,,,,,,,,,,,,,,,,,,,,,,,,,,,,,,,,,,,,,,,,,,,,,,,,,,,,,,,,,,,,,,,,,,,,,,,,,,,,,,,,,,,,,,,,,,,,,,,,,,,,,,,,,,,,,,,,,,,,,,,,,,,
,,,,,,5f5e7de4c81d3672642cd612,62c539b6c914d34f9b3fff55,2022-07-06_09h29.18.874,Colour_Asymmetry_Pilot,2022.1.3,Win32,59.56990528,62c50e9c1127f2cd403a315f,0,5,5,18,1,twoone,,,,,,,,,,,,,,,,,,,,,,,,,,,,,,,,,,,,,,,,,,,,,,,,,,,,,,,,,,,,,,,,,,,,,,,,,,,,,,,,,,,,,,,,,,,,,,,,,,,,,,,,,,,,,,,,,,,,,,,,,,,,,,,,,,,,,,,,,,,,,,,,,,,,,,,,,,,,,
,,,,,,5f5e7de4c81d3672642cd612,62c539b6c914d34f9b3fff55,2022-07-06_09h29.18.874,Colour_Asymmetry_Pilot,2022.1.3,Win32,59.56990528,62c50e9c1127f2cd403a315f,0,6,6,2,1,twoone,,,,,,,,,,,,,,,,,,,,,,,,,,,,,,,,,,,,,,,,,,,,,,,,,,,,,,,,,,,,,,,,,,,,,,,,,,,,,,,,,,,,,,,,,,,,,,,,,,,,,,,,,,,,,,,,,,,,,,,,,,,,,,,,,,,,,,,,,,,,,,,,,,,,,,,,,,,,,
,,,,,,5f5e7de4c81d3672642cd612,62c539b6c914d34f9b3fff55,2022-07-06_09h29.18.874,Colour_Asymmetry_Pilot,2022.1.3,Win32,59.56990528,62c50e9c1127f2cd403a315f,0,7,7,57,1,onethree,,,,,,,,,,,,,,,,,,,,,,,,,,,,,,,,,,,,,,,,,,,,,,,,,,,,,,,,,,,,,,,,,,,,,,,,,,,,,,,,,,,,,,,,,,,,,,,,,,,,,,,,,,,,,,,,,,,,,,,,,,,,,,,,,,,,,,,,,,,,,,,,,,,,,,,,,,,,,
,,,,,,5f5e7de4c81d3672642cd612,62c539b6c914d34f9b3fff55,2022-07-06_09h29.18.874,Colour_Asymmetry_Pilot,2022.1.3,Win32,59.56990528,62c50e9c1127f2cd403a315f,0,8,8,102,1,fourtwo,,,,,,,,,,,,,,,,,,,,,,,,,,,,,,,,,,,,,,,,,,,,,,,,,,,,,,,,,,,,,,,,,,,,,,,,,,,,,,,,,,,,,,,,,,,,,,,,,,,,,,,,,,,,,,,,,,,,,,,,,,,,,,,,,,,,,,,,,,,,,,,,,,,,,,,,,,,,,
,,,,,,5f5e7de4c81d3672642cd612,62c539b6c914d34f9b3fff55,2022-07-06_09h29.18.874,Colour_Asymmetry_Pilot,2022.1.3,Win32,59.56990528,62c50e9c1127f2cd403a315f,0,9,9,139,1,twofour,,,,,,,,,,,,,,,,,,,,,,,,,,,,,,,,,,,,,,,,,,,,,,,,,,,,,,,,,,,,,,,,,,,,,,,,,,,,,,,,,,,,,,,,,,,,,,,,,,,,,,,,,,,,,,,,,,,,,,,,,,,,,,,,,,,,,,,,,,,,,,,,,,,,,,,,,,,,,
,,,,,,5f5e7de4c81d3672642cd612,62c539b6c914d34f9b3fff55,2022-07-06_09h29.18.874,Colour_Asymmetry_Pilot,2022.1.3,Win32,59.56990528,62c50e9c1127f2cd403a315f,0,10,10,158,1,fourtwo,,,,,,,,,,,,,,,,,,,,,,,,,,,,,,,,,,,,,,,,,,,,,,,,,,,,,,,,,,,,,,,,,,,,,,,,,,,,,,,,,,,,,,,,,,,,,,,,,,,,,,,,,,,,,,,,,,,,,,,,,,,,,,,,,,,,,,,,,,,,,,,,,,,,,,,,,,,,,
,,,,,,5f5e7de4c81d3672642cd612,62c539b6c914d34f9b3fff55,2022-07-06_09h29.18.874,Colour_Asymmetry_Pilot,2022.1.3,Win32,59.56990528,62c50e9c1127f2cd403a315f,0,11,11,156,1,threeone,,,,,,,,,,,,,,,,,,,,,,,,,,,,,,,,,,,,,,,,,,,,,,,,,,,,,,,,,,,,,,,,,,,,,,,,,,,,,,,,,,,,,,,,,,,,,,,,,,,,,,,,,,,,,,,,,,,,,,,,,,,,,,,,,,,,,,,,,,,,,,,,,,,,,,,,,,,,,
,,,,,,5f5e7de4c81d3672642cd612,62c539b6c914d34f9b3fff55,2022-07-06_09h29.18.874,Colour_Asymmetry_Pilot,2022.1.3,Win32,59.56990528,62c50e9c1127f2cd403a315f,0,12,12,145,1,onethree,,,,,,,,,,,,,,,,,,,,,,,,,,,,,,,,,,,,,,,,,,,,,,,,,,,,,,,,,,,,,,,,,,,,,,,,,,,,,,,,,,,,,,,,,,,,,,,,,,,,,,,,,,,,,,,,,,,,,,,,,,,,,,,,,,,,,,,,,,,,,,,,,,,,,,,,,,,,,
,,,,,,5f5e7de4c81d3672642cd612,62c539b6c914d34f9b3fff55,2022-07-06_09h29.18.874,Colour_Asymmetry_Pilot,2022.1.3,Win32,59.56990528,62c50e9c1127f2cd403a315f,0,13,13,23,1,fourthree,,,,,,,,,,,,,,,,,,,,,,,,,,,,,,,,,,,,,,,,,,,,,,,,,,,,,,,,,,,,,,,,,,,,,,,,,,,,,,,,,,,,,,,,,,,,,,,,,,,,,,,,,,,,,,,,,,,,,,,,,,,,,,,,,,,,,,,,,,,,,,,,,,,,,,,,,,,,,
,,,,,,5f5e7de4c81d3672642cd612,62c539b6c914d34f9b3fff55,2022-07-06_09h29.18.874,Colour_Asymmetry_Pilot,2022.1.3,Win32,59.56990528,62c50e9c1127f2cd403a315f,0,14,14,69,1,threefour,,,,,,,,,,,,,,,,,,,,,,,,,,,,,,,,,,,,,,,,,,,,,,,,,,,,,,,,,,,,,,,,,,,,,,,,,,,,,,,,,,,,,,,,,,,,,,,,,,,,,,,,,,,,,,,,,,,,,,,,,,,,,,,,,,,,,,,,,,,,,,,,,,,,,,,,,,,,,
,,,,,,5f5e7de4c81d3672642cd612,62c539b6c914d34f9b3fff55,2022-07-06_09h29.18.874,Colour_Asymmetry_Pilot,2022.1.3,Win32,59.56990528,62c50e9c1127f2cd403a315f,0,15,15,73,1,onethree,,,,,,,,,,,,,,,,,,,,,,,,,,,,,,,,,,,,,,,,,,,,,,,,,,,,,,,,,,,,,,,,,,,,,,,,,,,,,,,,,,,,,,,,,,,,,,,,,,,,,,,,,,,,,,,,,,,,,,,,,,,,,,,,,,,,,,,,,,,,,,,,,,,,,,,,,,,,,
,,,,,,5f5e7de4c81d3672642cd612,62c539b6c914d34f9b3fff55,2022-07-06_09h29.18.874,Colour_Asymmetry_Pilot,2022.1.3,Win32,59.56990528,62c50e9c1127f2cd403a315f,0,16,16,154,1,twoone,,,,,,,,,,,,,,,,,,,,,,,,,,,,,,,,,,,,,,,,,,,,,,,,,,,,,,,,,,,,,,,,,,,,,,,,,,,,,,,,,,,,,,,,,,,,,,,,,,,,,,,,,,,,,,,,,,,,,,,,,,,,,,,,,,,,,,,,,,,,,,,,,,,,,,,,,,,,,
,,,,,,5f5e7de4c81d3672642cd612,62c539b6c914d34f9b3fff55,2022-07-06_09h29.18.874,Colour_Asymmetry_Pilot,2022.1.3,Win32,59.56990528,62c50e9c1127f2cd403a315f,0,17,17,96,1,onetwo,,,,,,,,,,,,,,,,,,,,,,,,,,,,,,,,,,,,,,,,,,,,,,,,,,,,,,,,,,,,,,,,,,,,,,,,,,,,,,,,,,,,,,,,,,,,,,,,,,,,,,,,,,,,,,,,,,,,,,,,,,,,,,,,,,,,,,,,,,,,,,,,,,,,,,,,,,,,,
,,,,,,5f5e7de4c81d3672642cd612,62c539b6c914d34f9b3fff55,2022-07-06_09h29.18.874,Colour_Asymmetry_Pilot,2022.1.3,Win32,59.56990528,62c50e9c1127f2cd403a315f,0,18,18,33,1,onethree,,,,,,,,,,,,,,,,,,,,,,,,,,,,,,,,,,,,,,,,,,,,,,,,,,,,,,,,,,,,,,,,,,,,,,,,,,,,,,,,,,,,,,,,,,,,,,,,,,,,,,,,,,,,,,,,,,,,,,,,,,,,,,,,,,,,,,,,,,,,,,,,,,,,,,,,,,,,,
,,,,,,5f5e7de4c81d3672642cd612,62c539b6c914d34f9b3fff55,2022-07-06_09h29.18.874,Colour_Asymmetry_Pilot,2022.1.3,Win32,59.56990528,62c50e9c1127f2cd403a315f,0,19,19,126,1,fourtwo,,,,,,,,,,,,,,,,,,,,,,,,,,,,,,,,,,,,,,,,,,,,,,,,,,,,,,,,,,,,,,,,,,,,,,,,,,,,,,,,,,,,,,,,,,,,,,,,,,,,,,,,,,,,,,,,,,,,,,,,,,,,,,,,,,,,,,,,,,,,,,,,,,,,,,,,,,,,,
,,,,,,5f5e7de4c81d3672642cd612,62c539b6c914d34f9b3fff55,2022-07-06_09h29.18.874,Colour_Asymmetry_Pilot,2022.1.3,Win32,59.56990528,62c50e9c1127f2cd403a315f,0,20,20,61,1,threefour,,,,,,,,,,,,,,,,,,,,,,,,,,,,,,,,,,,,,,,,,,,,,,,,,,,,,,,,,,,,,,,,,,,,,,,,,,,,,,,,,,,,,,,,,,,,,,,,,,,,,,,,,,,,,,,,,,,,,,,,,,,,,,,,,,,,,,,,,,,,,,,,,,,,,,,,,,,,,
,,,,,,5f5e7de4c81d3672642cd612,62c539b6c914d34f9b3fff55,2022-07-06_09h29.18.874,Colour_Asymmetry_Pilot,2022.1.3,Win32,59.56990528,62c50e9c1127f2cd403a315f,0,21,21,30,1,fourtwo,,,,,,,,,,,,,,,,,,,,,,,,,,,,,,,,,,,,,,,,,,,,,,,,,,,,,,,,,,,,,,,,,,,,,,,,,,,,,,,,,,,,,,,,,,,,,,,,,,,,,,,,,,,,,,,,,,,,,,,,,,,,,,,,,,,,,,,,,,,,,,,,,,,,,,,,,,,,,
,,,,,,5f5e7de4c81d3672642cd612,62c539b6c914d34f9b3fff55,2022-07-06_09h29.18.874,Colour_Asymmetry_Pilot,2022.1.3,Win32,59.56990528,62c50e9c1127f2cd403a315f,0,22,22,1,1,onethree,,,,,,,,,,,,,,,,,,,,,,,,,,,,,,,,,,,,,,,,,,,,,,,,,,,,,,,,,,,,,,,,,,,,,,,,,,,,,,,,,,,,,,,,,,,,,,,,,,,,,,,,,,,,,,,,,,,,,,,,,,,,,,,,,,,,,,,,,,,,,,,,,,,,,,,,,,,,,
,,,,,,5f5e7de4c81d3672642cd612,62c539b6c914d34f9b3fff55,2022-07-06_09h29.18.874,Colour_Asymmetry_Pilot,2022.1.3,Win32,59.56990528,62c50e9c1127f2cd403a315f,0,23,23,118,1,fourtwo,,,,,,,,,,,,,,,,,,,,,,,,,,,,,,,,,,,,,,,,,,,,,,,,,,,,,,,,,,,,,,,,,,,,,,,,,,,,,,,,,,,,,,,,,,,,,,,,,,,,,,,,,,,,,,,,,,,,,,,,,,,,,,,,,,,,,,,,,,,,,,,,,,,,,,,,,,,,,
,,,,,,5f5e7de4c81d3672642cd612,62c539b6c914d34f9b3fff55,2022-07-06_09h29.18.874,Colour_Asymmetry_Pilot,2022.1.3,Win32,59.56990528,62c50e9c1127f2cd403a315f,0,24,24,146,1,twoone,,,,,,,,,,,,,,,,,,,,,,,,,,,,,,,,,,,,,,,,,,,,,,,,,,,,,,,,,,,,,,,,,,,,,,,,,,,,,,,,,,,,,,,,,,,,,,,,,,,,,,,,,,,,,,,,,,,,,,,,,,,,,,,,,,,,,,,,,,,,,,,,,,,,,,,,,,,,,
,,,,,,5f5e7de4c81d3672642cd612,62c539b6c914d34f9b3fff55,2022-07-06_09h29.18.874,Colour_Asymmetry_Pilot,2022.1.3,Win32,59.56990528,62c50e9c1127f2cd403a315f,0,25,25,70,1,fourtwo,,,,,,,,,,,,,,,,,,,,,,,,,,,,,,,,,,,,,,,,,,,,,,,,,,,,,,,,,,,,,,,,,,,,,,,,,,,,,,,,,,,,,,,,,,,,,,,,,,,,,,,,,,,,,,,,,,,,,,,,,,,,,,,,,,,,,,,,,,,,,,,,,,,,,,,,,,,,,
,,,,,,5f5e7de4c81d3672642cd612,62c539b6c914d34f9b3fff55,2022-07-06_09h29.18.874,Colour_Asymmetry_Pilot,2022.1.3,Win32,59.56990528,62c50e9c1127f2cd403a315f,0,26,26,14,1,fourtwo,,,,,,,,,,,,,,,,,,,,,,,,,,,,,,,,,,,,,,,,,,,,,,,,,,,,,,,,,,,,,,,,,,,,,,,,,,,,,,,,,,,,,,,,,,,,,,,,,,,,,,,,,,,,,,,,,,,,,,,,,,,,,,,,,,,,,,,,,,,,,,,,,,,,,,,,,,,,,
,,,,,,5f5e7de4c81d3672642cd612,62c539b6c914d34f9b3fff55,2022-07-06_09h29.18.874,Colour_Asymmetry_Pilot,2022.1.3,Win32,59.56990528,62c50e9c1127f2cd403a315f,0,27,27,43,1,twofour,,,,,,,,,,,,,,,,,,,,,,,,,,,,,,,,,,,,,,,,,,,,,,,,,,,,,,,,,,,,,,,,,,,,,,,,,,,,,,,,,,,,,,,,,,,,,,,,,,,,,,,,,,,,,,,,,,,,,,,,,,,,,,,,,,,,,,,,,,,,,,,,,,,,,,,,,,,,,
,,,,,,5f5e7de4c81d3672642cd612,62c539b6c914d34f9b3fff55,2022-07-06_09h29.18.874,Colour_Asymmetry_Pilot,2022.1.3,Win32,59.56990528,62c50e9c1127f2cd403a315f,0,28,28,95,1,fourthree,,,,,,,,,,,,,,,,,,,,,,,,,,,,,,,,,,,,,,,,,,,,,,,,,,,,,,,,,,,,,,,,,,,,,,,,,,,,,,,,,,,,,,,,,,,,,,,,,,,,,,,,,,,,,,,,,,,,,,,,,,,,,,,,,,,,,,,,,,,,,,,,,,,,,,,,,,,,,
,,,,,,5f5e7de4c81d3672642cd612,62c539b6c914d34f9b3fff55,2022-07-06_09h29.18.874,Colour_Asymmetry_Pilot,2022.1.3,Win32,59.56990528,62c50e9c1127f2cd403a315f,0,29,29,114,1,twoone,,,,,,,,,,,,,,,,,,,,,,,,,,,,,,,,,,,,,,,,,,,,,,,,,,,,,,,,,,,,,,,,,,,,,,,,,,,,,,,,,,,,,,,,,,,,,,,,,,,,,,,,,,,,,,,,,,,,,,,,,,,,,,,,,,,,,,,,,,,,,,,,,,,,,,,,,,,,,
,,,,,,5f5e7de4c81d3672642cd612,62c539b6c914d34f9b3fff55,2022-07-06_09h29.18.874,Colour_Asymmetry_Pilot,2022.1.3,Win32,59.56990528,62c50e9c1127f2cd403a315f,0,30,30,98,1,twoone,,,,,,,,,,,,,,,,,,,,,,,,,,,,,,,,,,,,,,,,,,,,,,,,,,,,,,,,,,,,,,,,,,,,,,,,,,,,,,,,,,,,,,,,,,,,,,,,,,,,,,,,,,,,,,,,,,,,,,,,,,,,,,,,,,,,,,,,,,,,,,,,,,,,,,,,,,,,,
,,,,,,5f5e7de4c81d3672642cd612,62c539b6c914d34f9b3fff55,2022-07-06_09h29.18.874,Colour_Asymmetry_Pilot,2022.1.3,Win32,59.56990528,62c50e9c1127f2cd403a315f,0,31,31,34,1,twoone,,,,,,,,,,,,,,,,,,,,,,,,,,,,,,,,,,,,,,,,,,,,,,,,,,,,,,,,,,,,,,,,,,,,,,,,,,,,,,,,,,,,,,,,,,,,,,,,,,,,,,,,,,,,,,,,,,,,,,,,,,,,,,,,,,,,,,,,,,,,,,,,,,,,,,,,,,,,,
,,,,,,5f5e7de4c81d3672642cd612,62c539b6c914d34f9b3fff55,2022-07-06_09h29.18.874,Colour_Asymmetry_Pilot,2022.1.3,Win32,59.56990528,62c50e9c1127f2cd403a315f,0,32,32,60,1,threeone,,,,,,,,,,,,,,,,,,,,,,,,,,,,,,,,,,,,,,,,,,,,,,,,,,,,,,,,,,,,,,,,,,,,,,,,,,,,,,,,,,,,,,,,,,,,,,,,,,,,,,,,,,,,,,,,,,,,,,,,,,,,,,,,,,,,,,,,,,,,,,,,,,,,,,,,,,,,,
,,,,,,5f5e7de4c81d3672642cd612,62c539b6c914d34f9b3fff55,2022-07-06_09h29.18.874,Colour_Asymmetry_Pilot,2022.1.3,Win32,59.56990528,62c50e9c1127f2cd403a315f,0,33,33,6,1,fourtwo,,,,,,,,,,,,,,,,,,,,,,,,,,,,,,,,,,,,,,,,,,,,,,,,,,,,,,,,,,,,,,,,,,,,,,,,,,,,,,,,,,,,,,,,,,,,,,,,,,,,,,,,,,,,,,,,,,,,,,,,,,,,,,,,,,,,,,,,,,,,,,,,,,,,,,,,,,,,,
,,,,,,5f5e7de4c81d3672642cd612,62c539b6c914d34f9b3fff55,2022-07-06_09h29.18.874,Colour_Asymmetry_Pilot,2022.1.3,Win32,59.56990528,62c50e9c1127f2cd403a315f,0,34,34,39,1,fourthree,,,,,,,,,,,,,,,,,,,,,,,,,,,,,,,,,,,,,,,,,,,,,,,,,,,,,,,,,,,,,,,,,,,,,,,,,,,,,,,,,,,,,,,,,,,,,,,,,,,,,,,,,,,,,,,,,,,,,,,,,,,,,,,,,,,,,,,,,,,,,,,,,,,,,,,,,,,,,
,,,,,,5f5e7de4c81d3672642cd612,62c539b6c914d34f9b3fff55,2022-07-06_09h29.18.874,Colour_Asymmetry_Pilot,2022.1.3,Win32,59.56990528,62c50e9c1127f2cd403a315f,0,35,35,103,1,fourthree,,,,,,,,,,,,,,,,,,,,,,,,,,,,,,,,,,,,,,,,,,,,,,,,,,,,,,,,,,,,,,,,,,,,,,,,,,,,,,,,,,,,,,,,,,,,,,,,,,,,,,,,,,,,,,,,,,,,,,,,,,,,,,,,,,,,,,,,,,,,,,,,,,,,,,,,,,,,,
,,,,,,5f5e7de4c81d3672642cd612,62c539b6c914d34f9b3fff55,2022-07-06_09h29.18.874,Colour_Asymmetry_Pilot,2022.1.3,Win32,59.56990528,62c50e9c1127f2cd403a315f,0,36,36,67,1,twofour,,,,,,,,,,,,,,,,,,,,,,,,,,,,,,,,,,,,,,,,,,,,,,,,,,,,,,,,,,,,,,,,,,,,,,,,,,,,,,,,,,,,,,,,,,,,,,,,,,,,,,,,,,,,,,,,,,,,,,,,,,,,,,,,,,,,,,,,,,,,,,,,,,,,,,,,,,,,,
,,,,,,5f5e7de4c81d3672642cd612,62c539b6c914d34f9b3fff55,2022-07-06_09h29.18.874,Colour_Asymmetry_Pilot,2022.1.3,Win32,59.56990528,62c50e9c1127f2cd403a315f,0,37,37,85,1,threefour,,,,,,,,,,,,,,,,,,,,,,,,,,,,,,,,,,,,,,,,,,,,,,,,,,,,,,,,,,,,,,,,,,,,,,,,,,,,,,,,,,,,,,,,,,,,,,,,,,,,,,,,,,,,,,,,,,,,,,,,,,,,,,,,,,,,,,,,,,,,,,,,,,,,,,,,,,,,,
,,,,,,5f5e7de4c81d3672642cd612,62c539b6c914d34f9b3fff55,2022-07-06_09h29.18.874,Colour_Asymmetry_Pilot,2022.1.3,Win32,59.56990528,62c50e9c1127f2cd403a315f,0,38,38,123,1,twofour,,,,,,,,,,,,,,,,,,,,,,,,,,,,,,,,,,,,,,,,,,,,,,,,,,,,,,,,,,,,,,,,,,,,,,,,,,,,,,,,,,,,,,,,,,,,,,,,,,,,,,,,,,,,,,,,,,,,,,,,,,,,,,,,,,,,,,,,,,,,,,,,,,,,,,,,,,,,,
,,,,,,5f5e7de4c81d3672642cd612,62c539b6c914d34f9b3fff55,2022-07-06_09h29.18.874,Colour_Asymmetry_Pilot,2022.1.3,Win32,59.56990528,62c50e9c1127f2cd403a315f,0,39,39,151,1,fourthree,,,,,,,,,,,,,,,,,,,,,,,,,,,,,,,,,,,,,,,,,,,,,,,,,,,,,,,,,,,,,,,,,,,,,,,,,,,,,,,,,,,,,,,,,,,,,,,,,,,,,,,,,,,,,,,,,,,,,,,,,,,,,,,,,,,,,,,,,,,,,,,,,,,,,,,,,,,,,
,,,,,,5f5e7de4c81d3672642cd612,62c539b6c914d34f9b3fff55,2022-07-06_09h29.18.874,Colour_Asymmetry_Pilot,2022.1.3,Win32,59.56990528,62c50e9c1127f2cd403a315f,0,40,40,21,1,threefour,,,,,,,,,,,,,,,,,,,,,,,,,,,,,,,,,,,,,,,,,,,,,,,,,,,,,,,,,,,,,,,,,,,,,,,,,,,,,,,,,,,,,,,,,,,,,,,,,,,,,,,,,,,,,,,,,,,,,,,,,,,,,,,,,,,,,,,,,,,,,,,,,,,,,,,,,,,,,
,,,,,,5f5e7de4c81d3672642cd612,62c539b6c914d34f9b3fff55,2022-07-06_09h29.18.874,Colour_Asymmetry_Pilot,2022.1.3,Win32,59.56990528,62c50e9c1127f2cd403a315f,0,41,41,62,1,fourtwo,,,,,,,,,,,,,,,,,,,,,,,,,,,,,,,,,,,,,,,,,,,,,,,,,,,,,,,,,,,,,,,,,,,,,,,,,,,,,,,,,,,,,,,,,,,,,,,,,,,,,,,,,,,,,,,,,,,,,,,,,,,,,,,,,,,,,,,,,,,,,,,,,,,,,,,,,,,,,
,,,,,,5f5e7de4c81d3672642cd612,62c539b6c914d34f9b3fff55,2022-07-06_09h29.18.874,Colour_Asymmetry_Pilot,2022.1.3,Win32,59.56990528,62c50e9c1127f2cd403a315f,0,42,42,135,1,fourthree,,,,,,,,,,,,,,,,,,,,,,,,,,,,,,,,,,,,,,,,,,,,,,,,,,,,,,,,,,,,,,,,,,,,,,,,,,,,,,,,,,,,,,,,,,,,,,,,,,,,,,,,,,,,,,,,,,,,,,,,,,,,,,,,,,,,,,,,,,,,,,,,,,,,,,,,,,,,,
,,,,,,5f5e7de4c81d3672642cd612,62c539b6c914d34f9b3fff55,2022-07-06_09h29.18.874,Colour_Asymmetry_Pilot,2022.1.3,Win32,59.56990528,62c50e9c1127f2cd403a315f,0,43,43,81,1,onethree,,,,,,,,,,,,,,,,,,,,,,,,,,,,,,,,,,,,,,,,,,,,,,,,,,,,,,,,,,,,,,,,,,,,,,,,,,,,,,,,,,,,,,,,,,,,,,,,,,,,,,,,,,,,,,,,,,,,,,,,,,,,,,,,,,,,,,,,,,,,,,,,,,,,,,,,,,,,,
,,,,,,5f5e7de4c81d3672642cd612,62c539b6c914d34f9b3fff55,2022-07-06_09h29.18.874,Colour_Asymmetry_Pilot,2022.1.3,Win32,59.56990528,62c50e9c1127f2cd403a315f,0,44,44,88,1,onetwo,,,,,,,,,,,,,,,,,,,,,,,,,,,,,,,,,,,,,,,,,,,,,,,,,,,,,,,,,,,,,,,,,,,,,,,,,,,,,,,,,,,,,,,,,,,,,,,,,,,,,,,,,,,,,,,,,,,,,,,,,,,,,,,,,,,,,,,,,,,,,,,,,,,,,,,,,,,,,
,,,,,,5f5e7de4c81d3672642cd612,62c539b6c914d34f9b3fff55,2022-07-06_09h29.18.874,Colour_Asymmetry_Pilot,2022.1.3,Win32,59.56990528,62c50e9c1127f2cd403a315f,0,45,45,0,1,onetwo,,,,,,,,,,,,,,,,,,,,,,,,,,,,,,,,,,,,,,,,,,,,,,,,,,,,,,,,,,,,,,,,,,,,,,,,,,,,,,,,,,,,,,,,,,,,,,,,,,,,,,,,,,,,,,,,,,,,,,,,,,,,,,,,,,,,,,,,,,,,,,,,,,,,,,,,,,,,,
,,,,,,5f5e7de4c81d3672642cd612,62c539b6c914d34f9b3fff55,2022-07-06_09h29.18.874,Colour_Asymmetry_Pilot,2022.1.3,Win32,59.56990528,62c50e9c1127f2cd403a315f,0,46,46,7,1,fourthree,,,,,,,,,,,,,,,,,,,,,,,,,,,,,,,,,,,,,,,,,,,,,,,,,,,,,,,,,,,,,,,,,,,,,,,,,,,,,,,,,,,,,,,,,,,,,,,,,,,,,,,,,,,,,,,,,,,,,,,,,,,,,,,,,,,,,,,,,,,,,,,,,,,,,,,,,,,,,
,,,,,,5f5e7de4c81d3672642cd612,62c539b6c914d34f9b3fff55,2022-07-06_09h29.18.874,Colour_Asymmetry_Pilot,2022.1.3,Win32,59.56990528,62c50e9c1127f2cd403a315f,0,47,47,29,1,threefour,,,,,,,,,,,,,,,,,,,,,,,,,,,,,,,,,,,,,,,,,,,,,,,,,,,,,,,,,,,,,,,,,,,,,,,,,,,,,,,,,,,,,,,,,,,,,,,,,,,,,,,,,,,,,,,,,,,,,,,,,,,,,,,,,,,,,,,,,,,,,,,,,,,,,,,,,,,,,
,,,,,,5f5e7de4c81d3672642cd612,62c539b6c914d34f9b3fff55,2022-07-06_09h29.18.874,Colour_Asymmetry_Pilot,2022.1.3,Win32,59.56990528,62c50e9c1127f2cd403a315f,0,48,48,27,1,twofour,,,,,,,,,,,,,,,,,,,,,,,,,,,,,,,,,,,,,,,,,,,,,,,,,,,,,,,,,,,,,,,,,,,,,,,,,,,,,,,,,,,,,,,,,,,,,,,,,,,,,,,,,,,,,,,,,,,,,,,,,,,,,,,,,,,,,,,,,,,,,,,,,,,,,,,,,,,,,
,,,,,,5f5e7de4c81d3672642cd612,62c539b6c914d34f9b3fff55,2022-07-06_09h29.18.874,Colour_Asymmetry_Pilot,2022.1.3,Win32,59.56990528,62c50e9c1127f2cd403a315f,0,49,49,160,1,onetwo,,,,,,,,,,,,,,,,,,,,,,,,,,,,,,,,,,,,,,,,,,,,,,,,,,,,,,,,,,,,,,,,,,,,,,,,,,,,,,,,,,,,,,,,,,,,,,,,,,,,,,,,,,,,,,,,,,,,,,,,,,,,,,,,,,,,,,,,,,,,,,,,,,,,,,,,,,,,,
,,,,,,5f5e7de4c81d3672642cd612,62c539b6c914d34f9b3fff55,2022-07-06_09h29.18.874,Colour_Asymmetry_Pilot,2022.1.3,Win32,59.56990528,62c50e9c1127f2cd403a315f,0,50,50,68,1,threeone,,,,,,,,,,,,,,,,,,,,,,,,,,,,,,,,,,,,,,,,,,,,,,,,,,,,,,,,,,,,,,,,,,,,,,,,,,,,,,,,,,,,,,,,,,,,,,,,,,,,,,,,,,,,,,,,,,,,,,,,,,,,,,,,,,,,,,,,,,,,,,,,,,,,,,,,,,,,,
,,,,,,5f5e7de4c81d3672642cd612,62c539b6c914d34f9b3fff55,2022-07-06_09h29.18.874,Colour_Asymmetry_Pilot,2022.1.3,Win32,59.56990528,62c50e9c1127f2cd403a315f,0,51,51,72,1,onetwo,,,,,,,,,,,,,,,,,,,,,,,,,,,,,,,,,,,,,,,,,,,,,,,,,,,,,,,,,,,,,,,,,,,,,,,,,,,,,,,,,,,,,,,,,,,,,,,,,,,,,,,,,,,,,,,,,,,,,,,,,,,,,,,,,,,,,,,,,,,,,,,,,,,,,,,,,,,,,
,,,,,,5f5e7de4c81d3672642cd612,62c539b6c914d34f9b3fff55,2022-07-06_09h29.18.874,Colour_Asymmetry_Pilot,2022.1.3,Win32,59.56990528,62c50e9c1127f2cd403a315f,0,52,52,49,1,onethree,,,,,,,,,,,,,,,,,,,,,,,,,,,,,,,,,,,,,,,,,,,,,,,,,,,,,,,,,,,,,,,,,,,,,,,,,,,,,,,,,,,,,,,,,,,,,,,,,,,,,,,,,,,,,,,,,,,,,,,,,,,,,,,,,,,,,,,,,,,,,,,,,,,,,,,,,,,,,
,,,,,,5f5e7de4c81d3672642cd612,62c539b6c914d34f9b3fff55,2022-07-06_09h29.18.874,Colour_Asymmetry_Pilot,2022.1.3,Win32,59.56990528,62c50e9c1127f2cd403a315f,0,53,53,25,1,onethree,,,,,,,,,,,,,,,,,,,,,,,,,,,,,,,,,,,,,,,,,,,,,,,,,,,,,,,,,,,,,,,,,,,,,,,,,,,,,,,,,,,,,,,,,,,,,,,,,,,,,,,,,,,,,,,,,,,,,,,,,,,,,,,,,,,,,,,,,,,,,,,,,,,,,,,,,,,,,
,,,,,,5f5e7de4c81d3672642cd612,62c539b6c914d34f9b3fff55,2022-07-06_09h29.18.874,Colour_Asymmetry_Pilot,2022.1.3,Win32,59.56990528,62c50e9c1127f2cd403a315f,0,54,54,111,1,fourthree,,,,,,,,,,,,,,,,,,,,,,,,,,,,,,,,,,,,,,,,,,,,,,,,,,,,,,,,,,,,,,,,,,,,,,,,,,,,,,,,,,,,,,,,,,,,,,,,,,,,,,,,,,,,,,,,,,,,,,,,,,,,,,,,,,,,,,,,,,,,,,,,,,,,,,,,,,,,,
,,,,,,5f5e7de4c81d3672642cd612,62c539b6c914d34f9b3fff55,2022-07-06_09h29.18.874,Colour_Asymmetry_Pilot,2022.1.3,Win32,59.56990528,62c50e9c1127f2cd403a315f,0,55,55,84,1,threeone,,,,,,,,,,,,,,,,,,,,,,,,,,,,,,,,,,,,,,,,,,,,,,,,,,,,,,,,,,,,,,,,,,,,,,,,,,,,,,,,,,,,,,,,,,,,,,,,,,,,,,,,,,,,,,,,,,,,,,,,,,,,,,,,,,,,,,,,,,,,,,,,,,,,,,,,,,,,,
,,,,,,5f5e7de4c81d3672642cd612,62c539b6c914d34f9b3fff55,2022-07-06_09h29.18.874,Colour_Asymmetry_Pilot,2022.1.3,Win32,59.56990528,62c50e9c1127f2cd403a315f,0,56,56,116,1,threeone,,,,,,,,,,,,,,,,,,,,,,,,,,,,,,,,,,,,,,,,,,,,,,,,,,,,,,,,,,,,,,,,,,,,,,,,,,,,,,,,,,,,,,,,,,,,,,,,,,,,,,,,,,,,,,,,,,,,,,,,,,,,,,,,,,,,,,,,,,,,,,,,,,,,,,,,,,,,,
,,,,,,5f5e7de4c81d3672642cd612,62c539b6c914d34f9b3fff55,2022-07-06_09h29.18.874,Colour_Asymmetry_Pilot,2022.1.3,Win32,59.56990528,62c50e9c1127f2cd403a315f,0,57,57,133,1,threefour,,,,,,,,,,,,,,,,,,,,,,,,,,,,,,,,,,,,,,,,,,,,,,,,,,,,,,,,,,,,,,,,,,,,,,,,,,,,,,,,,,,,,,,,,,,,,,,,,,,,,,,,,,,,,,,,,,,,,,,,,,,,,,,,,,,,,,,,,,,,,,,,,,,,,,,,,,,,,
,,,,,,5f5e7de4c81d3672642cd612,62c539b6c914d34f9b3fff55,2022-07-06_09h29.18.874,Colour_Asymmetry_Pilot,2022.1.3,Win32,59.56990528,62c50e9c1127f2cd403a315f,0,58,58,117,1,threefour,,,,,,,,,,,,,,,,,,,,,,,,,,,,,,,,,,,,,,,,,,,,,,,,,,,,,,,,,,,,,,,,,,,,,,,,,,,,,,,,,,,,,,,,,,,,,,,,,,,,,,,,,,,,,,,,,,,,,,,,,,,,,,,,,,,,,,,,,,,,,,,,,,,,,,,,,,,,,
,,,,,,5f5e7de4c81d3672642cd612,62c539b6c914d34f9b3fff55,2022-07-06_09h29.18.874,Colour_Asymmetry_Pilot,2022.1.3,Win32,59.56990528,62c50e9c1127f2cd403a315f,0,59,59,125,1,threefour,,,,,,,,,,,,,,,,,,,,,,,,,,,,,,,,,,,,,,,,,,,,,,,,,,,,,,,,,,,,,,,,,,,,,,,,,,,,,,,,,,,,,,,,,,,,,,,,,,,,,,,,,,,,,,,,,,,,,,,,,,,,,,,,,,,,,,,,,,,,,,,,,,,,,,,,,,,,,
,,,,,,5f5e7de4c81d3672642cd612,62c539b6c914d34f9b3fff55,2022-07-06_09h29.18.874,Colour_Asymmetry_Pilot,2022.1.3,Win32,59.56990528,62c50e9c1127f2cd403a315f,0,60,60,55,1,fourthree,,,,,,,,,,,,,,,,,,,,,,,,,,,,,,,,,,,,,,,,,,,,,,,,,,,,,,,,,,,,,,,,,,,,,,,,,,,,,,,,,,,,,,,,,,,,,,,,,,,,,,,,,,,,,,,,,,,,,,,,,,,,,,,,,,,,,,,,,,,,,,,,,,,,,,,,,,,,,
,,,,,,5f5e7de4c81d3672642cd612,62c539b6c914d34f9b3fff55,2022-07-06_09h29.18.874,Colour_Asymmetry_Pilot,2022.1.3,Win32,59.56990528,62c50e9c1127f2cd403a315f,0,61,61,144,1,onetwo,,,,,,,,,,,,,,,,,,,,,,,,,,,,,,,,,,,,,,,,,,,,,,,,,,,,,,,,,,,,,,,,,,,,,,,,,,,,,,,,,,,,,,,,,,,,,,,,,,,,,,,,,,,,,,,,,,,,,,,,,,,,,,,,,,,,,,,,,,,,,,,,,,,,,,,,,,,,,
,,,,,,5f5e7de4c81d3672642cd612,62c539b6c914d34f9b3fff55,2022-07-06_09h29.18.874,Colour_Asymmetry_Pilot,2022.1.3,Win32,59.56990528,62c50e9c1127f2cd403a315f,0,62,62,59,1,twofour,,,,,,,,,,,,,,,,,,,,,,,,,,,,,,,,,,,,,,,,,,,,,,,,,,,,,,,,,,,,,,,,,,,,,,,,,,,,,,,,,,,,,,,,,,,,,,,,,,,,,,,,,,,,,,,,,,,,,,,,,,,,,,,,,,,,,,,,,,,,,,,,,,,,,,,,,,,,,
,,,,,,5f5e7de4c81d3672642cd612,62c539b6c914d34f9b3fff55,2022-07-06_09h29.18.874,Colour_Asymmetry_Pilot,2022.1.3,Win32,59.56990528,62c50e9c1127f2cd403a315f,0,63,63,26,1,twoone,,,,,,,,,,,,,,,,,,,,,,,,,,,,,,,,,,,,,,,,,,,,,,,,,,,,,,,,,,,,,,,,,,,,,,,,,,,,,,,,,,,,,,,,,,,,,,,,,,,,,,,,,,,,,,,,,,,,,,,,,,,,,,,,,,,,,,,,,,,,,,,,,,,,,,,,,,,,,
,,,,,,5f5e7de4c81d3672642cd612,62c539b6c914d34f9b3fff55,2022-07-06_09h29.18.874,Colour_Asymmetry_Pilot,2022.1.3,Win32,59.56990528,62c50e9c1127f2cd403a315f,0,64,64,58,1,twoone,,,,,,,,,,,,,,,,,,,,,,,,,,,,,,,,,,,,,,,,,,,,,,,,,,,,,,,,,,,,,,,,,,,,,,,,,,,,,,,,,,,,,,,,,,,,,,,,,,,,,,,,,,,,,,,,,,,,,,,,,,,,,,,,,,,,,,,,,,,,,,,,,,,,,,,,,,,,,
,,,,,,5f5e7de4c81d3672642cd612,62c539b6c914d34f9b3fff55,2022-07-06_09h29.18.874,Colour_Asymmetry_Pilot,2022.1.3,Win32,59.56990528,62c50e9c1127f2cd403a315f,0,65,65,104,1,onetwo,,,,,,,,,,,,,,,,,,,,,,,,,,,,,,,,,,,,,,,,,,,,,,,,,,,,,,,,,,,,,,,,,,,,,,,,,,,,,,,,,,,,,,,,,,,,,,,,,,,,,,,,,,,,,,,,,,,,,,,,,,,,,,,,,,,,,,,,,,,,,,,,,,,,,,,,,,,,,
,,,,,,5f5e7de4c81d3672642cd612,62c539b6c914d34f9b3fff55,2022-07-06_09h29.18.874,Colour_Asymmetry_Pilot,2022.1.3,Win32,59.56990528,62c50e9c1127f2cd403a315f,0,66,66,121,1,onethree,,,,,,,,,,,,,,,,,,,,,,,,,,,,,,,,,,,,,,,,,,,,,,,,,,,,,,,,,,,,,,,,,,,,,,,,,,,,,,,,,,,,,,,,,,,,,,,,,,,,,,,,,,,,,,,,,,,,,,,,,,,,,,,,,,,,,,,,,,,,,,,,,,,,,,,,,,,,,
,,,,,,5f5e7de4c81d3672642cd612,62c539b6c914d34f9b3fff55,2022-07-06_09h29.18.874,Colour_Asymmetry_Pilot,2022.1.3,Win32,59.56990528,62c50e9c1127f2cd403a315f,0,67,67,80,1,onetwo,,,,,,,,,,,,,,,,,,,,,,,,,,,,,,,,,,,,,,,,,,,,,,,,,,,,,,,,,,,,,,,,,,,,,,,,,,,,,,,,,,,,,,,,,,,,,,,,,,,,,,,,,,,,,,,,,,,,,,,,,,,,,,,,,,,,,,,,,,,,,,,,,,,,,,,,,,,,,
,,,,,,5f5e7de4c81d3672642cd612,62c539b6c914d34f9b3fff55,2022-07-06_09h29.18.874,Colour_Asymmetry_Pilot,2022.1.3,Win32,59.56990528,62c50e9c1127f2cd403a315f,0,68,68,107,1,twofour,,,,,,,,,,,,,,,,,,,,,,,,,,,,,,,,,,,,,,,,,,,,,,,,,,,,,,,,,,,,,,,,,,,,,,,,,,,,,,,,,,,,,,,,,,,,,,,,,,,,,,,,,,,,,,,,,,,,,,,,,,,,,,,,,,,,,,,,,,,,,,,,,,,,,,,,,,,,,
,,,,,,5f5e7de4c81d3672642cd612,62c539b6c914d34f9b3fff55,2022-07-06_09h29.18.874,Colour_Asymmetry_Pilot,2022.1.3,Win32,59.56990528,62c50e9c1127f2cd403a315f,0,69,69,108,1,threeone,,,,,,,,,,,,,,,,,,,,,,,,,,,,,,,,,,,,,,,,,,,,,,,,,,,,,,,,,,,,,,,,,,,,,,,,,,,,,,,,,,,,,,,,,,,,,,,,,,,,,,,,,,,,,,,,,,,,,,,,,,,,,,,,,,,,,,,,,,,,,,,,,,,,,,,,,,,,,
,,,,,,5f5e7de4c81d3672642cd612,62c539b6c914d34f9b3fff55,2022-07-06_09h29.18.874,Colour_Asymmetry_Pilot,2022.1.3,Win32,59.56990528,62c50e9c1127f2cd403a315f,0,70,70,129,1,onethree,,,,,,,,,,,,,,,,,,,,,,,,,,,,,,,,,,,,,,,,,,,,,,,,,,,,,,,,,,,,,,,,,,,,,,,,,,,,,,,,,,,,,,,,,,,,,,,,,,,,,,,,,,,,,,,,,,,,,,,,,,,,,,,,,,,,,,,,,,,,,,,,,,,,,,,,,,,,,
,,,,,,5f5e7de4c81d3672642cd612,62c539b6c914d34f9b3fff55,2022-07-06_09h29.18.874,Colour_Asymmetry_Pilot,2022.1.3,Win32,59.56990528,62c50e9c1127f2cd403a315f,0,71,71,89,1,onethree,,,,,,,,,,,,,,,,,,,,,,,,,,,,,,,,,,,,,,,,,,,,,,,,,,,,,,,,,,,,,,,,,,,,,,,,,,,,,,,,,,,,,,,,,,,,,,,,,,,,,,,,,,,,,,,,,,,,,,,,,,,,,,,,,,,,,,,,,,,,,,,,,,,,,,,,,,,,,
,,,,,,5f5e7de4c81d3672642cd612,62c539b6c914d34f9b3fff55,2022-07-06_09h29.18.874,Colour_Asymmetry_Pilot,2022.1.3,Win32,59.56990528,62c50e9c1127f2cd403a315f,0,72,72,15,1,fourthree,,,,,,,,,,,,,,,,,,,,,,,,,,,,,,,,,,,,,,,,,,,,,,,,,,,,,,,,,,,,,,,,,,,,,,,,,,,,,,,,,,,,,,,,,,,,,,,,,,,,,,,,,,,,,,,,,,,,,,,,,,,,,,,,,,,,,,,,,,,,,,,,,,,,,,,,,,,,,
,,,,,,5f5e7de4c81d3672642cd612,62c539b6c914d34f9b3fff55,2022-07-06_09h29.18.874,Colour_Asymmetry_Pilot,2022.1.3,Win32,59.56990528,62c50e9c1127f2cd403a315f,0,73,73,32,1,onetwo,,,,,,,,,,,,,,,,,,,,,,,,,,,,,,,,,,,,,,,,,,,,,,,,,,,,,,,,,,,,,,,,,,,,,,,,,,,,,,,,,,,,,,,,,,,,,,,,,,,,,,,,,,,,,,,,,,,,,,,,,,,,,,,,,,,,,,,,,,,,,,,,,,,,,,,,,,,,,
,,,,,,5f5e7de4c81d3672642cd612,62c539b6c914d34f9b3fff55,2022-07-06_09h29.18.874,Colour_Asymmetry_Pilot,2022.1.3,Win32,59.56990528,62c50e9c1127f2cd403a315f,0,74,74,36,1,threeone,,,,,,,,,,,,,,,,,,,,,,,,,,,,,,,,,,,,,,,,,,,,,,,,,,,,,,,,,,,,,,,,,,,,,,,,,,,,,,,,,,,,,,,,,,,,,,,,,,,,,,,,,,,,,,,,,,,,,,,,,,,,,,,,,,,,,,,,,,,,,,,,,,,,,,,,,,,,,
,,,,,,5f5e7de4c81d3672642cd612,62c539b6c914d34f9b3fff55,2022-07-06_09h29.18.874,Colour_Asymmetry_Pilot,2022.1.3,Win32,59.56990528,62c50e9c1127f2cd403a315f,0,75,75,79,1,fourthree,,,,,,,,,,,,,,,,,,,,,,,,,,,,,,,,,,,,,,,,,,,,,,,,,,,,,,,,,,,,,,,,,,,,,,,,,,,,,,,,,,,,,,,,,,,,,,,,,,,,,,,,,,,,,,,,,,,,,,,,,,,,,,,,,,,,,,,,,,,,,,,,,,,,,,,,,,,,,
,,,,,,5f5e7de4c81d3672642cd612,62c539b6c914d34f9b3fff55,2022-07-06_09h29.18.874,Colour_Asymmetry_Pilot,2022.1.3,Win32,59.56990528,62c50e9c1127f2cd403a315f,0,76,76,20,1,threeone,,,,,,,,,,,,,,,,,,,,,,,,,,,,,,,,,,,,,,,,,,,,,,,,,,,,,,,,,,,,,,,,,,,,,,,,,,,,,,,,,,,,,,,,,,,,,,,,,,,,,,,,,,,,,,,,,,,,,,,,,,,,,,,,,,,,,,,,,,,,,,,,,,,,,,,,,,,,,
,,,,,,5f5e7de4c81d3672642cd612,62c539b6c914d34f9b3fff55,2022-07-06_09h29.18.874,Colour_Asymmetry_Pilot,2022.1.3,Win32,59.56990528,62c50e9c1127f2cd403a315f,0,77,77,4,1,threeone,,,,,,,,,,,,,,,,,,,,,,,,,,,,,,,,,,,,,,,,,,,,,,,,,,,,,,,,,,,,,,,,,,,,,,,,,,,,,,,,,,,,,,,,,,,,,,,,,,,,,,,,,,,,,,,,,,,,,,,,,,,,,,,,,,,,,,,,,,,,,,,,,,,,,,,,,,,,,
,,,,,,5f5e7de4c81d3672642cd612,62c539b6c914d34f9b3fff55,2022-07-06_09h29.18.874,Colour_Asymmetry_Pilot,2022.1.3,Win32,59.56990528,62c50e9c1127f2cd403a315f,0,78,78,131,1,twofour,,,,,,,,,,,,,,,,,,,,,,,,,,,,,,,,,,,,,,,,,,,,,,,,,,,,,,,,,,,,,,,,,,,,,,,,,,,,,,,,,,,,,,,,,,,,,,,,,,,,,,,,,,,,,,,,,,,,,,,,,,,,,,,,,,,,,,,,,,,,,,,,,,,,,,,,,,,,,
,,,,,,5f5e7de4c81d3672642cd612,62c539b6c914d34f9b3fff55,2022-07-06_09h29.18.874,Colour_Asymmetry_Pilot,2022.1.3,Win32,59.56990528,62c50e9c1127f2cd403a315f,0,79,79,109,1,threefour,,,,,,,,,,,,,,,,,,,,,,,,,,,,,,,,,,,,,,,,,,,,,,,,,,,,,,,,,,,,,,,,,,,,,,,,,,,,,,,,,,,,,,,,,,,,,,,,,,,,,,,,,,,,,,,,,,,,,,,,,,,,,,,,,,,,,,,,,,,,,,,,,,,,,,,,,,,,,
,,,,,,5f5e7de4c81d3672642cd612,62c539b6c914d34f9b3fff55,2022-07-06_09h29.18.874,Colour_Asymmetry_Pilot,2022.1.3,Win32,59.56990528,62c50e9c1127f2cd403a315f,0,80,80,105,1,onethree,,,,,,,,,,,,,,,,,,,,,,,,,,,,,,,,,,,,,,,,,,,,,,,,,,,,,,,,,,,,,,,,,,,,,,,,,,,,,,,,,,,,,,,,,,,,,,,,,,,,,,,,,,,,,,,,,,,,,,,,,,,,,,,,,,,,,,,,,,,,,,,,,,,,,,,,,,,,,
,,,,,,5f5e7de4c81d3672642cd612,62c539b6c914d34f9b3fff55,2022-07-06_09h29.18.874,Colour_Asymmetry_Pilot,2022.1.3,Win32,59.56990528,62c50e9c1127f2cd403a315f,0,81,81,28,1,threeone,,,,,,,,,,,,,,,,,,,,,,,,,,,,,,,,,,,,,,,,,,,,,,,,,,,,,,,,,,,,,,,,,,,,,,,,,,,,,,,,,,,,,,,,,,,,,,,,,,,,,,,,,,,,,,,,,,,,,,,,,,,,,,,,,,,,,,,,,,,,,,,,,,,,,,,,,,,,,
,,,,,,5f5e7de4c81d3672642cd612,62c539b6c914d34f9b3fff55,2022-07-06_09h29.18.874,Colour_Asymmetry_Pilot,2022.1.3,Win32,59.56990528,62c50e9c1127f2cd403a315f,0,82,82,24,1,onetwo,,,,,,,,,,,,,,,,,,,,,,,,,,,,,,,,,,,,,,,,,,,,,,,,,,,,,,,,,,,,,,,,,,,,,,,,,,,,,,,,,,,,,,,,,,,,,,,,,,,,,,,,,,,,,,,,,,,,,,,,,,,,,,,,,,,,,,,,,,,,,,,,,,,,,,,,,,,,,
,,,,,,5f5e7de4c81d3672642cd612,62c539b6c914d34f9b3fff55,2022-07-06_09h29.18.874,Colour_Asymmetry_Pilot,2022.1.3,Win32,59.56990528,62c50e9c1127f2cd403a315f,0,83,83,63,1,fourthree,,,,,,,,,,,,,,,,,,,,,,,,,,,,,,,,,,,,,,,,,,,,,,,,,,,,,,,,,,,,,,,,,,,,,,,,,,,,,,,,,,,,,,,,,,,,,,,,,,,,,,,,,,,,,,,,,,,,,,,,,,,,,,,,,,,,,,,,,,,,,,,,,,,,,,,,,,,,,
,,,,,,5f5e7de4c81d3672642cd612,62c539b6c914d34f9b3fff55,2022-07-06_09h29.18.874,Colour_Asymmetry_Pilot,2022.1.3,Win32,59.56990528,62c50e9c1127f2cd403a315f,0,84,84,92,1,threeone,,,,,,,,,,,,,,,,,,,,,,,,,,,,,,,,,,,,,,,,,,,,,,,,,,,,,,,,,,,,,,,,,,,,,,,,,,,,,,,,,,,,,,,,,,,,,,,,,,,,,,,,,,,,,,,,,,,,,,,,,,,,,,,,,,,,,,,,,,,,,,,,,,,,,,,,,,,,,
,,,,,,5f5e7de4c81d3672642cd612,62c539b6c914d34f9b3fff55,2022-07-06_09h29.18.874,Colour_Asymmetry_Pilot,2022.1.3,Win32,59.56990528,62c50e9c1127f2cd403a315f,0,85,85,141,1,threefour,,,,,,,,,,,,,,,,,,,,,,,,,,,,,,,,,,,,,,,,,,,,,,,,,,,,,,,,,,,,,,,,,,,,,,,,,,,,,,,,,,,,,,,,,,,,,,,,,,,,,,,,,,,,,,,,,,,,,,,,,,,,,,,,,,,,,,,,,,,,,,,,,,,,,,,,,,,,,
,,,,,,5f5e7de4c81d3672642cd612,62c539b6c914d34f9b3fff55,2022-07-06_09h29.18.874,Colour_Asymmetry_Pilot,2022.1.3,Win32,59.56990528,62c50e9c1127f2cd403a315f,0,86,86,112,1,onetwo,,,,,,,,,,,,,,,,,,,,,,,,,,,,,,,,,,,,,,,,,,,,,,,,,,,,,,,,,,,,,,,,,,,,,,,,,,,,,,,,,,,,,,,,,,,,,,,,,,,,,,,,,,,,,,,,,,,,,,,,,,,,,,,,,,,,,,,,,,,,,,,,,,,,,,,,,,,,,
,,,,,,5f5e7de4c81d3672642cd612,62c539b6c914d34f9b3fff55,2022-07-06_09h29.18.874,Colour_Asymmetry_Pilot,2022.1.3,Win32,59.56990528,62c50e9c1127f2cd403a315f,0,87,87,93,1,threefour,,,,,,,,,,,,,,,,,,,,,,,,,,,,,,,,,,,,,,,,,,,,,,,,,,,,,,,,,,,,,,,,,,,,,,,,,,,,,,,,,,,,,,,,,,,,,,,,,,,,,,,,,,,,,,,,,,,,,,,,,,,,,,,,,,,,,,,,,,,,,,,,,,,,,,,,,,,,,
,,,,,,5f5e7de4c81d3672642cd612,62c539b6c914d34f9b3fff55,2022-07-06_09h29.18.874,Colour_Asymmetry_Pilot,2022.1.3,Win32,59.56990528,62c50e9c1127f2cd403a315f,0,88,88,9,1,onethree,,,,,,,,,,,,,,,,,,,,,,,,,,,,,,,,,,,,,,,,,,,,,,,,,,,,,,,,,,,,,,,,,,,,,,,,,,,,,,,,,,,,,,,,,,,,,,,,,,,,,,,,,,,,,,,,,,,,,,,,,,,,,,,,,,,,,,,,,,,,,,,,,,,,,,,,,,,,,
,,,,,,5f5e7de4c81d3672642cd612,62c539b6c914d34f9b3fff55,2022-07-06_09h29.18.874,Colour_Asymmetry_Pilot,2022.1.3,Win32,59.56990528,62c50e9c1127f2cd403a315f,0,89,89,56,1,onetwo,,,,,,,,,,,,,,,,,,,,,,,,,,,,,,,,,,,,,,,,,,,,,,,,,,,,,,,,,,,,,,,,,,,,,,,,,,,,,,,,,,,,,,,,,,,,,,,,,,,,,,,,,,,,,,,,,,,,,,,,,,,,,,,,,,,,,,,,,,,,,,,,,,,,,,,,,,,,,
,,,,,,5f5e7de4c81d3672642cd612,62c539b6c914d34f9b3fff55,2022-07-06_09h29.18.874,Colour_Asymmetry_Pilot,2022.1.3,Win32,59.56990528,62c50e9c1127f2cd403a315f,0,90,90,91,1,twofour,,,,,,,,,,,,,,,,,,,,,,,,,,,,,,,,,,,,,,,,,,,,,,,,,,,,,,,,,,,,,,,,,,,,,,,,,,,,,,,,,,,,,,,,,,,,,,,,,,,,,,,,,,,,,,,,,,,,,,,,,,,,,,,,,,,,,,,,,,,,,,,,,,,,,,,,,,,,,
,,,,,,5f5e7de4c81d3672642cd612,62c539b6c914d34f9b3fff55,2022-07-06_09h29.18.874,Colour_Asymmetry_Pilot,2022.1.3,Win32,59.56990528,62c50e9c1127f2cd403a315f,0,91,91,40,1,onetwo,,,,,,,,,,,,,,,,,,,,,,,,,,,,,,,,,,,,,,,,,,,,,,,,,,,,,,,,,,,,,,,,,,,,,,,,,,,,,,,,,,,,,,,,,,,,,,,,,,,,,,,,,,,,,,,,,,,,,,,,,,,,,,,,,,,,,,,,,,,,,,,,,,,,,,,,,,,,,
,,,,,,5f5e7de4c81d3672642cd612,62c539b6c914d34f9b3fff55,2022-07-06_09h29.18.874,Colour_Asymmetry_Pilot,2022.1.3,Win32,59.56990528,62c50e9c1127f2cd403a315f,0,92,92,19,1,twofour,,,,,,,,,,,,,,,,,,,,,,,,,,,,,,,,,,,,,,,,,,,,,,,,,,,,,,,,,,,,,,,,,,,,,,,,,,,,,,,,,,,,,,,,,,,,,,,,,,,,,,,,,,,,,,,,,,,,,,,,,,,,,,,,,,,,,,,,,,,,,,,,,,,,,,,,,,,,,
,,,,,,5f5e7de4c81d3672642cd612,62c539b6c914d34f9b3fff55,2022-07-06_09h29.18.874,Colour_Asymmetry_Pilot,2022.1.3,Win32,59.56990528,62c50e9c1127f2cd403a315f,0,93,93,8,1,onetwo,,,,,,,,,,,,,,,,,,,,,,,,,,,,,,,,,,,,,,,,,,,,,,,,,,,,,,,,,,,,,,,,,,,,,,,,,,,,,,,,,,,,,,,,,,,,,,,,,,,,,,,,,,,,,,,,,,,,,,,,,,,,,,,,,,,,,,,,,,,,,,,,,,,,,,,,,,,,,
,,,,,,5f5e7de4c81d3672642cd612,62c539b6c914d34f9b3fff55,2022-07-06_09h29.18.874,Colour_Asymmetry_Pilot,2022.1.3,Win32,59.56990528,62c50e9c1127f2cd403a315f,0,94,94,38,1,fourtwo,,,,,,,,,,,,,,,,,,,,,,,,,,,,,,,,,,,,,,,,,,,,,,,,,,,,,,,,,,,,,,,,,,,,,,,,,,,,,,,,,,,,,,,,,,,,,,,,,,,,,,,,,,,,,,,,,,,,,,,,,,,,,,,,,,,,,,,,,,,,,,,,,,,,,,,,,,,,,
,,,,,,5f5e7de4c81d3672642cd612,62c539b6c914d34f9b3fff55,2022-07-06_09h29.18.874,Colour_Asymmetry_Pilot,2022.1.3,Win32,59.56990528,62c50e9c1127f2cd403a315f,0,95,95,94,1,fourtwo,,,,,,,,,,,,,,,,,,,,,,,,,,,,,,,,,,,,,,,,,,,,,,,,,,,,,,,,,,,,,,,,,,,,,,,,,,,,,,,,,,,,,,,,,,,,,,,,,,,,,,,,,,,,,,,,,,,,,,,,,,,,,,,,,,,,,,,,,,,,,,,,,,,,,,,,,,,,,
,,,,,,5f5e7de4c81d3672642cd612,62c539b6c914d34f9b3fff55,2022-07-06_09h29.18.874,Colour_Asymmetry_Pilot,2022.1.3,Win32,59.56990528,62c50e9c1127f2cd403a315f,0,96,96,64,1,onetwo,,,,,,,,,,,,,,,,,,,,,,,,,,,,,,,,,,,,,,,,,,,,,,,,,,,,,,,,,,,,,,,,,,,,,,,,,,,,,,,,,,,,,,,,,,,,,,,,,,,,,,,,,,,,,,,,,,,,,,,,,,,,,,,,,,,,,,,,,,,,,,,,,,,,,,,,,,,,,
,,,,,,5f5e7de4c81d3672642cd612,62c539b6c914d34f9b3fff55,2022-07-06_09h29.18.874,Colour_Asymmetry_Pilot,2022.1.3,Win32,59.56990528,62c50e9c1127f2cd403a315f,0,97,97,140,1,threeone,,,,,,,,,,,,,,,,,,,,,,,,,,,,,,,,,,,,,,,,,,,,,,,,,,,,,,,,,,,,,,,,,,,,,,,,,,,,,,,,,,,,,,,,,,,,,,,,,,,,,,,,,,,,,,,,,,,,,,,,,,,,,,,,,,,,,,,,,,,,,,,,,,,,,,,,,,,,,
,,,,,,5f5e7de4c81d3672642cd612,62c539b6c914d34f9b3fff55,2022-07-06_09h29.18.874,Colour_Asymmetry_Pilot,2022.1.3,Win32,59.56990528,62c50e9c1127f2cd403a315f,0,98,98,82,1,twoone,,,,,,,,,,,,,,,,,,,,,,,,,,,,,,,,,,,,,,,,,,,,,,,,,,,,,,,,,,,,,,,,,,,,,,,,,,,,,,,,,,,,,,,,,,,,,,,,,,,,,,,,,,,,,,,,,,,,,,,,,,,,,,,,,,,,,,,,,,,,,,,,,,,,,,,,,,,,,
,,,,,,5f5e7de4c81d3672642cd612,62c539b6c914d34f9b3fff55,2022-07-06_09h29.18.874,Colour_Asymmetry_Pilot,2022.1.3,Win32,59.56990528,62c50e9c1127f2cd403a315f,0,99,99,138,1,twoone,,,,,,,,,,,,,,,,,,,,,,,,,,,,,,,,,,,,,,,,,,,,,,,,,,,,,,,,,,,,,,,,,,,,,,,,,,,,,,,,,,,,,,,,,,,,,,,,,,,,,,,,,,,,,,,,,,,,,,,,,,,,,,,,,,,,,,,,,,,,,,,,,,,,,,,,,,,,,
,,,,,,5f5e7de4c81d3672642cd612,62c539b6c914d34f9b3fff55,2022-07-06_09h29.18.874,Colour_Asymmetry_Pilot,2022.1.3,Win32,59.56990528,62c50e9c1127f2cd403a315f,0,100,100,120,1,onetwo,,,,,,,,,,,,,,,,,,,,,,,,,,,,,,,,,,,,,,,,,,,,,,,,,,,,,,,,,,,,,,,,,,,,,,,,,,,,,,,,,,,,,,,,,,,,,,,,,,,,,,,,,,,,,,,,,,,,,,,,,,,,,,,,,,,,,,,,,,,,,,,,,,,,,,,,,,,,,
,,,,,,5f5e7de4c81d3672642cd612,62c539b6c914d34f9b3fff55,2022-07-06_09h29.18.874,Colour_Asymmetry_Pilot,2022.1.3,Win32,59.56990528,62c50e9c1127f2cd403a315f,0,101,101,74,1,twoone,,,,,,,,,,,,,,,,,,,,,,,,,,,,,,,,,,,,,,,,,,,,,,,,,,,,,,,,,,,,,,,,,,,,,,,,,,,,,,,,,,,,,,,,,,,,,,,,,,,,,,,,,,,,,,,,,,,,,,,,,,,,,,,,,,,,,,,,,,,,,,,,,,,,,,,,,,,,,
,,,,,,5f5e7de4c81d3672642cd612,62c539b6c914d34f9b3fff55,2022-07-06_09h29.18.874,Colour_Asymmetry_Pilot,2022.1.3,Win32,59.56990528,62c50e9c1127f2cd403a315f,0,102,102,119,1,fourthree,,,,,,,,,,,,,,,,,,,,,,,,,,,,,,,,,,,,,,,,,,,,,,,,,,,,,,,,,,,,,,,,,,,,,,,,,,,,,,,,,,,,,,,,,,,,,,,,,,,,,,,,,,,,,,,,,,,,,,,,,,,,,,,,,,,,,,,,,,,,,,,,,,,,,,,,,,,,,
,,,,,,5f5e7de4c81d3672642cd612,62c539b6c914d34f9b3fff55,2022-07-06_09h29.18.874,Colour_Asymmetry_Pilot,2022.1.3,Win32,59.56990528,62c50e9c1127f2cd403a315f,0,103,103,50,1,twoone,,,,,,,,,,,,,,,,,,,,,,,,,,,,,,,,,,,,,,,,,,,,,,,,,,,,,,,,,,,,,,,,,,,,,,,,,,,,,,,,,,,,,,,,,,,,,,,,,,,,,,,,,,,,,,,,,,,,,,,,,,,,,,,,,,,,,,,,,,,,,,,,,,,,,,,,,,,,,
,,,,,,5f5e7de4c81d3672642cd612,62c539b6c914d34f9b3fff55,2022-07-06_09h29.18.874,Colour_Asymmetry_Pilot,2022.1.3,Win32,59.56990528,62c50e9c1127f2cd403a315f,0,104,104,35,1,twofour,,,,,,,,,,,,,,,,,,,,,,,,,,,,,,,,,,,,,,,,,,,,,,,,,,,,,,,,,,,,,,,,,,,,,,,,,,,,,,,,,,,,,,,,,,,,,,,,,,,,,,,,,,,,,,,,,,,,,,,,,,,,,,,,,,,,,,,,,,,,,,,,,,,,,,,,,,,,,
,,,,,,5f5e7de4c81d3672642cd612,62c539b6c914d34f9b3fff55,2022-07-06_09h29.18.874,Colour_Asymmetry_Pilot,2022.1.3,Win32,59.56990528,62c50e9c1127f2cd403a315f,0,105,105,5,1,threefour,,,,,,,,,,,,,,,,,,,,,,,,,,,,,,,,,,,,,,,,,,,,,,,,,,,,,,,,,,,,,,,,,,,,,,,,,,,,,,,,,,,,,,,,,,,,,,,,,,,,,,,,,,,,,,,,,,,,,,,,,,,,,,,,,,,,,,,,,,,,,,,,,,,,,,,,,,,,,
,,,,,,5f5e7de4c81d3672642cd612,62c539b6c914d34f9b3fff55,2022-07-06_09h29.18.874,Colour_Asymmetry_Pilot,2022.1.3,Win32,59.56990528,62c50e9c1127f2cd403a315f,0,106,106,22,1,fourtwo,,,,,,,,,,,,,,,,,,,,,,,,,,,,,,,,,,,,,,,,,,,,,,,,,,,,,,,,,,,,,,,,,,,,,,,,,,,,,,,,,,,,,,,,,,,,,,,,,,,,,,,,,,,,,,,,,,,,,,,,,,,,,,,,,,,,,,,,,,,,,,,,,,,,,,,,,,,,,
,,,,,,5f5e7de4c81d3672642cd612,62c539b6c914d34f9b3fff55,2022-07-06_09h29.18.874,Colour_Asymmetry_Pilot,2022.1.3,Win32,59.56990528,62c50e9c1127f2cd403a315f,0,107,107,106,1,twoone,,,,,,,,,,,,,,,,,,,,,,,,,,,,,,,,,,,,,,,,,,,,,,,,,,,,,,,,,,,,,,,,,,,,,,,,,,,,,,,,,,,,,,,,,,,,,,,,,,,,,,,,,,,,,,,,,,,,,,,,,,,,,,,,,,,,,,,,,,,,,,,,,,,,,,,,,,,,,
,,,,,,5f5e7de4c81d3672642cd612,62c539b6c914d34f9b3fff55,2022-07-06_09h29.18.874,Colour_Asymmetry_Pilot,2022.1.3,Win32,59.56990528,62c50e9c1127f2cd403a315f,0,108,108,113,1,onethree,,,,,,,,,,,,,,,,,,,,,,,,,,,,,,,,,,,,,,,,,,,,,,,,,,,,,,,,,,,,,,,,,,,,,,,,,,,,,,,,,,,,,,,,,,,,,,,,,,,,,,,,,,,,,,,,,,,,,,,,,,,,,,,,,,,,,,,,,,,,,,,,,,,,,,,,,,,,,
,,,,,,5f5e7de4c81d3672642cd612,62c539b6c914d34f9b3fff55,2022-07-06_09h29.18.874,Colour_Asymmetry_Pilot,2022.1.3,Win32,59.56990528,62c50e9c1127f2cd403a315f,0,109,109,132,1,threeone,,,,,,,,,,,,,,,,,,,,,,,,,,,,,,,,,,,,,,,,,,,,,,,,,,,,,,,,,,,,,,,,,,,,,,,,,,,,,,,,,,,,,,,,,,,,,,,,,,,,,,,,,,,,,,,,,,,,,,,,,,,,,,,,,,,,,,,,,,,,,,,,,,,,,,,,,,,,,
,,,,,,5f5e7de4c81d3672642cd612,62c539b6c914d34f9b3fff55,2022-07-06_09h29.18.874,Colour_Asymmetry_Pilot,2022.1.3,Win32,59.56990528,62c50e9c1127f2cd403a315f,0,110,110,86,1,fourtwo,,,,,,,,,,,,,,,,,,,,,,,,,,,,,,,,,,,,,,,,,,,,,,,,,,,,,,,,,,,,,,,,,,,,,,,,,,,,,,,,,,,,,,,,,,,,,,,,,,,,,,,,,,,,,,,,,,,,,,,,,,,,,,,,,,,,,,,,,,,,,,,,,,,,,,,,,,,,,
,,,,,,5f5e7de4c81d3672642cd612,62c539b6c914d34f9b3fff55,2022-07-06_09h29.18.874,Colour_Asymmetry_Pilot,2022.1.3,Win32,59.56990528,62c50e9c1127f2cd403a315f,0,111,111,155,1,twofour,,,,,,,,,,,,,,,,,,,,,,,,,,,,,,,,,,,,,,,,,,,,,,,,,,,,,,,,,,,,,,,,,,,,,,,,,,,,,,,,,,,,,,,,,,,,,,,,,,,,,,,,,,,,,,,,,,,,,,,,,,,,,,,,,,,,,,,,,,,,,,,,,,,,,,,,,,,,,
,,,,,,5f5e7de4c81d3672642cd612,62c539b6c914d34f9b3fff55,2022-07-06_09h29.18.874,Colour_Asymmetry_Pilot,2022.1.3,Win32,59.56990528,62c50e9c1127f2cd403a315f,0,112,112,53,1,threefour,,,,,,,,,,,,,,,,,,,,,,,,,,,,,,,,,,,,,,,,,,,,,,,,,,,,,,,,,,,,,,,,,,,,,,,,,,,,,,,,,,,,,,,,,,,,,,,,,,,,,,,,,,,,,,,,,,,,,,,,,,,,,,,,,,,,,,,,,,,,,,,,,,,,,,,,,,,,,
,,,,,,5f5e7de4c81d3672642cd612,62c539b6c914d34f9b3fff55,2022-07-06_09h29.18.874,Colour_Asymmetry_Pilot,2022.1.3,Win32,59.56990528,62c50e9c1127f2cd403a315f,0,113,113,127,1,fourthree,,,,,,,,,,,,,,,,,,,,,,,,,,,,,,,,,,,,,,,,,,,,,,,,,,,,,,,,,,,,,,,,,,,,,,,,,,,,,,,,,,,,,,,,,,,,,,,,,,,,,,,,,,,,,,,,,,,,,,,,,,,,,,,,,,,,,,,,,,,,,,,,,,,,,,,,,,,,,
,,,,,,5f5e7de4c81d3672642cd612,62c539b6c914d34f9b3fff55,2022-07-06_09h29.18.874,Colour_Asymmetry_Pilot,2022.1.3,Win32,59.56990528,62c50e9c1127f2cd403a315f,0,114,114,51,1,twofour,,,,,,,,,,,,,,,,,,,,,,,,,,,,,,,,,,,,,,,,,,,,,,,,,,,,,,,,,,,,,,,,,,,,,,,,,,,,,,,,,,,,,,,,,,,,,,,,,,,,,,,,,,,,,,,,,,,,,,,,,,,,,,,,,,,,,,,,,,,,,,,,,,,,,,,,,,,,,
,,,,,,5f5e7de4c81d3672642cd612,62c539b6c914d34f9b3fff55,2022-07-06_09h29.18.874,Colour_Asymmetry_Pilot,2022.1.3,Win32,59.56990528,62c50e9c1127f2cd403a315f,0,115,115,13,1,threefour,,,,,,,,,,,,,,,,,,,,,,,,,,,,,,,,,,,,,,,,,,,,,,,,,,,,,,,,,,,,,,,,,,,,,,,,,,,,,,,,,,,,,,,,,,,,,,,,,,,,,,,,,,,,,,,,,,,,,,,,,,,,,,,,,,,,,,,,,,,,,,,,,,,,,,,,,,,,,
,,,,,,5f5e7de4c81d3672642cd612,62c539b6c914d34f9b3fff55,2022-07-06_09h29.18.874,Colour_Asymmetry_Pilot,2022.1.3,Win32,59.56990528,62c50e9c1127f2cd403a315f,0,116,116,150,1,fourtwo,,,,,,,,,,,,,,,,,,,,,,,,,,,,,,,,,,,,,,,,,,,,,,,,,,,,,,,,,,,,,,,,,,,,,,,,,,,,,,,,,,,,,,,,,,,,,,,,,,,,,,,,,,,,,,,,,,,,,,,,,,,,,,,,,,,,,,,,,,,,,,,,,,,,,,,,,,,,,
,,,,,,5f5e7de4c81d3672642cd612,62c539b6c914d34f9b3fff55,2022-07-06_09h29.18.874,Colour_Asymmetry_Pilot,2022.1.3,Win32,59.56990528,62c50e9c1127f2cd403a315f,0,117,117,122,1,twoone,,,,,,,,,,,,,,,,,,,,,,,,,,,,,,,,,,,,,,,,,,,,,,,,,,,,,,,,,,,,,,,,,,,,,,,,,,,,,,,,,,,,,,,,,,,,,,,,,,,,,,,,,,,,,,,,,,,,,,,,,,,,,,,,,,,,,,,,,,,,,,,,,,,,,,,,,,,,,
,,,,,,5f5e7de4c81d3672642cd612,62c539b6c914d34f9b3fff55,2022-07-06_09h29.18.874,Colour_Asymmetry_Pilot,2022.1.3,Win32,59.56990528,62c50e9c1127f2cd403a315f,0,118,118,87,1,fourthree,,,,,,,,,,,,,,,,,,,,,,,,,,,,,,,,,,,,,,,,,,,,,,,,,,,,,,,,,,,,,,,,,,,,,,,,,,,,,,,,,,,,,,,,,,,,,,,,,,,,,,,,,,,,,,,,,,,,,,,,,,,,,,,,,,,,,,,,,,,,,,,,,,,,,,,,,,,,,
,,,,,,5f5e7de4c81d3672642cd612,62c539b6c914d34f9b3fff55,2022-07-06_09h29.18.874,Colour_Asymmetry_Pilot,2022.1.3,Win32,59.56990528,62c50e9c1127f2cd403a315f,0,119,119,153,1,onethree,,,,,,,,,,,,,,,,,,,,,,,,,,,,,,,,,,,,,,,,,,,,,,,,,,,,,,,,,,,,,,,,,,,,,,,,,,,,,,,,,,,,,,,,,,,,,,,,,,,,,,,,,,,,,,,,,,,,,,,,,,,,,,,,,,,,,,,,,,,,,,,,,,,,,,,,,,,,,
,,,,,,5f5e7de4c81d3672642cd612,62c539b6c914d34f9b3fff55,2022-07-06_09h29.18.874,Colour_Asymmetry_Pilot,2022.1.3,Win32,59.56990528,62c50e9c1127f2cd403a315f,0,120,120,152,1,onetwo,,,,,,,,,,,,,,,,,,,,,,,,,,,,,,,,,,,,,,,,,,,,,,,,,,,,,,,,,,,,,,,,,,,,,,,,,,,,,,,,,,,,,,,,,,,,,,,,,,,,,,,,,,,,,,,,,,,,,,,,,,,,,,,,,,,,,,,,,,,,,,,,,,,,,,,,,,,,,
,,,,,,5f5e7de4c81d3672642cd612,62c539b6c914d34f9b3fff55,2022-07-06_09h29.18.874,Colour_Asymmetry_Pilot,2022.1.3,Win32,59.56990528,62c50e9c1127f2cd403a315f,0,121,121,37,1,threefour,,,,,,,,,,,,,,,,,,,,,,,,,,,,,,,,,,,,,,,,,,,,,,,,,,,,,,,,,,,,,,,,,,,,,,,,,,,,,,,,,,,,,,,,,,,,,,,,,,,,,,,,,,,,,,,,,,,,,,,,,,,,,,,,,,,,,,,,,,,,,,,,,,,,,,,,,,,,,
,,,,,,5f5e7de4c81d3672642cd612,62c539b6c914d34f9b3fff55,2022-07-06_09h29.18.874,Colour_Asymmetry_Pilot,2022.1.3,Win32,59.56990528,62c50e9c1127f2cd403a315f,0,122,122,75,1,twofour,,,,,,,,,,,,,,,,,,,,,,,,,,,,,,,,,,,,,,,,,,,,,,,,,,,,,,,,,,,,,,,,,,,,,,,,,,,,,,,,,,,,,,,,,,,,,,,,,,,,,,,,,,,,,,,,,,,,,,,,,,,,,,,,,,,,,,,,,,,,,,,,,,,,,,,,,,,,,
,,,,,,5f5e7de4c81d3672642cd612,62c539b6c914d34f9b3fff55,2022-07-06_09h29.18.874,Colour_Asymmetry_Pilot,2022.1.3,Win32,59.56990528,62c50e9c1127f2cd403a315f,0,123,123,42,1,twoone,,,,,,,,,,,,,,,,,,,,,,,,,,,,,,,,,,,,,,,,,,,,,,,,,,,,,,,,,,,,,,,,,,,,,,,,,,,,,,,,,,,,,,,,,,,,,,,,,,,,,,,,,,,,,,,,,,,,,,,,,,,,,,,,,,,,,,,,,,,,,,,,,,,,,,,,,,,,,
,,,,,,5f5e7de4c81d3672642cd612,62c539b6c914d34f9b3fff55,2022-07-06_09h29.18.874,Colour_Asymmetry_Pilot,2022.1.3,Win32,59.56990528,62c50e9c1127f2cd403a315f,0,124,124,90,1,twoone,,,,,,,,,,,,,,,,,,,,,,,,,,,,,,,,,,,,,,,,,,,,,,,,,,,,,,,,,,,,,,,,,,,,,,,,,,,,,,,,,,,,,,,,,,,,,,,,,,,,,,,,,,,,,,,,,,,,,,,,,,,,,,,,,,,,,,,,,,,,,,,,,,,,,,,,,,,,,
,,,,,,5f5e7de4c81d3672642cd612,62c539b6c914d34f9b3fff55,2022-07-06_09h29.18.874,Colour_Asymmetry_Pilot,2022.1.3,Win32,59.56990528,62c50e9c1127f2cd403a315f,0,125,125,16,1,onetwo,,,,,,,,,,,,,,,,,,,,,,,,,,,,,,,,,,,,,,,,,,,,,,,,,,,,,,,,,,,,,,,,,,,,,,,,,,,,,,,,,,,,,,,,,,,,,,,,,,,,,,,,,,,,,,,,,,,,,,,,,,,,,,,,,,,,,,,,,,,,,,,,,,,,,,,,,,,,,
,,,,,,5f5e7de4c81d3672642cd612,62c539b6c914d34f9b3fff55,2022-07-06_09h29.18.874,Colour_Asymmetry_Pilot,2022.1.3,Win32,59.56990528,62c50e9c1127f2cd403a315f,0,126,126,124,1,threeone,,,,,,,,,,,,,,,,,,,,,,,,,,,,,,,,,,,,,,,,,,,,,,,,,,,,,,,,,,,,,,,,,,,,,,,,,,,,,,,,,,,,,,,,,,,,,,,,,,,,,,,,,,,,,,,,,,,,,,,,,,,,,,,,,,,,,,,,,,,,,,,,,,,,,,,,,,,,,
,,,,,,5f5e7de4c81d3672642cd612,62c539b6c914d34f9b3fff55,2022-07-06_09h29.18.874,Colour_Asymmetry_Pilot,2022.1.3,Win32,59.56990528,62c50e9c1127f2cd403a315f,0,127,127,11,1,twofour,,,,,,,,,,,,,,,,,,,,,,,,,,,,,,,,,,,,,,,,,,,,,,,,,,,,,,,,,,,,,,,,,,,,,,,,,,,,,,,,,,,,,,,,,,,,,,,,,,,,,,,,,,,,,,,,,,,,,,,,,,,,,,,,,,,,,,,,,,,,,,,,,,,,,,,,,,,,,
,,,,,,5f5e7de4c81d3672642cd612,62c539b6c914d34f9b3fff55,2022-07-06_09h29.18.874,Colour_Asymmetry_Pilot,2022.1.3,Win32,59.56990528,62c50e9c1127f2cd403a315f,0,128,128,65,1,onethree,,,,,,,,,,,,,,,,,,,,,,,,,,,,,,,,,,,,,,,,,,,,,,,,,,,,,,,,,,,,,,,,,,,,,,,,,,,,,,,,,,,,,,,,,,,,,,,,,,,,,,,,,,,,,,,,,,,,,,,,,,,,,,,,,,,,,,,,,,,,,,,,,,,,,,,,,,,,,
,,,,,,5f5e7de4c81d3672642cd612,62c539b6c914d34f9b3fff55,2022-07-06_09h29.18.874,Colour_Asymmetry_Pilot,2022.1.3,Win32,59.56990528,62c50e9c1127f2cd403a315f,0,129,129,159,1,fourthree,,,,,,,,,,,,,,,,,,,,,,,,,,,,,,,,,,,,,,,,,,,,,,,,,,,,,,,,,,,,,,,,,,,,,,,,,,,,,,,,,,,,,,,,,,,,,,,,,,,,,,,,,,,,,,,,,,,,,,,,,,,,,,,,,,,,,,,,,,,,,,,,,,,,,,,,,,,,,
,,,,,,5f5e7de4c81d3672642cd612,62c539b6c914d34f9b3fff55,2022-07-06_09h29.18.874,Colour_Asymmetry_Pilot,2022.1.3,Win32,59.56990528,62c50e9c1127f2cd403a315f,0,130,130,46,1,fourtwo,,,,,,,,,,,,,,,,,,,,,,,,,,,,,,,,,,,,,,,,,,,,,,,,,,,,,,,,,,,,,,,,,,,,,,,,,,,,,,,,,,,,,,,,,,,,,,,,,,,,,,,,,,,,,,,,,,,,,,,,,,,,,,,,,,,,,,,,,,,,,,,,,,,,,,,,,,,,,
,,,,,,5f5e7de4c81d3672642cd612,62c539b6c914d34f9b3fff55,2022-07-06_09h29.18.874,Colour_Asymmetry_Pilot,2022.1.3,Win32,59.56990528,62c50e9c1127f2cd403a315f,0,131,131,78,1,fourtwo,,,,,,,,,,,,,,,,,,,,,,,,,,,,,,,,,,,,,,,,,,,,,,,,,,,,,,,,,,,,,,,,,,,,,,,,,,,,,,,,,,,,,,,,,,,,,,,,,,,,,,,,,,,,,,,,,,,,,,,,,,,,,,,,,,,,,,,,,,,,,,,,,,,,,,,,,,,,,
,,,,,,5f5e7de4c81d3672642cd612,62c539b6c914d34f9b3fff55,2022-07-06_09h29.18.874,Colour_Asymmetry_Pilot,2022.1.3,Win32,59.56990528,62c50e9c1127f2cd403a315f,0,132,132,3,1,twofour,,,,,,,,,,,,,,,,,,,,,,,,,,,,,,,,,,,,,,,,,,,,,,,,,,,,,,,,,,,,,,,,,,,,,,,,,,,,,,,,,,,,,,,,,,,,,,,,,,,,,,,,,,,,,,,,,,,,,,,,,,,,,,,,,,,,,,,,,,,,,,,,,,,,,,,,,,,,,
,,,,,,5f5e7de4c81d3672642cd612,62c539b6c914d34f9b3fff55,2022-07-06_09h29.18.874,Colour_Asymmetry_Pilot,2022.1.3,Win32,59.56990528,62c50e9c1127f2cd403a315f,0,133,133,45,1,threefour,,,,,,,,,,,,,,,,,,,,,,,,,,,,,,,,,,,,,,,,,,,,,,,,,,,,,,,,,,,,,,,,,,,,,,,,,,,,,,,,,,,,,,,,,,,,,,,,,,,,,,,,,,,,,,,,,,,,,,,,,,,,,,,,,,,,,,,,,,,,,,,,,,,,,,,,,,,,,
,,,,,,5f5e7de4c81d3672642cd612,62c539b6c914d34f9b3fff55,2022-07-06_09h29.18.874,Colour_Asymmetry_Pilot,2022.1.3,Win32,59.56990528,62c50e9c1127f2cd403a315f,0,134,134,12,1,threeone,,,,,,,,,,,,,,,,,,,,,,,,,,,,,,,,,,,,,,,,,,,,,,,,,,,,,,,,,,,,,,,,,,,,,,,,,,,,,,,,,,,,,,,,,,,,,,,,,,,,,,,,,,,,,,,,,,,,,,,,,,,,,,,,,,,,,,,,,,,,,,,,,,,,,,,,,,,,,
,,,,,,5f5e7de4c81d3672642cd612,62c539b6c914d34f9b3fff55,2022-07-06_09h29.18.874,Colour_Asymmetry_Pilot,2022.1.3,Win32,59.56990528,62c50e9c1127f2cd403a315f,0,135,135,52,1,threeone,,,,,,,,,,,,,,,,,,,,,,,,,,,,,,,,,,,,,,,,,,,,,,,,,,,,,,,,,,,,,,,,,,,,,,,,,,,,,,,,,,,,,,,,,,,,,,,,,,,,,,,,,,,,,,,,,,,,,,,,,,,,,,,,,,,,,,,,,,,,,,,,,,,,,,,,,,,,,
,,,,,,5f5e7de4c81d3672642cd612,62c539b6c914d34f9b3fff55,2022-07-06_09h29.18.874,Colour_Asymmetry_Pilot,2022.1.3,Win32,59.56990528,62c50e9c1127f2cd403a315f,0,136,136,149,1,threefour,,,,,,,,,,,,,,,,,,,,,,,,,,,,,,,,,,,,,,,,,,,,,,,,,,,,,,,,,,,,,,,,,,,,,,,,,,,,,,,,,,,,,,,,,,,,,,,,,,,,,,,,,,,,,,,,,,,,,,,,,,,,,,,,,,,,,,,,,,,,,,,,,,,,,,,,,,,,,
,,,,,,5f5e7de4c81d3672642cd612,62c539b6c914d34f9b3fff55,2022-07-06_09h29.18.874,Colour_Asymmetry_Pilot,2022.1.3,Win32,59.56990528,62c50e9c1127f2cd403a315f,0,137,137,136,1,onetwo,,,,,,,,,,,,,,,,,,,,,,,,,,,,,,,,,,,,,,,,,,,,,,,,,,,,,,,,,,,,,,,,,,,,,,,,,,,,,,,,,,,,,,,,,,,,,,,,,,,,,,,,,,,,,,,,,,,,,,,,,,,,,,,,,,,,,,,,,,,,,,,,,,,,,,,,,,,,,
,,,,,,5f5e7de4c81d3672642cd612,62c539b6c914d34f9b3fff55,2022-07-06_09h29.18.874,Colour_Asymmetry_Pilot,2022.1.3,Win32,59.56990528,62c50e9c1127f2cd403a315f,0,138,138,137,1,onethree,,,,,,,,,,,,,,,,,,,,,,,,,,,,,,,,,,,,,,,,,,,,,,,,,,,,,,,,,,,,,,,,,,,,,,,,,,,,,,,,,,,,,,,,,,,,,,,,,,,,,,,,,,,,,,,,,,,,,,,,,,,,,,,,,,,,,,,,,,,,,,,,,,,,,,,,,,,,,
,,,,,,5f5e7de4c81d3672642cd612,62c539b6c914d34f9b3fff55,2022-07-06_09h29.18.874,Colour_Asymmetry_Pilot,2022.1.3,Win32,59.56990528,62c50e9c1127f2cd403a315f,0,139,139,147,1,twofour,,,,,,,,,,,,,,,,,,,,,,,,,,,,,,,,,,,,,,,,,,,,,,,,,,,,,,,,,,,,,,,,,,,,,,,,,,,,,,,,,,,,,,,,,,,,,,,,,,,,,,,,,,,,,,,,,,,,,,,,,,,,,,,,,,,,,,,,,,,,,,,,,,,,,,,,,,,,,
,,,,,,5f5e7de4c81d3672642cd612,62c539b6c914d34f9b3fff55,2022-07-06_09h29.18.874,Colour_Asymmetry_Pilot,2022.1.3,Win32,59.56990528,62c50e9c1127f2cd403a315f,0,140,140,66,1,twoone,,,,,,,,,,,,,,,,,,,,,,,,,,,,,,,,,,,,,,,,,,,,,,,,,,,,,,,,,,,,,,,,,,,,,,,,,,,,,,,,,,,,,,,,,,,,,,,,,,,,,,,,,,,,,,,,,,,,,,,,,,,,,,,,,,,,,,,,,,,,,,,,,,,,,,,,,,,,,
,,,,,,5f5e7de4c81d3672642cd612,62c539b6c914d34f9b3fff55,2022-07-06_09h29.18.874,Colour_Asymmetry_Pilot,2022.1.3,Win32,59.56990528,62c50e9c1127f2cd403a315f,0,141,141,148,1,threeone,,,,,,,,,,,,,,,,,,,,,,,,,,,,,,,,,,,,,,,,,,,,,,,,,,,,,,,,,,,,,,,,,,,,,,,,,,,,,,,,,,,,,,,,,,,,,,,,,,,,,,,,,,,,,,,,,,,,,,,,,,,,,,,,,,,,,,,,,,,,,,,,,,,,,,,,,,,,,
,,,,,,5f5e7de4c81d3672642cd612,62c539b6c914d34f9b3fff55,2022-07-06_09h29.18.874,Colour_Asymmetry_Pilot,2022.1.3,Win32,59.56990528,62c50e9c1127f2cd403a315f,0,142,142,143,1,fourthree,,,,,,,,,,,,,,,,,,,,,,,,,,,,,,,,,,,,,,,,,,,,,,,,,,,,,,,,,,,,,,,,,,,,,,,,,,,,,,,,,,,,,,,,,,,,,,,,,,,,,,,,,,,,,,,,,,,,,,,,,,,,,,,,,,,,,,,,,,,,,,,,,,,,,,,,,,,,,
,,,,,,5f5e7de4c81d3672642cd612,62c539b6c914d34f9b3fff55,2022-07-06_09h29.18.874,Colour_Asymmetry_Pilot,2022.1.3,Win32,59.56990528,62c50e9c1127f2cd403a315f,0,143,143,128,1,onetwo,,,,,,,,,,,,,,,,,,,,,,,,,,,,,,,,,,,,,,,,,,,,,,,,,,,,,,,,,,,,,,,,,,,,,,,,,,,,,,,,,,,,,,,,,,,,,,,,,,,,,,,,,,,,,,,,,,,,,,,,,,,,,,,,,,,,,,,,,,,,,,,,,,,,,,,,,,,,,
,,,,,,5f5e7de4c81d3672642cd612,62c539b6c914d34f9b3fff55,2022-07-06_09h29.18.874,Colour_Asymmetry_Pilot,2022.1.3,Win32,59.56990528,62c50e9c1127f2cd403a315f,0,144,144,157,1,threefour,,,,,,,,,,,,,,,,,,,,,,,,,,,,,,,,,,,,,,,,,,,,,,,,,,,,,,,,,,,,,,,,,,,,,,,,,,,,,,,,,,,,,,,,,,,,,,,,,,,,,,,,,,,,,,,,,,,,,,,,,,,,,,,,,,,,,,,,,,,,,,,,,,,,,,,,,,,,,
,,,,,,5f5e7de4c81d3672642cd612,62c539b6c914d34f9b3fff55,2022-07-06_09h29.18.874,Colour_Asymmetry_Pilot,2022.1.3,Win32,59.56990528,62c50e9c1127f2cd403a315f,0,145,145,110,1,fourtwo,,,,,,,,,,,,,,,,,,,,,,,,,,,,,,,,,,,,,,,,,,,,,,,,,,,,,,,,,,,,,,,,,,,,,,,,,,,,,,,,,,,,,,,,,,,,,,,,,,,,,,,,,,,,,,,,,,,,,,,,,,,,,,,,,,,,,,,,,,,,,,,,,,,,,,,,,,,,,
,,,,,,5f5e7de4c81d3672642cd612,62c539b6c914d34f9b3fff55,2022-07-06_09h29.18.874,Colour_Asymmetry_Pilot,2022.1.3,Win32,59.56990528,62c50e9c1127f2cd403a315f,0,146,146,130,1,twoone,,,,,,,,,,,,,,,,,,,,,,,,,,,,,,,,,,,,,,,,,,,,,,,,,,,,,,,,,,,,,,,,,,,,,,,,,,,,,,,,,,,,,,,,,,,,,,,,,,,,,,,,,,,,,,,,,,,,,,,,,,,,,,,,,,,,,,,,,,,,,,,,,,,,,,,,,,,,,
,,,,,,5f5e7de4c81d3672642cd612,62c539b6c914d34f9b3fff55,2022-07-06_09h29.18.874,Colour_Asymmetry_Pilot,2022.1.3,Win32,59.56990528,62c50e9c1127f2cd403a315f,0,147,147,115,1,twofour,,,,,,,,,,,,,,,,,,,,,,,,,,,,,,,,,,,,,,,,,,,,,,,,,,,,,,,,,,,,,,,,,,,,,,,,,,,,,,,,,,,,,,,,,,,,,,,,,,,,,,,,,,,,,,,,,,,,,,,,,,,,,,,,,,,,,,,,,,,,,,,,,,,,,,,,,,,,,
,,,,,,5f5e7de4c81d3672642cd612,62c539b6c914d34f9b3fff55,2022-07-06_09h29.18.874,Colour_Asymmetry_Pilot,2022.1.3,Win32,59.56990528,62c50e9c1127f2cd403a315f,0,148,148,101,1,threefour,,,,,,,,,,,,,,,,,,,,,,,,,,,,,,,,,,,,,,,,,,,,,,,,,,,,,,,,,,,,,,,,,,,,,,,,,,,,,,,,,,,,,,,,,,,,,,,,,,,,,,,,,,,,,,,,,,,,,,,,,,,,,,,,,,,,,,,,,,,,,,,,,,,,,,,,,,,,,
,,,,,,5f5e7de4c81d3672642cd612,62c539b6c914d34f9b3fff55,2022-07-06_09h29.18.874,Colour_Asymmetry_Pilot,2022.1.3,Win32,59.56990528,62c50e9c1127f2cd403a315f,0,149,149,31,1,fourthree,,,,,,,,,,,,,,,,,,,,,,,,,,,,,,,,,,,,,,,,,,,,,,,,,,,,,,,,,,,,,,,,,,,,,,,,,,,,,,,,,,,,,,,,,,,,,,,,,,,,,,,,,,,,,,,,,,,,,,,,,,,,,,,,,,,,,,,,,,,,,,,,,,,,,,,,,,,,,
,,,,,,5f5e7de4c81d3672642cd612,62c539b6c914d34f9b3fff55,2022-07-06_09h29.18.874,Colour_Asymmetry_Pilot,2022.1.3,Win32,59.56990528,62c50e9c1127f2cd403a315f,0,150,150,83,1,twofour,,,,,,,,,,,,,,,,,,,,,,,,,,,,,,,,,,,,,,,,,,,,,,,,,,,,,,,,,,,,,,,,,,,,,,,,,,,,,,,,,,,,,,,,,,,,,,,,,,,,,,,,,,,,,,,,,,,,,,,,,,,,,,,,,,,,,,,,,,,,,,,,,,,,,,,,,,,,,
,,,,,,5f5e7de4c81d3672642cd612,62c539b6c914d34f9b3fff55,2022-07-06_09h29.18.874,Colour_Asymmetry_Pilot,2022.1.3,Win32,59.56990528,62c50e9c1127f2cd403a315f,0,151,151,44,1,threeone,,,,,,,,,,,,,,,,,,,,,,,,,,,,,,,,,,,,,,,,,,,,,,,,,,,,,,,,,,,,,,,,,,,,,,,,,,,,,,,,,,,,,,,,,,,,,,,,,,,,,,,,,,,,,,,,,,,,,,,,,,,,,,,,,,,,,,,,,,,,,,,,,,,,,,,,,,,,,
,,,,,,5f5e7de4c81d3672642cd612,62c539b6c914d34f9b3fff55,2022-07-06_09h29.18.874,Colour_Asymmetry_Pilot,2022.1.3,Win32,59.56990528,62c50e9c1127f2cd403a315f,0,152,152,47,1,fourthree,,,,,,,,,,,,,,,,,,,,,,,,,,,,,,,,,,,,,,,,,,,,,,,,,,,,,,,,,,,,,,,,,,,,,,,,,,,,,,,,,,,,,,,,,,,,,,,,,,,,,,,,,,,,,,,,,,,,,,,,,,,,,,,,,,,,,,,,,,,,,,,,,,,,,,,,,,,,,
,,,,,,5f5e7de4c81d3672642cd612,62c539b6c914d34f9b3fff55,2022-07-06_09h29.18.874,Colour_Asymmetry_Pilot,2022.1.3,Win32,59.56990528,62c50e9c1127f2cd403a315f,0,153,153,54,1,fourtwo,,,,,,,,,,,,,,,,,,,,,,,,,,,,,,,,,,,,,,,,,,,,,,,,,,,,,,,,,,,,,,,,,,,,,,,,,,,,,,,,,,,,,,,,,,,,,,,,,,,,,,,,,,,,,,,,,,,,,,,,,,,,,,,,,,,,,,,,,,,,,,,,,,,,,,,,,,,,,
,,,,,,5f5e7de4c81d3672642cd612,62c539b6c914d34f9b3fff55,2022-07-06_09h29.18.874,Colour_Asymmetry_Pilot,2022.1.3,Win32,59.56990528,62c50e9c1127f2cd403a315f,0,154,154,48,1,onetwo,,,,,,,,,,,,,,,,,,,,,,,,,,,,,,,,,,,,,,,,,,,,,,,,,,,,,,,,,,,,,,,,,,,,,,,,,,,,,,,,,,,,,,,,,,,,,,,,,,,,,,,,,,,,,,,,,,,,,,,,,,,,,,,,,,,,,,,,,,,,,,,,,,,,,,,,,,,,,
,,,,,,5f5e7de4c81d3672642cd612,62c539b6c914d34f9b3fff55,2022-07-06_09h29.18.874,Colour_Asymmetry_Pilot,2022.1.3,Win32,59.56990528,62c50e9c1127f2cd403a315f,0,155,155,41,1,onethree,,,,,,,,,,,,,,,,,,,,,,,,,,,,,,,,,,,,,,,,,,,,,,,,,,,,,,,,,,,,,,,,,,,,,,,,,,,,,,,,,,,,,,,,,,,,,,,,,,,,,,,,,,,,,,,,,,,,,,,,,,,,,,,,,,,,,,,,,,,,,,,,,,,,,,,,,,,,,
,,,,,,5f5e7de4c81d3672642cd612,62c539b6c914d34f9b3fff55,2022-07-06_09h29.18.874,Colour_Asymmetry_Pilot,2022.1.3,Win32,59.56990528,62c50e9c1127f2cd403a315f,0,156,156,142,1,fourtwo,,,,,,,,,,,,,,,,,,,,,,,,,,,,,,,,,,,,,,,,,,,,,,,,,,,,,,,,,,,,,,,,,,,,,,,,,,,,,,,,,,,,,,,,,,,,,,,,,,,,,,,,,,,,,,,,,,,,,,,,,,,,,,,,,,,,,,,,,,,,,,,,,,,,,,,,,,,,,
,,,,,,5f5e7de4c81d3672642cd612,62c539b6c914d34f9b3fff55,2022-07-06_09h29.18.874,Colour_Asymmetry_Pilot,2022.1.3,Win32,59.56990528,62c50e9c1127f2cd403a315f,0,157,157,77,1,threefour,,,,,,,,,,,,,,,,,,,,,,,,,,,,,,,,,,,,,,,,,,,,,,,,,,,,,,,,,,,,,,,,,,,,,,,,,,,,,,,,,,,,,,,,,,,,,,,,,,,,,,,,,,,,,,,,,,,,,,,,,,,,,,,,,,,,,,,,,,,,,,,,,,,,,,,,,,,,,
,,,,,,5f5e7de4c81d3672642cd612,62c539b6c914d34f9b3fff55,2022-07-06_09h29.18.874,Colour_Asymmetry_Pilot,2022.1.3,Win32,59.56990528,62c50e9c1127f2cd403a315f,0,158,158,161,1,onethree,,,,,,,,,,,,,,,,,,,,,,,,,,,,,,,,,,,,,,,,,,,,,,,,,,,,,,,,,,,,,,,,,,,,,,,,,,,,,,,,,,,,,,,,,,,,,,,,,,,,,,,,,,,,,,,,,,,,,,,,,,,,,,,,,,,,,,,,,,,,,,,,,,,,,,,,,,,,,
,,,,,,5f5e7de4c81d3672642cd612,62c539b6c914d34f9b3fff55,2022-07-06_09h29.18.874,Colour_Asymmetry_Pilot,2022.1.3,Win32,59.56990528,62c50e9c1127f2cd403a315f,0,159,159,10,1,twoone,,,,,,,,,,,,,,,,,,,,,,,,,,,,,,,,,,,,,,,,,,,,,,,,,,,,,,,,,,,,,,,,,,,,,,,,,,,,,,,,,,,,,,,,,,,,,,,,,,,,,,,,,,,,,,,,,,,,,,,,,,,,,,,,,,,,,,,,,,,,,,,,,,,,,,,,,,,,,
,,,,,,5f5e7de4c81d3672642cd612,62c539b6c914d34f9b3fff55,2022-07-06_09h29.18.874,Colour_Asymmetry_Pilot,2022.1.3,Win32,59.56990528,62c50e9c1127f2cd403a315f,0,160,160,100,1,threeone,,,,,,,,,,,,,,,,,,,,,,,,,,,,,,,,,,,,,,,,,,,,,,,,,,,,,,,,,,,,,,,,,,,,,,,,,,,,,,,,,,,,,,,,,,,,,,,,,,,,,,,,,,,,,,,,,,,,,,,,,,,,,,,,,,,,,,,,,,,,,,,,,,,,,,,,,,,,,
,,,,,,5f5e7de4c81d3672642cd612,62c539b6c914d34f9b3fff55,2022-07-06_09h29.18.874,Colour_Asymmetry_Pilot,2022.1.3,Win32,59.56990528,62c50e9c1127f2cd403a315f,0,161,161,134,1,fourtwo,,,,,,,,,,,,,,,,,,,,,,,,,,,,,,,,,,,,,,,,,,,,,,,,,,,,,,,,,,,,,,,,,,,,,,,,,,,,,,,,,,,,,,,,,,,,,,,,,,,,,,,,,,,,,,,,,,,,,,,,,,,,,,,,,,,,,,,,,,,,,,,,,,,,,,,,,,,,,
,,,,,,5f5e7de4c81d3672642cd612,62c539b6c914d34f9b3fff55,2022-07-06_09h29.18.874,Colour_Asymmetry_Pilot,2022.1.3,Win32,59.56990528,62c50e9c1127f2cd403a315f,,,,,,,space,2.8048,space,20.3076,space,44.9259,space,7.4015,space,1.7944,space,5.7963,"[0.7176,-0.906,-0.6864]",twoone,"[-0.09019999999999995,0.44300000000000006,0.5371999999999999]",-4,8.0072,-44,118,1,0,0,response7disk_5,2,-5,1,0,0,rectangle_8,2,-5,1,0,0,1,2,-5,1,0,0,0,0,0,0,1,,,,,,,,,,,,,,,,,,,,,,,,,,,,,,,,,,,,,,,,,,,,,,,,,,,,,,,,,,,,,,,,,,,,,,,,,,,,,,,,,,,,,,,,,,,,,,,,,,,,,,,,,,,,,,,,
,,,,,,5f5e7de4c81d3672642cd612,62c539b6c914d34f9b3fff55,2022-07-06_09h29.18.874,Colour_Asymmetry_Pilot,2022.1.3,Win32,59.56990528,62c50e9c1127f2cd403a315f,,,,,,,,,,,,,,,,,,,"[-0.01980000000000004,-0.5138,-0.38039999999999996]",onetwo,"[0.9842,0.7409999999999999,-0.6628000000000001]",-3,5.1543,-97,35,1,0,0,response7disk_5,-4,-5,1,0,0,rectangle_8,-4,-5,1,0,0,1,-4,-5,1,0,0,1,0,1,0,1,,,,,,,,,,,,,,,,,,,,,,,,,,,,,,,,,,,,,,,,,,,,,,,,,,,,,,,,,,,,,,,,,,,,,,,,,,,,,,,,,,,,,,,,,,,,,,,,,,,,,,,,,,,,,,,,
,,,,,,5f5e7de4c81d3672642cd612,62c539b6c914d34f9b3fff55,2022-07-06_09h29.18.874,Colour_Asymmetry_Pilot,2022.1.3,Win32,59.56990528,62c50e9c1127f2cd403a315f,,,,,,,,,,,,,,,,,,,"[0.3881999999999999,-0.23939999999999995,-0.05040000000000011]",fourthree,"[0.11359999999999992,0.6312,0.5213999999999999]",-2,2.152,-73,-29,1,0,0,response5disk_5,-18,-2,1,0,0,rectangle_8,-18,-2,1,0,0,1,-18,-2,1,0,0,2,0,2,0,1,,,,,,,,,,,,,,,,,,,,,,,,,,,,,,,,,,,,,,,,,,,,,,,,,,,,,,,,,,,,,,,,,,,,,,,,,,,,,,,,,,,,,,,,,,,,,,,,,,,,,,,,,,,,,,,,
,,,,,,5f5e7de4c81d3672642cd612,62c539b6c914d34f9b3fff55,2022-07-06_09h29.18.874,Colour_Asymmetry_Pilot,2022.1.3,Win32,59.56990528,62c50e9c1127f2cd403a315f,,,,,,,,,,,,,,,,,,,"[-0.45899999999999996,-0.3256,-0.9374]",fourthree,"[0.7018,0.7176,0.6155999999999999]",-2,2.8858,-80,-32,1,0,0,response5disk_5,-4,-12,1,0,0,rectangle_8,44,-119,1,0,0,1,2,-5,1,0,0,3,0,3,0,1,response3disk_7,4,rectangle_4,,,,,,,,,,,,,,,,,,,,,,,,,,,,,,,,,,,,,,,,,,,,,,,,,,,,,,,,,,,,,,,,,,,,,,,,,,,,,,,,,,,,,,,,,,,,,,,,,,,,,,,,,,,,,
,,,,,,5f5e7de4c81d3672642cd612,62c539b6c914d34f9b3fff55,2022-07-06_09h29.18.874,Colour_Asymmetry_Pilot,2022.1.3,Win32,59.56990528,62c50e9c1127f2cd403a315f,,,,,,,,,,,,,,,,,,,"[-0.45899999999999996,-0.3256,-0.9374]",threefour,"[0.05879999999999996,0.2784,0.5841999999999998]",-1,1.5848,-21,-71,1,0,0,response5disk_5,11,2,1,0,0,rectangle_8,11,2,1,0,0,1,11,2,1,0,0,4,0,4,0,1,,,,,,,,,,,,,,,,,,,,,,,,,,,,,,,,,,,,,,,,,,,,,,,,,,,,,,,,,,,,,,,,,,,,,,,,,,,,,,,,,,,,,,,,,,,,,,,,,,,,,,,,,,,,,,,,
,,,,,,5f5e7de4c81d3672642cd612,62c539b6c914d34f9b3fff55,2022-07-06_09h29.18.874,Colour_Asymmetry_Pilot,2022.1.3,Win32,59.56990528,62c50e9c1127f2cd403a315f,,,,,,,,,,,,,,,,,,,"[0.6547999999999998,-0.043199999999999905,-0.011800000000000033]",fourthree,"[0.2784,-0.31000000000000005,-0.5452]",1,1.6513,68,-104,1,0,0,response3disk_5,9,-3,1,0,0,rectangle_8,46,-111,1,0,0,1,4,-5,1,0,0,5,0,5,0,1,response3disk_7,4,rectangle_4,,,,,,,,,,,,,,,,,,,,,,,,,,,,,,,,,,,,,,,,,,,,,,,,,,,,,,,,,,,,,,,,,,,,,,,,,,,,,,,,,,,,,,,,,,,,,,,,,,,,,,,,,,,,,
,,,,,,5f5e7de4c81d3672642cd612,62c539b6c914d34f9b3fff55,2022-07-06_09h29.18.874,Colour_Asymmetry_Pilot,2022.1.3,Win32,59.56990528,62c50e9c1127f2cd403a315f,,,,,,,,,,,,,,,,,,,"[-0.07459999999999989,0.12139999999999995,-0.9922]",onethree,"[-0.9766,-0.34920000000000007,0.2156]",-1,1.2009,-31,-92,1,0,0,response5disk_5,-7,-9,1,0,0,rectangle_8,-7,-9,1,0,0,1,-7,-9,1,0,0,6,0,6,0,1,,,,,,,,,,,,,,,,,,,,,,,,,,,,,,,,,,,,,,,,,,,,,,,,,,,,,,,,,,,,,,,,,,,,,,,,,,,,,,,,,,,,,,,,,,,,,,,,,,,,,,,,,,,,,,,,
,,,,,,5f5e7de4c81d3672642cd612,62c539b6c914d34f9b3fff55,2022-07-06_09h29.18.874,Colour_Asymmetry_Pilot,2022.1.3,Win32,59.56990528,62c50e9c1127f2cd403a315f,,,,,,,,,,,,,,,,,,,,threeone,,2,2.9191,,,,,,,,,,,,,,,,,,,,,,,,,,,,,,,,space,3.2651,"[-0.07459999999999989,0.12139999999999995,-0.9922]","[0.7018,0.7802,-0.16079999999999994]",127,-52,1,0,0,response3disk,-5,1,1,0,0,rectangle,-5,1,1,0,0,,1,0.001,0,-5,1,1,0,0,0,0,0,100,1,19,second,,,,,,,,,,,,,,,,,,,,,,,,,,,,,,,,,,,,,,,,,,,,,,,,,,,,,,,,,,,,,,,,,,,,,,,,
,,,,,,5f5e7de4c81d3672642cd612,62c539b6c914d34f9b3fff55,2022-07-06_09h29.18.874,Colour_Asymmetry_Pilot,2022.1.3,Win32,59.56990528,62c50e9c1127f2cd403a315f,,,,,,,,,,,,,,,,,,,,twofour,,-3,2.986,,,,,,,,,,,,,,,,,,,,,,,,,,,,,,,,,,"[-0.5452,-0.608,0.2470000000000001]","[0.37240000000000006,-0.050999999999999934,-0.5216]",-127,47,1,0,0,response7disk,9,-8,1,0,0,rectangle,9,-8,1,0,0,,1,0.0001,0,9,-8,1,0,0,0,1,1,34,1,34,first,,,,,,,,,,,,,,,,,,,,,,,,,,,,,,,,,,,,,,,,,,,,,,,,,,,,,,,,,,,,,,,,,,,,,,,,
,,,,,,5f5e7de4c81d3672642cd612,62c539b6c914d34f9b3fff55,2022-07-06_09h29.18.874,Colour_Asymmetry_Pilot,2022.1.3,Win32,59.56990528,62c50e9c1127f2cd403a315f,,,,,,,,,,,,,,,,,,,,fourthree,,-4,0.6339,,,,,,,,,,,,,,,,,,,,,,,,,,,,,,,,,,"[-0.24719999999999998,0.5213999999999999,-0.12959999999999994]","[-0.5922000000000001,-0.7492000000000001,-0.5296000000000001]",-53,107,1,0,0,response7disk,-3,-3,1,0,0,rectangle,-3,-3,1,0,0,,3,0.0007,0,-3,-3,1,0,0,0,2,2,40,1,40,first,,,,,,,,,,,,,,,,,,,,,,,,,,,,,,,,,,,,,,,,,,,,,,,,,,,,,,,,,,,,,,,,,,,,,,,,
,,,,,,5f5e7de4c81d3672642cd612,62c539b6c914d34f9b3fff55,2022-07-06_09h29.18.874,Colour_Asymmetry_Pilot,2022.1.3,Win32,59.56990528,62c50e9c1127f2cd403a315f,,,,,,,,,,,,,,,,,,,,onethree,,-1,0.5171,,,,,,,,,,,,,,,,,,,,,,,,,,,,,,,,,,"[0.5528,0.7409999999999999,-0.71]","[-0.9688,-0.38039999999999996,-0.41979999999999995]",-49,-78,1,0,0,response5disk,-2,-8,1,0,0,rectangle,-2,-8,1,0,0,,3,0,0,-2,-8,1,0,0,0,3,3,24,1,24,first,,,,,,,,,,,,,,,,,,,,,,,,,,,,,,,,,,,,,,,,,,,,,,,,,,,,,,,,,,,,,,,,,,,,,,,,
,,,,,,5f5e7de4c81d3672642cd612,62c539b6c914d34f9b3fff55,2022-07-06_09h29.18.874,Colour_Asymmetry_Pilot,2022.1.3,Win32,59.56990528,62c50e9c1127f2cd403a315f,,,,,,,,,,,,,,,,,,,,onethree,,4,0.5339,,,,,,,,,,,,,,,,,,,,,,,,,,,,,,,,,,"[0.23120000000000007,-0.7726,-0.34120000000000006]","[-0.011800000000000033,-0.906,-0.45100000000000007]",54,112,1,0,0,response1disk,-4,-6,1,0,0,rectangle,-4,-6,1,0,0,,3,0.0001,0,-4,-6,1,0,0,0,4,4,152,1,71,second,,,,,,,,,,,,,,,,,,,,,,,,,,,,,,,,,,,,,,,,,,,,,,,,,,,,,,,,,,,,,,,,,,,,,,,,
,,,,,,5f5e7de4c81d3672642cd612,62c539b6c914d34f9b3fff55,2022-07-06_09h29.18.874,Colour_Asymmetry_Pilot,2022.1.3,Win32,59.56990528,62c50e9c1127f2cd403a315f,,,,,,,,,,,,,,,,,,,,twoone,,-4,0.6173,,,,,,,,,,,,,,,,,,,,,,,,,,,,,,,,,,"[0.30180000000000007,-0.7884,-0.9844]","[-0.8118,-0.8198,-0.5452]",-41,99,1,0,0,response7disk,7,-6,1,0,0,rectangle,7,-6,1,0,0,,3,0,0,7,-6,1,0,0,0,5,5,122,1,41,second,,,,,,,,,,,,,,,,,,,,,,,,,,,,,,,,,,,,,,,,,,,,,,,,,,,,,,,,,,,,,,,,,,,,,,,,
,,,,,,5f5e7de4c81d3672642cd612,62c539b6c914d34f9b3fff55,2022-07-06_09h29.18.874,Colour_Asymmetry_Pilot,2022.1.3,Win32,59.56990528,62c50e9c1127f2cd403a315f,,,,,,,,,,,,,,,,,,,,twoone,,-2,0.5171,,,,,,,,,,,,,,,,,,,,,,,,,,,,,,,,,,"[-0.17659999999999998,-0.2864,-0.8354]","[0.30180000000000007,-0.7884,-0.9844]",-69,-39,1,0,0,response5disk,13,-6,1,0,0,rectangle,13,-6,1,0,0,,3,0.0002,0,13,-6,1,0,0,0,6,6,134,1,53,second,,,,,,,,,,,,,,,,,,,,,,,,,,,,,,,,,,,,,,,,,,,,,,,,,,,,,,,,,,,,,,,,,,,,,,,,
,,,,,,5f5e7de4c81d3672642cd612,62c539b6c914d34f9b3fff55,2022-07-06_09h29.18.874,Colour_Asymmetry_Pilot,2022.1.3,Win32,59.56990528,62c50e9c1127f2cd403a315f,,,,,,,,,,,,,,,,,,,,onethree,,2,0.467,,,,,,,,,,,,,,,,,,,,,,,,,,,,,,,,,,"[0.04299999999999993,0.16060000000000008,-0.6628000000000001]","[-0.17659999999999998,-0.2864,-0.8354]",71,-41,1,0,0,response3disk,5,-2,1,0,0,rectangle,82,-47,1,0,0,2,2,1.7346,1,9,-17,1,0,0,0,7,7,161,1,80,second,response3disk_3,rectangle,,,,,,,,,,,,,,,,,,,,,,,,,,,,,,,,,,,,,,,,,,,,,,,,,,,,,,,,,,,,,,,,,,,,,,
,,,,,,5f5e7de4c81d3672642cd612,62c539b6c914d34f9b3fff55,2022-07-06_09h29.18.874,Colour_Asymmetry_Pilot,2022.1.3,Win32,59.56990528,62c50e9c1127f2cd403a315f,,,,,,,,,,,,,,,,,,,,fourtwo,,2,0.6505,,,,,,,,,,,,,,,,,,,,,,,,,,,,,,,,,,"[-0.8982,-0.37259999999999993,0.2784]","[-0.8118,-0.8198,-0.5452]",122,-35,1,0,0,response3disk,-5,-4,1,0,0,rectangle,-5,-4,1,0,0,2,2,0.0002,0,-5,-4,1,0,0,0,8,8,26,1,26,first,,,,,,,,,,,,,,,,,,,,,,,,,,,,,,,,,,,,,,,,,,,,,,,,,,,,,,,,,,,,,,,,,,,,,,,,
,,,,,,5f5e7de4c81d3672642cd612,62c539b6c914d34f9b3fff55,2022-07-06_09h29.18.874,Colour_Asymmetry_Pilot,2022.1.3,Win32,59.56990528,62c50e9c1127f2cd403a315f,,,,,,,,,,,,,,,,,,,,twofour,,-1,0.8006,,,,,,,,,,,,,,,,,,,,,,,,,,,,,,,,,,"[-0.9216,-0.5529999999999999,-0.3962]","[-0.4276,0.0038000000000000256,-0.3256]",-35,-100,1,0,0,response5disk,19,-4,1,0,0,rectangle,19,-4,1,0,0,2,3,0.0008,0,19,-4,1,0,0,0,9,9,95,1,14,second,,,,,,,,,,,,,,,,,,,,,,,,,,,,,,,,,,,,,,,,,,,,,,,,,,,,,,,,,,,,,,,,,,,,,,,,
,,,,,,5f5e7de4c81d3672642cd612,62c539b6c914d34f9b3fff55,2022-07-06_09h29.18.874,Colour_Asymmetry_Pilot,2022.1.3,Win32,59.56990528,62c50e9c1127f2cd403a315f,,,,,,,,,,,,,,,,,,,,fourtwo,,-2,0.6008,,,,,,,,,,,,,,,,,,,,,,,,,,,,,,,,,,"[0.30180000000000007,-0.7884,-0.9844]","[-0.4668,-0.8746,-0.2942]",-96,-55,1,0,0,response5disk,-6,-12,1,0,0,rectangle,-6,-12,1,0,0,2,3,0.0001,0,-6,-12,1,0,0,0,10,10,2,1,2,first,,,,,,,,,,,,,,,,,,,,,,,,,,,,,,,,,,,,,,,,,,,,,,,,,,,,,,,,,,,,,,,,,,,,,,,,
,,,,,,5f5e7de4c81d3672642cd612,62c539b6c914d34f9b3fff55,2022-07-06_09h29.18.874,Colour_Asymmetry_Pilot,2022.1.3,Win32,59.56990528,62c50e9c1127f2cd403a315f,,,,,,,,,,,,,,,,,,,,threeone,,4,0.6833,,,,,,,,,,,,,,,,,,,,,,,,,,,,,,,,,,"[-0.6235999999999999,-0.6786,-0.08239999999999992]","[-0.4982,-0.2942,-0.0354000000000001]",45,73,1,0,0,response1disk,15,1,1,0,0,rectangle,15,1,1,0,0,2,1,0.0004,0,15,1,1,0,0,0,11,11,13,1,13,first,,,,,,,,,,,,,,,,,,,,,,,,,,,,,,,,,,,,,,,,,,,,,,,,,,,,,,,,,,,,,,,,,,,,,,,,
,,,,,,5f5e7de4c81d3672642cd612,62c539b6c914d34f9b3fff55,2022-07-06_09h29.18.874,Colour_Asymmetry_Pilot,2022.1.3,Win32,59.56990528,62c50e9c1127f2cd403a315f,,,,,,,,,,,,,,,,,,,,onethree,,1,1.1008,,,,,,,,,,,,,,,,,,,,,,,,,,,,,,,,,,"[-0.4668,-0.8746,-0.2942]","[-0.5688,-0.08239999999999992,-0.1844]",38,-99,1,0,0,response3disk,2,0,1,0,0,rectangle,2,0,1,0,0,2,3,0.0004,0,2,0,1,0,0,0,12,12,101,1,20,second,,,,,,,,,,,,,,,,,,,,,,,,,,,,,,,,,,,,,,,,,,,,,,,,,,,,,,,,,,,,,,,,,,,,,,,,
,,,,,,5f5e7de4c81d3672642cd612,62c539b6c914d34f9b3fff55,2022-07-06_09h29.18.874,Colour_Asymmetry_Pilot,2022.1.3,Win32,59.56990528,62c50e9c1127f2cd403a315f,,,,,,,,,,,,,,,,,,,,fourthree,,-1,0.7841,,,,,,,,,,,,,,,,,,,,,,,,,,,,,,,,,,"[-0.9296,-0.12959999999999994,-0.043199999999999905]","[0.9842,0.7409999999999999,-0.6628000000000001]",-48,-97,1,0,0,response5disk,-2,0,1,0,0,rectangle,-2,0,1,0,0,2,3,0.0001,0,-2,0,1,0,0,0,13,13,72,1,72,first,,,,,,,,,,,,,,,,,,,,,,,,,,,,,,,,,,,,,,,,,,,,,,,,,,,,,,,,,,,,,,,,,,,,,,,,
,,,,,,5f5e7de4c81d3672642cd612,62c539b6c914d34f9b3fff55,2022-07-06_09h29.18.874,Colour_Asymmetry_Pilot,2022.1.3,Win32,59.56990528,62c50e9c1127f2cd403a315f,,,,,,,,,,,,,,,,,,,,threefour,,1,0.7676,,,,,,,,,,,,,,,,,,,,,,,,,,,,,,,,,,"[-0.2942,-0.7648,-0.7492000000000001]","[0.8274000000000001,-0.5844,-0.9452]",52,-81,1,0,0,response3disk,4,-4,1,0,0,rectangle,4,-4,1,0,0,2,1,0.0006,0,4,-4,1,0,0,0,14,14,23,1,23,first,,,,,,,,,,,,,,,,,,,,,,,,,,,,,,,,,,,,,,,,,,,,,,,,,,,,,,,,,,,,,,,,,,,,,,,,
,,,,,,5f5e7de4c81d3672642cd612,62c539b6c914d34f9b3fff55,2022-07-06_09h29.18.874,Colour_Asymmetry_Pilot,2022.1.3,Win32,59.56990528,62c50e9c1127f2cd403a315f,,,,,,,,,,,,,,,,,,,,onethree,,-4,1.6347,,,,,,,,,,,,,,,,,,,,,,,,,,,,,,,,,,"[0.40379999999999994,0.09000000000000008,0.44300000000000006]","[0.34099999999999997,0.5841999999999998,-0.9844]",-31,70,1,0,0,response7disk,-1,-16,1,0,0,rectangle,-1,-16,1,0,0,2,1,0.0002,0,-1,-16,1,0,0,0,15,15,90,1,9,second,,,,,,,,,,,,,,,,,,,,,,,,,,,,,,,,,,,,,,,,,,,,,,,,,,,,,,,,,,,,,,,,,,,,,,,,
,,,,,,5f5e7de4c81d3672642cd612,62c539b6c914d34f9b3fff55,2022-07-06_09h29.18.874,Colour_Asymmetry_Pilot,2022.1.3,Win32,59.56990528,62c50e9c1127f2cd403a315f,,,,,,,,,,,,,,,,,,,,twoone,,1,1.0509,,,,,,,,,,,,,,,,,,,,,,,,,,,,,,,,,,"[-0.011800000000000033,-0.906,-0.45100000000000007]","[0.8115999999999999,-0.0040000000000000036,-0.09819999999999995]",47,-93,1,0,0,response3disk,17,1,1,0,0,rectangle,17,1,1,0,0,2,1,0.0001,0,17,1,1,0,0,0,16,16,58,1,58,first,,,,,,,,,,,,,,,,,,,,,,,,,,,,,,,,,,,,,,,,,,,,,,,,,,,,,,,,,,,,,,,,,,,,,,,,
,,,,,,5f5e7de4c81d3672642cd612,62c539b6c914d34f9b3fff55,2022-07-06_09h29.18.874,Colour_Asymmetry_Pilot,2022.1.3,Win32,59.56990528,62c50e9c1127f2cd403a315f,,,,,,,,,,,,,,,,,,,,onetwo,,4,0.8173,,,,,,,,,,,,,,,,,,,,,,,,,,,,,,,,,,"[-0.7412000000000001,-0.08239999999999992,-0.6864]","[-0.4902000000000001,0.2704,-0.45899999999999996]",48,88,1,0,0,response1disk,-8,-11,1,0,0,rectangle,40,-112,1,0,0,1,1,1.3846,1,1,-2,1,0,0,0,17,17,55,1,55,first,response3disk_3,rectangle,,,,,,,,,,,,,,,,,,,,,,,,,,,,,,,,,,,,,,,,,,,,,,,,,,,,,,,,,,,,,,,,,,,,,,
