trials.thisRepN,trials.thisTrialN,trials.thisN,trials.thisIndex,trials.ran,Colourcodes,participant,session,date,expName,psychopyVersion,OS,frameRate,study_id,trials_4.thisRepN,trials_4.thisTrialN,trials_4.thisN,trials_4.thisIndex,trials_4.ran,StimulusPos,key_resp.keys,key_resp.rt,key_resp_2.keys,key_resp_2.rt,key_resp_15.keys,key_resp_15.rt,key_resp_17.keys,key_resp_17.rt,key_resp_9.keys,key_resp_9.rt,key_resp_10.keys,key_resp_10.rt,Circle1_col,Ecc,Circle2_col,similarity,response_time,mouse_5.x,mouse_5.y,mouse_5.leftButton,mouse_5.midButton,mouse_5.rightButton,mouse_5.clicked_name,mouse_10.x,mouse_10.y,mouse_10.leftButton,mouse_10.midButton,mouse_10.rightButton,mouse_10.clicked_name,mouse_7.x,mouse_7.y,mouse_7.leftButton,mouse_7.midButton,mouse_7.rightButton,catchnumberprac,mouse_6.x,mouse_6.y,mouse_6.leftButton,mouse_6.midButton,mouse_6.rightButton,duringprac.thisRepN,duringprac.thisTrialN,duringprac.thisN,duringprac.thisIndex,duringprac.ran,mouse_7.clicked_name,catchprac,mouse_6.clicked_name,key_resp_22.keys,key_resp_22.rt,Circle1_colour,Circle2_colour,mouse.x,mouse.y,mouse.leftButton,mouse.midButton,mouse.rightButton,mouse.clicked_name,mouse_2.x,mouse_2.y,mouse_2.leftButton,mouse_2.midButton,mouse_2.rightButton,mouse_2.clicked_name,mouse_3.x,mouse_3.y,mouse_3.leftButton,mouse_3.midButton,mouse_3.rightButton,catchresponse,catchnumber,response_time_catch,Catch,mouse_11.x,mouse_11.y,mouse_11.leftButton,mouse_11.midButton,mouse_11.rightButton,trials_2.thisRepN,trials_2.thisTrialN,trials_2.thisN,trials_2.thisIndex,trials_2.ran,Colourpair,Temporder,mouse_3.clicked_name,mouse_11.clicked_name,trials_3.thisRepN,trials_3.thisTrialN,trials_3.thisN,trials_3.thisIndex,trials_3.ran,key_resp_instr_Ishi.keys,key_resp_instr_Ishi.rt,Ishi_trial_keyresp.keys,Ishi_textbox.text,Ishi_mouse.x,Ishi_mouse.y,Ishi_mouse.leftButton,Ishi_mouse.midButton,Ishi_mouse.rightButton,Ishi_mouse.clicked_name,Ishi_loop.thisRepN,Ishi_loop.thisTrialN,Ishi_loop.thisN,Ishi_loop.thisIndex,Ishi_loop.ran,imageaddress,textbox.text,mouse_4.x,mouse_4.y,mouse_4.leftButton,mouse_4.midButton,mouse_4.rightButton,mouse_4.clicked_name,textbox_2.text,mouse_8.x,mouse_8.y,mouse_8.leftButton,mouse_8.midButton,mouse_8.rightButton,mouse_8.clicked_name,textbox_3.text,mouse_9.x,mouse_9.y,mouse_9.leftButton,mouse_9.midButton,mouse_9.rightButton,mouse_9.clicked_name,textbox_4.text,mouse_12.x,mouse_12.y,mouse_12.leftButton,mouse_12.midButton,mouse_12.rightButton,mouse_12.clicked_name,textbox_5.text,mouse_13.x,mouse_13.y,mouse_13.leftButton,mouse_13.midButton,mouse_13.rightButton,mouse_13.clicked_name,textbox_6.text,mouse_14.x,mouse_14.y,mouse_14.leftButton,mouse_14.midButton,mouse_14.rightButton,mouse_14.clicked_name,textbox_7.text,mouse_15.x,mouse_15.y,mouse_15.leftButton,mouse_15.midButton,mouse_15.rightButton,mouse_15.clicked_name
0,0,0,3,1,,60703c1f8af049d40a5df5f3,62c539a47f81ed87f953c7c7,2022-07-06_09h28.51.524,Colour_Asymmetry_Pilot,2022.1.3,Win32,59.88741167,62c50e9c1127f2cd403a315f,,,,,,,,,,,,,,,,,,,,,,,,,,,,,,,,,,,,,,,,,,,,,,,,,,,,,,,,,,,,,,,,,,,,,,,,,,,,,,,,,,,,,,,,,,,,,,,,,,,,,,,,,,,,,,,,,,,,,,,,,,,,,,,,,,,,,,,,,,,,,,,,,,,,,,,,,,,,,,,,,,,
0,1,1,69,1,,60703c1f8af049d40a5df5f3,62c539a47f81ed87f953c7c7,2022-07-06_09h28.51.524,Colour_Asymmetry_Pilot,2022.1.3,Win32,59.88741167,62c50e9c1127f2cd403a315f,,,,,,,,,,,,,,,,,,,,,,,,,,,,,,,,,,,,,,,,,,,,,,,,,,,,,,,,,,,,,,,,,,,,,,,,,,,,,,,,,,,,,,,,,,,,,,,,,,,,,,,,,,,,,,,,,,,,,,,,,,,,,,,,,,,,,,,,,,,,,,,,,,,,,,,,,,,,,,,,,,,
0,2,2,43,1,,60703c1f8af049d40a5df5f3,62c539a47f81ed87f953c7c7,2022-07-06_09h28.51.524,Colour_Asymmetry_Pilot,2022.1.3,Win32,59.88741167,62c50e9c1127f2cd403a315f,,,,,,,,,,,,,,,,,,,,,,,,,,,,,,,,,,,,,,,,,,,,,,,,,,,,,,,,,,,,,,,,,,,,,,,,,,,,,,,,,,,,,,,,,,,,,,,,,,,,,,,,,,,,,,,,,,,,,,,,,,,,,,,,,,,,,,,,,,,,,,,,,,,,,,,,,,,,,,,,,,,
0,3,3,83,1,,60703c1f8af049d40a5df5f3,62c539a47f81ed87f953c7c7,2022-07-06_09h28.51.524,Colour_Asymmetry_Pilot,2022.1.3,Win32,59.88741167,62c50e9c1127f2cd403a315f,,,,,,,,,,,,,,,,,,,,,,,,,,,,,,,,,,,,,,,,,,,,,,,,,,,,,,,,,,,,,,,,,,,,,,,,,,,,,,,,,,,,,,,,,,,,,,,,,,,,,,,,,,,,,,,,,,,,,,,,,,,,,,,,,,,,,,,,,,,,,,,,,,,,,,,,,,,,,,,,,,,
0,4,4,37,1,,60703c1f8af049d40a5df5f3,62c539a47f81ed87f953c7c7,2022-07-06_09h28.51.524,Colour_Asymmetry_Pilot,2022.1.3,Win32,59.88741167,62c50e9c1127f2cd403a315f,,,,,,,,,,,,,,,,,,,,,,,,,,,,,,,,,,,,,,,,,,,,,,,,,,,,,,,,,,,,,,,,,,,,,,,,,,,,,,,,,,,,,,,,,,,,,,,,,,,,,,,,,,,,,,,,,,,,,,,,,,,,,,,,,,,,,,,,,,,,,,,,,,,,,,,,,,,,,,,,,,,
0,5,5,87,1,,60703c1f8af049d40a5df5f3,62c539a47f81ed87f953c7c7,2022-07-06_09h28.51.524,Colour_Asymmetry_Pilot,2022.1.3,Win32,59.88741167,62c50e9c1127f2cd403a315f,,,,,,,,,,,,,,,,,,,,,,,,,,,,,,,,,,,,,,,,,,,,,,,,,,,,,,,,,,,,,,,,,,,,,,,,,,,,,,,,,,,,,,,,,,,,,,,,,,,,,,,,,,,,,,,,,,,,,,,,,,,,,,,,,,,,,,,,,,,,,,,,,,,,,,,,,,,,,,,,,,,
0,6,6,27,1,,60703c1f8af049d40a5df5f3,62c539a47f81ed87f953c7c7,2022-07-06_09h28.51.524,Colour_Asymmetry_Pilot,2022.1.3,Win32,59.88741167,62c50e9c1127f2cd403a315f,,,,,,,,,,,,,,,,,,,,,,,,,,,,,,,,,,,,,,,,,,,,,,,,,,,,,,,,,,,,,,,,,,,,,,,,,,,,,,,,,,,,,,,,,,,,,,,,,,,,,,,,,,,,,,,,,,,,,,,,,,,,,,,,,,,,,,,,,,,,,,,,,,,,,,,,,,,,,,,,,,,
0,7,7,16,1,,60703c1f8af049d40a5df5f3,62c539a47f81ed87f953c7c7,2022-07-06_09h28.51.524,Colour_Asymmetry_Pilot,2022.1.3,Win32,59.88741167,62c50e9c1127f2cd403a315f,,,,,,,,,,,,,,,,,,,,,,,,,,,,,,,,,,,,,,,,,,,,,,,,,,,,,,,,,,,,,,,,,,,,,,,,,,,,,,,,,,,,,,,,,,,,,,,,,,,,,,,,,,,,,,,,,,,,,,,,,,,,,,,,,,,,,,,,,,,,,,,,,,,,,,,,,,,,,,,,,,,
0,8,8,73,1,,60703c1f8af049d40a5df5f3,62c539a47f81ed87f953c7c7,2022-07-06_09h28.51.524,Colour_Asymmetry_Pilot,2022.1.3,Win32,59.88741167,62c50e9c1127f2cd403a315f,,,,,,,,,,,,,,,,,,,,,,,,,,,,,,,,,,,,,,,,,,,,,,,,,,,,,,,,,,,,,,,,,,,,,,,,,,,,,,,,,,,,,,,,,,,,,,,,,,,,,,,,,,,,,,,,,,,,,,,,,,,,,,,,,,,,,,,,,,,,,,,,,,,,,,,,,,,,,,,,,,,
0,9,9,81,1,,60703c1f8af049d40a5df5f3,62c539a47f81ed87f953c7c7,2022-07-06_09h28.51.524,Colour_Asymmetry_Pilot,2022.1.3,Win32,59.88741167,62c50e9c1127f2cd403a315f,,,,,,,,,,,,,,,,,,,,,,,,,,,,,,,,,,,,,,,,,,,,,,,,,,,,,,,,,,,,,,,,,,,,,,,,,,,,,,,,,,,,,,,,,,,,,,,,,,,,,,,,,,,,,,,,,,,,,,,,,,,,,,,,,,,,,,,,,,,,,,,,,,,,,,,,,,,,,,,,,,,
0,10,10,53,1,,60703c1f8af049d40a5df5f3,62c539a47f81ed87f953c7c7,2022-07-06_09h28.51.524,Colour_Asymmetry_Pilot,2022.1.3,Win32,59.88741167,62c50e9c1127f2cd403a315f,,,,,,,,,,,,,,,,,,,,,,,,,,,,,,,,,,,,,,,,,,,,,,,,,,,,,,,,,,,,,,,,,,,,,,,,,,,,,,,,,,,,,,,,,,,,,,,,,,,,,,,,,,,,,,,,,,,,,,,,,,,,,,,,,,,,,,,,,,,,,,,,,,,,,,,,,,,,,,,,,,,
0,11,11,17,1,,60703c1f8af049d40a5df5f3,62c539a47f81ed87f953c7c7,2022-07-06_09h28.51.524,Colour_Asymmetry_Pilot,2022.1.3,Win32,59.88741167,62c50e9c1127f2cd403a315f,,,,,,,,,,,,,,,,,,,,,,,,,,,,,,,,,,,,,,,,,,,,,,,,,,,,,,,,,,,,,,,,,,,,,,,,,,,,,,,,,,,,,,,,,,,,,,,,,,,,,,,,,,,,,,,,,,,,,,,,,,,,,,,,,,,,,,,,,,,,,,,,,,,,,,,,,,,,,,,,,,,
0,12,12,23,1,,60703c1f8af049d40a5df5f3,62c539a47f81ed87f953c7c7,2022-07-06_09h28.51.524,Colour_Asymmetry_Pilot,2022.1.3,Win32,59.88741167,62c50e9c1127f2cd403a315f,,,,,,,,,,,,,,,,,,,,,,,,,,,,,,,,,,,,,,,,,,,,,,,,,,,,,,,,,,,,,,,,,,,,,,,,,,,,,,,,,,,,,,,,,,,,,,,,,,,,,,,,,,,,,,,,,,,,,,,,,,,,,,,,,,,,,,,,,,,,,,,,,,,,,,,,,,,,,,,,,,,
0,13,13,70,1,,60703c1f8af049d40a5df5f3,62c539a47f81ed87f953c7c7,2022-07-06_09h28.51.524,Colour_Asymmetry_Pilot,2022.1.3,Win32,59.88741167,62c50e9c1127f2cd403a315f,,,,,,,,,,,,,,,,,,,,,,,,,,,,,,,,,,,,,,,,,,,,,,,,,,,,,,,,,,,,,,,,,,,,,,,,,,,,,,,,,,,,,,,,,,,,,,,,,,,,,,,,,,,,,,,,,,,,,,,,,,,,,,,,,,,,,,,,,,,,,,,,,,,,,,,,,,,,,,,,,,,
0,14,14,34,1,,60703c1f8af049d40a5df5f3,62c539a47f81ed87f953c7c7,2022-07-06_09h28.51.524,Colour_Asymmetry_Pilot,2022.1.3,Win32,59.88741167,62c50e9c1127f2cd403a315f,,,,,,,,,,,,,,,,,,,,,,,,,,,,,,,,,,,,,,,,,,,,,,,,,,,,,,,,,,,,,,,,,,,,,,,,,,,,,,,,,,,,,,,,,,,,,,,,,,,,,,,,,,,,,,,,,,,,,,,,,,,,,,,,,,,,,,,,,,,,,,,,,,,,,,,,,,,,,,,,,,,
0,15,15,6,1,,60703c1f8af049d40a5df5f3,62c539a47f81ed87f953c7c7,2022-07-06_09h28.51.524,Colour_Asymmetry_Pilot,2022.1.3,Win32,59.88741167,62c50e9c1127f2cd403a315f,,,,,,,,,,,,,,,,,,,,,,,,,,,,,,,,,,,,,,,,,,,,,,,,,,,,,,,,,,,,,,,,,,,,,,,,,,,,,,,,,,,,,,,,,,,,,,,,,,,,,,,,,,,,,,,,,,,,,,,,,,,,,,,,,,,,,,,,,,,,,,,,,,,,,,,,,,,,,,,,,,,
0,16,16,89,1,,60703c1f8af049d40a5df5f3,62c539a47f81ed87f953c7c7,2022-07-06_09h28.51.524,Colour_Asymmetry_Pilot,2022.1.3,Win32,59.88741167,62c50e9c1127f2cd403a315f,,,,,,,,,,,,,,,,,,,,,,,,,,,,,,,,,,,,,,,,,,,,,,,,,,,,,,,,,,,,,,,,,,,,,,,,,,,,,,,,,,,,,,,,,,,,,,,,,,,,,,,,,,,,,,,,,,,,,,,,,,,,,,,,,,,,,,,,,,,,,,,,,,,,,,,,,,,,,,,,,,,
0,17,17,35,1,,60703c1f8af049d40a5df5f3,62c539a47f81ed87f953c7c7,2022-07-06_09h28.51.524,Colour_Asymmetry_Pilot,2022.1.3,Win32,59.88741167,62c50e9c1127f2cd403a315f,,,,,,,,,,,,,,,,,,,,,,,,,,,,,,,,,,,,,,,,,,,,,,,,,,,,,,,,,,,,,,,,,,,,,,,,,,,,,,,,,,,,,,,,,,,,,,,,,,,,,,,,,,,,,,,,,,,,,,,,,,,,,,,,,,,,,,,,,,,,,,,,,,,,,,,,,,,,,,,,,,,
0,18,18,61,1,,60703c1f8af049d40a5df5f3,62c539a47f81ed87f953c7c7,2022-07-06_09h28.51.524,Colour_Asymmetry_Pilot,2022.1.3,Win32,59.88741167,62c50e9c1127f2cd403a315f,,,,,,,,,,,,,,,,,,,,,,,,,,,,,,,,,,,,,,,,,,,,,,,,,,,,,,,,,,,,,,,,,,,,,,,,,,,,,,,,,,,,,,,,,,,,,,,,,,,,,,,,,,,,,,,,,,,,,,,,,,,,,,,,,,,,,,,,,,,,,,,,,,,,,,,,,,,,,,,,,,,
0,19,19,45,1,,60703c1f8af049d40a5df5f3,62c539a47f81ed87f953c7c7,2022-07-06_09h28.51.524,Colour_Asymmetry_Pilot,2022.1.3,Win32,59.88741167,62c50e9c1127f2cd403a315f,,,,,,,,,,,,,,,,,,,,,,,,,,,,,,,,,,,,,,,,,,,,,,,,,,,,,,,,,,,,,,,,,,,,,,,,,,,,,,,,,,,,,,,,,,,,,,,,,,,,,,,,,,,,,,,,,,,,,,,,,,,,,,,,,,,,,,,,,,,,,,,,,,,,,,,,,,,,,,,,,,,
0,20,20,14,1,,60703c1f8af049d40a5df5f3,62c539a47f81ed87f953c7c7,2022-07-06_09h28.51.524,Colour_Asymmetry_Pilot,2022.1.3,Win32,59.88741167,62c50e9c1127f2cd403a315f,,,,,,,,,,,,,,,,,,,,,,,,,,,,,,,,,,,,,,,,,,,,,,,,,,,,,,,,,,,,,,,,,,,,,,,,,,,,,,,,,,,,,,,,,,,,,,,,,,,,,,,,,,,,,,,,,,,,,,,,,,,,,,,,,,,,,,,,,,,,,,,,,,,,,,,,,,,,,,,,,,,
0,21,21,90,1,,60703c1f8af049d40a5df5f3,62c539a47f81ed87f953c7c7,2022-07-06_09h28.51.524,Colour_Asymmetry_Pilot,2022.1.3,Win32,59.88741167,62c50e9c1127f2cd403a315f,,,,,,,,,,,,,,,,,,,,,,,,,,,,,,,,,,,,,,,,,,,,,,,,,,,,,,,,,,,,,,,,,,,,,,,,,,,,,,,,,,,,,,,,,,,,,,,,,,,,,,,,,,,,,,,,,,,,,,,,,,,,,,,,,,,,,,,,,,,,,,,,,,,,,,,,,,,,,,,,,,,
0,22,22,4,1,,60703c1f8af049d40a5df5f3,62c539a47f81ed87f953c7c7,2022-07-06_09h28.51.524,Colour_Asymmetry_Pilot,2022.1.3,Win32,59.88741167,62c50e9c1127f2cd403a315f,,,,,,,,,,,,,,,,,,,,,,,,,,,,,,,,,,,,,,,,,,,,,,,,,,,,,,,,,,,,,,,,,,,,,,,,,,,,,,,,,,,,,,,,,,,,,,,,,,,,,,,,,,,,,,,,,,,,,,,,,,,,,,,,,,,,,,,,,,,,,,,,,,,,,,,,,,,,,,,,,,,
0,23,23,75,1,,60703c1f8af049d40a5df5f3,62c539a47f81ed87f953c7c7,2022-07-06_09h28.51.524,Colour_Asymmetry_Pilot,2022.1.3,Win32,59.88741167,62c50e9c1127f2cd403a315f,,,,,,,,,,,,,,,,,,,,,,,,,,,,,,,,,,,,,,,,,,,,,,,,,,,,,,,,,,,,,,,,,,,,,,,,,,,,,,,,,,,,,,,,,,,,,,,,,,,,,,,,,,,,,,,,,,,,,,,,,,,,,,,,,,,,,,,,,,,,,,,,,,,,,,,,,,,,,,,,,,,
0,24,24,41,1,,60703c1f8af049d40a5df5f3,62c539a47f81ed87f953c7c7,2022-07-06_09h28.51.524,Colour_Asymmetry_Pilot,2022.1.3,Win32,59.88741167,62c50e9c1127f2cd403a315f,,,,,,,,,,,,,,,,,,,,,,,,,,,,,,,,,,,,,,,,,,,,,,,,,,,,,,,,,,,,,,,,,,,,,,,,,,,,,,,,,,,,,,,,,,,,,,,,,,,,,,,,,,,,,,,,,,,,,,,,,,,,,,,,,,,,,,,,,,,,,,,,,,,,,,,,,,,,,,,,,,,
0,25,25,29,1,,60703c1f8af049d40a5df5f3,62c539a47f81ed87f953c7c7,2022-07-06_09h28.51.524,Colour_Asymmetry_Pilot,2022.1.3,Win32,59.88741167,62c50e9c1127f2cd403a315f,,,,,,,,,,,,,,,,,,,,,,,,,,,,,,,,,,,,,,,,,,,,,,,,,,,,,,,,,,,,,,,,,,,,,,,,,,,,,,,,,,,,,,,,,,,,,,,,,,,,,,,,,,,,,,,,,,,,,,,,,,,,,,,,,,,,,,,,,,,,,,,,,,,,,,,,,,,,,,,,,,,
0,26,26,22,1,,60703c1f8af049d40a5df5f3,62c539a47f81ed87f953c7c7,2022-07-06_09h28.51.524,Colour_Asymmetry_Pilot,2022.1.3,Win32,59.88741167,62c50e9c1127f2cd403a315f,,,,,,,,,,,,,,,,,,,,,,,,,,,,,,,,,,,,,,,,,,,,,,,,,,,,,,,,,,,,,,,,,,,,,,,,,,,,,,,,,,,,,,,,,,,,,,,,,,,,,,,,,,,,,,,,,,,,,,,,,,,,,,,,,,,,,,,,,,,,,,,,,,,,,,,,,,,,,,,,,,,
0,27,27,26,1,,60703c1f8af049d40a5df5f3,62c539a47f81ed87f953c7c7,2022-07-06_09h28.51.524,Colour_Asymmetry_Pilot,2022.1.3,Win32,59.88741167,62c50e9c1127f2cd403a315f,,,,,,,,,,,,,,,,,,,,,,,,,,,,,,,,,,,,,,,,,,,,,,,,,,,,,,,,,,,,,,,,,,,,,,,,,,,,,,,,,,,,,,,,,,,,,,,,,,,,,,,,,,,,,,,,,,,,,,,,,,,,,,,,,,,,,,,,,,,,,,,,,,,,,,,,,,,,,,,,,,,
0,28,28,28,1,,60703c1f8af049d40a5df5f3,62c539a47f81ed87f953c7c7,2022-07-06_09h28.51.524,Colour_Asymmetry_Pilot,2022.1.3,Win32,59.88741167,62c50e9c1127f2cd403a315f,,,,,,,,,,,,,,,,,,,,,,,,,,,,,,,,,,,,,,,,,,,,,,,,,,,,,,,,,,,,,,,,,,,,,,,,,,,,,,,,,,,,,,,,,,,,,,,,,,,,,,,,,,,,,,,,,,,,,,,,,,,,,,,,,,,,,,,,,,,,,,,,,,,,,,,,,,,,,,,,,,,
0,29,29,74,1,,60703c1f8af049d40a5df5f3,62c539a47f81ed87f953c7c7,2022-07-06_09h28.51.524,Colour_Asymmetry_Pilot,2022.1.3,Win32,59.88741167,62c50e9c1127f2cd403a315f,,,,,,,,,,,,,,,,,,,,,,,,,,,,,,,,,,,,,,,,,,,,,,,,,,,,,,,,,,,,,,,,,,,,,,,,,,,,,,,,,,,,,,,,,,,,,,,,,,,,,,,,,,,,,,,,,,,,,,,,,,,,,,,,,,,,,,,,,,,,,,,,,,,,,,,,,,,,,,,,,,,
0,30,30,59,1,,60703c1f8af049d40a5df5f3,62c539a47f81ed87f953c7c7,2022-07-06_09h28.51.524,Colour_Asymmetry_Pilot,2022.1.3,Win32,59.88741167,62c50e9c1127f2cd403a315f,,,,,,,,,,,,,,,,,,,,,,,,,,,,,,,,,,,,,,,,,,,,,,,,,,,,,,,,,,,,,,,,,,,,,,,,,,,,,,,,,,,,,,,,,,,,,,,,,,,,,,,,,,,,,,,,,,,,,,,,,,,,,,,,,,,,,,,,,,,,,,,,,,,,,,,,,,,,,,,,,,,
0,31,31,18,1,,60703c1f8af049d40a5df5f3,62c539a47f81ed87f953c7c7,2022-07-06_09h28.51.524,Colour_Asymmetry_Pilot,2022.1.3,Win32,59.88741167,62c50e9c1127f2cd403a315f,,,,,,,,,,,,,,,,,,,,,,,,,,,,,,,,,,,,,,,,,,,,,,,,,,,,,,,,,,,,,,,,,,,,,,,,,,,,,,,,,,,,,,,,,,,,,,,,,,,,,,,,,,,,,,,,,,,,,,,,,,,,,,,,,,,,,,,,,,,,,,,,,,,,,,,,,,,,,,,,,,,
0,32,32,88,1,,60703c1f8af049d40a5df5f3,62c539a47f81ed87f953c7c7,2022-07-06_09h28.51.524,Colour_Asymmetry_Pilot,2022.1.3,Win32,59.88741167,62c50e9c1127f2cd403a315f,,,,,,,,,,,,,,,,,,,,,,,,,,,,,,,,,,,,,,,,,,,,,,,,,,,,,,,,,,,,,,,,,,,,,,,,,,,,,,,,,,,,,,,,,,,,,,,,,,,,,,,,,,,,,,,,,,,,,,,,,,,,,,,,,,,,,,,,,,,,,,,,,,,,,,,,,,,,,,,,,,,
0,33,33,78,1,,60703c1f8af049d40a5df5f3,62c539a47f81ed87f953c7c7,2022-07-06_09h28.51.524,Colour_Asymmetry_Pilot,2022.1.3,Win32,59.88741167,62c50e9c1127f2cd403a315f,,,,,,,,,,,,,,,,,,,,,,,,,,,,,,,,,,,,,,,,,,,,,,,,,,,,,,,,,,,,,,,,,,,,,,,,,,,,,,,,,,,,,,,,,,,,,,,,,,,,,,,,,,,,,,,,,,,,,,,,,,,,,,,,,,,,,,,,,,,,,,,,,,,,,,,,,,,,,,,,,,,
0,34,34,92,1,,60703c1f8af049d40a5df5f3,62c539a47f81ed87f953c7c7,2022-07-06_09h28.51.524,Colour_Asymmetry_Pilot,2022.1.3,Win32,59.88741167,62c50e9c1127f2cd403a315f,,,,,,,,,,,,,,,,,,,,,,,,,,,,,,,,,,,,,,,,,,,,,,,,,,,,,,,,,,,,,,,,,,,,,,,,,,,,,,,,,,,,,,,,,,,,,,,,,,,,,,,,,,,,,,,,,,,,,,,,,,,,,,,,,,,,,,,,,,,,,,,,,,,,,,,,,,,,,,,,,,,
0,35,35,12,1,,60703c1f8af049d40a5df5f3,62c539a47f81ed87f953c7c7,2022-07-06_09h28.51.524,Colour_Asymmetry_Pilot,2022.1.3,Win32,59.88741167,62c50e9c1127f2cd403a315f,,,,,,,,,,,,,,,,,,,,,,,,,,,,,,,,,,,,,,,,,,,,,,,,,,,,,,,,,,,,,,,,,,,,,,,,,,,,,,,,,,,,,,,,,,,,,,,,,,,,,,,,,,,,,,,,,,,,,,,,,,,,,,,,,,,,,,,,,,,,,,,,,,,,,,,,,,,,,,,,,,,
0,36,36,5,1,,60703c1f8af049d40a5df5f3,62c539a47f81ed87f953c7c7,2022-07-06_09h28.51.524,Colour_Asymmetry_Pilot,2022.1.3,Win32,59.88741167,62c50e9c1127f2cd403a315f,,,,,,,,,,,,,,,,,,,,,,,,,,,,,,,,,,,,,,,,,,,,,,,,,,,,,,,,,,,,,,,,,,,,,,,,,,,,,,,,,,,,,,,,,,,,,,,,,,,,,,,,,,,,,,,,,,,,,,,,,,,,,,,,,,,,,,,,,,,,,,,,,,,,,,,,,,,,,,,,,,,
0,37,37,64,1,,60703c1f8af049d40a5df5f3,62c539a47f81ed87f953c7c7,2022-07-06_09h28.51.524,Colour_Asymmetry_Pilot,2022.1.3,Win32,59.88741167,62c50e9c1127f2cd403a315f,,,,,,,,,,,,,,,,,,,,,,,,,,,,,,,,,,,,,,,,,,,,,,,,,,,,,,,,,,,,,,,,,,,,,,,,,,,,,,,,,,,,,,,,,,,,,,,,,,,,,,,,,,,,,,,,,,,,,,,,,,,,,,,,,,,,,,,,,,,,,,,,,,,,,,,,,,,,,,,,,,,
0,38,38,38,1,,60703c1f8af049d40a5df5f3,62c539a47f81ed87f953c7c7,2022-07-06_09h28.51.524,Colour_Asymmetry_Pilot,2022.1.3,Win32,59.88741167,62c50e9c1127f2cd403a315f,,,,,,,,,,,,,,,,,,,,,,,,,,,,,,,,,,,,,,,,,,,,,,,,,,,,,,,,,,,,,,,,,,,,,,,,,,,,,,,,,,,,,,,,,,,,,,,,,,,,,,,,,,,,,,,,,,,,,,,,,,,,,,,,,,,,,,,,,,,,,,,,,,,,,,,,,,,,,,,,,,,
0,39,39,82,1,,60703c1f8af049d40a5df5f3,62c539a47f81ed87f953c7c7,2022-07-06_09h28.51.524,Colour_Asymmetry_Pilot,2022.1.3,Win32,59.88741167,62c50e9c1127f2cd403a315f,,,,,,,,,,,,,,,,,,,,,,,,,,,,,,,,,,,,,,,,,,,,,,,,,,,,,,,,,,,,,,,,,,,,,,,,,,,,,,,,,,,,,,,,,,,,,,,,,,,,,,,,,,,,,,,,,,,,,,,,,,,,,,,,,,,,,,,,,,,,,,,,,,,,,,,,,,,,,,,,,,,
0,40,40,46,1,,60703c1f8af049d40a5df5f3,62c539a47f81ed87f953c7c7,2022-07-06_09h28.51.524,Colour_Asymmetry_Pilot,2022.1.3,Win32,59.88741167,62c50e9c1127f2cd403a315f,,,,,,,,,,,,,,,,,,,,,,,,,,,,,,,,,,,,,,,,,,,,,,,,,,,,,,,,,,,,,,,,,,,,,,,,,,,,,,,,,,,,,,,,,,,,,,,,,,,,,,,,,,,,,,,,,,,,,,,,,,,,,,,,,,,,,,,,,,,,,,,,,,,,,,,,,,,,,,,,,,,
0,41,41,19,1,,60703c1f8af049d40a5df5f3,62c539a47f81ed87f953c7c7,2022-07-06_09h28.51.524,Colour_Asymmetry_Pilot,2022.1.3,Win32,59.88741167,62c50e9c1127f2cd403a315f,,,,,,,,,,,,,,,,,,,,,,,,,,,,,,,,,,,,,,,,,,,,,,,,,,,,,,,,,,,,,,,,,,,,,,,,,,,,,,,,,,,,,,,,,,,,,,,,,,,,,,,,,,,,,,,,,,,,,,,,,,,,,,,,,,,,,,,,,,,,,,,,,,,,,,,,,,,,,,,,,,,
0,42,42,63,1,,60703c1f8af049d40a5df5f3,62c539a47f81ed87f953c7c7,2022-07-06_09h28.51.524,Colour_Asymmetry_Pilot,2022.1.3,Win32,59.88741167,62c50e9c1127f2cd403a315f,,,,,,,,,,,,,,,,,,,,,,,,,,,,,,,,,,,,,,,,,,,,,,,,,,,,,,,,,,,,,,,,,,,,,,,,,,,,,,,,,,,,,,,,,,,,,,,,,,,,,,,,,,,,,,,,,,,,,,,,,,,,,,,,,,,,,,,,,,,,,,,,,,,,,,,,,,,,,,,,,,,
0,43,43,20,1,,60703c1f8af049d40a5df5f3,62c539a47f81ed87f953c7c7,2022-07-06_09h28.51.524,Colour_Asymmetry_Pilot,2022.1.3,Win32,59.88741167,62c50e9c1127f2cd403a315f,,,,,,,,,,,,,,,,,,,,,,,,,,,,,,,,,,,,,,,,,,,,,,,,,,,,,,,,,,,,,,,,,,,,,,,,,,,,,,,,,,,,,,,,,,,,,,,,,,,,,,,,,,,,,,,,,,,,,,,,,,,,,,,,,,,,,,,,,,,,,,,,,,,,,,,,,,,,,,,,,,,
0,44,44,57,1,,60703c1f8af049d40a5df5f3,62c539a47f81ed87f953c7c7,2022-07-06_09h28.51.524,Colour_Asymmetry_Pilot,2022.1.3,Win32,59.88741167,62c50e9c1127f2cd403a315f,,,,,,,,,,,,,,,,,,,,,,,,,,,,,,,,,,,,,,,,,,,,,,,,,,,,,,,,,,,,,,,,,,,,,,,,,,,,,,,,,,,,,,,,,,,,,,,,,,,,,,,,,,,,,,,,,,,,,,,,,,,,,,,,,,,,,,,,,,,,,,,,,,,,,,,,,,,,,,,,,,,
0,45,45,1,1,,60703c1f8af049d40a5df5f3,62c539a47f81ed87f953c7c7,2022-07-06_09h28.51.524,Colour_Asymmetry_Pilot,2022.1.3,Win32,59.88741167,62c50e9c1127f2cd403a315f,,,,,,,,,,,,,,,,,,,,,,,,,,,,,,,,,,,,,,,,,,,,,,,,,,,,,,,,,,,,,,,,,,,,,,,,,,,,,,,,,,,,,,,,,,,,,,,,,,,,,,,,,,,,,,,,,,,,,,,,,,,,,,,,,,,,,,,,,,,,,,,,,,,,,,,,,,,,,,,,,,,
0,46,46,84,1,,60703c1f8af049d40a5df5f3,62c539a47f81ed87f953c7c7,2022-07-06_09h28.51.524,Colour_Asymmetry_Pilot,2022.1.3,Win32,59.88741167,62c50e9c1127f2cd403a315f,,,,,,,,,,,,,,,,,,,,,,,,,,,,,,,,,,,,,,,,,,,,,,,,,,,,,,,,,,,,,,,,,,,,,,,,,,,,,,,,,,,,,,,,,,,,,,,,,,,,,,,,,,,,,,,,,,,,,,,,,,,,,,,,,,,,,,,,,,,,,,,,,,,,,,,,,,,,,,,,,,,
0,47,47,86,1,,60703c1f8af049d40a5df5f3,62c539a47f81ed87f953c7c7,2022-07-06_09h28.51.524,Colour_Asymmetry_Pilot,2022.1.3,Win32,59.88741167,62c50e9c1127f2cd403a315f,,,,,,,,,,,,,,,,,,,,,,,,,,,,,,,,,,,,,,,,,,,,,,,,,,,,,,,,,,,,,,,,,,,,,,,,,,,,,,,,,,,,,,,,,,,,,,,,,,,,,,,,,,,,,,,,,,,,,,,,,,,,,,,,,,,,,,,,,,,,,,,,,,,,,,,,,,,,,,,,,,,
0,48,48,25,1,,60703c1f8af049d40a5df5f3,62c539a47f81ed87f953c7c7,2022-07-06_09h28.51.524,Colour_Asymmetry_Pilot,2022.1.3,Win32,59.88741167,62c50e9c1127f2cd403a315f,,,,,,,,,,,,,,,,,,,,,,,,,,,,,,,,,,,,,,,,,,,,,,,,,,,,,,,,,,,,,,,,,,,,,,,,,,,,,,,,,,,,,,,,,,,,,,,,,,,,,,,,,,,,,,,,,,,,,,,,,,,,,,,,,,,,,,,,,,,,,,,,,,,,,,,,,,,,,,,,,,,
0,49,49,13,1,,60703c1f8af049d40a5df5f3,62c539a47f81ed87f953c7c7,2022-07-06_09h28.51.524,Colour_Asymmetry_Pilot,2022.1.3,Win32,59.88741167,62c50e9c1127f2cd403a315f,,,,,,,,,,,,,,,,,,,,,,,,,,,,,,,,,,,,,,,,,,,,,,,,,,,,,,,,,,,,,,,,,,,,,,,,,,,,,,,,,,,,,,,,,,,,,,,,,,,,,,,,,,,,,,,,,,,,,,,,,,,,,,,,,,,,,,,,,,,,,,,,,,,,,,,,,,,,,,,,,,,
0,50,50,54,1,,60703c1f8af049d40a5df5f3,62c539a47f81ed87f953c7c7,2022-07-06_09h28.51.524,Colour_Asymmetry_Pilot,2022.1.3,Win32,59.88741167,62c50e9c1127f2cd403a315f,,,,,,,,,,,,,,,,,,,,,,,,,,,,,,,,,,,,,,,,,,,,,,,,,,,,,,,,,,,,,,,,,,,,,,,,,,,,,,,,,,,,,,,,,,,,,,,,,,,,,,,,,,,,,,,,,,,,,,,,,,,,,,,,,,,,,,,,,,,,,,,,,,,,,,,,,,,,,,,,,,,
0,51,51,67,1,,60703c1f8af049d40a5df5f3,62c539a47f81ed87f953c7c7,2022-07-06_09h28.51.524,Colour_Asymmetry_Pilot,2022.1.3,Win32,59.88741167,62c50e9c1127f2cd403a315f,,,,,,,,,,,,,,,,,,,,,,,,,,,,,,,,,,,,,,,,,,,,,,,,,,,,,,,,,,,,,,,,,,,,,,,,,,,,,,,,,,,,,,,,,,,,,,,,,,,,,,,,,,,,,,,,,,,,,,,,,,,,,,,,,,,,,,,,,,,,,,,,,,,,,,,,,,,,,,,,,,,
0,52,52,71,1,,60703c1f8af049d40a5df5f3,62c539a47f81ed87f953c7c7,2022-07-06_09h28.51.524,Colour_Asymmetry_Pilot,2022.1.3,Win32,59.88741167,62c50e9c1127f2cd403a315f,,,,,,,,,,,,,,,,,,,,,,,,,,,,,,,,,,,,,,,,,,,,,,,,,,,,,,,,,,,,,,,,,,,,,,,,,,,,,,,,,,,,,,,,,,,,,,,,,,,,,,,,,,,,,,,,,,,,,,,,,,,,,,,,,,,,,,,,,,,,,,,,,,,,,,,,,,,,,,,,,,,
0,53,53,30,1,,60703c1f8af049d40a5df5f3,62c539a47f81ed87f953c7c7,2022-07-06_09h28.51.524,Colour_Asymmetry_Pilot,2022.1.3,Win32,59.88741167,62c50e9c1127f2cd403a315f,,,,,,,,,,,,,,,,,,,,,,,,,,,,,,,,,,,,,,,,,,,,,,,,,,,,,,,,,,,,,,,,,,,,,,,,,,,,,,,,,,,,,,,,,,,,,,,,,,,,,,,,,,,,,,,,,,,,,,,,,,,,,,,,,,,,,,,,,,,,,,,,,,,,,,,,,,,,,,,,,,,
0,54,54,33,1,,60703c1f8af049d40a5df5f3,62c539a47f81ed87f953c7c7,2022-07-06_09h28.51.524,Colour_Asymmetry_Pilot,2022.1.3,Win32,59.88741167,62c50e9c1127f2cd403a315f,,,,,,,,,,,,,,,,,,,,,,,,,,,,,,,,,,,,,,,,,,,,,,,,,,,,,,,,,,,,,,,,,,,,,,,,,,,,,,,,,,,,,,,,,,,,,,,,,,,,,,,,,,,,,,,,,,,,,,,,,,,,,,,,,,,,,,,,,,,,,,,,,,,,,,,,,,,,,,,,,,,
0,55,55,76,1,,60703c1f8af049d40a5df5f3,62c539a47f81ed87f953c7c7,2022-07-06_09h28.51.524,Colour_Asymmetry_Pilot,2022.1.3,Win32,59.88741167,62c50e9c1127f2cd403a315f,,,,,,,,,,,,,,,,,,,,,,,,,,,,,,,,,,,,,,,,,,,,,,,,,,,,,,,,,,,,,,,,,,,,,,,,,,,,,,,,,,,,,,,,,,,,,,,,,,,,,,,,,,,,,,,,,,,,,,,,,,,,,,,,,,,,,,,,,,,,,,,,,,,,,,,,,,,,,,,,,,,
0,56,56,79,1,,60703c1f8af049d40a5df5f3,62c539a47f81ed87f953c7c7,2022-07-06_09h28.51.524,Colour_Asymmetry_Pilot,2022.1.3,Win32,59.88741167,62c50e9c1127f2cd403a315f,,,,,,,,,,,,,,,,,,,,,,,,,,,,,,,,,,,,,,,,,,,,,,,,,,,,,,,,,,,,,,,,,,,,,,,,,,,,,,,,,,,,,,,,,,,,,,,,,,,,,,,,,,,,,,,,,,,,,,,,,,,,,,,,,,,,,,,,,,,,,,,,,,,,,,,,,,,,,,,,,,,
0,57,57,24,1,,60703c1f8af049d40a5df5f3,62c539a47f81ed87f953c7c7,2022-07-06_09h28.51.524,Colour_Asymmetry_Pilot,2022.1.3,Win32,59.88741167,62c50e9c1127f2cd403a315f,,,,,,,,,,,,,,,,,,,,,,,,,,,,,,,,,,,,,,,,,,,,,,,,,,,,,,,,,,,,,,,,,,,,,,,,,,,,,,,,,,,,,,,,,,,,,,,,,,,,,,,,,,,,,,,,,,,,,,,,,,,,,,,,,,,,,,,,,,,,,,,,,,,,,,,,,,,,,,,,,,,
0,58,58,68,1,,60703c1f8af049d40a5df5f3,62c539a47f81ed87f953c7c7,2022-07-06_09h28.51.524,Colour_Asymmetry_Pilot,2022.1.3,Win32,59.88741167,62c50e9c1127f2cd403a315f,,,,,,,,,,,,,,,,,,,,,,,,,,,,,,,,,,,,,,,,,,,,,,,,,,,,,,,,,,,,,,,,,,,,,,,,,,,,,,,,,,,,,,,,,,,,,,,,,,,,,,,,,,,,,,,,,,,,,,,,,,,,,,,,,,,,,,,,,,,,,,,,,,,,,,,,,,,,,,,,,,,
0,59,59,50,1,,60703c1f8af049d40a5df5f3,62c539a47f81ed87f953c7c7,2022-07-06_09h28.51.524,Colour_Asymmetry_Pilot,2022.1.3,Win32,59.88741167,62c50e9c1127f2cd403a315f,,,,,,,,,,,,,,,,,,,,,,,,,,,,,,,,,,,,,,,,,,,,,,,,,,,,,,,,,,,,,,,,,,,,,,,,,,,,,,,,,,,,,,,,,,,,,,,,,,,,,,,,,,,,,,,,,,,,,,,,,,,,,,,,,,,,,,,,,,,,,,,,,,,,,,,,,,,,,,,,,,,
0,60,60,49,1,,60703c1f8af049d40a5df5f3,62c539a47f81ed87f953c7c7,2022-07-06_09h28.51.524,Colour_Asymmetry_Pilot,2022.1.3,Win32,59.88741167,62c50e9c1127f2cd403a315f,,,,,,,,,,,,,,,,,,,,,,,,,,,,,,,,,,,,,,,,,,,,,,,,,,,,,,,,,,,,,,,,,,,,,,,,,,,,,,,,,,,,,,,,,,,,,,,,,,,,,,,,,,,,,,,,,,,,,,,,,,,,,,,,,,,,,,,,,,,,,,,,,,,,,,,,,,,,,,,,,,,
0,61,61,39,1,,60703c1f8af049d40a5df5f3,62c539a47f81ed87f953c7c7,2022-07-06_09h28.51.524,Colour_Asymmetry_Pilot,2022.1.3,Win32,59.88741167,62c50e9c1127f2cd403a315f,,,,,,,,,,,,,,,,,,,,,,,,,,,,,,,,,,,,,,,,,,,,,,,,,,,,,,,,,,,,,,,,,,,,,,,,,,,,,,,,,,,,,,,,,,,,,,,,,,,,,,,,,,,,,,,,,,,,,,,,,,,,,,,,,,,,,,,,,,,,,,,,,,,,,,,,,,,,,,,,,,,
0,62,62,62,1,,60703c1f8af049d40a5df5f3,62c539a47f81ed87f953c7c7,2022-07-06_09h28.51.524,Colour_Asymmetry_Pilot,2022.1.3,Win32,59.88741167,62c50e9c1127f2cd403a315f,,,,,,,,,,,,,,,,,,,,,,,,,,,,,,,,,,,,,,,,,,,,,,,,,,,,,,,,,,,,,,,,,,,,,,,,,,,,,,,,,,,,,,,,,,,,,,,,,,,,,,,,,,,,,,,,,,,,,,,,,,,,,,,,,,,,,,,,,,,,,,,,,,,,,,,,,,,,,,,,,,,
0,63,63,42,1,,60703c1f8af049d40a5df5f3,62c539a47f81ed87f953c7c7,2022-07-06_09h28.51.524,Colour_Asymmetry_Pilot,2022.1.3,Win32,59.88741167,62c50e9c1127f2cd403a315f,,,,,,,,,,,,,,,,,,,,,,,,,,,,,,,,,,,,,,,,,,,,,,,,,,,,,,,,,,,,,,,,,,,,,,,,,,,,,,,,,,,,,,,,,,,,,,,,,,,,,,,,,,,,,,,,,,,,,,,,,,,,,,,,,,,,,,,,,,,,,,,,,,,,,,,,,,,,,,,,,,,
0,64,64,0,1,,60703c1f8af049d40a5df5f3,62c539a47f81ed87f953c7c7,2022-07-06_09h28.51.524,Colour_Asymmetry_Pilot,2022.1.3,Win32,59.88741167,62c50e9c1127f2cd403a315f,,,,,,,,,,,,,,,,,,,,,,,,,,,,,,,,,,,,,,,,,,,,,,,,,,,,,,,,,,,,,,,,,,,,,,,,,,,,,,,,,,,,,,,,,,,,,,,,,,,,,,,,,,,,,,,,,,,,,,,,,,,,,,,,,,,,,,,,,,,,,,,,,,,,,,,,,,,,,,,,,,,
0,65,65,77,1,,60703c1f8af049d40a5df5f3,62c539a47f81ed87f953c7c7,2022-07-06_09h28.51.524,Colour_Asymmetry_Pilot,2022.1.3,Win32,59.88741167,62c50e9c1127f2cd403a315f,,,,,,,,,,,,,,,,,,,,,,,,,,,,,,,,,,,,,,,,,,,,,,,,,,,,,,,,,,,,,,,,,,,,,,,,,,,,,,,,,,,,,,,,,,,,,,,,,,,,,,,,,,,,,,,,,,,,,,,,,,,,,,,,,,,,,,,,,,,,,,,,,,,,,,,,,,,,,,,,,,,
0,66,66,9,1,,60703c1f8af049d40a5df5f3,62c539a47f81ed87f953c7c7,2022-07-06_09h28.51.524,Colour_Asymmetry_Pilot,2022.1.3,Win32,59.88741167,62c50e9c1127f2cd403a315f,,,,,,,,,,,,,,,,,,,,,,,,,,,,,,,,,,,,,,,,,,,,,,,,,,,,,,,,,,,,,,,,,,,,,,,,,,,,,,,,,,,,,,,,,,,,,,,,,,,,,,,,,,,,,,,,,,,,,,,,,,,,,,,,,,,,,,,,,,,,,,,,,,,,,,,,,,,,,,,,,,,
0,67,67,11,1,,60703c1f8af049d40a5df5f3,62c539a47f81ed87f953c7c7,2022-07-06_09h28.51.524,Colour_Asymmetry_Pilot,2022.1.3,Win32,59.88741167,62c50e9c1127f2cd403a315f,,,,,,,,,,,,,,,,,,,,,,,,,,,,,,,,,,,,,,,,,,,,,,,,,,,,,,,,,,,,,,,,,,,,,,,,,,,,,,,,,,,,,,,,,,,,,,,,,,,,,,,,,,,,,,,,,,,,,,,,,,,,,,,,,,,,,,,,,,,,,,,,,,,,,,,,,,,,,,,,,,,
0,68,68,60,1,,60703c1f8af049d40a5df5f3,62c539a47f81ed87f953c7c7,2022-07-06_09h28.51.524,Colour_Asymmetry_Pilot,2022.1.3,Win32,59.88741167,62c50e9c1127f2cd403a315f,,,,,,,,,,,,,,,,,,,,,,,,,,,,,,,,,,,,,,,,,,,,,,,,,,,,,,,,,,,,,,,,,,,,,,,,,,,,,,,,,,,,,,,,,,,,,,,,,,,,,,,,,,,,,,,,,,,,,,,,,,,,,,,,,,,,,,,,,,,,,,,,,,,,,,,,,,,,,,,,,,,
0,69,69,36,1,,60703c1f8af049d40a5df5f3,62c539a47f81ed87f953c7c7,2022-07-06_09h28.51.524,Colour_Asymmetry_Pilot,2022.1.3,Win32,59.88741167,62c50e9c1127f2cd403a315f,,,,,,,,,,,,,,,,,,,,,,,,,,,,,,,,,,,,,,,,,,,,,,,,,,,,,,,,,,,,,,,,,,,,,,,,,,,,,,,,,,,,,,,,,,,,,,,,,,,,,,,,,,,,,,,,,,,,,,,,,,,,,,,,,,,,,,,,,,,,,,,,,,,,,,,,,,,,,,,,,,,
0,70,70,7,1,,60703c1f8af049d40a5df5f3,62c539a47f81ed87f953c7c7,2022-07-06_09h28.51.524,Colour_Asymmetry_Pilot,2022.1.3,Win32,59.88741167,62c50e9c1127f2cd403a315f,,,,,,,,,,,,,,,,,,,,,,,,,,,,,,,,,,,,,,,,,,,,,,,,,,,,,,,,,,,,,,,,,,,,,,,,,,,,,,,,,,,,,,,,,,,,,,,,,,,,,,,,,,,,,,,,,,,,,,,,,,,,,,,,,,,,,,,,,,,,,,,,,,,,,,,,,,,,,,,,,,,
0,71,71,32,1,,60703c1f8af049d40a5df5f3,62c539a47f81ed87f953c7c7,2022-07-06_09h28.51.524,Colour_Asymmetry_Pilot,2022.1.3,Win32,59.88741167,62c50e9c1127f2cd403a315f,,,,,,,,,,,,,,,,,,,,,,,,,,,,,,,,,,,,,,,,,,,,,,,,,,,,,,,,,,,,,,,,,,,,,,,,,,,,,,,,,,,,,,,,,,,,,,,,,,,,,,,,,,,,,,,,,,,,,,,,,,,,,,,,,,,,,,,,,,,,,,,,,,,,,,,,,,,,,,,,,,,
0,72,72,58,1,,60703c1f8af049d40a5df5f3,62c539a47f81ed87f953c7c7,2022-07-06_09h28.51.524,Colour_Asymmetry_Pilot,2022.1.3,Win32,59.88741167,62c50e9c1127f2cd403a315f,,,,,,,,,,,,,,,,,,,,,,,,,,,,,,,,,,,,,,,,,,,,,,,,,,,,,,,,,,,,,,,,,,,,,,,,,,,,,,,,,,,,,,,,,,,,,,,,,,,,,,,,,,,,,,,,,,,,,,,,,,,,,,,,,,,,,,,,,,,,,,,,,,,,,,,,,,,,,,,,,,,
0,73,73,15,1,,60703c1f8af049d40a5df5f3,62c539a47f81ed87f953c7c7,2022-07-06_09h28.51.524,Colour_Asymmetry_Pilot,2022.1.3,Win32,59.88741167,62c50e9c1127f2cd403a315f,,,,,,,,,,,,,,,,,,,,,,,,,,,,,,,,,,,,,,,,,,,,,,,,,,,,,,,,,,,,,,,,,,,,,,,,,,,,,,,,,,,,,,,,,,,,,,,,,,,,,,,,,,,,,,,,,,,,,,,,,,,,,,,,,,,,,,,,,,,,,,,,,,,,,,,,,,,,,,,,,,,
0,74,74,31,1,,60703c1f8af049d40a5df5f3,62c539a47f81ed87f953c7c7,2022-07-06_09h28.51.524,Colour_Asymmetry_Pilot,2022.1.3,Win32,59.88741167,62c50e9c1127f2cd403a315f,,,,,,,,,,,,,,,,,,,,,,,,,,,,,,,,,,,,,,,,,,,,,,,,,,,,,,,,,,,,,,,,,,,,,,,,,,,,,,,,,,,,,,,,,,,,,,,,,,,,,,,,,,,,,,,,,,,,,,,,,,,,,,,,,,,,,,,,,,,,,,,,,,,,,,,,,,,,,,,,,,,
0,75,75,10,1,,60703c1f8af049d40a5df5f3,62c539a47f81ed87f953c7c7,2022-07-06_09h28.51.524,Colour_Asymmetry_Pilot,2022.1.3,Win32,59.88741167,62c50e9c1127f2cd403a315f,,,,,,,,,,,,,,,,,,,,,,,,,,,,,,,,,,,,,,,,,,,,,,,,,,,,,,,,,,,,,,,,,,,,,,,,,,,,,,,,,,,,,,,,,,,,,,,,,,,,,,,,,,,,,,,,,,,,,,,,,,,,,,,,,,,,,,,,,,,,,,,,,,,,,,,,,,,,,,,,,,,
0,76,76,44,1,,60703c1f8af049d40a5df5f3,62c539a47f81ed87f953c7c7,2022-07-06_09h28.51.524,Colour_Asymmetry_Pilot,2022.1.3,Win32,59.88741167,62c50e9c1127f2cd403a315f,,,,,,,,,,,,,,,,,,,,,,,,,,,,,,,,,,,,,,,,,,,,,,,,,,,,,,,,,,,,,,,,,,,,,,,,,,,,,,,,,,,,,,,,,,,,,,,,,,,,,,,,,,,,,,,,,,,,,,,,,,,,,,,,,,,,,,,,,,,,,,,,,,,,,,,,,,,,,,,,,,,
0,77,77,47,1,,60703c1f8af049d40a5df5f3,62c539a47f81ed87f953c7c7,2022-07-06_09h28.51.524,Colour_Asymmetry_Pilot,2022.1.3,Win32,59.88741167,62c50e9c1127f2cd403a315f,,,,,,,,,,,,,,,,,,,,,,,,,,,,,,,,,,,,,,,,,,,,,,,,,,,,,,,,,,,,,,,,,,,,,,,,,,,,,,,,,,,,,,,,,,,,,,,,,,,,,,,,,,,,,,,,,,,,,,,,,,,,,,,,,,,,,,,,,,,,,,,,,,,,,,,,,,,,,,,,,,,
0,78,78,51,1,,60703c1f8af049d40a5df5f3,62c539a47f81ed87f953c7c7,2022-07-06_09h28.51.524,Colour_Asymmetry_Pilot,2022.1.3,Win32,59.88741167,62c50e9c1127f2cd403a315f,,,,,,,,,,,,,,,,,,,,,,,,,,,,,,,,,,,,,,,,,,,,,,,,,,,,,,,,,,,,,,,,,,,,,,,,,,,,,,,,,,,,,,,,,,,,,,,,,,,,,,,,,,,,,,,,,,,,,,,,,,,,,,,,,,,,,,,,,,,,,,,,,,,,,,,,,,,,,,,,,,,
0,79,79,65,1,,60703c1f8af049d40a5df5f3,62c539a47f81ed87f953c7c7,2022-07-06_09h28.51.524,Colour_Asymmetry_Pilot,2022.1.3,Win32,59.88741167,62c50e9c1127f2cd403a315f,,,,,,,,,,,,,,,,,,,,,,,,,,,,,,,,,,,,,,,,,,,,,,,,,,,,,,,,,,,,,,,,,,,,,,,,,,,,,,,,,,,,,,,,,,,,,,,,,,,,,,,,,,,,,,,,,,,,,,,,,,,,,,,,,,,,,,,,,,,,,,,,,,,,,,,,,,,,,,,,,,,
0,80,80,56,1,,60703c1f8af049d40a5df5f3,62c539a47f81ed87f953c7c7,2022-07-06_09h28.51.524,Colour_Asymmetry_Pilot,2022.1.3,Win32,59.88741167,62c50e9c1127f2cd403a315f,,,,,,,,,,,,,,,,,,,,,,,,,,,,,,,,,,,,,,,,,,,,,,,,,,,,,,,,,,,,,,,,,,,,,,,,,,,,,,,,,,,,,,,,,,,,,,,,,,,,,,,,,,,,,,,,,,,,,,,,,,,,,,,,,,,,,,,,,,,,,,,,,,,,,,,,,,,,,,,,,,,
0,81,81,85,1,,60703c1f8af049d40a5df5f3,62c539a47f81ed87f953c7c7,2022-07-06_09h28.51.524,Colour_Asymmetry_Pilot,2022.1.3,Win32,59.88741167,62c50e9c1127f2cd403a315f,,,,,,,,,,,,,,,,,,,,,,,,,,,,,,,,,,,,,,,,,,,,,,,,,,,,,,,,,,,,,,,,,,,,,,,,,,,,,,,,,,,,,,,,,,,,,,,,,,,,,,,,,,,,,,,,,,,,,,,,,,,,,,,,,,,,,,,,,,,,,,,,,,,,,,,,,,,,,,,,,,,
0,82,82,8,1,,60703c1f8af049d40a5df5f3,62c539a47f81ed87f953c7c7,2022-07-06_09h28.51.524,Colour_Asymmetry_Pilot,2022.1.3,Win32,59.88741167,62c50e9c1127f2cd403a315f,,,,,,,,,,,,,,,,,,,,,,,,,,,,,,,,,,,,,,,,,,,,,,,,,,,,,,,,,,,,,,,,,,,,,,,,,,,,,,,,,,,,,,,,,,,,,,,,,,,,,,,,,,,,,,,,,,,,,,,,,,,,,,,,,,,,,,,,,,,,,,,,,,,,,,,,,,,,,,,,,,,
0,83,83,80,1,,60703c1f8af049d40a5df5f3,62c539a47f81ed87f953c7c7,2022-07-06_09h28.51.524,Colour_Asymmetry_Pilot,2022.1.3,Win32,59.88741167,62c50e9c1127f2cd403a315f,,,,,,,,,,,,,,,,,,,,,,,,,,,,,,,,,,,,,,,,,,,,,,,,,,,,,,,,,,,,,,,,,,,,,,,,,,,,,,,,,,,,,,,,,,,,,,,,,,,,,,,,,,,,,,,,,,,,,,,,,,,,,,,,,,,,,,,,,,,,,,,,,,,,,,,,,,,,,,,,,,,
0,84,84,72,1,,60703c1f8af049d40a5df5f3,62c539a47f81ed87f953c7c7,2022-07-06_09h28.51.524,Colour_Asymmetry_Pilot,2022.1.3,Win32,59.88741167,62c50e9c1127f2cd403a315f,,,,,,,,,,,,,,,,,,,,,,,,,,,,,,,,,,,,,,,,,,,,,,,,,,,,,,,,,,,,,,,,,,,,,,,,,,,,,,,,,,,,,,,,,,,,,,,,,,,,,,,,,,,,,,,,,,,,,,,,,,,,,,,,,,,,,,,,,,,,,,,,,,,,,,,,,,,,,,,,,,,
0,85,85,2,1,,60703c1f8af049d40a5df5f3,62c539a47f81ed87f953c7c7,2022-07-06_09h28.51.524,Colour_Asymmetry_Pilot,2022.1.3,Win32,59.88741167,62c50e9c1127f2cd403a315f,,,,,,,,,,,,,,,,,,,,,,,,,,,,,,,,,,,,,,,,,,,,,,,,,,,,,,,,,,,,,,,,,,,,,,,,,,,,,,,,,,,,,,,,,,,,,,,,,,,,,,,,,,,,,,,,,,,,,,,,,,,,,,,,,,,,,,,,,,,,,,,,,,,,,,,,,,,,,,,,,,,
0,86,86,52,1,,60703c1f8af049d40a5df5f3,62c539a47f81ed87f953c7c7,2022-07-06_09h28.51.524,Colour_Asymmetry_Pilot,2022.1.3,Win32,59.88741167,62c50e9c1127f2cd403a315f,,,,,,,,,,,,,,,,,,,,,,,,,,,,,,,,,,,,,,,,,,,,,,,,,,,,,,,,,,,,,,,,,,,,,,,,,,,,,,,,,,,,,,,,,,,,,,,,,,,,,,,,,,,,,,,,,,,,,,,,,,,,,,,,,,,,,,,,,,,,,,,,,,,,,,,,,,,,,,,,,,,
0,87,87,40,1,,60703c1f8af049d40a5df5f3,62c539a47f81ed87f953c7c7,2022-07-06_09h28.51.524,Colour_Asymmetry_Pilot,2022.1.3,Win32,59.88741167,62c50e9c1127f2cd403a315f,,,,,,,,,,,,,,,,,,,,,,,,,,,,,,,,,,,,,,,,,,,,,,,,,,,,,,,,,,,,,,,,,,,,,,,,,,,,,,,,,,,,,,,,,,,,,,,,,,,,,,,,,,,,,,,,,,,,,,,,,,,,,,,,,,,,,,,,,,,,,,,,,,,,,,,,,,,,,,,,,,,
0,88,88,55,1,,60703c1f8af049d40a5df5f3,62c539a47f81ed87f953c7c7,2022-07-06_09h28.51.524,Colour_Asymmetry_Pilot,2022.1.3,Win32,59.88741167,62c50e9c1127f2cd403a315f,,,,,,,,,,,,,,,,,,,,,,,,,,,,,,,,,,,,,,,,,,,,,,,,,,,,,,,,,,,,,,,,,,,,,,,,,,,,,,,,,,,,,,,,,,,,,,,,,,,,,,,,,,,,,,,,,,,,,,,,,,,,,,,,,,,,,,,,,,,,,,,,,,,,,,,,,,,,,,,,,,,
0,89,89,48,1,,60703c1f8af049d40a5df5f3,62c539a47f81ed87f953c7c7,2022-07-06_09h28.51.524,Colour_Asymmetry_Pilot,2022.1.3,Win32,59.88741167,62c50e9c1127f2cd403a315f,,,,,,,,,,,,,,,,,,,,,,,,,,,,,,,,,,,,,,,,,,,,,,,,,,,,,,,,,,,,,,,,,,,,,,,,,,,,,,,,,,,,,,,,,,,,,,,,,,,,,,,,,,,,,,,,,,,,,,,,,,,,,,,,,,,,,,,,,,,,,,,,,,,,,,,,,,,,,,,,,,,
0,90,90,66,1,,60703c1f8af049d40a5df5f3,62c539a47f81ed87f953c7c7,2022-07-06_09h28.51.524,Colour_Asymmetry_Pilot,2022.1.3,Win32,59.88741167,62c50e9c1127f2cd403a315f,,,,,,,,,,,,,,,,,,,,,,,,,,,,,,,,,,,,,,,,,,,,,,,,,,,,,,,,,,,,,,,,,,,,,,,,,,,,,,,,,,,,,,,,,,,,,,,,,,,,,,,,,,,,,,,,,,,,,,,,,,,,,,,,,,,,,,,,,,,,,,,,,,,,,,,,,,,,,,,,,,,
0,91,91,21,1,,60703c1f8af049d40a5df5f3,62c539a47f81ed87f953c7c7,2022-07-06_09h28.51.524,Colour_Asymmetry_Pilot,2022.1.3,Win32,59.88741167,62c50e9c1127f2cd403a315f,,,,,,,,,,,,,,,,,,,,,,,,,,,,,,,,,,,,,,,,,,,,,,,,,,,,,,,,,,,,,,,,,,,,,,,,,,,,,,,,,,,,,,,,,,,,,,,,,,,,,,,,,,,,,,,,,,,,,,,,,,,,,,,,,,,,,,,,,,,,,,,,,,,,,,,,,,,,,,,,,,,
0,92,92,91,1,,60703c1f8af049d40a5df5f3,62c539a47f81ed87f953c7c7,2022-07-06_09h28.51.524,Colour_Asymmetry_Pilot,2022.1.3,Win32,59.88741167,62c50e9c1127f2cd403a315f,,,,,,,,,,,,,,,,,,,,,,,,,,,,,,,,,,,,,,,,,,,,,,,,,,,,,,,,,,,,,,,,,,,,,,,,,,,,,,,,,,,,,,,,,,,,,,,,,,,,,,,,,,,,,,,,,,,,,,,,,,,,,,,,,,,,,,,,,,,,,,,,,,,,,,,,,,,,,,,,,,,
,,,,,,60703c1f8af049d40a5df5f3,62c539a47f81ed87f953c7c7,2022-07-06_09h28.51.524,Colour_Asymmetry_Pilot,2022.1.3,Win32,59.88741167,62c50e9c1127f2cd403a315f,0,0,0,45,1,threefour,,,,,,,,,,,,,,,,,,,,,,,,,,,,,,,,,,,,,,,,,,,,,,,,,,,,,,,,,,,,,,,,,,,,,,,,,,,,,,,,,,,,,,,,,,,,,,,,,,,,,,,,,,,,,,,,,,,,,,,,,,,,,,,,,,,,,,,,,,,,,,,,,,,,,,,,,,,,,
,,,,,,60703c1f8af049d40a5df5f3,62c539a47f81ed87f953c7c7,2022-07-06_09h28.51.524,Colour_Asymmetry_Pilot,2022.1.3,Win32,59.88741167,62c50e9c1127f2cd403a315f,0,1,1,20,1,threeone,,,,,,,,,,,,,,,,,,,,,,,,,,,,,,,,,,,,,,,,,,,,,,,,,,,,,,,,,,,,,,,,,,,,,,,,,,,,,,,,,,,,,,,,,,,,,,,,,,,,,,,,,,,,,,,,,,,,,,,,,,,,,,,,,,,,,,,,,,,,,,,,,,,,,,,,,,,,,
,,,,,,60703c1f8af049d40a5df5f3,62c539a47f81ed87f953c7c7,2022-07-06_09h28.51.524,Colour_Asymmetry_Pilot,2022.1.3,Win32,59.88741167,62c50e9c1127f2cd403a315f,0,2,2,141,1,threefour,,,,,,,,,,,,,,,,,,,,,,,,,,,,,,,,,,,,,,,,,,,,,,,,,,,,,,,,,,,,,,,,,,,,,,,,,,,,,,,,,,,,,,,,,,,,,,,,,,,,,,,,,,,,,,,,,,,,,,,,,,,,,,,,,,,,,,,,,,,,,,,,,,,,,,,,,,,,,
,,,,,,60703c1f8af049d40a5df5f3,62c539a47f81ed87f953c7c7,2022-07-06_09h28.51.524,Colour_Asymmetry_Pilot,2022.1.3,Win32,59.88741167,62c50e9c1127f2cd403a315f,0,3,3,131,1,twofour,,,,,,,,,,,,,,,,,,,,,,,,,,,,,,,,,,,,,,,,,,,,,,,,,,,,,,,,,,,,,,,,,,,,,,,,,,,,,,,,,,,,,,,,,,,,,,,,,,,,,,,,,,,,,,,,,,,,,,,,,,,,,,,,,,,,,,,,,,,,,,,,,,,,,,,,,,,,,
,,,,,,60703c1f8af049d40a5df5f3,62c539a47f81ed87f953c7c7,2022-07-06_09h28.51.524,Colour_Asymmetry_Pilot,2022.1.3,Win32,59.88741167,62c50e9c1127f2cd403a315f,0,4,4,15,1,fourthree,,,,,,,,,,,,,,,,,,,,,,,,,,,,,,,,,,,,,,,,,,,,,,,,,,,,,,,,,,,,,,,,,,,,,,,,,,,,,,,,,,,,,,,,,,,,,,,,,,,,,,,,,,,,,,,,,,,,,,,,,,,,,,,,,,,,,,,,,,,,,,,,,,,,,,,,,,,,,
,,,,,,60703c1f8af049d40a5df5f3,62c539a47f81ed87f953c7c7,2022-07-06_09h28.51.524,Colour_Asymmetry_Pilot,2022.1.3,Win32,59.88741167,62c50e9c1127f2cd403a315f,0,5,5,48,1,onetwo,,,,,,,,,,,,,,,,,,,,,,,,,,,,,,,,,,,,,,,,,,,,,,,,,,,,,,,,,,,,,,,,,,,,,,,,,,,,,,,,,,,,,,,,,,,,,,,,,,,,,,,,,,,,,,,,,,,,,,,,,,,,,,,,,,,,,,,,,,,,,,,,,,,,,,,,,,,,,
,,,,,,60703c1f8af049d40a5df5f3,62c539a47f81ed87f953c7c7,2022-07-06_09h28.51.524,Colour_Asymmetry_Pilot,2022.1.3,Win32,59.88741167,62c50e9c1127f2cd403a315f,0,6,6,70,1,fourtwo,,,,,,,,,,,,,,,,,,,,,,,,,,,,,,,,,,,,,,,,,,,,,,,,,,,,,,,,,,,,,,,,,,,,,,,,,,,,,,,,,,,,,,,,,,,,,,,,,,,,,,,,,,,,,,,,,,,,,,,,,,,,,,,,,,,,,,,,,,,,,,,,,,,,,,,,,,,,,
,,,,,,60703c1f8af049d40a5df5f3,62c539a47f81ed87f953c7c7,2022-07-06_09h28.51.524,Colour_Asymmetry_Pilot,2022.1.3,Win32,59.88741167,62c50e9c1127f2cd403a315f,0,7,7,107,1,twofour,,,,,,,,,,,,,,,,,,,,,,,,,,,,,,,,,,,,,,,,,,,,,,,,,,,,,,,,,,,,,,,,,,,,,,,,,,,,,,,,,,,,,,,,,,,,,,,,,,,,,,,,,,,,,,,,,,,,,,,,,,,,,,,,,,,,,,,,,,,,,,,,,,,,,,,,,,,,,
,,,,,,60703c1f8af049d40a5df5f3,62c539a47f81ed87f953c7c7,2022-07-06_09h28.51.524,Colour_Asymmetry_Pilot,2022.1.3,Win32,59.88741167,62c50e9c1127f2cd403a315f,0,8,8,75,1,twofour,,,,,,,,,,,,,,,,,,,,,,,,,,,,,,,,,,,,,,,,,,,,,,,,,,,,,,,,,,,,,,,,,,,,,,,,,,,,,,,,,,,,,,,,,,,,,,,,,,,,,,,,,,,,,,,,,,,,,,,,,,,,,,,,,,,,,,,,,,,,,,,,,,,,,,,,,,,,,
,,,,,,60703c1f8af049d40a5df5f3,62c539a47f81ed87f953c7c7,2022-07-06_09h28.51.524,Colour_Asymmetry_Pilot,2022.1.3,Win32,59.88741167,62c50e9c1127f2cd403a315f,0,9,9,110,1,fourtwo,,,,,,,,,,,,,,,,,,,,,,,,,,,,,,,,,,,,,,,,,,,,,,,,,,,,,,,,,,,,,,,,,,,,,,,,,,,,,,,,,,,,,,,,,,,,,,,,,,,,,,,,,,,,,,,,,,,,,,,,,,,,,,,,,,,,,,,,,,,,,,,,,,,,,,,,,,,,,
,,,,,,60703c1f8af049d40a5df5f3,62c539a47f81ed87f953c7c7,2022-07-06_09h28.51.524,Colour_Asymmetry_Pilot,2022.1.3,Win32,59.88741167,62c50e9c1127f2cd403a315f,0,10,10,25,1,onethree,,,,,,,,,,,,,,,,,,,,,,,,,,,,,,,,,,,,,,,,,,,,,,,,,,,,,,,,,,,,,,,,,,,,,,,,,,,,,,,,,,,,,,,,,,,,,,,,,,,,,,,,,,,,,,,,,,,,,,,,,,,,,,,,,,,,,,,,,,,,,,,,,,,,,,,,,,,,,
,,,,,,60703c1f8af049d40a5df5f3,62c539a47f81ed87f953c7c7,2022-07-06_09h28.51.524,Colour_Asymmetry_Pilot,2022.1.3,Win32,59.88741167,62c50e9c1127f2cd403a315f,0,11,11,21,1,threefour,,,,,,,,,,,,,,,,,,,,,,,,,,,,,,,,,,,,,,,,,,,,,,,,,,,,,,,,,,,,,,,,,,,,,,,,,,,,,,,,,,,,,,,,,,,,,,,,,,,,,,,,,,,,,,,,,,,,,,,,,,,,,,,,,,,,,,,,,,,,,,,,,,,,,,,,,,,,,
,,,,,,60703c1f8af049d40a5df5f3,62c539a47f81ed87f953c7c7,2022-07-06_09h28.51.524,Colour_Asymmetry_Pilot,2022.1.3,Win32,59.88741167,62c50e9c1127f2cd403a315f,0,12,12,71,1,fourthree,,,,,,,,,,,,,,,,,,,,,,,,,,,,,,,,,,,,,,,,,,,,,,,,,,,,,,,,,,,,,,,,,,,,,,,,,,,,,,,,,,,,,,,,,,,,,,,,,,,,,,,,,,,,,,,,,,,,,,,,,,,,,,,,,,,,,,,,,,,,,,,,,,,,,,,,,,,,,
,,,,,,60703c1f8af049d40a5df5f3,62c539a47f81ed87f953c7c7,2022-07-06_09h28.51.524,Colour_Asymmetry_Pilot,2022.1.3,Win32,59.88741167,62c50e9c1127f2cd403a315f,0,13,13,2,1,twoone,,,,,,,,,,,,,,,,,,,,,,,,,,,,,,,,,,,,,,,,,,,,,,,,,,,,,,,,,,,,,,,,,,,,,,,,,,,,,,,,,,,,,,,,,,,,,,,,,,,,,,,,,,,,,,,,,,,,,,,,,,,,,,,,,,,,,,,,,,,,,,,,,,,,,,,,,,,,,
,,,,,,60703c1f8af049d40a5df5f3,62c539a47f81ed87f953c7c7,2022-07-06_09h28.51.524,Colour_Asymmetry_Pilot,2022.1.3,Win32,59.88741167,62c50e9c1127f2cd403a315f,0,14,14,7,1,fourthree,,,,,,,,,,,,,,,,,,,,,,,,,,,,,,,,,,,,,,,,,,,,,,,,,,,,,,,,,,,,,,,,,,,,,,,,,,,,,,,,,,,,,,,,,,,,,,,,,,,,,,,,,,,,,,,,,,,,,,,,,,,,,,,,,,,,,,,,,,,,,,,,,,,,,,,,,,,,,
,,,,,,60703c1f8af049d40a5df5f3,62c539a47f81ed87f953c7c7,2022-07-06_09h28.51.524,Colour_Asymmetry_Pilot,2022.1.3,Win32,59.88741167,62c50e9c1127f2cd403a315f,0,15,15,125,1,threefour,,,,,,,,,,,,,,,,,,,,,,,,,,,,,,,,,,,,,,,,,,,,,,,,,,,,,,,,,,,,,,,,,,,,,,,,,,,,,,,,,,,,,,,,,,,,,,,,,,,,,,,,,,,,,,,,,,,,,,,,,,,,,,,,,,,,,,,,,,,,,,,,,,,,,,,,,,,,,
,,,,,,60703c1f8af049d40a5df5f3,62c539a47f81ed87f953c7c7,2022-07-06_09h28.51.524,Colour_Asymmetry_Pilot,2022.1.3,Win32,59.88741167,62c50e9c1127f2cd403a315f,0,16,16,53,1,threefour,,,,,,,,,,,,,,,,,,,,,,,,,,,,,,,,,,,,,,,,,,,,,,,,,,,,,,,,,,,,,,,,,,,,,,,,,,,,,,,,,,,,,,,,,,,,,,,,,,,,,,,,,,,,,,,,,,,,,,,,,,,,,,,,,,,,,,,,,,,,,,,,,,,,,,,,,,,,,
,,,,,,60703c1f8af049d40a5df5f3,62c539a47f81ed87f953c7c7,2022-07-06_09h28.51.524,Colour_Asymmetry_Pilot,2022.1.3,Win32,59.88741167,62c50e9c1127f2cd403a315f,0,17,17,160,1,onetwo,,,,,,,,,,,,,,,,,,,,,,,,,,,,,,,,,,,,,,,,,,,,,,,,,,,,,,,,,,,,,,,,,,,,,,,,,,,,,,,,,,,,,,,,,,,,,,,,,,,,,,,,,,,,,,,,,,,,,,,,,,,,,,,,,,,,,,,,,,,,,,,,,,,,,,,,,,,,,
,,,,,,60703c1f8af049d40a5df5f3,62c539a47f81ed87f953c7c7,2022-07-06_09h28.51.524,Colour_Asymmetry_Pilot,2022.1.3,Win32,59.88741167,62c50e9c1127f2cd403a315f,0,18,18,68,1,threeone,,,,,,,,,,,,,,,,,,,,,,,,,,,,,,,,,,,,,,,,,,,,,,,,,,,,,,,,,,,,,,,,,,,,,,,,,,,,,,,,,,,,,,,,,,,,,,,,,,,,,,,,,,,,,,,,,,,,,,,,,,,,,,,,,,,,,,,,,,,,,,,,,,,,,,,,,,,,,
,,,,,,60703c1f8af049d40a5df5f3,62c539a47f81ed87f953c7c7,2022-07-06_09h28.51.524,Colour_Asymmetry_Pilot,2022.1.3,Win32,59.88741167,62c50e9c1127f2cd403a315f,0,19,19,27,1,twofour,,,,,,,,,,,,,,,,,,,,,,,,,,,,,,,,,,,,,,,,,,,,,,,,,,,,,,,,,,,,,,,,,,,,,,,,,,,,,,,,,,,,,,,,,,,,,,,,,,,,,,,,,,,,,,,,,,,,,,,,,,,,,,,,,,,,,,,,,,,,,,,,,,,,,,,,,,,,,
,,,,,,60703c1f8af049d40a5df5f3,62c539a47f81ed87f953c7c7,2022-07-06_09h28.51.524,Colour_Asymmetry_Pilot,2022.1.3,Win32,59.88741167,62c50e9c1127f2cd403a315f,0,20,20,46,1,fourtwo,,,,,,,,,,,,,,,,,,,,,,,,,,,,,,,,,,,,,,,,,,,,,,,,,,,,,,,,,,,,,,,,,,,,,,,,,,,,,,,,,,,,,,,,,,,,,,,,,,,,,,,,,,,,,,,,,,,,,,,,,,,,,,,,,,,,,,,,,,,,,,,,,,,,,,,,,,,,,
,,,,,,60703c1f8af049d40a5df5f3,62c539a47f81ed87f953c7c7,2022-07-06_09h28.51.524,Colour_Asymmetry_Pilot,2022.1.3,Win32,59.88741167,62c50e9c1127f2cd403a315f,0,21,21,3,1,twofour,,,,,,,,,,,,,,,,,,,,,,,,,,,,,,,,,,,,,,,,,,,,,,,,,,,,,,,,,,,,,,,,,,,,,,,,,,,,,,,,,,,,,,,,,,,,,,,,,,,,,,,,,,,,,,,,,,,,,,,,,,,,,,,,,,,,,,,,,,,,,,,,,,,,,,,,,,,,,
,,,,,,60703c1f8af049d40a5df5f3,62c539a47f81ed87f953c7c7,2022-07-06_09h28.51.524,Colour_Asymmetry_Pilot,2022.1.3,Win32,59.88741167,62c50e9c1127f2cd403a315f,0,22,22,138,1,twoone,,,,,,,,,,,,,,,,,,,,,,,,,,,,,,,,,,,,,,,,,,,,,,,,,,,,,,,,,,,,,,,,,,,,,,,,,,,,,,,,,,,,,,,,,,,,,,,,,,,,,,,,,,,,,,,,,,,,,,,,,,,,,,,,,,,,,,,,,,,,,,,,,,,,,,,,,,,,,
,,,,,,60703c1f8af049d40a5df5f3,62c539a47f81ed87f953c7c7,2022-07-06_09h28.51.524,Colour_Asymmetry_Pilot,2022.1.3,Win32,59.88741167,62c50e9c1127f2cd403a315f,0,23,23,28,1,threeone,,,,,,,,,,,,,,,,,,,,,,,,,,,,,,,,,,,,,,,,,,,,,,,,,,,,,,,,,,,,,,,,,,,,,,,,,,,,,,,,,,,,,,,,,,,,,,,,,,,,,,,,,,,,,,,,,,,,,,,,,,,,,,,,,,,,,,,,,,,,,,,,,,,,,,,,,,,,,
,,,,,,60703c1f8af049d40a5df5f3,62c539a47f81ed87f953c7c7,2022-07-06_09h28.51.524,Colour_Asymmetry_Pilot,2022.1.3,Win32,59.88741167,62c50e9c1127f2cd403a315f,0,24,24,12,1,threeone,,,,,,,,,,,,,,,,,,,,,,,,,,,,,,,,,,,,,,,,,,,,,,,,,,,,,,,,,,,,,,,,,,,,,,,,,,,,,,,,,,,,,,,,,,,,,,,,,,,,,,,,,,,,,,,,,,,,,,,,,,,,,,,,,,,,,,,,,,,,,,,,,,,,,,,,,,,,,
,,,,,,60703c1f8af049d40a5df5f3,62c539a47f81ed87f953c7c7,2022-07-06_09h28.51.524,Colour_Asymmetry_Pilot,2022.1.3,Win32,59.88741167,62c50e9c1127f2cd403a315f,0,25,25,118,1,fourtwo,,,,,,,,,,,,,,,,,,,,,,,,,,,,,,,,,,,,,,,,,,,,,,,,,,,,,,,,,,,,,,,,,,,,,,,,,,,,,,,,,,,,,,,,,,,,,,,,,,,,,,,,,,,,,,,,,,,,,,,,,,,,,,,,,,,,,,,,,,,,,,,,,,,,,,,,,,,,,
,,,,,,60703c1f8af049d40a5df5f3,62c539a47f81ed87f953c7c7,2022-07-06_09h28.51.524,Colour_Asymmetry_Pilot,2022.1.3,Win32,59.88741167,62c50e9c1127f2cd403a315f,0,26,26,140,1,threeone,,,,,,,,,,,,,,,,,,,,,,,,,,,,,,,,,,,,,,,,,,,,,,,,,,,,,,,,,,,,,,,,,,,,,,,,,,,,,,,,,,,,,,,,,,,,,,,,,,,,,,,,,,,,,,,,,,,,,,,,,,,,,,,,,,,,,,,,,,,,,,,,,,,,,,,,,,,,,
,,,,,,60703c1f8af049d40a5df5f3,62c539a47f81ed87f953c7c7,2022-07-06_09h28.51.524,Colour_Asymmetry_Pilot,2022.1.3,Win32,59.88741167,62c50e9c1127f2cd403a315f,0,27,27,23,1,fourthree,,,,,,,,,,,,,,,,,,,,,,,,,,,,,,,,,,,,,,,,,,,,,,,,,,,,,,,,,,,,,,,,,,,,,,,,,,,,,,,,,,,,,,,,,,,,,,,,,,,,,,,,,,,,,,,,,,,,,,,,,,,,,,,,,,,,,,,,,,,,,,,,,,,,,,,,,,,,,
,,,,,,60703c1f8af049d40a5df5f3,62c539a47f81ed87f953c7c7,2022-07-06_09h28.51.524,Colour_Asymmetry_Pilot,2022.1.3,Win32,59.88741167,62c50e9c1127f2cd403a315f,0,28,28,134,1,fourtwo,,,,,,,,,,,,,,,,,,,,,,,,,,,,,,,,,,,,,,,,,,,,,,,,,,,,,,,,,,,,,,,,,,,,,,,,,,,,,,,,,,,,,,,,,,,,,,,,,,,,,,,,,,,,,,,,,,,,,,,,,,,,,,,,,,,,,,,,,,,,,,,,,,,,,,,,,,,,,
,,,,,,60703c1f8af049d40a5df5f3,62c539a47f81ed87f953c7c7,2022-07-06_09h28.51.524,Colour_Asymmetry_Pilot,2022.1.3,Win32,59.88741167,62c50e9c1127f2cd403a315f,0,29,29,9,1,onethree,,,,,,,,,,,,,,,,,,,,,,,,,,,,,,,,,,,,,,,,,,,,,,,,,,,,,,,,,,,,,,,,,,,,,,,,,,,,,,,,,,,,,,,,,,,,,,,,,,,,,,,,,,,,,,,,,,,,,,,,,,,,,,,,,,,,,,,,,,,,,,,,,,,,,,,,,,,,,
,,,,,,60703c1f8af049d40a5df5f3,62c539a47f81ed87f953c7c7,2022-07-06_09h28.51.524,Colour_Asymmetry_Pilot,2022.1.3,Win32,59.88741167,62c50e9c1127f2cd403a315f,0,30,30,55,1,fourthree,,,,,,,,,,,,,,,,,,,,,,,,,,,,,,,,,,,,,,,,,,,,,,,,,,,,,,,,,,,,,,,,,,,,,,,,,,,,,,,,,,,,,,,,,,,,,,,,,,,,,,,,,,,,,,,,,,,,,,,,,,,,,,,,,,,,,,,,,,,,,,,,,,,,,,,,,,,,,
,,,,,,60703c1f8af049d40a5df5f3,62c539a47f81ed87f953c7c7,2022-07-06_09h28.51.524,Colour_Asymmetry_Pilot,2022.1.3,Win32,59.88741167,62c50e9c1127f2cd403a315f,0,31,31,95,1,fourthree,,,,,,,,,,,,,,,,,,,,,,,,,,,,,,,,,,,,,,,,,,,,,,,,,,,,,,,,,,,,,,,,,,,,,,,,,,,,,,,,,,,,,,,,,,,,,,,,,,,,,,,,,,,,,,,,,,,,,,,,,,,,,,,,,,,,,,,,,,,,,,,,,,,,,,,,,,,,,
,,,,,,60703c1f8af049d40a5df5f3,62c539a47f81ed87f953c7c7,2022-07-06_09h28.51.524,Colour_Asymmetry_Pilot,2022.1.3,Win32,59.88741167,62c50e9c1127f2cd403a315f,0,32,32,155,1,twofour,,,,,,,,,,,,,,,,,,,,,,,,,,,,,,,,,,,,,,,,,,,,,,,,,,,,,,,,,,,,,,,,,,,,,,,,,,,,,,,,,,,,,,,,,,,,,,,,,,,,,,,,,,,,,,,,,,,,,,,,,,,,,,,,,,,,,,,,,,,,,,,,,,,,,,,,,,,,,
,,,,,,60703c1f8af049d40a5df5f3,62c539a47f81ed87f953c7c7,2022-07-06_09h28.51.524,Colour_Asymmetry_Pilot,2022.1.3,Win32,59.88741167,62c50e9c1127f2cd403a315f,0,33,33,79,1,fourthree,,,,,,,,,,,,,,,,,,,,,,,,,,,,,,,,,,,,,,,,,,,,,,,,,,,,,,,,,,,,,,,,,,,,,,,,,,,,,,,,,,,,,,,,,,,,,,,,,,,,,,,,,,,,,,,,,,,,,,,,,,,,,,,,,,,,,,,,,,,,,,,,,,,,,,,,,,,,,
,,,,,,60703c1f8af049d40a5df5f3,62c539a47f81ed87f953c7c7,2022-07-06_09h28.51.524,Colour_Asymmetry_Pilot,2022.1.3,Win32,59.88741167,62c50e9c1127f2cd403a315f,0,34,34,148,1,threeone,,,,,,,,,,,,,,,,,,,,,,,,,,,,,,,,,,,,,,,,,,,,,,,,,,,,,,,,,,,,,,,,,,,,,,,,,,,,,,,,,,,,,,,,,,,,,,,,,,,,,,,,,,,,,,,,,,,,,,,,,,,,,,,,,,,,,,,,,,,,,,,,,,,,,,,,,,,,,
,,,,,,60703c1f8af049d40a5df5f3,62c539a47f81ed87f953c7c7,2022-07-06_09h28.51.524,Colour_Asymmetry_Pilot,2022.1.3,Win32,59.88741167,62c50e9c1127f2cd403a315f,0,35,35,47,1,fourthree,,,,,,,,,,,,,,,,,,,,,,,,,,,,,,,,,,,,,,,,,,,,,,,,,,,,,,,,,,,,,,,,,,,,,,,,,,,,,,,,,,,,,,,,,,,,,,,,,,,,,,,,,,,,,,,,,,,,,,,,,,,,,,,,,,,,,,,,,,,,,,,,,,,,,,,,,,,,,
,,,,,,60703c1f8af049d40a5df5f3,62c539a47f81ed87f953c7c7,2022-07-06_09h28.51.524,Colour_Asymmetry_Pilot,2022.1.3,Win32,59.88741167,62c50e9c1127f2cd403a315f,0,36,36,127,1,fourthree,,,,,,,,,,,,,,,,,,,,,,,,,,,,,,,,,,,,,,,,,,,,,,,,,,,,,,,,,,,,,,,,,,,,,,,,,,,,,,,,,,,,,,,,,,,,,,,,,,,,,,,,,,,,,,,,,,,,,,,,,,,,,,,,,,,,,,,,,,,,,,,,,,,,,,,,,,,,,
,,,,,,60703c1f8af049d40a5df5f3,62c539a47f81ed87f953c7c7,2022-07-06_09h28.51.524,Colour_Asymmetry_Pilot,2022.1.3,Win32,59.88741167,62c50e9c1127f2cd403a315f,0,37,37,105,1,onethree,,,,,,,,,,,,,,,,,,,,,,,,,,,,,,,,,,,,,,,,,,,,,,,,,,,,,,,,,,,,,,,,,,,,,,,,,,,,,,,,,,,,,,,,,,,,,,,,,,,,,,,,,,,,,,,,,,,,,,,,,,,,,,,,,,,,,,,,,,,,,,,,,,,,,,,,,,,,,
,,,,,,60703c1f8af049d40a5df5f3,62c539a47f81ed87f953c7c7,2022-07-06_09h28.51.524,Colour_Asymmetry_Pilot,2022.1.3,Win32,59.88741167,62c50e9c1127f2cd403a315f,0,38,38,126,1,fourtwo,,,,,,,,,,,,,,,,,,,,,,,,,,,,,,,,,,,,,,,,,,,,,,,,,,,,,,,,,,,,,,,,,,,,,,,,,,,,,,,,,,,,,,,,,,,,,,,,,,,,,,,,,,,,,,,,,,,,,,,,,,,,,,,,,,,,,,,,,,,,,,,,,,,,,,,,,,,,,
,,,,,,60703c1f8af049d40a5df5f3,62c539a47f81ed87f953c7c7,2022-07-06_09h28.51.524,Colour_Asymmetry_Pilot,2022.1.3,Win32,59.88741167,62c50e9c1127f2cd403a315f,0,39,39,26,1,twoone,,,,,,,,,,,,,,,,,,,,,,,,,,,,,,,,,,,,,,,,,,,,,,,,,,,,,,,,,,,,,,,,,,,,,,,,,,,,,,,,,,,,,,,,,,,,,,,,,,,,,,,,,,,,,,,,,,,,,,,,,,,,,,,,,,,,,,,,,,,,,,,,,,,,,,,,,,,,,
,,,,,,60703c1f8af049d40a5df5f3,62c539a47f81ed87f953c7c7,2022-07-06_09h28.51.524,Colour_Asymmetry_Pilot,2022.1.3,Win32,59.88741167,62c50e9c1127f2cd403a315f,0,40,40,143,1,fourthree,,,,,,,,,,,,,,,,,,,,,,,,,,,,,,,,,,,,,,,,,,,,,,,,,,,,,,,,,,,,,,,,,,,,,,,,,,,,,,,,,,,,,,,,,,,,,,,,,,,,,,,,,,,,,,,,,,,,,,,,,,,,,,,,,,,,,,,,,,,,,,,,,,,,,,,,,,,,,
,,,,,,60703c1f8af049d40a5df5f3,62c539a47f81ed87f953c7c7,2022-07-06_09h28.51.524,Colour_Asymmetry_Pilot,2022.1.3,Win32,59.88741167,62c50e9c1127f2cd403a315f,0,41,41,104,1,onetwo,,,,,,,,,,,,,,,,,,,,,,,,,,,,,,,,,,,,,,,,,,,,,,,,,,,,,,,,,,,,,,,,,,,,,,,,,,,,,,,,,,,,,,,,,,,,,,,,,,,,,,,,,,,,,,,,,,,,,,,,,,,,,,,,,,,,,,,,,,,,,,,,,,,,,,,,,,,,,
,,,,,,60703c1f8af049d40a5df5f3,62c539a47f81ed87f953c7c7,2022-07-06_09h28.51.524,Colour_Asymmetry_Pilot,2022.1.3,Win32,59.88741167,62c50e9c1127f2cd403a315f,0,42,42,62,1,fourtwo,,,,,,,,,,,,,,,,,,,,,,,,,,,,,,,,,,,,,,,,,,,,,,,,,,,,,,,,,,,,,,,,,,,,,,,,,,,,,,,,,,,,,,,,,,,,,,,,,,,,,,,,,,,,,,,,,,,,,,,,,,,,,,,,,,,,,,,,,,,,,,,,,,,,,,,,,,,,,
,,,,,,60703c1f8af049d40a5df5f3,62c539a47f81ed87f953c7c7,2022-07-06_09h28.51.524,Colour_Asymmetry_Pilot,2022.1.3,Win32,59.88741167,62c50e9c1127f2cd403a315f,0,43,43,111,1,fourthree,,,,,,,,,,,,,,,,,,,,,,,,,,,,,,,,,,,,,,,,,,,,,,,,,,,,,,,,,,,,,,,,,,,,,,,,,,,,,,,,,,,,,,,,,,,,,,,,,,,,,,,,,,,,,,,,,,,,,,,,,,,,,,,,,,,,,,,,,,,,,,,,,,,,,,,,,,,,,
,,,,,,60703c1f8af049d40a5df5f3,62c539a47f81ed87f953c7c7,2022-07-06_09h28.51.524,Colour_Asymmetry_Pilot,2022.1.3,Win32,59.88741167,62c50e9c1127f2cd403a315f,0,44,44,77,1,threefour,,,,,,,,,,,,,,,,,,,,,,,,,,,,,,,,,,,,,,,,,,,,,,,,,,,,,,,,,,,,,,,,,,,,,,,,,,,,,,,,,,,,,,,,,,,,,,,,,,,,,,,,,,,,,,,,,,,,,,,,,,,,,,,,,,,,,,,,,,,,,,,,,,,,,,,,,,,,,
,,,,,,60703c1f8af049d40a5df5f3,62c539a47f81ed87f953c7c7,2022-07-06_09h28.51.524,Colour_Asymmetry_Pilot,2022.1.3,Win32,59.88741167,62c50e9c1127f2cd403a315f,0,45,45,19,1,twofour,,,,,,,,,,,,,,,,,,,,,,,,,,,,,,,,,,,,,,,,,,,,,,,,,,,,,,,,,,,,,,,,,,,,,,,,,,,,,,,,,,,,,,,,,,,,,,,,,,,,,,,,,,,,,,,,,,,,,,,,,,,,,,,,,,,,,,,,,,,,,,,,,,,,,,,,,,,,,
,,,,,,60703c1f8af049d40a5df5f3,62c539a47f81ed87f953c7c7,2022-07-06_09h28.51.524,Colour_Asymmetry_Pilot,2022.1.3,Win32,59.88741167,62c50e9c1127f2cd403a315f,0,46,46,72,1,onetwo,,,,,,,,,,,,,,,,,,,,,,,,,,,,,,,,,,,,,,,,,,,,,,,,,,,,,,,,,,,,,,,,,,,,,,,,,,,,,,,,,,,,,,,,,,,,,,,,,,,,,,,,,,,,,,,,,,,,,,,,,,,,,,,,,,,,,,,,,,,,,,,,,,,,,,,,,,,,,
,,,,,,60703c1f8af049d40a5df5f3,62c539a47f81ed87f953c7c7,2022-07-06_09h28.51.524,Colour_Asymmetry_Pilot,2022.1.3,Win32,59.88741167,62c50e9c1127f2cd403a315f,0,47,47,35,1,twofour,,,,,,,,,,,,,,,,,,,,,,,,,,,,,,,,,,,,,,,,,,,,,,,,,,,,,,,,,,,,,,,,,,,,,,,,,,,,,,,,,,,,,,,,,,,,,,,,,,,,,,,,,,,,,,,,,,,,,,,,,,,,,,,,,,,,,,,,,,,,,,,,,,,,,,,,,,,,,
,,,,,,60703c1f8af049d40a5df5f3,62c539a47f81ed87f953c7c7,2022-07-06_09h28.51.524,Colour_Asymmetry_Pilot,2022.1.3,Win32,59.88741167,62c50e9c1127f2cd403a315f,0,48,48,93,1,threefour,,,,,,,,,,,,,,,,,,,,,,,,,,,,,,,,,,,,,,,,,,,,,,,,,,,,,,,,,,,,,,,,,,,,,,,,,,,,,,,,,,,,,,,,,,,,,,,,,,,,,,,,,,,,,,,,,,,,,,,,,,,,,,,,,,,,,,,,,,,,,,,,,,,,,,,,,,,,,
,,,,,,60703c1f8af049d40a5df5f3,62c539a47f81ed87f953c7c7,2022-07-06_09h28.51.524,Colour_Asymmetry_Pilot,2022.1.3,Win32,59.88741167,62c50e9c1127f2cd403a315f,0,49,49,87,1,fourthree,,,,,,,,,,,,,,,,,,,,,,,,,,,,,,,,,,,,,,,,,,,,,,,,,,,,,,,,,,,,,,,,,,,,,,,,,,,,,,,,,,,,,,,,,,,,,,,,,,,,,,,,,,,,,,,,,,,,,,,,,,,,,,,,,,,,,,,,,,,,,,,,,,,,,,,,,,,,,
,,,,,,60703c1f8af049d40a5df5f3,62c539a47f81ed87f953c7c7,2022-07-06_09h28.51.524,Colour_Asymmetry_Pilot,2022.1.3,Win32,59.88741167,62c50e9c1127f2cd403a315f,0,50,50,13,1,threefour,,,,,,,,,,,,,,,,,,,,,,,,,,,,,,,,,,,,,,,,,,,,,,,,,,,,,,,,,,,,,,,,,,,,,,,,,,,,,,,,,,,,,,,,,,,,,,,,,,,,,,,,,,,,,,,,,,,,,,,,,,,,,,,,,,,,,,,,,,,,,,,,,,,,,,,,,,,,,
,,,,,,60703c1f8af049d40a5df5f3,62c539a47f81ed87f953c7c7,2022-07-06_09h28.51.524,Colour_Asymmetry_Pilot,2022.1.3,Win32,59.88741167,62c50e9c1127f2cd403a315f,0,51,51,40,1,onetwo,,,,,,,,,,,,,,,,,,,,,,,,,,,,,,,,,,,,,,,,,,,,,,,,,,,,,,,,,,,,,,,,,,,,,,,,,,,,,,,,,,,,,,,,,,,,,,,,,,,,,,,,,,,,,,,,,,,,,,,,,,,,,,,,,,,,,,,,,,,,,,,,,,,,,,,,,,,,,
,,,,,,60703c1f8af049d40a5df5f3,62c539a47f81ed87f953c7c7,2022-07-06_09h28.51.524,Colour_Asymmetry_Pilot,2022.1.3,Win32,59.88741167,62c50e9c1127f2cd403a315f,0,52,52,101,1,threefour,,,,,,,,,,,,,,,,,,,,,,,,,,,,,,,,,,,,,,,,,,,,,,,,,,,,,,,,,,,,,,,,,,,,,,,,,,,,,,,,,,,,,,,,,,,,,,,,,,,,,,,,,,,,,,,,,,,,,,,,,,,,,,,,,,,,,,,,,,,,,,,,,,,,,,,,,,,,,
,,,,,,60703c1f8af049d40a5df5f3,62c539a47f81ed87f953c7c7,2022-07-06_09h28.51.524,Colour_Asymmetry_Pilot,2022.1.3,Win32,59.88741167,62c50e9c1127f2cd403a315f,0,53,53,65,1,onethree,,,,,,,,,,,,,,,,,,,,,,,,,,,,,,,,,,,,,,,,,,,,,,,,,,,,,,,,,,,,,,,,,,,,,,,,,,,,,,,,,,,,,,,,,,,,,,,,,,,,,,,,,,,,,,,,,,,,,,,,,,,,,,,,,,,,,,,,,,,,,,,,,,,,,,,,,,,,,
,,,,,,60703c1f8af049d40a5df5f3,62c539a47f81ed87f953c7c7,2022-07-06_09h28.51.524,Colour_Asymmetry_Pilot,2022.1.3,Win32,59.88741167,62c50e9c1127f2cd403a315f,0,54,54,44,1,threeone,,,,,,,,,,,,,,,,,,,,,,,,,,,,,,,,,,,,,,,,,,,,,,,,,,,,,,,,,,,,,,,,,,,,,,,,,,,,,,,,,,,,,,,,,,,,,,,,,,,,,,,,,,,,,,,,,,,,,,,,,,,,,,,,,,,,,,,,,,,,,,,,,,,,,,,,,,,,,
,,,,,,60703c1f8af049d40a5df5f3,62c539a47f81ed87f953c7c7,2022-07-06_09h28.51.524,Colour_Asymmetry_Pilot,2022.1.3,Win32,59.88741167,62c50e9c1127f2cd403a315f,0,55,55,109,1,threefour,,,,,,,,,,,,,,,,,,,,,,,,,,,,,,,,,,,,,,,,,,,,,,,,,,,,,,,,,,,,,,,,,,,,,,,,,,,,,,,,,,,,,,,,,,,,,,,,,,,,,,,,,,,,,,,,,,,,,,,,,,,,,,,,,,,,,,,,,,,,,,,,,,,,,,,,,,,,,
,,,,,,60703c1f8af049d40a5df5f3,62c539a47f81ed87f953c7c7,2022-07-06_09h28.51.524,Colour_Asymmetry_Pilot,2022.1.3,Win32,59.88741167,62c50e9c1127f2cd403a315f,0,56,56,56,1,onetwo,,,,,,,,,,,,,,,,,,,,,,,,,,,,,,,,,,,,,,,,,,,,,,,,,,,,,,,,,,,,,,,,,,,,,,,,,,,,,,,,,,,,,,,,,,,,,,,,,,,,,,,,,,,,,,,,,,,,,,,,,,,,,,,,,,,,,,,,,,,,,,,,,,,,,,,,,,,,,
,,,,,,60703c1f8af049d40a5df5f3,62c539a47f81ed87f953c7c7,2022-07-06_09h28.51.524,Colour_Asymmetry_Pilot,2022.1.3,Win32,59.88741167,62c50e9c1127f2cd403a315f,0,57,57,147,1,twofour,,,,,,,,,,,,,,,,,,,,,,,,,,,,,,,,,,,,,,,,,,,,,,,,,,,,,,,,,,,,,,,,,,,,,,,,,,,,,,,,,,,,,,,,,,,,,,,,,,,,,,,,,,,,,,,,,,,,,,,,,,,,,,,,,,,,,,,,,,,,,,,,,,,,,,,,,,,,,
,,,,,,60703c1f8af049d40a5df5f3,62c539a47f81ed87f953c7c7,2022-07-06_09h28.51.524,Colour_Asymmetry_Pilot,2022.1.3,Win32,59.88741167,62c50e9c1127f2cd403a315f,0,58,58,149,1,threefour,,,,,,,,,,,,,,,,,,,,,,,,,,,,,,,,,,,,,,,,,,,,,,,,,,,,,,,,,,,,,,,,,,,,,,,,,,,,,,,,,,,,,,,,,,,,,,,,,,,,,,,,,,,,,,,,,,,,,,,,,,,,,,,,,,,,,,,,,,,,,,,,,,,,,,,,,,,,,
,,,,,,60703c1f8af049d40a5df5f3,62c539a47f81ed87f953c7c7,2022-07-06_09h28.51.524,Colour_Asymmetry_Pilot,2022.1.3,Win32,59.88741167,62c50e9c1127f2cd403a315f,0,59,59,103,1,fourthree,,,,,,,,,,,,,,,,,,,,,,,,,,,,,,,,,,,,,,,,,,,,,,,,,,,,,,,,,,,,,,,,,,,,,,,,,,,,,,,,,,,,,,,,,,,,,,,,,,,,,,,,,,,,,,,,,,,,,,,,,,,,,,,,,,,,,,,,,,,,,,,,,,,,,,,,,,,,,
,,,,,,60703c1f8af049d40a5df5f3,62c539a47f81ed87f953c7c7,2022-07-06_09h28.51.524,Colour_Asymmetry_Pilot,2022.1.3,Win32,59.88741167,62c50e9c1127f2cd403a315f,0,60,60,30,1,fourtwo,,,,,,,,,,,,,,,,,,,,,,,,,,,,,,,,,,,,,,,,,,,,,,,,,,,,,,,,,,,,,,,,,,,,,,,,,,,,,,,,,,,,,,,,,,,,,,,,,,,,,,,,,,,,,,,,,,,,,,,,,,,,,,,,,,,,,,,,,,,,,,,,,,,,,,,,,,,,,
,,,,,,60703c1f8af049d40a5df5f3,62c539a47f81ed87f953c7c7,2022-07-06_09h28.51.524,Colour_Asymmetry_Pilot,2022.1.3,Win32,59.88741167,62c50e9c1127f2cd403a315f,0,61,61,34,1,twoone,,,,,,,,,,,,,,,,,,,,,,,,,,,,,,,,,,,,,,,,,,,,,,,,,,,,,,,,,,,,,,,,,,,,,,,,,,,,,,,,,,,,,,,,,,,,,,,,,,,,,,,,,,,,,,,,,,,,,,,,,,,,,,,,,,,,,,,,,,,,,,,,,,,,,,,,,,,,,
,,,,,,60703c1f8af049d40a5df5f3,62c539a47f81ed87f953c7c7,2022-07-06_09h28.51.524,Colour_Asymmetry_Pilot,2022.1.3,Win32,59.88741167,62c50e9c1127f2cd403a315f,0,62,62,94,1,fourtwo,,,,,,,,,,,,,,,,,,,,,,,,,,,,,,,,,,,,,,,,,,,,,,,,,,,,,,,,,,,,,,,,,,,,,,,,,,,,,,,,,,,,,,,,,,,,,,,,,,,,,,,,,,,,,,,,,,,,,,,,,,,,,,,,,,,,,,,,,,,,,,,,,,,,,,,,,,,,,
,,,,,,60703c1f8af049d40a5df5f3,62c539a47f81ed87f953c7c7,2022-07-06_09h28.51.524,Colour_Asymmetry_Pilot,2022.1.3,Win32,59.88741167,62c50e9c1127f2cd403a315f,0,63,63,145,1,onethree,,,,,,,,,,,,,,,,,,,,,,,,,,,,,,,,,,,,,,,,,,,,,,,,,,,,,,,,,,,,,,,,,,,,,,,,,,,,,,,,,,,,,,,,,,,,,,,,,,,,,,,,,,,,,,,,,,,,,,,,,,,,,,,,,,,,,,,,,,,,,,,,,,,,,,,,,,,,,
,,,,,,60703c1f8af049d40a5df5f3,62c539a47f81ed87f953c7c7,2022-07-06_09h28.51.524,Colour_Asymmetry_Pilot,2022.1.3,Win32,59.88741167,62c50e9c1127f2cd403a315f,0,64,64,24,1,onetwo,,,,,,,,,,,,,,,,,,,,,,,,,,,,,,,,,,,,,,,,,,,,,,,,,,,,,,,,,,,,,,,,,,,,,,,,,,,,,,,,,,,,,,,,,,,,,,,,,,,,,,,,,,,,,,,,,,,,,,,,,,,,,,,,,,,,,,,,,,,,,,,,,,,,,,,,,,,,,
,,,,,,60703c1f8af049d40a5df5f3,62c539a47f81ed87f953c7c7,2022-07-06_09h28.51.524,Colour_Asymmetry_Pilot,2022.1.3,Win32,59.88741167,62c50e9c1127f2cd403a315f,0,65,65,6,1,fourtwo,,,,,,,,,,,,,,,,,,,,,,,,,,,,,,,,,,,,,,,,,,,,,,,,,,,,,,,,,,,,,,,,,,,,,,,,,,,,,,,,,,,,,,,,,,,,,,,,,,,,,,,,,,,,,,,,,,,,,,,,,,,,,,,,,,,,,,,,,,,,,,,,,,,,,,,,,,,,,
,,,,,,60703c1f8af049d40a5df5f3,62c539a47f81ed87f953c7c7,2022-07-06_09h28.51.524,Colour_Asymmetry_Pilot,2022.1.3,Win32,59.88741167,62c50e9c1127f2cd403a315f,0,66,66,100,1,threeone,,,,,,,,,,,,,,,,,,,,,,,,,,,,,,,,,,,,,,,,,,,,,,,,,,,,,,,,,,,,,,,,,,,,,,,,,,,,,,,,,,,,,,,,,,,,,,,,,,,,,,,,,,,,,,,,,,,,,,,,,,,,,,,,,,,,,,,,,,,,,,,,,,,,,,,,,,,,,
,,,,,,60703c1f8af049d40a5df5f3,62c539a47f81ed87f953c7c7,2022-07-06_09h28.51.524,Colour_Asymmetry_Pilot,2022.1.3,Win32,59.88741167,62c50e9c1127f2cd403a315f,0,67,67,137,1,onethree,,,,,,,,,,,,,,,,,,,,,,,,,,,,,,,,,,,,,,,,,,,,,,,,,,,,,,,,,,,,,,,,,,,,,,,,,,,,,,,,,,,,,,,,,,,,,,,,,,,,,,,,,,,,,,,,,,,,,,,,,,,,,,,,,,,,,,,,,,,,,,,,,,,,,,,,,,,,,
,,,,,,60703c1f8af049d40a5df5f3,62c539a47f81ed87f953c7c7,2022-07-06_09h28.51.524,Colour_Asymmetry_Pilot,2022.1.3,Win32,59.88741167,62c50e9c1127f2cd403a315f,0,68,68,0,1,onetwo,,,,,,,,,,,,,,,,,,,,,,,,,,,,,,,,,,,,,,,,,,,,,,,,,,,,,,,,,,,,,,,,,,,,,,,,,,,,,,,,,,,,,,,,,,,,,,,,,,,,,,,,,,,,,,,,,,,,,,,,,,,,,,,,,,,,,,,,,,,,,,,,,,,,,,,,,,,,,
,,,,,,60703c1f8af049d40a5df5f3,62c539a47f81ed87f953c7c7,2022-07-06_09h28.51.524,Colour_Asymmetry_Pilot,2022.1.3,Win32,59.88741167,62c50e9c1127f2cd403a315f,0,69,69,39,1,fourthree,,,,,,,,,,,,,,,,,,,,,,,,,,,,,,,,,,,,,,,,,,,,,,,,,,,,,,,,,,,,,,,,,,,,,,,,,,,,,,,,,,,,,,,,,,,,,,,,,,,,,,,,,,,,,,,,,,,,,,,,,,,,,,,,,,,,,,,,,,,,,,,,,,,,,,,,,,,,,
,,,,,,60703c1f8af049d40a5df5f3,62c539a47f81ed87f953c7c7,2022-07-06_09h28.51.524,Colour_Asymmetry_Pilot,2022.1.3,Win32,59.88741167,62c50e9c1127f2cd403a315f,0,70,70,8,1,onetwo,,,,,,,,,,,,,,,,,,,,,,,,,,,,,,,,,,,,,,,,,,,,,,,,,,,,,,,,,,,,,,,,,,,,,,,,,,,,,,,,,,,,,,,,,,,,,,,,,,,,,,,,,,,,,,,,,,,,,,,,,,,,,,,,,,,,,,,,,,,,,,,,,,,,,,,,,,,,,
,,,,,,60703c1f8af049d40a5df5f3,62c539a47f81ed87f953c7c7,2022-07-06_09h28.51.524,Colour_Asymmetry_Pilot,2022.1.3,Win32,59.88741167,62c50e9c1127f2cd403a315f,0,71,71,49,1,onethree,,,,,,,,,,,,,,,,,,,,,,,,,,,,,,,,,,,,,,,,,,,,,,,,,,,,,,,,,,,,,,,,,,,,,,,,,,,,,,,,,,,,,,,,,,,,,,,,,,,,,,,,,,,,,,,,,,,,,,,,,,,,,,,,,,,,,,,,,,,,,,,,,,,,,,,,,,,,,
,,,,,,60703c1f8af049d40a5df5f3,62c539a47f81ed87f953c7c7,2022-07-06_09h28.51.524,Colour_Asymmetry_Pilot,2022.1.3,Win32,59.88741167,62c50e9c1127f2cd403a315f,0,72,72,154,1,twoone,,,,,,,,,,,,,,,,,,,,,,,,,,,,,,,,,,,,,,,,,,,,,,,,,,,,,,,,,,,,,,,,,,,,,,,,,,,,,,,,,,,,,,,,,,,,,,,,,,,,,,,,,,,,,,,,,,,,,,,,,,,,,,,,,,,,,,,,,,,,,,,,,,,,,,,,,,,,,
,,,,,,60703c1f8af049d40a5df5f3,62c539a47f81ed87f953c7c7,2022-07-06_09h28.51.524,Colour_Asymmetry_Pilot,2022.1.3,Win32,59.88741167,62c50e9c1127f2cd403a315f,0,73,73,86,1,fourtwo,,,,,,,,,,,,,,,,,,,,,,,,,,,,,,,,,,,,,,,,,,,,,,,,,,,,,,,,,,,,,,,,,,,,,,,,,,,,,,,,,,,,,,,,,,,,,,,,,,,,,,,,,,,,,,,,,,,,,,,,,,,,,,,,,,,,,,,,,,,,,,,,,,,,,,,,,,,,,
,,,,,,60703c1f8af049d40a5df5f3,62c539a47f81ed87f953c7c7,2022-07-06_09h28.51.524,Colour_Asymmetry_Pilot,2022.1.3,Win32,59.88741167,62c50e9c1127f2cd403a315f,0,74,74,90,1,twoone,,,,,,,,,,,,,,,,,,,,,,,,,,,,,,,,,,,,,,,,,,,,,,,,,,,,,,,,,,,,,,,,,,,,,,,,,,,,,,,,,,,,,,,,,,,,,,,,,,,,,,,,,,,,,,,,,,,,,,,,,,,,,,,,,,,,,,,,,,,,,,,,,,,,,,,,,,,,,
,,,,,,60703c1f8af049d40a5df5f3,62c539a47f81ed87f953c7c7,2022-07-06_09h28.51.524,Colour_Asymmetry_Pilot,2022.1.3,Win32,59.88741167,62c50e9c1127f2cd403a315f,0,75,75,142,1,fourtwo,,,,,,,,,,,,,,,,,,,,,,,,,,,,,,,,,,,,,,,,,,,,,,,,,,,,,,,,,,,,,,,,,,,,,,,,,,,,,,,,,,,,,,,,,,,,,,,,,,,,,,,,,,,,,,,,,,,,,,,,,,,,,,,,,,,,,,,,,,,,,,,,,,,,,,,,,,,,,
,,,,,,60703c1f8af049d40a5df5f3,62c539a47f81ed87f953c7c7,2022-07-06_09h28.51.524,Colour_Asymmetry_Pilot,2022.1.3,Win32,59.88741167,62c50e9c1127f2cd403a315f,0,76,76,14,1,fourtwo,,,,,,,,,,,,,,,,,,,,,,,,,,,,,,,,,,,,,,,,,,,,,,,,,,,,,,,,,,,,,,,,,,,,,,,,,,,,,,,,,,,,,,,,,,,,,,,,,,,,,,,,,,,,,,,,,,,,,,,,,,,,,,,,,,,,,,,,,,,,,,,,,,,,,,,,,,,,,
,,,,,,60703c1f8af049d40a5df5f3,62c539a47f81ed87f953c7c7,2022-07-06_09h28.51.524,Colour_Asymmetry_Pilot,2022.1.3,Win32,59.88741167,62c50e9c1127f2cd403a315f,0,77,77,11,1,twofour,,,,,,,,,,,,,,,,,,,,,,,,,,,,,,,,,,,,,,,,,,,,,,,,,,,,,,,,,,,,,,,,,,,,,,,,,,,,,,,,,,,,,,,,,,,,,,,,,,,,,,,,,,,,,,,,,,,,,,,,,,,,,,,,,,,,,,,,,,,,,,,,,,,,,,,,,,,,,
,,,,,,60703c1f8af049d40a5df5f3,62c539a47f81ed87f953c7c7,2022-07-06_09h28.51.524,Colour_Asymmetry_Pilot,2022.1.3,Win32,59.88741167,62c50e9c1127f2cd403a315f,0,78,78,151,1,fourthree,,,,,,,,,,,,,,,,,,,,,,,,,,,,,,,,,,,,,,,,,,,,,,,,,,,,,,,,,,,,,,,,,,,,,,,,,,,,,,,,,,,,,,,,,,,,,,,,,,,,,,,,,,,,,,,,,,,,,,,,,,,,,,,,,,,,,,,,,,,,,,,,,,,,,,,,,,,,,
,,,,,,60703c1f8af049d40a5df5f3,62c539a47f81ed87f953c7c7,2022-07-06_09h28.51.524,Colour_Asymmetry_Pilot,2022.1.3,Win32,59.88741167,62c50e9c1127f2cd403a315f,0,79,79,83,1,twofour,,,,,,,,,,,,,,,,,,,,,,,,,,,,,,,,,,,,,,,,,,,,,,,,,,,,,,,,,,,,,,,,,,,,,,,,,,,,,,,,,,,,,,,,,,,,,,,,,,,,,,,,,,,,,,,,,,,,,,,,,,,,,,,,,,,,,,,,,,,,,,,,,,,,,,,,,,,,,
,,,,,,60703c1f8af049d40a5df5f3,62c539a47f81ed87f953c7c7,2022-07-06_09h28.51.524,Colour_Asymmetry_Pilot,2022.1.3,Win32,59.88741167,62c50e9c1127f2cd403a315f,0,80,80,5,1,threefour,,,,,,,,,,,,,,,,,,,,,,,,,,,,,,,,,,,,,,,,,,,,,,,,,,,,,,,,,,,,,,,,,,,,,,,,,,,,,,,,,,,,,,,,,,,,,,,,,,,,,,,,,,,,,,,,,,,,,,,,,,,,,,,,,,,,,,,,,,,,,,,,,,,,,,,,,,,,,
,,,,,,60703c1f8af049d40a5df5f3,62c539a47f81ed87f953c7c7,2022-07-06_09h28.51.524,Colour_Asymmetry_Pilot,2022.1.3,Win32,59.88741167,62c50e9c1127f2cd403a315f,0,81,81,54,1,fourtwo,,,,,,,,,,,,,,,,,,,,,,,,,,,,,,,,,,,,,,,,,,,,,,,,,,,,,,,,,,,,,,,,,,,,,,,,,,,,,,,,,,,,,,,,,,,,,,,,,,,,,,,,,,,,,,,,,,,,,,,,,,,,,,,,,,,,,,,,,,,,,,,,,,,,,,,,,,,,,
,,,,,,60703c1f8af049d40a5df5f3,62c539a47f81ed87f953c7c7,2022-07-06_09h28.51.524,Colour_Asymmetry_Pilot,2022.1.3,Win32,59.88741167,62c50e9c1127f2cd403a315f,0,82,82,157,1,threefour,,,,,,,,,,,,,,,,,,,,,,,,,,,,,,,,,,,,,,,,,,,,,,,,,,,,,,,,,,,,,,,,,,,,,,,,,,,,,,,,,,,,,,,,,,,,,,,,,,,,,,,,,,,,,,,,,,,,,,,,,,,,,,,,,,,,,,,,,,,,,,,,,,,,,,,,,,,,,
,,,,,,60703c1f8af049d40a5df5f3,62c539a47f81ed87f953c7c7,2022-07-06_09h28.51.524,Colour_Asymmetry_Pilot,2022.1.3,Win32,59.88741167,62c50e9c1127f2cd403a315f,0,83,83,80,1,onetwo,,,,,,,,,,,,,,,,,,,,,,,,,,,,,,,,,,,,,,,,,,,,,,,,,,,,,,,,,,,,,,,,,,,,,,,,,,,,,,,,,,,,,,,,,,,,,,,,,,,,,,,,,,,,,,,,,,,,,,,,,,,,,,,,,,,,,,,,,,,,,,,,,,,,,,,,,,,,,
,,,,,,60703c1f8af049d40a5df5f3,62c539a47f81ed87f953c7c7,2022-07-06_09h28.51.524,Colour_Asymmetry_Pilot,2022.1.3,Win32,59.88741167,62c50e9c1127f2cd403a315f,0,84,84,122,1,twoone,,,,,,,,,,,,,,,,,,,,,,,,,,,,,,,,,,,,,,,,,,,,,,,,,,,,,,,,,,,,,,,,,,,,,,,,,,,,,,,,,,,,,,,,,,,,,,,,,,,,,,,,,,,,,,,,,,,,,,,,,,,,,,,,,,,,,,,,,,,,,,,,,,,,,,,,,,,,,
,,,,,,60703c1f8af049d40a5df5f3,62c539a47f81ed87f953c7c7,2022-07-06_09h28.51.524,Colour_Asymmetry_Pilot,2022.1.3,Win32,59.88741167,62c50e9c1127f2cd403a315f,0,85,85,63,1,fourthree,,,,,,,,,,,,,,,,,,,,,,,,,,,,,,,,,,,,,,,,,,,,,,,,,,,,,,,,,,,,,,,,,,,,,,,,,,,,,,,,,,,,,,,,,,,,,,,,,,,,,,,,,,,,,,,,,,,,,,,,,,,,,,,,,,,,,,,,,,,,,,,,,,,,,,,,,,,,,
,,,,,,60703c1f8af049d40a5df5f3,62c539a47f81ed87f953c7c7,2022-07-06_09h28.51.524,Colour_Asymmetry_Pilot,2022.1.3,Win32,59.88741167,62c50e9c1127f2cd403a315f,0,86,86,92,1,threeone,,,,,,,,,,,,,,,,,,,,,,,,,,,,,,,,,,,,,,,,,,,,,,,,,,,,,,,,,,,,,,,,,,,,,,,,,,,,,,,,,,,,,,,,,,,,,,,,,,,,,,,,,,,,,,,,,,,,,,,,,,,,,,,,,,,,,,,,,,,,,,,,,,,,,,,,,,,,,
,,,,,,60703c1f8af049d40a5df5f3,62c539a47f81ed87f953c7c7,2022-07-06_09h28.51.524,Colour_Asymmetry_Pilot,2022.1.3,Win32,59.88741167,62c50e9c1127f2cd403a315f,0,87,87,146,1,twoone,,,,,,,,,,,,,,,,,,,,,,,,,,,,,,,,,,,,,,,,,,,,,,,,,,,,,,,,,,,,,,,,,,,,,,,,,,,,,,,,,,,,,,,,,,,,,,,,,,,,,,,,,,,,,,,,,,,,,,,,,,,,,,,,,,,,,,,,,,,,,,,,,,,,,,,,,,,,,
,,,,,,60703c1f8af049d40a5df5f3,62c539a47f81ed87f953c7c7,2022-07-06_09h28.51.524,Colour_Asymmetry_Pilot,2022.1.3,Win32,59.88741167,62c50e9c1127f2cd403a315f,0,88,88,43,1,twofour,,,,,,,,,,,,,,,,,,,,,,,,,,,,,,,,,,,,,,,,,,,,,,,,,,,,,,,,,,,,,,,,,,,,,,,,,,,,,,,,,,,,,,,,,,,,,,,,,,,,,,,,,,,,,,,,,,,,,,,,,,,,,,,,,,,,,,,,,,,,,,,,,,,,,,,,,,,,,
,,,,,,60703c1f8af049d40a5df5f3,62c539a47f81ed87f953c7c7,2022-07-06_09h28.51.524,Colour_Asymmetry_Pilot,2022.1.3,Win32,59.88741167,62c50e9c1127f2cd403a315f,0,89,89,91,1,twofour,,,,,,,,,,,,,,,,,,,,,,,,,,,,,,,,,,,,,,,,,,,,,,,,,,,,,,,,,,,,,,,,,,,,,,,,,,,,,,,,,,,,,,,,,,,,,,,,,,,,,,,,,,,,,,,,,,,,,,,,,,,,,,,,,,,,,,,,,,,,,,,,,,,,,,,,,,,,,
,,,,,,60703c1f8af049d40a5df5f3,62c539a47f81ed87f953c7c7,2022-07-06_09h28.51.524,Colour_Asymmetry_Pilot,2022.1.3,Win32,59.88741167,62c50e9c1127f2cd403a315f,0,90,90,58,1,twoone,,,,,,,,,,,,,,,,,,,,,,,,,,,,,,,,,,,,,,,,,,,,,,,,,,,,,,,,,,,,,,,,,,,,,,,,,,,,,,,,,,,,,,,,,,,,,,,,,,,,,,,,,,,,,,,,,,,,,,,,,,,,,,,,,,,,,,,,,,,,,,,,,,,,,,,,,,,,,
,,,,,,60703c1f8af049d40a5df5f3,62c539a47f81ed87f953c7c7,2022-07-06_09h28.51.524,Colour_Asymmetry_Pilot,2022.1.3,Win32,59.88741167,62c50e9c1127f2cd403a315f,0,91,91,22,1,fourtwo,,,,,,,,,,,,,,,,,,,,,,,,,,,,,,,,,,,,,,,,,,,,,,,,,,,,,,,,,,,,,,,,,,,,,,,,,,,,,,,,,,,,,,,,,,,,,,,,,,,,,,,,,,,,,,,,,,,,,,,,,,,,,,,,,,,,,,,,,,,,,,,,,,,,,,,,,,,,,
,,,,,,60703c1f8af049d40a5df5f3,62c539a47f81ed87f953c7c7,2022-07-06_09h28.51.524,Colour_Asymmetry_Pilot,2022.1.3,Win32,59.88741167,62c50e9c1127f2cd403a315f,0,92,92,18,1,twoone,,,,,,,,,,,,,,,,,,,,,,,,,,,,,,,,,,,,,,,,,,,,,,,,,,,,,,,,,,,,,,,,,,,,,,,,,,,,,,,,,,,,,,,,,,,,,,,,,,,,,,,,,,,,,,,,,,,,,,,,,,,,,,,,,,,,,,,,,,,,,,,,,,,,,,,,,,,,,
,,,,,,60703c1f8af049d40a5df5f3,62c539a47f81ed87f953c7c7,2022-07-06_09h28.51.524,Colour_Asymmetry_Pilot,2022.1.3,Win32,59.88741167,62c50e9c1127f2cd403a315f,0,93,93,52,1,threeone,,,,,,,,,,,,,,,,,,,,,,,,,,,,,,,,,,,,,,,,,,,,,,,,,,,,,,,,,,,,,,,,,,,,,,,,,,,,,,,,,,,,,,,,,,,,,,,,,,,,,,,,,,,,,,,,,,,,,,,,,,,,,,,,,,,,,,,,,,,,,,,,,,,,,,,,,,,,,
,,,,,,60703c1f8af049d40a5df5f3,62c539a47f81ed87f953c7c7,2022-07-06_09h28.51.524,Colour_Asymmetry_Pilot,2022.1.3,Win32,59.88741167,62c50e9c1127f2cd403a315f,0,94,94,128,1,onetwo,,,,,,,,,,,,,,,,,,,,,,,,,,,,,,,,,,,,,,,,,,,,,,,,,,,,,,,,,,,,,,,,,,,,,,,,,,,,,,,,,,,,,,,,,,,,,,,,,,,,,,,,,,,,,,,,,,,,,,,,,,,,,,,,,,,,,,,,,,,,,,,,,,,,,,,,,,,,,
,,,,,,60703c1f8af049d40a5df5f3,62c539a47f81ed87f953c7c7,2022-07-06_09h28.51.524,Colour_Asymmetry_Pilot,2022.1.3,Win32,59.88741167,62c50e9c1127f2cd403a315f,0,95,95,10,1,twoone,,,,,,,,,,,,,,,,,,,,,,,,,,,,,,,,,,,,,,,,,,,,,,,,,,,,,,,,,,,,,,,,,,,,,,,,,,,,,,,,,,,,,,,,,,,,,,,,,,,,,,,,,,,,,,,,,,,,,,,,,,,,,,,,,,,,,,,,,,,,,,,,,,,,,,,,,,,,,
,,,,,,60703c1f8af049d40a5df5f3,62c539a47f81ed87f953c7c7,2022-07-06_09h28.51.524,Colour_Asymmetry_Pilot,2022.1.3,Win32,59.88741167,62c50e9c1127f2cd403a315f,0,96,96,36,1,threeone,,,,,,,,,,,,,,,,,,,,,,,,,,,,,,,,,,,,,,,,,,,,,,,,,,,,,,,,,,,,,,,,,,,,,,,,,,,,,,,,,,,,,,,,,,,,,,,,,,,,,,,,,,,,,,,,,,,,,,,,,,,,,,,,,,,,,,,,,,,,,,,,,,,,,,,,,,,,,
,,,,,,60703c1f8af049d40a5df5f3,62c539a47f81ed87f953c7c7,2022-07-06_09h28.51.524,Colour_Asymmetry_Pilot,2022.1.3,Win32,59.88741167,62c50e9c1127f2cd403a315f,0,97,97,158,1,fourtwo,,,,,,,,,,,,,,,,,,,,,,,,,,,,,,,,,,,,,,,,,,,,,,,,,,,,,,,,,,,,,,,,,,,,,,,,,,,,,,,,,,,,,,,,,,,,,,,,,,,,,,,,,,,,,,,,,,,,,,,,,,,,,,,,,,,,,,,,,,,,,,,,,,,,,,,,,,,,,
,,,,,,60703c1f8af049d40a5df5f3,62c539a47f81ed87f953c7c7,2022-07-06_09h28.51.524,Colour_Asymmetry_Pilot,2022.1.3,Win32,59.88741167,62c50e9c1127f2cd403a315f,0,98,98,119,1,fourthree,,,,,,,,,,,,,,,,,,,,,,,,,,,,,,,,,,,,,,,,,,,,,,,,,,,,,,,,,,,,,,,,,,,,,,,,,,,,,,,,,,,,,,,,,,,,,,,,,,,,,,,,,,,,,,,,,,,,,,,,,,,,,,,,,,,,,,,,,,,,,,,,,,,,,,,,,,,,,
,,,,,,60703c1f8af049d40a5df5f3,62c539a47f81ed87f953c7c7,2022-07-06_09h28.51.524,Colour_Asymmetry_Pilot,2022.1.3,Win32,59.88741167,62c50e9c1127f2cd403a315f,0,99,99,124,1,threeone,,,,,,,,,,,,,,,,,,,,,,,,,,,,,,,,,,,,,,,,,,,,,,,,,,,,,,,,,,,,,,,,,,,,,,,,,,,,,,,,,,,,,,,,,,,,,,,,,,,,,,,,,,,,,,,,,,,,,,,,,,,,,,,,,,,,,,,,,,,,,,,,,,,,,,,,,,,,,
,,,,,,60703c1f8af049d40a5df5f3,62c539a47f81ed87f953c7c7,2022-07-06_09h28.51.524,Colour_Asymmetry_Pilot,2022.1.3,Win32,59.88741167,62c50e9c1127f2cd403a315f,0,100,100,113,1,onethree,,,,,,,,,,,,,,,,,,,,,,,,,,,,,,,,,,,,,,,,,,,,,,,,,,,,,,,,,,,,,,,,,,,,,,,,,,,,,,,,,,,,,,,,,,,,,,,,,,,,,,,,,,,,,,,,,,,,,,,,,,,,,,,,,,,,,,,,,,,,,,,,,,,,,,,,,,,,,
,,,,,,60703c1f8af049d40a5df5f3,62c539a47f81ed87f953c7c7,2022-07-06_09h28.51.524,Colour_Asymmetry_Pilot,2022.1.3,Win32,59.88741167,62c50e9c1127f2cd403a315f,0,101,101,74,1,twoone,,,,,,,,,,,,,,,,,,,,,,,,,,,,,,,,,,,,,,,,,,,,,,,,,,,,,,,,,,,,,,,,,,,,,,,,,,,,,,,,,,,,,,,,,,,,,,,,,,,,,,,,,,,,,,,,,,,,,,,,,,,,,,,,,,,,,,,,,,,,,,,,,,,,,,,,,,,,,
,,,,,,60703c1f8af049d40a5df5f3,62c539a47f81ed87f953c7c7,2022-07-06_09h28.51.524,Colour_Asymmetry_Pilot,2022.1.3,Win32,59.88741167,62c50e9c1127f2cd403a315f,0,102,102,161,1,onethree,,,,,,,,,,,,,,,,,,,,,,,,,,,,,,,,,,,,,,,,,,,,,,,,,,,,,,,,,,,,,,,,,,,,,,,,,,,,,,,,,,,,,,,,,,,,,,,,,,,,,,,,,,,,,,,,,,,,,,,,,,,,,,,,,,,,,,,,,,,,,,,,,,,,,,,,,,,,,
,,,,,,60703c1f8af049d40a5df5f3,62c539a47f81ed87f953c7c7,2022-07-06_09h28.51.524,Colour_Asymmetry_Pilot,2022.1.3,Win32,59.88741167,62c50e9c1127f2cd403a315f,0,103,103,16,1,onetwo,,,,,,,,,,,,,,,,,,,,,,,,,,,,,,,,,,,,,,,,,,,,,,,,,,,,,,,,,,,,,,,,,,,,,,,,,,,,,,,,,,,,,,,,,,,,,,,,,,,,,,,,,,,,,,,,,,,,,,,,,,,,,,,,,,,,,,,,,,,,,,,,,,,,,,,,,,,,,
,,,,,,60703c1f8af049d40a5df5f3,62c539a47f81ed87f953c7c7,2022-07-06_09h28.51.524,Colour_Asymmetry_Pilot,2022.1.3,Win32,59.88741167,62c50e9c1127f2cd403a315f,0,104,104,121,1,onethree,,,,,,,,,,,,,,,,,,,,,,,,,,,,,,,,,,,,,,,,,,,,,,,,,,,,,,,,,,,,,,,,,,,,,,,,,,,,,,,,,,,,,,,,,,,,,,,,,,,,,,,,,,,,,,,,,,,,,,,,,,,,,,,,,,,,,,,,,,,,,,,,,,,,,,,,,,,,,
,,,,,,60703c1f8af049d40a5df5f3,62c539a47f81ed87f953c7c7,2022-07-06_09h28.51.524,Colour_Asymmetry_Pilot,2022.1.3,Win32,59.88741167,62c50e9c1127f2cd403a315f,0,105,105,89,1,onethree,,,,,,,,,,,,,,,,,,,,,,,,,,,,,,,,,,,,,,,,,,,,,,,,,,,,,,,,,,,,,,,,,,,,,,,,,,,,,,,,,,,,,,,,,,,,,,,,,,,,,,,,,,,,,,,,,,,,,,,,,,,,,,,,,,,,,,,,,,,,,,,,,,,,,,,,,,,,,
,,,,,,60703c1f8af049d40a5df5f3,62c539a47f81ed87f953c7c7,2022-07-06_09h28.51.524,Colour_Asymmetry_Pilot,2022.1.3,Win32,59.88741167,62c50e9c1127f2cd403a315f,0,106,106,159,1,fourthree,,,,,,,,,,,,,,,,,,,,,,,,,,,,,,,,,,,,,,,,,,,,,,,,,,,,,,,,,,,,,,,,,,,,,,,,,,,,,,,,,,,,,,,,,,,,,,,,,,,,,,,,,,,,,,,,,,,,,,,,,,,,,,,,,,,,,,,,,,,,,,,,,,,,,,,,,,,,,
,,,,,,60703c1f8af049d40a5df5f3,62c539a47f81ed87f953c7c7,2022-07-06_09h28.51.524,Colour_Asymmetry_Pilot,2022.1.3,Win32,59.88741167,62c50e9c1127f2cd403a315f,0,107,107,120,1,onetwo,,,,,,,,,,,,,,,,,,,,,,,,,,,,,,,,,,,,,,,,,,,,,,,,,,,,,,,,,,,,,,,,,,,,,,,,,,,,,,,,,,,,,,,,,,,,,,,,,,,,,,,,,,,,,,,,,,,,,,,,,,,,,,,,,,,,,,,,,,,,,,,,,,,,,,,,,,,,,
,,,,,,60703c1f8af049d40a5df5f3,62c539a47f81ed87f953c7c7,2022-07-06_09h28.51.524,Colour_Asymmetry_Pilot,2022.1.3,Win32,59.88741167,62c50e9c1127f2cd403a315f,0,108,108,114,1,twoone,,,,,,,,,,,,,,,,,,,,,,,,,,,,,,,,,,,,,,,,,,,,,,,,,,,,,,,,,,,,,,,,,,,,,,,,,,,,,,,,,,,,,,,,,,,,,,,,,,,,,,,,,,,,,,,,,,,,,,,,,,,,,,,,,,,,,,,,,,,,,,,,,,,,,,,,,,,,,
,,,,,,60703c1f8af049d40a5df5f3,62c539a47f81ed87f953c7c7,2022-07-06_09h28.51.524,Colour_Asymmetry_Pilot,2022.1.3,Win32,59.88741167,62c50e9c1127f2cd403a315f,0,109,109,96,1,onetwo,,,,,,,,,,,,,,,,,,,,,,,,,,,,,,,,,,,,,,,,,,,,,,,,,,,,,,,,,,,,,,,,,,,,,,,,,,,,,,,,,,,,,,,,,,,,,,,,,,,,,,,,,,,,,,,,,,,,,,,,,,,,,,,,,,,,,,,,,,,,,,,,,,,,,,,,,,,,,
,,,,,,60703c1f8af049d40a5df5f3,62c539a47f81ed87f953c7c7,2022-07-06_09h28.51.524,Colour_Asymmetry_Pilot,2022.1.3,Win32,59.88741167,62c50e9c1127f2cd403a315f,0,110,110,31,1,fourthree,,,,,,,,,,,,,,,,,,,,,,,,,,,,,,,,,,,,,,,,,,,,,,,,,,,,,,,,,,,,,,,,,,,,,,,,,,,,,,,,,,,,,,,,,,,,,,,,,,,,,,,,,,,,,,,,,,,,,,,,,,,,,,,,,,,,,,,,,,,,,,,,,,,,,,,,,,,,,
,,,,,,60703c1f8af049d40a5df5f3,62c539a47f81ed87f953c7c7,2022-07-06_09h28.51.524,Colour_Asymmetry_Pilot,2022.1.3,Win32,59.88741167,62c50e9c1127f2cd403a315f,0,111,111,33,1,onethree,,,,,,,,,,,,,,,,,,,,,,,,,,,,,,,,,,,,,,,,,,,,,,,,,,,,,,,,,,,,,,,,,,,,,,,,,,,,,,,,,,,,,,,,,,,,,,,,,,,,,,,,,,,,,,,,,,,,,,,,,,,,,,,,,,,,,,,,,,,,,,,,,,,,,,,,,,,,,
,,,,,,60703c1f8af049d40a5df5f3,62c539a47f81ed87f953c7c7,2022-07-06_09h28.51.524,Colour_Asymmetry_Pilot,2022.1.3,Win32,59.88741167,62c50e9c1127f2cd403a315f,0,112,112,37,1,threefour,,,,,,,,,,,,,,,,,,,,,,,,,,,,,,,,,,,,,,,,,,,,,,,,,,,,,,,,,,,,,,,,,,,,,,,,,,,,,,,,,,,,,,,,,,,,,,,,,,,,,,,,,,,,,,,,,,,,,,,,,,,,,,,,,,,,,,,,,,,,,,,,,,,,,,,,,,,,,
,,,,,,60703c1f8af049d40a5df5f3,62c539a47f81ed87f953c7c7,2022-07-06_09h28.51.524,Colour_Asymmetry_Pilot,2022.1.3,Win32,59.88741167,62c50e9c1127f2cd403a315f,0,113,113,99,1,twofour,,,,,,,,,,,,,,,,,,,,,,,,,,,,,,,,,,,,,,,,,,,,,,,,,,,,,,,,,,,,,,,,,,,,,,,,,,,,,,,,,,,,,,,,,,,,,,,,,,,,,,,,,,,,,,,,,,,,,,,,,,,,,,,,,,,,,,,,,,,,,,,,,,,,,,,,,,,,,
,,,,,,60703c1f8af049d40a5df5f3,62c539a47f81ed87f953c7c7,2022-07-06_09h28.51.524,Colour_Asymmetry_Pilot,2022.1.3,Win32,59.88741167,62c50e9c1127f2cd403a315f,0,114,114,82,1,twoone,,,,,,,,,,,,,,,,,,,,,,,,,,,,,,,,,,,,,,,,,,,,,,,,,,,,,,,,,,,,,,,,,,,,,,,,,,,,,,,,,,,,,,,,,,,,,,,,,,,,,,,,,,,,,,,,,,,,,,,,,,,,,,,,,,,,,,,,,,,,,,,,,,,,,,,,,,,,,
,,,,,,60703c1f8af049d40a5df5f3,62c539a47f81ed87f953c7c7,2022-07-06_09h28.51.524,Colour_Asymmetry_Pilot,2022.1.3,Win32,59.88741167,62c50e9c1127f2cd403a315f,0,115,115,98,1,twoone,,,,,,,,,,,,,,,,,,,,,,,,,,,,,,,,,,,,,,,,,,,,,,,,,,,,,,,,,,,,,,,,,,,,,,,,,,,,,,,,,,,,,,,,,,,,,,,,,,,,,,,,,,,,,,,,,,,,,,,,,,,,,,,,,,,,,,,,,,,,,,,,,,,,,,,,,,,,,
,,,,,,60703c1f8af049d40a5df5f3,62c539a47f81ed87f953c7c7,2022-07-06_09h28.51.524,Colour_Asymmetry_Pilot,2022.1.3,Win32,59.88741167,62c50e9c1127f2cd403a315f,0,116,116,115,1,twofour,,,,,,,,,,,,,,,,,,,,,,,,,,,,,,,,,,,,,,,,,,,,,,,,,,,,,,,,,,,,,,,,,,,,,,,,,,,,,,,,,,,,,,,,,,,,,,,,,,,,,,,,,,,,,,,,,,,,,,,,,,,,,,,,,,,,,,,,,,,,,,,,,,,,,,,,,,,,,
,,,,,,60703c1f8af049d40a5df5f3,62c539a47f81ed87f953c7c7,2022-07-06_09h28.51.524,Colour_Asymmetry_Pilot,2022.1.3,Win32,59.88741167,62c50e9c1127f2cd403a315f,0,117,117,153,1,onethree,,,,,,,,,,,,,,,,,,,,,,,,,,,,,,,,,,,,,,,,,,,,,,,,,,,,,,,,,,,,,,,,,,,,,,,,,,,,,,,,,,,,,,,,,,,,,,,,,,,,,,,,,,,,,,,,,,,,,,,,,,,,,,,,,,,,,,,,,,,,,,,,,,,,,,,,,,,,,
,,,,,,60703c1f8af049d40a5df5f3,62c539a47f81ed87f953c7c7,2022-07-06_09h28.51.524,Colour_Asymmetry_Pilot,2022.1.3,Win32,59.88741167,62c50e9c1127f2cd403a315f,0,118,118,156,1,threeone,,,,,,,,,,,,,,,,,,,,,,,,,,,,,,,,,,,,,,,,,,,,,,,,,,,,,,,,,,,,,,,,,,,,,,,,,,,,,,,,,,,,,,,,,,,,,,,,,,,,,,,,,,,,,,,,,,,,,,,,,,,,,,,,,,,,,,,,,,,,,,,,,,,,,,,,,,,,,
,,,,,,60703c1f8af049d40a5df5f3,62c539a47f81ed87f953c7c7,2022-07-06_09h28.51.524,Colour_Asymmetry_Pilot,2022.1.3,Win32,59.88741167,62c50e9c1127f2cd403a315f,0,119,119,67,1,twofour,,,,,,,,,,,,,,,,,,,,,,,,,,,,,,,,,,,,,,,,,,,,,,,,,,,,,,,,,,,,,,,,,,,,,,,,,,,,,,,,,,,,,,,,,,,,,,,,,,,,,,,,,,,,,,,,,,,,,,,,,,,,,,,,,,,,,,,,,,,,,,,,,,,,,,,,,,,,,
,,,,,,60703c1f8af049d40a5df5f3,62c539a47f81ed87f953c7c7,2022-07-06_09h28.51.524,Colour_Asymmetry_Pilot,2022.1.3,Win32,59.88741167,62c50e9c1127f2cd403a315f,0,120,120,97,1,onethree,,,,,,,,,,,,,,,,,,,,,,,,,,,,,,,,,,,,,,,,,,,,,,,,,,,,,,,,,,,,,,,,,,,,,,,,,,,,,,,,,,,,,,,,,,,,,,,,,,,,,,,,,,,,,,,,,,,,,,,,,,,,,,,,,,,,,,,,,,,,,,,,,,,,,,,,,,,,,
,,,,,,60703c1f8af049d40a5df5f3,62c539a47f81ed87f953c7c7,2022-07-06_09h28.51.524,Colour_Asymmetry_Pilot,2022.1.3,Win32,59.88741167,62c50e9c1127f2cd403a315f,0,121,121,57,1,onethree,,,,,,,,,,,,,,,,,,,,,,,,,,,,,,,,,,,,,,,,,,,,,,,,,,,,,,,,,,,,,,,,,,,,,,,,,,,,,,,,,,,,,,,,,,,,,,,,,,,,,,,,,,,,,,,,,,,,,,,,,,,,,,,,,,,,,,,,,,,,,,,,,,,,,,,,,,,,,
,,,,,,60703c1f8af049d40a5df5f3,62c539a47f81ed87f953c7c7,2022-07-06_09h28.51.524,Colour_Asymmetry_Pilot,2022.1.3,Win32,59.88741167,62c50e9c1127f2cd403a315f,0,122,122,50,1,twoone,,,,,,,,,,,,,,,,,,,,,,,,,,,,,,,,,,,,,,,,,,,,,,,,,,,,,,,,,,,,,,,,,,,,,,,,,,,,,,,,,,,,,,,,,,,,,,,,,,,,,,,,,,,,,,,,,,,,,,,,,,,,,,,,,,,,,,,,,,,,,,,,,,,,,,,,,,,,,
,,,,,,60703c1f8af049d40a5df5f3,62c539a47f81ed87f953c7c7,2022-07-06_09h28.51.524,Colour_Asymmetry_Pilot,2022.1.3,Win32,59.88741167,62c50e9c1127f2cd403a315f,0,123,123,130,1,twoone,,,,,,,,,,,,,,,,,,,,,,,,,,,,,,,,,,,,,,,,,,,,,,,,,,,,,,,,,,,,,,,,,,,,,,,,,,,,,,,,,,,,,,,,,,,,,,,,,,,,,,,,,,,,,,,,,,,,,,,,,,,,,,,,,,,,,,,,,,,,,,,,,,,,,,,,,,,,,
,,,,,,60703c1f8af049d40a5df5f3,62c539a47f81ed87f953c7c7,2022-07-06_09h28.51.524,Colour_Asymmetry_Pilot,2022.1.3,Win32,59.88741167,62c50e9c1127f2cd403a315f,0,124,124,152,1,onetwo,,,,,,,,,,,,,,,,,,,,,,,,,,,,,,,,,,,,,,,,,,,,,,,,,,,,,,,,,,,,,,,,,,,,,,,,,,,,,,,,,,,,,,,,,,,,,,,,,,,,,,,,,,,,,,,,,,,,,,,,,,,,,,,,,,,,,,,,,,,,,,,,,,,,,,,,,,,,,
,,,,,,60703c1f8af049d40a5df5f3,62c539a47f81ed87f953c7c7,2022-07-06_09h28.51.524,Colour_Asymmetry_Pilot,2022.1.3,Win32,59.88741167,62c50e9c1127f2cd403a315f,0,125,125,73,1,onethree,,,,,,,,,,,,,,,,,,,,,,,,,,,,,,,,,,,,,,,,,,,,,,,,,,,,,,,,,,,,,,,,,,,,,,,,,,,,,,,,,,,,,,,,,,,,,,,,,,,,,,,,,,,,,,,,,,,,,,,,,,,,,,,,,,,,,,,,,,,,,,,,,,,,,,,,,,,,,
,,,,,,60703c1f8af049d40a5df5f3,62c539a47f81ed87f953c7c7,2022-07-06_09h28.51.524,Colour_Asymmetry_Pilot,2022.1.3,Win32,59.88741167,62c50e9c1127f2cd403a315f,0,126,126,38,1,fourtwo,,,,,,,,,,,,,,,,,,,,,,,,,,,,,,,,,,,,,,,,,,,,,,,,,,,,,,,,,,,,,,,,,,,,,,,,,,,,,,,,,,,,,,,,,,,,,,,,,,,,,,,,,,,,,,,,,,,,,,,,,,,,,,,,,,,,,,,,,,,,,,,,,,,,,,,,,,,,,
,,,,,,60703c1f8af049d40a5df5f3,62c539a47f81ed87f953c7c7,2022-07-06_09h28.51.524,Colour_Asymmetry_Pilot,2022.1.3,Win32,59.88741167,62c50e9c1127f2cd403a315f,0,127,127,59,1,twofour,,,,,,,,,,,,,,,,,,,,,,,,,,,,,,,,,,,,,,,,,,,,,,,,,,,,,,,,,,,,,,,,,,,,,,,,,,,,,,,,,,,,,,,,,,,,,,,,,,,,,,,,,,,,,,,,,,,,,,,,,,,,,,,,,,,,,,,,,,,,,,,,,,,,,,,,,,,,,
,,,,,,60703c1f8af049d40a5df5f3,62c539a47f81ed87f953c7c7,2022-07-06_09h28.51.524,Colour_Asymmetry_Pilot,2022.1.3,Win32,59.88741167,62c50e9c1127f2cd403a315f,0,128,128,66,1,twoone,,,,,,,,,,,,,,,,,,,,,,,,,,,,,,,,,,,,,,,,,,,,,,,,,,,,,,,,,,,,,,,,,,,,,,,,,,,,,,,,,,,,,,,,,,,,,,,,,,,,,,,,,,,,,,,,,,,,,,,,,,,,,,,,,,,,,,,,,,,,,,,,,,,,,,,,,,,,,
,,,,,,60703c1f8af049d40a5df5f3,62c539a47f81ed87f953c7c7,2022-07-06_09h28.51.524,Colour_Asymmetry_Pilot,2022.1.3,Win32,59.88741167,62c50e9c1127f2cd403a315f,0,129,129,135,1,fourthree,,,,,,,,,,,,,,,,,,,,,,,,,,,,,,,,,,,,,,,,,,,,,,,,,,,,,,,,,,,,,,,,,,,,,,,,,,,,,,,,,,,,,,,,,,,,,,,,,,,,,,,,,,,,,,,,,,,,,,,,,,,,,,,,,,,,,,,,,,,,,,,,,,,,,,,,,,,,,
,,,,,,60703c1f8af049d40a5df5f3,62c539a47f81ed87f953c7c7,2022-07-06_09h28.51.524,Colour_Asymmetry_Pilot,2022.1.3,Win32,59.88741167,62c50e9c1127f2cd403a315f,0,130,130,29,1,threefour,,,,,,,,,,,,,,,,,,,,,,,,,,,,,,,,,,,,,,,,,,,,,,,,,,,,,,,,,,,,,,,,,,,,,,,,,,,,,,,,,,,,,,,,,,,,,,,,,,,,,,,,,,,,,,,,,,,,,,,,,,,,,,,,,,,,,,,,,,,,,,,,,,,,,,,,,,,,,
,,,,,,60703c1f8af049d40a5df5f3,62c539a47f81ed87f953c7c7,2022-07-06_09h28.51.524,Colour_Asymmetry_Pilot,2022.1.3,Win32,59.88741167,62c50e9c1127f2cd403a315f,0,131,131,51,1,twofour,,,,,,,,,,,,,,,,,,,,,,,,,,,,,,,,,,,,,,,,,,,,,,,,,,,,,,,,,,,,,,,,,,,,,,,,,,,,,,,,,,,,,,,,,,,,,,,,,,,,,,,,,,,,,,,,,,,,,,,,,,,,,,,,,,,,,,,,,,,,,,,,,,,,,,,,,,,,,
,,,,,,60703c1f8af049d40a5df5f3,62c539a47f81ed87f953c7c7,2022-07-06_09h28.51.524,Colour_Asymmetry_Pilot,2022.1.3,Win32,59.88741167,62c50e9c1127f2cd403a315f,0,132,132,112,1,onetwo,,,,,,,,,,,,,,,,,,,,,,,,,,,,,,,,,,,,,,,,,,,,,,,,,,,,,,,,,,,,,,,,,,,,,,,,,,,,,,,,,,,,,,,,,,,,,,,,,,,,,,,,,,,,,,,,,,,,,,,,,,,,,,,,,,,,,,,,,,,,,,,,,,,,,,,,,,,,,
,,,,,,60703c1f8af049d40a5df5f3,62c539a47f81ed87f953c7c7,2022-07-06_09h28.51.524,Colour_Asymmetry_Pilot,2022.1.3,Win32,59.88741167,62c50e9c1127f2cd403a315f,0,133,133,85,1,threefour,,,,,,,,,,,,,,,,,,,,,,,,,,,,,,,,,,,,,,,,,,,,,,,,,,,,,,,,,,,,,,,,,,,,,,,,,,,,,,,,,,,,,,,,,,,,,,,,,,,,,,,,,,,,,,,,,,,,,,,,,,,,,,,,,,,,,,,,,,,,,,,,,,,,,,,,,,,,,
,,,,,,60703c1f8af049d40a5df5f3,62c539a47f81ed87f953c7c7,2022-07-06_09h28.51.524,Colour_Asymmetry_Pilot,2022.1.3,Win32,59.88741167,62c50e9c1127f2cd403a315f,0,134,134,81,1,onethree,,,,,,,,,,,,,,,,,,,,,,,,,,,,,,,,,,,,,,,,,,,,,,,,,,,,,,,,,,,,,,,,,,,,,,,,,,,,,,,,,,,,,,,,,,,,,,,,,,,,,,,,,,,,,,,,,,,,,,,,,,,,,,,,,,,,,,,,,,,,,,,,,,,,,,,,,,,,,
,,,,,,60703c1f8af049d40a5df5f3,62c539a47f81ed87f953c7c7,2022-07-06_09h28.51.524,Colour_Asymmetry_Pilot,2022.1.3,Win32,59.88741167,62c50e9c1127f2cd403a315f,0,135,135,108,1,threeone,,,,,,,,,,,,,,,,,,,,,,,,,,,,,,,,,,,,,,,,,,,,,,,,,,,,,,,,,,,,,,,,,,,,,,,,,,,,,,,,,,,,,,,,,,,,,,,,,,,,,,,,,,,,,,,,,,,,,,,,,,,,,,,,,,,,,,,,,,,,,,,,,,,,,,,,,,,,,
,,,,,,60703c1f8af049d40a5df5f3,62c539a47f81ed87f953c7c7,2022-07-06_09h28.51.524,Colour_Asymmetry_Pilot,2022.1.3,Win32,59.88741167,62c50e9c1127f2cd403a315f,0,136,136,60,1,threeone,,,,,,,,,,,,,,,,,,,,,,,,,,,,,,,,,,,,,,,,,,,,,,,,,,,,,,,,,,,,,,,,,,,,,,,,,,,,,,,,,,,,,,,,,,,,,,,,,,,,,,,,,,,,,,,,,,,,,,,,,,,,,,,,,,,,,,,,,,,,,,,,,,,,,,,,,,,,,
,,,,,,60703c1f8af049d40a5df5f3,62c539a47f81ed87f953c7c7,2022-07-06_09h28.51.524,Colour_Asymmetry_Pilot,2022.1.3,Win32,59.88741167,62c50e9c1127f2cd403a315f,0,137,137,133,1,threefour,,,,,,,,,,,,,,,,,,,,,,,,,,,,,,,,,,,,,,,,,,,,,,,,,,,,,,,,,,,,,,,,,,,,,,,,,,,,,,,,,,,,,,,,,,,,,,,,,,,,,,,,,,,,,,,,,,,,,,,,,,,,,,,,,,,,,,,,,,,,,,,,,,,,,,,,,,,,,
,,,,,,60703c1f8af049d40a5df5f3,62c539a47f81ed87f953c7c7,2022-07-06_09h28.51.524,Colour_Asymmetry_Pilot,2022.1.3,Win32,59.88741167,62c50e9c1127f2cd403a315f,0,138,138,32,1,onetwo,,,,,,,,,,,,,,,,,,,,,,,,,,,,,,,,,,,,,,,,,,,,,,,,,,,,,,,,,,,,,,,,,,,,,,,,,,,,,,,,,,,,,,,,,,,,,,,,,,,,,,,,,,,,,,,,,,,,,,,,,,,,,,,,,,,,,,,,,,,,,,,,,,,,,,,,,,,,,
,,,,,,60703c1f8af049d40a5df5f3,62c539a47f81ed87f953c7c7,2022-07-06_09h28.51.524,Colour_Asymmetry_Pilot,2022.1.3,Win32,59.88741167,62c50e9c1127f2cd403a315f,0,139,139,61,1,threefour,,,,,,,,,,,,,,,,,,,,,,,,,,,,,,,,,,,,,,,,,,,,,,,,,,,,,,,,,,,,,,,,,,,,,,,,,,,,,,,,,,,,,,,,,,,,,,,,,,,,,,,,,,,,,,,,,,,,,,,,,,,,,,,,,,,,,,,,,,,,,,,,,,,,,,,,,,,,,
,,,,,,60703c1f8af049d40a5df5f3,62c539a47f81ed87f953c7c7,2022-07-06_09h28.51.524,Colour_Asymmetry_Pilot,2022.1.3,Win32,59.88741167,62c50e9c1127f2cd403a315f,0,140,140,41,1,onethree,,,,,,,,,,,,,,,,,,,,,,,,,,,,,,,,,,,,,,,,,,,,,,,,,,,,,,,,,,,,,,,,,,,,,,,,,,,,,,,,,,,,,,,,,,,,,,,,,,,,,,,,,,,,,,,,,,,,,,,,,,,,,,,,,,,,,,,,,,,,,,,,,,,,,,,,,,,,,
,,,,,,60703c1f8af049d40a5df5f3,62c539a47f81ed87f953c7c7,2022-07-06_09h28.51.524,Colour_Asymmetry_Pilot,2022.1.3,Win32,59.88741167,62c50e9c1127f2cd403a315f,0,141,141,144,1,onetwo,,,,,,,,,,,,,,,,,,,,,,,,,,,,,,,,,,,,,,,,,,,,,,,,,,,,,,,,,,,,,,,,,,,,,,,,,,,,,,,,,,,,,,,,,,,,,,,,,,,,,,,,,,,,,,,,,,,,,,,,,,,,,,,,,,,,,,,,,,,,,,,,,,,,,,,,,,,,,
,,,,,,60703c1f8af049d40a5df5f3,62c539a47f81ed87f953c7c7,2022-07-06_09h28.51.524,Colour_Asymmetry_Pilot,2022.1.3,Win32,59.88741167,62c50e9c1127f2cd403a315f,0,142,142,1,1,onethree,,,,,,,,,,,,,,,,,,,,,,,,,,,,,,,,,,,,,,,,,,,,,,,,,,,,,,,,,,,,,,,,,,,,,,,,,,,,,,,,,,,,,,,,,,,,,,,,,,,,,,,,,,,,,,,,,,,,,,,,,,,,,,,,,,,,,,,,,,,,,,,,,,,,,,,,,,,,,
,,,,,,60703c1f8af049d40a5df5f3,62c539a47f81ed87f953c7c7,2022-07-06_09h28.51.524,Colour_Asymmetry_Pilot,2022.1.3,Win32,59.88741167,62c50e9c1127f2cd403a315f,0,143,143,78,1,fourtwo,,,,,,,,,,,,,,,,,,,,,,,,,,,,,,,,,,,,,,,,,,,,,,,,,,,,,,,,,,,,,,,,,,,,,,,,,,,,,,,,,,,,,,,,,,,,,,,,,,,,,,,,,,,,,,,,,,,,,,,,,,,,,,,,,,,,,,,,,,,,,,,,,,,,,,,,,,,,,
,,,,,,60703c1f8af049d40a5df5f3,62c539a47f81ed87f953c7c7,2022-07-06_09h28.51.524,Colour_Asymmetry_Pilot,2022.1.3,Win32,59.88741167,62c50e9c1127f2cd403a315f,0,144,144,129,1,onethree,,,,,,,,,,,,,,,,,,,,,,,,,,,,,,,,,,,,,,,,,,,,,,,,,,,,,,,,,,,,,,,,,,,,,,,,,,,,,,,,,,,,,,,,,,,,,,,,,,,,,,,,,,,,,,,,,,,,,,,,,,,,,,,,,,,,,,,,,,,,,,,,,,,,,,,,,,,,,
,,,,,,60703c1f8af049d40a5df5f3,62c539a47f81ed87f953c7c7,2022-07-06_09h28.51.524,Colour_Asymmetry_Pilot,2022.1.3,Win32,59.88741167,62c50e9c1127f2cd403a315f,0,145,145,116,1,threeone,,,,,,,,,,,,,,,,,,,,,,,,,,,,,,,,,,,,,,,,,,,,,,,,,,,,,,,,,,,,,,,,,,,,,,,,,,,,,,,,,,,,,,,,,,,,,,,,,,,,,,,,,,,,,,,,,,,,,,,,,,,,,,,,,,,,,,,,,,,,,,,,,,,,,,,,,,,,,
,,,,,,60703c1f8af049d40a5df5f3,62c539a47f81ed87f953c7c7,2022-07-06_09h28.51.524,Colour_Asymmetry_Pilot,2022.1.3,Win32,59.88741167,62c50e9c1127f2cd403a315f,0,146,146,150,1,fourtwo,,,,,,,,,,,,,,,,,,,,,,,,,,,,,,,,,,,,,,,,,,,,,,,,,,,,,,,,,,,,,,,,,,,,,,,,,,,,,,,,,,,,,,,,,,,,,,,,,,,,,,,,,,,,,,,,,,,,,,,,,,,,,,,,,,,,,,,,,,,,,,,,,,,,,,,,,,,,,
,,,,,,60703c1f8af049d40a5df5f3,62c539a47f81ed87f953c7c7,2022-07-06_09h28.51.524,Colour_Asymmetry_Pilot,2022.1.3,Win32,59.88741167,62c50e9c1127f2cd403a315f,0,147,147,17,1,onethree,,,,,,,,,,,,,,,,,,,,,,,,,,,,,,,,,,,,,,,,,,,,,,,,,,,,,,,,,,,,,,,,,,,,,,,,,,,,,,,,,,,,,,,,,,,,,,,,,,,,,,,,,,,,,,,,,,,,,,,,,,,,,,,,,,,,,,,,,,,,,,,,,,,,,,,,,,,,,
,,,,,,60703c1f8af049d40a5df5f3,62c539a47f81ed87f953c7c7,2022-07-06_09h28.51.524,Colour_Asymmetry_Pilot,2022.1.3,Win32,59.88741167,62c50e9c1127f2cd403a315f,0,148,148,69,1,threefour,,,,,,,,,,,,,,,,,,,,,,,,,,,,,,,,,,,,,,,,,,,,,,,,,,,,,,,,,,,,,,,,,,,,,,,,,,,,,,,,,,,,,,,,,,,,,,,,,,,,,,,,,,,,,,,,,,,,,,,,,,,,,,,,,,,,,,,,,,,,,,,,,,,,,,,,,,,,,
,,,,,,60703c1f8af049d40a5df5f3,62c539a47f81ed87f953c7c7,2022-07-06_09h28.51.524,Colour_Asymmetry_Pilot,2022.1.3,Win32,59.88741167,62c50e9c1127f2cd403a315f,0,149,149,102,1,fourtwo,,,,,,,,,,,,,,,,,,,,,,,,,,,,,,,,,,,,,,,,,,,,,,,,,,,,,,,,,,,,,,,,,,,,,,,,,,,,,,,,,,,,,,,,,,,,,,,,,,,,,,,,,,,,,,,,,,,,,,,,,,,,,,,,,,,,,,,,,,,,,,,,,,,,,,,,,,,,,
,,,,,,60703c1f8af049d40a5df5f3,62c539a47f81ed87f953c7c7,2022-07-06_09h28.51.524,Colour_Asymmetry_Pilot,2022.1.3,Win32,59.88741167,62c50e9c1127f2cd403a315f,0,150,150,4,1,threeone,,,,,,,,,,,,,,,,,,,,,,,,,,,,,,,,,,,,,,,,,,,,,,,,,,,,,,,,,,,,,,,,,,,,,,,,,,,,,,,,,,,,,,,,,,,,,,,,,,,,,,,,,,,,,,,,,,,,,,,,,,,,,,,,,,,,,,,,,,,,,,,,,,,,,,,,,,,,,
,,,,,,60703c1f8af049d40a5df5f3,62c539a47f81ed87f953c7c7,2022-07-06_09h28.51.524,Colour_Asymmetry_Pilot,2022.1.3,Win32,59.88741167,62c50e9c1127f2cd403a315f,0,151,151,136,1,onetwo,,,,,,,,,,,,,,,,,,,,,,,,,,,,,,,,,,,,,,,,,,,,,,,,,,,,,,,,,,,,,,,,,,,,,,,,,,,,,,,,,,,,,,,,,,,,,,,,,,,,,,,,,,,,,,,,,,,,,,,,,,,,,,,,,,,,,,,,,,,,,,,,,,,,,,,,,,,,,
,,,,,,60703c1f8af049d40a5df5f3,62c539a47f81ed87f953c7c7,2022-07-06_09h28.51.524,Colour_Asymmetry_Pilot,2022.1.3,Win32,59.88741167,62c50e9c1127f2cd403a315f,0,152,152,64,1,onetwo,,,,,,,,,,,,,,,,,,,,,,,,,,,,,,,,,,,,,,,,,,,,,,,,,,,,,,,,,,,,,,,,,,,,,,,,,,,,,,,,,,,,,,,,,,,,,,,,,,,,,,,,,,,,,,,,,,,,,,,,,,,,,,,,,,,,,,,,,,,,,,,,,,,,,,,,,,,,,
,,,,,,60703c1f8af049d40a5df5f3,62c539a47f81ed87f953c7c7,2022-07-06_09h28.51.524,Colour_Asymmetry_Pilot,2022.1.3,Win32,59.88741167,62c50e9c1127f2cd403a315f,0,153,153,139,1,twofour,,,,,,,,,,,,,,,,,,,,,,,,,,,,,,,,,,,,,,,,,,,,,,,,,,,,,,,,,,,,,,,,,,,,,,,,,,,,,,,,,,,,,,,,,,,,,,,,,,,,,,,,,,,,,,,,,,,,,,,,,,,,,,,,,,,,,,,,,,,,,,,,,,,,,,,,,,,,,
,,,,,,60703c1f8af049d40a5df5f3,62c539a47f81ed87f953c7c7,2022-07-06_09h28.51.524,Colour_Asymmetry_Pilot,2022.1.3,Win32,59.88741167,62c50e9c1127f2cd403a315f,0,154,154,123,1,twofour,,,,,,,,,,,,,,,,,,,,,,,,,,,,,,,,,,,,,,,,,,,,,,,,,,,,,,,,,,,,,,,,,,,,,,,,,,,,,,,,,,,,,,,,,,,,,,,,,,,,,,,,,,,,,,,,,,,,,,,,,,,,,,,,,,,,,,,,,,,,,,,,,,,,,,,,,,,,,
,,,,,,60703c1f8af049d40a5df5f3,62c539a47f81ed87f953c7c7,2022-07-06_09h28.51.524,Colour_Asymmetry_Pilot,2022.1.3,Win32,59.88741167,62c50e9c1127f2cd403a315f,0,155,155,88,1,onetwo,,,,,,,,,,,,,,,,,,,,,,,,,,,,,,,,,,,,,,,,,,,,,,,,,,,,,,,,,,,,,,,,,,,,,,,,,,,,,,,,,,,,,,,,,,,,,,,,,,,,,,,,,,,,,,,,,,,,,,,,,,,,,,,,,,,,,,,,,,,,,,,,,,,,,,,,,,,,,
,,,,,,60703c1f8af049d40a5df5f3,62c539a47f81ed87f953c7c7,2022-07-06_09h28.51.524,Colour_Asymmetry_Pilot,2022.1.3,Win32,59.88741167,62c50e9c1127f2cd403a315f,0,156,156,42,1,twoone,,,,,,,,,,,,,,,,,,,,,,,,,,,,,,,,,,,,,,,,,,,,,,,,,,,,,,,,,,,,,,,,,,,,,,,,,,,,,,,,,,,,,,,,,,,,,,,,,,,,,,,,,,,,,,,,,,,,,,,,,,,,,,,,,,,,,,,,,,,,,,,,,,,,,,,,,,,,,
,,,,,,60703c1f8af049d40a5df5f3,62c539a47f81ed87f953c7c7,2022-07-06_09h28.51.524,Colour_Asymmetry_Pilot,2022.1.3,Win32,59.88741167,62c50e9c1127f2cd403a315f,0,157,157,117,1,threefour,,,,,,,,,,,,,,,,,,,,,,,,,,,,,,,,,,,,,,,,,,,,,,,,,,,,,,,,,,,,,,,,,,,,,,,,,,,,,,,,,,,,,,,,,,,,,,,,,,,,,,,,,,,,,,,,,,,,,,,,,,,,,,,,,,,,,,,,,,,,,,,,,,,,,,,,,,,,,
,,,,,,60703c1f8af049d40a5df5f3,62c539a47f81ed87f953c7c7,2022-07-06_09h28.51.524,Colour_Asymmetry_Pilot,2022.1.3,Win32,59.88741167,62c50e9c1127f2cd403a315f,0,158,158,132,1,threeone,,,,,,,,,,,,,,,,,,,,,,,,,,,,,,,,,,,,,,,,,,,,,,,,,,,,,,,,,,,,,,,,,,,,,,,,,,,,,,,,,,,,,,,,,,,,,,,,,,,,,,,,,,,,,,,,,,,,,,,,,,,,,,,,,,,,,,,,,,,,,,,,,,,,,,,,,,,,,
,,,,,,60703c1f8af049d40a5df5f3,62c539a47f81ed87f953c7c7,2022-07-06_09h28.51.524,Colour_Asymmetry_Pilot,2022.1.3,Win32,59.88741167,62c50e9c1127f2cd403a315f,0,159,159,76,1,threeone,,,,,,,,,,,,,,,,,,,,,,,,,,,,,,,,,,,,,,,,,,,,,,,,,,,,,,,,,,,,,,,,,,,,,,,,,,,,,,,,,,,,,,,,,,,,,,,,,,,,,,,,,,,,,,,,,,,,,,,,,,,,,,,,,,,,,,,,,,,,,,,,,,,,,,,,,,,,,
,,,,,,60703c1f8af049d40a5df5f3,62c539a47f81ed87f953c7c7,2022-07-06_09h28.51.524,Colour_Asymmetry_Pilot,2022.1.3,Win32,59.88741167,62c50e9c1127f2cd403a315f,0,160,160,84,1,threeone,,,,,,,,,,,,,,,,,,,,,,,,,,,,,,,,,,,,,,,,,,,,,,,,,,,,,,,,,,,,,,,,,,,,,,,,,,,,,,,,,,,,,,,,,,,,,,,,,,,,,,,,,,,,,,,,,,,,,,,,,,,,,,,,,,,,,,,,,,,,,,,,,,,,,,,,,,,,,
,,,,,,60703c1f8af049d40a5df5f3,62c539a47f81ed87f953c7c7,2022-07-06_09h28.51.524,Colour_Asymmetry_Pilot,2022.1.3,Win32,59.88741167,62c50e9c1127f2cd403a315f,0,161,161,106,1,twoone,,,,,,,,,,,,,,,,,,,,,,,,,,,,,,,,,,,,,,,,,,,,,,,,,,,,,,,,,,,,,,,,,,,,,,,,,,,,,,,,,,,,,,,,,,,,,,,,,,,,,,,,,,,,,,,,,,,,,,,,,,,,,,,,,,,,,,,,,,,,,,,,,,,,,,,,,,,,,
,,,,,,60703c1f8af049d40a5df5f3,62c539a47f81ed87f953c7c7,2022-07-06_09h28.51.524,Colour_Asymmetry_Pilot,2022.1.3,Win32,59.88741167,62c50e9c1127f2cd403a315f,,,,,,,space,4.2635,space,9.4197,space,20.6705,space,11.986,space,1.4667,space,5.2097,"[-0.4276,0.0038000000000000256,-0.3256]",fourtwo,"[-0.9688,-0.4902000000000001,-0.12159999999999993]",-3,6.2335,-147,68,1,0,0,response7disk_5,20,3,1,0,0,rectangle_8,20,3,1,0,0,2,20,3,1,0,0,0,0,0,0,1,,,,,,,,,,,,,,,,,,,,,,,,,,,,,,,,,,,,,,,,,,,,,,,,,,,,,,,,,,,,,,,,,,,,,,,,,,,,,,,,,,,,,,,,,,,,,,,,,,,,,,,,,,,,,,,,
,,,,,,60703c1f8af049d40a5df5f3,62c539a47f81ed87f953c7c7,2022-07-06_09h28.51.524,Colour_Asymmetry_Pilot,2022.1.3,Win32,59.88741167,62c50e9c1127f2cd403a315f,,,,,,,,,,,,,,,,,,,"[0.11359999999999992,0.6312,0.5213999999999999]",fourthree,"[0.09799999999999986,-0.24719999999999998,0.15280000000000005]",-1,5.6177,-65,-173,1,0,0,response5disk_5,33,0,1,0,0,rectangle_8,33,0,1,0,0,2,33,0,1,0,0,1,0,1,0,1,,,,,,,,,,,,,,,,,,,,,,,,,,,,,,,,,,,,,,,,,,,,,,,,,,,,,,,,,,,,,,,,,,,,,,,,,,,,,,,,,,,,,,,,,,,,,,,,,,,,,,,,,,,,,,,,
,,,,,,60703c1f8af049d40a5df5f3,62c539a47f81ed87f953c7c7,2022-07-06_09h28.51.524,Colour_Asymmetry_Pilot,2022.1.3,Win32,59.88741167,62c50e9c1127f2cd403a315f,,,,,,,,,,,,,,,,,,,"[-0.9138,-0.5296000000000001,-0.5529999999999999]",twofour,"[-0.2942,-0.24719999999999998,-0.357]",-2,7.5171,-142,-63,1,0,0,response5disk_5,-22,-1,1,0,0,rectangle_8,166,-70,1,0,0,2,29,-17,1,0,0,2,0,2,0,1,response3disk_7,5,rectangle_4,,,,,,,,,,,,,,,,,,,,,,,,,,,,,,,,,,,,,,,,,,,,,,,,,,,,,,,,,,,,,,,,,,,,,,,,,,,,,,,,,,,,,,,,,,,,,,,,,,,,,,,,,,,,,
,,,,,,60703c1f8af049d40a5df5f3,62c539a47f81ed87f953c7c7,2022-07-06_09h28.51.524,Colour_Asymmetry_Pilot,2022.1.3,Win32,59.88741167,62c50e9c1127f2cd403a315f,,,,,,,,,,,,,,,,,,,"[0.12939999999999996,-0.2864,0.3253999999999999]",twoone,"[-0.01980000000000004,-0.5138,-0.38039999999999996]",-3,2.6023,-156,76,1,0,0,response7disk_5,-9,-9,1,0,0,rectangle_8,-9,-9,1,0,0,2,-9,-9,1,0,0,3,0,3,0,1,,,,,,,,,,,,,,,,,,,,,,,,,,,,,,,,,,,,,,,,,,,,,,,,,,,,,,,,,,,,,,,,,,,,,,,,,,,,,,,,,,,,,,,,,,,,,,,,,,,,,,,,,,,,,,,,
,,,,,,60703c1f8af049d40a5df5f3,62c539a47f81ed87f953c7c7,2022-07-06_09h28.51.524,Colour_Asymmetry_Pilot,2022.1.3,Win32,59.88741167,62c50e9c1127f2cd403a315f,,,,,,,,,,,,,,,,,,,"[-0.050999999999999934,-0.6706000000000001,-0.804]",twoone,"[0.22340000000000004,-0.9296,-0.7884]",2,2.8163,170,-96,1,0,0,response3disk_5,3,-2,1,0,0,rectangle_8,3,-2,1,0,0,2,3,-2,1,0,0,4,0,4,0,1,,,,,,,,,,,,,,,,,,,,,,,,,,,,,,,,,,,,,,,,,,,,,,,,,,,,,,,,,,,,,,,,,,,,,,,,,,,,,,,,,,,,,,,,,,,,,,,,,,,,,,,,,,,,,,,,
,,,,,,60703c1f8af049d40a5df5f3,62c539a47f81ed87f953c7c7,2022-07-06_09h28.51.524,Colour_Asymmetry_Pilot,2022.1.3,Win32,59.88741167,62c50e9c1127f2cd403a315f,,,,,,,,,,,,,,,,,,,"[-0.4746,-0.0354000000000001,0.5449999999999999]",threefour,"[0.18419999999999992,-0.4276,-0.404]",-1,2.5829,-84,-160,1,0,0,response5disk_5,-22,-16,1,0,0,rectangle_8,-22,-16,1,0,0,2,-22,-16,1,0,0,5,0,5,0,1,,,,,,,,,,,,,,,,,,,,,,,,,,,,,,,,,,,,,,,,,,,,,,,,,,,,,,,,,,,,,,,,,,,,,,,,,,,,,,,,,,,,,,,,,,,,,,,,,,,,,,,,,,,,,,,,
,,,,,,60703c1f8af049d40a5df5f3,62c539a47f81ed87f953c7c7,2022-07-06_09h28.51.524,Colour_Asymmetry_Pilot,2022.1.3,Win32,59.88741167,62c50e9c1127f2cd403a315f,,,,,,,,,,,,,,,,,,,"[-0.10599999999999998,-0.10599999999999998,0.5841999999999998]",threefour,"[-0.20799999999999996,-0.655,-0.01980000000000004]",1,2.5168,66,-140,1,0,0,response3disk_5,-12,0,1,0,0,rectangle_8,-12,0,1,0,0,2,-12,0,1,0,0,6,0,6,0,1,,,,,,,,,,,,,,,,,,,,,,,,,,,,,,,,,,,,,,,,,,,,,,,,,,,,,,,,,,,,,,,,,,,,,,,,,,,,,,,,,,,,,,,,,,,,,,,,,,,,,,,,,,,,,,,,
,,,,,,60703c1f8af049d40a5df5f3,62c539a47f81ed87f953c7c7,2022-07-06_09h28.51.524,Colour_Asymmetry_Pilot,2022.1.3,Win32,59.88741167,62c50e9c1127f2cd403a315f,,,,,,,,,,,,,,,,,,,,threefour,,2,3.6176,,,,,,,,,,,,,,,,,,,,,,,,,,,,,,,,space,4.2954,"[0.37240000000000006,0.4980000000000002,-0.2864]","[0.6625999999999999,0.4980000000000002,-0.357]",129,-44,1,0,0,response3disk,23,-1,1,0,0,rectangle,23,-1,1,0,0,,2,0.0008,0,23,-1,1,0,0,0,0,0,95,1,14,second,,,,,,,,,,,,,,,,,,,,,,,,,,,,,,,,,,,,,,,,,,,,,,,,,,,,,,,,,,,,,,,,,,,,,,,,
,,,,,,60703c1f8af049d40a5df5f3,62c539a47f81ed87f953c7c7,2022-07-06_09h28.51.524,Colour_Asymmetry_Pilot,2022.1.3,Win32,59.88741167,62c50e9c1127f2cd403a315f,,,,,,,,,,,,,,,,,,,,threeone,,-3,3.0334,,,,,,,,,,,,,,,,,,,,,,,,,,,,,,,,,,"[0.8274000000000001,-0.5844,-0.9452]","[0.9372,0.9450000000000001,0.8980000000000001]",-132,94,1,0,0,response7disk,-8,5,1,0,0,rectangle,-8,5,1,0,0,,3,0.0006,0,-8,5,1,0,0,0,1,1,77,1,77,first,,,,,,,,,,,,,,,,,,,,,,,,,,,,,,,,,,,,,,,,,,,,,,,,,,,,,,,,,,,,,,,,,,,,,,,,
,,,,,,60703c1f8af049d40a5df5f3,62c539a47f81ed87f953c7c7,2022-07-06_09h28.51.524,Colour_Asymmetry_Pilot,2022.1.3,Win32,59.88741167,62c50e9c1127f2cd403a315f,,,,,,,,,,,,,,,,,,,,threefour,,-2,3.751,,,,,,,,,,,,,,,,,,,,,,,,,,,,,,,,,,"[0.23920000000000008,0.2704,0.16060000000000008]","[-0.6235999999999999,-0.6786,-0.08239999999999992]",-110,-40,1,0,0,response5disk,-1,-9,1,0,0,rectangle,-1,-9,1,0,0,,2,0.0019,0,-1,-9,1,0,0,0,2,2,106,1,25,second,,,,,,,,,,,,,,,,,,,,,,,,,,,,,,,,,,,,,,,,,,,,,,,,,,,,,,,,,,,,,,,,,,,,,,,,
,,,,,,60703c1f8af049d40a5df5f3,62c539a47f81ed87f953c7c7,2022-07-06_09h28.51.524,Colour_Asymmetry_Pilot,2022.1.3,Win32,59.88741167,62c50e9c1127f2cd403a315f,,,,,,,,,,,,,,,,,,,,twofour,,4,1.6008,,,,,,,,,,,,,,,,,,,,,,,,,,,,,,,,,,"[0.7802,-0.23140000000000005,-0.20799999999999996]","[0.6547999999999998,-0.043199999999999905,-0.011800000000000033]",73,120,1,0,0,response1disk,6,3,1,0,0,rectangle,6,3,1,0,0,,1,0.0018,0,6,3,1,0,0,0,3,3,15,1,15,first,,,,,,,,,,,,,,,,,,,,,,,,,,,,,,,,,,,,,,,,,,,,,,,,,,,,,,,,,,,,,,,,,,,,,,,,
,,,,,,60703c1f8af049d40a5df5f3,62c539a47f81ed87f953c7c7,2022-07-06_09h28.51.524,Colour_Asymmetry_Pilot,2022.1.3,Win32,59.88741167,62c50e9c1127f2cd403a315f,,,,,,,,,,,,,,,,,,,,fourthree,,-3,2.4888,,,,,,,,,,,,,,,,,,,,,,,,,,,,,,,,,,"[-0.9766,-0.6472,0.07440000000000002]","[0.7802,-0.23140000000000005,-0.20799999999999996]",-121,58,1,0,0,response7disk,-11,3,1,0,0,rectangle,-11,3,1,0,0,,3,0.0006,0,-11,3,1,0,0,0,4,4,73,1,73,first,,,,,,,,,,,,,,,,,,,,,,,,,,,,,,,,,,,,,,,,,,,,,,,,,,,,,,,,,,,,,,,,,,,,,,,,
,,,,,,60703c1f8af049d40a5df5f3,62c539a47f81ed87f953c7c7,2022-07-06_09h28.51.524,Colour_Asymmetry_Pilot,2022.1.3,Win32,59.88741167,62c50e9c1127f2cd403a315f,,,,,,,,,,,,,,,,,,,,onetwo,,3,1.1335,,,,,,,,,,,,,,,,,,,,,,,,,,,,,,,,,,"[-0.9766,-0.34920000000000007,0.2156]","[-0.20799999999999996,-0.655,-0.01980000000000004]",157,53,1,0,0,response1disk,23,-8,1,0,0,rectangle,23,-8,1,0,0,,3,0.0003,0,23,-8,1,0,0,0,5,5,140,1,59,second,,,,,,,,,,,,,,,,,,,,,,,,,,,,,,,,,,,,,,,,,,,,,,,,,,,,,,,,,,,,,,,,,,,,,,,,
,,,,,,60703c1f8af049d40a5df5f3,62c539a47f81ed87f953c7c7,2022-07-06_09h28.51.524,Colour_Asymmetry_Pilot,2022.1.3,Win32,59.88741167,62c50e9c1127f2cd403a315f,,,,,,,,,,,,,,,,,,,,fourtwo,,-2,3.2512,,,,,,,,,,,,,,,,,,,,,,,,,,,,,,,,,,"[0.8115999999999999,-0.0040000000000000036,-0.09819999999999995]","[0.30180000000000007,-0.7884,-0.9844]",-161,-73,1,0,0,response5disk,37,-2,1,0,0,rectangle,37,-2,1,0,0,,2,0.0007,0,37,-2,1,0,0,0,6,6,79,1,79,first,,,,,,,,,,,,,,,,,,,,,,,,,,,,,,,,,,,,,,,,,,,,,,,,,,,,,,,,,,,,,,,,,,,,,,,,
,,,,,,60703c1f8af049d40a5df5f3,62c539a47f81ed87f953c7c7,2022-07-06_09h28.51.524,Colour_Asymmetry_Pilot,2022.1.3,Win32,59.88741167,62c50e9c1127f2cd403a315f,,,,,,,,,,,,,,,,,,,,twofour,,-4,1.4845,,,,,,,,,,,,,,,,,,,,,,,,,,,,,,,,,,"[0.9763999999999999,0.30979999999999985,-0.6786]","[-0.8118,-0.8198,-0.5452]",-47,116,1,0,0,response7disk,15,-11,1,0,0,rectangle,15,-11,1,0,0,,1,0.0006,0,15,-11,1,0,0,0,7,7,9,1,9,first,,,,,,,,,,,,,,,,,,,,,,,,,,,,,,,,,,,,,,,,,,,,,,,,,,,,,,,,,,,,,,,,,,,,,,,,
,,,,,,60703c1f8af049d40a5df5f3,62c539a47f81ed87f953c7c7,2022-07-06_09h28.51.524,Colour_Asymmetry_Pilot,2022.1.3,Win32,59.88741167,62c50e9c1127f2cd403a315f,,,,,,,,,,,,,,,,,,,,twofour,,-2,3.7164,,,,,,,,,,,,,,,,,,,,,,,,,,,,,,,,,,"[-0.9766,-0.6472,0.07440000000000002]","[0.0351999999999999,0.41159999999999997,0.0038000000000000256]",-162,-39,1,0,0,response5disk,-44,19,1,0,0,rectangle,-44,19,1,0,0,,2,0.0019,0,-44,19,1,0,0,0,8,8,142,1,61,second,,,,,,,,,,,,,,,,,,,,,,,,,,,,,,,,,,,,,,,,,,,,,,,,,,,,,,,,,,,,,,,,,,,,,,,,
,,,,,,60703c1f8af049d40a5df5f3,62c539a47f81ed87f953c7c7,2022-07-06_09h28.51.524,Colour_Asymmetry_Pilot,2022.1.3,Win32,59.88741167,62c50e9c1127f2cd403a315f,,,,,,,,,,,,,,,,,,,,fourtwo,,-2,1.7336,,,,,,,,,,,,,,,,,,,,,,,,,,,,,,,,,,"[0.9763999999999999,-0.1137999999999999,-0.6314]","[0.12939999999999996,-0.2864,0.3253999999999999]",-98,-67,1,0,0,response5disk,27,1,1,0,0,rectangle,27,1,1,0,0,,2,0.0006,0,27,1,1,0,0,0,9,9,91,1,10,second,,,,,,,,,,,,,,,,,,,,,,,,,,,,,,,,,,,,,,,,,,,,,,,,,,,,,,,,,,,,,,,,,,,,,,,,
,,,,,,60703c1f8af049d40a5df5f3,62c539a47f81ed87f953c7c7,2022-07-06_09h28.51.524,Colour_Asymmetry_Pilot,2022.1.3,Win32,59.88741167,62c50e9c1127f2cd403a315f,,,,,,,,,,,,,,,,,,,,onethree,,-3,1.6669,,,,,,,,,,,,,,,,,,,,,,,,,,,,,,,,,,"[0.9763999999999999,0.30979999999999985,-0.6786]","[-0.8982,-0.37259999999999993,0.2784]",-137,108,1,0,0,response7disk,5,3,1,0,0,rectangle,5,3,1,0,0,,3,0.0008,0,5,3,1,0,0,0,10,10,6,1,6,first,,,,,,,,,,,,,,,,,,,,,,,,,,,,,,,,,,,,,,,,,,,,,,,,,,,,,,,,,,,,,,,,,,,,,,,,
,,,,,,60703c1f8af049d40a5df5f3,62c539a47f81ed87f953c7c7,2022-07-06_09h28.51.524,Colour_Asymmetry_Pilot,2022.1.3,Win32,59.88741167,62c50e9c1127f2cd403a315f,,,,,,,,,,,,,,,,,,,,threefour,,-3,1.2333,,,,,,,,,,,,,,,,,,,,,,,,,,,,,,,,,,"[1,0.12939999999999996,-1]","[-0.20799999999999996,-0.655,-0.01980000000000004]",-127,67,1,0,0,response7disk,18,-9,1,0,0,rectangle,18,-9,1,0,0,,3,0.0003,0,18,-9,1,0,0,0,11,11,156,1,75,second,,,,,,,,,,,,,,,,,,,,,,,,,,,,,,,,,,,,,,,,,,,,,,,,,,,,,,,,,,,,,,,,,,,,,,,,
,,,,,,60703c1f8af049d40a5df5f3,62c539a47f81ed87f953c7c7,2022-07-06_09h28.51.524,Colour_Asymmetry_Pilot,2022.1.3,Win32,59.88741167,62c50e9c1127f2cd403a315f,,,,,,,,,,,,,,,,,,,,fourthree,,1,2.1165,,,,,,,,,,,,,,,,,,,,,,,,,,,,,,,,,,"[0.3881999999999999,-0.23939999999999995,-0.05040000000000011]","[-0.10599999999999998,-0.10599999999999998,0.5841999999999998]",55,-160,1,0,0,response3disk,-15,15,1,0,0,rectangle,-15,15,1,0,0,,2,0.0005,0,-15,15,1,0,0,0,12,12,94,1,13,second,,,,,,,,,,,,,,,,,,,,,,,,,,,,,,,,,,,,,,,,,,,,,,,,,,,,,,,,,,,,,,,,,,,,,,,,
,,,,,,60703c1f8af049d40a5df5f3,62c539a47f81ed87f953c7c7,2022-07-06_09h28.51.524,Colour_Asymmetry_Pilot,2022.1.3,Win32,59.88741167,62c50e9c1127f2cd403a315f,,,,,,,,,,,,,,,,,,,,twoone,,-4,1.1668,,,,,,,,,,,,,,,,,,,,,,,,,,,,,,,,,,"[0.34099999999999997,0.5841999999999998,-0.9844]","[-0.34920000000000007,-0.702,-0.5216]",-70,118,1,0,0,response7disk,-6,4,1,0,0,rectangle,-6,4,1,0,0,,1,0.0005,0,-6,4,1,0,0,0,13,13,118,1,37,second,,,,,,,,,,,,,,,,,,,,,,,,,,,,,,,,,,,,,,,,,,,,,,,,,,,,,,,,,,,,,,,,,,,,,,,,
,,,,,,60703c1f8af049d40a5df5f3,62c539a47f81ed87f953c7c7,2022-07-06_09h28.51.524,Colour_Asymmetry_Pilot,2022.1.3,Win32,59.88741167,62c50e9c1127f2cd403a315f,,,,,,,,,,,,,,,,,,,,fourthree,,-1,1.817,,,,,,,,,,,,,,,,,,,,,,,,,,,,,,,,,,"[-0.6942,-0.7648,-0.12959999999999994]","[-0.45899999999999996,-0.3256,-0.9374]",-54,-133,1,0,0,response5disk,-10,-1,1,0,0,rectangle,-10,-1,1,0,0,,1,9.99999E-05,0,-10,-1,1,0,0,0,14,14,93,1,12,second,,,,,,,,,,,,,,,,,,,,,,,,,,,,,,,,,,,,,,,,,,,,,,,,,,,,,,,,,,,,,,,,,,,,,,,,
,,,,,,60703c1f8af049d40a5df5f3,62c539a47f81ed87f953c7c7,2022-07-06_09h28.51.524,Colour_Asymmetry_Pilot,2022.1.3,Win32,59.88741167,62c50e9c1127f2cd403a315f,,,,,,,,,,,,,,,,,,,,threefour,,2,1.6001,,,,,,,,,,,,,,,,,,,,,,,,,,,,,,,,,,"[0.23920000000000008,0.2704,0.16060000000000008]","[-0.24719999999999998,0.5213999999999999,-0.12959999999999994]",99,-78,1,0,0,response3disk,11,1,1,0,0,rectangle,11,1,1,0,0,,2,0.0005,0,11,1,1,0,0,0,15,15,113,1,32,second,,,,,,,,,,,,,,,,,,,,,,,,,,,,,,,,,,,,,,,,,,,,,,,,,,,,,,,,,,,,,,,,,,,,,,,,
,,,,,,60703c1f8af049d40a5df5f3,62c539a47f81ed87f953c7c7,2022-07-06_09h28.51.524,Colour_Asymmetry_Pilot,2022.1.3,Win32,59.88741167,62c50e9c1127f2cd403a315f,,,,,,,,,,,,,,,,,,,,threefour,,-1,5.0336,,,,,,,,,,,,,,,,,,,,,,,,,,,,,,,,,,"[-0.4902000000000001,0.2704,-0.45899999999999996]","[-0.24719999999999998,-0.0354000000000001,0.3175999999999999]",-72,-114,1,0,0,response5disk,-11,-12,1,0,0,rectangle,-11,-12,1,0,0,,2,9.99999E-05,0,-11,-12,1,0,0,0,16,16,122,1,41,second,,,,,,,,,,,,,,,,,,,,,,,,,,,,,,,,,,,,,,,,,,,,,,,,,,,,,,,,,,,,,,,,,,,,,,,,
,,,,,,60703c1f8af049d40a5df5f3,62c539a47f81ed87f953c7c7,2022-07-06_09h28.51.524,Colour_Asymmetry_Pilot,2022.1.3,Win32,59.88741167,62c50e9c1127f2cd403a315f,,,,,,,,,,,,,,,,,,,,onetwo,,-2,2.4002,,,,,,,,,,,,,,,,,,,,,,,,,,,,,,,,,,"[-0.6706000000000001,-0.6157999999999999,-0.6786]","[0.8115999999999999,-0.0040000000000000036,-0.09819999999999995]",-106,-59,1,0,0,response5disk,3,-1,1,0,0,rectangle,3,-1,1,0,0,,3,0.0008,0,3,-1,1,0,0,0,17,17,5,1,5,first,,,,,,,,,,,,,,,,,,,,,,,,,,,,,,,,,,,,,,,,,,,,,,,,,,,,,,,,,,,,,,,,,,,,,,,,
