trials.thisRepN,trials.thisTrialN,trials.thisN,trials.thisIndex,trials.ran,Colourcodes,participant,session,date,expName,psychopyVersion,OS,frameRate,study_id,trials_4.thisRepN,trials_4.thisTrialN,trials_4.thisN,trials_4.thisIndex,trials_4.ran,StimulusPos,key_resp.keys,key_resp.rt,key_resp_2.keys,key_resp_2.rt,key_resp_15.keys,key_resp_15.rt,key_resp_17.keys,key_resp_17.rt,key_resp_9.keys,key_resp_9.rt,key_resp_10.keys,key_resp_10.rt,Circle1_col,Ecc,Circle2_col,similarity,response_time,mouse_5.x,mouse_5.y,mouse_5.leftButton,mouse_5.midButton,mouse_5.rightButton,mouse_5.clicked_name,mouse_10.x,mouse_10.y,mouse_10.leftButton,mouse_10.midButton,mouse_10.rightButton,mouse_10.clicked_name,mouse_7.x,mouse_7.y,mouse_7.leftButton,mouse_7.midButton,mouse_7.rightButton,catchnumberprac,mouse_6.x,mouse_6.y,mouse_6.leftButton,mouse_6.midButton,mouse_6.rightButton,duringprac.thisRepN,duringprac.thisTrialN,duringprac.thisN,duringprac.thisIndex,duringprac.ran,mouse_7.clicked_name,catchprac,mouse_6.clicked_name,key_resp_22.keys,key_resp_22.rt,Circle1_colour,Circle2_colour,mouse.x,mouse.y,mouse.leftButton,mouse.midButton,mouse.rightButton,mouse.clicked_name,mouse_2.x,mouse_2.y,mouse_2.leftButton,mouse_2.midButton,mouse_2.rightButton,mouse_2.clicked_name,mouse_3.x,mouse_3.y,mouse_3.leftButton,mouse_3.midButton,mouse_3.rightButton,catchresponse,catchnumber,response_time_catch,Catch,mouse_11.x,mouse_11.y,mouse_11.leftButton,mouse_11.midButton,mouse_11.rightButton,trials_2.thisRepN,trials_2.thisTrialN,trials_2.thisN,trials_2.thisIndex,trials_2.ran,Colourpair,Temporder,mouse_3.clicked_name,mouse_11.clicked_name,trials_3.thisRepN,trials_3.thisTrialN,trials_3.thisN,trials_3.thisIndex,trials_3.ran,key_resp_instr_Ishi.keys,key_resp_instr_Ishi.rt,Ishi_trial_keyresp.keys,Ishi_textbox.text,Ishi_mouse.x,Ishi_mouse.y,Ishi_mouse.leftButton,Ishi_mouse.midButton,Ishi_mouse.rightButton,Ishi_mouse.clicked_name,Ishi_loop.thisRepN,Ishi_loop.thisTrialN,Ishi_loop.thisN,Ishi_loop.thisIndex,Ishi_loop.ran,imageaddress,textbox.text,mouse_4.x,mouse_4.y,mouse_4.leftButton,mouse_4.midButton,mouse_4.rightButton,mouse_4.clicked_name,textbox_2.text,mouse_8.x,mouse_8.y,mouse_8.leftButton,mouse_8.midButton,mouse_8.rightButton,mouse_8.clicked_name,textbox_3.text,mouse_9.x,mouse_9.y,mouse_9.leftButton,mouse_9.midButton,mouse_9.rightButton,mouse_9.clicked_name,textbox_4.text,mouse_12.x,mouse_12.y,mouse_12.leftButton,mouse_12.midButton,mouse_12.rightButton,mouse_12.clicked_name,textbox_5.text,mouse_13.x,mouse_13.y,mouse_13.leftButton,mouse_13.midButton,mouse_13.rightButton,mouse_13.clicked_name,textbox_6.text,mouse_14.x,mouse_14.y,mouse_14.leftButton,mouse_14.midButton,mouse_14.rightButton,mouse_14.clicked_name,textbox_7.text,mouse_15.x,mouse_15.y,mouse_15.leftButton,mouse_15.midButton,mouse_15.rightButton,mouse_15.clicked_name
0,0,0,60,1,,610bb066fa8d2a5647a40c77,62c539a32c3cf42a78b91f2a,2022-07-06_09h30.03.272,Colour_Asymmetry_Pilot,2022.1.3,Win32,59.79788315,62c50e9c1127f2cd403a315f,,,,,,,,,,,,,,,,,,,,,,,,,,,,,,,,,,,,,,,,,,,,,,,,,,,,,,,,,,,,,,,,,,,,,,,,,,,,,,,,,,,,,,,,,,,,,,,,,,,,,,,,,,,,,,,,,,,,,,,,,,,,,,,,,,,,,,,,,,,,,,,,,,,,,,,,,,,,,,,,,,,
0,1,1,80,1,,610bb066fa8d2a5647a40c77,62c539a32c3cf42a78b91f2a,2022-07-06_09h30.03.272,Colour_Asymmetry_Pilot,2022.1.3,Win32,59.79788315,62c50e9c1127f2cd403a315f,,,,,,,,,,,,,,,,,,,,,,,,,,,,,,,,,,,,,,,,,,,,,,,,,,,,,,,,,,,,,,,,,,,,,,,,,,,,,,,,,,,,,,,,,,,,,,,,,,,,,,,,,,,,,,,,,,,,,,,,,,,,,,,,,,,,,,,,,,,,,,,,,,,,,,,,,,,,,,,,,,,
0,2,2,84,1,,610bb066fa8d2a5647a40c77,62c539a32c3cf42a78b91f2a,2022-07-06_09h30.03.272,Colour_Asymmetry_Pilot,2022.1.3,Win32,59.79788315,62c50e9c1127f2cd403a315f,,,,,,,,,,,,,,,,,,,,,,,,,,,,,,,,,,,,,,,,,,,,,,,,,,,,,,,,,,,,,,,,,,,,,,,,,,,,,,,,,,,,,,,,,,,,,,,,,,,,,,,,,,,,,,,,,,,,,,,,,,,,,,,,,,,,,,,,,,,,,,,,,,,,,,,,,,,,,,,,,,,
0,3,3,56,1,,610bb066fa8d2a5647a40c77,62c539a32c3cf42a78b91f2a,2022-07-06_09h30.03.272,Colour_Asymmetry_Pilot,2022.1.3,Win32,59.79788315,62c50e9c1127f2cd403a315f,,,,,,,,,,,,,,,,,,,,,,,,,,,,,,,,,,,,,,,,,,,,,,,,,,,,,,,,,,,,,,,,,,,,,,,,,,,,,,,,,,,,,,,,,,,,,,,,,,,,,,,,,,,,,,,,,,,,,,,,,,,,,,,,,,,,,,,,,,,,,,,,,,,,,,,,,,,,,,,,,,,
0,4,4,13,1,,610bb066fa8d2a5647a40c77,62c539a32c3cf42a78b91f2a,2022-07-06_09h30.03.272,Colour_Asymmetry_Pilot,2022.1.3,Win32,59.79788315,62c50e9c1127f2cd403a315f,,,,,,,,,,,,,,,,,,,,,,,,,,,,,,,,,,,,,,,,,,,,,,,,,,,,,,,,,,,,,,,,,,,,,,,,,,,,,,,,,,,,,,,,,,,,,,,,,,,,,,,,,,,,,,,,,,,,,,,,,,,,,,,,,,,,,,,,,,,,,,,,,,,,,,,,,,,,,,,,,,,
0,5,5,62,1,,610bb066fa8d2a5647a40c77,62c539a32c3cf42a78b91f2a,2022-07-06_09h30.03.272,Colour_Asymmetry_Pilot,2022.1.3,Win32,59.79788315,62c50e9c1127f2cd403a315f,,,,,,,,,,,,,,,,,,,,,,,,,,,,,,,,,,,,,,,,,,,,,,,,,,,,,,,,,,,,,,,,,,,,,,,,,,,,,,,,,,,,,,,,,,,,,,,,,,,,,,,,,,,,,,,,,,,,,,,,,,,,,,,,,,,,,,,,,,,,,,,,,,,,,,,,,,,,,,,,,,,
0,6,6,42,1,,610bb066fa8d2a5647a40c77,62c539a32c3cf42a78b91f2a,2022-07-06_09h30.03.272,Colour_Asymmetry_Pilot,2022.1.3,Win32,59.79788315,62c50e9c1127f2cd403a315f,,,,,,,,,,,,,,,,,,,,,,,,,,,,,,,,,,,,,,,,,,,,,,,,,,,,,,,,,,,,,,,,,,,,,,,,,,,,,,,,,,,,,,,,,,,,,,,,,,,,,,,,,,,,,,,,,,,,,,,,,,,,,,,,,,,,,,,,,,,,,,,,,,,,,,,,,,,,,,,,,,,
0,7,7,59,1,,610bb066fa8d2a5647a40c77,62c539a32c3cf42a78b91f2a,2022-07-06_09h30.03.272,Colour_Asymmetry_Pilot,2022.1.3,Win32,59.79788315,62c50e9c1127f2cd403a315f,,,,,,,,,,,,,,,,,,,,,,,,,,,,,,,,,,,,,,,,,,,,,,,,,,,,,,,,,,,,,,,,,,,,,,,,,,,,,,,,,,,,,,,,,,,,,,,,,,,,,,,,,,,,,,,,,,,,,,,,,,,,,,,,,,,,,,,,,,,,,,,,,,,,,,,,,,,,,,,,,,,
0,8,8,43,1,,610bb066fa8d2a5647a40c77,62c539a32c3cf42a78b91f2a,2022-07-06_09h30.03.272,Colour_Asymmetry_Pilot,2022.1.3,Win32,59.79788315,62c50e9c1127f2cd403a315f,,,,,,,,,,,,,,,,,,,,,,,,,,,,,,,,,,,,,,,,,,,,,,,,,,,,,,,,,,,,,,,,,,,,,,,,,,,,,,,,,,,,,,,,,,,,,,,,,,,,,,,,,,,,,,,,,,,,,,,,,,,,,,,,,,,,,,,,,,,,,,,,,,,,,,,,,,,,,,,,,,,
0,9,9,88,1,,610bb066fa8d2a5647a40c77,62c539a32c3cf42a78b91f2a,2022-07-06_09h30.03.272,Colour_Asymmetry_Pilot,2022.1.3,Win32,59.79788315,62c50e9c1127f2cd403a315f,,,,,,,,,,,,,,,,,,,,,,,,,,,,,,,,,,,,,,,,,,,,,,,,,,,,,,,,,,,,,,,,,,,,,,,,,,,,,,,,,,,,,,,,,,,,,,,,,,,,,,,,,,,,,,,,,,,,,,,,,,,,,,,,,,,,,,,,,,,,,,,,,,,,,,,,,,,,,,,,,,,
0,10,10,25,1,,610bb066fa8d2a5647a40c77,62c539a32c3cf42a78b91f2a,2022-07-06_09h30.03.272,Colour_Asymmetry_Pilot,2022.1.3,Win32,59.79788315,62c50e9c1127f2cd403a315f,,,,,,,,,,,,,,,,,,,,,,,,,,,,,,,,,,,,,,,,,,,,,,,,,,,,,,,,,,,,,,,,,,,,,,,,,,,,,,,,,,,,,,,,,,,,,,,,,,,,,,,,,,,,,,,,,,,,,,,,,,,,,,,,,,,,,,,,,,,,,,,,,,,,,,,,,,,,,,,,,,,
0,11,11,55,1,,610bb066fa8d2a5647a40c77,62c539a32c3cf42a78b91f2a,2022-07-06_09h30.03.272,Colour_Asymmetry_Pilot,2022.1.3,Win32,59.79788315,62c50e9c1127f2cd403a315f,,,,,,,,,,,,,,,,,,,,,,,,,,,,,,,,,,,,,,,,,,,,,,,,,,,,,,,,,,,,,,,,,,,,,,,,,,,,,,,,,,,,,,,,,,,,,,,,,,,,,,,,,,,,,,,,,,,,,,,,,,,,,,,,,,,,,,,,,,,,,,,,,,,,,,,,,,,,,,,,,,,
0,12,12,73,1,,610bb066fa8d2a5647a40c77,62c539a32c3cf42a78b91f2a,2022-07-06_09h30.03.272,Colour_Asymmetry_Pilot,2022.1.3,Win32,59.79788315,62c50e9c1127f2cd403a315f,,,,,,,,,,,,,,,,,,,,,,,,,,,,,,,,,,,,,,,,,,,,,,,,,,,,,,,,,,,,,,,,,,,,,,,,,,,,,,,,,,,,,,,,,,,,,,,,,,,,,,,,,,,,,,,,,,,,,,,,,,,,,,,,,,,,,,,,,,,,,,,,,,,,,,,,,,,,,,,,,,,
0,13,13,20,1,,610bb066fa8d2a5647a40c77,62c539a32c3cf42a78b91f2a,2022-07-06_09h30.03.272,Colour_Asymmetry_Pilot,2022.1.3,Win32,59.79788315,62c50e9c1127f2cd403a315f,,,,,,,,,,,,,,,,,,,,,,,,,,,,,,,,,,,,,,,,,,,,,,,,,,,,,,,,,,,,,,,,,,,,,,,,,,,,,,,,,,,,,,,,,,,,,,,,,,,,,,,,,,,,,,,,,,,,,,,,,,,,,,,,,,,,,,,,,,,,,,,,,,,,,,,,,,,,,,,,,,,
0,14,14,58,1,,610bb066fa8d2a5647a40c77,62c539a32c3cf42a78b91f2a,2022-07-06_09h30.03.272,Colour_Asymmetry_Pilot,2022.1.3,Win32,59.79788315,62c50e9c1127f2cd403a315f,,,,,,,,,,,,,,,,,,,,,,,,,,,,,,,,,,,,,,,,,,,,,,,,,,,,,,,,,,,,,,,,,,,,,,,,,,,,,,,,,,,,,,,,,,,,,,,,,,,,,,,,,,,,,,,,,,,,,,,,,,,,,,,,,,,,,,,,,,,,,,,,,,,,,,,,,,,,,,,,,,,
0,15,15,46,1,,610bb066fa8d2a5647a40c77,62c539a32c3cf42a78b91f2a,2022-07-06_09h30.03.272,Colour_Asymmetry_Pilot,2022.1.3,Win32,59.79788315,62c50e9c1127f2cd403a315f,,,,,,,,,,,,,,,,,,,,,,,,,,,,,,,,,,,,,,,,,,,,,,,,,,,,,,,,,,,,,,,,,,,,,,,,,,,,,,,,,,,,,,,,,,,,,,,,,,,,,,,,,,,,,,,,,,,,,,,,,,,,,,,,,,,,,,,,,,,,,,,,,,,,,,,,,,,,,,,,,,,
0,16,16,76,1,,610bb066fa8d2a5647a40c77,62c539a32c3cf42a78b91f2a,2022-07-06_09h30.03.272,Colour_Asymmetry_Pilot,2022.1.3,Win32,59.79788315,62c50e9c1127f2cd403a315f,,,,,,,,,,,,,,,,,,,,,,,,,,,,,,,,,,,,,,,,,,,,,,,,,,,,,,,,,,,,,,,,,,,,,,,,,,,,,,,,,,,,,,,,,,,,,,,,,,,,,,,,,,,,,,,,,,,,,,,,,,,,,,,,,,,,,,,,,,,,,,,,,,,,,,,,,,,,,,,,,,,
0,17,17,75,1,,610bb066fa8d2a5647a40c77,62c539a32c3cf42a78b91f2a,2022-07-06_09h30.03.272,Colour_Asymmetry_Pilot,2022.1.3,Win32,59.79788315,62c50e9c1127f2cd403a315f,,,,,,,,,,,,,,,,,,,,,,,,,,,,,,,,,,,,,,,,,,,,,,,,,,,,,,,,,,,,,,,,,,,,,,,,,,,,,,,,,,,,,,,,,,,,,,,,,,,,,,,,,,,,,,,,,,,,,,,,,,,,,,,,,,,,,,,,,,,,,,,,,,,,,,,,,,,,,,,,,,,
0,18,18,35,1,,610bb066fa8d2a5647a40c77,62c539a32c3cf42a78b91f2a,2022-07-06_09h30.03.272,Colour_Asymmetry_Pilot,2022.1.3,Win32,59.79788315,62c50e9c1127f2cd403a315f,,,,,,,,,,,,,,,,,,,,,,,,,,,,,,,,,,,,,,,,,,,,,,,,,,,,,,,,,,,,,,,,,,,,,,,,,,,,,,,,,,,,,,,,,,,,,,,,,,,,,,,,,,,,,,,,,,,,,,,,,,,,,,,,,,,,,,,,,,,,,,,,,,,,,,,,,,,,,,,,,,,
0,19,19,78,1,,610bb066fa8d2a5647a40c77,62c539a32c3cf42a78b91f2a,2022-07-06_09h30.03.272,Colour_Asymmetry_Pilot,2022.1.3,Win32,59.79788315,62c50e9c1127f2cd403a315f,,,,,,,,,,,,,,,,,,,,,,,,,,,,,,,,,,,,,,,,,,,,,,,,,,,,,,,,,,,,,,,,,,,,,,,,,,,,,,,,,,,,,,,,,,,,,,,,,,,,,,,,,,,,,,,,,,,,,,,,,,,,,,,,,,,,,,,,,,,,,,,,,,,,,,,,,,,,,,,,,,,
0,20,20,21,1,,610bb066fa8d2a5647a40c77,62c539a32c3cf42a78b91f2a,2022-07-06_09h30.03.272,Colour_Asymmetry_Pilot,2022.1.3,Win32,59.79788315,62c50e9c1127f2cd403a315f,,,,,,,,,,,,,,,,,,,,,,,,,,,,,,,,,,,,,,,,,,,,,,,,,,,,,,,,,,,,,,,,,,,,,,,,,,,,,,,,,,,,,,,,,,,,,,,,,,,,,,,,,,,,,,,,,,,,,,,,,,,,,,,,,,,,,,,,,,,,,,,,,,,,,,,,,,,,,,,,,,,
0,21,21,31,1,,610bb066fa8d2a5647a40c77,62c539a32c3cf42a78b91f2a,2022-07-06_09h30.03.272,Colour_Asymmetry_Pilot,2022.1.3,Win32,59.79788315,62c50e9c1127f2cd403a315f,,,,,,,,,,,,,,,,,,,,,,,,,,,,,,,,,,,,,,,,,,,,,,,,,,,,,,,,,,,,,,,,,,,,,,,,,,,,,,,,,,,,,,,,,,,,,,,,,,,,,,,,,,,,,,,,,,,,,,,,,,,,,,,,,,,,,,,,,,,,,,,,,,,,,,,,,,,,,,,,,,,
0,22,22,63,1,,610bb066fa8d2a5647a40c77,62c539a32c3cf42a78b91f2a,2022-07-06_09h30.03.272,Colour_Asymmetry_Pilot,2022.1.3,Win32,59.79788315,62c50e9c1127f2cd403a315f,,,,,,,,,,,,,,,,,,,,,,,,,,,,,,,,,,,,,,,,,,,,,,,,,,,,,,,,,,,,,,,,,,,,,,,,,,,,,,,,,,,,,,,,,,,,,,,,,,,,,,,,,,,,,,,,,,,,,,,,,,,,,,,,,,,,,,,,,,,,,,,,,,,,,,,,,,,,,,,,,,,
0,23,23,52,1,,610bb066fa8d2a5647a40c77,62c539a32c3cf42a78b91f2a,2022-07-06_09h30.03.272,Colour_Asymmetry_Pilot,2022.1.3,Win32,59.79788315,62c50e9c1127f2cd403a315f,,,,,,,,,,,,,,,,,,,,,,,,,,,,,,,,,,,,,,,,,,,,,,,,,,,,,,,,,,,,,,,,,,,,,,,,,,,,,,,,,,,,,,,,,,,,,,,,,,,,,,,,,,,,,,,,,,,,,,,,,,,,,,,,,,,,,,,,,,,,,,,,,,,,,,,,,,,,,,,,,,,
0,24,24,89,1,,610bb066fa8d2a5647a40c77,62c539a32c3cf42a78b91f2a,2022-07-06_09h30.03.272,Colour_Asymmetry_Pilot,2022.1.3,Win32,59.79788315,62c50e9c1127f2cd403a315f,,,,,,,,,,,,,,,,,,,,,,,,,,,,,,,,,,,,,,,,,,,,,,,,,,,,,,,,,,,,,,,,,,,,,,,,,,,,,,,,,,,,,,,,,,,,,,,,,,,,,,,,,,,,,,,,,,,,,,,,,,,,,,,,,,,,,,,,,,,,,,,,,,,,,,,,,,,,,,,,,,,
0,25,25,7,1,,610bb066fa8d2a5647a40c77,62c539a32c3cf42a78b91f2a,2022-07-06_09h30.03.272,Colour_Asymmetry_Pilot,2022.1.3,Win32,59.79788315,62c50e9c1127f2cd403a315f,,,,,,,,,,,,,,,,,,,,,,,,,,,,,,,,,,,,,,,,,,,,,,,,,,,,,,,,,,,,,,,,,,,,,,,,,,,,,,,,,,,,,,,,,,,,,,,,,,,,,,,,,,,,,,,,,,,,,,,,,,,,,,,,,,,,,,,,,,,,,,,,,,,,,,,,,,,,,,,,,,,
0,26,26,79,1,,610bb066fa8d2a5647a40c77,62c539a32c3cf42a78b91f2a,2022-07-06_09h30.03.272,Colour_Asymmetry_Pilot,2022.1.3,Win32,59.79788315,62c50e9c1127f2cd403a315f,,,,,,,,,,,,,,,,,,,,,,,,,,,,,,,,,,,,,,,,,,,,,,,,,,,,,,,,,,,,,,,,,,,,,,,,,,,,,,,,,,,,,,,,,,,,,,,,,,,,,,,,,,,,,,,,,,,,,,,,,,,,,,,,,,,,,,,,,,,,,,,,,,,,,,,,,,,,,,,,,,,
0,27,27,30,1,,610bb066fa8d2a5647a40c77,62c539a32c3cf42a78b91f2a,2022-07-06_09h30.03.272,Colour_Asymmetry_Pilot,2022.1.3,Win32,59.79788315,62c50e9c1127f2cd403a315f,,,,,,,,,,,,,,,,,,,,,,,,,,,,,,,,,,,,,,,,,,,,,,,,,,,,,,,,,,,,,,,,,,,,,,,,,,,,,,,,,,,,,,,,,,,,,,,,,,,,,,,,,,,,,,,,,,,,,,,,,,,,,,,,,,,,,,,,,,,,,,,,,,,,,,,,,,,,,,,,,,,
0,28,28,41,1,,610bb066fa8d2a5647a40c77,62c539a32c3cf42a78b91f2a,2022-07-06_09h30.03.272,Colour_Asymmetry_Pilot,2022.1.3,Win32,59.79788315,62c50e9c1127f2cd403a315f,,,,,,,,,,,,,,,,,,,,,,,,,,,,,,,,,,,,,,,,,,,,,,,,,,,,,,,,,,,,,,,,,,,,,,,,,,,,,,,,,,,,,,,,,,,,,,,,,,,,,,,,,,,,,,,,,,,,,,,,,,,,,,,,,,,,,,,,,,,,,,,,,,,,,,,,,,,,,,,,,,,
0,29,29,29,1,,610bb066fa8d2a5647a40c77,62c539a32c3cf42a78b91f2a,2022-07-06_09h30.03.272,Colour_Asymmetry_Pilot,2022.1.3,Win32,59.79788315,62c50e9c1127f2cd403a315f,,,,,,,,,,,,,,,,,,,,,,,,,,,,,,,,,,,,,,,,,,,,,,,,,,,,,,,,,,,,,,,,,,,,,,,,,,,,,,,,,,,,,,,,,,,,,,,,,,,,,,,,,,,,,,,,,,,,,,,,,,,,,,,,,,,,,,,,,,,,,,,,,,,,,,,,,,,,,,,,,,,
0,30,30,48,1,,610bb066fa8d2a5647a40c77,62c539a32c3cf42a78b91f2a,2022-07-06_09h30.03.272,Colour_Asymmetry_Pilot,2022.1.3,Win32,59.79788315,62c50e9c1127f2cd403a315f,,,,,,,,,,,,,,,,,,,,,,,,,,,,,,,,,,,,,,,,,,,,,,,,,,,,,,,,,,,,,,,,,,,,,,,,,,,,,,,,,,,,,,,,,,,,,,,,,,,,,,,,,,,,,,,,,,,,,,,,,,,,,,,,,,,,,,,,,,,,,,,,,,,,,,,,,,,,,,,,,,,
0,31,31,65,1,,610bb066fa8d2a5647a40c77,62c539a32c3cf42a78b91f2a,2022-07-06_09h30.03.272,Colour_Asymmetry_Pilot,2022.1.3,Win32,59.79788315,62c50e9c1127f2cd403a315f,,,,,,,,,,,,,,,,,,,,,,,,,,,,,,,,,,,,,,,,,,,,,,,,,,,,,,,,,,,,,,,,,,,,,,,,,,,,,,,,,,,,,,,,,,,,,,,,,,,,,,,,,,,,,,,,,,,,,,,,,,,,,,,,,,,,,,,,,,,,,,,,,,,,,,,,,,,,,,,,,,,
0,32,32,23,1,,610bb066fa8d2a5647a40c77,62c539a32c3cf42a78b91f2a,2022-07-06_09h30.03.272,Colour_Asymmetry_Pilot,2022.1.3,Win32,59.79788315,62c50e9c1127f2cd403a315f,,,,,,,,,,,,,,,,,,,,,,,,,,,,,,,,,,,,,,,,,,,,,,,,,,,,,,,,,,,,,,,,,,,,,,,,,,,,,,,,,,,,,,,,,,,,,,,,,,,,,,,,,,,,,,,,,,,,,,,,,,,,,,,,,,,,,,,,,,,,,,,,,,,,,,,,,,,,,,,,,,,
0,33,33,68,1,,610bb066fa8d2a5647a40c77,62c539a32c3cf42a78b91f2a,2022-07-06_09h30.03.272,Colour_Asymmetry_Pilot,2022.1.3,Win32,59.79788315,62c50e9c1127f2cd403a315f,,,,,,,,,,,,,,,,,,,,,,,,,,,,,,,,,,,,,,,,,,,,,,,,,,,,,,,,,,,,,,,,,,,,,,,,,,,,,,,,,,,,,,,,,,,,,,,,,,,,,,,,,,,,,,,,,,,,,,,,,,,,,,,,,,,,,,,,,,,,,,,,,,,,,,,,,,,,,,,,,,,
0,34,34,2,1,,610bb066fa8d2a5647a40c77,62c539a32c3cf42a78b91f2a,2022-07-06_09h30.03.272,Colour_Asymmetry_Pilot,2022.1.3,Win32,59.79788315,62c50e9c1127f2cd403a315f,,,,,,,,,,,,,,,,,,,,,,,,,,,,,,,,,,,,,,,,,,,,,,,,,,,,,,,,,,,,,,,,,,,,,,,,,,,,,,,,,,,,,,,,,,,,,,,,,,,,,,,,,,,,,,,,,,,,,,,,,,,,,,,,,,,,,,,,,,,,,,,,,,,,,,,,,,,,,,,,,,,
0,35,35,24,1,,610bb066fa8d2a5647a40c77,62c539a32c3cf42a78b91f2a,2022-07-06_09h30.03.272,Colour_Asymmetry_Pilot,2022.1.3,Win32,59.79788315,62c50e9c1127f2cd403a315f,,,,,,,,,,,,,,,,,,,,,,,,,,,,,,,,,,,,,,,,,,,,,,,,,,,,,,,,,,,,,,,,,,,,,,,,,,,,,,,,,,,,,,,,,,,,,,,,,,,,,,,,,,,,,,,,,,,,,,,,,,,,,,,,,,,,,,,,,,,,,,,,,,,,,,,,,,,,,,,,,,,
0,36,36,22,1,,610bb066fa8d2a5647a40c77,62c539a32c3cf42a78b91f2a,2022-07-06_09h30.03.272,Colour_Asymmetry_Pilot,2022.1.3,Win32,59.79788315,62c50e9c1127f2cd403a315f,,,,,,,,,,,,,,,,,,,,,,,,,,,,,,,,,,,,,,,,,,,,,,,,,,,,,,,,,,,,,,,,,,,,,,,,,,,,,,,,,,,,,,,,,,,,,,,,,,,,,,,,,,,,,,,,,,,,,,,,,,,,,,,,,,,,,,,,,,,,,,,,,,,,,,,,,,,,,,,,,,,
0,37,37,12,1,,610bb066fa8d2a5647a40c77,62c539a32c3cf42a78b91f2a,2022-07-06_09h30.03.272,Colour_Asymmetry_Pilot,2022.1.3,Win32,59.79788315,62c50e9c1127f2cd403a315f,,,,,,,,,,,,,,,,,,,,,,,,,,,,,,,,,,,,,,,,,,,,,,,,,,,,,,,,,,,,,,,,,,,,,,,,,,,,,,,,,,,,,,,,,,,,,,,,,,,,,,,,,,,,,,,,,,,,,,,,,,,,,,,,,,,,,,,,,,,,,,,,,,,,,,,,,,,,,,,,,,,
0,38,38,72,1,,610bb066fa8d2a5647a40c77,62c539a32c3cf42a78b91f2a,2022-07-06_09h30.03.272,Colour_Asymmetry_Pilot,2022.1.3,Win32,59.79788315,62c50e9c1127f2cd403a315f,,,,,,,,,,,,,,,,,,,,,,,,,,,,,,,,,,,,,,,,,,,,,,,,,,,,,,,,,,,,,,,,,,,,,,,,,,,,,,,,,,,,,,,,,,,,,,,,,,,,,,,,,,,,,,,,,,,,,,,,,,,,,,,,,,,,,,,,,,,,,,,,,,,,,,,,,,,,,,,,,,,
0,39,39,10,1,,610bb066fa8d2a5647a40c77,62c539a32c3cf42a78b91f2a,2022-07-06_09h30.03.272,Colour_Asymmetry_Pilot,2022.1.3,Win32,59.79788315,62c50e9c1127f2cd403a315f,,,,,,,,,,,,,,,,,,,,,,,,,,,,,,,,,,,,,,,,,,,,,,,,,,,,,,,,,,,,,,,,,,,,,,,,,,,,,,,,,,,,,,,,,,,,,,,,,,,,,,,,,,,,,,,,,,,,,,,,,,,,,,,,,,,,,,,,,,,,,,,,,,,,,,,,,,,,,,,,,,,
0,40,40,26,1,,610bb066fa8d2a5647a40c77,62c539a32c3cf42a78b91f2a,2022-07-06_09h30.03.272,Colour_Asymmetry_Pilot,2022.1.3,Win32,59.79788315,62c50e9c1127f2cd403a315f,,,,,,,,,,,,,,,,,,,,,,,,,,,,,,,,,,,,,,,,,,,,,,,,,,,,,,,,,,,,,,,,,,,,,,,,,,,,,,,,,,,,,,,,,,,,,,,,,,,,,,,,,,,,,,,,,,,,,,,,,,,,,,,,,,,,,,,,,,,,,,,,,,,,,,,,,,,,,,,,,,,
0,41,41,92,1,,610bb066fa8d2a5647a40c77,62c539a32c3cf42a78b91f2a,2022-07-06_09h30.03.272,Colour_Asymmetry_Pilot,2022.1.3,Win32,59.79788315,62c50e9c1127f2cd403a315f,,,,,,,,,,,,,,,,,,,,,,,,,,,,,,,,,,,,,,,,,,,,,,,,,,,,,,,,,,,,,,,,,,,,,,,,,,,,,,,,,,,,,,,,,,,,,,,,,,,,,,,,,,,,,,,,,,,,,,,,,,,,,,,,,,,,,,,,,,,,,,,,,,,,,,,,,,,,,,,,,,,
0,42,42,27,1,,610bb066fa8d2a5647a40c77,62c539a32c3cf42a78b91f2a,2022-07-06_09h30.03.272,Colour_Asymmetry_Pilot,2022.1.3,Win32,59.79788315,62c50e9c1127f2cd403a315f,,,,,,,,,,,,,,,,,,,,,,,,,,,,,,,,,,,,,,,,,,,,,,,,,,,,,,,,,,,,,,,,,,,,,,,,,,,,,,,,,,,,,,,,,,,,,,,,,,,,,,,,,,,,,,,,,,,,,,,,,,,,,,,,,,,,,,,,,,,,,,,,,,,,,,,,,,,,,,,,,,,
0,43,43,69,1,,610bb066fa8d2a5647a40c77,62c539a32c3cf42a78b91f2a,2022-07-06_09h30.03.272,Colour_Asymmetry_Pilot,2022.1.3,Win32,59.79788315,62c50e9c1127f2cd403a315f,,,,,,,,,,,,,,,,,,,,,,,,,,,,,,,,,,,,,,,,,,,,,,,,,,,,,,,,,,,,,,,,,,,,,,,,,,,,,,,,,,,,,,,,,,,,,,,,,,,,,,,,,,,,,,,,,,,,,,,,,,,,,,,,,,,,,,,,,,,,,,,,,,,,,,,,,,,,,,,,,,,
0,44,44,50,1,,610bb066fa8d2a5647a40c77,62c539a32c3cf42a78b91f2a,2022-07-06_09h30.03.272,Colour_Asymmetry_Pilot,2022.1.3,Win32,59.79788315,62c50e9c1127f2cd403a315f,,,,,,,,,,,,,,,,,,,,,,,,,,,,,,,,,,,,,,,,,,,,,,,,,,,,,,,,,,,,,,,,,,,,,,,,,,,,,,,,,,,,,,,,,,,,,,,,,,,,,,,,,,,,,,,,,,,,,,,,,,,,,,,,,,,,,,,,,,,,,,,,,,,,,,,,,,,,,,,,,,,
0,45,45,9,1,,610bb066fa8d2a5647a40c77,62c539a32c3cf42a78b91f2a,2022-07-06_09h30.03.272,Colour_Asymmetry_Pilot,2022.1.3,Win32,59.79788315,62c50e9c1127f2cd403a315f,,,,,,,,,,,,,,,,,,,,,,,,,,,,,,,,,,,,,,,,,,,,,,,,,,,,,,,,,,,,,,,,,,,,,,,,,,,,,,,,,,,,,,,,,,,,,,,,,,,,,,,,,,,,,,,,,,,,,,,,,,,,,,,,,,,,,,,,,,,,,,,,,,,,,,,,,,,,,,,,,,,
0,46,46,34,1,,610bb066fa8d2a5647a40c77,62c539a32c3cf42a78b91f2a,2022-07-06_09h30.03.272,Colour_Asymmetry_Pilot,2022.1.3,Win32,59.79788315,62c50e9c1127f2cd403a315f,,,,,,,,,,,,,,,,,,,,,,,,,,,,,,,,,,,,,,,,,,,,,,,,,,,,,,,,,,,,,,,,,,,,,,,,,,,,,,,,,,,,,,,,,,,,,,,,,,,,,,,,,,,,,,,,,,,,,,,,,,,,,,,,,,,,,,,,,,,,,,,,,,,,,,,,,,,,,,,,,,,
0,47,47,51,1,,610bb066fa8d2a5647a40c77,62c539a32c3cf42a78b91f2a,2022-07-06_09h30.03.272,Colour_Asymmetry_Pilot,2022.1.3,Win32,59.79788315,62c50e9c1127f2cd403a315f,,,,,,,,,,,,,,,,,,,,,,,,,,,,,,,,,,,,,,,,,,,,,,,,,,,,,,,,,,,,,,,,,,,,,,,,,,,,,,,,,,,,,,,,,,,,,,,,,,,,,,,,,,,,,,,,,,,,,,,,,,,,,,,,,,,,,,,,,,,,,,,,,,,,,,,,,,,,,,,,,,,
0,48,48,33,1,,610bb066fa8d2a5647a40c77,62c539a32c3cf42a78b91f2a,2022-07-06_09h30.03.272,Colour_Asymmetry_Pilot,2022.1.3,Win32,59.79788315,62c50e9c1127f2cd403a315f,,,,,,,,,,,,,,,,,,,,,,,,,,,,,,,,,,,,,,,,,,,,,,,,,,,,,,,,,,,,,,,,,,,,,,,,,,,,,,,,,,,,,,,,,,,,,,,,,,,,,,,,,,,,,,,,,,,,,,,,,,,,,,,,,,,,,,,,,,,,,,,,,,,,,,,,,,,,,,,,,,,
0,49,49,3,1,,610bb066fa8d2a5647a40c77,62c539a32c3cf42a78b91f2a,2022-07-06_09h30.03.272,Colour_Asymmetry_Pilot,2022.1.3,Win32,59.79788315,62c50e9c1127f2cd403a315f,,,,,,,,,,,,,,,,,,,,,,,,,,,,,,,,,,,,,,,,,,,,,,,,,,,,,,,,,,,,,,,,,,,,,,,,,,,,,,,,,,,,,,,,,,,,,,,,,,,,,,,,,,,,,,,,,,,,,,,,,,,,,,,,,,,,,,,,,,,,,,,,,,,,,,,,,,,,,,,,,,,
0,50,50,18,1,,610bb066fa8d2a5647a40c77,62c539a32c3cf42a78b91f2a,2022-07-06_09h30.03.272,Colour_Asymmetry_Pilot,2022.1.3,Win32,59.79788315,62c50e9c1127f2cd403a315f,,,,,,,,,,,,,,,,,,,,,,,,,,,,,,,,,,,,,,,,,,,,,,,,,,,,,,,,,,,,,,,,,,,,,,,,,,,,,,,,,,,,,,,,,,,,,,,,,,,,,,,,,,,,,,,,,,,,,,,,,,,,,,,,,,,,,,,,,,,,,,,,,,,,,,,,,,,,,,,,,,,
0,51,51,36,1,,610bb066fa8d2a5647a40c77,62c539a32c3cf42a78b91f2a,2022-07-06_09h30.03.272,Colour_Asymmetry_Pilot,2022.1.3,Win32,59.79788315,62c50e9c1127f2cd403a315f,,,,,,,,,,,,,,,,,,,,,,,,,,,,,,,,,,,,,,,,,,,,,,,,,,,,,,,,,,,,,,,,,,,,,,,,,,,,,,,,,,,,,,,,,,,,,,,,,,,,,,,,,,,,,,,,,,,,,,,,,,,,,,,,,,,,,,,,,,,,,,,,,,,,,,,,,,,,,,,,,,,
0,52,52,40,1,,610bb066fa8d2a5647a40c77,62c539a32c3cf42a78b91f2a,2022-07-06_09h30.03.272,Colour_Asymmetry_Pilot,2022.1.3,Win32,59.79788315,62c50e9c1127f2cd403a315f,,,,,,,,,,,,,,,,,,,,,,,,,,,,,,,,,,,,,,,,,,,,,,,,,,,,,,,,,,,,,,,,,,,,,,,,,,,,,,,,,,,,,,,,,,,,,,,,,,,,,,,,,,,,,,,,,,,,,,,,,,,,,,,,,,,,,,,,,,,,,,,,,,,,,,,,,,,,,,,,,,,
0,53,53,81,1,,610bb066fa8d2a5647a40c77,62c539a32c3cf42a78b91f2a,2022-07-06_09h30.03.272,Colour_Asymmetry_Pilot,2022.1.3,Win32,59.79788315,62c50e9c1127f2cd403a315f,,,,,,,,,,,,,,,,,,,,,,,,,,,,,,,,,,,,,,,,,,,,,,,,,,,,,,,,,,,,,,,,,,,,,,,,,,,,,,,,,,,,,,,,,,,,,,,,,,,,,,,,,,,,,,,,,,,,,,,,,,,,,,,,,,,,,,,,,,,,,,,,,,,,,,,,,,,,,,,,,,,
0,54,54,4,1,,610bb066fa8d2a5647a40c77,62c539a32c3cf42a78b91f2a,2022-07-06_09h30.03.272,Colour_Asymmetry_Pilot,2022.1.3,Win32,59.79788315,62c50e9c1127f2cd403a315f,,,,,,,,,,,,,,,,,,,,,,,,,,,,,,,,,,,,,,,,,,,,,,,,,,,,,,,,,,,,,,,,,,,,,,,,,,,,,,,,,,,,,,,,,,,,,,,,,,,,,,,,,,,,,,,,,,,,,,,,,,,,,,,,,,,,,,,,,,,,,,,,,,,,,,,,,,,,,,,,,,,
0,55,55,44,1,,610bb066fa8d2a5647a40c77,62c539a32c3cf42a78b91f2a,2022-07-06_09h30.03.272,Colour_Asymmetry_Pilot,2022.1.3,Win32,59.79788315,62c50e9c1127f2cd403a315f,,,,,,,,,,,,,,,,,,,,,,,,,,,,,,,,,,,,,,,,,,,,,,,,,,,,,,,,,,,,,,,,,,,,,,,,,,,,,,,,,,,,,,,,,,,,,,,,,,,,,,,,,,,,,,,,,,,,,,,,,,,,,,,,,,,,,,,,,,,,,,,,,,,,,,,,,,,,,,,,,,,
0,56,56,86,1,,610bb066fa8d2a5647a40c77,62c539a32c3cf42a78b91f2a,2022-07-06_09h30.03.272,Colour_Asymmetry_Pilot,2022.1.3,Win32,59.79788315,62c50e9c1127f2cd403a315f,,,,,,,,,,,,,,,,,,,,,,,,,,,,,,,,,,,,,,,,,,,,,,,,,,,,,,,,,,,,,,,,,,,,,,,,,,,,,,,,,,,,,,,,,,,,,,,,,,,,,,,,,,,,,,,,,,,,,,,,,,,,,,,,,,,,,,,,,,,,,,,,,,,,,,,,,,,,,,,,,,,
0,57,57,61,1,,610bb066fa8d2a5647a40c77,62c539a32c3cf42a78b91f2a,2022-07-06_09h30.03.272,Colour_Asymmetry_Pilot,2022.1.3,Win32,59.79788315,62c50e9c1127f2cd403a315f,,,,,,,,,,,,,,,,,,,,,,,,,,,,,,,,,,,,,,,,,,,,,,,,,,,,,,,,,,,,,,,,,,,,,,,,,,,,,,,,,,,,,,,,,,,,,,,,,,,,,,,,,,,,,,,,,,,,,,,,,,,,,,,,,,,,,,,,,,,,,,,,,,,,,,,,,,,,,,,,,,,
0,58,58,14,1,,610bb066fa8d2a5647a40c77,62c539a32c3cf42a78b91f2a,2022-07-06_09h30.03.272,Colour_Asymmetry_Pilot,2022.1.3,Win32,59.79788315,62c50e9c1127f2cd403a315f,,,,,,,,,,,,,,,,,,,,,,,,,,,,,,,,,,,,,,,,,,,,,,,,,,,,,,,,,,,,,,,,,,,,,,,,,,,,,,,,,,,,,,,,,,,,,,,,,,,,,,,,,,,,,,,,,,,,,,,,,,,,,,,,,,,,,,,,,,,,,,,,,,,,,,,,,,,,,,,,,,,
0,59,59,85,1,,610bb066fa8d2a5647a40c77,62c539a32c3cf42a78b91f2a,2022-07-06_09h30.03.272,Colour_Asymmetry_Pilot,2022.1.3,Win32,59.79788315,62c50e9c1127f2cd403a315f,,,,,,,,,,,,,,,,,,,,,,,,,,,,,,,,,,,,,,,,,,,,,,,,,,,,,,,,,,,,,,,,,,,,,,,,,,,,,,,,,,,,,,,,,,,,,,,,,,,,,,,,,,,,,,,,,,,,,,,,,,,,,,,,,,,,,,,,,,,,,,,,,,,,,,,,,,,,,,,,,,,
0,60,60,15,1,,610bb066fa8d2a5647a40c77,62c539a32c3cf42a78b91f2a,2022-07-06_09h30.03.272,Colour_Asymmetry_Pilot,2022.1.3,Win32,59.79788315,62c50e9c1127f2cd403a315f,,,,,,,,,,,,,,,,,,,,,,,,,,,,,,,,,,,,,,,,,,,,,,,,,,,,,,,,,,,,,,,,,,,,,,,,,,,,,,,,,,,,,,,,,,,,,,,,,,,,,,,,,,,,,,,,,,,,,,,,,,,,,,,,,,,,,,,,,,,,,,,,,,,,,,,,,,,,,,,,,,,
0,61,61,57,1,,610bb066fa8d2a5647a40c77,62c539a32c3cf42a78b91f2a,2022-07-06_09h30.03.272,Colour_Asymmetry_Pilot,2022.1.3,Win32,59.79788315,62c50e9c1127f2cd403a315f,,,,,,,,,,,,,,,,,,,,,,,,,,,,,,,,,,,,,,,,,,,,,,,,,,,,,,,,,,,,,,,,,,,,,,,,,,,,,,,,,,,,,,,,,,,,,,,,,,,,,,,,,,,,,,,,,,,,,,,,,,,,,,,,,,,,,,,,,,,,,,,,,,,,,,,,,,,,,,,,,,,
0,62,62,47,1,,610bb066fa8d2a5647a40c77,62c539a32c3cf42a78b91f2a,2022-07-06_09h30.03.272,Colour_Asymmetry_Pilot,2022.1.3,Win32,59.79788315,62c50e9c1127f2cd403a315f,,,,,,,,,,,,,,,,,,,,,,,,,,,,,,,,,,,,,,,,,,,,,,,,,,,,,,,,,,,,,,,,,,,,,,,,,,,,,,,,,,,,,,,,,,,,,,,,,,,,,,,,,,,,,,,,,,,,,,,,,,,,,,,,,,,,,,,,,,,,,,,,,,,,,,,,,,,,,,,,,,,
0,63,63,91,1,,610bb066fa8d2a5647a40c77,62c539a32c3cf42a78b91f2a,2022-07-06_09h30.03.272,Colour_Asymmetry_Pilot,2022.1.3,Win32,59.79788315,62c50e9c1127f2cd403a315f,,,,,,,,,,,,,,,,,,,,,,,,,,,,,,,,,,,,,,,,,,,,,,,,,,,,,,,,,,,,,,,,,,,,,,,,,,,,,,,,,,,,,,,,,,,,,,,,,,,,,,,,,,,,,,,,,,,,,,,,,,,,,,,,,,,,,,,,,,,,,,,,,,,,,,,,,,,,,,,,,,,
0,64,64,64,1,,610bb066fa8d2a5647a40c77,62c539a32c3cf42a78b91f2a,2022-07-06_09h30.03.272,Colour_Asymmetry_Pilot,2022.1.3,Win32,59.79788315,62c50e9c1127f2cd403a315f,,,,,,,,,,,,,,,,,,,,,,,,,,,,,,,,,,,,,,,,,,,,,,,,,,,,,,,,,,,,,,,,,,,,,,,,,,,,,,,,,,,,,,,,,,,,,,,,,,,,,,,,,,,,,,,,,,,,,,,,,,,,,,,,,,,,,,,,,,,,,,,,,,,,,,,,,,,,,,,,,,,
0,65,65,6,1,,610bb066fa8d2a5647a40c77,62c539a32c3cf42a78b91f2a,2022-07-06_09h30.03.272,Colour_Asymmetry_Pilot,2022.1.3,Win32,59.79788315,62c50e9c1127f2cd403a315f,,,,,,,,,,,,,,,,,,,,,,,,,,,,,,,,,,,,,,,,,,,,,,,,,,,,,,,,,,,,,,,,,,,,,,,,,,,,,,,,,,,,,,,,,,,,,,,,,,,,,,,,,,,,,,,,,,,,,,,,,,,,,,,,,,,,,,,,,,,,,,,,,,,,,,,,,,,,,,,,,,,
0,66,66,28,1,,610bb066fa8d2a5647a40c77,62c539a32c3cf42a78b91f2a,2022-07-06_09h30.03.272,Colour_Asymmetry_Pilot,2022.1.3,Win32,59.79788315,62c50e9c1127f2cd403a315f,,,,,,,,,,,,,,,,,,,,,,,,,,,,,,,,,,,,,,,,,,,,,,,,,,,,,,,,,,,,,,,,,,,,,,,,,,,,,,,,,,,,,,,,,,,,,,,,,,,,,,,,,,,,,,,,,,,,,,,,,,,,,,,,,,,,,,,,,,,,,,,,,,,,,,,,,,,,,,,,,,,
0,67,67,1,1,,610bb066fa8d2a5647a40c77,62c539a32c3cf42a78b91f2a,2022-07-06_09h30.03.272,Colour_Asymmetry_Pilot,2022.1.3,Win32,59.79788315,62c50e9c1127f2cd403a315f,,,,,,,,,,,,,,,,,,,,,,,,,,,,,,,,,,,,,,,,,,,,,,,,,,,,,,,,,,,,,,,,,,,,,,,,,,,,,,,,,,,,,,,,,,,,,,,,,,,,,,,,,,,,,,,,,,,,,,,,,,,,,,,,,,,,,,,,,,,,,,,,,,,,,,,,,,,,,,,,,,,
0,68,68,37,1,,610bb066fa8d2a5647a40c77,62c539a32c3cf42a78b91f2a,2022-07-06_09h30.03.272,Colour_Asymmetry_Pilot,2022.1.3,Win32,59.79788315,62c50e9c1127f2cd403a315f,,,,,,,,,,,,,,,,,,,,,,,,,,,,,,,,,,,,,,,,,,,,,,,,,,,,,,,,,,,,,,,,,,,,,,,,,,,,,,,,,,,,,,,,,,,,,,,,,,,,,,,,,,,,,,,,,,,,,,,,,,,,,,,,,,,,,,,,,,,,,,,,,,,,,,,,,,,,,,,,,,,
0,69,69,77,1,,610bb066fa8d2a5647a40c77,62c539a32c3cf42a78b91f2a,2022-07-06_09h30.03.272,Colour_Asymmetry_Pilot,2022.1.3,Win32,59.79788315,62c50e9c1127f2cd403a315f,,,,,,,,,,,,,,,,,,,,,,,,,,,,,,,,,,,,,,,,,,,,,,,,,,,,,,,,,,,,,,,,,,,,,,,,,,,,,,,,,,,,,,,,,,,,,,,,,,,,,,,,,,,,,,,,,,,,,,,,,,,,,,,,,,,,,,,,,,,,,,,,,,,,,,,,,,,,,,,,,,,
0,70,70,16,1,,610bb066fa8d2a5647a40c77,62c539a32c3cf42a78b91f2a,2022-07-06_09h30.03.272,Colour_Asymmetry_Pilot,2022.1.3,Win32,59.79788315,62c50e9c1127f2cd403a315f,,,,,,,,,,,,,,,,,,,,,,,,,,,,,,,,,,,,,,,,,,,,,,,,,,,,,,,,,,,,,,,,,,,,,,,,,,,,,,,,,,,,,,,,,,,,,,,,,,,,,,,,,,,,,,,,,,,,,,,,,,,,,,,,,,,,,,,,,,,,,,,,,,,,,,,,,,,,,,,,,,,
0,71,71,49,1,,610bb066fa8d2a5647a40c77,62c539a32c3cf42a78b91f2a,2022-07-06_09h30.03.272,Colour_Asymmetry_Pilot,2022.1.3,Win32,59.79788315,62c50e9c1127f2cd403a315f,,,,,,,,,,,,,,,,,,,,,,,,,,,,,,,,,,,,,,,,,,,,,,,,,,,,,,,,,,,,,,,,,,,,,,,,,,,,,,,,,,,,,,,,,,,,,,,,,,,,,,,,,,,,,,,,,,,,,,,,,,,,,,,,,,,,,,,,,,,,,,,,,,,,,,,,,,,,,,,,,,,
0,72,72,70,1,,610bb066fa8d2a5647a40c77,62c539a32c3cf42a78b91f2a,2022-07-06_09h30.03.272,Colour_Asymmetry_Pilot,2022.1.3,Win32,59.79788315,62c50e9c1127f2cd403a315f,,,,,,,,,,,,,,,,,,,,,,,,,,,,,,,,,,,,,,,,,,,,,,,,,,,,,,,,,,,,,,,,,,,,,,,,,,,,,,,,,,,,,,,,,,,,,,,,,,,,,,,,,,,,,,,,,,,,,,,,,,,,,,,,,,,,,,,,,,,,,,,,,,,,,,,,,,,,,,,,,,,
0,73,73,74,1,,610bb066fa8d2a5647a40c77,62c539a32c3cf42a78b91f2a,2022-07-06_09h30.03.272,Colour_Asymmetry_Pilot,2022.1.3,Win32,59.79788315,62c50e9c1127f2cd403a315f,,,,,,,,,,,,,,,,,,,,,,,,,,,,,,,,,,,,,,,,,,,,,,,,,,,,,,,,,,,,,,,,,,,,,,,,,,,,,,,,,,,,,,,,,,,,,,,,,,,,,,,,,,,,,,,,,,,,,,,,,,,,,,,,,,,,,,,,,,,,,,,,,,,,,,,,,,,,,,,,,,,
0,74,74,32,1,,610bb066fa8d2a5647a40c77,62c539a32c3cf42a78b91f2a,2022-07-06_09h30.03.272,Colour_Asymmetry_Pilot,2022.1.3,Win32,59.79788315,62c50e9c1127f2cd403a315f,,,,,,,,,,,,,,,,,,,,,,,,,,,,,,,,,,,,,,,,,,,,,,,,,,,,,,,,,,,,,,,,,,,,,,,,,,,,,,,,,,,,,,,,,,,,,,,,,,,,,,,,,,,,,,,,,,,,,,,,,,,,,,,,,,,,,,,,,,,,,,,,,,,,,,,,,,,,,,,,,,,
0,75,75,53,1,,610bb066fa8d2a5647a40c77,62c539a32c3cf42a78b91f2a,2022-07-06_09h30.03.272,Colour_Asymmetry_Pilot,2022.1.3,Win32,59.79788315,62c50e9c1127f2cd403a315f,,,,,,,,,,,,,,,,,,,,,,,,,,,,,,,,,,,,,,,,,,,,,,,,,,,,,,,,,,,,,,,,,,,,,,,,,,,,,,,,,,,,,,,,,,,,,,,,,,,,,,,,,,,,,,,,,,,,,,,,,,,,,,,,,,,,,,,,,,,,,,,,,,,,,,,,,,,,,,,,,,,
0,76,76,83,1,,610bb066fa8d2a5647a40c77,62c539a32c3cf42a78b91f2a,2022-07-06_09h30.03.272,Colour_Asymmetry_Pilot,2022.1.3,Win32,59.79788315,62c50e9c1127f2cd403a315f,,,,,,,,,,,,,,,,,,,,,,,,,,,,,,,,,,,,,,,,,,,,,,,,,,,,,,,,,,,,,,,,,,,,,,,,,,,,,,,,,,,,,,,,,,,,,,,,,,,,,,,,,,,,,,,,,,,,,,,,,,,,,,,,,,,,,,,,,,,,,,,,,,,,,,,,,,,,,,,,,,,
0,77,77,90,1,,610bb066fa8d2a5647a40c77,62c539a32c3cf42a78b91f2a,2022-07-06_09h30.03.272,Colour_Asymmetry_Pilot,2022.1.3,Win32,59.79788315,62c50e9c1127f2cd403a315f,,,,,,,,,,,,,,,,,,,,,,,,,,,,,,,,,,,,,,,,,,,,,,,,,,,,,,,,,,,,,,,,,,,,,,,,,,,,,,,,,,,,,,,,,,,,,,,,,,,,,,,,,,,,,,,,,,,,,,,,,,,,,,,,,,,,,,,,,,,,,,,,,,,,,,,,,,,,,,,,,,,
0,78,78,19,1,,610bb066fa8d2a5647a40c77,62c539a32c3cf42a78b91f2a,2022-07-06_09h30.03.272,Colour_Asymmetry_Pilot,2022.1.3,Win32,59.79788315,62c50e9c1127f2cd403a315f,,,,,,,,,,,,,,,,,,,,,,,,,,,,,,,,,,,,,,,,,,,,,,,,,,,,,,,,,,,,,,,,,,,,,,,,,,,,,,,,,,,,,,,,,,,,,,,,,,,,,,,,,,,,,,,,,,,,,,,,,,,,,,,,,,,,,,,,,,,,,,,,,,,,,,,,,,,,,,,,,,,
0,79,79,54,1,,610bb066fa8d2a5647a40c77,62c539a32c3cf42a78b91f2a,2022-07-06_09h30.03.272,Colour_Asymmetry_Pilot,2022.1.3,Win32,59.79788315,62c50e9c1127f2cd403a315f,,,,,,,,,,,,,,,,,,,,,,,,,,,,,,,,,,,,,,,,,,,,,,,,,,,,,,,,,,,,,,,,,,,,,,,,,,,,,,,,,,,,,,,,,,,,,,,,,,,,,,,,,,,,,,,,,,,,,,,,,,,,,,,,,,,,,,,,,,,,,,,,,,,,,,,,,,,,,,,,,,,
0,80,80,17,1,,610bb066fa8d2a5647a40c77,62c539a32c3cf42a78b91f2a,2022-07-06_09h30.03.272,Colour_Asymmetry_Pilot,2022.1.3,Win32,59.79788315,62c50e9c1127f2cd403a315f,,,,,,,,,,,,,,,,,,,,,,,,,,,,,,,,,,,,,,,,,,,,,,,,,,,,,,,,,,,,,,,,,,,,,,,,,,,,,,,,,,,,,,,,,,,,,,,,,,,,,,,,,,,,,,,,,,,,,,,,,,,,,,,,,,,,,,,,,,,,,,,,,,,,,,,,,,,,,,,,,,,
0,81,81,38,1,,610bb066fa8d2a5647a40c77,62c539a32c3cf42a78b91f2a,2022-07-06_09h30.03.272,Colour_Asymmetry_Pilot,2022.1.3,Win32,59.79788315,62c50e9c1127f2cd403a315f,,,,,,,,,,,,,,,,,,,,,,,,,,,,,,,,,,,,,,,,,,,,,,,,,,,,,,,,,,,,,,,,,,,,,,,,,,,,,,,,,,,,,,,,,,,,,,,,,,,,,,,,,,,,,,,,,,,,,,,,,,,,,,,,,,,,,,,,,,,,,,,,,,,,,,,,,,,,,,,,,,,
0,82,82,11,1,,610bb066fa8d2a5647a40c77,62c539a32c3cf42a78b91f2a,2022-07-06_09h30.03.272,Colour_Asymmetry_Pilot,2022.1.3,Win32,59.79788315,62c50e9c1127f2cd403a315f,,,,,,,,,,,,,,,,,,,,,,,,,,,,,,,,,,,,,,,,,,,,,,,,,,,,,,,,,,,,,,,,,,,,,,,,,,,,,,,,,,,,,,,,,,,,,,,,,,,,,,,,,,,,,,,,,,,,,,,,,,,,,,,,,,,,,,,,,,,,,,,,,,,,,,,,,,,,,,,,,,,
0,83,83,5,1,,610bb066fa8d2a5647a40c77,62c539a32c3cf42a78b91f2a,2022-07-06_09h30.03.272,Colour_Asymmetry_Pilot,2022.1.3,Win32,59.79788315,62c50e9c1127f2cd403a315f,,,,,,,,,,,,,,,,,,,,,,,,,,,,,,,,,,,,,,,,,,,,,,,,,,,,,,,,,,,,,,,,,,,,,,,,,,,,,,,,,,,,,,,,,,,,,,,,,,,,,,,,,,,,,,,,,,,,,,,,,,,,,,,,,,,,,,,,,,,,,,,,,,,,,,,,,,,,,,,,,,,
0,84,84,87,1,,610bb066fa8d2a5647a40c77,62c539a32c3cf42a78b91f2a,2022-07-06_09h30.03.272,Colour_Asymmetry_Pilot,2022.1.3,Win32,59.79788315,62c50e9c1127f2cd403a315f,,,,,,,,,,,,,,,,,,,,,,,,,,,,,,,,,,,,,,,,,,,,,,,,,,,,,,,,,,,,,,,,,,,,,,,,,,,,,,,,,,,,,,,,,,,,,,,,,,,,,,,,,,,,,,,,,,,,,,,,,,,,,,,,,,,,,,,,,,,,,,,,,,,,,,,,,,,,,,,,,,,
0,85,85,39,1,,610bb066fa8d2a5647a40c77,62c539a32c3cf42a78b91f2a,2022-07-06_09h30.03.272,Colour_Asymmetry_Pilot,2022.1.3,Win32,59.79788315,62c50e9c1127f2cd403a315f,,,,,,,,,,,,,,,,,,,,,,,,,,,,,,,,,,,,,,,,,,,,,,,,,,,,,,,,,,,,,,,,,,,,,,,,,,,,,,,,,,,,,,,,,,,,,,,,,,,,,,,,,,,,,,,,,,,,,,,,,,,,,,,,,,,,,,,,,,,,,,,,,,,,,,,,,,,,,,,,,,,
0,86,86,67,1,,610bb066fa8d2a5647a40c77,62c539a32c3cf42a78b91f2a,2022-07-06_09h30.03.272,Colour_Asymmetry_Pilot,2022.1.3,Win32,59.79788315,62c50e9c1127f2cd403a315f,,,,,,,,,,,,,,,,,,,,,,,,,,,,,,,,,,,,,,,,,,,,,,,,,,,,,,,,,,,,,,,,,,,,,,,,,,,,,,,,,,,,,,,,,,,,,,,,,,,,,,,,,,,,,,,,,,,,,,,,,,,,,,,,,,,,,,,,,,,,,,,,,,,,,,,,,,,,,,,,,,,
0,87,87,82,1,,610bb066fa8d2a5647a40c77,62c539a32c3cf42a78b91f2a,2022-07-06_09h30.03.272,Colour_Asymmetry_Pilot,2022.1.3,Win32,59.79788315,62c50e9c1127f2cd403a315f,,,,,,,,,,,,,,,,,,,,,,,,,,,,,,,,,,,,,,,,,,,,,,,,,,,,,,,,,,,,,,,,,,,,,,,,,,,,,,,,,,,,,,,,,,,,,,,,,,,,,,,,,,,,,,,,,,,,,,,,,,,,,,,,,,,,,,,,,,,,,,,,,,,,,,,,,,,,,,,,,,,
0,88,88,66,1,,610bb066fa8d2a5647a40c77,62c539a32c3cf42a78b91f2a,2022-07-06_09h30.03.272,Colour_Asymmetry_Pilot,2022.1.3,Win32,59.79788315,62c50e9c1127f2cd403a315f,,,,,,,,,,,,,,,,,,,,,,,,,,,,,,,,,,,,,,,,,,,,,,,,,,,,,,,,,,,,,,,,,,,,,,,,,,,,,,,,,,,,,,,,,,,,,,,,,,,,,,,,,,,,,,,,,,,,,,,,,,,,,,,,,,,,,,,,,,,,,,,,,,,,,,,,,,,,,,,,,,,
0,89,89,45,1,,610bb066fa8d2a5647a40c77,62c539a32c3cf42a78b91f2a,2022-07-06_09h30.03.272,Colour_Asymmetry_Pilot,2022.1.3,Win32,59.79788315,62c50e9c1127f2cd403a315f,,,,,,,,,,,,,,,,,,,,,,,,,,,,,,,,,,,,,,,,,,,,,,,,,,,,,,,,,,,,,,,,,,,,,,,,,,,,,,,,,,,,,,,,,,,,,,,,,,,,,,,,,,,,,,,,,,,,,,,,,,,,,,,,,,,,,,,,,,,,,,,,,,,,,,,,,,,,,,,,,,,
0,90,90,8,1,,610bb066fa8d2a5647a40c77,62c539a32c3cf42a78b91f2a,2022-07-06_09h30.03.272,Colour_Asymmetry_Pilot,2022.1.3,Win32,59.79788315,62c50e9c1127f2cd403a315f,,,,,,,,,,,,,,,,,,,,,,,,,,,,,,,,,,,,,,,,,,,,,,,,,,,,,,,,,,,,,,,,,,,,,,,,,,,,,,,,,,,,,,,,,,,,,,,,,,,,,,,,,,,,,,,,,,,,,,,,,,,,,,,,,,,,,,,,,,,,,,,,,,,,,,,,,,,,,,,,,,,
0,91,91,71,1,,610bb066fa8d2a5647a40c77,62c539a32c3cf42a78b91f2a,2022-07-06_09h30.03.272,Colour_Asymmetry_Pilot,2022.1.3,Win32,59.79788315,62c50e9c1127f2cd403a315f,,,,,,,,,,,,,,,,,,,,,,,,,,,,,,,,,,,,,,,,,,,,,,,,,,,,,,,,,,,,,,,,,,,,,,,,,,,,,,,,,,,,,,,,,,,,,,,,,,,,,,,,,,,,,,,,,,,,,,,,,,,,,,,,,,,,,,,,,,,,,,,,,,,,,,,,,,,,,,,,,,,
0,92,92,0,1,,610bb066fa8d2a5647a40c77,62c539a32c3cf42a78b91f2a,2022-07-06_09h30.03.272,Colour_Asymmetry_Pilot,2022.1.3,Win32,59.79788315,62c50e9c1127f2cd403a315f,,,,,,,,,,,,,,,,,,,,,,,,,,,,,,,,,,,,,,,,,,,,,,,,,,,,,,,,,,,,,,,,,,,,,,,,,,,,,,,,,,,,,,,,,,,,,,,,,,,,,,,,,,,,,,,,,,,,,,,,,,,,,,,,,,,,,,,,,,,,,,,,,,,,,,,,,,,,,,,,,,,
,,,,,,610bb066fa8d2a5647a40c77,62c539a32c3cf42a78b91f2a,2022-07-06_09h30.03.272,Colour_Asymmetry_Pilot,2022.1.3,Win32,59.79788315,62c50e9c1127f2cd403a315f,0,0,0,38,1,fourtwo,,,,,,,,,,,,,,,,,,,,,,,,,,,,,,,,,,,,,,,,,,,,,,,,,,,,,,,,,,,,,,,,,,,,,,,,,,,,,,,,,,,,,,,,,,,,,,,,,,,,,,,,,,,,,,,,,,,,,,,,,,,,,,,,,,,,,,,,,,,,,,,,,,,,,,,,,,,,,
,,,,,,610bb066fa8d2a5647a40c77,62c539a32c3cf42a78b91f2a,2022-07-06_09h30.03.272,Colour_Asymmetry_Pilot,2022.1.3,Win32,59.79788315,62c50e9c1127f2cd403a315f,0,1,1,82,1,twoone,,,,,,,,,,,,,,,,,,,,,,,,,,,,,,,,,,,,,,,,,,,,,,,,,,,,,,,,,,,,,,,,,,,,,,,,,,,,,,,,,,,,,,,,,,,,,,,,,,,,,,,,,,,,,,,,,,,,,,,,,,,,,,,,,,,,,,,,,,,,,,,,,,,,,,,,,,,,,
,,,,,,610bb066fa8d2a5647a40c77,62c539a32c3cf42a78b91f2a,2022-07-06_09h30.03.272,Colour_Asymmetry_Pilot,2022.1.3,Win32,59.79788315,62c50e9c1127f2cd403a315f,0,2,2,161,1,onethree,,,,,,,,,,,,,,,,,,,,,,,,,,,,,,,,,,,,,,,,,,,,,,,,,,,,,,,,,,,,,,,,,,,,,,,,,,,,,,,,,,,,,,,,,,,,,,,,,,,,,,,,,,,,,,,,,,,,,,,,,,,,,,,,,,,,,,,,,,,,,,,,,,,,,,,,,,,,,
,,,,,,610bb066fa8d2a5647a40c77,62c539a32c3cf42a78b91f2a,2022-07-06_09h30.03.272,Colour_Asymmetry_Pilot,2022.1.3,Win32,59.79788315,62c50e9c1127f2cd403a315f,0,3,3,34,1,twoone,,,,,,,,,,,,,,,,,,,,,,,,,,,,,,,,,,,,,,,,,,,,,,,,,,,,,,,,,,,,,,,,,,,,,,,,,,,,,,,,,,,,,,,,,,,,,,,,,,,,,,,,,,,,,,,,,,,,,,,,,,,,,,,,,,,,,,,,,,,,,,,,,,,,,,,,,,,,,
,,,,,,610bb066fa8d2a5647a40c77,62c539a32c3cf42a78b91f2a,2022-07-06_09h30.03.272,Colour_Asymmetry_Pilot,2022.1.3,Win32,59.79788315,62c50e9c1127f2cd403a315f,0,4,4,159,1,fourthree,,,,,,,,,,,,,,,,,,,,,,,,,,,,,,,,,,,,,,,,,,,,,,,,,,,,,,,,,,,,,,,,,,,,,,,,,,,,,,,,,,,,,,,,,,,,,,,,,,,,,,,,,,,,,,,,,,,,,,,,,,,,,,,,,,,,,,,,,,,,,,,,,,,,,,,,,,,,,
,,,,,,610bb066fa8d2a5647a40c77,62c539a32c3cf42a78b91f2a,2022-07-06_09h30.03.272,Colour_Asymmetry_Pilot,2022.1.3,Win32,59.79788315,62c50e9c1127f2cd403a315f,0,5,5,125,1,threefour,,,,,,,,,,,,,,,,,,,,,,,,,,,,,,,,,,,,,,,,,,,,,,,,,,,,,,,,,,,,,,,,,,,,,,,,,,,,,,,,,,,,,,,,,,,,,,,,,,,,,,,,,,,,,,,,,,,,,,,,,,,,,,,,,,,,,,,,,,,,,,,,,,,,,,,,,,,,,
,,,,,,610bb066fa8d2a5647a40c77,62c539a32c3cf42a78b91f2a,2022-07-06_09h30.03.272,Colour_Asymmetry_Pilot,2022.1.3,Win32,59.79788315,62c50e9c1127f2cd403a315f,0,6,6,1,1,onethree,,,,,,,,,,,,,,,,,,,,,,,,,,,,,,,,,,,,,,,,,,,,,,,,,,,,,,,,,,,,,,,,,,,,,,,,,,,,,,,,,,,,,,,,,,,,,,,,,,,,,,,,,,,,,,,,,,,,,,,,,,,,,,,,,,,,,,,,,,,,,,,,,,,,,,,,,,,,,
,,,,,,610bb066fa8d2a5647a40c77,62c539a32c3cf42a78b91f2a,2022-07-06_09h30.03.272,Colour_Asymmetry_Pilot,2022.1.3,Win32,59.79788315,62c50e9c1127f2cd403a315f,0,7,7,114,1,twoone,,,,,,,,,,,,,,,,,,,,,,,,,,,,,,,,,,,,,,,,,,,,,,,,,,,,,,,,,,,,,,,,,,,,,,,,,,,,,,,,,,,,,,,,,,,,,,,,,,,,,,,,,,,,,,,,,,,,,,,,,,,,,,,,,,,,,,,,,,,,,,,,,,,,,,,,,,,,,
,,,,,,610bb066fa8d2a5647a40c77,62c539a32c3cf42a78b91f2a,2022-07-06_09h30.03.272,Colour_Asymmetry_Pilot,2022.1.3,Win32,59.79788315,62c50e9c1127f2cd403a315f,0,8,8,138,1,twoone,,,,,,,,,,,,,,,,,,,,,,,,,,,,,,,,,,,,,,,,,,,,,,,,,,,,,,,,,,,,,,,,,,,,,,,,,,,,,,,,,,,,,,,,,,,,,,,,,,,,,,,,,,,,,,,,,,,,,,,,,,,,,,,,,,,,,,,,,,,,,,,,,,,,,,,,,,,,,
,,,,,,610bb066fa8d2a5647a40c77,62c539a32c3cf42a78b91f2a,2022-07-06_09h30.03.272,Colour_Asymmetry_Pilot,2022.1.3,Win32,59.79788315,62c50e9c1127f2cd403a315f,0,9,9,47,1,fourthree,,,,,,,,,,,,,,,,,,,,,,,,,,,,,,,,,,,,,,,,,,,,,,,,,,,,,,,,,,,,,,,,,,,,,,,,,,,,,,,,,,,,,,,,,,,,,,,,,,,,,,,,,,,,,,,,,,,,,,,,,,,,,,,,,,,,,,,,,,,,,,,,,,,,,,,,,,,,,
,,,,,,610bb066fa8d2a5647a40c77,62c539a32c3cf42a78b91f2a,2022-07-06_09h30.03.272,Colour_Asymmetry_Pilot,2022.1.3,Win32,59.79788315,62c50e9c1127f2cd403a315f,0,10,10,117,1,threefour,,,,,,,,,,,,,,,,,,,,,,,,,,,,,,,,,,,,,,,,,,,,,,,,,,,,,,,,,,,,,,,,,,,,,,,,,,,,,,,,,,,,,,,,,,,,,,,,,,,,,,,,,,,,,,,,,,,,,,,,,,,,,,,,,,,,,,,,,,,,,,,,,,,,,,,,,,,,,
,,,,,,610bb066fa8d2a5647a40c77,62c539a32c3cf42a78b91f2a,2022-07-06_09h30.03.272,Colour_Asymmetry_Pilot,2022.1.3,Win32,59.79788315,62c50e9c1127f2cd403a315f,0,11,11,53,1,threefour,,,,,,,,,,,,,,,,,,,,,,,,,,,,,,,,,,,,,,,,,,,,,,,,,,,,,,,,,,,,,,,,,,,,,,,,,,,,,,,,,,,,,,,,,,,,,,,,,,,,,,,,,,,,,,,,,,,,,,,,,,,,,,,,,,,,,,,,,,,,,,,,,,,,,,,,,,,,,
,,,,,,610bb066fa8d2a5647a40c77,62c539a32c3cf42a78b91f2a,2022-07-06_09h30.03.272,Colour_Asymmetry_Pilot,2022.1.3,Win32,59.79788315,62c50e9c1127f2cd403a315f,0,12,12,68,1,threeone,,,,,,,,,,,,,,,,,,,,,,,,,,,,,,,,,,,,,,,,,,,,,,,,,,,,,,,,,,,,,,,,,,,,,,,,,,,,,,,,,,,,,,,,,,,,,,,,,,,,,,,,,,,,,,,,,,,,,,,,,,,,,,,,,,,,,,,,,,,,,,,,,,,,,,,,,,,,,
,,,,,,610bb066fa8d2a5647a40c77,62c539a32c3cf42a78b91f2a,2022-07-06_09h30.03.272,Colour_Asymmetry_Pilot,2022.1.3,Win32,59.79788315,62c50e9c1127f2cd403a315f,0,13,13,127,1,fourthree,,,,,,,,,,,,,,,,,,,,,,,,,,,,,,,,,,,,,,,,,,,,,,,,,,,,,,,,,,,,,,,,,,,,,,,,,,,,,,,,,,,,,,,,,,,,,,,,,,,,,,,,,,,,,,,,,,,,,,,,,,,,,,,,,,,,,,,,,,,,,,,,,,,,,,,,,,,,,
,,,,,,610bb066fa8d2a5647a40c77,62c539a32c3cf42a78b91f2a,2022-07-06_09h30.03.272,Colour_Asymmetry_Pilot,2022.1.3,Win32,59.79788315,62c50e9c1127f2cd403a315f,0,14,14,30,1,fourtwo,,,,,,,,,,,,,,,,,,,,,,,,,,,,,,,,,,,,,,,,,,,,,,,,,,,,,,,,,,,,,,,,,,,,,,,,,,,,,,,,,,,,,,,,,,,,,,,,,,,,,,,,,,,,,,,,,,,,,,,,,,,,,,,,,,,,,,,,,,,,,,,,,,,,,,,,,,,,,
,,,,,,610bb066fa8d2a5647a40c77,62c539a32c3cf42a78b91f2a,2022-07-06_09h30.03.272,Colour_Asymmetry_Pilot,2022.1.3,Win32,59.79788315,62c50e9c1127f2cd403a315f,0,15,15,22,1,fourtwo,,,,,,,,,,,,,,,,,,,,,,,,,,,,,,,,,,,,,,,,,,,,,,,,,,,,,,,,,,,,,,,,,,,,,,,,,,,,,,,,,,,,,,,,,,,,,,,,,,,,,,,,,,,,,,,,,,,,,,,,,,,,,,,,,,,,,,,,,,,,,,,,,,,,,,,,,,,,,
,,,,,,610bb066fa8d2a5647a40c77,62c539a32c3cf42a78b91f2a,2022-07-06_09h30.03.272,Colour_Asymmetry_Pilot,2022.1.3,Win32,59.79788315,62c50e9c1127f2cd403a315f,0,16,16,33,1,onethree,,,,,,,,,,,,,,,,,,,,,,,,,,,,,,,,,,,,,,,,,,,,,,,,,,,,,,,,,,,,,,,,,,,,,,,,,,,,,,,,,,,,,,,,,,,,,,,,,,,,,,,,,,,,,,,,,,,,,,,,,,,,,,,,,,,,,,,,,,,,,,,,,,,,,,,,,,,,,
,,,,,,610bb066fa8d2a5647a40c77,62c539a32c3cf42a78b91f2a,2022-07-06_09h30.03.272,Colour_Asymmetry_Pilot,2022.1.3,Win32,59.79788315,62c50e9c1127f2cd403a315f,0,17,17,12,1,threeone,,,,,,,,,,,,,,,,,,,,,,,,,,,,,,,,,,,,,,,,,,,,,,,,,,,,,,,,,,,,,,,,,,,,,,,,,,,,,,,,,,,,,,,,,,,,,,,,,,,,,,,,,,,,,,,,,,,,,,,,,,,,,,,,,,,,,,,,,,,,,,,,,,,,,,,,,,,,,
,,,,,,610bb066fa8d2a5647a40c77,62c539a32c3cf42a78b91f2a,2022-07-06_09h30.03.272,Colour_Asymmetry_Pilot,2022.1.3,Win32,59.79788315,62c50e9c1127f2cd403a315f,0,18,18,136,1,onetwo,,,,,,,,,,,,,,,,,,,,,,,,,,,,,,,,,,,,,,,,,,,,,,,,,,,,,,,,,,,,,,,,,,,,,,,,,,,,,,,,,,,,,,,,,,,,,,,,,,,,,,,,,,,,,,,,,,,,,,,,,,,,,,,,,,,,,,,,,,,,,,,,,,,,,,,,,,,,,
,,,,,,610bb066fa8d2a5647a40c77,62c539a32c3cf42a78b91f2a,2022-07-06_09h30.03.272,Colour_Asymmetry_Pilot,2022.1.3,Win32,59.79788315,62c50e9c1127f2cd403a315f,0,19,19,102,1,fourtwo,,,,,,,,,,,,,,,,,,,,,,,,,,,,,,,,,,,,,,,,,,,,,,,,,,,,,,,,,,,,,,,,,,,,,,,,,,,,,,,,,,,,,,,,,,,,,,,,,,,,,,,,,,,,,,,,,,,,,,,,,,,,,,,,,,,,,,,,,,,,,,,,,,,,,,,,,,,,,
,,,,,,610bb066fa8d2a5647a40c77,62c539a32c3cf42a78b91f2a,2022-07-06_09h30.03.272,Colour_Asymmetry_Pilot,2022.1.3,Win32,59.79788315,62c50e9c1127f2cd403a315f,0,20,20,29,1,threefour,,,,,,,,,,,,,,,,,,,,,,,,,,,,,,,,,,,,,,,,,,,,,,,,,,,,,,,,,,,,,,,,,,,,,,,,,,,,,,,,,,,,,,,,,,,,,,,,,,,,,,,,,,,,,,,,,,,,,,,,,,,,,,,,,,,,,,,,,,,,,,,,,,,,,,,,,,,,,
,,,,,,610bb066fa8d2a5647a40c77,62c539a32c3cf42a78b91f2a,2022-07-06_09h30.03.272,Colour_Asymmetry_Pilot,2022.1.3,Win32,59.79788315,62c50e9c1127f2cd403a315f,0,21,21,49,1,onethree,,,,,,,,,,,,,,,,,,,,,,,,,,,,,,,,,,,,,,,,,,,,,,,,,,,,,,,,,,,,,,,,,,,,,,,,,,,,,,,,,,,,,,,,,,,,,,,,,,,,,,,,,,,,,,,,,,,,,,,,,,,,,,,,,,,,,,,,,,,,,,,,,,,,,,,,,,,,,
,,,,,,610bb066fa8d2a5647a40c77,62c539a32c3cf42a78b91f2a,2022-07-06_09h30.03.272,Colour_Asymmetry_Pilot,2022.1.3,Win32,59.79788315,62c50e9c1127f2cd403a315f,0,22,22,39,1,fourthree,,,,,,,,,,,,,,,,,,,,,,,,,,,,,,,,,,,,,,,,,,,,,,,,,,,,,,,,,,,,,,,,,,,,,,,,,,,,,,,,,,,,,,,,,,,,,,,,,,,,,,,,,,,,,,,,,,,,,,,,,,,,,,,,,,,,,,,,,,,,,,,,,,,,,,,,,,,,,
,,,,,,610bb066fa8d2a5647a40c77,62c539a32c3cf42a78b91f2a,2022-07-06_09h30.03.272,Colour_Asymmetry_Pilot,2022.1.3,Win32,59.79788315,62c50e9c1127f2cd403a315f,0,23,23,148,1,threeone,,,,,,,,,,,,,,,,,,,,,,,,,,,,,,,,,,,,,,,,,,,,,,,,,,,,,,,,,,,,,,,,,,,,,,,,,,,,,,,,,,,,,,,,,,,,,,,,,,,,,,,,,,,,,,,,,,,,,,,,,,,,,,,,,,,,,,,,,,,,,,,,,,,,,,,,,,,,,
,,,,,,610bb066fa8d2a5647a40c77,62c539a32c3cf42a78b91f2a,2022-07-06_09h30.03.272,Colour_Asymmetry_Pilot,2022.1.3,Win32,59.79788315,62c50e9c1127f2cd403a315f,0,24,24,118,1,fourtwo,,,,,,,,,,,,,,,,,,,,,,,,,,,,,,,,,,,,,,,,,,,,,,,,,,,,,,,,,,,,,,,,,,,,,,,,,,,,,,,,,,,,,,,,,,,,,,,,,,,,,,,,,,,,,,,,,,,,,,,,,,,,,,,,,,,,,,,,,,,,,,,,,,,,,,,,,,,,,
,,,,,,610bb066fa8d2a5647a40c77,62c539a32c3cf42a78b91f2a,2022-07-06_09h30.03.272,Colour_Asymmetry_Pilot,2022.1.3,Win32,59.79788315,62c50e9c1127f2cd403a315f,0,25,25,140,1,threeone,,,,,,,,,,,,,,,,,,,,,,,,,,,,,,,,,,,,,,,,,,,,,,,,,,,,,,,,,,,,,,,,,,,,,,,,,,,,,,,,,,,,,,,,,,,,,,,,,,,,,,,,,,,,,,,,,,,,,,,,,,,,,,,,,,,,,,,,,,,,,,,,,,,,,,,,,,,,,
,,,,,,610bb066fa8d2a5647a40c77,62c539a32c3cf42a78b91f2a,2022-07-06_09h30.03.272,Colour_Asymmetry_Pilot,2022.1.3,Win32,59.79788315,62c50e9c1127f2cd403a315f,0,26,26,152,1,onetwo,,,,,,,,,,,,,,,,,,,,,,,,,,,,,,,,,,,,,,,,,,,,,,,,,,,,,,,,,,,,,,,,,,,,,,,,,,,,,,,,,,,,,,,,,,,,,,,,,,,,,,,,,,,,,,,,,,,,,,,,,,,,,,,,,,,,,,,,,,,,,,,,,,,,,,,,,,,,,
,,,,,,610bb066fa8d2a5647a40c77,62c539a32c3cf42a78b91f2a,2022-07-06_09h30.03.272,Colour_Asymmetry_Pilot,2022.1.3,Win32,59.79788315,62c50e9c1127f2cd403a315f,0,27,27,43,1,twofour,,,,,,,,,,,,,,,,,,,,,,,,,,,,,,,,,,,,,,,,,,,,,,,,,,,,,,,,,,,,,,,,,,,,,,,,,,,,,,,,,,,,,,,,,,,,,,,,,,,,,,,,,,,,,,,,,,,,,,,,,,,,,,,,,,,,,,,,,,,,,,,,,,,,,,,,,,,,,
,,,,,,610bb066fa8d2a5647a40c77,62c539a32c3cf42a78b91f2a,2022-07-06_09h30.03.272,Colour_Asymmetry_Pilot,2022.1.3,Win32,59.79788315,62c50e9c1127f2cd403a315f,0,28,28,91,1,twofour,,,,,,,,,,,,,,,,,,,,,,,,,,,,,,,,,,,,,,,,,,,,,,,,,,,,,,,,,,,,,,,,,,,,,,,,,,,,,,,,,,,,,,,,,,,,,,,,,,,,,,,,,,,,,,,,,,,,,,,,,,,,,,,,,,,,,,,,,,,,,,,,,,,,,,,,,,,,,
,,,,,,610bb066fa8d2a5647a40c77,62c539a32c3cf42a78b91f2a,2022-07-06_09h30.03.272,Colour_Asymmetry_Pilot,2022.1.3,Win32,59.79788315,62c50e9c1127f2cd403a315f,0,29,29,46,1,fourtwo,,,,,,,,,,,,,,,,,,,,,,,,,,,,,,,,,,,,,,,,,,,,,,,,,,,,,,,,,,,,,,,,,,,,,,,,,,,,,,,,,,,,,,,,,,,,,,,,,,,,,,,,,,,,,,,,,,,,,,,,,,,,,,,,,,,,,,,,,,,,,,,,,,,,,,,,,,,,,
,,,,,,610bb066fa8d2a5647a40c77,62c539a32c3cf42a78b91f2a,2022-07-06_09h30.03.272,Colour_Asymmetry_Pilot,2022.1.3,Win32,59.79788315,62c50e9c1127f2cd403a315f,0,30,30,23,1,fourthree,,,,,,,,,,,,,,,,,,,,,,,,,,,,,,,,,,,,,,,,,,,,,,,,,,,,,,,,,,,,,,,,,,,,,,,,,,,,,,,,,,,,,,,,,,,,,,,,,,,,,,,,,,,,,,,,,,,,,,,,,,,,,,,,,,,,,,,,,,,,,,,,,,,,,,,,,,,,,
,,,,,,610bb066fa8d2a5647a40c77,62c539a32c3cf42a78b91f2a,2022-07-06_09h30.03.272,Colour_Asymmetry_Pilot,2022.1.3,Win32,59.79788315,62c50e9c1127f2cd403a315f,0,31,31,86,1,fourtwo,,,,,,,,,,,,,,,,,,,,,,,,,,,,,,,,,,,,,,,,,,,,,,,,,,,,,,,,,,,,,,,,,,,,,,,,,,,,,,,,,,,,,,,,,,,,,,,,,,,,,,,,,,,,,,,,,,,,,,,,,,,,,,,,,,,,,,,,,,,,,,,,,,,,,,,,,,,,,
,,,,,,610bb066fa8d2a5647a40c77,62c539a32c3cf42a78b91f2a,2022-07-06_09h30.03.272,Colour_Asymmetry_Pilot,2022.1.3,Win32,59.79788315,62c50e9c1127f2cd403a315f,0,32,32,64,1,onetwo,,,,,,,,,,,,,,,,,,,,,,,,,,,,,,,,,,,,,,,,,,,,,,,,,,,,,,,,,,,,,,,,,,,,,,,,,,,,,,,,,,,,,,,,,,,,,,,,,,,,,,,,,,,,,,,,,,,,,,,,,,,,,,,,,,,,,,,,,,,,,,,,,,,,,,,,,,,,,
,,,,,,610bb066fa8d2a5647a40c77,62c539a32c3cf42a78b91f2a,2022-07-06_09h30.03.272,Colour_Asymmetry_Pilot,2022.1.3,Win32,59.79788315,62c50e9c1127f2cd403a315f,0,33,33,106,1,twoone,,,,,,,,,,,,,,,,,,,,,,,,,,,,,,,,,,,,,,,,,,,,,,,,,,,,,,,,,,,,,,,,,,,,,,,,,,,,,,,,,,,,,,,,,,,,,,,,,,,,,,,,,,,,,,,,,,,,,,,,,,,,,,,,,,,,,,,,,,,,,,,,,,,,,,,,,,,,,
,,,,,,610bb066fa8d2a5647a40c77,62c539a32c3cf42a78b91f2a,2022-07-06_09h30.03.272,Colour_Asymmetry_Pilot,2022.1.3,Win32,59.79788315,62c50e9c1127f2cd403a315f,0,34,34,63,1,fourthree,,,,,,,,,,,,,,,,,,,,,,,,,,,,,,,,,,,,,,,,,,,,,,,,,,,,,,,,,,,,,,,,,,,,,,,,,,,,,,,,,,,,,,,,,,,,,,,,,,,,,,,,,,,,,,,,,,,,,,,,,,,,,,,,,,,,,,,,,,,,,,,,,,,,,,,,,,,,,
,,,,,,610bb066fa8d2a5647a40c77,62c539a32c3cf42a78b91f2a,2022-07-06_09h30.03.272,Colour_Asymmetry_Pilot,2022.1.3,Win32,59.79788315,62c50e9c1127f2cd403a315f,0,35,35,45,1,threefour,,,,,,,,,,,,,,,,,,,,,,,,,,,,,,,,,,,,,,,,,,,,,,,,,,,,,,,,,,,,,,,,,,,,,,,,,,,,,,,,,,,,,,,,,,,,,,,,,,,,,,,,,,,,,,,,,,,,,,,,,,,,,,,,,,,,,,,,,,,,,,,,,,,,,,,,,,,,,
,,,,,,610bb066fa8d2a5647a40c77,62c539a32c3cf42a78b91f2a,2022-07-06_09h30.03.272,Colour_Asymmetry_Pilot,2022.1.3,Win32,59.79788315,62c50e9c1127f2cd403a315f,0,36,36,81,1,onethree,,,,,,,,,,,,,,,,,,,,,,,,,,,,,,,,,,,,,,,,,,,,,,,,,,,,,,,,,,,,,,,,,,,,,,,,,,,,,,,,,,,,,,,,,,,,,,,,,,,,,,,,,,,,,,,,,,,,,,,,,,,,,,,,,,,,,,,,,,,,,,,,,,,,,,,,,,,,,
,,,,,,610bb066fa8d2a5647a40c77,62c539a32c3cf42a78b91f2a,2022-07-06_09h30.03.272,Colour_Asymmetry_Pilot,2022.1.3,Win32,59.79788315,62c50e9c1127f2cd403a315f,0,37,37,20,1,threeone,,,,,,,,,,,,,,,,,,,,,,,,,,,,,,,,,,,,,,,,,,,,,,,,,,,,,,,,,,,,,,,,,,,,,,,,,,,,,,,,,,,,,,,,,,,,,,,,,,,,,,,,,,,,,,,,,,,,,,,,,,,,,,,,,,,,,,,,,,,,,,,,,,,,,,,,,,,,,
,,,,,,610bb066fa8d2a5647a40c77,62c539a32c3cf42a78b91f2a,2022-07-06_09h30.03.272,Colour_Asymmetry_Pilot,2022.1.3,Win32,59.79788315,62c50e9c1127f2cd403a315f,0,38,38,132,1,threeone,,,,,,,,,,,,,,,,,,,,,,,,,,,,,,,,,,,,,,,,,,,,,,,,,,,,,,,,,,,,,,,,,,,,,,,,,,,,,,,,,,,,,,,,,,,,,,,,,,,,,,,,,,,,,,,,,,,,,,,,,,,,,,,,,,,,,,,,,,,,,,,,,,,,,,,,,,,,,
,,,,,,610bb066fa8d2a5647a40c77,62c539a32c3cf42a78b91f2a,2022-07-06_09h30.03.272,Colour_Asymmetry_Pilot,2022.1.3,Win32,59.79788315,62c50e9c1127f2cd403a315f,0,39,39,54,1,fourtwo,,,,,,,,,,,,,,,,,,,,,,,,,,,,,,,,,,,,,,,,,,,,,,,,,,,,,,,,,,,,,,,,,,,,,,,,,,,,,,,,,,,,,,,,,,,,,,,,,,,,,,,,,,,,,,,,,,,,,,,,,,,,,,,,,,,,,,,,,,,,,,,,,,,,,,,,,,,,,
,,,,,,610bb066fa8d2a5647a40c77,62c539a32c3cf42a78b91f2a,2022-07-06_09h30.03.272,Colour_Asymmetry_Pilot,2022.1.3,Win32,59.79788315,62c50e9c1127f2cd403a315f,0,40,40,109,1,threefour,,,,,,,,,,,,,,,,,,,,,,,,,,,,,,,,,,,,,,,,,,,,,,,,,,,,,,,,,,,,,,,,,,,,,,,,,,,,,,,,,,,,,,,,,,,,,,,,,,,,,,,,,,,,,,,,,,,,,,,,,,,,,,,,,,,,,,,,,,,,,,,,,,,,,,,,,,,,,
,,,,,,610bb066fa8d2a5647a40c77,62c539a32c3cf42a78b91f2a,2022-07-06_09h30.03.272,Colour_Asymmetry_Pilot,2022.1.3,Win32,59.79788315,62c50e9c1127f2cd403a315f,0,41,41,37,1,threefour,,,,,,,,,,,,,,,,,,,,,,,,,,,,,,,,,,,,,,,,,,,,,,,,,,,,,,,,,,,,,,,,,,,,,,,,,,,,,,,,,,,,,,,,,,,,,,,,,,,,,,,,,,,,,,,,,,,,,,,,,,,,,,,,,,,,,,,,,,,,,,,,,,,,,,,,,,,,,
,,,,,,610bb066fa8d2a5647a40c77,62c539a32c3cf42a78b91f2a,2022-07-06_09h30.03.272,Colour_Asymmetry_Pilot,2022.1.3,Win32,59.79788315,62c50e9c1127f2cd403a315f,0,42,42,58,1,twoone,,,,,,,,,,,,,,,,,,,,,,,,,,,,,,,,,,,,,,,,,,,,,,,,,,,,,,,,,,,,,,,,,,,,,,,,,,,,,,,,,,,,,,,,,,,,,,,,,,,,,,,,,,,,,,,,,,,,,,,,,,,,,,,,,,,,,,,,,,,,,,,,,,,,,,,,,,,,,
,,,,,,610bb066fa8d2a5647a40c77,62c539a32c3cf42a78b91f2a,2022-07-06_09h30.03.272,Colour_Asymmetry_Pilot,2022.1.3,Win32,59.79788315,62c50e9c1127f2cd403a315f,0,43,43,107,1,twofour,,,,,,,,,,,,,,,,,,,,,,,,,,,,,,,,,,,,,,,,,,,,,,,,,,,,,,,,,,,,,,,,,,,,,,,,,,,,,,,,,,,,,,,,,,,,,,,,,,,,,,,,,,,,,,,,,,,,,,,,,,,,,,,,,,,,,,,,,,,,,,,,,,,,,,,,,,,,,
,,,,,,610bb066fa8d2a5647a40c77,62c539a32c3cf42a78b91f2a,2022-07-06_09h30.03.272,Colour_Asymmetry_Pilot,2022.1.3,Win32,59.79788315,62c50e9c1127f2cd403a315f,0,44,44,100,1,threeone,,,,,,,,,,,,,,,,,,,,,,,,,,,,,,,,,,,,,,,,,,,,,,,,,,,,,,,,,,,,,,,,,,,,,,,,,,,,,,,,,,,,,,,,,,,,,,,,,,,,,,,,,,,,,,,,,,,,,,,,,,,,,,,,,,,,,,,,,,,,,,,,,,,,,,,,,,,,,
,,,,,,610bb066fa8d2a5647a40c77,62c539a32c3cf42a78b91f2a,2022-07-06_09h30.03.272,Colour_Asymmetry_Pilot,2022.1.3,Win32,59.79788315,62c50e9c1127f2cd403a315f,0,45,45,60,1,threeone,,,,,,,,,,,,,,,,,,,,,,,,,,,,,,,,,,,,,,,,,,,,,,,,,,,,,,,,,,,,,,,,,,,,,,,,,,,,,,,,,,,,,,,,,,,,,,,,,,,,,,,,,,,,,,,,,,,,,,,,,,,,,,,,,,,,,,,,,,,,,,,,,,,,,,,,,,,,,
,,,,,,610bb066fa8d2a5647a40c77,62c539a32c3cf42a78b91f2a,2022-07-06_09h30.03.272,Colour_Asymmetry_Pilot,2022.1.3,Win32,59.79788315,62c50e9c1127f2cd403a315f,0,46,46,26,1,twoone,,,,,,,,,,,,,,,,,,,,,,,,,,,,,,,,,,,,,,,,,,,,,,,,,,,,,,,,,,,,,,,,,,,,,,,,,,,,,,,,,,,,,,,,,,,,,,,,,,,,,,,,,,,,,,,,,,,,,,,,,,,,,,,,,,,,,,,,,,,,,,,,,,,,,,,,,,,,,
,,,,,,610bb066fa8d2a5647a40c77,62c539a32c3cf42a78b91f2a,2022-07-06_09h30.03.272,Colour_Asymmetry_Pilot,2022.1.3,Win32,59.79788315,62c50e9c1127f2cd403a315f,0,47,47,151,1,fourthree,,,,,,,,,,,,,,,,,,,,,,,,,,,,,,,,,,,,,,,,,,,,,,,,,,,,,,,,,,,,,,,,,,,,,,,,,,,,,,,,,,,,,,,,,,,,,,,,,,,,,,,,,,,,,,,,,,,,,,,,,,,,,,,,,,,,,,,,,,,,,,,,,,,,,,,,,,,,,
,,,,,,610bb066fa8d2a5647a40c77,62c539a32c3cf42a78b91f2a,2022-07-06_09h30.03.272,Colour_Asymmetry_Pilot,2022.1.3,Win32,59.79788315,62c50e9c1127f2cd403a315f,0,48,48,42,1,twoone,,,,,,,,,,,,,,,,,,,,,,,,,,,,,,,,,,,,,,,,,,,,,,,,,,,,,,,,,,,,,,,,,,,,,,,,,,,,,,,,,,,,,,,,,,,,,,,,,,,,,,,,,,,,,,,,,,,,,,,,,,,,,,,,,,,,,,,,,,,,,,,,,,,,,,,,,,,,,
,,,,,,610bb066fa8d2a5647a40c77,62c539a32c3cf42a78b91f2a,2022-07-06_09h30.03.272,Colour_Asymmetry_Pilot,2022.1.3,Win32,59.79788315,62c50e9c1127f2cd403a315f,0,49,49,158,1,fourtwo,,,,,,,,,,,,,,,,,,,,,,,,,,,,,,,,,,,,,,,,,,,,,,,,,,,,,,,,,,,,,,,,,,,,,,,,,,,,,,,,,,,,,,,,,,,,,,,,,,,,,,,,,,,,,,,,,,,,,,,,,,,,,,,,,,,,,,,,,,,,,,,,,,,,,,,,,,,,,
,,,,,,610bb066fa8d2a5647a40c77,62c539a32c3cf42a78b91f2a,2022-07-06_09h30.03.272,Colour_Asymmetry_Pilot,2022.1.3,Win32,59.79788315,62c50e9c1127f2cd403a315f,0,50,50,90,1,twoone,,,,,,,,,,,,,,,,,,,,,,,,,,,,,,,,,,,,,,,,,,,,,,,,,,,,,,,,,,,,,,,,,,,,,,,,,,,,,,,,,,,,,,,,,,,,,,,,,,,,,,,,,,,,,,,,,,,,,,,,,,,,,,,,,,,,,,,,,,,,,,,,,,,,,,,,,,,,,
,,,,,,610bb066fa8d2a5647a40c77,62c539a32c3cf42a78b91f2a,2022-07-06_09h30.03.272,Colour_Asymmetry_Pilot,2022.1.3,Win32,59.79788315,62c50e9c1127f2cd403a315f,0,51,51,65,1,onethree,,,,,,,,,,,,,,,,,,,,,,,,,,,,,,,,,,,,,,,,,,,,,,,,,,,,,,,,,,,,,,,,,,,,,,,,,,,,,,,,,,,,,,,,,,,,,,,,,,,,,,,,,,,,,,,,,,,,,,,,,,,,,,,,,,,,,,,,,,,,,,,,,,,,,,,,,,,,,
,,,,,,610bb066fa8d2a5647a40c77,62c539a32c3cf42a78b91f2a,2022-07-06_09h30.03.272,Colour_Asymmetry_Pilot,2022.1.3,Win32,59.79788315,62c50e9c1127f2cd403a315f,0,52,52,137,1,onethree,,,,,,,,,,,,,,,,,,,,,,,,,,,,,,,,,,,,,,,,,,,,,,,,,,,,,,,,,,,,,,,,,,,,,,,,,,,,,,,,,,,,,,,,,,,,,,,,,,,,,,,,,,,,,,,,,,,,,,,,,,,,,,,,,,,,,,,,,,,,,,,,,,,,,,,,,,,,,
,,,,,,610bb066fa8d2a5647a40c77,62c539a32c3cf42a78b91f2a,2022-07-06_09h30.03.272,Colour_Asymmetry_Pilot,2022.1.3,Win32,59.79788315,62c50e9c1127f2cd403a315f,0,53,53,147,1,twofour,,,,,,,,,,,,,,,,,,,,,,,,,,,,,,,,,,,,,,,,,,,,,,,,,,,,,,,,,,,,,,,,,,,,,,,,,,,,,,,,,,,,,,,,,,,,,,,,,,,,,,,,,,,,,,,,,,,,,,,,,,,,,,,,,,,,,,,,,,,,,,,,,,,,,,,,,,,,,
,,,,,,610bb066fa8d2a5647a40c77,62c539a32c3cf42a78b91f2a,2022-07-06_09h30.03.272,Colour_Asymmetry_Pilot,2022.1.3,Win32,59.79788315,62c50e9c1127f2cd403a315f,0,54,54,32,1,onetwo,,,,,,,,,,,,,,,,,,,,,,,,,,,,,,,,,,,,,,,,,,,,,,,,,,,,,,,,,,,,,,,,,,,,,,,,,,,,,,,,,,,,,,,,,,,,,,,,,,,,,,,,,,,,,,,,,,,,,,,,,,,,,,,,,,,,,,,,,,,,,,,,,,,,,,,,,,,,,
,,,,,,610bb066fa8d2a5647a40c77,62c539a32c3cf42a78b91f2a,2022-07-06_09h30.03.272,Colour_Asymmetry_Pilot,2022.1.3,Win32,59.79788315,62c50e9c1127f2cd403a315f,0,55,55,87,1,fourthree,,,,,,,,,,,,,,,,,,,,,,,,,,,,,,,,,,,,,,,,,,,,,,,,,,,,,,,,,,,,,,,,,,,,,,,,,,,,,,,,,,,,,,,,,,,,,,,,,,,,,,,,,,,,,,,,,,,,,,,,,,,,,,,,,,,,,,,,,,,,,,,,,,,,,,,,,,,,,
,,,,,,610bb066fa8d2a5647a40c77,62c539a32c3cf42a78b91f2a,2022-07-06_09h30.03.272,Colour_Asymmetry_Pilot,2022.1.3,Win32,59.79788315,62c50e9c1127f2cd403a315f,0,56,56,155,1,twofour,,,,,,,,,,,,,,,,,,,,,,,,,,,,,,,,,,,,,,,,,,,,,,,,,,,,,,,,,,,,,,,,,,,,,,,,,,,,,,,,,,,,,,,,,,,,,,,,,,,,,,,,,,,,,,,,,,,,,,,,,,,,,,,,,,,,,,,,,,,,,,,,,,,,,,,,,,,,,
,,,,,,610bb066fa8d2a5647a40c77,62c539a32c3cf42a78b91f2a,2022-07-06_09h30.03.272,Colour_Asymmetry_Pilot,2022.1.3,Win32,59.79788315,62c50e9c1127f2cd403a315f,0,57,57,9,1,onethree,,,,,,,,,,,,,,,,,,,,,,,,,,,,,,,,,,,,,,,,,,,,,,,,,,,,,,,,,,,,,,,,,,,,,,,,,,,,,,,,,,,,,,,,,,,,,,,,,,,,,,,,,,,,,,,,,,,,,,,,,,,,,,,,,,,,,,,,,,,,,,,,,,,,,,,,,,,,,
,,,,,,610bb066fa8d2a5647a40c77,62c539a32c3cf42a78b91f2a,2022-07-06_09h30.03.272,Colour_Asymmetry_Pilot,2022.1.3,Win32,59.79788315,62c50e9c1127f2cd403a315f,0,58,58,110,1,fourtwo,,,,,,,,,,,,,,,,,,,,,,,,,,,,,,,,,,,,,,,,,,,,,,,,,,,,,,,,,,,,,,,,,,,,,,,,,,,,,,,,,,,,,,,,,,,,,,,,,,,,,,,,,,,,,,,,,,,,,,,,,,,,,,,,,,,,,,,,,,,,,,,,,,,,,,,,,,,,,
,,,,,,610bb066fa8d2a5647a40c77,62c539a32c3cf42a78b91f2a,2022-07-06_09h30.03.272,Colour_Asymmetry_Pilot,2022.1.3,Win32,59.79788315,62c50e9c1127f2cd403a315f,0,59,59,36,1,threeone,,,,,,,,,,,,,,,,,,,,,,,,,,,,,,,,,,,,,,,,,,,,,,,,,,,,,,,,,,,,,,,,,,,,,,,,,,,,,,,,,,,,,,,,,,,,,,,,,,,,,,,,,,,,,,,,,,,,,,,,,,,,,,,,,,,,,,,,,,,,,,,,,,,,,,,,,,,,,
,,,,,,610bb066fa8d2a5647a40c77,62c539a32c3cf42a78b91f2a,2022-07-06_09h30.03.272,Colour_Asymmetry_Pilot,2022.1.3,Win32,59.79788315,62c50e9c1127f2cd403a315f,0,60,60,122,1,twoone,,,,,,,,,,,,,,,,,,,,,,,,,,,,,,,,,,,,,,,,,,,,,,,,,,,,,,,,,,,,,,,,,,,,,,,,,,,,,,,,,,,,,,,,,,,,,,,,,,,,,,,,,,,,,,,,,,,,,,,,,,,,,,,,,,,,,,,,,,,,,,,,,,,,,,,,,,,,,
,,,,,,610bb066fa8d2a5647a40c77,62c539a32c3cf42a78b91f2a,2022-07-06_09h30.03.272,Colour_Asymmetry_Pilot,2022.1.3,Win32,59.79788315,62c50e9c1127f2cd403a315f,0,61,61,104,1,onetwo,,,,,,,,,,,,,,,,,,,,,,,,,,,,,,,,,,,,,,,,,,,,,,,,,,,,,,,,,,,,,,,,,,,,,,,,,,,,,,,,,,,,,,,,,,,,,,,,,,,,,,,,,,,,,,,,,,,,,,,,,,,,,,,,,,,,,,,,,,,,,,,,,,,,,,,,,,,,,
,,,,,,610bb066fa8d2a5647a40c77,62c539a32c3cf42a78b91f2a,2022-07-06_09h30.03.272,Colour_Asymmetry_Pilot,2022.1.3,Win32,59.79788315,62c50e9c1127f2cd403a315f,0,62,62,79,1,fourthree,,,,,,,,,,,,,,,,,,,,,,,,,,,,,,,,,,,,,,,,,,,,,,,,,,,,,,,,,,,,,,,,,,,,,,,,,,,,,,,,,,,,,,,,,,,,,,,,,,,,,,,,,,,,,,,,,,,,,,,,,,,,,,,,,,,,,,,,,,,,,,,,,,,,,,,,,,,,,
,,,,,,610bb066fa8d2a5647a40c77,62c539a32c3cf42a78b91f2a,2022-07-06_09h30.03.272,Colour_Asymmetry_Pilot,2022.1.3,Win32,59.79788315,62c50e9c1127f2cd403a315f,0,63,63,142,1,fourtwo,,,,,,,,,,,,,,,,,,,,,,,,,,,,,,,,,,,,,,,,,,,,,,,,,,,,,,,,,,,,,,,,,,,,,,,,,,,,,,,,,,,,,,,,,,,,,,,,,,,,,,,,,,,,,,,,,,,,,,,,,,,,,,,,,,,,,,,,,,,,,,,,,,,,,,,,,,,,,
,,,,,,610bb066fa8d2a5647a40c77,62c539a32c3cf42a78b91f2a,2022-07-06_09h30.03.272,Colour_Asymmetry_Pilot,2022.1.3,Win32,59.79788315,62c50e9c1127f2cd403a315f,0,64,64,120,1,onetwo,,,,,,,,,,,,,,,,,,,,,,,,,,,,,,,,,,,,,,,,,,,,,,,,,,,,,,,,,,,,,,,,,,,,,,,,,,,,,,,,,,,,,,,,,,,,,,,,,,,,,,,,,,,,,,,,,,,,,,,,,,,,,,,,,,,,,,,,,,,,,,,,,,,,,,,,,,,,,
,,,,,,610bb066fa8d2a5647a40c77,62c539a32c3cf42a78b91f2a,2022-07-06_09h30.03.272,Colour_Asymmetry_Pilot,2022.1.3,Win32,59.79788315,62c50e9c1127f2cd403a315f,0,65,65,66,1,twoone,,,,,,,,,,,,,,,,,,,,,,,,,,,,,,,,,,,,,,,,,,,,,,,,,,,,,,,,,,,,,,,,,,,,,,,,,,,,,,,,,,,,,,,,,,,,,,,,,,,,,,,,,,,,,,,,,,,,,,,,,,,,,,,,,,,,,,,,,,,,,,,,,,,,,,,,,,,,,
,,,,,,610bb066fa8d2a5647a40c77,62c539a32c3cf42a78b91f2a,2022-07-06_09h30.03.272,Colour_Asymmetry_Pilot,2022.1.3,Win32,59.79788315,62c50e9c1127f2cd403a315f,0,66,66,69,1,threefour,,,,,,,,,,,,,,,,,,,,,,,,,,,,,,,,,,,,,,,,,,,,,,,,,,,,,,,,,,,,,,,,,,,,,,,,,,,,,,,,,,,,,,,,,,,,,,,,,,,,,,,,,,,,,,,,,,,,,,,,,,,,,,,,,,,,,,,,,,,,,,,,,,,,,,,,,,,,,
,,,,,,610bb066fa8d2a5647a40c77,62c539a32c3cf42a78b91f2a,2022-07-06_09h30.03.272,Colour_Asymmetry_Pilot,2022.1.3,Win32,59.79788315,62c50e9c1127f2cd403a315f,0,67,67,28,1,threeone,,,,,,,,,,,,,,,,,,,,,,,,,,,,,,,,,,,,,,,,,,,,,,,,,,,,,,,,,,,,,,,,,,,,,,,,,,,,,,,,,,,,,,,,,,,,,,,,,,,,,,,,,,,,,,,,,,,,,,,,,,,,,,,,,,,,,,,,,,,,,,,,,,,,,,,,,,,,,
,,,,,,610bb066fa8d2a5647a40c77,62c539a32c3cf42a78b91f2a,2022-07-06_09h30.03.272,Colour_Asymmetry_Pilot,2022.1.3,Win32,59.79788315,62c50e9c1127f2cd403a315f,0,68,68,13,1,threefour,,,,,,,,,,,,,,,,,,,,,,,,,,,,,,,,,,,,,,,,,,,,,,,,,,,,,,,,,,,,,,,,,,,,,,,,,,,,,,,,,,,,,,,,,,,,,,,,,,,,,,,,,,,,,,,,,,,,,,,,,,,,,,,,,,,,,,,,,,,,,,,,,,,,,,,,,,,,,
,,,,,,610bb066fa8d2a5647a40c77,62c539a32c3cf42a78b91f2a,2022-07-06_09h30.03.272,Colour_Asymmetry_Pilot,2022.1.3,Win32,59.79788315,62c50e9c1127f2cd403a315f,0,69,69,61,1,threefour,,,,,,,,,,,,,,,,,,,,,,,,,,,,,,,,,,,,,,,,,,,,,,,,,,,,,,,,,,,,,,,,,,,,,,,,,,,,,,,,,,,,,,,,,,,,,,,,,,,,,,,,,,,,,,,,,,,,,,,,,,,,,,,,,,,,,,,,,,,,,,,,,,,,,,,,,,,,,
,,,,,,610bb066fa8d2a5647a40c77,62c539a32c3cf42a78b91f2a,2022-07-06_09h30.03.272,Colour_Asymmetry_Pilot,2022.1.3,Win32,59.79788315,62c50e9c1127f2cd403a315f,0,70,70,153,1,onethree,,,,,,,,,,,,,,,,,,,,,,,,,,,,,,,,,,,,,,,,,,,,,,,,,,,,,,,,,,,,,,,,,,,,,,,,,,,,,,,,,,,,,,,,,,,,,,,,,,,,,,,,,,,,,,,,,,,,,,,,,,,,,,,,,,,,,,,,,,,,,,,,,,,,,,,,,,,,,
,,,,,,610bb066fa8d2a5647a40c77,62c539a32c3cf42a78b91f2a,2022-07-06_09h30.03.272,Colour_Asymmetry_Pilot,2022.1.3,Win32,59.79788315,62c50e9c1127f2cd403a315f,0,71,71,48,1,onetwo,,,,,,,,,,,,,,,,,,,,,,,,,,,,,,,,,,,,,,,,,,,,,,,,,,,,,,,,,,,,,,,,,,,,,,,,,,,,,,,,,,,,,,,,,,,,,,,,,,,,,,,,,,,,,,,,,,,,,,,,,,,,,,,,,,,,,,,,,,,,,,,,,,,,,,,,,,,,,
,,,,,,610bb066fa8d2a5647a40c77,62c539a32c3cf42a78b91f2a,2022-07-06_09h30.03.272,Colour_Asymmetry_Pilot,2022.1.3,Win32,59.79788315,62c50e9c1127f2cd403a315f,0,72,72,7,1,fourthree,,,,,,,,,,,,,,,,,,,,,,,,,,,,,,,,,,,,,,,,,,,,,,,,,,,,,,,,,,,,,,,,,,,,,,,,,,,,,,,,,,,,,,,,,,,,,,,,,,,,,,,,,,,,,,,,,,,,,,,,,,,,,,,,,,,,,,,,,,,,,,,,,,,,,,,,,,,,,
,,,,,,610bb066fa8d2a5647a40c77,62c539a32c3cf42a78b91f2a,2022-07-06_09h30.03.272,Colour_Asymmetry_Pilot,2022.1.3,Win32,59.79788315,62c50e9c1127f2cd403a315f,0,73,73,83,1,twofour,,,,,,,,,,,,,,,,,,,,,,,,,,,,,,,,,,,,,,,,,,,,,,,,,,,,,,,,,,,,,,,,,,,,,,,,,,,,,,,,,,,,,,,,,,,,,,,,,,,,,,,,,,,,,,,,,,,,,,,,,,,,,,,,,,,,,,,,,,,,,,,,,,,,,,,,,,,,,
,,,,,,610bb066fa8d2a5647a40c77,62c539a32c3cf42a78b91f2a,2022-07-06_09h30.03.272,Colour_Asymmetry_Pilot,2022.1.3,Win32,59.79788315,62c50e9c1127f2cd403a315f,0,74,74,73,1,onethree,,,,,,,,,,,,,,,,,,,,,,,,,,,,,,,,,,,,,,,,,,,,,,,,,,,,,,,,,,,,,,,,,,,,,,,,,,,,,,,,,,,,,,,,,,,,,,,,,,,,,,,,,,,,,,,,,,,,,,,,,,,,,,,,,,,,,,,,,,,,,,,,,,,,,,,,,,,,,
,,,,,,610bb066fa8d2a5647a40c77,62c539a32c3cf42a78b91f2a,2022-07-06_09h30.03.272,Colour_Asymmetry_Pilot,2022.1.3,Win32,59.79788315,62c50e9c1127f2cd403a315f,0,75,75,0,1,onetwo,,,,,,,,,,,,,,,,,,,,,,,,,,,,,,,,,,,,,,,,,,,,,,,,,,,,,,,,,,,,,,,,,,,,,,,,,,,,,,,,,,,,,,,,,,,,,,,,,,,,,,,,,,,,,,,,,,,,,,,,,,,,,,,,,,,,,,,,,,,,,,,,,,,,,,,,,,,,,
,,,,,,610bb066fa8d2a5647a40c77,62c539a32c3cf42a78b91f2a,2022-07-06_09h30.03.272,Colour_Asymmetry_Pilot,2022.1.3,Win32,59.79788315,62c50e9c1127f2cd403a315f,0,76,76,133,1,threefour,,,,,,,,,,,,,,,,,,,,,,,,,,,,,,,,,,,,,,,,,,,,,,,,,,,,,,,,,,,,,,,,,,,,,,,,,,,,,,,,,,,,,,,,,,,,,,,,,,,,,,,,,,,,,,,,,,,,,,,,,,,,,,,,,,,,,,,,,,,,,,,,,,,,,,,,,,,,,
,,,,,,610bb066fa8d2a5647a40c77,62c539a32c3cf42a78b91f2a,2022-07-06_09h30.03.272,Colour_Asymmetry_Pilot,2022.1.3,Win32,59.79788315,62c50e9c1127f2cd403a315f,0,77,77,88,1,onetwo,,,,,,,,,,,,,,,,,,,,,,,,,,,,,,,,,,,,,,,,,,,,,,,,,,,,,,,,,,,,,,,,,,,,,,,,,,,,,,,,,,,,,,,,,,,,,,,,,,,,,,,,,,,,,,,,,,,,,,,,,,,,,,,,,,,,,,,,,,,,,,,,,,,,,,,,,,,,,
,,,,,,610bb066fa8d2a5647a40c77,62c539a32c3cf42a78b91f2a,2022-07-06_09h30.03.272,Colour_Asymmetry_Pilot,2022.1.3,Win32,59.79788315,62c50e9c1127f2cd403a315f,0,78,78,59,1,twofour,,,,,,,,,,,,,,,,,,,,,,,,,,,,,,,,,,,,,,,,,,,,,,,,,,,,,,,,,,,,,,,,,,,,,,,,,,,,,,,,,,,,,,,,,,,,,,,,,,,,,,,,,,,,,,,,,,,,,,,,,,,,,,,,,,,,,,,,,,,,,,,,,,,,,,,,,,,,,
,,,,,,610bb066fa8d2a5647a40c77,62c539a32c3cf42a78b91f2a,2022-07-06_09h30.03.272,Colour_Asymmetry_Pilot,2022.1.3,Win32,59.79788315,62c50e9c1127f2cd403a315f,0,79,79,35,1,twofour,,,,,,,,,,,,,,,,,,,,,,,,,,,,,,,,,,,,,,,,,,,,,,,,,,,,,,,,,,,,,,,,,,,,,,,,,,,,,,,,,,,,,,,,,,,,,,,,,,,,,,,,,,,,,,,,,,,,,,,,,,,,,,,,,,,,,,,,,,,,,,,,,,,,,,,,,,,,,
,,,,,,610bb066fa8d2a5647a40c77,62c539a32c3cf42a78b91f2a,2022-07-06_09h30.03.272,Colour_Asymmetry_Pilot,2022.1.3,Win32,59.79788315,62c50e9c1127f2cd403a315f,0,80,80,108,1,threeone,,,,,,,,,,,,,,,,,,,,,,,,,,,,,,,,,,,,,,,,,,,,,,,,,,,,,,,,,,,,,,,,,,,,,,,,,,,,,,,,,,,,,,,,,,,,,,,,,,,,,,,,,,,,,,,,,,,,,,,,,,,,,,,,,,,,,,,,,,,,,,,,,,,,,,,,,,,,,
,,,,,,610bb066fa8d2a5647a40c77,62c539a32c3cf42a78b91f2a,2022-07-06_09h30.03.272,Colour_Asymmetry_Pilot,2022.1.3,Win32,59.79788315,62c50e9c1127f2cd403a315f,0,81,81,154,1,twoone,,,,,,,,,,,,,,,,,,,,,,,,,,,,,,,,,,,,,,,,,,,,,,,,,,,,,,,,,,,,,,,,,,,,,,,,,,,,,,,,,,,,,,,,,,,,,,,,,,,,,,,,,,,,,,,,,,,,,,,,,,,,,,,,,,,,,,,,,,,,,,,,,,,,,,,,,,,,,
,,,,,,610bb066fa8d2a5647a40c77,62c539a32c3cf42a78b91f2a,2022-07-06_09h30.03.272,Colour_Asymmetry_Pilot,2022.1.3,Win32,59.79788315,62c50e9c1127f2cd403a315f,0,82,82,105,1,onethree,,,,,,,,,,,,,,,,,,,,,,,,,,,,,,,,,,,,,,,,,,,,,,,,,,,,,,,,,,,,,,,,,,,,,,,,,,,,,,,,,,,,,,,,,,,,,,,,,,,,,,,,,,,,,,,,,,,,,,,,,,,,,,,,,,,,,,,,,,,,,,,,,,,,,,,,,,,,,
,,,,,,610bb066fa8d2a5647a40c77,62c539a32c3cf42a78b91f2a,2022-07-06_09h30.03.272,Colour_Asymmetry_Pilot,2022.1.3,Win32,59.79788315,62c50e9c1127f2cd403a315f,0,83,83,126,1,fourtwo,,,,,,,,,,,,,,,,,,,,,,,,,,,,,,,,,,,,,,,,,,,,,,,,,,,,,,,,,,,,,,,,,,,,,,,,,,,,,,,,,,,,,,,,,,,,,,,,,,,,,,,,,,,,,,,,,,,,,,,,,,,,,,,,,,,,,,,,,,,,,,,,,,,,,,,,,,,,,
,,,,,,610bb066fa8d2a5647a40c77,62c539a32c3cf42a78b91f2a,2022-07-06_09h30.03.272,Colour_Asymmetry_Pilot,2022.1.3,Win32,59.79788315,62c50e9c1127f2cd403a315f,0,84,84,124,1,threeone,,,,,,,,,,,,,,,,,,,,,,,,,,,,,,,,,,,,,,,,,,,,,,,,,,,,,,,,,,,,,,,,,,,,,,,,,,,,,,,,,,,,,,,,,,,,,,,,,,,,,,,,,,,,,,,,,,,,,,,,,,,,,,,,,,,,,,,,,,,,,,,,,,,,,,,,,,,,,
,,,,,,610bb066fa8d2a5647a40c77,62c539a32c3cf42a78b91f2a,2022-07-06_09h30.03.272,Colour_Asymmetry_Pilot,2022.1.3,Win32,59.79788315,62c50e9c1127f2cd403a315f,0,85,85,150,1,fourtwo,,,,,,,,,,,,,,,,,,,,,,,,,,,,,,,,,,,,,,,,,,,,,,,,,,,,,,,,,,,,,,,,,,,,,,,,,,,,,,,,,,,,,,,,,,,,,,,,,,,,,,,,,,,,,,,,,,,,,,,,,,,,,,,,,,,,,,,,,,,,,,,,,,,,,,,,,,,,,
,,,,,,610bb066fa8d2a5647a40c77,62c539a32c3cf42a78b91f2a,2022-07-06_09h30.03.272,Colour_Asymmetry_Pilot,2022.1.3,Win32,59.79788315,62c50e9c1127f2cd403a315f,0,86,86,123,1,twofour,,,,,,,,,,,,,,,,,,,,,,,,,,,,,,,,,,,,,,,,,,,,,,,,,,,,,,,,,,,,,,,,,,,,,,,,,,,,,,,,,,,,,,,,,,,,,,,,,,,,,,,,,,,,,,,,,,,,,,,,,,,,,,,,,,,,,,,,,,,,,,,,,,,,,,,,,,,,,
,,,,,,610bb066fa8d2a5647a40c77,62c539a32c3cf42a78b91f2a,2022-07-06_09h30.03.272,Colour_Asymmetry_Pilot,2022.1.3,Win32,59.79788315,62c50e9c1127f2cd403a315f,0,87,87,62,1,fourtwo,,,,,,,,,,,,,,,,,,,,,,,,,,,,,,,,,,,,,,,,,,,,,,,,,,,,,,,,,,,,,,,,,,,,,,,,,,,,,,,,,,,,,,,,,,,,,,,,,,,,,,,,,,,,,,,,,,,,,,,,,,,,,,,,,,,,,,,,,,,,,,,,,,,,,,,,,,,,,
,,,,,,610bb066fa8d2a5647a40c77,62c539a32c3cf42a78b91f2a,2022-07-06_09h30.03.272,Colour_Asymmetry_Pilot,2022.1.3,Win32,59.79788315,62c50e9c1127f2cd403a315f,0,88,88,27,1,twofour,,,,,,,,,,,,,,,,,,,,,,,,,,,,,,,,,,,,,,,,,,,,,,,,,,,,,,,,,,,,,,,,,,,,,,,,,,,,,,,,,,,,,,,,,,,,,,,,,,,,,,,,,,,,,,,,,,,,,,,,,,,,,,,,,,,,,,,,,,,,,,,,,,,,,,,,,,,,,
,,,,,,610bb066fa8d2a5647a40c77,62c539a32c3cf42a78b91f2a,2022-07-06_09h30.03.272,Colour_Asymmetry_Pilot,2022.1.3,Win32,59.79788315,62c50e9c1127f2cd403a315f,0,89,89,131,1,twofour,,,,,,,,,,,,,,,,,,,,,,,,,,,,,,,,,,,,,,,,,,,,,,,,,,,,,,,,,,,,,,,,,,,,,,,,,,,,,,,,,,,,,,,,,,,,,,,,,,,,,,,,,,,,,,,,,,,,,,,,,,,,,,,,,,,,,,,,,,,,,,,,,,,,,,,,,,,,,
,,,,,,610bb066fa8d2a5647a40c77,62c539a32c3cf42a78b91f2a,2022-07-06_09h30.03.272,Colour_Asymmetry_Pilot,2022.1.3,Win32,59.79788315,62c50e9c1127f2cd403a315f,0,90,90,141,1,threefour,,,,,,,,,,,,,,,,,,,,,,,,,,,,,,,,,,,,,,,,,,,,,,,,,,,,,,,,,,,,,,,,,,,,,,,,,,,,,,,,,,,,,,,,,,,,,,,,,,,,,,,,,,,,,,,,,,,,,,,,,,,,,,,,,,,,,,,,,,,,,,,,,,,,,,,,,,,,,
,,,,,,610bb066fa8d2a5647a40c77,62c539a32c3cf42a78b91f2a,2022-07-06_09h30.03.272,Colour_Asymmetry_Pilot,2022.1.3,Win32,59.79788315,62c50e9c1127f2cd403a315f,0,91,91,134,1,fourtwo,,,,,,,,,,,,,,,,,,,,,,,,,,,,,,,,,,,,,,,,,,,,,,,,,,,,,,,,,,,,,,,,,,,,,,,,,,,,,,,,,,,,,,,,,,,,,,,,,,,,,,,,,,,,,,,,,,,,,,,,,,,,,,,,,,,,,,,,,,,,,,,,,,,,,,,,,,,,,
,,,,,,610bb066fa8d2a5647a40c77,62c539a32c3cf42a78b91f2a,2022-07-06_09h30.03.272,Colour_Asymmetry_Pilot,2022.1.3,Win32,59.79788315,62c50e9c1127f2cd403a315f,0,92,92,74,1,twoone,,,,,,,,,,,,,,,,,,,,,,,,,,,,,,,,,,,,,,,,,,,,,,,,,,,,,,,,,,,,,,,,,,,,,,,,,,,,,,,,,,,,,,,,,,,,,,,,,,,,,,,,,,,,,,,,,,,,,,,,,,,,,,,,,,,,,,,,,,,,,,,,,,,,,,,,,,,,,
,,,,,,610bb066fa8d2a5647a40c77,62c539a32c3cf42a78b91f2a,2022-07-06_09h30.03.272,Colour_Asymmetry_Pilot,2022.1.3,Win32,59.79788315,62c50e9c1127f2cd403a315f,0,93,93,25,1,onethree,,,,,,,,,,,,,,,,,,,,,,,,,,,,,,,,,,,,,,,,,,,,,,,,,,,,,,,,,,,,,,,,,,,,,,,,,,,,,,,,,,,,,,,,,,,,,,,,,,,,,,,,,,,,,,,,,,,,,,,,,,,,,,,,,,,,,,,,,,,,,,,,,,,,,,,,,,,,,
,,,,,,610bb066fa8d2a5647a40c77,62c539a32c3cf42a78b91f2a,2022-07-06_09h30.03.272,Colour_Asymmetry_Pilot,2022.1.3,Win32,59.79788315,62c50e9c1127f2cd403a315f,0,94,94,144,1,onetwo,,,,,,,,,,,,,,,,,,,,,,,,,,,,,,,,,,,,,,,,,,,,,,,,,,,,,,,,,,,,,,,,,,,,,,,,,,,,,,,,,,,,,,,,,,,,,,,,,,,,,,,,,,,,,,,,,,,,,,,,,,,,,,,,,,,,,,,,,,,,,,,,,,,,,,,,,,,,,
,,,,,,610bb066fa8d2a5647a40c77,62c539a32c3cf42a78b91f2a,2022-07-06_09h30.03.272,Colour_Asymmetry_Pilot,2022.1.3,Win32,59.79788315,62c50e9c1127f2cd403a315f,0,95,95,57,1,onethree,,,,,,,,,,,,,,,,,,,,,,,,,,,,,,,,,,,,,,,,,,,,,,,,,,,,,,,,,,,,,,,,,,,,,,,,,,,,,,,,,,,,,,,,,,,,,,,,,,,,,,,,,,,,,,,,,,,,,,,,,,,,,,,,,,,,,,,,,,,,,,,,,,,,,,,,,,,,,
,,,,,,610bb066fa8d2a5647a40c77,62c539a32c3cf42a78b91f2a,2022-07-06_09h30.03.272,Colour_Asymmetry_Pilot,2022.1.3,Win32,59.79788315,62c50e9c1127f2cd403a315f,0,96,96,84,1,threeone,,,,,,,,,,,,,,,,,,,,,,,,,,,,,,,,,,,,,,,,,,,,,,,,,,,,,,,,,,,,,,,,,,,,,,,,,,,,,,,,,,,,,,,,,,,,,,,,,,,,,,,,,,,,,,,,,,,,,,,,,,,,,,,,,,,,,,,,,,,,,,,,,,,,,,,,,,,,,
,,,,,,610bb066fa8d2a5647a40c77,62c539a32c3cf42a78b91f2a,2022-07-06_09h30.03.272,Colour_Asymmetry_Pilot,2022.1.3,Win32,59.79788315,62c50e9c1127f2cd403a315f,0,97,97,18,1,twoone,,,,,,,,,,,,,,,,,,,,,,,,,,,,,,,,,,,,,,,,,,,,,,,,,,,,,,,,,,,,,,,,,,,,,,,,,,,,,,,,,,,,,,,,,,,,,,,,,,,,,,,,,,,,,,,,,,,,,,,,,,,,,,,,,,,,,,,,,,,,,,,,,,,,,,,,,,,,,
,,,,,,610bb066fa8d2a5647a40c77,62c539a32c3cf42a78b91f2a,2022-07-06_09h30.03.272,Colour_Asymmetry_Pilot,2022.1.3,Win32,59.79788315,62c50e9c1127f2cd403a315f,0,98,98,156,1,threeone,,,,,,,,,,,,,,,,,,,,,,,,,,,,,,,,,,,,,,,,,,,,,,,,,,,,,,,,,,,,,,,,,,,,,,,,,,,,,,,,,,,,,,,,,,,,,,,,,,,,,,,,,,,,,,,,,,,,,,,,,,,,,,,,,,,,,,,,,,,,,,,,,,,,,,,,,,,,,
,,,,,,610bb066fa8d2a5647a40c77,62c539a32c3cf42a78b91f2a,2022-07-06_09h30.03.272,Colour_Asymmetry_Pilot,2022.1.3,Win32,59.79788315,62c50e9c1127f2cd403a315f,0,99,99,98,1,twoone,,,,,,,,,,,,,,,,,,,,,,,,,,,,,,,,,,,,,,,,,,,,,,,,,,,,,,,,,,,,,,,,,,,,,,,,,,,,,,,,,,,,,,,,,,,,,,,,,,,,,,,,,,,,,,,,,,,,,,,,,,,,,,,,,,,,,,,,,,,,,,,,,,,,,,,,,,,,,
,,,,,,610bb066fa8d2a5647a40c77,62c539a32c3cf42a78b91f2a,2022-07-06_09h30.03.272,Colour_Asymmetry_Pilot,2022.1.3,Win32,59.79788315,62c50e9c1127f2cd403a315f,0,100,100,3,1,twofour,,,,,,,,,,,,,,,,,,,,,,,,,,,,,,,,,,,,,,,,,,,,,,,,,,,,,,,,,,,,,,,,,,,,,,,,,,,,,,,,,,,,,,,,,,,,,,,,,,,,,,,,,,,,,,,,,,,,,,,,,,,,,,,,,,,,,,,,,,,,,,,,,,,,,,,,,,,,,
,,,,,,610bb066fa8d2a5647a40c77,62c539a32c3cf42a78b91f2a,2022-07-06_09h30.03.272,Colour_Asymmetry_Pilot,2022.1.3,Win32,59.79788315,62c50e9c1127f2cd403a315f,0,101,101,89,1,onethree,,,,,,,,,,,,,,,,,,,,,,,,,,,,,,,,,,,,,,,,,,,,,,,,,,,,,,,,,,,,,,,,,,,,,,,,,,,,,,,,,,,,,,,,,,,,,,,,,,,,,,,,,,,,,,,,,,,,,,,,,,,,,,,,,,,,,,,,,,,,,,,,,,,,,,,,,,,,,
,,,,,,610bb066fa8d2a5647a40c77,62c539a32c3cf42a78b91f2a,2022-07-06_09h30.03.272,Colour_Asymmetry_Pilot,2022.1.3,Win32,59.79788315,62c50e9c1127f2cd403a315f,0,102,102,16,1,onetwo,,,,,,,,,,,,,,,,,,,,,,,,,,,,,,,,,,,,,,,,,,,,,,,,,,,,,,,,,,,,,,,,,,,,,,,,,,,,,,,,,,,,,,,,,,,,,,,,,,,,,,,,,,,,,,,,,,,,,,,,,,,,,,,,,,,,,,,,,,,,,,,,,,,,,,,,,,,,,
,,,,,,610bb066fa8d2a5647a40c77,62c539a32c3cf42a78b91f2a,2022-07-06_09h30.03.272,Colour_Asymmetry_Pilot,2022.1.3,Win32,59.79788315,62c50e9c1127f2cd403a315f,0,103,103,44,1,threeone,,,,,,,,,,,,,,,,,,,,,,,,,,,,,,,,,,,,,,,,,,,,,,,,,,,,,,,,,,,,,,,,,,,,,,,,,,,,,,,,,,,,,,,,,,,,,,,,,,,,,,,,,,,,,,,,,,,,,,,,,,,,,,,,,,,,,,,,,,,,,,,,,,,,,,,,,,,,,
,,,,,,610bb066fa8d2a5647a40c77,62c539a32c3cf42a78b91f2a,2022-07-06_09h30.03.272,Colour_Asymmetry_Pilot,2022.1.3,Win32,59.79788315,62c50e9c1127f2cd403a315f,0,104,104,41,1,onethree,,,,,,,,,,,,,,,,,,,,,,,,,,,,,,,,,,,,,,,,,,,,,,,,,,,,,,,,,,,,,,,,,,,,,,,,,,,,,,,,,,,,,,,,,,,,,,,,,,,,,,,,,,,,,,,,,,,,,,,,,,,,,,,,,,,,,,,,,,,,,,,,,,,,,,,,,,,,,
,,,,,,610bb066fa8d2a5647a40c77,62c539a32c3cf42a78b91f2a,2022-07-06_09h30.03.272,Colour_Asymmetry_Pilot,2022.1.3,Win32,59.79788315,62c50e9c1127f2cd403a315f,0,105,105,113,1,onethree,,,,,,,,,,,,,,,,,,,,,,,,,,,,,,,,,,,,,,,,,,,,,,,,,,,,,,,,,,,,,,,,,,,,,,,,,,,,,,,,,,,,,,,,,,,,,,,,,,,,,,,,,,,,,,,,,,,,,,,,,,,,,,,,,,,,,,,,,,,,,,,,,,,,,,,,,,,,,
,,,,,,610bb066fa8d2a5647a40c77,62c539a32c3cf42a78b91f2a,2022-07-06_09h30.03.272,Colour_Asymmetry_Pilot,2022.1.3,Win32,59.79788315,62c50e9c1127f2cd403a315f,0,106,106,146,1,twoone,,,,,,,,,,,,,,,,,,,,,,,,,,,,,,,,,,,,,,,,,,,,,,,,,,,,,,,,,,,,,,,,,,,,,,,,,,,,,,,,,,,,,,,,,,,,,,,,,,,,,,,,,,,,,,,,,,,,,,,,,,,,,,,,,,,,,,,,,,,,,,,,,,,,,,,,,,,,,
,,,,,,610bb066fa8d2a5647a40c77,62c539a32c3cf42a78b91f2a,2022-07-06_09h30.03.272,Colour_Asymmetry_Pilot,2022.1.3,Win32,59.79788315,62c50e9c1127f2cd403a315f,0,107,107,2,1,twoone,,,,,,,,,,,,,,,,,,,,,,,,,,,,,,,,,,,,,,,,,,,,,,,,,,,,,,,,,,,,,,,,,,,,,,,,,,,,,,,,,,,,,,,,,,,,,,,,,,,,,,,,,,,,,,,,,,,,,,,,,,,,,,,,,,,,,,,,,,,,,,,,,,,,,,,,,,,,,
,,,,,,610bb066fa8d2a5647a40c77,62c539a32c3cf42a78b91f2a,2022-07-06_09h30.03.272,Colour_Asymmetry_Pilot,2022.1.3,Win32,59.79788315,62c50e9c1127f2cd403a315f,0,108,108,157,1,threefour,,,,,,,,,,,,,,,,,,,,,,,,,,,,,,,,,,,,,,,,,,,,,,,,,,,,,,,,,,,,,,,,,,,,,,,,,,,,,,,,,,,,,,,,,,,,,,,,,,,,,,,,,,,,,,,,,,,,,,,,,,,,,,,,,,,,,,,,,,,,,,,,,,,,,,,,,,,,,
,,,,,,610bb066fa8d2a5647a40c77,62c539a32c3cf42a78b91f2a,2022-07-06_09h30.03.272,Colour_Asymmetry_Pilot,2022.1.3,Win32,59.79788315,62c50e9c1127f2cd403a315f,0,109,109,19,1,twofour,,,,,,,,,,,,,,,,,,,,,,,,,,,,,,,,,,,,,,,,,,,,,,,,,,,,,,,,,,,,,,,,,,,,,,,,,,,,,,,,,,,,,,,,,,,,,,,,,,,,,,,,,,,,,,,,,,,,,,,,,,,,,,,,,,,,,,,,,,,,,,,,,,,,,,,,,,,,,
,,,,,,610bb066fa8d2a5647a40c77,62c539a32c3cf42a78b91f2a,2022-07-06_09h30.03.272,Colour_Asymmetry_Pilot,2022.1.3,Win32,59.79788315,62c50e9c1127f2cd403a315f,0,110,110,99,1,twofour,,,,,,,,,,,,,,,,,,,,,,,,,,,,,,,,,,,,,,,,,,,,,,,,,,,,,,,,,,,,,,,,,,,,,,,,,,,,,,,,,,,,,,,,,,,,,,,,,,,,,,,,,,,,,,,,,,,,,,,,,,,,,,,,,,,,,,,,,,,,,,,,,,,,,,,,,,,,,
,,,,,,610bb066fa8d2a5647a40c77,62c539a32c3cf42a78b91f2a,2022-07-06_09h30.03.272,Colour_Asymmetry_Pilot,2022.1.3,Win32,59.79788315,62c50e9c1127f2cd403a315f,0,111,111,92,1,threeone,,,,,,,,,,,,,,,,,,,,,,,,,,,,,,,,,,,,,,,,,,,,,,,,,,,,,,,,,,,,,,,,,,,,,,,,,,,,,,,,,,,,,,,,,,,,,,,,,,,,,,,,,,,,,,,,,,,,,,,,,,,,,,,,,,,,,,,,,,,,,,,,,,,,,,,,,,,,,
,,,,,,610bb066fa8d2a5647a40c77,62c539a32c3cf42a78b91f2a,2022-07-06_09h30.03.272,Colour_Asymmetry_Pilot,2022.1.3,Win32,59.79788315,62c50e9c1127f2cd403a315f,0,112,112,139,1,twofour,,,,,,,,,,,,,,,,,,,,,,,,,,,,,,,,,,,,,,,,,,,,,,,,,,,,,,,,,,,,,,,,,,,,,,,,,,,,,,,,,,,,,,,,,,,,,,,,,,,,,,,,,,,,,,,,,,,,,,,,,,,,,,,,,,,,,,,,,,,,,,,,,,,,,,,,,,,,,
,,,,,,610bb066fa8d2a5647a40c77,62c539a32c3cf42a78b91f2a,2022-07-06_09h30.03.272,Colour_Asymmetry_Pilot,2022.1.3,Win32,59.79788315,62c50e9c1127f2cd403a315f,0,113,113,95,1,fourthree,,,,,,,,,,,,,,,,,,,,,,,,,,,,,,,,,,,,,,,,,,,,,,,,,,,,,,,,,,,,,,,,,,,,,,,,,,,,,,,,,,,,,,,,,,,,,,,,,,,,,,,,,,,,,,,,,,,,,,,,,,,,,,,,,,,,,,,,,,,,,,,,,,,,,,,,,,,,,
,,,,,,610bb066fa8d2a5647a40c77,62c539a32c3cf42a78b91f2a,2022-07-06_09h30.03.272,Colour_Asymmetry_Pilot,2022.1.3,Win32,59.79788315,62c50e9c1127f2cd403a315f,0,114,114,76,1,threeone,,,,,,,,,,,,,,,,,,,,,,,,,,,,,,,,,,,,,,,,,,,,,,,,,,,,,,,,,,,,,,,,,,,,,,,,,,,,,,,,,,,,,,,,,,,,,,,,,,,,,,,,,,,,,,,,,,,,,,,,,,,,,,,,,,,,,,,,,,,,,,,,,,,,,,,,,,,,,
,,,,,,610bb066fa8d2a5647a40c77,62c539a32c3cf42a78b91f2a,2022-07-06_09h30.03.272,Colour_Asymmetry_Pilot,2022.1.3,Win32,59.79788315,62c50e9c1127f2cd403a315f,0,115,115,10,1,twoone,,,,,,,,,,,,,,,,,,,,,,,,,,,,,,,,,,,,,,,,,,,,,,,,,,,,,,,,,,,,,,,,,,,,,,,,,,,,,,,,,,,,,,,,,,,,,,,,,,,,,,,,,,,,,,,,,,,,,,,,,,,,,,,,,,,,,,,,,,,,,,,,,,,,,,,,,,,,,
,,,,,,610bb066fa8d2a5647a40c77,62c539a32c3cf42a78b91f2a,2022-07-06_09h30.03.272,Colour_Asymmetry_Pilot,2022.1.3,Win32,59.79788315,62c50e9c1127f2cd403a315f,0,116,116,111,1,fourthree,,,,,,,,,,,,,,,,,,,,,,,,,,,,,,,,,,,,,,,,,,,,,,,,,,,,,,,,,,,,,,,,,,,,,,,,,,,,,,,,,,,,,,,,,,,,,,,,,,,,,,,,,,,,,,,,,,,,,,,,,,,,,,,,,,,,,,,,,,,,,,,,,,,,,,,,,,,,,
,,,,,,610bb066fa8d2a5647a40c77,62c539a32c3cf42a78b91f2a,2022-07-06_09h30.03.272,Colour_Asymmetry_Pilot,2022.1.3,Win32,59.79788315,62c50e9c1127f2cd403a315f,0,117,117,112,1,onetwo,,,,,,,,,,,,,,,,,,,,,,,,,,,,,,,,,,,,,,,,,,,,,,,,,,,,,,,,,,,,,,,,,,,,,,,,,,,,,,,,,,,,,,,,,,,,,,,,,,,,,,,,,,,,,,,,,,,,,,,,,,,,,,,,,,,,,,,,,,,,,,,,,,,,,,,,,,,,,
,,,,,,610bb066fa8d2a5647a40c77,62c539a32c3cf42a78b91f2a,2022-07-06_09h30.03.272,Colour_Asymmetry_Pilot,2022.1.3,Win32,59.79788315,62c50e9c1127f2cd403a315f,0,118,118,149,1,threefour,,,,,,,,,,,,,,,,,,,,,,,,,,,,,,,,,,,,,,,,,,,,,,,,,,,,,,,,,,,,,,,,,,,,,,,,,,,,,,,,,,,,,,,,,,,,,,,,,,,,,,,,,,,,,,,,,,,,,,,,,,,,,,,,,,,,,,,,,,,,,,,,,,,,,,,,,,,,,
,,,,,,610bb066fa8d2a5647a40c77,62c539a32c3cf42a78b91f2a,2022-07-06_09h30.03.272,Colour_Asymmetry_Pilot,2022.1.3,Win32,59.79788315,62c50e9c1127f2cd403a315f,0,119,119,67,1,twofour,,,,,,,,,,,,,,,,,,,,,,,,,,,,,,,,,,,,,,,,,,,,,,,,,,,,,,,,,,,,,,,,,,,,,,,,,,,,,,,,,,,,,,,,,,,,,,,,,,,,,,,,,,,,,,,,,,,,,,,,,,,,,,,,,,,,,,,,,,,,,,,,,,,,,,,,,,,,,
,,,,,,610bb066fa8d2a5647a40c77,62c539a32c3cf42a78b91f2a,2022-07-06_09h30.03.272,Colour_Asymmetry_Pilot,2022.1.3,Win32,59.79788315,62c50e9c1127f2cd403a315f,0,120,120,115,1,twofour,,,,,,,,,,,,,,,,,,,,,,,,,,,,,,,,,,,,,,,,,,,,,,,,,,,,,,,,,,,,,,,,,,,,,,,,,,,,,,,,,,,,,,,,,,,,,,,,,,,,,,,,,,,,,,,,,,,,,,,,,,,,,,,,,,,,,,,,,,,,,,,,,,,,,,,,,,,,,
,,,,,,610bb066fa8d2a5647a40c77,62c539a32c3cf42a78b91f2a,2022-07-06_09h30.03.272,Colour_Asymmetry_Pilot,2022.1.3,Win32,59.79788315,62c50e9c1127f2cd403a315f,0,121,121,55,1,fourthree,,,,,,,,,,,,,,,,,,,,,,,,,,,,,,,,,,,,,,,,,,,,,,,,,,,,,,,,,,,,,,,,,,,,,,,,,,,,,,,,,,,,,,,,,,,,,,,,,,,,,,,,,,,,,,,,,,,,,,,,,,,,,,,,,,,,,,,,,,,,,,,,,,,,,,,,,,,,,
,,,,,,610bb066fa8d2a5647a40c77,62c539a32c3cf42a78b91f2a,2022-07-06_09h30.03.272,Colour_Asymmetry_Pilot,2022.1.3,Win32,59.79788315,62c50e9c1127f2cd403a315f,0,122,122,101,1,threefour,,,,,,,,,,,,,,,,,,,,,,,,,,,,,,,,,,,,,,,,,,,,,,,,,,,,,,,,,,,,,,,,,,,,,,,,,,,,,,,,,,,,,,,,,,,,,,,,,,,,,,,,,,,,,,,,,,,,,,,,,,,,,,,,,,,,,,,,,,,,,,,,,,,,,,,,,,,,,
,,,,,,610bb066fa8d2a5647a40c77,62c539a32c3cf42a78b91f2a,2022-07-06_09h30.03.272,Colour_Asymmetry_Pilot,2022.1.3,Win32,59.79788315,62c50e9c1127f2cd403a315f,0,123,123,11,1,twofour,,,,,,,,,,,,,,,,,,,,,,,,,,,,,,,,,,,,,,,,,,,,,,,,,,,,,,,,,,,,,,,,,,,,,,,,,,,,,,,,,,,,,,,,,,,,,,,,,,,,,,,,,,,,,,,,,,,,,,,,,,,,,,,,,,,,,,,,,,,,,,,,,,,,,,,,,,,,,
,,,,,,610bb066fa8d2a5647a40c77,62c539a32c3cf42a78b91f2a,2022-07-06_09h30.03.272,Colour_Asymmetry_Pilot,2022.1.3,Win32,59.79788315,62c50e9c1127f2cd403a315f,0,124,124,80,1,onetwo,,,,,,,,,,,,,,,,,,,,,,,,,,,,,,,,,,,,,,,,,,,,,,,,,,,,,,,,,,,,,,,,,,,,,,,,,,,,,,,,,,,,,,,,,,,,,,,,,,,,,,,,,,,,,,,,,,,,,,,,,,,,,,,,,,,,,,,,,,,,,,,,,,,,,,,,,,,,,
,,,,,,610bb066fa8d2a5647a40c77,62c539a32c3cf42a78b91f2a,2022-07-06_09h30.03.272,Colour_Asymmetry_Pilot,2022.1.3,Win32,59.79788315,62c50e9c1127f2cd403a315f,0,125,125,31,1,fourthree,,,,,,,,,,,,,,,,,,,,,,,,,,,,,,,,,,,,,,,,,,,,,,,,,,,,,,,,,,,,,,,,,,,,,,,,,,,,,,,,,,,,,,,,,,,,,,,,,,,,,,,,,,,,,,,,,,,,,,,,,,,,,,,,,,,,,,,,,,,,,,,,,,,,,,,,,,,,,
,,,,,,610bb066fa8d2a5647a40c77,62c539a32c3cf42a78b91f2a,2022-07-06_09h30.03.272,Colour_Asymmetry_Pilot,2022.1.3,Win32,59.79788315,62c50e9c1127f2cd403a315f,0,126,126,15,1,fourthree,,,,,,,,,,,,,,,,,,,,,,,,,,,,,,,,,,,,,,,,,,,,,,,,,,,,,,,,,,,,,,,,,,,,,,,,,,,,,,,,,,,,,,,,,,,,,,,,,,,,,,,,,,,,,,,,,,,,,,,,,,,,,,,,,,,,,,,,,,,,,,,,,,,,,,,,,,,,,
,,,,,,610bb066fa8d2a5647a40c77,62c539a32c3cf42a78b91f2a,2022-07-06_09h30.03.272,Colour_Asymmetry_Pilot,2022.1.3,Win32,59.79788315,62c50e9c1127f2cd403a315f,0,127,127,14,1,fourtwo,,,,,,,,,,,,,,,,,,,,,,,,,,,,,,,,,,,,,,,,,,,,,,,,,,,,,,,,,,,,,,,,,,,,,,,,,,,,,,,,,,,,,,,,,,,,,,,,,,,,,,,,,,,,,,,,,,,,,,,,,,,,,,,,,,,,,,,,,,,,,,,,,,,,,,,,,,,,,
,,,,,,610bb066fa8d2a5647a40c77,62c539a32c3cf42a78b91f2a,2022-07-06_09h30.03.272,Colour_Asymmetry_Pilot,2022.1.3,Win32,59.79788315,62c50e9c1127f2cd403a315f,0,128,128,103,1,fourthree,,,,,,,,,,,,,,,,,,,,,,,,,,,,,,,,,,,,,,,,,,,,,,,,,,,,,,,,,,,,,,,,,,,,,,,,,,,,,,,,,,,,,,,,,,,,,,,,,,,,,,,,,,,,,,,,,,,,,,,,,,,,,,,,,,,,,,,,,,,,,,,,,,,,,,,,,,,,,
,,,,,,610bb066fa8d2a5647a40c77,62c539a32c3cf42a78b91f2a,2022-07-06_09h30.03.272,Colour_Asymmetry_Pilot,2022.1.3,Win32,59.79788315,62c50e9c1127f2cd403a315f,0,129,129,97,1,onethree,,,,,,,,,,,,,,,,,,,,,,,,,,,,,,,,,,,,,,,,,,,,,,,,,,,,,,,,,,,,,,,,,,,,,,,,,,,,,,,,,,,,,,,,,,,,,,,,,,,,,,,,,,,,,,,,,,,,,,,,,,,,,,,,,,,,,,,,,,,,,,,,,,,,,,,,,,,,,
,,,,,,610bb066fa8d2a5647a40c77,62c539a32c3cf42a78b91f2a,2022-07-06_09h30.03.272,Colour_Asymmetry_Pilot,2022.1.3,Win32,59.79788315,62c50e9c1127f2cd403a315f,0,130,130,72,1,onetwo,,,,,,,,,,,,,,,,,,,,,,,,,,,,,,,,,,,,,,,,,,,,,,,,,,,,,,,,,,,,,,,,,,,,,,,,,,,,,,,,,,,,,,,,,,,,,,,,,,,,,,,,,,,,,,,,,,,,,,,,,,,,,,,,,,,,,,,,,,,,,,,,,,,,,,,,,,,,,
,,,,,,610bb066fa8d2a5647a40c77,62c539a32c3cf42a78b91f2a,2022-07-06_09h30.03.272,Colour_Asymmetry_Pilot,2022.1.3,Win32,59.79788315,62c50e9c1127f2cd403a315f,0,131,131,135,1,fourthree,,,,,,,,,,,,,,,,,,,,,,,,,,,,,,,,,,,,,,,,,,,,,,,,,,,,,,,,,,,,,,,,,,,,,,,,,,,,,,,,,,,,,,,,,,,,,,,,,,,,,,,,,,,,,,,,,,,,,,,,,,,,,,,,,,,,,,,,,,,,,,,,,,,,,,,,,,,,,
,,,,,,610bb066fa8d2a5647a40c77,62c539a32c3cf42a78b91f2a,2022-07-06_09h30.03.272,Colour_Asymmetry_Pilot,2022.1.3,Win32,59.79788315,62c50e9c1127f2cd403a315f,0,132,132,40,1,onetwo,,,,,,,,,,,,,,,,,,,,,,,,,,,,,,,,,,,,,,,,,,,,,,,,,,,,,,,,,,,,,,,,,,,,,,,,,,,,,,,,,,,,,,,,,,,,,,,,,,,,,,,,,,,,,,,,,,,,,,,,,,,,,,,,,,,,,,,,,,,,,,,,,,,,,,,,,,,,,
,,,,,,610bb066fa8d2a5647a40c77,62c539a32c3cf42a78b91f2a,2022-07-06_09h30.03.272,Colour_Asymmetry_Pilot,2022.1.3,Win32,59.79788315,62c50e9c1127f2cd403a315f,0,133,133,52,1,threeone,,,,,,,,,,,,,,,,,,,,,,,,,,,,,,,,,,,,,,,,,,,,,,,,,,,,,,,,,,,,,,,,,,,,,,,,,,,,,,,,,,,,,,,,,,,,,,,,,,,,,,,,,,,,,,,,,,,,,,,,,,,,,,,,,,,,,,,,,,,,,,,,,,,,,,,,,,,,,
,,,,,,610bb066fa8d2a5647a40c77,62c539a32c3cf42a78b91f2a,2022-07-06_09h30.03.272,Colour_Asymmetry_Pilot,2022.1.3,Win32,59.79788315,62c50e9c1127f2cd403a315f,0,134,134,6,1,fourtwo,,,,,,,,,,,,,,,,,,,,,,,,,,,,,,,,,,,,,,,,,,,,,,,,,,,,,,,,,,,,,,,,,,,,,,,,,,,,,,,,,,,,,,,,,,,,,,,,,,,,,,,,,,,,,,,,,,,,,,,,,,,,,,,,,,,,,,,,,,,,,,,,,,,,,,,,,,,,,
,,,,,,610bb066fa8d2a5647a40c77,62c539a32c3cf42a78b91f2a,2022-07-06_09h30.03.272,Colour_Asymmetry_Pilot,2022.1.3,Win32,59.79788315,62c50e9c1127f2cd403a315f,0,135,135,77,1,threefour,,,,,,,,,,,,,,,,,,,,,,,,,,,,,,,,,,,,,,,,,,,,,,,,,,,,,,,,,,,,,,,,,,,,,,,,,,,,,,,,,,,,,,,,,,,,,,,,,,,,,,,,,,,,,,,,,,,,,,,,,,,,,,,,,,,,,,,,,,,,,,,,,,,,,,,,,,,,,
,,,,,,610bb066fa8d2a5647a40c77,62c539a32c3cf42a78b91f2a,2022-07-06_09h30.03.272,Colour_Asymmetry_Pilot,2022.1.3,Win32,59.79788315,62c50e9c1127f2cd403a315f,0,136,136,130,1,twoone,,,,,,,,,,,,,,,,,,,,,,,,,,,,,,,,,,,,,,,,,,,,,,,,,,,,,,,,,,,,,,,,,,,,,,,,,,,,,,,,,,,,,,,,,,,,,,,,,,,,,,,,,,,,,,,,,,,,,,,,,,,,,,,,,,,,,,,,,,,,,,,,,,,,,,,,,,,,,
,,,,,,610bb066fa8d2a5647a40c77,62c539a32c3cf42a78b91f2a,2022-07-06_09h30.03.272,Colour_Asymmetry_Pilot,2022.1.3,Win32,59.79788315,62c50e9c1127f2cd403a315f,0,137,137,75,1,twofour,,,,,,,,,,,,,,,,,,,,,,,,,,,,,,,,,,,,,,,,,,,,,,,,,,,,,,,,,,,,,,,,,,,,,,,,,,,,,,,,,,,,,,,,,,,,,,,,,,,,,,,,,,,,,,,,,,,,,,,,,,,,,,,,,,,,,,,,,,,,,,,,,,,,,,,,,,,,,
,,,,,,610bb066fa8d2a5647a40c77,62c539a32c3cf42a78b91f2a,2022-07-06_09h30.03.272,Colour_Asymmetry_Pilot,2022.1.3,Win32,59.79788315,62c50e9c1127f2cd403a315f,0,138,138,8,1,onetwo,,,,,,,,,,,,,,,,,,,,,,,,,,,,,,,,,,,,,,,,,,,,,,,,,,,,,,,,,,,,,,,,,,,,,,,,,,,,,,,,,,,,,,,,,,,,,,,,,,,,,,,,,,,,,,,,,,,,,,,,,,,,,,,,,,,,,,,,,,,,,,,,,,,,,,,,,,,,,
,,,,,,610bb066fa8d2a5647a40c77,62c539a32c3cf42a78b91f2a,2022-07-06_09h30.03.272,Colour_Asymmetry_Pilot,2022.1.3,Win32,59.79788315,62c50e9c1127f2cd403a315f,0,139,139,17,1,onethree,,,,,,,,,,,,,,,,,,,,,,,,,,,,,,,,,,,,,,,,,,,,,,,,,,,,,,,,,,,,,,,,,,,,,,,,,,,,,,,,,,,,,,,,,,,,,,,,,,,,,,,,,,,,,,,,,,,,,,,,,,,,,,,,,,,,,,,,,,,,,,,,,,,,,,,,,,,,,
,,,,,,610bb066fa8d2a5647a40c77,62c539a32c3cf42a78b91f2a,2022-07-06_09h30.03.272,Colour_Asymmetry_Pilot,2022.1.3,Win32,59.79788315,62c50e9c1127f2cd403a315f,0,140,140,143,1,fourthree,,,,,,,,,,,,,,,,,,,,,,,,,,,,,,,,,,,,,,,,,,,,,,,,,,,,,,,,,,,,,,,,,,,,,,,,,,,,,,,,,,,,,,,,,,,,,,,,,,,,,,,,,,,,,,,,,,,,,,,,,,,,,,,,,,,,,,,,,,,,,,,,,,,,,,,,,,,,,
,,,,,,610bb066fa8d2a5647a40c77,62c539a32c3cf42a78b91f2a,2022-07-06_09h30.03.272,Colour_Asymmetry_Pilot,2022.1.3,Win32,59.79788315,62c50e9c1127f2cd403a315f,0,141,141,160,1,onetwo,,,,,,,,,,,,,,,,,,,,,,,,,,,,,,,,,,,,,,,,,,,,,,,,,,,,,,,,,,,,,,,,,,,,,,,,,,,,,,,,,,,,,,,,,,,,,,,,,,,,,,,,,,,,,,,,,,,,,,,,,,,,,,,,,,,,,,,,,,,,,,,,,,,,,,,,,,,,,
,,,,,,610bb066fa8d2a5647a40c77,62c539a32c3cf42a78b91f2a,2022-07-06_09h30.03.272,Colour_Asymmetry_Pilot,2022.1.3,Win32,59.79788315,62c50e9c1127f2cd403a315f,0,142,142,71,1,fourthree,,,,,,,,,,,,,,,,,,,,,,,,,,,,,,,,,,,,,,,,,,,,,,,,,,,,,,,,,,,,,,,,,,,,,,,,,,,,,,,,,,,,,,,,,,,,,,,,,,,,,,,,,,,,,,,,,,,,,,,,,,,,,,,,,,,,,,,,,,,,,,,,,,,,,,,,,,,,,
,,,,,,610bb066fa8d2a5647a40c77,62c539a32c3cf42a78b91f2a,2022-07-06_09h30.03.272,Colour_Asymmetry_Pilot,2022.1.3,Win32,59.79788315,62c50e9c1127f2cd403a315f,0,143,143,145,1,onethree,,,,,,,,,,,,,,,,,,,,,,,,,,,,,,,,,,,,,,,,,,,,,,,,,,,,,,,,,,,,,,,,,,,,,,,,,,,,,,,,,,,,,,,,,,,,,,,,,,,,,,,,,,,,,,,,,,,,,,,,,,,,,,,,,,,,,,,,,,,,,,,,,,,,,,,,,,,,,
,,,,,,610bb066fa8d2a5647a40c77,62c539a32c3cf42a78b91f2a,2022-07-06_09h30.03.272,Colour_Asymmetry_Pilot,2022.1.3,Win32,59.79788315,62c50e9c1127f2cd403a315f,0,144,144,129,1,onethree,,,,,,,,,,,,,,,,,,,,,,,,,,,,,,,,,,,,,,,,,,,,,,,,,,,,,,,,,,,,,,,,,,,,,,,,,,,,,,,,,,,,,,,,,,,,,,,,,,,,,,,,,,,,,,,,,,,,,,,,,,,,,,,,,,,,,,,,,,,,,,,,,,,,,,,,,,,,,
,,,,,,610bb066fa8d2a5647a40c77,62c539a32c3cf42a78b91f2a,2022-07-06_09h30.03.272,Colour_Asymmetry_Pilot,2022.1.3,Win32,59.79788315,62c50e9c1127f2cd403a315f,0,145,145,4,1,threeone,,,,,,,,,,,,,,,,,,,,,,,,,,,,,,,,,,,,,,,,,,,,,,,,,,,,,,,,,,,,,,,,,,,,,,,,,,,,,,,,,,,,,,,,,,,,,,,,,,,,,,,,,,,,,,,,,,,,,,,,,,,,,,,,,,,,,,,,,,,,,,,,,,,,,,,,,,,,,
,,,,,,610bb066fa8d2a5647a40c77,62c539a32c3cf42a78b91f2a,2022-07-06_09h30.03.272,Colour_Asymmetry_Pilot,2022.1.3,Win32,59.79788315,62c50e9c1127f2cd403a315f,0,146,146,121,1,onethree,,,,,,,,,,,,,,,,,,,,,,,,,,,,,,,,,,,,,,,,,,,,,,,,,,,,,,,,,,,,,,,,,,,,,,,,,,,,,,,,,,,,,,,,,,,,,,,,,,,,,,,,,,,,,,,,,,,,,,,,,,,,,,,,,,,,,,,,,,,,,,,,,,,,,,,,,,,,,
,,,,,,610bb066fa8d2a5647a40c77,62c539a32c3cf42a78b91f2a,2022-07-06_09h30.03.272,Colour_Asymmetry_Pilot,2022.1.3,Win32,59.79788315,62c50e9c1127f2cd403a315f,0,147,147,50,1,twoone,,,,,,,,,,,,,,,,,,,,,,,,,,,,,,,,,,,,,,,,,,,,,,,,,,,,,,,,,,,,,,,,,,,,,,,,,,,,,,,,,,,,,,,,,,,,,,,,,,,,,,,,,,,,,,,,,,,,,,,,,,,,,,,,,,,,,,,,,,,,,,,,,,,,,,,,,,,,,
,,,,,,610bb066fa8d2a5647a40c77,62c539a32c3cf42a78b91f2a,2022-07-06_09h30.03.272,Colour_Asymmetry_Pilot,2022.1.3,Win32,59.79788315,62c50e9c1127f2cd403a315f,0,148,148,94,1,fourtwo,,,,,,,,,,,,,,,,,,,,,,,,,,,,,,,,,,,,,,,,,,,,,,,,,,,,,,,,,,,,,,,,,,,,,,,,,,,,,,,,,,,,,,,,,,,,,,,,,,,,,,,,,,,,,,,,,,,,,,,,,,,,,,,,,,,,,,,,,,,,,,,,,,,,,,,,,,,,,
,,,,,,610bb066fa8d2a5647a40c77,62c539a32c3cf42a78b91f2a,2022-07-06_09h30.03.272,Colour_Asymmetry_Pilot,2022.1.3,Win32,59.79788315,62c50e9c1127f2cd403a315f,0,149,149,93,1,threefour,,,,,,,,,,,,,,,,,,,,,,,,,,,,,,,,,,,,,,,,,,,,,,,,,,,,,,,,,,,,,,,,,,,,,,,,,,,,,,,,,,,,,,,,,,,,,,,,,,,,,,,,,,,,,,,,,,,,,,,,,,,,,,,,,,,,,,,,,,,,,,,,,,,,,,,,,,,,,
,,,,,,610bb066fa8d2a5647a40c77,62c539a32c3cf42a78b91f2a,2022-07-06_09h30.03.272,Colour_Asymmetry_Pilot,2022.1.3,Win32,59.79788315,62c50e9c1127f2cd403a315f,0,150,150,51,1,twofour,,,,,,,,,,,,,,,,,,,,,,,,,,,,,,,,,,,,,,,,,,,,,,,,,,,,,,,,,,,,,,,,,,,,,,,,,,,,,,,,,,,,,,,,,,,,,,,,,,,,,,,,,,,,,,,,,,,,,,,,,,,,,,,,,,,,,,,,,,,,,,,,,,,,,,,,,,,,,
,,,,,,610bb066fa8d2a5647a40c77,62c539a32c3cf42a78b91f2a,2022-07-06_09h30.03.272,Colour_Asymmetry_Pilot,2022.1.3,Win32,59.79788315,62c50e9c1127f2cd403a315f,0,151,151,85,1,threefour,,,,,,,,,,,,,,,,,,,,,,,,,,,,,,,,,,,,,,,,,,,,,,,,,,,,,,,,,,,,,,,,,,,,,,,,,,,,,,,,,,,,,,,,,,,,,,,,,,,,,,,,,,,,,,,,,,,,,,,,,,,,,,,,,,,,,,,,,,,,,,,,,,,,,,,,,,,,,
,,,,,,610bb066fa8d2a5647a40c77,62c539a32c3cf42a78b91f2a,2022-07-06_09h30.03.272,Colour_Asymmetry_Pilot,2022.1.3,Win32,59.79788315,62c50e9c1127f2cd403a315f,0,152,152,78,1,fourtwo,,,,,,,,,,,,,,,,,,,,,,,,,,,,,,,,,,,,,,,,,,,,,,,,,,,,,,,,,,,,,,,,,,,,,,,,,,,,,,,,,,,,,,,,,,,,,,,,,,,,,,,,,,,,,,,,,,,,,,,,,,,,,,,,,,,,,,,,,,,,,,,,,,,,,,,,,,,,,
,,,,,,610bb066fa8d2a5647a40c77,62c539a32c3cf42a78b91f2a,2022-07-06_09h30.03.272,Colour_Asymmetry_Pilot,2022.1.3,Win32,59.79788315,62c50e9c1127f2cd403a315f,0,153,153,128,1,onetwo,,,,,,,,,,,,,,,,,,,,,,,,,,,,,,,,,,,,,,,,,,,,,,,,,,,,,,,,,,,,,,,,,,,,,,,,,,,,,,,,,,,,,,,,,,,,,,,,,,,,,,,,,,,,,,,,,,,,,,,,,,,,,,,,,,,,,,,,,,,,,,,,,,,,,,,,,,,,,
,,,,,,610bb066fa8d2a5647a40c77,62c539a32c3cf42a78b91f2a,2022-07-06_09h30.03.272,Colour_Asymmetry_Pilot,2022.1.3,Win32,59.79788315,62c50e9c1127f2cd403a315f,0,154,154,56,1,onetwo,,,,,,,,,,,,,,,,,,,,,,,,,,,,,,,,,,,,,,,,,,,,,,,,,,,,,,,,,,,,,,,,,,,,,,,,,,,,,,,,,,,,,,,,,,,,,,,,,,,,,,,,,,,,,,,,,,,,,,,,,,,,,,,,,,,,,,,,,,,,,,,,,,,,,,,,,,,,,
,,,,,,610bb066fa8d2a5647a40c77,62c539a32c3cf42a78b91f2a,2022-07-06_09h30.03.272,Colour_Asymmetry_Pilot,2022.1.3,Win32,59.79788315,62c50e9c1127f2cd403a315f,0,155,155,5,1,threefour,,,,,,,,,,,,,,,,,,,,,,,,,,,,,,,,,,,,,,,,,,,,,,,,,,,,,,,,,,,,,,,,,,,,,,,,,,,,,,,,,,,,,,,,,,,,,,,,,,,,,,,,,,,,,,,,,,,,,,,,,,,,,,,,,,,,,,,,,,,,,,,,,,,,,,,,,,,,,
,,,,,,610bb066fa8d2a5647a40c77,62c539a32c3cf42a78b91f2a,2022-07-06_09h30.03.272,Colour_Asymmetry_Pilot,2022.1.3,Win32,59.79788315,62c50e9c1127f2cd403a315f,0,156,156,21,1,threefour,,,,,,,,,,,,,,,,,,,,,,,,,,,,,,,,,,,,,,,,,,,,,,,,,,,,,,,,,,,,,,,,,,,,,,,,,,,,,,,,,,,,,,,,,,,,,,,,,,,,,,,,,,,,,,,,,,,,,,,,,,,,,,,,,,,,,,,,,,,,,,,,,,,,,,,,,,,,,
,,,,,,610bb066fa8d2a5647a40c77,62c539a32c3cf42a78b91f2a,2022-07-06_09h30.03.272,Colour_Asymmetry_Pilot,2022.1.3,Win32,59.79788315,62c50e9c1127f2cd403a315f,0,157,157,24,1,onetwo,,,,,,,,,,,,,,,,,,,,,,,,,,,,,,,,,,,,,,,,,,,,,,,,,,,,,,,,,,,,,,,,,,,,,,,,,,,,,,,,,,,,,,,,,,,,,,,,,,,,,,,,,,,,,,,,,,,,,,,,,,,,,,,,,,,,,,,,,,,,,,,,,,,,,,,,,,,,,
,,,,,,610bb066fa8d2a5647a40c77,62c539a32c3cf42a78b91f2a,2022-07-06_09h30.03.272,Colour_Asymmetry_Pilot,2022.1.3,Win32,59.79788315,62c50e9c1127f2cd403a315f,0,158,158,116,1,threeone,,,,,,,,,,,,,,,,,,,,,,,,,,,,,,,,,,,,,,,,,,,,,,,,,,,,,,,,,,,,,,,,,,,,,,,,,,,,,,,,,,,,,,,,,,,,,,,,,,,,,,,,,,,,,,,,,,,,,,,,,,,,,,,,,,,,,,,,,,,,,,,,,,,,,,,,,,,,,
,,,,,,610bb066fa8d2a5647a40c77,62c539a32c3cf42a78b91f2a,2022-07-06_09h30.03.272,Colour_Asymmetry_Pilot,2022.1.3,Win32,59.79788315,62c50e9c1127f2cd403a315f,0,159,159,70,1,fourtwo,,,,,,,,,,,,,,,,,,,,,,,,,,,,,,,,,,,,,,,,,,,,,,,,,,,,,,,,,,,,,,,,,,,,,,,,,,,,,,,,,,,,,,,,,,,,,,,,,,,,,,,,,,,,,,,,,,,,,,,,,,,,,,,,,,,,,,,,,,,,,,,,,,,,,,,,,,,,,
,,,,,,610bb066fa8d2a5647a40c77,62c539a32c3cf42a78b91f2a,2022-07-06_09h30.03.272,Colour_Asymmetry_Pilot,2022.1.3,Win32,59.79788315,62c50e9c1127f2cd403a315f,0,160,160,119,1,fourthree,,,,,,,,,,,,,,,,,,,,,,,,,,,,,,,,,,,,,,,,,,,,,,,,,,,,,,,,,,,,,,,,,,,,,,,,,,,,,,,,,,,,,,,,,,,,,,,,,,,,,,,,,,,,,,,,,,,,,,,,,,,,,,,,,,,,,,,,,,,,,,,,,,,,,,,,,,,,,
,,,,,,610bb066fa8d2a5647a40c77,62c539a32c3cf42a78b91f2a,2022-07-06_09h30.03.272,Colour_Asymmetry_Pilot,2022.1.3,Win32,59.79788315,62c50e9c1127f2cd403a315f,0,161,161,96,1,onetwo,,,,,,,,,,,,,,,,,,,,,,,,,,,,,,,,,,,,,,,,,,,,,,,,,,,,,,,,,,,,,,,,,,,,,,,,,,,,,,,,,,,,,,,,,,,,,,,,,,,,,,,,,,,,,,,,,,,,,,,,,,,,,,,,,,,,,,,,,,,,,,,,,,,,,,,,,,,,,
,,,,,,610bb066fa8d2a5647a40c77,62c539a32c3cf42a78b91f2a,2022-07-06_09h30.03.272,Colour_Asymmetry_Pilot,2022.1.3,Win32,59.79788315,62c50e9c1127f2cd403a315f,,,,,,,space,1.9178,space,1.9384,space,43.4012,space,3.6661,space,1.7388,space,4.2141,"[0.9763999999999999,-0.1137999999999999,-0.6314]",threeone,"[0.23120000000000007,-0.7726,-0.34120000000000006]",-3,12.5187,-60,38,1,0,0,response7disk_5,-5,3,1,0,0,rectangle_8,-5,3,1,0,0,3,-5,3,1,0,0,0,0,0,0,1,,,,,,,,,,,,,,,,,,,,,,,,,,,,,,,,,,,,,,,,,,,,,,,,,,,,,,,,,,,,,,,,,,,,,,,,,,,,,,,,,,,,,,,,,,,,,,,,,,,,,,,,,,,,,,,,
,,,,,,610bb066fa8d2a5647a40c77,62c539a32c3cf42a78b91f2a,2022-07-06_09h30.03.272,Colour_Asymmetry_Pilot,2022.1.3,Win32,59.79788315,62c50e9c1127f2cd403a315f,,,,,,,,,,,,,,,,,,,"[0.18419999999999992,-0.4276,-0.404]",fourtwo,"[-0.9688,-0.38039999999999996,-0.41979999999999995]",-3,2.9936,-60,37,1,0,0,response7disk_5,-3,-1,1,0,0,rectangle_8,-3,-1,1,0,0,3,-3,-1,1,0,0,1,0,1,0,1,,,,,,,,,,,,,,,,,,,,,,,,,,,,,,,,,,,,,,,,,,,,,,,,,,,,,,,,,,,,,,,,,,,,,,,,,,,,,,,,,,,,,,,,,,,,,,,,,,,,,,,,,,,,,,,,
,,,,,,610bb066fa8d2a5647a40c77,62c539a32c3cf42a78b91f2a,2022-07-06_09h30.03.272,Colour_Asymmetry_Pilot,2022.1.3,Win32,59.79788315,62c50e9c1127f2cd403a315f,,,,,,,,,,,,,,,,,,,"[-0.38039999999999996,-0.4276,-0.1452]",twoone,"[-0.5922000000000001,-0.7492000000000001,-0.5296000000000001]",4,1.7302,56,72,1,0,0,response1disk_5,3,5,1,0,0,rectangle_8,3,5,1,0,0,3,3,5,1,0,0,2,0,2,0,1,,,,,,,,,,,,,,,,,,,,,,,,,,,,,,,,,,,,,,,,,,,,,,,,,,,,,,,,,,,,,,,,,,,,,,,,,,,,,,,,,,,,,,,,,,,,,,,,,,,,,,,,,,,,,,,,
,,,,,,610bb066fa8d2a5647a40c77,62c539a32c3cf42a78b91f2a,2022-07-06_09h30.03.272,Colour_Asymmetry_Pilot,2022.1.3,Win32,59.79788315,62c50e9c1127f2cd403a315f,,,,,,,,,,,,,,,,,,,"[-0.050999999999999934,-0.6706000000000001,-0.804]",threefour,"[0.4196,0.4665999999999999,0.3568]",-4,1.0379,-36,42,1,0,0,response7disk_5,11,4,1,0,0,rectangle_8,11,4,1,0,0,3,11,4,1,0,0,3,0,3,0,1,,,,,,,,,,,,,,,,,,,,,,,,,,,,,,,,,,,,,,,,,,,,,,,,,,,,,,,,,,,,,,,,,,,,,,,,,,,,,,,,,,,,,,,,,,,,,,,,,,,,,,,,,,,,,,,,
,,,,,,610bb066fa8d2a5647a40c77,62c539a32c3cf42a78b91f2a,2022-07-06_09h30.03.272,Colour_Asymmetry_Pilot,2022.1.3,Win32,59.79788315,62c50e9c1127f2cd403a315f,,,,,,,,,,,,,,,,,,,"[-0.17659999999999998,-0.2864,-0.8354]",twoone,"[-0.4902000000000001,0.2704,-0.45899999999999996]",-3,1.4835,-80,58,1,0,0,response7disk_5,-1,-2,1,0,0,rectangle_8,-1,-2,1,0,0,3,-1,-2,1,0,0,4,0,4,0,1,,,,,,,,,,,,,,,,,,,,,,,,,,,,,,,,,,,,,,,,,,,,,,,,,,,,,,,,,,,,,,,,,,,,,,,,,,,,,,,,,,,,,,,,,,,,,,,,,,,,,,,,,,,,,,,,
,,,,,,610bb066fa8d2a5647a40c77,62c539a32c3cf42a78b91f2a,2022-07-06_09h30.03.272,Colour_Asymmetry_Pilot,2022.1.3,Win32,59.79788315,62c50e9c1127f2cd403a315f,,,,,,,,,,,,,,,,,,,"[-0.5452,-0.608,0.2470000000000001]",threefour,"[-0.01980000000000004,-0.5138,-0.38039999999999996]",-4,1.0041,-50,88,1,0,0,response7disk_5,0,4,1,0,0,rectangle_8,-52,75,1,0,0,3,-3,-5,1,0,0,5,0,5,0,1,response7disk_7,0,rectangle_4,,,,,,,,,,,,,,,,,,,,,,,,,,,,,,,,,,,,,,,,,,,,,,,,,,,,,,,,,,,,,,,,,,,,,,,,,,,,,,,,,,,,,,,,,,,,,,,,,,,,,,,,,,,,,
,,,,,,610bb066fa8d2a5647a40c77,62c539a32c3cf42a78b91f2a,2022-07-06_09h30.03.272,Colour_Asymmetry_Pilot,2022.1.3,Win32,59.79788315,62c50e9c1127f2cd403a315f,,,,,,,,,,,,,,,,,,,"[-0.45899999999999996,-0.3256,-0.9374]",threeone,"[0.8274000000000001,-0.5844,-0.9452]",-4,0.9699,-48,83,1,0,0,response7disk_5,0,3,1,0,0,rectangle_8,0,3,1,0,0,3,0,3,1,0,0,6,0,6,0,1,,,,,,,,,,,,,,,,,,,,,,,,,,,,,,,,,,,,,,,,,,,,,,,,,,,,,,,,,,,,,,,,,,,,,,,,,,,,,,,,,,,,,,,,,,,,,,,,,,,,,,,,,,,,,,,,
,,,,,,610bb066fa8d2a5647a40c77,62c539a32c3cf42a78b91f2a,2022-07-06_09h30.03.272,Colour_Asymmetry_Pilot,2022.1.3,Win32,59.79788315,62c50e9c1127f2cd403a315f,,,,,,,,,,,,,,,,,,,,fourtwo,,-4,1.3046,,,,,,,,,,,,,,,,,,,,,,,,,,,,,,,,space,5.1992,"[0.9213999999999998,0.6391999999999998,-0.9922]","[-0.4276,0.0038000000000000256,-0.3256]",-69,96,1,0,0,response7disk,-7,-1,1,0,0,rectangle,-7,-1,1,0,0,,1,0.0023,0,-7,-1,1,0,0,0,0,0,122,1,41,second,,,,,,,,,,,,,,,,,,,,,,,,,,,,,,,,,,,,,,,,,,,,,,,,,,,,,,,,,,,,,,,,,,,,,,,,
,,,,,,610bb066fa8d2a5647a40c77,62c539a32c3cf42a78b91f2a,2022-07-06_09h30.03.272,Colour_Asymmetry_Pilot,2022.1.3,Win32,59.79788315,62c50e9c1127f2cd403a315f,,,,,,,,,,,,,,,,,,,,twoone,,-4,0.5687,,,,,,,,,,,,,,,,,,,,,,,,,,,,,,,,,,"[0.12939999999999996,-0.2864,0.3253999999999999]","[-0.9138,-0.5296000000000001,-0.5529999999999999]",-41,72,1,0,0,response7disk,-5,3,1,0,0,rectangle,-5,3,1,0,0,,2,0.0027,0,-5,3,1,0,0,0,1,1,20,1,20,first,,,,,,,,,,,,,,,,,,,,,,,,,,,,,,,,,,,,,,,,,,,,,,,,,,,,,,,,,,,,,,,,,,,,,,,,
,,,,,,610bb066fa8d2a5647a40c77,62c539a32c3cf42a78b91f2a,2022-07-06_09h30.03.272,Colour_Asymmetry_Pilot,2022.1.3,Win32,59.79788315,62c50e9c1127f2cd403a315f,,,,,,,,,,,,,,,,,,,,onethree,,-4,0.4083,,,,,,,,,,,,,,,,,,,,,,,,,,,,,,,,,,"[0.4196,0.4665999999999999,0.3568]","[-0.011800000000000033,-0.906,-0.45100000000000007]",-43,61,1,0,0,response7disk,3,4,1,0,0,rectangle,79,-49,1,0,0,2,2,5.6199,1,1,-1,1,0,0,0,2,2,97,1,16,second,response3disk_3,rectangle,,,,,,,,,,,,,,,,,,,,,,,,,,,,,,,,,,,,,,,,,,,,,,,,,,,,,,,,,,,,,,,,,,,,,,
,,,,,,610bb066fa8d2a5647a40c77,62c539a32c3cf42a78b91f2a,2022-07-06_09h30.03.272,Colour_Asymmetry_Pilot,2022.1.3,Win32,59.79788315,62c50e9c1127f2cd403a315f,,,,,,,,,,,,,,,,,,,,twoone,,-4,0.6194,,,,,,,,,,,,,,,,,,,,,,,,,,,,,,,,,,"[-0.9688,-0.7412000000000001,-0.4902000000000001]","[0.18419999999999992,-0.4276,-0.404]",-37,98,1,0,0,response7disk,-3,3,1,0,0,rectangle,-3,3,1,0,0,2,2,0.0004,0,-3,3,1,0,0,0,3,3,132,1,51,second,,,,,,,,,,,,,,,,,,,,,,,,,,,,,,,,,,,,,,,,,,,,,,,,,,,,,,,,,,,,,,,,,,,,,,,,
,,,,,,610bb066fa8d2a5647a40c77,62c539a32c3cf42a78b91f2a,2022-07-06_09h30.03.272,Colour_Asymmetry_Pilot,2022.1.3,Win32,59.79788315,62c50e9c1127f2cd403a315f,,,,,,,,,,,,,,,,,,,,fourthree,,-4,0.5188,,,,,,,,,,,,,,,,,,,,,,,,,,,,,,,,,,"[-0.9216,-0.5529999999999999,-0.3962]","[-0.34920000000000007,-0.702,-0.5216]",-32,67,1,0,0,response7disk,4,-3,1,0,0,rectangle,4,-3,1,0,0,2,3,0.0012,0,4,-3,1,0,0,0,4,4,8,1,8,first,,,,,,,,,,,,,,,,,,,,,,,,,,,,,,,,,,,,,,,,,,,,,,,,,,,,,,,,,,,,,,,,,,,,,,,,
,,,,,,610bb066fa8d2a5647a40c77,62c539a32c3cf42a78b91f2a,2022-07-06_09h30.03.272,Colour_Asymmetry_Pilot,2022.1.3,Win32,59.79788315,62c50e9c1127f2cd403a315f,,,,,,,,,,,,,,,,,,,,threefour,,-4,0.5852,,,,,,,,,,,,,,,,,,,,,,,,,,,,,,,,,,"[0.5449999999999999,-0.31000000000000005,-0.0354000000000001]","[0.37240000000000006,0.4980000000000002,-0.2864]",-41,89,1,0,0,response7disk,1,2,1,0,0,rectangle,1,2,1,0,0,2,1,0.0012,0,1,2,1,0,0,0,5,5,126,1,45,second,,,,,,,,,,,,,,,,,,,,,,,,,,,,,,,,,,,,,,,,,,,,,,,,,,,,,,,,,,,,,,,,,,,,,,,,
,,,,,,610bb066fa8d2a5647a40c77,62c539a32c3cf42a78b91f2a,2022-07-06_09h30.03.272,Colour_Asymmetry_Pilot,2022.1.3,Win32,59.79788315,62c50e9c1127f2cd403a315f,,,,,,,,,,,,,,,,,,,,onethree,,-4,0.535,,,,,,,,,,,,,,,,,,,,,,,,,,,,,,,,,,"[0.9372,0.9450000000000001,0.8980000000000001]","[0.40379999999999994,0.09000000000000008,0.44300000000000006]",-31,75,1,0,0,response7disk,2,-3,1,0,0,rectangle,2,-3,1,0,0,2,2,0.0014,0,2,-3,1,0,0,0,6,6,32,1,32,first,,,,,,,,,,,,,,,,,,,,,,,,,,,,,,,,,,,,,,,,,,,,,,,,,,,,,,,,,,,,,,,,,,,,,,,,
,,,,,,610bb066fa8d2a5647a40c77,62c539a32c3cf42a78b91f2a,2022-07-06_09h30.03.272,Colour_Asymmetry_Pilot,2022.1.3,Win32,59.79788315,62c50e9c1127f2cd403a315f,,,,,,,,,,,,,,,,,,,,twoone,,-4,0.5918,,,,,,,,,,,,,,,,,,,,,,,,,,,,,,,,,,"[-0.9296,-0.12959999999999994,-0.043199999999999905]","[0.3568,-0.20799999999999996,-0.9844]",-38,95,1,0,0,response7disk,10,-2,1,0,0,rectangle,10,-2,1,0,0,2,2,0.0004,0,10,-2,1,0,0,0,7,7,143,1,62,second,,,,,,,,,,,,,,,,,,,,,,,,,,,,,,,,,,,,,,,,,,,,,,,,,,,,,,,,,,,,,,,,,,,,,,,,
,,,,,,610bb066fa8d2a5647a40c77,62c539a32c3cf42a78b91f2a,2022-07-06_09h30.03.272,Colour_Asymmetry_Pilot,2022.1.3,Win32,59.79788315,62c50e9c1127f2cd403a315f,,,,,,,,,,,,,,,,,,,,twoone,,-4,0.3949,,,,,,,,,,,,,,,,,,,,,,,,,,,,,,,,,,"[-0.050999999999999934,-0.6706000000000001,-0.804]","[0.9372,0.9450000000000001,0.8980000000000001]",-38,56,1,0,0,response7disk,-2,2,1,0,0,rectangle,-2,2,1,0,0,2,3,0.0011,0,-2,2,1,0,0,0,8,8,82,1,1,second,,,,,,,,,,,,,,,,,,,,,,,,,,,,,,,,,,,,,,,,,,,,,,,,,,,,,,,,,,,,,,,,,,,,,,,,
,,,,,,610bb066fa8d2a5647a40c77,62c539a32c3cf42a78b91f2a,2022-07-06_09h30.03.272,Colour_Asymmetry_Pilot,2022.1.3,Win32,59.79788315,62c50e9c1127f2cd403a315f,,,,,,,,,,,,,,,,,,,,fourthree,,-2,1.6895,,,,,,,,,,,,,,,,,,,,,,,,,,,,,,,,,,"[0.18419999999999992,-0.4276,-0.404]","[0.23120000000000007,-0.7726,-0.34120000000000006]",-85,-43,1,0,0,response5disk,-1,0,1,0,0,rectangle,-1,0,1,0,0,2,1,0.0015,0,-1,0,1,0,0,0,9,9,27,1,27,first,,,,,,,,,,,,,,,,,,,,,,,,,,,,,,,,,,,,,,,,,,,,,,,,,,,,,,,,,,,,,,,,,,,,,,,,
,,,,,,610bb066fa8d2a5647a40c77,62c539a32c3cf42a78b91f2a,2022-07-06_09h30.03.272,Colour_Asymmetry_Pilot,2022.1.3,Win32,59.79788315,62c50e9c1127f2cd403a315f,,,,,,,,,,,,,,,,,,,,threefour,,-2,0.6091,,,,,,,,,,,,,,,,,,,,,,,,,,,,,,,,,,"[0.23120000000000007,-0.7726,-0.34120000000000006]","[0.18419999999999992,-0.4276,-0.404]",-69,-44,1,0,0,response5disk,-4,-3,1,0,0,rectangle,-4,-3,1,0,0,2,3,0.0011,0,-4,-3,1,0,0,0,10,10,108,1,27,second,,,,,,,,,,,,,,,,,,,,,,,,,,,,,,,,,,,,,,,,,,,,,,,,,,,,,,,,,,,,,,,,,,,,,,,,
,,,,,,610bb066fa8d2a5647a40c77,62c539a32c3cf42a78b91f2a,2022-07-06_09h30.03.272,Colour_Asymmetry_Pilot,2022.1.3,Win32,59.79788315,62c50e9c1127f2cd403a315f,,,,,,,,,,,,,,,,,,,,threefour,,-4,0.5361,,,,,,,,,,,,,,,,,,,,,,,,,,,,,,,,,,"[-0.8198,-0.5138,-0.7492000000000001]","[0.7018,0.7802,-0.16079999999999994]",-40,71,1,0,0,response7disk,1,-5,1,0,0,rectangle,1,-5,1,0,0,2,1,0.0011,0,1,-5,1,0,0,0,11,11,40,1,40,first,,,,,,,,,,,,,,,,,,,,,,,,,,,,,,,,,,,,,,,,,,,,,,,,,,,,,,,,,,,,,,,,,,,,,,,,
,,,,,,610bb066fa8d2a5647a40c77,62c539a32c3cf42a78b91f2a,2022-07-06_09h30.03.272,Colour_Asymmetry_Pilot,2022.1.3,Win32,59.79788315,62c50e9c1127f2cd403a315f,,,,,,,,,,,,,,,,,,,,threeone,,-4,0.5362,,,,,,,,,,,,,,,,,,,,,,,,,,,,,,,,,,"[-0.050999999999999934,-0.6706000000000001,-0.804]","[0.6625999999999999,0.4980000000000002,-0.357]",-45,89,1,0,0,response7disk,-15,-8,1,0,0,rectangle,-15,-8,1,0,0,2,1,0.0003,0,-15,-8,1,0,0,0,12,12,107,1,26,second,,,,,,,,,,,,,,,,,,,,,,,,,,,,,,,,,,,,,,,,,,,,,,,,,,,,,,,,,,,,,,,,,,,,,,,,
,,,,,,610bb066fa8d2a5647a40c77,62c539a32c3cf42a78b91f2a,2022-07-06_09h30.03.272,Colour_Asymmetry_Pilot,2022.1.3,Win32,59.79788315,62c50e9c1127f2cd403a315f,,,,,,,,,,,,,,,,,,,,fourthree,,-4,0.5756,,,,,,,,,,,,,,,,,,,,,,,,,,,,,,,,,,"[-0.6942,-0.7648,-0.12959999999999994]","[-0.01980000000000004,-0.5138,-0.38039999999999996]",-37,97,1,0,0,response7disk,7,-12,1,0,0,rectangle,7,-12,1,0,0,2,3,0.0011,0,7,-12,1,0,0,0,13,13,22,1,22,first,,,,,,,,,,,,,,,,,,,,,,,,,,,,,,,,,,,,,,,,,,,,,,,,,,,,,,,,,,,,,,,,,,,,,,,,
,,,,,,610bb066fa8d2a5647a40c77,62c539a32c3cf42a78b91f2a,2022-07-06_09h30.03.272,Colour_Asymmetry_Pilot,2022.1.3,Win32,59.79788315,62c50e9c1127f2cd403a315f,,,,,,,,,,,,,,,,,,,,fourtwo,,-3,1.0372,,,,,,,,,,,,,,,,,,,,,,,,,,,,,,,,,,"[0.6547999999999998,-0.043199999999999905,-0.011800000000000033]","[0.23920000000000008,0.2704,0.16060000000000008]",-64,46,1,0,0,response7disk,-3,3,1,0,0,rectangle,-3,3,1,0,0,2,3,0.0003,0,-3,3,1,0,0,0,14,14,157,1,76,second,,,,,,,,,,,,,,,,,,,,,,,,,,,,,,,,,,,,,,,,,,,,,,,,,,,,,,,,,,,,,,,,,,,,,,,,
,,,,,,610bb066fa8d2a5647a40c77,62c539a32c3cf42a78b91f2a,2022-07-06_09h30.03.272,Colour_Asymmetry_Pilot,2022.1.3,Win32,59.79788315,62c50e9c1127f2cd403a315f,,,,,,,,,,,,,,,,,,,,fourtwo,,-4,0.4022,,,,,,,,,,,,,,,,,,,,,,,,,,,,,,,,,,"[0.12939999999999996,-0.2864,0.3253999999999999]","[0.9686000000000001,0.5763999999999998,0.11359999999999992]",-32,75,1,0,0,response7disk,5,-12,1,0,0,rectangle,5,-12,1,0,0,2,2,0.0012,0,5,-12,1,0,0,0,15,15,0,1,0,first,,,,,,,,,,,,,,,,,,,,,,,,,,,,,,,,,,,,,,,,,,,,,,,,,,,,,,,,,,,,,,,,,,,,,,,,
,,,,,,610bb066fa8d2a5647a40c77,62c539a32c3cf42a78b91f2a,2022-07-06_09h30.03.272,Colour_Asymmetry_Pilot,2022.1.3,Win32,59.79788315,62c50e9c1127f2cd403a315f,,,,,,,,,,,,,,,,,,,,onethree,,-4,0.4192,,,,,,,,,,,,,,,,,,,,,,,,,,,,,,,,,,"[-0.4746,-0.0354000000000001,0.5449999999999999]","[0.34099999999999997,0.5841999999999998,-0.9844]",-49,69,1,0,0,response7disk,0,-2,1,0,0,rectangle,0,-2,1,0,0,2,3,0.0007,0,0,-2,1,0,0,0,16,16,156,1,75,second,,,,,,,,,,,,,,,,,,,,,,,,,,,,,,,,,,,,,,,,,,,,,,,,,,,,,,,,,,,,,,,,,,,,,,,,
,,,,,,610bb066fa8d2a5647a40c77,62c539a32c3cf42a78b91f2a,2022-07-06_09h30.03.272,Colour_Asymmetry_Pilot,2022.1.3,Win32,59.79788315,62c50e9c1127f2cd403a315f,,,,,,,,,,,,,,,,,,,,threeone,,-4,0.3333,,,,,,,,,,,,,,,,,,,,,,,,,,,,,,,,,,"[-0.9138,-0.5296000000000001,-0.5529999999999999]","[0.7018,0.7176,0.6155999999999999]",-43,88,1,0,0,response7disk,-3,-11,1,0,0,rectangle,-3,-11,1,0,0,2,1,0.0012,0,-3,-11,1,0,0,0,17,17,33,1,33,first,,,,,,,,,,,,,,,,,,,,,,,,,,,,,,,,,,,,,,,,,,,,,,,,,,,,,,,,,,,,,,,,,,,,,,,,
