trials.thisRepN,trials.thisTrialN,trials.thisN,trials.thisIndex,trials.ran,Colourcodes,participant,session,date,expName,psychopyVersion,OS,frameRate,study_id,trials_4.thisRepN,trials_4.thisTrialN,trials_4.thisN,trials_4.thisIndex,trials_4.ran,StimulusPos,key_resp.keys,key_resp.rt,key_resp_2.keys,key_resp_2.rt,key_resp_15.keys,key_resp_15.rt,key_resp_17.keys,key_resp_17.rt,key_resp_9.keys,key_resp_9.rt,key_resp_10.keys,key_resp_10.rt,Circle1_col,Ecc,Circle2_col,similarity,response_time,mouse_5.x,mouse_5.y,mouse_5.leftButton,mouse_5.midButton,mouse_5.rightButton,mouse_5.clicked_name,mouse_10.x,mouse_10.y,mouse_10.leftButton,mouse_10.midButton,mouse_10.rightButton,mouse_10.clicked_name,mouse_7.x,mouse_7.y,mouse_7.leftButton,mouse_7.midButton,mouse_7.rightButton,catchnumberprac,mouse_6.x,mouse_6.y,mouse_6.leftButton,mouse_6.midButton,mouse_6.rightButton,duringprac.thisRepN,duringprac.thisTrialN,duringprac.thisN,duringprac.thisIndex,duringprac.ran,mouse_7.clicked_name,catchprac,mouse_6.clicked_name,key_resp_22.keys,key_resp_22.rt,Circle1_colour,Circle2_colour,mouse.x,mouse.y,mouse.leftButton,mouse.midButton,mouse.rightButton,mouse.clicked_name,mouse_2.x,mouse_2.y,mouse_2.leftButton,mouse_2.midButton,mouse_2.rightButton,mouse_2.clicked_name,mouse_3.x,mouse_3.y,mouse_3.leftButton,mouse_3.midButton,mouse_3.rightButton,catchresponse,catchnumber,response_time_catch,Catch,mouse_11.x,mouse_11.y,mouse_11.leftButton,mouse_11.midButton,mouse_11.rightButton,trials_2.thisRepN,trials_2.thisTrialN,trials_2.thisN,trials_2.thisIndex,trials_2.ran,Colourpair,Temporder,mouse_3.clicked_name,mouse_11.clicked_name,trials_3.thisRepN,trials_3.thisTrialN,trials_3.thisN,trials_3.thisIndex,trials_3.ran,key_resp_instr_Ishi.keys,key_resp_instr_Ishi.rt,Ishi_trial_keyresp.keys,Ishi_textbox.text,Ishi_mouse.x,Ishi_mouse.y,Ishi_mouse.leftButton,Ishi_mouse.midButton,Ishi_mouse.rightButton,Ishi_mouse.clicked_name,Ishi_loop.thisRepN,Ishi_loop.thisTrialN,Ishi_loop.thisN,Ishi_loop.thisIndex,Ishi_loop.ran,imageaddress,textbox.text,mouse_4.x,mouse_4.y,mouse_4.leftButton,mouse_4.midButton,mouse_4.rightButton,mouse_4.clicked_name,textbox_2.text,mouse_8.x,mouse_8.y,mouse_8.leftButton,mouse_8.midButton,mouse_8.rightButton,mouse_8.clicked_name,textbox_3.text,mouse_9.x,mouse_9.y,mouse_9.leftButton,mouse_9.midButton,mouse_9.rightButton,mouse_9.clicked_name,textbox_4.text,mouse_12.x,mouse_12.y,mouse_12.leftButton,mouse_12.midButton,mouse_12.rightButton,mouse_12.clicked_name,textbox_5.text,mouse_13.x,mouse_13.y,mouse_13.leftButton,mouse_13.midButton,mouse_13.rightButton,mouse_13.clicked_name,textbox_6.text,mouse_14.x,mouse_14.y,mouse_14.leftButton,mouse_14.midButton,mouse_14.rightButton,textbox_7.text,mouse_15.x,mouse_15.y,mouse_15.leftButton,mouse_15.midButton,mouse_15.rightButton,mouse_15.clicked_name
0,0,0,50,1,,614d4623077785a6f3975133,62c53918824ba9072574f5a4,2022-07-06_02h26.53.633,Colour_Asymmetry_Pilot,2022.1.3,Win32,60.09615385,62c50e9c1127f2cd403a315f,,,,,,,,,,,,,,,,,,,,,,,,,,,,,,,,,,,,,,,,,,,,,,,,,,,,,,,,,,,,,,,,,,,,,,,,,,,,,,,,,,,,,,,,,,,,,,,,,,,,,,,,,,,,,,,,,,,,,,,,,,,,,,,,,,,,,,,,,,,,,,,,,,,,,,,,,,,,,,,,,,
0,1,1,83,1,,614d4623077785a6f3975133,62c53918824ba9072574f5a4,2022-07-06_02h26.53.633,Colour_Asymmetry_Pilot,2022.1.3,Win32,60.09615385,62c50e9c1127f2cd403a315f,,,,,,,,,,,,,,,,,,,,,,,,,,,,,,,,,,,,,,,,,,,,,,,,,,,,,,,,,,,,,,,,,,,,,,,,,,,,,,,,,,,,,,,,,,,,,,,,,,,,,,,,,,,,,,,,,,,,,,,,,,,,,,,,,,,,,,,,,,,,,,,,,,,,,,,,,,,,,,,,,,
0,2,2,32,1,,614d4623077785a6f3975133,62c53918824ba9072574f5a4,2022-07-06_02h26.53.633,Colour_Asymmetry_Pilot,2022.1.3,Win32,60.09615385,62c50e9c1127f2cd403a315f,,,,,,,,,,,,,,,,,,,,,,,,,,,,,,,,,,,,,,,,,,,,,,,,,,,,,,,,,,,,,,,,,,,,,,,,,,,,,,,,,,,,,,,,,,,,,,,,,,,,,,,,,,,,,,,,,,,,,,,,,,,,,,,,,,,,,,,,,,,,,,,,,,,,,,,,,,,,,,,,,,
0,3,3,41,1,,614d4623077785a6f3975133,62c53918824ba9072574f5a4,2022-07-06_02h26.53.633,Colour_Asymmetry_Pilot,2022.1.3,Win32,60.09615385,62c50e9c1127f2cd403a315f,,,,,,,,,,,,,,,,,,,,,,,,,,,,,,,,,,,,,,,,,,,,,,,,,,,,,,,,,,,,,,,,,,,,,,,,,,,,,,,,,,,,,,,,,,,,,,,,,,,,,,,,,,,,,,,,,,,,,,,,,,,,,,,,,,,,,,,,,,,,,,,,,,,,,,,,,,,,,,,,,,
0,4,4,30,1,,614d4623077785a6f3975133,62c53918824ba9072574f5a4,2022-07-06_02h26.53.633,Colour_Asymmetry_Pilot,2022.1.3,Win32,60.09615385,62c50e9c1127f2cd403a315f,,,,,,,,,,,,,,,,,,,,,,,,,,,,,,,,,,,,,,,,,,,,,,,,,,,,,,,,,,,,,,,,,,,,,,,,,,,,,,,,,,,,,,,,,,,,,,,,,,,,,,,,,,,,,,,,,,,,,,,,,,,,,,,,,,,,,,,,,,,,,,,,,,,,,,,,,,,,,,,,,,
0,5,5,70,1,,614d4623077785a6f3975133,62c53918824ba9072574f5a4,2022-07-06_02h26.53.633,Colour_Asymmetry_Pilot,2022.1.3,Win32,60.09615385,62c50e9c1127f2cd403a315f,,,,,,,,,,,,,,,,,,,,,,,,,,,,,,,,,,,,,,,,,,,,,,,,,,,,,,,,,,,,,,,,,,,,,,,,,,,,,,,,,,,,,,,,,,,,,,,,,,,,,,,,,,,,,,,,,,,,,,,,,,,,,,,,,,,,,,,,,,,,,,,,,,,,,,,,,,,,,,,,,,
0,6,6,20,1,,614d4623077785a6f3975133,62c53918824ba9072574f5a4,2022-07-06_02h26.53.633,Colour_Asymmetry_Pilot,2022.1.3,Win32,60.09615385,62c50e9c1127f2cd403a315f,,,,,,,,,,,,,,,,,,,,,,,,,,,,,,,,,,,,,,,,,,,,,,,,,,,,,,,,,,,,,,,,,,,,,,,,,,,,,,,,,,,,,,,,,,,,,,,,,,,,,,,,,,,,,,,,,,,,,,,,,,,,,,,,,,,,,,,,,,,,,,,,,,,,,,,,,,,,,,,,,,
0,7,7,60,1,,614d4623077785a6f3975133,62c53918824ba9072574f5a4,2022-07-06_02h26.53.633,Colour_Asymmetry_Pilot,2022.1.3,Win32,60.09615385,62c50e9c1127f2cd403a315f,,,,,,,,,,,,,,,,,,,,,,,,,,,,,,,,,,,,,,,,,,,,,,,,,,,,,,,,,,,,,,,,,,,,,,,,,,,,,,,,,,,,,,,,,,,,,,,,,,,,,,,,,,,,,,,,,,,,,,,,,,,,,,,,,,,,,,,,,,,,,,,,,,,,,,,,,,,,,,,,,,
0,8,8,92,1,,614d4623077785a6f3975133,62c53918824ba9072574f5a4,2022-07-06_02h26.53.633,Colour_Asymmetry_Pilot,2022.1.3,Win32,60.09615385,62c50e9c1127f2cd403a315f,,,,,,,,,,,,,,,,,,,,,,,,,,,,,,,,,,,,,,,,,,,,,,,,,,,,,,,,,,,,,,,,,,,,,,,,,,,,,,,,,,,,,,,,,,,,,,,,,,,,,,,,,,,,,,,,,,,,,,,,,,,,,,,,,,,,,,,,,,,,,,,,,,,,,,,,,,,,,,,,,,
0,9,9,57,1,,614d4623077785a6f3975133,62c53918824ba9072574f5a4,2022-07-06_02h26.53.633,Colour_Asymmetry_Pilot,2022.1.3,Win32,60.09615385,62c50e9c1127f2cd403a315f,,,,,,,,,,,,,,,,,,,,,,,,,,,,,,,,,,,,,,,,,,,,,,,,,,,,,,,,,,,,,,,,,,,,,,,,,,,,,,,,,,,,,,,,,,,,,,,,,,,,,,,,,,,,,,,,,,,,,,,,,,,,,,,,,,,,,,,,,,,,,,,,,,,,,,,,,,,,,,,,,,
0,10,10,89,1,,614d4623077785a6f3975133,62c53918824ba9072574f5a4,2022-07-06_02h26.53.633,Colour_Asymmetry_Pilot,2022.1.3,Win32,60.09615385,62c50e9c1127f2cd403a315f,,,,,,,,,,,,,,,,,,,,,,,,,,,,,,,,,,,,,,,,,,,,,,,,,,,,,,,,,,,,,,,,,,,,,,,,,,,,,,,,,,,,,,,,,,,,,,,,,,,,,,,,,,,,,,,,,,,,,,,,,,,,,,,,,,,,,,,,,,,,,,,,,,,,,,,,,,,,,,,,,,
0,11,11,1,1,,614d4623077785a6f3975133,62c53918824ba9072574f5a4,2022-07-06_02h26.53.633,Colour_Asymmetry_Pilot,2022.1.3,Win32,60.09615385,62c50e9c1127f2cd403a315f,,,,,,,,,,,,,,,,,,,,,,,,,,,,,,,,,,,,,,,,,,,,,,,,,,,,,,,,,,,,,,,,,,,,,,,,,,,,,,,,,,,,,,,,,,,,,,,,,,,,,,,,,,,,,,,,,,,,,,,,,,,,,,,,,,,,,,,,,,,,,,,,,,,,,,,,,,,,,,,,,,
0,12,12,67,1,,614d4623077785a6f3975133,62c53918824ba9072574f5a4,2022-07-06_02h26.53.633,Colour_Asymmetry_Pilot,2022.1.3,Win32,60.09615385,62c50e9c1127f2cd403a315f,,,,,,,,,,,,,,,,,,,,,,,,,,,,,,,,,,,,,,,,,,,,,,,,,,,,,,,,,,,,,,,,,,,,,,,,,,,,,,,,,,,,,,,,,,,,,,,,,,,,,,,,,,,,,,,,,,,,,,,,,,,,,,,,,,,,,,,,,,,,,,,,,,,,,,,,,,,,,,,,,,
0,13,13,54,1,,614d4623077785a6f3975133,62c53918824ba9072574f5a4,2022-07-06_02h26.53.633,Colour_Asymmetry_Pilot,2022.1.3,Win32,60.09615385,62c50e9c1127f2cd403a315f,,,,,,,,,,,,,,,,,,,,,,,,,,,,,,,,,,,,,,,,,,,,,,,,,,,,,,,,,,,,,,,,,,,,,,,,,,,,,,,,,,,,,,,,,,,,,,,,,,,,,,,,,,,,,,,,,,,,,,,,,,,,,,,,,,,,,,,,,,,,,,,,,,,,,,,,,,,,,,,,,,
0,14,14,74,1,,614d4623077785a6f3975133,62c53918824ba9072574f5a4,2022-07-06_02h26.53.633,Colour_Asymmetry_Pilot,2022.1.3,Win32,60.09615385,62c50e9c1127f2cd403a315f,,,,,,,,,,,,,,,,,,,,,,,,,,,,,,,,,,,,,,,,,,,,,,,,,,,,,,,,,,,,,,,,,,,,,,,,,,,,,,,,,,,,,,,,,,,,,,,,,,,,,,,,,,,,,,,,,,,,,,,,,,,,,,,,,,,,,,,,,,,,,,,,,,,,,,,,,,,,,,,,,,
0,15,15,59,1,,614d4623077785a6f3975133,62c53918824ba9072574f5a4,2022-07-06_02h26.53.633,Colour_Asymmetry_Pilot,2022.1.3,Win32,60.09615385,62c50e9c1127f2cd403a315f,,,,,,,,,,,,,,,,,,,,,,,,,,,,,,,,,,,,,,,,,,,,,,,,,,,,,,,,,,,,,,,,,,,,,,,,,,,,,,,,,,,,,,,,,,,,,,,,,,,,,,,,,,,,,,,,,,,,,,,,,,,,,,,,,,,,,,,,,,,,,,,,,,,,,,,,,,,,,,,,,,
0,16,16,6,1,,614d4623077785a6f3975133,62c53918824ba9072574f5a4,2022-07-06_02h26.53.633,Colour_Asymmetry_Pilot,2022.1.3,Win32,60.09615385,62c50e9c1127f2cd403a315f,,,,,,,,,,,,,,,,,,,,,,,,,,,,,,,,,,,,,,,,,,,,,,,,,,,,,,,,,,,,,,,,,,,,,,,,,,,,,,,,,,,,,,,,,,,,,,,,,,,,,,,,,,,,,,,,,,,,,,,,,,,,,,,,,,,,,,,,,,,,,,,,,,,,,,,,,,,,,,,,,,
0,17,17,13,1,,614d4623077785a6f3975133,62c53918824ba9072574f5a4,2022-07-06_02h26.53.633,Colour_Asymmetry_Pilot,2022.1.3,Win32,60.09615385,62c50e9c1127f2cd403a315f,,,,,,,,,,,,,,,,,,,,,,,,,,,,,,,,,,,,,,,,,,,,,,,,,,,,,,,,,,,,,,,,,,,,,,,,,,,,,,,,,,,,,,,,,,,,,,,,,,,,,,,,,,,,,,,,,,,,,,,,,,,,,,,,,,,,,,,,,,,,,,,,,,,,,,,,,,,,,,,,,,
0,18,18,31,1,,614d4623077785a6f3975133,62c53918824ba9072574f5a4,2022-07-06_02h26.53.633,Colour_Asymmetry_Pilot,2022.1.3,Win32,60.09615385,62c50e9c1127f2cd403a315f,,,,,,,,,,,,,,,,,,,,,,,,,,,,,,,,,,,,,,,,,,,,,,,,,,,,,,,,,,,,,,,,,,,,,,,,,,,,,,,,,,,,,,,,,,,,,,,,,,,,,,,,,,,,,,,,,,,,,,,,,,,,,,,,,,,,,,,,,,,,,,,,,,,,,,,,,,,,,,,,,,
0,19,19,78,1,,614d4623077785a6f3975133,62c53918824ba9072574f5a4,2022-07-06_02h26.53.633,Colour_Asymmetry_Pilot,2022.1.3,Win32,60.09615385,62c50e9c1127f2cd403a315f,,,,,,,,,,,,,,,,,,,,,,,,,,,,,,,,,,,,,,,,,,,,,,,,,,,,,,,,,,,,,,,,,,,,,,,,,,,,,,,,,,,,,,,,,,,,,,,,,,,,,,,,,,,,,,,,,,,,,,,,,,,,,,,,,,,,,,,,,,,,,,,,,,,,,,,,,,,,,,,,,,
0,20,20,8,1,,614d4623077785a6f3975133,62c53918824ba9072574f5a4,2022-07-06_02h26.53.633,Colour_Asymmetry_Pilot,2022.1.3,Win32,60.09615385,62c50e9c1127f2cd403a315f,,,,,,,,,,,,,,,,,,,,,,,,,,,,,,,,,,,,,,,,,,,,,,,,,,,,,,,,,,,,,,,,,,,,,,,,,,,,,,,,,,,,,,,,,,,,,,,,,,,,,,,,,,,,,,,,,,,,,,,,,,,,,,,,,,,,,,,,,,,,,,,,,,,,,,,,,,,,,,,,,,
0,21,21,16,1,,614d4623077785a6f3975133,62c53918824ba9072574f5a4,2022-07-06_02h26.53.633,Colour_Asymmetry_Pilot,2022.1.3,Win32,60.09615385,62c50e9c1127f2cd403a315f,,,,,,,,,,,,,,,,,,,,,,,,,,,,,,,,,,,,,,,,,,,,,,,,,,,,,,,,,,,,,,,,,,,,,,,,,,,,,,,,,,,,,,,,,,,,,,,,,,,,,,,,,,,,,,,,,,,,,,,,,,,,,,,,,,,,,,,,,,,,,,,,,,,,,,,,,,,,,,,,,,
0,22,22,84,1,,614d4623077785a6f3975133,62c53918824ba9072574f5a4,2022-07-06_02h26.53.633,Colour_Asymmetry_Pilot,2022.1.3,Win32,60.09615385,62c50e9c1127f2cd403a315f,,,,,,,,,,,,,,,,,,,,,,,,,,,,,,,,,,,,,,,,,,,,,,,,,,,,,,,,,,,,,,,,,,,,,,,,,,,,,,,,,,,,,,,,,,,,,,,,,,,,,,,,,,,,,,,,,,,,,,,,,,,,,,,,,,,,,,,,,,,,,,,,,,,,,,,,,,,,,,,,,,
0,23,23,0,1,,614d4623077785a6f3975133,62c53918824ba9072574f5a4,2022-07-06_02h26.53.633,Colour_Asymmetry_Pilot,2022.1.3,Win32,60.09615385,62c50e9c1127f2cd403a315f,,,,,,,,,,,,,,,,,,,,,,,,,,,,,,,,,,,,,,,,,,,,,,,,,,,,,,,,,,,,,,,,,,,,,,,,,,,,,,,,,,,,,,,,,,,,,,,,,,,,,,,,,,,,,,,,,,,,,,,,,,,,,,,,,,,,,,,,,,,,,,,,,,,,,,,,,,,,,,,,,,
0,24,24,5,1,,614d4623077785a6f3975133,62c53918824ba9072574f5a4,2022-07-06_02h26.53.633,Colour_Asymmetry_Pilot,2022.1.3,Win32,60.09615385,62c50e9c1127f2cd403a315f,,,,,,,,,,,,,,,,,,,,,,,,,,,,,,,,,,,,,,,,,,,,,,,,,,,,,,,,,,,,,,,,,,,,,,,,,,,,,,,,,,,,,,,,,,,,,,,,,,,,,,,,,,,,,,,,,,,,,,,,,,,,,,,,,,,,,,,,,,,,,,,,,,,,,,,,,,,,,,,,,,
0,25,25,43,1,,614d4623077785a6f3975133,62c53918824ba9072574f5a4,2022-07-06_02h26.53.633,Colour_Asymmetry_Pilot,2022.1.3,Win32,60.09615385,62c50e9c1127f2cd403a315f,,,,,,,,,,,,,,,,,,,,,,,,,,,,,,,,,,,,,,,,,,,,,,,,,,,,,,,,,,,,,,,,,,,,,,,,,,,,,,,,,,,,,,,,,,,,,,,,,,,,,,,,,,,,,,,,,,,,,,,,,,,,,,,,,,,,,,,,,,,,,,,,,,,,,,,,,,,,,,,,,,
0,26,26,19,1,,614d4623077785a6f3975133,62c53918824ba9072574f5a4,2022-07-06_02h26.53.633,Colour_Asymmetry_Pilot,2022.1.3,Win32,60.09615385,62c50e9c1127f2cd403a315f,,,,,,,,,,,,,,,,,,,,,,,,,,,,,,,,,,,,,,,,,,,,,,,,,,,,,,,,,,,,,,,,,,,,,,,,,,,,,,,,,,,,,,,,,,,,,,,,,,,,,,,,,,,,,,,,,,,,,,,,,,,,,,,,,,,,,,,,,,,,,,,,,,,,,,,,,,,,,,,,,,
0,27,27,22,1,,614d4623077785a6f3975133,62c53918824ba9072574f5a4,2022-07-06_02h26.53.633,Colour_Asymmetry_Pilot,2022.1.3,Win32,60.09615385,62c50e9c1127f2cd403a315f,,,,,,,,,,,,,,,,,,,,,,,,,,,,,,,,,,,,,,,,,,,,,,,,,,,,,,,,,,,,,,,,,,,,,,,,,,,,,,,,,,,,,,,,,,,,,,,,,,,,,,,,,,,,,,,,,,,,,,,,,,,,,,,,,,,,,,,,,,,,,,,,,,,,,,,,,,,,,,,,,,
0,28,28,3,1,,614d4623077785a6f3975133,62c53918824ba9072574f5a4,2022-07-06_02h26.53.633,Colour_Asymmetry_Pilot,2022.1.3,Win32,60.09615385,62c50e9c1127f2cd403a315f,,,,,,,,,,,,,,,,,,,,,,,,,,,,,,,,,,,,,,,,,,,,,,,,,,,,,,,,,,,,,,,,,,,,,,,,,,,,,,,,,,,,,,,,,,,,,,,,,,,,,,,,,,,,,,,,,,,,,,,,,,,,,,,,,,,,,,,,,,,,,,,,,,,,,,,,,,,,,,,,,,
0,29,29,12,1,,614d4623077785a6f3975133,62c53918824ba9072574f5a4,2022-07-06_02h26.53.633,Colour_Asymmetry_Pilot,2022.1.3,Win32,60.09615385,62c50e9c1127f2cd403a315f,,,,,,,,,,,,,,,,,,,,,,,,,,,,,,,,,,,,,,,,,,,,,,,,,,,,,,,,,,,,,,,,,,,,,,,,,,,,,,,,,,,,,,,,,,,,,,,,,,,,,,,,,,,,,,,,,,,,,,,,,,,,,,,,,,,,,,,,,,,,,,,,,,,,,,,,,,,,,,,,,,
0,30,30,18,1,,614d4623077785a6f3975133,62c53918824ba9072574f5a4,2022-07-06_02h26.53.633,Colour_Asymmetry_Pilot,2022.1.3,Win32,60.09615385,62c50e9c1127f2cd403a315f,,,,,,,,,,,,,,,,,,,,,,,,,,,,,,,,,,,,,,,,,,,,,,,,,,,,,,,,,,,,,,,,,,,,,,,,,,,,,,,,,,,,,,,,,,,,,,,,,,,,,,,,,,,,,,,,,,,,,,,,,,,,,,,,,,,,,,,,,,,,,,,,,,,,,,,,,,,,,,,,,,
0,31,31,7,1,,614d4623077785a6f3975133,62c53918824ba9072574f5a4,2022-07-06_02h26.53.633,Colour_Asymmetry_Pilot,2022.1.3,Win32,60.09615385,62c50e9c1127f2cd403a315f,,,,,,,,,,,,,,,,,,,,,,,,,,,,,,,,,,,,,,,,,,,,,,,,,,,,,,,,,,,,,,,,,,,,,,,,,,,,,,,,,,,,,,,,,,,,,,,,,,,,,,,,,,,,,,,,,,,,,,,,,,,,,,,,,,,,,,,,,,,,,,,,,,,,,,,,,,,,,,,,,,
0,32,32,79,1,,614d4623077785a6f3975133,62c53918824ba9072574f5a4,2022-07-06_02h26.53.633,Colour_Asymmetry_Pilot,2022.1.3,Win32,60.09615385,62c50e9c1127f2cd403a315f,,,,,,,,,,,,,,,,,,,,,,,,,,,,,,,,,,,,,,,,,,,,,,,,,,,,,,,,,,,,,,,,,,,,,,,,,,,,,,,,,,,,,,,,,,,,,,,,,,,,,,,,,,,,,,,,,,,,,,,,,,,,,,,,,,,,,,,,,,,,,,,,,,,,,,,,,,,,,,,,,,
0,33,33,81,1,,614d4623077785a6f3975133,62c53918824ba9072574f5a4,2022-07-06_02h26.53.633,Colour_Asymmetry_Pilot,2022.1.3,Win32,60.09615385,62c50e9c1127f2cd403a315f,,,,,,,,,,,,,,,,,,,,,,,,,,,,,,,,,,,,,,,,,,,,,,,,,,,,,,,,,,,,,,,,,,,,,,,,,,,,,,,,,,,,,,,,,,,,,,,,,,,,,,,,,,,,,,,,,,,,,,,,,,,,,,,,,,,,,,,,,,,,,,,,,,,,,,,,,,,,,,,,,,
0,34,34,17,1,,614d4623077785a6f3975133,62c53918824ba9072574f5a4,2022-07-06_02h26.53.633,Colour_Asymmetry_Pilot,2022.1.3,Win32,60.09615385,62c50e9c1127f2cd403a315f,,,,,,,,,,,,,,,,,,,,,,,,,,,,,,,,,,,,,,,,,,,,,,,,,,,,,,,,,,,,,,,,,,,,,,,,,,,,,,,,,,,,,,,,,,,,,,,,,,,,,,,,,,,,,,,,,,,,,,,,,,,,,,,,,,,,,,,,,,,,,,,,,,,,,,,,,,,,,,,,,,
0,35,35,42,1,,614d4623077785a6f3975133,62c53918824ba9072574f5a4,2022-07-06_02h26.53.633,Colour_Asymmetry_Pilot,2022.1.3,Win32,60.09615385,62c50e9c1127f2cd403a315f,,,,,,,,,,,,,,,,,,,,,,,,,,,,,,,,,,,,,,,,,,,,,,,,,,,,,,,,,,,,,,,,,,,,,,,,,,,,,,,,,,,,,,,,,,,,,,,,,,,,,,,,,,,,,,,,,,,,,,,,,,,,,,,,,,,,,,,,,,,,,,,,,,,,,,,,,,,,,,,,,,
0,36,36,25,1,,614d4623077785a6f3975133,62c53918824ba9072574f5a4,2022-07-06_02h26.53.633,Colour_Asymmetry_Pilot,2022.1.3,Win32,60.09615385,62c50e9c1127f2cd403a315f,,,,,,,,,,,,,,,,,,,,,,,,,,,,,,,,,,,,,,,,,,,,,,,,,,,,,,,,,,,,,,,,,,,,,,,,,,,,,,,,,,,,,,,,,,,,,,,,,,,,,,,,,,,,,,,,,,,,,,,,,,,,,,,,,,,,,,,,,,,,,,,,,,,,,,,,,,,,,,,,,,
0,37,37,38,1,,614d4623077785a6f3975133,62c53918824ba9072574f5a4,2022-07-06_02h26.53.633,Colour_Asymmetry_Pilot,2022.1.3,Win32,60.09615385,62c50e9c1127f2cd403a315f,,,,,,,,,,,,,,,,,,,,,,,,,,,,,,,,,,,,,,,,,,,,,,,,,,,,,,,,,,,,,,,,,,,,,,,,,,,,,,,,,,,,,,,,,,,,,,,,,,,,,,,,,,,,,,,,,,,,,,,,,,,,,,,,,,,,,,,,,,,,,,,,,,,,,,,,,,,,,,,,,,
0,38,38,56,1,,614d4623077785a6f3975133,62c53918824ba9072574f5a4,2022-07-06_02h26.53.633,Colour_Asymmetry_Pilot,2022.1.3,Win32,60.09615385,62c50e9c1127f2cd403a315f,,,,,,,,,,,,,,,,,,,,,,,,,,,,,,,,,,,,,,,,,,,,,,,,,,,,,,,,,,,,,,,,,,,,,,,,,,,,,,,,,,,,,,,,,,,,,,,,,,,,,,,,,,,,,,,,,,,,,,,,,,,,,,,,,,,,,,,,,,,,,,,,,,,,,,,,,,,,,,,,,,
0,39,39,37,1,,614d4623077785a6f3975133,62c53918824ba9072574f5a4,2022-07-06_02h26.53.633,Colour_Asymmetry_Pilot,2022.1.3,Win32,60.09615385,62c50e9c1127f2cd403a315f,,,,,,,,,,,,,,,,,,,,,,,,,,,,,,,,,,,,,,,,,,,,,,,,,,,,,,,,,,,,,,,,,,,,,,,,,,,,,,,,,,,,,,,,,,,,,,,,,,,,,,,,,,,,,,,,,,,,,,,,,,,,,,,,,,,,,,,,,,,,,,,,,,,,,,,,,,,,,,,,,,
0,40,40,65,1,,614d4623077785a6f3975133,62c53918824ba9072574f5a4,2022-07-06_02h26.53.633,Colour_Asymmetry_Pilot,2022.1.3,Win32,60.09615385,62c50e9c1127f2cd403a315f,,,,,,,,,,,,,,,,,,,,,,,,,,,,,,,,,,,,,,,,,,,,,,,,,,,,,,,,,,,,,,,,,,,,,,,,,,,,,,,,,,,,,,,,,,,,,,,,,,,,,,,,,,,,,,,,,,,,,,,,,,,,,,,,,,,,,,,,,,,,,,,,,,,,,,,,,,,,,,,,,,
0,41,41,77,1,,614d4623077785a6f3975133,62c53918824ba9072574f5a4,2022-07-06_02h26.53.633,Colour_Asymmetry_Pilot,2022.1.3,Win32,60.09615385,62c50e9c1127f2cd403a315f,,,,,,,,,,,,,,,,,,,,,,,,,,,,,,,,,,,,,,,,,,,,,,,,,,,,,,,,,,,,,,,,,,,,,,,,,,,,,,,,,,,,,,,,,,,,,,,,,,,,,,,,,,,,,,,,,,,,,,,,,,,,,,,,,,,,,,,,,,,,,,,,,,,,,,,,,,,,,,,,,,
0,42,42,68,1,,614d4623077785a6f3975133,62c53918824ba9072574f5a4,2022-07-06_02h26.53.633,Colour_Asymmetry_Pilot,2022.1.3,Win32,60.09615385,62c50e9c1127f2cd403a315f,,,,,,,,,,,,,,,,,,,,,,,,,,,,,,,,,,,,,,,,,,,,,,,,,,,,,,,,,,,,,,,,,,,,,,,,,,,,,,,,,,,,,,,,,,,,,,,,,,,,,,,,,,,,,,,,,,,,,,,,,,,,,,,,,,,,,,,,,,,,,,,,,,,,,,,,,,,,,,,,,,
0,43,43,33,1,,614d4623077785a6f3975133,62c53918824ba9072574f5a4,2022-07-06_02h26.53.633,Colour_Asymmetry_Pilot,2022.1.3,Win32,60.09615385,62c50e9c1127f2cd403a315f,,,,,,,,,,,,,,,,,,,,,,,,,,,,,,,,,,,,,,,,,,,,,,,,,,,,,,,,,,,,,,,,,,,,,,,,,,,,,,,,,,,,,,,,,,,,,,,,,,,,,,,,,,,,,,,,,,,,,,,,,,,,,,,,,,,,,,,,,,,,,,,,,,,,,,,,,,,,,,,,,,
0,44,44,73,1,,614d4623077785a6f3975133,62c53918824ba9072574f5a4,2022-07-06_02h26.53.633,Colour_Asymmetry_Pilot,2022.1.3,Win32,60.09615385,62c50e9c1127f2cd403a315f,,,,,,,,,,,,,,,,,,,,,,,,,,,,,,,,,,,,,,,,,,,,,,,,,,,,,,,,,,,,,,,,,,,,,,,,,,,,,,,,,,,,,,,,,,,,,,,,,,,,,,,,,,,,,,,,,,,,,,,,,,,,,,,,,,,,,,,,,,,,,,,,,,,,,,,,,,,,,,,,,,
0,45,45,28,1,,614d4623077785a6f3975133,62c53918824ba9072574f5a4,2022-07-06_02h26.53.633,Colour_Asymmetry_Pilot,2022.1.3,Win32,60.09615385,62c50e9c1127f2cd403a315f,,,,,,,,,,,,,,,,,,,,,,,,,,,,,,,,,,,,,,,,,,,,,,,,,,,,,,,,,,,,,,,,,,,,,,,,,,,,,,,,,,,,,,,,,,,,,,,,,,,,,,,,,,,,,,,,,,,,,,,,,,,,,,,,,,,,,,,,,,,,,,,,,,,,,,,,,,,,,,,,,,
0,46,46,36,1,,614d4623077785a6f3975133,62c53918824ba9072574f5a4,2022-07-06_02h26.53.633,Colour_Asymmetry_Pilot,2022.1.3,Win32,60.09615385,62c50e9c1127f2cd403a315f,,,,,,,,,,,,,,,,,,,,,,,,,,,,,,,,,,,,,,,,,,,,,,,,,,,,,,,,,,,,,,,,,,,,,,,,,,,,,,,,,,,,,,,,,,,,,,,,,,,,,,,,,,,,,,,,,,,,,,,,,,,,,,,,,,,,,,,,,,,,,,,,,,,,,,,,,,,,,,,,,,
0,47,47,26,1,,614d4623077785a6f3975133,62c53918824ba9072574f5a4,2022-07-06_02h26.53.633,Colour_Asymmetry_Pilot,2022.1.3,Win32,60.09615385,62c50e9c1127f2cd403a315f,,,,,,,,,,,,,,,,,,,,,,,,,,,,,,,,,,,,,,,,,,,,,,,,,,,,,,,,,,,,,,,,,,,,,,,,,,,,,,,,,,,,,,,,,,,,,,,,,,,,,,,,,,,,,,,,,,,,,,,,,,,,,,,,,,,,,,,,,,,,,,,,,,,,,,,,,,,,,,,,,,
0,48,48,66,1,,614d4623077785a6f3975133,62c53918824ba9072574f5a4,2022-07-06_02h26.53.633,Colour_Asymmetry_Pilot,2022.1.3,Win32,60.09615385,62c50e9c1127f2cd403a315f,,,,,,,,,,,,,,,,,,,,,,,,,,,,,,,,,,,,,,,,,,,,,,,,,,,,,,,,,,,,,,,,,,,,,,,,,,,,,,,,,,,,,,,,,,,,,,,,,,,,,,,,,,,,,,,,,,,,,,,,,,,,,,,,,,,,,,,,,,,,,,,,,,,,,,,,,,,,,,,,,,
0,49,49,15,1,,614d4623077785a6f3975133,62c53918824ba9072574f5a4,2022-07-06_02h26.53.633,Colour_Asymmetry_Pilot,2022.1.3,Win32,60.09615385,62c50e9c1127f2cd403a315f,,,,,,,,,,,,,,,,,,,,,,,,,,,,,,,,,,,,,,,,,,,,,,,,,,,,,,,,,,,,,,,,,,,,,,,,,,,,,,,,,,,,,,,,,,,,,,,,,,,,,,,,,,,,,,,,,,,,,,,,,,,,,,,,,,,,,,,,,,,,,,,,,,,,,,,,,,,,,,,,,,
0,50,50,24,1,,614d4623077785a6f3975133,62c53918824ba9072574f5a4,2022-07-06_02h26.53.633,Colour_Asymmetry_Pilot,2022.1.3,Win32,60.09615385,62c50e9c1127f2cd403a315f,,,,,,,,,,,,,,,,,,,,,,,,,,,,,,,,,,,,,,,,,,,,,,,,,,,,,,,,,,,,,,,,,,,,,,,,,,,,,,,,,,,,,,,,,,,,,,,,,,,,,,,,,,,,,,,,,,,,,,,,,,,,,,,,,,,,,,,,,,,,,,,,,,,,,,,,,,,,,,,,,,
0,51,51,64,1,,614d4623077785a6f3975133,62c53918824ba9072574f5a4,2022-07-06_02h26.53.633,Colour_Asymmetry_Pilot,2022.1.3,Win32,60.09615385,62c50e9c1127f2cd403a315f,,,,,,,,,,,,,,,,,,,,,,,,,,,,,,,,,,,,,,,,,,,,,,,,,,,,,,,,,,,,,,,,,,,,,,,,,,,,,,,,,,,,,,,,,,,,,,,,,,,,,,,,,,,,,,,,,,,,,,,,,,,,,,,,,,,,,,,,,,,,,,,,,,,,,,,,,,,,,,,,,,
0,52,52,9,1,,614d4623077785a6f3975133,62c53918824ba9072574f5a4,2022-07-06_02h26.53.633,Colour_Asymmetry_Pilot,2022.1.3,Win32,60.09615385,62c50e9c1127f2cd403a315f,,,,,,,,,,,,,,,,,,,,,,,,,,,,,,,,,,,,,,,,,,,,,,,,,,,,,,,,,,,,,,,,,,,,,,,,,,,,,,,,,,,,,,,,,,,,,,,,,,,,,,,,,,,,,,,,,,,,,,,,,,,,,,,,,,,,,,,,,,,,,,,,,,,,,,,,,,,,,,,,,,
0,53,53,88,1,,614d4623077785a6f3975133,62c53918824ba9072574f5a4,2022-07-06_02h26.53.633,Colour_Asymmetry_Pilot,2022.1.3,Win32,60.09615385,62c50e9c1127f2cd403a315f,,,,,,,,,,,,,,,,,,,,,,,,,,,,,,,,,,,,,,,,,,,,,,,,,,,,,,,,,,,,,,,,,,,,,,,,,,,,,,,,,,,,,,,,,,,,,,,,,,,,,,,,,,,,,,,,,,,,,,,,,,,,,,,,,,,,,,,,,,,,,,,,,,,,,,,,,,,,,,,,,,
0,54,54,61,1,,614d4623077785a6f3975133,62c53918824ba9072574f5a4,2022-07-06_02h26.53.633,Colour_Asymmetry_Pilot,2022.1.3,Win32,60.09615385,62c50e9c1127f2cd403a315f,,,,,,,,,,,,,,,,,,,,,,,,,,,,,,,,,,,,,,,,,,,,,,,,,,,,,,,,,,,,,,,,,,,,,,,,,,,,,,,,,,,,,,,,,,,,,,,,,,,,,,,,,,,,,,,,,,,,,,,,,,,,,,,,,,,,,,,,,,,,,,,,,,,,,,,,,,,,,,,,,,
0,55,55,52,1,,614d4623077785a6f3975133,62c53918824ba9072574f5a4,2022-07-06_02h26.53.633,Colour_Asymmetry_Pilot,2022.1.3,Win32,60.09615385,62c50e9c1127f2cd403a315f,,,,,,,,,,,,,,,,,,,,,,,,,,,,,,,,,,,,,,,,,,,,,,,,,,,,,,,,,,,,,,,,,,,,,,,,,,,,,,,,,,,,,,,,,,,,,,,,,,,,,,,,,,,,,,,,,,,,,,,,,,,,,,,,,,,,,,,,,,,,,,,,,,,,,,,,,,,,,,,,,,
0,56,56,39,1,,614d4623077785a6f3975133,62c53918824ba9072574f5a4,2022-07-06_02h26.53.633,Colour_Asymmetry_Pilot,2022.1.3,Win32,60.09615385,62c50e9c1127f2cd403a315f,,,,,,,,,,,,,,,,,,,,,,,,,,,,,,,,,,,,,,,,,,,,,,,,,,,,,,,,,,,,,,,,,,,,,,,,,,,,,,,,,,,,,,,,,,,,,,,,,,,,,,,,,,,,,,,,,,,,,,,,,,,,,,,,,,,,,,,,,,,,,,,,,,,,,,,,,,,,,,,,,,
0,57,57,23,1,,614d4623077785a6f3975133,62c53918824ba9072574f5a4,2022-07-06_02h26.53.633,Colour_Asymmetry_Pilot,2022.1.3,Win32,60.09615385,62c50e9c1127f2cd403a315f,,,,,,,,,,,,,,,,,,,,,,,,,,,,,,,,,,,,,,,,,,,,,,,,,,,,,,,,,,,,,,,,,,,,,,,,,,,,,,,,,,,,,,,,,,,,,,,,,,,,,,,,,,,,,,,,,,,,,,,,,,,,,,,,,,,,,,,,,,,,,,,,,,,,,,,,,,,,,,,,,,
0,58,58,21,1,,614d4623077785a6f3975133,62c53918824ba9072574f5a4,2022-07-06_02h26.53.633,Colour_Asymmetry_Pilot,2022.1.3,Win32,60.09615385,62c50e9c1127f2cd403a315f,,,,,,,,,,,,,,,,,,,,,,,,,,,,,,,,,,,,,,,,,,,,,,,,,,,,,,,,,,,,,,,,,,,,,,,,,,,,,,,,,,,,,,,,,,,,,,,,,,,,,,,,,,,,,,,,,,,,,,,,,,,,,,,,,,,,,,,,,,,,,,,,,,,,,,,,,,,,,,,,,,
0,59,59,2,1,,614d4623077785a6f3975133,62c53918824ba9072574f5a4,2022-07-06_02h26.53.633,Colour_Asymmetry_Pilot,2022.1.3,Win32,60.09615385,62c50e9c1127f2cd403a315f,,,,,,,,,,,,,,,,,,,,,,,,,,,,,,,,,,,,,,,,,,,,,,,,,,,,,,,,,,,,,,,,,,,,,,,,,,,,,,,,,,,,,,,,,,,,,,,,,,,,,,,,,,,,,,,,,,,,,,,,,,,,,,,,,,,,,,,,,,,,,,,,,,,,,,,,,,,,,,,,,,
0,60,60,10,1,,614d4623077785a6f3975133,62c53918824ba9072574f5a4,2022-07-06_02h26.53.633,Colour_Asymmetry_Pilot,2022.1.3,Win32,60.09615385,62c50e9c1127f2cd403a315f,,,,,,,,,,,,,,,,,,,,,,,,,,,,,,,,,,,,,,,,,,,,,,,,,,,,,,,,,,,,,,,,,,,,,,,,,,,,,,,,,,,,,,,,,,,,,,,,,,,,,,,,,,,,,,,,,,,,,,,,,,,,,,,,,,,,,,,,,,,,,,,,,,,,,,,,,,,,,,,,,,
0,61,61,80,1,,614d4623077785a6f3975133,62c53918824ba9072574f5a4,2022-07-06_02h26.53.633,Colour_Asymmetry_Pilot,2022.1.3,Win32,60.09615385,62c50e9c1127f2cd403a315f,,,,,,,,,,,,,,,,,,,,,,,,,,,,,,,,,,,,,,,,,,,,,,,,,,,,,,,,,,,,,,,,,,,,,,,,,,,,,,,,,,,,,,,,,,,,,,,,,,,,,,,,,,,,,,,,,,,,,,,,,,,,,,,,,,,,,,,,,,,,,,,,,,,,,,,,,,,,,,,,,,
0,62,62,87,1,,614d4623077785a6f3975133,62c53918824ba9072574f5a4,2022-07-06_02h26.53.633,Colour_Asymmetry_Pilot,2022.1.3,Win32,60.09615385,62c50e9c1127f2cd403a315f,,,,,,,,,,,,,,,,,,,,,,,,,,,,,,,,,,,,,,,,,,,,,,,,,,,,,,,,,,,,,,,,,,,,,,,,,,,,,,,,,,,,,,,,,,,,,,,,,,,,,,,,,,,,,,,,,,,,,,,,,,,,,,,,,,,,,,,,,,,,,,,,,,,,,,,,,,,,,,,,,,
0,63,63,11,1,,614d4623077785a6f3975133,62c53918824ba9072574f5a4,2022-07-06_02h26.53.633,Colour_Asymmetry_Pilot,2022.1.3,Win32,60.09615385,62c50e9c1127f2cd403a315f,,,,,,,,,,,,,,,,,,,,,,,,,,,,,,,,,,,,,,,,,,,,,,,,,,,,,,,,,,,,,,,,,,,,,,,,,,,,,,,,,,,,,,,,,,,,,,,,,,,,,,,,,,,,,,,,,,,,,,,,,,,,,,,,,,,,,,,,,,,,,,,,,,,,,,,,,,,,,,,,,,
0,64,64,27,1,,614d4623077785a6f3975133,62c53918824ba9072574f5a4,2022-07-06_02h26.53.633,Colour_Asymmetry_Pilot,2022.1.3,Win32,60.09615385,62c50e9c1127f2cd403a315f,,,,,,,,,,,,,,,,,,,,,,,,,,,,,,,,,,,,,,,,,,,,,,,,,,,,,,,,,,,,,,,,,,,,,,,,,,,,,,,,,,,,,,,,,,,,,,,,,,,,,,,,,,,,,,,,,,,,,,,,,,,,,,,,,,,,,,,,,,,,,,,,,,,,,,,,,,,,,,,,,,
0,65,65,35,1,,614d4623077785a6f3975133,62c53918824ba9072574f5a4,2022-07-06_02h26.53.633,Colour_Asymmetry_Pilot,2022.1.3,Win32,60.09615385,62c50e9c1127f2cd403a315f,,,,,,,,,,,,,,,,,,,,,,,,,,,,,,,,,,,,,,,,,,,,,,,,,,,,,,,,,,,,,,,,,,,,,,,,,,,,,,,,,,,,,,,,,,,,,,,,,,,,,,,,,,,,,,,,,,,,,,,,,,,,,,,,,,,,,,,,,,,,,,,,,,,,,,,,,,,,,,,,,,
0,66,66,48,1,,614d4623077785a6f3975133,62c53918824ba9072574f5a4,2022-07-06_02h26.53.633,Colour_Asymmetry_Pilot,2022.1.3,Win32,60.09615385,62c50e9c1127f2cd403a315f,,,,,,,,,,,,,,,,,,,,,,,,,,,,,,,,,,,,,,,,,,,,,,,,,,,,,,,,,,,,,,,,,,,,,,,,,,,,,,,,,,,,,,,,,,,,,,,,,,,,,,,,,,,,,,,,,,,,,,,,,,,,,,,,,,,,,,,,,,,,,,,,,,,,,,,,,,,,,,,,,,
0,67,67,53,1,,614d4623077785a6f3975133,62c53918824ba9072574f5a4,2022-07-06_02h26.53.633,Colour_Asymmetry_Pilot,2022.1.3,Win32,60.09615385,62c50e9c1127f2cd403a315f,,,,,,,,,,,,,,,,,,,,,,,,,,,,,,,,,,,,,,,,,,,,,,,,,,,,,,,,,,,,,,,,,,,,,,,,,,,,,,,,,,,,,,,,,,,,,,,,,,,,,,,,,,,,,,,,,,,,,,,,,,,,,,,,,,,,,,,,,,,,,,,,,,,,,,,,,,,,,,,,,,
0,68,68,90,1,,614d4623077785a6f3975133,62c53918824ba9072574f5a4,2022-07-06_02h26.53.633,Colour_Asymmetry_Pilot,2022.1.3,Win32,60.09615385,62c50e9c1127f2cd403a315f,,,,,,,,,,,,,,,,,,,,,,,,,,,,,,,,,,,,,,,,,,,,,,,,,,,,,,,,,,,,,,,,,,,,,,,,,,,,,,,,,,,,,,,,,,,,,,,,,,,,,,,,,,,,,,,,,,,,,,,,,,,,,,,,,,,,,,,,,,,,,,,,,,,,,,,,,,,,,,,,,,
0,69,69,40,1,,614d4623077785a6f3975133,62c53918824ba9072574f5a4,2022-07-06_02h26.53.633,Colour_Asymmetry_Pilot,2022.1.3,Win32,60.09615385,62c50e9c1127f2cd403a315f,,,,,,,,,,,,,,,,,,,,,,,,,,,,,,,,,,,,,,,,,,,,,,,,,,,,,,,,,,,,,,,,,,,,,,,,,,,,,,,,,,,,,,,,,,,,,,,,,,,,,,,,,,,,,,,,,,,,,,,,,,,,,,,,,,,,,,,,,,,,,,,,,,,,,,,,,,,,,,,,,,
0,70,70,86,1,,614d4623077785a6f3975133,62c53918824ba9072574f5a4,2022-07-06_02h26.53.633,Colour_Asymmetry_Pilot,2022.1.3,Win32,60.09615385,62c50e9c1127f2cd403a315f,,,,,,,,,,,,,,,,,,,,,,,,,,,,,,,,,,,,,,,,,,,,,,,,,,,,,,,,,,,,,,,,,,,,,,,,,,,,,,,,,,,,,,,,,,,,,,,,,,,,,,,,,,,,,,,,,,,,,,,,,,,,,,,,,,,,,,,,,,,,,,,,,,,,,,,,,,,,,,,,,,
0,71,71,44,1,,614d4623077785a6f3975133,62c53918824ba9072574f5a4,2022-07-06_02h26.53.633,Colour_Asymmetry_Pilot,2022.1.3,Win32,60.09615385,62c50e9c1127f2cd403a315f,,,,,,,,,,,,,,,,,,,,,,,,,,,,,,,,,,,,,,,,,,,,,,,,,,,,,,,,,,,,,,,,,,,,,,,,,,,,,,,,,,,,,,,,,,,,,,,,,,,,,,,,,,,,,,,,,,,,,,,,,,,,,,,,,,,,,,,,,,,,,,,,,,,,,,,,,,,,,,,,,,
0,72,72,14,1,,614d4623077785a6f3975133,62c53918824ba9072574f5a4,2022-07-06_02h26.53.633,Colour_Asymmetry_Pilot,2022.1.3,Win32,60.09615385,62c50e9c1127f2cd403a315f,,,,,,,,,,,,,,,,,,,,,,,,,,,,,,,,,,,,,,,,,,,,,,,,,,,,,,,,,,,,,,,,,,,,,,,,,,,,,,,,,,,,,,,,,,,,,,,,,,,,,,,,,,,,,,,,,,,,,,,,,,,,,,,,,,,,,,,,,,,,,,,,,,,,,,,,,,,,,,,,,,
0,73,73,72,1,,614d4623077785a6f3975133,62c53918824ba9072574f5a4,2022-07-06_02h26.53.633,Colour_Asymmetry_Pilot,2022.1.3,Win32,60.09615385,62c50e9c1127f2cd403a315f,,,,,,,,,,,,,,,,,,,,,,,,,,,,,,,,,,,,,,,,,,,,,,,,,,,,,,,,,,,,,,,,,,,,,,,,,,,,,,,,,,,,,,,,,,,,,,,,,,,,,,,,,,,,,,,,,,,,,,,,,,,,,,,,,,,,,,,,,,,,,,,,,,,,,,,,,,,,,,,,,,
0,74,74,4,1,,614d4623077785a6f3975133,62c53918824ba9072574f5a4,2022-07-06_02h26.53.633,Colour_Asymmetry_Pilot,2022.1.3,Win32,60.09615385,62c50e9c1127f2cd403a315f,,,,,,,,,,,,,,,,,,,,,,,,,,,,,,,,,,,,,,,,,,,,,,,,,,,,,,,,,,,,,,,,,,,,,,,,,,,,,,,,,,,,,,,,,,,,,,,,,,,,,,,,,,,,,,,,,,,,,,,,,,,,,,,,,,,,,,,,,,,,,,,,,,,,,,,,,,,,,,,,,,
0,75,75,85,1,,614d4623077785a6f3975133,62c53918824ba9072574f5a4,2022-07-06_02h26.53.633,Colour_Asymmetry_Pilot,2022.1.3,Win32,60.09615385,62c50e9c1127f2cd403a315f,,,,,,,,,,,,,,,,,,,,,,,,,,,,,,,,,,,,,,,,,,,,,,,,,,,,,,,,,,,,,,,,,,,,,,,,,,,,,,,,,,,,,,,,,,,,,,,,,,,,,,,,,,,,,,,,,,,,,,,,,,,,,,,,,,,,,,,,,,,,,,,,,,,,,,,,,,,,,,,,,,
0,76,76,71,1,,614d4623077785a6f3975133,62c53918824ba9072574f5a4,2022-07-06_02h26.53.633,Colour_Asymmetry_Pilot,2022.1.3,Win32,60.09615385,62c50e9c1127f2cd403a315f,,,,,,,,,,,,,,,,,,,,,,,,,,,,,,,,,,,,,,,,,,,,,,,,,,,,,,,,,,,,,,,,,,,,,,,,,,,,,,,,,,,,,,,,,,,,,,,,,,,,,,,,,,,,,,,,,,,,,,,,,,,,,,,,,,,,,,,,,,,,,,,,,,,,,,,,,,,,,,,,,,
0,77,77,75,1,,614d4623077785a6f3975133,62c53918824ba9072574f5a4,2022-07-06_02h26.53.633,Colour_Asymmetry_Pilot,2022.1.3,Win32,60.09615385,62c50e9c1127f2cd403a315f,,,,,,,,,,,,,,,,,,,,,,,,,,,,,,,,,,,,,,,,,,,,,,,,,,,,,,,,,,,,,,,,,,,,,,,,,,,,,,,,,,,,,,,,,,,,,,,,,,,,,,,,,,,,,,,,,,,,,,,,,,,,,,,,,,,,,,,,,,,,,,,,,,,,,,,,,,,,,,,,,,
0,78,78,82,1,,614d4623077785a6f3975133,62c53918824ba9072574f5a4,2022-07-06_02h26.53.633,Colour_Asymmetry_Pilot,2022.1.3,Win32,60.09615385,62c50e9c1127f2cd403a315f,,,,,,,,,,,,,,,,,,,,,,,,,,,,,,,,,,,,,,,,,,,,,,,,,,,,,,,,,,,,,,,,,,,,,,,,,,,,,,,,,,,,,,,,,,,,,,,,,,,,,,,,,,,,,,,,,,,,,,,,,,,,,,,,,,,,,,,,,,,,,,,,,,,,,,,,,,,,,,,,,,
0,79,79,51,1,,614d4623077785a6f3975133,62c53918824ba9072574f5a4,2022-07-06_02h26.53.633,Colour_Asymmetry_Pilot,2022.1.3,Win32,60.09615385,62c50e9c1127f2cd403a315f,,,,,,,,,,,,,,,,,,,,,,,,,,,,,,,,,,,,,,,,,,,,,,,,,,,,,,,,,,,,,,,,,,,,,,,,,,,,,,,,,,,,,,,,,,,,,,,,,,,,,,,,,,,,,,,,,,,,,,,,,,,,,,,,,,,,,,,,,,,,,,,,,,,,,,,,,,,,,,,,,,
0,80,80,49,1,,614d4623077785a6f3975133,62c53918824ba9072574f5a4,2022-07-06_02h26.53.633,Colour_Asymmetry_Pilot,2022.1.3,Win32,60.09615385,62c50e9c1127f2cd403a315f,,,,,,,,,,,,,,,,,,,,,,,,,,,,,,,,,,,,,,,,,,,,,,,,,,,,,,,,,,,,,,,,,,,,,,,,,,,,,,,,,,,,,,,,,,,,,,,,,,,,,,,,,,,,,,,,,,,,,,,,,,,,,,,,,,,,,,,,,,,,,,,,,,,,,,,,,,,,,,,,,,
0,81,81,55,1,,614d4623077785a6f3975133,62c53918824ba9072574f5a4,2022-07-06_02h26.53.633,Colour_Asymmetry_Pilot,2022.1.3,Win32,60.09615385,62c50e9c1127f2cd403a315f,,,,,,,,,,,,,,,,,,,,,,,,,,,,,,,,,,,,,,,,,,,,,,,,,,,,,,,,,,,,,,,,,,,,,,,,,,,,,,,,,,,,,,,,,,,,,,,,,,,,,,,,,,,,,,,,,,,,,,,,,,,,,,,,,,,,,,,,,,,,,,,,,,,,,,,,,,,,,,,,,,
0,82,82,58,1,,614d4623077785a6f3975133,62c53918824ba9072574f5a4,2022-07-06_02h26.53.633,Colour_Asymmetry_Pilot,2022.1.3,Win32,60.09615385,62c50e9c1127f2cd403a315f,,,,,,,,,,,,,,,,,,,,,,,,,,,,,,,,,,,,,,,,,,,,,,,,,,,,,,,,,,,,,,,,,,,,,,,,,,,,,,,,,,,,,,,,,,,,,,,,,,,,,,,,,,,,,,,,,,,,,,,,,,,,,,,,,,,,,,,,,,,,,,,,,,,,,,,,,,,,,,,,,,
0,83,83,46,1,,614d4623077785a6f3975133,62c53918824ba9072574f5a4,2022-07-06_02h26.53.633,Colour_Asymmetry_Pilot,2022.1.3,Win32,60.09615385,62c50e9c1127f2cd403a315f,,,,,,,,,,,,,,,,,,,,,,,,,,,,,,,,,,,,,,,,,,,,,,,,,,,,,,,,,,,,,,,,,,,,,,,,,,,,,,,,,,,,,,,,,,,,,,,,,,,,,,,,,,,,,,,,,,,,,,,,,,,,,,,,,,,,,,,,,,,,,,,,,,,,,,,,,,,,,,,,,,
0,84,84,76,1,,614d4623077785a6f3975133,62c53918824ba9072574f5a4,2022-07-06_02h26.53.633,Colour_Asymmetry_Pilot,2022.1.3,Win32,60.09615385,62c50e9c1127f2cd403a315f,,,,,,,,,,,,,,,,,,,,,,,,,,,,,,,,,,,,,,,,,,,,,,,,,,,,,,,,,,,,,,,,,,,,,,,,,,,,,,,,,,,,,,,,,,,,,,,,,,,,,,,,,,,,,,,,,,,,,,,,,,,,,,,,,,,,,,,,,,,,,,,,,,,,,,,,,,,,,,,,,,
0,85,85,45,1,,614d4623077785a6f3975133,62c53918824ba9072574f5a4,2022-07-06_02h26.53.633,Colour_Asymmetry_Pilot,2022.1.3,Win32,60.09615385,62c50e9c1127f2cd403a315f,,,,,,,,,,,,,,,,,,,,,,,,,,,,,,,,,,,,,,,,,,,,,,,,,,,,,,,,,,,,,,,,,,,,,,,,,,,,,,,,,,,,,,,,,,,,,,,,,,,,,,,,,,,,,,,,,,,,,,,,,,,,,,,,,,,,,,,,,,,,,,,,,,,,,,,,,,,,,,,,,,
0,86,86,62,1,,614d4623077785a6f3975133,62c53918824ba9072574f5a4,2022-07-06_02h26.53.633,Colour_Asymmetry_Pilot,2022.1.3,Win32,60.09615385,62c50e9c1127f2cd403a315f,,,,,,,,,,,,,,,,,,,,,,,,,,,,,,,,,,,,,,,,,,,,,,,,,,,,,,,,,,,,,,,,,,,,,,,,,,,,,,,,,,,,,,,,,,,,,,,,,,,,,,,,,,,,,,,,,,,,,,,,,,,,,,,,,,,,,,,,,,,,,,,,,,,,,,,,,,,,,,,,,,
0,87,87,63,1,,614d4623077785a6f3975133,62c53918824ba9072574f5a4,2022-07-06_02h26.53.633,Colour_Asymmetry_Pilot,2022.1.3,Win32,60.09615385,62c50e9c1127f2cd403a315f,,,,,,,,,,,,,,,,,,,,,,,,,,,,,,,,,,,,,,,,,,,,,,,,,,,,,,,,,,,,,,,,,,,,,,,,,,,,,,,,,,,,,,,,,,,,,,,,,,,,,,,,,,,,,,,,,,,,,,,,,,,,,,,,,,,,,,,,,,,,,,,,,,,,,,,,,,,,,,,,,,
0,88,88,91,1,,614d4623077785a6f3975133,62c53918824ba9072574f5a4,2022-07-06_02h26.53.633,Colour_Asymmetry_Pilot,2022.1.3,Win32,60.09615385,62c50e9c1127f2cd403a315f,,,,,,,,,,,,,,,,,,,,,,,,,,,,,,,,,,,,,,,,,,,,,,,,,,,,,,,,,,,,,,,,,,,,,,,,,,,,,,,,,,,,,,,,,,,,,,,,,,,,,,,,,,,,,,,,,,,,,,,,,,,,,,,,,,,,,,,,,,,,,,,,,,,,,,,,,,,,,,,,,,
0,89,89,29,1,,614d4623077785a6f3975133,62c53918824ba9072574f5a4,2022-07-06_02h26.53.633,Colour_Asymmetry_Pilot,2022.1.3,Win32,60.09615385,62c50e9c1127f2cd403a315f,,,,,,,,,,,,,,,,,,,,,,,,,,,,,,,,,,,,,,,,,,,,,,,,,,,,,,,,,,,,,,,,,,,,,,,,,,,,,,,,,,,,,,,,,,,,,,,,,,,,,,,,,,,,,,,,,,,,,,,,,,,,,,,,,,,,,,,,,,,,,,,,,,,,,,,,,,,,,,,,,,
0,90,90,47,1,,614d4623077785a6f3975133,62c53918824ba9072574f5a4,2022-07-06_02h26.53.633,Colour_Asymmetry_Pilot,2022.1.3,Win32,60.09615385,62c50e9c1127f2cd403a315f,,,,,,,,,,,,,,,,,,,,,,,,,,,,,,,,,,,,,,,,,,,,,,,,,,,,,,,,,,,,,,,,,,,,,,,,,,,,,,,,,,,,,,,,,,,,,,,,,,,,,,,,,,,,,,,,,,,,,,,,,,,,,,,,,,,,,,,,,,,,,,,,,,,,,,,,,,,,,,,,,,
0,91,91,69,1,,614d4623077785a6f3975133,62c53918824ba9072574f5a4,2022-07-06_02h26.53.633,Colour_Asymmetry_Pilot,2022.1.3,Win32,60.09615385,62c50e9c1127f2cd403a315f,,,,,,,,,,,,,,,,,,,,,,,,,,,,,,,,,,,,,,,,,,,,,,,,,,,,,,,,,,,,,,,,,,,,,,,,,,,,,,,,,,,,,,,,,,,,,,,,,,,,,,,,,,,,,,,,,,,,,,,,,,,,,,,,,,,,,,,,,,,,,,,,,,,,,,,,,,,,,,,,,,
0,92,92,34,1,,614d4623077785a6f3975133,62c53918824ba9072574f5a4,2022-07-06_02h26.53.633,Colour_Asymmetry_Pilot,2022.1.3,Win32,60.09615385,62c50e9c1127f2cd403a315f,,,,,,,,,,,,,,,,,,,,,,,,,,,,,,,,,,,,,,,,,,,,,,,,,,,,,,,,,,,,,,,,,,,,,,,,,,,,,,,,,,,,,,,,,,,,,,,,,,,,,,,,,,,,,,,,,,,,,,,,,,,,,,,,,,,,,,,,,,,,,,,,,,,,,,,,,,,,,,,,,,
,,,,,,614d4623077785a6f3975133,62c53918824ba9072574f5a4,2022-07-06_02h26.53.633,Colour_Asymmetry_Pilot,2022.1.3,Win32,60.09615385,62c50e9c1127f2cd403a315f,0,0,0,24,1,onetwo,,,,,,,,,,,,,,,,,,,,,,,,,,,,,,,,,,,,,,,,,,,,,,,,,,,,,,,,,,,,,,,,,,,,,,,,,,,,,,,,,,,,,,,,,,,,,,,,,,,,,,,,,,,,,,,,,,,,,,,,,,,,,,,,,,,,,,,,,,,,,,,,,,,,,,,,,,,,
,,,,,,614d4623077785a6f3975133,62c53918824ba9072574f5a4,2022-07-06_02h26.53.633,Colour_Asymmetry_Pilot,2022.1.3,Win32,60.09615385,62c50e9c1127f2cd403a315f,0,1,1,71,1,fourthree,,,,,,,,,,,,,,,,,,,,,,,,,,,,,,,,,,,,,,,,,,,,,,,,,,,,,,,,,,,,,,,,,,,,,,,,,,,,,,,,,,,,,,,,,,,,,,,,,,,,,,,,,,,,,,,,,,,,,,,,,,,,,,,,,,,,,,,,,,,,,,,,,,,,,,,,,,,,
,,,,,,614d4623077785a6f3975133,62c53918824ba9072574f5a4,2022-07-06_02h26.53.633,Colour_Asymmetry_Pilot,2022.1.3,Win32,60.09615385,62c50e9c1127f2cd403a315f,0,2,2,137,1,onethree,,,,,,,,,,,,,,,,,,,,,,,,,,,,,,,,,,,,,,,,,,,,,,,,,,,,,,,,,,,,,,,,,,,,,,,,,,,,,,,,,,,,,,,,,,,,,,,,,,,,,,,,,,,,,,,,,,,,,,,,,,,,,,,,,,,,,,,,,,,,,,,,,,,,,,,,,,,,
,,,,,,614d4623077785a6f3975133,62c53918824ba9072574f5a4,2022-07-06_02h26.53.633,Colour_Asymmetry_Pilot,2022.1.3,Win32,60.09615385,62c50e9c1127f2cd403a315f,0,3,3,120,1,onetwo,,,,,,,,,,,,,,,,,,,,,,,,,,,,,,,,,,,,,,,,,,,,,,,,,,,,,,,,,,,,,,,,,,,,,,,,,,,,,,,,,,,,,,,,,,,,,,,,,,,,,,,,,,,,,,,,,,,,,,,,,,,,,,,,,,,,,,,,,,,,,,,,,,,,,,,,,,,,
,,,,,,614d4623077785a6f3975133,62c53918824ba9072574f5a4,2022-07-06_02h26.53.633,Colour_Asymmetry_Pilot,2022.1.3,Win32,60.09615385,62c50e9c1127f2cd403a315f,0,4,4,6,1,fourtwo,,,,,,,,,,,,,,,,,,,,,,,,,,,,,,,,,,,,,,,,,,,,,,,,,,,,,,,,,,,,,,,,,,,,,,,,,,,,,,,,,,,,,,,,,,,,,,,,,,,,,,,,,,,,,,,,,,,,,,,,,,,,,,,,,,,,,,,,,,,,,,,,,,,,,,,,,,,,
,,,,,,614d4623077785a6f3975133,62c53918824ba9072574f5a4,2022-07-06_02h26.53.633,Colour_Asymmetry_Pilot,2022.1.3,Win32,60.09615385,62c50e9c1127f2cd403a315f,0,5,5,151,1,fourthree,,,,,,,,,,,,,,,,,,,,,,,,,,,,,,,,,,,,,,,,,,,,,,,,,,,,,,,,,,,,,,,,,,,,,,,,,,,,,,,,,,,,,,,,,,,,,,,,,,,,,,,,,,,,,,,,,,,,,,,,,,,,,,,,,,,,,,,,,,,,,,,,,,,,,,,,,,,,
,,,,,,614d4623077785a6f3975133,62c53918824ba9072574f5a4,2022-07-06_02h26.53.633,Colour_Asymmetry_Pilot,2022.1.3,Win32,60.09615385,62c50e9c1127f2cd403a315f,0,6,6,30,1,fourtwo,,,,,,,,,,,,,,,,,,,,,,,,,,,,,,,,,,,,,,,,,,,,,,,,,,,,,,,,,,,,,,,,,,,,,,,,,,,,,,,,,,,,,,,,,,,,,,,,,,,,,,,,,,,,,,,,,,,,,,,,,,,,,,,,,,,,,,,,,,,,,,,,,,,,,,,,,,,,
,,,,,,614d4623077785a6f3975133,62c53918824ba9072574f5a4,2022-07-06_02h26.53.633,Colour_Asymmetry_Pilot,2022.1.3,Win32,60.09615385,62c50e9c1127f2cd403a315f,0,7,7,129,1,onethree,,,,,,,,,,,,,,,,,,,,,,,,,,,,,,,,,,,,,,,,,,,,,,,,,,,,,,,,,,,,,,,,,,,,,,,,,,,,,,,,,,,,,,,,,,,,,,,,,,,,,,,,,,,,,,,,,,,,,,,,,,,,,,,,,,,,,,,,,,,,,,,,,,,,,,,,,,,,
,,,,,,614d4623077785a6f3975133,62c53918824ba9072574f5a4,2022-07-06_02h26.53.633,Colour_Asymmetry_Pilot,2022.1.3,Win32,60.09615385,62c50e9c1127f2cd403a315f,0,8,8,110,1,fourtwo,,,,,,,,,,,,,,,,,,,,,,,,,,,,,,,,,,,,,,,,,,,,,,,,,,,,,,,,,,,,,,,,,,,,,,,,,,,,,,,,,,,,,,,,,,,,,,,,,,,,,,,,,,,,,,,,,,,,,,,,,,,,,,,,,,,,,,,,,,,,,,,,,,,,,,,,,,,,
,,,,,,614d4623077785a6f3975133,62c53918824ba9072574f5a4,2022-07-06_02h26.53.633,Colour_Asymmetry_Pilot,2022.1.3,Win32,60.09615385,62c50e9c1127f2cd403a315f,0,9,9,81,1,onethree,,,,,,,,,,,,,,,,,,,,,,,,,,,,,,,,,,,,,,,,,,,,,,,,,,,,,,,,,,,,,,,,,,,,,,,,,,,,,,,,,,,,,,,,,,,,,,,,,,,,,,,,,,,,,,,,,,,,,,,,,,,,,,,,,,,,,,,,,,,,,,,,,,,,,,,,,,,,
,,,,,,614d4623077785a6f3975133,62c53918824ba9072574f5a4,2022-07-06_02h26.53.633,Colour_Asymmetry_Pilot,2022.1.3,Win32,60.09615385,62c50e9c1127f2cd403a315f,0,10,10,93,1,threefour,,,,,,,,,,,,,,,,,,,,,,,,,,,,,,,,,,,,,,,,,,,,,,,,,,,,,,,,,,,,,,,,,,,,,,,,,,,,,,,,,,,,,,,,,,,,,,,,,,,,,,,,,,,,,,,,,,,,,,,,,,,,,,,,,,,,,,,,,,,,,,,,,,,,,,,,,,,,
,,,,,,614d4623077785a6f3975133,62c53918824ba9072574f5a4,2022-07-06_02h26.53.633,Colour_Asymmetry_Pilot,2022.1.3,Win32,60.09615385,62c50e9c1127f2cd403a315f,0,11,11,99,1,twofour,,,,,,,,,,,,,,,,,,,,,,,,,,,,,,,,,,,,,,,,,,,,,,,,,,,,,,,,,,,,,,,,,,,,,,,,,,,,,,,,,,,,,,,,,,,,,,,,,,,,,,,,,,,,,,,,,,,,,,,,,,,,,,,,,,,,,,,,,,,,,,,,,,,,,,,,,,,,
,,,,,,614d4623077785a6f3975133,62c53918824ba9072574f5a4,2022-07-06_02h26.53.633,Colour_Asymmetry_Pilot,2022.1.3,Win32,60.09615385,62c50e9c1127f2cd403a315f,0,12,12,7,1,fourthree,,,,,,,,,,,,,,,,,,,,,,,,,,,,,,,,,,,,,,,,,,,,,,,,,,,,,,,,,,,,,,,,,,,,,,,,,,,,,,,,,,,,,,,,,,,,,,,,,,,,,,,,,,,,,,,,,,,,,,,,,,,,,,,,,,,,,,,,,,,,,,,,,,,,,,,,,,,,
,,,,,,614d4623077785a6f3975133,62c53918824ba9072574f5a4,2022-07-06_02h26.53.633,Colour_Asymmetry_Pilot,2022.1.3,Win32,60.09615385,62c50e9c1127f2cd403a315f,0,13,13,94,1,fourtwo,,,,,,,,,,,,,,,,,,,,,,,,,,,,,,,,,,,,,,,,,,,,,,,,,,,,,,,,,,,,,,,,,,,,,,,,,,,,,,,,,,,,,,,,,,,,,,,,,,,,,,,,,,,,,,,,,,,,,,,,,,,,,,,,,,,,,,,,,,,,,,,,,,,,,,,,,,,,
,,,,,,614d4623077785a6f3975133,62c53918824ba9072574f5a4,2022-07-06_02h26.53.633,Colour_Asymmetry_Pilot,2022.1.3,Win32,60.09615385,62c50e9c1127f2cd403a315f,0,14,14,68,1,threeone,,,,,,,,,,,,,,,,,,,,,,,,,,,,,,,,,,,,,,,,,,,,,,,,,,,,,,,,,,,,,,,,,,,,,,,,,,,,,,,,,,,,,,,,,,,,,,,,,,,,,,,,,,,,,,,,,,,,,,,,,,,,,,,,,,,,,,,,,,,,,,,,,,,,,,,,,,,,
,,,,,,614d4623077785a6f3975133,62c53918824ba9072574f5a4,2022-07-06_02h26.53.633,Colour_Asymmetry_Pilot,2022.1.3,Win32,60.09615385,62c50e9c1127f2cd403a315f,0,15,15,65,1,onethree,,,,,,,,,,,,,,,,,,,,,,,,,,,,,,,,,,,,,,,,,,,,,,,,,,,,,,,,,,,,,,,,,,,,,,,,,,,,,,,,,,,,,,,,,,,,,,,,,,,,,,,,,,,,,,,,,,,,,,,,,,,,,,,,,,,,,,,,,,,,,,,,,,,,,,,,,,,,
,,,,,,614d4623077785a6f3975133,62c53918824ba9072574f5a4,2022-07-06_02h26.53.633,Colour_Asymmetry_Pilot,2022.1.3,Win32,60.09615385,62c50e9c1127f2cd403a315f,0,16,16,145,1,onethree,,,,,,,,,,,,,,,,,,,,,,,,,,,,,,,,,,,,,,,,,,,,,,,,,,,,,,,,,,,,,,,,,,,,,,,,,,,,,,,,,,,,,,,,,,,,,,,,,,,,,,,,,,,,,,,,,,,,,,,,,,,,,,,,,,,,,,,,,,,,,,,,,,,,,,,,,,,,
,,,,,,614d4623077785a6f3975133,62c53918824ba9072574f5a4,2022-07-06_02h26.53.633,Colour_Asymmetry_Pilot,2022.1.3,Win32,60.09615385,62c50e9c1127f2cd403a315f,0,17,17,1,1,onethree,,,,,,,,,,,,,,,,,,,,,,,,,,,,,,,,,,,,,,,,,,,,,,,,,,,,,,,,,,,,,,,,,,,,,,,,,,,,,,,,,,,,,,,,,,,,,,,,,,,,,,,,,,,,,,,,,,,,,,,,,,,,,,,,,,,,,,,,,,,,,,,,,,,,,,,,,,,,
,,,,,,614d4623077785a6f3975133,62c53918824ba9072574f5a4,2022-07-06_02h26.53.633,Colour_Asymmetry_Pilot,2022.1.3,Win32,60.09615385,62c50e9c1127f2cd403a315f,0,18,18,23,1,fourthree,,,,,,,,,,,,,,,,,,,,,,,,,,,,,,,,,,,,,,,,,,,,,,,,,,,,,,,,,,,,,,,,,,,,,,,,,,,,,,,,,,,,,,,,,,,,,,,,,,,,,,,,,,,,,,,,,,,,,,,,,,,,,,,,,,,,,,,,,,,,,,,,,,,,,,,,,,,,
,,,,,,614d4623077785a6f3975133,62c53918824ba9072574f5a4,2022-07-06_02h26.53.633,Colour_Asymmetry_Pilot,2022.1.3,Win32,60.09615385,62c50e9c1127f2cd403a315f,0,19,19,148,1,threeone,,,,,,,,,,,,,,,,,,,,,,,,,,,,,,,,,,,,,,,,,,,,,,,,,,,,,,,,,,,,,,,,,,,,,,,,,,,,,,,,,,,,,,,,,,,,,,,,,,,,,,,,,,,,,,,,,,,,,,,,,,,,,,,,,,,,,,,,,,,,,,,,,,,,,,,,,,,,
,,,,,,614d4623077785a6f3975133,62c53918824ba9072574f5a4,2022-07-06_02h26.53.633,Colour_Asymmetry_Pilot,2022.1.3,Win32,60.09615385,62c50e9c1127f2cd403a315f,0,20,20,9,1,onethree,,,,,,,,,,,,,,,,,,,,,,,,,,,,,,,,,,,,,,,,,,,,,,,,,,,,,,,,,,,,,,,,,,,,,,,,,,,,,,,,,,,,,,,,,,,,,,,,,,,,,,,,,,,,,,,,,,,,,,,,,,,,,,,,,,,,,,,,,,,,,,,,,,,,,,,,,,,,
,,,,,,614d4623077785a6f3975133,62c53918824ba9072574f5a4,2022-07-06_02h26.53.633,Colour_Asymmetry_Pilot,2022.1.3,Win32,60.09615385,62c50e9c1127f2cd403a315f,0,21,21,147,1,twofour,,,,,,,,,,,,,,,,,,,,,,,,,,,,,,,,,,,,,,,,,,,,,,,,,,,,,,,,,,,,,,,,,,,,,,,,,,,,,,,,,,,,,,,,,,,,,,,,,,,,,,,,,,,,,,,,,,,,,,,,,,,,,,,,,,,,,,,,,,,,,,,,,,,,,,,,,,,,
,,,,,,614d4623077785a6f3975133,62c53918824ba9072574f5a4,2022-07-06_02h26.53.633,Colour_Asymmetry_Pilot,2022.1.3,Win32,60.09615385,62c50e9c1127f2cd403a315f,0,22,22,46,1,fourtwo,,,,,,,,,,,,,,,,,,,,,,,,,,,,,,,,,,,,,,,,,,,,,,,,,,,,,,,,,,,,,,,,,,,,,,,,,,,,,,,,,,,,,,,,,,,,,,,,,,,,,,,,,,,,,,,,,,,,,,,,,,,,,,,,,,,,,,,,,,,,,,,,,,,,,,,,,,,,
,,,,,,614d4623077785a6f3975133,62c53918824ba9072574f5a4,2022-07-06_02h26.53.633,Colour_Asymmetry_Pilot,2022.1.3,Win32,60.09615385,62c50e9c1127f2cd403a315f,0,23,23,17,1,onethree,,,,,,,,,,,,,,,,,,,,,,,,,,,,,,,,,,,,,,,,,,,,,,,,,,,,,,,,,,,,,,,,,,,,,,,,,,,,,,,,,,,,,,,,,,,,,,,,,,,,,,,,,,,,,,,,,,,,,,,,,,,,,,,,,,,,,,,,,,,,,,,,,,,,,,,,,,,,
,,,,,,614d4623077785a6f3975133,62c53918824ba9072574f5a4,2022-07-06_02h26.53.633,Colour_Asymmetry_Pilot,2022.1.3,Win32,60.09615385,62c50e9c1127f2cd403a315f,0,24,24,154,1,twoone,,,,,,,,,,,,,,,,,,,,,,,,,,,,,,,,,,,,,,,,,,,,,,,,,,,,,,,,,,,,,,,,,,,,,,,,,,,,,,,,,,,,,,,,,,,,,,,,,,,,,,,,,,,,,,,,,,,,,,,,,,,,,,,,,,,,,,,,,,,,,,,,,,,,,,,,,,,,
,,,,,,614d4623077785a6f3975133,62c53918824ba9072574f5a4,2022-07-06_02h26.53.633,Colour_Asymmetry_Pilot,2022.1.3,Win32,60.09615385,62c50e9c1127f2cd403a315f,0,25,25,122,1,twoone,,,,,,,,,,,,,,,,,,,,,,,,,,,,,,,,,,,,,,,,,,,,,,,,,,,,,,,,,,,,,,,,,,,,,,,,,,,,,,,,,,,,,,,,,,,,,,,,,,,,,,,,,,,,,,,,,,,,,,,,,,,,,,,,,,,,,,,,,,,,,,,,,,,,,,,,,,,,
,,,,,,614d4623077785a6f3975133,62c53918824ba9072574f5a4,2022-07-06_02h26.53.633,Colour_Asymmetry_Pilot,2022.1.3,Win32,60.09615385,62c50e9c1127f2cd403a315f,0,26,26,61,1,threefour,,,,,,,,,,,,,,,,,,,,,,,,,,,,,,,,,,,,,,,,,,,,,,,,,,,,,,,,,,,,,,,,,,,,,,,,,,,,,,,,,,,,,,,,,,,,,,,,,,,,,,,,,,,,,,,,,,,,,,,,,,,,,,,,,,,,,,,,,,,,,,,,,,,,,,,,,,,,
,,,,,,614d4623077785a6f3975133,62c53918824ba9072574f5a4,2022-07-06_02h26.53.633,Colour_Asymmetry_Pilot,2022.1.3,Win32,60.09615385,62c50e9c1127f2cd403a315f,0,27,27,49,1,onethree,,,,,,,,,,,,,,,,,,,,,,,,,,,,,,,,,,,,,,,,,,,,,,,,,,,,,,,,,,,,,,,,,,,,,,,,,,,,,,,,,,,,,,,,,,,,,,,,,,,,,,,,,,,,,,,,,,,,,,,,,,,,,,,,,,,,,,,,,,,,,,,,,,,,,,,,,,,,
,,,,,,614d4623077785a6f3975133,62c53918824ba9072574f5a4,2022-07-06_02h26.53.633,Colour_Asymmetry_Pilot,2022.1.3,Win32,60.09615385,62c50e9c1127f2cd403a315f,0,28,28,45,1,threefour,,,,,,,,,,,,,,,,,,,,,,,,,,,,,,,,,,,,,,,,,,,,,,,,,,,,,,,,,,,,,,,,,,,,,,,,,,,,,,,,,,,,,,,,,,,,,,,,,,,,,,,,,,,,,,,,,,,,,,,,,,,,,,,,,,,,,,,,,,,,,,,,,,,,,,,,,,,,
,,,,,,614d4623077785a6f3975133,62c53918824ba9072574f5a4,2022-07-06_02h26.53.633,Colour_Asymmetry_Pilot,2022.1.3,Win32,60.09615385,62c50e9c1127f2cd403a315f,0,29,29,80,1,onetwo,,,,,,,,,,,,,,,,,,,,,,,,,,,,,,,,,,,,,,,,,,,,,,,,,,,,,,,,,,,,,,,,,,,,,,,,,,,,,,,,,,,,,,,,,,,,,,,,,,,,,,,,,,,,,,,,,,,,,,,,,,,,,,,,,,,,,,,,,,,,,,,,,,,,,,,,,,,,
,,,,,,614d4623077785a6f3975133,62c53918824ba9072574f5a4,2022-07-06_02h26.53.633,Colour_Asymmetry_Pilot,2022.1.3,Win32,60.09615385,62c50e9c1127f2cd403a315f,0,30,30,149,1,threefour,,,,,,,,,,,,,,,,,,,,,,,,,,,,,,,,,,,,,,,,,,,,,,,,,,,,,,,,,,,,,,,,,,,,,,,,,,,,,,,,,,,,,,,,,,,,,,,,,,,,,,,,,,,,,,,,,,,,,,,,,,,,,,,,,,,,,,,,,,,,,,,,,,,,,,,,,,,,
,,,,,,614d4623077785a6f3975133,62c53918824ba9072574f5a4,2022-07-06_02h26.53.633,Colour_Asymmetry_Pilot,2022.1.3,Win32,60.09615385,62c50e9c1127f2cd403a315f,0,31,31,116,1,threeone,,,,,,,,,,,,,,,,,,,,,,,,,,,,,,,,,,,,,,,,,,,,,,,,,,,,,,,,,,,,,,,,,,,,,,,,,,,,,,,,,,,,,,,,,,,,,,,,,,,,,,,,,,,,,,,,,,,,,,,,,,,,,,,,,,,,,,,,,,,,,,,,,,,,,,,,,,,,
,,,,,,614d4623077785a6f3975133,62c53918824ba9072574f5a4,2022-07-06_02h26.53.633,Colour_Asymmetry_Pilot,2022.1.3,Win32,60.09615385,62c50e9c1127f2cd403a315f,0,32,32,136,1,onetwo,,,,,,,,,,,,,,,,,,,,,,,,,,,,,,,,,,,,,,,,,,,,,,,,,,,,,,,,,,,,,,,,,,,,,,,,,,,,,,,,,,,,,,,,,,,,,,,,,,,,,,,,,,,,,,,,,,,,,,,,,,,,,,,,,,,,,,,,,,,,,,,,,,,,,,,,,,,,
,,,,,,614d4623077785a6f3975133,62c53918824ba9072574f5a4,2022-07-06_02h26.53.633,Colour_Asymmetry_Pilot,2022.1.3,Win32,60.09615385,62c50e9c1127f2cd403a315f,0,33,33,69,1,threefour,,,,,,,,,,,,,,,,,,,,,,,,,,,,,,,,,,,,,,,,,,,,,,,,,,,,,,,,,,,,,,,,,,,,,,,,,,,,,,,,,,,,,,,,,,,,,,,,,,,,,,,,,,,,,,,,,,,,,,,,,,,,,,,,,,,,,,,,,,,,,,,,,,,,,,,,,,,,
,,,,,,614d4623077785a6f3975133,62c53918824ba9072574f5a4,2022-07-06_02h26.53.633,Colour_Asymmetry_Pilot,2022.1.3,Win32,60.09615385,62c50e9c1127f2cd403a315f,0,34,34,111,1,fourthree,,,,,,,,,,,,,,,,,,,,,,,,,,,,,,,,,,,,,,,,,,,,,,,,,,,,,,,,,,,,,,,,,,,,,,,,,,,,,,,,,,,,,,,,,,,,,,,,,,,,,,,,,,,,,,,,,,,,,,,,,,,,,,,,,,,,,,,,,,,,,,,,,,,,,,,,,,,,
,,,,,,614d4623077785a6f3975133,62c53918824ba9072574f5a4,2022-07-06_02h26.53.633,Colour_Asymmetry_Pilot,2022.1.3,Win32,60.09615385,62c50e9c1127f2cd403a315f,0,35,35,95,1,fourthree,,,,,,,,,,,,,,,,,,,,,,,,,,,,,,,,,,,,,,,,,,,,,,,,,,,,,,,,,,,,,,,,,,,,,,,,,,,,,,,,,,,,,,,,,,,,,,,,,,,,,,,,,,,,,,,,,,,,,,,,,,,,,,,,,,,,,,,,,,,,,,,,,,,,,,,,,,,,
,,,,,,614d4623077785a6f3975133,62c53918824ba9072574f5a4,2022-07-06_02h26.53.633,Colour_Asymmetry_Pilot,2022.1.3,Win32,60.09615385,62c50e9c1127f2cd403a315f,0,36,36,88,1,onetwo,,,,,,,,,,,,,,,,,,,,,,,,,,,,,,,,,,,,,,,,,,,,,,,,,,,,,,,,,,,,,,,,,,,,,,,,,,,,,,,,,,,,,,,,,,,,,,,,,,,,,,,,,,,,,,,,,,,,,,,,,,,,,,,,,,,,,,,,,,,,,,,,,,,,,,,,,,,,
,,,,,,614d4623077785a6f3975133,62c53918824ba9072574f5a4,2022-07-06_02h26.53.633,Colour_Asymmetry_Pilot,2022.1.3,Win32,60.09615385,62c50e9c1127f2cd403a315f,0,37,37,76,1,threeone,,,,,,,,,,,,,,,,,,,,,,,,,,,,,,,,,,,,,,,,,,,,,,,,,,,,,,,,,,,,,,,,,,,,,,,,,,,,,,,,,,,,,,,,,,,,,,,,,,,,,,,,,,,,,,,,,,,,,,,,,,,,,,,,,,,,,,,,,,,,,,,,,,,,,,,,,,,,
,,,,,,614d4623077785a6f3975133,62c53918824ba9072574f5a4,2022-07-06_02h26.53.633,Colour_Asymmetry_Pilot,2022.1.3,Win32,60.09615385,62c50e9c1127f2cd403a315f,0,38,38,127,1,fourthree,,,,,,,,,,,,,,,,,,,,,,,,,,,,,,,,,,,,,,,,,,,,,,,,,,,,,,,,,,,,,,,,,,,,,,,,,,,,,,,,,,,,,,,,,,,,,,,,,,,,,,,,,,,,,,,,,,,,,,,,,,,,,,,,,,,,,,,,,,,,,,,,,,,,,,,,,,,,
,,,,,,614d4623077785a6f3975133,62c53918824ba9072574f5a4,2022-07-06_02h26.53.633,Colour_Asymmetry_Pilot,2022.1.3,Win32,60.09615385,62c50e9c1127f2cd403a315f,0,39,39,144,1,onetwo,,,,,,,,,,,,,,,,,,,,,,,,,,,,,,,,,,,,,,,,,,,,,,,,,,,,,,,,,,,,,,,,,,,,,,,,,,,,,,,,,,,,,,,,,,,,,,,,,,,,,,,,,,,,,,,,,,,,,,,,,,,,,,,,,,,,,,,,,,,,,,,,,,,,,,,,,,,,
,,,,,,614d4623077785a6f3975133,62c53918824ba9072574f5a4,2022-07-06_02h26.53.633,Colour_Asymmetry_Pilot,2022.1.3,Win32,60.09615385,62c50e9c1127f2cd403a315f,0,40,40,79,1,fourthree,,,,,,,,,,,,,,,,,,,,,,,,,,,,,,,,,,,,,,,,,,,,,,,,,,,,,,,,,,,,,,,,,,,,,,,,,,,,,,,,,,,,,,,,,,,,,,,,,,,,,,,,,,,,,,,,,,,,,,,,,,,,,,,,,,,,,,,,,,,,,,,,,,,,,,,,,,,,
,,,,,,614d4623077785a6f3975133,62c53918824ba9072574f5a4,2022-07-06_02h26.53.633,Colour_Asymmetry_Pilot,2022.1.3,Win32,60.09615385,62c50e9c1127f2cd403a315f,0,41,41,21,1,threefour,,,,,,,,,,,,,,,,,,,,,,,,,,,,,,,,,,,,,,,,,,,,,,,,,,,,,,,,,,,,,,,,,,,,,,,,,,,,,,,,,,,,,,,,,,,,,,,,,,,,,,,,,,,,,,,,,,,,,,,,,,,,,,,,,,,,,,,,,,,,,,,,,,,,,,,,,,,,
,,,,,,614d4623077785a6f3975133,62c53918824ba9072574f5a4,2022-07-06_02h26.53.633,Colour_Asymmetry_Pilot,2022.1.3,Win32,60.09615385,62c50e9c1127f2cd403a315f,0,42,42,40,1,onetwo,,,,,,,,,,,,,,,,,,,,,,,,,,,,,,,,,,,,,,,,,,,,,,,,,,,,,,,,,,,,,,,,,,,,,,,,,,,,,,,,,,,,,,,,,,,,,,,,,,,,,,,,,,,,,,,,,,,,,,,,,,,,,,,,,,,,,,,,,,,,,,,,,,,,,,,,,,,,
,,,,,,614d4623077785a6f3975133,62c53918824ba9072574f5a4,2022-07-06_02h26.53.633,Colour_Asymmetry_Pilot,2022.1.3,Win32,60.09615385,62c50e9c1127f2cd403a315f,0,43,43,48,1,onetwo,,,,,,,,,,,,,,,,,,,,,,,,,,,,,,,,,,,,,,,,,,,,,,,,,,,,,,,,,,,,,,,,,,,,,,,,,,,,,,,,,,,,,,,,,,,,,,,,,,,,,,,,,,,,,,,,,,,,,,,,,,,,,,,,,,,,,,,,,,,,,,,,,,,,,,,,,,,,
,,,,,,614d4623077785a6f3975133,62c53918824ba9072574f5a4,2022-07-06_02h26.53.633,Colour_Asymmetry_Pilot,2022.1.3,Win32,60.09615385,62c50e9c1127f2cd403a315f,0,44,44,123,1,twofour,,,,,,,,,,,,,,,,,,,,,,,,,,,,,,,,,,,,,,,,,,,,,,,,,,,,,,,,,,,,,,,,,,,,,,,,,,,,,,,,,,,,,,,,,,,,,,,,,,,,,,,,,,,,,,,,,,,,,,,,,,,,,,,,,,,,,,,,,,,,,,,,,,,,,,,,,,,,
,,,,,,614d4623077785a6f3975133,62c53918824ba9072574f5a4,2022-07-06_02h26.53.633,Colour_Asymmetry_Pilot,2022.1.3,Win32,60.09615385,62c50e9c1127f2cd403a315f,0,45,45,130,1,twoone,,,,,,,,,,,,,,,,,,,,,,,,,,,,,,,,,,,,,,,,,,,,,,,,,,,,,,,,,,,,,,,,,,,,,,,,,,,,,,,,,,,,,,,,,,,,,,,,,,,,,,,,,,,,,,,,,,,,,,,,,,,,,,,,,,,,,,,,,,,,,,,,,,,,,,,,,,,,
,,,,,,614d4623077785a6f3975133,62c53918824ba9072574f5a4,2022-07-06_02h26.53.633,Colour_Asymmetry_Pilot,2022.1.3,Win32,60.09615385,62c50e9c1127f2cd403a315f,0,46,46,3,1,twofour,,,,,,,,,,,,,,,,,,,,,,,,,,,,,,,,,,,,,,,,,,,,,,,,,,,,,,,,,,,,,,,,,,,,,,,,,,,,,,,,,,,,,,,,,,,,,,,,,,,,,,,,,,,,,,,,,,,,,,,,,,,,,,,,,,,,,,,,,,,,,,,,,,,,,,,,,,,,
,,,,,,614d4623077785a6f3975133,62c53918824ba9072574f5a4,2022-07-06_02h26.53.633,Colour_Asymmetry_Pilot,2022.1.3,Win32,60.09615385,62c50e9c1127f2cd403a315f,0,47,47,14,1,fourtwo,,,,,,,,,,,,,,,,,,,,,,,,,,,,,,,,,,,,,,,,,,,,,,,,,,,,,,,,,,,,,,,,,,,,,,,,,,,,,,,,,,,,,,,,,,,,,,,,,,,,,,,,,,,,,,,,,,,,,,,,,,,,,,,,,,,,,,,,,,,,,,,,,,,,,,,,,,,,
,,,,,,614d4623077785a6f3975133,62c53918824ba9072574f5a4,2022-07-06_02h26.53.633,Colour_Asymmetry_Pilot,2022.1.3,Win32,60.09615385,62c50e9c1127f2cd403a315f,0,48,48,64,1,onetwo,,,,,,,,,,,,,,,,,,,,,,,,,,,,,,,,,,,,,,,,,,,,,,,,,,,,,,,,,,,,,,,,,,,,,,,,,,,,,,,,,,,,,,,,,,,,,,,,,,,,,,,,,,,,,,,,,,,,,,,,,,,,,,,,,,,,,,,,,,,,,,,,,,,,,,,,,,,,
,,,,,,614d4623077785a6f3975133,62c53918824ba9072574f5a4,2022-07-06_02h26.53.633,Colour_Asymmetry_Pilot,2022.1.3,Win32,60.09615385,62c50e9c1127f2cd403a315f,0,49,49,58,1,twoone,,,,,,,,,,,,,,,,,,,,,,,,,,,,,,,,,,,,,,,,,,,,,,,,,,,,,,,,,,,,,,,,,,,,,,,,,,,,,,,,,,,,,,,,,,,,,,,,,,,,,,,,,,,,,,,,,,,,,,,,,,,,,,,,,,,,,,,,,,,,,,,,,,,,,,,,,,,,
,,,,,,614d4623077785a6f3975133,62c53918824ba9072574f5a4,2022-07-06_02h26.53.633,Colour_Asymmetry_Pilot,2022.1.3,Win32,60.09615385,62c50e9c1127f2cd403a315f,0,50,50,38,1,fourtwo,,,,,,,,,,,,,,,,,,,,,,,,,,,,,,,,,,,,,,,,,,,,,,,,,,,,,,,,,,,,,,,,,,,,,,,,,,,,,,,,,,,,,,,,,,,,,,,,,,,,,,,,,,,,,,,,,,,,,,,,,,,,,,,,,,,,,,,,,,,,,,,,,,,,,,,,,,,,
,,,,,,614d4623077785a6f3975133,62c53918824ba9072574f5a4,2022-07-06_02h26.53.633,Colour_Asymmetry_Pilot,2022.1.3,Win32,60.09615385,62c50e9c1127f2cd403a315f,0,51,51,138,1,twoone,,,,,,,,,,,,,,,,,,,,,,,,,,,,,,,,,,,,,,,,,,,,,,,,,,,,,,,,,,,,,,,,,,,,,,,,,,,,,,,,,,,,,,,,,,,,,,,,,,,,,,,,,,,,,,,,,,,,,,,,,,,,,,,,,,,,,,,,,,,,,,,,,,,,,,,,,,,,
,,,,,,614d4623077785a6f3975133,62c53918824ba9072574f5a4,2022-07-06_02h26.53.633,Colour_Asymmetry_Pilot,2022.1.3,Win32,60.09615385,62c50e9c1127f2cd403a315f,0,52,52,8,1,onetwo,,,,,,,,,,,,,,,,,,,,,,,,,,,,,,,,,,,,,,,,,,,,,,,,,,,,,,,,,,,,,,,,,,,,,,,,,,,,,,,,,,,,,,,,,,,,,,,,,,,,,,,,,,,,,,,,,,,,,,,,,,,,,,,,,,,,,,,,,,,,,,,,,,,,,,,,,,,,
,,,,,,614d4623077785a6f3975133,62c53918824ba9072574f5a4,2022-07-06_02h26.53.633,Colour_Asymmetry_Pilot,2022.1.3,Win32,60.09615385,62c50e9c1127f2cd403a315f,0,53,53,118,1,fourtwo,,,,,,,,,,,,,,,,,,,,,,,,,,,,,,,,,,,,,,,,,,,,,,,,,,,,,,,,,,,,,,,,,,,,,,,,,,,,,,,,,,,,,,,,,,,,,,,,,,,,,,,,,,,,,,,,,,,,,,,,,,,,,,,,,,,,,,,,,,,,,,,,,,,,,,,,,,,,
,,,,,,614d4623077785a6f3975133,62c53918824ba9072574f5a4,2022-07-06_02h26.53.633,Colour_Asymmetry_Pilot,2022.1.3,Win32,60.09615385,62c50e9c1127f2cd403a315f,0,54,54,53,1,threefour,,,,,,,,,,,,,,,,,,,,,,,,,,,,,,,,,,,,,,,,,,,,,,,,,,,,,,,,,,,,,,,,,,,,,,,,,,,,,,,,,,,,,,,,,,,,,,,,,,,,,,,,,,,,,,,,,,,,,,,,,,,,,,,,,,,,,,,,,,,,,,,,,,,,,,,,,,,,
,,,,,,614d4623077785a6f3975133,62c53918824ba9072574f5a4,2022-07-06_02h26.53.633,Colour_Asymmetry_Pilot,2022.1.3,Win32,60.09615385,62c50e9c1127f2cd403a315f,0,55,55,13,1,threefour,,,,,,,,,,,,,,,,,,,,,,,,,,,,,,,,,,,,,,,,,,,,,,,,,,,,,,,,,,,,,,,,,,,,,,,,,,,,,,,,,,,,,,,,,,,,,,,,,,,,,,,,,,,,,,,,,,,,,,,,,,,,,,,,,,,,,,,,,,,,,,,,,,,,,,,,,,,,
,,,,,,614d4623077785a6f3975133,62c53918824ba9072574f5a4,2022-07-06_02h26.53.633,Colour_Asymmetry_Pilot,2022.1.3,Win32,60.09615385,62c50e9c1127f2cd403a315f,0,56,56,146,1,twoone,,,,,,,,,,,,,,,,,,,,,,,,,,,,,,,,,,,,,,,,,,,,,,,,,,,,,,,,,,,,,,,,,,,,,,,,,,,,,,,,,,,,,,,,,,,,,,,,,,,,,,,,,,,,,,,,,,,,,,,,,,,,,,,,,,,,,,,,,,,,,,,,,,,,,,,,,,,,
,,,,,,614d4623077785a6f3975133,62c53918824ba9072574f5a4,2022-07-06_02h26.53.633,Colour_Asymmetry_Pilot,2022.1.3,Win32,60.09615385,62c50e9c1127f2cd403a315f,0,57,57,108,1,threeone,,,,,,,,,,,,,,,,,,,,,,,,,,,,,,,,,,,,,,,,,,,,,,,,,,,,,,,,,,,,,,,,,,,,,,,,,,,,,,,,,,,,,,,,,,,,,,,,,,,,,,,,,,,,,,,,,,,,,,,,,,,,,,,,,,,,,,,,,,,,,,,,,,,,,,,,,,,,
,,,,,,614d4623077785a6f3975133,62c53918824ba9072574f5a4,2022-07-06_02h26.53.633,Colour_Asymmetry_Pilot,2022.1.3,Win32,60.09615385,62c50e9c1127f2cd403a315f,0,58,58,39,1,fourthree,,,,,,,,,,,,,,,,,,,,,,,,,,,,,,,,,,,,,,,,,,,,,,,,,,,,,,,,,,,,,,,,,,,,,,,,,,,,,,,,,,,,,,,,,,,,,,,,,,,,,,,,,,,,,,,,,,,,,,,,,,,,,,,,,,,,,,,,,,,,,,,,,,,,,,,,,,,,
,,,,,,614d4623077785a6f3975133,62c53918824ba9072574f5a4,2022-07-06_02h26.53.633,Colour_Asymmetry_Pilot,2022.1.3,Win32,60.09615385,62c50e9c1127f2cd403a315f,0,59,59,97,1,onethree,,,,,,,,,,,,,,,,,,,,,,,,,,,,,,,,,,,,,,,,,,,,,,,,,,,,,,,,,,,,,,,,,,,,,,,,,,,,,,,,,,,,,,,,,,,,,,,,,,,,,,,,,,,,,,,,,,,,,,,,,,,,,,,,,,,,,,,,,,,,,,,,,,,,,,,,,,,,
,,,,,,614d4623077785a6f3975133,62c53918824ba9072574f5a4,2022-07-06_02h26.53.633,Colour_Asymmetry_Pilot,2022.1.3,Win32,60.09615385,62c50e9c1127f2cd403a315f,0,60,60,109,1,threefour,,,,,,,,,,,,,,,,,,,,,,,,,,,,,,,,,,,,,,,,,,,,,,,,,,,,,,,,,,,,,,,,,,,,,,,,,,,,,,,,,,,,,,,,,,,,,,,,,,,,,,,,,,,,,,,,,,,,,,,,,,,,,,,,,,,,,,,,,,,,,,,,,,,,,,,,,,,,
,,,,,,614d4623077785a6f3975133,62c53918824ba9072574f5a4,2022-07-06_02h26.53.633,Colour_Asymmetry_Pilot,2022.1.3,Win32,60.09615385,62c50e9c1127f2cd403a315f,0,61,61,32,1,onetwo,,,,,,,,,,,,,,,,,,,,,,,,,,,,,,,,,,,,,,,,,,,,,,,,,,,,,,,,,,,,,,,,,,,,,,,,,,,,,,,,,,,,,,,,,,,,,,,,,,,,,,,,,,,,,,,,,,,,,,,,,,,,,,,,,,,,,,,,,,,,,,,,,,,,,,,,,,,,
,,,,,,614d4623077785a6f3975133,62c53918824ba9072574f5a4,2022-07-06_02h26.53.633,Colour_Asymmetry_Pilot,2022.1.3,Win32,60.09615385,62c50e9c1127f2cd403a315f,0,62,62,161,1,onethree,,,,,,,,,,,,,,,,,,,,,,,,,,,,,,,,,,,,,,,,,,,,,,,,,,,,,,,,,,,,,,,,,,,,,,,,,,,,,,,,,,,,,,,,,,,,,,,,,,,,,,,,,,,,,,,,,,,,,,,,,,,,,,,,,,,,,,,,,,,,,,,,,,,,,,,,,,,,
,,,,,,614d4623077785a6f3975133,62c53918824ba9072574f5a4,2022-07-06_02h26.53.633,Colour_Asymmetry_Pilot,2022.1.3,Win32,60.09615385,62c50e9c1127f2cd403a315f,0,63,63,41,1,onethree,,,,,,,,,,,,,,,,,,,,,,,,,,,,,,,,,,,,,,,,,,,,,,,,,,,,,,,,,,,,,,,,,,,,,,,,,,,,,,,,,,,,,,,,,,,,,,,,,,,,,,,,,,,,,,,,,,,,,,,,,,,,,,,,,,,,,,,,,,,,,,,,,,,,,,,,,,,,
,,,,,,614d4623077785a6f3975133,62c53918824ba9072574f5a4,2022-07-06_02h26.53.633,Colour_Asymmetry_Pilot,2022.1.3,Win32,60.09615385,62c50e9c1127f2cd403a315f,0,64,64,159,1,fourthree,,,,,,,,,,,,,,,,,,,,,,,,,,,,,,,,,,,,,,,,,,,,,,,,,,,,,,,,,,,,,,,,,,,,,,,,,,,,,,,,,,,,,,,,,,,,,,,,,,,,,,,,,,,,,,,,,,,,,,,,,,,,,,,,,,,,,,,,,,,,,,,,,,,,,,,,,,,,
,,,,,,614d4623077785a6f3975133,62c53918824ba9072574f5a4,2022-07-06_02h26.53.633,Colour_Asymmetry_Pilot,2022.1.3,Win32,60.09615385,62c50e9c1127f2cd403a315f,0,65,65,11,1,twofour,,,,,,,,,,,,,,,,,,,,,,,,,,,,,,,,,,,,,,,,,,,,,,,,,,,,,,,,,,,,,,,,,,,,,,,,,,,,,,,,,,,,,,,,,,,,,,,,,,,,,,,,,,,,,,,,,,,,,,,,,,,,,,,,,,,,,,,,,,,,,,,,,,,,,,,,,,,,
,,,,,,614d4623077785a6f3975133,62c53918824ba9072574f5a4,2022-07-06_02h26.53.633,Colour_Asymmetry_Pilot,2022.1.3,Win32,60.09615385,62c50e9c1127f2cd403a315f,0,66,66,63,1,fourthree,,,,,,,,,,,,,,,,,,,,,,,,,,,,,,,,,,,,,,,,,,,,,,,,,,,,,,,,,,,,,,,,,,,,,,,,,,,,,,,,,,,,,,,,,,,,,,,,,,,,,,,,,,,,,,,,,,,,,,,,,,,,,,,,,,,,,,,,,,,,,,,,,,,,,,,,,,,,
,,,,,,614d4623077785a6f3975133,62c53918824ba9072574f5a4,2022-07-06_02h26.53.633,Colour_Asymmetry_Pilot,2022.1.3,Win32,60.09615385,62c50e9c1127f2cd403a315f,0,67,67,59,1,twofour,,,,,,,,,,,,,,,,,,,,,,,,,,,,,,,,,,,,,,,,,,,,,,,,,,,,,,,,,,,,,,,,,,,,,,,,,,,,,,,,,,,,,,,,,,,,,,,,,,,,,,,,,,,,,,,,,,,,,,,,,,,,,,,,,,,,,,,,,,,,,,,,,,,,,,,,,,,,
,,,,,,614d4623077785a6f3975133,62c53918824ba9072574f5a4,2022-07-06_02h26.53.633,Colour_Asymmetry_Pilot,2022.1.3,Win32,60.09615385,62c50e9c1127f2cd403a315f,0,68,68,70,1,fourtwo,,,,,,,,,,,,,,,,,,,,,,,,,,,,,,,,,,,,,,,,,,,,,,,,,,,,,,,,,,,,,,,,,,,,,,,,,,,,,,,,,,,,,,,,,,,,,,,,,,,,,,,,,,,,,,,,,,,,,,,,,,,,,,,,,,,,,,,,,,,,,,,,,,,,,,,,,,,,
,,,,,,614d4623077785a6f3975133,62c53918824ba9072574f5a4,2022-07-06_02h26.53.633,Colour_Asymmetry_Pilot,2022.1.3,Win32,60.09615385,62c50e9c1127f2cd403a315f,0,69,69,156,1,threeone,,,,,,,,,,,,,,,,,,,,,,,,,,,,,,,,,,,,,,,,,,,,,,,,,,,,,,,,,,,,,,,,,,,,,,,,,,,,,,,,,,,,,,,,,,,,,,,,,,,,,,,,,,,,,,,,,,,,,,,,,,,,,,,,,,,,,,,,,,,,,,,,,,,,,,,,,,,,
,,,,,,614d4623077785a6f3975133,62c53918824ba9072574f5a4,2022-07-06_02h26.53.633,Colour_Asymmetry_Pilot,2022.1.3,Win32,60.09615385,62c50e9c1127f2cd403a315f,0,70,70,22,1,fourtwo,,,,,,,,,,,,,,,,,,,,,,,,,,,,,,,,,,,,,,,,,,,,,,,,,,,,,,,,,,,,,,,,,,,,,,,,,,,,,,,,,,,,,,,,,,,,,,,,,,,,,,,,,,,,,,,,,,,,,,,,,,,,,,,,,,,,,,,,,,,,,,,,,,,,,,,,,,,,
,,,,,,614d4623077785a6f3975133,62c53918824ba9072574f5a4,2022-07-06_02h26.53.633,Colour_Asymmetry_Pilot,2022.1.3,Win32,60.09615385,62c50e9c1127f2cd403a315f,0,71,71,82,1,twoone,,,,,,,,,,,,,,,,,,,,,,,,,,,,,,,,,,,,,,,,,,,,,,,,,,,,,,,,,,,,,,,,,,,,,,,,,,,,,,,,,,,,,,,,,,,,,,,,,,,,,,,,,,,,,,,,,,,,,,,,,,,,,,,,,,,,,,,,,,,,,,,,,,,,,,,,,,,,
,,,,,,614d4623077785a6f3975133,62c53918824ba9072574f5a4,2022-07-06_02h26.53.633,Colour_Asymmetry_Pilot,2022.1.3,Win32,60.09615385,62c50e9c1127f2cd403a315f,0,72,72,131,1,twofour,,,,,,,,,,,,,,,,,,,,,,,,,,,,,,,,,,,,,,,,,,,,,,,,,,,,,,,,,,,,,,,,,,,,,,,,,,,,,,,,,,,,,,,,,,,,,,,,,,,,,,,,,,,,,,,,,,,,,,,,,,,,,,,,,,,,,,,,,,,,,,,,,,,,,,,,,,,,
,,,,,,614d4623077785a6f3975133,62c53918824ba9072574f5a4,2022-07-06_02h26.53.633,Colour_Asymmetry_Pilot,2022.1.3,Win32,60.09615385,62c50e9c1127f2cd403a315f,0,73,73,141,1,threefour,,,,,,,,,,,,,,,,,,,,,,,,,,,,,,,,,,,,,,,,,,,,,,,,,,,,,,,,,,,,,,,,,,,,,,,,,,,,,,,,,,,,,,,,,,,,,,,,,,,,,,,,,,,,,,,,,,,,,,,,,,,,,,,,,,,,,,,,,,,,,,,,,,,,,,,,,,,,
,,,,,,614d4623077785a6f3975133,62c53918824ba9072574f5a4,2022-07-06_02h26.53.633,Colour_Asymmetry_Pilot,2022.1.3,Win32,60.09615385,62c50e9c1127f2cd403a315f,0,74,74,132,1,threeone,,,,,,,,,,,,,,,,,,,,,,,,,,,,,,,,,,,,,,,,,,,,,,,,,,,,,,,,,,,,,,,,,,,,,,,,,,,,,,,,,,,,,,,,,,,,,,,,,,,,,,,,,,,,,,,,,,,,,,,,,,,,,,,,,,,,,,,,,,,,,,,,,,,,,,,,,,,,
,,,,,,614d4623077785a6f3975133,62c53918824ba9072574f5a4,2022-07-06_02h26.53.633,Colour_Asymmetry_Pilot,2022.1.3,Win32,60.09615385,62c50e9c1127f2cd403a315f,0,75,75,67,1,twofour,,,,,,,,,,,,,,,,,,,,,,,,,,,,,,,,,,,,,,,,,,,,,,,,,,,,,,,,,,,,,,,,,,,,,,,,,,,,,,,,,,,,,,,,,,,,,,,,,,,,,,,,,,,,,,,,,,,,,,,,,,,,,,,,,,,,,,,,,,,,,,,,,,,,,,,,,,,,
,,,,,,614d4623077785a6f3975133,62c53918824ba9072574f5a4,2022-07-06_02h26.53.633,Colour_Asymmetry_Pilot,2022.1.3,Win32,60.09615385,62c50e9c1127f2cd403a315f,0,76,76,153,1,onethree,,,,,,,,,,,,,,,,,,,,,,,,,,,,,,,,,,,,,,,,,,,,,,,,,,,,,,,,,,,,,,,,,,,,,,,,,,,,,,,,,,,,,,,,,,,,,,,,,,,,,,,,,,,,,,,,,,,,,,,,,,,,,,,,,,,,,,,,,,,,,,,,,,,,,,,,,,,,
,,,,,,614d4623077785a6f3975133,62c53918824ba9072574f5a4,2022-07-06_02h26.53.633,Colour_Asymmetry_Pilot,2022.1.3,Win32,60.09615385,62c50e9c1127f2cd403a315f,0,77,77,16,1,onetwo,,,,,,,,,,,,,,,,,,,,,,,,,,,,,,,,,,,,,,,,,,,,,,,,,,,,,,,,,,,,,,,,,,,,,,,,,,,,,,,,,,,,,,,,,,,,,,,,,,,,,,,,,,,,,,,,,,,,,,,,,,,,,,,,,,,,,,,,,,,,,,,,,,,,,,,,,,,,
,,,,,,614d4623077785a6f3975133,62c53918824ba9072574f5a4,2022-07-06_02h26.53.633,Colour_Asymmetry_Pilot,2022.1.3,Win32,60.09615385,62c50e9c1127f2cd403a315f,0,78,78,114,1,twoone,,,,,,,,,,,,,,,,,,,,,,,,,,,,,,,,,,,,,,,,,,,,,,,,,,,,,,,,,,,,,,,,,,,,,,,,,,,,,,,,,,,,,,,,,,,,,,,,,,,,,,,,,,,,,,,,,,,,,,,,,,,,,,,,,,,,,,,,,,,,,,,,,,,,,,,,,,,,
,,,,,,614d4623077785a6f3975133,62c53918824ba9072574f5a4,2022-07-06_02h26.53.633,Colour_Asymmetry_Pilot,2022.1.3,Win32,60.09615385,62c50e9c1127f2cd403a315f,0,79,79,75,1,twofour,,,,,,,,,,,,,,,,,,,,,,,,,,,,,,,,,,,,,,,,,,,,,,,,,,,,,,,,,,,,,,,,,,,,,,,,,,,,,,,,,,,,,,,,,,,,,,,,,,,,,,,,,,,,,,,,,,,,,,,,,,,,,,,,,,,,,,,,,,,,,,,,,,,,,,,,,,,,
,,,,,,614d4623077785a6f3975133,62c53918824ba9072574f5a4,2022-07-06_02h26.53.633,Colour_Asymmetry_Pilot,2022.1.3,Win32,60.09615385,62c50e9c1127f2cd403a315f,0,80,80,135,1,fourthree,,,,,,,,,,,,,,,,,,,,,,,,,,,,,,,,,,,,,,,,,,,,,,,,,,,,,,,,,,,,,,,,,,,,,,,,,,,,,,,,,,,,,,,,,,,,,,,,,,,,,,,,,,,,,,,,,,,,,,,,,,,,,,,,,,,,,,,,,,,,,,,,,,,,,,,,,,,,
,,,,,,614d4623077785a6f3975133,62c53918824ba9072574f5a4,2022-07-06_02h26.53.633,Colour_Asymmetry_Pilot,2022.1.3,Win32,60.09615385,62c50e9c1127f2cd403a315f,0,81,81,19,1,twofour,,,,,,,,,,,,,,,,,,,,,,,,,,,,,,,,,,,,,,,,,,,,,,,,,,,,,,,,,,,,,,,,,,,,,,,,,,,,,,,,,,,,,,,,,,,,,,,,,,,,,,,,,,,,,,,,,,,,,,,,,,,,,,,,,,,,,,,,,,,,,,,,,,,,,,,,,,,,
,,,,,,614d4623077785a6f3975133,62c53918824ba9072574f5a4,2022-07-06_02h26.53.633,Colour_Asymmetry_Pilot,2022.1.3,Win32,60.09615385,62c50e9c1127f2cd403a315f,0,82,82,0,1,onetwo,,,,,,,,,,,,,,,,,,,,,,,,,,,,,,,,,,,,,,,,,,,,,,,,,,,,,,,,,,,,,,,,,,,,,,,,,,,,,,,,,,,,,,,,,,,,,,,,,,,,,,,,,,,,,,,,,,,,,,,,,,,,,,,,,,,,,,,,,,,,,,,,,,,,,,,,,,,,
,,,,,,614d4623077785a6f3975133,62c53918824ba9072574f5a4,2022-07-06_02h26.53.633,Colour_Asymmetry_Pilot,2022.1.3,Win32,60.09615385,62c50e9c1127f2cd403a315f,0,83,83,74,1,twoone,,,,,,,,,,,,,,,,,,,,,,,,,,,,,,,,,,,,,,,,,,,,,,,,,,,,,,,,,,,,,,,,,,,,,,,,,,,,,,,,,,,,,,,,,,,,,,,,,,,,,,,,,,,,,,,,,,,,,,,,,,,,,,,,,,,,,,,,,,,,,,,,,,,,,,,,,,,,
,,,,,,614d4623077785a6f3975133,62c53918824ba9072574f5a4,2022-07-06_02h26.53.633,Colour_Asymmetry_Pilot,2022.1.3,Win32,60.09615385,62c50e9c1127f2cd403a315f,0,84,84,102,1,fourtwo,,,,,,,,,,,,,,,,,,,,,,,,,,,,,,,,,,,,,,,,,,,,,,,,,,,,,,,,,,,,,,,,,,,,,,,,,,,,,,,,,,,,,,,,,,,,,,,,,,,,,,,,,,,,,,,,,,,,,,,,,,,,,,,,,,,,,,,,,,,,,,,,,,,,,,,,,,,,
,,,,,,614d4623077785a6f3975133,62c53918824ba9072574f5a4,2022-07-06_02h26.53.633,Colour_Asymmetry_Pilot,2022.1.3,Win32,60.09615385,62c50e9c1127f2cd403a315f,0,85,85,89,1,onethree,,,,,,,,,,,,,,,,,,,,,,,,,,,,,,,,,,,,,,,,,,,,,,,,,,,,,,,,,,,,,,,,,,,,,,,,,,,,,,,,,,,,,,,,,,,,,,,,,,,,,,,,,,,,,,,,,,,,,,,,,,,,,,,,,,,,,,,,,,,,,,,,,,,,,,,,,,,,
,,,,,,614d4623077785a6f3975133,62c53918824ba9072574f5a4,2022-07-06_02h26.53.633,Colour_Asymmetry_Pilot,2022.1.3,Win32,60.09615385,62c50e9c1127f2cd403a315f,0,86,86,2,1,twoone,,,,,,,,,,,,,,,,,,,,,,,,,,,,,,,,,,,,,,,,,,,,,,,,,,,,,,,,,,,,,,,,,,,,,,,,,,,,,,,,,,,,,,,,,,,,,,,,,,,,,,,,,,,,,,,,,,,,,,,,,,,,,,,,,,,,,,,,,,,,,,,,,,,,,,,,,,,,
,,,,,,614d4623077785a6f3975133,62c53918824ba9072574f5a4,2022-07-06_02h26.53.633,Colour_Asymmetry_Pilot,2022.1.3,Win32,60.09615385,62c50e9c1127f2cd403a315f,0,87,87,143,1,fourthree,,,,,,,,,,,,,,,,,,,,,,,,,,,,,,,,,,,,,,,,,,,,,,,,,,,,,,,,,,,,,,,,,,,,,,,,,,,,,,,,,,,,,,,,,,,,,,,,,,,,,,,,,,,,,,,,,,,,,,,,,,,,,,,,,,,,,,,,,,,,,,,,,,,,,,,,,,,,
,,,,,,614d4623077785a6f3975133,62c53918824ba9072574f5a4,2022-07-06_02h26.53.633,Colour_Asymmetry_Pilot,2022.1.3,Win32,60.09615385,62c50e9c1127f2cd403a315f,0,88,88,10,1,twoone,,,,,,,,,,,,,,,,,,,,,,,,,,,,,,,,,,,,,,,,,,,,,,,,,,,,,,,,,,,,,,,,,,,,,,,,,,,,,,,,,,,,,,,,,,,,,,,,,,,,,,,,,,,,,,,,,,,,,,,,,,,,,,,,,,,,,,,,,,,,,,,,,,,,,,,,,,,,
,,,,,,614d4623077785a6f3975133,62c53918824ba9072574f5a4,2022-07-06_02h26.53.633,Colour_Asymmetry_Pilot,2022.1.3,Win32,60.09615385,62c50e9c1127f2cd403a315f,0,89,89,134,1,fourtwo,,,,,,,,,,,,,,,,,,,,,,,,,,,,,,,,,,,,,,,,,,,,,,,,,,,,,,,,,,,,,,,,,,,,,,,,,,,,,,,,,,,,,,,,,,,,,,,,,,,,,,,,,,,,,,,,,,,,,,,,,,,,,,,,,,,,,,,,,,,,,,,,,,,,,,,,,,,,
,,,,,,614d4623077785a6f3975133,62c53918824ba9072574f5a4,2022-07-06_02h26.53.633,Colour_Asymmetry_Pilot,2022.1.3,Win32,60.09615385,62c50e9c1127f2cd403a315f,0,90,90,56,1,onetwo,,,,,,,,,,,,,,,,,,,,,,,,,,,,,,,,,,,,,,,,,,,,,,,,,,,,,,,,,,,,,,,,,,,,,,,,,,,,,,,,,,,,,,,,,,,,,,,,,,,,,,,,,,,,,,,,,,,,,,,,,,,,,,,,,,,,,,,,,,,,,,,,,,,,,,,,,,,,
,,,,,,614d4623077785a6f3975133,62c53918824ba9072574f5a4,2022-07-06_02h26.53.633,Colour_Asymmetry_Pilot,2022.1.3,Win32,60.09615385,62c50e9c1127f2cd403a315f,0,91,91,140,1,threeone,,,,,,,,,,,,,,,,,,,,,,,,,,,,,,,,,,,,,,,,,,,,,,,,,,,,,,,,,,,,,,,,,,,,,,,,,,,,,,,,,,,,,,,,,,,,,,,,,,,,,,,,,,,,,,,,,,,,,,,,,,,,,,,,,,,,,,,,,,,,,,,,,,,,,,,,,,,,
,,,,,,614d4623077785a6f3975133,62c53918824ba9072574f5a4,2022-07-06_02h26.53.633,Colour_Asymmetry_Pilot,2022.1.3,Win32,60.09615385,62c50e9c1127f2cd403a315f,0,92,92,27,1,twofour,,,,,,,,,,,,,,,,,,,,,,,,,,,,,,,,,,,,,,,,,,,,,,,,,,,,,,,,,,,,,,,,,,,,,,,,,,,,,,,,,,,,,,,,,,,,,,,,,,,,,,,,,,,,,,,,,,,,,,,,,,,,,,,,,,,,,,,,,,,,,,,,,,,,,,,,,,,,
,,,,,,614d4623077785a6f3975133,62c53918824ba9072574f5a4,2022-07-06_02h26.53.633,Colour_Asymmetry_Pilot,2022.1.3,Win32,60.09615385,62c50e9c1127f2cd403a315f,0,93,93,52,1,threeone,,,,,,,,,,,,,,,,,,,,,,,,,,,,,,,,,,,,,,,,,,,,,,,,,,,,,,,,,,,,,,,,,,,,,,,,,,,,,,,,,,,,,,,,,,,,,,,,,,,,,,,,,,,,,,,,,,,,,,,,,,,,,,,,,,,,,,,,,,,,,,,,,,,,,,,,,,,,
,,,,,,614d4623077785a6f3975133,62c53918824ba9072574f5a4,2022-07-06_02h26.53.633,Colour_Asymmetry_Pilot,2022.1.3,Win32,60.09615385,62c50e9c1127f2cd403a315f,0,94,94,73,1,onethree,,,,,,,,,,,,,,,,,,,,,,,,,,,,,,,,,,,,,,,,,,,,,,,,,,,,,,,,,,,,,,,,,,,,,,,,,,,,,,,,,,,,,,,,,,,,,,,,,,,,,,,,,,,,,,,,,,,,,,,,,,,,,,,,,,,,,,,,,,,,,,,,,,,,,,,,,,,,
,,,,,,614d4623077785a6f3975133,62c53918824ba9072574f5a4,2022-07-06_02h26.53.633,Colour_Asymmetry_Pilot,2022.1.3,Win32,60.09615385,62c50e9c1127f2cd403a315f,0,95,95,50,1,twoone,,,,,,,,,,,,,,,,,,,,,,,,,,,,,,,,,,,,,,,,,,,,,,,,,,,,,,,,,,,,,,,,,,,,,,,,,,,,,,,,,,,,,,,,,,,,,,,,,,,,,,,,,,,,,,,,,,,,,,,,,,,,,,,,,,,,,,,,,,,,,,,,,,,,,,,,,,,,
,,,,,,614d4623077785a6f3975133,62c53918824ba9072574f5a4,2022-07-06_02h26.53.633,Colour_Asymmetry_Pilot,2022.1.3,Win32,60.09615385,62c50e9c1127f2cd403a315f,0,96,96,101,1,threefour,,,,,,,,,,,,,,,,,,,,,,,,,,,,,,,,,,,,,,,,,,,,,,,,,,,,,,,,,,,,,,,,,,,,,,,,,,,,,,,,,,,,,,,,,,,,,,,,,,,,,,,,,,,,,,,,,,,,,,,,,,,,,,,,,,,,,,,,,,,,,,,,,,,,,,,,,,,,
,,,,,,614d4623077785a6f3975133,62c53918824ba9072574f5a4,2022-07-06_02h26.53.633,Colour_Asymmetry_Pilot,2022.1.3,Win32,60.09615385,62c50e9c1127f2cd403a315f,0,97,97,119,1,fourthree,,,,,,,,,,,,,,,,,,,,,,,,,,,,,,,,,,,,,,,,,,,,,,,,,,,,,,,,,,,,,,,,,,,,,,,,,,,,,,,,,,,,,,,,,,,,,,,,,,,,,,,,,,,,,,,,,,,,,,,,,,,,,,,,,,,,,,,,,,,,,,,,,,,,,,,,,,,,
,,,,,,614d4623077785a6f3975133,62c53918824ba9072574f5a4,2022-07-06_02h26.53.633,Colour_Asymmetry_Pilot,2022.1.3,Win32,60.09615385,62c50e9c1127f2cd403a315f,0,98,98,150,1,fourtwo,,,,,,,,,,,,,,,,,,,,,,,,,,,,,,,,,,,,,,,,,,,,,,,,,,,,,,,,,,,,,,,,,,,,,,,,,,,,,,,,,,,,,,,,,,,,,,,,,,,,,,,,,,,,,,,,,,,,,,,,,,,,,,,,,,,,,,,,,,,,,,,,,,,,,,,,,,,,
,,,,,,614d4623077785a6f3975133,62c53918824ba9072574f5a4,2022-07-06_02h26.53.633,Colour_Asymmetry_Pilot,2022.1.3,Win32,60.09615385,62c50e9c1127f2cd403a315f,0,99,99,142,1,fourtwo,,,,,,,,,,,,,,,,,,,,,,,,,,,,,,,,,,,,,,,,,,,,,,,,,,,,,,,,,,,,,,,,,,,,,,,,,,,,,,,,,,,,,,,,,,,,,,,,,,,,,,,,,,,,,,,,,,,,,,,,,,,,,,,,,,,,,,,,,,,,,,,,,,,,,,,,,,,,
,,,,,,614d4623077785a6f3975133,62c53918824ba9072574f5a4,2022-07-06_02h26.53.633,Colour_Asymmetry_Pilot,2022.1.3,Win32,60.09615385,62c50e9c1127f2cd403a315f,0,100,100,47,1,fourthree,,,,,,,,,,,,,,,,,,,,,,,,,,,,,,,,,,,,,,,,,,,,,,,,,,,,,,,,,,,,,,,,,,,,,,,,,,,,,,,,,,,,,,,,,,,,,,,,,,,,,,,,,,,,,,,,,,,,,,,,,,,,,,,,,,,,,,,,,,,,,,,,,,,,,,,,,,,,
,,,,,,614d4623077785a6f3975133,62c53918824ba9072574f5a4,2022-07-06_02h26.53.633,Colour_Asymmetry_Pilot,2022.1.3,Win32,60.09615385,62c50e9c1127f2cd403a315f,0,101,101,43,1,twofour,,,,,,,,,,,,,,,,,,,,,,,,,,,,,,,,,,,,,,,,,,,,,,,,,,,,,,,,,,,,,,,,,,,,,,,,,,,,,,,,,,,,,,,,,,,,,,,,,,,,,,,,,,,,,,,,,,,,,,,,,,,,,,,,,,,,,,,,,,,,,,,,,,,,,,,,,,,,
,,,,,,614d4623077785a6f3975133,62c53918824ba9072574f5a4,2022-07-06_02h26.53.633,Colour_Asymmetry_Pilot,2022.1.3,Win32,60.09615385,62c50e9c1127f2cd403a315f,0,102,102,28,1,threeone,,,,,,,,,,,,,,,,,,,,,,,,,,,,,,,,,,,,,,,,,,,,,,,,,,,,,,,,,,,,,,,,,,,,,,,,,,,,,,,,,,,,,,,,,,,,,,,,,,,,,,,,,,,,,,,,,,,,,,,,,,,,,,,,,,,,,,,,,,,,,,,,,,,,,,,,,,,,
,,,,,,614d4623077785a6f3975133,62c53918824ba9072574f5a4,2022-07-06_02h26.53.633,Colour_Asymmetry_Pilot,2022.1.3,Win32,60.09615385,62c50e9c1127f2cd403a315f,0,103,103,152,1,onetwo,,,,,,,,,,,,,,,,,,,,,,,,,,,,,,,,,,,,,,,,,,,,,,,,,,,,,,,,,,,,,,,,,,,,,,,,,,,,,,,,,,,,,,,,,,,,,,,,,,,,,,,,,,,,,,,,,,,,,,,,,,,,,,,,,,,,,,,,,,,,,,,,,,,,,,,,,,,,
,,,,,,614d4623077785a6f3975133,62c53918824ba9072574f5a4,2022-07-06_02h26.53.633,Colour_Asymmetry_Pilot,2022.1.3,Win32,60.09615385,62c50e9c1127f2cd403a315f,0,104,104,55,1,fourthree,,,,,,,,,,,,,,,,,,,,,,,,,,,,,,,,,,,,,,,,,,,,,,,,,,,,,,,,,,,,,,,,,,,,,,,,,,,,,,,,,,,,,,,,,,,,,,,,,,,,,,,,,,,,,,,,,,,,,,,,,,,,,,,,,,,,,,,,,,,,,,,,,,,,,,,,,,,,
,,,,,,614d4623077785a6f3975133,62c53918824ba9072574f5a4,2022-07-06_02h26.53.633,Colour_Asymmetry_Pilot,2022.1.3,Win32,60.09615385,62c50e9c1127f2cd403a315f,0,105,105,98,1,twoone,,,,,,,,,,,,,,,,,,,,,,,,,,,,,,,,,,,,,,,,,,,,,,,,,,,,,,,,,,,,,,,,,,,,,,,,,,,,,,,,,,,,,,,,,,,,,,,,,,,,,,,,,,,,,,,,,,,,,,,,,,,,,,,,,,,,,,,,,,,,,,,,,,,,,,,,,,,,
,,,,,,614d4623077785a6f3975133,62c53918824ba9072574f5a4,2022-07-06_02h26.53.633,Colour_Asymmetry_Pilot,2022.1.3,Win32,60.09615385,62c50e9c1127f2cd403a315f,0,106,106,128,1,onetwo,,,,,,,,,,,,,,,,,,,,,,,,,,,,,,,,,,,,,,,,,,,,,,,,,,,,,,,,,,,,,,,,,,,,,,,,,,,,,,,,,,,,,,,,,,,,,,,,,,,,,,,,,,,,,,,,,,,,,,,,,,,,,,,,,,,,,,,,,,,,,,,,,,,,,,,,,,,,
,,,,,,614d4623077785a6f3975133,62c53918824ba9072574f5a4,2022-07-06_02h26.53.633,Colour_Asymmetry_Pilot,2022.1.3,Win32,60.09615385,62c50e9c1127f2cd403a315f,0,107,107,160,1,onetwo,,,,,,,,,,,,,,,,,,,,,,,,,,,,,,,,,,,,,,,,,,,,,,,,,,,,,,,,,,,,,,,,,,,,,,,,,,,,,,,,,,,,,,,,,,,,,,,,,,,,,,,,,,,,,,,,,,,,,,,,,,,,,,,,,,,,,,,,,,,,,,,,,,,,,,,,,,,,
,,,,,,614d4623077785a6f3975133,62c53918824ba9072574f5a4,2022-07-06_02h26.53.633,Colour_Asymmetry_Pilot,2022.1.3,Win32,60.09615385,62c50e9c1127f2cd403a315f,0,108,108,33,1,onethree,,,,,,,,,,,,,,,,,,,,,,,,,,,,,,,,,,,,,,,,,,,,,,,,,,,,,,,,,,,,,,,,,,,,,,,,,,,,,,,,,,,,,,,,,,,,,,,,,,,,,,,,,,,,,,,,,,,,,,,,,,,,,,,,,,,,,,,,,,,,,,,,,,,,,,,,,,,,
,,,,,,614d4623077785a6f3975133,62c53918824ba9072574f5a4,2022-07-06_02h26.53.633,Colour_Asymmetry_Pilot,2022.1.3,Win32,60.09615385,62c50e9c1127f2cd403a315f,0,109,109,155,1,twofour,,,,,,,,,,,,,,,,,,,,,,,,,,,,,,,,,,,,,,,,,,,,,,,,,,,,,,,,,,,,,,,,,,,,,,,,,,,,,,,,,,,,,,,,,,,,,,,,,,,,,,,,,,,,,,,,,,,,,,,,,,,,,,,,,,,,,,,,,,,,,,,,,,,,,,,,,,,,
,,,,,,614d4623077785a6f3975133,62c53918824ba9072574f5a4,2022-07-06_02h26.53.633,Colour_Asymmetry_Pilot,2022.1.3,Win32,60.09615385,62c50e9c1127f2cd403a315f,0,110,110,12,1,threeone,,,,,,,,,,,,,,,,,,,,,,,,,,,,,,,,,,,,,,,,,,,,,,,,,,,,,,,,,,,,,,,,,,,,,,,,,,,,,,,,,,,,,,,,,,,,,,,,,,,,,,,,,,,,,,,,,,,,,,,,,,,,,,,,,,,,,,,,,,,,,,,,,,,,,,,,,,,,
,,,,,,614d4623077785a6f3975133,62c53918824ba9072574f5a4,2022-07-06_02h26.53.633,Colour_Asymmetry_Pilot,2022.1.3,Win32,60.09615385,62c50e9c1127f2cd403a315f,0,111,111,20,1,threeone,,,,,,,,,,,,,,,,,,,,,,,,,,,,,,,,,,,,,,,,,,,,,,,,,,,,,,,,,,,,,,,,,,,,,,,,,,,,,,,,,,,,,,,,,,,,,,,,,,,,,,,,,,,,,,,,,,,,,,,,,,,,,,,,,,,,,,,,,,,,,,,,,,,,,,,,,,,,
,,,,,,614d4623077785a6f3975133,62c53918824ba9072574f5a4,2022-07-06_02h26.53.633,Colour_Asymmetry_Pilot,2022.1.3,Win32,60.09615385,62c50e9c1127f2cd403a315f,0,112,112,34,1,twoone,,,,,,,,,,,,,,,,,,,,,,,,,,,,,,,,,,,,,,,,,,,,,,,,,,,,,,,,,,,,,,,,,,,,,,,,,,,,,,,,,,,,,,,,,,,,,,,,,,,,,,,,,,,,,,,,,,,,,,,,,,,,,,,,,,,,,,,,,,,,,,,,,,,,,,,,,,,,
,,,,,,614d4623077785a6f3975133,62c53918824ba9072574f5a4,2022-07-06_02h26.53.633,Colour_Asymmetry_Pilot,2022.1.3,Win32,60.09615385,62c50e9c1127f2cd403a315f,0,113,113,124,1,threeone,,,,,,,,,,,,,,,,,,,,,,,,,,,,,,,,,,,,,,,,,,,,,,,,,,,,,,,,,,,,,,,,,,,,,,,,,,,,,,,,,,,,,,,,,,,,,,,,,,,,,,,,,,,,,,,,,,,,,,,,,,,,,,,,,,,,,,,,,,,,,,,,,,,,,,,,,,,,
,,,,,,614d4623077785a6f3975133,62c53918824ba9072574f5a4,2022-07-06_02h26.53.633,Colour_Asymmetry_Pilot,2022.1.3,Win32,60.09615385,62c50e9c1127f2cd403a315f,0,114,114,57,1,onethree,,,,,,,,,,,,,,,,,,,,,,,,,,,,,,,,,,,,,,,,,,,,,,,,,,,,,,,,,,,,,,,,,,,,,,,,,,,,,,,,,,,,,,,,,,,,,,,,,,,,,,,,,,,,,,,,,,,,,,,,,,,,,,,,,,,,,,,,,,,,,,,,,,,,,,,,,,,,
,,,,,,614d4623077785a6f3975133,62c53918824ba9072574f5a4,2022-07-06_02h26.53.633,Colour_Asymmetry_Pilot,2022.1.3,Win32,60.09615385,62c50e9c1127f2cd403a315f,0,115,115,31,1,fourthree,,,,,,,,,,,,,,,,,,,,,,,,,,,,,,,,,,,,,,,,,,,,,,,,,,,,,,,,,,,,,,,,,,,,,,,,,,,,,,,,,,,,,,,,,,,,,,,,,,,,,,,,,,,,,,,,,,,,,,,,,,,,,,,,,,,,,,,,,,,,,,,,,,,,,,,,,,,,
,,,,,,614d4623077785a6f3975133,62c53918824ba9072574f5a4,2022-07-06_02h26.53.633,Colour_Asymmetry_Pilot,2022.1.3,Win32,60.09615385,62c50e9c1127f2cd403a315f,0,116,116,60,1,threeone,,,,,,,,,,,,,,,,,,,,,,,,,,,,,,,,,,,,,,,,,,,,,,,,,,,,,,,,,,,,,,,,,,,,,,,,,,,,,,,,,,,,,,,,,,,,,,,,,,,,,,,,,,,,,,,,,,,,,,,,,,,,,,,,,,,,,,,,,,,,,,,,,,,,,,,,,,,,
,,,,,,614d4623077785a6f3975133,62c53918824ba9072574f5a4,2022-07-06_02h26.53.633,Colour_Asymmetry_Pilot,2022.1.3,Win32,60.09615385,62c50e9c1127f2cd403a315f,0,117,117,5,1,threefour,,,,,,,,,,,,,,,,,,,,,,,,,,,,,,,,,,,,,,,,,,,,,,,,,,,,,,,,,,,,,,,,,,,,,,,,,,,,,,,,,,,,,,,,,,,,,,,,,,,,,,,,,,,,,,,,,,,,,,,,,,,,,,,,,,,,,,,,,,,,,,,,,,,,,,,,,,,,
,,,,,,614d4623077785a6f3975133,62c53918824ba9072574f5a4,2022-07-06_02h26.53.633,Colour_Asymmetry_Pilot,2022.1.3,Win32,60.09615385,62c50e9c1127f2cd403a315f,0,118,118,125,1,threefour,,,,,,,,,,,,,,,,,,,,,,,,,,,,,,,,,,,,,,,,,,,,,,,,,,,,,,,,,,,,,,,,,,,,,,,,,,,,,,,,,,,,,,,,,,,,,,,,,,,,,,,,,,,,,,,,,,,,,,,,,,,,,,,,,,,,,,,,,,,,,,,,,,,,,,,,,,,,
,,,,,,614d4623077785a6f3975133,62c53918824ba9072574f5a4,2022-07-06_02h26.53.633,Colour_Asymmetry_Pilot,2022.1.3,Win32,60.09615385,62c50e9c1127f2cd403a315f,0,119,119,139,1,twofour,,,,,,,,,,,,,,,,,,,,,,,,,,,,,,,,,,,,,,,,,,,,,,,,,,,,,,,,,,,,,,,,,,,,,,,,,,,,,,,,,,,,,,,,,,,,,,,,,,,,,,,,,,,,,,,,,,,,,,,,,,,,,,,,,,,,,,,,,,,,,,,,,,,,,,,,,,,,
,,,,,,614d4623077785a6f3975133,62c53918824ba9072574f5a4,2022-07-06_02h26.53.633,Colour_Asymmetry_Pilot,2022.1.3,Win32,60.09615385,62c50e9c1127f2cd403a315f,0,120,120,113,1,onethree,,,,,,,,,,,,,,,,,,,,,,,,,,,,,,,,,,,,,,,,,,,,,,,,,,,,,,,,,,,,,,,,,,,,,,,,,,,,,,,,,,,,,,,,,,,,,,,,,,,,,,,,,,,,,,,,,,,,,,,,,,,,,,,,,,,,,,,,,,,,,,,,,,,,,,,,,,,,
,,,,,,614d4623077785a6f3975133,62c53918824ba9072574f5a4,2022-07-06_02h26.53.633,Colour_Asymmetry_Pilot,2022.1.3,Win32,60.09615385,62c50e9c1127f2cd403a315f,0,121,121,51,1,twofour,,,,,,,,,,,,,,,,,,,,,,,,,,,,,,,,,,,,,,,,,,,,,,,,,,,,,,,,,,,,,,,,,,,,,,,,,,,,,,,,,,,,,,,,,,,,,,,,,,,,,,,,,,,,,,,,,,,,,,,,,,,,,,,,,,,,,,,,,,,,,,,,,,,,,,,,,,,,
,,,,,,614d4623077785a6f3975133,62c53918824ba9072574f5a4,2022-07-06_02h26.53.633,Colour_Asymmetry_Pilot,2022.1.3,Win32,60.09615385,62c50e9c1127f2cd403a315f,0,122,122,62,1,fourtwo,,,,,,,,,,,,,,,,,,,,,,,,,,,,,,,,,,,,,,,,,,,,,,,,,,,,,,,,,,,,,,,,,,,,,,,,,,,,,,,,,,,,,,,,,,,,,,,,,,,,,,,,,,,,,,,,,,,,,,,,,,,,,,,,,,,,,,,,,,,,,,,,,,,,,,,,,,,,
,,,,,,614d4623077785a6f3975133,62c53918824ba9072574f5a4,2022-07-06_02h26.53.633,Colour_Asymmetry_Pilot,2022.1.3,Win32,60.09615385,62c50e9c1127f2cd403a315f,0,123,123,107,1,twofour,,,,,,,,,,,,,,,,,,,,,,,,,,,,,,,,,,,,,,,,,,,,,,,,,,,,,,,,,,,,,,,,,,,,,,,,,,,,,,,,,,,,,,,,,,,,,,,,,,,,,,,,,,,,,,,,,,,,,,,,,,,,,,,,,,,,,,,,,,,,,,,,,,,,,,,,,,,,
,,,,,,614d4623077785a6f3975133,62c53918824ba9072574f5a4,2022-07-06_02h26.53.633,Colour_Asymmetry_Pilot,2022.1.3,Win32,60.09615385,62c50e9c1127f2cd403a315f,0,124,124,112,1,onetwo,,,,,,,,,,,,,,,,,,,,,,,,,,,,,,,,,,,,,,,,,,,,,,,,,,,,,,,,,,,,,,,,,,,,,,,,,,,,,,,,,,,,,,,,,,,,,,,,,,,,,,,,,,,,,,,,,,,,,,,,,,,,,,,,,,,,,,,,,,,,,,,,,,,,,,,,,,,,
,,,,,,614d4623077785a6f3975133,62c53918824ba9072574f5a4,2022-07-06_02h26.53.633,Colour_Asymmetry_Pilot,2022.1.3,Win32,60.09615385,62c50e9c1127f2cd403a315f,0,125,125,105,1,onethree,,,,,,,,,,,,,,,,,,,,,,,,,,,,,,,,,,,,,,,,,,,,,,,,,,,,,,,,,,,,,,,,,,,,,,,,,,,,,,,,,,,,,,,,,,,,,,,,,,,,,,,,,,,,,,,,,,,,,,,,,,,,,,,,,,,,,,,,,,,,,,,,,,,,,,,,,,,,
,,,,,,614d4623077785a6f3975133,62c53918824ba9072574f5a4,2022-07-06_02h26.53.633,Colour_Asymmetry_Pilot,2022.1.3,Win32,60.09615385,62c50e9c1127f2cd403a315f,0,126,126,91,1,twofour,,,,,,,,,,,,,,,,,,,,,,,,,,,,,,,,,,,,,,,,,,,,,,,,,,,,,,,,,,,,,,,,,,,,,,,,,,,,,,,,,,,,,,,,,,,,,,,,,,,,,,,,,,,,,,,,,,,,,,,,,,,,,,,,,,,,,,,,,,,,,,,,,,,,,,,,,,,,
,,,,,,614d4623077785a6f3975133,62c53918824ba9072574f5a4,2022-07-06_02h26.53.633,Colour_Asymmetry_Pilot,2022.1.3,Win32,60.09615385,62c50e9c1127f2cd403a315f,0,127,127,78,1,fourtwo,,,,,,,,,,,,,,,,,,,,,,,,,,,,,,,,,,,,,,,,,,,,,,,,,,,,,,,,,,,,,,,,,,,,,,,,,,,,,,,,,,,,,,,,,,,,,,,,,,,,,,,,,,,,,,,,,,,,,,,,,,,,,,,,,,,,,,,,,,,,,,,,,,,,,,,,,,,,
,,,,,,614d4623077785a6f3975133,62c53918824ba9072574f5a4,2022-07-06_02h26.53.633,Colour_Asymmetry_Pilot,2022.1.3,Win32,60.09615385,62c50e9c1127f2cd403a315f,0,128,128,18,1,twoone,,,,,,,,,,,,,,,,,,,,,,,,,,,,,,,,,,,,,,,,,,,,,,,,,,,,,,,,,,,,,,,,,,,,,,,,,,,,,,,,,,,,,,,,,,,,,,,,,,,,,,,,,,,,,,,,,,,,,,,,,,,,,,,,,,,,,,,,,,,,,,,,,,,,,,,,,,,,
,,,,,,614d4623077785a6f3975133,62c53918824ba9072574f5a4,2022-07-06_02h26.53.633,Colour_Asymmetry_Pilot,2022.1.3,Win32,60.09615385,62c50e9c1127f2cd403a315f,0,129,129,100,1,threeone,,,,,,,,,,,,,,,,,,,,,,,,,,,,,,,,,,,,,,,,,,,,,,,,,,,,,,,,,,,,,,,,,,,,,,,,,,,,,,,,,,,,,,,,,,,,,,,,,,,,,,,,,,,,,,,,,,,,,,,,,,,,,,,,,,,,,,,,,,,,,,,,,,,,,,,,,,,,
,,,,,,614d4623077785a6f3975133,62c53918824ba9072574f5a4,2022-07-06_02h26.53.633,Colour_Asymmetry_Pilot,2022.1.3,Win32,60.09615385,62c50e9c1127f2cd403a315f,0,130,130,117,1,threefour,,,,,,,,,,,,,,,,,,,,,,,,,,,,,,,,,,,,,,,,,,,,,,,,,,,,,,,,,,,,,,,,,,,,,,,,,,,,,,,,,,,,,,,,,,,,,,,,,,,,,,,,,,,,,,,,,,,,,,,,,,,,,,,,,,,,,,,,,,,,,,,,,,,,,,,,,,,,
,,,,,,614d4623077785a6f3975133,62c53918824ba9072574f5a4,2022-07-06_02h26.53.633,Colour_Asymmetry_Pilot,2022.1.3,Win32,60.09615385,62c50e9c1127f2cd403a315f,0,131,131,66,1,twoone,,,,,,,,,,,,,,,,,,,,,,,,,,,,,,,,,,,,,,,,,,,,,,,,,,,,,,,,,,,,,,,,,,,,,,,,,,,,,,,,,,,,,,,,,,,,,,,,,,,,,,,,,,,,,,,,,,,,,,,,,,,,,,,,,,,,,,,,,,,,,,,,,,,,,,,,,,,,
,,,,,,614d4623077785a6f3975133,62c53918824ba9072574f5a4,2022-07-06_02h26.53.633,Colour_Asymmetry_Pilot,2022.1.3,Win32,60.09615385,62c50e9c1127f2cd403a315f,0,132,132,29,1,threefour,,,,,,,,,,,,,,,,,,,,,,,,,,,,,,,,,,,,,,,,,,,,,,,,,,,,,,,,,,,,,,,,,,,,,,,,,,,,,,,,,,,,,,,,,,,,,,,,,,,,,,,,,,,,,,,,,,,,,,,,,,,,,,,,,,,,,,,,,,,,,,,,,,,,,,,,,,,,
,,,,,,614d4623077785a6f3975133,62c53918824ba9072574f5a4,2022-07-06_02h26.53.633,Colour_Asymmetry_Pilot,2022.1.3,Win32,60.09615385,62c50e9c1127f2cd403a315f,0,133,133,157,1,threefour,,,,,,,,,,,,,,,,,,,,,,,,,,,,,,,,,,,,,,,,,,,,,,,,,,,,,,,,,,,,,,,,,,,,,,,,,,,,,,,,,,,,,,,,,,,,,,,,,,,,,,,,,,,,,,,,,,,,,,,,,,,,,,,,,,,,,,,,,,,,,,,,,,,,,,,,,,,,
,,,,,,614d4623077785a6f3975133,62c53918824ba9072574f5a4,2022-07-06_02h26.53.633,Colour_Asymmetry_Pilot,2022.1.3,Win32,60.09615385,62c50e9c1127f2cd403a315f,0,134,134,115,1,twofour,,,,,,,,,,,,,,,,,,,,,,,,,,,,,,,,,,,,,,,,,,,,,,,,,,,,,,,,,,,,,,,,,,,,,,,,,,,,,,,,,,,,,,,,,,,,,,,,,,,,,,,,,,,,,,,,,,,,,,,,,,,,,,,,,,,,,,,,,,,,,,,,,,,,,,,,,,,,
,,,,,,614d4623077785a6f3975133,62c53918824ba9072574f5a4,2022-07-06_02h26.53.633,Colour_Asymmetry_Pilot,2022.1.3,Win32,60.09615385,62c50e9c1127f2cd403a315f,0,135,135,87,1,fourthree,,,,,,,,,,,,,,,,,,,,,,,,,,,,,,,,,,,,,,,,,,,,,,,,,,,,,,,,,,,,,,,,,,,,,,,,,,,,,,,,,,,,,,,,,,,,,,,,,,,,,,,,,,,,,,,,,,,,,,,,,,,,,,,,,,,,,,,,,,,,,,,,,,,,,,,,,,,,
,,,,,,614d4623077785a6f3975133,62c53918824ba9072574f5a4,2022-07-06_02h26.53.633,Colour_Asymmetry_Pilot,2022.1.3,Win32,60.09615385,62c50e9c1127f2cd403a315f,0,136,136,72,1,onetwo,,,,,,,,,,,,,,,,,,,,,,,,,,,,,,,,,,,,,,,,,,,,,,,,,,,,,,,,,,,,,,,,,,,,,,,,,,,,,,,,,,,,,,,,,,,,,,,,,,,,,,,,,,,,,,,,,,,,,,,,,,,,,,,,,,,,,,,,,,,,,,,,,,,,,,,,,,,,
,,,,,,614d4623077785a6f3975133,62c53918824ba9072574f5a4,2022-07-06_02h26.53.633,Colour_Asymmetry_Pilot,2022.1.3,Win32,60.09615385,62c50e9c1127f2cd403a315f,0,137,137,37,1,threefour,,,,,,,,,,,,,,,,,,,,,,,,,,,,,,,,,,,,,,,,,,,,,,,,,,,,,,,,,,,,,,,,,,,,,,,,,,,,,,,,,,,,,,,,,,,,,,,,,,,,,,,,,,,,,,,,,,,,,,,,,,,,,,,,,,,,,,,,,,,,,,,,,,,,,,,,,,,,
,,,,,,614d4623077785a6f3975133,62c53918824ba9072574f5a4,2022-07-06_02h26.53.633,Colour_Asymmetry_Pilot,2022.1.3,Win32,60.09615385,62c50e9c1127f2cd403a315f,0,138,138,83,1,twofour,,,,,,,,,,,,,,,,,,,,,,,,,,,,,,,,,,,,,,,,,,,,,,,,,,,,,,,,,,,,,,,,,,,,,,,,,,,,,,,,,,,,,,,,,,,,,,,,,,,,,,,,,,,,,,,,,,,,,,,,,,,,,,,,,,,,,,,,,,,,,,,,,,,,,,,,,,,,
,,,,,,614d4623077785a6f3975133,62c53918824ba9072574f5a4,2022-07-06_02h26.53.633,Colour_Asymmetry_Pilot,2022.1.3,Win32,60.09615385,62c50e9c1127f2cd403a315f,0,139,139,121,1,onethree,,,,,,,,,,,,,,,,,,,,,,,,,,,,,,,,,,,,,,,,,,,,,,,,,,,,,,,,,,,,,,,,,,,,,,,,,,,,,,,,,,,,,,,,,,,,,,,,,,,,,,,,,,,,,,,,,,,,,,,,,,,,,,,,,,,,,,,,,,,,,,,,,,,,,,,,,,,,
,,,,,,614d4623077785a6f3975133,62c53918824ba9072574f5a4,2022-07-06_02h26.53.633,Colour_Asymmetry_Pilot,2022.1.3,Win32,60.09615385,62c50e9c1127f2cd403a315f,0,140,140,103,1,fourthree,,,,,,,,,,,,,,,,,,,,,,,,,,,,,,,,,,,,,,,,,,,,,,,,,,,,,,,,,,,,,,,,,,,,,,,,,,,,,,,,,,,,,,,,,,,,,,,,,,,,,,,,,,,,,,,,,,,,,,,,,,,,,,,,,,,,,,,,,,,,,,,,,,,,,,,,,,,,
,,,,,,614d4623077785a6f3975133,62c53918824ba9072574f5a4,2022-07-06_02h26.53.633,Colour_Asymmetry_Pilot,2022.1.3,Win32,60.09615385,62c50e9c1127f2cd403a315f,0,141,141,77,1,threefour,,,,,,,,,,,,,,,,,,,,,,,,,,,,,,,,,,,,,,,,,,,,,,,,,,,,,,,,,,,,,,,,,,,,,,,,,,,,,,,,,,,,,,,,,,,,,,,,,,,,,,,,,,,,,,,,,,,,,,,,,,,,,,,,,,,,,,,,,,,,,,,,,,,,,,,,,,,,
,,,,,,614d4623077785a6f3975133,62c53918824ba9072574f5a4,2022-07-06_02h26.53.633,Colour_Asymmetry_Pilot,2022.1.3,Win32,60.09615385,62c50e9c1127f2cd403a315f,0,142,142,84,1,threeone,,,,,,,,,,,,,,,,,,,,,,,,,,,,,,,,,,,,,,,,,,,,,,,,,,,,,,,,,,,,,,,,,,,,,,,,,,,,,,,,,,,,,,,,,,,,,,,,,,,,,,,,,,,,,,,,,,,,,,,,,,,,,,,,,,,,,,,,,,,,,,,,,,,,,,,,,,,,
,,,,,,614d4623077785a6f3975133,62c53918824ba9072574f5a4,2022-07-06_02h26.53.633,Colour_Asymmetry_Pilot,2022.1.3,Win32,60.09615385,62c50e9c1127f2cd403a315f,0,143,143,158,1,fourtwo,,,,,,,,,,,,,,,,,,,,,,,,,,,,,,,,,,,,,,,,,,,,,,,,,,,,,,,,,,,,,,,,,,,,,,,,,,,,,,,,,,,,,,,,,,,,,,,,,,,,,,,,,,,,,,,,,,,,,,,,,,,,,,,,,,,,,,,,,,,,,,,,,,,,,,,,,,,,
,,,,,,614d4623077785a6f3975133,62c53918824ba9072574f5a4,2022-07-06_02h26.53.633,Colour_Asymmetry_Pilot,2022.1.3,Win32,60.09615385,62c50e9c1127f2cd403a315f,0,144,144,36,1,threeone,,,,,,,,,,,,,,,,,,,,,,,,,,,,,,,,,,,,,,,,,,,,,,,,,,,,,,,,,,,,,,,,,,,,,,,,,,,,,,,,,,,,,,,,,,,,,,,,,,,,,,,,,,,,,,,,,,,,,,,,,,,,,,,,,,,,,,,,,,,,,,,,,,,,,,,,,,,,
,,,,,,614d4623077785a6f3975133,62c53918824ba9072574f5a4,2022-07-06_02h26.53.633,Colour_Asymmetry_Pilot,2022.1.3,Win32,60.09615385,62c50e9c1127f2cd403a315f,0,145,145,26,1,twoone,,,,,,,,,,,,,,,,,,,,,,,,,,,,,,,,,,,,,,,,,,,,,,,,,,,,,,,,,,,,,,,,,,,,,,,,,,,,,,,,,,,,,,,,,,,,,,,,,,,,,,,,,,,,,,,,,,,,,,,,,,,,,,,,,,,,,,,,,,,,,,,,,,,,,,,,,,,,
,,,,,,614d4623077785a6f3975133,62c53918824ba9072574f5a4,2022-07-06_02h26.53.633,Colour_Asymmetry_Pilot,2022.1.3,Win32,60.09615385,62c50e9c1127f2cd403a315f,0,146,146,85,1,threefour,,,,,,,,,,,,,,,,,,,,,,,,,,,,,,,,,,,,,,,,,,,,,,,,,,,,,,,,,,,,,,,,,,,,,,,,,,,,,,,,,,,,,,,,,,,,,,,,,,,,,,,,,,,,,,,,,,,,,,,,,,,,,,,,,,,,,,,,,,,,,,,,,,,,,,,,,,,,
,,,,,,614d4623077785a6f3975133,62c53918824ba9072574f5a4,2022-07-06_02h26.53.633,Colour_Asymmetry_Pilot,2022.1.3,Win32,60.09615385,62c50e9c1127f2cd403a315f,0,147,147,25,1,onethree,,,,,,,,,,,,,,,,,,,,,,,,,,,,,,,,,,,,,,,,,,,,,,,,,,,,,,,,,,,,,,,,,,,,,,,,,,,,,,,,,,,,,,,,,,,,,,,,,,,,,,,,,,,,,,,,,,,,,,,,,,,,,,,,,,,,,,,,,,,,,,,,,,,,,,,,,,,,
,,,,,,614d4623077785a6f3975133,62c53918824ba9072574f5a4,2022-07-06_02h26.53.633,Colour_Asymmetry_Pilot,2022.1.3,Win32,60.09615385,62c50e9c1127f2cd403a315f,0,148,148,133,1,threefour,,,,,,,,,,,,,,,,,,,,,,,,,,,,,,,,,,,,,,,,,,,,,,,,,,,,,,,,,,,,,,,,,,,,,,,,,,,,,,,,,,,,,,,,,,,,,,,,,,,,,,,,,,,,,,,,,,,,,,,,,,,,,,,,,,,,,,,,,,,,,,,,,,,,,,,,,,,,
,,,,,,614d4623077785a6f3975133,62c53918824ba9072574f5a4,2022-07-06_02h26.53.633,Colour_Asymmetry_Pilot,2022.1.3,Win32,60.09615385,62c50e9c1127f2cd403a315f,0,149,149,54,1,fourtwo,,,,,,,,,,,,,,,,,,,,,,,,,,,,,,,,,,,,,,,,,,,,,,,,,,,,,,,,,,,,,,,,,,,,,,,,,,,,,,,,,,,,,,,,,,,,,,,,,,,,,,,,,,,,,,,,,,,,,,,,,,,,,,,,,,,,,,,,,,,,,,,,,,,,,,,,,,,,
,,,,,,614d4623077785a6f3975133,62c53918824ba9072574f5a4,2022-07-06_02h26.53.633,Colour_Asymmetry_Pilot,2022.1.3,Win32,60.09615385,62c50e9c1127f2cd403a315f,0,150,150,92,1,threeone,,,,,,,,,,,,,,,,,,,,,,,,,,,,,,,,,,,,,,,,,,,,,,,,,,,,,,,,,,,,,,,,,,,,,,,,,,,,,,,,,,,,,,,,,,,,,,,,,,,,,,,,,,,,,,,,,,,,,,,,,,,,,,,,,,,,,,,,,,,,,,,,,,,,,,,,,,,,
,,,,,,614d4623077785a6f3975133,62c53918824ba9072574f5a4,2022-07-06_02h26.53.633,Colour_Asymmetry_Pilot,2022.1.3,Win32,60.09615385,62c50e9c1127f2cd403a315f,0,151,151,126,1,fourtwo,,,,,,,,,,,,,,,,,,,,,,,,,,,,,,,,,,,,,,,,,,,,,,,,,,,,,,,,,,,,,,,,,,,,,,,,,,,,,,,,,,,,,,,,,,,,,,,,,,,,,,,,,,,,,,,,,,,,,,,,,,,,,,,,,,,,,,,,,,,,,,,,,,,,,,,,,,,,
,,,,,,614d4623077785a6f3975133,62c53918824ba9072574f5a4,2022-07-06_02h26.53.633,Colour_Asymmetry_Pilot,2022.1.3,Win32,60.09615385,62c50e9c1127f2cd403a315f,0,152,152,104,1,onetwo,,,,,,,,,,,,,,,,,,,,,,,,,,,,,,,,,,,,,,,,,,,,,,,,,,,,,,,,,,,,,,,,,,,,,,,,,,,,,,,,,,,,,,,,,,,,,,,,,,,,,,,,,,,,,,,,,,,,,,,,,,,,,,,,,,,,,,,,,,,,,,,,,,,,,,,,,,,,
,,,,,,614d4623077785a6f3975133,62c53918824ba9072574f5a4,2022-07-06_02h26.53.633,Colour_Asymmetry_Pilot,2022.1.3,Win32,60.09615385,62c50e9c1127f2cd403a315f,0,153,153,15,1,fourthree,,,,,,,,,,,,,,,,,,,,,,,,,,,,,,,,,,,,,,,,,,,,,,,,,,,,,,,,,,,,,,,,,,,,,,,,,,,,,,,,,,,,,,,,,,,,,,,,,,,,,,,,,,,,,,,,,,,,,,,,,,,,,,,,,,,,,,,,,,,,,,,,,,,,,,,,,,,,
,,,,,,614d4623077785a6f3975133,62c53918824ba9072574f5a4,2022-07-06_02h26.53.633,Colour_Asymmetry_Pilot,2022.1.3,Win32,60.09615385,62c50e9c1127f2cd403a315f,0,154,154,44,1,threeone,,,,,,,,,,,,,,,,,,,,,,,,,,,,,,,,,,,,,,,,,,,,,,,,,,,,,,,,,,,,,,,,,,,,,,,,,,,,,,,,,,,,,,,,,,,,,,,,,,,,,,,,,,,,,,,,,,,,,,,,,,,,,,,,,,,,,,,,,,,,,,,,,,,,,,,,,,,,
,,,,,,614d4623077785a6f3975133,62c53918824ba9072574f5a4,2022-07-06_02h26.53.633,Colour_Asymmetry_Pilot,2022.1.3,Win32,60.09615385,62c50e9c1127f2cd403a315f,0,155,155,42,1,twoone,,,,,,,,,,,,,,,,,,,,,,,,,,,,,,,,,,,,,,,,,,,,,,,,,,,,,,,,,,,,,,,,,,,,,,,,,,,,,,,,,,,,,,,,,,,,,,,,,,,,,,,,,,,,,,,,,,,,,,,,,,,,,,,,,,,,,,,,,,,,,,,,,,,,,,,,,,,,
,,,,,,614d4623077785a6f3975133,62c53918824ba9072574f5a4,2022-07-06_02h26.53.633,Colour_Asymmetry_Pilot,2022.1.3,Win32,60.09615385,62c50e9c1127f2cd403a315f,0,156,156,90,1,twoone,,,,,,,,,,,,,,,,,,,,,,,,,,,,,,,,,,,,,,,,,,,,,,,,,,,,,,,,,,,,,,,,,,,,,,,,,,,,,,,,,,,,,,,,,,,,,,,,,,,,,,,,,,,,,,,,,,,,,,,,,,,,,,,,,,,,,,,,,,,,,,,,,,,,,,,,,,,,
,,,,,,614d4623077785a6f3975133,62c53918824ba9072574f5a4,2022-07-06_02h26.53.633,Colour_Asymmetry_Pilot,2022.1.3,Win32,60.09615385,62c50e9c1127f2cd403a315f,0,157,157,106,1,twoone,,,,,,,,,,,,,,,,,,,,,,,,,,,,,,,,,,,,,,,,,,,,,,,,,,,,,,,,,,,,,,,,,,,,,,,,,,,,,,,,,,,,,,,,,,,,,,,,,,,,,,,,,,,,,,,,,,,,,,,,,,,,,,,,,,,,,,,,,,,,,,,,,,,,,,,,,,,,
,,,,,,614d4623077785a6f3975133,62c53918824ba9072574f5a4,2022-07-06_02h26.53.633,Colour_Asymmetry_Pilot,2022.1.3,Win32,60.09615385,62c50e9c1127f2cd403a315f,0,158,158,35,1,twofour,,,,,,,,,,,,,,,,,,,,,,,,,,,,,,,,,,,,,,,,,,,,,,,,,,,,,,,,,,,,,,,,,,,,,,,,,,,,,,,,,,,,,,,,,,,,,,,,,,,,,,,,,,,,,,,,,,,,,,,,,,,,,,,,,,,,,,,,,,,,,,,,,,,,,,,,,,,,
,,,,,,614d4623077785a6f3975133,62c53918824ba9072574f5a4,2022-07-06_02h26.53.633,Colour_Asymmetry_Pilot,2022.1.3,Win32,60.09615385,62c50e9c1127f2cd403a315f,0,159,159,86,1,fourtwo,,,,,,,,,,,,,,,,,,,,,,,,,,,,,,,,,,,,,,,,,,,,,,,,,,,,,,,,,,,,,,,,,,,,,,,,,,,,,,,,,,,,,,,,,,,,,,,,,,,,,,,,,,,,,,,,,,,,,,,,,,,,,,,,,,,,,,,,,,,,,,,,,,,,,,,,,,,,
,,,,,,614d4623077785a6f3975133,62c53918824ba9072574f5a4,2022-07-06_02h26.53.633,Colour_Asymmetry_Pilot,2022.1.3,Win32,60.09615385,62c50e9c1127f2cd403a315f,0,160,160,4,1,threeone,,,,,,,,,,,,,,,,,,,,,,,,,,,,,,,,,,,,,,,,,,,,,,,,,,,,,,,,,,,,,,,,,,,,,,,,,,,,,,,,,,,,,,,,,,,,,,,,,,,,,,,,,,,,,,,,,,,,,,,,,,,,,,,,,,,,,,,,,,,,,,,,,,,,,,,,,,,,
,,,,,,614d4623077785a6f3975133,62c53918824ba9072574f5a4,2022-07-06_02h26.53.633,Colour_Asymmetry_Pilot,2022.1.3,Win32,60.09615385,62c50e9c1127f2cd403a315f,0,161,161,96,1,onetwo,,,,,,,,,,,,,,,,,,,,,,,,,,,,,,,,,,,,,,,,,,,,,,,,,,,,,,,,,,,,,,,,,,,,,,,,,,,,,,,,,,,,,,,,,,,,,,,,,,,,,,,,,,,,,,,,,,,,,,,,,,,,,,,,,,,,,,,,,,,,,,,,,,,,,,,,,,,,
,,,,,,614d4623077785a6f3975133,62c53918824ba9072574f5a4,2022-07-06_02h26.53.633,Colour_Asymmetry_Pilot,2022.1.3,Win32,60.09615385,62c50e9c1127f2cd403a315f,,,,,,,space,2022.168,space,18.214,space,303.849,space,24.29,space,2.398,space,3.461,"[0.9842,0.7409999999999999,-0.6628000000000001]",twoone,"[0.6625999999999999,0.4980000000000002,-0.357]",1,8.094,34,-87,1,0,0,response3disk_5,-7,0,1,0,0,rectangle_8,-7,0,1,0,0,2,-7,0,1,0,0,0,0,0,0,1,,,,,,,,,,,,,,,,,,,,,,,,,,,,,,,,,,,,,,,,,,,,,,,,,,,,,,,,,,,,,,,,,,,,,,,,,,,,,,,,,,,,,,,,,,,,,,,,,,,,,,,,,,,,,,,
,,,,,,614d4623077785a6f3975133,62c53918824ba9072574f5a4,2022-07-06_02h26.53.633,Colour_Asymmetry_Pilot,2022.1.3,Win32,60.09615385,62c50e9c1127f2cd403a315f,,,,,,,,,,,,,,,,,,,"[0.05879999999999996,0.2784,0.5841999999999998]",twoone,"[-0.9766,-0.6472,0.07440000000000002]",1,2.065,31,-71,1,0,0,response3disk_5,-4,-3,1,0,0,rectangle_8,-4,-3,1,0,0,2,-4,-3,1,0,0,1,0,1,0,1,,,,,,,,,,,,,,,,,,,,,,,,,,,,,,,,,,,,,,,,,,,,,,,,,,,,,,,,,,,,,,,,,,,,,,,,,,,,,,,,,,,,,,,,,,,,,,,,,,,,,,,,,,,,,,,
,,,,,,614d4623077785a6f3975133,62c53918824ba9072574f5a4,2022-07-06_02h26.53.633,Colour_Asymmetry_Pilot,2022.1.3,Win32,60.09615385,62c50e9c1127f2cd403a315f,,,,,,,,,,,,,,,,,,,"[0.6547999999999998,-0.043199999999999905,-0.011800000000000033]",twoone,"[0.7018,0.7176,0.6155999999999999]",-2,1.665,-101,-40,1,0,0,response5disk_5,5,-6,1,0,0,rectangle_8,87,-39,1,0,0,2,14,-4,1,0,0,2,0,2,0,1,response3disk_7,5,rectangle_4,,,,,,,,,,,,,,,,,,,,,,,,,,,,,,,,,,,,,,,,,,,,,,,,,,,,,,,,,,,,,,,,,,,,,,,,,,,,,,,,,,,,,,,,,,,,,,,,,,,,,,,,,,,,
,,,,,,614d4623077785a6f3975133,62c53918824ba9072574f5a4,2022-07-06_02h26.53.633,Colour_Asymmetry_Pilot,2022.1.3,Win32,60.09615385,62c50e9c1127f2cd403a315f,,,,,,,,,,,,,,,,,,,"[-0.8118,-0.8198,-0.5452]",onetwo,"[-0.17659999999999998,-0.2864,-0.8354]",-3,3.148,-99,23,1,0,0,response7disk_5,-6,2,1,0,0,rectangle_8,-6,2,1,0,0,2,-6,2,1,0,0,3,0,3,0,1,,,,,,,,,,,,,,,,,,,,,,,,,,,,,,,,,,,,,,,,,,,,,,,,,,,,,,,,,,,,,,,,,,,,,,,,,,,,,,,,,,,,,,,,,,,,,,,,,,,,,,,,,,,,,,,
,,,,,,614d4623077785a6f3975133,62c53918824ba9072574f5a4,2022-07-06_02h26.53.633,Colour_Asymmetry_Pilot,2022.1.3,Win32,60.09615385,62c50e9c1127f2cd403a315f,,,,,,,,,,,,,,,,,,,"[-0.24719999999999998,-0.0354000000000001,0.3175999999999999]",threeone,"[-0.2942,-0.7648,-0.7492000000000001]",-1,2.598,-30,-84,1,0,0,response5disk_5,-9,-4,1,0,0,rectangle_8,-9,-4,1,0,0,2,-9,-4,1,0,0,4,0,4,0,1,,,,,,,,,,,,,,,,,,,,,,,,,,,,,,,,,,,,,,,,,,,,,,,,,,,,,,,,,,,,,,,,,,,,,,,,,,,,,,,,,,,,,,,,,,,,,,,,,,,,,,,,,,,,,,,
,,,,,,614d4623077785a6f3975133,62c53918824ba9072574f5a4,2022-07-06_02h26.53.633,Colour_Asymmetry_Pilot,2022.1.3,Win32,60.09615385,62c50e9c1127f2cd403a315f,,,,,,,,,,,,,,,,,,,"[-0.09019999999999995,0.44300000000000006,0.5371999999999999]",fourtwo,"[-0.4982,-0.2942,-0.0354000000000001]",2,1.082,75,-22,1,0,0,response3disk_5,-8,-5,1,0,0,rectangle_8,-8,-5,1,0,0,2,-8,-5,1,0,0,5,0,5,0,1,,,,,,,,,,,,,,,,,,,,,,,,,,,,,,,,,,,,,,,,,,,,,,,,,,,,,,,,,,,,,,,,,,,,,,,,,,,,,,,,,,,,,,,,,,,,,,,,,,,,,,,,,,,,,,,
,,,,,,614d4623077785a6f3975133,62c53918824ba9072574f5a4,2022-07-06_02h26.53.633,Colour_Asymmetry_Pilot,2022.1.3,Win32,60.09615385,62c50e9c1127f2cd403a315f,,,,,,,,,,,,,,,,,,,"[-0.4982,-0.2942,-0.0354000000000001]",threefour,"[-0.5922000000000001,-0.7492000000000001,-0.5296000000000001]",1,1.099,20,-71,1,0,0,response3disk_5,0,-12,1,0,0,rectangle_8,0,-12,1,0,0,2,0,-12,1,0,0,6,0,6,0,1,,,,,,,,,,,,,,,,,,,,,,,,,,,,,,,,,,,,,,,,,,,,,,,,,,,,,,,,,,,,,,,,,,,,,,,,,,,,,,,,,,,,,,,,,,,,,,,,,,,,,,,,,,,,,,,
,,,,,,614d4623077785a6f3975133,62c53918824ba9072574f5a4,2022-07-06_02h26.53.633,Colour_Asymmetry_Pilot,2022.1.3,Win32,60.09615385,62c50e9c1127f2cd403a315f,,,,,,,,,,,,,,,,,,,,onetwo,,-2,1.25,,,,,,,,,,,,,,,,,,,,,,,,,,,,,,,,space,4.37,"[0.9842,0.7409999999999999,-0.6628000000000001]","[-0.24719999999999998,-0.0354000000000001,0.3175999999999999]",-84,-34,1,0,0,response5disk,-5,-5,1,0,0,rectangle,-5,-5,1,0,0,,2,0.003,0,-5,-5,1,0,0,0,0,0,44,1,44,first,,,,,,,,,,,,,,,,,,,,,,,,,,,,,,,,,,,,,,,,,,,,,,,,,,,,,,,,,,,,,,,,,,,,,,,
,,,,,,614d4623077785a6f3975133,62c53918824ba9072574f5a4,2022-07-06_02h26.53.633,Colour_Asymmetry_Pilot,2022.1.3,Win32,60.09615385,62c50e9c1127f2cd403a315f,,,,,,,,,,,,,,,,,,,,fourthree,,-3,2.167,,,,,,,,,,,,,,,,,,,,,,,,,,,,,,,,,,"[-0.9766,-0.6472,0.07440000000000002]","[0.04299999999999993,0.16060000000000008,-0.6628000000000001]",-100,17,1,0,0,response7disk,19,3,1,0,0,rectangle,19,3,1,0,0,,3,0.004,0,19,3,1,0,0,0,1,1,42,1,42,first,,,,,,,,,,,,,,,,,,,,,,,,,,,,,,,,,,,,,,,,,,,,,,,,,,,,,,,,,,,,,,,,,,,,,,,
,,,,,,614d4623077785a6f3975133,62c53918824ba9072574f5a4,2022-07-06_02h26.53.633,Colour_Asymmetry_Pilot,2022.1.3,Win32,60.09615385,62c50e9c1127f2cd403a315f,,,,,,,,,,,,,,,,,,,,onethree,,2,2.114,,,,,,,,,,,,,,,,,,,,,,,,,,,,,,,,,,"[0.8274000000000001,-0.5844,-0.9452]","[-0.050999999999999934,-0.6706000000000001,-0.804]",81,-42,1,0,0,response3disk,11,-2,1,0,0,rectangle,11,-2,1,0,0,,2,0.003,0,11,-2,1,0,0,0,2,2,153,1,72,second,,,,,,,,,,,,,,,,,,,,,,,,,,,,,,,,,,,,,,,,,,,,,,,,,,,,,,,,,,,,,,,,,,,,,,,
,,,,,,614d4623077785a6f3975133,62c53918824ba9072574f5a4,2022-07-06_02h26.53.633,Colour_Asymmetry_Pilot,2022.1.3,Win32,60.09615385,62c50e9c1127f2cd403a315f,,,,,,,,,,,,,,,,,,,,onetwo,,-2,0.949,,,,,,,,,,,,,,,,,,,,,,,,,,,,,,,,,,"[0.04299999999999993,0.16060000000000008,-0.6628000000000001]","[0.18419999999999992,-0.4276,-0.404]",-78,-28,1,0,0,response5disk,-16,-9,1,0,0,rectangle,-16,-9,1,0,0,,3,0.002,0,-16,-9,1,0,0,0,3,3,56,1,56,first,,,,,,,,,,,,,,,,,,,,,,,,,,,,,,,,,,,,,,,,,,,,,,,,,,,,,,,,,,,,,,,,,,,,,,,
,,,,,,614d4623077785a6f3975133,62c53918824ba9072574f5a4,2022-07-06_02h26.53.633,Colour_Asymmetry_Pilot,2022.1.3,Win32,60.09615385,62c50e9c1127f2cd403a315f,,,,,,,,,,,,,,,,,,,,fourtwo,,-4,0.833,,,,,,,,,,,,,,,,,,,,,,,,,,,,,,,,,,"[-0.24719999999999998,-0.0354000000000001,0.3175999999999999]","[-0.17659999999999998,-0.2864,-0.8354]",-30,92,1,0,0,response7disk,15,-6,1,0,0,rectangle,15,-6,1,0,0,,2,0.003,0,15,-6,1,0,0,0,4,4,10,1,10,first,,,,,,,,,,,,,,,,,,,,,,,,,,,,,,,,,,,,,,,,,,,,,,,,,,,,,,,,,,,,,,,,,,,,,,,
,,,,,,614d4623077785a6f3975133,62c53918824ba9072574f5a4,2022-07-06_02h26.53.633,Colour_Asymmetry_Pilot,2022.1.3,Win32,60.09615385,62c50e9c1127f2cd403a315f,,,,,,,,,,,,,,,,,,,,fourthree,,-1,1.933,,,,,,,,,,,,,,,,,,,,,,,,,,,,,,,,,,"[-0.8198,-0.5138,-0.7492000000000001]","[-0.6942,-0.7648,-0.12959999999999994]",-54,-89,1,0,0,response5disk,-6,-13,1,0,0,rectangle,-6,-13,1,0,0,,3,0.001,0,-6,-13,1,0,0,0,5,5,66,1,66,first,,,,,,,,,,,,,,,,,,,,,,,,,,,,,,,,,,,,,,,,,,,,,,,,,,,,,,,,,,,,,,,,,,,,,,,
,,,,,,614d4623077785a6f3975133,62c53918824ba9072574f5a4,2022-07-06_02h26.53.633,Colour_Asymmetry_Pilot,2022.1.3,Win32,60.09615385,62c50e9c1127f2cd403a315f,,,,,,,,,,,,,,,,,,,,fourtwo,,1,1.865,,,,,,,,,,,,,,,,,,,,,,,,,,,,,,,,,,"[-0.30200000000000005,0.14500000000000002,0.2784]","[0.2862,0.7802,0.3568]",42,-60,1,0,0,response3disk,9,0,1,0,0,rectangle,9,0,1,0,0,,3,0,0,9,0,1,0,0,0,6,6,92,1,11,second,,,,,,,,,,,,,,,,,,,,,,,,,,,,,,,,,,,,,,,,,,,,,,,,,,,,,,,,,,,,,,,,,,,,,,,
,,,,,,614d4623077785a6f3975133,62c53918824ba9072574f5a4,2022-07-06_02h26.53.633,Colour_Asymmetry_Pilot,2022.1.3,Win32,60.09615385,62c50e9c1127f2cd403a315f,,,,,,,,,,,,,,,,,,,,onethree,,-2,1.016,,,,,,,,,,,,,,,,,,,,,,,,,,,,,,,,,,"[-0.17659999999999998,-0.2864,-0.8354]","[-0.24719999999999998,-0.0354000000000001,0.3175999999999999]",-68,-39,1,0,0,response5disk,0,-12,1,0,0,rectangle,0,-12,1,0,0,,2,0.002,0,0,-12,1,0,0,0,7,7,91,1,10,second,,,,,,,,,,,,,,,,,,,,,,,,,,,,,,,,,,,,,,,,,,,,,,,,,,,,,,,,,,,,,,,,,,,,,,,
,,,,,,614d4623077785a6f3975133,62c53918824ba9072574f5a4,2022-07-06_02h26.53.633,Colour_Asymmetry_Pilot,2022.1.3,Win32,60.09615385,62c50e9c1127f2cd403a315f,,,,,,,,,,,,,,,,,,,,fourtwo,,4,0.915,,,,,,,,,,,,,,,,,,,,,,,,,,,,,,,,,,"[0.34099999999999997,0.12939999999999996,-0.9766]","[-0.17659999999999998,-0.2864,-0.8354]",48,77,1,0,0,response1disk,6,-5,1,0,0,rectangle,6,-5,1,0,0,,1,0.005,0,6,-5,1,0,0,0,8,8,152,1,71,second,,,,,,,,,,,,,,,,,,,,,,,,,,,,,,,,,,,,,,,,,,,,,,,,,,,,,,,,,,,,,,,,,,,,,,,
,,,,,,614d4623077785a6f3975133,62c53918824ba9072574f5a4,2022-07-06_02h26.53.633,Colour_Asymmetry_Pilot,2022.1.3,Win32,60.09615385,62c50e9c1127f2cd403a315f,,,,,,,,,,,,,,,,,,,,onethree,,1,0.9,,,,,,,,,,,,,,,,,,,,,,,,,,,,,,,,,,"[0.11359999999999992,0.6312,0.5213999999999999]","[-0.9766,-0.6472,0.07440000000000002]",36,-83,1,0,0,response3disk,4,-15,1,0,0,rectangle,4,-15,1,0,0,,2,0.003,0,4,-15,1,0,0,0,9,9,113,1,32,second,,,,,,,,,,,,,,,,,,,,,,,,,,,,,,,,,,,,,,,,,,,,,,,,,,,,,,,,,,,,,,,,,,,,,,,
,,,,,,614d4623077785a6f3975133,62c53918824ba9072574f5a4,2022-07-06_02h26.53.633,Colour_Asymmetry_Pilot,2022.1.3,Win32,60.09615385,62c50e9c1127f2cd403a315f,,,,,,,,,,,,,,,,,,,,threefour,,1,1.299,,,,,,,,,,,,,,,,,,,,,,,,,,,,,,,,,,"[-0.30200000000000005,0.14500000000000002,0.2784]","[-0.4276,0.0038000000000000256,-0.3256]",28,-63,1,0,0,response3disk,7,-15,1,0,0,rectangle,7,-15,1,0,0,,3,0.003,0,7,-15,1,0,0,0,10,10,135,1,54,second,,,,,,,,,,,,,,,,,,,,,,,,,,,,,,,,,,,,,,,,,,,,,,,,,,,,,,,,,,,,,,,,,,,,,,,
,,,,,,614d4623077785a6f3975133,62c53918824ba9072574f5a4,2022-07-06_02h26.53.633,Colour_Asymmetry_Pilot,2022.1.3,Win32,60.09615385,62c50e9c1127f2cd403a315f,,,,,,,,,,,,,,,,,,,,twofour,,-3,1.631,,,,,,,,,,,,,,,,,,,,,,,,,,,,,,,,,,"[0.11359999999999992,0.6312,0.5213999999999999]","[0.9842,0.7409999999999999,-0.6628000000000001]",-92,20,1,0,0,response7disk,15,6,1,0,0,rectangle,15,6,1,0,0,,1,0.002,0,15,6,1,0,0,0,11,11,85,1,4,second,,,,,,,,,,,,,,,,,,,,,,,,,,,,,,,,,,,,,,,,,,,,,,,,,,,,,,,,,,,,,,,,,,,,,,,
,,,,,,614d4623077785a6f3975133,62c53918824ba9072574f5a4,2022-07-06_02h26.53.633,Colour_Asymmetry_Pilot,2022.1.3,Win32,60.09615385,62c50e9c1127f2cd403a315f,,,,,,,,,,,,,,,,,,,,fourthree,,-2,1.066,,,,,,,,,,,,,,,,,,,,,,,,,,,,,,,,,,"[0.3802000000000001,0.19199999999999995,-0.6394]","[-0.24719999999999998,0.5213999999999999,-0.12959999999999994]",-79,-39,1,0,0,response5disk,5,-2,1,0,0,rectangle,5,-2,1,0,0,,2,0.002,0,5,-2,1,0,0,0,12,12,5,1,5,first,,,,,,,,,,,,,,,,,,,,,,,,,,,,,,,,,,,,,,,,,,,,,,,,,,,,,,,,,,,,,,,,,,,,,,,
,,,,,,614d4623077785a6f3975133,62c53918824ba9072574f5a4,2022-07-06_02h26.53.633,Colour_Asymmetry_Pilot,2022.1.3,Win32,60.09615385,62c50e9c1127f2cd403a315f,,,,,,,,,,,,,,,,,,,,fourtwo,,3,0.817,,,,,,,,,,,,,,,,,,,,,,,,,,,,,,,,,,"[-0.34920000000000007,-0.702,-0.5216]","[-0.4668,-0.8746,-0.2942]",84,40,1,0,0,response1disk,14,-2,1,0,0,rectangle,14,-2,1,0,0,,3,0.002,0,14,-2,1,0,0,0,13,13,37,1,37,first,,,,,,,,,,,,,,,,,,,,,,,,,,,,,,,,,,,,,,,,,,,,,,,,,,,,,,,,,,,,,,,,,,,,,,,
,,,,,,614d4623077785a6f3975133,62c53918824ba9072574f5a4,2022-07-06_02h26.53.633,Colour_Asymmetry_Pilot,2022.1.3,Win32,60.09615385,62c50e9c1127f2cd403a315f,,,,,,,,,,,,,,,,,,,,threeone,,-2,2.38,,,,,,,,,,,,,,,,,,,,,,,,,,,,,,,,,,"[0.7646000000000002,0.07440000000000002,0.2704]","[-0.4982,-0.2942,-0.0354000000000001]",-59,-21,1,0,0,response5disk,4,-4,1,0,0,rectangle,4,-4,1,0,0,,2,0.004,0,4,-4,1,0,0,0,14,14,98,1,17,second,,,,,,,,,,,,,,,,,,,,,,,,,,,,,,,,,,,,,,,,,,,,,,,,,,,,,,,,,,,,,,,,,,,,,,,
,,,,,,614d4623077785a6f3975133,62c53918824ba9072574f5a4,2022-07-06_02h26.53.633,Colour_Asymmetry_Pilot,2022.1.3,Win32,60.09615385,62c50e9c1127f2cd403a315f,,,,,,,,,,,,,,,,,,,,onethree,,1,0.899,,,,,,,,,,,,,,,,,,,,,,,,,,,,,,,,,,"[0.4196,0.4665999999999999,0.3568]","[-0.10599999999999998,-0.15300000000000002,0.15280000000000005]",48,-82,1,0,0,response3disk,-7,2,1,0,0,rectangle,-7,2,1,0,0,,3,0.002,0,-7,2,1,0,0,0,15,15,22,1,22,first,,,,,,,,,,,,,,,,,,,,,,,,,,,,,,,,,,,,,,,,,,,,,,,,,,,,,,,,,,,,,,,,,,,,,,,
,,,,,,614d4623077785a6f3975133,62c53918824ba9072574f5a4,2022-07-06_02h26.53.633,Colour_Asymmetry_Pilot,2022.1.3,Win32,60.09615385,62c50e9c1127f2cd403a315f,,,,,,,,,,,,,,,,,,,,onethree,,-1,4.913,,,,,,,,,,,,,,,,,,,,,,,,,,,,,,,,,,"[-0.4668,-0.8746,-0.2942]","[0.34099999999999997,0.12939999999999996,-0.9766]",-26,-80,1,0,0,response5disk,1,-9,1,0,0,rectangle,1,-9,1,0,0,,1,0.003,0,1,-9,1,0,0,0,16,16,83,1,2,second,,,,,,,,,,,,,,,,,,,,,,,,,,,,,,,,,,,,,,,,,,,,,,,,,,,,,,,,,,,,,,,,,,,,,,,
,,,,,,614d4623077785a6f3975133,62c53918824ba9072574f5a4,2022-07-06_02h26.53.633,Colour_Asymmetry_Pilot,2022.1.3,Win32,60.09615385,62c50e9c1127f2cd403a315f,,,,,,,,,,,,,,,,,,,,onethree,,-2,0.818,,,,,,,,,,,,,,,,,,,,,,,,,,,,,,,,,,"[-0.5452,-0.608,0.2470000000000001]","[0.37240000000000006,-0.050999999999999934,-0.5216]",-86,-41,1,0,0,response5disk,-4,-13,1,0,0,rectangle,-4,-13,1,0,0,,1,0.001,0,-4,-13,1,0,0,0,17,17,134,1,53,second,,,,,,,,,,,,,,,,,,,,,,,,,,,,,,,,,,,,,,,,,,,,,,,,,,,,,,,,,,,,,,,,,,,,,,,
,,,,,,614d4623077785a6f3975133,62c53918824ba9072574f5a4,2022-07-06_02h26.53.633,Colour_Asymmetry_Pilot,2022.1.3,Win32,60.09615385,62c50e9c1127f2cd403a315f,,,,,,,,,,,,,,,,,,,,fourthree,,-1,1.964,,,,,,,,,,,,,,,,,,,,,,,,,,,,,,,,,,"[0.7018,0.7802,-0.16079999999999994]","[0.9372,0.9450000000000001,0.8980000000000001]",-42,-115,1,0,0,response5disk,14,-4,1,0,0,rectangle,14,-4,1,0,0,,2,0.002,0,14,-4,1,0,0,0,18,18,132,1,51,second,,,,,,,,,,,,,,,,,,,,,,,,,,,,,,,,,,,,,,,,,,,,,,,,,,,,,,,,,,,,,,,,,,,,,,,
