trials.thisRepN,trials.thisTrialN,trials.thisN,trials.thisIndex,trials.ran,Colourcodes,participant,session,date,expName,psychopyVersion,OS,frameRate,study_id,trials_4.thisRepN,trials_4.thisTrialN,trials_4.thisN,trials_4.thisIndex,trials_4.ran,StimulusPos,key_resp.keys,key_resp.rt,key_resp_2.keys,key_resp_2.rt,key_resp_15.keys,key_resp_15.rt,key_resp_17.keys,key_resp_17.rt,key_resp_9.keys,key_resp_9.rt,key_resp_10.keys,key_resp_10.rt,Circle1_col,Ecc,Circle2_col,similarity,response_time,mouse_5.x,mouse_5.y,mouse_5.leftButton,mouse_5.midButton,mouse_5.rightButton,mouse_5.clicked_name,mouse_10.x,mouse_10.y,mouse_10.leftButton,mouse_10.midButton,mouse_10.rightButton,mouse_10.clicked_name,mouse_7.x,mouse_7.y,mouse_7.leftButton,mouse_7.midButton,mouse_7.rightButton,catchnumberprac,mouse_6.x,mouse_6.y,mouse_6.leftButton,mouse_6.midButton,mouse_6.rightButton,duringprac.thisRepN,duringprac.thisTrialN,duringprac.thisN,duringprac.thisIndex,duringprac.ran,mouse_7.clicked_name,catchprac,mouse_6.clicked_name,key_resp_22.keys,key_resp_22.rt,Circle1_colour,Circle2_colour,mouse.x,mouse.y,mouse.leftButton,mouse.midButton,mouse.rightButton,mouse.clicked_name,mouse_2.x,mouse_2.y,mouse_2.leftButton,mouse_2.midButton,mouse_2.rightButton,mouse_2.clicked_name,mouse_3.x,mouse_3.y,mouse_3.leftButton,mouse_3.midButton,mouse_3.rightButton,catchresponse,catchnumber,response_time_catch,Catch,mouse_11.x,mouse_11.y,mouse_11.leftButton,mouse_11.midButton,mouse_11.rightButton,trials_2.thisRepN,trials_2.thisTrialN,trials_2.thisN,trials_2.thisIndex,trials_2.ran,Colourpair,Temporder,mouse_3.clicked_name,mouse_11.clicked_name,trials_3.thisRepN,trials_3.thisTrialN,trials_3.thisN,trials_3.thisIndex,trials_3.ran,key_resp_instr_Ishi.keys,key_resp_instr_Ishi.rt,Ishi_trial_keyresp.keys,Ishi_textbox.text,Ishi_mouse.x,Ishi_mouse.y,Ishi_mouse.leftButton,Ishi_mouse.midButton,Ishi_mouse.rightButton,Ishi_mouse.clicked_name,Ishi_loop.thisRepN,Ishi_loop.thisTrialN,Ishi_loop.thisN,Ishi_loop.thisIndex,Ishi_loop.ran,imageaddress,textbox.text,mouse_4.x,mouse_4.y,mouse_4.leftButton,mouse_4.midButton,mouse_4.rightButton,mouse_4.clicked_name,textbox_2.text,mouse_8.x,mouse_8.y,mouse_8.leftButton,mouse_8.midButton,mouse_8.rightButton,mouse_8.clicked_name,textbox_3.text,mouse_9.x,mouse_9.y,mouse_9.leftButton,mouse_9.midButton,mouse_9.rightButton,mouse_9.clicked_name,textbox_4.text,mouse_12.x,mouse_12.y,mouse_12.leftButton,mouse_12.midButton,mouse_12.rightButton,mouse_12.clicked_name,textbox_5.text,mouse_13.x,mouse_13.y,mouse_13.leftButton,mouse_13.midButton,mouse_13.rightButton,mouse_13.clicked_name,textbox_6.text,mouse_14.x,mouse_14.y,mouse_14.leftButton,mouse_14.midButton,mouse_14.rightButton,mouse_14.clicked_name,textbox_7.text,mouse_15.x,mouse_15.y,mouse_15.leftButton,mouse_15.midButton,mouse_15.rightButton,mouse_15.clicked_name
0,0,0,50,1,,60db74fcb5f4526ce90594a1,62c53aa0aa2bc9b5bcef82fb,2022-07-06_09h33.45.109,Colour_Asymmetry_Pilot,2022.1.3,Win32,60.0060006,62c50e9c1127f2cd403a315f,,,,,,,,,,,,,,,,,,,,,,,,,,,,,,,,,,,,,,,,,,,,,,,,,,,,,,,,,,,,,,,,,,,,,,,,,,,,,,,,,,,,,,,,,,,,,,,,,,,,,,,,,,,,,,,,,,,,,,,,,,,,,,,,,,,,,,,,,,,,,,,,,,,,,,,,,,,,,,,,,,,
0,1,1,24,1,,60db74fcb5f4526ce90594a1,62c53aa0aa2bc9b5bcef82fb,2022-07-06_09h33.45.109,Colour_Asymmetry_Pilot,2022.1.3,Win32,60.0060006,62c50e9c1127f2cd403a315f,,,,,,,,,,,,,,,,,,,,,,,,,,,,,,,,,,,,,,,,,,,,,,,,,,,,,,,,,,,,,,,,,,,,,,,,,,,,,,,,,,,,,,,,,,,,,,,,,,,,,,,,,,,,,,,,,,,,,,,,,,,,,,,,,,,,,,,,,,,,,,,,,,,,,,,,,,,,,,,,,,,
0,2,2,80,1,,60db74fcb5f4526ce90594a1,62c53aa0aa2bc9b5bcef82fb,2022-07-06_09h33.45.109,Colour_Asymmetry_Pilot,2022.1.3,Win32,60.0060006,62c50e9c1127f2cd403a315f,,,,,,,,,,,,,,,,,,,,,,,,,,,,,,,,,,,,,,,,,,,,,,,,,,,,,,,,,,,,,,,,,,,,,,,,,,,,,,,,,,,,,,,,,,,,,,,,,,,,,,,,,,,,,,,,,,,,,,,,,,,,,,,,,,,,,,,,,,,,,,,,,,,,,,,,,,,,,,,,,,,
0,3,3,44,1,,60db74fcb5f4526ce90594a1,62c53aa0aa2bc9b5bcef82fb,2022-07-06_09h33.45.109,Colour_Asymmetry_Pilot,2022.1.3,Win32,60.0060006,62c50e9c1127f2cd403a315f,,,,,,,,,,,,,,,,,,,,,,,,,,,,,,,,,,,,,,,,,,,,,,,,,,,,,,,,,,,,,,,,,,,,,,,,,,,,,,,,,,,,,,,,,,,,,,,,,,,,,,,,,,,,,,,,,,,,,,,,,,,,,,,,,,,,,,,,,,,,,,,,,,,,,,,,,,,,,,,,,,,
0,4,4,57,1,,60db74fcb5f4526ce90594a1,62c53aa0aa2bc9b5bcef82fb,2022-07-06_09h33.45.109,Colour_Asymmetry_Pilot,2022.1.3,Win32,60.0060006,62c50e9c1127f2cd403a315f,,,,,,,,,,,,,,,,,,,,,,,,,,,,,,,,,,,,,,,,,,,,,,,,,,,,,,,,,,,,,,,,,,,,,,,,,,,,,,,,,,,,,,,,,,,,,,,,,,,,,,,,,,,,,,,,,,,,,,,,,,,,,,,,,,,,,,,,,,,,,,,,,,,,,,,,,,,,,,,,,,,
0,5,5,43,1,,60db74fcb5f4526ce90594a1,62c53aa0aa2bc9b5bcef82fb,2022-07-06_09h33.45.109,Colour_Asymmetry_Pilot,2022.1.3,Win32,60.0060006,62c50e9c1127f2cd403a315f,,,,,,,,,,,,,,,,,,,,,,,,,,,,,,,,,,,,,,,,,,,,,,,,,,,,,,,,,,,,,,,,,,,,,,,,,,,,,,,,,,,,,,,,,,,,,,,,,,,,,,,,,,,,,,,,,,,,,,,,,,,,,,,,,,,,,,,,,,,,,,,,,,,,,,,,,,,,,,,,,,,
0,6,6,41,1,,60db74fcb5f4526ce90594a1,62c53aa0aa2bc9b5bcef82fb,2022-07-06_09h33.45.109,Colour_Asymmetry_Pilot,2022.1.3,Win32,60.0060006,62c50e9c1127f2cd403a315f,,,,,,,,,,,,,,,,,,,,,,,,,,,,,,,,,,,,,,,,,,,,,,,,,,,,,,,,,,,,,,,,,,,,,,,,,,,,,,,,,,,,,,,,,,,,,,,,,,,,,,,,,,,,,,,,,,,,,,,,,,,,,,,,,,,,,,,,,,,,,,,,,,,,,,,,,,,,,,,,,,,
0,7,7,46,1,,60db74fcb5f4526ce90594a1,62c53aa0aa2bc9b5bcef82fb,2022-07-06_09h33.45.109,Colour_Asymmetry_Pilot,2022.1.3,Win32,60.0060006,62c50e9c1127f2cd403a315f,,,,,,,,,,,,,,,,,,,,,,,,,,,,,,,,,,,,,,,,,,,,,,,,,,,,,,,,,,,,,,,,,,,,,,,,,,,,,,,,,,,,,,,,,,,,,,,,,,,,,,,,,,,,,,,,,,,,,,,,,,,,,,,,,,,,,,,,,,,,,,,,,,,,,,,,,,,,,,,,,,,
0,8,8,26,1,,60db74fcb5f4526ce90594a1,62c53aa0aa2bc9b5bcef82fb,2022-07-06_09h33.45.109,Colour_Asymmetry_Pilot,2022.1.3,Win32,60.0060006,62c50e9c1127f2cd403a315f,,,,,,,,,,,,,,,,,,,,,,,,,,,,,,,,,,,,,,,,,,,,,,,,,,,,,,,,,,,,,,,,,,,,,,,,,,,,,,,,,,,,,,,,,,,,,,,,,,,,,,,,,,,,,,,,,,,,,,,,,,,,,,,,,,,,,,,,,,,,,,,,,,,,,,,,,,,,,,,,,,,
0,9,9,30,1,,60db74fcb5f4526ce90594a1,62c53aa0aa2bc9b5bcef82fb,2022-07-06_09h33.45.109,Colour_Asymmetry_Pilot,2022.1.3,Win32,60.0060006,62c50e9c1127f2cd403a315f,,,,,,,,,,,,,,,,,,,,,,,,,,,,,,,,,,,,,,,,,,,,,,,,,,,,,,,,,,,,,,,,,,,,,,,,,,,,,,,,,,,,,,,,,,,,,,,,,,,,,,,,,,,,,,,,,,,,,,,,,,,,,,,,,,,,,,,,,,,,,,,,,,,,,,,,,,,,,,,,,,,
0,10,10,79,1,,60db74fcb5f4526ce90594a1,62c53aa0aa2bc9b5bcef82fb,2022-07-06_09h33.45.109,Colour_Asymmetry_Pilot,2022.1.3,Win32,60.0060006,62c50e9c1127f2cd403a315f,,,,,,,,,,,,,,,,,,,,,,,,,,,,,,,,,,,,,,,,,,,,,,,,,,,,,,,,,,,,,,,,,,,,,,,,,,,,,,,,,,,,,,,,,,,,,,,,,,,,,,,,,,,,,,,,,,,,,,,,,,,,,,,,,,,,,,,,,,,,,,,,,,,,,,,,,,,,,,,,,,,
0,11,11,12,1,,60db74fcb5f4526ce90594a1,62c53aa0aa2bc9b5bcef82fb,2022-07-06_09h33.45.109,Colour_Asymmetry_Pilot,2022.1.3,Win32,60.0060006,62c50e9c1127f2cd403a315f,,,,,,,,,,,,,,,,,,,,,,,,,,,,,,,,,,,,,,,,,,,,,,,,,,,,,,,,,,,,,,,,,,,,,,,,,,,,,,,,,,,,,,,,,,,,,,,,,,,,,,,,,,,,,,,,,,,,,,,,,,,,,,,,,,,,,,,,,,,,,,,,,,,,,,,,,,,,,,,,,,,
0,12,12,77,1,,60db74fcb5f4526ce90594a1,62c53aa0aa2bc9b5bcef82fb,2022-07-06_09h33.45.109,Colour_Asymmetry_Pilot,2022.1.3,Win32,60.0060006,62c50e9c1127f2cd403a315f,,,,,,,,,,,,,,,,,,,,,,,,,,,,,,,,,,,,,,,,,,,,,,,,,,,,,,,,,,,,,,,,,,,,,,,,,,,,,,,,,,,,,,,,,,,,,,,,,,,,,,,,,,,,,,,,,,,,,,,,,,,,,,,,,,,,,,,,,,,,,,,,,,,,,,,,,,,,,,,,,,,
0,13,13,66,1,,60db74fcb5f4526ce90594a1,62c53aa0aa2bc9b5bcef82fb,2022-07-06_09h33.45.109,Colour_Asymmetry_Pilot,2022.1.3,Win32,60.0060006,62c50e9c1127f2cd403a315f,,,,,,,,,,,,,,,,,,,,,,,,,,,,,,,,,,,,,,,,,,,,,,,,,,,,,,,,,,,,,,,,,,,,,,,,,,,,,,,,,,,,,,,,,,,,,,,,,,,,,,,,,,,,,,,,,,,,,,,,,,,,,,,,,,,,,,,,,,,,,,,,,,,,,,,,,,,,,,,,,,,
0,14,14,72,1,,60db74fcb5f4526ce90594a1,62c53aa0aa2bc9b5bcef82fb,2022-07-06_09h33.45.109,Colour_Asymmetry_Pilot,2022.1.3,Win32,60.0060006,62c50e9c1127f2cd403a315f,,,,,,,,,,,,,,,,,,,,,,,,,,,,,,,,,,,,,,,,,,,,,,,,,,,,,,,,,,,,,,,,,,,,,,,,,,,,,,,,,,,,,,,,,,,,,,,,,,,,,,,,,,,,,,,,,,,,,,,,,,,,,,,,,,,,,,,,,,,,,,,,,,,,,,,,,,,,,,,,,,,
0,15,15,78,1,,60db74fcb5f4526ce90594a1,62c53aa0aa2bc9b5bcef82fb,2022-07-06_09h33.45.109,Colour_Asymmetry_Pilot,2022.1.3,Win32,60.0060006,62c50e9c1127f2cd403a315f,,,,,,,,,,,,,,,,,,,,,,,,,,,,,,,,,,,,,,,,,,,,,,,,,,,,,,,,,,,,,,,,,,,,,,,,,,,,,,,,,,,,,,,,,,,,,,,,,,,,,,,,,,,,,,,,,,,,,,,,,,,,,,,,,,,,,,,,,,,,,,,,,,,,,,,,,,,,,,,,,,,
0,16,16,45,1,,60db74fcb5f4526ce90594a1,62c53aa0aa2bc9b5bcef82fb,2022-07-06_09h33.45.109,Colour_Asymmetry_Pilot,2022.1.3,Win32,60.0060006,62c50e9c1127f2cd403a315f,,,,,,,,,,,,,,,,,,,,,,,,,,,,,,,,,,,,,,,,,,,,,,,,,,,,,,,,,,,,,,,,,,,,,,,,,,,,,,,,,,,,,,,,,,,,,,,,,,,,,,,,,,,,,,,,,,,,,,,,,,,,,,,,,,,,,,,,,,,,,,,,,,,,,,,,,,,,,,,,,,,
0,17,17,62,1,,60db74fcb5f4526ce90594a1,62c53aa0aa2bc9b5bcef82fb,2022-07-06_09h33.45.109,Colour_Asymmetry_Pilot,2022.1.3,Win32,60.0060006,62c50e9c1127f2cd403a315f,,,,,,,,,,,,,,,,,,,,,,,,,,,,,,,,,,,,,,,,,,,,,,,,,,,,,,,,,,,,,,,,,,,,,,,,,,,,,,,,,,,,,,,,,,,,,,,,,,,,,,,,,,,,,,,,,,,,,,,,,,,,,,,,,,,,,,,,,,,,,,,,,,,,,,,,,,,,,,,,,,,
0,18,18,23,1,,60db74fcb5f4526ce90594a1,62c53aa0aa2bc9b5bcef82fb,2022-07-06_09h33.45.109,Colour_Asymmetry_Pilot,2022.1.3,Win32,60.0060006,62c50e9c1127f2cd403a315f,,,,,,,,,,,,,,,,,,,,,,,,,,,,,,,,,,,,,,,,,,,,,,,,,,,,,,,,,,,,,,,,,,,,,,,,,,,,,,,,,,,,,,,,,,,,,,,,,,,,,,,,,,,,,,,,,,,,,,,,,,,,,,,,,,,,,,,,,,,,,,,,,,,,,,,,,,,,,,,,,,,
0,19,19,28,1,,60db74fcb5f4526ce90594a1,62c53aa0aa2bc9b5bcef82fb,2022-07-06_09h33.45.109,Colour_Asymmetry_Pilot,2022.1.3,Win32,60.0060006,62c50e9c1127f2cd403a315f,,,,,,,,,,,,,,,,,,,,,,,,,,,,,,,,,,,,,,,,,,,,,,,,,,,,,,,,,,,,,,,,,,,,,,,,,,,,,,,,,,,,,,,,,,,,,,,,,,,,,,,,,,,,,,,,,,,,,,,,,,,,,,,,,,,,,,,,,,,,,,,,,,,,,,,,,,,,,,,,,,,
0,20,20,70,1,,60db74fcb5f4526ce90594a1,62c53aa0aa2bc9b5bcef82fb,2022-07-06_09h33.45.109,Colour_Asymmetry_Pilot,2022.1.3,Win32,60.0060006,62c50e9c1127f2cd403a315f,,,,,,,,,,,,,,,,,,,,,,,,,,,,,,,,,,,,,,,,,,,,,,,,,,,,,,,,,,,,,,,,,,,,,,,,,,,,,,,,,,,,,,,,,,,,,,,,,,,,,,,,,,,,,,,,,,,,,,,,,,,,,,,,,,,,,,,,,,,,,,,,,,,,,,,,,,,,,,,,,,,
0,21,21,19,1,,60db74fcb5f4526ce90594a1,62c53aa0aa2bc9b5bcef82fb,2022-07-06_09h33.45.109,Colour_Asymmetry_Pilot,2022.1.3,Win32,60.0060006,62c50e9c1127f2cd403a315f,,,,,,,,,,,,,,,,,,,,,,,,,,,,,,,,,,,,,,,,,,,,,,,,,,,,,,,,,,,,,,,,,,,,,,,,,,,,,,,,,,,,,,,,,,,,,,,,,,,,,,,,,,,,,,,,,,,,,,,,,,,,,,,,,,,,,,,,,,,,,,,,,,,,,,,,,,,,,,,,,,,
0,22,22,11,1,,60db74fcb5f4526ce90594a1,62c53aa0aa2bc9b5bcef82fb,2022-07-06_09h33.45.109,Colour_Asymmetry_Pilot,2022.1.3,Win32,60.0060006,62c50e9c1127f2cd403a315f,,,,,,,,,,,,,,,,,,,,,,,,,,,,,,,,,,,,,,,,,,,,,,,,,,,,,,,,,,,,,,,,,,,,,,,,,,,,,,,,,,,,,,,,,,,,,,,,,,,,,,,,,,,,,,,,,,,,,,,,,,,,,,,,,,,,,,,,,,,,,,,,,,,,,,,,,,,,,,,,,,,
0,23,23,27,1,,60db74fcb5f4526ce90594a1,62c53aa0aa2bc9b5bcef82fb,2022-07-06_09h33.45.109,Colour_Asymmetry_Pilot,2022.1.3,Win32,60.0060006,62c50e9c1127f2cd403a315f,,,,,,,,,,,,,,,,,,,,,,,,,,,,,,,,,,,,,,,,,,,,,,,,,,,,,,,,,,,,,,,,,,,,,,,,,,,,,,,,,,,,,,,,,,,,,,,,,,,,,,,,,,,,,,,,,,,,,,,,,,,,,,,,,,,,,,,,,,,,,,,,,,,,,,,,,,,,,,,,,,,
0,24,24,88,1,,60db74fcb5f4526ce90594a1,62c53aa0aa2bc9b5bcef82fb,2022-07-06_09h33.45.109,Colour_Asymmetry_Pilot,2022.1.3,Win32,60.0060006,62c50e9c1127f2cd403a315f,,,,,,,,,,,,,,,,,,,,,,,,,,,,,,,,,,,,,,,,,,,,,,,,,,,,,,,,,,,,,,,,,,,,,,,,,,,,,,,,,,,,,,,,,,,,,,,,,,,,,,,,,,,,,,,,,,,,,,,,,,,,,,,,,,,,,,,,,,,,,,,,,,,,,,,,,,,,,,,,,,,
0,25,25,21,1,,60db74fcb5f4526ce90594a1,62c53aa0aa2bc9b5bcef82fb,2022-07-06_09h33.45.109,Colour_Asymmetry_Pilot,2022.1.3,Win32,60.0060006,62c50e9c1127f2cd403a315f,,,,,,,,,,,,,,,,,,,,,,,,,,,,,,,,,,,,,,,,,,,,,,,,,,,,,,,,,,,,,,,,,,,,,,,,,,,,,,,,,,,,,,,,,,,,,,,,,,,,,,,,,,,,,,,,,,,,,,,,,,,,,,,,,,,,,,,,,,,,,,,,,,,,,,,,,,,,,,,,,,,
0,26,26,33,1,,60db74fcb5f4526ce90594a1,62c53aa0aa2bc9b5bcef82fb,2022-07-06_09h33.45.109,Colour_Asymmetry_Pilot,2022.1.3,Win32,60.0060006,62c50e9c1127f2cd403a315f,,,,,,,,,,,,,,,,,,,,,,,,,,,,,,,,,,,,,,,,,,,,,,,,,,,,,,,,,,,,,,,,,,,,,,,,,,,,,,,,,,,,,,,,,,,,,,,,,,,,,,,,,,,,,,,,,,,,,,,,,,,,,,,,,,,,,,,,,,,,,,,,,,,,,,,,,,,,,,,,,,,
0,27,27,54,1,,60db74fcb5f4526ce90594a1,62c53aa0aa2bc9b5bcef82fb,2022-07-06_09h33.45.109,Colour_Asymmetry_Pilot,2022.1.3,Win32,60.0060006,62c50e9c1127f2cd403a315f,,,,,,,,,,,,,,,,,,,,,,,,,,,,,,,,,,,,,,,,,,,,,,,,,,,,,,,,,,,,,,,,,,,,,,,,,,,,,,,,,,,,,,,,,,,,,,,,,,,,,,,,,,,,,,,,,,,,,,,,,,,,,,,,,,,,,,,,,,,,,,,,,,,,,,,,,,,,,,,,,,,
0,28,28,81,1,,60db74fcb5f4526ce90594a1,62c53aa0aa2bc9b5bcef82fb,2022-07-06_09h33.45.109,Colour_Asymmetry_Pilot,2022.1.3,Win32,60.0060006,62c50e9c1127f2cd403a315f,,,,,,,,,,,,,,,,,,,,,,,,,,,,,,,,,,,,,,,,,,,,,,,,,,,,,,,,,,,,,,,,,,,,,,,,,,,,,,,,,,,,,,,,,,,,,,,,,,,,,,,,,,,,,,,,,,,,,,,,,,,,,,,,,,,,,,,,,,,,,,,,,,,,,,,,,,,,,,,,,,,
0,29,29,34,1,,60db74fcb5f4526ce90594a1,62c53aa0aa2bc9b5bcef82fb,2022-07-06_09h33.45.109,Colour_Asymmetry_Pilot,2022.1.3,Win32,60.0060006,62c50e9c1127f2cd403a315f,,,,,,,,,,,,,,,,,,,,,,,,,,,,,,,,,,,,,,,,,,,,,,,,,,,,,,,,,,,,,,,,,,,,,,,,,,,,,,,,,,,,,,,,,,,,,,,,,,,,,,,,,,,,,,,,,,,,,,,,,,,,,,,,,,,,,,,,,,,,,,,,,,,,,,,,,,,,,,,,,,,
0,30,30,85,1,,60db74fcb5f4526ce90594a1,62c53aa0aa2bc9b5bcef82fb,2022-07-06_09h33.45.109,Colour_Asymmetry_Pilot,2022.1.3,Win32,60.0060006,62c50e9c1127f2cd403a315f,,,,,,,,,,,,,,,,,,,,,,,,,,,,,,,,,,,,,,,,,,,,,,,,,,,,,,,,,,,,,,,,,,,,,,,,,,,,,,,,,,,,,,,,,,,,,,,,,,,,,,,,,,,,,,,,,,,,,,,,,,,,,,,,,,,,,,,,,,,,,,,,,,,,,,,,,,,,,,,,,,,
0,31,31,47,1,,60db74fcb5f4526ce90594a1,62c53aa0aa2bc9b5bcef82fb,2022-07-06_09h33.45.109,Colour_Asymmetry_Pilot,2022.1.3,Win32,60.0060006,62c50e9c1127f2cd403a315f,,,,,,,,,,,,,,,,,,,,,,,,,,,,,,,,,,,,,,,,,,,,,,,,,,,,,,,,,,,,,,,,,,,,,,,,,,,,,,,,,,,,,,,,,,,,,,,,,,,,,,,,,,,,,,,,,,,,,,,,,,,,,,,,,,,,,,,,,,,,,,,,,,,,,,,,,,,,,,,,,,,
0,32,32,73,1,,60db74fcb5f4526ce90594a1,62c53aa0aa2bc9b5bcef82fb,2022-07-06_09h33.45.109,Colour_Asymmetry_Pilot,2022.1.3,Win32,60.0060006,62c50e9c1127f2cd403a315f,,,,,,,,,,,,,,,,,,,,,,,,,,,,,,,,,,,,,,,,,,,,,,,,,,,,,,,,,,,,,,,,,,,,,,,,,,,,,,,,,,,,,,,,,,,,,,,,,,,,,,,,,,,,,,,,,,,,,,,,,,,,,,,,,,,,,,,,,,,,,,,,,,,,,,,,,,,,,,,,,,,
0,33,33,87,1,,60db74fcb5f4526ce90594a1,62c53aa0aa2bc9b5bcef82fb,2022-07-06_09h33.45.109,Colour_Asymmetry_Pilot,2022.1.3,Win32,60.0060006,62c50e9c1127f2cd403a315f,,,,,,,,,,,,,,,,,,,,,,,,,,,,,,,,,,,,,,,,,,,,,,,,,,,,,,,,,,,,,,,,,,,,,,,,,,,,,,,,,,,,,,,,,,,,,,,,,,,,,,,,,,,,,,,,,,,,,,,,,,,,,,,,,,,,,,,,,,,,,,,,,,,,,,,,,,,,,,,,,,,
0,34,34,58,1,,60db74fcb5f4526ce90594a1,62c53aa0aa2bc9b5bcef82fb,2022-07-06_09h33.45.109,Colour_Asymmetry_Pilot,2022.1.3,Win32,60.0060006,62c50e9c1127f2cd403a315f,,,,,,,,,,,,,,,,,,,,,,,,,,,,,,,,,,,,,,,,,,,,,,,,,,,,,,,,,,,,,,,,,,,,,,,,,,,,,,,,,,,,,,,,,,,,,,,,,,,,,,,,,,,,,,,,,,,,,,,,,,,,,,,,,,,,,,,,,,,,,,,,,,,,,,,,,,,,,,,,,,,
0,35,35,86,1,,60db74fcb5f4526ce90594a1,62c53aa0aa2bc9b5bcef82fb,2022-07-06_09h33.45.109,Colour_Asymmetry_Pilot,2022.1.3,Win32,60.0060006,62c50e9c1127f2cd403a315f,,,,,,,,,,,,,,,,,,,,,,,,,,,,,,,,,,,,,,,,,,,,,,,,,,,,,,,,,,,,,,,,,,,,,,,,,,,,,,,,,,,,,,,,,,,,,,,,,,,,,,,,,,,,,,,,,,,,,,,,,,,,,,,,,,,,,,,,,,,,,,,,,,,,,,,,,,,,,,,,,,,
0,36,36,49,1,,60db74fcb5f4526ce90594a1,62c53aa0aa2bc9b5bcef82fb,2022-07-06_09h33.45.109,Colour_Asymmetry_Pilot,2022.1.3,Win32,60.0060006,62c50e9c1127f2cd403a315f,,,,,,,,,,,,,,,,,,,,,,,,,,,,,,,,,,,,,,,,,,,,,,,,,,,,,,,,,,,,,,,,,,,,,,,,,,,,,,,,,,,,,,,,,,,,,,,,,,,,,,,,,,,,,,,,,,,,,,,,,,,,,,,,,,,,,,,,,,,,,,,,,,,,,,,,,,,,,,,,,,,
0,37,37,1,1,,60db74fcb5f4526ce90594a1,62c53aa0aa2bc9b5bcef82fb,2022-07-06_09h33.45.109,Colour_Asymmetry_Pilot,2022.1.3,Win32,60.0060006,62c50e9c1127f2cd403a315f,,,,,,,,,,,,,,,,,,,,,,,,,,,,,,,,,,,,,,,,,,,,,,,,,,,,,,,,,,,,,,,,,,,,,,,,,,,,,,,,,,,,,,,,,,,,,,,,,,,,,,,,,,,,,,,,,,,,,,,,,,,,,,,,,,,,,,,,,,,,,,,,,,,,,,,,,,,,,,,,,,,
0,38,38,74,1,,60db74fcb5f4526ce90594a1,62c53aa0aa2bc9b5bcef82fb,2022-07-06_09h33.45.109,Colour_Asymmetry_Pilot,2022.1.3,Win32,60.0060006,62c50e9c1127f2cd403a315f,,,,,,,,,,,,,,,,,,,,,,,,,,,,,,,,,,,,,,,,,,,,,,,,,,,,,,,,,,,,,,,,,,,,,,,,,,,,,,,,,,,,,,,,,,,,,,,,,,,,,,,,,,,,,,,,,,,,,,,,,,,,,,,,,,,,,,,,,,,,,,,,,,,,,,,,,,,,,,,,,,,
0,39,39,76,1,,60db74fcb5f4526ce90594a1,62c53aa0aa2bc9b5bcef82fb,2022-07-06_09h33.45.109,Colour_Asymmetry_Pilot,2022.1.3,Win32,60.0060006,62c50e9c1127f2cd403a315f,,,,,,,,,,,,,,,,,,,,,,,,,,,,,,,,,,,,,,,,,,,,,,,,,,,,,,,,,,,,,,,,,,,,,,,,,,,,,,,,,,,,,,,,,,,,,,,,,,,,,,,,,,,,,,,,,,,,,,,,,,,,,,,,,,,,,,,,,,,,,,,,,,,,,,,,,,,,,,,,,,,
0,40,40,52,1,,60db74fcb5f4526ce90594a1,62c53aa0aa2bc9b5bcef82fb,2022-07-06_09h33.45.109,Colour_Asymmetry_Pilot,2022.1.3,Win32,60.0060006,62c50e9c1127f2cd403a315f,,,,,,,,,,,,,,,,,,,,,,,,,,,,,,,,,,,,,,,,,,,,,,,,,,,,,,,,,,,,,,,,,,,,,,,,,,,,,,,,,,,,,,,,,,,,,,,,,,,,,,,,,,,,,,,,,,,,,,,,,,,,,,,,,,,,,,,,,,,,,,,,,,,,,,,,,,,,,,,,,,,
0,41,41,38,1,,60db74fcb5f4526ce90594a1,62c53aa0aa2bc9b5bcef82fb,2022-07-06_09h33.45.109,Colour_Asymmetry_Pilot,2022.1.3,Win32,60.0060006,62c50e9c1127f2cd403a315f,,,,,,,,,,,,,,,,,,,,,,,,,,,,,,,,,,,,,,,,,,,,,,,,,,,,,,,,,,,,,,,,,,,,,,,,,,,,,,,,,,,,,,,,,,,,,,,,,,,,,,,,,,,,,,,,,,,,,,,,,,,,,,,,,,,,,,,,,,,,,,,,,,,,,,,,,,,,,,,,,,,
0,42,42,4,1,,60db74fcb5f4526ce90594a1,62c53aa0aa2bc9b5bcef82fb,2022-07-06_09h33.45.109,Colour_Asymmetry_Pilot,2022.1.3,Win32,60.0060006,62c50e9c1127f2cd403a315f,,,,,,,,,,,,,,,,,,,,,,,,,,,,,,,,,,,,,,,,,,,,,,,,,,,,,,,,,,,,,,,,,,,,,,,,,,,,,,,,,,,,,,,,,,,,,,,,,,,,,,,,,,,,,,,,,,,,,,,,,,,,,,,,,,,,,,,,,,,,,,,,,,,,,,,,,,,,,,,,,,,
0,43,43,75,1,,60db74fcb5f4526ce90594a1,62c53aa0aa2bc9b5bcef82fb,2022-07-06_09h33.45.109,Colour_Asymmetry_Pilot,2022.1.3,Win32,60.0060006,62c50e9c1127f2cd403a315f,,,,,,,,,,,,,,,,,,,,,,,,,,,,,,,,,,,,,,,,,,,,,,,,,,,,,,,,,,,,,,,,,,,,,,,,,,,,,,,,,,,,,,,,,,,,,,,,,,,,,,,,,,,,,,,,,,,,,,,,,,,,,,,,,,,,,,,,,,,,,,,,,,,,,,,,,,,,,,,,,,,
0,44,44,64,1,,60db74fcb5f4526ce90594a1,62c53aa0aa2bc9b5bcef82fb,2022-07-06_09h33.45.109,Colour_Asymmetry_Pilot,2022.1.3,Win32,60.0060006,62c50e9c1127f2cd403a315f,,,,,,,,,,,,,,,,,,,,,,,,,,,,,,,,,,,,,,,,,,,,,,,,,,,,,,,,,,,,,,,,,,,,,,,,,,,,,,,,,,,,,,,,,,,,,,,,,,,,,,,,,,,,,,,,,,,,,,,,,,,,,,,,,,,,,,,,,,,,,,,,,,,,,,,,,,,,,,,,,,,
0,45,45,61,1,,60db74fcb5f4526ce90594a1,62c53aa0aa2bc9b5bcef82fb,2022-07-06_09h33.45.109,Colour_Asymmetry_Pilot,2022.1.3,Win32,60.0060006,62c50e9c1127f2cd403a315f,,,,,,,,,,,,,,,,,,,,,,,,,,,,,,,,,,,,,,,,,,,,,,,,,,,,,,,,,,,,,,,,,,,,,,,,,,,,,,,,,,,,,,,,,,,,,,,,,,,,,,,,,,,,,,,,,,,,,,,,,,,,,,,,,,,,,,,,,,,,,,,,,,,,,,,,,,,,,,,,,,,
0,46,46,60,1,,60db74fcb5f4526ce90594a1,62c53aa0aa2bc9b5bcef82fb,2022-07-06_09h33.45.109,Colour_Asymmetry_Pilot,2022.1.3,Win32,60.0060006,62c50e9c1127f2cd403a315f,,,,,,,,,,,,,,,,,,,,,,,,,,,,,,,,,,,,,,,,,,,,,,,,,,,,,,,,,,,,,,,,,,,,,,,,,,,,,,,,,,,,,,,,,,,,,,,,,,,,,,,,,,,,,,,,,,,,,,,,,,,,,,,,,,,,,,,,,,,,,,,,,,,,,,,,,,,,,,,,,,,
0,47,47,2,1,,60db74fcb5f4526ce90594a1,62c53aa0aa2bc9b5bcef82fb,2022-07-06_09h33.45.109,Colour_Asymmetry_Pilot,2022.1.3,Win32,60.0060006,62c50e9c1127f2cd403a315f,,,,,,,,,,,,,,,,,,,,,,,,,,,,,,,,,,,,,,,,,,,,,,,,,,,,,,,,,,,,,,,,,,,,,,,,,,,,,,,,,,,,,,,,,,,,,,,,,,,,,,,,,,,,,,,,,,,,,,,,,,,,,,,,,,,,,,,,,,,,,,,,,,,,,,,,,,,,,,,,,,,
0,48,48,82,1,,60db74fcb5f4526ce90594a1,62c53aa0aa2bc9b5bcef82fb,2022-07-06_09h33.45.109,Colour_Asymmetry_Pilot,2022.1.3,Win32,60.0060006,62c50e9c1127f2cd403a315f,,,,,,,,,,,,,,,,,,,,,,,,,,,,,,,,,,,,,,,,,,,,,,,,,,,,,,,,,,,,,,,,,,,,,,,,,,,,,,,,,,,,,,,,,,,,,,,,,,,,,,,,,,,,,,,,,,,,,,,,,,,,,,,,,,,,,,,,,,,,,,,,,,,,,,,,,,,,,,,,,,,
0,49,49,71,1,,60db74fcb5f4526ce90594a1,62c53aa0aa2bc9b5bcef82fb,2022-07-06_09h33.45.109,Colour_Asymmetry_Pilot,2022.1.3,Win32,60.0060006,62c50e9c1127f2cd403a315f,,,,,,,,,,,,,,,,,,,,,,,,,,,,,,,,,,,,,,,,,,,,,,,,,,,,,,,,,,,,,,,,,,,,,,,,,,,,,,,,,,,,,,,,,,,,,,,,,,,,,,,,,,,,,,,,,,,,,,,,,,,,,,,,,,,,,,,,,,,,,,,,,,,,,,,,,,,,,,,,,,,
0,50,50,48,1,,60db74fcb5f4526ce90594a1,62c53aa0aa2bc9b5bcef82fb,2022-07-06_09h33.45.109,Colour_Asymmetry_Pilot,2022.1.3,Win32,60.0060006,62c50e9c1127f2cd403a315f,,,,,,,,,,,,,,,,,,,,,,,,,,,,,,,,,,,,,,,,,,,,,,,,,,,,,,,,,,,,,,,,,,,,,,,,,,,,,,,,,,,,,,,,,,,,,,,,,,,,,,,,,,,,,,,,,,,,,,,,,,,,,,,,,,,,,,,,,,,,,,,,,,,,,,,,,,,,,,,,,,,
0,51,51,84,1,,60db74fcb5f4526ce90594a1,62c53aa0aa2bc9b5bcef82fb,2022-07-06_09h33.45.109,Colour_Asymmetry_Pilot,2022.1.3,Win32,60.0060006,62c50e9c1127f2cd403a315f,,,,,,,,,,,,,,,,,,,,,,,,,,,,,,,,,,,,,,,,,,,,,,,,,,,,,,,,,,,,,,,,,,,,,,,,,,,,,,,,,,,,,,,,,,,,,,,,,,,,,,,,,,,,,,,,,,,,,,,,,,,,,,,,,,,,,,,,,,,,,,,,,,,,,,,,,,,,,,,,,,,
0,52,52,63,1,,60db74fcb5f4526ce90594a1,62c53aa0aa2bc9b5bcef82fb,2022-07-06_09h33.45.109,Colour_Asymmetry_Pilot,2022.1.3,Win32,60.0060006,62c50e9c1127f2cd403a315f,,,,,,,,,,,,,,,,,,,,,,,,,,,,,,,,,,,,,,,,,,,,,,,,,,,,,,,,,,,,,,,,,,,,,,,,,,,,,,,,,,,,,,,,,,,,,,,,,,,,,,,,,,,,,,,,,,,,,,,,,,,,,,,,,,,,,,,,,,,,,,,,,,,,,,,,,,,,,,,,,,,
0,53,53,20,1,,60db74fcb5f4526ce90594a1,62c53aa0aa2bc9b5bcef82fb,2022-07-06_09h33.45.109,Colour_Asymmetry_Pilot,2022.1.3,Win32,60.0060006,62c50e9c1127f2cd403a315f,,,,,,,,,,,,,,,,,,,,,,,,,,,,,,,,,,,,,,,,,,,,,,,,,,,,,,,,,,,,,,,,,,,,,,,,,,,,,,,,,,,,,,,,,,,,,,,,,,,,,,,,,,,,,,,,,,,,,,,,,,,,,,,,,,,,,,,,,,,,,,,,,,,,,,,,,,,,,,,,,,,
0,54,54,0,1,,60db74fcb5f4526ce90594a1,62c53aa0aa2bc9b5bcef82fb,2022-07-06_09h33.45.109,Colour_Asymmetry_Pilot,2022.1.3,Win32,60.0060006,62c50e9c1127f2cd403a315f,,,,,,,,,,,,,,,,,,,,,,,,,,,,,,,,,,,,,,,,,,,,,,,,,,,,,,,,,,,,,,,,,,,,,,,,,,,,,,,,,,,,,,,,,,,,,,,,,,,,,,,,,,,,,,,,,,,,,,,,,,,,,,,,,,,,,,,,,,,,,,,,,,,,,,,,,,,,,,,,,,,
0,55,55,69,1,,60db74fcb5f4526ce90594a1,62c53aa0aa2bc9b5bcef82fb,2022-07-06_09h33.45.109,Colour_Asymmetry_Pilot,2022.1.3,Win32,60.0060006,62c50e9c1127f2cd403a315f,,,,,,,,,,,,,,,,,,,,,,,,,,,,,,,,,,,,,,,,,,,,,,,,,,,,,,,,,,,,,,,,,,,,,,,,,,,,,,,,,,,,,,,,,,,,,,,,,,,,,,,,,,,,,,,,,,,,,,,,,,,,,,,,,,,,,,,,,,,,,,,,,,,,,,,,,,,,,,,,,,,
0,56,56,90,1,,60db74fcb5f4526ce90594a1,62c53aa0aa2bc9b5bcef82fb,2022-07-06_09h33.45.109,Colour_Asymmetry_Pilot,2022.1.3,Win32,60.0060006,62c50e9c1127f2cd403a315f,,,,,,,,,,,,,,,,,,,,,,,,,,,,,,,,,,,,,,,,,,,,,,,,,,,,,,,,,,,,,,,,,,,,,,,,,,,,,,,,,,,,,,,,,,,,,,,,,,,,,,,,,,,,,,,,,,,,,,,,,,,,,,,,,,,,,,,,,,,,,,,,,,,,,,,,,,,,,,,,,,,
0,57,57,29,1,,60db74fcb5f4526ce90594a1,62c53aa0aa2bc9b5bcef82fb,2022-07-06_09h33.45.109,Colour_Asymmetry_Pilot,2022.1.3,Win32,60.0060006,62c50e9c1127f2cd403a315f,,,,,,,,,,,,,,,,,,,,,,,,,,,,,,,,,,,,,,,,,,,,,,,,,,,,,,,,,,,,,,,,,,,,,,,,,,,,,,,,,,,,,,,,,,,,,,,,,,,,,,,,,,,,,,,,,,,,,,,,,,,,,,,,,,,,,,,,,,,,,,,,,,,,,,,,,,,,,,,,,,,
0,58,58,3,1,,60db74fcb5f4526ce90594a1,62c53aa0aa2bc9b5bcef82fb,2022-07-06_09h33.45.109,Colour_Asymmetry_Pilot,2022.1.3,Win32,60.0060006,62c50e9c1127f2cd403a315f,,,,,,,,,,,,,,,,,,,,,,,,,,,,,,,,,,,,,,,,,,,,,,,,,,,,,,,,,,,,,,,,,,,,,,,,,,,,,,,,,,,,,,,,,,,,,,,,,,,,,,,,,,,,,,,,,,,,,,,,,,,,,,,,,,,,,,,,,,,,,,,,,,,,,,,,,,,,,,,,,,,
0,59,59,16,1,,60db74fcb5f4526ce90594a1,62c53aa0aa2bc9b5bcef82fb,2022-07-06_09h33.45.109,Colour_Asymmetry_Pilot,2022.1.3,Win32,60.0060006,62c50e9c1127f2cd403a315f,,,,,,,,,,,,,,,,,,,,,,,,,,,,,,,,,,,,,,,,,,,,,,,,,,,,,,,,,,,,,,,,,,,,,,,,,,,,,,,,,,,,,,,,,,,,,,,,,,,,,,,,,,,,,,,,,,,,,,,,,,,,,,,,,,,,,,,,,,,,,,,,,,,,,,,,,,,,,,,,,,,
0,60,60,53,1,,60db74fcb5f4526ce90594a1,62c53aa0aa2bc9b5bcef82fb,2022-07-06_09h33.45.109,Colour_Asymmetry_Pilot,2022.1.3,Win32,60.0060006,62c50e9c1127f2cd403a315f,,,,,,,,,,,,,,,,,,,,,,,,,,,,,,,,,,,,,,,,,,,,,,,,,,,,,,,,,,,,,,,,,,,,,,,,,,,,,,,,,,,,,,,,,,,,,,,,,,,,,,,,,,,,,,,,,,,,,,,,,,,,,,,,,,,,,,,,,,,,,,,,,,,,,,,,,,,,,,,,,,,
0,61,61,37,1,,60db74fcb5f4526ce90594a1,62c53aa0aa2bc9b5bcef82fb,2022-07-06_09h33.45.109,Colour_Asymmetry_Pilot,2022.1.3,Win32,60.0060006,62c50e9c1127f2cd403a315f,,,,,,,,,,,,,,,,,,,,,,,,,,,,,,,,,,,,,,,,,,,,,,,,,,,,,,,,,,,,,,,,,,,,,,,,,,,,,,,,,,,,,,,,,,,,,,,,,,,,,,,,,,,,,,,,,,,,,,,,,,,,,,,,,,,,,,,,,,,,,,,,,,,,,,,,,,,,,,,,,,,
0,62,62,18,1,,60db74fcb5f4526ce90594a1,62c53aa0aa2bc9b5bcef82fb,2022-07-06_09h33.45.109,Colour_Asymmetry_Pilot,2022.1.3,Win32,60.0060006,62c50e9c1127f2cd403a315f,,,,,,,,,,,,,,,,,,,,,,,,,,,,,,,,,,,,,,,,,,,,,,,,,,,,,,,,,,,,,,,,,,,,,,,,,,,,,,,,,,,,,,,,,,,,,,,,,,,,,,,,,,,,,,,,,,,,,,,,,,,,,,,,,,,,,,,,,,,,,,,,,,,,,,,,,,,,,,,,,,,
0,63,63,59,1,,60db74fcb5f4526ce90594a1,62c53aa0aa2bc9b5bcef82fb,2022-07-06_09h33.45.109,Colour_Asymmetry_Pilot,2022.1.3,Win32,60.0060006,62c50e9c1127f2cd403a315f,,,,,,,,,,,,,,,,,,,,,,,,,,,,,,,,,,,,,,,,,,,,,,,,,,,,,,,,,,,,,,,,,,,,,,,,,,,,,,,,,,,,,,,,,,,,,,,,,,,,,,,,,,,,,,,,,,,,,,,,,,,,,,,,,,,,,,,,,,,,,,,,,,,,,,,,,,,,,,,,,,,
0,64,64,35,1,,60db74fcb5f4526ce90594a1,62c53aa0aa2bc9b5bcef82fb,2022-07-06_09h33.45.109,Colour_Asymmetry_Pilot,2022.1.3,Win32,60.0060006,62c50e9c1127f2cd403a315f,,,,,,,,,,,,,,,,,,,,,,,,,,,,,,,,,,,,,,,,,,,,,,,,,,,,,,,,,,,,,,,,,,,,,,,,,,,,,,,,,,,,,,,,,,,,,,,,,,,,,,,,,,,,,,,,,,,,,,,,,,,,,,,,,,,,,,,,,,,,,,,,,,,,,,,,,,,,,,,,,,,
0,65,65,51,1,,60db74fcb5f4526ce90594a1,62c53aa0aa2bc9b5bcef82fb,2022-07-06_09h33.45.109,Colour_Asymmetry_Pilot,2022.1.3,Win32,60.0060006,62c50e9c1127f2cd403a315f,,,,,,,,,,,,,,,,,,,,,,,,,,,,,,,,,,,,,,,,,,,,,,,,,,,,,,,,,,,,,,,,,,,,,,,,,,,,,,,,,,,,,,,,,,,,,,,,,,,,,,,,,,,,,,,,,,,,,,,,,,,,,,,,,,,,,,,,,,,,,,,,,,,,,,,,,,,,,,,,,,,
0,66,66,39,1,,60db74fcb5f4526ce90594a1,62c53aa0aa2bc9b5bcef82fb,2022-07-06_09h33.45.109,Colour_Asymmetry_Pilot,2022.1.3,Win32,60.0060006,62c50e9c1127f2cd403a315f,,,,,,,,,,,,,,,,,,,,,,,,,,,,,,,,,,,,,,,,,,,,,,,,,,,,,,,,,,,,,,,,,,,,,,,,,,,,,,,,,,,,,,,,,,,,,,,,,,,,,,,,,,,,,,,,,,,,,,,,,,,,,,,,,,,,,,,,,,,,,,,,,,,,,,,,,,,,,,,,,,,
0,67,67,5,1,,60db74fcb5f4526ce90594a1,62c53aa0aa2bc9b5bcef82fb,2022-07-06_09h33.45.109,Colour_Asymmetry_Pilot,2022.1.3,Win32,60.0060006,62c50e9c1127f2cd403a315f,,,,,,,,,,,,,,,,,,,,,,,,,,,,,,,,,,,,,,,,,,,,,,,,,,,,,,,,,,,,,,,,,,,,,,,,,,,,,,,,,,,,,,,,,,,,,,,,,,,,,,,,,,,,,,,,,,,,,,,,,,,,,,,,,,,,,,,,,,,,,,,,,,,,,,,,,,,,,,,,,,,
0,68,68,32,1,,60db74fcb5f4526ce90594a1,62c53aa0aa2bc9b5bcef82fb,2022-07-06_09h33.45.109,Colour_Asymmetry_Pilot,2022.1.3,Win32,60.0060006,62c50e9c1127f2cd403a315f,,,,,,,,,,,,,,,,,,,,,,,,,,,,,,,,,,,,,,,,,,,,,,,,,,,,,,,,,,,,,,,,,,,,,,,,,,,,,,,,,,,,,,,,,,,,,,,,,,,,,,,,,,,,,,,,,,,,,,,,,,,,,,,,,,,,,,,,,,,,,,,,,,,,,,,,,,,,,,,,,,,
0,69,69,22,1,,60db74fcb5f4526ce90594a1,62c53aa0aa2bc9b5bcef82fb,2022-07-06_09h33.45.109,Colour_Asymmetry_Pilot,2022.1.3,Win32,60.0060006,62c50e9c1127f2cd403a315f,,,,,,,,,,,,,,,,,,,,,,,,,,,,,,,,,,,,,,,,,,,,,,,,,,,,,,,,,,,,,,,,,,,,,,,,,,,,,,,,,,,,,,,,,,,,,,,,,,,,,,,,,,,,,,,,,,,,,,,,,,,,,,,,,,,,,,,,,,,,,,,,,,,,,,,,,,,,,,,,,,,
0,70,70,36,1,,60db74fcb5f4526ce90594a1,62c53aa0aa2bc9b5bcef82fb,2022-07-06_09h33.45.109,Colour_Asymmetry_Pilot,2022.1.3,Win32,60.0060006,62c50e9c1127f2cd403a315f,,,,,,,,,,,,,,,,,,,,,,,,,,,,,,,,,,,,,,,,,,,,,,,,,,,,,,,,,,,,,,,,,,,,,,,,,,,,,,,,,,,,,,,,,,,,,,,,,,,,,,,,,,,,,,,,,,,,,,,,,,,,,,,,,,,,,,,,,,,,,,,,,,,,,,,,,,,,,,,,,,,
0,71,71,15,1,,60db74fcb5f4526ce90594a1,62c53aa0aa2bc9b5bcef82fb,2022-07-06_09h33.45.109,Colour_Asymmetry_Pilot,2022.1.3,Win32,60.0060006,62c50e9c1127f2cd403a315f,,,,,,,,,,,,,,,,,,,,,,,,,,,,,,,,,,,,,,,,,,,,,,,,,,,,,,,,,,,,,,,,,,,,,,,,,,,,,,,,,,,,,,,,,,,,,,,,,,,,,,,,,,,,,,,,,,,,,,,,,,,,,,,,,,,,,,,,,,,,,,,,,,,,,,,,,,,,,,,,,,,
0,72,72,40,1,,60db74fcb5f4526ce90594a1,62c53aa0aa2bc9b5bcef82fb,2022-07-06_09h33.45.109,Colour_Asymmetry_Pilot,2022.1.3,Win32,60.0060006,62c50e9c1127f2cd403a315f,,,,,,,,,,,,,,,,,,,,,,,,,,,,,,,,,,,,,,,,,,,,,,,,,,,,,,,,,,,,,,,,,,,,,,,,,,,,,,,,,,,,,,,,,,,,,,,,,,,,,,,,,,,,,,,,,,,,,,,,,,,,,,,,,,,,,,,,,,,,,,,,,,,,,,,,,,,,,,,,,,,
0,73,73,56,1,,60db74fcb5f4526ce90594a1,62c53aa0aa2bc9b5bcef82fb,2022-07-06_09h33.45.109,Colour_Asymmetry_Pilot,2022.1.3,Win32,60.0060006,62c50e9c1127f2cd403a315f,,,,,,,,,,,,,,,,,,,,,,,,,,,,,,,,,,,,,,,,,,,,,,,,,,,,,,,,,,,,,,,,,,,,,,,,,,,,,,,,,,,,,,,,,,,,,,,,,,,,,,,,,,,,,,,,,,,,,,,,,,,,,,,,,,,,,,,,,,,,,,,,,,,,,,,,,,,,,,,,,,,
0,74,74,91,1,,60db74fcb5f4526ce90594a1,62c53aa0aa2bc9b5bcef82fb,2022-07-06_09h33.45.109,Colour_Asymmetry_Pilot,2022.1.3,Win32,60.0060006,62c50e9c1127f2cd403a315f,,,,,,,,,,,,,,,,,,,,,,,,,,,,,,,,,,,,,,,,,,,,,,,,,,,,,,,,,,,,,,,,,,,,,,,,,,,,,,,,,,,,,,,,,,,,,,,,,,,,,,,,,,,,,,,,,,,,,,,,,,,,,,,,,,,,,,,,,,,,,,,,,,,,,,,,,,,,,,,,,,,
0,75,75,14,1,,60db74fcb5f4526ce90594a1,62c53aa0aa2bc9b5bcef82fb,2022-07-06_09h33.45.109,Colour_Asymmetry_Pilot,2022.1.3,Win32,60.0060006,62c50e9c1127f2cd403a315f,,,,,,,,,,,,,,,,,,,,,,,,,,,,,,,,,,,,,,,,,,,,,,,,,,,,,,,,,,,,,,,,,,,,,,,,,,,,,,,,,,,,,,,,,,,,,,,,,,,,,,,,,,,,,,,,,,,,,,,,,,,,,,,,,,,,,,,,,,,,,,,,,,,,,,,,,,,,,,,,,,,
0,76,76,65,1,,60db74fcb5f4526ce90594a1,62c53aa0aa2bc9b5bcef82fb,2022-07-06_09h33.45.109,Colour_Asymmetry_Pilot,2022.1.3,Win32,60.0060006,62c50e9c1127f2cd403a315f,,,,,,,,,,,,,,,,,,,,,,,,,,,,,,,,,,,,,,,,,,,,,,,,,,,,,,,,,,,,,,,,,,,,,,,,,,,,,,,,,,,,,,,,,,,,,,,,,,,,,,,,,,,,,,,,,,,,,,,,,,,,,,,,,,,,,,,,,,,,,,,,,,,,,,,,,,,,,,,,,,,
0,77,77,92,1,,60db74fcb5f4526ce90594a1,62c53aa0aa2bc9b5bcef82fb,2022-07-06_09h33.45.109,Colour_Asymmetry_Pilot,2022.1.3,Win32,60.0060006,62c50e9c1127f2cd403a315f,,,,,,,,,,,,,,,,,,,,,,,,,,,,,,,,,,,,,,,,,,,,,,,,,,,,,,,,,,,,,,,,,,,,,,,,,,,,,,,,,,,,,,,,,,,,,,,,,,,,,,,,,,,,,,,,,,,,,,,,,,,,,,,,,,,,,,,,,,,,,,,,,,,,,,,,,,,,,,,,,,,
0,78,78,13,1,,60db74fcb5f4526ce90594a1,62c53aa0aa2bc9b5bcef82fb,2022-07-06_09h33.45.109,Colour_Asymmetry_Pilot,2022.1.3,Win32,60.0060006,62c50e9c1127f2cd403a315f,,,,,,,,,,,,,,,,,,,,,,,,,,,,,,,,,,,,,,,,,,,,,,,,,,,,,,,,,,,,,,,,,,,,,,,,,,,,,,,,,,,,,,,,,,,,,,,,,,,,,,,,,,,,,,,,,,,,,,,,,,,,,,,,,,,,,,,,,,,,,,,,,,,,,,,,,,,,,,,,,,,
0,79,79,89,1,,60db74fcb5f4526ce90594a1,62c53aa0aa2bc9b5bcef82fb,2022-07-06_09h33.45.109,Colour_Asymmetry_Pilot,2022.1.3,Win32,60.0060006,62c50e9c1127f2cd403a315f,,,,,,,,,,,,,,,,,,,,,,,,,,,,,,,,,,,,,,,,,,,,,,,,,,,,,,,,,,,,,,,,,,,,,,,,,,,,,,,,,,,,,,,,,,,,,,,,,,,,,,,,,,,,,,,,,,,,,,,,,,,,,,,,,,,,,,,,,,,,,,,,,,,,,,,,,,,,,,,,,,,
0,80,80,10,1,,60db74fcb5f4526ce90594a1,62c53aa0aa2bc9b5bcef82fb,2022-07-06_09h33.45.109,Colour_Asymmetry_Pilot,2022.1.3,Win32,60.0060006,62c50e9c1127f2cd403a315f,,,,,,,,,,,,,,,,,,,,,,,,,,,,,,,,,,,,,,,,,,,,,,,,,,,,,,,,,,,,,,,,,,,,,,,,,,,,,,,,,,,,,,,,,,,,,,,,,,,,,,,,,,,,,,,,,,,,,,,,,,,,,,,,,,,,,,,,,,,,,,,,,,,,,,,,,,,,,,,,,,,
0,81,81,68,1,,60db74fcb5f4526ce90594a1,62c53aa0aa2bc9b5bcef82fb,2022-07-06_09h33.45.109,Colour_Asymmetry_Pilot,2022.1.3,Win32,60.0060006,62c50e9c1127f2cd403a315f,,,,,,,,,,,,,,,,,,,,,,,,,,,,,,,,,,,,,,,,,,,,,,,,,,,,,,,,,,,,,,,,,,,,,,,,,,,,,,,,,,,,,,,,,,,,,,,,,,,,,,,,,,,,,,,,,,,,,,,,,,,,,,,,,,,,,,,,,,,,,,,,,,,,,,,,,,,,,,,,,,,
0,82,82,17,1,,60db74fcb5f4526ce90594a1,62c53aa0aa2bc9b5bcef82fb,2022-07-06_09h33.45.109,Colour_Asymmetry_Pilot,2022.1.3,Win32,60.0060006,62c50e9c1127f2cd403a315f,,,,,,,,,,,,,,,,,,,,,,,,,,,,,,,,,,,,,,,,,,,,,,,,,,,,,,,,,,,,,,,,,,,,,,,,,,,,,,,,,,,,,,,,,,,,,,,,,,,,,,,,,,,,,,,,,,,,,,,,,,,,,,,,,,,,,,,,,,,,,,,,,,,,,,,,,,,,,,,,,,,
0,83,83,9,1,,60db74fcb5f4526ce90594a1,62c53aa0aa2bc9b5bcef82fb,2022-07-06_09h33.45.109,Colour_Asymmetry_Pilot,2022.1.3,Win32,60.0060006,62c50e9c1127f2cd403a315f,,,,,,,,,,,,,,,,,,,,,,,,,,,,,,,,,,,,,,,,,,,,,,,,,,,,,,,,,,,,,,,,,,,,,,,,,,,,,,,,,,,,,,,,,,,,,,,,,,,,,,,,,,,,,,,,,,,,,,,,,,,,,,,,,,,,,,,,,,,,,,,,,,,,,,,,,,,,,,,,,,,
0,84,84,55,1,,60db74fcb5f4526ce90594a1,62c53aa0aa2bc9b5bcef82fb,2022-07-06_09h33.45.109,Colour_Asymmetry_Pilot,2022.1.3,Win32,60.0060006,62c50e9c1127f2cd403a315f,,,,,,,,,,,,,,,,,,,,,,,,,,,,,,,,,,,,,,,,,,,,,,,,,,,,,,,,,,,,,,,,,,,,,,,,,,,,,,,,,,,,,,,,,,,,,,,,,,,,,,,,,,,,,,,,,,,,,,,,,,,,,,,,,,,,,,,,,,,,,,,,,,,,,,,,,,,,,,,,,,,
0,85,85,67,1,,60db74fcb5f4526ce90594a1,62c53aa0aa2bc9b5bcef82fb,2022-07-06_09h33.45.109,Colour_Asymmetry_Pilot,2022.1.3,Win32,60.0060006,62c50e9c1127f2cd403a315f,,,,,,,,,,,,,,,,,,,,,,,,,,,,,,,,,,,,,,,,,,,,,,,,,,,,,,,,,,,,,,,,,,,,,,,,,,,,,,,,,,,,,,,,,,,,,,,,,,,,,,,,,,,,,,,,,,,,,,,,,,,,,,,,,,,,,,,,,,,,,,,,,,,,,,,,,,,,,,,,,,,
0,86,86,31,1,,60db74fcb5f4526ce90594a1,62c53aa0aa2bc9b5bcef82fb,2022-07-06_09h33.45.109,Colour_Asymmetry_Pilot,2022.1.3,Win32,60.0060006,62c50e9c1127f2cd403a315f,,,,,,,,,,,,,,,,,,,,,,,,,,,,,,,,,,,,,,,,,,,,,,,,,,,,,,,,,,,,,,,,,,,,,,,,,,,,,,,,,,,,,,,,,,,,,,,,,,,,,,,,,,,,,,,,,,,,,,,,,,,,,,,,,,,,,,,,,,,,,,,,,,,,,,,,,,,,,,,,,,,
0,87,87,42,1,,60db74fcb5f4526ce90594a1,62c53aa0aa2bc9b5bcef82fb,2022-07-06_09h33.45.109,Colour_Asymmetry_Pilot,2022.1.3,Win32,60.0060006,62c50e9c1127f2cd403a315f,,,,,,,,,,,,,,,,,,,,,,,,,,,,,,,,,,,,,,,,,,,,,,,,,,,,,,,,,,,,,,,,,,,,,,,,,,,,,,,,,,,,,,,,,,,,,,,,,,,,,,,,,,,,,,,,,,,,,,,,,,,,,,,,,,,,,,,,,,,,,,,,,,,,,,,,,,,,,,,,,,,
0,88,88,7,1,,60db74fcb5f4526ce90594a1,62c53aa0aa2bc9b5bcef82fb,2022-07-06_09h33.45.109,Colour_Asymmetry_Pilot,2022.1.3,Win32,60.0060006,62c50e9c1127f2cd403a315f,,,,,,,,,,,,,,,,,,,,,,,,,,,,,,,,,,,,,,,,,,,,,,,,,,,,,,,,,,,,,,,,,,,,,,,,,,,,,,,,,,,,,,,,,,,,,,,,,,,,,,,,,,,,,,,,,,,,,,,,,,,,,,,,,,,,,,,,,,,,,,,,,,,,,,,,,,,,,,,,,,,
0,89,89,6,1,,60db74fcb5f4526ce90594a1,62c53aa0aa2bc9b5bcef82fb,2022-07-06_09h33.45.109,Colour_Asymmetry_Pilot,2022.1.3,Win32,60.0060006,62c50e9c1127f2cd403a315f,,,,,,,,,,,,,,,,,,,,,,,,,,,,,,,,,,,,,,,,,,,,,,,,,,,,,,,,,,,,,,,,,,,,,,,,,,,,,,,,,,,,,,,,,,,,,,,,,,,,,,,,,,,,,,,,,,,,,,,,,,,,,,,,,,,,,,,,,,,,,,,,,,,,,,,,,,,,,,,,,,,
0,90,90,25,1,,60db74fcb5f4526ce90594a1,62c53aa0aa2bc9b5bcef82fb,2022-07-06_09h33.45.109,Colour_Asymmetry_Pilot,2022.1.3,Win32,60.0060006,62c50e9c1127f2cd403a315f,,,,,,,,,,,,,,,,,,,,,,,,,,,,,,,,,,,,,,,,,,,,,,,,,,,,,,,,,,,,,,,,,,,,,,,,,,,,,,,,,,,,,,,,,,,,,,,,,,,,,,,,,,,,,,,,,,,,,,,,,,,,,,,,,,,,,,,,,,,,,,,,,,,,,,,,,,,,,,,,,,,
0,91,91,8,1,,60db74fcb5f4526ce90594a1,62c53aa0aa2bc9b5bcef82fb,2022-07-06_09h33.45.109,Colour_Asymmetry_Pilot,2022.1.3,Win32,60.0060006,62c50e9c1127f2cd403a315f,,,,,,,,,,,,,,,,,,,,,,,,,,,,,,,,,,,,,,,,,,,,,,,,,,,,,,,,,,,,,,,,,,,,,,,,,,,,,,,,,,,,,,,,,,,,,,,,,,,,,,,,,,,,,,,,,,,,,,,,,,,,,,,,,,,,,,,,,,,,,,,,,,,,,,,,,,,,,,,,,,,
0,92,92,83,1,,60db74fcb5f4526ce90594a1,62c53aa0aa2bc9b5bcef82fb,2022-07-06_09h33.45.109,Colour_Asymmetry_Pilot,2022.1.3,Win32,60.0060006,62c50e9c1127f2cd403a315f,,,,,,,,,,,,,,,,,,,,,,,,,,,,,,,,,,,,,,,,,,,,,,,,,,,,,,,,,,,,,,,,,,,,,,,,,,,,,,,,,,,,,,,,,,,,,,,,,,,,,,,,,,,,,,,,,,,,,,,,,,,,,,,,,,,,,,,,,,,,,,,,,,,,,,,,,,,,,,,,,,,
,,,,,,60db74fcb5f4526ce90594a1,62c53aa0aa2bc9b5bcef82fb,2022-07-06_09h33.45.109,Colour_Asymmetry_Pilot,2022.1.3,Win32,60.0060006,62c50e9c1127f2cd403a315f,0,0,0,112,1,onetwo,,,,,,,,,,,,,,,,,,,,,,,,,,,,,,,,,,,,,,,,,,,,,,,,,,,,,,,,,,,,,,,,,,,,,,,,,,,,,,,,,,,,,,,,,,,,,,,,,,,,,,,,,,,,,,,,,,,,,,,,,,,,,,,,,,,,,,,,,,,,,,,,,,,,,,,,,,,,,
,,,,,,60db74fcb5f4526ce90594a1,62c53aa0aa2bc9b5bcef82fb,2022-07-06_09h33.45.109,Colour_Asymmetry_Pilot,2022.1.3,Win32,60.0060006,62c50e9c1127f2cd403a315f,0,1,1,134,1,fourtwo,,,,,,,,,,,,,,,,,,,,,,,,,,,,,,,,,,,,,,,,,,,,,,,,,,,,,,,,,,,,,,,,,,,,,,,,,,,,,,,,,,,,,,,,,,,,,,,,,,,,,,,,,,,,,,,,,,,,,,,,,,,,,,,,,,,,,,,,,,,,,,,,,,,,,,,,,,,,,
,,,,,,60db74fcb5f4526ce90594a1,62c53aa0aa2bc9b5bcef82fb,2022-07-06_09h33.45.109,Colour_Asymmetry_Pilot,2022.1.3,Win32,60.0060006,62c50e9c1127f2cd403a315f,0,2,2,59,1,twofour,,,,,,,,,,,,,,,,,,,,,,,,,,,,,,,,,,,,,,,,,,,,,,,,,,,,,,,,,,,,,,,,,,,,,,,,,,,,,,,,,,,,,,,,,,,,,,,,,,,,,,,,,,,,,,,,,,,,,,,,,,,,,,,,,,,,,,,,,,,,,,,,,,,,,,,,,,,,,
,,,,,,60db74fcb5f4526ce90594a1,62c53aa0aa2bc9b5bcef82fb,2022-07-06_09h33.45.109,Colour_Asymmetry_Pilot,2022.1.3,Win32,60.0060006,62c50e9c1127f2cd403a315f,0,3,3,47,1,fourthree,,,,,,,,,,,,,,,,,,,,,,,,,,,,,,,,,,,,,,,,,,,,,,,,,,,,,,,,,,,,,,,,,,,,,,,,,,,,,,,,,,,,,,,,,,,,,,,,,,,,,,,,,,,,,,,,,,,,,,,,,,,,,,,,,,,,,,,,,,,,,,,,,,,,,,,,,,,,,
,,,,,,60db74fcb5f4526ce90594a1,62c53aa0aa2bc9b5bcef82fb,2022-07-06_09h33.45.109,Colour_Asymmetry_Pilot,2022.1.3,Win32,60.0060006,62c50e9c1127f2cd403a315f,0,4,4,143,1,fourthree,,,,,,,,,,,,,,,,,,,,,,,,,,,,,,,,,,,,,,,,,,,,,,,,,,,,,,,,,,,,,,,,,,,,,,,,,,,,,,,,,,,,,,,,,,,,,,,,,,,,,,,,,,,,,,,,,,,,,,,,,,,,,,,,,,,,,,,,,,,,,,,,,,,,,,,,,,,,,
,,,,,,60db74fcb5f4526ce90594a1,62c53aa0aa2bc9b5bcef82fb,2022-07-06_09h33.45.109,Colour_Asymmetry_Pilot,2022.1.3,Win32,60.0060006,62c50e9c1127f2cd403a315f,0,5,5,159,1,fourthree,,,,,,,,,,,,,,,,,,,,,,,,,,,,,,,,,,,,,,,,,,,,,,,,,,,,,,,,,,,,,,,,,,,,,,,,,,,,,,,,,,,,,,,,,,,,,,,,,,,,,,,,,,,,,,,,,,,,,,,,,,,,,,,,,,,,,,,,,,,,,,,,,,,,,,,,,,,,,
,,,,,,60db74fcb5f4526ce90594a1,62c53aa0aa2bc9b5bcef82fb,2022-07-06_09h33.45.109,Colour_Asymmetry_Pilot,2022.1.3,Win32,60.0060006,62c50e9c1127f2cd403a315f,0,6,6,42,1,twoone,,,,,,,,,,,,,,,,,,,,,,,,,,,,,,,,,,,,,,,,,,,,,,,,,,,,,,,,,,,,,,,,,,,,,,,,,,,,,,,,,,,,,,,,,,,,,,,,,,,,,,,,,,,,,,,,,,,,,,,,,,,,,,,,,,,,,,,,,,,,,,,,,,,,,,,,,,,,,
,,,,,,60db74fcb5f4526ce90594a1,62c53aa0aa2bc9b5bcef82fb,2022-07-06_09h33.45.109,Colour_Asymmetry_Pilot,2022.1.3,Win32,60.0060006,62c50e9c1127f2cd403a315f,0,7,7,94,1,fourtwo,,,,,,,,,,,,,,,,,,,,,,,,,,,,,,,,,,,,,,,,,,,,,,,,,,,,,,,,,,,,,,,,,,,,,,,,,,,,,,,,,,,,,,,,,,,,,,,,,,,,,,,,,,,,,,,,,,,,,,,,,,,,,,,,,,,,,,,,,,,,,,,,,,,,,,,,,,,,,
,,,,,,60db74fcb5f4526ce90594a1,62c53aa0aa2bc9b5bcef82fb,2022-07-06_09h33.45.109,Colour_Asymmetry_Pilot,2022.1.3,Win32,60.0060006,62c50e9c1127f2cd403a315f,0,8,8,135,1,fourthree,,,,,,,,,,,,,,,,,,,,,,,,,,,,,,,,,,,,,,,,,,,,,,,,,,,,,,,,,,,,,,,,,,,,,,,,,,,,,,,,,,,,,,,,,,,,,,,,,,,,,,,,,,,,,,,,,,,,,,,,,,,,,,,,,,,,,,,,,,,,,,,,,,,,,,,,,,,,,
,,,,,,60db74fcb5f4526ce90594a1,62c53aa0aa2bc9b5bcef82fb,2022-07-06_09h33.45.109,Colour_Asymmetry_Pilot,2022.1.3,Win32,60.0060006,62c50e9c1127f2cd403a315f,0,9,9,18,1,twoone,,,,,,,,,,,,,,,,,,,,,,,,,,,,,,,,,,,,,,,,,,,,,,,,,,,,,,,,,,,,,,,,,,,,,,,,,,,,,,,,,,,,,,,,,,,,,,,,,,,,,,,,,,,,,,,,,,,,,,,,,,,,,,,,,,,,,,,,,,,,,,,,,,,,,,,,,,,,,
,,,,,,60db74fcb5f4526ce90594a1,62c53aa0aa2bc9b5bcef82fb,2022-07-06_09h33.45.109,Colour_Asymmetry_Pilot,2022.1.3,Win32,60.0060006,62c50e9c1127f2cd403a315f,0,10,10,136,1,onetwo,,,,,,,,,,,,,,,,,,,,,,,,,,,,,,,,,,,,,,,,,,,,,,,,,,,,,,,,,,,,,,,,,,,,,,,,,,,,,,,,,,,,,,,,,,,,,,,,,,,,,,,,,,,,,,,,,,,,,,,,,,,,,,,,,,,,,,,,,,,,,,,,,,,,,,,,,,,,,
,,,,,,60db74fcb5f4526ce90594a1,62c53aa0aa2bc9b5bcef82fb,2022-07-06_09h33.45.109,Colour_Asymmetry_Pilot,2022.1.3,Win32,60.0060006,62c50e9c1127f2cd403a315f,0,11,11,41,1,onethree,,,,,,,,,,,,,,,,,,,,,,,,,,,,,,,,,,,,,,,,,,,,,,,,,,,,,,,,,,,,,,,,,,,,,,,,,,,,,,,,,,,,,,,,,,,,,,,,,,,,,,,,,,,,,,,,,,,,,,,,,,,,,,,,,,,,,,,,,,,,,,,,,,,,,,,,,,,,,
,,,,,,60db74fcb5f4526ce90594a1,62c53aa0aa2bc9b5bcef82fb,2022-07-06_09h33.45.109,Colour_Asymmetry_Pilot,2022.1.3,Win32,60.0060006,62c50e9c1127f2cd403a315f,0,12,12,90,1,twoone,,,,,,,,,,,,,,,,,,,,,,,,,,,,,,,,,,,,,,,,,,,,,,,,,,,,,,,,,,,,,,,,,,,,,,,,,,,,,,,,,,,,,,,,,,,,,,,,,,,,,,,,,,,,,,,,,,,,,,,,,,,,,,,,,,,,,,,,,,,,,,,,,,,,,,,,,,,,,
,,,,,,60db74fcb5f4526ce90594a1,62c53aa0aa2bc9b5bcef82fb,2022-07-06_09h33.45.109,Colour_Asymmetry_Pilot,2022.1.3,Win32,60.0060006,62c50e9c1127f2cd403a315f,0,13,13,132,1,threeone,,,,,,,,,,,,,,,,,,,,,,,,,,,,,,,,,,,,,,,,,,,,,,,,,,,,,,,,,,,,,,,,,,,,,,,,,,,,,,,,,,,,,,,,,,,,,,,,,,,,,,,,,,,,,,,,,,,,,,,,,,,,,,,,,,,,,,,,,,,,,,,,,,,,,,,,,,,,,
,,,,,,60db74fcb5f4526ce90594a1,62c53aa0aa2bc9b5bcef82fb,2022-07-06_09h33.45.109,Colour_Asymmetry_Pilot,2022.1.3,Win32,60.0060006,62c50e9c1127f2cd403a315f,0,14,14,51,1,twofour,,,,,,,,,,,,,,,,,,,,,,,,,,,,,,,,,,,,,,,,,,,,,,,,,,,,,,,,,,,,,,,,,,,,,,,,,,,,,,,,,,,,,,,,,,,,,,,,,,,,,,,,,,,,,,,,,,,,,,,,,,,,,,,,,,,,,,,,,,,,,,,,,,,,,,,,,,,,,
,,,,,,60db74fcb5f4526ce90594a1,62c53aa0aa2bc9b5bcef82fb,2022-07-06_09h33.45.109,Colour_Asymmetry_Pilot,2022.1.3,Win32,60.0060006,62c50e9c1127f2cd403a315f,0,15,15,147,1,twofour,,,,,,,,,,,,,,,,,,,,,,,,,,,,,,,,,,,,,,,,,,,,,,,,,,,,,,,,,,,,,,,,,,,,,,,,,,,,,,,,,,,,,,,,,,,,,,,,,,,,,,,,,,,,,,,,,,,,,,,,,,,,,,,,,,,,,,,,,,,,,,,,,,,,,,,,,,,,,
,,,,,,60db74fcb5f4526ce90594a1,62c53aa0aa2bc9b5bcef82fb,2022-07-06_09h33.45.109,Colour_Asymmetry_Pilot,2022.1.3,Win32,60.0060006,62c50e9c1127f2cd403a315f,0,16,16,61,1,threefour,,,,,,,,,,,,,,,,,,,,,,,,,,,,,,,,,,,,,,,,,,,,,,,,,,,,,,,,,,,,,,,,,,,,,,,,,,,,,,,,,,,,,,,,,,,,,,,,,,,,,,,,,,,,,,,,,,,,,,,,,,,,,,,,,,,,,,,,,,,,,,,,,,,,,,,,,,,,,
,,,,,,60db74fcb5f4526ce90594a1,62c53aa0aa2bc9b5bcef82fb,2022-07-06_09h33.45.109,Colour_Asymmetry_Pilot,2022.1.3,Win32,60.0060006,62c50e9c1127f2cd403a315f,0,17,17,93,1,threefour,,,,,,,,,,,,,,,,,,,,,,,,,,,,,,,,,,,,,,,,,,,,,,,,,,,,,,,,,,,,,,,,,,,,,,,,,,,,,,,,,,,,,,,,,,,,,,,,,,,,,,,,,,,,,,,,,,,,,,,,,,,,,,,,,,,,,,,,,,,,,,,,,,,,,,,,,,,,,
,,,,,,60db74fcb5f4526ce90594a1,62c53aa0aa2bc9b5bcef82fb,2022-07-06_09h33.45.109,Colour_Asymmetry_Pilot,2022.1.3,Win32,60.0060006,62c50e9c1127f2cd403a315f,0,18,18,91,1,twofour,,,,,,,,,,,,,,,,,,,,,,,,,,,,,,,,,,,,,,,,,,,,,,,,,,,,,,,,,,,,,,,,,,,,,,,,,,,,,,,,,,,,,,,,,,,,,,,,,,,,,,,,,,,,,,,,,,,,,,,,,,,,,,,,,,,,,,,,,,,,,,,,,,,,,,,,,,,,,
,,,,,,60db74fcb5f4526ce90594a1,62c53aa0aa2bc9b5bcef82fb,2022-07-06_09h33.45.109,Colour_Asymmetry_Pilot,2022.1.3,Win32,60.0060006,62c50e9c1127f2cd403a315f,0,19,19,123,1,twofour,,,,,,,,,,,,,,,,,,,,,,,,,,,,,,,,,,,,,,,,,,,,,,,,,,,,,,,,,,,,,,,,,,,,,,,,,,,,,,,,,,,,,,,,,,,,,,,,,,,,,,,,,,,,,,,,,,,,,,,,,,,,,,,,,,,,,,,,,,,,,,,,,,,,,,,,,,,,,
,,,,,,60db74fcb5f4526ce90594a1,62c53aa0aa2bc9b5bcef82fb,2022-07-06_09h33.45.109,Colour_Asymmetry_Pilot,2022.1.3,Win32,60.0060006,62c50e9c1127f2cd403a315f,0,20,20,155,1,twofour,,,,,,,,,,,,,,,,,,,,,,,,,,,,,,,,,,,,,,,,,,,,,,,,,,,,,,,,,,,,,,,,,,,,,,,,,,,,,,,,,,,,,,,,,,,,,,,,,,,,,,,,,,,,,,,,,,,,,,,,,,,,,,,,,,,,,,,,,,,,,,,,,,,,,,,,,,,,,
,,,,,,60db74fcb5f4526ce90594a1,62c53aa0aa2bc9b5bcef82fb,2022-07-06_09h33.45.109,Colour_Asymmetry_Pilot,2022.1.3,Win32,60.0060006,62c50e9c1127f2cd403a315f,0,21,21,30,1,fourtwo,,,,,,,,,,,,,,,,,,,,,,,,,,,,,,,,,,,,,,,,,,,,,,,,,,,,,,,,,,,,,,,,,,,,,,,,,,,,,,,,,,,,,,,,,,,,,,,,,,,,,,,,,,,,,,,,,,,,,,,,,,,,,,,,,,,,,,,,,,,,,,,,,,,,,,,,,,,,,
,,,,,,60db74fcb5f4526ce90594a1,62c53aa0aa2bc9b5bcef82fb,2022-07-06_09h33.45.109,Colour_Asymmetry_Pilot,2022.1.3,Win32,60.0060006,62c50e9c1127f2cd403a315f,0,22,22,67,1,twofour,,,,,,,,,,,,,,,,,,,,,,,,,,,,,,,,,,,,,,,,,,,,,,,,,,,,,,,,,,,,,,,,,,,,,,,,,,,,,,,,,,,,,,,,,,,,,,,,,,,,,,,,,,,,,,,,,,,,,,,,,,,,,,,,,,,,,,,,,,,,,,,,,,,,,,,,,,,,,
,,,,,,60db74fcb5f4526ce90594a1,62c53aa0aa2bc9b5bcef82fb,2022-07-06_09h33.45.109,Colour_Asymmetry_Pilot,2022.1.3,Win32,60.0060006,62c50e9c1127f2cd403a315f,0,23,23,20,1,threeone,,,,,,,,,,,,,,,,,,,,,,,,,,,,,,,,,,,,,,,,,,,,,,,,,,,,,,,,,,,,,,,,,,,,,,,,,,,,,,,,,,,,,,,,,,,,,,,,,,,,,,,,,,,,,,,,,,,,,,,,,,,,,,,,,,,,,,,,,,,,,,,,,,,,,,,,,,,,,
,,,,,,60db74fcb5f4526ce90594a1,62c53aa0aa2bc9b5bcef82fb,2022-07-06_09h33.45.109,Colour_Asymmetry_Pilot,2022.1.3,Win32,60.0060006,62c50e9c1127f2cd403a315f,0,24,24,130,1,twoone,,,,,,,,,,,,,,,,,,,,,,,,,,,,,,,,,,,,,,,,,,,,,,,,,,,,,,,,,,,,,,,,,,,,,,,,,,,,,,,,,,,,,,,,,,,,,,,,,,,,,,,,,,,,,,,,,,,,,,,,,,,,,,,,,,,,,,,,,,,,,,,,,,,,,,,,,,,,,
,,,,,,60db74fcb5f4526ce90594a1,62c53aa0aa2bc9b5bcef82fb,2022-07-06_09h33.45.109,Colour_Asymmetry_Pilot,2022.1.3,Win32,60.0060006,62c50e9c1127f2cd403a315f,0,25,25,25,1,onethree,,,,,,,,,,,,,,,,,,,,,,,,,,,,,,,,,,,,,,,,,,,,,,,,,,,,,,,,,,,,,,,,,,,,,,,,,,,,,,,,,,,,,,,,,,,,,,,,,,,,,,,,,,,,,,,,,,,,,,,,,,,,,,,,,,,,,,,,,,,,,,,,,,,,,,,,,,,,,
,,,,,,60db74fcb5f4526ce90594a1,62c53aa0aa2bc9b5bcef82fb,2022-07-06_09h33.45.109,Colour_Asymmetry_Pilot,2022.1.3,Win32,60.0060006,62c50e9c1127f2cd403a315f,0,26,26,96,1,onetwo,,,,,,,,,,,,,,,,,,,,,,,,,,,,,,,,,,,,,,,,,,,,,,,,,,,,,,,,,,,,,,,,,,,,,,,,,,,,,,,,,,,,,,,,,,,,,,,,,,,,,,,,,,,,,,,,,,,,,,,,,,,,,,,,,,,,,,,,,,,,,,,,,,,,,,,,,,,,,
,,,,,,60db74fcb5f4526ce90594a1,62c53aa0aa2bc9b5bcef82fb,2022-07-06_09h33.45.109,Colour_Asymmetry_Pilot,2022.1.3,Win32,60.0060006,62c50e9c1127f2cd403a315f,0,27,27,151,1,fourthree,,,,,,,,,,,,,,,,,,,,,,,,,,,,,,,,,,,,,,,,,,,,,,,,,,,,,,,,,,,,,,,,,,,,,,,,,,,,,,,,,,,,,,,,,,,,,,,,,,,,,,,,,,,,,,,,,,,,,,,,,,,,,,,,,,,,,,,,,,,,,,,,,,,,,,,,,,,,,
,,,,,,60db74fcb5f4526ce90594a1,62c53aa0aa2bc9b5bcef82fb,2022-07-06_09h33.45.109,Colour_Asymmetry_Pilot,2022.1.3,Win32,60.0060006,62c50e9c1127f2cd403a315f,0,28,28,115,1,twofour,,,,,,,,,,,,,,,,,,,,,,,,,,,,,,,,,,,,,,,,,,,,,,,,,,,,,,,,,,,,,,,,,,,,,,,,,,,,,,,,,,,,,,,,,,,,,,,,,,,,,,,,,,,,,,,,,,,,,,,,,,,,,,,,,,,,,,,,,,,,,,,,,,,,,,,,,,,,,
,,,,,,60db74fcb5f4526ce90594a1,62c53aa0aa2bc9b5bcef82fb,2022-07-06_09h33.45.109,Colour_Asymmetry_Pilot,2022.1.3,Win32,60.0060006,62c50e9c1127f2cd403a315f,0,29,29,43,1,twofour,,,,,,,,,,,,,,,,,,,,,,,,,,,,,,,,,,,,,,,,,,,,,,,,,,,,,,,,,,,,,,,,,,,,,,,,,,,,,,,,,,,,,,,,,,,,,,,,,,,,,,,,,,,,,,,,,,,,,,,,,,,,,,,,,,,,,,,,,,,,,,,,,,,,,,,,,,,,,
,,,,,,60db74fcb5f4526ce90594a1,62c53aa0aa2bc9b5bcef82fb,2022-07-06_09h33.45.109,Colour_Asymmetry_Pilot,2022.1.3,Win32,60.0060006,62c50e9c1127f2cd403a315f,0,30,30,8,1,onetwo,,,,,,,,,,,,,,,,,,,,,,,,,,,,,,,,,,,,,,,,,,,,,,,,,,,,,,,,,,,,,,,,,,,,,,,,,,,,,,,,,,,,,,,,,,,,,,,,,,,,,,,,,,,,,,,,,,,,,,,,,,,,,,,,,,,,,,,,,,,,,,,,,,,,,,,,,,,,,
,,,,,,60db74fcb5f4526ce90594a1,62c53aa0aa2bc9b5bcef82fb,2022-07-06_09h33.45.109,Colour_Asymmetry_Pilot,2022.1.3,Win32,60.0060006,62c50e9c1127f2cd403a315f,0,31,31,73,1,onethree,,,,,,,,,,,,,,,,,,,,,,,,,,,,,,,,,,,,,,,,,,,,,,,,,,,,,,,,,,,,,,,,,,,,,,,,,,,,,,,,,,,,,,,,,,,,,,,,,,,,,,,,,,,,,,,,,,,,,,,,,,,,,,,,,,,,,,,,,,,,,,,,,,,,,,,,,,,,,
,,,,,,60db74fcb5f4526ce90594a1,62c53aa0aa2bc9b5bcef82fb,2022-07-06_09h33.45.109,Colour_Asymmetry_Pilot,2022.1.3,Win32,60.0060006,62c50e9c1127f2cd403a315f,0,32,32,158,1,fourtwo,,,,,,,,,,,,,,,,,,,,,,,,,,,,,,,,,,,,,,,,,,,,,,,,,,,,,,,,,,,,,,,,,,,,,,,,,,,,,,,,,,,,,,,,,,,,,,,,,,,,,,,,,,,,,,,,,,,,,,,,,,,,,,,,,,,,,,,,,,,,,,,,,,,,,,,,,,,,,
,,,,,,60db74fcb5f4526ce90594a1,62c53aa0aa2bc9b5bcef82fb,2022-07-06_09h33.45.109,Colour_Asymmetry_Pilot,2022.1.3,Win32,60.0060006,62c50e9c1127f2cd403a315f,0,33,33,161,1,onethree,,,,,,,,,,,,,,,,,,,,,,,,,,,,,,,,,,,,,,,,,,,,,,,,,,,,,,,,,,,,,,,,,,,,,,,,,,,,,,,,,,,,,,,,,,,,,,,,,,,,,,,,,,,,,,,,,,,,,,,,,,,,,,,,,,,,,,,,,,,,,,,,,,,,,,,,,,,,,
,,,,,,60db74fcb5f4526ce90594a1,62c53aa0aa2bc9b5bcef82fb,2022-07-06_09h33.45.109,Colour_Asymmetry_Pilot,2022.1.3,Win32,60.0060006,62c50e9c1127f2cd403a315f,0,34,34,34,1,twoone,,,,,,,,,,,,,,,,,,,,,,,,,,,,,,,,,,,,,,,,,,,,,,,,,,,,,,,,,,,,,,,,,,,,,,,,,,,,,,,,,,,,,,,,,,,,,,,,,,,,,,,,,,,,,,,,,,,,,,,,,,,,,,,,,,,,,,,,,,,,,,,,,,,,,,,,,,,,,
,,,,,,60db74fcb5f4526ce90594a1,62c53aa0aa2bc9b5bcef82fb,2022-07-06_09h33.45.109,Colour_Asymmetry_Pilot,2022.1.3,Win32,60.0060006,62c50e9c1127f2cd403a315f,0,35,35,19,1,twofour,,,,,,,,,,,,,,,,,,,,,,,,,,,,,,,,,,,,,,,,,,,,,,,,,,,,,,,,,,,,,,,,,,,,,,,,,,,,,,,,,,,,,,,,,,,,,,,,,,,,,,,,,,,,,,,,,,,,,,,,,,,,,,,,,,,,,,,,,,,,,,,,,,,,,,,,,,,,,
,,,,,,60db74fcb5f4526ce90594a1,62c53aa0aa2bc9b5bcef82fb,2022-07-06_09h33.45.109,Colour_Asymmetry_Pilot,2022.1.3,Win32,60.0060006,62c50e9c1127f2cd403a315f,0,36,36,27,1,twofour,,,,,,,,,,,,,,,,,,,,,,,,,,,,,,,,,,,,,,,,,,,,,,,,,,,,,,,,,,,,,,,,,,,,,,,,,,,,,,,,,,,,,,,,,,,,,,,,,,,,,,,,,,,,,,,,,,,,,,,,,,,,,,,,,,,,,,,,,,,,,,,,,,,,,,,,,,,,,
,,,,,,60db74fcb5f4526ce90594a1,62c53aa0aa2bc9b5bcef82fb,2022-07-06_09h33.45.109,Colour_Asymmetry_Pilot,2022.1.3,Win32,60.0060006,62c50e9c1127f2cd403a315f,0,37,37,97,1,onethree,,,,,,,,,,,,,,,,,,,,,,,,,,,,,,,,,,,,,,,,,,,,,,,,,,,,,,,,,,,,,,,,,,,,,,,,,,,,,,,,,,,,,,,,,,,,,,,,,,,,,,,,,,,,,,,,,,,,,,,,,,,,,,,,,,,,,,,,,,,,,,,,,,,,,,,,,,,,,
,,,,,,60db74fcb5f4526ce90594a1,62c53aa0aa2bc9b5bcef82fb,2022-07-06_09h33.45.109,Colour_Asymmetry_Pilot,2022.1.3,Win32,60.0060006,62c50e9c1127f2cd403a315f,0,38,38,38,1,fourtwo,,,,,,,,,,,,,,,,,,,,,,,,,,,,,,,,,,,,,,,,,,,,,,,,,,,,,,,,,,,,,,,,,,,,,,,,,,,,,,,,,,,,,,,,,,,,,,,,,,,,,,,,,,,,,,,,,,,,,,,,,,,,,,,,,,,,,,,,,,,,,,,,,,,,,,,,,,,,,
,,,,,,60db74fcb5f4526ce90594a1,62c53aa0aa2bc9b5bcef82fb,2022-07-06_09h33.45.109,Colour_Asymmetry_Pilot,2022.1.3,Win32,60.0060006,62c50e9c1127f2cd403a315f,0,39,39,64,1,onetwo,,,,,,,,,,,,,,,,,,,,,,,,,,,,,,,,,,,,,,,,,,,,,,,,,,,,,,,,,,,,,,,,,,,,,,,,,,,,,,,,,,,,,,,,,,,,,,,,,,,,,,,,,,,,,,,,,,,,,,,,,,,,,,,,,,,,,,,,,,,,,,,,,,,,,,,,,,,,,
,,,,,,60db74fcb5f4526ce90594a1,62c53aa0aa2bc9b5bcef82fb,2022-07-06_09h33.45.109,Colour_Asymmetry_Pilot,2022.1.3,Win32,60.0060006,62c50e9c1127f2cd403a315f,0,40,40,141,1,threefour,,,,,,,,,,,,,,,,,,,,,,,,,,,,,,,,,,,,,,,,,,,,,,,,,,,,,,,,,,,,,,,,,,,,,,,,,,,,,,,,,,,,,,,,,,,,,,,,,,,,,,,,,,,,,,,,,,,,,,,,,,,,,,,,,,,,,,,,,,,,,,,,,,,,,,,,,,,,,
,,,,,,60db74fcb5f4526ce90594a1,62c53aa0aa2bc9b5bcef82fb,2022-07-06_09h33.45.109,Colour_Asymmetry_Pilot,2022.1.3,Win32,60.0060006,62c50e9c1127f2cd403a315f,0,41,41,104,1,onetwo,,,,,,,,,,,,,,,,,,,,,,,,,,,,,,,,,,,,,,,,,,,,,,,,,,,,,,,,,,,,,,,,,,,,,,,,,,,,,,,,,,,,,,,,,,,,,,,,,,,,,,,,,,,,,,,,,,,,,,,,,,,,,,,,,,,,,,,,,,,,,,,,,,,,,,,,,,,,,
,,,,,,60db74fcb5f4526ce90594a1,62c53aa0aa2bc9b5bcef82fb,2022-07-06_09h33.45.109,Colour_Asymmetry_Pilot,2022.1.3,Win32,60.0060006,62c50e9c1127f2cd403a315f,0,42,42,23,1,fourthree,,,,,,,,,,,,,,,,,,,,,,,,,,,,,,,,,,,,,,,,,,,,,,,,,,,,,,,,,,,,,,,,,,,,,,,,,,,,,,,,,,,,,,,,,,,,,,,,,,,,,,,,,,,,,,,,,,,,,,,,,,,,,,,,,,,,,,,,,,,,,,,,,,,,,,,,,,,,,
,,,,,,60db74fcb5f4526ce90594a1,62c53aa0aa2bc9b5bcef82fb,2022-07-06_09h33.45.109,Colour_Asymmetry_Pilot,2022.1.3,Win32,60.0060006,62c50e9c1127f2cd403a315f,0,43,43,1,1,onethree,,,,,,,,,,,,,,,,,,,,,,,,,,,,,,,,,,,,,,,,,,,,,,,,,,,,,,,,,,,,,,,,,,,,,,,,,,,,,,,,,,,,,,,,,,,,,,,,,,,,,,,,,,,,,,,,,,,,,,,,,,,,,,,,,,,,,,,,,,,,,,,,,,,,,,,,,,,,,
,,,,,,60db74fcb5f4526ce90594a1,62c53aa0aa2bc9b5bcef82fb,2022-07-06_09h33.45.109,Colour_Asymmetry_Pilot,2022.1.3,Win32,60.0060006,62c50e9c1127f2cd403a315f,0,44,44,116,1,threeone,,,,,,,,,,,,,,,,,,,,,,,,,,,,,,,,,,,,,,,,,,,,,,,,,,,,,,,,,,,,,,,,,,,,,,,,,,,,,,,,,,,,,,,,,,,,,,,,,,,,,,,,,,,,,,,,,,,,,,,,,,,,,,,,,,,,,,,,,,,,,,,,,,,,,,,,,,,,,
,,,,,,60db74fcb5f4526ce90594a1,62c53aa0aa2bc9b5bcef82fb,2022-07-06_09h33.45.109,Colour_Asymmetry_Pilot,2022.1.3,Win32,60.0060006,62c50e9c1127f2cd403a315f,0,45,45,10,1,twoone,,,,,,,,,,,,,,,,,,,,,,,,,,,,,,,,,,,,,,,,,,,,,,,,,,,,,,,,,,,,,,,,,,,,,,,,,,,,,,,,,,,,,,,,,,,,,,,,,,,,,,,,,,,,,,,,,,,,,,,,,,,,,,,,,,,,,,,,,,,,,,,,,,,,,,,,,,,,,
,,,,,,60db74fcb5f4526ce90594a1,62c53aa0aa2bc9b5bcef82fb,2022-07-06_09h33.45.109,Colour_Asymmetry_Pilot,2022.1.3,Win32,60.0060006,62c50e9c1127f2cd403a315f,0,46,46,125,1,threefour,,,,,,,,,,,,,,,,,,,,,,,,,,,,,,,,,,,,,,,,,,,,,,,,,,,,,,,,,,,,,,,,,,,,,,,,,,,,,,,,,,,,,,,,,,,,,,,,,,,,,,,,,,,,,,,,,,,,,,,,,,,,,,,,,,,,,,,,,,,,,,,,,,,,,,,,,,,,,
,,,,,,60db74fcb5f4526ce90594a1,62c53aa0aa2bc9b5bcef82fb,2022-07-06_09h33.45.109,Colour_Asymmetry_Pilot,2022.1.3,Win32,60.0060006,62c50e9c1127f2cd403a315f,0,47,47,138,1,twoone,,,,,,,,,,,,,,,,,,,,,,,,,,,,,,,,,,,,,,,,,,,,,,,,,,,,,,,,,,,,,,,,,,,,,,,,,,,,,,,,,,,,,,,,,,,,,,,,,,,,,,,,,,,,,,,,,,,,,,,,,,,,,,,,,,,,,,,,,,,,,,,,,,,,,,,,,,,,,
,,,,,,60db74fcb5f4526ce90594a1,62c53aa0aa2bc9b5bcef82fb,2022-07-06_09h33.45.109,Colour_Asymmetry_Pilot,2022.1.3,Win32,60.0060006,62c50e9c1127f2cd403a315f,0,48,48,55,1,fourthree,,,,,,,,,,,,,,,,,,,,,,,,,,,,,,,,,,,,,,,,,,,,,,,,,,,,,,,,,,,,,,,,,,,,,,,,,,,,,,,,,,,,,,,,,,,,,,,,,,,,,,,,,,,,,,,,,,,,,,,,,,,,,,,,,,,,,,,,,,,,,,,,,,,,,,,,,,,,,
,,,,,,60db74fcb5f4526ce90594a1,62c53aa0aa2bc9b5bcef82fb,2022-07-06_09h33.45.109,Colour_Asymmetry_Pilot,2022.1.3,Win32,60.0060006,62c50e9c1127f2cd403a315f,0,49,49,128,1,onetwo,,,,,,,,,,,,,,,,,,,,,,,,,,,,,,,,,,,,,,,,,,,,,,,,,,,,,,,,,,,,,,,,,,,,,,,,,,,,,,,,,,,,,,,,,,,,,,,,,,,,,,,,,,,,,,,,,,,,,,,,,,,,,,,,,,,,,,,,,,,,,,,,,,,,,,,,,,,,,
,,,,,,60db74fcb5f4526ce90594a1,62c53aa0aa2bc9b5bcef82fb,2022-07-06_09h33.45.109,Colour_Asymmetry_Pilot,2022.1.3,Win32,60.0060006,62c50e9c1127f2cd403a315f,0,50,50,152,1,onetwo,,,,,,,,,,,,,,,,,,,,,,,,,,,,,,,,,,,,,,,,,,,,,,,,,,,,,,,,,,,,,,,,,,,,,,,,,,,,,,,,,,,,,,,,,,,,,,,,,,,,,,,,,,,,,,,,,,,,,,,,,,,,,,,,,,,,,,,,,,,,,,,,,,,,,,,,,,,,,
,,,,,,60db74fcb5f4526ce90594a1,62c53aa0aa2bc9b5bcef82fb,2022-07-06_09h33.45.109,Colour_Asymmetry_Pilot,2022.1.3,Win32,60.0060006,62c50e9c1127f2cd403a315f,0,51,51,7,1,fourthree,,,,,,,,,,,,,,,,,,,,,,,,,,,,,,,,,,,,,,,,,,,,,,,,,,,,,,,,,,,,,,,,,,,,,,,,,,,,,,,,,,,,,,,,,,,,,,,,,,,,,,,,,,,,,,,,,,,,,,,,,,,,,,,,,,,,,,,,,,,,,,,,,,,,,,,,,,,,,
,,,,,,60db74fcb5f4526ce90594a1,62c53aa0aa2bc9b5bcef82fb,2022-07-06_09h33.45.109,Colour_Asymmetry_Pilot,2022.1.3,Win32,60.0060006,62c50e9c1127f2cd403a315f,0,52,52,142,1,fourtwo,,,,,,,,,,,,,,,,,,,,,,,,,,,,,,,,,,,,,,,,,,,,,,,,,,,,,,,,,,,,,,,,,,,,,,,,,,,,,,,,,,,,,,,,,,,,,,,,,,,,,,,,,,,,,,,,,,,,,,,,,,,,,,,,,,,,,,,,,,,,,,,,,,,,,,,,,,,,,
,,,,,,60db74fcb5f4526ce90594a1,62c53aa0aa2bc9b5bcef82fb,2022-07-06_09h33.45.109,Colour_Asymmetry_Pilot,2022.1.3,Win32,60.0060006,62c50e9c1127f2cd403a315f,0,53,53,107,1,twofour,,,,,,,,,,,,,,,,,,,,,,,,,,,,,,,,,,,,,,,,,,,,,,,,,,,,,,,,,,,,,,,,,,,,,,,,,,,,,,,,,,,,,,,,,,,,,,,,,,,,,,,,,,,,,,,,,,,,,,,,,,,,,,,,,,,,,,,,,,,,,,,,,,,,,,,,,,,,,
,,,,,,60db74fcb5f4526ce90594a1,62c53aa0aa2bc9b5bcef82fb,2022-07-06_09h33.45.109,Colour_Asymmetry_Pilot,2022.1.3,Win32,60.0060006,62c50e9c1127f2cd403a315f,0,54,54,106,1,twoone,,,,,,,,,,,,,,,,,,,,,,,,,,,,,,,,,,,,,,,,,,,,,,,,,,,,,,,,,,,,,,,,,,,,,,,,,,,,,,,,,,,,,,,,,,,,,,,,,,,,,,,,,,,,,,,,,,,,,,,,,,,,,,,,,,,,,,,,,,,,,,,,,,,,,,,,,,,,,
,,,,,,60db74fcb5f4526ce90594a1,62c53aa0aa2bc9b5bcef82fb,2022-07-06_09h33.45.109,Colour_Asymmetry_Pilot,2022.1.3,Win32,60.0060006,62c50e9c1127f2cd403a315f,0,55,55,17,1,onethree,,,,,,,,,,,,,,,,,,,,,,,,,,,,,,,,,,,,,,,,,,,,,,,,,,,,,,,,,,,,,,,,,,,,,,,,,,,,,,,,,,,,,,,,,,,,,,,,,,,,,,,,,,,,,,,,,,,,,,,,,,,,,,,,,,,,,,,,,,,,,,,,,,,,,,,,,,,,,
,,,,,,60db74fcb5f4526ce90594a1,62c53aa0aa2bc9b5bcef82fb,2022-07-06_09h33.45.109,Colour_Asymmetry_Pilot,2022.1.3,Win32,60.0060006,62c50e9c1127f2cd403a315f,0,56,56,53,1,threefour,,,,,,,,,,,,,,,,,,,,,,,,,,,,,,,,,,,,,,,,,,,,,,,,,,,,,,,,,,,,,,,,,,,,,,,,,,,,,,,,,,,,,,,,,,,,,,,,,,,,,,,,,,,,,,,,,,,,,,,,,,,,,,,,,,,,,,,,,,,,,,,,,,,,,,,,,,,,,
,,,,,,60db74fcb5f4526ce90594a1,62c53aa0aa2bc9b5bcef82fb,2022-07-06_09h33.45.109,Colour_Asymmetry_Pilot,2022.1.3,Win32,60.0060006,62c50e9c1127f2cd403a315f,0,57,57,11,1,twofour,,,,,,,,,,,,,,,,,,,,,,,,,,,,,,,,,,,,,,,,,,,,,,,,,,,,,,,,,,,,,,,,,,,,,,,,,,,,,,,,,,,,,,,,,,,,,,,,,,,,,,,,,,,,,,,,,,,,,,,,,,,,,,,,,,,,,,,,,,,,,,,,,,,,,,,,,,,,,
,,,,,,60db74fcb5f4526ce90594a1,62c53aa0aa2bc9b5bcef82fb,2022-07-06_09h33.45.109,Colour_Asymmetry_Pilot,2022.1.3,Win32,60.0060006,62c50e9c1127f2cd403a315f,0,58,58,114,1,twoone,,,,,,,,,,,,,,,,,,,,,,,,,,,,,,,,,,,,,,,,,,,,,,,,,,,,,,,,,,,,,,,,,,,,,,,,,,,,,,,,,,,,,,,,,,,,,,,,,,,,,,,,,,,,,,,,,,,,,,,,,,,,,,,,,,,,,,,,,,,,,,,,,,,,,,,,,,,,,
,,,,,,60db74fcb5f4526ce90594a1,62c53aa0aa2bc9b5bcef82fb,2022-07-06_09h33.45.109,Colour_Asymmetry_Pilot,2022.1.3,Win32,60.0060006,62c50e9c1127f2cd403a315f,0,59,59,31,1,fourthree,,,,,,,,,,,,,,,,,,,,,,,,,,,,,,,,,,,,,,,,,,,,,,,,,,,,,,,,,,,,,,,,,,,,,,,,,,,,,,,,,,,,,,,,,,,,,,,,,,,,,,,,,,,,,,,,,,,,,,,,,,,,,,,,,,,,,,,,,,,,,,,,,,,,,,,,,,,,,
,,,,,,60db74fcb5f4526ce90594a1,62c53aa0aa2bc9b5bcef82fb,2022-07-06_09h33.45.109,Colour_Asymmetry_Pilot,2022.1.3,Win32,60.0060006,62c50e9c1127f2cd403a315f,0,60,60,129,1,onethree,,,,,,,,,,,,,,,,,,,,,,,,,,,,,,,,,,,,,,,,,,,,,,,,,,,,,,,,,,,,,,,,,,,,,,,,,,,,,,,,,,,,,,,,,,,,,,,,,,,,,,,,,,,,,,,,,,,,,,,,,,,,,,,,,,,,,,,,,,,,,,,,,,,,,,,,,,,,,
,,,,,,60db74fcb5f4526ce90594a1,62c53aa0aa2bc9b5bcef82fb,2022-07-06_09h33.45.109,Colour_Asymmetry_Pilot,2022.1.3,Win32,60.0060006,62c50e9c1127f2cd403a315f,0,61,61,87,1,fourthree,,,,,,,,,,,,,,,,,,,,,,,,,,,,,,,,,,,,,,,,,,,,,,,,,,,,,,,,,,,,,,,,,,,,,,,,,,,,,,,,,,,,,,,,,,,,,,,,,,,,,,,,,,,,,,,,,,,,,,,,,,,,,,,,,,,,,,,,,,,,,,,,,,,,,,,,,,,,,
,,,,,,60db74fcb5f4526ce90594a1,62c53aa0aa2bc9b5bcef82fb,2022-07-06_09h33.45.109,Colour_Asymmetry_Pilot,2022.1.3,Win32,60.0060006,62c50e9c1127f2cd403a315f,0,62,62,156,1,threeone,,,,,,,,,,,,,,,,,,,,,,,,,,,,,,,,,,,,,,,,,,,,,,,,,,,,,,,,,,,,,,,,,,,,,,,,,,,,,,,,,,,,,,,,,,,,,,,,,,,,,,,,,,,,,,,,,,,,,,,,,,,,,,,,,,,,,,,,,,,,,,,,,,,,,,,,,,,,,
,,,,,,60db74fcb5f4526ce90594a1,62c53aa0aa2bc9b5bcef82fb,2022-07-06_09h33.45.109,Colour_Asymmetry_Pilot,2022.1.3,Win32,60.0060006,62c50e9c1127f2cd403a315f,0,63,63,146,1,twoone,,,,,,,,,,,,,,,,,,,,,,,,,,,,,,,,,,,,,,,,,,,,,,,,,,,,,,,,,,,,,,,,,,,,,,,,,,,,,,,,,,,,,,,,,,,,,,,,,,,,,,,,,,,,,,,,,,,,,,,,,,,,,,,,,,,,,,,,,,,,,,,,,,,,,,,,,,,,,
,,,,,,60db74fcb5f4526ce90594a1,62c53aa0aa2bc9b5bcef82fb,2022-07-06_09h33.45.109,Colour_Asymmetry_Pilot,2022.1.3,Win32,60.0060006,62c50e9c1127f2cd403a315f,0,64,64,157,1,threefour,,,,,,,,,,,,,,,,,,,,,,,,,,,,,,,,,,,,,,,,,,,,,,,,,,,,,,,,,,,,,,,,,,,,,,,,,,,,,,,,,,,,,,,,,,,,,,,,,,,,,,,,,,,,,,,,,,,,,,,,,,,,,,,,,,,,,,,,,,,,,,,,,,,,,,,,,,,,,
,,,,,,60db74fcb5f4526ce90594a1,62c53aa0aa2bc9b5bcef82fb,2022-07-06_09h33.45.109,Colour_Asymmetry_Pilot,2022.1.3,Win32,60.0060006,62c50e9c1127f2cd403a315f,0,65,65,58,1,twoone,,,,,,,,,,,,,,,,,,,,,,,,,,,,,,,,,,,,,,,,,,,,,,,,,,,,,,,,,,,,,,,,,,,,,,,,,,,,,,,,,,,,,,,,,,,,,,,,,,,,,,,,,,,,,,,,,,,,,,,,,,,,,,,,,,,,,,,,,,,,,,,,,,,,,,,,,,,,,
,,,,,,60db74fcb5f4526ce90594a1,62c53aa0aa2bc9b5bcef82fb,2022-07-06_09h33.45.109,Colour_Asymmetry_Pilot,2022.1.3,Win32,60.0060006,62c50e9c1127f2cd403a315f,0,66,66,44,1,threeone,,,,,,,,,,,,,,,,,,,,,,,,,,,,,,,,,,,,,,,,,,,,,,,,,,,,,,,,,,,,,,,,,,,,,,,,,,,,,,,,,,,,,,,,,,,,,,,,,,,,,,,,,,,,,,,,,,,,,,,,,,,,,,,,,,,,,,,,,,,,,,,,,,,,,,,,,,,,,
,,,,,,60db74fcb5f4526ce90594a1,62c53aa0aa2bc9b5bcef82fb,2022-07-06_09h33.45.109,Colour_Asymmetry_Pilot,2022.1.3,Win32,60.0060006,62c50e9c1127f2cd403a315f,0,67,67,28,1,threeone,,,,,,,,,,,,,,,,,,,,,,,,,,,,,,,,,,,,,,,,,,,,,,,,,,,,,,,,,,,,,,,,,,,,,,,,,,,,,,,,,,,,,,,,,,,,,,,,,,,,,,,,,,,,,,,,,,,,,,,,,,,,,,,,,,,,,,,,,,,,,,,,,,,,,,,,,,,,,
,,,,,,60db74fcb5f4526ce90594a1,62c53aa0aa2bc9b5bcef82fb,2022-07-06_09h33.45.109,Colour_Asymmetry_Pilot,2022.1.3,Win32,60.0060006,62c50e9c1127f2cd403a315f,0,68,68,26,1,twoone,,,,,,,,,,,,,,,,,,,,,,,,,,,,,,,,,,,,,,,,,,,,,,,,,,,,,,,,,,,,,,,,,,,,,,,,,,,,,,,,,,,,,,,,,,,,,,,,,,,,,,,,,,,,,,,,,,,,,,,,,,,,,,,,,,,,,,,,,,,,,,,,,,,,,,,,,,,,,
,,,,,,60db74fcb5f4526ce90594a1,62c53aa0aa2bc9b5bcef82fb,2022-07-06_09h33.45.109,Colour_Asymmetry_Pilot,2022.1.3,Win32,60.0060006,62c50e9c1127f2cd403a315f,0,69,69,131,1,twofour,,,,,,,,,,,,,,,,,,,,,,,,,,,,,,,,,,,,,,,,,,,,,,,,,,,,,,,,,,,,,,,,,,,,,,,,,,,,,,,,,,,,,,,,,,,,,,,,,,,,,,,,,,,,,,,,,,,,,,,,,,,,,,,,,,,,,,,,,,,,,,,,,,,,,,,,,,,,,
,,,,,,60db74fcb5f4526ce90594a1,62c53aa0aa2bc9b5bcef82fb,2022-07-06_09h33.45.109,Colour_Asymmetry_Pilot,2022.1.3,Win32,60.0060006,62c50e9c1127f2cd403a315f,0,70,70,154,1,twoone,,,,,,,,,,,,,,,,,,,,,,,,,,,,,,,,,,,,,,,,,,,,,,,,,,,,,,,,,,,,,,,,,,,,,,,,,,,,,,,,,,,,,,,,,,,,,,,,,,,,,,,,,,,,,,,,,,,,,,,,,,,,,,,,,,,,,,,,,,,,,,,,,,,,,,,,,,,,,
,,,,,,60db74fcb5f4526ce90594a1,62c53aa0aa2bc9b5bcef82fb,2022-07-06_09h33.45.109,Colour_Asymmetry_Pilot,2022.1.3,Win32,60.0060006,62c50e9c1127f2cd403a315f,0,71,71,139,1,twofour,,,,,,,,,,,,,,,,,,,,,,,,,,,,,,,,,,,,,,,,,,,,,,,,,,,,,,,,,,,,,,,,,,,,,,,,,,,,,,,,,,,,,,,,,,,,,,,,,,,,,,,,,,,,,,,,,,,,,,,,,,,,,,,,,,,,,,,,,,,,,,,,,,,,,,,,,,,,,
,,,,,,60db74fcb5f4526ce90594a1,62c53aa0aa2bc9b5bcef82fb,2022-07-06_09h33.45.109,Colour_Asymmetry_Pilot,2022.1.3,Win32,60.0060006,62c50e9c1127f2cd403a315f,0,72,72,48,1,onetwo,,,,,,,,,,,,,,,,,,,,,,,,,,,,,,,,,,,,,,,,,,,,,,,,,,,,,,,,,,,,,,,,,,,,,,,,,,,,,,,,,,,,,,,,,,,,,,,,,,,,,,,,,,,,,,,,,,,,,,,,,,,,,,,,,,,,,,,,,,,,,,,,,,,,,,,,,,,,,
,,,,,,60db74fcb5f4526ce90594a1,62c53aa0aa2bc9b5bcef82fb,2022-07-06_09h33.45.109,Colour_Asymmetry_Pilot,2022.1.3,Win32,60.0060006,62c50e9c1127f2cd403a315f,0,73,73,45,1,threefour,,,,,,,,,,,,,,,,,,,,,,,,,,,,,,,,,,,,,,,,,,,,,,,,,,,,,,,,,,,,,,,,,,,,,,,,,,,,,,,,,,,,,,,,,,,,,,,,,,,,,,,,,,,,,,,,,,,,,,,,,,,,,,,,,,,,,,,,,,,,,,,,,,,,,,,,,,,,,
,,,,,,60db74fcb5f4526ce90594a1,62c53aa0aa2bc9b5bcef82fb,2022-07-06_09h33.45.109,Colour_Asymmetry_Pilot,2022.1.3,Win32,60.0060006,62c50e9c1127f2cd403a315f,0,74,74,3,1,twofour,,,,,,,,,,,,,,,,,,,,,,,,,,,,,,,,,,,,,,,,,,,,,,,,,,,,,,,,,,,,,,,,,,,,,,,,,,,,,,,,,,,,,,,,,,,,,,,,,,,,,,,,,,,,,,,,,,,,,,,,,,,,,,,,,,,,,,,,,,,,,,,,,,,,,,,,,,,,,
,,,,,,60db74fcb5f4526ce90594a1,62c53aa0aa2bc9b5bcef82fb,2022-07-06_09h33.45.109,Colour_Asymmetry_Pilot,2022.1.3,Win32,60.0060006,62c50e9c1127f2cd403a315f,0,75,75,82,1,twoone,,,,,,,,,,,,,,,,,,,,,,,,,,,,,,,,,,,,,,,,,,,,,,,,,,,,,,,,,,,,,,,,,,,,,,,,,,,,,,,,,,,,,,,,,,,,,,,,,,,,,,,,,,,,,,,,,,,,,,,,,,,,,,,,,,,,,,,,,,,,,,,,,,,,,,,,,,,,,
,,,,,,60db74fcb5f4526ce90594a1,62c53aa0aa2bc9b5bcef82fb,2022-07-06_09h33.45.109,Colour_Asymmetry_Pilot,2022.1.3,Win32,60.0060006,62c50e9c1127f2cd403a315f,0,76,76,80,1,onetwo,,,,,,,,,,,,,,,,,,,,,,,,,,,,,,,,,,,,,,,,,,,,,,,,,,,,,,,,,,,,,,,,,,,,,,,,,,,,,,,,,,,,,,,,,,,,,,,,,,,,,,,,,,,,,,,,,,,,,,,,,,,,,,,,,,,,,,,,,,,,,,,,,,,,,,,,,,,,,
,,,,,,60db74fcb5f4526ce90594a1,62c53aa0aa2bc9b5bcef82fb,2022-07-06_09h33.45.109,Colour_Asymmetry_Pilot,2022.1.3,Win32,60.0060006,62c50e9c1127f2cd403a315f,0,77,77,144,1,onetwo,,,,,,,,,,,,,,,,,,,,,,,,,,,,,,,,,,,,,,,,,,,,,,,,,,,,,,,,,,,,,,,,,,,,,,,,,,,,,,,,,,,,,,,,,,,,,,,,,,,,,,,,,,,,,,,,,,,,,,,,,,,,,,,,,,,,,,,,,,,,,,,,,,,,,,,,,,,,,
,,,,,,60db74fcb5f4526ce90594a1,62c53aa0aa2bc9b5bcef82fb,2022-07-06_09h33.45.109,Colour_Asymmetry_Pilot,2022.1.3,Win32,60.0060006,62c50e9c1127f2cd403a315f,0,78,78,100,1,threeone,,,,,,,,,,,,,,,,,,,,,,,,,,,,,,,,,,,,,,,,,,,,,,,,,,,,,,,,,,,,,,,,,,,,,,,,,,,,,,,,,,,,,,,,,,,,,,,,,,,,,,,,,,,,,,,,,,,,,,,,,,,,,,,,,,,,,,,,,,,,,,,,,,,,,,,,,,,,,
,,,,,,60db74fcb5f4526ce90594a1,62c53aa0aa2bc9b5bcef82fb,2022-07-06_09h33.45.109,Colour_Asymmetry_Pilot,2022.1.3,Win32,60.0060006,62c50e9c1127f2cd403a315f,0,79,79,0,1,onetwo,,,,,,,,,,,,,,,,,,,,,,,,,,,,,,,,,,,,,,,,,,,,,,,,,,,,,,,,,,,,,,,,,,,,,,,,,,,,,,,,,,,,,,,,,,,,,,,,,,,,,,,,,,,,,,,,,,,,,,,,,,,,,,,,,,,,,,,,,,,,,,,,,,,,,,,,,,,,,
,,,,,,60db74fcb5f4526ce90594a1,62c53aa0aa2bc9b5bcef82fb,2022-07-06_09h33.45.109,Colour_Asymmetry_Pilot,2022.1.3,Win32,60.0060006,62c50e9c1127f2cd403a315f,0,80,80,37,1,threefour,,,,,,,,,,,,,,,,,,,,,,,,,,,,,,,,,,,,,,,,,,,,,,,,,,,,,,,,,,,,,,,,,,,,,,,,,,,,,,,,,,,,,,,,,,,,,,,,,,,,,,,,,,,,,,,,,,,,,,,,,,,,,,,,,,,,,,,,,,,,,,,,,,,,,,,,,,,,,
,,,,,,60db74fcb5f4526ce90594a1,62c53aa0aa2bc9b5bcef82fb,2022-07-06_09h33.45.109,Colour_Asymmetry_Pilot,2022.1.3,Win32,60.0060006,62c50e9c1127f2cd403a315f,0,81,81,118,1,fourtwo,,,,,,,,,,,,,,,,,,,,,,,,,,,,,,,,,,,,,,,,,,,,,,,,,,,,,,,,,,,,,,,,,,,,,,,,,,,,,,,,,,,,,,,,,,,,,,,,,,,,,,,,,,,,,,,,,,,,,,,,,,,,,,,,,,,,,,,,,,,,,,,,,,,,,,,,,,,,,
,,,,,,60db74fcb5f4526ce90594a1,62c53aa0aa2bc9b5bcef82fb,2022-07-06_09h33.45.109,Colour_Asymmetry_Pilot,2022.1.3,Win32,60.0060006,62c50e9c1127f2cd403a315f,0,82,82,71,1,fourthree,,,,,,,,,,,,,,,,,,,,,,,,,,,,,,,,,,,,,,,,,,,,,,,,,,,,,,,,,,,,,,,,,,,,,,,,,,,,,,,,,,,,,,,,,,,,,,,,,,,,,,,,,,,,,,,,,,,,,,,,,,,,,,,,,,,,,,,,,,,,,,,,,,,,,,,,,,,,,
,,,,,,60db74fcb5f4526ce90594a1,62c53aa0aa2bc9b5bcef82fb,2022-07-06_09h33.45.109,Colour_Asymmetry_Pilot,2022.1.3,Win32,60.0060006,62c50e9c1127f2cd403a315f,0,83,83,103,1,fourthree,,,,,,,,,,,,,,,,,,,,,,,,,,,,,,,,,,,,,,,,,,,,,,,,,,,,,,,,,,,,,,,,,,,,,,,,,,,,,,,,,,,,,,,,,,,,,,,,,,,,,,,,,,,,,,,,,,,,,,,,,,,,,,,,,,,,,,,,,,,,,,,,,,,,,,,,,,,,,
,,,,,,60db74fcb5f4526ce90594a1,62c53aa0aa2bc9b5bcef82fb,2022-07-06_09h33.45.109,Colour_Asymmetry_Pilot,2022.1.3,Win32,60.0060006,62c50e9c1127f2cd403a315f,0,84,84,121,1,onethree,,,,,,,,,,,,,,,,,,,,,,,,,,,,,,,,,,,,,,,,,,,,,,,,,,,,,,,,,,,,,,,,,,,,,,,,,,,,,,,,,,,,,,,,,,,,,,,,,,,,,,,,,,,,,,,,,,,,,,,,,,,,,,,,,,,,,,,,,,,,,,,,,,,,,,,,,,,,,
,,,,,,60db74fcb5f4526ce90594a1,62c53aa0aa2bc9b5bcef82fb,2022-07-06_09h33.45.109,Colour_Asymmetry_Pilot,2022.1.3,Win32,60.0060006,62c50e9c1127f2cd403a315f,0,85,85,32,1,onetwo,,,,,,,,,,,,,,,,,,,,,,,,,,,,,,,,,,,,,,,,,,,,,,,,,,,,,,,,,,,,,,,,,,,,,,,,,,,,,,,,,,,,,,,,,,,,,,,,,,,,,,,,,,,,,,,,,,,,,,,,,,,,,,,,,,,,,,,,,,,,,,,,,,,,,,,,,,,,,
,,,,,,60db74fcb5f4526ce90594a1,62c53aa0aa2bc9b5bcef82fb,2022-07-06_09h33.45.109,Colour_Asymmetry_Pilot,2022.1.3,Win32,60.0060006,62c50e9c1127f2cd403a315f,0,86,86,5,1,threefour,,,,,,,,,,,,,,,,,,,,,,,,,,,,,,,,,,,,,,,,,,,,,,,,,,,,,,,,,,,,,,,,,,,,,,,,,,,,,,,,,,,,,,,,,,,,,,,,,,,,,,,,,,,,,,,,,,,,,,,,,,,,,,,,,,,,,,,,,,,,,,,,,,,,,,,,,,,,,
,,,,,,60db74fcb5f4526ce90594a1,62c53aa0aa2bc9b5bcef82fb,2022-07-06_09h33.45.109,Colour_Asymmetry_Pilot,2022.1.3,Win32,60.0060006,62c50e9c1127f2cd403a315f,0,87,87,50,1,twoone,,,,,,,,,,,,,,,,,,,,,,,,,,,,,,,,,,,,,,,,,,,,,,,,,,,,,,,,,,,,,,,,,,,,,,,,,,,,,,,,,,,,,,,,,,,,,,,,,,,,,,,,,,,,,,,,,,,,,,,,,,,,,,,,,,,,,,,,,,,,,,,,,,,,,,,,,,,,,
,,,,,,60db74fcb5f4526ce90594a1,62c53aa0aa2bc9b5bcef82fb,2022-07-06_09h33.45.109,Colour_Asymmetry_Pilot,2022.1.3,Win32,60.0060006,62c50e9c1127f2cd403a315f,0,88,88,124,1,threeone,,,,,,,,,,,,,,,,,,,,,,,,,,,,,,,,,,,,,,,,,,,,,,,,,,,,,,,,,,,,,,,,,,,,,,,,,,,,,,,,,,,,,,,,,,,,,,,,,,,,,,,,,,,,,,,,,,,,,,,,,,,,,,,,,,,,,,,,,,,,,,,,,,,,,,,,,,,,,
,,,,,,60db74fcb5f4526ce90594a1,62c53aa0aa2bc9b5bcef82fb,2022-07-06_09h33.45.109,Colour_Asymmetry_Pilot,2022.1.3,Win32,60.0060006,62c50e9c1127f2cd403a315f,0,89,89,160,1,onetwo,,,,,,,,,,,,,,,,,,,,,,,,,,,,,,,,,,,,,,,,,,,,,,,,,,,,,,,,,,,,,,,,,,,,,,,,,,,,,,,,,,,,,,,,,,,,,,,,,,,,,,,,,,,,,,,,,,,,,,,,,,,,,,,,,,,,,,,,,,,,,,,,,,,,,,,,,,,,,
,,,,,,60db74fcb5f4526ce90594a1,62c53aa0aa2bc9b5bcef82fb,2022-07-06_09h33.45.109,Colour_Asymmetry_Pilot,2022.1.3,Win32,60.0060006,62c50e9c1127f2cd403a315f,0,90,90,148,1,threeone,,,,,,,,,,,,,,,,,,,,,,,,,,,,,,,,,,,,,,,,,,,,,,,,,,,,,,,,,,,,,,,,,,,,,,,,,,,,,,,,,,,,,,,,,,,,,,,,,,,,,,,,,,,,,,,,,,,,,,,,,,,,,,,,,,,,,,,,,,,,,,,,,,,,,,,,,,,,,
,,,,,,60db74fcb5f4526ce90594a1,62c53aa0aa2bc9b5bcef82fb,2022-07-06_09h33.45.109,Colour_Asymmetry_Pilot,2022.1.3,Win32,60.0060006,62c50e9c1127f2cd403a315f,0,91,91,76,1,threeone,,,,,,,,,,,,,,,,,,,,,,,,,,,,,,,,,,,,,,,,,,,,,,,,,,,,,,,,,,,,,,,,,,,,,,,,,,,,,,,,,,,,,,,,,,,,,,,,,,,,,,,,,,,,,,,,,,,,,,,,,,,,,,,,,,,,,,,,,,,,,,,,,,,,,,,,,,,,,
,,,,,,60db74fcb5f4526ce90594a1,62c53aa0aa2bc9b5bcef82fb,2022-07-06_09h33.45.109,Colour_Asymmetry_Pilot,2022.1.3,Win32,60.0060006,62c50e9c1127f2cd403a315f,0,92,92,119,1,fourthree,,,,,,,,,,,,,,,,,,,,,,,,,,,,,,,,,,,,,,,,,,,,,,,,,,,,,,,,,,,,,,,,,,,,,,,,,,,,,,,,,,,,,,,,,,,,,,,,,,,,,,,,,,,,,,,,,,,,,,,,,,,,,,,,,,,,,,,,,,,,,,,,,,,,,,,,,,,,,
,,,,,,60db74fcb5f4526ce90594a1,62c53aa0aa2bc9b5bcef82fb,2022-07-06_09h33.45.109,Colour_Asymmetry_Pilot,2022.1.3,Win32,60.0060006,62c50e9c1127f2cd403a315f,0,93,93,66,1,twoone,,,,,,,,,,,,,,,,,,,,,,,,,,,,,,,,,,,,,,,,,,,,,,,,,,,,,,,,,,,,,,,,,,,,,,,,,,,,,,,,,,,,,,,,,,,,,,,,,,,,,,,,,,,,,,,,,,,,,,,,,,,,,,,,,,,,,,,,,,,,,,,,,,,,,,,,,,,,,
,,,,,,60db74fcb5f4526ce90594a1,62c53aa0aa2bc9b5bcef82fb,2022-07-06_09h33.45.109,Colour_Asymmetry_Pilot,2022.1.3,Win32,60.0060006,62c50e9c1127f2cd403a315f,0,94,94,63,1,fourthree,,,,,,,,,,,,,,,,,,,,,,,,,,,,,,,,,,,,,,,,,,,,,,,,,,,,,,,,,,,,,,,,,,,,,,,,,,,,,,,,,,,,,,,,,,,,,,,,,,,,,,,,,,,,,,,,,,,,,,,,,,,,,,,,,,,,,,,,,,,,,,,,,,,,,,,,,,,,,
,,,,,,60db74fcb5f4526ce90594a1,62c53aa0aa2bc9b5bcef82fb,2022-07-06_09h33.45.109,Colour_Asymmetry_Pilot,2022.1.3,Win32,60.0060006,62c50e9c1127f2cd403a315f,0,95,95,113,1,onethree,,,,,,,,,,,,,,,,,,,,,,,,,,,,,,,,,,,,,,,,,,,,,,,,,,,,,,,,,,,,,,,,,,,,,,,,,,,,,,,,,,,,,,,,,,,,,,,,,,,,,,,,,,,,,,,,,,,,,,,,,,,,,,,,,,,,,,,,,,,,,,,,,,,,,,,,,,,,,
,,,,,,60db74fcb5f4526ce90594a1,62c53aa0aa2bc9b5bcef82fb,2022-07-06_09h33.45.109,Colour_Asymmetry_Pilot,2022.1.3,Win32,60.0060006,62c50e9c1127f2cd403a315f,0,96,96,102,1,fourtwo,,,,,,,,,,,,,,,,,,,,,,,,,,,,,,,,,,,,,,,,,,,,,,,,,,,,,,,,,,,,,,,,,,,,,,,,,,,,,,,,,,,,,,,,,,,,,,,,,,,,,,,,,,,,,,,,,,,,,,,,,,,,,,,,,,,,,,,,,,,,,,,,,,,,,,,,,,,,,
,,,,,,60db74fcb5f4526ce90594a1,62c53aa0aa2bc9b5bcef82fb,2022-07-06_09h33.45.109,Colour_Asymmetry_Pilot,2022.1.3,Win32,60.0060006,62c50e9c1127f2cd403a315f,0,97,97,69,1,threefour,,,,,,,,,,,,,,,,,,,,,,,,,,,,,,,,,,,,,,,,,,,,,,,,,,,,,,,,,,,,,,,,,,,,,,,,,,,,,,,,,,,,,,,,,,,,,,,,,,,,,,,,,,,,,,,,,,,,,,,,,,,,,,,,,,,,,,,,,,,,,,,,,,,,,,,,,,,,,
,,,,,,60db74fcb5f4526ce90594a1,62c53aa0aa2bc9b5bcef82fb,2022-07-06_09h33.45.109,Colour_Asymmetry_Pilot,2022.1.3,Win32,60.0060006,62c50e9c1127f2cd403a315f,0,98,98,15,1,fourthree,,,,,,,,,,,,,,,,,,,,,,,,,,,,,,,,,,,,,,,,,,,,,,,,,,,,,,,,,,,,,,,,,,,,,,,,,,,,,,,,,,,,,,,,,,,,,,,,,,,,,,,,,,,,,,,,,,,,,,,,,,,,,,,,,,,,,,,,,,,,,,,,,,,,,,,,,,,,,
,,,,,,60db74fcb5f4526ce90594a1,62c53aa0aa2bc9b5bcef82fb,2022-07-06_09h33.45.109,Colour_Asymmetry_Pilot,2022.1.3,Win32,60.0060006,62c50e9c1127f2cd403a315f,0,99,99,133,1,threefour,,,,,,,,,,,,,,,,,,,,,,,,,,,,,,,,,,,,,,,,,,,,,,,,,,,,,,,,,,,,,,,,,,,,,,,,,,,,,,,,,,,,,,,,,,,,,,,,,,,,,,,,,,,,,,,,,,,,,,,,,,,,,,,,,,,,,,,,,,,,,,,,,,,,,,,,,,,,,
,,,,,,60db74fcb5f4526ce90594a1,62c53aa0aa2bc9b5bcef82fb,2022-07-06_09h33.45.109,Colour_Asymmetry_Pilot,2022.1.3,Win32,60.0060006,62c50e9c1127f2cd403a315f,0,100,100,29,1,threefour,,,,,,,,,,,,,,,,,,,,,,,,,,,,,,,,,,,,,,,,,,,,,,,,,,,,,,,,,,,,,,,,,,,,,,,,,,,,,,,,,,,,,,,,,,,,,,,,,,,,,,,,,,,,,,,,,,,,,,,,,,,,,,,,,,,,,,,,,,,,,,,,,,,,,,,,,,,,,
,,,,,,60db74fcb5f4526ce90594a1,62c53aa0aa2bc9b5bcef82fb,2022-07-06_09h33.45.109,Colour_Asymmetry_Pilot,2022.1.3,Win32,60.0060006,62c50e9c1127f2cd403a315f,0,101,101,46,1,fourtwo,,,,,,,,,,,,,,,,,,,,,,,,,,,,,,,,,,,,,,,,,,,,,,,,,,,,,,,,,,,,,,,,,,,,,,,,,,,,,,,,,,,,,,,,,,,,,,,,,,,,,,,,,,,,,,,,,,,,,,,,,,,,,,,,,,,,,,,,,,,,,,,,,,,,,,,,,,,,,
,,,,,,60db74fcb5f4526ce90594a1,62c53aa0aa2bc9b5bcef82fb,2022-07-06_09h33.45.109,Colour_Asymmetry_Pilot,2022.1.3,Win32,60.0060006,62c50e9c1127f2cd403a315f,0,102,102,33,1,onethree,,,,,,,,,,,,,,,,,,,,,,,,,,,,,,,,,,,,,,,,,,,,,,,,,,,,,,,,,,,,,,,,,,,,,,,,,,,,,,,,,,,,,,,,,,,,,,,,,,,,,,,,,,,,,,,,,,,,,,,,,,,,,,,,,,,,,,,,,,,,,,,,,,,,,,,,,,,,,
,,,,,,60db74fcb5f4526ce90594a1,62c53aa0aa2bc9b5bcef82fb,2022-07-06_09h33.45.109,Colour_Asymmetry_Pilot,2022.1.3,Win32,60.0060006,62c50e9c1127f2cd403a315f,0,103,103,2,1,twoone,,,,,,,,,,,,,,,,,,,,,,,,,,,,,,,,,,,,,,,,,,,,,,,,,,,,,,,,,,,,,,,,,,,,,,,,,,,,,,,,,,,,,,,,,,,,,,,,,,,,,,,,,,,,,,,,,,,,,,,,,,,,,,,,,,,,,,,,,,,,,,,,,,,,,,,,,,,,,
,,,,,,60db74fcb5f4526ce90594a1,62c53aa0aa2bc9b5bcef82fb,2022-07-06_09h33.45.109,Colour_Asymmetry_Pilot,2022.1.3,Win32,60.0060006,62c50e9c1127f2cd403a315f,0,104,104,92,1,threeone,,,,,,,,,,,,,,,,,,,,,,,,,,,,,,,,,,,,,,,,,,,,,,,,,,,,,,,,,,,,,,,,,,,,,,,,,,,,,,,,,,,,,,,,,,,,,,,,,,,,,,,,,,,,,,,,,,,,,,,,,,,,,,,,,,,,,,,,,,,,,,,,,,,,,,,,,,,,,
,,,,,,60db74fcb5f4526ce90594a1,62c53aa0aa2bc9b5bcef82fb,2022-07-06_09h33.45.109,Colour_Asymmetry_Pilot,2022.1.3,Win32,60.0060006,62c50e9c1127f2cd403a315f,0,105,105,99,1,twofour,,,,,,,,,,,,,,,,,,,,,,,,,,,,,,,,,,,,,,,,,,,,,,,,,,,,,,,,,,,,,,,,,,,,,,,,,,,,,,,,,,,,,,,,,,,,,,,,,,,,,,,,,,,,,,,,,,,,,,,,,,,,,,,,,,,,,,,,,,,,,,,,,,,,,,,,,,,,,
,,,,,,60db74fcb5f4526ce90594a1,62c53aa0aa2bc9b5bcef82fb,2022-07-06_09h33.45.109,Colour_Asymmetry_Pilot,2022.1.3,Win32,60.0060006,62c50e9c1127f2cd403a315f,0,106,106,40,1,onetwo,,,,,,,,,,,,,,,,,,,,,,,,,,,,,,,,,,,,,,,,,,,,,,,,,,,,,,,,,,,,,,,,,,,,,,,,,,,,,,,,,,,,,,,,,,,,,,,,,,,,,,,,,,,,,,,,,,,,,,,,,,,,,,,,,,,,,,,,,,,,,,,,,,,,,,,,,,,,,
,,,,,,60db74fcb5f4526ce90594a1,62c53aa0aa2bc9b5bcef82fb,2022-07-06_09h33.45.109,Colour_Asymmetry_Pilot,2022.1.3,Win32,60.0060006,62c50e9c1127f2cd403a315f,0,107,107,78,1,fourtwo,,,,,,,,,,,,,,,,,,,,,,,,,,,,,,,,,,,,,,,,,,,,,,,,,,,,,,,,,,,,,,,,,,,,,,,,,,,,,,,,,,,,,,,,,,,,,,,,,,,,,,,,,,,,,,,,,,,,,,,,,,,,,,,,,,,,,,,,,,,,,,,,,,,,,,,,,,,,,
,,,,,,60db74fcb5f4526ce90594a1,62c53aa0aa2bc9b5bcef82fb,2022-07-06_09h33.45.109,Colour_Asymmetry_Pilot,2022.1.3,Win32,60.0060006,62c50e9c1127f2cd403a315f,0,108,108,83,1,twofour,,,,,,,,,,,,,,,,,,,,,,,,,,,,,,,,,,,,,,,,,,,,,,,,,,,,,,,,,,,,,,,,,,,,,,,,,,,,,,,,,,,,,,,,,,,,,,,,,,,,,,,,,,,,,,,,,,,,,,,,,,,,,,,,,,,,,,,,,,,,,,,,,,,,,,,,,,,,,
,,,,,,60db74fcb5f4526ce90594a1,62c53aa0aa2bc9b5bcef82fb,2022-07-06_09h33.45.109,Colour_Asymmetry_Pilot,2022.1.3,Win32,60.0060006,62c50e9c1127f2cd403a315f,0,109,109,57,1,onethree,,,,,,,,,,,,,,,,,,,,,,,,,,,,,,,,,,,,,,,,,,,,,,,,,,,,,,,,,,,,,,,,,,,,,,,,,,,,,,,,,,,,,,,,,,,,,,,,,,,,,,,,,,,,,,,,,,,,,,,,,,,,,,,,,,,,,,,,,,,,,,,,,,,,,,,,,,,,,
,,,,,,60db74fcb5f4526ce90594a1,62c53aa0aa2bc9b5bcef82fb,2022-07-06_09h33.45.109,Colour_Asymmetry_Pilot,2022.1.3,Win32,60.0060006,62c50e9c1127f2cd403a315f,0,110,110,52,1,threeone,,,,,,,,,,,,,,,,,,,,,,,,,,,,,,,,,,,,,,,,,,,,,,,,,,,,,,,,,,,,,,,,,,,,,,,,,,,,,,,,,,,,,,,,,,,,,,,,,,,,,,,,,,,,,,,,,,,,,,,,,,,,,,,,,,,,,,,,,,,,,,,,,,,,,,,,,,,,,
,,,,,,60db74fcb5f4526ce90594a1,62c53aa0aa2bc9b5bcef82fb,2022-07-06_09h33.45.109,Colour_Asymmetry_Pilot,2022.1.3,Win32,60.0060006,62c50e9c1127f2cd403a315f,0,111,111,68,1,threeone,,,,,,,,,,,,,,,,,,,,,,,,,,,,,,,,,,,,,,,,,,,,,,,,,,,,,,,,,,,,,,,,,,,,,,,,,,,,,,,,,,,,,,,,,,,,,,,,,,,,,,,,,,,,,,,,,,,,,,,,,,,,,,,,,,,,,,,,,,,,,,,,,,,,,,,,,,,,,
,,,,,,60db74fcb5f4526ce90594a1,62c53aa0aa2bc9b5bcef82fb,2022-07-06_09h33.45.109,Colour_Asymmetry_Pilot,2022.1.3,Win32,60.0060006,62c50e9c1127f2cd403a315f,0,112,112,126,1,fourtwo,,,,,,,,,,,,,,,,,,,,,,,,,,,,,,,,,,,,,,,,,,,,,,,,,,,,,,,,,,,,,,,,,,,,,,,,,,,,,,,,,,,,,,,,,,,,,,,,,,,,,,,,,,,,,,,,,,,,,,,,,,,,,,,,,,,,,,,,,,,,,,,,,,,,,,,,,,,,,
,,,,,,60db74fcb5f4526ce90594a1,62c53aa0aa2bc9b5bcef82fb,2022-07-06_09h33.45.109,Colour_Asymmetry_Pilot,2022.1.3,Win32,60.0060006,62c50e9c1127f2cd403a315f,0,113,113,39,1,fourthree,,,,,,,,,,,,,,,,,,,,,,,,,,,,,,,,,,,,,,,,,,,,,,,,,,,,,,,,,,,,,,,,,,,,,,,,,,,,,,,,,,,,,,,,,,,,,,,,,,,,,,,,,,,,,,,,,,,,,,,,,,,,,,,,,,,,,,,,,,,,,,,,,,,,,,,,,,,,,
,,,,,,60db74fcb5f4526ce90594a1,62c53aa0aa2bc9b5bcef82fb,2022-07-06_09h33.45.109,Colour_Asymmetry_Pilot,2022.1.3,Win32,60.0060006,62c50e9c1127f2cd403a315f,0,114,114,149,1,threefour,,,,,,,,,,,,,,,,,,,,,,,,,,,,,,,,,,,,,,,,,,,,,,,,,,,,,,,,,,,,,,,,,,,,,,,,,,,,,,,,,,,,,,,,,,,,,,,,,,,,,,,,,,,,,,,,,,,,,,,,,,,,,,,,,,,,,,,,,,,,,,,,,,,,,,,,,,,,,
,,,,,,60db74fcb5f4526ce90594a1,62c53aa0aa2bc9b5bcef82fb,2022-07-06_09h33.45.109,Colour_Asymmetry_Pilot,2022.1.3,Win32,60.0060006,62c50e9c1127f2cd403a315f,0,115,115,56,1,onetwo,,,,,,,,,,,,,,,,,,,,,,,,,,,,,,,,,,,,,,,,,,,,,,,,,,,,,,,,,,,,,,,,,,,,,,,,,,,,,,,,,,,,,,,,,,,,,,,,,,,,,,,,,,,,,,,,,,,,,,,,,,,,,,,,,,,,,,,,,,,,,,,,,,,,,,,,,,,,,
,,,,,,60db74fcb5f4526ce90594a1,62c53aa0aa2bc9b5bcef82fb,2022-07-06_09h33.45.109,Colour_Asymmetry_Pilot,2022.1.3,Win32,60.0060006,62c50e9c1127f2cd403a315f,0,116,116,86,1,fourtwo,,,,,,,,,,,,,,,,,,,,,,,,,,,,,,,,,,,,,,,,,,,,,,,,,,,,,,,,,,,,,,,,,,,,,,,,,,,,,,,,,,,,,,,,,,,,,,,,,,,,,,,,,,,,,,,,,,,,,,,,,,,,,,,,,,,,,,,,,,,,,,,,,,,,,,,,,,,,,
,,,,,,60db74fcb5f4526ce90594a1,62c53aa0aa2bc9b5bcef82fb,2022-07-06_09h33.45.109,Colour_Asymmetry_Pilot,2022.1.3,Win32,60.0060006,62c50e9c1127f2cd403a315f,0,117,117,110,1,fourtwo,,,,,,,,,,,,,,,,,,,,,,,,,,,,,,,,,,,,,,,,,,,,,,,,,,,,,,,,,,,,,,,,,,,,,,,,,,,,,,,,,,,,,,,,,,,,,,,,,,,,,,,,,,,,,,,,,,,,,,,,,,,,,,,,,,,,,,,,,,,,,,,,,,,,,,,,,,,,,
,,,,,,60db74fcb5f4526ce90594a1,62c53aa0aa2bc9b5bcef82fb,2022-07-06_09h33.45.109,Colour_Asymmetry_Pilot,2022.1.3,Win32,60.0060006,62c50e9c1127f2cd403a315f,0,118,118,62,1,fourtwo,,,,,,,,,,,,,,,,,,,,,,,,,,,,,,,,,,,,,,,,,,,,,,,,,,,,,,,,,,,,,,,,,,,,,,,,,,,,,,,,,,,,,,,,,,,,,,,,,,,,,,,,,,,,,,,,,,,,,,,,,,,,,,,,,,,,,,,,,,,,,,,,,,,,,,,,,,,,,
,,,,,,60db74fcb5f4526ce90594a1,62c53aa0aa2bc9b5bcef82fb,2022-07-06_09h33.45.109,Colour_Asymmetry_Pilot,2022.1.3,Win32,60.0060006,62c50e9c1127f2cd403a315f,0,119,119,22,1,fourtwo,,,,,,,,,,,,,,,,,,,,,,,,,,,,,,,,,,,,,,,,,,,,,,,,,,,,,,,,,,,,,,,,,,,,,,,,,,,,,,,,,,,,,,,,,,,,,,,,,,,,,,,,,,,,,,,,,,,,,,,,,,,,,,,,,,,,,,,,,,,,,,,,,,,,,,,,,,,,,
,,,,,,60db74fcb5f4526ce90594a1,62c53aa0aa2bc9b5bcef82fb,2022-07-06_09h33.45.109,Colour_Asymmetry_Pilot,2022.1.3,Win32,60.0060006,62c50e9c1127f2cd403a315f,0,120,120,120,1,onetwo,,,,,,,,,,,,,,,,,,,,,,,,,,,,,,,,,,,,,,,,,,,,,,,,,,,,,,,,,,,,,,,,,,,,,,,,,,,,,,,,,,,,,,,,,,,,,,,,,,,,,,,,,,,,,,,,,,,,,,,,,,,,,,,,,,,,,,,,,,,,,,,,,,,,,,,,,,,,,
,,,,,,60db74fcb5f4526ce90594a1,62c53aa0aa2bc9b5bcef82fb,2022-07-06_09h33.45.109,Colour_Asymmetry_Pilot,2022.1.3,Win32,60.0060006,62c50e9c1127f2cd403a315f,0,121,121,9,1,onethree,,,,,,,,,,,,,,,,,,,,,,,,,,,,,,,,,,,,,,,,,,,,,,,,,,,,,,,,,,,,,,,,,,,,,,,,,,,,,,,,,,,,,,,,,,,,,,,,,,,,,,,,,,,,,,,,,,,,,,,,,,,,,,,,,,,,,,,,,,,,,,,,,,,,,,,,,,,,,
,,,,,,60db74fcb5f4526ce90594a1,62c53aa0aa2bc9b5bcef82fb,2022-07-06_09h33.45.109,Colour_Asymmetry_Pilot,2022.1.3,Win32,60.0060006,62c50e9c1127f2cd403a315f,0,122,122,65,1,onethree,,,,,,,,,,,,,,,,,,,,,,,,,,,,,,,,,,,,,,,,,,,,,,,,,,,,,,,,,,,,,,,,,,,,,,,,,,,,,,,,,,,,,,,,,,,,,,,,,,,,,,,,,,,,,,,,,,,,,,,,,,,,,,,,,,,,,,,,,,,,,,,,,,,,,,,,,,,,,
,,,,,,60db74fcb5f4526ce90594a1,62c53aa0aa2bc9b5bcef82fb,2022-07-06_09h33.45.109,Colour_Asymmetry_Pilot,2022.1.3,Win32,60.0060006,62c50e9c1127f2cd403a315f,0,123,123,35,1,twofour,,,,,,,,,,,,,,,,,,,,,,,,,,,,,,,,,,,,,,,,,,,,,,,,,,,,,,,,,,,,,,,,,,,,,,,,,,,,,,,,,,,,,,,,,,,,,,,,,,,,,,,,,,,,,,,,,,,,,,,,,,,,,,,,,,,,,,,,,,,,,,,,,,,,,,,,,,,,,
,,,,,,60db74fcb5f4526ce90594a1,62c53aa0aa2bc9b5bcef82fb,2022-07-06_09h33.45.109,Colour_Asymmetry_Pilot,2022.1.3,Win32,60.0060006,62c50e9c1127f2cd403a315f,0,124,124,24,1,onetwo,,,,,,,,,,,,,,,,,,,,,,,,,,,,,,,,,,,,,,,,,,,,,,,,,,,,,,,,,,,,,,,,,,,,,,,,,,,,,,,,,,,,,,,,,,,,,,,,,,,,,,,,,,,,,,,,,,,,,,,,,,,,,,,,,,,,,,,,,,,,,,,,,,,,,,,,,,,,,
,,,,,,60db74fcb5f4526ce90594a1,62c53aa0aa2bc9b5bcef82fb,2022-07-06_09h33.45.109,Colour_Asymmetry_Pilot,2022.1.3,Win32,60.0060006,62c50e9c1127f2cd403a315f,0,125,125,122,1,twoone,,,,,,,,,,,,,,,,,,,,,,,,,,,,,,,,,,,,,,,,,,,,,,,,,,,,,,,,,,,,,,,,,,,,,,,,,,,,,,,,,,,,,,,,,,,,,,,,,,,,,,,,,,,,,,,,,,,,,,,,,,,,,,,,,,,,,,,,,,,,,,,,,,,,,,,,,,,,,
,,,,,,60db74fcb5f4526ce90594a1,62c53aa0aa2bc9b5bcef82fb,2022-07-06_09h33.45.109,Colour_Asymmetry_Pilot,2022.1.3,Win32,60.0060006,62c50e9c1127f2cd403a315f,0,126,126,105,1,onethree,,,,,,,,,,,,,,,,,,,,,,,,,,,,,,,,,,,,,,,,,,,,,,,,,,,,,,,,,,,,,,,,,,,,,,,,,,,,,,,,,,,,,,,,,,,,,,,,,,,,,,,,,,,,,,,,,,,,,,,,,,,,,,,,,,,,,,,,,,,,,,,,,,,,,,,,,,,,,
,,,,,,60db74fcb5f4526ce90594a1,62c53aa0aa2bc9b5bcef82fb,2022-07-06_09h33.45.109,Colour_Asymmetry_Pilot,2022.1.3,Win32,60.0060006,62c50e9c1127f2cd403a315f,0,127,127,13,1,threefour,,,,,,,,,,,,,,,,,,,,,,,,,,,,,,,,,,,,,,,,,,,,,,,,,,,,,,,,,,,,,,,,,,,,,,,,,,,,,,,,,,,,,,,,,,,,,,,,,,,,,,,,,,,,,,,,,,,,,,,,,,,,,,,,,,,,,,,,,,,,,,,,,,,,,,,,,,,,,
,,,,,,60db74fcb5f4526ce90594a1,62c53aa0aa2bc9b5bcef82fb,2022-07-06_09h33.45.109,Colour_Asymmetry_Pilot,2022.1.3,Win32,60.0060006,62c50e9c1127f2cd403a315f,0,128,128,21,1,threefour,,,,,,,,,,,,,,,,,,,,,,,,,,,,,,,,,,,,,,,,,,,,,,,,,,,,,,,,,,,,,,,,,,,,,,,,,,,,,,,,,,,,,,,,,,,,,,,,,,,,,,,,,,,,,,,,,,,,,,,,,,,,,,,,,,,,,,,,,,,,,,,,,,,,,,,,,,,,,
,,,,,,60db74fcb5f4526ce90594a1,62c53aa0aa2bc9b5bcef82fb,2022-07-06_09h33.45.109,Colour_Asymmetry_Pilot,2022.1.3,Win32,60.0060006,62c50e9c1127f2cd403a315f,0,129,129,88,1,onetwo,,,,,,,,,,,,,,,,,,,,,,,,,,,,,,,,,,,,,,,,,,,,,,,,,,,,,,,,,,,,,,,,,,,,,,,,,,,,,,,,,,,,,,,,,,,,,,,,,,,,,,,,,,,,,,,,,,,,,,,,,,,,,,,,,,,,,,,,,,,,,,,,,,,,,,,,,,,,,
,,,,,,60db74fcb5f4526ce90594a1,62c53aa0aa2bc9b5bcef82fb,2022-07-06_09h33.45.109,Colour_Asymmetry_Pilot,2022.1.3,Win32,60.0060006,62c50e9c1127f2cd403a315f,0,130,130,85,1,threefour,,,,,,,,,,,,,,,,,,,,,,,,,,,,,,,,,,,,,,,,,,,,,,,,,,,,,,,,,,,,,,,,,,,,,,,,,,,,,,,,,,,,,,,,,,,,,,,,,,,,,,,,,,,,,,,,,,,,,,,,,,,,,,,,,,,,,,,,,,,,,,,,,,,,,,,,,,,,,
,,,,,,60db74fcb5f4526ce90594a1,62c53aa0aa2bc9b5bcef82fb,2022-07-06_09h33.45.109,Colour_Asymmetry_Pilot,2022.1.3,Win32,60.0060006,62c50e9c1127f2cd403a315f,0,131,131,75,1,twofour,,,,,,,,,,,,,,,,,,,,,,,,,,,,,,,,,,,,,,,,,,,,,,,,,,,,,,,,,,,,,,,,,,,,,,,,,,,,,,,,,,,,,,,,,,,,,,,,,,,,,,,,,,,,,,,,,,,,,,,,,,,,,,,,,,,,,,,,,,,,,,,,,,,,,,,,,,,,,
,,,,,,60db74fcb5f4526ce90594a1,62c53aa0aa2bc9b5bcef82fb,2022-07-06_09h33.45.109,Colour_Asymmetry_Pilot,2022.1.3,Win32,60.0060006,62c50e9c1127f2cd403a315f,0,132,132,81,1,onethree,,,,,,,,,,,,,,,,,,,,,,,,,,,,,,,,,,,,,,,,,,,,,,,,,,,,,,,,,,,,,,,,,,,,,,,,,,,,,,,,,,,,,,,,,,,,,,,,,,,,,,,,,,,,,,,,,,,,,,,,,,,,,,,,,,,,,,,,,,,,,,,,,,,,,,,,,,,,,
,,,,,,60db74fcb5f4526ce90594a1,62c53aa0aa2bc9b5bcef82fb,2022-07-06_09h33.45.109,Colour_Asymmetry_Pilot,2022.1.3,Win32,60.0060006,62c50e9c1127f2cd403a315f,0,133,133,54,1,fourtwo,,,,,,,,,,,,,,,,,,,,,,,,,,,,,,,,,,,,,,,,,,,,,,,,,,,,,,,,,,,,,,,,,,,,,,,,,,,,,,,,,,,,,,,,,,,,,,,,,,,,,,,,,,,,,,,,,,,,,,,,,,,,,,,,,,,,,,,,,,,,,,,,,,,,,,,,,,,,,
,,,,,,60db74fcb5f4526ce90594a1,62c53aa0aa2bc9b5bcef82fb,2022-07-06_09h33.45.109,Colour_Asymmetry_Pilot,2022.1.3,Win32,60.0060006,62c50e9c1127f2cd403a315f,0,134,134,117,1,threefour,,,,,,,,,,,,,,,,,,,,,,,,,,,,,,,,,,,,,,,,,,,,,,,,,,,,,,,,,,,,,,,,,,,,,,,,,,,,,,,,,,,,,,,,,,,,,,,,,,,,,,,,,,,,,,,,,,,,,,,,,,,,,,,,,,,,,,,,,,,,,,,,,,,,,,,,,,,,,
,,,,,,60db74fcb5f4526ce90594a1,62c53aa0aa2bc9b5bcef82fb,2022-07-06_09h33.45.109,Colour_Asymmetry_Pilot,2022.1.3,Win32,60.0060006,62c50e9c1127f2cd403a315f,0,135,135,77,1,threefour,,,,,,,,,,,,,,,,,,,,,,,,,,,,,,,,,,,,,,,,,,,,,,,,,,,,,,,,,,,,,,,,,,,,,,,,,,,,,,,,,,,,,,,,,,,,,,,,,,,,,,,,,,,,,,,,,,,,,,,,,,,,,,,,,,,,,,,,,,,,,,,,,,,,,,,,,,,,,
,,,,,,60db74fcb5f4526ce90594a1,62c53aa0aa2bc9b5bcef82fb,2022-07-06_09h33.45.109,Colour_Asymmetry_Pilot,2022.1.3,Win32,60.0060006,62c50e9c1127f2cd403a315f,0,136,136,101,1,threefour,,,,,,,,,,,,,,,,,,,,,,,,,,,,,,,,,,,,,,,,,,,,,,,,,,,,,,,,,,,,,,,,,,,,,,,,,,,,,,,,,,,,,,,,,,,,,,,,,,,,,,,,,,,,,,,,,,,,,,,,,,,,,,,,,,,,,,,,,,,,,,,,,,,,,,,,,,,,,
,,,,,,60db74fcb5f4526ce90594a1,62c53aa0aa2bc9b5bcef82fb,2022-07-06_09h33.45.109,Colour_Asymmetry_Pilot,2022.1.3,Win32,60.0060006,62c50e9c1127f2cd403a315f,0,137,137,74,1,twoone,,,,,,,,,,,,,,,,,,,,,,,,,,,,,,,,,,,,,,,,,,,,,,,,,,,,,,,,,,,,,,,,,,,,,,,,,,,,,,,,,,,,,,,,,,,,,,,,,,,,,,,,,,,,,,,,,,,,,,,,,,,,,,,,,,,,,,,,,,,,,,,,,,,,,,,,,,,,,
,,,,,,60db74fcb5f4526ce90594a1,62c53aa0aa2bc9b5bcef82fb,2022-07-06_09h33.45.109,Colour_Asymmetry_Pilot,2022.1.3,Win32,60.0060006,62c50e9c1127f2cd403a315f,0,138,138,98,1,twoone,,,,,,,,,,,,,,,,,,,,,,,,,,,,,,,,,,,,,,,,,,,,,,,,,,,,,,,,,,,,,,,,,,,,,,,,,,,,,,,,,,,,,,,,,,,,,,,,,,,,,,,,,,,,,,,,,,,,,,,,,,,,,,,,,,,,,,,,,,,,,,,,,,,,,,,,,,,,,
,,,,,,60db74fcb5f4526ce90594a1,62c53aa0aa2bc9b5bcef82fb,2022-07-06_09h33.45.109,Colour_Asymmetry_Pilot,2022.1.3,Win32,60.0060006,62c50e9c1127f2cd403a315f,0,139,139,145,1,onethree,,,,,,,,,,,,,,,,,,,,,,,,,,,,,,,,,,,,,,,,,,,,,,,,,,,,,,,,,,,,,,,,,,,,,,,,,,,,,,,,,,,,,,,,,,,,,,,,,,,,,,,,,,,,,,,,,,,,,,,,,,,,,,,,,,,,,,,,,,,,,,,,,,,,,,,,,,,,,
,,,,,,60db74fcb5f4526ce90594a1,62c53aa0aa2bc9b5bcef82fb,2022-07-06_09h33.45.109,Colour_Asymmetry_Pilot,2022.1.3,Win32,60.0060006,62c50e9c1127f2cd403a315f,0,140,140,111,1,fourthree,,,,,,,,,,,,,,,,,,,,,,,,,,,,,,,,,,,,,,,,,,,,,,,,,,,,,,,,,,,,,,,,,,,,,,,,,,,,,,,,,,,,,,,,,,,,,,,,,,,,,,,,,,,,,,,,,,,,,,,,,,,,,,,,,,,,,,,,,,,,,,,,,,,,,,,,,,,,,
,,,,,,60db74fcb5f4526ce90594a1,62c53aa0aa2bc9b5bcef82fb,2022-07-06_09h33.45.109,Colour_Asymmetry_Pilot,2022.1.3,Win32,60.0060006,62c50e9c1127f2cd403a315f,0,141,141,95,1,fourthree,,,,,,,,,,,,,,,,,,,,,,,,,,,,,,,,,,,,,,,,,,,,,,,,,,,,,,,,,,,,,,,,,,,,,,,,,,,,,,,,,,,,,,,,,,,,,,,,,,,,,,,,,,,,,,,,,,,,,,,,,,,,,,,,,,,,,,,,,,,,,,,,,,,,,,,,,,,,,
,,,,,,60db74fcb5f4526ce90594a1,62c53aa0aa2bc9b5bcef82fb,2022-07-06_09h33.45.109,Colour_Asymmetry_Pilot,2022.1.3,Win32,60.0060006,62c50e9c1127f2cd403a315f,0,142,142,79,1,fourthree,,,,,,,,,,,,,,,,,,,,,,,,,,,,,,,,,,,,,,,,,,,,,,,,,,,,,,,,,,,,,,,,,,,,,,,,,,,,,,,,,,,,,,,,,,,,,,,,,,,,,,,,,,,,,,,,,,,,,,,,,,,,,,,,,,,,,,,,,,,,,,,,,,,,,,,,,,,,,
,,,,,,60db74fcb5f4526ce90594a1,62c53aa0aa2bc9b5bcef82fb,2022-07-06_09h33.45.109,Colour_Asymmetry_Pilot,2022.1.3,Win32,60.0060006,62c50e9c1127f2cd403a315f,0,143,143,60,1,threeone,,,,,,,,,,,,,,,,,,,,,,,,,,,,,,,,,,,,,,,,,,,,,,,,,,,,,,,,,,,,,,,,,,,,,,,,,,,,,,,,,,,,,,,,,,,,,,,,,,,,,,,,,,,,,,,,,,,,,,,,,,,,,,,,,,,,,,,,,,,,,,,,,,,,,,,,,,,,,
,,,,,,60db74fcb5f4526ce90594a1,62c53aa0aa2bc9b5bcef82fb,2022-07-06_09h33.45.109,Colour_Asymmetry_Pilot,2022.1.3,Win32,60.0060006,62c50e9c1127f2cd403a315f,0,144,144,70,1,fourtwo,,,,,,,,,,,,,,,,,,,,,,,,,,,,,,,,,,,,,,,,,,,,,,,,,,,,,,,,,,,,,,,,,,,,,,,,,,,,,,,,,,,,,,,,,,,,,,,,,,,,,,,,,,,,,,,,,,,,,,,,,,,,,,,,,,,,,,,,,,,,,,,,,,,,,,,,,,,,,
,,,,,,60db74fcb5f4526ce90594a1,62c53aa0aa2bc9b5bcef82fb,2022-07-06_09h33.45.109,Colour_Asymmetry_Pilot,2022.1.3,Win32,60.0060006,62c50e9c1127f2cd403a315f,0,145,145,4,1,threeone,,,,,,,,,,,,,,,,,,,,,,,,,,,,,,,,,,,,,,,,,,,,,,,,,,,,,,,,,,,,,,,,,,,,,,,,,,,,,,,,,,,,,,,,,,,,,,,,,,,,,,,,,,,,,,,,,,,,,,,,,,,,,,,,,,,,,,,,,,,,,,,,,,,,,,,,,,,,,
,,,,,,60db74fcb5f4526ce90594a1,62c53aa0aa2bc9b5bcef82fb,2022-07-06_09h33.45.109,Colour_Asymmetry_Pilot,2022.1.3,Win32,60.0060006,62c50e9c1127f2cd403a315f,0,146,146,137,1,onethree,,,,,,,,,,,,,,,,,,,,,,,,,,,,,,,,,,,,,,,,,,,,,,,,,,,,,,,,,,,,,,,,,,,,,,,,,,,,,,,,,,,,,,,,,,,,,,,,,,,,,,,,,,,,,,,,,,,,,,,,,,,,,,,,,,,,,,,,,,,,,,,,,,,,,,,,,,,,,
,,,,,,60db74fcb5f4526ce90594a1,62c53aa0aa2bc9b5bcef82fb,2022-07-06_09h33.45.109,Colour_Asymmetry_Pilot,2022.1.3,Win32,60.0060006,62c50e9c1127f2cd403a315f,0,147,147,12,1,threeone,,,,,,,,,,,,,,,,,,,,,,,,,,,,,,,,,,,,,,,,,,,,,,,,,,,,,,,,,,,,,,,,,,,,,,,,,,,,,,,,,,,,,,,,,,,,,,,,,,,,,,,,,,,,,,,,,,,,,,,,,,,,,,,,,,,,,,,,,,,,,,,,,,,,,,,,,,,,,
,,,,,,60db74fcb5f4526ce90594a1,62c53aa0aa2bc9b5bcef82fb,2022-07-06_09h33.45.109,Colour_Asymmetry_Pilot,2022.1.3,Win32,60.0060006,62c50e9c1127f2cd403a315f,0,148,148,36,1,threeone,,,,,,,,,,,,,,,,,,,,,,,,,,,,,,,,,,,,,,,,,,,,,,,,,,,,,,,,,,,,,,,,,,,,,,,,,,,,,,,,,,,,,,,,,,,,,,,,,,,,,,,,,,,,,,,,,,,,,,,,,,,,,,,,,,,,,,,,,,,,,,,,,,,,,,,,,,,,,
,,,,,,60db74fcb5f4526ce90594a1,62c53aa0aa2bc9b5bcef82fb,2022-07-06_09h33.45.109,Colour_Asymmetry_Pilot,2022.1.3,Win32,60.0060006,62c50e9c1127f2cd403a315f,0,149,149,127,1,fourthree,,,,,,,,,,,,,,,,,,,,,,,,,,,,,,,,,,,,,,,,,,,,,,,,,,,,,,,,,,,,,,,,,,,,,,,,,,,,,,,,,,,,,,,,,,,,,,,,,,,,,,,,,,,,,,,,,,,,,,,,,,,,,,,,,,,,,,,,,,,,,,,,,,,,,,,,,,,,,
,,,,,,60db74fcb5f4526ce90594a1,62c53aa0aa2bc9b5bcef82fb,2022-07-06_09h33.45.109,Colour_Asymmetry_Pilot,2022.1.3,Win32,60.0060006,62c50e9c1127f2cd403a315f,0,150,150,150,1,fourtwo,,,,,,,,,,,,,,,,,,,,,,,,,,,,,,,,,,,,,,,,,,,,,,,,,,,,,,,,,,,,,,,,,,,,,,,,,,,,,,,,,,,,,,,,,,,,,,,,,,,,,,,,,,,,,,,,,,,,,,,,,,,,,,,,,,,,,,,,,,,,,,,,,,,,,,,,,,,,,
,,,,,,60db74fcb5f4526ce90594a1,62c53aa0aa2bc9b5bcef82fb,2022-07-06_09h33.45.109,Colour_Asymmetry_Pilot,2022.1.3,Win32,60.0060006,62c50e9c1127f2cd403a315f,0,151,151,14,1,fourtwo,,,,,,,,,,,,,,,,,,,,,,,,,,,,,,,,,,,,,,,,,,,,,,,,,,,,,,,,,,,,,,,,,,,,,,,,,,,,,,,,,,,,,,,,,,,,,,,,,,,,,,,,,,,,,,,,,,,,,,,,,,,,,,,,,,,,,,,,,,,,,,,,,,,,,,,,,,,,,
,,,,,,60db74fcb5f4526ce90594a1,62c53aa0aa2bc9b5bcef82fb,2022-07-06_09h33.45.109,Colour_Asymmetry_Pilot,2022.1.3,Win32,60.0060006,62c50e9c1127f2cd403a315f,0,152,152,109,1,threefour,,,,,,,,,,,,,,,,,,,,,,,,,,,,,,,,,,,,,,,,,,,,,,,,,,,,,,,,,,,,,,,,,,,,,,,,,,,,,,,,,,,,,,,,,,,,,,,,,,,,,,,,,,,,,,,,,,,,,,,,,,,,,,,,,,,,,,,,,,,,,,,,,,,,,,,,,,,,,
,,,,,,60db74fcb5f4526ce90594a1,62c53aa0aa2bc9b5bcef82fb,2022-07-06_09h33.45.109,Colour_Asymmetry_Pilot,2022.1.3,Win32,60.0060006,62c50e9c1127f2cd403a315f,0,153,153,16,1,onetwo,,,,,,,,,,,,,,,,,,,,,,,,,,,,,,,,,,,,,,,,,,,,,,,,,,,,,,,,,,,,,,,,,,,,,,,,,,,,,,,,,,,,,,,,,,,,,,,,,,,,,,,,,,,,,,,,,,,,,,,,,,,,,,,,,,,,,,,,,,,,,,,,,,,,,,,,,,,,,
,,,,,,60db74fcb5f4526ce90594a1,62c53aa0aa2bc9b5bcef82fb,2022-07-06_09h33.45.109,Colour_Asymmetry_Pilot,2022.1.3,Win32,60.0060006,62c50e9c1127f2cd403a315f,0,154,154,49,1,onethree,,,,,,,,,,,,,,,,,,,,,,,,,,,,,,,,,,,,,,,,,,,,,,,,,,,,,,,,,,,,,,,,,,,,,,,,,,,,,,,,,,,,,,,,,,,,,,,,,,,,,,,,,,,,,,,,,,,,,,,,,,,,,,,,,,,,,,,,,,,,,,,,,,,,,,,,,,,,,
,,,,,,60db74fcb5f4526ce90594a1,62c53aa0aa2bc9b5bcef82fb,2022-07-06_09h33.45.109,Colour_Asymmetry_Pilot,2022.1.3,Win32,60.0060006,62c50e9c1127f2cd403a315f,0,155,155,89,1,onethree,,,,,,,,,,,,,,,,,,,,,,,,,,,,,,,,,,,,,,,,,,,,,,,,,,,,,,,,,,,,,,,,,,,,,,,,,,,,,,,,,,,,,,,,,,,,,,,,,,,,,,,,,,,,,,,,,,,,,,,,,,,,,,,,,,,,,,,,,,,,,,,,,,,,,,,,,,,,,
,,,,,,60db74fcb5f4526ce90594a1,62c53aa0aa2bc9b5bcef82fb,2022-07-06_09h33.45.109,Colour_Asymmetry_Pilot,2022.1.3,Win32,60.0060006,62c50e9c1127f2cd403a315f,0,156,156,108,1,threeone,,,,,,,,,,,,,,,,,,,,,,,,,,,,,,,,,,,,,,,,,,,,,,,,,,,,,,,,,,,,,,,,,,,,,,,,,,,,,,,,,,,,,,,,,,,,,,,,,,,,,,,,,,,,,,,,,,,,,,,,,,,,,,,,,,,,,,,,,,,,,,,,,,,,,,,,,,,,,
,,,,,,60db74fcb5f4526ce90594a1,62c53aa0aa2bc9b5bcef82fb,2022-07-06_09h33.45.109,Colour_Asymmetry_Pilot,2022.1.3,Win32,60.0060006,62c50e9c1127f2cd403a315f,0,157,157,140,1,threeone,,,,,,,,,,,,,,,,,,,,,,,,,,,,,,,,,,,,,,,,,,,,,,,,,,,,,,,,,,,,,,,,,,,,,,,,,,,,,,,,,,,,,,,,,,,,,,,,,,,,,,,,,,,,,,,,,,,,,,,,,,,,,,,,,,,,,,,,,,,,,,,,,,,,,,,,,,,,,
,,,,,,60db74fcb5f4526ce90594a1,62c53aa0aa2bc9b5bcef82fb,2022-07-06_09h33.45.109,Colour_Asymmetry_Pilot,2022.1.3,Win32,60.0060006,62c50e9c1127f2cd403a315f,0,158,158,72,1,onetwo,,,,,,,,,,,,,,,,,,,,,,,,,,,,,,,,,,,,,,,,,,,,,,,,,,,,,,,,,,,,,,,,,,,,,,,,,,,,,,,,,,,,,,,,,,,,,,,,,,,,,,,,,,,,,,,,,,,,,,,,,,,,,,,,,,,,,,,,,,,,,,,,,,,,,,,,,,,,,
,,,,,,60db74fcb5f4526ce90594a1,62c53aa0aa2bc9b5bcef82fb,2022-07-06_09h33.45.109,Colour_Asymmetry_Pilot,2022.1.3,Win32,60.0060006,62c50e9c1127f2cd403a315f,0,159,159,84,1,threeone,,,,,,,,,,,,,,,,,,,,,,,,,,,,,,,,,,,,,,,,,,,,,,,,,,,,,,,,,,,,,,,,,,,,,,,,,,,,,,,,,,,,,,,,,,,,,,,,,,,,,,,,,,,,,,,,,,,,,,,,,,,,,,,,,,,,,,,,,,,,,,,,,,,,,,,,,,,,,
,,,,,,60db74fcb5f4526ce90594a1,62c53aa0aa2bc9b5bcef82fb,2022-07-06_09h33.45.109,Colour_Asymmetry_Pilot,2022.1.3,Win32,60.0060006,62c50e9c1127f2cd403a315f,0,160,160,6,1,fourtwo,,,,,,,,,,,,,,,,,,,,,,,,,,,,,,,,,,,,,,,,,,,,,,,,,,,,,,,,,,,,,,,,,,,,,,,,,,,,,,,,,,,,,,,,,,,,,,,,,,,,,,,,,,,,,,,,,,,,,,,,,,,,,,,,,,,,,,,,,,,,,,,,,,,,,,,,,,,,,
,,,,,,60db74fcb5f4526ce90594a1,62c53aa0aa2bc9b5bcef82fb,2022-07-06_09h33.45.109,Colour_Asymmetry_Pilot,2022.1.3,Win32,60.0060006,62c50e9c1127f2cd403a315f,0,161,161,153,1,onethree,,,,,,,,,,,,,,,,,,,,,,,,,,,,,,,,,,,,,,,,,,,,,,,,,,,,,,,,,,,,,,,,,,,,,,,,,,,,,,,,,,,,,,,,,,,,,,,,,,,,,,,,,,,,,,,,,,,,,,,,,,,,,,,,,,,,,,,,,,,,,,,,,,,,,,,,,,,,,
,,,,,,60db74fcb5f4526ce90594a1,62c53aa0aa2bc9b5bcef82fb,2022-07-06_09h33.45.109,Colour_Asymmetry_Pilot,2022.1.3,Win32,60.0060006,62c50e9c1127f2cd403a315f,,,,,,,space,4.0994,space,57.9197,space,42.9584,space,88.2905,space,7.1174,space,6.1507,"[0.3568,-0.20799999999999996,-0.9844]",threeone,"[-0.07459999999999989,0.12139999999999995,-0.9922]",4,22.2848,29,84,1,0,0,response1disk_5,-2,3,1,0,0,rectangle_8,-2,3,1,0,0,1,-2,3,1,0,0,0,0,0,0,1,,,,,,,,,,,,,,,,,,,,,,,,,,,,,,,,,,,,,,,,,,,,,,,,,,,,,,,,,,,,,,,,,,,,,,,,,,,,,,,,,,,,,,,,,,,,,,,,,,,,,,,,,,,,,,,,
,,,,,,60db74fcb5f4526ce90594a1,62c53aa0aa2bc9b5bcef82fb,2022-07-06_09h33.45.109,Colour_Asymmetry_Pilot,2022.1.3,Win32,60.0060006,62c50e9c1127f2cd403a315f,,,,,,,,,,,,,,,,,,,"[0.23920000000000008,0.2704,0.16060000000000008]",twofour,"[-0.26280000000000003,-0.4746,-0.2158]",-3,4.8006,-72,35,1,0,0,response7disk_5,9,2,1,0,0,rectangle_8,9,2,1,0,0,1,9,2,1,0,0,1,0,1,0,1,,,,,,,,,,,,,,,,,,,,,,,,,,,,,,,,,,,,,,,,,,,,,,,,,,,,,,,,,,,,,,,,,,,,,,,,,,,,,,,,,,,,,,,,,,,,,,,,,,,,,,,,,,,,,,,,
,,,,,,60db74fcb5f4526ce90594a1,62c53aa0aa2bc9b5bcef82fb,2022-07-06_09h33.45.109,Colour_Asymmetry_Pilot,2022.1.3,Win32,60.0060006,62c50e9c1127f2cd403a315f,,,,,,,,,,,,,,,,,,,"[-0.4982,-0.2942,-0.0354000000000001]",twofour,"[0.9372,0.9450000000000001,0.8980000000000001]",-1,4.0842,-41,-99,1,0,0,response5disk_5,-6,-1,1,0,0,rectangle_8,-6,-1,1,0,0,1,-6,-1,1,0,0,2,0,2,0,1,,,,,,,,,,,,,,,,,,,,,,,,,,,,,,,,,,,,,,,,,,,,,,,,,,,,,,,,,,,,,,,,,,,,,,,,,,,,,,,,,,,,,,,,,,,,,,,,,,,,,,,,,,,,,,,,
,,,,,,60db74fcb5f4526ce90594a1,62c53aa0aa2bc9b5bcef82fb,2022-07-06_09h33.45.109,Colour_Asymmetry_Pilot,2022.1.3,Win32,60.0060006,62c50e9c1127f2cd403a315f,,,,,,,,,,,,,,,,,,,"[0.9213999999999998,0.6391999999999998,-0.9922]",onethree,"[-0.01980000000000004,-0.5138,-0.38039999999999996]",-1,2.4008,-56,-89,1,0,0,response5disk_5,3,-3,1,0,0,rectangle_8,3,-3,1,0,0,1,3,-3,1,0,0,3,0,3,0,1,,,,,,,,,,,,,,,,,,,,,,,,,,,,,,,,,,,,,,,,,,,,,,,,,,,,,,,,,,,,,,,,,,,,,,,,,,,,,,,,,,,,,,,,,,,,,,,,,,,,,,,,,,,,,,,,
,,,,,,60db74fcb5f4526ce90594a1,62c53aa0aa2bc9b5bcef82fb,2022-07-06_09h33.45.109,Colour_Asymmetry_Pilot,2022.1.3,Win32,60.0060006,62c50e9c1127f2cd403a315f,,,,,,,,,,,,,,,,,,,"[0.6547999999999998,-0.043199999999999905,-0.011800000000000033]",twofour,"[-0.8982,-0.37259999999999993,0.2784]",1,5.5856,57,-96,1,0,0,response3disk_5,-10,2,1,0,0,rectangle_8,-10,2,1,0,0,1,-10,2,1,0,0,4,0,4,0,1,,,,,,,,,,,,,,,,,,,,,,,,,,,,,,,,,,,,,,,,,,,,,,,,,,,,,,,,,,,,,,,,,,,,,,,,,,,,,,,,,,,,,,,,,,,,,,,,,,,,,,,,,,,,,,,,
,,,,,,60db74fcb5f4526ce90594a1,62c53aa0aa2bc9b5bcef82fb,2022-07-06_09h33.45.109,Colour_Asymmetry_Pilot,2022.1.3,Win32,60.0060006,62c50e9c1127f2cd403a315f,,,,,,,,,,,,,,,,,,,"[-0.6235999999999999,-0.6786,-0.08239999999999992]",threefour,"[0.7802,-0.23140000000000005,-0.20799999999999996]",-1,1.3503,-48,-91,1,0,0,response5disk_5,-6,13,1,0,0,rectangle_8,30,-96,1,0,0,1,12,6,1,0,0,5,0,5,0,1,response3disk_7,4,rectangle_4,,,,,,,,,,,,,,,,,,,,,,,,,,,,,,,,,,,,,,,,,,,,,,,,,,,,,,,,,,,,,,,,,,,,,,,,,,,,,,,,,,,,,,,,,,,,,,,,,,,,,,,,,,,,,
,,,,,,60db74fcb5f4526ce90594a1,62c53aa0aa2bc9b5bcef82fb,2022-07-06_09h33.45.109,Colour_Asymmetry_Pilot,2022.1.3,Win32,60.0060006,62c50e9c1127f2cd403a315f,,,,,,,,,,,,,,,,,,,"[-0.4276,0.0038000000000000256,-0.3256]",twofour,"[-0.9688,-0.4902000000000001,-0.12159999999999993]",-1,4.0838,-53,-88,1,0,0,response5disk_5,-21,-2,1,0,0,rectangle_8,-21,-2,1,0,0,1,-21,-2,1,0,0,6,0,6,0,1,,,,,,,,,,,,,,,,,,,,,,,,,,,,,,,,,,,,,,,,,,,,,,,,,,,,,,,,,,,,,,,,,,,,,,,,,,,,,,,,,,,,,,,,,,,,,,,,,,,,,,,,,,,,,,,,
,,,,,,60db74fcb5f4526ce90594a1,62c53aa0aa2bc9b5bcef82fb,2022-07-06_09h33.45.109,Colour_Asymmetry_Pilot,2022.1.3,Win32,60.0060006,62c50e9c1127f2cd403a315f,,,,,,,,,,,,,,,,,,,,onetwo,,-1,1.3514,,,,,,,,,,,,,,,,,,,,,,,,,,,,,,,,space,36.4367,"[-0.2942,-0.24719999999999998,-0.357]","[-0.10599999999999998,-0.10599999999999998,0.5841999999999998]",-52,-103,1,0,0,response5disk,-4,10,1,0,0,rectangle,-4,10,1,0,0,,2,0.0022,0,-4,10,1,0,0,0,0,0,51,1,51,first,,,,,,,,,,,,,,,,,,,,,,,,,,,,,,,,,,,,,,,,,,,,,,,,,,,,,,,,,,,,,,,,,,,,,,,,
,,,,,,60db74fcb5f4526ce90594a1,62c53aa0aa2bc9b5bcef82fb,2022-07-06_09h33.45.109,Colour_Asymmetry_Pilot,2022.1.3,Win32,60.0060006,62c50e9c1127f2cd403a315f,,,,,,,,,,,,,,,,,,,,fourtwo,,4,1.217,,,,,,,,,,,,,,,,,,,,,,,,,,,,,,,,,,"[-0.6,0.16860000000000008,0.44300000000000006]","[-0.10599999999999998,-0.10599999999999998,0.5841999999999998]",31,60,1,0,0,response1disk,-6,4,1,0,0,rectangle,-6,4,1,0,0,,3,0.0014,0,-6,4,1,0,0,0,1,1,95,1,14,second,,,,,,,,,,,,,,,,,,,,,,,,,,,,,,,,,,,,,,,,,,,,,,,,,,,,,,,,,,,,,,,,,,,,,,,,
,,,,,,60db74fcb5f4526ce90594a1,62c53aa0aa2bc9b5bcef82fb,2022-07-06_09h33.45.109,Colour_Asymmetry_Pilot,2022.1.3,Win32,60.0060006,62c50e9c1127f2cd403a315f,,,,,,,,,,,,,,,,,,,,twofour,,-2,2.1669,,,,,,,,,,,,,,,,,,,,,,,,,,,,,,,,,,"[0.34099999999999997,0.5841999999999998,-0.9844]","[-0.9766,-0.6472,0.07440000000000002]",-89,-28,1,0,0,response5disk,2,2,1,0,0,rectangle,2,2,1,0,0,,2,0.0011,0,2,2,1,0,0,0,2,2,146,1,65,second,,,,,,,,,,,,,,,,,,,,,,,,,,,,,,,,,,,,,,,,,,,,,,,,,,,,,,,,,,,,,,,,,,,,,,,,
,,,,,,60db74fcb5f4526ce90594a1,62c53aa0aa2bc9b5bcef82fb,2022-07-06_09h33.45.109,Colour_Asymmetry_Pilot,2022.1.3,Win32,60.0060006,62c50e9c1127f2cd403a315f,,,,,,,,,,,,,,,,,,,,fourthree,,-4,1.7837,,,,,,,,,,,,,,,,,,,,,,,,,,,,,,,,,,"[0.9372,0.9450000000000001,0.8980000000000001]","[1,0.12939999999999996,-1]",-41,91,1,0,0,response7disk,5,-6,1,0,0,rectangle,5,-6,1,0,0,,3,0.0013,0,5,-6,1,0,0,0,3,3,96,1,15,second,,,,,,,,,,,,,,,,,,,,,,,,,,,,,,,,,,,,,,,,,,,,,,,,,,,,,,,,,,,,,,,,,,,,,,,,
,,,,,,60db74fcb5f4526ce90594a1,62c53aa0aa2bc9b5bcef82fb,2022-07-06_09h33.45.109,Colour_Asymmetry_Pilot,2022.1.3,Win32,60.0060006,62c50e9c1127f2cd403a315f,,,,,,,,,,,,,,,,,,,,fourthree,,-4,0.9502,,,,,,,,,,,,,,,,,,,,,,,,,,,,,,,,,,"[-0.9766,-0.6472,0.07440000000000002]","[0.34099999999999997,0.5841999999999998,-0.9844]",-31,50,1,0,0,response7disk,-8,4,1,0,0,rectangle,-8,4,1,0,0,,3,0.0001,0,-8,4,1,0,0,0,4,4,65,1,65,first,,,,,,,,,,,,,,,,,,,,,,,,,,,,,,,,,,,,,,,,,,,,,,,,,,,,,,,,,,,,,,,,,,,,,,,,
,,,,,,60db74fcb5f4526ce90594a1,62c53aa0aa2bc9b5bcef82fb,2022-07-06_09h33.45.109,Colour_Asymmetry_Pilot,2022.1.3,Win32,60.0060006,62c50e9c1127f2cd403a315f,,,,,,,,,,,,,,,,,,,,fourthree,,-4,2.8005,,,,,,,,,,,,,,,,,,,,,,,,,,,,,,,,,,"[0.9686000000000001,0.3802000000000001,0.19999999999999996]","[-0.6235999999999999,-0.6786,-0.08239999999999992]",-44,73,1,0,0,response7disk,-3,-6,1,0,0,rectangle,-3,-6,1,0,0,,3,0.0002,0,-3,-6,1,0,0,0,5,5,45,1,45,first,,,,,,,,,,,,,,,,,,,,,,,,,,,,,,,,,,,,,,,,,,,,,,,,,,,,,,,,,,,,,,,,,,,,,,,,
,,,,,,60db74fcb5f4526ce90594a1,62c53aa0aa2bc9b5bcef82fb,2022-07-06_09h33.45.109,Colour_Asymmetry_Pilot,2022.1.3,Win32,60.0060006,62c50e9c1127f2cd403a315f,,,,,,,,,,,,,,,,,,,,twoone,,-4,1.1354,,,,,,,,,,,,,,,,,,,,,,,,,,,,,,,,,,"[0.18419999999999992,-0.4276,-0.404]","[-0.9766,-0.34920000000000007,0.2156]",-46,73,1,0,0,response7disk,-14,-7,1,0,0,rectangle,-14,-7,1,0,0,,2,0.0012,0,-14,-7,1,0,0,0,6,6,43,1,43,first,,,,,,,,,,,,,,,,,,,,,,,,,,,,,,,,,,,,,,,,,,,,,,,,,,,,,,,,,,,,,,,,,,,,,,,,
,,,,,,60db74fcb5f4526ce90594a1,62c53aa0aa2bc9b5bcef82fb,2022-07-06_09h33.45.109,Colour_Asymmetry_Pilot,2022.1.3,Win32,60.0060006,62c50e9c1127f2cd403a315f,,,,,,,,,,,,,,,,,,,,fourtwo,,-2,6.5335,,,,,,,,,,,,,,,,,,,,,,,,,,,,,,,,,,"[0.34099999999999997,0.12939999999999996,-0.9766]","[-0.30200000000000005,0.14500000000000002,0.2784]",-80,-56,1,0,0,response5disk,9,6,1,0,0,rectangle,9,6,1,0,0,,1,0.0013,0,9,6,1,0,0,0,7,7,121,1,40,second,,,,,,,,,,,,,,,,,,,,,,,,,,,,,,,,,,,,,,,,,,,,,,,,,,,,,,,,,,,,,,,,,,,,,,,,
,,,,,,60db74fcb5f4526ce90594a1,62c53aa0aa2bc9b5bcef82fb,2022-07-06_09h33.45.109,Colour_Asymmetry_Pilot,2022.1.3,Win32,60.0060006,62c50e9c1127f2cd403a315f,,,,,,,,,,,,,,,,,,,,fourthree,,-4,1.0171,,,,,,,,,,,,,,,,,,,,,,,,,,,,,,,,,,"[-0.8982,-0.37259999999999993,0.2784]","[0.7018,0.7176,0.6155999999999999]",-44,96,1,0,0,response7disk,1,0,1,0,0,rectangle,99,39,1,0,0,3,3,2.7028,1,-6,3,1,0,0,0,8,8,136,1,55,second,response1disk_3,rectangle,,,,,,,,,,,,,,,,,,,,,,,,,,,,,,,,,,,,,,,,,,,,,,,,,,,,,,,,,,,,,,,,,,,,,,
,,,,,,60db74fcb5f4526ce90594a1,62c53aa0aa2bc9b5bcef82fb,2022-07-06_09h33.45.109,Colour_Asymmetry_Pilot,2022.1.3,Win32,60.0060006,62c50e9c1127f2cd403a315f,,,,,,,,,,,,,,,,,,,,twoone,,-4,0.968,,,,,,,,,,,,,,,,,,,,,,,,,,,,,,,,,,"[-0.7412000000000001,-0.08239999999999992,-0.6864]","[0.9213999999999998,0.6391999999999998,-0.9922]",-41,81,1,0,0,response7disk,1,-2,1,0,0,rectangle,1,-2,1,0,0,3,2,0.0013,0,1,-2,1,0,0,0,9,9,86,1,5,second,,,,,,,,,,,,,,,,,,,,,,,,,,,,,,,,,,,,,,,,,,,,,,,,,,,,,,,,,,,,,,,,,,,,,,,,
,,,,,,60db74fcb5f4526ce90594a1,62c53aa0aa2bc9b5bcef82fb,2022-07-06_09h33.45.109,Colour_Asymmetry_Pilot,2022.1.3,Win32,60.0060006,62c50e9c1127f2cd403a315f,,,,,,,,,,,,,,,,,,,,onetwo,,2,2.5336,,,,,,,,,,,,,,,,,,,,,,,,,,,,,,,,,,"[-0.2942,-0.7648,-0.7492000000000001]","[0.5449999999999999,-0.31000000000000005,-0.0354000000000001]",94,-44,1,0,0,response3disk,-5,13,1,0,0,rectangle,-5,13,1,0,0,3,3,0.0012,0,-5,13,1,0,0,0,10,10,59,1,59,first,,,,,,,,,,,,,,,,,,,,,,,,,,,,,,,,,,,,,,,,,,,,,,,,,,,,,,,,,,,,,,,,,,,,,,,,
,,,,,,60db74fcb5f4526ce90594a1,62c53aa0aa2bc9b5bcef82fb,2022-07-06_09h33.45.109,Colour_Asymmetry_Pilot,2022.1.3,Win32,60.0060006,62c50e9c1127f2cd403a315f,,,,,,,,,,,,,,,,,,,,onethree,,-3,1.1841,,,,,,,,,,,,,,,,,,,,,,,,,,,,,,,,,,"[-0.20799999999999996,-0.655,-0.01980000000000004]","[1,0.12939999999999996,-1]",-65,26,1,0,0,response7disk,-6,-5,1,0,0,rectangle,-6,-5,1,0,0,3,1,0.0028,0,-6,-5,1,0,0,0,11,11,21,1,21,first,,,,,,,,,,,,,,,,,,,,,,,,,,,,,,,,,,,,,,,,,,,,,,,,,,,,,,,,,,,,,,,,,,,,,,,,
,,,,,,60db74fcb5f4526ce90594a1,62c53aa0aa2bc9b5bcef82fb,2022-07-06_09h33.45.109,Colour_Asymmetry_Pilot,2022.1.3,Win32,60.0060006,62c50e9c1127f2cd403a315f,,,,,,,,,,,,,,,,,,,,twoone,,-4,0.9502,,,,,,,,,,,,,,,,,,,,,,,,,,,,,,,,,,"[-0.24719999999999998,-0.0354000000000001,0.3175999999999999]","[0.8115999999999999,-0.0040000000000000036,-0.09819999999999995]",-37,57,1,0,0,response7disk,-5,4,1,0,0,rectangle,-5,4,1,0,0,3,3,0.001,0,-5,4,1,0,0,0,12,12,13,1,13,first,,,,,,,,,,,,,,,,,,,,,,,,,,,,,,,,,,,,,,,,,,,,,,,,,,,,,,,,,,,,,,,,,,,,,,,,
,,,,,,60db74fcb5f4526ce90594a1,62c53aa0aa2bc9b5bcef82fb,2022-07-06_09h33.45.109,Colour_Asymmetry_Pilot,2022.1.3,Win32,60.0060006,62c50e9c1127f2cd403a315f,,,,,,,,,,,,,,,,,,,,threeone,,-1,1.9168,,,,,,,,,,,,,,,,,,,,,,,,,,,,,,,,,,"[-0.06680000000000008,-0.45100000000000007,-0.906]","[0.5449999999999999,-0.31000000000000005,-0.0354000000000001]",-51,-70,1,0,0,response5disk,3,12,1,0,0,rectangle,3,12,1,0,0,3,3,0.0002,0,3,12,1,0,0,0,13,13,48,1,48,first,,,,,,,,,,,,,,,,,,,,,,,,,,,,,,,,,,,,,,,,,,,,,,,,,,,,,,,,,,,,,,,,,,,,,,,,
,,,,,,60db74fcb5f4526ce90594a1,62c53aa0aa2bc9b5bcef82fb,2022-07-06_09h33.45.109,Colour_Asymmetry_Pilot,2022.1.3,Win32,60.0060006,62c50e9c1127f2cd403a315f,,,,,,,,,,,,,,,,,,,,twofour,,-1,2.4504,,,,,,,,,,,,,,,,,,,,,,,,,,,,,,,,,,"[0.37240000000000006,0.4980000000000002,-0.2864]","[-0.48240000000000005,0.3175999999999999,0.2156]",-50,-90,1,0,0,response5disk,10,13,1,0,0,rectangle,10,13,1,0,0,3,3,0.0002,0,10,13,1,0,0,0,14,14,118,1,37,second,,,,,,,,,,,,,,,,,,,,,,,,,,,,,,,,,,,,,,,,,,,,,,,,,,,,,,,,,,,,,,,,,,,,,,,,
,,,,,,60db74fcb5f4526ce90594a1,62c53aa0aa2bc9b5bcef82fb,2022-07-06_09h33.45.109,Colour_Asymmetry_Pilot,2022.1.3,Win32,60.0060006,62c50e9c1127f2cd403a315f,,,,,,,,,,,,,,,,,,,,twofour,,-4,5.5673,,,,,,,,,,,,,,,,,,,,,,,,,,,,,,,,,,"[-0.0040000000000000036,0.02739999999999987,-0.08239999999999992]","[-0.38039999999999996,-0.4276,-0.1452]",-30,81,1,0,0,response7disk,4,-11,1,0,0,rectangle,4,-11,1,0,0,3,2,0.0013,0,4,-11,1,0,0,0,15,15,147,1,66,second,,,,,,,,,,,,,,,,,,,,,,,,,,,,,,,,,,,,,,,,,,,,,,,,,,,,,,,,,,,,,,,,,,,,,,,,
,,,,,,60db74fcb5f4526ce90594a1,62c53aa0aa2bc9b5bcef82fb,2022-07-06_09h33.45.109,Colour_Asymmetry_Pilot,2022.1.3,Win32,60.0060006,62c50e9c1127f2cd403a315f,,,,,,,,,,,,,,,,,,,,threefour,,3,1.4834,,,,,,,,,,,,,,,,,,,,,,,,,,,,,,,,,,"[0.3568,-0.20799999999999996,-0.9844]","[0.3802000000000001,0.19199999999999995,-0.6394]",76,55,1,0,0,response1disk,-24,-5,1,0,0,rectangle,99,-45,1,0,0,2,2,3.1671,1,-12,6,1,0,0,0,16,16,11,1,11,first,response3disk_3,rectangle,,,,,,,,,,,,,,,,,,,,,,,,,,,,,,,,,,,,,,,,,,,,,,,,,,,,,,,,,,,,,,,,,,,,,,
,,,,,,60db74fcb5f4526ce90594a1,62c53aa0aa2bc9b5bcef82fb,2022-07-06_09h33.45.109,Colour_Asymmetry_Pilot,2022.1.3,Win32,60.0060006,62c50e9c1127f2cd403a315f,,,,,,,,,,,,,,,,,,,,threefour,,-3,1.2,,,,,,,,,,,,,,,,,,,,,,,,,,,,,,,,,,"[0.3881999999999999,-0.23939999999999995,-0.05040000000000011]","[-0.4746,-0.0354000000000001,0.5449999999999999]",-58,32,1,0,0,response7disk,-6,-6,1,0,0,rectangle,-6,-6,1,0,0,2,2,0.0002,0,-6,-6,1,0,0,0,17,17,10,1,10,first,,,,,,,,,,,,,,,,,,,,,,,,,,,,,,,,,,,,,,,,,,,,,,,,,,,,,,,,,,,,,,,,,,,,,,,,
