trials.thisRepN,trials.thisTrialN,trials.thisN,trials.thisIndex,trials.ran,Colourcodes,participant,session,date,expName,psychopyVersion,OS,frameRate,study_id,trials_4.thisRepN,trials_4.thisTrialN,trials_4.thisN,trials_4.thisIndex,trials_4.ran,StimulusPos,key_resp.keys,key_resp.rt,key_resp_2.keys,key_resp_2.rt,key_resp_15.keys,key_resp_15.rt,key_resp_17.keys,key_resp_17.rt,key_resp_9.keys,key_resp_9.rt,key_resp_10.keys,key_resp_10.rt,Circle1_col,Ecc,Circle2_col,similarity,response_time,mouse_5.x,mouse_5.y,mouse_5.leftButton,mouse_5.midButton,mouse_5.rightButton,mouse_5.clicked_name,mouse_10.x,mouse_10.y,mouse_10.leftButton,mouse_10.midButton,mouse_10.rightButton,mouse_10.clicked_name,mouse_7.x,mouse_7.y,mouse_7.leftButton,mouse_7.midButton,mouse_7.rightButton,catchnumberprac,mouse_6.x,mouse_6.y,mouse_6.leftButton,mouse_6.midButton,mouse_6.rightButton,duringprac.thisRepN,duringprac.thisTrialN,duringprac.thisN,duringprac.thisIndex,duringprac.ran,mouse_7.clicked_name,catchprac,mouse_6.clicked_name,key_resp_22.keys,key_resp_22.rt,Circle1_colour,Circle2_colour,mouse.x,mouse.y,mouse.leftButton,mouse.midButton,mouse.rightButton,mouse.clicked_name,mouse_2.x,mouse_2.y,mouse_2.leftButton,mouse_2.midButton,mouse_2.rightButton,mouse_2.clicked_name,mouse_3.x,mouse_3.y,mouse_3.leftButton,mouse_3.midButton,mouse_3.rightButton,catchresponse,catchnumber,response_time_catch,Catch,mouse_11.x,mouse_11.y,mouse_11.leftButton,mouse_11.midButton,mouse_11.rightButton,trials_2.thisRepN,trials_2.thisTrialN,trials_2.thisN,trials_2.thisIndex,trials_2.ran,Colourpair,Temporder,mouse_3.clicked_name,mouse_11.clicked_name,trials_3.thisRepN,trials_3.thisTrialN,trials_3.thisN,trials_3.thisIndex,trials_3.ran,key_resp_instr_Ishi.keys,key_resp_instr_Ishi.rt,Ishi_trial_keyresp.keys,Ishi_textbox.text,Ishi_mouse.x,Ishi_mouse.y,Ishi_mouse.leftButton,Ishi_mouse.midButton,Ishi_mouse.rightButton,Ishi_mouse.clicked_name,Ishi_loop.thisRepN,Ishi_loop.thisTrialN,Ishi_loop.thisN,Ishi_loop.thisIndex,Ishi_loop.ran,imageaddress,textbox.text,mouse_4.x,mouse_4.y,mouse_4.leftButton,mouse_4.midButton,mouse_4.rightButton,mouse_4.clicked_name,textbox_2.text,mouse_8.x,mouse_8.y,mouse_8.leftButton,mouse_8.midButton,mouse_8.rightButton,mouse_8.clicked_name,textbox_3.text,mouse_9.x,mouse_9.y,mouse_9.leftButton,mouse_9.midButton,mouse_9.rightButton,mouse_9.clicked_name,textbox_4.text,mouse_12.x,mouse_12.y,mouse_12.leftButton,mouse_12.midButton,mouse_12.rightButton,mouse_12.clicked_name,textbox_5.text,mouse_13.x,mouse_13.y,mouse_13.leftButton,mouse_13.midButton,mouse_13.rightButton,mouse_13.clicked_name,textbox_6.text,mouse_14.x,mouse_14.y,mouse_14.leftButton,mouse_14.midButton,mouse_14.rightButton,mouse_14.clicked_name,textbox_7.text,mouse_15.x,mouse_15.y,mouse_15.leftButton,mouse_15.midButton,mouse_15.rightButton,mouse_15.clicked_name
0,0,0,44,1,,5cb72e7625f45e0017c31287,62c53a05808438d282f10f03,2022-07-06_09h30.24.743,Colour_Asymmetry_Pilot,2022.1.3,Win32,60.09615385,62c50e9c1127f2cd403a315f,,,,,,,,,,,,,,,,,,,,,,,,,,,,,,,,,,,,,,,,,,,,,,,,,,,,,,,,,,,,,,,,,,,,,,,,,,,,,,,,,,,,,,,,,,,,,,,,,,,,,,,,,,,,,,,,,,,,,,,,,,,,,,,,,,,,,,,,,,,,,,,,,,,,,,,,,,,,,,,,,,,
0,1,1,82,1,,5cb72e7625f45e0017c31287,62c53a05808438d282f10f03,2022-07-06_09h30.24.743,Colour_Asymmetry_Pilot,2022.1.3,Win32,60.09615385,62c50e9c1127f2cd403a315f,,,,,,,,,,,,,,,,,,,,,,,,,,,,,,,,,,,,,,,,,,,,,,,,,,,,,,,,,,,,,,,,,,,,,,,,,,,,,,,,,,,,,,,,,,,,,,,,,,,,,,,,,,,,,,,,,,,,,,,,,,,,,,,,,,,,,,,,,,,,,,,,,,,,,,,,,,,,,,,,,,,
0,2,2,19,1,,5cb72e7625f45e0017c31287,62c53a05808438d282f10f03,2022-07-06_09h30.24.743,Colour_Asymmetry_Pilot,2022.1.3,Win32,60.09615385,62c50e9c1127f2cd403a315f,,,,,,,,,,,,,,,,,,,,,,,,,,,,,,,,,,,,,,,,,,,,,,,,,,,,,,,,,,,,,,,,,,,,,,,,,,,,,,,,,,,,,,,,,,,,,,,,,,,,,,,,,,,,,,,,,,,,,,,,,,,,,,,,,,,,,,,,,,,,,,,,,,,,,,,,,,,,,,,,,,,
0,3,3,57,1,,5cb72e7625f45e0017c31287,62c53a05808438d282f10f03,2022-07-06_09h30.24.743,Colour_Asymmetry_Pilot,2022.1.3,Win32,60.09615385,62c50e9c1127f2cd403a315f,,,,,,,,,,,,,,,,,,,,,,,,,,,,,,,,,,,,,,,,,,,,,,,,,,,,,,,,,,,,,,,,,,,,,,,,,,,,,,,,,,,,,,,,,,,,,,,,,,,,,,,,,,,,,,,,,,,,,,,,,,,,,,,,,,,,,,,,,,,,,,,,,,,,,,,,,,,,,,,,,,,
0,4,4,83,1,,5cb72e7625f45e0017c31287,62c53a05808438d282f10f03,2022-07-06_09h30.24.743,Colour_Asymmetry_Pilot,2022.1.3,Win32,60.09615385,62c50e9c1127f2cd403a315f,,,,,,,,,,,,,,,,,,,,,,,,,,,,,,,,,,,,,,,,,,,,,,,,,,,,,,,,,,,,,,,,,,,,,,,,,,,,,,,,,,,,,,,,,,,,,,,,,,,,,,,,,,,,,,,,,,,,,,,,,,,,,,,,,,,,,,,,,,,,,,,,,,,,,,,,,,,,,,,,,,,
0,5,5,64,1,,5cb72e7625f45e0017c31287,62c53a05808438d282f10f03,2022-07-06_09h30.24.743,Colour_Asymmetry_Pilot,2022.1.3,Win32,60.09615385,62c50e9c1127f2cd403a315f,,,,,,,,,,,,,,,,,,,,,,,,,,,,,,,,,,,,,,,,,,,,,,,,,,,,,,,,,,,,,,,,,,,,,,,,,,,,,,,,,,,,,,,,,,,,,,,,,,,,,,,,,,,,,,,,,,,,,,,,,,,,,,,,,,,,,,,,,,,,,,,,,,,,,,,,,,,,,,,,,,,
0,6,6,17,1,,5cb72e7625f45e0017c31287,62c53a05808438d282f10f03,2022-07-06_09h30.24.743,Colour_Asymmetry_Pilot,2022.1.3,Win32,60.09615385,62c50e9c1127f2cd403a315f,,,,,,,,,,,,,,,,,,,,,,,,,,,,,,,,,,,,,,,,,,,,,,,,,,,,,,,,,,,,,,,,,,,,,,,,,,,,,,,,,,,,,,,,,,,,,,,,,,,,,,,,,,,,,,,,,,,,,,,,,,,,,,,,,,,,,,,,,,,,,,,,,,,,,,,,,,,,,,,,,,,
0,7,7,33,1,,5cb72e7625f45e0017c31287,62c53a05808438d282f10f03,2022-07-06_09h30.24.743,Colour_Asymmetry_Pilot,2022.1.3,Win32,60.09615385,62c50e9c1127f2cd403a315f,,,,,,,,,,,,,,,,,,,,,,,,,,,,,,,,,,,,,,,,,,,,,,,,,,,,,,,,,,,,,,,,,,,,,,,,,,,,,,,,,,,,,,,,,,,,,,,,,,,,,,,,,,,,,,,,,,,,,,,,,,,,,,,,,,,,,,,,,,,,,,,,,,,,,,,,,,,,,,,,,,,
0,8,8,47,1,,5cb72e7625f45e0017c31287,62c53a05808438d282f10f03,2022-07-06_09h30.24.743,Colour_Asymmetry_Pilot,2022.1.3,Win32,60.09615385,62c50e9c1127f2cd403a315f,,,,,,,,,,,,,,,,,,,,,,,,,,,,,,,,,,,,,,,,,,,,,,,,,,,,,,,,,,,,,,,,,,,,,,,,,,,,,,,,,,,,,,,,,,,,,,,,,,,,,,,,,,,,,,,,,,,,,,,,,,,,,,,,,,,,,,,,,,,,,,,,,,,,,,,,,,,,,,,,,,,
0,9,9,55,1,,5cb72e7625f45e0017c31287,62c53a05808438d282f10f03,2022-07-06_09h30.24.743,Colour_Asymmetry_Pilot,2022.1.3,Win32,60.09615385,62c50e9c1127f2cd403a315f,,,,,,,,,,,,,,,,,,,,,,,,,,,,,,,,,,,,,,,,,,,,,,,,,,,,,,,,,,,,,,,,,,,,,,,,,,,,,,,,,,,,,,,,,,,,,,,,,,,,,,,,,,,,,,,,,,,,,,,,,,,,,,,,,,,,,,,,,,,,,,,,,,,,,,,,,,,,,,,,,,,
0,10,10,18,1,,5cb72e7625f45e0017c31287,62c53a05808438d282f10f03,2022-07-06_09h30.24.743,Colour_Asymmetry_Pilot,2022.1.3,Win32,60.09615385,62c50e9c1127f2cd403a315f,,,,,,,,,,,,,,,,,,,,,,,,,,,,,,,,,,,,,,,,,,,,,,,,,,,,,,,,,,,,,,,,,,,,,,,,,,,,,,,,,,,,,,,,,,,,,,,,,,,,,,,,,,,,,,,,,,,,,,,,,,,,,,,,,,,,,,,,,,,,,,,,,,,,,,,,,,,,,,,,,,,
0,11,11,61,1,,5cb72e7625f45e0017c31287,62c53a05808438d282f10f03,2022-07-06_09h30.24.743,Colour_Asymmetry_Pilot,2022.1.3,Win32,60.09615385,62c50e9c1127f2cd403a315f,,,,,,,,,,,,,,,,,,,,,,,,,,,,,,,,,,,,,,,,,,,,,,,,,,,,,,,,,,,,,,,,,,,,,,,,,,,,,,,,,,,,,,,,,,,,,,,,,,,,,,,,,,,,,,,,,,,,,,,,,,,,,,,,,,,,,,,,,,,,,,,,,,,,,,,,,,,,,,,,,,,
0,12,12,34,1,,5cb72e7625f45e0017c31287,62c53a05808438d282f10f03,2022-07-06_09h30.24.743,Colour_Asymmetry_Pilot,2022.1.3,Win32,60.09615385,62c50e9c1127f2cd403a315f,,,,,,,,,,,,,,,,,,,,,,,,,,,,,,,,,,,,,,,,,,,,,,,,,,,,,,,,,,,,,,,,,,,,,,,,,,,,,,,,,,,,,,,,,,,,,,,,,,,,,,,,,,,,,,,,,,,,,,,,,,,,,,,,,,,,,,,,,,,,,,,,,,,,,,,,,,,,,,,,,,,
0,13,13,66,1,,5cb72e7625f45e0017c31287,62c53a05808438d282f10f03,2022-07-06_09h30.24.743,Colour_Asymmetry_Pilot,2022.1.3,Win32,60.09615385,62c50e9c1127f2cd403a315f,,,,,,,,,,,,,,,,,,,,,,,,,,,,,,,,,,,,,,,,,,,,,,,,,,,,,,,,,,,,,,,,,,,,,,,,,,,,,,,,,,,,,,,,,,,,,,,,,,,,,,,,,,,,,,,,,,,,,,,,,,,,,,,,,,,,,,,,,,,,,,,,,,,,,,,,,,,,,,,,,,,
0,14,14,79,1,,5cb72e7625f45e0017c31287,62c53a05808438d282f10f03,2022-07-06_09h30.24.743,Colour_Asymmetry_Pilot,2022.1.3,Win32,60.09615385,62c50e9c1127f2cd403a315f,,,,,,,,,,,,,,,,,,,,,,,,,,,,,,,,,,,,,,,,,,,,,,,,,,,,,,,,,,,,,,,,,,,,,,,,,,,,,,,,,,,,,,,,,,,,,,,,,,,,,,,,,,,,,,,,,,,,,,,,,,,,,,,,,,,,,,,,,,,,,,,,,,,,,,,,,,,,,,,,,,,
0,15,15,46,1,,5cb72e7625f45e0017c31287,62c53a05808438d282f10f03,2022-07-06_09h30.24.743,Colour_Asymmetry_Pilot,2022.1.3,Win32,60.09615385,62c50e9c1127f2cd403a315f,,,,,,,,,,,,,,,,,,,,,,,,,,,,,,,,,,,,,,,,,,,,,,,,,,,,,,,,,,,,,,,,,,,,,,,,,,,,,,,,,,,,,,,,,,,,,,,,,,,,,,,,,,,,,,,,,,,,,,,,,,,,,,,,,,,,,,,,,,,,,,,,,,,,,,,,,,,,,,,,,,,
0,16,16,42,1,,5cb72e7625f45e0017c31287,62c53a05808438d282f10f03,2022-07-06_09h30.24.743,Colour_Asymmetry_Pilot,2022.1.3,Win32,60.09615385,62c50e9c1127f2cd403a315f,,,,,,,,,,,,,,,,,,,,,,,,,,,,,,,,,,,,,,,,,,,,,,,,,,,,,,,,,,,,,,,,,,,,,,,,,,,,,,,,,,,,,,,,,,,,,,,,,,,,,,,,,,,,,,,,,,,,,,,,,,,,,,,,,,,,,,,,,,,,,,,,,,,,,,,,,,,,,,,,,,,
0,17,17,53,1,,5cb72e7625f45e0017c31287,62c53a05808438d282f10f03,2022-07-06_09h30.24.743,Colour_Asymmetry_Pilot,2022.1.3,Win32,60.09615385,62c50e9c1127f2cd403a315f,,,,,,,,,,,,,,,,,,,,,,,,,,,,,,,,,,,,,,,,,,,,,,,,,,,,,,,,,,,,,,,,,,,,,,,,,,,,,,,,,,,,,,,,,,,,,,,,,,,,,,,,,,,,,,,,,,,,,,,,,,,,,,,,,,,,,,,,,,,,,,,,,,,,,,,,,,,,,,,,,,,
0,18,18,31,1,,5cb72e7625f45e0017c31287,62c53a05808438d282f10f03,2022-07-06_09h30.24.743,Colour_Asymmetry_Pilot,2022.1.3,Win32,60.09615385,62c50e9c1127f2cd403a315f,,,,,,,,,,,,,,,,,,,,,,,,,,,,,,,,,,,,,,,,,,,,,,,,,,,,,,,,,,,,,,,,,,,,,,,,,,,,,,,,,,,,,,,,,,,,,,,,,,,,,,,,,,,,,,,,,,,,,,,,,,,,,,,,,,,,,,,,,,,,,,,,,,,,,,,,,,,,,,,,,,,
0,19,19,6,1,,5cb72e7625f45e0017c31287,62c53a05808438d282f10f03,2022-07-06_09h30.24.743,Colour_Asymmetry_Pilot,2022.1.3,Win32,60.09615385,62c50e9c1127f2cd403a315f,,,,,,,,,,,,,,,,,,,,,,,,,,,,,,,,,,,,,,,,,,,,,,,,,,,,,,,,,,,,,,,,,,,,,,,,,,,,,,,,,,,,,,,,,,,,,,,,,,,,,,,,,,,,,,,,,,,,,,,,,,,,,,,,,,,,,,,,,,,,,,,,,,,,,,,,,,,,,,,,,,,
0,20,20,65,1,,5cb72e7625f45e0017c31287,62c53a05808438d282f10f03,2022-07-06_09h30.24.743,Colour_Asymmetry_Pilot,2022.1.3,Win32,60.09615385,62c50e9c1127f2cd403a315f,,,,,,,,,,,,,,,,,,,,,,,,,,,,,,,,,,,,,,,,,,,,,,,,,,,,,,,,,,,,,,,,,,,,,,,,,,,,,,,,,,,,,,,,,,,,,,,,,,,,,,,,,,,,,,,,,,,,,,,,,,,,,,,,,,,,,,,,,,,,,,,,,,,,,,,,,,,,,,,,,,,
0,21,21,84,1,,5cb72e7625f45e0017c31287,62c53a05808438d282f10f03,2022-07-06_09h30.24.743,Colour_Asymmetry_Pilot,2022.1.3,Win32,60.09615385,62c50e9c1127f2cd403a315f,,,,,,,,,,,,,,,,,,,,,,,,,,,,,,,,,,,,,,,,,,,,,,,,,,,,,,,,,,,,,,,,,,,,,,,,,,,,,,,,,,,,,,,,,,,,,,,,,,,,,,,,,,,,,,,,,,,,,,,,,,,,,,,,,,,,,,,,,,,,,,,,,,,,,,,,,,,,,,,,,,,
0,22,22,3,1,,5cb72e7625f45e0017c31287,62c53a05808438d282f10f03,2022-07-06_09h30.24.743,Colour_Asymmetry_Pilot,2022.1.3,Win32,60.09615385,62c50e9c1127f2cd403a315f,,,,,,,,,,,,,,,,,,,,,,,,,,,,,,,,,,,,,,,,,,,,,,,,,,,,,,,,,,,,,,,,,,,,,,,,,,,,,,,,,,,,,,,,,,,,,,,,,,,,,,,,,,,,,,,,,,,,,,,,,,,,,,,,,,,,,,,,,,,,,,,,,,,,,,,,,,,,,,,,,,,
0,23,23,14,1,,5cb72e7625f45e0017c31287,62c53a05808438d282f10f03,2022-07-06_09h30.24.743,Colour_Asymmetry_Pilot,2022.1.3,Win32,60.09615385,62c50e9c1127f2cd403a315f,,,,,,,,,,,,,,,,,,,,,,,,,,,,,,,,,,,,,,,,,,,,,,,,,,,,,,,,,,,,,,,,,,,,,,,,,,,,,,,,,,,,,,,,,,,,,,,,,,,,,,,,,,,,,,,,,,,,,,,,,,,,,,,,,,,,,,,,,,,,,,,,,,,,,,,,,,,,,,,,,,,
0,24,24,28,1,,5cb72e7625f45e0017c31287,62c53a05808438d282f10f03,2022-07-06_09h30.24.743,Colour_Asymmetry_Pilot,2022.1.3,Win32,60.09615385,62c50e9c1127f2cd403a315f,,,,,,,,,,,,,,,,,,,,,,,,,,,,,,,,,,,,,,,,,,,,,,,,,,,,,,,,,,,,,,,,,,,,,,,,,,,,,,,,,,,,,,,,,,,,,,,,,,,,,,,,,,,,,,,,,,,,,,,,,,,,,,,,,,,,,,,,,,,,,,,,,,,,,,,,,,,,,,,,,,,
0,25,25,52,1,,5cb72e7625f45e0017c31287,62c53a05808438d282f10f03,2022-07-06_09h30.24.743,Colour_Asymmetry_Pilot,2022.1.3,Win32,60.09615385,62c50e9c1127f2cd403a315f,,,,,,,,,,,,,,,,,,,,,,,,,,,,,,,,,,,,,,,,,,,,,,,,,,,,,,,,,,,,,,,,,,,,,,,,,,,,,,,,,,,,,,,,,,,,,,,,,,,,,,,,,,,,,,,,,,,,,,,,,,,,,,,,,,,,,,,,,,,,,,,,,,,,,,,,,,,,,,,,,,,
0,26,26,51,1,,5cb72e7625f45e0017c31287,62c53a05808438d282f10f03,2022-07-06_09h30.24.743,Colour_Asymmetry_Pilot,2022.1.3,Win32,60.09615385,62c50e9c1127f2cd403a315f,,,,,,,,,,,,,,,,,,,,,,,,,,,,,,,,,,,,,,,,,,,,,,,,,,,,,,,,,,,,,,,,,,,,,,,,,,,,,,,,,,,,,,,,,,,,,,,,,,,,,,,,,,,,,,,,,,,,,,,,,,,,,,,,,,,,,,,,,,,,,,,,,,,,,,,,,,,,,,,,,,,
0,27,27,15,1,,5cb72e7625f45e0017c31287,62c53a05808438d282f10f03,2022-07-06_09h30.24.743,Colour_Asymmetry_Pilot,2022.1.3,Win32,60.09615385,62c50e9c1127f2cd403a315f,,,,,,,,,,,,,,,,,,,,,,,,,,,,,,,,,,,,,,,,,,,,,,,,,,,,,,,,,,,,,,,,,,,,,,,,,,,,,,,,,,,,,,,,,,,,,,,,,,,,,,,,,,,,,,,,,,,,,,,,,,,,,,,,,,,,,,,,,,,,,,,,,,,,,,,,,,,,,,,,,,,
0,28,28,12,1,,5cb72e7625f45e0017c31287,62c53a05808438d282f10f03,2022-07-06_09h30.24.743,Colour_Asymmetry_Pilot,2022.1.3,Win32,60.09615385,62c50e9c1127f2cd403a315f,,,,,,,,,,,,,,,,,,,,,,,,,,,,,,,,,,,,,,,,,,,,,,,,,,,,,,,,,,,,,,,,,,,,,,,,,,,,,,,,,,,,,,,,,,,,,,,,,,,,,,,,,,,,,,,,,,,,,,,,,,,,,,,,,,,,,,,,,,,,,,,,,,,,,,,,,,,,,,,,,,,
0,29,29,38,1,,5cb72e7625f45e0017c31287,62c53a05808438d282f10f03,2022-07-06_09h30.24.743,Colour_Asymmetry_Pilot,2022.1.3,Win32,60.09615385,62c50e9c1127f2cd403a315f,,,,,,,,,,,,,,,,,,,,,,,,,,,,,,,,,,,,,,,,,,,,,,,,,,,,,,,,,,,,,,,,,,,,,,,,,,,,,,,,,,,,,,,,,,,,,,,,,,,,,,,,,,,,,,,,,,,,,,,,,,,,,,,,,,,,,,,,,,,,,,,,,,,,,,,,,,,,,,,,,,,
0,30,30,26,1,,5cb72e7625f45e0017c31287,62c53a05808438d282f10f03,2022-07-06_09h30.24.743,Colour_Asymmetry_Pilot,2022.1.3,Win32,60.09615385,62c50e9c1127f2cd403a315f,,,,,,,,,,,,,,,,,,,,,,,,,,,,,,,,,,,,,,,,,,,,,,,,,,,,,,,,,,,,,,,,,,,,,,,,,,,,,,,,,,,,,,,,,,,,,,,,,,,,,,,,,,,,,,,,,,,,,,,,,,,,,,,,,,,,,,,,,,,,,,,,,,,,,,,,,,,,,,,,,,,
0,31,31,36,1,,5cb72e7625f45e0017c31287,62c53a05808438d282f10f03,2022-07-06_09h30.24.743,Colour_Asymmetry_Pilot,2022.1.3,Win32,60.09615385,62c50e9c1127f2cd403a315f,,,,,,,,,,,,,,,,,,,,,,,,,,,,,,,,,,,,,,,,,,,,,,,,,,,,,,,,,,,,,,,,,,,,,,,,,,,,,,,,,,,,,,,,,,,,,,,,,,,,,,,,,,,,,,,,,,,,,,,,,,,,,,,,,,,,,,,,,,,,,,,,,,,,,,,,,,,,,,,,,,,
0,32,32,92,1,,5cb72e7625f45e0017c31287,62c53a05808438d282f10f03,2022-07-06_09h30.24.743,Colour_Asymmetry_Pilot,2022.1.3,Win32,60.09615385,62c50e9c1127f2cd403a315f,,,,,,,,,,,,,,,,,,,,,,,,,,,,,,,,,,,,,,,,,,,,,,,,,,,,,,,,,,,,,,,,,,,,,,,,,,,,,,,,,,,,,,,,,,,,,,,,,,,,,,,,,,,,,,,,,,,,,,,,,,,,,,,,,,,,,,,,,,,,,,,,,,,,,,,,,,,,,,,,,,,
0,33,33,29,1,,5cb72e7625f45e0017c31287,62c53a05808438d282f10f03,2022-07-06_09h30.24.743,Colour_Asymmetry_Pilot,2022.1.3,Win32,60.09615385,62c50e9c1127f2cd403a315f,,,,,,,,,,,,,,,,,,,,,,,,,,,,,,,,,,,,,,,,,,,,,,,,,,,,,,,,,,,,,,,,,,,,,,,,,,,,,,,,,,,,,,,,,,,,,,,,,,,,,,,,,,,,,,,,,,,,,,,,,,,,,,,,,,,,,,,,,,,,,,,,,,,,,,,,,,,,,,,,,,,
0,34,34,88,1,,5cb72e7625f45e0017c31287,62c53a05808438d282f10f03,2022-07-06_09h30.24.743,Colour_Asymmetry_Pilot,2022.1.3,Win32,60.09615385,62c50e9c1127f2cd403a315f,,,,,,,,,,,,,,,,,,,,,,,,,,,,,,,,,,,,,,,,,,,,,,,,,,,,,,,,,,,,,,,,,,,,,,,,,,,,,,,,,,,,,,,,,,,,,,,,,,,,,,,,,,,,,,,,,,,,,,,,,,,,,,,,,,,,,,,,,,,,,,,,,,,,,,,,,,,,,,,,,,,
0,35,35,69,1,,5cb72e7625f45e0017c31287,62c53a05808438d282f10f03,2022-07-06_09h30.24.743,Colour_Asymmetry_Pilot,2022.1.3,Win32,60.09615385,62c50e9c1127f2cd403a315f,,,,,,,,,,,,,,,,,,,,,,,,,,,,,,,,,,,,,,,,,,,,,,,,,,,,,,,,,,,,,,,,,,,,,,,,,,,,,,,,,,,,,,,,,,,,,,,,,,,,,,,,,,,,,,,,,,,,,,,,,,,,,,,,,,,,,,,,,,,,,,,,,,,,,,,,,,,,,,,,,,,
0,36,36,50,1,,5cb72e7625f45e0017c31287,62c53a05808438d282f10f03,2022-07-06_09h30.24.743,Colour_Asymmetry_Pilot,2022.1.3,Win32,60.09615385,62c50e9c1127f2cd403a315f,,,,,,,,,,,,,,,,,,,,,,,,,,,,,,,,,,,,,,,,,,,,,,,,,,,,,,,,,,,,,,,,,,,,,,,,,,,,,,,,,,,,,,,,,,,,,,,,,,,,,,,,,,,,,,,,,,,,,,,,,,,,,,,,,,,,,,,,,,,,,,,,,,,,,,,,,,,,,,,,,,,
0,37,37,72,1,,5cb72e7625f45e0017c31287,62c53a05808438d282f10f03,2022-07-06_09h30.24.743,Colour_Asymmetry_Pilot,2022.1.3,Win32,60.09615385,62c50e9c1127f2cd403a315f,,,,,,,,,,,,,,,,,,,,,,,,,,,,,,,,,,,,,,,,,,,,,,,,,,,,,,,,,,,,,,,,,,,,,,,,,,,,,,,,,,,,,,,,,,,,,,,,,,,,,,,,,,,,,,,,,,,,,,,,,,,,,,,,,,,,,,,,,,,,,,,,,,,,,,,,,,,,,,,,,,,
0,38,38,70,1,,5cb72e7625f45e0017c31287,62c53a05808438d282f10f03,2022-07-06_09h30.24.743,Colour_Asymmetry_Pilot,2022.1.3,Win32,60.09615385,62c50e9c1127f2cd403a315f,,,,,,,,,,,,,,,,,,,,,,,,,,,,,,,,,,,,,,,,,,,,,,,,,,,,,,,,,,,,,,,,,,,,,,,,,,,,,,,,,,,,,,,,,,,,,,,,,,,,,,,,,,,,,,,,,,,,,,,,,,,,,,,,,,,,,,,,,,,,,,,,,,,,,,,,,,,,,,,,,,,
0,39,39,62,1,,5cb72e7625f45e0017c31287,62c53a05808438d282f10f03,2022-07-06_09h30.24.743,Colour_Asymmetry_Pilot,2022.1.3,Win32,60.09615385,62c50e9c1127f2cd403a315f,,,,,,,,,,,,,,,,,,,,,,,,,,,,,,,,,,,,,,,,,,,,,,,,,,,,,,,,,,,,,,,,,,,,,,,,,,,,,,,,,,,,,,,,,,,,,,,,,,,,,,,,,,,,,,,,,,,,,,,,,,,,,,,,,,,,,,,,,,,,,,,,,,,,,,,,,,,,,,,,,,,
0,40,40,75,1,,5cb72e7625f45e0017c31287,62c53a05808438d282f10f03,2022-07-06_09h30.24.743,Colour_Asymmetry_Pilot,2022.1.3,Win32,60.09615385,62c50e9c1127f2cd403a315f,,,,,,,,,,,,,,,,,,,,,,,,,,,,,,,,,,,,,,,,,,,,,,,,,,,,,,,,,,,,,,,,,,,,,,,,,,,,,,,,,,,,,,,,,,,,,,,,,,,,,,,,,,,,,,,,,,,,,,,,,,,,,,,,,,,,,,,,,,,,,,,,,,,,,,,,,,,,,,,,,,,
0,41,41,41,1,,5cb72e7625f45e0017c31287,62c53a05808438d282f10f03,2022-07-06_09h30.24.743,Colour_Asymmetry_Pilot,2022.1.3,Win32,60.09615385,62c50e9c1127f2cd403a315f,,,,,,,,,,,,,,,,,,,,,,,,,,,,,,,,,,,,,,,,,,,,,,,,,,,,,,,,,,,,,,,,,,,,,,,,,,,,,,,,,,,,,,,,,,,,,,,,,,,,,,,,,,,,,,,,,,,,,,,,,,,,,,,,,,,,,,,,,,,,,,,,,,,,,,,,,,,,,,,,,,,
0,42,42,56,1,,5cb72e7625f45e0017c31287,62c53a05808438d282f10f03,2022-07-06_09h30.24.743,Colour_Asymmetry_Pilot,2022.1.3,Win32,60.09615385,62c50e9c1127f2cd403a315f,,,,,,,,,,,,,,,,,,,,,,,,,,,,,,,,,,,,,,,,,,,,,,,,,,,,,,,,,,,,,,,,,,,,,,,,,,,,,,,,,,,,,,,,,,,,,,,,,,,,,,,,,,,,,,,,,,,,,,,,,,,,,,,,,,,,,,,,,,,,,,,,,,,,,,,,,,,,,,,,,,,
0,43,43,27,1,,5cb72e7625f45e0017c31287,62c53a05808438d282f10f03,2022-07-06_09h30.24.743,Colour_Asymmetry_Pilot,2022.1.3,Win32,60.09615385,62c50e9c1127f2cd403a315f,,,,,,,,,,,,,,,,,,,,,,,,,,,,,,,,,,,,,,,,,,,,,,,,,,,,,,,,,,,,,,,,,,,,,,,,,,,,,,,,,,,,,,,,,,,,,,,,,,,,,,,,,,,,,,,,,,,,,,,,,,,,,,,,,,,,,,,,,,,,,,,,,,,,,,,,,,,,,,,,,,,
0,44,44,54,1,,5cb72e7625f45e0017c31287,62c53a05808438d282f10f03,2022-07-06_09h30.24.743,Colour_Asymmetry_Pilot,2022.1.3,Win32,60.09615385,62c50e9c1127f2cd403a315f,,,,,,,,,,,,,,,,,,,,,,,,,,,,,,,,,,,,,,,,,,,,,,,,,,,,,,,,,,,,,,,,,,,,,,,,,,,,,,,,,,,,,,,,,,,,,,,,,,,,,,,,,,,,,,,,,,,,,,,,,,,,,,,,,,,,,,,,,,,,,,,,,,,,,,,,,,,,,,,,,,,
0,45,45,2,1,,5cb72e7625f45e0017c31287,62c53a05808438d282f10f03,2022-07-06_09h30.24.743,Colour_Asymmetry_Pilot,2022.1.3,Win32,60.09615385,62c50e9c1127f2cd403a315f,,,,,,,,,,,,,,,,,,,,,,,,,,,,,,,,,,,,,,,,,,,,,,,,,,,,,,,,,,,,,,,,,,,,,,,,,,,,,,,,,,,,,,,,,,,,,,,,,,,,,,,,,,,,,,,,,,,,,,,,,,,,,,,,,,,,,,,,,,,,,,,,,,,,,,,,,,,,,,,,,,,
0,46,46,86,1,,5cb72e7625f45e0017c31287,62c53a05808438d282f10f03,2022-07-06_09h30.24.743,Colour_Asymmetry_Pilot,2022.1.3,Win32,60.09615385,62c50e9c1127f2cd403a315f,,,,,,,,,,,,,,,,,,,,,,,,,,,,,,,,,,,,,,,,,,,,,,,,,,,,,,,,,,,,,,,,,,,,,,,,,,,,,,,,,,,,,,,,,,,,,,,,,,,,,,,,,,,,,,,,,,,,,,,,,,,,,,,,,,,,,,,,,,,,,,,,,,,,,,,,,,,,,,,,,,,
0,47,47,8,1,,5cb72e7625f45e0017c31287,62c53a05808438d282f10f03,2022-07-06_09h30.24.743,Colour_Asymmetry_Pilot,2022.1.3,Win32,60.09615385,62c50e9c1127f2cd403a315f,,,,,,,,,,,,,,,,,,,,,,,,,,,,,,,,,,,,,,,,,,,,,,,,,,,,,,,,,,,,,,,,,,,,,,,,,,,,,,,,,,,,,,,,,,,,,,,,,,,,,,,,,,,,,,,,,,,,,,,,,,,,,,,,,,,,,,,,,,,,,,,,,,,,,,,,,,,,,,,,,,,
0,48,48,73,1,,5cb72e7625f45e0017c31287,62c53a05808438d282f10f03,2022-07-06_09h30.24.743,Colour_Asymmetry_Pilot,2022.1.3,Win32,60.09615385,62c50e9c1127f2cd403a315f,,,,,,,,,,,,,,,,,,,,,,,,,,,,,,,,,,,,,,,,,,,,,,,,,,,,,,,,,,,,,,,,,,,,,,,,,,,,,,,,,,,,,,,,,,,,,,,,,,,,,,,,,,,,,,,,,,,,,,,,,,,,,,,,,,,,,,,,,,,,,,,,,,,,,,,,,,,,,,,,,,,
0,49,49,87,1,,5cb72e7625f45e0017c31287,62c53a05808438d282f10f03,2022-07-06_09h30.24.743,Colour_Asymmetry_Pilot,2022.1.3,Win32,60.09615385,62c50e9c1127f2cd403a315f,,,,,,,,,,,,,,,,,,,,,,,,,,,,,,,,,,,,,,,,,,,,,,,,,,,,,,,,,,,,,,,,,,,,,,,,,,,,,,,,,,,,,,,,,,,,,,,,,,,,,,,,,,,,,,,,,,,,,,,,,,,,,,,,,,,,,,,,,,,,,,,,,,,,,,,,,,,,,,,,,,,
0,50,50,48,1,,5cb72e7625f45e0017c31287,62c53a05808438d282f10f03,2022-07-06_09h30.24.743,Colour_Asymmetry_Pilot,2022.1.3,Win32,60.09615385,62c50e9c1127f2cd403a315f,,,,,,,,,,,,,,,,,,,,,,,,,,,,,,,,,,,,,,,,,,,,,,,,,,,,,,,,,,,,,,,,,,,,,,,,,,,,,,,,,,,,,,,,,,,,,,,,,,,,,,,,,,,,,,,,,,,,,,,,,,,,,,,,,,,,,,,,,,,,,,,,,,,,,,,,,,,,,,,,,,,
0,51,51,49,1,,5cb72e7625f45e0017c31287,62c53a05808438d282f10f03,2022-07-06_09h30.24.743,Colour_Asymmetry_Pilot,2022.1.3,Win32,60.09615385,62c50e9c1127f2cd403a315f,,,,,,,,,,,,,,,,,,,,,,,,,,,,,,,,,,,,,,,,,,,,,,,,,,,,,,,,,,,,,,,,,,,,,,,,,,,,,,,,,,,,,,,,,,,,,,,,,,,,,,,,,,,,,,,,,,,,,,,,,,,,,,,,,,,,,,,,,,,,,,,,,,,,,,,,,,,,,,,,,,,
0,52,52,90,1,,5cb72e7625f45e0017c31287,62c53a05808438d282f10f03,2022-07-06_09h30.24.743,Colour_Asymmetry_Pilot,2022.1.3,Win32,60.09615385,62c50e9c1127f2cd403a315f,,,,,,,,,,,,,,,,,,,,,,,,,,,,,,,,,,,,,,,,,,,,,,,,,,,,,,,,,,,,,,,,,,,,,,,,,,,,,,,,,,,,,,,,,,,,,,,,,,,,,,,,,,,,,,,,,,,,,,,,,,,,,,,,,,,,,,,,,,,,,,,,,,,,,,,,,,,,,,,,,,,
0,53,53,37,1,,5cb72e7625f45e0017c31287,62c53a05808438d282f10f03,2022-07-06_09h30.24.743,Colour_Asymmetry_Pilot,2022.1.3,Win32,60.09615385,62c50e9c1127f2cd403a315f,,,,,,,,,,,,,,,,,,,,,,,,,,,,,,,,,,,,,,,,,,,,,,,,,,,,,,,,,,,,,,,,,,,,,,,,,,,,,,,,,,,,,,,,,,,,,,,,,,,,,,,,,,,,,,,,,,,,,,,,,,,,,,,,,,,,,,,,,,,,,,,,,,,,,,,,,,,,,,,,,,,
0,54,54,30,1,,5cb72e7625f45e0017c31287,62c53a05808438d282f10f03,2022-07-06_09h30.24.743,Colour_Asymmetry_Pilot,2022.1.3,Win32,60.09615385,62c50e9c1127f2cd403a315f,,,,,,,,,,,,,,,,,,,,,,,,,,,,,,,,,,,,,,,,,,,,,,,,,,,,,,,,,,,,,,,,,,,,,,,,,,,,,,,,,,,,,,,,,,,,,,,,,,,,,,,,,,,,,,,,,,,,,,,,,,,,,,,,,,,,,,,,,,,,,,,,,,,,,,,,,,,,,,,,,,,
0,55,55,89,1,,5cb72e7625f45e0017c31287,62c53a05808438d282f10f03,2022-07-06_09h30.24.743,Colour_Asymmetry_Pilot,2022.1.3,Win32,60.09615385,62c50e9c1127f2cd403a315f,,,,,,,,,,,,,,,,,,,,,,,,,,,,,,,,,,,,,,,,,,,,,,,,,,,,,,,,,,,,,,,,,,,,,,,,,,,,,,,,,,,,,,,,,,,,,,,,,,,,,,,,,,,,,,,,,,,,,,,,,,,,,,,,,,,,,,,,,,,,,,,,,,,,,,,,,,,,,,,,,,,
0,56,56,20,1,,5cb72e7625f45e0017c31287,62c53a05808438d282f10f03,2022-07-06_09h30.24.743,Colour_Asymmetry_Pilot,2022.1.3,Win32,60.09615385,62c50e9c1127f2cd403a315f,,,,,,,,,,,,,,,,,,,,,,,,,,,,,,,,,,,,,,,,,,,,,,,,,,,,,,,,,,,,,,,,,,,,,,,,,,,,,,,,,,,,,,,,,,,,,,,,,,,,,,,,,,,,,,,,,,,,,,,,,,,,,,,,,,,,,,,,,,,,,,,,,,,,,,,,,,,,,,,,,,,
0,57,57,43,1,,5cb72e7625f45e0017c31287,62c53a05808438d282f10f03,2022-07-06_09h30.24.743,Colour_Asymmetry_Pilot,2022.1.3,Win32,60.09615385,62c50e9c1127f2cd403a315f,,,,,,,,,,,,,,,,,,,,,,,,,,,,,,,,,,,,,,,,,,,,,,,,,,,,,,,,,,,,,,,,,,,,,,,,,,,,,,,,,,,,,,,,,,,,,,,,,,,,,,,,,,,,,,,,,,,,,,,,,,,,,,,,,,,,,,,,,,,,,,,,,,,,,,,,,,,,,,,,,,,
0,58,58,0,1,,5cb72e7625f45e0017c31287,62c53a05808438d282f10f03,2022-07-06_09h30.24.743,Colour_Asymmetry_Pilot,2022.1.3,Win32,60.09615385,62c50e9c1127f2cd403a315f,,,,,,,,,,,,,,,,,,,,,,,,,,,,,,,,,,,,,,,,,,,,,,,,,,,,,,,,,,,,,,,,,,,,,,,,,,,,,,,,,,,,,,,,,,,,,,,,,,,,,,,,,,,,,,,,,,,,,,,,,,,,,,,,,,,,,,,,,,,,,,,,,,,,,,,,,,,,,,,,,,,
0,59,59,39,1,,5cb72e7625f45e0017c31287,62c53a05808438d282f10f03,2022-07-06_09h30.24.743,Colour_Asymmetry_Pilot,2022.1.3,Win32,60.09615385,62c50e9c1127f2cd403a315f,,,,,,,,,,,,,,,,,,,,,,,,,,,,,,,,,,,,,,,,,,,,,,,,,,,,,,,,,,,,,,,,,,,,,,,,,,,,,,,,,,,,,,,,,,,,,,,,,,,,,,,,,,,,,,,,,,,,,,,,,,,,,,,,,,,,,,,,,,,,,,,,,,,,,,,,,,,,,,,,,,,
0,60,60,1,1,,5cb72e7625f45e0017c31287,62c53a05808438d282f10f03,2022-07-06_09h30.24.743,Colour_Asymmetry_Pilot,2022.1.3,Win32,60.09615385,62c50e9c1127f2cd403a315f,,,,,,,,,,,,,,,,,,,,,,,,,,,,,,,,,,,,,,,,,,,,,,,,,,,,,,,,,,,,,,,,,,,,,,,,,,,,,,,,,,,,,,,,,,,,,,,,,,,,,,,,,,,,,,,,,,,,,,,,,,,,,,,,,,,,,,,,,,,,,,,,,,,,,,,,,,,,,,,,,,,
0,61,61,67,1,,5cb72e7625f45e0017c31287,62c53a05808438d282f10f03,2022-07-06_09h30.24.743,Colour_Asymmetry_Pilot,2022.1.3,Win32,60.09615385,62c50e9c1127f2cd403a315f,,,,,,,,,,,,,,,,,,,,,,,,,,,,,,,,,,,,,,,,,,,,,,,,,,,,,,,,,,,,,,,,,,,,,,,,,,,,,,,,,,,,,,,,,,,,,,,,,,,,,,,,,,,,,,,,,,,,,,,,,,,,,,,,,,,,,,,,,,,,,,,,,,,,,,,,,,,,,,,,,,,
0,62,62,25,1,,5cb72e7625f45e0017c31287,62c53a05808438d282f10f03,2022-07-06_09h30.24.743,Colour_Asymmetry_Pilot,2022.1.3,Win32,60.09615385,62c50e9c1127f2cd403a315f,,,,,,,,,,,,,,,,,,,,,,,,,,,,,,,,,,,,,,,,,,,,,,,,,,,,,,,,,,,,,,,,,,,,,,,,,,,,,,,,,,,,,,,,,,,,,,,,,,,,,,,,,,,,,,,,,,,,,,,,,,,,,,,,,,,,,,,,,,,,,,,,,,,,,,,,,,,,,,,,,,,
0,63,63,78,1,,5cb72e7625f45e0017c31287,62c53a05808438d282f10f03,2022-07-06_09h30.24.743,Colour_Asymmetry_Pilot,2022.1.3,Win32,60.09615385,62c50e9c1127f2cd403a315f,,,,,,,,,,,,,,,,,,,,,,,,,,,,,,,,,,,,,,,,,,,,,,,,,,,,,,,,,,,,,,,,,,,,,,,,,,,,,,,,,,,,,,,,,,,,,,,,,,,,,,,,,,,,,,,,,,,,,,,,,,,,,,,,,,,,,,,,,,,,,,,,,,,,,,,,,,,,,,,,,,,
0,64,64,76,1,,5cb72e7625f45e0017c31287,62c53a05808438d282f10f03,2022-07-06_09h30.24.743,Colour_Asymmetry_Pilot,2022.1.3,Win32,60.09615385,62c50e9c1127f2cd403a315f,,,,,,,,,,,,,,,,,,,,,,,,,,,,,,,,,,,,,,,,,,,,,,,,,,,,,,,,,,,,,,,,,,,,,,,,,,,,,,,,,,,,,,,,,,,,,,,,,,,,,,,,,,,,,,,,,,,,,,,,,,,,,,,,,,,,,,,,,,,,,,,,,,,,,,,,,,,,,,,,,,,
0,65,65,10,1,,5cb72e7625f45e0017c31287,62c53a05808438d282f10f03,2022-07-06_09h30.24.743,Colour_Asymmetry_Pilot,2022.1.3,Win32,60.09615385,62c50e9c1127f2cd403a315f,,,,,,,,,,,,,,,,,,,,,,,,,,,,,,,,,,,,,,,,,,,,,,,,,,,,,,,,,,,,,,,,,,,,,,,,,,,,,,,,,,,,,,,,,,,,,,,,,,,,,,,,,,,,,,,,,,,,,,,,,,,,,,,,,,,,,,,,,,,,,,,,,,,,,,,,,,,,,,,,,,,
0,66,66,32,1,,5cb72e7625f45e0017c31287,62c53a05808438d282f10f03,2022-07-06_09h30.24.743,Colour_Asymmetry_Pilot,2022.1.3,Win32,60.09615385,62c50e9c1127f2cd403a315f,,,,,,,,,,,,,,,,,,,,,,,,,,,,,,,,,,,,,,,,,,,,,,,,,,,,,,,,,,,,,,,,,,,,,,,,,,,,,,,,,,,,,,,,,,,,,,,,,,,,,,,,,,,,,,,,,,,,,,,,,,,,,,,,,,,,,,,,,,,,,,,,,,,,,,,,,,,,,,,,,,,
0,67,67,11,1,,5cb72e7625f45e0017c31287,62c53a05808438d282f10f03,2022-07-06_09h30.24.743,Colour_Asymmetry_Pilot,2022.1.3,Win32,60.09615385,62c50e9c1127f2cd403a315f,,,,,,,,,,,,,,,,,,,,,,,,,,,,,,,,,,,,,,,,,,,,,,,,,,,,,,,,,,,,,,,,,,,,,,,,,,,,,,,,,,,,,,,,,,,,,,,,,,,,,,,,,,,,,,,,,,,,,,,,,,,,,,,,,,,,,,,,,,,,,,,,,,,,,,,,,,,,,,,,,,,
0,68,68,60,1,,5cb72e7625f45e0017c31287,62c53a05808438d282f10f03,2022-07-06_09h30.24.743,Colour_Asymmetry_Pilot,2022.1.3,Win32,60.09615385,62c50e9c1127f2cd403a315f,,,,,,,,,,,,,,,,,,,,,,,,,,,,,,,,,,,,,,,,,,,,,,,,,,,,,,,,,,,,,,,,,,,,,,,,,,,,,,,,,,,,,,,,,,,,,,,,,,,,,,,,,,,,,,,,,,,,,,,,,,,,,,,,,,,,,,,,,,,,,,,,,,,,,,,,,,,,,,,,,,,
0,69,69,45,1,,5cb72e7625f45e0017c31287,62c53a05808438d282f10f03,2022-07-06_09h30.24.743,Colour_Asymmetry_Pilot,2022.1.3,Win32,60.09615385,62c50e9c1127f2cd403a315f,,,,,,,,,,,,,,,,,,,,,,,,,,,,,,,,,,,,,,,,,,,,,,,,,,,,,,,,,,,,,,,,,,,,,,,,,,,,,,,,,,,,,,,,,,,,,,,,,,,,,,,,,,,,,,,,,,,,,,,,,,,,,,,,,,,,,,,,,,,,,,,,,,,,,,,,,,,,,,,,,,,
0,70,70,13,1,,5cb72e7625f45e0017c31287,62c53a05808438d282f10f03,2022-07-06_09h30.24.743,Colour_Asymmetry_Pilot,2022.1.3,Win32,60.09615385,62c50e9c1127f2cd403a315f,,,,,,,,,,,,,,,,,,,,,,,,,,,,,,,,,,,,,,,,,,,,,,,,,,,,,,,,,,,,,,,,,,,,,,,,,,,,,,,,,,,,,,,,,,,,,,,,,,,,,,,,,,,,,,,,,,,,,,,,,,,,,,,,,,,,,,,,,,,,,,,,,,,,,,,,,,,,,,,,,,,
0,71,71,24,1,,5cb72e7625f45e0017c31287,62c53a05808438d282f10f03,2022-07-06_09h30.24.743,Colour_Asymmetry_Pilot,2022.1.3,Win32,60.09615385,62c50e9c1127f2cd403a315f,,,,,,,,,,,,,,,,,,,,,,,,,,,,,,,,,,,,,,,,,,,,,,,,,,,,,,,,,,,,,,,,,,,,,,,,,,,,,,,,,,,,,,,,,,,,,,,,,,,,,,,,,,,,,,,,,,,,,,,,,,,,,,,,,,,,,,,,,,,,,,,,,,,,,,,,,,,,,,,,,,,
0,72,72,80,1,,5cb72e7625f45e0017c31287,62c53a05808438d282f10f03,2022-07-06_09h30.24.743,Colour_Asymmetry_Pilot,2022.1.3,Win32,60.09615385,62c50e9c1127f2cd403a315f,,,,,,,,,,,,,,,,,,,,,,,,,,,,,,,,,,,,,,,,,,,,,,,,,,,,,,,,,,,,,,,,,,,,,,,,,,,,,,,,,,,,,,,,,,,,,,,,,,,,,,,,,,,,,,,,,,,,,,,,,,,,,,,,,,,,,,,,,,,,,,,,,,,,,,,,,,,,,,,,,,,
0,73,73,58,1,,5cb72e7625f45e0017c31287,62c53a05808438d282f10f03,2022-07-06_09h30.24.743,Colour_Asymmetry_Pilot,2022.1.3,Win32,60.09615385,62c50e9c1127f2cd403a315f,,,,,,,,,,,,,,,,,,,,,,,,,,,,,,,,,,,,,,,,,,,,,,,,,,,,,,,,,,,,,,,,,,,,,,,,,,,,,,,,,,,,,,,,,,,,,,,,,,,,,,,,,,,,,,,,,,,,,,,,,,,,,,,,,,,,,,,,,,,,,,,,,,,,,,,,,,,,,,,,,,,
0,74,74,21,1,,5cb72e7625f45e0017c31287,62c53a05808438d282f10f03,2022-07-06_09h30.24.743,Colour_Asymmetry_Pilot,2022.1.3,Win32,60.09615385,62c50e9c1127f2cd403a315f,,,,,,,,,,,,,,,,,,,,,,,,,,,,,,,,,,,,,,,,,,,,,,,,,,,,,,,,,,,,,,,,,,,,,,,,,,,,,,,,,,,,,,,,,,,,,,,,,,,,,,,,,,,,,,,,,,,,,,,,,,,,,,,,,,,,,,,,,,,,,,,,,,,,,,,,,,,,,,,,,,,
0,75,75,91,1,,5cb72e7625f45e0017c31287,62c53a05808438d282f10f03,2022-07-06_09h30.24.743,Colour_Asymmetry_Pilot,2022.1.3,Win32,60.09615385,62c50e9c1127f2cd403a315f,,,,,,,,,,,,,,,,,,,,,,,,,,,,,,,,,,,,,,,,,,,,,,,,,,,,,,,,,,,,,,,,,,,,,,,,,,,,,,,,,,,,,,,,,,,,,,,,,,,,,,,,,,,,,,,,,,,,,,,,,,,,,,,,,,,,,,,,,,,,,,,,,,,,,,,,,,,,,,,,,,,
0,76,76,77,1,,5cb72e7625f45e0017c31287,62c53a05808438d282f10f03,2022-07-06_09h30.24.743,Colour_Asymmetry_Pilot,2022.1.3,Win32,60.09615385,62c50e9c1127f2cd403a315f,,,,,,,,,,,,,,,,,,,,,,,,,,,,,,,,,,,,,,,,,,,,,,,,,,,,,,,,,,,,,,,,,,,,,,,,,,,,,,,,,,,,,,,,,,,,,,,,,,,,,,,,,,,,,,,,,,,,,,,,,,,,,,,,,,,,,,,,,,,,,,,,,,,,,,,,,,,,,,,,,,,
0,77,77,40,1,,5cb72e7625f45e0017c31287,62c53a05808438d282f10f03,2022-07-06_09h30.24.743,Colour_Asymmetry_Pilot,2022.1.3,Win32,60.09615385,62c50e9c1127f2cd403a315f,,,,,,,,,,,,,,,,,,,,,,,,,,,,,,,,,,,,,,,,,,,,,,,,,,,,,,,,,,,,,,,,,,,,,,,,,,,,,,,,,,,,,,,,,,,,,,,,,,,,,,,,,,,,,,,,,,,,,,,,,,,,,,,,,,,,,,,,,,,,,,,,,,,,,,,,,,,,,,,,,,,
0,78,78,35,1,,5cb72e7625f45e0017c31287,62c53a05808438d282f10f03,2022-07-06_09h30.24.743,Colour_Asymmetry_Pilot,2022.1.3,Win32,60.09615385,62c50e9c1127f2cd403a315f,,,,,,,,,,,,,,,,,,,,,,,,,,,,,,,,,,,,,,,,,,,,,,,,,,,,,,,,,,,,,,,,,,,,,,,,,,,,,,,,,,,,,,,,,,,,,,,,,,,,,,,,,,,,,,,,,,,,,,,,,,,,,,,,,,,,,,,,,,,,,,,,,,,,,,,,,,,,,,,,,,,
0,79,79,81,1,,5cb72e7625f45e0017c31287,62c53a05808438d282f10f03,2022-07-06_09h30.24.743,Colour_Asymmetry_Pilot,2022.1.3,Win32,60.09615385,62c50e9c1127f2cd403a315f,,,,,,,,,,,,,,,,,,,,,,,,,,,,,,,,,,,,,,,,,,,,,,,,,,,,,,,,,,,,,,,,,,,,,,,,,,,,,,,,,,,,,,,,,,,,,,,,,,,,,,,,,,,,,,,,,,,,,,,,,,,,,,,,,,,,,,,,,,,,,,,,,,,,,,,,,,,,,,,,,,,
0,80,80,74,1,,5cb72e7625f45e0017c31287,62c53a05808438d282f10f03,2022-07-06_09h30.24.743,Colour_Asymmetry_Pilot,2022.1.3,Win32,60.09615385,62c50e9c1127f2cd403a315f,,,,,,,,,,,,,,,,,,,,,,,,,,,,,,,,,,,,,,,,,,,,,,,,,,,,,,,,,,,,,,,,,,,,,,,,,,,,,,,,,,,,,,,,,,,,,,,,,,,,,,,,,,,,,,,,,,,,,,,,,,,,,,,,,,,,,,,,,,,,,,,,,,,,,,,,,,,,,,,,,,,
0,81,81,23,1,,5cb72e7625f45e0017c31287,62c53a05808438d282f10f03,2022-07-06_09h30.24.743,Colour_Asymmetry_Pilot,2022.1.3,Win32,60.09615385,62c50e9c1127f2cd403a315f,,,,,,,,,,,,,,,,,,,,,,,,,,,,,,,,,,,,,,,,,,,,,,,,,,,,,,,,,,,,,,,,,,,,,,,,,,,,,,,,,,,,,,,,,,,,,,,,,,,,,,,,,,,,,,,,,,,,,,,,,,,,,,,,,,,,,,,,,,,,,,,,,,,,,,,,,,,,,,,,,,,
0,82,82,9,1,,5cb72e7625f45e0017c31287,62c53a05808438d282f10f03,2022-07-06_09h30.24.743,Colour_Asymmetry_Pilot,2022.1.3,Win32,60.09615385,62c50e9c1127f2cd403a315f,,,,,,,,,,,,,,,,,,,,,,,,,,,,,,,,,,,,,,,,,,,,,,,,,,,,,,,,,,,,,,,,,,,,,,,,,,,,,,,,,,,,,,,,,,,,,,,,,,,,,,,,,,,,,,,,,,,,,,,,,,,,,,,,,,,,,,,,,,,,,,,,,,,,,,,,,,,,,,,,,,,
0,83,83,5,1,,5cb72e7625f45e0017c31287,62c53a05808438d282f10f03,2022-07-06_09h30.24.743,Colour_Asymmetry_Pilot,2022.1.3,Win32,60.09615385,62c50e9c1127f2cd403a315f,,,,,,,,,,,,,,,,,,,,,,,,,,,,,,,,,,,,,,,,,,,,,,,,,,,,,,,,,,,,,,,,,,,,,,,,,,,,,,,,,,,,,,,,,,,,,,,,,,,,,,,,,,,,,,,,,,,,,,,,,,,,,,,,,,,,,,,,,,,,,,,,,,,,,,,,,,,,,,,,,,,
0,84,84,71,1,,5cb72e7625f45e0017c31287,62c53a05808438d282f10f03,2022-07-06_09h30.24.743,Colour_Asymmetry_Pilot,2022.1.3,Win32,60.09615385,62c50e9c1127f2cd403a315f,,,,,,,,,,,,,,,,,,,,,,,,,,,,,,,,,,,,,,,,,,,,,,,,,,,,,,,,,,,,,,,,,,,,,,,,,,,,,,,,,,,,,,,,,,,,,,,,,,,,,,,,,,,,,,,,,,,,,,,,,,,,,,,,,,,,,,,,,,,,,,,,,,,,,,,,,,,,,,,,,,,
0,85,85,7,1,,5cb72e7625f45e0017c31287,62c53a05808438d282f10f03,2022-07-06_09h30.24.743,Colour_Asymmetry_Pilot,2022.1.3,Win32,60.09615385,62c50e9c1127f2cd403a315f,,,,,,,,,,,,,,,,,,,,,,,,,,,,,,,,,,,,,,,,,,,,,,,,,,,,,,,,,,,,,,,,,,,,,,,,,,,,,,,,,,,,,,,,,,,,,,,,,,,,,,,,,,,,,,,,,,,,,,,,,,,,,,,,,,,,,,,,,,,,,,,,,,,,,,,,,,,,,,,,,,,
0,86,86,22,1,,5cb72e7625f45e0017c31287,62c53a05808438d282f10f03,2022-07-06_09h30.24.743,Colour_Asymmetry_Pilot,2022.1.3,Win32,60.09615385,62c50e9c1127f2cd403a315f,,,,,,,,,,,,,,,,,,,,,,,,,,,,,,,,,,,,,,,,,,,,,,,,,,,,,,,,,,,,,,,,,,,,,,,,,,,,,,,,,,,,,,,,,,,,,,,,,,,,,,,,,,,,,,,,,,,,,,,,,,,,,,,,,,,,,,,,,,,,,,,,,,,,,,,,,,,,,,,,,,,
0,87,87,4,1,,5cb72e7625f45e0017c31287,62c53a05808438d282f10f03,2022-07-06_09h30.24.743,Colour_Asymmetry_Pilot,2022.1.3,Win32,60.09615385,62c50e9c1127f2cd403a315f,,,,,,,,,,,,,,,,,,,,,,,,,,,,,,,,,,,,,,,,,,,,,,,,,,,,,,,,,,,,,,,,,,,,,,,,,,,,,,,,,,,,,,,,,,,,,,,,,,,,,,,,,,,,,,,,,,,,,,,,,,,,,,,,,,,,,,,,,,,,,,,,,,,,,,,,,,,,,,,,,,,
0,88,88,63,1,,5cb72e7625f45e0017c31287,62c53a05808438d282f10f03,2022-07-06_09h30.24.743,Colour_Asymmetry_Pilot,2022.1.3,Win32,60.09615385,62c50e9c1127f2cd403a315f,,,,,,,,,,,,,,,,,,,,,,,,,,,,,,,,,,,,,,,,,,,,,,,,,,,,,,,,,,,,,,,,,,,,,,,,,,,,,,,,,,,,,,,,,,,,,,,,,,,,,,,,,,,,,,,,,,,,,,,,,,,,,,,,,,,,,,,,,,,,,,,,,,,,,,,,,,,,,,,,,,,
0,89,89,59,1,,5cb72e7625f45e0017c31287,62c53a05808438d282f10f03,2022-07-06_09h30.24.743,Colour_Asymmetry_Pilot,2022.1.3,Win32,60.09615385,62c50e9c1127f2cd403a315f,,,,,,,,,,,,,,,,,,,,,,,,,,,,,,,,,,,,,,,,,,,,,,,,,,,,,,,,,,,,,,,,,,,,,,,,,,,,,,,,,,,,,,,,,,,,,,,,,,,,,,,,,,,,,,,,,,,,,,,,,,,,,,,,,,,,,,,,,,,,,,,,,,,,,,,,,,,,,,,,,,,
0,90,90,85,1,,5cb72e7625f45e0017c31287,62c53a05808438d282f10f03,2022-07-06_09h30.24.743,Colour_Asymmetry_Pilot,2022.1.3,Win32,60.09615385,62c50e9c1127f2cd403a315f,,,,,,,,,,,,,,,,,,,,,,,,,,,,,,,,,,,,,,,,,,,,,,,,,,,,,,,,,,,,,,,,,,,,,,,,,,,,,,,,,,,,,,,,,,,,,,,,,,,,,,,,,,,,,,,,,,,,,,,,,,,,,,,,,,,,,,,,,,,,,,,,,,,,,,,,,,,,,,,,,,,
0,91,91,16,1,,5cb72e7625f45e0017c31287,62c53a05808438d282f10f03,2022-07-06_09h30.24.743,Colour_Asymmetry_Pilot,2022.1.3,Win32,60.09615385,62c50e9c1127f2cd403a315f,,,,,,,,,,,,,,,,,,,,,,,,,,,,,,,,,,,,,,,,,,,,,,,,,,,,,,,,,,,,,,,,,,,,,,,,,,,,,,,,,,,,,,,,,,,,,,,,,,,,,,,,,,,,,,,,,,,,,,,,,,,,,,,,,,,,,,,,,,,,,,,,,,,,,,,,,,,,,,,,,,,
0,92,92,68,1,,5cb72e7625f45e0017c31287,62c53a05808438d282f10f03,2022-07-06_09h30.24.743,Colour_Asymmetry_Pilot,2022.1.3,Win32,60.09615385,62c50e9c1127f2cd403a315f,,,,,,,,,,,,,,,,,,,,,,,,,,,,,,,,,,,,,,,,,,,,,,,,,,,,,,,,,,,,,,,,,,,,,,,,,,,,,,,,,,,,,,,,,,,,,,,,,,,,,,,,,,,,,,,,,,,,,,,,,,,,,,,,,,,,,,,,,,,,,,,,,,,,,,,,,,,,,,,,,,,
,,,,,,5cb72e7625f45e0017c31287,62c53a05808438d282f10f03,2022-07-06_09h30.24.743,Colour_Asymmetry_Pilot,2022.1.3,Win32,60.09615385,62c50e9c1127f2cd403a315f,0,0,0,55,1,fourthree,,,,,,,,,,,,,,,,,,,,,,,,,,,,,,,,,,,,,,,,,,,,,,,,,,,,,,,,,,,,,,,,,,,,,,,,,,,,,,,,,,,,,,,,,,,,,,,,,,,,,,,,,,,,,,,,,,,,,,,,,,,,,,,,,,,,,,,,,,,,,,,,,,,,,,,,,,,,,
,,,,,,5cb72e7625f45e0017c31287,62c53a05808438d282f10f03,2022-07-06_09h30.24.743,Colour_Asymmetry_Pilot,2022.1.3,Win32,60.09615385,62c50e9c1127f2cd403a315f,0,1,1,116,1,threeone,,,,,,,,,,,,,,,,,,,,,,,,,,,,,,,,,,,,,,,,,,,,,,,,,,,,,,,,,,,,,,,,,,,,,,,,,,,,,,,,,,,,,,,,,,,,,,,,,,,,,,,,,,,,,,,,,,,,,,,,,,,,,,,,,,,,,,,,,,,,,,,,,,,,,,,,,,,,,
,,,,,,5cb72e7625f45e0017c31287,62c53a05808438d282f10f03,2022-07-06_09h30.24.743,Colour_Asymmetry_Pilot,2022.1.3,Win32,60.09615385,62c50e9c1127f2cd403a315f,0,2,2,117,1,threefour,,,,,,,,,,,,,,,,,,,,,,,,,,,,,,,,,,,,,,,,,,,,,,,,,,,,,,,,,,,,,,,,,,,,,,,,,,,,,,,,,,,,,,,,,,,,,,,,,,,,,,,,,,,,,,,,,,,,,,,,,,,,,,,,,,,,,,,,,,,,,,,,,,,,,,,,,,,,,
,,,,,,5cb72e7625f45e0017c31287,62c53a05808438d282f10f03,2022-07-06_09h30.24.743,Colour_Asymmetry_Pilot,2022.1.3,Win32,60.09615385,62c50e9c1127f2cd403a315f,0,3,3,73,1,onethree,,,,,,,,,,,,,,,,,,,,,,,,,,,,,,,,,,,,,,,,,,,,,,,,,,,,,,,,,,,,,,,,,,,,,,,,,,,,,,,,,,,,,,,,,,,,,,,,,,,,,,,,,,,,,,,,,,,,,,,,,,,,,,,,,,,,,,,,,,,,,,,,,,,,,,,,,,,,,
,,,,,,5cb72e7625f45e0017c31287,62c53a05808438d282f10f03,2022-07-06_09h30.24.743,Colour_Asymmetry_Pilot,2022.1.3,Win32,60.09615385,62c50e9c1127f2cd403a315f,0,4,4,19,1,twofour,,,,,,,,,,,,,,,,,,,,,,,,,,,,,,,,,,,,,,,,,,,,,,,,,,,,,,,,,,,,,,,,,,,,,,,,,,,,,,,,,,,,,,,,,,,,,,,,,,,,,,,,,,,,,,,,,,,,,,,,,,,,,,,,,,,,,,,,,,,,,,,,,,,,,,,,,,,,,
,,,,,,5cb72e7625f45e0017c31287,62c53a05808438d282f10f03,2022-07-06_09h30.24.743,Colour_Asymmetry_Pilot,2022.1.3,Win32,60.09615385,62c50e9c1127f2cd403a315f,0,5,5,29,1,threefour,,,,,,,,,,,,,,,,,,,,,,,,,,,,,,,,,,,,,,,,,,,,,,,,,,,,,,,,,,,,,,,,,,,,,,,,,,,,,,,,,,,,,,,,,,,,,,,,,,,,,,,,,,,,,,,,,,,,,,,,,,,,,,,,,,,,,,,,,,,,,,,,,,,,,,,,,,,,,
,,,,,,5cb72e7625f45e0017c31287,62c53a05808438d282f10f03,2022-07-06_09h30.24.743,Colour_Asymmetry_Pilot,2022.1.3,Win32,60.09615385,62c50e9c1127f2cd403a315f,0,6,6,141,1,threefour,,,,,,,,,,,,,,,,,,,,,,,,,,,,,,,,,,,,,,,,,,,,,,,,,,,,,,,,,,,,,,,,,,,,,,,,,,,,,,,,,,,,,,,,,,,,,,,,,,,,,,,,,,,,,,,,,,,,,,,,,,,,,,,,,,,,,,,,,,,,,,,,,,,,,,,,,,,,,
,,,,,,5cb72e7625f45e0017c31287,62c53a05808438d282f10f03,2022-07-06_09h30.24.743,Colour_Asymmetry_Pilot,2022.1.3,Win32,60.09615385,62c50e9c1127f2cd403a315f,0,7,7,133,1,threefour,,,,,,,,,,,,,,,,,,,,,,,,,,,,,,,,,,,,,,,,,,,,,,,,,,,,,,,,,,,,,,,,,,,,,,,,,,,,,,,,,,,,,,,,,,,,,,,,,,,,,,,,,,,,,,,,,,,,,,,,,,,,,,,,,,,,,,,,,,,,,,,,,,,,,,,,,,,,,
,,,,,,5cb72e7625f45e0017c31287,62c53a05808438d282f10f03,2022-07-06_09h30.24.743,Colour_Asymmetry_Pilot,2022.1.3,Win32,60.09615385,62c50e9c1127f2cd403a315f,0,8,8,16,1,onetwo,,,,,,,,,,,,,,,,,,,,,,,,,,,,,,,,,,,,,,,,,,,,,,,,,,,,,,,,,,,,,,,,,,,,,,,,,,,,,,,,,,,,,,,,,,,,,,,,,,,,,,,,,,,,,,,,,,,,,,,,,,,,,,,,,,,,,,,,,,,,,,,,,,,,,,,,,,,,,
,,,,,,5cb72e7625f45e0017c31287,62c53a05808438d282f10f03,2022-07-06_09h30.24.743,Colour_Asymmetry_Pilot,2022.1.3,Win32,60.09615385,62c50e9c1127f2cd403a315f,0,9,9,37,1,threefour,,,,,,,,,,,,,,,,,,,,,,,,,,,,,,,,,,,,,,,,,,,,,,,,,,,,,,,,,,,,,,,,,,,,,,,,,,,,,,,,,,,,,,,,,,,,,,,,,,,,,,,,,,,,,,,,,,,,,,,,,,,,,,,,,,,,,,,,,,,,,,,,,,,,,,,,,,,,,
,,,,,,5cb72e7625f45e0017c31287,62c53a05808438d282f10f03,2022-07-06_09h30.24.743,Colour_Asymmetry_Pilot,2022.1.3,Win32,60.09615385,62c50e9c1127f2cd403a315f,0,10,10,137,1,onethree,,,,,,,,,,,,,,,,,,,,,,,,,,,,,,,,,,,,,,,,,,,,,,,,,,,,,,,,,,,,,,,,,,,,,,,,,,,,,,,,,,,,,,,,,,,,,,,,,,,,,,,,,,,,,,,,,,,,,,,,,,,,,,,,,,,,,,,,,,,,,,,,,,,,,,,,,,,,,
,,,,,,5cb72e7625f45e0017c31287,62c53a05808438d282f10f03,2022-07-06_09h30.24.743,Colour_Asymmetry_Pilot,2022.1.3,Win32,60.09615385,62c50e9c1127f2cd403a315f,0,11,11,118,1,fourtwo,,,,,,,,,,,,,,,,,,,,,,,,,,,,,,,,,,,,,,,,,,,,,,,,,,,,,,,,,,,,,,,,,,,,,,,,,,,,,,,,,,,,,,,,,,,,,,,,,,,,,,,,,,,,,,,,,,,,,,,,,,,,,,,,,,,,,,,,,,,,,,,,,,,,,,,,,,,,,
,,,,,,5cb72e7625f45e0017c31287,62c53a05808438d282f10f03,2022-07-06_09h30.24.743,Colour_Asymmetry_Pilot,2022.1.3,Win32,60.09615385,62c50e9c1127f2cd403a315f,0,12,12,103,1,fourthree,,,,,,,,,,,,,,,,,,,,,,,,,,,,,,,,,,,,,,,,,,,,,,,,,,,,,,,,,,,,,,,,,,,,,,,,,,,,,,,,,,,,,,,,,,,,,,,,,,,,,,,,,,,,,,,,,,,,,,,,,,,,,,,,,,,,,,,,,,,,,,,,,,,,,,,,,,,,,
,,,,,,5cb72e7625f45e0017c31287,62c53a05808438d282f10f03,2022-07-06_09h30.24.743,Colour_Asymmetry_Pilot,2022.1.3,Win32,60.09615385,62c50e9c1127f2cd403a315f,0,13,13,2,1,twoone,,,,,,,,,,,,,,,,,,,,,,,,,,,,,,,,,,,,,,,,,,,,,,,,,,,,,,,,,,,,,,,,,,,,,,,,,,,,,,,,,,,,,,,,,,,,,,,,,,,,,,,,,,,,,,,,,,,,,,,,,,,,,,,,,,,,,,,,,,,,,,,,,,,,,,,,,,,,,
,,,,,,5cb72e7625f45e0017c31287,62c53a05808438d282f10f03,2022-07-06_09h30.24.743,Colour_Asymmetry_Pilot,2022.1.3,Win32,60.09615385,62c50e9c1127f2cd403a315f,0,14,14,18,1,twoone,,,,,,,,,,,,,,,,,,,,,,,,,,,,,,,,,,,,,,,,,,,,,,,,,,,,,,,,,,,,,,,,,,,,,,,,,,,,,,,,,,,,,,,,,,,,,,,,,,,,,,,,,,,,,,,,,,,,,,,,,,,,,,,,,,,,,,,,,,,,,,,,,,,,,,,,,,,,,
,,,,,,5cb72e7625f45e0017c31287,62c53a05808438d282f10f03,2022-07-06_09h30.24.743,Colour_Asymmetry_Pilot,2022.1.3,Win32,60.09615385,62c50e9c1127f2cd403a315f,0,15,15,102,1,fourtwo,,,,,,,,,,,,,,,,,,,,,,,,,,,,,,,,,,,,,,,,,,,,,,,,,,,,,,,,,,,,,,,,,,,,,,,,,,,,,,,,,,,,,,,,,,,,,,,,,,,,,,,,,,,,,,,,,,,,,,,,,,,,,,,,,,,,,,,,,,,,,,,,,,,,,,,,,,,,,
,,,,,,5cb72e7625f45e0017c31287,62c53a05808438d282f10f03,2022-07-06_09h30.24.743,Colour_Asymmetry_Pilot,2022.1.3,Win32,60.09615385,62c50e9c1127f2cd403a315f,0,16,16,155,1,twofour,,,,,,,,,,,,,,,,,,,,,,,,,,,,,,,,,,,,,,,,,,,,,,,,,,,,,,,,,,,,,,,,,,,,,,,,,,,,,,,,,,,,,,,,,,,,,,,,,,,,,,,,,,,,,,,,,,,,,,,,,,,,,,,,,,,,,,,,,,,,,,,,,,,,,,,,,,,,,
,,,,,,5cb72e7625f45e0017c31287,62c53a05808438d282f10f03,2022-07-06_09h30.24.743,Colour_Asymmetry_Pilot,2022.1.3,Win32,60.09615385,62c50e9c1127f2cd403a315f,0,17,17,142,1,fourtwo,,,,,,,,,,,,,,,,,,,,,,,,,,,,,,,,,,,,,,,,,,,,,,,,,,,,,,,,,,,,,,,,,,,,,,,,,,,,,,,,,,,,,,,,,,,,,,,,,,,,,,,,,,,,,,,,,,,,,,,,,,,,,,,,,,,,,,,,,,,,,,,,,,,,,,,,,,,,,
,,,,,,5cb72e7625f45e0017c31287,62c53a05808438d282f10f03,2022-07-06_09h30.24.743,Colour_Asymmetry_Pilot,2022.1.3,Win32,60.09615385,62c50e9c1127f2cd403a315f,0,18,18,31,1,fourthree,,,,,,,,,,,,,,,,,,,,,,,,,,,,,,,,,,,,,,,,,,,,,,,,,,,,,,,,,,,,,,,,,,,,,,,,,,,,,,,,,,,,,,,,,,,,,,,,,,,,,,,,,,,,,,,,,,,,,,,,,,,,,,,,,,,,,,,,,,,,,,,,,,,,,,,,,,,,,
,,,,,,5cb72e7625f45e0017c31287,62c53a05808438d282f10f03,2022-07-06_09h30.24.743,Colour_Asymmetry_Pilot,2022.1.3,Win32,60.09615385,62c50e9c1127f2cd403a315f,0,19,19,149,1,threefour,,,,,,,,,,,,,,,,,,,,,,,,,,,,,,,,,,,,,,,,,,,,,,,,,,,,,,,,,,,,,,,,,,,,,,,,,,,,,,,,,,,,,,,,,,,,,,,,,,,,,,,,,,,,,,,,,,,,,,,,,,,,,,,,,,,,,,,,,,,,,,,,,,,,,,,,,,,,,
,,,,,,5cb72e7625f45e0017c31287,62c53a05808438d282f10f03,2022-07-06_09h30.24.743,Colour_Asymmetry_Pilot,2022.1.3,Win32,60.09615385,62c50e9c1127f2cd403a315f,0,20,20,40,1,onetwo,,,,,,,,,,,,,,,,,,,,,,,,,,,,,,,,,,,,,,,,,,,,,,,,,,,,,,,,,,,,,,,,,,,,,,,,,,,,,,,,,,,,,,,,,,,,,,,,,,,,,,,,,,,,,,,,,,,,,,,,,,,,,,,,,,,,,,,,,,,,,,,,,,,,,,,,,,,,,
,,,,,,5cb72e7625f45e0017c31287,62c53a05808438d282f10f03,2022-07-06_09h30.24.743,Colour_Asymmetry_Pilot,2022.1.3,Win32,60.09615385,62c50e9c1127f2cd403a315f,0,21,21,9,1,onethree,,,,,,,,,,,,,,,,,,,,,,,,,,,,,,,,,,,,,,,,,,,,,,,,,,,,,,,,,,,,,,,,,,,,,,,,,,,,,,,,,,,,,,,,,,,,,,,,,,,,,,,,,,,,,,,,,,,,,,,,,,,,,,,,,,,,,,,,,,,,,,,,,,,,,,,,,,,,,
,,,,,,5cb72e7625f45e0017c31287,62c53a05808438d282f10f03,2022-07-06_09h30.24.743,Colour_Asymmetry_Pilot,2022.1.3,Win32,60.09615385,62c50e9c1127f2cd403a315f,0,22,22,129,1,onethree,,,,,,,,,,,,,,,,,,,,,,,,,,,,,,,,,,,,,,,,,,,,,,,,,,,,,,,,,,,,,,,,,,,,,,,,,,,,,,,,,,,,,,,,,,,,,,,,,,,,,,,,,,,,,,,,,,,,,,,,,,,,,,,,,,,,,,,,,,,,,,,,,,,,,,,,,,,,,
,,,,,,5cb72e7625f45e0017c31287,62c53a05808438d282f10f03,2022-07-06_09h30.24.743,Colour_Asymmetry_Pilot,2022.1.3,Win32,60.09615385,62c50e9c1127f2cd403a315f,0,23,23,121,1,onethree,,,,,,,,,,,,,,,,,,,,,,,,,,,,,,,,,,,,,,,,,,,,,,,,,,,,,,,,,,,,,,,,,,,,,,,,,,,,,,,,,,,,,,,,,,,,,,,,,,,,,,,,,,,,,,,,,,,,,,,,,,,,,,,,,,,,,,,,,,,,,,,,,,,,,,,,,,,,,
,,,,,,5cb72e7625f45e0017c31287,62c53a05808438d282f10f03,2022-07-06_09h30.24.743,Colour_Asymmetry_Pilot,2022.1.3,Win32,60.09615385,62c50e9c1127f2cd403a315f,0,24,24,88,1,onetwo,,,,,,,,,,,,,,,,,,,,,,,,,,,,,,,,,,,,,,,,,,,,,,,,,,,,,,,,,,,,,,,,,,,,,,,,,,,,,,,,,,,,,,,,,,,,,,,,,,,,,,,,,,,,,,,,,,,,,,,,,,,,,,,,,,,,,,,,,,,,,,,,,,,,,,,,,,,,,
,,,,,,5cb72e7625f45e0017c31287,62c53a05808438d282f10f03,2022-07-06_09h30.24.743,Colour_Asymmetry_Pilot,2022.1.3,Win32,60.09615385,62c50e9c1127f2cd403a315f,0,25,25,90,1,twoone,,,,,,,,,,,,,,,,,,,,,,,,,,,,,,,,,,,,,,,,,,,,,,,,,,,,,,,,,,,,,,,,,,,,,,,,,,,,,,,,,,,,,,,,,,,,,,,,,,,,,,,,,,,,,,,,,,,,,,,,,,,,,,,,,,,,,,,,,,,,,,,,,,,,,,,,,,,,,
,,,,,,5cb72e7625f45e0017c31287,62c53a05808438d282f10f03,2022-07-06_09h30.24.743,Colour_Asymmetry_Pilot,2022.1.3,Win32,60.09615385,62c50e9c1127f2cd403a315f,0,26,26,54,1,fourtwo,,,,,,,,,,,,,,,,,,,,,,,,,,,,,,,,,,,,,,,,,,,,,,,,,,,,,,,,,,,,,,,,,,,,,,,,,,,,,,,,,,,,,,,,,,,,,,,,,,,,,,,,,,,,,,,,,,,,,,,,,,,,,,,,,,,,,,,,,,,,,,,,,,,,,,,,,,,,,
,,,,,,5cb72e7625f45e0017c31287,62c53a05808438d282f10f03,2022-07-06_09h30.24.743,Colour_Asymmetry_Pilot,2022.1.3,Win32,60.09615385,62c50e9c1127f2cd403a315f,0,27,27,106,1,twoone,,,,,,,,,,,,,,,,,,,,,,,,,,,,,,,,,,,,,,,,,,,,,,,,,,,,,,,,,,,,,,,,,,,,,,,,,,,,,,,,,,,,,,,,,,,,,,,,,,,,,,,,,,,,,,,,,,,,,,,,,,,,,,,,,,,,,,,,,,,,,,,,,,,,,,,,,,,,,
,,,,,,5cb72e7625f45e0017c31287,62c53a05808438d282f10f03,2022-07-06_09h30.24.743,Colour_Asymmetry_Pilot,2022.1.3,Win32,60.09615385,62c50e9c1127f2cd403a315f,0,28,28,128,1,onetwo,,,,,,,,,,,,,,,,,,,,,,,,,,,,,,,,,,,,,,,,,,,,,,,,,,,,,,,,,,,,,,,,,,,,,,,,,,,,,,,,,,,,,,,,,,,,,,,,,,,,,,,,,,,,,,,,,,,,,,,,,,,,,,,,,,,,,,,,,,,,,,,,,,,,,,,,,,,,,
,,,,,,5cb72e7625f45e0017c31287,62c53a05808438d282f10f03,2022-07-06_09h30.24.743,Colour_Asymmetry_Pilot,2022.1.3,Win32,60.09615385,62c50e9c1127f2cd403a315f,0,29,29,56,1,onetwo,,,,,,,,,,,,,,,,,,,,,,,,,,,,,,,,,,,,,,,,,,,,,,,,,,,,,,,,,,,,,,,,,,,,,,,,,,,,,,,,,,,,,,,,,,,,,,,,,,,,,,,,,,,,,,,,,,,,,,,,,,,,,,,,,,,,,,,,,,,,,,,,,,,,,,,,,,,,,
,,,,,,5cb72e7625f45e0017c31287,62c53a05808438d282f10f03,2022-07-06_09h30.24.743,Colour_Asymmetry_Pilot,2022.1.3,Win32,60.09615385,62c50e9c1127f2cd403a315f,0,30,30,14,1,fourtwo,,,,,,,,,,,,,,,,,,,,,,,,,,,,,,,,,,,,,,,,,,,,,,,,,,,,,,,,,,,,,,,,,,,,,,,,,,,,,,,,,,,,,,,,,,,,,,,,,,,,,,,,,,,,,,,,,,,,,,,,,,,,,,,,,,,,,,,,,,,,,,,,,,,,,,,,,,,,,
,,,,,,5cb72e7625f45e0017c31287,62c53a05808438d282f10f03,2022-07-06_09h30.24.743,Colour_Asymmetry_Pilot,2022.1.3,Win32,60.09615385,62c50e9c1127f2cd403a315f,0,31,31,144,1,onetwo,,,,,,,,,,,,,,,,,,,,,,,,,,,,,,,,,,,,,,,,,,,,,,,,,,,,,,,,,,,,,,,,,,,,,,,,,,,,,,,,,,,,,,,,,,,,,,,,,,,,,,,,,,,,,,,,,,,,,,,,,,,,,,,,,,,,,,,,,,,,,,,,,,,,,,,,,,,,,
,,,,,,5cb72e7625f45e0017c31287,62c53a05808438d282f10f03,2022-07-06_09h30.24.743,Colour_Asymmetry_Pilot,2022.1.3,Win32,60.09615385,62c50e9c1127f2cd403a315f,0,32,32,113,1,onethree,,,,,,,,,,,,,,,,,,,,,,,,,,,,,,,,,,,,,,,,,,,,,,,,,,,,,,,,,,,,,,,,,,,,,,,,,,,,,,,,,,,,,,,,,,,,,,,,,,,,,,,,,,,,,,,,,,,,,,,,,,,,,,,,,,,,,,,,,,,,,,,,,,,,,,,,,,,,,
,,,,,,5cb72e7625f45e0017c31287,62c53a05808438d282f10f03,2022-07-06_09h30.24.743,Colour_Asymmetry_Pilot,2022.1.3,Win32,60.09615385,62c50e9c1127f2cd403a315f,0,33,33,134,1,fourtwo,,,,,,,,,,,,,,,,,,,,,,,,,,,,,,,,,,,,,,,,,,,,,,,,,,,,,,,,,,,,,,,,,,,,,,,,,,,,,,,,,,,,,,,,,,,,,,,,,,,,,,,,,,,,,,,,,,,,,,,,,,,,,,,,,,,,,,,,,,,,,,,,,,,,,,,,,,,,,
,,,,,,5cb72e7625f45e0017c31287,62c53a05808438d282f10f03,2022-07-06_09h30.24.743,Colour_Asymmetry_Pilot,2022.1.3,Win32,60.09615385,62c50e9c1127f2cd403a315f,0,34,34,124,1,threeone,,,,,,,,,,,,,,,,,,,,,,,,,,,,,,,,,,,,,,,,,,,,,,,,,,,,,,,,,,,,,,,,,,,,,,,,,,,,,,,,,,,,,,,,,,,,,,,,,,,,,,,,,,,,,,,,,,,,,,,,,,,,,,,,,,,,,,,,,,,,,,,,,,,,,,,,,,,,,
,,,,,,5cb72e7625f45e0017c31287,62c53a05808438d282f10f03,2022-07-06_09h30.24.743,Colour_Asymmetry_Pilot,2022.1.3,Win32,60.09615385,62c50e9c1127f2cd403a315f,0,35,35,120,1,onetwo,,,,,,,,,,,,,,,,,,,,,,,,,,,,,,,,,,,,,,,,,,,,,,,,,,,,,,,,,,,,,,,,,,,,,,,,,,,,,,,,,,,,,,,,,,,,,,,,,,,,,,,,,,,,,,,,,,,,,,,,,,,,,,,,,,,,,,,,,,,,,,,,,,,,,,,,,,,,,
,,,,,,5cb72e7625f45e0017c31287,62c53a05808438d282f10f03,2022-07-06_09h30.24.743,Colour_Asymmetry_Pilot,2022.1.3,Win32,60.09615385,62c50e9c1127f2cd403a315f,0,36,36,154,1,twoone,,,,,,,,,,,,,,,,,,,,,,,,,,,,,,,,,,,,,,,,,,,,,,,,,,,,,,,,,,,,,,,,,,,,,,,,,,,,,,,,,,,,,,,,,,,,,,,,,,,,,,,,,,,,,,,,,,,,,,,,,,,,,,,,,,,,,,,,,,,,,,,,,,,,,,,,,,,,,
,,,,,,5cb72e7625f45e0017c31287,62c53a05808438d282f10f03,2022-07-06_09h30.24.743,Colour_Asymmetry_Pilot,2022.1.3,Win32,60.09615385,62c50e9c1127f2cd403a315f,0,37,37,97,1,onethree,,,,,,,,,,,,,,,,,,,,,,,,,,,,,,,,,,,,,,,,,,,,,,,,,,,,,,,,,,,,,,,,,,,,,,,,,,,,,,,,,,,,,,,,,,,,,,,,,,,,,,,,,,,,,,,,,,,,,,,,,,,,,,,,,,,,,,,,,,,,,,,,,,,,,,,,,,,,,
,,,,,,5cb72e7625f45e0017c31287,62c53a05808438d282f10f03,2022-07-06_09h30.24.743,Colour_Asymmetry_Pilot,2022.1.3,Win32,60.09615385,62c50e9c1127f2cd403a315f,0,38,38,47,1,fourthree,,,,,,,,,,,,,,,,,,,,,,,,,,,,,,,,,,,,,,,,,,,,,,,,,,,,,,,,,,,,,,,,,,,,,,,,,,,,,,,,,,,,,,,,,,,,,,,,,,,,,,,,,,,,,,,,,,,,,,,,,,,,,,,,,,,,,,,,,,,,,,,,,,,,,,,,,,,,,
,,,,,,5cb72e7625f45e0017c31287,62c53a05808438d282f10f03,2022-07-06_09h30.24.743,Colour_Asymmetry_Pilot,2022.1.3,Win32,60.09615385,62c50e9c1127f2cd403a315f,0,39,39,70,1,fourtwo,,,,,,,,,,,,,,,,,,,,,,,,,,,,,,,,,,,,,,,,,,,,,,,,,,,,,,,,,,,,,,,,,,,,,,,,,,,,,,,,,,,,,,,,,,,,,,,,,,,,,,,,,,,,,,,,,,,,,,,,,,,,,,,,,,,,,,,,,,,,,,,,,,,,,,,,,,,,,
,,,,,,5cb72e7625f45e0017c31287,62c53a05808438d282f10f03,2022-07-06_09h30.24.743,Colour_Asymmetry_Pilot,2022.1.3,Win32,60.09615385,62c50e9c1127f2cd403a315f,0,40,40,150,1,fourtwo,,,,,,,,,,,,,,,,,,,,,,,,,,,,,,,,,,,,,,,,,,,,,,,,,,,,,,,,,,,,,,,,,,,,,,,,,,,,,,,,,,,,,,,,,,,,,,,,,,,,,,,,,,,,,,,,,,,,,,,,,,,,,,,,,,,,,,,,,,,,,,,,,,,,,,,,,,,,,
,,,,,,5cb72e7625f45e0017c31287,62c53a05808438d282f10f03,2022-07-06_09h30.24.743,Colour_Asymmetry_Pilot,2022.1.3,Win32,60.09615385,62c50e9c1127f2cd403a315f,0,41,41,127,1,fourthree,,,,,,,,,,,,,,,,,,,,,,,,,,,,,,,,,,,,,,,,,,,,,,,,,,,,,,,,,,,,,,,,,,,,,,,,,,,,,,,,,,,,,,,,,,,,,,,,,,,,,,,,,,,,,,,,,,,,,,,,,,,,,,,,,,,,,,,,,,,,,,,,,,,,,,,,,,,,,
,,,,,,5cb72e7625f45e0017c31287,62c53a05808438d282f10f03,2022-07-06_09h30.24.743,Colour_Asymmetry_Pilot,2022.1.3,Win32,60.09615385,62c50e9c1127f2cd403a315f,0,42,42,81,1,onethree,,,,,,,,,,,,,,,,,,,,,,,,,,,,,,,,,,,,,,,,,,,,,,,,,,,,,,,,,,,,,,,,,,,,,,,,,,,,,,,,,,,,,,,,,,,,,,,,,,,,,,,,,,,,,,,,,,,,,,,,,,,,,,,,,,,,,,,,,,,,,,,,,,,,,,,,,,,,,
,,,,,,5cb72e7625f45e0017c31287,62c53a05808438d282f10f03,2022-07-06_09h30.24.743,Colour_Asymmetry_Pilot,2022.1.3,Win32,60.09615385,62c50e9c1127f2cd403a315f,0,43,43,59,1,twofour,,,,,,,,,,,,,,,,,,,,,,,,,,,,,,,,,,,,,,,,,,,,,,,,,,,,,,,,,,,,,,,,,,,,,,,,,,,,,,,,,,,,,,,,,,,,,,,,,,,,,,,,,,,,,,,,,,,,,,,,,,,,,,,,,,,,,,,,,,,,,,,,,,,,,,,,,,,,,
,,,,,,5cb72e7625f45e0017c31287,62c53a05808438d282f10f03,2022-07-06_09h30.24.743,Colour_Asymmetry_Pilot,2022.1.3,Win32,60.09615385,62c50e9c1127f2cd403a315f,0,44,44,89,1,onethree,,,,,,,,,,,,,,,,,,,,,,,,,,,,,,,,,,,,,,,,,,,,,,,,,,,,,,,,,,,,,,,,,,,,,,,,,,,,,,,,,,,,,,,,,,,,,,,,,,,,,,,,,,,,,,,,,,,,,,,,,,,,,,,,,,,,,,,,,,,,,,,,,,,,,,,,,,,,,
,,,,,,5cb72e7625f45e0017c31287,62c53a05808438d282f10f03,2022-07-06_09h30.24.743,Colour_Asymmetry_Pilot,2022.1.3,Win32,60.09615385,62c50e9c1127f2cd403a315f,0,45,45,32,1,onetwo,,,,,,,,,,,,,,,,,,,,,,,,,,,,,,,,,,,,,,,,,,,,,,,,,,,,,,,,,,,,,,,,,,,,,,,,,,,,,,,,,,,,,,,,,,,,,,,,,,,,,,,,,,,,,,,,,,,,,,,,,,,,,,,,,,,,,,,,,,,,,,,,,,,,,,,,,,,,,
,,,,,,5cb72e7625f45e0017c31287,62c53a05808438d282f10f03,2022-07-06_09h30.24.743,Colour_Asymmetry_Pilot,2022.1.3,Win32,60.09615385,62c50e9c1127f2cd403a315f,0,46,46,148,1,threeone,,,,,,,,,,,,,,,,,,,,,,,,,,,,,,,,,,,,,,,,,,,,,,,,,,,,,,,,,,,,,,,,,,,,,,,,,,,,,,,,,,,,,,,,,,,,,,,,,,,,,,,,,,,,,,,,,,,,,,,,,,,,,,,,,,,,,,,,,,,,,,,,,,,,,,,,,,,,,
,,,,,,5cb72e7625f45e0017c31287,62c53a05808438d282f10f03,2022-07-06_09h30.24.743,Colour_Asymmetry_Pilot,2022.1.3,Win32,60.09615385,62c50e9c1127f2cd403a315f,0,47,47,143,1,fourthree,,,,,,,,,,,,,,,,,,,,,,,,,,,,,,,,,,,,,,,,,,,,,,,,,,,,,,,,,,,,,,,,,,,,,,,,,,,,,,,,,,,,,,,,,,,,,,,,,,,,,,,,,,,,,,,,,,,,,,,,,,,,,,,,,,,,,,,,,,,,,,,,,,,,,,,,,,,,,
,,,,,,5cb72e7625f45e0017c31287,62c53a05808438d282f10f03,2022-07-06_09h30.24.743,Colour_Asymmetry_Pilot,2022.1.3,Win32,60.09615385,62c50e9c1127f2cd403a315f,0,48,48,53,1,threefour,,,,,,,,,,,,,,,,,,,,,,,,,,,,,,,,,,,,,,,,,,,,,,,,,,,,,,,,,,,,,,,,,,,,,,,,,,,,,,,,,,,,,,,,,,,,,,,,,,,,,,,,,,,,,,,,,,,,,,,,,,,,,,,,,,,,,,,,,,,,,,,,,,,,,,,,,,,,,
,,,,,,5cb72e7625f45e0017c31287,62c53a05808438d282f10f03,2022-07-06_09h30.24.743,Colour_Asymmetry_Pilot,2022.1.3,Win32,60.09615385,62c50e9c1127f2cd403a315f,0,49,49,107,1,twofour,,,,,,,,,,,,,,,,,,,,,,,,,,,,,,,,,,,,,,,,,,,,,,,,,,,,,,,,,,,,,,,,,,,,,,,,,,,,,,,,,,,,,,,,,,,,,,,,,,,,,,,,,,,,,,,,,,,,,,,,,,,,,,,,,,,,,,,,,,,,,,,,,,,,,,,,,,,,,
,,,,,,5cb72e7625f45e0017c31287,62c53a05808438d282f10f03,2022-07-06_09h30.24.743,Colour_Asymmetry_Pilot,2022.1.3,Win32,60.09615385,62c50e9c1127f2cd403a315f,0,50,50,122,1,twoone,,,,,,,,,,,,,,,,,,,,,,,,,,,,,,,,,,,,,,,,,,,,,,,,,,,,,,,,,,,,,,,,,,,,,,,,,,,,,,,,,,,,,,,,,,,,,,,,,,,,,,,,,,,,,,,,,,,,,,,,,,,,,,,,,,,,,,,,,,,,,,,,,,,,,,,,,,,,,
,,,,,,5cb72e7625f45e0017c31287,62c53a05808438d282f10f03,2022-07-06_09h30.24.743,Colour_Asymmetry_Pilot,2022.1.3,Win32,60.09615385,62c50e9c1127f2cd403a315f,0,51,51,8,1,onetwo,,,,,,,,,,,,,,,,,,,,,,,,,,,,,,,,,,,,,,,,,,,,,,,,,,,,,,,,,,,,,,,,,,,,,,,,,,,,,,,,,,,,,,,,,,,,,,,,,,,,,,,,,,,,,,,,,,,,,,,,,,,,,,,,,,,,,,,,,,,,,,,,,,,,,,,,,,,,,
,,,,,,5cb72e7625f45e0017c31287,62c53a05808438d282f10f03,2022-07-06_09h30.24.743,Colour_Asymmetry_Pilot,2022.1.3,Win32,60.09615385,62c50e9c1127f2cd403a315f,0,52,52,99,1,twofour,,,,,,,,,,,,,,,,,,,,,,,,,,,,,,,,,,,,,,,,,,,,,,,,,,,,,,,,,,,,,,,,,,,,,,,,,,,,,,,,,,,,,,,,,,,,,,,,,,,,,,,,,,,,,,,,,,,,,,,,,,,,,,,,,,,,,,,,,,,,,,,,,,,,,,,,,,,,,
,,,,,,5cb72e7625f45e0017c31287,62c53a05808438d282f10f03,2022-07-06_09h30.24.743,Colour_Asymmetry_Pilot,2022.1.3,Win32,60.09615385,62c50e9c1127f2cd403a315f,0,53,53,79,1,fourthree,,,,,,,,,,,,,,,,,,,,,,,,,,,,,,,,,,,,,,,,,,,,,,,,,,,,,,,,,,,,,,,,,,,,,,,,,,,,,,,,,,,,,,,,,,,,,,,,,,,,,,,,,,,,,,,,,,,,,,,,,,,,,,,,,,,,,,,,,,,,,,,,,,,,,,,,,,,,,
,,,,,,5cb72e7625f45e0017c31287,62c53a05808438d282f10f03,2022-07-06_09h30.24.743,Colour_Asymmetry_Pilot,2022.1.3,Win32,60.09615385,62c50e9c1127f2cd403a315f,0,54,54,82,1,twoone,,,,,,,,,,,,,,,,,,,,,,,,,,,,,,,,,,,,,,,,,,,,,,,,,,,,,,,,,,,,,,,,,,,,,,,,,,,,,,,,,,,,,,,,,,,,,,,,,,,,,,,,,,,,,,,,,,,,,,,,,,,,,,,,,,,,,,,,,,,,,,,,,,,,,,,,,,,,,
,,,,,,5cb72e7625f45e0017c31287,62c53a05808438d282f10f03,2022-07-06_09h30.24.743,Colour_Asymmetry_Pilot,2022.1.3,Win32,60.09615385,62c50e9c1127f2cd403a315f,0,55,55,140,1,threeone,,,,,,,,,,,,,,,,,,,,,,,,,,,,,,,,,,,,,,,,,,,,,,,,,,,,,,,,,,,,,,,,,,,,,,,,,,,,,,,,,,,,,,,,,,,,,,,,,,,,,,,,,,,,,,,,,,,,,,,,,,,,,,,,,,,,,,,,,,,,,,,,,,,,,,,,,,,,,
,,,,,,5cb72e7625f45e0017c31287,62c53a05808438d282f10f03,2022-07-06_09h30.24.743,Colour_Asymmetry_Pilot,2022.1.3,Win32,60.09615385,62c50e9c1127f2cd403a315f,0,56,56,153,1,onethree,,,,,,,,,,,,,,,,,,,,,,,,,,,,,,,,,,,,,,,,,,,,,,,,,,,,,,,,,,,,,,,,,,,,,,,,,,,,,,,,,,,,,,,,,,,,,,,,,,,,,,,,,,,,,,,,,,,,,,,,,,,,,,,,,,,,,,,,,,,,,,,,,,,,,,,,,,,,,
,,,,,,5cb72e7625f45e0017c31287,62c53a05808438d282f10f03,2022-07-06_09h30.24.743,Colour_Asymmetry_Pilot,2022.1.3,Win32,60.09615385,62c50e9c1127f2cd403a315f,0,57,57,50,1,twoone,,,,,,,,,,,,,,,,,,,,,,,,,,,,,,,,,,,,,,,,,,,,,,,,,,,,,,,,,,,,,,,,,,,,,,,,,,,,,,,,,,,,,,,,,,,,,,,,,,,,,,,,,,,,,,,,,,,,,,,,,,,,,,,,,,,,,,,,,,,,,,,,,,,,,,,,,,,,,
,,,,,,5cb72e7625f45e0017c31287,62c53a05808438d282f10f03,2022-07-06_09h30.24.743,Colour_Asymmetry_Pilot,2022.1.3,Win32,60.09615385,62c50e9c1127f2cd403a315f,0,58,58,125,1,threefour,,,,,,,,,,,,,,,,,,,,,,,,,,,,,,,,,,,,,,,,,,,,,,,,,,,,,,,,,,,,,,,,,,,,,,,,,,,,,,,,,,,,,,,,,,,,,,,,,,,,,,,,,,,,,,,,,,,,,,,,,,,,,,,,,,,,,,,,,,,,,,,,,,,,,,,,,,,,,
,,,,,,5cb72e7625f45e0017c31287,62c53a05808438d282f10f03,2022-07-06_09h30.24.743,Colour_Asymmetry_Pilot,2022.1.3,Win32,60.09615385,62c50e9c1127f2cd403a315f,0,59,59,60,1,threeone,,,,,,,,,,,,,,,,,,,,,,,,,,,,,,,,,,,,,,,,,,,,,,,,,,,,,,,,,,,,,,,,,,,,,,,,,,,,,,,,,,,,,,,,,,,,,,,,,,,,,,,,,,,,,,,,,,,,,,,,,,,,,,,,,,,,,,,,,,,,,,,,,,,,,,,,,,,,,
,,,,,,5cb72e7625f45e0017c31287,62c53a05808438d282f10f03,2022-07-06_09h30.24.743,Colour_Asymmetry_Pilot,2022.1.3,Win32,60.09615385,62c50e9c1127f2cd403a315f,0,60,60,6,1,fourtwo,,,,,,,,,,,,,,,,,,,,,,,,,,,,,,,,,,,,,,,,,,,,,,,,,,,,,,,,,,,,,,,,,,,,,,,,,,,,,,,,,,,,,,,,,,,,,,,,,,,,,,,,,,,,,,,,,,,,,,,,,,,,,,,,,,,,,,,,,,,,,,,,,,,,,,,,,,,,,
,,,,,,5cb72e7625f45e0017c31287,62c53a05808438d282f10f03,2022-07-06_09h30.24.743,Colour_Asymmetry_Pilot,2022.1.3,Win32,60.09615385,62c50e9c1127f2cd403a315f,0,61,61,146,1,twoone,,,,,,,,,,,,,,,,,,,,,,,,,,,,,,,,,,,,,,,,,,,,,,,,,,,,,,,,,,,,,,,,,,,,,,,,,,,,,,,,,,,,,,,,,,,,,,,,,,,,,,,,,,,,,,,,,,,,,,,,,,,,,,,,,,,,,,,,,,,,,,,,,,,,,,,,,,,,,
,,,,,,5cb72e7625f45e0017c31287,62c53a05808438d282f10f03,2022-07-06_09h30.24.743,Colour_Asymmetry_Pilot,2022.1.3,Win32,60.09615385,62c50e9c1127f2cd403a315f,0,62,62,11,1,twofour,,,,,,,,,,,,,,,,,,,,,,,,,,,,,,,,,,,,,,,,,,,,,,,,,,,,,,,,,,,,,,,,,,,,,,,,,,,,,,,,,,,,,,,,,,,,,,,,,,,,,,,,,,,,,,,,,,,,,,,,,,,,,,,,,,,,,,,,,,,,,,,,,,,,,,,,,,,,,
,,,,,,5cb72e7625f45e0017c31287,62c53a05808438d282f10f03,2022-07-06_09h30.24.743,Colour_Asymmetry_Pilot,2022.1.3,Win32,60.09615385,62c50e9c1127f2cd403a315f,0,63,63,115,1,twofour,,,,,,,,,,,,,,,,,,,,,,,,,,,,,,,,,,,,,,,,,,,,,,,,,,,,,,,,,,,,,,,,,,,,,,,,,,,,,,,,,,,,,,,,,,,,,,,,,,,,,,,,,,,,,,,,,,,,,,,,,,,,,,,,,,,,,,,,,,,,,,,,,,,,,,,,,,,,,
,,,,,,5cb72e7625f45e0017c31287,62c53a05808438d282f10f03,2022-07-06_09h30.24.743,Colour_Asymmetry_Pilot,2022.1.3,Win32,60.09615385,62c50e9c1127f2cd403a315f,0,64,64,20,1,threeone,,,,,,,,,,,,,,,,,,,,,,,,,,,,,,,,,,,,,,,,,,,,,,,,,,,,,,,,,,,,,,,,,,,,,,,,,,,,,,,,,,,,,,,,,,,,,,,,,,,,,,,,,,,,,,,,,,,,,,,,,,,,,,,,,,,,,,,,,,,,,,,,,,,,,,,,,,,,,
,,,,,,5cb72e7625f45e0017c31287,62c53a05808438d282f10f03,2022-07-06_09h30.24.743,Colour_Asymmetry_Pilot,2022.1.3,Win32,60.09615385,62c50e9c1127f2cd403a315f,0,65,65,28,1,threeone,,,,,,,,,,,,,,,,,,,,,,,,,,,,,,,,,,,,,,,,,,,,,,,,,,,,,,,,,,,,,,,,,,,,,,,,,,,,,,,,,,,,,,,,,,,,,,,,,,,,,,,,,,,,,,,,,,,,,,,,,,,,,,,,,,,,,,,,,,,,,,,,,,,,,,,,,,,,,
,,,,,,5cb72e7625f45e0017c31287,62c53a05808438d282f10f03,2022-07-06_09h30.24.743,Colour_Asymmetry_Pilot,2022.1.3,Win32,60.09615385,62c50e9c1127f2cd403a315f,0,66,66,69,1,threefour,,,,,,,,,,,,,,,,,,,,,,,,,,,,,,,,,,,,,,,,,,,,,,,,,,,,,,,,,,,,,,,,,,,,,,,,,,,,,,,,,,,,,,,,,,,,,,,,,,,,,,,,,,,,,,,,,,,,,,,,,,,,,,,,,,,,,,,,,,,,,,,,,,,,,,,,,,,,,
,,,,,,5cb72e7625f45e0017c31287,62c53a05808438d282f10f03,2022-07-06_09h30.24.743,Colour_Asymmetry_Pilot,2022.1.3,Win32,60.09615385,62c50e9c1127f2cd403a315f,0,67,67,34,1,twoone,,,,,,,,,,,,,,,,,,,,,,,,,,,,,,,,,,,,,,,,,,,,,,,,,,,,,,,,,,,,,,,,,,,,,,,,,,,,,,,,,,,,,,,,,,,,,,,,,,,,,,,,,,,,,,,,,,,,,,,,,,,,,,,,,,,,,,,,,,,,,,,,,,,,,,,,,,,,,
,,,,,,5cb72e7625f45e0017c31287,62c53a05808438d282f10f03,2022-07-06_09h30.24.743,Colour_Asymmetry_Pilot,2022.1.3,Win32,60.09615385,62c50e9c1127f2cd403a315f,0,68,68,68,1,threeone,,,,,,,,,,,,,,,,,,,,,,,,,,,,,,,,,,,,,,,,,,,,,,,,,,,,,,,,,,,,,,,,,,,,,,,,,,,,,,,,,,,,,,,,,,,,,,,,,,,,,,,,,,,,,,,,,,,,,,,,,,,,,,,,,,,,,,,,,,,,,,,,,,,,,,,,,,,,,
,,,,,,5cb72e7625f45e0017c31287,62c53a05808438d282f10f03,2022-07-06_09h30.24.743,Colour_Asymmetry_Pilot,2022.1.3,Win32,60.09615385,62c50e9c1127f2cd403a315f,0,69,69,5,1,threefour,,,,,,,,,,,,,,,,,,,,,,,,,,,,,,,,,,,,,,,,,,,,,,,,,,,,,,,,,,,,,,,,,,,,,,,,,,,,,,,,,,,,,,,,,,,,,,,,,,,,,,,,,,,,,,,,,,,,,,,,,,,,,,,,,,,,,,,,,,,,,,,,,,,,,,,,,,,,,
,,,,,,5cb72e7625f45e0017c31287,62c53a05808438d282f10f03,2022-07-06_09h30.24.743,Colour_Asymmetry_Pilot,2022.1.3,Win32,60.09615385,62c50e9c1127f2cd403a315f,0,70,70,15,1,fourthree,,,,,,,,,,,,,,,,,,,,,,,,,,,,,,,,,,,,,,,,,,,,,,,,,,,,,,,,,,,,,,,,,,,,,,,,,,,,,,,,,,,,,,,,,,,,,,,,,,,,,,,,,,,,,,,,,,,,,,,,,,,,,,,,,,,,,,,,,,,,,,,,,,,,,,,,,,,,,
,,,,,,5cb72e7625f45e0017c31287,62c53a05808438d282f10f03,2022-07-06_09h30.24.743,Colour_Asymmetry_Pilot,2022.1.3,Win32,60.09615385,62c50e9c1127f2cd403a315f,0,71,71,136,1,onetwo,,,,,,,,,,,,,,,,,,,,,,,,,,,,,,,,,,,,,,,,,,,,,,,,,,,,,,,,,,,,,,,,,,,,,,,,,,,,,,,,,,,,,,,,,,,,,,,,,,,,,,,,,,,,,,,,,,,,,,,,,,,,,,,,,,,,,,,,,,,,,,,,,,,,,,,,,,,,,
,,,,,,5cb72e7625f45e0017c31287,62c53a05808438d282f10f03,2022-07-06_09h30.24.743,Colour_Asymmetry_Pilot,2022.1.3,Win32,60.09615385,62c50e9c1127f2cd403a315f,0,72,72,46,1,fourtwo,,,,,,,,,,,,,,,,,,,,,,,,,,,,,,,,,,,,,,,,,,,,,,,,,,,,,,,,,,,,,,,,,,,,,,,,,,,,,,,,,,,,,,,,,,,,,,,,,,,,,,,,,,,,,,,,,,,,,,,,,,,,,,,,,,,,,,,,,,,,,,,,,,,,,,,,,,,,,
,,,,,,5cb72e7625f45e0017c31287,62c53a05808438d282f10f03,2022-07-06_09h30.24.743,Colour_Asymmetry_Pilot,2022.1.3,Win32,60.09615385,62c50e9c1127f2cd403a315f,0,73,73,119,1,fourthree,,,,,,,,,,,,,,,,,,,,,,,,,,,,,,,,,,,,,,,,,,,,,,,,,,,,,,,,,,,,,,,,,,,,,,,,,,,,,,,,,,,,,,,,,,,,,,,,,,,,,,,,,,,,,,,,,,,,,,,,,,,,,,,,,,,,,,,,,,,,,,,,,,,,,,,,,,,,,
,,,,,,5cb72e7625f45e0017c31287,62c53a05808438d282f10f03,2022-07-06_09h30.24.743,Colour_Asymmetry_Pilot,2022.1.3,Win32,60.09615385,62c50e9c1127f2cd403a315f,0,74,74,147,1,twofour,,,,,,,,,,,,,,,,,,,,,,,,,,,,,,,,,,,,,,,,,,,,,,,,,,,,,,,,,,,,,,,,,,,,,,,,,,,,,,,,,,,,,,,,,,,,,,,,,,,,,,,,,,,,,,,,,,,,,,,,,,,,,,,,,,,,,,,,,,,,,,,,,,,,,,,,,,,,,
,,,,,,5cb72e7625f45e0017c31287,62c53a05808438d282f10f03,2022-07-06_09h30.24.743,Colour_Asymmetry_Pilot,2022.1.3,Win32,60.09615385,62c50e9c1127f2cd403a315f,0,75,75,36,1,threeone,,,,,,,,,,,,,,,,,,,,,,,,,,,,,,,,,,,,,,,,,,,,,,,,,,,,,,,,,,,,,,,,,,,,,,,,,,,,,,,,,,,,,,,,,,,,,,,,,,,,,,,,,,,,,,,,,,,,,,,,,,,,,,,,,,,,,,,,,,,,,,,,,,,,,,,,,,,,,
,,,,,,5cb72e7625f45e0017c31287,62c53a05808438d282f10f03,2022-07-06_09h30.24.743,Colour_Asymmetry_Pilot,2022.1.3,Win32,60.09615385,62c50e9c1127f2cd403a315f,0,76,76,138,1,twoone,,,,,,,,,,,,,,,,,,,,,,,,,,,,,,,,,,,,,,,,,,,,,,,,,,,,,,,,,,,,,,,,,,,,,,,,,,,,,,,,,,,,,,,,,,,,,,,,,,,,,,,,,,,,,,,,,,,,,,,,,,,,,,,,,,,,,,,,,,,,,,,,,,,,,,,,,,,,,
,,,,,,5cb72e7625f45e0017c31287,62c53a05808438d282f10f03,2022-07-06_09h30.24.743,Colour_Asymmetry_Pilot,2022.1.3,Win32,60.09615385,62c50e9c1127f2cd403a315f,0,77,77,30,1,fourtwo,,,,,,,,,,,,,,,,,,,,,,,,,,,,,,,,,,,,,,,,,,,,,,,,,,,,,,,,,,,,,,,,,,,,,,,,,,,,,,,,,,,,,,,,,,,,,,,,,,,,,,,,,,,,,,,,,,,,,,,,,,,,,,,,,,,,,,,,,,,,,,,,,,,,,,,,,,,,,
,,,,,,5cb72e7625f45e0017c31287,62c53a05808438d282f10f03,2022-07-06_09h30.24.743,Colour_Asymmetry_Pilot,2022.1.3,Win32,60.09615385,62c50e9c1127f2cd403a315f,0,78,78,112,1,onetwo,,,,,,,,,,,,,,,,,,,,,,,,,,,,,,,,,,,,,,,,,,,,,,,,,,,,,,,,,,,,,,,,,,,,,,,,,,,,,,,,,,,,,,,,,,,,,,,,,,,,,,,,,,,,,,,,,,,,,,,,,,,,,,,,,,,,,,,,,,,,,,,,,,,,,,,,,,,,,
,,,,,,5cb72e7625f45e0017c31287,62c53a05808438d282f10f03,2022-07-06_09h30.24.743,Colour_Asymmetry_Pilot,2022.1.3,Win32,60.09615385,62c50e9c1127f2cd403a315f,0,79,79,109,1,threefour,,,,,,,,,,,,,,,,,,,,,,,,,,,,,,,,,,,,,,,,,,,,,,,,,,,,,,,,,,,,,,,,,,,,,,,,,,,,,,,,,,,,,,,,,,,,,,,,,,,,,,,,,,,,,,,,,,,,,,,,,,,,,,,,,,,,,,,,,,,,,,,,,,,,,,,,,,,,,
,,,,,,5cb72e7625f45e0017c31287,62c53a05808438d282f10f03,2022-07-06_09h30.24.743,Colour_Asymmetry_Pilot,2022.1.3,Win32,60.09615385,62c50e9c1127f2cd403a315f,0,80,80,38,1,fourtwo,,,,,,,,,,,,,,,,,,,,,,,,,,,,,,,,,,,,,,,,,,,,,,,,,,,,,,,,,,,,,,,,,,,,,,,,,,,,,,,,,,,,,,,,,,,,,,,,,,,,,,,,,,,,,,,,,,,,,,,,,,,,,,,,,,,,,,,,,,,,,,,,,,,,,,,,,,,,,
,,,,,,5cb72e7625f45e0017c31287,62c53a05808438d282f10f03,2022-07-06_09h30.24.743,Colour_Asymmetry_Pilot,2022.1.3,Win32,60.09615385,62c50e9c1127f2cd403a315f,0,81,81,62,1,fourtwo,,,,,,,,,,,,,,,,,,,,,,,,,,,,,,,,,,,,,,,,,,,,,,,,,,,,,,,,,,,,,,,,,,,,,,,,,,,,,,,,,,,,,,,,,,,,,,,,,,,,,,,,,,,,,,,,,,,,,,,,,,,,,,,,,,,,,,,,,,,,,,,,,,,,,,,,,,,,,
,,,,,,5cb72e7625f45e0017c31287,62c53a05808438d282f10f03,2022-07-06_09h30.24.743,Colour_Asymmetry_Pilot,2022.1.3,Win32,60.09615385,62c50e9c1127f2cd403a315f,0,82,82,75,1,twofour,,,,,,,,,,,,,,,,,,,,,,,,,,,,,,,,,,,,,,,,,,,,,,,,,,,,,,,,,,,,,,,,,,,,,,,,,,,,,,,,,,,,,,,,,,,,,,,,,,,,,,,,,,,,,,,,,,,,,,,,,,,,,,,,,,,,,,,,,,,,,,,,,,,,,,,,,,,,,
,,,,,,5cb72e7625f45e0017c31287,62c53a05808438d282f10f03,2022-07-06_09h30.24.743,Colour_Asymmetry_Pilot,2022.1.3,Win32,60.09615385,62c50e9c1127f2cd403a315f,0,83,83,1,1,onethree,,,,,,,,,,,,,,,,,,,,,,,,,,,,,,,,,,,,,,,,,,,,,,,,,,,,,,,,,,,,,,,,,,,,,,,,,,,,,,,,,,,,,,,,,,,,,,,,,,,,,,,,,,,,,,,,,,,,,,,,,,,,,,,,,,,,,,,,,,,,,,,,,,,,,,,,,,,,,
,,,,,,5cb72e7625f45e0017c31287,62c53a05808438d282f10f03,2022-07-06_09h30.24.743,Colour_Asymmetry_Pilot,2022.1.3,Win32,60.09615385,62c50e9c1127f2cd403a315f,0,84,84,158,1,fourtwo,,,,,,,,,,,,,,,,,,,,,,,,,,,,,,,,,,,,,,,,,,,,,,,,,,,,,,,,,,,,,,,,,,,,,,,,,,,,,,,,,,,,,,,,,,,,,,,,,,,,,,,,,,,,,,,,,,,,,,,,,,,,,,,,,,,,,,,,,,,,,,,,,,,,,,,,,,,,,
,,,,,,5cb72e7625f45e0017c31287,62c53a05808438d282f10f03,2022-07-06_09h30.24.743,Colour_Asymmetry_Pilot,2022.1.3,Win32,60.09615385,62c50e9c1127f2cd403a315f,0,85,85,7,1,fourthree,,,,,,,,,,,,,,,,,,,,,,,,,,,,,,,,,,,,,,,,,,,,,,,,,,,,,,,,,,,,,,,,,,,,,,,,,,,,,,,,,,,,,,,,,,,,,,,,,,,,,,,,,,,,,,,,,,,,,,,,,,,,,,,,,,,,,,,,,,,,,,,,,,,,,,,,,,,,,
,,,,,,5cb72e7625f45e0017c31287,62c53a05808438d282f10f03,2022-07-06_09h30.24.743,Colour_Asymmetry_Pilot,2022.1.3,Win32,60.09615385,62c50e9c1127f2cd403a315f,0,86,86,12,1,threeone,,,,,,,,,,,,,,,,,,,,,,,,,,,,,,,,,,,,,,,,,,,,,,,,,,,,,,,,,,,,,,,,,,,,,,,,,,,,,,,,,,,,,,,,,,,,,,,,,,,,,,,,,,,,,,,,,,,,,,,,,,,,,,,,,,,,,,,,,,,,,,,,,,,,,,,,,,,,,
,,,,,,5cb72e7625f45e0017c31287,62c53a05808438d282f10f03,2022-07-06_09h30.24.743,Colour_Asymmetry_Pilot,2022.1.3,Win32,60.09615385,62c50e9c1127f2cd403a315f,0,87,87,93,1,threefour,,,,,,,,,,,,,,,,,,,,,,,,,,,,,,,,,,,,,,,,,,,,,,,,,,,,,,,,,,,,,,,,,,,,,,,,,,,,,,,,,,,,,,,,,,,,,,,,,,,,,,,,,,,,,,,,,,,,,,,,,,,,,,,,,,,,,,,,,,,,,,,,,,,,,,,,,,,,,
,,,,,,5cb72e7625f45e0017c31287,62c53a05808438d282f10f03,2022-07-06_09h30.24.743,Colour_Asymmetry_Pilot,2022.1.3,Win32,60.09615385,62c50e9c1127f2cd403a315f,0,88,88,66,1,twoone,,,,,,,,,,,,,,,,,,,,,,,,,,,,,,,,,,,,,,,,,,,,,,,,,,,,,,,,,,,,,,,,,,,,,,,,,,,,,,,,,,,,,,,,,,,,,,,,,,,,,,,,,,,,,,,,,,,,,,,,,,,,,,,,,,,,,,,,,,,,,,,,,,,,,,,,,,,,,
,,,,,,5cb72e7625f45e0017c31287,62c53a05808438d282f10f03,2022-07-06_09h30.24.743,Colour_Asymmetry_Pilot,2022.1.3,Win32,60.09615385,62c50e9c1127f2cd403a315f,0,89,89,157,1,threefour,,,,,,,,,,,,,,,,,,,,,,,,,,,,,,,,,,,,,,,,,,,,,,,,,,,,,,,,,,,,,,,,,,,,,,,,,,,,,,,,,,,,,,,,,,,,,,,,,,,,,,,,,,,,,,,,,,,,,,,,,,,,,,,,,,,,,,,,,,,,,,,,,,,,,,,,,,,,,
,,,,,,5cb72e7625f45e0017c31287,62c53a05808438d282f10f03,2022-07-06_09h30.24.743,Colour_Asymmetry_Pilot,2022.1.3,Win32,60.09615385,62c50e9c1127f2cd403a315f,0,90,90,87,1,fourthree,,,,,,,,,,,,,,,,,,,,,,,,,,,,,,,,,,,,,,,,,,,,,,,,,,,,,,,,,,,,,,,,,,,,,,,,,,,,,,,,,,,,,,,,,,,,,,,,,,,,,,,,,,,,,,,,,,,,,,,,,,,,,,,,,,,,,,,,,,,,,,,,,,,,,,,,,,,,,
,,,,,,5cb72e7625f45e0017c31287,62c53a05808438d282f10f03,2022-07-06_09h30.24.743,Colour_Asymmetry_Pilot,2022.1.3,Win32,60.09615385,62c50e9c1127f2cd403a315f,0,91,91,42,1,twoone,,,,,,,,,,,,,,,,,,,,,,,,,,,,,,,,,,,,,,,,,,,,,,,,,,,,,,,,,,,,,,,,,,,,,,,,,,,,,,,,,,,,,,,,,,,,,,,,,,,,,,,,,,,,,,,,,,,,,,,,,,,,,,,,,,,,,,,,,,,,,,,,,,,,,,,,,,,,,
,,,,,,5cb72e7625f45e0017c31287,62c53a05808438d282f10f03,2022-07-06_09h30.24.743,Colour_Asymmetry_Pilot,2022.1.3,Win32,60.09615385,62c50e9c1127f2cd403a315f,0,92,92,80,1,onetwo,,,,,,,,,,,,,,,,,,,,,,,,,,,,,,,,,,,,,,,,,,,,,,,,,,,,,,,,,,,,,,,,,,,,,,,,,,,,,,,,,,,,,,,,,,,,,,,,,,,,,,,,,,,,,,,,,,,,,,,,,,,,,,,,,,,,,,,,,,,,,,,,,,,,,,,,,,,,,
,,,,,,5cb72e7625f45e0017c31287,62c53a05808438d282f10f03,2022-07-06_09h30.24.743,Colour_Asymmetry_Pilot,2022.1.3,Win32,60.09615385,62c50e9c1127f2cd403a315f,0,93,93,100,1,threeone,,,,,,,,,,,,,,,,,,,,,,,,,,,,,,,,,,,,,,,,,,,,,,,,,,,,,,,,,,,,,,,,,,,,,,,,,,,,,,,,,,,,,,,,,,,,,,,,,,,,,,,,,,,,,,,,,,,,,,,,,,,,,,,,,,,,,,,,,,,,,,,,,,,,,,,,,,,,,
,,,,,,5cb72e7625f45e0017c31287,62c53a05808438d282f10f03,2022-07-06_09h30.24.743,Colour_Asymmetry_Pilot,2022.1.3,Win32,60.09615385,62c50e9c1127f2cd403a315f,0,94,94,83,1,twofour,,,,,,,,,,,,,,,,,,,,,,,,,,,,,,,,,,,,,,,,,,,,,,,,,,,,,,,,,,,,,,,,,,,,,,,,,,,,,,,,,,,,,,,,,,,,,,,,,,,,,,,,,,,,,,,,,,,,,,,,,,,,,,,,,,,,,,,,,,,,,,,,,,,,,,,,,,,,,
,,,,,,5cb72e7625f45e0017c31287,62c53a05808438d282f10f03,2022-07-06_09h30.24.743,Colour_Asymmetry_Pilot,2022.1.3,Win32,60.09615385,62c50e9c1127f2cd403a315f,0,95,95,145,1,onethree,,,,,,,,,,,,,,,,,,,,,,,,,,,,,,,,,,,,,,,,,,,,,,,,,,,,,,,,,,,,,,,,,,,,,,,,,,,,,,,,,,,,,,,,,,,,,,,,,,,,,,,,,,,,,,,,,,,,,,,,,,,,,,,,,,,,,,,,,,,,,,,,,,,,,,,,,,,,,
,,,,,,5cb72e7625f45e0017c31287,62c53a05808438d282f10f03,2022-07-06_09h30.24.743,Colour_Asymmetry_Pilot,2022.1.3,Win32,60.09615385,62c50e9c1127f2cd403a315f,0,96,96,105,1,onethree,,,,,,,,,,,,,,,,,,,,,,,,,,,,,,,,,,,,,,,,,,,,,,,,,,,,,,,,,,,,,,,,,,,,,,,,,,,,,,,,,,,,,,,,,,,,,,,,,,,,,,,,,,,,,,,,,,,,,,,,,,,,,,,,,,,,,,,,,,,,,,,,,,,,,,,,,,,,,
,,,,,,5cb72e7625f45e0017c31287,62c53a05808438d282f10f03,2022-07-06_09h30.24.743,Colour_Asymmetry_Pilot,2022.1.3,Win32,60.09615385,62c50e9c1127f2cd403a315f,0,97,97,71,1,fourthree,,,,,,,,,,,,,,,,,,,,,,,,,,,,,,,,,,,,,,,,,,,,,,,,,,,,,,,,,,,,,,,,,,,,,,,,,,,,,,,,,,,,,,,,,,,,,,,,,,,,,,,,,,,,,,,,,,,,,,,,,,,,,,,,,,,,,,,,,,,,,,,,,,,,,,,,,,,,,
,,,,,,5cb72e7625f45e0017c31287,62c53a05808438d282f10f03,2022-07-06_09h30.24.743,Colour_Asymmetry_Pilot,2022.1.3,Win32,60.09615385,62c50e9c1127f2cd403a315f,0,98,98,76,1,threeone,,,,,,,,,,,,,,,,,,,,,,,,,,,,,,,,,,,,,,,,,,,,,,,,,,,,,,,,,,,,,,,,,,,,,,,,,,,,,,,,,,,,,,,,,,,,,,,,,,,,,,,,,,,,,,,,,,,,,,,,,,,,,,,,,,,,,,,,,,,,,,,,,,,,,,,,,,,,,
,,,,,,5cb72e7625f45e0017c31287,62c53a05808438d282f10f03,2022-07-06_09h30.24.743,Colour_Asymmetry_Pilot,2022.1.3,Win32,60.09615385,62c50e9c1127f2cd403a315f,0,99,99,13,1,threefour,,,,,,,,,,,,,,,,,,,,,,,,,,,,,,,,,,,,,,,,,,,,,,,,,,,,,,,,,,,,,,,,,,,,,,,,,,,,,,,,,,,,,,,,,,,,,,,,,,,,,,,,,,,,,,,,,,,,,,,,,,,,,,,,,,,,,,,,,,,,,,,,,,,,,,,,,,,,,
,,,,,,5cb72e7625f45e0017c31287,62c53a05808438d282f10f03,2022-07-06_09h30.24.743,Colour_Asymmetry_Pilot,2022.1.3,Win32,60.09615385,62c50e9c1127f2cd403a315f,0,100,100,0,1,onetwo,,,,,,,,,,,,,,,,,,,,,,,,,,,,,,,,,,,,,,,,,,,,,,,,,,,,,,,,,,,,,,,,,,,,,,,,,,,,,,,,,,,,,,,,,,,,,,,,,,,,,,,,,,,,,,,,,,,,,,,,,,,,,,,,,,,,,,,,,,,,,,,,,,,,,,,,,,,,,
,,,,,,5cb72e7625f45e0017c31287,62c53a05808438d282f10f03,2022-07-06_09h30.24.743,Colour_Asymmetry_Pilot,2022.1.3,Win32,60.09615385,62c50e9c1127f2cd403a315f,0,101,101,45,1,threefour,,,,,,,,,,,,,,,,,,,,,,,,,,,,,,,,,,,,,,,,,,,,,,,,,,,,,,,,,,,,,,,,,,,,,,,,,,,,,,,,,,,,,,,,,,,,,,,,,,,,,,,,,,,,,,,,,,,,,,,,,,,,,,,,,,,,,,,,,,,,,,,,,,,,,,,,,,,,,
,,,,,,5cb72e7625f45e0017c31287,62c53a05808438d282f10f03,2022-07-06_09h30.24.743,Colour_Asymmetry_Pilot,2022.1.3,Win32,60.09615385,62c50e9c1127f2cd403a315f,0,102,102,78,1,fourtwo,,,,,,,,,,,,,,,,,,,,,,,,,,,,,,,,,,,,,,,,,,,,,,,,,,,,,,,,,,,,,,,,,,,,,,,,,,,,,,,,,,,,,,,,,,,,,,,,,,,,,,,,,,,,,,,,,,,,,,,,,,,,,,,,,,,,,,,,,,,,,,,,,,,,,,,,,,,,,
,,,,,,5cb72e7625f45e0017c31287,62c53a05808438d282f10f03,2022-07-06_09h30.24.743,Colour_Asymmetry_Pilot,2022.1.3,Win32,60.09615385,62c50e9c1127f2cd403a315f,0,103,103,44,1,threeone,,,,,,,,,,,,,,,,,,,,,,,,,,,,,,,,,,,,,,,,,,,,,,,,,,,,,,,,,,,,,,,,,,,,,,,,,,,,,,,,,,,,,,,,,,,,,,,,,,,,,,,,,,,,,,,,,,,,,,,,,,,,,,,,,,,,,,,,,,,,,,,,,,,,,,,,,,,,,
,,,,,,5cb72e7625f45e0017c31287,62c53a05808438d282f10f03,2022-07-06_09h30.24.743,Colour_Asymmetry_Pilot,2022.1.3,Win32,60.09615385,62c50e9c1127f2cd403a315f,0,104,104,23,1,fourthree,,,,,,,,,,,,,,,,,,,,,,,,,,,,,,,,,,,,,,,,,,,,,,,,,,,,,,,,,,,,,,,,,,,,,,,,,,,,,,,,,,,,,,,,,,,,,,,,,,,,,,,,,,,,,,,,,,,,,,,,,,,,,,,,,,,,,,,,,,,,,,,,,,,,,,,,,,,,,
,,,,,,5cb72e7625f45e0017c31287,62c53a05808438d282f10f03,2022-07-06_09h30.24.743,Colour_Asymmetry_Pilot,2022.1.3,Win32,60.09615385,62c50e9c1127f2cd403a315f,0,105,105,152,1,onetwo,,,,,,,,,,,,,,,,,,,,,,,,,,,,,,,,,,,,,,,,,,,,,,,,,,,,,,,,,,,,,,,,,,,,,,,,,,,,,,,,,,,,,,,,,,,,,,,,,,,,,,,,,,,,,,,,,,,,,,,,,,,,,,,,,,,,,,,,,,,,,,,,,,,,,,,,,,,,,
,,,,,,5cb72e7625f45e0017c31287,62c53a05808438d282f10f03,2022-07-06_09h30.24.743,Colour_Asymmetry_Pilot,2022.1.3,Win32,60.09615385,62c50e9c1127f2cd403a315f,0,106,106,49,1,onethree,,,,,,,,,,,,,,,,,,,,,,,,,,,,,,,,,,,,,,,,,,,,,,,,,,,,,,,,,,,,,,,,,,,,,,,,,,,,,,,,,,,,,,,,,,,,,,,,,,,,,,,,,,,,,,,,,,,,,,,,,,,,,,,,,,,,,,,,,,,,,,,,,,,,,,,,,,,,,
,,,,,,5cb72e7625f45e0017c31287,62c53a05808438d282f10f03,2022-07-06_09h30.24.743,Colour_Asymmetry_Pilot,2022.1.3,Win32,60.09615385,62c50e9c1127f2cd403a315f,0,107,107,96,1,onetwo,,,,,,,,,,,,,,,,,,,,,,,,,,,,,,,,,,,,,,,,,,,,,,,,,,,,,,,,,,,,,,,,,,,,,,,,,,,,,,,,,,,,,,,,,,,,,,,,,,,,,,,,,,,,,,,,,,,,,,,,,,,,,,,,,,,,,,,,,,,,,,,,,,,,,,,,,,,,,
,,,,,,5cb72e7625f45e0017c31287,62c53a05808438d282f10f03,2022-07-06_09h30.24.743,Colour_Asymmetry_Pilot,2022.1.3,Win32,60.09615385,62c50e9c1127f2cd403a315f,0,108,108,61,1,threefour,,,,,,,,,,,,,,,,,,,,,,,,,,,,,,,,,,,,,,,,,,,,,,,,,,,,,,,,,,,,,,,,,,,,,,,,,,,,,,,,,,,,,,,,,,,,,,,,,,,,,,,,,,,,,,,,,,,,,,,,,,,,,,,,,,,,,,,,,,,,,,,,,,,,,,,,,,,,,
,,,,,,5cb72e7625f45e0017c31287,62c53a05808438d282f10f03,2022-07-06_09h30.24.743,Colour_Asymmetry_Pilot,2022.1.3,Win32,60.09615385,62c50e9c1127f2cd403a315f,0,109,109,123,1,twofour,,,,,,,,,,,,,,,,,,,,,,,,,,,,,,,,,,,,,,,,,,,,,,,,,,,,,,,,,,,,,,,,,,,,,,,,,,,,,,,,,,,,,,,,,,,,,,,,,,,,,,,,,,,,,,,,,,,,,,,,,,,,,,,,,,,,,,,,,,,,,,,,,,,,,,,,,,,,,
,,,,,,5cb72e7625f45e0017c31287,62c53a05808438d282f10f03,2022-07-06_09h30.24.743,Colour_Asymmetry_Pilot,2022.1.3,Win32,60.09615385,62c50e9c1127f2cd403a315f,0,110,110,33,1,onethree,,,,,,,,,,,,,,,,,,,,,,,,,,,,,,,,,,,,,,,,,,,,,,,,,,,,,,,,,,,,,,,,,,,,,,,,,,,,,,,,,,,,,,,,,,,,,,,,,,,,,,,,,,,,,,,,,,,,,,,,,,,,,,,,,,,,,,,,,,,,,,,,,,,,,,,,,,,,,
,,,,,,5cb72e7625f45e0017c31287,62c53a05808438d282f10f03,2022-07-06_09h30.24.743,Colour_Asymmetry_Pilot,2022.1.3,Win32,60.09615385,62c50e9c1127f2cd403a315f,0,111,111,86,1,fourtwo,,,,,,,,,,,,,,,,,,,,,,,,,,,,,,,,,,,,,,,,,,,,,,,,,,,,,,,,,,,,,,,,,,,,,,,,,,,,,,,,,,,,,,,,,,,,,,,,,,,,,,,,,,,,,,,,,,,,,,,,,,,,,,,,,,,,,,,,,,,,,,,,,,,,,,,,,,,,,
,,,,,,5cb72e7625f45e0017c31287,62c53a05808438d282f10f03,2022-07-06_09h30.24.743,Colour_Asymmetry_Pilot,2022.1.3,Win32,60.09615385,62c50e9c1127f2cd403a315f,0,112,112,39,1,fourthree,,,,,,,,,,,,,,,,,,,,,,,,,,,,,,,,,,,,,,,,,,,,,,,,,,,,,,,,,,,,,,,,,,,,,,,,,,,,,,,,,,,,,,,,,,,,,,,,,,,,,,,,,,,,,,,,,,,,,,,,,,,,,,,,,,,,,,,,,,,,,,,,,,,,,,,,,,,,,
,,,,,,5cb72e7625f45e0017c31287,62c53a05808438d282f10f03,2022-07-06_09h30.24.743,Colour_Asymmetry_Pilot,2022.1.3,Win32,60.09615385,62c50e9c1127f2cd403a315f,0,113,113,35,1,twofour,,,,,,,,,,,,,,,,,,,,,,,,,,,,,,,,,,,,,,,,,,,,,,,,,,,,,,,,,,,,,,,,,,,,,,,,,,,,,,,,,,,,,,,,,,,,,,,,,,,,,,,,,,,,,,,,,,,,,,,,,,,,,,,,,,,,,,,,,,,,,,,,,,,,,,,,,,,,,
,,,,,,5cb72e7625f45e0017c31287,62c53a05808438d282f10f03,2022-07-06_09h30.24.743,Colour_Asymmetry_Pilot,2022.1.3,Win32,60.09615385,62c50e9c1127f2cd403a315f,0,114,114,22,1,fourtwo,,,,,,,,,,,,,,,,,,,,,,,,,,,,,,,,,,,,,,,,,,,,,,,,,,,,,,,,,,,,,,,,,,,,,,,,,,,,,,,,,,,,,,,,,,,,,,,,,,,,,,,,,,,,,,,,,,,,,,,,,,,,,,,,,,,,,,,,,,,,,,,,,,,,,,,,,,,,,
,,,,,,5cb72e7625f45e0017c31287,62c53a05808438d282f10f03,2022-07-06_09h30.24.743,Colour_Asymmetry_Pilot,2022.1.3,Win32,60.09615385,62c50e9c1127f2cd403a315f,0,115,115,108,1,threeone,,,,,,,,,,,,,,,,,,,,,,,,,,,,,,,,,,,,,,,,,,,,,,,,,,,,,,,,,,,,,,,,,,,,,,,,,,,,,,,,,,,,,,,,,,,,,,,,,,,,,,,,,,,,,,,,,,,,,,,,,,,,,,,,,,,,,,,,,,,,,,,,,,,,,,,,,,,,,
,,,,,,5cb72e7625f45e0017c31287,62c53a05808438d282f10f03,2022-07-06_09h30.24.743,Colour_Asymmetry_Pilot,2022.1.3,Win32,60.09615385,62c50e9c1127f2cd403a315f,0,116,116,64,1,onetwo,,,,,,,,,,,,,,,,,,,,,,,,,,,,,,,,,,,,,,,,,,,,,,,,,,,,,,,,,,,,,,,,,,,,,,,,,,,,,,,,,,,,,,,,,,,,,,,,,,,,,,,,,,,,,,,,,,,,,,,,,,,,,,,,,,,,,,,,,,,,,,,,,,,,,,,,,,,,,
,,,,,,5cb72e7625f45e0017c31287,62c53a05808438d282f10f03,2022-07-06_09h30.24.743,Colour_Asymmetry_Pilot,2022.1.3,Win32,60.09615385,62c50e9c1127f2cd403a315f,0,117,117,43,1,twofour,,,,,,,,,,,,,,,,,,,,,,,,,,,,,,,,,,,,,,,,,,,,,,,,,,,,,,,,,,,,,,,,,,,,,,,,,,,,,,,,,,,,,,,,,,,,,,,,,,,,,,,,,,,,,,,,,,,,,,,,,,,,,,,,,,,,,,,,,,,,,,,,,,,,,,,,,,,,,
,,,,,,5cb72e7625f45e0017c31287,62c53a05808438d282f10f03,2022-07-06_09h30.24.743,Colour_Asymmetry_Pilot,2022.1.3,Win32,60.09615385,62c50e9c1127f2cd403a315f,0,118,118,26,1,twoone,,,,,,,,,,,,,,,,,,,,,,,,,,,,,,,,,,,,,,,,,,,,,,,,,,,,,,,,,,,,,,,,,,,,,,,,,,,,,,,,,,,,,,,,,,,,,,,,,,,,,,,,,,,,,,,,,,,,,,,,,,,,,,,,,,,,,,,,,,,,,,,,,,,,,,,,,,,,,
,,,,,,5cb72e7625f45e0017c31287,62c53a05808438d282f10f03,2022-07-06_09h30.24.743,Colour_Asymmetry_Pilot,2022.1.3,Win32,60.09615385,62c50e9c1127f2cd403a315f,0,119,119,159,1,fourthree,,,,,,,,,,,,,,,,,,,,,,,,,,,,,,,,,,,,,,,,,,,,,,,,,,,,,,,,,,,,,,,,,,,,,,,,,,,,,,,,,,,,,,,,,,,,,,,,,,,,,,,,,,,,,,,,,,,,,,,,,,,,,,,,,,,,,,,,,,,,,,,,,,,,,,,,,,,,,
,,,,,,5cb72e7625f45e0017c31287,62c53a05808438d282f10f03,2022-07-06_09h30.24.743,Colour_Asymmetry_Pilot,2022.1.3,Win32,60.09615385,62c50e9c1127f2cd403a315f,0,120,120,132,1,threeone,,,,,,,,,,,,,,,,,,,,,,,,,,,,,,,,,,,,,,,,,,,,,,,,,,,,,,,,,,,,,,,,,,,,,,,,,,,,,,,,,,,,,,,,,,,,,,,,,,,,,,,,,,,,,,,,,,,,,,,,,,,,,,,,,,,,,,,,,,,,,,,,,,,,,,,,,,,,,
,,,,,,5cb72e7625f45e0017c31287,62c53a05808438d282f10f03,2022-07-06_09h30.24.743,Colour_Asymmetry_Pilot,2022.1.3,Win32,60.09615385,62c50e9c1127f2cd403a315f,0,121,121,48,1,onetwo,,,,,,,,,,,,,,,,,,,,,,,,,,,,,,,,,,,,,,,,,,,,,,,,,,,,,,,,,,,,,,,,,,,,,,,,,,,,,,,,,,,,,,,,,,,,,,,,,,,,,,,,,,,,,,,,,,,,,,,,,,,,,,,,,,,,,,,,,,,,,,,,,,,,,,,,,,,,,
,,,,,,5cb72e7625f45e0017c31287,62c53a05808438d282f10f03,2022-07-06_09h30.24.743,Colour_Asymmetry_Pilot,2022.1.3,Win32,60.09615385,62c50e9c1127f2cd403a315f,0,122,122,131,1,twofour,,,,,,,,,,,,,,,,,,,,,,,,,,,,,,,,,,,,,,,,,,,,,,,,,,,,,,,,,,,,,,,,,,,,,,,,,,,,,,,,,,,,,,,,,,,,,,,,,,,,,,,,,,,,,,,,,,,,,,,,,,,,,,,,,,,,,,,,,,,,,,,,,,,,,,,,,,,,,
,,,,,,5cb72e7625f45e0017c31287,62c53a05808438d282f10f03,2022-07-06_09h30.24.743,Colour_Asymmetry_Pilot,2022.1.3,Win32,60.09615385,62c50e9c1127f2cd403a315f,0,123,123,114,1,twoone,,,,,,,,,,,,,,,,,,,,,,,,,,,,,,,,,,,,,,,,,,,,,,,,,,,,,,,,,,,,,,,,,,,,,,,,,,,,,,,,,,,,,,,,,,,,,,,,,,,,,,,,,,,,,,,,,,,,,,,,,,,,,,,,,,,,,,,,,,,,,,,,,,,,,,,,,,,,,
,,,,,,5cb72e7625f45e0017c31287,62c53a05808438d282f10f03,2022-07-06_09h30.24.743,Colour_Asymmetry_Pilot,2022.1.3,Win32,60.09615385,62c50e9c1127f2cd403a315f,0,124,124,94,1,fourtwo,,,,,,,,,,,,,,,,,,,,,,,,,,,,,,,,,,,,,,,,,,,,,,,,,,,,,,,,,,,,,,,,,,,,,,,,,,,,,,,,,,,,,,,,,,,,,,,,,,,,,,,,,,,,,,,,,,,,,,,,,,,,,,,,,,,,,,,,,,,,,,,,,,,,,,,,,,,,,
,,,,,,5cb72e7625f45e0017c31287,62c53a05808438d282f10f03,2022-07-06_09h30.24.743,Colour_Asymmetry_Pilot,2022.1.3,Win32,60.09615385,62c50e9c1127f2cd403a315f,0,125,125,58,1,twoone,,,,,,,,,,,,,,,,,,,,,,,,,,,,,,,,,,,,,,,,,,,,,,,,,,,,,,,,,,,,,,,,,,,,,,,,,,,,,,,,,,,,,,,,,,,,,,,,,,,,,,,,,,,,,,,,,,,,,,,,,,,,,,,,,,,,,,,,,,,,,,,,,,,,,,,,,,,,,
,,,,,,5cb72e7625f45e0017c31287,62c53a05808438d282f10f03,2022-07-06_09h30.24.743,Colour_Asymmetry_Pilot,2022.1.3,Win32,60.09615385,62c50e9c1127f2cd403a315f,0,126,126,98,1,twoone,,,,,,,,,,,,,,,,,,,,,,,,,,,,,,,,,,,,,,,,,,,,,,,,,,,,,,,,,,,,,,,,,,,,,,,,,,,,,,,,,,,,,,,,,,,,,,,,,,,,,,,,,,,,,,,,,,,,,,,,,,,,,,,,,,,,,,,,,,,,,,,,,,,,,,,,,,,,,
,,,,,,5cb72e7625f45e0017c31287,62c53a05808438d282f10f03,2022-07-06_09h30.24.743,Colour_Asymmetry_Pilot,2022.1.3,Win32,60.09615385,62c50e9c1127f2cd403a315f,0,127,127,3,1,twofour,,,,,,,,,,,,,,,,,,,,,,,,,,,,,,,,,,,,,,,,,,,,,,,,,,,,,,,,,,,,,,,,,,,,,,,,,,,,,,,,,,,,,,,,,,,,,,,,,,,,,,,,,,,,,,,,,,,,,,,,,,,,,,,,,,,,,,,,,,,,,,,,,,,,,,,,,,,,,
,,,,,,5cb72e7625f45e0017c31287,62c53a05808438d282f10f03,2022-07-06_09h30.24.743,Colour_Asymmetry_Pilot,2022.1.3,Win32,60.09615385,62c50e9c1127f2cd403a315f,0,128,128,101,1,threefour,,,,,,,,,,,,,,,,,,,,,,,,,,,,,,,,,,,,,,,,,,,,,,,,,,,,,,,,,,,,,,,,,,,,,,,,,,,,,,,,,,,,,,,,,,,,,,,,,,,,,,,,,,,,,,,,,,,,,,,,,,,,,,,,,,,,,,,,,,,,,,,,,,,,,,,,,,,,,
,,,,,,5cb72e7625f45e0017c31287,62c53a05808438d282f10f03,2022-07-06_09h30.24.743,Colour_Asymmetry_Pilot,2022.1.3,Win32,60.09615385,62c50e9c1127f2cd403a315f,0,129,129,67,1,twofour,,,,,,,,,,,,,,,,,,,,,,,,,,,,,,,,,,,,,,,,,,,,,,,,,,,,,,,,,,,,,,,,,,,,,,,,,,,,,,,,,,,,,,,,,,,,,,,,,,,,,,,,,,,,,,,,,,,,,,,,,,,,,,,,,,,,,,,,,,,,,,,,,,,,,,,,,,,,,
,,,,,,5cb72e7625f45e0017c31287,62c53a05808438d282f10f03,2022-07-06_09h30.24.743,Colour_Asymmetry_Pilot,2022.1.3,Win32,60.09615385,62c50e9c1127f2cd403a315f,0,130,130,10,1,twoone,,,,,,,,,,,,,,,,,,,,,,,,,,,,,,,,,,,,,,,,,,,,,,,,,,,,,,,,,,,,,,,,,,,,,,,,,,,,,,,,,,,,,,,,,,,,,,,,,,,,,,,,,,,,,,,,,,,,,,,,,,,,,,,,,,,,,,,,,,,,,,,,,,,,,,,,,,,,,
,,,,,,5cb72e7625f45e0017c31287,62c53a05808438d282f10f03,2022-07-06_09h30.24.743,Colour_Asymmetry_Pilot,2022.1.3,Win32,60.09615385,62c50e9c1127f2cd403a315f,0,131,131,52,1,threeone,,,,,,,,,,,,,,,,,,,,,,,,,,,,,,,,,,,,,,,,,,,,,,,,,,,,,,,,,,,,,,,,,,,,,,,,,,,,,,,,,,,,,,,,,,,,,,,,,,,,,,,,,,,,,,,,,,,,,,,,,,,,,,,,,,,,,,,,,,,,,,,,,,,,,,,,,,,,,
,,,,,,5cb72e7625f45e0017c31287,62c53a05808438d282f10f03,2022-07-06_09h30.24.743,Colour_Asymmetry_Pilot,2022.1.3,Win32,60.09615385,62c50e9c1127f2cd403a315f,0,132,132,41,1,onethree,,,,,,,,,,,,,,,,,,,,,,,,,,,,,,,,,,,,,,,,,,,,,,,,,,,,,,,,,,,,,,,,,,,,,,,,,,,,,,,,,,,,,,,,,,,,,,,,,,,,,,,,,,,,,,,,,,,,,,,,,,,,,,,,,,,,,,,,,,,,,,,,,,,,,,,,,,,,,
,,,,,,5cb72e7625f45e0017c31287,62c53a05808438d282f10f03,2022-07-06_09h30.24.743,Colour_Asymmetry_Pilot,2022.1.3,Win32,60.09615385,62c50e9c1127f2cd403a315f,0,133,133,156,1,threeone,,,,,,,,,,,,,,,,,,,,,,,,,,,,,,,,,,,,,,,,,,,,,,,,,,,,,,,,,,,,,,,,,,,,,,,,,,,,,,,,,,,,,,,,,,,,,,,,,,,,,,,,,,,,,,,,,,,,,,,,,,,,,,,,,,,,,,,,,,,,,,,,,,,,,,,,,,,,,
,,,,,,5cb72e7625f45e0017c31287,62c53a05808438d282f10f03,2022-07-06_09h30.24.743,Colour_Asymmetry_Pilot,2022.1.3,Win32,60.09615385,62c50e9c1127f2cd403a315f,0,134,134,4,1,threeone,,,,,,,,,,,,,,,,,,,,,,,,,,,,,,,,,,,,,,,,,,,,,,,,,,,,,,,,,,,,,,,,,,,,,,,,,,,,,,,,,,,,,,,,,,,,,,,,,,,,,,,,,,,,,,,,,,,,,,,,,,,,,,,,,,,,,,,,,,,,,,,,,,,,,,,,,,,,,
,,,,,,5cb72e7625f45e0017c31287,62c53a05808438d282f10f03,2022-07-06_09h30.24.743,Colour_Asymmetry_Pilot,2022.1.3,Win32,60.09615385,62c50e9c1127f2cd403a315f,0,135,135,85,1,threefour,,,,,,,,,,,,,,,,,,,,,,,,,,,,,,,,,,,,,,,,,,,,,,,,,,,,,,,,,,,,,,,,,,,,,,,,,,,,,,,,,,,,,,,,,,,,,,,,,,,,,,,,,,,,,,,,,,,,,,,,,,,,,,,,,,,,,,,,,,,,,,,,,,,,,,,,,,,,,
,,,,,,5cb72e7625f45e0017c31287,62c53a05808438d282f10f03,2022-07-06_09h30.24.743,Colour_Asymmetry_Pilot,2022.1.3,Win32,60.09615385,62c50e9c1127f2cd403a315f,0,136,136,84,1,threeone,,,,,,,,,,,,,,,,,,,,,,,,,,,,,,,,,,,,,,,,,,,,,,,,,,,,,,,,,,,,,,,,,,,,,,,,,,,,,,,,,,,,,,,,,,,,,,,,,,,,,,,,,,,,,,,,,,,,,,,,,,,,,,,,,,,,,,,,,,,,,,,,,,,,,,,,,,,,,
,,,,,,5cb72e7625f45e0017c31287,62c53a05808438d282f10f03,2022-07-06_09h30.24.743,Colour_Asymmetry_Pilot,2022.1.3,Win32,60.09615385,62c50e9c1127f2cd403a315f,0,137,137,151,1,fourthree,,,,,,,,,,,,,,,,,,,,,,,,,,,,,,,,,,,,,,,,,,,,,,,,,,,,,,,,,,,,,,,,,,,,,,,,,,,,,,,,,,,,,,,,,,,,,,,,,,,,,,,,,,,,,,,,,,,,,,,,,,,,,,,,,,,,,,,,,,,,,,,,,,,,,,,,,,,,,
,,,,,,5cb72e7625f45e0017c31287,62c53a05808438d282f10f03,2022-07-06_09h30.24.743,Colour_Asymmetry_Pilot,2022.1.3,Win32,60.09615385,62c50e9c1127f2cd403a315f,0,138,138,24,1,onetwo,,,,,,,,,,,,,,,,,,,,,,,,,,,,,,,,,,,,,,,,,,,,,,,,,,,,,,,,,,,,,,,,,,,,,,,,,,,,,,,,,,,,,,,,,,,,,,,,,,,,,,,,,,,,,,,,,,,,,,,,,,,,,,,,,,,,,,,,,,,,,,,,,,,,,,,,,,,,,
,,,,,,5cb72e7625f45e0017c31287,62c53a05808438d282f10f03,2022-07-06_09h30.24.743,Colour_Asymmetry_Pilot,2022.1.3,Win32,60.09615385,62c50e9c1127f2cd403a315f,0,139,139,25,1,onethree,,,,,,,,,,,,,,,,,,,,,,,,,,,,,,,,,,,,,,,,,,,,,,,,,,,,,,,,,,,,,,,,,,,,,,,,,,,,,,,,,,,,,,,,,,,,,,,,,,,,,,,,,,,,,,,,,,,,,,,,,,,,,,,,,,,,,,,,,,,,,,,,,,,,,,,,,,,,,
,,,,,,5cb72e7625f45e0017c31287,62c53a05808438d282f10f03,2022-07-06_09h30.24.743,Colour_Asymmetry_Pilot,2022.1.3,Win32,60.09615385,62c50e9c1127f2cd403a315f,0,140,140,17,1,onethree,,,,,,,,,,,,,,,,,,,,,,,,,,,,,,,,,,,,,,,,,,,,,,,,,,,,,,,,,,,,,,,,,,,,,,,,,,,,,,,,,,,,,,,,,,,,,,,,,,,,,,,,,,,,,,,,,,,,,,,,,,,,,,,,,,,,,,,,,,,,,,,,,,,,,,,,,,,,,
,,,,,,5cb72e7625f45e0017c31287,62c53a05808438d282f10f03,2022-07-06_09h30.24.743,Colour_Asymmetry_Pilot,2022.1.3,Win32,60.09615385,62c50e9c1127f2cd403a315f,0,141,141,63,1,fourthree,,,,,,,,,,,,,,,,,,,,,,,,,,,,,,,,,,,,,,,,,,,,,,,,,,,,,,,,,,,,,,,,,,,,,,,,,,,,,,,,,,,,,,,,,,,,,,,,,,,,,,,,,,,,,,,,,,,,,,,,,,,,,,,,,,,,,,,,,,,,,,,,,,,,,,,,,,,,,
,,,,,,5cb72e7625f45e0017c31287,62c53a05808438d282f10f03,2022-07-06_09h30.24.743,Colour_Asymmetry_Pilot,2022.1.3,Win32,60.09615385,62c50e9c1127f2cd403a315f,0,142,142,27,1,twofour,,,,,,,,,,,,,,,,,,,,,,,,,,,,,,,,,,,,,,,,,,,,,,,,,,,,,,,,,,,,,,,,,,,,,,,,,,,,,,,,,,,,,,,,,,,,,,,,,,,,,,,,,,,,,,,,,,,,,,,,,,,,,,,,,,,,,,,,,,,,,,,,,,,,,,,,,,,,,
,,,,,,5cb72e7625f45e0017c31287,62c53a05808438d282f10f03,2022-07-06_09h30.24.743,Colour_Asymmetry_Pilot,2022.1.3,Win32,60.09615385,62c50e9c1127f2cd403a315f,0,143,143,65,1,onethree,,,,,,,,,,,,,,,,,,,,,,,,,,,,,,,,,,,,,,,,,,,,,,,,,,,,,,,,,,,,,,,,,,,,,,,,,,,,,,,,,,,,,,,,,,,,,,,,,,,,,,,,,,,,,,,,,,,,,,,,,,,,,,,,,,,,,,,,,,,,,,,,,,,,,,,,,,,,,
,,,,,,5cb72e7625f45e0017c31287,62c53a05808438d282f10f03,2022-07-06_09h30.24.743,Colour_Asymmetry_Pilot,2022.1.3,Win32,60.09615385,62c50e9c1127f2cd403a315f,0,144,144,104,1,onetwo,,,,,,,,,,,,,,,,,,,,,,,,,,,,,,,,,,,,,,,,,,,,,,,,,,,,,,,,,,,,,,,,,,,,,,,,,,,,,,,,,,,,,,,,,,,,,,,,,,,,,,,,,,,,,,,,,,,,,,,,,,,,,,,,,,,,,,,,,,,,,,,,,,,,,,,,,,,,,
,,,,,,5cb72e7625f45e0017c31287,62c53a05808438d282f10f03,2022-07-06_09h30.24.743,Colour_Asymmetry_Pilot,2022.1.3,Win32,60.09615385,62c50e9c1127f2cd403a315f,0,145,145,72,1,onetwo,,,,,,,,,,,,,,,,,,,,,,,,,,,,,,,,,,,,,,,,,,,,,,,,,,,,,,,,,,,,,,,,,,,,,,,,,,,,,,,,,,,,,,,,,,,,,,,,,,,,,,,,,,,,,,,,,,,,,,,,,,,,,,,,,,,,,,,,,,,,,,,,,,,,,,,,,,,,,
,,,,,,5cb72e7625f45e0017c31287,62c53a05808438d282f10f03,2022-07-06_09h30.24.743,Colour_Asymmetry_Pilot,2022.1.3,Win32,60.09615385,62c50e9c1127f2cd403a315f,0,146,146,77,1,threefour,,,,,,,,,,,,,,,,,,,,,,,,,,,,,,,,,,,,,,,,,,,,,,,,,,,,,,,,,,,,,,,,,,,,,,,,,,,,,,,,,,,,,,,,,,,,,,,,,,,,,,,,,,,,,,,,,,,,,,,,,,,,,,,,,,,,,,,,,,,,,,,,,,,,,,,,,,,,,
,,,,,,5cb72e7625f45e0017c31287,62c53a05808438d282f10f03,2022-07-06_09h30.24.743,Colour_Asymmetry_Pilot,2022.1.3,Win32,60.09615385,62c50e9c1127f2cd403a315f,0,147,147,57,1,onethree,,,,,,,,,,,,,,,,,,,,,,,,,,,,,,,,,,,,,,,,,,,,,,,,,,,,,,,,,,,,,,,,,,,,,,,,,,,,,,,,,,,,,,,,,,,,,,,,,,,,,,,,,,,,,,,,,,,,,,,,,,,,,,,,,,,,,,,,,,,,,,,,,,,,,,,,,,,,,
,,,,,,5cb72e7625f45e0017c31287,62c53a05808438d282f10f03,2022-07-06_09h30.24.743,Colour_Asymmetry_Pilot,2022.1.3,Win32,60.09615385,62c50e9c1127f2cd403a315f,0,148,148,126,1,fourtwo,,,,,,,,,,,,,,,,,,,,,,,,,,,,,,,,,,,,,,,,,,,,,,,,,,,,,,,,,,,,,,,,,,,,,,,,,,,,,,,,,,,,,,,,,,,,,,,,,,,,,,,,,,,,,,,,,,,,,,,,,,,,,,,,,,,,,,,,,,,,,,,,,,,,,,,,,,,,,
,,,,,,5cb72e7625f45e0017c31287,62c53a05808438d282f10f03,2022-07-06_09h30.24.743,Colour_Asymmetry_Pilot,2022.1.3,Win32,60.09615385,62c50e9c1127f2cd403a315f,0,149,149,21,1,threefour,,,,,,,,,,,,,,,,,,,,,,,,,,,,,,,,,,,,,,,,,,,,,,,,,,,,,,,,,,,,,,,,,,,,,,,,,,,,,,,,,,,,,,,,,,,,,,,,,,,,,,,,,,,,,,,,,,,,,,,,,,,,,,,,,,,,,,,,,,,,,,,,,,,,,,,,,,,,,
,,,,,,5cb72e7625f45e0017c31287,62c53a05808438d282f10f03,2022-07-06_09h30.24.743,Colour_Asymmetry_Pilot,2022.1.3,Win32,60.09615385,62c50e9c1127f2cd403a315f,0,150,150,139,1,twofour,,,,,,,,,,,,,,,,,,,,,,,,,,,,,,,,,,,,,,,,,,,,,,,,,,,,,,,,,,,,,,,,,,,,,,,,,,,,,,,,,,,,,,,,,,,,,,,,,,,,,,,,,,,,,,,,,,,,,,,,,,,,,,,,,,,,,,,,,,,,,,,,,,,,,,,,,,,,,
,,,,,,5cb72e7625f45e0017c31287,62c53a05808438d282f10f03,2022-07-06_09h30.24.743,Colour_Asymmetry_Pilot,2022.1.3,Win32,60.09615385,62c50e9c1127f2cd403a315f,0,151,151,74,1,twoone,,,,,,,,,,,,,,,,,,,,,,,,,,,,,,,,,,,,,,,,,,,,,,,,,,,,,,,,,,,,,,,,,,,,,,,,,,,,,,,,,,,,,,,,,,,,,,,,,,,,,,,,,,,,,,,,,,,,,,,,,,,,,,,,,,,,,,,,,,,,,,,,,,,,,,,,,,,,,
,,,,,,5cb72e7625f45e0017c31287,62c53a05808438d282f10f03,2022-07-06_09h30.24.743,Colour_Asymmetry_Pilot,2022.1.3,Win32,60.09615385,62c50e9c1127f2cd403a315f,0,152,152,110,1,fourtwo,,,,,,,,,,,,,,,,,,,,,,,,,,,,,,,,,,,,,,,,,,,,,,,,,,,,,,,,,,,,,,,,,,,,,,,,,,,,,,,,,,,,,,,,,,,,,,,,,,,,,,,,,,,,,,,,,,,,,,,,,,,,,,,,,,,,,,,,,,,,,,,,,,,,,,,,,,,,,
,,,,,,5cb72e7625f45e0017c31287,62c53a05808438d282f10f03,2022-07-06_09h30.24.743,Colour_Asymmetry_Pilot,2022.1.3,Win32,60.09615385,62c50e9c1127f2cd403a315f,0,153,153,92,1,threeone,,,,,,,,,,,,,,,,,,,,,,,,,,,,,,,,,,,,,,,,,,,,,,,,,,,,,,,,,,,,,,,,,,,,,,,,,,,,,,,,,,,,,,,,,,,,,,,,,,,,,,,,,,,,,,,,,,,,,,,,,,,,,,,,,,,,,,,,,,,,,,,,,,,,,,,,,,,,,
,,,,,,5cb72e7625f45e0017c31287,62c53a05808438d282f10f03,2022-07-06_09h30.24.743,Colour_Asymmetry_Pilot,2022.1.3,Win32,60.09615385,62c50e9c1127f2cd403a315f,0,154,154,160,1,onetwo,,,,,,,,,,,,,,,,,,,,,,,,,,,,,,,,,,,,,,,,,,,,,,,,,,,,,,,,,,,,,,,,,,,,,,,,,,,,,,,,,,,,,,,,,,,,,,,,,,,,,,,,,,,,,,,,,,,,,,,,,,,,,,,,,,,,,,,,,,,,,,,,,,,,,,,,,,,,,
,,,,,,5cb72e7625f45e0017c31287,62c53a05808438d282f10f03,2022-07-06_09h30.24.743,Colour_Asymmetry_Pilot,2022.1.3,Win32,60.09615385,62c50e9c1127f2cd403a315f,0,155,155,161,1,onethree,,,,,,,,,,,,,,,,,,,,,,,,,,,,,,,,,,,,,,,,,,,,,,,,,,,,,,,,,,,,,,,,,,,,,,,,,,,,,,,,,,,,,,,,,,,,,,,,,,,,,,,,,,,,,,,,,,,,,,,,,,,,,,,,,,,,,,,,,,,,,,,,,,,,,,,,,,,,,
,,,,,,5cb72e7625f45e0017c31287,62c53a05808438d282f10f03,2022-07-06_09h30.24.743,Colour_Asymmetry_Pilot,2022.1.3,Win32,60.09615385,62c50e9c1127f2cd403a315f,0,156,156,130,1,twoone,,,,,,,,,,,,,,,,,,,,,,,,,,,,,,,,,,,,,,,,,,,,,,,,,,,,,,,,,,,,,,,,,,,,,,,,,,,,,,,,,,,,,,,,,,,,,,,,,,,,,,,,,,,,,,,,,,,,,,,,,,,,,,,,,,,,,,,,,,,,,,,,,,,,,,,,,,,,,
,,,,,,5cb72e7625f45e0017c31287,62c53a05808438d282f10f03,2022-07-06_09h30.24.743,Colour_Asymmetry_Pilot,2022.1.3,Win32,60.09615385,62c50e9c1127f2cd403a315f,0,157,157,135,1,fourthree,,,,,,,,,,,,,,,,,,,,,,,,,,,,,,,,,,,,,,,,,,,,,,,,,,,,,,,,,,,,,,,,,,,,,,,,,,,,,,,,,,,,,,,,,,,,,,,,,,,,,,,,,,,,,,,,,,,,,,,,,,,,,,,,,,,,,,,,,,,,,,,,,,,,,,,,,,,,,
,,,,,,5cb72e7625f45e0017c31287,62c53a05808438d282f10f03,2022-07-06_09h30.24.743,Colour_Asymmetry_Pilot,2022.1.3,Win32,60.09615385,62c50e9c1127f2cd403a315f,0,158,158,111,1,fourthree,,,,,,,,,,,,,,,,,,,,,,,,,,,,,,,,,,,,,,,,,,,,,,,,,,,,,,,,,,,,,,,,,,,,,,,,,,,,,,,,,,,,,,,,,,,,,,,,,,,,,,,,,,,,,,,,,,,,,,,,,,,,,,,,,,,,,,,,,,,,,,,,,,,,,,,,,,,,,
,,,,,,5cb72e7625f45e0017c31287,62c53a05808438d282f10f03,2022-07-06_09h30.24.743,Colour_Asymmetry_Pilot,2022.1.3,Win32,60.09615385,62c50e9c1127f2cd403a315f,0,159,159,91,1,twofour,,,,,,,,,,,,,,,,,,,,,,,,,,,,,,,,,,,,,,,,,,,,,,,,,,,,,,,,,,,,,,,,,,,,,,,,,,,,,,,,,,,,,,,,,,,,,,,,,,,,,,,,,,,,,,,,,,,,,,,,,,,,,,,,,,,,,,,,,,,,,,,,,,,,,,,,,,,,,
,,,,,,5cb72e7625f45e0017c31287,62c53a05808438d282f10f03,2022-07-06_09h30.24.743,Colour_Asymmetry_Pilot,2022.1.3,Win32,60.09615385,62c50e9c1127f2cd403a315f,0,160,160,51,1,twofour,,,,,,,,,,,,,,,,,,,,,,,,,,,,,,,,,,,,,,,,,,,,,,,,,,,,,,,,,,,,,,,,,,,,,,,,,,,,,,,,,,,,,,,,,,,,,,,,,,,,,,,,,,,,,,,,,,,,,,,,,,,,,,,,,,,,,,,,,,,,,,,,,,,,,,,,,,,,,
,,,,,,5cb72e7625f45e0017c31287,62c53a05808438d282f10f03,2022-07-06_09h30.24.743,Colour_Asymmetry_Pilot,2022.1.3,Win32,60.09615385,62c50e9c1127f2cd403a315f,0,161,161,95,1,fourthree,,,,,,,,,,,,,,,,,,,,,,,,,,,,,,,,,,,,,,,,,,,,,,,,,,,,,,,,,,,,,,,,,,,,,,,,,,,,,,,,,,,,,,,,,,,,,,,,,,,,,,,,,,,,,,,,,,,,,,,,,,,,,,,,,,,,,,,,,,,,,,,,,,,,,,,,,,,,,
,,,,,,5cb72e7625f45e0017c31287,62c53a05808438d282f10f03,2022-07-06_09h30.24.743,Colour_Asymmetry_Pilot,2022.1.3,Win32,60.09615385,62c50e9c1127f2cd403a315f,,,,,,,space,10.238,space,32.953,space,110.6,space,9.995,space,4.463,space,16.016,"[-0.050999999999999934,-0.6706000000000001,-0.804]",twoone,"[-0.8118,-0.8198,-0.5452]",-1,8.478,-94,-106,1,0,0,response5disk_5,-2,1,1,0,0,rectangle_8,-2,1,1,0,0,3,-2,1,1,0,0,0,0,0,0,1,,,,,,,,,,,,,,,,,,,,,,,,,,,,,,,,,,,,,,,,,,,,,,,,,,,,,,,,,,,,,,,,,,,,,,,,,,,,,,,,,,,,,,,,,,,,,,,,,,,,,,,,,,,,,,,,
,,,,,,5cb72e7625f45e0017c31287,62c53a05808438d282f10f03,2022-07-06_09h30.24.743,Colour_Asymmetry_Pilot,2022.1.3,Win32,60.09615385,62c50e9c1127f2cd403a315f,,,,,,,,,,,,,,,,,,,"[-0.4982,-0.2942,-0.0354000000000001]",twoone,"[0.9372,0.20779999999999998,0.2704]",-3,4.482,-113,39,1,0,0,response7disk_5,-5,4,1,0,0,rectangle_8,-5,4,1,0,0,3,-5,4,1,0,0,1,0,1,0,1,,,,,,,,,,,,,,,,,,,,,,,,,,,,,,,,,,,,,,,,,,,,,,,,,,,,,,,,,,,,,,,,,,,,,,,,,,,,,,,,,,,,,,,,,,,,,,,,,,,,,,,,,,,,,,,,
,,,,,,5cb72e7625f45e0017c31287,62c53a05808438d282f10f03,2022-07-06_09h30.24.743,Colour_Asymmetry_Pilot,2022.1.3,Win32,60.09615385,62c50e9c1127f2cd403a315f,,,,,,,,,,,,,,,,,,,"[-0.01980000000000004,-0.5138,-0.38039999999999996]",twofour,"[0.3881999999999999,-0.23939999999999995,-0.05040000000000011]",2,7.542,103,-43,1,0,0,response3disk_5,7,-4,1,0,0,rectangle_8,7,-4,1,0,0,3,7,-4,1,0,0,2,0,2,0,1,,,,,,,,,,,,,,,,,,,,,,,,,,,,,,,,,,,,,,,,,,,,,,,,,,,,,,,,,,,,,,,,,,,,,,,,,,,,,,,,,,,,,,,,,,,,,,,,,,,,,,,,,,,,,,,,
,,,,,,5cb72e7625f45e0017c31287,62c53a05808438d282f10f03,2022-07-06_09h30.24.743,Colour_Asymmetry_Pilot,2022.1.3,Win32,60.09615385,62c50e9c1127f2cd403a315f,,,,,,,,,,,,,,,,,,,"[-0.45899999999999996,-0.3256,-0.9374]",fourtwo,"[0.40379999999999994,0.09000000000000008,0.44300000000000006]",-1,2.831,-64,-108,1,0,0,response5disk_5,14,-1,1,0,0,rectangle_8,14,-1,1,0,0,3,14,-1,1,0,0,3,0,3,0,1,,,,,,,,,,,,,,,,,,,,,,,,,,,,,,,,,,,,,,,,,,,,,,,,,,,,,,,,,,,,,,,,,,,,,,,,,,,,,,,,,,,,,,,,,,,,,,,,,,,,,,,,,,,,,,,,
,,,,,,5cb72e7625f45e0017c31287,62c53a05808438d282f10f03,2022-07-06_09h30.24.743,Colour_Asymmetry_Pilot,2022.1.3,Win32,60.09615385,62c50e9c1127f2cd403a315f,,,,,,,,,,,,,,,,,,,"[0.23920000000000008,0.2704,0.16060000000000008]",fourtwo,"[-0.6706000000000001,-0.6157999999999999,-0.6786]",-4,2.414,-18,75,1,0,0,response7disk_5,7,-1,1,0,0,rectangle_8,110,34,1,0,0,3,16,5,1,0,0,4,0,4,0,1,response1disk_7,6,rectangle_4,,,,,,,,,,,,,,,,,,,,,,,,,,,,,,,,,,,,,,,,,,,,,,,,,,,,,,,,,,,,,,,,,,,,,,,,,,,,,,,,,,,,,,,,,,,,,,,,,,,,,,,,,,,,,
,,,,,,5cb72e7625f45e0017c31287,62c53a05808438d282f10f03,2022-07-06_09h30.24.743,Colour_Asymmetry_Pilot,2022.1.3,Win32,60.09615385,62c50e9c1127f2cd403a315f,,,,,,,,,,,,,,,,,,,"[-0.7412000000000001,-0.08239999999999992,-0.6864]",onethree,"[-0.01980000000000004,-0.5138,-0.38039999999999996]",-2,3.431,-97,-58,1,0,0,response5disk_5,4,-2,1,0,0,rectangle_8,4,-2,1,0,0,3,4,-2,1,0,0,5,0,5,0,1,,,,,,,,,,,,,,,,,,,,,,,,,,,,,,,,,,,,,,,,,,,,,,,,,,,,,,,,,,,,,,,,,,,,,,,,,,,,,,,,,,,,,,,,,,,,,,,,,,,,,,,,,,,,,,,,
,,,,,,5cb72e7625f45e0017c31287,62c53a05808438d282f10f03,2022-07-06_09h30.24.743,Colour_Asymmetry_Pilot,2022.1.3,Win32,60.09615385,62c50e9c1127f2cd403a315f,,,,,,,,,,,,,,,,,,,"[0.19199999999999995,0.18419999999999992,0.5136000000000001]",threefour,"[-0.011800000000000033,-0.906,-0.45100000000000007]",-2,1.915,-70,-42,1,0,0,response5disk_5,-24,-2,1,0,0,rectangle_8,-24,-2,1,0,0,3,-24,-2,1,0,0,6,0,6,0,1,,,,,,,,,,,,,,,,,,,,,,,,,,,,,,,,,,,,,,,,,,,,,,,,,,,,,,,,,,,,,,,,,,,,,,,,,,,,,,,,,,,,,,,,,,,,,,,,,,,,,,,,,,,,,,,,
,,,,,,5cb72e7625f45e0017c31287,62c53a05808438d282f10f03,2022-07-06_09h30.24.743,Colour_Asymmetry_Pilot,2022.1.3,Win32,60.09615385,62c50e9c1127f2cd403a315f,,,,,,,,,,,,,,,,,,,,fourthree,,-2,3.848,,,,,,,,,,,,,,,,,,,,,,,,,,,,,,,,space,11.315,"[-0.17659999999999998,-0.2864,-0.8354]","[0.12939999999999996,-0.2864,0.3253999999999999]",-82,-62,1,0,0,response5disk,25,2,0,0,1,rectangle,25,2,0,0,1,,1,0.001,0,25,2,0,0,1,0,0,0,151,1,70,second,,,,,,,,,,,,,,,,,,,,,,,,,,,,,,,,,,,,,,,,,,,,,,,,,,,,,,,,,,,,,,,,,,,,,,,,
,,,,,,5cb72e7625f45e0017c31287,62c53a05808438d282f10f03,2022-07-06_09h30.24.743,Colour_Asymmetry_Pilot,2022.1.3,Win32,60.09615385,62c50e9c1127f2cd403a315f,,,,,,,,,,,,,,,,,,,,threeone,,-1,0.232,,,,,,,,,,,,,,,,,,,,,,,,,,,,,,,,,,"[0.05879999999999996,0.2784,0.5841999999999998]","[0.37240000000000006,0.4980000000000002,-0.2864]",-73,-75,1,0,0,response5disk,10,2,1,0,0,rectangle,10,2,1,0,0,,3,0,0,10,2,1,0,0,0,1,1,152,1,71,second,,,,,,,,,,,,,,,,,,,,,,,,,,,,,,,,,,,,,,,,,,,,,,,,,,,,,,,,,,,,,,,,,,,,,,,,
,,,,,,5cb72e7625f45e0017c31287,62c53a05808438d282f10f03,2022-07-06_09h30.24.743,Colour_Asymmetry_Pilot,2022.1.3,Win32,60.09615385,62c50e9c1127f2cd403a315f,,,,,,,,,,,,,,,,,,,,threefour,,-1,2.047,,,,,,,,,,,,,,,,,,,,,,,,,,,,,,,,,,"[-0.9766,-0.6472,0.07440000000000002]","[-0.26280000000000003,-0.2158,-0.3256]",-42,-66,1,0,0,response5disk,1,-2,1,0,0,rectangle,118,-39,1,0,0,2,2,2.096,1,17,-3,1,0,0,0,2,2,55,1,55,first,response3disk_3,rectangle,,,,,,,,,,,,,,,,,,,,,,,,,,,,,,,,,,,,,,,,,,,,,,,,,,,,,,,,,,,,,,,,,,,,,,
,,,,,,5cb72e7625f45e0017c31287,62c53a05808438d282f10f03,2022-07-06_09h30.24.743,Colour_Asymmetry_Pilot,2022.1.3,Win32,60.09615385,62c50e9c1127f2cd403a315f,,,,,,,,,,,,,,,,,,,,onethree,,2,10.277,,,,,,,,,,,,,,,,,,,,,,,,,,,,,,,,,,"[-0.06680000000000008,-0.45100000000000007,-0.906]","[-0.4982,-0.2942,-0.0354000000000001]",87,-39,1,0,0,response3disk,4,1,1,0,0,rectangle,4,1,1,0,0,2,1,0.001,0,4,1,1,0,0,0,3,3,48,1,48,first,,,,,,,,,,,,,,,,,,,,,,,,,,,,,,,,,,,,,,,,,,,,,,,,,,,,,,,,,,,,,,,,,,,,,,,,
,,,,,,5cb72e7625f45e0017c31287,62c53a05808438d282f10f03,2022-07-06_09h30.24.743,Colour_Asymmetry_Pilot,2022.1.3,Win32,60.09615385,62c50e9c1127f2cd403a315f,,,,,,,,,,,,,,,,,,,,twofour,,-1,7.028,,,,,,,,,,,,,,,,,,,,,,,,,,,,,,,,,,"[-0.17659999999999998,-0.2864,-0.8354]","[-0.9296,-0.12959999999999994,-0.043199999999999905]",-24,-82,1,0,0,response5disk,10,-1,1,0,0,rectangle,10,-1,1,0,0,2,3,0.003,0,10,-1,1,0,0,0,4,4,112,1,31,second,,,,,,,,,,,,,,,,,,,,,,,,,,,,,,,,,,,,,,,,,,,,,,,,,,,,,,,,,,,,,,,,,,,,,,,,
,,,,,,5cb72e7625f45e0017c31287,62c53a05808438d282f10f03,2022-07-06_09h30.24.743,Colour_Asymmetry_Pilot,2022.1.3,Win32,60.09615385,62c50e9c1127f2cd403a315f,,,,,,,,,,,,,,,,,,,,threefour,,-1,0.799,,,,,,,,,,,,,,,,,,,,,,,,,,,,,,,,,,"[-0.6942,-0.7648,-0.12959999999999994]","[0.2862,0.7802,0.3568]",-42,-70,1,0,0,response5disk,2,-4,1,0,0,rectangle,2,-4,1,0,0,2,2,0.002,0,2,-4,1,0,0,0,5,5,116,1,35,second,,,,,,,,,,,,,,,,,,,,,,,,,,,,,,,,,,,,,,,,,,,,,,,,,,,,,,,,,,,,,,,,,,,,,,,,
,,,,,,5cb72e7625f45e0017c31287,62c53a05808438d282f10f03,2022-07-06_09h30.24.743,Colour_Asymmetry_Pilot,2022.1.3,Win32,60.09615385,62c50e9c1127f2cd403a315f,,,,,,,,,,,,,,,,,,,,threefour,,2,1.866,,,,,,,,,,,,,,,,,,,,,,,,,,,,,,,,,,"[0.9686000000000001,0.3802000000000001,0.19999999999999996]","[0.8274000000000001,-0.5844,-0.9452]",86,-40,1,0,0,response3disk,17,-1,1,0,0,rectangle,17,-1,1,0,0,2,2,0,0,17,-1,1,0,0,0,6,6,140,1,59,second,,,,,,,,,,,,,,,,,,,,,,,,,,,,,,,,,,,,,,,,,,,,,,,,,,,,,,,,,,,,,,,,,,,,,,,,
,,,,,,5cb72e7625f45e0017c31287,62c53a05808438d282f10f03,2022-07-06_09h30.24.743,Colour_Asymmetry_Pilot,2022.1.3,Win32,60.09615385,62c50e9c1127f2cd403a315f,,,,,,,,,,,,,,,,,,,,threefour,,-1,1.382,,,,,,,,,,,,,,,,,,,,,,,,,,,,,,,,,,"[0.7802,-0.23140000000000005,-0.20799999999999996]","[0.9763999999999999,0.8588,-0.05900000000000005]",-31,-91,1,0,0,response5disk,-10,-9,1,0,0,rectangle,-10,-9,1,0,0,2,3,0.001,0,-10,-9,1,0,0,0,7,7,87,1,6,second,,,,,,,,,,,,,,,,,,,,,,,,,,,,,,,,,,,,,,,,,,,,,,,,,,,,,,,,,,,,,,,,,,,,,,,,
,,,,,,5cb72e7625f45e0017c31287,62c53a05808438d282f10f03,2022-07-06_09h30.24.743,Colour_Asymmetry_Pilot,2022.1.3,Win32,60.09615385,62c50e9c1127f2cd403a315f,,,,,,,,,,,,,,,,,,,,onetwo,,-1,1.732,,,,,,,,,,,,,,,,,,,,,,,,,,,,,,,,,,"[-0.8982,-0.37259999999999993,0.2784]","[0.40379999999999994,0.09000000000000008,0.44300000000000006]",-24,-88,1,0,0,response5disk,-6,2,1,0,0,rectangle,-6,2,1,0,0,2,3,0,0,-6,2,1,0,0,0,8,8,18,1,18,first,,,,,,,,,,,,,,,,,,,,,,,,,,,,,,,,,,,,,,,,,,,,,,,,,,,,,,,,,,,,,,,,,,,,,,,,
,,,,,,5cb72e7625f45e0017c31287,62c53a05808438d282f10f03,2022-07-06_09h30.24.743,Colour_Asymmetry_Pilot,2022.1.3,Win32,60.09615385,62c50e9c1127f2cd403a315f,,,,,,,,,,,,,,,,,,,,threefour,,4,1.266,,,,,,,,,,,,,,,,,,,,,,,,,,,,,,,,,,"[0.3802000000000001,0.19199999999999995,-0.6394]","[0.34099999999999997,0.12939999999999996,-0.9766]",42,78,1,0,0,response1disk,2,3,1,0,0,rectangle,2,3,1,0,0,2,1,0.002,0,2,3,1,0,0,0,9,9,5,1,5,first,,,,,,,,,,,,,,,,,,,,,,,,,,,,,,,,,,,,,,,,,,,,,,,,,,,,,,,,,,,,,,,,,,,,,,,,
,,,,,,5cb72e7625f45e0017c31287,62c53a05808438d282f10f03,2022-07-06_09h30.24.743,Colour_Asymmetry_Pilot,2022.1.3,Win32,60.09615385,62c50e9c1127f2cd403a315f,,,,,,,,,,,,,,,,,,,,onethree,,-2,0.915,,,,,,,,,,,,,,,,,,,,,,,,,,,,,,,,,,"[0.9686000000000001,0.5763999999999998,0.11359999999999992]","[-0.011800000000000033,-0.906,-0.45100000000000007]",-82,-46,1,0,0,response5disk,10,9,1,0,0,rectangle,10,9,1,0,0,2,2,0.002,0,10,9,1,0,0,0,10,10,43,1,43,first,,,,,,,,,,,,,,,,,,,,,,,,,,,,,,,,,,,,,,,,,,,,,,,,,,,,,,,,,,,,,,,,,,,,,,,,
,,,,,,5cb72e7625f45e0017c31287,62c53a05808438d282f10f03,2022-07-06_09h30.24.743,Colour_Asymmetry_Pilot,2022.1.3,Win32,60.09615385,62c50e9c1127f2cd403a315f,,,,,,,,,,,,,,,,,,,,fourtwo,,-1,0.765,,,,,,,,,,,,,,,,,,,,,,,,,,,,,,,,,,"[0.34099999999999997,0.12939999999999996,-0.9766]","[0.8274000000000001,-0.5844,-0.9452]",-42,-85,1,0,0,response5disk,-8,-7,1,0,0,rectangle,-8,-7,1,0,0,2,3,0.002,0,-8,-7,1,0,0,0,11,11,72,1,72,first,,,,,,,,,,,,,,,,,,,,,,,,,,,,,,,,,,,,,,,,,,,,,,,,,,,,,,,,,,,,,,,,,,,,,,,,
,,,,,,5cb72e7625f45e0017c31287,62c53a05808438d282f10f03,2022-07-06_09h30.24.743,Colour_Asymmetry_Pilot,2022.1.3,Win32,60.09615385,62c50e9c1127f2cd403a315f,,,,,,,,,,,,,,,,,,,,fourthree,,-1,3.214,,,,,,,,,,,,,,,,,,,,,,,,,,,,,,,,,,"[0.2784,-0.31000000000000005,-0.5452]","[-0.24719999999999998,-0.0354000000000001,0.3175999999999999]",-42,-78,1,0,0,response5disk,7,-6,1,0,0,rectangle,7,-6,1,0,0,2,2,0.002,0,7,-6,1,0,0,0,12,12,158,1,77,second,,,,,,,,,,,,,,,,,,,,,,,,,,,,,,,,,,,,,,,,,,,,,,,,,,,,,,,,,,,,,,,,,,,,,,,,
,,,,,,5cb72e7625f45e0017c31287,62c53a05808438d282f10f03,2022-07-06_09h30.24.743,Colour_Asymmetry_Pilot,2022.1.3,Win32,60.09615385,62c50e9c1127f2cd403a315f,,,,,,,,,,,,,,,,,,,,twoone,,-1,1.848,,,,,,,,,,,,,,,,,,,,,,,,,,,,,,,,,,"[-0.5688,-0.08239999999999992,-0.1844]","[0.34099999999999997,0.12939999999999996,-0.9766]",-40,-81,1,0,0,response5disk,-1,1,1,0,0,rectangle,-1,1,1,0,0,2,2,0,0,-1,1,1,0,0,0,13,13,12,1,12,first,,,,,,,,,,,,,,,,,,,,,,,,,,,,,,,,,,,,,,,,,,,,,,,,,,,,,,,,,,,,,,,,,,,,,,,,
,,,,,,5cb72e7625f45e0017c31287,62c53a05808438d282f10f03,2022-07-06_09h30.24.743,Colour_Asymmetry_Pilot,2022.1.3,Win32,60.09615385,62c50e9c1127f2cd403a315f,,,,,,,,,,,,,,,,,,,,twoone,,-2,1.898,,,,,,,,,,,,,,,,,,,,,,,,,,,,,,,,,,"[-0.24719999999999998,0.5213999999999999,-0.12959999999999994]","[0.6625999999999999,0.4980000000000002,-0.357]",-87,-39,1,0,0,response5disk,-21,-1,1,0,0,rectangle,-21,-1,1,0,0,2,2,0.001,0,-21,-1,1,0,0,0,14,14,29,1,29,first,,,,,,,,,,,,,,,,,,,,,,,,,,,,,,,,,,,,,,,,,,,,,,,,,,,,,,,,,,,,,,,,,,,,,,,,
,,,,,,5cb72e7625f45e0017c31287,62c53a05808438d282f10f03,2022-07-06_09h30.24.743,Colour_Asymmetry_Pilot,2022.1.3,Win32,60.09615385,62c50e9c1127f2cd403a315f,,,,,,,,,,,,,,,,,,,,fourtwo,,2,2.165,,,,,,,,,,,,,,,,,,,,,,,,,,,,,,,,,,"[-0.6235999999999999,-0.6786,-0.08239999999999992]","[-0.26280000000000003,-0.4746,-0.2158]",66,-32,1,0,0,response3disk,-2,-6,1,0,0,rectangle,-2,-6,1,0,0,2,2,0.001,0,-2,-6,1,0,0,0,15,15,109,1,28,second,,,,,,,,,,,,,,,,,,,,,,,,,,,,,,,,,,,,,,,,,,,,,,,,,,,,,,,,,,,,,,,,,,,,,,,,
,,,,,,5cb72e7625f45e0017c31287,62c53a05808438d282f10f03,2022-07-06_09h30.24.743,Colour_Asymmetry_Pilot,2022.1.3,Win32,60.09615385,62c50e9c1127f2cd403a315f,,,,,,,,,,,,,,,,,,,,twofour,,1,7.196,,,,,,,,,,,,,,,,,,,,,,,,,,,,,,,,,,"[0.23120000000000007,-0.7726,-0.34120000000000006]","[-0.30200000000000005,0.14500000000000002,0.2784]",53,-73,1,0,0,response3disk,5,-11,1,0,0,rectangle,5,-11,1,0,0,2,3,0.002,0,5,-11,1,0,0,0,16,16,39,1,39,first,,,,,,,,,,,,,,,,,,,,,,,,,,,,,,,,,,,,,,,,,,,,,,,,,,,,,,,,,,,,,,,,,,,,,,,,
,,,,,,5cb72e7625f45e0017c31287,62c53a05808438d282f10f03,2022-07-06_09h30.24.743,Colour_Asymmetry_Pilot,2022.1.3,Win32,60.09615385,62c50e9c1127f2cd403a315f,,,,,,,,,,,,,,,,,,,,fourtwo,,-2,7.61,,,,,,,,,,,,,,,,,,,,,,,,,,,,,,,,,,"[-0.30200000000000005,0.14500000000000002,0.2784]","[0.23120000000000007,-0.7726,-0.34120000000000006]",-48,-36,1,0,0,response5disk,1,-5,1,0,0,rectangle,1,-5,1,0,0,2,3,0.001,0,1,-5,1,0,0,0,17,17,120,1,39,second,,,,,,,,,,,,,,,,,,,,,,,,,,,,,,,,,,,,,,,,,,,,,,,,,,,,,,,,,,,,,,,,,,,,,,,,
