trials.thisRepN,trials.thisTrialN,trials.thisN,trials.thisIndex,trials.ran,Colourcodes,participant,session,date,expName,psychopyVersion,OS,frameRate,study_id,trials_4.thisRepN,trials_4.thisTrialN,trials_4.thisN,trials_4.thisIndex,trials_4.ran,StimulusPos,key_resp.keys,key_resp.rt,key_resp_2.keys,key_resp_2.rt,key_resp_15.keys,key_resp_15.rt,key_resp_17.keys,key_resp_17.rt,key_resp_9.keys,key_resp_9.rt,key_resp_10.keys,key_resp_10.rt,Circle1_col,Ecc,Circle2_col,similarity,response_time,mouse_5.x,mouse_5.y,mouse_5.leftButton,mouse_5.midButton,mouse_5.rightButton,mouse_5.clicked_name,mouse_10.x,mouse_10.y,mouse_10.leftButton,mouse_10.midButton,mouse_10.rightButton,mouse_10.clicked_name,mouse_7.x,mouse_7.y,mouse_7.leftButton,mouse_7.midButton,mouse_7.rightButton,mouse_7.clicked_name,catchprac,catchnumberprac,mouse_6.x,mouse_6.y,mouse_6.leftButton,mouse_6.midButton,mouse_6.rightButton,mouse_6.clicked_name,duringprac.thisRepN,duringprac.thisTrialN,duringprac.thisN,duringprac.thisIndex,duringprac.ran,key_resp_22.keys,key_resp_22.rt,Circle1_colour,Circle2_colour,mouse.x,mouse.y,mouse.leftButton,mouse.midButton,mouse.rightButton,mouse.clicked_name,mouse_2.x,mouse_2.y,mouse_2.leftButton,mouse_2.midButton,mouse_2.rightButton,mouse_2.clicked_name,mouse_3.x,mouse_3.y,mouse_3.leftButton,mouse_3.midButton,mouse_3.rightButton,catchresponse,catchnumber,response_time_catch,Catch,mouse_11.x,mouse_11.y,mouse_11.leftButton,mouse_11.midButton,mouse_11.rightButton,trials_2.thisRepN,trials_2.thisTrialN,trials_2.thisN,trials_2.thisIndex,trials_2.ran,Colourpair,Temporder,mouse_3.clicked_name,mouse_11.clicked_name,trials_3.thisRepN,trials_3.thisTrialN,trials_3.thisN,trials_3.thisIndex,trials_3.ran,key_resp_instr_Ishi.keys,key_resp_instr_Ishi.rt,Ishi_trial_keyresp.keys,Ishi_trial_keyresp.rt,Ishi_textbox.text,Ishi_mouse.x,Ishi_mouse.y,Ishi_mouse.leftButton,Ishi_mouse.midButton,Ishi_mouse.rightButton,Ishi_loop.thisRepN,Ishi_loop.thisTrialN,Ishi_loop.thisN,Ishi_loop.thisIndex,Ishi_loop.ran,imageaddress,textbox.text,mouse_4.x,mouse_4.y,mouse_4.leftButton,mouse_4.midButton,mouse_4.rightButton,mouse_4.clicked_name,textbox_2.text,mouse_8.x,mouse_8.y,mouse_8.leftButton,mouse_8.midButton,mouse_8.rightButton,mouse_8.clicked_name,textbox_3.text,mouse_9.x,mouse_9.y,mouse_9.leftButton,mouse_9.midButton,mouse_9.rightButton,mouse_9.clicked_name,textbox_4.text,mouse_12.x,mouse_12.y,mouse_12.leftButton,mouse_12.midButton,mouse_12.rightButton,mouse_12.clicked_name,textbox_5.text,mouse_13.x,mouse_13.y,mouse_13.leftButton,mouse_13.midButton,mouse_13.rightButton,mouse_13.clicked_name,textbox_6.text,mouse_14.x,mouse_14.y,mouse_14.leftButton,mouse_14.midButton,mouse_14.rightButton,mouse_14.clicked_name,textbox_7.text,mouse_15.x,mouse_15.y,mouse_15.leftButton,mouse_15.midButton,mouse_15.rightButton,mouse_15.clicked_name
0,0,0,61,1,,60edcdb29cb14344e5d36ac0,62c539b8a3b80bd9e872dea2,2022-07-06_09h29.55.215,Colour_Asymmetry_Pilot,2022.1.3,Win32,60.08532116,62c50e9c1127f2cd403a315f,,,,,,,,,,,,,,,,,,,,,,,,,,,,,,,,,,,,,,,,,,,,,,,,,,,,,,,,,,,,,,,,,,,,,,,,,,,,,,,,,,,,,,,,,,,,,,,,,,,,,,,,,,,,,,,,,,,,,,,,,,,,,,,,,,,,,,,,,,,,,,,,,,,,,,,,,,,,,,,,,,,
0,1,1,0,1,,60edcdb29cb14344e5d36ac0,62c539b8a3b80bd9e872dea2,2022-07-06_09h29.55.215,Colour_Asymmetry_Pilot,2022.1.3,Win32,60.08532116,62c50e9c1127f2cd403a315f,,,,,,,,,,,,,,,,,,,,,,,,,,,,,,,,,,,,,,,,,,,,,,,,,,,,,,,,,,,,,,,,,,,,,,,,,,,,,,,,,,,,,,,,,,,,,,,,,,,,,,,,,,,,,,,,,,,,,,,,,,,,,,,,,,,,,,,,,,,,,,,,,,,,,,,,,,,,,,,,,,,
0,2,2,18,1,,60edcdb29cb14344e5d36ac0,62c539b8a3b80bd9e872dea2,2022-07-06_09h29.55.215,Colour_Asymmetry_Pilot,2022.1.3,Win32,60.08532116,62c50e9c1127f2cd403a315f,,,,,,,,,,,,,,,,,,,,,,,,,,,,,,,,,,,,,,,,,,,,,,,,,,,,,,,,,,,,,,,,,,,,,,,,,,,,,,,,,,,,,,,,,,,,,,,,,,,,,,,,,,,,,,,,,,,,,,,,,,,,,,,,,,,,,,,,,,,,,,,,,,,,,,,,,,,,,,,,,,,
0,3,3,33,1,,60edcdb29cb14344e5d36ac0,62c539b8a3b80bd9e872dea2,2022-07-06_09h29.55.215,Colour_Asymmetry_Pilot,2022.1.3,Win32,60.08532116,62c50e9c1127f2cd403a315f,,,,,,,,,,,,,,,,,,,,,,,,,,,,,,,,,,,,,,,,,,,,,,,,,,,,,,,,,,,,,,,,,,,,,,,,,,,,,,,,,,,,,,,,,,,,,,,,,,,,,,,,,,,,,,,,,,,,,,,,,,,,,,,,,,,,,,,,,,,,,,,,,,,,,,,,,,,,,,,,,,,
0,4,4,74,1,,60edcdb29cb14344e5d36ac0,62c539b8a3b80bd9e872dea2,2022-07-06_09h29.55.215,Colour_Asymmetry_Pilot,2022.1.3,Win32,60.08532116,62c50e9c1127f2cd403a315f,,,,,,,,,,,,,,,,,,,,,,,,,,,,,,,,,,,,,,,,,,,,,,,,,,,,,,,,,,,,,,,,,,,,,,,,,,,,,,,,,,,,,,,,,,,,,,,,,,,,,,,,,,,,,,,,,,,,,,,,,,,,,,,,,,,,,,,,,,,,,,,,,,,,,,,,,,,,,,,,,,,
0,5,5,71,1,,60edcdb29cb14344e5d36ac0,62c539b8a3b80bd9e872dea2,2022-07-06_09h29.55.215,Colour_Asymmetry_Pilot,2022.1.3,Win32,60.08532116,62c50e9c1127f2cd403a315f,,,,,,,,,,,,,,,,,,,,,,,,,,,,,,,,,,,,,,,,,,,,,,,,,,,,,,,,,,,,,,,,,,,,,,,,,,,,,,,,,,,,,,,,,,,,,,,,,,,,,,,,,,,,,,,,,,,,,,,,,,,,,,,,,,,,,,,,,,,,,,,,,,,,,,,,,,,,,,,,,,,
0,6,6,78,1,,60edcdb29cb14344e5d36ac0,62c539b8a3b80bd9e872dea2,2022-07-06_09h29.55.215,Colour_Asymmetry_Pilot,2022.1.3,Win32,60.08532116,62c50e9c1127f2cd403a315f,,,,,,,,,,,,,,,,,,,,,,,,,,,,,,,,,,,,,,,,,,,,,,,,,,,,,,,,,,,,,,,,,,,,,,,,,,,,,,,,,,,,,,,,,,,,,,,,,,,,,,,,,,,,,,,,,,,,,,,,,,,,,,,,,,,,,,,,,,,,,,,,,,,,,,,,,,,,,,,,,,,
0,7,7,20,1,,60edcdb29cb14344e5d36ac0,62c539b8a3b80bd9e872dea2,2022-07-06_09h29.55.215,Colour_Asymmetry_Pilot,2022.1.3,Win32,60.08532116,62c50e9c1127f2cd403a315f,,,,,,,,,,,,,,,,,,,,,,,,,,,,,,,,,,,,,,,,,,,,,,,,,,,,,,,,,,,,,,,,,,,,,,,,,,,,,,,,,,,,,,,,,,,,,,,,,,,,,,,,,,,,,,,,,,,,,,,,,,,,,,,,,,,,,,,,,,,,,,,,,,,,,,,,,,,,,,,,,,,
0,8,8,73,1,,60edcdb29cb14344e5d36ac0,62c539b8a3b80bd9e872dea2,2022-07-06_09h29.55.215,Colour_Asymmetry_Pilot,2022.1.3,Win32,60.08532116,62c50e9c1127f2cd403a315f,,,,,,,,,,,,,,,,,,,,,,,,,,,,,,,,,,,,,,,,,,,,,,,,,,,,,,,,,,,,,,,,,,,,,,,,,,,,,,,,,,,,,,,,,,,,,,,,,,,,,,,,,,,,,,,,,,,,,,,,,,,,,,,,,,,,,,,,,,,,,,,,,,,,,,,,,,,,,,,,,,,
0,9,9,57,1,,60edcdb29cb14344e5d36ac0,62c539b8a3b80bd9e872dea2,2022-07-06_09h29.55.215,Colour_Asymmetry_Pilot,2022.1.3,Win32,60.08532116,62c50e9c1127f2cd403a315f,,,,,,,,,,,,,,,,,,,,,,,,,,,,,,,,,,,,,,,,,,,,,,,,,,,,,,,,,,,,,,,,,,,,,,,,,,,,,,,,,,,,,,,,,,,,,,,,,,,,,,,,,,,,,,,,,,,,,,,,,,,,,,,,,,,,,,,,,,,,,,,,,,,,,,,,,,,,,,,,,,,
0,10,10,79,1,,60edcdb29cb14344e5d36ac0,62c539b8a3b80bd9e872dea2,2022-07-06_09h29.55.215,Colour_Asymmetry_Pilot,2022.1.3,Win32,60.08532116,62c50e9c1127f2cd403a315f,,,,,,,,,,,,,,,,,,,,,,,,,,,,,,,,,,,,,,,,,,,,,,,,,,,,,,,,,,,,,,,,,,,,,,,,,,,,,,,,,,,,,,,,,,,,,,,,,,,,,,,,,,,,,,,,,,,,,,,,,,,,,,,,,,,,,,,,,,,,,,,,,,,,,,,,,,,,,,,,,,,
0,11,11,63,1,,60edcdb29cb14344e5d36ac0,62c539b8a3b80bd9e872dea2,2022-07-06_09h29.55.215,Colour_Asymmetry_Pilot,2022.1.3,Win32,60.08532116,62c50e9c1127f2cd403a315f,,,,,,,,,,,,,,,,,,,,,,,,,,,,,,,,,,,,,,,,,,,,,,,,,,,,,,,,,,,,,,,,,,,,,,,,,,,,,,,,,,,,,,,,,,,,,,,,,,,,,,,,,,,,,,,,,,,,,,,,,,,,,,,,,,,,,,,,,,,,,,,,,,,,,,,,,,,,,,,,,,,
0,12,12,88,1,,60edcdb29cb14344e5d36ac0,62c539b8a3b80bd9e872dea2,2022-07-06_09h29.55.215,Colour_Asymmetry_Pilot,2022.1.3,Win32,60.08532116,62c50e9c1127f2cd403a315f,,,,,,,,,,,,,,,,,,,,,,,,,,,,,,,,,,,,,,,,,,,,,,,,,,,,,,,,,,,,,,,,,,,,,,,,,,,,,,,,,,,,,,,,,,,,,,,,,,,,,,,,,,,,,,,,,,,,,,,,,,,,,,,,,,,,,,,,,,,,,,,,,,,,,,,,,,,,,,,,,,,
0,13,13,31,1,,60edcdb29cb14344e5d36ac0,62c539b8a3b80bd9e872dea2,2022-07-06_09h29.55.215,Colour_Asymmetry_Pilot,2022.1.3,Win32,60.08532116,62c50e9c1127f2cd403a315f,,,,,,,,,,,,,,,,,,,,,,,,,,,,,,,,,,,,,,,,,,,,,,,,,,,,,,,,,,,,,,,,,,,,,,,,,,,,,,,,,,,,,,,,,,,,,,,,,,,,,,,,,,,,,,,,,,,,,,,,,,,,,,,,,,,,,,,,,,,,,,,,,,,,,,,,,,,,,,,,,,,
0,14,14,41,1,,60edcdb29cb14344e5d36ac0,62c539b8a3b80bd9e872dea2,2022-07-06_09h29.55.215,Colour_Asymmetry_Pilot,2022.1.3,Win32,60.08532116,62c50e9c1127f2cd403a315f,,,,,,,,,,,,,,,,,,,,,,,,,,,,,,,,,,,,,,,,,,,,,,,,,,,,,,,,,,,,,,,,,,,,,,,,,,,,,,,,,,,,,,,,,,,,,,,,,,,,,,,,,,,,,,,,,,,,,,,,,,,,,,,,,,,,,,,,,,,,,,,,,,,,,,,,,,,,,,,,,,,
0,15,15,45,1,,60edcdb29cb14344e5d36ac0,62c539b8a3b80bd9e872dea2,2022-07-06_09h29.55.215,Colour_Asymmetry_Pilot,2022.1.3,Win32,60.08532116,62c50e9c1127f2cd403a315f,,,,,,,,,,,,,,,,,,,,,,,,,,,,,,,,,,,,,,,,,,,,,,,,,,,,,,,,,,,,,,,,,,,,,,,,,,,,,,,,,,,,,,,,,,,,,,,,,,,,,,,,,,,,,,,,,,,,,,,,,,,,,,,,,,,,,,,,,,,,,,,,,,,,,,,,,,,,,,,,,,,
0,16,16,83,1,,60edcdb29cb14344e5d36ac0,62c539b8a3b80bd9e872dea2,2022-07-06_09h29.55.215,Colour_Asymmetry_Pilot,2022.1.3,Win32,60.08532116,62c50e9c1127f2cd403a315f,,,,,,,,,,,,,,,,,,,,,,,,,,,,,,,,,,,,,,,,,,,,,,,,,,,,,,,,,,,,,,,,,,,,,,,,,,,,,,,,,,,,,,,,,,,,,,,,,,,,,,,,,,,,,,,,,,,,,,,,,,,,,,,,,,,,,,,,,,,,,,,,,,,,,,,,,,,,,,,,,,,
0,17,17,48,1,,60edcdb29cb14344e5d36ac0,62c539b8a3b80bd9e872dea2,2022-07-06_09h29.55.215,Colour_Asymmetry_Pilot,2022.1.3,Win32,60.08532116,62c50e9c1127f2cd403a315f,,,,,,,,,,,,,,,,,,,,,,,,,,,,,,,,,,,,,,,,,,,,,,,,,,,,,,,,,,,,,,,,,,,,,,,,,,,,,,,,,,,,,,,,,,,,,,,,,,,,,,,,,,,,,,,,,,,,,,,,,,,,,,,,,,,,,,,,,,,,,,,,,,,,,,,,,,,,,,,,,,,
0,18,18,4,1,,60edcdb29cb14344e5d36ac0,62c539b8a3b80bd9e872dea2,2022-07-06_09h29.55.215,Colour_Asymmetry_Pilot,2022.1.3,Win32,60.08532116,62c50e9c1127f2cd403a315f,,,,,,,,,,,,,,,,,,,,,,,,,,,,,,,,,,,,,,,,,,,,,,,,,,,,,,,,,,,,,,,,,,,,,,,,,,,,,,,,,,,,,,,,,,,,,,,,,,,,,,,,,,,,,,,,,,,,,,,,,,,,,,,,,,,,,,,,,,,,,,,,,,,,,,,,,,,,,,,,,,,
0,19,19,39,1,,60edcdb29cb14344e5d36ac0,62c539b8a3b80bd9e872dea2,2022-07-06_09h29.55.215,Colour_Asymmetry_Pilot,2022.1.3,Win32,60.08532116,62c50e9c1127f2cd403a315f,,,,,,,,,,,,,,,,,,,,,,,,,,,,,,,,,,,,,,,,,,,,,,,,,,,,,,,,,,,,,,,,,,,,,,,,,,,,,,,,,,,,,,,,,,,,,,,,,,,,,,,,,,,,,,,,,,,,,,,,,,,,,,,,,,,,,,,,,,,,,,,,,,,,,,,,,,,,,,,,,,,
0,20,20,51,1,,60edcdb29cb14344e5d36ac0,62c539b8a3b80bd9e872dea2,2022-07-06_09h29.55.215,Colour_Asymmetry_Pilot,2022.1.3,Win32,60.08532116,62c50e9c1127f2cd403a315f,,,,,,,,,,,,,,,,,,,,,,,,,,,,,,,,,,,,,,,,,,,,,,,,,,,,,,,,,,,,,,,,,,,,,,,,,,,,,,,,,,,,,,,,,,,,,,,,,,,,,,,,,,,,,,,,,,,,,,,,,,,,,,,,,,,,,,,,,,,,,,,,,,,,,,,,,,,,,,,,,,,
0,21,21,65,1,,60edcdb29cb14344e5d36ac0,62c539b8a3b80bd9e872dea2,2022-07-06_09h29.55.215,Colour_Asymmetry_Pilot,2022.1.3,Win32,60.08532116,62c50e9c1127f2cd403a315f,,,,,,,,,,,,,,,,,,,,,,,,,,,,,,,,,,,,,,,,,,,,,,,,,,,,,,,,,,,,,,,,,,,,,,,,,,,,,,,,,,,,,,,,,,,,,,,,,,,,,,,,,,,,,,,,,,,,,,,,,,,,,,,,,,,,,,,,,,,,,,,,,,,,,,,,,,,,,,,,,,,
0,22,22,37,1,,60edcdb29cb14344e5d36ac0,62c539b8a3b80bd9e872dea2,2022-07-06_09h29.55.215,Colour_Asymmetry_Pilot,2022.1.3,Win32,60.08532116,62c50e9c1127f2cd403a315f,,,,,,,,,,,,,,,,,,,,,,,,,,,,,,,,,,,,,,,,,,,,,,,,,,,,,,,,,,,,,,,,,,,,,,,,,,,,,,,,,,,,,,,,,,,,,,,,,,,,,,,,,,,,,,,,,,,,,,,,,,,,,,,,,,,,,,,,,,,,,,,,,,,,,,,,,,,,,,,,,,,
0,23,23,67,1,,60edcdb29cb14344e5d36ac0,62c539b8a3b80bd9e872dea2,2022-07-06_09h29.55.215,Colour_Asymmetry_Pilot,2022.1.3,Win32,60.08532116,62c50e9c1127f2cd403a315f,,,,,,,,,,,,,,,,,,,,,,,,,,,,,,,,,,,,,,,,,,,,,,,,,,,,,,,,,,,,,,,,,,,,,,,,,,,,,,,,,,,,,,,,,,,,,,,,,,,,,,,,,,,,,,,,,,,,,,,,,,,,,,,,,,,,,,,,,,,,,,,,,,,,,,,,,,,,,,,,,,,
0,24,24,82,1,,60edcdb29cb14344e5d36ac0,62c539b8a3b80bd9e872dea2,2022-07-06_09h29.55.215,Colour_Asymmetry_Pilot,2022.1.3,Win32,60.08532116,62c50e9c1127f2cd403a315f,,,,,,,,,,,,,,,,,,,,,,,,,,,,,,,,,,,,,,,,,,,,,,,,,,,,,,,,,,,,,,,,,,,,,,,,,,,,,,,,,,,,,,,,,,,,,,,,,,,,,,,,,,,,,,,,,,,,,,,,,,,,,,,,,,,,,,,,,,,,,,,,,,,,,,,,,,,,,,,,,,,
0,25,25,69,1,,60edcdb29cb14344e5d36ac0,62c539b8a3b80bd9e872dea2,2022-07-06_09h29.55.215,Colour_Asymmetry_Pilot,2022.1.3,Win32,60.08532116,62c50e9c1127f2cd403a315f,,,,,,,,,,,,,,,,,,,,,,,,,,,,,,,,,,,,,,,,,,,,,,,,,,,,,,,,,,,,,,,,,,,,,,,,,,,,,,,,,,,,,,,,,,,,,,,,,,,,,,,,,,,,,,,,,,,,,,,,,,,,,,,,,,,,,,,,,,,,,,,,,,,,,,,,,,,,,,,,,,,
0,26,26,21,1,,60edcdb29cb14344e5d36ac0,62c539b8a3b80bd9e872dea2,2022-07-06_09h29.55.215,Colour_Asymmetry_Pilot,2022.1.3,Win32,60.08532116,62c50e9c1127f2cd403a315f,,,,,,,,,,,,,,,,,,,,,,,,,,,,,,,,,,,,,,,,,,,,,,,,,,,,,,,,,,,,,,,,,,,,,,,,,,,,,,,,,,,,,,,,,,,,,,,,,,,,,,,,,,,,,,,,,,,,,,,,,,,,,,,,,,,,,,,,,,,,,,,,,,,,,,,,,,,,,,,,,,,
0,27,27,68,1,,60edcdb29cb14344e5d36ac0,62c539b8a3b80bd9e872dea2,2022-07-06_09h29.55.215,Colour_Asymmetry_Pilot,2022.1.3,Win32,60.08532116,62c50e9c1127f2cd403a315f,,,,,,,,,,,,,,,,,,,,,,,,,,,,,,,,,,,,,,,,,,,,,,,,,,,,,,,,,,,,,,,,,,,,,,,,,,,,,,,,,,,,,,,,,,,,,,,,,,,,,,,,,,,,,,,,,,,,,,,,,,,,,,,,,,,,,,,,,,,,,,,,,,,,,,,,,,,,,,,,,,,
0,28,28,87,1,,60edcdb29cb14344e5d36ac0,62c539b8a3b80bd9e872dea2,2022-07-06_09h29.55.215,Colour_Asymmetry_Pilot,2022.1.3,Win32,60.08532116,62c50e9c1127f2cd403a315f,,,,,,,,,,,,,,,,,,,,,,,,,,,,,,,,,,,,,,,,,,,,,,,,,,,,,,,,,,,,,,,,,,,,,,,,,,,,,,,,,,,,,,,,,,,,,,,,,,,,,,,,,,,,,,,,,,,,,,,,,,,,,,,,,,,,,,,,,,,,,,,,,,,,,,,,,,,,,,,,,,,
0,29,29,13,1,,60edcdb29cb14344e5d36ac0,62c539b8a3b80bd9e872dea2,2022-07-06_09h29.55.215,Colour_Asymmetry_Pilot,2022.1.3,Win32,60.08532116,62c50e9c1127f2cd403a315f,,,,,,,,,,,,,,,,,,,,,,,,,,,,,,,,,,,,,,,,,,,,,,,,,,,,,,,,,,,,,,,,,,,,,,,,,,,,,,,,,,,,,,,,,,,,,,,,,,,,,,,,,,,,,,,,,,,,,,,,,,,,,,,,,,,,,,,,,,,,,,,,,,,,,,,,,,,,,,,,,,,
0,30,30,16,1,,60edcdb29cb14344e5d36ac0,62c539b8a3b80bd9e872dea2,2022-07-06_09h29.55.215,Colour_Asymmetry_Pilot,2022.1.3,Win32,60.08532116,62c50e9c1127f2cd403a315f,,,,,,,,,,,,,,,,,,,,,,,,,,,,,,,,,,,,,,,,,,,,,,,,,,,,,,,,,,,,,,,,,,,,,,,,,,,,,,,,,,,,,,,,,,,,,,,,,,,,,,,,,,,,,,,,,,,,,,,,,,,,,,,,,,,,,,,,,,,,,,,,,,,,,,,,,,,,,,,,,,,
0,31,31,55,1,,60edcdb29cb14344e5d36ac0,62c539b8a3b80bd9e872dea2,2022-07-06_09h29.55.215,Colour_Asymmetry_Pilot,2022.1.3,Win32,60.08532116,62c50e9c1127f2cd403a315f,,,,,,,,,,,,,,,,,,,,,,,,,,,,,,,,,,,,,,,,,,,,,,,,,,,,,,,,,,,,,,,,,,,,,,,,,,,,,,,,,,,,,,,,,,,,,,,,,,,,,,,,,,,,,,,,,,,,,,,,,,,,,,,,,,,,,,,,,,,,,,,,,,,,,,,,,,,,,,,,,,,
0,32,32,58,1,,60edcdb29cb14344e5d36ac0,62c539b8a3b80bd9e872dea2,2022-07-06_09h29.55.215,Colour_Asymmetry_Pilot,2022.1.3,Win32,60.08532116,62c50e9c1127f2cd403a315f,,,,,,,,,,,,,,,,,,,,,,,,,,,,,,,,,,,,,,,,,,,,,,,,,,,,,,,,,,,,,,,,,,,,,,,,,,,,,,,,,,,,,,,,,,,,,,,,,,,,,,,,,,,,,,,,,,,,,,,,,,,,,,,,,,,,,,,,,,,,,,,,,,,,,,,,,,,,,,,,,,,
0,33,33,34,1,,60edcdb29cb14344e5d36ac0,62c539b8a3b80bd9e872dea2,2022-07-06_09h29.55.215,Colour_Asymmetry_Pilot,2022.1.3,Win32,60.08532116,62c50e9c1127f2cd403a315f,,,,,,,,,,,,,,,,,,,,,,,,,,,,,,,,,,,,,,,,,,,,,,,,,,,,,,,,,,,,,,,,,,,,,,,,,,,,,,,,,,,,,,,,,,,,,,,,,,,,,,,,,,,,,,,,,,,,,,,,,,,,,,,,,,,,,,,,,,,,,,,,,,,,,,,,,,,,,,,,,,,
0,34,34,44,1,,60edcdb29cb14344e5d36ac0,62c539b8a3b80bd9e872dea2,2022-07-06_09h29.55.215,Colour_Asymmetry_Pilot,2022.1.3,Win32,60.08532116,62c50e9c1127f2cd403a315f,,,,,,,,,,,,,,,,,,,,,,,,,,,,,,,,,,,,,,,,,,,,,,,,,,,,,,,,,,,,,,,,,,,,,,,,,,,,,,,,,,,,,,,,,,,,,,,,,,,,,,,,,,,,,,,,,,,,,,,,,,,,,,,,,,,,,,,,,,,,,,,,,,,,,,,,,,,,,,,,,,,
0,35,35,89,1,,60edcdb29cb14344e5d36ac0,62c539b8a3b80bd9e872dea2,2022-07-06_09h29.55.215,Colour_Asymmetry_Pilot,2022.1.3,Win32,60.08532116,62c50e9c1127f2cd403a315f,,,,,,,,,,,,,,,,,,,,,,,,,,,,,,,,,,,,,,,,,,,,,,,,,,,,,,,,,,,,,,,,,,,,,,,,,,,,,,,,,,,,,,,,,,,,,,,,,,,,,,,,,,,,,,,,,,,,,,,,,,,,,,,,,,,,,,,,,,,,,,,,,,,,,,,,,,,,,,,,,,,
0,36,36,77,1,,60edcdb29cb14344e5d36ac0,62c539b8a3b80bd9e872dea2,2022-07-06_09h29.55.215,Colour_Asymmetry_Pilot,2022.1.3,Win32,60.08532116,62c50e9c1127f2cd403a315f,,,,,,,,,,,,,,,,,,,,,,,,,,,,,,,,,,,,,,,,,,,,,,,,,,,,,,,,,,,,,,,,,,,,,,,,,,,,,,,,,,,,,,,,,,,,,,,,,,,,,,,,,,,,,,,,,,,,,,,,,,,,,,,,,,,,,,,,,,,,,,,,,,,,,,,,,,,,,,,,,,,
0,37,37,91,1,,60edcdb29cb14344e5d36ac0,62c539b8a3b80bd9e872dea2,2022-07-06_09h29.55.215,Colour_Asymmetry_Pilot,2022.1.3,Win32,60.08532116,62c50e9c1127f2cd403a315f,,,,,,,,,,,,,,,,,,,,,,,,,,,,,,,,,,,,,,,,,,,,,,,,,,,,,,,,,,,,,,,,,,,,,,,,,,,,,,,,,,,,,,,,,,,,,,,,,,,,,,,,,,,,,,,,,,,,,,,,,,,,,,,,,,,,,,,,,,,,,,,,,,,,,,,,,,,,,,,,,,,
0,38,38,92,1,,60edcdb29cb14344e5d36ac0,62c539b8a3b80bd9e872dea2,2022-07-06_09h29.55.215,Colour_Asymmetry_Pilot,2022.1.3,Win32,60.08532116,62c50e9c1127f2cd403a315f,,,,,,,,,,,,,,,,,,,,,,,,,,,,,,,,,,,,,,,,,,,,,,,,,,,,,,,,,,,,,,,,,,,,,,,,,,,,,,,,,,,,,,,,,,,,,,,,,,,,,,,,,,,,,,,,,,,,,,,,,,,,,,,,,,,,,,,,,,,,,,,,,,,,,,,,,,,,,,,,,,,
0,39,39,27,1,,60edcdb29cb14344e5d36ac0,62c539b8a3b80bd9e872dea2,2022-07-06_09h29.55.215,Colour_Asymmetry_Pilot,2022.1.3,Win32,60.08532116,62c50e9c1127f2cd403a315f,,,,,,,,,,,,,,,,,,,,,,,,,,,,,,,,,,,,,,,,,,,,,,,,,,,,,,,,,,,,,,,,,,,,,,,,,,,,,,,,,,,,,,,,,,,,,,,,,,,,,,,,,,,,,,,,,,,,,,,,,,,,,,,,,,,,,,,,,,,,,,,,,,,,,,,,,,,,,,,,,,,
0,40,40,7,1,,60edcdb29cb14344e5d36ac0,62c539b8a3b80bd9e872dea2,2022-07-06_09h29.55.215,Colour_Asymmetry_Pilot,2022.1.3,Win32,60.08532116,62c50e9c1127f2cd403a315f,,,,,,,,,,,,,,,,,,,,,,,,,,,,,,,,,,,,,,,,,,,,,,,,,,,,,,,,,,,,,,,,,,,,,,,,,,,,,,,,,,,,,,,,,,,,,,,,,,,,,,,,,,,,,,,,,,,,,,,,,,,,,,,,,,,,,,,,,,,,,,,,,,,,,,,,,,,,,,,,,,,
0,41,41,3,1,,60edcdb29cb14344e5d36ac0,62c539b8a3b80bd9e872dea2,2022-07-06_09h29.55.215,Colour_Asymmetry_Pilot,2022.1.3,Win32,60.08532116,62c50e9c1127f2cd403a315f,,,,,,,,,,,,,,,,,,,,,,,,,,,,,,,,,,,,,,,,,,,,,,,,,,,,,,,,,,,,,,,,,,,,,,,,,,,,,,,,,,,,,,,,,,,,,,,,,,,,,,,,,,,,,,,,,,,,,,,,,,,,,,,,,,,,,,,,,,,,,,,,,,,,,,,,,,,,,,,,,,,
0,42,42,84,1,,60edcdb29cb14344e5d36ac0,62c539b8a3b80bd9e872dea2,2022-07-06_09h29.55.215,Colour_Asymmetry_Pilot,2022.1.3,Win32,60.08532116,62c50e9c1127f2cd403a315f,,,,,,,,,,,,,,,,,,,,,,,,,,,,,,,,,,,,,,,,,,,,,,,,,,,,,,,,,,,,,,,,,,,,,,,,,,,,,,,,,,,,,,,,,,,,,,,,,,,,,,,,,,,,,,,,,,,,,,,,,,,,,,,,,,,,,,,,,,,,,,,,,,,,,,,,,,,,,,,,,,,
0,43,43,5,1,,60edcdb29cb14344e5d36ac0,62c539b8a3b80bd9e872dea2,2022-07-06_09h29.55.215,Colour_Asymmetry_Pilot,2022.1.3,Win32,60.08532116,62c50e9c1127f2cd403a315f,,,,,,,,,,,,,,,,,,,,,,,,,,,,,,,,,,,,,,,,,,,,,,,,,,,,,,,,,,,,,,,,,,,,,,,,,,,,,,,,,,,,,,,,,,,,,,,,,,,,,,,,,,,,,,,,,,,,,,,,,,,,,,,,,,,,,,,,,,,,,,,,,,,,,,,,,,,,,,,,,,,
0,44,44,81,1,,60edcdb29cb14344e5d36ac0,62c539b8a3b80bd9e872dea2,2022-07-06_09h29.55.215,Colour_Asymmetry_Pilot,2022.1.3,Win32,60.08532116,62c50e9c1127f2cd403a315f,,,,,,,,,,,,,,,,,,,,,,,,,,,,,,,,,,,,,,,,,,,,,,,,,,,,,,,,,,,,,,,,,,,,,,,,,,,,,,,,,,,,,,,,,,,,,,,,,,,,,,,,,,,,,,,,,,,,,,,,,,,,,,,,,,,,,,,,,,,,,,,,,,,,,,,,,,,,,,,,,,,
0,45,45,43,1,,60edcdb29cb14344e5d36ac0,62c539b8a3b80bd9e872dea2,2022-07-06_09h29.55.215,Colour_Asymmetry_Pilot,2022.1.3,Win32,60.08532116,62c50e9c1127f2cd403a315f,,,,,,,,,,,,,,,,,,,,,,,,,,,,,,,,,,,,,,,,,,,,,,,,,,,,,,,,,,,,,,,,,,,,,,,,,,,,,,,,,,,,,,,,,,,,,,,,,,,,,,,,,,,,,,,,,,,,,,,,,,,,,,,,,,,,,,,,,,,,,,,,,,,,,,,,,,,,,,,,,,,
0,46,46,6,1,,60edcdb29cb14344e5d36ac0,62c539b8a3b80bd9e872dea2,2022-07-06_09h29.55.215,Colour_Asymmetry_Pilot,2022.1.3,Win32,60.08532116,62c50e9c1127f2cd403a315f,,,,,,,,,,,,,,,,,,,,,,,,,,,,,,,,,,,,,,,,,,,,,,,,,,,,,,,,,,,,,,,,,,,,,,,,,,,,,,,,,,,,,,,,,,,,,,,,,,,,,,,,,,,,,,,,,,,,,,,,,,,,,,,,,,,,,,,,,,,,,,,,,,,,,,,,,,,,,,,,,,,
0,47,47,90,1,,60edcdb29cb14344e5d36ac0,62c539b8a3b80bd9e872dea2,2022-07-06_09h29.55.215,Colour_Asymmetry_Pilot,2022.1.3,Win32,60.08532116,62c50e9c1127f2cd403a315f,,,,,,,,,,,,,,,,,,,,,,,,,,,,,,,,,,,,,,,,,,,,,,,,,,,,,,,,,,,,,,,,,,,,,,,,,,,,,,,,,,,,,,,,,,,,,,,,,,,,,,,,,,,,,,,,,,,,,,,,,,,,,,,,,,,,,,,,,,,,,,,,,,,,,,,,,,,,,,,,,,,
0,48,48,2,1,,60edcdb29cb14344e5d36ac0,62c539b8a3b80bd9e872dea2,2022-07-06_09h29.55.215,Colour_Asymmetry_Pilot,2022.1.3,Win32,60.08532116,62c50e9c1127f2cd403a315f,,,,,,,,,,,,,,,,,,,,,,,,,,,,,,,,,,,,,,,,,,,,,,,,,,,,,,,,,,,,,,,,,,,,,,,,,,,,,,,,,,,,,,,,,,,,,,,,,,,,,,,,,,,,,,,,,,,,,,,,,,,,,,,,,,,,,,,,,,,,,,,,,,,,,,,,,,,,,,,,,,,
0,49,49,32,1,,60edcdb29cb14344e5d36ac0,62c539b8a3b80bd9e872dea2,2022-07-06_09h29.55.215,Colour_Asymmetry_Pilot,2022.1.3,Win32,60.08532116,62c50e9c1127f2cd403a315f,,,,,,,,,,,,,,,,,,,,,,,,,,,,,,,,,,,,,,,,,,,,,,,,,,,,,,,,,,,,,,,,,,,,,,,,,,,,,,,,,,,,,,,,,,,,,,,,,,,,,,,,,,,,,,,,,,,,,,,,,,,,,,,,,,,,,,,,,,,,,,,,,,,,,,,,,,,,,,,,,,,
0,50,50,25,1,,60edcdb29cb14344e5d36ac0,62c539b8a3b80bd9e872dea2,2022-07-06_09h29.55.215,Colour_Asymmetry_Pilot,2022.1.3,Win32,60.08532116,62c50e9c1127f2cd403a315f,,,,,,,,,,,,,,,,,,,,,,,,,,,,,,,,,,,,,,,,,,,,,,,,,,,,,,,,,,,,,,,,,,,,,,,,,,,,,,,,,,,,,,,,,,,,,,,,,,,,,,,,,,,,,,,,,,,,,,,,,,,,,,,,,,,,,,,,,,,,,,,,,,,,,,,,,,,,,,,,,,,
0,51,51,22,1,,60edcdb29cb14344e5d36ac0,62c539b8a3b80bd9e872dea2,2022-07-06_09h29.55.215,Colour_Asymmetry_Pilot,2022.1.3,Win32,60.08532116,62c50e9c1127f2cd403a315f,,,,,,,,,,,,,,,,,,,,,,,,,,,,,,,,,,,,,,,,,,,,,,,,,,,,,,,,,,,,,,,,,,,,,,,,,,,,,,,,,,,,,,,,,,,,,,,,,,,,,,,,,,,,,,,,,,,,,,,,,,,,,,,,,,,,,,,,,,,,,,,,,,,,,,,,,,,,,,,,,,,
0,52,52,19,1,,60edcdb29cb14344e5d36ac0,62c539b8a3b80bd9e872dea2,2022-07-06_09h29.55.215,Colour_Asymmetry_Pilot,2022.1.3,Win32,60.08532116,62c50e9c1127f2cd403a315f,,,,,,,,,,,,,,,,,,,,,,,,,,,,,,,,,,,,,,,,,,,,,,,,,,,,,,,,,,,,,,,,,,,,,,,,,,,,,,,,,,,,,,,,,,,,,,,,,,,,,,,,,,,,,,,,,,,,,,,,,,,,,,,,,,,,,,,,,,,,,,,,,,,,,,,,,,,,,,,,,,,
0,53,53,53,1,,60edcdb29cb14344e5d36ac0,62c539b8a3b80bd9e872dea2,2022-07-06_09h29.55.215,Colour_Asymmetry_Pilot,2022.1.3,Win32,60.08532116,62c50e9c1127f2cd403a315f,,,,,,,,,,,,,,,,,,,,,,,,,,,,,,,,,,,,,,,,,,,,,,,,,,,,,,,,,,,,,,,,,,,,,,,,,,,,,,,,,,,,,,,,,,,,,,,,,,,,,,,,,,,,,,,,,,,,,,,,,,,,,,,,,,,,,,,,,,,,,,,,,,,,,,,,,,,,,,,,,,,
0,54,54,26,1,,60edcdb29cb14344e5d36ac0,62c539b8a3b80bd9e872dea2,2022-07-06_09h29.55.215,Colour_Asymmetry_Pilot,2022.1.3,Win32,60.08532116,62c50e9c1127f2cd403a315f,,,,,,,,,,,,,,,,,,,,,,,,,,,,,,,,,,,,,,,,,,,,,,,,,,,,,,,,,,,,,,,,,,,,,,,,,,,,,,,,,,,,,,,,,,,,,,,,,,,,,,,,,,,,,,,,,,,,,,,,,,,,,,,,,,,,,,,,,,,,,,,,,,,,,,,,,,,,,,,,,,,
0,55,55,17,1,,60edcdb29cb14344e5d36ac0,62c539b8a3b80bd9e872dea2,2022-07-06_09h29.55.215,Colour_Asymmetry_Pilot,2022.1.3,Win32,60.08532116,62c50e9c1127f2cd403a315f,,,,,,,,,,,,,,,,,,,,,,,,,,,,,,,,,,,,,,,,,,,,,,,,,,,,,,,,,,,,,,,,,,,,,,,,,,,,,,,,,,,,,,,,,,,,,,,,,,,,,,,,,,,,,,,,,,,,,,,,,,,,,,,,,,,,,,,,,,,,,,,,,,,,,,,,,,,,,,,,,,,
0,56,56,64,1,,60edcdb29cb14344e5d36ac0,62c539b8a3b80bd9e872dea2,2022-07-06_09h29.55.215,Colour_Asymmetry_Pilot,2022.1.3,Win32,60.08532116,62c50e9c1127f2cd403a315f,,,,,,,,,,,,,,,,,,,,,,,,,,,,,,,,,,,,,,,,,,,,,,,,,,,,,,,,,,,,,,,,,,,,,,,,,,,,,,,,,,,,,,,,,,,,,,,,,,,,,,,,,,,,,,,,,,,,,,,,,,,,,,,,,,,,,,,,,,,,,,,,,,,,,,,,,,,,,,,,,,,
0,57,57,9,1,,60edcdb29cb14344e5d36ac0,62c539b8a3b80bd9e872dea2,2022-07-06_09h29.55.215,Colour_Asymmetry_Pilot,2022.1.3,Win32,60.08532116,62c50e9c1127f2cd403a315f,,,,,,,,,,,,,,,,,,,,,,,,,,,,,,,,,,,,,,,,,,,,,,,,,,,,,,,,,,,,,,,,,,,,,,,,,,,,,,,,,,,,,,,,,,,,,,,,,,,,,,,,,,,,,,,,,,,,,,,,,,,,,,,,,,,,,,,,,,,,,,,,,,,,,,,,,,,,,,,,,,,
0,58,58,47,1,,60edcdb29cb14344e5d36ac0,62c539b8a3b80bd9e872dea2,2022-07-06_09h29.55.215,Colour_Asymmetry_Pilot,2022.1.3,Win32,60.08532116,62c50e9c1127f2cd403a315f,,,,,,,,,,,,,,,,,,,,,,,,,,,,,,,,,,,,,,,,,,,,,,,,,,,,,,,,,,,,,,,,,,,,,,,,,,,,,,,,,,,,,,,,,,,,,,,,,,,,,,,,,,,,,,,,,,,,,,,,,,,,,,,,,,,,,,,,,,,,,,,,,,,,,,,,,,,,,,,,,,,
0,59,59,42,1,,60edcdb29cb14344e5d36ac0,62c539b8a3b80bd9e872dea2,2022-07-06_09h29.55.215,Colour_Asymmetry_Pilot,2022.1.3,Win32,60.08532116,62c50e9c1127f2cd403a315f,,,,,,,,,,,,,,,,,,,,,,,,,,,,,,,,,,,,,,,,,,,,,,,,,,,,,,,,,,,,,,,,,,,,,,,,,,,,,,,,,,,,,,,,,,,,,,,,,,,,,,,,,,,,,,,,,,,,,,,,,,,,,,,,,,,,,,,,,,,,,,,,,,,,,,,,,,,,,,,,,,,
0,60,60,15,1,,60edcdb29cb14344e5d36ac0,62c539b8a3b80bd9e872dea2,2022-07-06_09h29.55.215,Colour_Asymmetry_Pilot,2022.1.3,Win32,60.08532116,62c50e9c1127f2cd403a315f,,,,,,,,,,,,,,,,,,,,,,,,,,,,,,,,,,,,,,,,,,,,,,,,,,,,,,,,,,,,,,,,,,,,,,,,,,,,,,,,,,,,,,,,,,,,,,,,,,,,,,,,,,,,,,,,,,,,,,,,,,,,,,,,,,,,,,,,,,,,,,,,,,,,,,,,,,,,,,,,,,,
0,61,61,35,1,,60edcdb29cb14344e5d36ac0,62c539b8a3b80bd9e872dea2,2022-07-06_09h29.55.215,Colour_Asymmetry_Pilot,2022.1.3,Win32,60.08532116,62c50e9c1127f2cd403a315f,,,,,,,,,,,,,,,,,,,,,,,,,,,,,,,,,,,,,,,,,,,,,,,,,,,,,,,,,,,,,,,,,,,,,,,,,,,,,,,,,,,,,,,,,,,,,,,,,,,,,,,,,,,,,,,,,,,,,,,,,,,,,,,,,,,,,,,,,,,,,,,,,,,,,,,,,,,,,,,,,,,
0,62,62,36,1,,60edcdb29cb14344e5d36ac0,62c539b8a3b80bd9e872dea2,2022-07-06_09h29.55.215,Colour_Asymmetry_Pilot,2022.1.3,Win32,60.08532116,62c50e9c1127f2cd403a315f,,,,,,,,,,,,,,,,,,,,,,,,,,,,,,,,,,,,,,,,,,,,,,,,,,,,,,,,,,,,,,,,,,,,,,,,,,,,,,,,,,,,,,,,,,,,,,,,,,,,,,,,,,,,,,,,,,,,,,,,,,,,,,,,,,,,,,,,,,,,,,,,,,,,,,,,,,,,,,,,,,,
0,63,63,60,1,,60edcdb29cb14344e5d36ac0,62c539b8a3b80bd9e872dea2,2022-07-06_09h29.55.215,Colour_Asymmetry_Pilot,2022.1.3,Win32,60.08532116,62c50e9c1127f2cd403a315f,,,,,,,,,,,,,,,,,,,,,,,,,,,,,,,,,,,,,,,,,,,,,,,,,,,,,,,,,,,,,,,,,,,,,,,,,,,,,,,,,,,,,,,,,,,,,,,,,,,,,,,,,,,,,,,,,,,,,,,,,,,,,,,,,,,,,,,,,,,,,,,,,,,,,,,,,,,,,,,,,,,
0,64,64,1,1,,60edcdb29cb14344e5d36ac0,62c539b8a3b80bd9e872dea2,2022-07-06_09h29.55.215,Colour_Asymmetry_Pilot,2022.1.3,Win32,60.08532116,62c50e9c1127f2cd403a315f,,,,,,,,,,,,,,,,,,,,,,,,,,,,,,,,,,,,,,,,,,,,,,,,,,,,,,,,,,,,,,,,,,,,,,,,,,,,,,,,,,,,,,,,,,,,,,,,,,,,,,,,,,,,,,,,,,,,,,,,,,,,,,,,,,,,,,,,,,,,,,,,,,,,,,,,,,,,,,,,,,,
0,65,65,80,1,,60edcdb29cb14344e5d36ac0,62c539b8a3b80bd9e872dea2,2022-07-06_09h29.55.215,Colour_Asymmetry_Pilot,2022.1.3,Win32,60.08532116,62c50e9c1127f2cd403a315f,,,,,,,,,,,,,,,,,,,,,,,,,,,,,,,,,,,,,,,,,,,,,,,,,,,,,,,,,,,,,,,,,,,,,,,,,,,,,,,,,,,,,,,,,,,,,,,,,,,,,,,,,,,,,,,,,,,,,,,,,,,,,,,,,,,,,,,,,,,,,,,,,,,,,,,,,,,,,,,,,,,
0,66,66,11,1,,60edcdb29cb14344e5d36ac0,62c539b8a3b80bd9e872dea2,2022-07-06_09h29.55.215,Colour_Asymmetry_Pilot,2022.1.3,Win32,60.08532116,62c50e9c1127f2cd403a315f,,,,,,,,,,,,,,,,,,,,,,,,,,,,,,,,,,,,,,,,,,,,,,,,,,,,,,,,,,,,,,,,,,,,,,,,,,,,,,,,,,,,,,,,,,,,,,,,,,,,,,,,,,,,,,,,,,,,,,,,,,,,,,,,,,,,,,,,,,,,,,,,,,,,,,,,,,,,,,,,,,,
0,67,67,72,1,,60edcdb29cb14344e5d36ac0,62c539b8a3b80bd9e872dea2,2022-07-06_09h29.55.215,Colour_Asymmetry_Pilot,2022.1.3,Win32,60.08532116,62c50e9c1127f2cd403a315f,,,,,,,,,,,,,,,,,,,,,,,,,,,,,,,,,,,,,,,,,,,,,,,,,,,,,,,,,,,,,,,,,,,,,,,,,,,,,,,,,,,,,,,,,,,,,,,,,,,,,,,,,,,,,,,,,,,,,,,,,,,,,,,,,,,,,,,,,,,,,,,,,,,,,,,,,,,,,,,,,,,
0,68,68,30,1,,60edcdb29cb14344e5d36ac0,62c539b8a3b80bd9e872dea2,2022-07-06_09h29.55.215,Colour_Asymmetry_Pilot,2022.1.3,Win32,60.08532116,62c50e9c1127f2cd403a315f,,,,,,,,,,,,,,,,,,,,,,,,,,,,,,,,,,,,,,,,,,,,,,,,,,,,,,,,,,,,,,,,,,,,,,,,,,,,,,,,,,,,,,,,,,,,,,,,,,,,,,,,,,,,,,,,,,,,,,,,,,,,,,,,,,,,,,,,,,,,,,,,,,,,,,,,,,,,,,,,,,,
0,69,69,38,1,,60edcdb29cb14344e5d36ac0,62c539b8a3b80bd9e872dea2,2022-07-06_09h29.55.215,Colour_Asymmetry_Pilot,2022.1.3,Win32,60.08532116,62c50e9c1127f2cd403a315f,,,,,,,,,,,,,,,,,,,,,,,,,,,,,,,,,,,,,,,,,,,,,,,,,,,,,,,,,,,,,,,,,,,,,,,,,,,,,,,,,,,,,,,,,,,,,,,,,,,,,,,,,,,,,,,,,,,,,,,,,,,,,,,,,,,,,,,,,,,,,,,,,,,,,,,,,,,,,,,,,,,
0,70,70,56,1,,60edcdb29cb14344e5d36ac0,62c539b8a3b80bd9e872dea2,2022-07-06_09h29.55.215,Colour_Asymmetry_Pilot,2022.1.3,Win32,60.08532116,62c50e9c1127f2cd403a315f,,,,,,,,,,,,,,,,,,,,,,,,,,,,,,,,,,,,,,,,,,,,,,,,,,,,,,,,,,,,,,,,,,,,,,,,,,,,,,,,,,,,,,,,,,,,,,,,,,,,,,,,,,,,,,,,,,,,,,,,,,,,,,,,,,,,,,,,,,,,,,,,,,,,,,,,,,,,,,,,,,,
0,71,71,49,1,,60edcdb29cb14344e5d36ac0,62c539b8a3b80bd9e872dea2,2022-07-06_09h29.55.215,Colour_Asymmetry_Pilot,2022.1.3,Win32,60.08532116,62c50e9c1127f2cd403a315f,,,,,,,,,,,,,,,,,,,,,,,,,,,,,,,,,,,,,,,,,,,,,,,,,,,,,,,,,,,,,,,,,,,,,,,,,,,,,,,,,,,,,,,,,,,,,,,,,,,,,,,,,,,,,,,,,,,,,,,,,,,,,,,,,,,,,,,,,,,,,,,,,,,,,,,,,,,,,,,,,,,
0,72,72,14,1,,60edcdb29cb14344e5d36ac0,62c539b8a3b80bd9e872dea2,2022-07-06_09h29.55.215,Colour_Asymmetry_Pilot,2022.1.3,Win32,60.08532116,62c50e9c1127f2cd403a315f,,,,,,,,,,,,,,,,,,,,,,,,,,,,,,,,,,,,,,,,,,,,,,,,,,,,,,,,,,,,,,,,,,,,,,,,,,,,,,,,,,,,,,,,,,,,,,,,,,,,,,,,,,,,,,,,,,,,,,,,,,,,,,,,,,,,,,,,,,,,,,,,,,,,,,,,,,,,,,,,,,,
0,73,73,54,1,,60edcdb29cb14344e5d36ac0,62c539b8a3b80bd9e872dea2,2022-07-06_09h29.55.215,Colour_Asymmetry_Pilot,2022.1.3,Win32,60.08532116,62c50e9c1127f2cd403a315f,,,,,,,,,,,,,,,,,,,,,,,,,,,,,,,,,,,,,,,,,,,,,,,,,,,,,,,,,,,,,,,,,,,,,,,,,,,,,,,,,,,,,,,,,,,,,,,,,,,,,,,,,,,,,,,,,,,,,,,,,,,,,,,,,,,,,,,,,,,,,,,,,,,,,,,,,,,,,,,,,,,
0,74,74,40,1,,60edcdb29cb14344e5d36ac0,62c539b8a3b80bd9e872dea2,2022-07-06_09h29.55.215,Colour_Asymmetry_Pilot,2022.1.3,Win32,60.08532116,62c50e9c1127f2cd403a315f,,,,,,,,,,,,,,,,,,,,,,,,,,,,,,,,,,,,,,,,,,,,,,,,,,,,,,,,,,,,,,,,,,,,,,,,,,,,,,,,,,,,,,,,,,,,,,,,,,,,,,,,,,,,,,,,,,,,,,,,,,,,,,,,,,,,,,,,,,,,,,,,,,,,,,,,,,,,,,,,,,,
0,75,75,62,1,,60edcdb29cb14344e5d36ac0,62c539b8a3b80bd9e872dea2,2022-07-06_09h29.55.215,Colour_Asymmetry_Pilot,2022.1.3,Win32,60.08532116,62c50e9c1127f2cd403a315f,,,,,,,,,,,,,,,,,,,,,,,,,,,,,,,,,,,,,,,,,,,,,,,,,,,,,,,,,,,,,,,,,,,,,,,,,,,,,,,,,,,,,,,,,,,,,,,,,,,,,,,,,,,,,,,,,,,,,,,,,,,,,,,,,,,,,,,,,,,,,,,,,,,,,,,,,,,,,,,,,,,
0,76,76,59,1,,60edcdb29cb14344e5d36ac0,62c539b8a3b80bd9e872dea2,2022-07-06_09h29.55.215,Colour_Asymmetry_Pilot,2022.1.3,Win32,60.08532116,62c50e9c1127f2cd403a315f,,,,,,,,,,,,,,,,,,,,,,,,,,,,,,,,,,,,,,,,,,,,,,,,,,,,,,,,,,,,,,,,,,,,,,,,,,,,,,,,,,,,,,,,,,,,,,,,,,,,,,,,,,,,,,,,,,,,,,,,,,,,,,,,,,,,,,,,,,,,,,,,,,,,,,,,,,,,,,,,,,,
0,77,77,46,1,,60edcdb29cb14344e5d36ac0,62c539b8a3b80bd9e872dea2,2022-07-06_09h29.55.215,Colour_Asymmetry_Pilot,2022.1.3,Win32,60.08532116,62c50e9c1127f2cd403a315f,,,,,,,,,,,,,,,,,,,,,,,,,,,,,,,,,,,,,,,,,,,,,,,,,,,,,,,,,,,,,,,,,,,,,,,,,,,,,,,,,,,,,,,,,,,,,,,,,,,,,,,,,,,,,,,,,,,,,,,,,,,,,,,,,,,,,,,,,,,,,,,,,,,,,,,,,,,,,,,,,,,
0,78,78,76,1,,60edcdb29cb14344e5d36ac0,62c539b8a3b80bd9e872dea2,2022-07-06_09h29.55.215,Colour_Asymmetry_Pilot,2022.1.3,Win32,60.08532116,62c50e9c1127f2cd403a315f,,,,,,,,,,,,,,,,,,,,,,,,,,,,,,,,,,,,,,,,,,,,,,,,,,,,,,,,,,,,,,,,,,,,,,,,,,,,,,,,,,,,,,,,,,,,,,,,,,,,,,,,,,,,,,,,,,,,,,,,,,,,,,,,,,,,,,,,,,,,,,,,,,,,,,,,,,,,,,,,,,,
0,79,79,8,1,,60edcdb29cb14344e5d36ac0,62c539b8a3b80bd9e872dea2,2022-07-06_09h29.55.215,Colour_Asymmetry_Pilot,2022.1.3,Win32,60.08532116,62c50e9c1127f2cd403a315f,,,,,,,,,,,,,,,,,,,,,,,,,,,,,,,,,,,,,,,,,,,,,,,,,,,,,,,,,,,,,,,,,,,,,,,,,,,,,,,,,,,,,,,,,,,,,,,,,,,,,,,,,,,,,,,,,,,,,,,,,,,,,,,,,,,,,,,,,,,,,,,,,,,,,,,,,,,,,,,,,,,
0,80,80,86,1,,60edcdb29cb14344e5d36ac0,62c539b8a3b80bd9e872dea2,2022-07-06_09h29.55.215,Colour_Asymmetry_Pilot,2022.1.3,Win32,60.08532116,62c50e9c1127f2cd403a315f,,,,,,,,,,,,,,,,,,,,,,,,,,,,,,,,,,,,,,,,,,,,,,,,,,,,,,,,,,,,,,,,,,,,,,,,,,,,,,,,,,,,,,,,,,,,,,,,,,,,,,,,,,,,,,,,,,,,,,,,,,,,,,,,,,,,,,,,,,,,,,,,,,,,,,,,,,,,,,,,,,,
0,81,81,70,1,,60edcdb29cb14344e5d36ac0,62c539b8a3b80bd9e872dea2,2022-07-06_09h29.55.215,Colour_Asymmetry_Pilot,2022.1.3,Win32,60.08532116,62c50e9c1127f2cd403a315f,,,,,,,,,,,,,,,,,,,,,,,,,,,,,,,,,,,,,,,,,,,,,,,,,,,,,,,,,,,,,,,,,,,,,,,,,,,,,,,,,,,,,,,,,,,,,,,,,,,,,,,,,,,,,,,,,,,,,,,,,,,,,,,,,,,,,,,,,,,,,,,,,,,,,,,,,,,,,,,,,,,
0,82,82,24,1,,60edcdb29cb14344e5d36ac0,62c539b8a3b80bd9e872dea2,2022-07-06_09h29.55.215,Colour_Asymmetry_Pilot,2022.1.3,Win32,60.08532116,62c50e9c1127f2cd403a315f,,,,,,,,,,,,,,,,,,,,,,,,,,,,,,,,,,,,,,,,,,,,,,,,,,,,,,,,,,,,,,,,,,,,,,,,,,,,,,,,,,,,,,,,,,,,,,,,,,,,,,,,,,,,,,,,,,,,,,,,,,,,,,,,,,,,,,,,,,,,,,,,,,,,,,,,,,,,,,,,,,,
0,83,83,12,1,,60edcdb29cb14344e5d36ac0,62c539b8a3b80bd9e872dea2,2022-07-06_09h29.55.215,Colour_Asymmetry_Pilot,2022.1.3,Win32,60.08532116,62c50e9c1127f2cd403a315f,,,,,,,,,,,,,,,,,,,,,,,,,,,,,,,,,,,,,,,,,,,,,,,,,,,,,,,,,,,,,,,,,,,,,,,,,,,,,,,,,,,,,,,,,,,,,,,,,,,,,,,,,,,,,,,,,,,,,,,,,,,,,,,,,,,,,,,,,,,,,,,,,,,,,,,,,,,,,,,,,,,
0,84,84,23,1,,60edcdb29cb14344e5d36ac0,62c539b8a3b80bd9e872dea2,2022-07-06_09h29.55.215,Colour_Asymmetry_Pilot,2022.1.3,Win32,60.08532116,62c50e9c1127f2cd403a315f,,,,,,,,,,,,,,,,,,,,,,,,,,,,,,,,,,,,,,,,,,,,,,,,,,,,,,,,,,,,,,,,,,,,,,,,,,,,,,,,,,,,,,,,,,,,,,,,,,,,,,,,,,,,,,,,,,,,,,,,,,,,,,,,,,,,,,,,,,,,,,,,,,,,,,,,,,,,,,,,,,,
0,85,85,75,1,,60edcdb29cb14344e5d36ac0,62c539b8a3b80bd9e872dea2,2022-07-06_09h29.55.215,Colour_Asymmetry_Pilot,2022.1.3,Win32,60.08532116,62c50e9c1127f2cd403a315f,,,,,,,,,,,,,,,,,,,,,,,,,,,,,,,,,,,,,,,,,,,,,,,,,,,,,,,,,,,,,,,,,,,,,,,,,,,,,,,,,,,,,,,,,,,,,,,,,,,,,,,,,,,,,,,,,,,,,,,,,,,,,,,,,,,,,,,,,,,,,,,,,,,,,,,,,,,,,,,,,,,
0,86,86,66,1,,60edcdb29cb14344e5d36ac0,62c539b8a3b80bd9e872dea2,2022-07-06_09h29.55.215,Colour_Asymmetry_Pilot,2022.1.3,Win32,60.08532116,62c50e9c1127f2cd403a315f,,,,,,,,,,,,,,,,,,,,,,,,,,,,,,,,,,,,,,,,,,,,,,,,,,,,,,,,,,,,,,,,,,,,,,,,,,,,,,,,,,,,,,,,,,,,,,,,,,,,,,,,,,,,,,,,,,,,,,,,,,,,,,,,,,,,,,,,,,,,,,,,,,,,,,,,,,,,,,,,,,,
0,87,87,85,1,,60edcdb29cb14344e5d36ac0,62c539b8a3b80bd9e872dea2,2022-07-06_09h29.55.215,Colour_Asymmetry_Pilot,2022.1.3,Win32,60.08532116,62c50e9c1127f2cd403a315f,,,,,,,,,,,,,,,,,,,,,,,,,,,,,,,,,,,,,,,,,,,,,,,,,,,,,,,,,,,,,,,,,,,,,,,,,,,,,,,,,,,,,,,,,,,,,,,,,,,,,,,,,,,,,,,,,,,,,,,,,,,,,,,,,,,,,,,,,,,,,,,,,,,,,,,,,,,,,,,,,,,
0,88,88,28,1,,60edcdb29cb14344e5d36ac0,62c539b8a3b80bd9e872dea2,2022-07-06_09h29.55.215,Colour_Asymmetry_Pilot,2022.1.3,Win32,60.08532116,62c50e9c1127f2cd403a315f,,,,,,,,,,,,,,,,,,,,,,,,,,,,,,,,,,,,,,,,,,,,,,,,,,,,,,,,,,,,,,,,,,,,,,,,,,,,,,,,,,,,,,,,,,,,,,,,,,,,,,,,,,,,,,,,,,,,,,,,,,,,,,,,,,,,,,,,,,,,,,,,,,,,,,,,,,,,,,,,,,,
0,89,89,50,1,,60edcdb29cb14344e5d36ac0,62c539b8a3b80bd9e872dea2,2022-07-06_09h29.55.215,Colour_Asymmetry_Pilot,2022.1.3,Win32,60.08532116,62c50e9c1127f2cd403a315f,,,,,,,,,,,,,,,,,,,,,,,,,,,,,,,,,,,,,,,,,,,,,,,,,,,,,,,,,,,,,,,,,,,,,,,,,,,,,,,,,,,,,,,,,,,,,,,,,,,,,,,,,,,,,,,,,,,,,,,,,,,,,,,,,,,,,,,,,,,,,,,,,,,,,,,,,,,,,,,,,,,
0,90,90,52,1,,60edcdb29cb14344e5d36ac0,62c539b8a3b80bd9e872dea2,2022-07-06_09h29.55.215,Colour_Asymmetry_Pilot,2022.1.3,Win32,60.08532116,62c50e9c1127f2cd403a315f,,,,,,,,,,,,,,,,,,,,,,,,,,,,,,,,,,,,,,,,,,,,,,,,,,,,,,,,,,,,,,,,,,,,,,,,,,,,,,,,,,,,,,,,,,,,,,,,,,,,,,,,,,,,,,,,,,,,,,,,,,,,,,,,,,,,,,,,,,,,,,,,,,,,,,,,,,,,,,,,,,,
0,91,91,10,1,,60edcdb29cb14344e5d36ac0,62c539b8a3b80bd9e872dea2,2022-07-06_09h29.55.215,Colour_Asymmetry_Pilot,2022.1.3,Win32,60.08532116,62c50e9c1127f2cd403a315f,,,,,,,,,,,,,,,,,,,,,,,,,,,,,,,,,,,,,,,,,,,,,,,,,,,,,,,,,,,,,,,,,,,,,,,,,,,,,,,,,,,,,,,,,,,,,,,,,,,,,,,,,,,,,,,,,,,,,,,,,,,,,,,,,,,,,,,,,,,,,,,,,,,,,,,,,,,,,,,,,,,
0,92,92,29,1,,60edcdb29cb14344e5d36ac0,62c539b8a3b80bd9e872dea2,2022-07-06_09h29.55.215,Colour_Asymmetry_Pilot,2022.1.3,Win32,60.08532116,62c50e9c1127f2cd403a315f,,,,,,,,,,,,,,,,,,,,,,,,,,,,,,,,,,,,,,,,,,,,,,,,,,,,,,,,,,,,,,,,,,,,,,,,,,,,,,,,,,,,,,,,,,,,,,,,,,,,,,,,,,,,,,,,,,,,,,,,,,,,,,,,,,,,,,,,,,,,,,,,,,,,,,,,,,,,,,,,,,,
,,,,,,60edcdb29cb14344e5d36ac0,62c539b8a3b80bd9e872dea2,2022-07-06_09h29.55.215,Colour_Asymmetry_Pilot,2022.1.3,Win32,60.08532116,62c50e9c1127f2cd403a315f,0,0,0,5,1,threefour,,,,,,,,,,,,,,,,,,,,,,,,,,,,,,,,,,,,,,,,,,,,,,,,,,,,,,,,,,,,,,,,,,,,,,,,,,,,,,,,,,,,,,,,,,,,,,,,,,,,,,,,,,,,,,,,,,,,,,,,,,,,,,,,,,,,,,,,,,,,,,,,,,,,,,,,,,,,,
,,,,,,60edcdb29cb14344e5d36ac0,62c539b8a3b80bd9e872dea2,2022-07-06_09h29.55.215,Colour_Asymmetry_Pilot,2022.1.3,Win32,60.08532116,62c50e9c1127f2cd403a315f,0,1,1,31,1,fourthree,,,,,,,,,,,,,,,,,,,,,,,,,,,,,,,,,,,,,,,,,,,,,,,,,,,,,,,,,,,,,,,,,,,,,,,,,,,,,,,,,,,,,,,,,,,,,,,,,,,,,,,,,,,,,,,,,,,,,,,,,,,,,,,,,,,,,,,,,,,,,,,,,,,,,,,,,,,,,
,,,,,,60edcdb29cb14344e5d36ac0,62c539b8a3b80bd9e872dea2,2022-07-06_09h29.55.215,Colour_Asymmetry_Pilot,2022.1.3,Win32,60.08532116,62c50e9c1127f2cd403a315f,0,2,2,35,1,twofour,,,,,,,,,,,,,,,,,,,,,,,,,,,,,,,,,,,,,,,,,,,,,,,,,,,,,,,,,,,,,,,,,,,,,,,,,,,,,,,,,,,,,,,,,,,,,,,,,,,,,,,,,,,,,,,,,,,,,,,,,,,,,,,,,,,,,,,,,,,,,,,,,,,,,,,,,,,,,
,,,,,,60edcdb29cb14344e5d36ac0,62c539b8a3b80bd9e872dea2,2022-07-06_09h29.55.215,Colour_Asymmetry_Pilot,2022.1.3,Win32,60.08532116,62c50e9c1127f2cd403a315f,0,3,3,77,1,threefour,,,,,,,,,,,,,,,,,,,,,,,,,,,,,,,,,,,,,,,,,,,,,,,,,,,,,,,,,,,,,,,,,,,,,,,,,,,,,,,,,,,,,,,,,,,,,,,,,,,,,,,,,,,,,,,,,,,,,,,,,,,,,,,,,,,,,,,,,,,,,,,,,,,,,,,,,,,,,
,,,,,,60edcdb29cb14344e5d36ac0,62c539b8a3b80bd9e872dea2,2022-07-06_09h29.55.215,Colour_Asymmetry_Pilot,2022.1.3,Win32,60.08532116,62c50e9c1127f2cd403a315f,0,4,4,14,1,fourtwo,,,,,,,,,,,,,,,,,,,,,,,,,,,,,,,,,,,,,,,,,,,,,,,,,,,,,,,,,,,,,,,,,,,,,,,,,,,,,,,,,,,,,,,,,,,,,,,,,,,,,,,,,,,,,,,,,,,,,,,,,,,,,,,,,,,,,,,,,,,,,,,,,,,,,,,,,,,,,
,,,,,,60edcdb29cb14344e5d36ac0,62c539b8a3b80bd9e872dea2,2022-07-06_09h29.55.215,Colour_Asymmetry_Pilot,2022.1.3,Win32,60.08532116,62c50e9c1127f2cd403a315f,0,5,5,72,1,onetwo,,,,,,,,,,,,,,,,,,,,,,,,,,,,,,,,,,,,,,,,,,,,,,,,,,,,,,,,,,,,,,,,,,,,,,,,,,,,,,,,,,,,,,,,,,,,,,,,,,,,,,,,,,,,,,,,,,,,,,,,,,,,,,,,,,,,,,,,,,,,,,,,,,,,,,,,,,,,,
,,,,,,60edcdb29cb14344e5d36ac0,62c539b8a3b80bd9e872dea2,2022-07-06_09h29.55.215,Colour_Asymmetry_Pilot,2022.1.3,Win32,60.08532116,62c50e9c1127f2cd403a315f,0,6,6,12,1,threeone,,,,,,,,,,,,,,,,,,,,,,,,,,,,,,,,,,,,,,,,,,,,,,,,,,,,,,,,,,,,,,,,,,,,,,,,,,,,,,,,,,,,,,,,,,,,,,,,,,,,,,,,,,,,,,,,,,,,,,,,,,,,,,,,,,,,,,,,,,,,,,,,,,,,,,,,,,,,,
,,,,,,60edcdb29cb14344e5d36ac0,62c539b8a3b80bd9e872dea2,2022-07-06_09h29.55.215,Colour_Asymmetry_Pilot,2022.1.3,Win32,60.08532116,62c50e9c1127f2cd403a315f,0,7,7,42,1,twoone,,,,,,,,,,,,,,,,,,,,,,,,,,,,,,,,,,,,,,,,,,,,,,,,,,,,,,,,,,,,,,,,,,,,,,,,,,,,,,,,,,,,,,,,,,,,,,,,,,,,,,,,,,,,,,,,,,,,,,,,,,,,,,,,,,,,,,,,,,,,,,,,,,,,,,,,,,,,,
,,,,,,60edcdb29cb14344e5d36ac0,62c539b8a3b80bd9e872dea2,2022-07-06_09h29.55.215,Colour_Asymmetry_Pilot,2022.1.3,Win32,60.08532116,62c50e9c1127f2cd403a315f,0,8,8,126,1,fourtwo,,,,,,,,,,,,,,,,,,,,,,,,,,,,,,,,,,,,,,,,,,,,,,,,,,,,,,,,,,,,,,,,,,,,,,,,,,,,,,,,,,,,,,,,,,,,,,,,,,,,,,,,,,,,,,,,,,,,,,,,,,,,,,,,,,,,,,,,,,,,,,,,,,,,,,,,,,,,,
,,,,,,60edcdb29cb14344e5d36ac0,62c539b8a3b80bd9e872dea2,2022-07-06_09h29.55.215,Colour_Asymmetry_Pilot,2022.1.3,Win32,60.08532116,62c50e9c1127f2cd403a315f,0,9,9,92,1,threeone,,,,,,,,,,,,,,,,,,,,,,,,,,,,,,,,,,,,,,,,,,,,,,,,,,,,,,,,,,,,,,,,,,,,,,,,,,,,,,,,,,,,,,,,,,,,,,,,,,,,,,,,,,,,,,,,,,,,,,,,,,,,,,,,,,,,,,,,,,,,,,,,,,,,,,,,,,,,,
,,,,,,60edcdb29cb14344e5d36ac0,62c539b8a3b80bd9e872dea2,2022-07-06_09h29.55.215,Colour_Asymmetry_Pilot,2022.1.3,Win32,60.08532116,62c50e9c1127f2cd403a315f,0,10,10,139,1,twofour,,,,,,,,,,,,,,,,,,,,,,,,,,,,,,,,,,,,,,,,,,,,,,,,,,,,,,,,,,,,,,,,,,,,,,,,,,,,,,,,,,,,,,,,,,,,,,,,,,,,,,,,,,,,,,,,,,,,,,,,,,,,,,,,,,,,,,,,,,,,,,,,,,,,,,,,,,,,,
,,,,,,60edcdb29cb14344e5d36ac0,62c539b8a3b80bd9e872dea2,2022-07-06_09h29.55.215,Colour_Asymmetry_Pilot,2022.1.3,Win32,60.08532116,62c50e9c1127f2cd403a315f,0,11,11,115,1,twofour,,,,,,,,,,,,,,,,,,,,,,,,,,,,,,,,,,,,,,,,,,,,,,,,,,,,,,,,,,,,,,,,,,,,,,,,,,,,,,,,,,,,,,,,,,,,,,,,,,,,,,,,,,,,,,,,,,,,,,,,,,,,,,,,,,,,,,,,,,,,,,,,,,,,,,,,,,,,,
,,,,,,60edcdb29cb14344e5d36ac0,62c539b8a3b80bd9e872dea2,2022-07-06_09h29.55.215,Colour_Asymmetry_Pilot,2022.1.3,Win32,60.08532116,62c50e9c1127f2cd403a315f,0,12,12,65,1,onethree,,,,,,,,,,,,,,,,,,,,,,,,,,,,,,,,,,,,,,,,,,,,,,,,,,,,,,,,,,,,,,,,,,,,,,,,,,,,,,,,,,,,,,,,,,,,,,,,,,,,,,,,,,,,,,,,,,,,,,,,,,,,,,,,,,,,,,,,,,,,,,,,,,,,,,,,,,,,,
,,,,,,60edcdb29cb14344e5d36ac0,62c539b8a3b80bd9e872dea2,2022-07-06_09h29.55.215,Colour_Asymmetry_Pilot,2022.1.3,Win32,60.08532116,62c50e9c1127f2cd403a315f,0,13,13,84,1,threeone,,,,,,,,,,,,,,,,,,,,,,,,,,,,,,,,,,,,,,,,,,,,,,,,,,,,,,,,,,,,,,,,,,,,,,,,,,,,,,,,,,,,,,,,,,,,,,,,,,,,,,,,,,,,,,,,,,,,,,,,,,,,,,,,,,,,,,,,,,,,,,,,,,,,,,,,,,,,,
,,,,,,60edcdb29cb14344e5d36ac0,62c539b8a3b80bd9e872dea2,2022-07-06_09h29.55.215,Colour_Asymmetry_Pilot,2022.1.3,Win32,60.08532116,62c50e9c1127f2cd403a315f,0,14,14,107,1,twofour,,,,,,,,,,,,,,,,,,,,,,,,,,,,,,,,,,,,,,,,,,,,,,,,,,,,,,,,,,,,,,,,,,,,,,,,,,,,,,,,,,,,,,,,,,,,,,,,,,,,,,,,,,,,,,,,,,,,,,,,,,,,,,,,,,,,,,,,,,,,,,,,,,,,,,,,,,,,,
,,,,,,60edcdb29cb14344e5d36ac0,62c539b8a3b80bd9e872dea2,2022-07-06_09h29.55.215,Colour_Asymmetry_Pilot,2022.1.3,Win32,60.08532116,62c50e9c1127f2cd403a315f,0,15,15,124,1,threeone,,,,,,,,,,,,,,,,,,,,,,,,,,,,,,,,,,,,,,,,,,,,,,,,,,,,,,,,,,,,,,,,,,,,,,,,,,,,,,,,,,,,,,,,,,,,,,,,,,,,,,,,,,,,,,,,,,,,,,,,,,,,,,,,,,,,,,,,,,,,,,,,,,,,,,,,,,,,,
,,,,,,60edcdb29cb14344e5d36ac0,62c539b8a3b80bd9e872dea2,2022-07-06_09h29.55.215,Colour_Asymmetry_Pilot,2022.1.3,Win32,60.08532116,62c50e9c1127f2cd403a315f,0,16,16,57,1,onethree,,,,,,,,,,,,,,,,,,,,,,,,,,,,,,,,,,,,,,,,,,,,,,,,,,,,,,,,,,,,,,,,,,,,,,,,,,,,,,,,,,,,,,,,,,,,,,,,,,,,,,,,,,,,,,,,,,,,,,,,,,,,,,,,,,,,,,,,,,,,,,,,,,,,,,,,,,,,,
,,,,,,60edcdb29cb14344e5d36ac0,62c539b8a3b80bd9e872dea2,2022-07-06_09h29.55.215,Colour_Asymmetry_Pilot,2022.1.3,Win32,60.08532116,62c50e9c1127f2cd403a315f,0,17,17,131,1,twofour,,,,,,,,,,,,,,,,,,,,,,,,,,,,,,,,,,,,,,,,,,,,,,,,,,,,,,,,,,,,,,,,,,,,,,,,,,,,,,,,,,,,,,,,,,,,,,,,,,,,,,,,,,,,,,,,,,,,,,,,,,,,,,,,,,,,,,,,,,,,,,,,,,,,,,,,,,,,,
,,,,,,60edcdb29cb14344e5d36ac0,62c539b8a3b80bd9e872dea2,2022-07-06_09h29.55.215,Colour_Asymmetry_Pilot,2022.1.3,Win32,60.08532116,62c50e9c1127f2cd403a315f,0,18,18,3,1,twofour,,,,,,,,,,,,,,,,,,,,,,,,,,,,,,,,,,,,,,,,,,,,,,,,,,,,,,,,,,,,,,,,,,,,,,,,,,,,,,,,,,,,,,,,,,,,,,,,,,,,,,,,,,,,,,,,,,,,,,,,,,,,,,,,,,,,,,,,,,,,,,,,,,,,,,,,,,,,,
,,,,,,60edcdb29cb14344e5d36ac0,62c539b8a3b80bd9e872dea2,2022-07-06_09h29.55.215,Colour_Asymmetry_Pilot,2022.1.3,Win32,60.08532116,62c50e9c1127f2cd403a315f,0,19,19,160,1,onetwo,,,,,,,,,,,,,,,,,,,,,,,,,,,,,,,,,,,,,,,,,,,,,,,,,,,,,,,,,,,,,,,,,,,,,,,,,,,,,,,,,,,,,,,,,,,,,,,,,,,,,,,,,,,,,,,,,,,,,,,,,,,,,,,,,,,,,,,,,,,,,,,,,,,,,,,,,,,,,
,,,,,,60edcdb29cb14344e5d36ac0,62c539b8a3b80bd9e872dea2,2022-07-06_09h29.55.215,Colour_Asymmetry_Pilot,2022.1.3,Win32,60.08532116,62c50e9c1127f2cd403a315f,0,20,20,7,1,fourthree,,,,,,,,,,,,,,,,,,,,,,,,,,,,,,,,,,,,,,,,,,,,,,,,,,,,,,,,,,,,,,,,,,,,,,,,,,,,,,,,,,,,,,,,,,,,,,,,,,,,,,,,,,,,,,,,,,,,,,,,,,,,,,,,,,,,,,,,,,,,,,,,,,,,,,,,,,,,,
,,,,,,60edcdb29cb14344e5d36ac0,62c539b8a3b80bd9e872dea2,2022-07-06_09h29.55.215,Colour_Asymmetry_Pilot,2022.1.3,Win32,60.08532116,62c50e9c1127f2cd403a315f,0,21,21,55,1,fourthree,,,,,,,,,,,,,,,,,,,,,,,,,,,,,,,,,,,,,,,,,,,,,,,,,,,,,,,,,,,,,,,,,,,,,,,,,,,,,,,,,,,,,,,,,,,,,,,,,,,,,,,,,,,,,,,,,,,,,,,,,,,,,,,,,,,,,,,,,,,,,,,,,,,,,,,,,,,,,
,,,,,,60edcdb29cb14344e5d36ac0,62c539b8a3b80bd9e872dea2,2022-07-06_09h29.55.215,Colour_Asymmetry_Pilot,2022.1.3,Win32,60.08532116,62c50e9c1127f2cd403a315f,0,22,22,70,1,fourtwo,,,,,,,,,,,,,,,,,,,,,,,,,,,,,,,,,,,,,,,,,,,,,,,,,,,,,,,,,,,,,,,,,,,,,,,,,,,,,,,,,,,,,,,,,,,,,,,,,,,,,,,,,,,,,,,,,,,,,,,,,,,,,,,,,,,,,,,,,,,,,,,,,,,,,,,,,,,,,
,,,,,,60edcdb29cb14344e5d36ac0,62c539b8a3b80bd9e872dea2,2022-07-06_09h29.55.215,Colour_Asymmetry_Pilot,2022.1.3,Win32,60.08532116,62c50e9c1127f2cd403a315f,0,23,23,87,1,fourthree,,,,,,,,,,,,,,,,,,,,,,,,,,,,,,,,,,,,,,,,,,,,,,,,,,,,,,,,,,,,,,,,,,,,,,,,,,,,,,,,,,,,,,,,,,,,,,,,,,,,,,,,,,,,,,,,,,,,,,,,,,,,,,,,,,,,,,,,,,,,,,,,,,,,,,,,,,,,,
,,,,,,60edcdb29cb14344e5d36ac0,62c539b8a3b80bd9e872dea2,2022-07-06_09h29.55.215,Colour_Asymmetry_Pilot,2022.1.3,Win32,60.08532116,62c50e9c1127f2cd403a315f,0,24,24,108,1,threeone,,,,,,,,,,,,,,,,,,,,,,,,,,,,,,,,,,,,,,,,,,,,,,,,,,,,,,,,,,,,,,,,,,,,,,,,,,,,,,,,,,,,,,,,,,,,,,,,,,,,,,,,,,,,,,,,,,,,,,,,,,,,,,,,,,,,,,,,,,,,,,,,,,,,,,,,,,,,,
,,,,,,60edcdb29cb14344e5d36ac0,62c539b8a3b80bd9e872dea2,2022-07-06_09h29.55.215,Colour_Asymmetry_Pilot,2022.1.3,Win32,60.08532116,62c50e9c1127f2cd403a315f,0,25,25,136,1,onetwo,,,,,,,,,,,,,,,,,,,,,,,,,,,,,,,,,,,,,,,,,,,,,,,,,,,,,,,,,,,,,,,,,,,,,,,,,,,,,,,,,,,,,,,,,,,,,,,,,,,,,,,,,,,,,,,,,,,,,,,,,,,,,,,,,,,,,,,,,,,,,,,,,,,,,,,,,,,,,
,,,,,,60edcdb29cb14344e5d36ac0,62c539b8a3b80bd9e872dea2,2022-07-06_09h29.55.215,Colour_Asymmetry_Pilot,2022.1.3,Win32,60.08532116,62c50e9c1127f2cd403a315f,0,26,26,130,1,twoone,,,,,,,,,,,,,,,,,,,,,,,,,,,,,,,,,,,,,,,,,,,,,,,,,,,,,,,,,,,,,,,,,,,,,,,,,,,,,,,,,,,,,,,,,,,,,,,,,,,,,,,,,,,,,,,,,,,,,,,,,,,,,,,,,,,,,,,,,,,,,,,,,,,,,,,,,,,,,
,,,,,,60edcdb29cb14344e5d36ac0,62c539b8a3b80bd9e872dea2,2022-07-06_09h29.55.215,Colour_Asymmetry_Pilot,2022.1.3,Win32,60.08532116,62c50e9c1127f2cd403a315f,0,27,27,103,1,fourthree,,,,,,,,,,,,,,,,,,,,,,,,,,,,,,,,,,,,,,,,,,,,,,,,,,,,,,,,,,,,,,,,,,,,,,,,,,,,,,,,,,,,,,,,,,,,,,,,,,,,,,,,,,,,,,,,,,,,,,,,,,,,,,,,,,,,,,,,,,,,,,,,,,,,,,,,,,,,,
,,,,,,60edcdb29cb14344e5d36ac0,62c539b8a3b80bd9e872dea2,2022-07-06_09h29.55.215,Colour_Asymmetry_Pilot,2022.1.3,Win32,60.08532116,62c50e9c1127f2cd403a315f,0,28,28,45,1,threefour,,,,,,,,,,,,,,,,,,,,,,,,,,,,,,,,,,,,,,,,,,,,,,,,,,,,,,,,,,,,,,,,,,,,,,,,,,,,,,,,,,,,,,,,,,,,,,,,,,,,,,,,,,,,,,,,,,,,,,,,,,,,,,,,,,,,,,,,,,,,,,,,,,,,,,,,,,,,,
,,,,,,60edcdb29cb14344e5d36ac0,62c539b8a3b80bd9e872dea2,2022-07-06_09h29.55.215,Colour_Asymmetry_Pilot,2022.1.3,Win32,60.08532116,62c50e9c1127f2cd403a315f,0,29,29,90,1,twoone,,,,,,,,,,,,,,,,,,,,,,,,,,,,,,,,,,,,,,,,,,,,,,,,,,,,,,,,,,,,,,,,,,,,,,,,,,,,,,,,,,,,,,,,,,,,,,,,,,,,,,,,,,,,,,,,,,,,,,,,,,,,,,,,,,,,,,,,,,,,,,,,,,,,,,,,,,,,,
,,,,,,60edcdb29cb14344e5d36ac0,62c539b8a3b80bd9e872dea2,2022-07-06_09h29.55.215,Colour_Asymmetry_Pilot,2022.1.3,Win32,60.08532116,62c50e9c1127f2cd403a315f,0,30,30,138,1,twoone,,,,,,,,,,,,,,,,,,,,,,,,,,,,,,,,,,,,,,,,,,,,,,,,,,,,,,,,,,,,,,,,,,,,,,,,,,,,,,,,,,,,,,,,,,,,,,,,,,,,,,,,,,,,,,,,,,,,,,,,,,,,,,,,,,,,,,,,,,,,,,,,,,,,,,,,,,,,,
,,,,,,60edcdb29cb14344e5d36ac0,62c539b8a3b80bd9e872dea2,2022-07-06_09h29.55.215,Colour_Asymmetry_Pilot,2022.1.3,Win32,60.08532116,62c50e9c1127f2cd403a315f,0,31,31,29,1,threefour,,,,,,,,,,,,,,,,,,,,,,,,,,,,,,,,,,,,,,,,,,,,,,,,,,,,,,,,,,,,,,,,,,,,,,,,,,,,,,,,,,,,,,,,,,,,,,,,,,,,,,,,,,,,,,,,,,,,,,,,,,,,,,,,,,,,,,,,,,,,,,,,,,,,,,,,,,,,,
,,,,,,60edcdb29cb14344e5d36ac0,62c539b8a3b80bd9e872dea2,2022-07-06_09h29.55.215,Colour_Asymmetry_Pilot,2022.1.3,Win32,60.08532116,62c50e9c1127f2cd403a315f,0,32,32,50,1,twoone,,,,,,,,,,,,,,,,,,,,,,,,,,,,,,,,,,,,,,,,,,,,,,,,,,,,,,,,,,,,,,,,,,,,,,,,,,,,,,,,,,,,,,,,,,,,,,,,,,,,,,,,,,,,,,,,,,,,,,,,,,,,,,,,,,,,,,,,,,,,,,,,,,,,,,,,,,,,,
,,,,,,60edcdb29cb14344e5d36ac0,62c539b8a3b80bd9e872dea2,2022-07-06_09h29.55.215,Colour_Asymmetry_Pilot,2022.1.3,Win32,60.08532116,62c50e9c1127f2cd403a315f,0,33,33,21,1,threefour,,,,,,,,,,,,,,,,,,,,,,,,,,,,,,,,,,,,,,,,,,,,,,,,,,,,,,,,,,,,,,,,,,,,,,,,,,,,,,,,,,,,,,,,,,,,,,,,,,,,,,,,,,,,,,,,,,,,,,,,,,,,,,,,,,,,,,,,,,,,,,,,,,,,,,,,,,,,,
,,,,,,60edcdb29cb14344e5d36ac0,62c539b8a3b80bd9e872dea2,2022-07-06_09h29.55.215,Colour_Asymmetry_Pilot,2022.1.3,Win32,60.08532116,62c50e9c1127f2cd403a315f,0,34,34,161,1,onethree,,,,,,,,,,,,,,,,,,,,,,,,,,,,,,,,,,,,,,,,,,,,,,,,,,,,,,,,,,,,,,,,,,,,,,,,,,,,,,,,,,,,,,,,,,,,,,,,,,,,,,,,,,,,,,,,,,,,,,,,,,,,,,,,,,,,,,,,,,,,,,,,,,,,,,,,,,,,,
,,,,,,60edcdb29cb14344e5d36ac0,62c539b8a3b80bd9e872dea2,2022-07-06_09h29.55.215,Colour_Asymmetry_Pilot,2022.1.3,Win32,60.08532116,62c50e9c1127f2cd403a315f,0,35,35,101,1,threefour,,,,,,,,,,,,,,,,,,,,,,,,,,,,,,,,,,,,,,,,,,,,,,,,,,,,,,,,,,,,,,,,,,,,,,,,,,,,,,,,,,,,,,,,,,,,,,,,,,,,,,,,,,,,,,,,,,,,,,,,,,,,,,,,,,,,,,,,,,,,,,,,,,,,,,,,,,,,,
,,,,,,60edcdb29cb14344e5d36ac0,62c539b8a3b80bd9e872dea2,2022-07-06_09h29.55.215,Colour_Asymmetry_Pilot,2022.1.3,Win32,60.08532116,62c50e9c1127f2cd403a315f,0,36,36,46,1,fourtwo,,,,,,,,,,,,,,,,,,,,,,,,,,,,,,,,,,,,,,,,,,,,,,,,,,,,,,,,,,,,,,,,,,,,,,,,,,,,,,,,,,,,,,,,,,,,,,,,,,,,,,,,,,,,,,,,,,,,,,,,,,,,,,,,,,,,,,,,,,,,,,,,,,,,,,,,,,,,,
,,,,,,60edcdb29cb14344e5d36ac0,62c539b8a3b80bd9e872dea2,2022-07-06_09h29.55.215,Colour_Asymmetry_Pilot,2022.1.3,Win32,60.08532116,62c50e9c1127f2cd403a315f,0,37,37,49,1,onethree,,,,,,,,,,,,,,,,,,,,,,,,,,,,,,,,,,,,,,,,,,,,,,,,,,,,,,,,,,,,,,,,,,,,,,,,,,,,,,,,,,,,,,,,,,,,,,,,,,,,,,,,,,,,,,,,,,,,,,,,,,,,,,,,,,,,,,,,,,,,,,,,,,,,,,,,,,,,,
,,,,,,60edcdb29cb14344e5d36ac0,62c539b8a3b80bd9e872dea2,2022-07-06_09h29.55.215,Colour_Asymmetry_Pilot,2022.1.3,Win32,60.08532116,62c50e9c1127f2cd403a315f,0,38,38,88,1,onetwo,,,,,,,,,,,,,,,,,,,,,,,,,,,,,,,,,,,,,,,,,,,,,,,,,,,,,,,,,,,,,,,,,,,,,,,,,,,,,,,,,,,,,,,,,,,,,,,,,,,,,,,,,,,,,,,,,,,,,,,,,,,,,,,,,,,,,,,,,,,,,,,,,,,,,,,,,,,,,
,,,,,,60edcdb29cb14344e5d36ac0,62c539b8a3b80bd9e872dea2,2022-07-06_09h29.55.215,Colour_Asymmetry_Pilot,2022.1.3,Win32,60.08532116,62c50e9c1127f2cd403a315f,0,39,39,64,1,onetwo,,,,,,,,,,,,,,,,,,,,,,,,,,,,,,,,,,,,,,,,,,,,,,,,,,,,,,,,,,,,,,,,,,,,,,,,,,,,,,,,,,,,,,,,,,,,,,,,,,,,,,,,,,,,,,,,,,,,,,,,,,,,,,,,,,,,,,,,,,,,,,,,,,,,,,,,,,,,,
,,,,,,60edcdb29cb14344e5d36ac0,62c539b8a3b80bd9e872dea2,2022-07-06_09h29.55.215,Colour_Asymmetry_Pilot,2022.1.3,Win32,60.08532116,62c50e9c1127f2cd403a315f,0,40,40,67,1,twofour,,,,,,,,,,,,,,,,,,,,,,,,,,,,,,,,,,,,,,,,,,,,,,,,,,,,,,,,,,,,,,,,,,,,,,,,,,,,,,,,,,,,,,,,,,,,,,,,,,,,,,,,,,,,,,,,,,,,,,,,,,,,,,,,,,,,,,,,,,,,,,,,,,,,,,,,,,,,,
,,,,,,60edcdb29cb14344e5d36ac0,62c539b8a3b80bd9e872dea2,2022-07-06_09h29.55.215,Colour_Asymmetry_Pilot,2022.1.3,Win32,60.08532116,62c50e9c1127f2cd403a315f,0,41,41,40,1,onetwo,,,,,,,,,,,,,,,,,,,,,,,,,,,,,,,,,,,,,,,,,,,,,,,,,,,,,,,,,,,,,,,,,,,,,,,,,,,,,,,,,,,,,,,,,,,,,,,,,,,,,,,,,,,,,,,,,,,,,,,,,,,,,,,,,,,,,,,,,,,,,,,,,,,,,,,,,,,,,
,,,,,,60edcdb29cb14344e5d36ac0,62c539b8a3b80bd9e872dea2,2022-07-06_09h29.55.215,Colour_Asymmetry_Pilot,2022.1.3,Win32,60.08532116,62c50e9c1127f2cd403a315f,0,42,42,4,1,threeone,,,,,,,,,,,,,,,,,,,,,,,,,,,,,,,,,,,,,,,,,,,,,,,,,,,,,,,,,,,,,,,,,,,,,,,,,,,,,,,,,,,,,,,,,,,,,,,,,,,,,,,,,,,,,,,,,,,,,,,,,,,,,,,,,,,,,,,,,,,,,,,,,,,,,,,,,,,,,
,,,,,,60edcdb29cb14344e5d36ac0,62c539b8a3b80bd9e872dea2,2022-07-06_09h29.55.215,Colour_Asymmetry_Pilot,2022.1.3,Win32,60.08532116,62c50e9c1127f2cd403a315f,0,43,43,106,1,twoone,,,,,,,,,,,,,,,,,,,,,,,,,,,,,,,,,,,,,,,,,,,,,,,,,,,,,,,,,,,,,,,,,,,,,,,,,,,,,,,,,,,,,,,,,,,,,,,,,,,,,,,,,,,,,,,,,,,,,,,,,,,,,,,,,,,,,,,,,,,,,,,,,,,,,,,,,,,,,
,,,,,,60edcdb29cb14344e5d36ac0,62c539b8a3b80bd9e872dea2,2022-07-06_09h29.55.215,Colour_Asymmetry_Pilot,2022.1.3,Win32,60.08532116,62c50e9c1127f2cd403a315f,0,44,44,60,1,threeone,,,,,,,,,,,,,,,,,,,,,,,,,,,,,,,,,,,,,,,,,,,,,,,,,,,,,,,,,,,,,,,,,,,,,,,,,,,,,,,,,,,,,,,,,,,,,,,,,,,,,,,,,,,,,,,,,,,,,,,,,,,,,,,,,,,,,,,,,,,,,,,,,,,,,,,,,,,,,
,,,,,,60edcdb29cb14344e5d36ac0,62c539b8a3b80bd9e872dea2,2022-07-06_09h29.55.215,Colour_Asymmetry_Pilot,2022.1.3,Win32,60.08532116,62c50e9c1127f2cd403a315f,0,45,45,110,1,fourtwo,,,,,,,,,,,,,,,,,,,,,,,,,,,,,,,,,,,,,,,,,,,,,,,,,,,,,,,,,,,,,,,,,,,,,,,,,,,,,,,,,,,,,,,,,,,,,,,,,,,,,,,,,,,,,,,,,,,,,,,,,,,,,,,,,,,,,,,,,,,,,,,,,,,,,,,,,,,,,
,,,,,,60edcdb29cb14344e5d36ac0,62c539b8a3b80bd9e872dea2,2022-07-06_09h29.55.215,Colour_Asymmetry_Pilot,2022.1.3,Win32,60.08532116,62c50e9c1127f2cd403a315f,0,46,46,152,1,onetwo,,,,,,,,,,,,,,,,,,,,,,,,,,,,,,,,,,,,,,,,,,,,,,,,,,,,,,,,,,,,,,,,,,,,,,,,,,,,,,,,,,,,,,,,,,,,,,,,,,,,,,,,,,,,,,,,,,,,,,,,,,,,,,,,,,,,,,,,,,,,,,,,,,,,,,,,,,,,,
,,,,,,60edcdb29cb14344e5d36ac0,62c539b8a3b80bd9e872dea2,2022-07-06_09h29.55.215,Colour_Asymmetry_Pilot,2022.1.3,Win32,60.08532116,62c50e9c1127f2cd403a315f,0,47,47,82,1,twoone,,,,,,,,,,,,,,,,,,,,,,,,,,,,,,,,,,,,,,,,,,,,,,,,,,,,,,,,,,,,,,,,,,,,,,,,,,,,,,,,,,,,,,,,,,,,,,,,,,,,,,,,,,,,,,,,,,,,,,,,,,,,,,,,,,,,,,,,,,,,,,,,,,,,,,,,,,,,,
,,,,,,60edcdb29cb14344e5d36ac0,62c539b8a3b80bd9e872dea2,2022-07-06_09h29.55.215,Colour_Asymmetry_Pilot,2022.1.3,Win32,60.08532116,62c50e9c1127f2cd403a315f,0,48,48,81,1,onethree,,,,,,,,,,,,,,,,,,,,,,,,,,,,,,,,,,,,,,,,,,,,,,,,,,,,,,,,,,,,,,,,,,,,,,,,,,,,,,,,,,,,,,,,,,,,,,,,,,,,,,,,,,,,,,,,,,,,,,,,,,,,,,,,,,,,,,,,,,,,,,,,,,,,,,,,,,,,,
,,,,,,60edcdb29cb14344e5d36ac0,62c539b8a3b80bd9e872dea2,2022-07-06_09h29.55.215,Colour_Asymmetry_Pilot,2022.1.3,Win32,60.08532116,62c50e9c1127f2cd403a315f,0,49,49,43,1,twofour,,,,,,,,,,,,,,,,,,,,,,,,,,,,,,,,,,,,,,,,,,,,,,,,,,,,,,,,,,,,,,,,,,,,,,,,,,,,,,,,,,,,,,,,,,,,,,,,,,,,,,,,,,,,,,,,,,,,,,,,,,,,,,,,,,,,,,,,,,,,,,,,,,,,,,,,,,,,,
,,,,,,60edcdb29cb14344e5d36ac0,62c539b8a3b80bd9e872dea2,2022-07-06_09h29.55.215,Colour_Asymmetry_Pilot,2022.1.3,Win32,60.08532116,62c50e9c1127f2cd403a315f,0,50,50,125,1,threefour,,,,,,,,,,,,,,,,,,,,,,,,,,,,,,,,,,,,,,,,,,,,,,,,,,,,,,,,,,,,,,,,,,,,,,,,,,,,,,,,,,,,,,,,,,,,,,,,,,,,,,,,,,,,,,,,,,,,,,,,,,,,,,,,,,,,,,,,,,,,,,,,,,,,,,,,,,,,,
,,,,,,60edcdb29cb14344e5d36ac0,62c539b8a3b80bd9e872dea2,2022-07-06_09h29.55.215,Colour_Asymmetry_Pilot,2022.1.3,Win32,60.08532116,62c50e9c1127f2cd403a315f,0,51,51,104,1,onetwo,,,,,,,,,,,,,,,,,,,,,,,,,,,,,,,,,,,,,,,,,,,,,,,,,,,,,,,,,,,,,,,,,,,,,,,,,,,,,,,,,,,,,,,,,,,,,,,,,,,,,,,,,,,,,,,,,,,,,,,,,,,,,,,,,,,,,,,,,,,,,,,,,,,,,,,,,,,,,
,,,,,,60edcdb29cb14344e5d36ac0,62c539b8a3b80bd9e872dea2,2022-07-06_09h29.55.215,Colour_Asymmetry_Pilot,2022.1.3,Win32,60.08532116,62c50e9c1127f2cd403a315f,0,52,52,141,1,threefour,,,,,,,,,,,,,,,,,,,,,,,,,,,,,,,,,,,,,,,,,,,,,,,,,,,,,,,,,,,,,,,,,,,,,,,,,,,,,,,,,,,,,,,,,,,,,,,,,,,,,,,,,,,,,,,,,,,,,,,,,,,,,,,,,,,,,,,,,,,,,,,,,,,,,,,,,,,,,
,,,,,,60edcdb29cb14344e5d36ac0,62c539b8a3b80bd9e872dea2,2022-07-06_09h29.55.215,Colour_Asymmetry_Pilot,2022.1.3,Win32,60.08532116,62c50e9c1127f2cd403a315f,0,53,53,98,1,twoone,,,,,,,,,,,,,,,,,,,,,,,,,,,,,,,,,,,,,,,,,,,,,,,,,,,,,,,,,,,,,,,,,,,,,,,,,,,,,,,,,,,,,,,,,,,,,,,,,,,,,,,,,,,,,,,,,,,,,,,,,,,,,,,,,,,,,,,,,,,,,,,,,,,,,,,,,,,,,
,,,,,,60edcdb29cb14344e5d36ac0,62c539b8a3b80bd9e872dea2,2022-07-06_09h29.55.215,Colour_Asymmetry_Pilot,2022.1.3,Win32,60.08532116,62c50e9c1127f2cd403a315f,0,54,54,89,1,onethree,,,,,,,,,,,,,,,,,,,,,,,,,,,,,,,,,,,,,,,,,,,,,,,,,,,,,,,,,,,,,,,,,,,,,,,,,,,,,,,,,,,,,,,,,,,,,,,,,,,,,,,,,,,,,,,,,,,,,,,,,,,,,,,,,,,,,,,,,,,,,,,,,,,,,,,,,,,,,
,,,,,,60edcdb29cb14344e5d36ac0,62c539b8a3b80bd9e872dea2,2022-07-06_09h29.55.215,Colour_Asymmetry_Pilot,2022.1.3,Win32,60.08532116,62c50e9c1127f2cd403a315f,0,55,55,155,1,twofour,,,,,,,,,,,,,,,,,,,,,,,,,,,,,,,,,,,,,,,,,,,,,,,,,,,,,,,,,,,,,,,,,,,,,,,,,,,,,,,,,,,,,,,,,,,,,,,,,,,,,,,,,,,,,,,,,,,,,,,,,,,,,,,,,,,,,,,,,,,,,,,,,,,,,,,,,,,,,
,,,,,,60edcdb29cb14344e5d36ac0,62c539b8a3b80bd9e872dea2,2022-07-06_09h29.55.215,Colour_Asymmetry_Pilot,2022.1.3,Win32,60.08532116,62c50e9c1127f2cd403a315f,0,56,56,53,1,threefour,,,,,,,,,,,,,,,,,,,,,,,,,,,,,,,,,,,,,,,,,,,,,,,,,,,,,,,,,,,,,,,,,,,,,,,,,,,,,,,,,,,,,,,,,,,,,,,,,,,,,,,,,,,,,,,,,,,,,,,,,,,,,,,,,,,,,,,,,,,,,,,,,,,,,,,,,,,,,
,,,,,,60edcdb29cb14344e5d36ac0,62c539b8a3b80bd9e872dea2,2022-07-06_09h29.55.215,Colour_Asymmetry_Pilot,2022.1.3,Win32,60.08532116,62c50e9c1127f2cd403a315f,0,57,57,17,1,onethree,,,,,,,,,,,,,,,,,,,,,,,,,,,,,,,,,,,,,,,,,,,,,,,,,,,,,,,,,,,,,,,,,,,,,,,,,,,,,,,,,,,,,,,,,,,,,,,,,,,,,,,,,,,,,,,,,,,,,,,,,,,,,,,,,,,,,,,,,,,,,,,,,,,,,,,,,,,,,
,,,,,,60edcdb29cb14344e5d36ac0,62c539b8a3b80bd9e872dea2,2022-07-06_09h29.55.215,Colour_Asymmetry_Pilot,2022.1.3,Win32,60.08532116,62c50e9c1127f2cd403a315f,0,58,58,63,1,fourthree,,,,,,,,,,,,,,,,,,,,,,,,,,,,,,,,,,,,,,,,,,,,,,,,,,,,,,,,,,,,,,,,,,,,,,,,,,,,,,,,,,,,,,,,,,,,,,,,,,,,,,,,,,,,,,,,,,,,,,,,,,,,,,,,,,,,,,,,,,,,,,,,,,,,,,,,,,,,,
,,,,,,60edcdb29cb14344e5d36ac0,62c539b8a3b80bd9e872dea2,2022-07-06_09h29.55.215,Colour_Asymmetry_Pilot,2022.1.3,Win32,60.08532116,62c50e9c1127f2cd403a315f,0,59,59,13,1,threefour,,,,,,,,,,,,,,,,,,,,,,,,,,,,,,,,,,,,,,,,,,,,,,,,,,,,,,,,,,,,,,,,,,,,,,,,,,,,,,,,,,,,,,,,,,,,,,,,,,,,,,,,,,,,,,,,,,,,,,,,,,,,,,,,,,,,,,,,,,,,,,,,,,,,,,,,,,,,,
,,,,,,60edcdb29cb14344e5d36ac0,62c539b8a3b80bd9e872dea2,2022-07-06_09h29.55.215,Colour_Asymmetry_Pilot,2022.1.3,Win32,60.08532116,62c50e9c1127f2cd403a315f,0,60,60,58,1,twoone,,,,,,,,,,,,,,,,,,,,,,,,,,,,,,,,,,,,,,,,,,,,,,,,,,,,,,,,,,,,,,,,,,,,,,,,,,,,,,,,,,,,,,,,,,,,,,,,,,,,,,,,,,,,,,,,,,,,,,,,,,,,,,,,,,,,,,,,,,,,,,,,,,,,,,,,,,,,,
,,,,,,60edcdb29cb14344e5d36ac0,62c539b8a3b80bd9e872dea2,2022-07-06_09h29.55.215,Colour_Asymmetry_Pilot,2022.1.3,Win32,60.08532116,62c50e9c1127f2cd403a315f,0,61,61,37,1,threefour,,,,,,,,,,,,,,,,,,,,,,,,,,,,,,,,,,,,,,,,,,,,,,,,,,,,,,,,,,,,,,,,,,,,,,,,,,,,,,,,,,,,,,,,,,,,,,,,,,,,,,,,,,,,,,,,,,,,,,,,,,,,,,,,,,,,,,,,,,,,,,,,,,,,,,,,,,,,,
,,,,,,60edcdb29cb14344e5d36ac0,62c539b8a3b80bd9e872dea2,2022-07-06_09h29.55.215,Colour_Asymmetry_Pilot,2022.1.3,Win32,60.08532116,62c50e9c1127f2cd403a315f,0,62,62,127,1,fourthree,,,,,,,,,,,,,,,,,,,,,,,,,,,,,,,,,,,,,,,,,,,,,,,,,,,,,,,,,,,,,,,,,,,,,,,,,,,,,,,,,,,,,,,,,,,,,,,,,,,,,,,,,,,,,,,,,,,,,,,,,,,,,,,,,,,,,,,,,,,,,,,,,,,,,,,,,,,,,
,,,,,,60edcdb29cb14344e5d36ac0,62c539b8a3b80bd9e872dea2,2022-07-06_09h29.55.215,Colour_Asymmetry_Pilot,2022.1.3,Win32,60.08532116,62c50e9c1127f2cd403a315f,0,63,63,95,1,fourthree,,,,,,,,,,,,,,,,,,,,,,,,,,,,,,,,,,,,,,,,,,,,,,,,,,,,,,,,,,,,,,,,,,,,,,,,,,,,,,,,,,,,,,,,,,,,,,,,,,,,,,,,,,,,,,,,,,,,,,,,,,,,,,,,,,,,,,,,,,,,,,,,,,,,,,,,,,,,,
,,,,,,60edcdb29cb14344e5d36ac0,62c539b8a3b80bd9e872dea2,2022-07-06_09h29.55.215,Colour_Asymmetry_Pilot,2022.1.3,Win32,60.08532116,62c50e9c1127f2cd403a315f,0,64,64,9,1,onethree,,,,,,,,,,,,,,,,,,,,,,,,,,,,,,,,,,,,,,,,,,,,,,,,,,,,,,,,,,,,,,,,,,,,,,,,,,,,,,,,,,,,,,,,,,,,,,,,,,,,,,,,,,,,,,,,,,,,,,,,,,,,,,,,,,,,,,,,,,,,,,,,,,,,,,,,,,,,,
,,,,,,60edcdb29cb14344e5d36ac0,62c539b8a3b80bd9e872dea2,2022-07-06_09h29.55.215,Colour_Asymmetry_Pilot,2022.1.3,Win32,60.08532116,62c50e9c1127f2cd403a315f,0,65,65,59,1,twofour,,,,,,,,,,,,,,,,,,,,,,,,,,,,,,,,,,,,,,,,,,,,,,,,,,,,,,,,,,,,,,,,,,,,,,,,,,,,,,,,,,,,,,,,,,,,,,,,,,,,,,,,,,,,,,,,,,,,,,,,,,,,,,,,,,,,,,,,,,,,,,,,,,,,,,,,,,,,,
,,,,,,60edcdb29cb14344e5d36ac0,62c539b8a3b80bd9e872dea2,2022-07-06_09h29.55.215,Colour_Asymmetry_Pilot,2022.1.3,Win32,60.08532116,62c50e9c1127f2cd403a315f,0,66,66,52,1,threeone,,,,,,,,,,,,,,,,,,,,,,,,,,,,,,,,,,,,,,,,,,,,,,,,,,,,,,,,,,,,,,,,,,,,,,,,,,,,,,,,,,,,,,,,,,,,,,,,,,,,,,,,,,,,,,,,,,,,,,,,,,,,,,,,,,,,,,,,,,,,,,,,,,,,,,,,,,,,,
,,,,,,60edcdb29cb14344e5d36ac0,62c539b8a3b80bd9e872dea2,2022-07-06_09h29.55.215,Colour_Asymmetry_Pilot,2022.1.3,Win32,60.08532116,62c50e9c1127f2cd403a315f,0,67,67,15,1,fourthree,,,,,,,,,,,,,,,,,,,,,,,,,,,,,,,,,,,,,,,,,,,,,,,,,,,,,,,,,,,,,,,,,,,,,,,,,,,,,,,,,,,,,,,,,,,,,,,,,,,,,,,,,,,,,,,,,,,,,,,,,,,,,,,,,,,,,,,,,,,,,,,,,,,,,,,,,,,,,
,,,,,,60edcdb29cb14344e5d36ac0,62c539b8a3b80bd9e872dea2,2022-07-06_09h29.55.215,Colour_Asymmetry_Pilot,2022.1.3,Win32,60.08532116,62c50e9c1127f2cd403a315f,0,68,68,76,1,threeone,,,,,,,,,,,,,,,,,,,,,,,,,,,,,,,,,,,,,,,,,,,,,,,,,,,,,,,,,,,,,,,,,,,,,,,,,,,,,,,,,,,,,,,,,,,,,,,,,,,,,,,,,,,,,,,,,,,,,,,,,,,,,,,,,,,,,,,,,,,,,,,,,,,,,,,,,,,,,
,,,,,,60edcdb29cb14344e5d36ac0,62c539b8a3b80bd9e872dea2,2022-07-06_09h29.55.215,Colour_Asymmetry_Pilot,2022.1.3,Win32,60.08532116,62c50e9c1127f2cd403a315f,0,69,69,119,1,fourthree,,,,,,,,,,,,,,,,,,,,,,,,,,,,,,,,,,,,,,,,,,,,,,,,,,,,,,,,,,,,,,,,,,,,,,,,,,,,,,,,,,,,,,,,,,,,,,,,,,,,,,,,,,,,,,,,,,,,,,,,,,,,,,,,,,,,,,,,,,,,,,,,,,,,,,,,,,,,,
,,,,,,60edcdb29cb14344e5d36ac0,62c539b8a3b80bd9e872dea2,2022-07-06_09h29.55.215,Colour_Asymmetry_Pilot,2022.1.3,Win32,60.08532116,62c50e9c1127f2cd403a315f,0,70,70,48,1,onetwo,,,,,,,,,,,,,,,,,,,,,,,,,,,,,,,,,,,,,,,,,,,,,,,,,,,,,,,,,,,,,,,,,,,,,,,,,,,,,,,,,,,,,,,,,,,,,,,,,,,,,,,,,,,,,,,,,,,,,,,,,,,,,,,,,,,,,,,,,,,,,,,,,,,,,,,,,,,,,
,,,,,,60edcdb29cb14344e5d36ac0,62c539b8a3b80bd9e872dea2,2022-07-06_09h29.55.215,Colour_Asymmetry_Pilot,2022.1.3,Win32,60.08532116,62c50e9c1127f2cd403a315f,0,71,71,134,1,fourtwo,,,,,,,,,,,,,,,,,,,,,,,,,,,,,,,,,,,,,,,,,,,,,,,,,,,,,,,,,,,,,,,,,,,,,,,,,,,,,,,,,,,,,,,,,,,,,,,,,,,,,,,,,,,,,,,,,,,,,,,,,,,,,,,,,,,,,,,,,,,,,,,,,,,,,,,,,,,,,
,,,,,,60edcdb29cb14344e5d36ac0,62c539b8a3b80bd9e872dea2,2022-07-06_09h29.55.215,Colour_Asymmetry_Pilot,2022.1.3,Win32,60.08532116,62c50e9c1127f2cd403a315f,0,72,72,132,1,threeone,,,,,,,,,,,,,,,,,,,,,,,,,,,,,,,,,,,,,,,,,,,,,,,,,,,,,,,,,,,,,,,,,,,,,,,,,,,,,,,,,,,,,,,,,,,,,,,,,,,,,,,,,,,,,,,,,,,,,,,,,,,,,,,,,,,,,,,,,,,,,,,,,,,,,,,,,,,,,
,,,,,,60edcdb29cb14344e5d36ac0,62c539b8a3b80bd9e872dea2,2022-07-06_09h29.55.215,Colour_Asymmetry_Pilot,2022.1.3,Win32,60.08532116,62c50e9c1127f2cd403a315f,0,73,73,113,1,onethree,,,,,,,,,,,,,,,,,,,,,,,,,,,,,,,,,,,,,,,,,,,,,,,,,,,,,,,,,,,,,,,,,,,,,,,,,,,,,,,,,,,,,,,,,,,,,,,,,,,,,,,,,,,,,,,,,,,,,,,,,,,,,,,,,,,,,,,,,,,,,,,,,,,,,,,,,,,,,
,,,,,,60edcdb29cb14344e5d36ac0,62c539b8a3b80bd9e872dea2,2022-07-06_09h29.55.215,Colour_Asymmetry_Pilot,2022.1.3,Win32,60.08532116,62c50e9c1127f2cd403a315f,0,74,74,150,1,fourtwo,,,,,,,,,,,,,,,,,,,,,,,,,,,,,,,,,,,,,,,,,,,,,,,,,,,,,,,,,,,,,,,,,,,,,,,,,,,,,,,,,,,,,,,,,,,,,,,,,,,,,,,,,,,,,,,,,,,,,,,,,,,,,,,,,,,,,,,,,,,,,,,,,,,,,,,,,,,,,
,,,,,,60edcdb29cb14344e5d36ac0,62c539b8a3b80bd9e872dea2,2022-07-06_09h29.55.215,Colour_Asymmetry_Pilot,2022.1.3,Win32,60.08532116,62c50e9c1127f2cd403a315f,0,75,75,11,1,twofour,,,,,,,,,,,,,,,,,,,,,,,,,,,,,,,,,,,,,,,,,,,,,,,,,,,,,,,,,,,,,,,,,,,,,,,,,,,,,,,,,,,,,,,,,,,,,,,,,,,,,,,,,,,,,,,,,,,,,,,,,,,,,,,,,,,,,,,,,,,,,,,,,,,,,,,,,,,,,
,,,,,,60edcdb29cb14344e5d36ac0,62c539b8a3b80bd9e872dea2,2022-07-06_09h29.55.215,Colour_Asymmetry_Pilot,2022.1.3,Win32,60.08532116,62c50e9c1127f2cd403a315f,0,76,76,56,1,onetwo,,,,,,,,,,,,,,,,,,,,,,,,,,,,,,,,,,,,,,,,,,,,,,,,,,,,,,,,,,,,,,,,,,,,,,,,,,,,,,,,,,,,,,,,,,,,,,,,,,,,,,,,,,,,,,,,,,,,,,,,,,,,,,,,,,,,,,,,,,,,,,,,,,,,,,,,,,,,,
,,,,,,60edcdb29cb14344e5d36ac0,62c539b8a3b80bd9e872dea2,2022-07-06_09h29.55.215,Colour_Asymmetry_Pilot,2022.1.3,Win32,60.08532116,62c50e9c1127f2cd403a315f,0,77,77,99,1,twofour,,,,,,,,,,,,,,,,,,,,,,,,,,,,,,,,,,,,,,,,,,,,,,,,,,,,,,,,,,,,,,,,,,,,,,,,,,,,,,,,,,,,,,,,,,,,,,,,,,,,,,,,,,,,,,,,,,,,,,,,,,,,,,,,,,,,,,,,,,,,,,,,,,,,,,,,,,,,,
,,,,,,60edcdb29cb14344e5d36ac0,62c539b8a3b80bd9e872dea2,2022-07-06_09h29.55.215,Colour_Asymmetry_Pilot,2022.1.3,Win32,60.08532116,62c50e9c1127f2cd403a315f,0,78,78,10,1,twoone,,,,,,,,,,,,,,,,,,,,,,,,,,,,,,,,,,,,,,,,,,,,,,,,,,,,,,,,,,,,,,,,,,,,,,,,,,,,,,,,,,,,,,,,,,,,,,,,,,,,,,,,,,,,,,,,,,,,,,,,,,,,,,,,,,,,,,,,,,,,,,,,,,,,,,,,,,,,,
,,,,,,60edcdb29cb14344e5d36ac0,62c539b8a3b80bd9e872dea2,2022-07-06_09h29.55.215,Colour_Asymmetry_Pilot,2022.1.3,Win32,60.08532116,62c50e9c1127f2cd403a315f,0,79,79,120,1,onetwo,,,,,,,,,,,,,,,,,,,,,,,,,,,,,,,,,,,,,,,,,,,,,,,,,,,,,,,,,,,,,,,,,,,,,,,,,,,,,,,,,,,,,,,,,,,,,,,,,,,,,,,,,,,,,,,,,,,,,,,,,,,,,,,,,,,,,,,,,,,,,,,,,,,,,,,,,,,,,
,,,,,,60edcdb29cb14344e5d36ac0,62c539b8a3b80bd9e872dea2,2022-07-06_09h29.55.215,Colour_Asymmetry_Pilot,2022.1.3,Win32,60.08532116,62c50e9c1127f2cd403a315f,0,80,80,25,1,onethree,,,,,,,,,,,,,,,,,,,,,,,,,,,,,,,,,,,,,,,,,,,,,,,,,,,,,,,,,,,,,,,,,,,,,,,,,,,,,,,,,,,,,,,,,,,,,,,,,,,,,,,,,,,,,,,,,,,,,,,,,,,,,,,,,,,,,,,,,,,,,,,,,,,,,,,,,,,,,
,,,,,,60edcdb29cb14344e5d36ac0,62c539b8a3b80bd9e872dea2,2022-07-06_09h29.55.215,Colour_Asymmetry_Pilot,2022.1.3,Win32,60.08532116,62c50e9c1127f2cd403a315f,0,81,81,66,1,twoone,,,,,,,,,,,,,,,,,,,,,,,,,,,,,,,,,,,,,,,,,,,,,,,,,,,,,,,,,,,,,,,,,,,,,,,,,,,,,,,,,,,,,,,,,,,,,,,,,,,,,,,,,,,,,,,,,,,,,,,,,,,,,,,,,,,,,,,,,,,,,,,,,,,,,,,,,,,,,
,,,,,,60edcdb29cb14344e5d36ac0,62c539b8a3b80bd9e872dea2,2022-07-06_09h29.55.215,Colour_Asymmetry_Pilot,2022.1.3,Win32,60.08532116,62c50e9c1127f2cd403a315f,0,82,82,8,1,onetwo,,,,,,,,,,,,,,,,,,,,,,,,,,,,,,,,,,,,,,,,,,,,,,,,,,,,,,,,,,,,,,,,,,,,,,,,,,,,,,,,,,,,,,,,,,,,,,,,,,,,,,,,,,,,,,,,,,,,,,,,,,,,,,,,,,,,,,,,,,,,,,,,,,,,,,,,,,,,,
,,,,,,60edcdb29cb14344e5d36ac0,62c539b8a3b80bd9e872dea2,2022-07-06_09h29.55.215,Colour_Asymmetry_Pilot,2022.1.3,Win32,60.08532116,62c50e9c1127f2cd403a315f,0,83,83,96,1,onetwo,,,,,,,,,,,,,,,,,,,,,,,,,,,,,,,,,,,,,,,,,,,,,,,,,,,,,,,,,,,,,,,,,,,,,,,,,,,,,,,,,,,,,,,,,,,,,,,,,,,,,,,,,,,,,,,,,,,,,,,,,,,,,,,,,,,,,,,,,,,,,,,,,,,,,,,,,,,,,
,,,,,,60edcdb29cb14344e5d36ac0,62c539b8a3b80bd9e872dea2,2022-07-06_09h29.55.215,Colour_Asymmetry_Pilot,2022.1.3,Win32,60.08532116,62c50e9c1127f2cd403a315f,0,84,84,97,1,onethree,,,,,,,,,,,,,,,,,,,,,,,,,,,,,,,,,,,,,,,,,,,,,,,,,,,,,,,,,,,,,,,,,,,,,,,,,,,,,,,,,,,,,,,,,,,,,,,,,,,,,,,,,,,,,,,,,,,,,,,,,,,,,,,,,,,,,,,,,,,,,,,,,,,,,,,,,,,,,
,,,,,,60edcdb29cb14344e5d36ac0,62c539b8a3b80bd9e872dea2,2022-07-06_09h29.55.215,Colour_Asymmetry_Pilot,2022.1.3,Win32,60.08532116,62c50e9c1127f2cd403a315f,0,85,85,145,1,onethree,,,,,,,,,,,,,,,,,,,,,,,,,,,,,,,,,,,,,,,,,,,,,,,,,,,,,,,,,,,,,,,,,,,,,,,,,,,,,,,,,,,,,,,,,,,,,,,,,,,,,,,,,,,,,,,,,,,,,,,,,,,,,,,,,,,,,,,,,,,,,,,,,,,,,,,,,,,,,
,,,,,,60edcdb29cb14344e5d36ac0,62c539b8a3b80bd9e872dea2,2022-07-06_09h29.55.215,Colour_Asymmetry_Pilot,2022.1.3,Win32,60.08532116,62c50e9c1127f2cd403a315f,0,86,86,151,1,fourthree,,,,,,,,,,,,,,,,,,,,,,,,,,,,,,,,,,,,,,,,,,,,,,,,,,,,,,,,,,,,,,,,,,,,,,,,,,,,,,,,,,,,,,,,,,,,,,,,,,,,,,,,,,,,,,,,,,,,,,,,,,,,,,,,,,,,,,,,,,,,,,,,,,,,,,,,,,,,,
,,,,,,60edcdb29cb14344e5d36ac0,62c539b8a3b80bd9e872dea2,2022-07-06_09h29.55.215,Colour_Asymmetry_Pilot,2022.1.3,Win32,60.08532116,62c50e9c1127f2cd403a315f,0,87,87,133,1,threefour,,,,,,,,,,,,,,,,,,,,,,,,,,,,,,,,,,,,,,,,,,,,,,,,,,,,,,,,,,,,,,,,,,,,,,,,,,,,,,,,,,,,,,,,,,,,,,,,,,,,,,,,,,,,,,,,,,,,,,,,,,,,,,,,,,,,,,,,,,,,,,,,,,,,,,,,,,,,,
,,,,,,60edcdb29cb14344e5d36ac0,62c539b8a3b80bd9e872dea2,2022-07-06_09h29.55.215,Colour_Asymmetry_Pilot,2022.1.3,Win32,60.08532116,62c50e9c1127f2cd403a315f,0,88,88,33,1,onethree,,,,,,,,,,,,,,,,,,,,,,,,,,,,,,,,,,,,,,,,,,,,,,,,,,,,,,,,,,,,,,,,,,,,,,,,,,,,,,,,,,,,,,,,,,,,,,,,,,,,,,,,,,,,,,,,,,,,,,,,,,,,,,,,,,,,,,,,,,,,,,,,,,,,,,,,,,,,,
,,,,,,60edcdb29cb14344e5d36ac0,62c539b8a3b80bd9e872dea2,2022-07-06_09h29.55.215,Colour_Asymmetry_Pilot,2022.1.3,Win32,60.08532116,62c50e9c1127f2cd403a315f,0,89,89,38,1,fourtwo,,,,,,,,,,,,,,,,,,,,,,,,,,,,,,,,,,,,,,,,,,,,,,,,,,,,,,,,,,,,,,,,,,,,,,,,,,,,,,,,,,,,,,,,,,,,,,,,,,,,,,,,,,,,,,,,,,,,,,,,,,,,,,,,,,,,,,,,,,,,,,,,,,,,,,,,,,,,,
,,,,,,60edcdb29cb14344e5d36ac0,62c539b8a3b80bd9e872dea2,2022-07-06_09h29.55.215,Colour_Asymmetry_Pilot,2022.1.3,Win32,60.08532116,62c50e9c1127f2cd403a315f,0,90,90,47,1,fourthree,,,,,,,,,,,,,,,,,,,,,,,,,,,,,,,,,,,,,,,,,,,,,,,,,,,,,,,,,,,,,,,,,,,,,,,,,,,,,,,,,,,,,,,,,,,,,,,,,,,,,,,,,,,,,,,,,,,,,,,,,,,,,,,,,,,,,,,,,,,,,,,,,,,,,,,,,,,,,
,,,,,,60edcdb29cb14344e5d36ac0,62c539b8a3b80bd9e872dea2,2022-07-06_09h29.55.215,Colour_Asymmetry_Pilot,2022.1.3,Win32,60.08532116,62c50e9c1127f2cd403a315f,0,91,91,51,1,twofour,,,,,,,,,,,,,,,,,,,,,,,,,,,,,,,,,,,,,,,,,,,,,,,,,,,,,,,,,,,,,,,,,,,,,,,,,,,,,,,,,,,,,,,,,,,,,,,,,,,,,,,,,,,,,,,,,,,,,,,,,,,,,,,,,,,,,,,,,,,,,,,,,,,,,,,,,,,,,
,,,,,,60edcdb29cb14344e5d36ac0,62c539b8a3b80bd9e872dea2,2022-07-06_09h29.55.215,Colour_Asymmetry_Pilot,2022.1.3,Win32,60.08532116,62c50e9c1127f2cd403a315f,0,92,92,117,1,threefour,,,,,,,,,,,,,,,,,,,,,,,,,,,,,,,,,,,,,,,,,,,,,,,,,,,,,,,,,,,,,,,,,,,,,,,,,,,,,,,,,,,,,,,,,,,,,,,,,,,,,,,,,,,,,,,,,,,,,,,,,,,,,,,,,,,,,,,,,,,,,,,,,,,,,,,,,,,,,
,,,,,,60edcdb29cb14344e5d36ac0,62c539b8a3b80bd9e872dea2,2022-07-06_09h29.55.215,Colour_Asymmetry_Pilot,2022.1.3,Win32,60.08532116,62c50e9c1127f2cd403a315f,0,93,93,36,1,threeone,,,,,,,,,,,,,,,,,,,,,,,,,,,,,,,,,,,,,,,,,,,,,,,,,,,,,,,,,,,,,,,,,,,,,,,,,,,,,,,,,,,,,,,,,,,,,,,,,,,,,,,,,,,,,,,,,,,,,,,,,,,,,,,,,,,,,,,,,,,,,,,,,,,,,,,,,,,,,
,,,,,,60edcdb29cb14344e5d36ac0,62c539b8a3b80bd9e872dea2,2022-07-06_09h29.55.215,Colour_Asymmetry_Pilot,2022.1.3,Win32,60.08532116,62c50e9c1127f2cd403a315f,0,94,94,102,1,fourtwo,,,,,,,,,,,,,,,,,,,,,,,,,,,,,,,,,,,,,,,,,,,,,,,,,,,,,,,,,,,,,,,,,,,,,,,,,,,,,,,,,,,,,,,,,,,,,,,,,,,,,,,,,,,,,,,,,,,,,,,,,,,,,,,,,,,,,,,,,,,,,,,,,,,,,,,,,,,,,
,,,,,,60edcdb29cb14344e5d36ac0,62c539b8a3b80bd9e872dea2,2022-07-06_09h29.55.215,Colour_Asymmetry_Pilot,2022.1.3,Win32,60.08532116,62c50e9c1127f2cd403a315f,0,95,95,143,1,fourthree,,,,,,,,,,,,,,,,,,,,,,,,,,,,,,,,,,,,,,,,,,,,,,,,,,,,,,,,,,,,,,,,,,,,,,,,,,,,,,,,,,,,,,,,,,,,,,,,,,,,,,,,,,,,,,,,,,,,,,,,,,,,,,,,,,,,,,,,,,,,,,,,,,,,,,,,,,,,,
,,,,,,60edcdb29cb14344e5d36ac0,62c539b8a3b80bd9e872dea2,2022-07-06_09h29.55.215,Colour_Asymmetry_Pilot,2022.1.3,Win32,60.08532116,62c50e9c1127f2cd403a315f,0,96,96,142,1,fourtwo,,,,,,,,,,,,,,,,,,,,,,,,,,,,,,,,,,,,,,,,,,,,,,,,,,,,,,,,,,,,,,,,,,,,,,,,,,,,,,,,,,,,,,,,,,,,,,,,,,,,,,,,,,,,,,,,,,,,,,,,,,,,,,,,,,,,,,,,,,,,,,,,,,,,,,,,,,,,,
,,,,,,60edcdb29cb14344e5d36ac0,62c539b8a3b80bd9e872dea2,2022-07-06_09h29.55.215,Colour_Asymmetry_Pilot,2022.1.3,Win32,60.08532116,62c50e9c1127f2cd403a315f,0,97,97,73,1,onethree,,,,,,,,,,,,,,,,,,,,,,,,,,,,,,,,,,,,,,,,,,,,,,,,,,,,,,,,,,,,,,,,,,,,,,,,,,,,,,,,,,,,,,,,,,,,,,,,,,,,,,,,,,,,,,,,,,,,,,,,,,,,,,,,,,,,,,,,,,,,,,,,,,,,,,,,,,,,,
,,,,,,60edcdb29cb14344e5d36ac0,62c539b8a3b80bd9e872dea2,2022-07-06_09h29.55.215,Colour_Asymmetry_Pilot,2022.1.3,Win32,60.08532116,62c50e9c1127f2cd403a315f,0,98,98,86,1,fourtwo,,,,,,,,,,,,,,,,,,,,,,,,,,,,,,,,,,,,,,,,,,,,,,,,,,,,,,,,,,,,,,,,,,,,,,,,,,,,,,,,,,,,,,,,,,,,,,,,,,,,,,,,,,,,,,,,,,,,,,,,,,,,,,,,,,,,,,,,,,,,,,,,,,,,,,,,,,,,,
,,,,,,60edcdb29cb14344e5d36ac0,62c539b8a3b80bd9e872dea2,2022-07-06_09h29.55.215,Colour_Asymmetry_Pilot,2022.1.3,Win32,60.08532116,62c50e9c1127f2cd403a315f,0,99,99,83,1,twofour,,,,,,,,,,,,,,,,,,,,,,,,,,,,,,,,,,,,,,,,,,,,,,,,,,,,,,,,,,,,,,,,,,,,,,,,,,,,,,,,,,,,,,,,,,,,,,,,,,,,,,,,,,,,,,,,,,,,,,,,,,,,,,,,,,,,,,,,,,,,,,,,,,,,,,,,,,,,,
,,,,,,60edcdb29cb14344e5d36ac0,62c539b8a3b80bd9e872dea2,2022-07-06_09h29.55.215,Colour_Asymmetry_Pilot,2022.1.3,Win32,60.08532116,62c50e9c1127f2cd403a315f,0,100,100,148,1,threeone,,,,,,,,,,,,,,,,,,,,,,,,,,,,,,,,,,,,,,,,,,,,,,,,,,,,,,,,,,,,,,,,,,,,,,,,,,,,,,,,,,,,,,,,,,,,,,,,,,,,,,,,,,,,,,,,,,,,,,,,,,,,,,,,,,,,,,,,,,,,,,,,,,,,,,,,,,,,,
,,,,,,60edcdb29cb14344e5d36ac0,62c539b8a3b80bd9e872dea2,2022-07-06_09h29.55.215,Colour_Asymmetry_Pilot,2022.1.3,Win32,60.08532116,62c50e9c1127f2cd403a315f,0,101,101,100,1,threeone,,,,,,,,,,,,,,,,,,,,,,,,,,,,,,,,,,,,,,,,,,,,,,,,,,,,,,,,,,,,,,,,,,,,,,,,,,,,,,,,,,,,,,,,,,,,,,,,,,,,,,,,,,,,,,,,,,,,,,,,,,,,,,,,,,,,,,,,,,,,,,,,,,,,,,,,,,,,,
,,,,,,60edcdb29cb14344e5d36ac0,62c539b8a3b80bd9e872dea2,2022-07-06_09h29.55.215,Colour_Asymmetry_Pilot,2022.1.3,Win32,60.08532116,62c50e9c1127f2cd403a315f,0,102,102,18,1,twoone,,,,,,,,,,,,,,,,,,,,,,,,,,,,,,,,,,,,,,,,,,,,,,,,,,,,,,,,,,,,,,,,,,,,,,,,,,,,,,,,,,,,,,,,,,,,,,,,,,,,,,,,,,,,,,,,,,,,,,,,,,,,,,,,,,,,,,,,,,,,,,,,,,,,,,,,,,,,,
,,,,,,60edcdb29cb14344e5d36ac0,62c539b8a3b80bd9e872dea2,2022-07-06_09h29.55.215,Colour_Asymmetry_Pilot,2022.1.3,Win32,60.08532116,62c50e9c1127f2cd403a315f,0,103,103,2,1,twoone,,,,,,,,,,,,,,,,,,,,,,,,,,,,,,,,,,,,,,,,,,,,,,,,,,,,,,,,,,,,,,,,,,,,,,,,,,,,,,,,,,,,,,,,,,,,,,,,,,,,,,,,,,,,,,,,,,,,,,,,,,,,,,,,,,,,,,,,,,,,,,,,,,,,,,,,,,,,,
,,,,,,60edcdb29cb14344e5d36ac0,62c539b8a3b80bd9e872dea2,2022-07-06_09h29.55.215,Colour_Asymmetry_Pilot,2022.1.3,Win32,60.08532116,62c50e9c1127f2cd403a315f,0,104,104,112,1,onetwo,,,,,,,,,,,,,,,,,,,,,,,,,,,,,,,,,,,,,,,,,,,,,,,,,,,,,,,,,,,,,,,,,,,,,,,,,,,,,,,,,,,,,,,,,,,,,,,,,,,,,,,,,,,,,,,,,,,,,,,,,,,,,,,,,,,,,,,,,,,,,,,,,,,,,,,,,,,,,
,,,,,,60edcdb29cb14344e5d36ac0,62c539b8a3b80bd9e872dea2,2022-07-06_09h29.55.215,Colour_Asymmetry_Pilot,2022.1.3,Win32,60.08532116,62c50e9c1127f2cd403a315f,0,105,105,61,1,threefour,,,,,,,,,,,,,,,,,,,,,,,,,,,,,,,,,,,,,,,,,,,,,,,,,,,,,,,,,,,,,,,,,,,,,,,,,,,,,,,,,,,,,,,,,,,,,,,,,,,,,,,,,,,,,,,,,,,,,,,,,,,,,,,,,,,,,,,,,,,,,,,,,,,,,,,,,,,,,
,,,,,,60edcdb29cb14344e5d36ac0,62c539b8a3b80bd9e872dea2,2022-07-06_09h29.55.215,Colour_Asymmetry_Pilot,2022.1.3,Win32,60.08532116,62c50e9c1127f2cd403a315f,0,106,106,123,1,twofour,,,,,,,,,,,,,,,,,,,,,,,,,,,,,,,,,,,,,,,,,,,,,,,,,,,,,,,,,,,,,,,,,,,,,,,,,,,,,,,,,,,,,,,,,,,,,,,,,,,,,,,,,,,,,,,,,,,,,,,,,,,,,,,,,,,,,,,,,,,,,,,,,,,,,,,,,,,,,
,,,,,,60edcdb29cb14344e5d36ac0,62c539b8a3b80bd9e872dea2,2022-07-06_09h29.55.215,Colour_Asymmetry_Pilot,2022.1.3,Win32,60.08532116,62c50e9c1127f2cd403a315f,0,107,107,44,1,threeone,,,,,,,,,,,,,,,,,,,,,,,,,,,,,,,,,,,,,,,,,,,,,,,,,,,,,,,,,,,,,,,,,,,,,,,,,,,,,,,,,,,,,,,,,,,,,,,,,,,,,,,,,,,,,,,,,,,,,,,,,,,,,,,,,,,,,,,,,,,,,,,,,,,,,,,,,,,,,
,,,,,,60edcdb29cb14344e5d36ac0,62c539b8a3b80bd9e872dea2,2022-07-06_09h29.55.215,Colour_Asymmetry_Pilot,2022.1.3,Win32,60.08532116,62c50e9c1127f2cd403a315f,0,108,108,85,1,threefour,,,,,,,,,,,,,,,,,,,,,,,,,,,,,,,,,,,,,,,,,,,,,,,,,,,,,,,,,,,,,,,,,,,,,,,,,,,,,,,,,,,,,,,,,,,,,,,,,,,,,,,,,,,,,,,,,,,,,,,,,,,,,,,,,,,,,,,,,,,,,,,,,,,,,,,,,,,,,
,,,,,,60edcdb29cb14344e5d36ac0,62c539b8a3b80bd9e872dea2,2022-07-06_09h29.55.215,Colour_Asymmetry_Pilot,2022.1.3,Win32,60.08532116,62c50e9c1127f2cd403a315f,0,109,109,75,1,twofour,,,,,,,,,,,,,,,,,,,,,,,,,,,,,,,,,,,,,,,,,,,,,,,,,,,,,,,,,,,,,,,,,,,,,,,,,,,,,,,,,,,,,,,,,,,,,,,,,,,,,,,,,,,,,,,,,,,,,,,,,,,,,,,,,,,,,,,,,,,,,,,,,,,,,,,,,,,,,
,,,,,,60edcdb29cb14344e5d36ac0,62c539b8a3b80bd9e872dea2,2022-07-06_09h29.55.215,Colour_Asymmetry_Pilot,2022.1.3,Win32,60.08532116,62c50e9c1127f2cd403a315f,0,110,110,1,1,onethree,,,,,,,,,,,,,,,,,,,,,,,,,,,,,,,,,,,,,,,,,,,,,,,,,,,,,,,,,,,,,,,,,,,,,,,,,,,,,,,,,,,,,,,,,,,,,,,,,,,,,,,,,,,,,,,,,,,,,,,,,,,,,,,,,,,,,,,,,,,,,,,,,,,,,,,,,,,,,
,,,,,,60edcdb29cb14344e5d36ac0,62c539b8a3b80bd9e872dea2,2022-07-06_09h29.55.215,Colour_Asymmetry_Pilot,2022.1.3,Win32,60.08532116,62c50e9c1127f2cd403a315f,0,111,111,114,1,twoone,,,,,,,,,,,,,,,,,,,,,,,,,,,,,,,,,,,,,,,,,,,,,,,,,,,,,,,,,,,,,,,,,,,,,,,,,,,,,,,,,,,,,,,,,,,,,,,,,,,,,,,,,,,,,,,,,,,,,,,,,,,,,,,,,,,,,,,,,,,,,,,,,,,,,,,,,,,,,
,,,,,,60edcdb29cb14344e5d36ac0,62c539b8a3b80bd9e872dea2,2022-07-06_09h29.55.215,Colour_Asymmetry_Pilot,2022.1.3,Win32,60.08532116,62c50e9c1127f2cd403a315f,0,112,112,79,1,fourthree,,,,,,,,,,,,,,,,,,,,,,,,,,,,,,,,,,,,,,,,,,,,,,,,,,,,,,,,,,,,,,,,,,,,,,,,,,,,,,,,,,,,,,,,,,,,,,,,,,,,,,,,,,,,,,,,,,,,,,,,,,,,,,,,,,,,,,,,,,,,,,,,,,,,,,,,,,,,,
,,,,,,60edcdb29cb14344e5d36ac0,62c539b8a3b80bd9e872dea2,2022-07-06_09h29.55.215,Colour_Asymmetry_Pilot,2022.1.3,Win32,60.08532116,62c50e9c1127f2cd403a315f,0,113,113,105,1,onethree,,,,,,,,,,,,,,,,,,,,,,,,,,,,,,,,,,,,,,,,,,,,,,,,,,,,,,,,,,,,,,,,,,,,,,,,,,,,,,,,,,,,,,,,,,,,,,,,,,,,,,,,,,,,,,,,,,,,,,,,,,,,,,,,,,,,,,,,,,,,,,,,,,,,,,,,,,,,,
,,,,,,60edcdb29cb14344e5d36ac0,62c539b8a3b80bd9e872dea2,2022-07-06_09h29.55.215,Colour_Asymmetry_Pilot,2022.1.3,Win32,60.08532116,62c50e9c1127f2cd403a315f,0,114,114,140,1,threeone,,,,,,,,,,,,,,,,,,,,,,,,,,,,,,,,,,,,,,,,,,,,,,,,,,,,,,,,,,,,,,,,,,,,,,,,,,,,,,,,,,,,,,,,,,,,,,,,,,,,,,,,,,,,,,,,,,,,,,,,,,,,,,,,,,,,,,,,,,,,,,,,,,,,,,,,,,,,,
,,,,,,60edcdb29cb14344e5d36ac0,62c539b8a3b80bd9e872dea2,2022-07-06_09h29.55.215,Colour_Asymmetry_Pilot,2022.1.3,Win32,60.08532116,62c50e9c1127f2cd403a315f,0,115,115,109,1,threefour,,,,,,,,,,,,,,,,,,,,,,,,,,,,,,,,,,,,,,,,,,,,,,,,,,,,,,,,,,,,,,,,,,,,,,,,,,,,,,,,,,,,,,,,,,,,,,,,,,,,,,,,,,,,,,,,,,,,,,,,,,,,,,,,,,,,,,,,,,,,,,,,,,,,,,,,,,,,,
,,,,,,60edcdb29cb14344e5d36ac0,62c539b8a3b80bd9e872dea2,2022-07-06_09h29.55.215,Colour_Asymmetry_Pilot,2022.1.3,Win32,60.08532116,62c50e9c1127f2cd403a315f,0,116,116,111,1,fourthree,,,,,,,,,,,,,,,,,,,,,,,,,,,,,,,,,,,,,,,,,,,,,,,,,,,,,,,,,,,,,,,,,,,,,,,,,,,,,,,,,,,,,,,,,,,,,,,,,,,,,,,,,,,,,,,,,,,,,,,,,,,,,,,,,,,,,,,,,,,,,,,,,,,,,,,,,,,,,
,,,,,,60edcdb29cb14344e5d36ac0,62c539b8a3b80bd9e872dea2,2022-07-06_09h29.55.215,Colour_Asymmetry_Pilot,2022.1.3,Win32,60.08532116,62c50e9c1127f2cd403a315f,0,117,117,129,1,onethree,,,,,,,,,,,,,,,,,,,,,,,,,,,,,,,,,,,,,,,,,,,,,,,,,,,,,,,,,,,,,,,,,,,,,,,,,,,,,,,,,,,,,,,,,,,,,,,,,,,,,,,,,,,,,,,,,,,,,,,,,,,,,,,,,,,,,,,,,,,,,,,,,,,,,,,,,,,,,
,,,,,,60edcdb29cb14344e5d36ac0,62c539b8a3b80bd9e872dea2,2022-07-06_09h29.55.215,Colour_Asymmetry_Pilot,2022.1.3,Win32,60.08532116,62c50e9c1127f2cd403a315f,0,118,118,26,1,twoone,,,,,,,,,,,,,,,,,,,,,,,,,,,,,,,,,,,,,,,,,,,,,,,,,,,,,,,,,,,,,,,,,,,,,,,,,,,,,,,,,,,,,,,,,,,,,,,,,,,,,,,,,,,,,,,,,,,,,,,,,,,,,,,,,,,,,,,,,,,,,,,,,,,,,,,,,,,,,
,,,,,,60edcdb29cb14344e5d36ac0,62c539b8a3b80bd9e872dea2,2022-07-06_09h29.55.215,Colour_Asymmetry_Pilot,2022.1.3,Win32,60.08532116,62c50e9c1127f2cd403a315f,0,119,119,34,1,twoone,,,,,,,,,,,,,,,,,,,,,,,,,,,,,,,,,,,,,,,,,,,,,,,,,,,,,,,,,,,,,,,,,,,,,,,,,,,,,,,,,,,,,,,,,,,,,,,,,,,,,,,,,,,,,,,,,,,,,,,,,,,,,,,,,,,,,,,,,,,,,,,,,,,,,,,,,,,,,
,,,,,,60edcdb29cb14344e5d36ac0,62c539b8a3b80bd9e872dea2,2022-07-06_09h29.55.215,Colour_Asymmetry_Pilot,2022.1.3,Win32,60.08532116,62c50e9c1127f2cd403a315f,0,120,120,116,1,threeone,,,,,,,,,,,,,,,,,,,,,,,,,,,,,,,,,,,,,,,,,,,,,,,,,,,,,,,,,,,,,,,,,,,,,,,,,,,,,,,,,,,,,,,,,,,,,,,,,,,,,,,,,,,,,,,,,,,,,,,,,,,,,,,,,,,,,,,,,,,,,,,,,,,,,,,,,,,,,
,,,,,,60edcdb29cb14344e5d36ac0,62c539b8a3b80bd9e872dea2,2022-07-06_09h29.55.215,Colour_Asymmetry_Pilot,2022.1.3,Win32,60.08532116,62c50e9c1127f2cd403a315f,0,121,121,122,1,twoone,,,,,,,,,,,,,,,,,,,,,,,,,,,,,,,,,,,,,,,,,,,,,,,,,,,,,,,,,,,,,,,,,,,,,,,,,,,,,,,,,,,,,,,,,,,,,,,,,,,,,,,,,,,,,,,,,,,,,,,,,,,,,,,,,,,,,,,,,,,,,,,,,,,,,,,,,,,,,
,,,,,,60edcdb29cb14344e5d36ac0,62c539b8a3b80bd9e872dea2,2022-07-06_09h29.55.215,Colour_Asymmetry_Pilot,2022.1.3,Win32,60.08532116,62c50e9c1127f2cd403a315f,0,122,122,39,1,fourthree,,,,,,,,,,,,,,,,,,,,,,,,,,,,,,,,,,,,,,,,,,,,,,,,,,,,,,,,,,,,,,,,,,,,,,,,,,,,,,,,,,,,,,,,,,,,,,,,,,,,,,,,,,,,,,,,,,,,,,,,,,,,,,,,,,,,,,,,,,,,,,,,,,,,,,,,,,,,,
,,,,,,60edcdb29cb14344e5d36ac0,62c539b8a3b80bd9e872dea2,2022-07-06_09h29.55.215,Colour_Asymmetry_Pilot,2022.1.3,Win32,60.08532116,62c50e9c1127f2cd403a315f,0,123,123,80,1,onetwo,,,,,,,,,,,,,,,,,,,,,,,,,,,,,,,,,,,,,,,,,,,,,,,,,,,,,,,,,,,,,,,,,,,,,,,,,,,,,,,,,,,,,,,,,,,,,,,,,,,,,,,,,,,,,,,,,,,,,,,,,,,,,,,,,,,,,,,,,,,,,,,,,,,,,,,,,,,,,
,,,,,,60edcdb29cb14344e5d36ac0,62c539b8a3b80bd9e872dea2,2022-07-06_09h29.55.215,Colour_Asymmetry_Pilot,2022.1.3,Win32,60.08532116,62c50e9c1127f2cd403a315f,0,124,124,153,1,onethree,,,,,,,,,,,,,,,,,,,,,,,,,,,,,,,,,,,,,,,,,,,,,,,,,,,,,,,,,,,,,,,,,,,,,,,,,,,,,,,,,,,,,,,,,,,,,,,,,,,,,,,,,,,,,,,,,,,,,,,,,,,,,,,,,,,,,,,,,,,,,,,,,,,,,,,,,,,,,
,,,,,,60edcdb29cb14344e5d36ac0,62c539b8a3b80bd9e872dea2,2022-07-06_09h29.55.215,Colour_Asymmetry_Pilot,2022.1.3,Win32,60.08532116,62c50e9c1127f2cd403a315f,0,125,125,41,1,onethree,,,,,,,,,,,,,,,,,,,,,,,,,,,,,,,,,,,,,,,,,,,,,,,,,,,,,,,,,,,,,,,,,,,,,,,,,,,,,,,,,,,,,,,,,,,,,,,,,,,,,,,,,,,,,,,,,,,,,,,,,,,,,,,,,,,,,,,,,,,,,,,,,,,,,,,,,,,,,
,,,,,,60edcdb29cb14344e5d36ac0,62c539b8a3b80bd9e872dea2,2022-07-06_09h29.55.215,Colour_Asymmetry_Pilot,2022.1.3,Win32,60.08532116,62c50e9c1127f2cd403a315f,0,126,126,147,1,twofour,,,,,,,,,,,,,,,,,,,,,,,,,,,,,,,,,,,,,,,,,,,,,,,,,,,,,,,,,,,,,,,,,,,,,,,,,,,,,,,,,,,,,,,,,,,,,,,,,,,,,,,,,,,,,,,,,,,,,,,,,,,,,,,,,,,,,,,,,,,,,,,,,,,,,,,,,,,,,
,,,,,,60edcdb29cb14344e5d36ac0,62c539b8a3b80bd9e872dea2,2022-07-06_09h29.55.215,Colour_Asymmetry_Pilot,2022.1.3,Win32,60.08532116,62c50e9c1127f2cd403a315f,0,127,127,27,1,twofour,,,,,,,,,,,,,,,,,,,,,,,,,,,,,,,,,,,,,,,,,,,,,,,,,,,,,,,,,,,,,,,,,,,,,,,,,,,,,,,,,,,,,,,,,,,,,,,,,,,,,,,,,,,,,,,,,,,,,,,,,,,,,,,,,,,,,,,,,,,,,,,,,,,,,,,,,,,,,
,,,,,,60edcdb29cb14344e5d36ac0,62c539b8a3b80bd9e872dea2,2022-07-06_09h29.55.215,Colour_Asymmetry_Pilot,2022.1.3,Win32,60.08532116,62c50e9c1127f2cd403a315f,0,128,128,154,1,twoone,,,,,,,,,,,,,,,,,,,,,,,,,,,,,,,,,,,,,,,,,,,,,,,,,,,,,,,,,,,,,,,,,,,,,,,,,,,,,,,,,,,,,,,,,,,,,,,,,,,,,,,,,,,,,,,,,,,,,,,,,,,,,,,,,,,,,,,,,,,,,,,,,,,,,,,,,,,,,
,,,,,,60edcdb29cb14344e5d36ac0,62c539b8a3b80bd9e872dea2,2022-07-06_09h29.55.215,Colour_Asymmetry_Pilot,2022.1.3,Win32,60.08532116,62c50e9c1127f2cd403a315f,0,129,129,62,1,fourtwo,,,,,,,,,,,,,,,,,,,,,,,,,,,,,,,,,,,,,,,,,,,,,,,,,,,,,,,,,,,,,,,,,,,,,,,,,,,,,,,,,,,,,,,,,,,,,,,,,,,,,,,,,,,,,,,,,,,,,,,,,,,,,,,,,,,,,,,,,,,,,,,,,,,,,,,,,,,,,
,,,,,,60edcdb29cb14344e5d36ac0,62c539b8a3b80bd9e872dea2,2022-07-06_09h29.55.215,Colour_Asymmetry_Pilot,2022.1.3,Win32,60.08532116,62c50e9c1127f2cd403a315f,0,130,130,159,1,fourthree,,,,,,,,,,,,,,,,,,,,,,,,,,,,,,,,,,,,,,,,,,,,,,,,,,,,,,,,,,,,,,,,,,,,,,,,,,,,,,,,,,,,,,,,,,,,,,,,,,,,,,,,,,,,,,,,,,,,,,,,,,,,,,,,,,,,,,,,,,,,,,,,,,,,,,,,,,,,,
,,,,,,60edcdb29cb14344e5d36ac0,62c539b8a3b80bd9e872dea2,2022-07-06_09h29.55.215,Colour_Asymmetry_Pilot,2022.1.3,Win32,60.08532116,62c50e9c1127f2cd403a315f,0,131,131,69,1,threefour,,,,,,,,,,,,,,,,,,,,,,,,,,,,,,,,,,,,,,,,,,,,,,,,,,,,,,,,,,,,,,,,,,,,,,,,,,,,,,,,,,,,,,,,,,,,,,,,,,,,,,,,,,,,,,,,,,,,,,,,,,,,,,,,,,,,,,,,,,,,,,,,,,,,,,,,,,,,,
,,,,,,60edcdb29cb14344e5d36ac0,62c539b8a3b80bd9e872dea2,2022-07-06_09h29.55.215,Colour_Asymmetry_Pilot,2022.1.3,Win32,60.08532116,62c50e9c1127f2cd403a315f,0,132,132,157,1,threefour,,,,,,,,,,,,,,,,,,,,,,,,,,,,,,,,,,,,,,,,,,,,,,,,,,,,,,,,,,,,,,,,,,,,,,,,,,,,,,,,,,,,,,,,,,,,,,,,,,,,,,,,,,,,,,,,,,,,,,,,,,,,,,,,,,,,,,,,,,,,,,,,,,,,,,,,,,,,,
,,,,,,60edcdb29cb14344e5d36ac0,62c539b8a3b80bd9e872dea2,2022-07-06_09h29.55.215,Colour_Asymmetry_Pilot,2022.1.3,Win32,60.08532116,62c50e9c1127f2cd403a315f,0,133,133,20,1,threeone,,,,,,,,,,,,,,,,,,,,,,,,,,,,,,,,,,,,,,,,,,,,,,,,,,,,,,,,,,,,,,,,,,,,,,,,,,,,,,,,,,,,,,,,,,,,,,,,,,,,,,,,,,,,,,,,,,,,,,,,,,,,,,,,,,,,,,,,,,,,,,,,,,,,,,,,,,,,,
,,,,,,60edcdb29cb14344e5d36ac0,62c539b8a3b80bd9e872dea2,2022-07-06_09h29.55.215,Colour_Asymmetry_Pilot,2022.1.3,Win32,60.08532116,62c50e9c1127f2cd403a315f,0,134,134,32,1,onetwo,,,,,,,,,,,,,,,,,,,,,,,,,,,,,,,,,,,,,,,,,,,,,,,,,,,,,,,,,,,,,,,,,,,,,,,,,,,,,,,,,,,,,,,,,,,,,,,,,,,,,,,,,,,,,,,,,,,,,,,,,,,,,,,,,,,,,,,,,,,,,,,,,,,,,,,,,,,,,
,,,,,,60edcdb29cb14344e5d36ac0,62c539b8a3b80bd9e872dea2,2022-07-06_09h29.55.215,Colour_Asymmetry_Pilot,2022.1.3,Win32,60.08532116,62c50e9c1127f2cd403a315f,0,135,135,156,1,threeone,,,,,,,,,,,,,,,,,,,,,,,,,,,,,,,,,,,,,,,,,,,,,,,,,,,,,,,,,,,,,,,,,,,,,,,,,,,,,,,,,,,,,,,,,,,,,,,,,,,,,,,,,,,,,,,,,,,,,,,,,,,,,,,,,,,,,,,,,,,,,,,,,,,,,,,,,,,,,
,,,,,,60edcdb29cb14344e5d36ac0,62c539b8a3b80bd9e872dea2,2022-07-06_09h29.55.215,Colour_Asymmetry_Pilot,2022.1.3,Win32,60.08532116,62c50e9c1127f2cd403a315f,0,136,136,74,1,twoone,,,,,,,,,,,,,,,,,,,,,,,,,,,,,,,,,,,,,,,,,,,,,,,,,,,,,,,,,,,,,,,,,,,,,,,,,,,,,,,,,,,,,,,,,,,,,,,,,,,,,,,,,,,,,,,,,,,,,,,,,,,,,,,,,,,,,,,,,,,,,,,,,,,,,,,,,,,,,
,,,,,,60edcdb29cb14344e5d36ac0,62c539b8a3b80bd9e872dea2,2022-07-06_09h29.55.215,Colour_Asymmetry_Pilot,2022.1.3,Win32,60.08532116,62c50e9c1127f2cd403a315f,0,137,137,24,1,onetwo,,,,,,,,,,,,,,,,,,,,,,,,,,,,,,,,,,,,,,,,,,,,,,,,,,,,,,,,,,,,,,,,,,,,,,,,,,,,,,,,,,,,,,,,,,,,,,,,,,,,,,,,,,,,,,,,,,,,,,,,,,,,,,,,,,,,,,,,,,,,,,,,,,,,,,,,,,,,,
,,,,,,60edcdb29cb14344e5d36ac0,62c539b8a3b80bd9e872dea2,2022-07-06_09h29.55.215,Colour_Asymmetry_Pilot,2022.1.3,Win32,60.08532116,62c50e9c1127f2cd403a315f,0,138,138,93,1,threefour,,,,,,,,,,,,,,,,,,,,,,,,,,,,,,,,,,,,,,,,,,,,,,,,,,,,,,,,,,,,,,,,,,,,,,,,,,,,,,,,,,,,,,,,,,,,,,,,,,,,,,,,,,,,,,,,,,,,,,,,,,,,,,,,,,,,,,,,,,,,,,,,,,,,,,,,,,,,,
,,,,,,60edcdb29cb14344e5d36ac0,62c539b8a3b80bd9e872dea2,2022-07-06_09h29.55.215,Colour_Asymmetry_Pilot,2022.1.3,Win32,60.08532116,62c50e9c1127f2cd403a315f,0,139,139,135,1,fourthree,,,,,,,,,,,,,,,,,,,,,,,,,,,,,,,,,,,,,,,,,,,,,,,,,,,,,,,,,,,,,,,,,,,,,,,,,,,,,,,,,,,,,,,,,,,,,,,,,,,,,,,,,,,,,,,,,,,,,,,,,,,,,,,,,,,,,,,,,,,,,,,,,,,,,,,,,,,,,
,,,,,,60edcdb29cb14344e5d36ac0,62c539b8a3b80bd9e872dea2,2022-07-06_09h29.55.215,Colour_Asymmetry_Pilot,2022.1.3,Win32,60.08532116,62c50e9c1127f2cd403a315f,0,140,140,6,1,fourtwo,,,,,,,,,,,,,,,,,,,,,,,,,,,,,,,,,,,,,,,,,,,,,,,,,,,,,,,,,,,,,,,,,,,,,,,,,,,,,,,,,,,,,,,,,,,,,,,,,,,,,,,,,,,,,,,,,,,,,,,,,,,,,,,,,,,,,,,,,,,,,,,,,,,,,,,,,,,,,
,,,,,,60edcdb29cb14344e5d36ac0,62c539b8a3b80bd9e872dea2,2022-07-06_09h29.55.215,Colour_Asymmetry_Pilot,2022.1.3,Win32,60.08532116,62c50e9c1127f2cd403a315f,0,141,141,54,1,fourtwo,,,,,,,,,,,,,,,,,,,,,,,,,,,,,,,,,,,,,,,,,,,,,,,,,,,,,,,,,,,,,,,,,,,,,,,,,,,,,,,,,,,,,,,,,,,,,,,,,,,,,,,,,,,,,,,,,,,,,,,,,,,,,,,,,,,,,,,,,,,,,,,,,,,,,,,,,,,,,
,,,,,,60edcdb29cb14344e5d36ac0,62c539b8a3b80bd9e872dea2,2022-07-06_09h29.55.215,Colour_Asymmetry_Pilot,2022.1.3,Win32,60.08532116,62c50e9c1127f2cd403a315f,0,142,142,19,1,twofour,,,,,,,,,,,,,,,,,,,,,,,,,,,,,,,,,,,,,,,,,,,,,,,,,,,,,,,,,,,,,,,,,,,,,,,,,,,,,,,,,,,,,,,,,,,,,,,,,,,,,,,,,,,,,,,,,,,,,,,,,,,,,,,,,,,,,,,,,,,,,,,,,,,,,,,,,,,,,
,,,,,,60edcdb29cb14344e5d36ac0,62c539b8a3b80bd9e872dea2,2022-07-06_09h29.55.215,Colour_Asymmetry_Pilot,2022.1.3,Win32,60.08532116,62c50e9c1127f2cd403a315f,0,143,143,71,1,fourthree,,,,,,,,,,,,,,,,,,,,,,,,,,,,,,,,,,,,,,,,,,,,,,,,,,,,,,,,,,,,,,,,,,,,,,,,,,,,,,,,,,,,,,,,,,,,,,,,,,,,,,,,,,,,,,,,,,,,,,,,,,,,,,,,,,,,,,,,,,,,,,,,,,,,,,,,,,,,,
,,,,,,60edcdb29cb14344e5d36ac0,62c539b8a3b80bd9e872dea2,2022-07-06_09h29.55.215,Colour_Asymmetry_Pilot,2022.1.3,Win32,60.08532116,62c50e9c1127f2cd403a315f,0,144,144,23,1,fourthree,,,,,,,,,,,,,,,,,,,,,,,,,,,,,,,,,,,,,,,,,,,,,,,,,,,,,,,,,,,,,,,,,,,,,,,,,,,,,,,,,,,,,,,,,,,,,,,,,,,,,,,,,,,,,,,,,,,,,,,,,,,,,,,,,,,,,,,,,,,,,,,,,,,,,,,,,,,,,
,,,,,,60edcdb29cb14344e5d36ac0,62c539b8a3b80bd9e872dea2,2022-07-06_09h29.55.215,Colour_Asymmetry_Pilot,2022.1.3,Win32,60.08532116,62c50e9c1127f2cd403a315f,0,145,145,28,1,threeone,,,,,,,,,,,,,,,,,,,,,,,,,,,,,,,,,,,,,,,,,,,,,,,,,,,,,,,,,,,,,,,,,,,,,,,,,,,,,,,,,,,,,,,,,,,,,,,,,,,,,,,,,,,,,,,,,,,,,,,,,,,,,,,,,,,,,,,,,,,,,,,,,,,,,,,,,,,,,
,,,,,,60edcdb29cb14344e5d36ac0,62c539b8a3b80bd9e872dea2,2022-07-06_09h29.55.215,Colour_Asymmetry_Pilot,2022.1.3,Win32,60.08532116,62c50e9c1127f2cd403a315f,0,146,146,78,1,fourtwo,,,,,,,,,,,,,,,,,,,,,,,,,,,,,,,,,,,,,,,,,,,,,,,,,,,,,,,,,,,,,,,,,,,,,,,,,,,,,,,,,,,,,,,,,,,,,,,,,,,,,,,,,,,,,,,,,,,,,,,,,,,,,,,,,,,,,,,,,,,,,,,,,,,,,,,,,,,,,
,,,,,,60edcdb29cb14344e5d36ac0,62c539b8a3b80bd9e872dea2,2022-07-06_09h29.55.215,Colour_Asymmetry_Pilot,2022.1.3,Win32,60.08532116,62c50e9c1127f2cd403a315f,0,147,147,16,1,onetwo,,,,,,,,,,,,,,,,,,,,,,,,,,,,,,,,,,,,,,,,,,,,,,,,,,,,,,,,,,,,,,,,,,,,,,,,,,,,,,,,,,,,,,,,,,,,,,,,,,,,,,,,,,,,,,,,,,,,,,,,,,,,,,,,,,,,,,,,,,,,,,,,,,,,,,,,,,,,,
,,,,,,60edcdb29cb14344e5d36ac0,62c539b8a3b80bd9e872dea2,2022-07-06_09h29.55.215,Colour_Asymmetry_Pilot,2022.1.3,Win32,60.08532116,62c50e9c1127f2cd403a315f,0,148,148,149,1,threefour,,,,,,,,,,,,,,,,,,,,,,,,,,,,,,,,,,,,,,,,,,,,,,,,,,,,,,,,,,,,,,,,,,,,,,,,,,,,,,,,,,,,,,,,,,,,,,,,,,,,,,,,,,,,,,,,,,,,,,,,,,,,,,,,,,,,,,,,,,,,,,,,,,,,,,,,,,,,,
,,,,,,60edcdb29cb14344e5d36ac0,62c539b8a3b80bd9e872dea2,2022-07-06_09h29.55.215,Colour_Asymmetry_Pilot,2022.1.3,Win32,60.08532116,62c50e9c1127f2cd403a315f,0,149,149,68,1,threeone,,,,,,,,,,,,,,,,,,,,,,,,,,,,,,,,,,,,,,,,,,,,,,,,,,,,,,,,,,,,,,,,,,,,,,,,,,,,,,,,,,,,,,,,,,,,,,,,,,,,,,,,,,,,,,,,,,,,,,,,,,,,,,,,,,,,,,,,,,,,,,,,,,,,,,,,,,,,,
,,,,,,60edcdb29cb14344e5d36ac0,62c539b8a3b80bd9e872dea2,2022-07-06_09h29.55.215,Colour_Asymmetry_Pilot,2022.1.3,Win32,60.08532116,62c50e9c1127f2cd403a315f,0,150,150,0,1,onetwo,,,,,,,,,,,,,,,,,,,,,,,,,,,,,,,,,,,,,,,,,,,,,,,,,,,,,,,,,,,,,,,,,,,,,,,,,,,,,,,,,,,,,,,,,,,,,,,,,,,,,,,,,,,,,,,,,,,,,,,,,,,,,,,,,,,,,,,,,,,,,,,,,,,,,,,,,,,,,
,,,,,,60edcdb29cb14344e5d36ac0,62c539b8a3b80bd9e872dea2,2022-07-06_09h29.55.215,Colour_Asymmetry_Pilot,2022.1.3,Win32,60.08532116,62c50e9c1127f2cd403a315f,0,151,151,121,1,onethree,,,,,,,,,,,,,,,,,,,,,,,,,,,,,,,,,,,,,,,,,,,,,,,,,,,,,,,,,,,,,,,,,,,,,,,,,,,,,,,,,,,,,,,,,,,,,,,,,,,,,,,,,,,,,,,,,,,,,,,,,,,,,,,,,,,,,,,,,,,,,,,,,,,,,,,,,,,,,
,,,,,,60edcdb29cb14344e5d36ac0,62c539b8a3b80bd9e872dea2,2022-07-06_09h29.55.215,Colour_Asymmetry_Pilot,2022.1.3,Win32,60.08532116,62c50e9c1127f2cd403a315f,0,152,152,91,1,twofour,,,,,,,,,,,,,,,,,,,,,,,,,,,,,,,,,,,,,,,,,,,,,,,,,,,,,,,,,,,,,,,,,,,,,,,,,,,,,,,,,,,,,,,,,,,,,,,,,,,,,,,,,,,,,,,,,,,,,,,,,,,,,,,,,,,,,,,,,,,,,,,,,,,,,,,,,,,,,
,,,,,,60edcdb29cb14344e5d36ac0,62c539b8a3b80bd9e872dea2,2022-07-06_09h29.55.215,Colour_Asymmetry_Pilot,2022.1.3,Win32,60.08532116,62c50e9c1127f2cd403a315f,0,153,153,94,1,fourtwo,,,,,,,,,,,,,,,,,,,,,,,,,,,,,,,,,,,,,,,,,,,,,,,,,,,,,,,,,,,,,,,,,,,,,,,,,,,,,,,,,,,,,,,,,,,,,,,,,,,,,,,,,,,,,,,,,,,,,,,,,,,,,,,,,,,,,,,,,,,,,,,,,,,,,,,,,,,,,
,,,,,,60edcdb29cb14344e5d36ac0,62c539b8a3b80bd9e872dea2,2022-07-06_09h29.55.215,Colour_Asymmetry_Pilot,2022.1.3,Win32,60.08532116,62c50e9c1127f2cd403a315f,0,154,154,128,1,onetwo,,,,,,,,,,,,,,,,,,,,,,,,,,,,,,,,,,,,,,,,,,,,,,,,,,,,,,,,,,,,,,,,,,,,,,,,,,,,,,,,,,,,,,,,,,,,,,,,,,,,,,,,,,,,,,,,,,,,,,,,,,,,,,,,,,,,,,,,,,,,,,,,,,,,,,,,,,,,,
,,,,,,60edcdb29cb14344e5d36ac0,62c539b8a3b80bd9e872dea2,2022-07-06_09h29.55.215,Colour_Asymmetry_Pilot,2022.1.3,Win32,60.08532116,62c50e9c1127f2cd403a315f,0,155,155,22,1,fourtwo,,,,,,,,,,,,,,,,,,,,,,,,,,,,,,,,,,,,,,,,,,,,,,,,,,,,,,,,,,,,,,,,,,,,,,,,,,,,,,,,,,,,,,,,,,,,,,,,,,,,,,,,,,,,,,,,,,,,,,,,,,,,,,,,,,,,,,,,,,,,,,,,,,,,,,,,,,,,,
,,,,,,60edcdb29cb14344e5d36ac0,62c539b8a3b80bd9e872dea2,2022-07-06_09h29.55.215,Colour_Asymmetry_Pilot,2022.1.3,Win32,60.08532116,62c50e9c1127f2cd403a315f,0,156,156,118,1,fourtwo,,,,,,,,,,,,,,,,,,,,,,,,,,,,,,,,,,,,,,,,,,,,,,,,,,,,,,,,,,,,,,,,,,,,,,,,,,,,,,,,,,,,,,,,,,,,,,,,,,,,,,,,,,,,,,,,,,,,,,,,,,,,,,,,,,,,,,,,,,,,,,,,,,,,,,,,,,,,,
,,,,,,60edcdb29cb14344e5d36ac0,62c539b8a3b80bd9e872dea2,2022-07-06_09h29.55.215,Colour_Asymmetry_Pilot,2022.1.3,Win32,60.08532116,62c50e9c1127f2cd403a315f,0,157,157,144,1,onetwo,,,,,,,,,,,,,,,,,,,,,,,,,,,,,,,,,,,,,,,,,,,,,,,,,,,,,,,,,,,,,,,,,,,,,,,,,,,,,,,,,,,,,,,,,,,,,,,,,,,,,,,,,,,,,,,,,,,,,,,,,,,,,,,,,,,,,,,,,,,,,,,,,,,,,,,,,,,,,
,,,,,,60edcdb29cb14344e5d36ac0,62c539b8a3b80bd9e872dea2,2022-07-06_09h29.55.215,Colour_Asymmetry_Pilot,2022.1.3,Win32,60.08532116,62c50e9c1127f2cd403a315f,0,158,158,30,1,fourtwo,,,,,,,,,,,,,,,,,,,,,,,,,,,,,,,,,,,,,,,,,,,,,,,,,,,,,,,,,,,,,,,,,,,,,,,,,,,,,,,,,,,,,,,,,,,,,,,,,,,,,,,,,,,,,,,,,,,,,,,,,,,,,,,,,,,,,,,,,,,,,,,,,,,,,,,,,,,,,
,,,,,,60edcdb29cb14344e5d36ac0,62c539b8a3b80bd9e872dea2,2022-07-06_09h29.55.215,Colour_Asymmetry_Pilot,2022.1.3,Win32,60.08532116,62c50e9c1127f2cd403a315f,0,159,159,158,1,fourtwo,,,,,,,,,,,,,,,,,,,,,,,,,,,,,,,,,,,,,,,,,,,,,,,,,,,,,,,,,,,,,,,,,,,,,,,,,,,,,,,,,,,,,,,,,,,,,,,,,,,,,,,,,,,,,,,,,,,,,,,,,,,,,,,,,,,,,,,,,,,,,,,,,,,,,,,,,,,,,
,,,,,,60edcdb29cb14344e5d36ac0,62c539b8a3b80bd9e872dea2,2022-07-06_09h29.55.215,Colour_Asymmetry_Pilot,2022.1.3,Win32,60.08532116,62c50e9c1127f2cd403a315f,0,160,160,137,1,onethree,,,,,,,,,,,,,,,,,,,,,,,,,,,,,,,,,,,,,,,,,,,,,,,,,,,,,,,,,,,,,,,,,,,,,,,,,,,,,,,,,,,,,,,,,,,,,,,,,,,,,,,,,,,,,,,,,,,,,,,,,,,,,,,,,,,,,,,,,,,,,,,,,,,,,,,,,,,,,
,,,,,,60edcdb29cb14344e5d36ac0,62c539b8a3b80bd9e872dea2,2022-07-06_09h29.55.215,Colour_Asymmetry_Pilot,2022.1.3,Win32,60.08532116,62c50e9c1127f2cd403a315f,0,161,161,146,1,twoone,,,,,,,,,,,,,,,,,,,,,,,,,,,,,,,,,,,,,,,,,,,,,,,,,,,,,,,,,,,,,,,,,,,,,,,,,,,,,,,,,,,,,,,,,,,,,,,,,,,,,,,,,,,,,,,,,,,,,,,,,,,,,,,,,,,,,,,,,,,,,,,,,,,,,,,,,,,,,
,,,,,,60edcdb29cb14344e5d36ac0,62c539b8a3b80bd9e872dea2,2022-07-06_09h29.55.215,Colour_Asymmetry_Pilot,2022.1.3,Win32,60.08532116,62c50e9c1127f2cd403a315f,,,,,,,space,10.0226,space,21.9453,space,49.7794,space,14.6397,space,5.0473,space,6.8272,"[-0.17659999999999998,0.3253999999999999,0.19999999999999996]",threeone,"[0.9686000000000001,0.5763999999999998,0.11359999999999992]",-4,6.4706,-35,89,1,0,0,response7disk_5,-6,7,1,0,0,rectangle_8,30,92,1,0,0,response1disk_7,7,4,3,1,1,0,0,rectangle_4,0,0,0,0,1,,,,,,,,,,,,,,,,,,,,,,,,,,,,,,,,,,,,,,,,,,,,,,,,,,,,,,,,,,,,,,,,,,,,,,,,,,,,,,,,,,,,,,,,,,,,,,,,,,,,,,,,,,,,,
,,,,,,60edcdb29cb14344e5d36ac0,62c539b8a3b80bd9e872dea2,2022-07-06_09h29.55.215,Colour_Asymmetry_Pilot,2022.1.3,Win32,60.08532116,62c50e9c1127f2cd403a315f,,,,,,,,,,,,,,,,,,,"[0.18419999999999992,-0.4276,-0.404]",threefour,"[0.6625999999999999,0.4980000000000002,-0.357]",4,9.6834,31,58,1,0,0,response1disk_5,0,-2,1,0,0,rectangle_8,30,70,1,0,0,response1disk_7,7,4,-7,-12,1,0,0,rectangle_4,1,0,1,0,1,,,,,,,,,,,,,,,,,,,,,,,,,,,,,,,,,,,,,,,,,,,,,,,,,,,,,,,,,,,,,,,,,,,,,,,,,,,,,,,,,,,,,,,,,,,,,,,,,,,,,,,,,,,,,
,,,,,,60edcdb29cb14344e5d36ac0,62c539b8a3b80bd9e872dea2,2022-07-06_09h29.55.215,Colour_Asymmetry_Pilot,2022.1.3,Win32,60.08532116,62c50e9c1127f2cd403a315f,,,,,,,,,,,,,,,,,,,"[0.5528,0.7409999999999999,-0.71]",onetwo,"[-0.07459999999999989,0.12139999999999995,-0.9922]",4,2.9573,48,99,1,0,0,response1disk_5,12,10,1,0,0,rectangle_8,12,10,1,0,0,,,4,12,10,1,0,0,,2,0,2,0,1,,,,,,,,,,,,,,,,,,,,,,,,,,,,,,,,,,,,,,,,,,,,,,,,,,,,,,,,,,,,,,,,,,,,,,,,,,,,,,,,,,,,,,,,,,,,,,,,,,,,,,,,,,,,,
,,,,,,60edcdb29cb14344e5d36ac0,62c539b8a3b80bd9e872dea2,2022-07-06_09h29.55.215,Colour_Asymmetry_Pilot,2022.1.3,Win32,60.08532116,62c50e9c1127f2cd403a315f,,,,,,,,,,,,,,,,,,,"[0.6625999999999999,0.4980000000000002,-0.357]",twoone,"[0.9842,0.7409999999999999,-0.6628000000000001]",4,2.0089,43,96,1,0,0,response1disk_5,-3,4,1,0,0,rectangle_8,-3,4,1,0,0,,,4,-3,4,1,0,0,,3,0,3,0,1,,,,,,,,,,,,,,,,,,,,,,,,,,,,,,,,,,,,,,,,,,,,,,,,,,,,,,,,,,,,,,,,,,,,,,,,,,,,,,,,,,,,,,,,,,,,,,,,,,,,,,,,,,,,,
,,,,,,60edcdb29cb14344e5d36ac0,62c539b8a3b80bd9e872dea2,2022-07-06_09h29.55.215,Colour_Asymmetry_Pilot,2022.1.3,Win32,60.08532116,62c50e9c1127f2cd403a315f,,,,,,,,,,,,,,,,,,,"[0.5449999999999999,-0.31000000000000005,-0.0354000000000001]",threeone,"[0.8115999999999999,-0.0040000000000000036,-0.09819999999999995]",4,3.4832,20,76,1,0,0,response1disk_5,16,13,1,0,0,rectangle_8,16,13,1,0,0,,,4,16,13,1,0,0,,4,0,4,0,1,,,,,,,,,,,,,,,,,,,,,,,,,,,,,,,,,,,,,,,,,,,,,,,,,,,,,,,,,,,,,,,,,,,,,,,,,,,,,,,,,,,,,,,,,,,,,,,,,,,,,,,,,,,,,
,,,,,,60edcdb29cb14344e5d36ac0,62c539b8a3b80bd9e872dea2,2022-07-06_09h29.55.215,Colour_Asymmetry_Pilot,2022.1.3,Win32,60.08532116,62c50e9c1127f2cd403a315f,,,,,,,,,,,,,,,,,,,"[0.3802000000000001,0.19199999999999995,-0.6394]",fourtwo,"[0.12939999999999996,-0.2864,0.3253999999999999]",-4,1.7375,-27,54,1,0,0,response7disk_5,7,6,1,0,0,rectangle_8,7,6,1,0,0,,,4,7,6,1,0,0,,5,0,5,0,1,,,,,,,,,,,,,,,,,,,,,,,,,,,,,,,,,,,,,,,,,,,,,,,,,,,,,,,,,,,,,,,,,,,,,,,,,,,,,,,,,,,,,,,,,,,,,,,,,,,,,,,,,,,,,
,,,,,,60edcdb29cb14344e5d36ac0,62c539b8a3b80bd9e872dea2,2022-07-06_09h29.55.215,Colour_Asymmetry_Pilot,2022.1.3,Win32,60.08532116,62c50e9c1127f2cd403a315f,,,,,,,,,,,,,,,,,,,"[0.6625999999999999,0.4980000000000002,-0.357]",onetwo,"[0.9213999999999998,0.6391999999999998,-0.9922]",3,3.0678,59,36,1,0,0,response1disk_5,7,-3,1,0,0,rectangle_8,7,-3,1,0,0,,,4,7,-3,1,0,0,,6,0,6,0,1,,,,,,,,,,,,,,,,,,,,,,,,,,,,,,,,,,,,,,,,,,,,,,,,,,,,,,,,,,,,,,,,,,,,,,,,,,,,,,,,,,,,,,,,,,,,,,,,,,,,,,,,,,,,,
,,,,,,60edcdb29cb14344e5d36ac0,62c539b8a3b80bd9e872dea2,2022-07-06_09h29.55.215,Colour_Asymmetry_Pilot,2022.1.3,Win32,60.08532116,62c50e9c1127f2cd403a315f,,,,,,,,,,,,,,,,,,,,threefour,,3,2.6152,,,,,,,,,,,,,,,,,,,,,,,,,,,,,,,,space,27.1495,"[0.40379999999999994,0.09000000000000008,0.44300000000000006]","[0.5449999999999999,-0.31000000000000005,-0.0354000000000001]",61,38,1,0,0,response1disk,9,-4,1,0,0,rectangle,9,-4,1,0,0,,3,0.0079,0,9,-4,1,0,0,0,0,0,13,1,13,first,,,,,,,,,,,,,,,,,,,,,,,,,,,,,,,,,,,,,,,,,,,,,,,,,,,,,,,,,,,,,,,,,,,,,,,,
,,,,,,60edcdb29cb14344e5d36ac0,62c539b8a3b80bd9e872dea2,2022-07-06_09h29.55.215,Colour_Asymmetry_Pilot,2022.1.3,Win32,60.08532116,62c50e9c1127f2cd403a315f,,,,,,,,,,,,,,,,,,,,fourthree,,-1,7.5907,,,,,,,,,,,,,,,,,,,,,,,,,,,,,,,,,,"[-0.0040000000000000036,0.02739999999999987,-0.08239999999999992]","[0.6625999999999999,0.4980000000000002,-0.357]",-58,-91,1,0,0,response5disk,-4,-2,1,0,0,rectangle,-4,-2,1,0,0,,2,0.0082,0,-4,-2,1,0,0,0,1,1,78,1,78,first,,,,,,,,,,,,,,,,,,,,,,,,,,,,,,,,,,,,,,,,,,,,,,,,,,,,,,,,,,,,,,,,,,,,,,,,
,,,,,,60edcdb29cb14344e5d36ac0,62c539b8a3b80bd9e872dea2,2022-07-06_09h29.55.215,Colour_Asymmetry_Pilot,2022.1.3,Win32,60.08532116,62c50e9c1127f2cd403a315f,,,,,,,,,,,,,,,,,,,,twofour,,2,1.7284,,,,,,,,,,,,,,,,,,,,,,,,,,,,,,,,,,"[-0.5688,-0.08239999999999992,-0.1844]","[-0.8982,-0.37259999999999993,0.2784]",66,-49,1,0,0,response3disk,9,-1,1,0,0,rectangle,43,-68,1,0,0,1,1,3.5036,1,3,0,1,0,0,0,2,2,161,1,80,second,response3disk_3,rectangle,,,,,,,,,,,,,,,,,,,,,,,,,,,,,,,,,,,,,,,,,,,,,,,,,,,,,,,,,,,,,,,,,,,,,,
,,,,,,60edcdb29cb14344e5d36ac0,62c539b8a3b80bd9e872dea2,2022-07-06_09h29.55.215,Colour_Asymmetry_Pilot,2022.1.3,Win32,60.08532116,62c50e9c1127f2cd403a315f,,,,,,,,,,,,,,,,,,,,threefour,,-4,2.6981,,,,,,,,,,,,,,,,,,,,,,,,,,,,,,,,,,"[-0.5452,-0.608,0.2470000000000001]","[-0.9844,-0.9688,-0.9922]",-48,65,1,0,0,response7disk,-6,3,1,0,0,rectangle,-6,3,1,0,0,1,1,0.0007,0,-6,3,1,0,0,0,3,3,132,1,51,second,,,,,,,,,,,,,,,,,,,,,,,,,,,,,,,,,,,,,,,,,,,,,,,,,,,,,,,,,,,,,,,,,,,,,,,,
,,,,,,60edcdb29cb14344e5d36ac0,62c539b8a3b80bd9e872dea2,2022-07-06_09h29.55.215,Colour_Asymmetry_Pilot,2022.1.3,Win32,60.08532116,62c50e9c1127f2cd403a315f,,,,,,,,,,,,,,,,,,,,fourtwo,,-3,1.8181,,,,,,,,,,,,,,,,,,,,,,,,,,,,,,,,,,"[0.23120000000000007,-0.7726,-0.34120000000000006]","[-0.5688,-0.08239999999999992,-0.1844]",-59,43,1,0,0,response7disk,-12,8,1,0,0,rectangle,-12,8,1,0,0,1,1,0.001,0,-12,8,1,0,0,0,4,4,123,1,42,second,,,,,,,,,,,,,,,,,,,,,,,,,,,,,,,,,,,,,,,,,,,,,,,,,,,,,,,,,,,,,,,,,,,,,,,,
,,,,,,60edcdb29cb14344e5d36ac0,62c539b8a3b80bd9e872dea2,2022-07-06_09h29.55.215,Colour_Asymmetry_Pilot,2022.1.3,Win32,60.08532116,62c50e9c1127f2cd403a315f,,,,,,,,,,,,,,,,,,,,onetwo,,-3,1.5784,,,,,,,,,,,,,,,,,,,,,,,,,,,,,,,,,,"[-0.17659999999999998,0.3253999999999999,0.19999999999999996]","[0.3802000000000001,0.19199999999999995,-0.6394]",-58,30,1,0,0,response7disk,-8,9,1,0,0,rectangle,-8,9,1,0,0,1,2,0.0033,0,-8,9,1,0,0,0,5,5,32,1,32,first,,,,,,,,,,,,,,,,,,,,,,,,,,,,,,,,,,,,,,,,,,,,,,,,,,,,,,,,,,,,,,,,,,,,,,,,
,,,,,,60edcdb29cb14344e5d36ac0,62c539b8a3b80bd9e872dea2,2022-07-06_09h29.55.215,Colour_Asymmetry_Pilot,2022.1.3,Win32,60.08532116,62c50e9c1127f2cd403a315f,,,,,,,,,,,,,,,,,,,,threeone,,-3,1.0534,,,,,,,,,,,,,,,,,,,,,,,,,,,,,,,,,,"[0.3802000000000001,0.19199999999999995,-0.6394]","[-0.8118,-0.8198,-0.5452]",-57,32,1,0,0,response7disk,-12,3,1,0,0,rectangle,-12,3,1,0,0,1,1,0.0057,0,-12,3,1,0,0,0,6,6,21,1,21,first,,,,,,,,,,,,,,,,,,,,,,,,,,,,,,,,,,,,,,,,,,,,,,,,,,,,,,,,,,,,,,,,,,,,,,,,
,,,,,,60edcdb29cb14344e5d36ac0,62c539b8a3b80bd9e872dea2,2022-07-06_09h29.55.215,Colour_Asymmetry_Pilot,2022.1.3,Win32,60.08532116,62c50e9c1127f2cd403a315f,,,,,,,,,,,,,,,,,,,,twoone,,-3,1.2848,,,,,,,,,,,,,,,,,,,,,,,,,,,,,,,,,,"[-0.26280000000000003,-0.4746,-0.2158]","[-0.17659999999999998,-0.2864,-0.8354]",-55,36,1,0,0,response7disk,-14,6,1,0,0,rectangle,84,59,1,0,0,3,3,2.7123,1,-1,-1,1,0,0,0,7,7,97,1,16,second,response1disk_3,rectangle,,,,,,,,,,,,,,,,,,,,,,,,,,,,,,,,,,,,,,,,,,,,,,,,,,,,,,,,,,,,,,,,,,,,,,
,,,,,,60edcdb29cb14344e5d36ac0,62c539b8a3b80bd9e872dea2,2022-07-06_09h29.55.215,Colour_Asymmetry_Pilot,2022.1.3,Win32,60.08532116,62c50e9c1127f2cd403a315f,,,,,,,,,,,,,,,,,,,,fourtwo,,-2,1.7788,,,,,,,,,,,,,,,,,,,,,,,,,,,,,,,,,,"[0.9213999999999998,0.6391999999999998,-0.9922]","[0.4196,0.4665999999999999,0.3568]",-55,-34,1,0,0,response5disk,-8,1,1,0,0,rectangle,-8,1,1,0,0,3,2,0.0095,0,-8,1,1,0,0,0,8,8,130,1,49,second,,,,,,,,,,,,,,,,,,,,,,,,,,,,,,,,,,,,,,,,,,,,,,,,,,,,,,,,,,,,,,,,,,,,,,,,
,,,,,,60edcdb29cb14344e5d36ac0,62c539b8a3b80bd9e872dea2,2022-07-06_09h29.55.215,Colour_Asymmetry_Pilot,2022.1.3,Win32,60.08532116,62c50e9c1127f2cd403a315f,,,,,,,,,,,,,,,,,,,,threeone,,1,1.7398,,,,,,,,,,,,,,,,,,,,,,,,,,,,,,,,,,"[-0.26280000000000003,-0.4746,-0.2158]","[-0.48240000000000005,0.3175999999999999,0.2156]",28,-86,1,0,0,response3disk,10,-2,1,0,0,rectangle,10,-2,1,0,0,3,1,0.0198,0,10,-2,1,0,0,0,9,9,155,1,74,second,,,,,,,,,,,,,,,,,,,,,,,,,,,,,,,,,,,,,,,,,,,,,,,,,,,,,,,,,,,,,,,,,,,,,,,,
,,,,,,60edcdb29cb14344e5d36ac0,62c539b8a3b80bd9e872dea2,2022-07-06_09h29.55.215,Colour_Asymmetry_Pilot,2022.1.3,Win32,60.08532116,62c50e9c1127f2cd403a315f,,,,,,,,,,,,,,,,,,,,twofour,,2,3.2941,,,,,,,,,,,,,,,,,,,,,,,,,,,,,,,,,,"[0.40379999999999994,0.09000000000000008,0.44300000000000006]","[0.4196,0.4665999999999999,0.3568]",57,-35,1,0,0,response3disk,21,-6,1,0,0,rectangle,21,-6,1,0,0,3,1,0.0004,0,21,-6,1,0,0,0,10,10,69,1,69,first,,,,,,,,,,,,,,,,,,,,,,,,,,,,,,,,,,,,,,,,,,,,,,,,,,,,,,,,,,,,,,,,,,,,,,,,
,,,,,,60edcdb29cb14344e5d36ac0,62c539b8a3b80bd9e872dea2,2022-07-06_09h29.55.215,Colour_Asymmetry_Pilot,2022.1.3,Win32,60.08532116,62c50e9c1127f2cd403a315f,,,,,,,,,,,,,,,,,,,,twofour,,-2,2.3261,,,,,,,,,,,,,,,,,,,,,,,,,,,,,,,,,,"[0.7018,0.7802,-0.16079999999999994]","[-0.10599999999999998,-0.10599999999999998,0.5841999999999998]",-82,-30,1,0,0,response5disk,17,2,1,0,0,rectangle,17,2,1,0,0,3,2,0.0035,0,17,2,1,0,0,0,11,11,99,1,18,second,,,,,,,,,,,,,,,,,,,,,,,,,,,,,,,,,,,,,,,,,,,,,,,,,,,,,,,,,,,,,,,,,,,,,,,,
,,,,,,60edcdb29cb14344e5d36ac0,62c539b8a3b80bd9e872dea2,2022-07-06_09h29.55.215,Colour_Asymmetry_Pilot,2022.1.3,Win32,60.08532116,62c50e9c1127f2cd403a315f,,,,,,,,,,,,,,,,,,,,onethree,,2,1.6835,,,,,,,,,,,,,,,,,,,,,,,,,,,,,,,,,,"[0.3881999999999999,-0.23939999999999995,-0.05040000000000011]","[-0.4982,-0.2942,-0.0354000000000001]",64,-43,1,0,0,response3disk,12,-8,1,0,0,rectangle,12,-8,1,0,0,3,3,0.005,0,12,-8,1,0,0,0,12,12,75,1,75,first,,,,,,,,,,,,,,,,,,,,,,,,,,,,,,,,,,,,,,,,,,,,,,,,,,,,,,,,,,,,,,,,,,,,,,,,
,,,,,,60edcdb29cb14344e5d36ac0,62c539b8a3b80bd9e872dea2,2022-07-06_09h29.55.215,Colour_Asymmetry_Pilot,2022.1.3,Win32,60.08532116,62c50e9c1127f2cd403a315f,,,,,,,,,,,,,,,,,,,,threeone,,-3,1.6507,,,,,,,,,,,,,,,,,,,,,,,,,,,,,,,,,,"[0.34099999999999997,0.12939999999999996,-0.9766]","[0.23120000000000007,-0.7726,-0.34120000000000006]",-71,30,1,0,0,response7disk,2,-1,1,0,0,rectangle,2,-1,1,0,0,3,2,0.0036,0,2,-1,1,0,0,0,13,13,73,1,73,first,,,,,,,,,,,,,,,,,,,,,,,,,,,,,,,,,,,,,,,,,,,,,,,,,,,,,,,,,,,,,,,,,,,,,,,,
,,,,,,60edcdb29cb14344e5d36ac0,62c539b8a3b80bd9e872dea2,2022-07-06_09h29.55.215,Colour_Asymmetry_Pilot,2022.1.3,Win32,60.08532116,62c50e9c1127f2cd403a315f,,,,,,,,,,,,,,,,,,,,twofour,,-3,0.7458,,,,,,,,,,,,,,,,,,,,,,,,,,,,,,,,,,"[-0.30200000000000005,0.14500000000000002,0.2784]","[0.9686000000000001,0.3802000000000001,0.19999999999999996]",-63,28,1,0,0,response7disk,-17,-6,1,0,0,rectangle,-17,-6,1,0,0,3,1,0.0031,0,-17,-6,1,0,0,0,14,14,6,1,6,first,,,,,,,,,,,,,,,,,,,,,,,,,,,,,,,,,,,,,,,,,,,,,,,,,,,,,,,,,,,,,,,,,,,,,,,,
,,,,,,60edcdb29cb14344e5d36ac0,62c539b8a3b80bd9e872dea2,2022-07-06_09h29.55.215,Colour_Asymmetry_Pilot,2022.1.3,Win32,60.08532116,62c50e9c1127f2cd403a315f,,,,,,,,,,,,,,,,,,,,threeone,,2,2.106,,,,,,,,,,,,,,,,,,,,,,,,,,,,,,,,,,"[-0.26280000000000003,-0.4746,-0.2158]","[0.11359999999999992,0.6312,0.5213999999999999]",55,-33,1,0,0,response3disk,18,-5,1,0,0,rectangle,18,-5,1,0,0,3,1,0.0009,0,18,-5,1,0,0,0,15,15,64,1,64,first,,,,,,,,,,,,,,,,,,,,,,,,,,,,,,,,,,,,,,,,,,,,,,,,,,,,,,,,,,,,,,,,,,,,,,,,
,,,,,,60edcdb29cb14344e5d36ac0,62c539b8a3b80bd9e872dea2,2022-07-06_09h29.55.215,Colour_Asymmetry_Pilot,2022.1.3,Win32,60.08532116,62c50e9c1127f2cd403a315f,,,,,,,,,,,,,,,,,,,,onethree,,3,2.8048,,,,,,,,,,,,,,,,,,,,,,,,,,,,,,,,,,"[-0.6942,-0.7648,-0.12959999999999994]","[-0.9688,-0.38039999999999996,-0.41979999999999995]",73,41,1,0,0,response1disk,-1,0,1,0,0,rectangle,-1,0,1,0,0,3,1,0.0008,0,-1,0,1,0,0,0,16,16,118,1,37,second,,,,,,,,,,,,,,,,,,,,,,,,,,,,,,,,,,,,,,,,,,,,,,,,,,,,,,,,,,,,,,,,,,,,,,,,
,,,,,,60edcdb29cb14344e5d36ac0,62c539b8a3b80bd9e872dea2,2022-07-06_09h29.55.215,Colour_Asymmetry_Pilot,2022.1.3,Win32,60.08532116,62c50e9c1127f2cd403a315f,,,,,,,,,,,,,,,,,,,,twofour,,-3,3.0086,,,,,,,,,,,,,,,,,,,,,,,,,,,,,,,,,,"[-0.20799999999999996,-0.655,-0.01980000000000004]","[0.9842,0.7409999999999999,-0.6628000000000001]",-82,27,1,0,0,response7disk,-6,10,1,0,0,rectangle,-6,10,1,0,0,3,1,0.0005,0,-6,10,1,0,0,0,17,17,98,1,17,second,,,,,,,,,,,,,,,,,,,,,,,,,,,,,,,,,,,,,,,,,,,,,,,,,,,,,,,,,,,,,,,,,,,,,,,,
