trials.thisRepN,trials.thisTrialN,trials.thisN,trials.thisIndex,trials.ran,Colourcodes,participant,session,date,expName,psychopyVersion,OS,frameRate,study_id,trials_4.thisRepN,trials_4.thisTrialN,trials_4.thisN,trials_4.thisIndex,trials_4.ran,StimulusPos,key_resp.keys,key_resp.rt,key_resp_2.keys,key_resp_2.rt,key_resp_15.keys,key_resp_15.rt,key_resp_17.keys,key_resp_17.rt,key_resp_9.keys,key_resp_9.rt,key_resp_10.keys,key_resp_10.rt,Circle1_col,Ecc,Circle2_col,similarity,response_time,mouse_5.x,mouse_5.y,mouse_5.leftButton,mouse_5.midButton,mouse_5.rightButton,mouse_5.clicked_name,mouse_10.x,mouse_10.y,mouse_10.leftButton,mouse_10.midButton,mouse_10.rightButton,mouse_10.clicked_name,mouse_7.x,mouse_7.y,mouse_7.leftButton,mouse_7.midButton,mouse_7.rightButton,mouse_7.clicked_name,catchprac,catchnumberprac,mouse_6.x,mouse_6.y,mouse_6.leftButton,mouse_6.midButton,mouse_6.rightButton,mouse_6.clicked_name,duringprac.thisRepN,duringprac.thisTrialN,duringprac.thisN,duringprac.thisIndex,duringprac.ran,key_resp_22.keys,key_resp_22.rt,Circle1_colour,Circle2_colour,mouse.x,mouse.y,mouse.leftButton,mouse.midButton,mouse.rightButton,mouse.clicked_name,mouse_2.x,mouse_2.y,mouse_2.leftButton,mouse_2.midButton,mouse_2.rightButton,mouse_2.clicked_name,mouse_3.x,mouse_3.y,mouse_3.leftButton,mouse_3.midButton,mouse_3.rightButton,catchresponse,catchnumber,response_time_catch,Catch,mouse_11.x,mouse_11.y,mouse_11.leftButton,mouse_11.midButton,mouse_11.rightButton,trials_2.thisRepN,trials_2.thisTrialN,trials_2.thisN,trials_2.thisIndex,trials_2.ran,Colourpair,Temporder,mouse_3.clicked_name,mouse_11.clicked_name,trials_3.thisRepN,trials_3.thisTrialN,trials_3.thisN,trials_3.thisIndex,trials_3.ran,key_resp_instr_Ishi.keys,key_resp_instr_Ishi.rt,Ishi_trial_keyresp.keys,Ishi_textbox.text,Ishi_mouse.x,Ishi_mouse.y,Ishi_mouse.leftButton,Ishi_mouse.midButton,Ishi_mouse.rightButton,Ishi_mouse.clicked_name,Ishi_loop.thisRepN,Ishi_loop.thisTrialN,Ishi_loop.thisN,Ishi_loop.thisIndex,Ishi_loop.ran,imageaddress,textbox.text,mouse_4.x,mouse_4.y,mouse_4.leftButton,mouse_4.midButton,mouse_4.rightButton,mouse_4.clicked_name,textbox_2.text,mouse_8.x,mouse_8.y,mouse_8.leftButton,mouse_8.midButton,mouse_8.rightButton,mouse_8.clicked_name,textbox_3.text,mouse_9.x,mouse_9.y,mouse_9.leftButton,mouse_9.midButton,mouse_9.rightButton,mouse_9.clicked_name,textbox_4.text,mouse_12.x,mouse_12.y,mouse_12.leftButton,mouse_12.midButton,mouse_12.rightButton,mouse_12.clicked_name,textbox_5.text,mouse_13.x,mouse_13.y,mouse_13.leftButton,mouse_13.midButton,mouse_13.rightButton,mouse_13.clicked_name,textbox_6.text,mouse_14.x,mouse_14.y,mouse_14.leftButton,mouse_14.midButton,mouse_14.rightButton,mouse_14.clicked_name,textbox_7.text,mouse_15.x,mouse_15.y,mouse_15.leftButton,mouse_15.midButton,mouse_15.rightButton,mouse_15.clicked_name
0,0,0,43,1,,5f9c70519242e010e0f1c608,62c538e4e5224759483cd7f2,2022-07-06_09h25.34.340,Colour_Asymmetry_Pilot,2022.1.3,Win32,60.06727535,62c50e9c1127f2cd403a315f,,,,,,,,,,,,,,,,,,,,,,,,,,,,,,,,,,,,,,,,,,,,,,,,,,,,,,,,,,,,,,,,,,,,,,,,,,,,,,,,,,,,,,,,,,,,,,,,,,,,,,,,,,,,,,,,,,,,,,,,,,,,,,,,,,,,,,,,,,,,,,,,,,,,,,,,,,,,,,,,,,,
0,1,1,49,1,,5f9c70519242e010e0f1c608,62c538e4e5224759483cd7f2,2022-07-06_09h25.34.340,Colour_Asymmetry_Pilot,2022.1.3,Win32,60.06727535,62c50e9c1127f2cd403a315f,,,,,,,,,,,,,,,,,,,,,,,,,,,,,,,,,,,,,,,,,,,,,,,,,,,,,,,,,,,,,,,,,,,,,,,,,,,,,,,,,,,,,,,,,,,,,,,,,,,,,,,,,,,,,,,,,,,,,,,,,,,,,,,,,,,,,,,,,,,,,,,,,,,,,,,,,,,,,,,,,,,
0,2,2,34,1,,5f9c70519242e010e0f1c608,62c538e4e5224759483cd7f2,2022-07-06_09h25.34.340,Colour_Asymmetry_Pilot,2022.1.3,Win32,60.06727535,62c50e9c1127f2cd403a315f,,,,,,,,,,,,,,,,,,,,,,,,,,,,,,,,,,,,,,,,,,,,,,,,,,,,,,,,,,,,,,,,,,,,,,,,,,,,,,,,,,,,,,,,,,,,,,,,,,,,,,,,,,,,,,,,,,,,,,,,,,,,,,,,,,,,,,,,,,,,,,,,,,,,,,,,,,,,,,,,,,,
0,3,3,42,1,,5f9c70519242e010e0f1c608,62c538e4e5224759483cd7f2,2022-07-06_09h25.34.340,Colour_Asymmetry_Pilot,2022.1.3,Win32,60.06727535,62c50e9c1127f2cd403a315f,,,,,,,,,,,,,,,,,,,,,,,,,,,,,,,,,,,,,,,,,,,,,,,,,,,,,,,,,,,,,,,,,,,,,,,,,,,,,,,,,,,,,,,,,,,,,,,,,,,,,,,,,,,,,,,,,,,,,,,,,,,,,,,,,,,,,,,,,,,,,,,,,,,,,,,,,,,,,,,,,,,
0,4,4,27,1,,5f9c70519242e010e0f1c608,62c538e4e5224759483cd7f2,2022-07-06_09h25.34.340,Colour_Asymmetry_Pilot,2022.1.3,Win32,60.06727535,62c50e9c1127f2cd403a315f,,,,,,,,,,,,,,,,,,,,,,,,,,,,,,,,,,,,,,,,,,,,,,,,,,,,,,,,,,,,,,,,,,,,,,,,,,,,,,,,,,,,,,,,,,,,,,,,,,,,,,,,,,,,,,,,,,,,,,,,,,,,,,,,,,,,,,,,,,,,,,,,,,,,,,,,,,,,,,,,,,,
0,5,5,40,1,,5f9c70519242e010e0f1c608,62c538e4e5224759483cd7f2,2022-07-06_09h25.34.340,Colour_Asymmetry_Pilot,2022.1.3,Win32,60.06727535,62c50e9c1127f2cd403a315f,,,,,,,,,,,,,,,,,,,,,,,,,,,,,,,,,,,,,,,,,,,,,,,,,,,,,,,,,,,,,,,,,,,,,,,,,,,,,,,,,,,,,,,,,,,,,,,,,,,,,,,,,,,,,,,,,,,,,,,,,,,,,,,,,,,,,,,,,,,,,,,,,,,,,,,,,,,,,,,,,,,
0,6,6,26,1,,5f9c70519242e010e0f1c608,62c538e4e5224759483cd7f2,2022-07-06_09h25.34.340,Colour_Asymmetry_Pilot,2022.1.3,Win32,60.06727535,62c50e9c1127f2cd403a315f,,,,,,,,,,,,,,,,,,,,,,,,,,,,,,,,,,,,,,,,,,,,,,,,,,,,,,,,,,,,,,,,,,,,,,,,,,,,,,,,,,,,,,,,,,,,,,,,,,,,,,,,,,,,,,,,,,,,,,,,,,,,,,,,,,,,,,,,,,,,,,,,,,,,,,,,,,,,,,,,,,,
0,7,7,32,1,,5f9c70519242e010e0f1c608,62c538e4e5224759483cd7f2,2022-07-06_09h25.34.340,Colour_Asymmetry_Pilot,2022.1.3,Win32,60.06727535,62c50e9c1127f2cd403a315f,,,,,,,,,,,,,,,,,,,,,,,,,,,,,,,,,,,,,,,,,,,,,,,,,,,,,,,,,,,,,,,,,,,,,,,,,,,,,,,,,,,,,,,,,,,,,,,,,,,,,,,,,,,,,,,,,,,,,,,,,,,,,,,,,,,,,,,,,,,,,,,,,,,,,,,,,,,,,,,,,,,
0,8,8,79,1,,5f9c70519242e010e0f1c608,62c538e4e5224759483cd7f2,2022-07-06_09h25.34.340,Colour_Asymmetry_Pilot,2022.1.3,Win32,60.06727535,62c50e9c1127f2cd403a315f,,,,,,,,,,,,,,,,,,,,,,,,,,,,,,,,,,,,,,,,,,,,,,,,,,,,,,,,,,,,,,,,,,,,,,,,,,,,,,,,,,,,,,,,,,,,,,,,,,,,,,,,,,,,,,,,,,,,,,,,,,,,,,,,,,,,,,,,,,,,,,,,,,,,,,,,,,,,,,,,,,,
0,9,9,12,1,,5f9c70519242e010e0f1c608,62c538e4e5224759483cd7f2,2022-07-06_09h25.34.340,Colour_Asymmetry_Pilot,2022.1.3,Win32,60.06727535,62c50e9c1127f2cd403a315f,,,,,,,,,,,,,,,,,,,,,,,,,,,,,,,,,,,,,,,,,,,,,,,,,,,,,,,,,,,,,,,,,,,,,,,,,,,,,,,,,,,,,,,,,,,,,,,,,,,,,,,,,,,,,,,,,,,,,,,,,,,,,,,,,,,,,,,,,,,,,,,,,,,,,,,,,,,,,,,,,,,
0,10,10,61,1,,5f9c70519242e010e0f1c608,62c538e4e5224759483cd7f2,2022-07-06_09h25.34.340,Colour_Asymmetry_Pilot,2022.1.3,Win32,60.06727535,62c50e9c1127f2cd403a315f,,,,,,,,,,,,,,,,,,,,,,,,,,,,,,,,,,,,,,,,,,,,,,,,,,,,,,,,,,,,,,,,,,,,,,,,,,,,,,,,,,,,,,,,,,,,,,,,,,,,,,,,,,,,,,,,,,,,,,,,,,,,,,,,,,,,,,,,,,,,,,,,,,,,,,,,,,,,,,,,,,,
0,11,11,7,1,,5f9c70519242e010e0f1c608,62c538e4e5224759483cd7f2,2022-07-06_09h25.34.340,Colour_Asymmetry_Pilot,2022.1.3,Win32,60.06727535,62c50e9c1127f2cd403a315f,,,,,,,,,,,,,,,,,,,,,,,,,,,,,,,,,,,,,,,,,,,,,,,,,,,,,,,,,,,,,,,,,,,,,,,,,,,,,,,,,,,,,,,,,,,,,,,,,,,,,,,,,,,,,,,,,,,,,,,,,,,,,,,,,,,,,,,,,,,,,,,,,,,,,,,,,,,,,,,,,,,
0,12,12,19,1,,5f9c70519242e010e0f1c608,62c538e4e5224759483cd7f2,2022-07-06_09h25.34.340,Colour_Asymmetry_Pilot,2022.1.3,Win32,60.06727535,62c50e9c1127f2cd403a315f,,,,,,,,,,,,,,,,,,,,,,,,,,,,,,,,,,,,,,,,,,,,,,,,,,,,,,,,,,,,,,,,,,,,,,,,,,,,,,,,,,,,,,,,,,,,,,,,,,,,,,,,,,,,,,,,,,,,,,,,,,,,,,,,,,,,,,,,,,,,,,,,,,,,,,,,,,,,,,,,,,,
0,13,13,51,1,,5f9c70519242e010e0f1c608,62c538e4e5224759483cd7f2,2022-07-06_09h25.34.340,Colour_Asymmetry_Pilot,2022.1.3,Win32,60.06727535,62c50e9c1127f2cd403a315f,,,,,,,,,,,,,,,,,,,,,,,,,,,,,,,,,,,,,,,,,,,,,,,,,,,,,,,,,,,,,,,,,,,,,,,,,,,,,,,,,,,,,,,,,,,,,,,,,,,,,,,,,,,,,,,,,,,,,,,,,,,,,,,,,,,,,,,,,,,,,,,,,,,,,,,,,,,,,,,,,,,
0,14,14,68,1,,5f9c70519242e010e0f1c608,62c538e4e5224759483cd7f2,2022-07-06_09h25.34.340,Colour_Asymmetry_Pilot,2022.1.3,Win32,60.06727535,62c50e9c1127f2cd403a315f,,,,,,,,,,,,,,,,,,,,,,,,,,,,,,,,,,,,,,,,,,,,,,,,,,,,,,,,,,,,,,,,,,,,,,,,,,,,,,,,,,,,,,,,,,,,,,,,,,,,,,,,,,,,,,,,,,,,,,,,,,,,,,,,,,,,,,,,,,,,,,,,,,,,,,,,,,,,,,,,,,,
0,15,15,91,1,,5f9c70519242e010e0f1c608,62c538e4e5224759483cd7f2,2022-07-06_09h25.34.340,Colour_Asymmetry_Pilot,2022.1.3,Win32,60.06727535,62c50e9c1127f2cd403a315f,,,,,,,,,,,,,,,,,,,,,,,,,,,,,,,,,,,,,,,,,,,,,,,,,,,,,,,,,,,,,,,,,,,,,,,,,,,,,,,,,,,,,,,,,,,,,,,,,,,,,,,,,,,,,,,,,,,,,,,,,,,,,,,,,,,,,,,,,,,,,,,,,,,,,,,,,,,,,,,,,,,
0,16,16,9,1,,5f9c70519242e010e0f1c608,62c538e4e5224759483cd7f2,2022-07-06_09h25.34.340,Colour_Asymmetry_Pilot,2022.1.3,Win32,60.06727535,62c50e9c1127f2cd403a315f,,,,,,,,,,,,,,,,,,,,,,,,,,,,,,,,,,,,,,,,,,,,,,,,,,,,,,,,,,,,,,,,,,,,,,,,,,,,,,,,,,,,,,,,,,,,,,,,,,,,,,,,,,,,,,,,,,,,,,,,,,,,,,,,,,,,,,,,,,,,,,,,,,,,,,,,,,,,,,,,,,,
0,17,17,67,1,,5f9c70519242e010e0f1c608,62c538e4e5224759483cd7f2,2022-07-06_09h25.34.340,Colour_Asymmetry_Pilot,2022.1.3,Win32,60.06727535,62c50e9c1127f2cd403a315f,,,,,,,,,,,,,,,,,,,,,,,,,,,,,,,,,,,,,,,,,,,,,,,,,,,,,,,,,,,,,,,,,,,,,,,,,,,,,,,,,,,,,,,,,,,,,,,,,,,,,,,,,,,,,,,,,,,,,,,,,,,,,,,,,,,,,,,,,,,,,,,,,,,,,,,,,,,,,,,,,,,
0,18,18,25,1,,5f9c70519242e010e0f1c608,62c538e4e5224759483cd7f2,2022-07-06_09h25.34.340,Colour_Asymmetry_Pilot,2022.1.3,Win32,60.06727535,62c50e9c1127f2cd403a315f,,,,,,,,,,,,,,,,,,,,,,,,,,,,,,,,,,,,,,,,,,,,,,,,,,,,,,,,,,,,,,,,,,,,,,,,,,,,,,,,,,,,,,,,,,,,,,,,,,,,,,,,,,,,,,,,,,,,,,,,,,,,,,,,,,,,,,,,,,,,,,,,,,,,,,,,,,,,,,,,,,,
0,19,19,18,1,,5f9c70519242e010e0f1c608,62c538e4e5224759483cd7f2,2022-07-06_09h25.34.340,Colour_Asymmetry_Pilot,2022.1.3,Win32,60.06727535,62c50e9c1127f2cd403a315f,,,,,,,,,,,,,,,,,,,,,,,,,,,,,,,,,,,,,,,,,,,,,,,,,,,,,,,,,,,,,,,,,,,,,,,,,,,,,,,,,,,,,,,,,,,,,,,,,,,,,,,,,,,,,,,,,,,,,,,,,,,,,,,,,,,,,,,,,,,,,,,,,,,,,,,,,,,,,,,,,,,
0,20,20,48,1,,5f9c70519242e010e0f1c608,62c538e4e5224759483cd7f2,2022-07-06_09h25.34.340,Colour_Asymmetry_Pilot,2022.1.3,Win32,60.06727535,62c50e9c1127f2cd403a315f,,,,,,,,,,,,,,,,,,,,,,,,,,,,,,,,,,,,,,,,,,,,,,,,,,,,,,,,,,,,,,,,,,,,,,,,,,,,,,,,,,,,,,,,,,,,,,,,,,,,,,,,,,,,,,,,,,,,,,,,,,,,,,,,,,,,,,,,,,,,,,,,,,,,,,,,,,,,,,,,,,,
0,21,21,22,1,,5f9c70519242e010e0f1c608,62c538e4e5224759483cd7f2,2022-07-06_09h25.34.340,Colour_Asymmetry_Pilot,2022.1.3,Win32,60.06727535,62c50e9c1127f2cd403a315f,,,,,,,,,,,,,,,,,,,,,,,,,,,,,,,,,,,,,,,,,,,,,,,,,,,,,,,,,,,,,,,,,,,,,,,,,,,,,,,,,,,,,,,,,,,,,,,,,,,,,,,,,,,,,,,,,,,,,,,,,,,,,,,,,,,,,,,,,,,,,,,,,,,,,,,,,,,,,,,,,,,
0,22,22,11,1,,5f9c70519242e010e0f1c608,62c538e4e5224759483cd7f2,2022-07-06_09h25.34.340,Colour_Asymmetry_Pilot,2022.1.3,Win32,60.06727535,62c50e9c1127f2cd403a315f,,,,,,,,,,,,,,,,,,,,,,,,,,,,,,,,,,,,,,,,,,,,,,,,,,,,,,,,,,,,,,,,,,,,,,,,,,,,,,,,,,,,,,,,,,,,,,,,,,,,,,,,,,,,,,,,,,,,,,,,,,,,,,,,,,,,,,,,,,,,,,,,,,,,,,,,,,,,,,,,,,,
0,23,23,73,1,,5f9c70519242e010e0f1c608,62c538e4e5224759483cd7f2,2022-07-06_09h25.34.340,Colour_Asymmetry_Pilot,2022.1.3,Win32,60.06727535,62c50e9c1127f2cd403a315f,,,,,,,,,,,,,,,,,,,,,,,,,,,,,,,,,,,,,,,,,,,,,,,,,,,,,,,,,,,,,,,,,,,,,,,,,,,,,,,,,,,,,,,,,,,,,,,,,,,,,,,,,,,,,,,,,,,,,,,,,,,,,,,,,,,,,,,,,,,,,,,,,,,,,,,,,,,,,,,,,,,
0,24,24,53,1,,5f9c70519242e010e0f1c608,62c538e4e5224759483cd7f2,2022-07-06_09h25.34.340,Colour_Asymmetry_Pilot,2022.1.3,Win32,60.06727535,62c50e9c1127f2cd403a315f,,,,,,,,,,,,,,,,,,,,,,,,,,,,,,,,,,,,,,,,,,,,,,,,,,,,,,,,,,,,,,,,,,,,,,,,,,,,,,,,,,,,,,,,,,,,,,,,,,,,,,,,,,,,,,,,,,,,,,,,,,,,,,,,,,,,,,,,,,,,,,,,,,,,,,,,,,,,,,,,,,,
0,25,25,59,1,,5f9c70519242e010e0f1c608,62c538e4e5224759483cd7f2,2022-07-06_09h25.34.340,Colour_Asymmetry_Pilot,2022.1.3,Win32,60.06727535,62c50e9c1127f2cd403a315f,,,,,,,,,,,,,,,,,,,,,,,,,,,,,,,,,,,,,,,,,,,,,,,,,,,,,,,,,,,,,,,,,,,,,,,,,,,,,,,,,,,,,,,,,,,,,,,,,,,,,,,,,,,,,,,,,,,,,,,,,,,,,,,,,,,,,,,,,,,,,,,,,,,,,,,,,,,,,,,,,,,
0,26,26,80,1,,5f9c70519242e010e0f1c608,62c538e4e5224759483cd7f2,2022-07-06_09h25.34.340,Colour_Asymmetry_Pilot,2022.1.3,Win32,60.06727535,62c50e9c1127f2cd403a315f,,,,,,,,,,,,,,,,,,,,,,,,,,,,,,,,,,,,,,,,,,,,,,,,,,,,,,,,,,,,,,,,,,,,,,,,,,,,,,,,,,,,,,,,,,,,,,,,,,,,,,,,,,,,,,,,,,,,,,,,,,,,,,,,,,,,,,,,,,,,,,,,,,,,,,,,,,,,,,,,,,,
0,27,27,83,1,,5f9c70519242e010e0f1c608,62c538e4e5224759483cd7f2,2022-07-06_09h25.34.340,Colour_Asymmetry_Pilot,2022.1.3,Win32,60.06727535,62c50e9c1127f2cd403a315f,,,,,,,,,,,,,,,,,,,,,,,,,,,,,,,,,,,,,,,,,,,,,,,,,,,,,,,,,,,,,,,,,,,,,,,,,,,,,,,,,,,,,,,,,,,,,,,,,,,,,,,,,,,,,,,,,,,,,,,,,,,,,,,,,,,,,,,,,,,,,,,,,,,,,,,,,,,,,,,,,,,
0,28,28,36,1,,5f9c70519242e010e0f1c608,62c538e4e5224759483cd7f2,2022-07-06_09h25.34.340,Colour_Asymmetry_Pilot,2022.1.3,Win32,60.06727535,62c50e9c1127f2cd403a315f,,,,,,,,,,,,,,,,,,,,,,,,,,,,,,,,,,,,,,,,,,,,,,,,,,,,,,,,,,,,,,,,,,,,,,,,,,,,,,,,,,,,,,,,,,,,,,,,,,,,,,,,,,,,,,,,,,,,,,,,,,,,,,,,,,,,,,,,,,,,,,,,,,,,,,,,,,,,,,,,,,,
0,29,29,33,1,,5f9c70519242e010e0f1c608,62c538e4e5224759483cd7f2,2022-07-06_09h25.34.340,Colour_Asymmetry_Pilot,2022.1.3,Win32,60.06727535,62c50e9c1127f2cd403a315f,,,,,,,,,,,,,,,,,,,,,,,,,,,,,,,,,,,,,,,,,,,,,,,,,,,,,,,,,,,,,,,,,,,,,,,,,,,,,,,,,,,,,,,,,,,,,,,,,,,,,,,,,,,,,,,,,,,,,,,,,,,,,,,,,,,,,,,,,,,,,,,,,,,,,,,,,,,,,,,,,,,
0,30,30,38,1,,5f9c70519242e010e0f1c608,62c538e4e5224759483cd7f2,2022-07-06_09h25.34.340,Colour_Asymmetry_Pilot,2022.1.3,Win32,60.06727535,62c50e9c1127f2cd403a315f,,,,,,,,,,,,,,,,,,,,,,,,,,,,,,,,,,,,,,,,,,,,,,,,,,,,,,,,,,,,,,,,,,,,,,,,,,,,,,,,,,,,,,,,,,,,,,,,,,,,,,,,,,,,,,,,,,,,,,,,,,,,,,,,,,,,,,,,,,,,,,,,,,,,,,,,,,,,,,,,,,,
0,31,31,10,1,,5f9c70519242e010e0f1c608,62c538e4e5224759483cd7f2,2022-07-06_09h25.34.340,Colour_Asymmetry_Pilot,2022.1.3,Win32,60.06727535,62c50e9c1127f2cd403a315f,,,,,,,,,,,,,,,,,,,,,,,,,,,,,,,,,,,,,,,,,,,,,,,,,,,,,,,,,,,,,,,,,,,,,,,,,,,,,,,,,,,,,,,,,,,,,,,,,,,,,,,,,,,,,,,,,,,,,,,,,,,,,,,,,,,,,,,,,,,,,,,,,,,,,,,,,,,,,,,,,,,
0,32,32,17,1,,5f9c70519242e010e0f1c608,62c538e4e5224759483cd7f2,2022-07-06_09h25.34.340,Colour_Asymmetry_Pilot,2022.1.3,Win32,60.06727535,62c50e9c1127f2cd403a315f,,,,,,,,,,,,,,,,,,,,,,,,,,,,,,,,,,,,,,,,,,,,,,,,,,,,,,,,,,,,,,,,,,,,,,,,,,,,,,,,,,,,,,,,,,,,,,,,,,,,,,,,,,,,,,,,,,,,,,,,,,,,,,,,,,,,,,,,,,,,,,,,,,,,,,,,,,,,,,,,,,,
0,33,33,0,1,,5f9c70519242e010e0f1c608,62c538e4e5224759483cd7f2,2022-07-06_09h25.34.340,Colour_Asymmetry_Pilot,2022.1.3,Win32,60.06727535,62c50e9c1127f2cd403a315f,,,,,,,,,,,,,,,,,,,,,,,,,,,,,,,,,,,,,,,,,,,,,,,,,,,,,,,,,,,,,,,,,,,,,,,,,,,,,,,,,,,,,,,,,,,,,,,,,,,,,,,,,,,,,,,,,,,,,,,,,,,,,,,,,,,,,,,,,,,,,,,,,,,,,,,,,,,,,,,,,,,
0,34,34,3,1,,5f9c70519242e010e0f1c608,62c538e4e5224759483cd7f2,2022-07-06_09h25.34.340,Colour_Asymmetry_Pilot,2022.1.3,Win32,60.06727535,62c50e9c1127f2cd403a315f,,,,,,,,,,,,,,,,,,,,,,,,,,,,,,,,,,,,,,,,,,,,,,,,,,,,,,,,,,,,,,,,,,,,,,,,,,,,,,,,,,,,,,,,,,,,,,,,,,,,,,,,,,,,,,,,,,,,,,,,,,,,,,,,,,,,,,,,,,,,,,,,,,,,,,,,,,,,,,,,,,,
0,35,35,16,1,,5f9c70519242e010e0f1c608,62c538e4e5224759483cd7f2,2022-07-06_09h25.34.340,Colour_Asymmetry_Pilot,2022.1.3,Win32,60.06727535,62c50e9c1127f2cd403a315f,,,,,,,,,,,,,,,,,,,,,,,,,,,,,,,,,,,,,,,,,,,,,,,,,,,,,,,,,,,,,,,,,,,,,,,,,,,,,,,,,,,,,,,,,,,,,,,,,,,,,,,,,,,,,,,,,,,,,,,,,,,,,,,,,,,,,,,,,,,,,,,,,,,,,,,,,,,,,,,,,,,
0,36,36,47,1,,5f9c70519242e010e0f1c608,62c538e4e5224759483cd7f2,2022-07-06_09h25.34.340,Colour_Asymmetry_Pilot,2022.1.3,Win32,60.06727535,62c50e9c1127f2cd403a315f,,,,,,,,,,,,,,,,,,,,,,,,,,,,,,,,,,,,,,,,,,,,,,,,,,,,,,,,,,,,,,,,,,,,,,,,,,,,,,,,,,,,,,,,,,,,,,,,,,,,,,,,,,,,,,,,,,,,,,,,,,,,,,,,,,,,,,,,,,,,,,,,,,,,,,,,,,,,,,,,,,,
0,37,37,62,1,,5f9c70519242e010e0f1c608,62c538e4e5224759483cd7f2,2022-07-06_09h25.34.340,Colour_Asymmetry_Pilot,2022.1.3,Win32,60.06727535,62c50e9c1127f2cd403a315f,,,,,,,,,,,,,,,,,,,,,,,,,,,,,,,,,,,,,,,,,,,,,,,,,,,,,,,,,,,,,,,,,,,,,,,,,,,,,,,,,,,,,,,,,,,,,,,,,,,,,,,,,,,,,,,,,,,,,,,,,,,,,,,,,,,,,,,,,,,,,,,,,,,,,,,,,,,,,,,,,,,
0,38,38,55,1,,5f9c70519242e010e0f1c608,62c538e4e5224759483cd7f2,2022-07-06_09h25.34.340,Colour_Asymmetry_Pilot,2022.1.3,Win32,60.06727535,62c50e9c1127f2cd403a315f,,,,,,,,,,,,,,,,,,,,,,,,,,,,,,,,,,,,,,,,,,,,,,,,,,,,,,,,,,,,,,,,,,,,,,,,,,,,,,,,,,,,,,,,,,,,,,,,,,,,,,,,,,,,,,,,,,,,,,,,,,,,,,,,,,,,,,,,,,,,,,,,,,,,,,,,,,,,,,,,,,,
0,39,39,31,1,,5f9c70519242e010e0f1c608,62c538e4e5224759483cd7f2,2022-07-06_09h25.34.340,Colour_Asymmetry_Pilot,2022.1.3,Win32,60.06727535,62c50e9c1127f2cd403a315f,,,,,,,,,,,,,,,,,,,,,,,,,,,,,,,,,,,,,,,,,,,,,,,,,,,,,,,,,,,,,,,,,,,,,,,,,,,,,,,,,,,,,,,,,,,,,,,,,,,,,,,,,,,,,,,,,,,,,,,,,,,,,,,,,,,,,,,,,,,,,,,,,,,,,,,,,,,,,,,,,,,
0,40,40,69,1,,5f9c70519242e010e0f1c608,62c538e4e5224759483cd7f2,2022-07-06_09h25.34.340,Colour_Asymmetry_Pilot,2022.1.3,Win32,60.06727535,62c50e9c1127f2cd403a315f,,,,,,,,,,,,,,,,,,,,,,,,,,,,,,,,,,,,,,,,,,,,,,,,,,,,,,,,,,,,,,,,,,,,,,,,,,,,,,,,,,,,,,,,,,,,,,,,,,,,,,,,,,,,,,,,,,,,,,,,,,,,,,,,,,,,,,,,,,,,,,,,,,,,,,,,,,,,,,,,,,,
0,41,41,78,1,,5f9c70519242e010e0f1c608,62c538e4e5224759483cd7f2,2022-07-06_09h25.34.340,Colour_Asymmetry_Pilot,2022.1.3,Win32,60.06727535,62c50e9c1127f2cd403a315f,,,,,,,,,,,,,,,,,,,,,,,,,,,,,,,,,,,,,,,,,,,,,,,,,,,,,,,,,,,,,,,,,,,,,,,,,,,,,,,,,,,,,,,,,,,,,,,,,,,,,,,,,,,,,,,,,,,,,,,,,,,,,,,,,,,,,,,,,,,,,,,,,,,,,,,,,,,,,,,,,,,
0,42,42,50,1,,5f9c70519242e010e0f1c608,62c538e4e5224759483cd7f2,2022-07-06_09h25.34.340,Colour_Asymmetry_Pilot,2022.1.3,Win32,60.06727535,62c50e9c1127f2cd403a315f,,,,,,,,,,,,,,,,,,,,,,,,,,,,,,,,,,,,,,,,,,,,,,,,,,,,,,,,,,,,,,,,,,,,,,,,,,,,,,,,,,,,,,,,,,,,,,,,,,,,,,,,,,,,,,,,,,,,,,,,,,,,,,,,,,,,,,,,,,,,,,,,,,,,,,,,,,,,,,,,,,,
0,43,43,52,1,,5f9c70519242e010e0f1c608,62c538e4e5224759483cd7f2,2022-07-06_09h25.34.340,Colour_Asymmetry_Pilot,2022.1.3,Win32,60.06727535,62c50e9c1127f2cd403a315f,,,,,,,,,,,,,,,,,,,,,,,,,,,,,,,,,,,,,,,,,,,,,,,,,,,,,,,,,,,,,,,,,,,,,,,,,,,,,,,,,,,,,,,,,,,,,,,,,,,,,,,,,,,,,,,,,,,,,,,,,,,,,,,,,,,,,,,,,,,,,,,,,,,,,,,,,,,,,,,,,,,
0,44,44,58,1,,5f9c70519242e010e0f1c608,62c538e4e5224759483cd7f2,2022-07-06_09h25.34.340,Colour_Asymmetry_Pilot,2022.1.3,Win32,60.06727535,62c50e9c1127f2cd403a315f,,,,,,,,,,,,,,,,,,,,,,,,,,,,,,,,,,,,,,,,,,,,,,,,,,,,,,,,,,,,,,,,,,,,,,,,,,,,,,,,,,,,,,,,,,,,,,,,,,,,,,,,,,,,,,,,,,,,,,,,,,,,,,,,,,,,,,,,,,,,,,,,,,,,,,,,,,,,,,,,,,,
0,45,45,65,1,,5f9c70519242e010e0f1c608,62c538e4e5224759483cd7f2,2022-07-06_09h25.34.340,Colour_Asymmetry_Pilot,2022.1.3,Win32,60.06727535,62c50e9c1127f2cd403a315f,,,,,,,,,,,,,,,,,,,,,,,,,,,,,,,,,,,,,,,,,,,,,,,,,,,,,,,,,,,,,,,,,,,,,,,,,,,,,,,,,,,,,,,,,,,,,,,,,,,,,,,,,,,,,,,,,,,,,,,,,,,,,,,,,,,,,,,,,,,,,,,,,,,,,,,,,,,,,,,,,,,
0,46,46,76,1,,5f9c70519242e010e0f1c608,62c538e4e5224759483cd7f2,2022-07-06_09h25.34.340,Colour_Asymmetry_Pilot,2022.1.3,Win32,60.06727535,62c50e9c1127f2cd403a315f,,,,,,,,,,,,,,,,,,,,,,,,,,,,,,,,,,,,,,,,,,,,,,,,,,,,,,,,,,,,,,,,,,,,,,,,,,,,,,,,,,,,,,,,,,,,,,,,,,,,,,,,,,,,,,,,,,,,,,,,,,,,,,,,,,,,,,,,,,,,,,,,,,,,,,,,,,,,,,,,,,,
0,47,47,92,1,,5f9c70519242e010e0f1c608,62c538e4e5224759483cd7f2,2022-07-06_09h25.34.340,Colour_Asymmetry_Pilot,2022.1.3,Win32,60.06727535,62c50e9c1127f2cd403a315f,,,,,,,,,,,,,,,,,,,,,,,,,,,,,,,,,,,,,,,,,,,,,,,,,,,,,,,,,,,,,,,,,,,,,,,,,,,,,,,,,,,,,,,,,,,,,,,,,,,,,,,,,,,,,,,,,,,,,,,,,,,,,,,,,,,,,,,,,,,,,,,,,,,,,,,,,,,,,,,,,,,
0,48,48,56,1,,5f9c70519242e010e0f1c608,62c538e4e5224759483cd7f2,2022-07-06_09h25.34.340,Colour_Asymmetry_Pilot,2022.1.3,Win32,60.06727535,62c50e9c1127f2cd403a315f,,,,,,,,,,,,,,,,,,,,,,,,,,,,,,,,,,,,,,,,,,,,,,,,,,,,,,,,,,,,,,,,,,,,,,,,,,,,,,,,,,,,,,,,,,,,,,,,,,,,,,,,,,,,,,,,,,,,,,,,,,,,,,,,,,,,,,,,,,,,,,,,,,,,,,,,,,,,,,,,,,,
0,49,49,13,1,,5f9c70519242e010e0f1c608,62c538e4e5224759483cd7f2,2022-07-06_09h25.34.340,Colour_Asymmetry_Pilot,2022.1.3,Win32,60.06727535,62c50e9c1127f2cd403a315f,,,,,,,,,,,,,,,,,,,,,,,,,,,,,,,,,,,,,,,,,,,,,,,,,,,,,,,,,,,,,,,,,,,,,,,,,,,,,,,,,,,,,,,,,,,,,,,,,,,,,,,,,,,,,,,,,,,,,,,,,,,,,,,,,,,,,,,,,,,,,,,,,,,,,,,,,,,,,,,,,,,
0,50,50,89,1,,5f9c70519242e010e0f1c608,62c538e4e5224759483cd7f2,2022-07-06_09h25.34.340,Colour_Asymmetry_Pilot,2022.1.3,Win32,60.06727535,62c50e9c1127f2cd403a315f,,,,,,,,,,,,,,,,,,,,,,,,,,,,,,,,,,,,,,,,,,,,,,,,,,,,,,,,,,,,,,,,,,,,,,,,,,,,,,,,,,,,,,,,,,,,,,,,,,,,,,,,,,,,,,,,,,,,,,,,,,,,,,,,,,,,,,,,,,,,,,,,,,,,,,,,,,,,,,,,,,,
0,51,51,2,1,,5f9c70519242e010e0f1c608,62c538e4e5224759483cd7f2,2022-07-06_09h25.34.340,Colour_Asymmetry_Pilot,2022.1.3,Win32,60.06727535,62c50e9c1127f2cd403a315f,,,,,,,,,,,,,,,,,,,,,,,,,,,,,,,,,,,,,,,,,,,,,,,,,,,,,,,,,,,,,,,,,,,,,,,,,,,,,,,,,,,,,,,,,,,,,,,,,,,,,,,,,,,,,,,,,,,,,,,,,,,,,,,,,,,,,,,,,,,,,,,,,,,,,,,,,,,,,,,,,,,
0,52,52,85,1,,5f9c70519242e010e0f1c608,62c538e4e5224759483cd7f2,2022-07-06_09h25.34.340,Colour_Asymmetry_Pilot,2022.1.3,Win32,60.06727535,62c50e9c1127f2cd403a315f,,,,,,,,,,,,,,,,,,,,,,,,,,,,,,,,,,,,,,,,,,,,,,,,,,,,,,,,,,,,,,,,,,,,,,,,,,,,,,,,,,,,,,,,,,,,,,,,,,,,,,,,,,,,,,,,,,,,,,,,,,,,,,,,,,,,,,,,,,,,,,,,,,,,,,,,,,,,,,,,,,,
0,53,53,72,1,,5f9c70519242e010e0f1c608,62c538e4e5224759483cd7f2,2022-07-06_09h25.34.340,Colour_Asymmetry_Pilot,2022.1.3,Win32,60.06727535,62c50e9c1127f2cd403a315f,,,,,,,,,,,,,,,,,,,,,,,,,,,,,,,,,,,,,,,,,,,,,,,,,,,,,,,,,,,,,,,,,,,,,,,,,,,,,,,,,,,,,,,,,,,,,,,,,,,,,,,,,,,,,,,,,,,,,,,,,,,,,,,,,,,,,,,,,,,,,,,,,,,,,,,,,,,,,,,,,,,
0,54,54,24,1,,5f9c70519242e010e0f1c608,62c538e4e5224759483cd7f2,2022-07-06_09h25.34.340,Colour_Asymmetry_Pilot,2022.1.3,Win32,60.06727535,62c50e9c1127f2cd403a315f,,,,,,,,,,,,,,,,,,,,,,,,,,,,,,,,,,,,,,,,,,,,,,,,,,,,,,,,,,,,,,,,,,,,,,,,,,,,,,,,,,,,,,,,,,,,,,,,,,,,,,,,,,,,,,,,,,,,,,,,,,,,,,,,,,,,,,,,,,,,,,,,,,,,,,,,,,,,,,,,,,,
0,55,55,6,1,,5f9c70519242e010e0f1c608,62c538e4e5224759483cd7f2,2022-07-06_09h25.34.340,Colour_Asymmetry_Pilot,2022.1.3,Win32,60.06727535,62c50e9c1127f2cd403a315f,,,,,,,,,,,,,,,,,,,,,,,,,,,,,,,,,,,,,,,,,,,,,,,,,,,,,,,,,,,,,,,,,,,,,,,,,,,,,,,,,,,,,,,,,,,,,,,,,,,,,,,,,,,,,,,,,,,,,,,,,,,,,,,,,,,,,,,,,,,,,,,,,,,,,,,,,,,,,,,,,,,
0,56,56,90,1,,5f9c70519242e010e0f1c608,62c538e4e5224759483cd7f2,2022-07-06_09h25.34.340,Colour_Asymmetry_Pilot,2022.1.3,Win32,60.06727535,62c50e9c1127f2cd403a315f,,,,,,,,,,,,,,,,,,,,,,,,,,,,,,,,,,,,,,,,,,,,,,,,,,,,,,,,,,,,,,,,,,,,,,,,,,,,,,,,,,,,,,,,,,,,,,,,,,,,,,,,,,,,,,,,,,,,,,,,,,,,,,,,,,,,,,,,,,,,,,,,,,,,,,,,,,,,,,,,,,,
0,57,57,77,1,,5f9c70519242e010e0f1c608,62c538e4e5224759483cd7f2,2022-07-06_09h25.34.340,Colour_Asymmetry_Pilot,2022.1.3,Win32,60.06727535,62c50e9c1127f2cd403a315f,,,,,,,,,,,,,,,,,,,,,,,,,,,,,,,,,,,,,,,,,,,,,,,,,,,,,,,,,,,,,,,,,,,,,,,,,,,,,,,,,,,,,,,,,,,,,,,,,,,,,,,,,,,,,,,,,,,,,,,,,,,,,,,,,,,,,,,,,,,,,,,,,,,,,,,,,,,,,,,,,,,
0,58,58,54,1,,5f9c70519242e010e0f1c608,62c538e4e5224759483cd7f2,2022-07-06_09h25.34.340,Colour_Asymmetry_Pilot,2022.1.3,Win32,60.06727535,62c50e9c1127f2cd403a315f,,,,,,,,,,,,,,,,,,,,,,,,,,,,,,,,,,,,,,,,,,,,,,,,,,,,,,,,,,,,,,,,,,,,,,,,,,,,,,,,,,,,,,,,,,,,,,,,,,,,,,,,,,,,,,,,,,,,,,,,,,,,,,,,,,,,,,,,,,,,,,,,,,,,,,,,,,,,,,,,,,,
0,59,59,4,1,,5f9c70519242e010e0f1c608,62c538e4e5224759483cd7f2,2022-07-06_09h25.34.340,Colour_Asymmetry_Pilot,2022.1.3,Win32,60.06727535,62c50e9c1127f2cd403a315f,,,,,,,,,,,,,,,,,,,,,,,,,,,,,,,,,,,,,,,,,,,,,,,,,,,,,,,,,,,,,,,,,,,,,,,,,,,,,,,,,,,,,,,,,,,,,,,,,,,,,,,,,,,,,,,,,,,,,,,,,,,,,,,,,,,,,,,,,,,,,,,,,,,,,,,,,,,,,,,,,,,
0,60,60,30,1,,5f9c70519242e010e0f1c608,62c538e4e5224759483cd7f2,2022-07-06_09h25.34.340,Colour_Asymmetry_Pilot,2022.1.3,Win32,60.06727535,62c50e9c1127f2cd403a315f,,,,,,,,,,,,,,,,,,,,,,,,,,,,,,,,,,,,,,,,,,,,,,,,,,,,,,,,,,,,,,,,,,,,,,,,,,,,,,,,,,,,,,,,,,,,,,,,,,,,,,,,,,,,,,,,,,,,,,,,,,,,,,,,,,,,,,,,,,,,,,,,,,,,,,,,,,,,,,,,,,,
0,61,61,82,1,,5f9c70519242e010e0f1c608,62c538e4e5224759483cd7f2,2022-07-06_09h25.34.340,Colour_Asymmetry_Pilot,2022.1.3,Win32,60.06727535,62c50e9c1127f2cd403a315f,,,,,,,,,,,,,,,,,,,,,,,,,,,,,,,,,,,,,,,,,,,,,,,,,,,,,,,,,,,,,,,,,,,,,,,,,,,,,,,,,,,,,,,,,,,,,,,,,,,,,,,,,,,,,,,,,,,,,,,,,,,,,,,,,,,,,,,,,,,,,,,,,,,,,,,,,,,,,,,,,,,
0,62,62,23,1,,5f9c70519242e010e0f1c608,62c538e4e5224759483cd7f2,2022-07-06_09h25.34.340,Colour_Asymmetry_Pilot,2022.1.3,Win32,60.06727535,62c50e9c1127f2cd403a315f,,,,,,,,,,,,,,,,,,,,,,,,,,,,,,,,,,,,,,,,,,,,,,,,,,,,,,,,,,,,,,,,,,,,,,,,,,,,,,,,,,,,,,,,,,,,,,,,,,,,,,,,,,,,,,,,,,,,,,,,,,,,,,,,,,,,,,,,,,,,,,,,,,,,,,,,,,,,,,,,,,,
0,63,63,87,1,,5f9c70519242e010e0f1c608,62c538e4e5224759483cd7f2,2022-07-06_09h25.34.340,Colour_Asymmetry_Pilot,2022.1.3,Win32,60.06727535,62c50e9c1127f2cd403a315f,,,,,,,,,,,,,,,,,,,,,,,,,,,,,,,,,,,,,,,,,,,,,,,,,,,,,,,,,,,,,,,,,,,,,,,,,,,,,,,,,,,,,,,,,,,,,,,,,,,,,,,,,,,,,,,,,,,,,,,,,,,,,,,,,,,,,,,,,,,,,,,,,,,,,,,,,,,,,,,,,,,
0,64,64,63,1,,5f9c70519242e010e0f1c608,62c538e4e5224759483cd7f2,2022-07-06_09h25.34.340,Colour_Asymmetry_Pilot,2022.1.3,Win32,60.06727535,62c50e9c1127f2cd403a315f,,,,,,,,,,,,,,,,,,,,,,,,,,,,,,,,,,,,,,,,,,,,,,,,,,,,,,,,,,,,,,,,,,,,,,,,,,,,,,,,,,,,,,,,,,,,,,,,,,,,,,,,,,,,,,,,,,,,,,,,,,,,,,,,,,,,,,,,,,,,,,,,,,,,,,,,,,,,,,,,,,,
0,65,65,45,1,,5f9c70519242e010e0f1c608,62c538e4e5224759483cd7f2,2022-07-06_09h25.34.340,Colour_Asymmetry_Pilot,2022.1.3,Win32,60.06727535,62c50e9c1127f2cd403a315f,,,,,,,,,,,,,,,,,,,,,,,,,,,,,,,,,,,,,,,,,,,,,,,,,,,,,,,,,,,,,,,,,,,,,,,,,,,,,,,,,,,,,,,,,,,,,,,,,,,,,,,,,,,,,,,,,,,,,,,,,,,,,,,,,,,,,,,,,,,,,,,,,,,,,,,,,,,,,,,,,,,
0,66,66,1,1,,5f9c70519242e010e0f1c608,62c538e4e5224759483cd7f2,2022-07-06_09h25.34.340,Colour_Asymmetry_Pilot,2022.1.3,Win32,60.06727535,62c50e9c1127f2cd403a315f,,,,,,,,,,,,,,,,,,,,,,,,,,,,,,,,,,,,,,,,,,,,,,,,,,,,,,,,,,,,,,,,,,,,,,,,,,,,,,,,,,,,,,,,,,,,,,,,,,,,,,,,,,,,,,,,,,,,,,,,,,,,,,,,,,,,,,,,,,,,,,,,,,,,,,,,,,,,,,,,,,,
0,67,67,88,1,,5f9c70519242e010e0f1c608,62c538e4e5224759483cd7f2,2022-07-06_09h25.34.340,Colour_Asymmetry_Pilot,2022.1.3,Win32,60.06727535,62c50e9c1127f2cd403a315f,,,,,,,,,,,,,,,,,,,,,,,,,,,,,,,,,,,,,,,,,,,,,,,,,,,,,,,,,,,,,,,,,,,,,,,,,,,,,,,,,,,,,,,,,,,,,,,,,,,,,,,,,,,,,,,,,,,,,,,,,,,,,,,,,,,,,,,,,,,,,,,,,,,,,,,,,,,,,,,,,,,
0,68,68,57,1,,5f9c70519242e010e0f1c608,62c538e4e5224759483cd7f2,2022-07-06_09h25.34.340,Colour_Asymmetry_Pilot,2022.1.3,Win32,60.06727535,62c50e9c1127f2cd403a315f,,,,,,,,,,,,,,,,,,,,,,,,,,,,,,,,,,,,,,,,,,,,,,,,,,,,,,,,,,,,,,,,,,,,,,,,,,,,,,,,,,,,,,,,,,,,,,,,,,,,,,,,,,,,,,,,,,,,,,,,,,,,,,,,,,,,,,,,,,,,,,,,,,,,,,,,,,,,,,,,,,,
0,69,69,39,1,,5f9c70519242e010e0f1c608,62c538e4e5224759483cd7f2,2022-07-06_09h25.34.340,Colour_Asymmetry_Pilot,2022.1.3,Win32,60.06727535,62c50e9c1127f2cd403a315f,,,,,,,,,,,,,,,,,,,,,,,,,,,,,,,,,,,,,,,,,,,,,,,,,,,,,,,,,,,,,,,,,,,,,,,,,,,,,,,,,,,,,,,,,,,,,,,,,,,,,,,,,,,,,,,,,,,,,,,,,,,,,,,,,,,,,,,,,,,,,,,,,,,,,,,,,,,,,,,,,,,
0,70,70,71,1,,5f9c70519242e010e0f1c608,62c538e4e5224759483cd7f2,2022-07-06_09h25.34.340,Colour_Asymmetry_Pilot,2022.1.3,Win32,60.06727535,62c50e9c1127f2cd403a315f,,,,,,,,,,,,,,,,,,,,,,,,,,,,,,,,,,,,,,,,,,,,,,,,,,,,,,,,,,,,,,,,,,,,,,,,,,,,,,,,,,,,,,,,,,,,,,,,,,,,,,,,,,,,,,,,,,,,,,,,,,,,,,,,,,,,,,,,,,,,,,,,,,,,,,,,,,,,,,,,,,,
0,71,71,70,1,,5f9c70519242e010e0f1c608,62c538e4e5224759483cd7f2,2022-07-06_09h25.34.340,Colour_Asymmetry_Pilot,2022.1.3,Win32,60.06727535,62c50e9c1127f2cd403a315f,,,,,,,,,,,,,,,,,,,,,,,,,,,,,,,,,,,,,,,,,,,,,,,,,,,,,,,,,,,,,,,,,,,,,,,,,,,,,,,,,,,,,,,,,,,,,,,,,,,,,,,,,,,,,,,,,,,,,,,,,,,,,,,,,,,,,,,,,,,,,,,,,,,,,,,,,,,,,,,,,,,
0,72,72,74,1,,5f9c70519242e010e0f1c608,62c538e4e5224759483cd7f2,2022-07-06_09h25.34.340,Colour_Asymmetry_Pilot,2022.1.3,Win32,60.06727535,62c50e9c1127f2cd403a315f,,,,,,,,,,,,,,,,,,,,,,,,,,,,,,,,,,,,,,,,,,,,,,,,,,,,,,,,,,,,,,,,,,,,,,,,,,,,,,,,,,,,,,,,,,,,,,,,,,,,,,,,,,,,,,,,,,,,,,,,,,,,,,,,,,,,,,,,,,,,,,,,,,,,,,,,,,,,,,,,,,,
0,73,73,75,1,,5f9c70519242e010e0f1c608,62c538e4e5224759483cd7f2,2022-07-06_09h25.34.340,Colour_Asymmetry_Pilot,2022.1.3,Win32,60.06727535,62c50e9c1127f2cd403a315f,,,,,,,,,,,,,,,,,,,,,,,,,,,,,,,,,,,,,,,,,,,,,,,,,,,,,,,,,,,,,,,,,,,,,,,,,,,,,,,,,,,,,,,,,,,,,,,,,,,,,,,,,,,,,,,,,,,,,,,,,,,,,,,,,,,,,,,,,,,,,,,,,,,,,,,,,,,,,,,,,,,
0,74,74,41,1,,5f9c70519242e010e0f1c608,62c538e4e5224759483cd7f2,2022-07-06_09h25.34.340,Colour_Asymmetry_Pilot,2022.1.3,Win32,60.06727535,62c50e9c1127f2cd403a315f,,,,,,,,,,,,,,,,,,,,,,,,,,,,,,,,,,,,,,,,,,,,,,,,,,,,,,,,,,,,,,,,,,,,,,,,,,,,,,,,,,,,,,,,,,,,,,,,,,,,,,,,,,,,,,,,,,,,,,,,,,,,,,,,,,,,,,,,,,,,,,,,,,,,,,,,,,,,,,,,,,,
0,75,75,35,1,,5f9c70519242e010e0f1c608,62c538e4e5224759483cd7f2,2022-07-06_09h25.34.340,Colour_Asymmetry_Pilot,2022.1.3,Win32,60.06727535,62c50e9c1127f2cd403a315f,,,,,,,,,,,,,,,,,,,,,,,,,,,,,,,,,,,,,,,,,,,,,,,,,,,,,,,,,,,,,,,,,,,,,,,,,,,,,,,,,,,,,,,,,,,,,,,,,,,,,,,,,,,,,,,,,,,,,,,,,,,,,,,,,,,,,,,,,,,,,,,,,,,,,,,,,,,,,,,,,,,
0,76,76,37,1,,5f9c70519242e010e0f1c608,62c538e4e5224759483cd7f2,2022-07-06_09h25.34.340,Colour_Asymmetry_Pilot,2022.1.3,Win32,60.06727535,62c50e9c1127f2cd403a315f,,,,,,,,,,,,,,,,,,,,,,,,,,,,,,,,,,,,,,,,,,,,,,,,,,,,,,,,,,,,,,,,,,,,,,,,,,,,,,,,,,,,,,,,,,,,,,,,,,,,,,,,,,,,,,,,,,,,,,,,,,,,,,,,,,,,,,,,,,,,,,,,,,,,,,,,,,,,,,,,,,,
0,77,77,29,1,,5f9c70519242e010e0f1c608,62c538e4e5224759483cd7f2,2022-07-06_09h25.34.340,Colour_Asymmetry_Pilot,2022.1.3,Win32,60.06727535,62c50e9c1127f2cd403a315f,,,,,,,,,,,,,,,,,,,,,,,,,,,,,,,,,,,,,,,,,,,,,,,,,,,,,,,,,,,,,,,,,,,,,,,,,,,,,,,,,,,,,,,,,,,,,,,,,,,,,,,,,,,,,,,,,,,,,,,,,,,,,,,,,,,,,,,,,,,,,,,,,,,,,,,,,,,,,,,,,,,
0,78,78,15,1,,5f9c70519242e010e0f1c608,62c538e4e5224759483cd7f2,2022-07-06_09h25.34.340,Colour_Asymmetry_Pilot,2022.1.3,Win32,60.06727535,62c50e9c1127f2cd403a315f,,,,,,,,,,,,,,,,,,,,,,,,,,,,,,,,,,,,,,,,,,,,,,,,,,,,,,,,,,,,,,,,,,,,,,,,,,,,,,,,,,,,,,,,,,,,,,,,,,,,,,,,,,,,,,,,,,,,,,,,,,,,,,,,,,,,,,,,,,,,,,,,,,,,,,,,,,,,,,,,,,,
0,79,79,64,1,,5f9c70519242e010e0f1c608,62c538e4e5224759483cd7f2,2022-07-06_09h25.34.340,Colour_Asymmetry_Pilot,2022.1.3,Win32,60.06727535,62c50e9c1127f2cd403a315f,,,,,,,,,,,,,,,,,,,,,,,,,,,,,,,,,,,,,,,,,,,,,,,,,,,,,,,,,,,,,,,,,,,,,,,,,,,,,,,,,,,,,,,,,,,,,,,,,,,,,,,,,,,,,,,,,,,,,,,,,,,,,,,,,,,,,,,,,,,,,,,,,,,,,,,,,,,,,,,,,,,
0,80,80,44,1,,5f9c70519242e010e0f1c608,62c538e4e5224759483cd7f2,2022-07-06_09h25.34.340,Colour_Asymmetry_Pilot,2022.1.3,Win32,60.06727535,62c50e9c1127f2cd403a315f,,,,,,,,,,,,,,,,,,,,,,,,,,,,,,,,,,,,,,,,,,,,,,,,,,,,,,,,,,,,,,,,,,,,,,,,,,,,,,,,,,,,,,,,,,,,,,,,,,,,,,,,,,,,,,,,,,,,,,,,,,,,,,,,,,,,,,,,,,,,,,,,,,,,,,,,,,,,,,,,,,,
0,81,81,46,1,,5f9c70519242e010e0f1c608,62c538e4e5224759483cd7f2,2022-07-06_09h25.34.340,Colour_Asymmetry_Pilot,2022.1.3,Win32,60.06727535,62c50e9c1127f2cd403a315f,,,,,,,,,,,,,,,,,,,,,,,,,,,,,,,,,,,,,,,,,,,,,,,,,,,,,,,,,,,,,,,,,,,,,,,,,,,,,,,,,,,,,,,,,,,,,,,,,,,,,,,,,,,,,,,,,,,,,,,,,,,,,,,,,,,,,,,,,,,,,,,,,,,,,,,,,,,,,,,,,,,
0,82,82,8,1,,5f9c70519242e010e0f1c608,62c538e4e5224759483cd7f2,2022-07-06_09h25.34.340,Colour_Asymmetry_Pilot,2022.1.3,Win32,60.06727535,62c50e9c1127f2cd403a315f,,,,,,,,,,,,,,,,,,,,,,,,,,,,,,,,,,,,,,,,,,,,,,,,,,,,,,,,,,,,,,,,,,,,,,,,,,,,,,,,,,,,,,,,,,,,,,,,,,,,,,,,,,,,,,,,,,,,,,,,,,,,,,,,,,,,,,,,,,,,,,,,,,,,,,,,,,,,,,,,,,,
0,83,83,14,1,,5f9c70519242e010e0f1c608,62c538e4e5224759483cd7f2,2022-07-06_09h25.34.340,Colour_Asymmetry_Pilot,2022.1.3,Win32,60.06727535,62c50e9c1127f2cd403a315f,,,,,,,,,,,,,,,,,,,,,,,,,,,,,,,,,,,,,,,,,,,,,,,,,,,,,,,,,,,,,,,,,,,,,,,,,,,,,,,,,,,,,,,,,,,,,,,,,,,,,,,,,,,,,,,,,,,,,,,,,,,,,,,,,,,,,,,,,,,,,,,,,,,,,,,,,,,,,,,,,,,
0,84,84,84,1,,5f9c70519242e010e0f1c608,62c538e4e5224759483cd7f2,2022-07-06_09h25.34.340,Colour_Asymmetry_Pilot,2022.1.3,Win32,60.06727535,62c50e9c1127f2cd403a315f,,,,,,,,,,,,,,,,,,,,,,,,,,,,,,,,,,,,,,,,,,,,,,,,,,,,,,,,,,,,,,,,,,,,,,,,,,,,,,,,,,,,,,,,,,,,,,,,,,,,,,,,,,,,,,,,,,,,,,,,,,,,,,,,,,,,,,,,,,,,,,,,,,,,,,,,,,,,,,,,,,,
0,85,85,5,1,,5f9c70519242e010e0f1c608,62c538e4e5224759483cd7f2,2022-07-06_09h25.34.340,Colour_Asymmetry_Pilot,2022.1.3,Win32,60.06727535,62c50e9c1127f2cd403a315f,,,,,,,,,,,,,,,,,,,,,,,,,,,,,,,,,,,,,,,,,,,,,,,,,,,,,,,,,,,,,,,,,,,,,,,,,,,,,,,,,,,,,,,,,,,,,,,,,,,,,,,,,,,,,,,,,,,,,,,,,,,,,,,,,,,,,,,,,,,,,,,,,,,,,,,,,,,,,,,,,,,
0,86,86,21,1,,5f9c70519242e010e0f1c608,62c538e4e5224759483cd7f2,2022-07-06_09h25.34.340,Colour_Asymmetry_Pilot,2022.1.3,Win32,60.06727535,62c50e9c1127f2cd403a315f,,,,,,,,,,,,,,,,,,,,,,,,,,,,,,,,,,,,,,,,,,,,,,,,,,,,,,,,,,,,,,,,,,,,,,,,,,,,,,,,,,,,,,,,,,,,,,,,,,,,,,,,,,,,,,,,,,,,,,,,,,,,,,,,,,,,,,,,,,,,,,,,,,,,,,,,,,,,,,,,,,,
0,87,87,81,1,,5f9c70519242e010e0f1c608,62c538e4e5224759483cd7f2,2022-07-06_09h25.34.340,Colour_Asymmetry_Pilot,2022.1.3,Win32,60.06727535,62c50e9c1127f2cd403a315f,,,,,,,,,,,,,,,,,,,,,,,,,,,,,,,,,,,,,,,,,,,,,,,,,,,,,,,,,,,,,,,,,,,,,,,,,,,,,,,,,,,,,,,,,,,,,,,,,,,,,,,,,,,,,,,,,,,,,,,,,,,,,,,,,,,,,,,,,,,,,,,,,,,,,,,,,,,,,,,,,,,
0,88,88,28,1,,5f9c70519242e010e0f1c608,62c538e4e5224759483cd7f2,2022-07-06_09h25.34.340,Colour_Asymmetry_Pilot,2022.1.3,Win32,60.06727535,62c50e9c1127f2cd403a315f,,,,,,,,,,,,,,,,,,,,,,,,,,,,,,,,,,,,,,,,,,,,,,,,,,,,,,,,,,,,,,,,,,,,,,,,,,,,,,,,,,,,,,,,,,,,,,,,,,,,,,,,,,,,,,,,,,,,,,,,,,,,,,,,,,,,,,,,,,,,,,,,,,,,,,,,,,,,,,,,,,,
0,89,89,66,1,,5f9c70519242e010e0f1c608,62c538e4e5224759483cd7f2,2022-07-06_09h25.34.340,Colour_Asymmetry_Pilot,2022.1.3,Win32,60.06727535,62c50e9c1127f2cd403a315f,,,,,,,,,,,,,,,,,,,,,,,,,,,,,,,,,,,,,,,,,,,,,,,,,,,,,,,,,,,,,,,,,,,,,,,,,,,,,,,,,,,,,,,,,,,,,,,,,,,,,,,,,,,,,,,,,,,,,,,,,,,,,,,,,,,,,,,,,,,,,,,,,,,,,,,,,,,,,,,,,,,
0,90,90,86,1,,5f9c70519242e010e0f1c608,62c538e4e5224759483cd7f2,2022-07-06_09h25.34.340,Colour_Asymmetry_Pilot,2022.1.3,Win32,60.06727535,62c50e9c1127f2cd403a315f,,,,,,,,,,,,,,,,,,,,,,,,,,,,,,,,,,,,,,,,,,,,,,,,,,,,,,,,,,,,,,,,,,,,,,,,,,,,,,,,,,,,,,,,,,,,,,,,,,,,,,,,,,,,,,,,,,,,,,,,,,,,,,,,,,,,,,,,,,,,,,,,,,,,,,,,,,,,,,,,,,,
0,91,91,60,1,,5f9c70519242e010e0f1c608,62c538e4e5224759483cd7f2,2022-07-06_09h25.34.340,Colour_Asymmetry_Pilot,2022.1.3,Win32,60.06727535,62c50e9c1127f2cd403a315f,,,,,,,,,,,,,,,,,,,,,,,,,,,,,,,,,,,,,,,,,,,,,,,,,,,,,,,,,,,,,,,,,,,,,,,,,,,,,,,,,,,,,,,,,,,,,,,,,,,,,,,,,,,,,,,,,,,,,,,,,,,,,,,,,,,,,,,,,,,,,,,,,,,,,,,,,,,,,,,,,,,
0,92,92,20,1,,5f9c70519242e010e0f1c608,62c538e4e5224759483cd7f2,2022-07-06_09h25.34.340,Colour_Asymmetry_Pilot,2022.1.3,Win32,60.06727535,62c50e9c1127f2cd403a315f,,,,,,,,,,,,,,,,,,,,,,,,,,,,,,,,,,,,,,,,,,,,,,,,,,,,,,,,,,,,,,,,,,,,,,,,,,,,,,,,,,,,,,,,,,,,,,,,,,,,,,,,,,,,,,,,,,,,,,,,,,,,,,,,,,,,,,,,,,,,,,,,,,,,,,,,,,,,,,,,,,,
,,,,,,5f9c70519242e010e0f1c608,62c538e4e5224759483cd7f2,2022-07-06_09h25.34.340,Colour_Asymmetry_Pilot,2022.1.3,Win32,60.06727535,62c50e9c1127f2cd403a315f,0,0,0,108,1,threeone,,,,,,,,,,,,,,,,,,,,,,,,,,,,,,,,,,,,,,,,,,,,,,,,,,,,,,,,,,,,,,,,,,,,,,,,,,,,,,,,,,,,,,,,,,,,,,,,,,,,,,,,,,,,,,,,,,,,,,,,,,,,,,,,,,,,,,,,,,,,,,,,,,,,,,,,,,,,,
,,,,,,5f9c70519242e010e0f1c608,62c538e4e5224759483cd7f2,2022-07-06_09h25.34.340,Colour_Asymmetry_Pilot,2022.1.3,Win32,60.06727535,62c50e9c1127f2cd403a315f,0,1,1,48,1,onetwo,,,,,,,,,,,,,,,,,,,,,,,,,,,,,,,,,,,,,,,,,,,,,,,,,,,,,,,,,,,,,,,,,,,,,,,,,,,,,,,,,,,,,,,,,,,,,,,,,,,,,,,,,,,,,,,,,,,,,,,,,,,,,,,,,,,,,,,,,,,,,,,,,,,,,,,,,,,,,
,,,,,,5f9c70519242e010e0f1c608,62c538e4e5224759483cd7f2,2022-07-06_09h25.34.340,Colour_Asymmetry_Pilot,2022.1.3,Win32,60.06727535,62c50e9c1127f2cd403a315f,0,2,2,123,1,twofour,,,,,,,,,,,,,,,,,,,,,,,,,,,,,,,,,,,,,,,,,,,,,,,,,,,,,,,,,,,,,,,,,,,,,,,,,,,,,,,,,,,,,,,,,,,,,,,,,,,,,,,,,,,,,,,,,,,,,,,,,,,,,,,,,,,,,,,,,,,,,,,,,,,,,,,,,,,,,
,,,,,,5f9c70519242e010e0f1c608,62c538e4e5224759483cd7f2,2022-07-06_09h25.34.340,Colour_Asymmetry_Pilot,2022.1.3,Win32,60.06727535,62c50e9c1127f2cd403a315f,0,3,3,99,1,twofour,,,,,,,,,,,,,,,,,,,,,,,,,,,,,,,,,,,,,,,,,,,,,,,,,,,,,,,,,,,,,,,,,,,,,,,,,,,,,,,,,,,,,,,,,,,,,,,,,,,,,,,,,,,,,,,,,,,,,,,,,,,,,,,,,,,,,,,,,,,,,,,,,,,,,,,,,,,,,
,,,,,,5f9c70519242e010e0f1c608,62c538e4e5224759483cd7f2,2022-07-06_09h25.34.340,Colour_Asymmetry_Pilot,2022.1.3,Win32,60.06727535,62c50e9c1127f2cd403a315f,0,4,4,65,1,onethree,,,,,,,,,,,,,,,,,,,,,,,,,,,,,,,,,,,,,,,,,,,,,,,,,,,,,,,,,,,,,,,,,,,,,,,,,,,,,,,,,,,,,,,,,,,,,,,,,,,,,,,,,,,,,,,,,,,,,,,,,,,,,,,,,,,,,,,,,,,,,,,,,,,,,,,,,,,,,
,,,,,,5f9c70519242e010e0f1c608,62c538e4e5224759483cd7f2,2022-07-06_09h25.34.340,Colour_Asymmetry_Pilot,2022.1.3,Win32,60.06727535,62c50e9c1127f2cd403a315f,0,5,5,70,1,fourtwo,,,,,,,,,,,,,,,,,,,,,,,,,,,,,,,,,,,,,,,,,,,,,,,,,,,,,,,,,,,,,,,,,,,,,,,,,,,,,,,,,,,,,,,,,,,,,,,,,,,,,,,,,,,,,,,,,,,,,,,,,,,,,,,,,,,,,,,,,,,,,,,,,,,,,,,,,,,,,
,,,,,,5f9c70519242e010e0f1c608,62c538e4e5224759483cd7f2,2022-07-06_09h25.34.340,Colour_Asymmetry_Pilot,2022.1.3,Win32,60.06727535,62c50e9c1127f2cd403a315f,0,6,6,56,1,onetwo,,,,,,,,,,,,,,,,,,,,,,,,,,,,,,,,,,,,,,,,,,,,,,,,,,,,,,,,,,,,,,,,,,,,,,,,,,,,,,,,,,,,,,,,,,,,,,,,,,,,,,,,,,,,,,,,,,,,,,,,,,,,,,,,,,,,,,,,,,,,,,,,,,,,,,,,,,,,,
,,,,,,5f9c70519242e010e0f1c608,62c538e4e5224759483cd7f2,2022-07-06_09h25.34.340,Colour_Asymmetry_Pilot,2022.1.3,Win32,60.06727535,62c50e9c1127f2cd403a315f,0,7,7,24,1,onetwo,,,,,,,,,,,,,,,,,,,,,,,,,,,,,,,,,,,,,,,,,,,,,,,,,,,,,,,,,,,,,,,,,,,,,,,,,,,,,,,,,,,,,,,,,,,,,,,,,,,,,,,,,,,,,,,,,,,,,,,,,,,,,,,,,,,,,,,,,,,,,,,,,,,,,,,,,,,,,
,,,,,,5f9c70519242e010e0f1c608,62c538e4e5224759483cd7f2,2022-07-06_09h25.34.340,Colour_Asymmetry_Pilot,2022.1.3,Win32,60.06727535,62c50e9c1127f2cd403a315f,0,8,8,145,1,onethree,,,,,,,,,,,,,,,,,,,,,,,,,,,,,,,,,,,,,,,,,,,,,,,,,,,,,,,,,,,,,,,,,,,,,,,,,,,,,,,,,,,,,,,,,,,,,,,,,,,,,,,,,,,,,,,,,,,,,,,,,,,,,,,,,,,,,,,,,,,,,,,,,,,,,,,,,,,,,
,,,,,,5f9c70519242e010e0f1c608,62c538e4e5224759483cd7f2,2022-07-06_09h25.34.340,Colour_Asymmetry_Pilot,2022.1.3,Win32,60.06727535,62c50e9c1127f2cd403a315f,0,9,9,57,1,onethree,,,,,,,,,,,,,,,,,,,,,,,,,,,,,,,,,,,,,,,,,,,,,,,,,,,,,,,,,,,,,,,,,,,,,,,,,,,,,,,,,,,,,,,,,,,,,,,,,,,,,,,,,,,,,,,,,,,,,,,,,,,,,,,,,,,,,,,,,,,,,,,,,,,,,,,,,,,,,
,,,,,,5f9c70519242e010e0f1c608,62c538e4e5224759483cd7f2,2022-07-06_09h25.34.340,Colour_Asymmetry_Pilot,2022.1.3,Win32,60.06727535,62c50e9c1127f2cd403a315f,0,10,10,91,1,twofour,,,,,,,,,,,,,,,,,,,,,,,,,,,,,,,,,,,,,,,,,,,,,,,,,,,,,,,,,,,,,,,,,,,,,,,,,,,,,,,,,,,,,,,,,,,,,,,,,,,,,,,,,,,,,,,,,,,,,,,,,,,,,,,,,,,,,,,,,,,,,,,,,,,,,,,,,,,,,
,,,,,,5f9c70519242e010e0f1c608,62c538e4e5224759483cd7f2,2022-07-06_09h25.34.340,Colour_Asymmetry_Pilot,2022.1.3,Win32,60.06727535,62c50e9c1127f2cd403a315f,0,11,11,137,1,onethree,,,,,,,,,,,,,,,,,,,,,,,,,,,,,,,,,,,,,,,,,,,,,,,,,,,,,,,,,,,,,,,,,,,,,,,,,,,,,,,,,,,,,,,,,,,,,,,,,,,,,,,,,,,,,,,,,,,,,,,,,,,,,,,,,,,,,,,,,,,,,,,,,,,,,,,,,,,,,
,,,,,,5f9c70519242e010e0f1c608,62c538e4e5224759483cd7f2,2022-07-06_09h25.34.340,Colour_Asymmetry_Pilot,2022.1.3,Win32,60.06727535,62c50e9c1127f2cd403a315f,0,12,12,76,1,threeone,,,,,,,,,,,,,,,,,,,,,,,,,,,,,,,,,,,,,,,,,,,,,,,,,,,,,,,,,,,,,,,,,,,,,,,,,,,,,,,,,,,,,,,,,,,,,,,,,,,,,,,,,,,,,,,,,,,,,,,,,,,,,,,,,,,,,,,,,,,,,,,,,,,,,,,,,,,,,
,,,,,,5f9c70519242e010e0f1c608,62c538e4e5224759483cd7f2,2022-07-06_09h25.34.340,Colour_Asymmetry_Pilot,2022.1.3,Win32,60.06727535,62c50e9c1127f2cd403a315f,0,13,13,154,1,twoone,,,,,,,,,,,,,,,,,,,,,,,,,,,,,,,,,,,,,,,,,,,,,,,,,,,,,,,,,,,,,,,,,,,,,,,,,,,,,,,,,,,,,,,,,,,,,,,,,,,,,,,,,,,,,,,,,,,,,,,,,,,,,,,,,,,,,,,,,,,,,,,,,,,,,,,,,,,,,
,,,,,,5f9c70519242e010e0f1c608,62c538e4e5224759483cd7f2,2022-07-06_09h25.34.340,Colour_Asymmetry_Pilot,2022.1.3,Win32,60.06727535,62c50e9c1127f2cd403a315f,0,14,14,4,1,threeone,,,,,,,,,,,,,,,,,,,,,,,,,,,,,,,,,,,,,,,,,,,,,,,,,,,,,,,,,,,,,,,,,,,,,,,,,,,,,,,,,,,,,,,,,,,,,,,,,,,,,,,,,,,,,,,,,,,,,,,,,,,,,,,,,,,,,,,,,,,,,,,,,,,,,,,,,,,,,
,,,,,,5f9c70519242e010e0f1c608,62c538e4e5224759483cd7f2,2022-07-06_09h25.34.340,Colour_Asymmetry_Pilot,2022.1.3,Win32,60.06727535,62c50e9c1127f2cd403a315f,0,15,15,138,1,twoone,,,,,,,,,,,,,,,,,,,,,,,,,,,,,,,,,,,,,,,,,,,,,,,,,,,,,,,,,,,,,,,,,,,,,,,,,,,,,,,,,,,,,,,,,,,,,,,,,,,,,,,,,,,,,,,,,,,,,,,,,,,,,,,,,,,,,,,,,,,,,,,,,,,,,,,,,,,,,
,,,,,,5f9c70519242e010e0f1c608,62c538e4e5224759483cd7f2,2022-07-06_09h25.34.340,Colour_Asymmetry_Pilot,2022.1.3,Win32,60.06727535,62c50e9c1127f2cd403a315f,0,16,16,90,1,twoone,,,,,,,,,,,,,,,,,,,,,,,,,,,,,,,,,,,,,,,,,,,,,,,,,,,,,,,,,,,,,,,,,,,,,,,,,,,,,,,,,,,,,,,,,,,,,,,,,,,,,,,,,,,,,,,,,,,,,,,,,,,,,,,,,,,,,,,,,,,,,,,,,,,,,,,,,,,,,
,,,,,,5f9c70519242e010e0f1c608,62c538e4e5224759483cd7f2,2022-07-06_09h25.34.340,Colour_Asymmetry_Pilot,2022.1.3,Win32,60.06727535,62c50e9c1127f2cd403a315f,0,17,17,100,1,threeone,,,,,,,,,,,,,,,,,,,,,,,,,,,,,,,,,,,,,,,,,,,,,,,,,,,,,,,,,,,,,,,,,,,,,,,,,,,,,,,,,,,,,,,,,,,,,,,,,,,,,,,,,,,,,,,,,,,,,,,,,,,,,,,,,,,,,,,,,,,,,,,,,,,,,,,,,,,,,
,,,,,,5f9c70519242e010e0f1c608,62c538e4e5224759483cd7f2,2022-07-06_09h25.34.340,Colour_Asymmetry_Pilot,2022.1.3,Win32,60.06727535,62c50e9c1127f2cd403a315f,0,18,18,148,1,threeone,,,,,,,,,,,,,,,,,,,,,,,,,,,,,,,,,,,,,,,,,,,,,,,,,,,,,,,,,,,,,,,,,,,,,,,,,,,,,,,,,,,,,,,,,,,,,,,,,,,,,,,,,,,,,,,,,,,,,,,,,,,,,,,,,,,,,,,,,,,,,,,,,,,,,,,,,,,,,
,,,,,,5f9c70519242e010e0f1c608,62c538e4e5224759483cd7f2,2022-07-06_09h25.34.340,Colour_Asymmetry_Pilot,2022.1.3,Win32,60.06727535,62c50e9c1127f2cd403a315f,0,19,19,102,1,fourtwo,,,,,,,,,,,,,,,,,,,,,,,,,,,,,,,,,,,,,,,,,,,,,,,,,,,,,,,,,,,,,,,,,,,,,,,,,,,,,,,,,,,,,,,,,,,,,,,,,,,,,,,,,,,,,,,,,,,,,,,,,,,,,,,,,,,,,,,,,,,,,,,,,,,,,,,,,,,,,
,,,,,,5f9c70519242e010e0f1c608,62c538e4e5224759483cd7f2,2022-07-06_09h25.34.340,Colour_Asymmetry_Pilot,2022.1.3,Win32,60.06727535,62c50e9c1127f2cd403a315f,0,20,20,101,1,threefour,,,,,,,,,,,,,,,,,,,,,,,,,,,,,,,,,,,,,,,,,,,,,,,,,,,,,,,,,,,,,,,,,,,,,,,,,,,,,,,,,,,,,,,,,,,,,,,,,,,,,,,,,,,,,,,,,,,,,,,,,,,,,,,,,,,,,,,,,,,,,,,,,,,,,,,,,,,,,
,,,,,,5f9c70519242e010e0f1c608,62c538e4e5224759483cd7f2,2022-07-06_09h25.34.340,Colour_Asymmetry_Pilot,2022.1.3,Win32,60.06727535,62c50e9c1127f2cd403a315f,0,21,21,139,1,twofour,,,,,,,,,,,,,,,,,,,,,,,,,,,,,,,,,,,,,,,,,,,,,,,,,,,,,,,,,,,,,,,,,,,,,,,,,,,,,,,,,,,,,,,,,,,,,,,,,,,,,,,,,,,,,,,,,,,,,,,,,,,,,,,,,,,,,,,,,,,,,,,,,,,,,,,,,,,,,
,,,,,,5f9c70519242e010e0f1c608,62c538e4e5224759483cd7f2,2022-07-06_09h25.34.340,Colour_Asymmetry_Pilot,2022.1.3,Win32,60.06727535,62c50e9c1127f2cd403a315f,0,22,22,54,1,fourtwo,,,,,,,,,,,,,,,,,,,,,,,,,,,,,,,,,,,,,,,,,,,,,,,,,,,,,,,,,,,,,,,,,,,,,,,,,,,,,,,,,,,,,,,,,,,,,,,,,,,,,,,,,,,,,,,,,,,,,,,,,,,,,,,,,,,,,,,,,,,,,,,,,,,,,,,,,,,,,
,,,,,,5f9c70519242e010e0f1c608,62c538e4e5224759483cd7f2,2022-07-06_09h25.34.340,Colour_Asymmetry_Pilot,2022.1.3,Win32,60.06727535,62c50e9c1127f2cd403a315f,0,23,23,44,1,threeone,,,,,,,,,,,,,,,,,,,,,,,,,,,,,,,,,,,,,,,,,,,,,,,,,,,,,,,,,,,,,,,,,,,,,,,,,,,,,,,,,,,,,,,,,,,,,,,,,,,,,,,,,,,,,,,,,,,,,,,,,,,,,,,,,,,,,,,,,,,,,,,,,,,,,,,,,,,,,
,,,,,,5f9c70519242e010e0f1c608,62c538e4e5224759483cd7f2,2022-07-06_09h25.34.340,Colour_Asymmetry_Pilot,2022.1.3,Win32,60.06727535,62c50e9c1127f2cd403a315f,0,24,24,109,1,threefour,,,,,,,,,,,,,,,,,,,,,,,,,,,,,,,,,,,,,,,,,,,,,,,,,,,,,,,,,,,,,,,,,,,,,,,,,,,,,,,,,,,,,,,,,,,,,,,,,,,,,,,,,,,,,,,,,,,,,,,,,,,,,,,,,,,,,,,,,,,,,,,,,,,,,,,,,,,,,
,,,,,,5f9c70519242e010e0f1c608,62c538e4e5224759483cd7f2,2022-07-06_09h25.34.340,Colour_Asymmetry_Pilot,2022.1.3,Win32,60.06727535,62c50e9c1127f2cd403a315f,0,25,25,73,1,onethree,,,,,,,,,,,,,,,,,,,,,,,,,,,,,,,,,,,,,,,,,,,,,,,,,,,,,,,,,,,,,,,,,,,,,,,,,,,,,,,,,,,,,,,,,,,,,,,,,,,,,,,,,,,,,,,,,,,,,,,,,,,,,,,,,,,,,,,,,,,,,,,,,,,,,,,,,,,,,
,,,,,,5f9c70519242e010e0f1c608,62c538e4e5224759483cd7f2,2022-07-06_09h25.34.340,Colour_Asymmetry_Pilot,2022.1.3,Win32,60.06727535,62c50e9c1127f2cd403a315f,0,26,26,77,1,threefour,,,,,,,,,,,,,,,,,,,,,,,,,,,,,,,,,,,,,,,,,,,,,,,,,,,,,,,,,,,,,,,,,,,,,,,,,,,,,,,,,,,,,,,,,,,,,,,,,,,,,,,,,,,,,,,,,,,,,,,,,,,,,,,,,,,,,,,,,,,,,,,,,,,,,,,,,,,,,
,,,,,,5f9c70519242e010e0f1c608,62c538e4e5224759483cd7f2,2022-07-06_09h25.34.340,Colour_Asymmetry_Pilot,2022.1.3,Win32,60.06727535,62c50e9c1127f2cd403a315f,0,27,27,71,1,fourthree,,,,,,,,,,,,,,,,,,,,,,,,,,,,,,,,,,,,,,,,,,,,,,,,,,,,,,,,,,,,,,,,,,,,,,,,,,,,,,,,,,,,,,,,,,,,,,,,,,,,,,,,,,,,,,,,,,,,,,,,,,,,,,,,,,,,,,,,,,,,,,,,,,,,,,,,,,,,,
,,,,,,5f9c70519242e010e0f1c608,62c538e4e5224759483cd7f2,2022-07-06_09h25.34.340,Colour_Asymmetry_Pilot,2022.1.3,Win32,60.06727535,62c50e9c1127f2cd403a315f,0,28,28,30,1,fourtwo,,,,,,,,,,,,,,,,,,,,,,,,,,,,,,,,,,,,,,,,,,,,,,,,,,,,,,,,,,,,,,,,,,,,,,,,,,,,,,,,,,,,,,,,,,,,,,,,,,,,,,,,,,,,,,,,,,,,,,,,,,,,,,,,,,,,,,,,,,,,,,,,,,,,,,,,,,,,,
,,,,,,5f9c70519242e010e0f1c608,62c538e4e5224759483cd7f2,2022-07-06_09h25.34.340,Colour_Asymmetry_Pilot,2022.1.3,Win32,60.06727535,62c50e9c1127f2cd403a315f,0,29,29,25,1,onethree,,,,,,,,,,,,,,,,,,,,,,,,,,,,,,,,,,,,,,,,,,,,,,,,,,,,,,,,,,,,,,,,,,,,,,,,,,,,,,,,,,,,,,,,,,,,,,,,,,,,,,,,,,,,,,,,,,,,,,,,,,,,,,,,,,,,,,,,,,,,,,,,,,,,,,,,,,,,,
,,,,,,5f9c70519242e010e0f1c608,62c538e4e5224759483cd7f2,2022-07-06_09h25.34.340,Colour_Asymmetry_Pilot,2022.1.3,Win32,60.06727535,62c50e9c1127f2cd403a315f,0,30,30,81,1,onethree,,,,,,,,,,,,,,,,,,,,,,,,,,,,,,,,,,,,,,,,,,,,,,,,,,,,,,,,,,,,,,,,,,,,,,,,,,,,,,,,,,,,,,,,,,,,,,,,,,,,,,,,,,,,,,,,,,,,,,,,,,,,,,,,,,,,,,,,,,,,,,,,,,,,,,,,,,,,,
,,,,,,5f9c70519242e010e0f1c608,62c538e4e5224759483cd7f2,2022-07-06_09h25.34.340,Colour_Asymmetry_Pilot,2022.1.3,Win32,60.06727535,62c50e9c1127f2cd403a315f,0,31,31,39,1,fourthree,,,,,,,,,,,,,,,,,,,,,,,,,,,,,,,,,,,,,,,,,,,,,,,,,,,,,,,,,,,,,,,,,,,,,,,,,,,,,,,,,,,,,,,,,,,,,,,,,,,,,,,,,,,,,,,,,,,,,,,,,,,,,,,,,,,,,,,,,,,,,,,,,,,,,,,,,,,,,
,,,,,,5f9c70519242e010e0f1c608,62c538e4e5224759483cd7f2,2022-07-06_09h25.34.340,Colour_Asymmetry_Pilot,2022.1.3,Win32,60.06727535,62c50e9c1127f2cd403a315f,0,32,32,98,1,twoone,,,,,,,,,,,,,,,,,,,,,,,,,,,,,,,,,,,,,,,,,,,,,,,,,,,,,,,,,,,,,,,,,,,,,,,,,,,,,,,,,,,,,,,,,,,,,,,,,,,,,,,,,,,,,,,,,,,,,,,,,,,,,,,,,,,,,,,,,,,,,,,,,,,,,,,,,,,,,
,,,,,,5f9c70519242e010e0f1c608,62c538e4e5224759483cd7f2,2022-07-06_09h25.34.340,Colour_Asymmetry_Pilot,2022.1.3,Win32,60.06727535,62c50e9c1127f2cd403a315f,0,33,33,106,1,twoone,,,,,,,,,,,,,,,,,,,,,,,,,,,,,,,,,,,,,,,,,,,,,,,,,,,,,,,,,,,,,,,,,,,,,,,,,,,,,,,,,,,,,,,,,,,,,,,,,,,,,,,,,,,,,,,,,,,,,,,,,,,,,,,,,,,,,,,,,,,,,,,,,,,,,,,,,,,,,
,,,,,,5f9c70519242e010e0f1c608,62c538e4e5224759483cd7f2,2022-07-06_09h25.34.340,Colour_Asymmetry_Pilot,2022.1.3,Win32,60.06727535,62c50e9c1127f2cd403a315f,0,34,34,157,1,threefour,,,,,,,,,,,,,,,,,,,,,,,,,,,,,,,,,,,,,,,,,,,,,,,,,,,,,,,,,,,,,,,,,,,,,,,,,,,,,,,,,,,,,,,,,,,,,,,,,,,,,,,,,,,,,,,,,,,,,,,,,,,,,,,,,,,,,,,,,,,,,,,,,,,,,,,,,,,,,
,,,,,,5f9c70519242e010e0f1c608,62c538e4e5224759483cd7f2,2022-07-06_09h25.34.340,Colour_Asymmetry_Pilot,2022.1.3,Win32,60.06727535,62c50e9c1127f2cd403a315f,0,35,35,60,1,threeone,,,,,,,,,,,,,,,,,,,,,,,,,,,,,,,,,,,,,,,,,,,,,,,,,,,,,,,,,,,,,,,,,,,,,,,,,,,,,,,,,,,,,,,,,,,,,,,,,,,,,,,,,,,,,,,,,,,,,,,,,,,,,,,,,,,,,,,,,,,,,,,,,,,,,,,,,,,,,
,,,,,,5f9c70519242e010e0f1c608,62c538e4e5224759483cd7f2,2022-07-06_09h25.34.340,Colour_Asymmetry_Pilot,2022.1.3,Win32,60.06727535,62c50e9c1127f2cd403a315f,0,36,36,128,1,onetwo,,,,,,,,,,,,,,,,,,,,,,,,,,,,,,,,,,,,,,,,,,,,,,,,,,,,,,,,,,,,,,,,,,,,,,,,,,,,,,,,,,,,,,,,,,,,,,,,,,,,,,,,,,,,,,,,,,,,,,,,,,,,,,,,,,,,,,,,,,,,,,,,,,,,,,,,,,,,,
,,,,,,5f9c70519242e010e0f1c608,62c538e4e5224759483cd7f2,2022-07-06_09h25.34.340,Colour_Asymmetry_Pilot,2022.1.3,Win32,60.06727535,62c50e9c1127f2cd403a315f,0,37,37,11,1,twofour,,,,,,,,,,,,,,,,,,,,,,,,,,,,,,,,,,,,,,,,,,,,,,,,,,,,,,,,,,,,,,,,,,,,,,,,,,,,,,,,,,,,,,,,,,,,,,,,,,,,,,,,,,,,,,,,,,,,,,,,,,,,,,,,,,,,,,,,,,,,,,,,,,,,,,,,,,,,,
,,,,,,5f9c70519242e010e0f1c608,62c538e4e5224759483cd7f2,2022-07-06_09h25.34.340,Colour_Asymmetry_Pilot,2022.1.3,Win32,60.06727535,62c50e9c1127f2cd403a315f,0,38,38,17,1,onethree,,,,,,,,,,,,,,,,,,,,,,,,,,,,,,,,,,,,,,,,,,,,,,,,,,,,,,,,,,,,,,,,,,,,,,,,,,,,,,,,,,,,,,,,,,,,,,,,,,,,,,,,,,,,,,,,,,,,,,,,,,,,,,,,,,,,,,,,,,,,,,,,,,,,,,,,,,,,,
,,,,,,5f9c70519242e010e0f1c608,62c538e4e5224759483cd7f2,2022-07-06_09h25.34.340,Colour_Asymmetry_Pilot,2022.1.3,Win32,60.06727535,62c50e9c1127f2cd403a315f,0,39,39,146,1,twoone,,,,,,,,,,,,,,,,,,,,,,,,,,,,,,,,,,,,,,,,,,,,,,,,,,,,,,,,,,,,,,,,,,,,,,,,,,,,,,,,,,,,,,,,,,,,,,,,,,,,,,,,,,,,,,,,,,,,,,,,,,,,,,,,,,,,,,,,,,,,,,,,,,,,,,,,,,,,,
,,,,,,5f9c70519242e010e0f1c608,62c538e4e5224759483cd7f2,2022-07-06_09h25.34.340,Colour_Asymmetry_Pilot,2022.1.3,Win32,60.06727535,62c50e9c1127f2cd403a315f,0,40,40,119,1,fourthree,,,,,,,,,,,,,,,,,,,,,,,,,,,,,,,,,,,,,,,,,,,,,,,,,,,,,,,,,,,,,,,,,,,,,,,,,,,,,,,,,,,,,,,,,,,,,,,,,,,,,,,,,,,,,,,,,,,,,,,,,,,,,,,,,,,,,,,,,,,,,,,,,,,,,,,,,,,,,
,,,,,,5f9c70519242e010e0f1c608,62c538e4e5224759483cd7f2,2022-07-06_09h25.34.340,Colour_Asymmetry_Pilot,2022.1.3,Win32,60.06727535,62c50e9c1127f2cd403a315f,0,41,41,88,1,onetwo,,,,,,,,,,,,,,,,,,,,,,,,,,,,,,,,,,,,,,,,,,,,,,,,,,,,,,,,,,,,,,,,,,,,,,,,,,,,,,,,,,,,,,,,,,,,,,,,,,,,,,,,,,,,,,,,,,,,,,,,,,,,,,,,,,,,,,,,,,,,,,,,,,,,,,,,,,,,,
,,,,,,5f9c70519242e010e0f1c608,62c538e4e5224759483cd7f2,2022-07-06_09h25.34.340,Colour_Asymmetry_Pilot,2022.1.3,Win32,60.06727535,62c50e9c1127f2cd403a315f,0,42,42,97,1,onethree,,,,,,,,,,,,,,,,,,,,,,,,,,,,,,,,,,,,,,,,,,,,,,,,,,,,,,,,,,,,,,,,,,,,,,,,,,,,,,,,,,,,,,,,,,,,,,,,,,,,,,,,,,,,,,,,,,,,,,,,,,,,,,,,,,,,,,,,,,,,,,,,,,,,,,,,,,,,,
,,,,,,5f9c70519242e010e0f1c608,62c538e4e5224759483cd7f2,2022-07-06_09h25.34.340,Colour_Asymmetry_Pilot,2022.1.3,Win32,60.06727535,62c50e9c1127f2cd403a315f,0,43,43,103,1,fourthree,,,,,,,,,,,,,,,,,,,,,,,,,,,,,,,,,,,,,,,,,,,,,,,,,,,,,,,,,,,,,,,,,,,,,,,,,,,,,,,,,,,,,,,,,,,,,,,,,,,,,,,,,,,,,,,,,,,,,,,,,,,,,,,,,,,,,,,,,,,,,,,,,,,,,,,,,,,,,
,,,,,,5f9c70519242e010e0f1c608,62c538e4e5224759483cd7f2,2022-07-06_09h25.34.340,Colour_Asymmetry_Pilot,2022.1.3,Win32,60.06727535,62c50e9c1127f2cd403a315f,0,44,44,117,1,threefour,,,,,,,,,,,,,,,,,,,,,,,,,,,,,,,,,,,,,,,,,,,,,,,,,,,,,,,,,,,,,,,,,,,,,,,,,,,,,,,,,,,,,,,,,,,,,,,,,,,,,,,,,,,,,,,,,,,,,,,,,,,,,,,,,,,,,,,,,,,,,,,,,,,,,,,,,,,,,
,,,,,,5f9c70519242e010e0f1c608,62c538e4e5224759483cd7f2,2022-07-06_09h25.34.340,Colour_Asymmetry_Pilot,2022.1.3,Win32,60.06727535,62c50e9c1127f2cd403a315f,0,45,45,126,1,fourtwo,,,,,,,,,,,,,,,,,,,,,,,,,,,,,,,,,,,,,,,,,,,,,,,,,,,,,,,,,,,,,,,,,,,,,,,,,,,,,,,,,,,,,,,,,,,,,,,,,,,,,,,,,,,,,,,,,,,,,,,,,,,,,,,,,,,,,,,,,,,,,,,,,,,,,,,,,,,,,
,,,,,,5f9c70519242e010e0f1c608,62c538e4e5224759483cd7f2,2022-07-06_09h25.34.340,Colour_Asymmetry_Pilot,2022.1.3,Win32,60.06727535,62c50e9c1127f2cd403a315f,0,46,46,151,1,fourthree,,,,,,,,,,,,,,,,,,,,,,,,,,,,,,,,,,,,,,,,,,,,,,,,,,,,,,,,,,,,,,,,,,,,,,,,,,,,,,,,,,,,,,,,,,,,,,,,,,,,,,,,,,,,,,,,,,,,,,,,,,,,,,,,,,,,,,,,,,,,,,,,,,,,,,,,,,,,,
,,,,,,5f9c70519242e010e0f1c608,62c538e4e5224759483cd7f2,2022-07-06_09h25.34.340,Colour_Asymmetry_Pilot,2022.1.3,Win32,60.06727535,62c50e9c1127f2cd403a315f,0,47,47,53,1,threefour,,,,,,,,,,,,,,,,,,,,,,,,,,,,,,,,,,,,,,,,,,,,,,,,,,,,,,,,,,,,,,,,,,,,,,,,,,,,,,,,,,,,,,,,,,,,,,,,,,,,,,,,,,,,,,,,,,,,,,,,,,,,,,,,,,,,,,,,,,,,,,,,,,,,,,,,,,,,,
,,,,,,5f9c70519242e010e0f1c608,62c538e4e5224759483cd7f2,2022-07-06_09h25.34.340,Colour_Asymmetry_Pilot,2022.1.3,Win32,60.06727535,62c50e9c1127f2cd403a315f,0,48,48,55,1,fourthree,,,,,,,,,,,,,,,,,,,,,,,,,,,,,,,,,,,,,,,,,,,,,,,,,,,,,,,,,,,,,,,,,,,,,,,,,,,,,,,,,,,,,,,,,,,,,,,,,,,,,,,,,,,,,,,,,,,,,,,,,,,,,,,,,,,,,,,,,,,,,,,,,,,,,,,,,,,,,
,,,,,,5f9c70519242e010e0f1c608,62c538e4e5224759483cd7f2,2022-07-06_09h25.34.340,Colour_Asymmetry_Pilot,2022.1.3,Win32,60.06727535,62c50e9c1127f2cd403a315f,0,49,49,59,1,twofour,,,,,,,,,,,,,,,,,,,,,,,,,,,,,,,,,,,,,,,,,,,,,,,,,,,,,,,,,,,,,,,,,,,,,,,,,,,,,,,,,,,,,,,,,,,,,,,,,,,,,,,,,,,,,,,,,,,,,,,,,,,,,,,,,,,,,,,,,,,,,,,,,,,,,,,,,,,,,
,,,,,,5f9c70519242e010e0f1c608,62c538e4e5224759483cd7f2,2022-07-06_09h25.34.340,Colour_Asymmetry_Pilot,2022.1.3,Win32,60.06727535,62c50e9c1127f2cd403a315f,0,50,50,31,1,fourthree,,,,,,,,,,,,,,,,,,,,,,,,,,,,,,,,,,,,,,,,,,,,,,,,,,,,,,,,,,,,,,,,,,,,,,,,,,,,,,,,,,,,,,,,,,,,,,,,,,,,,,,,,,,,,,,,,,,,,,,,,,,,,,,,,,,,,,,,,,,,,,,,,,,,,,,,,,,,,
,,,,,,5f9c70519242e010e0f1c608,62c538e4e5224759483cd7f2,2022-07-06_09h25.34.340,Colour_Asymmetry_Pilot,2022.1.3,Win32,60.06727535,62c50e9c1127f2cd403a315f,0,51,51,122,1,twoone,,,,,,,,,,,,,,,,,,,,,,,,,,,,,,,,,,,,,,,,,,,,,,,,,,,,,,,,,,,,,,,,,,,,,,,,,,,,,,,,,,,,,,,,,,,,,,,,,,,,,,,,,,,,,,,,,,,,,,,,,,,,,,,,,,,,,,,,,,,,,,,,,,,,,,,,,,,,,
,,,,,,5f9c70519242e010e0f1c608,62c538e4e5224759483cd7f2,2022-07-06_09h25.34.340,Colour_Asymmetry_Pilot,2022.1.3,Win32,60.06727535,62c50e9c1127f2cd403a315f,0,52,52,28,1,threeone,,,,,,,,,,,,,,,,,,,,,,,,,,,,,,,,,,,,,,,,,,,,,,,,,,,,,,,,,,,,,,,,,,,,,,,,,,,,,,,,,,,,,,,,,,,,,,,,,,,,,,,,,,,,,,,,,,,,,,,,,,,,,,,,,,,,,,,,,,,,,,,,,,,,,,,,,,,,,
,,,,,,5f9c70519242e010e0f1c608,62c538e4e5224759483cd7f2,2022-07-06_09h25.34.340,Colour_Asymmetry_Pilot,2022.1.3,Win32,60.06727535,62c50e9c1127f2cd403a315f,0,53,53,45,1,threefour,,,,,,,,,,,,,,,,,,,,,,,,,,,,,,,,,,,,,,,,,,,,,,,,,,,,,,,,,,,,,,,,,,,,,,,,,,,,,,,,,,,,,,,,,,,,,,,,,,,,,,,,,,,,,,,,,,,,,,,,,,,,,,,,,,,,,,,,,,,,,,,,,,,,,,,,,,,,,
,,,,,,5f9c70519242e010e0f1c608,62c538e4e5224759483cd7f2,2022-07-06_09h25.34.340,Colour_Asymmetry_Pilot,2022.1.3,Win32,60.06727535,62c50e9c1127f2cd403a315f,0,54,54,47,1,fourthree,,,,,,,,,,,,,,,,,,,,,,,,,,,,,,,,,,,,,,,,,,,,,,,,,,,,,,,,,,,,,,,,,,,,,,,,,,,,,,,,,,,,,,,,,,,,,,,,,,,,,,,,,,,,,,,,,,,,,,,,,,,,,,,,,,,,,,,,,,,,,,,,,,,,,,,,,,,,,
,,,,,,5f9c70519242e010e0f1c608,62c538e4e5224759483cd7f2,2022-07-06_09h25.34.340,Colour_Asymmetry_Pilot,2022.1.3,Win32,60.06727535,62c50e9c1127f2cd403a315f,0,55,55,50,1,twoone,,,,,,,,,,,,,,,,,,,,,,,,,,,,,,,,,,,,,,,,,,,,,,,,,,,,,,,,,,,,,,,,,,,,,,,,,,,,,,,,,,,,,,,,,,,,,,,,,,,,,,,,,,,,,,,,,,,,,,,,,,,,,,,,,,,,,,,,,,,,,,,,,,,,,,,,,,,,,
,,,,,,5f9c70519242e010e0f1c608,62c538e4e5224759483cd7f2,2022-07-06_09h25.34.340,Colour_Asymmetry_Pilot,2022.1.3,Win32,60.06727535,62c50e9c1127f2cd403a315f,0,56,56,29,1,threefour,,,,,,,,,,,,,,,,,,,,,,,,,,,,,,,,,,,,,,,,,,,,,,,,,,,,,,,,,,,,,,,,,,,,,,,,,,,,,,,,,,,,,,,,,,,,,,,,,,,,,,,,,,,,,,,,,,,,,,,,,,,,,,,,,,,,,,,,,,,,,,,,,,,,,,,,,,,,,
,,,,,,5f9c70519242e010e0f1c608,62c538e4e5224759483cd7f2,2022-07-06_09h25.34.340,Colour_Asymmetry_Pilot,2022.1.3,Win32,60.06727535,62c50e9c1127f2cd403a315f,0,57,57,158,1,fourtwo,,,,,,,,,,,,,,,,,,,,,,,,,,,,,,,,,,,,,,,,,,,,,,,,,,,,,,,,,,,,,,,,,,,,,,,,,,,,,,,,,,,,,,,,,,,,,,,,,,,,,,,,,,,,,,,,,,,,,,,,,,,,,,,,,,,,,,,,,,,,,,,,,,,,,,,,,,,,,
,,,,,,5f9c70519242e010e0f1c608,62c538e4e5224759483cd7f2,2022-07-06_09h25.34.340,Colour_Asymmetry_Pilot,2022.1.3,Win32,60.06727535,62c50e9c1127f2cd403a315f,0,58,58,92,1,threeone,,,,,,,,,,,,,,,,,,,,,,,,,,,,,,,,,,,,,,,,,,,,,,,,,,,,,,,,,,,,,,,,,,,,,,,,,,,,,,,,,,,,,,,,,,,,,,,,,,,,,,,,,,,,,,,,,,,,,,,,,,,,,,,,,,,,,,,,,,,,,,,,,,,,,,,,,,,,,
,,,,,,5f9c70519242e010e0f1c608,62c538e4e5224759483cd7f2,2022-07-06_09h25.34.340,Colour_Asymmetry_Pilot,2022.1.3,Win32,60.06727535,62c50e9c1127f2cd403a315f,0,59,59,150,1,fourtwo,,,,,,,,,,,,,,,,,,,,,,,,,,,,,,,,,,,,,,,,,,,,,,,,,,,,,,,,,,,,,,,,,,,,,,,,,,,,,,,,,,,,,,,,,,,,,,,,,,,,,,,,,,,,,,,,,,,,,,,,,,,,,,,,,,,,,,,,,,,,,,,,,,,,,,,,,,,,,
,,,,,,5f9c70519242e010e0f1c608,62c538e4e5224759483cd7f2,2022-07-06_09h25.34.340,Colour_Asymmetry_Pilot,2022.1.3,Win32,60.06727535,62c50e9c1127f2cd403a315f,0,60,60,72,1,onetwo,,,,,,,,,,,,,,,,,,,,,,,,,,,,,,,,,,,,,,,,,,,,,,,,,,,,,,,,,,,,,,,,,,,,,,,,,,,,,,,,,,,,,,,,,,,,,,,,,,,,,,,,,,,,,,,,,,,,,,,,,,,,,,,,,,,,,,,,,,,,,,,,,,,,,,,,,,,,,
,,,,,,5f9c70519242e010e0f1c608,62c538e4e5224759483cd7f2,2022-07-06_09h25.34.340,Colour_Asymmetry_Pilot,2022.1.3,Win32,60.06727535,62c50e9c1127f2cd403a315f,0,61,61,58,1,twoone,,,,,,,,,,,,,,,,,,,,,,,,,,,,,,,,,,,,,,,,,,,,,,,,,,,,,,,,,,,,,,,,,,,,,,,,,,,,,,,,,,,,,,,,,,,,,,,,,,,,,,,,,,,,,,,,,,,,,,,,,,,,,,,,,,,,,,,,,,,,,,,,,,,,,,,,,,,,,
,,,,,,5f9c70519242e010e0f1c608,62c538e4e5224759483cd7f2,2022-07-06_09h25.34.340,Colour_Asymmetry_Pilot,2022.1.3,Win32,60.06727535,62c50e9c1127f2cd403a315f,0,62,62,3,1,twofour,,,,,,,,,,,,,,,,,,,,,,,,,,,,,,,,,,,,,,,,,,,,,,,,,,,,,,,,,,,,,,,,,,,,,,,,,,,,,,,,,,,,,,,,,,,,,,,,,,,,,,,,,,,,,,,,,,,,,,,,,,,,,,,,,,,,,,,,,,,,,,,,,,,,,,,,,,,,,
,,,,,,5f9c70519242e010e0f1c608,62c538e4e5224759483cd7f2,2022-07-06_09h25.34.340,Colour_Asymmetry_Pilot,2022.1.3,Win32,60.06727535,62c50e9c1127f2cd403a315f,0,63,63,114,1,twoone,,,,,,,,,,,,,,,,,,,,,,,,,,,,,,,,,,,,,,,,,,,,,,,,,,,,,,,,,,,,,,,,,,,,,,,,,,,,,,,,,,,,,,,,,,,,,,,,,,,,,,,,,,,,,,,,,,,,,,,,,,,,,,,,,,,,,,,,,,,,,,,,,,,,,,,,,,,,,
,,,,,,5f9c70519242e010e0f1c608,62c538e4e5224759483cd7f2,2022-07-06_09h25.34.340,Colour_Asymmetry_Pilot,2022.1.3,Win32,60.06727535,62c50e9c1127f2cd403a315f,0,64,64,159,1,fourthree,,,,,,,,,,,,,,,,,,,,,,,,,,,,,,,,,,,,,,,,,,,,,,,,,,,,,,,,,,,,,,,,,,,,,,,,,,,,,,,,,,,,,,,,,,,,,,,,,,,,,,,,,,,,,,,,,,,,,,,,,,,,,,,,,,,,,,,,,,,,,,,,,,,,,,,,,,,,,
,,,,,,5f9c70519242e010e0f1c608,62c538e4e5224759483cd7f2,2022-07-06_09h25.34.340,Colour_Asymmetry_Pilot,2022.1.3,Win32,60.06727535,62c50e9c1127f2cd403a315f,0,65,65,144,1,onetwo,,,,,,,,,,,,,,,,,,,,,,,,,,,,,,,,,,,,,,,,,,,,,,,,,,,,,,,,,,,,,,,,,,,,,,,,,,,,,,,,,,,,,,,,,,,,,,,,,,,,,,,,,,,,,,,,,,,,,,,,,,,,,,,,,,,,,,,,,,,,,,,,,,,,,,,,,,,,,
,,,,,,5f9c70519242e010e0f1c608,62c538e4e5224759483cd7f2,2022-07-06_09h25.34.340,Colour_Asymmetry_Pilot,2022.1.3,Win32,60.06727535,62c50e9c1127f2cd403a315f,0,66,66,125,1,threefour,,,,,,,,,,,,,,,,,,,,,,,,,,,,,,,,,,,,,,,,,,,,,,,,,,,,,,,,,,,,,,,,,,,,,,,,,,,,,,,,,,,,,,,,,,,,,,,,,,,,,,,,,,,,,,,,,,,,,,,,,,,,,,,,,,,,,,,,,,,,,,,,,,,,,,,,,,,,,
,,,,,,5f9c70519242e010e0f1c608,62c538e4e5224759483cd7f2,2022-07-06_09h25.34.340,Colour_Asymmetry_Pilot,2022.1.3,Win32,60.06727535,62c50e9c1127f2cd403a315f,0,67,67,82,1,twoone,,,,,,,,,,,,,,,,,,,,,,,,,,,,,,,,,,,,,,,,,,,,,,,,,,,,,,,,,,,,,,,,,,,,,,,,,,,,,,,,,,,,,,,,,,,,,,,,,,,,,,,,,,,,,,,,,,,,,,,,,,,,,,,,,,,,,,,,,,,,,,,,,,,,,,,,,,,,,
,,,,,,5f9c70519242e010e0f1c608,62c538e4e5224759483cd7f2,2022-07-06_09h25.34.340,Colour_Asymmetry_Pilot,2022.1.3,Win32,60.06727535,62c50e9c1127f2cd403a315f,0,68,68,68,1,threeone,,,,,,,,,,,,,,,,,,,,,,,,,,,,,,,,,,,,,,,,,,,,,,,,,,,,,,,,,,,,,,,,,,,,,,,,,,,,,,,,,,,,,,,,,,,,,,,,,,,,,,,,,,,,,,,,,,,,,,,,,,,,,,,,,,,,,,,,,,,,,,,,,,,,,,,,,,,,,
,,,,,,5f9c70519242e010e0f1c608,62c538e4e5224759483cd7f2,2022-07-06_09h25.34.340,Colour_Asymmetry_Pilot,2022.1.3,Win32,60.06727535,62c50e9c1127f2cd403a315f,0,69,69,86,1,fourtwo,,,,,,,,,,,,,,,,,,,,,,,,,,,,,,,,,,,,,,,,,,,,,,,,,,,,,,,,,,,,,,,,,,,,,,,,,,,,,,,,,,,,,,,,,,,,,,,,,,,,,,,,,,,,,,,,,,,,,,,,,,,,,,,,,,,,,,,,,,,,,,,,,,,,,,,,,,,,,
,,,,,,5f9c70519242e010e0f1c608,62c538e4e5224759483cd7f2,2022-07-06_09h25.34.340,Colour_Asymmetry_Pilot,2022.1.3,Win32,60.06727535,62c50e9c1127f2cd403a315f,0,70,70,83,1,twofour,,,,,,,,,,,,,,,,,,,,,,,,,,,,,,,,,,,,,,,,,,,,,,,,,,,,,,,,,,,,,,,,,,,,,,,,,,,,,,,,,,,,,,,,,,,,,,,,,,,,,,,,,,,,,,,,,,,,,,,,,,,,,,,,,,,,,,,,,,,,,,,,,,,,,,,,,,,,,
,,,,,,5f9c70519242e010e0f1c608,62c538e4e5224759483cd7f2,2022-07-06_09h25.34.340,Colour_Asymmetry_Pilot,2022.1.3,Win32,60.06727535,62c50e9c1127f2cd403a315f,0,71,71,80,1,onetwo,,,,,,,,,,,,,,,,,,,,,,,,,,,,,,,,,,,,,,,,,,,,,,,,,,,,,,,,,,,,,,,,,,,,,,,,,,,,,,,,,,,,,,,,,,,,,,,,,,,,,,,,,,,,,,,,,,,,,,,,,,,,,,,,,,,,,,,,,,,,,,,,,,,,,,,,,,,,,
,,,,,,5f9c70519242e010e0f1c608,62c538e4e5224759483cd7f2,2022-07-06_09h25.34.340,Colour_Asymmetry_Pilot,2022.1.3,Win32,60.06727535,62c50e9c1127f2cd403a315f,0,72,72,74,1,twoone,,,,,,,,,,,,,,,,,,,,,,,,,,,,,,,,,,,,,,,,,,,,,,,,,,,,,,,,,,,,,,,,,,,,,,,,,,,,,,,,,,,,,,,,,,,,,,,,,,,,,,,,,,,,,,,,,,,,,,,,,,,,,,,,,,,,,,,,,,,,,,,,,,,,,,,,,,,,,
,,,,,,5f9c70519242e010e0f1c608,62c538e4e5224759483cd7f2,2022-07-06_09h25.34.340,Colour_Asymmetry_Pilot,2022.1.3,Win32,60.06727535,62c50e9c1127f2cd403a315f,0,73,73,130,1,twoone,,,,,,,,,,,,,,,,,,,,,,,,,,,,,,,,,,,,,,,,,,,,,,,,,,,,,,,,,,,,,,,,,,,,,,,,,,,,,,,,,,,,,,,,,,,,,,,,,,,,,,,,,,,,,,,,,,,,,,,,,,,,,,,,,,,,,,,,,,,,,,,,,,,,,,,,,,,,,
,,,,,,5f9c70519242e010e0f1c608,62c538e4e5224759483cd7f2,2022-07-06_09h25.34.340,Colour_Asymmetry_Pilot,2022.1.3,Win32,60.06727535,62c50e9c1127f2cd403a315f,0,74,74,85,1,threefour,,,,,,,,,,,,,,,,,,,,,,,,,,,,,,,,,,,,,,,,,,,,,,,,,,,,,,,,,,,,,,,,,,,,,,,,,,,,,,,,,,,,,,,,,,,,,,,,,,,,,,,,,,,,,,,,,,,,,,,,,,,,,,,,,,,,,,,,,,,,,,,,,,,,,,,,,,,,,
,,,,,,5f9c70519242e010e0f1c608,62c538e4e5224759483cd7f2,2022-07-06_09h25.34.340,Colour_Asymmetry_Pilot,2022.1.3,Win32,60.06727535,62c50e9c1127f2cd403a315f,0,75,75,142,1,fourtwo,,,,,,,,,,,,,,,,,,,,,,,,,,,,,,,,,,,,,,,,,,,,,,,,,,,,,,,,,,,,,,,,,,,,,,,,,,,,,,,,,,,,,,,,,,,,,,,,,,,,,,,,,,,,,,,,,,,,,,,,,,,,,,,,,,,,,,,,,,,,,,,,,,,,,,,,,,,,,
,,,,,,5f9c70519242e010e0f1c608,62c538e4e5224759483cd7f2,2022-07-06_09h25.34.340,Colour_Asymmetry_Pilot,2022.1.3,Win32,60.06727535,62c50e9c1127f2cd403a315f,0,76,76,124,1,threeone,,,,,,,,,,,,,,,,,,,,,,,,,,,,,,,,,,,,,,,,,,,,,,,,,,,,,,,,,,,,,,,,,,,,,,,,,,,,,,,,,,,,,,,,,,,,,,,,,,,,,,,,,,,,,,,,,,,,,,,,,,,,,,,,,,,,,,,,,,,,,,,,,,,,,,,,,,,,,
,,,,,,5f9c70519242e010e0f1c608,62c538e4e5224759483cd7f2,2022-07-06_09h25.34.340,Colour_Asymmetry_Pilot,2022.1.3,Win32,60.06727535,62c50e9c1127f2cd403a315f,0,77,77,96,1,onetwo,,,,,,,,,,,,,,,,,,,,,,,,,,,,,,,,,,,,,,,,,,,,,,,,,,,,,,,,,,,,,,,,,,,,,,,,,,,,,,,,,,,,,,,,,,,,,,,,,,,,,,,,,,,,,,,,,,,,,,,,,,,,,,,,,,,,,,,,,,,,,,,,,,,,,,,,,,,,,
,,,,,,5f9c70519242e010e0f1c608,62c538e4e5224759483cd7f2,2022-07-06_09h25.34.340,Colour_Asymmetry_Pilot,2022.1.3,Win32,60.06727535,62c50e9c1127f2cd403a315f,0,78,78,143,1,fourthree,,,,,,,,,,,,,,,,,,,,,,,,,,,,,,,,,,,,,,,,,,,,,,,,,,,,,,,,,,,,,,,,,,,,,,,,,,,,,,,,,,,,,,,,,,,,,,,,,,,,,,,,,,,,,,,,,,,,,,,,,,,,,,,,,,,,,,,,,,,,,,,,,,,,,,,,,,,,,
,,,,,,5f9c70519242e010e0f1c608,62c538e4e5224759483cd7f2,2022-07-06_09h25.34.340,Colour_Asymmetry_Pilot,2022.1.3,Win32,60.06727535,62c50e9c1127f2cd403a315f,0,79,79,127,1,fourthree,,,,,,,,,,,,,,,,,,,,,,,,,,,,,,,,,,,,,,,,,,,,,,,,,,,,,,,,,,,,,,,,,,,,,,,,,,,,,,,,,,,,,,,,,,,,,,,,,,,,,,,,,,,,,,,,,,,,,,,,,,,,,,,,,,,,,,,,,,,,,,,,,,,,,,,,,,,,,
,,,,,,5f9c70519242e010e0f1c608,62c538e4e5224759483cd7f2,2022-07-06_09h25.34.340,Colour_Asymmetry_Pilot,2022.1.3,Win32,60.06727535,62c50e9c1127f2cd403a315f,0,80,80,40,1,onetwo,,,,,,,,,,,,,,,,,,,,,,,,,,,,,,,,,,,,,,,,,,,,,,,,,,,,,,,,,,,,,,,,,,,,,,,,,,,,,,,,,,,,,,,,,,,,,,,,,,,,,,,,,,,,,,,,,,,,,,,,,,,,,,,,,,,,,,,,,,,,,,,,,,,,,,,,,,,,,
,,,,,,5f9c70519242e010e0f1c608,62c538e4e5224759483cd7f2,2022-07-06_09h25.34.340,Colour_Asymmetry_Pilot,2022.1.3,Win32,60.06727535,62c50e9c1127f2cd403a315f,0,81,81,23,1,fourthree,,,,,,,,,,,,,,,,,,,,,,,,,,,,,,,,,,,,,,,,,,,,,,,,,,,,,,,,,,,,,,,,,,,,,,,,,,,,,,,,,,,,,,,,,,,,,,,,,,,,,,,,,,,,,,,,,,,,,,,,,,,,,,,,,,,,,,,,,,,,,,,,,,,,,,,,,,,,,
,,,,,,5f9c70519242e010e0f1c608,62c538e4e5224759483cd7f2,2022-07-06_09h25.34.340,Colour_Asymmetry_Pilot,2022.1.3,Win32,60.06727535,62c50e9c1127f2cd403a315f,0,82,82,46,1,fourtwo,,,,,,,,,,,,,,,,,,,,,,,,,,,,,,,,,,,,,,,,,,,,,,,,,,,,,,,,,,,,,,,,,,,,,,,,,,,,,,,,,,,,,,,,,,,,,,,,,,,,,,,,,,,,,,,,,,,,,,,,,,,,,,,,,,,,,,,,,,,,,,,,,,,,,,,,,,,,,
,,,,,,5f9c70519242e010e0f1c608,62c538e4e5224759483cd7f2,2022-07-06_09h25.34.340,Colour_Asymmetry_Pilot,2022.1.3,Win32,60.06727535,62c50e9c1127f2cd403a315f,0,83,83,87,1,fourthree,,,,,,,,,,,,,,,,,,,,,,,,,,,,,,,,,,,,,,,,,,,,,,,,,,,,,,,,,,,,,,,,,,,,,,,,,,,,,,,,,,,,,,,,,,,,,,,,,,,,,,,,,,,,,,,,,,,,,,,,,,,,,,,,,,,,,,,,,,,,,,,,,,,,,,,,,,,,,
,,,,,,5f9c70519242e010e0f1c608,62c538e4e5224759483cd7f2,2022-07-06_09h25.34.340,Colour_Asymmetry_Pilot,2022.1.3,Win32,60.06727535,62c50e9c1127f2cd403a315f,0,84,84,115,1,twofour,,,,,,,,,,,,,,,,,,,,,,,,,,,,,,,,,,,,,,,,,,,,,,,,,,,,,,,,,,,,,,,,,,,,,,,,,,,,,,,,,,,,,,,,,,,,,,,,,,,,,,,,,,,,,,,,,,,,,,,,,,,,,,,,,,,,,,,,,,,,,,,,,,,,,,,,,,,,,
,,,,,,5f9c70519242e010e0f1c608,62c538e4e5224759483cd7f2,2022-07-06_09h25.34.340,Colour_Asymmetry_Pilot,2022.1.3,Win32,60.06727535,62c50e9c1127f2cd403a315f,0,85,85,21,1,threefour,,,,,,,,,,,,,,,,,,,,,,,,,,,,,,,,,,,,,,,,,,,,,,,,,,,,,,,,,,,,,,,,,,,,,,,,,,,,,,,,,,,,,,,,,,,,,,,,,,,,,,,,,,,,,,,,,,,,,,,,,,,,,,,,,,,,,,,,,,,,,,,,,,,,,,,,,,,,,
,,,,,,5f9c70519242e010e0f1c608,62c538e4e5224759483cd7f2,2022-07-06_09h25.34.340,Colour_Asymmetry_Pilot,2022.1.3,Win32,60.06727535,62c50e9c1127f2cd403a315f,0,86,86,0,1,onetwo,,,,,,,,,,,,,,,,,,,,,,,,,,,,,,,,,,,,,,,,,,,,,,,,,,,,,,,,,,,,,,,,,,,,,,,,,,,,,,,,,,,,,,,,,,,,,,,,,,,,,,,,,,,,,,,,,,,,,,,,,,,,,,,,,,,,,,,,,,,,,,,,,,,,,,,,,,,,,
,,,,,,5f9c70519242e010e0f1c608,62c538e4e5224759483cd7f2,2022-07-06_09h25.34.340,Colour_Asymmetry_Pilot,2022.1.3,Win32,60.06727535,62c50e9c1127f2cd403a315f,0,87,87,67,1,twofour,,,,,,,,,,,,,,,,,,,,,,,,,,,,,,,,,,,,,,,,,,,,,,,,,,,,,,,,,,,,,,,,,,,,,,,,,,,,,,,,,,,,,,,,,,,,,,,,,,,,,,,,,,,,,,,,,,,,,,,,,,,,,,,,,,,,,,,,,,,,,,,,,,,,,,,,,,,,,
,,,,,,5f9c70519242e010e0f1c608,62c538e4e5224759483cd7f2,2022-07-06_09h25.34.340,Colour_Asymmetry_Pilot,2022.1.3,Win32,60.06727535,62c50e9c1127f2cd403a315f,0,88,88,133,1,threefour,,,,,,,,,,,,,,,,,,,,,,,,,,,,,,,,,,,,,,,,,,,,,,,,,,,,,,,,,,,,,,,,,,,,,,,,,,,,,,,,,,,,,,,,,,,,,,,,,,,,,,,,,,,,,,,,,,,,,,,,,,,,,,,,,,,,,,,,,,,,,,,,,,,,,,,,,,,,,
,,,,,,5f9c70519242e010e0f1c608,62c538e4e5224759483cd7f2,2022-07-06_09h25.34.340,Colour_Asymmetry_Pilot,2022.1.3,Win32,60.06727535,62c50e9c1127f2cd403a315f,0,89,89,132,1,threeone,,,,,,,,,,,,,,,,,,,,,,,,,,,,,,,,,,,,,,,,,,,,,,,,,,,,,,,,,,,,,,,,,,,,,,,,,,,,,,,,,,,,,,,,,,,,,,,,,,,,,,,,,,,,,,,,,,,,,,,,,,,,,,,,,,,,,,,,,,,,,,,,,,,,,,,,,,,,,
,,,,,,5f9c70519242e010e0f1c608,62c538e4e5224759483cd7f2,2022-07-06_09h25.34.340,Colour_Asymmetry_Pilot,2022.1.3,Win32,60.06727535,62c50e9c1127f2cd403a315f,0,90,90,2,1,twoone,,,,,,,,,,,,,,,,,,,,,,,,,,,,,,,,,,,,,,,,,,,,,,,,,,,,,,,,,,,,,,,,,,,,,,,,,,,,,,,,,,,,,,,,,,,,,,,,,,,,,,,,,,,,,,,,,,,,,,,,,,,,,,,,,,,,,,,,,,,,,,,,,,,,,,,,,,,,,
,,,,,,5f9c70519242e010e0f1c608,62c538e4e5224759483cd7f2,2022-07-06_09h25.34.340,Colour_Asymmetry_Pilot,2022.1.3,Win32,60.06727535,62c50e9c1127f2cd403a315f,0,91,91,161,1,onethree,,,,,,,,,,,,,,,,,,,,,,,,,,,,,,,,,,,,,,,,,,,,,,,,,,,,,,,,,,,,,,,,,,,,,,,,,,,,,,,,,,,,,,,,,,,,,,,,,,,,,,,,,,,,,,,,,,,,,,,,,,,,,,,,,,,,,,,,,,,,,,,,,,,,,,,,,,,,,
,,,,,,5f9c70519242e010e0f1c608,62c538e4e5224759483cd7f2,2022-07-06_09h25.34.340,Colour_Asymmetry_Pilot,2022.1.3,Win32,60.06727535,62c50e9c1127f2cd403a315f,0,92,92,147,1,twofour,,,,,,,,,,,,,,,,,,,,,,,,,,,,,,,,,,,,,,,,,,,,,,,,,,,,,,,,,,,,,,,,,,,,,,,,,,,,,,,,,,,,,,,,,,,,,,,,,,,,,,,,,,,,,,,,,,,,,,,,,,,,,,,,,,,,,,,,,,,,,,,,,,,,,,,,,,,,,
,,,,,,5f9c70519242e010e0f1c608,62c538e4e5224759483cd7f2,2022-07-06_09h25.34.340,Colour_Asymmetry_Pilot,2022.1.3,Win32,60.06727535,62c50e9c1127f2cd403a315f,0,93,93,121,1,onethree,,,,,,,,,,,,,,,,,,,,,,,,,,,,,,,,,,,,,,,,,,,,,,,,,,,,,,,,,,,,,,,,,,,,,,,,,,,,,,,,,,,,,,,,,,,,,,,,,,,,,,,,,,,,,,,,,,,,,,,,,,,,,,,,,,,,,,,,,,,,,,,,,,,,,,,,,,,,,
,,,,,,5f9c70519242e010e0f1c608,62c538e4e5224759483cd7f2,2022-07-06_09h25.34.340,Colour_Asymmetry_Pilot,2022.1.3,Win32,60.06727535,62c50e9c1127f2cd403a315f,0,94,94,116,1,threeone,,,,,,,,,,,,,,,,,,,,,,,,,,,,,,,,,,,,,,,,,,,,,,,,,,,,,,,,,,,,,,,,,,,,,,,,,,,,,,,,,,,,,,,,,,,,,,,,,,,,,,,,,,,,,,,,,,,,,,,,,,,,,,,,,,,,,,,,,,,,,,,,,,,,,,,,,,,,,
,,,,,,5f9c70519242e010e0f1c608,62c538e4e5224759483cd7f2,2022-07-06_09h25.34.340,Colour_Asymmetry_Pilot,2022.1.3,Win32,60.06727535,62c50e9c1127f2cd403a315f,0,95,95,33,1,onethree,,,,,,,,,,,,,,,,,,,,,,,,,,,,,,,,,,,,,,,,,,,,,,,,,,,,,,,,,,,,,,,,,,,,,,,,,,,,,,,,,,,,,,,,,,,,,,,,,,,,,,,,,,,,,,,,,,,,,,,,,,,,,,,,,,,,,,,,,,,,,,,,,,,,,,,,,,,,,
,,,,,,5f9c70519242e010e0f1c608,62c538e4e5224759483cd7f2,2022-07-06_09h25.34.340,Colour_Asymmetry_Pilot,2022.1.3,Win32,60.06727535,62c50e9c1127f2cd403a315f,0,96,96,75,1,twofour,,,,,,,,,,,,,,,,,,,,,,,,,,,,,,,,,,,,,,,,,,,,,,,,,,,,,,,,,,,,,,,,,,,,,,,,,,,,,,,,,,,,,,,,,,,,,,,,,,,,,,,,,,,,,,,,,,,,,,,,,,,,,,,,,,,,,,,,,,,,,,,,,,,,,,,,,,,,,
,,,,,,5f9c70519242e010e0f1c608,62c538e4e5224759483cd7f2,2022-07-06_09h25.34.340,Colour_Asymmetry_Pilot,2022.1.3,Win32,60.06727535,62c50e9c1127f2cd403a315f,0,97,97,16,1,onetwo,,,,,,,,,,,,,,,,,,,,,,,,,,,,,,,,,,,,,,,,,,,,,,,,,,,,,,,,,,,,,,,,,,,,,,,,,,,,,,,,,,,,,,,,,,,,,,,,,,,,,,,,,,,,,,,,,,,,,,,,,,,,,,,,,,,,,,,,,,,,,,,,,,,,,,,,,,,,,
,,,,,,5f9c70519242e010e0f1c608,62c538e4e5224759483cd7f2,2022-07-06_09h25.34.340,Colour_Asymmetry_Pilot,2022.1.3,Win32,60.06727535,62c50e9c1127f2cd403a315f,0,98,98,38,1,fourtwo,,,,,,,,,,,,,,,,,,,,,,,,,,,,,,,,,,,,,,,,,,,,,,,,,,,,,,,,,,,,,,,,,,,,,,,,,,,,,,,,,,,,,,,,,,,,,,,,,,,,,,,,,,,,,,,,,,,,,,,,,,,,,,,,,,,,,,,,,,,,,,,,,,,,,,,,,,,,,
,,,,,,5f9c70519242e010e0f1c608,62c538e4e5224759483cd7f2,2022-07-06_09h25.34.340,Colour_Asymmetry_Pilot,2022.1.3,Win32,60.06727535,62c50e9c1127f2cd403a315f,0,99,99,69,1,threefour,,,,,,,,,,,,,,,,,,,,,,,,,,,,,,,,,,,,,,,,,,,,,,,,,,,,,,,,,,,,,,,,,,,,,,,,,,,,,,,,,,,,,,,,,,,,,,,,,,,,,,,,,,,,,,,,,,,,,,,,,,,,,,,,,,,,,,,,,,,,,,,,,,,,,,,,,,,,,
,,,,,,5f9c70519242e010e0f1c608,62c538e4e5224759483cd7f2,2022-07-06_09h25.34.340,Colour_Asymmetry_Pilot,2022.1.3,Win32,60.06727535,62c50e9c1127f2cd403a315f,0,100,100,110,1,fourtwo,,,,,,,,,,,,,,,,,,,,,,,,,,,,,,,,,,,,,,,,,,,,,,,,,,,,,,,,,,,,,,,,,,,,,,,,,,,,,,,,,,,,,,,,,,,,,,,,,,,,,,,,,,,,,,,,,,,,,,,,,,,,,,,,,,,,,,,,,,,,,,,,,,,,,,,,,,,,,
,,,,,,5f9c70519242e010e0f1c608,62c538e4e5224759483cd7f2,2022-07-06_09h25.34.340,Colour_Asymmetry_Pilot,2022.1.3,Win32,60.06727535,62c50e9c1127f2cd403a315f,0,101,101,35,1,twofour,,,,,,,,,,,,,,,,,,,,,,,,,,,,,,,,,,,,,,,,,,,,,,,,,,,,,,,,,,,,,,,,,,,,,,,,,,,,,,,,,,,,,,,,,,,,,,,,,,,,,,,,,,,,,,,,,,,,,,,,,,,,,,,,,,,,,,,,,,,,,,,,,,,,,,,,,,,,,
,,,,,,5f9c70519242e010e0f1c608,62c538e4e5224759483cd7f2,2022-07-06_09h25.34.340,Colour_Asymmetry_Pilot,2022.1.3,Win32,60.06727535,62c50e9c1127f2cd403a315f,0,102,102,64,1,onetwo,,,,,,,,,,,,,,,,,,,,,,,,,,,,,,,,,,,,,,,,,,,,,,,,,,,,,,,,,,,,,,,,,,,,,,,,,,,,,,,,,,,,,,,,,,,,,,,,,,,,,,,,,,,,,,,,,,,,,,,,,,,,,,,,,,,,,,,,,,,,,,,,,,,,,,,,,,,,,
,,,,,,5f9c70519242e010e0f1c608,62c538e4e5224759483cd7f2,2022-07-06_09h25.34.340,Colour_Asymmetry_Pilot,2022.1.3,Win32,60.06727535,62c50e9c1127f2cd403a315f,0,103,103,49,1,onethree,,,,,,,,,,,,,,,,,,,,,,,,,,,,,,,,,,,,,,,,,,,,,,,,,,,,,,,,,,,,,,,,,,,,,,,,,,,,,,,,,,,,,,,,,,,,,,,,,,,,,,,,,,,,,,,,,,,,,,,,,,,,,,,,,,,,,,,,,,,,,,,,,,,,,,,,,,,,,
,,,,,,5f9c70519242e010e0f1c608,62c538e4e5224759483cd7f2,2022-07-06_09h25.34.340,Colour_Asymmetry_Pilot,2022.1.3,Win32,60.06727535,62c50e9c1127f2cd403a315f,0,104,104,113,1,onethree,,,,,,,,,,,,,,,,,,,,,,,,,,,,,,,,,,,,,,,,,,,,,,,,,,,,,,,,,,,,,,,,,,,,,,,,,,,,,,,,,,,,,,,,,,,,,,,,,,,,,,,,,,,,,,,,,,,,,,,,,,,,,,,,,,,,,,,,,,,,,,,,,,,,,,,,,,,,,
,,,,,,5f9c70519242e010e0f1c608,62c538e4e5224759483cd7f2,2022-07-06_09h25.34.340,Colour_Asymmetry_Pilot,2022.1.3,Win32,60.06727535,62c50e9c1127f2cd403a315f,0,105,105,79,1,fourthree,,,,,,,,,,,,,,,,,,,,,,,,,,,,,,,,,,,,,,,,,,,,,,,,,,,,,,,,,,,,,,,,,,,,,,,,,,,,,,,,,,,,,,,,,,,,,,,,,,,,,,,,,,,,,,,,,,,,,,,,,,,,,,,,,,,,,,,,,,,,,,,,,,,,,,,,,,,,,
,,,,,,5f9c70519242e010e0f1c608,62c538e4e5224759483cd7f2,2022-07-06_09h25.34.340,Colour_Asymmetry_Pilot,2022.1.3,Win32,60.06727535,62c50e9c1127f2cd403a315f,0,106,106,66,1,twoone,,,,,,,,,,,,,,,,,,,,,,,,,,,,,,,,,,,,,,,,,,,,,,,,,,,,,,,,,,,,,,,,,,,,,,,,,,,,,,,,,,,,,,,,,,,,,,,,,,,,,,,,,,,,,,,,,,,,,,,,,,,,,,,,,,,,,,,,,,,,,,,,,,,,,,,,,,,,,
,,,,,,5f9c70519242e010e0f1c608,62c538e4e5224759483cd7f2,2022-07-06_09h25.34.340,Colour_Asymmetry_Pilot,2022.1.3,Win32,60.06727535,62c50e9c1127f2cd403a315f,0,107,107,136,1,onetwo,,,,,,,,,,,,,,,,,,,,,,,,,,,,,,,,,,,,,,,,,,,,,,,,,,,,,,,,,,,,,,,,,,,,,,,,,,,,,,,,,,,,,,,,,,,,,,,,,,,,,,,,,,,,,,,,,,,,,,,,,,,,,,,,,,,,,,,,,,,,,,,,,,,,,,,,,,,,,
,,,,,,5f9c70519242e010e0f1c608,62c538e4e5224759483cd7f2,2022-07-06_09h25.34.340,Colour_Asymmetry_Pilot,2022.1.3,Win32,60.06727535,62c50e9c1127f2cd403a315f,0,108,108,42,1,twoone,,,,,,,,,,,,,,,,,,,,,,,,,,,,,,,,,,,,,,,,,,,,,,,,,,,,,,,,,,,,,,,,,,,,,,,,,,,,,,,,,,,,,,,,,,,,,,,,,,,,,,,,,,,,,,,,,,,,,,,,,,,,,,,,,,,,,,,,,,,,,,,,,,,,,,,,,,,,,
,,,,,,5f9c70519242e010e0f1c608,62c538e4e5224759483cd7f2,2022-07-06_09h25.34.340,Colour_Asymmetry_Pilot,2022.1.3,Win32,60.06727535,62c50e9c1127f2cd403a315f,0,109,109,63,1,fourthree,,,,,,,,,,,,,,,,,,,,,,,,,,,,,,,,,,,,,,,,,,,,,,,,,,,,,,,,,,,,,,,,,,,,,,,,,,,,,,,,,,,,,,,,,,,,,,,,,,,,,,,,,,,,,,,,,,,,,,,,,,,,,,,,,,,,,,,,,,,,,,,,,,,,,,,,,,,,,
,,,,,,5f9c70519242e010e0f1c608,62c538e4e5224759483cd7f2,2022-07-06_09h25.34.340,Colour_Asymmetry_Pilot,2022.1.3,Win32,60.06727535,62c50e9c1127f2cd403a315f,0,110,110,36,1,threeone,,,,,,,,,,,,,,,,,,,,,,,,,,,,,,,,,,,,,,,,,,,,,,,,,,,,,,,,,,,,,,,,,,,,,,,,,,,,,,,,,,,,,,,,,,,,,,,,,,,,,,,,,,,,,,,,,,,,,,,,,,,,,,,,,,,,,,,,,,,,,,,,,,,,,,,,,,,,,
,,,,,,5f9c70519242e010e0f1c608,62c538e4e5224759483cd7f2,2022-07-06_09h25.34.340,Colour_Asymmetry_Pilot,2022.1.3,Win32,60.06727535,62c50e9c1127f2cd403a315f,0,111,111,5,1,threefour,,,,,,,,,,,,,,,,,,,,,,,,,,,,,,,,,,,,,,,,,,,,,,,,,,,,,,,,,,,,,,,,,,,,,,,,,,,,,,,,,,,,,,,,,,,,,,,,,,,,,,,,,,,,,,,,,,,,,,,,,,,,,,,,,,,,,,,,,,,,,,,,,,,,,,,,,,,,,
,,,,,,5f9c70519242e010e0f1c608,62c538e4e5224759483cd7f2,2022-07-06_09h25.34.340,Colour_Asymmetry_Pilot,2022.1.3,Win32,60.06727535,62c50e9c1127f2cd403a315f,0,112,112,12,1,threeone,,,,,,,,,,,,,,,,,,,,,,,,,,,,,,,,,,,,,,,,,,,,,,,,,,,,,,,,,,,,,,,,,,,,,,,,,,,,,,,,,,,,,,,,,,,,,,,,,,,,,,,,,,,,,,,,,,,,,,,,,,,,,,,,,,,,,,,,,,,,,,,,,,,,,,,,,,,,,
,,,,,,5f9c70519242e010e0f1c608,62c538e4e5224759483cd7f2,2022-07-06_09h25.34.340,Colour_Asymmetry_Pilot,2022.1.3,Win32,60.06727535,62c50e9c1127f2cd403a315f,0,113,113,149,1,threefour,,,,,,,,,,,,,,,,,,,,,,,,,,,,,,,,,,,,,,,,,,,,,,,,,,,,,,,,,,,,,,,,,,,,,,,,,,,,,,,,,,,,,,,,,,,,,,,,,,,,,,,,,,,,,,,,,,,,,,,,,,,,,,,,,,,,,,,,,,,,,,,,,,,,,,,,,,,,,
,,,,,,5f9c70519242e010e0f1c608,62c538e4e5224759483cd7f2,2022-07-06_09h25.34.340,Colour_Asymmetry_Pilot,2022.1.3,Win32,60.06727535,62c50e9c1127f2cd403a315f,0,114,114,112,1,onetwo,,,,,,,,,,,,,,,,,,,,,,,,,,,,,,,,,,,,,,,,,,,,,,,,,,,,,,,,,,,,,,,,,,,,,,,,,,,,,,,,,,,,,,,,,,,,,,,,,,,,,,,,,,,,,,,,,,,,,,,,,,,,,,,,,,,,,,,,,,,,,,,,,,,,,,,,,,,,,
,,,,,,5f9c70519242e010e0f1c608,62c538e4e5224759483cd7f2,2022-07-06_09h25.34.340,Colour_Asymmetry_Pilot,2022.1.3,Win32,60.06727535,62c50e9c1127f2cd403a315f,0,115,115,160,1,onetwo,,,,,,,,,,,,,,,,,,,,,,,,,,,,,,,,,,,,,,,,,,,,,,,,,,,,,,,,,,,,,,,,,,,,,,,,,,,,,,,,,,,,,,,,,,,,,,,,,,,,,,,,,,,,,,,,,,,,,,,,,,,,,,,,,,,,,,,,,,,,,,,,,,,,,,,,,,,,,
,,,,,,5f9c70519242e010e0f1c608,62c538e4e5224759483cd7f2,2022-07-06_09h25.34.340,Colour_Asymmetry_Pilot,2022.1.3,Win32,60.06727535,62c50e9c1127f2cd403a315f,0,116,116,52,1,threeone,,,,,,,,,,,,,,,,,,,,,,,,,,,,,,,,,,,,,,,,,,,,,,,,,,,,,,,,,,,,,,,,,,,,,,,,,,,,,,,,,,,,,,,,,,,,,,,,,,,,,,,,,,,,,,,,,,,,,,,,,,,,,,,,,,,,,,,,,,,,,,,,,,,,,,,,,,,,,
,,,,,,5f9c70519242e010e0f1c608,62c538e4e5224759483cd7f2,2022-07-06_09h25.34.340,Colour_Asymmetry_Pilot,2022.1.3,Win32,60.06727535,62c50e9c1127f2cd403a315f,0,117,117,15,1,fourthree,,,,,,,,,,,,,,,,,,,,,,,,,,,,,,,,,,,,,,,,,,,,,,,,,,,,,,,,,,,,,,,,,,,,,,,,,,,,,,,,,,,,,,,,,,,,,,,,,,,,,,,,,,,,,,,,,,,,,,,,,,,,,,,,,,,,,,,,,,,,,,,,,,,,,,,,,,,,,
,,,,,,5f9c70519242e010e0f1c608,62c538e4e5224759483cd7f2,2022-07-06_09h25.34.340,Colour_Asymmetry_Pilot,2022.1.3,Win32,60.06727535,62c50e9c1127f2cd403a315f,0,118,118,43,1,twofour,,,,,,,,,,,,,,,,,,,,,,,,,,,,,,,,,,,,,,,,,,,,,,,,,,,,,,,,,,,,,,,,,,,,,,,,,,,,,,,,,,,,,,,,,,,,,,,,,,,,,,,,,,,,,,,,,,,,,,,,,,,,,,,,,,,,,,,,,,,,,,,,,,,,,,,,,,,,,
,,,,,,5f9c70519242e010e0f1c608,62c538e4e5224759483cd7f2,2022-07-06_09h25.34.340,Colour_Asymmetry_Pilot,2022.1.3,Win32,60.06727535,62c50e9c1127f2cd403a315f,0,119,119,131,1,twofour,,,,,,,,,,,,,,,,,,,,,,,,,,,,,,,,,,,,,,,,,,,,,,,,,,,,,,,,,,,,,,,,,,,,,,,,,,,,,,,,,,,,,,,,,,,,,,,,,,,,,,,,,,,,,,,,,,,,,,,,,,,,,,,,,,,,,,,,,,,,,,,,,,,,,,,,,,,,,
,,,,,,5f9c70519242e010e0f1c608,62c538e4e5224759483cd7f2,2022-07-06_09h25.34.340,Colour_Asymmetry_Pilot,2022.1.3,Win32,60.06727535,62c50e9c1127f2cd403a315f,0,120,120,20,1,threeone,,,,,,,,,,,,,,,,,,,,,,,,,,,,,,,,,,,,,,,,,,,,,,,,,,,,,,,,,,,,,,,,,,,,,,,,,,,,,,,,,,,,,,,,,,,,,,,,,,,,,,,,,,,,,,,,,,,,,,,,,,,,,,,,,,,,,,,,,,,,,,,,,,,,,,,,,,,,,
,,,,,,5f9c70519242e010e0f1c608,62c538e4e5224759483cd7f2,2022-07-06_09h25.34.340,Colour_Asymmetry_Pilot,2022.1.3,Win32,60.06727535,62c50e9c1127f2cd403a315f,0,121,121,95,1,fourthree,,,,,,,,,,,,,,,,,,,,,,,,,,,,,,,,,,,,,,,,,,,,,,,,,,,,,,,,,,,,,,,,,,,,,,,,,,,,,,,,,,,,,,,,,,,,,,,,,,,,,,,,,,,,,,,,,,,,,,,,,,,,,,,,,,,,,,,,,,,,,,,,,,,,,,,,,,,,,
,,,,,,5f9c70519242e010e0f1c608,62c538e4e5224759483cd7f2,2022-07-06_09h25.34.340,Colour_Asymmetry_Pilot,2022.1.3,Win32,60.06727535,62c50e9c1127f2cd403a315f,0,122,122,140,1,threeone,,,,,,,,,,,,,,,,,,,,,,,,,,,,,,,,,,,,,,,,,,,,,,,,,,,,,,,,,,,,,,,,,,,,,,,,,,,,,,,,,,,,,,,,,,,,,,,,,,,,,,,,,,,,,,,,,,,,,,,,,,,,,,,,,,,,,,,,,,,,,,,,,,,,,,,,,,,,,
,,,,,,5f9c70519242e010e0f1c608,62c538e4e5224759483cd7f2,2022-07-06_09h25.34.340,Colour_Asymmetry_Pilot,2022.1.3,Win32,60.06727535,62c50e9c1127f2cd403a315f,0,123,123,9,1,onethree,,,,,,,,,,,,,,,,,,,,,,,,,,,,,,,,,,,,,,,,,,,,,,,,,,,,,,,,,,,,,,,,,,,,,,,,,,,,,,,,,,,,,,,,,,,,,,,,,,,,,,,,,,,,,,,,,,,,,,,,,,,,,,,,,,,,,,,,,,,,,,,,,,,,,,,,,,,,,
,,,,,,5f9c70519242e010e0f1c608,62c538e4e5224759483cd7f2,2022-07-06_09h25.34.340,Colour_Asymmetry_Pilot,2022.1.3,Win32,60.06727535,62c50e9c1127f2cd403a315f,0,124,124,141,1,threefour,,,,,,,,,,,,,,,,,,,,,,,,,,,,,,,,,,,,,,,,,,,,,,,,,,,,,,,,,,,,,,,,,,,,,,,,,,,,,,,,,,,,,,,,,,,,,,,,,,,,,,,,,,,,,,,,,,,,,,,,,,,,,,,,,,,,,,,,,,,,,,,,,,,,,,,,,,,,,
,,,,,,5f9c70519242e010e0f1c608,62c538e4e5224759483cd7f2,2022-07-06_09h25.34.340,Colour_Asymmetry_Pilot,2022.1.3,Win32,60.06727535,62c50e9c1127f2cd403a315f,0,125,125,155,1,twofour,,,,,,,,,,,,,,,,,,,,,,,,,,,,,,,,,,,,,,,,,,,,,,,,,,,,,,,,,,,,,,,,,,,,,,,,,,,,,,,,,,,,,,,,,,,,,,,,,,,,,,,,,,,,,,,,,,,,,,,,,,,,,,,,,,,,,,,,,,,,,,,,,,,,,,,,,,,,,
,,,,,,5f9c70519242e010e0f1c608,62c538e4e5224759483cd7f2,2022-07-06_09h25.34.340,Colour_Asymmetry_Pilot,2022.1.3,Win32,60.06727535,62c50e9c1127f2cd403a315f,0,126,126,62,1,fourtwo,,,,,,,,,,,,,,,,,,,,,,,,,,,,,,,,,,,,,,,,,,,,,,,,,,,,,,,,,,,,,,,,,,,,,,,,,,,,,,,,,,,,,,,,,,,,,,,,,,,,,,,,,,,,,,,,,,,,,,,,,,,,,,,,,,,,,,,,,,,,,,,,,,,,,,,,,,,,,
,,,,,,5f9c70519242e010e0f1c608,62c538e4e5224759483cd7f2,2022-07-06_09h25.34.340,Colour_Asymmetry_Pilot,2022.1.3,Win32,60.06727535,62c50e9c1127f2cd403a315f,0,127,127,14,1,fourtwo,,,,,,,,,,,,,,,,,,,,,,,,,,,,,,,,,,,,,,,,,,,,,,,,,,,,,,,,,,,,,,,,,,,,,,,,,,,,,,,,,,,,,,,,,,,,,,,,,,,,,,,,,,,,,,,,,,,,,,,,,,,,,,,,,,,,,,,,,,,,,,,,,,,,,,,,,,,,,
,,,,,,5f9c70519242e010e0f1c608,62c538e4e5224759483cd7f2,2022-07-06_09h25.34.340,Colour_Asymmetry_Pilot,2022.1.3,Win32,60.06727535,62c50e9c1127f2cd403a315f,0,128,128,134,1,fourtwo,,,,,,,,,,,,,,,,,,,,,,,,,,,,,,,,,,,,,,,,,,,,,,,,,,,,,,,,,,,,,,,,,,,,,,,,,,,,,,,,,,,,,,,,,,,,,,,,,,,,,,,,,,,,,,,,,,,,,,,,,,,,,,,,,,,,,,,,,,,,,,,,,,,,,,,,,,,,,
,,,,,,5f9c70519242e010e0f1c608,62c538e4e5224759483cd7f2,2022-07-06_09h25.34.340,Colour_Asymmetry_Pilot,2022.1.3,Win32,60.06727535,62c50e9c1127f2cd403a315f,0,129,129,105,1,onethree,,,,,,,,,,,,,,,,,,,,,,,,,,,,,,,,,,,,,,,,,,,,,,,,,,,,,,,,,,,,,,,,,,,,,,,,,,,,,,,,,,,,,,,,,,,,,,,,,,,,,,,,,,,,,,,,,,,,,,,,,,,,,,,,,,,,,,,,,,,,,,,,,,,,,,,,,,,,,
,,,,,,5f9c70519242e010e0f1c608,62c538e4e5224759483cd7f2,2022-07-06_09h25.34.340,Colour_Asymmetry_Pilot,2022.1.3,Win32,60.06727535,62c50e9c1127f2cd403a315f,0,130,130,37,1,threefour,,,,,,,,,,,,,,,,,,,,,,,,,,,,,,,,,,,,,,,,,,,,,,,,,,,,,,,,,,,,,,,,,,,,,,,,,,,,,,,,,,,,,,,,,,,,,,,,,,,,,,,,,,,,,,,,,,,,,,,,,,,,,,,,,,,,,,,,,,,,,,,,,,,,,,,,,,,,,
,,,,,,5f9c70519242e010e0f1c608,62c538e4e5224759483cd7f2,2022-07-06_09h25.34.340,Colour_Asymmetry_Pilot,2022.1.3,Win32,60.06727535,62c50e9c1127f2cd403a315f,0,131,131,129,1,onethree,,,,,,,,,,,,,,,,,,,,,,,,,,,,,,,,,,,,,,,,,,,,,,,,,,,,,,,,,,,,,,,,,,,,,,,,,,,,,,,,,,,,,,,,,,,,,,,,,,,,,,,,,,,,,,,,,,,,,,,,,,,,,,,,,,,,,,,,,,,,,,,,,,,,,,,,,,,,,
,,,,,,5f9c70519242e010e0f1c608,62c538e4e5224759483cd7f2,2022-07-06_09h25.34.340,Colour_Asymmetry_Pilot,2022.1.3,Win32,60.06727535,62c50e9c1127f2cd403a315f,0,132,132,13,1,threefour,,,,,,,,,,,,,,,,,,,,,,,,,,,,,,,,,,,,,,,,,,,,,,,,,,,,,,,,,,,,,,,,,,,,,,,,,,,,,,,,,,,,,,,,,,,,,,,,,,,,,,,,,,,,,,,,,,,,,,,,,,,,,,,,,,,,,,,,,,,,,,,,,,,,,,,,,,,,,
,,,,,,5f9c70519242e010e0f1c608,62c538e4e5224759483cd7f2,2022-07-06_09h25.34.340,Colour_Asymmetry_Pilot,2022.1.3,Win32,60.06727535,62c50e9c1127f2cd403a315f,0,133,133,22,1,fourtwo,,,,,,,,,,,,,,,,,,,,,,,,,,,,,,,,,,,,,,,,,,,,,,,,,,,,,,,,,,,,,,,,,,,,,,,,,,,,,,,,,,,,,,,,,,,,,,,,,,,,,,,,,,,,,,,,,,,,,,,,,,,,,,,,,,,,,,,,,,,,,,,,,,,,,,,,,,,,,
,,,,,,5f9c70519242e010e0f1c608,62c538e4e5224759483cd7f2,2022-07-06_09h25.34.340,Colour_Asymmetry_Pilot,2022.1.3,Win32,60.06727535,62c50e9c1127f2cd403a315f,0,134,134,8,1,onetwo,,,,,,,,,,,,,,,,,,,,,,,,,,,,,,,,,,,,,,,,,,,,,,,,,,,,,,,,,,,,,,,,,,,,,,,,,,,,,,,,,,,,,,,,,,,,,,,,,,,,,,,,,,,,,,,,,,,,,,,,,,,,,,,,,,,,,,,,,,,,,,,,,,,,,,,,,,,,,
,,,,,,5f9c70519242e010e0f1c608,62c538e4e5224759483cd7f2,2022-07-06_09h25.34.340,Colour_Asymmetry_Pilot,2022.1.3,Win32,60.06727535,62c50e9c1127f2cd403a315f,0,135,135,1,1,onethree,,,,,,,,,,,,,,,,,,,,,,,,,,,,,,,,,,,,,,,,,,,,,,,,,,,,,,,,,,,,,,,,,,,,,,,,,,,,,,,,,,,,,,,,,,,,,,,,,,,,,,,,,,,,,,,,,,,,,,,,,,,,,,,,,,,,,,,,,,,,,,,,,,,,,,,,,,,,,
,,,,,,5f9c70519242e010e0f1c608,62c538e4e5224759483cd7f2,2022-07-06_09h25.34.340,Colour_Asymmetry_Pilot,2022.1.3,Win32,60.06727535,62c50e9c1127f2cd403a315f,0,136,136,93,1,threefour,,,,,,,,,,,,,,,,,,,,,,,,,,,,,,,,,,,,,,,,,,,,,,,,,,,,,,,,,,,,,,,,,,,,,,,,,,,,,,,,,,,,,,,,,,,,,,,,,,,,,,,,,,,,,,,,,,,,,,,,,,,,,,,,,,,,,,,,,,,,,,,,,,,,,,,,,,,,,
,,,,,,5f9c70519242e010e0f1c608,62c538e4e5224759483cd7f2,2022-07-06_09h25.34.340,Colour_Asymmetry_Pilot,2022.1.3,Win32,60.06727535,62c50e9c1127f2cd403a315f,0,137,137,18,1,twoone,,,,,,,,,,,,,,,,,,,,,,,,,,,,,,,,,,,,,,,,,,,,,,,,,,,,,,,,,,,,,,,,,,,,,,,,,,,,,,,,,,,,,,,,,,,,,,,,,,,,,,,,,,,,,,,,,,,,,,,,,,,,,,,,,,,,,,,,,,,,,,,,,,,,,,,,,,,,,
,,,,,,5f9c70519242e010e0f1c608,62c538e4e5224759483cd7f2,2022-07-06_09h25.34.340,Colour_Asymmetry_Pilot,2022.1.3,Win32,60.06727535,62c50e9c1127f2cd403a315f,0,138,138,118,1,fourtwo,,,,,,,,,,,,,,,,,,,,,,,,,,,,,,,,,,,,,,,,,,,,,,,,,,,,,,,,,,,,,,,,,,,,,,,,,,,,,,,,,,,,,,,,,,,,,,,,,,,,,,,,,,,,,,,,,,,,,,,,,,,,,,,,,,,,,,,,,,,,,,,,,,,,,,,,,,,,,
,,,,,,5f9c70519242e010e0f1c608,62c538e4e5224759483cd7f2,2022-07-06_09h25.34.340,Colour_Asymmetry_Pilot,2022.1.3,Win32,60.06727535,62c50e9c1127f2cd403a315f,0,139,139,89,1,onethree,,,,,,,,,,,,,,,,,,,,,,,,,,,,,,,,,,,,,,,,,,,,,,,,,,,,,,,,,,,,,,,,,,,,,,,,,,,,,,,,,,,,,,,,,,,,,,,,,,,,,,,,,,,,,,,,,,,,,,,,,,,,,,,,,,,,,,,,,,,,,,,,,,,,,,,,,,,,,
,,,,,,5f9c70519242e010e0f1c608,62c538e4e5224759483cd7f2,2022-07-06_09h25.34.340,Colour_Asymmetry_Pilot,2022.1.3,Win32,60.06727535,62c50e9c1127f2cd403a315f,0,140,140,107,1,twofour,,,,,,,,,,,,,,,,,,,,,,,,,,,,,,,,,,,,,,,,,,,,,,,,,,,,,,,,,,,,,,,,,,,,,,,,,,,,,,,,,,,,,,,,,,,,,,,,,,,,,,,,,,,,,,,,,,,,,,,,,,,,,,,,,,,,,,,,,,,,,,,,,,,,,,,,,,,,,
,,,,,,5f9c70519242e010e0f1c608,62c538e4e5224759483cd7f2,2022-07-06_09h25.34.340,Colour_Asymmetry_Pilot,2022.1.3,Win32,60.06727535,62c50e9c1127f2cd403a315f,0,141,141,32,1,onetwo,,,,,,,,,,,,,,,,,,,,,,,,,,,,,,,,,,,,,,,,,,,,,,,,,,,,,,,,,,,,,,,,,,,,,,,,,,,,,,,,,,,,,,,,,,,,,,,,,,,,,,,,,,,,,,,,,,,,,,,,,,,,,,,,,,,,,,,,,,,,,,,,,,,,,,,,,,,,,
,,,,,,5f9c70519242e010e0f1c608,62c538e4e5224759483cd7f2,2022-07-06_09h25.34.340,Colour_Asymmetry_Pilot,2022.1.3,Win32,60.06727535,62c50e9c1127f2cd403a315f,0,142,142,156,1,threeone,,,,,,,,,,,,,,,,,,,,,,,,,,,,,,,,,,,,,,,,,,,,,,,,,,,,,,,,,,,,,,,,,,,,,,,,,,,,,,,,,,,,,,,,,,,,,,,,,,,,,,,,,,,,,,,,,,,,,,,,,,,,,,,,,,,,,,,,,,,,,,,,,,,,,,,,,,,,,
,,,,,,5f9c70519242e010e0f1c608,62c538e4e5224759483cd7f2,2022-07-06_09h25.34.340,Colour_Asymmetry_Pilot,2022.1.3,Win32,60.06727535,62c50e9c1127f2cd403a315f,0,143,143,7,1,fourthree,,,,,,,,,,,,,,,,,,,,,,,,,,,,,,,,,,,,,,,,,,,,,,,,,,,,,,,,,,,,,,,,,,,,,,,,,,,,,,,,,,,,,,,,,,,,,,,,,,,,,,,,,,,,,,,,,,,,,,,,,,,,,,,,,,,,,,,,,,,,,,,,,,,,,,,,,,,,,
,,,,,,5f9c70519242e010e0f1c608,62c538e4e5224759483cd7f2,2022-07-06_09h25.34.340,Colour_Asymmetry_Pilot,2022.1.3,Win32,60.06727535,62c50e9c1127f2cd403a315f,0,144,144,27,1,twofour,,,,,,,,,,,,,,,,,,,,,,,,,,,,,,,,,,,,,,,,,,,,,,,,,,,,,,,,,,,,,,,,,,,,,,,,,,,,,,,,,,,,,,,,,,,,,,,,,,,,,,,,,,,,,,,,,,,,,,,,,,,,,,,,,,,,,,,,,,,,,,,,,,,,,,,,,,,,,
,,,,,,5f9c70519242e010e0f1c608,62c538e4e5224759483cd7f2,2022-07-06_09h25.34.340,Colour_Asymmetry_Pilot,2022.1.3,Win32,60.06727535,62c50e9c1127f2cd403a315f,0,145,145,41,1,onethree,,,,,,,,,,,,,,,,,,,,,,,,,,,,,,,,,,,,,,,,,,,,,,,,,,,,,,,,,,,,,,,,,,,,,,,,,,,,,,,,,,,,,,,,,,,,,,,,,,,,,,,,,,,,,,,,,,,,,,,,,,,,,,,,,,,,,,,,,,,,,,,,,,,,,,,,,,,,,
,,,,,,5f9c70519242e010e0f1c608,62c538e4e5224759483cd7f2,2022-07-06_09h25.34.340,Colour_Asymmetry_Pilot,2022.1.3,Win32,60.06727535,62c50e9c1127f2cd403a315f,0,146,146,153,1,onethree,,,,,,,,,,,,,,,,,,,,,,,,,,,,,,,,,,,,,,,,,,,,,,,,,,,,,,,,,,,,,,,,,,,,,,,,,,,,,,,,,,,,,,,,,,,,,,,,,,,,,,,,,,,,,,,,,,,,,,,,,,,,,,,,,,,,,,,,,,,,,,,,,,,,,,,,,,,,,
,,,,,,5f9c70519242e010e0f1c608,62c538e4e5224759483cd7f2,2022-07-06_09h25.34.340,Colour_Asymmetry_Pilot,2022.1.3,Win32,60.06727535,62c50e9c1127f2cd403a315f,0,147,147,84,1,threeone,,,,,,,,,,,,,,,,,,,,,,,,,,,,,,,,,,,,,,,,,,,,,,,,,,,,,,,,,,,,,,,,,,,,,,,,,,,,,,,,,,,,,,,,,,,,,,,,,,,,,,,,,,,,,,,,,,,,,,,,,,,,,,,,,,,,,,,,,,,,,,,,,,,,,,,,,,,,,
,,,,,,5f9c70519242e010e0f1c608,62c538e4e5224759483cd7f2,2022-07-06_09h25.34.340,Colour_Asymmetry_Pilot,2022.1.3,Win32,60.06727535,62c50e9c1127f2cd403a315f,0,148,148,34,1,twoone,,,,,,,,,,,,,,,,,,,,,,,,,,,,,,,,,,,,,,,,,,,,,,,,,,,,,,,,,,,,,,,,,,,,,,,,,,,,,,,,,,,,,,,,,,,,,,,,,,,,,,,,,,,,,,,,,,,,,,,,,,,,,,,,,,,,,,,,,,,,,,,,,,,,,,,,,,,,,
,,,,,,5f9c70519242e010e0f1c608,62c538e4e5224759483cd7f2,2022-07-06_09h25.34.340,Colour_Asymmetry_Pilot,2022.1.3,Win32,60.06727535,62c50e9c1127f2cd403a315f,0,149,149,104,1,onetwo,,,,,,,,,,,,,,,,,,,,,,,,,,,,,,,,,,,,,,,,,,,,,,,,,,,,,,,,,,,,,,,,,,,,,,,,,,,,,,,,,,,,,,,,,,,,,,,,,,,,,,,,,,,,,,,,,,,,,,,,,,,,,,,,,,,,,,,,,,,,,,,,,,,,,,,,,,,,,
,,,,,,5f9c70519242e010e0f1c608,62c538e4e5224759483cd7f2,2022-07-06_09h25.34.340,Colour_Asymmetry_Pilot,2022.1.3,Win32,60.06727535,62c50e9c1127f2cd403a315f,0,150,150,6,1,fourtwo,,,,,,,,,,,,,,,,,,,,,,,,,,,,,,,,,,,,,,,,,,,,,,,,,,,,,,,,,,,,,,,,,,,,,,,,,,,,,,,,,,,,,,,,,,,,,,,,,,,,,,,,,,,,,,,,,,,,,,,,,,,,,,,,,,,,,,,,,,,,,,,,,,,,,,,,,,,,,
,,,,,,5f9c70519242e010e0f1c608,62c538e4e5224759483cd7f2,2022-07-06_09h25.34.340,Colour_Asymmetry_Pilot,2022.1.3,Win32,60.06727535,62c50e9c1127f2cd403a315f,0,151,151,26,1,twoone,,,,,,,,,,,,,,,,,,,,,,,,,,,,,,,,,,,,,,,,,,,,,,,,,,,,,,,,,,,,,,,,,,,,,,,,,,,,,,,,,,,,,,,,,,,,,,,,,,,,,,,,,,,,,,,,,,,,,,,,,,,,,,,,,,,,,,,,,,,,,,,,,,,,,,,,,,,,,
,,,,,,5f9c70519242e010e0f1c608,62c538e4e5224759483cd7f2,2022-07-06_09h25.34.340,Colour_Asymmetry_Pilot,2022.1.3,Win32,60.06727535,62c50e9c1127f2cd403a315f,0,152,152,61,1,threefour,,,,,,,,,,,,,,,,,,,,,,,,,,,,,,,,,,,,,,,,,,,,,,,,,,,,,,,,,,,,,,,,,,,,,,,,,,,,,,,,,,,,,,,,,,,,,,,,,,,,,,,,,,,,,,,,,,,,,,,,,,,,,,,,,,,,,,,,,,,,,,,,,,,,,,,,,,,,,
,,,,,,5f9c70519242e010e0f1c608,62c538e4e5224759483cd7f2,2022-07-06_09h25.34.340,Colour_Asymmetry_Pilot,2022.1.3,Win32,60.06727535,62c50e9c1127f2cd403a315f,0,153,153,111,1,fourthree,,,,,,,,,,,,,,,,,,,,,,,,,,,,,,,,,,,,,,,,,,,,,,,,,,,,,,,,,,,,,,,,,,,,,,,,,,,,,,,,,,,,,,,,,,,,,,,,,,,,,,,,,,,,,,,,,,,,,,,,,,,,,,,,,,,,,,,,,,,,,,,,,,,,,,,,,,,,,
,,,,,,5f9c70519242e010e0f1c608,62c538e4e5224759483cd7f2,2022-07-06_09h25.34.340,Colour_Asymmetry_Pilot,2022.1.3,Win32,60.06727535,62c50e9c1127f2cd403a315f,0,154,154,94,1,fourtwo,,,,,,,,,,,,,,,,,,,,,,,,,,,,,,,,,,,,,,,,,,,,,,,,,,,,,,,,,,,,,,,,,,,,,,,,,,,,,,,,,,,,,,,,,,,,,,,,,,,,,,,,,,,,,,,,,,,,,,,,,,,,,,,,,,,,,,,,,,,,,,,,,,,,,,,,,,,,,
,,,,,,5f9c70519242e010e0f1c608,62c538e4e5224759483cd7f2,2022-07-06_09h25.34.340,Colour_Asymmetry_Pilot,2022.1.3,Win32,60.06727535,62c50e9c1127f2cd403a315f,0,155,155,120,1,onetwo,,,,,,,,,,,,,,,,,,,,,,,,,,,,,,,,,,,,,,,,,,,,,,,,,,,,,,,,,,,,,,,,,,,,,,,,,,,,,,,,,,,,,,,,,,,,,,,,,,,,,,,,,,,,,,,,,,,,,,,,,,,,,,,,,,,,,,,,,,,,,,,,,,,,,,,,,,,,,
,,,,,,5f9c70519242e010e0f1c608,62c538e4e5224759483cd7f2,2022-07-06_09h25.34.340,Colour_Asymmetry_Pilot,2022.1.3,Win32,60.06727535,62c50e9c1127f2cd403a315f,0,156,156,135,1,fourthree,,,,,,,,,,,,,,,,,,,,,,,,,,,,,,,,,,,,,,,,,,,,,,,,,,,,,,,,,,,,,,,,,,,,,,,,,,,,,,,,,,,,,,,,,,,,,,,,,,,,,,,,,,,,,,,,,,,,,,,,,,,,,,,,,,,,,,,,,,,,,,,,,,,,,,,,,,,,,
,,,,,,5f9c70519242e010e0f1c608,62c538e4e5224759483cd7f2,2022-07-06_09h25.34.340,Colour_Asymmetry_Pilot,2022.1.3,Win32,60.06727535,62c50e9c1127f2cd403a315f,0,157,157,19,1,twofour,,,,,,,,,,,,,,,,,,,,,,,,,,,,,,,,,,,,,,,,,,,,,,,,,,,,,,,,,,,,,,,,,,,,,,,,,,,,,,,,,,,,,,,,,,,,,,,,,,,,,,,,,,,,,,,,,,,,,,,,,,,,,,,,,,,,,,,,,,,,,,,,,,,,,,,,,,,,,
,,,,,,5f9c70519242e010e0f1c608,62c538e4e5224759483cd7f2,2022-07-06_09h25.34.340,Colour_Asymmetry_Pilot,2022.1.3,Win32,60.06727535,62c50e9c1127f2cd403a315f,0,158,158,78,1,fourtwo,,,,,,,,,,,,,,,,,,,,,,,,,,,,,,,,,,,,,,,,,,,,,,,,,,,,,,,,,,,,,,,,,,,,,,,,,,,,,,,,,,,,,,,,,,,,,,,,,,,,,,,,,,,,,,,,,,,,,,,,,,,,,,,,,,,,,,,,,,,,,,,,,,,,,,,,,,,,,
,,,,,,5f9c70519242e010e0f1c608,62c538e4e5224759483cd7f2,2022-07-06_09h25.34.340,Colour_Asymmetry_Pilot,2022.1.3,Win32,60.06727535,62c50e9c1127f2cd403a315f,0,159,159,152,1,onetwo,,,,,,,,,,,,,,,,,,,,,,,,,,,,,,,,,,,,,,,,,,,,,,,,,,,,,,,,,,,,,,,,,,,,,,,,,,,,,,,,,,,,,,,,,,,,,,,,,,,,,,,,,,,,,,,,,,,,,,,,,,,,,,,,,,,,,,,,,,,,,,,,,,,,,,,,,,,,,
,,,,,,5f9c70519242e010e0f1c608,62c538e4e5224759483cd7f2,2022-07-06_09h25.34.340,Colour_Asymmetry_Pilot,2022.1.3,Win32,60.06727535,62c50e9c1127f2cd403a315f,0,160,160,51,1,twofour,,,,,,,,,,,,,,,,,,,,,,,,,,,,,,,,,,,,,,,,,,,,,,,,,,,,,,,,,,,,,,,,,,,,,,,,,,,,,,,,,,,,,,,,,,,,,,,,,,,,,,,,,,,,,,,,,,,,,,,,,,,,,,,,,,,,,,,,,,,,,,,,,,,,,,,,,,,,,
,,,,,,5f9c70519242e010e0f1c608,62c538e4e5224759483cd7f2,2022-07-06_09h25.34.340,Colour_Asymmetry_Pilot,2022.1.3,Win32,60.06727535,62c50e9c1127f2cd403a315f,0,161,161,10,1,twoone,,,,,,,,,,,,,,,,,,,,,,,,,,,,,,,,,,,,,,,,,,,,,,,,,,,,,,,,,,,,,,,,,,,,,,,,,,,,,,,,,,,,,,,,,,,,,,,,,,,,,,,,,,,,,,,,,,,,,,,,,,,,,,,,,,,,,,,,,,,,,,,,,,,,,,,,,,,,,
,,,,,,5f9c70519242e010e0f1c608,62c538e4e5224759483cd7f2,2022-07-06_09h25.34.340,Colour_Asymmetry_Pilot,2022.1.3,Win32,60.06727535,62c50e9c1127f2cd403a315f,,,,,,,space,1.1983,space,1.1692,space,10.3366,space,2.3836,space,0.5204,space,1.5722,"[0.09799999999999986,-0.24719999999999998,0.15280000000000005]",fourtwo,"[-0.0040000000000000036,0.02739999999999987,-0.08239999999999992]",-4,17.8848,-39,86,1,0,0,response7disk_5,-2,13,1,0,0,rectangle_8,136,-74,1,0,0,response3disk_7,5,2,9,-13,1,0,0,rectangle_4,0,0,0,0,1,,,,,,,,,,,,,,,,,,,,,,,,,,,,,,,,,,,,,,,,,,,,,,,,,,,,,,,,,,,,,,,,,,,,,,,,,,,,,,,,,,,,,,,,,,,,,,,,,,,,,,,,,,,,,
,,,,,,5f9c70519242e010e0f1c608,62c538e4e5224759483cd7f2,2022-07-06_09h25.34.340,Colour_Asymmetry_Pilot,2022.1.3,Win32,60.06727535,62c50e9c1127f2cd403a315f,,,,,,,,,,,,,,,,,,,"[0.3881999999999999,-0.23939999999999995,-0.05040000000000011]",onethree,"[-0.01980000000000004,-0.5138,-0.38039999999999996]",2,3.817,136,-57,1,0,0,response3disk_5,1,0,1,0,0,rectangle_8,1,0,1,0,0,,,2,1,0,1,0,0,,1,0,1,0,1,,,,,,,,,,,,,,,,,,,,,,,,,,,,,,,,,,,,,,,,,,,,,,,,,,,,,,,,,,,,,,,,,,,,,,,,,,,,,,,,,,,,,,,,,,,,,,,,,,,,,,,,,,,,,
,,,,,,5f9c70519242e010e0f1c608,62c538e4e5224759483cd7f2,2022-07-06_09h25.34.340,Colour_Asymmetry_Pilot,2022.1.3,Win32,60.06727535,62c50e9c1127f2cd403a315f,,,,,,,,,,,,,,,,,,,"[0.9842,0.7409999999999999,-0.6628000000000001]",fourtwo,"[-0.48240000000000005,0.3175999999999999,0.2156]",-4,1.6504,-39,60,1,0,0,response7disk_5,7,-10,1,0,0,rectangle_8,7,-10,1,0,0,,,2,7,-10,1,0,0,,2,0,2,0,1,,,,,,,,,,,,,,,,,,,,,,,,,,,,,,,,,,,,,,,,,,,,,,,,,,,,,,,,,,,,,,,,,,,,,,,,,,,,,,,,,,,,,,,,,,,,,,,,,,,,,,,,,,,,,
,,,,,,5f9c70519242e010e0f1c608,62c538e4e5224759483cd7f2,2022-07-06_09h25.34.340,Colour_Asymmetry_Pilot,2022.1.3,Win32,60.06727535,62c50e9c1127f2cd403a315f,,,,,,,,,,,,,,,,,,,"[-0.38039999999999996,-0.4276,-0.1452]",twoone,"[0.9372,0.20779999999999998,0.2704]",-4,1.0001,-49,66,1,0,0,response7disk_5,-5,-13,1,0,0,rectangle_8,-5,-13,1,0,0,,,2,-5,-13,1,0,0,,3,0,3,0,1,,,,,,,,,,,,,,,,,,,,,,,,,,,,,,,,,,,,,,,,,,,,,,,,,,,,,,,,,,,,,,,,,,,,,,,,,,,,,,,,,,,,,,,,,,,,,,,,,,,,,,,,,,,,,
,,,,,,5f9c70519242e010e0f1c608,62c538e4e5224759483cd7f2,2022-07-06_09h25.34.340,Colour_Asymmetry_Pilot,2022.1.3,Win32,60.06727535,62c50e9c1127f2cd403a315f,,,,,,,,,,,,,,,,,,,"[-0.2942,-0.7648,-0.7492000000000001]",twofour,"[0.796,0.2156,-0.27859999999999996]",-4,1.0668,-30,50,1,0,0,response7disk_5,9,-11,1,0,0,rectangle_8,9,-11,1,0,0,,,2,9,-11,1,0,0,,4,0,4,0,1,,,,,,,,,,,,,,,,,,,,,,,,,,,,,,,,,,,,,,,,,,,,,,,,,,,,,,,,,,,,,,,,,,,,,,,,,,,,,,,,,,,,,,,,,,,,,,,,,,,,,,,,,,,,,
,,,,,,5f9c70519242e010e0f1c608,62c538e4e5224759483cd7f2,2022-07-06_09h25.34.340,Colour_Asymmetry_Pilot,2022.1.3,Win32,60.06727535,62c50e9c1127f2cd403a315f,,,,,,,,,,,,,,,,,,,"[-0.9138,-0.5296000000000001,-0.5529999999999999]",onetwo,"[0.7018,0.7802,-0.16079999999999994]",-4,0.8667,-51,74,1,0,0,response7disk_5,-13,-15,1,0,0,rectangle_8,138,-60,1,0,0,response3disk_7,5,2,21,-7,1,0,0,rectangle_4,5,0,5,0,1,,,,,,,,,,,,,,,,,,,,,,,,,,,,,,,,,,,,,,,,,,,,,,,,,,,,,,,,,,,,,,,,,,,,,,,,,,,,,,,,,,,,,,,,,,,,,,,,,,,,,,,,,,,,,
,,,,,,5f9c70519242e010e0f1c608,62c538e4e5224759483cd7f2,2022-07-06_09h25.34.340,Colour_Asymmetry_Pilot,2022.1.3,Win32,60.06727535,62c50e9c1127f2cd403a315f,,,,,,,,,,,,,,,,,,,"[0.18419999999999992,-0.4276,-0.404]",twoone,"[0.11359999999999992,0.6312,0.5213999999999999]",-3,1.8499,-79,48,1,0,0,response7disk_5,37,-19,1,0,0,rectangle_8,37,-19,1,0,0,,,2,37,-19,1,0,0,,6,0,6,0,1,,,,,,,,,,,,,,,,,,,,,,,,,,,,,,,,,,,,,,,,,,,,,,,,,,,,,,,,,,,,,,,,,,,,,,,,,,,,,,,,,,,,,,,,,,,,,,,,,,,,,,,,,,,,,
,,,,,,5f9c70519242e010e0f1c608,62c538e4e5224759483cd7f2,2022-07-06_09h25.34.340,Colour_Asymmetry_Pilot,2022.1.3,Win32,60.06727535,62c50e9c1127f2cd403a315f,,,,,,,,,,,,,,,,,,,,threeone,,-3,0.833,,,,,,,,,,,,,,,,,,,,,,,,,,,,,,,,space,2.1738,"[0.34099999999999997,0.5841999999999998,-0.9844]","[0.12939999999999996,-0.2864,0.3253999999999999]",-50,48,1,0,0,response7disk,-16,-3,1,0,0,rectangle,-16,-3,1,0,0,,1,0.0009,0,-16,-3,1,0,0,0,0,0,102,1,21,second,,,,,,,,,,,,,,,,,,,,,,,,,,,,,,,,,,,,,,,,,,,,,,,,,,,,,,,,,,,,,,,,,,,,,,,,
,,,,,,5f9c70519242e010e0f1c608,62c538e4e5224759483cd7f2,2022-07-06_09h25.34.340,Colour_Asymmetry_Pilot,2022.1.3,Win32,60.06727535,62c50e9c1127f2cd403a315f,,,,,,,,,,,,,,,,,,,,onetwo,,2,1.2835,,,,,,,,,,,,,,,,,,,,,,,,,,,,,,,,,,"[0.7176,-0.906,-0.6864]","[-0.2942,-0.24719999999999998,-0.357]",127,-61,1,0,0,response3disk,-15,4,1,0,0,rectangle,-15,4,1,0,0,,3,0.0006,0,-15,4,1,0,0,0,1,1,140,1,59,second,,,,,,,,,,,,,,,,,,,,,,,,,,,,,,,,,,,,,,,,,,,,,,,,,,,,,,,,,,,,,,,,,,,,,,,,
,,,,,,5f9c70519242e010e0f1c608,62c538e4e5224759483cd7f2,2022-07-06_09h25.34.340,Colour_Asymmetry_Pilot,2022.1.3,Win32,60.06727535,62c50e9c1127f2cd403a315f,,,,,,,,,,,,,,,,,,,,twofour,,4,1.3168,,,,,,,,,,,,,,,,,,,,,,,,,,,,,,,,,,"[0.12939999999999996,-0.2864,0.3253999999999999]","[-0.24719999999999998,-0.0354000000000001,0.3175999999999999]",115,137,1,0,0,response1disk,7,-6,1,0,0,rectangle,148,-68,1,0,0,2,2,1.9505,1,1,-4,1,0,0,0,2,2,11,1,11,first,response3disk_3,rectangle,,,,,,,,,,,,,,,,,,,,,,,,,,,,,,,,,,,,,,,,,,,,,,,,,,,,,,,,,,,,,,,,,,,,,,
,,,,,,5f9c70519242e010e0f1c608,62c538e4e5224759483cd7f2,2022-07-06_09h25.34.340,Colour_Asymmetry_Pilot,2022.1.3,Win32,60.06727535,62c50e9c1127f2cd403a315f,,,,,,,,,,,,,,,,,,,,twofour,,2,1.1836,,,,,,,,,,,,,,,,,,,,,,,,,,,,,,,,,,"[0.2862,0.7802,0.3568]","[0.37240000000000006,0.4980000000000002,-0.2864]",109,-42,1,0,0,response3disk,12,-7,1,0,0,rectangle,12,-7,1,0,0,2,1,0.0007,0,12,-7,1,0,0,0,3,3,98,1,17,second,,,,,,,,,,,,,,,,,,,,,,,,,,,,,,,,,,,,,,,,,,,,,,,,,,,,,,,,,,,,,,,,,,,,,,,,
,,,,,,5f9c70519242e010e0f1c608,62c538e4e5224759483cd7f2,2022-07-06_09h25.34.340,Colour_Asymmetry_Pilot,2022.1.3,Win32,60.06727535,62c50e9c1127f2cd403a315f,,,,,,,,,,,,,,,,,,,,onethree,,-3,1.35,,,,,,,,,,,,,,,,,,,,,,,,,,,,,,,,,,"[-0.8118,-0.8198,-0.5452]","[0.3802000000000001,0.19199999999999995,-0.6394]",-50,29,1,0,0,response7disk,13,-21,1,0,0,rectangle,13,-21,1,0,0,2,1,0.0001,0,13,-21,1,0,0,0,4,4,42,1,42,first,,,,,,,,,,,,,,,,,,,,,,,,,,,,,,,,,,,,,,,,,,,,,,,,,,,,,,,,,,,,,,,,,,,,,,,,
,,,,,,5f9c70519242e010e0f1c608,62c538e4e5224759483cd7f2,2022-07-06_09h25.34.340,Colour_Asymmetry_Pilot,2022.1.3,Win32,60.06727535,62c50e9c1127f2cd403a315f,,,,,,,,,,,,,,,,,,,,fourtwo,,-4,1.1502,,,,,,,,,,,,,,,,,,,,,,,,,,,,,,,,,,"[-0.20799999999999996,-0.655,-0.01980000000000004]","[-0.17659999999999998,0.3253999999999999,0.19999999999999996]",-42,80,1,0,0,response7disk,19,-18,1,0,0,rectangle,19,-18,1,0,0,2,1,0.0002,0,19,-18,1,0,0,0,5,5,96,1,15,second,,,,,,,,,,,,,,,,,,,,,,,,,,,,,,,,,,,,,,,,,,,,,,,,,,,,,,,,,,,,,,,,,,,,,,,,
,,,,,,5f9c70519242e010e0f1c608,62c538e4e5224759483cd7f2,2022-07-06_09h25.34.340,Colour_Asymmetry_Pilot,2022.1.3,Win32,60.06727535,62c50e9c1127f2cd403a315f,,,,,,,,,,,,,,,,,,,,onetwo,,-3,1.1667,,,,,,,,,,,,,,,,,,,,,,,,,,,,,,,,,,"[-0.8198,-0.5138,-0.7492000000000001]","[0.05879999999999996,0.2784,0.5841999999999998]",-69,32,1,0,0,response7disk,21,-16,1,0,0,rectangle,21,-16,1,0,0,2,3,0.0005,0,21,-16,1,0,0,0,6,6,88,1,7,second,,,,,,,,,,,,,,,,,,,,,,,,,,,,,,,,,,,,,,,,,,,,,,,,,,,,,,,,,,,,,,,,,,,,,,,,
,,,,,,5f9c70519242e010e0f1c608,62c538e4e5224759483cd7f2,2022-07-06_09h25.34.340,Colour_Asymmetry_Pilot,2022.1.3,Win32,60.06727535,62c50e9c1127f2cd403a315f,,,,,,,,,,,,,,,,,,,,onetwo,,3,0.5668,,,,,,,,,,,,,,,,,,,,,,,,,,,,,,,,,,"[0.8115999999999999,-0.0040000000000000036,-0.09819999999999995]","[0.796,0.2156,-0.27859999999999996]",112,80,1,0,0,response1disk,-4,-9,1,0,0,rectangle,-4,-9,1,0,0,2,3,0.0002,0,-4,-9,1,0,0,0,7,7,2,1,2,first,,,,,,,,,,,,,,,,,,,,,,,,,,,,,,,,,,,,,,,,,,,,,,,,,,,,,,,,,,,,,,,,,,,,,,,,
,,,,,,5f9c70519242e010e0f1c608,62c538e4e5224759483cd7f2,2022-07-06_09h25.34.340,Colour_Asymmetry_Pilot,2022.1.3,Win32,60.06727535,62c50e9c1127f2cd403a315f,,,,,,,,,,,,,,,,,,,,onethree,,-4,1.5335,,,,,,,,,,,,,,,,,,,,,,,,,,,,,,,,,,"[0.9763999999999999,-0.1137999999999999,-0.6314]","[0.7018,0.7176,0.6155999999999999]",-30,32,1,0,0,response7disk,16,-3,1,0,0,rectangle,16,-3,1,0,0,2,2,0.0006,0,16,-3,1,0,0,0,8,8,14,1,14,first,,,,,,,,,,,,,,,,,,,,,,,,,,,,,,,,,,,,,,,,,,,,,,,,,,,,,,,,,,,,,,,,,,,,,,,,
,,,,,,5f9c70519242e010e0f1c608,62c538e4e5224759483cd7f2,2022-07-06_09h25.34.340,Colour_Asymmetry_Pilot,2022.1.3,Win32,60.06727535,62c50e9c1127f2cd403a315f,,,,,,,,,,,,,,,,,,,,onethree,,-2,1.1834,,,,,,,,,,,,,,,,,,,,,,,,,,,,,,,,,,"[0.09799999999999986,-0.24719999999999998,0.15280000000000005]","[-0.6706000000000001,-0.6157999999999999,-0.6786]",-47,-38,1,0,0,response5disk,12,-5,1,0,0,rectangle,12,-5,1,0,0,2,1,0.0005,0,12,-5,1,0,0,0,9,9,157,1,76,second,,,,,,,,,,,,,,,,,,,,,,,,,,,,,,,,,,,,,,,,,,,,,,,,,,,,,,,,,,,,,,,,,,,,,,,,
,,,,,,5f9c70519242e010e0f1c608,62c538e4e5224759483cd7f2,2022-07-06_09h25.34.340,Colour_Asymmetry_Pilot,2022.1.3,Win32,60.06727535,62c50e9c1127f2cd403a315f,,,,,,,,,,,,,,,,,,,,twofour,,-4,0.5667,,,,,,,,,,,,,,,,,,,,,,,,,,,,,,,,,,"[0.05879999999999996,0.2784,0.5841999999999998]","[-0.8198,-0.5138,-0.7492000000000001]",-36,118,1,0,0,response7disk,19,-9,1,0,0,rectangle,19,-9,1,0,0,2,1,0,0,19,-9,1,0,0,0,10,10,7,1,7,first,,,,,,,,,,,,,,,,,,,,,,,,,,,,,,,,,,,,,,,,,,,,,,,,,,,,,,,,,,,,,,,,,,,,,,,,
,,,,,,5f9c70519242e010e0f1c608,62c538e4e5224759483cd7f2,2022-07-06_09h25.34.340,Colour_Asymmetry_Pilot,2022.1.3,Win32,60.06727535,62c50e9c1127f2cd403a315f,,,,,,,,,,,,,,,,,,,,onethree,,3,0.85,,,,,,,,,,,,,,,,,,,,,,,,,,,,,,,,,,"[-0.6706000000000001,-0.6157999999999999,-0.6786]","[-0.26280000000000003,-0.2158,-0.3256]",67,29,1,0,0,response1disk,6,-5,1,0,0,rectangle,6,-5,1,0,0,2,2,0.0005,0,6,-5,1,0,0,0,11,11,31,1,31,first,,,,,,,,,,,,,,,,,,,,,,,,,,,,,,,,,,,,,,,,,,,,,,,,,,,,,,,,,,,,,,,,,,,,,,,,
,,,,,,5f9c70519242e010e0f1c608,62c538e4e5224759483cd7f2,2022-07-06_09h25.34.340,Colour_Asymmetry_Pilot,2022.1.3,Win32,60.06727535,62c50e9c1127f2cd403a315f,,,,,,,,,,,,,,,,,,,,threeone,,1,1.417,,,,,,,,,,,,,,,,,,,,,,,,,,,,,,,,,,"[-0.45899999999999996,-0.3256,-0.9374]","[0.796,0.2156,-0.27859999999999996]",62,-81,1,0,0,response3disk,9,16,1,0,0,rectangle,9,16,1,0,0,2,2,0.0001,0,9,16,1,0,0,0,12,12,49,1,49,first,,,,,,,,,,,,,,,,,,,,,,,,,,,,,,,,,,,,,,,,,,,,,,,,,,,,,,,,,,,,,,,,,,,,,,,,
,,,,,,5f9c70519242e010e0f1c608,62c538e4e5224759483cd7f2,2022-07-06_09h25.34.340,Colour_Asymmetry_Pilot,2022.1.3,Win32,60.06727535,62c50e9c1127f2cd403a315f,,,,,,,,,,,,,,,,,,,,twoone,,2,1.6333,,,,,,,,,,,,,,,,,,,,,,,,,,,,,,,,,,"[0.09799999999999986,-0.24719999999999998,0.15280000000000005]","[-0.0040000000000000036,0.02739999999999987,-0.08239999999999992]",37,-25,1,0,0,response3disk,11,7,1,0,0,rectangle,11,7,1,0,0,2,3,0.0006,0,11,7,1,0,0,0,13,13,29,1,29,first,,,,,,,,,,,,,,,,,,,,,,,,,,,,,,,,,,,,,,,,,,,,,,,,,,,,,,,,,,,,,,,,,,,,,,,,
,,,,,,5f9c70519242e010e0f1c608,62c538e4e5224759483cd7f2,2022-07-06_09h25.34.340,Colour_Asymmetry_Pilot,2022.1.3,Win32,60.06727535,62c50e9c1127f2cd403a315f,,,,,,,,,,,,,,,,,,,,threeone,,-4,0.6996,,,,,,,,,,,,,,,,,,,,,,,,,,,,,,,,,,"[-0.9766,-0.34920000000000007,0.2156]","[-0.17659999999999998,-0.2864,-0.8354]",-50,87,1,0,0,response7disk,-14,-5,1,0,0,rectangle,-14,-5,1,0,0,2,1,0.0011,0,-14,-5,1,0,0,0,14,14,61,1,61,first,,,,,,,,,,,,,,,,,,,,,,,,,,,,,,,,,,,,,,,,,,,,,,,,,,,,,,,,,,,,,,,,,,,,,,,,
,,,,,,5f9c70519242e010e0f1c608,62c538e4e5224759483cd7f2,2022-07-06_09h25.34.340,Colour_Asymmetry_Pilot,2022.1.3,Win32,60.06727535,62c50e9c1127f2cd403a315f,,,,,,,,,,,,,,,,,,,,twoone,,2,0.8334,,,,,,,,,,,,,,,,,,,,,,,,,,,,,,,,,,"[-0.26280000000000003,-0.2158,-0.3256]","[-0.6706000000000001,-0.6157999999999999,-0.6786]",91,-26,1,0,0,response3disk,17,8,1,0,0,rectangle,17,8,1,0,0,2,2,0.0005,0,17,8,1,0,0,0,15,15,112,1,31,second,,,,,,,,,,,,,,,,,,,,,,,,,,,,,,,,,,,,,,,,,,,,,,,,,,,,,,,,,,,,,,,,,,,,,,,,
,,,,,,5f9c70519242e010e0f1c608,62c538e4e5224759483cd7f2,2022-07-06_09h25.34.340,Colour_Asymmetry_Pilot,2022.1.3,Win32,60.06727535,62c50e9c1127f2cd403a315f,,,,,,,,,,,,,,,,,,,,twoone,,-1,3.6168,,,,,,,,,,,,,,,,,,,,,,,,,,,,,,,,,,"[-0.10599999999999998,-0.15300000000000002,0.15280000000000005]","[0.0351999999999999,0.41159999999999997,0.0038000000000000256]",-29,-32,1,0,0,response5disk,-16,-9,1,0,0,rectangle,-16,-9,1,0,0,2,1,0.0005,0,-16,-9,1,0,0,0,16,16,52,1,52,first,,,,,,,,,,,,,,,,,,,,,,,,,,,,,,,,,,,,,,,,,,,,,,,,,,,,,,,,,,,,,,,,,,,,,,,,
,,,,,,5f9c70519242e010e0f1c608,62c538e4e5224759483cd7f2,2022-07-06_09h25.34.340,Colour_Asymmetry_Pilot,2022.1.3,Win32,60.06727535,62c50e9c1127f2cd403a315f,,,,,,,,,,,,,,,,,,,,threeone,,-3,0.5334,,,,,,,,,,,,,,,,,,,,,,,,,,,,,,,,,,"[-0.6706000000000001,-0.6157999999999999,-0.6786]","[0.09799999999999986,-0.24719999999999998,0.15280000000000005]",-74,56,1,0,0,response7disk,18,-15,1,0,0,rectangle,24,-106,1,0,0,1,1,1.6839,1,-8,-4,1,0,0,0,17,17,76,1,76,first,response3disk_3,rectangle,,,,,,,,,,,,,,,,,,,,,,,,,,,,,,,,,,,,,,,,,,,,,,,,,,,,,,,,,,,,,,,,,,,,,,
