trials.thisRepN,trials.thisTrialN,trials.thisN,trials.thisIndex,trials.ran,Colourcodes,participant,session,date,expName,psychopyVersion,OS,frameRate,study_id,trials_4.thisRepN,trials_4.thisTrialN,trials_4.thisN,trials_4.thisIndex,trials_4.ran,StimulusPos,key_resp.keys,key_resp.rt,key_resp_2.keys,key_resp_2.rt,key_resp_15.keys,key_resp_15.rt,key_resp_17.keys,key_resp_17.rt,key_resp_9.keys,key_resp_9.rt,key_resp_10.keys,key_resp_10.rt,Circle1_col,Ecc,Circle2_col,similarity,response_time,mouse_5.x,mouse_5.y,mouse_5.leftButton,mouse_5.midButton,mouse_5.rightButton,mouse_5.clicked_name,mouse_10.x,mouse_10.y,mouse_10.leftButton,mouse_10.midButton,mouse_10.rightButton,mouse_10.clicked_name,mouse_7.x,mouse_7.y,mouse_7.leftButton,mouse_7.midButton,mouse_7.rightButton,catchnumberprac,mouse_6.x,mouse_6.y,mouse_6.leftButton,mouse_6.midButton,mouse_6.rightButton,duringprac.thisRepN,duringprac.thisTrialN,duringprac.thisN,duringprac.thisIndex,duringprac.ran,mouse_7.clicked_name,catchprac,mouse_6.clicked_name,key_resp_22.keys,key_resp_22.rt,Circle1_colour,Circle2_colour,mouse.x,mouse.y,mouse.leftButton,mouse.midButton,mouse.rightButton,mouse.clicked_name,mouse_2.x,mouse_2.y,mouse_2.leftButton,mouse_2.midButton,mouse_2.rightButton,mouse_2.clicked_name,mouse_3.x,mouse_3.y,mouse_3.leftButton,mouse_3.midButton,mouse_3.rightButton,catchresponse,catchnumber,response_time_catch,Catch,mouse_11.x,mouse_11.y,mouse_11.leftButton,mouse_11.midButton,mouse_11.rightButton,trials_2.thisRepN,trials_2.thisTrialN,trials_2.thisN,trials_2.thisIndex,trials_2.ran,Colourpair,Temporder,mouse_3.clicked_name,mouse_11.clicked_name,trials_3.thisRepN,trials_3.thisTrialN,trials_3.thisN,trials_3.thisIndex,trials_3.ran,key_resp_instr_Ishi.keys,key_resp_instr_Ishi.rt,Ishi_trial_keyresp.keys,Ishi_textbox.text,Ishi_mouse.x,Ishi_mouse.y,Ishi_mouse.leftButton,Ishi_mouse.midButton,Ishi_mouse.rightButton,Ishi_mouse.clicked_name,Ishi_loop.thisRepN,Ishi_loop.thisTrialN,Ishi_loop.thisN,Ishi_loop.thisIndex,Ishi_loop.ran,imageaddress,textbox.text,mouse_4.x,mouse_4.y,mouse_4.leftButton,mouse_4.midButton,mouse_4.rightButton,mouse_4.clicked_name,textbox_2.text,mouse_8.x,mouse_8.y,mouse_8.leftButton,mouse_8.midButton,mouse_8.rightButton,mouse_8.clicked_name,textbox_3.text,mouse_9.x,mouse_9.y,mouse_9.leftButton,mouse_9.midButton,mouse_9.rightButton,mouse_9.clicked_name,textbox_4.text,mouse_12.x,mouse_12.y,mouse_12.leftButton,mouse_12.midButton,mouse_12.rightButton,mouse_12.clicked_name,textbox_5.text,mouse_13.x,mouse_13.y,mouse_13.leftButton,mouse_13.midButton,mouse_13.rightButton,mouse_13.clicked_name,textbox_6.text,mouse_14.x,mouse_14.y,mouse_14.leftButton,mouse_14.midButton,mouse_14.rightButton,mouse_14.clicked_name,textbox_7.text,mouse_15.x,mouse_15.y,mouse_15.leftButton,mouse_15.midButton,mouse_15.rightButton,mouse_15.clicked_name
0,0,0,5,1,,58c62eac444ade00010231a9,62c53f83ff7fb3d324c36677,2022-07-06_09h54.06.867,Colour_Asymmetry_Pilot,2022.1.3,Win32,59.9268892,62c50e9c1127f2cd403a315f,,,,,,,,,,,,,,,,,,,,,,,,,,,,,,,,,,,,,,,,,,,,,,,,,,,,,,,,,,,,,,,,,,,,,,,,,,,,,,,,,,,,,,,,,,,,,,,,,,,,,,,,,,,,,,,,,,,,,,,,,,,,,,,,,,,,,,,,,,,,,,,,,,,,,,,,,,,,,,,,,,,
0,1,1,18,1,,58c62eac444ade00010231a9,62c53f83ff7fb3d324c36677,2022-07-06_09h54.06.867,Colour_Asymmetry_Pilot,2022.1.3,Win32,59.9268892,62c50e9c1127f2cd403a315f,,,,,,,,,,,,,,,,,,,,,,,,,,,,,,,,,,,,,,,,,,,,,,,,,,,,,,,,,,,,,,,,,,,,,,,,,,,,,,,,,,,,,,,,,,,,,,,,,,,,,,,,,,,,,,,,,,,,,,,,,,,,,,,,,,,,,,,,,,,,,,,,,,,,,,,,,,,,,,,,,,,
0,2,2,42,1,,58c62eac444ade00010231a9,62c53f83ff7fb3d324c36677,2022-07-06_09h54.06.867,Colour_Asymmetry_Pilot,2022.1.3,Win32,59.9268892,62c50e9c1127f2cd403a315f,,,,,,,,,,,,,,,,,,,,,,,,,,,,,,,,,,,,,,,,,,,,,,,,,,,,,,,,,,,,,,,,,,,,,,,,,,,,,,,,,,,,,,,,,,,,,,,,,,,,,,,,,,,,,,,,,,,,,,,,,,,,,,,,,,,,,,,,,,,,,,,,,,,,,,,,,,,,,,,,,,,
0,3,3,36,1,,58c62eac444ade00010231a9,62c53f83ff7fb3d324c36677,2022-07-06_09h54.06.867,Colour_Asymmetry_Pilot,2022.1.3,Win32,59.9268892,62c50e9c1127f2cd403a315f,,,,,,,,,,,,,,,,,,,,,,,,,,,,,,,,,,,,,,,,,,,,,,,,,,,,,,,,,,,,,,,,,,,,,,,,,,,,,,,,,,,,,,,,,,,,,,,,,,,,,,,,,,,,,,,,,,,,,,,,,,,,,,,,,,,,,,,,,,,,,,,,,,,,,,,,,,,,,,,,,,,
0,4,4,38,1,,58c62eac444ade00010231a9,62c53f83ff7fb3d324c36677,2022-07-06_09h54.06.867,Colour_Asymmetry_Pilot,2022.1.3,Win32,59.9268892,62c50e9c1127f2cd403a315f,,,,,,,,,,,,,,,,,,,,,,,,,,,,,,,,,,,,,,,,,,,,,,,,,,,,,,,,,,,,,,,,,,,,,,,,,,,,,,,,,,,,,,,,,,,,,,,,,,,,,,,,,,,,,,,,,,,,,,,,,,,,,,,,,,,,,,,,,,,,,,,,,,,,,,,,,,,,,,,,,,,
0,5,5,35,1,,58c62eac444ade00010231a9,62c53f83ff7fb3d324c36677,2022-07-06_09h54.06.867,Colour_Asymmetry_Pilot,2022.1.3,Win32,59.9268892,62c50e9c1127f2cd403a315f,,,,,,,,,,,,,,,,,,,,,,,,,,,,,,,,,,,,,,,,,,,,,,,,,,,,,,,,,,,,,,,,,,,,,,,,,,,,,,,,,,,,,,,,,,,,,,,,,,,,,,,,,,,,,,,,,,,,,,,,,,,,,,,,,,,,,,,,,,,,,,,,,,,,,,,,,,,,,,,,,,,
0,6,6,61,1,,58c62eac444ade00010231a9,62c53f83ff7fb3d324c36677,2022-07-06_09h54.06.867,Colour_Asymmetry_Pilot,2022.1.3,Win32,59.9268892,62c50e9c1127f2cd403a315f,,,,,,,,,,,,,,,,,,,,,,,,,,,,,,,,,,,,,,,,,,,,,,,,,,,,,,,,,,,,,,,,,,,,,,,,,,,,,,,,,,,,,,,,,,,,,,,,,,,,,,,,,,,,,,,,,,,,,,,,,,,,,,,,,,,,,,,,,,,,,,,,,,,,,,,,,,,,,,,,,,,
0,7,7,58,1,,58c62eac444ade00010231a9,62c53f83ff7fb3d324c36677,2022-07-06_09h54.06.867,Colour_Asymmetry_Pilot,2022.1.3,Win32,59.9268892,62c50e9c1127f2cd403a315f,,,,,,,,,,,,,,,,,,,,,,,,,,,,,,,,,,,,,,,,,,,,,,,,,,,,,,,,,,,,,,,,,,,,,,,,,,,,,,,,,,,,,,,,,,,,,,,,,,,,,,,,,,,,,,,,,,,,,,,,,,,,,,,,,,,,,,,,,,,,,,,,,,,,,,,,,,,,,,,,,,,
0,8,8,73,1,,58c62eac444ade00010231a9,62c53f83ff7fb3d324c36677,2022-07-06_09h54.06.867,Colour_Asymmetry_Pilot,2022.1.3,Win32,59.9268892,62c50e9c1127f2cd403a315f,,,,,,,,,,,,,,,,,,,,,,,,,,,,,,,,,,,,,,,,,,,,,,,,,,,,,,,,,,,,,,,,,,,,,,,,,,,,,,,,,,,,,,,,,,,,,,,,,,,,,,,,,,,,,,,,,,,,,,,,,,,,,,,,,,,,,,,,,,,,,,,,,,,,,,,,,,,,,,,,,,,
0,9,9,25,1,,58c62eac444ade00010231a9,62c53f83ff7fb3d324c36677,2022-07-06_09h54.06.867,Colour_Asymmetry_Pilot,2022.1.3,Win32,59.9268892,62c50e9c1127f2cd403a315f,,,,,,,,,,,,,,,,,,,,,,,,,,,,,,,,,,,,,,,,,,,,,,,,,,,,,,,,,,,,,,,,,,,,,,,,,,,,,,,,,,,,,,,,,,,,,,,,,,,,,,,,,,,,,,,,,,,,,,,,,,,,,,,,,,,,,,,,,,,,,,,,,,,,,,,,,,,,,,,,,,,
0,10,10,92,1,,58c62eac444ade00010231a9,62c53f83ff7fb3d324c36677,2022-07-06_09h54.06.867,Colour_Asymmetry_Pilot,2022.1.3,Win32,59.9268892,62c50e9c1127f2cd403a315f,,,,,,,,,,,,,,,,,,,,,,,,,,,,,,,,,,,,,,,,,,,,,,,,,,,,,,,,,,,,,,,,,,,,,,,,,,,,,,,,,,,,,,,,,,,,,,,,,,,,,,,,,,,,,,,,,,,,,,,,,,,,,,,,,,,,,,,,,,,,,,,,,,,,,,,,,,,,,,,,,,,
0,11,11,60,1,,58c62eac444ade00010231a9,62c53f83ff7fb3d324c36677,2022-07-06_09h54.06.867,Colour_Asymmetry_Pilot,2022.1.3,Win32,59.9268892,62c50e9c1127f2cd403a315f,,,,,,,,,,,,,,,,,,,,,,,,,,,,,,,,,,,,,,,,,,,,,,,,,,,,,,,,,,,,,,,,,,,,,,,,,,,,,,,,,,,,,,,,,,,,,,,,,,,,,,,,,,,,,,,,,,,,,,,,,,,,,,,,,,,,,,,,,,,,,,,,,,,,,,,,,,,,,,,,,,,
0,12,12,90,1,,58c62eac444ade00010231a9,62c53f83ff7fb3d324c36677,2022-07-06_09h54.06.867,Colour_Asymmetry_Pilot,2022.1.3,Win32,59.9268892,62c50e9c1127f2cd403a315f,,,,,,,,,,,,,,,,,,,,,,,,,,,,,,,,,,,,,,,,,,,,,,,,,,,,,,,,,,,,,,,,,,,,,,,,,,,,,,,,,,,,,,,,,,,,,,,,,,,,,,,,,,,,,,,,,,,,,,,,,,,,,,,,,,,,,,,,,,,,,,,,,,,,,,,,,,,,,,,,,,,
0,13,13,3,1,,58c62eac444ade00010231a9,62c53f83ff7fb3d324c36677,2022-07-06_09h54.06.867,Colour_Asymmetry_Pilot,2022.1.3,Win32,59.9268892,62c50e9c1127f2cd403a315f,,,,,,,,,,,,,,,,,,,,,,,,,,,,,,,,,,,,,,,,,,,,,,,,,,,,,,,,,,,,,,,,,,,,,,,,,,,,,,,,,,,,,,,,,,,,,,,,,,,,,,,,,,,,,,,,,,,,,,,,,,,,,,,,,,,,,,,,,,,,,,,,,,,,,,,,,,,,,,,,,,,
0,14,14,11,1,,58c62eac444ade00010231a9,62c53f83ff7fb3d324c36677,2022-07-06_09h54.06.867,Colour_Asymmetry_Pilot,2022.1.3,Win32,59.9268892,62c50e9c1127f2cd403a315f,,,,,,,,,,,,,,,,,,,,,,,,,,,,,,,,,,,,,,,,,,,,,,,,,,,,,,,,,,,,,,,,,,,,,,,,,,,,,,,,,,,,,,,,,,,,,,,,,,,,,,,,,,,,,,,,,,,,,,,,,,,,,,,,,,,,,,,,,,,,,,,,,,,,,,,,,,,,,,,,,,,
0,15,15,7,1,,58c62eac444ade00010231a9,62c53f83ff7fb3d324c36677,2022-07-06_09h54.06.867,Colour_Asymmetry_Pilot,2022.1.3,Win32,59.9268892,62c50e9c1127f2cd403a315f,,,,,,,,,,,,,,,,,,,,,,,,,,,,,,,,,,,,,,,,,,,,,,,,,,,,,,,,,,,,,,,,,,,,,,,,,,,,,,,,,,,,,,,,,,,,,,,,,,,,,,,,,,,,,,,,,,,,,,,,,,,,,,,,,,,,,,,,,,,,,,,,,,,,,,,,,,,,,,,,,,,
0,16,16,10,1,,58c62eac444ade00010231a9,62c53f83ff7fb3d324c36677,2022-07-06_09h54.06.867,Colour_Asymmetry_Pilot,2022.1.3,Win32,59.9268892,62c50e9c1127f2cd403a315f,,,,,,,,,,,,,,,,,,,,,,,,,,,,,,,,,,,,,,,,,,,,,,,,,,,,,,,,,,,,,,,,,,,,,,,,,,,,,,,,,,,,,,,,,,,,,,,,,,,,,,,,,,,,,,,,,,,,,,,,,,,,,,,,,,,,,,,,,,,,,,,,,,,,,,,,,,,,,,,,,,,
0,17,17,23,1,,58c62eac444ade00010231a9,62c53f83ff7fb3d324c36677,2022-07-06_09h54.06.867,Colour_Asymmetry_Pilot,2022.1.3,Win32,59.9268892,62c50e9c1127f2cd403a315f,,,,,,,,,,,,,,,,,,,,,,,,,,,,,,,,,,,,,,,,,,,,,,,,,,,,,,,,,,,,,,,,,,,,,,,,,,,,,,,,,,,,,,,,,,,,,,,,,,,,,,,,,,,,,,,,,,,,,,,,,,,,,,,,,,,,,,,,,,,,,,,,,,,,,,,,,,,,,,,,,,,
0,18,18,63,1,,58c62eac444ade00010231a9,62c53f83ff7fb3d324c36677,2022-07-06_09h54.06.867,Colour_Asymmetry_Pilot,2022.1.3,Win32,59.9268892,62c50e9c1127f2cd403a315f,,,,,,,,,,,,,,,,,,,,,,,,,,,,,,,,,,,,,,,,,,,,,,,,,,,,,,,,,,,,,,,,,,,,,,,,,,,,,,,,,,,,,,,,,,,,,,,,,,,,,,,,,,,,,,,,,,,,,,,,,,,,,,,,,,,,,,,,,,,,,,,,,,,,,,,,,,,,,,,,,,,
0,19,19,4,1,,58c62eac444ade00010231a9,62c53f83ff7fb3d324c36677,2022-07-06_09h54.06.867,Colour_Asymmetry_Pilot,2022.1.3,Win32,59.9268892,62c50e9c1127f2cd403a315f,,,,,,,,,,,,,,,,,,,,,,,,,,,,,,,,,,,,,,,,,,,,,,,,,,,,,,,,,,,,,,,,,,,,,,,,,,,,,,,,,,,,,,,,,,,,,,,,,,,,,,,,,,,,,,,,,,,,,,,,,,,,,,,,,,,,,,,,,,,,,,,,,,,,,,,,,,,,,,,,,,,
0,20,20,13,1,,58c62eac444ade00010231a9,62c53f83ff7fb3d324c36677,2022-07-06_09h54.06.867,Colour_Asymmetry_Pilot,2022.1.3,Win32,59.9268892,62c50e9c1127f2cd403a315f,,,,,,,,,,,,,,,,,,,,,,,,,,,,,,,,,,,,,,,,,,,,,,,,,,,,,,,,,,,,,,,,,,,,,,,,,,,,,,,,,,,,,,,,,,,,,,,,,,,,,,,,,,,,,,,,,,,,,,,,,,,,,,,,,,,,,,,,,,,,,,,,,,,,,,,,,,,,,,,,,,,
0,21,21,20,1,,58c62eac444ade00010231a9,62c53f83ff7fb3d324c36677,2022-07-06_09h54.06.867,Colour_Asymmetry_Pilot,2022.1.3,Win32,59.9268892,62c50e9c1127f2cd403a315f,,,,,,,,,,,,,,,,,,,,,,,,,,,,,,,,,,,,,,,,,,,,,,,,,,,,,,,,,,,,,,,,,,,,,,,,,,,,,,,,,,,,,,,,,,,,,,,,,,,,,,,,,,,,,,,,,,,,,,,,,,,,,,,,,,,,,,,,,,,,,,,,,,,,,,,,,,,,,,,,,,,
0,22,22,39,1,,58c62eac444ade00010231a9,62c53f83ff7fb3d324c36677,2022-07-06_09h54.06.867,Colour_Asymmetry_Pilot,2022.1.3,Win32,59.9268892,62c50e9c1127f2cd403a315f,,,,,,,,,,,,,,,,,,,,,,,,,,,,,,,,,,,,,,,,,,,,,,,,,,,,,,,,,,,,,,,,,,,,,,,,,,,,,,,,,,,,,,,,,,,,,,,,,,,,,,,,,,,,,,,,,,,,,,,,,,,,,,,,,,,,,,,,,,,,,,,,,,,,,,,,,,,,,,,,,,,
0,23,23,56,1,,58c62eac444ade00010231a9,62c53f83ff7fb3d324c36677,2022-07-06_09h54.06.867,Colour_Asymmetry_Pilot,2022.1.3,Win32,59.9268892,62c50e9c1127f2cd403a315f,,,,,,,,,,,,,,,,,,,,,,,,,,,,,,,,,,,,,,,,,,,,,,,,,,,,,,,,,,,,,,,,,,,,,,,,,,,,,,,,,,,,,,,,,,,,,,,,,,,,,,,,,,,,,,,,,,,,,,,,,,,,,,,,,,,,,,,,,,,,,,,,,,,,,,,,,,,,,,,,,,,
0,24,24,54,1,,58c62eac444ade00010231a9,62c53f83ff7fb3d324c36677,2022-07-06_09h54.06.867,Colour_Asymmetry_Pilot,2022.1.3,Win32,59.9268892,62c50e9c1127f2cd403a315f,,,,,,,,,,,,,,,,,,,,,,,,,,,,,,,,,,,,,,,,,,,,,,,,,,,,,,,,,,,,,,,,,,,,,,,,,,,,,,,,,,,,,,,,,,,,,,,,,,,,,,,,,,,,,,,,,,,,,,,,,,,,,,,,,,,,,,,,,,,,,,,,,,,,,,,,,,,,,,,,,,,
0,25,25,33,1,,58c62eac444ade00010231a9,62c53f83ff7fb3d324c36677,2022-07-06_09h54.06.867,Colour_Asymmetry_Pilot,2022.1.3,Win32,59.9268892,62c50e9c1127f2cd403a315f,,,,,,,,,,,,,,,,,,,,,,,,,,,,,,,,,,,,,,,,,,,,,,,,,,,,,,,,,,,,,,,,,,,,,,,,,,,,,,,,,,,,,,,,,,,,,,,,,,,,,,,,,,,,,,,,,,,,,,,,,,,,,,,,,,,,,,,,,,,,,,,,,,,,,,,,,,,,,,,,,,,
0,26,26,82,1,,58c62eac444ade00010231a9,62c53f83ff7fb3d324c36677,2022-07-06_09h54.06.867,Colour_Asymmetry_Pilot,2022.1.3,Win32,59.9268892,62c50e9c1127f2cd403a315f,,,,,,,,,,,,,,,,,,,,,,,,,,,,,,,,,,,,,,,,,,,,,,,,,,,,,,,,,,,,,,,,,,,,,,,,,,,,,,,,,,,,,,,,,,,,,,,,,,,,,,,,,,,,,,,,,,,,,,,,,,,,,,,,,,,,,,,,,,,,,,,,,,,,,,,,,,,,,,,,,,,
0,27,27,50,1,,58c62eac444ade00010231a9,62c53f83ff7fb3d324c36677,2022-07-06_09h54.06.867,Colour_Asymmetry_Pilot,2022.1.3,Win32,59.9268892,62c50e9c1127f2cd403a315f,,,,,,,,,,,,,,,,,,,,,,,,,,,,,,,,,,,,,,,,,,,,,,,,,,,,,,,,,,,,,,,,,,,,,,,,,,,,,,,,,,,,,,,,,,,,,,,,,,,,,,,,,,,,,,,,,,,,,,,,,,,,,,,,,,,,,,,,,,,,,,,,,,,,,,,,,,,,,,,,,,,
0,28,28,91,1,,58c62eac444ade00010231a9,62c53f83ff7fb3d324c36677,2022-07-06_09h54.06.867,Colour_Asymmetry_Pilot,2022.1.3,Win32,59.9268892,62c50e9c1127f2cd403a315f,,,,,,,,,,,,,,,,,,,,,,,,,,,,,,,,,,,,,,,,,,,,,,,,,,,,,,,,,,,,,,,,,,,,,,,,,,,,,,,,,,,,,,,,,,,,,,,,,,,,,,,,,,,,,,,,,,,,,,,,,,,,,,,,,,,,,,,,,,,,,,,,,,,,,,,,,,,,,,,,,,,
0,29,29,32,1,,58c62eac444ade00010231a9,62c53f83ff7fb3d324c36677,2022-07-06_09h54.06.867,Colour_Asymmetry_Pilot,2022.1.3,Win32,59.9268892,62c50e9c1127f2cd403a315f,,,,,,,,,,,,,,,,,,,,,,,,,,,,,,,,,,,,,,,,,,,,,,,,,,,,,,,,,,,,,,,,,,,,,,,,,,,,,,,,,,,,,,,,,,,,,,,,,,,,,,,,,,,,,,,,,,,,,,,,,,,,,,,,,,,,,,,,,,,,,,,,,,,,,,,,,,,,,,,,,,,
0,30,30,37,1,,58c62eac444ade00010231a9,62c53f83ff7fb3d324c36677,2022-07-06_09h54.06.867,Colour_Asymmetry_Pilot,2022.1.3,Win32,59.9268892,62c50e9c1127f2cd403a315f,,,,,,,,,,,,,,,,,,,,,,,,,,,,,,,,,,,,,,,,,,,,,,,,,,,,,,,,,,,,,,,,,,,,,,,,,,,,,,,,,,,,,,,,,,,,,,,,,,,,,,,,,,,,,,,,,,,,,,,,,,,,,,,,,,,,,,,,,,,,,,,,,,,,,,,,,,,,,,,,,,,
0,31,31,78,1,,58c62eac444ade00010231a9,62c53f83ff7fb3d324c36677,2022-07-06_09h54.06.867,Colour_Asymmetry_Pilot,2022.1.3,Win32,59.9268892,62c50e9c1127f2cd403a315f,,,,,,,,,,,,,,,,,,,,,,,,,,,,,,,,,,,,,,,,,,,,,,,,,,,,,,,,,,,,,,,,,,,,,,,,,,,,,,,,,,,,,,,,,,,,,,,,,,,,,,,,,,,,,,,,,,,,,,,,,,,,,,,,,,,,,,,,,,,,,,,,,,,,,,,,,,,,,,,,,,,
0,32,32,14,1,,58c62eac444ade00010231a9,62c53f83ff7fb3d324c36677,2022-07-06_09h54.06.867,Colour_Asymmetry_Pilot,2022.1.3,Win32,59.9268892,62c50e9c1127f2cd403a315f,,,,,,,,,,,,,,,,,,,,,,,,,,,,,,,,,,,,,,,,,,,,,,,,,,,,,,,,,,,,,,,,,,,,,,,,,,,,,,,,,,,,,,,,,,,,,,,,,,,,,,,,,,,,,,,,,,,,,,,,,,,,,,,,,,,,,,,,,,,,,,,,,,,,,,,,,,,,,,,,,,,
0,33,33,44,1,,58c62eac444ade00010231a9,62c53f83ff7fb3d324c36677,2022-07-06_09h54.06.867,Colour_Asymmetry_Pilot,2022.1.3,Win32,59.9268892,62c50e9c1127f2cd403a315f,,,,,,,,,,,,,,,,,,,,,,,,,,,,,,,,,,,,,,,,,,,,,,,,,,,,,,,,,,,,,,,,,,,,,,,,,,,,,,,,,,,,,,,,,,,,,,,,,,,,,,,,,,,,,,,,,,,,,,,,,,,,,,,,,,,,,,,,,,,,,,,,,,,,,,,,,,,,,,,,,,,
0,34,34,47,1,,58c62eac444ade00010231a9,62c53f83ff7fb3d324c36677,2022-07-06_09h54.06.867,Colour_Asymmetry_Pilot,2022.1.3,Win32,59.9268892,62c50e9c1127f2cd403a315f,,,,,,,,,,,,,,,,,,,,,,,,,,,,,,,,,,,,,,,,,,,,,,,,,,,,,,,,,,,,,,,,,,,,,,,,,,,,,,,,,,,,,,,,,,,,,,,,,,,,,,,,,,,,,,,,,,,,,,,,,,,,,,,,,,,,,,,,,,,,,,,,,,,,,,,,,,,,,,,,,,,
0,35,35,43,1,,58c62eac444ade00010231a9,62c53f83ff7fb3d324c36677,2022-07-06_09h54.06.867,Colour_Asymmetry_Pilot,2022.1.3,Win32,59.9268892,62c50e9c1127f2cd403a315f,,,,,,,,,,,,,,,,,,,,,,,,,,,,,,,,,,,,,,,,,,,,,,,,,,,,,,,,,,,,,,,,,,,,,,,,,,,,,,,,,,,,,,,,,,,,,,,,,,,,,,,,,,,,,,,,,,,,,,,,,,,,,,,,,,,,,,,,,,,,,,,,,,,,,,,,,,,,,,,,,,,
0,36,36,6,1,,58c62eac444ade00010231a9,62c53f83ff7fb3d324c36677,2022-07-06_09h54.06.867,Colour_Asymmetry_Pilot,2022.1.3,Win32,59.9268892,62c50e9c1127f2cd403a315f,,,,,,,,,,,,,,,,,,,,,,,,,,,,,,,,,,,,,,,,,,,,,,,,,,,,,,,,,,,,,,,,,,,,,,,,,,,,,,,,,,,,,,,,,,,,,,,,,,,,,,,,,,,,,,,,,,,,,,,,,,,,,,,,,,,,,,,,,,,,,,,,,,,,,,,,,,,,,,,,,,,
0,37,37,31,1,,58c62eac444ade00010231a9,62c53f83ff7fb3d324c36677,2022-07-06_09h54.06.867,Colour_Asymmetry_Pilot,2022.1.3,Win32,59.9268892,62c50e9c1127f2cd403a315f,,,,,,,,,,,,,,,,,,,,,,,,,,,,,,,,,,,,,,,,,,,,,,,,,,,,,,,,,,,,,,,,,,,,,,,,,,,,,,,,,,,,,,,,,,,,,,,,,,,,,,,,,,,,,,,,,,,,,,,,,,,,,,,,,,,,,,,,,,,,,,,,,,,,,,,,,,,,,,,,,,,
0,38,38,9,1,,58c62eac444ade00010231a9,62c53f83ff7fb3d324c36677,2022-07-06_09h54.06.867,Colour_Asymmetry_Pilot,2022.1.3,Win32,59.9268892,62c50e9c1127f2cd403a315f,,,,,,,,,,,,,,,,,,,,,,,,,,,,,,,,,,,,,,,,,,,,,,,,,,,,,,,,,,,,,,,,,,,,,,,,,,,,,,,,,,,,,,,,,,,,,,,,,,,,,,,,,,,,,,,,,,,,,,,,,,,,,,,,,,,,,,,,,,,,,,,,,,,,,,,,,,,,,,,,,,,
0,39,39,81,1,,58c62eac444ade00010231a9,62c53f83ff7fb3d324c36677,2022-07-06_09h54.06.867,Colour_Asymmetry_Pilot,2022.1.3,Win32,59.9268892,62c50e9c1127f2cd403a315f,,,,,,,,,,,,,,,,,,,,,,,,,,,,,,,,,,,,,,,,,,,,,,,,,,,,,,,,,,,,,,,,,,,,,,,,,,,,,,,,,,,,,,,,,,,,,,,,,,,,,,,,,,,,,,,,,,,,,,,,,,,,,,,,,,,,,,,,,,,,,,,,,,,,,,,,,,,,,,,,,,,
0,40,40,53,1,,58c62eac444ade00010231a9,62c53f83ff7fb3d324c36677,2022-07-06_09h54.06.867,Colour_Asymmetry_Pilot,2022.1.3,Win32,59.9268892,62c50e9c1127f2cd403a315f,,,,,,,,,,,,,,,,,,,,,,,,,,,,,,,,,,,,,,,,,,,,,,,,,,,,,,,,,,,,,,,,,,,,,,,,,,,,,,,,,,,,,,,,,,,,,,,,,,,,,,,,,,,,,,,,,,,,,,,,,,,,,,,,,,,,,,,,,,,,,,,,,,,,,,,,,,,,,,,,,,,
0,41,41,87,1,,58c62eac444ade00010231a9,62c53f83ff7fb3d324c36677,2022-07-06_09h54.06.867,Colour_Asymmetry_Pilot,2022.1.3,Win32,59.9268892,62c50e9c1127f2cd403a315f,,,,,,,,,,,,,,,,,,,,,,,,,,,,,,,,,,,,,,,,,,,,,,,,,,,,,,,,,,,,,,,,,,,,,,,,,,,,,,,,,,,,,,,,,,,,,,,,,,,,,,,,,,,,,,,,,,,,,,,,,,,,,,,,,,,,,,,,,,,,,,,,,,,,,,,,,,,,,,,,,,,
0,42,42,12,1,,58c62eac444ade00010231a9,62c53f83ff7fb3d324c36677,2022-07-06_09h54.06.867,Colour_Asymmetry_Pilot,2022.1.3,Win32,59.9268892,62c50e9c1127f2cd403a315f,,,,,,,,,,,,,,,,,,,,,,,,,,,,,,,,,,,,,,,,,,,,,,,,,,,,,,,,,,,,,,,,,,,,,,,,,,,,,,,,,,,,,,,,,,,,,,,,,,,,,,,,,,,,,,,,,,,,,,,,,,,,,,,,,,,,,,,,,,,,,,,,,,,,,,,,,,,,,,,,,,,
0,43,43,8,1,,58c62eac444ade00010231a9,62c53f83ff7fb3d324c36677,2022-07-06_09h54.06.867,Colour_Asymmetry_Pilot,2022.1.3,Win32,59.9268892,62c50e9c1127f2cd403a315f,,,,,,,,,,,,,,,,,,,,,,,,,,,,,,,,,,,,,,,,,,,,,,,,,,,,,,,,,,,,,,,,,,,,,,,,,,,,,,,,,,,,,,,,,,,,,,,,,,,,,,,,,,,,,,,,,,,,,,,,,,,,,,,,,,,,,,,,,,,,,,,,,,,,,,,,,,,,,,,,,,,
0,44,44,29,1,,58c62eac444ade00010231a9,62c53f83ff7fb3d324c36677,2022-07-06_09h54.06.867,Colour_Asymmetry_Pilot,2022.1.3,Win32,59.9268892,62c50e9c1127f2cd403a315f,,,,,,,,,,,,,,,,,,,,,,,,,,,,,,,,,,,,,,,,,,,,,,,,,,,,,,,,,,,,,,,,,,,,,,,,,,,,,,,,,,,,,,,,,,,,,,,,,,,,,,,,,,,,,,,,,,,,,,,,,,,,,,,,,,,,,,,,,,,,,,,,,,,,,,,,,,,,,,,,,,,
0,45,45,64,1,,58c62eac444ade00010231a9,62c53f83ff7fb3d324c36677,2022-07-06_09h54.06.867,Colour_Asymmetry_Pilot,2022.1.3,Win32,59.9268892,62c50e9c1127f2cd403a315f,,,,,,,,,,,,,,,,,,,,,,,,,,,,,,,,,,,,,,,,,,,,,,,,,,,,,,,,,,,,,,,,,,,,,,,,,,,,,,,,,,,,,,,,,,,,,,,,,,,,,,,,,,,,,,,,,,,,,,,,,,,,,,,,,,,,,,,,,,,,,,,,,,,,,,,,,,,,,,,,,,,
0,46,46,83,1,,58c62eac444ade00010231a9,62c53f83ff7fb3d324c36677,2022-07-06_09h54.06.867,Colour_Asymmetry_Pilot,2022.1.3,Win32,59.9268892,62c50e9c1127f2cd403a315f,,,,,,,,,,,,,,,,,,,,,,,,,,,,,,,,,,,,,,,,,,,,,,,,,,,,,,,,,,,,,,,,,,,,,,,,,,,,,,,,,,,,,,,,,,,,,,,,,,,,,,,,,,,,,,,,,,,,,,,,,,,,,,,,,,,,,,,,,,,,,,,,,,,,,,,,,,,,,,,,,,,
0,47,47,1,1,,58c62eac444ade00010231a9,62c53f83ff7fb3d324c36677,2022-07-06_09h54.06.867,Colour_Asymmetry_Pilot,2022.1.3,Win32,59.9268892,62c50e9c1127f2cd403a315f,,,,,,,,,,,,,,,,,,,,,,,,,,,,,,,,,,,,,,,,,,,,,,,,,,,,,,,,,,,,,,,,,,,,,,,,,,,,,,,,,,,,,,,,,,,,,,,,,,,,,,,,,,,,,,,,,,,,,,,,,,,,,,,,,,,,,,,,,,,,,,,,,,,,,,,,,,,,,,,,,,,
0,48,48,2,1,,58c62eac444ade00010231a9,62c53f83ff7fb3d324c36677,2022-07-06_09h54.06.867,Colour_Asymmetry_Pilot,2022.1.3,Win32,59.9268892,62c50e9c1127f2cd403a315f,,,,,,,,,,,,,,,,,,,,,,,,,,,,,,,,,,,,,,,,,,,,,,,,,,,,,,,,,,,,,,,,,,,,,,,,,,,,,,,,,,,,,,,,,,,,,,,,,,,,,,,,,,,,,,,,,,,,,,,,,,,,,,,,,,,,,,,,,,,,,,,,,,,,,,,,,,,,,,,,,,,
0,49,49,75,1,,58c62eac444ade00010231a9,62c53f83ff7fb3d324c36677,2022-07-06_09h54.06.867,Colour_Asymmetry_Pilot,2022.1.3,Win32,59.9268892,62c50e9c1127f2cd403a315f,,,,,,,,,,,,,,,,,,,,,,,,,,,,,,,,,,,,,,,,,,,,,,,,,,,,,,,,,,,,,,,,,,,,,,,,,,,,,,,,,,,,,,,,,,,,,,,,,,,,,,,,,,,,,,,,,,,,,,,,,,,,,,,,,,,,,,,,,,,,,,,,,,,,,,,,,,,,,,,,,,,
0,50,50,46,1,,58c62eac444ade00010231a9,62c53f83ff7fb3d324c36677,2022-07-06_09h54.06.867,Colour_Asymmetry_Pilot,2022.1.3,Win32,59.9268892,62c50e9c1127f2cd403a315f,,,,,,,,,,,,,,,,,,,,,,,,,,,,,,,,,,,,,,,,,,,,,,,,,,,,,,,,,,,,,,,,,,,,,,,,,,,,,,,,,,,,,,,,,,,,,,,,,,,,,,,,,,,,,,,,,,,,,,,,,,,,,,,,,,,,,,,,,,,,,,,,,,,,,,,,,,,,,,,,,,,
0,51,51,40,1,,58c62eac444ade00010231a9,62c53f83ff7fb3d324c36677,2022-07-06_09h54.06.867,Colour_Asymmetry_Pilot,2022.1.3,Win32,59.9268892,62c50e9c1127f2cd403a315f,,,,,,,,,,,,,,,,,,,,,,,,,,,,,,,,,,,,,,,,,,,,,,,,,,,,,,,,,,,,,,,,,,,,,,,,,,,,,,,,,,,,,,,,,,,,,,,,,,,,,,,,,,,,,,,,,,,,,,,,,,,,,,,,,,,,,,,,,,,,,,,,,,,,,,,,,,,,,,,,,,,
0,52,52,85,1,,58c62eac444ade00010231a9,62c53f83ff7fb3d324c36677,2022-07-06_09h54.06.867,Colour_Asymmetry_Pilot,2022.1.3,Win32,59.9268892,62c50e9c1127f2cd403a315f,,,,,,,,,,,,,,,,,,,,,,,,,,,,,,,,,,,,,,,,,,,,,,,,,,,,,,,,,,,,,,,,,,,,,,,,,,,,,,,,,,,,,,,,,,,,,,,,,,,,,,,,,,,,,,,,,,,,,,,,,,,,,,,,,,,,,,,,,,,,,,,,,,,,,,,,,,,,,,,,,,,
0,53,53,74,1,,58c62eac444ade00010231a9,62c53f83ff7fb3d324c36677,2022-07-06_09h54.06.867,Colour_Asymmetry_Pilot,2022.1.3,Win32,59.9268892,62c50e9c1127f2cd403a315f,,,,,,,,,,,,,,,,,,,,,,,,,,,,,,,,,,,,,,,,,,,,,,,,,,,,,,,,,,,,,,,,,,,,,,,,,,,,,,,,,,,,,,,,,,,,,,,,,,,,,,,,,,,,,,,,,,,,,,,,,,,,,,,,,,,,,,,,,,,,,,,,,,,,,,,,,,,,,,,,,,,
0,54,54,55,1,,58c62eac444ade00010231a9,62c53f83ff7fb3d324c36677,2022-07-06_09h54.06.867,Colour_Asymmetry_Pilot,2022.1.3,Win32,59.9268892,62c50e9c1127f2cd403a315f,,,,,,,,,,,,,,,,,,,,,,,,,,,,,,,,,,,,,,,,,,,,,,,,,,,,,,,,,,,,,,,,,,,,,,,,,,,,,,,,,,,,,,,,,,,,,,,,,,,,,,,,,,,,,,,,,,,,,,,,,,,,,,,,,,,,,,,,,,,,,,,,,,,,,,,,,,,,,,,,,,,
0,55,55,27,1,,58c62eac444ade00010231a9,62c53f83ff7fb3d324c36677,2022-07-06_09h54.06.867,Colour_Asymmetry_Pilot,2022.1.3,Win32,59.9268892,62c50e9c1127f2cd403a315f,,,,,,,,,,,,,,,,,,,,,,,,,,,,,,,,,,,,,,,,,,,,,,,,,,,,,,,,,,,,,,,,,,,,,,,,,,,,,,,,,,,,,,,,,,,,,,,,,,,,,,,,,,,,,,,,,,,,,,,,,,,,,,,,,,,,,,,,,,,,,,,,,,,,,,,,,,,,,,,,,,,
0,56,56,80,1,,58c62eac444ade00010231a9,62c53f83ff7fb3d324c36677,2022-07-06_09h54.06.867,Colour_Asymmetry_Pilot,2022.1.3,Win32,59.9268892,62c50e9c1127f2cd403a315f,,,,,,,,,,,,,,,,,,,,,,,,,,,,,,,,,,,,,,,,,,,,,,,,,,,,,,,,,,,,,,,,,,,,,,,,,,,,,,,,,,,,,,,,,,,,,,,,,,,,,,,,,,,,,,,,,,,,,,,,,,,,,,,,,,,,,,,,,,,,,,,,,,,,,,,,,,,,,,,,,,,
0,57,57,45,1,,58c62eac444ade00010231a9,62c53f83ff7fb3d324c36677,2022-07-06_09h54.06.867,Colour_Asymmetry_Pilot,2022.1.3,Win32,59.9268892,62c50e9c1127f2cd403a315f,,,,,,,,,,,,,,,,,,,,,,,,,,,,,,,,,,,,,,,,,,,,,,,,,,,,,,,,,,,,,,,,,,,,,,,,,,,,,,,,,,,,,,,,,,,,,,,,,,,,,,,,,,,,,,,,,,,,,,,,,,,,,,,,,,,,,,,,,,,,,,,,,,,,,,,,,,,,,,,,,,,
0,58,58,0,1,,58c62eac444ade00010231a9,62c53f83ff7fb3d324c36677,2022-07-06_09h54.06.867,Colour_Asymmetry_Pilot,2022.1.3,Win32,59.9268892,62c50e9c1127f2cd403a315f,,,,,,,,,,,,,,,,,,,,,,,,,,,,,,,,,,,,,,,,,,,,,,,,,,,,,,,,,,,,,,,,,,,,,,,,,,,,,,,,,,,,,,,,,,,,,,,,,,,,,,,,,,,,,,,,,,,,,,,,,,,,,,,,,,,,,,,,,,,,,,,,,,,,,,,,,,,,,,,,,,,
0,59,59,69,1,,58c62eac444ade00010231a9,62c53f83ff7fb3d324c36677,2022-07-06_09h54.06.867,Colour_Asymmetry_Pilot,2022.1.3,Win32,59.9268892,62c50e9c1127f2cd403a315f,,,,,,,,,,,,,,,,,,,,,,,,,,,,,,,,,,,,,,,,,,,,,,,,,,,,,,,,,,,,,,,,,,,,,,,,,,,,,,,,,,,,,,,,,,,,,,,,,,,,,,,,,,,,,,,,,,,,,,,,,,,,,,,,,,,,,,,,,,,,,,,,,,,,,,,,,,,,,,,,,,,
0,60,60,89,1,,58c62eac444ade00010231a9,62c53f83ff7fb3d324c36677,2022-07-06_09h54.06.867,Colour_Asymmetry_Pilot,2022.1.3,Win32,59.9268892,62c50e9c1127f2cd403a315f,,,,,,,,,,,,,,,,,,,,,,,,,,,,,,,,,,,,,,,,,,,,,,,,,,,,,,,,,,,,,,,,,,,,,,,,,,,,,,,,,,,,,,,,,,,,,,,,,,,,,,,,,,,,,,,,,,,,,,,,,,,,,,,,,,,,,,,,,,,,,,,,,,,,,,,,,,,,,,,,,,,
0,61,61,15,1,,58c62eac444ade00010231a9,62c53f83ff7fb3d324c36677,2022-07-06_09h54.06.867,Colour_Asymmetry_Pilot,2022.1.3,Win32,59.9268892,62c50e9c1127f2cd403a315f,,,,,,,,,,,,,,,,,,,,,,,,,,,,,,,,,,,,,,,,,,,,,,,,,,,,,,,,,,,,,,,,,,,,,,,,,,,,,,,,,,,,,,,,,,,,,,,,,,,,,,,,,,,,,,,,,,,,,,,,,,,,,,,,,,,,,,,,,,,,,,,,,,,,,,,,,,,,,,,,,,,
0,62,62,17,1,,58c62eac444ade00010231a9,62c53f83ff7fb3d324c36677,2022-07-06_09h54.06.867,Colour_Asymmetry_Pilot,2022.1.3,Win32,59.9268892,62c50e9c1127f2cd403a315f,,,,,,,,,,,,,,,,,,,,,,,,,,,,,,,,,,,,,,,,,,,,,,,,,,,,,,,,,,,,,,,,,,,,,,,,,,,,,,,,,,,,,,,,,,,,,,,,,,,,,,,,,,,,,,,,,,,,,,,,,,,,,,,,,,,,,,,,,,,,,,,,,,,,,,,,,,,,,,,,,,,
0,63,63,49,1,,58c62eac444ade00010231a9,62c53f83ff7fb3d324c36677,2022-07-06_09h54.06.867,Colour_Asymmetry_Pilot,2022.1.3,Win32,59.9268892,62c50e9c1127f2cd403a315f,,,,,,,,,,,,,,,,,,,,,,,,,,,,,,,,,,,,,,,,,,,,,,,,,,,,,,,,,,,,,,,,,,,,,,,,,,,,,,,,,,,,,,,,,,,,,,,,,,,,,,,,,,,,,,,,,,,,,,,,,,,,,,,,,,,,,,,,,,,,,,,,,,,,,,,,,,,,,,,,,,,
0,64,64,28,1,,58c62eac444ade00010231a9,62c53f83ff7fb3d324c36677,2022-07-06_09h54.06.867,Colour_Asymmetry_Pilot,2022.1.3,Win32,59.9268892,62c50e9c1127f2cd403a315f,,,,,,,,,,,,,,,,,,,,,,,,,,,,,,,,,,,,,,,,,,,,,,,,,,,,,,,,,,,,,,,,,,,,,,,,,,,,,,,,,,,,,,,,,,,,,,,,,,,,,,,,,,,,,,,,,,,,,,,,,,,,,,,,,,,,,,,,,,,,,,,,,,,,,,,,,,,,,,,,,,,
0,65,65,51,1,,58c62eac444ade00010231a9,62c53f83ff7fb3d324c36677,2022-07-06_09h54.06.867,Colour_Asymmetry_Pilot,2022.1.3,Win32,59.9268892,62c50e9c1127f2cd403a315f,,,,,,,,,,,,,,,,,,,,,,,,,,,,,,,,,,,,,,,,,,,,,,,,,,,,,,,,,,,,,,,,,,,,,,,,,,,,,,,,,,,,,,,,,,,,,,,,,,,,,,,,,,,,,,,,,,,,,,,,,,,,,,,,,,,,,,,,,,,,,,,,,,,,,,,,,,,,,,,,,,,
0,66,66,26,1,,58c62eac444ade00010231a9,62c53f83ff7fb3d324c36677,2022-07-06_09h54.06.867,Colour_Asymmetry_Pilot,2022.1.3,Win32,59.9268892,62c50e9c1127f2cd403a315f,,,,,,,,,,,,,,,,,,,,,,,,,,,,,,,,,,,,,,,,,,,,,,,,,,,,,,,,,,,,,,,,,,,,,,,,,,,,,,,,,,,,,,,,,,,,,,,,,,,,,,,,,,,,,,,,,,,,,,,,,,,,,,,,,,,,,,,,,,,,,,,,,,,,,,,,,,,,,,,,,,,
0,67,67,24,1,,58c62eac444ade00010231a9,62c53f83ff7fb3d324c36677,2022-07-06_09h54.06.867,Colour_Asymmetry_Pilot,2022.1.3,Win32,59.9268892,62c50e9c1127f2cd403a315f,,,,,,,,,,,,,,,,,,,,,,,,,,,,,,,,,,,,,,,,,,,,,,,,,,,,,,,,,,,,,,,,,,,,,,,,,,,,,,,,,,,,,,,,,,,,,,,,,,,,,,,,,,,,,,,,,,,,,,,,,,,,,,,,,,,,,,,,,,,,,,,,,,,,,,,,,,,,,,,,,,,
0,68,68,70,1,,58c62eac444ade00010231a9,62c53f83ff7fb3d324c36677,2022-07-06_09h54.06.867,Colour_Asymmetry_Pilot,2022.1.3,Win32,59.9268892,62c50e9c1127f2cd403a315f,,,,,,,,,,,,,,,,,,,,,,,,,,,,,,,,,,,,,,,,,,,,,,,,,,,,,,,,,,,,,,,,,,,,,,,,,,,,,,,,,,,,,,,,,,,,,,,,,,,,,,,,,,,,,,,,,,,,,,,,,,,,,,,,,,,,,,,,,,,,,,,,,,,,,,,,,,,,,,,,,,,
0,69,69,52,1,,58c62eac444ade00010231a9,62c53f83ff7fb3d324c36677,2022-07-06_09h54.06.867,Colour_Asymmetry_Pilot,2022.1.3,Win32,59.9268892,62c50e9c1127f2cd403a315f,,,,,,,,,,,,,,,,,,,,,,,,,,,,,,,,,,,,,,,,,,,,,,,,,,,,,,,,,,,,,,,,,,,,,,,,,,,,,,,,,,,,,,,,,,,,,,,,,,,,,,,,,,,,,,,,,,,,,,,,,,,,,,,,,,,,,,,,,,,,,,,,,,,,,,,,,,,,,,,,,,,
0,70,70,84,1,,58c62eac444ade00010231a9,62c53f83ff7fb3d324c36677,2022-07-06_09h54.06.867,Colour_Asymmetry_Pilot,2022.1.3,Win32,59.9268892,62c50e9c1127f2cd403a315f,,,,,,,,,,,,,,,,,,,,,,,,,,,,,,,,,,,,,,,,,,,,,,,,,,,,,,,,,,,,,,,,,,,,,,,,,,,,,,,,,,,,,,,,,,,,,,,,,,,,,,,,,,,,,,,,,,,,,,,,,,,,,,,,,,,,,,,,,,,,,,,,,,,,,,,,,,,,,,,,,,,
0,71,71,59,1,,58c62eac444ade00010231a9,62c53f83ff7fb3d324c36677,2022-07-06_09h54.06.867,Colour_Asymmetry_Pilot,2022.1.3,Win32,59.9268892,62c50e9c1127f2cd403a315f,,,,,,,,,,,,,,,,,,,,,,,,,,,,,,,,,,,,,,,,,,,,,,,,,,,,,,,,,,,,,,,,,,,,,,,,,,,,,,,,,,,,,,,,,,,,,,,,,,,,,,,,,,,,,,,,,,,,,,,,,,,,,,,,,,,,,,,,,,,,,,,,,,,,,,,,,,,,,,,,,,,
0,72,72,88,1,,58c62eac444ade00010231a9,62c53f83ff7fb3d324c36677,2022-07-06_09h54.06.867,Colour_Asymmetry_Pilot,2022.1.3,Win32,59.9268892,62c50e9c1127f2cd403a315f,,,,,,,,,,,,,,,,,,,,,,,,,,,,,,,,,,,,,,,,,,,,,,,,,,,,,,,,,,,,,,,,,,,,,,,,,,,,,,,,,,,,,,,,,,,,,,,,,,,,,,,,,,,,,,,,,,,,,,,,,,,,,,,,,,,,,,,,,,,,,,,,,,,,,,,,,,,,,,,,,,,
0,73,73,65,1,,58c62eac444ade00010231a9,62c53f83ff7fb3d324c36677,2022-07-06_09h54.06.867,Colour_Asymmetry_Pilot,2022.1.3,Win32,59.9268892,62c50e9c1127f2cd403a315f,,,,,,,,,,,,,,,,,,,,,,,,,,,,,,,,,,,,,,,,,,,,,,,,,,,,,,,,,,,,,,,,,,,,,,,,,,,,,,,,,,,,,,,,,,,,,,,,,,,,,,,,,,,,,,,,,,,,,,,,,,,,,,,,,,,,,,,,,,,,,,,,,,,,,,,,,,,,,,,,,,,
0,74,74,19,1,,58c62eac444ade00010231a9,62c53f83ff7fb3d324c36677,2022-07-06_09h54.06.867,Colour_Asymmetry_Pilot,2022.1.3,Win32,59.9268892,62c50e9c1127f2cd403a315f,,,,,,,,,,,,,,,,,,,,,,,,,,,,,,,,,,,,,,,,,,,,,,,,,,,,,,,,,,,,,,,,,,,,,,,,,,,,,,,,,,,,,,,,,,,,,,,,,,,,,,,,,,,,,,,,,,,,,,,,,,,,,,,,,,,,,,,,,,,,,,,,,,,,,,,,,,,,,,,,,,,
0,75,75,48,1,,58c62eac444ade00010231a9,62c53f83ff7fb3d324c36677,2022-07-06_09h54.06.867,Colour_Asymmetry_Pilot,2022.1.3,Win32,59.9268892,62c50e9c1127f2cd403a315f,,,,,,,,,,,,,,,,,,,,,,,,,,,,,,,,,,,,,,,,,,,,,,,,,,,,,,,,,,,,,,,,,,,,,,,,,,,,,,,,,,,,,,,,,,,,,,,,,,,,,,,,,,,,,,,,,,,,,,,,,,,,,,,,,,,,,,,,,,,,,,,,,,,,,,,,,,,,,,,,,,,
0,76,76,67,1,,58c62eac444ade00010231a9,62c53f83ff7fb3d324c36677,2022-07-06_09h54.06.867,Colour_Asymmetry_Pilot,2022.1.3,Win32,59.9268892,62c50e9c1127f2cd403a315f,,,,,,,,,,,,,,,,,,,,,,,,,,,,,,,,,,,,,,,,,,,,,,,,,,,,,,,,,,,,,,,,,,,,,,,,,,,,,,,,,,,,,,,,,,,,,,,,,,,,,,,,,,,,,,,,,,,,,,,,,,,,,,,,,,,,,,,,,,,,,,,,,,,,,,,,,,,,,,,,,,,
0,77,77,62,1,,58c62eac444ade00010231a9,62c53f83ff7fb3d324c36677,2022-07-06_09h54.06.867,Colour_Asymmetry_Pilot,2022.1.3,Win32,59.9268892,62c50e9c1127f2cd403a315f,,,,,,,,,,,,,,,,,,,,,,,,,,,,,,,,,,,,,,,,,,,,,,,,,,,,,,,,,,,,,,,,,,,,,,,,,,,,,,,,,,,,,,,,,,,,,,,,,,,,,,,,,,,,,,,,,,,,,,,,,,,,,,,,,,,,,,,,,,,,,,,,,,,,,,,,,,,,,,,,,,,
0,78,78,66,1,,58c62eac444ade00010231a9,62c53f83ff7fb3d324c36677,2022-07-06_09h54.06.867,Colour_Asymmetry_Pilot,2022.1.3,Win32,59.9268892,62c50e9c1127f2cd403a315f,,,,,,,,,,,,,,,,,,,,,,,,,,,,,,,,,,,,,,,,,,,,,,,,,,,,,,,,,,,,,,,,,,,,,,,,,,,,,,,,,,,,,,,,,,,,,,,,,,,,,,,,,,,,,,,,,,,,,,,,,,,,,,,,,,,,,,,,,,,,,,,,,,,,,,,,,,,,,,,,,,,
0,79,79,22,1,,58c62eac444ade00010231a9,62c53f83ff7fb3d324c36677,2022-07-06_09h54.06.867,Colour_Asymmetry_Pilot,2022.1.3,Win32,59.9268892,62c50e9c1127f2cd403a315f,,,,,,,,,,,,,,,,,,,,,,,,,,,,,,,,,,,,,,,,,,,,,,,,,,,,,,,,,,,,,,,,,,,,,,,,,,,,,,,,,,,,,,,,,,,,,,,,,,,,,,,,,,,,,,,,,,,,,,,,,,,,,,,,,,,,,,,,,,,,,,,,,,,,,,,,,,,,,,,,,,,
0,80,80,57,1,,58c62eac444ade00010231a9,62c53f83ff7fb3d324c36677,2022-07-06_09h54.06.867,Colour_Asymmetry_Pilot,2022.1.3,Win32,59.9268892,62c50e9c1127f2cd403a315f,,,,,,,,,,,,,,,,,,,,,,,,,,,,,,,,,,,,,,,,,,,,,,,,,,,,,,,,,,,,,,,,,,,,,,,,,,,,,,,,,,,,,,,,,,,,,,,,,,,,,,,,,,,,,,,,,,,,,,,,,,,,,,,,,,,,,,,,,,,,,,,,,,,,,,,,,,,,,,,,,,,
0,81,81,34,1,,58c62eac444ade00010231a9,62c53f83ff7fb3d324c36677,2022-07-06_09h54.06.867,Colour_Asymmetry_Pilot,2022.1.3,Win32,59.9268892,62c50e9c1127f2cd403a315f,,,,,,,,,,,,,,,,,,,,,,,,,,,,,,,,,,,,,,,,,,,,,,,,,,,,,,,,,,,,,,,,,,,,,,,,,,,,,,,,,,,,,,,,,,,,,,,,,,,,,,,,,,,,,,,,,,,,,,,,,,,,,,,,,,,,,,,,,,,,,,,,,,,,,,,,,,,,,,,,,,,
0,82,82,30,1,,58c62eac444ade00010231a9,62c53f83ff7fb3d324c36677,2022-07-06_09h54.06.867,Colour_Asymmetry_Pilot,2022.1.3,Win32,59.9268892,62c50e9c1127f2cd403a315f,,,,,,,,,,,,,,,,,,,,,,,,,,,,,,,,,,,,,,,,,,,,,,,,,,,,,,,,,,,,,,,,,,,,,,,,,,,,,,,,,,,,,,,,,,,,,,,,,,,,,,,,,,,,,,,,,,,,,,,,,,,,,,,,,,,,,,,,,,,,,,,,,,,,,,,,,,,,,,,,,,,
0,83,83,68,1,,58c62eac444ade00010231a9,62c53f83ff7fb3d324c36677,2022-07-06_09h54.06.867,Colour_Asymmetry_Pilot,2022.1.3,Win32,59.9268892,62c50e9c1127f2cd403a315f,,,,,,,,,,,,,,,,,,,,,,,,,,,,,,,,,,,,,,,,,,,,,,,,,,,,,,,,,,,,,,,,,,,,,,,,,,,,,,,,,,,,,,,,,,,,,,,,,,,,,,,,,,,,,,,,,,,,,,,,,,,,,,,,,,,,,,,,,,,,,,,,,,,,,,,,,,,,,,,,,,,
0,84,84,16,1,,58c62eac444ade00010231a9,62c53f83ff7fb3d324c36677,2022-07-06_09h54.06.867,Colour_Asymmetry_Pilot,2022.1.3,Win32,59.9268892,62c50e9c1127f2cd403a315f,,,,,,,,,,,,,,,,,,,,,,,,,,,,,,,,,,,,,,,,,,,,,,,,,,,,,,,,,,,,,,,,,,,,,,,,,,,,,,,,,,,,,,,,,,,,,,,,,,,,,,,,,,,,,,,,,,,,,,,,,,,,,,,,,,,,,,,,,,,,,,,,,,,,,,,,,,,,,,,,,,,
0,85,85,86,1,,58c62eac444ade00010231a9,62c53f83ff7fb3d324c36677,2022-07-06_09h54.06.867,Colour_Asymmetry_Pilot,2022.1.3,Win32,59.9268892,62c50e9c1127f2cd403a315f,,,,,,,,,,,,,,,,,,,,,,,,,,,,,,,,,,,,,,,,,,,,,,,,,,,,,,,,,,,,,,,,,,,,,,,,,,,,,,,,,,,,,,,,,,,,,,,,,,,,,,,,,,,,,,,,,,,,,,,,,,,,,,,,,,,,,,,,,,,,,,,,,,,,,,,,,,,,,,,,,,,
0,86,86,72,1,,58c62eac444ade00010231a9,62c53f83ff7fb3d324c36677,2022-07-06_09h54.06.867,Colour_Asymmetry_Pilot,2022.1.3,Win32,59.9268892,62c50e9c1127f2cd403a315f,,,,,,,,,,,,,,,,,,,,,,,,,,,,,,,,,,,,,,,,,,,,,,,,,,,,,,,,,,,,,,,,,,,,,,,,,,,,,,,,,,,,,,,,,,,,,,,,,,,,,,,,,,,,,,,,,,,,,,,,,,,,,,,,,,,,,,,,,,,,,,,,,,,,,,,,,,,,,,,,,,,
0,87,87,79,1,,58c62eac444ade00010231a9,62c53f83ff7fb3d324c36677,2022-07-06_09h54.06.867,Colour_Asymmetry_Pilot,2022.1.3,Win32,59.9268892,62c50e9c1127f2cd403a315f,,,,,,,,,,,,,,,,,,,,,,,,,,,,,,,,,,,,,,,,,,,,,,,,,,,,,,,,,,,,,,,,,,,,,,,,,,,,,,,,,,,,,,,,,,,,,,,,,,,,,,,,,,,,,,,,,,,,,,,,,,,,,,,,,,,,,,,,,,,,,,,,,,,,,,,,,,,,,,,,,,,
0,88,88,41,1,,58c62eac444ade00010231a9,62c53f83ff7fb3d324c36677,2022-07-06_09h54.06.867,Colour_Asymmetry_Pilot,2022.1.3,Win32,59.9268892,62c50e9c1127f2cd403a315f,,,,,,,,,,,,,,,,,,,,,,,,,,,,,,,,,,,,,,,,,,,,,,,,,,,,,,,,,,,,,,,,,,,,,,,,,,,,,,,,,,,,,,,,,,,,,,,,,,,,,,,,,,,,,,,,,,,,,,,,,,,,,,,,,,,,,,,,,,,,,,,,,,,,,,,,,,,,,,,,,,,
0,89,89,77,1,,58c62eac444ade00010231a9,62c53f83ff7fb3d324c36677,2022-07-06_09h54.06.867,Colour_Asymmetry_Pilot,2022.1.3,Win32,59.9268892,62c50e9c1127f2cd403a315f,,,,,,,,,,,,,,,,,,,,,,,,,,,,,,,,,,,,,,,,,,,,,,,,,,,,,,,,,,,,,,,,,,,,,,,,,,,,,,,,,,,,,,,,,,,,,,,,,,,,,,,,,,,,,,,,,,,,,,,,,,,,,,,,,,,,,,,,,,,,,,,,,,,,,,,,,,,,,,,,,,,
0,90,90,71,1,,58c62eac444ade00010231a9,62c53f83ff7fb3d324c36677,2022-07-06_09h54.06.867,Colour_Asymmetry_Pilot,2022.1.3,Win32,59.9268892,62c50e9c1127f2cd403a315f,,,,,,,,,,,,,,,,,,,,,,,,,,,,,,,,,,,,,,,,,,,,,,,,,,,,,,,,,,,,,,,,,,,,,,,,,,,,,,,,,,,,,,,,,,,,,,,,,,,,,,,,,,,,,,,,,,,,,,,,,,,,,,,,,,,,,,,,,,,,,,,,,,,,,,,,,,,,,,,,,,,
0,91,91,21,1,,58c62eac444ade00010231a9,62c53f83ff7fb3d324c36677,2022-07-06_09h54.06.867,Colour_Asymmetry_Pilot,2022.1.3,Win32,59.9268892,62c50e9c1127f2cd403a315f,,,,,,,,,,,,,,,,,,,,,,,,,,,,,,,,,,,,,,,,,,,,,,,,,,,,,,,,,,,,,,,,,,,,,,,,,,,,,,,,,,,,,,,,,,,,,,,,,,,,,,,,,,,,,,,,,,,,,,,,,,,,,,,,,,,,,,,,,,,,,,,,,,,,,,,,,,,,,,,,,,,
0,92,92,76,1,,58c62eac444ade00010231a9,62c53f83ff7fb3d324c36677,2022-07-06_09h54.06.867,Colour_Asymmetry_Pilot,2022.1.3,Win32,59.9268892,62c50e9c1127f2cd403a315f,,,,,,,,,,,,,,,,,,,,,,,,,,,,,,,,,,,,,,,,,,,,,,,,,,,,,,,,,,,,,,,,,,,,,,,,,,,,,,,,,,,,,,,,,,,,,,,,,,,,,,,,,,,,,,,,,,,,,,,,,,,,,,,,,,,,,,,,,,,,,,,,,,,,,,,,,,,,,,,,,,,
,,,,,,58c62eac444ade00010231a9,62c53f83ff7fb3d324c36677,2022-07-06_09h54.06.867,Colour_Asymmetry_Pilot,2022.1.3,Win32,59.9268892,62c50e9c1127f2cd403a315f,0,0,0,65,1,onethree,,,,,,,,,,,,,,,,,,,,,,,,,,,,,,,,,,,,,,,,,,,,,,,,,,,,,,,,,,,,,,,,,,,,,,,,,,,,,,,,,,,,,,,,,,,,,,,,,,,,,,,,,,,,,,,,,,,,,,,,,,,,,,,,,,,,,,,,,,,,,,,,,,,,,,,,,,,,,
,,,,,,58c62eac444ade00010231a9,62c53f83ff7fb3d324c36677,2022-07-06_09h54.06.867,Colour_Asymmetry_Pilot,2022.1.3,Win32,59.9268892,62c50e9c1127f2cd403a315f,0,1,1,22,1,fourtwo,,,,,,,,,,,,,,,,,,,,,,,,,,,,,,,,,,,,,,,,,,,,,,,,,,,,,,,,,,,,,,,,,,,,,,,,,,,,,,,,,,,,,,,,,,,,,,,,,,,,,,,,,,,,,,,,,,,,,,,,,,,,,,,,,,,,,,,,,,,,,,,,,,,,,,,,,,,,,
,,,,,,58c62eac444ade00010231a9,62c53f83ff7fb3d324c36677,2022-07-06_09h54.06.867,Colour_Asymmetry_Pilot,2022.1.3,Win32,59.9268892,62c50e9c1127f2cd403a315f,0,2,2,116,1,threeone,,,,,,,,,,,,,,,,,,,,,,,,,,,,,,,,,,,,,,,,,,,,,,,,,,,,,,,,,,,,,,,,,,,,,,,,,,,,,,,,,,,,,,,,,,,,,,,,,,,,,,,,,,,,,,,,,,,,,,,,,,,,,,,,,,,,,,,,,,,,,,,,,,,,,,,,,,,,,
,,,,,,58c62eac444ade00010231a9,62c53f83ff7fb3d324c36677,2022-07-06_09h54.06.867,Colour_Asymmetry_Pilot,2022.1.3,Win32,59.9268892,62c50e9c1127f2cd403a315f,0,3,3,87,1,fourthree,,,,,,,,,,,,,,,,,,,,,,,,,,,,,,,,,,,,,,,,,,,,,,,,,,,,,,,,,,,,,,,,,,,,,,,,,,,,,,,,,,,,,,,,,,,,,,,,,,,,,,,,,,,,,,,,,,,,,,,,,,,,,,,,,,,,,,,,,,,,,,,,,,,,,,,,,,,,,
,,,,,,58c62eac444ade00010231a9,62c53f83ff7fb3d324c36677,2022-07-06_09h54.06.867,Colour_Asymmetry_Pilot,2022.1.3,Win32,59.9268892,62c50e9c1127f2cd403a315f,0,4,4,24,1,onetwo,,,,,,,,,,,,,,,,,,,,,,,,,,,,,,,,,,,,,,,,,,,,,,,,,,,,,,,,,,,,,,,,,,,,,,,,,,,,,,,,,,,,,,,,,,,,,,,,,,,,,,,,,,,,,,,,,,,,,,,,,,,,,,,,,,,,,,,,,,,,,,,,,,,,,,,,,,,,,
,,,,,,58c62eac444ade00010231a9,62c53f83ff7fb3d324c36677,2022-07-06_09h54.06.867,Colour_Asymmetry_Pilot,2022.1.3,Win32,59.9268892,62c50e9c1127f2cd403a315f,0,5,5,47,1,fourthree,,,,,,,,,,,,,,,,,,,,,,,,,,,,,,,,,,,,,,,,,,,,,,,,,,,,,,,,,,,,,,,,,,,,,,,,,,,,,,,,,,,,,,,,,,,,,,,,,,,,,,,,,,,,,,,,,,,,,,,,,,,,,,,,,,,,,,,,,,,,,,,,,,,,,,,,,,,,,
,,,,,,58c62eac444ade00010231a9,62c53f83ff7fb3d324c36677,2022-07-06_09h54.06.867,Colour_Asymmetry_Pilot,2022.1.3,Win32,59.9268892,62c50e9c1127f2cd403a315f,0,6,6,12,1,threeone,,,,,,,,,,,,,,,,,,,,,,,,,,,,,,,,,,,,,,,,,,,,,,,,,,,,,,,,,,,,,,,,,,,,,,,,,,,,,,,,,,,,,,,,,,,,,,,,,,,,,,,,,,,,,,,,,,,,,,,,,,,,,,,,,,,,,,,,,,,,,,,,,,,,,,,,,,,,,
,,,,,,58c62eac444ade00010231a9,62c53f83ff7fb3d324c36677,2022-07-06_09h54.06.867,Colour_Asymmetry_Pilot,2022.1.3,Win32,59.9268892,62c50e9c1127f2cd403a315f,0,7,7,74,1,twoone,,,,,,,,,,,,,,,,,,,,,,,,,,,,,,,,,,,,,,,,,,,,,,,,,,,,,,,,,,,,,,,,,,,,,,,,,,,,,,,,,,,,,,,,,,,,,,,,,,,,,,,,,,,,,,,,,,,,,,,,,,,,,,,,,,,,,,,,,,,,,,,,,,,,,,,,,,,,,
,,,,,,58c62eac444ade00010231a9,62c53f83ff7fb3d324c36677,2022-07-06_09h54.06.867,Colour_Asymmetry_Pilot,2022.1.3,Win32,59.9268892,62c50e9c1127f2cd403a315f,0,8,8,73,1,onethree,,,,,,,,,,,,,,,,,,,,,,,,,,,,,,,,,,,,,,,,,,,,,,,,,,,,,,,,,,,,,,,,,,,,,,,,,,,,,,,,,,,,,,,,,,,,,,,,,,,,,,,,,,,,,,,,,,,,,,,,,,,,,,,,,,,,,,,,,,,,,,,,,,,,,,,,,,,,,
,,,,,,58c62eac444ade00010231a9,62c53f83ff7fb3d324c36677,2022-07-06_09h54.06.867,Colour_Asymmetry_Pilot,2022.1.3,Win32,59.9268892,62c50e9c1127f2cd403a315f,0,9,9,150,1,fourtwo,,,,,,,,,,,,,,,,,,,,,,,,,,,,,,,,,,,,,,,,,,,,,,,,,,,,,,,,,,,,,,,,,,,,,,,,,,,,,,,,,,,,,,,,,,,,,,,,,,,,,,,,,,,,,,,,,,,,,,,,,,,,,,,,,,,,,,,,,,,,,,,,,,,,,,,,,,,,,
,,,,,,58c62eac444ade00010231a9,62c53f83ff7fb3d324c36677,2022-07-06_09h54.06.867,Colour_Asymmetry_Pilot,2022.1.3,Win32,59.9268892,62c50e9c1127f2cd403a315f,0,10,10,93,1,threefour,,,,,,,,,,,,,,,,,,,,,,,,,,,,,,,,,,,,,,,,,,,,,,,,,,,,,,,,,,,,,,,,,,,,,,,,,,,,,,,,,,,,,,,,,,,,,,,,,,,,,,,,,,,,,,,,,,,,,,,,,,,,,,,,,,,,,,,,,,,,,,,,,,,,,,,,,,,,,
,,,,,,58c62eac444ade00010231a9,62c53f83ff7fb3d324c36677,2022-07-06_09h54.06.867,Colour_Asymmetry_Pilot,2022.1.3,Win32,59.9268892,62c50e9c1127f2cd403a315f,0,11,11,144,1,onetwo,,,,,,,,,,,,,,,,,,,,,,,,,,,,,,,,,,,,,,,,,,,,,,,,,,,,,,,,,,,,,,,,,,,,,,,,,,,,,,,,,,,,,,,,,,,,,,,,,,,,,,,,,,,,,,,,,,,,,,,,,,,,,,,,,,,,,,,,,,,,,,,,,,,,,,,,,,,,,
,,,,,,58c62eac444ade00010231a9,62c53f83ff7fb3d324c36677,2022-07-06_09h54.06.867,Colour_Asymmetry_Pilot,2022.1.3,Win32,59.9268892,62c50e9c1127f2cd403a315f,0,12,12,120,1,onetwo,,,,,,,,,,,,,,,,,,,,,,,,,,,,,,,,,,,,,,,,,,,,,,,,,,,,,,,,,,,,,,,,,,,,,,,,,,,,,,,,,,,,,,,,,,,,,,,,,,,,,,,,,,,,,,,,,,,,,,,,,,,,,,,,,,,,,,,,,,,,,,,,,,,,,,,,,,,,,
,,,,,,58c62eac444ade00010231a9,62c53f83ff7fb3d324c36677,2022-07-06_09h54.06.867,Colour_Asymmetry_Pilot,2022.1.3,Win32,59.9268892,62c50e9c1127f2cd403a315f,0,13,13,80,1,onetwo,,,,,,,,,,,,,,,,,,,,,,,,,,,,,,,,,,,,,,,,,,,,,,,,,,,,,,,,,,,,,,,,,,,,,,,,,,,,,,,,,,,,,,,,,,,,,,,,,,,,,,,,,,,,,,,,,,,,,,,,,,,,,,,,,,,,,,,,,,,,,,,,,,,,,,,,,,,,,
,,,,,,58c62eac444ade00010231a9,62c53f83ff7fb3d324c36677,2022-07-06_09h54.06.867,Colour_Asymmetry_Pilot,2022.1.3,Win32,59.9268892,62c50e9c1127f2cd403a315f,0,14,14,157,1,threefour,,,,,,,,,,,,,,,,,,,,,,,,,,,,,,,,,,,,,,,,,,,,,,,,,,,,,,,,,,,,,,,,,,,,,,,,,,,,,,,,,,,,,,,,,,,,,,,,,,,,,,,,,,,,,,,,,,,,,,,,,,,,,,,,,,,,,,,,,,,,,,,,,,,,,,,,,,,,,
,,,,,,58c62eac444ade00010231a9,62c53f83ff7fb3d324c36677,2022-07-06_09h54.06.867,Colour_Asymmetry_Pilot,2022.1.3,Win32,59.9268892,62c50e9c1127f2cd403a315f,0,15,15,137,1,onethree,,,,,,,,,,,,,,,,,,,,,,,,,,,,,,,,,,,,,,,,,,,,,,,,,,,,,,,,,,,,,,,,,,,,,,,,,,,,,,,,,,,,,,,,,,,,,,,,,,,,,,,,,,,,,,,,,,,,,,,,,,,,,,,,,,,,,,,,,,,,,,,,,,,,,,,,,,,,,
,,,,,,58c62eac444ade00010231a9,62c53f83ff7fb3d324c36677,2022-07-06_09h54.06.867,Colour_Asymmetry_Pilot,2022.1.3,Win32,59.9268892,62c50e9c1127f2cd403a315f,0,16,16,3,1,twofour,,,,,,,,,,,,,,,,,,,,,,,,,,,,,,,,,,,,,,,,,,,,,,,,,,,,,,,,,,,,,,,,,,,,,,,,,,,,,,,,,,,,,,,,,,,,,,,,,,,,,,,,,,,,,,,,,,,,,,,,,,,,,,,,,,,,,,,,,,,,,,,,,,,,,,,,,,,,,
,,,,,,58c62eac444ade00010231a9,62c53f83ff7fb3d324c36677,2022-07-06_09h54.06.867,Colour_Asymmetry_Pilot,2022.1.3,Win32,59.9268892,62c50e9c1127f2cd403a315f,0,17,17,56,1,onetwo,,,,,,,,,,,,,,,,,,,,,,,,,,,,,,,,,,,,,,,,,,,,,,,,,,,,,,,,,,,,,,,,,,,,,,,,,,,,,,,,,,,,,,,,,,,,,,,,,,,,,,,,,,,,,,,,,,,,,,,,,,,,,,,,,,,,,,,,,,,,,,,,,,,,,,,,,,,,,
,,,,,,58c62eac444ade00010231a9,62c53f83ff7fb3d324c36677,2022-07-06_09h54.06.867,Colour_Asymmetry_Pilot,2022.1.3,Win32,59.9268892,62c50e9c1127f2cd403a315f,0,18,18,78,1,fourtwo,,,,,,,,,,,,,,,,,,,,,,,,,,,,,,,,,,,,,,,,,,,,,,,,,,,,,,,,,,,,,,,,,,,,,,,,,,,,,,,,,,,,,,,,,,,,,,,,,,,,,,,,,,,,,,,,,,,,,,,,,,,,,,,,,,,,,,,,,,,,,,,,,,,,,,,,,,,,,
,,,,,,58c62eac444ade00010231a9,62c53f83ff7fb3d324c36677,2022-07-06_09h54.06.867,Colour_Asymmetry_Pilot,2022.1.3,Win32,59.9268892,62c50e9c1127f2cd403a315f,0,19,19,76,1,threeone,,,,,,,,,,,,,,,,,,,,,,,,,,,,,,,,,,,,,,,,,,,,,,,,,,,,,,,,,,,,,,,,,,,,,,,,,,,,,,,,,,,,,,,,,,,,,,,,,,,,,,,,,,,,,,,,,,,,,,,,,,,,,,,,,,,,,,,,,,,,,,,,,,,,,,,,,,,,,
,,,,,,58c62eac444ade00010231a9,62c53f83ff7fb3d324c36677,2022-07-06_09h54.06.867,Colour_Asymmetry_Pilot,2022.1.3,Win32,59.9268892,62c50e9c1127f2cd403a315f,0,20,20,135,1,fourthree,,,,,,,,,,,,,,,,,,,,,,,,,,,,,,,,,,,,,,,,,,,,,,,,,,,,,,,,,,,,,,,,,,,,,,,,,,,,,,,,,,,,,,,,,,,,,,,,,,,,,,,,,,,,,,,,,,,,,,,,,,,,,,,,,,,,,,,,,,,,,,,,,,,,,,,,,,,,,
,,,,,,58c62eac444ade00010231a9,62c53f83ff7fb3d324c36677,2022-07-06_09h54.06.867,Colour_Asymmetry_Pilot,2022.1.3,Win32,59.9268892,62c50e9c1127f2cd403a315f,0,21,21,36,1,threeone,,,,,,,,,,,,,,,,,,,,,,,,,,,,,,,,,,,,,,,,,,,,,,,,,,,,,,,,,,,,,,,,,,,,,,,,,,,,,,,,,,,,,,,,,,,,,,,,,,,,,,,,,,,,,,,,,,,,,,,,,,,,,,,,,,,,,,,,,,,,,,,,,,,,,,,,,,,,,
,,,,,,58c62eac444ade00010231a9,62c53f83ff7fb3d324c36677,2022-07-06_09h54.06.867,Colour_Asymmetry_Pilot,2022.1.3,Win32,59.9268892,62c50e9c1127f2cd403a315f,0,22,22,138,1,twoone,,,,,,,,,,,,,,,,,,,,,,,,,,,,,,,,,,,,,,,,,,,,,,,,,,,,,,,,,,,,,,,,,,,,,,,,,,,,,,,,,,,,,,,,,,,,,,,,,,,,,,,,,,,,,,,,,,,,,,,,,,,,,,,,,,,,,,,,,,,,,,,,,,,,,,,,,,,,,
,,,,,,58c62eac444ade00010231a9,62c53f83ff7fb3d324c36677,2022-07-06_09h54.06.867,Colour_Asymmetry_Pilot,2022.1.3,Win32,59.9268892,62c50e9c1127f2cd403a315f,0,23,23,158,1,fourtwo,,,,,,,,,,,,,,,,,,,,,,,,,,,,,,,,,,,,,,,,,,,,,,,,,,,,,,,,,,,,,,,,,,,,,,,,,,,,,,,,,,,,,,,,,,,,,,,,,,,,,,,,,,,,,,,,,,,,,,,,,,,,,,,,,,,,,,,,,,,,,,,,,,,,,,,,,,,,,
,,,,,,58c62eac444ade00010231a9,62c53f83ff7fb3d324c36677,2022-07-06_09h54.06.867,Colour_Asymmetry_Pilot,2022.1.3,Win32,59.9268892,62c50e9c1127f2cd403a315f,0,24,24,119,1,fourthree,,,,,,,,,,,,,,,,,,,,,,,,,,,,,,,,,,,,,,,,,,,,,,,,,,,,,,,,,,,,,,,,,,,,,,,,,,,,,,,,,,,,,,,,,,,,,,,,,,,,,,,,,,,,,,,,,,,,,,,,,,,,,,,,,,,,,,,,,,,,,,,,,,,,,,,,,,,,,
,,,,,,58c62eac444ade00010231a9,62c53f83ff7fb3d324c36677,2022-07-06_09h54.06.867,Colour_Asymmetry_Pilot,2022.1.3,Win32,59.9268892,62c50e9c1127f2cd403a315f,0,25,25,1,1,onethree,,,,,,,,,,,,,,,,,,,,,,,,,,,,,,,,,,,,,,,,,,,,,,,,,,,,,,,,,,,,,,,,,,,,,,,,,,,,,,,,,,,,,,,,,,,,,,,,,,,,,,,,,,,,,,,,,,,,,,,,,,,,,,,,,,,,,,,,,,,,,,,,,,,,,,,,,,,,,
,,,,,,58c62eac444ade00010231a9,62c53f83ff7fb3d324c36677,2022-07-06_09h54.06.867,Colour_Asymmetry_Pilot,2022.1.3,Win32,59.9268892,62c50e9c1127f2cd403a315f,0,26,26,88,1,onetwo,,,,,,,,,,,,,,,,,,,,,,,,,,,,,,,,,,,,,,,,,,,,,,,,,,,,,,,,,,,,,,,,,,,,,,,,,,,,,,,,,,,,,,,,,,,,,,,,,,,,,,,,,,,,,,,,,,,,,,,,,,,,,,,,,,,,,,,,,,,,,,,,,,,,,,,,,,,,,
,,,,,,58c62eac444ade00010231a9,62c53f83ff7fb3d324c36677,2022-07-06_09h54.06.867,Colour_Asymmetry_Pilot,2022.1.3,Win32,59.9268892,62c50e9c1127f2cd403a315f,0,27,27,38,1,fourtwo,,,,,,,,,,,,,,,,,,,,,,,,,,,,,,,,,,,,,,,,,,,,,,,,,,,,,,,,,,,,,,,,,,,,,,,,,,,,,,,,,,,,,,,,,,,,,,,,,,,,,,,,,,,,,,,,,,,,,,,,,,,,,,,,,,,,,,,,,,,,,,,,,,,,,,,,,,,,,
,,,,,,58c62eac444ade00010231a9,62c53f83ff7fb3d324c36677,2022-07-06_09h54.06.867,Colour_Asymmetry_Pilot,2022.1.3,Win32,59.9268892,62c50e9c1127f2cd403a315f,0,28,28,139,1,twofour,,,,,,,,,,,,,,,,,,,,,,,,,,,,,,,,,,,,,,,,,,,,,,,,,,,,,,,,,,,,,,,,,,,,,,,,,,,,,,,,,,,,,,,,,,,,,,,,,,,,,,,,,,,,,,,,,,,,,,,,,,,,,,,,,,,,,,,,,,,,,,,,,,,,,,,,,,,,,
,,,,,,58c62eac444ade00010231a9,62c53f83ff7fb3d324c36677,2022-07-06_09h54.06.867,Colour_Asymmetry_Pilot,2022.1.3,Win32,59.9268892,62c50e9c1127f2cd403a315f,0,29,29,107,1,twofour,,,,,,,,,,,,,,,,,,,,,,,,,,,,,,,,,,,,,,,,,,,,,,,,,,,,,,,,,,,,,,,,,,,,,,,,,,,,,,,,,,,,,,,,,,,,,,,,,,,,,,,,,,,,,,,,,,,,,,,,,,,,,,,,,,,,,,,,,,,,,,,,,,,,,,,,,,,,,
,,,,,,58c62eac444ade00010231a9,62c53f83ff7fb3d324c36677,2022-07-06_09h54.06.867,Colour_Asymmetry_Pilot,2022.1.3,Win32,59.9268892,62c50e9c1127f2cd403a315f,0,30,30,154,1,twoone,,,,,,,,,,,,,,,,,,,,,,,,,,,,,,,,,,,,,,,,,,,,,,,,,,,,,,,,,,,,,,,,,,,,,,,,,,,,,,,,,,,,,,,,,,,,,,,,,,,,,,,,,,,,,,,,,,,,,,,,,,,,,,,,,,,,,,,,,,,,,,,,,,,,,,,,,,,,,
,,,,,,58c62eac444ade00010231a9,62c53f83ff7fb3d324c36677,2022-07-06_09h54.06.867,Colour_Asymmetry_Pilot,2022.1.3,Win32,59.9268892,62c50e9c1127f2cd403a315f,0,31,31,77,1,threefour,,,,,,,,,,,,,,,,,,,,,,,,,,,,,,,,,,,,,,,,,,,,,,,,,,,,,,,,,,,,,,,,,,,,,,,,,,,,,,,,,,,,,,,,,,,,,,,,,,,,,,,,,,,,,,,,,,,,,,,,,,,,,,,,,,,,,,,,,,,,,,,,,,,,,,,,,,,,,
,,,,,,58c62eac444ade00010231a9,62c53f83ff7fb3d324c36677,2022-07-06_09h54.06.867,Colour_Asymmetry_Pilot,2022.1.3,Win32,59.9268892,62c50e9c1127f2cd403a315f,0,32,32,42,1,twoone,,,,,,,,,,,,,,,,,,,,,,,,,,,,,,,,,,,,,,,,,,,,,,,,,,,,,,,,,,,,,,,,,,,,,,,,,,,,,,,,,,,,,,,,,,,,,,,,,,,,,,,,,,,,,,,,,,,,,,,,,,,,,,,,,,,,,,,,,,,,,,,,,,,,,,,,,,,,,
,,,,,,58c62eac444ade00010231a9,62c53f83ff7fb3d324c36677,2022-07-06_09h54.06.867,Colour_Asymmetry_Pilot,2022.1.3,Win32,59.9268892,62c50e9c1127f2cd403a315f,0,33,33,51,1,twofour,,,,,,,,,,,,,,,,,,,,,,,,,,,,,,,,,,,,,,,,,,,,,,,,,,,,,,,,,,,,,,,,,,,,,,,,,,,,,,,,,,,,,,,,,,,,,,,,,,,,,,,,,,,,,,,,,,,,,,,,,,,,,,,,,,,,,,,,,,,,,,,,,,,,,,,,,,,,,
,,,,,,58c62eac444ade00010231a9,62c53f83ff7fb3d324c36677,2022-07-06_09h54.06.867,Colour_Asymmetry_Pilot,2022.1.3,Win32,59.9268892,62c50e9c1127f2cd403a315f,0,34,34,6,1,fourtwo,,,,,,,,,,,,,,,,,,,,,,,,,,,,,,,,,,,,,,,,,,,,,,,,,,,,,,,,,,,,,,,,,,,,,,,,,,,,,,,,,,,,,,,,,,,,,,,,,,,,,,,,,,,,,,,,,,,,,,,,,,,,,,,,,,,,,,,,,,,,,,,,,,,,,,,,,,,,,
,,,,,,58c62eac444ade00010231a9,62c53f83ff7fb3d324c36677,2022-07-06_09h54.06.867,Colour_Asymmetry_Pilot,2022.1.3,Win32,59.9268892,62c50e9c1127f2cd403a315f,0,35,35,118,1,fourtwo,,,,,,,,,,,,,,,,,,,,,,,,,,,,,,,,,,,,,,,,,,,,,,,,,,,,,,,,,,,,,,,,,,,,,,,,,,,,,,,,,,,,,,,,,,,,,,,,,,,,,,,,,,,,,,,,,,,,,,,,,,,,,,,,,,,,,,,,,,,,,,,,,,,,,,,,,,,,,
,,,,,,58c62eac444ade00010231a9,62c53f83ff7fb3d324c36677,2022-07-06_09h54.06.867,Colour_Asymmetry_Pilot,2022.1.3,Win32,59.9268892,62c50e9c1127f2cd403a315f,0,36,36,114,1,twoone,,,,,,,,,,,,,,,,,,,,,,,,,,,,,,,,,,,,,,,,,,,,,,,,,,,,,,,,,,,,,,,,,,,,,,,,,,,,,,,,,,,,,,,,,,,,,,,,,,,,,,,,,,,,,,,,,,,,,,,,,,,,,,,,,,,,,,,,,,,,,,,,,,,,,,,,,,,,,
,,,,,,58c62eac444ade00010231a9,62c53f83ff7fb3d324c36677,2022-07-06_09h54.06.867,Colour_Asymmetry_Pilot,2022.1.3,Win32,59.9268892,62c50e9c1127f2cd403a315f,0,37,37,2,1,twoone,,,,,,,,,,,,,,,,,,,,,,,,,,,,,,,,,,,,,,,,,,,,,,,,,,,,,,,,,,,,,,,,,,,,,,,,,,,,,,,,,,,,,,,,,,,,,,,,,,,,,,,,,,,,,,,,,,,,,,,,,,,,,,,,,,,,,,,,,,,,,,,,,,,,,,,,,,,,,
,,,,,,58c62eac444ade00010231a9,62c53f83ff7fb3d324c36677,2022-07-06_09h54.06.867,Colour_Asymmetry_Pilot,2022.1.3,Win32,59.9268892,62c50e9c1127f2cd403a315f,0,38,38,54,1,fourtwo,,,,,,,,,,,,,,,,,,,,,,,,,,,,,,,,,,,,,,,,,,,,,,,,,,,,,,,,,,,,,,,,,,,,,,,,,,,,,,,,,,,,,,,,,,,,,,,,,,,,,,,,,,,,,,,,,,,,,,,,,,,,,,,,,,,,,,,,,,,,,,,,,,,,,,,,,,,,,
,,,,,,58c62eac444ade00010231a9,62c53f83ff7fb3d324c36677,2022-07-06_09h54.06.867,Colour_Asymmetry_Pilot,2022.1.3,Win32,59.9268892,62c50e9c1127f2cd403a315f,0,39,39,126,1,fourtwo,,,,,,,,,,,,,,,,,,,,,,,,,,,,,,,,,,,,,,,,,,,,,,,,,,,,,,,,,,,,,,,,,,,,,,,,,,,,,,,,,,,,,,,,,,,,,,,,,,,,,,,,,,,,,,,,,,,,,,,,,,,,,,,,,,,,,,,,,,,,,,,,,,,,,,,,,,,,,
,,,,,,58c62eac444ade00010231a9,62c53f83ff7fb3d324c36677,2022-07-06_09h54.06.867,Colour_Asymmetry_Pilot,2022.1.3,Win32,59.9268892,62c50e9c1127f2cd403a315f,0,40,40,95,1,fourthree,,,,,,,,,,,,,,,,,,,,,,,,,,,,,,,,,,,,,,,,,,,,,,,,,,,,,,,,,,,,,,,,,,,,,,,,,,,,,,,,,,,,,,,,,,,,,,,,,,,,,,,,,,,,,,,,,,,,,,,,,,,,,,,,,,,,,,,,,,,,,,,,,,,,,,,,,,,,,
,,,,,,58c62eac444ade00010231a9,62c53f83ff7fb3d324c36677,2022-07-06_09h54.06.867,Colour_Asymmetry_Pilot,2022.1.3,Win32,59.9268892,62c50e9c1127f2cd403a315f,0,41,41,44,1,threeone,,,,,,,,,,,,,,,,,,,,,,,,,,,,,,,,,,,,,,,,,,,,,,,,,,,,,,,,,,,,,,,,,,,,,,,,,,,,,,,,,,,,,,,,,,,,,,,,,,,,,,,,,,,,,,,,,,,,,,,,,,,,,,,,,,,,,,,,,,,,,,,,,,,,,,,,,,,,,
,,,,,,58c62eac444ade00010231a9,62c53f83ff7fb3d324c36677,2022-07-06_09h54.06.867,Colour_Asymmetry_Pilot,2022.1.3,Win32,59.9268892,62c50e9c1127f2cd403a315f,0,42,42,91,1,twofour,,,,,,,,,,,,,,,,,,,,,,,,,,,,,,,,,,,,,,,,,,,,,,,,,,,,,,,,,,,,,,,,,,,,,,,,,,,,,,,,,,,,,,,,,,,,,,,,,,,,,,,,,,,,,,,,,,,,,,,,,,,,,,,,,,,,,,,,,,,,,,,,,,,,,,,,,,,,,
,,,,,,58c62eac444ade00010231a9,62c53f83ff7fb3d324c36677,2022-07-06_09h54.06.867,Colour_Asymmetry_Pilot,2022.1.3,Win32,59.9268892,62c50e9c1127f2cd403a315f,0,43,43,96,1,onetwo,,,,,,,,,,,,,,,,,,,,,,,,,,,,,,,,,,,,,,,,,,,,,,,,,,,,,,,,,,,,,,,,,,,,,,,,,,,,,,,,,,,,,,,,,,,,,,,,,,,,,,,,,,,,,,,,,,,,,,,,,,,,,,,,,,,,,,,,,,,,,,,,,,,,,,,,,,,,,
,,,,,,58c62eac444ade00010231a9,62c53f83ff7fb3d324c36677,2022-07-06_09h54.06.867,Colour_Asymmetry_Pilot,2022.1.3,Win32,59.9268892,62c50e9c1127f2cd403a315f,0,44,44,59,1,twofour,,,,,,,,,,,,,,,,,,,,,,,,,,,,,,,,,,,,,,,,,,,,,,,,,,,,,,,,,,,,,,,,,,,,,,,,,,,,,,,,,,,,,,,,,,,,,,,,,,,,,,,,,,,,,,,,,,,,,,,,,,,,,,,,,,,,,,,,,,,,,,,,,,,,,,,,,,,,,
,,,,,,58c62eac444ade00010231a9,62c53f83ff7fb3d324c36677,2022-07-06_09h54.06.867,Colour_Asymmetry_Pilot,2022.1.3,Win32,59.9268892,62c50e9c1127f2cd403a315f,0,45,45,68,1,threeone,,,,,,,,,,,,,,,,,,,,,,,,,,,,,,,,,,,,,,,,,,,,,,,,,,,,,,,,,,,,,,,,,,,,,,,,,,,,,,,,,,,,,,,,,,,,,,,,,,,,,,,,,,,,,,,,,,,,,,,,,,,,,,,,,,,,,,,,,,,,,,,,,,,,,,,,,,,,,
,,,,,,58c62eac444ade00010231a9,62c53f83ff7fb3d324c36677,2022-07-06_09h54.06.867,Colour_Asymmetry_Pilot,2022.1.3,Win32,59.9268892,62c50e9c1127f2cd403a315f,0,46,46,41,1,onethree,,,,,,,,,,,,,,,,,,,,,,,,,,,,,,,,,,,,,,,,,,,,,,,,,,,,,,,,,,,,,,,,,,,,,,,,,,,,,,,,,,,,,,,,,,,,,,,,,,,,,,,,,,,,,,,,,,,,,,,,,,,,,,,,,,,,,,,,,,,,,,,,,,,,,,,,,,,,,
,,,,,,58c62eac444ade00010231a9,62c53f83ff7fb3d324c36677,2022-07-06_09h54.06.867,Colour_Asymmetry_Pilot,2022.1.3,Win32,59.9268892,62c50e9c1127f2cd403a315f,0,47,47,101,1,threefour,,,,,,,,,,,,,,,,,,,,,,,,,,,,,,,,,,,,,,,,,,,,,,,,,,,,,,,,,,,,,,,,,,,,,,,,,,,,,,,,,,,,,,,,,,,,,,,,,,,,,,,,,,,,,,,,,,,,,,,,,,,,,,,,,,,,,,,,,,,,,,,,,,,,,,,,,,,,,
,,,,,,58c62eac444ade00010231a9,62c53f83ff7fb3d324c36677,2022-07-06_09h54.06.867,Colour_Asymmetry_Pilot,2022.1.3,Win32,59.9268892,62c50e9c1127f2cd403a315f,0,48,48,105,1,onethree,,,,,,,,,,,,,,,,,,,,,,,,,,,,,,,,,,,,,,,,,,,,,,,,,,,,,,,,,,,,,,,,,,,,,,,,,,,,,,,,,,,,,,,,,,,,,,,,,,,,,,,,,,,,,,,,,,,,,,,,,,,,,,,,,,,,,,,,,,,,,,,,,,,,,,,,,,,,,
,,,,,,58c62eac444ade00010231a9,62c53f83ff7fb3d324c36677,2022-07-06_09h54.06.867,Colour_Asymmetry_Pilot,2022.1.3,Win32,59.9268892,62c50e9c1127f2cd403a315f,0,49,49,81,1,onethree,,,,,,,,,,,,,,,,,,,,,,,,,,,,,,,,,,,,,,,,,,,,,,,,,,,,,,,,,,,,,,,,,,,,,,,,,,,,,,,,,,,,,,,,,,,,,,,,,,,,,,,,,,,,,,,,,,,,,,,,,,,,,,,,,,,,,,,,,,,,,,,,,,,,,,,,,,,,,
,,,,,,58c62eac444ade00010231a9,62c53f83ff7fb3d324c36677,2022-07-06_09h54.06.867,Colour_Asymmetry_Pilot,2022.1.3,Win32,59.9268892,62c50e9c1127f2cd403a315f,0,50,50,109,1,threefour,,,,,,,,,,,,,,,,,,,,,,,,,,,,,,,,,,,,,,,,,,,,,,,,,,,,,,,,,,,,,,,,,,,,,,,,,,,,,,,,,,,,,,,,,,,,,,,,,,,,,,,,,,,,,,,,,,,,,,,,,,,,,,,,,,,,,,,,,,,,,,,,,,,,,,,,,,,,,
,,,,,,58c62eac444ade00010231a9,62c53f83ff7fb3d324c36677,2022-07-06_09h54.06.867,Colour_Asymmetry_Pilot,2022.1.3,Win32,59.9268892,62c50e9c1127f2cd403a315f,0,51,51,15,1,fourthree,,,,,,,,,,,,,,,,,,,,,,,,,,,,,,,,,,,,,,,,,,,,,,,,,,,,,,,,,,,,,,,,,,,,,,,,,,,,,,,,,,,,,,,,,,,,,,,,,,,,,,,,,,,,,,,,,,,,,,,,,,,,,,,,,,,,,,,,,,,,,,,,,,,,,,,,,,,,,
,,,,,,58c62eac444ade00010231a9,62c53f83ff7fb3d324c36677,2022-07-06_09h54.06.867,Colour_Asymmetry_Pilot,2022.1.3,Win32,59.9268892,62c50e9c1127f2cd403a315f,0,52,52,152,1,onetwo,,,,,,,,,,,,,,,,,,,,,,,,,,,,,,,,,,,,,,,,,,,,,,,,,,,,,,,,,,,,,,,,,,,,,,,,,,,,,,,,,,,,,,,,,,,,,,,,,,,,,,,,,,,,,,,,,,,,,,,,,,,,,,,,,,,,,,,,,,,,,,,,,,,,,,,,,,,,,
,,,,,,58c62eac444ade00010231a9,62c53f83ff7fb3d324c36677,2022-07-06_09h54.06.867,Colour_Asymmetry_Pilot,2022.1.3,Win32,59.9268892,62c50e9c1127f2cd403a315f,0,53,53,43,1,twofour,,,,,,,,,,,,,,,,,,,,,,,,,,,,,,,,,,,,,,,,,,,,,,,,,,,,,,,,,,,,,,,,,,,,,,,,,,,,,,,,,,,,,,,,,,,,,,,,,,,,,,,,,,,,,,,,,,,,,,,,,,,,,,,,,,,,,,,,,,,,,,,,,,,,,,,,,,,,,
,,,,,,58c62eac444ade00010231a9,62c53f83ff7fb3d324c36677,2022-07-06_09h54.06.867,Colour_Asymmetry_Pilot,2022.1.3,Win32,59.9268892,62c50e9c1127f2cd403a315f,0,54,54,34,1,twoone,,,,,,,,,,,,,,,,,,,,,,,,,,,,,,,,,,,,,,,,,,,,,,,,,,,,,,,,,,,,,,,,,,,,,,,,,,,,,,,,,,,,,,,,,,,,,,,,,,,,,,,,,,,,,,,,,,,,,,,,,,,,,,,,,,,,,,,,,,,,,,,,,,,,,,,,,,,,,
,,,,,,58c62eac444ade00010231a9,62c53f83ff7fb3d324c36677,2022-07-06_09h54.06.867,Colour_Asymmetry_Pilot,2022.1.3,Win32,59.9268892,62c50e9c1127f2cd403a315f,0,55,55,31,1,fourthree,,,,,,,,,,,,,,,,,,,,,,,,,,,,,,,,,,,,,,,,,,,,,,,,,,,,,,,,,,,,,,,,,,,,,,,,,,,,,,,,,,,,,,,,,,,,,,,,,,,,,,,,,,,,,,,,,,,,,,,,,,,,,,,,,,,,,,,,,,,,,,,,,,,,,,,,,,,,,
,,,,,,58c62eac444ade00010231a9,62c53f83ff7fb3d324c36677,2022-07-06_09h54.06.867,Colour_Asymmetry_Pilot,2022.1.3,Win32,59.9268892,62c50e9c1127f2cd403a315f,0,56,56,57,1,onethree,,,,,,,,,,,,,,,,,,,,,,,,,,,,,,,,,,,,,,,,,,,,,,,,,,,,,,,,,,,,,,,,,,,,,,,,,,,,,,,,,,,,,,,,,,,,,,,,,,,,,,,,,,,,,,,,,,,,,,,,,,,,,,,,,,,,,,,,,,,,,,,,,,,,,,,,,,,,,
,,,,,,58c62eac444ade00010231a9,62c53f83ff7fb3d324c36677,2022-07-06_09h54.06.867,Colour_Asymmetry_Pilot,2022.1.3,Win32,59.9268892,62c50e9c1127f2cd403a315f,0,57,57,122,1,twoone,,,,,,,,,,,,,,,,,,,,,,,,,,,,,,,,,,,,,,,,,,,,,,,,,,,,,,,,,,,,,,,,,,,,,,,,,,,,,,,,,,,,,,,,,,,,,,,,,,,,,,,,,,,,,,,,,,,,,,,,,,,,,,,,,,,,,,,,,,,,,,,,,,,,,,,,,,,,,
,,,,,,58c62eac444ade00010231a9,62c53f83ff7fb3d324c36677,2022-07-06_09h54.06.867,Colour_Asymmetry_Pilot,2022.1.3,Win32,59.9268892,62c50e9c1127f2cd403a315f,0,58,58,39,1,fourthree,,,,,,,,,,,,,,,,,,,,,,,,,,,,,,,,,,,,,,,,,,,,,,,,,,,,,,,,,,,,,,,,,,,,,,,,,,,,,,,,,,,,,,,,,,,,,,,,,,,,,,,,,,,,,,,,,,,,,,,,,,,,,,,,,,,,,,,,,,,,,,,,,,,,,,,,,,,,,
,,,,,,58c62eac444ade00010231a9,62c53f83ff7fb3d324c36677,2022-07-06_09h54.06.867,Colour_Asymmetry_Pilot,2022.1.3,Win32,59.9268892,62c50e9c1127f2cd403a315f,0,59,59,0,1,onetwo,,,,,,,,,,,,,,,,,,,,,,,,,,,,,,,,,,,,,,,,,,,,,,,,,,,,,,,,,,,,,,,,,,,,,,,,,,,,,,,,,,,,,,,,,,,,,,,,,,,,,,,,,,,,,,,,,,,,,,,,,,,,,,,,,,,,,,,,,,,,,,,,,,,,,,,,,,,,,
,,,,,,58c62eac444ade00010231a9,62c53f83ff7fb3d324c36677,2022-07-06_09h54.06.867,Colour_Asymmetry_Pilot,2022.1.3,Win32,59.9268892,62c50e9c1127f2cd403a315f,0,60,60,112,1,onetwo,,,,,,,,,,,,,,,,,,,,,,,,,,,,,,,,,,,,,,,,,,,,,,,,,,,,,,,,,,,,,,,,,,,,,,,,,,,,,,,,,,,,,,,,,,,,,,,,,,,,,,,,,,,,,,,,,,,,,,,,,,,,,,,,,,,,,,,,,,,,,,,,,,,,,,,,,,,,,
,,,,,,58c62eac444ade00010231a9,62c53f83ff7fb3d324c36677,2022-07-06_09h54.06.867,Colour_Asymmetry_Pilot,2022.1.3,Win32,59.9268892,62c50e9c1127f2cd403a315f,0,61,61,127,1,fourthree,,,,,,,,,,,,,,,,,,,,,,,,,,,,,,,,,,,,,,,,,,,,,,,,,,,,,,,,,,,,,,,,,,,,,,,,,,,,,,,,,,,,,,,,,,,,,,,,,,,,,,,,,,,,,,,,,,,,,,,,,,,,,,,,,,,,,,,,,,,,,,,,,,,,,,,,,,,,,
,,,,,,58c62eac444ade00010231a9,62c53f83ff7fb3d324c36677,2022-07-06_09h54.06.867,Colour_Asymmetry_Pilot,2022.1.3,Win32,59.9268892,62c50e9c1127f2cd403a315f,0,62,62,29,1,threefour,,,,,,,,,,,,,,,,,,,,,,,,,,,,,,,,,,,,,,,,,,,,,,,,,,,,,,,,,,,,,,,,,,,,,,,,,,,,,,,,,,,,,,,,,,,,,,,,,,,,,,,,,,,,,,,,,,,,,,,,,,,,,,,,,,,,,,,,,,,,,,,,,,,,,,,,,,,,,
,,,,,,58c62eac444ade00010231a9,62c53f83ff7fb3d324c36677,2022-07-06_09h54.06.867,Colour_Asymmetry_Pilot,2022.1.3,Win32,59.9268892,62c50e9c1127f2cd403a315f,0,63,63,159,1,fourthree,,,,,,,,,,,,,,,,,,,,,,,,,,,,,,,,,,,,,,,,,,,,,,,,,,,,,,,,,,,,,,,,,,,,,,,,,,,,,,,,,,,,,,,,,,,,,,,,,,,,,,,,,,,,,,,,,,,,,,,,,,,,,,,,,,,,,,,,,,,,,,,,,,,,,,,,,,,,,
,,,,,,58c62eac444ade00010231a9,62c53f83ff7fb3d324c36677,2022-07-06_09h54.06.867,Colour_Asymmetry_Pilot,2022.1.3,Win32,59.9268892,62c50e9c1127f2cd403a315f,0,64,64,28,1,threeone,,,,,,,,,,,,,,,,,,,,,,,,,,,,,,,,,,,,,,,,,,,,,,,,,,,,,,,,,,,,,,,,,,,,,,,,,,,,,,,,,,,,,,,,,,,,,,,,,,,,,,,,,,,,,,,,,,,,,,,,,,,,,,,,,,,,,,,,,,,,,,,,,,,,,,,,,,,,,
,,,,,,58c62eac444ade00010231a9,62c53f83ff7fb3d324c36677,2022-07-06_09h54.06.867,Colour_Asymmetry_Pilot,2022.1.3,Win32,59.9268892,62c50e9c1127f2cd403a315f,0,65,65,64,1,onetwo,,,,,,,,,,,,,,,,,,,,,,,,,,,,,,,,,,,,,,,,,,,,,,,,,,,,,,,,,,,,,,,,,,,,,,,,,,,,,,,,,,,,,,,,,,,,,,,,,,,,,,,,,,,,,,,,,,,,,,,,,,,,,,,,,,,,,,,,,,,,,,,,,,,,,,,,,,,,,
,,,,,,58c62eac444ade00010231a9,62c53f83ff7fb3d324c36677,2022-07-06_09h54.06.867,Colour_Asymmetry_Pilot,2022.1.3,Win32,59.9268892,62c50e9c1127f2cd403a315f,0,66,66,84,1,threeone,,,,,,,,,,,,,,,,,,,,,,,,,,,,,,,,,,,,,,,,,,,,,,,,,,,,,,,,,,,,,,,,,,,,,,,,,,,,,,,,,,,,,,,,,,,,,,,,,,,,,,,,,,,,,,,,,,,,,,,,,,,,,,,,,,,,,,,,,,,,,,,,,,,,,,,,,,,,,
,,,,,,58c62eac444ade00010231a9,62c53f83ff7fb3d324c36677,2022-07-06_09h54.06.867,Colour_Asymmetry_Pilot,2022.1.3,Win32,59.9268892,62c50e9c1127f2cd403a315f,0,67,67,140,1,threeone,,,,,,,,,,,,,,,,,,,,,,,,,,,,,,,,,,,,,,,,,,,,,,,,,,,,,,,,,,,,,,,,,,,,,,,,,,,,,,,,,,,,,,,,,,,,,,,,,,,,,,,,,,,,,,,,,,,,,,,,,,,,,,,,,,,,,,,,,,,,,,,,,,,,,,,,,,,,,
,,,,,,58c62eac444ade00010231a9,62c53f83ff7fb3d324c36677,2022-07-06_09h54.06.867,Colour_Asymmetry_Pilot,2022.1.3,Win32,59.9268892,62c50e9c1127f2cd403a315f,0,68,68,25,1,onethree,,,,,,,,,,,,,,,,,,,,,,,,,,,,,,,,,,,,,,,,,,,,,,,,,,,,,,,,,,,,,,,,,,,,,,,,,,,,,,,,,,,,,,,,,,,,,,,,,,,,,,,,,,,,,,,,,,,,,,,,,,,,,,,,,,,,,,,,,,,,,,,,,,,,,,,,,,,,,
,,,,,,58c62eac444ade00010231a9,62c53f83ff7fb3d324c36677,2022-07-06_09h54.06.867,Colour_Asymmetry_Pilot,2022.1.3,Win32,59.9268892,62c50e9c1127f2cd403a315f,0,69,69,20,1,threeone,,,,,,,,,,,,,,,,,,,,,,,,,,,,,,,,,,,,,,,,,,,,,,,,,,,,,,,,,,,,,,,,,,,,,,,,,,,,,,,,,,,,,,,,,,,,,,,,,,,,,,,,,,,,,,,,,,,,,,,,,,,,,,,,,,,,,,,,,,,,,,,,,,,,,,,,,,,,,
,,,,,,58c62eac444ade00010231a9,62c53f83ff7fb3d324c36677,2022-07-06_09h54.06.867,Colour_Asymmetry_Pilot,2022.1.3,Win32,59.9268892,62c50e9c1127f2cd403a315f,0,70,70,130,1,twoone,,,,,,,,,,,,,,,,,,,,,,,,,,,,,,,,,,,,,,,,,,,,,,,,,,,,,,,,,,,,,,,,,,,,,,,,,,,,,,,,,,,,,,,,,,,,,,,,,,,,,,,,,,,,,,,,,,,,,,,,,,,,,,,,,,,,,,,,,,,,,,,,,,,,,,,,,,,,,
,,,,,,58c62eac444ade00010231a9,62c53f83ff7fb3d324c36677,2022-07-06_09h54.06.867,Colour_Asymmetry_Pilot,2022.1.3,Win32,59.9268892,62c50e9c1127f2cd403a315f,0,71,71,40,1,onetwo,,,,,,,,,,,,,,,,,,,,,,,,,,,,,,,,,,,,,,,,,,,,,,,,,,,,,,,,,,,,,,,,,,,,,,,,,,,,,,,,,,,,,,,,,,,,,,,,,,,,,,,,,,,,,,,,,,,,,,,,,,,,,,,,,,,,,,,,,,,,,,,,,,,,,,,,,,,,,
,,,,,,58c62eac444ade00010231a9,62c53f83ff7fb3d324c36677,2022-07-06_09h54.06.867,Colour_Asymmetry_Pilot,2022.1.3,Win32,59.9268892,62c50e9c1127f2cd403a315f,0,72,72,86,1,fourtwo,,,,,,,,,,,,,,,,,,,,,,,,,,,,,,,,,,,,,,,,,,,,,,,,,,,,,,,,,,,,,,,,,,,,,,,,,,,,,,,,,,,,,,,,,,,,,,,,,,,,,,,,,,,,,,,,,,,,,,,,,,,,,,,,,,,,,,,,,,,,,,,,,,,,,,,,,,,,,
,,,,,,58c62eac444ade00010231a9,62c53f83ff7fb3d324c36677,2022-07-06_09h54.06.867,Colour_Asymmetry_Pilot,2022.1.3,Win32,59.9268892,62c50e9c1127f2cd403a315f,0,73,73,145,1,onethree,,,,,,,,,,,,,,,,,,,,,,,,,,,,,,,,,,,,,,,,,,,,,,,,,,,,,,,,,,,,,,,,,,,,,,,,,,,,,,,,,,,,,,,,,,,,,,,,,,,,,,,,,,,,,,,,,,,,,,,,,,,,,,,,,,,,,,,,,,,,,,,,,,,,,,,,,,,,,
,,,,,,58c62eac444ade00010231a9,62c53f83ff7fb3d324c36677,2022-07-06_09h54.06.867,Colour_Asymmetry_Pilot,2022.1.3,Win32,59.9268892,62c50e9c1127f2cd403a315f,0,74,74,67,1,twofour,,,,,,,,,,,,,,,,,,,,,,,,,,,,,,,,,,,,,,,,,,,,,,,,,,,,,,,,,,,,,,,,,,,,,,,,,,,,,,,,,,,,,,,,,,,,,,,,,,,,,,,,,,,,,,,,,,,,,,,,,,,,,,,,,,,,,,,,,,,,,,,,,,,,,,,,,,,,,
,,,,,,58c62eac444ade00010231a9,62c53f83ff7fb3d324c36677,2022-07-06_09h54.06.867,Colour_Asymmetry_Pilot,2022.1.3,Win32,59.9268892,62c50e9c1127f2cd403a315f,0,75,75,92,1,threeone,,,,,,,,,,,,,,,,,,,,,,,,,,,,,,,,,,,,,,,,,,,,,,,,,,,,,,,,,,,,,,,,,,,,,,,,,,,,,,,,,,,,,,,,,,,,,,,,,,,,,,,,,,,,,,,,,,,,,,,,,,,,,,,,,,,,,,,,,,,,,,,,,,,,,,,,,,,,,
,,,,,,58c62eac444ade00010231a9,62c53f83ff7fb3d324c36677,2022-07-06_09h54.06.867,Colour_Asymmetry_Pilot,2022.1.3,Win32,59.9268892,62c50e9c1127f2cd403a315f,0,76,76,27,1,twofour,,,,,,,,,,,,,,,,,,,,,,,,,,,,,,,,,,,,,,,,,,,,,,,,,,,,,,,,,,,,,,,,,,,,,,,,,,,,,,,,,,,,,,,,,,,,,,,,,,,,,,,,,,,,,,,,,,,,,,,,,,,,,,,,,,,,,,,,,,,,,,,,,,,,,,,,,,,,,
,,,,,,58c62eac444ade00010231a9,62c53f83ff7fb3d324c36677,2022-07-06_09h54.06.867,Colour_Asymmetry_Pilot,2022.1.3,Win32,59.9268892,62c50e9c1127f2cd403a315f,0,77,77,58,1,twoone,,,,,,,,,,,,,,,,,,,,,,,,,,,,,,,,,,,,,,,,,,,,,,,,,,,,,,,,,,,,,,,,,,,,,,,,,,,,,,,,,,,,,,,,,,,,,,,,,,,,,,,,,,,,,,,,,,,,,,,,,,,,,,,,,,,,,,,,,,,,,,,,,,,,,,,,,,,,,
,,,,,,58c62eac444ade00010231a9,62c53f83ff7fb3d324c36677,2022-07-06_09h54.06.867,Colour_Asymmetry_Pilot,2022.1.3,Win32,59.9268892,62c50e9c1127f2cd403a315f,0,78,78,32,1,onetwo,,,,,,,,,,,,,,,,,,,,,,,,,,,,,,,,,,,,,,,,,,,,,,,,,,,,,,,,,,,,,,,,,,,,,,,,,,,,,,,,,,,,,,,,,,,,,,,,,,,,,,,,,,,,,,,,,,,,,,,,,,,,,,,,,,,,,,,,,,,,,,,,,,,,,,,,,,,,,
,,,,,,58c62eac444ade00010231a9,62c53f83ff7fb3d324c36677,2022-07-06_09h54.06.867,Colour_Asymmetry_Pilot,2022.1.3,Win32,59.9268892,62c50e9c1127f2cd403a315f,0,79,79,110,1,fourtwo,,,,,,,,,,,,,,,,,,,,,,,,,,,,,,,,,,,,,,,,,,,,,,,,,,,,,,,,,,,,,,,,,,,,,,,,,,,,,,,,,,,,,,,,,,,,,,,,,,,,,,,,,,,,,,,,,,,,,,,,,,,,,,,,,,,,,,,,,,,,,,,,,,,,,,,,,,,,,
,,,,,,58c62eac444ade00010231a9,62c53f83ff7fb3d324c36677,2022-07-06_09h54.06.867,Colour_Asymmetry_Pilot,2022.1.3,Win32,59.9268892,62c50e9c1127f2cd403a315f,0,80,80,147,1,twofour,,,,,,,,,,,,,,,,,,,,,,,,,,,,,,,,,,,,,,,,,,,,,,,,,,,,,,,,,,,,,,,,,,,,,,,,,,,,,,,,,,,,,,,,,,,,,,,,,,,,,,,,,,,,,,,,,,,,,,,,,,,,,,,,,,,,,,,,,,,,,,,,,,,,,,,,,,,,,
,,,,,,58c62eac444ade00010231a9,62c53f83ff7fb3d324c36677,2022-07-06_09h54.06.867,Colour_Asymmetry_Pilot,2022.1.3,Win32,59.9268892,62c50e9c1127f2cd403a315f,0,81,81,8,1,onetwo,,,,,,,,,,,,,,,,,,,,,,,,,,,,,,,,,,,,,,,,,,,,,,,,,,,,,,,,,,,,,,,,,,,,,,,,,,,,,,,,,,,,,,,,,,,,,,,,,,,,,,,,,,,,,,,,,,,,,,,,,,,,,,,,,,,,,,,,,,,,,,,,,,,,,,,,,,,,,
,,,,,,58c62eac444ade00010231a9,62c53f83ff7fb3d324c36677,2022-07-06_09h54.06.867,Colour_Asymmetry_Pilot,2022.1.3,Win32,59.9268892,62c50e9c1127f2cd403a315f,0,82,82,149,1,threefour,,,,,,,,,,,,,,,,,,,,,,,,,,,,,,,,,,,,,,,,,,,,,,,,,,,,,,,,,,,,,,,,,,,,,,,,,,,,,,,,,,,,,,,,,,,,,,,,,,,,,,,,,,,,,,,,,,,,,,,,,,,,,,,,,,,,,,,,,,,,,,,,,,,,,,,,,,,,,
,,,,,,58c62eac444ade00010231a9,62c53f83ff7fb3d324c36677,2022-07-06_09h54.06.867,Colour_Asymmetry_Pilot,2022.1.3,Win32,59.9268892,62c50e9c1127f2cd403a315f,0,83,83,89,1,onethree,,,,,,,,,,,,,,,,,,,,,,,,,,,,,,,,,,,,,,,,,,,,,,,,,,,,,,,,,,,,,,,,,,,,,,,,,,,,,,,,,,,,,,,,,,,,,,,,,,,,,,,,,,,,,,,,,,,,,,,,,,,,,,,,,,,,,,,,,,,,,,,,,,,,,,,,,,,,,
,,,,,,58c62eac444ade00010231a9,62c53f83ff7fb3d324c36677,2022-07-06_09h54.06.867,Colour_Asymmetry_Pilot,2022.1.3,Win32,59.9268892,62c50e9c1127f2cd403a315f,0,84,84,142,1,fourtwo,,,,,,,,,,,,,,,,,,,,,,,,,,,,,,,,,,,,,,,,,,,,,,,,,,,,,,,,,,,,,,,,,,,,,,,,,,,,,,,,,,,,,,,,,,,,,,,,,,,,,,,,,,,,,,,,,,,,,,,,,,,,,,,,,,,,,,,,,,,,,,,,,,,,,,,,,,,,,
,,,,,,58c62eac444ade00010231a9,62c53f83ff7fb3d324c36677,2022-07-06_09h54.06.867,Colour_Asymmetry_Pilot,2022.1.3,Win32,59.9268892,62c50e9c1127f2cd403a315f,0,85,85,45,1,threefour,,,,,,,,,,,,,,,,,,,,,,,,,,,,,,,,,,,,,,,,,,,,,,,,,,,,,,,,,,,,,,,,,,,,,,,,,,,,,,,,,,,,,,,,,,,,,,,,,,,,,,,,,,,,,,,,,,,,,,,,,,,,,,,,,,,,,,,,,,,,,,,,,,,,,,,,,,,,,
,,,,,,58c62eac444ade00010231a9,62c53f83ff7fb3d324c36677,2022-07-06_09h54.06.867,Colour_Asymmetry_Pilot,2022.1.3,Win32,59.9268892,62c50e9c1127f2cd403a315f,0,86,86,106,1,twoone,,,,,,,,,,,,,,,,,,,,,,,,,,,,,,,,,,,,,,,,,,,,,,,,,,,,,,,,,,,,,,,,,,,,,,,,,,,,,,,,,,,,,,,,,,,,,,,,,,,,,,,,,,,,,,,,,,,,,,,,,,,,,,,,,,,,,,,,,,,,,,,,,,,,,,,,,,,,,
,,,,,,58c62eac444ade00010231a9,62c53f83ff7fb3d324c36677,2022-07-06_09h54.06.867,Colour_Asymmetry_Pilot,2022.1.3,Win32,59.9268892,62c50e9c1127f2cd403a315f,0,87,87,5,1,threefour,,,,,,,,,,,,,,,,,,,,,,,,,,,,,,,,,,,,,,,,,,,,,,,,,,,,,,,,,,,,,,,,,,,,,,,,,,,,,,,,,,,,,,,,,,,,,,,,,,,,,,,,,,,,,,,,,,,,,,,,,,,,,,,,,,,,,,,,,,,,,,,,,,,,,,,,,,,,,
,,,,,,58c62eac444ade00010231a9,62c53f83ff7fb3d324c36677,2022-07-06_09h54.06.867,Colour_Asymmetry_Pilot,2022.1.3,Win32,59.9268892,62c50e9c1127f2cd403a315f,0,88,88,124,1,threeone,,,,,,,,,,,,,,,,,,,,,,,,,,,,,,,,,,,,,,,,,,,,,,,,,,,,,,,,,,,,,,,,,,,,,,,,,,,,,,,,,,,,,,,,,,,,,,,,,,,,,,,,,,,,,,,,,,,,,,,,,,,,,,,,,,,,,,,,,,,,,,,,,,,,,,,,,,,,,
,,,,,,58c62eac444ade00010231a9,62c53f83ff7fb3d324c36677,2022-07-06_09h54.06.867,Colour_Asymmetry_Pilot,2022.1.3,Win32,59.9268892,62c50e9c1127f2cd403a315f,0,89,89,66,1,twoone,,,,,,,,,,,,,,,,,,,,,,,,,,,,,,,,,,,,,,,,,,,,,,,,,,,,,,,,,,,,,,,,,,,,,,,,,,,,,,,,,,,,,,,,,,,,,,,,,,,,,,,,,,,,,,,,,,,,,,,,,,,,,,,,,,,,,,,,,,,,,,,,,,,,,,,,,,,,,
,,,,,,58c62eac444ade00010231a9,62c53f83ff7fb3d324c36677,2022-07-06_09h54.06.867,Colour_Asymmetry_Pilot,2022.1.3,Win32,59.9268892,62c50e9c1127f2cd403a315f,0,90,90,50,1,twoone,,,,,,,,,,,,,,,,,,,,,,,,,,,,,,,,,,,,,,,,,,,,,,,,,,,,,,,,,,,,,,,,,,,,,,,,,,,,,,,,,,,,,,,,,,,,,,,,,,,,,,,,,,,,,,,,,,,,,,,,,,,,,,,,,,,,,,,,,,,,,,,,,,,,,,,,,,,,,
,,,,,,58c62eac444ade00010231a9,62c53f83ff7fb3d324c36677,2022-07-06_09h54.06.867,Colour_Asymmetry_Pilot,2022.1.3,Win32,59.9268892,62c50e9c1127f2cd403a315f,0,91,91,102,1,fourtwo,,,,,,,,,,,,,,,,,,,,,,,,,,,,,,,,,,,,,,,,,,,,,,,,,,,,,,,,,,,,,,,,,,,,,,,,,,,,,,,,,,,,,,,,,,,,,,,,,,,,,,,,,,,,,,,,,,,,,,,,,,,,,,,,,,,,,,,,,,,,,,,,,,,,,,,,,,,,,
,,,,,,58c62eac444ade00010231a9,62c53f83ff7fb3d324c36677,2022-07-06_09h54.06.867,Colour_Asymmetry_Pilot,2022.1.3,Win32,59.9268892,62c50e9c1127f2cd403a315f,0,92,92,16,1,onetwo,,,,,,,,,,,,,,,,,,,,,,,,,,,,,,,,,,,,,,,,,,,,,,,,,,,,,,,,,,,,,,,,,,,,,,,,,,,,,,,,,,,,,,,,,,,,,,,,,,,,,,,,,,,,,,,,,,,,,,,,,,,,,,,,,,,,,,,,,,,,,,,,,,,,,,,,,,,,,
,,,,,,58c62eac444ade00010231a9,62c53f83ff7fb3d324c36677,2022-07-06_09h54.06.867,Colour_Asymmetry_Pilot,2022.1.3,Win32,59.9268892,62c50e9c1127f2cd403a315f,0,93,93,85,1,threefour,,,,,,,,,,,,,,,,,,,,,,,,,,,,,,,,,,,,,,,,,,,,,,,,,,,,,,,,,,,,,,,,,,,,,,,,,,,,,,,,,,,,,,,,,,,,,,,,,,,,,,,,,,,,,,,,,,,,,,,,,,,,,,,,,,,,,,,,,,,,,,,,,,,,,,,,,,,,,
,,,,,,58c62eac444ade00010231a9,62c53f83ff7fb3d324c36677,2022-07-06_09h54.06.867,Colour_Asymmetry_Pilot,2022.1.3,Win32,59.9268892,62c50e9c1127f2cd403a315f,0,94,94,11,1,twofour,,,,,,,,,,,,,,,,,,,,,,,,,,,,,,,,,,,,,,,,,,,,,,,,,,,,,,,,,,,,,,,,,,,,,,,,,,,,,,,,,,,,,,,,,,,,,,,,,,,,,,,,,,,,,,,,,,,,,,,,,,,,,,,,,,,,,,,,,,,,,,,,,,,,,,,,,,,,,
,,,,,,58c62eac444ade00010231a9,62c53f83ff7fb3d324c36677,2022-07-06_09h54.06.867,Colour_Asymmetry_Pilot,2022.1.3,Win32,59.9268892,62c50e9c1127f2cd403a315f,0,95,95,61,1,threefour,,,,,,,,,,,,,,,,,,,,,,,,,,,,,,,,,,,,,,,,,,,,,,,,,,,,,,,,,,,,,,,,,,,,,,,,,,,,,,,,,,,,,,,,,,,,,,,,,,,,,,,,,,,,,,,,,,,,,,,,,,,,,,,,,,,,,,,,,,,,,,,,,,,,,,,,,,,,,
,,,,,,58c62eac444ade00010231a9,62c53f83ff7fb3d324c36677,2022-07-06_09h54.06.867,Colour_Asymmetry_Pilot,2022.1.3,Win32,59.9268892,62c50e9c1127f2cd403a315f,0,96,96,151,1,fourthree,,,,,,,,,,,,,,,,,,,,,,,,,,,,,,,,,,,,,,,,,,,,,,,,,,,,,,,,,,,,,,,,,,,,,,,,,,,,,,,,,,,,,,,,,,,,,,,,,,,,,,,,,,,,,,,,,,,,,,,,,,,,,,,,,,,,,,,,,,,,,,,,,,,,,,,,,,,,,
,,,,,,58c62eac444ade00010231a9,62c53f83ff7fb3d324c36677,2022-07-06_09h54.06.867,Colour_Asymmetry_Pilot,2022.1.3,Win32,59.9268892,62c50e9c1127f2cd403a315f,0,97,97,108,1,threeone,,,,,,,,,,,,,,,,,,,,,,,,,,,,,,,,,,,,,,,,,,,,,,,,,,,,,,,,,,,,,,,,,,,,,,,,,,,,,,,,,,,,,,,,,,,,,,,,,,,,,,,,,,,,,,,,,,,,,,,,,,,,,,,,,,,,,,,,,,,,,,,,,,,,,,,,,,,,,
,,,,,,58c62eac444ade00010231a9,62c53f83ff7fb3d324c36677,2022-07-06_09h54.06.867,Colour_Asymmetry_Pilot,2022.1.3,Win32,59.9268892,62c50e9c1127f2cd403a315f,0,98,98,19,1,twofour,,,,,,,,,,,,,,,,,,,,,,,,,,,,,,,,,,,,,,,,,,,,,,,,,,,,,,,,,,,,,,,,,,,,,,,,,,,,,,,,,,,,,,,,,,,,,,,,,,,,,,,,,,,,,,,,,,,,,,,,,,,,,,,,,,,,,,,,,,,,,,,,,,,,,,,,,,,,,
,,,,,,58c62eac444ade00010231a9,62c53f83ff7fb3d324c36677,2022-07-06_09h54.06.867,Colour_Asymmetry_Pilot,2022.1.3,Win32,59.9268892,62c50e9c1127f2cd403a315f,0,99,99,46,1,fourtwo,,,,,,,,,,,,,,,,,,,,,,,,,,,,,,,,,,,,,,,,,,,,,,,,,,,,,,,,,,,,,,,,,,,,,,,,,,,,,,,,,,,,,,,,,,,,,,,,,,,,,,,,,,,,,,,,,,,,,,,,,,,,,,,,,,,,,,,,,,,,,,,,,,,,,,,,,,,,,
,,,,,,58c62eac444ade00010231a9,62c53f83ff7fb3d324c36677,2022-07-06_09h54.06.867,Colour_Asymmetry_Pilot,2022.1.3,Win32,59.9268892,62c50e9c1127f2cd403a315f,0,100,100,4,1,threeone,,,,,,,,,,,,,,,,,,,,,,,,,,,,,,,,,,,,,,,,,,,,,,,,,,,,,,,,,,,,,,,,,,,,,,,,,,,,,,,,,,,,,,,,,,,,,,,,,,,,,,,,,,,,,,,,,,,,,,,,,,,,,,,,,,,,,,,,,,,,,,,,,,,,,,,,,,,,,
,,,,,,58c62eac444ade00010231a9,62c53f83ff7fb3d324c36677,2022-07-06_09h54.06.867,Colour_Asymmetry_Pilot,2022.1.3,Win32,59.9268892,62c50e9c1127f2cd403a315f,0,101,101,30,1,fourtwo,,,,,,,,,,,,,,,,,,,,,,,,,,,,,,,,,,,,,,,,,,,,,,,,,,,,,,,,,,,,,,,,,,,,,,,,,,,,,,,,,,,,,,,,,,,,,,,,,,,,,,,,,,,,,,,,,,,,,,,,,,,,,,,,,,,,,,,,,,,,,,,,,,,,,,,,,,,,,
,,,,,,58c62eac444ade00010231a9,62c53f83ff7fb3d324c36677,2022-07-06_09h54.06.867,Colour_Asymmetry_Pilot,2022.1.3,Win32,59.9268892,62c50e9c1127f2cd403a315f,0,102,102,9,1,onethree,,,,,,,,,,,,,,,,,,,,,,,,,,,,,,,,,,,,,,,,,,,,,,,,,,,,,,,,,,,,,,,,,,,,,,,,,,,,,,,,,,,,,,,,,,,,,,,,,,,,,,,,,,,,,,,,,,,,,,,,,,,,,,,,,,,,,,,,,,,,,,,,,,,,,,,,,,,,,
,,,,,,58c62eac444ade00010231a9,62c53f83ff7fb3d324c36677,2022-07-06_09h54.06.867,Colour_Asymmetry_Pilot,2022.1.3,Win32,59.9268892,62c50e9c1127f2cd403a315f,0,103,103,13,1,threefour,,,,,,,,,,,,,,,,,,,,,,,,,,,,,,,,,,,,,,,,,,,,,,,,,,,,,,,,,,,,,,,,,,,,,,,,,,,,,,,,,,,,,,,,,,,,,,,,,,,,,,,,,,,,,,,,,,,,,,,,,,,,,,,,,,,,,,,,,,,,,,,,,,,,,,,,,,,,,
,,,,,,58c62eac444ade00010231a9,62c53f83ff7fb3d324c36677,2022-07-06_09h54.06.867,Colour_Asymmetry_Pilot,2022.1.3,Win32,59.9268892,62c50e9c1127f2cd403a315f,0,104,104,128,1,onetwo,,,,,,,,,,,,,,,,,,,,,,,,,,,,,,,,,,,,,,,,,,,,,,,,,,,,,,,,,,,,,,,,,,,,,,,,,,,,,,,,,,,,,,,,,,,,,,,,,,,,,,,,,,,,,,,,,,,,,,,,,,,,,,,,,,,,,,,,,,,,,,,,,,,,,,,,,,,,,
,,,,,,58c62eac444ade00010231a9,62c53f83ff7fb3d324c36677,2022-07-06_09h54.06.867,Colour_Asymmetry_Pilot,2022.1.3,Win32,59.9268892,62c50e9c1127f2cd403a315f,0,105,105,79,1,fourthree,,,,,,,,,,,,,,,,,,,,,,,,,,,,,,,,,,,,,,,,,,,,,,,,,,,,,,,,,,,,,,,,,,,,,,,,,,,,,,,,,,,,,,,,,,,,,,,,,,,,,,,,,,,,,,,,,,,,,,,,,,,,,,,,,,,,,,,,,,,,,,,,,,,,,,,,,,,,,
,,,,,,58c62eac444ade00010231a9,62c53f83ff7fb3d324c36677,2022-07-06_09h54.06.867,Colour_Asymmetry_Pilot,2022.1.3,Win32,59.9268892,62c50e9c1127f2cd403a315f,0,106,106,113,1,onethree,,,,,,,,,,,,,,,,,,,,,,,,,,,,,,,,,,,,,,,,,,,,,,,,,,,,,,,,,,,,,,,,,,,,,,,,,,,,,,,,,,,,,,,,,,,,,,,,,,,,,,,,,,,,,,,,,,,,,,,,,,,,,,,,,,,,,,,,,,,,,,,,,,,,,,,,,,,,,
,,,,,,58c62eac444ade00010231a9,62c53f83ff7fb3d324c36677,2022-07-06_09h54.06.867,Colour_Asymmetry_Pilot,2022.1.3,Win32,59.9268892,62c50e9c1127f2cd403a315f,0,107,107,53,1,threefour,,,,,,,,,,,,,,,,,,,,,,,,,,,,,,,,,,,,,,,,,,,,,,,,,,,,,,,,,,,,,,,,,,,,,,,,,,,,,,,,,,,,,,,,,,,,,,,,,,,,,,,,,,,,,,,,,,,,,,,,,,,,,,,,,,,,,,,,,,,,,,,,,,,,,,,,,,,,,
,,,,,,58c62eac444ade00010231a9,62c53f83ff7fb3d324c36677,2022-07-06_09h54.06.867,Colour_Asymmetry_Pilot,2022.1.3,Win32,59.9268892,62c50e9c1127f2cd403a315f,0,108,108,117,1,threefour,,,,,,,,,,,,,,,,,,,,,,,,,,,,,,,,,,,,,,,,,,,,,,,,,,,,,,,,,,,,,,,,,,,,,,,,,,,,,,,,,,,,,,,,,,,,,,,,,,,,,,,,,,,,,,,,,,,,,,,,,,,,,,,,,,,,,,,,,,,,,,,,,,,,,,,,,,,,,
,,,,,,58c62eac444ade00010231a9,62c53f83ff7fb3d324c36677,2022-07-06_09h54.06.867,Colour_Asymmetry_Pilot,2022.1.3,Win32,59.9268892,62c50e9c1127f2cd403a315f,0,109,109,17,1,onethree,,,,,,,,,,,,,,,,,,,,,,,,,,,,,,,,,,,,,,,,,,,,,,,,,,,,,,,,,,,,,,,,,,,,,,,,,,,,,,,,,,,,,,,,,,,,,,,,,,,,,,,,,,,,,,,,,,,,,,,,,,,,,,,,,,,,,,,,,,,,,,,,,,,,,,,,,,,,,
,,,,,,58c62eac444ade00010231a9,62c53f83ff7fb3d324c36677,2022-07-06_09h54.06.867,Colour_Asymmetry_Pilot,2022.1.3,Win32,59.9268892,62c50e9c1127f2cd403a315f,0,110,110,148,1,threeone,,,,,,,,,,,,,,,,,,,,,,,,,,,,,,,,,,,,,,,,,,,,,,,,,,,,,,,,,,,,,,,,,,,,,,,,,,,,,,,,,,,,,,,,,,,,,,,,,,,,,,,,,,,,,,,,,,,,,,,,,,,,,,,,,,,,,,,,,,,,,,,,,,,,,,,,,,,,,
,,,,,,58c62eac444ade00010231a9,62c53f83ff7fb3d324c36677,2022-07-06_09h54.06.867,Colour_Asymmetry_Pilot,2022.1.3,Win32,59.9268892,62c50e9c1127f2cd403a315f,0,111,111,60,1,threeone,,,,,,,,,,,,,,,,,,,,,,,,,,,,,,,,,,,,,,,,,,,,,,,,,,,,,,,,,,,,,,,,,,,,,,,,,,,,,,,,,,,,,,,,,,,,,,,,,,,,,,,,,,,,,,,,,,,,,,,,,,,,,,,,,,,,,,,,,,,,,,,,,,,,,,,,,,,,,
,,,,,,58c62eac444ade00010231a9,62c53f83ff7fb3d324c36677,2022-07-06_09h54.06.867,Colour_Asymmetry_Pilot,2022.1.3,Win32,59.9268892,62c50e9c1127f2cd403a315f,0,112,112,136,1,onetwo,,,,,,,,,,,,,,,,,,,,,,,,,,,,,,,,,,,,,,,,,,,,,,,,,,,,,,,,,,,,,,,,,,,,,,,,,,,,,,,,,,,,,,,,,,,,,,,,,,,,,,,,,,,,,,,,,,,,,,,,,,,,,,,,,,,,,,,,,,,,,,,,,,,,,,,,,,,,,
,,,,,,58c62eac444ade00010231a9,62c53f83ff7fb3d324c36677,2022-07-06_09h54.06.867,Colour_Asymmetry_Pilot,2022.1.3,Win32,59.9268892,62c50e9c1127f2cd403a315f,0,113,113,131,1,twofour,,,,,,,,,,,,,,,,,,,,,,,,,,,,,,,,,,,,,,,,,,,,,,,,,,,,,,,,,,,,,,,,,,,,,,,,,,,,,,,,,,,,,,,,,,,,,,,,,,,,,,,,,,,,,,,,,,,,,,,,,,,,,,,,,,,,,,,,,,,,,,,,,,,,,,,,,,,,,
,,,,,,58c62eac444ade00010231a9,62c53f83ff7fb3d324c36677,2022-07-06_09h54.06.867,Colour_Asymmetry_Pilot,2022.1.3,Win32,59.9268892,62c50e9c1127f2cd403a315f,0,114,114,55,1,fourthree,,,,,,,,,,,,,,,,,,,,,,,,,,,,,,,,,,,,,,,,,,,,,,,,,,,,,,,,,,,,,,,,,,,,,,,,,,,,,,,,,,,,,,,,,,,,,,,,,,,,,,,,,,,,,,,,,,,,,,,,,,,,,,,,,,,,,,,,,,,,,,,,,,,,,,,,,,,,,
,,,,,,58c62eac444ade00010231a9,62c53f83ff7fb3d324c36677,2022-07-06_09h54.06.867,Colour_Asymmetry_Pilot,2022.1.3,Win32,59.9268892,62c50e9c1127f2cd403a315f,0,115,115,90,1,twoone,,,,,,,,,,,,,,,,,,,,,,,,,,,,,,,,,,,,,,,,,,,,,,,,,,,,,,,,,,,,,,,,,,,,,,,,,,,,,,,,,,,,,,,,,,,,,,,,,,,,,,,,,,,,,,,,,,,,,,,,,,,,,,,,,,,,,,,,,,,,,,,,,,,,,,,,,,,,,
,,,,,,58c62eac444ade00010231a9,62c53f83ff7fb3d324c36677,2022-07-06_09h54.06.867,Colour_Asymmetry_Pilot,2022.1.3,Win32,59.9268892,62c50e9c1127f2cd403a315f,0,116,116,70,1,fourtwo,,,,,,,,,,,,,,,,,,,,,,,,,,,,,,,,,,,,,,,,,,,,,,,,,,,,,,,,,,,,,,,,,,,,,,,,,,,,,,,,,,,,,,,,,,,,,,,,,,,,,,,,,,,,,,,,,,,,,,,,,,,,,,,,,,,,,,,,,,,,,,,,,,,,,,,,,,,,,
,,,,,,58c62eac444ade00010231a9,62c53f83ff7fb3d324c36677,2022-07-06_09h54.06.867,Colour_Asymmetry_Pilot,2022.1.3,Win32,59.9268892,62c50e9c1127f2cd403a315f,0,117,117,33,1,onethree,,,,,,,,,,,,,,,,,,,,,,,,,,,,,,,,,,,,,,,,,,,,,,,,,,,,,,,,,,,,,,,,,,,,,,,,,,,,,,,,,,,,,,,,,,,,,,,,,,,,,,,,,,,,,,,,,,,,,,,,,,,,,,,,,,,,,,,,,,,,,,,,,,,,,,,,,,,,,
,,,,,,58c62eac444ade00010231a9,62c53f83ff7fb3d324c36677,2022-07-06_09h54.06.867,Colour_Asymmetry_Pilot,2022.1.3,Win32,59.9268892,62c50e9c1127f2cd403a315f,0,118,118,111,1,fourthree,,,,,,,,,,,,,,,,,,,,,,,,,,,,,,,,,,,,,,,,,,,,,,,,,,,,,,,,,,,,,,,,,,,,,,,,,,,,,,,,,,,,,,,,,,,,,,,,,,,,,,,,,,,,,,,,,,,,,,,,,,,,,,,,,,,,,,,,,,,,,,,,,,,,,,,,,,,,,
,,,,,,58c62eac444ade00010231a9,62c53f83ff7fb3d324c36677,2022-07-06_09h54.06.867,Colour_Asymmetry_Pilot,2022.1.3,Win32,59.9268892,62c50e9c1127f2cd403a315f,0,119,119,132,1,threeone,,,,,,,,,,,,,,,,,,,,,,,,,,,,,,,,,,,,,,,,,,,,,,,,,,,,,,,,,,,,,,,,,,,,,,,,,,,,,,,,,,,,,,,,,,,,,,,,,,,,,,,,,,,,,,,,,,,,,,,,,,,,,,,,,,,,,,,,,,,,,,,,,,,,,,,,,,,,,
,,,,,,58c62eac444ade00010231a9,62c53f83ff7fb3d324c36677,2022-07-06_09h54.06.867,Colour_Asymmetry_Pilot,2022.1.3,Win32,59.9268892,62c50e9c1127f2cd403a315f,0,120,120,82,1,twoone,,,,,,,,,,,,,,,,,,,,,,,,,,,,,,,,,,,,,,,,,,,,,,,,,,,,,,,,,,,,,,,,,,,,,,,,,,,,,,,,,,,,,,,,,,,,,,,,,,,,,,,,,,,,,,,,,,,,,,,,,,,,,,,,,,,,,,,,,,,,,,,,,,,,,,,,,,,,,
,,,,,,58c62eac444ade00010231a9,62c53f83ff7fb3d324c36677,2022-07-06_09h54.06.867,Colour_Asymmetry_Pilot,2022.1.3,Win32,59.9268892,62c50e9c1127f2cd403a315f,0,121,121,115,1,twofour,,,,,,,,,,,,,,,,,,,,,,,,,,,,,,,,,,,,,,,,,,,,,,,,,,,,,,,,,,,,,,,,,,,,,,,,,,,,,,,,,,,,,,,,,,,,,,,,,,,,,,,,,,,,,,,,,,,,,,,,,,,,,,,,,,,,,,,,,,,,,,,,,,,,,,,,,,,,,
,,,,,,58c62eac444ade00010231a9,62c53f83ff7fb3d324c36677,2022-07-06_09h54.06.867,Colour_Asymmetry_Pilot,2022.1.3,Win32,59.9268892,62c50e9c1127f2cd403a315f,0,122,122,23,1,fourthree,,,,,,,,,,,,,,,,,,,,,,,,,,,,,,,,,,,,,,,,,,,,,,,,,,,,,,,,,,,,,,,,,,,,,,,,,,,,,,,,,,,,,,,,,,,,,,,,,,,,,,,,,,,,,,,,,,,,,,,,,,,,,,,,,,,,,,,,,,,,,,,,,,,,,,,,,,,,,
,,,,,,58c62eac444ade00010231a9,62c53f83ff7fb3d324c36677,2022-07-06_09h54.06.867,Colour_Asymmetry_Pilot,2022.1.3,Win32,59.9268892,62c50e9c1127f2cd403a315f,0,123,123,94,1,fourtwo,,,,,,,,,,,,,,,,,,,,,,,,,,,,,,,,,,,,,,,,,,,,,,,,,,,,,,,,,,,,,,,,,,,,,,,,,,,,,,,,,,,,,,,,,,,,,,,,,,,,,,,,,,,,,,,,,,,,,,,,,,,,,,,,,,,,,,,,,,,,,,,,,,,,,,,,,,,,,
,,,,,,58c62eac444ade00010231a9,62c53f83ff7fb3d324c36677,2022-07-06_09h54.06.867,Colour_Asymmetry_Pilot,2022.1.3,Win32,59.9268892,62c50e9c1127f2cd403a315f,0,124,124,98,1,twoone,,,,,,,,,,,,,,,,,,,,,,,,,,,,,,,,,,,,,,,,,,,,,,,,,,,,,,,,,,,,,,,,,,,,,,,,,,,,,,,,,,,,,,,,,,,,,,,,,,,,,,,,,,,,,,,,,,,,,,,,,,,,,,,,,,,,,,,,,,,,,,,,,,,,,,,,,,,,,
,,,,,,58c62eac444ade00010231a9,62c53f83ff7fb3d324c36677,2022-07-06_09h54.06.867,Colour_Asymmetry_Pilot,2022.1.3,Win32,59.9268892,62c50e9c1127f2cd403a315f,0,125,125,99,1,twofour,,,,,,,,,,,,,,,,,,,,,,,,,,,,,,,,,,,,,,,,,,,,,,,,,,,,,,,,,,,,,,,,,,,,,,,,,,,,,,,,,,,,,,,,,,,,,,,,,,,,,,,,,,,,,,,,,,,,,,,,,,,,,,,,,,,,,,,,,,,,,,,,,,,,,,,,,,,,,
,,,,,,58c62eac444ade00010231a9,62c53f83ff7fb3d324c36677,2022-07-06_09h54.06.867,Colour_Asymmetry_Pilot,2022.1.3,Win32,59.9268892,62c50e9c1127f2cd403a315f,0,126,126,7,1,fourthree,,,,,,,,,,,,,,,,,,,,,,,,,,,,,,,,,,,,,,,,,,,,,,,,,,,,,,,,,,,,,,,,,,,,,,,,,,,,,,,,,,,,,,,,,,,,,,,,,,,,,,,,,,,,,,,,,,,,,,,,,,,,,,,,,,,,,,,,,,,,,,,,,,,,,,,,,,,,,
,,,,,,58c62eac444ade00010231a9,62c53f83ff7fb3d324c36677,2022-07-06_09h54.06.867,Colour_Asymmetry_Pilot,2022.1.3,Win32,59.9268892,62c50e9c1127f2cd403a315f,0,127,127,18,1,twoone,,,,,,,,,,,,,,,,,,,,,,,,,,,,,,,,,,,,,,,,,,,,,,,,,,,,,,,,,,,,,,,,,,,,,,,,,,,,,,,,,,,,,,,,,,,,,,,,,,,,,,,,,,,,,,,,,,,,,,,,,,,,,,,,,,,,,,,,,,,,,,,,,,,,,,,,,,,,,
,,,,,,58c62eac444ade00010231a9,62c53f83ff7fb3d324c36677,2022-07-06_09h54.06.867,Colour_Asymmetry_Pilot,2022.1.3,Win32,59.9268892,62c50e9c1127f2cd403a315f,0,128,128,160,1,onetwo,,,,,,,,,,,,,,,,,,,,,,,,,,,,,,,,,,,,,,,,,,,,,,,,,,,,,,,,,,,,,,,,,,,,,,,,,,,,,,,,,,,,,,,,,,,,,,,,,,,,,,,,,,,,,,,,,,,,,,,,,,,,,,,,,,,,,,,,,,,,,,,,,,,,,,,,,,,,,
,,,,,,58c62eac444ade00010231a9,62c53f83ff7fb3d324c36677,2022-07-06_09h54.06.867,Colour_Asymmetry_Pilot,2022.1.3,Win32,59.9268892,62c50e9c1127f2cd403a315f,0,129,129,129,1,onethree,,,,,,,,,,,,,,,,,,,,,,,,,,,,,,,,,,,,,,,,,,,,,,,,,,,,,,,,,,,,,,,,,,,,,,,,,,,,,,,,,,,,,,,,,,,,,,,,,,,,,,,,,,,,,,,,,,,,,,,,,,,,,,,,,,,,,,,,,,,,,,,,,,,,,,,,,,,,,
,,,,,,58c62eac444ade00010231a9,62c53f83ff7fb3d324c36677,2022-07-06_09h54.06.867,Colour_Asymmetry_Pilot,2022.1.3,Win32,59.9268892,62c50e9c1127f2cd403a315f,0,130,130,153,1,onethree,,,,,,,,,,,,,,,,,,,,,,,,,,,,,,,,,,,,,,,,,,,,,,,,,,,,,,,,,,,,,,,,,,,,,,,,,,,,,,,,,,,,,,,,,,,,,,,,,,,,,,,,,,,,,,,,,,,,,,,,,,,,,,,,,,,,,,,,,,,,,,,,,,,,,,,,,,,,,
,,,,,,58c62eac444ade00010231a9,62c53f83ff7fb3d324c36677,2022-07-06_09h54.06.867,Colour_Asymmetry_Pilot,2022.1.3,Win32,59.9268892,62c50e9c1127f2cd403a315f,0,131,131,35,1,twofour,,,,,,,,,,,,,,,,,,,,,,,,,,,,,,,,,,,,,,,,,,,,,,,,,,,,,,,,,,,,,,,,,,,,,,,,,,,,,,,,,,,,,,,,,,,,,,,,,,,,,,,,,,,,,,,,,,,,,,,,,,,,,,,,,,,,,,,,,,,,,,,,,,,,,,,,,,,,,
,,,,,,58c62eac444ade00010231a9,62c53f83ff7fb3d324c36677,2022-07-06_09h54.06.867,Colour_Asymmetry_Pilot,2022.1.3,Win32,59.9268892,62c50e9c1127f2cd403a315f,0,132,132,63,1,fourthree,,,,,,,,,,,,,,,,,,,,,,,,,,,,,,,,,,,,,,,,,,,,,,,,,,,,,,,,,,,,,,,,,,,,,,,,,,,,,,,,,,,,,,,,,,,,,,,,,,,,,,,,,,,,,,,,,,,,,,,,,,,,,,,,,,,,,,,,,,,,,,,,,,,,,,,,,,,,,
,,,,,,58c62eac444ade00010231a9,62c53f83ff7fb3d324c36677,2022-07-06_09h54.06.867,Colour_Asymmetry_Pilot,2022.1.3,Win32,59.9268892,62c50e9c1127f2cd403a315f,0,133,133,72,1,onetwo,,,,,,,,,,,,,,,,,,,,,,,,,,,,,,,,,,,,,,,,,,,,,,,,,,,,,,,,,,,,,,,,,,,,,,,,,,,,,,,,,,,,,,,,,,,,,,,,,,,,,,,,,,,,,,,,,,,,,,,,,,,,,,,,,,,,,,,,,,,,,,,,,,,,,,,,,,,,,
,,,,,,58c62eac444ade00010231a9,62c53f83ff7fb3d324c36677,2022-07-06_09h54.06.867,Colour_Asymmetry_Pilot,2022.1.3,Win32,59.9268892,62c50e9c1127f2cd403a315f,0,134,134,125,1,threefour,,,,,,,,,,,,,,,,,,,,,,,,,,,,,,,,,,,,,,,,,,,,,,,,,,,,,,,,,,,,,,,,,,,,,,,,,,,,,,,,,,,,,,,,,,,,,,,,,,,,,,,,,,,,,,,,,,,,,,,,,,,,,,,,,,,,,,,,,,,,,,,,,,,,,,,,,,,,,
,,,,,,58c62eac444ade00010231a9,62c53f83ff7fb3d324c36677,2022-07-06_09h54.06.867,Colour_Asymmetry_Pilot,2022.1.3,Win32,59.9268892,62c50e9c1127f2cd403a315f,0,135,135,133,1,threefour,,,,,,,,,,,,,,,,,,,,,,,,,,,,,,,,,,,,,,,,,,,,,,,,,,,,,,,,,,,,,,,,,,,,,,,,,,,,,,,,,,,,,,,,,,,,,,,,,,,,,,,,,,,,,,,,,,,,,,,,,,,,,,,,,,,,,,,,,,,,,,,,,,,,,,,,,,,,,
,,,,,,58c62eac444ade00010231a9,62c53f83ff7fb3d324c36677,2022-07-06_09h54.06.867,Colour_Asymmetry_Pilot,2022.1.3,Win32,59.9268892,62c50e9c1127f2cd403a315f,0,136,136,75,1,twofour,,,,,,,,,,,,,,,,,,,,,,,,,,,,,,,,,,,,,,,,,,,,,,,,,,,,,,,,,,,,,,,,,,,,,,,,,,,,,,,,,,,,,,,,,,,,,,,,,,,,,,,,,,,,,,,,,,,,,,,,,,,,,,,,,,,,,,,,,,,,,,,,,,,,,,,,,,,,,
,,,,,,58c62eac444ade00010231a9,62c53f83ff7fb3d324c36677,2022-07-06_09h54.06.867,Colour_Asymmetry_Pilot,2022.1.3,Win32,59.9268892,62c50e9c1127f2cd403a315f,0,137,137,161,1,onethree,,,,,,,,,,,,,,,,,,,,,,,,,,,,,,,,,,,,,,,,,,,,,,,,,,,,,,,,,,,,,,,,,,,,,,,,,,,,,,,,,,,,,,,,,,,,,,,,,,,,,,,,,,,,,,,,,,,,,,,,,,,,,,,,,,,,,,,,,,,,,,,,,,,,,,,,,,,,,
,,,,,,58c62eac444ade00010231a9,62c53f83ff7fb3d324c36677,2022-07-06_09h54.06.867,Colour_Asymmetry_Pilot,2022.1.3,Win32,59.9268892,62c50e9c1127f2cd403a315f,0,138,138,134,1,fourtwo,,,,,,,,,,,,,,,,,,,,,,,,,,,,,,,,,,,,,,,,,,,,,,,,,,,,,,,,,,,,,,,,,,,,,,,,,,,,,,,,,,,,,,,,,,,,,,,,,,,,,,,,,,,,,,,,,,,,,,,,,,,,,,,,,,,,,,,,,,,,,,,,,,,,,,,,,,,,,
,,,,,,58c62eac444ade00010231a9,62c53f83ff7fb3d324c36677,2022-07-06_09h54.06.867,Colour_Asymmetry_Pilot,2022.1.3,Win32,59.9268892,62c50e9c1127f2cd403a315f,0,139,139,48,1,onetwo,,,,,,,,,,,,,,,,,,,,,,,,,,,,,,,,,,,,,,,,,,,,,,,,,,,,,,,,,,,,,,,,,,,,,,,,,,,,,,,,,,,,,,,,,,,,,,,,,,,,,,,,,,,,,,,,,,,,,,,,,,,,,,,,,,,,,,,,,,,,,,,,,,,,,,,,,,,,,
,,,,,,58c62eac444ade00010231a9,62c53f83ff7fb3d324c36677,2022-07-06_09h54.06.867,Colour_Asymmetry_Pilot,2022.1.3,Win32,59.9268892,62c50e9c1127f2cd403a315f,0,140,140,26,1,twoone,,,,,,,,,,,,,,,,,,,,,,,,,,,,,,,,,,,,,,,,,,,,,,,,,,,,,,,,,,,,,,,,,,,,,,,,,,,,,,,,,,,,,,,,,,,,,,,,,,,,,,,,,,,,,,,,,,,,,,,,,,,,,,,,,,,,,,,,,,,,,,,,,,,,,,,,,,,,,
,,,,,,58c62eac444ade00010231a9,62c53f83ff7fb3d324c36677,2022-07-06_09h54.06.867,Colour_Asymmetry_Pilot,2022.1.3,Win32,59.9268892,62c50e9c1127f2cd403a315f,0,141,141,69,1,threefour,,,,,,,,,,,,,,,,,,,,,,,,,,,,,,,,,,,,,,,,,,,,,,,,,,,,,,,,,,,,,,,,,,,,,,,,,,,,,,,,,,,,,,,,,,,,,,,,,,,,,,,,,,,,,,,,,,,,,,,,,,,,,,,,,,,,,,,,,,,,,,,,,,,,,,,,,,,,,
,,,,,,58c62eac444ade00010231a9,62c53f83ff7fb3d324c36677,2022-07-06_09h54.06.867,Colour_Asymmetry_Pilot,2022.1.3,Win32,59.9268892,62c50e9c1127f2cd403a315f,0,142,142,21,1,threefour,,,,,,,,,,,,,,,,,,,,,,,,,,,,,,,,,,,,,,,,,,,,,,,,,,,,,,,,,,,,,,,,,,,,,,,,,,,,,,,,,,,,,,,,,,,,,,,,,,,,,,,,,,,,,,,,,,,,,,,,,,,,,,,,,,,,,,,,,,,,,,,,,,,,,,,,,,,,,
,,,,,,58c62eac444ade00010231a9,62c53f83ff7fb3d324c36677,2022-07-06_09h54.06.867,Colour_Asymmetry_Pilot,2022.1.3,Win32,59.9268892,62c50e9c1127f2cd403a315f,0,143,143,14,1,fourtwo,,,,,,,,,,,,,,,,,,,,,,,,,,,,,,,,,,,,,,,,,,,,,,,,,,,,,,,,,,,,,,,,,,,,,,,,,,,,,,,,,,,,,,,,,,,,,,,,,,,,,,,,,,,,,,,,,,,,,,,,,,,,,,,,,,,,,,,,,,,,,,,,,,,,,,,,,,,,,
,,,,,,58c62eac444ade00010231a9,62c53f83ff7fb3d324c36677,2022-07-06_09h54.06.867,Colour_Asymmetry_Pilot,2022.1.3,Win32,59.9268892,62c50e9c1127f2cd403a315f,0,144,144,10,1,twoone,,,,,,,,,,,,,,,,,,,,,,,,,,,,,,,,,,,,,,,,,,,,,,,,,,,,,,,,,,,,,,,,,,,,,,,,,,,,,,,,,,,,,,,,,,,,,,,,,,,,,,,,,,,,,,,,,,,,,,,,,,,,,,,,,,,,,,,,,,,,,,,,,,,,,,,,,,,,,
,,,,,,58c62eac444ade00010231a9,62c53f83ff7fb3d324c36677,2022-07-06_09h54.06.867,Colour_Asymmetry_Pilot,2022.1.3,Win32,59.9268892,62c50e9c1127f2cd403a315f,0,145,145,97,1,onethree,,,,,,,,,,,,,,,,,,,,,,,,,,,,,,,,,,,,,,,,,,,,,,,,,,,,,,,,,,,,,,,,,,,,,,,,,,,,,,,,,,,,,,,,,,,,,,,,,,,,,,,,,,,,,,,,,,,,,,,,,,,,,,,,,,,,,,,,,,,,,,,,,,,,,,,,,,,,,
,,,,,,58c62eac444ade00010231a9,62c53f83ff7fb3d324c36677,2022-07-06_09h54.06.867,Colour_Asymmetry_Pilot,2022.1.3,Win32,59.9268892,62c50e9c1127f2cd403a315f,0,146,146,121,1,onethree,,,,,,,,,,,,,,,,,,,,,,,,,,,,,,,,,,,,,,,,,,,,,,,,,,,,,,,,,,,,,,,,,,,,,,,,,,,,,,,,,,,,,,,,,,,,,,,,,,,,,,,,,,,,,,,,,,,,,,,,,,,,,,,,,,,,,,,,,,,,,,,,,,,,,,,,,,,,,
,,,,,,58c62eac444ade00010231a9,62c53f83ff7fb3d324c36677,2022-07-06_09h54.06.867,Colour_Asymmetry_Pilot,2022.1.3,Win32,59.9268892,62c50e9c1127f2cd403a315f,0,147,147,155,1,twofour,,,,,,,,,,,,,,,,,,,,,,,,,,,,,,,,,,,,,,,,,,,,,,,,,,,,,,,,,,,,,,,,,,,,,,,,,,,,,,,,,,,,,,,,,,,,,,,,,,,,,,,,,,,,,,,,,,,,,,,,,,,,,,,,,,,,,,,,,,,,,,,,,,,,,,,,,,,,,
,,,,,,58c62eac444ade00010231a9,62c53f83ff7fb3d324c36677,2022-07-06_09h54.06.867,Colour_Asymmetry_Pilot,2022.1.3,Win32,59.9268892,62c50e9c1127f2cd403a315f,0,148,148,104,1,onetwo,,,,,,,,,,,,,,,,,,,,,,,,,,,,,,,,,,,,,,,,,,,,,,,,,,,,,,,,,,,,,,,,,,,,,,,,,,,,,,,,,,,,,,,,,,,,,,,,,,,,,,,,,,,,,,,,,,,,,,,,,,,,,,,,,,,,,,,,,,,,,,,,,,,,,,,,,,,,,
,,,,,,58c62eac444ade00010231a9,62c53f83ff7fb3d324c36677,2022-07-06_09h54.06.867,Colour_Asymmetry_Pilot,2022.1.3,Win32,59.9268892,62c50e9c1127f2cd403a315f,0,149,149,156,1,threeone,,,,,,,,,,,,,,,,,,,,,,,,,,,,,,,,,,,,,,,,,,,,,,,,,,,,,,,,,,,,,,,,,,,,,,,,,,,,,,,,,,,,,,,,,,,,,,,,,,,,,,,,,,,,,,,,,,,,,,,,,,,,,,,,,,,,,,,,,,,,,,,,,,,,,,,,,,,,,
,,,,,,58c62eac444ade00010231a9,62c53f83ff7fb3d324c36677,2022-07-06_09h54.06.867,Colour_Asymmetry_Pilot,2022.1.3,Win32,59.9268892,62c50e9c1127f2cd403a315f,0,150,150,146,1,twoone,,,,,,,,,,,,,,,,,,,,,,,,,,,,,,,,,,,,,,,,,,,,,,,,,,,,,,,,,,,,,,,,,,,,,,,,,,,,,,,,,,,,,,,,,,,,,,,,,,,,,,,,,,,,,,,,,,,,,,,,,,,,,,,,,,,,,,,,,,,,,,,,,,,,,,,,,,,,,
,,,,,,58c62eac444ade00010231a9,62c53f83ff7fb3d324c36677,2022-07-06_09h54.06.867,Colour_Asymmetry_Pilot,2022.1.3,Win32,59.9268892,62c50e9c1127f2cd403a315f,0,151,151,71,1,fourthree,,,,,,,,,,,,,,,,,,,,,,,,,,,,,,,,,,,,,,,,,,,,,,,,,,,,,,,,,,,,,,,,,,,,,,,,,,,,,,,,,,,,,,,,,,,,,,,,,,,,,,,,,,,,,,,,,,,,,,,,,,,,,,,,,,,,,,,,,,,,,,,,,,,,,,,,,,,,,
,,,,,,58c62eac444ade00010231a9,62c53f83ff7fb3d324c36677,2022-07-06_09h54.06.867,Colour_Asymmetry_Pilot,2022.1.3,Win32,59.9268892,62c50e9c1127f2cd403a315f,0,152,152,103,1,fourthree,,,,,,,,,,,,,,,,,,,,,,,,,,,,,,,,,,,,,,,,,,,,,,,,,,,,,,,,,,,,,,,,,,,,,,,,,,,,,,,,,,,,,,,,,,,,,,,,,,,,,,,,,,,,,,,,,,,,,,,,,,,,,,,,,,,,,,,,,,,,,,,,,,,,,,,,,,,,,
,,,,,,58c62eac444ade00010231a9,62c53f83ff7fb3d324c36677,2022-07-06_09h54.06.867,Colour_Asymmetry_Pilot,2022.1.3,Win32,59.9268892,62c50e9c1127f2cd403a315f,0,153,153,141,1,threefour,,,,,,,,,,,,,,,,,,,,,,,,,,,,,,,,,,,,,,,,,,,,,,,,,,,,,,,,,,,,,,,,,,,,,,,,,,,,,,,,,,,,,,,,,,,,,,,,,,,,,,,,,,,,,,,,,,,,,,,,,,,,,,,,,,,,,,,,,,,,,,,,,,,,,,,,,,,,,
,,,,,,58c62eac444ade00010231a9,62c53f83ff7fb3d324c36677,2022-07-06_09h54.06.867,Colour_Asymmetry_Pilot,2022.1.3,Win32,59.9268892,62c50e9c1127f2cd403a315f,0,154,154,143,1,fourthree,,,,,,,,,,,,,,,,,,,,,,,,,,,,,,,,,,,,,,,,,,,,,,,,,,,,,,,,,,,,,,,,,,,,,,,,,,,,,,,,,,,,,,,,,,,,,,,,,,,,,,,,,,,,,,,,,,,,,,,,,,,,,,,,,,,,,,,,,,,,,,,,,,,,,,,,,,,,,
,,,,,,58c62eac444ade00010231a9,62c53f83ff7fb3d324c36677,2022-07-06_09h54.06.867,Colour_Asymmetry_Pilot,2022.1.3,Win32,59.9268892,62c50e9c1127f2cd403a315f,0,155,155,37,1,threefour,,,,,,,,,,,,,,,,,,,,,,,,,,,,,,,,,,,,,,,,,,,,,,,,,,,,,,,,,,,,,,,,,,,,,,,,,,,,,,,,,,,,,,,,,,,,,,,,,,,,,,,,,,,,,,,,,,,,,,,,,,,,,,,,,,,,,,,,,,,,,,,,,,,,,,,,,,,,,
,,,,,,58c62eac444ade00010231a9,62c53f83ff7fb3d324c36677,2022-07-06_09h54.06.867,Colour_Asymmetry_Pilot,2022.1.3,Win32,59.9268892,62c50e9c1127f2cd403a315f,0,156,156,123,1,twofour,,,,,,,,,,,,,,,,,,,,,,,,,,,,,,,,,,,,,,,,,,,,,,,,,,,,,,,,,,,,,,,,,,,,,,,,,,,,,,,,,,,,,,,,,,,,,,,,,,,,,,,,,,,,,,,,,,,,,,,,,,,,,,,,,,,,,,,,,,,,,,,,,,,,,,,,,,,,,
,,,,,,58c62eac444ade00010231a9,62c53f83ff7fb3d324c36677,2022-07-06_09h54.06.867,Colour_Asymmetry_Pilot,2022.1.3,Win32,59.9268892,62c50e9c1127f2cd403a315f,0,157,157,83,1,twofour,,,,,,,,,,,,,,,,,,,,,,,,,,,,,,,,,,,,,,,,,,,,,,,,,,,,,,,,,,,,,,,,,,,,,,,,,,,,,,,,,,,,,,,,,,,,,,,,,,,,,,,,,,,,,,,,,,,,,,,,,,,,,,,,,,,,,,,,,,,,,,,,,,,,,,,,,,,,,
,,,,,,58c62eac444ade00010231a9,62c53f83ff7fb3d324c36677,2022-07-06_09h54.06.867,Colour_Asymmetry_Pilot,2022.1.3,Win32,59.9268892,62c50e9c1127f2cd403a315f,0,158,158,62,1,fourtwo,,,,,,,,,,,,,,,,,,,,,,,,,,,,,,,,,,,,,,,,,,,,,,,,,,,,,,,,,,,,,,,,,,,,,,,,,,,,,,,,,,,,,,,,,,,,,,,,,,,,,,,,,,,,,,,,,,,,,,,,,,,,,,,,,,,,,,,,,,,,,,,,,,,,,,,,,,,,,
,,,,,,58c62eac444ade00010231a9,62c53f83ff7fb3d324c36677,2022-07-06_09h54.06.867,Colour_Asymmetry_Pilot,2022.1.3,Win32,59.9268892,62c50e9c1127f2cd403a315f,0,159,159,100,1,threeone,,,,,,,,,,,,,,,,,,,,,,,,,,,,,,,,,,,,,,,,,,,,,,,,,,,,,,,,,,,,,,,,,,,,,,,,,,,,,,,,,,,,,,,,,,,,,,,,,,,,,,,,,,,,,,,,,,,,,,,,,,,,,,,,,,,,,,,,,,,,,,,,,,,,,,,,,,,,,
,,,,,,58c62eac444ade00010231a9,62c53f83ff7fb3d324c36677,2022-07-06_09h54.06.867,Colour_Asymmetry_Pilot,2022.1.3,Win32,59.9268892,62c50e9c1127f2cd403a315f,0,160,160,52,1,threeone,,,,,,,,,,,,,,,,,,,,,,,,,,,,,,,,,,,,,,,,,,,,,,,,,,,,,,,,,,,,,,,,,,,,,,,,,,,,,,,,,,,,,,,,,,,,,,,,,,,,,,,,,,,,,,,,,,,,,,,,,,,,,,,,,,,,,,,,,,,,,,,,,,,,,,,,,,,,,
,,,,,,58c62eac444ade00010231a9,62c53f83ff7fb3d324c36677,2022-07-06_09h54.06.867,Colour_Asymmetry_Pilot,2022.1.3,Win32,59.9268892,62c50e9c1127f2cd403a315f,0,161,161,49,1,onethree,,,,,,,,,,,,,,,,,,,,,,,,,,,,,,,,,,,,,,,,,,,,,,,,,,,,,,,,,,,,,,,,,,,,,,,,,,,,,,,,,,,,,,,,,,,,,,,,,,,,,,,,,,,,,,,,,,,,,,,,,,,,,,,,,,,,,,,,,,,,,,,,,,,,,,,,,,,,,
,,,,,,58c62eac444ade00010231a9,62c53f83ff7fb3d324c36677,2022-07-06_09h54.06.867,Colour_Asymmetry_Pilot,2022.1.3,Win32,59.9268892,62c50e9c1127f2cd403a315f,,,,,,,space,5.7715,space,10.395,space,53.082,space,12.8343,space,3.183,space,6.951,"[-0.09019999999999995,0.44300000000000006,0.5371999999999999]",fourtwo,"[0.23120000000000007,-0.7726,-0.34120000000000006]",-4,8.7381,-64.79998779,112,1,0,0,response7disk_5,1.600036621,-0.800018311,1,0,0,rectangle_8,1.600036621,-0.800018311,1,0,0,4,1.600036621,-0.800018311,1,0,0,0,0,0,0,1,,,,,,,,,,,,,,,,,,,,,,,,,,,,,,,,,,,,,,,,,,,,,,,,,,,,,,,,,,,,,,,,,,,,,,,,,,,,,,,,,,,,,,,,,,,,,,,,,,,,,,,,,,,,,,,,
,,,,,,58c62eac444ade00010231a9,62c53f83ff7fb3d324c36677,2022-07-06_09h54.06.867,Colour_Asymmetry_Pilot,2022.1.3,Win32,59.9268892,62c50e9c1127f2cd403a315f,,,,,,,,,,,,,,,,,,,"[0.9763999999999999,0.8588,-0.05900000000000005]",fourtwo,"[0.5449999999999999,-0.31000000000000005,-0.0354000000000001]",-4,5.4998,-74.39996338,110.3999939,1,0,0,response7disk_5,4.799987793,8.799987793,1,0,0,rectangle_8,4.799987793,8.799987793,1,0,0,4,4.799987793,8.799987793,1,0,0,1,0,1,0,1,,,,,,,,,,,,,,,,,,,,,,,,,,,,,,,,,,,,,,,,,,,,,,,,,,,,,,,,,,,,,,,,,,,,,,,,,,,,,,,,,,,,,,,,,,,,,,,,,,,,,,,,,,,,,,,,
,,,,,,58c62eac444ade00010231a9,62c53f83ff7fb3d324c36677,2022-07-06_09h54.06.867,Colour_Asymmetry_Pilot,2022.1.3,Win32,59.9268892,62c50e9c1127f2cd403a315f,,,,,,,,,,,,,,,,,,,"[0.3568,-0.20799999999999996,-0.9844]",threeone,"[-0.9138,-0.5296000000000001,-0.5529999999999999]",-4,1.2167,-67.20001221,93.6000061,1,0,0,response7disk_5,-5.599975586,0,1,0,0,rectangle_8,53.60003662,108.7999878,1,0,0,4,-12,0.799987793,1,0,0,2,0,2,0,1,response1disk_7,7,rectangle_4,,,,,,,,,,,,,,,,,,,,,,,,,,,,,,,,,,,,,,,,,,,,,,,,,,,,,,,,,,,,,,,,,,,,,,,,,,,,,,,,,,,,,,,,,,,,,,,,,,,,,,,,,,,,,
,,,,,,58c62eac444ade00010231a9,62c53f83ff7fb3d324c36677,2022-07-06_09h54.06.867,Colour_Asymmetry_Pilot,2022.1.3,Win32,59.9268892,62c50e9c1127f2cd403a315f,,,,,,,,,,,,,,,,,,,"[-0.6942,-0.7648,-0.12959999999999994]",onetwo,"[0.9842,0.7409999999999999,-0.6628000000000001]",-4,2.9,-65.59997559,104,1,0,0,response7disk_5,7.200012207,-7.200012207,1,0,0,rectangle_8,7.200012207,-7.200012207,1,0,0,4,7.200012207,-7.200012207,1,0,0,3,0,3,0,1,,,,,,,,,,,,,,,,,,,,,,,,,,,,,,,,,,,,,,,,,,,,,,,,,,,,,,,,,,,,,,,,,,,,,,,,,,,,,,,,,,,,,,,,,,,,,,,,,,,,,,,,,,,,,,,,
,,,,,,58c62eac444ade00010231a9,62c53f83ff7fb3d324c36677,2022-07-06_09h54.06.867,Colour_Asymmetry_Pilot,2022.1.3,Win32,59.9268892,62c50e9c1127f2cd403a315f,,,,,,,,,,,,,,,,,,,"[-0.10599999999999998,-0.15300000000000002,0.15280000000000005]",threeone,"[-0.5922000000000001,-0.7492000000000001,-0.5296000000000001]",-3,3.4327,-89.59997559,40.79998779,1,0,0,response7disk_5,0.799987793,-2.399993896,1,0,0,rectangle_8,0.799987793,-2.399993896,1,0,0,4,0.799987793,-2.399993896,1,0,0,4,0,4,0,1,,,,,,,,,,,,,,,,,,,,,,,,,,,,,,,,,,,,,,,,,,,,,,,,,,,,,,,,,,,,,,,,,,,,,,,,,,,,,,,,,,,,,,,,,,,,,,,,,,,,,,,,,,,,,,,,
,,,,,,58c62eac444ade00010231a9,62c53f83ff7fb3d324c36677,2022-07-06_09h54.06.867,Colour_Asymmetry_Pilot,2022.1.3,Win32,59.9268892,62c50e9c1127f2cd403a315f,,,,,,,,,,,,,,,,,,,"[-0.6706000000000001,-0.6157999999999999,-0.6786]",twoone,"[0.18419999999999992,-0.4276,-0.404]",-4,1.799,-60,88.79998779,1,0,0,response7disk_5,-0.799987793,7.199981689,1,0,0,rectangle_8,42.40002441,97.6000061,1,0,0,4,-7.200012207,-4.800018311,1,0,0,5,0,5,0,1,response1disk_7,7,rectangle_4,,,,,,,,,,,,,,,,,,,,,,,,,,,,,,,,,,,,,,,,,,,,,,,,,,,,,,,,,,,,,,,,,,,,,,,,,,,,,,,,,,,,,,,,,,,,,,,,,,,,,,,,,,,,,
,,,,,,58c62eac444ade00010231a9,62c53f83ff7fb3d324c36677,2022-07-06_09h54.06.867,Colour_Asymmetry_Pilot,2022.1.3,Win32,59.9268892,62c50e9c1127f2cd403a315f,,,,,,,,,,,,,,,,,,,"[0.9213999999999998,0.6391999999999998,-0.9922]",onetwo,"[-0.9688,-0.7412000000000001,-0.4902000000000001]",-4,1.1324,-85.59997559,105.6000061,1,0,0,response7disk_5,1.600036621,-1.600006104,1,0,0,rectangle_8,1.600036621,-1.600006104,1,0,0,4,1.600036621,-1.600006104,1,0,0,6,0,6,0,1,,,,,,,,,,,,,,,,,,,,,,,,,,,,,,,,,,,,,,,,,,,,,,,,,,,,,,,,,,,,,,,,,,,,,,,,,,,,,,,,,,,,,,,,,,,,,,,,,,,,,,,,,,,,,,,,
,,,,,,58c62eac444ade00010231a9,62c53f83ff7fb3d324c36677,2022-07-06_09h54.06.867,Colour_Asymmetry_Pilot,2022.1.3,Win32,59.9268892,62c50e9c1127f2cd403a315f,,,,,,,,,,,,,,,,,,,,onethree,,2,6.0336,,,,,,,,,,,,,,,,,,,,,,,,,,,,,,,,space,14.1391,"[0.6625999999999999,0.4980000000000002,-0.357]","[-0.9138,-0.5296000000000001,-0.5529999999999999]",84.79998779,-55.20001221,1,0,0,response3disk,-6.399963379,-4.800018311,1,0,0,rectangle,-6.399963379,-4.800018311,1,0,0,,1,0.002,0,-6.399963379,-4.800018311,1,0,0,0,0,0,150,1,69,second,,,,,,,,,,,,,,,,,,,,,,,,,,,,,,,,,,,,,,,,,,,,,,,,,,,,,,,,,,,,,,,,,,,,,,,,
,,,,,,58c62eac444ade00010231a9,62c53f83ff7fb3d324c36677,2022-07-06_09h54.06.867,Colour_Asymmetry_Pilot,2022.1.3,Win32,59.9268892,62c50e9c1127f2cd403a315f,,,,,,,,,,,,,,,,,,,,fourtwo,,-3,1.3669,,,,,,,,,,,,,,,,,,,,,,,,,,,,,,,,,,"[-0.4746,-0.0354000000000001,0.5449999999999999]","[-0.34920000000000007,-0.702,-0.5216]",-99.20001221,50.3999939,1,0,0,response7disk,-4.799987793,5.600006104,1,0,0,rectangle,-4.799987793,5.600006104,1,0,0,,2,0.0033,0,-4.799987793,5.600006104,1,0,0,0,1,1,28,1,28,first,,,,,,,,,,,,,,,,,,,,,,,,,,,,,,,,,,,,,,,,,,,,,,,,,,,,,,,,,,,,,,,,,,,,,,,,
,,,,,,58c62eac444ade00010231a9,62c53f83ff7fb3d324c36677,2022-07-06_09h54.06.867,Colour_Asymmetry_Pilot,2022.1.3,Win32,59.9268892,62c50e9c1127f2cd403a315f,,,,,,,,,,,,,,,,,,,,threeone,,1,4.5333,,,,,,,,,,,,,,,,,,,,,,,,,,,,,,,,,,"[-0.17659999999999998,-0.2864,-0.8354]","[-0.4276,0.0038000000000000256,-0.3256]",48,-96.79998779,1,0,0,response3disk,-0.799987793,-1.600006104,1,0,0,rectangle,-0.799987793,-1.600006104,1,0,0,,1,0.0024,0,-0.799987793,-1.600006104,1,0,0,0,2,2,146,1,65,second,,,,,,,,,,,,,,,,,,,,,,,,,,,,,,,,,,,,,,,,,,,,,,,,,,,,,,,,,,,,,,,,,,,,,,,,
,,,,,,58c62eac444ade00010231a9,62c53f83ff7fb3d324c36677,2022-07-06_09h54.06.867,Colour_Asymmetry_Pilot,2022.1.3,Win32,59.9268892,62c50e9c1127f2cd403a315f,,,,,,,,,,,,,,,,,,,,fourthree,,4,2.5156,,,,,,,,,,,,,,,,,,,,,,,,,,,,,,,,,,"[-0.17659999999999998,-0.2864,-0.8354]","[-0.06680000000000008,-0.45100000000000007,-0.906]",84,104.7999878,1,0,0,response1disk,0.799987793,6.399993896,1,0,0,rectangle,0.799987793,6.399993896,1,0,0,,2,0.0035,0,0.799987793,6.399993896,1,0,0,0,3,3,13,1,13,first,,,,,,,,,,,,,,,,,,,,,,,,,,,,,,,,,,,,,,,,,,,,,,,,,,,,,,,,,,,,,,,,,,,,,,,,
,,,,,,58c62eac444ade00010231a9,62c53f83ff7fb3d324c36677,2022-07-06_09h54.06.867,Colour_Asymmetry_Pilot,2022.1.3,Win32,59.9268892,62c50e9c1127f2cd403a315f,,,,,,,,,,,,,,,,,,,,onetwo,,-2,1.1666,,,,,,,,,,,,,,,,,,,,,,,,,,,,,,,,,,"[-0.4276,0.0038000000000000256,-0.3256]","[0.9763999999999999,0.30979999999999985,-0.6786]",-88,-32.80001831,1,0,0,response5disk,0,2.399993896,1,0,0,rectangle,0,2.399993896,1,0,0,,2,0.0003,0,0,2.399993896,1,0,0,0,4,4,52,1,52,first,,,,,,,,,,,,,,,,,,,,,,,,,,,,,,,,,,,,,,,,,,,,,,,,,,,,,,,,,,,,,,,,,,,,,,,,
,,,,,,58c62eac444ade00010231a9,62c53f83ff7fb3d324c36677,2022-07-06_09h54.06.867,Colour_Asymmetry_Pilot,2022.1.3,Win32,59.9268892,62c50e9c1127f2cd403a315f,,,,,,,,,,,,,,,,,,,,fourthree,,-3,0.9826,,,,,,,,,,,,,,,,,,,,,,,,,,,,,,,,,,"[0.0351999999999999,0.41159999999999997,0.0038000000000000256]","[-0.9688,-0.7412000000000001,-0.4902000000000001]",-94.39996338,36,1,0,0,response7disk,-6.399963379,-2.399993896,1,0,0,rectangle,-6.399963379,-2.399993896,1,0,0,,1,0.0036,0,-6.399963379,-2.399993896,1,0,0,0,5,5,127,1,46,second,,,,,,,,,,,,,,,,,,,,,,,,,,,,,,,,,,,,,,,,,,,,,,,,,,,,,,,,,,,,,,,,,,,,,,,,
,,,,,,58c62eac444ade00010231a9,62c53f83ff7fb3d324c36677,2022-07-06_09h54.06.867,Colour_Asymmetry_Pilot,2022.1.3,Win32,59.9268892,62c50e9c1127f2cd403a315f,,,,,,,,,,,,,,,,,,,,threeone,,-4,2.1493,,,,,,,,,,,,,,,,,,,,,,,,,,,,,,,,,,"[0.796,0.2156,-0.27859999999999996]","[-0.5688,-0.08239999999999992,-0.1844]",-79.20001221,98.3999939,1,0,0,response7disk,-1.599975586,2.399993896,1,0,0,rectangle,-1.599975586,2.399993896,1,0,0,,1,0.0002,0,-1.599975586,2.399993896,1,0,0,0,6,6,105,1,24,second,,,,,,,,,,,,,,,,,,,,,,,,,,,,,,,,,,,,,,,,,,,,,,,,,,,,,,,,,,,,,,,,,,,,,,,,
,,,,,,58c62eac444ade00010231a9,62c53f83ff7fb3d324c36677,2022-07-06_09h54.06.867,Colour_Asymmetry_Pilot,2022.1.3,Win32,59.9268892,62c50e9c1127f2cd403a315f,,,,,,,,,,,,,,,,,,,,twoone,,-4,0.7666,,,,,,,,,,,,,,,,,,,,,,,,,,,,,,,,,,"[0.2862,0.7802,0.3568]","[-0.2942,-0.7648,-0.7492000000000001]",-63.20001221,94.3999939,1,0,0,response7disk,-8,-3.200012207,1,0,0,rectangle,-8,-3.200012207,1,0,0,,1,0.0003,0,-8,-3.200012207,1,0,0,0,7,7,124,1,43,second,,,,,,,,,,,,,,,,,,,,,,,,,,,,,,,,,,,,,,,,,,,,,,,,,,,,,,,,,,,,,,,,,,,,,,,,
,,,,,,58c62eac444ade00010231a9,62c53f83ff7fb3d324c36677,2022-07-06_09h54.06.867,Colour_Asymmetry_Pilot,2022.1.3,Win32,59.9268892,62c50e9c1127f2cd403a315f,,,,,,,,,,,,,,,,,,,,onethree,,2,1.383,,,,,,,,,,,,,,,,,,,,,,,,,,,,,,,,,,"[0.7018,0.7802,-0.16079999999999994]","[0.6625999999999999,0.4980000000000002,-0.357]",58.40002441,-37.6000061,1,0,0,response3disk,-4,-0.800018311,1,0,0,rectangle,-4,-0.800018311,1,0,0,,1,0.0001,0,-4,-0.800018311,1,0,0,0,8,8,132,1,51,second,,,,,,,,,,,,,,,,,,,,,,,,,,,,,,,,,,,,,,,,,,,,,,,,,,,,,,,,,,,,,,,,,,,,,,,,
,,,,,,58c62eac444ade00010231a9,62c53f83ff7fb3d324c36677,2022-07-06_09h54.06.867,Colour_Asymmetry_Pilot,2022.1.3,Win32,59.9268892,62c50e9c1127f2cd403a315f,,,,,,,,,,,,,,,,,,,,fourtwo,,-4,0.7335,,,,,,,,,,,,,,,,,,,,,,,,,,,,,,,,,,"[1,0.12939999999999996,-1]","[-0.9844,-0.9688,-0.9922]",-63.20001221,97.6000061,1,0,0,response7disk,-3.200012207,4.799987793,1,0,0,rectangle,-3.200012207,4.799987793,1,0,0,,1,0.0003,0,-3.200012207,4.799987793,1,0,0,0,9,9,138,1,57,second,,,,,,,,,,,,,,,,,,,,,,,,,,,,,,,,,,,,,,,,,,,,,,,,,,,,,,,,,,,,,,,,,,,,,,,,
,,,,,,58c62eac444ade00010231a9,62c53f83ff7fb3d324c36677,2022-07-06_09h54.06.867,Colour_Asymmetry_Pilot,2022.1.3,Win32,59.9268892,62c50e9c1127f2cd403a315f,,,,,,,,,,,,,,,,,,,,threefour,,3,2.05,,,,,,,,,,,,,,,,,,,,,,,,,,,,,,,,,,"[0.37240000000000006,-0.050999999999999934,-0.5216]","[0.6625999999999999,0.4980000000000002,-0.357]",110.4000244,65.6000061,1,0,0,response1disk,6.400024414,-4,1,0,0,rectangle,6.400024414,-4,1,0,0,,3,0.0025,0,6.400024414,-4,1,0,0,0,10,10,27,1,27,first,,,,,,,,,,,,,,,,,,,,,,,,,,,,,,,,,,,,,,,,,,,,,,,,,,,,,,,,,,,,,,,,,,,,,,,,
,,,,,,58c62eac444ade00010231a9,62c53f83ff7fb3d324c36677,2022-07-06_09h54.06.867,Colour_Asymmetry_Pilot,2022.1.3,Win32,59.9268892,62c50e9c1127f2cd403a315f,,,,,,,,,,,,,,,,,,,,onetwo,,-4,0.6666,,,,,,,,,,,,,,,,,,,,,,,,,,,,,,,,,,"[0.34099999999999997,0.5841999999999998,-0.9844]","[0.09799999999999986,-0.24719999999999998,0.15280000000000005]",-58.39996338,108,1,0,0,response7disk,12.79998779,2.399993896,1,0,0,rectangle,12.79998779,2.399993896,1,0,0,,2,0.0033,0,12.79998779,2.399993896,1,0,0,0,11,11,143,1,62,second,,,,,,,,,,,,,,,,,,,,,,,,,,,,,,,,,,,,,,,,,,,,,,,,,,,,,,,,,,,,,,,,,,,,,,,,
,,,,,,58c62eac444ade00010231a9,62c53f83ff7fb3d324c36677,2022-07-06_09h54.06.867,Colour_Asymmetry_Pilot,2022.1.3,Win32,59.9268892,62c50e9c1127f2cd403a315f,,,,,,,,,,,,,,,,,,,,onetwo,,-1,1.766,,,,,,,,,,,,,,,,,,,,,,,,,,,,,,,,,,"[-0.24719999999999998,0.5213999999999999,-0.12959999999999994]","[-0.9766,-0.6472,0.07440000000000002]",-30.39996338,-96,1,0,0,response5disk,1.600036621,13.6000061,1,0,0,rectangle,1.600036621,13.6000061,1,0,0,,2,0.0002,0,1.600036621,13.6000061,1,0,0,0,12,12,157,1,76,second,,,,,,,,,,,,,,,,,,,,,,,,,,,,,,,,,,,,,,,,,,,,,,,,,,,,,,,,,,,,,,,,,,,,,,,,
,,,,,,58c62eac444ade00010231a9,62c53f83ff7fb3d324c36677,2022-07-06_09h54.06.867,Colour_Asymmetry_Pilot,2022.1.3,Win32,59.9268892,62c50e9c1127f2cd403a315f,,,,,,,,,,,,,,,,,,,,onetwo,,-1,2.5828,,,,,,,,,,,,,,,,,,,,,,,,,,,,,,,,,,"[-0.4746,-0.0354000000000001,0.5449999999999999]","[0.11359999999999992,0.6312,0.5213999999999999]",-31.20001221,-105.6000366,1,0,0,response5disk,4.799987793,11.19998169,1,0,0,rectangle,4.799987793,11.19998169,1,0,0,,3,0.0035,0,4.799987793,11.19998169,1,0,0,0,13,13,40,1,40,first,,,,,,,,,,,,,,,,,,,,,,,,,,,,,,,,,,,,,,,,,,,,,,,,,,,,,,,,,,,,,,,,,,,,,,,,
,,,,,,58c62eac444ade00010231a9,62c53f83ff7fb3d324c36677,2022-07-06_09h54.06.867,Colour_Asymmetry_Pilot,2022.1.3,Win32,59.9268892,62c50e9c1127f2cd403a315f,,,,,,,,,,,,,,,,,,,,threefour,,2,1.1498,,,,,,,,,,,,,,,,,,,,,,,,,,,,,,,,,,"[0.9842,0.7409999999999999,-0.6628000000000001]","[-0.07459999999999989,0.12139999999999995,-0.9922]",91.20001221,-50.3999939,1,0,0,response3disk,8,-2.399993896,1,0,0,rectangle,8,-2.399993896,1,0,0,,2,0.0032,0,8,-2.399993896,1,0,0,0,14,14,42,1,42,first,,,,,,,,,,,,,,,,,,,,,,,,,,,,,,,,,,,,,,,,,,,,,,,,,,,,,,,,,,,,,,,,,,,,,,,,
