trials.thisRepN,trials.thisTrialN,trials.thisN,trials.thisIndex,trials.ran,Colourcodes,participant,session,date,expName,psychopyVersion,OS,frameRate,study_id,trials_4.thisRepN,trials_4.thisTrialN,trials_4.thisN,trials_4.thisIndex,trials_4.ran,StimulusPos,key_resp.keys,key_resp.rt,key_resp_2.keys,key_resp_2.rt,key_resp_15.keys,key_resp_15.rt,key_resp_17.keys,key_resp_17.rt,key_resp_9.keys,key_resp_9.rt,key_resp_10.keys,key_resp_10.rt,Circle1_col,Ecc,Circle2_col,similarity,response_time,mouse_5.x,mouse_5.y,mouse_5.leftButton,mouse_5.midButton,mouse_5.rightButton,mouse_5.clicked_name,mouse_10.x,mouse_10.y,mouse_10.leftButton,mouse_10.midButton,mouse_10.rightButton,mouse_10.clicked_name,mouse_7.x,mouse_7.y,mouse_7.leftButton,mouse_7.midButton,mouse_7.rightButton,catchnumberprac,mouse_6.x,mouse_6.y,mouse_6.leftButton,mouse_6.midButton,mouse_6.rightButton,duringprac.thisRepN,duringprac.thisTrialN,duringprac.thisN,duringprac.thisIndex,duringprac.ran,mouse_7.clicked_name,catchprac,mouse_6.clicked_name,key_resp_22.keys,key_resp_22.rt,Circle1_colour,Circle2_colour,mouse.x,mouse.y,mouse.leftButton,mouse.midButton,mouse.rightButton,mouse.clicked_name,mouse_2.x,mouse_2.y,mouse_2.leftButton,mouse_2.midButton,mouse_2.rightButton,mouse_2.clicked_name,mouse_3.x,mouse_3.y,mouse_3.leftButton,mouse_3.midButton,mouse_3.rightButton,catchresponse,catchnumber,response_time_catch,Catch,mouse_11.x,mouse_11.y,mouse_11.leftButton,mouse_11.midButton,mouse_11.rightButton,trials_2.thisRepN,trials_2.thisTrialN,trials_2.thisN,trials_2.thisIndex,trials_2.ran,Colourpair,Temporder,mouse_3.clicked_name,mouse_11.clicked_name,trials_3.thisRepN,trials_3.thisTrialN,trials_3.thisN,trials_3.thisIndex,trials_3.ran,key_resp_instr_Ishi.keys,key_resp_instr_Ishi.rt,Ishi_trial_keyresp.keys,Ishi_textbox.text,Ishi_mouse.x,Ishi_mouse.y,Ishi_mouse.leftButton,Ishi_mouse.midButton,Ishi_mouse.rightButton,Ishi_mouse.clicked_name,Ishi_loop.thisRepN,Ishi_loop.thisTrialN,Ishi_loop.thisN,Ishi_loop.thisIndex,Ishi_loop.ran,imageaddress,textbox.text,mouse_4.x,mouse_4.y,mouse_4.leftButton,mouse_4.midButton,mouse_4.rightButton,mouse_4.clicked_name,textbox_2.text,mouse_8.x,mouse_8.y,mouse_8.leftButton,mouse_8.midButton,mouse_8.rightButton,mouse_8.clicked_name,textbox_3.text,mouse_9.x,mouse_9.y,mouse_9.leftButton,mouse_9.midButton,mouse_9.rightButton,mouse_9.clicked_name,textbox_4.text,mouse_12.x,mouse_12.y,mouse_12.leftButton,mouse_12.midButton,mouse_12.rightButton,mouse_12.clicked_name,textbox_5.text,mouse_13.x,mouse_13.y,mouse_13.leftButton,mouse_13.midButton,mouse_13.rightButton,mouse_13.clicked_name,textbox_6.text,mouse_14.x,mouse_14.y,mouse_14.leftButton,mouse_14.midButton,mouse_14.rightButton,mouse_14.clicked_name,textbox_7.text,mouse_15.x,mouse_15.y,mouse_15.leftButton,mouse_15.midButton,mouse_15.rightButton,mouse_15.clicked_name
0,0,0,74,1,,615c5d74156deea8ee2aa187,62c539970f5bf6bc18c814c6,2022-07-06_09h25.36.238,Colour_Asymmetry_Pilot,2022.1.3,Win32,59.97001499,62c50e9c1127f2cd403a315f,,,,,,,,,,,,,,,,,,,,,,,,,,,,,,,,,,,,,,,,,,,,,,,,,,,,,,,,,,,,,,,,,,,,,,,,,,,,,,,,,,,,,,,,,,,,,,,,,,,,,,,,,,,,,,,,,,,,,,,,,,,,,,,,,,,,,,,,,,,,,,,,,,,,,,,,,,,,,,,,,,,
0,1,1,86,1,,615c5d74156deea8ee2aa187,62c539970f5bf6bc18c814c6,2022-07-06_09h25.36.238,Colour_Asymmetry_Pilot,2022.1.3,Win32,59.97001499,62c50e9c1127f2cd403a315f,,,,,,,,,,,,,,,,,,,,,,,,,,,,,,,,,,,,,,,,,,,,,,,,,,,,,,,,,,,,,,,,,,,,,,,,,,,,,,,,,,,,,,,,,,,,,,,,,,,,,,,,,,,,,,,,,,,,,,,,,,,,,,,,,,,,,,,,,,,,,,,,,,,,,,,,,,,,,,,,,,,
0,2,2,92,1,,615c5d74156deea8ee2aa187,62c539970f5bf6bc18c814c6,2022-07-06_09h25.36.238,Colour_Asymmetry_Pilot,2022.1.3,Win32,59.97001499,62c50e9c1127f2cd403a315f,,,,,,,,,,,,,,,,,,,,,,,,,,,,,,,,,,,,,,,,,,,,,,,,,,,,,,,,,,,,,,,,,,,,,,,,,,,,,,,,,,,,,,,,,,,,,,,,,,,,,,,,,,,,,,,,,,,,,,,,,,,,,,,,,,,,,,,,,,,,,,,,,,,,,,,,,,,,,,,,,,,
0,3,3,19,1,,615c5d74156deea8ee2aa187,62c539970f5bf6bc18c814c6,2022-07-06_09h25.36.238,Colour_Asymmetry_Pilot,2022.1.3,Win32,59.97001499,62c50e9c1127f2cd403a315f,,,,,,,,,,,,,,,,,,,,,,,,,,,,,,,,,,,,,,,,,,,,,,,,,,,,,,,,,,,,,,,,,,,,,,,,,,,,,,,,,,,,,,,,,,,,,,,,,,,,,,,,,,,,,,,,,,,,,,,,,,,,,,,,,,,,,,,,,,,,,,,,,,,,,,,,,,,,,,,,,,,
0,4,4,11,1,,615c5d74156deea8ee2aa187,62c539970f5bf6bc18c814c6,2022-07-06_09h25.36.238,Colour_Asymmetry_Pilot,2022.1.3,Win32,59.97001499,62c50e9c1127f2cd403a315f,,,,,,,,,,,,,,,,,,,,,,,,,,,,,,,,,,,,,,,,,,,,,,,,,,,,,,,,,,,,,,,,,,,,,,,,,,,,,,,,,,,,,,,,,,,,,,,,,,,,,,,,,,,,,,,,,,,,,,,,,,,,,,,,,,,,,,,,,,,,,,,,,,,,,,,,,,,,,,,,,,,
0,5,5,31,1,,615c5d74156deea8ee2aa187,62c539970f5bf6bc18c814c6,2022-07-06_09h25.36.238,Colour_Asymmetry_Pilot,2022.1.3,Win32,59.97001499,62c50e9c1127f2cd403a315f,,,,,,,,,,,,,,,,,,,,,,,,,,,,,,,,,,,,,,,,,,,,,,,,,,,,,,,,,,,,,,,,,,,,,,,,,,,,,,,,,,,,,,,,,,,,,,,,,,,,,,,,,,,,,,,,,,,,,,,,,,,,,,,,,,,,,,,,,,,,,,,,,,,,,,,,,,,,,,,,,,,
0,6,6,34,1,,615c5d74156deea8ee2aa187,62c539970f5bf6bc18c814c6,2022-07-06_09h25.36.238,Colour_Asymmetry_Pilot,2022.1.3,Win32,59.97001499,62c50e9c1127f2cd403a315f,,,,,,,,,,,,,,,,,,,,,,,,,,,,,,,,,,,,,,,,,,,,,,,,,,,,,,,,,,,,,,,,,,,,,,,,,,,,,,,,,,,,,,,,,,,,,,,,,,,,,,,,,,,,,,,,,,,,,,,,,,,,,,,,,,,,,,,,,,,,,,,,,,,,,,,,,,,,,,,,,,,
0,7,7,53,1,,615c5d74156deea8ee2aa187,62c539970f5bf6bc18c814c6,2022-07-06_09h25.36.238,Colour_Asymmetry_Pilot,2022.1.3,Win32,59.97001499,62c50e9c1127f2cd403a315f,,,,,,,,,,,,,,,,,,,,,,,,,,,,,,,,,,,,,,,,,,,,,,,,,,,,,,,,,,,,,,,,,,,,,,,,,,,,,,,,,,,,,,,,,,,,,,,,,,,,,,,,,,,,,,,,,,,,,,,,,,,,,,,,,,,,,,,,,,,,,,,,,,,,,,,,,,,,,,,,,,,
0,8,8,77,1,,615c5d74156deea8ee2aa187,62c539970f5bf6bc18c814c6,2022-07-06_09h25.36.238,Colour_Asymmetry_Pilot,2022.1.3,Win32,59.97001499,62c50e9c1127f2cd403a315f,,,,,,,,,,,,,,,,,,,,,,,,,,,,,,,,,,,,,,,,,,,,,,,,,,,,,,,,,,,,,,,,,,,,,,,,,,,,,,,,,,,,,,,,,,,,,,,,,,,,,,,,,,,,,,,,,,,,,,,,,,,,,,,,,,,,,,,,,,,,,,,,,,,,,,,,,,,,,,,,,,,
0,9,9,16,1,,615c5d74156deea8ee2aa187,62c539970f5bf6bc18c814c6,2022-07-06_09h25.36.238,Colour_Asymmetry_Pilot,2022.1.3,Win32,59.97001499,62c50e9c1127f2cd403a315f,,,,,,,,,,,,,,,,,,,,,,,,,,,,,,,,,,,,,,,,,,,,,,,,,,,,,,,,,,,,,,,,,,,,,,,,,,,,,,,,,,,,,,,,,,,,,,,,,,,,,,,,,,,,,,,,,,,,,,,,,,,,,,,,,,,,,,,,,,,,,,,,,,,,,,,,,,,,,,,,,,,
0,10,10,63,1,,615c5d74156deea8ee2aa187,62c539970f5bf6bc18c814c6,2022-07-06_09h25.36.238,Colour_Asymmetry_Pilot,2022.1.3,Win32,59.97001499,62c50e9c1127f2cd403a315f,,,,,,,,,,,,,,,,,,,,,,,,,,,,,,,,,,,,,,,,,,,,,,,,,,,,,,,,,,,,,,,,,,,,,,,,,,,,,,,,,,,,,,,,,,,,,,,,,,,,,,,,,,,,,,,,,,,,,,,,,,,,,,,,,,,,,,,,,,,,,,,,,,,,,,,,,,,,,,,,,,,
0,11,11,37,1,,615c5d74156deea8ee2aa187,62c539970f5bf6bc18c814c6,2022-07-06_09h25.36.238,Colour_Asymmetry_Pilot,2022.1.3,Win32,59.97001499,62c50e9c1127f2cd403a315f,,,,,,,,,,,,,,,,,,,,,,,,,,,,,,,,,,,,,,,,,,,,,,,,,,,,,,,,,,,,,,,,,,,,,,,,,,,,,,,,,,,,,,,,,,,,,,,,,,,,,,,,,,,,,,,,,,,,,,,,,,,,,,,,,,,,,,,,,,,,,,,,,,,,,,,,,,,,,,,,,,,
0,12,12,68,1,,615c5d74156deea8ee2aa187,62c539970f5bf6bc18c814c6,2022-07-06_09h25.36.238,Colour_Asymmetry_Pilot,2022.1.3,Win32,59.97001499,62c50e9c1127f2cd403a315f,,,,,,,,,,,,,,,,,,,,,,,,,,,,,,,,,,,,,,,,,,,,,,,,,,,,,,,,,,,,,,,,,,,,,,,,,,,,,,,,,,,,,,,,,,,,,,,,,,,,,,,,,,,,,,,,,,,,,,,,,,,,,,,,,,,,,,,,,,,,,,,,,,,,,,,,,,,,,,,,,,,
0,13,13,71,1,,615c5d74156deea8ee2aa187,62c539970f5bf6bc18c814c6,2022-07-06_09h25.36.238,Colour_Asymmetry_Pilot,2022.1.3,Win32,59.97001499,62c50e9c1127f2cd403a315f,,,,,,,,,,,,,,,,,,,,,,,,,,,,,,,,,,,,,,,,,,,,,,,,,,,,,,,,,,,,,,,,,,,,,,,,,,,,,,,,,,,,,,,,,,,,,,,,,,,,,,,,,,,,,,,,,,,,,,,,,,,,,,,,,,,,,,,,,,,,,,,,,,,,,,,,,,,,,,,,,,,
0,14,14,64,1,,615c5d74156deea8ee2aa187,62c539970f5bf6bc18c814c6,2022-07-06_09h25.36.238,Colour_Asymmetry_Pilot,2022.1.3,Win32,59.97001499,62c50e9c1127f2cd403a315f,,,,,,,,,,,,,,,,,,,,,,,,,,,,,,,,,,,,,,,,,,,,,,,,,,,,,,,,,,,,,,,,,,,,,,,,,,,,,,,,,,,,,,,,,,,,,,,,,,,,,,,,,,,,,,,,,,,,,,,,,,,,,,,,,,,,,,,,,,,,,,,,,,,,,,,,,,,,,,,,,,,
0,15,15,50,1,,615c5d74156deea8ee2aa187,62c539970f5bf6bc18c814c6,2022-07-06_09h25.36.238,Colour_Asymmetry_Pilot,2022.1.3,Win32,59.97001499,62c50e9c1127f2cd403a315f,,,,,,,,,,,,,,,,,,,,,,,,,,,,,,,,,,,,,,,,,,,,,,,,,,,,,,,,,,,,,,,,,,,,,,,,,,,,,,,,,,,,,,,,,,,,,,,,,,,,,,,,,,,,,,,,,,,,,,,,,,,,,,,,,,,,,,,,,,,,,,,,,,,,,,,,,,,,,,,,,,,
0,16,16,52,1,,615c5d74156deea8ee2aa187,62c539970f5bf6bc18c814c6,2022-07-06_09h25.36.238,Colour_Asymmetry_Pilot,2022.1.3,Win32,59.97001499,62c50e9c1127f2cd403a315f,,,,,,,,,,,,,,,,,,,,,,,,,,,,,,,,,,,,,,,,,,,,,,,,,,,,,,,,,,,,,,,,,,,,,,,,,,,,,,,,,,,,,,,,,,,,,,,,,,,,,,,,,,,,,,,,,,,,,,,,,,,,,,,,,,,,,,,,,,,,,,,,,,,,,,,,,,,,,,,,,,,
0,17,17,59,1,,615c5d74156deea8ee2aa187,62c539970f5bf6bc18c814c6,2022-07-06_09h25.36.238,Colour_Asymmetry_Pilot,2022.1.3,Win32,59.97001499,62c50e9c1127f2cd403a315f,,,,,,,,,,,,,,,,,,,,,,,,,,,,,,,,,,,,,,,,,,,,,,,,,,,,,,,,,,,,,,,,,,,,,,,,,,,,,,,,,,,,,,,,,,,,,,,,,,,,,,,,,,,,,,,,,,,,,,,,,,,,,,,,,,,,,,,,,,,,,,,,,,,,,,,,,,,,,,,,,,,
0,18,18,18,1,,615c5d74156deea8ee2aa187,62c539970f5bf6bc18c814c6,2022-07-06_09h25.36.238,Colour_Asymmetry_Pilot,2022.1.3,Win32,59.97001499,62c50e9c1127f2cd403a315f,,,,,,,,,,,,,,,,,,,,,,,,,,,,,,,,,,,,,,,,,,,,,,,,,,,,,,,,,,,,,,,,,,,,,,,,,,,,,,,,,,,,,,,,,,,,,,,,,,,,,,,,,,,,,,,,,,,,,,,,,,,,,,,,,,,,,,,,,,,,,,,,,,,,,,,,,,,,,,,,,,,
0,19,19,48,1,,615c5d74156deea8ee2aa187,62c539970f5bf6bc18c814c6,2022-07-06_09h25.36.238,Colour_Asymmetry_Pilot,2022.1.3,Win32,59.97001499,62c50e9c1127f2cd403a315f,,,,,,,,,,,,,,,,,,,,,,,,,,,,,,,,,,,,,,,,,,,,,,,,,,,,,,,,,,,,,,,,,,,,,,,,,,,,,,,,,,,,,,,,,,,,,,,,,,,,,,,,,,,,,,,,,,,,,,,,,,,,,,,,,,,,,,,,,,,,,,,,,,,,,,,,,,,,,,,,,,,
0,20,20,78,1,,615c5d74156deea8ee2aa187,62c539970f5bf6bc18c814c6,2022-07-06_09h25.36.238,Colour_Asymmetry_Pilot,2022.1.3,Win32,59.97001499,62c50e9c1127f2cd403a315f,,,,,,,,,,,,,,,,,,,,,,,,,,,,,,,,,,,,,,,,,,,,,,,,,,,,,,,,,,,,,,,,,,,,,,,,,,,,,,,,,,,,,,,,,,,,,,,,,,,,,,,,,,,,,,,,,,,,,,,,,,,,,,,,,,,,,,,,,,,,,,,,,,,,,,,,,,,,,,,,,,,
0,21,21,60,1,,615c5d74156deea8ee2aa187,62c539970f5bf6bc18c814c6,2022-07-06_09h25.36.238,Colour_Asymmetry_Pilot,2022.1.3,Win32,59.97001499,62c50e9c1127f2cd403a315f,,,,,,,,,,,,,,,,,,,,,,,,,,,,,,,,,,,,,,,,,,,,,,,,,,,,,,,,,,,,,,,,,,,,,,,,,,,,,,,,,,,,,,,,,,,,,,,,,,,,,,,,,,,,,,,,,,,,,,,,,,,,,,,,,,,,,,,,,,,,,,,,,,,,,,,,,,,,,,,,,,,
0,22,22,51,1,,615c5d74156deea8ee2aa187,62c539970f5bf6bc18c814c6,2022-07-06_09h25.36.238,Colour_Asymmetry_Pilot,2022.1.3,Win32,59.97001499,62c50e9c1127f2cd403a315f,,,,,,,,,,,,,,,,,,,,,,,,,,,,,,,,,,,,,,,,,,,,,,,,,,,,,,,,,,,,,,,,,,,,,,,,,,,,,,,,,,,,,,,,,,,,,,,,,,,,,,,,,,,,,,,,,,,,,,,,,,,,,,,,,,,,,,,,,,,,,,,,,,,,,,,,,,,,,,,,,,,
0,23,23,12,1,,615c5d74156deea8ee2aa187,62c539970f5bf6bc18c814c6,2022-07-06_09h25.36.238,Colour_Asymmetry_Pilot,2022.1.3,Win32,59.97001499,62c50e9c1127f2cd403a315f,,,,,,,,,,,,,,,,,,,,,,,,,,,,,,,,,,,,,,,,,,,,,,,,,,,,,,,,,,,,,,,,,,,,,,,,,,,,,,,,,,,,,,,,,,,,,,,,,,,,,,,,,,,,,,,,,,,,,,,,,,,,,,,,,,,,,,,,,,,,,,,,,,,,,,,,,,,,,,,,,,,
0,24,24,28,1,,615c5d74156deea8ee2aa187,62c539970f5bf6bc18c814c6,2022-07-06_09h25.36.238,Colour_Asymmetry_Pilot,2022.1.3,Win32,59.97001499,62c50e9c1127f2cd403a315f,,,,,,,,,,,,,,,,,,,,,,,,,,,,,,,,,,,,,,,,,,,,,,,,,,,,,,,,,,,,,,,,,,,,,,,,,,,,,,,,,,,,,,,,,,,,,,,,,,,,,,,,,,,,,,,,,,,,,,,,,,,,,,,,,,,,,,,,,,,,,,,,,,,,,,,,,,,,,,,,,,,
0,25,25,7,1,,615c5d74156deea8ee2aa187,62c539970f5bf6bc18c814c6,2022-07-06_09h25.36.238,Colour_Asymmetry_Pilot,2022.1.3,Win32,59.97001499,62c50e9c1127f2cd403a315f,,,,,,,,,,,,,,,,,,,,,,,,,,,,,,,,,,,,,,,,,,,,,,,,,,,,,,,,,,,,,,,,,,,,,,,,,,,,,,,,,,,,,,,,,,,,,,,,,,,,,,,,,,,,,,,,,,,,,,,,,,,,,,,,,,,,,,,,,,,,,,,,,,,,,,,,,,,,,,,,,,,
0,26,26,6,1,,615c5d74156deea8ee2aa187,62c539970f5bf6bc18c814c6,2022-07-06_09h25.36.238,Colour_Asymmetry_Pilot,2022.1.3,Win32,59.97001499,62c50e9c1127f2cd403a315f,,,,,,,,,,,,,,,,,,,,,,,,,,,,,,,,,,,,,,,,,,,,,,,,,,,,,,,,,,,,,,,,,,,,,,,,,,,,,,,,,,,,,,,,,,,,,,,,,,,,,,,,,,,,,,,,,,,,,,,,,,,,,,,,,,,,,,,,,,,,,,,,,,,,,,,,,,,,,,,,,,,
0,27,27,43,1,,615c5d74156deea8ee2aa187,62c539970f5bf6bc18c814c6,2022-07-06_09h25.36.238,Colour_Asymmetry_Pilot,2022.1.3,Win32,59.97001499,62c50e9c1127f2cd403a315f,,,,,,,,,,,,,,,,,,,,,,,,,,,,,,,,,,,,,,,,,,,,,,,,,,,,,,,,,,,,,,,,,,,,,,,,,,,,,,,,,,,,,,,,,,,,,,,,,,,,,,,,,,,,,,,,,,,,,,,,,,,,,,,,,,,,,,,,,,,,,,,,,,,,,,,,,,,,,,,,,,,
0,28,28,67,1,,615c5d74156deea8ee2aa187,62c539970f5bf6bc18c814c6,2022-07-06_09h25.36.238,Colour_Asymmetry_Pilot,2022.1.3,Win32,59.97001499,62c50e9c1127f2cd403a315f,,,,,,,,,,,,,,,,,,,,,,,,,,,,,,,,,,,,,,,,,,,,,,,,,,,,,,,,,,,,,,,,,,,,,,,,,,,,,,,,,,,,,,,,,,,,,,,,,,,,,,,,,,,,,,,,,,,,,,,,,,,,,,,,,,,,,,,,,,,,,,,,,,,,,,,,,,,,,,,,,,,
0,29,29,10,1,,615c5d74156deea8ee2aa187,62c539970f5bf6bc18c814c6,2022-07-06_09h25.36.238,Colour_Asymmetry_Pilot,2022.1.3,Win32,59.97001499,62c50e9c1127f2cd403a315f,,,,,,,,,,,,,,,,,,,,,,,,,,,,,,,,,,,,,,,,,,,,,,,,,,,,,,,,,,,,,,,,,,,,,,,,,,,,,,,,,,,,,,,,,,,,,,,,,,,,,,,,,,,,,,,,,,,,,,,,,,,,,,,,,,,,,,,,,,,,,,,,,,,,,,,,,,,,,,,,,,,
0,30,30,0,1,,615c5d74156deea8ee2aa187,62c539970f5bf6bc18c814c6,2022-07-06_09h25.36.238,Colour_Asymmetry_Pilot,2022.1.3,Win32,59.97001499,62c50e9c1127f2cd403a315f,,,,,,,,,,,,,,,,,,,,,,,,,,,,,,,,,,,,,,,,,,,,,,,,,,,,,,,,,,,,,,,,,,,,,,,,,,,,,,,,,,,,,,,,,,,,,,,,,,,,,,,,,,,,,,,,,,,,,,,,,,,,,,,,,,,,,,,,,,,,,,,,,,,,,,,,,,,,,,,,,,,
0,31,31,23,1,,615c5d74156deea8ee2aa187,62c539970f5bf6bc18c814c6,2022-07-06_09h25.36.238,Colour_Asymmetry_Pilot,2022.1.3,Win32,59.97001499,62c50e9c1127f2cd403a315f,,,,,,,,,,,,,,,,,,,,,,,,,,,,,,,,,,,,,,,,,,,,,,,,,,,,,,,,,,,,,,,,,,,,,,,,,,,,,,,,,,,,,,,,,,,,,,,,,,,,,,,,,,,,,,,,,,,,,,,,,,,,,,,,,,,,,,,,,,,,,,,,,,,,,,,,,,,,,,,,,,,
0,32,32,40,1,,615c5d74156deea8ee2aa187,62c539970f5bf6bc18c814c6,2022-07-06_09h25.36.238,Colour_Asymmetry_Pilot,2022.1.3,Win32,59.97001499,62c50e9c1127f2cd403a315f,,,,,,,,,,,,,,,,,,,,,,,,,,,,,,,,,,,,,,,,,,,,,,,,,,,,,,,,,,,,,,,,,,,,,,,,,,,,,,,,,,,,,,,,,,,,,,,,,,,,,,,,,,,,,,,,,,,,,,,,,,,,,,,,,,,,,,,,,,,,,,,,,,,,,,,,,,,,,,,,,,,
0,33,33,2,1,,615c5d74156deea8ee2aa187,62c539970f5bf6bc18c814c6,2022-07-06_09h25.36.238,Colour_Asymmetry_Pilot,2022.1.3,Win32,59.97001499,62c50e9c1127f2cd403a315f,,,,,,,,,,,,,,,,,,,,,,,,,,,,,,,,,,,,,,,,,,,,,,,,,,,,,,,,,,,,,,,,,,,,,,,,,,,,,,,,,,,,,,,,,,,,,,,,,,,,,,,,,,,,,,,,,,,,,,,,,,,,,,,,,,,,,,,,,,,,,,,,,,,,,,,,,,,,,,,,,,,
0,34,34,4,1,,615c5d74156deea8ee2aa187,62c539970f5bf6bc18c814c6,2022-07-06_09h25.36.238,Colour_Asymmetry_Pilot,2022.1.3,Win32,59.97001499,62c50e9c1127f2cd403a315f,,,,,,,,,,,,,,,,,,,,,,,,,,,,,,,,,,,,,,,,,,,,,,,,,,,,,,,,,,,,,,,,,,,,,,,,,,,,,,,,,,,,,,,,,,,,,,,,,,,,,,,,,,,,,,,,,,,,,,,,,,,,,,,,,,,,,,,,,,,,,,,,,,,,,,,,,,,,,,,,,,,
0,35,35,33,1,,615c5d74156deea8ee2aa187,62c539970f5bf6bc18c814c6,2022-07-06_09h25.36.238,Colour_Asymmetry_Pilot,2022.1.3,Win32,59.97001499,62c50e9c1127f2cd403a315f,,,,,,,,,,,,,,,,,,,,,,,,,,,,,,,,,,,,,,,,,,,,,,,,,,,,,,,,,,,,,,,,,,,,,,,,,,,,,,,,,,,,,,,,,,,,,,,,,,,,,,,,,,,,,,,,,,,,,,,,,,,,,,,,,,,,,,,,,,,,,,,,,,,,,,,,,,,,,,,,,,,
0,36,36,70,1,,615c5d74156deea8ee2aa187,62c539970f5bf6bc18c814c6,2022-07-06_09h25.36.238,Colour_Asymmetry_Pilot,2022.1.3,Win32,59.97001499,62c50e9c1127f2cd403a315f,,,,,,,,,,,,,,,,,,,,,,,,,,,,,,,,,,,,,,,,,,,,,,,,,,,,,,,,,,,,,,,,,,,,,,,,,,,,,,,,,,,,,,,,,,,,,,,,,,,,,,,,,,,,,,,,,,,,,,,,,,,,,,,,,,,,,,,,,,,,,,,,,,,,,,,,,,,,,,,,,,,
0,37,37,76,1,,615c5d74156deea8ee2aa187,62c539970f5bf6bc18c814c6,2022-07-06_09h25.36.238,Colour_Asymmetry_Pilot,2022.1.3,Win32,59.97001499,62c50e9c1127f2cd403a315f,,,,,,,,,,,,,,,,,,,,,,,,,,,,,,,,,,,,,,,,,,,,,,,,,,,,,,,,,,,,,,,,,,,,,,,,,,,,,,,,,,,,,,,,,,,,,,,,,,,,,,,,,,,,,,,,,,,,,,,,,,,,,,,,,,,,,,,,,,,,,,,,,,,,,,,,,,,,,,,,,,,
0,38,38,80,1,,615c5d74156deea8ee2aa187,62c539970f5bf6bc18c814c6,2022-07-06_09h25.36.238,Colour_Asymmetry_Pilot,2022.1.3,Win32,59.97001499,62c50e9c1127f2cd403a315f,,,,,,,,,,,,,,,,,,,,,,,,,,,,,,,,,,,,,,,,,,,,,,,,,,,,,,,,,,,,,,,,,,,,,,,,,,,,,,,,,,,,,,,,,,,,,,,,,,,,,,,,,,,,,,,,,,,,,,,,,,,,,,,,,,,,,,,,,,,,,,,,,,,,,,,,,,,,,,,,,,,
0,39,39,27,1,,615c5d74156deea8ee2aa187,62c539970f5bf6bc18c814c6,2022-07-06_09h25.36.238,Colour_Asymmetry_Pilot,2022.1.3,Win32,59.97001499,62c50e9c1127f2cd403a315f,,,,,,,,,,,,,,,,,,,,,,,,,,,,,,,,,,,,,,,,,,,,,,,,,,,,,,,,,,,,,,,,,,,,,,,,,,,,,,,,,,,,,,,,,,,,,,,,,,,,,,,,,,,,,,,,,,,,,,,,,,,,,,,,,,,,,,,,,,,,,,,,,,,,,,,,,,,,,,,,,,,
0,40,40,55,1,,615c5d74156deea8ee2aa187,62c539970f5bf6bc18c814c6,2022-07-06_09h25.36.238,Colour_Asymmetry_Pilot,2022.1.3,Win32,59.97001499,62c50e9c1127f2cd403a315f,,,,,,,,,,,,,,,,,,,,,,,,,,,,,,,,,,,,,,,,,,,,,,,,,,,,,,,,,,,,,,,,,,,,,,,,,,,,,,,,,,,,,,,,,,,,,,,,,,,,,,,,,,,,,,,,,,,,,,,,,,,,,,,,,,,,,,,,,,,,,,,,,,,,,,,,,,,,,,,,,,,
0,41,41,47,1,,615c5d74156deea8ee2aa187,62c539970f5bf6bc18c814c6,2022-07-06_09h25.36.238,Colour_Asymmetry_Pilot,2022.1.3,Win32,59.97001499,62c50e9c1127f2cd403a315f,,,,,,,,,,,,,,,,,,,,,,,,,,,,,,,,,,,,,,,,,,,,,,,,,,,,,,,,,,,,,,,,,,,,,,,,,,,,,,,,,,,,,,,,,,,,,,,,,,,,,,,,,,,,,,,,,,,,,,,,,,,,,,,,,,,,,,,,,,,,,,,,,,,,,,,,,,,,,,,,,,,
0,42,42,54,1,,615c5d74156deea8ee2aa187,62c539970f5bf6bc18c814c6,2022-07-06_09h25.36.238,Colour_Asymmetry_Pilot,2022.1.3,Win32,59.97001499,62c50e9c1127f2cd403a315f,,,,,,,,,,,,,,,,,,,,,,,,,,,,,,,,,,,,,,,,,,,,,,,,,,,,,,,,,,,,,,,,,,,,,,,,,,,,,,,,,,,,,,,,,,,,,,,,,,,,,,,,,,,,,,,,,,,,,,,,,,,,,,,,,,,,,,,,,,,,,,,,,,,,,,,,,,,,,,,,,,,
0,43,43,81,1,,615c5d74156deea8ee2aa187,62c539970f5bf6bc18c814c6,2022-07-06_09h25.36.238,Colour_Asymmetry_Pilot,2022.1.3,Win32,59.97001499,62c50e9c1127f2cd403a315f,,,,,,,,,,,,,,,,,,,,,,,,,,,,,,,,,,,,,,,,,,,,,,,,,,,,,,,,,,,,,,,,,,,,,,,,,,,,,,,,,,,,,,,,,,,,,,,,,,,,,,,,,,,,,,,,,,,,,,,,,,,,,,,,,,,,,,,,,,,,,,,,,,,,,,,,,,,,,,,,,,,
0,44,44,41,1,,615c5d74156deea8ee2aa187,62c539970f5bf6bc18c814c6,2022-07-06_09h25.36.238,Colour_Asymmetry_Pilot,2022.1.3,Win32,59.97001499,62c50e9c1127f2cd403a315f,,,,,,,,,,,,,,,,,,,,,,,,,,,,,,,,,,,,,,,,,,,,,,,,,,,,,,,,,,,,,,,,,,,,,,,,,,,,,,,,,,,,,,,,,,,,,,,,,,,,,,,,,,,,,,,,,,,,,,,,,,,,,,,,,,,,,,,,,,,,,,,,,,,,,,,,,,,,,,,,,,,
0,45,45,57,1,,615c5d74156deea8ee2aa187,62c539970f5bf6bc18c814c6,2022-07-06_09h25.36.238,Colour_Asymmetry_Pilot,2022.1.3,Win32,59.97001499,62c50e9c1127f2cd403a315f,,,,,,,,,,,,,,,,,,,,,,,,,,,,,,,,,,,,,,,,,,,,,,,,,,,,,,,,,,,,,,,,,,,,,,,,,,,,,,,,,,,,,,,,,,,,,,,,,,,,,,,,,,,,,,,,,,,,,,,,,,,,,,,,,,,,,,,,,,,,,,,,,,,,,,,,,,,,,,,,,,,
0,46,46,73,1,,615c5d74156deea8ee2aa187,62c539970f5bf6bc18c814c6,2022-07-06_09h25.36.238,Colour_Asymmetry_Pilot,2022.1.3,Win32,59.97001499,62c50e9c1127f2cd403a315f,,,,,,,,,,,,,,,,,,,,,,,,,,,,,,,,,,,,,,,,,,,,,,,,,,,,,,,,,,,,,,,,,,,,,,,,,,,,,,,,,,,,,,,,,,,,,,,,,,,,,,,,,,,,,,,,,,,,,,,,,,,,,,,,,,,,,,,,,,,,,,,,,,,,,,,,,,,,,,,,,,,
0,47,47,89,1,,615c5d74156deea8ee2aa187,62c539970f5bf6bc18c814c6,2022-07-06_09h25.36.238,Colour_Asymmetry_Pilot,2022.1.3,Win32,59.97001499,62c50e9c1127f2cd403a315f,,,,,,,,,,,,,,,,,,,,,,,,,,,,,,,,,,,,,,,,,,,,,,,,,,,,,,,,,,,,,,,,,,,,,,,,,,,,,,,,,,,,,,,,,,,,,,,,,,,,,,,,,,,,,,,,,,,,,,,,,,,,,,,,,,,,,,,,,,,,,,,,,,,,,,,,,,,,,,,,,,,
0,48,48,83,1,,615c5d74156deea8ee2aa187,62c539970f5bf6bc18c814c6,2022-07-06_09h25.36.238,Colour_Asymmetry_Pilot,2022.1.3,Win32,59.97001499,62c50e9c1127f2cd403a315f,,,,,,,,,,,,,,,,,,,,,,,,,,,,,,,,,,,,,,,,,,,,,,,,,,,,,,,,,,,,,,,,,,,,,,,,,,,,,,,,,,,,,,,,,,,,,,,,,,,,,,,,,,,,,,,,,,,,,,,,,,,,,,,,,,,,,,,,,,,,,,,,,,,,,,,,,,,,,,,,,,,
0,49,49,90,1,,615c5d74156deea8ee2aa187,62c539970f5bf6bc18c814c6,2022-07-06_09h25.36.238,Colour_Asymmetry_Pilot,2022.1.3,Win32,59.97001499,62c50e9c1127f2cd403a315f,,,,,,,,,,,,,,,,,,,,,,,,,,,,,,,,,,,,,,,,,,,,,,,,,,,,,,,,,,,,,,,,,,,,,,,,,,,,,,,,,,,,,,,,,,,,,,,,,,,,,,,,,,,,,,,,,,,,,,,,,,,,,,,,,,,,,,,,,,,,,,,,,,,,,,,,,,,,,,,,,,,
0,50,50,5,1,,615c5d74156deea8ee2aa187,62c539970f5bf6bc18c814c6,2022-07-06_09h25.36.238,Colour_Asymmetry_Pilot,2022.1.3,Win32,59.97001499,62c50e9c1127f2cd403a315f,,,,,,,,,,,,,,,,,,,,,,,,,,,,,,,,,,,,,,,,,,,,,,,,,,,,,,,,,,,,,,,,,,,,,,,,,,,,,,,,,,,,,,,,,,,,,,,,,,,,,,,,,,,,,,,,,,,,,,,,,,,,,,,,,,,,,,,,,,,,,,,,,,,,,,,,,,,,,,,,,,,
0,51,51,3,1,,615c5d74156deea8ee2aa187,62c539970f5bf6bc18c814c6,2022-07-06_09h25.36.238,Colour_Asymmetry_Pilot,2022.1.3,Win32,59.97001499,62c50e9c1127f2cd403a315f,,,,,,,,,,,,,,,,,,,,,,,,,,,,,,,,,,,,,,,,,,,,,,,,,,,,,,,,,,,,,,,,,,,,,,,,,,,,,,,,,,,,,,,,,,,,,,,,,,,,,,,,,,,,,,,,,,,,,,,,,,,,,,,,,,,,,,,,,,,,,,,,,,,,,,,,,,,,,,,,,,,
0,52,52,82,1,,615c5d74156deea8ee2aa187,62c539970f5bf6bc18c814c6,2022-07-06_09h25.36.238,Colour_Asymmetry_Pilot,2022.1.3,Win32,59.97001499,62c50e9c1127f2cd403a315f,,,,,,,,,,,,,,,,,,,,,,,,,,,,,,,,,,,,,,,,,,,,,,,,,,,,,,,,,,,,,,,,,,,,,,,,,,,,,,,,,,,,,,,,,,,,,,,,,,,,,,,,,,,,,,,,,,,,,,,,,,,,,,,,,,,,,,,,,,,,,,,,,,,,,,,,,,,,,,,,,,,
0,53,53,85,1,,615c5d74156deea8ee2aa187,62c539970f5bf6bc18c814c6,2022-07-06_09h25.36.238,Colour_Asymmetry_Pilot,2022.1.3,Win32,59.97001499,62c50e9c1127f2cd403a315f,,,,,,,,,,,,,,,,,,,,,,,,,,,,,,,,,,,,,,,,,,,,,,,,,,,,,,,,,,,,,,,,,,,,,,,,,,,,,,,,,,,,,,,,,,,,,,,,,,,,,,,,,,,,,,,,,,,,,,,,,,,,,,,,,,,,,,,,,,,,,,,,,,,,,,,,,,,,,,,,,,,
0,54,54,32,1,,615c5d74156deea8ee2aa187,62c539970f5bf6bc18c814c6,2022-07-06_09h25.36.238,Colour_Asymmetry_Pilot,2022.1.3,Win32,59.97001499,62c50e9c1127f2cd403a315f,,,,,,,,,,,,,,,,,,,,,,,,,,,,,,,,,,,,,,,,,,,,,,,,,,,,,,,,,,,,,,,,,,,,,,,,,,,,,,,,,,,,,,,,,,,,,,,,,,,,,,,,,,,,,,,,,,,,,,,,,,,,,,,,,,,,,,,,,,,,,,,,,,,,,,,,,,,,,,,,,,,
0,55,55,69,1,,615c5d74156deea8ee2aa187,62c539970f5bf6bc18c814c6,2022-07-06_09h25.36.238,Colour_Asymmetry_Pilot,2022.1.3,Win32,59.97001499,62c50e9c1127f2cd403a315f,,,,,,,,,,,,,,,,,,,,,,,,,,,,,,,,,,,,,,,,,,,,,,,,,,,,,,,,,,,,,,,,,,,,,,,,,,,,,,,,,,,,,,,,,,,,,,,,,,,,,,,,,,,,,,,,,,,,,,,,,,,,,,,,,,,,,,,,,,,,,,,,,,,,,,,,,,,,,,,,,,,
0,56,56,79,1,,615c5d74156deea8ee2aa187,62c539970f5bf6bc18c814c6,2022-07-06_09h25.36.238,Colour_Asymmetry_Pilot,2022.1.3,Win32,59.97001499,62c50e9c1127f2cd403a315f,,,,,,,,,,,,,,,,,,,,,,,,,,,,,,,,,,,,,,,,,,,,,,,,,,,,,,,,,,,,,,,,,,,,,,,,,,,,,,,,,,,,,,,,,,,,,,,,,,,,,,,,,,,,,,,,,,,,,,,,,,,,,,,,,,,,,,,,,,,,,,,,,,,,,,,,,,,,,,,,,,,
0,57,57,36,1,,615c5d74156deea8ee2aa187,62c539970f5bf6bc18c814c6,2022-07-06_09h25.36.238,Colour_Asymmetry_Pilot,2022.1.3,Win32,59.97001499,62c50e9c1127f2cd403a315f,,,,,,,,,,,,,,,,,,,,,,,,,,,,,,,,,,,,,,,,,,,,,,,,,,,,,,,,,,,,,,,,,,,,,,,,,,,,,,,,,,,,,,,,,,,,,,,,,,,,,,,,,,,,,,,,,,,,,,,,,,,,,,,,,,,,,,,,,,,,,,,,,,,,,,,,,,,,,,,,,,,
0,58,58,87,1,,615c5d74156deea8ee2aa187,62c539970f5bf6bc18c814c6,2022-07-06_09h25.36.238,Colour_Asymmetry_Pilot,2022.1.3,Win32,59.97001499,62c50e9c1127f2cd403a315f,,,,,,,,,,,,,,,,,,,,,,,,,,,,,,,,,,,,,,,,,,,,,,,,,,,,,,,,,,,,,,,,,,,,,,,,,,,,,,,,,,,,,,,,,,,,,,,,,,,,,,,,,,,,,,,,,,,,,,,,,,,,,,,,,,,,,,,,,,,,,,,,,,,,,,,,,,,,,,,,,,,
0,59,59,58,1,,615c5d74156deea8ee2aa187,62c539970f5bf6bc18c814c6,2022-07-06_09h25.36.238,Colour_Asymmetry_Pilot,2022.1.3,Win32,59.97001499,62c50e9c1127f2cd403a315f,,,,,,,,,,,,,,,,,,,,,,,,,,,,,,,,,,,,,,,,,,,,,,,,,,,,,,,,,,,,,,,,,,,,,,,,,,,,,,,,,,,,,,,,,,,,,,,,,,,,,,,,,,,,,,,,,,,,,,,,,,,,,,,,,,,,,,,,,,,,,,,,,,,,,,,,,,,,,,,,,,,
0,60,60,56,1,,615c5d74156deea8ee2aa187,62c539970f5bf6bc18c814c6,2022-07-06_09h25.36.238,Colour_Asymmetry_Pilot,2022.1.3,Win32,59.97001499,62c50e9c1127f2cd403a315f,,,,,,,,,,,,,,,,,,,,,,,,,,,,,,,,,,,,,,,,,,,,,,,,,,,,,,,,,,,,,,,,,,,,,,,,,,,,,,,,,,,,,,,,,,,,,,,,,,,,,,,,,,,,,,,,,,,,,,,,,,,,,,,,,,,,,,,,,,,,,,,,,,,,,,,,,,,,,,,,,,,
0,61,61,91,1,,615c5d74156deea8ee2aa187,62c539970f5bf6bc18c814c6,2022-07-06_09h25.36.238,Colour_Asymmetry_Pilot,2022.1.3,Win32,59.97001499,62c50e9c1127f2cd403a315f,,,,,,,,,,,,,,,,,,,,,,,,,,,,,,,,,,,,,,,,,,,,,,,,,,,,,,,,,,,,,,,,,,,,,,,,,,,,,,,,,,,,,,,,,,,,,,,,,,,,,,,,,,,,,,,,,,,,,,,,,,,,,,,,,,,,,,,,,,,,,,,,,,,,,,,,,,,,,,,,,,,
0,62,62,14,1,,615c5d74156deea8ee2aa187,62c539970f5bf6bc18c814c6,2022-07-06_09h25.36.238,Colour_Asymmetry_Pilot,2022.1.3,Win32,59.97001499,62c50e9c1127f2cd403a315f,,,,,,,,,,,,,,,,,,,,,,,,,,,,,,,,,,,,,,,,,,,,,,,,,,,,,,,,,,,,,,,,,,,,,,,,,,,,,,,,,,,,,,,,,,,,,,,,,,,,,,,,,,,,,,,,,,,,,,,,,,,,,,,,,,,,,,,,,,,,,,,,,,,,,,,,,,,,,,,,,,,
0,63,63,75,1,,615c5d74156deea8ee2aa187,62c539970f5bf6bc18c814c6,2022-07-06_09h25.36.238,Colour_Asymmetry_Pilot,2022.1.3,Win32,59.97001499,62c50e9c1127f2cd403a315f,,,,,,,,,,,,,,,,,,,,,,,,,,,,,,,,,,,,,,,,,,,,,,,,,,,,,,,,,,,,,,,,,,,,,,,,,,,,,,,,,,,,,,,,,,,,,,,,,,,,,,,,,,,,,,,,,,,,,,,,,,,,,,,,,,,,,,,,,,,,,,,,,,,,,,,,,,,,,,,,,,,
0,64,64,61,1,,615c5d74156deea8ee2aa187,62c539970f5bf6bc18c814c6,2022-07-06_09h25.36.238,Colour_Asymmetry_Pilot,2022.1.3,Win32,59.97001499,62c50e9c1127f2cd403a315f,,,,,,,,,,,,,,,,,,,,,,,,,,,,,,,,,,,,,,,,,,,,,,,,,,,,,,,,,,,,,,,,,,,,,,,,,,,,,,,,,,,,,,,,,,,,,,,,,,,,,,,,,,,,,,,,,,,,,,,,,,,,,,,,,,,,,,,,,,,,,,,,,,,,,,,,,,,,,,,,,,,
0,65,65,26,1,,615c5d74156deea8ee2aa187,62c539970f5bf6bc18c814c6,2022-07-06_09h25.36.238,Colour_Asymmetry_Pilot,2022.1.3,Win32,59.97001499,62c50e9c1127f2cd403a315f,,,,,,,,,,,,,,,,,,,,,,,,,,,,,,,,,,,,,,,,,,,,,,,,,,,,,,,,,,,,,,,,,,,,,,,,,,,,,,,,,,,,,,,,,,,,,,,,,,,,,,,,,,,,,,,,,,,,,,,,,,,,,,,,,,,,,,,,,,,,,,,,,,,,,,,,,,,,,,,,,,,
0,66,66,29,1,,615c5d74156deea8ee2aa187,62c539970f5bf6bc18c814c6,2022-07-06_09h25.36.238,Colour_Asymmetry_Pilot,2022.1.3,Win32,59.97001499,62c50e9c1127f2cd403a315f,,,,,,,,,,,,,,,,,,,,,,,,,,,,,,,,,,,,,,,,,,,,,,,,,,,,,,,,,,,,,,,,,,,,,,,,,,,,,,,,,,,,,,,,,,,,,,,,,,,,,,,,,,,,,,,,,,,,,,,,,,,,,,,,,,,,,,,,,,,,,,,,,,,,,,,,,,,,,,,,,,,
0,67,67,30,1,,615c5d74156deea8ee2aa187,62c539970f5bf6bc18c814c6,2022-07-06_09h25.36.238,Colour_Asymmetry_Pilot,2022.1.3,Win32,59.97001499,62c50e9c1127f2cd403a315f,,,,,,,,,,,,,,,,,,,,,,,,,,,,,,,,,,,,,,,,,,,,,,,,,,,,,,,,,,,,,,,,,,,,,,,,,,,,,,,,,,,,,,,,,,,,,,,,,,,,,,,,,,,,,,,,,,,,,,,,,,,,,,,,,,,,,,,,,,,,,,,,,,,,,,,,,,,,,,,,,,,
0,68,68,45,1,,615c5d74156deea8ee2aa187,62c539970f5bf6bc18c814c6,2022-07-06_09h25.36.238,Colour_Asymmetry_Pilot,2022.1.3,Win32,59.97001499,62c50e9c1127f2cd403a315f,,,,,,,,,,,,,,,,,,,,,,,,,,,,,,,,,,,,,,,,,,,,,,,,,,,,,,,,,,,,,,,,,,,,,,,,,,,,,,,,,,,,,,,,,,,,,,,,,,,,,,,,,,,,,,,,,,,,,,,,,,,,,,,,,,,,,,,,,,,,,,,,,,,,,,,,,,,,,,,,,,,
0,69,69,44,1,,615c5d74156deea8ee2aa187,62c539970f5bf6bc18c814c6,2022-07-06_09h25.36.238,Colour_Asymmetry_Pilot,2022.1.3,Win32,59.97001499,62c50e9c1127f2cd403a315f,,,,,,,,,,,,,,,,,,,,,,,,,,,,,,,,,,,,,,,,,,,,,,,,,,,,,,,,,,,,,,,,,,,,,,,,,,,,,,,,,,,,,,,,,,,,,,,,,,,,,,,,,,,,,,,,,,,,,,,,,,,,,,,,,,,,,,,,,,,,,,,,,,,,,,,,,,,,,,,,,,,
0,70,70,66,1,,615c5d74156deea8ee2aa187,62c539970f5bf6bc18c814c6,2022-07-06_09h25.36.238,Colour_Asymmetry_Pilot,2022.1.3,Win32,59.97001499,62c50e9c1127f2cd403a315f,,,,,,,,,,,,,,,,,,,,,,,,,,,,,,,,,,,,,,,,,,,,,,,,,,,,,,,,,,,,,,,,,,,,,,,,,,,,,,,,,,,,,,,,,,,,,,,,,,,,,,,,,,,,,,,,,,,,,,,,,,,,,,,,,,,,,,,,,,,,,,,,,,,,,,,,,,,,,,,,,,,
0,71,71,22,1,,615c5d74156deea8ee2aa187,62c539970f5bf6bc18c814c6,2022-07-06_09h25.36.238,Colour_Asymmetry_Pilot,2022.1.3,Win32,59.97001499,62c50e9c1127f2cd403a315f,,,,,,,,,,,,,,,,,,,,,,,,,,,,,,,,,,,,,,,,,,,,,,,,,,,,,,,,,,,,,,,,,,,,,,,,,,,,,,,,,,,,,,,,,,,,,,,,,,,,,,,,,,,,,,,,,,,,,,,,,,,,,,,,,,,,,,,,,,,,,,,,,,,,,,,,,,,,,,,,,,,
0,72,72,8,1,,615c5d74156deea8ee2aa187,62c539970f5bf6bc18c814c6,2022-07-06_09h25.36.238,Colour_Asymmetry_Pilot,2022.1.3,Win32,59.97001499,62c50e9c1127f2cd403a315f,,,,,,,,,,,,,,,,,,,,,,,,,,,,,,,,,,,,,,,,,,,,,,,,,,,,,,,,,,,,,,,,,,,,,,,,,,,,,,,,,,,,,,,,,,,,,,,,,,,,,,,,,,,,,,,,,,,,,,,,,,,,,,,,,,,,,,,,,,,,,,,,,,,,,,,,,,,,,,,,,,,
0,73,73,15,1,,615c5d74156deea8ee2aa187,62c539970f5bf6bc18c814c6,2022-07-06_09h25.36.238,Colour_Asymmetry_Pilot,2022.1.3,Win32,59.97001499,62c50e9c1127f2cd403a315f,,,,,,,,,,,,,,,,,,,,,,,,,,,,,,,,,,,,,,,,,,,,,,,,,,,,,,,,,,,,,,,,,,,,,,,,,,,,,,,,,,,,,,,,,,,,,,,,,,,,,,,,,,,,,,,,,,,,,,,,,,,,,,,,,,,,,,,,,,,,,,,,,,,,,,,,,,,,,,,,,,,
0,74,74,46,1,,615c5d74156deea8ee2aa187,62c539970f5bf6bc18c814c6,2022-07-06_09h25.36.238,Colour_Asymmetry_Pilot,2022.1.3,Win32,59.97001499,62c50e9c1127f2cd403a315f,,,,,,,,,,,,,,,,,,,,,,,,,,,,,,,,,,,,,,,,,,,,,,,,,,,,,,,,,,,,,,,,,,,,,,,,,,,,,,,,,,,,,,,,,,,,,,,,,,,,,,,,,,,,,,,,,,,,,,,,,,,,,,,,,,,,,,,,,,,,,,,,,,,,,,,,,,,,,,,,,,,
0,75,75,1,1,,615c5d74156deea8ee2aa187,62c539970f5bf6bc18c814c6,2022-07-06_09h25.36.238,Colour_Asymmetry_Pilot,2022.1.3,Win32,59.97001499,62c50e9c1127f2cd403a315f,,,,,,,,,,,,,,,,,,,,,,,,,,,,,,,,,,,,,,,,,,,,,,,,,,,,,,,,,,,,,,,,,,,,,,,,,,,,,,,,,,,,,,,,,,,,,,,,,,,,,,,,,,,,,,,,,,,,,,,,,,,,,,,,,,,,,,,,,,,,,,,,,,,,,,,,,,,,,,,,,,,
0,76,76,38,1,,615c5d74156deea8ee2aa187,62c539970f5bf6bc18c814c6,2022-07-06_09h25.36.238,Colour_Asymmetry_Pilot,2022.1.3,Win32,59.97001499,62c50e9c1127f2cd403a315f,,,,,,,,,,,,,,,,,,,,,,,,,,,,,,,,,,,,,,,,,,,,,,,,,,,,,,,,,,,,,,,,,,,,,,,,,,,,,,,,,,,,,,,,,,,,,,,,,,,,,,,,,,,,,,,,,,,,,,,,,,,,,,,,,,,,,,,,,,,,,,,,,,,,,,,,,,,,,,,,,,,
0,77,77,24,1,,615c5d74156deea8ee2aa187,62c539970f5bf6bc18c814c6,2022-07-06_09h25.36.238,Colour_Asymmetry_Pilot,2022.1.3,Win32,59.97001499,62c50e9c1127f2cd403a315f,,,,,,,,,,,,,,,,,,,,,,,,,,,,,,,,,,,,,,,,,,,,,,,,,,,,,,,,,,,,,,,,,,,,,,,,,,,,,,,,,,,,,,,,,,,,,,,,,,,,,,,,,,,,,,,,,,,,,,,,,,,,,,,,,,,,,,,,,,,,,,,,,,,,,,,,,,,,,,,,,,,
0,78,78,84,1,,615c5d74156deea8ee2aa187,62c539970f5bf6bc18c814c6,2022-07-06_09h25.36.238,Colour_Asymmetry_Pilot,2022.1.3,Win32,59.97001499,62c50e9c1127f2cd403a315f,,,,,,,,,,,,,,,,,,,,,,,,,,,,,,,,,,,,,,,,,,,,,,,,,,,,,,,,,,,,,,,,,,,,,,,,,,,,,,,,,,,,,,,,,,,,,,,,,,,,,,,,,,,,,,,,,,,,,,,,,,,,,,,,,,,,,,,,,,,,,,,,,,,,,,,,,,,,,,,,,,,
0,79,79,25,1,,615c5d74156deea8ee2aa187,62c539970f5bf6bc18c814c6,2022-07-06_09h25.36.238,Colour_Asymmetry_Pilot,2022.1.3,Win32,59.97001499,62c50e9c1127f2cd403a315f,,,,,,,,,,,,,,,,,,,,,,,,,,,,,,,,,,,,,,,,,,,,,,,,,,,,,,,,,,,,,,,,,,,,,,,,,,,,,,,,,,,,,,,,,,,,,,,,,,,,,,,,,,,,,,,,,,,,,,,,,,,,,,,,,,,,,,,,,,,,,,,,,,,,,,,,,,,,,,,,,,,
0,80,80,9,1,,615c5d74156deea8ee2aa187,62c539970f5bf6bc18c814c6,2022-07-06_09h25.36.238,Colour_Asymmetry_Pilot,2022.1.3,Win32,59.97001499,62c50e9c1127f2cd403a315f,,,,,,,,,,,,,,,,,,,,,,,,,,,,,,,,,,,,,,,,,,,,,,,,,,,,,,,,,,,,,,,,,,,,,,,,,,,,,,,,,,,,,,,,,,,,,,,,,,,,,,,,,,,,,,,,,,,,,,,,,,,,,,,,,,,,,,,,,,,,,,,,,,,,,,,,,,,,,,,,,,,
0,81,81,39,1,,615c5d74156deea8ee2aa187,62c539970f5bf6bc18c814c6,2022-07-06_09h25.36.238,Colour_Asymmetry_Pilot,2022.1.3,Win32,59.97001499,62c50e9c1127f2cd403a315f,,,,,,,,,,,,,,,,,,,,,,,,,,,,,,,,,,,,,,,,,,,,,,,,,,,,,,,,,,,,,,,,,,,,,,,,,,,,,,,,,,,,,,,,,,,,,,,,,,,,,,,,,,,,,,,,,,,,,,,,,,,,,,,,,,,,,,,,,,,,,,,,,,,,,,,,,,,,,,,,,,,
0,82,82,49,1,,615c5d74156deea8ee2aa187,62c539970f5bf6bc18c814c6,2022-07-06_09h25.36.238,Colour_Asymmetry_Pilot,2022.1.3,Win32,59.97001499,62c50e9c1127f2cd403a315f,,,,,,,,,,,,,,,,,,,,,,,,,,,,,,,,,,,,,,,,,,,,,,,,,,,,,,,,,,,,,,,,,,,,,,,,,,,,,,,,,,,,,,,,,,,,,,,,,,,,,,,,,,,,,,,,,,,,,,,,,,,,,,,,,,,,,,,,,,,,,,,,,,,,,,,,,,,,,,,,,,,
0,83,83,88,1,,615c5d74156deea8ee2aa187,62c539970f5bf6bc18c814c6,2022-07-06_09h25.36.238,Colour_Asymmetry_Pilot,2022.1.3,Win32,59.97001499,62c50e9c1127f2cd403a315f,,,,,,,,,,,,,,,,,,,,,,,,,,,,,,,,,,,,,,,,,,,,,,,,,,,,,,,,,,,,,,,,,,,,,,,,,,,,,,,,,,,,,,,,,,,,,,,,,,,,,,,,,,,,,,,,,,,,,,,,,,,,,,,,,,,,,,,,,,,,,,,,,,,,,,,,,,,,,,,,,,,
0,84,84,65,1,,615c5d74156deea8ee2aa187,62c539970f5bf6bc18c814c6,2022-07-06_09h25.36.238,Colour_Asymmetry_Pilot,2022.1.3,Win32,59.97001499,62c50e9c1127f2cd403a315f,,,,,,,,,,,,,,,,,,,,,,,,,,,,,,,,,,,,,,,,,,,,,,,,,,,,,,,,,,,,,,,,,,,,,,,,,,,,,,,,,,,,,,,,,,,,,,,,,,,,,,,,,,,,,,,,,,,,,,,,,,,,,,,,,,,,,,,,,,,,,,,,,,,,,,,,,,,,,,,,,,,
0,85,85,20,1,,615c5d74156deea8ee2aa187,62c539970f5bf6bc18c814c6,2022-07-06_09h25.36.238,Colour_Asymmetry_Pilot,2022.1.3,Win32,59.97001499,62c50e9c1127f2cd403a315f,,,,,,,,,,,,,,,,,,,,,,,,,,,,,,,,,,,,,,,,,,,,,,,,,,,,,,,,,,,,,,,,,,,,,,,,,,,,,,,,,,,,,,,,,,,,,,,,,,,,,,,,,,,,,,,,,,,,,,,,,,,,,,,,,,,,,,,,,,,,,,,,,,,,,,,,,,,,,,,,,,,
0,86,86,21,1,,615c5d74156deea8ee2aa187,62c539970f5bf6bc18c814c6,2022-07-06_09h25.36.238,Colour_Asymmetry_Pilot,2022.1.3,Win32,59.97001499,62c50e9c1127f2cd403a315f,,,,,,,,,,,,,,,,,,,,,,,,,,,,,,,,,,,,,,,,,,,,,,,,,,,,,,,,,,,,,,,,,,,,,,,,,,,,,,,,,,,,,,,,,,,,,,,,,,,,,,,,,,,,,,,,,,,,,,,,,,,,,,,,,,,,,,,,,,,,,,,,,,,,,,,,,,,,,,,,,,,
0,87,87,42,1,,615c5d74156deea8ee2aa187,62c539970f5bf6bc18c814c6,2022-07-06_09h25.36.238,Colour_Asymmetry_Pilot,2022.1.3,Win32,59.97001499,62c50e9c1127f2cd403a315f,,,,,,,,,,,,,,,,,,,,,,,,,,,,,,,,,,,,,,,,,,,,,,,,,,,,,,,,,,,,,,,,,,,,,,,,,,,,,,,,,,,,,,,,,,,,,,,,,,,,,,,,,,,,,,,,,,,,,,,,,,,,,,,,,,,,,,,,,,,,,,,,,,,,,,,,,,,,,,,,,,,
0,88,88,72,1,,615c5d74156deea8ee2aa187,62c539970f5bf6bc18c814c6,2022-07-06_09h25.36.238,Colour_Asymmetry_Pilot,2022.1.3,Win32,59.97001499,62c50e9c1127f2cd403a315f,,,,,,,,,,,,,,,,,,,,,,,,,,,,,,,,,,,,,,,,,,,,,,,,,,,,,,,,,,,,,,,,,,,,,,,,,,,,,,,,,,,,,,,,,,,,,,,,,,,,,,,,,,,,,,,,,,,,,,,,,,,,,,,,,,,,,,,,,,,,,,,,,,,,,,,,,,,,,,,,,,,
0,89,89,62,1,,615c5d74156deea8ee2aa187,62c539970f5bf6bc18c814c6,2022-07-06_09h25.36.238,Colour_Asymmetry_Pilot,2022.1.3,Win32,59.97001499,62c50e9c1127f2cd403a315f,,,,,,,,,,,,,,,,,,,,,,,,,,,,,,,,,,,,,,,,,,,,,,,,,,,,,,,,,,,,,,,,,,,,,,,,,,,,,,,,,,,,,,,,,,,,,,,,,,,,,,,,,,,,,,,,,,,,,,,,,,,,,,,,,,,,,,,,,,,,,,,,,,,,,,,,,,,,,,,,,,,
0,90,90,35,1,,615c5d74156deea8ee2aa187,62c539970f5bf6bc18c814c6,2022-07-06_09h25.36.238,Colour_Asymmetry_Pilot,2022.1.3,Win32,59.97001499,62c50e9c1127f2cd403a315f,,,,,,,,,,,,,,,,,,,,,,,,,,,,,,,,,,,,,,,,,,,,,,,,,,,,,,,,,,,,,,,,,,,,,,,,,,,,,,,,,,,,,,,,,,,,,,,,,,,,,,,,,,,,,,,,,,,,,,,,,,,,,,,,,,,,,,,,,,,,,,,,,,,,,,,,,,,,,,,,,,,
0,91,91,17,1,,615c5d74156deea8ee2aa187,62c539970f5bf6bc18c814c6,2022-07-06_09h25.36.238,Colour_Asymmetry_Pilot,2022.1.3,Win32,59.97001499,62c50e9c1127f2cd403a315f,,,,,,,,,,,,,,,,,,,,,,,,,,,,,,,,,,,,,,,,,,,,,,,,,,,,,,,,,,,,,,,,,,,,,,,,,,,,,,,,,,,,,,,,,,,,,,,,,,,,,,,,,,,,,,,,,,,,,,,,,,,,,,,,,,,,,,,,,,,,,,,,,,,,,,,,,,,,,,,,,,,
0,92,92,13,1,,615c5d74156deea8ee2aa187,62c539970f5bf6bc18c814c6,2022-07-06_09h25.36.238,Colour_Asymmetry_Pilot,2022.1.3,Win32,59.97001499,62c50e9c1127f2cd403a315f,,,,,,,,,,,,,,,,,,,,,,,,,,,,,,,,,,,,,,,,,,,,,,,,,,,,,,,,,,,,,,,,,,,,,,,,,,,,,,,,,,,,,,,,,,,,,,,,,,,,,,,,,,,,,,,,,,,,,,,,,,,,,,,,,,,,,,,,,,,,,,,,,,,,,,,,,,,,,,,,,,,
,,,,,,615c5d74156deea8ee2aa187,62c539970f5bf6bc18c814c6,2022-07-06_09h25.36.238,Colour_Asymmetry_Pilot,2022.1.3,Win32,59.97001499,62c50e9c1127f2cd403a315f,0,0,0,8,1,onetwo,,,,,,,,,,,,,,,,,,,,,,,,,,,,,,,,,,,,,,,,,,,,,,,,,,,,,,,,,,,,,,,,,,,,,,,,,,,,,,,,,,,,,,,,,,,,,,,,,,,,,,,,,,,,,,,,,,,,,,,,,,,,,,,,,,,,,,,,,,,,,,,,,,,,,,,,,,,,,
,,,,,,615c5d74156deea8ee2aa187,62c539970f5bf6bc18c814c6,2022-07-06_09h25.36.238,Colour_Asymmetry_Pilot,2022.1.3,Win32,59.97001499,62c50e9c1127f2cd403a315f,0,1,1,33,1,onethree,,,,,,,,,,,,,,,,,,,,,,,,,,,,,,,,,,,,,,,,,,,,,,,,,,,,,,,,,,,,,,,,,,,,,,,,,,,,,,,,,,,,,,,,,,,,,,,,,,,,,,,,,,,,,,,,,,,,,,,,,,,,,,,,,,,,,,,,,,,,,,,,,,,,,,,,,,,,,
,,,,,,615c5d74156deea8ee2aa187,62c539970f5bf6bc18c814c6,2022-07-06_09h25.36.238,Colour_Asymmetry_Pilot,2022.1.3,Win32,59.97001499,62c50e9c1127f2cd403a315f,0,2,2,150,1,fourtwo,,,,,,,,,,,,,,,,,,,,,,,,,,,,,,,,,,,,,,,,,,,,,,,,,,,,,,,,,,,,,,,,,,,,,,,,,,,,,,,,,,,,,,,,,,,,,,,,,,,,,,,,,,,,,,,,,,,,,,,,,,,,,,,,,,,,,,,,,,,,,,,,,,,,,,,,,,,,,
,,,,,,615c5d74156deea8ee2aa187,62c539970f5bf6bc18c814c6,2022-07-06_09h25.36.238,Colour_Asymmetry_Pilot,2022.1.3,Win32,59.97001499,62c50e9c1127f2cd403a315f,0,3,3,4,1,threeone,,,,,,,,,,,,,,,,,,,,,,,,,,,,,,,,,,,,,,,,,,,,,,,,,,,,,,,,,,,,,,,,,,,,,,,,,,,,,,,,,,,,,,,,,,,,,,,,,,,,,,,,,,,,,,,,,,,,,,,,,,,,,,,,,,,,,,,,,,,,,,,,,,,,,,,,,,,,,
,,,,,,615c5d74156deea8ee2aa187,62c539970f5bf6bc18c814c6,2022-07-06_09h25.36.238,Colour_Asymmetry_Pilot,2022.1.3,Win32,59.97001499,62c50e9c1127f2cd403a315f,0,4,4,22,1,fourtwo,,,,,,,,,,,,,,,,,,,,,,,,,,,,,,,,,,,,,,,,,,,,,,,,,,,,,,,,,,,,,,,,,,,,,,,,,,,,,,,,,,,,,,,,,,,,,,,,,,,,,,,,,,,,,,,,,,,,,,,,,,,,,,,,,,,,,,,,,,,,,,,,,,,,,,,,,,,,,
,,,,,,615c5d74156deea8ee2aa187,62c539970f5bf6bc18c814c6,2022-07-06_09h25.36.238,Colour_Asymmetry_Pilot,2022.1.3,Win32,59.97001499,62c50e9c1127f2cd403a315f,0,5,5,55,1,fourthree,,,,,,,,,,,,,,,,,,,,,,,,,,,,,,,,,,,,,,,,,,,,,,,,,,,,,,,,,,,,,,,,,,,,,,,,,,,,,,,,,,,,,,,,,,,,,,,,,,,,,,,,,,,,,,,,,,,,,,,,,,,,,,,,,,,,,,,,,,,,,,,,,,,,,,,,,,,,,
,,,,,,615c5d74156deea8ee2aa187,62c539970f5bf6bc18c814c6,2022-07-06_09h25.36.238,Colour_Asymmetry_Pilot,2022.1.3,Win32,59.97001499,62c50e9c1127f2cd403a315f,0,6,6,122,1,twoone,,,,,,,,,,,,,,,,,,,,,,,,,,,,,,,,,,,,,,,,,,,,,,,,,,,,,,,,,,,,,,,,,,,,,,,,,,,,,,,,,,,,,,,,,,,,,,,,,,,,,,,,,,,,,,,,,,,,,,,,,,,,,,,,,,,,,,,,,,,,,,,,,,,,,,,,,,,,,
,,,,,,615c5d74156deea8ee2aa187,62c539970f5bf6bc18c814c6,2022-07-06_09h25.36.238,Colour_Asymmetry_Pilot,2022.1.3,Win32,59.97001499,62c50e9c1127f2cd403a315f,0,7,7,69,1,threefour,,,,,,,,,,,,,,,,,,,,,,,,,,,,,,,,,,,,,,,,,,,,,,,,,,,,,,,,,,,,,,,,,,,,,,,,,,,,,,,,,,,,,,,,,,,,,,,,,,,,,,,,,,,,,,,,,,,,,,,,,,,,,,,,,,,,,,,,,,,,,,,,,,,,,,,,,,,,,
,,,,,,615c5d74156deea8ee2aa187,62c539970f5bf6bc18c814c6,2022-07-06_09h25.36.238,Colour_Asymmetry_Pilot,2022.1.3,Win32,59.97001499,62c50e9c1127f2cd403a315f,0,8,8,127,1,fourthree,,,,,,,,,,,,,,,,,,,,,,,,,,,,,,,,,,,,,,,,,,,,,,,,,,,,,,,,,,,,,,,,,,,,,,,,,,,,,,,,,,,,,,,,,,,,,,,,,,,,,,,,,,,,,,,,,,,,,,,,,,,,,,,,,,,,,,,,,,,,,,,,,,,,,,,,,,,,,
,,,,,,615c5d74156deea8ee2aa187,62c539970f5bf6bc18c814c6,2022-07-06_09h25.36.238,Colour_Asymmetry_Pilot,2022.1.3,Win32,59.97001499,62c50e9c1127f2cd403a315f,0,9,9,3,1,twofour,,,,,,,,,,,,,,,,,,,,,,,,,,,,,,,,,,,,,,,,,,,,,,,,,,,,,,,,,,,,,,,,,,,,,,,,,,,,,,,,,,,,,,,,,,,,,,,,,,,,,,,,,,,,,,,,,,,,,,,,,,,,,,,,,,,,,,,,,,,,,,,,,,,,,,,,,,,,,
,,,,,,615c5d74156deea8ee2aa187,62c539970f5bf6bc18c814c6,2022-07-06_09h25.36.238,Colour_Asymmetry_Pilot,2022.1.3,Win32,59.97001499,62c50e9c1127f2cd403a315f,0,10,10,71,1,fourthree,,,,,,,,,,,,,,,,,,,,,,,,,,,,,,,,,,,,,,,,,,,,,,,,,,,,,,,,,,,,,,,,,,,,,,,,,,,,,,,,,,,,,,,,,,,,,,,,,,,,,,,,,,,,,,,,,,,,,,,,,,,,,,,,,,,,,,,,,,,,,,,,,,,,,,,,,,,,,
,,,,,,615c5d74156deea8ee2aa187,62c539970f5bf6bc18c814c6,2022-07-06_09h25.36.238,Colour_Asymmetry_Pilot,2022.1.3,Win32,59.97001499,62c50e9c1127f2cd403a315f,0,11,11,96,1,onetwo,,,,,,,,,,,,,,,,,,,,,,,,,,,,,,,,,,,,,,,,,,,,,,,,,,,,,,,,,,,,,,,,,,,,,,,,,,,,,,,,,,,,,,,,,,,,,,,,,,,,,,,,,,,,,,,,,,,,,,,,,,,,,,,,,,,,,,,,,,,,,,,,,,,,,,,,,,,,,
,,,,,,615c5d74156deea8ee2aa187,62c539970f5bf6bc18c814c6,2022-07-06_09h25.36.238,Colour_Asymmetry_Pilot,2022.1.3,Win32,59.97001499,62c50e9c1127f2cd403a315f,0,12,12,93,1,threefour,,,,,,,,,,,,,,,,,,,,,,,,,,,,,,,,,,,,,,,,,,,,,,,,,,,,,,,,,,,,,,,,,,,,,,,,,,,,,,,,,,,,,,,,,,,,,,,,,,,,,,,,,,,,,,,,,,,,,,,,,,,,,,,,,,,,,,,,,,,,,,,,,,,,,,,,,,,,,
,,,,,,615c5d74156deea8ee2aa187,62c539970f5bf6bc18c814c6,2022-07-06_09h25.36.238,Colour_Asymmetry_Pilot,2022.1.3,Win32,59.97001499,62c50e9c1127f2cd403a315f,0,13,13,111,1,fourthree,,,,,,,,,,,,,,,,,,,,,,,,,,,,,,,,,,,,,,,,,,,,,,,,,,,,,,,,,,,,,,,,,,,,,,,,,,,,,,,,,,,,,,,,,,,,,,,,,,,,,,,,,,,,,,,,,,,,,,,,,,,,,,,,,,,,,,,,,,,,,,,,,,,,,,,,,,,,,
,,,,,,615c5d74156deea8ee2aa187,62c539970f5bf6bc18c814c6,2022-07-06_09h25.36.238,Colour_Asymmetry_Pilot,2022.1.3,Win32,59.97001499,62c50e9c1127f2cd403a315f,0,14,14,125,1,threefour,,,,,,,,,,,,,,,,,,,,,,,,,,,,,,,,,,,,,,,,,,,,,,,,,,,,,,,,,,,,,,,,,,,,,,,,,,,,,,,,,,,,,,,,,,,,,,,,,,,,,,,,,,,,,,,,,,,,,,,,,,,,,,,,,,,,,,,,,,,,,,,,,,,,,,,,,,,,,
,,,,,,615c5d74156deea8ee2aa187,62c539970f5bf6bc18c814c6,2022-07-06_09h25.36.238,Colour_Asymmetry_Pilot,2022.1.3,Win32,59.97001499,62c50e9c1127f2cd403a315f,0,15,15,155,1,twofour,,,,,,,,,,,,,,,,,,,,,,,,,,,,,,,,,,,,,,,,,,,,,,,,,,,,,,,,,,,,,,,,,,,,,,,,,,,,,,,,,,,,,,,,,,,,,,,,,,,,,,,,,,,,,,,,,,,,,,,,,,,,,,,,,,,,,,,,,,,,,,,,,,,,,,,,,,,,,
,,,,,,615c5d74156deea8ee2aa187,62c539970f5bf6bc18c814c6,2022-07-06_09h25.36.238,Colour_Asymmetry_Pilot,2022.1.3,Win32,59.97001499,62c50e9c1127f2cd403a315f,0,16,16,46,1,fourtwo,,,,,,,,,,,,,,,,,,,,,,,,,,,,,,,,,,,,,,,,,,,,,,,,,,,,,,,,,,,,,,,,,,,,,,,,,,,,,,,,,,,,,,,,,,,,,,,,,,,,,,,,,,,,,,,,,,,,,,,,,,,,,,,,,,,,,,,,,,,,,,,,,,,,,,,,,,,,,
,,,,,,615c5d74156deea8ee2aa187,62c539970f5bf6bc18c814c6,2022-07-06_09h25.36.238,Colour_Asymmetry_Pilot,2022.1.3,Win32,59.97001499,62c50e9c1127f2cd403a315f,0,17,17,92,1,threeone,,,,,,,,,,,,,,,,,,,,,,,,,,,,,,,,,,,,,,,,,,,,,,,,,,,,,,,,,,,,,,,,,,,,,,,,,,,,,,,,,,,,,,,,,,,,,,,,,,,,,,,,,,,,,,,,,,,,,,,,,,,,,,,,,,,,,,,,,,,,,,,,,,,,,,,,,,,,,
,,,,,,615c5d74156deea8ee2aa187,62c539970f5bf6bc18c814c6,2022-07-06_09h25.36.238,Colour_Asymmetry_Pilot,2022.1.3,Win32,59.97001499,62c50e9c1127f2cd403a315f,0,18,18,23,1,fourthree,,,,,,,,,,,,,,,,,,,,,,,,,,,,,,,,,,,,,,,,,,,,,,,,,,,,,,,,,,,,,,,,,,,,,,,,,,,,,,,,,,,,,,,,,,,,,,,,,,,,,,,,,,,,,,,,,,,,,,,,,,,,,,,,,,,,,,,,,,,,,,,,,,,,,,,,,,,,,
,,,,,,615c5d74156deea8ee2aa187,62c539970f5bf6bc18c814c6,2022-07-06_09h25.36.238,Colour_Asymmetry_Pilot,2022.1.3,Win32,59.97001499,62c50e9c1127f2cd403a315f,0,19,19,108,1,threeone,,,,,,,,,,,,,,,,,,,,,,,,,,,,,,,,,,,,,,,,,,,,,,,,,,,,,,,,,,,,,,,,,,,,,,,,,,,,,,,,,,,,,,,,,,,,,,,,,,,,,,,,,,,,,,,,,,,,,,,,,,,,,,,,,,,,,,,,,,,,,,,,,,,,,,,,,,,,,
,,,,,,615c5d74156deea8ee2aa187,62c539970f5bf6bc18c814c6,2022-07-06_09h25.36.238,Colour_Asymmetry_Pilot,2022.1.3,Win32,59.97001499,62c50e9c1127f2cd403a315f,0,20,20,84,1,threeone,,,,,,,,,,,,,,,,,,,,,,,,,,,,,,,,,,,,,,,,,,,,,,,,,,,,,,,,,,,,,,,,,,,,,,,,,,,,,,,,,,,,,,,,,,,,,,,,,,,,,,,,,,,,,,,,,,,,,,,,,,,,,,,,,,,,,,,,,,,,,,,,,,,,,,,,,,,,,
,,,,,,615c5d74156deea8ee2aa187,62c539970f5bf6bc18c814c6,2022-07-06_09h25.36.238,Colour_Asymmetry_Pilot,2022.1.3,Win32,59.97001499,62c50e9c1127f2cd403a315f,0,21,21,138,1,twoone,,,,,,,,,,,,,,,,,,,,,,,,,,,,,,,,,,,,,,,,,,,,,,,,,,,,,,,,,,,,,,,,,,,,,,,,,,,,,,,,,,,,,,,,,,,,,,,,,,,,,,,,,,,,,,,,,,,,,,,,,,,,,,,,,,,,,,,,,,,,,,,,,,,,,,,,,,,,,
,,,,,,615c5d74156deea8ee2aa187,62c539970f5bf6bc18c814c6,2022-07-06_09h25.36.238,Colour_Asymmetry_Pilot,2022.1.3,Win32,59.97001499,62c50e9c1127f2cd403a315f,0,22,22,105,1,onethree,,,,,,,,,,,,,,,,,,,,,,,,,,,,,,,,,,,,,,,,,,,,,,,,,,,,,,,,,,,,,,,,,,,,,,,,,,,,,,,,,,,,,,,,,,,,,,,,,,,,,,,,,,,,,,,,,,,,,,,,,,,,,,,,,,,,,,,,,,,,,,,,,,,,,,,,,,,,,
,,,,,,615c5d74156deea8ee2aa187,62c539970f5bf6bc18c814c6,2022-07-06_09h25.36.238,Colour_Asymmetry_Pilot,2022.1.3,Win32,59.97001499,62c50e9c1127f2cd403a315f,0,23,23,159,1,fourthree,,,,,,,,,,,,,,,,,,,,,,,,,,,,,,,,,,,,,,,,,,,,,,,,,,,,,,,,,,,,,,,,,,,,,,,,,,,,,,,,,,,,,,,,,,,,,,,,,,,,,,,,,,,,,,,,,,,,,,,,,,,,,,,,,,,,,,,,,,,,,,,,,,,,,,,,,,,,,
,,,,,,615c5d74156deea8ee2aa187,62c539970f5bf6bc18c814c6,2022-07-06_09h25.36.238,Colour_Asymmetry_Pilot,2022.1.3,Win32,59.97001499,62c50e9c1127f2cd403a315f,0,24,24,62,1,fourtwo,,,,,,,,,,,,,,,,,,,,,,,,,,,,,,,,,,,,,,,,,,,,,,,,,,,,,,,,,,,,,,,,,,,,,,,,,,,,,,,,,,,,,,,,,,,,,,,,,,,,,,,,,,,,,,,,,,,,,,,,,,,,,,,,,,,,,,,,,,,,,,,,,,,,,,,,,,,,,
,,,,,,615c5d74156deea8ee2aa187,62c539970f5bf6bc18c814c6,2022-07-06_09h25.36.238,Colour_Asymmetry_Pilot,2022.1.3,Win32,59.97001499,62c50e9c1127f2cd403a315f,0,25,25,123,1,twofour,,,,,,,,,,,,,,,,,,,,,,,,,,,,,,,,,,,,,,,,,,,,,,,,,,,,,,,,,,,,,,,,,,,,,,,,,,,,,,,,,,,,,,,,,,,,,,,,,,,,,,,,,,,,,,,,,,,,,,,,,,,,,,,,,,,,,,,,,,,,,,,,,,,,,,,,,,,,,
,,,,,,615c5d74156deea8ee2aa187,62c539970f5bf6bc18c814c6,2022-07-06_09h25.36.238,Colour_Asymmetry_Pilot,2022.1.3,Win32,59.97001499,62c50e9c1127f2cd403a315f,0,26,26,24,1,onetwo,,,,,,,,,,,,,,,,,,,,,,,,,,,,,,,,,,,,,,,,,,,,,,,,,,,,,,,,,,,,,,,,,,,,,,,,,,,,,,,,,,,,,,,,,,,,,,,,,,,,,,,,,,,,,,,,,,,,,,,,,,,,,,,,,,,,,,,,,,,,,,,,,,,,,,,,,,,,,
,,,,,,615c5d74156deea8ee2aa187,62c539970f5bf6bc18c814c6,2022-07-06_09h25.36.238,Colour_Asymmetry_Pilot,2022.1.3,Win32,59.97001499,62c50e9c1127f2cd403a315f,0,27,27,64,1,onetwo,,,,,,,,,,,,,,,,,,,,,,,,,,,,,,,,,,,,,,,,,,,,,,,,,,,,,,,,,,,,,,,,,,,,,,,,,,,,,,,,,,,,,,,,,,,,,,,,,,,,,,,,,,,,,,,,,,,,,,,,,,,,,,,,,,,,,,,,,,,,,,,,,,,,,,,,,,,,,
,,,,,,615c5d74156deea8ee2aa187,62c539970f5bf6bc18c814c6,2022-07-06_09h25.36.238,Colour_Asymmetry_Pilot,2022.1.3,Win32,59.97001499,62c50e9c1127f2cd403a315f,0,28,28,115,1,twofour,,,,,,,,,,,,,,,,,,,,,,,,,,,,,,,,,,,,,,,,,,,,,,,,,,,,,,,,,,,,,,,,,,,,,,,,,,,,,,,,,,,,,,,,,,,,,,,,,,,,,,,,,,,,,,,,,,,,,,,,,,,,,,,,,,,,,,,,,,,,,,,,,,,,,,,,,,,,,
,,,,,,615c5d74156deea8ee2aa187,62c539970f5bf6bc18c814c6,2022-07-06_09h25.36.238,Colour_Asymmetry_Pilot,2022.1.3,Win32,59.97001499,62c50e9c1127f2cd403a315f,0,29,29,109,1,threefour,,,,,,,,,,,,,,,,,,,,,,,,,,,,,,,,,,,,,,,,,,,,,,,,,,,,,,,,,,,,,,,,,,,,,,,,,,,,,,,,,,,,,,,,,,,,,,,,,,,,,,,,,,,,,,,,,,,,,,,,,,,,,,,,,,,,,,,,,,,,,,,,,,,,,,,,,,,,,
,,,,,,615c5d74156deea8ee2aa187,62c539970f5bf6bc18c814c6,2022-07-06_09h25.36.238,Colour_Asymmetry_Pilot,2022.1.3,Win32,59.97001499,62c50e9c1127f2cd403a315f,0,30,30,19,1,twofour,,,,,,,,,,,,,,,,,,,,,,,,,,,,,,,,,,,,,,,,,,,,,,,,,,,,,,,,,,,,,,,,,,,,,,,,,,,,,,,,,,,,,,,,,,,,,,,,,,,,,,,,,,,,,,,,,,,,,,,,,,,,,,,,,,,,,,,,,,,,,,,,,,,,,,,,,,,,,
,,,,,,615c5d74156deea8ee2aa187,62c539970f5bf6bc18c814c6,2022-07-06_09h25.36.238,Colour_Asymmetry_Pilot,2022.1.3,Win32,59.97001499,62c50e9c1127f2cd403a315f,0,31,31,153,1,onethree,,,,,,,,,,,,,,,,,,,,,,,,,,,,,,,,,,,,,,,,,,,,,,,,,,,,,,,,,,,,,,,,,,,,,,,,,,,,,,,,,,,,,,,,,,,,,,,,,,,,,,,,,,,,,,,,,,,,,,,,,,,,,,,,,,,,,,,,,,,,,,,,,,,,,,,,,,,,,
,,,,,,615c5d74156deea8ee2aa187,62c539970f5bf6bc18c814c6,2022-07-06_09h25.36.238,Colour_Asymmetry_Pilot,2022.1.3,Win32,59.97001499,62c50e9c1127f2cd403a315f,0,32,32,76,1,threeone,,,,,,,,,,,,,,,,,,,,,,,,,,,,,,,,,,,,,,,,,,,,,,,,,,,,,,,,,,,,,,,,,,,,,,,,,,,,,,,,,,,,,,,,,,,,,,,,,,,,,,,,,,,,,,,,,,,,,,,,,,,,,,,,,,,,,,,,,,,,,,,,,,,,,,,,,,,,,
,,,,,,615c5d74156deea8ee2aa187,62c539970f5bf6bc18c814c6,2022-07-06_09h25.36.238,Colour_Asymmetry_Pilot,2022.1.3,Win32,59.97001499,62c50e9c1127f2cd403a315f,0,33,33,63,1,fourthree,,,,,,,,,,,,,,,,,,,,,,,,,,,,,,,,,,,,,,,,,,,,,,,,,,,,,,,,,,,,,,,,,,,,,,,,,,,,,,,,,,,,,,,,,,,,,,,,,,,,,,,,,,,,,,,,,,,,,,,,,,,,,,,,,,,,,,,,,,,,,,,,,,,,,,,,,,,,,
,,,,,,615c5d74156deea8ee2aa187,62c539970f5bf6bc18c814c6,2022-07-06_09h25.36.238,Colour_Asymmetry_Pilot,2022.1.3,Win32,59.97001499,62c50e9c1127f2cd403a315f,0,34,34,38,1,fourtwo,,,,,,,,,,,,,,,,,,,,,,,,,,,,,,,,,,,,,,,,,,,,,,,,,,,,,,,,,,,,,,,,,,,,,,,,,,,,,,,,,,,,,,,,,,,,,,,,,,,,,,,,,,,,,,,,,,,,,,,,,,,,,,,,,,,,,,,,,,,,,,,,,,,,,,,,,,,,,
,,,,,,615c5d74156deea8ee2aa187,62c539970f5bf6bc18c814c6,2022-07-06_09h25.36.238,Colour_Asymmetry_Pilot,2022.1.3,Win32,59.97001499,62c50e9c1127f2cd403a315f,0,35,35,147,1,twofour,,,,,,,,,,,,,,,,,,,,,,,,,,,,,,,,,,,,,,,,,,,,,,,,,,,,,,,,,,,,,,,,,,,,,,,,,,,,,,,,,,,,,,,,,,,,,,,,,,,,,,,,,,,,,,,,,,,,,,,,,,,,,,,,,,,,,,,,,,,,,,,,,,,,,,,,,,,,,
,,,,,,615c5d74156deea8ee2aa187,62c539970f5bf6bc18c814c6,2022-07-06_09h25.36.238,Colour_Asymmetry_Pilot,2022.1.3,Win32,59.97001499,62c50e9c1127f2cd403a315f,0,36,36,9,1,onethree,,,,,,,,,,,,,,,,,,,,,,,,,,,,,,,,,,,,,,,,,,,,,,,,,,,,,,,,,,,,,,,,,,,,,,,,,,,,,,,,,,,,,,,,,,,,,,,,,,,,,,,,,,,,,,,,,,,,,,,,,,,,,,,,,,,,,,,,,,,,,,,,,,,,,,,,,,,,,
,,,,,,615c5d74156deea8ee2aa187,62c539970f5bf6bc18c814c6,2022-07-06_09h25.36.238,Colour_Asymmetry_Pilot,2022.1.3,Win32,59.97001499,62c50e9c1127f2cd403a315f,0,37,37,114,1,twoone,,,,,,,,,,,,,,,,,,,,,,,,,,,,,,,,,,,,,,,,,,,,,,,,,,,,,,,,,,,,,,,,,,,,,,,,,,,,,,,,,,,,,,,,,,,,,,,,,,,,,,,,,,,,,,,,,,,,,,,,,,,,,,,,,,,,,,,,,,,,,,,,,,,,,,,,,,,,,
,,,,,,615c5d74156deea8ee2aa187,62c539970f5bf6bc18c814c6,2022-07-06_09h25.36.238,Colour_Asymmetry_Pilot,2022.1.3,Win32,59.97001499,62c50e9c1127f2cd403a315f,0,38,38,134,1,fourtwo,,,,,,,,,,,,,,,,,,,,,,,,,,,,,,,,,,,,,,,,,,,,,,,,,,,,,,,,,,,,,,,,,,,,,,,,,,,,,,,,,,,,,,,,,,,,,,,,,,,,,,,,,,,,,,,,,,,,,,,,,,,,,,,,,,,,,,,,,,,,,,,,,,,,,,,,,,,,,
,,,,,,615c5d74156deea8ee2aa187,62c539970f5bf6bc18c814c6,2022-07-06_09h25.36.238,Colour_Asymmetry_Pilot,2022.1.3,Win32,59.97001499,62c50e9c1127f2cd403a315f,0,39,39,42,1,twoone,,,,,,,,,,,,,,,,,,,,,,,,,,,,,,,,,,,,,,,,,,,,,,,,,,,,,,,,,,,,,,,,,,,,,,,,,,,,,,,,,,,,,,,,,,,,,,,,,,,,,,,,,,,,,,,,,,,,,,,,,,,,,,,,,,,,,,,,,,,,,,,,,,,,,,,,,,,,,
,,,,,,615c5d74156deea8ee2aa187,62c539970f5bf6bc18c814c6,2022-07-06_09h25.36.238,Colour_Asymmetry_Pilot,2022.1.3,Win32,59.97001499,62c50e9c1127f2cd403a315f,0,40,40,89,1,onethree,,,,,,,,,,,,,,,,,,,,,,,,,,,,,,,,,,,,,,,,,,,,,,,,,,,,,,,,,,,,,,,,,,,,,,,,,,,,,,,,,,,,,,,,,,,,,,,,,,,,,,,,,,,,,,,,,,,,,,,,,,,,,,,,,,,,,,,,,,,,,,,,,,,,,,,,,,,,,
,,,,,,615c5d74156deea8ee2aa187,62c539970f5bf6bc18c814c6,2022-07-06_09h25.36.238,Colour_Asymmetry_Pilot,2022.1.3,Win32,59.97001499,62c50e9c1127f2cd403a315f,0,41,41,51,1,twofour,,,,,,,,,,,,,,,,,,,,,,,,,,,,,,,,,,,,,,,,,,,,,,,,,,,,,,,,,,,,,,,,,,,,,,,,,,,,,,,,,,,,,,,,,,,,,,,,,,,,,,,,,,,,,,,,,,,,,,,,,,,,,,,,,,,,,,,,,,,,,,,,,,,,,,,,,,,,,
,,,,,,615c5d74156deea8ee2aa187,62c539970f5bf6bc18c814c6,2022-07-06_09h25.36.238,Colour_Asymmetry_Pilot,2022.1.3,Win32,59.97001499,62c50e9c1127f2cd403a315f,0,42,42,77,1,threefour,,,,,,,,,,,,,,,,,,,,,,,,,,,,,,,,,,,,,,,,,,,,,,,,,,,,,,,,,,,,,,,,,,,,,,,,,,,,,,,,,,,,,,,,,,,,,,,,,,,,,,,,,,,,,,,,,,,,,,,,,,,,,,,,,,,,,,,,,,,,,,,,,,,,,,,,,,,,,
,,,,,,615c5d74156deea8ee2aa187,62c539970f5bf6bc18c814c6,2022-07-06_09h25.36.238,Colour_Asymmetry_Pilot,2022.1.3,Win32,59.97001499,62c50e9c1127f2cd403a315f,0,43,43,139,1,twofour,,,,,,,,,,,,,,,,,,,,,,,,,,,,,,,,,,,,,,,,,,,,,,,,,,,,,,,,,,,,,,,,,,,,,,,,,,,,,,,,,,,,,,,,,,,,,,,,,,,,,,,,,,,,,,,,,,,,,,,,,,,,,,,,,,,,,,,,,,,,,,,,,,,,,,,,,,,,,
,,,,,,615c5d74156deea8ee2aa187,62c539970f5bf6bc18c814c6,2022-07-06_09h25.36.238,Colour_Asymmetry_Pilot,2022.1.3,Win32,59.97001499,62c50e9c1127f2cd403a315f,0,44,44,54,1,fourtwo,,,,,,,,,,,,,,,,,,,,,,,,,,,,,,,,,,,,,,,,,,,,,,,,,,,,,,,,,,,,,,,,,,,,,,,,,,,,,,,,,,,,,,,,,,,,,,,,,,,,,,,,,,,,,,,,,,,,,,,,,,,,,,,,,,,,,,,,,,,,,,,,,,,,,,,,,,,,,
,,,,,,615c5d74156deea8ee2aa187,62c539970f5bf6bc18c814c6,2022-07-06_09h25.36.238,Colour_Asymmetry_Pilot,2022.1.3,Win32,59.97001499,62c50e9c1127f2cd403a315f,0,45,45,160,1,onetwo,,,,,,,,,,,,,,,,,,,,,,,,,,,,,,,,,,,,,,,,,,,,,,,,,,,,,,,,,,,,,,,,,,,,,,,,,,,,,,,,,,,,,,,,,,,,,,,,,,,,,,,,,,,,,,,,,,,,,,,,,,,,,,,,,,,,,,,,,,,,,,,,,,,,,,,,,,,,,
,,,,,,615c5d74156deea8ee2aa187,62c539970f5bf6bc18c814c6,2022-07-06_09h25.36.238,Colour_Asymmetry_Pilot,2022.1.3,Win32,59.97001499,62c50e9c1127f2cd403a315f,0,46,46,80,1,onetwo,,,,,,,,,,,,,,,,,,,,,,,,,,,,,,,,,,,,,,,,,,,,,,,,,,,,,,,,,,,,,,,,,,,,,,,,,,,,,,,,,,,,,,,,,,,,,,,,,,,,,,,,,,,,,,,,,,,,,,,,,,,,,,,,,,,,,,,,,,,,,,,,,,,,,,,,,,,,,
,,,,,,615c5d74156deea8ee2aa187,62c539970f5bf6bc18c814c6,2022-07-06_09h25.36.238,Colour_Asymmetry_Pilot,2022.1.3,Win32,59.97001499,62c50e9c1127f2cd403a315f,0,47,47,136,1,onetwo,,,,,,,,,,,,,,,,,,,,,,,,,,,,,,,,,,,,,,,,,,,,,,,,,,,,,,,,,,,,,,,,,,,,,,,,,,,,,,,,,,,,,,,,,,,,,,,,,,,,,,,,,,,,,,,,,,,,,,,,,,,,,,,,,,,,,,,,,,,,,,,,,,,,,,,,,,,,,
,,,,,,615c5d74156deea8ee2aa187,62c539970f5bf6bc18c814c6,2022-07-06_09h25.36.238,Colour_Asymmetry_Pilot,2022.1.3,Win32,59.97001499,62c50e9c1127f2cd403a315f,0,48,48,102,1,fourtwo,,,,,,,,,,,,,,,,,,,,,,,,,,,,,,,,,,,,,,,,,,,,,,,,,,,,,,,,,,,,,,,,,,,,,,,,,,,,,,,,,,,,,,,,,,,,,,,,,,,,,,,,,,,,,,,,,,,,,,,,,,,,,,,,,,,,,,,,,,,,,,,,,,,,,,,,,,,,,
,,,,,,615c5d74156deea8ee2aa187,62c539970f5bf6bc18c814c6,2022-07-06_09h25.36.238,Colour_Asymmetry_Pilot,2022.1.3,Win32,59.97001499,62c50e9c1127f2cd403a315f,0,49,49,49,1,onethree,,,,,,,,,,,,,,,,,,,,,,,,,,,,,,,,,,,,,,,,,,,,,,,,,,,,,,,,,,,,,,,,,,,,,,,,,,,,,,,,,,,,,,,,,,,,,,,,,,,,,,,,,,,,,,,,,,,,,,,,,,,,,,,,,,,,,,,,,,,,,,,,,,,,,,,,,,,,,
,,,,,,615c5d74156deea8ee2aa187,62c539970f5bf6bc18c814c6,2022-07-06_09h25.36.238,Colour_Asymmetry_Pilot,2022.1.3,Win32,59.97001499,62c50e9c1127f2cd403a315f,0,50,50,95,1,fourthree,,,,,,,,,,,,,,,,,,,,,,,,,,,,,,,,,,,,,,,,,,,,,,,,,,,,,,,,,,,,,,,,,,,,,,,,,,,,,,,,,,,,,,,,,,,,,,,,,,,,,,,,,,,,,,,,,,,,,,,,,,,,,,,,,,,,,,,,,,,,,,,,,,,,,,,,,,,,,
,,,,,,615c5d74156deea8ee2aa187,62c539970f5bf6bc18c814c6,2022-07-06_09h25.36.238,Colour_Asymmetry_Pilot,2022.1.3,Win32,59.97001499,62c50e9c1127f2cd403a315f,0,51,51,53,1,threefour,,,,,,,,,,,,,,,,,,,,,,,,,,,,,,,,,,,,,,,,,,,,,,,,,,,,,,,,,,,,,,,,,,,,,,,,,,,,,,,,,,,,,,,,,,,,,,,,,,,,,,,,,,,,,,,,,,,,,,,,,,,,,,,,,,,,,,,,,,,,,,,,,,,,,,,,,,,,,
,,,,,,615c5d74156deea8ee2aa187,62c539970f5bf6bc18c814c6,2022-07-06_09h25.36.238,Colour_Asymmetry_Pilot,2022.1.3,Win32,59.97001499,62c50e9c1127f2cd403a315f,0,52,52,6,1,fourtwo,,,,,,,,,,,,,,,,,,,,,,,,,,,,,,,,,,,,,,,,,,,,,,,,,,,,,,,,,,,,,,,,,,,,,,,,,,,,,,,,,,,,,,,,,,,,,,,,,,,,,,,,,,,,,,,,,,,,,,,,,,,,,,,,,,,,,,,,,,,,,,,,,,,,,,,,,,,,,
,,,,,,615c5d74156deea8ee2aa187,62c539970f5bf6bc18c814c6,2022-07-06_09h25.36.238,Colour_Asymmetry_Pilot,2022.1.3,Win32,59.97001499,62c50e9c1127f2cd403a315f,0,53,53,140,1,threeone,,,,,,,,,,,,,,,,,,,,,,,,,,,,,,,,,,,,,,,,,,,,,,,,,,,,,,,,,,,,,,,,,,,,,,,,,,,,,,,,,,,,,,,,,,,,,,,,,,,,,,,,,,,,,,,,,,,,,,,,,,,,,,,,,,,,,,,,,,,,,,,,,,,,,,,,,,,,,
,,,,,,615c5d74156deea8ee2aa187,62c539970f5bf6bc18c814c6,2022-07-06_09h25.36.238,Colour_Asymmetry_Pilot,2022.1.3,Win32,59.97001499,62c50e9c1127f2cd403a315f,0,54,54,151,1,fourthree,,,,,,,,,,,,,,,,,,,,,,,,,,,,,,,,,,,,,,,,,,,,,,,,,,,,,,,,,,,,,,,,,,,,,,,,,,,,,,,,,,,,,,,,,,,,,,,,,,,,,,,,,,,,,,,,,,,,,,,,,,,,,,,,,,,,,,,,,,,,,,,,,,,,,,,,,,,,,
,,,,,,615c5d74156deea8ee2aa187,62c539970f5bf6bc18c814c6,2022-07-06_09h25.36.238,Colour_Asymmetry_Pilot,2022.1.3,Win32,59.97001499,62c50e9c1127f2cd403a315f,0,55,55,124,1,threeone,,,,,,,,,,,,,,,,,,,,,,,,,,,,,,,,,,,,,,,,,,,,,,,,,,,,,,,,,,,,,,,,,,,,,,,,,,,,,,,,,,,,,,,,,,,,,,,,,,,,,,,,,,,,,,,,,,,,,,,,,,,,,,,,,,,,,,,,,,,,,,,,,,,,,,,,,,,,,
,,,,,,615c5d74156deea8ee2aa187,62c539970f5bf6bc18c814c6,2022-07-06_09h25.36.238,Colour_Asymmetry_Pilot,2022.1.3,Win32,59.97001499,62c50e9c1127f2cd403a315f,0,56,56,50,1,twoone,,,,,,,,,,,,,,,,,,,,,,,,,,,,,,,,,,,,,,,,,,,,,,,,,,,,,,,,,,,,,,,,,,,,,,,,,,,,,,,,,,,,,,,,,,,,,,,,,,,,,,,,,,,,,,,,,,,,,,,,,,,,,,,,,,,,,,,,,,,,,,,,,,,,,,,,,,,,,
,,,,,,615c5d74156deea8ee2aa187,62c539970f5bf6bc18c814c6,2022-07-06_09h25.36.238,Colour_Asymmetry_Pilot,2022.1.3,Win32,59.97001499,62c50e9c1127f2cd403a315f,0,57,57,131,1,twofour,,,,,,,,,,,,,,,,,,,,,,,,,,,,,,,,,,,,,,,,,,,,,,,,,,,,,,,,,,,,,,,,,,,,,,,,,,,,,,,,,,,,,,,,,,,,,,,,,,,,,,,,,,,,,,,,,,,,,,,,,,,,,,,,,,,,,,,,,,,,,,,,,,,,,,,,,,,,,
,,,,,,615c5d74156deea8ee2aa187,62c539970f5bf6bc18c814c6,2022-07-06_09h25.36.238,Colour_Asymmetry_Pilot,2022.1.3,Win32,59.97001499,62c50e9c1127f2cd403a315f,0,58,58,44,1,threeone,,,,,,,,,,,,,,,,,,,,,,,,,,,,,,,,,,,,,,,,,,,,,,,,,,,,,,,,,,,,,,,,,,,,,,,,,,,,,,,,,,,,,,,,,,,,,,,,,,,,,,,,,,,,,,,,,,,,,,,,,,,,,,,,,,,,,,,,,,,,,,,,,,,,,,,,,,,,,
,,,,,,615c5d74156deea8ee2aa187,62c539970f5bf6bc18c814c6,2022-07-06_09h25.36.238,Colour_Asymmetry_Pilot,2022.1.3,Win32,59.97001499,62c50e9c1127f2cd403a315f,0,59,59,103,1,fourthree,,,,,,,,,,,,,,,,,,,,,,,,,,,,,,,,,,,,,,,,,,,,,,,,,,,,,,,,,,,,,,,,,,,,,,,,,,,,,,,,,,,,,,,,,,,,,,,,,,,,,,,,,,,,,,,,,,,,,,,,,,,,,,,,,,,,,,,,,,,,,,,,,,,,,,,,,,,,,
,,,,,,615c5d74156deea8ee2aa187,62c539970f5bf6bc18c814c6,2022-07-06_09h25.36.238,Colour_Asymmetry_Pilot,2022.1.3,Win32,59.97001499,62c50e9c1127f2cd403a315f,0,60,60,104,1,onetwo,,,,,,,,,,,,,,,,,,,,,,,,,,,,,,,,,,,,,,,,,,,,,,,,,,,,,,,,,,,,,,,,,,,,,,,,,,,,,,,,,,,,,,,,,,,,,,,,,,,,,,,,,,,,,,,,,,,,,,,,,,,,,,,,,,,,,,,,,,,,,,,,,,,,,,,,,,,,,
,,,,,,615c5d74156deea8ee2aa187,62c539970f5bf6bc18c814c6,2022-07-06_09h25.36.238,Colour_Asymmetry_Pilot,2022.1.3,Win32,59.97001499,62c50e9c1127f2cd403a315f,0,61,61,21,1,threefour,,,,,,,,,,,,,,,,,,,,,,,,,,,,,,,,,,,,,,,,,,,,,,,,,,,,,,,,,,,,,,,,,,,,,,,,,,,,,,,,,,,,,,,,,,,,,,,,,,,,,,,,,,,,,,,,,,,,,,,,,,,,,,,,,,,,,,,,,,,,,,,,,,,,,,,,,,,,,
,,,,,,615c5d74156deea8ee2aa187,62c539970f5bf6bc18c814c6,2022-07-06_09h25.36.238,Colour_Asymmetry_Pilot,2022.1.3,Win32,59.97001499,62c50e9c1127f2cd403a315f,0,62,62,132,1,threeone,,,,,,,,,,,,,,,,,,,,,,,,,,,,,,,,,,,,,,,,,,,,,,,,,,,,,,,,,,,,,,,,,,,,,,,,,,,,,,,,,,,,,,,,,,,,,,,,,,,,,,,,,,,,,,,,,,,,,,,,,,,,,,,,,,,,,,,,,,,,,,,,,,,,,,,,,,,,,
,,,,,,615c5d74156deea8ee2aa187,62c539970f5bf6bc18c814c6,2022-07-06_09h25.36.238,Colour_Asymmetry_Pilot,2022.1.3,Win32,59.97001499,62c50e9c1127f2cd403a315f,0,63,63,133,1,threefour,,,,,,,,,,,,,,,,,,,,,,,,,,,,,,,,,,,,,,,,,,,,,,,,,,,,,,,,,,,,,,,,,,,,,,,,,,,,,,,,,,,,,,,,,,,,,,,,,,,,,,,,,,,,,,,,,,,,,,,,,,,,,,,,,,,,,,,,,,,,,,,,,,,,,,,,,,,,,
,,,,,,615c5d74156deea8ee2aa187,62c539970f5bf6bc18c814c6,2022-07-06_09h25.36.238,Colour_Asymmetry_Pilot,2022.1.3,Win32,59.97001499,62c50e9c1127f2cd403a315f,0,64,64,56,1,onetwo,,,,,,,,,,,,,,,,,,,,,,,,,,,,,,,,,,,,,,,,,,,,,,,,,,,,,,,,,,,,,,,,,,,,,,,,,,,,,,,,,,,,,,,,,,,,,,,,,,,,,,,,,,,,,,,,,,,,,,,,,,,,,,,,,,,,,,,,,,,,,,,,,,,,,,,,,,,,,
,,,,,,615c5d74156deea8ee2aa187,62c539970f5bf6bc18c814c6,2022-07-06_09h25.36.238,Colour_Asymmetry_Pilot,2022.1.3,Win32,59.97001499,62c50e9c1127f2cd403a315f,0,65,65,128,1,onetwo,,,,,,,,,,,,,,,,,,,,,,,,,,,,,,,,,,,,,,,,,,,,,,,,,,,,,,,,,,,,,,,,,,,,,,,,,,,,,,,,,,,,,,,,,,,,,,,,,,,,,,,,,,,,,,,,,,,,,,,,,,,,,,,,,,,,,,,,,,,,,,,,,,,,,,,,,,,,,
,,,,,,615c5d74156deea8ee2aa187,62c539970f5bf6bc18c814c6,2022-07-06_09h25.36.238,Colour_Asymmetry_Pilot,2022.1.3,Win32,59.97001499,62c50e9c1127f2cd403a315f,0,66,66,58,1,twoone,,,,,,,,,,,,,,,,,,,,,,,,,,,,,,,,,,,,,,,,,,,,,,,,,,,,,,,,,,,,,,,,,,,,,,,,,,,,,,,,,,,,,,,,,,,,,,,,,,,,,,,,,,,,,,,,,,,,,,,,,,,,,,,,,,,,,,,,,,,,,,,,,,,,,,,,,,,,,
,,,,,,615c5d74156deea8ee2aa187,62c539970f5bf6bc18c814c6,2022-07-06_09h25.36.238,Colour_Asymmetry_Pilot,2022.1.3,Win32,59.97001499,62c50e9c1127f2cd403a315f,0,67,67,119,1,fourthree,,,,,,,,,,,,,,,,,,,,,,,,,,,,,,,,,,,,,,,,,,,,,,,,,,,,,,,,,,,,,,,,,,,,,,,,,,,,,,,,,,,,,,,,,,,,,,,,,,,,,,,,,,,,,,,,,,,,,,,,,,,,,,,,,,,,,,,,,,,,,,,,,,,,,,,,,,,,,
,,,,,,615c5d74156deea8ee2aa187,62c539970f5bf6bc18c814c6,2022-07-06_09h25.36.238,Colour_Asymmetry_Pilot,2022.1.3,Win32,59.97001499,62c50e9c1127f2cd403a315f,0,68,68,100,1,threeone,,,,,,,,,,,,,,,,,,,,,,,,,,,,,,,,,,,,,,,,,,,,,,,,,,,,,,,,,,,,,,,,,,,,,,,,,,,,,,,,,,,,,,,,,,,,,,,,,,,,,,,,,,,,,,,,,,,,,,,,,,,,,,,,,,,,,,,,,,,,,,,,,,,,,,,,,,,,,
,,,,,,615c5d74156deea8ee2aa187,62c539970f5bf6bc18c814c6,2022-07-06_09h25.36.238,Colour_Asymmetry_Pilot,2022.1.3,Win32,59.97001499,62c50e9c1127f2cd403a315f,0,69,69,29,1,threefour,,,,,,,,,,,,,,,,,,,,,,,,,,,,,,,,,,,,,,,,,,,,,,,,,,,,,,,,,,,,,,,,,,,,,,,,,,,,,,,,,,,,,,,,,,,,,,,,,,,,,,,,,,,,,,,,,,,,,,,,,,,,,,,,,,,,,,,,,,,,,,,,,,,,,,,,,,,,,
,,,,,,615c5d74156deea8ee2aa187,62c539970f5bf6bc18c814c6,2022-07-06_09h25.36.238,Colour_Asymmetry_Pilot,2022.1.3,Win32,59.97001499,62c50e9c1127f2cd403a315f,0,70,70,28,1,threeone,,,,,,,,,,,,,,,,,,,,,,,,,,,,,,,,,,,,,,,,,,,,,,,,,,,,,,,,,,,,,,,,,,,,,,,,,,,,,,,,,,,,,,,,,,,,,,,,,,,,,,,,,,,,,,,,,,,,,,,,,,,,,,,,,,,,,,,,,,,,,,,,,,,,,,,,,,,,,
,,,,,,615c5d74156deea8ee2aa187,62c539970f5bf6bc18c814c6,2022-07-06_09h25.36.238,Colour_Asymmetry_Pilot,2022.1.3,Win32,59.97001499,62c50e9c1127f2cd403a315f,0,71,71,32,1,onetwo,,,,,,,,,,,,,,,,,,,,,,,,,,,,,,,,,,,,,,,,,,,,,,,,,,,,,,,,,,,,,,,,,,,,,,,,,,,,,,,,,,,,,,,,,,,,,,,,,,,,,,,,,,,,,,,,,,,,,,,,,,,,,,,,,,,,,,,,,,,,,,,,,,,,,,,,,,,,,
,,,,,,615c5d74156deea8ee2aa187,62c539970f5bf6bc18c814c6,2022-07-06_09h25.36.238,Colour_Asymmetry_Pilot,2022.1.3,Win32,59.97001499,62c50e9c1127f2cd403a315f,0,72,72,17,1,onethree,,,,,,,,,,,,,,,,,,,,,,,,,,,,,,,,,,,,,,,,,,,,,,,,,,,,,,,,,,,,,,,,,,,,,,,,,,,,,,,,,,,,,,,,,,,,,,,,,,,,,,,,,,,,,,,,,,,,,,,,,,,,,,,,,,,,,,,,,,,,,,,,,,,,,,,,,,,,,
,,,,,,615c5d74156deea8ee2aa187,62c539970f5bf6bc18c814c6,2022-07-06_09h25.36.238,Colour_Asymmetry_Pilot,2022.1.3,Win32,59.97001499,62c50e9c1127f2cd403a315f,0,73,73,126,1,fourtwo,,,,,,,,,,,,,,,,,,,,,,,,,,,,,,,,,,,,,,,,,,,,,,,,,,,,,,,,,,,,,,,,,,,,,,,,,,,,,,,,,,,,,,,,,,,,,,,,,,,,,,,,,,,,,,,,,,,,,,,,,,,,,,,,,,,,,,,,,,,,,,,,,,,,,,,,,,,,,
,,,,,,615c5d74156deea8ee2aa187,62c539970f5bf6bc18c814c6,2022-07-06_09h25.36.238,Colour_Asymmetry_Pilot,2022.1.3,Win32,59.97001499,62c50e9c1127f2cd403a315f,0,74,74,65,1,onethree,,,,,,,,,,,,,,,,,,,,,,,,,,,,,,,,,,,,,,,,,,,,,,,,,,,,,,,,,,,,,,,,,,,,,,,,,,,,,,,,,,,,,,,,,,,,,,,,,,,,,,,,,,,,,,,,,,,,,,,,,,,,,,,,,,,,,,,,,,,,,,,,,,,,,,,,,,,,,
,,,,,,615c5d74156deea8ee2aa187,62c539970f5bf6bc18c814c6,2022-07-06_09h25.36.238,Colour_Asymmetry_Pilot,2022.1.3,Win32,59.97001499,62c50e9c1127f2cd403a315f,0,75,75,82,1,twoone,,,,,,,,,,,,,,,,,,,,,,,,,,,,,,,,,,,,,,,,,,,,,,,,,,,,,,,,,,,,,,,,,,,,,,,,,,,,,,,,,,,,,,,,,,,,,,,,,,,,,,,,,,,,,,,,,,,,,,,,,,,,,,,,,,,,,,,,,,,,,,,,,,,,,,,,,,,,,
,,,,,,615c5d74156deea8ee2aa187,62c539970f5bf6bc18c814c6,2022-07-06_09h25.36.238,Colour_Asymmetry_Pilot,2022.1.3,Win32,59.97001499,62c50e9c1127f2cd403a315f,0,76,76,70,1,fourtwo,,,,,,,,,,,,,,,,,,,,,,,,,,,,,,,,,,,,,,,,,,,,,,,,,,,,,,,,,,,,,,,,,,,,,,,,,,,,,,,,,,,,,,,,,,,,,,,,,,,,,,,,,,,,,,,,,,,,,,,,,,,,,,,,,,,,,,,,,,,,,,,,,,,,,,,,,,,,,
,,,,,,615c5d74156deea8ee2aa187,62c539970f5bf6bc18c814c6,2022-07-06_09h25.36.238,Colour_Asymmetry_Pilot,2022.1.3,Win32,59.97001499,62c50e9c1127f2cd403a315f,0,77,77,61,1,threefour,,,,,,,,,,,,,,,,,,,,,,,,,,,,,,,,,,,,,,,,,,,,,,,,,,,,,,,,,,,,,,,,,,,,,,,,,,,,,,,,,,,,,,,,,,,,,,,,,,,,,,,,,,,,,,,,,,,,,,,,,,,,,,,,,,,,,,,,,,,,,,,,,,,,,,,,,,,,,
,,,,,,615c5d74156deea8ee2aa187,62c539970f5bf6bc18c814c6,2022-07-06_09h25.36.238,Colour_Asymmetry_Pilot,2022.1.3,Win32,59.97001499,62c50e9c1127f2cd403a315f,0,78,78,39,1,fourthree,,,,,,,,,,,,,,,,,,,,,,,,,,,,,,,,,,,,,,,,,,,,,,,,,,,,,,,,,,,,,,,,,,,,,,,,,,,,,,,,,,,,,,,,,,,,,,,,,,,,,,,,,,,,,,,,,,,,,,,,,,,,,,,,,,,,,,,,,,,,,,,,,,,,,,,,,,,,,
,,,,,,615c5d74156deea8ee2aa187,62c539970f5bf6bc18c814c6,2022-07-06_09h25.36.238,Colour_Asymmetry_Pilot,2022.1.3,Win32,59.97001499,62c50e9c1127f2cd403a315f,0,79,79,36,1,threeone,,,,,,,,,,,,,,,,,,,,,,,,,,,,,,,,,,,,,,,,,,,,,,,,,,,,,,,,,,,,,,,,,,,,,,,,,,,,,,,,,,,,,,,,,,,,,,,,,,,,,,,,,,,,,,,,,,,,,,,,,,,,,,,,,,,,,,,,,,,,,,,,,,,,,,,,,,,,,
,,,,,,615c5d74156deea8ee2aa187,62c539970f5bf6bc18c814c6,2022-07-06_09h25.36.238,Colour_Asymmetry_Pilot,2022.1.3,Win32,59.97001499,62c50e9c1127f2cd403a315f,0,80,80,72,1,onetwo,,,,,,,,,,,,,,,,,,,,,,,,,,,,,,,,,,,,,,,,,,,,,,,,,,,,,,,,,,,,,,,,,,,,,,,,,,,,,,,,,,,,,,,,,,,,,,,,,,,,,,,,,,,,,,,,,,,,,,,,,,,,,,,,,,,,,,,,,,,,,,,,,,,,,,,,,,,,,
,,,,,,615c5d74156deea8ee2aa187,62c539970f5bf6bc18c814c6,2022-07-06_09h25.36.238,Colour_Asymmetry_Pilot,2022.1.3,Win32,59.97001499,62c50e9c1127f2cd403a315f,0,81,81,74,1,twoone,,,,,,,,,,,,,,,,,,,,,,,,,,,,,,,,,,,,,,,,,,,,,,,,,,,,,,,,,,,,,,,,,,,,,,,,,,,,,,,,,,,,,,,,,,,,,,,,,,,,,,,,,,,,,,,,,,,,,,,,,,,,,,,,,,,,,,,,,,,,,,,,,,,,,,,,,,,,,
,,,,,,615c5d74156deea8ee2aa187,62c539970f5bf6bc18c814c6,2022-07-06_09h25.36.238,Colour_Asymmetry_Pilot,2022.1.3,Win32,59.97001499,62c50e9c1127f2cd403a315f,0,82,82,143,1,fourthree,,,,,,,,,,,,,,,,,,,,,,,,,,,,,,,,,,,,,,,,,,,,,,,,,,,,,,,,,,,,,,,,,,,,,,,,,,,,,,,,,,,,,,,,,,,,,,,,,,,,,,,,,,,,,,,,,,,,,,,,,,,,,,,,,,,,,,,,,,,,,,,,,,,,,,,,,,,,,
,,,,,,615c5d74156deea8ee2aa187,62c539970f5bf6bc18c814c6,2022-07-06_09h25.36.238,Colour_Asymmetry_Pilot,2022.1.3,Win32,59.97001499,62c50e9c1127f2cd403a315f,0,83,83,81,1,onethree,,,,,,,,,,,,,,,,,,,,,,,,,,,,,,,,,,,,,,,,,,,,,,,,,,,,,,,,,,,,,,,,,,,,,,,,,,,,,,,,,,,,,,,,,,,,,,,,,,,,,,,,,,,,,,,,,,,,,,,,,,,,,,,,,,,,,,,,,,,,,,,,,,,,,,,,,,,,,
,,,,,,615c5d74156deea8ee2aa187,62c539970f5bf6bc18c814c6,2022-07-06_09h25.36.238,Colour_Asymmetry_Pilot,2022.1.3,Win32,59.97001499,62c50e9c1127f2cd403a315f,0,84,84,148,1,threeone,,,,,,,,,,,,,,,,,,,,,,,,,,,,,,,,,,,,,,,,,,,,,,,,,,,,,,,,,,,,,,,,,,,,,,,,,,,,,,,,,,,,,,,,,,,,,,,,,,,,,,,,,,,,,,,,,,,,,,,,,,,,,,,,,,,,,,,,,,,,,,,,,,,,,,,,,,,,,
,,,,,,615c5d74156deea8ee2aa187,62c539970f5bf6bc18c814c6,2022-07-06_09h25.36.238,Colour_Asymmetry_Pilot,2022.1.3,Win32,59.97001499,62c50e9c1127f2cd403a315f,0,85,85,35,1,twofour,,,,,,,,,,,,,,,,,,,,,,,,,,,,,,,,,,,,,,,,,,,,,,,,,,,,,,,,,,,,,,,,,,,,,,,,,,,,,,,,,,,,,,,,,,,,,,,,,,,,,,,,,,,,,,,,,,,,,,,,,,,,,,,,,,,,,,,,,,,,,,,,,,,,,,,,,,,,,
,,,,,,615c5d74156deea8ee2aa187,62c539970f5bf6bc18c814c6,2022-07-06_09h25.36.238,Colour_Asymmetry_Pilot,2022.1.3,Win32,59.97001499,62c50e9c1127f2cd403a315f,0,86,86,12,1,threeone,,,,,,,,,,,,,,,,,,,,,,,,,,,,,,,,,,,,,,,,,,,,,,,,,,,,,,,,,,,,,,,,,,,,,,,,,,,,,,,,,,,,,,,,,,,,,,,,,,,,,,,,,,,,,,,,,,,,,,,,,,,,,,,,,,,,,,,,,,,,,,,,,,,,,,,,,,,,,
,,,,,,615c5d74156deea8ee2aa187,62c539970f5bf6bc18c814c6,2022-07-06_09h25.36.238,Colour_Asymmetry_Pilot,2022.1.3,Win32,59.97001499,62c50e9c1127f2cd403a315f,0,87,87,149,1,threefour,,,,,,,,,,,,,,,,,,,,,,,,,,,,,,,,,,,,,,,,,,,,,,,,,,,,,,,,,,,,,,,,,,,,,,,,,,,,,,,,,,,,,,,,,,,,,,,,,,,,,,,,,,,,,,,,,,,,,,,,,,,,,,,,,,,,,,,,,,,,,,,,,,,,,,,,,,,,,
,,,,,,615c5d74156deea8ee2aa187,62c539970f5bf6bc18c814c6,2022-07-06_09h25.36.238,Colour_Asymmetry_Pilot,2022.1.3,Win32,59.97001499,62c50e9c1127f2cd403a315f,0,88,88,135,1,fourthree,,,,,,,,,,,,,,,,,,,,,,,,,,,,,,,,,,,,,,,,,,,,,,,,,,,,,,,,,,,,,,,,,,,,,,,,,,,,,,,,,,,,,,,,,,,,,,,,,,,,,,,,,,,,,,,,,,,,,,,,,,,,,,,,,,,,,,,,,,,,,,,,,,,,,,,,,,,,,
,,,,,,615c5d74156deea8ee2aa187,62c539970f5bf6bc18c814c6,2022-07-06_09h25.36.238,Colour_Asymmetry_Pilot,2022.1.3,Win32,59.97001499,62c50e9c1127f2cd403a315f,0,89,89,18,1,twoone,,,,,,,,,,,,,,,,,,,,,,,,,,,,,,,,,,,,,,,,,,,,,,,,,,,,,,,,,,,,,,,,,,,,,,,,,,,,,,,,,,,,,,,,,,,,,,,,,,,,,,,,,,,,,,,,,,,,,,,,,,,,,,,,,,,,,,,,,,,,,,,,,,,,,,,,,,,,,
,,,,,,615c5d74156deea8ee2aa187,62c539970f5bf6bc18c814c6,2022-07-06_09h25.36.238,Colour_Asymmetry_Pilot,2022.1.3,Win32,59.97001499,62c50e9c1127f2cd403a315f,0,90,90,161,1,onethree,,,,,,,,,,,,,,,,,,,,,,,,,,,,,,,,,,,,,,,,,,,,,,,,,,,,,,,,,,,,,,,,,,,,,,,,,,,,,,,,,,,,,,,,,,,,,,,,,,,,,,,,,,,,,,,,,,,,,,,,,,,,,,,,,,,,,,,,,,,,,,,,,,,,,,,,,,,,,
,,,,,,615c5d74156deea8ee2aa187,62c539970f5bf6bc18c814c6,2022-07-06_09h25.36.238,Colour_Asymmetry_Pilot,2022.1.3,Win32,59.97001499,62c50e9c1127f2cd403a315f,0,91,91,34,1,twoone,,,,,,,,,,,,,,,,,,,,,,,,,,,,,,,,,,,,,,,,,,,,,,,,,,,,,,,,,,,,,,,,,,,,,,,,,,,,,,,,,,,,,,,,,,,,,,,,,,,,,,,,,,,,,,,,,,,,,,,,,,,,,,,,,,,,,,,,,,,,,,,,,,,,,,,,,,,,,
,,,,,,615c5d74156deea8ee2aa187,62c539970f5bf6bc18c814c6,2022-07-06_09h25.36.238,Colour_Asymmetry_Pilot,2022.1.3,Win32,59.97001499,62c50e9c1127f2cd403a315f,0,92,92,67,1,twofour,,,,,,,,,,,,,,,,,,,,,,,,,,,,,,,,,,,,,,,,,,,,,,,,,,,,,,,,,,,,,,,,,,,,,,,,,,,,,,,,,,,,,,,,,,,,,,,,,,,,,,,,,,,,,,,,,,,,,,,,,,,,,,,,,,,,,,,,,,,,,,,,,,,,,,,,,,,,,
,,,,,,615c5d74156deea8ee2aa187,62c539970f5bf6bc18c814c6,2022-07-06_09h25.36.238,Colour_Asymmetry_Pilot,2022.1.3,Win32,59.97001499,62c50e9c1127f2cd403a315f,0,93,93,16,1,onetwo,,,,,,,,,,,,,,,,,,,,,,,,,,,,,,,,,,,,,,,,,,,,,,,,,,,,,,,,,,,,,,,,,,,,,,,,,,,,,,,,,,,,,,,,,,,,,,,,,,,,,,,,,,,,,,,,,,,,,,,,,,,,,,,,,,,,,,,,,,,,,,,,,,,,,,,,,,,,,
,,,,,,615c5d74156deea8ee2aa187,62c539970f5bf6bc18c814c6,2022-07-06_09h25.36.238,Colour_Asymmetry_Pilot,2022.1.3,Win32,59.97001499,62c50e9c1127f2cd403a315f,0,94,94,48,1,onetwo,,,,,,,,,,,,,,,,,,,,,,,,,,,,,,,,,,,,,,,,,,,,,,,,,,,,,,,,,,,,,,,,,,,,,,,,,,,,,,,,,,,,,,,,,,,,,,,,,,,,,,,,,,,,,,,,,,,,,,,,,,,,,,,,,,,,,,,,,,,,,,,,,,,,,,,,,,,,,
,,,,,,615c5d74156deea8ee2aa187,62c539970f5bf6bc18c814c6,2022-07-06_09h25.36.238,Colour_Asymmetry_Pilot,2022.1.3,Win32,59.97001499,62c50e9c1127f2cd403a315f,0,95,95,101,1,threefour,,,,,,,,,,,,,,,,,,,,,,,,,,,,,,,,,,,,,,,,,,,,,,,,,,,,,,,,,,,,,,,,,,,,,,,,,,,,,,,,,,,,,,,,,,,,,,,,,,,,,,,,,,,,,,,,,,,,,,,,,,,,,,,,,,,,,,,,,,,,,,,,,,,,,,,,,,,,,
,,,,,,615c5d74156deea8ee2aa187,62c539970f5bf6bc18c814c6,2022-07-06_09h25.36.238,Colour_Asymmetry_Pilot,2022.1.3,Win32,59.97001499,62c50e9c1127f2cd403a315f,0,96,96,79,1,fourthree,,,,,,,,,,,,,,,,,,,,,,,,,,,,,,,,,,,,,,,,,,,,,,,,,,,,,,,,,,,,,,,,,,,,,,,,,,,,,,,,,,,,,,,,,,,,,,,,,,,,,,,,,,,,,,,,,,,,,,,,,,,,,,,,,,,,,,,,,,,,,,,,,,,,,,,,,,,,,
,,,,,,615c5d74156deea8ee2aa187,62c539970f5bf6bc18c814c6,2022-07-06_09h25.36.238,Colour_Asymmetry_Pilot,2022.1.3,Win32,59.97001499,62c50e9c1127f2cd403a315f,0,97,97,97,1,onethree,,,,,,,,,,,,,,,,,,,,,,,,,,,,,,,,,,,,,,,,,,,,,,,,,,,,,,,,,,,,,,,,,,,,,,,,,,,,,,,,,,,,,,,,,,,,,,,,,,,,,,,,,,,,,,,,,,,,,,,,,,,,,,,,,,,,,,,,,,,,,,,,,,,,,,,,,,,,,
,,,,,,615c5d74156deea8ee2aa187,62c539970f5bf6bc18c814c6,2022-07-06_09h25.36.238,Colour_Asymmetry_Pilot,2022.1.3,Win32,59.97001499,62c50e9c1127f2cd403a315f,0,98,98,14,1,fourtwo,,,,,,,,,,,,,,,,,,,,,,,,,,,,,,,,,,,,,,,,,,,,,,,,,,,,,,,,,,,,,,,,,,,,,,,,,,,,,,,,,,,,,,,,,,,,,,,,,,,,,,,,,,,,,,,,,,,,,,,,,,,,,,,,,,,,,,,,,,,,,,,,,,,,,,,,,,,,,
,,,,,,615c5d74156deea8ee2aa187,62c539970f5bf6bc18c814c6,2022-07-06_09h25.36.238,Colour_Asymmetry_Pilot,2022.1.3,Win32,59.97001499,62c50e9c1127f2cd403a315f,0,99,99,145,1,onethree,,,,,,,,,,,,,,,,,,,,,,,,,,,,,,,,,,,,,,,,,,,,,,,,,,,,,,,,,,,,,,,,,,,,,,,,,,,,,,,,,,,,,,,,,,,,,,,,,,,,,,,,,,,,,,,,,,,,,,,,,,,,,,,,,,,,,,,,,,,,,,,,,,,,,,,,,,,,,
,,,,,,615c5d74156deea8ee2aa187,62c539970f5bf6bc18c814c6,2022-07-06_09h25.36.238,Colour_Asymmetry_Pilot,2022.1.3,Win32,59.97001499,62c50e9c1127f2cd403a315f,0,100,100,157,1,threefour,,,,,,,,,,,,,,,,,,,,,,,,,,,,,,,,,,,,,,,,,,,,,,,,,,,,,,,,,,,,,,,,,,,,,,,,,,,,,,,,,,,,,,,,,,,,,,,,,,,,,,,,,,,,,,,,,,,,,,,,,,,,,,,,,,,,,,,,,,,,,,,,,,,,,,,,,,,,,
,,,,,,615c5d74156deea8ee2aa187,62c539970f5bf6bc18c814c6,2022-07-06_09h25.36.238,Colour_Asymmetry_Pilot,2022.1.3,Win32,59.97001499,62c50e9c1127f2cd403a315f,0,101,101,117,1,threefour,,,,,,,,,,,,,,,,,,,,,,,,,,,,,,,,,,,,,,,,,,,,,,,,,,,,,,,,,,,,,,,,,,,,,,,,,,,,,,,,,,,,,,,,,,,,,,,,,,,,,,,,,,,,,,,,,,,,,,,,,,,,,,,,,,,,,,,,,,,,,,,,,,,,,,,,,,,,,
,,,,,,615c5d74156deea8ee2aa187,62c539970f5bf6bc18c814c6,2022-07-06_09h25.36.238,Colour_Asymmetry_Pilot,2022.1.3,Win32,59.97001499,62c50e9c1127f2cd403a315f,0,102,102,146,1,twoone,,,,,,,,,,,,,,,,,,,,,,,,,,,,,,,,,,,,,,,,,,,,,,,,,,,,,,,,,,,,,,,,,,,,,,,,,,,,,,,,,,,,,,,,,,,,,,,,,,,,,,,,,,,,,,,,,,,,,,,,,,,,,,,,,,,,,,,,,,,,,,,,,,,,,,,,,,,,,
,,,,,,615c5d74156deea8ee2aa187,62c539970f5bf6bc18c814c6,2022-07-06_09h25.36.238,Colour_Asymmetry_Pilot,2022.1.3,Win32,59.97001499,62c50e9c1127f2cd403a315f,0,103,103,10,1,twoone,,,,,,,,,,,,,,,,,,,,,,,,,,,,,,,,,,,,,,,,,,,,,,,,,,,,,,,,,,,,,,,,,,,,,,,,,,,,,,,,,,,,,,,,,,,,,,,,,,,,,,,,,,,,,,,,,,,,,,,,,,,,,,,,,,,,,,,,,,,,,,,,,,,,,,,,,,,,,
,,,,,,615c5d74156deea8ee2aa187,62c539970f5bf6bc18c814c6,2022-07-06_09h25.36.238,Colour_Asymmetry_Pilot,2022.1.3,Win32,59.97001499,62c50e9c1127f2cd403a315f,0,104,104,98,1,twoone,,,,,,,,,,,,,,,,,,,,,,,,,,,,,,,,,,,,,,,,,,,,,,,,,,,,,,,,,,,,,,,,,,,,,,,,,,,,,,,,,,,,,,,,,,,,,,,,,,,,,,,,,,,,,,,,,,,,,,,,,,,,,,,,,,,,,,,,,,,,,,,,,,,,,,,,,,,,,
,,,,,,615c5d74156deea8ee2aa187,62c539970f5bf6bc18c814c6,2022-07-06_09h25.36.238,Colour_Asymmetry_Pilot,2022.1.3,Win32,59.97001499,62c50e9c1127f2cd403a315f,0,105,105,129,1,onethree,,,,,,,,,,,,,,,,,,,,,,,,,,,,,,,,,,,,,,,,,,,,,,,,,,,,,,,,,,,,,,,,,,,,,,,,,,,,,,,,,,,,,,,,,,,,,,,,,,,,,,,,,,,,,,,,,,,,,,,,,,,,,,,,,,,,,,,,,,,,,,,,,,,,,,,,,,,,,
,,,,,,615c5d74156deea8ee2aa187,62c539970f5bf6bc18c814c6,2022-07-06_09h25.36.238,Colour_Asymmetry_Pilot,2022.1.3,Win32,59.97001499,62c50e9c1127f2cd403a315f,0,106,106,7,1,fourthree,,,,,,,,,,,,,,,,,,,,,,,,,,,,,,,,,,,,,,,,,,,,,,,,,,,,,,,,,,,,,,,,,,,,,,,,,,,,,,,,,,,,,,,,,,,,,,,,,,,,,,,,,,,,,,,,,,,,,,,,,,,,,,,,,,,,,,,,,,,,,,,,,,,,,,,,,,,,,
,,,,,,615c5d74156deea8ee2aa187,62c539970f5bf6bc18c814c6,2022-07-06_09h25.36.238,Colour_Asymmetry_Pilot,2022.1.3,Win32,59.97001499,62c50e9c1127f2cd403a315f,0,107,107,113,1,onethree,,,,,,,,,,,,,,,,,,,,,,,,,,,,,,,,,,,,,,,,,,,,,,,,,,,,,,,,,,,,,,,,,,,,,,,,,,,,,,,,,,,,,,,,,,,,,,,,,,,,,,,,,,,,,,,,,,,,,,,,,,,,,,,,,,,,,,,,,,,,,,,,,,,,,,,,,,,,,
,,,,,,615c5d74156deea8ee2aa187,62c539970f5bf6bc18c814c6,2022-07-06_09h25.36.238,Colour_Asymmetry_Pilot,2022.1.3,Win32,59.97001499,62c50e9c1127f2cd403a315f,0,108,108,27,1,twofour,,,,,,,,,,,,,,,,,,,,,,,,,,,,,,,,,,,,,,,,,,,,,,,,,,,,,,,,,,,,,,,,,,,,,,,,,,,,,,,,,,,,,,,,,,,,,,,,,,,,,,,,,,,,,,,,,,,,,,,,,,,,,,,,,,,,,,,,,,,,,,,,,,,,,,,,,,,,,
,,,,,,615c5d74156deea8ee2aa187,62c539970f5bf6bc18c814c6,2022-07-06_09h25.36.238,Colour_Asymmetry_Pilot,2022.1.3,Win32,59.97001499,62c50e9c1127f2cd403a315f,0,109,109,118,1,fourtwo,,,,,,,,,,,,,,,,,,,,,,,,,,,,,,,,,,,,,,,,,,,,,,,,,,,,,,,,,,,,,,,,,,,,,,,,,,,,,,,,,,,,,,,,,,,,,,,,,,,,,,,,,,,,,,,,,,,,,,,,,,,,,,,,,,,,,,,,,,,,,,,,,,,,,,,,,,,,,
,,,,,,615c5d74156deea8ee2aa187,62c539970f5bf6bc18c814c6,2022-07-06_09h25.36.238,Colour_Asymmetry_Pilot,2022.1.3,Win32,59.97001499,62c50e9c1127f2cd403a315f,0,110,110,91,1,twofour,,,,,,,,,,,,,,,,,,,,,,,,,,,,,,,,,,,,,,,,,,,,,,,,,,,,,,,,,,,,,,,,,,,,,,,,,,,,,,,,,,,,,,,,,,,,,,,,,,,,,,,,,,,,,,,,,,,,,,,,,,,,,,,,,,,,,,,,,,,,,,,,,,,,,,,,,,,,,
,,,,,,615c5d74156deea8ee2aa187,62c539970f5bf6bc18c814c6,2022-07-06_09h25.36.238,Colour_Asymmetry_Pilot,2022.1.3,Win32,59.97001499,62c50e9c1127f2cd403a315f,0,111,111,60,1,threeone,,,,,,,,,,,,,,,,,,,,,,,,,,,,,,,,,,,,,,,,,,,,,,,,,,,,,,,,,,,,,,,,,,,,,,,,,,,,,,,,,,,,,,,,,,,,,,,,,,,,,,,,,,,,,,,,,,,,,,,,,,,,,,,,,,,,,,,,,,,,,,,,,,,,,,,,,,,,,
,,,,,,615c5d74156deea8ee2aa187,62c539970f5bf6bc18c814c6,2022-07-06_09h25.36.238,Colour_Asymmetry_Pilot,2022.1.3,Win32,59.97001499,62c50e9c1127f2cd403a315f,0,112,112,86,1,fourtwo,,,,,,,,,,,,,,,,,,,,,,,,,,,,,,,,,,,,,,,,,,,,,,,,,,,,,,,,,,,,,,,,,,,,,,,,,,,,,,,,,,,,,,,,,,,,,,,,,,,,,,,,,,,,,,,,,,,,,,,,,,,,,,,,,,,,,,,,,,,,,,,,,,,,,,,,,,,,,
,,,,,,615c5d74156deea8ee2aa187,62c539970f5bf6bc18c814c6,2022-07-06_09h25.36.238,Colour_Asymmetry_Pilot,2022.1.3,Win32,59.97001499,62c50e9c1127f2cd403a315f,0,113,113,99,1,twofour,,,,,,,,,,,,,,,,,,,,,,,,,,,,,,,,,,,,,,,,,,,,,,,,,,,,,,,,,,,,,,,,,,,,,,,,,,,,,,,,,,,,,,,,,,,,,,,,,,,,,,,,,,,,,,,,,,,,,,,,,,,,,,,,,,,,,,,,,,,,,,,,,,,,,,,,,,,,,
,,,,,,615c5d74156deea8ee2aa187,62c539970f5bf6bc18c814c6,2022-07-06_09h25.36.238,Colour_Asymmetry_Pilot,2022.1.3,Win32,59.97001499,62c50e9c1127f2cd403a315f,0,114,114,137,1,onethree,,,,,,,,,,,,,,,,,,,,,,,,,,,,,,,,,,,,,,,,,,,,,,,,,,,,,,,,,,,,,,,,,,,,,,,,,,,,,,,,,,,,,,,,,,,,,,,,,,,,,,,,,,,,,,,,,,,,,,,,,,,,,,,,,,,,,,,,,,,,,,,,,,,,,,,,,,,,,
,,,,,,615c5d74156deea8ee2aa187,62c539970f5bf6bc18c814c6,2022-07-06_09h25.36.238,Colour_Asymmetry_Pilot,2022.1.3,Win32,59.97001499,62c50e9c1127f2cd403a315f,0,115,115,11,1,twofour,,,,,,,,,,,,,,,,,,,,,,,,,,,,,,,,,,,,,,,,,,,,,,,,,,,,,,,,,,,,,,,,,,,,,,,,,,,,,,,,,,,,,,,,,,,,,,,,,,,,,,,,,,,,,,,,,,,,,,,,,,,,,,,,,,,,,,,,,,,,,,,,,,,,,,,,,,,,,
,,,,,,615c5d74156deea8ee2aa187,62c539970f5bf6bc18c814c6,2022-07-06_09h25.36.238,Colour_Asymmetry_Pilot,2022.1.3,Win32,59.97001499,62c50e9c1127f2cd403a315f,0,116,116,52,1,threeone,,,,,,,,,,,,,,,,,,,,,,,,,,,,,,,,,,,,,,,,,,,,,,,,,,,,,,,,,,,,,,,,,,,,,,,,,,,,,,,,,,,,,,,,,,,,,,,,,,,,,,,,,,,,,,,,,,,,,,,,,,,,,,,,,,,,,,,,,,,,,,,,,,,,,,,,,,,,,
,,,,,,615c5d74156deea8ee2aa187,62c539970f5bf6bc18c814c6,2022-07-06_09h25.36.238,Colour_Asymmetry_Pilot,2022.1.3,Win32,59.97001499,62c50e9c1127f2cd403a315f,0,117,117,57,1,onethree,,,,,,,,,,,,,,,,,,,,,,,,,,,,,,,,,,,,,,,,,,,,,,,,,,,,,,,,,,,,,,,,,,,,,,,,,,,,,,,,,,,,,,,,,,,,,,,,,,,,,,,,,,,,,,,,,,,,,,,,,,,,,,,,,,,,,,,,,,,,,,,,,,,,,,,,,,,,,
,,,,,,615c5d74156deea8ee2aa187,62c539970f5bf6bc18c814c6,2022-07-06_09h25.36.238,Colour_Asymmetry_Pilot,2022.1.3,Win32,59.97001499,62c50e9c1127f2cd403a315f,0,118,118,158,1,fourtwo,,,,,,,,,,,,,,,,,,,,,,,,,,,,,,,,,,,,,,,,,,,,,,,,,,,,,,,,,,,,,,,,,,,,,,,,,,,,,,,,,,,,,,,,,,,,,,,,,,,,,,,,,,,,,,,,,,,,,,,,,,,,,,,,,,,,,,,,,,,,,,,,,,,,,,,,,,,,,
,,,,,,615c5d74156deea8ee2aa187,62c539970f5bf6bc18c814c6,2022-07-06_09h25.36.238,Colour_Asymmetry_Pilot,2022.1.3,Win32,59.97001499,62c50e9c1127f2cd403a315f,0,119,119,45,1,threefour,,,,,,,,,,,,,,,,,,,,,,,,,,,,,,,,,,,,,,,,,,,,,,,,,,,,,,,,,,,,,,,,,,,,,,,,,,,,,,,,,,,,,,,,,,,,,,,,,,,,,,,,,,,,,,,,,,,,,,,,,,,,,,,,,,,,,,,,,,,,,,,,,,,,,,,,,,,,,
,,,,,,615c5d74156deea8ee2aa187,62c539970f5bf6bc18c814c6,2022-07-06_09h25.36.238,Colour_Asymmetry_Pilot,2022.1.3,Win32,59.97001499,62c50e9c1127f2cd403a315f,0,120,120,68,1,threeone,,,,,,,,,,,,,,,,,,,,,,,,,,,,,,,,,,,,,,,,,,,,,,,,,,,,,,,,,,,,,,,,,,,,,,,,,,,,,,,,,,,,,,,,,,,,,,,,,,,,,,,,,,,,,,,,,,,,,,,,,,,,,,,,,,,,,,,,,,,,,,,,,,,,,,,,,,,,,
,,,,,,615c5d74156deea8ee2aa187,62c539970f5bf6bc18c814c6,2022-07-06_09h25.36.238,Colour_Asymmetry_Pilot,2022.1.3,Win32,59.97001499,62c50e9c1127f2cd403a315f,0,121,121,15,1,fourthree,,,,,,,,,,,,,,,,,,,,,,,,,,,,,,,,,,,,,,,,,,,,,,,,,,,,,,,,,,,,,,,,,,,,,,,,,,,,,,,,,,,,,,,,,,,,,,,,,,,,,,,,,,,,,,,,,,,,,,,,,,,,,,,,,,,,,,,,,,,,,,,,,,,,,,,,,,,,,
,,,,,,615c5d74156deea8ee2aa187,62c539970f5bf6bc18c814c6,2022-07-06_09h25.36.238,Colour_Asymmetry_Pilot,2022.1.3,Win32,59.97001499,62c50e9c1127f2cd403a315f,0,122,122,156,1,threeone,,,,,,,,,,,,,,,,,,,,,,,,,,,,,,,,,,,,,,,,,,,,,,,,,,,,,,,,,,,,,,,,,,,,,,,,,,,,,,,,,,,,,,,,,,,,,,,,,,,,,,,,,,,,,,,,,,,,,,,,,,,,,,,,,,,,,,,,,,,,,,,,,,,,,,,,,,,,,
,,,,,,615c5d74156deea8ee2aa187,62c539970f5bf6bc18c814c6,2022-07-06_09h25.36.238,Colour_Asymmetry_Pilot,2022.1.3,Win32,59.97001499,62c50e9c1127f2cd403a315f,0,123,123,154,1,twoone,,,,,,,,,,,,,,,,,,,,,,,,,,,,,,,,,,,,,,,,,,,,,,,,,,,,,,,,,,,,,,,,,,,,,,,,,,,,,,,,,,,,,,,,,,,,,,,,,,,,,,,,,,,,,,,,,,,,,,,,,,,,,,,,,,,,,,,,,,,,,,,,,,,,,,,,,,,,,
,,,,,,615c5d74156deea8ee2aa187,62c539970f5bf6bc18c814c6,2022-07-06_09h25.36.238,Colour_Asymmetry_Pilot,2022.1.3,Win32,59.97001499,62c50e9c1127f2cd403a315f,0,124,124,142,1,fourtwo,,,,,,,,,,,,,,,,,,,,,,,,,,,,,,,,,,,,,,,,,,,,,,,,,,,,,,,,,,,,,,,,,,,,,,,,,,,,,,,,,,,,,,,,,,,,,,,,,,,,,,,,,,,,,,,,,,,,,,,,,,,,,,,,,,,,,,,,,,,,,,,,,,,,,,,,,,,,,
,,,,,,615c5d74156deea8ee2aa187,62c539970f5bf6bc18c814c6,2022-07-06_09h25.36.238,Colour_Asymmetry_Pilot,2022.1.3,Win32,59.97001499,62c50e9c1127f2cd403a315f,0,125,125,88,1,onetwo,,,,,,,,,,,,,,,,,,,,,,,,,,,,,,,,,,,,,,,,,,,,,,,,,,,,,,,,,,,,,,,,,,,,,,,,,,,,,,,,,,,,,,,,,,,,,,,,,,,,,,,,,,,,,,,,,,,,,,,,,,,,,,,,,,,,,,,,,,,,,,,,,,,,,,,,,,,,,
,,,,,,615c5d74156deea8ee2aa187,62c539970f5bf6bc18c814c6,2022-07-06_09h25.36.238,Colour_Asymmetry_Pilot,2022.1.3,Win32,59.97001499,62c50e9c1127f2cd403a315f,0,126,126,112,1,onetwo,,,,,,,,,,,,,,,,,,,,,,,,,,,,,,,,,,,,,,,,,,,,,,,,,,,,,,,,,,,,,,,,,,,,,,,,,,,,,,,,,,,,,,,,,,,,,,,,,,,,,,,,,,,,,,,,,,,,,,,,,,,,,,,,,,,,,,,,,,,,,,,,,,,,,,,,,,,,,
,,,,,,615c5d74156deea8ee2aa187,62c539970f5bf6bc18c814c6,2022-07-06_09h25.36.238,Colour_Asymmetry_Pilot,2022.1.3,Win32,59.97001499,62c50e9c1127f2cd403a315f,0,127,127,120,1,onetwo,,,,,,,,,,,,,,,,,,,,,,,,,,,,,,,,,,,,,,,,,,,,,,,,,,,,,,,,,,,,,,,,,,,,,,,,,,,,,,,,,,,,,,,,,,,,,,,,,,,,,,,,,,,,,,,,,,,,,,,,,,,,,,,,,,,,,,,,,,,,,,,,,,,,,,,,,,,,,
,,,,,,615c5d74156deea8ee2aa187,62c539970f5bf6bc18c814c6,2022-07-06_09h25.36.238,Colour_Asymmetry_Pilot,2022.1.3,Win32,59.97001499,62c50e9c1127f2cd403a315f,0,128,128,47,1,fourthree,,,,,,,,,,,,,,,,,,,,,,,,,,,,,,,,,,,,,,,,,,,,,,,,,,,,,,,,,,,,,,,,,,,,,,,,,,,,,,,,,,,,,,,,,,,,,,,,,,,,,,,,,,,,,,,,,,,,,,,,,,,,,,,,,,,,,,,,,,,,,,,,,,,,,,,,,,,,,
,,,,,,615c5d74156deea8ee2aa187,62c539970f5bf6bc18c814c6,2022-07-06_09h25.36.238,Colour_Asymmetry_Pilot,2022.1.3,Win32,59.97001499,62c50e9c1127f2cd403a315f,0,129,129,2,1,twoone,,,,,,,,,,,,,,,,,,,,,,,,,,,,,,,,,,,,,,,,,,,,,,,,,,,,,,,,,,,,,,,,,,,,,,,,,,,,,,,,,,,,,,,,,,,,,,,,,,,,,,,,,,,,,,,,,,,,,,,,,,,,,,,,,,,,,,,,,,,,,,,,,,,,,,,,,,,,,
,,,,,,615c5d74156deea8ee2aa187,62c539970f5bf6bc18c814c6,2022-07-06_09h25.36.238,Colour_Asymmetry_Pilot,2022.1.3,Win32,59.97001499,62c50e9c1127f2cd403a315f,0,130,130,75,1,twofour,,,,,,,,,,,,,,,,,,,,,,,,,,,,,,,,,,,,,,,,,,,,,,,,,,,,,,,,,,,,,,,,,,,,,,,,,,,,,,,,,,,,,,,,,,,,,,,,,,,,,,,,,,,,,,,,,,,,,,,,,,,,,,,,,,,,,,,,,,,,,,,,,,,,,,,,,,,,,
,,,,,,615c5d74156deea8ee2aa187,62c539970f5bf6bc18c814c6,2022-07-06_09h25.36.238,Colour_Asymmetry_Pilot,2022.1.3,Win32,59.97001499,62c50e9c1127f2cd403a315f,0,131,131,13,1,threefour,,,,,,,,,,,,,,,,,,,,,,,,,,,,,,,,,,,,,,,,,,,,,,,,,,,,,,,,,,,,,,,,,,,,,,,,,,,,,,,,,,,,,,,,,,,,,,,,,,,,,,,,,,,,,,,,,,,,,,,,,,,,,,,,,,,,,,,,,,,,,,,,,,,,,,,,,,,,,
,,,,,,615c5d74156deea8ee2aa187,62c539970f5bf6bc18c814c6,2022-07-06_09h25.36.238,Colour_Asymmetry_Pilot,2022.1.3,Win32,59.97001499,62c50e9c1127f2cd403a315f,0,132,132,20,1,threeone,,,,,,,,,,,,,,,,,,,,,,,,,,,,,,,,,,,,,,,,,,,,,,,,,,,,,,,,,,,,,,,,,,,,,,,,,,,,,,,,,,,,,,,,,,,,,,,,,,,,,,,,,,,,,,,,,,,,,,,,,,,,,,,,,,,,,,,,,,,,,,,,,,,,,,,,,,,,,
,,,,,,615c5d74156deea8ee2aa187,62c539970f5bf6bc18c814c6,2022-07-06_09h25.36.238,Colour_Asymmetry_Pilot,2022.1.3,Win32,59.97001499,62c50e9c1127f2cd403a315f,0,133,133,41,1,onethree,,,,,,,,,,,,,,,,,,,,,,,,,,,,,,,,,,,,,,,,,,,,,,,,,,,,,,,,,,,,,,,,,,,,,,,,,,,,,,,,,,,,,,,,,,,,,,,,,,,,,,,,,,,,,,,,,,,,,,,,,,,,,,,,,,,,,,,,,,,,,,,,,,,,,,,,,,,,,
,,,,,,615c5d74156deea8ee2aa187,62c539970f5bf6bc18c814c6,2022-07-06_09h25.36.238,Colour_Asymmetry_Pilot,2022.1.3,Win32,59.97001499,62c50e9c1127f2cd403a315f,0,134,134,43,1,twofour,,,,,,,,,,,,,,,,,,,,,,,,,,,,,,,,,,,,,,,,,,,,,,,,,,,,,,,,,,,,,,,,,,,,,,,,,,,,,,,,,,,,,,,,,,,,,,,,,,,,,,,,,,,,,,,,,,,,,,,,,,,,,,,,,,,,,,,,,,,,,,,,,,,,,,,,,,,,,
,,,,,,615c5d74156deea8ee2aa187,62c539970f5bf6bc18c814c6,2022-07-06_09h25.36.238,Colour_Asymmetry_Pilot,2022.1.3,Win32,59.97001499,62c50e9c1127f2cd403a315f,0,135,135,30,1,fourtwo,,,,,,,,,,,,,,,,,,,,,,,,,,,,,,,,,,,,,,,,,,,,,,,,,,,,,,,,,,,,,,,,,,,,,,,,,,,,,,,,,,,,,,,,,,,,,,,,,,,,,,,,,,,,,,,,,,,,,,,,,,,,,,,,,,,,,,,,,,,,,,,,,,,,,,,,,,,,,
,,,,,,615c5d74156deea8ee2aa187,62c539970f5bf6bc18c814c6,2022-07-06_09h25.36.238,Colour_Asymmetry_Pilot,2022.1.3,Win32,59.97001499,62c50e9c1127f2cd403a315f,0,136,136,1,1,onethree,,,,,,,,,,,,,,,,,,,,,,,,,,,,,,,,,,,,,,,,,,,,,,,,,,,,,,,,,,,,,,,,,,,,,,,,,,,,,,,,,,,,,,,,,,,,,,,,,,,,,,,,,,,,,,,,,,,,,,,,,,,,,,,,,,,,,,,,,,,,,,,,,,,,,,,,,,,,,
,,,,,,615c5d74156deea8ee2aa187,62c539970f5bf6bc18c814c6,2022-07-06_09h25.36.238,Colour_Asymmetry_Pilot,2022.1.3,Win32,59.97001499,62c50e9c1127f2cd403a315f,0,137,137,5,1,threefour,,,,,,,,,,,,,,,,,,,,,,,,,,,,,,,,,,,,,,,,,,,,,,,,,,,,,,,,,,,,,,,,,,,,,,,,,,,,,,,,,,,,,,,,,,,,,,,,,,,,,,,,,,,,,,,,,,,,,,,,,,,,,,,,,,,,,,,,,,,,,,,,,,,,,,,,,,,,,
,,,,,,615c5d74156deea8ee2aa187,62c539970f5bf6bc18c814c6,2022-07-06_09h25.36.238,Colour_Asymmetry_Pilot,2022.1.3,Win32,59.97001499,62c50e9c1127f2cd403a315f,0,138,138,107,1,twofour,,,,,,,,,,,,,,,,,,,,,,,,,,,,,,,,,,,,,,,,,,,,,,,,,,,,,,,,,,,,,,,,,,,,,,,,,,,,,,,,,,,,,,,,,,,,,,,,,,,,,,,,,,,,,,,,,,,,,,,,,,,,,,,,,,,,,,,,,,,,,,,,,,,,,,,,,,,,,
,,,,,,615c5d74156deea8ee2aa187,62c539970f5bf6bc18c814c6,2022-07-06_09h25.36.238,Colour_Asymmetry_Pilot,2022.1.3,Win32,59.97001499,62c50e9c1127f2cd403a315f,0,139,139,26,1,twoone,,,,,,,,,,,,,,,,,,,,,,,,,,,,,,,,,,,,,,,,,,,,,,,,,,,,,,,,,,,,,,,,,,,,,,,,,,,,,,,,,,,,,,,,,,,,,,,,,,,,,,,,,,,,,,,,,,,,,,,,,,,,,,,,,,,,,,,,,,,,,,,,,,,,,,,,,,,,,
,,,,,,615c5d74156deea8ee2aa187,62c539970f5bf6bc18c814c6,2022-07-06_09h25.36.238,Colour_Asymmetry_Pilot,2022.1.3,Win32,59.97001499,62c50e9c1127f2cd403a315f,0,140,140,141,1,threefour,,,,,,,,,,,,,,,,,,,,,,,,,,,,,,,,,,,,,,,,,,,,,,,,,,,,,,,,,,,,,,,,,,,,,,,,,,,,,,,,,,,,,,,,,,,,,,,,,,,,,,,,,,,,,,,,,,,,,,,,,,,,,,,,,,,,,,,,,,,,,,,,,,,,,,,,,,,,,
,,,,,,615c5d74156deea8ee2aa187,62c539970f5bf6bc18c814c6,2022-07-06_09h25.36.238,Colour_Asymmetry_Pilot,2022.1.3,Win32,59.97001499,62c50e9c1127f2cd403a315f,0,141,141,37,1,threefour,,,,,,,,,,,,,,,,,,,,,,,,,,,,,,,,,,,,,,,,,,,,,,,,,,,,,,,,,,,,,,,,,,,,,,,,,,,,,,,,,,,,,,,,,,,,,,,,,,,,,,,,,,,,,,,,,,,,,,,,,,,,,,,,,,,,,,,,,,,,,,,,,,,,,,,,,,,,,
,,,,,,615c5d74156deea8ee2aa187,62c539970f5bf6bc18c814c6,2022-07-06_09h25.36.238,Colour_Asymmetry_Pilot,2022.1.3,Win32,59.97001499,62c50e9c1127f2cd403a315f,0,142,142,83,1,twofour,,,,,,,,,,,,,,,,,,,,,,,,,,,,,,,,,,,,,,,,,,,,,,,,,,,,,,,,,,,,,,,,,,,,,,,,,,,,,,,,,,,,,,,,,,,,,,,,,,,,,,,,,,,,,,,,,,,,,,,,,,,,,,,,,,,,,,,,,,,,,,,,,,,,,,,,,,,,,
,,,,,,615c5d74156deea8ee2aa187,62c539970f5bf6bc18c814c6,2022-07-06_09h25.36.238,Colour_Asymmetry_Pilot,2022.1.3,Win32,59.97001499,62c50e9c1127f2cd403a315f,0,143,143,87,1,fourthree,,,,,,,,,,,,,,,,,,,,,,,,,,,,,,,,,,,,,,,,,,,,,,,,,,,,,,,,,,,,,,,,,,,,,,,,,,,,,,,,,,,,,,,,,,,,,,,,,,,,,,,,,,,,,,,,,,,,,,,,,,,,,,,,,,,,,,,,,,,,,,,,,,,,,,,,,,,,,
,,,,,,615c5d74156deea8ee2aa187,62c539970f5bf6bc18c814c6,2022-07-06_09h25.36.238,Colour_Asymmetry_Pilot,2022.1.3,Win32,59.97001499,62c50e9c1127f2cd403a315f,0,144,144,31,1,fourthree,,,,,,,,,,,,,,,,,,,,,,,,,,,,,,,,,,,,,,,,,,,,,,,,,,,,,,,,,,,,,,,,,,,,,,,,,,,,,,,,,,,,,,,,,,,,,,,,,,,,,,,,,,,,,,,,,,,,,,,,,,,,,,,,,,,,,,,,,,,,,,,,,,,,,,,,,,,,,
,,,,,,615c5d74156deea8ee2aa187,62c539970f5bf6bc18c814c6,2022-07-06_09h25.36.238,Colour_Asymmetry_Pilot,2022.1.3,Win32,59.97001499,62c50e9c1127f2cd403a315f,0,145,145,130,1,twoone,,,,,,,,,,,,,,,,,,,,,,,,,,,,,,,,,,,,,,,,,,,,,,,,,,,,,,,,,,,,,,,,,,,,,,,,,,,,,,,,,,,,,,,,,,,,,,,,,,,,,,,,,,,,,,,,,,,,,,,,,,,,,,,,,,,,,,,,,,,,,,,,,,,,,,,,,,,,,
,,,,,,615c5d74156deea8ee2aa187,62c539970f5bf6bc18c814c6,2022-07-06_09h25.36.238,Colour_Asymmetry_Pilot,2022.1.3,Win32,59.97001499,62c50e9c1127f2cd403a315f,0,146,146,152,1,onetwo,,,,,,,,,,,,,,,,,,,,,,,,,,,,,,,,,,,,,,,,,,,,,,,,,,,,,,,,,,,,,,,,,,,,,,,,,,,,,,,,,,,,,,,,,,,,,,,,,,,,,,,,,,,,,,,,,,,,,,,,,,,,,,,,,,,,,,,,,,,,,,,,,,,,,,,,,,,,,
,,,,,,615c5d74156deea8ee2aa187,62c539970f5bf6bc18c814c6,2022-07-06_09h25.36.238,Colour_Asymmetry_Pilot,2022.1.3,Win32,59.97001499,62c50e9c1127f2cd403a315f,0,147,147,110,1,fourtwo,,,,,,,,,,,,,,,,,,,,,,,,,,,,,,,,,,,,,,,,,,,,,,,,,,,,,,,,,,,,,,,,,,,,,,,,,,,,,,,,,,,,,,,,,,,,,,,,,,,,,,,,,,,,,,,,,,,,,,,,,,,,,,,,,,,,,,,,,,,,,,,,,,,,,,,,,,,,,
,,,,,,615c5d74156deea8ee2aa187,62c539970f5bf6bc18c814c6,2022-07-06_09h25.36.238,Colour_Asymmetry_Pilot,2022.1.3,Win32,59.97001499,62c50e9c1127f2cd403a315f,0,148,148,73,1,onethree,,,,,,,,,,,,,,,,,,,,,,,,,,,,,,,,,,,,,,,,,,,,,,,,,,,,,,,,,,,,,,,,,,,,,,,,,,,,,,,,,,,,,,,,,,,,,,,,,,,,,,,,,,,,,,,,,,,,,,,,,,,,,,,,,,,,,,,,,,,,,,,,,,,,,,,,,,,,,
,,,,,,615c5d74156deea8ee2aa187,62c539970f5bf6bc18c814c6,2022-07-06_09h25.36.238,Colour_Asymmetry_Pilot,2022.1.3,Win32,59.97001499,62c50e9c1127f2cd403a315f,0,149,149,40,1,onetwo,,,,,,,,,,,,,,,,,,,,,,,,,,,,,,,,,,,,,,,,,,,,,,,,,,,,,,,,,,,,,,,,,,,,,,,,,,,,,,,,,,,,,,,,,,,,,,,,,,,,,,,,,,,,,,,,,,,,,,,,,,,,,,,,,,,,,,,,,,,,,,,,,,,,,,,,,,,,,
,,,,,,615c5d74156deea8ee2aa187,62c539970f5bf6bc18c814c6,2022-07-06_09h25.36.238,Colour_Asymmetry_Pilot,2022.1.3,Win32,59.97001499,62c50e9c1127f2cd403a315f,0,150,150,106,1,twoone,,,,,,,,,,,,,,,,,,,,,,,,,,,,,,,,,,,,,,,,,,,,,,,,,,,,,,,,,,,,,,,,,,,,,,,,,,,,,,,,,,,,,,,,,,,,,,,,,,,,,,,,,,,,,,,,,,,,,,,,,,,,,,,,,,,,,,,,,,,,,,,,,,,,,,,,,,,,,
,,,,,,615c5d74156deea8ee2aa187,62c539970f5bf6bc18c814c6,2022-07-06_09h25.36.238,Colour_Asymmetry_Pilot,2022.1.3,Win32,59.97001499,62c50e9c1127f2cd403a315f,0,151,151,144,1,onetwo,,,,,,,,,,,,,,,,,,,,,,,,,,,,,,,,,,,,,,,,,,,,,,,,,,,,,,,,,,,,,,,,,,,,,,,,,,,,,,,,,,,,,,,,,,,,,,,,,,,,,,,,,,,,,,,,,,,,,,,,,,,,,,,,,,,,,,,,,,,,,,,,,,,,,,,,,,,,,
,,,,,,615c5d74156deea8ee2aa187,62c539970f5bf6bc18c814c6,2022-07-06_09h25.36.238,Colour_Asymmetry_Pilot,2022.1.3,Win32,59.97001499,62c50e9c1127f2cd403a315f,0,152,152,116,1,threeone,,,,,,,,,,,,,,,,,,,,,,,,,,,,,,,,,,,,,,,,,,,,,,,,,,,,,,,,,,,,,,,,,,,,,,,,,,,,,,,,,,,,,,,,,,,,,,,,,,,,,,,,,,,,,,,,,,,,,,,,,,,,,,,,,,,,,,,,,,,,,,,,,,,,,,,,,,,,,
,,,,,,615c5d74156deea8ee2aa187,62c539970f5bf6bc18c814c6,2022-07-06_09h25.36.238,Colour_Asymmetry_Pilot,2022.1.3,Win32,59.97001499,62c50e9c1127f2cd403a315f,0,153,153,94,1,fourtwo,,,,,,,,,,,,,,,,,,,,,,,,,,,,,,,,,,,,,,,,,,,,,,,,,,,,,,,,,,,,,,,,,,,,,,,,,,,,,,,,,,,,,,,,,,,,,,,,,,,,,,,,,,,,,,,,,,,,,,,,,,,,,,,,,,,,,,,,,,,,,,,,,,,,,,,,,,,,,
,,,,,,615c5d74156deea8ee2aa187,62c539970f5bf6bc18c814c6,2022-07-06_09h25.36.238,Colour_Asymmetry_Pilot,2022.1.3,Win32,59.97001499,62c50e9c1127f2cd403a315f,0,154,154,25,1,onethree,,,,,,,,,,,,,,,,,,,,,,,,,,,,,,,,,,,,,,,,,,,,,,,,,,,,,,,,,,,,,,,,,,,,,,,,,,,,,,,,,,,,,,,,,,,,,,,,,,,,,,,,,,,,,,,,,,,,,,,,,,,,,,,,,,,,,,,,,,,,,,,,,,,,,,,,,,,,,
,,,,,,615c5d74156deea8ee2aa187,62c539970f5bf6bc18c814c6,2022-07-06_09h25.36.238,Colour_Asymmetry_Pilot,2022.1.3,Win32,59.97001499,62c50e9c1127f2cd403a315f,0,155,155,90,1,twoone,,,,,,,,,,,,,,,,,,,,,,,,,,,,,,,,,,,,,,,,,,,,,,,,,,,,,,,,,,,,,,,,,,,,,,,,,,,,,,,,,,,,,,,,,,,,,,,,,,,,,,,,,,,,,,,,,,,,,,,,,,,,,,,,,,,,,,,,,,,,,,,,,,,,,,,,,,,,,
,,,,,,615c5d74156deea8ee2aa187,62c539970f5bf6bc18c814c6,2022-07-06_09h25.36.238,Colour_Asymmetry_Pilot,2022.1.3,Win32,59.97001499,62c50e9c1127f2cd403a315f,0,156,156,59,1,twofour,,,,,,,,,,,,,,,,,,,,,,,,,,,,,,,,,,,,,,,,,,,,,,,,,,,,,,,,,,,,,,,,,,,,,,,,,,,,,,,,,,,,,,,,,,,,,,,,,,,,,,,,,,,,,,,,,,,,,,,,,,,,,,,,,,,,,,,,,,,,,,,,,,,,,,,,,,,,,
,,,,,,615c5d74156deea8ee2aa187,62c539970f5bf6bc18c814c6,2022-07-06_09h25.36.238,Colour_Asymmetry_Pilot,2022.1.3,Win32,59.97001499,62c50e9c1127f2cd403a315f,0,157,157,78,1,fourtwo,,,,,,,,,,,,,,,,,,,,,,,,,,,,,,,,,,,,,,,,,,,,,,,,,,,,,,,,,,,,,,,,,,,,,,,,,,,,,,,,,,,,,,,,,,,,,,,,,,,,,,,,,,,,,,,,,,,,,,,,,,,,,,,,,,,,,,,,,,,,,,,,,,,,,,,,,,,,,
,,,,,,615c5d74156deea8ee2aa187,62c539970f5bf6bc18c814c6,2022-07-06_09h25.36.238,Colour_Asymmetry_Pilot,2022.1.3,Win32,59.97001499,62c50e9c1127f2cd403a315f,0,158,158,0,1,onetwo,,,,,,,,,,,,,,,,,,,,,,,,,,,,,,,,,,,,,,,,,,,,,,,,,,,,,,,,,,,,,,,,,,,,,,,,,,,,,,,,,,,,,,,,,,,,,,,,,,,,,,,,,,,,,,,,,,,,,,,,,,,,,,,,,,,,,,,,,,,,,,,,,,,,,,,,,,,,,
,,,,,,615c5d74156deea8ee2aa187,62c539970f5bf6bc18c814c6,2022-07-06_09h25.36.238,Colour_Asymmetry_Pilot,2022.1.3,Win32,59.97001499,62c50e9c1127f2cd403a315f,0,159,159,85,1,threefour,,,,,,,,,,,,,,,,,,,,,,,,,,,,,,,,,,,,,,,,,,,,,,,,,,,,,,,,,,,,,,,,,,,,,,,,,,,,,,,,,,,,,,,,,,,,,,,,,,,,,,,,,,,,,,,,,,,,,,,,,,,,,,,,,,,,,,,,,,,,,,,,,,,,,,,,,,,,,
,,,,,,615c5d74156deea8ee2aa187,62c539970f5bf6bc18c814c6,2022-07-06_09h25.36.238,Colour_Asymmetry_Pilot,2022.1.3,Win32,59.97001499,62c50e9c1127f2cd403a315f,0,160,160,66,1,twoone,,,,,,,,,,,,,,,,,,,,,,,,,,,,,,,,,,,,,,,,,,,,,,,,,,,,,,,,,,,,,,,,,,,,,,,,,,,,,,,,,,,,,,,,,,,,,,,,,,,,,,,,,,,,,,,,,,,,,,,,,,,,,,,,,,,,,,,,,,,,,,,,,,,,,,,,,,,,,
,,,,,,615c5d74156deea8ee2aa187,62c539970f5bf6bc18c814c6,2022-07-06_09h25.36.238,Colour_Asymmetry_Pilot,2022.1.3,Win32,59.97001499,62c50e9c1127f2cd403a315f,0,161,161,121,1,onethree,,,,,,,,,,,,,,,,,,,,,,,,,,,,,,,,,,,,,,,,,,,,,,,,,,,,,,,,,,,,,,,,,,,,,,,,,,,,,,,,,,,,,,,,,,,,,,,,,,,,,,,,,,,,,,,,,,,,,,,,,,,,,,,,,,,,,,,,,,,,,,,,,,,,,,,,,,,,,
,,,,,,615c5d74156deea8ee2aa187,62c539970f5bf6bc18c814c6,2022-07-06_09h25.36.238,Colour_Asymmetry_Pilot,2022.1.3,Win32,59.97001499,62c50e9c1127f2cd403a315f,,,,,,,space,8.4073,space,8.6888,space,52.4339,space,20.549,space,6.3145,space,7.0704,"[-0.45899999999999996,-0.3256,-0.9374]",fourtwo,"[0.7802,-0.23140000000000005,-0.20799999999999996]",-4,18.5351,-40,101,1,0,0,response7disk_5,-8,0,1,0,0,rectangle_8,-8,0,1,0,0,2,-8,0,1,0,0,0,0,0,0,1,,,,,,,,,,,,,,,,,,,,,,,,,,,,,,,,,,,,,,,,,,,,,,,,,,,,,,,,,,,,,,,,,,,,,,,,,,,,,,,,,,,,,,,,,,,,,,,,,,,,,,,,,,,,,,,,
,,,,,,615c5d74156deea8ee2aa187,62c539970f5bf6bc18c814c6,2022-07-06_09h25.36.238,Colour_Asymmetry_Pilot,2022.1.3,Win32,59.97001499,62c50e9c1127f2cd403a315f,,,,,,,,,,,,,,,,,,,"[0.3802000000000001,0.19199999999999995,-0.6394]",twofour,"[-0.26280000000000003,-0.4746,-0.2158]",-4,12.3473,-37,95,1,0,0,response7disk_5,-3,-5,1,0,0,rectangle_8,-3,-5,1,0,0,2,-3,-5,1,0,0,1,0,1,0,1,,,,,,,,,,,,,,,,,,,,,,,,,,,,,,,,,,,,,,,,,,,,,,,,,,,,,,,,,,,,,,,,,,,,,,,,,,,,,,,,,,,,,,,,,,,,,,,,,,,,,,,,,,,,,,,,
,,,,,,615c5d74156deea8ee2aa187,62c539970f5bf6bc18c814c6,2022-07-06_09h25.36.238,Colour_Asymmetry_Pilot,2022.1.3,Win32,59.97001499,62c50e9c1127f2cd403a315f,,,,,,,,,,,,,,,,,,,"[0.40379999999999994,0.09000000000000008,0.44300000000000006]",threefour,"[0.3881999999999999,-0.23939999999999995,-0.05040000000000011]",4,7.2647,24,91,1,0,0,response1disk_5,0,2,1,0,0,rectangle_8,84,-31,1,0,0,2,-3,-4,1,0,0,2,0,2,0,1,response3disk_7,5,rectangle_4,,,,,,,,,,,,,,,,,,,,,,,,,,,,,,,,,,,,,,,,,,,,,,,,,,,,,,,,,,,,,,,,,,,,,,,,,,,,,,,,,,,,,,,,,,,,,,,,,,,,,,,,,,,,,
,,,,,,615c5d74156deea8ee2aa187,62c539970f5bf6bc18c814c6,2022-07-06_09h25.36.238,Colour_Asymmetry_Pilot,2022.1.3,Win32,59.97001499,62c50e9c1127f2cd403a315f,,,,,,,,,,,,,,,,,,,"[0.04299999999999993,0.16060000000000008,-0.6628000000000001]",onetwo,"[-0.38039999999999996,-0.4276,-0.1452]",-4,3.3413,-36,82,1,0,0,response7disk_5,-7,15,1,0,0,rectangle_8,-7,15,1,0,0,2,-7,15,1,0,0,3,0,3,0,1,,,,,,,,,,,,,,,,,,,,,,,,,,,,,,,,,,,,,,,,,,,,,,,,,,,,,,,,,,,,,,,,,,,,,,,,,,,,,,,,,,,,,,,,,,,,,,,,,,,,,,,,,,,,,,,,
,,,,,,615c5d74156deea8ee2aa187,62c539970f5bf6bc18c814c6,2022-07-06_09h25.36.238,Colour_Asymmetry_Pilot,2022.1.3,Win32,59.97001499,62c50e9c1127f2cd403a315f,,,,,,,,,,,,,,,,,,,"[0.2784,-0.31000000000000005,-0.5452]",onethree,"[0.9842,0.7409999999999999,-0.6628000000000001]",-4,1.8629,-36,79,1,0,0,response7disk_5,-21,-5,1,0,0,rectangle_8,-21,-5,1,0,0,2,-21,-5,1,0,0,4,0,4,0,1,,,,,,,,,,,,,,,,,,,,,,,,,,,,,,,,,,,,,,,,,,,,,,,,,,,,,,,,,,,,,,,,,,,,,,,,,,,,,,,,,,,,,,,,,,,,,,,,,,,,,,,,,,,,,,,,
,,,,,,615c5d74156deea8ee2aa187,62c539970f5bf6bc18c814c6,2022-07-06_09h25.36.238,Colour_Asymmetry_Pilot,2022.1.3,Win32,59.97001499,62c50e9c1127f2cd403a315f,,,,,,,,,,,,,,,,,,,"[-0.9296,-0.12959999999999994,-0.043199999999999905]",twofour,"[1,0.12939999999999996,-1]",-4,1.0865,-29,75,1,0,0,response7disk_5,-5,7,1,0,0,rectangle_8,-5,7,1,0,0,2,-5,7,1,0,0,5,0,5,0,1,,,,,,,,,,,,,,,,,,,,,,,,,,,,,,,,,,,,,,,,,,,,,,,,,,,,,,,,,,,,,,,,,,,,,,,,,,,,,,,,,,,,,,,,,,,,,,,,,,,,,,,,,,,,,,,,
,,,,,,615c5d74156deea8ee2aa187,62c539970f5bf6bc18c814c6,2022-07-06_09h25.36.238,Colour_Asymmetry_Pilot,2022.1.3,Win32,59.97001499,62c50e9c1127f2cd403a315f,,,,,,,,,,,,,,,,,,,"[0.37240000000000006,-0.050999999999999934,-0.5216]",threefour,"[0.34099999999999997,0.5841999999999998,-0.9844]",-4,4.6702,-41,87,1,0,0,response7disk_5,-2,-3,1,0,0,rectangle_8,-2,-3,1,0,0,2,-2,-3,1,0,0,6,0,6,0,1,,,,,,,,,,,,,,,,,,,,,,,,,,,,,,,,,,,,,,,,,,,,,,,,,,,,,,,,,,,,,,,,,,,,,,,,,,,,,,,,,,,,,,,,,,,,,,,,,,,,,,,,,,,,,,,,
,,,,,,615c5d74156deea8ee2aa187,62c539970f5bf6bc18c814c6,2022-07-06_09h25.36.238,Colour_Asymmetry_Pilot,2022.1.3,Win32,59.97001499,62c50e9c1127f2cd403a315f,,,,,,,,,,,,,,,,,,,,onetwo,,-4,1.0158,,,,,,,,,,,,,,,,,,,,,,,,,,,,,,,,space,7.324,"[-0.2942,-0.7648,-0.7492000000000001]","[-0.26280000000000003,-0.2158,-0.3256]",-57,113,1,0,0,response7disk,-11,4,1,0,0,rectangle,-11,4,1,0,0,,1,0.0021,0,-11,4,1,0,0,0,0,0,6,1,6,first,,,,,,,,,,,,,,,,,,,,,,,,,,,,,,,,,,,,,,,,,,,,,,,,,,,,,,,,,,,,,,,,,,,,,,,,
,,,,,,615c5d74156deea8ee2aa187,62c539970f5bf6bc18c814c6,2022-07-06_09h25.36.238,Colour_Asymmetry_Pilot,2022.1.3,Win32,59.97001499,62c50e9c1127f2cd403a315f,,,,,,,,,,,,,,,,,,,,onethree,,-4,0.5166,,,,,,,,,,,,,,,,,,,,,,,,,,,,,,,,,,"[-0.45899999999999996,-0.3256,-0.9374]","[0.796,0.2156,-0.27859999999999996]",-40,66,1,0,0,response7disk,-8,5,1,0,0,rectangle,-8,5,1,0,0,,3,0.0014,0,-8,5,1,0,0,0,1,1,126,1,45,second,,,,,,,,,,,,,,,,,,,,,,,,,,,,,,,,,,,,,,,,,,,,,,,,,,,,,,,,,,,,,,,,,,,,,,,,
,,,,,,615c5d74156deea8ee2aa187,62c539970f5bf6bc18c814c6,2022-07-06_09h25.36.238,Colour_Asymmetry_Pilot,2022.1.3,Win32,59.97001499,62c50e9c1127f2cd403a315f,,,,,,,,,,,,,,,,,,,,fourtwo,,-4,0.5206,,,,,,,,,,,,,,,,,,,,,,,,,,,,,,,,,,"[-0.050999999999999934,-0.6706000000000001,-0.804]","[-0.011800000000000033,-0.906,-0.45100000000000007]",-37,88,1,0,0,response7disk,-8,-1,1,0,0,rectangle,-8,-1,1,0,0,,1,0.0011,0,-8,-1,1,0,0,0,2,2,42,1,42,first,,,,,,,,,,,,,,,,,,,,,,,,,,,,,,,,,,,,,,,,,,,,,,,,,,,,,,,,,,,,,,,,,,,,,,,,
,,,,,,615c5d74156deea8ee2aa187,62c539970f5bf6bc18c814c6,2022-07-06_09h25.36.238,Colour_Asymmetry_Pilot,2022.1.3,Win32,59.97001499,62c50e9c1127f2cd403a315f,,,,,,,,,,,,,,,,,,,,threeone,,-4,0.5149,,,,,,,,,,,,,,,,,,,,,,,,,,,,,,,,,,"[-0.4668,-0.8746,-0.2942]","[0.7018,0.7802,-0.16079999999999994]",-37,78,1,0,0,response7disk,-24,-2,1,0,0,rectangle,85,39,1,0,0,3,3,2.5499,1,6,0,1,0,0,0,3,3,136,1,55,second,response1disk_3,rectangle,,,,,,,,,,,,,,,,,,,,,,,,,,,,,,,,,,,,,,,,,,,,,,,,,,,,,,,,,,,,,,,,,,,,,,
,,,,,,615c5d74156deea8ee2aa187,62c539970f5bf6bc18c814c6,2022-07-06_09h25.36.238,Colour_Asymmetry_Pilot,2022.1.3,Win32,59.97001499,62c50e9c1127f2cd403a315f,,,,,,,,,,,,,,,,,,,,fourtwo,,-4,0.6666,,,,,,,,,,,,,,,,,,,,,,,,,,,,,,,,,,"[-0.9766,-0.34920000000000007,0.2156]","[0.7018,0.7176,0.6155999999999999]",-30,70,1,0,0,response7disk,-8,-2,1,0,0,rectangle,-8,-2,1,0,0,3,2,0.0012,0,-8,-2,1,0,0,0,4,4,27,1,27,first,,,,,,,,,,,,,,,,,,,,,,,,,,,,,,,,,,,,,,,,,,,,,,,,,,,,,,,,,,,,,,,,,,,,,,,,
,,,,,,615c5d74156deea8ee2aa187,62c539970f5bf6bc18c814c6,2022-07-06_09h25.36.238,Colour_Asymmetry_Pilot,2022.1.3,Win32,59.97001499,62c50e9c1127f2cd403a315f,,,,,,,,,,,,,,,,,,,,fourthree,,-4,1.0668,,,,,,,,,,,,,,,,,,,,,,,,,,,,,,,,,,"[-0.9766,-0.6472,0.07440000000000002]","[-0.4668,-0.8746,-0.2942]",-36,71,1,0,0,response7disk,-10,-2,1,0,0,rectangle,-10,-2,1,0,0,3,1,0.0015,0,-10,-2,1,0,0,0,5,5,81,1,0,second,,,,,,,,,,,,,,,,,,,,,,,,,,,,,,,,,,,,,,,,,,,,,,,,,,,,,,,,,,,,,,,,,,,,,,,,
,,,,,,615c5d74156deea8ee2aa187,62c539970f5bf6bc18c814c6,2022-07-06_09h25.36.238,Colour_Asymmetry_Pilot,2022.1.3,Win32,59.97001499,62c50e9c1127f2cd403a315f,,,,,,,,,,,,,,,,,,,,twoone,,-4,0.733,,,,,,,,,,,,,,,,,,,,,,,,,,,,,,,,,,"[-0.34920000000000007,-0.702,-0.5216]","[-0.24719999999999998,-0.0354000000000001,0.3175999999999999]",-36,71,1,0,0,response7disk,-14,0,1,0,0,rectangle,-14,0,1,0,0,3,3,0.0012,0,-14,0,1,0,0,0,6,6,141,1,60,second,,,,,,,,,,,,,,,,,,,,,,,,,,,,,,,,,,,,,,,,,,,,,,,,,,,,,,,,,,,,,,,,,,,,,,,,
,,,,,,615c5d74156deea8ee2aa187,62c539970f5bf6bc18c814c6,2022-07-06_09h25.36.238,Colour_Asymmetry_Pilot,2022.1.3,Win32,59.97001499,62c50e9c1127f2cd403a315f,,,,,,,,,,,,,,,,,,,,threefour,,-4,0.4349,,,,,,,,,,,,,,,,,,,,,,,,,,,,,,,,,,"[-0.48240000000000005,0.3175999999999999,0.2156]","[0.34099999999999997,0.5841999999999998,-0.9844]",-31,74,1,0,0,response7disk,-8,0,1,0,0,rectangle,-8,0,1,0,0,3,2,0.0012,0,-8,0,1,0,0,0,7,7,90,1,9,second,,,,,,,,,,,,,,,,,,,,,,,,,,,,,,,,,,,,,,,,,,,,,,,,,,,,,,,,,,,,,,,,,,,,,,,,
,,,,,,615c5d74156deea8ee2aa187,62c539970f5bf6bc18c814c6,2022-07-06_09h25.36.238,Colour_Asymmetry_Pilot,2022.1.3,Win32,59.97001499,62c50e9c1127f2cd403a315f,,,,,,,,,,,,,,,,,,,,fourthree,,-4,0.5195,,,,,,,,,,,,,,,,,,,,,,,,,,,,,,,,,,"[-0.34920000000000007,-0.702,-0.5216]","[0.05879999999999996,0.2784,0.5841999999999998]",-28,88,1,0,0,response7disk,-8,6,1,0,0,rectangle,-8,6,1,0,0,3,3,0.0009,0,-8,6,1,0,0,0,8,8,111,1,30,second,,,,,,,,,,,,,,,,,,,,,,,,,,,,,,,,,,,,,,,,,,,,,,,,,,,,,,,,,,,,,,,,,,,,,,,,
,,,,,,615c5d74156deea8ee2aa187,62c539970f5bf6bc18c814c6,2022-07-06_09h25.36.238,Colour_Asymmetry_Pilot,2022.1.3,Win32,59.97001499,62c50e9c1127f2cd403a315f,,,,,,,,,,,,,,,,,,,,twofour,,-4,0.569,,,,,,,,,,,,,,,,,,,,,,,,,,,,,,,,,,"[0.6547999999999998,-0.043199999999999905,-0.011800000000000033]","[0.37240000000000006,-0.050999999999999934,-0.5216]",-57,95,1,0,0,response7disk,-15,-2,1,0,0,rectangle,-15,-2,1,0,0,3,1,0.0009,0,-15,-2,1,0,0,0,9,9,62,1,62,first,,,,,,,,,,,,,,,,,,,,,,,,,,,,,,,,,,,,,,,,,,,,,,,,,,,,,,,,,,,,,,,,,,,,,,,,
,,,,,,615c5d74156deea8ee2aa187,62c539970f5bf6bc18c814c6,2022-07-06_09h25.36.238,Colour_Asymmetry_Pilot,2022.1.3,Win32,59.97001499,62c50e9c1127f2cd403a315f,,,,,,,,,,,,,,,,,,,,fourthree,,-4,3.2339,,,,,,,,,,,,,,,,,,,,,,,,,,,,,,,,,,"[0.7646000000000002,0.07440000000000002,0.2704]","[-0.2942,-0.7648,-0.7492000000000001]",-42,88,1,0,0,response7disk,5,2,1,0,0,rectangle,5,2,1,0,0,3,3,0.0008,0,5,2,1,0,0,0,10,10,59,1,59,first,,,,,,,,,,,,,,,,,,,,,,,,,,,,,,,,,,,,,,,,,,,,,,,,,,,,,,,,,,,,,,,,,,,,,,,,
,,,,,,615c5d74156deea8ee2aa187,62c539970f5bf6bc18c814c6,2022-07-06_09h25.36.238,Colour_Asymmetry_Pilot,2022.1.3,Win32,59.97001499,62c50e9c1127f2cd403a315f,,,,,,,,,,,,,,,,,,,,onetwo,,4,2.017,,,,,,,,,,,,,,,,,,,,,,,,,,,,,,,,,,"[-0.6,0.16860000000000008,0.44300000000000006]","[0.19199999999999995,0.18419999999999992,0.5136000000000001]",35,102,1,0,0,response1disk,4,1,1,0,0,rectangle,4,1,1,0,0,3,3,9.99999E-05,0,4,1,1,0,0,0,11,11,80,1,80,first,,,,,,,,,,,,,,,,,,,,,,,,,,,,,,,,,,,,,,,,,,,,,,,,,,,,,,,,,,,,,,,,,,,,,,,,
,,,,,,615c5d74156deea8ee2aa187,62c539970f5bf6bc18c814c6,2022-07-06_09h25.36.238,Colour_Asymmetry_Pilot,2022.1.3,Win32,59.97001499,62c50e9c1127f2cd403a315f,,,,,,,,,,,,,,,,,,,,threefour,,-4,0.5344,,,,,,,,,,,,,,,,,,,,,,,,,,,,,,,,,,"[-0.2942,-0.7648,-0.7492000000000001]","[0.0351999999999999,0.41159999999999997,0.0038000000000000256]",-46,88,1,0,0,response7disk,2,-4,1,0,0,rectangle,2,-4,1,0,0,3,2,0.0009,0,2,-4,1,0,0,0,12,12,51,1,51,first,,,,,,,,,,,,,,,,,,,,,,,,,,,,,,,,,,,,,,,,,,,,,,,,,,,,,,,,,,,,,,,,,,,,,,,,
,,,,,,615c5d74156deea8ee2aa187,62c539970f5bf6bc18c814c6,2022-07-06_09h25.36.238,Colour_Asymmetry_Pilot,2022.1.3,Win32,59.97001499,62c50e9c1127f2cd403a315f,,,,,,,,,,,,,,,,,,,,fourthree,,-4,0.5163,,,,,,,,,,,,,,,,,,,,,,,,,,,,,,,,,,"[0.9763999999999999,-0.1137999999999999,-0.6314]","[0.19199999999999995,0.18419999999999992,0.5136000000000001]",-33,95,1,0,0,response7disk,-9,8,1,0,0,rectangle,-9,8,1,0,0,3,1,0.001,0,-9,8,1,0,0,0,13,13,78,1,78,first,,,,,,,,,,,,,,,,,,,,,,,,,,,,,,,,,,,,,,,,,,,,,,,,,,,,,,,,,,,,,,,,,,,,,,,,
,,,,,,615c5d74156deea8ee2aa187,62c539970f5bf6bc18c814c6,2022-07-06_09h25.36.238,Colour_Asymmetry_Pilot,2022.1.3,Win32,59.97001499,62c50e9c1127f2cd403a315f,,,,,,,,,,,,,,,,,,,,threefour,,-4,0.4833,,,,,,,,,,,,,,,,,,,,,,,,,,,,,,,,,,"[-0.26280000000000003,-0.2158,-0.3256]","[-0.9766,-0.34920000000000007,0.2156]",-54,93,1,0,0,response7disk,-21,2,1,0,0,rectangle,-21,2,1,0,0,3,3,0.0009,0,-21,2,1,0,0,0,14,14,20,1,20,first,,,,,,,,,,,,,,,,,,,,,,,,,,,,,,,,,,,,,,,,,,,,,,,,,,,,,,,,,,,,,,,,,,,,,,,,
,,,,,,615c5d74156deea8ee2aa187,62c539970f5bf6bc18c814c6,2022-07-06_09h25.36.238,Colour_Asymmetry_Pilot,2022.1.3,Win32,59.97001499,62c50e9c1127f2cd403a315f,,,,,,,,,,,,,,,,,,,,twofour,,-4,1.8837,,,,,,,,,,,,,,,,,,,,,,,,,,,,,,,,,,"[-0.34920000000000007,-0.702,-0.5216]","[0.7646000000000002,0.07440000000000002,0.2704]",-49,95,1,0,0,response7disk,0,-5,1,0,0,rectangle,0,-5,1,0,0,3,2,0.0008,0,0,-5,1,0,0,0,15,15,35,1,35,first,,,,,,,,,,,,,,,,,,,,,,,,,,,,,,,,,,,,,,,,,,,,,,,,,,,,,,,,,,,,,,,,,,,,,,,,
,,,,,,615c5d74156deea8ee2aa187,62c539970f5bf6bc18c814c6,2022-07-06_09h25.36.238,Colour_Asymmetry_Pilot,2022.1.3,Win32,59.97001499,62c50e9c1127f2cd403a315f,,,,,,,,,,,,,,,,,,,,fourtwo,,-4,0.5328,,,,,,,,,,,,,,,,,,,,,,,,,,,,,,,,,,"[0.9372,0.20779999999999998,0.2704]","[-0.24719999999999998,-0.0354000000000001,0.3175999999999999]",-36,90,1,0,0,response7disk,4,0,1,0,0,rectangle,4,0,1,0,0,3,2,9.99999E-05,0,4,0,1,0,0,0,16,16,77,1,77,first,,,,,,,,,,,,,,,,,,,,,,,,,,,,,,,,,,,,,,,,,,,,,,,,,,,,,,,,,,,,,,,,,,,,,,,,
,,,,,,615c5d74156deea8ee2aa187,62c539970f5bf6bc18c814c6,2022-07-06_09h25.36.238,Colour_Asymmetry_Pilot,2022.1.3,Win32,59.97001499,62c50e9c1127f2cd403a315f,,,,,,,,,,,,,,,,,,,,threeone,,4,0.7342,,,,,,,,,,,,,,,,,,,,,,,,,,,,,,,,,,"[-0.6706000000000001,-0.6157999999999999,-0.6786]","[-0.6706000000000001,-0.6157999999999999,-0.6786]",34,93,1,0,0,response1disk,2,8,1,0,0,rectangle,84,42,1,0,0,3,3,1.8497,1,7,3,1,0,0,0,17,17,104,1,23,second,response1disk_3,rectangle,,,,,,,,,,,,,,,,,,,,,,,,,,,,,,,,,,,,,,,,,,,,,,,,,,,,,,,,,,,,,,,,,,,,,,
