trials.thisRepN,trials.thisTrialN,trials.thisN,trials.thisIndex,trials.ran,Colourcodes,participant,session,date,expName,psychopyVersion,OS,frameRate,study_id,trials_4.thisRepN,trials_4.thisTrialN,trials_4.thisN,trials_4.thisIndex,trials_4.ran,StimulusPos,key_resp.keys,key_resp.rt,key_resp_2.keys,key_resp_2.rt,key_resp_15.keys,key_resp_15.rt,key_resp_17.keys,key_resp_17.rt,key_resp_9.keys,key_resp_9.rt,key_resp_10.keys,key_resp_10.rt,Circle1_col,Ecc,Circle2_col,similarity,response_time,mouse_5.x,mouse_5.y,mouse_5.leftButton,mouse_5.midButton,mouse_5.rightButton,mouse_5.clicked_name,mouse_10.x,mouse_10.y,mouse_10.leftButton,mouse_10.midButton,mouse_10.rightButton,mouse_10.clicked_name,mouse_7.x,mouse_7.y,mouse_7.leftButton,mouse_7.midButton,mouse_7.rightButton,catchnumberprac,mouse_6.x,mouse_6.y,mouse_6.leftButton,mouse_6.midButton,mouse_6.rightButton,duringprac.thisRepN,duringprac.thisTrialN,duringprac.thisN,duringprac.thisIndex,duringprac.ran,mouse_7.clicked_name,catchprac,mouse_6.clicked_name,key_resp_22.keys,key_resp_22.rt,Circle1_colour,Circle2_colour,mouse.x,mouse.y,mouse.leftButton,mouse.midButton,mouse.rightButton,mouse.clicked_name,mouse_2.x,mouse_2.y,mouse_2.leftButton,mouse_2.midButton,mouse_2.rightButton,mouse_2.clicked_name,mouse_3.x,mouse_3.y,mouse_3.leftButton,mouse_3.midButton,mouse_3.rightButton,catchresponse,catchnumber,response_time_catch,Catch,mouse_11.x,mouse_11.y,mouse_11.leftButton,mouse_11.midButton,mouse_11.rightButton,trials_2.thisRepN,trials_2.thisTrialN,trials_2.thisN,trials_2.thisIndex,trials_2.ran,Colourpair,Temporder,mouse_3.clicked_name,mouse_11.clicked_name,trials_3.thisRepN,trials_3.thisTrialN,trials_3.thisN,trials_3.thisIndex,trials_3.ran,key_resp_instr_Ishi.keys,key_resp_instr_Ishi.rt,Ishi_trial_keyresp.keys,Ishi_textbox.text,Ishi_mouse.x,Ishi_mouse.y,Ishi_mouse.leftButton,Ishi_mouse.midButton,Ishi_mouse.rightButton,Ishi_mouse.clicked_name,Ishi_loop.thisRepN,Ishi_loop.thisTrialN,Ishi_loop.thisN,Ishi_loop.thisIndex,Ishi_loop.ran,imageaddress,textbox.text,mouse_4.x,mouse_4.y,mouse_4.leftButton,mouse_4.midButton,mouse_4.rightButton,mouse_4.clicked_name,textbox_2.text,mouse_8.x,mouse_8.y,mouse_8.leftButton,mouse_8.midButton,mouse_8.rightButton,mouse_8.clicked_name,textbox_3.text,mouse_9.x,mouse_9.y,mouse_9.leftButton,mouse_9.midButton,mouse_9.rightButton,mouse_9.clicked_name,textbox_4.text,mouse_12.x,mouse_12.y,mouse_12.leftButton,mouse_12.midButton,mouse_12.rightButton,mouse_12.clicked_name,textbox_5.text,mouse_13.x,mouse_13.y,mouse_13.leftButton,mouse_13.midButton,mouse_13.rightButton,mouse_13.clicked_name,textbox_6.text,mouse_14.x,mouse_14.y,mouse_14.leftButton,mouse_14.midButton,mouse_14.rightButton,mouse_14.clicked_name,textbox_7.text,mouse_15.x,mouse_15.y,mouse_15.leftButton,mouse_15.midButton,mouse_15.rightButton,mouse_15.clicked_name
0,0,0,76,1,,60eb105221914f6f26a89908,62c5389480569701d2f2d355,2022-07-06_09h24.29.995,Colour_Asymmetry_Pilot,2022.1.3,Win32,60.12867537,62c50e9c1127f2cd403a315f,,,,,,,,,,,,,,,,,,,,,,,,,,,,,,,,,,,,,,,,,,,,,,,,,,,,,,,,,,,,,,,,,,,,,,,,,,,,,,,,,,,,,,,,,,,,,,,,,,,,,,,,,,,,,,,,,,,,,,,,,,,,,,,,,,,,,,,,,,,,,,,,,,,,,,,,,,,,,,,,,,,
0,1,1,3,1,,60eb105221914f6f26a89908,62c5389480569701d2f2d355,2022-07-06_09h24.29.995,Colour_Asymmetry_Pilot,2022.1.3,Win32,60.12867537,62c50e9c1127f2cd403a315f,,,,,,,,,,,,,,,,,,,,,,,,,,,,,,,,,,,,,,,,,,,,,,,,,,,,,,,,,,,,,,,,,,,,,,,,,,,,,,,,,,,,,,,,,,,,,,,,,,,,,,,,,,,,,,,,,,,,,,,,,,,,,,,,,,,,,,,,,,,,,,,,,,,,,,,,,,,,,,,,,,,
0,2,2,92,1,,60eb105221914f6f26a89908,62c5389480569701d2f2d355,2022-07-06_09h24.29.995,Colour_Asymmetry_Pilot,2022.1.3,Win32,60.12867537,62c50e9c1127f2cd403a315f,,,,,,,,,,,,,,,,,,,,,,,,,,,,,,,,,,,,,,,,,,,,,,,,,,,,,,,,,,,,,,,,,,,,,,,,,,,,,,,,,,,,,,,,,,,,,,,,,,,,,,,,,,,,,,,,,,,,,,,,,,,,,,,,,,,,,,,,,,,,,,,,,,,,,,,,,,,,,,,,,,,
0,3,3,37,1,,60eb105221914f6f26a89908,62c5389480569701d2f2d355,2022-07-06_09h24.29.995,Colour_Asymmetry_Pilot,2022.1.3,Win32,60.12867537,62c50e9c1127f2cd403a315f,,,,,,,,,,,,,,,,,,,,,,,,,,,,,,,,,,,,,,,,,,,,,,,,,,,,,,,,,,,,,,,,,,,,,,,,,,,,,,,,,,,,,,,,,,,,,,,,,,,,,,,,,,,,,,,,,,,,,,,,,,,,,,,,,,,,,,,,,,,,,,,,,,,,,,,,,,,,,,,,,,,
0,4,4,2,1,,60eb105221914f6f26a89908,62c5389480569701d2f2d355,2022-07-06_09h24.29.995,Colour_Asymmetry_Pilot,2022.1.3,Win32,60.12867537,62c50e9c1127f2cd403a315f,,,,,,,,,,,,,,,,,,,,,,,,,,,,,,,,,,,,,,,,,,,,,,,,,,,,,,,,,,,,,,,,,,,,,,,,,,,,,,,,,,,,,,,,,,,,,,,,,,,,,,,,,,,,,,,,,,,,,,,,,,,,,,,,,,,,,,,,,,,,,,,,,,,,,,,,,,,,,,,,,,,
0,5,5,68,1,,60eb105221914f6f26a89908,62c5389480569701d2f2d355,2022-07-06_09h24.29.995,Colour_Asymmetry_Pilot,2022.1.3,Win32,60.12867537,62c50e9c1127f2cd403a315f,,,,,,,,,,,,,,,,,,,,,,,,,,,,,,,,,,,,,,,,,,,,,,,,,,,,,,,,,,,,,,,,,,,,,,,,,,,,,,,,,,,,,,,,,,,,,,,,,,,,,,,,,,,,,,,,,,,,,,,,,,,,,,,,,,,,,,,,,,,,,,,,,,,,,,,,,,,,,,,,,,,
0,6,6,0,1,,60eb105221914f6f26a89908,62c5389480569701d2f2d355,2022-07-06_09h24.29.995,Colour_Asymmetry_Pilot,2022.1.3,Win32,60.12867537,62c50e9c1127f2cd403a315f,,,,,,,,,,,,,,,,,,,,,,,,,,,,,,,,,,,,,,,,,,,,,,,,,,,,,,,,,,,,,,,,,,,,,,,,,,,,,,,,,,,,,,,,,,,,,,,,,,,,,,,,,,,,,,,,,,,,,,,,,,,,,,,,,,,,,,,,,,,,,,,,,,,,,,,,,,,,,,,,,,,
0,7,7,43,1,,60eb105221914f6f26a89908,62c5389480569701d2f2d355,2022-07-06_09h24.29.995,Colour_Asymmetry_Pilot,2022.1.3,Win32,60.12867537,62c50e9c1127f2cd403a315f,,,,,,,,,,,,,,,,,,,,,,,,,,,,,,,,,,,,,,,,,,,,,,,,,,,,,,,,,,,,,,,,,,,,,,,,,,,,,,,,,,,,,,,,,,,,,,,,,,,,,,,,,,,,,,,,,,,,,,,,,,,,,,,,,,,,,,,,,,,,,,,,,,,,,,,,,,,,,,,,,,,
0,8,8,86,1,,60eb105221914f6f26a89908,62c5389480569701d2f2d355,2022-07-06_09h24.29.995,Colour_Asymmetry_Pilot,2022.1.3,Win32,60.12867537,62c50e9c1127f2cd403a315f,,,,,,,,,,,,,,,,,,,,,,,,,,,,,,,,,,,,,,,,,,,,,,,,,,,,,,,,,,,,,,,,,,,,,,,,,,,,,,,,,,,,,,,,,,,,,,,,,,,,,,,,,,,,,,,,,,,,,,,,,,,,,,,,,,,,,,,,,,,,,,,,,,,,,,,,,,,,,,,,,,,
0,9,9,41,1,,60eb105221914f6f26a89908,62c5389480569701d2f2d355,2022-07-06_09h24.29.995,Colour_Asymmetry_Pilot,2022.1.3,Win32,60.12867537,62c50e9c1127f2cd403a315f,,,,,,,,,,,,,,,,,,,,,,,,,,,,,,,,,,,,,,,,,,,,,,,,,,,,,,,,,,,,,,,,,,,,,,,,,,,,,,,,,,,,,,,,,,,,,,,,,,,,,,,,,,,,,,,,,,,,,,,,,,,,,,,,,,,,,,,,,,,,,,,,,,,,,,,,,,,,,,,,,,,
0,10,10,69,1,,60eb105221914f6f26a89908,62c5389480569701d2f2d355,2022-07-06_09h24.29.995,Colour_Asymmetry_Pilot,2022.1.3,Win32,60.12867537,62c50e9c1127f2cd403a315f,,,,,,,,,,,,,,,,,,,,,,,,,,,,,,,,,,,,,,,,,,,,,,,,,,,,,,,,,,,,,,,,,,,,,,,,,,,,,,,,,,,,,,,,,,,,,,,,,,,,,,,,,,,,,,,,,,,,,,,,,,,,,,,,,,,,,,,,,,,,,,,,,,,,,,,,,,,,,,,,,,,
0,11,11,56,1,,60eb105221914f6f26a89908,62c5389480569701d2f2d355,2022-07-06_09h24.29.995,Colour_Asymmetry_Pilot,2022.1.3,Win32,60.12867537,62c50e9c1127f2cd403a315f,,,,,,,,,,,,,,,,,,,,,,,,,,,,,,,,,,,,,,,,,,,,,,,,,,,,,,,,,,,,,,,,,,,,,,,,,,,,,,,,,,,,,,,,,,,,,,,,,,,,,,,,,,,,,,,,,,,,,,,,,,,,,,,,,,,,,,,,,,,,,,,,,,,,,,,,,,,,,,,,,,,
0,12,12,12,1,,60eb105221914f6f26a89908,62c5389480569701d2f2d355,2022-07-06_09h24.29.995,Colour_Asymmetry_Pilot,2022.1.3,Win32,60.12867537,62c50e9c1127f2cd403a315f,,,,,,,,,,,,,,,,,,,,,,,,,,,,,,,,,,,,,,,,,,,,,,,,,,,,,,,,,,,,,,,,,,,,,,,,,,,,,,,,,,,,,,,,,,,,,,,,,,,,,,,,,,,,,,,,,,,,,,,,,,,,,,,,,,,,,,,,,,,,,,,,,,,,,,,,,,,,,,,,,,,
0,13,13,78,1,,60eb105221914f6f26a89908,62c5389480569701d2f2d355,2022-07-06_09h24.29.995,Colour_Asymmetry_Pilot,2022.1.3,Win32,60.12867537,62c50e9c1127f2cd403a315f,,,,,,,,,,,,,,,,,,,,,,,,,,,,,,,,,,,,,,,,,,,,,,,,,,,,,,,,,,,,,,,,,,,,,,,,,,,,,,,,,,,,,,,,,,,,,,,,,,,,,,,,,,,,,,,,,,,,,,,,,,,,,,,,,,,,,,,,,,,,,,,,,,,,,,,,,,,,,,,,,,,
0,14,14,7,1,,60eb105221914f6f26a89908,62c5389480569701d2f2d355,2022-07-06_09h24.29.995,Colour_Asymmetry_Pilot,2022.1.3,Win32,60.12867537,62c50e9c1127f2cd403a315f,,,,,,,,,,,,,,,,,,,,,,,,,,,,,,,,,,,,,,,,,,,,,,,,,,,,,,,,,,,,,,,,,,,,,,,,,,,,,,,,,,,,,,,,,,,,,,,,,,,,,,,,,,,,,,,,,,,,,,,,,,,,,,,,,,,,,,,,,,,,,,,,,,,,,,,,,,,,,,,,,,,
0,15,15,28,1,,60eb105221914f6f26a89908,62c5389480569701d2f2d355,2022-07-06_09h24.29.995,Colour_Asymmetry_Pilot,2022.1.3,Win32,60.12867537,62c50e9c1127f2cd403a315f,,,,,,,,,,,,,,,,,,,,,,,,,,,,,,,,,,,,,,,,,,,,,,,,,,,,,,,,,,,,,,,,,,,,,,,,,,,,,,,,,,,,,,,,,,,,,,,,,,,,,,,,,,,,,,,,,,,,,,,,,,,,,,,,,,,,,,,,,,,,,,,,,,,,,,,,,,,,,,,,,,,
0,16,16,14,1,,60eb105221914f6f26a89908,62c5389480569701d2f2d355,2022-07-06_09h24.29.995,Colour_Asymmetry_Pilot,2022.1.3,Win32,60.12867537,62c50e9c1127f2cd403a315f,,,,,,,,,,,,,,,,,,,,,,,,,,,,,,,,,,,,,,,,,,,,,,,,,,,,,,,,,,,,,,,,,,,,,,,,,,,,,,,,,,,,,,,,,,,,,,,,,,,,,,,,,,,,,,,,,,,,,,,,,,,,,,,,,,,,,,,,,,,,,,,,,,,,,,,,,,,,,,,,,,,
0,17,17,17,1,,60eb105221914f6f26a89908,62c5389480569701d2f2d355,2022-07-06_09h24.29.995,Colour_Asymmetry_Pilot,2022.1.3,Win32,60.12867537,62c50e9c1127f2cd403a315f,,,,,,,,,,,,,,,,,,,,,,,,,,,,,,,,,,,,,,,,,,,,,,,,,,,,,,,,,,,,,,,,,,,,,,,,,,,,,,,,,,,,,,,,,,,,,,,,,,,,,,,,,,,,,,,,,,,,,,,,,,,,,,,,,,,,,,,,,,,,,,,,,,,,,,,,,,,,,,,,,,,
0,18,18,11,1,,60eb105221914f6f26a89908,62c5389480569701d2f2d355,2022-07-06_09h24.29.995,Colour_Asymmetry_Pilot,2022.1.3,Win32,60.12867537,62c50e9c1127f2cd403a315f,,,,,,,,,,,,,,,,,,,,,,,,,,,,,,,,,,,,,,,,,,,,,,,,,,,,,,,,,,,,,,,,,,,,,,,,,,,,,,,,,,,,,,,,,,,,,,,,,,,,,,,,,,,,,,,,,,,,,,,,,,,,,,,,,,,,,,,,,,,,,,,,,,,,,,,,,,,,,,,,,,,
0,19,19,30,1,,60eb105221914f6f26a89908,62c5389480569701d2f2d355,2022-07-06_09h24.29.995,Colour_Asymmetry_Pilot,2022.1.3,Win32,60.12867537,62c50e9c1127f2cd403a315f,,,,,,,,,,,,,,,,,,,,,,,,,,,,,,,,,,,,,,,,,,,,,,,,,,,,,,,,,,,,,,,,,,,,,,,,,,,,,,,,,,,,,,,,,,,,,,,,,,,,,,,,,,,,,,,,,,,,,,,,,,,,,,,,,,,,,,,,,,,,,,,,,,,,,,,,,,,,,,,,,,,
0,20,20,52,1,,60eb105221914f6f26a89908,62c5389480569701d2f2d355,2022-07-06_09h24.29.995,Colour_Asymmetry_Pilot,2022.1.3,Win32,60.12867537,62c50e9c1127f2cd403a315f,,,,,,,,,,,,,,,,,,,,,,,,,,,,,,,,,,,,,,,,,,,,,,,,,,,,,,,,,,,,,,,,,,,,,,,,,,,,,,,,,,,,,,,,,,,,,,,,,,,,,,,,,,,,,,,,,,,,,,,,,,,,,,,,,,,,,,,,,,,,,,,,,,,,,,,,,,,,,,,,,,,
0,21,21,34,1,,60eb105221914f6f26a89908,62c5389480569701d2f2d355,2022-07-06_09h24.29.995,Colour_Asymmetry_Pilot,2022.1.3,Win32,60.12867537,62c50e9c1127f2cd403a315f,,,,,,,,,,,,,,,,,,,,,,,,,,,,,,,,,,,,,,,,,,,,,,,,,,,,,,,,,,,,,,,,,,,,,,,,,,,,,,,,,,,,,,,,,,,,,,,,,,,,,,,,,,,,,,,,,,,,,,,,,,,,,,,,,,,,,,,,,,,,,,,,,,,,,,,,,,,,,,,,,,,
0,22,22,36,1,,60eb105221914f6f26a89908,62c5389480569701d2f2d355,2022-07-06_09h24.29.995,Colour_Asymmetry_Pilot,2022.1.3,Win32,60.12867537,62c50e9c1127f2cd403a315f,,,,,,,,,,,,,,,,,,,,,,,,,,,,,,,,,,,,,,,,,,,,,,,,,,,,,,,,,,,,,,,,,,,,,,,,,,,,,,,,,,,,,,,,,,,,,,,,,,,,,,,,,,,,,,,,,,,,,,,,,,,,,,,,,,,,,,,,,,,,,,,,,,,,,,,,,,,,,,,,,,,
0,23,23,62,1,,60eb105221914f6f26a89908,62c5389480569701d2f2d355,2022-07-06_09h24.29.995,Colour_Asymmetry_Pilot,2022.1.3,Win32,60.12867537,62c50e9c1127f2cd403a315f,,,,,,,,,,,,,,,,,,,,,,,,,,,,,,,,,,,,,,,,,,,,,,,,,,,,,,,,,,,,,,,,,,,,,,,,,,,,,,,,,,,,,,,,,,,,,,,,,,,,,,,,,,,,,,,,,,,,,,,,,,,,,,,,,,,,,,,,,,,,,,,,,,,,,,,,,,,,,,,,,,,
0,24,24,46,1,,60eb105221914f6f26a89908,62c5389480569701d2f2d355,2022-07-06_09h24.29.995,Colour_Asymmetry_Pilot,2022.1.3,Win32,60.12867537,62c50e9c1127f2cd403a315f,,,,,,,,,,,,,,,,,,,,,,,,,,,,,,,,,,,,,,,,,,,,,,,,,,,,,,,,,,,,,,,,,,,,,,,,,,,,,,,,,,,,,,,,,,,,,,,,,,,,,,,,,,,,,,,,,,,,,,,,,,,,,,,,,,,,,,,,,,,,,,,,,,,,,,,,,,,,,,,,,,,
0,25,25,39,1,,60eb105221914f6f26a89908,62c5389480569701d2f2d355,2022-07-06_09h24.29.995,Colour_Asymmetry_Pilot,2022.1.3,Win32,60.12867537,62c50e9c1127f2cd403a315f,,,,,,,,,,,,,,,,,,,,,,,,,,,,,,,,,,,,,,,,,,,,,,,,,,,,,,,,,,,,,,,,,,,,,,,,,,,,,,,,,,,,,,,,,,,,,,,,,,,,,,,,,,,,,,,,,,,,,,,,,,,,,,,,,,,,,,,,,,,,,,,,,,,,,,,,,,,,,,,,,,,
0,26,26,58,1,,60eb105221914f6f26a89908,62c5389480569701d2f2d355,2022-07-06_09h24.29.995,Colour_Asymmetry_Pilot,2022.1.3,Win32,60.12867537,62c50e9c1127f2cd403a315f,,,,,,,,,,,,,,,,,,,,,,,,,,,,,,,,,,,,,,,,,,,,,,,,,,,,,,,,,,,,,,,,,,,,,,,,,,,,,,,,,,,,,,,,,,,,,,,,,,,,,,,,,,,,,,,,,,,,,,,,,,,,,,,,,,,,,,,,,,,,,,,,,,,,,,,,,,,,,,,,,,,
0,27,27,64,1,,60eb105221914f6f26a89908,62c5389480569701d2f2d355,2022-07-06_09h24.29.995,Colour_Asymmetry_Pilot,2022.1.3,Win32,60.12867537,62c50e9c1127f2cd403a315f,,,,,,,,,,,,,,,,,,,,,,,,,,,,,,,,,,,,,,,,,,,,,,,,,,,,,,,,,,,,,,,,,,,,,,,,,,,,,,,,,,,,,,,,,,,,,,,,,,,,,,,,,,,,,,,,,,,,,,,,,,,,,,,,,,,,,,,,,,,,,,,,,,,,,,,,,,,,,,,,,,,
0,28,28,66,1,,60eb105221914f6f26a89908,62c5389480569701d2f2d355,2022-07-06_09h24.29.995,Colour_Asymmetry_Pilot,2022.1.3,Win32,60.12867537,62c50e9c1127f2cd403a315f,,,,,,,,,,,,,,,,,,,,,,,,,,,,,,,,,,,,,,,,,,,,,,,,,,,,,,,,,,,,,,,,,,,,,,,,,,,,,,,,,,,,,,,,,,,,,,,,,,,,,,,,,,,,,,,,,,,,,,,,,,,,,,,,,,,,,,,,,,,,,,,,,,,,,,,,,,,,,,,,,,,
0,29,29,90,1,,60eb105221914f6f26a89908,62c5389480569701d2f2d355,2022-07-06_09h24.29.995,Colour_Asymmetry_Pilot,2022.1.3,Win32,60.12867537,62c50e9c1127f2cd403a315f,,,,,,,,,,,,,,,,,,,,,,,,,,,,,,,,,,,,,,,,,,,,,,,,,,,,,,,,,,,,,,,,,,,,,,,,,,,,,,,,,,,,,,,,,,,,,,,,,,,,,,,,,,,,,,,,,,,,,,,,,,,,,,,,,,,,,,,,,,,,,,,,,,,,,,,,,,,,,,,,,,,
0,30,30,9,1,,60eb105221914f6f26a89908,62c5389480569701d2f2d355,2022-07-06_09h24.29.995,Colour_Asymmetry_Pilot,2022.1.3,Win32,60.12867537,62c50e9c1127f2cd403a315f,,,,,,,,,,,,,,,,,,,,,,,,,,,,,,,,,,,,,,,,,,,,,,,,,,,,,,,,,,,,,,,,,,,,,,,,,,,,,,,,,,,,,,,,,,,,,,,,,,,,,,,,,,,,,,,,,,,,,,,,,,,,,,,,,,,,,,,,,,,,,,,,,,,,,,,,,,,,,,,,,,,
0,31,31,45,1,,60eb105221914f6f26a89908,62c5389480569701d2f2d355,2022-07-06_09h24.29.995,Colour_Asymmetry_Pilot,2022.1.3,Win32,60.12867537,62c50e9c1127f2cd403a315f,,,,,,,,,,,,,,,,,,,,,,,,,,,,,,,,,,,,,,,,,,,,,,,,,,,,,,,,,,,,,,,,,,,,,,,,,,,,,,,,,,,,,,,,,,,,,,,,,,,,,,,,,,,,,,,,,,,,,,,,,,,,,,,,,,,,,,,,,,,,,,,,,,,,,,,,,,,,,,,,,,,
0,32,32,10,1,,60eb105221914f6f26a89908,62c5389480569701d2f2d355,2022-07-06_09h24.29.995,Colour_Asymmetry_Pilot,2022.1.3,Win32,60.12867537,62c50e9c1127f2cd403a315f,,,,,,,,,,,,,,,,,,,,,,,,,,,,,,,,,,,,,,,,,,,,,,,,,,,,,,,,,,,,,,,,,,,,,,,,,,,,,,,,,,,,,,,,,,,,,,,,,,,,,,,,,,,,,,,,,,,,,,,,,,,,,,,,,,,,,,,,,,,,,,,,,,,,,,,,,,,,,,,,,,,
0,33,33,1,1,,60eb105221914f6f26a89908,62c5389480569701d2f2d355,2022-07-06_09h24.29.995,Colour_Asymmetry_Pilot,2022.1.3,Win32,60.12867537,62c50e9c1127f2cd403a315f,,,,,,,,,,,,,,,,,,,,,,,,,,,,,,,,,,,,,,,,,,,,,,,,,,,,,,,,,,,,,,,,,,,,,,,,,,,,,,,,,,,,,,,,,,,,,,,,,,,,,,,,,,,,,,,,,,,,,,,,,,,,,,,,,,,,,,,,,,,,,,,,,,,,,,,,,,,,,,,,,,,
0,34,34,4,1,,60eb105221914f6f26a89908,62c5389480569701d2f2d355,2022-07-06_09h24.29.995,Colour_Asymmetry_Pilot,2022.1.3,Win32,60.12867537,62c50e9c1127f2cd403a315f,,,,,,,,,,,,,,,,,,,,,,,,,,,,,,,,,,,,,,,,,,,,,,,,,,,,,,,,,,,,,,,,,,,,,,,,,,,,,,,,,,,,,,,,,,,,,,,,,,,,,,,,,,,,,,,,,,,,,,,,,,,,,,,,,,,,,,,,,,,,,,,,,,,,,,,,,,,,,,,,,,,
0,35,35,49,1,,60eb105221914f6f26a89908,62c5389480569701d2f2d355,2022-07-06_09h24.29.995,Colour_Asymmetry_Pilot,2022.1.3,Win32,60.12867537,62c50e9c1127f2cd403a315f,,,,,,,,,,,,,,,,,,,,,,,,,,,,,,,,,,,,,,,,,,,,,,,,,,,,,,,,,,,,,,,,,,,,,,,,,,,,,,,,,,,,,,,,,,,,,,,,,,,,,,,,,,,,,,,,,,,,,,,,,,,,,,,,,,,,,,,,,,,,,,,,,,,,,,,,,,,,,,,,,,,
0,36,36,73,1,,60eb105221914f6f26a89908,62c5389480569701d2f2d355,2022-07-06_09h24.29.995,Colour_Asymmetry_Pilot,2022.1.3,Win32,60.12867537,62c50e9c1127f2cd403a315f,,,,,,,,,,,,,,,,,,,,,,,,,,,,,,,,,,,,,,,,,,,,,,,,,,,,,,,,,,,,,,,,,,,,,,,,,,,,,,,,,,,,,,,,,,,,,,,,,,,,,,,,,,,,,,,,,,,,,,,,,,,,,,,,,,,,,,,,,,,,,,,,,,,,,,,,,,,,,,,,,,,
0,37,37,80,1,,60eb105221914f6f26a89908,62c5389480569701d2f2d355,2022-07-06_09h24.29.995,Colour_Asymmetry_Pilot,2022.1.3,Win32,60.12867537,62c50e9c1127f2cd403a315f,,,,,,,,,,,,,,,,,,,,,,,,,,,,,,,,,,,,,,,,,,,,,,,,,,,,,,,,,,,,,,,,,,,,,,,,,,,,,,,,,,,,,,,,,,,,,,,,,,,,,,,,,,,,,,,,,,,,,,,,,,,,,,,,,,,,,,,,,,,,,,,,,,,,,,,,,,,,,,,,,,,
0,38,38,65,1,,60eb105221914f6f26a89908,62c5389480569701d2f2d355,2022-07-06_09h24.29.995,Colour_Asymmetry_Pilot,2022.1.3,Win32,60.12867537,62c50e9c1127f2cd403a315f,,,,,,,,,,,,,,,,,,,,,,,,,,,,,,,,,,,,,,,,,,,,,,,,,,,,,,,,,,,,,,,,,,,,,,,,,,,,,,,,,,,,,,,,,,,,,,,,,,,,,,,,,,,,,,,,,,,,,,,,,,,,,,,,,,,,,,,,,,,,,,,,,,,,,,,,,,,,,,,,,,,
0,39,39,40,1,,60eb105221914f6f26a89908,62c5389480569701d2f2d355,2022-07-06_09h24.29.995,Colour_Asymmetry_Pilot,2022.1.3,Win32,60.12867537,62c50e9c1127f2cd403a315f,,,,,,,,,,,,,,,,,,,,,,,,,,,,,,,,,,,,,,,,,,,,,,,,,,,,,,,,,,,,,,,,,,,,,,,,,,,,,,,,,,,,,,,,,,,,,,,,,,,,,,,,,,,,,,,,,,,,,,,,,,,,,,,,,,,,,,,,,,,,,,,,,,,,,,,,,,,,,,,,,,,
0,40,40,50,1,,60eb105221914f6f26a89908,62c5389480569701d2f2d355,2022-07-06_09h24.29.995,Colour_Asymmetry_Pilot,2022.1.3,Win32,60.12867537,62c50e9c1127f2cd403a315f,,,,,,,,,,,,,,,,,,,,,,,,,,,,,,,,,,,,,,,,,,,,,,,,,,,,,,,,,,,,,,,,,,,,,,,,,,,,,,,,,,,,,,,,,,,,,,,,,,,,,,,,,,,,,,,,,,,,,,,,,,,,,,,,,,,,,,,,,,,,,,,,,,,,,,,,,,,,,,,,,,,
0,41,41,5,1,,60eb105221914f6f26a89908,62c5389480569701d2f2d355,2022-07-06_09h24.29.995,Colour_Asymmetry_Pilot,2022.1.3,Win32,60.12867537,62c50e9c1127f2cd403a315f,,,,,,,,,,,,,,,,,,,,,,,,,,,,,,,,,,,,,,,,,,,,,,,,,,,,,,,,,,,,,,,,,,,,,,,,,,,,,,,,,,,,,,,,,,,,,,,,,,,,,,,,,,,,,,,,,,,,,,,,,,,,,,,,,,,,,,,,,,,,,,,,,,,,,,,,,,,,,,,,,,,
0,42,42,60,1,,60eb105221914f6f26a89908,62c5389480569701d2f2d355,2022-07-06_09h24.29.995,Colour_Asymmetry_Pilot,2022.1.3,Win32,60.12867537,62c50e9c1127f2cd403a315f,,,,,,,,,,,,,,,,,,,,,,,,,,,,,,,,,,,,,,,,,,,,,,,,,,,,,,,,,,,,,,,,,,,,,,,,,,,,,,,,,,,,,,,,,,,,,,,,,,,,,,,,,,,,,,,,,,,,,,,,,,,,,,,,,,,,,,,,,,,,,,,,,,,,,,,,,,,,,,,,,,,
0,43,43,70,1,,60eb105221914f6f26a89908,62c5389480569701d2f2d355,2022-07-06_09h24.29.995,Colour_Asymmetry_Pilot,2022.1.3,Win32,60.12867537,62c50e9c1127f2cd403a315f,,,,,,,,,,,,,,,,,,,,,,,,,,,,,,,,,,,,,,,,,,,,,,,,,,,,,,,,,,,,,,,,,,,,,,,,,,,,,,,,,,,,,,,,,,,,,,,,,,,,,,,,,,,,,,,,,,,,,,,,,,,,,,,,,,,,,,,,,,,,,,,,,,,,,,,,,,,,,,,,,,,
0,44,44,85,1,,60eb105221914f6f26a89908,62c5389480569701d2f2d355,2022-07-06_09h24.29.995,Colour_Asymmetry_Pilot,2022.1.3,Win32,60.12867537,62c50e9c1127f2cd403a315f,,,,,,,,,,,,,,,,,,,,,,,,,,,,,,,,,,,,,,,,,,,,,,,,,,,,,,,,,,,,,,,,,,,,,,,,,,,,,,,,,,,,,,,,,,,,,,,,,,,,,,,,,,,,,,,,,,,,,,,,,,,,,,,,,,,,,,,,,,,,,,,,,,,,,,,,,,,,,,,,,,,
0,45,45,55,1,,60eb105221914f6f26a89908,62c5389480569701d2f2d355,2022-07-06_09h24.29.995,Colour_Asymmetry_Pilot,2022.1.3,Win32,60.12867537,62c50e9c1127f2cd403a315f,,,,,,,,,,,,,,,,,,,,,,,,,,,,,,,,,,,,,,,,,,,,,,,,,,,,,,,,,,,,,,,,,,,,,,,,,,,,,,,,,,,,,,,,,,,,,,,,,,,,,,,,,,,,,,,,,,,,,,,,,,,,,,,,,,,,,,,,,,,,,,,,,,,,,,,,,,,,,,,,,,,
0,46,46,75,1,,60eb105221914f6f26a89908,62c5389480569701d2f2d355,2022-07-06_09h24.29.995,Colour_Asymmetry_Pilot,2022.1.3,Win32,60.12867537,62c50e9c1127f2cd403a315f,,,,,,,,,,,,,,,,,,,,,,,,,,,,,,,,,,,,,,,,,,,,,,,,,,,,,,,,,,,,,,,,,,,,,,,,,,,,,,,,,,,,,,,,,,,,,,,,,,,,,,,,,,,,,,,,,,,,,,,,,,,,,,,,,,,,,,,,,,,,,,,,,,,,,,,,,,,,,,,,,,,
0,47,47,21,1,,60eb105221914f6f26a89908,62c5389480569701d2f2d355,2022-07-06_09h24.29.995,Colour_Asymmetry_Pilot,2022.1.3,Win32,60.12867537,62c50e9c1127f2cd403a315f,,,,,,,,,,,,,,,,,,,,,,,,,,,,,,,,,,,,,,,,,,,,,,,,,,,,,,,,,,,,,,,,,,,,,,,,,,,,,,,,,,,,,,,,,,,,,,,,,,,,,,,,,,,,,,,,,,,,,,,,,,,,,,,,,,,,,,,,,,,,,,,,,,,,,,,,,,,,,,,,,,,
0,48,48,51,1,,60eb105221914f6f26a89908,62c5389480569701d2f2d355,2022-07-06_09h24.29.995,Colour_Asymmetry_Pilot,2022.1.3,Win32,60.12867537,62c50e9c1127f2cd403a315f,,,,,,,,,,,,,,,,,,,,,,,,,,,,,,,,,,,,,,,,,,,,,,,,,,,,,,,,,,,,,,,,,,,,,,,,,,,,,,,,,,,,,,,,,,,,,,,,,,,,,,,,,,,,,,,,,,,,,,,,,,,,,,,,,,,,,,,,,,,,,,,,,,,,,,,,,,,,,,,,,,,
0,49,49,47,1,,60eb105221914f6f26a89908,62c5389480569701d2f2d355,2022-07-06_09h24.29.995,Colour_Asymmetry_Pilot,2022.1.3,Win32,60.12867537,62c50e9c1127f2cd403a315f,,,,,,,,,,,,,,,,,,,,,,,,,,,,,,,,,,,,,,,,,,,,,,,,,,,,,,,,,,,,,,,,,,,,,,,,,,,,,,,,,,,,,,,,,,,,,,,,,,,,,,,,,,,,,,,,,,,,,,,,,,,,,,,,,,,,,,,,,,,,,,,,,,,,,,,,,,,,,,,,,,,
0,50,50,71,1,,60eb105221914f6f26a89908,62c5389480569701d2f2d355,2022-07-06_09h24.29.995,Colour_Asymmetry_Pilot,2022.1.3,Win32,60.12867537,62c50e9c1127f2cd403a315f,,,,,,,,,,,,,,,,,,,,,,,,,,,,,,,,,,,,,,,,,,,,,,,,,,,,,,,,,,,,,,,,,,,,,,,,,,,,,,,,,,,,,,,,,,,,,,,,,,,,,,,,,,,,,,,,,,,,,,,,,,,,,,,,,,,,,,,,,,,,,,,,,,,,,,,,,,,,,,,,,,,
0,51,51,89,1,,60eb105221914f6f26a89908,62c5389480569701d2f2d355,2022-07-06_09h24.29.995,Colour_Asymmetry_Pilot,2022.1.3,Win32,60.12867537,62c50e9c1127f2cd403a315f,,,,,,,,,,,,,,,,,,,,,,,,,,,,,,,,,,,,,,,,,,,,,,,,,,,,,,,,,,,,,,,,,,,,,,,,,,,,,,,,,,,,,,,,,,,,,,,,,,,,,,,,,,,,,,,,,,,,,,,,,,,,,,,,,,,,,,,,,,,,,,,,,,,,,,,,,,,,,,,,,,,
0,52,52,23,1,,60eb105221914f6f26a89908,62c5389480569701d2f2d355,2022-07-06_09h24.29.995,Colour_Asymmetry_Pilot,2022.1.3,Win32,60.12867537,62c50e9c1127f2cd403a315f,,,,,,,,,,,,,,,,,,,,,,,,,,,,,,,,,,,,,,,,,,,,,,,,,,,,,,,,,,,,,,,,,,,,,,,,,,,,,,,,,,,,,,,,,,,,,,,,,,,,,,,,,,,,,,,,,,,,,,,,,,,,,,,,,,,,,,,,,,,,,,,,,,,,,,,,,,,,,,,,,,,
0,53,53,81,1,,60eb105221914f6f26a89908,62c5389480569701d2f2d355,2022-07-06_09h24.29.995,Colour_Asymmetry_Pilot,2022.1.3,Win32,60.12867537,62c50e9c1127f2cd403a315f,,,,,,,,,,,,,,,,,,,,,,,,,,,,,,,,,,,,,,,,,,,,,,,,,,,,,,,,,,,,,,,,,,,,,,,,,,,,,,,,,,,,,,,,,,,,,,,,,,,,,,,,,,,,,,,,,,,,,,,,,,,,,,,,,,,,,,,,,,,,,,,,,,,,,,,,,,,,,,,,,,,
0,54,54,82,1,,60eb105221914f6f26a89908,62c5389480569701d2f2d355,2022-07-06_09h24.29.995,Colour_Asymmetry_Pilot,2022.1.3,Win32,60.12867537,62c50e9c1127f2cd403a315f,,,,,,,,,,,,,,,,,,,,,,,,,,,,,,,,,,,,,,,,,,,,,,,,,,,,,,,,,,,,,,,,,,,,,,,,,,,,,,,,,,,,,,,,,,,,,,,,,,,,,,,,,,,,,,,,,,,,,,,,,,,,,,,,,,,,,,,,,,,,,,,,,,,,,,,,,,,,,,,,,,,
0,55,55,16,1,,60eb105221914f6f26a89908,62c5389480569701d2f2d355,2022-07-06_09h24.29.995,Colour_Asymmetry_Pilot,2022.1.3,Win32,60.12867537,62c50e9c1127f2cd403a315f,,,,,,,,,,,,,,,,,,,,,,,,,,,,,,,,,,,,,,,,,,,,,,,,,,,,,,,,,,,,,,,,,,,,,,,,,,,,,,,,,,,,,,,,,,,,,,,,,,,,,,,,,,,,,,,,,,,,,,,,,,,,,,,,,,,,,,,,,,,,,,,,,,,,,,,,,,,,,,,,,,,
0,56,56,13,1,,60eb105221914f6f26a89908,62c5389480569701d2f2d355,2022-07-06_09h24.29.995,Colour_Asymmetry_Pilot,2022.1.3,Win32,60.12867537,62c50e9c1127f2cd403a315f,,,,,,,,,,,,,,,,,,,,,,,,,,,,,,,,,,,,,,,,,,,,,,,,,,,,,,,,,,,,,,,,,,,,,,,,,,,,,,,,,,,,,,,,,,,,,,,,,,,,,,,,,,,,,,,,,,,,,,,,,,,,,,,,,,,,,,,,,,,,,,,,,,,,,,,,,,,,,,,,,,,
0,57,57,72,1,,60eb105221914f6f26a89908,62c5389480569701d2f2d355,2022-07-06_09h24.29.995,Colour_Asymmetry_Pilot,2022.1.3,Win32,60.12867537,62c50e9c1127f2cd403a315f,,,,,,,,,,,,,,,,,,,,,,,,,,,,,,,,,,,,,,,,,,,,,,,,,,,,,,,,,,,,,,,,,,,,,,,,,,,,,,,,,,,,,,,,,,,,,,,,,,,,,,,,,,,,,,,,,,,,,,,,,,,,,,,,,,,,,,,,,,,,,,,,,,,,,,,,,,,,,,,,,,,
0,58,58,44,1,,60eb105221914f6f26a89908,62c5389480569701d2f2d355,2022-07-06_09h24.29.995,Colour_Asymmetry_Pilot,2022.1.3,Win32,60.12867537,62c50e9c1127f2cd403a315f,,,,,,,,,,,,,,,,,,,,,,,,,,,,,,,,,,,,,,,,,,,,,,,,,,,,,,,,,,,,,,,,,,,,,,,,,,,,,,,,,,,,,,,,,,,,,,,,,,,,,,,,,,,,,,,,,,,,,,,,,,,,,,,,,,,,,,,,,,,,,,,,,,,,,,,,,,,,,,,,,,,
0,59,59,42,1,,60eb105221914f6f26a89908,62c5389480569701d2f2d355,2022-07-06_09h24.29.995,Colour_Asymmetry_Pilot,2022.1.3,Win32,60.12867537,62c50e9c1127f2cd403a315f,,,,,,,,,,,,,,,,,,,,,,,,,,,,,,,,,,,,,,,,,,,,,,,,,,,,,,,,,,,,,,,,,,,,,,,,,,,,,,,,,,,,,,,,,,,,,,,,,,,,,,,,,,,,,,,,,,,,,,,,,,,,,,,,,,,,,,,,,,,,,,,,,,,,,,,,,,,,,,,,,,,
0,60,60,54,1,,60eb105221914f6f26a89908,62c5389480569701d2f2d355,2022-07-06_09h24.29.995,Colour_Asymmetry_Pilot,2022.1.3,Win32,60.12867537,62c50e9c1127f2cd403a315f,,,,,,,,,,,,,,,,,,,,,,,,,,,,,,,,,,,,,,,,,,,,,,,,,,,,,,,,,,,,,,,,,,,,,,,,,,,,,,,,,,,,,,,,,,,,,,,,,,,,,,,,,,,,,,,,,,,,,,,,,,,,,,,,,,,,,,,,,,,,,,,,,,,,,,,,,,,,,,,,,,,
0,61,61,20,1,,60eb105221914f6f26a89908,62c5389480569701d2f2d355,2022-07-06_09h24.29.995,Colour_Asymmetry_Pilot,2022.1.3,Win32,60.12867537,62c50e9c1127f2cd403a315f,,,,,,,,,,,,,,,,,,,,,,,,,,,,,,,,,,,,,,,,,,,,,,,,,,,,,,,,,,,,,,,,,,,,,,,,,,,,,,,,,,,,,,,,,,,,,,,,,,,,,,,,,,,,,,,,,,,,,,,,,,,,,,,,,,,,,,,,,,,,,,,,,,,,,,,,,,,,,,,,,,,
0,62,62,74,1,,60eb105221914f6f26a89908,62c5389480569701d2f2d355,2022-07-06_09h24.29.995,Colour_Asymmetry_Pilot,2022.1.3,Win32,60.12867537,62c50e9c1127f2cd403a315f,,,,,,,,,,,,,,,,,,,,,,,,,,,,,,,,,,,,,,,,,,,,,,,,,,,,,,,,,,,,,,,,,,,,,,,,,,,,,,,,,,,,,,,,,,,,,,,,,,,,,,,,,,,,,,,,,,,,,,,,,,,,,,,,,,,,,,,,,,,,,,,,,,,,,,,,,,,,,,,,,,,
0,63,63,77,1,,60eb105221914f6f26a89908,62c5389480569701d2f2d355,2022-07-06_09h24.29.995,Colour_Asymmetry_Pilot,2022.1.3,Win32,60.12867537,62c50e9c1127f2cd403a315f,,,,,,,,,,,,,,,,,,,,,,,,,,,,,,,,,,,,,,,,,,,,,,,,,,,,,,,,,,,,,,,,,,,,,,,,,,,,,,,,,,,,,,,,,,,,,,,,,,,,,,,,,,,,,,,,,,,,,,,,,,,,,,,,,,,,,,,,,,,,,,,,,,,,,,,,,,,,,,,,,,,
0,64,64,24,1,,60eb105221914f6f26a89908,62c5389480569701d2f2d355,2022-07-06_09h24.29.995,Colour_Asymmetry_Pilot,2022.1.3,Win32,60.12867537,62c50e9c1127f2cd403a315f,,,,,,,,,,,,,,,,,,,,,,,,,,,,,,,,,,,,,,,,,,,,,,,,,,,,,,,,,,,,,,,,,,,,,,,,,,,,,,,,,,,,,,,,,,,,,,,,,,,,,,,,,,,,,,,,,,,,,,,,,,,,,,,,,,,,,,,,,,,,,,,,,,,,,,,,,,,,,,,,,,,
0,65,65,57,1,,60eb105221914f6f26a89908,62c5389480569701d2f2d355,2022-07-06_09h24.29.995,Colour_Asymmetry_Pilot,2022.1.3,Win32,60.12867537,62c50e9c1127f2cd403a315f,,,,,,,,,,,,,,,,,,,,,,,,,,,,,,,,,,,,,,,,,,,,,,,,,,,,,,,,,,,,,,,,,,,,,,,,,,,,,,,,,,,,,,,,,,,,,,,,,,,,,,,,,,,,,,,,,,,,,,,,,,,,,,,,,,,,,,,,,,,,,,,,,,,,,,,,,,,,,,,,,,,
0,66,66,35,1,,60eb105221914f6f26a89908,62c5389480569701d2f2d355,2022-07-06_09h24.29.995,Colour_Asymmetry_Pilot,2022.1.3,Win32,60.12867537,62c50e9c1127f2cd403a315f,,,,,,,,,,,,,,,,,,,,,,,,,,,,,,,,,,,,,,,,,,,,,,,,,,,,,,,,,,,,,,,,,,,,,,,,,,,,,,,,,,,,,,,,,,,,,,,,,,,,,,,,,,,,,,,,,,,,,,,,,,,,,,,,,,,,,,,,,,,,,,,,,,,,,,,,,,,,,,,,,,,
0,67,67,31,1,,60eb105221914f6f26a89908,62c5389480569701d2f2d355,2022-07-06_09h24.29.995,Colour_Asymmetry_Pilot,2022.1.3,Win32,60.12867537,62c50e9c1127f2cd403a315f,,,,,,,,,,,,,,,,,,,,,,,,,,,,,,,,,,,,,,,,,,,,,,,,,,,,,,,,,,,,,,,,,,,,,,,,,,,,,,,,,,,,,,,,,,,,,,,,,,,,,,,,,,,,,,,,,,,,,,,,,,,,,,,,,,,,,,,,,,,,,,,,,,,,,,,,,,,,,,,,,,,
0,68,68,27,1,,60eb105221914f6f26a89908,62c5389480569701d2f2d355,2022-07-06_09h24.29.995,Colour_Asymmetry_Pilot,2022.1.3,Win32,60.12867537,62c50e9c1127f2cd403a315f,,,,,,,,,,,,,,,,,,,,,,,,,,,,,,,,,,,,,,,,,,,,,,,,,,,,,,,,,,,,,,,,,,,,,,,,,,,,,,,,,,,,,,,,,,,,,,,,,,,,,,,,,,,,,,,,,,,,,,,,,,,,,,,,,,,,,,,,,,,,,,,,,,,,,,,,,,,,,,,,,,,
0,69,69,79,1,,60eb105221914f6f26a89908,62c5389480569701d2f2d355,2022-07-06_09h24.29.995,Colour_Asymmetry_Pilot,2022.1.3,Win32,60.12867537,62c50e9c1127f2cd403a315f,,,,,,,,,,,,,,,,,,,,,,,,,,,,,,,,,,,,,,,,,,,,,,,,,,,,,,,,,,,,,,,,,,,,,,,,,,,,,,,,,,,,,,,,,,,,,,,,,,,,,,,,,,,,,,,,,,,,,,,,,,,,,,,,,,,,,,,,,,,,,,,,,,,,,,,,,,,,,,,,,,,
0,70,70,91,1,,60eb105221914f6f26a89908,62c5389480569701d2f2d355,2022-07-06_09h24.29.995,Colour_Asymmetry_Pilot,2022.1.3,Win32,60.12867537,62c50e9c1127f2cd403a315f,,,,,,,,,,,,,,,,,,,,,,,,,,,,,,,,,,,,,,,,,,,,,,,,,,,,,,,,,,,,,,,,,,,,,,,,,,,,,,,,,,,,,,,,,,,,,,,,,,,,,,,,,,,,,,,,,,,,,,,,,,,,,,,,,,,,,,,,,,,,,,,,,,,,,,,,,,,,,,,,,,,
0,71,71,18,1,,60eb105221914f6f26a89908,62c5389480569701d2f2d355,2022-07-06_09h24.29.995,Colour_Asymmetry_Pilot,2022.1.3,Win32,60.12867537,62c50e9c1127f2cd403a315f,,,,,,,,,,,,,,,,,,,,,,,,,,,,,,,,,,,,,,,,,,,,,,,,,,,,,,,,,,,,,,,,,,,,,,,,,,,,,,,,,,,,,,,,,,,,,,,,,,,,,,,,,,,,,,,,,,,,,,,,,,,,,,,,,,,,,,,,,,,,,,,,,,,,,,,,,,,,,,,,,,,
0,72,72,8,1,,60eb105221914f6f26a89908,62c5389480569701d2f2d355,2022-07-06_09h24.29.995,Colour_Asymmetry_Pilot,2022.1.3,Win32,60.12867537,62c50e9c1127f2cd403a315f,,,,,,,,,,,,,,,,,,,,,,,,,,,,,,,,,,,,,,,,,,,,,,,,,,,,,,,,,,,,,,,,,,,,,,,,,,,,,,,,,,,,,,,,,,,,,,,,,,,,,,,,,,,,,,,,,,,,,,,,,,,,,,,,,,,,,,,,,,,,,,,,,,,,,,,,,,,,,,,,,,,
0,73,73,29,1,,60eb105221914f6f26a89908,62c5389480569701d2f2d355,2022-07-06_09h24.29.995,Colour_Asymmetry_Pilot,2022.1.3,Win32,60.12867537,62c50e9c1127f2cd403a315f,,,,,,,,,,,,,,,,,,,,,,,,,,,,,,,,,,,,,,,,,,,,,,,,,,,,,,,,,,,,,,,,,,,,,,,,,,,,,,,,,,,,,,,,,,,,,,,,,,,,,,,,,,,,,,,,,,,,,,,,,,,,,,,,,,,,,,,,,,,,,,,,,,,,,,,,,,,,,,,,,,,
0,74,74,15,1,,60eb105221914f6f26a89908,62c5389480569701d2f2d355,2022-07-06_09h24.29.995,Colour_Asymmetry_Pilot,2022.1.3,Win32,60.12867537,62c50e9c1127f2cd403a315f,,,,,,,,,,,,,,,,,,,,,,,,,,,,,,,,,,,,,,,,,,,,,,,,,,,,,,,,,,,,,,,,,,,,,,,,,,,,,,,,,,,,,,,,,,,,,,,,,,,,,,,,,,,,,,,,,,,,,,,,,,,,,,,,,,,,,,,,,,,,,,,,,,,,,,,,,,,,,,,,,,,
0,75,75,67,1,,60eb105221914f6f26a89908,62c5389480569701d2f2d355,2022-07-06_09h24.29.995,Colour_Asymmetry_Pilot,2022.1.3,Win32,60.12867537,62c50e9c1127f2cd403a315f,,,,,,,,,,,,,,,,,,,,,,,,,,,,,,,,,,,,,,,,,,,,,,,,,,,,,,,,,,,,,,,,,,,,,,,,,,,,,,,,,,,,,,,,,,,,,,,,,,,,,,,,,,,,,,,,,,,,,,,,,,,,,,,,,,,,,,,,,,,,,,,,,,,,,,,,,,,,,,,,,,,
0,76,76,48,1,,60eb105221914f6f26a89908,62c5389480569701d2f2d355,2022-07-06_09h24.29.995,Colour_Asymmetry_Pilot,2022.1.3,Win32,60.12867537,62c50e9c1127f2cd403a315f,,,,,,,,,,,,,,,,,,,,,,,,,,,,,,,,,,,,,,,,,,,,,,,,,,,,,,,,,,,,,,,,,,,,,,,,,,,,,,,,,,,,,,,,,,,,,,,,,,,,,,,,,,,,,,,,,,,,,,,,,,,,,,,,,,,,,,,,,,,,,,,,,,,,,,,,,,,,,,,,,,,
0,77,77,26,1,,60eb105221914f6f26a89908,62c5389480569701d2f2d355,2022-07-06_09h24.29.995,Colour_Asymmetry_Pilot,2022.1.3,Win32,60.12867537,62c50e9c1127f2cd403a315f,,,,,,,,,,,,,,,,,,,,,,,,,,,,,,,,,,,,,,,,,,,,,,,,,,,,,,,,,,,,,,,,,,,,,,,,,,,,,,,,,,,,,,,,,,,,,,,,,,,,,,,,,,,,,,,,,,,,,,,,,,,,,,,,,,,,,,,,,,,,,,,,,,,,,,,,,,,,,,,,,,,
0,78,78,61,1,,60eb105221914f6f26a89908,62c5389480569701d2f2d355,2022-07-06_09h24.29.995,Colour_Asymmetry_Pilot,2022.1.3,Win32,60.12867537,62c50e9c1127f2cd403a315f,,,,,,,,,,,,,,,,,,,,,,,,,,,,,,,,,,,,,,,,,,,,,,,,,,,,,,,,,,,,,,,,,,,,,,,,,,,,,,,,,,,,,,,,,,,,,,,,,,,,,,,,,,,,,,,,,,,,,,,,,,,,,,,,,,,,,,,,,,,,,,,,,,,,,,,,,,,,,,,,,,,
0,79,79,87,1,,60eb105221914f6f26a89908,62c5389480569701d2f2d355,2022-07-06_09h24.29.995,Colour_Asymmetry_Pilot,2022.1.3,Win32,60.12867537,62c50e9c1127f2cd403a315f,,,,,,,,,,,,,,,,,,,,,,,,,,,,,,,,,,,,,,,,,,,,,,,,,,,,,,,,,,,,,,,,,,,,,,,,,,,,,,,,,,,,,,,,,,,,,,,,,,,,,,,,,,,,,,,,,,,,,,,,,,,,,,,,,,,,,,,,,,,,,,,,,,,,,,,,,,,,,,,,,,,
0,80,80,38,1,,60eb105221914f6f26a89908,62c5389480569701d2f2d355,2022-07-06_09h24.29.995,Colour_Asymmetry_Pilot,2022.1.3,Win32,60.12867537,62c50e9c1127f2cd403a315f,,,,,,,,,,,,,,,,,,,,,,,,,,,,,,,,,,,,,,,,,,,,,,,,,,,,,,,,,,,,,,,,,,,,,,,,,,,,,,,,,,,,,,,,,,,,,,,,,,,,,,,,,,,,,,,,,,,,,,,,,,,,,,,,,,,,,,,,,,,,,,,,,,,,,,,,,,,,,,,,,,,
0,81,81,84,1,,60eb105221914f6f26a89908,62c5389480569701d2f2d355,2022-07-06_09h24.29.995,Colour_Asymmetry_Pilot,2022.1.3,Win32,60.12867537,62c50e9c1127f2cd403a315f,,,,,,,,,,,,,,,,,,,,,,,,,,,,,,,,,,,,,,,,,,,,,,,,,,,,,,,,,,,,,,,,,,,,,,,,,,,,,,,,,,,,,,,,,,,,,,,,,,,,,,,,,,,,,,,,,,,,,,,,,,,,,,,,,,,,,,,,,,,,,,,,,,,,,,,,,,,,,,,,,,,
0,82,82,25,1,,60eb105221914f6f26a89908,62c5389480569701d2f2d355,2022-07-06_09h24.29.995,Colour_Asymmetry_Pilot,2022.1.3,Win32,60.12867537,62c50e9c1127f2cd403a315f,,,,,,,,,,,,,,,,,,,,,,,,,,,,,,,,,,,,,,,,,,,,,,,,,,,,,,,,,,,,,,,,,,,,,,,,,,,,,,,,,,,,,,,,,,,,,,,,,,,,,,,,,,,,,,,,,,,,,,,,,,,,,,,,,,,,,,,,,,,,,,,,,,,,,,,,,,,,,,,,,,,
0,83,83,59,1,,60eb105221914f6f26a89908,62c5389480569701d2f2d355,2022-07-06_09h24.29.995,Colour_Asymmetry_Pilot,2022.1.3,Win32,60.12867537,62c50e9c1127f2cd403a315f,,,,,,,,,,,,,,,,,,,,,,,,,,,,,,,,,,,,,,,,,,,,,,,,,,,,,,,,,,,,,,,,,,,,,,,,,,,,,,,,,,,,,,,,,,,,,,,,,,,,,,,,,,,,,,,,,,,,,,,,,,,,,,,,,,,,,,,,,,,,,,,,,,,,,,,,,,,,,,,,,,,
0,84,84,83,1,,60eb105221914f6f26a89908,62c5389480569701d2f2d355,2022-07-06_09h24.29.995,Colour_Asymmetry_Pilot,2022.1.3,Win32,60.12867537,62c50e9c1127f2cd403a315f,,,,,,,,,,,,,,,,,,,,,,,,,,,,,,,,,,,,,,,,,,,,,,,,,,,,,,,,,,,,,,,,,,,,,,,,,,,,,,,,,,,,,,,,,,,,,,,,,,,,,,,,,,,,,,,,,,,,,,,,,,,,,,,,,,,,,,,,,,,,,,,,,,,,,,,,,,,,,,,,,,,
0,85,85,32,1,,60eb105221914f6f26a89908,62c5389480569701d2f2d355,2022-07-06_09h24.29.995,Colour_Asymmetry_Pilot,2022.1.3,Win32,60.12867537,62c50e9c1127f2cd403a315f,,,,,,,,,,,,,,,,,,,,,,,,,,,,,,,,,,,,,,,,,,,,,,,,,,,,,,,,,,,,,,,,,,,,,,,,,,,,,,,,,,,,,,,,,,,,,,,,,,,,,,,,,,,,,,,,,,,,,,,,,,,,,,,,,,,,,,,,,,,,,,,,,,,,,,,,,,,,,,,,,,,
0,86,86,33,1,,60eb105221914f6f26a89908,62c5389480569701d2f2d355,2022-07-06_09h24.29.995,Colour_Asymmetry_Pilot,2022.1.3,Win32,60.12867537,62c50e9c1127f2cd403a315f,,,,,,,,,,,,,,,,,,,,,,,,,,,,,,,,,,,,,,,,,,,,,,,,,,,,,,,,,,,,,,,,,,,,,,,,,,,,,,,,,,,,,,,,,,,,,,,,,,,,,,,,,,,,,,,,,,,,,,,,,,,,,,,,,,,,,,,,,,,,,,,,,,,,,,,,,,,,,,,,,,,
0,87,87,53,1,,60eb105221914f6f26a89908,62c5389480569701d2f2d355,2022-07-06_09h24.29.995,Colour_Asymmetry_Pilot,2022.1.3,Win32,60.12867537,62c50e9c1127f2cd403a315f,,,,,,,,,,,,,,,,,,,,,,,,,,,,,,,,,,,,,,,,,,,,,,,,,,,,,,,,,,,,,,,,,,,,,,,,,,,,,,,,,,,,,,,,,,,,,,,,,,,,,,,,,,,,,,,,,,,,,,,,,,,,,,,,,,,,,,,,,,,,,,,,,,,,,,,,,,,,,,,,,,,
0,88,88,19,1,,60eb105221914f6f26a89908,62c5389480569701d2f2d355,2022-07-06_09h24.29.995,Colour_Asymmetry_Pilot,2022.1.3,Win32,60.12867537,62c50e9c1127f2cd403a315f,,,,,,,,,,,,,,,,,,,,,,,,,,,,,,,,,,,,,,,,,,,,,,,,,,,,,,,,,,,,,,,,,,,,,,,,,,,,,,,,,,,,,,,,,,,,,,,,,,,,,,,,,,,,,,,,,,,,,,,,,,,,,,,,,,,,,,,,,,,,,,,,,,,,,,,,,,,,,,,,,,,
0,89,89,63,1,,60eb105221914f6f26a89908,62c5389480569701d2f2d355,2022-07-06_09h24.29.995,Colour_Asymmetry_Pilot,2022.1.3,Win32,60.12867537,62c50e9c1127f2cd403a315f,,,,,,,,,,,,,,,,,,,,,,,,,,,,,,,,,,,,,,,,,,,,,,,,,,,,,,,,,,,,,,,,,,,,,,,,,,,,,,,,,,,,,,,,,,,,,,,,,,,,,,,,,,,,,,,,,,,,,,,,,,,,,,,,,,,,,,,,,,,,,,,,,,,,,,,,,,,,,,,,,,,
0,90,90,6,1,,60eb105221914f6f26a89908,62c5389480569701d2f2d355,2022-07-06_09h24.29.995,Colour_Asymmetry_Pilot,2022.1.3,Win32,60.12867537,62c50e9c1127f2cd403a315f,,,,,,,,,,,,,,,,,,,,,,,,,,,,,,,,,,,,,,,,,,,,,,,,,,,,,,,,,,,,,,,,,,,,,,,,,,,,,,,,,,,,,,,,,,,,,,,,,,,,,,,,,,,,,,,,,,,,,,,,,,,,,,,,,,,,,,,,,,,,,,,,,,,,,,,,,,,,,,,,,,,
0,91,91,22,1,,60eb105221914f6f26a89908,62c5389480569701d2f2d355,2022-07-06_09h24.29.995,Colour_Asymmetry_Pilot,2022.1.3,Win32,60.12867537,62c50e9c1127f2cd403a315f,,,,,,,,,,,,,,,,,,,,,,,,,,,,,,,,,,,,,,,,,,,,,,,,,,,,,,,,,,,,,,,,,,,,,,,,,,,,,,,,,,,,,,,,,,,,,,,,,,,,,,,,,,,,,,,,,,,,,,,,,,,,,,,,,,,,,,,,,,,,,,,,,,,,,,,,,,,,,,,,,,,
0,92,92,88,1,,60eb105221914f6f26a89908,62c5389480569701d2f2d355,2022-07-06_09h24.29.995,Colour_Asymmetry_Pilot,2022.1.3,Win32,60.12867537,62c50e9c1127f2cd403a315f,,,,,,,,,,,,,,,,,,,,,,,,,,,,,,,,,,,,,,,,,,,,,,,,,,,,,,,,,,,,,,,,,,,,,,,,,,,,,,,,,,,,,,,,,,,,,,,,,,,,,,,,,,,,,,,,,,,,,,,,,,,,,,,,,,,,,,,,,,,,,,,,,,,,,,,,,,,,,,,,,,,
,,,,,,60eb105221914f6f26a89908,62c5389480569701d2f2d355,2022-07-06_09h24.29.995,Colour_Asymmetry_Pilot,2022.1.3,Win32,60.12867537,62c50e9c1127f2cd403a315f,0,0,0,110,1,fourtwo,,,,,,,,,,,,,,,,,,,,,,,,,,,,,,,,,,,,,,,,,,,,,,,,,,,,,,,,,,,,,,,,,,,,,,,,,,,,,,,,,,,,,,,,,,,,,,,,,,,,,,,,,,,,,,,,,,,,,,,,,,,,,,,,,,,,,,,,,,,,,,,,,,,,,,,,,,,,,
,,,,,,60eb105221914f6f26a89908,62c5389480569701d2f2d355,2022-07-06_09h24.29.995,Colour_Asymmetry_Pilot,2022.1.3,Win32,60.12867537,62c50e9c1127f2cd403a315f,0,1,1,148,1,threeone,,,,,,,,,,,,,,,,,,,,,,,,,,,,,,,,,,,,,,,,,,,,,,,,,,,,,,,,,,,,,,,,,,,,,,,,,,,,,,,,,,,,,,,,,,,,,,,,,,,,,,,,,,,,,,,,,,,,,,,,,,,,,,,,,,,,,,,,,,,,,,,,,,,,,,,,,,,,,
,,,,,,60eb105221914f6f26a89908,62c5389480569701d2f2d355,2022-07-06_09h24.29.995,Colour_Asymmetry_Pilot,2022.1.3,Win32,60.12867537,62c50e9c1127f2cd403a315f,0,2,2,27,1,twofour,,,,,,,,,,,,,,,,,,,,,,,,,,,,,,,,,,,,,,,,,,,,,,,,,,,,,,,,,,,,,,,,,,,,,,,,,,,,,,,,,,,,,,,,,,,,,,,,,,,,,,,,,,,,,,,,,,,,,,,,,,,,,,,,,,,,,,,,,,,,,,,,,,,,,,,,,,,,,
,,,,,,60eb105221914f6f26a89908,62c5389480569701d2f2d355,2022-07-06_09h24.29.995,Colour_Asymmetry_Pilot,2022.1.3,Win32,60.12867537,62c50e9c1127f2cd403a315f,0,3,3,40,1,onetwo,,,,,,,,,,,,,,,,,,,,,,,,,,,,,,,,,,,,,,,,,,,,,,,,,,,,,,,,,,,,,,,,,,,,,,,,,,,,,,,,,,,,,,,,,,,,,,,,,,,,,,,,,,,,,,,,,,,,,,,,,,,,,,,,,,,,,,,,,,,,,,,,,,,,,,,,,,,,,
,,,,,,60eb105221914f6f26a89908,62c5389480569701d2f2d355,2022-07-06_09h24.29.995,Colour_Asymmetry_Pilot,2022.1.3,Win32,60.12867537,62c50e9c1127f2cd403a315f,0,4,4,154,1,twoone,,,,,,,,,,,,,,,,,,,,,,,,,,,,,,,,,,,,,,,,,,,,,,,,,,,,,,,,,,,,,,,,,,,,,,,,,,,,,,,,,,,,,,,,,,,,,,,,,,,,,,,,,,,,,,,,,,,,,,,,,,,,,,,,,,,,,,,,,,,,,,,,,,,,,,,,,,,,,
,,,,,,60eb105221914f6f26a89908,62c5389480569701d2f2d355,2022-07-06_09h24.29.995,Colour_Asymmetry_Pilot,2022.1.3,Win32,60.12867537,62c50e9c1127f2cd403a315f,0,5,5,142,1,fourtwo,,,,,,,,,,,,,,,,,,,,,,,,,,,,,,,,,,,,,,,,,,,,,,,,,,,,,,,,,,,,,,,,,,,,,,,,,,,,,,,,,,,,,,,,,,,,,,,,,,,,,,,,,,,,,,,,,,,,,,,,,,,,,,,,,,,,,,,,,,,,,,,,,,,,,,,,,,,,,
,,,,,,60eb105221914f6f26a89908,62c5389480569701d2f2d355,2022-07-06_09h24.29.995,Colour_Asymmetry_Pilot,2022.1.3,Win32,60.12867537,62c50e9c1127f2cd403a315f,0,6,6,78,1,fourtwo,,,,,,,,,,,,,,,,,,,,,,,,,,,,,,,,,,,,,,,,,,,,,,,,,,,,,,,,,,,,,,,,,,,,,,,,,,,,,,,,,,,,,,,,,,,,,,,,,,,,,,,,,,,,,,,,,,,,,,,,,,,,,,,,,,,,,,,,,,,,,,,,,,,,,,,,,,,,,
,,,,,,60eb105221914f6f26a89908,62c5389480569701d2f2d355,2022-07-06_09h24.29.995,Colour_Asymmetry_Pilot,2022.1.3,Win32,60.12867537,62c50e9c1127f2cd403a315f,0,7,7,85,1,threefour,,,,,,,,,,,,,,,,,,,,,,,,,,,,,,,,,,,,,,,,,,,,,,,,,,,,,,,,,,,,,,,,,,,,,,,,,,,,,,,,,,,,,,,,,,,,,,,,,,,,,,,,,,,,,,,,,,,,,,,,,,,,,,,,,,,,,,,,,,,,,,,,,,,,,,,,,,,,,
,,,,,,60eb105221914f6f26a89908,62c5389480569701d2f2d355,2022-07-06_09h24.29.995,Colour_Asymmetry_Pilot,2022.1.3,Win32,60.12867537,62c50e9c1127f2cd403a315f,0,8,8,7,1,fourthree,,,,,,,,,,,,,,,,,,,,,,,,,,,,,,,,,,,,,,,,,,,,,,,,,,,,,,,,,,,,,,,,,,,,,,,,,,,,,,,,,,,,,,,,,,,,,,,,,,,,,,,,,,,,,,,,,,,,,,,,,,,,,,,,,,,,,,,,,,,,,,,,,,,,,,,,,,,,,
,,,,,,60eb105221914f6f26a89908,62c5389480569701d2f2d355,2022-07-06_09h24.29.995,Colour_Asymmetry_Pilot,2022.1.3,Win32,60.12867537,62c50e9c1127f2cd403a315f,0,9,9,50,1,twoone,,,,,,,,,,,,,,,,,,,,,,,,,,,,,,,,,,,,,,,,,,,,,,,,,,,,,,,,,,,,,,,,,,,,,,,,,,,,,,,,,,,,,,,,,,,,,,,,,,,,,,,,,,,,,,,,,,,,,,,,,,,,,,,,,,,,,,,,,,,,,,,,,,,,,,,,,,,,,
,,,,,,60eb105221914f6f26a89908,62c5389480569701d2f2d355,2022-07-06_09h24.29.995,Colour_Asymmetry_Pilot,2022.1.3,Win32,60.12867537,62c50e9c1127f2cd403a315f,0,10,10,83,1,twofour,,,,,,,,,,,,,,,,,,,,,,,,,,,,,,,,,,,,,,,,,,,,,,,,,,,,,,,,,,,,,,,,,,,,,,,,,,,,,,,,,,,,,,,,,,,,,,,,,,,,,,,,,,,,,,,,,,,,,,,,,,,,,,,,,,,,,,,,,,,,,,,,,,,,,,,,,,,,,
,,,,,,60eb105221914f6f26a89908,62c5389480569701d2f2d355,2022-07-06_09h24.29.995,Colour_Asymmetry_Pilot,2022.1.3,Win32,60.12867537,62c50e9c1127f2cd403a315f,0,11,11,113,1,onethree,,,,,,,,,,,,,,,,,,,,,,,,,,,,,,,,,,,,,,,,,,,,,,,,,,,,,,,,,,,,,,,,,,,,,,,,,,,,,,,,,,,,,,,,,,,,,,,,,,,,,,,,,,,,,,,,,,,,,,,,,,,,,,,,,,,,,,,,,,,,,,,,,,,,,,,,,,,,,
,,,,,,60eb105221914f6f26a89908,62c5389480569701d2f2d355,2022-07-06_09h24.29.995,Colour_Asymmetry_Pilot,2022.1.3,Win32,60.12867537,62c50e9c1127f2cd403a315f,0,12,12,25,1,onethree,,,,,,,,,,,,,,,,,,,,,,,,,,,,,,,,,,,,,,,,,,,,,,,,,,,,,,,,,,,,,,,,,,,,,,,,,,,,,,,,,,,,,,,,,,,,,,,,,,,,,,,,,,,,,,,,,,,,,,,,,,,,,,,,,,,,,,,,,,,,,,,,,,,,,,,,,,,,,
,,,,,,60eb105221914f6f26a89908,62c5389480569701d2f2d355,2022-07-06_09h24.29.995,Colour_Asymmetry_Pilot,2022.1.3,Win32,60.12867537,62c50e9c1127f2cd403a315f,0,13,13,133,1,threefour,,,,,,,,,,,,,,,,,,,,,,,,,,,,,,,,,,,,,,,,,,,,,,,,,,,,,,,,,,,,,,,,,,,,,,,,,,,,,,,,,,,,,,,,,,,,,,,,,,,,,,,,,,,,,,,,,,,,,,,,,,,,,,,,,,,,,,,,,,,,,,,,,,,,,,,,,,,,,
,,,,,,60eb105221914f6f26a89908,62c5389480569701d2f2d355,2022-07-06_09h24.29.995,Colour_Asymmetry_Pilot,2022.1.3,Win32,60.12867537,62c50e9c1127f2cd403a315f,0,14,14,102,1,fourtwo,,,,,,,,,,,,,,,,,,,,,,,,,,,,,,,,,,,,,,,,,,,,,,,,,,,,,,,,,,,,,,,,,,,,,,,,,,,,,,,,,,,,,,,,,,,,,,,,,,,,,,,,,,,,,,,,,,,,,,,,,,,,,,,,,,,,,,,,,,,,,,,,,,,,,,,,,,,,,
,,,,,,60eb105221914f6f26a89908,62c5389480569701d2f2d355,2022-07-06_09h24.29.995,Colour_Asymmetry_Pilot,2022.1.3,Win32,60.12867537,62c50e9c1127f2cd403a315f,0,15,15,5,1,threefour,,,,,,,,,,,,,,,,,,,,,,,,,,,,,,,,,,,,,,,,,,,,,,,,,,,,,,,,,,,,,,,,,,,,,,,,,,,,,,,,,,,,,,,,,,,,,,,,,,,,,,,,,,,,,,,,,,,,,,,,,,,,,,,,,,,,,,,,,,,,,,,,,,,,,,,,,,,,,
,,,,,,60eb105221914f6f26a89908,62c5389480569701d2f2d355,2022-07-06_09h24.29.995,Colour_Asymmetry_Pilot,2022.1.3,Win32,60.12867537,62c50e9c1127f2cd403a315f,0,16,16,150,1,fourtwo,,,,,,,,,,,,,,,,,,,,,,,,,,,,,,,,,,,,,,,,,,,,,,,,,,,,,,,,,,,,,,,,,,,,,,,,,,,,,,,,,,,,,,,,,,,,,,,,,,,,,,,,,,,,,,,,,,,,,,,,,,,,,,,,,,,,,,,,,,,,,,,,,,,,,,,,,,,,,
,,,,,,60eb105221914f6f26a89908,62c5389480569701d2f2d355,2022-07-06_09h24.29.995,Colour_Asymmetry_Pilot,2022.1.3,Win32,60.12867537,62c50e9c1127f2cd403a315f,0,17,17,108,1,threeone,,,,,,,,,,,,,,,,,,,,,,,,,,,,,,,,,,,,,,,,,,,,,,,,,,,,,,,,,,,,,,,,,,,,,,,,,,,,,,,,,,,,,,,,,,,,,,,,,,,,,,,,,,,,,,,,,,,,,,,,,,,,,,,,,,,,,,,,,,,,,,,,,,,,,,,,,,,,,
,,,,,,60eb105221914f6f26a89908,62c5389480569701d2f2d355,2022-07-06_09h24.29.995,Colour_Asymmetry_Pilot,2022.1.3,Win32,60.12867537,62c50e9c1127f2cd403a315f,0,18,18,32,1,onetwo,,,,,,,,,,,,,,,,,,,,,,,,,,,,,,,,,,,,,,,,,,,,,,,,,,,,,,,,,,,,,,,,,,,,,,,,,,,,,,,,,,,,,,,,,,,,,,,,,,,,,,,,,,,,,,,,,,,,,,,,,,,,,,,,,,,,,,,,,,,,,,,,,,,,,,,,,,,,,
,,,,,,60eb105221914f6f26a89908,62c5389480569701d2f2d355,2022-07-06_09h24.29.995,Colour_Asymmetry_Pilot,2022.1.3,Win32,60.12867537,62c50e9c1127f2cd403a315f,0,19,19,100,1,threeone,,,,,,,,,,,,,,,,,,,,,,,,,,,,,,,,,,,,,,,,,,,,,,,,,,,,,,,,,,,,,,,,,,,,,,,,,,,,,,,,,,,,,,,,,,,,,,,,,,,,,,,,,,,,,,,,,,,,,,,,,,,,,,,,,,,,,,,,,,,,,,,,,,,,,,,,,,,,,
,,,,,,60eb105221914f6f26a89908,62c5389480569701d2f2d355,2022-07-06_09h24.29.995,Colour_Asymmetry_Pilot,2022.1.3,Win32,60.12867537,62c50e9c1127f2cd403a315f,0,20,20,132,1,threeone,,,,,,,,,,,,,,,,,,,,,,,,,,,,,,,,,,,,,,,,,,,,,,,,,,,,,,,,,,,,,,,,,,,,,,,,,,,,,,,,,,,,,,,,,,,,,,,,,,,,,,,,,,,,,,,,,,,,,,,,,,,,,,,,,,,,,,,,,,,,,,,,,,,,,,,,,,,,,
,,,,,,60eb105221914f6f26a89908,62c5389480569701d2f2d355,2022-07-06_09h24.29.995,Colour_Asymmetry_Pilot,2022.1.3,Win32,60.12867537,62c50e9c1127f2cd403a315f,0,21,21,144,1,onetwo,,,,,,,,,,,,,,,,,,,,,,,,,,,,,,,,,,,,,,,,,,,,,,,,,,,,,,,,,,,,,,,,,,,,,,,,,,,,,,,,,,,,,,,,,,,,,,,,,,,,,,,,,,,,,,,,,,,,,,,,,,,,,,,,,,,,,,,,,,,,,,,,,,,,,,,,,,,,,
,,,,,,60eb105221914f6f26a89908,62c5389480569701d2f2d355,2022-07-06_09h24.29.995,Colour_Asymmetry_Pilot,2022.1.3,Win32,60.12867537,62c50e9c1127f2cd403a315f,0,22,22,65,1,onethree,,,,,,,,,,,,,,,,,,,,,,,,,,,,,,,,,,,,,,,,,,,,,,,,,,,,,,,,,,,,,,,,,,,,,,,,,,,,,,,,,,,,,,,,,,,,,,,,,,,,,,,,,,,,,,,,,,,,,,,,,,,,,,,,,,,,,,,,,,,,,,,,,,,,,,,,,,,,,
,,,,,,60eb105221914f6f26a89908,62c5389480569701d2f2d355,2022-07-06_09h24.29.995,Colour_Asymmetry_Pilot,2022.1.3,Win32,60.12867537,62c50e9c1127f2cd403a315f,0,23,23,125,1,threefour,,,,,,,,,,,,,,,,,,,,,,,,,,,,,,,,,,,,,,,,,,,,,,,,,,,,,,,,,,,,,,,,,,,,,,,,,,,,,,,,,,,,,,,,,,,,,,,,,,,,,,,,,,,,,,,,,,,,,,,,,,,,,,,,,,,,,,,,,,,,,,,,,,,,,,,,,,,,,
,,,,,,60eb105221914f6f26a89908,62c5389480569701d2f2d355,2022-07-06_09h24.29.995,Colour_Asymmetry_Pilot,2022.1.3,Win32,60.12867537,62c50e9c1127f2cd403a315f,0,24,24,6,1,fourtwo,,,,,,,,,,,,,,,,,,,,,,,,,,,,,,,,,,,,,,,,,,,,,,,,,,,,,,,,,,,,,,,,,,,,,,,,,,,,,,,,,,,,,,,,,,,,,,,,,,,,,,,,,,,,,,,,,,,,,,,,,,,,,,,,,,,,,,,,,,,,,,,,,,,,,,,,,,,,,
,,,,,,60eb105221914f6f26a89908,62c5389480569701d2f2d355,2022-07-06_09h24.29.995,Colour_Asymmetry_Pilot,2022.1.3,Win32,60.12867537,62c50e9c1127f2cd403a315f,0,25,25,126,1,fourtwo,,,,,,,,,,,,,,,,,,,,,,,,,,,,,,,,,,,,,,,,,,,,,,,,,,,,,,,,,,,,,,,,,,,,,,,,,,,,,,,,,,,,,,,,,,,,,,,,,,,,,,,,,,,,,,,,,,,,,,,,,,,,,,,,,,,,,,,,,,,,,,,,,,,,,,,,,,,,,
,,,,,,60eb105221914f6f26a89908,62c5389480569701d2f2d355,2022-07-06_09h24.29.995,Colour_Asymmetry_Pilot,2022.1.3,Win32,60.12867537,62c50e9c1127f2cd403a315f,0,26,26,67,1,twofour,,,,,,,,,,,,,,,,,,,,,,,,,,,,,,,,,,,,,,,,,,,,,,,,,,,,,,,,,,,,,,,,,,,,,,,,,,,,,,,,,,,,,,,,,,,,,,,,,,,,,,,,,,,,,,,,,,,,,,,,,,,,,,,,,,,,,,,,,,,,,,,,,,,,,,,,,,,,,
,,,,,,60eb105221914f6f26a89908,62c5389480569701d2f2d355,2022-07-06_09h24.29.995,Colour_Asymmetry_Pilot,2022.1.3,Win32,60.12867537,62c50e9c1127f2cd403a315f,0,27,27,90,1,twoone,,,,,,,,,,,,,,,,,,,,,,,,,,,,,,,,,,,,,,,,,,,,,,,,,,,,,,,,,,,,,,,,,,,,,,,,,,,,,,,,,,,,,,,,,,,,,,,,,,,,,,,,,,,,,,,,,,,,,,,,,,,,,,,,,,,,,,,,,,,,,,,,,,,,,,,,,,,,,
,,,,,,60eb105221914f6f26a89908,62c5389480569701d2f2d355,2022-07-06_09h24.29.995,Colour_Asymmetry_Pilot,2022.1.3,Win32,60.12867537,62c50e9c1127f2cd403a315f,0,28,28,59,1,twofour,,,,,,,,,,,,,,,,,,,,,,,,,,,,,,,,,,,,,,,,,,,,,,,,,,,,,,,,,,,,,,,,,,,,,,,,,,,,,,,,,,,,,,,,,,,,,,,,,,,,,,,,,,,,,,,,,,,,,,,,,,,,,,,,,,,,,,,,,,,,,,,,,,,,,,,,,,,,,
,,,,,,60eb105221914f6f26a89908,62c5389480569701d2f2d355,2022-07-06_09h24.29.995,Colour_Asymmetry_Pilot,2022.1.3,Win32,60.12867537,62c50e9c1127f2cd403a315f,0,29,29,35,1,twofour,,,,,,,,,,,,,,,,,,,,,,,,,,,,,,,,,,,,,,,,,,,,,,,,,,,,,,,,,,,,,,,,,,,,,,,,,,,,,,,,,,,,,,,,,,,,,,,,,,,,,,,,,,,,,,,,,,,,,,,,,,,,,,,,,,,,,,,,,,,,,,,,,,,,,,,,,,,,,
,,,,,,60eb105221914f6f26a89908,62c5389480569701d2f2d355,2022-07-06_09h24.29.995,Colour_Asymmetry_Pilot,2022.1.3,Win32,60.12867537,62c50e9c1127f2cd403a315f,0,30,30,157,1,threefour,,,,,,,,,,,,,,,,,,,,,,,,,,,,,,,,,,,,,,,,,,,,,,,,,,,,,,,,,,,,,,,,,,,,,,,,,,,,,,,,,,,,,,,,,,,,,,,,,,,,,,,,,,,,,,,,,,,,,,,,,,,,,,,,,,,,,,,,,,,,,,,,,,,,,,,,,,,,,
,,,,,,60eb105221914f6f26a89908,62c5389480569701d2f2d355,2022-07-06_09h24.29.995,Colour_Asymmetry_Pilot,2022.1.3,Win32,60.12867537,62c50e9c1127f2cd403a315f,0,31,31,122,1,twoone,,,,,,,,,,,,,,,,,,,,,,,,,,,,,,,,,,,,,,,,,,,,,,,,,,,,,,,,,,,,,,,,,,,,,,,,,,,,,,,,,,,,,,,,,,,,,,,,,,,,,,,,,,,,,,,,,,,,,,,,,,,,,,,,,,,,,,,,,,,,,,,,,,,,,,,,,,,,,
,,,,,,60eb105221914f6f26a89908,62c5389480569701d2f2d355,2022-07-06_09h24.29.995,Colour_Asymmetry_Pilot,2022.1.3,Win32,60.12867537,62c50e9c1127f2cd403a315f,0,32,32,70,1,fourtwo,,,,,,,,,,,,,,,,,,,,,,,,,,,,,,,,,,,,,,,,,,,,,,,,,,,,,,,,,,,,,,,,,,,,,,,,,,,,,,,,,,,,,,,,,,,,,,,,,,,,,,,,,,,,,,,,,,,,,,,,,,,,,,,,,,,,,,,,,,,,,,,,,,,,,,,,,,,,,
,,,,,,60eb105221914f6f26a89908,62c5389480569701d2f2d355,2022-07-06_09h24.29.995,Colour_Asymmetry_Pilot,2022.1.3,Win32,60.12867537,62c50e9c1127f2cd403a315f,0,33,33,89,1,onethree,,,,,,,,,,,,,,,,,,,,,,,,,,,,,,,,,,,,,,,,,,,,,,,,,,,,,,,,,,,,,,,,,,,,,,,,,,,,,,,,,,,,,,,,,,,,,,,,,,,,,,,,,,,,,,,,,,,,,,,,,,,,,,,,,,,,,,,,,,,,,,,,,,,,,,,,,,,,,
,,,,,,60eb105221914f6f26a89908,62c5389480569701d2f2d355,2022-07-06_09h24.29.995,Colour_Asymmetry_Pilot,2022.1.3,Win32,60.12867537,62c50e9c1127f2cd403a315f,0,34,34,36,1,threeone,,,,,,,,,,,,,,,,,,,,,,,,,,,,,,,,,,,,,,,,,,,,,,,,,,,,,,,,,,,,,,,,,,,,,,,,,,,,,,,,,,,,,,,,,,,,,,,,,,,,,,,,,,,,,,,,,,,,,,,,,,,,,,,,,,,,,,,,,,,,,,,,,,,,,,,,,,,,,
,,,,,,60eb105221914f6f26a89908,62c5389480569701d2f2d355,2022-07-06_09h24.29.995,Colour_Asymmetry_Pilot,2022.1.3,Win32,60.12867537,62c50e9c1127f2cd403a315f,0,35,35,131,1,twofour,,,,,,,,,,,,,,,,,,,,,,,,,,,,,,,,,,,,,,,,,,,,,,,,,,,,,,,,,,,,,,,,,,,,,,,,,,,,,,,,,,,,,,,,,,,,,,,,,,,,,,,,,,,,,,,,,,,,,,,,,,,,,,,,,,,,,,,,,,,,,,,,,,,,,,,,,,,,,
,,,,,,60eb105221914f6f26a89908,62c5389480569701d2f2d355,2022-07-06_09h24.29.995,Colour_Asymmetry_Pilot,2022.1.3,Win32,60.12867537,62c50e9c1127f2cd403a315f,0,36,36,3,1,twofour,,,,,,,,,,,,,,,,,,,,,,,,,,,,,,,,,,,,,,,,,,,,,,,,,,,,,,,,,,,,,,,,,,,,,,,,,,,,,,,,,,,,,,,,,,,,,,,,,,,,,,,,,,,,,,,,,,,,,,,,,,,,,,,,,,,,,,,,,,,,,,,,,,,,,,,,,,,,,
,,,,,,60eb105221914f6f26a89908,62c5389480569701d2f2d355,2022-07-06_09h24.29.995,Colour_Asymmetry_Pilot,2022.1.3,Win32,60.12867537,62c50e9c1127f2cd403a315f,0,37,37,111,1,fourthree,,,,,,,,,,,,,,,,,,,,,,,,,,,,,,,,,,,,,,,,,,,,,,,,,,,,,,,,,,,,,,,,,,,,,,,,,,,,,,,,,,,,,,,,,,,,,,,,,,,,,,,,,,,,,,,,,,,,,,,,,,,,,,,,,,,,,,,,,,,,,,,,,,,,,,,,,,,,,
,,,,,,60eb105221914f6f26a89908,62c5389480569701d2f2d355,2022-07-06_09h24.29.995,Colour_Asymmetry_Pilot,2022.1.3,Win32,60.12867537,62c50e9c1127f2cd403a315f,0,38,38,52,1,threeone,,,,,,,,,,,,,,,,,,,,,,,,,,,,,,,,,,,,,,,,,,,,,,,,,,,,,,,,,,,,,,,,,,,,,,,,,,,,,,,,,,,,,,,,,,,,,,,,,,,,,,,,,,,,,,,,,,,,,,,,,,,,,,,,,,,,,,,,,,,,,,,,,,,,,,,,,,,,,
,,,,,,60eb105221914f6f26a89908,62c5389480569701d2f2d355,2022-07-06_09h24.29.995,Colour_Asymmetry_Pilot,2022.1.3,Win32,60.12867537,62c50e9c1127f2cd403a315f,0,39,39,8,1,onetwo,,,,,,,,,,,,,,,,,,,,,,,,,,,,,,,,,,,,,,,,,,,,,,,,,,,,,,,,,,,,,,,,,,,,,,,,,,,,,,,,,,,,,,,,,,,,,,,,,,,,,,,,,,,,,,,,,,,,,,,,,,,,,,,,,,,,,,,,,,,,,,,,,,,,,,,,,,,,,
,,,,,,60eb105221914f6f26a89908,62c5389480569701d2f2d355,2022-07-06_09h24.29.995,Colour_Asymmetry_Pilot,2022.1.3,Win32,60.12867537,62c50e9c1127f2cd403a315f,0,40,40,95,1,fourthree,,,,,,,,,,,,,,,,,,,,,,,,,,,,,,,,,,,,,,,,,,,,,,,,,,,,,,,,,,,,,,,,,,,,,,,,,,,,,,,,,,,,,,,,,,,,,,,,,,,,,,,,,,,,,,,,,,,,,,,,,,,,,,,,,,,,,,,,,,,,,,,,,,,,,,,,,,,,,
,,,,,,60eb105221914f6f26a89908,62c5389480569701d2f2d355,2022-07-06_09h24.29.995,Colour_Asymmetry_Pilot,2022.1.3,Win32,60.12867537,62c50e9c1127f2cd403a315f,0,41,41,30,1,fourtwo,,,,,,,,,,,,,,,,,,,,,,,,,,,,,,,,,,,,,,,,,,,,,,,,,,,,,,,,,,,,,,,,,,,,,,,,,,,,,,,,,,,,,,,,,,,,,,,,,,,,,,,,,,,,,,,,,,,,,,,,,,,,,,,,,,,,,,,,,,,,,,,,,,,,,,,,,,,,,
,,,,,,60eb105221914f6f26a89908,62c5389480569701d2f2d355,2022-07-06_09h24.29.995,Colour_Asymmetry_Pilot,2022.1.3,Win32,60.12867537,62c50e9c1127f2cd403a315f,0,42,42,48,1,onetwo,,,,,,,,,,,,,,,,,,,,,,,,,,,,,,,,,,,,,,,,,,,,,,,,,,,,,,,,,,,,,,,,,,,,,,,,,,,,,,,,,,,,,,,,,,,,,,,,,,,,,,,,,,,,,,,,,,,,,,,,,,,,,,,,,,,,,,,,,,,,,,,,,,,,,,,,,,,,,
,,,,,,60eb105221914f6f26a89908,62c5389480569701d2f2d355,2022-07-06_09h24.29.995,Colour_Asymmetry_Pilot,2022.1.3,Win32,60.12867537,62c50e9c1127f2cd403a315f,0,43,43,72,1,onetwo,,,,,,,,,,,,,,,,,,,,,,,,,,,,,,,,,,,,,,,,,,,,,,,,,,,,,,,,,,,,,,,,,,,,,,,,,,,,,,,,,,,,,,,,,,,,,,,,,,,,,,,,,,,,,,,,,,,,,,,,,,,,,,,,,,,,,,,,,,,,,,,,,,,,,,,,,,,,,
,,,,,,60eb105221914f6f26a89908,62c5389480569701d2f2d355,2022-07-06_09h24.29.995,Colour_Asymmetry_Pilot,2022.1.3,Win32,60.12867537,62c50e9c1127f2cd403a315f,0,44,44,137,1,onethree,,,,,,,,,,,,,,,,,,,,,,,,,,,,,,,,,,,,,,,,,,,,,,,,,,,,,,,,,,,,,,,,,,,,,,,,,,,,,,,,,,,,,,,,,,,,,,,,,,,,,,,,,,,,,,,,,,,,,,,,,,,,,,,,,,,,,,,,,,,,,,,,,,,,,,,,,,,,,
,,,,,,60eb105221914f6f26a89908,62c5389480569701d2f2d355,2022-07-06_09h24.29.995,Colour_Asymmetry_Pilot,2022.1.3,Win32,60.12867537,62c50e9c1127f2cd403a315f,0,45,45,24,1,onetwo,,,,,,,,,,,,,,,,,,,,,,,,,,,,,,,,,,,,,,,,,,,,,,,,,,,,,,,,,,,,,,,,,,,,,,,,,,,,,,,,,,,,,,,,,,,,,,,,,,,,,,,,,,,,,,,,,,,,,,,,,,,,,,,,,,,,,,,,,,,,,,,,,,,,,,,,,,,,,
,,,,,,60eb105221914f6f26a89908,62c5389480569701d2f2d355,2022-07-06_09h24.29.995,Colour_Asymmetry_Pilot,2022.1.3,Win32,60.12867537,62c50e9c1127f2cd403a315f,0,46,46,31,1,fourthree,,,,,,,,,,,,,,,,,,,,,,,,,,,,,,,,,,,,,,,,,,,,,,,,,,,,,,,,,,,,,,,,,,,,,,,,,,,,,,,,,,,,,,,,,,,,,,,,,,,,,,,,,,,,,,,,,,,,,,,,,,,,,,,,,,,,,,,,,,,,,,,,,,,,,,,,,,,,,
,,,,,,60eb105221914f6f26a89908,62c5389480569701d2f2d355,2022-07-06_09h24.29.995,Colour_Asymmetry_Pilot,2022.1.3,Win32,60.12867537,62c50e9c1127f2cd403a315f,0,47,47,18,1,twoone,,,,,,,,,,,,,,,,,,,,,,,,,,,,,,,,,,,,,,,,,,,,,,,,,,,,,,,,,,,,,,,,,,,,,,,,,,,,,,,,,,,,,,,,,,,,,,,,,,,,,,,,,,,,,,,,,,,,,,,,,,,,,,,,,,,,,,,,,,,,,,,,,,,,,,,,,,,,,
,,,,,,60eb105221914f6f26a89908,62c5389480569701d2f2d355,2022-07-06_09h24.29.995,Colour_Asymmetry_Pilot,2022.1.3,Win32,60.12867537,62c50e9c1127f2cd403a315f,0,48,48,20,1,threeone,,,,,,,,,,,,,,,,,,,,,,,,,,,,,,,,,,,,,,,,,,,,,,,,,,,,,,,,,,,,,,,,,,,,,,,,,,,,,,,,,,,,,,,,,,,,,,,,,,,,,,,,,,,,,,,,,,,,,,,,,,,,,,,,,,,,,,,,,,,,,,,,,,,,,,,,,,,,,
,,,,,,60eb105221914f6f26a89908,62c5389480569701d2f2d355,2022-07-06_09h24.29.995,Colour_Asymmetry_Pilot,2022.1.3,Win32,60.12867537,62c50e9c1127f2cd403a315f,0,49,49,130,1,twoone,,,,,,,,,,,,,,,,,,,,,,,,,,,,,,,,,,,,,,,,,,,,,,,,,,,,,,,,,,,,,,,,,,,,,,,,,,,,,,,,,,,,,,,,,,,,,,,,,,,,,,,,,,,,,,,,,,,,,,,,,,,,,,,,,,,,,,,,,,,,,,,,,,,,,,,,,,,,,
,,,,,,60eb105221914f6f26a89908,62c5389480569701d2f2d355,2022-07-06_09h24.29.995,Colour_Asymmetry_Pilot,2022.1.3,Win32,60.12867537,62c50e9c1127f2cd403a315f,0,50,50,160,1,onetwo,,,,,,,,,,,,,,,,,,,,,,,,,,,,,,,,,,,,,,,,,,,,,,,,,,,,,,,,,,,,,,,,,,,,,,,,,,,,,,,,,,,,,,,,,,,,,,,,,,,,,,,,,,,,,,,,,,,,,,,,,,,,,,,,,,,,,,,,,,,,,,,,,,,,,,,,,,,,,
,,,,,,60eb105221914f6f26a89908,62c5389480569701d2f2d355,2022-07-06_09h24.29.995,Colour_Asymmetry_Pilot,2022.1.3,Win32,60.12867537,62c50e9c1127f2cd403a315f,0,51,51,57,1,onethree,,,,,,,,,,,,,,,,,,,,,,,,,,,,,,,,,,,,,,,,,,,,,,,,,,,,,,,,,,,,,,,,,,,,,,,,,,,,,,,,,,,,,,,,,,,,,,,,,,,,,,,,,,,,,,,,,,,,,,,,,,,,,,,,,,,,,,,,,,,,,,,,,,,,,,,,,,,,,
,,,,,,60eb105221914f6f26a89908,62c5389480569701d2f2d355,2022-07-06_09h24.29.995,Colour_Asymmetry_Pilot,2022.1.3,Win32,60.12867537,62c50e9c1127f2cd403a315f,0,52,52,53,1,threefour,,,,,,,,,,,,,,,,,,,,,,,,,,,,,,,,,,,,,,,,,,,,,,,,,,,,,,,,,,,,,,,,,,,,,,,,,,,,,,,,,,,,,,,,,,,,,,,,,,,,,,,,,,,,,,,,,,,,,,,,,,,,,,,,,,,,,,,,,,,,,,,,,,,,,,,,,,,,,
,,,,,,60eb105221914f6f26a89908,62c5389480569701d2f2d355,2022-07-06_09h24.29.995,Colour_Asymmetry_Pilot,2022.1.3,Win32,60.12867537,62c50e9c1127f2cd403a315f,0,53,53,119,1,fourthree,,,,,,,,,,,,,,,,,,,,,,,,,,,,,,,,,,,,,,,,,,,,,,,,,,,,,,,,,,,,,,,,,,,,,,,,,,,,,,,,,,,,,,,,,,,,,,,,,,,,,,,,,,,,,,,,,,,,,,,,,,,,,,,,,,,,,,,,,,,,,,,,,,,,,,,,,,,,,
,,,,,,60eb105221914f6f26a89908,62c5389480569701d2f2d355,2022-07-06_09h24.29.995,Colour_Asymmetry_Pilot,2022.1.3,Win32,60.12867537,62c50e9c1127f2cd403a315f,0,54,54,19,1,twofour,,,,,,,,,,,,,,,,,,,,,,,,,,,,,,,,,,,,,,,,,,,,,,,,,,,,,,,,,,,,,,,,,,,,,,,,,,,,,,,,,,,,,,,,,,,,,,,,,,,,,,,,,,,,,,,,,,,,,,,,,,,,,,,,,,,,,,,,,,,,,,,,,,,,,,,,,,,,,
,,,,,,60eb105221914f6f26a89908,62c5389480569701d2f2d355,2022-07-06_09h24.29.995,Colour_Asymmetry_Pilot,2022.1.3,Win32,60.12867537,62c50e9c1127f2cd403a315f,0,55,55,66,1,twoone,,,,,,,,,,,,,,,,,,,,,,,,,,,,,,,,,,,,,,,,,,,,,,,,,,,,,,,,,,,,,,,,,,,,,,,,,,,,,,,,,,,,,,,,,,,,,,,,,,,,,,,,,,,,,,,,,,,,,,,,,,,,,,,,,,,,,,,,,,,,,,,,,,,,,,,,,,,,,
,,,,,,60eb105221914f6f26a89908,62c5389480569701d2f2d355,2022-07-06_09h24.29.995,Colour_Asymmetry_Pilot,2022.1.3,Win32,60.12867537,62c50e9c1127f2cd403a315f,0,56,56,22,1,fourtwo,,,,,,,,,,,,,,,,,,,,,,,,,,,,,,,,,,,,,,,,,,,,,,,,,,,,,,,,,,,,,,,,,,,,,,,,,,,,,,,,,,,,,,,,,,,,,,,,,,,,,,,,,,,,,,,,,,,,,,,,,,,,,,,,,,,,,,,,,,,,,,,,,,,,,,,,,,,,,
,,,,,,60eb105221914f6f26a89908,62c5389480569701d2f2d355,2022-07-06_09h24.29.995,Colour_Asymmetry_Pilot,2022.1.3,Win32,60.12867537,62c50e9c1127f2cd403a315f,0,57,57,138,1,twoone,,,,,,,,,,,,,,,,,,,,,,,,,,,,,,,,,,,,,,,,,,,,,,,,,,,,,,,,,,,,,,,,,,,,,,,,,,,,,,,,,,,,,,,,,,,,,,,,,,,,,,,,,,,,,,,,,,,,,,,,,,,,,,,,,,,,,,,,,,,,,,,,,,,,,,,,,,,,,
,,,,,,60eb105221914f6f26a89908,62c5389480569701d2f2d355,2022-07-06_09h24.29.995,Colour_Asymmetry_Pilot,2022.1.3,Win32,60.12867537,62c50e9c1127f2cd403a315f,0,58,58,55,1,fourthree,,,,,,,,,,,,,,,,,,,,,,,,,,,,,,,,,,,,,,,,,,,,,,,,,,,,,,,,,,,,,,,,,,,,,,,,,,,,,,,,,,,,,,,,,,,,,,,,,,,,,,,,,,,,,,,,,,,,,,,,,,,,,,,,,,,,,,,,,,,,,,,,,,,,,,,,,,,,,
,,,,,,60eb105221914f6f26a89908,62c5389480569701d2f2d355,2022-07-06_09h24.29.995,Colour_Asymmetry_Pilot,2022.1.3,Win32,60.12867537,62c50e9c1127f2cd403a315f,0,59,59,145,1,onethree,,,,,,,,,,,,,,,,,,,,,,,,,,,,,,,,,,,,,,,,,,,,,,,,,,,,,,,,,,,,,,,,,,,,,,,,,,,,,,,,,,,,,,,,,,,,,,,,,,,,,,,,,,,,,,,,,,,,,,,,,,,,,,,,,,,,,,,,,,,,,,,,,,,,,,,,,,,,,
,,,,,,60eb105221914f6f26a89908,62c5389480569701d2f2d355,2022-07-06_09h24.29.995,Colour_Asymmetry_Pilot,2022.1.3,Win32,60.12867537,62c50e9c1127f2cd403a315f,0,60,60,99,1,twofour,,,,,,,,,,,,,,,,,,,,,,,,,,,,,,,,,,,,,,,,,,,,,,,,,,,,,,,,,,,,,,,,,,,,,,,,,,,,,,,,,,,,,,,,,,,,,,,,,,,,,,,,,,,,,,,,,,,,,,,,,,,,,,,,,,,,,,,,,,,,,,,,,,,,,,,,,,,,,
,,,,,,60eb105221914f6f26a89908,62c5389480569701d2f2d355,2022-07-06_09h24.29.995,Colour_Asymmetry_Pilot,2022.1.3,Win32,60.12867537,62c50e9c1127f2cd403a315f,0,61,61,2,1,twoone,,,,,,,,,,,,,,,,,,,,,,,,,,,,,,,,,,,,,,,,,,,,,,,,,,,,,,,,,,,,,,,,,,,,,,,,,,,,,,,,,,,,,,,,,,,,,,,,,,,,,,,,,,,,,,,,,,,,,,,,,,,,,,,,,,,,,,,,,,,,,,,,,,,,,,,,,,,,,
,,,,,,60eb105221914f6f26a89908,62c5389480569701d2f2d355,2022-07-06_09h24.29.995,Colour_Asymmetry_Pilot,2022.1.3,Win32,60.12867537,62c50e9c1127f2cd403a315f,0,62,62,60,1,threeone,,,,,,,,,,,,,,,,,,,,,,,,,,,,,,,,,,,,,,,,,,,,,,,,,,,,,,,,,,,,,,,,,,,,,,,,,,,,,,,,,,,,,,,,,,,,,,,,,,,,,,,,,,,,,,,,,,,,,,,,,,,,,,,,,,,,,,,,,,,,,,,,,,,,,,,,,,,,,
,,,,,,60eb105221914f6f26a89908,62c5389480569701d2f2d355,2022-07-06_09h24.29.995,Colour_Asymmetry_Pilot,2022.1.3,Win32,60.12867537,62c50e9c1127f2cd403a315f,0,63,63,33,1,onethree,,,,,,,,,,,,,,,,,,,,,,,,,,,,,,,,,,,,,,,,,,,,,,,,,,,,,,,,,,,,,,,,,,,,,,,,,,,,,,,,,,,,,,,,,,,,,,,,,,,,,,,,,,,,,,,,,,,,,,,,,,,,,,,,,,,,,,,,,,,,,,,,,,,,,,,,,,,,,
,,,,,,60eb105221914f6f26a89908,62c5389480569701d2f2d355,2022-07-06_09h24.29.995,Colour_Asymmetry_Pilot,2022.1.3,Win32,60.12867537,62c50e9c1127f2cd403a315f,0,64,64,56,1,onetwo,,,,,,,,,,,,,,,,,,,,,,,,,,,,,,,,,,,,,,,,,,,,,,,,,,,,,,,,,,,,,,,,,,,,,,,,,,,,,,,,,,,,,,,,,,,,,,,,,,,,,,,,,,,,,,,,,,,,,,,,,,,,,,,,,,,,,,,,,,,,,,,,,,,,,,,,,,,,,
,,,,,,60eb105221914f6f26a89908,62c5389480569701d2f2d355,2022-07-06_09h24.29.995,Colour_Asymmetry_Pilot,2022.1.3,Win32,60.12867537,62c50e9c1127f2cd403a315f,0,65,65,21,1,threefour,,,,,,,,,,,,,,,,,,,,,,,,,,,,,,,,,,,,,,,,,,,,,,,,,,,,,,,,,,,,,,,,,,,,,,,,,,,,,,,,,,,,,,,,,,,,,,,,,,,,,,,,,,,,,,,,,,,,,,,,,,,,,,,,,,,,,,,,,,,,,,,,,,,,,,,,,,,,,
,,,,,,60eb105221914f6f26a89908,62c5389480569701d2f2d355,2022-07-06_09h24.29.995,Colour_Asymmetry_Pilot,2022.1.3,Win32,60.12867537,62c50e9c1127f2cd403a315f,0,66,66,16,1,onetwo,,,,,,,,,,,,,,,,,,,,,,,,,,,,,,,,,,,,,,,,,,,,,,,,,,,,,,,,,,,,,,,,,,,,,,,,,,,,,,,,,,,,,,,,,,,,,,,,,,,,,,,,,,,,,,,,,,,,,,,,,,,,,,,,,,,,,,,,,,,,,,,,,,,,,,,,,,,,,
,,,,,,60eb105221914f6f26a89908,62c5389480569701d2f2d355,2022-07-06_09h24.29.995,Colour_Asymmetry_Pilot,2022.1.3,Win32,60.12867537,62c50e9c1127f2cd403a315f,0,67,67,135,1,fourthree,,,,,,,,,,,,,,,,,,,,,,,,,,,,,,,,,,,,,,,,,,,,,,,,,,,,,,,,,,,,,,,,,,,,,,,,,,,,,,,,,,,,,,,,,,,,,,,,,,,,,,,,,,,,,,,,,,,,,,,,,,,,,,,,,,,,,,,,,,,,,,,,,,,,,,,,,,,,,
,,,,,,60eb105221914f6f26a89908,62c5389480569701d2f2d355,2022-07-06_09h24.29.995,Colour_Asymmetry_Pilot,2022.1.3,Win32,60.12867537,62c50e9c1127f2cd403a315f,0,68,68,10,1,twoone,,,,,,,,,,,,,,,,,,,,,,,,,,,,,,,,,,,,,,,,,,,,,,,,,,,,,,,,,,,,,,,,,,,,,,,,,,,,,,,,,,,,,,,,,,,,,,,,,,,,,,,,,,,,,,,,,,,,,,,,,,,,,,,,,,,,,,,,,,,,,,,,,,,,,,,,,,,,,
,,,,,,60eb105221914f6f26a89908,62c5389480569701d2f2d355,2022-07-06_09h24.29.995,Colour_Asymmetry_Pilot,2022.1.3,Win32,60.12867537,62c50e9c1127f2cd403a315f,0,69,69,34,1,twoone,,,,,,,,,,,,,,,,,,,,,,,,,,,,,,,,,,,,,,,,,,,,,,,,,,,,,,,,,,,,,,,,,,,,,,,,,,,,,,,,,,,,,,,,,,,,,,,,,,,,,,,,,,,,,,,,,,,,,,,,,,,,,,,,,,,,,,,,,,,,,,,,,,,,,,,,,,,,,
,,,,,,60eb105221914f6f26a89908,62c5389480569701d2f2d355,2022-07-06_09h24.29.995,Colour_Asymmetry_Pilot,2022.1.3,Win32,60.12867537,62c50e9c1127f2cd403a315f,0,70,70,139,1,twofour,,,,,,,,,,,,,,,,,,,,,,,,,,,,,,,,,,,,,,,,,,,,,,,,,,,,,,,,,,,,,,,,,,,,,,,,,,,,,,,,,,,,,,,,,,,,,,,,,,,,,,,,,,,,,,,,,,,,,,,,,,,,,,,,,,,,,,,,,,,,,,,,,,,,,,,,,,,,,
,,,,,,60eb105221914f6f26a89908,62c5389480569701d2f2d355,2022-07-06_09h24.29.995,Colour_Asymmetry_Pilot,2022.1.3,Win32,60.12867537,62c50e9c1127f2cd403a315f,0,71,71,104,1,onetwo,,,,,,,,,,,,,,,,,,,,,,,,,,,,,,,,,,,,,,,,,,,,,,,,,,,,,,,,,,,,,,,,,,,,,,,,,,,,,,,,,,,,,,,,,,,,,,,,,,,,,,,,,,,,,,,,,,,,,,,,,,,,,,,,,,,,,,,,,,,,,,,,,,,,,,,,,,,,,
,,,,,,60eb105221914f6f26a89908,62c5389480569701d2f2d355,2022-07-06_09h24.29.995,Colour_Asymmetry_Pilot,2022.1.3,Win32,60.12867537,62c50e9c1127f2cd403a315f,0,72,72,129,1,onethree,,,,,,,,,,,,,,,,,,,,,,,,,,,,,,,,,,,,,,,,,,,,,,,,,,,,,,,,,,,,,,,,,,,,,,,,,,,,,,,,,,,,,,,,,,,,,,,,,,,,,,,,,,,,,,,,,,,,,,,,,,,,,,,,,,,,,,,,,,,,,,,,,,,,,,,,,,,,,
,,,,,,60eb105221914f6f26a89908,62c5389480569701d2f2d355,2022-07-06_09h24.29.995,Colour_Asymmetry_Pilot,2022.1.3,Win32,60.12867537,62c50e9c1127f2cd403a315f,0,73,73,81,1,onethree,,,,,,,,,,,,,,,,,,,,,,,,,,,,,,,,,,,,,,,,,,,,,,,,,,,,,,,,,,,,,,,,,,,,,,,,,,,,,,,,,,,,,,,,,,,,,,,,,,,,,,,,,,,,,,,,,,,,,,,,,,,,,,,,,,,,,,,,,,,,,,,,,,,,,,,,,,,,,
,,,,,,60eb105221914f6f26a89908,62c5389480569701d2f2d355,2022-07-06_09h24.29.995,Colour_Asymmetry_Pilot,2022.1.3,Win32,60.12867537,62c50e9c1127f2cd403a315f,0,74,74,43,1,twofour,,,,,,,,,,,,,,,,,,,,,,,,,,,,,,,,,,,,,,,,,,,,,,,,,,,,,,,,,,,,,,,,,,,,,,,,,,,,,,,,,,,,,,,,,,,,,,,,,,,,,,,,,,,,,,,,,,,,,,,,,,,,,,,,,,,,,,,,,,,,,,,,,,,,,,,,,,,,,
,,,,,,60eb105221914f6f26a89908,62c5389480569701d2f2d355,2022-07-06_09h24.29.995,Colour_Asymmetry_Pilot,2022.1.3,Win32,60.12867537,62c50e9c1127f2cd403a315f,0,75,75,96,1,onetwo,,,,,,,,,,,,,,,,,,,,,,,,,,,,,,,,,,,,,,,,,,,,,,,,,,,,,,,,,,,,,,,,,,,,,,,,,,,,,,,,,,,,,,,,,,,,,,,,,,,,,,,,,,,,,,,,,,,,,,,,,,,,,,,,,,,,,,,,,,,,,,,,,,,,,,,,,,,,,
,,,,,,60eb105221914f6f26a89908,62c5389480569701d2f2d355,2022-07-06_09h24.29.995,Colour_Asymmetry_Pilot,2022.1.3,Win32,60.12867537,62c50e9c1127f2cd403a315f,0,76,76,68,1,threeone,,,,,,,,,,,,,,,,,,,,,,,,,,,,,,,,,,,,,,,,,,,,,,,,,,,,,,,,,,,,,,,,,,,,,,,,,,,,,,,,,,,,,,,,,,,,,,,,,,,,,,,,,,,,,,,,,,,,,,,,,,,,,,,,,,,,,,,,,,,,,,,,,,,,,,,,,,,,,
,,,,,,60eb105221914f6f26a89908,62c5389480569701d2f2d355,2022-07-06_09h24.29.995,Colour_Asymmetry_Pilot,2022.1.3,Win32,60.12867537,62c50e9c1127f2cd403a315f,0,77,77,75,1,twofour,,,,,,,,,,,,,,,,,,,,,,,,,,,,,,,,,,,,,,,,,,,,,,,,,,,,,,,,,,,,,,,,,,,,,,,,,,,,,,,,,,,,,,,,,,,,,,,,,,,,,,,,,,,,,,,,,,,,,,,,,,,,,,,,,,,,,,,,,,,,,,,,,,,,,,,,,,,,,
,,,,,,60eb105221914f6f26a89908,62c5389480569701d2f2d355,2022-07-06_09h24.29.995,Colour_Asymmetry_Pilot,2022.1.3,Win32,60.12867537,62c50e9c1127f2cd403a315f,0,78,78,155,1,twofour,,,,,,,,,,,,,,,,,,,,,,,,,,,,,,,,,,,,,,,,,,,,,,,,,,,,,,,,,,,,,,,,,,,,,,,,,,,,,,,,,,,,,,,,,,,,,,,,,,,,,,,,,,,,,,,,,,,,,,,,,,,,,,,,,,,,,,,,,,,,,,,,,,,,,,,,,,,,,
,,,,,,60eb105221914f6f26a89908,62c5389480569701d2f2d355,2022-07-06_09h24.29.995,Colour_Asymmetry_Pilot,2022.1.3,Win32,60.12867537,62c50e9c1127f2cd403a315f,0,79,79,159,1,fourthree,,,,,,,,,,,,,,,,,,,,,,,,,,,,,,,,,,,,,,,,,,,,,,,,,,,,,,,,,,,,,,,,,,,,,,,,,,,,,,,,,,,,,,,,,,,,,,,,,,,,,,,,,,,,,,,,,,,,,,,,,,,,,,,,,,,,,,,,,,,,,,,,,,,,,,,,,,,,,
,,,,,,60eb105221914f6f26a89908,62c5389480569701d2f2d355,2022-07-06_09h24.29.995,Colour_Asymmetry_Pilot,2022.1.3,Win32,60.12867537,62c50e9c1127f2cd403a315f,0,80,80,143,1,fourthree,,,,,,,,,,,,,,,,,,,,,,,,,,,,,,,,,,,,,,,,,,,,,,,,,,,,,,,,,,,,,,,,,,,,,,,,,,,,,,,,,,,,,,,,,,,,,,,,,,,,,,,,,,,,,,,,,,,,,,,,,,,,,,,,,,,,,,,,,,,,,,,,,,,,,,,,,,,,,
,,,,,,60eb105221914f6f26a89908,62c5389480569701d2f2d355,2022-07-06_09h24.29.995,Colour_Asymmetry_Pilot,2022.1.3,Win32,60.12867537,62c50e9c1127f2cd403a315f,0,81,81,118,1,fourtwo,,,,,,,,,,,,,,,,,,,,,,,,,,,,,,,,,,,,,,,,,,,,,,,,,,,,,,,,,,,,,,,,,,,,,,,,,,,,,,,,,,,,,,,,,,,,,,,,,,,,,,,,,,,,,,,,,,,,,,,,,,,,,,,,,,,,,,,,,,,,,,,,,,,,,,,,,,,,,
,,,,,,60eb105221914f6f26a89908,62c5389480569701d2f2d355,2022-07-06_09h24.29.995,Colour_Asymmetry_Pilot,2022.1.3,Win32,60.12867537,62c50e9c1127f2cd403a315f,0,82,82,71,1,fourthree,,,,,,,,,,,,,,,,,,,,,,,,,,,,,,,,,,,,,,,,,,,,,,,,,,,,,,,,,,,,,,,,,,,,,,,,,,,,,,,,,,,,,,,,,,,,,,,,,,,,,,,,,,,,,,,,,,,,,,,,,,,,,,,,,,,,,,,,,,,,,,,,,,,,,,,,,,,,,
,,,,,,60eb105221914f6f26a89908,62c5389480569701d2f2d355,2022-07-06_09h24.29.995,Colour_Asymmetry_Pilot,2022.1.3,Win32,60.12867537,62c50e9c1127f2cd403a315f,0,83,83,80,1,onetwo,,,,,,,,,,,,,,,,,,,,,,,,,,,,,,,,,,,,,,,,,,,,,,,,,,,,,,,,,,,,,,,,,,,,,,,,,,,,,,,,,,,,,,,,,,,,,,,,,,,,,,,,,,,,,,,,,,,,,,,,,,,,,,,,,,,,,,,,,,,,,,,,,,,,,,,,,,,,,
,,,,,,60eb105221914f6f26a89908,62c5389480569701d2f2d355,2022-07-06_09h24.29.995,Colour_Asymmetry_Pilot,2022.1.3,Win32,60.12867537,62c50e9c1127f2cd403a315f,0,84,84,49,1,onethree,,,,,,,,,,,,,,,,,,,,,,,,,,,,,,,,,,,,,,,,,,,,,,,,,,,,,,,,,,,,,,,,,,,,,,,,,,,,,,,,,,,,,,,,,,,,,,,,,,,,,,,,,,,,,,,,,,,,,,,,,,,,,,,,,,,,,,,,,,,,,,,,,,,,,,,,,,,,,
,,,,,,60eb105221914f6f26a89908,62c5389480569701d2f2d355,2022-07-06_09h24.29.995,Colour_Asymmetry_Pilot,2022.1.3,Win32,60.12867537,62c50e9c1127f2cd403a315f,0,85,85,103,1,fourthree,,,,,,,,,,,,,,,,,,,,,,,,,,,,,,,,,,,,,,,,,,,,,,,,,,,,,,,,,,,,,,,,,,,,,,,,,,,,,,,,,,,,,,,,,,,,,,,,,,,,,,,,,,,,,,,,,,,,,,,,,,,,,,,,,,,,,,,,,,,,,,,,,,,,,,,,,,,,,
,,,,,,60eb105221914f6f26a89908,62c5389480569701d2f2d355,2022-07-06_09h24.29.995,Colour_Asymmetry_Pilot,2022.1.3,Win32,60.12867537,62c50e9c1127f2cd403a315f,0,86,86,152,1,onetwo,,,,,,,,,,,,,,,,,,,,,,,,,,,,,,,,,,,,,,,,,,,,,,,,,,,,,,,,,,,,,,,,,,,,,,,,,,,,,,,,,,,,,,,,,,,,,,,,,,,,,,,,,,,,,,,,,,,,,,,,,,,,,,,,,,,,,,,,,,,,,,,,,,,,,,,,,,,,,
,,,,,,60eb105221914f6f26a89908,62c5389480569701d2f2d355,2022-07-06_09h24.29.995,Colour_Asymmetry_Pilot,2022.1.3,Win32,60.12867537,62c50e9c1127f2cd403a315f,0,87,87,93,1,threefour,,,,,,,,,,,,,,,,,,,,,,,,,,,,,,,,,,,,,,,,,,,,,,,,,,,,,,,,,,,,,,,,,,,,,,,,,,,,,,,,,,,,,,,,,,,,,,,,,,,,,,,,,,,,,,,,,,,,,,,,,,,,,,,,,,,,,,,,,,,,,,,,,,,,,,,,,,,,,
,,,,,,60eb105221914f6f26a89908,62c5389480569701d2f2d355,2022-07-06_09h24.29.995,Colour_Asymmetry_Pilot,2022.1.3,Win32,60.12867537,62c50e9c1127f2cd403a315f,0,88,88,117,1,threefour,,,,,,,,,,,,,,,,,,,,,,,,,,,,,,,,,,,,,,,,,,,,,,,,,,,,,,,,,,,,,,,,,,,,,,,,,,,,,,,,,,,,,,,,,,,,,,,,,,,,,,,,,,,,,,,,,,,,,,,,,,,,,,,,,,,,,,,,,,,,,,,,,,,,,,,,,,,,,
,,,,,,60eb105221914f6f26a89908,62c5389480569701d2f2d355,2022-07-06_09h24.29.995,Colour_Asymmetry_Pilot,2022.1.3,Win32,60.12867537,62c50e9c1127f2cd403a315f,0,89,89,76,1,threeone,,,,,,,,,,,,,,,,,,,,,,,,,,,,,,,,,,,,,,,,,,,,,,,,,,,,,,,,,,,,,,,,,,,,,,,,,,,,,,,,,,,,,,,,,,,,,,,,,,,,,,,,,,,,,,,,,,,,,,,,,,,,,,,,,,,,,,,,,,,,,,,,,,,,,,,,,,,,,
,,,,,,60eb105221914f6f26a89908,62c5389480569701d2f2d355,2022-07-06_09h24.29.995,Colour_Asymmetry_Pilot,2022.1.3,Win32,60.12867537,62c50e9c1127f2cd403a315f,0,90,90,42,1,twoone,,,,,,,,,,,,,,,,,,,,,,,,,,,,,,,,,,,,,,,,,,,,,,,,,,,,,,,,,,,,,,,,,,,,,,,,,,,,,,,,,,,,,,,,,,,,,,,,,,,,,,,,,,,,,,,,,,,,,,,,,,,,,,,,,,,,,,,,,,,,,,,,,,,,,,,,,,,,,
,,,,,,60eb105221914f6f26a89908,62c5389480569701d2f2d355,2022-07-06_09h24.29.995,Colour_Asymmetry_Pilot,2022.1.3,Win32,60.12867537,62c50e9c1127f2cd403a315f,0,91,91,14,1,fourtwo,,,,,,,,,,,,,,,,,,,,,,,,,,,,,,,,,,,,,,,,,,,,,,,,,,,,,,,,,,,,,,,,,,,,,,,,,,,,,,,,,,,,,,,,,,,,,,,,,,,,,,,,,,,,,,,,,,,,,,,,,,,,,,,,,,,,,,,,,,,,,,,,,,,,,,,,,,,,,
,,,,,,60eb105221914f6f26a89908,62c5389480569701d2f2d355,2022-07-06_09h24.29.995,Colour_Asymmetry_Pilot,2022.1.3,Win32,60.12867537,62c50e9c1127f2cd403a315f,0,92,92,39,1,fourthree,,,,,,,,,,,,,,,,,,,,,,,,,,,,,,,,,,,,,,,,,,,,,,,,,,,,,,,,,,,,,,,,,,,,,,,,,,,,,,,,,,,,,,,,,,,,,,,,,,,,,,,,,,,,,,,,,,,,,,,,,,,,,,,,,,,,,,,,,,,,,,,,,,,,,,,,,,,,,
,,,,,,60eb105221914f6f26a89908,62c5389480569701d2f2d355,2022-07-06_09h24.29.995,Colour_Asymmetry_Pilot,2022.1.3,Win32,60.12867537,62c50e9c1127f2cd403a315f,0,93,93,124,1,threeone,,,,,,,,,,,,,,,,,,,,,,,,,,,,,,,,,,,,,,,,,,,,,,,,,,,,,,,,,,,,,,,,,,,,,,,,,,,,,,,,,,,,,,,,,,,,,,,,,,,,,,,,,,,,,,,,,,,,,,,,,,,,,,,,,,,,,,,,,,,,,,,,,,,,,,,,,,,,,
,,,,,,60eb105221914f6f26a89908,62c5389480569701d2f2d355,2022-07-06_09h24.29.995,Colour_Asymmetry_Pilot,2022.1.3,Win32,60.12867537,62c50e9c1127f2cd403a315f,0,94,94,94,1,fourtwo,,,,,,,,,,,,,,,,,,,,,,,,,,,,,,,,,,,,,,,,,,,,,,,,,,,,,,,,,,,,,,,,,,,,,,,,,,,,,,,,,,,,,,,,,,,,,,,,,,,,,,,,,,,,,,,,,,,,,,,,,,,,,,,,,,,,,,,,,,,,,,,,,,,,,,,,,,,,,
,,,,,,60eb105221914f6f26a89908,62c5389480569701d2f2d355,2022-07-06_09h24.29.995,Colour_Asymmetry_Pilot,2022.1.3,Win32,60.12867537,62c50e9c1127f2cd403a315f,0,95,95,26,1,twoone,,,,,,,,,,,,,,,,,,,,,,,,,,,,,,,,,,,,,,,,,,,,,,,,,,,,,,,,,,,,,,,,,,,,,,,,,,,,,,,,,,,,,,,,,,,,,,,,,,,,,,,,,,,,,,,,,,,,,,,,,,,,,,,,,,,,,,,,,,,,,,,,,,,,,,,,,,,,,
,,,,,,60eb105221914f6f26a89908,62c5389480569701d2f2d355,2022-07-06_09h24.29.995,Colour_Asymmetry_Pilot,2022.1.3,Win32,60.12867537,62c50e9c1127f2cd403a315f,0,96,96,128,1,onetwo,,,,,,,,,,,,,,,,,,,,,,,,,,,,,,,,,,,,,,,,,,,,,,,,,,,,,,,,,,,,,,,,,,,,,,,,,,,,,,,,,,,,,,,,,,,,,,,,,,,,,,,,,,,,,,,,,,,,,,,,,,,,,,,,,,,,,,,,,,,,,,,,,,,,,,,,,,,,,
,,,,,,60eb105221914f6f26a89908,62c5389480569701d2f2d355,2022-07-06_09h24.29.995,Colour_Asymmetry_Pilot,2022.1.3,Win32,60.12867537,62c50e9c1127f2cd403a315f,0,97,97,0,1,onetwo,,,,,,,,,,,,,,,,,,,,,,,,,,,,,,,,,,,,,,,,,,,,,,,,,,,,,,,,,,,,,,,,,,,,,,,,,,,,,,,,,,,,,,,,,,,,,,,,,,,,,,,,,,,,,,,,,,,,,,,,,,,,,,,,,,,,,,,,,,,,,,,,,,,,,,,,,,,,,
,,,,,,60eb105221914f6f26a89908,62c5389480569701d2f2d355,2022-07-06_09h24.29.995,Colour_Asymmetry_Pilot,2022.1.3,Win32,60.12867537,62c50e9c1127f2cd403a315f,0,98,98,151,1,fourthree,,,,,,,,,,,,,,,,,,,,,,,,,,,,,,,,,,,,,,,,,,,,,,,,,,,,,,,,,,,,,,,,,,,,,,,,,,,,,,,,,,,,,,,,,,,,,,,,,,,,,,,,,,,,,,,,,,,,,,,,,,,,,,,,,,,,,,,,,,,,,,,,,,,,,,,,,,,,,
,,,,,,60eb105221914f6f26a89908,62c5389480569701d2f2d355,2022-07-06_09h24.29.995,Colour_Asymmetry_Pilot,2022.1.3,Win32,60.12867537,62c50e9c1127f2cd403a315f,0,99,99,12,1,threeone,,,,,,,,,,,,,,,,,,,,,,,,,,,,,,,,,,,,,,,,,,,,,,,,,,,,,,,,,,,,,,,,,,,,,,,,,,,,,,,,,,,,,,,,,,,,,,,,,,,,,,,,,,,,,,,,,,,,,,,,,,,,,,,,,,,,,,,,,,,,,,,,,,,,,,,,,,,,,
,,,,,,60eb105221914f6f26a89908,62c5389480569701d2f2d355,2022-07-06_09h24.29.995,Colour_Asymmetry_Pilot,2022.1.3,Win32,60.12867537,62c50e9c1127f2cd403a315f,0,100,100,105,1,onethree,,,,,,,,,,,,,,,,,,,,,,,,,,,,,,,,,,,,,,,,,,,,,,,,,,,,,,,,,,,,,,,,,,,,,,,,,,,,,,,,,,,,,,,,,,,,,,,,,,,,,,,,,,,,,,,,,,,,,,,,,,,,,,,,,,,,,,,,,,,,,,,,,,,,,,,,,,,,,
,,,,,,60eb105221914f6f26a89908,62c5389480569701d2f2d355,2022-07-06_09h24.29.995,Colour_Asymmetry_Pilot,2022.1.3,Win32,60.12867537,62c50e9c1127f2cd403a315f,0,101,101,11,1,twofour,,,,,,,,,,,,,,,,,,,,,,,,,,,,,,,,,,,,,,,,,,,,,,,,,,,,,,,,,,,,,,,,,,,,,,,,,,,,,,,,,,,,,,,,,,,,,,,,,,,,,,,,,,,,,,,,,,,,,,,,,,,,,,,,,,,,,,,,,,,,,,,,,,,,,,,,,,,,,
,,,,,,60eb105221914f6f26a89908,62c5389480569701d2f2d355,2022-07-06_09h24.29.995,Colour_Asymmetry_Pilot,2022.1.3,Win32,60.12867537,62c50e9c1127f2cd403a315f,0,102,102,114,1,twoone,,,,,,,,,,,,,,,,,,,,,,,,,,,,,,,,,,,,,,,,,,,,,,,,,,,,,,,,,,,,,,,,,,,,,,,,,,,,,,,,,,,,,,,,,,,,,,,,,,,,,,,,,,,,,,,,,,,,,,,,,,,,,,,,,,,,,,,,,,,,,,,,,,,,,,,,,,,,,
,,,,,,60eb105221914f6f26a89908,62c5389480569701d2f2d355,2022-07-06_09h24.29.995,Colour_Asymmetry_Pilot,2022.1.3,Win32,60.12867537,62c50e9c1127f2cd403a315f,0,103,103,120,1,onetwo,,,,,,,,,,,,,,,,,,,,,,,,,,,,,,,,,,,,,,,,,,,,,,,,,,,,,,,,,,,,,,,,,,,,,,,,,,,,,,,,,,,,,,,,,,,,,,,,,,,,,,,,,,,,,,,,,,,,,,,,,,,,,,,,,,,,,,,,,,,,,,,,,,,,,,,,,,,,,
,,,,,,60eb105221914f6f26a89908,62c5389480569701d2f2d355,2022-07-06_09h24.29.995,Colour_Asymmetry_Pilot,2022.1.3,Win32,60.12867537,62c50e9c1127f2cd403a315f,0,104,104,156,1,threeone,,,,,,,,,,,,,,,,,,,,,,,,,,,,,,,,,,,,,,,,,,,,,,,,,,,,,,,,,,,,,,,,,,,,,,,,,,,,,,,,,,,,,,,,,,,,,,,,,,,,,,,,,,,,,,,,,,,,,,,,,,,,,,,,,,,,,,,,,,,,,,,,,,,,,,,,,,,,,
,,,,,,60eb105221914f6f26a89908,62c5389480569701d2f2d355,2022-07-06_09h24.29.995,Colour_Asymmetry_Pilot,2022.1.3,Win32,60.12867537,62c50e9c1127f2cd403a315f,0,105,105,140,1,threeone,,,,,,,,,,,,,,,,,,,,,,,,,,,,,,,,,,,,,,,,,,,,,,,,,,,,,,,,,,,,,,,,,,,,,,,,,,,,,,,,,,,,,,,,,,,,,,,,,,,,,,,,,,,,,,,,,,,,,,,,,,,,,,,,,,,,,,,,,,,,,,,,,,,,,,,,,,,,,
,,,,,,60eb105221914f6f26a89908,62c5389480569701d2f2d355,2022-07-06_09h24.29.995,Colour_Asymmetry_Pilot,2022.1.3,Win32,60.12867537,62c50e9c1127f2cd403a315f,0,106,106,149,1,threefour,,,,,,,,,,,,,,,,,,,,,,,,,,,,,,,,,,,,,,,,,,,,,,,,,,,,,,,,,,,,,,,,,,,,,,,,,,,,,,,,,,,,,,,,,,,,,,,,,,,,,,,,,,,,,,,,,,,,,,,,,,,,,,,,,,,,,,,,,,,,,,,,,,,,,,,,,,,,,
,,,,,,60eb105221914f6f26a89908,62c5389480569701d2f2d355,2022-07-06_09h24.29.995,Colour_Asymmetry_Pilot,2022.1.3,Win32,60.12867537,62c50e9c1127f2cd403a315f,0,107,107,107,1,twofour,,,,,,,,,,,,,,,,,,,,,,,,,,,,,,,,,,,,,,,,,,,,,,,,,,,,,,,,,,,,,,,,,,,,,,,,,,,,,,,,,,,,,,,,,,,,,,,,,,,,,,,,,,,,,,,,,,,,,,,,,,,,,,,,,,,,,,,,,,,,,,,,,,,,,,,,,,,,,
,,,,,,60eb105221914f6f26a89908,62c5389480569701d2f2d355,2022-07-06_09h24.29.995,Colour_Asymmetry_Pilot,2022.1.3,Win32,60.12867537,62c50e9c1127f2cd403a315f,0,108,108,161,1,onethree,,,,,,,,,,,,,,,,,,,,,,,,,,,,,,,,,,,,,,,,,,,,,,,,,,,,,,,,,,,,,,,,,,,,,,,,,,,,,,,,,,,,,,,,,,,,,,,,,,,,,,,,,,,,,,,,,,,,,,,,,,,,,,,,,,,,,,,,,,,,,,,,,,,,,,,,,,,,,
,,,,,,60eb105221914f6f26a89908,62c5389480569701d2f2d355,2022-07-06_09h24.29.995,Colour_Asymmetry_Pilot,2022.1.3,Win32,60.12867537,62c50e9c1127f2cd403a315f,0,109,109,63,1,fourthree,,,,,,,,,,,,,,,,,,,,,,,,,,,,,,,,,,,,,,,,,,,,,,,,,,,,,,,,,,,,,,,,,,,,,,,,,,,,,,,,,,,,,,,,,,,,,,,,,,,,,,,,,,,,,,,,,,,,,,,,,,,,,,,,,,,,,,,,,,,,,,,,,,,,,,,,,,,,,
,,,,,,60eb105221914f6f26a89908,62c5389480569701d2f2d355,2022-07-06_09h24.29.995,Colour_Asymmetry_Pilot,2022.1.3,Win32,60.12867537,62c50e9c1127f2cd403a315f,0,110,110,23,1,fourthree,,,,,,,,,,,,,,,,,,,,,,,,,,,,,,,,,,,,,,,,,,,,,,,,,,,,,,,,,,,,,,,,,,,,,,,,,,,,,,,,,,,,,,,,,,,,,,,,,,,,,,,,,,,,,,,,,,,,,,,,,,,,,,,,,,,,,,,,,,,,,,,,,,,,,,,,,,,,,
,,,,,,60eb105221914f6f26a89908,62c5389480569701d2f2d355,2022-07-06_09h24.29.995,Colour_Asymmetry_Pilot,2022.1.3,Win32,60.12867537,62c50e9c1127f2cd403a315f,0,111,111,44,1,threeone,,,,,,,,,,,,,,,,,,,,,,,,,,,,,,,,,,,,,,,,,,,,,,,,,,,,,,,,,,,,,,,,,,,,,,,,,,,,,,,,,,,,,,,,,,,,,,,,,,,,,,,,,,,,,,,,,,,,,,,,,,,,,,,,,,,,,,,,,,,,,,,,,,,,,,,,,,,,,
,,,,,,60eb105221914f6f26a89908,62c5389480569701d2f2d355,2022-07-06_09h24.29.995,Colour_Asymmetry_Pilot,2022.1.3,Win32,60.12867537,62c50e9c1127f2cd403a315f,0,112,112,1,1,onethree,,,,,,,,,,,,,,,,,,,,,,,,,,,,,,,,,,,,,,,,,,,,,,,,,,,,,,,,,,,,,,,,,,,,,,,,,,,,,,,,,,,,,,,,,,,,,,,,,,,,,,,,,,,,,,,,,,,,,,,,,,,,,,,,,,,,,,,,,,,,,,,,,,,,,,,,,,,,,
,,,,,,60eb105221914f6f26a89908,62c5389480569701d2f2d355,2022-07-06_09h24.29.995,Colour_Asymmetry_Pilot,2022.1.3,Win32,60.12867537,62c50e9c1127f2cd403a315f,0,113,113,82,1,twoone,,,,,,,,,,,,,,,,,,,,,,,,,,,,,,,,,,,,,,,,,,,,,,,,,,,,,,,,,,,,,,,,,,,,,,,,,,,,,,,,,,,,,,,,,,,,,,,,,,,,,,,,,,,,,,,,,,,,,,,,,,,,,,,,,,,,,,,,,,,,,,,,,,,,,,,,,,,,,
,,,,,,60eb105221914f6f26a89908,62c5389480569701d2f2d355,2022-07-06_09h24.29.995,Colour_Asymmetry_Pilot,2022.1.3,Win32,60.12867537,62c50e9c1127f2cd403a315f,0,114,114,62,1,fourtwo,,,,,,,,,,,,,,,,,,,,,,,,,,,,,,,,,,,,,,,,,,,,,,,,,,,,,,,,,,,,,,,,,,,,,,,,,,,,,,,,,,,,,,,,,,,,,,,,,,,,,,,,,,,,,,,,,,,,,,,,,,,,,,,,,,,,,,,,,,,,,,,,,,,,,,,,,,,,,
,,,,,,60eb105221914f6f26a89908,62c5389480569701d2f2d355,2022-07-06_09h24.29.995,Colour_Asymmetry_Pilot,2022.1.3,Win32,60.12867537,62c50e9c1127f2cd403a315f,0,115,115,123,1,twofour,,,,,,,,,,,,,,,,,,,,,,,,,,,,,,,,,,,,,,,,,,,,,,,,,,,,,,,,,,,,,,,,,,,,,,,,,,,,,,,,,,,,,,,,,,,,,,,,,,,,,,,,,,,,,,,,,,,,,,,,,,,,,,,,,,,,,,,,,,,,,,,,,,,,,,,,,,,,,
,,,,,,60eb105221914f6f26a89908,62c5389480569701d2f2d355,2022-07-06_09h24.29.995,Colour_Asymmetry_Pilot,2022.1.3,Win32,60.12867537,62c50e9c1127f2cd403a315f,0,116,116,29,1,threefour,,,,,,,,,,,,,,,,,,,,,,,,,,,,,,,,,,,,,,,,,,,,,,,,,,,,,,,,,,,,,,,,,,,,,,,,,,,,,,,,,,,,,,,,,,,,,,,,,,,,,,,,,,,,,,,,,,,,,,,,,,,,,,,,,,,,,,,,,,,,,,,,,,,,,,,,,,,,,
,,,,,,60eb105221914f6f26a89908,62c5389480569701d2f2d355,2022-07-06_09h24.29.995,Colour_Asymmetry_Pilot,2022.1.3,Win32,60.12867537,62c50e9c1127f2cd403a315f,0,117,117,54,1,fourtwo,,,,,,,,,,,,,,,,,,,,,,,,,,,,,,,,,,,,,,,,,,,,,,,,,,,,,,,,,,,,,,,,,,,,,,,,,,,,,,,,,,,,,,,,,,,,,,,,,,,,,,,,,,,,,,,,,,,,,,,,,,,,,,,,,,,,,,,,,,,,,,,,,,,,,,,,,,,,,
,,,,,,60eb105221914f6f26a89908,62c5389480569701d2f2d355,2022-07-06_09h24.29.995,Colour_Asymmetry_Pilot,2022.1.3,Win32,60.12867537,62c50e9c1127f2cd403a315f,0,118,118,106,1,twoone,,,,,,,,,,,,,,,,,,,,,,,,,,,,,,,,,,,,,,,,,,,,,,,,,,,,,,,,,,,,,,,,,,,,,,,,,,,,,,,,,,,,,,,,,,,,,,,,,,,,,,,,,,,,,,,,,,,,,,,,,,,,,,,,,,,,,,,,,,,,,,,,,,,,,,,,,,,,,
,,,,,,60eb105221914f6f26a89908,62c5389480569701d2f2d355,2022-07-06_09h24.29.995,Colour_Asymmetry_Pilot,2022.1.3,Win32,60.12867537,62c50e9c1127f2cd403a315f,0,119,119,41,1,onethree,,,,,,,,,,,,,,,,,,,,,,,,,,,,,,,,,,,,,,,,,,,,,,,,,,,,,,,,,,,,,,,,,,,,,,,,,,,,,,,,,,,,,,,,,,,,,,,,,,,,,,,,,,,,,,,,,,,,,,,,,,,,,,,,,,,,,,,,,,,,,,,,,,,,,,,,,,,,,
,,,,,,60eb105221914f6f26a89908,62c5389480569701d2f2d355,2022-07-06_09h24.29.995,Colour_Asymmetry_Pilot,2022.1.3,Win32,60.12867537,62c50e9c1127f2cd403a315f,0,120,120,115,1,twofour,,,,,,,,,,,,,,,,,,,,,,,,,,,,,,,,,,,,,,,,,,,,,,,,,,,,,,,,,,,,,,,,,,,,,,,,,,,,,,,,,,,,,,,,,,,,,,,,,,,,,,,,,,,,,,,,,,,,,,,,,,,,,,,,,,,,,,,,,,,,,,,,,,,,,,,,,,,,,
,,,,,,60eb105221914f6f26a89908,62c5389480569701d2f2d355,2022-07-06_09h24.29.995,Colour_Asymmetry_Pilot,2022.1.3,Win32,60.12867537,62c50e9c1127f2cd403a315f,0,121,121,47,1,fourthree,,,,,,,,,,,,,,,,,,,,,,,,,,,,,,,,,,,,,,,,,,,,,,,,,,,,,,,,,,,,,,,,,,,,,,,,,,,,,,,,,,,,,,,,,,,,,,,,,,,,,,,,,,,,,,,,,,,,,,,,,,,,,,,,,,,,,,,,,,,,,,,,,,,,,,,,,,,,,
,,,,,,60eb105221914f6f26a89908,62c5389480569701d2f2d355,2022-07-06_09h24.29.995,Colour_Asymmetry_Pilot,2022.1.3,Win32,60.12867537,62c50e9c1127f2cd403a315f,0,122,122,9,1,onethree,,,,,,,,,,,,,,,,,,,,,,,,,,,,,,,,,,,,,,,,,,,,,,,,,,,,,,,,,,,,,,,,,,,,,,,,,,,,,,,,,,,,,,,,,,,,,,,,,,,,,,,,,,,,,,,,,,,,,,,,,,,,,,,,,,,,,,,,,,,,,,,,,,,,,,,,,,,,,
,,,,,,60eb105221914f6f26a89908,62c5389480569701d2f2d355,2022-07-06_09h24.29.995,Colour_Asymmetry_Pilot,2022.1.3,Win32,60.12867537,62c50e9c1127f2cd403a315f,0,123,123,74,1,twoone,,,,,,,,,,,,,,,,,,,,,,,,,,,,,,,,,,,,,,,,,,,,,,,,,,,,,,,,,,,,,,,,,,,,,,,,,,,,,,,,,,,,,,,,,,,,,,,,,,,,,,,,,,,,,,,,,,,,,,,,,,,,,,,,,,,,,,,,,,,,,,,,,,,,,,,,,,,,,
,,,,,,60eb105221914f6f26a89908,62c5389480569701d2f2d355,2022-07-06_09h24.29.995,Colour_Asymmetry_Pilot,2022.1.3,Win32,60.12867537,62c50e9c1127f2cd403a315f,0,124,124,121,1,onethree,,,,,,,,,,,,,,,,,,,,,,,,,,,,,,,,,,,,,,,,,,,,,,,,,,,,,,,,,,,,,,,,,,,,,,,,,,,,,,,,,,,,,,,,,,,,,,,,,,,,,,,,,,,,,,,,,,,,,,,,,,,,,,,,,,,,,,,,,,,,,,,,,,,,,,,,,,,,,
,,,,,,60eb105221914f6f26a89908,62c5389480569701d2f2d355,2022-07-06_09h24.29.995,Colour_Asymmetry_Pilot,2022.1.3,Win32,60.12867537,62c50e9c1127f2cd403a315f,0,125,125,13,1,threefour,,,,,,,,,,,,,,,,,,,,,,,,,,,,,,,,,,,,,,,,,,,,,,,,,,,,,,,,,,,,,,,,,,,,,,,,,,,,,,,,,,,,,,,,,,,,,,,,,,,,,,,,,,,,,,,,,,,,,,,,,,,,,,,,,,,,,,,,,,,,,,,,,,,,,,,,,,,,,
,,,,,,60eb105221914f6f26a89908,62c5389480569701d2f2d355,2022-07-06_09h24.29.995,Colour_Asymmetry_Pilot,2022.1.3,Win32,60.12867537,62c50e9c1127f2cd403a315f,0,126,126,28,1,threeone,,,,,,,,,,,,,,,,,,,,,,,,,,,,,,,,,,,,,,,,,,,,,,,,,,,,,,,,,,,,,,,,,,,,,,,,,,,,,,,,,,,,,,,,,,,,,,,,,,,,,,,,,,,,,,,,,,,,,,,,,,,,,,,,,,,,,,,,,,,,,,,,,,,,,,,,,,,,,
,,,,,,60eb105221914f6f26a89908,62c5389480569701d2f2d355,2022-07-06_09h24.29.995,Colour_Asymmetry_Pilot,2022.1.3,Win32,60.12867537,62c50e9c1127f2cd403a315f,0,127,127,58,1,twoone,,,,,,,,,,,,,,,,,,,,,,,,,,,,,,,,,,,,,,,,,,,,,,,,,,,,,,,,,,,,,,,,,,,,,,,,,,,,,,,,,,,,,,,,,,,,,,,,,,,,,,,,,,,,,,,,,,,,,,,,,,,,,,,,,,,,,,,,,,,,,,,,,,,,,,,,,,,,,
,,,,,,60eb105221914f6f26a89908,62c5389480569701d2f2d355,2022-07-06_09h24.29.995,Colour_Asymmetry_Pilot,2022.1.3,Win32,60.12867537,62c50e9c1127f2cd403a315f,0,128,128,98,1,twoone,,,,,,,,,,,,,,,,,,,,,,,,,,,,,,,,,,,,,,,,,,,,,,,,,,,,,,,,,,,,,,,,,,,,,,,,,,,,,,,,,,,,,,,,,,,,,,,,,,,,,,,,,,,,,,,,,,,,,,,,,,,,,,,,,,,,,,,,,,,,,,,,,,,,,,,,,,,,,
,,,,,,60eb105221914f6f26a89908,62c5389480569701d2f2d355,2022-07-06_09h24.29.995,Colour_Asymmetry_Pilot,2022.1.3,Win32,60.12867537,62c50e9c1127f2cd403a315f,0,129,129,84,1,threeone,,,,,,,,,,,,,,,,,,,,,,,,,,,,,,,,,,,,,,,,,,,,,,,,,,,,,,,,,,,,,,,,,,,,,,,,,,,,,,,,,,,,,,,,,,,,,,,,,,,,,,,,,,,,,,,,,,,,,,,,,,,,,,,,,,,,,,,,,,,,,,,,,,,,,,,,,,,,,
,,,,,,60eb105221914f6f26a89908,62c5389480569701d2f2d355,2022-07-06_09h24.29.995,Colour_Asymmetry_Pilot,2022.1.3,Win32,60.12867537,62c50e9c1127f2cd403a315f,0,130,130,136,1,onetwo,,,,,,,,,,,,,,,,,,,,,,,,,,,,,,,,,,,,,,,,,,,,,,,,,,,,,,,,,,,,,,,,,,,,,,,,,,,,,,,,,,,,,,,,,,,,,,,,,,,,,,,,,,,,,,,,,,,,,,,,,,,,,,,,,,,,,,,,,,,,,,,,,,,,,,,,,,,,,
,,,,,,60eb105221914f6f26a89908,62c5389480569701d2f2d355,2022-07-06_09h24.29.995,Colour_Asymmetry_Pilot,2022.1.3,Win32,60.12867537,62c50e9c1127f2cd403a315f,0,131,131,97,1,onethree,,,,,,,,,,,,,,,,,,,,,,,,,,,,,,,,,,,,,,,,,,,,,,,,,,,,,,,,,,,,,,,,,,,,,,,,,,,,,,,,,,,,,,,,,,,,,,,,,,,,,,,,,,,,,,,,,,,,,,,,,,,,,,,,,,,,,,,,,,,,,,,,,,,,,,,,,,,,,
,,,,,,60eb105221914f6f26a89908,62c5389480569701d2f2d355,2022-07-06_09h24.29.995,Colour_Asymmetry_Pilot,2022.1.3,Win32,60.12867537,62c50e9c1127f2cd403a315f,0,132,132,51,1,twofour,,,,,,,,,,,,,,,,,,,,,,,,,,,,,,,,,,,,,,,,,,,,,,,,,,,,,,,,,,,,,,,,,,,,,,,,,,,,,,,,,,,,,,,,,,,,,,,,,,,,,,,,,,,,,,,,,,,,,,,,,,,,,,,,,,,,,,,,,,,,,,,,,,,,,,,,,,,,,
,,,,,,60eb105221914f6f26a89908,62c5389480569701d2f2d355,2022-07-06_09h24.29.995,Colour_Asymmetry_Pilot,2022.1.3,Win32,60.12867537,62c50e9c1127f2cd403a315f,0,133,133,88,1,onetwo,,,,,,,,,,,,,,,,,,,,,,,,,,,,,,,,,,,,,,,,,,,,,,,,,,,,,,,,,,,,,,,,,,,,,,,,,,,,,,,,,,,,,,,,,,,,,,,,,,,,,,,,,,,,,,,,,,,,,,,,,,,,,,,,,,,,,,,,,,,,,,,,,,,,,,,,,,,,,
,,,,,,60eb105221914f6f26a89908,62c5389480569701d2f2d355,2022-07-06_09h24.29.995,Colour_Asymmetry_Pilot,2022.1.3,Win32,60.12867537,62c50e9c1127f2cd403a315f,0,134,134,127,1,fourthree,,,,,,,,,,,,,,,,,,,,,,,,,,,,,,,,,,,,,,,,,,,,,,,,,,,,,,,,,,,,,,,,,,,,,,,,,,,,,,,,,,,,,,,,,,,,,,,,,,,,,,,,,,,,,,,,,,,,,,,,,,,,,,,,,,,,,,,,,,,,,,,,,,,,,,,,,,,,,
,,,,,,60eb105221914f6f26a89908,62c5389480569701d2f2d355,2022-07-06_09h24.29.995,Colour_Asymmetry_Pilot,2022.1.3,Win32,60.12867537,62c50e9c1127f2cd403a315f,0,135,135,147,1,twofour,,,,,,,,,,,,,,,,,,,,,,,,,,,,,,,,,,,,,,,,,,,,,,,,,,,,,,,,,,,,,,,,,,,,,,,,,,,,,,,,,,,,,,,,,,,,,,,,,,,,,,,,,,,,,,,,,,,,,,,,,,,,,,,,,,,,,,,,,,,,,,,,,,,,,,,,,,,,,
,,,,,,60eb105221914f6f26a89908,62c5389480569701d2f2d355,2022-07-06_09h24.29.995,Colour_Asymmetry_Pilot,2022.1.3,Win32,60.12867537,62c50e9c1127f2cd403a315f,0,136,136,109,1,threefour,,,,,,,,,,,,,,,,,,,,,,,,,,,,,,,,,,,,,,,,,,,,,,,,,,,,,,,,,,,,,,,,,,,,,,,,,,,,,,,,,,,,,,,,,,,,,,,,,,,,,,,,,,,,,,,,,,,,,,,,,,,,,,,,,,,,,,,,,,,,,,,,,,,,,,,,,,,,,
,,,,,,60eb105221914f6f26a89908,62c5389480569701d2f2d355,2022-07-06_09h24.29.995,Colour_Asymmetry_Pilot,2022.1.3,Win32,60.12867537,62c50e9c1127f2cd403a315f,0,137,137,69,1,threefour,,,,,,,,,,,,,,,,,,,,,,,,,,,,,,,,,,,,,,,,,,,,,,,,,,,,,,,,,,,,,,,,,,,,,,,,,,,,,,,,,,,,,,,,,,,,,,,,,,,,,,,,,,,,,,,,,,,,,,,,,,,,,,,,,,,,,,,,,,,,,,,,,,,,,,,,,,,,,
,,,,,,60eb105221914f6f26a89908,62c5389480569701d2f2d355,2022-07-06_09h24.29.995,Colour_Asymmetry_Pilot,2022.1.3,Win32,60.12867537,62c50e9c1127f2cd403a315f,0,138,138,79,1,fourthree,,,,,,,,,,,,,,,,,,,,,,,,,,,,,,,,,,,,,,,,,,,,,,,,,,,,,,,,,,,,,,,,,,,,,,,,,,,,,,,,,,,,,,,,,,,,,,,,,,,,,,,,,,,,,,,,,,,,,,,,,,,,,,,,,,,,,,,,,,,,,,,,,,,,,,,,,,,,,
,,,,,,60eb105221914f6f26a89908,62c5389480569701d2f2d355,2022-07-06_09h24.29.995,Colour_Asymmetry_Pilot,2022.1.3,Win32,60.12867537,62c50e9c1127f2cd403a315f,0,139,139,86,1,fourtwo,,,,,,,,,,,,,,,,,,,,,,,,,,,,,,,,,,,,,,,,,,,,,,,,,,,,,,,,,,,,,,,,,,,,,,,,,,,,,,,,,,,,,,,,,,,,,,,,,,,,,,,,,,,,,,,,,,,,,,,,,,,,,,,,,,,,,,,,,,,,,,,,,,,,,,,,,,,,,
,,,,,,60eb105221914f6f26a89908,62c5389480569701d2f2d355,2022-07-06_09h24.29.995,Colour_Asymmetry_Pilot,2022.1.3,Win32,60.12867537,62c50e9c1127f2cd403a315f,0,140,140,38,1,fourtwo,,,,,,,,,,,,,,,,,,,,,,,,,,,,,,,,,,,,,,,,,,,,,,,,,,,,,,,,,,,,,,,,,,,,,,,,,,,,,,,,,,,,,,,,,,,,,,,,,,,,,,,,,,,,,,,,,,,,,,,,,,,,,,,,,,,,,,,,,,,,,,,,,,,,,,,,,,,,,
,,,,,,60eb105221914f6f26a89908,62c5389480569701d2f2d355,2022-07-06_09h24.29.995,Colour_Asymmetry_Pilot,2022.1.3,Win32,60.12867537,62c50e9c1127f2cd403a315f,0,141,141,4,1,threeone,,,,,,,,,,,,,,,,,,,,,,,,,,,,,,,,,,,,,,,,,,,,,,,,,,,,,,,,,,,,,,,,,,,,,,,,,,,,,,,,,,,,,,,,,,,,,,,,,,,,,,,,,,,,,,,,,,,,,,,,,,,,,,,,,,,,,,,,,,,,,,,,,,,,,,,,,,,,,
,,,,,,60eb105221914f6f26a89908,62c5389480569701d2f2d355,2022-07-06_09h24.29.995,Colour_Asymmetry_Pilot,2022.1.3,Win32,60.12867537,62c50e9c1127f2cd403a315f,0,142,142,91,1,twofour,,,,,,,,,,,,,,,,,,,,,,,,,,,,,,,,,,,,,,,,,,,,,,,,,,,,,,,,,,,,,,,,,,,,,,,,,,,,,,,,,,,,,,,,,,,,,,,,,,,,,,,,,,,,,,,,,,,,,,,,,,,,,,,,,,,,,,,,,,,,,,,,,,,,,,,,,,,,,
,,,,,,60eb105221914f6f26a89908,62c5389480569701d2f2d355,2022-07-06_09h24.29.995,Colour_Asymmetry_Pilot,2022.1.3,Win32,60.12867537,62c50e9c1127f2cd403a315f,0,143,143,46,1,fourtwo,,,,,,,,,,,,,,,,,,,,,,,,,,,,,,,,,,,,,,,,,,,,,,,,,,,,,,,,,,,,,,,,,,,,,,,,,,,,,,,,,,,,,,,,,,,,,,,,,,,,,,,,,,,,,,,,,,,,,,,,,,,,,,,,,,,,,,,,,,,,,,,,,,,,,,,,,,,,,
,,,,,,60eb105221914f6f26a89908,62c5389480569701d2f2d355,2022-07-06_09h24.29.995,Colour_Asymmetry_Pilot,2022.1.3,Win32,60.12867537,62c50e9c1127f2cd403a315f,0,144,144,64,1,onetwo,,,,,,,,,,,,,,,,,,,,,,,,,,,,,,,,,,,,,,,,,,,,,,,,,,,,,,,,,,,,,,,,,,,,,,,,,,,,,,,,,,,,,,,,,,,,,,,,,,,,,,,,,,,,,,,,,,,,,,,,,,,,,,,,,,,,,,,,,,,,,,,,,,,,,,,,,,,,,
,,,,,,60eb105221914f6f26a89908,62c5389480569701d2f2d355,2022-07-06_09h24.29.995,Colour_Asymmetry_Pilot,2022.1.3,Win32,60.12867537,62c50e9c1127f2cd403a315f,0,145,145,37,1,threefour,,,,,,,,,,,,,,,,,,,,,,,,,,,,,,,,,,,,,,,,,,,,,,,,,,,,,,,,,,,,,,,,,,,,,,,,,,,,,,,,,,,,,,,,,,,,,,,,,,,,,,,,,,,,,,,,,,,,,,,,,,,,,,,,,,,,,,,,,,,,,,,,,,,,,,,,,,,,,
,,,,,,60eb105221914f6f26a89908,62c5389480569701d2f2d355,2022-07-06_09h24.29.995,Colour_Asymmetry_Pilot,2022.1.3,Win32,60.12867537,62c50e9c1127f2cd403a315f,0,146,146,158,1,fourtwo,,,,,,,,,,,,,,,,,,,,,,,,,,,,,,,,,,,,,,,,,,,,,,,,,,,,,,,,,,,,,,,,,,,,,,,,,,,,,,,,,,,,,,,,,,,,,,,,,,,,,,,,,,,,,,,,,,,,,,,,,,,,,,,,,,,,,,,,,,,,,,,,,,,,,,,,,,,,,
,,,,,,60eb105221914f6f26a89908,62c5389480569701d2f2d355,2022-07-06_09h24.29.995,Colour_Asymmetry_Pilot,2022.1.3,Win32,60.12867537,62c50e9c1127f2cd403a315f,0,147,147,153,1,onethree,,,,,,,,,,,,,,,,,,,,,,,,,,,,,,,,,,,,,,,,,,,,,,,,,,,,,,,,,,,,,,,,,,,,,,,,,,,,,,,,,,,,,,,,,,,,,,,,,,,,,,,,,,,,,,,,,,,,,,,,,,,,,,,,,,,,,,,,,,,,,,,,,,,,,,,,,,,,,
,,,,,,60eb105221914f6f26a89908,62c5389480569701d2f2d355,2022-07-06_09h24.29.995,Colour_Asymmetry_Pilot,2022.1.3,Win32,60.12867537,62c50e9c1127f2cd403a315f,0,148,148,73,1,onethree,,,,,,,,,,,,,,,,,,,,,,,,,,,,,,,,,,,,,,,,,,,,,,,,,,,,,,,,,,,,,,,,,,,,,,,,,,,,,,,,,,,,,,,,,,,,,,,,,,,,,,,,,,,,,,,,,,,,,,,,,,,,,,,,,,,,,,,,,,,,,,,,,,,,,,,,,,,,,
,,,,,,60eb105221914f6f26a89908,62c5389480569701d2f2d355,2022-07-06_09h24.29.995,Colour_Asymmetry_Pilot,2022.1.3,Win32,60.12867537,62c50e9c1127f2cd403a315f,0,149,149,112,1,onetwo,,,,,,,,,,,,,,,,,,,,,,,,,,,,,,,,,,,,,,,,,,,,,,,,,,,,,,,,,,,,,,,,,,,,,,,,,,,,,,,,,,,,,,,,,,,,,,,,,,,,,,,,,,,,,,,,,,,,,,,,,,,,,,,,,,,,,,,,,,,,,,,,,,,,,,,,,,,,,
,,,,,,60eb105221914f6f26a89908,62c5389480569701d2f2d355,2022-07-06_09h24.29.995,Colour_Asymmetry_Pilot,2022.1.3,Win32,60.12867537,62c50e9c1127f2cd403a315f,0,150,150,146,1,twoone,,,,,,,,,,,,,,,,,,,,,,,,,,,,,,,,,,,,,,,,,,,,,,,,,,,,,,,,,,,,,,,,,,,,,,,,,,,,,,,,,,,,,,,,,,,,,,,,,,,,,,,,,,,,,,,,,,,,,,,,,,,,,,,,,,,,,,,,,,,,,,,,,,,,,,,,,,,,,
,,,,,,60eb105221914f6f26a89908,62c5389480569701d2f2d355,2022-07-06_09h24.29.995,Colour_Asymmetry_Pilot,2022.1.3,Win32,60.12867537,62c50e9c1127f2cd403a315f,0,151,151,87,1,fourthree,,,,,,,,,,,,,,,,,,,,,,,,,,,,,,,,,,,,,,,,,,,,,,,,,,,,,,,,,,,,,,,,,,,,,,,,,,,,,,,,,,,,,,,,,,,,,,,,,,,,,,,,,,,,,,,,,,,,,,,,,,,,,,,,,,,,,,,,,,,,,,,,,,,,,,,,,,,,,
,,,,,,60eb105221914f6f26a89908,62c5389480569701d2f2d355,2022-07-06_09h24.29.995,Colour_Asymmetry_Pilot,2022.1.3,Win32,60.12867537,62c50e9c1127f2cd403a315f,0,152,152,77,1,threefour,,,,,,,,,,,,,,,,,,,,,,,,,,,,,,,,,,,,,,,,,,,,,,,,,,,,,,,,,,,,,,,,,,,,,,,,,,,,,,,,,,,,,,,,,,,,,,,,,,,,,,,,,,,,,,,,,,,,,,,,,,,,,,,,,,,,,,,,,,,,,,,,,,,,,,,,,,,,,
,,,,,,60eb105221914f6f26a89908,62c5389480569701d2f2d355,2022-07-06_09h24.29.995,Colour_Asymmetry_Pilot,2022.1.3,Win32,60.12867537,62c50e9c1127f2cd403a315f,0,153,153,141,1,threefour,,,,,,,,,,,,,,,,,,,,,,,,,,,,,,,,,,,,,,,,,,,,,,,,,,,,,,,,,,,,,,,,,,,,,,,,,,,,,,,,,,,,,,,,,,,,,,,,,,,,,,,,,,,,,,,,,,,,,,,,,,,,,,,,,,,,,,,,,,,,,,,,,,,,,,,,,,,,,
,,,,,,60eb105221914f6f26a89908,62c5389480569701d2f2d355,2022-07-06_09h24.29.995,Colour_Asymmetry_Pilot,2022.1.3,Win32,60.12867537,62c50e9c1127f2cd403a315f,0,154,154,134,1,fourtwo,,,,,,,,,,,,,,,,,,,,,,,,,,,,,,,,,,,,,,,,,,,,,,,,,,,,,,,,,,,,,,,,,,,,,,,,,,,,,,,,,,,,,,,,,,,,,,,,,,,,,,,,,,,,,,,,,,,,,,,,,,,,,,,,,,,,,,,,,,,,,,,,,,,,,,,,,,,,,
,,,,,,60eb105221914f6f26a89908,62c5389480569701d2f2d355,2022-07-06_09h24.29.995,Colour_Asymmetry_Pilot,2022.1.3,Win32,60.12867537,62c50e9c1127f2cd403a315f,0,155,155,17,1,onethree,,,,,,,,,,,,,,,,,,,,,,,,,,,,,,,,,,,,,,,,,,,,,,,,,,,,,,,,,,,,,,,,,,,,,,,,,,,,,,,,,,,,,,,,,,,,,,,,,,,,,,,,,,,,,,,,,,,,,,,,,,,,,,,,,,,,,,,,,,,,,,,,,,,,,,,,,,,,,
,,,,,,60eb105221914f6f26a89908,62c5389480569701d2f2d355,2022-07-06_09h24.29.995,Colour_Asymmetry_Pilot,2022.1.3,Win32,60.12867537,62c50e9c1127f2cd403a315f,0,156,156,116,1,threeone,,,,,,,,,,,,,,,,,,,,,,,,,,,,,,,,,,,,,,,,,,,,,,,,,,,,,,,,,,,,,,,,,,,,,,,,,,,,,,,,,,,,,,,,,,,,,,,,,,,,,,,,,,,,,,,,,,,,,,,,,,,,,,,,,,,,,,,,,,,,,,,,,,,,,,,,,,,,,
,,,,,,60eb105221914f6f26a89908,62c5389480569701d2f2d355,2022-07-06_09h24.29.995,Colour_Asymmetry_Pilot,2022.1.3,Win32,60.12867537,62c50e9c1127f2cd403a315f,0,157,157,61,1,threefour,,,,,,,,,,,,,,,,,,,,,,,,,,,,,,,,,,,,,,,,,,,,,,,,,,,,,,,,,,,,,,,,,,,,,,,,,,,,,,,,,,,,,,,,,,,,,,,,,,,,,,,,,,,,,,,,,,,,,,,,,,,,,,,,,,,,,,,,,,,,,,,,,,,,,,,,,,,,,
,,,,,,60eb105221914f6f26a89908,62c5389480569701d2f2d355,2022-07-06_09h24.29.995,Colour_Asymmetry_Pilot,2022.1.3,Win32,60.12867537,62c50e9c1127f2cd403a315f,0,158,158,101,1,threefour,,,,,,,,,,,,,,,,,,,,,,,,,,,,,,,,,,,,,,,,,,,,,,,,,,,,,,,,,,,,,,,,,,,,,,,,,,,,,,,,,,,,,,,,,,,,,,,,,,,,,,,,,,,,,,,,,,,,,,,,,,,,,,,,,,,,,,,,,,,,,,,,,,,,,,,,,,,,,
,,,,,,60eb105221914f6f26a89908,62c5389480569701d2f2d355,2022-07-06_09h24.29.995,Colour_Asymmetry_Pilot,2022.1.3,Win32,60.12867537,62c50e9c1127f2cd403a315f,0,159,159,45,1,threefour,,,,,,,,,,,,,,,,,,,,,,,,,,,,,,,,,,,,,,,,,,,,,,,,,,,,,,,,,,,,,,,,,,,,,,,,,,,,,,,,,,,,,,,,,,,,,,,,,,,,,,,,,,,,,,,,,,,,,,,,,,,,,,,,,,,,,,,,,,,,,,,,,,,,,,,,,,,,,
,,,,,,60eb105221914f6f26a89908,62c5389480569701d2f2d355,2022-07-06_09h24.29.995,Colour_Asymmetry_Pilot,2022.1.3,Win32,60.12867537,62c50e9c1127f2cd403a315f,0,160,160,92,1,threeone,,,,,,,,,,,,,,,,,,,,,,,,,,,,,,,,,,,,,,,,,,,,,,,,,,,,,,,,,,,,,,,,,,,,,,,,,,,,,,,,,,,,,,,,,,,,,,,,,,,,,,,,,,,,,,,,,,,,,,,,,,,,,,,,,,,,,,,,,,,,,,,,,,,,,,,,,,,,,
,,,,,,60eb105221914f6f26a89908,62c5389480569701d2f2d355,2022-07-06_09h24.29.995,Colour_Asymmetry_Pilot,2022.1.3,Win32,60.12867537,62c50e9c1127f2cd403a315f,0,161,161,15,1,fourthree,,,,,,,,,,,,,,,,,,,,,,,,,,,,,,,,,,,,,,,,,,,,,,,,,,,,,,,,,,,,,,,,,,,,,,,,,,,,,,,,,,,,,,,,,,,,,,,,,,,,,,,,,,,,,,,,,,,,,,,,,,,,,,,,,,,,,,,,,,,,,,,,,,,,,,,,,,,,,
,,,,,,60eb105221914f6f26a89908,62c5389480569701d2f2d355,2022-07-06_09h24.29.995,Colour_Asymmetry_Pilot,2022.1.3,Win32,60.12867537,62c50e9c1127f2cd403a315f,,,,,,,space,2.3867,space,11.5903,space,45.6277,space,20.9294,space,5.6143,space,7.6953,"[-0.2942,-0.7648,-0.7492000000000001]",fourtwo,"[0.7646000000000002,0.07440000000000002,0.2704]",3,6.6853,82,32,1,0,0,response1disk_5,6.666687012,0.666656494,1,0,0,rectangle_8,6.666687012,0.666656494,1,0,0,3,6.666687012,0.666656494,1,0,0,0,0,0,0,1,,,,,,,,,,,,,,,,,,,,,,,,,,,,,,,,,,,,,,,,,,,,,,,,,,,,,,,,,,,,,,,,,,,,,,,,,,,,,,,,,,,,,,,,,,,,,,,,,,,,,,,,,,,,,,,,
,,,,,,60eb105221914f6f26a89908,62c5389480569701d2f2d355,2022-07-06_09h24.29.995,Colour_Asymmetry_Pilot,2022.1.3,Win32,60.12867537,62c50e9c1127f2cd403a315f,,,,,,,,,,,,,,,,,,,"[-0.06680000000000008,-0.45100000000000007,-0.906]",twofour,"[-0.9844,-0.9688,-0.9922]",-1,3.9501,-27.33331299,-60,1,0,0,response5disk_5,-1.333312988,0,1,0,0,rectangle_8,-1.333312988,0,1,0,0,3,-1.333312988,0,1,0,0,1,0,1,0,1,,,,,,,,,,,,,,,,,,,,,,,,,,,,,,,,,,,,,,,,,,,,,,,,,,,,,,,,,,,,,,,,,,,,,,,,,,,,,,,,,,,,,,,,,,,,,,,,,,,,,,,,,,,,,,,,
,,,,,,60eb105221914f6f26a89908,62c5389480569701d2f2d355,2022-07-06_09h24.29.995,Colour_Asymmetry_Pilot,2022.1.3,Win32,60.12867537,62c50e9c1127f2cd403a315f,,,,,,,,,,,,,,,,,,,"[-0.8198,-0.5138,-0.7492000000000001]",threeone,"[-0.10599999999999998,-0.15300000000000002,0.15280000000000005]",-3,3.8497,-64,38.66665649,1,0,0,response7disk_5,6,-2.666687012,1,0,0,rectangle_8,6,-2.666687012,1,0,0,3,6,-2.666687012,1,0,0,2,0,2,0,1,,,,,,,,,,,,,,,,,,,,,,,,,,,,,,,,,,,,,,,,,,,,,,,,,,,,,,,,,,,,,,,,,,,,,,,,,,,,,,,,,,,,,,,,,,,,,,,,,,,,,,,,,,,,,,,,
,,,,,,60eb105221914f6f26a89908,62c5389480569701d2f2d355,2022-07-06_09h24.29.995,Colour_Asymmetry_Pilot,2022.1.3,Win32,60.12867537,62c50e9c1127f2cd403a315f,,,,,,,,,,,,,,,,,,,"[0.7646000000000002,0.07440000000000002,0.2704]",threefour,"[-0.6706000000000001,-0.6157999999999999,-0.6786]",-4,1.4522,-36.66662598,82,1,0,0,response7disk_5,8,-4,1,0,0,rectangle_8,8,-4,1,0,0,3,8,-4,1,0,0,3,0,3,0,1,,,,,,,,,,,,,,,,,,,,,,,,,,,,,,,,,,,,,,,,,,,,,,,,,,,,,,,,,,,,,,,,,,,,,,,,,,,,,,,,,,,,,,,,,,,,,,,,,,,,,,,,,,,,,,,,
,,,,,,60eb105221914f6f26a89908,62c5389480569701d2f2d355,2022-07-06_09h24.29.995,Colour_Asymmetry_Pilot,2022.1.3,Win32,60.12867537,62c50e9c1127f2cd403a315f,,,,,,,,,,,,,,,,,,,"[0.5528,0.7409999999999999,-0.71]",threefour,"[-0.10599999999999998,-0.15300000000000002,0.15280000000000005]",-3,1.5001,-60,28,1,0,0,response7disk_5,16.66668701,5.333312988,1,0,0,rectangle_8,89.33337402,34.66665649,1,0,0,3,-8.666625977,1.333312988,1,0,0,4,0,4,0,1,response1disk_7,6,rectangle_4,,,,,,,,,,,,,,,,,,,,,,,,,,,,,,,,,,,,,,,,,,,,,,,,,,,,,,,,,,,,,,,,,,,,,,,,,,,,,,,,,,,,,,,,,,,,,,,,,,,,,,,,,,,,,
,,,,,,60eb105221914f6f26a89908,62c5389480569701d2f2d355,2022-07-06_09h24.29.995,Colour_Asymmetry_Pilot,2022.1.3,Win32,60.12867537,62c50e9c1127f2cd403a315f,,,,,,,,,,,,,,,,,,,"[0.19199999999999995,0.18419999999999992,0.5136000000000001]",onetwo,"[0.5449999999999999,-0.31000000000000005,-0.0354000000000001]",1,2.3323,34.66668701,-66,1,0,0,response3disk_5,2,-3.333343506,1,0,0,rectangle_8,83.33337402,36.66665649,1,0,0,3,7.333374023,0,1,0,0,5,0,5,0,1,response1disk_7,6,rectangle_4,,,,,,,,,,,,,,,,,,,,,,,,,,,,,,,,,,,,,,,,,,,,,,,,,,,,,,,,,,,,,,,,,,,,,,,,,,,,,,,,,,,,,,,,,,,,,,,,,,,,,,,,,,,,,
,,,,,,60eb105221914f6f26a89908,62c5389480569701d2f2d355,2022-07-06_09h24.29.995,Colour_Asymmetry_Pilot,2022.1.3,Win32,60.12867537,62c50e9c1127f2cd403a315f,,,,,,,,,,,,,,,,,,,"[-0.7412000000000001,-0.08239999999999992,-0.6864]",fourtwo,"[0.7176,-0.906,-0.6864]",-3,2.498,-65.33331299,40,1,0,0,response7disk_5,8,-2.666687012,1,0,0,rectangle_8,8,-2.666687012,1,0,0,3,8,-2.666687012,1,0,0,6,0,6,0,1,,,,,,,,,,,,,,,,,,,,,,,,,,,,,,,,,,,,,,,,,,,,,,,,,,,,,,,,,,,,,,,,,,,,,,,,,,,,,,,,,,,,,,,,,,,,,,,,,,,,,,,,,,,,,,,,
,,,,,,60eb105221914f6f26a89908,62c5389480569701d2f2d355,2022-07-06_09h24.29.995,Colour_Asymmetry_Pilot,2022.1.3,Win32,60.12867537,62c50e9c1127f2cd403a315f,,,,,,,,,,,,,,,,,,,,fourtwo,,-4,1.8831,,,,,,,,,,,,,,,,,,,,,,,,,,,,,,,,space,4.9262,"[0.34099999999999997,0.5841999999999998,-0.9844]","[-0.01980000000000004,-0.5138,-0.38039999999999996]",-38,69.33331299,1,0,0,response7disk,-12,-0.666687012,1,0,0,rectangle,-12,-0.666687012,1,0,0,,2,0.0019,0,-12,-0.666687012,1,0,0,0,0,0,123,1,42,second,,,,,,,,,,,,,,,,,,,,,,,,,,,,,,,,,,,,,,,,,,,,,,,,,,,,,,,,,,,,,,,,,,,,,,,,
,,,,,,60eb105221914f6f26a89908,62c5389480569701d2f2d355,2022-07-06_09h24.29.995,Colour_Asymmetry_Pilot,2022.1.3,Win32,60.12867537,62c50e9c1127f2cd403a315f,,,,,,,,,,,,,,,,,,,,threeone,,-4,0.6843,,,,,,,,,,,,,,,,,,,,,,,,,,,,,,,,,,"[0.5449999999999999,-0.31000000000000005,-0.0354000000000001]","[-0.30200000000000005,0.14500000000000002,0.2784]",-54.66662598,78,1,0,0,response7disk,5.333374023,-2.666687012,1,0,0,rectangle,5.333374023,-2.666687012,1,0,0,,3,0.0031,0,5.333374023,-2.666687012,1,0,0,0,1,1,81,1,0,second,,,,,,,,,,,,,,,,,,,,,,,,,,,,,,,,,,,,,,,,,,,,,,,,,,,,,,,,,,,,,,,,,,,,,,,,
,,,,,,60eb105221914f6f26a89908,62c5389480569701d2f2d355,2022-07-06_09h24.29.995,Colour_Asymmetry_Pilot,2022.1.3,Win32,60.12867537,62c50e9c1127f2cd403a315f,,,,,,,,,,,,,,,,,,,,twofour,,-3,1.0662,,,,,,,,,,,,,,,,,,,,,,,,,,,,,,,,,,"[-0.38039999999999996,-0.4276,-0.1452]","[0.8115999999999999,-0.0040000000000000036,-0.09819999999999995]",-64,30.66665649,1,0,0,response7disk,-2,0.666656494,1,0,0,rectangle,77.33337402,-33.33334351,1,0,0,2,2,2.3859,1,-8,9.333312988,1,0,0,0,2,2,55,1,55,first,response3disk_3,rectangle,,,,,,,,,,,,,,,,,,,,,,,,,,,,,,,,,,,,,,,,,,,,,,,,,,,,,,,,,,,,,,,,,,,,,,
,,,,,,60eb105221914f6f26a89908,62c5389480569701d2f2d355,2022-07-06_09h24.29.995,Colour_Asymmetry_Pilot,2022.1.3,Win32,60.12867537,62c50e9c1127f2cd403a315f,,,,,,,,,,,,,,,,,,,,onetwo,,1,1.9988,,,,,,,,,,,,,,,,,,,,,,,,,,,,,,,,,,"[-0.09019999999999995,0.44300000000000006,0.5371999999999999]","[-0.24719999999999998,0.5213999999999999,-0.12959999999999994]",36,-90,1,0,0,response3disk,-6.666625977,-2,1,0,0,rectangle,-6.666625977,-2,1,0,0,2,2,0.0011,0,-6.666625977,-2,1,0,0,0,3,3,17,1,17,first,,,,,,,,,,,,,,,,,,,,,,,,,,,,,,,,,,,,,,,,,,,,,,,,,,,,,,,,,,,,,,,,,,,,,,,,
,,,,,,60eb105221914f6f26a89908,62c5389480569701d2f2d355,2022-07-06_09h24.29.995,Colour_Asymmetry_Pilot,2022.1.3,Win32,60.12867537,62c50e9c1127f2cd403a315f,,,,,,,,,,,,,,,,,,,,twoone,,-1,1.8829,,,,,,,,,,,,,,,,,,,,,,,,,,,,,,,,,,"[0.05879999999999996,0.2784,0.5841999999999998]","[0.9372,0.20779999999999998,0.2704]",-46.66662598,-78,1,0,0,response5disk,-10.66662598,-4,1,0,0,rectangle,-10.66662598,-4,1,0,0,2,2,0.0009,0,-10.66662598,-4,1,0,0,0,4,4,40,1,40,first,,,,,,,,,,,,,,,,,,,,,,,,,,,,,,,,,,,,,,,,,,,,,,,,,,,,,,,,,,,,,,,,,,,,,,,,
,,,,,,60eb105221914f6f26a89908,62c5389480569701d2f2d355,2022-07-06_09h24.29.995,Colour_Asymmetry_Pilot,2022.1.3,Win32,60.12867537,62c50e9c1127f2cd403a315f,,,,,,,,,,,,,,,,,,,,fourtwo,,1,0.702,,,,,,,,,,,,,,,,,,,,,,,,,,,,,,,,,,"[0.12939999999999996,-0.2864,0.3253999999999999]","[0.05879999999999996,0.2784,0.5841999999999998]",38.66668701,-74,1,0,0,response3disk,1.333374023,-7.333343506,1,0,0,rectangle,1.333374023,-7.333343506,1,0,0,2,2,0.0002,0,1.333374023,-7.333343506,1,0,0,0,5,5,33,1,33,first,,,,,,,,,,,,,,,,,,,,,,,,,,,,,,,,,,,,,,,,,,,,,,,,,,,,,,,,,,,,,,,,,,,,,,,,
,,,,,,60eb105221914f6f26a89908,62c5389480569701d2f2d355,2022-07-06_09h24.29.995,Colour_Asymmetry_Pilot,2022.1.3,Win32,60.12867537,62c50e9c1127f2cd403a315f,,,,,,,,,,,,,,,,,,,,fourtwo,,-3,1.309,,,,,,,,,,,,,,,,,,,,,,,,,,,,,,,,,,"[-0.01980000000000004,-0.5138,-0.38039999999999996]","[-0.07459999999999989,0.12139999999999995,-0.9922]",-70.66662598,39.33331299,1,0,0,response7disk,-5.333312988,1.333312988,1,0,0,rectangle,-5.333312988,1.333312988,1,0,0,2,3,0.0023,0,-5.333312988,1.333312988,1,0,0,0,6,6,99,1,18,second,,,,,,,,,,,,,,,,,,,,,,,,,,,,,,,,,,,,,,,,,,,,,,,,,,,,,,,,,,,,,,,,,,,,,,,,
,,,,,,60eb105221914f6f26a89908,62c5389480569701d2f2d355,2022-07-06_09h24.29.995,Colour_Asymmetry_Pilot,2022.1.3,Win32,60.12867537,62c50e9c1127f2cd403a315f,,,,,,,,,,,,,,,,,,,,threefour,,-4,0.6664,,,,,,,,,,,,,,,,,,,,,,,,,,,,,,,,,,"[-0.4902000000000001,0.2704,-0.45899999999999996]","[0.30180000000000007,-0.7884,-0.9844]",-30,65.33331299,1,0,0,response7disk,15.33337402,5.333312988,1,0,0,rectangle,15.33337402,5.333312988,1,0,0,2,1,0.0025,0,15.33337402,5.333312988,1,0,0,0,7,7,144,1,63,second,,,,,,,,,,,,,,,,,,,,,,,,,,,,,,,,,,,,,,,,,,,,,,,,,,,,,,,,,,,,,,,,,,,,,,,,
,,,,,,60eb105221914f6f26a89908,62c5389480569701d2f2d355,2022-07-06_09h24.29.995,Colour_Asymmetry_Pilot,2022.1.3,Win32,60.12867537,62c50e9c1127f2cd403a315f,,,,,,,,,,,,,,,,,,,,fourthree,,-3,0.8624,,,,,,,,,,,,,,,,,,,,,,,,,,,,,,,,,,"[-0.30200000000000005,0.14500000000000002,0.2784]","[0.5449999999999999,-0.31000000000000005,-0.0354000000000001]",-51.33331299,28.66665649,1,0,0,response7disk,-11.33331299,3.333312988,1,0,0,rectangle,-11.33331299,3.333312988,1,0,0,2,2,0.0014,0,-11.33331299,3.333312988,1,0,0,0,8,8,0,1,0,first,,,,,,,,,,,,,,,,,,,,,,,,,,,,,,,,,,,,,,,,,,,,,,,,,,,,,,,,,,,,,,,,,,,,,,,,
,,,,,,60eb105221914f6f26a89908,62c5389480569701d2f2d355,2022-07-06_09h24.29.995,Colour_Asymmetry_Pilot,2022.1.3,Win32,60.12867537,62c50e9c1127f2cd403a315f,,,,,,,,,,,,,,,,,,,,twoone,,-3,1.3337,,,,,,,,,,,,,,,,,,,,,,,,,,,,,,,,,,"[0.23920000000000008,0.2704,0.16060000000000008]","[-0.6235999999999999,-0.6786,-0.08239999999999992]",-64,33.33331299,1,0,0,response7disk,-2.666625977,0.666656494,1,0,0,rectangle,-2.666625977,0.666656494,1,0,0,2,1,0.0009,0,-2.666625977,0.666656494,1,0,0,0,9,9,142,1,61,second,,,,,,,,,,,,,,,,,,,,,,,,,,,,,,,,,,,,,,,,,,,,,,,,,,,,,,,,,,,,,,,,,,,,,,,,
,,,,,,60eb105221914f6f26a89908,62c5389480569701d2f2d355,2022-07-06_09h24.29.995,Colour_Asymmetry_Pilot,2022.1.3,Win32,60.12867537,62c50e9c1127f2cd403a315f,,,,,,,,,,,,,,,,,,,,twofour,,-4,1.5433,,,,,,,,,,,,,,,,,,,,,,,,,,,,,,,,,,"[-0.34920000000000007,-0.702,-0.5216]","[-0.2942,-0.24719999999999998,-0.357]",-29.33331299,64.66665649,1,0,0,response7disk,18,-5.333343506,1,0,0,rectangle,69.33337402,-32,1,0,0,2,2,1.9306,1,16,-1.333343506,1,0,0,0,10,10,97,1,16,second,response3disk_3,rectangle,,,,,,,,,,,,,,,,,,,,,,,,,,,,,,,,,,,,,,,,,,,,,,,,,,,,,,,,,,,,,,,,,,,,,,
,,,,,,60eb105221914f6f26a89908,62c5389480569701d2f2d355,2022-07-06_09h24.29.995,Colour_Asymmetry_Pilot,2022.1.3,Win32,60.12867537,62c50e9c1127f2cd403a315f,,,,,,,,,,,,,,,,,,,,onethree,,-2,2.3342,,,,,,,,,,,,,,,,,,,,,,,,,,,,,,,,,,"[0.5528,0.7409999999999999,-0.71]","[0.9372,0.20779999999999998,0.2704]",-54.66662598,-30.66668701,1,0,0,response5disk,14,-2,1,0,0,rectangle,14,-2,1,0,0,2,3,0.0007,0,14,-2,1,0,0,0,11,11,80,1,80,first,,,,,,,,,,,,,,,,,,,,,,,,,,,,,,,,,,,,,,,,,,,,,,,,,,,,,,,,,,,,,,,,,,,,,,,,
,,,,,,60eb105221914f6f26a89908,62c5389480569701d2f2d355,2022-07-06_09h24.29.995,Colour_Asymmetry_Pilot,2022.1.3,Win32,60.12867537,62c50e9c1127f2cd403a315f,,,,,,,,,,,,,,,,,,,,onethree,,-1,2.2833,,,,,,,,,,,,,,,,,,,,,,,,,,,,,,,,,,"[0.9842,0.7409999999999999,-0.6628000000000001]","[0.0351999999999999,0.41159999999999997,0.0038000000000000256]",-24,-55.33334351,1,0,0,response5disk,-8,-0.666687012,1,0,0,rectangle,-8,-0.666687012,1,0,0,2,1,0.0007,0,-8,-0.666687012,1,0,0,0,12,12,48,1,48,first,,,,,,,,,,,,,,,,,,,,,,,,,,,,,,,,,,,,,,,,,,,,,,,,,,,,,,,,,,,,,,,,,,,,,,,,
,,,,,,60eb105221914f6f26a89908,62c5389480569701d2f2d355,2022-07-06_09h24.29.995,Colour_Asymmetry_Pilot,2022.1.3,Win32,60.12867537,62c50e9c1127f2cd403a315f,,,,,,,,,,,,,,,,,,,,threefour,,-1,1.6236,,,,,,,,,,,,,,,,,,,,,,,,,,,,,,,,,,"[0.23120000000000007,-0.7726,-0.34120000000000006]","[-0.9216,-0.5529999999999999,-0.3962]",-28.66662598,-56,1,0,0,response5disk,5.333374023,0,1,0,0,rectangle,5.333374023,0,1,0,0,2,2,0.0018,0,5.333374023,0,1,0,0,0,13,13,108,1,27,second,,,,,,,,,,,,,,,,,,,,,,,,,,,,,,,,,,,,,,,,,,,,,,,,,,,,,,,,,,,,,,,,,,,,,,,,
,,,,,,60eb105221914f6f26a89908,62c5389480569701d2f2d355,2022-07-06_09h24.29.995,Colour_Asymmetry_Pilot,2022.1.3,Win32,60.12867537,62c50e9c1127f2cd403a315f,,,,,,,,,,,,,,,,,,,,fourtwo,,-3,2.3157,,,,,,,,,,,,,,,,,,,,,,,,,,,,,,,,,,"[-0.10599999999999998,-0.10599999999999998,0.5841999999999998]","[0.22340000000000004,-0.9296,-0.7884]",-73.33331299,22,1,0,0,response7disk,2,-4.666687012,1,0,0,rectangle,2,-4.666687012,1,0,0,2,2,0.0018,0,2,-4.666687012,1,0,0,0,14,14,66,1,66,first,,,,,,,,,,,,,,,,,,,,,,,,,,,,,,,,,,,,,,,,,,,,,,,,,,,,,,,,,,,,,,,,,,,,,,,,
