trials.thisRepN,trials.thisTrialN,trials.thisN,trials.thisIndex,trials.ran,Colourcodes,participant,session,date,expName,psychopyVersion,OS,frameRate,study_id,trials_4.thisRepN,trials_4.thisTrialN,trials_4.thisN,trials_4.thisIndex,trials_4.ran,StimulusPos,key_resp.keys,key_resp.rt,key_resp_2.keys,key_resp_2.rt,key_resp_15.keys,key_resp_15.rt,key_resp_17.keys,key_resp_17.rt,key_resp_9.keys,key_resp_9.rt,key_resp_10.keys,key_resp_10.rt,Circle1_col,Ecc,Circle2_col,similarity,response_time,mouse_5.x,mouse_5.y,mouse_5.leftButton,mouse_5.midButton,mouse_5.rightButton,mouse_5.clicked_name,mouse_10.x,mouse_10.y,mouse_10.leftButton,mouse_10.midButton,mouse_10.rightButton,mouse_10.clicked_name,mouse_7.x,mouse_7.y,mouse_7.leftButton,mouse_7.midButton,mouse_7.rightButton,catchnumberprac,mouse_6.x,mouse_6.y,mouse_6.leftButton,mouse_6.midButton,mouse_6.rightButton,duringprac.thisRepN,duringprac.thisTrialN,duringprac.thisN,duringprac.thisIndex,duringprac.ran,mouse_7.clicked_name,catchprac,mouse_6.clicked_name,key_resp_22.keys,key_resp_22.rt,Circle1_colour,Circle2_colour,mouse.x,mouse.y,mouse.leftButton,mouse.midButton,mouse.rightButton,mouse.clicked_name,mouse_2.x,mouse_2.y,mouse_2.leftButton,mouse_2.midButton,mouse_2.rightButton,mouse_2.clicked_name,mouse_3.x,mouse_3.y,mouse_3.leftButton,mouse_3.midButton,mouse_3.rightButton,catchresponse,catchnumber,response_time_catch,Catch,mouse_11.x,mouse_11.y,mouse_11.leftButton,mouse_11.midButton,mouse_11.rightButton,trials_2.thisRepN,trials_2.thisTrialN,trials_2.thisN,trials_2.thisIndex,trials_2.ran,Colourpair,Temporder,mouse_3.clicked_name,mouse_11.clicked_name,trials_3.thisRepN,trials_3.thisTrialN,trials_3.thisN,trials_3.thisIndex,trials_3.ran,key_resp_instr_Ishi.keys,key_resp_instr_Ishi.rt,Ishi_trial_keyresp.keys,Ishi_textbox.text,Ishi_mouse.x,Ishi_mouse.y,Ishi_mouse.leftButton,Ishi_mouse.midButton,Ishi_mouse.rightButton,Ishi_mouse.clicked_name,Ishi_loop.thisRepN,Ishi_loop.thisTrialN,Ishi_loop.thisN,Ishi_loop.thisIndex,Ishi_loop.ran,imageaddress,textbox.text,mouse_4.x,mouse_4.y,mouse_4.leftButton,mouse_4.midButton,mouse_4.rightButton,mouse_4.clicked_name,textbox_2.text,mouse_8.x,mouse_8.y,mouse_8.leftButton,mouse_8.midButton,mouse_8.rightButton,mouse_8.clicked_name,textbox_3.text,mouse_9.x,mouse_9.y,mouse_9.leftButton,mouse_9.midButton,mouse_9.rightButton,mouse_9.clicked_name,textbox_4.text,mouse_12.x,mouse_12.y,mouse_12.leftButton,mouse_12.midButton,mouse_12.rightButton,mouse_12.clicked_name,textbox_5.text,mouse_13.x,mouse_13.y,mouse_13.leftButton,mouse_13.midButton,mouse_13.rightButton,mouse_13.clicked_name,textbox_6.text,mouse_14.x,mouse_14.y,mouse_14.leftButton,mouse_14.midButton,mouse_14.rightButton,mouse_14.clicked_name,textbox_7.text,mouse_15.x,mouse_15.y,mouse_15.leftButton,mouse_15.midButton,mouse_15.rightButton,mouse_15.clicked_name
0,0,0,23,1,,610c1a45d84406f5d5c83a45,62c539ad9c287cc7faf3dbcd,2022-07-06_09h35.02.393,Colour_Asymmetry_Pilot,2022.1.3,Win32,60.0132029,62c50e9c1127f2cd403a315f,,,,,,,,,,,,,,,,,,,,,,,,,,,,,,,,,,,,,,,,,,,,,,,,,,,,,,,,,,,,,,,,,,,,,,,,,,,,,,,,,,,,,,,,,,,,,,,,,,,,,,,,,,,,,,,,,,,,,,,,,,,,,,,,,,,,,,,,,,,,,,,,,,,,,,,,,,,,,,,,,,,
0,1,1,7,1,,610c1a45d84406f5d5c83a45,62c539ad9c287cc7faf3dbcd,2022-07-06_09h35.02.393,Colour_Asymmetry_Pilot,2022.1.3,Win32,60.0132029,62c50e9c1127f2cd403a315f,,,,,,,,,,,,,,,,,,,,,,,,,,,,,,,,,,,,,,,,,,,,,,,,,,,,,,,,,,,,,,,,,,,,,,,,,,,,,,,,,,,,,,,,,,,,,,,,,,,,,,,,,,,,,,,,,,,,,,,,,,,,,,,,,,,,,,,,,,,,,,,,,,,,,,,,,,,,,,,,,,,
0,2,2,4,1,,610c1a45d84406f5d5c83a45,62c539ad9c287cc7faf3dbcd,2022-07-06_09h35.02.393,Colour_Asymmetry_Pilot,2022.1.3,Win32,60.0132029,62c50e9c1127f2cd403a315f,,,,,,,,,,,,,,,,,,,,,,,,,,,,,,,,,,,,,,,,,,,,,,,,,,,,,,,,,,,,,,,,,,,,,,,,,,,,,,,,,,,,,,,,,,,,,,,,,,,,,,,,,,,,,,,,,,,,,,,,,,,,,,,,,,,,,,,,,,,,,,,,,,,,,,,,,,,,,,,,,,,
0,3,3,91,1,,610c1a45d84406f5d5c83a45,62c539ad9c287cc7faf3dbcd,2022-07-06_09h35.02.393,Colour_Asymmetry_Pilot,2022.1.3,Win32,60.0132029,62c50e9c1127f2cd403a315f,,,,,,,,,,,,,,,,,,,,,,,,,,,,,,,,,,,,,,,,,,,,,,,,,,,,,,,,,,,,,,,,,,,,,,,,,,,,,,,,,,,,,,,,,,,,,,,,,,,,,,,,,,,,,,,,,,,,,,,,,,,,,,,,,,,,,,,,,,,,,,,,,,,,,,,,,,,,,,,,,,,
0,4,4,68,1,,610c1a45d84406f5d5c83a45,62c539ad9c287cc7faf3dbcd,2022-07-06_09h35.02.393,Colour_Asymmetry_Pilot,2022.1.3,Win32,60.0132029,62c50e9c1127f2cd403a315f,,,,,,,,,,,,,,,,,,,,,,,,,,,,,,,,,,,,,,,,,,,,,,,,,,,,,,,,,,,,,,,,,,,,,,,,,,,,,,,,,,,,,,,,,,,,,,,,,,,,,,,,,,,,,,,,,,,,,,,,,,,,,,,,,,,,,,,,,,,,,,,,,,,,,,,,,,,,,,,,,,,
0,5,5,37,1,,610c1a45d84406f5d5c83a45,62c539ad9c287cc7faf3dbcd,2022-07-06_09h35.02.393,Colour_Asymmetry_Pilot,2022.1.3,Win32,60.0132029,62c50e9c1127f2cd403a315f,,,,,,,,,,,,,,,,,,,,,,,,,,,,,,,,,,,,,,,,,,,,,,,,,,,,,,,,,,,,,,,,,,,,,,,,,,,,,,,,,,,,,,,,,,,,,,,,,,,,,,,,,,,,,,,,,,,,,,,,,,,,,,,,,,,,,,,,,,,,,,,,,,,,,,,,,,,,,,,,,,,
0,6,6,78,1,,610c1a45d84406f5d5c83a45,62c539ad9c287cc7faf3dbcd,2022-07-06_09h35.02.393,Colour_Asymmetry_Pilot,2022.1.3,Win32,60.0132029,62c50e9c1127f2cd403a315f,,,,,,,,,,,,,,,,,,,,,,,,,,,,,,,,,,,,,,,,,,,,,,,,,,,,,,,,,,,,,,,,,,,,,,,,,,,,,,,,,,,,,,,,,,,,,,,,,,,,,,,,,,,,,,,,,,,,,,,,,,,,,,,,,,,,,,,,,,,,,,,,,,,,,,,,,,,,,,,,,,,
0,7,7,71,1,,610c1a45d84406f5d5c83a45,62c539ad9c287cc7faf3dbcd,2022-07-06_09h35.02.393,Colour_Asymmetry_Pilot,2022.1.3,Win32,60.0132029,62c50e9c1127f2cd403a315f,,,,,,,,,,,,,,,,,,,,,,,,,,,,,,,,,,,,,,,,,,,,,,,,,,,,,,,,,,,,,,,,,,,,,,,,,,,,,,,,,,,,,,,,,,,,,,,,,,,,,,,,,,,,,,,,,,,,,,,,,,,,,,,,,,,,,,,,,,,,,,,,,,,,,,,,,,,,,,,,,,,
0,8,8,63,1,,610c1a45d84406f5d5c83a45,62c539ad9c287cc7faf3dbcd,2022-07-06_09h35.02.393,Colour_Asymmetry_Pilot,2022.1.3,Win32,60.0132029,62c50e9c1127f2cd403a315f,,,,,,,,,,,,,,,,,,,,,,,,,,,,,,,,,,,,,,,,,,,,,,,,,,,,,,,,,,,,,,,,,,,,,,,,,,,,,,,,,,,,,,,,,,,,,,,,,,,,,,,,,,,,,,,,,,,,,,,,,,,,,,,,,,,,,,,,,,,,,,,,,,,,,,,,,,,,,,,,,,,
0,9,9,5,1,,610c1a45d84406f5d5c83a45,62c539ad9c287cc7faf3dbcd,2022-07-06_09h35.02.393,Colour_Asymmetry_Pilot,2022.1.3,Win32,60.0132029,62c50e9c1127f2cd403a315f,,,,,,,,,,,,,,,,,,,,,,,,,,,,,,,,,,,,,,,,,,,,,,,,,,,,,,,,,,,,,,,,,,,,,,,,,,,,,,,,,,,,,,,,,,,,,,,,,,,,,,,,,,,,,,,,,,,,,,,,,,,,,,,,,,,,,,,,,,,,,,,,,,,,,,,,,,,,,,,,,,,
0,10,10,0,1,,610c1a45d84406f5d5c83a45,62c539ad9c287cc7faf3dbcd,2022-07-06_09h35.02.393,Colour_Asymmetry_Pilot,2022.1.3,Win32,60.0132029,62c50e9c1127f2cd403a315f,,,,,,,,,,,,,,,,,,,,,,,,,,,,,,,,,,,,,,,,,,,,,,,,,,,,,,,,,,,,,,,,,,,,,,,,,,,,,,,,,,,,,,,,,,,,,,,,,,,,,,,,,,,,,,,,,,,,,,,,,,,,,,,,,,,,,,,,,,,,,,,,,,,,,,,,,,,,,,,,,,,
0,11,11,82,1,,610c1a45d84406f5d5c83a45,62c539ad9c287cc7faf3dbcd,2022-07-06_09h35.02.393,Colour_Asymmetry_Pilot,2022.1.3,Win32,60.0132029,62c50e9c1127f2cd403a315f,,,,,,,,,,,,,,,,,,,,,,,,,,,,,,,,,,,,,,,,,,,,,,,,,,,,,,,,,,,,,,,,,,,,,,,,,,,,,,,,,,,,,,,,,,,,,,,,,,,,,,,,,,,,,,,,,,,,,,,,,,,,,,,,,,,,,,,,,,,,,,,,,,,,,,,,,,,,,,,,,,,
0,12,12,50,1,,610c1a45d84406f5d5c83a45,62c539ad9c287cc7faf3dbcd,2022-07-06_09h35.02.393,Colour_Asymmetry_Pilot,2022.1.3,Win32,60.0132029,62c50e9c1127f2cd403a315f,,,,,,,,,,,,,,,,,,,,,,,,,,,,,,,,,,,,,,,,,,,,,,,,,,,,,,,,,,,,,,,,,,,,,,,,,,,,,,,,,,,,,,,,,,,,,,,,,,,,,,,,,,,,,,,,,,,,,,,,,,,,,,,,,,,,,,,,,,,,,,,,,,,,,,,,,,,,,,,,,,,
0,13,13,61,1,,610c1a45d84406f5d5c83a45,62c539ad9c287cc7faf3dbcd,2022-07-06_09h35.02.393,Colour_Asymmetry_Pilot,2022.1.3,Win32,60.0132029,62c50e9c1127f2cd403a315f,,,,,,,,,,,,,,,,,,,,,,,,,,,,,,,,,,,,,,,,,,,,,,,,,,,,,,,,,,,,,,,,,,,,,,,,,,,,,,,,,,,,,,,,,,,,,,,,,,,,,,,,,,,,,,,,,,,,,,,,,,,,,,,,,,,,,,,,,,,,,,,,,,,,,,,,,,,,,,,,,,,
0,14,14,48,1,,610c1a45d84406f5d5c83a45,62c539ad9c287cc7faf3dbcd,2022-07-06_09h35.02.393,Colour_Asymmetry_Pilot,2022.1.3,Win32,60.0132029,62c50e9c1127f2cd403a315f,,,,,,,,,,,,,,,,,,,,,,,,,,,,,,,,,,,,,,,,,,,,,,,,,,,,,,,,,,,,,,,,,,,,,,,,,,,,,,,,,,,,,,,,,,,,,,,,,,,,,,,,,,,,,,,,,,,,,,,,,,,,,,,,,,,,,,,,,,,,,,,,,,,,,,,,,,,,,,,,,,,
0,15,15,70,1,,610c1a45d84406f5d5c83a45,62c539ad9c287cc7faf3dbcd,2022-07-06_09h35.02.393,Colour_Asymmetry_Pilot,2022.1.3,Win32,60.0132029,62c50e9c1127f2cd403a315f,,,,,,,,,,,,,,,,,,,,,,,,,,,,,,,,,,,,,,,,,,,,,,,,,,,,,,,,,,,,,,,,,,,,,,,,,,,,,,,,,,,,,,,,,,,,,,,,,,,,,,,,,,,,,,,,,,,,,,,,,,,,,,,,,,,,,,,,,,,,,,,,,,,,,,,,,,,,,,,,,,,
0,16,16,67,1,,610c1a45d84406f5d5c83a45,62c539ad9c287cc7faf3dbcd,2022-07-06_09h35.02.393,Colour_Asymmetry_Pilot,2022.1.3,Win32,60.0132029,62c50e9c1127f2cd403a315f,,,,,,,,,,,,,,,,,,,,,,,,,,,,,,,,,,,,,,,,,,,,,,,,,,,,,,,,,,,,,,,,,,,,,,,,,,,,,,,,,,,,,,,,,,,,,,,,,,,,,,,,,,,,,,,,,,,,,,,,,,,,,,,,,,,,,,,,,,,,,,,,,,,,,,,,,,,,,,,,,,,
0,17,17,40,1,,610c1a45d84406f5d5c83a45,62c539ad9c287cc7faf3dbcd,2022-07-06_09h35.02.393,Colour_Asymmetry_Pilot,2022.1.3,Win32,60.0132029,62c50e9c1127f2cd403a315f,,,,,,,,,,,,,,,,,,,,,,,,,,,,,,,,,,,,,,,,,,,,,,,,,,,,,,,,,,,,,,,,,,,,,,,,,,,,,,,,,,,,,,,,,,,,,,,,,,,,,,,,,,,,,,,,,,,,,,,,,,,,,,,,,,,,,,,,,,,,,,,,,,,,,,,,,,,,,,,,,,,
0,18,18,62,1,,610c1a45d84406f5d5c83a45,62c539ad9c287cc7faf3dbcd,2022-07-06_09h35.02.393,Colour_Asymmetry_Pilot,2022.1.3,Win32,60.0132029,62c50e9c1127f2cd403a315f,,,,,,,,,,,,,,,,,,,,,,,,,,,,,,,,,,,,,,,,,,,,,,,,,,,,,,,,,,,,,,,,,,,,,,,,,,,,,,,,,,,,,,,,,,,,,,,,,,,,,,,,,,,,,,,,,,,,,,,,,,,,,,,,,,,,,,,,,,,,,,,,,,,,,,,,,,,,,,,,,,,
0,19,19,59,1,,610c1a45d84406f5d5c83a45,62c539ad9c287cc7faf3dbcd,2022-07-06_09h35.02.393,Colour_Asymmetry_Pilot,2022.1.3,Win32,60.0132029,62c50e9c1127f2cd403a315f,,,,,,,,,,,,,,,,,,,,,,,,,,,,,,,,,,,,,,,,,,,,,,,,,,,,,,,,,,,,,,,,,,,,,,,,,,,,,,,,,,,,,,,,,,,,,,,,,,,,,,,,,,,,,,,,,,,,,,,,,,,,,,,,,,,,,,,,,,,,,,,,,,,,,,,,,,,,,,,,,,,
0,20,20,10,1,,610c1a45d84406f5d5c83a45,62c539ad9c287cc7faf3dbcd,2022-07-06_09h35.02.393,Colour_Asymmetry_Pilot,2022.1.3,Win32,60.0132029,62c50e9c1127f2cd403a315f,,,,,,,,,,,,,,,,,,,,,,,,,,,,,,,,,,,,,,,,,,,,,,,,,,,,,,,,,,,,,,,,,,,,,,,,,,,,,,,,,,,,,,,,,,,,,,,,,,,,,,,,,,,,,,,,,,,,,,,,,,,,,,,,,,,,,,,,,,,,,,,,,,,,,,,,,,,,,,,,,,,
0,21,21,14,1,,610c1a45d84406f5d5c83a45,62c539ad9c287cc7faf3dbcd,2022-07-06_09h35.02.393,Colour_Asymmetry_Pilot,2022.1.3,Win32,60.0132029,62c50e9c1127f2cd403a315f,,,,,,,,,,,,,,,,,,,,,,,,,,,,,,,,,,,,,,,,,,,,,,,,,,,,,,,,,,,,,,,,,,,,,,,,,,,,,,,,,,,,,,,,,,,,,,,,,,,,,,,,,,,,,,,,,,,,,,,,,,,,,,,,,,,,,,,,,,,,,,,,,,,,,,,,,,,,,,,,,,,
0,22,22,80,1,,610c1a45d84406f5d5c83a45,62c539ad9c287cc7faf3dbcd,2022-07-06_09h35.02.393,Colour_Asymmetry_Pilot,2022.1.3,Win32,60.0132029,62c50e9c1127f2cd403a315f,,,,,,,,,,,,,,,,,,,,,,,,,,,,,,,,,,,,,,,,,,,,,,,,,,,,,,,,,,,,,,,,,,,,,,,,,,,,,,,,,,,,,,,,,,,,,,,,,,,,,,,,,,,,,,,,,,,,,,,,,,,,,,,,,,,,,,,,,,,,,,,,,,,,,,,,,,,,,,,,,,,
0,23,23,54,1,,610c1a45d84406f5d5c83a45,62c539ad9c287cc7faf3dbcd,2022-07-06_09h35.02.393,Colour_Asymmetry_Pilot,2022.1.3,Win32,60.0132029,62c50e9c1127f2cd403a315f,,,,,,,,,,,,,,,,,,,,,,,,,,,,,,,,,,,,,,,,,,,,,,,,,,,,,,,,,,,,,,,,,,,,,,,,,,,,,,,,,,,,,,,,,,,,,,,,,,,,,,,,,,,,,,,,,,,,,,,,,,,,,,,,,,,,,,,,,,,,,,,,,,,,,,,,,,,,,,,,,,,
0,24,24,41,1,,610c1a45d84406f5d5c83a45,62c539ad9c287cc7faf3dbcd,2022-07-06_09h35.02.393,Colour_Asymmetry_Pilot,2022.1.3,Win32,60.0132029,62c50e9c1127f2cd403a315f,,,,,,,,,,,,,,,,,,,,,,,,,,,,,,,,,,,,,,,,,,,,,,,,,,,,,,,,,,,,,,,,,,,,,,,,,,,,,,,,,,,,,,,,,,,,,,,,,,,,,,,,,,,,,,,,,,,,,,,,,,,,,,,,,,,,,,,,,,,,,,,,,,,,,,,,,,,,,,,,,,,
0,25,25,90,1,,610c1a45d84406f5d5c83a45,62c539ad9c287cc7faf3dbcd,2022-07-06_09h35.02.393,Colour_Asymmetry_Pilot,2022.1.3,Win32,60.0132029,62c50e9c1127f2cd403a315f,,,,,,,,,,,,,,,,,,,,,,,,,,,,,,,,,,,,,,,,,,,,,,,,,,,,,,,,,,,,,,,,,,,,,,,,,,,,,,,,,,,,,,,,,,,,,,,,,,,,,,,,,,,,,,,,,,,,,,,,,,,,,,,,,,,,,,,,,,,,,,,,,,,,,,,,,,,,,,,,,,,
0,26,26,21,1,,610c1a45d84406f5d5c83a45,62c539ad9c287cc7faf3dbcd,2022-07-06_09h35.02.393,Colour_Asymmetry_Pilot,2022.1.3,Win32,60.0132029,62c50e9c1127f2cd403a315f,,,,,,,,,,,,,,,,,,,,,,,,,,,,,,,,,,,,,,,,,,,,,,,,,,,,,,,,,,,,,,,,,,,,,,,,,,,,,,,,,,,,,,,,,,,,,,,,,,,,,,,,,,,,,,,,,,,,,,,,,,,,,,,,,,,,,,,,,,,,,,,,,,,,,,,,,,,,,,,,,,,
0,27,27,35,1,,610c1a45d84406f5d5c83a45,62c539ad9c287cc7faf3dbcd,2022-07-06_09h35.02.393,Colour_Asymmetry_Pilot,2022.1.3,Win32,60.0132029,62c50e9c1127f2cd403a315f,,,,,,,,,,,,,,,,,,,,,,,,,,,,,,,,,,,,,,,,,,,,,,,,,,,,,,,,,,,,,,,,,,,,,,,,,,,,,,,,,,,,,,,,,,,,,,,,,,,,,,,,,,,,,,,,,,,,,,,,,,,,,,,,,,,,,,,,,,,,,,,,,,,,,,,,,,,,,,,,,,,
0,28,28,47,1,,610c1a45d84406f5d5c83a45,62c539ad9c287cc7faf3dbcd,2022-07-06_09h35.02.393,Colour_Asymmetry_Pilot,2022.1.3,Win32,60.0132029,62c50e9c1127f2cd403a315f,,,,,,,,,,,,,,,,,,,,,,,,,,,,,,,,,,,,,,,,,,,,,,,,,,,,,,,,,,,,,,,,,,,,,,,,,,,,,,,,,,,,,,,,,,,,,,,,,,,,,,,,,,,,,,,,,,,,,,,,,,,,,,,,,,,,,,,,,,,,,,,,,,,,,,,,,,,,,,,,,,,
0,29,29,42,1,,610c1a45d84406f5d5c83a45,62c539ad9c287cc7faf3dbcd,2022-07-06_09h35.02.393,Colour_Asymmetry_Pilot,2022.1.3,Win32,60.0132029,62c50e9c1127f2cd403a315f,,,,,,,,,,,,,,,,,,,,,,,,,,,,,,,,,,,,,,,,,,,,,,,,,,,,,,,,,,,,,,,,,,,,,,,,,,,,,,,,,,,,,,,,,,,,,,,,,,,,,,,,,,,,,,,,,,,,,,,,,,,,,,,,,,,,,,,,,,,,,,,,,,,,,,,,,,,,,,,,,,,
0,30,30,58,1,,610c1a45d84406f5d5c83a45,62c539ad9c287cc7faf3dbcd,2022-07-06_09h35.02.393,Colour_Asymmetry_Pilot,2022.1.3,Win32,60.0132029,62c50e9c1127f2cd403a315f,,,,,,,,,,,,,,,,,,,,,,,,,,,,,,,,,,,,,,,,,,,,,,,,,,,,,,,,,,,,,,,,,,,,,,,,,,,,,,,,,,,,,,,,,,,,,,,,,,,,,,,,,,,,,,,,,,,,,,,,,,,,,,,,,,,,,,,,,,,,,,,,,,,,,,,,,,,,,,,,,,,
0,31,31,84,1,,610c1a45d84406f5d5c83a45,62c539ad9c287cc7faf3dbcd,2022-07-06_09h35.02.393,Colour_Asymmetry_Pilot,2022.1.3,Win32,60.0132029,62c50e9c1127f2cd403a315f,,,,,,,,,,,,,,,,,,,,,,,,,,,,,,,,,,,,,,,,,,,,,,,,,,,,,,,,,,,,,,,,,,,,,,,,,,,,,,,,,,,,,,,,,,,,,,,,,,,,,,,,,,,,,,,,,,,,,,,,,,,,,,,,,,,,,,,,,,,,,,,,,,,,,,,,,,,,,,,,,,,
0,32,32,3,1,,610c1a45d84406f5d5c83a45,62c539ad9c287cc7faf3dbcd,2022-07-06_09h35.02.393,Colour_Asymmetry_Pilot,2022.1.3,Win32,60.0132029,62c50e9c1127f2cd403a315f,,,,,,,,,,,,,,,,,,,,,,,,,,,,,,,,,,,,,,,,,,,,,,,,,,,,,,,,,,,,,,,,,,,,,,,,,,,,,,,,,,,,,,,,,,,,,,,,,,,,,,,,,,,,,,,,,,,,,,,,,,,,,,,,,,,,,,,,,,,,,,,,,,,,,,,,,,,,,,,,,,,
0,33,33,53,1,,610c1a45d84406f5d5c83a45,62c539ad9c287cc7faf3dbcd,2022-07-06_09h35.02.393,Colour_Asymmetry_Pilot,2022.1.3,Win32,60.0132029,62c50e9c1127f2cd403a315f,,,,,,,,,,,,,,,,,,,,,,,,,,,,,,,,,,,,,,,,,,,,,,,,,,,,,,,,,,,,,,,,,,,,,,,,,,,,,,,,,,,,,,,,,,,,,,,,,,,,,,,,,,,,,,,,,,,,,,,,,,,,,,,,,,,,,,,,,,,,,,,,,,,,,,,,,,,,,,,,,,,
0,34,34,55,1,,610c1a45d84406f5d5c83a45,62c539ad9c287cc7faf3dbcd,2022-07-06_09h35.02.393,Colour_Asymmetry_Pilot,2022.1.3,Win32,60.0132029,62c50e9c1127f2cd403a315f,,,,,,,,,,,,,,,,,,,,,,,,,,,,,,,,,,,,,,,,,,,,,,,,,,,,,,,,,,,,,,,,,,,,,,,,,,,,,,,,,,,,,,,,,,,,,,,,,,,,,,,,,,,,,,,,,,,,,,,,,,,,,,,,,,,,,,,,,,,,,,,,,,,,,,,,,,,,,,,,,,,
0,35,35,74,1,,610c1a45d84406f5d5c83a45,62c539ad9c287cc7faf3dbcd,2022-07-06_09h35.02.393,Colour_Asymmetry_Pilot,2022.1.3,Win32,60.0132029,62c50e9c1127f2cd403a315f,,,,,,,,,,,,,,,,,,,,,,,,,,,,,,,,,,,,,,,,,,,,,,,,,,,,,,,,,,,,,,,,,,,,,,,,,,,,,,,,,,,,,,,,,,,,,,,,,,,,,,,,,,,,,,,,,,,,,,,,,,,,,,,,,,,,,,,,,,,,,,,,,,,,,,,,,,,,,,,,,,,
0,36,36,73,1,,610c1a45d84406f5d5c83a45,62c539ad9c287cc7faf3dbcd,2022-07-06_09h35.02.393,Colour_Asymmetry_Pilot,2022.1.3,Win32,60.0132029,62c50e9c1127f2cd403a315f,,,,,,,,,,,,,,,,,,,,,,,,,,,,,,,,,,,,,,,,,,,,,,,,,,,,,,,,,,,,,,,,,,,,,,,,,,,,,,,,,,,,,,,,,,,,,,,,,,,,,,,,,,,,,,,,,,,,,,,,,,,,,,,,,,,,,,,,,,,,,,,,,,,,,,,,,,,,,,,,,,,
0,37,37,20,1,,610c1a45d84406f5d5c83a45,62c539ad9c287cc7faf3dbcd,2022-07-06_09h35.02.393,Colour_Asymmetry_Pilot,2022.1.3,Win32,60.0132029,62c50e9c1127f2cd403a315f,,,,,,,,,,,,,,,,,,,,,,,,,,,,,,,,,,,,,,,,,,,,,,,,,,,,,,,,,,,,,,,,,,,,,,,,,,,,,,,,,,,,,,,,,,,,,,,,,,,,,,,,,,,,,,,,,,,,,,,,,,,,,,,,,,,,,,,,,,,,,,,,,,,,,,,,,,,,,,,,,,,
0,38,38,66,1,,610c1a45d84406f5d5c83a45,62c539ad9c287cc7faf3dbcd,2022-07-06_09h35.02.393,Colour_Asymmetry_Pilot,2022.1.3,Win32,60.0132029,62c50e9c1127f2cd403a315f,,,,,,,,,,,,,,,,,,,,,,,,,,,,,,,,,,,,,,,,,,,,,,,,,,,,,,,,,,,,,,,,,,,,,,,,,,,,,,,,,,,,,,,,,,,,,,,,,,,,,,,,,,,,,,,,,,,,,,,,,,,,,,,,,,,,,,,,,,,,,,,,,,,,,,,,,,,,,,,,,,,
0,39,39,43,1,,610c1a45d84406f5d5c83a45,62c539ad9c287cc7faf3dbcd,2022-07-06_09h35.02.393,Colour_Asymmetry_Pilot,2022.1.3,Win32,60.0132029,62c50e9c1127f2cd403a315f,,,,,,,,,,,,,,,,,,,,,,,,,,,,,,,,,,,,,,,,,,,,,,,,,,,,,,,,,,,,,,,,,,,,,,,,,,,,,,,,,,,,,,,,,,,,,,,,,,,,,,,,,,,,,,,,,,,,,,,,,,,,,,,,,,,,,,,,,,,,,,,,,,,,,,,,,,,,,,,,,,,
0,40,40,8,1,,610c1a45d84406f5d5c83a45,62c539ad9c287cc7faf3dbcd,2022-07-06_09h35.02.393,Colour_Asymmetry_Pilot,2022.1.3,Win32,60.0132029,62c50e9c1127f2cd403a315f,,,,,,,,,,,,,,,,,,,,,,,,,,,,,,,,,,,,,,,,,,,,,,,,,,,,,,,,,,,,,,,,,,,,,,,,,,,,,,,,,,,,,,,,,,,,,,,,,,,,,,,,,,,,,,,,,,,,,,,,,,,,,,,,,,,,,,,,,,,,,,,,,,,,,,,,,,,,,,,,,,,
0,41,41,1,1,,610c1a45d84406f5d5c83a45,62c539ad9c287cc7faf3dbcd,2022-07-06_09h35.02.393,Colour_Asymmetry_Pilot,2022.1.3,Win32,60.0132029,62c50e9c1127f2cd403a315f,,,,,,,,,,,,,,,,,,,,,,,,,,,,,,,,,,,,,,,,,,,,,,,,,,,,,,,,,,,,,,,,,,,,,,,,,,,,,,,,,,,,,,,,,,,,,,,,,,,,,,,,,,,,,,,,,,,,,,,,,,,,,,,,,,,,,,,,,,,,,,,,,,,,,,,,,,,,,,,,,,,
0,42,42,39,1,,610c1a45d84406f5d5c83a45,62c539ad9c287cc7faf3dbcd,2022-07-06_09h35.02.393,Colour_Asymmetry_Pilot,2022.1.3,Win32,60.0132029,62c50e9c1127f2cd403a315f,,,,,,,,,,,,,,,,,,,,,,,,,,,,,,,,,,,,,,,,,,,,,,,,,,,,,,,,,,,,,,,,,,,,,,,,,,,,,,,,,,,,,,,,,,,,,,,,,,,,,,,,,,,,,,,,,,,,,,,,,,,,,,,,,,,,,,,,,,,,,,,,,,,,,,,,,,,,,,,,,,,
0,43,43,79,1,,610c1a45d84406f5d5c83a45,62c539ad9c287cc7faf3dbcd,2022-07-06_09h35.02.393,Colour_Asymmetry_Pilot,2022.1.3,Win32,60.0132029,62c50e9c1127f2cd403a315f,,,,,,,,,,,,,,,,,,,,,,,,,,,,,,,,,,,,,,,,,,,,,,,,,,,,,,,,,,,,,,,,,,,,,,,,,,,,,,,,,,,,,,,,,,,,,,,,,,,,,,,,,,,,,,,,,,,,,,,,,,,,,,,,,,,,,,,,,,,,,,,,,,,,,,,,,,,,,,,,,,,
0,44,44,64,1,,610c1a45d84406f5d5c83a45,62c539ad9c287cc7faf3dbcd,2022-07-06_09h35.02.393,Colour_Asymmetry_Pilot,2022.1.3,Win32,60.0132029,62c50e9c1127f2cd403a315f,,,,,,,,,,,,,,,,,,,,,,,,,,,,,,,,,,,,,,,,,,,,,,,,,,,,,,,,,,,,,,,,,,,,,,,,,,,,,,,,,,,,,,,,,,,,,,,,,,,,,,,,,,,,,,,,,,,,,,,,,,,,,,,,,,,,,,,,,,,,,,,,,,,,,,,,,,,,,,,,,,,
0,45,45,92,1,,610c1a45d84406f5d5c83a45,62c539ad9c287cc7faf3dbcd,2022-07-06_09h35.02.393,Colour_Asymmetry_Pilot,2022.1.3,Win32,60.0132029,62c50e9c1127f2cd403a315f,,,,,,,,,,,,,,,,,,,,,,,,,,,,,,,,,,,,,,,,,,,,,,,,,,,,,,,,,,,,,,,,,,,,,,,,,,,,,,,,,,,,,,,,,,,,,,,,,,,,,,,,,,,,,,,,,,,,,,,,,,,,,,,,,,,,,,,,,,,,,,,,,,,,,,,,,,,,,,,,,,,
0,46,46,11,1,,610c1a45d84406f5d5c83a45,62c539ad9c287cc7faf3dbcd,2022-07-06_09h35.02.393,Colour_Asymmetry_Pilot,2022.1.3,Win32,60.0132029,62c50e9c1127f2cd403a315f,,,,,,,,,,,,,,,,,,,,,,,,,,,,,,,,,,,,,,,,,,,,,,,,,,,,,,,,,,,,,,,,,,,,,,,,,,,,,,,,,,,,,,,,,,,,,,,,,,,,,,,,,,,,,,,,,,,,,,,,,,,,,,,,,,,,,,,,,,,,,,,,,,,,,,,,,,,,,,,,,,,
0,47,47,29,1,,610c1a45d84406f5d5c83a45,62c539ad9c287cc7faf3dbcd,2022-07-06_09h35.02.393,Colour_Asymmetry_Pilot,2022.1.3,Win32,60.0132029,62c50e9c1127f2cd403a315f,,,,,,,,,,,,,,,,,,,,,,,,,,,,,,,,,,,,,,,,,,,,,,,,,,,,,,,,,,,,,,,,,,,,,,,,,,,,,,,,,,,,,,,,,,,,,,,,,,,,,,,,,,,,,,,,,,,,,,,,,,,,,,,,,,,,,,,,,,,,,,,,,,,,,,,,,,,,,,,,,,,
0,48,48,36,1,,610c1a45d84406f5d5c83a45,62c539ad9c287cc7faf3dbcd,2022-07-06_09h35.02.393,Colour_Asymmetry_Pilot,2022.1.3,Win32,60.0132029,62c50e9c1127f2cd403a315f,,,,,,,,,,,,,,,,,,,,,,,,,,,,,,,,,,,,,,,,,,,,,,,,,,,,,,,,,,,,,,,,,,,,,,,,,,,,,,,,,,,,,,,,,,,,,,,,,,,,,,,,,,,,,,,,,,,,,,,,,,,,,,,,,,,,,,,,,,,,,,,,,,,,,,,,,,,,,,,,,,,
0,49,49,28,1,,610c1a45d84406f5d5c83a45,62c539ad9c287cc7faf3dbcd,2022-07-06_09h35.02.393,Colour_Asymmetry_Pilot,2022.1.3,Win32,60.0132029,62c50e9c1127f2cd403a315f,,,,,,,,,,,,,,,,,,,,,,,,,,,,,,,,,,,,,,,,,,,,,,,,,,,,,,,,,,,,,,,,,,,,,,,,,,,,,,,,,,,,,,,,,,,,,,,,,,,,,,,,,,,,,,,,,,,,,,,,,,,,,,,,,,,,,,,,,,,,,,,,,,,,,,,,,,,,,,,,,,,
0,50,50,83,1,,610c1a45d84406f5d5c83a45,62c539ad9c287cc7faf3dbcd,2022-07-06_09h35.02.393,Colour_Asymmetry_Pilot,2022.1.3,Win32,60.0132029,62c50e9c1127f2cd403a315f,,,,,,,,,,,,,,,,,,,,,,,,,,,,,,,,,,,,,,,,,,,,,,,,,,,,,,,,,,,,,,,,,,,,,,,,,,,,,,,,,,,,,,,,,,,,,,,,,,,,,,,,,,,,,,,,,,,,,,,,,,,,,,,,,,,,,,,,,,,,,,,,,,,,,,,,,,,,,,,,,,,
0,51,51,76,1,,610c1a45d84406f5d5c83a45,62c539ad9c287cc7faf3dbcd,2022-07-06_09h35.02.393,Colour_Asymmetry_Pilot,2022.1.3,Win32,60.0132029,62c50e9c1127f2cd403a315f,,,,,,,,,,,,,,,,,,,,,,,,,,,,,,,,,,,,,,,,,,,,,,,,,,,,,,,,,,,,,,,,,,,,,,,,,,,,,,,,,,,,,,,,,,,,,,,,,,,,,,,,,,,,,,,,,,,,,,,,,,,,,,,,,,,,,,,,,,,,,,,,,,,,,,,,,,,,,,,,,,,
0,52,52,34,1,,610c1a45d84406f5d5c83a45,62c539ad9c287cc7faf3dbcd,2022-07-06_09h35.02.393,Colour_Asymmetry_Pilot,2022.1.3,Win32,60.0132029,62c50e9c1127f2cd403a315f,,,,,,,,,,,,,,,,,,,,,,,,,,,,,,,,,,,,,,,,,,,,,,,,,,,,,,,,,,,,,,,,,,,,,,,,,,,,,,,,,,,,,,,,,,,,,,,,,,,,,,,,,,,,,,,,,,,,,,,,,,,,,,,,,,,,,,,,,,,,,,,,,,,,,,,,,,,,,,,,,,,
0,53,53,57,1,,610c1a45d84406f5d5c83a45,62c539ad9c287cc7faf3dbcd,2022-07-06_09h35.02.393,Colour_Asymmetry_Pilot,2022.1.3,Win32,60.0132029,62c50e9c1127f2cd403a315f,,,,,,,,,,,,,,,,,,,,,,,,,,,,,,,,,,,,,,,,,,,,,,,,,,,,,,,,,,,,,,,,,,,,,,,,,,,,,,,,,,,,,,,,,,,,,,,,,,,,,,,,,,,,,,,,,,,,,,,,,,,,,,,,,,,,,,,,,,,,,,,,,,,,,,,,,,,,,,,,,,,
0,54,54,52,1,,610c1a45d84406f5d5c83a45,62c539ad9c287cc7faf3dbcd,2022-07-06_09h35.02.393,Colour_Asymmetry_Pilot,2022.1.3,Win32,60.0132029,62c50e9c1127f2cd403a315f,,,,,,,,,,,,,,,,,,,,,,,,,,,,,,,,,,,,,,,,,,,,,,,,,,,,,,,,,,,,,,,,,,,,,,,,,,,,,,,,,,,,,,,,,,,,,,,,,,,,,,,,,,,,,,,,,,,,,,,,,,,,,,,,,,,,,,,,,,,,,,,,,,,,,,,,,,,,,,,,,,,
0,55,55,19,1,,610c1a45d84406f5d5c83a45,62c539ad9c287cc7faf3dbcd,2022-07-06_09h35.02.393,Colour_Asymmetry_Pilot,2022.1.3,Win32,60.0132029,62c50e9c1127f2cd403a315f,,,,,,,,,,,,,,,,,,,,,,,,,,,,,,,,,,,,,,,,,,,,,,,,,,,,,,,,,,,,,,,,,,,,,,,,,,,,,,,,,,,,,,,,,,,,,,,,,,,,,,,,,,,,,,,,,,,,,,,,,,,,,,,,,,,,,,,,,,,,,,,,,,,,,,,,,,,,,,,,,,,
0,56,56,24,1,,610c1a45d84406f5d5c83a45,62c539ad9c287cc7faf3dbcd,2022-07-06_09h35.02.393,Colour_Asymmetry_Pilot,2022.1.3,Win32,60.0132029,62c50e9c1127f2cd403a315f,,,,,,,,,,,,,,,,,,,,,,,,,,,,,,,,,,,,,,,,,,,,,,,,,,,,,,,,,,,,,,,,,,,,,,,,,,,,,,,,,,,,,,,,,,,,,,,,,,,,,,,,,,,,,,,,,,,,,,,,,,,,,,,,,,,,,,,,,,,,,,,,,,,,,,,,,,,,,,,,,,,
0,57,57,77,1,,610c1a45d84406f5d5c83a45,62c539ad9c287cc7faf3dbcd,2022-07-06_09h35.02.393,Colour_Asymmetry_Pilot,2022.1.3,Win32,60.0132029,62c50e9c1127f2cd403a315f,,,,,,,,,,,,,,,,,,,,,,,,,,,,,,,,,,,,,,,,,,,,,,,,,,,,,,,,,,,,,,,,,,,,,,,,,,,,,,,,,,,,,,,,,,,,,,,,,,,,,,,,,,,,,,,,,,,,,,,,,,,,,,,,,,,,,,,,,,,,,,,,,,,,,,,,,,,,,,,,,,,
0,58,58,12,1,,610c1a45d84406f5d5c83a45,62c539ad9c287cc7faf3dbcd,2022-07-06_09h35.02.393,Colour_Asymmetry_Pilot,2022.1.3,Win32,60.0132029,62c50e9c1127f2cd403a315f,,,,,,,,,,,,,,,,,,,,,,,,,,,,,,,,,,,,,,,,,,,,,,,,,,,,,,,,,,,,,,,,,,,,,,,,,,,,,,,,,,,,,,,,,,,,,,,,,,,,,,,,,,,,,,,,,,,,,,,,,,,,,,,,,,,,,,,,,,,,,,,,,,,,,,,,,,,,,,,,,,,
0,59,59,18,1,,610c1a45d84406f5d5c83a45,62c539ad9c287cc7faf3dbcd,2022-07-06_09h35.02.393,Colour_Asymmetry_Pilot,2022.1.3,Win32,60.0132029,62c50e9c1127f2cd403a315f,,,,,,,,,,,,,,,,,,,,,,,,,,,,,,,,,,,,,,,,,,,,,,,,,,,,,,,,,,,,,,,,,,,,,,,,,,,,,,,,,,,,,,,,,,,,,,,,,,,,,,,,,,,,,,,,,,,,,,,,,,,,,,,,,,,,,,,,,,,,,,,,,,,,,,,,,,,,,,,,,,,
0,60,60,60,1,,610c1a45d84406f5d5c83a45,62c539ad9c287cc7faf3dbcd,2022-07-06_09h35.02.393,Colour_Asymmetry_Pilot,2022.1.3,Win32,60.0132029,62c50e9c1127f2cd403a315f,,,,,,,,,,,,,,,,,,,,,,,,,,,,,,,,,,,,,,,,,,,,,,,,,,,,,,,,,,,,,,,,,,,,,,,,,,,,,,,,,,,,,,,,,,,,,,,,,,,,,,,,,,,,,,,,,,,,,,,,,,,,,,,,,,,,,,,,,,,,,,,,,,,,,,,,,,,,,,,,,,,
0,61,61,33,1,,610c1a45d84406f5d5c83a45,62c539ad9c287cc7faf3dbcd,2022-07-06_09h35.02.393,Colour_Asymmetry_Pilot,2022.1.3,Win32,60.0132029,62c50e9c1127f2cd403a315f,,,,,,,,,,,,,,,,,,,,,,,,,,,,,,,,,,,,,,,,,,,,,,,,,,,,,,,,,,,,,,,,,,,,,,,,,,,,,,,,,,,,,,,,,,,,,,,,,,,,,,,,,,,,,,,,,,,,,,,,,,,,,,,,,,,,,,,,,,,,,,,,,,,,,,,,,,,,,,,,,,,
0,62,62,17,1,,610c1a45d84406f5d5c83a45,62c539ad9c287cc7faf3dbcd,2022-07-06_09h35.02.393,Colour_Asymmetry_Pilot,2022.1.3,Win32,60.0132029,62c50e9c1127f2cd403a315f,,,,,,,,,,,,,,,,,,,,,,,,,,,,,,,,,,,,,,,,,,,,,,,,,,,,,,,,,,,,,,,,,,,,,,,,,,,,,,,,,,,,,,,,,,,,,,,,,,,,,,,,,,,,,,,,,,,,,,,,,,,,,,,,,,,,,,,,,,,,,,,,,,,,,,,,,,,,,,,,,,,
0,63,63,44,1,,610c1a45d84406f5d5c83a45,62c539ad9c287cc7faf3dbcd,2022-07-06_09h35.02.393,Colour_Asymmetry_Pilot,2022.1.3,Win32,60.0132029,62c50e9c1127f2cd403a315f,,,,,,,,,,,,,,,,,,,,,,,,,,,,,,,,,,,,,,,,,,,,,,,,,,,,,,,,,,,,,,,,,,,,,,,,,,,,,,,,,,,,,,,,,,,,,,,,,,,,,,,,,,,,,,,,,,,,,,,,,,,,,,,,,,,,,,,,,,,,,,,,,,,,,,,,,,,,,,,,,,,
0,64,64,32,1,,610c1a45d84406f5d5c83a45,62c539ad9c287cc7faf3dbcd,2022-07-06_09h35.02.393,Colour_Asymmetry_Pilot,2022.1.3,Win32,60.0132029,62c50e9c1127f2cd403a315f,,,,,,,,,,,,,,,,,,,,,,,,,,,,,,,,,,,,,,,,,,,,,,,,,,,,,,,,,,,,,,,,,,,,,,,,,,,,,,,,,,,,,,,,,,,,,,,,,,,,,,,,,,,,,,,,,,,,,,,,,,,,,,,,,,,,,,,,,,,,,,,,,,,,,,,,,,,,,,,,,,,
0,65,65,9,1,,610c1a45d84406f5d5c83a45,62c539ad9c287cc7faf3dbcd,2022-07-06_09h35.02.393,Colour_Asymmetry_Pilot,2022.1.3,Win32,60.0132029,62c50e9c1127f2cd403a315f,,,,,,,,,,,,,,,,,,,,,,,,,,,,,,,,,,,,,,,,,,,,,,,,,,,,,,,,,,,,,,,,,,,,,,,,,,,,,,,,,,,,,,,,,,,,,,,,,,,,,,,,,,,,,,,,,,,,,,,,,,,,,,,,,,,,,,,,,,,,,,,,,,,,,,,,,,,,,,,,,,,
0,66,66,2,1,,610c1a45d84406f5d5c83a45,62c539ad9c287cc7faf3dbcd,2022-07-06_09h35.02.393,Colour_Asymmetry_Pilot,2022.1.3,Win32,60.0132029,62c50e9c1127f2cd403a315f,,,,,,,,,,,,,,,,,,,,,,,,,,,,,,,,,,,,,,,,,,,,,,,,,,,,,,,,,,,,,,,,,,,,,,,,,,,,,,,,,,,,,,,,,,,,,,,,,,,,,,,,,,,,,,,,,,,,,,,,,,,,,,,,,,,,,,,,,,,,,,,,,,,,,,,,,,,,,,,,,,,
0,67,67,81,1,,610c1a45d84406f5d5c83a45,62c539ad9c287cc7faf3dbcd,2022-07-06_09h35.02.393,Colour_Asymmetry_Pilot,2022.1.3,Win32,60.0132029,62c50e9c1127f2cd403a315f,,,,,,,,,,,,,,,,,,,,,,,,,,,,,,,,,,,,,,,,,,,,,,,,,,,,,,,,,,,,,,,,,,,,,,,,,,,,,,,,,,,,,,,,,,,,,,,,,,,,,,,,,,,,,,,,,,,,,,,,,,,,,,,,,,,,,,,,,,,,,,,,,,,,,,,,,,,,,,,,,,,
0,68,68,89,1,,610c1a45d84406f5d5c83a45,62c539ad9c287cc7faf3dbcd,2022-07-06_09h35.02.393,Colour_Asymmetry_Pilot,2022.1.3,Win32,60.0132029,62c50e9c1127f2cd403a315f,,,,,,,,,,,,,,,,,,,,,,,,,,,,,,,,,,,,,,,,,,,,,,,,,,,,,,,,,,,,,,,,,,,,,,,,,,,,,,,,,,,,,,,,,,,,,,,,,,,,,,,,,,,,,,,,,,,,,,,,,,,,,,,,,,,,,,,,,,,,,,,,,,,,,,,,,,,,,,,,,,,
0,69,69,13,1,,610c1a45d84406f5d5c83a45,62c539ad9c287cc7faf3dbcd,2022-07-06_09h35.02.393,Colour_Asymmetry_Pilot,2022.1.3,Win32,60.0132029,62c50e9c1127f2cd403a315f,,,,,,,,,,,,,,,,,,,,,,,,,,,,,,,,,,,,,,,,,,,,,,,,,,,,,,,,,,,,,,,,,,,,,,,,,,,,,,,,,,,,,,,,,,,,,,,,,,,,,,,,,,,,,,,,,,,,,,,,,,,,,,,,,,,,,,,,,,,,,,,,,,,,,,,,,,,,,,,,,,,
0,70,70,31,1,,610c1a45d84406f5d5c83a45,62c539ad9c287cc7faf3dbcd,2022-07-06_09h35.02.393,Colour_Asymmetry_Pilot,2022.1.3,Win32,60.0132029,62c50e9c1127f2cd403a315f,,,,,,,,,,,,,,,,,,,,,,,,,,,,,,,,,,,,,,,,,,,,,,,,,,,,,,,,,,,,,,,,,,,,,,,,,,,,,,,,,,,,,,,,,,,,,,,,,,,,,,,,,,,,,,,,,,,,,,,,,,,,,,,,,,,,,,,,,,,,,,,,,,,,,,,,,,,,,,,,,,,
0,71,71,72,1,,610c1a45d84406f5d5c83a45,62c539ad9c287cc7faf3dbcd,2022-07-06_09h35.02.393,Colour_Asymmetry_Pilot,2022.1.3,Win32,60.0132029,62c50e9c1127f2cd403a315f,,,,,,,,,,,,,,,,,,,,,,,,,,,,,,,,,,,,,,,,,,,,,,,,,,,,,,,,,,,,,,,,,,,,,,,,,,,,,,,,,,,,,,,,,,,,,,,,,,,,,,,,,,,,,,,,,,,,,,,,,,,,,,,,,,,,,,,,,,,,,,,,,,,,,,,,,,,,,,,,,,,
0,72,72,88,1,,610c1a45d84406f5d5c83a45,62c539ad9c287cc7faf3dbcd,2022-07-06_09h35.02.393,Colour_Asymmetry_Pilot,2022.1.3,Win32,60.0132029,62c50e9c1127f2cd403a315f,,,,,,,,,,,,,,,,,,,,,,,,,,,,,,,,,,,,,,,,,,,,,,,,,,,,,,,,,,,,,,,,,,,,,,,,,,,,,,,,,,,,,,,,,,,,,,,,,,,,,,,,,,,,,,,,,,,,,,,,,,,,,,,,,,,,,,,,,,,,,,,,,,,,,,,,,,,,,,,,,,,
0,73,73,15,1,,610c1a45d84406f5d5c83a45,62c539ad9c287cc7faf3dbcd,2022-07-06_09h35.02.393,Colour_Asymmetry_Pilot,2022.1.3,Win32,60.0132029,62c50e9c1127f2cd403a315f,,,,,,,,,,,,,,,,,,,,,,,,,,,,,,,,,,,,,,,,,,,,,,,,,,,,,,,,,,,,,,,,,,,,,,,,,,,,,,,,,,,,,,,,,,,,,,,,,,,,,,,,,,,,,,,,,,,,,,,,,,,,,,,,,,,,,,,,,,,,,,,,,,,,,,,,,,,,,,,,,,,
0,74,74,75,1,,610c1a45d84406f5d5c83a45,62c539ad9c287cc7faf3dbcd,2022-07-06_09h35.02.393,Colour_Asymmetry_Pilot,2022.1.3,Win32,60.0132029,62c50e9c1127f2cd403a315f,,,,,,,,,,,,,,,,,,,,,,,,,,,,,,,,,,,,,,,,,,,,,,,,,,,,,,,,,,,,,,,,,,,,,,,,,,,,,,,,,,,,,,,,,,,,,,,,,,,,,,,,,,,,,,,,,,,,,,,,,,,,,,,,,,,,,,,,,,,,,,,,,,,,,,,,,,,,,,,,,,,
0,75,75,22,1,,610c1a45d84406f5d5c83a45,62c539ad9c287cc7faf3dbcd,2022-07-06_09h35.02.393,Colour_Asymmetry_Pilot,2022.1.3,Win32,60.0132029,62c50e9c1127f2cd403a315f,,,,,,,,,,,,,,,,,,,,,,,,,,,,,,,,,,,,,,,,,,,,,,,,,,,,,,,,,,,,,,,,,,,,,,,,,,,,,,,,,,,,,,,,,,,,,,,,,,,,,,,,,,,,,,,,,,,,,,,,,,,,,,,,,,,,,,,,,,,,,,,,,,,,,,,,,,,,,,,,,,,
0,76,76,25,1,,610c1a45d84406f5d5c83a45,62c539ad9c287cc7faf3dbcd,2022-07-06_09h35.02.393,Colour_Asymmetry_Pilot,2022.1.3,Win32,60.0132029,62c50e9c1127f2cd403a315f,,,,,,,,,,,,,,,,,,,,,,,,,,,,,,,,,,,,,,,,,,,,,,,,,,,,,,,,,,,,,,,,,,,,,,,,,,,,,,,,,,,,,,,,,,,,,,,,,,,,,,,,,,,,,,,,,,,,,,,,,,,,,,,,,,,,,,,,,,,,,,,,,,,,,,,,,,,,,,,,,,,
0,77,77,46,1,,610c1a45d84406f5d5c83a45,62c539ad9c287cc7faf3dbcd,2022-07-06_09h35.02.393,Colour_Asymmetry_Pilot,2022.1.3,Win32,60.0132029,62c50e9c1127f2cd403a315f,,,,,,,,,,,,,,,,,,,,,,,,,,,,,,,,,,,,,,,,,,,,,,,,,,,,,,,,,,,,,,,,,,,,,,,,,,,,,,,,,,,,,,,,,,,,,,,,,,,,,,,,,,,,,,,,,,,,,,,,,,,,,,,,,,,,,,,,,,,,,,,,,,,,,,,,,,,,,,,,,,,
0,78,78,27,1,,610c1a45d84406f5d5c83a45,62c539ad9c287cc7faf3dbcd,2022-07-06_09h35.02.393,Colour_Asymmetry_Pilot,2022.1.3,Win32,60.0132029,62c50e9c1127f2cd403a315f,,,,,,,,,,,,,,,,,,,,,,,,,,,,,,,,,,,,,,,,,,,,,,,,,,,,,,,,,,,,,,,,,,,,,,,,,,,,,,,,,,,,,,,,,,,,,,,,,,,,,,,,,,,,,,,,,,,,,,,,,,,,,,,,,,,,,,,,,,,,,,,,,,,,,,,,,,,,,,,,,,,
0,79,79,87,1,,610c1a45d84406f5d5c83a45,62c539ad9c287cc7faf3dbcd,2022-07-06_09h35.02.393,Colour_Asymmetry_Pilot,2022.1.3,Win32,60.0132029,62c50e9c1127f2cd403a315f,,,,,,,,,,,,,,,,,,,,,,,,,,,,,,,,,,,,,,,,,,,,,,,,,,,,,,,,,,,,,,,,,,,,,,,,,,,,,,,,,,,,,,,,,,,,,,,,,,,,,,,,,,,,,,,,,,,,,,,,,,,,,,,,,,,,,,,,,,,,,,,,,,,,,,,,,,,,,,,,,,,
0,80,80,30,1,,610c1a45d84406f5d5c83a45,62c539ad9c287cc7faf3dbcd,2022-07-06_09h35.02.393,Colour_Asymmetry_Pilot,2022.1.3,Win32,60.0132029,62c50e9c1127f2cd403a315f,,,,,,,,,,,,,,,,,,,,,,,,,,,,,,,,,,,,,,,,,,,,,,,,,,,,,,,,,,,,,,,,,,,,,,,,,,,,,,,,,,,,,,,,,,,,,,,,,,,,,,,,,,,,,,,,,,,,,,,,,,,,,,,,,,,,,,,,,,,,,,,,,,,,,,,,,,,,,,,,,,,
0,81,81,85,1,,610c1a45d84406f5d5c83a45,62c539ad9c287cc7faf3dbcd,2022-07-06_09h35.02.393,Colour_Asymmetry_Pilot,2022.1.3,Win32,60.0132029,62c50e9c1127f2cd403a315f,,,,,,,,,,,,,,,,,,,,,,,,,,,,,,,,,,,,,,,,,,,,,,,,,,,,,,,,,,,,,,,,,,,,,,,,,,,,,,,,,,,,,,,,,,,,,,,,,,,,,,,,,,,,,,,,,,,,,,,,,,,,,,,,,,,,,,,,,,,,,,,,,,,,,,,,,,,,,,,,,,,
0,82,82,65,1,,610c1a45d84406f5d5c83a45,62c539ad9c287cc7faf3dbcd,2022-07-06_09h35.02.393,Colour_Asymmetry_Pilot,2022.1.3,Win32,60.0132029,62c50e9c1127f2cd403a315f,,,,,,,,,,,,,,,,,,,,,,,,,,,,,,,,,,,,,,,,,,,,,,,,,,,,,,,,,,,,,,,,,,,,,,,,,,,,,,,,,,,,,,,,,,,,,,,,,,,,,,,,,,,,,,,,,,,,,,,,,,,,,,,,,,,,,,,,,,,,,,,,,,,,,,,,,,,,,,,,,,,
0,83,83,16,1,,610c1a45d84406f5d5c83a45,62c539ad9c287cc7faf3dbcd,2022-07-06_09h35.02.393,Colour_Asymmetry_Pilot,2022.1.3,Win32,60.0132029,62c50e9c1127f2cd403a315f,,,,,,,,,,,,,,,,,,,,,,,,,,,,,,,,,,,,,,,,,,,,,,,,,,,,,,,,,,,,,,,,,,,,,,,,,,,,,,,,,,,,,,,,,,,,,,,,,,,,,,,,,,,,,,,,,,,,,,,,,,,,,,,,,,,,,,,,,,,,,,,,,,,,,,,,,,,,,,,,,,,
0,84,84,38,1,,610c1a45d84406f5d5c83a45,62c539ad9c287cc7faf3dbcd,2022-07-06_09h35.02.393,Colour_Asymmetry_Pilot,2022.1.3,Win32,60.0132029,62c50e9c1127f2cd403a315f,,,,,,,,,,,,,,,,,,,,,,,,,,,,,,,,,,,,,,,,,,,,,,,,,,,,,,,,,,,,,,,,,,,,,,,,,,,,,,,,,,,,,,,,,,,,,,,,,,,,,,,,,,,,,,,,,,,,,,,,,,,,,,,,,,,,,,,,,,,,,,,,,,,,,,,,,,,,,,,,,,,
0,85,85,56,1,,610c1a45d84406f5d5c83a45,62c539ad9c287cc7faf3dbcd,2022-07-06_09h35.02.393,Colour_Asymmetry_Pilot,2022.1.3,Win32,60.0132029,62c50e9c1127f2cd403a315f,,,,,,,,,,,,,,,,,,,,,,,,,,,,,,,,,,,,,,,,,,,,,,,,,,,,,,,,,,,,,,,,,,,,,,,,,,,,,,,,,,,,,,,,,,,,,,,,,,,,,,,,,,,,,,,,,,,,,,,,,,,,,,,,,,,,,,,,,,,,,,,,,,,,,,,,,,,,,,,,,,,
0,86,86,51,1,,610c1a45d84406f5d5c83a45,62c539ad9c287cc7faf3dbcd,2022-07-06_09h35.02.393,Colour_Asymmetry_Pilot,2022.1.3,Win32,60.0132029,62c50e9c1127f2cd403a315f,,,,,,,,,,,,,,,,,,,,,,,,,,,,,,,,,,,,,,,,,,,,,,,,,,,,,,,,,,,,,,,,,,,,,,,,,,,,,,,,,,,,,,,,,,,,,,,,,,,,,,,,,,,,,,,,,,,,,,,,,,,,,,,,,,,,,,,,,,,,,,,,,,,,,,,,,,,,,,,,,,,
0,87,87,26,1,,610c1a45d84406f5d5c83a45,62c539ad9c287cc7faf3dbcd,2022-07-06_09h35.02.393,Colour_Asymmetry_Pilot,2022.1.3,Win32,60.0132029,62c50e9c1127f2cd403a315f,,,,,,,,,,,,,,,,,,,,,,,,,,,,,,,,,,,,,,,,,,,,,,,,,,,,,,,,,,,,,,,,,,,,,,,,,,,,,,,,,,,,,,,,,,,,,,,,,,,,,,,,,,,,,,,,,,,,,,,,,,,,,,,,,,,,,,,,,,,,,,,,,,,,,,,,,,,,,,,,,,,
0,88,88,6,1,,610c1a45d84406f5d5c83a45,62c539ad9c287cc7faf3dbcd,2022-07-06_09h35.02.393,Colour_Asymmetry_Pilot,2022.1.3,Win32,60.0132029,62c50e9c1127f2cd403a315f,,,,,,,,,,,,,,,,,,,,,,,,,,,,,,,,,,,,,,,,,,,,,,,,,,,,,,,,,,,,,,,,,,,,,,,,,,,,,,,,,,,,,,,,,,,,,,,,,,,,,,,,,,,,,,,,,,,,,,,,,,,,,,,,,,,,,,,,,,,,,,,,,,,,,,,,,,,,,,,,,,,
0,89,89,45,1,,610c1a45d84406f5d5c83a45,62c539ad9c287cc7faf3dbcd,2022-07-06_09h35.02.393,Colour_Asymmetry_Pilot,2022.1.3,Win32,60.0132029,62c50e9c1127f2cd403a315f,,,,,,,,,,,,,,,,,,,,,,,,,,,,,,,,,,,,,,,,,,,,,,,,,,,,,,,,,,,,,,,,,,,,,,,,,,,,,,,,,,,,,,,,,,,,,,,,,,,,,,,,,,,,,,,,,,,,,,,,,,,,,,,,,,,,,,,,,,,,,,,,,,,,,,,,,,,,,,,,,,,
0,90,90,49,1,,610c1a45d84406f5d5c83a45,62c539ad9c287cc7faf3dbcd,2022-07-06_09h35.02.393,Colour_Asymmetry_Pilot,2022.1.3,Win32,60.0132029,62c50e9c1127f2cd403a315f,,,,,,,,,,,,,,,,,,,,,,,,,,,,,,,,,,,,,,,,,,,,,,,,,,,,,,,,,,,,,,,,,,,,,,,,,,,,,,,,,,,,,,,,,,,,,,,,,,,,,,,,,,,,,,,,,,,,,,,,,,,,,,,,,,,,,,,,,,,,,,,,,,,,,,,,,,,,,,,,,,,
0,91,91,69,1,,610c1a45d84406f5d5c83a45,62c539ad9c287cc7faf3dbcd,2022-07-06_09h35.02.393,Colour_Asymmetry_Pilot,2022.1.3,Win32,60.0132029,62c50e9c1127f2cd403a315f,,,,,,,,,,,,,,,,,,,,,,,,,,,,,,,,,,,,,,,,,,,,,,,,,,,,,,,,,,,,,,,,,,,,,,,,,,,,,,,,,,,,,,,,,,,,,,,,,,,,,,,,,,,,,,,,,,,,,,,,,,,,,,,,,,,,,,,,,,,,,,,,,,,,,,,,,,,,,,,,,,,
0,92,92,86,1,,610c1a45d84406f5d5c83a45,62c539ad9c287cc7faf3dbcd,2022-07-06_09h35.02.393,Colour_Asymmetry_Pilot,2022.1.3,Win32,60.0132029,62c50e9c1127f2cd403a315f,,,,,,,,,,,,,,,,,,,,,,,,,,,,,,,,,,,,,,,,,,,,,,,,,,,,,,,,,,,,,,,,,,,,,,,,,,,,,,,,,,,,,,,,,,,,,,,,,,,,,,,,,,,,,,,,,,,,,,,,,,,,,,,,,,,,,,,,,,,,,,,,,,,,,,,,,,,,,,,,,,,
,,,,,,610c1a45d84406f5d5c83a45,62c539ad9c287cc7faf3dbcd,2022-07-06_09h35.02.393,Colour_Asymmetry_Pilot,2022.1.3,Win32,60.0132029,62c50e9c1127f2cd403a315f,0,0,0,51,1,twofour,,,,,,,,,,,,,,,,,,,,,,,,,,,,,,,,,,,,,,,,,,,,,,,,,,,,,,,,,,,,,,,,,,,,,,,,,,,,,,,,,,,,,,,,,,,,,,,,,,,,,,,,,,,,,,,,,,,,,,,,,,,,,,,,,,,,,,,,,,,,,,,,,,,,,,,,,,,,,
,,,,,,610c1a45d84406f5d5c83a45,62c539ad9c287cc7faf3dbcd,2022-07-06_09h35.02.393,Colour_Asymmetry_Pilot,2022.1.3,Win32,60.0132029,62c50e9c1127f2cd403a315f,0,1,1,86,1,fourtwo,,,,,,,,,,,,,,,,,,,,,,,,,,,,,,,,,,,,,,,,,,,,,,,,,,,,,,,,,,,,,,,,,,,,,,,,,,,,,,,,,,,,,,,,,,,,,,,,,,,,,,,,,,,,,,,,,,,,,,,,,,,,,,,,,,,,,,,,,,,,,,,,,,,,,,,,,,,,,
,,,,,,610c1a45d84406f5d5c83a45,62c539ad9c287cc7faf3dbcd,2022-07-06_09h35.02.393,Colour_Asymmetry_Pilot,2022.1.3,Win32,60.0132029,62c50e9c1127f2cd403a315f,0,2,2,41,1,onethree,,,,,,,,,,,,,,,,,,,,,,,,,,,,,,,,,,,,,,,,,,,,,,,,,,,,,,,,,,,,,,,,,,,,,,,,,,,,,,,,,,,,,,,,,,,,,,,,,,,,,,,,,,,,,,,,,,,,,,,,,,,,,,,,,,,,,,,,,,,,,,,,,,,,,,,,,,,,,
,,,,,,610c1a45d84406f5d5c83a45,62c539ad9c287cc7faf3dbcd,2022-07-06_09h35.02.393,Colour_Asymmetry_Pilot,2022.1.3,Win32,60.0132029,62c50e9c1127f2cd403a315f,0,3,3,120,1,onetwo,,,,,,,,,,,,,,,,,,,,,,,,,,,,,,,,,,,,,,,,,,,,,,,,,,,,,,,,,,,,,,,,,,,,,,,,,,,,,,,,,,,,,,,,,,,,,,,,,,,,,,,,,,,,,,,,,,,,,,,,,,,,,,,,,,,,,,,,,,,,,,,,,,,,,,,,,,,,,
,,,,,,610c1a45d84406f5d5c83a45,62c539ad9c287cc7faf3dbcd,2022-07-06_09h35.02.393,Colour_Asymmetry_Pilot,2022.1.3,Win32,60.0132029,62c50e9c1127f2cd403a315f,0,4,4,94,1,fourtwo,,,,,,,,,,,,,,,,,,,,,,,,,,,,,,,,,,,,,,,,,,,,,,,,,,,,,,,,,,,,,,,,,,,,,,,,,,,,,,,,,,,,,,,,,,,,,,,,,,,,,,,,,,,,,,,,,,,,,,,,,,,,,,,,,,,,,,,,,,,,,,,,,,,,,,,,,,,,,
,,,,,,610c1a45d84406f5d5c83a45,62c539ad9c287cc7faf3dbcd,2022-07-06_09h35.02.393,Colour_Asymmetry_Pilot,2022.1.3,Win32,60.0132029,62c50e9c1127f2cd403a315f,0,5,5,57,1,onethree,,,,,,,,,,,,,,,,,,,,,,,,,,,,,,,,,,,,,,,,,,,,,,,,,,,,,,,,,,,,,,,,,,,,,,,,,,,,,,,,,,,,,,,,,,,,,,,,,,,,,,,,,,,,,,,,,,,,,,,,,,,,,,,,,,,,,,,,,,,,,,,,,,,,,,,,,,,,,
,,,,,,610c1a45d84406f5d5c83a45,62c539ad9c287cc7faf3dbcd,2022-07-06_09h35.02.393,Colour_Asymmetry_Pilot,2022.1.3,Win32,60.0132029,62c50e9c1127f2cd403a315f,0,6,6,154,1,twoone,,,,,,,,,,,,,,,,,,,,,,,,,,,,,,,,,,,,,,,,,,,,,,,,,,,,,,,,,,,,,,,,,,,,,,,,,,,,,,,,,,,,,,,,,,,,,,,,,,,,,,,,,,,,,,,,,,,,,,,,,,,,,,,,,,,,,,,,,,,,,,,,,,,,,,,,,,,,,
,,,,,,610c1a45d84406f5d5c83a45,62c539ad9c287cc7faf3dbcd,2022-07-06_09h35.02.393,Colour_Asymmetry_Pilot,2022.1.3,Win32,60.0132029,62c50e9c1127f2cd403a315f,0,7,7,99,1,twofour,,,,,,,,,,,,,,,,,,,,,,,,,,,,,,,,,,,,,,,,,,,,,,,,,,,,,,,,,,,,,,,,,,,,,,,,,,,,,,,,,,,,,,,,,,,,,,,,,,,,,,,,,,,,,,,,,,,,,,,,,,,,,,,,,,,,,,,,,,,,,,,,,,,,,,,,,,,,,
,,,,,,610c1a45d84406f5d5c83a45,62c539ad9c287cc7faf3dbcd,2022-07-06_09h35.02.393,Colour_Asymmetry_Pilot,2022.1.3,Win32,60.0132029,62c50e9c1127f2cd403a315f,0,8,8,52,1,threeone,,,,,,,,,,,,,,,,,,,,,,,,,,,,,,,,,,,,,,,,,,,,,,,,,,,,,,,,,,,,,,,,,,,,,,,,,,,,,,,,,,,,,,,,,,,,,,,,,,,,,,,,,,,,,,,,,,,,,,,,,,,,,,,,,,,,,,,,,,,,,,,,,,,,,,,,,,,,,
,,,,,,610c1a45d84406f5d5c83a45,62c539ad9c287cc7faf3dbcd,2022-07-06_09h35.02.393,Colour_Asymmetry_Pilot,2022.1.3,Win32,60.0132029,62c50e9c1127f2cd403a315f,0,9,9,35,1,twofour,,,,,,,,,,,,,,,,,,,,,,,,,,,,,,,,,,,,,,,,,,,,,,,,,,,,,,,,,,,,,,,,,,,,,,,,,,,,,,,,,,,,,,,,,,,,,,,,,,,,,,,,,,,,,,,,,,,,,,,,,,,,,,,,,,,,,,,,,,,,,,,,,,,,,,,,,,,,,
,,,,,,610c1a45d84406f5d5c83a45,62c539ad9c287cc7faf3dbcd,2022-07-06_09h35.02.393,Colour_Asymmetry_Pilot,2022.1.3,Win32,60.0132029,62c50e9c1127f2cd403a315f,0,10,10,22,1,fourtwo,,,,,,,,,,,,,,,,,,,,,,,,,,,,,,,,,,,,,,,,,,,,,,,,,,,,,,,,,,,,,,,,,,,,,,,,,,,,,,,,,,,,,,,,,,,,,,,,,,,,,,,,,,,,,,,,,,,,,,,,,,,,,,,,,,,,,,,,,,,,,,,,,,,,,,,,,,,,,
,,,,,,610c1a45d84406f5d5c83a45,62c539ad9c287cc7faf3dbcd,2022-07-06_09h35.02.393,Colour_Asymmetry_Pilot,2022.1.3,Win32,60.0132029,62c50e9c1127f2cd403a315f,0,11,11,2,1,twoone,,,,,,,,,,,,,,,,,,,,,,,,,,,,,,,,,,,,,,,,,,,,,,,,,,,,,,,,,,,,,,,,,,,,,,,,,,,,,,,,,,,,,,,,,,,,,,,,,,,,,,,,,,,,,,,,,,,,,,,,,,,,,,,,,,,,,,,,,,,,,,,,,,,,,,,,,,,,,
,,,,,,610c1a45d84406f5d5c83a45,62c539ad9c287cc7faf3dbcd,2022-07-06_09h35.02.393,Colour_Asymmetry_Pilot,2022.1.3,Win32,60.0132029,62c50e9c1127f2cd403a315f,0,12,12,108,1,threeone,,,,,,,,,,,,,,,,,,,,,,,,,,,,,,,,,,,,,,,,,,,,,,,,,,,,,,,,,,,,,,,,,,,,,,,,,,,,,,,,,,,,,,,,,,,,,,,,,,,,,,,,,,,,,,,,,,,,,,,,,,,,,,,,,,,,,,,,,,,,,,,,,,,,,,,,,,,,,
,,,,,,610c1a45d84406f5d5c83a45,62c539ad9c287cc7faf3dbcd,2022-07-06_09h35.02.393,Colour_Asymmetry_Pilot,2022.1.3,Win32,60.0132029,62c50e9c1127f2cd403a315f,0,13,13,145,1,onethree,,,,,,,,,,,,,,,,,,,,,,,,,,,,,,,,,,,,,,,,,,,,,,,,,,,,,,,,,,,,,,,,,,,,,,,,,,,,,,,,,,,,,,,,,,,,,,,,,,,,,,,,,,,,,,,,,,,,,,,,,,,,,,,,,,,,,,,,,,,,,,,,,,,,,,,,,,,,,
,,,,,,610c1a45d84406f5d5c83a45,62c539ad9c287cc7faf3dbcd,2022-07-06_09h35.02.393,Colour_Asymmetry_Pilot,2022.1.3,Win32,60.0132029,62c50e9c1127f2cd403a315f,0,14,14,85,1,threefour,,,,,,,,,,,,,,,,,,,,,,,,,,,,,,,,,,,,,,,,,,,,,,,,,,,,,,,,,,,,,,,,,,,,,,,,,,,,,,,,,,,,,,,,,,,,,,,,,,,,,,,,,,,,,,,,,,,,,,,,,,,,,,,,,,,,,,,,,,,,,,,,,,,,,,,,,,,,,
,,,,,,610c1a45d84406f5d5c83a45,62c539ad9c287cc7faf3dbcd,2022-07-06_09h35.02.393,Colour_Asymmetry_Pilot,2022.1.3,Win32,60.0132029,62c50e9c1127f2cd403a315f,0,15,15,113,1,onethree,,,,,,,,,,,,,,,,,,,,,,,,,,,,,,,,,,,,,,,,,,,,,,,,,,,,,,,,,,,,,,,,,,,,,,,,,,,,,,,,,,,,,,,,,,,,,,,,,,,,,,,,,,,,,,,,,,,,,,,,,,,,,,,,,,,,,,,,,,,,,,,,,,,,,,,,,,,,,
,,,,,,610c1a45d84406f5d5c83a45,62c539ad9c287cc7faf3dbcd,2022-07-06_09h35.02.393,Colour_Asymmetry_Pilot,2022.1.3,Win32,60.0132029,62c50e9c1127f2cd403a315f,0,16,16,138,1,twoone,,,,,,,,,,,,,,,,,,,,,,,,,,,,,,,,,,,,,,,,,,,,,,,,,,,,,,,,,,,,,,,,,,,,,,,,,,,,,,,,,,,,,,,,,,,,,,,,,,,,,,,,,,,,,,,,,,,,,,,,,,,,,,,,,,,,,,,,,,,,,,,,,,,,,,,,,,,,,
,,,,,,610c1a45d84406f5d5c83a45,62c539ad9c287cc7faf3dbcd,2022-07-06_09h35.02.393,Colour_Asymmetry_Pilot,2022.1.3,Win32,60.0132029,62c50e9c1127f2cd403a315f,0,17,17,90,1,twoone,,,,,,,,,,,,,,,,,,,,,,,,,,,,,,,,,,,,,,,,,,,,,,,,,,,,,,,,,,,,,,,,,,,,,,,,,,,,,,,,,,,,,,,,,,,,,,,,,,,,,,,,,,,,,,,,,,,,,,,,,,,,,,,,,,,,,,,,,,,,,,,,,,,,,,,,,,,,,
,,,,,,610c1a45d84406f5d5c83a45,62c539ad9c287cc7faf3dbcd,2022-07-06_09h35.02.393,Colour_Asymmetry_Pilot,2022.1.3,Win32,60.0132029,62c50e9c1127f2cd403a315f,0,18,18,15,1,fourthree,,,,,,,,,,,,,,,,,,,,,,,,,,,,,,,,,,,,,,,,,,,,,,,,,,,,,,,,,,,,,,,,,,,,,,,,,,,,,,,,,,,,,,,,,,,,,,,,,,,,,,,,,,,,,,,,,,,,,,,,,,,,,,,,,,,,,,,,,,,,,,,,,,,,,,,,,,,,,
,,,,,,610c1a45d84406f5d5c83a45,62c539ad9c287cc7faf3dbcd,2022-07-06_09h35.02.393,Colour_Asymmetry_Pilot,2022.1.3,Win32,60.0132029,62c50e9c1127f2cd403a315f,0,19,19,64,1,onetwo,,,,,,,,,,,,,,,,,,,,,,,,,,,,,,,,,,,,,,,,,,,,,,,,,,,,,,,,,,,,,,,,,,,,,,,,,,,,,,,,,,,,,,,,,,,,,,,,,,,,,,,,,,,,,,,,,,,,,,,,,,,,,,,,,,,,,,,,,,,,,,,,,,,,,,,,,,,,,
,,,,,,610c1a45d84406f5d5c83a45,62c539ad9c287cc7faf3dbcd,2022-07-06_09h35.02.393,Colour_Asymmetry_Pilot,2022.1.3,Win32,60.0132029,62c50e9c1127f2cd403a315f,0,20,20,34,1,twoone,,,,,,,,,,,,,,,,,,,,,,,,,,,,,,,,,,,,,,,,,,,,,,,,,,,,,,,,,,,,,,,,,,,,,,,,,,,,,,,,,,,,,,,,,,,,,,,,,,,,,,,,,,,,,,,,,,,,,,,,,,,,,,,,,,,,,,,,,,,,,,,,,,,,,,,,,,,,,
,,,,,,610c1a45d84406f5d5c83a45,62c539ad9c287cc7faf3dbcd,2022-07-06_09h35.02.393,Colour_Asymmetry_Pilot,2022.1.3,Win32,60.0132029,62c50e9c1127f2cd403a315f,0,21,21,156,1,threeone,,,,,,,,,,,,,,,,,,,,,,,,,,,,,,,,,,,,,,,,,,,,,,,,,,,,,,,,,,,,,,,,,,,,,,,,,,,,,,,,,,,,,,,,,,,,,,,,,,,,,,,,,,,,,,,,,,,,,,,,,,,,,,,,,,,,,,,,,,,,,,,,,,,,,,,,,,,,,
,,,,,,610c1a45d84406f5d5c83a45,62c539ad9c287cc7faf3dbcd,2022-07-06_09h35.02.393,Colour_Asymmetry_Pilot,2022.1.3,Win32,60.0132029,62c50e9c1127f2cd403a315f,0,22,22,107,1,twofour,,,,,,,,,,,,,,,,,,,,,,,,,,,,,,,,,,,,,,,,,,,,,,,,,,,,,,,,,,,,,,,,,,,,,,,,,,,,,,,,,,,,,,,,,,,,,,,,,,,,,,,,,,,,,,,,,,,,,,,,,,,,,,,,,,,,,,,,,,,,,,,,,,,,,,,,,,,,,
,,,,,,610c1a45d84406f5d5c83a45,62c539ad9c287cc7faf3dbcd,2022-07-06_09h35.02.393,Colour_Asymmetry_Pilot,2022.1.3,Win32,60.0132029,62c50e9c1127f2cd403a315f,0,23,23,133,1,threefour,,,,,,,,,,,,,,,,,,,,,,,,,,,,,,,,,,,,,,,,,,,,,,,,,,,,,,,,,,,,,,,,,,,,,,,,,,,,,,,,,,,,,,,,,,,,,,,,,,,,,,,,,,,,,,,,,,,,,,,,,,,,,,,,,,,,,,,,,,,,,,,,,,,,,,,,,,,,,
,,,,,,610c1a45d84406f5d5c83a45,62c539ad9c287cc7faf3dbcd,2022-07-06_09h35.02.393,Colour_Asymmetry_Pilot,2022.1.3,Win32,60.0132029,62c50e9c1127f2cd403a315f,0,24,24,69,1,threefour,,,,,,,,,,,,,,,,,,,,,,,,,,,,,,,,,,,,,,,,,,,,,,,,,,,,,,,,,,,,,,,,,,,,,,,,,,,,,,,,,,,,,,,,,,,,,,,,,,,,,,,,,,,,,,,,,,,,,,,,,,,,,,,,,,,,,,,,,,,,,,,,,,,,,,,,,,,,,
,,,,,,610c1a45d84406f5d5c83a45,62c539ad9c287cc7faf3dbcd,2022-07-06_09h35.02.393,Colour_Asymmetry_Pilot,2022.1.3,Win32,60.0132029,62c50e9c1127f2cd403a315f,0,25,25,19,1,twofour,,,,,,,,,,,,,,,,,,,,,,,,,,,,,,,,,,,,,,,,,,,,,,,,,,,,,,,,,,,,,,,,,,,,,,,,,,,,,,,,,,,,,,,,,,,,,,,,,,,,,,,,,,,,,,,,,,,,,,,,,,,,,,,,,,,,,,,,,,,,,,,,,,,,,,,,,,,,,
,,,,,,610c1a45d84406f5d5c83a45,62c539ad9c287cc7faf3dbcd,2022-07-06_09h35.02.393,Colour_Asymmetry_Pilot,2022.1.3,Win32,60.0132029,62c50e9c1127f2cd403a315f,0,26,26,78,1,fourtwo,,,,,,,,,,,,,,,,,,,,,,,,,,,,,,,,,,,,,,,,,,,,,,,,,,,,,,,,,,,,,,,,,,,,,,,,,,,,,,,,,,,,,,,,,,,,,,,,,,,,,,,,,,,,,,,,,,,,,,,,,,,,,,,,,,,,,,,,,,,,,,,,,,,,,,,,,,,,,
,,,,,,610c1a45d84406f5d5c83a45,62c539ad9c287cc7faf3dbcd,2022-07-06_09h35.02.393,Colour_Asymmetry_Pilot,2022.1.3,Win32,60.0132029,62c50e9c1127f2cd403a315f,0,27,27,17,1,onethree,,,,,,,,,,,,,,,,,,,,,,,,,,,,,,,,,,,,,,,,,,,,,,,,,,,,,,,,,,,,,,,,,,,,,,,,,,,,,,,,,,,,,,,,,,,,,,,,,,,,,,,,,,,,,,,,,,,,,,,,,,,,,,,,,,,,,,,,,,,,,,,,,,,,,,,,,,,,,
,,,,,,610c1a45d84406f5d5c83a45,62c539ad9c287cc7faf3dbcd,2022-07-06_09h35.02.393,Colour_Asymmetry_Pilot,2022.1.3,Win32,60.0132029,62c50e9c1127f2cd403a315f,0,28,28,151,1,fourthree,,,,,,,,,,,,,,,,,,,,,,,,,,,,,,,,,,,,,,,,,,,,,,,,,,,,,,,,,,,,,,,,,,,,,,,,,,,,,,,,,,,,,,,,,,,,,,,,,,,,,,,,,,,,,,,,,,,,,,,,,,,,,,,,,,,,,,,,,,,,,,,,,,,,,,,,,,,,,
,,,,,,610c1a45d84406f5d5c83a45,62c539ad9c287cc7faf3dbcd,2022-07-06_09h35.02.393,Colour_Asymmetry_Pilot,2022.1.3,Win32,60.0132029,62c50e9c1127f2cd403a315f,0,29,29,46,1,fourtwo,,,,,,,,,,,,,,,,,,,,,,,,,,,,,,,,,,,,,,,,,,,,,,,,,,,,,,,,,,,,,,,,,,,,,,,,,,,,,,,,,,,,,,,,,,,,,,,,,,,,,,,,,,,,,,,,,,,,,,,,,,,,,,,,,,,,,,,,,,,,,,,,,,,,,,,,,,,,,
,,,,,,610c1a45d84406f5d5c83a45,62c539ad9c287cc7faf3dbcd,2022-07-06_09h35.02.393,Colour_Asymmetry_Pilot,2022.1.3,Win32,60.0132029,62c50e9c1127f2cd403a315f,0,30,30,158,1,fourtwo,,,,,,,,,,,,,,,,,,,,,,,,,,,,,,,,,,,,,,,,,,,,,,,,,,,,,,,,,,,,,,,,,,,,,,,,,,,,,,,,,,,,,,,,,,,,,,,,,,,,,,,,,,,,,,,,,,,,,,,,,,,,,,,,,,,,,,,,,,,,,,,,,,,,,,,,,,,,,
,,,,,,610c1a45d84406f5d5c83a45,62c539ad9c287cc7faf3dbcd,2022-07-06_09h35.02.393,Colour_Asymmetry_Pilot,2022.1.3,Win32,60.0132029,62c50e9c1127f2cd403a315f,0,31,31,121,1,onethree,,,,,,,,,,,,,,,,,,,,,,,,,,,,,,,,,,,,,,,,,,,,,,,,,,,,,,,,,,,,,,,,,,,,,,,,,,,,,,,,,,,,,,,,,,,,,,,,,,,,,,,,,,,,,,,,,,,,,,,,,,,,,,,,,,,,,,,,,,,,,,,,,,,,,,,,,,,,,
,,,,,,610c1a45d84406f5d5c83a45,62c539ad9c287cc7faf3dbcd,2022-07-06_09h35.02.393,Colour_Asymmetry_Pilot,2022.1.3,Win32,60.0132029,62c50e9c1127f2cd403a315f,0,32,32,43,1,twofour,,,,,,,,,,,,,,,,,,,,,,,,,,,,,,,,,,,,,,,,,,,,,,,,,,,,,,,,,,,,,,,,,,,,,,,,,,,,,,,,,,,,,,,,,,,,,,,,,,,,,,,,,,,,,,,,,,,,,,,,,,,,,,,,,,,,,,,,,,,,,,,,,,,,,,,,,,,,,
,,,,,,610c1a45d84406f5d5c83a45,62c539ad9c287cc7faf3dbcd,2022-07-06_09h35.02.393,Colour_Asymmetry_Pilot,2022.1.3,Win32,60.0132029,62c50e9c1127f2cd403a315f,0,33,33,111,1,fourthree,,,,,,,,,,,,,,,,,,,,,,,,,,,,,,,,,,,,,,,,,,,,,,,,,,,,,,,,,,,,,,,,,,,,,,,,,,,,,,,,,,,,,,,,,,,,,,,,,,,,,,,,,,,,,,,,,,,,,,,,,,,,,,,,,,,,,,,,,,,,,,,,,,,,,,,,,,,,,
,,,,,,610c1a45d84406f5d5c83a45,62c539ad9c287cc7faf3dbcd,2022-07-06_09h35.02.393,Colour_Asymmetry_Pilot,2022.1.3,Win32,60.0132029,62c50e9c1127f2cd403a315f,0,34,34,82,1,twoone,,,,,,,,,,,,,,,,,,,,,,,,,,,,,,,,,,,,,,,,,,,,,,,,,,,,,,,,,,,,,,,,,,,,,,,,,,,,,,,,,,,,,,,,,,,,,,,,,,,,,,,,,,,,,,,,,,,,,,,,,,,,,,,,,,,,,,,,,,,,,,,,,,,,,,,,,,,,,
,,,,,,610c1a45d84406f5d5c83a45,62c539ad9c287cc7faf3dbcd,2022-07-06_09h35.02.393,Colour_Asymmetry_Pilot,2022.1.3,Win32,60.0132029,62c50e9c1127f2cd403a315f,0,35,35,36,1,threeone,,,,,,,,,,,,,,,,,,,,,,,,,,,,,,,,,,,,,,,,,,,,,,,,,,,,,,,,,,,,,,,,,,,,,,,,,,,,,,,,,,,,,,,,,,,,,,,,,,,,,,,,,,,,,,,,,,,,,,,,,,,,,,,,,,,,,,,,,,,,,,,,,,,,,,,,,,,,,
,,,,,,610c1a45d84406f5d5c83a45,62c539ad9c287cc7faf3dbcd,2022-07-06_09h35.02.393,Colour_Asymmetry_Pilot,2022.1.3,Win32,60.0132029,62c50e9c1127f2cd403a315f,0,36,36,149,1,threefour,,,,,,,,,,,,,,,,,,,,,,,,,,,,,,,,,,,,,,,,,,,,,,,,,,,,,,,,,,,,,,,,,,,,,,,,,,,,,,,,,,,,,,,,,,,,,,,,,,,,,,,,,,,,,,,,,,,,,,,,,,,,,,,,,,,,,,,,,,,,,,,,,,,,,,,,,,,,,
,,,,,,610c1a45d84406f5d5c83a45,62c539ad9c287cc7faf3dbcd,2022-07-06_09h35.02.393,Colour_Asymmetry_Pilot,2022.1.3,Win32,60.0132029,62c50e9c1127f2cd403a315f,0,37,37,8,1,onetwo,,,,,,,,,,,,,,,,,,,,,,,,,,,,,,,,,,,,,,,,,,,,,,,,,,,,,,,,,,,,,,,,,,,,,,,,,,,,,,,,,,,,,,,,,,,,,,,,,,,,,,,,,,,,,,,,,,,,,,,,,,,,,,,,,,,,,,,,,,,,,,,,,,,,,,,,,,,,,
,,,,,,610c1a45d84406f5d5c83a45,62c539ad9c287cc7faf3dbcd,2022-07-06_09h35.02.393,Colour_Asymmetry_Pilot,2022.1.3,Win32,60.0132029,62c50e9c1127f2cd403a315f,0,38,38,126,1,fourtwo,,,,,,,,,,,,,,,,,,,,,,,,,,,,,,,,,,,,,,,,,,,,,,,,,,,,,,,,,,,,,,,,,,,,,,,,,,,,,,,,,,,,,,,,,,,,,,,,,,,,,,,,,,,,,,,,,,,,,,,,,,,,,,,,,,,,,,,,,,,,,,,,,,,,,,,,,,,,,
,,,,,,610c1a45d84406f5d5c83a45,62c539ad9c287cc7faf3dbcd,2022-07-06_09h35.02.393,Colour_Asymmetry_Pilot,2022.1.3,Win32,60.0132029,62c50e9c1127f2cd403a315f,0,39,39,84,1,threeone,,,,,,,,,,,,,,,,,,,,,,,,,,,,,,,,,,,,,,,,,,,,,,,,,,,,,,,,,,,,,,,,,,,,,,,,,,,,,,,,,,,,,,,,,,,,,,,,,,,,,,,,,,,,,,,,,,,,,,,,,,,,,,,,,,,,,,,,,,,,,,,,,,,,,,,,,,,,,
,,,,,,610c1a45d84406f5d5c83a45,62c539ad9c287cc7faf3dbcd,2022-07-06_09h35.02.393,Colour_Asymmetry_Pilot,2022.1.3,Win32,60.0132029,62c50e9c1127f2cd403a315f,0,40,40,93,1,threefour,,,,,,,,,,,,,,,,,,,,,,,,,,,,,,,,,,,,,,,,,,,,,,,,,,,,,,,,,,,,,,,,,,,,,,,,,,,,,,,,,,,,,,,,,,,,,,,,,,,,,,,,,,,,,,,,,,,,,,,,,,,,,,,,,,,,,,,,,,,,,,,,,,,,,,,,,,,,,
,,,,,,610c1a45d84406f5d5c83a45,62c539ad9c287cc7faf3dbcd,2022-07-06_09h35.02.393,Colour_Asymmetry_Pilot,2022.1.3,Win32,60.0132029,62c50e9c1127f2cd403a315f,0,41,41,37,1,threefour,,,,,,,,,,,,,,,,,,,,,,,,,,,,,,,,,,,,,,,,,,,,,,,,,,,,,,,,,,,,,,,,,,,,,,,,,,,,,,,,,,,,,,,,,,,,,,,,,,,,,,,,,,,,,,,,,,,,,,,,,,,,,,,,,,,,,,,,,,,,,,,,,,,,,,,,,,,,,
,,,,,,610c1a45d84406f5d5c83a45,62c539ad9c287cc7faf3dbcd,2022-07-06_09h35.02.393,Colour_Asymmetry_Pilot,2022.1.3,Win32,60.0132029,62c50e9c1127f2cd403a315f,0,42,42,38,1,fourtwo,,,,,,,,,,,,,,,,,,,,,,,,,,,,,,,,,,,,,,,,,,,,,,,,,,,,,,,,,,,,,,,,,,,,,,,,,,,,,,,,,,,,,,,,,,,,,,,,,,,,,,,,,,,,,,,,,,,,,,,,,,,,,,,,,,,,,,,,,,,,,,,,,,,,,,,,,,,,,
,,,,,,610c1a45d84406f5d5c83a45,62c539ad9c287cc7faf3dbcd,2022-07-06_09h35.02.393,Colour_Asymmetry_Pilot,2022.1.3,Win32,60.0132029,62c50e9c1127f2cd403a315f,0,43,43,98,1,twoone,,,,,,,,,,,,,,,,,,,,,,,,,,,,,,,,,,,,,,,,,,,,,,,,,,,,,,,,,,,,,,,,,,,,,,,,,,,,,,,,,,,,,,,,,,,,,,,,,,,,,,,,,,,,,,,,,,,,,,,,,,,,,,,,,,,,,,,,,,,,,,,,,,,,,,,,,,,,,
,,,,,,610c1a45d84406f5d5c83a45,62c539ad9c287cc7faf3dbcd,2022-07-06_09h35.02.393,Colour_Asymmetry_Pilot,2022.1.3,Win32,60.0132029,62c50e9c1127f2cd403a315f,0,44,44,150,1,fourtwo,,,,,,,,,,,,,,,,,,,,,,,,,,,,,,,,,,,,,,,,,,,,,,,,,,,,,,,,,,,,,,,,,,,,,,,,,,,,,,,,,,,,,,,,,,,,,,,,,,,,,,,,,,,,,,,,,,,,,,,,,,,,,,,,,,,,,,,,,,,,,,,,,,,,,,,,,,,,,
,,,,,,610c1a45d84406f5d5c83a45,62c539ad9c287cc7faf3dbcd,2022-07-06_09h35.02.393,Colour_Asymmetry_Pilot,2022.1.3,Win32,60.0132029,62c50e9c1127f2cd403a315f,0,45,45,10,1,twoone,,,,,,,,,,,,,,,,,,,,,,,,,,,,,,,,,,,,,,,,,,,,,,,,,,,,,,,,,,,,,,,,,,,,,,,,,,,,,,,,,,,,,,,,,,,,,,,,,,,,,,,,,,,,,,,,,,,,,,,,,,,,,,,,,,,,,,,,,,,,,,,,,,,,,,,,,,,,,
,,,,,,610c1a45d84406f5d5c83a45,62c539ad9c287cc7faf3dbcd,2022-07-06_09h35.02.393,Colour_Asymmetry_Pilot,2022.1.3,Win32,60.0132029,62c50e9c1127f2cd403a315f,0,46,46,131,1,twofour,,,,,,,,,,,,,,,,,,,,,,,,,,,,,,,,,,,,,,,,,,,,,,,,,,,,,,,,,,,,,,,,,,,,,,,,,,,,,,,,,,,,,,,,,,,,,,,,,,,,,,,,,,,,,,,,,,,,,,,,,,,,,,,,,,,,,,,,,,,,,,,,,,,,,,,,,,,,,
,,,,,,610c1a45d84406f5d5c83a45,62c539ad9c287cc7faf3dbcd,2022-07-06_09h35.02.393,Colour_Asymmetry_Pilot,2022.1.3,Win32,60.0132029,62c50e9c1127f2cd403a315f,0,47,47,63,1,fourthree,,,,,,,,,,,,,,,,,,,,,,,,,,,,,,,,,,,,,,,,,,,,,,,,,,,,,,,,,,,,,,,,,,,,,,,,,,,,,,,,,,,,,,,,,,,,,,,,,,,,,,,,,,,,,,,,,,,,,,,,,,,,,,,,,,,,,,,,,,,,,,,,,,,,,,,,,,,,,
,,,,,,610c1a45d84406f5d5c83a45,62c539ad9c287cc7faf3dbcd,2022-07-06_09h35.02.393,Colour_Asymmetry_Pilot,2022.1.3,Win32,60.0132029,62c50e9c1127f2cd403a315f,0,48,48,134,1,fourtwo,,,,,,,,,,,,,,,,,,,,,,,,,,,,,,,,,,,,,,,,,,,,,,,,,,,,,,,,,,,,,,,,,,,,,,,,,,,,,,,,,,,,,,,,,,,,,,,,,,,,,,,,,,,,,,,,,,,,,,,,,,,,,,,,,,,,,,,,,,,,,,,,,,,,,,,,,,,,,
,,,,,,610c1a45d84406f5d5c83a45,62c539ad9c287cc7faf3dbcd,2022-07-06_09h35.02.393,Colour_Asymmetry_Pilot,2022.1.3,Win32,60.0132029,62c50e9c1127f2cd403a315f,0,49,49,87,1,fourthree,,,,,,,,,,,,,,,,,,,,,,,,,,,,,,,,,,,,,,,,,,,,,,,,,,,,,,,,,,,,,,,,,,,,,,,,,,,,,,,,,,,,,,,,,,,,,,,,,,,,,,,,,,,,,,,,,,,,,,,,,,,,,,,,,,,,,,,,,,,,,,,,,,,,,,,,,,,,,
,,,,,,610c1a45d84406f5d5c83a45,62c539ad9c287cc7faf3dbcd,2022-07-06_09h35.02.393,Colour_Asymmetry_Pilot,2022.1.3,Win32,60.0132029,62c50e9c1127f2cd403a315f,0,50,50,96,1,onetwo,,,,,,,,,,,,,,,,,,,,,,,,,,,,,,,,,,,,,,,,,,,,,,,,,,,,,,,,,,,,,,,,,,,,,,,,,,,,,,,,,,,,,,,,,,,,,,,,,,,,,,,,,,,,,,,,,,,,,,,,,,,,,,,,,,,,,,,,,,,,,,,,,,,,,,,,,,,,,
,,,,,,610c1a45d84406f5d5c83a45,62c539ad9c287cc7faf3dbcd,2022-07-06_09h35.02.393,Colour_Asymmetry_Pilot,2022.1.3,Win32,60.0132029,62c50e9c1127f2cd403a315f,0,51,51,5,1,threefour,,,,,,,,,,,,,,,,,,,,,,,,,,,,,,,,,,,,,,,,,,,,,,,,,,,,,,,,,,,,,,,,,,,,,,,,,,,,,,,,,,,,,,,,,,,,,,,,,,,,,,,,,,,,,,,,,,,,,,,,,,,,,,,,,,,,,,,,,,,,,,,,,,,,,,,,,,,,,
,,,,,,610c1a45d84406f5d5c83a45,62c539ad9c287cc7faf3dbcd,2022-07-06_09h35.02.393,Colour_Asymmetry_Pilot,2022.1.3,Win32,60.0132029,62c50e9c1127f2cd403a315f,0,52,52,127,1,fourthree,,,,,,,,,,,,,,,,,,,,,,,,,,,,,,,,,,,,,,,,,,,,,,,,,,,,,,,,,,,,,,,,,,,,,,,,,,,,,,,,,,,,,,,,,,,,,,,,,,,,,,,,,,,,,,,,,,,,,,,,,,,,,,,,,,,,,,,,,,,,,,,,,,,,,,,,,,,,,
,,,,,,610c1a45d84406f5d5c83a45,62c539ad9c287cc7faf3dbcd,2022-07-06_09h35.02.393,Colour_Asymmetry_Pilot,2022.1.3,Win32,60.0132029,62c50e9c1127f2cd403a315f,0,53,53,153,1,onethree,,,,,,,,,,,,,,,,,,,,,,,,,,,,,,,,,,,,,,,,,,,,,,,,,,,,,,,,,,,,,,,,,,,,,,,,,,,,,,,,,,,,,,,,,,,,,,,,,,,,,,,,,,,,,,,,,,,,,,,,,,,,,,,,,,,,,,,,,,,,,,,,,,,,,,,,,,,,,
,,,,,,610c1a45d84406f5d5c83a45,62c539ad9c287cc7faf3dbcd,2022-07-06_09h35.02.393,Colour_Asymmetry_Pilot,2022.1.3,Win32,60.0132029,62c50e9c1127f2cd403a315f,0,54,54,155,1,twofour,,,,,,,,,,,,,,,,,,,,,,,,,,,,,,,,,,,,,,,,,,,,,,,,,,,,,,,,,,,,,,,,,,,,,,,,,,,,,,,,,,,,,,,,,,,,,,,,,,,,,,,,,,,,,,,,,,,,,,,,,,,,,,,,,,,,,,,,,,,,,,,,,,,,,,,,,,,,,
,,,,,,610c1a45d84406f5d5c83a45,62c539ad9c287cc7faf3dbcd,2022-07-06_09h35.02.393,Colour_Asymmetry_Pilot,2022.1.3,Win32,60.0132029,62c50e9c1127f2cd403a315f,0,55,55,101,1,threefour,,,,,,,,,,,,,,,,,,,,,,,,,,,,,,,,,,,,,,,,,,,,,,,,,,,,,,,,,,,,,,,,,,,,,,,,,,,,,,,,,,,,,,,,,,,,,,,,,,,,,,,,,,,,,,,,,,,,,,,,,,,,,,,,,,,,,,,,,,,,,,,,,,,,,,,,,,,,,
,,,,,,610c1a45d84406f5d5c83a45,62c539ad9c287cc7faf3dbcd,2022-07-06_09h35.02.393,Colour_Asymmetry_Pilot,2022.1.3,Win32,60.0132029,62c50e9c1127f2cd403a315f,0,56,56,23,1,fourthree,,,,,,,,,,,,,,,,,,,,,,,,,,,,,,,,,,,,,,,,,,,,,,,,,,,,,,,,,,,,,,,,,,,,,,,,,,,,,,,,,,,,,,,,,,,,,,,,,,,,,,,,,,,,,,,,,,,,,,,,,,,,,,,,,,,,,,,,,,,,,,,,,,,,,,,,,,,,,
,,,,,,610c1a45d84406f5d5c83a45,62c539ad9c287cc7faf3dbcd,2022-07-06_09h35.02.393,Colour_Asymmetry_Pilot,2022.1.3,Win32,60.0132029,62c50e9c1127f2cd403a315f,0,57,57,105,1,onethree,,,,,,,,,,,,,,,,,,,,,,,,,,,,,,,,,,,,,,,,,,,,,,,,,,,,,,,,,,,,,,,,,,,,,,,,,,,,,,,,,,,,,,,,,,,,,,,,,,,,,,,,,,,,,,,,,,,,,,,,,,,,,,,,,,,,,,,,,,,,,,,,,,,,,,,,,,,,,
,,,,,,610c1a45d84406f5d5c83a45,62c539ad9c287cc7faf3dbcd,2022-07-06_09h35.02.393,Colour_Asymmetry_Pilot,2022.1.3,Win32,60.0132029,62c50e9c1127f2cd403a315f,0,58,58,33,1,onethree,,,,,,,,,,,,,,,,,,,,,,,,,,,,,,,,,,,,,,,,,,,,,,,,,,,,,,,,,,,,,,,,,,,,,,,,,,,,,,,,,,,,,,,,,,,,,,,,,,,,,,,,,,,,,,,,,,,,,,,,,,,,,,,,,,,,,,,,,,,,,,,,,,,,,,,,,,,,,
,,,,,,610c1a45d84406f5d5c83a45,62c539ad9c287cc7faf3dbcd,2022-07-06_09h35.02.393,Colour_Asymmetry_Pilot,2022.1.3,Win32,60.0132029,62c50e9c1127f2cd403a315f,0,59,59,13,1,threefour,,,,,,,,,,,,,,,,,,,,,,,,,,,,,,,,,,,,,,,,,,,,,,,,,,,,,,,,,,,,,,,,,,,,,,,,,,,,,,,,,,,,,,,,,,,,,,,,,,,,,,,,,,,,,,,,,,,,,,,,,,,,,,,,,,,,,,,,,,,,,,,,,,,,,,,,,,,,,
,,,,,,610c1a45d84406f5d5c83a45,62c539ad9c287cc7faf3dbcd,2022-07-06_09h35.02.393,Colour_Asymmetry_Pilot,2022.1.3,Win32,60.0132029,62c50e9c1127f2cd403a315f,0,60,60,70,1,fourtwo,,,,,,,,,,,,,,,,,,,,,,,,,,,,,,,,,,,,,,,,,,,,,,,,,,,,,,,,,,,,,,,,,,,,,,,,,,,,,,,,,,,,,,,,,,,,,,,,,,,,,,,,,,,,,,,,,,,,,,,,,,,,,,,,,,,,,,,,,,,,,,,,,,,,,,,,,,,,,
,,,,,,610c1a45d84406f5d5c83a45,62c539ad9c287cc7faf3dbcd,2022-07-06_09h35.02.393,Colour_Asymmetry_Pilot,2022.1.3,Win32,60.0132029,62c50e9c1127f2cd403a315f,0,61,61,74,1,twoone,,,,,,,,,,,,,,,,,,,,,,,,,,,,,,,,,,,,,,,,,,,,,,,,,,,,,,,,,,,,,,,,,,,,,,,,,,,,,,,,,,,,,,,,,,,,,,,,,,,,,,,,,,,,,,,,,,,,,,,,,,,,,,,,,,,,,,,,,,,,,,,,,,,,,,,,,,,,,
,,,,,,610c1a45d84406f5d5c83a45,62c539ad9c287cc7faf3dbcd,2022-07-06_09h35.02.393,Colour_Asymmetry_Pilot,2022.1.3,Win32,60.0132029,62c50e9c1127f2cd403a315f,0,62,62,81,1,onethree,,,,,,,,,,,,,,,,,,,,,,,,,,,,,,,,,,,,,,,,,,,,,,,,,,,,,,,,,,,,,,,,,,,,,,,,,,,,,,,,,,,,,,,,,,,,,,,,,,,,,,,,,,,,,,,,,,,,,,,,,,,,,,,,,,,,,,,,,,,,,,,,,,,,,,,,,,,,,
,,,,,,610c1a45d84406f5d5c83a45,62c539ad9c287cc7faf3dbcd,2022-07-06_09h35.02.393,Colour_Asymmetry_Pilot,2022.1.3,Win32,60.0132029,62c50e9c1127f2cd403a315f,0,63,63,67,1,twofour,,,,,,,,,,,,,,,,,,,,,,,,,,,,,,,,,,,,,,,,,,,,,,,,,,,,,,,,,,,,,,,,,,,,,,,,,,,,,,,,,,,,,,,,,,,,,,,,,,,,,,,,,,,,,,,,,,,,,,,,,,,,,,,,,,,,,,,,,,,,,,,,,,,,,,,,,,,,,
,,,,,,610c1a45d84406f5d5c83a45,62c539ad9c287cc7faf3dbcd,2022-07-06_09h35.02.393,Colour_Asymmetry_Pilot,2022.1.3,Win32,60.0132029,62c50e9c1127f2cd403a315f,0,64,64,50,1,twoone,,,,,,,,,,,,,,,,,,,,,,,,,,,,,,,,,,,,,,,,,,,,,,,,,,,,,,,,,,,,,,,,,,,,,,,,,,,,,,,,,,,,,,,,,,,,,,,,,,,,,,,,,,,,,,,,,,,,,,,,,,,,,,,,,,,,,,,,,,,,,,,,,,,,,,,,,,,,,
,,,,,,610c1a45d84406f5d5c83a45,62c539ad9c287cc7faf3dbcd,2022-07-06_09h35.02.393,Colour_Asymmetry_Pilot,2022.1.3,Win32,60.0132029,62c50e9c1127f2cd403a315f,0,65,65,72,1,onetwo,,,,,,,,,,,,,,,,,,,,,,,,,,,,,,,,,,,,,,,,,,,,,,,,,,,,,,,,,,,,,,,,,,,,,,,,,,,,,,,,,,,,,,,,,,,,,,,,,,,,,,,,,,,,,,,,,,,,,,,,,,,,,,,,,,,,,,,,,,,,,,,,,,,,,,,,,,,,,
,,,,,,610c1a45d84406f5d5c83a45,62c539ad9c287cc7faf3dbcd,2022-07-06_09h35.02.393,Colour_Asymmetry_Pilot,2022.1.3,Win32,60.0132029,62c50e9c1127f2cd403a315f,0,66,66,45,1,threefour,,,,,,,,,,,,,,,,,,,,,,,,,,,,,,,,,,,,,,,,,,,,,,,,,,,,,,,,,,,,,,,,,,,,,,,,,,,,,,,,,,,,,,,,,,,,,,,,,,,,,,,,,,,,,,,,,,,,,,,,,,,,,,,,,,,,,,,,,,,,,,,,,,,,,,,,,,,,,
,,,,,,610c1a45d84406f5d5c83a45,62c539ad9c287cc7faf3dbcd,2022-07-06_09h35.02.393,Colour_Asymmetry_Pilot,2022.1.3,Win32,60.0132029,62c50e9c1127f2cd403a315f,0,67,67,61,1,threefour,,,,,,,,,,,,,,,,,,,,,,,,,,,,,,,,,,,,,,,,,,,,,,,,,,,,,,,,,,,,,,,,,,,,,,,,,,,,,,,,,,,,,,,,,,,,,,,,,,,,,,,,,,,,,,,,,,,,,,,,,,,,,,,,,,,,,,,,,,,,,,,,,,,,,,,,,,,,,
,,,,,,610c1a45d84406f5d5c83a45,62c539ad9c287cc7faf3dbcd,2022-07-06_09h35.02.393,Colour_Asymmetry_Pilot,2022.1.3,Win32,60.0132029,62c50e9c1127f2cd403a315f,0,68,68,123,1,twofour,,,,,,,,,,,,,,,,,,,,,,,,,,,,,,,,,,,,,,,,,,,,,,,,,,,,,,,,,,,,,,,,,,,,,,,,,,,,,,,,,,,,,,,,,,,,,,,,,,,,,,,,,,,,,,,,,,,,,,,,,,,,,,,,,,,,,,,,,,,,,,,,,,,,,,,,,,,,,
,,,,,,610c1a45d84406f5d5c83a45,62c539ad9c287cc7faf3dbcd,2022-07-06_09h35.02.393,Colour_Asymmetry_Pilot,2022.1.3,Win32,60.0132029,62c50e9c1127f2cd403a315f,0,69,69,115,1,twofour,,,,,,,,,,,,,,,,,,,,,,,,,,,,,,,,,,,,,,,,,,,,,,,,,,,,,,,,,,,,,,,,,,,,,,,,,,,,,,,,,,,,,,,,,,,,,,,,,,,,,,,,,,,,,,,,,,,,,,,,,,,,,,,,,,,,,,,,,,,,,,,,,,,,,,,,,,,,,
,,,,,,610c1a45d84406f5d5c83a45,62c539ad9c287cc7faf3dbcd,2022-07-06_09h35.02.393,Colour_Asymmetry_Pilot,2022.1.3,Win32,60.0132029,62c50e9c1127f2cd403a315f,0,70,70,118,1,fourtwo,,,,,,,,,,,,,,,,,,,,,,,,,,,,,,,,,,,,,,,,,,,,,,,,,,,,,,,,,,,,,,,,,,,,,,,,,,,,,,,,,,,,,,,,,,,,,,,,,,,,,,,,,,,,,,,,,,,,,,,,,,,,,,,,,,,,,,,,,,,,,,,,,,,,,,,,,,,,,
,,,,,,610c1a45d84406f5d5c83a45,62c539ad9c287cc7faf3dbcd,2022-07-06_09h35.02.393,Colour_Asymmetry_Pilot,2022.1.3,Win32,60.0132029,62c50e9c1127f2cd403a315f,0,71,71,26,1,twoone,,,,,,,,,,,,,,,,,,,,,,,,,,,,,,,,,,,,,,,,,,,,,,,,,,,,,,,,,,,,,,,,,,,,,,,,,,,,,,,,,,,,,,,,,,,,,,,,,,,,,,,,,,,,,,,,,,,,,,,,,,,,,,,,,,,,,,,,,,,,,,,,,,,,,,,,,,,,,
,,,,,,610c1a45d84406f5d5c83a45,62c539ad9c287cc7faf3dbcd,2022-07-06_09h35.02.393,Colour_Asymmetry_Pilot,2022.1.3,Win32,60.0132029,62c50e9c1127f2cd403a315f,0,72,72,16,1,onetwo,,,,,,,,,,,,,,,,,,,,,,,,,,,,,,,,,,,,,,,,,,,,,,,,,,,,,,,,,,,,,,,,,,,,,,,,,,,,,,,,,,,,,,,,,,,,,,,,,,,,,,,,,,,,,,,,,,,,,,,,,,,,,,,,,,,,,,,,,,,,,,,,,,,,,,,,,,,,,
,,,,,,610c1a45d84406f5d5c83a45,62c539ad9c287cc7faf3dbcd,2022-07-06_09h35.02.393,Colour_Asymmetry_Pilot,2022.1.3,Win32,60.0132029,62c50e9c1127f2cd403a315f,0,73,73,137,1,onethree,,,,,,,,,,,,,,,,,,,,,,,,,,,,,,,,,,,,,,,,,,,,,,,,,,,,,,,,,,,,,,,,,,,,,,,,,,,,,,,,,,,,,,,,,,,,,,,,,,,,,,,,,,,,,,,,,,,,,,,,,,,,,,,,,,,,,,,,,,,,,,,,,,,,,,,,,,,,,
,,,,,,610c1a45d84406f5d5c83a45,62c539ad9c287cc7faf3dbcd,2022-07-06_09h35.02.393,Colour_Asymmetry_Pilot,2022.1.3,Win32,60.0132029,62c50e9c1127f2cd403a315f,0,74,74,62,1,fourtwo,,,,,,,,,,,,,,,,,,,,,,,,,,,,,,,,,,,,,,,,,,,,,,,,,,,,,,,,,,,,,,,,,,,,,,,,,,,,,,,,,,,,,,,,,,,,,,,,,,,,,,,,,,,,,,,,,,,,,,,,,,,,,,,,,,,,,,,,,,,,,,,,,,,,,,,,,,,,,
,,,,,,610c1a45d84406f5d5c83a45,62c539ad9c287cc7faf3dbcd,2022-07-06_09h35.02.393,Colour_Asymmetry_Pilot,2022.1.3,Win32,60.0132029,62c50e9c1127f2cd403a315f,0,75,75,4,1,threeone,,,,,,,,,,,,,,,,,,,,,,,,,,,,,,,,,,,,,,,,,,,,,,,,,,,,,,,,,,,,,,,,,,,,,,,,,,,,,,,,,,,,,,,,,,,,,,,,,,,,,,,,,,,,,,,,,,,,,,,,,,,,,,,,,,,,,,,,,,,,,,,,,,,,,,,,,,,,,
,,,,,,610c1a45d84406f5d5c83a45,62c539ad9c287cc7faf3dbcd,2022-07-06_09h35.02.393,Colour_Asymmetry_Pilot,2022.1.3,Win32,60.0132029,62c50e9c1127f2cd403a315f,0,76,76,142,1,fourtwo,,,,,,,,,,,,,,,,,,,,,,,,,,,,,,,,,,,,,,,,,,,,,,,,,,,,,,,,,,,,,,,,,,,,,,,,,,,,,,,,,,,,,,,,,,,,,,,,,,,,,,,,,,,,,,,,,,,,,,,,,,,,,,,,,,,,,,,,,,,,,,,,,,,,,,,,,,,,,
,,,,,,610c1a45d84406f5d5c83a45,62c539ad9c287cc7faf3dbcd,2022-07-06_09h35.02.393,Colour_Asymmetry_Pilot,2022.1.3,Win32,60.0132029,62c50e9c1127f2cd403a315f,0,77,77,125,1,threefour,,,,,,,,,,,,,,,,,,,,,,,,,,,,,,,,,,,,,,,,,,,,,,,,,,,,,,,,,,,,,,,,,,,,,,,,,,,,,,,,,,,,,,,,,,,,,,,,,,,,,,,,,,,,,,,,,,,,,,,,,,,,,,,,,,,,,,,,,,,,,,,,,,,,,,,,,,,,,
,,,,,,610c1a45d84406f5d5c83a45,62c539ad9c287cc7faf3dbcd,2022-07-06_09h35.02.393,Colour_Asymmetry_Pilot,2022.1.3,Win32,60.0132029,62c50e9c1127f2cd403a315f,0,78,78,152,1,onetwo,,,,,,,,,,,,,,,,,,,,,,,,,,,,,,,,,,,,,,,,,,,,,,,,,,,,,,,,,,,,,,,,,,,,,,,,,,,,,,,,,,,,,,,,,,,,,,,,,,,,,,,,,,,,,,,,,,,,,,,,,,,,,,,,,,,,,,,,,,,,,,,,,,,,,,,,,,,,,
,,,,,,610c1a45d84406f5d5c83a45,62c539ad9c287cc7faf3dbcd,2022-07-06_09h35.02.393,Colour_Asymmetry_Pilot,2022.1.3,Win32,60.0132029,62c50e9c1127f2cd403a315f,0,79,79,75,1,twofour,,,,,,,,,,,,,,,,,,,,,,,,,,,,,,,,,,,,,,,,,,,,,,,,,,,,,,,,,,,,,,,,,,,,,,,,,,,,,,,,,,,,,,,,,,,,,,,,,,,,,,,,,,,,,,,,,,,,,,,,,,,,,,,,,,,,,,,,,,,,,,,,,,,,,,,,,,,,,
,,,,,,610c1a45d84406f5d5c83a45,62c539ad9c287cc7faf3dbcd,2022-07-06_09h35.02.393,Colour_Asymmetry_Pilot,2022.1.3,Win32,60.0132029,62c50e9c1127f2cd403a315f,0,80,80,18,1,twoone,,,,,,,,,,,,,,,,,,,,,,,,,,,,,,,,,,,,,,,,,,,,,,,,,,,,,,,,,,,,,,,,,,,,,,,,,,,,,,,,,,,,,,,,,,,,,,,,,,,,,,,,,,,,,,,,,,,,,,,,,,,,,,,,,,,,,,,,,,,,,,,,,,,,,,,,,,,,,
,,,,,,610c1a45d84406f5d5c83a45,62c539ad9c287cc7faf3dbcd,2022-07-06_09h35.02.393,Colour_Asymmetry_Pilot,2022.1.3,Win32,60.0132029,62c50e9c1127f2cd403a315f,0,81,81,116,1,threeone,,,,,,,,,,,,,,,,,,,,,,,,,,,,,,,,,,,,,,,,,,,,,,,,,,,,,,,,,,,,,,,,,,,,,,,,,,,,,,,,,,,,,,,,,,,,,,,,,,,,,,,,,,,,,,,,,,,,,,,,,,,,,,,,,,,,,,,,,,,,,,,,,,,,,,,,,,,,,
,,,,,,610c1a45d84406f5d5c83a45,62c539ad9c287cc7faf3dbcd,2022-07-06_09h35.02.393,Colour_Asymmetry_Pilot,2022.1.3,Win32,60.0132029,62c50e9c1127f2cd403a315f,0,82,82,42,1,twoone,,,,,,,,,,,,,,,,,,,,,,,,,,,,,,,,,,,,,,,,,,,,,,,,,,,,,,,,,,,,,,,,,,,,,,,,,,,,,,,,,,,,,,,,,,,,,,,,,,,,,,,,,,,,,,,,,,,,,,,,,,,,,,,,,,,,,,,,,,,,,,,,,,,,,,,,,,,,,
,,,,,,610c1a45d84406f5d5c83a45,62c539ad9c287cc7faf3dbcd,2022-07-06_09h35.02.393,Colour_Asymmetry_Pilot,2022.1.3,Win32,60.0132029,62c50e9c1127f2cd403a315f,0,83,83,80,1,onetwo,,,,,,,,,,,,,,,,,,,,,,,,,,,,,,,,,,,,,,,,,,,,,,,,,,,,,,,,,,,,,,,,,,,,,,,,,,,,,,,,,,,,,,,,,,,,,,,,,,,,,,,,,,,,,,,,,,,,,,,,,,,,,,,,,,,,,,,,,,,,,,,,,,,,,,,,,,,,,
,,,,,,610c1a45d84406f5d5c83a45,62c539ad9c287cc7faf3dbcd,2022-07-06_09h35.02.393,Colour_Asymmetry_Pilot,2022.1.3,Win32,60.0132029,62c50e9c1127f2cd403a315f,0,84,84,39,1,fourthree,,,,,,,,,,,,,,,,,,,,,,,,,,,,,,,,,,,,,,,,,,,,,,,,,,,,,,,,,,,,,,,,,,,,,,,,,,,,,,,,,,,,,,,,,,,,,,,,,,,,,,,,,,,,,,,,,,,,,,,,,,,,,,,,,,,,,,,,,,,,,,,,,,,,,,,,,,,,,
,,,,,,610c1a45d84406f5d5c83a45,62c539ad9c287cc7faf3dbcd,2022-07-06_09h35.02.393,Colour_Asymmetry_Pilot,2022.1.3,Win32,60.0132029,62c50e9c1127f2cd403a315f,0,85,85,122,1,twoone,,,,,,,,,,,,,,,,,,,,,,,,,,,,,,,,,,,,,,,,,,,,,,,,,,,,,,,,,,,,,,,,,,,,,,,,,,,,,,,,,,,,,,,,,,,,,,,,,,,,,,,,,,,,,,,,,,,,,,,,,,,,,,,,,,,,,,,,,,,,,,,,,,,,,,,,,,,,,
,,,,,,610c1a45d84406f5d5c83a45,62c539ad9c287cc7faf3dbcd,2022-07-06_09h35.02.393,Colour_Asymmetry_Pilot,2022.1.3,Win32,60.0132029,62c50e9c1127f2cd403a315f,0,86,86,56,1,onetwo,,,,,,,,,,,,,,,,,,,,,,,,,,,,,,,,,,,,,,,,,,,,,,,,,,,,,,,,,,,,,,,,,,,,,,,,,,,,,,,,,,,,,,,,,,,,,,,,,,,,,,,,,,,,,,,,,,,,,,,,,,,,,,,,,,,,,,,,,,,,,,,,,,,,,,,,,,,,,
,,,,,,610c1a45d84406f5d5c83a45,62c539ad9c287cc7faf3dbcd,2022-07-06_09h35.02.393,Colour_Asymmetry_Pilot,2022.1.3,Win32,60.0132029,62c50e9c1127f2cd403a315f,0,87,87,68,1,threeone,,,,,,,,,,,,,,,,,,,,,,,,,,,,,,,,,,,,,,,,,,,,,,,,,,,,,,,,,,,,,,,,,,,,,,,,,,,,,,,,,,,,,,,,,,,,,,,,,,,,,,,,,,,,,,,,,,,,,,,,,,,,,,,,,,,,,,,,,,,,,,,,,,,,,,,,,,,,,
,,,,,,610c1a45d84406f5d5c83a45,62c539ad9c287cc7faf3dbcd,2022-07-06_09h35.02.393,Colour_Asymmetry_Pilot,2022.1.3,Win32,60.0132029,62c50e9c1127f2cd403a315f,0,88,88,100,1,threeone,,,,,,,,,,,,,,,,,,,,,,,,,,,,,,,,,,,,,,,,,,,,,,,,,,,,,,,,,,,,,,,,,,,,,,,,,,,,,,,,,,,,,,,,,,,,,,,,,,,,,,,,,,,,,,,,,,,,,,,,,,,,,,,,,,,,,,,,,,,,,,,,,,,,,,,,,,,,,
,,,,,,610c1a45d84406f5d5c83a45,62c539ad9c287cc7faf3dbcd,2022-07-06_09h35.02.393,Colour_Asymmetry_Pilot,2022.1.3,Win32,60.0132029,62c50e9c1127f2cd403a315f,0,89,89,161,1,onethree,,,,,,,,,,,,,,,,,,,,,,,,,,,,,,,,,,,,,,,,,,,,,,,,,,,,,,,,,,,,,,,,,,,,,,,,,,,,,,,,,,,,,,,,,,,,,,,,,,,,,,,,,,,,,,,,,,,,,,,,,,,,,,,,,,,,,,,,,,,,,,,,,,,,,,,,,,,,,
,,,,,,610c1a45d84406f5d5c83a45,62c539ad9c287cc7faf3dbcd,2022-07-06_09h35.02.393,Colour_Asymmetry_Pilot,2022.1.3,Win32,60.0132029,62c50e9c1127f2cd403a315f,0,90,90,71,1,fourthree,,,,,,,,,,,,,,,,,,,,,,,,,,,,,,,,,,,,,,,,,,,,,,,,,,,,,,,,,,,,,,,,,,,,,,,,,,,,,,,,,,,,,,,,,,,,,,,,,,,,,,,,,,,,,,,,,,,,,,,,,,,,,,,,,,,,,,,,,,,,,,,,,,,,,,,,,,,,,
,,,,,,610c1a45d84406f5d5c83a45,62c539ad9c287cc7faf3dbcd,2022-07-06_09h35.02.393,Colour_Asymmetry_Pilot,2022.1.3,Win32,60.0132029,62c50e9c1127f2cd403a315f,0,91,91,104,1,onetwo,,,,,,,,,,,,,,,,,,,,,,,,,,,,,,,,,,,,,,,,,,,,,,,,,,,,,,,,,,,,,,,,,,,,,,,,,,,,,,,,,,,,,,,,,,,,,,,,,,,,,,,,,,,,,,,,,,,,,,,,,,,,,,,,,,,,,,,,,,,,,,,,,,,,,,,,,,,,,
,,,,,,610c1a45d84406f5d5c83a45,62c539ad9c287cc7faf3dbcd,2022-07-06_09h35.02.393,Colour_Asymmetry_Pilot,2022.1.3,Win32,60.0132029,62c50e9c1127f2cd403a315f,0,92,92,32,1,onetwo,,,,,,,,,,,,,,,,,,,,,,,,,,,,,,,,,,,,,,,,,,,,,,,,,,,,,,,,,,,,,,,,,,,,,,,,,,,,,,,,,,,,,,,,,,,,,,,,,,,,,,,,,,,,,,,,,,,,,,,,,,,,,,,,,,,,,,,,,,,,,,,,,,,,,,,,,,,,,
,,,,,,610c1a45d84406f5d5c83a45,62c539ad9c287cc7faf3dbcd,2022-07-06_09h35.02.393,Colour_Asymmetry_Pilot,2022.1.3,Win32,60.0132029,62c50e9c1127f2cd403a315f,0,93,93,117,1,threefour,,,,,,,,,,,,,,,,,,,,,,,,,,,,,,,,,,,,,,,,,,,,,,,,,,,,,,,,,,,,,,,,,,,,,,,,,,,,,,,,,,,,,,,,,,,,,,,,,,,,,,,,,,,,,,,,,,,,,,,,,,,,,,,,,,,,,,,,,,,,,,,,,,,,,,,,,,,,,
,,,,,,610c1a45d84406f5d5c83a45,62c539ad9c287cc7faf3dbcd,2022-07-06_09h35.02.393,Colour_Asymmetry_Pilot,2022.1.3,Win32,60.0132029,62c50e9c1127f2cd403a315f,0,94,94,132,1,threeone,,,,,,,,,,,,,,,,,,,,,,,,,,,,,,,,,,,,,,,,,,,,,,,,,,,,,,,,,,,,,,,,,,,,,,,,,,,,,,,,,,,,,,,,,,,,,,,,,,,,,,,,,,,,,,,,,,,,,,,,,,,,,,,,,,,,,,,,,,,,,,,,,,,,,,,,,,,,,
,,,,,,610c1a45d84406f5d5c83a45,62c539ad9c287cc7faf3dbcd,2022-07-06_09h35.02.393,Colour_Asymmetry_Pilot,2022.1.3,Win32,60.0132029,62c50e9c1127f2cd403a315f,0,95,95,47,1,fourthree,,,,,,,,,,,,,,,,,,,,,,,,,,,,,,,,,,,,,,,,,,,,,,,,,,,,,,,,,,,,,,,,,,,,,,,,,,,,,,,,,,,,,,,,,,,,,,,,,,,,,,,,,,,,,,,,,,,,,,,,,,,,,,,,,,,,,,,,,,,,,,,,,,,,,,,,,,,,,
,,,,,,610c1a45d84406f5d5c83a45,62c539ad9c287cc7faf3dbcd,2022-07-06_09h35.02.393,Colour_Asymmetry_Pilot,2022.1.3,Win32,60.0132029,62c50e9c1127f2cd403a315f,0,96,96,14,1,fourtwo,,,,,,,,,,,,,,,,,,,,,,,,,,,,,,,,,,,,,,,,,,,,,,,,,,,,,,,,,,,,,,,,,,,,,,,,,,,,,,,,,,,,,,,,,,,,,,,,,,,,,,,,,,,,,,,,,,,,,,,,,,,,,,,,,,,,,,,,,,,,,,,,,,,,,,,,,,,,,
,,,,,,610c1a45d84406f5d5c83a45,62c539ad9c287cc7faf3dbcd,2022-07-06_09h35.02.393,Colour_Asymmetry_Pilot,2022.1.3,Win32,60.0132029,62c50e9c1127f2cd403a315f,0,97,97,128,1,onetwo,,,,,,,,,,,,,,,,,,,,,,,,,,,,,,,,,,,,,,,,,,,,,,,,,,,,,,,,,,,,,,,,,,,,,,,,,,,,,,,,,,,,,,,,,,,,,,,,,,,,,,,,,,,,,,,,,,,,,,,,,,,,,,,,,,,,,,,,,,,,,,,,,,,,,,,,,,,,,
,,,,,,610c1a45d84406f5d5c83a45,62c539ad9c287cc7faf3dbcd,2022-07-06_09h35.02.393,Colour_Asymmetry_Pilot,2022.1.3,Win32,60.0132029,62c50e9c1127f2cd403a315f,0,98,98,106,1,twoone,,,,,,,,,,,,,,,,,,,,,,,,,,,,,,,,,,,,,,,,,,,,,,,,,,,,,,,,,,,,,,,,,,,,,,,,,,,,,,,,,,,,,,,,,,,,,,,,,,,,,,,,,,,,,,,,,,,,,,,,,,,,,,,,,,,,,,,,,,,,,,,,,,,,,,,,,,,,,
,,,,,,610c1a45d84406f5d5c83a45,62c539ad9c287cc7faf3dbcd,2022-07-06_09h35.02.393,Colour_Asymmetry_Pilot,2022.1.3,Win32,60.0132029,62c50e9c1127f2cd403a315f,0,99,99,55,1,fourthree,,,,,,,,,,,,,,,,,,,,,,,,,,,,,,,,,,,,,,,,,,,,,,,,,,,,,,,,,,,,,,,,,,,,,,,,,,,,,,,,,,,,,,,,,,,,,,,,,,,,,,,,,,,,,,,,,,,,,,,,,,,,,,,,,,,,,,,,,,,,,,,,,,,,,,,,,,,,,
,,,,,,610c1a45d84406f5d5c83a45,62c539ad9c287cc7faf3dbcd,2022-07-06_09h35.02.393,Colour_Asymmetry_Pilot,2022.1.3,Win32,60.0132029,62c50e9c1127f2cd403a315f,0,100,100,28,1,threeone,,,,,,,,,,,,,,,,,,,,,,,,,,,,,,,,,,,,,,,,,,,,,,,,,,,,,,,,,,,,,,,,,,,,,,,,,,,,,,,,,,,,,,,,,,,,,,,,,,,,,,,,,,,,,,,,,,,,,,,,,,,,,,,,,,,,,,,,,,,,,,,,,,,,,,,,,,,,,
,,,,,,610c1a45d84406f5d5c83a45,62c539ad9c287cc7faf3dbcd,2022-07-06_09h35.02.393,Colour_Asymmetry_Pilot,2022.1.3,Win32,60.0132029,62c50e9c1127f2cd403a315f,0,101,101,97,1,onethree,,,,,,,,,,,,,,,,,,,,,,,,,,,,,,,,,,,,,,,,,,,,,,,,,,,,,,,,,,,,,,,,,,,,,,,,,,,,,,,,,,,,,,,,,,,,,,,,,,,,,,,,,,,,,,,,,,,,,,,,,,,,,,,,,,,,,,,,,,,,,,,,,,,,,,,,,,,,,
,,,,,,610c1a45d84406f5d5c83a45,62c539ad9c287cc7faf3dbcd,2022-07-06_09h35.02.393,Colour_Asymmetry_Pilot,2022.1.3,Win32,60.0132029,62c50e9c1127f2cd403a315f,0,102,102,20,1,threeone,,,,,,,,,,,,,,,,,,,,,,,,,,,,,,,,,,,,,,,,,,,,,,,,,,,,,,,,,,,,,,,,,,,,,,,,,,,,,,,,,,,,,,,,,,,,,,,,,,,,,,,,,,,,,,,,,,,,,,,,,,,,,,,,,,,,,,,,,,,,,,,,,,,,,,,,,,,,,
,,,,,,610c1a45d84406f5d5c83a45,62c539ad9c287cc7faf3dbcd,2022-07-06_09h35.02.393,Colour_Asymmetry_Pilot,2022.1.3,Win32,60.0132029,62c50e9c1127f2cd403a315f,0,103,103,53,1,threefour,,,,,,,,,,,,,,,,,,,,,,,,,,,,,,,,,,,,,,,,,,,,,,,,,,,,,,,,,,,,,,,,,,,,,,,,,,,,,,,,,,,,,,,,,,,,,,,,,,,,,,,,,,,,,,,,,,,,,,,,,,,,,,,,,,,,,,,,,,,,,,,,,,,,,,,,,,,,,
,,,,,,610c1a45d84406f5d5c83a45,62c539ad9c287cc7faf3dbcd,2022-07-06_09h35.02.393,Colour_Asymmetry_Pilot,2022.1.3,Win32,60.0132029,62c50e9c1127f2cd403a315f,0,104,104,49,1,onethree,,,,,,,,,,,,,,,,,,,,,,,,,,,,,,,,,,,,,,,,,,,,,,,,,,,,,,,,,,,,,,,,,,,,,,,,,,,,,,,,,,,,,,,,,,,,,,,,,,,,,,,,,,,,,,,,,,,,,,,,,,,,,,,,,,,,,,,,,,,,,,,,,,,,,,,,,,,,,
,,,,,,610c1a45d84406f5d5c83a45,62c539ad9c287cc7faf3dbcd,2022-07-06_09h35.02.393,Colour_Asymmetry_Pilot,2022.1.3,Win32,60.0132029,62c50e9c1127f2cd403a315f,0,105,105,114,1,twoone,,,,,,,,,,,,,,,,,,,,,,,,,,,,,,,,,,,,,,,,,,,,,,,,,,,,,,,,,,,,,,,,,,,,,,,,,,,,,,,,,,,,,,,,,,,,,,,,,,,,,,,,,,,,,,,,,,,,,,,,,,,,,,,,,,,,,,,,,,,,,,,,,,,,,,,,,,,,,
,,,,,,610c1a45d84406f5d5c83a45,62c539ad9c287cc7faf3dbcd,2022-07-06_09h35.02.393,Colour_Asymmetry_Pilot,2022.1.3,Win32,60.0132029,62c50e9c1127f2cd403a315f,0,106,106,48,1,onetwo,,,,,,,,,,,,,,,,,,,,,,,,,,,,,,,,,,,,,,,,,,,,,,,,,,,,,,,,,,,,,,,,,,,,,,,,,,,,,,,,,,,,,,,,,,,,,,,,,,,,,,,,,,,,,,,,,,,,,,,,,,,,,,,,,,,,,,,,,,,,,,,,,,,,,,,,,,,,,
,,,,,,610c1a45d84406f5d5c83a45,62c539ad9c287cc7faf3dbcd,2022-07-06_09h35.02.393,Colour_Asymmetry_Pilot,2022.1.3,Win32,60.0132029,62c50e9c1127f2cd403a315f,0,107,107,27,1,twofour,,,,,,,,,,,,,,,,,,,,,,,,,,,,,,,,,,,,,,,,,,,,,,,,,,,,,,,,,,,,,,,,,,,,,,,,,,,,,,,,,,,,,,,,,,,,,,,,,,,,,,,,,,,,,,,,,,,,,,,,,,,,,,,,,,,,,,,,,,,,,,,,,,,,,,,,,,,,,
,,,,,,610c1a45d84406f5d5c83a45,62c539ad9c287cc7faf3dbcd,2022-07-06_09h35.02.393,Colour_Asymmetry_Pilot,2022.1.3,Win32,60.0132029,62c50e9c1127f2cd403a315f,0,108,108,136,1,onetwo,,,,,,,,,,,,,,,,,,,,,,,,,,,,,,,,,,,,,,,,,,,,,,,,,,,,,,,,,,,,,,,,,,,,,,,,,,,,,,,,,,,,,,,,,,,,,,,,,,,,,,,,,,,,,,,,,,,,,,,,,,,,,,,,,,,,,,,,,,,,,,,,,,,,,,,,,,,,,
,,,,,,610c1a45d84406f5d5c83a45,62c539ad9c287cc7faf3dbcd,2022-07-06_09h35.02.393,Colour_Asymmetry_Pilot,2022.1.3,Win32,60.0132029,62c50e9c1127f2cd403a315f,0,109,109,30,1,fourtwo,,,,,,,,,,,,,,,,,,,,,,,,,,,,,,,,,,,,,,,,,,,,,,,,,,,,,,,,,,,,,,,,,,,,,,,,,,,,,,,,,,,,,,,,,,,,,,,,,,,,,,,,,,,,,,,,,,,,,,,,,,,,,,,,,,,,,,,,,,,,,,,,,,,,,,,,,,,,,
,,,,,,610c1a45d84406f5d5c83a45,62c539ad9c287cc7faf3dbcd,2022-07-06_09h35.02.393,Colour_Asymmetry_Pilot,2022.1.3,Win32,60.0132029,62c50e9c1127f2cd403a315f,0,110,110,109,1,threefour,,,,,,,,,,,,,,,,,,,,,,,,,,,,,,,,,,,,,,,,,,,,,,,,,,,,,,,,,,,,,,,,,,,,,,,,,,,,,,,,,,,,,,,,,,,,,,,,,,,,,,,,,,,,,,,,,,,,,,,,,,,,,,,,,,,,,,,,,,,,,,,,,,,,,,,,,,,,,
,,,,,,610c1a45d84406f5d5c83a45,62c539ad9c287cc7faf3dbcd,2022-07-06_09h35.02.393,Colour_Asymmetry_Pilot,2022.1.3,Win32,60.0132029,62c50e9c1127f2cd403a315f,0,111,111,159,1,fourthree,,,,,,,,,,,,,,,,,,,,,,,,,,,,,,,,,,,,,,,,,,,,,,,,,,,,,,,,,,,,,,,,,,,,,,,,,,,,,,,,,,,,,,,,,,,,,,,,,,,,,,,,,,,,,,,,,,,,,,,,,,,,,,,,,,,,,,,,,,,,,,,,,,,,,,,,,,,,,
,,,,,,610c1a45d84406f5d5c83a45,62c539ad9c287cc7faf3dbcd,2022-07-06_09h35.02.393,Colour_Asymmetry_Pilot,2022.1.3,Win32,60.0132029,62c50e9c1127f2cd403a315f,0,112,112,112,1,onetwo,,,,,,,,,,,,,,,,,,,,,,,,,,,,,,,,,,,,,,,,,,,,,,,,,,,,,,,,,,,,,,,,,,,,,,,,,,,,,,,,,,,,,,,,,,,,,,,,,,,,,,,,,,,,,,,,,,,,,,,,,,,,,,,,,,,,,,,,,,,,,,,,,,,,,,,,,,,,,
,,,,,,610c1a45d84406f5d5c83a45,62c539ad9c287cc7faf3dbcd,2022-07-06_09h35.02.393,Colour_Asymmetry_Pilot,2022.1.3,Win32,60.0132029,62c50e9c1127f2cd403a315f,0,113,113,77,1,threefour,,,,,,,,,,,,,,,,,,,,,,,,,,,,,,,,,,,,,,,,,,,,,,,,,,,,,,,,,,,,,,,,,,,,,,,,,,,,,,,,,,,,,,,,,,,,,,,,,,,,,,,,,,,,,,,,,,,,,,,,,,,,,,,,,,,,,,,,,,,,,,,,,,,,,,,,,,,,,
,,,,,,610c1a45d84406f5d5c83a45,62c539ad9c287cc7faf3dbcd,2022-07-06_09h35.02.393,Colour_Asymmetry_Pilot,2022.1.3,Win32,60.0132029,62c50e9c1127f2cd403a315f,0,114,114,147,1,twofour,,,,,,,,,,,,,,,,,,,,,,,,,,,,,,,,,,,,,,,,,,,,,,,,,,,,,,,,,,,,,,,,,,,,,,,,,,,,,,,,,,,,,,,,,,,,,,,,,,,,,,,,,,,,,,,,,,,,,,,,,,,,,,,,,,,,,,,,,,,,,,,,,,,,,,,,,,,,,
,,,,,,610c1a45d84406f5d5c83a45,62c539ad9c287cc7faf3dbcd,2022-07-06_09h35.02.393,Colour_Asymmetry_Pilot,2022.1.3,Win32,60.0132029,62c50e9c1127f2cd403a315f,0,115,115,139,1,twofour,,,,,,,,,,,,,,,,,,,,,,,,,,,,,,,,,,,,,,,,,,,,,,,,,,,,,,,,,,,,,,,,,,,,,,,,,,,,,,,,,,,,,,,,,,,,,,,,,,,,,,,,,,,,,,,,,,,,,,,,,,,,,,,,,,,,,,,,,,,,,,,,,,,,,,,,,,,,,
,,,,,,610c1a45d84406f5d5c83a45,62c539ad9c287cc7faf3dbcd,2022-07-06_09h35.02.393,Colour_Asymmetry_Pilot,2022.1.3,Win32,60.0132029,62c50e9c1127f2cd403a315f,0,116,116,119,1,fourthree,,,,,,,,,,,,,,,,,,,,,,,,,,,,,,,,,,,,,,,,,,,,,,,,,,,,,,,,,,,,,,,,,,,,,,,,,,,,,,,,,,,,,,,,,,,,,,,,,,,,,,,,,,,,,,,,,,,,,,,,,,,,,,,,,,,,,,,,,,,,,,,,,,,,,,,,,,,,,
,,,,,,610c1a45d84406f5d5c83a45,62c539ad9c287cc7faf3dbcd,2022-07-06_09h35.02.393,Colour_Asymmetry_Pilot,2022.1.3,Win32,60.0132029,62c50e9c1127f2cd403a315f,0,117,117,58,1,twoone,,,,,,,,,,,,,,,,,,,,,,,,,,,,,,,,,,,,,,,,,,,,,,,,,,,,,,,,,,,,,,,,,,,,,,,,,,,,,,,,,,,,,,,,,,,,,,,,,,,,,,,,,,,,,,,,,,,,,,,,,,,,,,,,,,,,,,,,,,,,,,,,,,,,,,,,,,,,,
,,,,,,610c1a45d84406f5d5c83a45,62c539ad9c287cc7faf3dbcd,2022-07-06_09h35.02.393,Colour_Asymmetry_Pilot,2022.1.3,Win32,60.0132029,62c50e9c1127f2cd403a315f,0,118,118,91,1,twofour,,,,,,,,,,,,,,,,,,,,,,,,,,,,,,,,,,,,,,,,,,,,,,,,,,,,,,,,,,,,,,,,,,,,,,,,,,,,,,,,,,,,,,,,,,,,,,,,,,,,,,,,,,,,,,,,,,,,,,,,,,,,,,,,,,,,,,,,,,,,,,,,,,,,,,,,,,,,,
,,,,,,610c1a45d84406f5d5c83a45,62c539ad9c287cc7faf3dbcd,2022-07-06_09h35.02.393,Colour_Asymmetry_Pilot,2022.1.3,Win32,60.0132029,62c50e9c1127f2cd403a315f,0,119,119,6,1,fourtwo,,,,,,,,,,,,,,,,,,,,,,,,,,,,,,,,,,,,,,,,,,,,,,,,,,,,,,,,,,,,,,,,,,,,,,,,,,,,,,,,,,,,,,,,,,,,,,,,,,,,,,,,,,,,,,,,,,,,,,,,,,,,,,,,,,,,,,,,,,,,,,,,,,,,,,,,,,,,,
,,,,,,610c1a45d84406f5d5c83a45,62c539ad9c287cc7faf3dbcd,2022-07-06_09h35.02.393,Colour_Asymmetry_Pilot,2022.1.3,Win32,60.0132029,62c50e9c1127f2cd403a315f,0,120,120,66,1,twoone,,,,,,,,,,,,,,,,,,,,,,,,,,,,,,,,,,,,,,,,,,,,,,,,,,,,,,,,,,,,,,,,,,,,,,,,,,,,,,,,,,,,,,,,,,,,,,,,,,,,,,,,,,,,,,,,,,,,,,,,,,,,,,,,,,,,,,,,,,,,,,,,,,,,,,,,,,,,,
,,,,,,610c1a45d84406f5d5c83a45,62c539ad9c287cc7faf3dbcd,2022-07-06_09h35.02.393,Colour_Asymmetry_Pilot,2022.1.3,Win32,60.0132029,62c50e9c1127f2cd403a315f,0,121,121,54,1,fourtwo,,,,,,,,,,,,,,,,,,,,,,,,,,,,,,,,,,,,,,,,,,,,,,,,,,,,,,,,,,,,,,,,,,,,,,,,,,,,,,,,,,,,,,,,,,,,,,,,,,,,,,,,,,,,,,,,,,,,,,,,,,,,,,,,,,,,,,,,,,,,,,,,,,,,,,,,,,,,,
,,,,,,610c1a45d84406f5d5c83a45,62c539ad9c287cc7faf3dbcd,2022-07-06_09h35.02.393,Colour_Asymmetry_Pilot,2022.1.3,Win32,60.0132029,62c50e9c1127f2cd403a315f,0,122,122,146,1,twoone,,,,,,,,,,,,,,,,,,,,,,,,,,,,,,,,,,,,,,,,,,,,,,,,,,,,,,,,,,,,,,,,,,,,,,,,,,,,,,,,,,,,,,,,,,,,,,,,,,,,,,,,,,,,,,,,,,,,,,,,,,,,,,,,,,,,,,,,,,,,,,,,,,,,,,,,,,,,,
,,,,,,610c1a45d84406f5d5c83a45,62c539ad9c287cc7faf3dbcd,2022-07-06_09h35.02.393,Colour_Asymmetry_Pilot,2022.1.3,Win32,60.0132029,62c50e9c1127f2cd403a315f,0,123,123,73,1,onethree,,,,,,,,,,,,,,,,,,,,,,,,,,,,,,,,,,,,,,,,,,,,,,,,,,,,,,,,,,,,,,,,,,,,,,,,,,,,,,,,,,,,,,,,,,,,,,,,,,,,,,,,,,,,,,,,,,,,,,,,,,,,,,,,,,,,,,,,,,,,,,,,,,,,,,,,,,,,,
,,,,,,610c1a45d84406f5d5c83a45,62c539ad9c287cc7faf3dbcd,2022-07-06_09h35.02.393,Colour_Asymmetry_Pilot,2022.1.3,Win32,60.0132029,62c50e9c1127f2cd403a315f,0,124,124,102,1,fourtwo,,,,,,,,,,,,,,,,,,,,,,,,,,,,,,,,,,,,,,,,,,,,,,,,,,,,,,,,,,,,,,,,,,,,,,,,,,,,,,,,,,,,,,,,,,,,,,,,,,,,,,,,,,,,,,,,,,,,,,,,,,,,,,,,,,,,,,,,,,,,,,,,,,,,,,,,,,,,,
,,,,,,610c1a45d84406f5d5c83a45,62c539ad9c287cc7faf3dbcd,2022-07-06_09h35.02.393,Colour_Asymmetry_Pilot,2022.1.3,Win32,60.0132029,62c50e9c1127f2cd403a315f,0,125,125,135,1,fourthree,,,,,,,,,,,,,,,,,,,,,,,,,,,,,,,,,,,,,,,,,,,,,,,,,,,,,,,,,,,,,,,,,,,,,,,,,,,,,,,,,,,,,,,,,,,,,,,,,,,,,,,,,,,,,,,,,,,,,,,,,,,,,,,,,,,,,,,,,,,,,,,,,,,,,,,,,,,,,
,,,,,,610c1a45d84406f5d5c83a45,62c539ad9c287cc7faf3dbcd,2022-07-06_09h35.02.393,Colour_Asymmetry_Pilot,2022.1.3,Win32,60.0132029,62c50e9c1127f2cd403a315f,0,126,126,0,1,onetwo,,,,,,,,,,,,,,,,,,,,,,,,,,,,,,,,,,,,,,,,,,,,,,,,,,,,,,,,,,,,,,,,,,,,,,,,,,,,,,,,,,,,,,,,,,,,,,,,,,,,,,,,,,,,,,,,,,,,,,,,,,,,,,,,,,,,,,,,,,,,,,,,,,,,,,,,,,,,,
,,,,,,610c1a45d84406f5d5c83a45,62c539ad9c287cc7faf3dbcd,2022-07-06_09h35.02.393,Colour_Asymmetry_Pilot,2022.1.3,Win32,60.0132029,62c50e9c1127f2cd403a315f,0,127,127,25,1,onethree,,,,,,,,,,,,,,,,,,,,,,,,,,,,,,,,,,,,,,,,,,,,,,,,,,,,,,,,,,,,,,,,,,,,,,,,,,,,,,,,,,,,,,,,,,,,,,,,,,,,,,,,,,,,,,,,,,,,,,,,,,,,,,,,,,,,,,,,,,,,,,,,,,,,,,,,,,,,,
,,,,,,610c1a45d84406f5d5c83a45,62c539ad9c287cc7faf3dbcd,2022-07-06_09h35.02.393,Colour_Asymmetry_Pilot,2022.1.3,Win32,60.0132029,62c50e9c1127f2cd403a315f,0,128,128,1,1,onethree,,,,,,,,,,,,,,,,,,,,,,,,,,,,,,,,,,,,,,,,,,,,,,,,,,,,,,,,,,,,,,,,,,,,,,,,,,,,,,,,,,,,,,,,,,,,,,,,,,,,,,,,,,,,,,,,,,,,,,,,,,,,,,,,,,,,,,,,,,,,,,,,,,,,,,,,,,,,,
,,,,,,610c1a45d84406f5d5c83a45,62c539ad9c287cc7faf3dbcd,2022-07-06_09h35.02.393,Colour_Asymmetry_Pilot,2022.1.3,Win32,60.0132029,62c50e9c1127f2cd403a315f,0,129,129,60,1,threeone,,,,,,,,,,,,,,,,,,,,,,,,,,,,,,,,,,,,,,,,,,,,,,,,,,,,,,,,,,,,,,,,,,,,,,,,,,,,,,,,,,,,,,,,,,,,,,,,,,,,,,,,,,,,,,,,,,,,,,,,,,,,,,,,,,,,,,,,,,,,,,,,,,,,,,,,,,,,,
,,,,,,610c1a45d84406f5d5c83a45,62c539ad9c287cc7faf3dbcd,2022-07-06_09h35.02.393,Colour_Asymmetry_Pilot,2022.1.3,Win32,60.0132029,62c50e9c1127f2cd403a315f,0,130,130,31,1,fourthree,,,,,,,,,,,,,,,,,,,,,,,,,,,,,,,,,,,,,,,,,,,,,,,,,,,,,,,,,,,,,,,,,,,,,,,,,,,,,,,,,,,,,,,,,,,,,,,,,,,,,,,,,,,,,,,,,,,,,,,,,,,,,,,,,,,,,,,,,,,,,,,,,,,,,,,,,,,,,
,,,,,,610c1a45d84406f5d5c83a45,62c539ad9c287cc7faf3dbcd,2022-07-06_09h35.02.393,Colour_Asymmetry_Pilot,2022.1.3,Win32,60.0132029,62c50e9c1127f2cd403a315f,0,131,131,12,1,threeone,,,,,,,,,,,,,,,,,,,,,,,,,,,,,,,,,,,,,,,,,,,,,,,,,,,,,,,,,,,,,,,,,,,,,,,,,,,,,,,,,,,,,,,,,,,,,,,,,,,,,,,,,,,,,,,,,,,,,,,,,,,,,,,,,,,,,,,,,,,,,,,,,,,,,,,,,,,,,
,,,,,,610c1a45d84406f5d5c83a45,62c539ad9c287cc7faf3dbcd,2022-07-06_09h35.02.393,Colour_Asymmetry_Pilot,2022.1.3,Win32,60.0132029,62c50e9c1127f2cd403a315f,0,132,132,110,1,fourtwo,,,,,,,,,,,,,,,,,,,,,,,,,,,,,,,,,,,,,,,,,,,,,,,,,,,,,,,,,,,,,,,,,,,,,,,,,,,,,,,,,,,,,,,,,,,,,,,,,,,,,,,,,,,,,,,,,,,,,,,,,,,,,,,,,,,,,,,,,,,,,,,,,,,,,,,,,,,,,
,,,,,,610c1a45d84406f5d5c83a45,62c539ad9c287cc7faf3dbcd,2022-07-06_09h35.02.393,Colour_Asymmetry_Pilot,2022.1.3,Win32,60.0132029,62c50e9c1127f2cd403a315f,0,133,133,40,1,onetwo,,,,,,,,,,,,,,,,,,,,,,,,,,,,,,,,,,,,,,,,,,,,,,,,,,,,,,,,,,,,,,,,,,,,,,,,,,,,,,,,,,,,,,,,,,,,,,,,,,,,,,,,,,,,,,,,,,,,,,,,,,,,,,,,,,,,,,,,,,,,,,,,,,,,,,,,,,,,,
,,,,,,610c1a45d84406f5d5c83a45,62c539ad9c287cc7faf3dbcd,2022-07-06_09h35.02.393,Colour_Asymmetry_Pilot,2022.1.3,Win32,60.0132029,62c50e9c1127f2cd403a315f,0,134,134,79,1,fourthree,,,,,,,,,,,,,,,,,,,,,,,,,,,,,,,,,,,,,,,,,,,,,,,,,,,,,,,,,,,,,,,,,,,,,,,,,,,,,,,,,,,,,,,,,,,,,,,,,,,,,,,,,,,,,,,,,,,,,,,,,,,,,,,,,,,,,,,,,,,,,,,,,,,,,,,,,,,,,
,,,,,,610c1a45d84406f5d5c83a45,62c539ad9c287cc7faf3dbcd,2022-07-06_09h35.02.393,Colour_Asymmetry_Pilot,2022.1.3,Win32,60.0132029,62c50e9c1127f2cd403a315f,0,135,135,95,1,fourthree,,,,,,,,,,,,,,,,,,,,,,,,,,,,,,,,,,,,,,,,,,,,,,,,,,,,,,,,,,,,,,,,,,,,,,,,,,,,,,,,,,,,,,,,,,,,,,,,,,,,,,,,,,,,,,,,,,,,,,,,,,,,,,,,,,,,,,,,,,,,,,,,,,,,,,,,,,,,,
,,,,,,610c1a45d84406f5d5c83a45,62c539ad9c287cc7faf3dbcd,2022-07-06_09h35.02.393,Colour_Asymmetry_Pilot,2022.1.3,Win32,60.0132029,62c50e9c1127f2cd403a315f,0,136,136,76,1,threeone,,,,,,,,,,,,,,,,,,,,,,,,,,,,,,,,,,,,,,,,,,,,,,,,,,,,,,,,,,,,,,,,,,,,,,,,,,,,,,,,,,,,,,,,,,,,,,,,,,,,,,,,,,,,,,,,,,,,,,,,,,,,,,,,,,,,,,,,,,,,,,,,,,,,,,,,,,,,,
,,,,,,610c1a45d84406f5d5c83a45,62c539ad9c287cc7faf3dbcd,2022-07-06_09h35.02.393,Colour_Asymmetry_Pilot,2022.1.3,Win32,60.0132029,62c50e9c1127f2cd403a315f,0,137,137,65,1,onethree,,,,,,,,,,,,,,,,,,,,,,,,,,,,,,,,,,,,,,,,,,,,,,,,,,,,,,,,,,,,,,,,,,,,,,,,,,,,,,,,,,,,,,,,,,,,,,,,,,,,,,,,,,,,,,,,,,,,,,,,,,,,,,,,,,,,,,,,,,,,,,,,,,,,,,,,,,,,,
,,,,,,610c1a45d84406f5d5c83a45,62c539ad9c287cc7faf3dbcd,2022-07-06_09h35.02.393,Colour_Asymmetry_Pilot,2022.1.3,Win32,60.0132029,62c50e9c1127f2cd403a315f,0,138,138,3,1,twofour,,,,,,,,,,,,,,,,,,,,,,,,,,,,,,,,,,,,,,,,,,,,,,,,,,,,,,,,,,,,,,,,,,,,,,,,,,,,,,,,,,,,,,,,,,,,,,,,,,,,,,,,,,,,,,,,,,,,,,,,,,,,,,,,,,,,,,,,,,,,,,,,,,,,,,,,,,,,,
,,,,,,610c1a45d84406f5d5c83a45,62c539ad9c287cc7faf3dbcd,2022-07-06_09h35.02.393,Colour_Asymmetry_Pilot,2022.1.3,Win32,60.0132029,62c50e9c1127f2cd403a315f,0,139,139,44,1,threeone,,,,,,,,,,,,,,,,,,,,,,,,,,,,,,,,,,,,,,,,,,,,,,,,,,,,,,,,,,,,,,,,,,,,,,,,,,,,,,,,,,,,,,,,,,,,,,,,,,,,,,,,,,,,,,,,,,,,,,,,,,,,,,,,,,,,,,,,,,,,,,,,,,,,,,,,,,,,,
,,,,,,610c1a45d84406f5d5c83a45,62c539ad9c287cc7faf3dbcd,2022-07-06_09h35.02.393,Colour_Asymmetry_Pilot,2022.1.3,Win32,60.0132029,62c50e9c1127f2cd403a315f,0,140,140,157,1,threefour,,,,,,,,,,,,,,,,,,,,,,,,,,,,,,,,,,,,,,,,,,,,,,,,,,,,,,,,,,,,,,,,,,,,,,,,,,,,,,,,,,,,,,,,,,,,,,,,,,,,,,,,,,,,,,,,,,,,,,,,,,,,,,,,,,,,,,,,,,,,,,,,,,,,,,,,,,,,,
,,,,,,610c1a45d84406f5d5c83a45,62c539ad9c287cc7faf3dbcd,2022-07-06_09h35.02.393,Colour_Asymmetry_Pilot,2022.1.3,Win32,60.0132029,62c50e9c1127f2cd403a315f,0,141,141,130,1,twoone,,,,,,,,,,,,,,,,,,,,,,,,,,,,,,,,,,,,,,,,,,,,,,,,,,,,,,,,,,,,,,,,,,,,,,,,,,,,,,,,,,,,,,,,,,,,,,,,,,,,,,,,,,,,,,,,,,,,,,,,,,,,,,,,,,,,,,,,,,,,,,,,,,,,,,,,,,,,,
,,,,,,610c1a45d84406f5d5c83a45,62c539ad9c287cc7faf3dbcd,2022-07-06_09h35.02.393,Colour_Asymmetry_Pilot,2022.1.3,Win32,60.0132029,62c50e9c1127f2cd403a315f,0,142,142,143,1,fourthree,,,,,,,,,,,,,,,,,,,,,,,,,,,,,,,,,,,,,,,,,,,,,,,,,,,,,,,,,,,,,,,,,,,,,,,,,,,,,,,,,,,,,,,,,,,,,,,,,,,,,,,,,,,,,,,,,,,,,,,,,,,,,,,,,,,,,,,,,,,,,,,,,,,,,,,,,,,,,
,,,,,,610c1a45d84406f5d5c83a45,62c539ad9c287cc7faf3dbcd,2022-07-06_09h35.02.393,Colour_Asymmetry_Pilot,2022.1.3,Win32,60.0132029,62c50e9c1127f2cd403a315f,0,143,143,129,1,onethree,,,,,,,,,,,,,,,,,,,,,,,,,,,,,,,,,,,,,,,,,,,,,,,,,,,,,,,,,,,,,,,,,,,,,,,,,,,,,,,,,,,,,,,,,,,,,,,,,,,,,,,,,,,,,,,,,,,,,,,,,,,,,,,,,,,,,,,,,,,,,,,,,,,,,,,,,,,,,
,,,,,,610c1a45d84406f5d5c83a45,62c539ad9c287cc7faf3dbcd,2022-07-06_09h35.02.393,Colour_Asymmetry_Pilot,2022.1.3,Win32,60.0132029,62c50e9c1127f2cd403a315f,0,144,144,140,1,threeone,,,,,,,,,,,,,,,,,,,,,,,,,,,,,,,,,,,,,,,,,,,,,,,,,,,,,,,,,,,,,,,,,,,,,,,,,,,,,,,,,,,,,,,,,,,,,,,,,,,,,,,,,,,,,,,,,,,,,,,,,,,,,,,,,,,,,,,,,,,,,,,,,,,,,,,,,,,,,
,,,,,,610c1a45d84406f5d5c83a45,62c539ad9c287cc7faf3dbcd,2022-07-06_09h35.02.393,Colour_Asymmetry_Pilot,2022.1.3,Win32,60.0132029,62c50e9c1127f2cd403a315f,0,145,145,92,1,threeone,,,,,,,,,,,,,,,,,,,,,,,,,,,,,,,,,,,,,,,,,,,,,,,,,,,,,,,,,,,,,,,,,,,,,,,,,,,,,,,,,,,,,,,,,,,,,,,,,,,,,,,,,,,,,,,,,,,,,,,,,,,,,,,,,,,,,,,,,,,,,,,,,,,,,,,,,,,,,
,,,,,,610c1a45d84406f5d5c83a45,62c539ad9c287cc7faf3dbcd,2022-07-06_09h35.02.393,Colour_Asymmetry_Pilot,2022.1.3,Win32,60.0132029,62c50e9c1127f2cd403a315f,0,146,146,24,1,onetwo,,,,,,,,,,,,,,,,,,,,,,,,,,,,,,,,,,,,,,,,,,,,,,,,,,,,,,,,,,,,,,,,,,,,,,,,,,,,,,,,,,,,,,,,,,,,,,,,,,,,,,,,,,,,,,,,,,,,,,,,,,,,,,,,,,,,,,,,,,,,,,,,,,,,,,,,,,,,,
,,,,,,610c1a45d84406f5d5c83a45,62c539ad9c287cc7faf3dbcd,2022-07-06_09h35.02.393,Colour_Asymmetry_Pilot,2022.1.3,Win32,60.0132029,62c50e9c1127f2cd403a315f,0,147,147,160,1,onetwo,,,,,,,,,,,,,,,,,,,,,,,,,,,,,,,,,,,,,,,,,,,,,,,,,,,,,,,,,,,,,,,,,,,,,,,,,,,,,,,,,,,,,,,,,,,,,,,,,,,,,,,,,,,,,,,,,,,,,,,,,,,,,,,,,,,,,,,,,,,,,,,,,,,,,,,,,,,,,
,,,,,,610c1a45d84406f5d5c83a45,62c539ad9c287cc7faf3dbcd,2022-07-06_09h35.02.393,Colour_Asymmetry_Pilot,2022.1.3,Win32,60.0132029,62c50e9c1127f2cd403a315f,0,148,148,148,1,threeone,,,,,,,,,,,,,,,,,,,,,,,,,,,,,,,,,,,,,,,,,,,,,,,,,,,,,,,,,,,,,,,,,,,,,,,,,,,,,,,,,,,,,,,,,,,,,,,,,,,,,,,,,,,,,,,,,,,,,,,,,,,,,,,,,,,,,,,,,,,,,,,,,,,,,,,,,,,,,
,,,,,,610c1a45d84406f5d5c83a45,62c539ad9c287cc7faf3dbcd,2022-07-06_09h35.02.393,Colour_Asymmetry_Pilot,2022.1.3,Win32,60.0132029,62c50e9c1127f2cd403a315f,0,149,149,144,1,onetwo,,,,,,,,,,,,,,,,,,,,,,,,,,,,,,,,,,,,,,,,,,,,,,,,,,,,,,,,,,,,,,,,,,,,,,,,,,,,,,,,,,,,,,,,,,,,,,,,,,,,,,,,,,,,,,,,,,,,,,,,,,,,,,,,,,,,,,,,,,,,,,,,,,,,,,,,,,,,,
,,,,,,610c1a45d84406f5d5c83a45,62c539ad9c287cc7faf3dbcd,2022-07-06_09h35.02.393,Colour_Asymmetry_Pilot,2022.1.3,Win32,60.0132029,62c50e9c1127f2cd403a315f,0,150,150,29,1,threefour,,,,,,,,,,,,,,,,,,,,,,,,,,,,,,,,,,,,,,,,,,,,,,,,,,,,,,,,,,,,,,,,,,,,,,,,,,,,,,,,,,,,,,,,,,,,,,,,,,,,,,,,,,,,,,,,,,,,,,,,,,,,,,,,,,,,,,,,,,,,,,,,,,,,,,,,,,,,,
,,,,,,610c1a45d84406f5d5c83a45,62c539ad9c287cc7faf3dbcd,2022-07-06_09h35.02.393,Colour_Asymmetry_Pilot,2022.1.3,Win32,60.0132029,62c50e9c1127f2cd403a315f,0,151,151,9,1,onethree,,,,,,,,,,,,,,,,,,,,,,,,,,,,,,,,,,,,,,,,,,,,,,,,,,,,,,,,,,,,,,,,,,,,,,,,,,,,,,,,,,,,,,,,,,,,,,,,,,,,,,,,,,,,,,,,,,,,,,,,,,,,,,,,,,,,,,,,,,,,,,,,,,,,,,,,,,,,,
,,,,,,610c1a45d84406f5d5c83a45,62c539ad9c287cc7faf3dbcd,2022-07-06_09h35.02.393,Colour_Asymmetry_Pilot,2022.1.3,Win32,60.0132029,62c50e9c1127f2cd403a315f,0,152,152,59,1,twofour,,,,,,,,,,,,,,,,,,,,,,,,,,,,,,,,,,,,,,,,,,,,,,,,,,,,,,,,,,,,,,,,,,,,,,,,,,,,,,,,,,,,,,,,,,,,,,,,,,,,,,,,,,,,,,,,,,,,,,,,,,,,,,,,,,,,,,,,,,,,,,,,,,,,,,,,,,,,,
,,,,,,610c1a45d84406f5d5c83a45,62c539ad9c287cc7faf3dbcd,2022-07-06_09h35.02.393,Colour_Asymmetry_Pilot,2022.1.3,Win32,60.0132029,62c50e9c1127f2cd403a315f,0,153,153,11,1,twofour,,,,,,,,,,,,,,,,,,,,,,,,,,,,,,,,,,,,,,,,,,,,,,,,,,,,,,,,,,,,,,,,,,,,,,,,,,,,,,,,,,,,,,,,,,,,,,,,,,,,,,,,,,,,,,,,,,,,,,,,,,,,,,,,,,,,,,,,,,,,,,,,,,,,,,,,,,,,,
,,,,,,610c1a45d84406f5d5c83a45,62c539ad9c287cc7faf3dbcd,2022-07-06_09h35.02.393,Colour_Asymmetry_Pilot,2022.1.3,Win32,60.0132029,62c50e9c1127f2cd403a315f,0,154,154,88,1,onetwo,,,,,,,,,,,,,,,,,,,,,,,,,,,,,,,,,,,,,,,,,,,,,,,,,,,,,,,,,,,,,,,,,,,,,,,,,,,,,,,,,,,,,,,,,,,,,,,,,,,,,,,,,,,,,,,,,,,,,,,,,,,,,,,,,,,,,,,,,,,,,,,,,,,,,,,,,,,,,
,,,,,,610c1a45d84406f5d5c83a45,62c539ad9c287cc7faf3dbcd,2022-07-06_09h35.02.393,Colour_Asymmetry_Pilot,2022.1.3,Win32,60.0132029,62c50e9c1127f2cd403a315f,0,155,155,124,1,threeone,,,,,,,,,,,,,,,,,,,,,,,,,,,,,,,,,,,,,,,,,,,,,,,,,,,,,,,,,,,,,,,,,,,,,,,,,,,,,,,,,,,,,,,,,,,,,,,,,,,,,,,,,,,,,,,,,,,,,,,,,,,,,,,,,,,,,,,,,,,,,,,,,,,,,,,,,,,,,
,,,,,,610c1a45d84406f5d5c83a45,62c539ad9c287cc7faf3dbcd,2022-07-06_09h35.02.393,Colour_Asymmetry_Pilot,2022.1.3,Win32,60.0132029,62c50e9c1127f2cd403a315f,0,156,156,103,1,fourthree,,,,,,,,,,,,,,,,,,,,,,,,,,,,,,,,,,,,,,,,,,,,,,,,,,,,,,,,,,,,,,,,,,,,,,,,,,,,,,,,,,,,,,,,,,,,,,,,,,,,,,,,,,,,,,,,,,,,,,,,,,,,,,,,,,,,,,,,,,,,,,,,,,,,,,,,,,,,,
,,,,,,610c1a45d84406f5d5c83a45,62c539ad9c287cc7faf3dbcd,2022-07-06_09h35.02.393,Colour_Asymmetry_Pilot,2022.1.3,Win32,60.0132029,62c50e9c1127f2cd403a315f,0,157,157,7,1,fourthree,,,,,,,,,,,,,,,,,,,,,,,,,,,,,,,,,,,,,,,,,,,,,,,,,,,,,,,,,,,,,,,,,,,,,,,,,,,,,,,,,,,,,,,,,,,,,,,,,,,,,,,,,,,,,,,,,,,,,,,,,,,,,,,,,,,,,,,,,,,,,,,,,,,,,,,,,,,,,
,,,,,,610c1a45d84406f5d5c83a45,62c539ad9c287cc7faf3dbcd,2022-07-06_09h35.02.393,Colour_Asymmetry_Pilot,2022.1.3,Win32,60.0132029,62c50e9c1127f2cd403a315f,0,158,158,141,1,threefour,,,,,,,,,,,,,,,,,,,,,,,,,,,,,,,,,,,,,,,,,,,,,,,,,,,,,,,,,,,,,,,,,,,,,,,,,,,,,,,,,,,,,,,,,,,,,,,,,,,,,,,,,,,,,,,,,,,,,,,,,,,,,,,,,,,,,,,,,,,,,,,,,,,,,,,,,,,,,
,,,,,,610c1a45d84406f5d5c83a45,62c539ad9c287cc7faf3dbcd,2022-07-06_09h35.02.393,Colour_Asymmetry_Pilot,2022.1.3,Win32,60.0132029,62c50e9c1127f2cd403a315f,0,159,159,83,1,twofour,,,,,,,,,,,,,,,,,,,,,,,,,,,,,,,,,,,,,,,,,,,,,,,,,,,,,,,,,,,,,,,,,,,,,,,,,,,,,,,,,,,,,,,,,,,,,,,,,,,,,,,,,,,,,,,,,,,,,,,,,,,,,,,,,,,,,,,,,,,,,,,,,,,,,,,,,,,,,
,,,,,,610c1a45d84406f5d5c83a45,62c539ad9c287cc7faf3dbcd,2022-07-06_09h35.02.393,Colour_Asymmetry_Pilot,2022.1.3,Win32,60.0132029,62c50e9c1127f2cd403a315f,0,160,160,89,1,onethree,,,,,,,,,,,,,,,,,,,,,,,,,,,,,,,,,,,,,,,,,,,,,,,,,,,,,,,,,,,,,,,,,,,,,,,,,,,,,,,,,,,,,,,,,,,,,,,,,,,,,,,,,,,,,,,,,,,,,,,,,,,,,,,,,,,,,,,,,,,,,,,,,,,,,,,,,,,,,
,,,,,,610c1a45d84406f5d5c83a45,62c539ad9c287cc7faf3dbcd,2022-07-06_09h35.02.393,Colour_Asymmetry_Pilot,2022.1.3,Win32,60.0132029,62c50e9c1127f2cd403a315f,0,161,161,21,1,threefour,,,,,,,,,,,,,,,,,,,,,,,,,,,,,,,,,,,,,,,,,,,,,,,,,,,,,,,,,,,,,,,,,,,,,,,,,,,,,,,,,,,,,,,,,,,,,,,,,,,,,,,,,,,,,,,,,,,,,,,,,,,,,,,,,,,,,,,,,,,,,,,,,,,,,,,,,,,,,
,,,,,,610c1a45d84406f5d5c83a45,62c539ad9c287cc7faf3dbcd,2022-07-06_09h35.02.393,Colour_Asymmetry_Pilot,2022.1.3,Win32,60.0132029,62c50e9c1127f2cd403a315f,,,,,,,space,13.2214,space,16.3808,space,45.7974,space,16.5439,space,12.63,space,5.6265,"[0.7018,0.7802,-0.16079999999999994]",twoone,"[0.2784,-0.31000000000000005,-0.5452]",-4,4.6321,-50,99,1,0,0,response7disk_5,3,-6,1,0,0,rectangle_8,3,-6,1,0,0,1,3,-6,1,0,0,0,0,0,0,1,,,,,,,,,,,,,,,,,,,,,,,,,,,,,,,,,,,,,,,,,,,,,,,,,,,,,,,,,,,,,,,,,,,,,,,,,,,,,,,,,,,,,,,,,,,,,,,,,,,,,,,,,,,,,,,,
,,,,,,610c1a45d84406f5d5c83a45,62c539ad9c287cc7faf3dbcd,2022-07-06_09h35.02.393,Colour_Asymmetry_Pilot,2022.1.3,Win32,60.0132029,62c50e9c1127f2cd403a315f,,,,,,,,,,,,,,,,,,,"[0.05879999999999996,0.2784,0.5841999999999998]",fourtwo,"[0.7018,0.7802,-0.16079999999999994]",-4,3.399,-57,96,1,0,0,response7disk_5,-10,7,1,0,0,rectangle_8,-10,7,1,0,0,1,-10,7,1,0,0,1,0,1,0,1,,,,,,,,,,,,,,,,,,,,,,,,,,,,,,,,,,,,,,,,,,,,,,,,,,,,,,,,,,,,,,,,,,,,,,,,,,,,,,,,,,,,,,,,,,,,,,,,,,,,,,,,,,,,,,,,
,,,,,,610c1a45d84406f5d5c83a45,62c539ad9c287cc7faf3dbcd,2022-07-06_09h35.02.393,Colour_Asymmetry_Pilot,2022.1.3,Win32,60.0132029,62c50e9c1127f2cd403a315f,,,,,,,,,,,,,,,,,,,"[-0.4668,-0.8746,-0.2942]",threefour,"[-0.050999999999999934,-0.6706000000000001,-0.804]",-2,7.6373,-110,-36,1,0,0,response5disk_5,3,1,1,0,0,rectangle_8,22,-72,1,0,0,1,-10,-7,1,0,0,2,0,2,0,1,response3disk_7,4,rectangle_4,,,,,,,,,,,,,,,,,,,,,,,,,,,,,,,,,,,,,,,,,,,,,,,,,,,,,,,,,,,,,,,,,,,,,,,,,,,,,,,,,,,,,,,,,,,,,,,,,,,,,,,,,,,,,
,,,,,,610c1a45d84406f5d5c83a45,62c539ad9c287cc7faf3dbcd,2022-07-06_09h35.02.393,Colour_Asymmetry_Pilot,2022.1.3,Win32,60.0132029,62c50e9c1127f2cd403a315f,,,,,,,,,,,,,,,,,,,"[-0.09019999999999995,0.44300000000000006,0.5371999999999999]",twofour,"[0.3802000000000001,0.19199999999999995,-0.6394]",-4,2.5034,-47,93,1,0,0,response7disk_5,3,-6,1,0,0,rectangle_8,3,-6,1,0,0,1,3,-6,1,0,0,3,0,3,0,1,,,,,,,,,,,,,,,,,,,,,,,,,,,,,,,,,,,,,,,,,,,,,,,,,,,,,,,,,,,,,,,,,,,,,,,,,,,,,,,,,,,,,,,,,,,,,,,,,,,,,,,,,,,,,,,,
,,,,,,610c1a45d84406f5d5c83a45,62c539ad9c287cc7faf3dbcd,2022-07-06_09h35.02.393,Colour_Asymmetry_Pilot,2022.1.3,Win32,60.0132029,62c50e9c1127f2cd403a315f,,,,,,,,,,,,,,,,,,,"[0.0351999999999999,0.41159999999999997,0.0038000000000000256]",threeone,"[0.9213999999999998,0.6391999999999998,-0.9922]",-4,1.9174,-34,74,1,0,0,response7disk_5,0,-4,1,0,0,rectangle_8,32,-75,1,0,0,1,-6,7,1,0,0,4,0,4,0,1,response3disk_7,4,rectangle_4,,,,,,,,,,,,,,,,,,,,,,,,,,,,,,,,,,,,,,,,,,,,,,,,,,,,,,,,,,,,,,,,,,,,,,,,,,,,,,,,,,,,,,,,,,,,,,,,,,,,,,,,,,,,,
,,,,,,610c1a45d84406f5d5c83a45,62c539ad9c287cc7faf3dbcd,2022-07-06_09h35.02.393,Colour_Asymmetry_Pilot,2022.1.3,Win32,60.0132029,62c50e9c1127f2cd403a315f,,,,,,,,,,,,,,,,,,,"[0.9372,0.9450000000000001,0.8980000000000001]",onethree,"[0.05879999999999996,0.2784,0.5841999999999998]",-2,3.6838,-96,-36,1,0,0,response5disk_5,-22,-4,1,0,0,rectangle_8,-22,-4,1,0,0,1,-22,-4,1,0,0,5,0,5,0,1,,,,,,,,,,,,,,,,,,,,,,,,,,,,,,,,,,,,,,,,,,,,,,,,,,,,,,,,,,,,,,,,,,,,,,,,,,,,,,,,,,,,,,,,,,,,,,,,,,,,,,,,,,,,,,,,
,,,,,,610c1a45d84406f5d5c83a45,62c539ad9c287cc7faf3dbcd,2022-07-06_09h35.02.393,Colour_Asymmetry_Pilot,2022.1.3,Win32,60.0132029,62c50e9c1127f2cd403a315f,,,,,,,,,,,,,,,,,,,"[-0.9296,-0.12959999999999994,-0.043199999999999905]",fourtwo,"[-0.5452,-0.608,0.2470000000000001]",2,2.8498,98,-34,1,0,0,response3disk_5,-10,9,1,0,0,rectangle_8,-10,9,1,0,0,1,-10,9,1,0,0,6,0,6,0,1,,,,,,,,,,,,,,,,,,,,,,,,,,,,,,,,,,,,,,,,,,,,,,,,,,,,,,,,,,,,,,,,,,,,,,,,,,,,,,,,,,,,,,,,,,,,,,,,,,,,,,,,,,,,,,,,
,,,,,,610c1a45d84406f5d5c83a45,62c539ad9c287cc7faf3dbcd,2022-07-06_09h35.02.393,Colour_Asymmetry_Pilot,2022.1.3,Win32,60.0132029,62c50e9c1127f2cd403a315f,,,,,,,,,,,,,,,,,,,,twofour,,-4,1.5667,,,,,,,,,,,,,,,,,,,,,,,,,,,,,,,,space,4.3003,"[0.37240000000000006,-0.050999999999999934,-0.5216]","[-0.20799999999999996,-0.655,-0.01980000000000004]",-45,89,1,0,0,response7disk,-3,1,1,0,0,rectangle,-3,1,1,0,0,,1,0.0027,0,-3,1,1,0,0,0,0,0,113,1,32,second,,,,,,,,,,,,,,,,,,,,,,,,,,,,,,,,,,,,,,,,,,,,,,,,,,,,,,,,,,,,,,,,,,,,,,,,
,,,,,,610c1a45d84406f5d5c83a45,62c539ad9c287cc7faf3dbcd,2022-07-06_09h35.02.393,Colour_Asymmetry_Pilot,2022.1.3,Win32,60.0132029,62c50e9c1127f2cd403a315f,,,,,,,,,,,,,,,,,,,,fourtwo,,-3,2.7616,,,,,,,,,,,,,,,,,,,,,,,,,,,,,,,,,,"[0.9763999999999999,0.30979999999999985,-0.6786]","[0.23920000000000008,0.2704,0.16060000000000008]",-91,49,1,0,0,response7disk,-6,1,1,0,0,rectangle,-6,1,1,0,0,,3,0.0017,0,-6,1,1,0,0,0,1,1,56,1,56,first,,,,,,,,,,,,,,,,,,,,,,,,,,,,,,,,,,,,,,,,,,,,,,,,,,,,,,,,,,,,,,,,,,,,,,,,
,,,,,,610c1a45d84406f5d5c83a45,62c539ad9c287cc7faf3dbcd,2022-07-06_09h35.02.393,Colour_Asymmetry_Pilot,2022.1.3,Win32,60.0132029,62c50e9c1127f2cd403a315f,,,,,,,,,,,,,,,,,,,,onethree,,-2,4.432,,,,,,,,,,,,,,,,,,,,,,,,,,,,,,,,,,"[-0.011800000000000033,-0.906,-0.45100000000000007]","[0.9686000000000001,0.5763999999999998,0.11359999999999992]",-99,-56,1,0,0,response5disk,-6,-6,1,0,0,rectangle,-6,-6,1,0,0,,1,0.001,0,-6,-6,1,0,0,0,2,2,142,1,61,second,,,,,,,,,,,,,,,,,,,,,,,,,,,,,,,,,,,,,,,,,,,,,,,,,,,,,,,,,,,,,,,,,,,,,,,,
,,,,,,610c1a45d84406f5d5c83a45,62c539ad9c287cc7faf3dbcd,2022-07-06_09h35.02.393,Colour_Asymmetry_Pilot,2022.1.3,Win32,60.0132029,62c50e9c1127f2cd403a315f,,,,,,,,,,,,,,,,,,,,onetwo,,-2,1.4068,,,,,,,,,,,,,,,,,,,,,,,,,,,,,,,,,,"[-0.24719999999999998,-0.0354000000000001,0.3175999999999999]","[-0.26280000000000003,-0.2158,-0.3256]",-79,-43,1,0,0,response5disk,-2,0,1,0,0,rectangle,-2,0,1,0,0,,2,0.0018,0,-2,0,1,0,0,0,3,3,17,1,17,first,,,,,,,,,,,,,,,,,,,,,,,,,,,,,,,,,,,,,,,,,,,,,,,,,,,,,,,,,,,,,,,,,,,,,,,,
,,,,,,610c1a45d84406f5d5c83a45,62c539ad9c287cc7faf3dbcd,2022-07-06_09h35.02.393,Colour_Asymmetry_Pilot,2022.1.3,Win32,60.0132029,62c50e9c1127f2cd403a315f,,,,,,,,,,,,,,,,,,,,fourtwo,,-4,1.0836,,,,,,,,,,,,,,,,,,,,,,,,,,,,,,,,,,"[-0.5452,-0.608,0.2470000000000001]","[0.22340000000000004,-0.9296,-0.7884]",-34,89,1,0,0,response7disk,-12,-2,1,0,0,rectangle,-12,-2,1,0,0,,3,0.0015,0,-12,-2,1,0,0,0,4,4,143,1,62,second,,,,,,,,,,,,,,,,,,,,,,,,,,,,,,,,,,,,,,,,,,,,,,,,,,,,,,,,,,,,,,,,,,,,,,,,
,,,,,,610c1a45d84406f5d5c83a45,62c539ad9c287cc7faf3dbcd,2022-07-06_09h35.02.393,Colour_Asymmetry_Pilot,2022.1.3,Win32,60.0132029,62c50e9c1127f2cd403a315f,,,,,,,,,,,,,,,,,,,,onethree,,-4,1.034,,,,,,,,,,,,,,,,,,,,,,,,,,,,,,,,,,"[0.22340000000000004,-0.9296,-0.7884]","[0.9686000000000001,0.3802000000000001,0.19999999999999996]",-49,106,1,0,0,response7disk,-15,-12,1,0,0,rectangle,60,-36,1,0,0,2,2,3.0996,1,11,-2,1,0,0,0,5,5,55,1,55,first,response3disk_3,rectangle,,,,,,,,,,,,,,,,,,,,,,,,,,,,,,,,,,,,,,,,,,,,,,,,,,,,,,,,,,,,,,,,,,,,,,
,,,,,,610c1a45d84406f5d5c83a45,62c539ad9c287cc7faf3dbcd,2022-07-06_09h35.02.393,Colour_Asymmetry_Pilot,2022.1.3,Win32,60.0132029,62c50e9c1127f2cd403a315f,,,,,,,,,,,,,,,,,,,,twoone,,-2,3.4159,,,,,,,,,,,,,,,,,,,,,,,,,,,,,,,,,,"[0.9763999999999999,0.30979999999999985,-0.6786]","[0.8274000000000001,-0.5844,-0.9452]",-75,-46,1,0,0,response5disk,14,7,1,0,0,rectangle,14,7,1,0,0,2,3,0.001,0,14,7,1,0,0,0,6,6,54,1,54,first,,,,,,,,,,,,,,,,,,,,,,,,,,,,,,,,,,,,,,,,,,,,,,,,,,,,,,,,,,,,,,,,,,,,,,,,
,,,,,,610c1a45d84406f5d5c83a45,62c539ad9c287cc7faf3dbcd,2022-07-06_09h35.02.393,Colour_Asymmetry_Pilot,2022.1.3,Win32,60.0132029,62c50e9c1127f2cd403a315f,,,,,,,,,,,,,,,,,,,,twofour,,-4,1.4385,,,,,,,,,,,,,,,,,,,,,,,,,,,,,,,,,,"[-0.07459999999999989,0.12139999999999995,-0.9922]","[0.12939999999999996,-0.2864,0.3253999999999999]",-33,85,1,0,0,response7disk,-12,-10,1,0,0,rectangle,-12,-10,1,0,0,2,2,0.0015,0,-12,-10,1,0,0,0,7,7,147,1,66,second,,,,,,,,,,,,,,,,,,,,,,,,,,,,,,,,,,,,,,,,,,,,,,,,,,,,,,,,,,,,,,,,,,,,,,,,
,,,,,,610c1a45d84406f5d5c83a45,62c539ad9c287cc7faf3dbcd,2022-07-06_09h35.02.393,Colour_Asymmetry_Pilot,2022.1.3,Win32,60.0132029,62c50e9c1127f2cd403a315f,,,,,,,,,,,,,,,,,,,,threeone,,-4,1.3689,,,,,,,,,,,,,,,,,,,,,,,,,,,,,,,,,,"[0.3881999999999999,-0.23939999999999995,-0.05040000000000011]","[-0.07459999999999989,0.12139999999999995,-0.9922]",-41,92,1,0,0,response7disk,-14,-11,1,0,0,rectangle,-14,-11,1,0,0,2,1,0.0017,0,-14,-11,1,0,0,0,8,8,106,1,25,second,,,,,,,,,,,,,,,,,,,,,,,,,,,,,,,,,,,,,,,,,,,,,,,,,,,,,,,,,,,,,,,,,,,,,,,,
,,,,,,610c1a45d84406f5d5c83a45,62c539ad9c287cc7faf3dbcd,2022-07-06_09h35.02.393,Colour_Asymmetry_Pilot,2022.1.3,Win32,60.0132029,62c50e9c1127f2cd403a315f,,,,,,,,,,,,,,,,,,,,twofour,,-4,1.2334,,,,,,,,,,,,,,,,,,,,,,,,,,,,,,,,,,"[-0.30200000000000005,0.14500000000000002,0.2784]","[0.9686000000000001,0.5763999999999998,0.11359999999999992]",-49,90,1,0,0,response7disk,-6,4,1,0,0,rectangle,-6,4,1,0,0,2,1,0.0005,0,-6,4,1,0,0,0,9,9,120,1,39,second,,,,,,,,,,,,,,,,,,,,,,,,,,,,,,,,,,,,,,,,,,,,,,,,,,,,,,,,,,,,,,,,,,,,,,,,
,,,,,,610c1a45d84406f5d5c83a45,62c539ad9c287cc7faf3dbcd,2022-07-06_09h35.02.393,Colour_Asymmetry_Pilot,2022.1.3,Win32,60.0132029,62c50e9c1127f2cd403a315f,,,,,,,,,,,,,,,,,,,,fourtwo,,-4,2.0157,,,,,,,,,,,,,,,,,,,,,,,,,,,,,,,,,,"[-0.7412000000000001,-0.08239999999999992,-0.6864]","[0.11359999999999992,0.6312,0.5213999999999999]",-45,71,1,0,0,response7disk,-4,0,1,0,0,rectangle,-4,0,1,0,0,2,2,0.0011,0,-4,0,1,0,0,0,10,10,27,1,27,first,,,,,,,,,,,,,,,,,,,,,,,,,,,,,,,,,,,,,,,,,,,,,,,,,,,,,,,,,,,,,,,,,,,,,,,,
,,,,,,610c1a45d84406f5d5c83a45,62c539ad9c287cc7faf3dbcd,2022-07-06_09h35.02.393,Colour_Asymmetry_Pilot,2022.1.3,Win32,60.0132029,62c50e9c1127f2cd403a315f,,,,,,,,,,,,,,,,,,,,twoone,,-4,1.3548,,,,,,,,,,,,,,,,,,,,,,,,,,,,,,,,,,"[0.9763999999999999,0.30979999999999985,-0.6786]","[0.8115999999999999,-0.0040000000000000036,-0.09819999999999995]",-56,88,1,0,0,response7disk,-16,-11,1,0,0,rectangle,-16,-11,1,0,0,2,2,0.0003,0,-16,-11,1,0,0,0,11,11,33,1,33,first,,,,,,,,,,,,,,,,,,,,,,,,,,,,,,,,,,,,,,,,,,,,,,,,,,,,,,,,,,,,,,,,,,,,,,,,
,,,,,,610c1a45d84406f5d5c83a45,62c539ad9c287cc7faf3dbcd,2022-07-06_09h35.02.393,Colour_Asymmetry_Pilot,2022.1.3,Win32,60.0132029,62c50e9c1127f2cd403a315f,,,,,,,,,,,,,,,,,,,,threeone,,-2,1.2447,,,,,,,,,,,,,,,,,,,,,,,,,,,,,,,,,,"[-0.30200000000000005,0.14500000000000002,0.2784]","[0.7018,0.7176,0.6155999999999999]",-106,-41,1,0,0,response5disk,-17,5,1,0,0,rectangle,-17,5,1,0,0,2,1,0.0008,0,-17,5,1,0,0,0,12,12,12,1,12,first,,,,,,,,,,,,,,,,,,,,,,,,,,,,,,,,,,,,,,,,,,,,,,,,,,,,,,,,,,,,,,,,,,,,,,,,
,,,,,,610c1a45d84406f5d5c83a45,62c539ad9c287cc7faf3dbcd,2022-07-06_09h35.02.393,Colour_Asymmetry_Pilot,2022.1.3,Win32,60.0132029,62c50e9c1127f2cd403a315f,,,,,,,,,,,,,,,,,,,,onethree,,-4,1.0678,,,,,,,,,,,,,,,,,,,,,,,,,,,,,,,,,,"[-0.4276,0.0038000000000000256,-0.3256]","[0.37240000000000006,-0.050999999999999934,-0.5216]",-45,82,1,0,0,response7disk,-9,-4,1,0,0,rectangle,-9,-4,1,0,0,2,2,0.0011,0,-9,-4,1,0,0,0,13,13,144,1,63,second,,,,,,,,,,,,,,,,,,,,,,,,,,,,,,,,,,,,,,,,,,,,,,,,,,,,,,,,,,,,,,,,,,,,,,,,
,,,,,,610c1a45d84406f5d5c83a45,62c539ad9c287cc7faf3dbcd,2022-07-06_09h35.02.393,Colour_Asymmetry_Pilot,2022.1.3,Win32,60.0132029,62c50e9c1127f2cd403a315f,,,,,,,,,,,,,,,,,,,,threefour,,-4,1.733,,,,,,,,,,,,,,,,,,,,,,,,,,,,,,,,,,"[-0.5922000000000001,-0.7492000000000001,-0.5296000000000001]","[0.6547999999999998,-0.043199999999999905,-0.011800000000000033]",-55,87,1,0,0,response7disk,-17,-1,1,0,0,rectangle,-17,-1,1,0,0,2,3,0.0012,0,-17,-1,1,0,0,0,14,14,72,1,72,first,,,,,,,,,,,,,,,,,,,,,,,,,,,,,,,,,,,,,,,,,,,,,,,,,,,,,,,,,,,,,,,,,,,,,,,,
,,,,,,610c1a45d84406f5d5c83a45,62c539ad9c287cc7faf3dbcd,2022-07-06_09h35.02.393,Colour_Asymmetry_Pilot,2022.1.3,Win32,60.0132029,62c50e9c1127f2cd403a315f,,,,,,,,,,,,,,,,,,,,onethree,,1,4.2036,,,,,,,,,,,,,,,,,,,,,,,,,,,,,,,,,,"[0.23120000000000007,-0.7726,-0.34120000000000006]","[0.9372,0.20779999999999998,0.2704]",46,-57,1,0,0,response3disk,21,3,1,0,0,rectangle,21,3,1,0,0,2,2,0.0009,0,21,3,1,0,0,0,15,15,38,1,38,first,,,,,,,,,,,,,,,,,,,,,,,,,,,,,,,,,,,,,,,,,,,,,,,,,,,,,,,,,,,,,,,,,,,,,,,,
,,,,,,610c1a45d84406f5d5c83a45,62c539ad9c287cc7faf3dbcd,2022-07-06_09h35.02.393,Colour_Asymmetry_Pilot,2022.1.3,Win32,60.0132029,62c50e9c1127f2cd403a315f,,,,,,,,,,,,,,,,,,,,twoone,,-4,1.3833,,,,,,,,,,,,,,,,,,,,,,,,,,,,,,,,,,"[-0.2942,-0.7648,-0.7492000000000001]","[-0.9296,-0.12959999999999994,-0.043199999999999905]",-47,92,1,0,0,response7disk,-13,-1,1,0,0,rectangle,-13,-1,1,0,0,2,2,0.0002,0,-13,-1,1,0,0,0,16,16,0,1,0,first,,,,,,,,,,,,,,,,,,,,,,,,,,,,,,,,,,,,,,,,,,,,,,,,,,,,,,,,,,,,,,,,,,,,,,,,
,,,,,,610c1a45d84406f5d5c83a45,62c539ad9c287cc7faf3dbcd,2022-07-06_09h35.02.393,Colour_Asymmetry_Pilot,2022.1.3,Win32,60.0132029,62c50e9c1127f2cd403a315f,,,,,,,,,,,,,,,,,,,,twoone,,-4,1.3197,,,,,,,,,,,,,,,,,,,,,,,,,,,,,,,,,,"[0.9372,0.20779999999999998,0.2704]","[0.23120000000000007,-0.7726,-0.34120000000000006]",-43,90,1,0,0,response7disk,-25,9,1,0,0,rectangle,-25,9,1,0,0,2,2,0.0005,0,-25,9,1,0,0,0,17,17,119,1,38,second,,,,,,,,,,,,,,,,,,,,,,,,,,,,,,,,,,,,,,,,,,,,,,,,,,,,,,,,,,,,,,,,,,,,,,,,
