trials.thisRepN,trials.thisTrialN,trials.thisN,trials.thisIndex,trials.ran,Colourcodes,participant,session,date,expName,psychopyVersion,OS,frameRate,study_id,trials_4.thisRepN,trials_4.thisTrialN,trials_4.thisN,trials_4.thisIndex,trials_4.ran,StimulusPos,key_resp.keys,key_resp.rt,key_resp_2.keys,key_resp_2.rt,key_resp_15.keys,key_resp_15.rt,key_resp_17.keys,key_resp_17.rt,key_resp_9.keys,key_resp_9.rt,key_resp_10.keys,key_resp_10.rt,Circle1_col,Ecc,Circle2_col,similarity,response_time,mouse_5.x,mouse_5.y,mouse_5.leftButton,mouse_5.midButton,mouse_5.rightButton,mouse_5.clicked_name,mouse_10.x,mouse_10.y,mouse_10.leftButton,mouse_10.midButton,mouse_10.rightButton,mouse_10.clicked_name,mouse_7.x,mouse_7.y,mouse_7.leftButton,mouse_7.midButton,mouse_7.rightButton,catchnumberprac,mouse_6.x,mouse_6.y,mouse_6.leftButton,mouse_6.midButton,mouse_6.rightButton,duringprac.thisRepN,duringprac.thisTrialN,duringprac.thisN,duringprac.thisIndex,duringprac.ran,mouse_7.clicked_name,catchprac,mouse_6.clicked_name,key_resp_22.keys,key_resp_22.rt,Circle1_colour,Circle2_colour,mouse.x,mouse.y,mouse.leftButton,mouse.midButton,mouse.rightButton,mouse.clicked_name,mouse_2.x,mouse_2.y,mouse_2.leftButton,mouse_2.midButton,mouse_2.rightButton,mouse_2.clicked_name,mouse_3.x,mouse_3.y,mouse_3.leftButton,mouse_3.midButton,mouse_3.rightButton,catchresponse,catchnumber,response_time_catch,Catch,mouse_11.x,mouse_11.y,mouse_11.leftButton,mouse_11.midButton,mouse_11.rightButton,trials_2.thisRepN,trials_2.thisTrialN,trials_2.thisN,trials_2.thisIndex,trials_2.ran,Colourpair,Temporder,mouse_3.clicked_name,mouse_11.clicked_name,trials_3.thisRepN,trials_3.thisTrialN,trials_3.thisN,trials_3.thisIndex,trials_3.ran,key_resp_instr_Ishi.keys,key_resp_instr_Ishi.rt,Ishi_trial_keyresp.keys,Ishi_trial_keyresp.rt,Ishi_textbox.text,Ishi_mouse.x,Ishi_mouse.y,Ishi_mouse.leftButton,Ishi_mouse.midButton,Ishi_mouse.rightButton,Ishi_loop.thisRepN,Ishi_loop.thisTrialN,Ishi_loop.thisN,Ishi_loop.thisIndex,Ishi_loop.ran,imageaddress,Ishi_mouse.clicked_name,textbox.text,mouse_4.x,mouse_4.y,mouse_4.leftButton,mouse_4.midButton,mouse_4.rightButton,mouse_4.clicked_name,textbox_2.text,mouse_8.x,mouse_8.y,mouse_8.leftButton,mouse_8.midButton,mouse_8.rightButton,mouse_8.clicked_name,textbox_3.text,mouse_9.x,mouse_9.y,mouse_9.leftButton,mouse_9.midButton,mouse_9.rightButton,mouse_9.clicked_name,textbox_4.text,mouse_12.x,mouse_12.y,mouse_12.leftButton,mouse_12.midButton,mouse_12.rightButton,mouse_12.clicked_name,textbox_5.text,mouse_13.x,mouse_13.y,mouse_13.leftButton,mouse_13.midButton,mouse_13.rightButton,mouse_13.clicked_name,textbox_6.text,mouse_14.x,mouse_14.y,mouse_14.leftButton,mouse_14.midButton,mouse_14.rightButton,mouse_14.clicked_name,textbox_7.text,mouse_15.x,mouse_15.y,mouse_15.leftButton,mouse_15.midButton,mouse_15.rightButton,mouse_15.clicked_name
0,0,0,81,1,,615d9a0ef34a6a806fe6ba3e,62c539ca505ca495f1f3dbea,2022-07-06_10h29.59.056,Colour_Asymmetry_Pilot,2022.1.3,MacIntel,35.71428571,62c50e9c1127f2cd403a315f,,,,,,,,,,,,,,,,,,,,,,,,,,,,,,,,,,,,,,,,,,,,,,,,,,,,,,,,,,,,,,,,,,,,,,,,,,,,,,,,,,,,,,,,,,,,,,,,,,,,,,,,,,,,,,,,,,,,,,,,,,,,,,,,,,,,,,,,,,,,,,,,,,,,,,,,,,,,,,,,,,,,
0,1,1,62,1,,615d9a0ef34a6a806fe6ba3e,62c539ca505ca495f1f3dbea,2022-07-06_10h29.59.056,Colour_Asymmetry_Pilot,2022.1.3,MacIntel,35.71428571,62c50e9c1127f2cd403a315f,,,,,,,,,,,,,,,,,,,,,,,,,,,,,,,,,,,,,,,,,,,,,,,,,,,,,,,,,,,,,,,,,,,,,,,,,,,,,,,,,,,,,,,,,,,,,,,,,,,,,,,,,,,,,,,,,,,,,,,,,,,,,,,,,,,,,,,,,,,,,,,,,,,,,,,,,,,,,,,,,,,,
0,2,2,11,1,,615d9a0ef34a6a806fe6ba3e,62c539ca505ca495f1f3dbea,2022-07-06_10h29.59.056,Colour_Asymmetry_Pilot,2022.1.3,MacIntel,35.71428571,62c50e9c1127f2cd403a315f,,,,,,,,,,,,,,,,,,,,,,,,,,,,,,,,,,,,,,,,,,,,,,,,,,,,,,,,,,,,,,,,,,,,,,,,,,,,,,,,,,,,,,,,,,,,,,,,,,,,,,,,,,,,,,,,,,,,,,,,,,,,,,,,,,,,,,,,,,,,,,,,,,,,,,,,,,,,,,,,,,,,
0,3,3,88,1,,615d9a0ef34a6a806fe6ba3e,62c539ca505ca495f1f3dbea,2022-07-06_10h29.59.056,Colour_Asymmetry_Pilot,2022.1.3,MacIntel,35.71428571,62c50e9c1127f2cd403a315f,,,,,,,,,,,,,,,,,,,,,,,,,,,,,,,,,,,,,,,,,,,,,,,,,,,,,,,,,,,,,,,,,,,,,,,,,,,,,,,,,,,,,,,,,,,,,,,,,,,,,,,,,,,,,,,,,,,,,,,,,,,,,,,,,,,,,,,,,,,,,,,,,,,,,,,,,,,,,,,,,,,,
0,4,4,83,1,,615d9a0ef34a6a806fe6ba3e,62c539ca505ca495f1f3dbea,2022-07-06_10h29.59.056,Colour_Asymmetry_Pilot,2022.1.3,MacIntel,35.71428571,62c50e9c1127f2cd403a315f,,,,,,,,,,,,,,,,,,,,,,,,,,,,,,,,,,,,,,,,,,,,,,,,,,,,,,,,,,,,,,,,,,,,,,,,,,,,,,,,,,,,,,,,,,,,,,,,,,,,,,,,,,,,,,,,,,,,,,,,,,,,,,,,,,,,,,,,,,,,,,,,,,,,,,,,,,,,,,,,,,,,
0,5,5,28,1,,615d9a0ef34a6a806fe6ba3e,62c539ca505ca495f1f3dbea,2022-07-06_10h29.59.056,Colour_Asymmetry_Pilot,2022.1.3,MacIntel,35.71428571,62c50e9c1127f2cd403a315f,,,,,,,,,,,,,,,,,,,,,,,,,,,,,,,,,,,,,,,,,,,,,,,,,,,,,,,,,,,,,,,,,,,,,,,,,,,,,,,,,,,,,,,,,,,,,,,,,,,,,,,,,,,,,,,,,,,,,,,,,,,,,,,,,,,,,,,,,,,,,,,,,,,,,,,,,,,,,,,,,,,,
0,6,6,58,1,,615d9a0ef34a6a806fe6ba3e,62c539ca505ca495f1f3dbea,2022-07-06_10h29.59.056,Colour_Asymmetry_Pilot,2022.1.3,MacIntel,35.71428571,62c50e9c1127f2cd403a315f,,,,,,,,,,,,,,,,,,,,,,,,,,,,,,,,,,,,,,,,,,,,,,,,,,,,,,,,,,,,,,,,,,,,,,,,,,,,,,,,,,,,,,,,,,,,,,,,,,,,,,,,,,,,,,,,,,,,,,,,,,,,,,,,,,,,,,,,,,,,,,,,,,,,,,,,,,,,,,,,,,,,
0,7,7,12,1,,615d9a0ef34a6a806fe6ba3e,62c539ca505ca495f1f3dbea,2022-07-06_10h29.59.056,Colour_Asymmetry_Pilot,2022.1.3,MacIntel,35.71428571,62c50e9c1127f2cd403a315f,,,,,,,,,,,,,,,,,,,,,,,,,,,,,,,,,,,,,,,,,,,,,,,,,,,,,,,,,,,,,,,,,,,,,,,,,,,,,,,,,,,,,,,,,,,,,,,,,,,,,,,,,,,,,,,,,,,,,,,,,,,,,,,,,,,,,,,,,,,,,,,,,,,,,,,,,,,,,,,,,,,,
0,8,8,48,1,,615d9a0ef34a6a806fe6ba3e,62c539ca505ca495f1f3dbea,2022-07-06_10h29.59.056,Colour_Asymmetry_Pilot,2022.1.3,MacIntel,35.71428571,62c50e9c1127f2cd403a315f,,,,,,,,,,,,,,,,,,,,,,,,,,,,,,,,,,,,,,,,,,,,,,,,,,,,,,,,,,,,,,,,,,,,,,,,,,,,,,,,,,,,,,,,,,,,,,,,,,,,,,,,,,,,,,,,,,,,,,,,,,,,,,,,,,,,,,,,,,,,,,,,,,,,,,,,,,,,,,,,,,,,
0,9,9,19,1,,615d9a0ef34a6a806fe6ba3e,62c539ca505ca495f1f3dbea,2022-07-06_10h29.59.056,Colour_Asymmetry_Pilot,2022.1.3,MacIntel,35.71428571,62c50e9c1127f2cd403a315f,,,,,,,,,,,,,,,,,,,,,,,,,,,,,,,,,,,,,,,,,,,,,,,,,,,,,,,,,,,,,,,,,,,,,,,,,,,,,,,,,,,,,,,,,,,,,,,,,,,,,,,,,,,,,,,,,,,,,,,,,,,,,,,,,,,,,,,,,,,,,,,,,,,,,,,,,,,,,,,,,,,,
0,10,10,68,1,,615d9a0ef34a6a806fe6ba3e,62c539ca505ca495f1f3dbea,2022-07-06_10h29.59.056,Colour_Asymmetry_Pilot,2022.1.3,MacIntel,35.71428571,62c50e9c1127f2cd403a315f,,,,,,,,,,,,,,,,,,,,,,,,,,,,,,,,,,,,,,,,,,,,,,,,,,,,,,,,,,,,,,,,,,,,,,,,,,,,,,,,,,,,,,,,,,,,,,,,,,,,,,,,,,,,,,,,,,,,,,,,,,,,,,,,,,,,,,,,,,,,,,,,,,,,,,,,,,,,,,,,,,,,
0,11,11,47,1,,615d9a0ef34a6a806fe6ba3e,62c539ca505ca495f1f3dbea,2022-07-06_10h29.59.056,Colour_Asymmetry_Pilot,2022.1.3,MacIntel,35.71428571,62c50e9c1127f2cd403a315f,,,,,,,,,,,,,,,,,,,,,,,,,,,,,,,,,,,,,,,,,,,,,,,,,,,,,,,,,,,,,,,,,,,,,,,,,,,,,,,,,,,,,,,,,,,,,,,,,,,,,,,,,,,,,,,,,,,,,,,,,,,,,,,,,,,,,,,,,,,,,,,,,,,,,,,,,,,,,,,,,,,,
0,12,12,37,1,,615d9a0ef34a6a806fe6ba3e,62c539ca505ca495f1f3dbea,2022-07-06_10h29.59.056,Colour_Asymmetry_Pilot,2022.1.3,MacIntel,35.71428571,62c50e9c1127f2cd403a315f,,,,,,,,,,,,,,,,,,,,,,,,,,,,,,,,,,,,,,,,,,,,,,,,,,,,,,,,,,,,,,,,,,,,,,,,,,,,,,,,,,,,,,,,,,,,,,,,,,,,,,,,,,,,,,,,,,,,,,,,,,,,,,,,,,,,,,,,,,,,,,,,,,,,,,,,,,,,,,,,,,,,
0,13,13,72,1,,615d9a0ef34a6a806fe6ba3e,62c539ca505ca495f1f3dbea,2022-07-06_10h29.59.056,Colour_Asymmetry_Pilot,2022.1.3,MacIntel,35.71428571,62c50e9c1127f2cd403a315f,,,,,,,,,,,,,,,,,,,,,,,,,,,,,,,,,,,,,,,,,,,,,,,,,,,,,,,,,,,,,,,,,,,,,,,,,,,,,,,,,,,,,,,,,,,,,,,,,,,,,,,,,,,,,,,,,,,,,,,,,,,,,,,,,,,,,,,,,,,,,,,,,,,,,,,,,,,,,,,,,,,,
0,14,14,82,1,,615d9a0ef34a6a806fe6ba3e,62c539ca505ca495f1f3dbea,2022-07-06_10h29.59.056,Colour_Asymmetry_Pilot,2022.1.3,MacIntel,35.71428571,62c50e9c1127f2cd403a315f,,,,,,,,,,,,,,,,,,,,,,,,,,,,,,,,,,,,,,,,,,,,,,,,,,,,,,,,,,,,,,,,,,,,,,,,,,,,,,,,,,,,,,,,,,,,,,,,,,,,,,,,,,,,,,,,,,,,,,,,,,,,,,,,,,,,,,,,,,,,,,,,,,,,,,,,,,,,,,,,,,,,
0,15,15,52,1,,615d9a0ef34a6a806fe6ba3e,62c539ca505ca495f1f3dbea,2022-07-06_10h29.59.056,Colour_Asymmetry_Pilot,2022.1.3,MacIntel,35.71428571,62c50e9c1127f2cd403a315f,,,,,,,,,,,,,,,,,,,,,,,,,,,,,,,,,,,,,,,,,,,,,,,,,,,,,,,,,,,,,,,,,,,,,,,,,,,,,,,,,,,,,,,,,,,,,,,,,,,,,,,,,,,,,,,,,,,,,,,,,,,,,,,,,,,,,,,,,,,,,,,,,,,,,,,,,,,,,,,,,,,,
0,16,16,38,1,,615d9a0ef34a6a806fe6ba3e,62c539ca505ca495f1f3dbea,2022-07-06_10h29.59.056,Colour_Asymmetry_Pilot,2022.1.3,MacIntel,35.71428571,62c50e9c1127f2cd403a315f,,,,,,,,,,,,,,,,,,,,,,,,,,,,,,,,,,,,,,,,,,,,,,,,,,,,,,,,,,,,,,,,,,,,,,,,,,,,,,,,,,,,,,,,,,,,,,,,,,,,,,,,,,,,,,,,,,,,,,,,,,,,,,,,,,,,,,,,,,,,,,,,,,,,,,,,,,,,,,,,,,,,
0,17,17,39,1,,615d9a0ef34a6a806fe6ba3e,62c539ca505ca495f1f3dbea,2022-07-06_10h29.59.056,Colour_Asymmetry_Pilot,2022.1.3,MacIntel,35.71428571,62c50e9c1127f2cd403a315f,,,,,,,,,,,,,,,,,,,,,,,,,,,,,,,,,,,,,,,,,,,,,,,,,,,,,,,,,,,,,,,,,,,,,,,,,,,,,,,,,,,,,,,,,,,,,,,,,,,,,,,,,,,,,,,,,,,,,,,,,,,,,,,,,,,,,,,,,,,,,,,,,,,,,,,,,,,,,,,,,,,,
0,18,18,24,1,,615d9a0ef34a6a806fe6ba3e,62c539ca505ca495f1f3dbea,2022-07-06_10h29.59.056,Colour_Asymmetry_Pilot,2022.1.3,MacIntel,35.71428571,62c50e9c1127f2cd403a315f,,,,,,,,,,,,,,,,,,,,,,,,,,,,,,,,,,,,,,,,,,,,,,,,,,,,,,,,,,,,,,,,,,,,,,,,,,,,,,,,,,,,,,,,,,,,,,,,,,,,,,,,,,,,,,,,,,,,,,,,,,,,,,,,,,,,,,,,,,,,,,,,,,,,,,,,,,,,,,,,,,,,
0,19,19,41,1,,615d9a0ef34a6a806fe6ba3e,62c539ca505ca495f1f3dbea,2022-07-06_10h29.59.056,Colour_Asymmetry_Pilot,2022.1.3,MacIntel,35.71428571,62c50e9c1127f2cd403a315f,,,,,,,,,,,,,,,,,,,,,,,,,,,,,,,,,,,,,,,,,,,,,,,,,,,,,,,,,,,,,,,,,,,,,,,,,,,,,,,,,,,,,,,,,,,,,,,,,,,,,,,,,,,,,,,,,,,,,,,,,,,,,,,,,,,,,,,,,,,,,,,,,,,,,,,,,,,,,,,,,,,,
0,20,20,8,1,,615d9a0ef34a6a806fe6ba3e,62c539ca505ca495f1f3dbea,2022-07-06_10h29.59.056,Colour_Asymmetry_Pilot,2022.1.3,MacIntel,35.71428571,62c50e9c1127f2cd403a315f,,,,,,,,,,,,,,,,,,,,,,,,,,,,,,,,,,,,,,,,,,,,,,,,,,,,,,,,,,,,,,,,,,,,,,,,,,,,,,,,,,,,,,,,,,,,,,,,,,,,,,,,,,,,,,,,,,,,,,,,,,,,,,,,,,,,,,,,,,,,,,,,,,,,,,,,,,,,,,,,,,,,
0,21,21,26,1,,615d9a0ef34a6a806fe6ba3e,62c539ca505ca495f1f3dbea,2022-07-06_10h29.59.056,Colour_Asymmetry_Pilot,2022.1.3,MacIntel,35.71428571,62c50e9c1127f2cd403a315f,,,,,,,,,,,,,,,,,,,,,,,,,,,,,,,,,,,,,,,,,,,,,,,,,,,,,,,,,,,,,,,,,,,,,,,,,,,,,,,,,,,,,,,,,,,,,,,,,,,,,,,,,,,,,,,,,,,,,,,,,,,,,,,,,,,,,,,,,,,,,,,,,,,,,,,,,,,,,,,,,,,,
0,22,22,66,1,,615d9a0ef34a6a806fe6ba3e,62c539ca505ca495f1f3dbea,2022-07-06_10h29.59.056,Colour_Asymmetry_Pilot,2022.1.3,MacIntel,35.71428571,62c50e9c1127f2cd403a315f,,,,,,,,,,,,,,,,,,,,,,,,,,,,,,,,,,,,,,,,,,,,,,,,,,,,,,,,,,,,,,,,,,,,,,,,,,,,,,,,,,,,,,,,,,,,,,,,,,,,,,,,,,,,,,,,,,,,,,,,,,,,,,,,,,,,,,,,,,,,,,,,,,,,,,,,,,,,,,,,,,,,
0,23,23,22,1,,615d9a0ef34a6a806fe6ba3e,62c539ca505ca495f1f3dbea,2022-07-06_10h29.59.056,Colour_Asymmetry_Pilot,2022.1.3,MacIntel,35.71428571,62c50e9c1127f2cd403a315f,,,,,,,,,,,,,,,,,,,,,,,,,,,,,,,,,,,,,,,,,,,,,,,,,,,,,,,,,,,,,,,,,,,,,,,,,,,,,,,,,,,,,,,,,,,,,,,,,,,,,,,,,,,,,,,,,,,,,,,,,,,,,,,,,,,,,,,,,,,,,,,,,,,,,,,,,,,,,,,,,,,,
0,24,24,64,1,,615d9a0ef34a6a806fe6ba3e,62c539ca505ca495f1f3dbea,2022-07-06_10h29.59.056,Colour_Asymmetry_Pilot,2022.1.3,MacIntel,35.71428571,62c50e9c1127f2cd403a315f,,,,,,,,,,,,,,,,,,,,,,,,,,,,,,,,,,,,,,,,,,,,,,,,,,,,,,,,,,,,,,,,,,,,,,,,,,,,,,,,,,,,,,,,,,,,,,,,,,,,,,,,,,,,,,,,,,,,,,,,,,,,,,,,,,,,,,,,,,,,,,,,,,,,,,,,,,,,,,,,,,,,
0,25,25,6,1,,615d9a0ef34a6a806fe6ba3e,62c539ca505ca495f1f3dbea,2022-07-06_10h29.59.056,Colour_Asymmetry_Pilot,2022.1.3,MacIntel,35.71428571,62c50e9c1127f2cd403a315f,,,,,,,,,,,,,,,,,,,,,,,,,,,,,,,,,,,,,,,,,,,,,,,,,,,,,,,,,,,,,,,,,,,,,,,,,,,,,,,,,,,,,,,,,,,,,,,,,,,,,,,,,,,,,,,,,,,,,,,,,,,,,,,,,,,,,,,,,,,,,,,,,,,,,,,,,,,,,,,,,,,,
0,26,26,87,1,,615d9a0ef34a6a806fe6ba3e,62c539ca505ca495f1f3dbea,2022-07-06_10h29.59.056,Colour_Asymmetry_Pilot,2022.1.3,MacIntel,35.71428571,62c50e9c1127f2cd403a315f,,,,,,,,,,,,,,,,,,,,,,,,,,,,,,,,,,,,,,,,,,,,,,,,,,,,,,,,,,,,,,,,,,,,,,,,,,,,,,,,,,,,,,,,,,,,,,,,,,,,,,,,,,,,,,,,,,,,,,,,,,,,,,,,,,,,,,,,,,,,,,,,,,,,,,,,,,,,,,,,,,,,
0,27,27,69,1,,615d9a0ef34a6a806fe6ba3e,62c539ca505ca495f1f3dbea,2022-07-06_10h29.59.056,Colour_Asymmetry_Pilot,2022.1.3,MacIntel,35.71428571,62c50e9c1127f2cd403a315f,,,,,,,,,,,,,,,,,,,,,,,,,,,,,,,,,,,,,,,,,,,,,,,,,,,,,,,,,,,,,,,,,,,,,,,,,,,,,,,,,,,,,,,,,,,,,,,,,,,,,,,,,,,,,,,,,,,,,,,,,,,,,,,,,,,,,,,,,,,,,,,,,,,,,,,,,,,,,,,,,,,,
0,28,28,86,1,,615d9a0ef34a6a806fe6ba3e,62c539ca505ca495f1f3dbea,2022-07-06_10h29.59.056,Colour_Asymmetry_Pilot,2022.1.3,MacIntel,35.71428571,62c50e9c1127f2cd403a315f,,,,,,,,,,,,,,,,,,,,,,,,,,,,,,,,,,,,,,,,,,,,,,,,,,,,,,,,,,,,,,,,,,,,,,,,,,,,,,,,,,,,,,,,,,,,,,,,,,,,,,,,,,,,,,,,,,,,,,,,,,,,,,,,,,,,,,,,,,,,,,,,,,,,,,,,,,,,,,,,,,,,
0,29,29,3,1,,615d9a0ef34a6a806fe6ba3e,62c539ca505ca495f1f3dbea,2022-07-06_10h29.59.056,Colour_Asymmetry_Pilot,2022.1.3,MacIntel,35.71428571,62c50e9c1127f2cd403a315f,,,,,,,,,,,,,,,,,,,,,,,,,,,,,,,,,,,,,,,,,,,,,,,,,,,,,,,,,,,,,,,,,,,,,,,,,,,,,,,,,,,,,,,,,,,,,,,,,,,,,,,,,,,,,,,,,,,,,,,,,,,,,,,,,,,,,,,,,,,,,,,,,,,,,,,,,,,,,,,,,,,,
0,30,30,20,1,,615d9a0ef34a6a806fe6ba3e,62c539ca505ca495f1f3dbea,2022-07-06_10h29.59.056,Colour_Asymmetry_Pilot,2022.1.3,MacIntel,35.71428571,62c50e9c1127f2cd403a315f,,,,,,,,,,,,,,,,,,,,,,,,,,,,,,,,,,,,,,,,,,,,,,,,,,,,,,,,,,,,,,,,,,,,,,,,,,,,,,,,,,,,,,,,,,,,,,,,,,,,,,,,,,,,,,,,,,,,,,,,,,,,,,,,,,,,,,,,,,,,,,,,,,,,,,,,,,,,,,,,,,,,
0,31,31,0,1,,615d9a0ef34a6a806fe6ba3e,62c539ca505ca495f1f3dbea,2022-07-06_10h29.59.056,Colour_Asymmetry_Pilot,2022.1.3,MacIntel,35.71428571,62c50e9c1127f2cd403a315f,,,,,,,,,,,,,,,,,,,,,,,,,,,,,,,,,,,,,,,,,,,,,,,,,,,,,,,,,,,,,,,,,,,,,,,,,,,,,,,,,,,,,,,,,,,,,,,,,,,,,,,,,,,,,,,,,,,,,,,,,,,,,,,,,,,,,,,,,,,,,,,,,,,,,,,,,,,,,,,,,,,,
0,32,32,65,1,,615d9a0ef34a6a806fe6ba3e,62c539ca505ca495f1f3dbea,2022-07-06_10h29.59.056,Colour_Asymmetry_Pilot,2022.1.3,MacIntel,35.71428571,62c50e9c1127f2cd403a315f,,,,,,,,,,,,,,,,,,,,,,,,,,,,,,,,,,,,,,,,,,,,,,,,,,,,,,,,,,,,,,,,,,,,,,,,,,,,,,,,,,,,,,,,,,,,,,,,,,,,,,,,,,,,,,,,,,,,,,,,,,,,,,,,,,,,,,,,,,,,,,,,,,,,,,,,,,,,,,,,,,,,
0,33,33,73,1,,615d9a0ef34a6a806fe6ba3e,62c539ca505ca495f1f3dbea,2022-07-06_10h29.59.056,Colour_Asymmetry_Pilot,2022.1.3,MacIntel,35.71428571,62c50e9c1127f2cd403a315f,,,,,,,,,,,,,,,,,,,,,,,,,,,,,,,,,,,,,,,,,,,,,,,,,,,,,,,,,,,,,,,,,,,,,,,,,,,,,,,,,,,,,,,,,,,,,,,,,,,,,,,,,,,,,,,,,,,,,,,,,,,,,,,,,,,,,,,,,,,,,,,,,,,,,,,,,,,,,,,,,,,,
0,34,34,53,1,,615d9a0ef34a6a806fe6ba3e,62c539ca505ca495f1f3dbea,2022-07-06_10h29.59.056,Colour_Asymmetry_Pilot,2022.1.3,MacIntel,35.71428571,62c50e9c1127f2cd403a315f,,,,,,,,,,,,,,,,,,,,,,,,,,,,,,,,,,,,,,,,,,,,,,,,,,,,,,,,,,,,,,,,,,,,,,,,,,,,,,,,,,,,,,,,,,,,,,,,,,,,,,,,,,,,,,,,,,,,,,,,,,,,,,,,,,,,,,,,,,,,,,,,,,,,,,,,,,,,,,,,,,,,
0,35,35,21,1,,615d9a0ef34a6a806fe6ba3e,62c539ca505ca495f1f3dbea,2022-07-06_10h29.59.056,Colour_Asymmetry_Pilot,2022.1.3,MacIntel,35.71428571,62c50e9c1127f2cd403a315f,,,,,,,,,,,,,,,,,,,,,,,,,,,,,,,,,,,,,,,,,,,,,,,,,,,,,,,,,,,,,,,,,,,,,,,,,,,,,,,,,,,,,,,,,,,,,,,,,,,,,,,,,,,,,,,,,,,,,,,,,,,,,,,,,,,,,,,,,,,,,,,,,,,,,,,,,,,,,,,,,,,,
0,36,36,15,1,,615d9a0ef34a6a806fe6ba3e,62c539ca505ca495f1f3dbea,2022-07-06_10h29.59.056,Colour_Asymmetry_Pilot,2022.1.3,MacIntel,35.71428571,62c50e9c1127f2cd403a315f,,,,,,,,,,,,,,,,,,,,,,,,,,,,,,,,,,,,,,,,,,,,,,,,,,,,,,,,,,,,,,,,,,,,,,,,,,,,,,,,,,,,,,,,,,,,,,,,,,,,,,,,,,,,,,,,,,,,,,,,,,,,,,,,,,,,,,,,,,,,,,,,,,,,,,,,,,,,,,,,,,,,
0,37,37,45,1,,615d9a0ef34a6a806fe6ba3e,62c539ca505ca495f1f3dbea,2022-07-06_10h29.59.056,Colour_Asymmetry_Pilot,2022.1.3,MacIntel,35.71428571,62c50e9c1127f2cd403a315f,,,,,,,,,,,,,,,,,,,,,,,,,,,,,,,,,,,,,,,,,,,,,,,,,,,,,,,,,,,,,,,,,,,,,,,,,,,,,,,,,,,,,,,,,,,,,,,,,,,,,,,,,,,,,,,,,,,,,,,,,,,,,,,,,,,,,,,,,,,,,,,,,,,,,,,,,,,,,,,,,,,,
0,38,38,42,1,,615d9a0ef34a6a806fe6ba3e,62c539ca505ca495f1f3dbea,2022-07-06_10h29.59.056,Colour_Asymmetry_Pilot,2022.1.3,MacIntel,35.71428571,62c50e9c1127f2cd403a315f,,,,,,,,,,,,,,,,,,,,,,,,,,,,,,,,,,,,,,,,,,,,,,,,,,,,,,,,,,,,,,,,,,,,,,,,,,,,,,,,,,,,,,,,,,,,,,,,,,,,,,,,,,,,,,,,,,,,,,,,,,,,,,,,,,,,,,,,,,,,,,,,,,,,,,,,,,,,,,,,,,,,
0,39,39,13,1,,615d9a0ef34a6a806fe6ba3e,62c539ca505ca495f1f3dbea,2022-07-06_10h29.59.056,Colour_Asymmetry_Pilot,2022.1.3,MacIntel,35.71428571,62c50e9c1127f2cd403a315f,,,,,,,,,,,,,,,,,,,,,,,,,,,,,,,,,,,,,,,,,,,,,,,,,,,,,,,,,,,,,,,,,,,,,,,,,,,,,,,,,,,,,,,,,,,,,,,,,,,,,,,,,,,,,,,,,,,,,,,,,,,,,,,,,,,,,,,,,,,,,,,,,,,,,,,,,,,,,,,,,,,,
0,40,40,63,1,,615d9a0ef34a6a806fe6ba3e,62c539ca505ca495f1f3dbea,2022-07-06_10h29.59.056,Colour_Asymmetry_Pilot,2022.1.3,MacIntel,35.71428571,62c50e9c1127f2cd403a315f,,,,,,,,,,,,,,,,,,,,,,,,,,,,,,,,,,,,,,,,,,,,,,,,,,,,,,,,,,,,,,,,,,,,,,,,,,,,,,,,,,,,,,,,,,,,,,,,,,,,,,,,,,,,,,,,,,,,,,,,,,,,,,,,,,,,,,,,,,,,,,,,,,,,,,,,,,,,,,,,,,,,
0,41,41,5,1,,615d9a0ef34a6a806fe6ba3e,62c539ca505ca495f1f3dbea,2022-07-06_10h29.59.056,Colour_Asymmetry_Pilot,2022.1.3,MacIntel,35.71428571,62c50e9c1127f2cd403a315f,,,,,,,,,,,,,,,,,,,,,,,,,,,,,,,,,,,,,,,,,,,,,,,,,,,,,,,,,,,,,,,,,,,,,,,,,,,,,,,,,,,,,,,,,,,,,,,,,,,,,,,,,,,,,,,,,,,,,,,,,,,,,,,,,,,,,,,,,,,,,,,,,,,,,,,,,,,,,,,,,,,,
0,42,42,89,1,,615d9a0ef34a6a806fe6ba3e,62c539ca505ca495f1f3dbea,2022-07-06_10h29.59.056,Colour_Asymmetry_Pilot,2022.1.3,MacIntel,35.71428571,62c50e9c1127f2cd403a315f,,,,,,,,,,,,,,,,,,,,,,,,,,,,,,,,,,,,,,,,,,,,,,,,,,,,,,,,,,,,,,,,,,,,,,,,,,,,,,,,,,,,,,,,,,,,,,,,,,,,,,,,,,,,,,,,,,,,,,,,,,,,,,,,,,,,,,,,,,,,,,,,,,,,,,,,,,,,,,,,,,,,
0,43,43,54,1,,615d9a0ef34a6a806fe6ba3e,62c539ca505ca495f1f3dbea,2022-07-06_10h29.59.056,Colour_Asymmetry_Pilot,2022.1.3,MacIntel,35.71428571,62c50e9c1127f2cd403a315f,,,,,,,,,,,,,,,,,,,,,,,,,,,,,,,,,,,,,,,,,,,,,,,,,,,,,,,,,,,,,,,,,,,,,,,,,,,,,,,,,,,,,,,,,,,,,,,,,,,,,,,,,,,,,,,,,,,,,,,,,,,,,,,,,,,,,,,,,,,,,,,,,,,,,,,,,,,,,,,,,,,,
0,44,44,56,1,,615d9a0ef34a6a806fe6ba3e,62c539ca505ca495f1f3dbea,2022-07-06_10h29.59.056,Colour_Asymmetry_Pilot,2022.1.3,MacIntel,35.71428571,62c50e9c1127f2cd403a315f,,,,,,,,,,,,,,,,,,,,,,,,,,,,,,,,,,,,,,,,,,,,,,,,,,,,,,,,,,,,,,,,,,,,,,,,,,,,,,,,,,,,,,,,,,,,,,,,,,,,,,,,,,,,,,,,,,,,,,,,,,,,,,,,,,,,,,,,,,,,,,,,,,,,,,,,,,,,,,,,,,,,
0,45,45,25,1,,615d9a0ef34a6a806fe6ba3e,62c539ca505ca495f1f3dbea,2022-07-06_10h29.59.056,Colour_Asymmetry_Pilot,2022.1.3,MacIntel,35.71428571,62c50e9c1127f2cd403a315f,,,,,,,,,,,,,,,,,,,,,,,,,,,,,,,,,,,,,,,,,,,,,,,,,,,,,,,,,,,,,,,,,,,,,,,,,,,,,,,,,,,,,,,,,,,,,,,,,,,,,,,,,,,,,,,,,,,,,,,,,,,,,,,,,,,,,,,,,,,,,,,,,,,,,,,,,,,,,,,,,,,,
0,46,46,80,1,,615d9a0ef34a6a806fe6ba3e,62c539ca505ca495f1f3dbea,2022-07-06_10h29.59.056,Colour_Asymmetry_Pilot,2022.1.3,MacIntel,35.71428571,62c50e9c1127f2cd403a315f,,,,,,,,,,,,,,,,,,,,,,,,,,,,,,,,,,,,,,,,,,,,,,,,,,,,,,,,,,,,,,,,,,,,,,,,,,,,,,,,,,,,,,,,,,,,,,,,,,,,,,,,,,,,,,,,,,,,,,,,,,,,,,,,,,,,,,,,,,,,,,,,,,,,,,,,,,,,,,,,,,,,
0,47,47,57,1,,615d9a0ef34a6a806fe6ba3e,62c539ca505ca495f1f3dbea,2022-07-06_10h29.59.056,Colour_Asymmetry_Pilot,2022.1.3,MacIntel,35.71428571,62c50e9c1127f2cd403a315f,,,,,,,,,,,,,,,,,,,,,,,,,,,,,,,,,,,,,,,,,,,,,,,,,,,,,,,,,,,,,,,,,,,,,,,,,,,,,,,,,,,,,,,,,,,,,,,,,,,,,,,,,,,,,,,,,,,,,,,,,,,,,,,,,,,,,,,,,,,,,,,,,,,,,,,,,,,,,,,,,,,,
0,48,48,77,1,,615d9a0ef34a6a806fe6ba3e,62c539ca505ca495f1f3dbea,2022-07-06_10h29.59.056,Colour_Asymmetry_Pilot,2022.1.3,MacIntel,35.71428571,62c50e9c1127f2cd403a315f,,,,,,,,,,,,,,,,,,,,,,,,,,,,,,,,,,,,,,,,,,,,,,,,,,,,,,,,,,,,,,,,,,,,,,,,,,,,,,,,,,,,,,,,,,,,,,,,,,,,,,,,,,,,,,,,,,,,,,,,,,,,,,,,,,,,,,,,,,,,,,,,,,,,,,,,,,,,,,,,,,,,
0,49,49,75,1,,615d9a0ef34a6a806fe6ba3e,62c539ca505ca495f1f3dbea,2022-07-06_10h29.59.056,Colour_Asymmetry_Pilot,2022.1.3,MacIntel,35.71428571,62c50e9c1127f2cd403a315f,,,,,,,,,,,,,,,,,,,,,,,,,,,,,,,,,,,,,,,,,,,,,,,,,,,,,,,,,,,,,,,,,,,,,,,,,,,,,,,,,,,,,,,,,,,,,,,,,,,,,,,,,,,,,,,,,,,,,,,,,,,,,,,,,,,,,,,,,,,,,,,,,,,,,,,,,,,,,,,,,,,,
0,50,50,60,1,,615d9a0ef34a6a806fe6ba3e,62c539ca505ca495f1f3dbea,2022-07-06_10h29.59.056,Colour_Asymmetry_Pilot,2022.1.3,MacIntel,35.71428571,62c50e9c1127f2cd403a315f,,,,,,,,,,,,,,,,,,,,,,,,,,,,,,,,,,,,,,,,,,,,,,,,,,,,,,,,,,,,,,,,,,,,,,,,,,,,,,,,,,,,,,,,,,,,,,,,,,,,,,,,,,,,,,,,,,,,,,,,,,,,,,,,,,,,,,,,,,,,,,,,,,,,,,,,,,,,,,,,,,,,
0,51,51,17,1,,615d9a0ef34a6a806fe6ba3e,62c539ca505ca495f1f3dbea,2022-07-06_10h29.59.056,Colour_Asymmetry_Pilot,2022.1.3,MacIntel,35.71428571,62c50e9c1127f2cd403a315f,,,,,,,,,,,,,,,,,,,,,,,,,,,,,,,,,,,,,,,,,,,,,,,,,,,,,,,,,,,,,,,,,,,,,,,,,,,,,,,,,,,,,,,,,,,,,,,,,,,,,,,,,,,,,,,,,,,,,,,,,,,,,,,,,,,,,,,,,,,,,,,,,,,,,,,,,,,,,,,,,,,,
0,52,52,40,1,,615d9a0ef34a6a806fe6ba3e,62c539ca505ca495f1f3dbea,2022-07-06_10h29.59.056,Colour_Asymmetry_Pilot,2022.1.3,MacIntel,35.71428571,62c50e9c1127f2cd403a315f,,,,,,,,,,,,,,,,,,,,,,,,,,,,,,,,,,,,,,,,,,,,,,,,,,,,,,,,,,,,,,,,,,,,,,,,,,,,,,,,,,,,,,,,,,,,,,,,,,,,,,,,,,,,,,,,,,,,,,,,,,,,,,,,,,,,,,,,,,,,,,,,,,,,,,,,,,,,,,,,,,,,
0,53,53,71,1,,615d9a0ef34a6a806fe6ba3e,62c539ca505ca495f1f3dbea,2022-07-06_10h29.59.056,Colour_Asymmetry_Pilot,2022.1.3,MacIntel,35.71428571,62c50e9c1127f2cd403a315f,,,,,,,,,,,,,,,,,,,,,,,,,,,,,,,,,,,,,,,,,,,,,,,,,,,,,,,,,,,,,,,,,,,,,,,,,,,,,,,,,,,,,,,,,,,,,,,,,,,,,,,,,,,,,,,,,,,,,,,,,,,,,,,,,,,,,,,,,,,,,,,,,,,,,,,,,,,,,,,,,,,,
0,54,54,36,1,,615d9a0ef34a6a806fe6ba3e,62c539ca505ca495f1f3dbea,2022-07-06_10h29.59.056,Colour_Asymmetry_Pilot,2022.1.3,MacIntel,35.71428571,62c50e9c1127f2cd403a315f,,,,,,,,,,,,,,,,,,,,,,,,,,,,,,,,,,,,,,,,,,,,,,,,,,,,,,,,,,,,,,,,,,,,,,,,,,,,,,,,,,,,,,,,,,,,,,,,,,,,,,,,,,,,,,,,,,,,,,,,,,,,,,,,,,,,,,,,,,,,,,,,,,,,,,,,,,,,,,,,,,,,
0,55,55,90,1,,615d9a0ef34a6a806fe6ba3e,62c539ca505ca495f1f3dbea,2022-07-06_10h29.59.056,Colour_Asymmetry_Pilot,2022.1.3,MacIntel,35.71428571,62c50e9c1127f2cd403a315f,,,,,,,,,,,,,,,,,,,,,,,,,,,,,,,,,,,,,,,,,,,,,,,,,,,,,,,,,,,,,,,,,,,,,,,,,,,,,,,,,,,,,,,,,,,,,,,,,,,,,,,,,,,,,,,,,,,,,,,,,,,,,,,,,,,,,,,,,,,,,,,,,,,,,,,,,,,,,,,,,,,,
0,56,56,59,1,,615d9a0ef34a6a806fe6ba3e,62c539ca505ca495f1f3dbea,2022-07-06_10h29.59.056,Colour_Asymmetry_Pilot,2022.1.3,MacIntel,35.71428571,62c50e9c1127f2cd403a315f,,,,,,,,,,,,,,,,,,,,,,,,,,,,,,,,,,,,,,,,,,,,,,,,,,,,,,,,,,,,,,,,,,,,,,,,,,,,,,,,,,,,,,,,,,,,,,,,,,,,,,,,,,,,,,,,,,,,,,,,,,,,,,,,,,,,,,,,,,,,,,,,,,,,,,,,,,,,,,,,,,,,
0,57,57,30,1,,615d9a0ef34a6a806fe6ba3e,62c539ca505ca495f1f3dbea,2022-07-06_10h29.59.056,Colour_Asymmetry_Pilot,2022.1.3,MacIntel,35.71428571,62c50e9c1127f2cd403a315f,,,,,,,,,,,,,,,,,,,,,,,,,,,,,,,,,,,,,,,,,,,,,,,,,,,,,,,,,,,,,,,,,,,,,,,,,,,,,,,,,,,,,,,,,,,,,,,,,,,,,,,,,,,,,,,,,,,,,,,,,,,,,,,,,,,,,,,,,,,,,,,,,,,,,,,,,,,,,,,,,,,,
0,58,58,84,1,,615d9a0ef34a6a806fe6ba3e,62c539ca505ca495f1f3dbea,2022-07-06_10h29.59.056,Colour_Asymmetry_Pilot,2022.1.3,MacIntel,35.71428571,62c50e9c1127f2cd403a315f,,,,,,,,,,,,,,,,,,,,,,,,,,,,,,,,,,,,,,,,,,,,,,,,,,,,,,,,,,,,,,,,,,,,,,,,,,,,,,,,,,,,,,,,,,,,,,,,,,,,,,,,,,,,,,,,,,,,,,,,,,,,,,,,,,,,,,,,,,,,,,,,,,,,,,,,,,,,,,,,,,,,
0,59,59,91,1,,615d9a0ef34a6a806fe6ba3e,62c539ca505ca495f1f3dbea,2022-07-06_10h29.59.056,Colour_Asymmetry_Pilot,2022.1.3,MacIntel,35.71428571,62c50e9c1127f2cd403a315f,,,,,,,,,,,,,,,,,,,,,,,,,,,,,,,,,,,,,,,,,,,,,,,,,,,,,,,,,,,,,,,,,,,,,,,,,,,,,,,,,,,,,,,,,,,,,,,,,,,,,,,,,,,,,,,,,,,,,,,,,,,,,,,,,,,,,,,,,,,,,,,,,,,,,,,,,,,,,,,,,,,,
0,60,60,61,1,,615d9a0ef34a6a806fe6ba3e,62c539ca505ca495f1f3dbea,2022-07-06_10h29.59.056,Colour_Asymmetry_Pilot,2022.1.3,MacIntel,35.71428571,62c50e9c1127f2cd403a315f,,,,,,,,,,,,,,,,,,,,,,,,,,,,,,,,,,,,,,,,,,,,,,,,,,,,,,,,,,,,,,,,,,,,,,,,,,,,,,,,,,,,,,,,,,,,,,,,,,,,,,,,,,,,,,,,,,,,,,,,,,,,,,,,,,,,,,,,,,,,,,,,,,,,,,,,,,,,,,,,,,,,
0,61,61,27,1,,615d9a0ef34a6a806fe6ba3e,62c539ca505ca495f1f3dbea,2022-07-06_10h29.59.056,Colour_Asymmetry_Pilot,2022.1.3,MacIntel,35.71428571,62c50e9c1127f2cd403a315f,,,,,,,,,,,,,,,,,,,,,,,,,,,,,,,,,,,,,,,,,,,,,,,,,,,,,,,,,,,,,,,,,,,,,,,,,,,,,,,,,,,,,,,,,,,,,,,,,,,,,,,,,,,,,,,,,,,,,,,,,,,,,,,,,,,,,,,,,,,,,,,,,,,,,,,,,,,,,,,,,,,,
0,62,62,43,1,,615d9a0ef34a6a806fe6ba3e,62c539ca505ca495f1f3dbea,2022-07-06_10h29.59.056,Colour_Asymmetry_Pilot,2022.1.3,MacIntel,35.71428571,62c50e9c1127f2cd403a315f,,,,,,,,,,,,,,,,,,,,,,,,,,,,,,,,,,,,,,,,,,,,,,,,,,,,,,,,,,,,,,,,,,,,,,,,,,,,,,,,,,,,,,,,,,,,,,,,,,,,,,,,,,,,,,,,,,,,,,,,,,,,,,,,,,,,,,,,,,,,,,,,,,,,,,,,,,,,,,,,,,,,
0,63,63,29,1,,615d9a0ef34a6a806fe6ba3e,62c539ca505ca495f1f3dbea,2022-07-06_10h29.59.056,Colour_Asymmetry_Pilot,2022.1.3,MacIntel,35.71428571,62c50e9c1127f2cd403a315f,,,,,,,,,,,,,,,,,,,,,,,,,,,,,,,,,,,,,,,,,,,,,,,,,,,,,,,,,,,,,,,,,,,,,,,,,,,,,,,,,,,,,,,,,,,,,,,,,,,,,,,,,,,,,,,,,,,,,,,,,,,,,,,,,,,,,,,,,,,,,,,,,,,,,,,,,,,,,,,,,,,,
0,64,64,18,1,,615d9a0ef34a6a806fe6ba3e,62c539ca505ca495f1f3dbea,2022-07-06_10h29.59.056,Colour_Asymmetry_Pilot,2022.1.3,MacIntel,35.71428571,62c50e9c1127f2cd403a315f,,,,,,,,,,,,,,,,,,,,,,,,,,,,,,,,,,,,,,,,,,,,,,,,,,,,,,,,,,,,,,,,,,,,,,,,,,,,,,,,,,,,,,,,,,,,,,,,,,,,,,,,,,,,,,,,,,,,,,,,,,,,,,,,,,,,,,,,,,,,,,,,,,,,,,,,,,,,,,,,,,,,
0,65,65,35,1,,615d9a0ef34a6a806fe6ba3e,62c539ca505ca495f1f3dbea,2022-07-06_10h29.59.056,Colour_Asymmetry_Pilot,2022.1.3,MacIntel,35.71428571,62c50e9c1127f2cd403a315f,,,,,,,,,,,,,,,,,,,,,,,,,,,,,,,,,,,,,,,,,,,,,,,,,,,,,,,,,,,,,,,,,,,,,,,,,,,,,,,,,,,,,,,,,,,,,,,,,,,,,,,,,,,,,,,,,,,,,,,,,,,,,,,,,,,,,,,,,,,,,,,,,,,,,,,,,,,,,,,,,,,,
0,66,66,79,1,,615d9a0ef34a6a806fe6ba3e,62c539ca505ca495f1f3dbea,2022-07-06_10h29.59.056,Colour_Asymmetry_Pilot,2022.1.3,MacIntel,35.71428571,62c50e9c1127f2cd403a315f,,,,,,,,,,,,,,,,,,,,,,,,,,,,,,,,,,,,,,,,,,,,,,,,,,,,,,,,,,,,,,,,,,,,,,,,,,,,,,,,,,,,,,,,,,,,,,,,,,,,,,,,,,,,,,,,,,,,,,,,,,,,,,,,,,,,,,,,,,,,,,,,,,,,,,,,,,,,,,,,,,,,
0,67,67,33,1,,615d9a0ef34a6a806fe6ba3e,62c539ca505ca495f1f3dbea,2022-07-06_10h29.59.056,Colour_Asymmetry_Pilot,2022.1.3,MacIntel,35.71428571,62c50e9c1127f2cd403a315f,,,,,,,,,,,,,,,,,,,,,,,,,,,,,,,,,,,,,,,,,,,,,,,,,,,,,,,,,,,,,,,,,,,,,,,,,,,,,,,,,,,,,,,,,,,,,,,,,,,,,,,,,,,,,,,,,,,,,,,,,,,,,,,,,,,,,,,,,,,,,,,,,,,,,,,,,,,,,,,,,,,,
0,68,68,10,1,,615d9a0ef34a6a806fe6ba3e,62c539ca505ca495f1f3dbea,2022-07-06_10h29.59.056,Colour_Asymmetry_Pilot,2022.1.3,MacIntel,35.71428571,62c50e9c1127f2cd403a315f,,,,,,,,,,,,,,,,,,,,,,,,,,,,,,,,,,,,,,,,,,,,,,,,,,,,,,,,,,,,,,,,,,,,,,,,,,,,,,,,,,,,,,,,,,,,,,,,,,,,,,,,,,,,,,,,,,,,,,,,,,,,,,,,,,,,,,,,,,,,,,,,,,,,,,,,,,,,,,,,,,,,
0,69,69,7,1,,615d9a0ef34a6a806fe6ba3e,62c539ca505ca495f1f3dbea,2022-07-06_10h29.59.056,Colour_Asymmetry_Pilot,2022.1.3,MacIntel,35.71428571,62c50e9c1127f2cd403a315f,,,,,,,,,,,,,,,,,,,,,,,,,,,,,,,,,,,,,,,,,,,,,,,,,,,,,,,,,,,,,,,,,,,,,,,,,,,,,,,,,,,,,,,,,,,,,,,,,,,,,,,,,,,,,,,,,,,,,,,,,,,,,,,,,,,,,,,,,,,,,,,,,,,,,,,,,,,,,,,,,,,,
0,70,70,4,1,,615d9a0ef34a6a806fe6ba3e,62c539ca505ca495f1f3dbea,2022-07-06_10h29.59.056,Colour_Asymmetry_Pilot,2022.1.3,MacIntel,35.71428571,62c50e9c1127f2cd403a315f,,,,,,,,,,,,,,,,,,,,,,,,,,,,,,,,,,,,,,,,,,,,,,,,,,,,,,,,,,,,,,,,,,,,,,,,,,,,,,,,,,,,,,,,,,,,,,,,,,,,,,,,,,,,,,,,,,,,,,,,,,,,,,,,,,,,,,,,,,,,,,,,,,,,,,,,,,,,,,,,,,,,
0,71,71,50,1,,615d9a0ef34a6a806fe6ba3e,62c539ca505ca495f1f3dbea,2022-07-06_10h29.59.056,Colour_Asymmetry_Pilot,2022.1.3,MacIntel,35.71428571,62c50e9c1127f2cd403a315f,,,,,,,,,,,,,,,,,,,,,,,,,,,,,,,,,,,,,,,,,,,,,,,,,,,,,,,,,,,,,,,,,,,,,,,,,,,,,,,,,,,,,,,,,,,,,,,,,,,,,,,,,,,,,,,,,,,,,,,,,,,,,,,,,,,,,,,,,,,,,,,,,,,,,,,,,,,,,,,,,,,,
0,72,72,70,1,,615d9a0ef34a6a806fe6ba3e,62c539ca505ca495f1f3dbea,2022-07-06_10h29.59.056,Colour_Asymmetry_Pilot,2022.1.3,MacIntel,35.71428571,62c50e9c1127f2cd403a315f,,,,,,,,,,,,,,,,,,,,,,,,,,,,,,,,,,,,,,,,,,,,,,,,,,,,,,,,,,,,,,,,,,,,,,,,,,,,,,,,,,,,,,,,,,,,,,,,,,,,,,,,,,,,,,,,,,,,,,,,,,,,,,,,,,,,,,,,,,,,,,,,,,,,,,,,,,,,,,,,,,,,
0,73,73,34,1,,615d9a0ef34a6a806fe6ba3e,62c539ca505ca495f1f3dbea,2022-07-06_10h29.59.056,Colour_Asymmetry_Pilot,2022.1.3,MacIntel,35.71428571,62c50e9c1127f2cd403a315f,,,,,,,,,,,,,,,,,,,,,,,,,,,,,,,,,,,,,,,,,,,,,,,,,,,,,,,,,,,,,,,,,,,,,,,,,,,,,,,,,,,,,,,,,,,,,,,,,,,,,,,,,,,,,,,,,,,,,,,,,,,,,,,,,,,,,,,,,,,,,,,,,,,,,,,,,,,,,,,,,,,,
0,74,74,85,1,,615d9a0ef34a6a806fe6ba3e,62c539ca505ca495f1f3dbea,2022-07-06_10h29.59.056,Colour_Asymmetry_Pilot,2022.1.3,MacIntel,35.71428571,62c50e9c1127f2cd403a315f,,,,,,,,,,,,,,,,,,,,,,,,,,,,,,,,,,,,,,,,,,,,,,,,,,,,,,,,,,,,,,,,,,,,,,,,,,,,,,,,,,,,,,,,,,,,,,,,,,,,,,,,,,,,,,,,,,,,,,,,,,,,,,,,,,,,,,,,,,,,,,,,,,,,,,,,,,,,,,,,,,,,
0,75,75,46,1,,615d9a0ef34a6a806fe6ba3e,62c539ca505ca495f1f3dbea,2022-07-06_10h29.59.056,Colour_Asymmetry_Pilot,2022.1.3,MacIntel,35.71428571,62c50e9c1127f2cd403a315f,,,,,,,,,,,,,,,,,,,,,,,,,,,,,,,,,,,,,,,,,,,,,,,,,,,,,,,,,,,,,,,,,,,,,,,,,,,,,,,,,,,,,,,,,,,,,,,,,,,,,,,,,,,,,,,,,,,,,,,,,,,,,,,,,,,,,,,,,,,,,,,,,,,,,,,,,,,,,,,,,,,,
0,76,76,92,1,,615d9a0ef34a6a806fe6ba3e,62c539ca505ca495f1f3dbea,2022-07-06_10h29.59.056,Colour_Asymmetry_Pilot,2022.1.3,MacIntel,35.71428571,62c50e9c1127f2cd403a315f,,,,,,,,,,,,,,,,,,,,,,,,,,,,,,,,,,,,,,,,,,,,,,,,,,,,,,,,,,,,,,,,,,,,,,,,,,,,,,,,,,,,,,,,,,,,,,,,,,,,,,,,,,,,,,,,,,,,,,,,,,,,,,,,,,,,,,,,,,,,,,,,,,,,,,,,,,,,,,,,,,,,
0,77,77,9,1,,615d9a0ef34a6a806fe6ba3e,62c539ca505ca495f1f3dbea,2022-07-06_10h29.59.056,Colour_Asymmetry_Pilot,2022.1.3,MacIntel,35.71428571,62c50e9c1127f2cd403a315f,,,,,,,,,,,,,,,,,,,,,,,,,,,,,,,,,,,,,,,,,,,,,,,,,,,,,,,,,,,,,,,,,,,,,,,,,,,,,,,,,,,,,,,,,,,,,,,,,,,,,,,,,,,,,,,,,,,,,,,,,,,,,,,,,,,,,,,,,,,,,,,,,,,,,,,,,,,,,,,,,,,,
0,78,78,32,1,,615d9a0ef34a6a806fe6ba3e,62c539ca505ca495f1f3dbea,2022-07-06_10h29.59.056,Colour_Asymmetry_Pilot,2022.1.3,MacIntel,35.71428571,62c50e9c1127f2cd403a315f,,,,,,,,,,,,,,,,,,,,,,,,,,,,,,,,,,,,,,,,,,,,,,,,,,,,,,,,,,,,,,,,,,,,,,,,,,,,,,,,,,,,,,,,,,,,,,,,,,,,,,,,,,,,,,,,,,,,,,,,,,,,,,,,,,,,,,,,,,,,,,,,,,,,,,,,,,,,,,,,,,,,
0,79,79,76,1,,615d9a0ef34a6a806fe6ba3e,62c539ca505ca495f1f3dbea,2022-07-06_10h29.59.056,Colour_Asymmetry_Pilot,2022.1.3,MacIntel,35.71428571,62c50e9c1127f2cd403a315f,,,,,,,,,,,,,,,,,,,,,,,,,,,,,,,,,,,,,,,,,,,,,,,,,,,,,,,,,,,,,,,,,,,,,,,,,,,,,,,,,,,,,,,,,,,,,,,,,,,,,,,,,,,,,,,,,,,,,,,,,,,,,,,,,,,,,,,,,,,,,,,,,,,,,,,,,,,,,,,,,,,,
0,80,80,16,1,,615d9a0ef34a6a806fe6ba3e,62c539ca505ca495f1f3dbea,2022-07-06_10h29.59.056,Colour_Asymmetry_Pilot,2022.1.3,MacIntel,35.71428571,62c50e9c1127f2cd403a315f,,,,,,,,,,,,,,,,,,,,,,,,,,,,,,,,,,,,,,,,,,,,,,,,,,,,,,,,,,,,,,,,,,,,,,,,,,,,,,,,,,,,,,,,,,,,,,,,,,,,,,,,,,,,,,,,,,,,,,,,,,,,,,,,,,,,,,,,,,,,,,,,,,,,,,,,,,,,,,,,,,,,
0,81,81,55,1,,615d9a0ef34a6a806fe6ba3e,62c539ca505ca495f1f3dbea,2022-07-06_10h29.59.056,Colour_Asymmetry_Pilot,2022.1.3,MacIntel,35.71428571,62c50e9c1127f2cd403a315f,,,,,,,,,,,,,,,,,,,,,,,,,,,,,,,,,,,,,,,,,,,,,,,,,,,,,,,,,,,,,,,,,,,,,,,,,,,,,,,,,,,,,,,,,,,,,,,,,,,,,,,,,,,,,,,,,,,,,,,,,,,,,,,,,,,,,,,,,,,,,,,,,,,,,,,,,,,,,,,,,,,,
0,82,82,51,1,,615d9a0ef34a6a806fe6ba3e,62c539ca505ca495f1f3dbea,2022-07-06_10h29.59.056,Colour_Asymmetry_Pilot,2022.1.3,MacIntel,35.71428571,62c50e9c1127f2cd403a315f,,,,,,,,,,,,,,,,,,,,,,,,,,,,,,,,,,,,,,,,,,,,,,,,,,,,,,,,,,,,,,,,,,,,,,,,,,,,,,,,,,,,,,,,,,,,,,,,,,,,,,,,,,,,,,,,,,,,,,,,,,,,,,,,,,,,,,,,,,,,,,,,,,,,,,,,,,,,,,,,,,,,
0,83,83,67,1,,615d9a0ef34a6a806fe6ba3e,62c539ca505ca495f1f3dbea,2022-07-06_10h29.59.056,Colour_Asymmetry_Pilot,2022.1.3,MacIntel,35.71428571,62c50e9c1127f2cd403a315f,,,,,,,,,,,,,,,,,,,,,,,,,,,,,,,,,,,,,,,,,,,,,,,,,,,,,,,,,,,,,,,,,,,,,,,,,,,,,,,,,,,,,,,,,,,,,,,,,,,,,,,,,,,,,,,,,,,,,,,,,,,,,,,,,,,,,,,,,,,,,,,,,,,,,,,,,,,,,,,,,,,,
0,84,84,31,1,,615d9a0ef34a6a806fe6ba3e,62c539ca505ca495f1f3dbea,2022-07-06_10h29.59.056,Colour_Asymmetry_Pilot,2022.1.3,MacIntel,35.71428571,62c50e9c1127f2cd403a315f,,,,,,,,,,,,,,,,,,,,,,,,,,,,,,,,,,,,,,,,,,,,,,,,,,,,,,,,,,,,,,,,,,,,,,,,,,,,,,,,,,,,,,,,,,,,,,,,,,,,,,,,,,,,,,,,,,,,,,,,,,,,,,,,,,,,,,,,,,,,,,,,,,,,,,,,,,,,,,,,,,,,
0,85,85,78,1,,615d9a0ef34a6a806fe6ba3e,62c539ca505ca495f1f3dbea,2022-07-06_10h29.59.056,Colour_Asymmetry_Pilot,2022.1.3,MacIntel,35.71428571,62c50e9c1127f2cd403a315f,,,,,,,,,,,,,,,,,,,,,,,,,,,,,,,,,,,,,,,,,,,,,,,,,,,,,,,,,,,,,,,,,,,,,,,,,,,,,,,,,,,,,,,,,,,,,,,,,,,,,,,,,,,,,,,,,,,,,,,,,,,,,,,,,,,,,,,,,,,,,,,,,,,,,,,,,,,,,,,,,,,,
0,86,86,23,1,,615d9a0ef34a6a806fe6ba3e,62c539ca505ca495f1f3dbea,2022-07-06_10h29.59.056,Colour_Asymmetry_Pilot,2022.1.3,MacIntel,35.71428571,62c50e9c1127f2cd403a315f,,,,,,,,,,,,,,,,,,,,,,,,,,,,,,,,,,,,,,,,,,,,,,,,,,,,,,,,,,,,,,,,,,,,,,,,,,,,,,,,,,,,,,,,,,,,,,,,,,,,,,,,,,,,,,,,,,,,,,,,,,,,,,,,,,,,,,,,,,,,,,,,,,,,,,,,,,,,,,,,,,,,
0,87,87,74,1,,615d9a0ef34a6a806fe6ba3e,62c539ca505ca495f1f3dbea,2022-07-06_10h29.59.056,Colour_Asymmetry_Pilot,2022.1.3,MacIntel,35.71428571,62c50e9c1127f2cd403a315f,,,,,,,,,,,,,,,,,,,,,,,,,,,,,,,,,,,,,,,,,,,,,,,,,,,,,,,,,,,,,,,,,,,,,,,,,,,,,,,,,,,,,,,,,,,,,,,,,,,,,,,,,,,,,,,,,,,,,,,,,,,,,,,,,,,,,,,,,,,,,,,,,,,,,,,,,,,,,,,,,,,,
0,88,88,14,1,,615d9a0ef34a6a806fe6ba3e,62c539ca505ca495f1f3dbea,2022-07-06_10h29.59.056,Colour_Asymmetry_Pilot,2022.1.3,MacIntel,35.71428571,62c50e9c1127f2cd403a315f,,,,,,,,,,,,,,,,,,,,,,,,,,,,,,,,,,,,,,,,,,,,,,,,,,,,,,,,,,,,,,,,,,,,,,,,,,,,,,,,,,,,,,,,,,,,,,,,,,,,,,,,,,,,,,,,,,,,,,,,,,,,,,,,,,,,,,,,,,,,,,,,,,,,,,,,,,,,,,,,,,,,
0,89,89,49,1,,615d9a0ef34a6a806fe6ba3e,62c539ca505ca495f1f3dbea,2022-07-06_10h29.59.056,Colour_Asymmetry_Pilot,2022.1.3,MacIntel,35.71428571,62c50e9c1127f2cd403a315f,,,,,,,,,,,,,,,,,,,,,,,,,,,,,,,,,,,,,,,,,,,,,,,,,,,,,,,,,,,,,,,,,,,,,,,,,,,,,,,,,,,,,,,,,,,,,,,,,,,,,,,,,,,,,,,,,,,,,,,,,,,,,,,,,,,,,,,,,,,,,,,,,,,,,,,,,,,,,,,,,,,,
0,90,90,2,1,,615d9a0ef34a6a806fe6ba3e,62c539ca505ca495f1f3dbea,2022-07-06_10h29.59.056,Colour_Asymmetry_Pilot,2022.1.3,MacIntel,35.71428571,62c50e9c1127f2cd403a315f,,,,,,,,,,,,,,,,,,,,,,,,,,,,,,,,,,,,,,,,,,,,,,,,,,,,,,,,,,,,,,,,,,,,,,,,,,,,,,,,,,,,,,,,,,,,,,,,,,,,,,,,,,,,,,,,,,,,,,,,,,,,,,,,,,,,,,,,,,,,,,,,,,,,,,,,,,,,,,,,,,,,
0,91,91,44,1,,615d9a0ef34a6a806fe6ba3e,62c539ca505ca495f1f3dbea,2022-07-06_10h29.59.056,Colour_Asymmetry_Pilot,2022.1.3,MacIntel,35.71428571,62c50e9c1127f2cd403a315f,,,,,,,,,,,,,,,,,,,,,,,,,,,,,,,,,,,,,,,,,,,,,,,,,,,,,,,,,,,,,,,,,,,,,,,,,,,,,,,,,,,,,,,,,,,,,,,,,,,,,,,,,,,,,,,,,,,,,,,,,,,,,,,,,,,,,,,,,,,,,,,,,,,,,,,,,,,,,,,,,,,,
0,92,92,1,1,,615d9a0ef34a6a806fe6ba3e,62c539ca505ca495f1f3dbea,2022-07-06_10h29.59.056,Colour_Asymmetry_Pilot,2022.1.3,MacIntel,35.71428571,62c50e9c1127f2cd403a315f,,,,,,,,,,,,,,,,,,,,,,,,,,,,,,,,,,,,,,,,,,,,,,,,,,,,,,,,,,,,,,,,,,,,,,,,,,,,,,,,,,,,,,,,,,,,,,,,,,,,,,,,,,,,,,,,,,,,,,,,,,,,,,,,,,,,,,,,,,,,,,,,,,,,,,,,,,,,,,,,,,,,
,,,,,,615d9a0ef34a6a806fe6ba3e,62c539ca505ca495f1f3dbea,2022-07-06_10h29.59.056,Colour_Asymmetry_Pilot,2022.1.3,MacIntel,35.71428571,62c50e9c1127f2cd403a315f,0,0,0,10,1,twoone,,,,,,,,,,,,,,,,,,,,,,,,,,,,,,,,,,,,,,,,,,,,,,,,,,,,,,,,,,,,,,,,,,,,,,,,,,,,,,,,,,,,,,,,,,,,,,,,,,,,,,,,,,,,,,,,,,,,,,,,,,,,,,,,,,,,,,,,,,,,,,,,,,,,,,,,,,,,,,
,,,,,,615d9a0ef34a6a806fe6ba3e,62c539ca505ca495f1f3dbea,2022-07-06_10h29.59.056,Colour_Asymmetry_Pilot,2022.1.3,MacIntel,35.71428571,62c50e9c1127f2cd403a315f,0,1,1,99,1,twofour,,,,,,,,,,,,,,,,,,,,,,,,,,,,,,,,,,,,,,,,,,,,,,,,,,,,,,,,,,,,,,,,,,,,,,,,,,,,,,,,,,,,,,,,,,,,,,,,,,,,,,,,,,,,,,,,,,,,,,,,,,,,,,,,,,,,,,,,,,,,,,,,,,,,,,,,,,,,,,
,,,,,,615d9a0ef34a6a806fe6ba3e,62c539ca505ca495f1f3dbea,2022-07-06_10h29.59.056,Colour_Asymmetry_Pilot,2022.1.3,MacIntel,35.71428571,62c50e9c1127f2cd403a315f,0,2,2,124,1,threeone,,,,,,,,,,,,,,,,,,,,,,,,,,,,,,,,,,,,,,,,,,,,,,,,,,,,,,,,,,,,,,,,,,,,,,,,,,,,,,,,,,,,,,,,,,,,,,,,,,,,,,,,,,,,,,,,,,,,,,,,,,,,,,,,,,,,,,,,,,,,,,,,,,,,,,,,,,,,,,
,,,,,,615d9a0ef34a6a806fe6ba3e,62c539ca505ca495f1f3dbea,2022-07-06_10h29.59.056,Colour_Asymmetry_Pilot,2022.1.3,MacIntel,35.71428571,62c50e9c1127f2cd403a315f,0,3,3,58,1,twoone,,,,,,,,,,,,,,,,,,,,,,,,,,,,,,,,,,,,,,,,,,,,,,,,,,,,,,,,,,,,,,,,,,,,,,,,,,,,,,,,,,,,,,,,,,,,,,,,,,,,,,,,,,,,,,,,,,,,,,,,,,,,,,,,,,,,,,,,,,,,,,,,,,,,,,,,,,,,,,
,,,,,,615d9a0ef34a6a806fe6ba3e,62c539ca505ca495f1f3dbea,2022-07-06_10h29.59.056,Colour_Asymmetry_Pilot,2022.1.3,MacIntel,35.71428571,62c50e9c1127f2cd403a315f,0,4,4,105,1,onethree,,,,,,,,,,,,,,,,,,,,,,,,,,,,,,,,,,,,,,,,,,,,,,,,,,,,,,,,,,,,,,,,,,,,,,,,,,,,,,,,,,,,,,,,,,,,,,,,,,,,,,,,,,,,,,,,,,,,,,,,,,,,,,,,,,,,,,,,,,,,,,,,,,,,,,,,,,,,,,
,,,,,,615d9a0ef34a6a806fe6ba3e,62c539ca505ca495f1f3dbea,2022-07-06_10h29.59.056,Colour_Asymmetry_Pilot,2022.1.3,MacIntel,35.71428571,62c50e9c1127f2cd403a315f,0,5,5,75,1,twofour,,,,,,,,,,,,,,,,,,,,,,,,,,,,,,,,,,,,,,,,,,,,,,,,,,,,,,,,,,,,,,,,,,,,,,,,,,,,,,,,,,,,,,,,,,,,,,,,,,,,,,,,,,,,,,,,,,,,,,,,,,,,,,,,,,,,,,,,,,,,,,,,,,,,,,,,,,,,,,
,,,,,,615d9a0ef34a6a806fe6ba3e,62c539ca505ca495f1f3dbea,2022-07-06_10h29.59.056,Colour_Asymmetry_Pilot,2022.1.3,MacIntel,35.71428571,62c50e9c1127f2cd403a315f,0,6,6,110,1,fourtwo,,,,,,,,,,,,,,,,,,,,,,,,,,,,,,,,,,,,,,,,,,,,,,,,,,,,,,,,,,,,,,,,,,,,,,,,,,,,,,,,,,,,,,,,,,,,,,,,,,,,,,,,,,,,,,,,,,,,,,,,,,,,,,,,,,,,,,,,,,,,,,,,,,,,,,,,,,,,,,
,,,,,,615d9a0ef34a6a806fe6ba3e,62c539ca505ca495f1f3dbea,2022-07-06_10h29.59.056,Colour_Asymmetry_Pilot,2022.1.3,MacIntel,35.71428571,62c50e9c1127f2cd403a315f,0,7,7,136,1,onetwo,,,,,,,,,,,,,,,,,,,,,,,,,,,,,,,,,,,,,,,,,,,,,,,,,,,,,,,,,,,,,,,,,,,,,,,,,,,,,,,,,,,,,,,,,,,,,,,,,,,,,,,,,,,,,,,,,,,,,,,,,,,,,,,,,,,,,,,,,,,,,,,,,,,,,,,,,,,,,,
,,,,,,615d9a0ef34a6a806fe6ba3e,62c539ca505ca495f1f3dbea,2022-07-06_10h29.59.056,Colour_Asymmetry_Pilot,2022.1.3,MacIntel,35.71428571,62c50e9c1127f2cd403a315f,0,8,8,55,1,fourthree,,,,,,,,,,,,,,,,,,,,,,,,,,,,,,,,,,,,,,,,,,,,,,,,,,,,,,,,,,,,,,,,,,,,,,,,,,,,,,,,,,,,,,,,,,,,,,,,,,,,,,,,,,,,,,,,,,,,,,,,,,,,,,,,,,,,,,,,,,,,,,,,,,,,,,,,,,,,,,
,,,,,,615d9a0ef34a6a806fe6ba3e,62c539ca505ca495f1f3dbea,2022-07-06_10h29.59.056,Colour_Asymmetry_Pilot,2022.1.3,MacIntel,35.71428571,62c50e9c1127f2cd403a315f,0,9,9,104,1,onetwo,,,,,,,,,,,,,,,,,,,,,,,,,,,,,,,,,,,,,,,,,,,,,,,,,,,,,,,,,,,,,,,,,,,,,,,,,,,,,,,,,,,,,,,,,,,,,,,,,,,,,,,,,,,,,,,,,,,,,,,,,,,,,,,,,,,,,,,,,,,,,,,,,,,,,,,,,,,,,,
,,,,,,615d9a0ef34a6a806fe6ba3e,62c539ca505ca495f1f3dbea,2022-07-06_10h29.59.056,Colour_Asymmetry_Pilot,2022.1.3,MacIntel,35.71428571,62c50e9c1127f2cd403a315f,0,10,10,63,1,fourthree,,,,,,,,,,,,,,,,,,,,,,,,,,,,,,,,,,,,,,,,,,,,,,,,,,,,,,,,,,,,,,,,,,,,,,,,,,,,,,,,,,,,,,,,,,,,,,,,,,,,,,,,,,,,,,,,,,,,,,,,,,,,,,,,,,,,,,,,,,,,,,,,,,,,,,,,,,,,,,
,,,,,,615d9a0ef34a6a806fe6ba3e,62c539ca505ca495f1f3dbea,2022-07-06_10h29.59.056,Colour_Asymmetry_Pilot,2022.1.3,MacIntel,35.71428571,62c50e9c1127f2cd403a315f,0,11,11,118,1,fourtwo,,,,,,,,,,,,,,,,,,,,,,,,,,,,,,,,,,,,,,,,,,,,,,,,,,,,,,,,,,,,,,,,,,,,,,,,,,,,,,,,,,,,,,,,,,,,,,,,,,,,,,,,,,,,,,,,,,,,,,,,,,,,,,,,,,,,,,,,,,,,,,,,,,,,,,,,,,,,,,
,,,,,,615d9a0ef34a6a806fe6ba3e,62c539ca505ca495f1f3dbea,2022-07-06_10h29.59.056,Colour_Asymmetry_Pilot,2022.1.3,MacIntel,35.71428571,62c50e9c1127f2cd403a315f,0,12,12,2,1,twoone,,,,,,,,,,,,,,,,,,,,,,,,,,,,,,,,,,,,,,,,,,,,,,,,,,,,,,,,,,,,,,,,,,,,,,,,,,,,,,,,,,,,,,,,,,,,,,,,,,,,,,,,,,,,,,,,,,,,,,,,,,,,,,,,,,,,,,,,,,,,,,,,,,,,,,,,,,,,,,
,,,,,,615d9a0ef34a6a806fe6ba3e,62c539ca505ca495f1f3dbea,2022-07-06_10h29.59.056,Colour_Asymmetry_Pilot,2022.1.3,MacIntel,35.71428571,62c50e9c1127f2cd403a315f,0,13,13,54,1,fourtwo,,,,,,,,,,,,,,,,,,,,,,,,,,,,,,,,,,,,,,,,,,,,,,,,,,,,,,,,,,,,,,,,,,,,,,,,,,,,,,,,,,,,,,,,,,,,,,,,,,,,,,,,,,,,,,,,,,,,,,,,,,,,,,,,,,,,,,,,,,,,,,,,,,,,,,,,,,,,,,
,,,,,,615d9a0ef34a6a806fe6ba3e,62c539ca505ca495f1f3dbea,2022-07-06_10h29.59.056,Colour_Asymmetry_Pilot,2022.1.3,MacIntel,35.71428571,62c50e9c1127f2cd403a315f,0,14,14,123,1,twofour,,,,,,,,,,,,,,,,,,,,,,,,,,,,,,,,,,,,,,,,,,,,,,,,,,,,,,,,,,,,,,,,,,,,,,,,,,,,,,,,,,,,,,,,,,,,,,,,,,,,,,,,,,,,,,,,,,,,,,,,,,,,,,,,,,,,,,,,,,,,,,,,,,,,,,,,,,,,,,
,,,,,,615d9a0ef34a6a806fe6ba3e,62c539ca505ca495f1f3dbea,2022-07-06_10h29.59.056,Colour_Asymmetry_Pilot,2022.1.3,MacIntel,35.71428571,62c50e9c1127f2cd403a315f,0,15,15,145,1,onethree,,,,,,,,,,,,,,,,,,,,,,,,,,,,,,,,,,,,,,,,,,,,,,,,,,,,,,,,,,,,,,,,,,,,,,,,,,,,,,,,,,,,,,,,,,,,,,,,,,,,,,,,,,,,,,,,,,,,,,,,,,,,,,,,,,,,,,,,,,,,,,,,,,,,,,,,,,,,,,
,,,,,,615d9a0ef34a6a806fe6ba3e,62c539ca505ca495f1f3dbea,2022-07-06_10h29.59.056,Colour_Asymmetry_Pilot,2022.1.3,MacIntel,35.71428571,62c50e9c1127f2cd403a315f,0,16,16,15,1,fourthree,,,,,,,,,,,,,,,,,,,,,,,,,,,,,,,,,,,,,,,,,,,,,,,,,,,,,,,,,,,,,,,,,,,,,,,,,,,,,,,,,,,,,,,,,,,,,,,,,,,,,,,,,,,,,,,,,,,,,,,,,,,,,,,,,,,,,,,,,,,,,,,,,,,,,,,,,,,,,,
,,,,,,615d9a0ef34a6a806fe6ba3e,62c539ca505ca495f1f3dbea,2022-07-06_10h29.59.056,Colour_Asymmetry_Pilot,2022.1.3,MacIntel,35.71428571,62c50e9c1127f2cd403a315f,0,17,17,39,1,fourthree,,,,,,,,,,,,,,,,,,,,,,,,,,,,,,,,,,,,,,,,,,,,,,,,,,,,,,,,,,,,,,,,,,,,,,,,,,,,,,,,,,,,,,,,,,,,,,,,,,,,,,,,,,,,,,,,,,,,,,,,,,,,,,,,,,,,,,,,,,,,,,,,,,,,,,,,,,,,,,
,,,,,,615d9a0ef34a6a806fe6ba3e,62c539ca505ca495f1f3dbea,2022-07-06_10h29.59.056,Colour_Asymmetry_Pilot,2022.1.3,MacIntel,35.71428571,62c50e9c1127f2cd403a315f,0,18,18,56,1,onetwo,,,,,,,,,,,,,,,,,,,,,,,,,,,,,,,,,,,,,,,,,,,,,,,,,,,,,,,,,,,,,,,,,,,,,,,,,,,,,,,,,,,,,,,,,,,,,,,,,,,,,,,,,,,,,,,,,,,,,,,,,,,,,,,,,,,,,,,,,,,,,,,,,,,,,,,,,,,,,,
,,,,,,615d9a0ef34a6a806fe6ba3e,62c539ca505ca495f1f3dbea,2022-07-06_10h29.59.056,Colour_Asymmetry_Pilot,2022.1.3,MacIntel,35.71428571,62c50e9c1127f2cd403a315f,0,19,19,113,1,onethree,,,,,,,,,,,,,,,,,,,,,,,,,,,,,,,,,,,,,,,,,,,,,,,,,,,,,,,,,,,,,,,,,,,,,,,,,,,,,,,,,,,,,,,,,,,,,,,,,,,,,,,,,,,,,,,,,,,,,,,,,,,,,,,,,,,,,,,,,,,,,,,,,,,,,,,,,,,,,,
,,,,,,615d9a0ef34a6a806fe6ba3e,62c539ca505ca495f1f3dbea,2022-07-06_10h29.59.056,Colour_Asymmetry_Pilot,2022.1.3,MacIntel,35.71428571,62c50e9c1127f2cd403a315f,0,20,20,29,1,threefour,,,,,,,,,,,,,,,,,,,,,,,,,,,,,,,,,,,,,,,,,,,,,,,,,,,,,,,,,,,,,,,,,,,,,,,,,,,,,,,,,,,,,,,,,,,,,,,,,,,,,,,,,,,,,,,,,,,,,,,,,,,,,,,,,,,,,,,,,,,,,,,,,,,,,,,,,,,,,,
,,,,,,615d9a0ef34a6a806fe6ba3e,62c539ca505ca495f1f3dbea,2022-07-06_10h29.59.056,Colour_Asymmetry_Pilot,2022.1.3,MacIntel,35.71428571,62c50e9c1127f2cd403a315f,0,21,21,155,1,twofour,,,,,,,,,,,,,,,,,,,,,,,,,,,,,,,,,,,,,,,,,,,,,,,,,,,,,,,,,,,,,,,,,,,,,,,,,,,,,,,,,,,,,,,,,,,,,,,,,,,,,,,,,,,,,,,,,,,,,,,,,,,,,,,,,,,,,,,,,,,,,,,,,,,,,,,,,,,,,,
,,,,,,615d9a0ef34a6a806fe6ba3e,62c539ca505ca495f1f3dbea,2022-07-06_10h29.59.056,Colour_Asymmetry_Pilot,2022.1.3,MacIntel,35.71428571,62c50e9c1127f2cd403a315f,0,22,22,67,1,twofour,,,,,,,,,,,,,,,,,,,,,,,,,,,,,,,,,,,,,,,,,,,,,,,,,,,,,,,,,,,,,,,,,,,,,,,,,,,,,,,,,,,,,,,,,,,,,,,,,,,,,,,,,,,,,,,,,,,,,,,,,,,,,,,,,,,,,,,,,,,,,,,,,,,,,,,,,,,,,,
,,,,,,615d9a0ef34a6a806fe6ba3e,62c539ca505ca495f1f3dbea,2022-07-06_10h29.59.056,Colour_Asymmetry_Pilot,2022.1.3,MacIntel,35.71428571,62c50e9c1127f2cd403a315f,0,23,23,65,1,onethree,,,,,,,,,,,,,,,,,,,,,,,,,,,,,,,,,,,,,,,,,,,,,,,,,,,,,,,,,,,,,,,,,,,,,,,,,,,,,,,,,,,,,,,,,,,,,,,,,,,,,,,,,,,,,,,,,,,,,,,,,,,,,,,,,,,,,,,,,,,,,,,,,,,,,,,,,,,,,,
,,,,,,615d9a0ef34a6a806fe6ba3e,62c539ca505ca495f1f3dbea,2022-07-06_10h29.59.056,Colour_Asymmetry_Pilot,2022.1.3,MacIntel,35.71428571,62c50e9c1127f2cd403a315f,0,24,24,30,1,fourtwo,,,,,,,,,,,,,,,,,,,,,,,,,,,,,,,,,,,,,,,,,,,,,,,,,,,,,,,,,,,,,,,,,,,,,,,,,,,,,,,,,,,,,,,,,,,,,,,,,,,,,,,,,,,,,,,,,,,,,,,,,,,,,,,,,,,,,,,,,,,,,,,,,,,,,,,,,,,,,,
,,,,,,615d9a0ef34a6a806fe6ba3e,62c539ca505ca495f1f3dbea,2022-07-06_10h29.59.056,Colour_Asymmetry_Pilot,2022.1.3,MacIntel,35.71428571,62c50e9c1127f2cd403a315f,0,25,25,79,1,fourthree,,,,,,,,,,,,,,,,,,,,,,,,,,,,,,,,,,,,,,,,,,,,,,,,,,,,,,,,,,,,,,,,,,,,,,,,,,,,,,,,,,,,,,,,,,,,,,,,,,,,,,,,,,,,,,,,,,,,,,,,,,,,,,,,,,,,,,,,,,,,,,,,,,,,,,,,,,,,,,
,,,,,,615d9a0ef34a6a806fe6ba3e,62c539ca505ca495f1f3dbea,2022-07-06_10h29.59.056,Colour_Asymmetry_Pilot,2022.1.3,MacIntel,35.71428571,62c50e9c1127f2cd403a315f,0,26,26,11,1,twofour,,,,,,,,,,,,,,,,,,,,,,,,,,,,,,,,,,,,,,,,,,,,,,,,,,,,,,,,,,,,,,,,,,,,,,,,,,,,,,,,,,,,,,,,,,,,,,,,,,,,,,,,,,,,,,,,,,,,,,,,,,,,,,,,,,,,,,,,,,,,,,,,,,,,,,,,,,,,,,
,,,,,,615d9a0ef34a6a806fe6ba3e,62c539ca505ca495f1f3dbea,2022-07-06_10h29.59.056,Colour_Asymmetry_Pilot,2022.1.3,MacIntel,35.71428571,62c50e9c1127f2cd403a315f,0,27,27,52,1,threeone,,,,,,,,,,,,,,,,,,,,,,,,,,,,,,,,,,,,,,,,,,,,,,,,,,,,,,,,,,,,,,,,,,,,,,,,,,,,,,,,,,,,,,,,,,,,,,,,,,,,,,,,,,,,,,,,,,,,,,,,,,,,,,,,,,,,,,,,,,,,,,,,,,,,,,,,,,,,,,
,,,,,,615d9a0ef34a6a806fe6ba3e,62c539ca505ca495f1f3dbea,2022-07-06_10h29.59.056,Colour_Asymmetry_Pilot,2022.1.3,MacIntel,35.71428571,62c50e9c1127f2cd403a315f,0,28,28,42,1,twoone,,,,,,,,,,,,,,,,,,,,,,,,,,,,,,,,,,,,,,,,,,,,,,,,,,,,,,,,,,,,,,,,,,,,,,,,,,,,,,,,,,,,,,,,,,,,,,,,,,,,,,,,,,,,,,,,,,,,,,,,,,,,,,,,,,,,,,,,,,,,,,,,,,,,,,,,,,,,,,
,,,,,,615d9a0ef34a6a806fe6ba3e,62c539ca505ca495f1f3dbea,2022-07-06_10h29.59.056,Colour_Asymmetry_Pilot,2022.1.3,MacIntel,35.71428571,62c50e9c1127f2cd403a315f,0,29,29,132,1,threeone,,,,,,,,,,,,,,,,,,,,,,,,,,,,,,,,,,,,,,,,,,,,,,,,,,,,,,,,,,,,,,,,,,,,,,,,,,,,,,,,,,,,,,,,,,,,,,,,,,,,,,,,,,,,,,,,,,,,,,,,,,,,,,,,,,,,,,,,,,,,,,,,,,,,,,,,,,,,,,
,,,,,,615d9a0ef34a6a806fe6ba3e,62c539ca505ca495f1f3dbea,2022-07-06_10h29.59.056,Colour_Asymmetry_Pilot,2022.1.3,MacIntel,35.71428571,62c50e9c1127f2cd403a315f,0,30,30,14,1,fourtwo,,,,,,,,,,,,,,,,,,,,,,,,,,,,,,,,,,,,,,,,,,,,,,,,,,,,,,,,,,,,,,,,,,,,,,,,,,,,,,,,,,,,,,,,,,,,,,,,,,,,,,,,,,,,,,,,,,,,,,,,,,,,,,,,,,,,,,,,,,,,,,,,,,,,,,,,,,,,,,
,,,,,,615d9a0ef34a6a806fe6ba3e,62c539ca505ca495f1f3dbea,2022-07-06_10h29.59.056,Colour_Asymmetry_Pilot,2022.1.3,MacIntel,35.71428571,62c50e9c1127f2cd403a315f,0,31,31,88,1,onetwo,,,,,,,,,,,,,,,,,,,,,,,,,,,,,,,,,,,,,,,,,,,,,,,,,,,,,,,,,,,,,,,,,,,,,,,,,,,,,,,,,,,,,,,,,,,,,,,,,,,,,,,,,,,,,,,,,,,,,,,,,,,,,,,,,,,,,,,,,,,,,,,,,,,,,,,,,,,,,,
,,,,,,615d9a0ef34a6a806fe6ba3e,62c539ca505ca495f1f3dbea,2022-07-06_10h29.59.056,Colour_Asymmetry_Pilot,2022.1.3,MacIntel,35.71428571,62c50e9c1127f2cd403a315f,0,32,32,64,1,onetwo,,,,,,,,,,,,,,,,,,,,,,,,,,,,,,,,,,,,,,,,,,,,,,,,,,,,,,,,,,,,,,,,,,,,,,,,,,,,,,,,,,,,,,,,,,,,,,,,,,,,,,,,,,,,,,,,,,,,,,,,,,,,,,,,,,,,,,,,,,,,,,,,,,,,,,,,,,,,,,
,,,,,,615d9a0ef34a6a806fe6ba3e,62c539ca505ca495f1f3dbea,2022-07-06_10h29.59.056,Colour_Asymmetry_Pilot,2022.1.3,MacIntel,35.71428571,62c50e9c1127f2cd403a315f,0,33,33,8,1,onetwo,,,,,,,,,,,,,,,,,,,,,,,,,,,,,,,,,,,,,,,,,,,,,,,,,,,,,,,,,,,,,,,,,,,,,,,,,,,,,,,,,,,,,,,,,,,,,,,,,,,,,,,,,,,,,,,,,,,,,,,,,,,,,,,,,,,,,,,,,,,,,,,,,,,,,,,,,,,,,,
,,,,,,615d9a0ef34a6a806fe6ba3e,62c539ca505ca495f1f3dbea,2022-07-06_10h29.59.056,Colour_Asymmetry_Pilot,2022.1.3,MacIntel,35.71428571,62c50e9c1127f2cd403a315f,0,34,34,115,1,twofour,,,,,,,,,,,,,,,,,,,,,,,,,,,,,,,,,,,,,,,,,,,,,,,,,,,,,,,,,,,,,,,,,,,,,,,,,,,,,,,,,,,,,,,,,,,,,,,,,,,,,,,,,,,,,,,,,,,,,,,,,,,,,,,,,,,,,,,,,,,,,,,,,,,,,,,,,,,,,,
,,,,,,615d9a0ef34a6a806fe6ba3e,62c539ca505ca495f1f3dbea,2022-07-06_10h29.59.056,Colour_Asymmetry_Pilot,2022.1.3,MacIntel,35.71428571,62c50e9c1127f2cd403a315f,0,35,35,143,1,fourthree,,,,,,,,,,,,,,,,,,,,,,,,,,,,,,,,,,,,,,,,,,,,,,,,,,,,,,,,,,,,,,,,,,,,,,,,,,,,,,,,,,,,,,,,,,,,,,,,,,,,,,,,,,,,,,,,,,,,,,,,,,,,,,,,,,,,,,,,,,,,,,,,,,,,,,,,,,,,,,
,,,,,,615d9a0ef34a6a806fe6ba3e,62c539ca505ca495f1f3dbea,2022-07-06_10h29.59.056,Colour_Asymmetry_Pilot,2022.1.3,MacIntel,35.71428571,62c50e9c1127f2cd403a315f,0,36,36,3,1,twofour,,,,,,,,,,,,,,,,,,,,,,,,,,,,,,,,,,,,,,,,,,,,,,,,,,,,,,,,,,,,,,,,,,,,,,,,,,,,,,,,,,,,,,,,,,,,,,,,,,,,,,,,,,,,,,,,,,,,,,,,,,,,,,,,,,,,,,,,,,,,,,,,,,,,,,,,,,,,,,
,,,,,,615d9a0ef34a6a806fe6ba3e,62c539ca505ca495f1f3dbea,2022-07-06_10h29.59.056,Colour_Asymmetry_Pilot,2022.1.3,MacIntel,35.71428571,62c50e9c1127f2cd403a315f,0,37,37,25,1,onethree,,,,,,,,,,,,,,,,,,,,,,,,,,,,,,,,,,,,,,,,,,,,,,,,,,,,,,,,,,,,,,,,,,,,,,,,,,,,,,,,,,,,,,,,,,,,,,,,,,,,,,,,,,,,,,,,,,,,,,,,,,,,,,,,,,,,,,,,,,,,,,,,,,,,,,,,,,,,,,
,,,,,,615d9a0ef34a6a806fe6ba3e,62c539ca505ca495f1f3dbea,2022-07-06_10h29.59.056,Colour_Asymmetry_Pilot,2022.1.3,MacIntel,35.71428571,62c50e9c1127f2cd403a315f,0,38,38,148,1,threeone,,,,,,,,,,,,,,,,,,,,,,,,,,,,,,,,,,,,,,,,,,,,,,,,,,,,,,,,,,,,,,,,,,,,,,,,,,,,,,,,,,,,,,,,,,,,,,,,,,,,,,,,,,,,,,,,,,,,,,,,,,,,,,,,,,,,,,,,,,,,,,,,,,,,,,,,,,,,,,
,,,,,,615d9a0ef34a6a806fe6ba3e,62c539ca505ca495f1f3dbea,2022-07-06_10h29.59.056,Colour_Asymmetry_Pilot,2022.1.3,MacIntel,35.71428571,62c50e9c1127f2cd403a315f,0,39,39,130,1,twoone,,,,,,,,,,,,,,,,,,,,,,,,,,,,,,,,,,,,,,,,,,,,,,,,,,,,,,,,,,,,,,,,,,,,,,,,,,,,,,,,,,,,,,,,,,,,,,,,,,,,,,,,,,,,,,,,,,,,,,,,,,,,,,,,,,,,,,,,,,,,,,,,,,,,,,,,,,,,,,
,,,,,,615d9a0ef34a6a806fe6ba3e,62c539ca505ca495f1f3dbea,2022-07-06_10h29.59.056,Colour_Asymmetry_Pilot,2022.1.3,MacIntel,35.71428571,62c50e9c1127f2cd403a315f,0,40,40,102,1,fourtwo,,,,,,,,,,,,,,,,,,,,,,,,,,,,,,,,,,,,,,,,,,,,,,,,,,,,,,,,,,,,,,,,,,,,,,,,,,,,,,,,,,,,,,,,,,,,,,,,,,,,,,,,,,,,,,,,,,,,,,,,,,,,,,,,,,,,,,,,,,,,,,,,,,,,,,,,,,,,,,
,,,,,,615d9a0ef34a6a806fe6ba3e,62c539ca505ca495f1f3dbea,2022-07-06_10h29.59.056,Colour_Asymmetry_Pilot,2022.1.3,MacIntel,35.71428571,62c50e9c1127f2cd403a315f,0,41,41,33,1,onethree,,,,,,,,,,,,,,,,,,,,,,,,,,,,,,,,,,,,,,,,,,,,,,,,,,,,,,,,,,,,,,,,,,,,,,,,,,,,,,,,,,,,,,,,,,,,,,,,,,,,,,,,,,,,,,,,,,,,,,,,,,,,,,,,,,,,,,,,,,,,,,,,,,,,,,,,,,,,,,
,,,,,,615d9a0ef34a6a806fe6ba3e,62c539ca505ca495f1f3dbea,2022-07-06_10h29.59.056,Colour_Asymmetry_Pilot,2022.1.3,MacIntel,35.71428571,62c50e9c1127f2cd403a315f,0,42,42,119,1,fourthree,,,,,,,,,,,,,,,,,,,,,,,,,,,,,,,,,,,,,,,,,,,,,,,,,,,,,,,,,,,,,,,,,,,,,,,,,,,,,,,,,,,,,,,,,,,,,,,,,,,,,,,,,,,,,,,,,,,,,,,,,,,,,,,,,,,,,,,,,,,,,,,,,,,,,,,,,,,,,,
,,,,,,615d9a0ef34a6a806fe6ba3e,62c539ca505ca495f1f3dbea,2022-07-06_10h29.59.056,Colour_Asymmetry_Pilot,2022.1.3,MacIntel,35.71428571,62c50e9c1127f2cd403a315f,0,43,43,140,1,threeone,,,,,,,,,,,,,,,,,,,,,,,,,,,,,,,,,,,,,,,,,,,,,,,,,,,,,,,,,,,,,,,,,,,,,,,,,,,,,,,,,,,,,,,,,,,,,,,,,,,,,,,,,,,,,,,,,,,,,,,,,,,,,,,,,,,,,,,,,,,,,,,,,,,,,,,,,,,,,,
,,,,,,615d9a0ef34a6a806fe6ba3e,62c539ca505ca495f1f3dbea,2022-07-06_10h29.59.056,Colour_Asymmetry_Pilot,2022.1.3,MacIntel,35.71428571,62c50e9c1127f2cd403a315f,0,44,44,134,1,fourtwo,,,,,,,,,,,,,,,,,,,,,,,,,,,,,,,,,,,,,,,,,,,,,,,,,,,,,,,,,,,,,,,,,,,,,,,,,,,,,,,,,,,,,,,,,,,,,,,,,,,,,,,,,,,,,,,,,,,,,,,,,,,,,,,,,,,,,,,,,,,,,,,,,,,,,,,,,,,,,,
,,,,,,615d9a0ef34a6a806fe6ba3e,62c539ca505ca495f1f3dbea,2022-07-06_10h29.59.056,Colour_Asymmetry_Pilot,2022.1.3,MacIntel,35.71428571,62c50e9c1127f2cd403a315f,0,45,45,125,1,threefour,,,,,,,,,,,,,,,,,,,,,,,,,,,,,,,,,,,,,,,,,,,,,,,,,,,,,,,,,,,,,,,,,,,,,,,,,,,,,,,,,,,,,,,,,,,,,,,,,,,,,,,,,,,,,,,,,,,,,,,,,,,,,,,,,,,,,,,,,,,,,,,,,,,,,,,,,,,,,,
,,,,,,615d9a0ef34a6a806fe6ba3e,62c539ca505ca495f1f3dbea,2022-07-06_10h29.59.056,Colour_Asymmetry_Pilot,2022.1.3,MacIntel,35.71428571,62c50e9c1127f2cd403a315f,0,46,46,70,1,fourtwo,,,,,,,,,,,,,,,,,,,,,,,,,,,,,,,,,,,,,,,,,,,,,,,,,,,,,,,,,,,,,,,,,,,,,,,,,,,,,,,,,,,,,,,,,,,,,,,,,,,,,,,,,,,,,,,,,,,,,,,,,,,,,,,,,,,,,,,,,,,,,,,,,,,,,,,,,,,,,,
,,,,,,615d9a0ef34a6a806fe6ba3e,62c539ca505ca495f1f3dbea,2022-07-06_10h29.59.056,Colour_Asymmetry_Pilot,2022.1.3,MacIntel,35.71428571,62c50e9c1127f2cd403a315f,0,47,47,61,1,threefour,,,,,,,,,,,,,,,,,,,,,,,,,,,,,,,,,,,,,,,,,,,,,,,,,,,,,,,,,,,,,,,,,,,,,,,,,,,,,,,,,,,,,,,,,,,,,,,,,,,,,,,,,,,,,,,,,,,,,,,,,,,,,,,,,,,,,,,,,,,,,,,,,,,,,,,,,,,,,,
,,,,,,615d9a0ef34a6a806fe6ba3e,62c539ca505ca495f1f3dbea,2022-07-06_10h29.59.056,Colour_Asymmetry_Pilot,2022.1.3,MacIntel,35.71428571,62c50e9c1127f2cd403a315f,0,48,48,151,1,fourthree,,,,,,,,,,,,,,,,,,,,,,,,,,,,,,,,,,,,,,,,,,,,,,,,,,,,,,,,,,,,,,,,,,,,,,,,,,,,,,,,,,,,,,,,,,,,,,,,,,,,,,,,,,,,,,,,,,,,,,,,,,,,,,,,,,,,,,,,,,,,,,,,,,,,,,,,,,,,,,
,,,,,,615d9a0ef34a6a806fe6ba3e,62c539ca505ca495f1f3dbea,2022-07-06_10h29.59.056,Colour_Asymmetry_Pilot,2022.1.3,MacIntel,35.71428571,62c50e9c1127f2cd403a315f,0,49,49,152,1,onetwo,,,,,,,,,,,,,,,,,,,,,,,,,,,,,,,,,,,,,,,,,,,,,,,,,,,,,,,,,,,,,,,,,,,,,,,,,,,,,,,,,,,,,,,,,,,,,,,,,,,,,,,,,,,,,,,,,,,,,,,,,,,,,,,,,,,,,,,,,,,,,,,,,,,,,,,,,,,,,,
,,,,,,615d9a0ef34a6a806fe6ba3e,62c539ca505ca495f1f3dbea,2022-07-06_10h29.59.056,Colour_Asymmetry_Pilot,2022.1.3,MacIntel,35.71428571,62c50e9c1127f2cd403a315f,0,50,50,27,1,twofour,,,,,,,,,,,,,,,,,,,,,,,,,,,,,,,,,,,,,,,,,,,,,,,,,,,,,,,,,,,,,,,,,,,,,,,,,,,,,,,,,,,,,,,,,,,,,,,,,,,,,,,,,,,,,,,,,,,,,,,,,,,,,,,,,,,,,,,,,,,,,,,,,,,,,,,,,,,,,,
,,,,,,615d9a0ef34a6a806fe6ba3e,62c539ca505ca495f1f3dbea,2022-07-06_10h29.59.056,Colour_Asymmetry_Pilot,2022.1.3,MacIntel,35.71428571,62c50e9c1127f2cd403a315f,0,51,51,57,1,onethree,,,,,,,,,,,,,,,,,,,,,,,,,,,,,,,,,,,,,,,,,,,,,,,,,,,,,,,,,,,,,,,,,,,,,,,,,,,,,,,,,,,,,,,,,,,,,,,,,,,,,,,,,,,,,,,,,,,,,,,,,,,,,,,,,,,,,,,,,,,,,,,,,,,,,,,,,,,,,,
,,,,,,615d9a0ef34a6a806fe6ba3e,62c539ca505ca495f1f3dbea,2022-07-06_10h29.59.056,Colour_Asymmetry_Pilot,2022.1.3,MacIntel,35.71428571,62c50e9c1127f2cd403a315f,0,52,52,153,1,onethree,,,,,,,,,,,,,,,,,,,,,,,,,,,,,,,,,,,,,,,,,,,,,,,,,,,,,,,,,,,,,,,,,,,,,,,,,,,,,,,,,,,,,,,,,,,,,,,,,,,,,,,,,,,,,,,,,,,,,,,,,,,,,,,,,,,,,,,,,,,,,,,,,,,,,,,,,,,,,,
,,,,,,615d9a0ef34a6a806fe6ba3e,62c539ca505ca495f1f3dbea,2022-07-06_10h29.59.056,Colour_Asymmetry_Pilot,2022.1.3,MacIntel,35.71428571,62c50e9c1127f2cd403a315f,0,53,53,6,1,fourtwo,,,,,,,,,,,,,,,,,,,,,,,,,,,,,,,,,,,,,,,,,,,,,,,,,,,,,,,,,,,,,,,,,,,,,,,,,,,,,,,,,,,,,,,,,,,,,,,,,,,,,,,,,,,,,,,,,,,,,,,,,,,,,,,,,,,,,,,,,,,,,,,,,,,,,,,,,,,,,,
,,,,,,615d9a0ef34a6a806fe6ba3e,62c539ca505ca495f1f3dbea,2022-07-06_10h29.59.056,Colour_Asymmetry_Pilot,2022.1.3,MacIntel,35.71428571,62c50e9c1127f2cd403a315f,0,54,54,86,1,fourtwo,,,,,,,,,,,,,,,,,,,,,,,,,,,,,,,,,,,,,,,,,,,,,,,,,,,,,,,,,,,,,,,,,,,,,,,,,,,,,,,,,,,,,,,,,,,,,,,,,,,,,,,,,,,,,,,,,,,,,,,,,,,,,,,,,,,,,,,,,,,,,,,,,,,,,,,,,,,,,,
,,,,,,615d9a0ef34a6a806fe6ba3e,62c539ca505ca495f1f3dbea,2022-07-06_10h29.59.056,Colour_Asymmetry_Pilot,2022.1.3,MacIntel,35.71428571,62c50e9c1127f2cd403a315f,0,55,55,81,1,onethree,,,,,,,,,,,,,,,,,,,,,,,,,,,,,,,,,,,,,,,,,,,,,,,,,,,,,,,,,,,,,,,,,,,,,,,,,,,,,,,,,,,,,,,,,,,,,,,,,,,,,,,,,,,,,,,,,,,,,,,,,,,,,,,,,,,,,,,,,,,,,,,,,,,,,,,,,,,,,,
,,,,,,615d9a0ef34a6a806fe6ba3e,62c539ca505ca495f1f3dbea,2022-07-06_10h29.59.056,Colour_Asymmetry_Pilot,2022.1.3,MacIntel,35.71428571,62c50e9c1127f2cd403a315f,0,56,56,34,1,twoone,,,,,,,,,,,,,,,,,,,,,,,,,,,,,,,,,,,,,,,,,,,,,,,,,,,,,,,,,,,,,,,,,,,,,,,,,,,,,,,,,,,,,,,,,,,,,,,,,,,,,,,,,,,,,,,,,,,,,,,,,,,,,,,,,,,,,,,,,,,,,,,,,,,,,,,,,,,,,,
,,,,,,615d9a0ef34a6a806fe6ba3e,62c539ca505ca495f1f3dbea,2022-07-06_10h29.59.056,Colour_Asymmetry_Pilot,2022.1.3,MacIntel,35.71428571,62c50e9c1127f2cd403a315f,0,57,57,60,1,threeone,,,,,,,,,,,,,,,,,,,,,,,,,,,,,,,,,,,,,,,,,,,,,,,,,,,,,,,,,,,,,,,,,,,,,,,,,,,,,,,,,,,,,,,,,,,,,,,,,,,,,,,,,,,,,,,,,,,,,,,,,,,,,,,,,,,,,,,,,,,,,,,,,,,,,,,,,,,,,,
,,,,,,615d9a0ef34a6a806fe6ba3e,62c539ca505ca495f1f3dbea,2022-07-06_10h29.59.056,Colour_Asymmetry_Pilot,2022.1.3,MacIntel,35.71428571,62c50e9c1127f2cd403a315f,0,58,58,126,1,fourtwo,,,,,,,,,,,,,,,,,,,,,,,,,,,,,,,,,,,,,,,,,,,,,,,,,,,,,,,,,,,,,,,,,,,,,,,,,,,,,,,,,,,,,,,,,,,,,,,,,,,,,,,,,,,,,,,,,,,,,,,,,,,,,,,,,,,,,,,,,,,,,,,,,,,,,,,,,,,,,,
,,,,,,615d9a0ef34a6a806fe6ba3e,62c539ca505ca495f1f3dbea,2022-07-06_10h29.59.056,Colour_Asymmetry_Pilot,2022.1.3,MacIntel,35.71428571,62c50e9c1127f2cd403a315f,0,59,59,144,1,onetwo,,,,,,,,,,,,,,,,,,,,,,,,,,,,,,,,,,,,,,,,,,,,,,,,,,,,,,,,,,,,,,,,,,,,,,,,,,,,,,,,,,,,,,,,,,,,,,,,,,,,,,,,,,,,,,,,,,,,,,,,,,,,,,,,,,,,,,,,,,,,,,,,,,,,,,,,,,,,,,
,,,,,,615d9a0ef34a6a806fe6ba3e,62c539ca505ca495f1f3dbea,2022-07-06_10h29.59.056,Colour_Asymmetry_Pilot,2022.1.3,MacIntel,35.71428571,62c50e9c1127f2cd403a315f,0,60,60,24,1,onetwo,,,,,,,,,,,,,,,,,,,,,,,,,,,,,,,,,,,,,,,,,,,,,,,,,,,,,,,,,,,,,,,,,,,,,,,,,,,,,,,,,,,,,,,,,,,,,,,,,,,,,,,,,,,,,,,,,,,,,,,,,,,,,,,,,,,,,,,,,,,,,,,,,,,,,,,,,,,,,,
,,,,,,615d9a0ef34a6a806fe6ba3e,62c539ca505ca495f1f3dbea,2022-07-06_10h29.59.056,Colour_Asymmetry_Pilot,2022.1.3,MacIntel,35.71428571,62c50e9c1127f2cd403a315f,0,61,61,49,1,onethree,,,,,,,,,,,,,,,,,,,,,,,,,,,,,,,,,,,,,,,,,,,,,,,,,,,,,,,,,,,,,,,,,,,,,,,,,,,,,,,,,,,,,,,,,,,,,,,,,,,,,,,,,,,,,,,,,,,,,,,,,,,,,,,,,,,,,,,,,,,,,,,,,,,,,,,,,,,,,,
,,,,,,615d9a0ef34a6a806fe6ba3e,62c539ca505ca495f1f3dbea,2022-07-06_10h29.59.056,Colour_Asymmetry_Pilot,2022.1.3,MacIntel,35.71428571,62c50e9c1127f2cd403a315f,0,62,62,1,1,onethree,,,,,,,,,,,,,,,,,,,,,,,,,,,,,,,,,,,,,,,,,,,,,,,,,,,,,,,,,,,,,,,,,,,,,,,,,,,,,,,,,,,,,,,,,,,,,,,,,,,,,,,,,,,,,,,,,,,,,,,,,,,,,,,,,,,,,,,,,,,,,,,,,,,,,,,,,,,,,,
,,,,,,615d9a0ef34a6a806fe6ba3e,62c539ca505ca495f1f3dbea,2022-07-06_10h29.59.056,Colour_Asymmetry_Pilot,2022.1.3,MacIntel,35.71428571,62c50e9c1127f2cd403a315f,0,63,63,44,1,threeone,,,,,,,,,,,,,,,,,,,,,,,,,,,,,,,,,,,,,,,,,,,,,,,,,,,,,,,,,,,,,,,,,,,,,,,,,,,,,,,,,,,,,,,,,,,,,,,,,,,,,,,,,,,,,,,,,,,,,,,,,,,,,,,,,,,,,,,,,,,,,,,,,,,,,,,,,,,,,,
,,,,,,615d9a0ef34a6a806fe6ba3e,62c539ca505ca495f1f3dbea,2022-07-06_10h29.59.056,Colour_Asymmetry_Pilot,2022.1.3,MacIntel,35.71428571,62c50e9c1127f2cd403a315f,0,64,64,92,1,threeone,,,,,,,,,,,,,,,,,,,,,,,,,,,,,,,,,,,,,,,,,,,,,,,,,,,,,,,,,,,,,,,,,,,,,,,,,,,,,,,,,,,,,,,,,,,,,,,,,,,,,,,,,,,,,,,,,,,,,,,,,,,,,,,,,,,,,,,,,,,,,,,,,,,,,,,,,,,,,,
,,,,,,615d9a0ef34a6a806fe6ba3e,62c539ca505ca495f1f3dbea,2022-07-06_10h29.59.056,Colour_Asymmetry_Pilot,2022.1.3,MacIntel,35.71428571,62c50e9c1127f2cd403a315f,0,65,65,95,1,fourthree,,,,,,,,,,,,,,,,,,,,,,,,,,,,,,,,,,,,,,,,,,,,,,,,,,,,,,,,,,,,,,,,,,,,,,,,,,,,,,,,,,,,,,,,,,,,,,,,,,,,,,,,,,,,,,,,,,,,,,,,,,,,,,,,,,,,,,,,,,,,,,,,,,,,,,,,,,,,,,
,,,,,,615d9a0ef34a6a806fe6ba3e,62c539ca505ca495f1f3dbea,2022-07-06_10h29.59.056,Colour_Asymmetry_Pilot,2022.1.3,MacIntel,35.71428571,62c50e9c1127f2cd403a315f,0,66,66,17,1,onethree,,,,,,,,,,,,,,,,,,,,,,,,,,,,,,,,,,,,,,,,,,,,,,,,,,,,,,,,,,,,,,,,,,,,,,,,,,,,,,,,,,,,,,,,,,,,,,,,,,,,,,,,,,,,,,,,,,,,,,,,,,,,,,,,,,,,,,,,,,,,,,,,,,,,,,,,,,,,,,
,,,,,,615d9a0ef34a6a806fe6ba3e,62c539ca505ca495f1f3dbea,2022-07-06_10h29.59.056,Colour_Asymmetry_Pilot,2022.1.3,MacIntel,35.71428571,62c50e9c1127f2cd403a315f,0,67,67,139,1,twofour,,,,,,,,,,,,,,,,,,,,,,,,,,,,,,,,,,,,,,,,,,,,,,,,,,,,,,,,,,,,,,,,,,,,,,,,,,,,,,,,,,,,,,,,,,,,,,,,,,,,,,,,,,,,,,,,,,,,,,,,,,,,,,,,,,,,,,,,,,,,,,,,,,,,,,,,,,,,,,
,,,,,,615d9a0ef34a6a806fe6ba3e,62c539ca505ca495f1f3dbea,2022-07-06_10h29.59.056,Colour_Asymmetry_Pilot,2022.1.3,MacIntel,35.71428571,62c50e9c1127f2cd403a315f,0,68,68,78,1,fourtwo,,,,,,,,,,,,,,,,,,,,,,,,,,,,,,,,,,,,,,,,,,,,,,,,,,,,,,,,,,,,,,,,,,,,,,,,,,,,,,,,,,,,,,,,,,,,,,,,,,,,,,,,,,,,,,,,,,,,,,,,,,,,,,,,,,,,,,,,,,,,,,,,,,,,,,,,,,,,,,
,,,,,,615d9a0ef34a6a806fe6ba3e,62c539ca505ca495f1f3dbea,2022-07-06_10h29.59.056,Colour_Asymmetry_Pilot,2022.1.3,MacIntel,35.71428571,62c50e9c1127f2cd403a315f,0,69,69,133,1,threefour,,,,,,,,,,,,,,,,,,,,,,,,,,,,,,,,,,,,,,,,,,,,,,,,,,,,,,,,,,,,,,,,,,,,,,,,,,,,,,,,,,,,,,,,,,,,,,,,,,,,,,,,,,,,,,,,,,,,,,,,,,,,,,,,,,,,,,,,,,,,,,,,,,,,,,,,,,,,,,
,,,,,,615d9a0ef34a6a806fe6ba3e,62c539ca505ca495f1f3dbea,2022-07-06_10h29.59.056,Colour_Asymmetry_Pilot,2022.1.3,MacIntel,35.71428571,62c50e9c1127f2cd403a315f,0,70,70,41,1,onethree,,,,,,,,,,,,,,,,,,,,,,,,,,,,,,,,,,,,,,,,,,,,,,,,,,,,,,,,,,,,,,,,,,,,,,,,,,,,,,,,,,,,,,,,,,,,,,,,,,,,,,,,,,,,,,,,,,,,,,,,,,,,,,,,,,,,,,,,,,,,,,,,,,,,,,,,,,,,,,
,,,,,,615d9a0ef34a6a806fe6ba3e,62c539ca505ca495f1f3dbea,2022-07-06_10h29.59.056,Colour_Asymmetry_Pilot,2022.1.3,MacIntel,35.71428571,62c50e9c1127f2cd403a315f,0,71,71,161,1,onethree,,,,,,,,,,,,,,,,,,,,,,,,,,,,,,,,,,,,,,,,,,,,,,,,,,,,,,,,,,,,,,,,,,,,,,,,,,,,,,,,,,,,,,,,,,,,,,,,,,,,,,,,,,,,,,,,,,,,,,,,,,,,,,,,,,,,,,,,,,,,,,,,,,,,,,,,,,,,,,
,,,,,,615d9a0ef34a6a806fe6ba3e,62c539ca505ca495f1f3dbea,2022-07-06_10h29.59.056,Colour_Asymmetry_Pilot,2022.1.3,MacIntel,35.71428571,62c50e9c1127f2cd403a315f,0,72,72,45,1,threefour,,,,,,,,,,,,,,,,,,,,,,,,,,,,,,,,,,,,,,,,,,,,,,,,,,,,,,,,,,,,,,,,,,,,,,,,,,,,,,,,,,,,,,,,,,,,,,,,,,,,,,,,,,,,,,,,,,,,,,,,,,,,,,,,,,,,,,,,,,,,,,,,,,,,,,,,,,,,,,
,,,,,,615d9a0ef34a6a806fe6ba3e,62c539ca505ca495f1f3dbea,2022-07-06_10h29.59.056,Colour_Asymmetry_Pilot,2022.1.3,MacIntel,35.71428571,62c50e9c1127f2cd403a315f,0,73,73,159,1,fourthree,,,,,,,,,,,,,,,,,,,,,,,,,,,,,,,,,,,,,,,,,,,,,,,,,,,,,,,,,,,,,,,,,,,,,,,,,,,,,,,,,,,,,,,,,,,,,,,,,,,,,,,,,,,,,,,,,,,,,,,,,,,,,,,,,,,,,,,,,,,,,,,,,,,,,,,,,,,,,,
,,,,,,615d9a0ef34a6a806fe6ba3e,62c539ca505ca495f1f3dbea,2022-07-06_10h29.59.056,Colour_Asymmetry_Pilot,2022.1.3,MacIntel,35.71428571,62c50e9c1127f2cd403a315f,0,74,74,89,1,onethree,,,,,,,,,,,,,,,,,,,,,,,,,,,,,,,,,,,,,,,,,,,,,,,,,,,,,,,,,,,,,,,,,,,,,,,,,,,,,,,,,,,,,,,,,,,,,,,,,,,,,,,,,,,,,,,,,,,,,,,,,,,,,,,,,,,,,,,,,,,,,,,,,,,,,,,,,,,,,,
,,,,,,615d9a0ef34a6a806fe6ba3e,62c539ca505ca495f1f3dbea,2022-07-06_10h29.59.056,Colour_Asymmetry_Pilot,2022.1.3,MacIntel,35.71428571,62c50e9c1127f2cd403a315f,0,75,75,146,1,twoone,,,,,,,,,,,,,,,,,,,,,,,,,,,,,,,,,,,,,,,,,,,,,,,,,,,,,,,,,,,,,,,,,,,,,,,,,,,,,,,,,,,,,,,,,,,,,,,,,,,,,,,,,,,,,,,,,,,,,,,,,,,,,,,,,,,,,,,,,,,,,,,,,,,,,,,,,,,,,,
,,,,,,615d9a0ef34a6a806fe6ba3e,62c539ca505ca495f1f3dbea,2022-07-06_10h29.59.056,Colour_Asymmetry_Pilot,2022.1.3,MacIntel,35.71428571,62c50e9c1127f2cd403a315f,0,76,76,69,1,threefour,,,,,,,,,,,,,,,,,,,,,,,,,,,,,,,,,,,,,,,,,,,,,,,,,,,,,,,,,,,,,,,,,,,,,,,,,,,,,,,,,,,,,,,,,,,,,,,,,,,,,,,,,,,,,,,,,,,,,,,,,,,,,,,,,,,,,,,,,,,,,,,,,,,,,,,,,,,,,,
,,,,,,615d9a0ef34a6a806fe6ba3e,62c539ca505ca495f1f3dbea,2022-07-06_10h29.59.056,Colour_Asymmetry_Pilot,2022.1.3,MacIntel,35.71428571,62c50e9c1127f2cd403a315f,0,77,77,18,1,twoone,,,,,,,,,,,,,,,,,,,,,,,,,,,,,,,,,,,,,,,,,,,,,,,,,,,,,,,,,,,,,,,,,,,,,,,,,,,,,,,,,,,,,,,,,,,,,,,,,,,,,,,,,,,,,,,,,,,,,,,,,,,,,,,,,,,,,,,,,,,,,,,,,,,,,,,,,,,,,,
,,,,,,615d9a0ef34a6a806fe6ba3e,62c539ca505ca495f1f3dbea,2022-07-06_10h29.59.056,Colour_Asymmetry_Pilot,2022.1.3,MacIntel,35.71428571,62c50e9c1127f2cd403a315f,0,78,78,106,1,twoone,,,,,,,,,,,,,,,,,,,,,,,,,,,,,,,,,,,,,,,,,,,,,,,,,,,,,,,,,,,,,,,,,,,,,,,,,,,,,,,,,,,,,,,,,,,,,,,,,,,,,,,,,,,,,,,,,,,,,,,,,,,,,,,,,,,,,,,,,,,,,,,,,,,,,,,,,,,,,,
,,,,,,615d9a0ef34a6a806fe6ba3e,62c539ca505ca495f1f3dbea,2022-07-06_10h29.59.056,Colour_Asymmetry_Pilot,2022.1.3,MacIntel,35.71428571,62c50e9c1127f2cd403a315f,0,79,79,59,1,twofour,,,,,,,,,,,,,,,,,,,,,,,,,,,,,,,,,,,,,,,,,,,,,,,,,,,,,,,,,,,,,,,,,,,,,,,,,,,,,,,,,,,,,,,,,,,,,,,,,,,,,,,,,,,,,,,,,,,,,,,,,,,,,,,,,,,,,,,,,,,,,,,,,,,,,,,,,,,,,,
,,,,,,615d9a0ef34a6a806fe6ba3e,62c539ca505ca495f1f3dbea,2022-07-06_10h29.59.056,Colour_Asymmetry_Pilot,2022.1.3,MacIntel,35.71428571,62c50e9c1127f2cd403a315f,0,80,80,37,1,threefour,,,,,,,,,,,,,,,,,,,,,,,,,,,,,,,,,,,,,,,,,,,,,,,,,,,,,,,,,,,,,,,,,,,,,,,,,,,,,,,,,,,,,,,,,,,,,,,,,,,,,,,,,,,,,,,,,,,,,,,,,,,,,,,,,,,,,,,,,,,,,,,,,,,,,,,,,,,,,,
,,,,,,615d9a0ef34a6a806fe6ba3e,62c539ca505ca495f1f3dbea,2022-07-06_10h29.59.056,Colour_Asymmetry_Pilot,2022.1.3,MacIntel,35.71428571,62c50e9c1127f2cd403a315f,0,81,81,141,1,threefour,,,,,,,,,,,,,,,,,,,,,,,,,,,,,,,,,,,,,,,,,,,,,,,,,,,,,,,,,,,,,,,,,,,,,,,,,,,,,,,,,,,,,,,,,,,,,,,,,,,,,,,,,,,,,,,,,,,,,,,,,,,,,,,,,,,,,,,,,,,,,,,,,,,,,,,,,,,,,,
,,,,,,615d9a0ef34a6a806fe6ba3e,62c539ca505ca495f1f3dbea,2022-07-06_10h29.59.056,Colour_Asymmetry_Pilot,2022.1.3,MacIntel,35.71428571,62c50e9c1127f2cd403a315f,0,82,82,68,1,threeone,,,,,,,,,,,,,,,,,,,,,,,,,,,,,,,,,,,,,,,,,,,,,,,,,,,,,,,,,,,,,,,,,,,,,,,,,,,,,,,,,,,,,,,,,,,,,,,,,,,,,,,,,,,,,,,,,,,,,,,,,,,,,,,,,,,,,,,,,,,,,,,,,,,,,,,,,,,,,,
,,,,,,615d9a0ef34a6a806fe6ba3e,62c539ca505ca495f1f3dbea,2022-07-06_10h29.59.056,Colour_Asymmetry_Pilot,2022.1.3,MacIntel,35.71428571,62c50e9c1127f2cd403a315f,0,83,83,40,1,onetwo,,,,,,,,,,,,,,,,,,,,,,,,,,,,,,,,,,,,,,,,,,,,,,,,,,,,,,,,,,,,,,,,,,,,,,,,,,,,,,,,,,,,,,,,,,,,,,,,,,,,,,,,,,,,,,,,,,,,,,,,,,,,,,,,,,,,,,,,,,,,,,,,,,,,,,,,,,,,,,
,,,,,,615d9a0ef34a6a806fe6ba3e,62c539ca505ca495f1f3dbea,2022-07-06_10h29.59.056,Colour_Asymmetry_Pilot,2022.1.3,MacIntel,35.71428571,62c50e9c1127f2cd403a315f,0,84,84,150,1,fourtwo,,,,,,,,,,,,,,,,,,,,,,,,,,,,,,,,,,,,,,,,,,,,,,,,,,,,,,,,,,,,,,,,,,,,,,,,,,,,,,,,,,,,,,,,,,,,,,,,,,,,,,,,,,,,,,,,,,,,,,,,,,,,,,,,,,,,,,,,,,,,,,,,,,,,,,,,,,,,,,
,,,,,,615d9a0ef34a6a806fe6ba3e,62c539ca505ca495f1f3dbea,2022-07-06_10h29.59.056,Colour_Asymmetry_Pilot,2022.1.3,MacIntel,35.71428571,62c50e9c1127f2cd403a315f,0,85,85,156,1,threeone,,,,,,,,,,,,,,,,,,,,,,,,,,,,,,,,,,,,,,,,,,,,,,,,,,,,,,,,,,,,,,,,,,,,,,,,,,,,,,,,,,,,,,,,,,,,,,,,,,,,,,,,,,,,,,,,,,,,,,,,,,,,,,,,,,,,,,,,,,,,,,,,,,,,,,,,,,,,,,
,,,,,,615d9a0ef34a6a806fe6ba3e,62c539ca505ca495f1f3dbea,2022-07-06_10h29.59.056,Colour_Asymmetry_Pilot,2022.1.3,MacIntel,35.71428571,62c50e9c1127f2cd403a315f,0,86,86,50,1,twoone,,,,,,,,,,,,,,,,,,,,,,,,,,,,,,,,,,,,,,,,,,,,,,,,,,,,,,,,,,,,,,,,,,,,,,,,,,,,,,,,,,,,,,,,,,,,,,,,,,,,,,,,,,,,,,,,,,,,,,,,,,,,,,,,,,,,,,,,,,,,,,,,,,,,,,,,,,,,,,
,,,,,,615d9a0ef34a6a806fe6ba3e,62c539ca505ca495f1f3dbea,2022-07-06_10h29.59.056,Colour_Asymmetry_Pilot,2022.1.3,MacIntel,35.71428571,62c50e9c1127f2cd403a315f,0,87,87,97,1,onethree,,,,,,,,,,,,,,,,,,,,,,,,,,,,,,,,,,,,,,,,,,,,,,,,,,,,,,,,,,,,,,,,,,,,,,,,,,,,,,,,,,,,,,,,,,,,,,,,,,,,,,,,,,,,,,,,,,,,,,,,,,,,,,,,,,,,,,,,,,,,,,,,,,,,,,,,,,,,,,
,,,,,,615d9a0ef34a6a806fe6ba3e,62c539ca505ca495f1f3dbea,2022-07-06_10h29.59.056,Colour_Asymmetry_Pilot,2022.1.3,MacIntel,35.71428571,62c50e9c1127f2cd403a315f,0,88,88,158,1,fourtwo,,,,,,,,,,,,,,,,,,,,,,,,,,,,,,,,,,,,,,,,,,,,,,,,,,,,,,,,,,,,,,,,,,,,,,,,,,,,,,,,,,,,,,,,,,,,,,,,,,,,,,,,,,,,,,,,,,,,,,,,,,,,,,,,,,,,,,,,,,,,,,,,,,,,,,,,,,,,,,
,,,,,,615d9a0ef34a6a806fe6ba3e,62c539ca505ca495f1f3dbea,2022-07-06_10h29.59.056,Colour_Asymmetry_Pilot,2022.1.3,MacIntel,35.71428571,62c50e9c1127f2cd403a315f,0,89,89,112,1,onetwo,,,,,,,,,,,,,,,,,,,,,,,,,,,,,,,,,,,,,,,,,,,,,,,,,,,,,,,,,,,,,,,,,,,,,,,,,,,,,,,,,,,,,,,,,,,,,,,,,,,,,,,,,,,,,,,,,,,,,,,,,,,,,,,,,,,,,,,,,,,,,,,,,,,,,,,,,,,,,,
,,,,,,615d9a0ef34a6a806fe6ba3e,62c539ca505ca495f1f3dbea,2022-07-06_10h29.59.056,Colour_Asymmetry_Pilot,2022.1.3,MacIntel,35.71428571,62c50e9c1127f2cd403a315f,0,90,90,32,1,onetwo,,,,,,,,,,,,,,,,,,,,,,,,,,,,,,,,,,,,,,,,,,,,,,,,,,,,,,,,,,,,,,,,,,,,,,,,,,,,,,,,,,,,,,,,,,,,,,,,,,,,,,,,,,,,,,,,,,,,,,,,,,,,,,,,,,,,,,,,,,,,,,,,,,,,,,,,,,,,,,
,,,,,,615d9a0ef34a6a806fe6ba3e,62c539ca505ca495f1f3dbea,2022-07-06_10h29.59.056,Colour_Asymmetry_Pilot,2022.1.3,MacIntel,35.71428571,62c50e9c1127f2cd403a315f,0,91,91,80,1,onetwo,,,,,,,,,,,,,,,,,,,,,,,,,,,,,,,,,,,,,,,,,,,,,,,,,,,,,,,,,,,,,,,,,,,,,,,,,,,,,,,,,,,,,,,,,,,,,,,,,,,,,,,,,,,,,,,,,,,,,,,,,,,,,,,,,,,,,,,,,,,,,,,,,,,,,,,,,,,,,,
,,,,,,615d9a0ef34a6a806fe6ba3e,62c539ca505ca495f1f3dbea,2022-07-06_10h29.59.056,Colour_Asymmetry_Pilot,2022.1.3,MacIntel,35.71428571,62c50e9c1127f2cd403a315f,0,92,92,147,1,twofour,,,,,,,,,,,,,,,,,,,,,,,,,,,,,,,,,,,,,,,,,,,,,,,,,,,,,,,,,,,,,,,,,,,,,,,,,,,,,,,,,,,,,,,,,,,,,,,,,,,,,,,,,,,,,,,,,,,,,,,,,,,,,,,,,,,,,,,,,,,,,,,,,,,,,,,,,,,,,,
,,,,,,615d9a0ef34a6a806fe6ba3e,62c539ca505ca495f1f3dbea,2022-07-06_10h29.59.056,Colour_Asymmetry_Pilot,2022.1.3,MacIntel,35.71428571,62c50e9c1127f2cd403a315f,0,93,93,154,1,twoone,,,,,,,,,,,,,,,,,,,,,,,,,,,,,,,,,,,,,,,,,,,,,,,,,,,,,,,,,,,,,,,,,,,,,,,,,,,,,,,,,,,,,,,,,,,,,,,,,,,,,,,,,,,,,,,,,,,,,,,,,,,,,,,,,,,,,,,,,,,,,,,,,,,,,,,,,,,,,,
,,,,,,615d9a0ef34a6a806fe6ba3e,62c539ca505ca495f1f3dbea,2022-07-06_10h29.59.056,Colour_Asymmetry_Pilot,2022.1.3,MacIntel,35.71428571,62c50e9c1127f2cd403a315f,0,94,94,9,1,onethree,,,,,,,,,,,,,,,,,,,,,,,,,,,,,,,,,,,,,,,,,,,,,,,,,,,,,,,,,,,,,,,,,,,,,,,,,,,,,,,,,,,,,,,,,,,,,,,,,,,,,,,,,,,,,,,,,,,,,,,,,,,,,,,,,,,,,,,,,,,,,,,,,,,,,,,,,,,,,,
,,,,,,615d9a0ef34a6a806fe6ba3e,62c539ca505ca495f1f3dbea,2022-07-06_10h29.59.056,Colour_Asymmetry_Pilot,2022.1.3,MacIntel,35.71428571,62c50e9c1127f2cd403a315f,0,95,95,22,1,fourtwo,,,,,,,,,,,,,,,,,,,,,,,,,,,,,,,,,,,,,,,,,,,,,,,,,,,,,,,,,,,,,,,,,,,,,,,,,,,,,,,,,,,,,,,,,,,,,,,,,,,,,,,,,,,,,,,,,,,,,,,,,,,,,,,,,,,,,,,,,,,,,,,,,,,,,,,,,,,,,,
,,,,,,615d9a0ef34a6a806fe6ba3e,62c539ca505ca495f1f3dbea,2022-07-06_10h29.59.056,Colour_Asymmetry_Pilot,2022.1.3,MacIntel,35.71428571,62c50e9c1127f2cd403a315f,0,96,96,31,1,fourthree,,,,,,,,,,,,,,,,,,,,,,,,,,,,,,,,,,,,,,,,,,,,,,,,,,,,,,,,,,,,,,,,,,,,,,,,,,,,,,,,,,,,,,,,,,,,,,,,,,,,,,,,,,,,,,,,,,,,,,,,,,,,,,,,,,,,,,,,,,,,,,,,,,,,,,,,,,,,,,
,,,,,,615d9a0ef34a6a806fe6ba3e,62c539ca505ca495f1f3dbea,2022-07-06_10h29.59.056,Colour_Asymmetry_Pilot,2022.1.3,MacIntel,35.71428571,62c50e9c1127f2cd403a315f,0,97,97,43,1,twofour,,,,,,,,,,,,,,,,,,,,,,,,,,,,,,,,,,,,,,,,,,,,,,,,,,,,,,,,,,,,,,,,,,,,,,,,,,,,,,,,,,,,,,,,,,,,,,,,,,,,,,,,,,,,,,,,,,,,,,,,,,,,,,,,,,,,,,,,,,,,,,,,,,,,,,,,,,,,,,
,,,,,,615d9a0ef34a6a806fe6ba3e,62c539ca505ca495f1f3dbea,2022-07-06_10h29.59.056,Colour_Asymmetry_Pilot,2022.1.3,MacIntel,35.71428571,62c50e9c1127f2cd403a315f,0,98,98,4,1,threeone,,,,,,,,,,,,,,,,,,,,,,,,,,,,,,,,,,,,,,,,,,,,,,,,,,,,,,,,,,,,,,,,,,,,,,,,,,,,,,,,,,,,,,,,,,,,,,,,,,,,,,,,,,,,,,,,,,,,,,,,,,,,,,,,,,,,,,,,,,,,,,,,,,,,,,,,,,,,,,
,,,,,,615d9a0ef34a6a806fe6ba3e,62c539ca505ca495f1f3dbea,2022-07-06_10h29.59.056,Colour_Asymmetry_Pilot,2022.1.3,MacIntel,35.71428571,62c50e9c1127f2cd403a315f,0,99,99,20,1,threeone,,,,,,,,,,,,,,,,,,,,,,,,,,,,,,,,,,,,,,,,,,,,,,,,,,,,,,,,,,,,,,,,,,,,,,,,,,,,,,,,,,,,,,,,,,,,,,,,,,,,,,,,,,,,,,,,,,,,,,,,,,,,,,,,,,,,,,,,,,,,,,,,,,,,,,,,,,,,,,
,,,,,,615d9a0ef34a6a806fe6ba3e,62c539ca505ca495f1f3dbea,2022-07-06_10h29.59.056,Colour_Asymmetry_Pilot,2022.1.3,MacIntel,35.71428571,62c50e9c1127f2cd403a315f,0,100,100,47,1,fourthree,,,,,,,,,,,,,,,,,,,,,,,,,,,,,,,,,,,,,,,,,,,,,,,,,,,,,,,,,,,,,,,,,,,,,,,,,,,,,,,,,,,,,,,,,,,,,,,,,,,,,,,,,,,,,,,,,,,,,,,,,,,,,,,,,,,,,,,,,,,,,,,,,,,,,,,,,,,,,,
,,,,,,615d9a0ef34a6a806fe6ba3e,62c539ca505ca495f1f3dbea,2022-07-06_10h29.59.056,Colour_Asymmetry_Pilot,2022.1.3,MacIntel,35.71428571,62c50e9c1127f2cd403a315f,0,101,101,100,1,threeone,,,,,,,,,,,,,,,,,,,,,,,,,,,,,,,,,,,,,,,,,,,,,,,,,,,,,,,,,,,,,,,,,,,,,,,,,,,,,,,,,,,,,,,,,,,,,,,,,,,,,,,,,,,,,,,,,,,,,,,,,,,,,,,,,,,,,,,,,,,,,,,,,,,,,,,,,,,,,,
,,,,,,615d9a0ef34a6a806fe6ba3e,62c539ca505ca495f1f3dbea,2022-07-06_10h29.59.056,Colour_Asymmetry_Pilot,2022.1.3,MacIntel,35.71428571,62c50e9c1127f2cd403a315f,0,102,102,127,1,fourthree,,,,,,,,,,,,,,,,,,,,,,,,,,,,,,,,,,,,,,,,,,,,,,,,,,,,,,,,,,,,,,,,,,,,,,,,,,,,,,,,,,,,,,,,,,,,,,,,,,,,,,,,,,,,,,,,,,,,,,,,,,,,,,,,,,,,,,,,,,,,,,,,,,,,,,,,,,,,,,
,,,,,,615d9a0ef34a6a806fe6ba3e,62c539ca505ca495f1f3dbea,2022-07-06_10h29.59.056,Colour_Asymmetry_Pilot,2022.1.3,MacIntel,35.71428571,62c50e9c1127f2cd403a315f,0,103,103,77,1,threefour,,,,,,,,,,,,,,,,,,,,,,,,,,,,,,,,,,,,,,,,,,,,,,,,,,,,,,,,,,,,,,,,,,,,,,,,,,,,,,,,,,,,,,,,,,,,,,,,,,,,,,,,,,,,,,,,,,,,,,,,,,,,,,,,,,,,,,,,,,,,,,,,,,,,,,,,,,,,,,
,,,,,,615d9a0ef34a6a806fe6ba3e,62c539ca505ca495f1f3dbea,2022-07-06_10h29.59.056,Colour_Asymmetry_Pilot,2022.1.3,MacIntel,35.71428571,62c50e9c1127f2cd403a315f,0,104,104,28,1,threeone,,,,,,,,,,,,,,,,,,,,,,,,,,,,,,,,,,,,,,,,,,,,,,,,,,,,,,,,,,,,,,,,,,,,,,,,,,,,,,,,,,,,,,,,,,,,,,,,,,,,,,,,,,,,,,,,,,,,,,,,,,,,,,,,,,,,,,,,,,,,,,,,,,,,,,,,,,,,,,
,,,,,,615d9a0ef34a6a806fe6ba3e,62c539ca505ca495f1f3dbea,2022-07-06_10h29.59.056,Colour_Asymmetry_Pilot,2022.1.3,MacIntel,35.71428571,62c50e9c1127f2cd403a315f,0,105,105,160,1,onetwo,,,,,,,,,,,,,,,,,,,,,,,,,,,,,,,,,,,,,,,,,,,,,,,,,,,,,,,,,,,,,,,,,,,,,,,,,,,,,,,,,,,,,,,,,,,,,,,,,,,,,,,,,,,,,,,,,,,,,,,,,,,,,,,,,,,,,,,,,,,,,,,,,,,,,,,,,,,,,,
,,,,,,615d9a0ef34a6a806fe6ba3e,62c539ca505ca495f1f3dbea,2022-07-06_10h29.59.056,Colour_Asymmetry_Pilot,2022.1.3,MacIntel,35.71428571,62c50e9c1127f2cd403a315f,0,106,106,48,1,onetwo,,,,,,,,,,,,,,,,,,,,,,,,,,,,,,,,,,,,,,,,,,,,,,,,,,,,,,,,,,,,,,,,,,,,,,,,,,,,,,,,,,,,,,,,,,,,,,,,,,,,,,,,,,,,,,,,,,,,,,,,,,,,,,,,,,,,,,,,,,,,,,,,,,,,,,,,,,,,,,
,,,,,,615d9a0ef34a6a806fe6ba3e,62c539ca505ca495f1f3dbea,2022-07-06_10h29.59.056,Colour_Asymmetry_Pilot,2022.1.3,MacIntel,35.71428571,62c50e9c1127f2cd403a315f,0,107,107,87,1,fourthree,,,,,,,,,,,,,,,,,,,,,,,,,,,,,,,,,,,,,,,,,,,,,,,,,,,,,,,,,,,,,,,,,,,,,,,,,,,,,,,,,,,,,,,,,,,,,,,,,,,,,,,,,,,,,,,,,,,,,,,,,,,,,,,,,,,,,,,,,,,,,,,,,,,,,,,,,,,,,,
,,,,,,615d9a0ef34a6a806fe6ba3e,62c539ca505ca495f1f3dbea,2022-07-06_10h29.59.056,Colour_Asymmetry_Pilot,2022.1.3,MacIntel,35.71428571,62c50e9c1127f2cd403a315f,0,108,108,116,1,threeone,,,,,,,,,,,,,,,,,,,,,,,,,,,,,,,,,,,,,,,,,,,,,,,,,,,,,,,,,,,,,,,,,,,,,,,,,,,,,,,,,,,,,,,,,,,,,,,,,,,,,,,,,,,,,,,,,,,,,,,,,,,,,,,,,,,,,,,,,,,,,,,,,,,,,,,,,,,,,,
,,,,,,615d9a0ef34a6a806fe6ba3e,62c539ca505ca495f1f3dbea,2022-07-06_10h29.59.056,Colour_Asymmetry_Pilot,2022.1.3,MacIntel,35.71428571,62c50e9c1127f2cd403a315f,0,109,109,101,1,threefour,,,,,,,,,,,,,,,,,,,,,,,,,,,,,,,,,,,,,,,,,,,,,,,,,,,,,,,,,,,,,,,,,,,,,,,,,,,,,,,,,,,,,,,,,,,,,,,,,,,,,,,,,,,,,,,,,,,,,,,,,,,,,,,,,,,,,,,,,,,,,,,,,,,,,,,,,,,,,,
,,,,,,615d9a0ef34a6a806fe6ba3e,62c539ca505ca495f1f3dbea,2022-07-06_10h29.59.056,Colour_Asymmetry_Pilot,2022.1.3,MacIntel,35.71428571,62c50e9c1127f2cd403a315f,0,110,110,121,1,onethree,,,,,,,,,,,,,,,,,,,,,,,,,,,,,,,,,,,,,,,,,,,,,,,,,,,,,,,,,,,,,,,,,,,,,,,,,,,,,,,,,,,,,,,,,,,,,,,,,,,,,,,,,,,,,,,,,,,,,,,,,,,,,,,,,,,,,,,,,,,,,,,,,,,,,,,,,,,,,,
,,,,,,615d9a0ef34a6a806fe6ba3e,62c539ca505ca495f1f3dbea,2022-07-06_10h29.59.056,Colour_Asymmetry_Pilot,2022.1.3,MacIntel,35.71428571,62c50e9c1127f2cd403a315f,0,111,111,111,1,fourthree,,,,,,,,,,,,,,,,,,,,,,,,,,,,,,,,,,,,,,,,,,,,,,,,,,,,,,,,,,,,,,,,,,,,,,,,,,,,,,,,,,,,,,,,,,,,,,,,,,,,,,,,,,,,,,,,,,,,,,,,,,,,,,,,,,,,,,,,,,,,,,,,,,,,,,,,,,,,,,
,,,,,,615d9a0ef34a6a806fe6ba3e,62c539ca505ca495f1f3dbea,2022-07-06_10h29.59.056,Colour_Asymmetry_Pilot,2022.1.3,MacIntel,35.71428571,62c50e9c1127f2cd403a315f,0,112,112,128,1,onetwo,,,,,,,,,,,,,,,,,,,,,,,,,,,,,,,,,,,,,,,,,,,,,,,,,,,,,,,,,,,,,,,,,,,,,,,,,,,,,,,,,,,,,,,,,,,,,,,,,,,,,,,,,,,,,,,,,,,,,,,,,,,,,,,,,,,,,,,,,,,,,,,,,,,,,,,,,,,,,,
,,,,,,615d9a0ef34a6a806fe6ba3e,62c539ca505ca495f1f3dbea,2022-07-06_10h29.59.056,Colour_Asymmetry_Pilot,2022.1.3,MacIntel,35.71428571,62c50e9c1127f2cd403a315f,0,113,113,98,1,twoone,,,,,,,,,,,,,,,,,,,,,,,,,,,,,,,,,,,,,,,,,,,,,,,,,,,,,,,,,,,,,,,,,,,,,,,,,,,,,,,,,,,,,,,,,,,,,,,,,,,,,,,,,,,,,,,,,,,,,,,,,,,,,,,,,,,,,,,,,,,,,,,,,,,,,,,,,,,,,,
,,,,,,615d9a0ef34a6a806fe6ba3e,62c539ca505ca495f1f3dbea,2022-07-06_10h29.59.056,Colour_Asymmetry_Pilot,2022.1.3,MacIntel,35.71428571,62c50e9c1127f2cd403a315f,0,114,114,109,1,threefour,,,,,,,,,,,,,,,,,,,,,,,,,,,,,,,,,,,,,,,,,,,,,,,,,,,,,,,,,,,,,,,,,,,,,,,,,,,,,,,,,,,,,,,,,,,,,,,,,,,,,,,,,,,,,,,,,,,,,,,,,,,,,,,,,,,,,,,,,,,,,,,,,,,,,,,,,,,,,,
,,,,,,615d9a0ef34a6a806fe6ba3e,62c539ca505ca495f1f3dbea,2022-07-06_10h29.59.056,Colour_Asymmetry_Pilot,2022.1.3,MacIntel,35.71428571,62c50e9c1127f2cd403a315f,0,115,115,35,1,twofour,,,,,,,,,,,,,,,,,,,,,,,,,,,,,,,,,,,,,,,,,,,,,,,,,,,,,,,,,,,,,,,,,,,,,,,,,,,,,,,,,,,,,,,,,,,,,,,,,,,,,,,,,,,,,,,,,,,,,,,,,,,,,,,,,,,,,,,,,,,,,,,,,,,,,,,,,,,,,,
,,,,,,615d9a0ef34a6a806fe6ba3e,62c539ca505ca495f1f3dbea,2022-07-06_10h29.59.056,Colour_Asymmetry_Pilot,2022.1.3,MacIntel,35.71428571,62c50e9c1127f2cd403a315f,0,116,116,131,1,twofour,,,,,,,,,,,,,,,,,,,,,,,,,,,,,,,,,,,,,,,,,,,,,,,,,,,,,,,,,,,,,,,,,,,,,,,,,,,,,,,,,,,,,,,,,,,,,,,,,,,,,,,,,,,,,,,,,,,,,,,,,,,,,,,,,,,,,,,,,,,,,,,,,,,,,,,,,,,,,,
,,,,,,615d9a0ef34a6a806fe6ba3e,62c539ca505ca495f1f3dbea,2022-07-06_10h29.59.056,Colour_Asymmetry_Pilot,2022.1.3,MacIntel,35.71428571,62c50e9c1127f2cd403a315f,0,117,117,129,1,onethree,,,,,,,,,,,,,,,,,,,,,,,,,,,,,,,,,,,,,,,,,,,,,,,,,,,,,,,,,,,,,,,,,,,,,,,,,,,,,,,,,,,,,,,,,,,,,,,,,,,,,,,,,,,,,,,,,,,,,,,,,,,,,,,,,,,,,,,,,,,,,,,,,,,,,,,,,,,,,,
,,,,,,615d9a0ef34a6a806fe6ba3e,62c539ca505ca495f1f3dbea,2022-07-06_10h29.59.056,Colour_Asymmetry_Pilot,2022.1.3,MacIntel,35.71428571,62c50e9c1127f2cd403a315f,0,118,118,85,1,threefour,,,,,,,,,,,,,,,,,,,,,,,,,,,,,,,,,,,,,,,,,,,,,,,,,,,,,,,,,,,,,,,,,,,,,,,,,,,,,,,,,,,,,,,,,,,,,,,,,,,,,,,,,,,,,,,,,,,,,,,,,,,,,,,,,,,,,,,,,,,,,,,,,,,,,,,,,,,,,,
,,,,,,615d9a0ef34a6a806fe6ba3e,62c539ca505ca495f1f3dbea,2022-07-06_10h29.59.056,Colour_Asymmetry_Pilot,2022.1.3,MacIntel,35.71428571,62c50e9c1127f2cd403a315f,0,119,119,46,1,fourtwo,,,,,,,,,,,,,,,,,,,,,,,,,,,,,,,,,,,,,,,,,,,,,,,,,,,,,,,,,,,,,,,,,,,,,,,,,,,,,,,,,,,,,,,,,,,,,,,,,,,,,,,,,,,,,,,,,,,,,,,,,,,,,,,,,,,,,,,,,,,,,,,,,,,,,,,,,,,,,,
,,,,,,615d9a0ef34a6a806fe6ba3e,62c539ca505ca495f1f3dbea,2022-07-06_10h29.59.056,Colour_Asymmetry_Pilot,2022.1.3,MacIntel,35.71428571,62c50e9c1127f2cd403a315f,0,120,120,73,1,onethree,,,,,,,,,,,,,,,,,,,,,,,,,,,,,,,,,,,,,,,,,,,,,,,,,,,,,,,,,,,,,,,,,,,,,,,,,,,,,,,,,,,,,,,,,,,,,,,,,,,,,,,,,,,,,,,,,,,,,,,,,,,,,,,,,,,,,,,,,,,,,,,,,,,,,,,,,,,,,,
,,,,,,615d9a0ef34a6a806fe6ba3e,62c539ca505ca495f1f3dbea,2022-07-06_10h29.59.056,Colour_Asymmetry_Pilot,2022.1.3,MacIntel,35.71428571,62c50e9c1127f2cd403a315f,0,121,121,53,1,threefour,,,,,,,,,,,,,,,,,,,,,,,,,,,,,,,,,,,,,,,,,,,,,,,,,,,,,,,,,,,,,,,,,,,,,,,,,,,,,,,,,,,,,,,,,,,,,,,,,,,,,,,,,,,,,,,,,,,,,,,,,,,,,,,,,,,,,,,,,,,,,,,,,,,,,,,,,,,,,,
,,,,,,615d9a0ef34a6a806fe6ba3e,62c539ca505ca495f1f3dbea,2022-07-06_10h29.59.056,Colour_Asymmetry_Pilot,2022.1.3,MacIntel,35.71428571,62c50e9c1127f2cd403a315f,0,122,122,23,1,fourthree,,,,,,,,,,,,,,,,,,,,,,,,,,,,,,,,,,,,,,,,,,,,,,,,,,,,,,,,,,,,,,,,,,,,,,,,,,,,,,,,,,,,,,,,,,,,,,,,,,,,,,,,,,,,,,,,,,,,,,,,,,,,,,,,,,,,,,,,,,,,,,,,,,,,,,,,,,,,,,
,,,,,,615d9a0ef34a6a806fe6ba3e,62c539ca505ca495f1f3dbea,2022-07-06_10h29.59.056,Colour_Asymmetry_Pilot,2022.1.3,MacIntel,35.71428571,62c50e9c1127f2cd403a315f,0,123,123,135,1,fourthree,,,,,,,,,,,,,,,,,,,,,,,,,,,,,,,,,,,,,,,,,,,,,,,,,,,,,,,,,,,,,,,,,,,,,,,,,,,,,,,,,,,,,,,,,,,,,,,,,,,,,,,,,,,,,,,,,,,,,,,,,,,,,,,,,,,,,,,,,,,,,,,,,,,,,,,,,,,,,,
,,,,,,615d9a0ef34a6a806fe6ba3e,62c539ca505ca495f1f3dbea,2022-07-06_10h29.59.056,Colour_Asymmetry_Pilot,2022.1.3,MacIntel,35.71428571,62c50e9c1127f2cd403a315f,0,124,124,138,1,twoone,,,,,,,,,,,,,,,,,,,,,,,,,,,,,,,,,,,,,,,,,,,,,,,,,,,,,,,,,,,,,,,,,,,,,,,,,,,,,,,,,,,,,,,,,,,,,,,,,,,,,,,,,,,,,,,,,,,,,,,,,,,,,,,,,,,,,,,,,,,,,,,,,,,,,,,,,,,,,,
,,,,,,615d9a0ef34a6a806fe6ba3e,62c539ca505ca495f1f3dbea,2022-07-06_10h29.59.056,Colour_Asymmetry_Pilot,2022.1.3,MacIntel,35.71428571,62c50e9c1127f2cd403a315f,0,125,125,66,1,twoone,,,,,,,,,,,,,,,,,,,,,,,,,,,,,,,,,,,,,,,,,,,,,,,,,,,,,,,,,,,,,,,,,,,,,,,,,,,,,,,,,,,,,,,,,,,,,,,,,,,,,,,,,,,,,,,,,,,,,,,,,,,,,,,,,,,,,,,,,,,,,,,,,,,,,,,,,,,,,,
,,,,,,615d9a0ef34a6a806fe6ba3e,62c539ca505ca495f1f3dbea,2022-07-06_10h29.59.056,Colour_Asymmetry_Pilot,2022.1.3,MacIntel,35.71428571,62c50e9c1127f2cd403a315f,0,126,126,82,1,twoone,,,,,,,,,,,,,,,,,,,,,,,,,,,,,,,,,,,,,,,,,,,,,,,,,,,,,,,,,,,,,,,,,,,,,,,,,,,,,,,,,,,,,,,,,,,,,,,,,,,,,,,,,,,,,,,,,,,,,,,,,,,,,,,,,,,,,,,,,,,,,,,,,,,,,,,,,,,,,,
,,,,,,615d9a0ef34a6a806fe6ba3e,62c539ca505ca495f1f3dbea,2022-07-06_10h29.59.056,Colour_Asymmetry_Pilot,2022.1.3,MacIntel,35.71428571,62c50e9c1127f2cd403a315f,0,127,127,62,1,fourtwo,,,,,,,,,,,,,,,,,,,,,,,,,,,,,,,,,,,,,,,,,,,,,,,,,,,,,,,,,,,,,,,,,,,,,,,,,,,,,,,,,,,,,,,,,,,,,,,,,,,,,,,,,,,,,,,,,,,,,,,,,,,,,,,,,,,,,,,,,,,,,,,,,,,,,,,,,,,,,,
,,,,,,615d9a0ef34a6a806fe6ba3e,62c539ca505ca495f1f3dbea,2022-07-06_10h29.59.056,Colour_Asymmetry_Pilot,2022.1.3,MacIntel,35.71428571,62c50e9c1127f2cd403a315f,0,128,128,157,1,threefour,,,,,,,,,,,,,,,,,,,,,,,,,,,,,,,,,,,,,,,,,,,,,,,,,,,,,,,,,,,,,,,,,,,,,,,,,,,,,,,,,,,,,,,,,,,,,,,,,,,,,,,,,,,,,,,,,,,,,,,,,,,,,,,,,,,,,,,,,,,,,,,,,,,,,,,,,,,,,,
,,,,,,615d9a0ef34a6a806fe6ba3e,62c539ca505ca495f1f3dbea,2022-07-06_10h29.59.056,Colour_Asymmetry_Pilot,2022.1.3,MacIntel,35.71428571,62c50e9c1127f2cd403a315f,0,129,129,21,1,threefour,,,,,,,,,,,,,,,,,,,,,,,,,,,,,,,,,,,,,,,,,,,,,,,,,,,,,,,,,,,,,,,,,,,,,,,,,,,,,,,,,,,,,,,,,,,,,,,,,,,,,,,,,,,,,,,,,,,,,,,,,,,,,,,,,,,,,,,,,,,,,,,,,,,,,,,,,,,,,,
,,,,,,615d9a0ef34a6a806fe6ba3e,62c539ca505ca495f1f3dbea,2022-07-06_10h29.59.056,Colour_Asymmetry_Pilot,2022.1.3,MacIntel,35.71428571,62c50e9c1127f2cd403a315f,0,130,130,38,1,fourtwo,,,,,,,,,,,,,,,,,,,,,,,,,,,,,,,,,,,,,,,,,,,,,,,,,,,,,,,,,,,,,,,,,,,,,,,,,,,,,,,,,,,,,,,,,,,,,,,,,,,,,,,,,,,,,,,,,,,,,,,,,,,,,,,,,,,,,,,,,,,,,,,,,,,,,,,,,,,,,,
,,,,,,615d9a0ef34a6a806fe6ba3e,62c539ca505ca495f1f3dbea,2022-07-06_10h29.59.056,Colour_Asymmetry_Pilot,2022.1.3,MacIntel,35.71428571,62c50e9c1127f2cd403a315f,0,131,131,137,1,onethree,,,,,,,,,,,,,,,,,,,,,,,,,,,,,,,,,,,,,,,,,,,,,,,,,,,,,,,,,,,,,,,,,,,,,,,,,,,,,,,,,,,,,,,,,,,,,,,,,,,,,,,,,,,,,,,,,,,,,,,,,,,,,,,,,,,,,,,,,,,,,,,,,,,,,,,,,,,,,,
,,,,,,615d9a0ef34a6a806fe6ba3e,62c539ca505ca495f1f3dbea,2022-07-06_10h29.59.056,Colour_Asymmetry_Pilot,2022.1.3,MacIntel,35.71428571,62c50e9c1127f2cd403a315f,0,132,132,19,1,twofour,,,,,,,,,,,,,,,,,,,,,,,,,,,,,,,,,,,,,,,,,,,,,,,,,,,,,,,,,,,,,,,,,,,,,,,,,,,,,,,,,,,,,,,,,,,,,,,,,,,,,,,,,,,,,,,,,,,,,,,,,,,,,,,,,,,,,,,,,,,,,,,,,,,,,,,,,,,,,,
,,,,,,615d9a0ef34a6a806fe6ba3e,62c539ca505ca495f1f3dbea,2022-07-06_10h29.59.056,Colour_Asymmetry_Pilot,2022.1.3,MacIntel,35.71428571,62c50e9c1127f2cd403a315f,0,133,133,7,1,fourthree,,,,,,,,,,,,,,,,,,,,,,,,,,,,,,,,,,,,,,,,,,,,,,,,,,,,,,,,,,,,,,,,,,,,,,,,,,,,,,,,,,,,,,,,,,,,,,,,,,,,,,,,,,,,,,,,,,,,,,,,,,,,,,,,,,,,,,,,,,,,,,,,,,,,,,,,,,,,,,
,,,,,,615d9a0ef34a6a806fe6ba3e,62c539ca505ca495f1f3dbea,2022-07-06_10h29.59.056,Colour_Asymmetry_Pilot,2022.1.3,MacIntel,35.71428571,62c50e9c1127f2cd403a315f,0,134,134,83,1,twofour,,,,,,,,,,,,,,,,,,,,,,,,,,,,,,,,,,,,,,,,,,,,,,,,,,,,,,,,,,,,,,,,,,,,,,,,,,,,,,,,,,,,,,,,,,,,,,,,,,,,,,,,,,,,,,,,,,,,,,,,,,,,,,,,,,,,,,,,,,,,,,,,,,,,,,,,,,,,,,
,,,,,,615d9a0ef34a6a806fe6ba3e,62c539ca505ca495f1f3dbea,2022-07-06_10h29.59.056,Colour_Asymmetry_Pilot,2022.1.3,MacIntel,35.71428571,62c50e9c1127f2cd403a315f,0,135,135,26,1,twoone,,,,,,,,,,,,,,,,,,,,,,,,,,,,,,,,,,,,,,,,,,,,,,,,,,,,,,,,,,,,,,,,,,,,,,,,,,,,,,,,,,,,,,,,,,,,,,,,,,,,,,,,,,,,,,,,,,,,,,,,,,,,,,,,,,,,,,,,,,,,,,,,,,,,,,,,,,,,,,
,,,,,,615d9a0ef34a6a806fe6ba3e,62c539ca505ca495f1f3dbea,2022-07-06_10h29.59.056,Colour_Asymmetry_Pilot,2022.1.3,MacIntel,35.71428571,62c50e9c1127f2cd403a315f,0,136,136,90,1,twoone,,,,,,,,,,,,,,,,,,,,,,,,,,,,,,,,,,,,,,,,,,,,,,,,,,,,,,,,,,,,,,,,,,,,,,,,,,,,,,,,,,,,,,,,,,,,,,,,,,,,,,,,,,,,,,,,,,,,,,,,,,,,,,,,,,,,,,,,,,,,,,,,,,,,,,,,,,,,,,
,,,,,,615d9a0ef34a6a806fe6ba3e,62c539ca505ca495f1f3dbea,2022-07-06_10h29.59.056,Colour_Asymmetry_Pilot,2022.1.3,MacIntel,35.71428571,62c50e9c1127f2cd403a315f,0,137,137,107,1,twofour,,,,,,,,,,,,,,,,,,,,,,,,,,,,,,,,,,,,,,,,,,,,,,,,,,,,,,,,,,,,,,,,,,,,,,,,,,,,,,,,,,,,,,,,,,,,,,,,,,,,,,,,,,,,,,,,,,,,,,,,,,,,,,,,,,,,,,,,,,,,,,,,,,,,,,,,,,,,,,
,,,,,,615d9a0ef34a6a806fe6ba3e,62c539ca505ca495f1f3dbea,2022-07-06_10h29.59.056,Colour_Asymmetry_Pilot,2022.1.3,MacIntel,35.71428571,62c50e9c1127f2cd403a315f,0,138,138,103,1,fourthree,,,,,,,,,,,,,,,,,,,,,,,,,,,,,,,,,,,,,,,,,,,,,,,,,,,,,,,,,,,,,,,,,,,,,,,,,,,,,,,,,,,,,,,,,,,,,,,,,,,,,,,,,,,,,,,,,,,,,,,,,,,,,,,,,,,,,,,,,,,,,,,,,,,,,,,,,,,,,,
,,,,,,615d9a0ef34a6a806fe6ba3e,62c539ca505ca495f1f3dbea,2022-07-06_10h29.59.056,Colour_Asymmetry_Pilot,2022.1.3,MacIntel,35.71428571,62c50e9c1127f2cd403a315f,0,139,139,36,1,threeone,,,,,,,,,,,,,,,,,,,,,,,,,,,,,,,,,,,,,,,,,,,,,,,,,,,,,,,,,,,,,,,,,,,,,,,,,,,,,,,,,,,,,,,,,,,,,,,,,,,,,,,,,,,,,,,,,,,,,,,,,,,,,,,,,,,,,,,,,,,,,,,,,,,,,,,,,,,,,,
,,,,,,615d9a0ef34a6a806fe6ba3e,62c539ca505ca495f1f3dbea,2022-07-06_10h29.59.056,Colour_Asymmetry_Pilot,2022.1.3,MacIntel,35.71428571,62c50e9c1127f2cd403a315f,0,140,140,76,1,threeone,,,,,,,,,,,,,,,,,,,,,,,,,,,,,,,,,,,,,,,,,,,,,,,,,,,,,,,,,,,,,,,,,,,,,,,,,,,,,,,,,,,,,,,,,,,,,,,,,,,,,,,,,,,,,,,,,,,,,,,,,,,,,,,,,,,,,,,,,,,,,,,,,,,,,,,,,,,,,,
,,,,,,615d9a0ef34a6a806fe6ba3e,62c539ca505ca495f1f3dbea,2022-07-06_10h29.59.056,Colour_Asymmetry_Pilot,2022.1.3,MacIntel,35.71428571,62c50e9c1127f2cd403a315f,0,141,141,5,1,threefour,,,,,,,,,,,,,,,,,,,,,,,,,,,,,,,,,,,,,,,,,,,,,,,,,,,,,,,,,,,,,,,,,,,,,,,,,,,,,,,,,,,,,,,,,,,,,,,,,,,,,,,,,,,,,,,,,,,,,,,,,,,,,,,,,,,,,,,,,,,,,,,,,,,,,,,,,,,,,,
,,,,,,615d9a0ef34a6a806fe6ba3e,62c539ca505ca495f1f3dbea,2022-07-06_10h29.59.056,Colour_Asymmetry_Pilot,2022.1.3,MacIntel,35.71428571,62c50e9c1127f2cd403a315f,0,142,142,122,1,twoone,,,,,,,,,,,,,,,,,,,,,,,,,,,,,,,,,,,,,,,,,,,,,,,,,,,,,,,,,,,,,,,,,,,,,,,,,,,,,,,,,,,,,,,,,,,,,,,,,,,,,,,,,,,,,,,,,,,,,,,,,,,,,,,,,,,,,,,,,,,,,,,,,,,,,,,,,,,,,,
,,,,,,615d9a0ef34a6a806fe6ba3e,62c539ca505ca495f1f3dbea,2022-07-06_10h29.59.056,Colour_Asymmetry_Pilot,2022.1.3,MacIntel,35.71428571,62c50e9c1127f2cd403a315f,0,143,143,74,1,twoone,,,,,,,,,,,,,,,,,,,,,,,,,,,,,,,,,,,,,,,,,,,,,,,,,,,,,,,,,,,,,,,,,,,,,,,,,,,,,,,,,,,,,,,,,,,,,,,,,,,,,,,,,,,,,,,,,,,,,,,,,,,,,,,,,,,,,,,,,,,,,,,,,,,,,,,,,,,,,,
,,,,,,615d9a0ef34a6a806fe6ba3e,62c539ca505ca495f1f3dbea,2022-07-06_10h29.59.056,Colour_Asymmetry_Pilot,2022.1.3,MacIntel,35.71428571,62c50e9c1127f2cd403a315f,0,144,144,13,1,threefour,,,,,,,,,,,,,,,,,,,,,,,,,,,,,,,,,,,,,,,,,,,,,,,,,,,,,,,,,,,,,,,,,,,,,,,,,,,,,,,,,,,,,,,,,,,,,,,,,,,,,,,,,,,,,,,,,,,,,,,,,,,,,,,,,,,,,,,,,,,,,,,,,,,,,,,,,,,,,,
,,,,,,615d9a0ef34a6a806fe6ba3e,62c539ca505ca495f1f3dbea,2022-07-06_10h29.59.056,Colour_Asymmetry_Pilot,2022.1.3,MacIntel,35.71428571,62c50e9c1127f2cd403a315f,0,145,145,96,1,onetwo,,,,,,,,,,,,,,,,,,,,,,,,,,,,,,,,,,,,,,,,,,,,,,,,,,,,,,,,,,,,,,,,,,,,,,,,,,,,,,,,,,,,,,,,,,,,,,,,,,,,,,,,,,,,,,,,,,,,,,,,,,,,,,,,,,,,,,,,,,,,,,,,,,,,,,,,,,,,,,
,,,,,,615d9a0ef34a6a806fe6ba3e,62c539ca505ca495f1f3dbea,2022-07-06_10h29.59.056,Colour_Asymmetry_Pilot,2022.1.3,MacIntel,35.71428571,62c50e9c1127f2cd403a315f,0,146,146,72,1,onetwo,,,,,,,,,,,,,,,,,,,,,,,,,,,,,,,,,,,,,,,,,,,,,,,,,,,,,,,,,,,,,,,,,,,,,,,,,,,,,,,,,,,,,,,,,,,,,,,,,,,,,,,,,,,,,,,,,,,,,,,,,,,,,,,,,,,,,,,,,,,,,,,,,,,,,,,,,,,,,,
,,,,,,615d9a0ef34a6a806fe6ba3e,62c539ca505ca495f1f3dbea,2022-07-06_10h29.59.056,Colour_Asymmetry_Pilot,2022.1.3,MacIntel,35.71428571,62c50e9c1127f2cd403a315f,0,147,147,16,1,onetwo,,,,,,,,,,,,,,,,,,,,,,,,,,,,,,,,,,,,,,,,,,,,,,,,,,,,,,,,,,,,,,,,,,,,,,,,,,,,,,,,,,,,,,,,,,,,,,,,,,,,,,,,,,,,,,,,,,,,,,,,,,,,,,,,,,,,,,,,,,,,,,,,,,,,,,,,,,,,,,
,,,,,,615d9a0ef34a6a806fe6ba3e,62c539ca505ca495f1f3dbea,2022-07-06_10h29.59.056,Colour_Asymmetry_Pilot,2022.1.3,MacIntel,35.71428571,62c50e9c1127f2cd403a315f,0,148,148,149,1,threefour,,,,,,,,,,,,,,,,,,,,,,,,,,,,,,,,,,,,,,,,,,,,,,,,,,,,,,,,,,,,,,,,,,,,,,,,,,,,,,,,,,,,,,,,,,,,,,,,,,,,,,,,,,,,,,,,,,,,,,,,,,,,,,,,,,,,,,,,,,,,,,,,,,,,,,,,,,,,,,
,,,,,,615d9a0ef34a6a806fe6ba3e,62c539ca505ca495f1f3dbea,2022-07-06_10h29.59.056,Colour_Asymmetry_Pilot,2022.1.3,MacIntel,35.71428571,62c50e9c1127f2cd403a315f,0,149,149,51,1,twofour,,,,,,,,,,,,,,,,,,,,,,,,,,,,,,,,,,,,,,,,,,,,,,,,,,,,,,,,,,,,,,,,,,,,,,,,,,,,,,,,,,,,,,,,,,,,,,,,,,,,,,,,,,,,,,,,,,,,,,,,,,,,,,,,,,,,,,,,,,,,,,,,,,,,,,,,,,,,,,
,,,,,,615d9a0ef34a6a806fe6ba3e,62c539ca505ca495f1f3dbea,2022-07-06_10h29.59.056,Colour_Asymmetry_Pilot,2022.1.3,MacIntel,35.71428571,62c50e9c1127f2cd403a315f,0,150,150,120,1,onetwo,,,,,,,,,,,,,,,,,,,,,,,,,,,,,,,,,,,,,,,,,,,,,,,,,,,,,,,,,,,,,,,,,,,,,,,,,,,,,,,,,,,,,,,,,,,,,,,,,,,,,,,,,,,,,,,,,,,,,,,,,,,,,,,,,,,,,,,,,,,,,,,,,,,,,,,,,,,,,,
,,,,,,615d9a0ef34a6a806fe6ba3e,62c539ca505ca495f1f3dbea,2022-07-06_10h29.59.056,Colour_Asymmetry_Pilot,2022.1.3,MacIntel,35.71428571,62c50e9c1127f2cd403a315f,0,151,151,117,1,threefour,,,,,,,,,,,,,,,,,,,,,,,,,,,,,,,,,,,,,,,,,,,,,,,,,,,,,,,,,,,,,,,,,,,,,,,,,,,,,,,,,,,,,,,,,,,,,,,,,,,,,,,,,,,,,,,,,,,,,,,,,,,,,,,,,,,,,,,,,,,,,,,,,,,,,,,,,,,,,,
,,,,,,615d9a0ef34a6a806fe6ba3e,62c539ca505ca495f1f3dbea,2022-07-06_10h29.59.056,Colour_Asymmetry_Pilot,2022.1.3,MacIntel,35.71428571,62c50e9c1127f2cd403a315f,0,152,152,94,1,fourtwo,,,,,,,,,,,,,,,,,,,,,,,,,,,,,,,,,,,,,,,,,,,,,,,,,,,,,,,,,,,,,,,,,,,,,,,,,,,,,,,,,,,,,,,,,,,,,,,,,,,,,,,,,,,,,,,,,,,,,,,,,,,,,,,,,,,,,,,,,,,,,,,,,,,,,,,,,,,,,,
,,,,,,615d9a0ef34a6a806fe6ba3e,62c539ca505ca495f1f3dbea,2022-07-06_10h29.59.056,Colour_Asymmetry_Pilot,2022.1.3,MacIntel,35.71428571,62c50e9c1127f2cd403a315f,0,153,153,84,1,threeone,,,,,,,,,,,,,,,,,,,,,,,,,,,,,,,,,,,,,,,,,,,,,,,,,,,,,,,,,,,,,,,,,,,,,,,,,,,,,,,,,,,,,,,,,,,,,,,,,,,,,,,,,,,,,,,,,,,,,,,,,,,,,,,,,,,,,,,,,,,,,,,,,,,,,,,,,,,,,,
,,,,,,615d9a0ef34a6a806fe6ba3e,62c539ca505ca495f1f3dbea,2022-07-06_10h29.59.056,Colour_Asymmetry_Pilot,2022.1.3,MacIntel,35.71428571,62c50e9c1127f2cd403a315f,0,154,154,142,1,fourtwo,,,,,,,,,,,,,,,,,,,,,,,,,,,,,,,,,,,,,,,,,,,,,,,,,,,,,,,,,,,,,,,,,,,,,,,,,,,,,,,,,,,,,,,,,,,,,,,,,,,,,,,,,,,,,,,,,,,,,,,,,,,,,,,,,,,,,,,,,,,,,,,,,,,,,,,,,,,,,,
,,,,,,615d9a0ef34a6a806fe6ba3e,62c539ca505ca495f1f3dbea,2022-07-06_10h29.59.056,Colour_Asymmetry_Pilot,2022.1.3,MacIntel,35.71428571,62c50e9c1127f2cd403a315f,0,155,155,12,1,threeone,,,,,,,,,,,,,,,,,,,,,,,,,,,,,,,,,,,,,,,,,,,,,,,,,,,,,,,,,,,,,,,,,,,,,,,,,,,,,,,,,,,,,,,,,,,,,,,,,,,,,,,,,,,,,,,,,,,,,,,,,,,,,,,,,,,,,,,,,,,,,,,,,,,,,,,,,,,,,,
,,,,,,615d9a0ef34a6a806fe6ba3e,62c539ca505ca495f1f3dbea,2022-07-06_10h29.59.056,Colour_Asymmetry_Pilot,2022.1.3,MacIntel,35.71428571,62c50e9c1127f2cd403a315f,0,156,156,91,1,twofour,,,,,,,,,,,,,,,,,,,,,,,,,,,,,,,,,,,,,,,,,,,,,,,,,,,,,,,,,,,,,,,,,,,,,,,,,,,,,,,,,,,,,,,,,,,,,,,,,,,,,,,,,,,,,,,,,,,,,,,,,,,,,,,,,,,,,,,,,,,,,,,,,,,,,,,,,,,,,,
,,,,,,615d9a0ef34a6a806fe6ba3e,62c539ca505ca495f1f3dbea,2022-07-06_10h29.59.056,Colour_Asymmetry_Pilot,2022.1.3,MacIntel,35.71428571,62c50e9c1127f2cd403a315f,0,157,157,108,1,threeone,,,,,,,,,,,,,,,,,,,,,,,,,,,,,,,,,,,,,,,,,,,,,,,,,,,,,,,,,,,,,,,,,,,,,,,,,,,,,,,,,,,,,,,,,,,,,,,,,,,,,,,,,,,,,,,,,,,,,,,,,,,,,,,,,,,,,,,,,,,,,,,,,,,,,,,,,,,,,,
,,,,,,615d9a0ef34a6a806fe6ba3e,62c539ca505ca495f1f3dbea,2022-07-06_10h29.59.056,Colour_Asymmetry_Pilot,2022.1.3,MacIntel,35.71428571,62c50e9c1127f2cd403a315f,0,158,158,71,1,fourthree,,,,,,,,,,,,,,,,,,,,,,,,,,,,,,,,,,,,,,,,,,,,,,,,,,,,,,,,,,,,,,,,,,,,,,,,,,,,,,,,,,,,,,,,,,,,,,,,,,,,,,,,,,,,,,,,,,,,,,,,,,,,,,,,,,,,,,,,,,,,,,,,,,,,,,,,,,,,,,
,,,,,,615d9a0ef34a6a806fe6ba3e,62c539ca505ca495f1f3dbea,2022-07-06_10h29.59.056,Colour_Asymmetry_Pilot,2022.1.3,MacIntel,35.71428571,62c50e9c1127f2cd403a315f,0,159,159,114,1,twoone,,,,,,,,,,,,,,,,,,,,,,,,,,,,,,,,,,,,,,,,,,,,,,,,,,,,,,,,,,,,,,,,,,,,,,,,,,,,,,,,,,,,,,,,,,,,,,,,,,,,,,,,,,,,,,,,,,,,,,,,,,,,,,,,,,,,,,,,,,,,,,,,,,,,,,,,,,,,,,
,,,,,,615d9a0ef34a6a806fe6ba3e,62c539ca505ca495f1f3dbea,2022-07-06_10h29.59.056,Colour_Asymmetry_Pilot,2022.1.3,MacIntel,35.71428571,62c50e9c1127f2cd403a315f,0,160,160,93,1,threefour,,,,,,,,,,,,,,,,,,,,,,,,,,,,,,,,,,,,,,,,,,,,,,,,,,,,,,,,,,,,,,,,,,,,,,,,,,,,,,,,,,,,,,,,,,,,,,,,,,,,,,,,,,,,,,,,,,,,,,,,,,,,,,,,,,,,,,,,,,,,,,,,,,,,,,,,,,,,,,
,,,,,,615d9a0ef34a6a806fe6ba3e,62c539ca505ca495f1f3dbea,2022-07-06_10h29.59.056,Colour_Asymmetry_Pilot,2022.1.3,MacIntel,35.71428571,62c50e9c1127f2cd403a315f,0,161,161,0,1,onetwo,,,,,,,,,,,,,,,,,,,,,,,,,,,,,,,,,,,,,,,,,,,,,,,,,,,,,,,,,,,,,,,,,,,,,,,,,,,,,,,,,,,,,,,,,,,,,,,,,,,,,,,,,,,,,,,,,,,,,,,,,,,,,,,,,,,,,,,,,,,,,,,,,,,,,,,,,,,,,,
,,,,,,615d9a0ef34a6a806fe6ba3e,62c539ca505ca495f1f3dbea,2022-07-06_10h29.59.056,Colour_Asymmetry_Pilot,2022.1.3,MacIntel,35.71428571,62c50e9c1127f2cd403a315f,,,,,,,space,2.359,space,14.596,space,12.774,space,1.202,space,3.02,space,3.522,"[0.9686000000000001,0.3802000000000001,0.19999999999999996]",onethree,"[-0.9688,-0.7412000000000001,-0.4902000000000001]",2,7.072,109,-47,1,0,0,response3disk_5,9,8,1,0,0,rectangle_8,9,8,1,0,0,1,9,8,1,0,0,0,0,0,0,1,,,,,,,,,,,,,,,,,,,,,,,,,,,,,,,,,,,,,,,,,,,,,,,,,,,,,,,,,,,,,,,,,,,,,,,,,,,,,,,,,,,,,,,,,,,,,,,,,,,,,,,,,,,,,,,,,
,,,,,,615d9a0ef34a6a806fe6ba3e,62c539ca505ca495f1f3dbea,2022-07-06_10h29.59.056,Colour_Asymmetry_Pilot,2022.1.3,MacIntel,35.71428571,62c50e9c1127f2cd403a315f,,,,,,,,,,,,,,,,,,,"[-0.34920000000000007,-0.702,-0.5216]",threeone,"[-0.2942,-0.7648,-0.7492000000000001]",-4,1.304,-42,103,1,0,0,response7disk_5,-1,4,1,0,0,rectangle_8,46,-110,1,0,0,1,-24,-10,1,0,0,1,0,1,0,1,response3disk_7,4,rectangle_4,,,,,,,,,,,,,,,,,,,,,,,,,,,,,,,,,,,,,,,,,,,,,,,,,,,,,,,,,,,,,,,,,,,,,,,,,,,,,,,,,,,,,,,,,,,,,,,,,,,,,,,,,,,,,,
,,,,,,615d9a0ef34a6a806fe6ba3e,62c539ca505ca495f1f3dbea,2022-07-06_10h29.59.056,Colour_Asymmetry_Pilot,2022.1.3,MacIntel,35.71428571,62c50e9c1127f2cd403a315f,,,,,,,,,,,,,,,,,,,"[-0.6,0.16860000000000008,0.44300000000000006]",fourthree,"[-0.9216,-0.5529999999999999,-0.3962]",4,8.443,71,117,1,0,0,response1disk_5,-7,3,1,0,0,rectangle_8,-7,3,1,0,0,1,-7,3,1,0,0,2,0,2,0,1,,,,,,,,,,,,,,,,,,,,,,,,,,,,,,,,,,,,,,,,,,,,,,,,,,,,,,,,,,,,,,,,,,,,,,,,,,,,,,,,,,,,,,,,,,,,,,,,,,,,,,,,,,,,,,,,,
,,,,,,615d9a0ef34a6a806fe6ba3e,62c539ca505ca495f1f3dbea,2022-07-06_10h29.59.056,Colour_Asymmetry_Pilot,2022.1.3,MacIntel,35.71428571,62c50e9c1127f2cd403a315f,,,,,,,,,,,,,,,,,,,"[0.3568,-0.20799999999999996,-0.9844]",twoone,"[-0.9138,-0.5296000000000001,-0.5529999999999999]",-4,2.241,-32,107,1,0,0,response7disk_5,17,-1,1,0,0,rectangle_8,17,-1,1,0,0,1,17,-1,1,0,0,3,0,3,0,1,,,,,,,,,,,,,,,,,,,,,,,,,,,,,,,,,,,,,,,,,,,,,,,,,,,,,,,,,,,,,,,,,,,,,,,,,,,,,,,,,,,,,,,,,,,,,,,,,,,,,,,,,,,,,,,,,
,,,,,,615d9a0ef34a6a806fe6ba3e,62c539ca505ca495f1f3dbea,2022-07-06_10h29.59.056,Colour_Asymmetry_Pilot,2022.1.3,MacIntel,35.71428571,62c50e9c1127f2cd403a315f,,,,,,,,,,,,,,,,,,,"[-0.45899999999999996,-0.3256,-0.9374]",onetwo,"[-0.26280000000000003,-0.4746,-0.2158]",-4,2.341,-47,104,1,0,0,response7disk_5,10,9,1,0,0,rectangle_8,16,-22,1,0,0,1,16,3,1,0,0,4,0,4,0,1,response3disk_7,4,rectangle_4,,,,,,,,,,,,,,,,,,,,,,,,,,,,,,,,,,,,,,,,,,,,,,,,,,,,,,,,,,,,,,,,,,,,,,,,,,,,,,,,,,,,,,,,,,,,,,,,,,,,,,,,,,,,,,
,,,,,,615d9a0ef34a6a806fe6ba3e,62c539ca505ca495f1f3dbea,2022-07-06_10h29.59.056,Colour_Asymmetry_Pilot,2022.1.3,MacIntel,35.71428571,62c50e9c1127f2cd403a315f,,,,,,,,,,,,,,,,,,,"[-0.2942,-0.7648,-0.7492000000000001]",onetwo,"[0.30180000000000007,-0.7884,-0.9844]",4,1.437,33,94,1,0,0,response1disk_5,-6,-13,1,0,0,rectangle_8,-6,-13,1,0,0,1,-6,-13,1,0,0,5,0,5,0,1,,,,,,,,,,,,,,,,,,,,,,,,,,,,,,,,,,,,,,,,,,,,,,,,,,,,,,,,,,,,,,,,,,,,,,,,,,,,,,,,,,,,,,,,,,,,,,,,,,,,,,,,,,,,,,,,,
,,,,,,615d9a0ef34a6a806fe6ba3e,62c539ca505ca495f1f3dbea,2022-07-06_10h29.59.056,Colour_Asymmetry_Pilot,2022.1.3,MacIntel,35.71428571,62c50e9c1127f2cd403a315f,,,,,,,,,,,,,,,,,,,"[-0.10599999999999998,-0.10599999999999998,0.5841999999999998]",threefour,"[-0.7412000000000001,-0.08239999999999992,-0.6864]",-4,2.292,-33,80,1,0,0,response7disk_5,-1,7,1,0,0,rectangle_8,-1,7,1,0,0,1,-1,7,1,0,0,6,0,6,0,1,,,,,,,,,,,,,,,,,,,,,,,,,,,,,,,,,,,,,,,,,,,,,,,,,,,,,,,,,,,,,,,,,,,,,,,,,,,,,,,,,,,,,,,,,,,,,,,,,,,,,,,,,,,,,,,,,
,,,,,,615d9a0ef34a6a806fe6ba3e,62c539ca505ca495f1f3dbea,2022-07-06_10h29.59.056,Colour_Asymmetry_Pilot,2022.1.3,MacIntel,35.71428571,62c50e9c1127f2cd403a315f,,,,,,,,,,,,,,,,,,,,twoone,,4,0.935,,,,,,,,,,,,,,,,,,,,,,,,,,,,,,,,space,5.398,"[-0.8118,-0.8198,-0.5452]","[-0.30200000000000005,0.14500000000000002,0.2784]",45,89,1,0,0,response1disk,21,-4,1,0,0,rectangle,21,-4,1,0,0,,3,0.006,0,21,-4,1,0,0,0,0,0,69,1,69,first,,,,,,,,,,,,,,,,,,,,,,,,,,,,,,,,,,,,,,,,,,,,,,,,,,,,,,,,,,,,,,,,,,,,,,,,,
,,,,,,615d9a0ef34a6a806fe6ba3e,62c539ca505ca495f1f3dbea,2022-07-06_10h29.59.056,Colour_Asymmetry_Pilot,2022.1.3,MacIntel,35.71428571,62c50e9c1127f2cd403a315f,,,,,,,,,,,,,,,,,,,,twofour,,-4,1.121,,,,,,,,,,,,,,,,,,,,,,,,,,,,,,,,,,"[0.8115999999999999,-0.0040000000000000036,-0.09819999999999995]","[-0.9766,-0.34920000000000007,0.2156]",-25,86,1,0,0,response7disk,-1,0,1,0,0,rectangle,-1,0,1,0,0,,2,0.002,0,-1,0,1,0,0,0,1,1,75,1,75,first,,,,,,,,,,,,,,,,,,,,,,,,,,,,,,,,,,,,,,,,,,,,,,,,,,,,,,,,,,,,,,,,,,,,,,,,,
,,,,,,615d9a0ef34a6a806fe6ba3e,62c539ca505ca495f1f3dbea,2022-07-06_10h29.59.056,Colour_Asymmetry_Pilot,2022.1.3,MacIntel,35.71428571,62c50e9c1127f2cd403a315f,,,,,,,,,,,,,,,,,,,,threeone,,4,0.953,,,,,,,,,,,,,,,,,,,,,,,,,,,,,,,,,,"[-0.4668,-0.8746,-0.2942]","[-0.2942,-0.7648,-0.7492000000000001]",51,115,1,0,0,response1disk,8,2,1,0,0,rectangle,8,2,1,0,0,,3,0.002,0,8,2,1,0,0,0,2,2,20,1,20,first,,,,,,,,,,,,,,,,,,,,,,,,,,,,,,,,,,,,,,,,,,,,,,,,,,,,,,,,,,,,,,,,,,,,,,,,,
,,,,,,615d9a0ef34a6a806fe6ba3e,62c539ca505ca495f1f3dbea,2022-07-06_10h29.59.056,Colour_Asymmetry_Pilot,2022.1.3,MacIntel,35.71428571,62c50e9c1127f2cd403a315f,,,,,,,,,,,,,,,,,,,,twoone,,-4,0.619,,,,,,,,,,,,,,,,,,,,,,,,,,,,,,,,,,"[0.7018,0.7176,0.6155999999999999]","[-0.9688,-0.38039999999999996,-0.41979999999999995]",-41,101,1,0,0,response7disk,-18,-4,1,0,0,rectangle,103,-47,1,0,0,2,2,14.128,1,-11,-2,1,0,0,0,3,3,104,1,23,second,response3disk_3,rectangle,,,,,,,,,,,,,,,,,,,,,,,,,,,,,,,,,,,,,,,,,,,,,,,,,,,,,,,,,,,,,,,,,,,,,,,
,,,,,,615d9a0ef34a6a806fe6ba3e,62c539ca505ca495f1f3dbea,2022-07-06_10h29.59.056,Colour_Asymmetry_Pilot,2022.1.3,MacIntel,35.71428571,62c50e9c1127f2cd403a315f,,,,,,,,,,,,,,,,,,,,onethree,,-4,0.502,,,,,,,,,,,,,,,,,,,,,,,,,,,,,,,,,,"[0.3881999999999999,-0.23939999999999995,-0.05040000000000011]","[0.5528,0.7409999999999999,-0.71]",-44,88,1,0,0,response7disk,-1,2,1,0,0,rectangle,-1,2,1,0,0,2,3,0.003,0,-1,2,1,0,0,0,4,4,37,1,37,first,,,,,,,,,,,,,,,,,,,,,,,,,,,,,,,,,,,,,,,,,,,,,,,,,,,,,,,,,,,,,,,,,,,,,,,,,
,,,,,,615d9a0ef34a6a806fe6ba3e,62c539ca505ca495f1f3dbea,2022-07-06_10h29.59.056,Colour_Asymmetry_Pilot,2022.1.3,MacIntel,35.71428571,62c50e9c1127f2cd403a315f,,,,,,,,,,,,,,,,,,,,twofour,,-4,0.921,,,,,,,,,,,,,,,,,,,,,,,,,,,,,,,,,,"[-0.9296,-0.12959999999999994,-0.043199999999999905]","[0.9763999999999999,0.30979999999999985,-0.6786]",-36,109,1,0,0,response7disk,-6,4,1,0,0,rectangle,-6,4,1,0,0,2,2,0.002,0,-6,4,1,0,0,0,5,5,137,1,56,second,,,,,,,,,,,,,,,,,,,,,,,,,,,,,,,,,,,,,,,,,,,,,,,,,,,,,,,,,,,,,,,,,,,,,,,,,
,,,,,,615d9a0ef34a6a806fe6ba3e,62c539ca505ca495f1f3dbea,2022-07-06_10h29.59.056,Colour_Asymmetry_Pilot,2022.1.3,MacIntel,35.71428571,62c50e9c1127f2cd403a315f,,,,,,,,,,,,,,,,,,,,fourtwo,,-4,0.852,,,,,,,,,,,,,,,,,,,,,,,,,,,,,,,,,,"[-0.30200000000000005,0.14500000000000002,0.2784]","[-0.2942,-0.24719999999999998,-0.357]",-32,106,1,0,0,response7disk,0,-2,1,0,0,rectangle,0,-2,1,0,0,2,1,0.002,0,0,-2,1,0,0,0,6,6,38,1,38,first,,,,,,,,,,,,,,,,,,,,,,,,,,,,,,,,,,,,,,,,,,,,,,,,,,,,,,,,,,,,,,,,,,,,,,,,,
,,,,,,615d9a0ef34a6a806fe6ba3e,62c539ca505ca495f1f3dbea,2022-07-06_10h29.59.056,Colour_Asymmetry_Pilot,2022.1.3,MacIntel,35.71428571,62c50e9c1127f2cd403a315f,,,,,,,,,,,,,,,,,,,,onetwo,,-4,0.937,,,,,,,,,,,,,,,,,,,,,,,,,,,,,,,,,,"[0.05879999999999996,0.2784,0.5841999999999998]","[-0.4902000000000001,0.2704,-0.45899999999999996]",-45,103,1,0,0,response7disk,-10,7,1,0,0,rectangle,115,-54,1,0,0,2,2,3.194,1,-19,-5,1,0,0,0,7,7,97,1,16,second,response3disk_3,rectangle,,,,,,,,,,,,,,,,,,,,,,,,,,,,,,,,,,,,,,,,,,,,,,,,,,,,,,,,,,,,,,,,,,,,,,,
,,,,,,615d9a0ef34a6a806fe6ba3e,62c539ca505ca495f1f3dbea,2022-07-06_10h29.59.056,Colour_Asymmetry_Pilot,2022.1.3,MacIntel,35.71428571,62c50e9c1127f2cd403a315f,,,,,,,,,,,,,,,,,,,,fourthree,,-4,0.552,,,,,,,,,,,,,,,,,,,,,,,,,,,,,,,,,,"[0.19199999999999995,0.18419999999999992,0.5136000000000001]","[-0.9138,-0.5296000000000001,-0.5529999999999999]",-35,86,1,0,0,response7disk,-6,2,1,0,0,rectangle,-6,2,1,0,0,2,2,0.001,0,-6,2,1,0,0,0,8,8,60,1,60,first,,,,,,,,,,,,,,,,,,,,,,,,,,,,,,,,,,,,,,,,,,,,,,,,,,,,,,,,,,,,,,,,,,,,,,,,,
,,,,,,615d9a0ef34a6a806fe6ba3e,62c539ca505ca495f1f3dbea,2022-07-06_10h29.59.056,Colour_Asymmetry_Pilot,2022.1.3,MacIntel,35.71428571,62c50e9c1127f2cd403a315f,,,,,,,,,,,,,,,,,,,,onetwo,,-4,0.486,,,,,,,,,,,,,,,,,,,,,,,,,,,,,,,,,,"[0.19199999999999995,0.18419999999999992,0.5136000000000001]","[-0.17659999999999998,0.3253999999999999,0.19999999999999996]",-48,91,1,0,0,response7disk,-6,-4,1,0,0,rectangle,-6,-4,1,0,0,2,2,0,0,-6,-4,1,0,0,0,9,9,10,1,10,first,,,,,,,,,,,,,,,,,,,,,,,,,,,,,,,,,,,,,,,,,,,,,,,,,,,,,,,,,,,,,,,,,,,,,,,,,
,,,,,,615d9a0ef34a6a806fe6ba3e,62c539ca505ca495f1f3dbea,2022-07-06_10h29.59.056,Colour_Asymmetry_Pilot,2022.1.3,MacIntel,35.71428571,62c50e9c1127f2cd403a315f,,,,,,,,,,,,,,,,,,,,fourthree,,-4,0.418,,,,,,,,,,,,,,,,,,,,,,,,,,,,,,,,,,"[0.3881999999999999,-0.23939999999999995,-0.05040000000000011]","[-0.8118,-0.8198,-0.5452]",-33,63,1,0,0,response7disk,-1,-10,1,0,0,rectangle,-1,-10,1,0,0,2,3,0.002,0,-1,-10,1,0,0,0,10,10,24,1,24,first,,,,,,,,,,,,,,,,,,,,,,,,,,,,,,,,,,,,,,,,,,,,,,,,,,,,,,,,,,,,,,,,,,,,,,,,,
,,,,,,615d9a0ef34a6a806fe6ba3e,62c539ca505ca495f1f3dbea,2022-07-06_10h29.59.056,Colour_Asymmetry_Pilot,2022.1.3,MacIntel,35.71428571,62c50e9c1127f2cd403a315f,,,,,,,,,,,,,,,,,,,,fourtwo,,4,0.636,,,,,,,,,,,,,,,,,,,,,,,,,,,,,,,,,,"[-0.34920000000000007,-0.702,-0.5216]","[-0.26280000000000003,-0.4746,-0.2158]",63,101,1,0,0,response1disk,16,3,1,0,0,rectangle,16,3,1,0,0,2,1,0.003,0,16,3,1,0,0,0,11,11,93,1,12,second,,,,,,,,,,,,,,,,,,,,,,,,,,,,,,,,,,,,,,,,,,,,,,,,,,,,,,,,,,,,,,,,,,,,,,,,,
,,,,,,615d9a0ef34a6a806fe6ba3e,62c539ca505ca495f1f3dbea,2022-07-06_10h29.59.056,Colour_Asymmetry_Pilot,2022.1.3,MacIntel,35.71428571,62c50e9c1127f2cd403a315f,,,,,,,,,,,,,,,,,,,,twoone,,-4,2.357,,,,,,,,,,,,,,,,,,,,,,,,,,,,,,,,,,"[0.2862,0.7802,0.3568]","[0.6625999999999999,0.4980000000000002,-0.357]",-73,83,1,0,0,response7disk,-1,-4,1,0,0,rectangle,-1,-4,1,0,0,2,3,0.002,0,-1,-4,1,0,0,0,12,12,139,1,58,second,,,,,,,,,,,,,,,,,,,,,,,,,,,,,,,,,,,,,,,,,,,,,,,,,,,,,,,,,,,,,,,,,,,,,,,,,
,,,,,,615d9a0ef34a6a806fe6ba3e,62c539ca505ca495f1f3dbea,2022-07-06_10h29.59.056,Colour_Asymmetry_Pilot,2022.1.3,MacIntel,35.71428571,62c50e9c1127f2cd403a315f,,,,,,,,,,,,,,,,,,,,fourtwo,,-4,1.271,,,,,,,,,,,,,,,,,,,,,,,,,,,,,,,,,,"[0.9763999999999999,0.30979999999999985,-0.6786]","[-0.26280000000000003,-0.4746,-0.2158]",-42,96,1,0,0,response7disk,5,-6,1,0,0,rectangle,5,-6,1,0,0,2,3,0,0,5,-6,1,0,0,0,13,13,115,1,34,second,,,,,,,,,,,,,,,,,,,,,,,,,,,,,,,,,,,,,,,,,,,,,,,,,,,,,,,,,,,,,,,,,,,,,,,,,
,,,,,,615d9a0ef34a6a806fe6ba3e,62c539ca505ca495f1f3dbea,2022-07-06_10h29.59.056,Colour_Asymmetry_Pilot,2022.1.3,MacIntel,35.71428571,62c50e9c1127f2cd403a315f,,,,,,,,,,,,,,,,,,,,twofour,,4,0.418,,,,,,,,,,,,,,,,,,,,,,,,,,,,,,,,,,"[0.09799999999999986,-0.24719999999999998,0.15280000000000005]","[-0.4982,-0.2942,-0.0354000000000001]",33,88,1,0,0,response1disk,15,12,1,0,0,rectangle,48,-65,1,0,0,1,1,3.076,1,-12,13,1,0,0,0,14,14,161,1,80,second,response3disk_3,rectangle,,,,,,,,,,,,,,,,,,,,,,,,,,,,,,,,,,,,,,,,,,,,,,,,,,,,,,,,,,,,,,,,,,,,,,,
,,,,,,615d9a0ef34a6a806fe6ba3e,62c539ca505ca495f1f3dbea,2022-07-06_10h29.59.056,Colour_Asymmetry_Pilot,2022.1.3,MacIntel,35.71428571,62c50e9c1127f2cd403a315f,,,,,,,,,,,,,,,,,,,,onethree,,-4,0.419,,,,,,,,,,,,,,,,,,,,,,,,,,,,,,,,,,"[-0.8118,-0.8198,-0.5452]","[0.3881999999999999,-0.23939999999999995,-0.05040000000000011]",-51,93,1,0,0,response7disk,-21,12,1,0,0,rectangle,-21,12,1,0,0,1,1,0,0,-21,12,1,0,0,0,15,15,105,1,24,second,,,,,,,,,,,,,,,,,,,,,,,,,,,,,,,,,,,,,,,,,,,,,,,,,,,,,,,,,,,,,,,,,,,,,,,,,
