trials.thisRepN,trials.thisTrialN,trials.thisN,trials.thisIndex,trials.ran,Colourcodes,participant,session,date,expName,psychopyVersion,OS,frameRate,study_id,trials_4.thisRepN,trials_4.thisTrialN,trials_4.thisN,trials_4.thisIndex,trials_4.ran,StimulusPos,key_resp.keys,key_resp.rt,key_resp_2.keys,key_resp_2.rt,key_resp_15.keys,key_resp_15.rt,key_resp_17.keys,key_resp_17.rt,key_resp_9.keys,key_resp_9.rt,key_resp_10.keys,key_resp_10.rt,Circle1_col,Ecc,Circle2_col,similarity,response_time,mouse_5.x,mouse_5.y,mouse_5.leftButton,mouse_5.midButton,mouse_5.rightButton,mouse_5.clicked_name,mouse_10.x,mouse_10.y,mouse_10.leftButton,mouse_10.midButton,mouse_10.rightButton,mouse_10.clicked_name,mouse_7.x,mouse_7.y,mouse_7.leftButton,mouse_7.midButton,mouse_7.rightButton,catchnumberprac,mouse_6.x,mouse_6.y,mouse_6.leftButton,mouse_6.midButton,mouse_6.rightButton,duringprac.thisRepN,duringprac.thisTrialN,duringprac.thisN,duringprac.thisIndex,duringprac.ran,mouse_7.clicked_name,catchprac,mouse_6.clicked_name,key_resp_22.keys,key_resp_22.rt,Circle1_colour,Circle2_colour,mouse.x,mouse.y,mouse.leftButton,mouse.midButton,mouse.rightButton,mouse.clicked_name,mouse_2.x,mouse_2.y,mouse_2.leftButton,mouse_2.midButton,mouse_2.rightButton,mouse_2.clicked_name,mouse_3.x,mouse_3.y,mouse_3.leftButton,mouse_3.midButton,mouse_3.rightButton,catchresponse,catchnumber,response_time_catch,Catch,mouse_11.x,mouse_11.y,mouse_11.leftButton,mouse_11.midButton,mouse_11.rightButton,trials_2.thisRepN,trials_2.thisTrialN,trials_2.thisN,trials_2.thisIndex,trials_2.ran,Colourpair,Temporder,mouse_3.clicked_name,mouse_11.clicked_name,trials_3.thisRepN,trials_3.thisTrialN,trials_3.thisN,trials_3.thisIndex,trials_3.ran,key_resp_instr_Ishi.keys,key_resp_instr_Ishi.rt,Ishi_trial_keyresp.keys,Ishi_textbox.text,Ishi_mouse.x,Ishi_mouse.y,Ishi_mouse.leftButton,Ishi_mouse.midButton,Ishi_mouse.rightButton,Ishi_mouse.clicked_name,Ishi_loop.thisRepN,Ishi_loop.thisTrialN,Ishi_loop.thisN,Ishi_loop.thisIndex,Ishi_loop.ran,imageaddress,textbox.text,mouse_4.x,mouse_4.y,mouse_4.leftButton,mouse_4.midButton,mouse_4.rightButton,mouse_4.clicked_name,textbox_2.text,mouse_8.x,mouse_8.y,mouse_8.leftButton,mouse_8.midButton,mouse_8.rightButton,mouse_8.clicked_name,textbox_3.text,mouse_9.x,mouse_9.y,mouse_9.leftButton,mouse_9.midButton,mouse_9.rightButton,mouse_9.clicked_name,textbox_4.text,mouse_12.x,mouse_12.y,mouse_12.leftButton,mouse_12.midButton,mouse_12.rightButton,mouse_12.clicked_name,textbox_5.text,mouse_13.x,mouse_13.y,mouse_13.leftButton,mouse_13.midButton,mouse_13.rightButton,mouse_13.clicked_name,textbox_6.text,mouse_14.x,mouse_14.y,mouse_14.leftButton,mouse_14.midButton,mouse_14.rightButton,mouse_14.clicked_name,textbox_7.text,mouse_15.x,mouse_15.y,mouse_15.leftButton,mouse_15.midButton,mouse_15.rightButton,mouse_15.clicked_name
0,0,0,81,1,,611cbdc447871199a422d10f,62c538dadcb3a72c003533ff,2022-07-06_09h25.41.722,Colour_Asymmetry_Pilot,2022.1.3,Win32,32,62c50e9c1127f2cd403a315f,,,,,,,,,,,,,,,,,,,,,,,,,,,,,,,,,,,,,,,,,,,,,,,,,,,,,,,,,,,,,,,,,,,,,,,,,,,,,,,,,,,,,,,,,,,,,,,,,,,,,,,,,,,,,,,,,,,,,,,,,,,,,,,,,,,,,,,,,,,,,,,,,,,,,,,,,,,,,,,,,,,
0,1,1,90,1,,611cbdc447871199a422d10f,62c538dadcb3a72c003533ff,2022-07-06_09h25.41.722,Colour_Asymmetry_Pilot,2022.1.3,Win32,32,62c50e9c1127f2cd403a315f,,,,,,,,,,,,,,,,,,,,,,,,,,,,,,,,,,,,,,,,,,,,,,,,,,,,,,,,,,,,,,,,,,,,,,,,,,,,,,,,,,,,,,,,,,,,,,,,,,,,,,,,,,,,,,,,,,,,,,,,,,,,,,,,,,,,,,,,,,,,,,,,,,,,,,,,,,,,,,,,,,,
0,2,2,8,1,,611cbdc447871199a422d10f,62c538dadcb3a72c003533ff,2022-07-06_09h25.41.722,Colour_Asymmetry_Pilot,2022.1.3,Win32,32,62c50e9c1127f2cd403a315f,,,,,,,,,,,,,,,,,,,,,,,,,,,,,,,,,,,,,,,,,,,,,,,,,,,,,,,,,,,,,,,,,,,,,,,,,,,,,,,,,,,,,,,,,,,,,,,,,,,,,,,,,,,,,,,,,,,,,,,,,,,,,,,,,,,,,,,,,,,,,,,,,,,,,,,,,,,,,,,,,,,
0,3,3,1,1,,611cbdc447871199a422d10f,62c538dadcb3a72c003533ff,2022-07-06_09h25.41.722,Colour_Asymmetry_Pilot,2022.1.3,Win32,32,62c50e9c1127f2cd403a315f,,,,,,,,,,,,,,,,,,,,,,,,,,,,,,,,,,,,,,,,,,,,,,,,,,,,,,,,,,,,,,,,,,,,,,,,,,,,,,,,,,,,,,,,,,,,,,,,,,,,,,,,,,,,,,,,,,,,,,,,,,,,,,,,,,,,,,,,,,,,,,,,,,,,,,,,,,,,,,,,,,,
0,4,4,66,1,,611cbdc447871199a422d10f,62c538dadcb3a72c003533ff,2022-07-06_09h25.41.722,Colour_Asymmetry_Pilot,2022.1.3,Win32,32,62c50e9c1127f2cd403a315f,,,,,,,,,,,,,,,,,,,,,,,,,,,,,,,,,,,,,,,,,,,,,,,,,,,,,,,,,,,,,,,,,,,,,,,,,,,,,,,,,,,,,,,,,,,,,,,,,,,,,,,,,,,,,,,,,,,,,,,,,,,,,,,,,,,,,,,,,,,,,,,,,,,,,,,,,,,,,,,,,,,
0,5,5,43,1,,611cbdc447871199a422d10f,62c538dadcb3a72c003533ff,2022-07-06_09h25.41.722,Colour_Asymmetry_Pilot,2022.1.3,Win32,32,62c50e9c1127f2cd403a315f,,,,,,,,,,,,,,,,,,,,,,,,,,,,,,,,,,,,,,,,,,,,,,,,,,,,,,,,,,,,,,,,,,,,,,,,,,,,,,,,,,,,,,,,,,,,,,,,,,,,,,,,,,,,,,,,,,,,,,,,,,,,,,,,,,,,,,,,,,,,,,,,,,,,,,,,,,,,,,,,,,,
0,6,6,46,1,,611cbdc447871199a422d10f,62c538dadcb3a72c003533ff,2022-07-06_09h25.41.722,Colour_Asymmetry_Pilot,2022.1.3,Win32,32,62c50e9c1127f2cd403a315f,,,,,,,,,,,,,,,,,,,,,,,,,,,,,,,,,,,,,,,,,,,,,,,,,,,,,,,,,,,,,,,,,,,,,,,,,,,,,,,,,,,,,,,,,,,,,,,,,,,,,,,,,,,,,,,,,,,,,,,,,,,,,,,,,,,,,,,,,,,,,,,,,,,,,,,,,,,,,,,,,,,
0,7,7,60,1,,611cbdc447871199a422d10f,62c538dadcb3a72c003533ff,2022-07-06_09h25.41.722,Colour_Asymmetry_Pilot,2022.1.3,Win32,32,62c50e9c1127f2cd403a315f,,,,,,,,,,,,,,,,,,,,,,,,,,,,,,,,,,,,,,,,,,,,,,,,,,,,,,,,,,,,,,,,,,,,,,,,,,,,,,,,,,,,,,,,,,,,,,,,,,,,,,,,,,,,,,,,,,,,,,,,,,,,,,,,,,,,,,,,,,,,,,,,,,,,,,,,,,,,,,,,,,,
0,8,8,13,1,,611cbdc447871199a422d10f,62c538dadcb3a72c003533ff,2022-07-06_09h25.41.722,Colour_Asymmetry_Pilot,2022.1.3,Win32,32,62c50e9c1127f2cd403a315f,,,,,,,,,,,,,,,,,,,,,,,,,,,,,,,,,,,,,,,,,,,,,,,,,,,,,,,,,,,,,,,,,,,,,,,,,,,,,,,,,,,,,,,,,,,,,,,,,,,,,,,,,,,,,,,,,,,,,,,,,,,,,,,,,,,,,,,,,,,,,,,,,,,,,,,,,,,,,,,,,,,
0,9,9,38,1,,611cbdc447871199a422d10f,62c538dadcb3a72c003533ff,2022-07-06_09h25.41.722,Colour_Asymmetry_Pilot,2022.1.3,Win32,32,62c50e9c1127f2cd403a315f,,,,,,,,,,,,,,,,,,,,,,,,,,,,,,,,,,,,,,,,,,,,,,,,,,,,,,,,,,,,,,,,,,,,,,,,,,,,,,,,,,,,,,,,,,,,,,,,,,,,,,,,,,,,,,,,,,,,,,,,,,,,,,,,,,,,,,,,,,,,,,,,,,,,,,,,,,,,,,,,,,,
0,10,10,21,1,,611cbdc447871199a422d10f,62c538dadcb3a72c003533ff,2022-07-06_09h25.41.722,Colour_Asymmetry_Pilot,2022.1.3,Win32,32,62c50e9c1127f2cd403a315f,,,,,,,,,,,,,,,,,,,,,,,,,,,,,,,,,,,,,,,,,,,,,,,,,,,,,,,,,,,,,,,,,,,,,,,,,,,,,,,,,,,,,,,,,,,,,,,,,,,,,,,,,,,,,,,,,,,,,,,,,,,,,,,,,,,,,,,,,,,,,,,,,,,,,,,,,,,,,,,,,,,
0,11,11,53,1,,611cbdc447871199a422d10f,62c538dadcb3a72c003533ff,2022-07-06_09h25.41.722,Colour_Asymmetry_Pilot,2022.1.3,Win32,32,62c50e9c1127f2cd403a315f,,,,,,,,,,,,,,,,,,,,,,,,,,,,,,,,,,,,,,,,,,,,,,,,,,,,,,,,,,,,,,,,,,,,,,,,,,,,,,,,,,,,,,,,,,,,,,,,,,,,,,,,,,,,,,,,,,,,,,,,,,,,,,,,,,,,,,,,,,,,,,,,,,,,,,,,,,,,,,,,,,,
0,12,12,48,1,,611cbdc447871199a422d10f,62c538dadcb3a72c003533ff,2022-07-06_09h25.41.722,Colour_Asymmetry_Pilot,2022.1.3,Win32,32,62c50e9c1127f2cd403a315f,,,,,,,,,,,,,,,,,,,,,,,,,,,,,,,,,,,,,,,,,,,,,,,,,,,,,,,,,,,,,,,,,,,,,,,,,,,,,,,,,,,,,,,,,,,,,,,,,,,,,,,,,,,,,,,,,,,,,,,,,,,,,,,,,,,,,,,,,,,,,,,,,,,,,,,,,,,,,,,,,,,
0,13,13,18,1,,611cbdc447871199a422d10f,62c538dadcb3a72c003533ff,2022-07-06_09h25.41.722,Colour_Asymmetry_Pilot,2022.1.3,Win32,32,62c50e9c1127f2cd403a315f,,,,,,,,,,,,,,,,,,,,,,,,,,,,,,,,,,,,,,,,,,,,,,,,,,,,,,,,,,,,,,,,,,,,,,,,,,,,,,,,,,,,,,,,,,,,,,,,,,,,,,,,,,,,,,,,,,,,,,,,,,,,,,,,,,,,,,,,,,,,,,,,,,,,,,,,,,,,,,,,,,,
0,14,14,56,1,,611cbdc447871199a422d10f,62c538dadcb3a72c003533ff,2022-07-06_09h25.41.722,Colour_Asymmetry_Pilot,2022.1.3,Win32,32,62c50e9c1127f2cd403a315f,,,,,,,,,,,,,,,,,,,,,,,,,,,,,,,,,,,,,,,,,,,,,,,,,,,,,,,,,,,,,,,,,,,,,,,,,,,,,,,,,,,,,,,,,,,,,,,,,,,,,,,,,,,,,,,,,,,,,,,,,,,,,,,,,,,,,,,,,,,,,,,,,,,,,,,,,,,,,,,,,,,
0,15,15,73,1,,611cbdc447871199a422d10f,62c538dadcb3a72c003533ff,2022-07-06_09h25.41.722,Colour_Asymmetry_Pilot,2022.1.3,Win32,32,62c50e9c1127f2cd403a315f,,,,,,,,,,,,,,,,,,,,,,,,,,,,,,,,,,,,,,,,,,,,,,,,,,,,,,,,,,,,,,,,,,,,,,,,,,,,,,,,,,,,,,,,,,,,,,,,,,,,,,,,,,,,,,,,,,,,,,,,,,,,,,,,,,,,,,,,,,,,,,,,,,,,,,,,,,,,,,,,,,,
0,16,16,71,1,,611cbdc447871199a422d10f,62c538dadcb3a72c003533ff,2022-07-06_09h25.41.722,Colour_Asymmetry_Pilot,2022.1.3,Win32,32,62c50e9c1127f2cd403a315f,,,,,,,,,,,,,,,,,,,,,,,,,,,,,,,,,,,,,,,,,,,,,,,,,,,,,,,,,,,,,,,,,,,,,,,,,,,,,,,,,,,,,,,,,,,,,,,,,,,,,,,,,,,,,,,,,,,,,,,,,,,,,,,,,,,,,,,,,,,,,,,,,,,,,,,,,,,,,,,,,,,
0,17,17,78,1,,611cbdc447871199a422d10f,62c538dadcb3a72c003533ff,2022-07-06_09h25.41.722,Colour_Asymmetry_Pilot,2022.1.3,Win32,32,62c50e9c1127f2cd403a315f,,,,,,,,,,,,,,,,,,,,,,,,,,,,,,,,,,,,,,,,,,,,,,,,,,,,,,,,,,,,,,,,,,,,,,,,,,,,,,,,,,,,,,,,,,,,,,,,,,,,,,,,,,,,,,,,,,,,,,,,,,,,,,,,,,,,,,,,,,,,,,,,,,,,,,,,,,,,,,,,,,,
0,18,18,16,1,,611cbdc447871199a422d10f,62c538dadcb3a72c003533ff,2022-07-06_09h25.41.722,Colour_Asymmetry_Pilot,2022.1.3,Win32,32,62c50e9c1127f2cd403a315f,,,,,,,,,,,,,,,,,,,,,,,,,,,,,,,,,,,,,,,,,,,,,,,,,,,,,,,,,,,,,,,,,,,,,,,,,,,,,,,,,,,,,,,,,,,,,,,,,,,,,,,,,,,,,,,,,,,,,,,,,,,,,,,,,,,,,,,,,,,,,,,,,,,,,,,,,,,,,,,,,,,
0,19,19,2,1,,611cbdc447871199a422d10f,62c538dadcb3a72c003533ff,2022-07-06_09h25.41.722,Colour_Asymmetry_Pilot,2022.1.3,Win32,32,62c50e9c1127f2cd403a315f,,,,,,,,,,,,,,,,,,,,,,,,,,,,,,,,,,,,,,,,,,,,,,,,,,,,,,,,,,,,,,,,,,,,,,,,,,,,,,,,,,,,,,,,,,,,,,,,,,,,,,,,,,,,,,,,,,,,,,,,,,,,,,,,,,,,,,,,,,,,,,,,,,,,,,,,,,,,,,,,,,,
0,20,20,26,1,,611cbdc447871199a422d10f,62c538dadcb3a72c003533ff,2022-07-06_09h25.41.722,Colour_Asymmetry_Pilot,2022.1.3,Win32,32,62c50e9c1127f2cd403a315f,,,,,,,,,,,,,,,,,,,,,,,,,,,,,,,,,,,,,,,,,,,,,,,,,,,,,,,,,,,,,,,,,,,,,,,,,,,,,,,,,,,,,,,,,,,,,,,,,,,,,,,,,,,,,,,,,,,,,,,,,,,,,,,,,,,,,,,,,,,,,,,,,,,,,,,,,,,,,,,,,,,
0,21,21,86,1,,611cbdc447871199a422d10f,62c538dadcb3a72c003533ff,2022-07-06_09h25.41.722,Colour_Asymmetry_Pilot,2022.1.3,Win32,32,62c50e9c1127f2cd403a315f,,,,,,,,,,,,,,,,,,,,,,,,,,,,,,,,,,,,,,,,,,,,,,,,,,,,,,,,,,,,,,,,,,,,,,,,,,,,,,,,,,,,,,,,,,,,,,,,,,,,,,,,,,,,,,,,,,,,,,,,,,,,,,,,,,,,,,,,,,,,,,,,,,,,,,,,,,,,,,,,,,,
0,22,22,29,1,,611cbdc447871199a422d10f,62c538dadcb3a72c003533ff,2022-07-06_09h25.41.722,Colour_Asymmetry_Pilot,2022.1.3,Win32,32,62c50e9c1127f2cd403a315f,,,,,,,,,,,,,,,,,,,,,,,,,,,,,,,,,,,,,,,,,,,,,,,,,,,,,,,,,,,,,,,,,,,,,,,,,,,,,,,,,,,,,,,,,,,,,,,,,,,,,,,,,,,,,,,,,,,,,,,,,,,,,,,,,,,,,,,,,,,,,,,,,,,,,,,,,,,,,,,,,,,
0,23,23,24,1,,611cbdc447871199a422d10f,62c538dadcb3a72c003533ff,2022-07-06_09h25.41.722,Colour_Asymmetry_Pilot,2022.1.3,Win32,32,62c50e9c1127f2cd403a315f,,,,,,,,,,,,,,,,,,,,,,,,,,,,,,,,,,,,,,,,,,,,,,,,,,,,,,,,,,,,,,,,,,,,,,,,,,,,,,,,,,,,,,,,,,,,,,,,,,,,,,,,,,,,,,,,,,,,,,,,,,,,,,,,,,,,,,,,,,,,,,,,,,,,,,,,,,,,,,,,,,,
0,24,24,39,1,,611cbdc447871199a422d10f,62c538dadcb3a72c003533ff,2022-07-06_09h25.41.722,Colour_Asymmetry_Pilot,2022.1.3,Win32,32,62c50e9c1127f2cd403a315f,,,,,,,,,,,,,,,,,,,,,,,,,,,,,,,,,,,,,,,,,,,,,,,,,,,,,,,,,,,,,,,,,,,,,,,,,,,,,,,,,,,,,,,,,,,,,,,,,,,,,,,,,,,,,,,,,,,,,,,,,,,,,,,,,,,,,,,,,,,,,,,,,,,,,,,,,,,,,,,,,,,
0,25,25,32,1,,611cbdc447871199a422d10f,62c538dadcb3a72c003533ff,2022-07-06_09h25.41.722,Colour_Asymmetry_Pilot,2022.1.3,Win32,32,62c50e9c1127f2cd403a315f,,,,,,,,,,,,,,,,,,,,,,,,,,,,,,,,,,,,,,,,,,,,,,,,,,,,,,,,,,,,,,,,,,,,,,,,,,,,,,,,,,,,,,,,,,,,,,,,,,,,,,,,,,,,,,,,,,,,,,,,,,,,,,,,,,,,,,,,,,,,,,,,,,,,,,,,,,,,,,,,,,,
0,26,26,92,1,,611cbdc447871199a422d10f,62c538dadcb3a72c003533ff,2022-07-06_09h25.41.722,Colour_Asymmetry_Pilot,2022.1.3,Win32,32,62c50e9c1127f2cd403a315f,,,,,,,,,,,,,,,,,,,,,,,,,,,,,,,,,,,,,,,,,,,,,,,,,,,,,,,,,,,,,,,,,,,,,,,,,,,,,,,,,,,,,,,,,,,,,,,,,,,,,,,,,,,,,,,,,,,,,,,,,,,,,,,,,,,,,,,,,,,,,,,,,,,,,,,,,,,,,,,,,,,
0,27,27,19,1,,611cbdc447871199a422d10f,62c538dadcb3a72c003533ff,2022-07-06_09h25.41.722,Colour_Asymmetry_Pilot,2022.1.3,Win32,32,62c50e9c1127f2cd403a315f,,,,,,,,,,,,,,,,,,,,,,,,,,,,,,,,,,,,,,,,,,,,,,,,,,,,,,,,,,,,,,,,,,,,,,,,,,,,,,,,,,,,,,,,,,,,,,,,,,,,,,,,,,,,,,,,,,,,,,,,,,,,,,,,,,,,,,,,,,,,,,,,,,,,,,,,,,,,,,,,,,,
0,28,28,5,1,,611cbdc447871199a422d10f,62c538dadcb3a72c003533ff,2022-07-06_09h25.41.722,Colour_Asymmetry_Pilot,2022.1.3,Win32,32,62c50e9c1127f2cd403a315f,,,,,,,,,,,,,,,,,,,,,,,,,,,,,,,,,,,,,,,,,,,,,,,,,,,,,,,,,,,,,,,,,,,,,,,,,,,,,,,,,,,,,,,,,,,,,,,,,,,,,,,,,,,,,,,,,,,,,,,,,,,,,,,,,,,,,,,,,,,,,,,,,,,,,,,,,,,,,,,,,,,
0,29,29,84,1,,611cbdc447871199a422d10f,62c538dadcb3a72c003533ff,2022-07-06_09h25.41.722,Colour_Asymmetry_Pilot,2022.1.3,Win32,32,62c50e9c1127f2cd403a315f,,,,,,,,,,,,,,,,,,,,,,,,,,,,,,,,,,,,,,,,,,,,,,,,,,,,,,,,,,,,,,,,,,,,,,,,,,,,,,,,,,,,,,,,,,,,,,,,,,,,,,,,,,,,,,,,,,,,,,,,,,,,,,,,,,,,,,,,,,,,,,,,,,,,,,,,,,,,,,,,,,,
0,30,30,82,1,,611cbdc447871199a422d10f,62c538dadcb3a72c003533ff,2022-07-06_09h25.41.722,Colour_Asymmetry_Pilot,2022.1.3,Win32,32,62c50e9c1127f2cd403a315f,,,,,,,,,,,,,,,,,,,,,,,,,,,,,,,,,,,,,,,,,,,,,,,,,,,,,,,,,,,,,,,,,,,,,,,,,,,,,,,,,,,,,,,,,,,,,,,,,,,,,,,,,,,,,,,,,,,,,,,,,,,,,,,,,,,,,,,,,,,,,,,,,,,,,,,,,,,,,,,,,,,
0,31,31,40,1,,611cbdc447871199a422d10f,62c538dadcb3a72c003533ff,2022-07-06_09h25.41.722,Colour_Asymmetry_Pilot,2022.1.3,Win32,32,62c50e9c1127f2cd403a315f,,,,,,,,,,,,,,,,,,,,,,,,,,,,,,,,,,,,,,,,,,,,,,,,,,,,,,,,,,,,,,,,,,,,,,,,,,,,,,,,,,,,,,,,,,,,,,,,,,,,,,,,,,,,,,,,,,,,,,,,,,,,,,,,,,,,,,,,,,,,,,,,,,,,,,,,,,,,,,,,,,,
0,32,32,36,1,,611cbdc447871199a422d10f,62c538dadcb3a72c003533ff,2022-07-06_09h25.41.722,Colour_Asymmetry_Pilot,2022.1.3,Win32,32,62c50e9c1127f2cd403a315f,,,,,,,,,,,,,,,,,,,,,,,,,,,,,,,,,,,,,,,,,,,,,,,,,,,,,,,,,,,,,,,,,,,,,,,,,,,,,,,,,,,,,,,,,,,,,,,,,,,,,,,,,,,,,,,,,,,,,,,,,,,,,,,,,,,,,,,,,,,,,,,,,,,,,,,,,,,,,,,,,,,
0,33,33,25,1,,611cbdc447871199a422d10f,62c538dadcb3a72c003533ff,2022-07-06_09h25.41.722,Colour_Asymmetry_Pilot,2022.1.3,Win32,32,62c50e9c1127f2cd403a315f,,,,,,,,,,,,,,,,,,,,,,,,,,,,,,,,,,,,,,,,,,,,,,,,,,,,,,,,,,,,,,,,,,,,,,,,,,,,,,,,,,,,,,,,,,,,,,,,,,,,,,,,,,,,,,,,,,,,,,,,,,,,,,,,,,,,,,,,,,,,,,,,,,,,,,,,,,,,,,,,,,,
0,34,34,11,1,,611cbdc447871199a422d10f,62c538dadcb3a72c003533ff,2022-07-06_09h25.41.722,Colour_Asymmetry_Pilot,2022.1.3,Win32,32,62c50e9c1127f2cd403a315f,,,,,,,,,,,,,,,,,,,,,,,,,,,,,,,,,,,,,,,,,,,,,,,,,,,,,,,,,,,,,,,,,,,,,,,,,,,,,,,,,,,,,,,,,,,,,,,,,,,,,,,,,,,,,,,,,,,,,,,,,,,,,,,,,,,,,,,,,,,,,,,,,,,,,,,,,,,,,,,,,,,
0,35,35,67,1,,611cbdc447871199a422d10f,62c538dadcb3a72c003533ff,2022-07-06_09h25.41.722,Colour_Asymmetry_Pilot,2022.1.3,Win32,32,62c50e9c1127f2cd403a315f,,,,,,,,,,,,,,,,,,,,,,,,,,,,,,,,,,,,,,,,,,,,,,,,,,,,,,,,,,,,,,,,,,,,,,,,,,,,,,,,,,,,,,,,,,,,,,,,,,,,,,,,,,,,,,,,,,,,,,,,,,,,,,,,,,,,,,,,,,,,,,,,,,,,,,,,,,,,,,,,,,,
0,36,36,69,1,,611cbdc447871199a422d10f,62c538dadcb3a72c003533ff,2022-07-06_09h25.41.722,Colour_Asymmetry_Pilot,2022.1.3,Win32,32,62c50e9c1127f2cd403a315f,,,,,,,,,,,,,,,,,,,,,,,,,,,,,,,,,,,,,,,,,,,,,,,,,,,,,,,,,,,,,,,,,,,,,,,,,,,,,,,,,,,,,,,,,,,,,,,,,,,,,,,,,,,,,,,,,,,,,,,,,,,,,,,,,,,,,,,,,,,,,,,,,,,,,,,,,,,,,,,,,,,
0,37,37,57,1,,611cbdc447871199a422d10f,62c538dadcb3a72c003533ff,2022-07-06_09h25.41.722,Colour_Asymmetry_Pilot,2022.1.3,Win32,32,62c50e9c1127f2cd403a315f,,,,,,,,,,,,,,,,,,,,,,,,,,,,,,,,,,,,,,,,,,,,,,,,,,,,,,,,,,,,,,,,,,,,,,,,,,,,,,,,,,,,,,,,,,,,,,,,,,,,,,,,,,,,,,,,,,,,,,,,,,,,,,,,,,,,,,,,,,,,,,,,,,,,,,,,,,,,,,,,,,,
0,38,38,34,1,,611cbdc447871199a422d10f,62c538dadcb3a72c003533ff,2022-07-06_09h25.41.722,Colour_Asymmetry_Pilot,2022.1.3,Win32,32,62c50e9c1127f2cd403a315f,,,,,,,,,,,,,,,,,,,,,,,,,,,,,,,,,,,,,,,,,,,,,,,,,,,,,,,,,,,,,,,,,,,,,,,,,,,,,,,,,,,,,,,,,,,,,,,,,,,,,,,,,,,,,,,,,,,,,,,,,,,,,,,,,,,,,,,,,,,,,,,,,,,,,,,,,,,,,,,,,,,
0,39,39,54,1,,611cbdc447871199a422d10f,62c538dadcb3a72c003533ff,2022-07-06_09h25.41.722,Colour_Asymmetry_Pilot,2022.1.3,Win32,32,62c50e9c1127f2cd403a315f,,,,,,,,,,,,,,,,,,,,,,,,,,,,,,,,,,,,,,,,,,,,,,,,,,,,,,,,,,,,,,,,,,,,,,,,,,,,,,,,,,,,,,,,,,,,,,,,,,,,,,,,,,,,,,,,,,,,,,,,,,,,,,,,,,,,,,,,,,,,,,,,,,,,,,,,,,,,,,,,,,,
0,40,40,44,1,,611cbdc447871199a422d10f,62c538dadcb3a72c003533ff,2022-07-06_09h25.41.722,Colour_Asymmetry_Pilot,2022.1.3,Win32,32,62c50e9c1127f2cd403a315f,,,,,,,,,,,,,,,,,,,,,,,,,,,,,,,,,,,,,,,,,,,,,,,,,,,,,,,,,,,,,,,,,,,,,,,,,,,,,,,,,,,,,,,,,,,,,,,,,,,,,,,,,,,,,,,,,,,,,,,,,,,,,,,,,,,,,,,,,,,,,,,,,,,,,,,,,,,,,,,,,,,
0,41,41,65,1,,611cbdc447871199a422d10f,62c538dadcb3a72c003533ff,2022-07-06_09h25.41.722,Colour_Asymmetry_Pilot,2022.1.3,Win32,32,62c50e9c1127f2cd403a315f,,,,,,,,,,,,,,,,,,,,,,,,,,,,,,,,,,,,,,,,,,,,,,,,,,,,,,,,,,,,,,,,,,,,,,,,,,,,,,,,,,,,,,,,,,,,,,,,,,,,,,,,,,,,,,,,,,,,,,,,,,,,,,,,,,,,,,,,,,,,,,,,,,,,,,,,,,,,,,,,,,,
0,42,42,52,1,,611cbdc447871199a422d10f,62c538dadcb3a72c003533ff,2022-07-06_09h25.41.722,Colour_Asymmetry_Pilot,2022.1.3,Win32,32,62c50e9c1127f2cd403a315f,,,,,,,,,,,,,,,,,,,,,,,,,,,,,,,,,,,,,,,,,,,,,,,,,,,,,,,,,,,,,,,,,,,,,,,,,,,,,,,,,,,,,,,,,,,,,,,,,,,,,,,,,,,,,,,,,,,,,,,,,,,,,,,,,,,,,,,,,,,,,,,,,,,,,,,,,,,,,,,,,,,
0,43,43,20,1,,611cbdc447871199a422d10f,62c538dadcb3a72c003533ff,2022-07-06_09h25.41.722,Colour_Asymmetry_Pilot,2022.1.3,Win32,32,62c50e9c1127f2cd403a315f,,,,,,,,,,,,,,,,,,,,,,,,,,,,,,,,,,,,,,,,,,,,,,,,,,,,,,,,,,,,,,,,,,,,,,,,,,,,,,,,,,,,,,,,,,,,,,,,,,,,,,,,,,,,,,,,,,,,,,,,,,,,,,,,,,,,,,,,,,,,,,,,,,,,,,,,,,,,,,,,,,,
0,44,44,59,1,,611cbdc447871199a422d10f,62c538dadcb3a72c003533ff,2022-07-06_09h25.41.722,Colour_Asymmetry_Pilot,2022.1.3,Win32,32,62c50e9c1127f2cd403a315f,,,,,,,,,,,,,,,,,,,,,,,,,,,,,,,,,,,,,,,,,,,,,,,,,,,,,,,,,,,,,,,,,,,,,,,,,,,,,,,,,,,,,,,,,,,,,,,,,,,,,,,,,,,,,,,,,,,,,,,,,,,,,,,,,,,,,,,,,,,,,,,,,,,,,,,,,,,,,,,,,,,
0,45,45,79,1,,611cbdc447871199a422d10f,62c538dadcb3a72c003533ff,2022-07-06_09h25.41.722,Colour_Asymmetry_Pilot,2022.1.3,Win32,32,62c50e9c1127f2cd403a315f,,,,,,,,,,,,,,,,,,,,,,,,,,,,,,,,,,,,,,,,,,,,,,,,,,,,,,,,,,,,,,,,,,,,,,,,,,,,,,,,,,,,,,,,,,,,,,,,,,,,,,,,,,,,,,,,,,,,,,,,,,,,,,,,,,,,,,,,,,,,,,,,,,,,,,,,,,,,,,,,,,,
0,46,46,17,1,,611cbdc447871199a422d10f,62c538dadcb3a72c003533ff,2022-07-06_09h25.41.722,Colour_Asymmetry_Pilot,2022.1.3,Win32,32,62c50e9c1127f2cd403a315f,,,,,,,,,,,,,,,,,,,,,,,,,,,,,,,,,,,,,,,,,,,,,,,,,,,,,,,,,,,,,,,,,,,,,,,,,,,,,,,,,,,,,,,,,,,,,,,,,,,,,,,,,,,,,,,,,,,,,,,,,,,,,,,,,,,,,,,,,,,,,,,,,,,,,,,,,,,,,,,,,,,
0,47,47,85,1,,611cbdc447871199a422d10f,62c538dadcb3a72c003533ff,2022-07-06_09h25.41.722,Colour_Asymmetry_Pilot,2022.1.3,Win32,32,62c50e9c1127f2cd403a315f,,,,,,,,,,,,,,,,,,,,,,,,,,,,,,,,,,,,,,,,,,,,,,,,,,,,,,,,,,,,,,,,,,,,,,,,,,,,,,,,,,,,,,,,,,,,,,,,,,,,,,,,,,,,,,,,,,,,,,,,,,,,,,,,,,,,,,,,,,,,,,,,,,,,,,,,,,,,,,,,,,,
0,48,48,22,1,,611cbdc447871199a422d10f,62c538dadcb3a72c003533ff,2022-07-06_09h25.41.722,Colour_Asymmetry_Pilot,2022.1.3,Win32,32,62c50e9c1127f2cd403a315f,,,,,,,,,,,,,,,,,,,,,,,,,,,,,,,,,,,,,,,,,,,,,,,,,,,,,,,,,,,,,,,,,,,,,,,,,,,,,,,,,,,,,,,,,,,,,,,,,,,,,,,,,,,,,,,,,,,,,,,,,,,,,,,,,,,,,,,,,,,,,,,,,,,,,,,,,,,,,,,,,,,
0,49,49,74,1,,611cbdc447871199a422d10f,62c538dadcb3a72c003533ff,2022-07-06_09h25.41.722,Colour_Asymmetry_Pilot,2022.1.3,Win32,32,62c50e9c1127f2cd403a315f,,,,,,,,,,,,,,,,,,,,,,,,,,,,,,,,,,,,,,,,,,,,,,,,,,,,,,,,,,,,,,,,,,,,,,,,,,,,,,,,,,,,,,,,,,,,,,,,,,,,,,,,,,,,,,,,,,,,,,,,,,,,,,,,,,,,,,,,,,,,,,,,,,,,,,,,,,,,,,,,,,,
0,50,50,35,1,,611cbdc447871199a422d10f,62c538dadcb3a72c003533ff,2022-07-06_09h25.41.722,Colour_Asymmetry_Pilot,2022.1.3,Win32,32,62c50e9c1127f2cd403a315f,,,,,,,,,,,,,,,,,,,,,,,,,,,,,,,,,,,,,,,,,,,,,,,,,,,,,,,,,,,,,,,,,,,,,,,,,,,,,,,,,,,,,,,,,,,,,,,,,,,,,,,,,,,,,,,,,,,,,,,,,,,,,,,,,,,,,,,,,,,,,,,,,,,,,,,,,,,,,,,,,,,
0,51,51,3,1,,611cbdc447871199a422d10f,62c538dadcb3a72c003533ff,2022-07-06_09h25.41.722,Colour_Asymmetry_Pilot,2022.1.3,Win32,32,62c50e9c1127f2cd403a315f,,,,,,,,,,,,,,,,,,,,,,,,,,,,,,,,,,,,,,,,,,,,,,,,,,,,,,,,,,,,,,,,,,,,,,,,,,,,,,,,,,,,,,,,,,,,,,,,,,,,,,,,,,,,,,,,,,,,,,,,,,,,,,,,,,,,,,,,,,,,,,,,,,,,,,,,,,,,,,,,,,,
0,52,52,88,1,,611cbdc447871199a422d10f,62c538dadcb3a72c003533ff,2022-07-06_09h25.41.722,Colour_Asymmetry_Pilot,2022.1.3,Win32,32,62c50e9c1127f2cd403a315f,,,,,,,,,,,,,,,,,,,,,,,,,,,,,,,,,,,,,,,,,,,,,,,,,,,,,,,,,,,,,,,,,,,,,,,,,,,,,,,,,,,,,,,,,,,,,,,,,,,,,,,,,,,,,,,,,,,,,,,,,,,,,,,,,,,,,,,,,,,,,,,,,,,,,,,,,,,,,,,,,,,
0,53,53,47,1,,611cbdc447871199a422d10f,62c538dadcb3a72c003533ff,2022-07-06_09h25.41.722,Colour_Asymmetry_Pilot,2022.1.3,Win32,32,62c50e9c1127f2cd403a315f,,,,,,,,,,,,,,,,,,,,,,,,,,,,,,,,,,,,,,,,,,,,,,,,,,,,,,,,,,,,,,,,,,,,,,,,,,,,,,,,,,,,,,,,,,,,,,,,,,,,,,,,,,,,,,,,,,,,,,,,,,,,,,,,,,,,,,,,,,,,,,,,,,,,,,,,,,,,,,,,,,,
0,54,54,12,1,,611cbdc447871199a422d10f,62c538dadcb3a72c003533ff,2022-07-06_09h25.41.722,Colour_Asymmetry_Pilot,2022.1.3,Win32,32,62c50e9c1127f2cd403a315f,,,,,,,,,,,,,,,,,,,,,,,,,,,,,,,,,,,,,,,,,,,,,,,,,,,,,,,,,,,,,,,,,,,,,,,,,,,,,,,,,,,,,,,,,,,,,,,,,,,,,,,,,,,,,,,,,,,,,,,,,,,,,,,,,,,,,,,,,,,,,,,,,,,,,,,,,,,,,,,,,,,
0,55,55,7,1,,611cbdc447871199a422d10f,62c538dadcb3a72c003533ff,2022-07-06_09h25.41.722,Colour_Asymmetry_Pilot,2022.1.3,Win32,32,62c50e9c1127f2cd403a315f,,,,,,,,,,,,,,,,,,,,,,,,,,,,,,,,,,,,,,,,,,,,,,,,,,,,,,,,,,,,,,,,,,,,,,,,,,,,,,,,,,,,,,,,,,,,,,,,,,,,,,,,,,,,,,,,,,,,,,,,,,,,,,,,,,,,,,,,,,,,,,,,,,,,,,,,,,,,,,,,,,,
0,56,56,72,1,,611cbdc447871199a422d10f,62c538dadcb3a72c003533ff,2022-07-06_09h25.41.722,Colour_Asymmetry_Pilot,2022.1.3,Win32,32,62c50e9c1127f2cd403a315f,,,,,,,,,,,,,,,,,,,,,,,,,,,,,,,,,,,,,,,,,,,,,,,,,,,,,,,,,,,,,,,,,,,,,,,,,,,,,,,,,,,,,,,,,,,,,,,,,,,,,,,,,,,,,,,,,,,,,,,,,,,,,,,,,,,,,,,,,,,,,,,,,,,,,,,,,,,,,,,,,,,
0,57,57,23,1,,611cbdc447871199a422d10f,62c538dadcb3a72c003533ff,2022-07-06_09h25.41.722,Colour_Asymmetry_Pilot,2022.1.3,Win32,32,62c50e9c1127f2cd403a315f,,,,,,,,,,,,,,,,,,,,,,,,,,,,,,,,,,,,,,,,,,,,,,,,,,,,,,,,,,,,,,,,,,,,,,,,,,,,,,,,,,,,,,,,,,,,,,,,,,,,,,,,,,,,,,,,,,,,,,,,,,,,,,,,,,,,,,,,,,,,,,,,,,,,,,,,,,,,,,,,,,,
0,58,58,10,1,,611cbdc447871199a422d10f,62c538dadcb3a72c003533ff,2022-07-06_09h25.41.722,Colour_Asymmetry_Pilot,2022.1.3,Win32,32,62c50e9c1127f2cd403a315f,,,,,,,,,,,,,,,,,,,,,,,,,,,,,,,,,,,,,,,,,,,,,,,,,,,,,,,,,,,,,,,,,,,,,,,,,,,,,,,,,,,,,,,,,,,,,,,,,,,,,,,,,,,,,,,,,,,,,,,,,,,,,,,,,,,,,,,,,,,,,,,,,,,,,,,,,,,,,,,,,,,
0,59,59,31,1,,611cbdc447871199a422d10f,62c538dadcb3a72c003533ff,2022-07-06_09h25.41.722,Colour_Asymmetry_Pilot,2022.1.3,Win32,32,62c50e9c1127f2cd403a315f,,,,,,,,,,,,,,,,,,,,,,,,,,,,,,,,,,,,,,,,,,,,,,,,,,,,,,,,,,,,,,,,,,,,,,,,,,,,,,,,,,,,,,,,,,,,,,,,,,,,,,,,,,,,,,,,,,,,,,,,,,,,,,,,,,,,,,,,,,,,,,,,,,,,,,,,,,,,,,,,,,,
0,60,60,30,1,,611cbdc447871199a422d10f,62c538dadcb3a72c003533ff,2022-07-06_09h25.41.722,Colour_Asymmetry_Pilot,2022.1.3,Win32,32,62c50e9c1127f2cd403a315f,,,,,,,,,,,,,,,,,,,,,,,,,,,,,,,,,,,,,,,,,,,,,,,,,,,,,,,,,,,,,,,,,,,,,,,,,,,,,,,,,,,,,,,,,,,,,,,,,,,,,,,,,,,,,,,,,,,,,,,,,,,,,,,,,,,,,,,,,,,,,,,,,,,,,,,,,,,,,,,,,,,
0,61,61,0,1,,611cbdc447871199a422d10f,62c538dadcb3a72c003533ff,2022-07-06_09h25.41.722,Colour_Asymmetry_Pilot,2022.1.3,Win32,32,62c50e9c1127f2cd403a315f,,,,,,,,,,,,,,,,,,,,,,,,,,,,,,,,,,,,,,,,,,,,,,,,,,,,,,,,,,,,,,,,,,,,,,,,,,,,,,,,,,,,,,,,,,,,,,,,,,,,,,,,,,,,,,,,,,,,,,,,,,,,,,,,,,,,,,,,,,,,,,,,,,,,,,,,,,,,,,,,,,,
0,62,62,51,1,,611cbdc447871199a422d10f,62c538dadcb3a72c003533ff,2022-07-06_09h25.41.722,Colour_Asymmetry_Pilot,2022.1.3,Win32,32,62c50e9c1127f2cd403a315f,,,,,,,,,,,,,,,,,,,,,,,,,,,,,,,,,,,,,,,,,,,,,,,,,,,,,,,,,,,,,,,,,,,,,,,,,,,,,,,,,,,,,,,,,,,,,,,,,,,,,,,,,,,,,,,,,,,,,,,,,,,,,,,,,,,,,,,,,,,,,,,,,,,,,,,,,,,,,,,,,,,
0,63,63,50,1,,611cbdc447871199a422d10f,62c538dadcb3a72c003533ff,2022-07-06_09h25.41.722,Colour_Asymmetry_Pilot,2022.1.3,Win32,32,62c50e9c1127f2cd403a315f,,,,,,,,,,,,,,,,,,,,,,,,,,,,,,,,,,,,,,,,,,,,,,,,,,,,,,,,,,,,,,,,,,,,,,,,,,,,,,,,,,,,,,,,,,,,,,,,,,,,,,,,,,,,,,,,,,,,,,,,,,,,,,,,,,,,,,,,,,,,,,,,,,,,,,,,,,,,,,,,,,,
0,64,64,41,1,,611cbdc447871199a422d10f,62c538dadcb3a72c003533ff,2022-07-06_09h25.41.722,Colour_Asymmetry_Pilot,2022.1.3,Win32,32,62c50e9c1127f2cd403a315f,,,,,,,,,,,,,,,,,,,,,,,,,,,,,,,,,,,,,,,,,,,,,,,,,,,,,,,,,,,,,,,,,,,,,,,,,,,,,,,,,,,,,,,,,,,,,,,,,,,,,,,,,,,,,,,,,,,,,,,,,,,,,,,,,,,,,,,,,,,,,,,,,,,,,,,,,,,,,,,,,,,
0,65,65,15,1,,611cbdc447871199a422d10f,62c538dadcb3a72c003533ff,2022-07-06_09h25.41.722,Colour_Asymmetry_Pilot,2022.1.3,Win32,32,62c50e9c1127f2cd403a315f,,,,,,,,,,,,,,,,,,,,,,,,,,,,,,,,,,,,,,,,,,,,,,,,,,,,,,,,,,,,,,,,,,,,,,,,,,,,,,,,,,,,,,,,,,,,,,,,,,,,,,,,,,,,,,,,,,,,,,,,,,,,,,,,,,,,,,,,,,,,,,,,,,,,,,,,,,,,,,,,,,,
0,66,66,91,1,,611cbdc447871199a422d10f,62c538dadcb3a72c003533ff,2022-07-06_09h25.41.722,Colour_Asymmetry_Pilot,2022.1.3,Win32,32,62c50e9c1127f2cd403a315f,,,,,,,,,,,,,,,,,,,,,,,,,,,,,,,,,,,,,,,,,,,,,,,,,,,,,,,,,,,,,,,,,,,,,,,,,,,,,,,,,,,,,,,,,,,,,,,,,,,,,,,,,,,,,,,,,,,,,,,,,,,,,,,,,,,,,,,,,,,,,,,,,,,,,,,,,,,,,,,,,,,
0,67,67,28,1,,611cbdc447871199a422d10f,62c538dadcb3a72c003533ff,2022-07-06_09h25.41.722,Colour_Asymmetry_Pilot,2022.1.3,Win32,32,62c50e9c1127f2cd403a315f,,,,,,,,,,,,,,,,,,,,,,,,,,,,,,,,,,,,,,,,,,,,,,,,,,,,,,,,,,,,,,,,,,,,,,,,,,,,,,,,,,,,,,,,,,,,,,,,,,,,,,,,,,,,,,,,,,,,,,,,,,,,,,,,,,,,,,,,,,,,,,,,,,,,,,,,,,,,,,,,,,,
0,68,68,63,1,,611cbdc447871199a422d10f,62c538dadcb3a72c003533ff,2022-07-06_09h25.41.722,Colour_Asymmetry_Pilot,2022.1.3,Win32,32,62c50e9c1127f2cd403a315f,,,,,,,,,,,,,,,,,,,,,,,,,,,,,,,,,,,,,,,,,,,,,,,,,,,,,,,,,,,,,,,,,,,,,,,,,,,,,,,,,,,,,,,,,,,,,,,,,,,,,,,,,,,,,,,,,,,,,,,,,,,,,,,,,,,,,,,,,,,,,,,,,,,,,,,,,,,,,,,,,,,
0,69,69,27,1,,611cbdc447871199a422d10f,62c538dadcb3a72c003533ff,2022-07-06_09h25.41.722,Colour_Asymmetry_Pilot,2022.1.3,Win32,32,62c50e9c1127f2cd403a315f,,,,,,,,,,,,,,,,,,,,,,,,,,,,,,,,,,,,,,,,,,,,,,,,,,,,,,,,,,,,,,,,,,,,,,,,,,,,,,,,,,,,,,,,,,,,,,,,,,,,,,,,,,,,,,,,,,,,,,,,,,,,,,,,,,,,,,,,,,,,,,,,,,,,,,,,,,,,,,,,,,,
0,70,70,14,1,,611cbdc447871199a422d10f,62c538dadcb3a72c003533ff,2022-07-06_09h25.41.722,Colour_Asymmetry_Pilot,2022.1.3,Win32,32,62c50e9c1127f2cd403a315f,,,,,,,,,,,,,,,,,,,,,,,,,,,,,,,,,,,,,,,,,,,,,,,,,,,,,,,,,,,,,,,,,,,,,,,,,,,,,,,,,,,,,,,,,,,,,,,,,,,,,,,,,,,,,,,,,,,,,,,,,,,,,,,,,,,,,,,,,,,,,,,,,,,,,,,,,,,,,,,,,,,
0,71,71,37,1,,611cbdc447871199a422d10f,62c538dadcb3a72c003533ff,2022-07-06_09h25.41.722,Colour_Asymmetry_Pilot,2022.1.3,Win32,32,62c50e9c1127f2cd403a315f,,,,,,,,,,,,,,,,,,,,,,,,,,,,,,,,,,,,,,,,,,,,,,,,,,,,,,,,,,,,,,,,,,,,,,,,,,,,,,,,,,,,,,,,,,,,,,,,,,,,,,,,,,,,,,,,,,,,,,,,,,,,,,,,,,,,,,,,,,,,,,,,,,,,,,,,,,,,,,,,,,,
0,72,72,80,1,,611cbdc447871199a422d10f,62c538dadcb3a72c003533ff,2022-07-06_09h25.41.722,Colour_Asymmetry_Pilot,2022.1.3,Win32,32,62c50e9c1127f2cd403a315f,,,,,,,,,,,,,,,,,,,,,,,,,,,,,,,,,,,,,,,,,,,,,,,,,,,,,,,,,,,,,,,,,,,,,,,,,,,,,,,,,,,,,,,,,,,,,,,,,,,,,,,,,,,,,,,,,,,,,,,,,,,,,,,,,,,,,,,,,,,,,,,,,,,,,,,,,,,,,,,,,,,
0,73,73,55,1,,611cbdc447871199a422d10f,62c538dadcb3a72c003533ff,2022-07-06_09h25.41.722,Colour_Asymmetry_Pilot,2022.1.3,Win32,32,62c50e9c1127f2cd403a315f,,,,,,,,,,,,,,,,,,,,,,,,,,,,,,,,,,,,,,,,,,,,,,,,,,,,,,,,,,,,,,,,,,,,,,,,,,,,,,,,,,,,,,,,,,,,,,,,,,,,,,,,,,,,,,,,,,,,,,,,,,,,,,,,,,,,,,,,,,,,,,,,,,,,,,,,,,,,,,,,,,,
0,74,74,83,1,,611cbdc447871199a422d10f,62c538dadcb3a72c003533ff,2022-07-06_09h25.41.722,Colour_Asymmetry_Pilot,2022.1.3,Win32,32,62c50e9c1127f2cd403a315f,,,,,,,,,,,,,,,,,,,,,,,,,,,,,,,,,,,,,,,,,,,,,,,,,,,,,,,,,,,,,,,,,,,,,,,,,,,,,,,,,,,,,,,,,,,,,,,,,,,,,,,,,,,,,,,,,,,,,,,,,,,,,,,,,,,,,,,,,,,,,,,,,,,,,,,,,,,,,,,,,,,
0,75,75,62,1,,611cbdc447871199a422d10f,62c538dadcb3a72c003533ff,2022-07-06_09h25.41.722,Colour_Asymmetry_Pilot,2022.1.3,Win32,32,62c50e9c1127f2cd403a315f,,,,,,,,,,,,,,,,,,,,,,,,,,,,,,,,,,,,,,,,,,,,,,,,,,,,,,,,,,,,,,,,,,,,,,,,,,,,,,,,,,,,,,,,,,,,,,,,,,,,,,,,,,,,,,,,,,,,,,,,,,,,,,,,,,,,,,,,,,,,,,,,,,,,,,,,,,,,,,,,,,,
0,76,76,9,1,,611cbdc447871199a422d10f,62c538dadcb3a72c003533ff,2022-07-06_09h25.41.722,Colour_Asymmetry_Pilot,2022.1.3,Win32,32,62c50e9c1127f2cd403a315f,,,,,,,,,,,,,,,,,,,,,,,,,,,,,,,,,,,,,,,,,,,,,,,,,,,,,,,,,,,,,,,,,,,,,,,,,,,,,,,,,,,,,,,,,,,,,,,,,,,,,,,,,,,,,,,,,,,,,,,,,,,,,,,,,,,,,,,,,,,,,,,,,,,,,,,,,,,,,,,,,,,
0,77,77,45,1,,611cbdc447871199a422d10f,62c538dadcb3a72c003533ff,2022-07-06_09h25.41.722,Colour_Asymmetry_Pilot,2022.1.3,Win32,32,62c50e9c1127f2cd403a315f,,,,,,,,,,,,,,,,,,,,,,,,,,,,,,,,,,,,,,,,,,,,,,,,,,,,,,,,,,,,,,,,,,,,,,,,,,,,,,,,,,,,,,,,,,,,,,,,,,,,,,,,,,,,,,,,,,,,,,,,,,,,,,,,,,,,,,,,,,,,,,,,,,,,,,,,,,,,,,,,,,,
0,78,78,87,1,,611cbdc447871199a422d10f,62c538dadcb3a72c003533ff,2022-07-06_09h25.41.722,Colour_Asymmetry_Pilot,2022.1.3,Win32,32,62c50e9c1127f2cd403a315f,,,,,,,,,,,,,,,,,,,,,,,,,,,,,,,,,,,,,,,,,,,,,,,,,,,,,,,,,,,,,,,,,,,,,,,,,,,,,,,,,,,,,,,,,,,,,,,,,,,,,,,,,,,,,,,,,,,,,,,,,,,,,,,,,,,,,,,,,,,,,,,,,,,,,,,,,,,,,,,,,,,
0,79,79,70,1,,611cbdc447871199a422d10f,62c538dadcb3a72c003533ff,2022-07-06_09h25.41.722,Colour_Asymmetry_Pilot,2022.1.3,Win32,32,62c50e9c1127f2cd403a315f,,,,,,,,,,,,,,,,,,,,,,,,,,,,,,,,,,,,,,,,,,,,,,,,,,,,,,,,,,,,,,,,,,,,,,,,,,,,,,,,,,,,,,,,,,,,,,,,,,,,,,,,,,,,,,,,,,,,,,,,,,,,,,,,,,,,,,,,,,,,,,,,,,,,,,,,,,,,,,,,,,,
0,80,80,75,1,,611cbdc447871199a422d10f,62c538dadcb3a72c003533ff,2022-07-06_09h25.41.722,Colour_Asymmetry_Pilot,2022.1.3,Win32,32,62c50e9c1127f2cd403a315f,,,,,,,,,,,,,,,,,,,,,,,,,,,,,,,,,,,,,,,,,,,,,,,,,,,,,,,,,,,,,,,,,,,,,,,,,,,,,,,,,,,,,,,,,,,,,,,,,,,,,,,,,,,,,,,,,,,,,,,,,,,,,,,,,,,,,,,,,,,,,,,,,,,,,,,,,,,,,,,,,,,
0,81,81,49,1,,611cbdc447871199a422d10f,62c538dadcb3a72c003533ff,2022-07-06_09h25.41.722,Colour_Asymmetry_Pilot,2022.1.3,Win32,32,62c50e9c1127f2cd403a315f,,,,,,,,,,,,,,,,,,,,,,,,,,,,,,,,,,,,,,,,,,,,,,,,,,,,,,,,,,,,,,,,,,,,,,,,,,,,,,,,,,,,,,,,,,,,,,,,,,,,,,,,,,,,,,,,,,,,,,,,,,,,,,,,,,,,,,,,,,,,,,,,,,,,,,,,,,,,,,,,,,,
0,82,82,61,1,,611cbdc447871199a422d10f,62c538dadcb3a72c003533ff,2022-07-06_09h25.41.722,Colour_Asymmetry_Pilot,2022.1.3,Win32,32,62c50e9c1127f2cd403a315f,,,,,,,,,,,,,,,,,,,,,,,,,,,,,,,,,,,,,,,,,,,,,,,,,,,,,,,,,,,,,,,,,,,,,,,,,,,,,,,,,,,,,,,,,,,,,,,,,,,,,,,,,,,,,,,,,,,,,,,,,,,,,,,,,,,,,,,,,,,,,,,,,,,,,,,,,,,,,,,,,,,
0,83,83,76,1,,611cbdc447871199a422d10f,62c538dadcb3a72c003533ff,2022-07-06_09h25.41.722,Colour_Asymmetry_Pilot,2022.1.3,Win32,32,62c50e9c1127f2cd403a315f,,,,,,,,,,,,,,,,,,,,,,,,,,,,,,,,,,,,,,,,,,,,,,,,,,,,,,,,,,,,,,,,,,,,,,,,,,,,,,,,,,,,,,,,,,,,,,,,,,,,,,,,,,,,,,,,,,,,,,,,,,,,,,,,,,,,,,,,,,,,,,,,,,,,,,,,,,,,,,,,,,,
0,84,84,58,1,,611cbdc447871199a422d10f,62c538dadcb3a72c003533ff,2022-07-06_09h25.41.722,Colour_Asymmetry_Pilot,2022.1.3,Win32,32,62c50e9c1127f2cd403a315f,,,,,,,,,,,,,,,,,,,,,,,,,,,,,,,,,,,,,,,,,,,,,,,,,,,,,,,,,,,,,,,,,,,,,,,,,,,,,,,,,,,,,,,,,,,,,,,,,,,,,,,,,,,,,,,,,,,,,,,,,,,,,,,,,,,,,,,,,,,,,,,,,,,,,,,,,,,,,,,,,,,
0,85,85,33,1,,611cbdc447871199a422d10f,62c538dadcb3a72c003533ff,2022-07-06_09h25.41.722,Colour_Asymmetry_Pilot,2022.1.3,Win32,32,62c50e9c1127f2cd403a315f,,,,,,,,,,,,,,,,,,,,,,,,,,,,,,,,,,,,,,,,,,,,,,,,,,,,,,,,,,,,,,,,,,,,,,,,,,,,,,,,,,,,,,,,,,,,,,,,,,,,,,,,,,,,,,,,,,,,,,,,,,,,,,,,,,,,,,,,,,,,,,,,,,,,,,,,,,,,,,,,,,,
0,86,86,89,1,,611cbdc447871199a422d10f,62c538dadcb3a72c003533ff,2022-07-06_09h25.41.722,Colour_Asymmetry_Pilot,2022.1.3,Win32,32,62c50e9c1127f2cd403a315f,,,,,,,,,,,,,,,,,,,,,,,,,,,,,,,,,,,,,,,,,,,,,,,,,,,,,,,,,,,,,,,,,,,,,,,,,,,,,,,,,,,,,,,,,,,,,,,,,,,,,,,,,,,,,,,,,,,,,,,,,,,,,,,,,,,,,,,,,,,,,,,,,,,,,,,,,,,,,,,,,,,
0,87,87,42,1,,611cbdc447871199a422d10f,62c538dadcb3a72c003533ff,2022-07-06_09h25.41.722,Colour_Asymmetry_Pilot,2022.1.3,Win32,32,62c50e9c1127f2cd403a315f,,,,,,,,,,,,,,,,,,,,,,,,,,,,,,,,,,,,,,,,,,,,,,,,,,,,,,,,,,,,,,,,,,,,,,,,,,,,,,,,,,,,,,,,,,,,,,,,,,,,,,,,,,,,,,,,,,,,,,,,,,,,,,,,,,,,,,,,,,,,,,,,,,,,,,,,,,,,,,,,,,,
0,88,88,68,1,,611cbdc447871199a422d10f,62c538dadcb3a72c003533ff,2022-07-06_09h25.41.722,Colour_Asymmetry_Pilot,2022.1.3,Win32,32,62c50e9c1127f2cd403a315f,,,,,,,,,,,,,,,,,,,,,,,,,,,,,,,,,,,,,,,,,,,,,,,,,,,,,,,,,,,,,,,,,,,,,,,,,,,,,,,,,,,,,,,,,,,,,,,,,,,,,,,,,,,,,,,,,,,,,,,,,,,,,,,,,,,,,,,,,,,,,,,,,,,,,,,,,,,,,,,,,,,
0,89,89,64,1,,611cbdc447871199a422d10f,62c538dadcb3a72c003533ff,2022-07-06_09h25.41.722,Colour_Asymmetry_Pilot,2022.1.3,Win32,32,62c50e9c1127f2cd403a315f,,,,,,,,,,,,,,,,,,,,,,,,,,,,,,,,,,,,,,,,,,,,,,,,,,,,,,,,,,,,,,,,,,,,,,,,,,,,,,,,,,,,,,,,,,,,,,,,,,,,,,,,,,,,,,,,,,,,,,,,,,,,,,,,,,,,,,,,,,,,,,,,,,,,,,,,,,,,,,,,,,,
0,90,90,77,1,,611cbdc447871199a422d10f,62c538dadcb3a72c003533ff,2022-07-06_09h25.41.722,Colour_Asymmetry_Pilot,2022.1.3,Win32,32,62c50e9c1127f2cd403a315f,,,,,,,,,,,,,,,,,,,,,,,,,,,,,,,,,,,,,,,,,,,,,,,,,,,,,,,,,,,,,,,,,,,,,,,,,,,,,,,,,,,,,,,,,,,,,,,,,,,,,,,,,,,,,,,,,,,,,,,,,,,,,,,,,,,,,,,,,,,,,,,,,,,,,,,,,,,,,,,,,,,
0,91,91,6,1,,611cbdc447871199a422d10f,62c538dadcb3a72c003533ff,2022-07-06_09h25.41.722,Colour_Asymmetry_Pilot,2022.1.3,Win32,32,62c50e9c1127f2cd403a315f,,,,,,,,,,,,,,,,,,,,,,,,,,,,,,,,,,,,,,,,,,,,,,,,,,,,,,,,,,,,,,,,,,,,,,,,,,,,,,,,,,,,,,,,,,,,,,,,,,,,,,,,,,,,,,,,,,,,,,,,,,,,,,,,,,,,,,,,,,,,,,,,,,,,,,,,,,,,,,,,,,,
0,92,92,4,1,,611cbdc447871199a422d10f,62c538dadcb3a72c003533ff,2022-07-06_09h25.41.722,Colour_Asymmetry_Pilot,2022.1.3,Win32,32,62c50e9c1127f2cd403a315f,,,,,,,,,,,,,,,,,,,,,,,,,,,,,,,,,,,,,,,,,,,,,,,,,,,,,,,,,,,,,,,,,,,,,,,,,,,,,,,,,,,,,,,,,,,,,,,,,,,,,,,,,,,,,,,,,,,,,,,,,,,,,,,,,,,,,,,,,,,,,,,,,,,,,,,,,,,,,,,,,,,
,,,,,,611cbdc447871199a422d10f,62c538dadcb3a72c003533ff,2022-07-06_09h25.41.722,Colour_Asymmetry_Pilot,2022.1.3,Win32,32,62c50e9c1127f2cd403a315f,0,0,0,18,1,twoone,,,,,,,,,,,,,,,,,,,,,,,,,,,,,,,,,,,,,,,,,,,,,,,,,,,,,,,,,,,,,,,,,,,,,,,,,,,,,,,,,,,,,,,,,,,,,,,,,,,,,,,,,,,,,,,,,,,,,,,,,,,,,,,,,,,,,,,,,,,,,,,,,,,,,,,,,,,,,
,,,,,,611cbdc447871199a422d10f,62c538dadcb3a72c003533ff,2022-07-06_09h25.41.722,Colour_Asymmetry_Pilot,2022.1.3,Win32,32,62c50e9c1127f2cd403a315f,0,1,1,159,1,fourthree,,,,,,,,,,,,,,,,,,,,,,,,,,,,,,,,,,,,,,,,,,,,,,,,,,,,,,,,,,,,,,,,,,,,,,,,,,,,,,,,,,,,,,,,,,,,,,,,,,,,,,,,,,,,,,,,,,,,,,,,,,,,,,,,,,,,,,,,,,,,,,,,,,,,,,,,,,,,,
,,,,,,611cbdc447871199a422d10f,62c538dadcb3a72c003533ff,2022-07-06_09h25.41.722,Colour_Asymmetry_Pilot,2022.1.3,Win32,32,62c50e9c1127f2cd403a315f,0,2,2,80,1,onetwo,,,,,,,,,,,,,,,,,,,,,,,,,,,,,,,,,,,,,,,,,,,,,,,,,,,,,,,,,,,,,,,,,,,,,,,,,,,,,,,,,,,,,,,,,,,,,,,,,,,,,,,,,,,,,,,,,,,,,,,,,,,,,,,,,,,,,,,,,,,,,,,,,,,,,,,,,,,,,
,,,,,,611cbdc447871199a422d10f,62c538dadcb3a72c003533ff,2022-07-06_09h25.41.722,Colour_Asymmetry_Pilot,2022.1.3,Win32,32,62c50e9c1127f2cd403a315f,0,3,3,84,1,threeone,,,,,,,,,,,,,,,,,,,,,,,,,,,,,,,,,,,,,,,,,,,,,,,,,,,,,,,,,,,,,,,,,,,,,,,,,,,,,,,,,,,,,,,,,,,,,,,,,,,,,,,,,,,,,,,,,,,,,,,,,,,,,,,,,,,,,,,,,,,,,,,,,,,,,,,,,,,,,
,,,,,,611cbdc447871199a422d10f,62c538dadcb3a72c003533ff,2022-07-06_09h25.41.722,Colour_Asymmetry_Pilot,2022.1.3,Win32,32,62c50e9c1127f2cd403a315f,0,4,4,131,1,twofour,,,,,,,,,,,,,,,,,,,,,,,,,,,,,,,,,,,,,,,,,,,,,,,,,,,,,,,,,,,,,,,,,,,,,,,,,,,,,,,,,,,,,,,,,,,,,,,,,,,,,,,,,,,,,,,,,,,,,,,,,,,,,,,,,,,,,,,,,,,,,,,,,,,,,,,,,,,,,
,,,,,,611cbdc447871199a422d10f,62c538dadcb3a72c003533ff,2022-07-06_09h25.41.722,Colour_Asymmetry_Pilot,2022.1.3,Win32,32,62c50e9c1127f2cd403a315f,0,5,5,128,1,onetwo,,,,,,,,,,,,,,,,,,,,,,,,,,,,,,,,,,,,,,,,,,,,,,,,,,,,,,,,,,,,,,,,,,,,,,,,,,,,,,,,,,,,,,,,,,,,,,,,,,,,,,,,,,,,,,,,,,,,,,,,,,,,,,,,,,,,,,,,,,,,,,,,,,,,,,,,,,,,,
,,,,,,611cbdc447871199a422d10f,62c538dadcb3a72c003533ff,2022-07-06_09h25.41.722,Colour_Asymmetry_Pilot,2022.1.3,Win32,32,62c50e9c1127f2cd403a315f,0,6,6,112,1,onetwo,,,,,,,,,,,,,,,,,,,,,,,,,,,,,,,,,,,,,,,,,,,,,,,,,,,,,,,,,,,,,,,,,,,,,,,,,,,,,,,,,,,,,,,,,,,,,,,,,,,,,,,,,,,,,,,,,,,,,,,,,,,,,,,,,,,,,,,,,,,,,,,,,,,,,,,,,,,,,
,,,,,,611cbdc447871199a422d10f,62c538dadcb3a72c003533ff,2022-07-06_09h25.41.722,Colour_Asymmetry_Pilot,2022.1.3,Win32,32,62c50e9c1127f2cd403a315f,0,7,7,81,1,onethree,,,,,,,,,,,,,,,,,,,,,,,,,,,,,,,,,,,,,,,,,,,,,,,,,,,,,,,,,,,,,,,,,,,,,,,,,,,,,,,,,,,,,,,,,,,,,,,,,,,,,,,,,,,,,,,,,,,,,,,,,,,,,,,,,,,,,,,,,,,,,,,,,,,,,,,,,,,,,
,,,,,,611cbdc447871199a422d10f,62c538dadcb3a72c003533ff,2022-07-06_09h25.41.722,Colour_Asymmetry_Pilot,2022.1.3,Win32,32,62c50e9c1127f2cd403a315f,0,8,8,122,1,twoone,,,,,,,,,,,,,,,,,,,,,,,,,,,,,,,,,,,,,,,,,,,,,,,,,,,,,,,,,,,,,,,,,,,,,,,,,,,,,,,,,,,,,,,,,,,,,,,,,,,,,,,,,,,,,,,,,,,,,,,,,,,,,,,,,,,,,,,,,,,,,,,,,,,,,,,,,,,,,
,,,,,,611cbdc447871199a422d10f,62c538dadcb3a72c003533ff,2022-07-06_09h25.41.722,Colour_Asymmetry_Pilot,2022.1.3,Win32,32,62c50e9c1127f2cd403a315f,0,9,9,93,1,threefour,,,,,,,,,,,,,,,,,,,,,,,,,,,,,,,,,,,,,,,,,,,,,,,,,,,,,,,,,,,,,,,,,,,,,,,,,,,,,,,,,,,,,,,,,,,,,,,,,,,,,,,,,,,,,,,,,,,,,,,,,,,,,,,,,,,,,,,,,,,,,,,,,,,,,,,,,,,,,
,,,,,,611cbdc447871199a422d10f,62c538dadcb3a72c003533ff,2022-07-06_09h25.41.722,Colour_Asymmetry_Pilot,2022.1.3,Win32,32,62c50e9c1127f2cd403a315f,0,10,10,142,1,fourtwo,,,,,,,,,,,,,,,,,,,,,,,,,,,,,,,,,,,,,,,,,,,,,,,,,,,,,,,,,,,,,,,,,,,,,,,,,,,,,,,,,,,,,,,,,,,,,,,,,,,,,,,,,,,,,,,,,,,,,,,,,,,,,,,,,,,,,,,,,,,,,,,,,,,,,,,,,,,,,
,,,,,,611cbdc447871199a422d10f,62c538dadcb3a72c003533ff,2022-07-06_09h25.41.722,Colour_Asymmetry_Pilot,2022.1.3,Win32,32,62c50e9c1127f2cd403a315f,0,11,11,41,1,onethree,,,,,,,,,,,,,,,,,,,,,,,,,,,,,,,,,,,,,,,,,,,,,,,,,,,,,,,,,,,,,,,,,,,,,,,,,,,,,,,,,,,,,,,,,,,,,,,,,,,,,,,,,,,,,,,,,,,,,,,,,,,,,,,,,,,,,,,,,,,,,,,,,,,,,,,,,,,,,
,,,,,,611cbdc447871199a422d10f,62c538dadcb3a72c003533ff,2022-07-06_09h25.41.722,Colour_Asymmetry_Pilot,2022.1.3,Win32,32,62c50e9c1127f2cd403a315f,0,12,12,133,1,threefour,,,,,,,,,,,,,,,,,,,,,,,,,,,,,,,,,,,,,,,,,,,,,,,,,,,,,,,,,,,,,,,,,,,,,,,,,,,,,,,,,,,,,,,,,,,,,,,,,,,,,,,,,,,,,,,,,,,,,,,,,,,,,,,,,,,,,,,,,,,,,,,,,,,,,,,,,,,,,
,,,,,,611cbdc447871199a422d10f,62c538dadcb3a72c003533ff,2022-07-06_09h25.41.722,Colour_Asymmetry_Pilot,2022.1.3,Win32,32,62c50e9c1127f2cd403a315f,0,13,13,54,1,fourtwo,,,,,,,,,,,,,,,,,,,,,,,,,,,,,,,,,,,,,,,,,,,,,,,,,,,,,,,,,,,,,,,,,,,,,,,,,,,,,,,,,,,,,,,,,,,,,,,,,,,,,,,,,,,,,,,,,,,,,,,,,,,,,,,,,,,,,,,,,,,,,,,,,,,,,,,,,,,,,
,,,,,,611cbdc447871199a422d10f,62c538dadcb3a72c003533ff,2022-07-06_09h25.41.722,Colour_Asymmetry_Pilot,2022.1.3,Win32,32,62c50e9c1127f2cd403a315f,0,14,14,25,1,onethree,,,,,,,,,,,,,,,,,,,,,,,,,,,,,,,,,,,,,,,,,,,,,,,,,,,,,,,,,,,,,,,,,,,,,,,,,,,,,,,,,,,,,,,,,,,,,,,,,,,,,,,,,,,,,,,,,,,,,,,,,,,,,,,,,,,,,,,,,,,,,,,,,,,,,,,,,,,,,
,,,,,,611cbdc447871199a422d10f,62c538dadcb3a72c003533ff,2022-07-06_09h25.41.722,Colour_Asymmetry_Pilot,2022.1.3,Win32,32,62c50e9c1127f2cd403a315f,0,15,15,132,1,threeone,,,,,,,,,,,,,,,,,,,,,,,,,,,,,,,,,,,,,,,,,,,,,,,,,,,,,,,,,,,,,,,,,,,,,,,,,,,,,,,,,,,,,,,,,,,,,,,,,,,,,,,,,,,,,,,,,,,,,,,,,,,,,,,,,,,,,,,,,,,,,,,,,,,,,,,,,,,,,
,,,,,,611cbdc447871199a422d10f,62c538dadcb3a72c003533ff,2022-07-06_09h25.41.722,Colour_Asymmetry_Pilot,2022.1.3,Win32,32,62c50e9c1127f2cd403a315f,0,16,16,145,1,onethree,,,,,,,,,,,,,,,,,,,,,,,,,,,,,,,,,,,,,,,,,,,,,,,,,,,,,,,,,,,,,,,,,,,,,,,,,,,,,,,,,,,,,,,,,,,,,,,,,,,,,,,,,,,,,,,,,,,,,,,,,,,,,,,,,,,,,,,,,,,,,,,,,,,,,,,,,,,,,
,,,,,,611cbdc447871199a422d10f,62c538dadcb3a72c003533ff,2022-07-06_09h25.41.722,Colour_Asymmetry_Pilot,2022.1.3,Win32,32,62c50e9c1127f2cd403a315f,0,17,17,5,1,threefour,,,,,,,,,,,,,,,,,,,,,,,,,,,,,,,,,,,,,,,,,,,,,,,,,,,,,,,,,,,,,,,,,,,,,,,,,,,,,,,,,,,,,,,,,,,,,,,,,,,,,,,,,,,,,,,,,,,,,,,,,,,,,,,,,,,,,,,,,,,,,,,,,,,,,,,,,,,,,
,,,,,,611cbdc447871199a422d10f,62c538dadcb3a72c003533ff,2022-07-06_09h25.41.722,Colour_Asymmetry_Pilot,2022.1.3,Win32,32,62c50e9c1127f2cd403a315f,0,18,18,53,1,threefour,,,,,,,,,,,,,,,,,,,,,,,,,,,,,,,,,,,,,,,,,,,,,,,,,,,,,,,,,,,,,,,,,,,,,,,,,,,,,,,,,,,,,,,,,,,,,,,,,,,,,,,,,,,,,,,,,,,,,,,,,,,,,,,,,,,,,,,,,,,,,,,,,,,,,,,,,,,,,
,,,,,,611cbdc447871199a422d10f,62c538dadcb3a72c003533ff,2022-07-06_09h25.41.722,Colour_Asymmetry_Pilot,2022.1.3,Win32,32,62c50e9c1127f2cd403a315f,0,19,19,79,1,fourthree,,,,,,,,,,,,,,,,,,,,,,,,,,,,,,,,,,,,,,,,,,,,,,,,,,,,,,,,,,,,,,,,,,,,,,,,,,,,,,,,,,,,,,,,,,,,,,,,,,,,,,,,,,,,,,,,,,,,,,,,,,,,,,,,,,,,,,,,,,,,,,,,,,,,,,,,,,,,,
,,,,,,611cbdc447871199a422d10f,62c538dadcb3a72c003533ff,2022-07-06_09h25.41.722,Colour_Asymmetry_Pilot,2022.1.3,Win32,32,62c50e9c1127f2cd403a315f,0,20,20,29,1,threefour,,,,,,,,,,,,,,,,,,,,,,,,,,,,,,,,,,,,,,,,,,,,,,,,,,,,,,,,,,,,,,,,,,,,,,,,,,,,,,,,,,,,,,,,,,,,,,,,,,,,,,,,,,,,,,,,,,,,,,,,,,,,,,,,,,,,,,,,,,,,,,,,,,,,,,,,,,,,,
,,,,,,611cbdc447871199a422d10f,62c538dadcb3a72c003533ff,2022-07-06_09h25.41.722,Colour_Asymmetry_Pilot,2022.1.3,Win32,32,62c50e9c1127f2cd403a315f,0,21,21,105,1,onethree,,,,,,,,,,,,,,,,,,,,,,,,,,,,,,,,,,,,,,,,,,,,,,,,,,,,,,,,,,,,,,,,,,,,,,,,,,,,,,,,,,,,,,,,,,,,,,,,,,,,,,,,,,,,,,,,,,,,,,,,,,,,,,,,,,,,,,,,,,,,,,,,,,,,,,,,,,,,,
,,,,,,611cbdc447871199a422d10f,62c538dadcb3a72c003533ff,2022-07-06_09h25.41.722,Colour_Asymmetry_Pilot,2022.1.3,Win32,32,62c50e9c1127f2cd403a315f,0,22,22,33,1,onethree,,,,,,,,,,,,,,,,,,,,,,,,,,,,,,,,,,,,,,,,,,,,,,,,,,,,,,,,,,,,,,,,,,,,,,,,,,,,,,,,,,,,,,,,,,,,,,,,,,,,,,,,,,,,,,,,,,,,,,,,,,,,,,,,,,,,,,,,,,,,,,,,,,,,,,,,,,,,,
,,,,,,611cbdc447871199a422d10f,62c538dadcb3a72c003533ff,2022-07-06_09h25.41.722,Colour_Asymmetry_Pilot,2022.1.3,Win32,32,62c50e9c1127f2cd403a315f,0,23,23,113,1,onethree,,,,,,,,,,,,,,,,,,,,,,,,,,,,,,,,,,,,,,,,,,,,,,,,,,,,,,,,,,,,,,,,,,,,,,,,,,,,,,,,,,,,,,,,,,,,,,,,,,,,,,,,,,,,,,,,,,,,,,,,,,,,,,,,,,,,,,,,,,,,,,,,,,,,,,,,,,,,,
,,,,,,611cbdc447871199a422d10f,62c538dadcb3a72c003533ff,2022-07-06_09h25.41.722,Colour_Asymmetry_Pilot,2022.1.3,Win32,32,62c50e9c1127f2cd403a315f,0,24,24,15,1,fourthree,,,,,,,,,,,,,,,,,,,,,,,,,,,,,,,,,,,,,,,,,,,,,,,,,,,,,,,,,,,,,,,,,,,,,,,,,,,,,,,,,,,,,,,,,,,,,,,,,,,,,,,,,,,,,,,,,,,,,,,,,,,,,,,,,,,,,,,,,,,,,,,,,,,,,,,,,,,,,
,,,,,,611cbdc447871199a422d10f,62c538dadcb3a72c003533ff,2022-07-06_09h25.41.722,Colour_Asymmetry_Pilot,2022.1.3,Win32,32,62c50e9c1127f2cd403a315f,0,25,25,96,1,onetwo,,,,,,,,,,,,,,,,,,,,,,,,,,,,,,,,,,,,,,,,,,,,,,,,,,,,,,,,,,,,,,,,,,,,,,,,,,,,,,,,,,,,,,,,,,,,,,,,,,,,,,,,,,,,,,,,,,,,,,,,,,,,,,,,,,,,,,,,,,,,,,,,,,,,,,,,,,,,,
,,,,,,611cbdc447871199a422d10f,62c538dadcb3a72c003533ff,2022-07-06_09h25.41.722,Colour_Asymmetry_Pilot,2022.1.3,Win32,32,62c50e9c1127f2cd403a315f,0,26,26,83,1,twofour,,,,,,,,,,,,,,,,,,,,,,,,,,,,,,,,,,,,,,,,,,,,,,,,,,,,,,,,,,,,,,,,,,,,,,,,,,,,,,,,,,,,,,,,,,,,,,,,,,,,,,,,,,,,,,,,,,,,,,,,,,,,,,,,,,,,,,,,,,,,,,,,,,,,,,,,,,,,,
,,,,,,611cbdc447871199a422d10f,62c538dadcb3a72c003533ff,2022-07-06_09h25.41.722,Colour_Asymmetry_Pilot,2022.1.3,Win32,32,62c50e9c1127f2cd403a315f,0,27,27,146,1,twoone,,,,,,,,,,,,,,,,,,,,,,,,,,,,,,,,,,,,,,,,,,,,,,,,,,,,,,,,,,,,,,,,,,,,,,,,,,,,,,,,,,,,,,,,,,,,,,,,,,,,,,,,,,,,,,,,,,,,,,,,,,,,,,,,,,,,,,,,,,,,,,,,,,,,,,,,,,,,,
,,,,,,611cbdc447871199a422d10f,62c538dadcb3a72c003533ff,2022-07-06_09h25.41.722,Colour_Asymmetry_Pilot,2022.1.3,Win32,32,62c50e9c1127f2cd403a315f,0,28,28,90,1,twoone,,,,,,,,,,,,,,,,,,,,,,,,,,,,,,,,,,,,,,,,,,,,,,,,,,,,,,,,,,,,,,,,,,,,,,,,,,,,,,,,,,,,,,,,,,,,,,,,,,,,,,,,,,,,,,,,,,,,,,,,,,,,,,,,,,,,,,,,,,,,,,,,,,,,,,,,,,,,,
,,,,,,611cbdc447871199a422d10f,62c538dadcb3a72c003533ff,2022-07-06_09h25.41.722,Colour_Asymmetry_Pilot,2022.1.3,Win32,32,62c50e9c1127f2cd403a315f,0,29,29,126,1,fourtwo,,,,,,,,,,,,,,,,,,,,,,,,,,,,,,,,,,,,,,,,,,,,,,,,,,,,,,,,,,,,,,,,,,,,,,,,,,,,,,,,,,,,,,,,,,,,,,,,,,,,,,,,,,,,,,,,,,,,,,,,,,,,,,,,,,,,,,,,,,,,,,,,,,,,,,,,,,,,,
,,,,,,611cbdc447871199a422d10f,62c538dadcb3a72c003533ff,2022-07-06_09h25.41.722,Colour_Asymmetry_Pilot,2022.1.3,Win32,32,62c50e9c1127f2cd403a315f,0,30,30,75,1,twofour,,,,,,,,,,,,,,,,,,,,,,,,,,,,,,,,,,,,,,,,,,,,,,,,,,,,,,,,,,,,,,,,,,,,,,,,,,,,,,,,,,,,,,,,,,,,,,,,,,,,,,,,,,,,,,,,,,,,,,,,,,,,,,,,,,,,,,,,,,,,,,,,,,,,,,,,,,,,,
,,,,,,611cbdc447871199a422d10f,62c538dadcb3a72c003533ff,2022-07-06_09h25.41.722,Colour_Asymmetry_Pilot,2022.1.3,Win32,32,62c50e9c1127f2cd403a315f,0,31,31,68,1,threeone,,,,,,,,,,,,,,,,,,,,,,,,,,,,,,,,,,,,,,,,,,,,,,,,,,,,,,,,,,,,,,,,,,,,,,,,,,,,,,,,,,,,,,,,,,,,,,,,,,,,,,,,,,,,,,,,,,,,,,,,,,,,,,,,,,,,,,,,,,,,,,,,,,,,,,,,,,,,,
,,,,,,611cbdc447871199a422d10f,62c538dadcb3a72c003533ff,2022-07-06_09h25.41.722,Colour_Asymmetry_Pilot,2022.1.3,Win32,32,62c50e9c1127f2cd403a315f,0,32,32,107,1,twofour,,,,,,,,,,,,,,,,,,,,,,,,,,,,,,,,,,,,,,,,,,,,,,,,,,,,,,,,,,,,,,,,,,,,,,,,,,,,,,,,,,,,,,,,,,,,,,,,,,,,,,,,,,,,,,,,,,,,,,,,,,,,,,,,,,,,,,,,,,,,,,,,,,,,,,,,,,,,,
,,,,,,611cbdc447871199a422d10f,62c538dadcb3a72c003533ff,2022-07-06_09h25.41.722,Colour_Asymmetry_Pilot,2022.1.3,Win32,32,62c50e9c1127f2cd403a315f,0,33,33,124,1,threeone,,,,,,,,,,,,,,,,,,,,,,,,,,,,,,,,,,,,,,,,,,,,,,,,,,,,,,,,,,,,,,,,,,,,,,,,,,,,,,,,,,,,,,,,,,,,,,,,,,,,,,,,,,,,,,,,,,,,,,,,,,,,,,,,,,,,,,,,,,,,,,,,,,,,,,,,,,,,,
,,,,,,611cbdc447871199a422d10f,62c538dadcb3a72c003533ff,2022-07-06_09h25.41.722,Colour_Asymmetry_Pilot,2022.1.3,Win32,32,62c50e9c1127f2cd403a315f,0,34,34,156,1,threeone,,,,,,,,,,,,,,,,,,,,,,,,,,,,,,,,,,,,,,,,,,,,,,,,,,,,,,,,,,,,,,,,,,,,,,,,,,,,,,,,,,,,,,,,,,,,,,,,,,,,,,,,,,,,,,,,,,,,,,,,,,,,,,,,,,,,,,,,,,,,,,,,,,,,,,,,,,,,,
,,,,,,611cbdc447871199a422d10f,62c538dadcb3a72c003533ff,2022-07-06_09h25.41.722,Colour_Asymmetry_Pilot,2022.1.3,Win32,32,62c50e9c1127f2cd403a315f,0,35,35,1,1,onethree,,,,,,,,,,,,,,,,,,,,,,,,,,,,,,,,,,,,,,,,,,,,,,,,,,,,,,,,,,,,,,,,,,,,,,,,,,,,,,,,,,,,,,,,,,,,,,,,,,,,,,,,,,,,,,,,,,,,,,,,,,,,,,,,,,,,,,,,,,,,,,,,,,,,,,,,,,,,,
,,,,,,611cbdc447871199a422d10f,62c538dadcb3a72c003533ff,2022-07-06_09h25.41.722,Colour_Asymmetry_Pilot,2022.1.3,Win32,32,62c50e9c1127f2cd403a315f,0,36,36,40,1,onetwo,,,,,,,,,,,,,,,,,,,,,,,,,,,,,,,,,,,,,,,,,,,,,,,,,,,,,,,,,,,,,,,,,,,,,,,,,,,,,,,,,,,,,,,,,,,,,,,,,,,,,,,,,,,,,,,,,,,,,,,,,,,,,,,,,,,,,,,,,,,,,,,,,,,,,,,,,,,,,
,,,,,,611cbdc447871199a422d10f,62c538dadcb3a72c003533ff,2022-07-06_09h25.41.722,Colour_Asymmetry_Pilot,2022.1.3,Win32,32,62c50e9c1127f2cd403a315f,0,37,37,73,1,onethree,,,,,,,,,,,,,,,,,,,,,,,,,,,,,,,,,,,,,,,,,,,,,,,,,,,,,,,,,,,,,,,,,,,,,,,,,,,,,,,,,,,,,,,,,,,,,,,,,,,,,,,,,,,,,,,,,,,,,,,,,,,,,,,,,,,,,,,,,,,,,,,,,,,,,,,,,,,,,
,,,,,,611cbdc447871199a422d10f,62c538dadcb3a72c003533ff,2022-07-06_09h25.41.722,Colour_Asymmetry_Pilot,2022.1.3,Win32,32,62c50e9c1127f2cd403a315f,0,38,38,94,1,fourtwo,,,,,,,,,,,,,,,,,,,,,,,,,,,,,,,,,,,,,,,,,,,,,,,,,,,,,,,,,,,,,,,,,,,,,,,,,,,,,,,,,,,,,,,,,,,,,,,,,,,,,,,,,,,,,,,,,,,,,,,,,,,,,,,,,,,,,,,,,,,,,,,,,,,,,,,,,,,,,
,,,,,,611cbdc447871199a422d10f,62c538dadcb3a72c003533ff,2022-07-06_09h25.41.722,Colour_Asymmetry_Pilot,2022.1.3,Win32,32,62c50e9c1127f2cd403a315f,0,39,39,86,1,fourtwo,,,,,,,,,,,,,,,,,,,,,,,,,,,,,,,,,,,,,,,,,,,,,,,,,,,,,,,,,,,,,,,,,,,,,,,,,,,,,,,,,,,,,,,,,,,,,,,,,,,,,,,,,,,,,,,,,,,,,,,,,,,,,,,,,,,,,,,,,,,,,,,,,,,,,,,,,,,,,
,,,,,,611cbdc447871199a422d10f,62c538dadcb3a72c003533ff,2022-07-06_09h25.41.722,Colour_Asymmetry_Pilot,2022.1.3,Win32,32,62c50e9c1127f2cd403a315f,0,40,40,118,1,fourtwo,,,,,,,,,,,,,,,,,,,,,,,,,,,,,,,,,,,,,,,,,,,,,,,,,,,,,,,,,,,,,,,,,,,,,,,,,,,,,,,,,,,,,,,,,,,,,,,,,,,,,,,,,,,,,,,,,,,,,,,,,,,,,,,,,,,,,,,,,,,,,,,,,,,,,,,,,,,,,
,,,,,,611cbdc447871199a422d10f,62c538dadcb3a72c003533ff,2022-07-06_09h25.41.722,Colour_Asymmetry_Pilot,2022.1.3,Win32,32,62c50e9c1127f2cd403a315f,0,41,41,55,1,fourthree,,,,,,,,,,,,,,,,,,,,,,,,,,,,,,,,,,,,,,,,,,,,,,,,,,,,,,,,,,,,,,,,,,,,,,,,,,,,,,,,,,,,,,,,,,,,,,,,,,,,,,,,,,,,,,,,,,,,,,,,,,,,,,,,,,,,,,,,,,,,,,,,,,,,,,,,,,,,,
,,,,,,611cbdc447871199a422d10f,62c538dadcb3a72c003533ff,2022-07-06_09h25.41.722,Colour_Asymmetry_Pilot,2022.1.3,Win32,32,62c50e9c1127f2cd403a315f,0,42,42,35,1,twofour,,,,,,,,,,,,,,,,,,,,,,,,,,,,,,,,,,,,,,,,,,,,,,,,,,,,,,,,,,,,,,,,,,,,,,,,,,,,,,,,,,,,,,,,,,,,,,,,,,,,,,,,,,,,,,,,,,,,,,,,,,,,,,,,,,,,,,,,,,,,,,,,,,,,,,,,,,,,,
,,,,,,611cbdc447871199a422d10f,62c538dadcb3a72c003533ff,2022-07-06_09h25.41.722,Colour_Asymmetry_Pilot,2022.1.3,Win32,32,62c50e9c1127f2cd403a315f,0,43,43,158,1,fourtwo,,,,,,,,,,,,,,,,,,,,,,,,,,,,,,,,,,,,,,,,,,,,,,,,,,,,,,,,,,,,,,,,,,,,,,,,,,,,,,,,,,,,,,,,,,,,,,,,,,,,,,,,,,,,,,,,,,,,,,,,,,,,,,,,,,,,,,,,,,,,,,,,,,,,,,,,,,,,,
,,,,,,611cbdc447871199a422d10f,62c538dadcb3a72c003533ff,2022-07-06_09h25.41.722,Colour_Asymmetry_Pilot,2022.1.3,Win32,32,62c50e9c1127f2cd403a315f,0,44,44,82,1,twoone,,,,,,,,,,,,,,,,,,,,,,,,,,,,,,,,,,,,,,,,,,,,,,,,,,,,,,,,,,,,,,,,,,,,,,,,,,,,,,,,,,,,,,,,,,,,,,,,,,,,,,,,,,,,,,,,,,,,,,,,,,,,,,,,,,,,,,,,,,,,,,,,,,,,,,,,,,,,,
,,,,,,611cbdc447871199a422d10f,62c538dadcb3a72c003533ff,2022-07-06_09h25.41.722,Colour_Asymmetry_Pilot,2022.1.3,Win32,32,62c50e9c1127f2cd403a315f,0,45,45,74,1,twoone,,,,,,,,,,,,,,,,,,,,,,,,,,,,,,,,,,,,,,,,,,,,,,,,,,,,,,,,,,,,,,,,,,,,,,,,,,,,,,,,,,,,,,,,,,,,,,,,,,,,,,,,,,,,,,,,,,,,,,,,,,,,,,,,,,,,,,,,,,,,,,,,,,,,,,,,,,,,,
,,,,,,611cbdc447871199a422d10f,62c538dadcb3a72c003533ff,2022-07-06_09h25.41.722,Colour_Asymmetry_Pilot,2022.1.3,Win32,32,62c50e9c1127f2cd403a315f,0,46,46,30,1,fourtwo,,,,,,,,,,,,,,,,,,,,,,,,,,,,,,,,,,,,,,,,,,,,,,,,,,,,,,,,,,,,,,,,,,,,,,,,,,,,,,,,,,,,,,,,,,,,,,,,,,,,,,,,,,,,,,,,,,,,,,,,,,,,,,,,,,,,,,,,,,,,,,,,,,,,,,,,,,,,,
,,,,,,611cbdc447871199a422d10f,62c538dadcb3a72c003533ff,2022-07-06_09h25.41.722,Colour_Asymmetry_Pilot,2022.1.3,Win32,32,62c50e9c1127f2cd403a315f,0,47,47,48,1,onetwo,,,,,,,,,,,,,,,,,,,,,,,,,,,,,,,,,,,,,,,,,,,,,,,,,,,,,,,,,,,,,,,,,,,,,,,,,,,,,,,,,,,,,,,,,,,,,,,,,,,,,,,,,,,,,,,,,,,,,,,,,,,,,,,,,,,,,,,,,,,,,,,,,,,,,,,,,,,,,
,,,,,,611cbdc447871199a422d10f,62c538dadcb3a72c003533ff,2022-07-06_09h25.41.722,Colour_Asymmetry_Pilot,2022.1.3,Win32,32,62c50e9c1127f2cd403a315f,0,48,48,115,1,twofour,,,,,,,,,,,,,,,,,,,,,,,,,,,,,,,,,,,,,,,,,,,,,,,,,,,,,,,,,,,,,,,,,,,,,,,,,,,,,,,,,,,,,,,,,,,,,,,,,,,,,,,,,,,,,,,,,,,,,,,,,,,,,,,,,,,,,,,,,,,,,,,,,,,,,,,,,,,,,
,,,,,,611cbdc447871199a422d10f,62c538dadcb3a72c003533ff,2022-07-06_09h25.41.722,Colour_Asymmetry_Pilot,2022.1.3,Win32,32,62c50e9c1127f2cd403a315f,0,49,49,47,1,fourthree,,,,,,,,,,,,,,,,,,,,,,,,,,,,,,,,,,,,,,,,,,,,,,,,,,,,,,,,,,,,,,,,,,,,,,,,,,,,,,,,,,,,,,,,,,,,,,,,,,,,,,,,,,,,,,,,,,,,,,,,,,,,,,,,,,,,,,,,,,,,,,,,,,,,,,,,,,,,,
,,,,,,611cbdc447871199a422d10f,62c538dadcb3a72c003533ff,2022-07-06_09h25.41.722,Colour_Asymmetry_Pilot,2022.1.3,Win32,32,62c50e9c1127f2cd403a315f,0,50,50,26,1,twoone,,,,,,,,,,,,,,,,,,,,,,,,,,,,,,,,,,,,,,,,,,,,,,,,,,,,,,,,,,,,,,,,,,,,,,,,,,,,,,,,,,,,,,,,,,,,,,,,,,,,,,,,,,,,,,,,,,,,,,,,,,,,,,,,,,,,,,,,,,,,,,,,,,,,,,,,,,,,,
,,,,,,611cbdc447871199a422d10f,62c538dadcb3a72c003533ff,2022-07-06_09h25.41.722,Colour_Asymmetry_Pilot,2022.1.3,Win32,32,62c50e9c1127f2cd403a315f,0,51,51,99,1,twofour,,,,,,,,,,,,,,,,,,,,,,,,,,,,,,,,,,,,,,,,,,,,,,,,,,,,,,,,,,,,,,,,,,,,,,,,,,,,,,,,,,,,,,,,,,,,,,,,,,,,,,,,,,,,,,,,,,,,,,,,,,,,,,,,,,,,,,,,,,,,,,,,,,,,,,,,,,,,,
,,,,,,611cbdc447871199a422d10f,62c538dadcb3a72c003533ff,2022-07-06_09h25.41.722,Colour_Asymmetry_Pilot,2022.1.3,Win32,32,62c50e9c1127f2cd403a315f,0,52,52,106,1,twoone,,,,,,,,,,,,,,,,,,,,,,,,,,,,,,,,,,,,,,,,,,,,,,,,,,,,,,,,,,,,,,,,,,,,,,,,,,,,,,,,,,,,,,,,,,,,,,,,,,,,,,,,,,,,,,,,,,,,,,,,,,,,,,,,,,,,,,,,,,,,,,,,,,,,,,,,,,,,,
,,,,,,611cbdc447871199a422d10f,62c538dadcb3a72c003533ff,2022-07-06_09h25.41.722,Colour_Asymmetry_Pilot,2022.1.3,Win32,32,62c50e9c1127f2cd403a315f,0,53,53,34,1,twoone,,,,,,,,,,,,,,,,,,,,,,,,,,,,,,,,,,,,,,,,,,,,,,,,,,,,,,,,,,,,,,,,,,,,,,,,,,,,,,,,,,,,,,,,,,,,,,,,,,,,,,,,,,,,,,,,,,,,,,,,,,,,,,,,,,,,,,,,,,,,,,,,,,,,,,,,,,,,,
,,,,,,611cbdc447871199a422d10f,62c538dadcb3a72c003533ff,2022-07-06_09h25.41.722,Colour_Asymmetry_Pilot,2022.1.3,Win32,32,62c50e9c1127f2cd403a315f,0,54,54,49,1,onethree,,,,,,,,,,,,,,,,,,,,,,,,,,,,,,,,,,,,,,,,,,,,,,,,,,,,,,,,,,,,,,,,,,,,,,,,,,,,,,,,,,,,,,,,,,,,,,,,,,,,,,,,,,,,,,,,,,,,,,,,,,,,,,,,,,,,,,,,,,,,,,,,,,,,,,,,,,,,,
,,,,,,611cbdc447871199a422d10f,62c538dadcb3a72c003533ff,2022-07-06_09h25.41.722,Colour_Asymmetry_Pilot,2022.1.3,Win32,32,62c50e9c1127f2cd403a315f,0,55,55,20,1,threeone,,,,,,,,,,,,,,,,,,,,,,,,,,,,,,,,,,,,,,,,,,,,,,,,,,,,,,,,,,,,,,,,,,,,,,,,,,,,,,,,,,,,,,,,,,,,,,,,,,,,,,,,,,,,,,,,,,,,,,,,,,,,,,,,,,,,,,,,,,,,,,,,,,,,,,,,,,,,,
,,,,,,611cbdc447871199a422d10f,62c538dadcb3a72c003533ff,2022-07-06_09h25.41.722,Colour_Asymmetry_Pilot,2022.1.3,Win32,32,62c50e9c1127f2cd403a315f,0,56,56,2,1,twoone,,,,,,,,,,,,,,,,,,,,,,,,,,,,,,,,,,,,,,,,,,,,,,,,,,,,,,,,,,,,,,,,,,,,,,,,,,,,,,,,,,,,,,,,,,,,,,,,,,,,,,,,,,,,,,,,,,,,,,,,,,,,,,,,,,,,,,,,,,,,,,,,,,,,,,,,,,,,,
,,,,,,611cbdc447871199a422d10f,62c538dadcb3a72c003533ff,2022-07-06_09h25.41.722,Colour_Asymmetry_Pilot,2022.1.3,Win32,32,62c50e9c1127f2cd403a315f,0,57,57,76,1,threeone,,,,,,,,,,,,,,,,,,,,,,,,,,,,,,,,,,,,,,,,,,,,,,,,,,,,,,,,,,,,,,,,,,,,,,,,,,,,,,,,,,,,,,,,,,,,,,,,,,,,,,,,,,,,,,,,,,,,,,,,,,,,,,,,,,,,,,,,,,,,,,,,,,,,,,,,,,,,,
,,,,,,611cbdc447871199a422d10f,62c538dadcb3a72c003533ff,2022-07-06_09h25.41.722,Colour_Asymmetry_Pilot,2022.1.3,Win32,32,62c50e9c1127f2cd403a315f,0,58,58,89,1,onethree,,,,,,,,,,,,,,,,,,,,,,,,,,,,,,,,,,,,,,,,,,,,,,,,,,,,,,,,,,,,,,,,,,,,,,,,,,,,,,,,,,,,,,,,,,,,,,,,,,,,,,,,,,,,,,,,,,,,,,,,,,,,,,,,,,,,,,,,,,,,,,,,,,,,,,,,,,,,,
,,,,,,611cbdc447871199a422d10f,62c538dadcb3a72c003533ff,2022-07-06_09h25.41.722,Colour_Asymmetry_Pilot,2022.1.3,Win32,32,62c50e9c1127f2cd403a315f,0,59,59,150,1,fourtwo,,,,,,,,,,,,,,,,,,,,,,,,,,,,,,,,,,,,,,,,,,,,,,,,,,,,,,,,,,,,,,,,,,,,,,,,,,,,,,,,,,,,,,,,,,,,,,,,,,,,,,,,,,,,,,,,,,,,,,,,,,,,,,,,,,,,,,,,,,,,,,,,,,,,,,,,,,,,,
,,,,,,611cbdc447871199a422d10f,62c538dadcb3a72c003533ff,2022-07-06_09h25.41.722,Colour_Asymmetry_Pilot,2022.1.3,Win32,32,62c50e9c1127f2cd403a315f,0,60,60,140,1,threeone,,,,,,,,,,,,,,,,,,,,,,,,,,,,,,,,,,,,,,,,,,,,,,,,,,,,,,,,,,,,,,,,,,,,,,,,,,,,,,,,,,,,,,,,,,,,,,,,,,,,,,,,,,,,,,,,,,,,,,,,,,,,,,,,,,,,,,,,,,,,,,,,,,,,,,,,,,,,,
,,,,,,611cbdc447871199a422d10f,62c538dadcb3a72c003533ff,2022-07-06_09h25.41.722,Colour_Asymmetry_Pilot,2022.1.3,Win32,32,62c50e9c1127f2cd403a315f,0,61,61,88,1,onetwo,,,,,,,,,,,,,,,,,,,,,,,,,,,,,,,,,,,,,,,,,,,,,,,,,,,,,,,,,,,,,,,,,,,,,,,,,,,,,,,,,,,,,,,,,,,,,,,,,,,,,,,,,,,,,,,,,,,,,,,,,,,,,,,,,,,,,,,,,,,,,,,,,,,,,,,,,,,,,
,,,,,,611cbdc447871199a422d10f,62c538dadcb3a72c003533ff,2022-07-06_09h25.41.722,Colour_Asymmetry_Pilot,2022.1.3,Win32,32,62c50e9c1127f2cd403a315f,0,62,62,52,1,threeone,,,,,,,,,,,,,,,,,,,,,,,,,,,,,,,,,,,,,,,,,,,,,,,,,,,,,,,,,,,,,,,,,,,,,,,,,,,,,,,,,,,,,,,,,,,,,,,,,,,,,,,,,,,,,,,,,,,,,,,,,,,,,,,,,,,,,,,,,,,,,,,,,,,,,,,,,,,,,
,,,,,,611cbdc447871199a422d10f,62c538dadcb3a72c003533ff,2022-07-06_09h25.41.722,Colour_Asymmetry_Pilot,2022.1.3,Win32,32,62c50e9c1127f2cd403a315f,0,63,63,12,1,threeone,,,,,,,,,,,,,,,,,,,,,,,,,,,,,,,,,,,,,,,,,,,,,,,,,,,,,,,,,,,,,,,,,,,,,,,,,,,,,,,,,,,,,,,,,,,,,,,,,,,,,,,,,,,,,,,,,,,,,,,,,,,,,,,,,,,,,,,,,,,,,,,,,,,,,,,,,,,,,
,,,,,,611cbdc447871199a422d10f,62c538dadcb3a72c003533ff,2022-07-06_09h25.41.722,Colour_Asymmetry_Pilot,2022.1.3,Win32,32,62c50e9c1127f2cd403a315f,0,64,64,42,1,twoone,,,,,,,,,,,,,,,,,,,,,,,,,,,,,,,,,,,,,,,,,,,,,,,,,,,,,,,,,,,,,,,,,,,,,,,,,,,,,,,,,,,,,,,,,,,,,,,,,,,,,,,,,,,,,,,,,,,,,,,,,,,,,,,,,,,,,,,,,,,,,,,,,,,,,,,,,,,,,
,,,,,,611cbdc447871199a422d10f,62c538dadcb3a72c003533ff,2022-07-06_09h25.41.722,Colour_Asymmetry_Pilot,2022.1.3,Win32,32,62c50e9c1127f2cd403a315f,0,65,65,44,1,threeone,,,,,,,,,,,,,,,,,,,,,,,,,,,,,,,,,,,,,,,,,,,,,,,,,,,,,,,,,,,,,,,,,,,,,,,,,,,,,,,,,,,,,,,,,,,,,,,,,,,,,,,,,,,,,,,,,,,,,,,,,,,,,,,,,,,,,,,,,,,,,,,,,,,,,,,,,,,,,
,,,,,,611cbdc447871199a422d10f,62c538dadcb3a72c003533ff,2022-07-06_09h25.41.722,Colour_Asymmetry_Pilot,2022.1.3,Win32,32,62c50e9c1127f2cd403a315f,0,66,66,65,1,onethree,,,,,,,,,,,,,,,,,,,,,,,,,,,,,,,,,,,,,,,,,,,,,,,,,,,,,,,,,,,,,,,,,,,,,,,,,,,,,,,,,,,,,,,,,,,,,,,,,,,,,,,,,,,,,,,,,,,,,,,,,,,,,,,,,,,,,,,,,,,,,,,,,,,,,,,,,,,,,
,,,,,,611cbdc447871199a422d10f,62c538dadcb3a72c003533ff,2022-07-06_09h25.41.722,Colour_Asymmetry_Pilot,2022.1.3,Win32,32,62c50e9c1127f2cd403a315f,0,67,67,87,1,fourthree,,,,,,,,,,,,,,,,,,,,,,,,,,,,,,,,,,,,,,,,,,,,,,,,,,,,,,,,,,,,,,,,,,,,,,,,,,,,,,,,,,,,,,,,,,,,,,,,,,,,,,,,,,,,,,,,,,,,,,,,,,,,,,,,,,,,,,,,,,,,,,,,,,,,,,,,,,,,,
,,,,,,611cbdc447871199a422d10f,62c538dadcb3a72c003533ff,2022-07-06_09h25.41.722,Colour_Asymmetry_Pilot,2022.1.3,Win32,32,62c50e9c1127f2cd403a315f,0,68,68,92,1,threeone,,,,,,,,,,,,,,,,,,,,,,,,,,,,,,,,,,,,,,,,,,,,,,,,,,,,,,,,,,,,,,,,,,,,,,,,,,,,,,,,,,,,,,,,,,,,,,,,,,,,,,,,,,,,,,,,,,,,,,,,,,,,,,,,,,,,,,,,,,,,,,,,,,,,,,,,,,,,,
,,,,,,611cbdc447871199a422d10f,62c538dadcb3a72c003533ff,2022-07-06_09h25.41.722,Colour_Asymmetry_Pilot,2022.1.3,Win32,32,62c50e9c1127f2cd403a315f,0,69,69,32,1,onetwo,,,,,,,,,,,,,,,,,,,,,,,,,,,,,,,,,,,,,,,,,,,,,,,,,,,,,,,,,,,,,,,,,,,,,,,,,,,,,,,,,,,,,,,,,,,,,,,,,,,,,,,,,,,,,,,,,,,,,,,,,,,,,,,,,,,,,,,,,,,,,,,,,,,,,,,,,,,,,
,,,,,,611cbdc447871199a422d10f,62c538dadcb3a72c003533ff,2022-07-06_09h25.41.722,Colour_Asymmetry_Pilot,2022.1.3,Win32,32,62c50e9c1127f2cd403a315f,0,70,70,108,1,threeone,,,,,,,,,,,,,,,,,,,,,,,,,,,,,,,,,,,,,,,,,,,,,,,,,,,,,,,,,,,,,,,,,,,,,,,,,,,,,,,,,,,,,,,,,,,,,,,,,,,,,,,,,,,,,,,,,,,,,,,,,,,,,,,,,,,,,,,,,,,,,,,,,,,,,,,,,,,,,
,,,,,,611cbdc447871199a422d10f,62c538dadcb3a72c003533ff,2022-07-06_09h25.41.722,Colour_Asymmetry_Pilot,2022.1.3,Win32,32,62c50e9c1127f2cd403a315f,0,71,71,13,1,threefour,,,,,,,,,,,,,,,,,,,,,,,,,,,,,,,,,,,,,,,,,,,,,,,,,,,,,,,,,,,,,,,,,,,,,,,,,,,,,,,,,,,,,,,,,,,,,,,,,,,,,,,,,,,,,,,,,,,,,,,,,,,,,,,,,,,,,,,,,,,,,,,,,,,,,,,,,,,,,
,,,,,,611cbdc447871199a422d10f,62c538dadcb3a72c003533ff,2022-07-06_09h25.41.722,Colour_Asymmetry_Pilot,2022.1.3,Win32,32,62c50e9c1127f2cd403a315f,0,72,72,4,1,threeone,,,,,,,,,,,,,,,,,,,,,,,,,,,,,,,,,,,,,,,,,,,,,,,,,,,,,,,,,,,,,,,,,,,,,,,,,,,,,,,,,,,,,,,,,,,,,,,,,,,,,,,,,,,,,,,,,,,,,,,,,,,,,,,,,,,,,,,,,,,,,,,,,,,,,,,,,,,,,
,,,,,,611cbdc447871199a422d10f,62c538dadcb3a72c003533ff,2022-07-06_09h25.41.722,Colour_Asymmetry_Pilot,2022.1.3,Win32,32,62c50e9c1127f2cd403a315f,0,73,73,151,1,fourthree,,,,,,,,,,,,,,,,,,,,,,,,,,,,,,,,,,,,,,,,,,,,,,,,,,,,,,,,,,,,,,,,,,,,,,,,,,,,,,,,,,,,,,,,,,,,,,,,,,,,,,,,,,,,,,,,,,,,,,,,,,,,,,,,,,,,,,,,,,,,,,,,,,,,,,,,,,,,,
,,,,,,611cbdc447871199a422d10f,62c538dadcb3a72c003533ff,2022-07-06_09h25.41.722,Colour_Asymmetry_Pilot,2022.1.3,Win32,32,62c50e9c1127f2cd403a315f,0,74,74,138,1,twoone,,,,,,,,,,,,,,,,,,,,,,,,,,,,,,,,,,,,,,,,,,,,,,,,,,,,,,,,,,,,,,,,,,,,,,,,,,,,,,,,,,,,,,,,,,,,,,,,,,,,,,,,,,,,,,,,,,,,,,,,,,,,,,,,,,,,,,,,,,,,,,,,,,,,,,,,,,,,,
,,,,,,611cbdc447871199a422d10f,62c538dadcb3a72c003533ff,2022-07-06_09h25.41.722,Colour_Asymmetry_Pilot,2022.1.3,Win32,32,62c50e9c1127f2cd403a315f,0,75,75,143,1,fourthree,,,,,,,,,,,,,,,,,,,,,,,,,,,,,,,,,,,,,,,,,,,,,,,,,,,,,,,,,,,,,,,,,,,,,,,,,,,,,,,,,,,,,,,,,,,,,,,,,,,,,,,,,,,,,,,,,,,,,,,,,,,,,,,,,,,,,,,,,,,,,,,,,,,,,,,,,,,,,
,,,,,,611cbdc447871199a422d10f,62c538dadcb3a72c003533ff,2022-07-06_09h25.41.722,Colour_Asymmetry_Pilot,2022.1.3,Win32,32,62c50e9c1127f2cd403a315f,0,76,76,51,1,twofour,,,,,,,,,,,,,,,,,,,,,,,,,,,,,,,,,,,,,,,,,,,,,,,,,,,,,,,,,,,,,,,,,,,,,,,,,,,,,,,,,,,,,,,,,,,,,,,,,,,,,,,,,,,,,,,,,,,,,,,,,,,,,,,,,,,,,,,,,,,,,,,,,,,,,,,,,,,,,
,,,,,,611cbdc447871199a422d10f,62c538dadcb3a72c003533ff,2022-07-06_09h25.41.722,Colour_Asymmetry_Pilot,2022.1.3,Win32,32,62c50e9c1127f2cd403a315f,0,77,77,14,1,fourtwo,,,,,,,,,,,,,,,,,,,,,,,,,,,,,,,,,,,,,,,,,,,,,,,,,,,,,,,,,,,,,,,,,,,,,,,,,,,,,,,,,,,,,,,,,,,,,,,,,,,,,,,,,,,,,,,,,,,,,,,,,,,,,,,,,,,,,,,,,,,,,,,,,,,,,,,,,,,,,
,,,,,,611cbdc447871199a422d10f,62c538dadcb3a72c003533ff,2022-07-06_09h25.41.722,Colour_Asymmetry_Pilot,2022.1.3,Win32,32,62c50e9c1127f2cd403a315f,0,78,78,24,1,onetwo,,,,,,,,,,,,,,,,,,,,,,,,,,,,,,,,,,,,,,,,,,,,,,,,,,,,,,,,,,,,,,,,,,,,,,,,,,,,,,,,,,,,,,,,,,,,,,,,,,,,,,,,,,,,,,,,,,,,,,,,,,,,,,,,,,,,,,,,,,,,,,,,,,,,,,,,,,,,,
,,,,,,611cbdc447871199a422d10f,62c538dadcb3a72c003533ff,2022-07-06_09h25.41.722,Colour_Asymmetry_Pilot,2022.1.3,Win32,32,62c50e9c1127f2cd403a315f,0,79,79,72,1,onetwo,,,,,,,,,,,,,,,,,,,,,,,,,,,,,,,,,,,,,,,,,,,,,,,,,,,,,,,,,,,,,,,,,,,,,,,,,,,,,,,,,,,,,,,,,,,,,,,,,,,,,,,,,,,,,,,,,,,,,,,,,,,,,,,,,,,,,,,,,,,,,,,,,,,,,,,,,,,,,
,,,,,,611cbdc447871199a422d10f,62c538dadcb3a72c003533ff,2022-07-06_09h25.41.722,Colour_Asymmetry_Pilot,2022.1.3,Win32,32,62c50e9c1127f2cd403a315f,0,80,80,160,1,onetwo,,,,,,,,,,,,,,,,,,,,,,,,,,,,,,,,,,,,,,,,,,,,,,,,,,,,,,,,,,,,,,,,,,,,,,,,,,,,,,,,,,,,,,,,,,,,,,,,,,,,,,,,,,,,,,,,,,,,,,,,,,,,,,,,,,,,,,,,,,,,,,,,,,,,,,,,,,,,,
,,,,,,611cbdc447871199a422d10f,62c538dadcb3a72c003533ff,2022-07-06_09h25.41.722,Colour_Asymmetry_Pilot,2022.1.3,Win32,32,62c50e9c1127f2cd403a315f,0,81,81,23,1,fourthree,,,,,,,,,,,,,,,,,,,,,,,,,,,,,,,,,,,,,,,,,,,,,,,,,,,,,,,,,,,,,,,,,,,,,,,,,,,,,,,,,,,,,,,,,,,,,,,,,,,,,,,,,,,,,,,,,,,,,,,,,,,,,,,,,,,,,,,,,,,,,,,,,,,,,,,,,,,,,
,,,,,,611cbdc447871199a422d10f,62c538dadcb3a72c003533ff,2022-07-06_09h25.41.722,Colour_Asymmetry_Pilot,2022.1.3,Win32,32,62c50e9c1127f2cd403a315f,0,82,82,69,1,threefour,,,,,,,,,,,,,,,,,,,,,,,,,,,,,,,,,,,,,,,,,,,,,,,,,,,,,,,,,,,,,,,,,,,,,,,,,,,,,,,,,,,,,,,,,,,,,,,,,,,,,,,,,,,,,,,,,,,,,,,,,,,,,,,,,,,,,,,,,,,,,,,,,,,,,,,,,,,,,
,,,,,,611cbdc447871199a422d10f,62c538dadcb3a72c003533ff,2022-07-06_09h25.41.722,Colour_Asymmetry_Pilot,2022.1.3,Win32,32,62c50e9c1127f2cd403a315f,0,83,83,39,1,fourthree,,,,,,,,,,,,,,,,,,,,,,,,,,,,,,,,,,,,,,,,,,,,,,,,,,,,,,,,,,,,,,,,,,,,,,,,,,,,,,,,,,,,,,,,,,,,,,,,,,,,,,,,,,,,,,,,,,,,,,,,,,,,,,,,,,,,,,,,,,,,,,,,,,,,,,,,,,,,,
,,,,,,611cbdc447871199a422d10f,62c538dadcb3a72c003533ff,2022-07-06_09h25.41.722,Colour_Asymmetry_Pilot,2022.1.3,Win32,32,62c50e9c1127f2cd403a315f,0,84,84,21,1,threefour,,,,,,,,,,,,,,,,,,,,,,,,,,,,,,,,,,,,,,,,,,,,,,,,,,,,,,,,,,,,,,,,,,,,,,,,,,,,,,,,,,,,,,,,,,,,,,,,,,,,,,,,,,,,,,,,,,,,,,,,,,,,,,,,,,,,,,,,,,,,,,,,,,,,,,,,,,,,,
,,,,,,611cbdc447871199a422d10f,62c538dadcb3a72c003533ff,2022-07-06_09h25.41.722,Colour_Asymmetry_Pilot,2022.1.3,Win32,32,62c50e9c1127f2cd403a315f,0,85,85,135,1,fourthree,,,,,,,,,,,,,,,,,,,,,,,,,,,,,,,,,,,,,,,,,,,,,,,,,,,,,,,,,,,,,,,,,,,,,,,,,,,,,,,,,,,,,,,,,,,,,,,,,,,,,,,,,,,,,,,,,,,,,,,,,,,,,,,,,,,,,,,,,,,,,,,,,,,,,,,,,,,,,
,,,,,,611cbdc447871199a422d10f,62c538dadcb3a72c003533ff,2022-07-06_09h25.41.722,Colour_Asymmetry_Pilot,2022.1.3,Win32,32,62c50e9c1127f2cd403a315f,0,86,86,161,1,onethree,,,,,,,,,,,,,,,,,,,,,,,,,,,,,,,,,,,,,,,,,,,,,,,,,,,,,,,,,,,,,,,,,,,,,,,,,,,,,,,,,,,,,,,,,,,,,,,,,,,,,,,,,,,,,,,,,,,,,,,,,,,,,,,,,,,,,,,,,,,,,,,,,,,,,,,,,,,,,
,,,,,,611cbdc447871199a422d10f,62c538dadcb3a72c003533ff,2022-07-06_09h25.41.722,Colour_Asymmetry_Pilot,2022.1.3,Win32,32,62c50e9c1127f2cd403a315f,0,87,87,11,1,twofour,,,,,,,,,,,,,,,,,,,,,,,,,,,,,,,,,,,,,,,,,,,,,,,,,,,,,,,,,,,,,,,,,,,,,,,,,,,,,,,,,,,,,,,,,,,,,,,,,,,,,,,,,,,,,,,,,,,,,,,,,,,,,,,,,,,,,,,,,,,,,,,,,,,,,,,,,,,,,
,,,,,,611cbdc447871199a422d10f,62c538dadcb3a72c003533ff,2022-07-06_09h25.41.722,Colour_Asymmetry_Pilot,2022.1.3,Win32,32,62c50e9c1127f2cd403a315f,0,88,88,97,1,onethree,,,,,,,,,,,,,,,,,,,,,,,,,,,,,,,,,,,,,,,,,,,,,,,,,,,,,,,,,,,,,,,,,,,,,,,,,,,,,,,,,,,,,,,,,,,,,,,,,,,,,,,,,,,,,,,,,,,,,,,,,,,,,,,,,,,,,,,,,,,,,,,,,,,,,,,,,,,,,
,,,,,,611cbdc447871199a422d10f,62c538dadcb3a72c003533ff,2022-07-06_09h25.41.722,Colour_Asymmetry_Pilot,2022.1.3,Win32,32,62c50e9c1127f2cd403a315f,0,89,89,136,1,onetwo,,,,,,,,,,,,,,,,,,,,,,,,,,,,,,,,,,,,,,,,,,,,,,,,,,,,,,,,,,,,,,,,,,,,,,,,,,,,,,,,,,,,,,,,,,,,,,,,,,,,,,,,,,,,,,,,,,,,,,,,,,,,,,,,,,,,,,,,,,,,,,,,,,,,,,,,,,,,,
,,,,,,611cbdc447871199a422d10f,62c538dadcb3a72c003533ff,2022-07-06_09h25.41.722,Colour_Asymmetry_Pilot,2022.1.3,Win32,32,62c50e9c1127f2cd403a315f,0,90,90,10,1,twoone,,,,,,,,,,,,,,,,,,,,,,,,,,,,,,,,,,,,,,,,,,,,,,,,,,,,,,,,,,,,,,,,,,,,,,,,,,,,,,,,,,,,,,,,,,,,,,,,,,,,,,,,,,,,,,,,,,,,,,,,,,,,,,,,,,,,,,,,,,,,,,,,,,,,,,,,,,,,,
,,,,,,611cbdc447871199a422d10f,62c538dadcb3a72c003533ff,2022-07-06_09h25.41.722,Colour_Asymmetry_Pilot,2022.1.3,Win32,32,62c50e9c1127f2cd403a315f,0,91,91,144,1,onetwo,,,,,,,,,,,,,,,,,,,,,,,,,,,,,,,,,,,,,,,,,,,,,,,,,,,,,,,,,,,,,,,,,,,,,,,,,,,,,,,,,,,,,,,,,,,,,,,,,,,,,,,,,,,,,,,,,,,,,,,,,,,,,,,,,,,,,,,,,,,,,,,,,,,,,,,,,,,,,
,,,,,,611cbdc447871199a422d10f,62c538dadcb3a72c003533ff,2022-07-06_09h25.41.722,Colour_Asymmetry_Pilot,2022.1.3,Win32,32,62c50e9c1127f2cd403a315f,0,92,92,103,1,fourthree,,,,,,,,,,,,,,,,,,,,,,,,,,,,,,,,,,,,,,,,,,,,,,,,,,,,,,,,,,,,,,,,,,,,,,,,,,,,,,,,,,,,,,,,,,,,,,,,,,,,,,,,,,,,,,,,,,,,,,,,,,,,,,,,,,,,,,,,,,,,,,,,,,,,,,,,,,,,,
,,,,,,611cbdc447871199a422d10f,62c538dadcb3a72c003533ff,2022-07-06_09h25.41.722,Colour_Asymmetry_Pilot,2022.1.3,Win32,32,62c50e9c1127f2cd403a315f,0,93,93,43,1,twofour,,,,,,,,,,,,,,,,,,,,,,,,,,,,,,,,,,,,,,,,,,,,,,,,,,,,,,,,,,,,,,,,,,,,,,,,,,,,,,,,,,,,,,,,,,,,,,,,,,,,,,,,,,,,,,,,,,,,,,,,,,,,,,,,,,,,,,,,,,,,,,,,,,,,,,,,,,,,,
,,,,,,611cbdc447871199a422d10f,62c538dadcb3a72c003533ff,2022-07-06_09h25.41.722,Colour_Asymmetry_Pilot,2022.1.3,Win32,32,62c50e9c1127f2cd403a315f,0,94,94,6,1,fourtwo,,,,,,,,,,,,,,,,,,,,,,,,,,,,,,,,,,,,,,,,,,,,,,,,,,,,,,,,,,,,,,,,,,,,,,,,,,,,,,,,,,,,,,,,,,,,,,,,,,,,,,,,,,,,,,,,,,,,,,,,,,,,,,,,,,,,,,,,,,,,,,,,,,,,,,,,,,,,,
,,,,,,611cbdc447871199a422d10f,62c538dadcb3a72c003533ff,2022-07-06_09h25.41.722,Colour_Asymmetry_Pilot,2022.1.3,Win32,32,62c50e9c1127f2cd403a315f,0,95,95,134,1,fourtwo,,,,,,,,,,,,,,,,,,,,,,,,,,,,,,,,,,,,,,,,,,,,,,,,,,,,,,,,,,,,,,,,,,,,,,,,,,,,,,,,,,,,,,,,,,,,,,,,,,,,,,,,,,,,,,,,,,,,,,,,,,,,,,,,,,,,,,,,,,,,,,,,,,,,,,,,,,,,,
,,,,,,611cbdc447871199a422d10f,62c538dadcb3a72c003533ff,2022-07-06_09h25.41.722,Colour_Asymmetry_Pilot,2022.1.3,Win32,32,62c50e9c1127f2cd403a315f,0,96,96,16,1,onetwo,,,,,,,,,,,,,,,,,,,,,,,,,,,,,,,,,,,,,,,,,,,,,,,,,,,,,,,,,,,,,,,,,,,,,,,,,,,,,,,,,,,,,,,,,,,,,,,,,,,,,,,,,,,,,,,,,,,,,,,,,,,,,,,,,,,,,,,,,,,,,,,,,,,,,,,,,,,,,
,,,,,,611cbdc447871199a422d10f,62c538dadcb3a72c003533ff,2022-07-06_09h25.41.722,Colour_Asymmetry_Pilot,2022.1.3,Win32,32,62c50e9c1127f2cd403a315f,0,97,97,60,1,threeone,,,,,,,,,,,,,,,,,,,,,,,,,,,,,,,,,,,,,,,,,,,,,,,,,,,,,,,,,,,,,,,,,,,,,,,,,,,,,,,,,,,,,,,,,,,,,,,,,,,,,,,,,,,,,,,,,,,,,,,,,,,,,,,,,,,,,,,,,,,,,,,,,,,,,,,,,,,,,
,,,,,,611cbdc447871199a422d10f,62c538dadcb3a72c003533ff,2022-07-06_09h25.41.722,Colour_Asymmetry_Pilot,2022.1.3,Win32,32,62c50e9c1127f2cd403a315f,0,98,98,121,1,onethree,,,,,,,,,,,,,,,,,,,,,,,,,,,,,,,,,,,,,,,,,,,,,,,,,,,,,,,,,,,,,,,,,,,,,,,,,,,,,,,,,,,,,,,,,,,,,,,,,,,,,,,,,,,,,,,,,,,,,,,,,,,,,,,,,,,,,,,,,,,,,,,,,,,,,,,,,,,,,
,,,,,,611cbdc447871199a422d10f,62c538dadcb3a72c003533ff,2022-07-06_09h25.41.722,Colour_Asymmetry_Pilot,2022.1.3,Win32,32,62c50e9c1127f2cd403a315f,0,99,99,36,1,threeone,,,,,,,,,,,,,,,,,,,,,,,,,,,,,,,,,,,,,,,,,,,,,,,,,,,,,,,,,,,,,,,,,,,,,,,,,,,,,,,,,,,,,,,,,,,,,,,,,,,,,,,,,,,,,,,,,,,,,,,,,,,,,,,,,,,,,,,,,,,,,,,,,,,,,,,,,,,,,
,,,,,,611cbdc447871199a422d10f,62c538dadcb3a72c003533ff,2022-07-06_09h25.41.722,Colour_Asymmetry_Pilot,2022.1.3,Win32,32,62c50e9c1127f2cd403a315f,0,100,100,0,1,onetwo,,,,,,,,,,,,,,,,,,,,,,,,,,,,,,,,,,,,,,,,,,,,,,,,,,,,,,,,,,,,,,,,,,,,,,,,,,,,,,,,,,,,,,,,,,,,,,,,,,,,,,,,,,,,,,,,,,,,,,,,,,,,,,,,,,,,,,,,,,,,,,,,,,,,,,,,,,,,,
,,,,,,611cbdc447871199a422d10f,62c538dadcb3a72c003533ff,2022-07-06_09h25.41.722,Colour_Asymmetry_Pilot,2022.1.3,Win32,32,62c50e9c1127f2cd403a315f,0,101,101,3,1,twofour,,,,,,,,,,,,,,,,,,,,,,,,,,,,,,,,,,,,,,,,,,,,,,,,,,,,,,,,,,,,,,,,,,,,,,,,,,,,,,,,,,,,,,,,,,,,,,,,,,,,,,,,,,,,,,,,,,,,,,,,,,,,,,,,,,,,,,,,,,,,,,,,,,,,,,,,,,,,,
,,,,,,611cbdc447871199a422d10f,62c538dadcb3a72c003533ff,2022-07-06_09h25.41.722,Colour_Asymmetry_Pilot,2022.1.3,Win32,32,62c50e9c1127f2cd403a315f,0,102,102,157,1,threefour,,,,,,,,,,,,,,,,,,,,,,,,,,,,,,,,,,,,,,,,,,,,,,,,,,,,,,,,,,,,,,,,,,,,,,,,,,,,,,,,,,,,,,,,,,,,,,,,,,,,,,,,,,,,,,,,,,,,,,,,,,,,,,,,,,,,,,,,,,,,,,,,,,,,,,,,,,,,,
,,,,,,611cbdc447871199a422d10f,62c538dadcb3a72c003533ff,2022-07-06_09h25.41.722,Colour_Asymmetry_Pilot,2022.1.3,Win32,32,62c50e9c1127f2cd403a315f,0,103,103,58,1,twoone,,,,,,,,,,,,,,,,,,,,,,,,,,,,,,,,,,,,,,,,,,,,,,,,,,,,,,,,,,,,,,,,,,,,,,,,,,,,,,,,,,,,,,,,,,,,,,,,,,,,,,,,,,,,,,,,,,,,,,,,,,,,,,,,,,,,,,,,,,,,,,,,,,,,,,,,,,,,,
,,,,,,611cbdc447871199a422d10f,62c538dadcb3a72c003533ff,2022-07-06_09h25.41.722,Colour_Asymmetry_Pilot,2022.1.3,Win32,32,62c50e9c1127f2cd403a315f,0,104,104,70,1,fourtwo,,,,,,,,,,,,,,,,,,,,,,,,,,,,,,,,,,,,,,,,,,,,,,,,,,,,,,,,,,,,,,,,,,,,,,,,,,,,,,,,,,,,,,,,,,,,,,,,,,,,,,,,,,,,,,,,,,,,,,,,,,,,,,,,,,,,,,,,,,,,,,,,,,,,,,,,,,,,,
,,,,,,611cbdc447871199a422d10f,62c538dadcb3a72c003533ff,2022-07-06_09h25.41.722,Colour_Asymmetry_Pilot,2022.1.3,Win32,32,62c50e9c1127f2cd403a315f,0,105,105,38,1,fourtwo,,,,,,,,,,,,,,,,,,,,,,,,,,,,,,,,,,,,,,,,,,,,,,,,,,,,,,,,,,,,,,,,,,,,,,,,,,,,,,,,,,,,,,,,,,,,,,,,,,,,,,,,,,,,,,,,,,,,,,,,,,,,,,,,,,,,,,,,,,,,,,,,,,,,,,,,,,,,,
,,,,,,611cbdc447871199a422d10f,62c538dadcb3a72c003533ff,2022-07-06_09h25.41.722,Colour_Asymmetry_Pilot,2022.1.3,Win32,32,62c50e9c1127f2cd403a315f,0,106,106,45,1,threefour,,,,,,,,,,,,,,,,,,,,,,,,,,,,,,,,,,,,,,,,,,,,,,,,,,,,,,,,,,,,,,,,,,,,,,,,,,,,,,,,,,,,,,,,,,,,,,,,,,,,,,,,,,,,,,,,,,,,,,,,,,,,,,,,,,,,,,,,,,,,,,,,,,,,,,,,,,,,,
,,,,,,611cbdc447871199a422d10f,62c538dadcb3a72c003533ff,2022-07-06_09h25.41.722,Colour_Asymmetry_Pilot,2022.1.3,Win32,32,62c50e9c1127f2cd403a315f,0,107,107,114,1,twoone,,,,,,,,,,,,,,,,,,,,,,,,,,,,,,,,,,,,,,,,,,,,,,,,,,,,,,,,,,,,,,,,,,,,,,,,,,,,,,,,,,,,,,,,,,,,,,,,,,,,,,,,,,,,,,,,,,,,,,,,,,,,,,,,,,,,,,,,,,,,,,,,,,,,,,,,,,,,,
,,,,,,611cbdc447871199a422d10f,62c538dadcb3a72c003533ff,2022-07-06_09h25.41.722,Colour_Asymmetry_Pilot,2022.1.3,Win32,32,62c50e9c1127f2cd403a315f,0,108,108,95,1,fourthree,,,,,,,,,,,,,,,,,,,,,,,,,,,,,,,,,,,,,,,,,,,,,,,,,,,,,,,,,,,,,,,,,,,,,,,,,,,,,,,,,,,,,,,,,,,,,,,,,,,,,,,,,,,,,,,,,,,,,,,,,,,,,,,,,,,,,,,,,,,,,,,,,,,,,,,,,,,,,
,,,,,,611cbdc447871199a422d10f,62c538dadcb3a72c003533ff,2022-07-06_09h25.41.722,Colour_Asymmetry_Pilot,2022.1.3,Win32,32,62c50e9c1127f2cd403a315f,0,109,109,141,1,threefour,,,,,,,,,,,,,,,,,,,,,,,,,,,,,,,,,,,,,,,,,,,,,,,,,,,,,,,,,,,,,,,,,,,,,,,,,,,,,,,,,,,,,,,,,,,,,,,,,,,,,,,,,,,,,,,,,,,,,,,,,,,,,,,,,,,,,,,,,,,,,,,,,,,,,,,,,,,,,
,,,,,,611cbdc447871199a422d10f,62c538dadcb3a72c003533ff,2022-07-06_09h25.41.722,Colour_Asymmetry_Pilot,2022.1.3,Win32,32,62c50e9c1127f2cd403a315f,0,110,110,152,1,onetwo,,,,,,,,,,,,,,,,,,,,,,,,,,,,,,,,,,,,,,,,,,,,,,,,,,,,,,,,,,,,,,,,,,,,,,,,,,,,,,,,,,,,,,,,,,,,,,,,,,,,,,,,,,,,,,,,,,,,,,,,,,,,,,,,,,,,,,,,,,,,,,,,,,,,,,,,,,,,,
,,,,,,611cbdc447871199a422d10f,62c538dadcb3a72c003533ff,2022-07-06_09h25.41.722,Colour_Asymmetry_Pilot,2022.1.3,Win32,32,62c50e9c1127f2cd403a315f,0,111,111,8,1,onetwo,,,,,,,,,,,,,,,,,,,,,,,,,,,,,,,,,,,,,,,,,,,,,,,,,,,,,,,,,,,,,,,,,,,,,,,,,,,,,,,,,,,,,,,,,,,,,,,,,,,,,,,,,,,,,,,,,,,,,,,,,,,,,,,,,,,,,,,,,,,,,,,,,,,,,,,,,,,,,
,,,,,,611cbdc447871199a422d10f,62c538dadcb3a72c003533ff,2022-07-06_09h25.41.722,Colour_Asymmetry_Pilot,2022.1.3,Win32,32,62c50e9c1127f2cd403a315f,0,112,112,59,1,twofour,,,,,,,,,,,,,,,,,,,,,,,,,,,,,,,,,,,,,,,,,,,,,,,,,,,,,,,,,,,,,,,,,,,,,,,,,,,,,,,,,,,,,,,,,,,,,,,,,,,,,,,,,,,,,,,,,,,,,,,,,,,,,,,,,,,,,,,,,,,,,,,,,,,,,,,,,,,,,
,,,,,,611cbdc447871199a422d10f,62c538dadcb3a72c003533ff,2022-07-06_09h25.41.722,Colour_Asymmetry_Pilot,2022.1.3,Win32,32,62c50e9c1127f2cd403a315f,0,113,113,148,1,threeone,,,,,,,,,,,,,,,,,,,,,,,,,,,,,,,,,,,,,,,,,,,,,,,,,,,,,,,,,,,,,,,,,,,,,,,,,,,,,,,,,,,,,,,,,,,,,,,,,,,,,,,,,,,,,,,,,,,,,,,,,,,,,,,,,,,,,,,,,,,,,,,,,,,,,,,,,,,,,
,,,,,,611cbdc447871199a422d10f,62c538dadcb3a72c003533ff,2022-07-06_09h25.41.722,Colour_Asymmetry_Pilot,2022.1.3,Win32,32,62c50e9c1127f2cd403a315f,0,114,114,27,1,twofour,,,,,,,,,,,,,,,,,,,,,,,,,,,,,,,,,,,,,,,,,,,,,,,,,,,,,,,,,,,,,,,,,,,,,,,,,,,,,,,,,,,,,,,,,,,,,,,,,,,,,,,,,,,,,,,,,,,,,,,,,,,,,,,,,,,,,,,,,,,,,,,,,,,,,,,,,,,,,
,,,,,,611cbdc447871199a422d10f,62c538dadcb3a72c003533ff,2022-07-06_09h25.41.722,Colour_Asymmetry_Pilot,2022.1.3,Win32,32,62c50e9c1127f2cd403a315f,0,115,115,155,1,twofour,,,,,,,,,,,,,,,,,,,,,,,,,,,,,,,,,,,,,,,,,,,,,,,,,,,,,,,,,,,,,,,,,,,,,,,,,,,,,,,,,,,,,,,,,,,,,,,,,,,,,,,,,,,,,,,,,,,,,,,,,,,,,,,,,,,,,,,,,,,,,,,,,,,,,,,,,,,,,
,,,,,,611cbdc447871199a422d10f,62c538dadcb3a72c003533ff,2022-07-06_09h25.41.722,Colour_Asymmetry_Pilot,2022.1.3,Win32,32,62c50e9c1127f2cd403a315f,0,116,116,127,1,fourthree,,,,,,,,,,,,,,,,,,,,,,,,,,,,,,,,,,,,,,,,,,,,,,,,,,,,,,,,,,,,,,,,,,,,,,,,,,,,,,,,,,,,,,,,,,,,,,,,,,,,,,,,,,,,,,,,,,,,,,,,,,,,,,,,,,,,,,,,,,,,,,,,,,,,,,,,,,,,,
,,,,,,611cbdc447871199a422d10f,62c538dadcb3a72c003533ff,2022-07-06_09h25.41.722,Colour_Asymmetry_Pilot,2022.1.3,Win32,32,62c50e9c1127f2cd403a315f,0,117,117,130,1,twoone,,,,,,,,,,,,,,,,,,,,,,,,,,,,,,,,,,,,,,,,,,,,,,,,,,,,,,,,,,,,,,,,,,,,,,,,,,,,,,,,,,,,,,,,,,,,,,,,,,,,,,,,,,,,,,,,,,,,,,,,,,,,,,,,,,,,,,,,,,,,,,,,,,,,,,,,,,,,,
,,,,,,611cbdc447871199a422d10f,62c538dadcb3a72c003533ff,2022-07-06_09h25.41.722,Colour_Asymmetry_Pilot,2022.1.3,Win32,32,62c50e9c1127f2cd403a315f,0,118,118,85,1,threefour,,,,,,,,,,,,,,,,,,,,,,,,,,,,,,,,,,,,,,,,,,,,,,,,,,,,,,,,,,,,,,,,,,,,,,,,,,,,,,,,,,,,,,,,,,,,,,,,,,,,,,,,,,,,,,,,,,,,,,,,,,,,,,,,,,,,,,,,,,,,,,,,,,,,,,,,,,,,,
,,,,,,611cbdc447871199a422d10f,62c538dadcb3a72c003533ff,2022-07-06_09h25.41.722,Colour_Asymmetry_Pilot,2022.1.3,Win32,32,62c50e9c1127f2cd403a315f,0,119,119,101,1,threefour,,,,,,,,,,,,,,,,,,,,,,,,,,,,,,,,,,,,,,,,,,,,,,,,,,,,,,,,,,,,,,,,,,,,,,,,,,,,,,,,,,,,,,,,,,,,,,,,,,,,,,,,,,,,,,,,,,,,,,,,,,,,,,,,,,,,,,,,,,,,,,,,,,,,,,,,,,,,,
,,,,,,611cbdc447871199a422d10f,62c538dadcb3a72c003533ff,2022-07-06_09h25.41.722,Colour_Asymmetry_Pilot,2022.1.3,Win32,32,62c50e9c1127f2cd403a315f,0,120,120,100,1,threeone,,,,,,,,,,,,,,,,,,,,,,,,,,,,,,,,,,,,,,,,,,,,,,,,,,,,,,,,,,,,,,,,,,,,,,,,,,,,,,,,,,,,,,,,,,,,,,,,,,,,,,,,,,,,,,,,,,,,,,,,,,,,,,,,,,,,,,,,,,,,,,,,,,,,,,,,,,,,,
,,,,,,611cbdc447871199a422d10f,62c538dadcb3a72c003533ff,2022-07-06_09h25.41.722,Colour_Asymmetry_Pilot,2022.1.3,Win32,32,62c50e9c1127f2cd403a315f,0,121,121,22,1,fourtwo,,,,,,,,,,,,,,,,,,,,,,,,,,,,,,,,,,,,,,,,,,,,,,,,,,,,,,,,,,,,,,,,,,,,,,,,,,,,,,,,,,,,,,,,,,,,,,,,,,,,,,,,,,,,,,,,,,,,,,,,,,,,,,,,,,,,,,,,,,,,,,,,,,,,,,,,,,,,,
,,,,,,611cbdc447871199a422d10f,62c538dadcb3a72c003533ff,2022-07-06_09h25.41.722,Colour_Asymmetry_Pilot,2022.1.3,Win32,32,62c50e9c1127f2cd403a315f,0,122,122,109,1,threefour,,,,,,,,,,,,,,,,,,,,,,,,,,,,,,,,,,,,,,,,,,,,,,,,,,,,,,,,,,,,,,,,,,,,,,,,,,,,,,,,,,,,,,,,,,,,,,,,,,,,,,,,,,,,,,,,,,,,,,,,,,,,,,,,,,,,,,,,,,,,,,,,,,,,,,,,,,,,,
,,,,,,611cbdc447871199a422d10f,62c538dadcb3a72c003533ff,2022-07-06_09h25.41.722,Colour_Asymmetry_Pilot,2022.1.3,Win32,32,62c50e9c1127f2cd403a315f,0,123,123,111,1,fourthree,,,,,,,,,,,,,,,,,,,,,,,,,,,,,,,,,,,,,,,,,,,,,,,,,,,,,,,,,,,,,,,,,,,,,,,,,,,,,,,,,,,,,,,,,,,,,,,,,,,,,,,,,,,,,,,,,,,,,,,,,,,,,,,,,,,,,,,,,,,,,,,,,,,,,,,,,,,,,
,,,,,,611cbdc447871199a422d10f,62c538dadcb3a72c003533ff,2022-07-06_09h25.41.722,Colour_Asymmetry_Pilot,2022.1.3,Win32,32,62c50e9c1127f2cd403a315f,0,124,124,31,1,fourthree,,,,,,,,,,,,,,,,,,,,,,,,,,,,,,,,,,,,,,,,,,,,,,,,,,,,,,,,,,,,,,,,,,,,,,,,,,,,,,,,,,,,,,,,,,,,,,,,,,,,,,,,,,,,,,,,,,,,,,,,,,,,,,,,,,,,,,,,,,,,,,,,,,,,,,,,,,,,,
,,,,,,611cbdc447871199a422d10f,62c538dadcb3a72c003533ff,2022-07-06_09h25.41.722,Colour_Asymmetry_Pilot,2022.1.3,Win32,32,62c50e9c1127f2cd403a315f,0,125,125,71,1,fourthree,,,,,,,,,,,,,,,,,,,,,,,,,,,,,,,,,,,,,,,,,,,,,,,,,,,,,,,,,,,,,,,,,,,,,,,,,,,,,,,,,,,,,,,,,,,,,,,,,,,,,,,,,,,,,,,,,,,,,,,,,,,,,,,,,,,,,,,,,,,,,,,,,,,,,,,,,,,,,
,,,,,,611cbdc447871199a422d10f,62c538dadcb3a72c003533ff,2022-07-06_09h25.41.722,Colour_Asymmetry_Pilot,2022.1.3,Win32,32,62c50e9c1127f2cd403a315f,0,126,126,137,1,onethree,,,,,,,,,,,,,,,,,,,,,,,,,,,,,,,,,,,,,,,,,,,,,,,,,,,,,,,,,,,,,,,,,,,,,,,,,,,,,,,,,,,,,,,,,,,,,,,,,,,,,,,,,,,,,,,,,,,,,,,,,,,,,,,,,,,,,,,,,,,,,,,,,,,,,,,,,,,,,
,,,,,,611cbdc447871199a422d10f,62c538dadcb3a72c003533ff,2022-07-06_09h25.41.722,Colour_Asymmetry_Pilot,2022.1.3,Win32,32,62c50e9c1127f2cd403a315f,0,127,127,57,1,onethree,,,,,,,,,,,,,,,,,,,,,,,,,,,,,,,,,,,,,,,,,,,,,,,,,,,,,,,,,,,,,,,,,,,,,,,,,,,,,,,,,,,,,,,,,,,,,,,,,,,,,,,,,,,,,,,,,,,,,,,,,,,,,,,,,,,,,,,,,,,,,,,,,,,,,,,,,,,,,
,,,,,,611cbdc447871199a422d10f,62c538dadcb3a72c003533ff,2022-07-06_09h25.41.722,Colour_Asymmetry_Pilot,2022.1.3,Win32,32,62c50e9c1127f2cd403a315f,0,128,128,123,1,twofour,,,,,,,,,,,,,,,,,,,,,,,,,,,,,,,,,,,,,,,,,,,,,,,,,,,,,,,,,,,,,,,,,,,,,,,,,,,,,,,,,,,,,,,,,,,,,,,,,,,,,,,,,,,,,,,,,,,,,,,,,,,,,,,,,,,,,,,,,,,,,,,,,,,,,,,,,,,,,
,,,,,,611cbdc447871199a422d10f,62c538dadcb3a72c003533ff,2022-07-06_09h25.41.722,Colour_Asymmetry_Pilot,2022.1.3,Win32,32,62c50e9c1127f2cd403a315f,0,129,129,154,1,twoone,,,,,,,,,,,,,,,,,,,,,,,,,,,,,,,,,,,,,,,,,,,,,,,,,,,,,,,,,,,,,,,,,,,,,,,,,,,,,,,,,,,,,,,,,,,,,,,,,,,,,,,,,,,,,,,,,,,,,,,,,,,,,,,,,,,,,,,,,,,,,,,,,,,,,,,,,,,,,
,,,,,,611cbdc447871199a422d10f,62c538dadcb3a72c003533ff,2022-07-06_09h25.41.722,Colour_Asymmetry_Pilot,2022.1.3,Win32,32,62c50e9c1127f2cd403a315f,0,130,130,110,1,fourtwo,,,,,,,,,,,,,,,,,,,,,,,,,,,,,,,,,,,,,,,,,,,,,,,,,,,,,,,,,,,,,,,,,,,,,,,,,,,,,,,,,,,,,,,,,,,,,,,,,,,,,,,,,,,,,,,,,,,,,,,,,,,,,,,,,,,,,,,,,,,,,,,,,,,,,,,,,,,,,
,,,,,,611cbdc447871199a422d10f,62c538dadcb3a72c003533ff,2022-07-06_09h25.41.722,Colour_Asymmetry_Pilot,2022.1.3,Win32,32,62c50e9c1127f2cd403a315f,0,131,131,129,1,onethree,,,,,,,,,,,,,,,,,,,,,,,,,,,,,,,,,,,,,,,,,,,,,,,,,,,,,,,,,,,,,,,,,,,,,,,,,,,,,,,,,,,,,,,,,,,,,,,,,,,,,,,,,,,,,,,,,,,,,,,,,,,,,,,,,,,,,,,,,,,,,,,,,,,,,,,,,,,,,
,,,,,,611cbdc447871199a422d10f,62c538dadcb3a72c003533ff,2022-07-06_09h25.41.722,Colour_Asymmetry_Pilot,2022.1.3,Win32,32,62c50e9c1127f2cd403a315f,0,132,132,91,1,twofour,,,,,,,,,,,,,,,,,,,,,,,,,,,,,,,,,,,,,,,,,,,,,,,,,,,,,,,,,,,,,,,,,,,,,,,,,,,,,,,,,,,,,,,,,,,,,,,,,,,,,,,,,,,,,,,,,,,,,,,,,,,,,,,,,,,,,,,,,,,,,,,,,,,,,,,,,,,,,
,,,,,,611cbdc447871199a422d10f,62c538dadcb3a72c003533ff,2022-07-06_09h25.41.722,Colour_Asymmetry_Pilot,2022.1.3,Win32,32,62c50e9c1127f2cd403a315f,0,133,133,28,1,threeone,,,,,,,,,,,,,,,,,,,,,,,,,,,,,,,,,,,,,,,,,,,,,,,,,,,,,,,,,,,,,,,,,,,,,,,,,,,,,,,,,,,,,,,,,,,,,,,,,,,,,,,,,,,,,,,,,,,,,,,,,,,,,,,,,,,,,,,,,,,,,,,,,,,,,,,,,,,,,
,,,,,,611cbdc447871199a422d10f,62c538dadcb3a72c003533ff,2022-07-06_09h25.41.722,Colour_Asymmetry_Pilot,2022.1.3,Win32,32,62c50e9c1127f2cd403a315f,0,134,134,63,1,fourthree,,,,,,,,,,,,,,,,,,,,,,,,,,,,,,,,,,,,,,,,,,,,,,,,,,,,,,,,,,,,,,,,,,,,,,,,,,,,,,,,,,,,,,,,,,,,,,,,,,,,,,,,,,,,,,,,,,,,,,,,,,,,,,,,,,,,,,,,,,,,,,,,,,,,,,,,,,,,,
,,,,,,611cbdc447871199a422d10f,62c538dadcb3a72c003533ff,2022-07-06_09h25.41.722,Colour_Asymmetry_Pilot,2022.1.3,Win32,32,62c50e9c1127f2cd403a315f,0,135,135,116,1,threeone,,,,,,,,,,,,,,,,,,,,,,,,,,,,,,,,,,,,,,,,,,,,,,,,,,,,,,,,,,,,,,,,,,,,,,,,,,,,,,,,,,,,,,,,,,,,,,,,,,,,,,,,,,,,,,,,,,,,,,,,,,,,,,,,,,,,,,,,,,,,,,,,,,,,,,,,,,,,,
,,,,,,611cbdc447871199a422d10f,62c538dadcb3a72c003533ff,2022-07-06_09h25.41.722,Colour_Asymmetry_Pilot,2022.1.3,Win32,32,62c50e9c1127f2cd403a315f,0,136,136,119,1,fourthree,,,,,,,,,,,,,,,,,,,,,,,,,,,,,,,,,,,,,,,,,,,,,,,,,,,,,,,,,,,,,,,,,,,,,,,,,,,,,,,,,,,,,,,,,,,,,,,,,,,,,,,,,,,,,,,,,,,,,,,,,,,,,,,,,,,,,,,,,,,,,,,,,,,,,,,,,,,,,
,,,,,,611cbdc447871199a422d10f,62c538dadcb3a72c003533ff,2022-07-06_09h25.41.722,Colour_Asymmetry_Pilot,2022.1.3,Win32,32,62c50e9c1127f2cd403a315f,0,137,137,98,1,twoone,,,,,,,,,,,,,,,,,,,,,,,,,,,,,,,,,,,,,,,,,,,,,,,,,,,,,,,,,,,,,,,,,,,,,,,,,,,,,,,,,,,,,,,,,,,,,,,,,,,,,,,,,,,,,,,,,,,,,,,,,,,,,,,,,,,,,,,,,,,,,,,,,,,,,,,,,,,,,
,,,,,,611cbdc447871199a422d10f,62c538dadcb3a72c003533ff,2022-07-06_09h25.41.722,Colour_Asymmetry_Pilot,2022.1.3,Win32,32,62c50e9c1127f2cd403a315f,0,138,138,37,1,threefour,,,,,,,,,,,,,,,,,,,,,,,,,,,,,,,,,,,,,,,,,,,,,,,,,,,,,,,,,,,,,,,,,,,,,,,,,,,,,,,,,,,,,,,,,,,,,,,,,,,,,,,,,,,,,,,,,,,,,,,,,,,,,,,,,,,,,,,,,,,,,,,,,,,,,,,,,,,,,
,,,,,,611cbdc447871199a422d10f,62c538dadcb3a72c003533ff,2022-07-06_09h25.41.722,Colour_Asymmetry_Pilot,2022.1.3,Win32,32,62c50e9c1127f2cd403a315f,0,139,139,19,1,twofour,,,,,,,,,,,,,,,,,,,,,,,,,,,,,,,,,,,,,,,,,,,,,,,,,,,,,,,,,,,,,,,,,,,,,,,,,,,,,,,,,,,,,,,,,,,,,,,,,,,,,,,,,,,,,,,,,,,,,,,,,,,,,,,,,,,,,,,,,,,,,,,,,,,,,,,,,,,,,
,,,,,,611cbdc447871199a422d10f,62c538dadcb3a72c003533ff,2022-07-06_09h25.41.722,Colour_Asymmetry_Pilot,2022.1.3,Win32,32,62c50e9c1127f2cd403a315f,0,140,140,117,1,threefour,,,,,,,,,,,,,,,,,,,,,,,,,,,,,,,,,,,,,,,,,,,,,,,,,,,,,,,,,,,,,,,,,,,,,,,,,,,,,,,,,,,,,,,,,,,,,,,,,,,,,,,,,,,,,,,,,,,,,,,,,,,,,,,,,,,,,,,,,,,,,,,,,,,,,,,,,,,,,
,,,,,,611cbdc447871199a422d10f,62c538dadcb3a72c003533ff,2022-07-06_09h25.41.722,Colour_Asymmetry_Pilot,2022.1.3,Win32,32,62c50e9c1127f2cd403a315f,0,141,141,67,1,twofour,,,,,,,,,,,,,,,,,,,,,,,,,,,,,,,,,,,,,,,,,,,,,,,,,,,,,,,,,,,,,,,,,,,,,,,,,,,,,,,,,,,,,,,,,,,,,,,,,,,,,,,,,,,,,,,,,,,,,,,,,,,,,,,,,,,,,,,,,,,,,,,,,,,,,,,,,,,,,
,,,,,,611cbdc447871199a422d10f,62c538dadcb3a72c003533ff,2022-07-06_09h25.41.722,Colour_Asymmetry_Pilot,2022.1.3,Win32,32,62c50e9c1127f2cd403a315f,0,142,142,139,1,twofour,,,,,,,,,,,,,,,,,,,,,,,,,,,,,,,,,,,,,,,,,,,,,,,,,,,,,,,,,,,,,,,,,,,,,,,,,,,,,,,,,,,,,,,,,,,,,,,,,,,,,,,,,,,,,,,,,,,,,,,,,,,,,,,,,,,,,,,,,,,,,,,,,,,,,,,,,,,,,
,,,,,,611cbdc447871199a422d10f,62c538dadcb3a72c003533ff,2022-07-06_09h25.41.722,Colour_Asymmetry_Pilot,2022.1.3,Win32,32,62c50e9c1127f2cd403a315f,0,143,143,50,1,twoone,,,,,,,,,,,,,,,,,,,,,,,,,,,,,,,,,,,,,,,,,,,,,,,,,,,,,,,,,,,,,,,,,,,,,,,,,,,,,,,,,,,,,,,,,,,,,,,,,,,,,,,,,,,,,,,,,,,,,,,,,,,,,,,,,,,,,,,,,,,,,,,,,,,,,,,,,,,,,
,,,,,,611cbdc447871199a422d10f,62c538dadcb3a72c003533ff,2022-07-06_09h25.41.722,Colour_Asymmetry_Pilot,2022.1.3,Win32,32,62c50e9c1127f2cd403a315f,0,144,144,120,1,onetwo,,,,,,,,,,,,,,,,,,,,,,,,,,,,,,,,,,,,,,,,,,,,,,,,,,,,,,,,,,,,,,,,,,,,,,,,,,,,,,,,,,,,,,,,,,,,,,,,,,,,,,,,,,,,,,,,,,,,,,,,,,,,,,,,,,,,,,,,,,,,,,,,,,,,,,,,,,,,,
,,,,,,611cbdc447871199a422d10f,62c538dadcb3a72c003533ff,2022-07-06_09h25.41.722,Colour_Asymmetry_Pilot,2022.1.3,Win32,32,62c50e9c1127f2cd403a315f,0,145,145,46,1,fourtwo,,,,,,,,,,,,,,,,,,,,,,,,,,,,,,,,,,,,,,,,,,,,,,,,,,,,,,,,,,,,,,,,,,,,,,,,,,,,,,,,,,,,,,,,,,,,,,,,,,,,,,,,,,,,,,,,,,,,,,,,,,,,,,,,,,,,,,,,,,,,,,,,,,,,,,,,,,,,,
,,,,,,611cbdc447871199a422d10f,62c538dadcb3a72c003533ff,2022-07-06_09h25.41.722,Colour_Asymmetry_Pilot,2022.1.3,Win32,32,62c50e9c1127f2cd403a315f,0,146,146,125,1,threefour,,,,,,,,,,,,,,,,,,,,,,,,,,,,,,,,,,,,,,,,,,,,,,,,,,,,,,,,,,,,,,,,,,,,,,,,,,,,,,,,,,,,,,,,,,,,,,,,,,,,,,,,,,,,,,,,,,,,,,,,,,,,,,,,,,,,,,,,,,,,,,,,,,,,,,,,,,,,,
,,,,,,611cbdc447871199a422d10f,62c538dadcb3a72c003533ff,2022-07-06_09h25.41.722,Colour_Asymmetry_Pilot,2022.1.3,Win32,32,62c50e9c1127f2cd403a315f,0,147,147,147,1,twofour,,,,,,,,,,,,,,,,,,,,,,,,,,,,,,,,,,,,,,,,,,,,,,,,,,,,,,,,,,,,,,,,,,,,,,,,,,,,,,,,,,,,,,,,,,,,,,,,,,,,,,,,,,,,,,,,,,,,,,,,,,,,,,,,,,,,,,,,,,,,,,,,,,,,,,,,,,,,,
,,,,,,611cbdc447871199a422d10f,62c538dadcb3a72c003533ff,2022-07-06_09h25.41.722,Colour_Asymmetry_Pilot,2022.1.3,Win32,32,62c50e9c1127f2cd403a315f,0,148,148,62,1,fourtwo,,,,,,,,,,,,,,,,,,,,,,,,,,,,,,,,,,,,,,,,,,,,,,,,,,,,,,,,,,,,,,,,,,,,,,,,,,,,,,,,,,,,,,,,,,,,,,,,,,,,,,,,,,,,,,,,,,,,,,,,,,,,,,,,,,,,,,,,,,,,,,,,,,,,,,,,,,,,,
,,,,,,611cbdc447871199a422d10f,62c538dadcb3a72c003533ff,2022-07-06_09h25.41.722,Colour_Asymmetry_Pilot,2022.1.3,Win32,32,62c50e9c1127f2cd403a315f,0,149,149,17,1,onethree,,,,,,,,,,,,,,,,,,,,,,,,,,,,,,,,,,,,,,,,,,,,,,,,,,,,,,,,,,,,,,,,,,,,,,,,,,,,,,,,,,,,,,,,,,,,,,,,,,,,,,,,,,,,,,,,,,,,,,,,,,,,,,,,,,,,,,,,,,,,,,,,,,,,,,,,,,,,,
,,,,,,611cbdc447871199a422d10f,62c538dadcb3a72c003533ff,2022-07-06_09h25.41.722,Colour_Asymmetry_Pilot,2022.1.3,Win32,32,62c50e9c1127f2cd403a315f,0,150,150,102,1,fourtwo,,,,,,,,,,,,,,,,,,,,,,,,,,,,,,,,,,,,,,,,,,,,,,,,,,,,,,,,,,,,,,,,,,,,,,,,,,,,,,,,,,,,,,,,,,,,,,,,,,,,,,,,,,,,,,,,,,,,,,,,,,,,,,,,,,,,,,,,,,,,,,,,,,,,,,,,,,,,,
,,,,,,611cbdc447871199a422d10f,62c538dadcb3a72c003533ff,2022-07-06_09h25.41.722,Colour_Asymmetry_Pilot,2022.1.3,Win32,32,62c50e9c1127f2cd403a315f,0,151,151,66,1,twoone,,,,,,,,,,,,,,,,,,,,,,,,,,,,,,,,,,,,,,,,,,,,,,,,,,,,,,,,,,,,,,,,,,,,,,,,,,,,,,,,,,,,,,,,,,,,,,,,,,,,,,,,,,,,,,,,,,,,,,,,,,,,,,,,,,,,,,,,,,,,,,,,,,,,,,,,,,,,,
,,,,,,611cbdc447871199a422d10f,62c538dadcb3a72c003533ff,2022-07-06_09h25.41.722,Colour_Asymmetry_Pilot,2022.1.3,Win32,32,62c50e9c1127f2cd403a315f,0,152,152,153,1,onethree,,,,,,,,,,,,,,,,,,,,,,,,,,,,,,,,,,,,,,,,,,,,,,,,,,,,,,,,,,,,,,,,,,,,,,,,,,,,,,,,,,,,,,,,,,,,,,,,,,,,,,,,,,,,,,,,,,,,,,,,,,,,,,,,,,,,,,,,,,,,,,,,,,,,,,,,,,,,,
,,,,,,611cbdc447871199a422d10f,62c538dadcb3a72c003533ff,2022-07-06_09h25.41.722,Colour_Asymmetry_Pilot,2022.1.3,Win32,32,62c50e9c1127f2cd403a315f,0,153,153,9,1,onethree,,,,,,,,,,,,,,,,,,,,,,,,,,,,,,,,,,,,,,,,,,,,,,,,,,,,,,,,,,,,,,,,,,,,,,,,,,,,,,,,,,,,,,,,,,,,,,,,,,,,,,,,,,,,,,,,,,,,,,,,,,,,,,,,,,,,,,,,,,,,,,,,,,,,,,,,,,,,,
,,,,,,611cbdc447871199a422d10f,62c538dadcb3a72c003533ff,2022-07-06_09h25.41.722,Colour_Asymmetry_Pilot,2022.1.3,Win32,32,62c50e9c1127f2cd403a315f,0,154,154,104,1,onetwo,,,,,,,,,,,,,,,,,,,,,,,,,,,,,,,,,,,,,,,,,,,,,,,,,,,,,,,,,,,,,,,,,,,,,,,,,,,,,,,,,,,,,,,,,,,,,,,,,,,,,,,,,,,,,,,,,,,,,,,,,,,,,,,,,,,,,,,,,,,,,,,,,,,,,,,,,,,,,
,,,,,,611cbdc447871199a422d10f,62c538dadcb3a72c003533ff,2022-07-06_09h25.41.722,Colour_Asymmetry_Pilot,2022.1.3,Win32,32,62c50e9c1127f2cd403a315f,0,155,155,61,1,threefour,,,,,,,,,,,,,,,,,,,,,,,,,,,,,,,,,,,,,,,,,,,,,,,,,,,,,,,,,,,,,,,,,,,,,,,,,,,,,,,,,,,,,,,,,,,,,,,,,,,,,,,,,,,,,,,,,,,,,,,,,,,,,,,,,,,,,,,,,,,,,,,,,,,,,,,,,,,,,
,,,,,,611cbdc447871199a422d10f,62c538dadcb3a72c003533ff,2022-07-06_09h25.41.722,Colour_Asymmetry_Pilot,2022.1.3,Win32,32,62c50e9c1127f2cd403a315f,0,156,156,77,1,threefour,,,,,,,,,,,,,,,,,,,,,,,,,,,,,,,,,,,,,,,,,,,,,,,,,,,,,,,,,,,,,,,,,,,,,,,,,,,,,,,,,,,,,,,,,,,,,,,,,,,,,,,,,,,,,,,,,,,,,,,,,,,,,,,,,,,,,,,,,,,,,,,,,,,,,,,,,,,,,
,,,,,,611cbdc447871199a422d10f,62c538dadcb3a72c003533ff,2022-07-06_09h25.41.722,Colour_Asymmetry_Pilot,2022.1.3,Win32,32,62c50e9c1127f2cd403a315f,0,157,157,56,1,onetwo,,,,,,,,,,,,,,,,,,,,,,,,,,,,,,,,,,,,,,,,,,,,,,,,,,,,,,,,,,,,,,,,,,,,,,,,,,,,,,,,,,,,,,,,,,,,,,,,,,,,,,,,,,,,,,,,,,,,,,,,,,,,,,,,,,,,,,,,,,,,,,,,,,,,,,,,,,,,,
,,,,,,611cbdc447871199a422d10f,62c538dadcb3a72c003533ff,2022-07-06_09h25.41.722,Colour_Asymmetry_Pilot,2022.1.3,Win32,32,62c50e9c1127f2cd403a315f,0,158,158,64,1,onetwo,,,,,,,,,,,,,,,,,,,,,,,,,,,,,,,,,,,,,,,,,,,,,,,,,,,,,,,,,,,,,,,,,,,,,,,,,,,,,,,,,,,,,,,,,,,,,,,,,,,,,,,,,,,,,,,,,,,,,,,,,,,,,,,,,,,,,,,,,,,,,,,,,,,,,,,,,,,,,
,,,,,,611cbdc447871199a422d10f,62c538dadcb3a72c003533ff,2022-07-06_09h25.41.722,Colour_Asymmetry_Pilot,2022.1.3,Win32,32,62c50e9c1127f2cd403a315f,0,159,159,7,1,fourthree,,,,,,,,,,,,,,,,,,,,,,,,,,,,,,,,,,,,,,,,,,,,,,,,,,,,,,,,,,,,,,,,,,,,,,,,,,,,,,,,,,,,,,,,,,,,,,,,,,,,,,,,,,,,,,,,,,,,,,,,,,,,,,,,,,,,,,,,,,,,,,,,,,,,,,,,,,,,,
,,,,,,611cbdc447871199a422d10f,62c538dadcb3a72c003533ff,2022-07-06_09h25.41.722,Colour_Asymmetry_Pilot,2022.1.3,Win32,32,62c50e9c1127f2cd403a315f,0,160,160,78,1,fourtwo,,,,,,,,,,,,,,,,,,,,,,,,,,,,,,,,,,,,,,,,,,,,,,,,,,,,,,,,,,,,,,,,,,,,,,,,,,,,,,,,,,,,,,,,,,,,,,,,,,,,,,,,,,,,,,,,,,,,,,,,,,,,,,,,,,,,,,,,,,,,,,,,,,,,,,,,,,,,,
,,,,,,611cbdc447871199a422d10f,62c538dadcb3a72c003533ff,2022-07-06_09h25.41.722,Colour_Asymmetry_Pilot,2022.1.3,Win32,32,62c50e9c1127f2cd403a315f,0,161,161,149,1,threefour,,,,,,,,,,,,,,,,,,,,,,,,,,,,,,,,,,,,,,,,,,,,,,,,,,,,,,,,,,,,,,,,,,,,,,,,,,,,,,,,,,,,,,,,,,,,,,,,,,,,,,,,,,,,,,,,,,,,,,,,,,,,,,,,,,,,,,,,,,,,,,,,,,,,,,,,,,,,,
,,,,,,611cbdc447871199a422d10f,62c538dadcb3a72c003533ff,2022-07-06_09h25.41.722,Colour_Asymmetry_Pilot,2022.1.3,Win32,32,62c50e9c1127f2cd403a315f,,,,,,,space,5.7643,space,9.6941,space,65.6466,space,26.146,space,11.3408,space,13.3012,"[-0.5922000000000001,-0.7492000000000001,-0.5296000000000001]",twoone,"[-0.8982,-0.37259999999999993,0.2784]",4,89.5024,94,119,1,0,0,response1disk_5,16,-3,1,0,0,rectangle_8,16,-3,1,0,0,1,16,-3,1,0,0,0,0,0,0,1,,,,,,,,,,,,,,,,,,,,,,,,,,,,,,,,,,,,,,,,,,,,,,,,,,,,,,,,,,,,,,,,,,,,,,,,,,,,,,,,,,,,,,,,,,,,,,,,,,,,,,,,,,,,,,,,
,,,,,,611cbdc447871199a422d10f,62c538dadcb3a72c003533ff,2022-07-06_09h25.41.722,Colour_Asymmetry_Pilot,2022.1.3,Win32,32,62c50e9c1127f2cd403a315f,,,,,,,,,,,,,,,,,,,"[-0.8118,-0.8198,-0.5452]",twofour,"[0.9763999999999999,-0.1137999999999999,-0.6314]",1,19.5181,83,-137,1,0,0,response3disk_5,-3,-5,1,0,0,rectangle_8,-3,-5,1,0,0,1,-3,-5,1,0,0,1,0,1,0,1,,,,,,,,,,,,,,,,,,,,,,,,,,,,,,,,,,,,,,,,,,,,,,,,,,,,,,,,,,,,,,,,,,,,,,,,,,,,,,,,,,,,,,,,,,,,,,,,,,,,,,,,,,,,,,,,
,,,,,,611cbdc447871199a422d10f,62c538dadcb3a72c003533ff,2022-07-06_09h25.41.722,Colour_Asymmetry_Pilot,2022.1.3,Win32,32,62c50e9c1127f2cd403a315f,,,,,,,,,,,,,,,,,,,"[0.04299999999999993,0.16060000000000008,-0.6628000000000001]",twofour,"[0.37240000000000006,0.4980000000000002,-0.2864]",4,9.7505,59,95,1,0,0,response1disk_5,13,-8,1,0,0,rectangle_8,13,-8,1,0,0,1,13,-8,1,0,0,2,0,2,0,1,,,,,,,,,,,,,,,,,,,,,,,,,,,,,,,,,,,,,,,,,,,,,,,,,,,,,,,,,,,,,,,,,,,,,,,,,,,,,,,,,,,,,,,,,,,,,,,,,,,,,,,,,,,,,,,,
,,,,,,611cbdc447871199a422d10f,62c538dadcb3a72c003533ff,2022-07-06_09h25.41.722,Colour_Asymmetry_Pilot,2022.1.3,Win32,32,62c50e9c1127f2cd403a315f,,,,,,,,,,,,,,,,,,,"[0.9686000000000001,0.3802000000000001,0.19999999999999996]",twoone,"[0.9372,0.20779999999999998,0.2704]",4,3.173,66,95,1,0,0,response1disk_5,10,-2,1,0,0,rectangle_8,-39,-86,1,0,0,1,20,-4,1,0,0,3,0,3,0,1,response5disk_7,3,rectangle_4,,,,,,,,,,,,,,,,,,,,,,,,,,,,,,,,,,,,,,,,,,,,,,,,,,,,,,,,,,,,,,,,,,,,,,,,,,,,,,,,,,,,,,,,,,,,,,,,,,,,,,,,,,,,,
,,,,,,611cbdc447871199a422d10f,62c538dadcb3a72c003533ff,2022-07-06_09h25.41.722,Colour_Asymmetry_Pilot,2022.1.3,Win32,32,62c50e9c1127f2cd403a315f,,,,,,,,,,,,,,,,,,,"[-0.9296,-0.12959999999999994,-0.043199999999999905]",threeone,"[-0.6942,-0.7648,-0.12959999999999994]",-3,6.211,-69,29,1,0,0,response7disk_5,-5,4,1,0,0,rectangle_8,-5,4,1,0,0,1,-5,4,1,0,0,4,0,4,0,1,,,,,,,,,,,,,,,,,,,,,,,,,,,,,,,,,,,,,,,,,,,,,,,,,,,,,,,,,,,,,,,,,,,,,,,,,,,,,,,,,,,,,,,,,,,,,,,,,,,,,,,,,,,,,,,,
,,,,,,611cbdc447871199a422d10f,62c538dadcb3a72c003533ff,2022-07-06_09h25.41.722,Colour_Asymmetry_Pilot,2022.1.3,Win32,32,62c50e9c1127f2cd403a315f,,,,,,,,,,,,,,,,,,,"[0.2862,0.7802,0.3568]",onethree,"[-0.0040000000000000036,0.02739999999999987,-0.08239999999999992]",-2,4.7749,-115,-46,1,0,0,response5disk_5,-13,7,1,0,0,rectangle_8,78,-133,1,0,0,1,7,-10,1,0,0,5,0,5,0,1,response3disk_7,4,rectangle_4,,,,,,,,,,,,,,,,,,,,,,,,,,,,,,,,,,,,,,,,,,,,,,,,,,,,,,,,,,,,,,,,,,,,,,,,,,,,,,,,,,,,,,,,,,,,,,,,,,,,,,,,,,,,,
,,,,,,611cbdc447871199a422d10f,62c538dadcb3a72c003533ff,2022-07-06_09h25.41.722,Colour_Asymmetry_Pilot,2022.1.3,Win32,32,62c50e9c1127f2cd403a315f,,,,,,,,,,,,,,,,,,,"[-0.06680000000000008,-0.45100000000000007,-0.906]",threeone,"[0.18419999999999992,-0.4276,-0.404]",-4,2.5974,-52,96,1,0,0,response7disk_5,12,10,1,0,0,rectangle_8,12,10,1,0,0,1,12,10,1,0,0,6,0,6,0,1,,,,,,,,,,,,,,,,,,,,,,,,,,,,,,,,,,,,,,,,,,,,,,,,,,,,,,,,,,,,,,,,,,,,,,,,,,,,,,,,,,,,,,,,,,,,,,,,,,,,,,,,,,,,,,,,
,,,,,,611cbdc447871199a422d10f,62c538dadcb3a72c003533ff,2022-07-06_09h25.41.722,Colour_Asymmetry_Pilot,2022.1.3,Win32,32,62c50e9c1127f2cd403a315f,,,,,,,,,,,,,,,,,,,,twoone,,-4,1.6835,,,,,,,,,,,,,,,,,,,,,,,,,,,,,,,,space,7.8278,"[0.30180000000000007,-0.7884,-0.9844]","[-0.9688,-0.38039999999999996,-0.41979999999999995]",-48,130,1,0,0,response7disk,15,-3,1,0,0,rectangle,15,-3,1,0,0,,3,0.0029,0,15,-3,1,0,0,0,0,0,134,1,53,second,,,,,,,,,,,,,,,,,,,,,,,,,,,,,,,,,,,,,,,,,,,,,,,,,,,,,,,,,,,,,,,,,,,,,,,,
,,,,,,611cbdc447871199a422d10f,62c538dadcb3a72c003533ff,2022-07-06_09h25.41.722,Colour_Asymmetry_Pilot,2022.1.3,Win32,32,62c50e9c1127f2cd403a315f,,,,,,,,,,,,,,,,,,,,fourthree,,-4,4.1224,,,,,,,,,,,,,,,,,,,,,,,,,,,,,,,,,,"[0.40379999999999994,0.09000000000000008,0.44300000000000006]","[-0.8982,-0.37259999999999993,0.2784]",-57,117,1,0,0,response7disk,2,9,1,0,0,rectangle,2,9,1,0,0,,1,0.0015,0,2,9,1,0,0,0,1,1,132,1,51,second,,,,,,,,,,,,,,,,,,,,,,,,,,,,,,,,,,,,,,,,,,,,,,,,,,,,,,,,,,,,,,,,,,,,,,,,
,,,,,,611cbdc447871199a422d10f,62c538dadcb3a72c003533ff,2022-07-06_09h25.41.722,Colour_Asymmetry_Pilot,2022.1.3,Win32,32,62c50e9c1127f2cd403a315f,,,,,,,,,,,,,,,,,,,,onetwo,,-4,0.9365,,,,,,,,,,,,,,,,,,,,,,,,,,,,,,,,,,"[0.9842,0.7409999999999999,-0.6628000000000001]","[-0.8198,-0.5138,-0.7492000000000001]",-52,94,1,0,0,response7disk,2,-1,1,0,0,rectangle,2,-1,1,0,0,,2,0.0014,0,2,-1,1,0,0,0,2,2,143,1,62,second,,,,,,,,,,,,,,,,,,,,,,,,,,,,,,,,,,,,,,,,,,,,,,,,,,,,,,,,,,,,,,,,,,,,,,,,
,,,,,,611cbdc447871199a422d10f,62c538dadcb3a72c003533ff,2022-07-06_09h25.41.722,Colour_Asymmetry_Pilot,2022.1.3,Win32,32,62c50e9c1127f2cd403a315f,,,,,,,,,,,,,,,,,,,,threeone,,2,5.9978,,,,,,,,,,,,,,,,,,,,,,,,,,,,,,,,,,"[-0.9296,-0.12959999999999994,-0.043199999999999905]","[-0.09019999999999995,0.44300000000000006,0.5371999999999999]",113,-45,1,0,0,response3disk,32,3,1,0,0,rectangle,32,3,1,0,0,,3,0.0037,0,32,3,1,0,0,0,3,3,7,1,7,first,,,,,,,,,,,,,,,,,,,,,,,,,,,,,,,,,,,,,,,,,,,,,,,,,,,,,,,,,,,,,,,,,,,,,,,,
,,,,,,611cbdc447871199a422d10f,62c538dadcb3a72c003533ff,2022-07-06_09h25.41.722,Colour_Asymmetry_Pilot,2022.1.3,Win32,32,62c50e9c1127f2cd403a315f,,,,,,,,,,,,,,,,,,,,twofour,,-4,1.3374,,,,,,,,,,,,,,,,,,,,,,,,,,,,,,,,,,"[0.7176,-0.906,-0.6864]","[-0.4982,-0.2942,-0.0354000000000001]",-38,77,1,0,0,response7disk,21,-4,1,0,0,rectangle,21,-4,1,0,0,,3,0.0004,0,21,-4,1,0,0,0,4,4,79,1,79,first,,,,,,,,,,,,,,,,,,,,,,,,,,,,,,,,,,,,,,,,,,,,,,,,,,,,,,,,,,,,,,,,,,,,,,,,
,,,,,,611cbdc447871199a422d10f,62c538dadcb3a72c003533ff,2022-07-06_09h25.41.722,Colour_Asymmetry_Pilot,2022.1.3,Win32,32,62c50e9c1127f2cd403a315f,,,,,,,,,,,,,,,,,,,,onetwo,,-4,1.0544,,,,,,,,,,,,,,,,,,,,,,,,,,,,,,,,,,"[0.6625999999999999,0.4980000000000002,-0.357]","[0.05879999999999996,0.2784,0.5841999999999998]",-46,93,1,0,0,response7disk,12,5,1,0,0,rectangle,12,5,1,0,0,,1,0.0015,0,12,5,1,0,0,0,5,5,14,1,14,first,,,,,,,,,,,,,,,,,,,,,,,,,,,,,,,,,,,,,,,,,,,,,,,,,,,,,,,,,,,,,,,,,,,,,,,,
,,,,,,611cbdc447871199a422d10f,62c538dadcb3a72c003533ff,2022-07-06_09h25.41.722,Colour_Asymmetry_Pilot,2022.1.3,Win32,32,62c50e9c1127f2cd403a315f,,,,,,,,,,,,,,,,,,,,onetwo,,-4,0.6996,,,,,,,,,,,,,,,,,,,,,,,,,,,,,,,,,,"[0.30180000000000007,-0.7884,-0.9844]","[0.9686000000000001,0.5763999999999998,0.11359999999999992]",-51,79,1,0,0,response7disk,9,-5,1,0,0,rectangle,9,-5,1,0,0,,1,0.0005,0,9,-5,1,0,0,0,6,6,157,1,76,second,,,,,,,,,,,,,,,,,,,,,,,,,,,,,,,,,,,,,,,,,,,,,,,,,,,,,,,,,,,,,,,,,,,,,,,,
,,,,,,611cbdc447871199a422d10f,62c538dadcb3a72c003533ff,2022-07-06_09h25.41.722,Colour_Asymmetry_Pilot,2022.1.3,Win32,32,62c50e9c1127f2cd403a315f,,,,,,,,,,,,,,,,,,,,onethree,,-4,1.1032,,,,,,,,,,,,,,,,,,,,,,,,,,,,,,,,,,"[0.37240000000000006,-0.050999999999999934,-0.5216]","[-0.8198,-0.5138,-0.7492000000000001]",-44,90,1,0,0,response7disk,-6,4,1,0,0,rectangle,-6,4,1,0,0,,1,0.0004,0,-6,4,1,0,0,0,7,7,56,1,56,first,,,,,,,,,,,,,,,,,,,,,,,,,,,,,,,,,,,,,,,,,,,,,,,,,,,,,,,,,,,,,,,,,,,,,,,,
,,,,,,611cbdc447871199a422d10f,62c538dadcb3a72c003533ff,2022-07-06_09h25.41.722,Colour_Asymmetry_Pilot,2022.1.3,Win32,32,62c50e9c1127f2cd403a315f,,,,,,,,,,,,,,,,,,,,twoone,,-4,4.2324,,,,,,,,,,,,,,,,,,,,,,,,,,,,,,,,,,"[-0.30200000000000005,0.14500000000000002,0.2784]","[-0.26280000000000003,-0.4746,-0.2158]",-43,89,1,0,0,response7disk,-10,12,1,0,0,rectangle,-10,12,1,0,0,,3,0.0012,0,-10,12,1,0,0,0,8,8,151,1,70,second,,,,,,,,,,,,,,,,,,,,,,,,,,,,,,,,,,,,,,,,,,,,,,,,,,,,,,,,,,,,,,,,,,,,,,,,
,,,,,,611cbdc447871199a422d10f,62c538dadcb3a72c003533ff,2022-07-06_09h25.41.722,Colour_Asymmetry_Pilot,2022.1.3,Win32,32,62c50e9c1127f2cd403a315f,,,,,,,,,,,,,,,,,,,,threefour,,-4,3.4225,,,,,,,,,,,,,,,,,,,,,,,,,,,,,,,,,,"[-0.5688,-0.08239999999999992,-0.1844]","[-0.0040000000000000036,0.02739999999999987,-0.08239999999999992]",-36,78,1,0,0,response7disk,16,-11,1,0,0,rectangle,16,-11,1,0,0,,3,0.0004,0,16,-11,1,0,0,0,9,9,40,1,40,first,,,,,,,,,,,,,,,,,,,,,,,,,,,,,,,,,,,,,,,,,,,,,,,,,,,,,,,,,,,,,,,,,,,,,,,,
,,,,,,611cbdc447871199a422d10f,62c538dadcb3a72c003533ff,2022-07-06_09h25.41.722,Colour_Asymmetry_Pilot,2022.1.3,Win32,32,62c50e9c1127f2cd403a315f,,,,,,,,,,,,,,,,,,,,fourtwo,,-4,0.8803,,,,,,,,,,,,,,,,,,,,,,,,,,,,,,,,,,"[-0.9688,-0.38039999999999996,-0.41979999999999995]","[0.30180000000000007,-0.7884,-0.9844]",-39,66,1,0,0,response7disk,-3,0,1,0,0,rectangle,-3,0,1,0,0,,1,0.0014,0,-3,0,1,0,0,0,10,10,53,1,53,first,,,,,,,,,,,,,,,,,,,,,,,,,,,,,,,,,,,,,,,,,,,,,,,,,,,,,,,,,,,,,,,,,,,,,,,,
,,,,,,611cbdc447871199a422d10f,62c538dadcb3a72c003533ff,2022-07-06_09h25.41.722,Colour_Asymmetry_Pilot,2022.1.3,Win32,32,62c50e9c1127f2cd403a315f,,,,,,,,,,,,,,,,,,,,onethree,,-4,0.7812,,,,,,,,,,,,,,,,,,,,,,,,,,,,,,,,,,"[0.3802000000000001,0.19199999999999995,-0.6394]","[0.19199999999999995,0.18419999999999992,0.5136000000000001]",-34,84,1,0,0,response7disk,9,-8,1,0,0,rectangle,9,-8,1,0,0,,2,0.0012,0,9,-8,1,0,0,0,11,11,99,1,18,second,,,,,,,,,,,,,,,,,,,,,,,,,,,,,,,,,,,,,,,,,,,,,,,,,,,,,,,,,,,,,,,,,,,,,,,,
,,,,,,611cbdc447871199a422d10f,62c538dadcb3a72c003533ff,2022-07-06_09h25.41.722,Colour_Asymmetry_Pilot,2022.1.3,Win32,32,62c50e9c1127f2cd403a315f,,,,,,,,,,,,,,,,,,,,threefour,,1,2.7058,,,,,,,,,,,,,,,,,,,,,,,,,,,,,,,,,,"[0.37240000000000006,0.4980000000000002,-0.2864]","[0.23920000000000008,0.2704,0.16060000000000008]",71,-129,1,0,0,response3disk,4,-5,1,0,0,rectangle,4,-5,1,0,0,,2,0.0004,0,4,-5,1,0,0,0,12,12,63,1,63,first,,,,,,,,,,,,,,,,,,,,,,,,,,,,,,,,,,,,,,,,,,,,,,,,,,,,,,,,,,,,,,,,,,,,,,,,
,,,,,,611cbdc447871199a422d10f,62c538dadcb3a72c003533ff,2022-07-06_09h25.41.722,Colour_Asymmetry_Pilot,2022.1.3,Win32,32,62c50e9c1127f2cd403a315f,,,,,,,,,,,,,,,,,,,,fourtwo,,1,2.3333,,,,,,,,,,,,,,,,,,,,,,,,,,,,,,,,,,"[-0.01980000000000004,-0.5138,-0.38039999999999996]","[-0.26280000000000003,-0.4746,-0.2158]",53,-71,1,0,0,response3disk,7,-5,1,0,0,rectangle,7,-5,1,0,0,,3,0.002,0,7,-5,1,0,0,0,13,13,109,1,28,second,,,,,,,,,,,,,,,,,,,,,,,,,,,,,,,,,,,,,,,,,,,,,,,,,,,,,,,,,,,,,,,,,,,,,,,,
,,,,,,611cbdc447871199a422d10f,62c538dadcb3a72c003533ff,2022-07-06_09h25.41.722,Colour_Asymmetry_Pilot,2022.1.3,Win32,32,62c50e9c1127f2cd403a315f,,,,,,,,,,,,,,,,,,,,onethree,,-4,0.7152,,,,,,,,,,,,,,,,,,,,,,,,,,,,,,,,,,"[-0.9766,-0.6472,0.07440000000000002]","[0.23120000000000007,-0.7726,-0.34120000000000006]",-45,88,1,0,0,response7disk,13,3,1,0,0,rectangle,13,3,1,0,0,,3,0.0004,0,13,3,1,0,0,0,14,14,125,1,44,second,,,,,,,,,,,,,,,,,,,,,,,,,,,,,,,,,,,,,,,,,,,,,,,,,,,,,,,,,,,,,,,,,,,,,,,,
,,,,,,611cbdc447871199a422d10f,62c538dadcb3a72c003533ff,2022-07-06_09h25.41.722,Colour_Asymmetry_Pilot,2022.1.3,Win32,32,62c50e9c1127f2cd403a315f,,,,,,,,,,,,,,,,,,,,threeone,,-4,0.9057,,,,,,,,,,,,,,,,,,,,,,,,,,,,,,,,,,"[-0.10599999999999998,-0.15300000000000002,0.15280000000000005]","[0.5528,0.7409999999999999,-0.71]",-40,89,1,0,0,response7disk,12,-2,1,0,0,rectangle,12,-2,1,0,0,,1,0.0012,0,12,-2,1,0,0,0,15,15,42,1,42,first,,,,,,,,,,,,,,,,,,,,,,,,,,,,,,,,,,,,,,,,,,,,,,,,,,,,,,,,,,,,,,,,,,,,,,,,
,,,,,,611cbdc447871199a422d10f,62c538dadcb3a72c003533ff,2022-07-06_09h25.41.722,Colour_Asymmetry_Pilot,2022.1.3,Win32,32,62c50e9c1127f2cd403a315f,,,,,,,,,,,,,,,,,,,,onethree,,-4,1.8707,,,,,,,,,,,,,,,,,,,,,,,,,,,,,,,,,,"[0.9686000000000001,0.5763999999999998,0.11359999999999992]","[0.5528,0.7409999999999999,-0.71]",-53,82,1,0,0,response7disk,-10,2,1,0,0,rectangle,-10,2,1,0,0,,3,0.0017,0,-10,2,1,0,0,0,16,16,17,1,17,first,,,,,,,,,,,,,,,,,,,,,,,,,,,,,,,,,,,,,,,,,,,,,,,,,,,,,,,,,,,,,,,,,,,,,,,,
,,,,,,611cbdc447871199a422d10f,62c538dadcb3a72c003533ff,2022-07-06_09h25.41.722,Colour_Asymmetry_Pilot,2022.1.3,Win32,32,62c50e9c1127f2cd403a315f,,,,,,,,,,,,,,,,,,,,threefour,,-4,4.6481,,,,,,,,,,,,,,,,,,,,,,,,,,,,,,,,,,"[0.6625999999999999,0.4980000000000002,-0.357]","[-0.24719999999999998,0.5213999999999999,-0.12959999999999994]",-43,83,1,0,0,response7disk,-1,-2,1,0,0,rectangle,-1,-2,1,0,0,,2,0.0014,0,-1,-2,1,0,0,0,17,17,110,1,29,second,,,,,,,,,,,,,,,,,,,,,,,,,,,,,,,,,,,,,,,,,,,,,,,,,,,,,,,,,,,,,,,,,,,,,,,,
,,,,,,611cbdc447871199a422d10f,62c538dadcb3a72c003533ff,2022-07-06_09h25.41.722,Colour_Asymmetry_Pilot,2022.1.3,Win32,32,62c50e9c1127f2cd403a315f,,,,,,,,,,,,,,,,,,,,threefour,,-4,2.0069,,,,,,,,,,,,,,,,,,,,,,,,,,,,,,,,,,"[-0.8118,-0.8198,-0.5452]","[-0.5688,-0.08239999999999992,-0.1844]",-42,86,1,0,0,response7disk,-1,-1,1,0,0,rectangle,-1,-1,1,0,0,,2,0.0005,0,-1,-1,1,0,0,0,18,18,72,1,72,first,,,,,,,,,,,,,,,,,,,,,,,,,,,,,,,,,,,,,,,,,,,,,,,,,,,,,,,,,,,,,,,,,,,,,,,,
,,,,,,611cbdc447871199a422d10f,62c538dadcb3a72c003533ff,2022-07-06_09h25.41.722,Colour_Asymmetry_Pilot,2022.1.3,Win32,32,62c50e9c1127f2cd403a315f,,,,,,,,,,,,,,,,,,,,fourthree,,-4,0.6283,,,,,,,,,,,,,,,,,,,,,,,,,,,,,,,,,,"[0.5528,0.7409999999999999,-0.71]","[-0.10599999999999998,-0.15300000000000002,0.15280000000000005]",-60,87,1,0,0,response7disk,-5,-10,1,0,0,rectangle,-5,-10,1,0,0,,3,0.0019,0,-5,-10,1,0,0,0,19,19,123,1,42,second,,,,,,,,,,,,,,,,,,,,,,,,,,,,,,,,,,,,,,,,,,,,,,,,,,,,,,,,,,,,,,,,,,,,,,,,
,,,,,,611cbdc447871199a422d10f,62c538dadcb3a72c003533ff,2022-07-06_09h25.41.722,Colour_Asymmetry_Pilot,2022.1.3,Win32,32,62c50e9c1127f2cd403a315f,,,,,,,,,,,,,,,,,,,,threefour,,-4,1.6521,,,,,,,,,,,,,,,,,,,,,,,,,,,,,,,,,,"[-0.17659999999999998,0.3253999999999999,0.19999999999999996]","[0.7802,-0.23140000000000005,-0.20799999999999996]",-32,95,1,0,0,response7disk,-3,6,1,0,0,rectangle,-3,6,1,0,0,,3,0.0004,0,-3,6,1,0,0,0,20,20,1,1,1,first,,,,,,,,,,,,,,,,,,,,,,,,,,,,,,,,,,,,,,,,,,,,,,,,,,,,,,,,,,,,,,,,,,,,,,,,
,,,,,,611cbdc447871199a422d10f,62c538dadcb3a72c003533ff,2022-07-06_09h25.41.722,Colour_Asymmetry_Pilot,2022.1.3,Win32,32,62c50e9c1127f2cd403a315f,,,,,,,,,,,,,,,,,,,,onethree,,-4,5.5857,,,,,,,,,,,,,,,,,,,,,,,,,,,,,,,,,,"[0.9213999999999998,0.6391999999999998,-0.9922]","[0.8115999999999999,-0.0040000000000000036,-0.09819999999999995]",-27,60,1,0,0,response7disk,-5,8,1,0,0,rectangle,-5,8,1,0,0,,1,0.0012,0,-5,8,1,0,0,0,21,21,105,1,24,second,,,,,,,,,,,,,,,,,,,,,,,,,,,,,,,,,,,,,,,,,,,,,,,,,,,,,,,,,,,,,,,,,,,,,,,,
,,,,,,611cbdc447871199a422d10f,62c538dadcb3a72c003533ff,2022-07-06_09h25.41.722,Colour_Asymmetry_Pilot,2022.1.3,Win32,32,62c50e9c1127f2cd403a315f,,,,,,,,,,,,,,,,,,,,onethree,,-4,2.8429,,,,,,,,,,,,,,,,,,,,,,,,,,,,,,,,,,"[0.9763999999999999,0.8588,-0.05900000000000005]","[0.8274000000000001,-0.5844,-0.9452]",-36,83,1,0,0,response7disk,-6,10,1,0,0,rectangle,-6,10,1,0,0,,2,0.0017,0,-6,10,1,0,0,0,22,22,96,1,15,second,,,,,,,,,,,,,,,,,,,,,,,,,,,,,,,,,,,,,,,,,,,,,,,,,,,,,,,,,,,,,,,,,,,,,,,,
