trials.thisRepN,trials.thisTrialN,trials.thisN,trials.thisIndex,trials.ran,Colourcodes,participant,session,date,expName,psychopyVersion,OS,frameRate,study_id,trials_4.thisRepN,trials_4.thisTrialN,trials_4.thisN,trials_4.thisIndex,trials_4.ran,StimulusPos,key_resp.keys,key_resp.rt,key_resp_2.keys,key_resp_2.rt,key_resp_15.keys,key_resp_15.rt,key_resp_17.keys,key_resp_17.rt,key_resp_9.keys,key_resp_9.rt,key_resp_10.keys,key_resp_10.rt,Circle1_col,Ecc,Circle2_col,similarity,response_time,mouse_5.x,mouse_5.y,mouse_5.leftButton,mouse_5.midButton,mouse_5.rightButton,mouse_5.clicked_name,mouse_10.x,mouse_10.y,mouse_10.leftButton,mouse_10.midButton,mouse_10.rightButton,mouse_10.clicked_name,mouse_7.x,mouse_7.y,mouse_7.leftButton,mouse_7.midButton,mouse_7.rightButton,catchnumberprac,mouse_6.x,mouse_6.y,mouse_6.leftButton,mouse_6.midButton,mouse_6.rightButton,duringprac.thisRepN,duringprac.thisTrialN,duringprac.thisN,duringprac.thisIndex,duringprac.ran,mouse_7.clicked_name,catchprac,mouse_6.clicked_name,key_resp_22.keys,key_resp_22.rt,Circle1_colour,Circle2_colour,mouse.x,mouse.y,mouse.leftButton,mouse.midButton,mouse.rightButton,mouse.clicked_name,mouse_2.x,mouse_2.y,mouse_2.leftButton,mouse_2.midButton,mouse_2.rightButton,mouse_2.clicked_name,mouse_3.x,mouse_3.y,mouse_3.leftButton,mouse_3.midButton,mouse_3.rightButton,catchresponse,catchnumber,response_time_catch,Catch,mouse_11.x,mouse_11.y,mouse_11.leftButton,mouse_11.midButton,mouse_11.rightButton,trials_2.thisRepN,trials_2.thisTrialN,trials_2.thisN,trials_2.thisIndex,trials_2.ran,Colourpair,Temporder,mouse_3.clicked_name,mouse_11.clicked_name,trials_3.thisRepN,trials_3.thisTrialN,trials_3.thisN,trials_3.thisIndex,trials_3.ran,key_resp_instr_Ishi.keys,key_resp_instr_Ishi.rt,Ishi_trial_keyresp.keys,Ishi_textbox.text,Ishi_mouse.x,Ishi_mouse.y,Ishi_mouse.leftButton,Ishi_mouse.midButton,Ishi_mouse.rightButton,Ishi_mouse.clicked_name,Ishi_loop.thisRepN,Ishi_loop.thisTrialN,Ishi_loop.thisN,Ishi_loop.thisIndex,Ishi_loop.ran,imageaddress,textbox.text,mouse_4.x,mouse_4.y,mouse_4.leftButton,mouse_4.midButton,mouse_4.rightButton,mouse_4.clicked_name,textbox_2.text,mouse_8.x,mouse_8.y,mouse_8.leftButton,mouse_8.midButton,mouse_8.rightButton,mouse_8.clicked_name,textbox_3.text,mouse_9.x,mouse_9.y,mouse_9.leftButton,mouse_9.midButton,mouse_9.rightButton,mouse_9.clicked_name,textbox_4.text,mouse_12.x,mouse_12.y,mouse_12.leftButton,mouse_12.midButton,mouse_12.rightButton,mouse_12.clicked_name,textbox_5.text,mouse_13.x,mouse_13.y,mouse_13.leftButton,mouse_13.midButton,mouse_13.rightButton,mouse_13.clicked_name,textbox_6.text,mouse_14.x,mouse_14.y,mouse_14.leftButton,mouse_14.midButton,mouse_14.rightButton,mouse_14.clicked_name,textbox_7.text,mouse_15.x,mouse_15.y,mouse_15.leftButton,mouse_15.midButton,mouse_15.rightButton,mouse_15.clicked_name
0,0,0,75,1,,612c95f4a142b9dc63cc45a0,62c53a4980569701d2f2d381,2022-07-06_09h29.49.531,Colour_Asymmetry_Pilot,2022.1.3,Win32,59.75143403,62c50e9c1127f2cd403a315f,,,,,,,,,,,,,,,,,,,,,,,,,,,,,,,,,,,,,,,,,,,,,,,,,,,,,,,,,,,,,,,,,,,,,,,,,,,,,,,,,,,,,,,,,,,,,,,,,,,,,,,,,,,,,,,,,,,,,,,,,,,,,,,,,,,,,,,,,,,,,,,,,,,,,,,,,,,,,,,,,,,
0,1,1,88,1,,612c95f4a142b9dc63cc45a0,62c53a4980569701d2f2d381,2022-07-06_09h29.49.531,Colour_Asymmetry_Pilot,2022.1.3,Win32,59.75143403,62c50e9c1127f2cd403a315f,,,,,,,,,,,,,,,,,,,,,,,,,,,,,,,,,,,,,,,,,,,,,,,,,,,,,,,,,,,,,,,,,,,,,,,,,,,,,,,,,,,,,,,,,,,,,,,,,,,,,,,,,,,,,,,,,,,,,,,,,,,,,,,,,,,,,,,,,,,,,,,,,,,,,,,,,,,,,,,,,,,
0,2,2,46,1,,612c95f4a142b9dc63cc45a0,62c53a4980569701d2f2d381,2022-07-06_09h29.49.531,Colour_Asymmetry_Pilot,2022.1.3,Win32,59.75143403,62c50e9c1127f2cd403a315f,,,,,,,,,,,,,,,,,,,,,,,,,,,,,,,,,,,,,,,,,,,,,,,,,,,,,,,,,,,,,,,,,,,,,,,,,,,,,,,,,,,,,,,,,,,,,,,,,,,,,,,,,,,,,,,,,,,,,,,,,,,,,,,,,,,,,,,,,,,,,,,,,,,,,,,,,,,,,,,,,,,
0,3,3,28,1,,612c95f4a142b9dc63cc45a0,62c53a4980569701d2f2d381,2022-07-06_09h29.49.531,Colour_Asymmetry_Pilot,2022.1.3,Win32,59.75143403,62c50e9c1127f2cd403a315f,,,,,,,,,,,,,,,,,,,,,,,,,,,,,,,,,,,,,,,,,,,,,,,,,,,,,,,,,,,,,,,,,,,,,,,,,,,,,,,,,,,,,,,,,,,,,,,,,,,,,,,,,,,,,,,,,,,,,,,,,,,,,,,,,,,,,,,,,,,,,,,,,,,,,,,,,,,,,,,,,,,
0,4,4,60,1,,612c95f4a142b9dc63cc45a0,62c53a4980569701d2f2d381,2022-07-06_09h29.49.531,Colour_Asymmetry_Pilot,2022.1.3,Win32,59.75143403,62c50e9c1127f2cd403a315f,,,,,,,,,,,,,,,,,,,,,,,,,,,,,,,,,,,,,,,,,,,,,,,,,,,,,,,,,,,,,,,,,,,,,,,,,,,,,,,,,,,,,,,,,,,,,,,,,,,,,,,,,,,,,,,,,,,,,,,,,,,,,,,,,,,,,,,,,,,,,,,,,,,,,,,,,,,,,,,,,,,
0,5,5,17,1,,612c95f4a142b9dc63cc45a0,62c53a4980569701d2f2d381,2022-07-06_09h29.49.531,Colour_Asymmetry_Pilot,2022.1.3,Win32,59.75143403,62c50e9c1127f2cd403a315f,,,,,,,,,,,,,,,,,,,,,,,,,,,,,,,,,,,,,,,,,,,,,,,,,,,,,,,,,,,,,,,,,,,,,,,,,,,,,,,,,,,,,,,,,,,,,,,,,,,,,,,,,,,,,,,,,,,,,,,,,,,,,,,,,,,,,,,,,,,,,,,,,,,,,,,,,,,,,,,,,,,
0,6,6,90,1,,612c95f4a142b9dc63cc45a0,62c53a4980569701d2f2d381,2022-07-06_09h29.49.531,Colour_Asymmetry_Pilot,2022.1.3,Win32,59.75143403,62c50e9c1127f2cd403a315f,,,,,,,,,,,,,,,,,,,,,,,,,,,,,,,,,,,,,,,,,,,,,,,,,,,,,,,,,,,,,,,,,,,,,,,,,,,,,,,,,,,,,,,,,,,,,,,,,,,,,,,,,,,,,,,,,,,,,,,,,,,,,,,,,,,,,,,,,,,,,,,,,,,,,,,,,,,,,,,,,,,
0,7,7,32,1,,612c95f4a142b9dc63cc45a0,62c53a4980569701d2f2d381,2022-07-06_09h29.49.531,Colour_Asymmetry_Pilot,2022.1.3,Win32,59.75143403,62c50e9c1127f2cd403a315f,,,,,,,,,,,,,,,,,,,,,,,,,,,,,,,,,,,,,,,,,,,,,,,,,,,,,,,,,,,,,,,,,,,,,,,,,,,,,,,,,,,,,,,,,,,,,,,,,,,,,,,,,,,,,,,,,,,,,,,,,,,,,,,,,,,,,,,,,,,,,,,,,,,,,,,,,,,,,,,,,,,
0,8,8,3,1,,612c95f4a142b9dc63cc45a0,62c53a4980569701d2f2d381,2022-07-06_09h29.49.531,Colour_Asymmetry_Pilot,2022.1.3,Win32,59.75143403,62c50e9c1127f2cd403a315f,,,,,,,,,,,,,,,,,,,,,,,,,,,,,,,,,,,,,,,,,,,,,,,,,,,,,,,,,,,,,,,,,,,,,,,,,,,,,,,,,,,,,,,,,,,,,,,,,,,,,,,,,,,,,,,,,,,,,,,,,,,,,,,,,,,,,,,,,,,,,,,,,,,,,,,,,,,,,,,,,,,
0,9,9,10,1,,612c95f4a142b9dc63cc45a0,62c53a4980569701d2f2d381,2022-07-06_09h29.49.531,Colour_Asymmetry_Pilot,2022.1.3,Win32,59.75143403,62c50e9c1127f2cd403a315f,,,,,,,,,,,,,,,,,,,,,,,,,,,,,,,,,,,,,,,,,,,,,,,,,,,,,,,,,,,,,,,,,,,,,,,,,,,,,,,,,,,,,,,,,,,,,,,,,,,,,,,,,,,,,,,,,,,,,,,,,,,,,,,,,,,,,,,,,,,,,,,,,,,,,,,,,,,,,,,,,,,
0,10,10,57,1,,612c95f4a142b9dc63cc45a0,62c53a4980569701d2f2d381,2022-07-06_09h29.49.531,Colour_Asymmetry_Pilot,2022.1.3,Win32,59.75143403,62c50e9c1127f2cd403a315f,,,,,,,,,,,,,,,,,,,,,,,,,,,,,,,,,,,,,,,,,,,,,,,,,,,,,,,,,,,,,,,,,,,,,,,,,,,,,,,,,,,,,,,,,,,,,,,,,,,,,,,,,,,,,,,,,,,,,,,,,,,,,,,,,,,,,,,,,,,,,,,,,,,,,,,,,,,,,,,,,,,
0,11,11,27,1,,612c95f4a142b9dc63cc45a0,62c53a4980569701d2f2d381,2022-07-06_09h29.49.531,Colour_Asymmetry_Pilot,2022.1.3,Win32,59.75143403,62c50e9c1127f2cd403a315f,,,,,,,,,,,,,,,,,,,,,,,,,,,,,,,,,,,,,,,,,,,,,,,,,,,,,,,,,,,,,,,,,,,,,,,,,,,,,,,,,,,,,,,,,,,,,,,,,,,,,,,,,,,,,,,,,,,,,,,,,,,,,,,,,,,,,,,,,,,,,,,,,,,,,,,,,,,,,,,,,,,
0,12,12,61,1,,612c95f4a142b9dc63cc45a0,62c53a4980569701d2f2d381,2022-07-06_09h29.49.531,Colour_Asymmetry_Pilot,2022.1.3,Win32,59.75143403,62c50e9c1127f2cd403a315f,,,,,,,,,,,,,,,,,,,,,,,,,,,,,,,,,,,,,,,,,,,,,,,,,,,,,,,,,,,,,,,,,,,,,,,,,,,,,,,,,,,,,,,,,,,,,,,,,,,,,,,,,,,,,,,,,,,,,,,,,,,,,,,,,,,,,,,,,,,,,,,,,,,,,,,,,,,,,,,,,,,
0,13,13,62,1,,612c95f4a142b9dc63cc45a0,62c53a4980569701d2f2d381,2022-07-06_09h29.49.531,Colour_Asymmetry_Pilot,2022.1.3,Win32,59.75143403,62c50e9c1127f2cd403a315f,,,,,,,,,,,,,,,,,,,,,,,,,,,,,,,,,,,,,,,,,,,,,,,,,,,,,,,,,,,,,,,,,,,,,,,,,,,,,,,,,,,,,,,,,,,,,,,,,,,,,,,,,,,,,,,,,,,,,,,,,,,,,,,,,,,,,,,,,,,,,,,,,,,,,,,,,,,,,,,,,,,
0,14,14,51,1,,612c95f4a142b9dc63cc45a0,62c53a4980569701d2f2d381,2022-07-06_09h29.49.531,Colour_Asymmetry_Pilot,2022.1.3,Win32,59.75143403,62c50e9c1127f2cd403a315f,,,,,,,,,,,,,,,,,,,,,,,,,,,,,,,,,,,,,,,,,,,,,,,,,,,,,,,,,,,,,,,,,,,,,,,,,,,,,,,,,,,,,,,,,,,,,,,,,,,,,,,,,,,,,,,,,,,,,,,,,,,,,,,,,,,,,,,,,,,,,,,,,,,,,,,,,,,,,,,,,,,
0,15,15,89,1,,612c95f4a142b9dc63cc45a0,62c53a4980569701d2f2d381,2022-07-06_09h29.49.531,Colour_Asymmetry_Pilot,2022.1.3,Win32,59.75143403,62c50e9c1127f2cd403a315f,,,,,,,,,,,,,,,,,,,,,,,,,,,,,,,,,,,,,,,,,,,,,,,,,,,,,,,,,,,,,,,,,,,,,,,,,,,,,,,,,,,,,,,,,,,,,,,,,,,,,,,,,,,,,,,,,,,,,,,,,,,,,,,,,,,,,,,,,,,,,,,,,,,,,,,,,,,,,,,,,,,
0,16,16,43,1,,612c95f4a142b9dc63cc45a0,62c53a4980569701d2f2d381,2022-07-06_09h29.49.531,Colour_Asymmetry_Pilot,2022.1.3,Win32,59.75143403,62c50e9c1127f2cd403a315f,,,,,,,,,,,,,,,,,,,,,,,,,,,,,,,,,,,,,,,,,,,,,,,,,,,,,,,,,,,,,,,,,,,,,,,,,,,,,,,,,,,,,,,,,,,,,,,,,,,,,,,,,,,,,,,,,,,,,,,,,,,,,,,,,,,,,,,,,,,,,,,,,,,,,,,,,,,,,,,,,,,
0,17,17,81,1,,612c95f4a142b9dc63cc45a0,62c53a4980569701d2f2d381,2022-07-06_09h29.49.531,Colour_Asymmetry_Pilot,2022.1.3,Win32,59.75143403,62c50e9c1127f2cd403a315f,,,,,,,,,,,,,,,,,,,,,,,,,,,,,,,,,,,,,,,,,,,,,,,,,,,,,,,,,,,,,,,,,,,,,,,,,,,,,,,,,,,,,,,,,,,,,,,,,,,,,,,,,,,,,,,,,,,,,,,,,,,,,,,,,,,,,,,,,,,,,,,,,,,,,,,,,,,,,,,,,,,
0,18,18,35,1,,612c95f4a142b9dc63cc45a0,62c53a4980569701d2f2d381,2022-07-06_09h29.49.531,Colour_Asymmetry_Pilot,2022.1.3,Win32,59.75143403,62c50e9c1127f2cd403a315f,,,,,,,,,,,,,,,,,,,,,,,,,,,,,,,,,,,,,,,,,,,,,,,,,,,,,,,,,,,,,,,,,,,,,,,,,,,,,,,,,,,,,,,,,,,,,,,,,,,,,,,,,,,,,,,,,,,,,,,,,,,,,,,,,,,,,,,,,,,,,,,,,,,,,,,,,,,,,,,,,,,
0,19,19,45,1,,612c95f4a142b9dc63cc45a0,62c53a4980569701d2f2d381,2022-07-06_09h29.49.531,Colour_Asymmetry_Pilot,2022.1.3,Win32,59.75143403,62c50e9c1127f2cd403a315f,,,,,,,,,,,,,,,,,,,,,,,,,,,,,,,,,,,,,,,,,,,,,,,,,,,,,,,,,,,,,,,,,,,,,,,,,,,,,,,,,,,,,,,,,,,,,,,,,,,,,,,,,,,,,,,,,,,,,,,,,,,,,,,,,,,,,,,,,,,,,,,,,,,,,,,,,,,,,,,,,,,
0,20,20,78,1,,612c95f4a142b9dc63cc45a0,62c53a4980569701d2f2d381,2022-07-06_09h29.49.531,Colour_Asymmetry_Pilot,2022.1.3,Win32,59.75143403,62c50e9c1127f2cd403a315f,,,,,,,,,,,,,,,,,,,,,,,,,,,,,,,,,,,,,,,,,,,,,,,,,,,,,,,,,,,,,,,,,,,,,,,,,,,,,,,,,,,,,,,,,,,,,,,,,,,,,,,,,,,,,,,,,,,,,,,,,,,,,,,,,,,,,,,,,,,,,,,,,,,,,,,,,,,,,,,,,,,
0,21,21,41,1,,612c95f4a142b9dc63cc45a0,62c53a4980569701d2f2d381,2022-07-06_09h29.49.531,Colour_Asymmetry_Pilot,2022.1.3,Win32,59.75143403,62c50e9c1127f2cd403a315f,,,,,,,,,,,,,,,,,,,,,,,,,,,,,,,,,,,,,,,,,,,,,,,,,,,,,,,,,,,,,,,,,,,,,,,,,,,,,,,,,,,,,,,,,,,,,,,,,,,,,,,,,,,,,,,,,,,,,,,,,,,,,,,,,,,,,,,,,,,,,,,,,,,,,,,,,,,,,,,,,,,
0,22,22,77,1,,612c95f4a142b9dc63cc45a0,62c53a4980569701d2f2d381,2022-07-06_09h29.49.531,Colour_Asymmetry_Pilot,2022.1.3,Win32,59.75143403,62c50e9c1127f2cd403a315f,,,,,,,,,,,,,,,,,,,,,,,,,,,,,,,,,,,,,,,,,,,,,,,,,,,,,,,,,,,,,,,,,,,,,,,,,,,,,,,,,,,,,,,,,,,,,,,,,,,,,,,,,,,,,,,,,,,,,,,,,,,,,,,,,,,,,,,,,,,,,,,,,,,,,,,,,,,,,,,,,,,
0,23,23,21,1,,612c95f4a142b9dc63cc45a0,62c53a4980569701d2f2d381,2022-07-06_09h29.49.531,Colour_Asymmetry_Pilot,2022.1.3,Win32,59.75143403,62c50e9c1127f2cd403a315f,,,,,,,,,,,,,,,,,,,,,,,,,,,,,,,,,,,,,,,,,,,,,,,,,,,,,,,,,,,,,,,,,,,,,,,,,,,,,,,,,,,,,,,,,,,,,,,,,,,,,,,,,,,,,,,,,,,,,,,,,,,,,,,,,,,,,,,,,,,,,,,,,,,,,,,,,,,,,,,,,,,
0,24,24,56,1,,612c95f4a142b9dc63cc45a0,62c53a4980569701d2f2d381,2022-07-06_09h29.49.531,Colour_Asymmetry_Pilot,2022.1.3,Win32,59.75143403,62c50e9c1127f2cd403a315f,,,,,,,,,,,,,,,,,,,,,,,,,,,,,,,,,,,,,,,,,,,,,,,,,,,,,,,,,,,,,,,,,,,,,,,,,,,,,,,,,,,,,,,,,,,,,,,,,,,,,,,,,,,,,,,,,,,,,,,,,,,,,,,,,,,,,,,,,,,,,,,,,,,,,,,,,,,,,,,,,,,
0,25,25,9,1,,612c95f4a142b9dc63cc45a0,62c53a4980569701d2f2d381,2022-07-06_09h29.49.531,Colour_Asymmetry_Pilot,2022.1.3,Win32,59.75143403,62c50e9c1127f2cd403a315f,,,,,,,,,,,,,,,,,,,,,,,,,,,,,,,,,,,,,,,,,,,,,,,,,,,,,,,,,,,,,,,,,,,,,,,,,,,,,,,,,,,,,,,,,,,,,,,,,,,,,,,,,,,,,,,,,,,,,,,,,,,,,,,,,,,,,,,,,,,,,,,,,,,,,,,,,,,,,,,,,,,
0,26,26,29,1,,612c95f4a142b9dc63cc45a0,62c53a4980569701d2f2d381,2022-07-06_09h29.49.531,Colour_Asymmetry_Pilot,2022.1.3,Win32,59.75143403,62c50e9c1127f2cd403a315f,,,,,,,,,,,,,,,,,,,,,,,,,,,,,,,,,,,,,,,,,,,,,,,,,,,,,,,,,,,,,,,,,,,,,,,,,,,,,,,,,,,,,,,,,,,,,,,,,,,,,,,,,,,,,,,,,,,,,,,,,,,,,,,,,,,,,,,,,,,,,,,,,,,,,,,,,,,,,,,,,,,
0,27,27,82,1,,612c95f4a142b9dc63cc45a0,62c53a4980569701d2f2d381,2022-07-06_09h29.49.531,Colour_Asymmetry_Pilot,2022.1.3,Win32,59.75143403,62c50e9c1127f2cd403a315f,,,,,,,,,,,,,,,,,,,,,,,,,,,,,,,,,,,,,,,,,,,,,,,,,,,,,,,,,,,,,,,,,,,,,,,,,,,,,,,,,,,,,,,,,,,,,,,,,,,,,,,,,,,,,,,,,,,,,,,,,,,,,,,,,,,,,,,,,,,,,,,,,,,,,,,,,,,,,,,,,,,
0,28,28,63,1,,612c95f4a142b9dc63cc45a0,62c53a4980569701d2f2d381,2022-07-06_09h29.49.531,Colour_Asymmetry_Pilot,2022.1.3,Win32,59.75143403,62c50e9c1127f2cd403a315f,,,,,,,,,,,,,,,,,,,,,,,,,,,,,,,,,,,,,,,,,,,,,,,,,,,,,,,,,,,,,,,,,,,,,,,,,,,,,,,,,,,,,,,,,,,,,,,,,,,,,,,,,,,,,,,,,,,,,,,,,,,,,,,,,,,,,,,,,,,,,,,,,,,,,,,,,,,,,,,,,,,
0,29,29,73,1,,612c95f4a142b9dc63cc45a0,62c53a4980569701d2f2d381,2022-07-06_09h29.49.531,Colour_Asymmetry_Pilot,2022.1.3,Win32,59.75143403,62c50e9c1127f2cd403a315f,,,,,,,,,,,,,,,,,,,,,,,,,,,,,,,,,,,,,,,,,,,,,,,,,,,,,,,,,,,,,,,,,,,,,,,,,,,,,,,,,,,,,,,,,,,,,,,,,,,,,,,,,,,,,,,,,,,,,,,,,,,,,,,,,,,,,,,,,,,,,,,,,,,,,,,,,,,,,,,,,,,
0,30,30,14,1,,612c95f4a142b9dc63cc45a0,62c53a4980569701d2f2d381,2022-07-06_09h29.49.531,Colour_Asymmetry_Pilot,2022.1.3,Win32,59.75143403,62c50e9c1127f2cd403a315f,,,,,,,,,,,,,,,,,,,,,,,,,,,,,,,,,,,,,,,,,,,,,,,,,,,,,,,,,,,,,,,,,,,,,,,,,,,,,,,,,,,,,,,,,,,,,,,,,,,,,,,,,,,,,,,,,,,,,,,,,,,,,,,,,,,,,,,,,,,,,,,,,,,,,,,,,,,,,,,,,,,
0,31,31,67,1,,612c95f4a142b9dc63cc45a0,62c53a4980569701d2f2d381,2022-07-06_09h29.49.531,Colour_Asymmetry_Pilot,2022.1.3,Win32,59.75143403,62c50e9c1127f2cd403a315f,,,,,,,,,,,,,,,,,,,,,,,,,,,,,,,,,,,,,,,,,,,,,,,,,,,,,,,,,,,,,,,,,,,,,,,,,,,,,,,,,,,,,,,,,,,,,,,,,,,,,,,,,,,,,,,,,,,,,,,,,,,,,,,,,,,,,,,,,,,,,,,,,,,,,,,,,,,,,,,,,,,
0,32,32,92,1,,612c95f4a142b9dc63cc45a0,62c53a4980569701d2f2d381,2022-07-06_09h29.49.531,Colour_Asymmetry_Pilot,2022.1.3,Win32,59.75143403,62c50e9c1127f2cd403a315f,,,,,,,,,,,,,,,,,,,,,,,,,,,,,,,,,,,,,,,,,,,,,,,,,,,,,,,,,,,,,,,,,,,,,,,,,,,,,,,,,,,,,,,,,,,,,,,,,,,,,,,,,,,,,,,,,,,,,,,,,,,,,,,,,,,,,,,,,,,,,,,,,,,,,,,,,,,,,,,,,,,
0,33,33,38,1,,612c95f4a142b9dc63cc45a0,62c53a4980569701d2f2d381,2022-07-06_09h29.49.531,Colour_Asymmetry_Pilot,2022.1.3,Win32,59.75143403,62c50e9c1127f2cd403a315f,,,,,,,,,,,,,,,,,,,,,,,,,,,,,,,,,,,,,,,,,,,,,,,,,,,,,,,,,,,,,,,,,,,,,,,,,,,,,,,,,,,,,,,,,,,,,,,,,,,,,,,,,,,,,,,,,,,,,,,,,,,,,,,,,,,,,,,,,,,,,,,,,,,,,,,,,,,,,,,,,,,
0,34,34,79,1,,612c95f4a142b9dc63cc45a0,62c53a4980569701d2f2d381,2022-07-06_09h29.49.531,Colour_Asymmetry_Pilot,2022.1.3,Win32,59.75143403,62c50e9c1127f2cd403a315f,,,,,,,,,,,,,,,,,,,,,,,,,,,,,,,,,,,,,,,,,,,,,,,,,,,,,,,,,,,,,,,,,,,,,,,,,,,,,,,,,,,,,,,,,,,,,,,,,,,,,,,,,,,,,,,,,,,,,,,,,,,,,,,,,,,,,,,,,,,,,,,,,,,,,,,,,,,,,,,,,,,
0,35,35,48,1,,612c95f4a142b9dc63cc45a0,62c53a4980569701d2f2d381,2022-07-06_09h29.49.531,Colour_Asymmetry_Pilot,2022.1.3,Win32,59.75143403,62c50e9c1127f2cd403a315f,,,,,,,,,,,,,,,,,,,,,,,,,,,,,,,,,,,,,,,,,,,,,,,,,,,,,,,,,,,,,,,,,,,,,,,,,,,,,,,,,,,,,,,,,,,,,,,,,,,,,,,,,,,,,,,,,,,,,,,,,,,,,,,,,,,,,,,,,,,,,,,,,,,,,,,,,,,,,,,,,,,
0,36,36,0,1,,612c95f4a142b9dc63cc45a0,62c53a4980569701d2f2d381,2022-07-06_09h29.49.531,Colour_Asymmetry_Pilot,2022.1.3,Win32,59.75143403,62c50e9c1127f2cd403a315f,,,,,,,,,,,,,,,,,,,,,,,,,,,,,,,,,,,,,,,,,,,,,,,,,,,,,,,,,,,,,,,,,,,,,,,,,,,,,,,,,,,,,,,,,,,,,,,,,,,,,,,,,,,,,,,,,,,,,,,,,,,,,,,,,,,,,,,,,,,,,,,,,,,,,,,,,,,,,,,,,,,
0,37,37,86,1,,612c95f4a142b9dc63cc45a0,62c53a4980569701d2f2d381,2022-07-06_09h29.49.531,Colour_Asymmetry_Pilot,2022.1.3,Win32,59.75143403,62c50e9c1127f2cd403a315f,,,,,,,,,,,,,,,,,,,,,,,,,,,,,,,,,,,,,,,,,,,,,,,,,,,,,,,,,,,,,,,,,,,,,,,,,,,,,,,,,,,,,,,,,,,,,,,,,,,,,,,,,,,,,,,,,,,,,,,,,,,,,,,,,,,,,,,,,,,,,,,,,,,,,,,,,,,,,,,,,,,
0,38,38,1,1,,612c95f4a142b9dc63cc45a0,62c53a4980569701d2f2d381,2022-07-06_09h29.49.531,Colour_Asymmetry_Pilot,2022.1.3,Win32,59.75143403,62c50e9c1127f2cd403a315f,,,,,,,,,,,,,,,,,,,,,,,,,,,,,,,,,,,,,,,,,,,,,,,,,,,,,,,,,,,,,,,,,,,,,,,,,,,,,,,,,,,,,,,,,,,,,,,,,,,,,,,,,,,,,,,,,,,,,,,,,,,,,,,,,,,,,,,,,,,,,,,,,,,,,,,,,,,,,,,,,,,
0,39,39,31,1,,612c95f4a142b9dc63cc45a0,62c53a4980569701d2f2d381,2022-07-06_09h29.49.531,Colour_Asymmetry_Pilot,2022.1.3,Win32,59.75143403,62c50e9c1127f2cd403a315f,,,,,,,,,,,,,,,,,,,,,,,,,,,,,,,,,,,,,,,,,,,,,,,,,,,,,,,,,,,,,,,,,,,,,,,,,,,,,,,,,,,,,,,,,,,,,,,,,,,,,,,,,,,,,,,,,,,,,,,,,,,,,,,,,,,,,,,,,,,,,,,,,,,,,,,,,,,,,,,,,,,
0,40,40,23,1,,612c95f4a142b9dc63cc45a0,62c53a4980569701d2f2d381,2022-07-06_09h29.49.531,Colour_Asymmetry_Pilot,2022.1.3,Win32,59.75143403,62c50e9c1127f2cd403a315f,,,,,,,,,,,,,,,,,,,,,,,,,,,,,,,,,,,,,,,,,,,,,,,,,,,,,,,,,,,,,,,,,,,,,,,,,,,,,,,,,,,,,,,,,,,,,,,,,,,,,,,,,,,,,,,,,,,,,,,,,,,,,,,,,,,,,,,,,,,,,,,,,,,,,,,,,,,,,,,,,,,
0,41,41,50,1,,612c95f4a142b9dc63cc45a0,62c53a4980569701d2f2d381,2022-07-06_09h29.49.531,Colour_Asymmetry_Pilot,2022.1.3,Win32,59.75143403,62c50e9c1127f2cd403a315f,,,,,,,,,,,,,,,,,,,,,,,,,,,,,,,,,,,,,,,,,,,,,,,,,,,,,,,,,,,,,,,,,,,,,,,,,,,,,,,,,,,,,,,,,,,,,,,,,,,,,,,,,,,,,,,,,,,,,,,,,,,,,,,,,,,,,,,,,,,,,,,,,,,,,,,,,,,,,,,,,,,
0,42,42,39,1,,612c95f4a142b9dc63cc45a0,62c53a4980569701d2f2d381,2022-07-06_09h29.49.531,Colour_Asymmetry_Pilot,2022.1.3,Win32,59.75143403,62c50e9c1127f2cd403a315f,,,,,,,,,,,,,,,,,,,,,,,,,,,,,,,,,,,,,,,,,,,,,,,,,,,,,,,,,,,,,,,,,,,,,,,,,,,,,,,,,,,,,,,,,,,,,,,,,,,,,,,,,,,,,,,,,,,,,,,,,,,,,,,,,,,,,,,,,,,,,,,,,,,,,,,,,,,,,,,,,,,
0,43,43,6,1,,612c95f4a142b9dc63cc45a0,62c53a4980569701d2f2d381,2022-07-06_09h29.49.531,Colour_Asymmetry_Pilot,2022.1.3,Win32,59.75143403,62c50e9c1127f2cd403a315f,,,,,,,,,,,,,,,,,,,,,,,,,,,,,,,,,,,,,,,,,,,,,,,,,,,,,,,,,,,,,,,,,,,,,,,,,,,,,,,,,,,,,,,,,,,,,,,,,,,,,,,,,,,,,,,,,,,,,,,,,,,,,,,,,,,,,,,,,,,,,,,,,,,,,,,,,,,,,,,,,,,
0,44,44,53,1,,612c95f4a142b9dc63cc45a0,62c53a4980569701d2f2d381,2022-07-06_09h29.49.531,Colour_Asymmetry_Pilot,2022.1.3,Win32,59.75143403,62c50e9c1127f2cd403a315f,,,,,,,,,,,,,,,,,,,,,,,,,,,,,,,,,,,,,,,,,,,,,,,,,,,,,,,,,,,,,,,,,,,,,,,,,,,,,,,,,,,,,,,,,,,,,,,,,,,,,,,,,,,,,,,,,,,,,,,,,,,,,,,,,,,,,,,,,,,,,,,,,,,,,,,,,,,,,,,,,,,
0,45,45,2,1,,612c95f4a142b9dc63cc45a0,62c53a4980569701d2f2d381,2022-07-06_09h29.49.531,Colour_Asymmetry_Pilot,2022.1.3,Win32,59.75143403,62c50e9c1127f2cd403a315f,,,,,,,,,,,,,,,,,,,,,,,,,,,,,,,,,,,,,,,,,,,,,,,,,,,,,,,,,,,,,,,,,,,,,,,,,,,,,,,,,,,,,,,,,,,,,,,,,,,,,,,,,,,,,,,,,,,,,,,,,,,,,,,,,,,,,,,,,,,,,,,,,,,,,,,,,,,,,,,,,,,
0,46,46,47,1,,612c95f4a142b9dc63cc45a0,62c53a4980569701d2f2d381,2022-07-06_09h29.49.531,Colour_Asymmetry_Pilot,2022.1.3,Win32,59.75143403,62c50e9c1127f2cd403a315f,,,,,,,,,,,,,,,,,,,,,,,,,,,,,,,,,,,,,,,,,,,,,,,,,,,,,,,,,,,,,,,,,,,,,,,,,,,,,,,,,,,,,,,,,,,,,,,,,,,,,,,,,,,,,,,,,,,,,,,,,,,,,,,,,,,,,,,,,,,,,,,,,,,,,,,,,,,,,,,,,,,
0,47,47,4,1,,612c95f4a142b9dc63cc45a0,62c53a4980569701d2f2d381,2022-07-06_09h29.49.531,Colour_Asymmetry_Pilot,2022.1.3,Win32,59.75143403,62c50e9c1127f2cd403a315f,,,,,,,,,,,,,,,,,,,,,,,,,,,,,,,,,,,,,,,,,,,,,,,,,,,,,,,,,,,,,,,,,,,,,,,,,,,,,,,,,,,,,,,,,,,,,,,,,,,,,,,,,,,,,,,,,,,,,,,,,,,,,,,,,,,,,,,,,,,,,,,,,,,,,,,,,,,,,,,,,,,
0,48,48,54,1,,612c95f4a142b9dc63cc45a0,62c53a4980569701d2f2d381,2022-07-06_09h29.49.531,Colour_Asymmetry_Pilot,2022.1.3,Win32,59.75143403,62c50e9c1127f2cd403a315f,,,,,,,,,,,,,,,,,,,,,,,,,,,,,,,,,,,,,,,,,,,,,,,,,,,,,,,,,,,,,,,,,,,,,,,,,,,,,,,,,,,,,,,,,,,,,,,,,,,,,,,,,,,,,,,,,,,,,,,,,,,,,,,,,,,,,,,,,,,,,,,,,,,,,,,,,,,,,,,,,,,
0,49,49,34,1,,612c95f4a142b9dc63cc45a0,62c53a4980569701d2f2d381,2022-07-06_09h29.49.531,Colour_Asymmetry_Pilot,2022.1.3,Win32,59.75143403,62c50e9c1127f2cd403a315f,,,,,,,,,,,,,,,,,,,,,,,,,,,,,,,,,,,,,,,,,,,,,,,,,,,,,,,,,,,,,,,,,,,,,,,,,,,,,,,,,,,,,,,,,,,,,,,,,,,,,,,,,,,,,,,,,,,,,,,,,,,,,,,,,,,,,,,,,,,,,,,,,,,,,,,,,,,,,,,,,,,
0,50,50,49,1,,612c95f4a142b9dc63cc45a0,62c53a4980569701d2f2d381,2022-07-06_09h29.49.531,Colour_Asymmetry_Pilot,2022.1.3,Win32,59.75143403,62c50e9c1127f2cd403a315f,,,,,,,,,,,,,,,,,,,,,,,,,,,,,,,,,,,,,,,,,,,,,,,,,,,,,,,,,,,,,,,,,,,,,,,,,,,,,,,,,,,,,,,,,,,,,,,,,,,,,,,,,,,,,,,,,,,,,,,,,,,,,,,,,,,,,,,,,,,,,,,,,,,,,,,,,,,,,,,,,,,
0,51,51,15,1,,612c95f4a142b9dc63cc45a0,62c53a4980569701d2f2d381,2022-07-06_09h29.49.531,Colour_Asymmetry_Pilot,2022.1.3,Win32,59.75143403,62c50e9c1127f2cd403a315f,,,,,,,,,,,,,,,,,,,,,,,,,,,,,,,,,,,,,,,,,,,,,,,,,,,,,,,,,,,,,,,,,,,,,,,,,,,,,,,,,,,,,,,,,,,,,,,,,,,,,,,,,,,,,,,,,,,,,,,,,,,,,,,,,,,,,,,,,,,,,,,,,,,,,,,,,,,,,,,,,,,
0,52,52,8,1,,612c95f4a142b9dc63cc45a0,62c53a4980569701d2f2d381,2022-07-06_09h29.49.531,Colour_Asymmetry_Pilot,2022.1.3,Win32,59.75143403,62c50e9c1127f2cd403a315f,,,,,,,,,,,,,,,,,,,,,,,,,,,,,,,,,,,,,,,,,,,,,,,,,,,,,,,,,,,,,,,,,,,,,,,,,,,,,,,,,,,,,,,,,,,,,,,,,,,,,,,,,,,,,,,,,,,,,,,,,,,,,,,,,,,,,,,,,,,,,,,,,,,,,,,,,,,,,,,,,,,
0,53,53,68,1,,612c95f4a142b9dc63cc45a0,62c53a4980569701d2f2d381,2022-07-06_09h29.49.531,Colour_Asymmetry_Pilot,2022.1.3,Win32,59.75143403,62c50e9c1127f2cd403a315f,,,,,,,,,,,,,,,,,,,,,,,,,,,,,,,,,,,,,,,,,,,,,,,,,,,,,,,,,,,,,,,,,,,,,,,,,,,,,,,,,,,,,,,,,,,,,,,,,,,,,,,,,,,,,,,,,,,,,,,,,,,,,,,,,,,,,,,,,,,,,,,,,,,,,,,,,,,,,,,,,,,
0,54,54,71,1,,612c95f4a142b9dc63cc45a0,62c53a4980569701d2f2d381,2022-07-06_09h29.49.531,Colour_Asymmetry_Pilot,2022.1.3,Win32,59.75143403,62c50e9c1127f2cd403a315f,,,,,,,,,,,,,,,,,,,,,,,,,,,,,,,,,,,,,,,,,,,,,,,,,,,,,,,,,,,,,,,,,,,,,,,,,,,,,,,,,,,,,,,,,,,,,,,,,,,,,,,,,,,,,,,,,,,,,,,,,,,,,,,,,,,,,,,,,,,,,,,,,,,,,,,,,,,,,,,,,,,
0,55,55,76,1,,612c95f4a142b9dc63cc45a0,62c53a4980569701d2f2d381,2022-07-06_09h29.49.531,Colour_Asymmetry_Pilot,2022.1.3,Win32,59.75143403,62c50e9c1127f2cd403a315f,,,,,,,,,,,,,,,,,,,,,,,,,,,,,,,,,,,,,,,,,,,,,,,,,,,,,,,,,,,,,,,,,,,,,,,,,,,,,,,,,,,,,,,,,,,,,,,,,,,,,,,,,,,,,,,,,,,,,,,,,,,,,,,,,,,,,,,,,,,,,,,,,,,,,,,,,,,,,,,,,,,
0,56,56,52,1,,612c95f4a142b9dc63cc45a0,62c53a4980569701d2f2d381,2022-07-06_09h29.49.531,Colour_Asymmetry_Pilot,2022.1.3,Win32,59.75143403,62c50e9c1127f2cd403a315f,,,,,,,,,,,,,,,,,,,,,,,,,,,,,,,,,,,,,,,,,,,,,,,,,,,,,,,,,,,,,,,,,,,,,,,,,,,,,,,,,,,,,,,,,,,,,,,,,,,,,,,,,,,,,,,,,,,,,,,,,,,,,,,,,,,,,,,,,,,,,,,,,,,,,,,,,,,,,,,,,,,
0,57,57,5,1,,612c95f4a142b9dc63cc45a0,62c53a4980569701d2f2d381,2022-07-06_09h29.49.531,Colour_Asymmetry_Pilot,2022.1.3,Win32,59.75143403,62c50e9c1127f2cd403a315f,,,,,,,,,,,,,,,,,,,,,,,,,,,,,,,,,,,,,,,,,,,,,,,,,,,,,,,,,,,,,,,,,,,,,,,,,,,,,,,,,,,,,,,,,,,,,,,,,,,,,,,,,,,,,,,,,,,,,,,,,,,,,,,,,,,,,,,,,,,,,,,,,,,,,,,,,,,,,,,,,,,
0,58,58,72,1,,612c95f4a142b9dc63cc45a0,62c53a4980569701d2f2d381,2022-07-06_09h29.49.531,Colour_Asymmetry_Pilot,2022.1.3,Win32,59.75143403,62c50e9c1127f2cd403a315f,,,,,,,,,,,,,,,,,,,,,,,,,,,,,,,,,,,,,,,,,,,,,,,,,,,,,,,,,,,,,,,,,,,,,,,,,,,,,,,,,,,,,,,,,,,,,,,,,,,,,,,,,,,,,,,,,,,,,,,,,,,,,,,,,,,,,,,,,,,,,,,,,,,,,,,,,,,,,,,,,,,
0,59,59,83,1,,612c95f4a142b9dc63cc45a0,62c53a4980569701d2f2d381,2022-07-06_09h29.49.531,Colour_Asymmetry_Pilot,2022.1.3,Win32,59.75143403,62c50e9c1127f2cd403a315f,,,,,,,,,,,,,,,,,,,,,,,,,,,,,,,,,,,,,,,,,,,,,,,,,,,,,,,,,,,,,,,,,,,,,,,,,,,,,,,,,,,,,,,,,,,,,,,,,,,,,,,,,,,,,,,,,,,,,,,,,,,,,,,,,,,,,,,,,,,,,,,,,,,,,,,,,,,,,,,,,,,
0,60,60,16,1,,612c95f4a142b9dc63cc45a0,62c53a4980569701d2f2d381,2022-07-06_09h29.49.531,Colour_Asymmetry_Pilot,2022.1.3,Win32,59.75143403,62c50e9c1127f2cd403a315f,,,,,,,,,,,,,,,,,,,,,,,,,,,,,,,,,,,,,,,,,,,,,,,,,,,,,,,,,,,,,,,,,,,,,,,,,,,,,,,,,,,,,,,,,,,,,,,,,,,,,,,,,,,,,,,,,,,,,,,,,,,,,,,,,,,,,,,,,,,,,,,,,,,,,,,,,,,,,,,,,,,
0,61,61,24,1,,612c95f4a142b9dc63cc45a0,62c53a4980569701d2f2d381,2022-07-06_09h29.49.531,Colour_Asymmetry_Pilot,2022.1.3,Win32,59.75143403,62c50e9c1127f2cd403a315f,,,,,,,,,,,,,,,,,,,,,,,,,,,,,,,,,,,,,,,,,,,,,,,,,,,,,,,,,,,,,,,,,,,,,,,,,,,,,,,,,,,,,,,,,,,,,,,,,,,,,,,,,,,,,,,,,,,,,,,,,,,,,,,,,,,,,,,,,,,,,,,,,,,,,,,,,,,,,,,,,,,
0,62,62,80,1,,612c95f4a142b9dc63cc45a0,62c53a4980569701d2f2d381,2022-07-06_09h29.49.531,Colour_Asymmetry_Pilot,2022.1.3,Win32,59.75143403,62c50e9c1127f2cd403a315f,,,,,,,,,,,,,,,,,,,,,,,,,,,,,,,,,,,,,,,,,,,,,,,,,,,,,,,,,,,,,,,,,,,,,,,,,,,,,,,,,,,,,,,,,,,,,,,,,,,,,,,,,,,,,,,,,,,,,,,,,,,,,,,,,,,,,,,,,,,,,,,,,,,,,,,,,,,,,,,,,,,
0,63,63,12,1,,612c95f4a142b9dc63cc45a0,62c53a4980569701d2f2d381,2022-07-06_09h29.49.531,Colour_Asymmetry_Pilot,2022.1.3,Win32,59.75143403,62c50e9c1127f2cd403a315f,,,,,,,,,,,,,,,,,,,,,,,,,,,,,,,,,,,,,,,,,,,,,,,,,,,,,,,,,,,,,,,,,,,,,,,,,,,,,,,,,,,,,,,,,,,,,,,,,,,,,,,,,,,,,,,,,,,,,,,,,,,,,,,,,,,,,,,,,,,,,,,,,,,,,,,,,,,,,,,,,,,
0,64,64,87,1,,612c95f4a142b9dc63cc45a0,62c53a4980569701d2f2d381,2022-07-06_09h29.49.531,Colour_Asymmetry_Pilot,2022.1.3,Win32,59.75143403,62c50e9c1127f2cd403a315f,,,,,,,,,,,,,,,,,,,,,,,,,,,,,,,,,,,,,,,,,,,,,,,,,,,,,,,,,,,,,,,,,,,,,,,,,,,,,,,,,,,,,,,,,,,,,,,,,,,,,,,,,,,,,,,,,,,,,,,,,,,,,,,,,,,,,,,,,,,,,,,,,,,,,,,,,,,,,,,,,,,
0,65,65,26,1,,612c95f4a142b9dc63cc45a0,62c53a4980569701d2f2d381,2022-07-06_09h29.49.531,Colour_Asymmetry_Pilot,2022.1.3,Win32,59.75143403,62c50e9c1127f2cd403a315f,,,,,,,,,,,,,,,,,,,,,,,,,,,,,,,,,,,,,,,,,,,,,,,,,,,,,,,,,,,,,,,,,,,,,,,,,,,,,,,,,,,,,,,,,,,,,,,,,,,,,,,,,,,,,,,,,,,,,,,,,,,,,,,,,,,,,,,,,,,,,,,,,,,,,,,,,,,,,,,,,,,
0,66,66,91,1,,612c95f4a142b9dc63cc45a0,62c53a4980569701d2f2d381,2022-07-06_09h29.49.531,Colour_Asymmetry_Pilot,2022.1.3,Win32,59.75143403,62c50e9c1127f2cd403a315f,,,,,,,,,,,,,,,,,,,,,,,,,,,,,,,,,,,,,,,,,,,,,,,,,,,,,,,,,,,,,,,,,,,,,,,,,,,,,,,,,,,,,,,,,,,,,,,,,,,,,,,,,,,,,,,,,,,,,,,,,,,,,,,,,,,,,,,,,,,,,,,,,,,,,,,,,,,,,,,,,,,
0,67,67,66,1,,612c95f4a142b9dc63cc45a0,62c53a4980569701d2f2d381,2022-07-06_09h29.49.531,Colour_Asymmetry_Pilot,2022.1.3,Win32,59.75143403,62c50e9c1127f2cd403a315f,,,,,,,,,,,,,,,,,,,,,,,,,,,,,,,,,,,,,,,,,,,,,,,,,,,,,,,,,,,,,,,,,,,,,,,,,,,,,,,,,,,,,,,,,,,,,,,,,,,,,,,,,,,,,,,,,,,,,,,,,,,,,,,,,,,,,,,,,,,,,,,,,,,,,,,,,,,,,,,,,,,
0,68,68,7,1,,612c95f4a142b9dc63cc45a0,62c53a4980569701d2f2d381,2022-07-06_09h29.49.531,Colour_Asymmetry_Pilot,2022.1.3,Win32,59.75143403,62c50e9c1127f2cd403a315f,,,,,,,,,,,,,,,,,,,,,,,,,,,,,,,,,,,,,,,,,,,,,,,,,,,,,,,,,,,,,,,,,,,,,,,,,,,,,,,,,,,,,,,,,,,,,,,,,,,,,,,,,,,,,,,,,,,,,,,,,,,,,,,,,,,,,,,,,,,,,,,,,,,,,,,,,,,,,,,,,,,
0,69,69,85,1,,612c95f4a142b9dc63cc45a0,62c53a4980569701d2f2d381,2022-07-06_09h29.49.531,Colour_Asymmetry_Pilot,2022.1.3,Win32,59.75143403,62c50e9c1127f2cd403a315f,,,,,,,,,,,,,,,,,,,,,,,,,,,,,,,,,,,,,,,,,,,,,,,,,,,,,,,,,,,,,,,,,,,,,,,,,,,,,,,,,,,,,,,,,,,,,,,,,,,,,,,,,,,,,,,,,,,,,,,,,,,,,,,,,,,,,,,,,,,,,,,,,,,,,,,,,,,,,,,,,,,
0,70,70,70,1,,612c95f4a142b9dc63cc45a0,62c53a4980569701d2f2d381,2022-07-06_09h29.49.531,Colour_Asymmetry_Pilot,2022.1.3,Win32,59.75143403,62c50e9c1127f2cd403a315f,,,,,,,,,,,,,,,,,,,,,,,,,,,,,,,,,,,,,,,,,,,,,,,,,,,,,,,,,,,,,,,,,,,,,,,,,,,,,,,,,,,,,,,,,,,,,,,,,,,,,,,,,,,,,,,,,,,,,,,,,,,,,,,,,,,,,,,,,,,,,,,,,,,,,,,,,,,,,,,,,,,
0,71,71,69,1,,612c95f4a142b9dc63cc45a0,62c53a4980569701d2f2d381,2022-07-06_09h29.49.531,Colour_Asymmetry_Pilot,2022.1.3,Win32,59.75143403,62c50e9c1127f2cd403a315f,,,,,,,,,,,,,,,,,,,,,,,,,,,,,,,,,,,,,,,,,,,,,,,,,,,,,,,,,,,,,,,,,,,,,,,,,,,,,,,,,,,,,,,,,,,,,,,,,,,,,,,,,,,,,,,,,,,,,,,,,,,,,,,,,,,,,,,,,,,,,,,,,,,,,,,,,,,,,,,,,,,
0,72,72,84,1,,612c95f4a142b9dc63cc45a0,62c53a4980569701d2f2d381,2022-07-06_09h29.49.531,Colour_Asymmetry_Pilot,2022.1.3,Win32,59.75143403,62c50e9c1127f2cd403a315f,,,,,,,,,,,,,,,,,,,,,,,,,,,,,,,,,,,,,,,,,,,,,,,,,,,,,,,,,,,,,,,,,,,,,,,,,,,,,,,,,,,,,,,,,,,,,,,,,,,,,,,,,,,,,,,,,,,,,,,,,,,,,,,,,,,,,,,,,,,,,,,,,,,,,,,,,,,,,,,,,,,
0,73,73,64,1,,612c95f4a142b9dc63cc45a0,62c53a4980569701d2f2d381,2022-07-06_09h29.49.531,Colour_Asymmetry_Pilot,2022.1.3,Win32,59.75143403,62c50e9c1127f2cd403a315f,,,,,,,,,,,,,,,,,,,,,,,,,,,,,,,,,,,,,,,,,,,,,,,,,,,,,,,,,,,,,,,,,,,,,,,,,,,,,,,,,,,,,,,,,,,,,,,,,,,,,,,,,,,,,,,,,,,,,,,,,,,,,,,,,,,,,,,,,,,,,,,,,,,,,,,,,,,,,,,,,,,
0,74,74,22,1,,612c95f4a142b9dc63cc45a0,62c53a4980569701d2f2d381,2022-07-06_09h29.49.531,Colour_Asymmetry_Pilot,2022.1.3,Win32,59.75143403,62c50e9c1127f2cd403a315f,,,,,,,,,,,,,,,,,,,,,,,,,,,,,,,,,,,,,,,,,,,,,,,,,,,,,,,,,,,,,,,,,,,,,,,,,,,,,,,,,,,,,,,,,,,,,,,,,,,,,,,,,,,,,,,,,,,,,,,,,,,,,,,,,,,,,,,,,,,,,,,,,,,,,,,,,,,,,,,,,,,
0,75,75,13,1,,612c95f4a142b9dc63cc45a0,62c53a4980569701d2f2d381,2022-07-06_09h29.49.531,Colour_Asymmetry_Pilot,2022.1.3,Win32,59.75143403,62c50e9c1127f2cd403a315f,,,,,,,,,,,,,,,,,,,,,,,,,,,,,,,,,,,,,,,,,,,,,,,,,,,,,,,,,,,,,,,,,,,,,,,,,,,,,,,,,,,,,,,,,,,,,,,,,,,,,,,,,,,,,,,,,,,,,,,,,,,,,,,,,,,,,,,,,,,,,,,,,,,,,,,,,,,,,,,,,,,
0,76,76,19,1,,612c95f4a142b9dc63cc45a0,62c53a4980569701d2f2d381,2022-07-06_09h29.49.531,Colour_Asymmetry_Pilot,2022.1.3,Win32,59.75143403,62c50e9c1127f2cd403a315f,,,,,,,,,,,,,,,,,,,,,,,,,,,,,,,,,,,,,,,,,,,,,,,,,,,,,,,,,,,,,,,,,,,,,,,,,,,,,,,,,,,,,,,,,,,,,,,,,,,,,,,,,,,,,,,,,,,,,,,,,,,,,,,,,,,,,,,,,,,,,,,,,,,,,,,,,,,,,,,,,,,
0,77,77,58,1,,612c95f4a142b9dc63cc45a0,62c53a4980569701d2f2d381,2022-07-06_09h29.49.531,Colour_Asymmetry_Pilot,2022.1.3,Win32,59.75143403,62c50e9c1127f2cd403a315f,,,,,,,,,,,,,,,,,,,,,,,,,,,,,,,,,,,,,,,,,,,,,,,,,,,,,,,,,,,,,,,,,,,,,,,,,,,,,,,,,,,,,,,,,,,,,,,,,,,,,,,,,,,,,,,,,,,,,,,,,,,,,,,,,,,,,,,,,,,,,,,,,,,,,,,,,,,,,,,,,,,
0,78,78,18,1,,612c95f4a142b9dc63cc45a0,62c53a4980569701d2f2d381,2022-07-06_09h29.49.531,Colour_Asymmetry_Pilot,2022.1.3,Win32,59.75143403,62c50e9c1127f2cd403a315f,,,,,,,,,,,,,,,,,,,,,,,,,,,,,,,,,,,,,,,,,,,,,,,,,,,,,,,,,,,,,,,,,,,,,,,,,,,,,,,,,,,,,,,,,,,,,,,,,,,,,,,,,,,,,,,,,,,,,,,,,,,,,,,,,,,,,,,,,,,,,,,,,,,,,,,,,,,,,,,,,,,
0,79,79,37,1,,612c95f4a142b9dc63cc45a0,62c53a4980569701d2f2d381,2022-07-06_09h29.49.531,Colour_Asymmetry_Pilot,2022.1.3,Win32,59.75143403,62c50e9c1127f2cd403a315f,,,,,,,,,,,,,,,,,,,,,,,,,,,,,,,,,,,,,,,,,,,,,,,,,,,,,,,,,,,,,,,,,,,,,,,,,,,,,,,,,,,,,,,,,,,,,,,,,,,,,,,,,,,,,,,,,,,,,,,,,,,,,,,,,,,,,,,,,,,,,,,,,,,,,,,,,,,,,,,,,,,
0,80,80,33,1,,612c95f4a142b9dc63cc45a0,62c53a4980569701d2f2d381,2022-07-06_09h29.49.531,Colour_Asymmetry_Pilot,2022.1.3,Win32,59.75143403,62c50e9c1127f2cd403a315f,,,,,,,,,,,,,,,,,,,,,,,,,,,,,,,,,,,,,,,,,,,,,,,,,,,,,,,,,,,,,,,,,,,,,,,,,,,,,,,,,,,,,,,,,,,,,,,,,,,,,,,,,,,,,,,,,,,,,,,,,,,,,,,,,,,,,,,,,,,,,,,,,,,,,,,,,,,,,,,,,,,
0,81,81,40,1,,612c95f4a142b9dc63cc45a0,62c53a4980569701d2f2d381,2022-07-06_09h29.49.531,Colour_Asymmetry_Pilot,2022.1.3,Win32,59.75143403,62c50e9c1127f2cd403a315f,,,,,,,,,,,,,,,,,,,,,,,,,,,,,,,,,,,,,,,,,,,,,,,,,,,,,,,,,,,,,,,,,,,,,,,,,,,,,,,,,,,,,,,,,,,,,,,,,,,,,,,,,,,,,,,,,,,,,,,,,,,,,,,,,,,,,,,,,,,,,,,,,,,,,,,,,,,,,,,,,,,
0,82,82,55,1,,612c95f4a142b9dc63cc45a0,62c53a4980569701d2f2d381,2022-07-06_09h29.49.531,Colour_Asymmetry_Pilot,2022.1.3,Win32,59.75143403,62c50e9c1127f2cd403a315f,,,,,,,,,,,,,,,,,,,,,,,,,,,,,,,,,,,,,,,,,,,,,,,,,,,,,,,,,,,,,,,,,,,,,,,,,,,,,,,,,,,,,,,,,,,,,,,,,,,,,,,,,,,,,,,,,,,,,,,,,,,,,,,,,,,,,,,,,,,,,,,,,,,,,,,,,,,,,,,,,,,
0,83,83,36,1,,612c95f4a142b9dc63cc45a0,62c53a4980569701d2f2d381,2022-07-06_09h29.49.531,Colour_Asymmetry_Pilot,2022.1.3,Win32,59.75143403,62c50e9c1127f2cd403a315f,,,,,,,,,,,,,,,,,,,,,,,,,,,,,,,,,,,,,,,,,,,,,,,,,,,,,,,,,,,,,,,,,,,,,,,,,,,,,,,,,,,,,,,,,,,,,,,,,,,,,,,,,,,,,,,,,,,,,,,,,,,,,,,,,,,,,,,,,,,,,,,,,,,,,,,,,,,,,,,,,,,
0,84,84,74,1,,612c95f4a142b9dc63cc45a0,62c53a4980569701d2f2d381,2022-07-06_09h29.49.531,Colour_Asymmetry_Pilot,2022.1.3,Win32,59.75143403,62c50e9c1127f2cd403a315f,,,,,,,,,,,,,,,,,,,,,,,,,,,,,,,,,,,,,,,,,,,,,,,,,,,,,,,,,,,,,,,,,,,,,,,,,,,,,,,,,,,,,,,,,,,,,,,,,,,,,,,,,,,,,,,,,,,,,,,,,,,,,,,,,,,,,,,,,,,,,,,,,,,,,,,,,,,,,,,,,,,
0,85,85,42,1,,612c95f4a142b9dc63cc45a0,62c53a4980569701d2f2d381,2022-07-06_09h29.49.531,Colour_Asymmetry_Pilot,2022.1.3,Win32,59.75143403,62c50e9c1127f2cd403a315f,,,,,,,,,,,,,,,,,,,,,,,,,,,,,,,,,,,,,,,,,,,,,,,,,,,,,,,,,,,,,,,,,,,,,,,,,,,,,,,,,,,,,,,,,,,,,,,,,,,,,,,,,,,,,,,,,,,,,,,,,,,,,,,,,,,,,,,,,,,,,,,,,,,,,,,,,,,,,,,,,,,
0,86,86,44,1,,612c95f4a142b9dc63cc45a0,62c53a4980569701d2f2d381,2022-07-06_09h29.49.531,Colour_Asymmetry_Pilot,2022.1.3,Win32,59.75143403,62c50e9c1127f2cd403a315f,,,,,,,,,,,,,,,,,,,,,,,,,,,,,,,,,,,,,,,,,,,,,,,,,,,,,,,,,,,,,,,,,,,,,,,,,,,,,,,,,,,,,,,,,,,,,,,,,,,,,,,,,,,,,,,,,,,,,,,,,,,,,,,,,,,,,,,,,,,,,,,,,,,,,,,,,,,,,,,,,,,
0,87,87,20,1,,612c95f4a142b9dc63cc45a0,62c53a4980569701d2f2d381,2022-07-06_09h29.49.531,Colour_Asymmetry_Pilot,2022.1.3,Win32,59.75143403,62c50e9c1127f2cd403a315f,,,,,,,,,,,,,,,,,,,,,,,,,,,,,,,,,,,,,,,,,,,,,,,,,,,,,,,,,,,,,,,,,,,,,,,,,,,,,,,,,,,,,,,,,,,,,,,,,,,,,,,,,,,,,,,,,,,,,,,,,,,,,,,,,,,,,,,,,,,,,,,,,,,,,,,,,,,,,,,,,,,
0,88,88,11,1,,612c95f4a142b9dc63cc45a0,62c53a4980569701d2f2d381,2022-07-06_09h29.49.531,Colour_Asymmetry_Pilot,2022.1.3,Win32,59.75143403,62c50e9c1127f2cd403a315f,,,,,,,,,,,,,,,,,,,,,,,,,,,,,,,,,,,,,,,,,,,,,,,,,,,,,,,,,,,,,,,,,,,,,,,,,,,,,,,,,,,,,,,,,,,,,,,,,,,,,,,,,,,,,,,,,,,,,,,,,,,,,,,,,,,,,,,,,,,,,,,,,,,,,,,,,,,,,,,,,,,
0,89,89,59,1,,612c95f4a142b9dc63cc45a0,62c53a4980569701d2f2d381,2022-07-06_09h29.49.531,Colour_Asymmetry_Pilot,2022.1.3,Win32,59.75143403,62c50e9c1127f2cd403a315f,,,,,,,,,,,,,,,,,,,,,,,,,,,,,,,,,,,,,,,,,,,,,,,,,,,,,,,,,,,,,,,,,,,,,,,,,,,,,,,,,,,,,,,,,,,,,,,,,,,,,,,,,,,,,,,,,,,,,,,,,,,,,,,,,,,,,,,,,,,,,,,,,,,,,,,,,,,,,,,,,,,
0,90,90,65,1,,612c95f4a142b9dc63cc45a0,62c53a4980569701d2f2d381,2022-07-06_09h29.49.531,Colour_Asymmetry_Pilot,2022.1.3,Win32,59.75143403,62c50e9c1127f2cd403a315f,,,,,,,,,,,,,,,,,,,,,,,,,,,,,,,,,,,,,,,,,,,,,,,,,,,,,,,,,,,,,,,,,,,,,,,,,,,,,,,,,,,,,,,,,,,,,,,,,,,,,,,,,,,,,,,,,,,,,,,,,,,,,,,,,,,,,,,,,,,,,,,,,,,,,,,,,,,,,,,,,,,
0,91,91,30,1,,612c95f4a142b9dc63cc45a0,62c53a4980569701d2f2d381,2022-07-06_09h29.49.531,Colour_Asymmetry_Pilot,2022.1.3,Win32,59.75143403,62c50e9c1127f2cd403a315f,,,,,,,,,,,,,,,,,,,,,,,,,,,,,,,,,,,,,,,,,,,,,,,,,,,,,,,,,,,,,,,,,,,,,,,,,,,,,,,,,,,,,,,,,,,,,,,,,,,,,,,,,,,,,,,,,,,,,,,,,,,,,,,,,,,,,,,,,,,,,,,,,,,,,,,,,,,,,,,,,,,
0,92,92,25,1,,612c95f4a142b9dc63cc45a0,62c53a4980569701d2f2d381,2022-07-06_09h29.49.531,Colour_Asymmetry_Pilot,2022.1.3,Win32,59.75143403,62c50e9c1127f2cd403a315f,,,,,,,,,,,,,,,,,,,,,,,,,,,,,,,,,,,,,,,,,,,,,,,,,,,,,,,,,,,,,,,,,,,,,,,,,,,,,,,,,,,,,,,,,,,,,,,,,,,,,,,,,,,,,,,,,,,,,,,,,,,,,,,,,,,,,,,,,,,,,,,,,,,,,,,,,,,,,,,,,,,
,,,,,,612c95f4a142b9dc63cc45a0,62c53a4980569701d2f2d381,2022-07-06_09h29.49.531,Colour_Asymmetry_Pilot,2022.1.3,Win32,59.75143403,62c50e9c1127f2cd403a315f,0,0,0,68,1,threeone,,,,,,,,,,,,,,,,,,,,,,,,,,,,,,,,,,,,,,,,,,,,,,,,,,,,,,,,,,,,,,,,,,,,,,,,,,,,,,,,,,,,,,,,,,,,,,,,,,,,,,,,,,,,,,,,,,,,,,,,,,,,,,,,,,,,,,,,,,,,,,,,,,,,,,,,,,,,,
,,,,,,612c95f4a142b9dc63cc45a0,62c53a4980569701d2f2d381,2022-07-06_09h29.49.531,Colour_Asymmetry_Pilot,2022.1.3,Win32,59.75143403,62c50e9c1127f2cd403a315f,0,1,1,120,1,onetwo,,,,,,,,,,,,,,,,,,,,,,,,,,,,,,,,,,,,,,,,,,,,,,,,,,,,,,,,,,,,,,,,,,,,,,,,,,,,,,,,,,,,,,,,,,,,,,,,,,,,,,,,,,,,,,,,,,,,,,,,,,,,,,,,,,,,,,,,,,,,,,,,,,,,,,,,,,,,,
,,,,,,612c95f4a142b9dc63cc45a0,62c53a4980569701d2f2d381,2022-07-06_09h29.49.531,Colour_Asymmetry_Pilot,2022.1.3,Win32,59.75143403,62c50e9c1127f2cd403a315f,0,2,2,107,1,twofour,,,,,,,,,,,,,,,,,,,,,,,,,,,,,,,,,,,,,,,,,,,,,,,,,,,,,,,,,,,,,,,,,,,,,,,,,,,,,,,,,,,,,,,,,,,,,,,,,,,,,,,,,,,,,,,,,,,,,,,,,,,,,,,,,,,,,,,,,,,,,,,,,,,,,,,,,,,,,
,,,,,,612c95f4a142b9dc63cc45a0,62c53a4980569701d2f2d381,2022-07-06_09h29.49.531,Colour_Asymmetry_Pilot,2022.1.3,Win32,59.75143403,62c50e9c1127f2cd403a315f,0,3,3,10,1,twoone,,,,,,,,,,,,,,,,,,,,,,,,,,,,,,,,,,,,,,,,,,,,,,,,,,,,,,,,,,,,,,,,,,,,,,,,,,,,,,,,,,,,,,,,,,,,,,,,,,,,,,,,,,,,,,,,,,,,,,,,,,,,,,,,,,,,,,,,,,,,,,,,,,,,,,,,,,,,,
,,,,,,612c95f4a142b9dc63cc45a0,62c53a4980569701d2f2d381,2022-07-06_09h29.49.531,Colour_Asymmetry_Pilot,2022.1.3,Win32,59.75143403,62c50e9c1127f2cd403a315f,0,4,4,70,1,fourtwo,,,,,,,,,,,,,,,,,,,,,,,,,,,,,,,,,,,,,,,,,,,,,,,,,,,,,,,,,,,,,,,,,,,,,,,,,,,,,,,,,,,,,,,,,,,,,,,,,,,,,,,,,,,,,,,,,,,,,,,,,,,,,,,,,,,,,,,,,,,,,,,,,,,,,,,,,,,,,
,,,,,,612c95f4a142b9dc63cc45a0,62c53a4980569701d2f2d381,2022-07-06_09h29.49.531,Colour_Asymmetry_Pilot,2022.1.3,Win32,59.75143403,62c50e9c1127f2cd403a315f,0,5,5,108,1,threeone,,,,,,,,,,,,,,,,,,,,,,,,,,,,,,,,,,,,,,,,,,,,,,,,,,,,,,,,,,,,,,,,,,,,,,,,,,,,,,,,,,,,,,,,,,,,,,,,,,,,,,,,,,,,,,,,,,,,,,,,,,,,,,,,,,,,,,,,,,,,,,,,,,,,,,,,,,,,,
,,,,,,612c95f4a142b9dc63cc45a0,62c53a4980569701d2f2d381,2022-07-06_09h29.49.531,Colour_Asymmetry_Pilot,2022.1.3,Win32,59.75143403,62c50e9c1127f2cd403a315f,0,6,6,131,1,twofour,,,,,,,,,,,,,,,,,,,,,,,,,,,,,,,,,,,,,,,,,,,,,,,,,,,,,,,,,,,,,,,,,,,,,,,,,,,,,,,,,,,,,,,,,,,,,,,,,,,,,,,,,,,,,,,,,,,,,,,,,,,,,,,,,,,,,,,,,,,,,,,,,,,,,,,,,,,,,
,,,,,,612c95f4a142b9dc63cc45a0,62c53a4980569701d2f2d381,2022-07-06_09h29.49.531,Colour_Asymmetry_Pilot,2022.1.3,Win32,59.75143403,62c50e9c1127f2cd403a315f,0,7,7,147,1,twofour,,,,,,,,,,,,,,,,,,,,,,,,,,,,,,,,,,,,,,,,,,,,,,,,,,,,,,,,,,,,,,,,,,,,,,,,,,,,,,,,,,,,,,,,,,,,,,,,,,,,,,,,,,,,,,,,,,,,,,,,,,,,,,,,,,,,,,,,,,,,,,,,,,,,,,,,,,,,,
,,,,,,612c95f4a142b9dc63cc45a0,62c53a4980569701d2f2d381,2022-07-06_09h29.49.531,Colour_Asymmetry_Pilot,2022.1.3,Win32,59.75143403,62c50e9c1127f2cd403a315f,0,8,8,129,1,onethree,,,,,,,,,,,,,,,,,,,,,,,,,,,,,,,,,,,,,,,,,,,,,,,,,,,,,,,,,,,,,,,,,,,,,,,,,,,,,,,,,,,,,,,,,,,,,,,,,,,,,,,,,,,,,,,,,,,,,,,,,,,,,,,,,,,,,,,,,,,,,,,,,,,,,,,,,,,,,
,,,,,,612c95f4a142b9dc63cc45a0,62c53a4980569701d2f2d381,2022-07-06_09h29.49.531,Colour_Asymmetry_Pilot,2022.1.3,Win32,59.75143403,62c50e9c1127f2cd403a315f,0,9,9,161,1,onethree,,,,,,,,,,,,,,,,,,,,,,,,,,,,,,,,,,,,,,,,,,,,,,,,,,,,,,,,,,,,,,,,,,,,,,,,,,,,,,,,,,,,,,,,,,,,,,,,,,,,,,,,,,,,,,,,,,,,,,,,,,,,,,,,,,,,,,,,,,,,,,,,,,,,,,,,,,,,,
,,,,,,612c95f4a142b9dc63cc45a0,62c53a4980569701d2f2d381,2022-07-06_09h29.49.531,Colour_Asymmetry_Pilot,2022.1.3,Win32,59.75143403,62c50e9c1127f2cd403a315f,0,10,10,27,1,twofour,,,,,,,,,,,,,,,,,,,,,,,,,,,,,,,,,,,,,,,,,,,,,,,,,,,,,,,,,,,,,,,,,,,,,,,,,,,,,,,,,,,,,,,,,,,,,,,,,,,,,,,,,,,,,,,,,,,,,,,,,,,,,,,,,,,,,,,,,,,,,,,,,,,,,,,,,,,,,
,,,,,,612c95f4a142b9dc63cc45a0,62c53a4980569701d2f2d381,2022-07-06_09h29.49.531,Colour_Asymmetry_Pilot,2022.1.3,Win32,59.75143403,62c50e9c1127f2cd403a315f,0,11,11,40,1,onetwo,,,,,,,,,,,,,,,,,,,,,,,,,,,,,,,,,,,,,,,,,,,,,,,,,,,,,,,,,,,,,,,,,,,,,,,,,,,,,,,,,,,,,,,,,,,,,,,,,,,,,,,,,,,,,,,,,,,,,,,,,,,,,,,,,,,,,,,,,,,,,,,,,,,,,,,,,,,,,
,,,,,,612c95f4a142b9dc63cc45a0,62c53a4980569701d2f2d381,2022-07-06_09h29.49.531,Colour_Asymmetry_Pilot,2022.1.3,Win32,59.75143403,62c50e9c1127f2cd403a315f,0,12,12,94,1,fourtwo,,,,,,,,,,,,,,,,,,,,,,,,,,,,,,,,,,,,,,,,,,,,,,,,,,,,,,,,,,,,,,,,,,,,,,,,,,,,,,,,,,,,,,,,,,,,,,,,,,,,,,,,,,,,,,,,,,,,,,,,,,,,,,,,,,,,,,,,,,,,,,,,,,,,,,,,,,,,,
,,,,,,612c95f4a142b9dc63cc45a0,62c53a4980569701d2f2d381,2022-07-06_09h29.49.531,Colour_Asymmetry_Pilot,2022.1.3,Win32,59.75143403,62c50e9c1127f2cd403a315f,0,13,13,57,1,onethree,,,,,,,,,,,,,,,,,,,,,,,,,,,,,,,,,,,,,,,,,,,,,,,,,,,,,,,,,,,,,,,,,,,,,,,,,,,,,,,,,,,,,,,,,,,,,,,,,,,,,,,,,,,,,,,,,,,,,,,,,,,,,,,,,,,,,,,,,,,,,,,,,,,,,,,,,,,,,
,,,,,,612c95f4a142b9dc63cc45a0,62c53a4980569701d2f2d381,2022-07-06_09h29.49.531,Colour_Asymmetry_Pilot,2022.1.3,Win32,59.75143403,62c50e9c1127f2cd403a315f,0,14,14,73,1,onethree,,,,,,,,,,,,,,,,,,,,,,,,,,,,,,,,,,,,,,,,,,,,,,,,,,,,,,,,,,,,,,,,,,,,,,,,,,,,,,,,,,,,,,,,,,,,,,,,,,,,,,,,,,,,,,,,,,,,,,,,,,,,,,,,,,,,,,,,,,,,,,,,,,,,,,,,,,,,,
,,,,,,612c95f4a142b9dc63cc45a0,62c53a4980569701d2f2d381,2022-07-06_09h29.49.531,Colour_Asymmetry_Pilot,2022.1.3,Win32,59.75143403,62c50e9c1127f2cd403a315f,0,15,15,71,1,fourthree,,,,,,,,,,,,,,,,,,,,,,,,,,,,,,,,,,,,,,,,,,,,,,,,,,,,,,,,,,,,,,,,,,,,,,,,,,,,,,,,,,,,,,,,,,,,,,,,,,,,,,,,,,,,,,,,,,,,,,,,,,,,,,,,,,,,,,,,,,,,,,,,,,,,,,,,,,,,,
,,,,,,612c95f4a142b9dc63cc45a0,62c53a4980569701d2f2d381,2022-07-06_09h29.49.531,Colour_Asymmetry_Pilot,2022.1.3,Win32,59.75143403,62c50e9c1127f2cd403a315f,0,16,16,137,1,onethree,,,,,,,,,,,,,,,,,,,,,,,,,,,,,,,,,,,,,,,,,,,,,,,,,,,,,,,,,,,,,,,,,,,,,,,,,,,,,,,,,,,,,,,,,,,,,,,,,,,,,,,,,,,,,,,,,,,,,,,,,,,,,,,,,,,,,,,,,,,,,,,,,,,,,,,,,,,,,
,,,,,,612c95f4a142b9dc63cc45a0,62c53a4980569701d2f2d381,2022-07-06_09h29.49.531,Colour_Asymmetry_Pilot,2022.1.3,Win32,59.75143403,62c50e9c1127f2cd403a315f,0,17,17,41,1,onethree,,,,,,,,,,,,,,,,,,,,,,,,,,,,,,,,,,,,,,,,,,,,,,,,,,,,,,,,,,,,,,,,,,,,,,,,,,,,,,,,,,,,,,,,,,,,,,,,,,,,,,,,,,,,,,,,,,,,,,,,,,,,,,,,,,,,,,,,,,,,,,,,,,,,,,,,,,,,,
,,,,,,612c95f4a142b9dc63cc45a0,62c53a4980569701d2f2d381,2022-07-06_09h29.49.531,Colour_Asymmetry_Pilot,2022.1.3,Win32,59.75143403,62c50e9c1127f2cd403a315f,0,18,18,37,1,threefour,,,,,,,,,,,,,,,,,,,,,,,,,,,,,,,,,,,,,,,,,,,,,,,,,,,,,,,,,,,,,,,,,,,,,,,,,,,,,,,,,,,,,,,,,,,,,,,,,,,,,,,,,,,,,,,,,,,,,,,,,,,,,,,,,,,,,,,,,,,,,,,,,,,,,,,,,,,,,
,,,,,,612c95f4a142b9dc63cc45a0,62c53a4980569701d2f2d381,2022-07-06_09h29.49.531,Colour_Asymmetry_Pilot,2022.1.3,Win32,59.75143403,62c50e9c1127f2cd403a315f,0,19,19,134,1,fourtwo,,,,,,,,,,,,,,,,,,,,,,,,,,,,,,,,,,,,,,,,,,,,,,,,,,,,,,,,,,,,,,,,,,,,,,,,,,,,,,,,,,,,,,,,,,,,,,,,,,,,,,,,,,,,,,,,,,,,,,,,,,,,,,,,,,,,,,,,,,,,,,,,,,,,,,,,,,,,,
,,,,,,612c95f4a142b9dc63cc45a0,62c53a4980569701d2f2d381,2022-07-06_09h29.49.531,Colour_Asymmetry_Pilot,2022.1.3,Win32,59.75143403,62c50e9c1127f2cd403a315f,0,20,20,49,1,onethree,,,,,,,,,,,,,,,,,,,,,,,,,,,,,,,,,,,,,,,,,,,,,,,,,,,,,,,,,,,,,,,,,,,,,,,,,,,,,,,,,,,,,,,,,,,,,,,,,,,,,,,,,,,,,,,,,,,,,,,,,,,,,,,,,,,,,,,,,,,,,,,,,,,,,,,,,,,,,
,,,,,,612c95f4a142b9dc63cc45a0,62c53a4980569701d2f2d381,2022-07-06_09h29.49.531,Colour_Asymmetry_Pilot,2022.1.3,Win32,59.75143403,62c50e9c1127f2cd403a315f,0,21,21,151,1,fourthree,,,,,,,,,,,,,,,,,,,,,,,,,,,,,,,,,,,,,,,,,,,,,,,,,,,,,,,,,,,,,,,,,,,,,,,,,,,,,,,,,,,,,,,,,,,,,,,,,,,,,,,,,,,,,,,,,,,,,,,,,,,,,,,,,,,,,,,,,,,,,,,,,,,,,,,,,,,,,
,,,,,,612c95f4a142b9dc63cc45a0,62c53a4980569701d2f2d381,2022-07-06_09h29.49.531,Colour_Asymmetry_Pilot,2022.1.3,Win32,59.75143403,62c50e9c1127f2cd403a315f,0,22,22,85,1,threefour,,,,,,,,,,,,,,,,,,,,,,,,,,,,,,,,,,,,,,,,,,,,,,,,,,,,,,,,,,,,,,,,,,,,,,,,,,,,,,,,,,,,,,,,,,,,,,,,,,,,,,,,,,,,,,,,,,,,,,,,,,,,,,,,,,,,,,,,,,,,,,,,,,,,,,,,,,,,,
,,,,,,612c95f4a142b9dc63cc45a0,62c53a4980569701d2f2d381,2022-07-06_09h29.49.531,Colour_Asymmetry_Pilot,2022.1.3,Win32,59.75143403,62c50e9c1127f2cd403a315f,0,23,23,141,1,threefour,,,,,,,,,,,,,,,,,,,,,,,,,,,,,,,,,,,,,,,,,,,,,,,,,,,,,,,,,,,,,,,,,,,,,,,,,,,,,,,,,,,,,,,,,,,,,,,,,,,,,,,,,,,,,,,,,,,,,,,,,,,,,,,,,,,,,,,,,,,,,,,,,,,,,,,,,,,,,
,,,,,,612c95f4a142b9dc63cc45a0,62c53a4980569701d2f2d381,2022-07-06_09h29.49.531,Colour_Asymmetry_Pilot,2022.1.3,Win32,59.75143403,62c50e9c1127f2cd403a315f,0,24,24,48,1,onetwo,,,,,,,,,,,,,,,,,,,,,,,,,,,,,,,,,,,,,,,,,,,,,,,,,,,,,,,,,,,,,,,,,,,,,,,,,,,,,,,,,,,,,,,,,,,,,,,,,,,,,,,,,,,,,,,,,,,,,,,,,,,,,,,,,,,,,,,,,,,,,,,,,,,,,,,,,,,,,
,,,,,,612c95f4a142b9dc63cc45a0,62c53a4980569701d2f2d381,2022-07-06_09h29.49.531,Colour_Asymmetry_Pilot,2022.1.3,Win32,59.75143403,62c50e9c1127f2cd403a315f,0,25,25,47,1,fourthree,,,,,,,,,,,,,,,,,,,,,,,,,,,,,,,,,,,,,,,,,,,,,,,,,,,,,,,,,,,,,,,,,,,,,,,,,,,,,,,,,,,,,,,,,,,,,,,,,,,,,,,,,,,,,,,,,,,,,,,,,,,,,,,,,,,,,,,,,,,,,,,,,,,,,,,,,,,,,
,,,,,,612c95f4a142b9dc63cc45a0,62c53a4980569701d2f2d381,2022-07-06_09h29.49.531,Colour_Asymmetry_Pilot,2022.1.3,Win32,59.75143403,62c50e9c1127f2cd403a315f,0,26,26,65,1,onethree,,,,,,,,,,,,,,,,,,,,,,,,,,,,,,,,,,,,,,,,,,,,,,,,,,,,,,,,,,,,,,,,,,,,,,,,,,,,,,,,,,,,,,,,,,,,,,,,,,,,,,,,,,,,,,,,,,,,,,,,,,,,,,,,,,,,,,,,,,,,,,,,,,,,,,,,,,,,,
,,,,,,612c95f4a142b9dc63cc45a0,62c53a4980569701d2f2d381,2022-07-06_09h29.49.531,Colour_Asymmetry_Pilot,2022.1.3,Win32,59.75143403,62c50e9c1127f2cd403a315f,0,27,27,149,1,threefour,,,,,,,,,,,,,,,,,,,,,,,,,,,,,,,,,,,,,,,,,,,,,,,,,,,,,,,,,,,,,,,,,,,,,,,,,,,,,,,,,,,,,,,,,,,,,,,,,,,,,,,,,,,,,,,,,,,,,,,,,,,,,,,,,,,,,,,,,,,,,,,,,,,,,,,,,,,,,
,,,,,,612c95f4a142b9dc63cc45a0,62c53a4980569701d2f2d381,2022-07-06_09h29.49.531,Colour_Asymmetry_Pilot,2022.1.3,Win32,59.75143403,62c50e9c1127f2cd403a315f,0,28,28,143,1,fourthree,,,,,,,,,,,,,,,,,,,,,,,,,,,,,,,,,,,,,,,,,,,,,,,,,,,,,,,,,,,,,,,,,,,,,,,,,,,,,,,,,,,,,,,,,,,,,,,,,,,,,,,,,,,,,,,,,,,,,,,,,,,,,,,,,,,,,,,,,,,,,,,,,,,,,,,,,,,,,
,,,,,,612c95f4a142b9dc63cc45a0,62c53a4980569701d2f2d381,2022-07-06_09h29.49.531,Colour_Asymmetry_Pilot,2022.1.3,Win32,59.75143403,62c50e9c1127f2cd403a315f,0,29,29,77,1,threefour,,,,,,,,,,,,,,,,,,,,,,,,,,,,,,,,,,,,,,,,,,,,,,,,,,,,,,,,,,,,,,,,,,,,,,,,,,,,,,,,,,,,,,,,,,,,,,,,,,,,,,,,,,,,,,,,,,,,,,,,,,,,,,,,,,,,,,,,,,,,,,,,,,,,,,,,,,,,,
,,,,,,612c95f4a142b9dc63cc45a0,62c53a4980569701d2f2d381,2022-07-06_09h29.49.531,Colour_Asymmetry_Pilot,2022.1.3,Win32,59.75143403,62c50e9c1127f2cd403a315f,0,30,30,9,1,onethree,,,,,,,,,,,,,,,,,,,,,,,,,,,,,,,,,,,,,,,,,,,,,,,,,,,,,,,,,,,,,,,,,,,,,,,,,,,,,,,,,,,,,,,,,,,,,,,,,,,,,,,,,,,,,,,,,,,,,,,,,,,,,,,,,,,,,,,,,,,,,,,,,,,,,,,,,,,,,
,,,,,,612c95f4a142b9dc63cc45a0,62c53a4980569701d2f2d381,2022-07-06_09h29.49.531,Colour_Asymmetry_Pilot,2022.1.3,Win32,59.75143403,62c50e9c1127f2cd403a315f,0,31,31,130,1,twoone,,,,,,,,,,,,,,,,,,,,,,,,,,,,,,,,,,,,,,,,,,,,,,,,,,,,,,,,,,,,,,,,,,,,,,,,,,,,,,,,,,,,,,,,,,,,,,,,,,,,,,,,,,,,,,,,,,,,,,,,,,,,,,,,,,,,,,,,,,,,,,,,,,,,,,,,,,,,,
,,,,,,612c95f4a142b9dc63cc45a0,62c53a4980569701d2f2d381,2022-07-06_09h29.49.531,Colour_Asymmetry_Pilot,2022.1.3,Win32,59.75143403,62c50e9c1127f2cd403a315f,0,32,32,50,1,twoone,,,,,,,,,,,,,,,,,,,,,,,,,,,,,,,,,,,,,,,,,,,,,,,,,,,,,,,,,,,,,,,,,,,,,,,,,,,,,,,,,,,,,,,,,,,,,,,,,,,,,,,,,,,,,,,,,,,,,,,,,,,,,,,,,,,,,,,,,,,,,,,,,,,,,,,,,,,,,
,,,,,,612c95f4a142b9dc63cc45a0,62c53a4980569701d2f2d381,2022-07-06_09h29.49.531,Colour_Asymmetry_Pilot,2022.1.3,Win32,59.75143403,62c50e9c1127f2cd403a315f,0,33,33,109,1,threefour,,,,,,,,,,,,,,,,,,,,,,,,,,,,,,,,,,,,,,,,,,,,,,,,,,,,,,,,,,,,,,,,,,,,,,,,,,,,,,,,,,,,,,,,,,,,,,,,,,,,,,,,,,,,,,,,,,,,,,,,,,,,,,,,,,,,,,,,,,,,,,,,,,,,,,,,,,,,,
,,,,,,612c95f4a142b9dc63cc45a0,62c53a4980569701d2f2d381,2022-07-06_09h29.49.531,Colour_Asymmetry_Pilot,2022.1.3,Win32,59.75143403,62c50e9c1127f2cd403a315f,0,34,34,114,1,twoone,,,,,,,,,,,,,,,,,,,,,,,,,,,,,,,,,,,,,,,,,,,,,,,,,,,,,,,,,,,,,,,,,,,,,,,,,,,,,,,,,,,,,,,,,,,,,,,,,,,,,,,,,,,,,,,,,,,,,,,,,,,,,,,,,,,,,,,,,,,,,,,,,,,,,,,,,,,,,
,,,,,,612c95f4a142b9dc63cc45a0,62c53a4980569701d2f2d381,2022-07-06_09h29.49.531,Colour_Asymmetry_Pilot,2022.1.3,Win32,59.75143403,62c50e9c1127f2cd403a315f,0,35,35,18,1,twoone,,,,,,,,,,,,,,,,,,,,,,,,,,,,,,,,,,,,,,,,,,,,,,,,,,,,,,,,,,,,,,,,,,,,,,,,,,,,,,,,,,,,,,,,,,,,,,,,,,,,,,,,,,,,,,,,,,,,,,,,,,,,,,,,,,,,,,,,,,,,,,,,,,,,,,,,,,,,,
,,,,,,612c95f4a142b9dc63cc45a0,62c53a4980569701d2f2d381,2022-07-06_09h29.49.531,Colour_Asymmetry_Pilot,2022.1.3,Win32,59.75143403,62c50e9c1127f2cd403a315f,0,36,36,156,1,threeone,,,,,,,,,,,,,,,,,,,,,,,,,,,,,,,,,,,,,,,,,,,,,,,,,,,,,,,,,,,,,,,,,,,,,,,,,,,,,,,,,,,,,,,,,,,,,,,,,,,,,,,,,,,,,,,,,,,,,,,,,,,,,,,,,,,,,,,,,,,,,,,,,,,,,,,,,,,,,
,,,,,,612c95f4a142b9dc63cc45a0,62c53a4980569701d2f2d381,2022-07-06_09h29.49.531,Colour_Asymmetry_Pilot,2022.1.3,Win32,59.75143403,62c50e9c1127f2cd403a315f,0,37,37,138,1,twoone,,,,,,,,,,,,,,,,,,,,,,,,,,,,,,,,,,,,,,,,,,,,,,,,,,,,,,,,,,,,,,,,,,,,,,,,,,,,,,,,,,,,,,,,,,,,,,,,,,,,,,,,,,,,,,,,,,,,,,,,,,,,,,,,,,,,,,,,,,,,,,,,,,,,,,,,,,,,,
,,,,,,612c95f4a142b9dc63cc45a0,62c53a4980569701d2f2d381,2022-07-06_09h29.49.531,Colour_Asymmetry_Pilot,2022.1.3,Win32,59.75143403,62c50e9c1127f2cd403a315f,0,38,38,121,1,onethree,,,,,,,,,,,,,,,,,,,,,,,,,,,,,,,,,,,,,,,,,,,,,,,,,,,,,,,,,,,,,,,,,,,,,,,,,,,,,,,,,,,,,,,,,,,,,,,,,,,,,,,,,,,,,,,,,,,,,,,,,,,,,,,,,,,,,,,,,,,,,,,,,,,,,,,,,,,,,
,,,,,,612c95f4a142b9dc63cc45a0,62c53a4980569701d2f2d381,2022-07-06_09h29.49.531,Colour_Asymmetry_Pilot,2022.1.3,Win32,59.75143403,62c50e9c1127f2cd403a315f,0,39,39,72,1,onetwo,,,,,,,,,,,,,,,,,,,,,,,,,,,,,,,,,,,,,,,,,,,,,,,,,,,,,,,,,,,,,,,,,,,,,,,,,,,,,,,,,,,,,,,,,,,,,,,,,,,,,,,,,,,,,,,,,,,,,,,,,,,,,,,,,,,,,,,,,,,,,,,,,,,,,,,,,,,,,
,,,,,,612c95f4a142b9dc63cc45a0,62c53a4980569701d2f2d381,2022-07-06_09h29.49.531,Colour_Asymmetry_Pilot,2022.1.3,Win32,59.75143403,62c50e9c1127f2cd403a315f,0,40,40,159,1,fourthree,,,,,,,,,,,,,,,,,,,,,,,,,,,,,,,,,,,,,,,,,,,,,,,,,,,,,,,,,,,,,,,,,,,,,,,,,,,,,,,,,,,,,,,,,,,,,,,,,,,,,,,,,,,,,,,,,,,,,,,,,,,,,,,,,,,,,,,,,,,,,,,,,,,,,,,,,,,,,
,,,,,,612c95f4a142b9dc63cc45a0,62c53a4980569701d2f2d381,2022-07-06_09h29.49.531,Colour_Asymmetry_Pilot,2022.1.3,Win32,59.75143403,62c50e9c1127f2cd403a315f,0,41,41,144,1,onetwo,,,,,,,,,,,,,,,,,,,,,,,,,,,,,,,,,,,,,,,,,,,,,,,,,,,,,,,,,,,,,,,,,,,,,,,,,,,,,,,,,,,,,,,,,,,,,,,,,,,,,,,,,,,,,,,,,,,,,,,,,,,,,,,,,,,,,,,,,,,,,,,,,,,,,,,,,,,,,
,,,,,,612c95f4a142b9dc63cc45a0,62c53a4980569701d2f2d381,2022-07-06_09h29.49.531,Colour_Asymmetry_Pilot,2022.1.3,Win32,59.75143403,62c50e9c1127f2cd403a315f,0,42,42,52,1,threeone,,,,,,,,,,,,,,,,,,,,,,,,,,,,,,,,,,,,,,,,,,,,,,,,,,,,,,,,,,,,,,,,,,,,,,,,,,,,,,,,,,,,,,,,,,,,,,,,,,,,,,,,,,,,,,,,,,,,,,,,,,,,,,,,,,,,,,,,,,,,,,,,,,,,,,,,,,,,,
,,,,,,612c95f4a142b9dc63cc45a0,62c53a4980569701d2f2d381,2022-07-06_09h29.49.531,Colour_Asymmetry_Pilot,2022.1.3,Win32,59.75143403,62c50e9c1127f2cd403a315f,0,43,43,64,1,onetwo,,,,,,,,,,,,,,,,,,,,,,,,,,,,,,,,,,,,,,,,,,,,,,,,,,,,,,,,,,,,,,,,,,,,,,,,,,,,,,,,,,,,,,,,,,,,,,,,,,,,,,,,,,,,,,,,,,,,,,,,,,,,,,,,,,,,,,,,,,,,,,,,,,,,,,,,,,,,,
,,,,,,612c95f4a142b9dc63cc45a0,62c53a4980569701d2f2d381,2022-07-06_09h29.49.531,Colour_Asymmetry_Pilot,2022.1.3,Win32,59.75143403,62c50e9c1127f2cd403a315f,0,44,44,2,1,twoone,,,,,,,,,,,,,,,,,,,,,,,,,,,,,,,,,,,,,,,,,,,,,,,,,,,,,,,,,,,,,,,,,,,,,,,,,,,,,,,,,,,,,,,,,,,,,,,,,,,,,,,,,,,,,,,,,,,,,,,,,,,,,,,,,,,,,,,,,,,,,,,,,,,,,,,,,,,,,
,,,,,,612c95f4a142b9dc63cc45a0,62c53a4980569701d2f2d381,2022-07-06_09h29.49.531,Colour_Asymmetry_Pilot,2022.1.3,Win32,59.75143403,62c50e9c1127f2cd403a315f,0,45,45,126,1,fourtwo,,,,,,,,,,,,,,,,,,,,,,,,,,,,,,,,,,,,,,,,,,,,,,,,,,,,,,,,,,,,,,,,,,,,,,,,,,,,,,,,,,,,,,,,,,,,,,,,,,,,,,,,,,,,,,,,,,,,,,,,,,,,,,,,,,,,,,,,,,,,,,,,,,,,,,,,,,,,,
,,,,,,612c95f4a142b9dc63cc45a0,62c53a4980569701d2f2d381,2022-07-06_09h29.49.531,Colour_Asymmetry_Pilot,2022.1.3,Win32,59.75143403,62c50e9c1127f2cd403a315f,0,46,46,12,1,threeone,,,,,,,,,,,,,,,,,,,,,,,,,,,,,,,,,,,,,,,,,,,,,,,,,,,,,,,,,,,,,,,,,,,,,,,,,,,,,,,,,,,,,,,,,,,,,,,,,,,,,,,,,,,,,,,,,,,,,,,,,,,,,,,,,,,,,,,,,,,,,,,,,,,,,,,,,,,,,
,,,,,,612c95f4a142b9dc63cc45a0,62c53a4980569701d2f2d381,2022-07-06_09h29.49.531,Colour_Asymmetry_Pilot,2022.1.3,Win32,59.75143403,62c50e9c1127f2cd403a315f,0,47,47,6,1,fourtwo,,,,,,,,,,,,,,,,,,,,,,,,,,,,,,,,,,,,,,,,,,,,,,,,,,,,,,,,,,,,,,,,,,,,,,,,,,,,,,,,,,,,,,,,,,,,,,,,,,,,,,,,,,,,,,,,,,,,,,,,,,,,,,,,,,,,,,,,,,,,,,,,,,,,,,,,,,,,,
,,,,,,612c95f4a142b9dc63cc45a0,62c53a4980569701d2f2d381,2022-07-06_09h29.49.531,Colour_Asymmetry_Pilot,2022.1.3,Win32,59.75143403,62c50e9c1127f2cd403a315f,0,48,48,125,1,threefour,,,,,,,,,,,,,,,,,,,,,,,,,,,,,,,,,,,,,,,,,,,,,,,,,,,,,,,,,,,,,,,,,,,,,,,,,,,,,,,,,,,,,,,,,,,,,,,,,,,,,,,,,,,,,,,,,,,,,,,,,,,,,,,,,,,,,,,,,,,,,,,,,,,,,,,,,,,,,
,,,,,,612c95f4a142b9dc63cc45a0,62c53a4980569701d2f2d381,2022-07-06_09h29.49.531,Colour_Asymmetry_Pilot,2022.1.3,Win32,59.75143403,62c50e9c1127f2cd403a315f,0,49,49,5,1,threefour,,,,,,,,,,,,,,,,,,,,,,,,,,,,,,,,,,,,,,,,,,,,,,,,,,,,,,,,,,,,,,,,,,,,,,,,,,,,,,,,,,,,,,,,,,,,,,,,,,,,,,,,,,,,,,,,,,,,,,,,,,,,,,,,,,,,,,,,,,,,,,,,,,,,,,,,,,,,,
,,,,,,612c95f4a142b9dc63cc45a0,62c53a4980569701d2f2d381,2022-07-06_09h29.49.531,Colour_Asymmetry_Pilot,2022.1.3,Win32,59.75143403,62c50e9c1127f2cd403a315f,0,50,50,58,1,twoone,,,,,,,,,,,,,,,,,,,,,,,,,,,,,,,,,,,,,,,,,,,,,,,,,,,,,,,,,,,,,,,,,,,,,,,,,,,,,,,,,,,,,,,,,,,,,,,,,,,,,,,,,,,,,,,,,,,,,,,,,,,,,,,,,,,,,,,,,,,,,,,,,,,,,,,,,,,,,
,,,,,,612c95f4a142b9dc63cc45a0,62c53a4980569701d2f2d381,2022-07-06_09h29.49.531,Colour_Asymmetry_Pilot,2022.1.3,Win32,59.75143403,62c50e9c1127f2cd403a315f,0,51,51,106,1,twoone,,,,,,,,,,,,,,,,,,,,,,,,,,,,,,,,,,,,,,,,,,,,,,,,,,,,,,,,,,,,,,,,,,,,,,,,,,,,,,,,,,,,,,,,,,,,,,,,,,,,,,,,,,,,,,,,,,,,,,,,,,,,,,,,,,,,,,,,,,,,,,,,,,,,,,,,,,,,,
,,,,,,612c95f4a142b9dc63cc45a0,62c53a4980569701d2f2d381,2022-07-06_09h29.49.531,Colour_Asymmetry_Pilot,2022.1.3,Win32,59.75143403,62c50e9c1127f2cd403a315f,0,52,52,20,1,threeone,,,,,,,,,,,,,,,,,,,,,,,,,,,,,,,,,,,,,,,,,,,,,,,,,,,,,,,,,,,,,,,,,,,,,,,,,,,,,,,,,,,,,,,,,,,,,,,,,,,,,,,,,,,,,,,,,,,,,,,,,,,,,,,,,,,,,,,,,,,,,,,,,,,,,,,,,,,,,
,,,,,,612c95f4a142b9dc63cc45a0,62c53a4980569701d2f2d381,2022-07-06_09h29.49.531,Colour_Asymmetry_Pilot,2022.1.3,Win32,59.75143403,62c50e9c1127f2cd403a315f,0,53,53,26,1,twoone,,,,,,,,,,,,,,,,,,,,,,,,,,,,,,,,,,,,,,,,,,,,,,,,,,,,,,,,,,,,,,,,,,,,,,,,,,,,,,,,,,,,,,,,,,,,,,,,,,,,,,,,,,,,,,,,,,,,,,,,,,,,,,,,,,,,,,,,,,,,,,,,,,,,,,,,,,,,,
,,,,,,612c95f4a142b9dc63cc45a0,62c53a4980569701d2f2d381,2022-07-06_09h29.49.531,Colour_Asymmetry_Pilot,2022.1.3,Win32,59.75143403,62c50e9c1127f2cd403a315f,0,54,54,56,1,onetwo,,,,,,,,,,,,,,,,,,,,,,,,,,,,,,,,,,,,,,,,,,,,,,,,,,,,,,,,,,,,,,,,,,,,,,,,,,,,,,,,,,,,,,,,,,,,,,,,,,,,,,,,,,,,,,,,,,,,,,,,,,,,,,,,,,,,,,,,,,,,,,,,,,,,,,,,,,,,,
,,,,,,612c95f4a142b9dc63cc45a0,62c53a4980569701d2f2d381,2022-07-06_09h29.49.531,Colour_Asymmetry_Pilot,2022.1.3,Win32,59.75143403,62c50e9c1127f2cd403a315f,0,55,55,92,1,threeone,,,,,,,,,,,,,,,,,,,,,,,,,,,,,,,,,,,,,,,,,,,,,,,,,,,,,,,,,,,,,,,,,,,,,,,,,,,,,,,,,,,,,,,,,,,,,,,,,,,,,,,,,,,,,,,,,,,,,,,,,,,,,,,,,,,,,,,,,,,,,,,,,,,,,,,,,,,,,
,,,,,,612c95f4a142b9dc63cc45a0,62c53a4980569701d2f2d381,2022-07-06_09h29.49.531,Colour_Asymmetry_Pilot,2022.1.3,Win32,59.75143403,62c50e9c1127f2cd403a315f,0,56,56,46,1,fourtwo,,,,,,,,,,,,,,,,,,,,,,,,,,,,,,,,,,,,,,,,,,,,,,,,,,,,,,,,,,,,,,,,,,,,,,,,,,,,,,,,,,,,,,,,,,,,,,,,,,,,,,,,,,,,,,,,,,,,,,,,,,,,,,,,,,,,,,,,,,,,,,,,,,,,,,,,,,,,,
,,,,,,612c95f4a142b9dc63cc45a0,62c53a4980569701d2f2d381,2022-07-06_09h29.49.531,Colour_Asymmetry_Pilot,2022.1.3,Win32,59.75143403,62c50e9c1127f2cd403a315f,0,57,57,16,1,onetwo,,,,,,,,,,,,,,,,,,,,,,,,,,,,,,,,,,,,,,,,,,,,,,,,,,,,,,,,,,,,,,,,,,,,,,,,,,,,,,,,,,,,,,,,,,,,,,,,,,,,,,,,,,,,,,,,,,,,,,,,,,,,,,,,,,,,,,,,,,,,,,,,,,,,,,,,,,,,,
,,,,,,612c95f4a142b9dc63cc45a0,62c53a4980569701d2f2d381,2022-07-06_09h29.49.531,Colour_Asymmetry_Pilot,2022.1.3,Win32,59.75143403,62c50e9c1127f2cd403a315f,0,58,58,87,1,fourthree,,,,,,,,,,,,,,,,,,,,,,,,,,,,,,,,,,,,,,,,,,,,,,,,,,,,,,,,,,,,,,,,,,,,,,,,,,,,,,,,,,,,,,,,,,,,,,,,,,,,,,,,,,,,,,,,,,,,,,,,,,,,,,,,,,,,,,,,,,,,,,,,,,,,,,,,,,,,,
,,,,,,612c95f4a142b9dc63cc45a0,62c53a4980569701d2f2d381,2022-07-06_09h29.49.531,Colour_Asymmetry_Pilot,2022.1.3,Win32,59.75143403,62c50e9c1127f2cd403a315f,0,59,59,160,1,onetwo,,,,,,,,,,,,,,,,,,,,,,,,,,,,,,,,,,,,,,,,,,,,,,,,,,,,,,,,,,,,,,,,,,,,,,,,,,,,,,,,,,,,,,,,,,,,,,,,,,,,,,,,,,,,,,,,,,,,,,,,,,,,,,,,,,,,,,,,,,,,,,,,,,,,,,,,,,,,,
,,,,,,612c95f4a142b9dc63cc45a0,62c53a4980569701d2f2d381,2022-07-06_09h29.49.531,Colour_Asymmetry_Pilot,2022.1.3,Win32,59.75143403,62c50e9c1127f2cd403a315f,0,60,60,78,1,fourtwo,,,,,,,,,,,,,,,,,,,,,,,,,,,,,,,,,,,,,,,,,,,,,,,,,,,,,,,,,,,,,,,,,,,,,,,,,,,,,,,,,,,,,,,,,,,,,,,,,,,,,,,,,,,,,,,,,,,,,,,,,,,,,,,,,,,,,,,,,,,,,,,,,,,,,,,,,,,,,
,,,,,,612c95f4a142b9dc63cc45a0,62c53a4980569701d2f2d381,2022-07-06_09h29.49.531,Colour_Asymmetry_Pilot,2022.1.3,Win32,59.75143403,62c50e9c1127f2cd403a315f,0,61,61,79,1,fourthree,,,,,,,,,,,,,,,,,,,,,,,,,,,,,,,,,,,,,,,,,,,,,,,,,,,,,,,,,,,,,,,,,,,,,,,,,,,,,,,,,,,,,,,,,,,,,,,,,,,,,,,,,,,,,,,,,,,,,,,,,,,,,,,,,,,,,,,,,,,,,,,,,,,,,,,,,,,,,
,,,,,,612c95f4a142b9dc63cc45a0,62c53a4980569701d2f2d381,2022-07-06_09h29.49.531,Colour_Asymmetry_Pilot,2022.1.3,Win32,59.75143403,62c50e9c1127f2cd403a315f,0,62,62,133,1,threefour,,,,,,,,,,,,,,,,,,,,,,,,,,,,,,,,,,,,,,,,,,,,,,,,,,,,,,,,,,,,,,,,,,,,,,,,,,,,,,,,,,,,,,,,,,,,,,,,,,,,,,,,,,,,,,,,,,,,,,,,,,,,,,,,,,,,,,,,,,,,,,,,,,,,,,,,,,,,,
,,,,,,612c95f4a142b9dc63cc45a0,62c53a4980569701d2f2d381,2022-07-06_09h29.49.531,Colour_Asymmetry_Pilot,2022.1.3,Win32,59.75143403,62c50e9c1127f2cd403a315f,0,63,63,110,1,fourtwo,,,,,,,,,,,,,,,,,,,,,,,,,,,,,,,,,,,,,,,,,,,,,,,,,,,,,,,,,,,,,,,,,,,,,,,,,,,,,,,,,,,,,,,,,,,,,,,,,,,,,,,,,,,,,,,,,,,,,,,,,,,,,,,,,,,,,,,,,,,,,,,,,,,,,,,,,,,,,
,,,,,,612c95f4a142b9dc63cc45a0,62c53a4980569701d2f2d381,2022-07-06_09h29.49.531,Colour_Asymmetry_Pilot,2022.1.3,Win32,59.75143403,62c50e9c1127f2cd403a315f,0,64,64,154,1,twoone,,,,,,,,,,,,,,,,,,,,,,,,,,,,,,,,,,,,,,,,,,,,,,,,,,,,,,,,,,,,,,,,,,,,,,,,,,,,,,,,,,,,,,,,,,,,,,,,,,,,,,,,,,,,,,,,,,,,,,,,,,,,,,,,,,,,,,,,,,,,,,,,,,,,,,,,,,,,,
,,,,,,612c95f4a142b9dc63cc45a0,62c53a4980569701d2f2d381,2022-07-06_09h29.49.531,Colour_Asymmetry_Pilot,2022.1.3,Win32,59.75143403,62c50e9c1127f2cd403a315f,0,65,65,136,1,onetwo,,,,,,,,,,,,,,,,,,,,,,,,,,,,,,,,,,,,,,,,,,,,,,,,,,,,,,,,,,,,,,,,,,,,,,,,,,,,,,,,,,,,,,,,,,,,,,,,,,,,,,,,,,,,,,,,,,,,,,,,,,,,,,,,,,,,,,,,,,,,,,,,,,,,,,,,,,,,,
,,,,,,612c95f4a142b9dc63cc45a0,62c53a4980569701d2f2d381,2022-07-06_09h29.49.531,Colour_Asymmetry_Pilot,2022.1.3,Win32,59.75143403,62c50e9c1127f2cd403a315f,0,66,66,132,1,threeone,,,,,,,,,,,,,,,,,,,,,,,,,,,,,,,,,,,,,,,,,,,,,,,,,,,,,,,,,,,,,,,,,,,,,,,,,,,,,,,,,,,,,,,,,,,,,,,,,,,,,,,,,,,,,,,,,,,,,,,,,,,,,,,,,,,,,,,,,,,,,,,,,,,,,,,,,,,,,
,,,,,,612c95f4a142b9dc63cc45a0,62c53a4980569701d2f2d381,2022-07-06_09h29.49.531,Colour_Asymmetry_Pilot,2022.1.3,Win32,59.75143403,62c50e9c1127f2cd403a315f,0,67,67,42,1,twoone,,,,,,,,,,,,,,,,,,,,,,,,,,,,,,,,,,,,,,,,,,,,,,,,,,,,,,,,,,,,,,,,,,,,,,,,,,,,,,,,,,,,,,,,,,,,,,,,,,,,,,,,,,,,,,,,,,,,,,,,,,,,,,,,,,,,,,,,,,,,,,,,,,,,,,,,,,,,,
,,,,,,612c95f4a142b9dc63cc45a0,62c53a4980569701d2f2d381,2022-07-06_09h29.49.531,Colour_Asymmetry_Pilot,2022.1.3,Win32,59.75143403,62c50e9c1127f2cd403a315f,0,68,68,0,1,onetwo,,,,,,,,,,,,,,,,,,,,,,,,,,,,,,,,,,,,,,,,,,,,,,,,,,,,,,,,,,,,,,,,,,,,,,,,,,,,,,,,,,,,,,,,,,,,,,,,,,,,,,,,,,,,,,,,,,,,,,,,,,,,,,,,,,,,,,,,,,,,,,,,,,,,,,,,,,,,,
,,,,,,612c95f4a142b9dc63cc45a0,62c53a4980569701d2f2d381,2022-07-06_09h29.49.531,Colour_Asymmetry_Pilot,2022.1.3,Win32,59.75143403,62c50e9c1127f2cd403a315f,0,69,69,25,1,onethree,,,,,,,,,,,,,,,,,,,,,,,,,,,,,,,,,,,,,,,,,,,,,,,,,,,,,,,,,,,,,,,,,,,,,,,,,,,,,,,,,,,,,,,,,,,,,,,,,,,,,,,,,,,,,,,,,,,,,,,,,,,,,,,,,,,,,,,,,,,,,,,,,,,,,,,,,,,,,
,,,,,,612c95f4a142b9dc63cc45a0,62c53a4980569701d2f2d381,2022-07-06_09h29.49.531,Colour_Asymmetry_Pilot,2022.1.3,Win32,59.75143403,62c50e9c1127f2cd403a315f,0,70,70,66,1,twoone,,,,,,,,,,,,,,,,,,,,,,,,,,,,,,,,,,,,,,,,,,,,,,,,,,,,,,,,,,,,,,,,,,,,,,,,,,,,,,,,,,,,,,,,,,,,,,,,,,,,,,,,,,,,,,,,,,,,,,,,,,,,,,,,,,,,,,,,,,,,,,,,,,,,,,,,,,,,,
,,,,,,612c95f4a142b9dc63cc45a0,62c53a4980569701d2f2d381,2022-07-06_09h29.49.531,Colour_Asymmetry_Pilot,2022.1.3,Win32,59.75143403,62c50e9c1127f2cd403a315f,0,71,71,111,1,fourthree,,,,,,,,,,,,,,,,,,,,,,,,,,,,,,,,,,,,,,,,,,,,,,,,,,,,,,,,,,,,,,,,,,,,,,,,,,,,,,,,,,,,,,,,,,,,,,,,,,,,,,,,,,,,,,,,,,,,,,,,,,,,,,,,,,,,,,,,,,,,,,,,,,,,,,,,,,,,,
,,,,,,612c95f4a142b9dc63cc45a0,62c53a4980569701d2f2d381,2022-07-06_09h29.49.531,Colour_Asymmetry_Pilot,2022.1.3,Win32,59.75143403,62c50e9c1127f2cd403a315f,0,72,72,88,1,onetwo,,,,,,,,,,,,,,,,,,,,,,,,,,,,,,,,,,,,,,,,,,,,,,,,,,,,,,,,,,,,,,,,,,,,,,,,,,,,,,,,,,,,,,,,,,,,,,,,,,,,,,,,,,,,,,,,,,,,,,,,,,,,,,,,,,,,,,,,,,,,,,,,,,,,,,,,,,,,,
,,,,,,612c95f4a142b9dc63cc45a0,62c53a4980569701d2f2d381,2022-07-06_09h29.49.531,Colour_Asymmetry_Pilot,2022.1.3,Win32,59.75143403,62c50e9c1127f2cd403a315f,0,73,73,14,1,fourtwo,,,,,,,,,,,,,,,,,,,,,,,,,,,,,,,,,,,,,,,,,,,,,,,,,,,,,,,,,,,,,,,,,,,,,,,,,,,,,,,,,,,,,,,,,,,,,,,,,,,,,,,,,,,,,,,,,,,,,,,,,,,,,,,,,,,,,,,,,,,,,,,,,,,,,,,,,,,,,
,,,,,,612c95f4a142b9dc63cc45a0,62c53a4980569701d2f2d381,2022-07-06_09h29.49.531,Colour_Asymmetry_Pilot,2022.1.3,Win32,59.75143403,62c50e9c1127f2cd403a315f,0,74,74,22,1,fourtwo,,,,,,,,,,,,,,,,,,,,,,,,,,,,,,,,,,,,,,,,,,,,,,,,,,,,,,,,,,,,,,,,,,,,,,,,,,,,,,,,,,,,,,,,,,,,,,,,,,,,,,,,,,,,,,,,,,,,,,,,,,,,,,,,,,,,,,,,,,,,,,,,,,,,,,,,,,,,,
,,,,,,612c95f4a142b9dc63cc45a0,62c53a4980569701d2f2d381,2022-07-06_09h29.49.531,Colour_Asymmetry_Pilot,2022.1.3,Win32,59.75143403,62c50e9c1127f2cd403a315f,0,75,75,155,1,twofour,,,,,,,,,,,,,,,,,,,,,,,,,,,,,,,,,,,,,,,,,,,,,,,,,,,,,,,,,,,,,,,,,,,,,,,,,,,,,,,,,,,,,,,,,,,,,,,,,,,,,,,,,,,,,,,,,,,,,,,,,,,,,,,,,,,,,,,,,,,,,,,,,,,,,,,,,,,,,
,,,,,,612c95f4a142b9dc63cc45a0,62c53a4980569701d2f2d381,2022-07-06_09h29.49.531,Colour_Asymmetry_Pilot,2022.1.3,Win32,59.75143403,62c50e9c1127f2cd403a315f,0,76,76,19,1,twofour,,,,,,,,,,,,,,,,,,,,,,,,,,,,,,,,,,,,,,,,,,,,,,,,,,,,,,,,,,,,,,,,,,,,,,,,,,,,,,,,,,,,,,,,,,,,,,,,,,,,,,,,,,,,,,,,,,,,,,,,,,,,,,,,,,,,,,,,,,,,,,,,,,,,,,,,,,,,,
,,,,,,612c95f4a142b9dc63cc45a0,62c53a4980569701d2f2d381,2022-07-06_09h29.49.531,Colour_Asymmetry_Pilot,2022.1.3,Win32,59.75143403,62c50e9c1127f2cd403a315f,0,77,77,62,1,fourtwo,,,,,,,,,,,,,,,,,,,,,,,,,,,,,,,,,,,,,,,,,,,,,,,,,,,,,,,,,,,,,,,,,,,,,,,,,,,,,,,,,,,,,,,,,,,,,,,,,,,,,,,,,,,,,,,,,,,,,,,,,,,,,,,,,,,,,,,,,,,,,,,,,,,,,,,,,,,,,
,,,,,,612c95f4a142b9dc63cc45a0,62c53a4980569701d2f2d381,2022-07-06_09h29.49.531,Colour_Asymmetry_Pilot,2022.1.3,Win32,59.75143403,62c50e9c1127f2cd403a315f,0,78,78,139,1,twofour,,,,,,,,,,,,,,,,,,,,,,,,,,,,,,,,,,,,,,,,,,,,,,,,,,,,,,,,,,,,,,,,,,,,,,,,,,,,,,,,,,,,,,,,,,,,,,,,,,,,,,,,,,,,,,,,,,,,,,,,,,,,,,,,,,,,,,,,,,,,,,,,,,,,,,,,,,,,,
,,,,,,612c95f4a142b9dc63cc45a0,62c53a4980569701d2f2d381,2022-07-06_09h29.49.531,Colour_Asymmetry_Pilot,2022.1.3,Win32,59.75143403,62c50e9c1127f2cd403a315f,0,79,79,153,1,onethree,,,,,,,,,,,,,,,,,,,,,,,,,,,,,,,,,,,,,,,,,,,,,,,,,,,,,,,,,,,,,,,,,,,,,,,,,,,,,,,,,,,,,,,,,,,,,,,,,,,,,,,,,,,,,,,,,,,,,,,,,,,,,,,,,,,,,,,,,,,,,,,,,,,,,,,,,,,,,
,,,,,,612c95f4a142b9dc63cc45a0,62c53a4980569701d2f2d381,2022-07-06_09h29.49.531,Colour_Asymmetry_Pilot,2022.1.3,Win32,59.75143403,62c50e9c1127f2cd403a315f,0,80,80,74,1,twoone,,,,,,,,,,,,,,,,,,,,,,,,,,,,,,,,,,,,,,,,,,,,,,,,,,,,,,,,,,,,,,,,,,,,,,,,,,,,,,,,,,,,,,,,,,,,,,,,,,,,,,,,,,,,,,,,,,,,,,,,,,,,,,,,,,,,,,,,,,,,,,,,,,,,,,,,,,,,,
,,,,,,612c95f4a142b9dc63cc45a0,62c53a4980569701d2f2d381,2022-07-06_09h29.49.531,Colour_Asymmetry_Pilot,2022.1.3,Win32,59.75143403,62c50e9c1127f2cd403a315f,0,81,81,51,1,twofour,,,,,,,,,,,,,,,,,,,,,,,,,,,,,,,,,,,,,,,,,,,,,,,,,,,,,,,,,,,,,,,,,,,,,,,,,,,,,,,,,,,,,,,,,,,,,,,,,,,,,,,,,,,,,,,,,,,,,,,,,,,,,,,,,,,,,,,,,,,,,,,,,,,,,,,,,,,,,
,,,,,,612c95f4a142b9dc63cc45a0,62c53a4980569701d2f2d381,2022-07-06_09h29.49.531,Colour_Asymmetry_Pilot,2022.1.3,Win32,59.75143403,62c50e9c1127f2cd403a315f,0,82,82,115,1,twofour,,,,,,,,,,,,,,,,,,,,,,,,,,,,,,,,,,,,,,,,,,,,,,,,,,,,,,,,,,,,,,,,,,,,,,,,,,,,,,,,,,,,,,,,,,,,,,,,,,,,,,,,,,,,,,,,,,,,,,,,,,,,,,,,,,,,,,,,,,,,,,,,,,,,,,,,,,,,,
,,,,,,612c95f4a142b9dc63cc45a0,62c53a4980569701d2f2d381,2022-07-06_09h29.49.531,Colour_Asymmetry_Pilot,2022.1.3,Win32,59.75143403,62c50e9c1127f2cd403a315f,0,83,83,35,1,twofour,,,,,,,,,,,,,,,,,,,,,,,,,,,,,,,,,,,,,,,,,,,,,,,,,,,,,,,,,,,,,,,,,,,,,,,,,,,,,,,,,,,,,,,,,,,,,,,,,,,,,,,,,,,,,,,,,,,,,,,,,,,,,,,,,,,,,,,,,,,,,,,,,,,,,,,,,,,,,
,,,,,,612c95f4a142b9dc63cc45a0,62c53a4980569701d2f2d381,2022-07-06_09h29.49.531,Colour_Asymmetry_Pilot,2022.1.3,Win32,59.75143403,62c50e9c1127f2cd403a315f,0,84,84,127,1,fourthree,,,,,,,,,,,,,,,,,,,,,,,,,,,,,,,,,,,,,,,,,,,,,,,,,,,,,,,,,,,,,,,,,,,,,,,,,,,,,,,,,,,,,,,,,,,,,,,,,,,,,,,,,,,,,,,,,,,,,,,,,,,,,,,,,,,,,,,,,,,,,,,,,,,,,,,,,,,,,
,,,,,,612c95f4a142b9dc63cc45a0,62c53a4980569701d2f2d381,2022-07-06_09h29.49.531,Colour_Asymmetry_Pilot,2022.1.3,Win32,59.75143403,62c50e9c1127f2cd403a315f,0,85,85,53,1,threefour,,,,,,,,,,,,,,,,,,,,,,,,,,,,,,,,,,,,,,,,,,,,,,,,,,,,,,,,,,,,,,,,,,,,,,,,,,,,,,,,,,,,,,,,,,,,,,,,,,,,,,,,,,,,,,,,,,,,,,,,,,,,,,,,,,,,,,,,,,,,,,,,,,,,,,,,,,,,,
,,,,,,612c95f4a142b9dc63cc45a0,62c53a4980569701d2f2d381,2022-07-06_09h29.49.531,Colour_Asymmetry_Pilot,2022.1.3,Win32,59.75143403,62c50e9c1127f2cd403a315f,0,86,86,135,1,fourthree,,,,,,,,,,,,,,,,,,,,,,,,,,,,,,,,,,,,,,,,,,,,,,,,,,,,,,,,,,,,,,,,,,,,,,,,,,,,,,,,,,,,,,,,,,,,,,,,,,,,,,,,,,,,,,,,,,,,,,,,,,,,,,,,,,,,,,,,,,,,,,,,,,,,,,,,,,,,,
,,,,,,612c95f4a142b9dc63cc45a0,62c53a4980569701d2f2d381,2022-07-06_09h29.49.531,Colour_Asymmetry_Pilot,2022.1.3,Win32,59.75143403,62c50e9c1127f2cd403a315f,0,87,87,31,1,fourthree,,,,,,,,,,,,,,,,,,,,,,,,,,,,,,,,,,,,,,,,,,,,,,,,,,,,,,,,,,,,,,,,,,,,,,,,,,,,,,,,,,,,,,,,,,,,,,,,,,,,,,,,,,,,,,,,,,,,,,,,,,,,,,,,,,,,,,,,,,,,,,,,,,,,,,,,,,,,,
,,,,,,612c95f4a142b9dc63cc45a0,62c53a4980569701d2f2d381,2022-07-06_09h29.49.531,Colour_Asymmetry_Pilot,2022.1.3,Win32,59.75143403,62c50e9c1127f2cd403a315f,0,88,88,75,1,twofour,,,,,,,,,,,,,,,,,,,,,,,,,,,,,,,,,,,,,,,,,,,,,,,,,,,,,,,,,,,,,,,,,,,,,,,,,,,,,,,,,,,,,,,,,,,,,,,,,,,,,,,,,,,,,,,,,,,,,,,,,,,,,,,,,,,,,,,,,,,,,,,,,,,,,,,,,,,,,
,,,,,,612c95f4a142b9dc63cc45a0,62c53a4980569701d2f2d381,2022-07-06_09h29.49.531,Colour_Asymmetry_Pilot,2022.1.3,Win32,59.75143403,62c50e9c1127f2cd403a315f,0,89,89,152,1,onetwo,,,,,,,,,,,,,,,,,,,,,,,,,,,,,,,,,,,,,,,,,,,,,,,,,,,,,,,,,,,,,,,,,,,,,,,,,,,,,,,,,,,,,,,,,,,,,,,,,,,,,,,,,,,,,,,,,,,,,,,,,,,,,,,,,,,,,,,,,,,,,,,,,,,,,,,,,,,,,
,,,,,,612c95f4a142b9dc63cc45a0,62c53a4980569701d2f2d381,2022-07-06_09h29.49.531,Colour_Asymmetry_Pilot,2022.1.3,Win32,59.75143403,62c50e9c1127f2cd403a315f,0,90,90,23,1,fourthree,,,,,,,,,,,,,,,,,,,,,,,,,,,,,,,,,,,,,,,,,,,,,,,,,,,,,,,,,,,,,,,,,,,,,,,,,,,,,,,,,,,,,,,,,,,,,,,,,,,,,,,,,,,,,,,,,,,,,,,,,,,,,,,,,,,,,,,,,,,,,,,,,,,,,,,,,,,,,
,,,,,,612c95f4a142b9dc63cc45a0,62c53a4980569701d2f2d381,2022-07-06_09h29.49.531,Colour_Asymmetry_Pilot,2022.1.3,Win32,59.75143403,62c50e9c1127f2cd403a315f,0,91,91,69,1,threefour,,,,,,,,,,,,,,,,,,,,,,,,,,,,,,,,,,,,,,,,,,,,,,,,,,,,,,,,,,,,,,,,,,,,,,,,,,,,,,,,,,,,,,,,,,,,,,,,,,,,,,,,,,,,,,,,,,,,,,,,,,,,,,,,,,,,,,,,,,,,,,,,,,,,,,,,,,,,,
,,,,,,612c95f4a142b9dc63cc45a0,62c53a4980569701d2f2d381,2022-07-06_09h29.49.531,Colour_Asymmetry_Pilot,2022.1.3,Win32,59.75143403,62c50e9c1127f2cd403a315f,0,92,92,76,1,threeone,,,,,,,,,,,,,,,,,,,,,,,,,,,,,,,,,,,,,,,,,,,,,,,,,,,,,,,,,,,,,,,,,,,,,,,,,,,,,,,,,,,,,,,,,,,,,,,,,,,,,,,,,,,,,,,,,,,,,,,,,,,,,,,,,,,,,,,,,,,,,,,,,,,,,,,,,,,,,
,,,,,,612c95f4a142b9dc63cc45a0,62c53a4980569701d2f2d381,2022-07-06_09h29.49.531,Colour_Asymmetry_Pilot,2022.1.3,Win32,59.75143403,62c50e9c1127f2cd403a315f,0,93,93,146,1,twoone,,,,,,,,,,,,,,,,,,,,,,,,,,,,,,,,,,,,,,,,,,,,,,,,,,,,,,,,,,,,,,,,,,,,,,,,,,,,,,,,,,,,,,,,,,,,,,,,,,,,,,,,,,,,,,,,,,,,,,,,,,,,,,,,,,,,,,,,,,,,,,,,,,,,,,,,,,,,,
,,,,,,612c95f4a142b9dc63cc45a0,62c53a4980569701d2f2d381,2022-07-06_09h29.49.531,Colour_Asymmetry_Pilot,2022.1.3,Win32,59.75143403,62c50e9c1127f2cd403a315f,0,94,94,91,1,twofour,,,,,,,,,,,,,,,,,,,,,,,,,,,,,,,,,,,,,,,,,,,,,,,,,,,,,,,,,,,,,,,,,,,,,,,,,,,,,,,,,,,,,,,,,,,,,,,,,,,,,,,,,,,,,,,,,,,,,,,,,,,,,,,,,,,,,,,,,,,,,,,,,,,,,,,,,,,,,
,,,,,,612c95f4a142b9dc63cc45a0,62c53a4980569701d2f2d381,2022-07-06_09h29.49.531,Colour_Asymmetry_Pilot,2022.1.3,Win32,59.75143403,62c50e9c1127f2cd403a315f,0,95,95,84,1,threeone,,,,,,,,,,,,,,,,,,,,,,,,,,,,,,,,,,,,,,,,,,,,,,,,,,,,,,,,,,,,,,,,,,,,,,,,,,,,,,,,,,,,,,,,,,,,,,,,,,,,,,,,,,,,,,,,,,,,,,,,,,,,,,,,,,,,,,,,,,,,,,,,,,,,,,,,,,,,,
,,,,,,612c95f4a142b9dc63cc45a0,62c53a4980569701d2f2d381,2022-07-06_09h29.49.531,Colour_Asymmetry_Pilot,2022.1.3,Win32,59.75143403,62c50e9c1127f2cd403a315f,0,96,96,119,1,fourthree,,,,,,,,,,,,,,,,,,,,,,,,,,,,,,,,,,,,,,,,,,,,,,,,,,,,,,,,,,,,,,,,,,,,,,,,,,,,,,,,,,,,,,,,,,,,,,,,,,,,,,,,,,,,,,,,,,,,,,,,,,,,,,,,,,,,,,,,,,,,,,,,,,,,,,,,,,,,,
,,,,,,612c95f4a142b9dc63cc45a0,62c53a4980569701d2f2d381,2022-07-06_09h29.49.531,Colour_Asymmetry_Pilot,2022.1.3,Win32,59.75143403,62c50e9c1127f2cd403a315f,0,97,97,4,1,threeone,,,,,,,,,,,,,,,,,,,,,,,,,,,,,,,,,,,,,,,,,,,,,,,,,,,,,,,,,,,,,,,,,,,,,,,,,,,,,,,,,,,,,,,,,,,,,,,,,,,,,,,,,,,,,,,,,,,,,,,,,,,,,,,,,,,,,,,,,,,,,,,,,,,,,,,,,,,,,
,,,,,,612c95f4a142b9dc63cc45a0,62c53a4980569701d2f2d381,2022-07-06_09h29.49.531,Colour_Asymmetry_Pilot,2022.1.3,Win32,59.75143403,62c50e9c1127f2cd403a315f,0,98,98,81,1,onethree,,,,,,,,,,,,,,,,,,,,,,,,,,,,,,,,,,,,,,,,,,,,,,,,,,,,,,,,,,,,,,,,,,,,,,,,,,,,,,,,,,,,,,,,,,,,,,,,,,,,,,,,,,,,,,,,,,,,,,,,,,,,,,,,,,,,,,,,,,,,,,,,,,,,,,,,,,,,,
,,,,,,612c95f4a142b9dc63cc45a0,62c53a4980569701d2f2d381,2022-07-06_09h29.49.531,Colour_Asymmetry_Pilot,2022.1.3,Win32,59.75143403,62c50e9c1127f2cd403a315f,0,99,99,95,1,fourthree,,,,,,,,,,,,,,,,,,,,,,,,,,,,,,,,,,,,,,,,,,,,,,,,,,,,,,,,,,,,,,,,,,,,,,,,,,,,,,,,,,,,,,,,,,,,,,,,,,,,,,,,,,,,,,,,,,,,,,,,,,,,,,,,,,,,,,,,,,,,,,,,,,,,,,,,,,,,,
,,,,,,612c95f4a142b9dc63cc45a0,62c53a4980569701d2f2d381,2022-07-06_09h29.49.531,Colour_Asymmetry_Pilot,2022.1.3,Win32,59.75143403,62c50e9c1127f2cd403a315f,0,100,100,24,1,onetwo,,,,,,,,,,,,,,,,,,,,,,,,,,,,,,,,,,,,,,,,,,,,,,,,,,,,,,,,,,,,,,,,,,,,,,,,,,,,,,,,,,,,,,,,,,,,,,,,,,,,,,,,,,,,,,,,,,,,,,,,,,,,,,,,,,,,,,,,,,,,,,,,,,,,,,,,,,,,,
,,,,,,612c95f4a142b9dc63cc45a0,62c53a4980569701d2f2d381,2022-07-06_09h29.49.531,Colour_Asymmetry_Pilot,2022.1.3,Win32,59.75143403,62c50e9c1127f2cd403a315f,0,101,101,123,1,twofour,,,,,,,,,,,,,,,,,,,,,,,,,,,,,,,,,,,,,,,,,,,,,,,,,,,,,,,,,,,,,,,,,,,,,,,,,,,,,,,,,,,,,,,,,,,,,,,,,,,,,,,,,,,,,,,,,,,,,,,,,,,,,,,,,,,,,,,,,,,,,,,,,,,,,,,,,,,,,
,,,,,,612c95f4a142b9dc63cc45a0,62c53a4980569701d2f2d381,2022-07-06_09h29.49.531,Colour_Asymmetry_Pilot,2022.1.3,Win32,59.75143403,62c50e9c1127f2cd403a315f,0,102,102,7,1,fourthree,,,,,,,,,,,,,,,,,,,,,,,,,,,,,,,,,,,,,,,,,,,,,,,,,,,,,,,,,,,,,,,,,,,,,,,,,,,,,,,,,,,,,,,,,,,,,,,,,,,,,,,,,,,,,,,,,,,,,,,,,,,,,,,,,,,,,,,,,,,,,,,,,,,,,,,,,,,,,
,,,,,,612c95f4a142b9dc63cc45a0,62c53a4980569701d2f2d381,2022-07-06_09h29.49.531,Colour_Asymmetry_Pilot,2022.1.3,Win32,59.75143403,62c50e9c1127f2cd403a315f,0,103,103,86,1,fourtwo,,,,,,,,,,,,,,,,,,,,,,,,,,,,,,,,,,,,,,,,,,,,,,,,,,,,,,,,,,,,,,,,,,,,,,,,,,,,,,,,,,,,,,,,,,,,,,,,,,,,,,,,,,,,,,,,,,,,,,,,,,,,,,,,,,,,,,,,,,,,,,,,,,,,,,,,,,,,,
,,,,,,612c95f4a142b9dc63cc45a0,62c53a4980569701d2f2d381,2022-07-06_09h29.49.531,Colour_Asymmetry_Pilot,2022.1.3,Win32,59.75143403,62c50e9c1127f2cd403a315f,0,104,104,96,1,onetwo,,,,,,,,,,,,,,,,,,,,,,,,,,,,,,,,,,,,,,,,,,,,,,,,,,,,,,,,,,,,,,,,,,,,,,,,,,,,,,,,,,,,,,,,,,,,,,,,,,,,,,,,,,,,,,,,,,,,,,,,,,,,,,,,,,,,,,,,,,,,,,,,,,,,,,,,,,,,,
,,,,,,612c95f4a142b9dc63cc45a0,62c53a4980569701d2f2d381,2022-07-06_09h29.49.531,Colour_Asymmetry_Pilot,2022.1.3,Win32,59.75143403,62c50e9c1127f2cd403a315f,0,105,105,145,1,onethree,,,,,,,,,,,,,,,,,,,,,,,,,,,,,,,,,,,,,,,,,,,,,,,,,,,,,,,,,,,,,,,,,,,,,,,,,,,,,,,,,,,,,,,,,,,,,,,,,,,,,,,,,,,,,,,,,,,,,,,,,,,,,,,,,,,,,,,,,,,,,,,,,,,,,,,,,,,,,
,,,,,,612c95f4a142b9dc63cc45a0,62c53a4980569701d2f2d381,2022-07-06_09h29.49.531,Colour_Asymmetry_Pilot,2022.1.3,Win32,59.75143403,62c50e9c1127f2cd403a315f,0,106,106,98,1,twoone,,,,,,,,,,,,,,,,,,,,,,,,,,,,,,,,,,,,,,,,,,,,,,,,,,,,,,,,,,,,,,,,,,,,,,,,,,,,,,,,,,,,,,,,,,,,,,,,,,,,,,,,,,,,,,,,,,,,,,,,,,,,,,,,,,,,,,,,,,,,,,,,,,,,,,,,,,,,,
,,,,,,612c95f4a142b9dc63cc45a0,62c53a4980569701d2f2d381,2022-07-06_09h29.49.531,Colour_Asymmetry_Pilot,2022.1.3,Win32,59.75143403,62c50e9c1127f2cd403a315f,0,107,107,29,1,threefour,,,,,,,,,,,,,,,,,,,,,,,,,,,,,,,,,,,,,,,,,,,,,,,,,,,,,,,,,,,,,,,,,,,,,,,,,,,,,,,,,,,,,,,,,,,,,,,,,,,,,,,,,,,,,,,,,,,,,,,,,,,,,,,,,,,,,,,,,,,,,,,,,,,,,,,,,,,,,
,,,,,,612c95f4a142b9dc63cc45a0,62c53a4980569701d2f2d381,2022-07-06_09h29.49.531,Colour_Asymmetry_Pilot,2022.1.3,Win32,59.75143403,62c50e9c1127f2cd403a315f,0,108,108,34,1,twoone,,,,,,,,,,,,,,,,,,,,,,,,,,,,,,,,,,,,,,,,,,,,,,,,,,,,,,,,,,,,,,,,,,,,,,,,,,,,,,,,,,,,,,,,,,,,,,,,,,,,,,,,,,,,,,,,,,,,,,,,,,,,,,,,,,,,,,,,,,,,,,,,,,,,,,,,,,,,,
,,,,,,612c95f4a142b9dc63cc45a0,62c53a4980569701d2f2d381,2022-07-06_09h29.49.531,Colour_Asymmetry_Pilot,2022.1.3,Win32,59.75143403,62c50e9c1127f2cd403a315f,0,109,109,43,1,twofour,,,,,,,,,,,,,,,,,,,,,,,,,,,,,,,,,,,,,,,,,,,,,,,,,,,,,,,,,,,,,,,,,,,,,,,,,,,,,,,,,,,,,,,,,,,,,,,,,,,,,,,,,,,,,,,,,,,,,,,,,,,,,,,,,,,,,,,,,,,,,,,,,,,,,,,,,,,,,
,,,,,,612c95f4a142b9dc63cc45a0,62c53a4980569701d2f2d381,2022-07-06_09h29.49.531,Colour_Asymmetry_Pilot,2022.1.3,Win32,59.75143403,62c50e9c1127f2cd403a315f,0,110,110,28,1,threeone,,,,,,,,,,,,,,,,,,,,,,,,,,,,,,,,,,,,,,,,,,,,,,,,,,,,,,,,,,,,,,,,,,,,,,,,,,,,,,,,,,,,,,,,,,,,,,,,,,,,,,,,,,,,,,,,,,,,,,,,,,,,,,,,,,,,,,,,,,,,,,,,,,,,,,,,,,,,,
,,,,,,612c95f4a142b9dc63cc45a0,62c53a4980569701d2f2d381,2022-07-06_09h29.49.531,Colour_Asymmetry_Pilot,2022.1.3,Win32,59.75143403,62c50e9c1127f2cd403a315f,0,111,111,54,1,fourtwo,,,,,,,,,,,,,,,,,,,,,,,,,,,,,,,,,,,,,,,,,,,,,,,,,,,,,,,,,,,,,,,,,,,,,,,,,,,,,,,,,,,,,,,,,,,,,,,,,,,,,,,,,,,,,,,,,,,,,,,,,,,,,,,,,,,,,,,,,,,,,,,,,,,,,,,,,,,,,
,,,,,,612c95f4a142b9dc63cc45a0,62c53a4980569701d2f2d381,2022-07-06_09h29.49.531,Colour_Asymmetry_Pilot,2022.1.3,Win32,59.75143403,62c50e9c1127f2cd403a315f,0,112,112,116,1,threeone,,,,,,,,,,,,,,,,,,,,,,,,,,,,,,,,,,,,,,,,,,,,,,,,,,,,,,,,,,,,,,,,,,,,,,,,,,,,,,,,,,,,,,,,,,,,,,,,,,,,,,,,,,,,,,,,,,,,,,,,,,,,,,,,,,,,,,,,,,,,,,,,,,,,,,,,,,,,,
,,,,,,612c95f4a142b9dc63cc45a0,62c53a4980569701d2f2d381,2022-07-06_09h29.49.531,Colour_Asymmetry_Pilot,2022.1.3,Win32,59.75143403,62c50e9c1127f2cd403a315f,0,113,113,1,1,onethree,,,,,,,,,,,,,,,,,,,,,,,,,,,,,,,,,,,,,,,,,,,,,,,,,,,,,,,,,,,,,,,,,,,,,,,,,,,,,,,,,,,,,,,,,,,,,,,,,,,,,,,,,,,,,,,,,,,,,,,,,,,,,,,,,,,,,,,,,,,,,,,,,,,,,,,,,,,,,
,,,,,,612c95f4a142b9dc63cc45a0,62c53a4980569701d2f2d381,2022-07-06_09h29.49.531,Colour_Asymmetry_Pilot,2022.1.3,Win32,59.75143403,62c50e9c1127f2cd403a315f,0,114,114,44,1,threeone,,,,,,,,,,,,,,,,,,,,,,,,,,,,,,,,,,,,,,,,,,,,,,,,,,,,,,,,,,,,,,,,,,,,,,,,,,,,,,,,,,,,,,,,,,,,,,,,,,,,,,,,,,,,,,,,,,,,,,,,,,,,,,,,,,,,,,,,,,,,,,,,,,,,,,,,,,,,,
,,,,,,612c95f4a142b9dc63cc45a0,62c53a4980569701d2f2d381,2022-07-06_09h29.49.531,Colour_Asymmetry_Pilot,2022.1.3,Win32,59.75143403,62c50e9c1127f2cd403a315f,0,115,115,38,1,fourtwo,,,,,,,,,,,,,,,,,,,,,,,,,,,,,,,,,,,,,,,,,,,,,,,,,,,,,,,,,,,,,,,,,,,,,,,,,,,,,,,,,,,,,,,,,,,,,,,,,,,,,,,,,,,,,,,,,,,,,,,,,,,,,,,,,,,,,,,,,,,,,,,,,,,,,,,,,,,,,
,,,,,,612c95f4a142b9dc63cc45a0,62c53a4980569701d2f2d381,2022-07-06_09h29.49.531,Colour_Asymmetry_Pilot,2022.1.3,Win32,59.75143403,62c50e9c1127f2cd403a315f,0,116,116,83,1,twofour,,,,,,,,,,,,,,,,,,,,,,,,,,,,,,,,,,,,,,,,,,,,,,,,,,,,,,,,,,,,,,,,,,,,,,,,,,,,,,,,,,,,,,,,,,,,,,,,,,,,,,,,,,,,,,,,,,,,,,,,,,,,,,,,,,,,,,,,,,,,,,,,,,,,,,,,,,,,,
,,,,,,612c95f4a142b9dc63cc45a0,62c53a4980569701d2f2d381,2022-07-06_09h29.49.531,Colour_Asymmetry_Pilot,2022.1.3,Win32,59.75143403,62c50e9c1127f2cd403a315f,0,117,117,117,1,threefour,,,,,,,,,,,,,,,,,,,,,,,,,,,,,,,,,,,,,,,,,,,,,,,,,,,,,,,,,,,,,,,,,,,,,,,,,,,,,,,,,,,,,,,,,,,,,,,,,,,,,,,,,,,,,,,,,,,,,,,,,,,,,,,,,,,,,,,,,,,,,,,,,,,,,,,,,,,,,
,,,,,,612c95f4a142b9dc63cc45a0,62c53a4980569701d2f2d381,2022-07-06_09h29.49.531,Colour_Asymmetry_Pilot,2022.1.3,Win32,59.75143403,62c50e9c1127f2cd403a315f,0,118,118,128,1,onetwo,,,,,,,,,,,,,,,,,,,,,,,,,,,,,,,,,,,,,,,,,,,,,,,,,,,,,,,,,,,,,,,,,,,,,,,,,,,,,,,,,,,,,,,,,,,,,,,,,,,,,,,,,,,,,,,,,,,,,,,,,,,,,,,,,,,,,,,,,,,,,,,,,,,,,,,,,,,,,
,,,,,,612c95f4a142b9dc63cc45a0,62c53a4980569701d2f2d381,2022-07-06_09h29.49.531,Colour_Asymmetry_Pilot,2022.1.3,Win32,59.75143403,62c50e9c1127f2cd403a315f,0,119,119,148,1,threeone,,,,,,,,,,,,,,,,,,,,,,,,,,,,,,,,,,,,,,,,,,,,,,,,,,,,,,,,,,,,,,,,,,,,,,,,,,,,,,,,,,,,,,,,,,,,,,,,,,,,,,,,,,,,,,,,,,,,,,,,,,,,,,,,,,,,,,,,,,,,,,,,,,,,,,,,,,,,,
,,,,,,612c95f4a142b9dc63cc45a0,62c53a4980569701d2f2d381,2022-07-06_09h29.49.531,Colour_Asymmetry_Pilot,2022.1.3,Win32,59.75143403,62c50e9c1127f2cd403a315f,0,120,120,21,1,threefour,,,,,,,,,,,,,,,,,,,,,,,,,,,,,,,,,,,,,,,,,,,,,,,,,,,,,,,,,,,,,,,,,,,,,,,,,,,,,,,,,,,,,,,,,,,,,,,,,,,,,,,,,,,,,,,,,,,,,,,,,,,,,,,,,,,,,,,,,,,,,,,,,,,,,,,,,,,,,
,,,,,,612c95f4a142b9dc63cc45a0,62c53a4980569701d2f2d381,2022-07-06_09h29.49.531,Colour_Asymmetry_Pilot,2022.1.3,Win32,59.75143403,62c50e9c1127f2cd403a315f,0,121,121,112,1,onetwo,,,,,,,,,,,,,,,,,,,,,,,,,,,,,,,,,,,,,,,,,,,,,,,,,,,,,,,,,,,,,,,,,,,,,,,,,,,,,,,,,,,,,,,,,,,,,,,,,,,,,,,,,,,,,,,,,,,,,,,,,,,,,,,,,,,,,,,,,,,,,,,,,,,,,,,,,,,,,
,,,,,,612c95f4a142b9dc63cc45a0,62c53a4980569701d2f2d381,2022-07-06_09h29.49.531,Colour_Asymmetry_Pilot,2022.1.3,Win32,59.75143403,62c50e9c1127f2cd403a315f,0,122,122,36,1,threeone,,,,,,,,,,,,,,,,,,,,,,,,,,,,,,,,,,,,,,,,,,,,,,,,,,,,,,,,,,,,,,,,,,,,,,,,,,,,,,,,,,,,,,,,,,,,,,,,,,,,,,,,,,,,,,,,,,,,,,,,,,,,,,,,,,,,,,,,,,,,,,,,,,,,,,,,,,,,,
,,,,,,612c95f4a142b9dc63cc45a0,62c53a4980569701d2f2d381,2022-07-06_09h29.49.531,Colour_Asymmetry_Pilot,2022.1.3,Win32,59.75143403,62c50e9c1127f2cd403a315f,0,123,123,118,1,fourtwo,,,,,,,,,,,,,,,,,,,,,,,,,,,,,,,,,,,,,,,,,,,,,,,,,,,,,,,,,,,,,,,,,,,,,,,,,,,,,,,,,,,,,,,,,,,,,,,,,,,,,,,,,,,,,,,,,,,,,,,,,,,,,,,,,,,,,,,,,,,,,,,,,,,,,,,,,,,,,
,,,,,,612c95f4a142b9dc63cc45a0,62c53a4980569701d2f2d381,2022-07-06_09h29.49.531,Colour_Asymmetry_Pilot,2022.1.3,Win32,59.75143403,62c50e9c1127f2cd403a315f,0,124,124,104,1,onetwo,,,,,,,,,,,,,,,,,,,,,,,,,,,,,,,,,,,,,,,,,,,,,,,,,,,,,,,,,,,,,,,,,,,,,,,,,,,,,,,,,,,,,,,,,,,,,,,,,,,,,,,,,,,,,,,,,,,,,,,,,,,,,,,,,,,,,,,,,,,,,,,,,,,,,,,,,,,,,
,,,,,,612c95f4a142b9dc63cc45a0,62c53a4980569701d2f2d381,2022-07-06_09h29.49.531,Colour_Asymmetry_Pilot,2022.1.3,Win32,59.75143403,62c50e9c1127f2cd403a315f,0,125,125,45,1,threefour,,,,,,,,,,,,,,,,,,,,,,,,,,,,,,,,,,,,,,,,,,,,,,,,,,,,,,,,,,,,,,,,,,,,,,,,,,,,,,,,,,,,,,,,,,,,,,,,,,,,,,,,,,,,,,,,,,,,,,,,,,,,,,,,,,,,,,,,,,,,,,,,,,,,,,,,,,,,,
,,,,,,612c95f4a142b9dc63cc45a0,62c53a4980569701d2f2d381,2022-07-06_09h29.49.531,Colour_Asymmetry_Pilot,2022.1.3,Win32,59.75143403,62c50e9c1127f2cd403a315f,0,126,126,67,1,twofour,,,,,,,,,,,,,,,,,,,,,,,,,,,,,,,,,,,,,,,,,,,,,,,,,,,,,,,,,,,,,,,,,,,,,,,,,,,,,,,,,,,,,,,,,,,,,,,,,,,,,,,,,,,,,,,,,,,,,,,,,,,,,,,,,,,,,,,,,,,,,,,,,,,,,,,,,,,,,
,,,,,,612c95f4a142b9dc63cc45a0,62c53a4980569701d2f2d381,2022-07-06_09h29.49.531,Colour_Asymmetry_Pilot,2022.1.3,Win32,59.75143403,62c50e9c1127f2cd403a315f,0,127,127,99,1,twofour,,,,,,,,,,,,,,,,,,,,,,,,,,,,,,,,,,,,,,,,,,,,,,,,,,,,,,,,,,,,,,,,,,,,,,,,,,,,,,,,,,,,,,,,,,,,,,,,,,,,,,,,,,,,,,,,,,,,,,,,,,,,,,,,,,,,,,,,,,,,,,,,,,,,,,,,,,,,,
,,,,,,612c95f4a142b9dc63cc45a0,62c53a4980569701d2f2d381,2022-07-06_09h29.49.531,Colour_Asymmetry_Pilot,2022.1.3,Win32,59.75143403,62c50e9c1127f2cd403a315f,0,128,128,15,1,fourthree,,,,,,,,,,,,,,,,,,,,,,,,,,,,,,,,,,,,,,,,,,,,,,,,,,,,,,,,,,,,,,,,,,,,,,,,,,,,,,,,,,,,,,,,,,,,,,,,,,,,,,,,,,,,,,,,,,,,,,,,,,,,,,,,,,,,,,,,,,,,,,,,,,,,,,,,,,,,,
,,,,,,612c95f4a142b9dc63cc45a0,62c53a4980569701d2f2d381,2022-07-06_09h29.49.531,Colour_Asymmetry_Pilot,2022.1.3,Win32,59.75143403,62c50e9c1127f2cd403a315f,0,129,129,13,1,threefour,,,,,,,,,,,,,,,,,,,,,,,,,,,,,,,,,,,,,,,,,,,,,,,,,,,,,,,,,,,,,,,,,,,,,,,,,,,,,,,,,,,,,,,,,,,,,,,,,,,,,,,,,,,,,,,,,,,,,,,,,,,,,,,,,,,,,,,,,,,,,,,,,,,,,,,,,,,,,
,,,,,,612c95f4a142b9dc63cc45a0,62c53a4980569701d2f2d381,2022-07-06_09h29.49.531,Colour_Asymmetry_Pilot,2022.1.3,Win32,59.75143403,62c50e9c1127f2cd403a315f,0,130,130,124,1,threeone,,,,,,,,,,,,,,,,,,,,,,,,,,,,,,,,,,,,,,,,,,,,,,,,,,,,,,,,,,,,,,,,,,,,,,,,,,,,,,,,,,,,,,,,,,,,,,,,,,,,,,,,,,,,,,,,,,,,,,,,,,,,,,,,,,,,,,,,,,,,,,,,,,,,,,,,,,,,,
,,,,,,612c95f4a142b9dc63cc45a0,62c53a4980569701d2f2d381,2022-07-06_09h29.49.531,Colour_Asymmetry_Pilot,2022.1.3,Win32,59.75143403,62c50e9c1127f2cd403a315f,0,131,131,17,1,onethree,,,,,,,,,,,,,,,,,,,,,,,,,,,,,,,,,,,,,,,,,,,,,,,,,,,,,,,,,,,,,,,,,,,,,,,,,,,,,,,,,,,,,,,,,,,,,,,,,,,,,,,,,,,,,,,,,,,,,,,,,,,,,,,,,,,,,,,,,,,,,,,,,,,,,,,,,,,,,
,,,,,,612c95f4a142b9dc63cc45a0,62c53a4980569701d2f2d381,2022-07-06_09h29.49.531,Colour_Asymmetry_Pilot,2022.1.3,Win32,59.75143403,62c50e9c1127f2cd403a315f,0,132,132,55,1,fourthree,,,,,,,,,,,,,,,,,,,,,,,,,,,,,,,,,,,,,,,,,,,,,,,,,,,,,,,,,,,,,,,,,,,,,,,,,,,,,,,,,,,,,,,,,,,,,,,,,,,,,,,,,,,,,,,,,,,,,,,,,,,,,,,,,,,,,,,,,,,,,,,,,,,,,,,,,,,,,
,,,,,,612c95f4a142b9dc63cc45a0,62c53a4980569701d2f2d381,2022-07-06_09h29.49.531,Colour_Asymmetry_Pilot,2022.1.3,Win32,59.75143403,62c50e9c1127f2cd403a315f,0,133,133,60,1,threeone,,,,,,,,,,,,,,,,,,,,,,,,,,,,,,,,,,,,,,,,,,,,,,,,,,,,,,,,,,,,,,,,,,,,,,,,,,,,,,,,,,,,,,,,,,,,,,,,,,,,,,,,,,,,,,,,,,,,,,,,,,,,,,,,,,,,,,,,,,,,,,,,,,,,,,,,,,,,,
,,,,,,612c95f4a142b9dc63cc45a0,62c53a4980569701d2f2d381,2022-07-06_09h29.49.531,Colour_Asymmetry_Pilot,2022.1.3,Win32,59.75143403,62c50e9c1127f2cd403a315f,0,134,134,90,1,twoone,,,,,,,,,,,,,,,,,,,,,,,,,,,,,,,,,,,,,,,,,,,,,,,,,,,,,,,,,,,,,,,,,,,,,,,,,,,,,,,,,,,,,,,,,,,,,,,,,,,,,,,,,,,,,,,,,,,,,,,,,,,,,,,,,,,,,,,,,,,,,,,,,,,,,,,,,,,,,
,,,,,,612c95f4a142b9dc63cc45a0,62c53a4980569701d2f2d381,2022-07-06_09h29.49.531,Colour_Asymmetry_Pilot,2022.1.3,Win32,59.75143403,62c50e9c1127f2cd403a315f,0,135,135,122,1,twoone,,,,,,,,,,,,,,,,,,,,,,,,,,,,,,,,,,,,,,,,,,,,,,,,,,,,,,,,,,,,,,,,,,,,,,,,,,,,,,,,,,,,,,,,,,,,,,,,,,,,,,,,,,,,,,,,,,,,,,,,,,,,,,,,,,,,,,,,,,,,,,,,,,,,,,,,,,,,,
,,,,,,612c95f4a142b9dc63cc45a0,62c53a4980569701d2f2d381,2022-07-06_09h29.49.531,Colour_Asymmetry_Pilot,2022.1.3,Win32,59.75143403,62c50e9c1127f2cd403a315f,0,136,136,59,1,twofour,,,,,,,,,,,,,,,,,,,,,,,,,,,,,,,,,,,,,,,,,,,,,,,,,,,,,,,,,,,,,,,,,,,,,,,,,,,,,,,,,,,,,,,,,,,,,,,,,,,,,,,,,,,,,,,,,,,,,,,,,,,,,,,,,,,,,,,,,,,,,,,,,,,,,,,,,,,,,
,,,,,,612c95f4a142b9dc63cc45a0,62c53a4980569701d2f2d381,2022-07-06_09h29.49.531,Colour_Asymmetry_Pilot,2022.1.3,Win32,59.75143403,62c50e9c1127f2cd403a315f,0,137,137,93,1,threefour,,,,,,,,,,,,,,,,,,,,,,,,,,,,,,,,,,,,,,,,,,,,,,,,,,,,,,,,,,,,,,,,,,,,,,,,,,,,,,,,,,,,,,,,,,,,,,,,,,,,,,,,,,,,,,,,,,,,,,,,,,,,,,,,,,,,,,,,,,,,,,,,,,,,,,,,,,,,,
,,,,,,612c95f4a142b9dc63cc45a0,62c53a4980569701d2f2d381,2022-07-06_09h29.49.531,Colour_Asymmetry_Pilot,2022.1.3,Win32,59.75143403,62c50e9c1127f2cd403a315f,0,138,138,39,1,fourthree,,,,,,,,,,,,,,,,,,,,,,,,,,,,,,,,,,,,,,,,,,,,,,,,,,,,,,,,,,,,,,,,,,,,,,,,,,,,,,,,,,,,,,,,,,,,,,,,,,,,,,,,,,,,,,,,,,,,,,,,,,,,,,,,,,,,,,,,,,,,,,,,,,,,,,,,,,,,,
,,,,,,612c95f4a142b9dc63cc45a0,62c53a4980569701d2f2d381,2022-07-06_09h29.49.531,Colour_Asymmetry_Pilot,2022.1.3,Win32,59.75143403,62c50e9c1127f2cd403a315f,0,139,139,103,1,fourthree,,,,,,,,,,,,,,,,,,,,,,,,,,,,,,,,,,,,,,,,,,,,,,,,,,,,,,,,,,,,,,,,,,,,,,,,,,,,,,,,,,,,,,,,,,,,,,,,,,,,,,,,,,,,,,,,,,,,,,,,,,,,,,,,,,,,,,,,,,,,,,,,,,,,,,,,,,,,,
,,,,,,612c95f4a142b9dc63cc45a0,62c53a4980569701d2f2d381,2022-07-06_09h29.49.531,Colour_Asymmetry_Pilot,2022.1.3,Win32,59.75143403,62c50e9c1127f2cd403a315f,0,140,140,158,1,fourtwo,,,,,,,,,,,,,,,,,,,,,,,,,,,,,,,,,,,,,,,,,,,,,,,,,,,,,,,,,,,,,,,,,,,,,,,,,,,,,,,,,,,,,,,,,,,,,,,,,,,,,,,,,,,,,,,,,,,,,,,,,,,,,,,,,,,,,,,,,,,,,,,,,,,,,,,,,,,,,
,,,,,,612c95f4a142b9dc63cc45a0,62c53a4980569701d2f2d381,2022-07-06_09h29.49.531,Colour_Asymmetry_Pilot,2022.1.3,Win32,59.75143403,62c50e9c1127f2cd403a315f,0,141,141,100,1,threeone,,,,,,,,,,,,,,,,,,,,,,,,,,,,,,,,,,,,,,,,,,,,,,,,,,,,,,,,,,,,,,,,,,,,,,,,,,,,,,,,,,,,,,,,,,,,,,,,,,,,,,,,,,,,,,,,,,,,,,,,,,,,,,,,,,,,,,,,,,,,,,,,,,,,,,,,,,,,,
,,,,,,612c95f4a142b9dc63cc45a0,62c53a4980569701d2f2d381,2022-07-06_09h29.49.531,Colour_Asymmetry_Pilot,2022.1.3,Win32,59.75143403,62c50e9c1127f2cd403a315f,0,142,142,11,1,twofour,,,,,,,,,,,,,,,,,,,,,,,,,,,,,,,,,,,,,,,,,,,,,,,,,,,,,,,,,,,,,,,,,,,,,,,,,,,,,,,,,,,,,,,,,,,,,,,,,,,,,,,,,,,,,,,,,,,,,,,,,,,,,,,,,,,,,,,,,,,,,,,,,,,,,,,,,,,,,
,,,,,,612c95f4a142b9dc63cc45a0,62c53a4980569701d2f2d381,2022-07-06_09h29.49.531,Colour_Asymmetry_Pilot,2022.1.3,Win32,59.75143403,62c50e9c1127f2cd403a315f,0,143,143,140,1,threeone,,,,,,,,,,,,,,,,,,,,,,,,,,,,,,,,,,,,,,,,,,,,,,,,,,,,,,,,,,,,,,,,,,,,,,,,,,,,,,,,,,,,,,,,,,,,,,,,,,,,,,,,,,,,,,,,,,,,,,,,,,,,,,,,,,,,,,,,,,,,,,,,,,,,,,,,,,,,,
,,,,,,612c95f4a142b9dc63cc45a0,62c53a4980569701d2f2d381,2022-07-06_09h29.49.531,Colour_Asymmetry_Pilot,2022.1.3,Win32,59.75143403,62c50e9c1127f2cd403a315f,0,144,144,30,1,fourtwo,,,,,,,,,,,,,,,,,,,,,,,,,,,,,,,,,,,,,,,,,,,,,,,,,,,,,,,,,,,,,,,,,,,,,,,,,,,,,,,,,,,,,,,,,,,,,,,,,,,,,,,,,,,,,,,,,,,,,,,,,,,,,,,,,,,,,,,,,,,,,,,,,,,,,,,,,,,,,
,,,,,,612c95f4a142b9dc63cc45a0,62c53a4980569701d2f2d381,2022-07-06_09h29.49.531,Colour_Asymmetry_Pilot,2022.1.3,Win32,59.75143403,62c50e9c1127f2cd403a315f,0,145,145,3,1,twofour,,,,,,,,,,,,,,,,,,,,,,,,,,,,,,,,,,,,,,,,,,,,,,,,,,,,,,,,,,,,,,,,,,,,,,,,,,,,,,,,,,,,,,,,,,,,,,,,,,,,,,,,,,,,,,,,,,,,,,,,,,,,,,,,,,,,,,,,,,,,,,,,,,,,,,,,,,,,,
,,,,,,612c95f4a142b9dc63cc45a0,62c53a4980569701d2f2d381,2022-07-06_09h29.49.531,Colour_Asymmetry_Pilot,2022.1.3,Win32,59.75143403,62c50e9c1127f2cd403a315f,0,146,146,113,1,onethree,,,,,,,,,,,,,,,,,,,,,,,,,,,,,,,,,,,,,,,,,,,,,,,,,,,,,,,,,,,,,,,,,,,,,,,,,,,,,,,,,,,,,,,,,,,,,,,,,,,,,,,,,,,,,,,,,,,,,,,,,,,,,,,,,,,,,,,,,,,,,,,,,,,,,,,,,,,,,
,,,,,,612c95f4a142b9dc63cc45a0,62c53a4980569701d2f2d381,2022-07-06_09h29.49.531,Colour_Asymmetry_Pilot,2022.1.3,Win32,59.75143403,62c50e9c1127f2cd403a315f,0,147,147,82,1,twoone,,,,,,,,,,,,,,,,,,,,,,,,,,,,,,,,,,,,,,,,,,,,,,,,,,,,,,,,,,,,,,,,,,,,,,,,,,,,,,,,,,,,,,,,,,,,,,,,,,,,,,,,,,,,,,,,,,,,,,,,,,,,,,,,,,,,,,,,,,,,,,,,,,,,,,,,,,,,,
,,,,,,612c95f4a142b9dc63cc45a0,62c53a4980569701d2f2d381,2022-07-06_09h29.49.531,Colour_Asymmetry_Pilot,2022.1.3,Win32,59.75143403,62c50e9c1127f2cd403a315f,0,148,148,97,1,onethree,,,,,,,,,,,,,,,,,,,,,,,,,,,,,,,,,,,,,,,,,,,,,,,,,,,,,,,,,,,,,,,,,,,,,,,,,,,,,,,,,,,,,,,,,,,,,,,,,,,,,,,,,,,,,,,,,,,,,,,,,,,,,,,,,,,,,,,,,,,,,,,,,,,,,,,,,,,,,
,,,,,,612c95f4a142b9dc63cc45a0,62c53a4980569701d2f2d381,2022-07-06_09h29.49.531,Colour_Asymmetry_Pilot,2022.1.3,Win32,59.75143403,62c50e9c1127f2cd403a315f,0,149,149,101,1,threefour,,,,,,,,,,,,,,,,,,,,,,,,,,,,,,,,,,,,,,,,,,,,,,,,,,,,,,,,,,,,,,,,,,,,,,,,,,,,,,,,,,,,,,,,,,,,,,,,,,,,,,,,,,,,,,,,,,,,,,,,,,,,,,,,,,,,,,,,,,,,,,,,,,,,,,,,,,,,,
,,,,,,612c95f4a142b9dc63cc45a0,62c53a4980569701d2f2d381,2022-07-06_09h29.49.531,Colour_Asymmetry_Pilot,2022.1.3,Win32,59.75143403,62c50e9c1127f2cd403a315f,0,150,150,32,1,onetwo,,,,,,,,,,,,,,,,,,,,,,,,,,,,,,,,,,,,,,,,,,,,,,,,,,,,,,,,,,,,,,,,,,,,,,,,,,,,,,,,,,,,,,,,,,,,,,,,,,,,,,,,,,,,,,,,,,,,,,,,,,,,,,,,,,,,,,,,,,,,,,,,,,,,,,,,,,,,,
,,,,,,612c95f4a142b9dc63cc45a0,62c53a4980569701d2f2d381,2022-07-06_09h29.49.531,Colour_Asymmetry_Pilot,2022.1.3,Win32,59.75143403,62c50e9c1127f2cd403a315f,0,151,151,142,1,fourtwo,,,,,,,,,,,,,,,,,,,,,,,,,,,,,,,,,,,,,,,,,,,,,,,,,,,,,,,,,,,,,,,,,,,,,,,,,,,,,,,,,,,,,,,,,,,,,,,,,,,,,,,,,,,,,,,,,,,,,,,,,,,,,,,,,,,,,,,,,,,,,,,,,,,,,,,,,,,,,
,,,,,,612c95f4a142b9dc63cc45a0,62c53a4980569701d2f2d381,2022-07-06_09h29.49.531,Colour_Asymmetry_Pilot,2022.1.3,Win32,59.75143403,62c50e9c1127f2cd403a315f,0,152,152,8,1,onetwo,,,,,,,,,,,,,,,,,,,,,,,,,,,,,,,,,,,,,,,,,,,,,,,,,,,,,,,,,,,,,,,,,,,,,,,,,,,,,,,,,,,,,,,,,,,,,,,,,,,,,,,,,,,,,,,,,,,,,,,,,,,,,,,,,,,,,,,,,,,,,,,,,,,,,,,,,,,,,
,,,,,,612c95f4a142b9dc63cc45a0,62c53a4980569701d2f2d381,2022-07-06_09h29.49.531,Colour_Asymmetry_Pilot,2022.1.3,Win32,59.75143403,62c50e9c1127f2cd403a315f,0,153,153,61,1,threefour,,,,,,,,,,,,,,,,,,,,,,,,,,,,,,,,,,,,,,,,,,,,,,,,,,,,,,,,,,,,,,,,,,,,,,,,,,,,,,,,,,,,,,,,,,,,,,,,,,,,,,,,,,,,,,,,,,,,,,,,,,,,,,,,,,,,,,,,,,,,,,,,,,,,,,,,,,,,,
,,,,,,612c95f4a142b9dc63cc45a0,62c53a4980569701d2f2d381,2022-07-06_09h29.49.531,Colour_Asymmetry_Pilot,2022.1.3,Win32,59.75143403,62c50e9c1127f2cd403a315f,0,154,154,33,1,onethree,,,,,,,,,,,,,,,,,,,,,,,,,,,,,,,,,,,,,,,,,,,,,,,,,,,,,,,,,,,,,,,,,,,,,,,,,,,,,,,,,,,,,,,,,,,,,,,,,,,,,,,,,,,,,,,,,,,,,,,,,,,,,,,,,,,,,,,,,,,,,,,,,,,,,,,,,,,,,
,,,,,,612c95f4a142b9dc63cc45a0,62c53a4980569701d2f2d381,2022-07-06_09h29.49.531,Colour_Asymmetry_Pilot,2022.1.3,Win32,59.75143403,62c50e9c1127f2cd403a315f,0,155,155,80,1,onetwo,,,,,,,,,,,,,,,,,,,,,,,,,,,,,,,,,,,,,,,,,,,,,,,,,,,,,,,,,,,,,,,,,,,,,,,,,,,,,,,,,,,,,,,,,,,,,,,,,,,,,,,,,,,,,,,,,,,,,,,,,,,,,,,,,,,,,,,,,,,,,,,,,,,,,,,,,,,,,
,,,,,,612c95f4a142b9dc63cc45a0,62c53a4980569701d2f2d381,2022-07-06_09h29.49.531,Colour_Asymmetry_Pilot,2022.1.3,Win32,59.75143403,62c50e9c1127f2cd403a315f,0,156,156,89,1,onethree,,,,,,,,,,,,,,,,,,,,,,,,,,,,,,,,,,,,,,,,,,,,,,,,,,,,,,,,,,,,,,,,,,,,,,,,,,,,,,,,,,,,,,,,,,,,,,,,,,,,,,,,,,,,,,,,,,,,,,,,,,,,,,,,,,,,,,,,,,,,,,,,,,,,,,,,,,,,,
,,,,,,612c95f4a142b9dc63cc45a0,62c53a4980569701d2f2d381,2022-07-06_09h29.49.531,Colour_Asymmetry_Pilot,2022.1.3,Win32,59.75143403,62c50e9c1127f2cd403a315f,0,157,157,63,1,fourthree,,,,,,,,,,,,,,,,,,,,,,,,,,,,,,,,,,,,,,,,,,,,,,,,,,,,,,,,,,,,,,,,,,,,,,,,,,,,,,,,,,,,,,,,,,,,,,,,,,,,,,,,,,,,,,,,,,,,,,,,,,,,,,,,,,,,,,,,,,,,,,,,,,,,,,,,,,,,,
,,,,,,612c95f4a142b9dc63cc45a0,62c53a4980569701d2f2d381,2022-07-06_09h29.49.531,Colour_Asymmetry_Pilot,2022.1.3,Win32,59.75143403,62c50e9c1127f2cd403a315f,0,158,158,105,1,onethree,,,,,,,,,,,,,,,,,,,,,,,,,,,,,,,,,,,,,,,,,,,,,,,,,,,,,,,,,,,,,,,,,,,,,,,,,,,,,,,,,,,,,,,,,,,,,,,,,,,,,,,,,,,,,,,,,,,,,,,,,,,,,,,,,,,,,,,,,,,,,,,,,,,,,,,,,,,,,
,,,,,,612c95f4a142b9dc63cc45a0,62c53a4980569701d2f2d381,2022-07-06_09h29.49.531,Colour_Asymmetry_Pilot,2022.1.3,Win32,59.75143403,62c50e9c1127f2cd403a315f,0,159,159,102,1,fourtwo,,,,,,,,,,,,,,,,,,,,,,,,,,,,,,,,,,,,,,,,,,,,,,,,,,,,,,,,,,,,,,,,,,,,,,,,,,,,,,,,,,,,,,,,,,,,,,,,,,,,,,,,,,,,,,,,,,,,,,,,,,,,,,,,,,,,,,,,,,,,,,,,,,,,,,,,,,,,,
,,,,,,612c95f4a142b9dc63cc45a0,62c53a4980569701d2f2d381,2022-07-06_09h29.49.531,Colour_Asymmetry_Pilot,2022.1.3,Win32,59.75143403,62c50e9c1127f2cd403a315f,0,160,160,157,1,threefour,,,,,,,,,,,,,,,,,,,,,,,,,,,,,,,,,,,,,,,,,,,,,,,,,,,,,,,,,,,,,,,,,,,,,,,,,,,,,,,,,,,,,,,,,,,,,,,,,,,,,,,,,,,,,,,,,,,,,,,,,,,,,,,,,,,,,,,,,,,,,,,,,,,,,,,,,,,,,
,,,,,,612c95f4a142b9dc63cc45a0,62c53a4980569701d2f2d381,2022-07-06_09h29.49.531,Colour_Asymmetry_Pilot,2022.1.3,Win32,59.75143403,62c50e9c1127f2cd403a315f,0,161,161,150,1,fourtwo,,,,,,,,,,,,,,,,,,,,,,,,,,,,,,,,,,,,,,,,,,,,,,,,,,,,,,,,,,,,,,,,,,,,,,,,,,,,,,,,,,,,,,,,,,,,,,,,,,,,,,,,,,,,,,,,,,,,,,,,,,,,,,,,,,,,,,,,,,,,,,,,,,,,,,,,,,,,,
,,,,,,612c95f4a142b9dc63cc45a0,62c53a4980569701d2f2d381,2022-07-06_09h29.49.531,Colour_Asymmetry_Pilot,2022.1.3,Win32,59.75143403,62c50e9c1127f2cd403a315f,,,,,,,space,47.8964,space,8.732,space,26.5879,space,7.4635,space,3.5298,space,5.1608,"[-0.9766,-0.6472,0.07440000000000002]",fourthree,"[0.7802,-0.23140000000000005,-0.20799999999999996]",-4,15.9091,-43,98,1,0,0,response7disk_5,-2,-2,1,0,0,rectangle_8,-2,-2,1,0,0,2,-2,-2,1,0,0,0,0,0,0,1,,,,,,,,,,,,,,,,,,,,,,,,,,,,,,,,,,,,,,,,,,,,,,,,,,,,,,,,,,,,,,,,,,,,,,,,,,,,,,,,,,,,,,,,,,,,,,,,,,,,,,,,,,,,,,,,
,,,,,,612c95f4a142b9dc63cc45a0,62c53a4980569701d2f2d381,2022-07-06_09h29.49.531,Colour_Asymmetry_Pilot,2022.1.3,Win32,59.75143403,62c50e9c1127f2cd403a315f,,,,,,,,,,,,,,,,,,,"[0.23120000000000007,-0.7726,-0.34120000000000006]",fourtwo,"[-0.26280000000000003,-0.4746,-0.2158]",4,2.4546,23,100,1,0,0,response1disk_5,-2,8,1,0,0,rectangle_8,-2,8,1,0,0,2,-2,8,1,0,0,1,0,1,0,1,,,,,,,,,,,,,,,,,,,,,,,,,,,,,,,,,,,,,,,,,,,,,,,,,,,,,,,,,,,,,,,,,,,,,,,,,,,,,,,,,,,,,,,,,,,,,,,,,,,,,,,,,,,,,,,,
,,,,,,612c95f4a142b9dc63cc45a0,62c53a4980569701d2f2d381,2022-07-06_09h29.49.531,Colour_Asymmetry_Pilot,2022.1.3,Win32,59.75143403,62c50e9c1127f2cd403a315f,,,,,,,,,,,,,,,,,,,"[-0.9296,-0.12959999999999994,-0.043199999999999905]",onetwo,"[0.6547999999999998,-0.043199999999999905,-0.011800000000000033]",-4,2.0276,-33,92,1,0,0,response7disk_5,7,-8,1,0,0,rectangle_8,7,-8,1,0,0,2,7,-8,1,0,0,2,0,2,0,1,,,,,,,,,,,,,,,,,,,,,,,,,,,,,,,,,,,,,,,,,,,,,,,,,,,,,,,,,,,,,,,,,,,,,,,,,,,,,,,,,,,,,,,,,,,,,,,,,,,,,,,,,,,,,,,,
,,,,,,612c95f4a142b9dc63cc45a0,62c53a4980569701d2f2d381,2022-07-06_09h29.49.531,Colour_Asymmetry_Pilot,2022.1.3,Win32,59.75143403,62c50e9c1127f2cd403a315f,,,,,,,,,,,,,,,,,,,"[0.7646000000000002,0.07440000000000002,0.2704]",onetwo,"[-0.30200000000000005,0.14500000000000002,0.2784]",-4,3.0953,-37,85,1,0,0,response7disk_5,-12,-1,1,0,0,rectangle_8,71,-44,1,0,0,2,-7,7,1,0,0,3,0,3,0,1,response3disk_7,5,rectangle_4,,,,,,,,,,,,,,,,,,,,,,,,,,,,,,,,,,,,,,,,,,,,,,,,,,,,,,,,,,,,,,,,,,,,,,,,,,,,,,,,,,,,,,,,,,,,,,,,,,,,,,,,,,,,,
,,,,,,612c95f4a142b9dc63cc45a0,62c53a4980569701d2f2d381,2022-07-06_09h29.49.531,Colour_Asymmetry_Pilot,2022.1.3,Win32,59.75143403,62c50e9c1127f2cd403a315f,,,,,,,,,,,,,,,,,,,"[0.9763999999999999,0.8588,-0.05900000000000005]",twoone,"[0.796,0.2156,-0.27859999999999996]",4,3.714,24,99,1,0,0,response1disk_5,4,0,1,0,0,rectangle_8,4,0,1,0,0,2,4,0,1,0,0,4,0,4,0,1,,,,,,,,,,,,,,,,,,,,,,,,,,,,,,,,,,,,,,,,,,,,,,,,,,,,,,,,,,,,,,,,,,,,,,,,,,,,,,,,,,,,,,,,,,,,,,,,,,,,,,,,,,,,,,,,
,,,,,,612c95f4a142b9dc63cc45a0,62c53a4980569701d2f2d381,2022-07-06_09h29.49.531,Colour_Asymmetry_Pilot,2022.1.3,Win32,59.75143403,62c50e9c1127f2cd403a315f,,,,,,,,,,,,,,,,,,,"[0.7802,-0.23140000000000005,-0.20799999999999996]",fourthree,"[-0.9688,-0.7412000000000001,-0.4902000000000001]",-4,3.0109,-36,92,1,0,0,response7disk_5,5,-2,1,0,0,rectangle_8,113,-47,1,0,0,2,26,-8,1,0,0,5,0,5,0,1,response3disk_7,5,rectangle_4,,,,,,,,,,,,,,,,,,,,,,,,,,,,,,,,,,,,,,,,,,,,,,,,,,,,,,,,,,,,,,,,,,,,,,,,,,,,,,,,,,,,,,,,,,,,,,,,,,,,,,,,,,,,,
,,,,,,612c95f4a142b9dc63cc45a0,62c53a4980569701d2f2d381,2022-07-06_09h29.49.531,Colour_Asymmetry_Pilot,2022.1.3,Win32,59.75143403,62c50e9c1127f2cd403a315f,,,,,,,,,,,,,,,,,,,"[-0.011800000000000033,-0.906,-0.45100000000000007]",twoone,"[0.40379999999999994,0.09000000000000008,0.44300000000000006]",4,2.5584,44,84,1,0,0,response1disk_5,4,-5,1,0,0,rectangle_8,4,-5,1,0,0,2,4,-5,1,0,0,6,0,6,0,1,,,,,,,,,,,,,,,,,,,,,,,,,,,,,,,,,,,,,,,,,,,,,,,,,,,,,,,,,,,,,,,,,,,,,,,,,,,,,,,,,,,,,,,,,,,,,,,,,,,,,,,,,,,,,,,,
,,,,,,612c95f4a142b9dc63cc45a0,62c53a4980569701d2f2d381,2022-07-06_09h29.49.531,Colour_Asymmetry_Pilot,2022.1.3,Win32,59.75143403,62c50e9c1127f2cd403a315f,,,,,,,,,,,,,,,,,,,,threeone,,3,1.4051,,,,,,,,,,,,,,,,,,,,,,,,,,,,,,,,space,4.429,"[0.5449999999999999,-0.31000000000000005,-0.0354000000000001]","[-0.011800000000000033,-0.906,-0.45100000000000007]",67,48,1,0,0,response1disk,1,1,1,0,0,rectangle,1,1,1,0,0,,2,0.0057,0,1,1,1,0,0,0,0,0,103,1,22,second,,,,,,,,,,,,,,,,,,,,,,,,,,,,,,,,,,,,,,,,,,,,,,,,,,,,,,,,,,,,,,,,,,,,,,,,
,,,,,,612c95f4a142b9dc63cc45a0,62c53a4980569701d2f2d381,2022-07-06_09h29.49.531,Colour_Asymmetry_Pilot,2022.1.3,Win32,59.75143403,62c50e9c1127f2cd403a315f,,,,,,,,,,,,,,,,,,,,onetwo,,3,0.903,,,,,,,,,,,,,,,,,,,,,,,,,,,,,,,,,,"[-0.48240000000000005,0.3175999999999999,0.2156]","[0.7018,0.7176,0.6155999999999999]",93,32,1,0,0,response1disk,-2,2,1,0,0,rectangle,-2,2,1,0,0,,3,0.0022,0,-2,2,1,0,0,0,1,1,138,1,57,second,,,,,,,,,,,,,,,,,,,,,,,,,,,,,,,,,,,,,,,,,,,,,,,,,,,,,,,,,,,,,,,,,,,,,,,,
,,,,,,612c95f4a142b9dc63cc45a0,62c53a4980569701d2f2d381,2022-07-06_09h29.49.531,Colour_Asymmetry_Pilot,2022.1.3,Win32,59.75143403,62c50e9c1127f2cd403a315f,,,,,,,,,,,,,,,,,,,,twofour,,4,3.3956,,,,,,,,,,,,,,,,,,,,,,,,,,,,,,,,,,"[-0.38039999999999996,-0.4276,-0.1452]","[0.9763999999999999,0.30979999999999985,-0.6786]",31,84,1,0,0,response1disk,6,-1,1,0,0,rectangle,6,-1,1,0,0,,1,0.0015,0,6,-1,1,0,0,0,2,2,157,1,76,second,,,,,,,,,,,,,,,,,,,,,,,,,,,,,,,,,,,,,,,,,,,,,,,,,,,,,,,,,,,,,,,,,,,,,,,,
,,,,,,612c95f4a142b9dc63cc45a0,62c53a4980569701d2f2d381,2022-07-06_09h29.49.531,Colour_Asymmetry_Pilot,2022.1.3,Win32,59.75143403,62c50e9c1127f2cd403a315f,,,,,,,,,,,,,,,,,,,,twoone,,4,2.0622,,,,,,,,,,,,,,,,,,,,,,,,,,,,,,,,,,"[-0.26280000000000003,-0.2158,-0.3256]","[0.8274000000000001,-0.5844,-0.9452]",21,58,1,0,0,response1disk,16,-8,1,0,0,rectangle,16,-8,1,0,0,,2,0.0018,0,16,-8,1,0,0,0,3,3,110,1,29,second,,,,,,,,,,,,,,,,,,,,,,,,,,,,,,,,,,,,,,,,,,,,,,,,,,,,,,,,,,,,,,,,,,,,,,,,
,,,,,,612c95f4a142b9dc63cc45a0,62c53a4980569701d2f2d381,2022-07-06_09h29.49.531,Colour_Asymmetry_Pilot,2022.1.3,Win32,59.75143403,62c50e9c1127f2cd403a315f,,,,,,,,,,,,,,,,,,,,fourtwo,,-4,1.3078,,,,,,,,,,,,,,,,,,,,,,,,,,,,,,,,,,"[-0.6706000000000001,-0.6157999999999999,-0.6786]","[-0.4746,-0.0354000000000001,0.5449999999999999]",-22,87,1,0,0,response7disk,-18,-13,1,0,0,rectangle,-18,-13,1,0,0,,1,0.0025,0,-18,-13,1,0,0,0,4,4,115,1,34,second,,,,,,,,,,,,,,,,,,,,,,,,,,,,,,,,,,,,,,,,,,,,,,,,,,,,,,,,,,,,,,,,,,,,,,,,
,,,,,,612c95f4a142b9dc63cc45a0,62c53a4980569701d2f2d381,2022-07-06_09h29.49.531,Colour_Asymmetry_Pilot,2022.1.3,Win32,59.75143403,62c50e9c1127f2cd403a315f,,,,,,,,,,,,,,,,,,,,threeone,,-4,3.1246,,,,,,,,,,,,,,,,,,,,,,,,,,,,,,,,,,"[-0.01980000000000004,-0.5138,-0.38039999999999996]","[0.23920000000000008,0.2704,0.16060000000000008]",-27,94,1,0,0,response7disk,-1,-1,1,0,0,rectangle,-1,-1,1,0,0,,3,0.0032,0,-1,-1,1,0,0,0,5,5,23,1,23,first,,,,,,,,,,,,,,,,,,,,,,,,,,,,,,,,,,,,,,,,,,,,,,,,,,,,,,,,,,,,,,,,,,,,,,,,
,,,,,,612c95f4a142b9dc63cc45a0,62c53a4980569701d2f2d381,2022-07-06_09h29.49.531,Colour_Asymmetry_Pilot,2022.1.3,Win32,59.75143403,62c50e9c1127f2cd403a315f,,,,,,,,,,,,,,,,,,,,twofour,,-4,1.4228,,,,,,,,,,,,,,,,,,,,,,,,,,,,,,,,,,"[-0.6942,-0.7648,-0.12959999999999994]","[0.9372,0.20779999999999998,0.2704]",-25,99,1,0,0,response7disk,9,0,1,0,0,rectangle,9,0,1,0,0,,3,0.0004,0,9,0,1,0,0,0,6,6,7,1,7,first,,,,,,,,,,,,,,,,,,,,,,,,,,,,,,,,,,,,,,,,,,,,,,,,,,,,,,,,,,,,,,,,,,,,,,,,
,,,,,,612c95f4a142b9dc63cc45a0,62c53a4980569701d2f2d381,2022-07-06_09h29.49.531,Colour_Asymmetry_Pilot,2022.1.3,Win32,59.75143403,62c50e9c1127f2cd403a315f,,,,,,,,,,,,,,,,,,,,twofour,,-4,0.5907,,,,,,,,,,,,,,,,,,,,,,,,,,,,,,,,,,"[-0.4276,0.0038000000000000256,-0.3256]","[0.9842,0.7409999999999999,-0.6628000000000001]",-24,86,1,0,0,response7disk,-7,3,1,0,0,rectangle,-7,3,1,0,0,,3,0.0004,0,-7,3,1,0,0,0,7,7,13,1,13,first,,,,,,,,,,,,,,,,,,,,,,,,,,,,,,,,,,,,,,,,,,,,,,,,,,,,,,,,,,,,,,,,,,,,,,,,
,,,,,,612c95f4a142b9dc63cc45a0,62c53a4980569701d2f2d381,2022-07-06_09h29.49.531,Colour_Asymmetry_Pilot,2022.1.3,Win32,59.75143403,62c50e9c1127f2cd403a315f,,,,,,,,,,,,,,,,,,,,onethree,,-4,0.8589,,,,,,,,,,,,,,,,,,,,,,,,,,,,,,,,,,"[-0.4668,-0.8746,-0.2942]","[0.34099999999999997,0.12939999999999996,-0.9766]",-23,89,1,0,0,response7disk,14,-7,1,0,0,rectangle,14,-7,1,0,0,,1,0.0017,0,14,-7,1,0,0,0,8,8,44,1,44,first,,,,,,,,,,,,,,,,,,,,,,,,,,,,,,,,,,,,,,,,,,,,,,,,,,,,,,,,,,,,,,,,,,,,,,,,
,,,,,,612c95f4a142b9dc63cc45a0,62c53a4980569701d2f2d381,2022-07-06_09h29.49.531,Colour_Asymmetry_Pilot,2022.1.3,Win32,59.75143403,62c50e9c1127f2cd403a315f,,,,,,,,,,,,,,,,,,,,onethree,,-4,0.4218,,,,,,,,,,,,,,,,,,,,,,,,,,,,,,,,,,"[-0.17659999999999998,0.3253999999999999,0.19999999999999996]","[-0.2942,-0.7648,-0.7492000000000001]",-51,90,1,0,0,response7disk,4,-4,1,0,0,rectangle,4,-4,1,0,0,,3,0.0017,0,4,-4,1,0,0,0,9,9,47,1,47,first,,,,,,,,,,,,,,,,,,,,,,,,,,,,,,,,,,,,,,,,,,,,,,,,,,,,,,,,,,,,,,,,,,,,,,,,
,,,,,,612c95f4a142b9dc63cc45a0,62c53a4980569701d2f2d381,2022-07-06_09h29.49.531,Colour_Asymmetry_Pilot,2022.1.3,Win32,59.75143403,62c50e9c1127f2cd403a315f,,,,,,,,,,,,,,,,,,,,twofour,,-4,38.8357,,,,,,,,,,,,,,,,,,,,,,,,,,,,,,,,,,"[0.9763999999999999,0.8588,-0.05900000000000005]","[0.3568,-0.20799999999999996,-0.9844]",-63,92,1,0,0,response7disk,1,7,1,0,0,rectangle,1,7,1,0,0,,1,0.0028,0,1,7,1,0,0,0,10,10,48,1,48,first,,,,,,,,,,,,,,,,,,,,,,,,,,,,,,,,,,,,,,,,,,,,,,,,,,,,,,,,,,,,,,,,,,,,,,,,
,,,,,,612c95f4a142b9dc63cc45a0,62c53a4980569701d2f2d381,2022-07-06_09h29.49.531,Colour_Asymmetry_Pilot,2022.1.3,Win32,59.75143403,62c50e9c1127f2cd403a315f,,,,,,,,,,,,,,,,,,,,onetwo,,-4,0.7695,,,,,,,,,,,,,,,,,,,,,,,,,,,,,,,,,,"[-0.9766,-0.34920000000000007,0.2156]","[0.5528,0.7409999999999999,-0.71]",-67,98,1,0,0,response7disk,1,-14,1,0,0,rectangle,1,-14,1,0,0,,2,0.0025,0,1,-14,1,0,0,0,11,11,141,1,60,second,,,,,,,,,,,,,,,,,,,,,,,,,,,,,,,,,,,,,,,,,,,,,,,,,,,,,,,,,,,,,,,,,,,,,,,,
,,,,,,612c95f4a142b9dc63cc45a0,62c53a4980569701d2f2d381,2022-07-06_09h29.49.531,Colour_Asymmetry_Pilot,2022.1.3,Win32,59.75143403,62c50e9c1127f2cd403a315f,,,,,,,,,,,,,,,,,,,,fourtwo,,-4,0.4007,,,,,,,,,,,,,,,,,,,,,,,,,,,,,,,,,,"[0.9763999999999999,-0.1137999999999999,-0.6314]","[-0.09019999999999995,0.44300000000000006,0.5371999999999999]",-25,61,1,0,0,response7disk,6,-1,1,0,0,rectangle,6,-1,1,0,0,,2,0.0006,0,6,-1,1,0,0,0,12,12,67,1,67,first,,,,,,,,,,,,,,,,,,,,,,,,,,,,,,,,,,,,,,,,,,,,,,,,,,,,,,,,,,,,,,,,,,,,,,,,
,,,,,,612c95f4a142b9dc63cc45a0,62c53a4980569701d2f2d381,2022-07-06_09h29.49.531,Colour_Asymmetry_Pilot,2022.1.3,Win32,59.75143403,62c50e9c1127f2cd403a315f,,,,,,,,,,,,,,,,,,,,onethree,,-1,1.7399,,,,,,,,,,,,,,,,,,,,,,,,,,,,,,,,,,"[0.09799999999999986,-0.24719999999999998,0.15280000000000005]","[-0.2942,-0.7648,-0.7492000000000001]",-57,-81,1,0,0,response5disk,6,13,1,0,0,rectangle,6,13,1,0,0,,1,0.0035,0,6,13,1,0,0,0,13,13,49,1,49,first,,,,,,,,,,,,,,,,,,,,,,,,,,,,,,,,,,,,,,,,,,,,,,,,,,,,,,,,,,,,,,,,,,,,,,,,
,,,,,,612c95f4a142b9dc63cc45a0,62c53a4980569701d2f2d381,2022-07-06_09h29.49.531,Colour_Asymmetry_Pilot,2022.1.3,Win32,59.75143403,62c50e9c1127f2cd403a315f,,,,,,,,,,,,,,,,,,,,onethree,,-4,0.4968,,,,,,,,,,,,,,,,,,,,,,,,,,,,,,,,,,"[-0.5452,-0.608,0.2470000000000001]","[-0.7412000000000001,-0.08239999999999992,-0.6864]",-68,115,1,0,0,response7disk,20,-7,1,0,0,rectangle,20,-7,1,0,0,,2,0.0017,0,20,-7,1,0,0,0,14,14,45,1,45,first,,,,,,,,,,,,,,,,,,,,,,,,,,,,,,,,,,,,,,,,,,,,,,,,,,,,,,,,,,,,,,,,,,,,,,,,
,,,,,,612c95f4a142b9dc63cc45a0,62c53a4980569701d2f2d381,2022-07-06_09h29.49.531,Colour_Asymmetry_Pilot,2022.1.3,Win32,59.75143403,62c50e9c1127f2cd403a315f,,,,,,,,,,,,,,,,,,,,fourthree,,1,1.845,,,,,,,,,,,,,,,,,,,,,,,,,,,,,,,,,,"[-0.45899999999999996,-0.3256,-0.9374]","[-0.06680000000000008,-0.45100000000000007,-0.906]",39,-96,1,0,0,response3disk,-18,2,1,0,0,rectangle,-18,2,1,0,0,,2,0.0011,0,-18,2,1,0,0,0,15,15,82,1,1,second,,,,,,,,,,,,,,,,,,,,,,,,,,,,,,,,,,,,,,,,,,,,,,,,,,,,,,,,,,,,,,,,,,,,,,,,
,,,,,,612c95f4a142b9dc63cc45a0,62c53a4980569701d2f2d381,2022-07-06_09h29.49.531,Colour_Asymmetry_Pilot,2022.1.3,Win32,59.75143403,62c50e9c1127f2cd403a315f,,,,,,,,,,,,,,,,,,,,onethree,,-4,1.4218,,,,,,,,,,,,,,,,,,,,,,,,,,,,,,,,,,"[-0.09019999999999995,0.44300000000000006,0.5371999999999999]","[0.9763999999999999,-0.1137999999999999,-0.6314]",-48,81,1,0,0,response7disk,6,-1,1,0,0,rectangle,6,-1,1,0,0,,3,0.0016,0,6,-1,1,0,0,0,16,16,148,1,67,second,,,,,,,,,,,,,,,,,,,,,,,,,,,,,,,,,,,,,,,,,,,,,,,,,,,,,,,,,,,,,,,,,,,,,,,,
,,,,,,612c95f4a142b9dc63cc45a0,62c53a4980569701d2f2d381,2022-07-06_09h29.49.531,Colour_Asymmetry_Pilot,2022.1.3,Win32,59.75143403,62c50e9c1127f2cd403a315f,,,,,,,,,,,,,,,,,,,,onethree,,-4,0.5858,,,,,,,,,,,,,,,,,,,,,,,,,,,,,,,,,,"[-0.4746,-0.0354000000000001,0.5449999999999999]","[0.40379999999999994,0.09000000000000008,0.44300000000000006]",-33,68,1,0,0,response7disk,1,-1,1,0,0,rectangle,1,-1,1,0,0,,1,0.0018,0,1,-1,1,0,0,0,17,17,39,1,39,first,,,,,,,,,,,,,,,,,,,,,,,,,,,,,,,,,,,,,,,,,,,,,,,,,,,,,,,,,,,,,,,,,,,,,,,,
