trials.thisRepN,trials.thisTrialN,trials.thisN,trials.thisIndex,trials.ran,Colourcodes,participant,session,date,expName,psychopyVersion,OS,frameRate,study_id,trials_4.thisRepN,trials_4.thisTrialN,trials_4.thisN,trials_4.thisIndex,trials_4.ran,StimulusPos,key_resp.keys,key_resp.rt,key_resp_2.keys,key_resp_2.rt,key_resp_15.keys,key_resp_15.rt,key_resp_17.keys,key_resp_17.rt,key_resp_9.keys,key_resp_9.rt,key_resp_10.keys,key_resp_10.rt,Circle1_col,Ecc,Circle2_col,similarity,response_time,mouse_5.x,mouse_5.y,mouse_5.leftButton,mouse_5.midButton,mouse_5.rightButton,mouse_5.clicked_name,mouse_10.x,mouse_10.y,mouse_10.leftButton,mouse_10.midButton,mouse_10.rightButton,mouse_10.clicked_name,mouse_7.x,mouse_7.y,mouse_7.leftButton,mouse_7.midButton,mouse_7.rightButton,catchnumberprac,mouse_6.x,mouse_6.y,mouse_6.leftButton,mouse_6.midButton,mouse_6.rightButton,duringprac.thisRepN,duringprac.thisTrialN,duringprac.thisN,duringprac.thisIndex,duringprac.ran,mouse_7.clicked_name,catchprac,mouse_6.clicked_name,key_resp_22.keys,key_resp_22.rt,Circle1_colour,Circle2_colour,mouse.x,mouse.y,mouse.leftButton,mouse.midButton,mouse.rightButton,mouse.clicked_name,mouse_2.x,mouse_2.y,mouse_2.leftButton,mouse_2.midButton,mouse_2.rightButton,mouse_2.clicked_name,mouse_3.x,mouse_3.y,mouse_3.leftButton,mouse_3.midButton,mouse_3.rightButton,catchresponse,catchnumber,response_time_catch,Catch,mouse_11.x,mouse_11.y,mouse_11.leftButton,mouse_11.midButton,mouse_11.rightButton,trials_2.thisRepN,trials_2.thisTrialN,trials_2.thisN,trials_2.thisIndex,trials_2.ran,Colourpair,Temporder,mouse_3.clicked_name,mouse_11.clicked_name,trials_3.thisRepN,trials_3.thisTrialN,trials_3.thisN,trials_3.thisIndex,trials_3.ran,key_resp_instr_Ishi.keys,key_resp_instr_Ishi.rt,Ishi_trial_keyresp.keys,Ishi_textbox.text,Ishi_mouse.x,Ishi_mouse.y,Ishi_mouse.leftButton,Ishi_mouse.midButton,Ishi_mouse.rightButton,Ishi_mouse.clicked_name,Ishi_loop.thisRepN,Ishi_loop.thisTrialN,Ishi_loop.thisN,Ishi_loop.thisIndex,Ishi_loop.ran,imageaddress,textbox.text,mouse_4.x,mouse_4.y,mouse_4.leftButton,mouse_4.midButton,mouse_4.rightButton,mouse_4.clicked_name,textbox_2.text,mouse_8.x,mouse_8.y,mouse_8.leftButton,mouse_8.midButton,mouse_8.rightButton,mouse_8.clicked_name,textbox_3.text,mouse_9.x,mouse_9.y,mouse_9.leftButton,mouse_9.midButton,mouse_9.rightButton,mouse_9.clicked_name,textbox_4.text,mouse_12.x,mouse_12.y,mouse_12.leftButton,mouse_12.midButton,mouse_12.rightButton,mouse_12.clicked_name,textbox_5.text,mouse_13.x,mouse_13.y,mouse_13.leftButton,mouse_13.midButton,mouse_13.rightButton,mouse_13.clicked_name,textbox_6.text,mouse_14.x,mouse_14.y,mouse_14.leftButton,mouse_14.midButton,mouse_14.rightButton,mouse_14.clicked_name,textbox_7.text,mouse_15.x,mouse_15.y,mouse_15.leftButton,mouse_15.midButton,mouse_15.rightButton,mouse_15.clicked_name
0,0,0,65,1,,5eb1b16b14e51e2de3f13827,62c53996ae27c2a639f10eee,2022-07-06_10h30.47.570,Colour_Asymmetry_Pilot,2022.1.3,Win32,59.95922773,62c50e9c1127f2cd403a315f,,,,,,,,,,,,,,,,,,,,,,,,,,,,,,,,,,,,,,,,,,,,,,,,,,,,,,,,,,,,,,,,,,,,,,,,,,,,,,,,,,,,,,,,,,,,,,,,,,,,,,,,,,,,,,,,,,,,,,,,,,,,,,,,,,,,,,,,,,,,,,,,,,,,,,,,,,,,,,,,,,,
0,1,1,34,1,,5eb1b16b14e51e2de3f13827,62c53996ae27c2a639f10eee,2022-07-06_10h30.47.570,Colour_Asymmetry_Pilot,2022.1.3,Win32,59.95922773,62c50e9c1127f2cd403a315f,,,,,,,,,,,,,,,,,,,,,,,,,,,,,,,,,,,,,,,,,,,,,,,,,,,,,,,,,,,,,,,,,,,,,,,,,,,,,,,,,,,,,,,,,,,,,,,,,,,,,,,,,,,,,,,,,,,,,,,,,,,,,,,,,,,,,,,,,,,,,,,,,,,,,,,,,,,,,,,,,,,
0,2,2,10,1,,5eb1b16b14e51e2de3f13827,62c53996ae27c2a639f10eee,2022-07-06_10h30.47.570,Colour_Asymmetry_Pilot,2022.1.3,Win32,59.95922773,62c50e9c1127f2cd403a315f,,,,,,,,,,,,,,,,,,,,,,,,,,,,,,,,,,,,,,,,,,,,,,,,,,,,,,,,,,,,,,,,,,,,,,,,,,,,,,,,,,,,,,,,,,,,,,,,,,,,,,,,,,,,,,,,,,,,,,,,,,,,,,,,,,,,,,,,,,,,,,,,,,,,,,,,,,,,,,,,,,,
0,3,3,18,1,,5eb1b16b14e51e2de3f13827,62c53996ae27c2a639f10eee,2022-07-06_10h30.47.570,Colour_Asymmetry_Pilot,2022.1.3,Win32,59.95922773,62c50e9c1127f2cd403a315f,,,,,,,,,,,,,,,,,,,,,,,,,,,,,,,,,,,,,,,,,,,,,,,,,,,,,,,,,,,,,,,,,,,,,,,,,,,,,,,,,,,,,,,,,,,,,,,,,,,,,,,,,,,,,,,,,,,,,,,,,,,,,,,,,,,,,,,,,,,,,,,,,,,,,,,,,,,,,,,,,,,
0,4,4,23,1,,5eb1b16b14e51e2de3f13827,62c53996ae27c2a639f10eee,2022-07-06_10h30.47.570,Colour_Asymmetry_Pilot,2022.1.3,Win32,59.95922773,62c50e9c1127f2cd403a315f,,,,,,,,,,,,,,,,,,,,,,,,,,,,,,,,,,,,,,,,,,,,,,,,,,,,,,,,,,,,,,,,,,,,,,,,,,,,,,,,,,,,,,,,,,,,,,,,,,,,,,,,,,,,,,,,,,,,,,,,,,,,,,,,,,,,,,,,,,,,,,,,,,,,,,,,,,,,,,,,,,,
0,5,5,49,1,,5eb1b16b14e51e2de3f13827,62c53996ae27c2a639f10eee,2022-07-06_10h30.47.570,Colour_Asymmetry_Pilot,2022.1.3,Win32,59.95922773,62c50e9c1127f2cd403a315f,,,,,,,,,,,,,,,,,,,,,,,,,,,,,,,,,,,,,,,,,,,,,,,,,,,,,,,,,,,,,,,,,,,,,,,,,,,,,,,,,,,,,,,,,,,,,,,,,,,,,,,,,,,,,,,,,,,,,,,,,,,,,,,,,,,,,,,,,,,,,,,,,,,,,,,,,,,,,,,,,,,
0,6,6,60,1,,5eb1b16b14e51e2de3f13827,62c53996ae27c2a639f10eee,2022-07-06_10h30.47.570,Colour_Asymmetry_Pilot,2022.1.3,Win32,59.95922773,62c50e9c1127f2cd403a315f,,,,,,,,,,,,,,,,,,,,,,,,,,,,,,,,,,,,,,,,,,,,,,,,,,,,,,,,,,,,,,,,,,,,,,,,,,,,,,,,,,,,,,,,,,,,,,,,,,,,,,,,,,,,,,,,,,,,,,,,,,,,,,,,,,,,,,,,,,,,,,,,,,,,,,,,,,,,,,,,,,,
0,7,7,2,1,,5eb1b16b14e51e2de3f13827,62c53996ae27c2a639f10eee,2022-07-06_10h30.47.570,Colour_Asymmetry_Pilot,2022.1.3,Win32,59.95922773,62c50e9c1127f2cd403a315f,,,,,,,,,,,,,,,,,,,,,,,,,,,,,,,,,,,,,,,,,,,,,,,,,,,,,,,,,,,,,,,,,,,,,,,,,,,,,,,,,,,,,,,,,,,,,,,,,,,,,,,,,,,,,,,,,,,,,,,,,,,,,,,,,,,,,,,,,,,,,,,,,,,,,,,,,,,,,,,,,,,
0,8,8,35,1,,5eb1b16b14e51e2de3f13827,62c53996ae27c2a639f10eee,2022-07-06_10h30.47.570,Colour_Asymmetry_Pilot,2022.1.3,Win32,59.95922773,62c50e9c1127f2cd403a315f,,,,,,,,,,,,,,,,,,,,,,,,,,,,,,,,,,,,,,,,,,,,,,,,,,,,,,,,,,,,,,,,,,,,,,,,,,,,,,,,,,,,,,,,,,,,,,,,,,,,,,,,,,,,,,,,,,,,,,,,,,,,,,,,,,,,,,,,,,,,,,,,,,,,,,,,,,,,,,,,,,,
0,9,9,67,1,,5eb1b16b14e51e2de3f13827,62c53996ae27c2a639f10eee,2022-07-06_10h30.47.570,Colour_Asymmetry_Pilot,2022.1.3,Win32,59.95922773,62c50e9c1127f2cd403a315f,,,,,,,,,,,,,,,,,,,,,,,,,,,,,,,,,,,,,,,,,,,,,,,,,,,,,,,,,,,,,,,,,,,,,,,,,,,,,,,,,,,,,,,,,,,,,,,,,,,,,,,,,,,,,,,,,,,,,,,,,,,,,,,,,,,,,,,,,,,,,,,,,,,,,,,,,,,,,,,,,,,
0,10,10,83,1,,5eb1b16b14e51e2de3f13827,62c53996ae27c2a639f10eee,2022-07-06_10h30.47.570,Colour_Asymmetry_Pilot,2022.1.3,Win32,59.95922773,62c50e9c1127f2cd403a315f,,,,,,,,,,,,,,,,,,,,,,,,,,,,,,,,,,,,,,,,,,,,,,,,,,,,,,,,,,,,,,,,,,,,,,,,,,,,,,,,,,,,,,,,,,,,,,,,,,,,,,,,,,,,,,,,,,,,,,,,,,,,,,,,,,,,,,,,,,,,,,,,,,,,,,,,,,,,,,,,,,,
0,11,11,22,1,,5eb1b16b14e51e2de3f13827,62c53996ae27c2a639f10eee,2022-07-06_10h30.47.570,Colour_Asymmetry_Pilot,2022.1.3,Win32,59.95922773,62c50e9c1127f2cd403a315f,,,,,,,,,,,,,,,,,,,,,,,,,,,,,,,,,,,,,,,,,,,,,,,,,,,,,,,,,,,,,,,,,,,,,,,,,,,,,,,,,,,,,,,,,,,,,,,,,,,,,,,,,,,,,,,,,,,,,,,,,,,,,,,,,,,,,,,,,,,,,,,,,,,,,,,,,,,,,,,,,,,
0,12,12,50,1,,5eb1b16b14e51e2de3f13827,62c53996ae27c2a639f10eee,2022-07-06_10h30.47.570,Colour_Asymmetry_Pilot,2022.1.3,Win32,59.95922773,62c50e9c1127f2cd403a315f,,,,,,,,,,,,,,,,,,,,,,,,,,,,,,,,,,,,,,,,,,,,,,,,,,,,,,,,,,,,,,,,,,,,,,,,,,,,,,,,,,,,,,,,,,,,,,,,,,,,,,,,,,,,,,,,,,,,,,,,,,,,,,,,,,,,,,,,,,,,,,,,,,,,,,,,,,,,,,,,,,,
0,13,13,14,1,,5eb1b16b14e51e2de3f13827,62c53996ae27c2a639f10eee,2022-07-06_10h30.47.570,Colour_Asymmetry_Pilot,2022.1.3,Win32,59.95922773,62c50e9c1127f2cd403a315f,,,,,,,,,,,,,,,,,,,,,,,,,,,,,,,,,,,,,,,,,,,,,,,,,,,,,,,,,,,,,,,,,,,,,,,,,,,,,,,,,,,,,,,,,,,,,,,,,,,,,,,,,,,,,,,,,,,,,,,,,,,,,,,,,,,,,,,,,,,,,,,,,,,,,,,,,,,,,,,,,,,
0,14,14,66,1,,5eb1b16b14e51e2de3f13827,62c53996ae27c2a639f10eee,2022-07-06_10h30.47.570,Colour_Asymmetry_Pilot,2022.1.3,Win32,59.95922773,62c50e9c1127f2cd403a315f,,,,,,,,,,,,,,,,,,,,,,,,,,,,,,,,,,,,,,,,,,,,,,,,,,,,,,,,,,,,,,,,,,,,,,,,,,,,,,,,,,,,,,,,,,,,,,,,,,,,,,,,,,,,,,,,,,,,,,,,,,,,,,,,,,,,,,,,,,,,,,,,,,,,,,,,,,,,,,,,,,,
0,15,15,64,1,,5eb1b16b14e51e2de3f13827,62c53996ae27c2a639f10eee,2022-07-06_10h30.47.570,Colour_Asymmetry_Pilot,2022.1.3,Win32,59.95922773,62c50e9c1127f2cd403a315f,,,,,,,,,,,,,,,,,,,,,,,,,,,,,,,,,,,,,,,,,,,,,,,,,,,,,,,,,,,,,,,,,,,,,,,,,,,,,,,,,,,,,,,,,,,,,,,,,,,,,,,,,,,,,,,,,,,,,,,,,,,,,,,,,,,,,,,,,,,,,,,,,,,,,,,,,,,,,,,,,,,
0,16,16,70,1,,5eb1b16b14e51e2de3f13827,62c53996ae27c2a639f10eee,2022-07-06_10h30.47.570,Colour_Asymmetry_Pilot,2022.1.3,Win32,59.95922773,62c50e9c1127f2cd403a315f,,,,,,,,,,,,,,,,,,,,,,,,,,,,,,,,,,,,,,,,,,,,,,,,,,,,,,,,,,,,,,,,,,,,,,,,,,,,,,,,,,,,,,,,,,,,,,,,,,,,,,,,,,,,,,,,,,,,,,,,,,,,,,,,,,,,,,,,,,,,,,,,,,,,,,,,,,,,,,,,,,,
0,17,17,53,1,,5eb1b16b14e51e2de3f13827,62c53996ae27c2a639f10eee,2022-07-06_10h30.47.570,Colour_Asymmetry_Pilot,2022.1.3,Win32,59.95922773,62c50e9c1127f2cd403a315f,,,,,,,,,,,,,,,,,,,,,,,,,,,,,,,,,,,,,,,,,,,,,,,,,,,,,,,,,,,,,,,,,,,,,,,,,,,,,,,,,,,,,,,,,,,,,,,,,,,,,,,,,,,,,,,,,,,,,,,,,,,,,,,,,,,,,,,,,,,,,,,,,,,,,,,,,,,,,,,,,,,
0,18,18,56,1,,5eb1b16b14e51e2de3f13827,62c53996ae27c2a639f10eee,2022-07-06_10h30.47.570,Colour_Asymmetry_Pilot,2022.1.3,Win32,59.95922773,62c50e9c1127f2cd403a315f,,,,,,,,,,,,,,,,,,,,,,,,,,,,,,,,,,,,,,,,,,,,,,,,,,,,,,,,,,,,,,,,,,,,,,,,,,,,,,,,,,,,,,,,,,,,,,,,,,,,,,,,,,,,,,,,,,,,,,,,,,,,,,,,,,,,,,,,,,,,,,,,,,,,,,,,,,,,,,,,,,,
0,19,19,4,1,,5eb1b16b14e51e2de3f13827,62c53996ae27c2a639f10eee,2022-07-06_10h30.47.570,Colour_Asymmetry_Pilot,2022.1.3,Win32,59.95922773,62c50e9c1127f2cd403a315f,,,,,,,,,,,,,,,,,,,,,,,,,,,,,,,,,,,,,,,,,,,,,,,,,,,,,,,,,,,,,,,,,,,,,,,,,,,,,,,,,,,,,,,,,,,,,,,,,,,,,,,,,,,,,,,,,,,,,,,,,,,,,,,,,,,,,,,,,,,,,,,,,,,,,,,,,,,,,,,,,,,
0,20,20,85,1,,5eb1b16b14e51e2de3f13827,62c53996ae27c2a639f10eee,2022-07-06_10h30.47.570,Colour_Asymmetry_Pilot,2022.1.3,Win32,59.95922773,62c50e9c1127f2cd403a315f,,,,,,,,,,,,,,,,,,,,,,,,,,,,,,,,,,,,,,,,,,,,,,,,,,,,,,,,,,,,,,,,,,,,,,,,,,,,,,,,,,,,,,,,,,,,,,,,,,,,,,,,,,,,,,,,,,,,,,,,,,,,,,,,,,,,,,,,,,,,,,,,,,,,,,,,,,,,,,,,,,,
0,21,21,91,1,,5eb1b16b14e51e2de3f13827,62c53996ae27c2a639f10eee,2022-07-06_10h30.47.570,Colour_Asymmetry_Pilot,2022.1.3,Win32,59.95922773,62c50e9c1127f2cd403a315f,,,,,,,,,,,,,,,,,,,,,,,,,,,,,,,,,,,,,,,,,,,,,,,,,,,,,,,,,,,,,,,,,,,,,,,,,,,,,,,,,,,,,,,,,,,,,,,,,,,,,,,,,,,,,,,,,,,,,,,,,,,,,,,,,,,,,,,,,,,,,,,,,,,,,,,,,,,,,,,,,,,
0,22,22,63,1,,5eb1b16b14e51e2de3f13827,62c53996ae27c2a639f10eee,2022-07-06_10h30.47.570,Colour_Asymmetry_Pilot,2022.1.3,Win32,59.95922773,62c50e9c1127f2cd403a315f,,,,,,,,,,,,,,,,,,,,,,,,,,,,,,,,,,,,,,,,,,,,,,,,,,,,,,,,,,,,,,,,,,,,,,,,,,,,,,,,,,,,,,,,,,,,,,,,,,,,,,,,,,,,,,,,,,,,,,,,,,,,,,,,,,,,,,,,,,,,,,,,,,,,,,,,,,,,,,,,,,,
0,23,23,21,1,,5eb1b16b14e51e2de3f13827,62c53996ae27c2a639f10eee,2022-07-06_10h30.47.570,Colour_Asymmetry_Pilot,2022.1.3,Win32,59.95922773,62c50e9c1127f2cd403a315f,,,,,,,,,,,,,,,,,,,,,,,,,,,,,,,,,,,,,,,,,,,,,,,,,,,,,,,,,,,,,,,,,,,,,,,,,,,,,,,,,,,,,,,,,,,,,,,,,,,,,,,,,,,,,,,,,,,,,,,,,,,,,,,,,,,,,,,,,,,,,,,,,,,,,,,,,,,,,,,,,,,
0,24,24,0,1,,5eb1b16b14e51e2de3f13827,62c53996ae27c2a639f10eee,2022-07-06_10h30.47.570,Colour_Asymmetry_Pilot,2022.1.3,Win32,59.95922773,62c50e9c1127f2cd403a315f,,,,,,,,,,,,,,,,,,,,,,,,,,,,,,,,,,,,,,,,,,,,,,,,,,,,,,,,,,,,,,,,,,,,,,,,,,,,,,,,,,,,,,,,,,,,,,,,,,,,,,,,,,,,,,,,,,,,,,,,,,,,,,,,,,,,,,,,,,,,,,,,,,,,,,,,,,,,,,,,,,,
0,25,25,39,1,,5eb1b16b14e51e2de3f13827,62c53996ae27c2a639f10eee,2022-07-06_10h30.47.570,Colour_Asymmetry_Pilot,2022.1.3,Win32,59.95922773,62c50e9c1127f2cd403a315f,,,,,,,,,,,,,,,,,,,,,,,,,,,,,,,,,,,,,,,,,,,,,,,,,,,,,,,,,,,,,,,,,,,,,,,,,,,,,,,,,,,,,,,,,,,,,,,,,,,,,,,,,,,,,,,,,,,,,,,,,,,,,,,,,,,,,,,,,,,,,,,,,,,,,,,,,,,,,,,,,,,
0,26,26,57,1,,5eb1b16b14e51e2de3f13827,62c53996ae27c2a639f10eee,2022-07-06_10h30.47.570,Colour_Asymmetry_Pilot,2022.1.3,Win32,59.95922773,62c50e9c1127f2cd403a315f,,,,,,,,,,,,,,,,,,,,,,,,,,,,,,,,,,,,,,,,,,,,,,,,,,,,,,,,,,,,,,,,,,,,,,,,,,,,,,,,,,,,,,,,,,,,,,,,,,,,,,,,,,,,,,,,,,,,,,,,,,,,,,,,,,,,,,,,,,,,,,,,,,,,,,,,,,,,,,,,,,,
0,27,27,42,1,,5eb1b16b14e51e2de3f13827,62c53996ae27c2a639f10eee,2022-07-06_10h30.47.570,Colour_Asymmetry_Pilot,2022.1.3,Win32,59.95922773,62c50e9c1127f2cd403a315f,,,,,,,,,,,,,,,,,,,,,,,,,,,,,,,,,,,,,,,,,,,,,,,,,,,,,,,,,,,,,,,,,,,,,,,,,,,,,,,,,,,,,,,,,,,,,,,,,,,,,,,,,,,,,,,,,,,,,,,,,,,,,,,,,,,,,,,,,,,,,,,,,,,,,,,,,,,,,,,,,,,
0,28,28,68,1,,5eb1b16b14e51e2de3f13827,62c53996ae27c2a639f10eee,2022-07-06_10h30.47.570,Colour_Asymmetry_Pilot,2022.1.3,Win32,59.95922773,62c50e9c1127f2cd403a315f,,,,,,,,,,,,,,,,,,,,,,,,,,,,,,,,,,,,,,,,,,,,,,,,,,,,,,,,,,,,,,,,,,,,,,,,,,,,,,,,,,,,,,,,,,,,,,,,,,,,,,,,,,,,,,,,,,,,,,,,,,,,,,,,,,,,,,,,,,,,,,,,,,,,,,,,,,,,,,,,,,,
0,29,29,90,1,,5eb1b16b14e51e2de3f13827,62c53996ae27c2a639f10eee,2022-07-06_10h30.47.570,Colour_Asymmetry_Pilot,2022.1.3,Win32,59.95922773,62c50e9c1127f2cd403a315f,,,,,,,,,,,,,,,,,,,,,,,,,,,,,,,,,,,,,,,,,,,,,,,,,,,,,,,,,,,,,,,,,,,,,,,,,,,,,,,,,,,,,,,,,,,,,,,,,,,,,,,,,,,,,,,,,,,,,,,,,,,,,,,,,,,,,,,,,,,,,,,,,,,,,,,,,,,,,,,,,,,
0,30,30,27,1,,5eb1b16b14e51e2de3f13827,62c53996ae27c2a639f10eee,2022-07-06_10h30.47.570,Colour_Asymmetry_Pilot,2022.1.3,Win32,59.95922773,62c50e9c1127f2cd403a315f,,,,,,,,,,,,,,,,,,,,,,,,,,,,,,,,,,,,,,,,,,,,,,,,,,,,,,,,,,,,,,,,,,,,,,,,,,,,,,,,,,,,,,,,,,,,,,,,,,,,,,,,,,,,,,,,,,,,,,,,,,,,,,,,,,,,,,,,,,,,,,,,,,,,,,,,,,,,,,,,,,,
0,31,31,88,1,,5eb1b16b14e51e2de3f13827,62c53996ae27c2a639f10eee,2022-07-06_10h30.47.570,Colour_Asymmetry_Pilot,2022.1.3,Win32,59.95922773,62c50e9c1127f2cd403a315f,,,,,,,,,,,,,,,,,,,,,,,,,,,,,,,,,,,,,,,,,,,,,,,,,,,,,,,,,,,,,,,,,,,,,,,,,,,,,,,,,,,,,,,,,,,,,,,,,,,,,,,,,,,,,,,,,,,,,,,,,,,,,,,,,,,,,,,,,,,,,,,,,,,,,,,,,,,,,,,,,,,
0,32,32,7,1,,5eb1b16b14e51e2de3f13827,62c53996ae27c2a639f10eee,2022-07-06_10h30.47.570,Colour_Asymmetry_Pilot,2022.1.3,Win32,59.95922773,62c50e9c1127f2cd403a315f,,,,,,,,,,,,,,,,,,,,,,,,,,,,,,,,,,,,,,,,,,,,,,,,,,,,,,,,,,,,,,,,,,,,,,,,,,,,,,,,,,,,,,,,,,,,,,,,,,,,,,,,,,,,,,,,,,,,,,,,,,,,,,,,,,,,,,,,,,,,,,,,,,,,,,,,,,,,,,,,,,,
0,33,33,11,1,,5eb1b16b14e51e2de3f13827,62c53996ae27c2a639f10eee,2022-07-06_10h30.47.570,Colour_Asymmetry_Pilot,2022.1.3,Win32,59.95922773,62c50e9c1127f2cd403a315f,,,,,,,,,,,,,,,,,,,,,,,,,,,,,,,,,,,,,,,,,,,,,,,,,,,,,,,,,,,,,,,,,,,,,,,,,,,,,,,,,,,,,,,,,,,,,,,,,,,,,,,,,,,,,,,,,,,,,,,,,,,,,,,,,,,,,,,,,,,,,,,,,,,,,,,,,,,,,,,,,,,
0,34,34,5,1,,5eb1b16b14e51e2de3f13827,62c53996ae27c2a639f10eee,2022-07-06_10h30.47.570,Colour_Asymmetry_Pilot,2022.1.3,Win32,59.95922773,62c50e9c1127f2cd403a315f,,,,,,,,,,,,,,,,,,,,,,,,,,,,,,,,,,,,,,,,,,,,,,,,,,,,,,,,,,,,,,,,,,,,,,,,,,,,,,,,,,,,,,,,,,,,,,,,,,,,,,,,,,,,,,,,,,,,,,,,,,,,,,,,,,,,,,,,,,,,,,,,,,,,,,,,,,,,,,,,,,,
0,35,35,40,1,,5eb1b16b14e51e2de3f13827,62c53996ae27c2a639f10eee,2022-07-06_10h30.47.570,Colour_Asymmetry_Pilot,2022.1.3,Win32,59.95922773,62c50e9c1127f2cd403a315f,,,,,,,,,,,,,,,,,,,,,,,,,,,,,,,,,,,,,,,,,,,,,,,,,,,,,,,,,,,,,,,,,,,,,,,,,,,,,,,,,,,,,,,,,,,,,,,,,,,,,,,,,,,,,,,,,,,,,,,,,,,,,,,,,,,,,,,,,,,,,,,,,,,,,,,,,,,,,,,,,,,
0,36,36,81,1,,5eb1b16b14e51e2de3f13827,62c53996ae27c2a639f10eee,2022-07-06_10h30.47.570,Colour_Asymmetry_Pilot,2022.1.3,Win32,59.95922773,62c50e9c1127f2cd403a315f,,,,,,,,,,,,,,,,,,,,,,,,,,,,,,,,,,,,,,,,,,,,,,,,,,,,,,,,,,,,,,,,,,,,,,,,,,,,,,,,,,,,,,,,,,,,,,,,,,,,,,,,,,,,,,,,,,,,,,,,,,,,,,,,,,,,,,,,,,,,,,,,,,,,,,,,,,,,,,,,,,,
0,37,37,16,1,,5eb1b16b14e51e2de3f13827,62c53996ae27c2a639f10eee,2022-07-06_10h30.47.570,Colour_Asymmetry_Pilot,2022.1.3,Win32,59.95922773,62c50e9c1127f2cd403a315f,,,,,,,,,,,,,,,,,,,,,,,,,,,,,,,,,,,,,,,,,,,,,,,,,,,,,,,,,,,,,,,,,,,,,,,,,,,,,,,,,,,,,,,,,,,,,,,,,,,,,,,,,,,,,,,,,,,,,,,,,,,,,,,,,,,,,,,,,,,,,,,,,,,,,,,,,,,,,,,,,,,
0,38,38,84,1,,5eb1b16b14e51e2de3f13827,62c53996ae27c2a639f10eee,2022-07-06_10h30.47.570,Colour_Asymmetry_Pilot,2022.1.3,Win32,59.95922773,62c50e9c1127f2cd403a315f,,,,,,,,,,,,,,,,,,,,,,,,,,,,,,,,,,,,,,,,,,,,,,,,,,,,,,,,,,,,,,,,,,,,,,,,,,,,,,,,,,,,,,,,,,,,,,,,,,,,,,,,,,,,,,,,,,,,,,,,,,,,,,,,,,,,,,,,,,,,,,,,,,,,,,,,,,,,,,,,,,,
0,39,39,58,1,,5eb1b16b14e51e2de3f13827,62c53996ae27c2a639f10eee,2022-07-06_10h30.47.570,Colour_Asymmetry_Pilot,2022.1.3,Win32,59.95922773,62c50e9c1127f2cd403a315f,,,,,,,,,,,,,,,,,,,,,,,,,,,,,,,,,,,,,,,,,,,,,,,,,,,,,,,,,,,,,,,,,,,,,,,,,,,,,,,,,,,,,,,,,,,,,,,,,,,,,,,,,,,,,,,,,,,,,,,,,,,,,,,,,,,,,,,,,,,,,,,,,,,,,,,,,,,,,,,,,,,
0,40,40,8,1,,5eb1b16b14e51e2de3f13827,62c53996ae27c2a639f10eee,2022-07-06_10h30.47.570,Colour_Asymmetry_Pilot,2022.1.3,Win32,59.95922773,62c50e9c1127f2cd403a315f,,,,,,,,,,,,,,,,,,,,,,,,,,,,,,,,,,,,,,,,,,,,,,,,,,,,,,,,,,,,,,,,,,,,,,,,,,,,,,,,,,,,,,,,,,,,,,,,,,,,,,,,,,,,,,,,,,,,,,,,,,,,,,,,,,,,,,,,,,,,,,,,,,,,,,,,,,,,,,,,,,,
0,41,41,45,1,,5eb1b16b14e51e2de3f13827,62c53996ae27c2a639f10eee,2022-07-06_10h30.47.570,Colour_Asymmetry_Pilot,2022.1.3,Win32,59.95922773,62c50e9c1127f2cd403a315f,,,,,,,,,,,,,,,,,,,,,,,,,,,,,,,,,,,,,,,,,,,,,,,,,,,,,,,,,,,,,,,,,,,,,,,,,,,,,,,,,,,,,,,,,,,,,,,,,,,,,,,,,,,,,,,,,,,,,,,,,,,,,,,,,,,,,,,,,,,,,,,,,,,,,,,,,,,,,,,,,,,
0,42,42,36,1,,5eb1b16b14e51e2de3f13827,62c53996ae27c2a639f10eee,2022-07-06_10h30.47.570,Colour_Asymmetry_Pilot,2022.1.3,Win32,59.95922773,62c50e9c1127f2cd403a315f,,,,,,,,,,,,,,,,,,,,,,,,,,,,,,,,,,,,,,,,,,,,,,,,,,,,,,,,,,,,,,,,,,,,,,,,,,,,,,,,,,,,,,,,,,,,,,,,,,,,,,,,,,,,,,,,,,,,,,,,,,,,,,,,,,,,,,,,,,,,,,,,,,,,,,,,,,,,,,,,,,,
0,43,43,19,1,,5eb1b16b14e51e2de3f13827,62c53996ae27c2a639f10eee,2022-07-06_10h30.47.570,Colour_Asymmetry_Pilot,2022.1.3,Win32,59.95922773,62c50e9c1127f2cd403a315f,,,,,,,,,,,,,,,,,,,,,,,,,,,,,,,,,,,,,,,,,,,,,,,,,,,,,,,,,,,,,,,,,,,,,,,,,,,,,,,,,,,,,,,,,,,,,,,,,,,,,,,,,,,,,,,,,,,,,,,,,,,,,,,,,,,,,,,,,,,,,,,,,,,,,,,,,,,,,,,,,,,
0,44,44,76,1,,5eb1b16b14e51e2de3f13827,62c53996ae27c2a639f10eee,2022-07-06_10h30.47.570,Colour_Asymmetry_Pilot,2022.1.3,Win32,59.95922773,62c50e9c1127f2cd403a315f,,,,,,,,,,,,,,,,,,,,,,,,,,,,,,,,,,,,,,,,,,,,,,,,,,,,,,,,,,,,,,,,,,,,,,,,,,,,,,,,,,,,,,,,,,,,,,,,,,,,,,,,,,,,,,,,,,,,,,,,,,,,,,,,,,,,,,,,,,,,,,,,,,,,,,,,,,,,,,,,,,,
0,45,45,87,1,,5eb1b16b14e51e2de3f13827,62c53996ae27c2a639f10eee,2022-07-06_10h30.47.570,Colour_Asymmetry_Pilot,2022.1.3,Win32,59.95922773,62c50e9c1127f2cd403a315f,,,,,,,,,,,,,,,,,,,,,,,,,,,,,,,,,,,,,,,,,,,,,,,,,,,,,,,,,,,,,,,,,,,,,,,,,,,,,,,,,,,,,,,,,,,,,,,,,,,,,,,,,,,,,,,,,,,,,,,,,,,,,,,,,,,,,,,,,,,,,,,,,,,,,,,,,,,,,,,,,,,
0,46,46,86,1,,5eb1b16b14e51e2de3f13827,62c53996ae27c2a639f10eee,2022-07-06_10h30.47.570,Colour_Asymmetry_Pilot,2022.1.3,Win32,59.95922773,62c50e9c1127f2cd403a315f,,,,,,,,,,,,,,,,,,,,,,,,,,,,,,,,,,,,,,,,,,,,,,,,,,,,,,,,,,,,,,,,,,,,,,,,,,,,,,,,,,,,,,,,,,,,,,,,,,,,,,,,,,,,,,,,,,,,,,,,,,,,,,,,,,,,,,,,,,,,,,,,,,,,,,,,,,,,,,,,,,,
0,47,47,17,1,,5eb1b16b14e51e2de3f13827,62c53996ae27c2a639f10eee,2022-07-06_10h30.47.570,Colour_Asymmetry_Pilot,2022.1.3,Win32,59.95922773,62c50e9c1127f2cd403a315f,,,,,,,,,,,,,,,,,,,,,,,,,,,,,,,,,,,,,,,,,,,,,,,,,,,,,,,,,,,,,,,,,,,,,,,,,,,,,,,,,,,,,,,,,,,,,,,,,,,,,,,,,,,,,,,,,,,,,,,,,,,,,,,,,,,,,,,,,,,,,,,,,,,,,,,,,,,,,,,,,,,
0,48,48,24,1,,5eb1b16b14e51e2de3f13827,62c53996ae27c2a639f10eee,2022-07-06_10h30.47.570,Colour_Asymmetry_Pilot,2022.1.3,Win32,59.95922773,62c50e9c1127f2cd403a315f,,,,,,,,,,,,,,,,,,,,,,,,,,,,,,,,,,,,,,,,,,,,,,,,,,,,,,,,,,,,,,,,,,,,,,,,,,,,,,,,,,,,,,,,,,,,,,,,,,,,,,,,,,,,,,,,,,,,,,,,,,,,,,,,,,,,,,,,,,,,,,,,,,,,,,,,,,,,,,,,,,,
0,49,49,69,1,,5eb1b16b14e51e2de3f13827,62c53996ae27c2a639f10eee,2022-07-06_10h30.47.570,Colour_Asymmetry_Pilot,2022.1.3,Win32,59.95922773,62c50e9c1127f2cd403a315f,,,,,,,,,,,,,,,,,,,,,,,,,,,,,,,,,,,,,,,,,,,,,,,,,,,,,,,,,,,,,,,,,,,,,,,,,,,,,,,,,,,,,,,,,,,,,,,,,,,,,,,,,,,,,,,,,,,,,,,,,,,,,,,,,,,,,,,,,,,,,,,,,,,,,,,,,,,,,,,,,,,
0,50,50,73,1,,5eb1b16b14e51e2de3f13827,62c53996ae27c2a639f10eee,2022-07-06_10h30.47.570,Colour_Asymmetry_Pilot,2022.1.3,Win32,59.95922773,62c50e9c1127f2cd403a315f,,,,,,,,,,,,,,,,,,,,,,,,,,,,,,,,,,,,,,,,,,,,,,,,,,,,,,,,,,,,,,,,,,,,,,,,,,,,,,,,,,,,,,,,,,,,,,,,,,,,,,,,,,,,,,,,,,,,,,,,,,,,,,,,,,,,,,,,,,,,,,,,,,,,,,,,,,,,,,,,,,,
0,51,51,79,1,,5eb1b16b14e51e2de3f13827,62c53996ae27c2a639f10eee,2022-07-06_10h30.47.570,Colour_Asymmetry_Pilot,2022.1.3,Win32,59.95922773,62c50e9c1127f2cd403a315f,,,,,,,,,,,,,,,,,,,,,,,,,,,,,,,,,,,,,,,,,,,,,,,,,,,,,,,,,,,,,,,,,,,,,,,,,,,,,,,,,,,,,,,,,,,,,,,,,,,,,,,,,,,,,,,,,,,,,,,,,,,,,,,,,,,,,,,,,,,,,,,,,,,,,,,,,,,,,,,,,,,
0,52,52,33,1,,5eb1b16b14e51e2de3f13827,62c53996ae27c2a639f10eee,2022-07-06_10h30.47.570,Colour_Asymmetry_Pilot,2022.1.3,Win32,59.95922773,62c50e9c1127f2cd403a315f,,,,,,,,,,,,,,,,,,,,,,,,,,,,,,,,,,,,,,,,,,,,,,,,,,,,,,,,,,,,,,,,,,,,,,,,,,,,,,,,,,,,,,,,,,,,,,,,,,,,,,,,,,,,,,,,,,,,,,,,,,,,,,,,,,,,,,,,,,,,,,,,,,,,,,,,,,,,,,,,,,,
0,53,53,78,1,,5eb1b16b14e51e2de3f13827,62c53996ae27c2a639f10eee,2022-07-06_10h30.47.570,Colour_Asymmetry_Pilot,2022.1.3,Win32,59.95922773,62c50e9c1127f2cd403a315f,,,,,,,,,,,,,,,,,,,,,,,,,,,,,,,,,,,,,,,,,,,,,,,,,,,,,,,,,,,,,,,,,,,,,,,,,,,,,,,,,,,,,,,,,,,,,,,,,,,,,,,,,,,,,,,,,,,,,,,,,,,,,,,,,,,,,,,,,,,,,,,,,,,,,,,,,,,,,,,,,,,
0,54,54,77,1,,5eb1b16b14e51e2de3f13827,62c53996ae27c2a639f10eee,2022-07-06_10h30.47.570,Colour_Asymmetry_Pilot,2022.1.3,Win32,59.95922773,62c50e9c1127f2cd403a315f,,,,,,,,,,,,,,,,,,,,,,,,,,,,,,,,,,,,,,,,,,,,,,,,,,,,,,,,,,,,,,,,,,,,,,,,,,,,,,,,,,,,,,,,,,,,,,,,,,,,,,,,,,,,,,,,,,,,,,,,,,,,,,,,,,,,,,,,,,,,,,,,,,,,,,,,,,,,,,,,,,,
0,55,55,46,1,,5eb1b16b14e51e2de3f13827,62c53996ae27c2a639f10eee,2022-07-06_10h30.47.570,Colour_Asymmetry_Pilot,2022.1.3,Win32,59.95922773,62c50e9c1127f2cd403a315f,,,,,,,,,,,,,,,,,,,,,,,,,,,,,,,,,,,,,,,,,,,,,,,,,,,,,,,,,,,,,,,,,,,,,,,,,,,,,,,,,,,,,,,,,,,,,,,,,,,,,,,,,,,,,,,,,,,,,,,,,,,,,,,,,,,,,,,,,,,,,,,,,,,,,,,,,,,,,,,,,,,
0,56,56,15,1,,5eb1b16b14e51e2de3f13827,62c53996ae27c2a639f10eee,2022-07-06_10h30.47.570,Colour_Asymmetry_Pilot,2022.1.3,Win32,59.95922773,62c50e9c1127f2cd403a315f,,,,,,,,,,,,,,,,,,,,,,,,,,,,,,,,,,,,,,,,,,,,,,,,,,,,,,,,,,,,,,,,,,,,,,,,,,,,,,,,,,,,,,,,,,,,,,,,,,,,,,,,,,,,,,,,,,,,,,,,,,,,,,,,,,,,,,,,,,,,,,,,,,,,,,,,,,,,,,,,,,,
0,57,57,9,1,,5eb1b16b14e51e2de3f13827,62c53996ae27c2a639f10eee,2022-07-06_10h30.47.570,Colour_Asymmetry_Pilot,2022.1.3,Win32,59.95922773,62c50e9c1127f2cd403a315f,,,,,,,,,,,,,,,,,,,,,,,,,,,,,,,,,,,,,,,,,,,,,,,,,,,,,,,,,,,,,,,,,,,,,,,,,,,,,,,,,,,,,,,,,,,,,,,,,,,,,,,,,,,,,,,,,,,,,,,,,,,,,,,,,,,,,,,,,,,,,,,,,,,,,,,,,,,,,,,,,,,
0,58,58,44,1,,5eb1b16b14e51e2de3f13827,62c53996ae27c2a639f10eee,2022-07-06_10h30.47.570,Colour_Asymmetry_Pilot,2022.1.3,Win32,59.95922773,62c50e9c1127f2cd403a315f,,,,,,,,,,,,,,,,,,,,,,,,,,,,,,,,,,,,,,,,,,,,,,,,,,,,,,,,,,,,,,,,,,,,,,,,,,,,,,,,,,,,,,,,,,,,,,,,,,,,,,,,,,,,,,,,,,,,,,,,,,,,,,,,,,,,,,,,,,,,,,,,,,,,,,,,,,,,,,,,,,,
0,59,59,13,1,,5eb1b16b14e51e2de3f13827,62c53996ae27c2a639f10eee,2022-07-06_10h30.47.570,Colour_Asymmetry_Pilot,2022.1.3,Win32,59.95922773,62c50e9c1127f2cd403a315f,,,,,,,,,,,,,,,,,,,,,,,,,,,,,,,,,,,,,,,,,,,,,,,,,,,,,,,,,,,,,,,,,,,,,,,,,,,,,,,,,,,,,,,,,,,,,,,,,,,,,,,,,,,,,,,,,,,,,,,,,,,,,,,,,,,,,,,,,,,,,,,,,,,,,,,,,,,,,,,,,,,
0,60,60,54,1,,5eb1b16b14e51e2de3f13827,62c53996ae27c2a639f10eee,2022-07-06_10h30.47.570,Colour_Asymmetry_Pilot,2022.1.3,Win32,59.95922773,62c50e9c1127f2cd403a315f,,,,,,,,,,,,,,,,,,,,,,,,,,,,,,,,,,,,,,,,,,,,,,,,,,,,,,,,,,,,,,,,,,,,,,,,,,,,,,,,,,,,,,,,,,,,,,,,,,,,,,,,,,,,,,,,,,,,,,,,,,,,,,,,,,,,,,,,,,,,,,,,,,,,,,,,,,,,,,,,,,,
0,61,61,62,1,,5eb1b16b14e51e2de3f13827,62c53996ae27c2a639f10eee,2022-07-06_10h30.47.570,Colour_Asymmetry_Pilot,2022.1.3,Win32,59.95922773,62c50e9c1127f2cd403a315f,,,,,,,,,,,,,,,,,,,,,,,,,,,,,,,,,,,,,,,,,,,,,,,,,,,,,,,,,,,,,,,,,,,,,,,,,,,,,,,,,,,,,,,,,,,,,,,,,,,,,,,,,,,,,,,,,,,,,,,,,,,,,,,,,,,,,,,,,,,,,,,,,,,,,,,,,,,,,,,,,,,
0,62,62,80,1,,5eb1b16b14e51e2de3f13827,62c53996ae27c2a639f10eee,2022-07-06_10h30.47.570,Colour_Asymmetry_Pilot,2022.1.3,Win32,59.95922773,62c50e9c1127f2cd403a315f,,,,,,,,,,,,,,,,,,,,,,,,,,,,,,,,,,,,,,,,,,,,,,,,,,,,,,,,,,,,,,,,,,,,,,,,,,,,,,,,,,,,,,,,,,,,,,,,,,,,,,,,,,,,,,,,,,,,,,,,,,,,,,,,,,,,,,,,,,,,,,,,,,,,,,,,,,,,,,,,,,,
0,63,63,43,1,,5eb1b16b14e51e2de3f13827,62c53996ae27c2a639f10eee,2022-07-06_10h30.47.570,Colour_Asymmetry_Pilot,2022.1.3,Win32,59.95922773,62c50e9c1127f2cd403a315f,,,,,,,,,,,,,,,,,,,,,,,,,,,,,,,,,,,,,,,,,,,,,,,,,,,,,,,,,,,,,,,,,,,,,,,,,,,,,,,,,,,,,,,,,,,,,,,,,,,,,,,,,,,,,,,,,,,,,,,,,,,,,,,,,,,,,,,,,,,,,,,,,,,,,,,,,,,,,,,,,,,
0,64,64,41,1,,5eb1b16b14e51e2de3f13827,62c53996ae27c2a639f10eee,2022-07-06_10h30.47.570,Colour_Asymmetry_Pilot,2022.1.3,Win32,59.95922773,62c50e9c1127f2cd403a315f,,,,,,,,,,,,,,,,,,,,,,,,,,,,,,,,,,,,,,,,,,,,,,,,,,,,,,,,,,,,,,,,,,,,,,,,,,,,,,,,,,,,,,,,,,,,,,,,,,,,,,,,,,,,,,,,,,,,,,,,,,,,,,,,,,,,,,,,,,,,,,,,,,,,,,,,,,,,,,,,,,,
0,65,65,48,1,,5eb1b16b14e51e2de3f13827,62c53996ae27c2a639f10eee,2022-07-06_10h30.47.570,Colour_Asymmetry_Pilot,2022.1.3,Win32,59.95922773,62c50e9c1127f2cd403a315f,,,,,,,,,,,,,,,,,,,,,,,,,,,,,,,,,,,,,,,,,,,,,,,,,,,,,,,,,,,,,,,,,,,,,,,,,,,,,,,,,,,,,,,,,,,,,,,,,,,,,,,,,,,,,,,,,,,,,,,,,,,,,,,,,,,,,,,,,,,,,,,,,,,,,,,,,,,,,,,,,,,
0,66,66,51,1,,5eb1b16b14e51e2de3f13827,62c53996ae27c2a639f10eee,2022-07-06_10h30.47.570,Colour_Asymmetry_Pilot,2022.1.3,Win32,59.95922773,62c50e9c1127f2cd403a315f,,,,,,,,,,,,,,,,,,,,,,,,,,,,,,,,,,,,,,,,,,,,,,,,,,,,,,,,,,,,,,,,,,,,,,,,,,,,,,,,,,,,,,,,,,,,,,,,,,,,,,,,,,,,,,,,,,,,,,,,,,,,,,,,,,,,,,,,,,,,,,,,,,,,,,,,,,,,,,,,,,,
0,67,67,71,1,,5eb1b16b14e51e2de3f13827,62c53996ae27c2a639f10eee,2022-07-06_10h30.47.570,Colour_Asymmetry_Pilot,2022.1.3,Win32,59.95922773,62c50e9c1127f2cd403a315f,,,,,,,,,,,,,,,,,,,,,,,,,,,,,,,,,,,,,,,,,,,,,,,,,,,,,,,,,,,,,,,,,,,,,,,,,,,,,,,,,,,,,,,,,,,,,,,,,,,,,,,,,,,,,,,,,,,,,,,,,,,,,,,,,,,,,,,,,,,,,,,,,,,,,,,,,,,,,,,,,,,
0,68,68,55,1,,5eb1b16b14e51e2de3f13827,62c53996ae27c2a639f10eee,2022-07-06_10h30.47.570,Colour_Asymmetry_Pilot,2022.1.3,Win32,59.95922773,62c50e9c1127f2cd403a315f,,,,,,,,,,,,,,,,,,,,,,,,,,,,,,,,,,,,,,,,,,,,,,,,,,,,,,,,,,,,,,,,,,,,,,,,,,,,,,,,,,,,,,,,,,,,,,,,,,,,,,,,,,,,,,,,,,,,,,,,,,,,,,,,,,,,,,,,,,,,,,,,,,,,,,,,,,,,,,,,,,,
0,69,69,25,1,,5eb1b16b14e51e2de3f13827,62c53996ae27c2a639f10eee,2022-07-06_10h30.47.570,Colour_Asymmetry_Pilot,2022.1.3,Win32,59.95922773,62c50e9c1127f2cd403a315f,,,,,,,,,,,,,,,,,,,,,,,,,,,,,,,,,,,,,,,,,,,,,,,,,,,,,,,,,,,,,,,,,,,,,,,,,,,,,,,,,,,,,,,,,,,,,,,,,,,,,,,,,,,,,,,,,,,,,,,,,,,,,,,,,,,,,,,,,,,,,,,,,,,,,,,,,,,,,,,,,,,
0,70,70,32,1,,5eb1b16b14e51e2de3f13827,62c53996ae27c2a639f10eee,2022-07-06_10h30.47.570,Colour_Asymmetry_Pilot,2022.1.3,Win32,59.95922773,62c50e9c1127f2cd403a315f,,,,,,,,,,,,,,,,,,,,,,,,,,,,,,,,,,,,,,,,,,,,,,,,,,,,,,,,,,,,,,,,,,,,,,,,,,,,,,,,,,,,,,,,,,,,,,,,,,,,,,,,,,,,,,,,,,,,,,,,,,,,,,,,,,,,,,,,,,,,,,,,,,,,,,,,,,,,,,,,,,,
0,71,71,74,1,,5eb1b16b14e51e2de3f13827,62c53996ae27c2a639f10eee,2022-07-06_10h30.47.570,Colour_Asymmetry_Pilot,2022.1.3,Win32,59.95922773,62c50e9c1127f2cd403a315f,,,,,,,,,,,,,,,,,,,,,,,,,,,,,,,,,,,,,,,,,,,,,,,,,,,,,,,,,,,,,,,,,,,,,,,,,,,,,,,,,,,,,,,,,,,,,,,,,,,,,,,,,,,,,,,,,,,,,,,,,,,,,,,,,,,,,,,,,,,,,,,,,,,,,,,,,,,,,,,,,,,
0,72,72,72,1,,5eb1b16b14e51e2de3f13827,62c53996ae27c2a639f10eee,2022-07-06_10h30.47.570,Colour_Asymmetry_Pilot,2022.1.3,Win32,59.95922773,62c50e9c1127f2cd403a315f,,,,,,,,,,,,,,,,,,,,,,,,,,,,,,,,,,,,,,,,,,,,,,,,,,,,,,,,,,,,,,,,,,,,,,,,,,,,,,,,,,,,,,,,,,,,,,,,,,,,,,,,,,,,,,,,,,,,,,,,,,,,,,,,,,,,,,,,,,,,,,,,,,,,,,,,,,,,,,,,,,,
0,73,73,3,1,,5eb1b16b14e51e2de3f13827,62c53996ae27c2a639f10eee,2022-07-06_10h30.47.570,Colour_Asymmetry_Pilot,2022.1.3,Win32,59.95922773,62c50e9c1127f2cd403a315f,,,,,,,,,,,,,,,,,,,,,,,,,,,,,,,,,,,,,,,,,,,,,,,,,,,,,,,,,,,,,,,,,,,,,,,,,,,,,,,,,,,,,,,,,,,,,,,,,,,,,,,,,,,,,,,,,,,,,,,,,,,,,,,,,,,,,,,,,,,,,,,,,,,,,,,,,,,,,,,,,,,
0,74,74,28,1,,5eb1b16b14e51e2de3f13827,62c53996ae27c2a639f10eee,2022-07-06_10h30.47.570,Colour_Asymmetry_Pilot,2022.1.3,Win32,59.95922773,62c50e9c1127f2cd403a315f,,,,,,,,,,,,,,,,,,,,,,,,,,,,,,,,,,,,,,,,,,,,,,,,,,,,,,,,,,,,,,,,,,,,,,,,,,,,,,,,,,,,,,,,,,,,,,,,,,,,,,,,,,,,,,,,,,,,,,,,,,,,,,,,,,,,,,,,,,,,,,,,,,,,,,,,,,,,,,,,,,,
0,75,75,52,1,,5eb1b16b14e51e2de3f13827,62c53996ae27c2a639f10eee,2022-07-06_10h30.47.570,Colour_Asymmetry_Pilot,2022.1.3,Win32,59.95922773,62c50e9c1127f2cd403a315f,,,,,,,,,,,,,,,,,,,,,,,,,,,,,,,,,,,,,,,,,,,,,,,,,,,,,,,,,,,,,,,,,,,,,,,,,,,,,,,,,,,,,,,,,,,,,,,,,,,,,,,,,,,,,,,,,,,,,,,,,,,,,,,,,,,,,,,,,,,,,,,,,,,,,,,,,,,,,,,,,,,
0,76,76,82,1,,5eb1b16b14e51e2de3f13827,62c53996ae27c2a639f10eee,2022-07-06_10h30.47.570,Colour_Asymmetry_Pilot,2022.1.3,Win32,59.95922773,62c50e9c1127f2cd403a315f,,,,,,,,,,,,,,,,,,,,,,,,,,,,,,,,,,,,,,,,,,,,,,,,,,,,,,,,,,,,,,,,,,,,,,,,,,,,,,,,,,,,,,,,,,,,,,,,,,,,,,,,,,,,,,,,,,,,,,,,,,,,,,,,,,,,,,,,,,,,,,,,,,,,,,,,,,,,,,,,,,,
0,77,77,38,1,,5eb1b16b14e51e2de3f13827,62c53996ae27c2a639f10eee,2022-07-06_10h30.47.570,Colour_Asymmetry_Pilot,2022.1.3,Win32,59.95922773,62c50e9c1127f2cd403a315f,,,,,,,,,,,,,,,,,,,,,,,,,,,,,,,,,,,,,,,,,,,,,,,,,,,,,,,,,,,,,,,,,,,,,,,,,,,,,,,,,,,,,,,,,,,,,,,,,,,,,,,,,,,,,,,,,,,,,,,,,,,,,,,,,,,,,,,,,,,,,,,,,,,,,,,,,,,,,,,,,,,
0,78,78,12,1,,5eb1b16b14e51e2de3f13827,62c53996ae27c2a639f10eee,2022-07-06_10h30.47.570,Colour_Asymmetry_Pilot,2022.1.3,Win32,59.95922773,62c50e9c1127f2cd403a315f,,,,,,,,,,,,,,,,,,,,,,,,,,,,,,,,,,,,,,,,,,,,,,,,,,,,,,,,,,,,,,,,,,,,,,,,,,,,,,,,,,,,,,,,,,,,,,,,,,,,,,,,,,,,,,,,,,,,,,,,,,,,,,,,,,,,,,,,,,,,,,,,,,,,,,,,,,,,,,,,,,,
0,79,79,29,1,,5eb1b16b14e51e2de3f13827,62c53996ae27c2a639f10eee,2022-07-06_10h30.47.570,Colour_Asymmetry_Pilot,2022.1.3,Win32,59.95922773,62c50e9c1127f2cd403a315f,,,,,,,,,,,,,,,,,,,,,,,,,,,,,,,,,,,,,,,,,,,,,,,,,,,,,,,,,,,,,,,,,,,,,,,,,,,,,,,,,,,,,,,,,,,,,,,,,,,,,,,,,,,,,,,,,,,,,,,,,,,,,,,,,,,,,,,,,,,,,,,,,,,,,,,,,,,,,,,,,,,
0,80,80,47,1,,5eb1b16b14e51e2de3f13827,62c53996ae27c2a639f10eee,2022-07-06_10h30.47.570,Colour_Asymmetry_Pilot,2022.1.3,Win32,59.95922773,62c50e9c1127f2cd403a315f,,,,,,,,,,,,,,,,,,,,,,,,,,,,,,,,,,,,,,,,,,,,,,,,,,,,,,,,,,,,,,,,,,,,,,,,,,,,,,,,,,,,,,,,,,,,,,,,,,,,,,,,,,,,,,,,,,,,,,,,,,,,,,,,,,,,,,,,,,,,,,,,,,,,,,,,,,,,,,,,,,,
0,81,81,6,1,,5eb1b16b14e51e2de3f13827,62c53996ae27c2a639f10eee,2022-07-06_10h30.47.570,Colour_Asymmetry_Pilot,2022.1.3,Win32,59.95922773,62c50e9c1127f2cd403a315f,,,,,,,,,,,,,,,,,,,,,,,,,,,,,,,,,,,,,,,,,,,,,,,,,,,,,,,,,,,,,,,,,,,,,,,,,,,,,,,,,,,,,,,,,,,,,,,,,,,,,,,,,,,,,,,,,,,,,,,,,,,,,,,,,,,,,,,,,,,,,,,,,,,,,,,,,,,,,,,,,,,
0,82,82,61,1,,5eb1b16b14e51e2de3f13827,62c53996ae27c2a639f10eee,2022-07-06_10h30.47.570,Colour_Asymmetry_Pilot,2022.1.3,Win32,59.95922773,62c50e9c1127f2cd403a315f,,,,,,,,,,,,,,,,,,,,,,,,,,,,,,,,,,,,,,,,,,,,,,,,,,,,,,,,,,,,,,,,,,,,,,,,,,,,,,,,,,,,,,,,,,,,,,,,,,,,,,,,,,,,,,,,,,,,,,,,,,,,,,,,,,,,,,,,,,,,,,,,,,,,,,,,,,,,,,,,,,,
0,83,83,26,1,,5eb1b16b14e51e2de3f13827,62c53996ae27c2a639f10eee,2022-07-06_10h30.47.570,Colour_Asymmetry_Pilot,2022.1.3,Win32,59.95922773,62c50e9c1127f2cd403a315f,,,,,,,,,,,,,,,,,,,,,,,,,,,,,,,,,,,,,,,,,,,,,,,,,,,,,,,,,,,,,,,,,,,,,,,,,,,,,,,,,,,,,,,,,,,,,,,,,,,,,,,,,,,,,,,,,,,,,,,,,,,,,,,,,,,,,,,,,,,,,,,,,,,,,,,,,,,,,,,,,,,
0,84,84,31,1,,5eb1b16b14e51e2de3f13827,62c53996ae27c2a639f10eee,2022-07-06_10h30.47.570,Colour_Asymmetry_Pilot,2022.1.3,Win32,59.95922773,62c50e9c1127f2cd403a315f,,,,,,,,,,,,,,,,,,,,,,,,,,,,,,,,,,,,,,,,,,,,,,,,,,,,,,,,,,,,,,,,,,,,,,,,,,,,,,,,,,,,,,,,,,,,,,,,,,,,,,,,,,,,,,,,,,,,,,,,,,,,,,,,,,,,,,,,,,,,,,,,,,,,,,,,,,,,,,,,,,,
0,85,85,20,1,,5eb1b16b14e51e2de3f13827,62c53996ae27c2a639f10eee,2022-07-06_10h30.47.570,Colour_Asymmetry_Pilot,2022.1.3,Win32,59.95922773,62c50e9c1127f2cd403a315f,,,,,,,,,,,,,,,,,,,,,,,,,,,,,,,,,,,,,,,,,,,,,,,,,,,,,,,,,,,,,,,,,,,,,,,,,,,,,,,,,,,,,,,,,,,,,,,,,,,,,,,,,,,,,,,,,,,,,,,,,,,,,,,,,,,,,,,,,,,,,,,,,,,,,,,,,,,,,,,,,,,
0,86,86,1,1,,5eb1b16b14e51e2de3f13827,62c53996ae27c2a639f10eee,2022-07-06_10h30.47.570,Colour_Asymmetry_Pilot,2022.1.3,Win32,59.95922773,62c50e9c1127f2cd403a315f,,,,,,,,,,,,,,,,,,,,,,,,,,,,,,,,,,,,,,,,,,,,,,,,,,,,,,,,,,,,,,,,,,,,,,,,,,,,,,,,,,,,,,,,,,,,,,,,,,,,,,,,,,,,,,,,,,,,,,,,,,,,,,,,,,,,,,,,,,,,,,,,,,,,,,,,,,,,,,,,,,,
0,87,87,92,1,,5eb1b16b14e51e2de3f13827,62c53996ae27c2a639f10eee,2022-07-06_10h30.47.570,Colour_Asymmetry_Pilot,2022.1.3,Win32,59.95922773,62c50e9c1127f2cd403a315f,,,,,,,,,,,,,,,,,,,,,,,,,,,,,,,,,,,,,,,,,,,,,,,,,,,,,,,,,,,,,,,,,,,,,,,,,,,,,,,,,,,,,,,,,,,,,,,,,,,,,,,,,,,,,,,,,,,,,,,,,,,,,,,,,,,,,,,,,,,,,,,,,,,,,,,,,,,,,,,,,,,
0,88,88,89,1,,5eb1b16b14e51e2de3f13827,62c53996ae27c2a639f10eee,2022-07-06_10h30.47.570,Colour_Asymmetry_Pilot,2022.1.3,Win32,59.95922773,62c50e9c1127f2cd403a315f,,,,,,,,,,,,,,,,,,,,,,,,,,,,,,,,,,,,,,,,,,,,,,,,,,,,,,,,,,,,,,,,,,,,,,,,,,,,,,,,,,,,,,,,,,,,,,,,,,,,,,,,,,,,,,,,,,,,,,,,,,,,,,,,,,,,,,,,,,,,,,,,,,,,,,,,,,,,,,,,,,,
0,89,89,30,1,,5eb1b16b14e51e2de3f13827,62c53996ae27c2a639f10eee,2022-07-06_10h30.47.570,Colour_Asymmetry_Pilot,2022.1.3,Win32,59.95922773,62c50e9c1127f2cd403a315f,,,,,,,,,,,,,,,,,,,,,,,,,,,,,,,,,,,,,,,,,,,,,,,,,,,,,,,,,,,,,,,,,,,,,,,,,,,,,,,,,,,,,,,,,,,,,,,,,,,,,,,,,,,,,,,,,,,,,,,,,,,,,,,,,,,,,,,,,,,,,,,,,,,,,,,,,,,,,,,,,,,
0,90,90,37,1,,5eb1b16b14e51e2de3f13827,62c53996ae27c2a639f10eee,2022-07-06_10h30.47.570,Colour_Asymmetry_Pilot,2022.1.3,Win32,59.95922773,62c50e9c1127f2cd403a315f,,,,,,,,,,,,,,,,,,,,,,,,,,,,,,,,,,,,,,,,,,,,,,,,,,,,,,,,,,,,,,,,,,,,,,,,,,,,,,,,,,,,,,,,,,,,,,,,,,,,,,,,,,,,,,,,,,,,,,,,,,,,,,,,,,,,,,,,,,,,,,,,,,,,,,,,,,,,,,,,,,,
0,91,91,75,1,,5eb1b16b14e51e2de3f13827,62c53996ae27c2a639f10eee,2022-07-06_10h30.47.570,Colour_Asymmetry_Pilot,2022.1.3,Win32,59.95922773,62c50e9c1127f2cd403a315f,,,,,,,,,,,,,,,,,,,,,,,,,,,,,,,,,,,,,,,,,,,,,,,,,,,,,,,,,,,,,,,,,,,,,,,,,,,,,,,,,,,,,,,,,,,,,,,,,,,,,,,,,,,,,,,,,,,,,,,,,,,,,,,,,,,,,,,,,,,,,,,,,,,,,,,,,,,,,,,,,,,
0,92,92,59,1,,5eb1b16b14e51e2de3f13827,62c53996ae27c2a639f10eee,2022-07-06_10h30.47.570,Colour_Asymmetry_Pilot,2022.1.3,Win32,59.95922773,62c50e9c1127f2cd403a315f,,,,,,,,,,,,,,,,,,,,,,,,,,,,,,,,,,,,,,,,,,,,,,,,,,,,,,,,,,,,,,,,,,,,,,,,,,,,,,,,,,,,,,,,,,,,,,,,,,,,,,,,,,,,,,,,,,,,,,,,,,,,,,,,,,,,,,,,,,,,,,,,,,,,,,,,,,,,,,,,,,,
,,,,,,5eb1b16b14e51e2de3f13827,62c53996ae27c2a639f10eee,2022-07-06_10h30.47.570,Colour_Asymmetry_Pilot,2022.1.3,Win32,59.95922773,62c50e9c1127f2cd403a315f,0,0,0,11,1,twofour,,,,,,,,,,,,,,,,,,,,,,,,,,,,,,,,,,,,,,,,,,,,,,,,,,,,,,,,,,,,,,,,,,,,,,,,,,,,,,,,,,,,,,,,,,,,,,,,,,,,,,,,,,,,,,,,,,,,,,,,,,,,,,,,,,,,,,,,,,,,,,,,,,,,,,,,,,,,,
,,,,,,5eb1b16b14e51e2de3f13827,62c53996ae27c2a639f10eee,2022-07-06_10h30.47.570,Colour_Asymmetry_Pilot,2022.1.3,Win32,59.95922773,62c50e9c1127f2cd403a315f,0,1,1,55,1,fourthree,,,,,,,,,,,,,,,,,,,,,,,,,,,,,,,,,,,,,,,,,,,,,,,,,,,,,,,,,,,,,,,,,,,,,,,,,,,,,,,,,,,,,,,,,,,,,,,,,,,,,,,,,,,,,,,,,,,,,,,,,,,,,,,,,,,,,,,,,,,,,,,,,,,,,,,,,,,,,
,,,,,,5eb1b16b14e51e2de3f13827,62c53996ae27c2a639f10eee,2022-07-06_10h30.47.570,Colour_Asymmetry_Pilot,2022.1.3,Win32,59.95922773,62c50e9c1127f2cd403a315f,0,2,2,14,1,fourtwo,,,,,,,,,,,,,,,,,,,,,,,,,,,,,,,,,,,,,,,,,,,,,,,,,,,,,,,,,,,,,,,,,,,,,,,,,,,,,,,,,,,,,,,,,,,,,,,,,,,,,,,,,,,,,,,,,,,,,,,,,,,,,,,,,,,,,,,,,,,,,,,,,,,,,,,,,,,,,
,,,,,,5eb1b16b14e51e2de3f13827,62c53996ae27c2a639f10eee,2022-07-06_10h30.47.570,Colour_Asymmetry_Pilot,2022.1.3,Win32,59.95922773,62c50e9c1127f2cd403a315f,0,3,3,5,1,threefour,,,,,,,,,,,,,,,,,,,,,,,,,,,,,,,,,,,,,,,,,,,,,,,,,,,,,,,,,,,,,,,,,,,,,,,,,,,,,,,,,,,,,,,,,,,,,,,,,,,,,,,,,,,,,,,,,,,,,,,,,,,,,,,,,,,,,,,,,,,,,,,,,,,,,,,,,,,,,
,,,,,,5eb1b16b14e51e2de3f13827,62c53996ae27c2a639f10eee,2022-07-06_10h30.47.570,Colour_Asymmetry_Pilot,2022.1.3,Win32,59.95922773,62c50e9c1127f2cd403a315f,0,4,4,79,1,fourthree,,,,,,,,,,,,,,,,,,,,,,,,,,,,,,,,,,,,,,,,,,,,,,,,,,,,,,,,,,,,,,,,,,,,,,,,,,,,,,,,,,,,,,,,,,,,,,,,,,,,,,,,,,,,,,,,,,,,,,,,,,,,,,,,,,,,,,,,,,,,,,,,,,,,,,,,,,,,,
,,,,,,5eb1b16b14e51e2de3f13827,62c53996ae27c2a639f10eee,2022-07-06_10h30.47.570,Colour_Asymmetry_Pilot,2022.1.3,Win32,59.95922773,62c50e9c1127f2cd403a315f,0,5,5,62,1,fourtwo,,,,,,,,,,,,,,,,,,,,,,,,,,,,,,,,,,,,,,,,,,,,,,,,,,,,,,,,,,,,,,,,,,,,,,,,,,,,,,,,,,,,,,,,,,,,,,,,,,,,,,,,,,,,,,,,,,,,,,,,,,,,,,,,,,,,,,,,,,,,,,,,,,,,,,,,,,,,,
,,,,,,5eb1b16b14e51e2de3f13827,62c53996ae27c2a639f10eee,2022-07-06_10h30.47.570,Colour_Asymmetry_Pilot,2022.1.3,Win32,59.95922773,62c50e9c1127f2cd403a315f,0,6,6,161,1,onethree,,,,,,,,,,,,,,,,,,,,,,,,,,,,,,,,,,,,,,,,,,,,,,,,,,,,,,,,,,,,,,,,,,,,,,,,,,,,,,,,,,,,,,,,,,,,,,,,,,,,,,,,,,,,,,,,,,,,,,,,,,,,,,,,,,,,,,,,,,,,,,,,,,,,,,,,,,,,,
,,,,,,5eb1b16b14e51e2de3f13827,62c53996ae27c2a639f10eee,2022-07-06_10h30.47.570,Colour_Asymmetry_Pilot,2022.1.3,Win32,59.95922773,62c50e9c1127f2cd403a315f,0,7,7,8,1,onetwo,,,,,,,,,,,,,,,,,,,,,,,,,,,,,,,,,,,,,,,,,,,,,,,,,,,,,,,,,,,,,,,,,,,,,,,,,,,,,,,,,,,,,,,,,,,,,,,,,,,,,,,,,,,,,,,,,,,,,,,,,,,,,,,,,,,,,,,,,,,,,,,,,,,,,,,,,,,,,
,,,,,,5eb1b16b14e51e2de3f13827,62c53996ae27c2a639f10eee,2022-07-06_10h30.47.570,Colour_Asymmetry_Pilot,2022.1.3,Win32,59.95922773,62c50e9c1127f2cd403a315f,0,8,8,48,1,onetwo,,,,,,,,,,,,,,,,,,,,,,,,,,,,,,,,,,,,,,,,,,,,,,,,,,,,,,,,,,,,,,,,,,,,,,,,,,,,,,,,,,,,,,,,,,,,,,,,,,,,,,,,,,,,,,,,,,,,,,,,,,,,,,,,,,,,,,,,,,,,,,,,,,,,,,,,,,,,,
,,,,,,5eb1b16b14e51e2de3f13827,62c53996ae27c2a639f10eee,2022-07-06_10h30.47.570,Colour_Asymmetry_Pilot,2022.1.3,Win32,59.95922773,62c50e9c1127f2cd403a315f,0,9,9,21,1,threefour,,,,,,,,,,,,,,,,,,,,,,,,,,,,,,,,,,,,,,,,,,,,,,,,,,,,,,,,,,,,,,,,,,,,,,,,,,,,,,,,,,,,,,,,,,,,,,,,,,,,,,,,,,,,,,,,,,,,,,,,,,,,,,,,,,,,,,,,,,,,,,,,,,,,,,,,,,,,,
,,,,,,5eb1b16b14e51e2de3f13827,62c53996ae27c2a639f10eee,2022-07-06_10h30.47.570,Colour_Asymmetry_Pilot,2022.1.3,Win32,59.95922773,62c50e9c1127f2cd403a315f,0,10,10,148,1,threeone,,,,,,,,,,,,,,,,,,,,,,,,,,,,,,,,,,,,,,,,,,,,,,,,,,,,,,,,,,,,,,,,,,,,,,,,,,,,,,,,,,,,,,,,,,,,,,,,,,,,,,,,,,,,,,,,,,,,,,,,,,,,,,,,,,,,,,,,,,,,,,,,,,,,,,,,,,,,,
,,,,,,5eb1b16b14e51e2de3f13827,62c53996ae27c2a639f10eee,2022-07-06_10h30.47.570,Colour_Asymmetry_Pilot,2022.1.3,Win32,59.95922773,62c50e9c1127f2cd403a315f,0,11,11,46,1,fourtwo,,,,,,,,,,,,,,,,,,,,,,,,,,,,,,,,,,,,,,,,,,,,,,,,,,,,,,,,,,,,,,,,,,,,,,,,,,,,,,,,,,,,,,,,,,,,,,,,,,,,,,,,,,,,,,,,,,,,,,,,,,,,,,,,,,,,,,,,,,,,,,,,,,,,,,,,,,,,,
,,,,,,5eb1b16b14e51e2de3f13827,62c53996ae27c2a639f10eee,2022-07-06_10h30.47.570,Colour_Asymmetry_Pilot,2022.1.3,Win32,59.95922773,62c50e9c1127f2cd403a315f,0,12,12,143,1,fourthree,,,,,,,,,,,,,,,,,,,,,,,,,,,,,,,,,,,,,,,,,,,,,,,,,,,,,,,,,,,,,,,,,,,,,,,,,,,,,,,,,,,,,,,,,,,,,,,,,,,,,,,,,,,,,,,,,,,,,,,,,,,,,,,,,,,,,,,,,,,,,,,,,,,,,,,,,,,,,
,,,,,,5eb1b16b14e51e2de3f13827,62c53996ae27c2a639f10eee,2022-07-06_10h30.47.570,Colour_Asymmetry_Pilot,2022.1.3,Win32,59.95922773,62c50e9c1127f2cd403a315f,0,13,13,118,1,fourtwo,,,,,,,,,,,,,,,,,,,,,,,,,,,,,,,,,,,,,,,,,,,,,,,,,,,,,,,,,,,,,,,,,,,,,,,,,,,,,,,,,,,,,,,,,,,,,,,,,,,,,,,,,,,,,,,,,,,,,,,,,,,,,,,,,,,,,,,,,,,,,,,,,,,,,,,,,,,,,
,,,,,,5eb1b16b14e51e2de3f13827,62c53996ae27c2a639f10eee,2022-07-06_10h30.47.570,Colour_Asymmetry_Pilot,2022.1.3,Win32,59.95922773,62c50e9c1127f2cd403a315f,0,14,14,137,1,onethree,,,,,,,,,,,,,,,,,,,,,,,,,,,,,,,,,,,,,,,,,,,,,,,,,,,,,,,,,,,,,,,,,,,,,,,,,,,,,,,,,,,,,,,,,,,,,,,,,,,,,,,,,,,,,,,,,,,,,,,,,,,,,,,,,,,,,,,,,,,,,,,,,,,,,,,,,,,,,
,,,,,,5eb1b16b14e51e2de3f13827,62c53996ae27c2a639f10eee,2022-07-06_10h30.47.570,Colour_Asymmetry_Pilot,2022.1.3,Win32,59.95922773,62c50e9c1127f2cd403a315f,0,15,15,90,1,twoone,,,,,,,,,,,,,,,,,,,,,,,,,,,,,,,,,,,,,,,,,,,,,,,,,,,,,,,,,,,,,,,,,,,,,,,,,,,,,,,,,,,,,,,,,,,,,,,,,,,,,,,,,,,,,,,,,,,,,,,,,,,,,,,,,,,,,,,,,,,,,,,,,,,,,,,,,,,,,
,,,,,,5eb1b16b14e51e2de3f13827,62c53996ae27c2a639f10eee,2022-07-06_10h30.47.570,Colour_Asymmetry_Pilot,2022.1.3,Win32,59.95922773,62c50e9c1127f2cd403a315f,0,16,16,121,1,onethree,,,,,,,,,,,,,,,,,,,,,,,,,,,,,,,,,,,,,,,,,,,,,,,,,,,,,,,,,,,,,,,,,,,,,,,,,,,,,,,,,,,,,,,,,,,,,,,,,,,,,,,,,,,,,,,,,,,,,,,,,,,,,,,,,,,,,,,,,,,,,,,,,,,,,,,,,,,,,
,,,,,,5eb1b16b14e51e2de3f13827,62c53996ae27c2a639f10eee,2022-07-06_10h30.47.570,Colour_Asymmetry_Pilot,2022.1.3,Win32,59.95922773,62c50e9c1127f2cd403a315f,0,17,17,115,1,twofour,,,,,,,,,,,,,,,,,,,,,,,,,,,,,,,,,,,,,,,,,,,,,,,,,,,,,,,,,,,,,,,,,,,,,,,,,,,,,,,,,,,,,,,,,,,,,,,,,,,,,,,,,,,,,,,,,,,,,,,,,,,,,,,,,,,,,,,,,,,,,,,,,,,,,,,,,,,,,
,,,,,,5eb1b16b14e51e2de3f13827,62c53996ae27c2a639f10eee,2022-07-06_10h30.47.570,Colour_Asymmetry_Pilot,2022.1.3,Win32,59.95922773,62c50e9c1127f2cd403a315f,0,18,18,117,1,threefour,,,,,,,,,,,,,,,,,,,,,,,,,,,,,,,,,,,,,,,,,,,,,,,,,,,,,,,,,,,,,,,,,,,,,,,,,,,,,,,,,,,,,,,,,,,,,,,,,,,,,,,,,,,,,,,,,,,,,,,,,,,,,,,,,,,,,,,,,,,,,,,,,,,,,,,,,,,,,
,,,,,,5eb1b16b14e51e2de3f13827,62c53996ae27c2a639f10eee,2022-07-06_10h30.47.570,Colour_Asymmetry_Pilot,2022.1.3,Win32,59.95922773,62c50e9c1127f2cd403a315f,0,19,19,120,1,onetwo,,,,,,,,,,,,,,,,,,,,,,,,,,,,,,,,,,,,,,,,,,,,,,,,,,,,,,,,,,,,,,,,,,,,,,,,,,,,,,,,,,,,,,,,,,,,,,,,,,,,,,,,,,,,,,,,,,,,,,,,,,,,,,,,,,,,,,,,,,,,,,,,,,,,,,,,,,,,,
,,,,,,5eb1b16b14e51e2de3f13827,62c53996ae27c2a639f10eee,2022-07-06_10h30.47.570,Colour_Asymmetry_Pilot,2022.1.3,Win32,59.95922773,62c50e9c1127f2cd403a315f,0,20,20,20,1,threeone,,,,,,,,,,,,,,,,,,,,,,,,,,,,,,,,,,,,,,,,,,,,,,,,,,,,,,,,,,,,,,,,,,,,,,,,,,,,,,,,,,,,,,,,,,,,,,,,,,,,,,,,,,,,,,,,,,,,,,,,,,,,,,,,,,,,,,,,,,,,,,,,,,,,,,,,,,,,,
,,,,,,5eb1b16b14e51e2de3f13827,62c53996ae27c2a639f10eee,2022-07-06_10h30.47.570,Colour_Asymmetry_Pilot,2022.1.3,Win32,59.95922773,62c50e9c1127f2cd403a315f,0,21,21,44,1,threeone,,,,,,,,,,,,,,,,,,,,,,,,,,,,,,,,,,,,,,,,,,,,,,,,,,,,,,,,,,,,,,,,,,,,,,,,,,,,,,,,,,,,,,,,,,,,,,,,,,,,,,,,,,,,,,,,,,,,,,,,,,,,,,,,,,,,,,,,,,,,,,,,,,,,,,,,,,,,,
,,,,,,5eb1b16b14e51e2de3f13827,62c53996ae27c2a639f10eee,2022-07-06_10h30.47.570,Colour_Asymmetry_Pilot,2022.1.3,Win32,59.95922773,62c50e9c1127f2cd403a315f,0,22,22,104,1,onetwo,,,,,,,,,,,,,,,,,,,,,,,,,,,,,,,,,,,,,,,,,,,,,,,,,,,,,,,,,,,,,,,,,,,,,,,,,,,,,,,,,,,,,,,,,,,,,,,,,,,,,,,,,,,,,,,,,,,,,,,,,,,,,,,,,,,,,,,,,,,,,,,,,,,,,,,,,,,,,
,,,,,,5eb1b16b14e51e2de3f13827,62c53996ae27c2a639f10eee,2022-07-06_10h30.47.570,Colour_Asymmetry_Pilot,2022.1.3,Win32,59.95922773,62c50e9c1127f2cd403a315f,0,23,23,140,1,threeone,,,,,,,,,,,,,,,,,,,,,,,,,,,,,,,,,,,,,,,,,,,,,,,,,,,,,,,,,,,,,,,,,,,,,,,,,,,,,,,,,,,,,,,,,,,,,,,,,,,,,,,,,,,,,,,,,,,,,,,,,,,,,,,,,,,,,,,,,,,,,,,,,,,,,,,,,,,,,
,,,,,,5eb1b16b14e51e2de3f13827,62c53996ae27c2a639f10eee,2022-07-06_10h30.47.570,Colour_Asymmetry_Pilot,2022.1.3,Win32,59.95922773,62c50e9c1127f2cd403a315f,0,24,24,43,1,twofour,,,,,,,,,,,,,,,,,,,,,,,,,,,,,,,,,,,,,,,,,,,,,,,,,,,,,,,,,,,,,,,,,,,,,,,,,,,,,,,,,,,,,,,,,,,,,,,,,,,,,,,,,,,,,,,,,,,,,,,,,,,,,,,,,,,,,,,,,,,,,,,,,,,,,,,,,,,,,
,,,,,,5eb1b16b14e51e2de3f13827,62c53996ae27c2a639f10eee,2022-07-06_10h30.47.570,Colour_Asymmetry_Pilot,2022.1.3,Win32,59.95922773,62c50e9c1127f2cd403a315f,0,25,25,28,1,threeone,,,,,,,,,,,,,,,,,,,,,,,,,,,,,,,,,,,,,,,,,,,,,,,,,,,,,,,,,,,,,,,,,,,,,,,,,,,,,,,,,,,,,,,,,,,,,,,,,,,,,,,,,,,,,,,,,,,,,,,,,,,,,,,,,,,,,,,,,,,,,,,,,,,,,,,,,,,,,
,,,,,,5eb1b16b14e51e2de3f13827,62c53996ae27c2a639f10eee,2022-07-06_10h30.47.570,Colour_Asymmetry_Pilot,2022.1.3,Win32,59.95922773,62c50e9c1127f2cd403a315f,0,26,26,111,1,fourthree,,,,,,,,,,,,,,,,,,,,,,,,,,,,,,,,,,,,,,,,,,,,,,,,,,,,,,,,,,,,,,,,,,,,,,,,,,,,,,,,,,,,,,,,,,,,,,,,,,,,,,,,,,,,,,,,,,,,,,,,,,,,,,,,,,,,,,,,,,,,,,,,,,,,,,,,,,,,,
,,,,,,5eb1b16b14e51e2de3f13827,62c53996ae27c2a639f10eee,2022-07-06_10h30.47.570,Colour_Asymmetry_Pilot,2022.1.3,Win32,59.95922773,62c50e9c1127f2cd403a315f,0,27,27,57,1,onethree,,,,,,,,,,,,,,,,,,,,,,,,,,,,,,,,,,,,,,,,,,,,,,,,,,,,,,,,,,,,,,,,,,,,,,,,,,,,,,,,,,,,,,,,,,,,,,,,,,,,,,,,,,,,,,,,,,,,,,,,,,,,,,,,,,,,,,,,,,,,,,,,,,,,,,,,,,,,,
,,,,,,5eb1b16b14e51e2de3f13827,62c53996ae27c2a639f10eee,2022-07-06_10h30.47.570,Colour_Asymmetry_Pilot,2022.1.3,Win32,59.95922773,62c50e9c1127f2cd403a315f,0,28,28,153,1,onethree,,,,,,,,,,,,,,,,,,,,,,,,,,,,,,,,,,,,,,,,,,,,,,,,,,,,,,,,,,,,,,,,,,,,,,,,,,,,,,,,,,,,,,,,,,,,,,,,,,,,,,,,,,,,,,,,,,,,,,,,,,,,,,,,,,,,,,,,,,,,,,,,,,,,,,,,,,,,,
,,,,,,5eb1b16b14e51e2de3f13827,62c53996ae27c2a639f10eee,2022-07-06_10h30.47.570,Colour_Asymmetry_Pilot,2022.1.3,Win32,59.95922773,62c50e9c1127f2cd403a315f,0,29,29,130,1,twoone,,,,,,,,,,,,,,,,,,,,,,,,,,,,,,,,,,,,,,,,,,,,,,,,,,,,,,,,,,,,,,,,,,,,,,,,,,,,,,,,,,,,,,,,,,,,,,,,,,,,,,,,,,,,,,,,,,,,,,,,,,,,,,,,,,,,,,,,,,,,,,,,,,,,,,,,,,,,,
,,,,,,5eb1b16b14e51e2de3f13827,62c53996ae27c2a639f10eee,2022-07-06_10h30.47.570,Colour_Asymmetry_Pilot,2022.1.3,Win32,59.95922773,62c50e9c1127f2cd403a315f,0,30,30,72,1,onetwo,,,,,,,,,,,,,,,,,,,,,,,,,,,,,,,,,,,,,,,,,,,,,,,,,,,,,,,,,,,,,,,,,,,,,,,,,,,,,,,,,,,,,,,,,,,,,,,,,,,,,,,,,,,,,,,,,,,,,,,,,,,,,,,,,,,,,,,,,,,,,,,,,,,,,,,,,,,,,
,,,,,,5eb1b16b14e51e2de3f13827,62c53996ae27c2a639f10eee,2022-07-06_10h30.47.570,Colour_Asymmetry_Pilot,2022.1.3,Win32,59.95922773,62c50e9c1127f2cd403a315f,0,31,31,145,1,onethree,,,,,,,,,,,,,,,,,,,,,,,,,,,,,,,,,,,,,,,,,,,,,,,,,,,,,,,,,,,,,,,,,,,,,,,,,,,,,,,,,,,,,,,,,,,,,,,,,,,,,,,,,,,,,,,,,,,,,,,,,,,,,,,,,,,,,,,,,,,,,,,,,,,,,,,,,,,,,
,,,,,,5eb1b16b14e51e2de3f13827,62c53996ae27c2a639f10eee,2022-07-06_10h30.47.570,Colour_Asymmetry_Pilot,2022.1.3,Win32,59.95922773,62c50e9c1127f2cd403a315f,0,32,32,32,1,onetwo,,,,,,,,,,,,,,,,,,,,,,,,,,,,,,,,,,,,,,,,,,,,,,,,,,,,,,,,,,,,,,,,,,,,,,,,,,,,,,,,,,,,,,,,,,,,,,,,,,,,,,,,,,,,,,,,,,,,,,,,,,,,,,,,,,,,,,,,,,,,,,,,,,,,,,,,,,,,,
,,,,,,5eb1b16b14e51e2de3f13827,62c53996ae27c2a639f10eee,2022-07-06_10h30.47.570,Colour_Asymmetry_Pilot,2022.1.3,Win32,59.95922773,62c50e9c1127f2cd403a315f,0,33,33,87,1,fourthree,,,,,,,,,,,,,,,,,,,,,,,,,,,,,,,,,,,,,,,,,,,,,,,,,,,,,,,,,,,,,,,,,,,,,,,,,,,,,,,,,,,,,,,,,,,,,,,,,,,,,,,,,,,,,,,,,,,,,,,,,,,,,,,,,,,,,,,,,,,,,,,,,,,,,,,,,,,,,
,,,,,,5eb1b16b14e51e2de3f13827,62c53996ae27c2a639f10eee,2022-07-06_10h30.47.570,Colour_Asymmetry_Pilot,2022.1.3,Win32,59.95922773,62c50e9c1127f2cd403a315f,0,34,34,142,1,fourtwo,,,,,,,,,,,,,,,,,,,,,,,,,,,,,,,,,,,,,,,,,,,,,,,,,,,,,,,,,,,,,,,,,,,,,,,,,,,,,,,,,,,,,,,,,,,,,,,,,,,,,,,,,,,,,,,,,,,,,,,,,,,,,,,,,,,,,,,,,,,,,,,,,,,,,,,,,,,,,
,,,,,,5eb1b16b14e51e2de3f13827,62c53996ae27c2a639f10eee,2022-07-06_10h30.47.570,Colour_Asymmetry_Pilot,2022.1.3,Win32,59.95922773,62c50e9c1127f2cd403a315f,0,35,35,61,1,threefour,,,,,,,,,,,,,,,,,,,,,,,,,,,,,,,,,,,,,,,,,,,,,,,,,,,,,,,,,,,,,,,,,,,,,,,,,,,,,,,,,,,,,,,,,,,,,,,,,,,,,,,,,,,,,,,,,,,,,,,,,,,,,,,,,,,,,,,,,,,,,,,,,,,,,,,,,,,,,
,,,,,,5eb1b16b14e51e2de3f13827,62c53996ae27c2a639f10eee,2022-07-06_10h30.47.570,Colour_Asymmetry_Pilot,2022.1.3,Win32,59.95922773,62c50e9c1127f2cd403a315f,0,36,36,13,1,threefour,,,,,,,,,,,,,,,,,,,,,,,,,,,,,,,,,,,,,,,,,,,,,,,,,,,,,,,,,,,,,,,,,,,,,,,,,,,,,,,,,,,,,,,,,,,,,,,,,,,,,,,,,,,,,,,,,,,,,,,,,,,,,,,,,,,,,,,,,,,,,,,,,,,,,,,,,,,,,
,,,,,,5eb1b16b14e51e2de3f13827,62c53996ae27c2a639f10eee,2022-07-06_10h30.47.570,Colour_Asymmetry_Pilot,2022.1.3,Win32,59.95922773,62c50e9c1127f2cd403a315f,0,37,37,66,1,twoone,,,,,,,,,,,,,,,,,,,,,,,,,,,,,,,,,,,,,,,,,,,,,,,,,,,,,,,,,,,,,,,,,,,,,,,,,,,,,,,,,,,,,,,,,,,,,,,,,,,,,,,,,,,,,,,,,,,,,,,,,,,,,,,,,,,,,,,,,,,,,,,,,,,,,,,,,,,,,
,,,,,,5eb1b16b14e51e2de3f13827,62c53996ae27c2a639f10eee,2022-07-06_10h30.47.570,Colour_Asymmetry_Pilot,2022.1.3,Win32,59.95922773,62c50e9c1127f2cd403a315f,0,38,38,50,1,twoone,,,,,,,,,,,,,,,,,,,,,,,,,,,,,,,,,,,,,,,,,,,,,,,,,,,,,,,,,,,,,,,,,,,,,,,,,,,,,,,,,,,,,,,,,,,,,,,,,,,,,,,,,,,,,,,,,,,,,,,,,,,,,,,,,,,,,,,,,,,,,,,,,,,,,,,,,,,,,
,,,,,,5eb1b16b14e51e2de3f13827,62c53996ae27c2a639f10eee,2022-07-06_10h30.47.570,Colour_Asymmetry_Pilot,2022.1.3,Win32,59.95922773,62c50e9c1127f2cd403a315f,0,39,39,59,1,twofour,,,,,,,,,,,,,,,,,,,,,,,,,,,,,,,,,,,,,,,,,,,,,,,,,,,,,,,,,,,,,,,,,,,,,,,,,,,,,,,,,,,,,,,,,,,,,,,,,,,,,,,,,,,,,,,,,,,,,,,,,,,,,,,,,,,,,,,,,,,,,,,,,,,,,,,,,,,,,
,,,,,,5eb1b16b14e51e2de3f13827,62c53996ae27c2a639f10eee,2022-07-06_10h30.47.570,Colour_Asymmetry_Pilot,2022.1.3,Win32,59.95922773,62c50e9c1127f2cd403a315f,0,40,40,113,1,onethree,,,,,,,,,,,,,,,,,,,,,,,,,,,,,,,,,,,,,,,,,,,,,,,,,,,,,,,,,,,,,,,,,,,,,,,,,,,,,,,,,,,,,,,,,,,,,,,,,,,,,,,,,,,,,,,,,,,,,,,,,,,,,,,,,,,,,,,,,,,,,,,,,,,,,,,,,,,,,
,,,,,,5eb1b16b14e51e2de3f13827,62c53996ae27c2a639f10eee,2022-07-06_10h30.47.570,Colour_Asymmetry_Pilot,2022.1.3,Win32,59.95922773,62c50e9c1127f2cd403a315f,0,41,41,23,1,fourthree,,,,,,,,,,,,,,,,,,,,,,,,,,,,,,,,,,,,,,,,,,,,,,,,,,,,,,,,,,,,,,,,,,,,,,,,,,,,,,,,,,,,,,,,,,,,,,,,,,,,,,,,,,,,,,,,,,,,,,,,,,,,,,,,,,,,,,,,,,,,,,,,,,,,,,,,,,,,,
,,,,,,5eb1b16b14e51e2de3f13827,62c53996ae27c2a639f10eee,2022-07-06_10h30.47.570,Colour_Asymmetry_Pilot,2022.1.3,Win32,59.95922773,62c50e9c1127f2cd403a315f,0,42,42,114,1,twoone,,,,,,,,,,,,,,,,,,,,,,,,,,,,,,,,,,,,,,,,,,,,,,,,,,,,,,,,,,,,,,,,,,,,,,,,,,,,,,,,,,,,,,,,,,,,,,,,,,,,,,,,,,,,,,,,,,,,,,,,,,,,,,,,,,,,,,,,,,,,,,,,,,,,,,,,,,,,,
,,,,,,5eb1b16b14e51e2de3f13827,62c53996ae27c2a639f10eee,2022-07-06_10h30.47.570,Colour_Asymmetry_Pilot,2022.1.3,Win32,59.95922773,62c50e9c1127f2cd403a315f,0,43,43,9,1,onethree,,,,,,,,,,,,,,,,,,,,,,,,,,,,,,,,,,,,,,,,,,,,,,,,,,,,,,,,,,,,,,,,,,,,,,,,,,,,,,,,,,,,,,,,,,,,,,,,,,,,,,,,,,,,,,,,,,,,,,,,,,,,,,,,,,,,,,,,,,,,,,,,,,,,,,,,,,,,,
,,,,,,5eb1b16b14e51e2de3f13827,62c53996ae27c2a639f10eee,2022-07-06_10h30.47.570,Colour_Asymmetry_Pilot,2022.1.3,Win32,59.95922773,62c50e9c1127f2cd403a315f,0,44,44,92,1,threeone,,,,,,,,,,,,,,,,,,,,,,,,,,,,,,,,,,,,,,,,,,,,,,,,,,,,,,,,,,,,,,,,,,,,,,,,,,,,,,,,,,,,,,,,,,,,,,,,,,,,,,,,,,,,,,,,,,,,,,,,,,,,,,,,,,,,,,,,,,,,,,,,,,,,,,,,,,,,,
,,,,,,5eb1b16b14e51e2de3f13827,62c53996ae27c2a639f10eee,2022-07-06_10h30.47.570,Colour_Asymmetry_Pilot,2022.1.3,Win32,59.95922773,62c50e9c1127f2cd403a315f,0,45,45,82,1,twoone,,,,,,,,,,,,,,,,,,,,,,,,,,,,,,,,,,,,,,,,,,,,,,,,,,,,,,,,,,,,,,,,,,,,,,,,,,,,,,,,,,,,,,,,,,,,,,,,,,,,,,,,,,,,,,,,,,,,,,,,,,,,,,,,,,,,,,,,,,,,,,,,,,,,,,,,,,,,,
,,,,,,5eb1b16b14e51e2de3f13827,62c53996ae27c2a639f10eee,2022-07-06_10h30.47.570,Colour_Asymmetry_Pilot,2022.1.3,Win32,59.95922773,62c50e9c1127f2cd403a315f,0,46,46,33,1,onethree,,,,,,,,,,,,,,,,,,,,,,,,,,,,,,,,,,,,,,,,,,,,,,,,,,,,,,,,,,,,,,,,,,,,,,,,,,,,,,,,,,,,,,,,,,,,,,,,,,,,,,,,,,,,,,,,,,,,,,,,,,,,,,,,,,,,,,,,,,,,,,,,,,,,,,,,,,,,,
,,,,,,5eb1b16b14e51e2de3f13827,62c53996ae27c2a639f10eee,2022-07-06_10h30.47.570,Colour_Asymmetry_Pilot,2022.1.3,Win32,59.95922773,62c50e9c1127f2cd403a315f,0,47,47,80,1,onetwo,,,,,,,,,,,,,,,,,,,,,,,,,,,,,,,,,,,,,,,,,,,,,,,,,,,,,,,,,,,,,,,,,,,,,,,,,,,,,,,,,,,,,,,,,,,,,,,,,,,,,,,,,,,,,,,,,,,,,,,,,,,,,,,,,,,,,,,,,,,,,,,,,,,,,,,,,,,,,
,,,,,,5eb1b16b14e51e2de3f13827,62c53996ae27c2a639f10eee,2022-07-06_10h30.47.570,Colour_Asymmetry_Pilot,2022.1.3,Win32,59.95922773,62c50e9c1127f2cd403a315f,0,48,48,135,1,fourthree,,,,,,,,,,,,,,,,,,,,,,,,,,,,,,,,,,,,,,,,,,,,,,,,,,,,,,,,,,,,,,,,,,,,,,,,,,,,,,,,,,,,,,,,,,,,,,,,,,,,,,,,,,,,,,,,,,,,,,,,,,,,,,,,,,,,,,,,,,,,,,,,,,,,,,,,,,,,,
,,,,,,5eb1b16b14e51e2de3f13827,62c53996ae27c2a639f10eee,2022-07-06_10h30.47.570,Colour_Asymmetry_Pilot,2022.1.3,Win32,59.95922773,62c50e9c1127f2cd403a315f,0,49,49,99,1,twofour,,,,,,,,,,,,,,,,,,,,,,,,,,,,,,,,,,,,,,,,,,,,,,,,,,,,,,,,,,,,,,,,,,,,,,,,,,,,,,,,,,,,,,,,,,,,,,,,,,,,,,,,,,,,,,,,,,,,,,,,,,,,,,,,,,,,,,,,,,,,,,,,,,,,,,,,,,,,,
,,,,,,5eb1b16b14e51e2de3f13827,62c53996ae27c2a639f10eee,2022-07-06_10h30.47.570,Colour_Asymmetry_Pilot,2022.1.3,Win32,59.95922773,62c50e9c1127f2cd403a315f,0,50,50,103,1,fourthree,,,,,,,,,,,,,,,,,,,,,,,,,,,,,,,,,,,,,,,,,,,,,,,,,,,,,,,,,,,,,,,,,,,,,,,,,,,,,,,,,,,,,,,,,,,,,,,,,,,,,,,,,,,,,,,,,,,,,,,,,,,,,,,,,,,,,,,,,,,,,,,,,,,,,,,,,,,,,
,,,,,,5eb1b16b14e51e2de3f13827,62c53996ae27c2a639f10eee,2022-07-06_10h30.47.570,Colour_Asymmetry_Pilot,2022.1.3,Win32,59.95922773,62c50e9c1127f2cd403a315f,0,51,51,93,1,threefour,,,,,,,,,,,,,,,,,,,,,,,,,,,,,,,,,,,,,,,,,,,,,,,,,,,,,,,,,,,,,,,,,,,,,,,,,,,,,,,,,,,,,,,,,,,,,,,,,,,,,,,,,,,,,,,,,,,,,,,,,,,,,,,,,,,,,,,,,,,,,,,,,,,,,,,,,,,,,
,,,,,,5eb1b16b14e51e2de3f13827,62c53996ae27c2a639f10eee,2022-07-06_10h30.47.570,Colour_Asymmetry_Pilot,2022.1.3,Win32,59.95922773,62c50e9c1127f2cd403a315f,0,52,52,100,1,threeone,,,,,,,,,,,,,,,,,,,,,,,,,,,,,,,,,,,,,,,,,,,,,,,,,,,,,,,,,,,,,,,,,,,,,,,,,,,,,,,,,,,,,,,,,,,,,,,,,,,,,,,,,,,,,,,,,,,,,,,,,,,,,,,,,,,,,,,,,,,,,,,,,,,,,,,,,,,,,
,,,,,,5eb1b16b14e51e2de3f13827,62c53996ae27c2a639f10eee,2022-07-06_10h30.47.570,Colour_Asymmetry_Pilot,2022.1.3,Win32,59.95922773,62c50e9c1127f2cd403a315f,0,53,53,97,1,onethree,,,,,,,,,,,,,,,,,,,,,,,,,,,,,,,,,,,,,,,,,,,,,,,,,,,,,,,,,,,,,,,,,,,,,,,,,,,,,,,,,,,,,,,,,,,,,,,,,,,,,,,,,,,,,,,,,,,,,,,,,,,,,,,,,,,,,,,,,,,,,,,,,,,,,,,,,,,,,
,,,,,,5eb1b16b14e51e2de3f13827,62c53996ae27c2a639f10eee,2022-07-06_10h30.47.570,Colour_Asymmetry_Pilot,2022.1.3,Win32,59.95922773,62c50e9c1127f2cd403a315f,0,54,54,154,1,twoone,,,,,,,,,,,,,,,,,,,,,,,,,,,,,,,,,,,,,,,,,,,,,,,,,,,,,,,,,,,,,,,,,,,,,,,,,,,,,,,,,,,,,,,,,,,,,,,,,,,,,,,,,,,,,,,,,,,,,,,,,,,,,,,,,,,,,,,,,,,,,,,,,,,,,,,,,,,,,
,,,,,,5eb1b16b14e51e2de3f13827,62c53996ae27c2a639f10eee,2022-07-06_10h30.47.570,Colour_Asymmetry_Pilot,2022.1.3,Win32,59.95922773,62c50e9c1127f2cd403a315f,0,55,55,124,1,threeone,,,,,,,,,,,,,,,,,,,,,,,,,,,,,,,,,,,,,,,,,,,,,,,,,,,,,,,,,,,,,,,,,,,,,,,,,,,,,,,,,,,,,,,,,,,,,,,,,,,,,,,,,,,,,,,,,,,,,,,,,,,,,,,,,,,,,,,,,,,,,,,,,,,,,,,,,,,,,
,,,,,,5eb1b16b14e51e2de3f13827,62c53996ae27c2a639f10eee,2022-07-06_10h30.47.570,Colour_Asymmetry_Pilot,2022.1.3,Win32,59.95922773,62c50e9c1127f2cd403a315f,0,56,56,157,1,threefour,,,,,,,,,,,,,,,,,,,,,,,,,,,,,,,,,,,,,,,,,,,,,,,,,,,,,,,,,,,,,,,,,,,,,,,,,,,,,,,,,,,,,,,,,,,,,,,,,,,,,,,,,,,,,,,,,,,,,,,,,,,,,,,,,,,,,,,,,,,,,,,,,,,,,,,,,,,,,
,,,,,,5eb1b16b14e51e2de3f13827,62c53996ae27c2a639f10eee,2022-07-06_10h30.47.570,Colour_Asymmetry_Pilot,2022.1.3,Win32,59.95922773,62c50e9c1127f2cd403a315f,0,57,57,51,1,twofour,,,,,,,,,,,,,,,,,,,,,,,,,,,,,,,,,,,,,,,,,,,,,,,,,,,,,,,,,,,,,,,,,,,,,,,,,,,,,,,,,,,,,,,,,,,,,,,,,,,,,,,,,,,,,,,,,,,,,,,,,,,,,,,,,,,,,,,,,,,,,,,,,,,,,,,,,,,,,
,,,,,,5eb1b16b14e51e2de3f13827,62c53996ae27c2a639f10eee,2022-07-06_10h30.47.570,Colour_Asymmetry_Pilot,2022.1.3,Win32,59.95922773,62c50e9c1127f2cd403a315f,0,58,58,22,1,fourtwo,,,,,,,,,,,,,,,,,,,,,,,,,,,,,,,,,,,,,,,,,,,,,,,,,,,,,,,,,,,,,,,,,,,,,,,,,,,,,,,,,,,,,,,,,,,,,,,,,,,,,,,,,,,,,,,,,,,,,,,,,,,,,,,,,,,,,,,,,,,,,,,,,,,,,,,,,,,,,
,,,,,,5eb1b16b14e51e2de3f13827,62c53996ae27c2a639f10eee,2022-07-06_10h30.47.570,Colour_Asymmetry_Pilot,2022.1.3,Win32,59.95922773,62c50e9c1127f2cd403a315f,0,59,59,37,1,threefour,,,,,,,,,,,,,,,,,,,,,,,,,,,,,,,,,,,,,,,,,,,,,,,,,,,,,,,,,,,,,,,,,,,,,,,,,,,,,,,,,,,,,,,,,,,,,,,,,,,,,,,,,,,,,,,,,,,,,,,,,,,,,,,,,,,,,,,,,,,,,,,,,,,,,,,,,,,,,
,,,,,,5eb1b16b14e51e2de3f13827,62c53996ae27c2a639f10eee,2022-07-06_10h30.47.570,Colour_Asymmetry_Pilot,2022.1.3,Win32,59.95922773,62c50e9c1127f2cd403a315f,0,60,60,116,1,threeone,,,,,,,,,,,,,,,,,,,,,,,,,,,,,,,,,,,,,,,,,,,,,,,,,,,,,,,,,,,,,,,,,,,,,,,,,,,,,,,,,,,,,,,,,,,,,,,,,,,,,,,,,,,,,,,,,,,,,,,,,,,,,,,,,,,,,,,,,,,,,,,,,,,,,,,,,,,,,
,,,,,,5eb1b16b14e51e2de3f13827,62c53996ae27c2a639f10eee,2022-07-06_10h30.47.570,Colour_Asymmetry_Pilot,2022.1.3,Win32,59.95922773,62c50e9c1127f2cd403a315f,0,61,61,81,1,onethree,,,,,,,,,,,,,,,,,,,,,,,,,,,,,,,,,,,,,,,,,,,,,,,,,,,,,,,,,,,,,,,,,,,,,,,,,,,,,,,,,,,,,,,,,,,,,,,,,,,,,,,,,,,,,,,,,,,,,,,,,,,,,,,,,,,,,,,,,,,,,,,,,,,,,,,,,,,,,
,,,,,,5eb1b16b14e51e2de3f13827,62c53996ae27c2a639f10eee,2022-07-06_10h30.47.570,Colour_Asymmetry_Pilot,2022.1.3,Win32,59.95922773,62c50e9c1127f2cd403a315f,0,62,62,56,1,onetwo,,,,,,,,,,,,,,,,,,,,,,,,,,,,,,,,,,,,,,,,,,,,,,,,,,,,,,,,,,,,,,,,,,,,,,,,,,,,,,,,,,,,,,,,,,,,,,,,,,,,,,,,,,,,,,,,,,,,,,,,,,,,,,,,,,,,,,,,,,,,,,,,,,,,,,,,,,,,,
,,,,,,5eb1b16b14e51e2de3f13827,62c53996ae27c2a639f10eee,2022-07-06_10h30.47.570,Colour_Asymmetry_Pilot,2022.1.3,Win32,59.95922773,62c50e9c1127f2cd403a315f,0,63,63,4,1,threeone,,,,,,,,,,,,,,,,,,,,,,,,,,,,,,,,,,,,,,,,,,,,,,,,,,,,,,,,,,,,,,,,,,,,,,,,,,,,,,,,,,,,,,,,,,,,,,,,,,,,,,,,,,,,,,,,,,,,,,,,,,,,,,,,,,,,,,,,,,,,,,,,,,,,,,,,,,,,,
,,,,,,5eb1b16b14e51e2de3f13827,62c53996ae27c2a639f10eee,2022-07-06_10h30.47.570,Colour_Asymmetry_Pilot,2022.1.3,Win32,59.95922773,62c50e9c1127f2cd403a315f,0,64,64,123,1,twofour,,,,,,,,,,,,,,,,,,,,,,,,,,,,,,,,,,,,,,,,,,,,,,,,,,,,,,,,,,,,,,,,,,,,,,,,,,,,,,,,,,,,,,,,,,,,,,,,,,,,,,,,,,,,,,,,,,,,,,,,,,,,,,,,,,,,,,,,,,,,,,,,,,,,,,,,,,,,,
,,,,,,5eb1b16b14e51e2de3f13827,62c53996ae27c2a639f10eee,2022-07-06_10h30.47.570,Colour_Asymmetry_Pilot,2022.1.3,Win32,59.95922773,62c50e9c1127f2cd403a315f,0,65,65,125,1,threefour,,,,,,,,,,,,,,,,,,,,,,,,,,,,,,,,,,,,,,,,,,,,,,,,,,,,,,,,,,,,,,,,,,,,,,,,,,,,,,,,,,,,,,,,,,,,,,,,,,,,,,,,,,,,,,,,,,,,,,,,,,,,,,,,,,,,,,,,,,,,,,,,,,,,,,,,,,,,,
,,,,,,5eb1b16b14e51e2de3f13827,62c53996ae27c2a639f10eee,2022-07-06_10h30.47.570,Colour_Asymmetry_Pilot,2022.1.3,Win32,59.95922773,62c50e9c1127f2cd403a315f,0,66,66,76,1,threeone,,,,,,,,,,,,,,,,,,,,,,,,,,,,,,,,,,,,,,,,,,,,,,,,,,,,,,,,,,,,,,,,,,,,,,,,,,,,,,,,,,,,,,,,,,,,,,,,,,,,,,,,,,,,,,,,,,,,,,,,,,,,,,,,,,,,,,,,,,,,,,,,,,,,,,,,,,,,,
,,,,,,5eb1b16b14e51e2de3f13827,62c53996ae27c2a639f10eee,2022-07-06_10h30.47.570,Colour_Asymmetry_Pilot,2022.1.3,Win32,59.95922773,62c50e9c1127f2cd403a315f,0,67,67,75,1,twofour,,,,,,,,,,,,,,,,,,,,,,,,,,,,,,,,,,,,,,,,,,,,,,,,,,,,,,,,,,,,,,,,,,,,,,,,,,,,,,,,,,,,,,,,,,,,,,,,,,,,,,,,,,,,,,,,,,,,,,,,,,,,,,,,,,,,,,,,,,,,,,,,,,,,,,,,,,,,,
,,,,,,5eb1b16b14e51e2de3f13827,62c53996ae27c2a639f10eee,2022-07-06_10h30.47.570,Colour_Asymmetry_Pilot,2022.1.3,Win32,59.95922773,62c50e9c1127f2cd403a315f,0,68,68,25,1,onethree,,,,,,,,,,,,,,,,,,,,,,,,,,,,,,,,,,,,,,,,,,,,,,,,,,,,,,,,,,,,,,,,,,,,,,,,,,,,,,,,,,,,,,,,,,,,,,,,,,,,,,,,,,,,,,,,,,,,,,,,,,,,,,,,,,,,,,,,,,,,,,,,,,,,,,,,,,,,,
,,,,,,5eb1b16b14e51e2de3f13827,62c53996ae27c2a639f10eee,2022-07-06_10h30.47.570,Colour_Asymmetry_Pilot,2022.1.3,Win32,59.95922773,62c50e9c1127f2cd403a315f,0,69,69,73,1,onethree,,,,,,,,,,,,,,,,,,,,,,,,,,,,,,,,,,,,,,,,,,,,,,,,,,,,,,,,,,,,,,,,,,,,,,,,,,,,,,,,,,,,,,,,,,,,,,,,,,,,,,,,,,,,,,,,,,,,,,,,,,,,,,,,,,,,,,,,,,,,,,,,,,,,,,,,,,,,,
,,,,,,5eb1b16b14e51e2de3f13827,62c53996ae27c2a639f10eee,2022-07-06_10h30.47.570,Colour_Asymmetry_Pilot,2022.1.3,Win32,59.95922773,62c50e9c1127f2cd403a315f,0,70,70,18,1,twoone,,,,,,,,,,,,,,,,,,,,,,,,,,,,,,,,,,,,,,,,,,,,,,,,,,,,,,,,,,,,,,,,,,,,,,,,,,,,,,,,,,,,,,,,,,,,,,,,,,,,,,,,,,,,,,,,,,,,,,,,,,,,,,,,,,,,,,,,,,,,,,,,,,,,,,,,,,,,,
,,,,,,5eb1b16b14e51e2de3f13827,62c53996ae27c2a639f10eee,2022-07-06_10h30.47.570,Colour_Asymmetry_Pilot,2022.1.3,Win32,59.95922773,62c50e9c1127f2cd403a315f,0,71,71,84,1,threeone,,,,,,,,,,,,,,,,,,,,,,,,,,,,,,,,,,,,,,,,,,,,,,,,,,,,,,,,,,,,,,,,,,,,,,,,,,,,,,,,,,,,,,,,,,,,,,,,,,,,,,,,,,,,,,,,,,,,,,,,,,,,,,,,,,,,,,,,,,,,,,,,,,,,,,,,,,,,,
,,,,,,5eb1b16b14e51e2de3f13827,62c53996ae27c2a639f10eee,2022-07-06_10h30.47.570,Colour_Asymmetry_Pilot,2022.1.3,Win32,59.95922773,62c50e9c1127f2cd403a315f,0,72,72,112,1,onetwo,,,,,,,,,,,,,,,,,,,,,,,,,,,,,,,,,,,,,,,,,,,,,,,,,,,,,,,,,,,,,,,,,,,,,,,,,,,,,,,,,,,,,,,,,,,,,,,,,,,,,,,,,,,,,,,,,,,,,,,,,,,,,,,,,,,,,,,,,,,,,,,,,,,,,,,,,,,,,
,,,,,,5eb1b16b14e51e2de3f13827,62c53996ae27c2a639f10eee,2022-07-06_10h30.47.570,Colour_Asymmetry_Pilot,2022.1.3,Win32,59.95922773,62c50e9c1127f2cd403a315f,0,73,73,85,1,threefour,,,,,,,,,,,,,,,,,,,,,,,,,,,,,,,,,,,,,,,,,,,,,,,,,,,,,,,,,,,,,,,,,,,,,,,,,,,,,,,,,,,,,,,,,,,,,,,,,,,,,,,,,,,,,,,,,,,,,,,,,,,,,,,,,,,,,,,,,,,,,,,,,,,,,,,,,,,,,
,,,,,,5eb1b16b14e51e2de3f13827,62c53996ae27c2a639f10eee,2022-07-06_10h30.47.570,Colour_Asymmetry_Pilot,2022.1.3,Win32,59.95922773,62c50e9c1127f2cd403a315f,0,74,74,91,1,twofour,,,,,,,,,,,,,,,,,,,,,,,,,,,,,,,,,,,,,,,,,,,,,,,,,,,,,,,,,,,,,,,,,,,,,,,,,,,,,,,,,,,,,,,,,,,,,,,,,,,,,,,,,,,,,,,,,,,,,,,,,,,,,,,,,,,,,,,,,,,,,,,,,,,,,,,,,,,,,
,,,,,,5eb1b16b14e51e2de3f13827,62c53996ae27c2a639f10eee,2022-07-06_10h30.47.570,Colour_Asymmetry_Pilot,2022.1.3,Win32,59.95922773,62c50e9c1127f2cd403a315f,0,75,75,53,1,threefour,,,,,,,,,,,,,,,,,,,,,,,,,,,,,,,,,,,,,,,,,,,,,,,,,,,,,,,,,,,,,,,,,,,,,,,,,,,,,,,,,,,,,,,,,,,,,,,,,,,,,,,,,,,,,,,,,,,,,,,,,,,,,,,,,,,,,,,,,,,,,,,,,,,,,,,,,,,,,
,,,,,,5eb1b16b14e51e2de3f13827,62c53996ae27c2a639f10eee,2022-07-06_10h30.47.570,Colour_Asymmetry_Pilot,2022.1.3,Win32,59.95922773,62c50e9c1127f2cd403a315f,0,76,76,15,1,fourthree,,,,,,,,,,,,,,,,,,,,,,,,,,,,,,,,,,,,,,,,,,,,,,,,,,,,,,,,,,,,,,,,,,,,,,,,,,,,,,,,,,,,,,,,,,,,,,,,,,,,,,,,,,,,,,,,,,,,,,,,,,,,,,,,,,,,,,,,,,,,,,,,,,,,,,,,,,,,,
,,,,,,5eb1b16b14e51e2de3f13827,62c53996ae27c2a639f10eee,2022-07-06_10h30.47.570,Colour_Asymmetry_Pilot,2022.1.3,Win32,59.95922773,62c50e9c1127f2cd403a315f,0,77,77,68,1,threeone,,,,,,,,,,,,,,,,,,,,,,,,,,,,,,,,,,,,,,,,,,,,,,,,,,,,,,,,,,,,,,,,,,,,,,,,,,,,,,,,,,,,,,,,,,,,,,,,,,,,,,,,,,,,,,,,,,,,,,,,,,,,,,,,,,,,,,,,,,,,,,,,,,,,,,,,,,,,,
,,,,,,5eb1b16b14e51e2de3f13827,62c53996ae27c2a639f10eee,2022-07-06_10h30.47.570,Colour_Asymmetry_Pilot,2022.1.3,Win32,59.95922773,62c50e9c1127f2cd403a315f,0,78,78,1,1,onethree,,,,,,,,,,,,,,,,,,,,,,,,,,,,,,,,,,,,,,,,,,,,,,,,,,,,,,,,,,,,,,,,,,,,,,,,,,,,,,,,,,,,,,,,,,,,,,,,,,,,,,,,,,,,,,,,,,,,,,,,,,,,,,,,,,,,,,,,,,,,,,,,,,,,,,,,,,,,,
,,,,,,5eb1b16b14e51e2de3f13827,62c53996ae27c2a639f10eee,2022-07-06_10h30.47.570,Colour_Asymmetry_Pilot,2022.1.3,Win32,59.95922773,62c50e9c1127f2cd403a315f,0,79,79,26,1,twoone,,,,,,,,,,,,,,,,,,,,,,,,,,,,,,,,,,,,,,,,,,,,,,,,,,,,,,,,,,,,,,,,,,,,,,,,,,,,,,,,,,,,,,,,,,,,,,,,,,,,,,,,,,,,,,,,,,,,,,,,,,,,,,,,,,,,,,,,,,,,,,,,,,,,,,,,,,,,,
,,,,,,5eb1b16b14e51e2de3f13827,62c53996ae27c2a639f10eee,2022-07-06_10h30.47.570,Colour_Asymmetry_Pilot,2022.1.3,Win32,59.95922773,62c50e9c1127f2cd403a315f,0,80,80,78,1,fourtwo,,,,,,,,,,,,,,,,,,,,,,,,,,,,,,,,,,,,,,,,,,,,,,,,,,,,,,,,,,,,,,,,,,,,,,,,,,,,,,,,,,,,,,,,,,,,,,,,,,,,,,,,,,,,,,,,,,,,,,,,,,,,,,,,,,,,,,,,,,,,,,,,,,,,,,,,,,,,,
,,,,,,5eb1b16b14e51e2de3f13827,62c53996ae27c2a639f10eee,2022-07-06_10h30.47.570,Colour_Asymmetry_Pilot,2022.1.3,Win32,59.95922773,62c50e9c1127f2cd403a315f,0,81,81,27,1,twofour,,,,,,,,,,,,,,,,,,,,,,,,,,,,,,,,,,,,,,,,,,,,,,,,,,,,,,,,,,,,,,,,,,,,,,,,,,,,,,,,,,,,,,,,,,,,,,,,,,,,,,,,,,,,,,,,,,,,,,,,,,,,,,,,,,,,,,,,,,,,,,,,,,,,,,,,,,,,,
,,,,,,5eb1b16b14e51e2de3f13827,62c53996ae27c2a639f10eee,2022-07-06_10h30.47.570,Colour_Asymmetry_Pilot,2022.1.3,Win32,59.95922773,62c50e9c1127f2cd403a315f,0,82,82,128,1,onetwo,,,,,,,,,,,,,,,,,,,,,,,,,,,,,,,,,,,,,,,,,,,,,,,,,,,,,,,,,,,,,,,,,,,,,,,,,,,,,,,,,,,,,,,,,,,,,,,,,,,,,,,,,,,,,,,,,,,,,,,,,,,,,,,,,,,,,,,,,,,,,,,,,,,,,,,,,,,,,
,,,,,,5eb1b16b14e51e2de3f13827,62c53996ae27c2a639f10eee,2022-07-06_10h30.47.570,Colour_Asymmetry_Pilot,2022.1.3,Win32,59.95922773,62c50e9c1127f2cd403a315f,0,83,83,36,1,threeone,,,,,,,,,,,,,,,,,,,,,,,,,,,,,,,,,,,,,,,,,,,,,,,,,,,,,,,,,,,,,,,,,,,,,,,,,,,,,,,,,,,,,,,,,,,,,,,,,,,,,,,,,,,,,,,,,,,,,,,,,,,,,,,,,,,,,,,,,,,,,,,,,,,,,,,,,,,,,
,,,,,,5eb1b16b14e51e2de3f13827,62c53996ae27c2a639f10eee,2022-07-06_10h30.47.570,Colour_Asymmetry_Pilot,2022.1.3,Win32,59.95922773,62c50e9c1127f2cd403a315f,0,84,84,107,1,twofour,,,,,,,,,,,,,,,,,,,,,,,,,,,,,,,,,,,,,,,,,,,,,,,,,,,,,,,,,,,,,,,,,,,,,,,,,,,,,,,,,,,,,,,,,,,,,,,,,,,,,,,,,,,,,,,,,,,,,,,,,,,,,,,,,,,,,,,,,,,,,,,,,,,,,,,,,,,,,
,,,,,,5eb1b16b14e51e2de3f13827,62c53996ae27c2a639f10eee,2022-07-06_10h30.47.570,Colour_Asymmetry_Pilot,2022.1.3,Win32,59.95922773,62c50e9c1127f2cd403a315f,0,85,85,30,1,fourtwo,,,,,,,,,,,,,,,,,,,,,,,,,,,,,,,,,,,,,,,,,,,,,,,,,,,,,,,,,,,,,,,,,,,,,,,,,,,,,,,,,,,,,,,,,,,,,,,,,,,,,,,,,,,,,,,,,,,,,,,,,,,,,,,,,,,,,,,,,,,,,,,,,,,,,,,,,,,,,
,,,,,,5eb1b16b14e51e2de3f13827,62c53996ae27c2a639f10eee,2022-07-06_10h30.47.570,Colour_Asymmetry_Pilot,2022.1.3,Win32,59.95922773,62c50e9c1127f2cd403a315f,0,86,86,96,1,onetwo,,,,,,,,,,,,,,,,,,,,,,,,,,,,,,,,,,,,,,,,,,,,,,,,,,,,,,,,,,,,,,,,,,,,,,,,,,,,,,,,,,,,,,,,,,,,,,,,,,,,,,,,,,,,,,,,,,,,,,,,,,,,,,,,,,,,,,,,,,,,,,,,,,,,,,,,,,,,,
,,,,,,5eb1b16b14e51e2de3f13827,62c53996ae27c2a639f10eee,2022-07-06_10h30.47.570,Colour_Asymmetry_Pilot,2022.1.3,Win32,59.95922773,62c50e9c1127f2cd403a315f,0,87,87,10,1,twoone,,,,,,,,,,,,,,,,,,,,,,,,,,,,,,,,,,,,,,,,,,,,,,,,,,,,,,,,,,,,,,,,,,,,,,,,,,,,,,,,,,,,,,,,,,,,,,,,,,,,,,,,,,,,,,,,,,,,,,,,,,,,,,,,,,,,,,,,,,,,,,,,,,,,,,,,,,,,,
,,,,,,5eb1b16b14e51e2de3f13827,62c53996ae27c2a639f10eee,2022-07-06_10h30.47.570,Colour_Asymmetry_Pilot,2022.1.3,Win32,59.95922773,62c50e9c1127f2cd403a315f,0,88,88,47,1,fourthree,,,,,,,,,,,,,,,,,,,,,,,,,,,,,,,,,,,,,,,,,,,,,,,,,,,,,,,,,,,,,,,,,,,,,,,,,,,,,,,,,,,,,,,,,,,,,,,,,,,,,,,,,,,,,,,,,,,,,,,,,,,,,,,,,,,,,,,,,,,,,,,,,,,,,,,,,,,,,
,,,,,,5eb1b16b14e51e2de3f13827,62c53996ae27c2a639f10eee,2022-07-06_10h30.47.570,Colour_Asymmetry_Pilot,2022.1.3,Win32,59.95922773,62c50e9c1127f2cd403a315f,0,89,89,132,1,threeone,,,,,,,,,,,,,,,,,,,,,,,,,,,,,,,,,,,,,,,,,,,,,,,,,,,,,,,,,,,,,,,,,,,,,,,,,,,,,,,,,,,,,,,,,,,,,,,,,,,,,,,,,,,,,,,,,,,,,,,,,,,,,,,,,,,,,,,,,,,,,,,,,,,,,,,,,,,,,
,,,,,,5eb1b16b14e51e2de3f13827,62c53996ae27c2a639f10eee,2022-07-06_10h30.47.570,Colour_Asymmetry_Pilot,2022.1.3,Win32,59.95922773,62c50e9c1127f2cd403a315f,0,90,90,156,1,threeone,,,,,,,,,,,,,,,,,,,,,,,,,,,,,,,,,,,,,,,,,,,,,,,,,,,,,,,,,,,,,,,,,,,,,,,,,,,,,,,,,,,,,,,,,,,,,,,,,,,,,,,,,,,,,,,,,,,,,,,,,,,,,,,,,,,,,,,,,,,,,,,,,,,,,,,,,,,,,
,,,,,,5eb1b16b14e51e2de3f13827,62c53996ae27c2a639f10eee,2022-07-06_10h30.47.570,Colour_Asymmetry_Pilot,2022.1.3,Win32,59.95922773,62c50e9c1127f2cd403a315f,0,91,91,106,1,twoone,,,,,,,,,,,,,,,,,,,,,,,,,,,,,,,,,,,,,,,,,,,,,,,,,,,,,,,,,,,,,,,,,,,,,,,,,,,,,,,,,,,,,,,,,,,,,,,,,,,,,,,,,,,,,,,,,,,,,,,,,,,,,,,,,,,,,,,,,,,,,,,,,,,,,,,,,,,,,
,,,,,,5eb1b16b14e51e2de3f13827,62c53996ae27c2a639f10eee,2022-07-06_10h30.47.570,Colour_Asymmetry_Pilot,2022.1.3,Win32,59.95922773,62c50e9c1127f2cd403a315f,0,92,92,133,1,threefour,,,,,,,,,,,,,,,,,,,,,,,,,,,,,,,,,,,,,,,,,,,,,,,,,,,,,,,,,,,,,,,,,,,,,,,,,,,,,,,,,,,,,,,,,,,,,,,,,,,,,,,,,,,,,,,,,,,,,,,,,,,,,,,,,,,,,,,,,,,,,,,,,,,,,,,,,,,,,
,,,,,,5eb1b16b14e51e2de3f13827,62c53996ae27c2a639f10eee,2022-07-06_10h30.47.570,Colour_Asymmetry_Pilot,2022.1.3,Win32,59.95922773,62c50e9c1127f2cd403a315f,0,93,93,19,1,twofour,,,,,,,,,,,,,,,,,,,,,,,,,,,,,,,,,,,,,,,,,,,,,,,,,,,,,,,,,,,,,,,,,,,,,,,,,,,,,,,,,,,,,,,,,,,,,,,,,,,,,,,,,,,,,,,,,,,,,,,,,,,,,,,,,,,,,,,,,,,,,,,,,,,,,,,,,,,,,
,,,,,,5eb1b16b14e51e2de3f13827,62c53996ae27c2a639f10eee,2022-07-06_10h30.47.570,Colour_Asymmetry_Pilot,2022.1.3,Win32,59.95922773,62c50e9c1127f2cd403a315f,0,94,94,40,1,onetwo,,,,,,,,,,,,,,,,,,,,,,,,,,,,,,,,,,,,,,,,,,,,,,,,,,,,,,,,,,,,,,,,,,,,,,,,,,,,,,,,,,,,,,,,,,,,,,,,,,,,,,,,,,,,,,,,,,,,,,,,,,,,,,,,,,,,,,,,,,,,,,,,,,,,,,,,,,,,,
,,,,,,5eb1b16b14e51e2de3f13827,62c53996ae27c2a639f10eee,2022-07-06_10h30.47.570,Colour_Asymmetry_Pilot,2022.1.3,Win32,59.95922773,62c50e9c1127f2cd403a315f,0,95,95,158,1,fourtwo,,,,,,,,,,,,,,,,,,,,,,,,,,,,,,,,,,,,,,,,,,,,,,,,,,,,,,,,,,,,,,,,,,,,,,,,,,,,,,,,,,,,,,,,,,,,,,,,,,,,,,,,,,,,,,,,,,,,,,,,,,,,,,,,,,,,,,,,,,,,,,,,,,,,,,,,,,,,,
,,,,,,5eb1b16b14e51e2de3f13827,62c53996ae27c2a639f10eee,2022-07-06_10h30.47.570,Colour_Asymmetry_Pilot,2022.1.3,Win32,59.95922773,62c50e9c1127f2cd403a315f,0,96,96,122,1,twoone,,,,,,,,,,,,,,,,,,,,,,,,,,,,,,,,,,,,,,,,,,,,,,,,,,,,,,,,,,,,,,,,,,,,,,,,,,,,,,,,,,,,,,,,,,,,,,,,,,,,,,,,,,,,,,,,,,,,,,,,,,,,,,,,,,,,,,,,,,,,,,,,,,,,,,,,,,,,,
,,,,,,5eb1b16b14e51e2de3f13827,62c53996ae27c2a639f10eee,2022-07-06_10h30.47.570,Colour_Asymmetry_Pilot,2022.1.3,Win32,59.95922773,62c50e9c1127f2cd403a315f,0,97,97,52,1,threeone,,,,,,,,,,,,,,,,,,,,,,,,,,,,,,,,,,,,,,,,,,,,,,,,,,,,,,,,,,,,,,,,,,,,,,,,,,,,,,,,,,,,,,,,,,,,,,,,,,,,,,,,,,,,,,,,,,,,,,,,,,,,,,,,,,,,,,,,,,,,,,,,,,,,,,,,,,,,,
,,,,,,5eb1b16b14e51e2de3f13827,62c53996ae27c2a639f10eee,2022-07-06_10h30.47.570,Colour_Asymmetry_Pilot,2022.1.3,Win32,59.95922773,62c50e9c1127f2cd403a315f,0,98,98,29,1,threefour,,,,,,,,,,,,,,,,,,,,,,,,,,,,,,,,,,,,,,,,,,,,,,,,,,,,,,,,,,,,,,,,,,,,,,,,,,,,,,,,,,,,,,,,,,,,,,,,,,,,,,,,,,,,,,,,,,,,,,,,,,,,,,,,,,,,,,,,,,,,,,,,,,,,,,,,,,,,,
,,,,,,5eb1b16b14e51e2de3f13827,62c53996ae27c2a639f10eee,2022-07-06_10h30.47.570,Colour_Asymmetry_Pilot,2022.1.3,Win32,59.95922773,62c50e9c1127f2cd403a315f,0,99,99,94,1,fourtwo,,,,,,,,,,,,,,,,,,,,,,,,,,,,,,,,,,,,,,,,,,,,,,,,,,,,,,,,,,,,,,,,,,,,,,,,,,,,,,,,,,,,,,,,,,,,,,,,,,,,,,,,,,,,,,,,,,,,,,,,,,,,,,,,,,,,,,,,,,,,,,,,,,,,,,,,,,,,,
,,,,,,5eb1b16b14e51e2de3f13827,62c53996ae27c2a639f10eee,2022-07-06_10h30.47.570,Colour_Asymmetry_Pilot,2022.1.3,Win32,59.95922773,62c50e9c1127f2cd403a315f,0,100,100,17,1,onethree,,,,,,,,,,,,,,,,,,,,,,,,,,,,,,,,,,,,,,,,,,,,,,,,,,,,,,,,,,,,,,,,,,,,,,,,,,,,,,,,,,,,,,,,,,,,,,,,,,,,,,,,,,,,,,,,,,,,,,,,,,,,,,,,,,,,,,,,,,,,,,,,,,,,,,,,,,,,,
,,,,,,5eb1b16b14e51e2de3f13827,62c53996ae27c2a639f10eee,2022-07-06_10h30.47.570,Colour_Asymmetry_Pilot,2022.1.3,Win32,59.95922773,62c50e9c1127f2cd403a315f,0,101,101,34,1,twoone,,,,,,,,,,,,,,,,,,,,,,,,,,,,,,,,,,,,,,,,,,,,,,,,,,,,,,,,,,,,,,,,,,,,,,,,,,,,,,,,,,,,,,,,,,,,,,,,,,,,,,,,,,,,,,,,,,,,,,,,,,,,,,,,,,,,,,,,,,,,,,,,,,,,,,,,,,,,,
,,,,,,5eb1b16b14e51e2de3f13827,62c53996ae27c2a639f10eee,2022-07-06_10h30.47.570,Colour_Asymmetry_Pilot,2022.1.3,Win32,59.95922773,62c50e9c1127f2cd403a315f,0,102,102,151,1,fourthree,,,,,,,,,,,,,,,,,,,,,,,,,,,,,,,,,,,,,,,,,,,,,,,,,,,,,,,,,,,,,,,,,,,,,,,,,,,,,,,,,,,,,,,,,,,,,,,,,,,,,,,,,,,,,,,,,,,,,,,,,,,,,,,,,,,,,,,,,,,,,,,,,,,,,,,,,,,,,
,,,,,,5eb1b16b14e51e2de3f13827,62c53996ae27c2a639f10eee,2022-07-06_10h30.47.570,Colour_Asymmetry_Pilot,2022.1.3,Win32,59.95922773,62c50e9c1127f2cd403a315f,0,103,103,149,1,threefour,,,,,,,,,,,,,,,,,,,,,,,,,,,,,,,,,,,,,,,,,,,,,,,,,,,,,,,,,,,,,,,,,,,,,,,,,,,,,,,,,,,,,,,,,,,,,,,,,,,,,,,,,,,,,,,,,,,,,,,,,,,,,,,,,,,,,,,,,,,,,,,,,,,,,,,,,,,,,
,,,,,,5eb1b16b14e51e2de3f13827,62c53996ae27c2a639f10eee,2022-07-06_10h30.47.570,Colour_Asymmetry_Pilot,2022.1.3,Win32,59.95922773,62c50e9c1127f2cd403a315f,0,104,104,42,1,twoone,,,,,,,,,,,,,,,,,,,,,,,,,,,,,,,,,,,,,,,,,,,,,,,,,,,,,,,,,,,,,,,,,,,,,,,,,,,,,,,,,,,,,,,,,,,,,,,,,,,,,,,,,,,,,,,,,,,,,,,,,,,,,,,,,,,,,,,,,,,,,,,,,,,,,,,,,,,,,
,,,,,,5eb1b16b14e51e2de3f13827,62c53996ae27c2a639f10eee,2022-07-06_10h30.47.570,Colour_Asymmetry_Pilot,2022.1.3,Win32,59.95922773,62c50e9c1127f2cd403a315f,0,105,105,126,1,fourtwo,,,,,,,,,,,,,,,,,,,,,,,,,,,,,,,,,,,,,,,,,,,,,,,,,,,,,,,,,,,,,,,,,,,,,,,,,,,,,,,,,,,,,,,,,,,,,,,,,,,,,,,,,,,,,,,,,,,,,,,,,,,,,,,,,,,,,,,,,,,,,,,,,,,,,,,,,,,,,
,,,,,,5eb1b16b14e51e2de3f13827,62c53996ae27c2a639f10eee,2022-07-06_10h30.47.570,Colour_Asymmetry_Pilot,2022.1.3,Win32,59.95922773,62c50e9c1127f2cd403a315f,0,106,106,86,1,fourtwo,,,,,,,,,,,,,,,,,,,,,,,,,,,,,,,,,,,,,,,,,,,,,,,,,,,,,,,,,,,,,,,,,,,,,,,,,,,,,,,,,,,,,,,,,,,,,,,,,,,,,,,,,,,,,,,,,,,,,,,,,,,,,,,,,,,,,,,,,,,,,,,,,,,,,,,,,,,,,
,,,,,,5eb1b16b14e51e2de3f13827,62c53996ae27c2a639f10eee,2022-07-06_10h30.47.570,Colour_Asymmetry_Pilot,2022.1.3,Win32,59.95922773,62c50e9c1127f2cd403a315f,0,107,107,38,1,fourtwo,,,,,,,,,,,,,,,,,,,,,,,,,,,,,,,,,,,,,,,,,,,,,,,,,,,,,,,,,,,,,,,,,,,,,,,,,,,,,,,,,,,,,,,,,,,,,,,,,,,,,,,,,,,,,,,,,,,,,,,,,,,,,,,,,,,,,,,,,,,,,,,,,,,,,,,,,,,,,
,,,,,,5eb1b16b14e51e2de3f13827,62c53996ae27c2a639f10eee,2022-07-06_10h30.47.570,Colour_Asymmetry_Pilot,2022.1.3,Win32,59.95922773,62c50e9c1127f2cd403a315f,0,108,108,24,1,onetwo,,,,,,,,,,,,,,,,,,,,,,,,,,,,,,,,,,,,,,,,,,,,,,,,,,,,,,,,,,,,,,,,,,,,,,,,,,,,,,,,,,,,,,,,,,,,,,,,,,,,,,,,,,,,,,,,,,,,,,,,,,,,,,,,,,,,,,,,,,,,,,,,,,,,,,,,,,,,,
,,,,,,5eb1b16b14e51e2de3f13827,62c53996ae27c2a639f10eee,2022-07-06_10h30.47.570,Colour_Asymmetry_Pilot,2022.1.3,Win32,59.95922773,62c50e9c1127f2cd403a315f,0,109,109,45,1,threefour,,,,,,,,,,,,,,,,,,,,,,,,,,,,,,,,,,,,,,,,,,,,,,,,,,,,,,,,,,,,,,,,,,,,,,,,,,,,,,,,,,,,,,,,,,,,,,,,,,,,,,,,,,,,,,,,,,,,,,,,,,,,,,,,,,,,,,,,,,,,,,,,,,,,,,,,,,,,,
,,,,,,5eb1b16b14e51e2de3f13827,62c53996ae27c2a639f10eee,2022-07-06_10h30.47.570,Colour_Asymmetry_Pilot,2022.1.3,Win32,59.95922773,62c50e9c1127f2cd403a315f,0,110,110,0,1,onetwo,,,,,,,,,,,,,,,,,,,,,,,,,,,,,,,,,,,,,,,,,,,,,,,,,,,,,,,,,,,,,,,,,,,,,,,,,,,,,,,,,,,,,,,,,,,,,,,,,,,,,,,,,,,,,,,,,,,,,,,,,,,,,,,,,,,,,,,,,,,,,,,,,,,,,,,,,,,,,
,,,,,,5eb1b16b14e51e2de3f13827,62c53996ae27c2a639f10eee,2022-07-06_10h30.47.570,Colour_Asymmetry_Pilot,2022.1.3,Win32,59.95922773,62c50e9c1127f2cd403a315f,0,111,111,71,1,fourthree,,,,,,,,,,,,,,,,,,,,,,,,,,,,,,,,,,,,,,,,,,,,,,,,,,,,,,,,,,,,,,,,,,,,,,,,,,,,,,,,,,,,,,,,,,,,,,,,,,,,,,,,,,,,,,,,,,,,,,,,,,,,,,,,,,,,,,,,,,,,,,,,,,,,,,,,,,,,,
,,,,,,5eb1b16b14e51e2de3f13827,62c53996ae27c2a639f10eee,2022-07-06_10h30.47.570,Colour_Asymmetry_Pilot,2022.1.3,Win32,59.95922773,62c50e9c1127f2cd403a315f,0,112,112,110,1,fourtwo,,,,,,,,,,,,,,,,,,,,,,,,,,,,,,,,,,,,,,,,,,,,,,,,,,,,,,,,,,,,,,,,,,,,,,,,,,,,,,,,,,,,,,,,,,,,,,,,,,,,,,,,,,,,,,,,,,,,,,,,,,,,,,,,,,,,,,,,,,,,,,,,,,,,,,,,,,,,,
,,,,,,5eb1b16b14e51e2de3f13827,62c53996ae27c2a639f10eee,2022-07-06_10h30.47.570,Colour_Asymmetry_Pilot,2022.1.3,Win32,59.95922773,62c50e9c1127f2cd403a315f,0,113,113,39,1,fourthree,,,,,,,,,,,,,,,,,,,,,,,,,,,,,,,,,,,,,,,,,,,,,,,,,,,,,,,,,,,,,,,,,,,,,,,,,,,,,,,,,,,,,,,,,,,,,,,,,,,,,,,,,,,,,,,,,,,,,,,,,,,,,,,,,,,,,,,,,,,,,,,,,,,,,,,,,,,,,
,,,,,,5eb1b16b14e51e2de3f13827,62c53996ae27c2a639f10eee,2022-07-06_10h30.47.570,Colour_Asymmetry_Pilot,2022.1.3,Win32,59.95922773,62c50e9c1127f2cd403a315f,0,114,114,138,1,twoone,,,,,,,,,,,,,,,,,,,,,,,,,,,,,,,,,,,,,,,,,,,,,,,,,,,,,,,,,,,,,,,,,,,,,,,,,,,,,,,,,,,,,,,,,,,,,,,,,,,,,,,,,,,,,,,,,,,,,,,,,,,,,,,,,,,,,,,,,,,,,,,,,,,,,,,,,,,,,
,,,,,,5eb1b16b14e51e2de3f13827,62c53996ae27c2a639f10eee,2022-07-06_10h30.47.570,Colour_Asymmetry_Pilot,2022.1.3,Win32,59.95922773,62c50e9c1127f2cd403a315f,0,115,115,152,1,onetwo,,,,,,,,,,,,,,,,,,,,,,,,,,,,,,,,,,,,,,,,,,,,,,,,,,,,,,,,,,,,,,,,,,,,,,,,,,,,,,,,,,,,,,,,,,,,,,,,,,,,,,,,,,,,,,,,,,,,,,,,,,,,,,,,,,,,,,,,,,,,,,,,,,,,,,,,,,,,,
,,,,,,5eb1b16b14e51e2de3f13827,62c53996ae27c2a639f10eee,2022-07-06_10h30.47.570,Colour_Asymmetry_Pilot,2022.1.3,Win32,59.95922773,62c50e9c1127f2cd403a315f,0,116,116,105,1,onethree,,,,,,,,,,,,,,,,,,,,,,,,,,,,,,,,,,,,,,,,,,,,,,,,,,,,,,,,,,,,,,,,,,,,,,,,,,,,,,,,,,,,,,,,,,,,,,,,,,,,,,,,,,,,,,,,,,,,,,,,,,,,,,,,,,,,,,,,,,,,,,,,,,,,,,,,,,,,,
,,,,,,5eb1b16b14e51e2de3f13827,62c53996ae27c2a639f10eee,2022-07-06_10h30.47.570,Colour_Asymmetry_Pilot,2022.1.3,Win32,59.95922773,62c50e9c1127f2cd403a315f,0,117,117,136,1,onetwo,,,,,,,,,,,,,,,,,,,,,,,,,,,,,,,,,,,,,,,,,,,,,,,,,,,,,,,,,,,,,,,,,,,,,,,,,,,,,,,,,,,,,,,,,,,,,,,,,,,,,,,,,,,,,,,,,,,,,,,,,,,,,,,,,,,,,,,,,,,,,,,,,,,,,,,,,,,,,
,,,,,,5eb1b16b14e51e2de3f13827,62c53996ae27c2a639f10eee,2022-07-06_10h30.47.570,Colour_Asymmetry_Pilot,2022.1.3,Win32,59.95922773,62c50e9c1127f2cd403a315f,0,118,118,6,1,fourtwo,,,,,,,,,,,,,,,,,,,,,,,,,,,,,,,,,,,,,,,,,,,,,,,,,,,,,,,,,,,,,,,,,,,,,,,,,,,,,,,,,,,,,,,,,,,,,,,,,,,,,,,,,,,,,,,,,,,,,,,,,,,,,,,,,,,,,,,,,,,,,,,,,,,,,,,,,,,,,
,,,,,,5eb1b16b14e51e2de3f13827,62c53996ae27c2a639f10eee,2022-07-06_10h30.47.570,Colour_Asymmetry_Pilot,2022.1.3,Win32,59.95922773,62c50e9c1127f2cd403a315f,0,119,119,65,1,onethree,,,,,,,,,,,,,,,,,,,,,,,,,,,,,,,,,,,,,,,,,,,,,,,,,,,,,,,,,,,,,,,,,,,,,,,,,,,,,,,,,,,,,,,,,,,,,,,,,,,,,,,,,,,,,,,,,,,,,,,,,,,,,,,,,,,,,,,,,,,,,,,,,,,,,,,,,,,,,
,,,,,,5eb1b16b14e51e2de3f13827,62c53996ae27c2a639f10eee,2022-07-06_10h30.47.570,Colour_Asymmetry_Pilot,2022.1.3,Win32,59.95922773,62c50e9c1127f2cd403a315f,0,120,120,35,1,twofour,,,,,,,,,,,,,,,,,,,,,,,,,,,,,,,,,,,,,,,,,,,,,,,,,,,,,,,,,,,,,,,,,,,,,,,,,,,,,,,,,,,,,,,,,,,,,,,,,,,,,,,,,,,,,,,,,,,,,,,,,,,,,,,,,,,,,,,,,,,,,,,,,,,,,,,,,,,,,
,,,,,,5eb1b16b14e51e2de3f13827,62c53996ae27c2a639f10eee,2022-07-06_10h30.47.570,Colour_Asymmetry_Pilot,2022.1.3,Win32,59.95922773,62c50e9c1127f2cd403a315f,0,121,121,134,1,fourtwo,,,,,,,,,,,,,,,,,,,,,,,,,,,,,,,,,,,,,,,,,,,,,,,,,,,,,,,,,,,,,,,,,,,,,,,,,,,,,,,,,,,,,,,,,,,,,,,,,,,,,,,,,,,,,,,,,,,,,,,,,,,,,,,,,,,,,,,,,,,,,,,,,,,,,,,,,,,,,
,,,,,,5eb1b16b14e51e2de3f13827,62c53996ae27c2a639f10eee,2022-07-06_10h30.47.570,Colour_Asymmetry_Pilot,2022.1.3,Win32,59.95922773,62c50e9c1127f2cd403a315f,0,122,122,41,1,onethree,,,,,,,,,,,,,,,,,,,,,,,,,,,,,,,,,,,,,,,,,,,,,,,,,,,,,,,,,,,,,,,,,,,,,,,,,,,,,,,,,,,,,,,,,,,,,,,,,,,,,,,,,,,,,,,,,,,,,,,,,,,,,,,,,,,,,,,,,,,,,,,,,,,,,,,,,,,,,
,,,,,,5eb1b16b14e51e2de3f13827,62c53996ae27c2a639f10eee,2022-07-06_10h30.47.570,Colour_Asymmetry_Pilot,2022.1.3,Win32,59.95922773,62c50e9c1127f2cd403a315f,0,123,123,88,1,onetwo,,,,,,,,,,,,,,,,,,,,,,,,,,,,,,,,,,,,,,,,,,,,,,,,,,,,,,,,,,,,,,,,,,,,,,,,,,,,,,,,,,,,,,,,,,,,,,,,,,,,,,,,,,,,,,,,,,,,,,,,,,,,,,,,,,,,,,,,,,,,,,,,,,,,,,,,,,,,,
,,,,,,5eb1b16b14e51e2de3f13827,62c53996ae27c2a639f10eee,2022-07-06_10h30.47.570,Colour_Asymmetry_Pilot,2022.1.3,Win32,59.95922773,62c50e9c1127f2cd403a315f,0,124,124,12,1,threeone,,,,,,,,,,,,,,,,,,,,,,,,,,,,,,,,,,,,,,,,,,,,,,,,,,,,,,,,,,,,,,,,,,,,,,,,,,,,,,,,,,,,,,,,,,,,,,,,,,,,,,,,,,,,,,,,,,,,,,,,,,,,,,,,,,,,,,,,,,,,,,,,,,,,,,,,,,,,,
,,,,,,5eb1b16b14e51e2de3f13827,62c53996ae27c2a639f10eee,2022-07-06_10h30.47.570,Colour_Asymmetry_Pilot,2022.1.3,Win32,59.95922773,62c50e9c1127f2cd403a315f,0,125,125,155,1,twofour,,,,,,,,,,,,,,,,,,,,,,,,,,,,,,,,,,,,,,,,,,,,,,,,,,,,,,,,,,,,,,,,,,,,,,,,,,,,,,,,,,,,,,,,,,,,,,,,,,,,,,,,,,,,,,,,,,,,,,,,,,,,,,,,,,,,,,,,,,,,,,,,,,,,,,,,,,,,,
,,,,,,5eb1b16b14e51e2de3f13827,62c53996ae27c2a639f10eee,2022-07-06_10h30.47.570,Colour_Asymmetry_Pilot,2022.1.3,Win32,59.95922773,62c50e9c1127f2cd403a315f,0,126,126,49,1,onethree,,,,,,,,,,,,,,,,,,,,,,,,,,,,,,,,,,,,,,,,,,,,,,,,,,,,,,,,,,,,,,,,,,,,,,,,,,,,,,,,,,,,,,,,,,,,,,,,,,,,,,,,,,,,,,,,,,,,,,,,,,,,,,,,,,,,,,,,,,,,,,,,,,,,,,,,,,,,,
,,,,,,5eb1b16b14e51e2de3f13827,62c53996ae27c2a639f10eee,2022-07-06_10h30.47.570,Colour_Asymmetry_Pilot,2022.1.3,Win32,59.95922773,62c50e9c1127f2cd403a315f,0,127,127,58,1,twoone,,,,,,,,,,,,,,,,,,,,,,,,,,,,,,,,,,,,,,,,,,,,,,,,,,,,,,,,,,,,,,,,,,,,,,,,,,,,,,,,,,,,,,,,,,,,,,,,,,,,,,,,,,,,,,,,,,,,,,,,,,,,,,,,,,,,,,,,,,,,,,,,,,,,,,,,,,,,,
,,,,,,5eb1b16b14e51e2de3f13827,62c53996ae27c2a639f10eee,2022-07-06_10h30.47.570,Colour_Asymmetry_Pilot,2022.1.3,Win32,59.95922773,62c50e9c1127f2cd403a315f,0,128,128,159,1,fourthree,,,,,,,,,,,,,,,,,,,,,,,,,,,,,,,,,,,,,,,,,,,,,,,,,,,,,,,,,,,,,,,,,,,,,,,,,,,,,,,,,,,,,,,,,,,,,,,,,,,,,,,,,,,,,,,,,,,,,,,,,,,,,,,,,,,,,,,,,,,,,,,,,,,,,,,,,,,,,
,,,,,,5eb1b16b14e51e2de3f13827,62c53996ae27c2a639f10eee,2022-07-06_10h30.47.570,Colour_Asymmetry_Pilot,2022.1.3,Win32,59.95922773,62c50e9c1127f2cd403a315f,0,129,129,77,1,threefour,,,,,,,,,,,,,,,,,,,,,,,,,,,,,,,,,,,,,,,,,,,,,,,,,,,,,,,,,,,,,,,,,,,,,,,,,,,,,,,,,,,,,,,,,,,,,,,,,,,,,,,,,,,,,,,,,,,,,,,,,,,,,,,,,,,,,,,,,,,,,,,,,,,,,,,,,,,,,
,,,,,,5eb1b16b14e51e2de3f13827,62c53996ae27c2a639f10eee,2022-07-06_10h30.47.570,Colour_Asymmetry_Pilot,2022.1.3,Win32,59.95922773,62c50e9c1127f2cd403a315f,0,130,130,3,1,twofour,,,,,,,,,,,,,,,,,,,,,,,,,,,,,,,,,,,,,,,,,,,,,,,,,,,,,,,,,,,,,,,,,,,,,,,,,,,,,,,,,,,,,,,,,,,,,,,,,,,,,,,,,,,,,,,,,,,,,,,,,,,,,,,,,,,,,,,,,,,,,,,,,,,,,,,,,,,,,
,,,,,,5eb1b16b14e51e2de3f13827,62c53996ae27c2a639f10eee,2022-07-06_10h30.47.570,Colour_Asymmetry_Pilot,2022.1.3,Win32,59.95922773,62c50e9c1127f2cd403a315f,0,131,131,70,1,fourtwo,,,,,,,,,,,,,,,,,,,,,,,,,,,,,,,,,,,,,,,,,,,,,,,,,,,,,,,,,,,,,,,,,,,,,,,,,,,,,,,,,,,,,,,,,,,,,,,,,,,,,,,,,,,,,,,,,,,,,,,,,,,,,,,,,,,,,,,,,,,,,,,,,,,,,,,,,,,,,
,,,,,,5eb1b16b14e51e2de3f13827,62c53996ae27c2a639f10eee,2022-07-06_10h30.47.570,Colour_Asymmetry_Pilot,2022.1.3,Win32,59.95922773,62c50e9c1127f2cd403a315f,0,132,132,60,1,threeone,,,,,,,,,,,,,,,,,,,,,,,,,,,,,,,,,,,,,,,,,,,,,,,,,,,,,,,,,,,,,,,,,,,,,,,,,,,,,,,,,,,,,,,,,,,,,,,,,,,,,,,,,,,,,,,,,,,,,,,,,,,,,,,,,,,,,,,,,,,,,,,,,,,,,,,,,,,,,
,,,,,,5eb1b16b14e51e2de3f13827,62c53996ae27c2a639f10eee,2022-07-06_10h30.47.570,Colour_Asymmetry_Pilot,2022.1.3,Win32,59.95922773,62c50e9c1127f2cd403a315f,0,133,133,69,1,threefour,,,,,,,,,,,,,,,,,,,,,,,,,,,,,,,,,,,,,,,,,,,,,,,,,,,,,,,,,,,,,,,,,,,,,,,,,,,,,,,,,,,,,,,,,,,,,,,,,,,,,,,,,,,,,,,,,,,,,,,,,,,,,,,,,,,,,,,,,,,,,,,,,,,,,,,,,,,,,
,,,,,,5eb1b16b14e51e2de3f13827,62c53996ae27c2a639f10eee,2022-07-06_10h30.47.570,Colour_Asymmetry_Pilot,2022.1.3,Win32,59.95922773,62c50e9c1127f2cd403a315f,0,134,134,98,1,twoone,,,,,,,,,,,,,,,,,,,,,,,,,,,,,,,,,,,,,,,,,,,,,,,,,,,,,,,,,,,,,,,,,,,,,,,,,,,,,,,,,,,,,,,,,,,,,,,,,,,,,,,,,,,,,,,,,,,,,,,,,,,,,,,,,,,,,,,,,,,,,,,,,,,,,,,,,,,,,
,,,,,,5eb1b16b14e51e2de3f13827,62c53996ae27c2a639f10eee,2022-07-06_10h30.47.570,Colour_Asymmetry_Pilot,2022.1.3,Win32,59.95922773,62c50e9c1127f2cd403a315f,0,135,135,2,1,twoone,,,,,,,,,,,,,,,,,,,,,,,,,,,,,,,,,,,,,,,,,,,,,,,,,,,,,,,,,,,,,,,,,,,,,,,,,,,,,,,,,,,,,,,,,,,,,,,,,,,,,,,,,,,,,,,,,,,,,,,,,,,,,,,,,,,,,,,,,,,,,,,,,,,,,,,,,,,,,
,,,,,,5eb1b16b14e51e2de3f13827,62c53996ae27c2a639f10eee,2022-07-06_10h30.47.570,Colour_Asymmetry_Pilot,2022.1.3,Win32,59.95922773,62c50e9c1127f2cd403a315f,0,136,136,102,1,fourtwo,,,,,,,,,,,,,,,,,,,,,,,,,,,,,,,,,,,,,,,,,,,,,,,,,,,,,,,,,,,,,,,,,,,,,,,,,,,,,,,,,,,,,,,,,,,,,,,,,,,,,,,,,,,,,,,,,,,,,,,,,,,,,,,,,,,,,,,,,,,,,,,,,,,,,,,,,,,,,
,,,,,,5eb1b16b14e51e2de3f13827,62c53996ae27c2a639f10eee,2022-07-06_10h30.47.570,Colour_Asymmetry_Pilot,2022.1.3,Win32,59.95922773,62c50e9c1127f2cd403a315f,0,137,137,95,1,fourthree,,,,,,,,,,,,,,,,,,,,,,,,,,,,,,,,,,,,,,,,,,,,,,,,,,,,,,,,,,,,,,,,,,,,,,,,,,,,,,,,,,,,,,,,,,,,,,,,,,,,,,,,,,,,,,,,,,,,,,,,,,,,,,,,,,,,,,,,,,,,,,,,,,,,,,,,,,,,,
,,,,,,5eb1b16b14e51e2de3f13827,62c53996ae27c2a639f10eee,2022-07-06_10h30.47.570,Colour_Asymmetry_Pilot,2022.1.3,Win32,59.95922773,62c50e9c1127f2cd403a315f,0,138,138,146,1,twoone,,,,,,,,,,,,,,,,,,,,,,,,,,,,,,,,,,,,,,,,,,,,,,,,,,,,,,,,,,,,,,,,,,,,,,,,,,,,,,,,,,,,,,,,,,,,,,,,,,,,,,,,,,,,,,,,,,,,,,,,,,,,,,,,,,,,,,,,,,,,,,,,,,,,,,,,,,,,,
,,,,,,5eb1b16b14e51e2de3f13827,62c53996ae27c2a639f10eee,2022-07-06_10h30.47.570,Colour_Asymmetry_Pilot,2022.1.3,Win32,59.95922773,62c50e9c1127f2cd403a315f,0,139,139,63,1,fourthree,,,,,,,,,,,,,,,,,,,,,,,,,,,,,,,,,,,,,,,,,,,,,,,,,,,,,,,,,,,,,,,,,,,,,,,,,,,,,,,,,,,,,,,,,,,,,,,,,,,,,,,,,,,,,,,,,,,,,,,,,,,,,,,,,,,,,,,,,,,,,,,,,,,,,,,,,,,,,
,,,,,,5eb1b16b14e51e2de3f13827,62c53996ae27c2a639f10eee,2022-07-06_10h30.47.570,Colour_Asymmetry_Pilot,2022.1.3,Win32,59.95922773,62c50e9c1127f2cd403a315f,0,140,140,83,1,twofour,,,,,,,,,,,,,,,,,,,,,,,,,,,,,,,,,,,,,,,,,,,,,,,,,,,,,,,,,,,,,,,,,,,,,,,,,,,,,,,,,,,,,,,,,,,,,,,,,,,,,,,,,,,,,,,,,,,,,,,,,,,,,,,,,,,,,,,,,,,,,,,,,,,,,,,,,,,,,
,,,,,,5eb1b16b14e51e2de3f13827,62c53996ae27c2a639f10eee,2022-07-06_10h30.47.570,Colour_Asymmetry_Pilot,2022.1.3,Win32,59.95922773,62c50e9c1127f2cd403a315f,0,141,141,101,1,threefour,,,,,,,,,,,,,,,,,,,,,,,,,,,,,,,,,,,,,,,,,,,,,,,,,,,,,,,,,,,,,,,,,,,,,,,,,,,,,,,,,,,,,,,,,,,,,,,,,,,,,,,,,,,,,,,,,,,,,,,,,,,,,,,,,,,,,,,,,,,,,,,,,,,,,,,,,,,,,
,,,,,,5eb1b16b14e51e2de3f13827,62c53996ae27c2a639f10eee,2022-07-06_10h30.47.570,Colour_Asymmetry_Pilot,2022.1.3,Win32,59.95922773,62c50e9c1127f2cd403a315f,0,142,142,129,1,onethree,,,,,,,,,,,,,,,,,,,,,,,,,,,,,,,,,,,,,,,,,,,,,,,,,,,,,,,,,,,,,,,,,,,,,,,,,,,,,,,,,,,,,,,,,,,,,,,,,,,,,,,,,,,,,,,,,,,,,,,,,,,,,,,,,,,,,,,,,,,,,,,,,,,,,,,,,,,,,
,,,,,,5eb1b16b14e51e2de3f13827,62c53996ae27c2a639f10eee,2022-07-06_10h30.47.570,Colour_Asymmetry_Pilot,2022.1.3,Win32,59.95922773,62c50e9c1127f2cd403a315f,0,143,143,127,1,fourthree,,,,,,,,,,,,,,,,,,,,,,,,,,,,,,,,,,,,,,,,,,,,,,,,,,,,,,,,,,,,,,,,,,,,,,,,,,,,,,,,,,,,,,,,,,,,,,,,,,,,,,,,,,,,,,,,,,,,,,,,,,,,,,,,,,,,,,,,,,,,,,,,,,,,,,,,,,,,,
,,,,,,5eb1b16b14e51e2de3f13827,62c53996ae27c2a639f10eee,2022-07-06_10h30.47.570,Colour_Asymmetry_Pilot,2022.1.3,Win32,59.95922773,62c50e9c1127f2cd403a315f,0,144,144,141,1,threefour,,,,,,,,,,,,,,,,,,,,,,,,,,,,,,,,,,,,,,,,,,,,,,,,,,,,,,,,,,,,,,,,,,,,,,,,,,,,,,,,,,,,,,,,,,,,,,,,,,,,,,,,,,,,,,,,,,,,,,,,,,,,,,,,,,,,,,,,,,,,,,,,,,,,,,,,,,,,,
,,,,,,5eb1b16b14e51e2de3f13827,62c53996ae27c2a639f10eee,2022-07-06_10h30.47.570,Colour_Asymmetry_Pilot,2022.1.3,Win32,59.95922773,62c50e9c1127f2cd403a315f,0,145,145,147,1,twofour,,,,,,,,,,,,,,,,,,,,,,,,,,,,,,,,,,,,,,,,,,,,,,,,,,,,,,,,,,,,,,,,,,,,,,,,,,,,,,,,,,,,,,,,,,,,,,,,,,,,,,,,,,,,,,,,,,,,,,,,,,,,,,,,,,,,,,,,,,,,,,,,,,,,,,,,,,,,,
,,,,,,5eb1b16b14e51e2de3f13827,62c53996ae27c2a639f10eee,2022-07-06_10h30.47.570,Colour_Asymmetry_Pilot,2022.1.3,Win32,59.95922773,62c50e9c1127f2cd403a315f,0,146,146,150,1,fourtwo,,,,,,,,,,,,,,,,,,,,,,,,,,,,,,,,,,,,,,,,,,,,,,,,,,,,,,,,,,,,,,,,,,,,,,,,,,,,,,,,,,,,,,,,,,,,,,,,,,,,,,,,,,,,,,,,,,,,,,,,,,,,,,,,,,,,,,,,,,,,,,,,,,,,,,,,,,,,,
,,,,,,5eb1b16b14e51e2de3f13827,62c53996ae27c2a639f10eee,2022-07-06_10h30.47.570,Colour_Asymmetry_Pilot,2022.1.3,Win32,59.95922773,62c50e9c1127f2cd403a315f,0,147,147,144,1,onetwo,,,,,,,,,,,,,,,,,,,,,,,,,,,,,,,,,,,,,,,,,,,,,,,,,,,,,,,,,,,,,,,,,,,,,,,,,,,,,,,,,,,,,,,,,,,,,,,,,,,,,,,,,,,,,,,,,,,,,,,,,,,,,,,,,,,,,,,,,,,,,,,,,,,,,,,,,,,,,
,,,,,,5eb1b16b14e51e2de3f13827,62c53996ae27c2a639f10eee,2022-07-06_10h30.47.570,Colour_Asymmetry_Pilot,2022.1.3,Win32,59.95922773,62c50e9c1127f2cd403a315f,0,148,148,108,1,threeone,,,,,,,,,,,,,,,,,,,,,,,,,,,,,,,,,,,,,,,,,,,,,,,,,,,,,,,,,,,,,,,,,,,,,,,,,,,,,,,,,,,,,,,,,,,,,,,,,,,,,,,,,,,,,,,,,,,,,,,,,,,,,,,,,,,,,,,,,,,,,,,,,,,,,,,,,,,,,
,,,,,,5eb1b16b14e51e2de3f13827,62c53996ae27c2a639f10eee,2022-07-06_10h30.47.570,Colour_Asymmetry_Pilot,2022.1.3,Win32,59.95922773,62c50e9c1127f2cd403a315f,0,149,149,109,1,threefour,,,,,,,,,,,,,,,,,,,,,,,,,,,,,,,,,,,,,,,,,,,,,,,,,,,,,,,,,,,,,,,,,,,,,,,,,,,,,,,,,,,,,,,,,,,,,,,,,,,,,,,,,,,,,,,,,,,,,,,,,,,,,,,,,,,,,,,,,,,,,,,,,,,,,,,,,,,,,
,,,,,,5eb1b16b14e51e2de3f13827,62c53996ae27c2a639f10eee,2022-07-06_10h30.47.570,Colour_Asymmetry_Pilot,2022.1.3,Win32,59.95922773,62c50e9c1127f2cd403a315f,0,150,150,89,1,onethree,,,,,,,,,,,,,,,,,,,,,,,,,,,,,,,,,,,,,,,,,,,,,,,,,,,,,,,,,,,,,,,,,,,,,,,,,,,,,,,,,,,,,,,,,,,,,,,,,,,,,,,,,,,,,,,,,,,,,,,,,,,,,,,,,,,,,,,,,,,,,,,,,,,,,,,,,,,,,
,,,,,,5eb1b16b14e51e2de3f13827,62c53996ae27c2a639f10eee,2022-07-06_10h30.47.570,Colour_Asymmetry_Pilot,2022.1.3,Win32,59.95922773,62c50e9c1127f2cd403a315f,0,151,151,131,1,twofour,,,,,,,,,,,,,,,,,,,,,,,,,,,,,,,,,,,,,,,,,,,,,,,,,,,,,,,,,,,,,,,,,,,,,,,,,,,,,,,,,,,,,,,,,,,,,,,,,,,,,,,,,,,,,,,,,,,,,,,,,,,,,,,,,,,,,,,,,,,,,,,,,,,,,,,,,,,,,
,,,,,,5eb1b16b14e51e2de3f13827,62c53996ae27c2a639f10eee,2022-07-06_10h30.47.570,Colour_Asymmetry_Pilot,2022.1.3,Win32,59.95922773,62c50e9c1127f2cd403a315f,0,152,152,64,1,onetwo,,,,,,,,,,,,,,,,,,,,,,,,,,,,,,,,,,,,,,,,,,,,,,,,,,,,,,,,,,,,,,,,,,,,,,,,,,,,,,,,,,,,,,,,,,,,,,,,,,,,,,,,,,,,,,,,,,,,,,,,,,,,,,,,,,,,,,,,,,,,,,,,,,,,,,,,,,,,,
,,,,,,5eb1b16b14e51e2de3f13827,62c53996ae27c2a639f10eee,2022-07-06_10h30.47.570,Colour_Asymmetry_Pilot,2022.1.3,Win32,59.95922773,62c50e9c1127f2cd403a315f,0,153,153,160,1,onetwo,,,,,,,,,,,,,,,,,,,,,,,,,,,,,,,,,,,,,,,,,,,,,,,,,,,,,,,,,,,,,,,,,,,,,,,,,,,,,,,,,,,,,,,,,,,,,,,,,,,,,,,,,,,,,,,,,,,,,,,,,,,,,,,,,,,,,,,,,,,,,,,,,,,,,,,,,,,,,
,,,,,,5eb1b16b14e51e2de3f13827,62c53996ae27c2a639f10eee,2022-07-06_10h30.47.570,Colour_Asymmetry_Pilot,2022.1.3,Win32,59.95922773,62c50e9c1127f2cd403a315f,0,154,154,16,1,onetwo,,,,,,,,,,,,,,,,,,,,,,,,,,,,,,,,,,,,,,,,,,,,,,,,,,,,,,,,,,,,,,,,,,,,,,,,,,,,,,,,,,,,,,,,,,,,,,,,,,,,,,,,,,,,,,,,,,,,,,,,,,,,,,,,,,,,,,,,,,,,,,,,,,,,,,,,,,,,,
,,,,,,5eb1b16b14e51e2de3f13827,62c53996ae27c2a639f10eee,2022-07-06_10h30.47.570,Colour_Asymmetry_Pilot,2022.1.3,Win32,59.95922773,62c50e9c1127f2cd403a315f,0,155,155,54,1,fourtwo,,,,,,,,,,,,,,,,,,,,,,,,,,,,,,,,,,,,,,,,,,,,,,,,,,,,,,,,,,,,,,,,,,,,,,,,,,,,,,,,,,,,,,,,,,,,,,,,,,,,,,,,,,,,,,,,,,,,,,,,,,,,,,,,,,,,,,,,,,,,,,,,,,,,,,,,,,,,,
,,,,,,5eb1b16b14e51e2de3f13827,62c53996ae27c2a639f10eee,2022-07-06_10h30.47.570,Colour_Asymmetry_Pilot,2022.1.3,Win32,59.95922773,62c50e9c1127f2cd403a315f,0,156,156,119,1,fourthree,,,,,,,,,,,,,,,,,,,,,,,,,,,,,,,,,,,,,,,,,,,,,,,,,,,,,,,,,,,,,,,,,,,,,,,,,,,,,,,,,,,,,,,,,,,,,,,,,,,,,,,,,,,,,,,,,,,,,,,,,,,,,,,,,,,,,,,,,,,,,,,,,,,,,,,,,,,,,
,,,,,,5eb1b16b14e51e2de3f13827,62c53996ae27c2a639f10eee,2022-07-06_10h30.47.570,Colour_Asymmetry_Pilot,2022.1.3,Win32,59.95922773,62c50e9c1127f2cd403a315f,0,157,157,7,1,fourthree,,,,,,,,,,,,,,,,,,,,,,,,,,,,,,,,,,,,,,,,,,,,,,,,,,,,,,,,,,,,,,,,,,,,,,,,,,,,,,,,,,,,,,,,,,,,,,,,,,,,,,,,,,,,,,,,,,,,,,,,,,,,,,,,,,,,,,,,,,,,,,,,,,,,,,,,,,,,,
,,,,,,5eb1b16b14e51e2de3f13827,62c53996ae27c2a639f10eee,2022-07-06_10h30.47.570,Colour_Asymmetry_Pilot,2022.1.3,Win32,59.95922773,62c50e9c1127f2cd403a315f,0,158,158,139,1,twofour,,,,,,,,,,,,,,,,,,,,,,,,,,,,,,,,,,,,,,,,,,,,,,,,,,,,,,,,,,,,,,,,,,,,,,,,,,,,,,,,,,,,,,,,,,,,,,,,,,,,,,,,,,,,,,,,,,,,,,,,,,,,,,,,,,,,,,,,,,,,,,,,,,,,,,,,,,,,,
,,,,,,5eb1b16b14e51e2de3f13827,62c53996ae27c2a639f10eee,2022-07-06_10h30.47.570,Colour_Asymmetry_Pilot,2022.1.3,Win32,59.95922773,62c50e9c1127f2cd403a315f,0,159,159,31,1,fourthree,,,,,,,,,,,,,,,,,,,,,,,,,,,,,,,,,,,,,,,,,,,,,,,,,,,,,,,,,,,,,,,,,,,,,,,,,,,,,,,,,,,,,,,,,,,,,,,,,,,,,,,,,,,,,,,,,,,,,,,,,,,,,,,,,,,,,,,,,,,,,,,,,,,,,,,,,,,,,
,,,,,,5eb1b16b14e51e2de3f13827,62c53996ae27c2a639f10eee,2022-07-06_10h30.47.570,Colour_Asymmetry_Pilot,2022.1.3,Win32,59.95922773,62c50e9c1127f2cd403a315f,0,160,160,74,1,twoone,,,,,,,,,,,,,,,,,,,,,,,,,,,,,,,,,,,,,,,,,,,,,,,,,,,,,,,,,,,,,,,,,,,,,,,,,,,,,,,,,,,,,,,,,,,,,,,,,,,,,,,,,,,,,,,,,,,,,,,,,,,,,,,,,,,,,,,,,,,,,,,,,,,,,,,,,,,,,
,,,,,,5eb1b16b14e51e2de3f13827,62c53996ae27c2a639f10eee,2022-07-06_10h30.47.570,Colour_Asymmetry_Pilot,2022.1.3,Win32,59.95922773,62c50e9c1127f2cd403a315f,0,161,161,67,1,twofour,,,,,,,,,,,,,,,,,,,,,,,,,,,,,,,,,,,,,,,,,,,,,,,,,,,,,,,,,,,,,,,,,,,,,,,,,,,,,,,,,,,,,,,,,,,,,,,,,,,,,,,,,,,,,,,,,,,,,,,,,,,,,,,,,,,,,,,,,,,,,,,,,,,,,,,,,,,,,
,,,,,,5eb1b16b14e51e2de3f13827,62c53996ae27c2a639f10eee,2022-07-06_10h30.47.570,Colour_Asymmetry_Pilot,2022.1.3,Win32,59.95922773,62c50e9c1127f2cd403a315f,,,,,,,space,3.5658,space,53.014,space,73.3703,space,7.6341,space,4.0292,space,6.1713,"[-0.8118,-0.8198,-0.5452]",threefour,"[-0.06680000000000008,-0.45100000000000007,-0.906]",-4,10.2873,-82,108,1,0,0,response7disk_5,-3,6,1,0,0,rectangle_8,-3,6,1,0,0,1,-3,6,1,0,0,0,0,0,0,1,,,,,,,,,,,,,,,,,,,,,,,,,,,,,,,,,,,,,,,,,,,,,,,,,,,,,,,,,,,,,,,,,,,,,,,,,,,,,,,,,,,,,,,,,,,,,,,,,,,,,,,,,,,,,,,,
,,,,,,5eb1b16b14e51e2de3f13827,62c53996ae27c2a639f10eee,2022-07-06_10h30.47.570,Colour_Asymmetry_Pilot,2022.1.3,Win32,59.95922773,62c50e9c1127f2cd403a315f,,,,,,,,,,,,,,,,,,,"[0.3568,-0.20799999999999996,-0.9844]",onetwo,"[-0.4668,-0.8746,-0.2942]",-4,5.4011,-56,135,1,0,0,response7disk_5,-6,-1,1,0,0,rectangle_8,-6,-1,1,0,0,1,-6,-1,1,0,0,1,0,1,0,1,,,,,,,,,,,,,,,,,,,,,,,,,,,,,,,,,,,,,,,,,,,,,,,,,,,,,,,,,,,,,,,,,,,,,,,,,,,,,,,,,,,,,,,,,,,,,,,,,,,,,,,,,,,,,,,,
,,,,,,5eb1b16b14e51e2de3f13827,62c53996ae27c2a639f10eee,2022-07-06_10h30.47.570,Colour_Asymmetry_Pilot,2022.1.3,Win32,59.95922773,62c50e9c1127f2cd403a315f,,,,,,,,,,,,,,,,,,,"[0.2784,-0.31000000000000005,-0.5452]",fourtwo,"[-0.09019999999999995,0.44300000000000006,0.5371999999999999]",-4,2.1001,-57,123,1,0,0,response7disk_5,1,-2,1,0,0,rectangle_8,1,-2,1,0,0,1,1,-2,1,0,0,2,0,2,0,1,,,,,,,,,,,,,,,,,,,,,,,,,,,,,,,,,,,,,,,,,,,,,,,,,,,,,,,,,,,,,,,,,,,,,,,,,,,,,,,,,,,,,,,,,,,,,,,,,,,,,,,,,,,,,,,,
,,,,,,5eb1b16b14e51e2de3f13827,62c53996ae27c2a639f10eee,2022-07-06_10h30.47.570,Colour_Asymmetry_Pilot,2022.1.3,Win32,59.95922773,62c50e9c1127f2cd403a315f,,,,,,,,,,,,,,,,,,,"[0.5449999999999999,-0.31000000000000005,-0.0354000000000001]",fourtwo,"[-0.10599999999999998,-0.15300000000000002,0.15280000000000005]",-3,3.5679,-114,58,1,0,0,response7disk_5,3,-4,1,0,0,rectangle_8,3,-4,1,0,0,1,3,-4,1,0,0,3,0,3,0,1,,,,,,,,,,,,,,,,,,,,,,,,,,,,,,,,,,,,,,,,,,,,,,,,,,,,,,,,,,,,,,,,,,,,,,,,,,,,,,,,,,,,,,,,,,,,,,,,,,,,,,,,,,,,,,,,
,,,,,,5eb1b16b14e51e2de3f13827,62c53996ae27c2a639f10eee,2022-07-06_10h30.47.570,Colour_Asymmetry_Pilot,2022.1.3,Win32,59.95922773,62c50e9c1127f2cd403a315f,,,,,,,,,,,,,,,,,,,"[0.37240000000000006,0.4980000000000002,-0.2864]",threeone,"[0.7646000000000002,0.07440000000000002,0.2704]",-4,1.6819,-55,132,1,0,0,response7disk_5,13,-3,1,0,0,rectangle_8,-48,117,1,0,0,1,-7,-5,1,0,0,4,0,4,0,1,response7disk_7,0,rectangle_4,,,,,,,,,,,,,,,,,,,,,,,,,,,,,,,,,,,,,,,,,,,,,,,,,,,,,,,,,,,,,,,,,,,,,,,,,,,,,,,,,,,,,,,,,,,,,,,,,,,,,,,,,,,,,
,,,,,,5eb1b16b14e51e2de3f13827,62c53996ae27c2a639f10eee,2022-07-06_10h30.47.570,Colour_Asymmetry_Pilot,2022.1.3,Win32,59.95922773,62c50e9c1127f2cd403a315f,,,,,,,,,,,,,,,,,,,"[0.3802000000000001,0.19199999999999995,-0.6394]",threefour,"[0.18419999999999992,-0.4276,-0.404]",-4,1.5159,-81,134,1,0,0,response7disk_5,8,4,1,0,0,rectangle_8,8,4,1,0,0,1,8,4,1,0,0,5,0,5,0,1,,,,,,,,,,,,,,,,,,,,,,,,,,,,,,,,,,,,,,,,,,,,,,,,,,,,,,,,,,,,,,,,,,,,,,,,,,,,,,,,,,,,,,,,,,,,,,,,,,,,,,,,,,,,,,,,
,,,,,,5eb1b16b14e51e2de3f13827,62c53996ae27c2a639f10eee,2022-07-06_10h30.47.570,Colour_Asymmetry_Pilot,2022.1.3,Win32,59.95922773,62c50e9c1127f2cd403a315f,,,,,,,,,,,,,,,,,,,"[-0.8118,-0.8198,-0.5452]",onetwo,"[-0.06680000000000008,-0.45100000000000007,-0.906]",-4,7.3672,-53,96,1,0,0,response7disk_5,-27,-2,1,0,0,rectangle_8,-27,-2,1,0,0,1,-27,-2,1,0,0,6,0,6,0,1,,,,,,,,,,,,,,,,,,,,,,,,,,,,,,,,,,,,,,,,,,,,,,,,,,,,,,,,,,,,,,,,,,,,,,,,,,,,,,,,,,,,,,,,,,,,,,,,,,,,,,,,,,,,,,,,
,,,,,,5eb1b16b14e51e2de3f13827,62c53996ae27c2a639f10eee,2022-07-06_10h30.47.570,Colour_Asymmetry_Pilot,2022.1.3,Win32,59.95922773,62c50e9c1127f2cd403a315f,,,,,,,,,,,,,,,,,,,,twofour,,-4,1.6165,,,,,,,,,,,,,,,,,,,,,,,,,,,,,,,,space,4.105,"[-0.17659999999999998,0.3253999999999999,0.19999999999999996]","[0.34099999999999997,0.12939999999999996,-0.9766]",-53,124,1,0,0,response7disk,-11,-8,1,0,0,rectangle,-11,-8,1,0,0,,1,0.003,0,-11,-8,1,0,0,0,0,0,108,1,27,second,,,,,,,,,,,,,,,,,,,,,,,,,,,,,,,,,,,,,,,,,,,,,,,,,,,,,,,,,,,,,,,,,,,,,,,,
,,,,,,5eb1b16b14e51e2de3f13827,62c53996ae27c2a639f10eee,2022-07-06_10h30.47.570,Colour_Asymmetry_Pilot,2022.1.3,Win32,59.95922773,62c50e9c1127f2cd403a315f,,,,,,,,,,,,,,,,,,,,fourthree,,-4,0.6497,,,,,,,,,,,,,,,,,,,,,,,,,,,,,,,,,,"[0.9372,0.9450000000000001,0.8980000000000001]","[1,0.12939999999999996,-1]",-42,91,1,0,0,response7disk,4,5,1,0,0,rectangle,4,5,1,0,0,,1,0.0007,0,4,5,1,0,0,0,1,1,115,1,34,second,,,,,,,,,,,,,,,,,,,,,,,,,,,,,,,,,,,,,,,,,,,,,,,,,,,,,,,,,,,,,,,,,,,,,,,,
,,,,,,5eb1b16b14e51e2de3f13827,62c53996ae27c2a639f10eee,2022-07-06_10h30.47.570,Colour_Asymmetry_Pilot,2022.1.3,Win32,59.95922773,62c50e9c1127f2cd403a315f,,,,,,,,,,,,,,,,,,,,fourtwo,,-3,0.9333,,,,,,,,,,,,,,,,,,,,,,,,,,,,,,,,,,"[0.9686000000000001,0.3802000000000001,0.19999999999999996]","[-0.26280000000000003,-0.2158,-0.3256]",-100,80,1,0,0,response7disk,-9,1,1,0,0,rectangle,-9,1,1,0,0,,1,0.0004,0,-9,1,1,0,0,0,2,2,79,1,79,first,,,,,,,,,,,,,,,,,,,,,,,,,,,,,,,,,,,,,,,,,,,,,,,,,,,,,,,,,,,,,,,,,,,,,,,,
,,,,,,5eb1b16b14e51e2de3f13827,62c53996ae27c2a639f10eee,2022-07-06_10h30.47.570,Colour_Asymmetry_Pilot,2022.1.3,Win32,59.95922773,62c50e9c1127f2cd403a315f,,,,,,,,,,,,,,,,,,,,threefour,,-2,2.833,,,,,,,,,,,,,,,,,,,,,,,,,,,,,,,,,,"[-0.48240000000000005,0.3175999999999999,0.2156]","[-0.8118,-0.8198,-0.5452]",-104,-35,1,0,0,response5disk,-5,1,1,0,0,rectangle,-5,1,1,0,0,,2,0.0015,0,-5,1,1,0,0,0,3,3,111,1,30,second,,,,,,,,,,,,,,,,,,,,,,,,,,,,,,,,,,,,,,,,,,,,,,,,,,,,,,,,,,,,,,,,,,,,,,,,
,,,,,,5eb1b16b14e51e2de3f13827,62c53996ae27c2a639f10eee,2022-07-06_10h30.47.570,Colour_Asymmetry_Pilot,2022.1.3,Win32,59.95922773,62c50e9c1127f2cd403a315f,,,,,,,,,,,,,,,,,,,,fourthree,,-3,1.0559,,,,,,,,,,,,,,,,,,,,,,,,,,,,,,,,,,"[0.3568,-0.20799999999999996,-0.9844]","[-0.6706000000000001,-0.6157999999999999,-0.6786]",-108,53,1,0,0,response7disk,-46,-3,1,0,0,rectangle,-46,-3,1,0,0,,2,0.0004,0,-46,-3,1,0,0,0,4,4,154,1,73,second,,,,,,,,,,,,,,,,,,,,,,,,,,,,,,,,,,,,,,,,,,,,,,,,,,,,,,,,,,,,,,,,,,,,,,,,
,,,,,,5eb1b16b14e51e2de3f13827,62c53996ae27c2a639f10eee,2022-07-06_10h30.47.570,Colour_Asymmetry_Pilot,2022.1.3,Win32,59.95922773,62c50e9c1127f2cd403a315f,,,,,,,,,,,,,,,,,,,,fourtwo,,-4,1.2667,,,,,,,,,,,,,,,,,,,,,,,,,,,,,,,,,,"[0.9686000000000001,0.3802000000000001,0.19999999999999996]","[0.11359999999999992,0.6312,0.5213999999999999]",-52,122,1,0,0,response7disk,-22,7,1,0,0,rectangle,-22,7,1,0,0,,1,0.0015,0,-22,7,1,0,0,0,5,5,101,1,20,second,,,,,,,,,,,,,,,,,,,,,,,,,,,,,,,,,,,,,,,,,,,,,,,,,,,,,,,,,,,,,,,,,,,,,,,,
,,,,,,5eb1b16b14e51e2de3f13827,62c53996ae27c2a639f10eee,2022-07-06_10h30.47.570,Colour_Asymmetry_Pilot,2022.1.3,Win32,59.95922773,62c50e9c1127f2cd403a315f,,,,,,,,,,,,,,,,,,,,onethree,,-2,1.2093,,,,,,,,,,,,,,,,,,,,,,,,,,,,,,,,,,"[0.8274000000000001,-0.5844,-0.9452]","[0.9763999999999999,0.30979999999999985,-0.6786]",-100,-37,1,0,0,response5disk,-35,-10,1,0,0,rectangle,-35,-10,1,0,0,,2,0.0016,0,-35,-10,1,0,0,0,6,6,38,1,38,first,,,,,,,,,,,,,,,,,,,,,,,,,,,,,,,,,,,,,,,,,,,,,,,,,,,,,,,,,,,,,,,,,,,,,,,,
,,,,,,5eb1b16b14e51e2de3f13827,62c53996ae27c2a639f10eee,2022-07-06_10h30.47.570,Colour_Asymmetry_Pilot,2022.1.3,Win32,59.95922773,62c50e9c1127f2cd403a315f,,,,,,,,,,,,,,,,,,,,onetwo,,-2,1.4503,,,,,,,,,,,,,,,,,,,,,,,,,,,,,,,,,,"[-0.8118,-0.8198,-0.5452]","[-0.4746,-0.0354000000000001,0.5449999999999999]",-78,-53,1,0,0,response5disk,-27,1,1,0,0,rectangle,-27,1,1,0,0,,1,0.0017,0,-27,1,1,0,0,0,7,7,61,1,61,first,,,,,,,,,,,,,,,,,,,,,,,,,,,,,,,,,,,,,,,,,,,,,,,,,,,,,,,,,,,,,,,,,,,,,,,,
,,,,,,5eb1b16b14e51e2de3f13827,62c53996ae27c2a639f10eee,2022-07-06_10h30.47.570,Colour_Asymmetry_Pilot,2022.1.3,Win32,59.95922773,62c50e9c1127f2cd403a315f,,,,,,,,,,,,,,,,,,,,onetwo,,-3,0.6335,,,,,,,,,,,,,,,,,,,,,,,,,,,,,,,,,,"[1,0.12939999999999996,-1]","[-0.2942,-0.7648,-0.7492000000000001]",-99,70,1,0,0,response7disk,-19,-3,1,0,0,rectangle,-19,-3,1,0,0,,2,0.0015,0,-19,-3,1,0,0,0,8,8,22,1,22,first,,,,,,,,,,,,,,,,,,,,,,,,,,,,,,,,,,,,,,,,,,,,,,,,,,,,,,,,,,,,,,,,,,,,,,,,
,,,,,,5eb1b16b14e51e2de3f13827,62c53996ae27c2a639f10eee,2022-07-06_10h30.47.570,Colour_Asymmetry_Pilot,2022.1.3,Win32,59.95922773,62c50e9c1127f2cd403a315f,,,,,,,,,,,,,,,,,,,,threefour,,-2,1.1171,,,,,,,,,,,,,,,,,,,,,,,,,,,,,,,,,,"[0.40379999999999994,0.09000000000000008,0.44300000000000006]","[0.30180000000000007,-0.7884,-0.9844]",-110,-68,1,0,0,response5disk,0,0,1,0,0,rectangle,-54,66,1,0,0,-4,1,2.9332,1,-29,1,1,0,0,0,9,9,76,1,76,first,response7disk_3,rectangle,,,,,,,,,,,,,,,,,,,,,,,,,,,,,,,,,,,,,,,,,,,,,,,,,,,,,,,,,,,,,,,,,,,,,,
,,,,,,5eb1b16b14e51e2de3f13827,62c53996ae27c2a639f10eee,2022-07-06_10h30.47.570,Colour_Asymmetry_Pilot,2022.1.3,Win32,59.95922773,62c50e9c1127f2cd403a315f,,,,,,,,,,,,,,,,,,,,threeone,,-3,1.8834,,,,,,,,,,,,,,,,,,,,,,,,,,,,,,,,,,"[-0.4668,-0.8746,-0.2942]","[0.0351999999999999,0.41159999999999997,0.0038000000000000256]",-99,39,1,0,0,response7disk,-23,9,1,0,0,rectangle,-53,50,1,0,0,-3,1,1.3833,1,-11,-3,1,0,0,0,10,10,11,1,11,first,response7disk_3,rectangle,,,,,,,,,,,,,,,,,,,,,,,,,,,,,,,,,,,,,,,,,,,,,,,,,,,,,,,,,,,,,,,,,,,,,,
,,,,,,5eb1b16b14e51e2de3f13827,62c53996ae27c2a639f10eee,2022-07-06_10h30.47.570,Colour_Asymmetry_Pilot,2022.1.3,Win32,59.95922773,62c50e9c1127f2cd403a315f,,,,,,,,,,,,,,,,,,,,fourtwo,,-2,1.9992,,,,,,,,,,,,,,,,,,,,,,,,,,,,,,,,,,"[-0.2942,-0.7648,-0.7492000000000001]","[1,0.12939999999999996,-1]",-85,-47,1,0,0,response5disk,18,16,1,0,0,rectangle,18,16,1,0,0,-3,3,0.0007,0,18,16,1,0,0,0,11,11,103,1,22,second,,,,,,,,,,,,,,,,,,,,,,,,,,,,,,,,,,,,,,,,,,,,,,,,,,,,,,,,,,,,,,,,,,,,,,,,
,,,,,,5eb1b16b14e51e2de3f13827,62c53996ae27c2a639f10eee,2022-07-06_10h30.47.570,Colour_Asymmetry_Pilot,2022.1.3,Win32,59.95922773,62c50e9c1127f2cd403a315f,,,,,,,,,,,,,,,,,,,,fourthree,,-3,0.884,,,,,,,,,,,,,,,,,,,,,,,,,,,,,,,,,,"[-0.011800000000000033,-0.906,-0.45100000000000007]","[0.04299999999999993,0.16060000000000008,-0.6628000000000001]",-92,50,1,0,0,response7disk,-5,4,1,0,0,rectangle,-5,4,1,0,0,-3,3,0.0003,0,-5,4,1,0,0,0,12,12,40,1,40,first,,,,,,,,,,,,,,,,,,,,,,,,,,,,,,,,,,,,,,,,,,,,,,,,,,,,,,,,,,,,,,,,,,,,,,,,
,,,,,,5eb1b16b14e51e2de3f13827,62c53996ae27c2a639f10eee,2022-07-06_10h30.47.570,Colour_Asymmetry_Pilot,2022.1.3,Win32,59.95922773,62c50e9c1127f2cd403a315f,,,,,,,,,,,,,,,,,,,,fourtwo,,1,2.8004,,,,,,,,,,,,,,,,,,,,,,,,,,,,,,,,,,"[-0.34920000000000007,-0.702,-0.5216]","[-0.9296,-0.12959999999999994,-0.043199999999999905]",49,-96,1,0,0,response3disk,-31,-4,1,0,0,rectangle,-31,-4,1,0,0,-3,3,0.0003,0,-31,-4,1,0,0,0,13,13,69,1,69,first,,,,,,,,,,,,,,,,,,,,,,,,,,,,,,,,,,,,,,,,,,,,,,,,,,,,,,,,,,,,,,,,,,,,,,,,
,,,,,,5eb1b16b14e51e2de3f13827,62c53996ae27c2a639f10eee,2022-07-06_10h30.47.570,Colour_Asymmetry_Pilot,2022.1.3,Win32,59.95922773,62c50e9c1127f2cd403a315f,,,,,,,,,,,,,,,,,,,,onethree,,-3,0.8573,,,,,,,,,,,,,,,,,,,,,,,,,,,,,,,,,,"[-0.24719999999999998,-0.0354000000000001,0.3175999999999999]","[0.40379999999999994,0.09000000000000008,0.44300000000000006]",-106,41,1,0,0,response7disk,-9,5,1,0,0,rectangle,-9,5,1,0,0,-3,3,0.0003,0,-9,5,1,0,0,0,14,14,46,1,46,first,,,,,,,,,,,,,,,,,,,,,,,,,,,,,,,,,,,,,,,,,,,,,,,,,,,,,,,,,,,,,,,,,,,,,,,,
,,,,,,5eb1b16b14e51e2de3f13827,62c53996ae27c2a639f10eee,2022-07-06_10h30.47.570,Colour_Asymmetry_Pilot,2022.1.3,Win32,59.95922773,62c50e9c1127f2cd403a315f,,,,,,,,,,,,,,,,,,,,twoone,,-2,0.8765,,,,,,,,,,,,,,,,,,,,,,,,,,,,,,,,,,"[0.7176,-0.906,-0.6864]","[0.7646000000000002,0.07440000000000002,0.2704]",-70,-28,1,0,0,response5disk,-30,-9,1,0,0,rectangle,-30,-9,1,0,0,-3,2,0.0016,0,-30,-9,1,0,0,0,15,15,68,1,68,first,,,,,,,,,,,,,,,,,,,,,,,,,,,,,,,,,,,,,,,,,,,,,,,,,,,,,,,,,,,,,,,,,,,,,,,,
,,,,,,5eb1b16b14e51e2de3f13827,62c53996ae27c2a639f10eee,2022-07-06_10h30.47.570,Colour_Asymmetry_Pilot,2022.1.3,Win32,59.95922773,62c50e9c1127f2cd403a315f,,,,,,,,,,,,,,,,,,,,onethree,,-2,0.6672,,,,,,,,,,,,,,,,,,,,,,,,,,,,,,,,,,"[0.11359999999999992,0.6312,0.5213999999999999]","[0.6625999999999999,0.4980000000000002,-0.357]",-60,-29,1,0,0,response5disk,-29,-9,1,0,0,rectangle,-29,-9,1,0,0,-3,3,0.0015,0,-29,-9,1,0,0,0,16,16,143,1,62,second,,,,,,,,,,,,,,,,,,,,,,,,,,,,,,,,,,,,,,,,,,,,,,,,,,,,,,,,,,,,,,,,,,,,,,,,
,,,,,,5eb1b16b14e51e2de3f13827,62c53996ae27c2a639f10eee,2022-07-06_10h30.47.570,Colour_Asymmetry_Pilot,2022.1.3,Win32,59.95922773,62c50e9c1127f2cd403a315f,,,,,,,,,,,,,,,,,,,,twofour,,-2,0.6169,,,,,,,,,,,,,,,,,,,,,,,,,,,,,,,,,,"[0.9686000000000001,0.3802000000000001,0.19999999999999996]","[-0.9766,-0.6472,0.07440000000000002]",-83,-25,1,0,0,response5disk,-32,-2,1,0,0,rectangle,-32,-2,1,0,0,-3,2,0.0014,0,-32,-2,1,0,0,0,17,17,1,1,1,first,,,,,,,,,,,,,,,,,,,,,,,,,,,,,,,,,,,,,,,,,,,,,,,,,,,,,,,,,,,,,,,,,,,,,,,,
