trials.thisRepN,trials.thisTrialN,trials.thisN,trials.thisIndex,trials.ran,Colourcodes,participant,session,date,expName,psychopyVersion,OS,frameRate,study_id,trials_4.thisRepN,trials_4.thisTrialN,trials_4.thisN,trials_4.thisIndex,trials_4.ran,StimulusPos,key_resp.keys,key_resp.rt,key_resp_2.keys,key_resp_2.rt,key_resp_15.keys,key_resp_15.rt,key_resp_17.keys,key_resp_17.rt,key_resp_9.keys,key_resp_9.rt,key_resp_10.keys,key_resp_10.rt,Circle1_col,Ecc,Circle2_col,similarity,response_time,mouse_5.x,mouse_5.y,mouse_5.leftButton,mouse_5.midButton,mouse_5.rightButton,mouse_5.clicked_name,mouse_10.x,mouse_10.y,mouse_10.leftButton,mouse_10.midButton,mouse_10.rightButton,mouse_10.clicked_name,mouse_7.x,mouse_7.y,mouse_7.leftButton,mouse_7.midButton,mouse_7.rightButton,catchnumberprac,mouse_6.x,mouse_6.y,mouse_6.leftButton,mouse_6.midButton,mouse_6.rightButton,duringprac.thisRepN,duringprac.thisTrialN,duringprac.thisN,duringprac.thisIndex,duringprac.ran,mouse_7.clicked_name,catchprac,mouse_6.clicked_name,key_resp_22.keys,key_resp_22.rt,Circle1_colour,Circle2_colour,mouse.x,mouse.y,mouse.leftButton,mouse.midButton,mouse.rightButton,mouse.clicked_name,mouse_2.x,mouse_2.y,mouse_2.leftButton,mouse_2.midButton,mouse_2.rightButton,mouse_2.clicked_name,mouse_3.x,mouse_3.y,mouse_3.leftButton,mouse_3.midButton,mouse_3.rightButton,catchresponse,catchnumber,response_time_catch,Catch,mouse_11.x,mouse_11.y,mouse_11.leftButton,mouse_11.midButton,mouse_11.rightButton,trials_2.thisRepN,trials_2.thisTrialN,trials_2.thisN,trials_2.thisIndex,trials_2.ran,Colourpair,Temporder,mouse_3.clicked_name,mouse_11.clicked_name,trials_3.thisRepN,trials_3.thisTrialN,trials_3.thisN,trials_3.thisIndex,trials_3.ran,key_resp_instr_Ishi.keys,key_resp_instr_Ishi.rt,Ishi_trial_keyresp.keys,Ishi_textbox.text,Ishi_mouse.x,Ishi_mouse.y,Ishi_mouse.leftButton,Ishi_mouse.midButton,Ishi_mouse.rightButton,Ishi_mouse.clicked_name,Ishi_loop.thisRepN,Ishi_loop.thisTrialN,Ishi_loop.thisN,Ishi_loop.thisIndex,Ishi_loop.ran,imageaddress,textbox.text,mouse_4.x,mouse_4.y,mouse_4.leftButton,mouse_4.midButton,mouse_4.rightButton,mouse_4.clicked_name,textbox_2.text,mouse_8.x,mouse_8.y,mouse_8.leftButton,mouse_8.midButton,mouse_8.rightButton,mouse_8.clicked_name,textbox_3.text,mouse_9.x,mouse_9.y,mouse_9.leftButton,mouse_9.midButton,mouse_9.rightButton,mouse_9.clicked_name,textbox_4.text,mouse_12.x,mouse_12.y,mouse_12.leftButton,mouse_12.midButton,mouse_12.rightButton,mouse_12.clicked_name,textbox_5.text,mouse_13.x,mouse_13.y,mouse_13.leftButton,mouse_13.midButton,mouse_13.rightButton,mouse_13.clicked_name,textbox_6.text,mouse_14.x,mouse_14.y,mouse_14.leftButton,mouse_14.midButton,mouse_14.rightButton,mouse_14.clicked_name,textbox_7.text,mouse_15.x,mouse_15.y,mouse_15.leftButton,mouse_15.midButton,mouse_15.rightButton,mouse_15.clicked_name
0,0,0,58,1,,5d5fac22e32d920001c82b53,62c53a09614ceb72cf758a92,2022-07-06_09h30.31.041,Colour_Asymmetry_Pilot,2022.1.3,Win32,58.83391187,62c50e9c1127f2cd403a315f,,,,,,,,,,,,,,,,,,,,,,,,,,,,,,,,,,,,,,,,,,,,,,,,,,,,,,,,,,,,,,,,,,,,,,,,,,,,,,,,,,,,,,,,,,,,,,,,,,,,,,,,,,,,,,,,,,,,,,,,,,,,,,,,,,,,,,,,,,,,,,,,,,,,,,,,,,,,,,,,,,,
0,1,1,48,1,,5d5fac22e32d920001c82b53,62c53a09614ceb72cf758a92,2022-07-06_09h30.31.041,Colour_Asymmetry_Pilot,2022.1.3,Win32,58.83391187,62c50e9c1127f2cd403a315f,,,,,,,,,,,,,,,,,,,,,,,,,,,,,,,,,,,,,,,,,,,,,,,,,,,,,,,,,,,,,,,,,,,,,,,,,,,,,,,,,,,,,,,,,,,,,,,,,,,,,,,,,,,,,,,,,,,,,,,,,,,,,,,,,,,,,,,,,,,,,,,,,,,,,,,,,,,,,,,,,,,
0,2,2,76,1,,5d5fac22e32d920001c82b53,62c53a09614ceb72cf758a92,2022-07-06_09h30.31.041,Colour_Asymmetry_Pilot,2022.1.3,Win32,58.83391187,62c50e9c1127f2cd403a315f,,,,,,,,,,,,,,,,,,,,,,,,,,,,,,,,,,,,,,,,,,,,,,,,,,,,,,,,,,,,,,,,,,,,,,,,,,,,,,,,,,,,,,,,,,,,,,,,,,,,,,,,,,,,,,,,,,,,,,,,,,,,,,,,,,,,,,,,,,,,,,,,,,,,,,,,,,,,,,,,,,,
0,3,3,54,1,,5d5fac22e32d920001c82b53,62c53a09614ceb72cf758a92,2022-07-06_09h30.31.041,Colour_Asymmetry_Pilot,2022.1.3,Win32,58.83391187,62c50e9c1127f2cd403a315f,,,,,,,,,,,,,,,,,,,,,,,,,,,,,,,,,,,,,,,,,,,,,,,,,,,,,,,,,,,,,,,,,,,,,,,,,,,,,,,,,,,,,,,,,,,,,,,,,,,,,,,,,,,,,,,,,,,,,,,,,,,,,,,,,,,,,,,,,,,,,,,,,,,,,,,,,,,,,,,,,,,
0,4,4,53,1,,5d5fac22e32d920001c82b53,62c53a09614ceb72cf758a92,2022-07-06_09h30.31.041,Colour_Asymmetry_Pilot,2022.1.3,Win32,58.83391187,62c50e9c1127f2cd403a315f,,,,,,,,,,,,,,,,,,,,,,,,,,,,,,,,,,,,,,,,,,,,,,,,,,,,,,,,,,,,,,,,,,,,,,,,,,,,,,,,,,,,,,,,,,,,,,,,,,,,,,,,,,,,,,,,,,,,,,,,,,,,,,,,,,,,,,,,,,,,,,,,,,,,,,,,,,,,,,,,,,,
0,5,5,52,1,,5d5fac22e32d920001c82b53,62c53a09614ceb72cf758a92,2022-07-06_09h30.31.041,Colour_Asymmetry_Pilot,2022.1.3,Win32,58.83391187,62c50e9c1127f2cd403a315f,,,,,,,,,,,,,,,,,,,,,,,,,,,,,,,,,,,,,,,,,,,,,,,,,,,,,,,,,,,,,,,,,,,,,,,,,,,,,,,,,,,,,,,,,,,,,,,,,,,,,,,,,,,,,,,,,,,,,,,,,,,,,,,,,,,,,,,,,,,,,,,,,,,,,,,,,,,,,,,,,,,
0,6,6,79,1,,5d5fac22e32d920001c82b53,62c53a09614ceb72cf758a92,2022-07-06_09h30.31.041,Colour_Asymmetry_Pilot,2022.1.3,Win32,58.83391187,62c50e9c1127f2cd403a315f,,,,,,,,,,,,,,,,,,,,,,,,,,,,,,,,,,,,,,,,,,,,,,,,,,,,,,,,,,,,,,,,,,,,,,,,,,,,,,,,,,,,,,,,,,,,,,,,,,,,,,,,,,,,,,,,,,,,,,,,,,,,,,,,,,,,,,,,,,,,,,,,,,,,,,,,,,,,,,,,,,,
0,7,7,92,1,,5d5fac22e32d920001c82b53,62c53a09614ceb72cf758a92,2022-07-06_09h30.31.041,Colour_Asymmetry_Pilot,2022.1.3,Win32,58.83391187,62c50e9c1127f2cd403a315f,,,,,,,,,,,,,,,,,,,,,,,,,,,,,,,,,,,,,,,,,,,,,,,,,,,,,,,,,,,,,,,,,,,,,,,,,,,,,,,,,,,,,,,,,,,,,,,,,,,,,,,,,,,,,,,,,,,,,,,,,,,,,,,,,,,,,,,,,,,,,,,,,,,,,,,,,,,,,,,,,,,
0,8,8,62,1,,5d5fac22e32d920001c82b53,62c53a09614ceb72cf758a92,2022-07-06_09h30.31.041,Colour_Asymmetry_Pilot,2022.1.3,Win32,58.83391187,62c50e9c1127f2cd403a315f,,,,,,,,,,,,,,,,,,,,,,,,,,,,,,,,,,,,,,,,,,,,,,,,,,,,,,,,,,,,,,,,,,,,,,,,,,,,,,,,,,,,,,,,,,,,,,,,,,,,,,,,,,,,,,,,,,,,,,,,,,,,,,,,,,,,,,,,,,,,,,,,,,,,,,,,,,,,,,,,,,,
0,9,9,30,1,,5d5fac22e32d920001c82b53,62c53a09614ceb72cf758a92,2022-07-06_09h30.31.041,Colour_Asymmetry_Pilot,2022.1.3,Win32,58.83391187,62c50e9c1127f2cd403a315f,,,,,,,,,,,,,,,,,,,,,,,,,,,,,,,,,,,,,,,,,,,,,,,,,,,,,,,,,,,,,,,,,,,,,,,,,,,,,,,,,,,,,,,,,,,,,,,,,,,,,,,,,,,,,,,,,,,,,,,,,,,,,,,,,,,,,,,,,,,,,,,,,,,,,,,,,,,,,,,,,,,
0,10,10,85,1,,5d5fac22e32d920001c82b53,62c53a09614ceb72cf758a92,2022-07-06_09h30.31.041,Colour_Asymmetry_Pilot,2022.1.3,Win32,58.83391187,62c50e9c1127f2cd403a315f,,,,,,,,,,,,,,,,,,,,,,,,,,,,,,,,,,,,,,,,,,,,,,,,,,,,,,,,,,,,,,,,,,,,,,,,,,,,,,,,,,,,,,,,,,,,,,,,,,,,,,,,,,,,,,,,,,,,,,,,,,,,,,,,,,,,,,,,,,,,,,,,,,,,,,,,,,,,,,,,,,,
0,11,11,28,1,,5d5fac22e32d920001c82b53,62c53a09614ceb72cf758a92,2022-07-06_09h30.31.041,Colour_Asymmetry_Pilot,2022.1.3,Win32,58.83391187,62c50e9c1127f2cd403a315f,,,,,,,,,,,,,,,,,,,,,,,,,,,,,,,,,,,,,,,,,,,,,,,,,,,,,,,,,,,,,,,,,,,,,,,,,,,,,,,,,,,,,,,,,,,,,,,,,,,,,,,,,,,,,,,,,,,,,,,,,,,,,,,,,,,,,,,,,,,,,,,,,,,,,,,,,,,,,,,,,,,
0,12,12,80,1,,5d5fac22e32d920001c82b53,62c53a09614ceb72cf758a92,2022-07-06_09h30.31.041,Colour_Asymmetry_Pilot,2022.1.3,Win32,58.83391187,62c50e9c1127f2cd403a315f,,,,,,,,,,,,,,,,,,,,,,,,,,,,,,,,,,,,,,,,,,,,,,,,,,,,,,,,,,,,,,,,,,,,,,,,,,,,,,,,,,,,,,,,,,,,,,,,,,,,,,,,,,,,,,,,,,,,,,,,,,,,,,,,,,,,,,,,,,,,,,,,,,,,,,,,,,,,,,,,,,,
0,13,13,88,1,,5d5fac22e32d920001c82b53,62c53a09614ceb72cf758a92,2022-07-06_09h30.31.041,Colour_Asymmetry_Pilot,2022.1.3,Win32,58.83391187,62c50e9c1127f2cd403a315f,,,,,,,,,,,,,,,,,,,,,,,,,,,,,,,,,,,,,,,,,,,,,,,,,,,,,,,,,,,,,,,,,,,,,,,,,,,,,,,,,,,,,,,,,,,,,,,,,,,,,,,,,,,,,,,,,,,,,,,,,,,,,,,,,,,,,,,,,,,,,,,,,,,,,,,,,,,,,,,,,,,
0,14,14,67,1,,5d5fac22e32d920001c82b53,62c53a09614ceb72cf758a92,2022-07-06_09h30.31.041,Colour_Asymmetry_Pilot,2022.1.3,Win32,58.83391187,62c50e9c1127f2cd403a315f,,,,,,,,,,,,,,,,,,,,,,,,,,,,,,,,,,,,,,,,,,,,,,,,,,,,,,,,,,,,,,,,,,,,,,,,,,,,,,,,,,,,,,,,,,,,,,,,,,,,,,,,,,,,,,,,,,,,,,,,,,,,,,,,,,,,,,,,,,,,,,,,,,,,,,,,,,,,,,,,,,,
0,15,15,81,1,,5d5fac22e32d920001c82b53,62c53a09614ceb72cf758a92,2022-07-06_09h30.31.041,Colour_Asymmetry_Pilot,2022.1.3,Win32,58.83391187,62c50e9c1127f2cd403a315f,,,,,,,,,,,,,,,,,,,,,,,,,,,,,,,,,,,,,,,,,,,,,,,,,,,,,,,,,,,,,,,,,,,,,,,,,,,,,,,,,,,,,,,,,,,,,,,,,,,,,,,,,,,,,,,,,,,,,,,,,,,,,,,,,,,,,,,,,,,,,,,,,,,,,,,,,,,,,,,,,,,
0,16,16,38,1,,5d5fac22e32d920001c82b53,62c53a09614ceb72cf758a92,2022-07-06_09h30.31.041,Colour_Asymmetry_Pilot,2022.1.3,Win32,58.83391187,62c50e9c1127f2cd403a315f,,,,,,,,,,,,,,,,,,,,,,,,,,,,,,,,,,,,,,,,,,,,,,,,,,,,,,,,,,,,,,,,,,,,,,,,,,,,,,,,,,,,,,,,,,,,,,,,,,,,,,,,,,,,,,,,,,,,,,,,,,,,,,,,,,,,,,,,,,,,,,,,,,,,,,,,,,,,,,,,,,,
0,17,17,35,1,,5d5fac22e32d920001c82b53,62c53a09614ceb72cf758a92,2022-07-06_09h30.31.041,Colour_Asymmetry_Pilot,2022.1.3,Win32,58.83391187,62c50e9c1127f2cd403a315f,,,,,,,,,,,,,,,,,,,,,,,,,,,,,,,,,,,,,,,,,,,,,,,,,,,,,,,,,,,,,,,,,,,,,,,,,,,,,,,,,,,,,,,,,,,,,,,,,,,,,,,,,,,,,,,,,,,,,,,,,,,,,,,,,,,,,,,,,,,,,,,,,,,,,,,,,,,,,,,,,,,
0,18,18,8,1,,5d5fac22e32d920001c82b53,62c53a09614ceb72cf758a92,2022-07-06_09h30.31.041,Colour_Asymmetry_Pilot,2022.1.3,Win32,58.83391187,62c50e9c1127f2cd403a315f,,,,,,,,,,,,,,,,,,,,,,,,,,,,,,,,,,,,,,,,,,,,,,,,,,,,,,,,,,,,,,,,,,,,,,,,,,,,,,,,,,,,,,,,,,,,,,,,,,,,,,,,,,,,,,,,,,,,,,,,,,,,,,,,,,,,,,,,,,,,,,,,,,,,,,,,,,,,,,,,,,,
0,19,19,72,1,,5d5fac22e32d920001c82b53,62c53a09614ceb72cf758a92,2022-07-06_09h30.31.041,Colour_Asymmetry_Pilot,2022.1.3,Win32,58.83391187,62c50e9c1127f2cd403a315f,,,,,,,,,,,,,,,,,,,,,,,,,,,,,,,,,,,,,,,,,,,,,,,,,,,,,,,,,,,,,,,,,,,,,,,,,,,,,,,,,,,,,,,,,,,,,,,,,,,,,,,,,,,,,,,,,,,,,,,,,,,,,,,,,,,,,,,,,,,,,,,,,,,,,,,,,,,,,,,,,,,
0,20,20,32,1,,5d5fac22e32d920001c82b53,62c53a09614ceb72cf758a92,2022-07-06_09h30.31.041,Colour_Asymmetry_Pilot,2022.1.3,Win32,58.83391187,62c50e9c1127f2cd403a315f,,,,,,,,,,,,,,,,,,,,,,,,,,,,,,,,,,,,,,,,,,,,,,,,,,,,,,,,,,,,,,,,,,,,,,,,,,,,,,,,,,,,,,,,,,,,,,,,,,,,,,,,,,,,,,,,,,,,,,,,,,,,,,,,,,,,,,,,,,,,,,,,,,,,,,,,,,,,,,,,,,,
0,21,21,66,1,,5d5fac22e32d920001c82b53,62c53a09614ceb72cf758a92,2022-07-06_09h30.31.041,Colour_Asymmetry_Pilot,2022.1.3,Win32,58.83391187,62c50e9c1127f2cd403a315f,,,,,,,,,,,,,,,,,,,,,,,,,,,,,,,,,,,,,,,,,,,,,,,,,,,,,,,,,,,,,,,,,,,,,,,,,,,,,,,,,,,,,,,,,,,,,,,,,,,,,,,,,,,,,,,,,,,,,,,,,,,,,,,,,,,,,,,,,,,,,,,,,,,,,,,,,,,,,,,,,,,
0,22,22,61,1,,5d5fac22e32d920001c82b53,62c53a09614ceb72cf758a92,2022-07-06_09h30.31.041,Colour_Asymmetry_Pilot,2022.1.3,Win32,58.83391187,62c50e9c1127f2cd403a315f,,,,,,,,,,,,,,,,,,,,,,,,,,,,,,,,,,,,,,,,,,,,,,,,,,,,,,,,,,,,,,,,,,,,,,,,,,,,,,,,,,,,,,,,,,,,,,,,,,,,,,,,,,,,,,,,,,,,,,,,,,,,,,,,,,,,,,,,,,,,,,,,,,,,,,,,,,,,,,,,,,,
0,23,23,19,1,,5d5fac22e32d920001c82b53,62c53a09614ceb72cf758a92,2022-07-06_09h30.31.041,Colour_Asymmetry_Pilot,2022.1.3,Win32,58.83391187,62c50e9c1127f2cd403a315f,,,,,,,,,,,,,,,,,,,,,,,,,,,,,,,,,,,,,,,,,,,,,,,,,,,,,,,,,,,,,,,,,,,,,,,,,,,,,,,,,,,,,,,,,,,,,,,,,,,,,,,,,,,,,,,,,,,,,,,,,,,,,,,,,,,,,,,,,,,,,,,,,,,,,,,,,,,,,,,,,,,
0,24,24,12,1,,5d5fac22e32d920001c82b53,62c53a09614ceb72cf758a92,2022-07-06_09h30.31.041,Colour_Asymmetry_Pilot,2022.1.3,Win32,58.83391187,62c50e9c1127f2cd403a315f,,,,,,,,,,,,,,,,,,,,,,,,,,,,,,,,,,,,,,,,,,,,,,,,,,,,,,,,,,,,,,,,,,,,,,,,,,,,,,,,,,,,,,,,,,,,,,,,,,,,,,,,,,,,,,,,,,,,,,,,,,,,,,,,,,,,,,,,,,,,,,,,,,,,,,,,,,,,,,,,,,,
0,25,25,15,1,,5d5fac22e32d920001c82b53,62c53a09614ceb72cf758a92,2022-07-06_09h30.31.041,Colour_Asymmetry_Pilot,2022.1.3,Win32,58.83391187,62c50e9c1127f2cd403a315f,,,,,,,,,,,,,,,,,,,,,,,,,,,,,,,,,,,,,,,,,,,,,,,,,,,,,,,,,,,,,,,,,,,,,,,,,,,,,,,,,,,,,,,,,,,,,,,,,,,,,,,,,,,,,,,,,,,,,,,,,,,,,,,,,,,,,,,,,,,,,,,,,,,,,,,,,,,,,,,,,,,
0,26,26,73,1,,5d5fac22e32d920001c82b53,62c53a09614ceb72cf758a92,2022-07-06_09h30.31.041,Colour_Asymmetry_Pilot,2022.1.3,Win32,58.83391187,62c50e9c1127f2cd403a315f,,,,,,,,,,,,,,,,,,,,,,,,,,,,,,,,,,,,,,,,,,,,,,,,,,,,,,,,,,,,,,,,,,,,,,,,,,,,,,,,,,,,,,,,,,,,,,,,,,,,,,,,,,,,,,,,,,,,,,,,,,,,,,,,,,,,,,,,,,,,,,,,,,,,,,,,,,,,,,,,,,,
0,27,27,9,1,,5d5fac22e32d920001c82b53,62c53a09614ceb72cf758a92,2022-07-06_09h30.31.041,Colour_Asymmetry_Pilot,2022.1.3,Win32,58.83391187,62c50e9c1127f2cd403a315f,,,,,,,,,,,,,,,,,,,,,,,,,,,,,,,,,,,,,,,,,,,,,,,,,,,,,,,,,,,,,,,,,,,,,,,,,,,,,,,,,,,,,,,,,,,,,,,,,,,,,,,,,,,,,,,,,,,,,,,,,,,,,,,,,,,,,,,,,,,,,,,,,,,,,,,,,,,,,,,,,,,
0,28,28,50,1,,5d5fac22e32d920001c82b53,62c53a09614ceb72cf758a92,2022-07-06_09h30.31.041,Colour_Asymmetry_Pilot,2022.1.3,Win32,58.83391187,62c50e9c1127f2cd403a315f,,,,,,,,,,,,,,,,,,,,,,,,,,,,,,,,,,,,,,,,,,,,,,,,,,,,,,,,,,,,,,,,,,,,,,,,,,,,,,,,,,,,,,,,,,,,,,,,,,,,,,,,,,,,,,,,,,,,,,,,,,,,,,,,,,,,,,,,,,,,,,,,,,,,,,,,,,,,,,,,,,,
0,29,29,40,1,,5d5fac22e32d920001c82b53,62c53a09614ceb72cf758a92,2022-07-06_09h30.31.041,Colour_Asymmetry_Pilot,2022.1.3,Win32,58.83391187,62c50e9c1127f2cd403a315f,,,,,,,,,,,,,,,,,,,,,,,,,,,,,,,,,,,,,,,,,,,,,,,,,,,,,,,,,,,,,,,,,,,,,,,,,,,,,,,,,,,,,,,,,,,,,,,,,,,,,,,,,,,,,,,,,,,,,,,,,,,,,,,,,,,,,,,,,,,,,,,,,,,,,,,,,,,,,,,,,,,
0,30,30,20,1,,5d5fac22e32d920001c82b53,62c53a09614ceb72cf758a92,2022-07-06_09h30.31.041,Colour_Asymmetry_Pilot,2022.1.3,Win32,58.83391187,62c50e9c1127f2cd403a315f,,,,,,,,,,,,,,,,,,,,,,,,,,,,,,,,,,,,,,,,,,,,,,,,,,,,,,,,,,,,,,,,,,,,,,,,,,,,,,,,,,,,,,,,,,,,,,,,,,,,,,,,,,,,,,,,,,,,,,,,,,,,,,,,,,,,,,,,,,,,,,,,,,,,,,,,,,,,,,,,,,,
0,31,31,42,1,,5d5fac22e32d920001c82b53,62c53a09614ceb72cf758a92,2022-07-06_09h30.31.041,Colour_Asymmetry_Pilot,2022.1.3,Win32,58.83391187,62c50e9c1127f2cd403a315f,,,,,,,,,,,,,,,,,,,,,,,,,,,,,,,,,,,,,,,,,,,,,,,,,,,,,,,,,,,,,,,,,,,,,,,,,,,,,,,,,,,,,,,,,,,,,,,,,,,,,,,,,,,,,,,,,,,,,,,,,,,,,,,,,,,,,,,,,,,,,,,,,,,,,,,,,,,,,,,,,,,
0,32,32,59,1,,5d5fac22e32d920001c82b53,62c53a09614ceb72cf758a92,2022-07-06_09h30.31.041,Colour_Asymmetry_Pilot,2022.1.3,Win32,58.83391187,62c50e9c1127f2cd403a315f,,,,,,,,,,,,,,,,,,,,,,,,,,,,,,,,,,,,,,,,,,,,,,,,,,,,,,,,,,,,,,,,,,,,,,,,,,,,,,,,,,,,,,,,,,,,,,,,,,,,,,,,,,,,,,,,,,,,,,,,,,,,,,,,,,,,,,,,,,,,,,,,,,,,,,,,,,,,,,,,,,,
0,33,33,63,1,,5d5fac22e32d920001c82b53,62c53a09614ceb72cf758a92,2022-07-06_09h30.31.041,Colour_Asymmetry_Pilot,2022.1.3,Win32,58.83391187,62c50e9c1127f2cd403a315f,,,,,,,,,,,,,,,,,,,,,,,,,,,,,,,,,,,,,,,,,,,,,,,,,,,,,,,,,,,,,,,,,,,,,,,,,,,,,,,,,,,,,,,,,,,,,,,,,,,,,,,,,,,,,,,,,,,,,,,,,,,,,,,,,,,,,,,,,,,,,,,,,,,,,,,,,,,,,,,,,,,
0,34,34,57,1,,5d5fac22e32d920001c82b53,62c53a09614ceb72cf758a92,2022-07-06_09h30.31.041,Colour_Asymmetry_Pilot,2022.1.3,Win32,58.83391187,62c50e9c1127f2cd403a315f,,,,,,,,,,,,,,,,,,,,,,,,,,,,,,,,,,,,,,,,,,,,,,,,,,,,,,,,,,,,,,,,,,,,,,,,,,,,,,,,,,,,,,,,,,,,,,,,,,,,,,,,,,,,,,,,,,,,,,,,,,,,,,,,,,,,,,,,,,,,,,,,,,,,,,,,,,,,,,,,,,,
0,35,35,60,1,,5d5fac22e32d920001c82b53,62c53a09614ceb72cf758a92,2022-07-06_09h30.31.041,Colour_Asymmetry_Pilot,2022.1.3,Win32,58.83391187,62c50e9c1127f2cd403a315f,,,,,,,,,,,,,,,,,,,,,,,,,,,,,,,,,,,,,,,,,,,,,,,,,,,,,,,,,,,,,,,,,,,,,,,,,,,,,,,,,,,,,,,,,,,,,,,,,,,,,,,,,,,,,,,,,,,,,,,,,,,,,,,,,,,,,,,,,,,,,,,,,,,,,,,,,,,,,,,,,,,
0,36,36,6,1,,5d5fac22e32d920001c82b53,62c53a09614ceb72cf758a92,2022-07-06_09h30.31.041,Colour_Asymmetry_Pilot,2022.1.3,Win32,58.83391187,62c50e9c1127f2cd403a315f,,,,,,,,,,,,,,,,,,,,,,,,,,,,,,,,,,,,,,,,,,,,,,,,,,,,,,,,,,,,,,,,,,,,,,,,,,,,,,,,,,,,,,,,,,,,,,,,,,,,,,,,,,,,,,,,,,,,,,,,,,,,,,,,,,,,,,,,,,,,,,,,,,,,,,,,,,,,,,,,,,,
0,37,37,37,1,,5d5fac22e32d920001c82b53,62c53a09614ceb72cf758a92,2022-07-06_09h30.31.041,Colour_Asymmetry_Pilot,2022.1.3,Win32,58.83391187,62c50e9c1127f2cd403a315f,,,,,,,,,,,,,,,,,,,,,,,,,,,,,,,,,,,,,,,,,,,,,,,,,,,,,,,,,,,,,,,,,,,,,,,,,,,,,,,,,,,,,,,,,,,,,,,,,,,,,,,,,,,,,,,,,,,,,,,,,,,,,,,,,,,,,,,,,,,,,,,,,,,,,,,,,,,,,,,,,,,
0,38,38,14,1,,5d5fac22e32d920001c82b53,62c53a09614ceb72cf758a92,2022-07-06_09h30.31.041,Colour_Asymmetry_Pilot,2022.1.3,Win32,58.83391187,62c50e9c1127f2cd403a315f,,,,,,,,,,,,,,,,,,,,,,,,,,,,,,,,,,,,,,,,,,,,,,,,,,,,,,,,,,,,,,,,,,,,,,,,,,,,,,,,,,,,,,,,,,,,,,,,,,,,,,,,,,,,,,,,,,,,,,,,,,,,,,,,,,,,,,,,,,,,,,,,,,,,,,,,,,,,,,,,,,,
0,39,39,83,1,,5d5fac22e32d920001c82b53,62c53a09614ceb72cf758a92,2022-07-06_09h30.31.041,Colour_Asymmetry_Pilot,2022.1.3,Win32,58.83391187,62c50e9c1127f2cd403a315f,,,,,,,,,,,,,,,,,,,,,,,,,,,,,,,,,,,,,,,,,,,,,,,,,,,,,,,,,,,,,,,,,,,,,,,,,,,,,,,,,,,,,,,,,,,,,,,,,,,,,,,,,,,,,,,,,,,,,,,,,,,,,,,,,,,,,,,,,,,,,,,,,,,,,,,,,,,,,,,,,,,
0,40,40,89,1,,5d5fac22e32d920001c82b53,62c53a09614ceb72cf758a92,2022-07-06_09h30.31.041,Colour_Asymmetry_Pilot,2022.1.3,Win32,58.83391187,62c50e9c1127f2cd403a315f,,,,,,,,,,,,,,,,,,,,,,,,,,,,,,,,,,,,,,,,,,,,,,,,,,,,,,,,,,,,,,,,,,,,,,,,,,,,,,,,,,,,,,,,,,,,,,,,,,,,,,,,,,,,,,,,,,,,,,,,,,,,,,,,,,,,,,,,,,,,,,,,,,,,,,,,,,,,,,,,,,,
0,41,41,84,1,,5d5fac22e32d920001c82b53,62c53a09614ceb72cf758a92,2022-07-06_09h30.31.041,Colour_Asymmetry_Pilot,2022.1.3,Win32,58.83391187,62c50e9c1127f2cd403a315f,,,,,,,,,,,,,,,,,,,,,,,,,,,,,,,,,,,,,,,,,,,,,,,,,,,,,,,,,,,,,,,,,,,,,,,,,,,,,,,,,,,,,,,,,,,,,,,,,,,,,,,,,,,,,,,,,,,,,,,,,,,,,,,,,,,,,,,,,,,,,,,,,,,,,,,,,,,,,,,,,,,
0,42,42,27,1,,5d5fac22e32d920001c82b53,62c53a09614ceb72cf758a92,2022-07-06_09h30.31.041,Colour_Asymmetry_Pilot,2022.1.3,Win32,58.83391187,62c50e9c1127f2cd403a315f,,,,,,,,,,,,,,,,,,,,,,,,,,,,,,,,,,,,,,,,,,,,,,,,,,,,,,,,,,,,,,,,,,,,,,,,,,,,,,,,,,,,,,,,,,,,,,,,,,,,,,,,,,,,,,,,,,,,,,,,,,,,,,,,,,,,,,,,,,,,,,,,,,,,,,,,,,,,,,,,,,,
0,43,43,31,1,,5d5fac22e32d920001c82b53,62c53a09614ceb72cf758a92,2022-07-06_09h30.31.041,Colour_Asymmetry_Pilot,2022.1.3,Win32,58.83391187,62c50e9c1127f2cd403a315f,,,,,,,,,,,,,,,,,,,,,,,,,,,,,,,,,,,,,,,,,,,,,,,,,,,,,,,,,,,,,,,,,,,,,,,,,,,,,,,,,,,,,,,,,,,,,,,,,,,,,,,,,,,,,,,,,,,,,,,,,,,,,,,,,,,,,,,,,,,,,,,,,,,,,,,,,,,,,,,,,,,
0,44,44,43,1,,5d5fac22e32d920001c82b53,62c53a09614ceb72cf758a92,2022-07-06_09h30.31.041,Colour_Asymmetry_Pilot,2022.1.3,Win32,58.83391187,62c50e9c1127f2cd403a315f,,,,,,,,,,,,,,,,,,,,,,,,,,,,,,,,,,,,,,,,,,,,,,,,,,,,,,,,,,,,,,,,,,,,,,,,,,,,,,,,,,,,,,,,,,,,,,,,,,,,,,,,,,,,,,,,,,,,,,,,,,,,,,,,,,,,,,,,,,,,,,,,,,,,,,,,,,,,,,,,,,,
0,45,45,3,1,,5d5fac22e32d920001c82b53,62c53a09614ceb72cf758a92,2022-07-06_09h30.31.041,Colour_Asymmetry_Pilot,2022.1.3,Win32,58.83391187,62c50e9c1127f2cd403a315f,,,,,,,,,,,,,,,,,,,,,,,,,,,,,,,,,,,,,,,,,,,,,,,,,,,,,,,,,,,,,,,,,,,,,,,,,,,,,,,,,,,,,,,,,,,,,,,,,,,,,,,,,,,,,,,,,,,,,,,,,,,,,,,,,,,,,,,,,,,,,,,,,,,,,,,,,,,,,,,,,,,
0,46,46,5,1,,5d5fac22e32d920001c82b53,62c53a09614ceb72cf758a92,2022-07-06_09h30.31.041,Colour_Asymmetry_Pilot,2022.1.3,Win32,58.83391187,62c50e9c1127f2cd403a315f,,,,,,,,,,,,,,,,,,,,,,,,,,,,,,,,,,,,,,,,,,,,,,,,,,,,,,,,,,,,,,,,,,,,,,,,,,,,,,,,,,,,,,,,,,,,,,,,,,,,,,,,,,,,,,,,,,,,,,,,,,,,,,,,,,,,,,,,,,,,,,,,,,,,,,,,,,,,,,,,,,,
0,47,47,4,1,,5d5fac22e32d920001c82b53,62c53a09614ceb72cf758a92,2022-07-06_09h30.31.041,Colour_Asymmetry_Pilot,2022.1.3,Win32,58.83391187,62c50e9c1127f2cd403a315f,,,,,,,,,,,,,,,,,,,,,,,,,,,,,,,,,,,,,,,,,,,,,,,,,,,,,,,,,,,,,,,,,,,,,,,,,,,,,,,,,,,,,,,,,,,,,,,,,,,,,,,,,,,,,,,,,,,,,,,,,,,,,,,,,,,,,,,,,,,,,,,,,,,,,,,,,,,,,,,,,,,
0,48,48,22,1,,5d5fac22e32d920001c82b53,62c53a09614ceb72cf758a92,2022-07-06_09h30.31.041,Colour_Asymmetry_Pilot,2022.1.3,Win32,58.83391187,62c50e9c1127f2cd403a315f,,,,,,,,,,,,,,,,,,,,,,,,,,,,,,,,,,,,,,,,,,,,,,,,,,,,,,,,,,,,,,,,,,,,,,,,,,,,,,,,,,,,,,,,,,,,,,,,,,,,,,,,,,,,,,,,,,,,,,,,,,,,,,,,,,,,,,,,,,,,,,,,,,,,,,,,,,,,,,,,,,,
0,49,49,56,1,,5d5fac22e32d920001c82b53,62c53a09614ceb72cf758a92,2022-07-06_09h30.31.041,Colour_Asymmetry_Pilot,2022.1.3,Win32,58.83391187,62c50e9c1127f2cd403a315f,,,,,,,,,,,,,,,,,,,,,,,,,,,,,,,,,,,,,,,,,,,,,,,,,,,,,,,,,,,,,,,,,,,,,,,,,,,,,,,,,,,,,,,,,,,,,,,,,,,,,,,,,,,,,,,,,,,,,,,,,,,,,,,,,,,,,,,,,,,,,,,,,,,,,,,,,,,,,,,,,,,
0,50,50,87,1,,5d5fac22e32d920001c82b53,62c53a09614ceb72cf758a92,2022-07-06_09h30.31.041,Colour_Asymmetry_Pilot,2022.1.3,Win32,58.83391187,62c50e9c1127f2cd403a315f,,,,,,,,,,,,,,,,,,,,,,,,,,,,,,,,,,,,,,,,,,,,,,,,,,,,,,,,,,,,,,,,,,,,,,,,,,,,,,,,,,,,,,,,,,,,,,,,,,,,,,,,,,,,,,,,,,,,,,,,,,,,,,,,,,,,,,,,,,,,,,,,,,,,,,,,,,,,,,,,,,,
0,51,51,82,1,,5d5fac22e32d920001c82b53,62c53a09614ceb72cf758a92,2022-07-06_09h30.31.041,Colour_Asymmetry_Pilot,2022.1.3,Win32,58.83391187,62c50e9c1127f2cd403a315f,,,,,,,,,,,,,,,,,,,,,,,,,,,,,,,,,,,,,,,,,,,,,,,,,,,,,,,,,,,,,,,,,,,,,,,,,,,,,,,,,,,,,,,,,,,,,,,,,,,,,,,,,,,,,,,,,,,,,,,,,,,,,,,,,,,,,,,,,,,,,,,,,,,,,,,,,,,,,,,,,,,
0,52,52,11,1,,5d5fac22e32d920001c82b53,62c53a09614ceb72cf758a92,2022-07-06_09h30.31.041,Colour_Asymmetry_Pilot,2022.1.3,Win32,58.83391187,62c50e9c1127f2cd403a315f,,,,,,,,,,,,,,,,,,,,,,,,,,,,,,,,,,,,,,,,,,,,,,,,,,,,,,,,,,,,,,,,,,,,,,,,,,,,,,,,,,,,,,,,,,,,,,,,,,,,,,,,,,,,,,,,,,,,,,,,,,,,,,,,,,,,,,,,,,,,,,,,,,,,,,,,,,,,,,,,,,,
0,53,53,26,1,,5d5fac22e32d920001c82b53,62c53a09614ceb72cf758a92,2022-07-06_09h30.31.041,Colour_Asymmetry_Pilot,2022.1.3,Win32,58.83391187,62c50e9c1127f2cd403a315f,,,,,,,,,,,,,,,,,,,,,,,,,,,,,,,,,,,,,,,,,,,,,,,,,,,,,,,,,,,,,,,,,,,,,,,,,,,,,,,,,,,,,,,,,,,,,,,,,,,,,,,,,,,,,,,,,,,,,,,,,,,,,,,,,,,,,,,,,,,,,,,,,,,,,,,,,,,,,,,,,,,
0,54,54,17,1,,5d5fac22e32d920001c82b53,62c53a09614ceb72cf758a92,2022-07-06_09h30.31.041,Colour_Asymmetry_Pilot,2022.1.3,Win32,58.83391187,62c50e9c1127f2cd403a315f,,,,,,,,,,,,,,,,,,,,,,,,,,,,,,,,,,,,,,,,,,,,,,,,,,,,,,,,,,,,,,,,,,,,,,,,,,,,,,,,,,,,,,,,,,,,,,,,,,,,,,,,,,,,,,,,,,,,,,,,,,,,,,,,,,,,,,,,,,,,,,,,,,,,,,,,,,,,,,,,,,,
0,55,55,55,1,,5d5fac22e32d920001c82b53,62c53a09614ceb72cf758a92,2022-07-06_09h30.31.041,Colour_Asymmetry_Pilot,2022.1.3,Win32,58.83391187,62c50e9c1127f2cd403a315f,,,,,,,,,,,,,,,,,,,,,,,,,,,,,,,,,,,,,,,,,,,,,,,,,,,,,,,,,,,,,,,,,,,,,,,,,,,,,,,,,,,,,,,,,,,,,,,,,,,,,,,,,,,,,,,,,,,,,,,,,,,,,,,,,,,,,,,,,,,,,,,,,,,,,,,,,,,,,,,,,,,
0,56,56,45,1,,5d5fac22e32d920001c82b53,62c53a09614ceb72cf758a92,2022-07-06_09h30.31.041,Colour_Asymmetry_Pilot,2022.1.3,Win32,58.83391187,62c50e9c1127f2cd403a315f,,,,,,,,,,,,,,,,,,,,,,,,,,,,,,,,,,,,,,,,,,,,,,,,,,,,,,,,,,,,,,,,,,,,,,,,,,,,,,,,,,,,,,,,,,,,,,,,,,,,,,,,,,,,,,,,,,,,,,,,,,,,,,,,,,,,,,,,,,,,,,,,,,,,,,,,,,,,,,,,,,,
0,57,57,16,1,,5d5fac22e32d920001c82b53,62c53a09614ceb72cf758a92,2022-07-06_09h30.31.041,Colour_Asymmetry_Pilot,2022.1.3,Win32,58.83391187,62c50e9c1127f2cd403a315f,,,,,,,,,,,,,,,,,,,,,,,,,,,,,,,,,,,,,,,,,,,,,,,,,,,,,,,,,,,,,,,,,,,,,,,,,,,,,,,,,,,,,,,,,,,,,,,,,,,,,,,,,,,,,,,,,,,,,,,,,,,,,,,,,,,,,,,,,,,,,,,,,,,,,,,,,,,,,,,,,,,
0,58,58,86,1,,5d5fac22e32d920001c82b53,62c53a09614ceb72cf758a92,2022-07-06_09h30.31.041,Colour_Asymmetry_Pilot,2022.1.3,Win32,58.83391187,62c50e9c1127f2cd403a315f,,,,,,,,,,,,,,,,,,,,,,,,,,,,,,,,,,,,,,,,,,,,,,,,,,,,,,,,,,,,,,,,,,,,,,,,,,,,,,,,,,,,,,,,,,,,,,,,,,,,,,,,,,,,,,,,,,,,,,,,,,,,,,,,,,,,,,,,,,,,,,,,,,,,,,,,,,,,,,,,,,,
0,59,59,0,1,,5d5fac22e32d920001c82b53,62c53a09614ceb72cf758a92,2022-07-06_09h30.31.041,Colour_Asymmetry_Pilot,2022.1.3,Win32,58.83391187,62c50e9c1127f2cd403a315f,,,,,,,,,,,,,,,,,,,,,,,,,,,,,,,,,,,,,,,,,,,,,,,,,,,,,,,,,,,,,,,,,,,,,,,,,,,,,,,,,,,,,,,,,,,,,,,,,,,,,,,,,,,,,,,,,,,,,,,,,,,,,,,,,,,,,,,,,,,,,,,,,,,,,,,,,,,,,,,,,,,
0,60,60,78,1,,5d5fac22e32d920001c82b53,62c53a09614ceb72cf758a92,2022-07-06_09h30.31.041,Colour_Asymmetry_Pilot,2022.1.3,Win32,58.83391187,62c50e9c1127f2cd403a315f,,,,,,,,,,,,,,,,,,,,,,,,,,,,,,,,,,,,,,,,,,,,,,,,,,,,,,,,,,,,,,,,,,,,,,,,,,,,,,,,,,,,,,,,,,,,,,,,,,,,,,,,,,,,,,,,,,,,,,,,,,,,,,,,,,,,,,,,,,,,,,,,,,,,,,,,,,,,,,,,,,,
0,61,61,23,1,,5d5fac22e32d920001c82b53,62c53a09614ceb72cf758a92,2022-07-06_09h30.31.041,Colour_Asymmetry_Pilot,2022.1.3,Win32,58.83391187,62c50e9c1127f2cd403a315f,,,,,,,,,,,,,,,,,,,,,,,,,,,,,,,,,,,,,,,,,,,,,,,,,,,,,,,,,,,,,,,,,,,,,,,,,,,,,,,,,,,,,,,,,,,,,,,,,,,,,,,,,,,,,,,,,,,,,,,,,,,,,,,,,,,,,,,,,,,,,,,,,,,,,,,,,,,,,,,,,,,
0,62,62,24,1,,5d5fac22e32d920001c82b53,62c53a09614ceb72cf758a92,2022-07-06_09h30.31.041,Colour_Asymmetry_Pilot,2022.1.3,Win32,58.83391187,62c50e9c1127f2cd403a315f,,,,,,,,,,,,,,,,,,,,,,,,,,,,,,,,,,,,,,,,,,,,,,,,,,,,,,,,,,,,,,,,,,,,,,,,,,,,,,,,,,,,,,,,,,,,,,,,,,,,,,,,,,,,,,,,,,,,,,,,,,,,,,,,,,,,,,,,,,,,,,,,,,,,,,,,,,,,,,,,,,,
0,63,63,13,1,,5d5fac22e32d920001c82b53,62c53a09614ceb72cf758a92,2022-07-06_09h30.31.041,Colour_Asymmetry_Pilot,2022.1.3,Win32,58.83391187,62c50e9c1127f2cd403a315f,,,,,,,,,,,,,,,,,,,,,,,,,,,,,,,,,,,,,,,,,,,,,,,,,,,,,,,,,,,,,,,,,,,,,,,,,,,,,,,,,,,,,,,,,,,,,,,,,,,,,,,,,,,,,,,,,,,,,,,,,,,,,,,,,,,,,,,,,,,,,,,,,,,,,,,,,,,,,,,,,,,
0,64,64,77,1,,5d5fac22e32d920001c82b53,62c53a09614ceb72cf758a92,2022-07-06_09h30.31.041,Colour_Asymmetry_Pilot,2022.1.3,Win32,58.83391187,62c50e9c1127f2cd403a315f,,,,,,,,,,,,,,,,,,,,,,,,,,,,,,,,,,,,,,,,,,,,,,,,,,,,,,,,,,,,,,,,,,,,,,,,,,,,,,,,,,,,,,,,,,,,,,,,,,,,,,,,,,,,,,,,,,,,,,,,,,,,,,,,,,,,,,,,,,,,,,,,,,,,,,,,,,,,,,,,,,,
0,65,65,18,1,,5d5fac22e32d920001c82b53,62c53a09614ceb72cf758a92,2022-07-06_09h30.31.041,Colour_Asymmetry_Pilot,2022.1.3,Win32,58.83391187,62c50e9c1127f2cd403a315f,,,,,,,,,,,,,,,,,,,,,,,,,,,,,,,,,,,,,,,,,,,,,,,,,,,,,,,,,,,,,,,,,,,,,,,,,,,,,,,,,,,,,,,,,,,,,,,,,,,,,,,,,,,,,,,,,,,,,,,,,,,,,,,,,,,,,,,,,,,,,,,,,,,,,,,,,,,,,,,,,,,
0,66,66,36,1,,5d5fac22e32d920001c82b53,62c53a09614ceb72cf758a92,2022-07-06_09h30.31.041,Colour_Asymmetry_Pilot,2022.1.3,Win32,58.83391187,62c50e9c1127f2cd403a315f,,,,,,,,,,,,,,,,,,,,,,,,,,,,,,,,,,,,,,,,,,,,,,,,,,,,,,,,,,,,,,,,,,,,,,,,,,,,,,,,,,,,,,,,,,,,,,,,,,,,,,,,,,,,,,,,,,,,,,,,,,,,,,,,,,,,,,,,,,,,,,,,,,,,,,,,,,,,,,,,,,,
0,67,67,46,1,,5d5fac22e32d920001c82b53,62c53a09614ceb72cf758a92,2022-07-06_09h30.31.041,Colour_Asymmetry_Pilot,2022.1.3,Win32,58.83391187,62c50e9c1127f2cd403a315f,,,,,,,,,,,,,,,,,,,,,,,,,,,,,,,,,,,,,,,,,,,,,,,,,,,,,,,,,,,,,,,,,,,,,,,,,,,,,,,,,,,,,,,,,,,,,,,,,,,,,,,,,,,,,,,,,,,,,,,,,,,,,,,,,,,,,,,,,,,,,,,,,,,,,,,,,,,,,,,,,,,
0,68,68,70,1,,5d5fac22e32d920001c82b53,62c53a09614ceb72cf758a92,2022-07-06_09h30.31.041,Colour_Asymmetry_Pilot,2022.1.3,Win32,58.83391187,62c50e9c1127f2cd403a315f,,,,,,,,,,,,,,,,,,,,,,,,,,,,,,,,,,,,,,,,,,,,,,,,,,,,,,,,,,,,,,,,,,,,,,,,,,,,,,,,,,,,,,,,,,,,,,,,,,,,,,,,,,,,,,,,,,,,,,,,,,,,,,,,,,,,,,,,,,,,,,,,,,,,,,,,,,,,,,,,,,,
0,69,69,49,1,,5d5fac22e32d920001c82b53,62c53a09614ceb72cf758a92,2022-07-06_09h30.31.041,Colour_Asymmetry_Pilot,2022.1.3,Win32,58.83391187,62c50e9c1127f2cd403a315f,,,,,,,,,,,,,,,,,,,,,,,,,,,,,,,,,,,,,,,,,,,,,,,,,,,,,,,,,,,,,,,,,,,,,,,,,,,,,,,,,,,,,,,,,,,,,,,,,,,,,,,,,,,,,,,,,,,,,,,,,,,,,,,,,,,,,,,,,,,,,,,,,,,,,,,,,,,,,,,,,,,
0,70,70,1,1,,5d5fac22e32d920001c82b53,62c53a09614ceb72cf758a92,2022-07-06_09h30.31.041,Colour_Asymmetry_Pilot,2022.1.3,Win32,58.83391187,62c50e9c1127f2cd403a315f,,,,,,,,,,,,,,,,,,,,,,,,,,,,,,,,,,,,,,,,,,,,,,,,,,,,,,,,,,,,,,,,,,,,,,,,,,,,,,,,,,,,,,,,,,,,,,,,,,,,,,,,,,,,,,,,,,,,,,,,,,,,,,,,,,,,,,,,,,,,,,,,,,,,,,,,,,,,,,,,,,,
0,71,71,65,1,,5d5fac22e32d920001c82b53,62c53a09614ceb72cf758a92,2022-07-06_09h30.31.041,Colour_Asymmetry_Pilot,2022.1.3,Win32,58.83391187,62c50e9c1127f2cd403a315f,,,,,,,,,,,,,,,,,,,,,,,,,,,,,,,,,,,,,,,,,,,,,,,,,,,,,,,,,,,,,,,,,,,,,,,,,,,,,,,,,,,,,,,,,,,,,,,,,,,,,,,,,,,,,,,,,,,,,,,,,,,,,,,,,,,,,,,,,,,,,,,,,,,,,,,,,,,,,,,,,,,
0,72,72,25,1,,5d5fac22e32d920001c82b53,62c53a09614ceb72cf758a92,2022-07-06_09h30.31.041,Colour_Asymmetry_Pilot,2022.1.3,Win32,58.83391187,62c50e9c1127f2cd403a315f,,,,,,,,,,,,,,,,,,,,,,,,,,,,,,,,,,,,,,,,,,,,,,,,,,,,,,,,,,,,,,,,,,,,,,,,,,,,,,,,,,,,,,,,,,,,,,,,,,,,,,,,,,,,,,,,,,,,,,,,,,,,,,,,,,,,,,,,,,,,,,,,,,,,,,,,,,,,,,,,,,,
0,73,73,10,1,,5d5fac22e32d920001c82b53,62c53a09614ceb72cf758a92,2022-07-06_09h30.31.041,Colour_Asymmetry_Pilot,2022.1.3,Win32,58.83391187,62c50e9c1127f2cd403a315f,,,,,,,,,,,,,,,,,,,,,,,,,,,,,,,,,,,,,,,,,,,,,,,,,,,,,,,,,,,,,,,,,,,,,,,,,,,,,,,,,,,,,,,,,,,,,,,,,,,,,,,,,,,,,,,,,,,,,,,,,,,,,,,,,,,,,,,,,,,,,,,,,,,,,,,,,,,,,,,,,,,
0,74,74,33,1,,5d5fac22e32d920001c82b53,62c53a09614ceb72cf758a92,2022-07-06_09h30.31.041,Colour_Asymmetry_Pilot,2022.1.3,Win32,58.83391187,62c50e9c1127f2cd403a315f,,,,,,,,,,,,,,,,,,,,,,,,,,,,,,,,,,,,,,,,,,,,,,,,,,,,,,,,,,,,,,,,,,,,,,,,,,,,,,,,,,,,,,,,,,,,,,,,,,,,,,,,,,,,,,,,,,,,,,,,,,,,,,,,,,,,,,,,,,,,,,,,,,,,,,,,,,,,,,,,,,,
0,75,75,64,1,,5d5fac22e32d920001c82b53,62c53a09614ceb72cf758a92,2022-07-06_09h30.31.041,Colour_Asymmetry_Pilot,2022.1.3,Win32,58.83391187,62c50e9c1127f2cd403a315f,,,,,,,,,,,,,,,,,,,,,,,,,,,,,,,,,,,,,,,,,,,,,,,,,,,,,,,,,,,,,,,,,,,,,,,,,,,,,,,,,,,,,,,,,,,,,,,,,,,,,,,,,,,,,,,,,,,,,,,,,,,,,,,,,,,,,,,,,,,,,,,,,,,,,,,,,,,,,,,,,,,
0,76,76,21,1,,5d5fac22e32d920001c82b53,62c53a09614ceb72cf758a92,2022-07-06_09h30.31.041,Colour_Asymmetry_Pilot,2022.1.3,Win32,58.83391187,62c50e9c1127f2cd403a315f,,,,,,,,,,,,,,,,,,,,,,,,,,,,,,,,,,,,,,,,,,,,,,,,,,,,,,,,,,,,,,,,,,,,,,,,,,,,,,,,,,,,,,,,,,,,,,,,,,,,,,,,,,,,,,,,,,,,,,,,,,,,,,,,,,,,,,,,,,,,,,,,,,,,,,,,,,,,,,,,,,,
0,77,77,34,1,,5d5fac22e32d920001c82b53,62c53a09614ceb72cf758a92,2022-07-06_09h30.31.041,Colour_Asymmetry_Pilot,2022.1.3,Win32,58.83391187,62c50e9c1127f2cd403a315f,,,,,,,,,,,,,,,,,,,,,,,,,,,,,,,,,,,,,,,,,,,,,,,,,,,,,,,,,,,,,,,,,,,,,,,,,,,,,,,,,,,,,,,,,,,,,,,,,,,,,,,,,,,,,,,,,,,,,,,,,,,,,,,,,,,,,,,,,,,,,,,,,,,,,,,,,,,,,,,,,,,
0,78,78,7,1,,5d5fac22e32d920001c82b53,62c53a09614ceb72cf758a92,2022-07-06_09h30.31.041,Colour_Asymmetry_Pilot,2022.1.3,Win32,58.83391187,62c50e9c1127f2cd403a315f,,,,,,,,,,,,,,,,,,,,,,,,,,,,,,,,,,,,,,,,,,,,,,,,,,,,,,,,,,,,,,,,,,,,,,,,,,,,,,,,,,,,,,,,,,,,,,,,,,,,,,,,,,,,,,,,,,,,,,,,,,,,,,,,,,,,,,,,,,,,,,,,,,,,,,,,,,,,,,,,,,,
0,79,79,2,1,,5d5fac22e32d920001c82b53,62c53a09614ceb72cf758a92,2022-07-06_09h30.31.041,Colour_Asymmetry_Pilot,2022.1.3,Win32,58.83391187,62c50e9c1127f2cd403a315f,,,,,,,,,,,,,,,,,,,,,,,,,,,,,,,,,,,,,,,,,,,,,,,,,,,,,,,,,,,,,,,,,,,,,,,,,,,,,,,,,,,,,,,,,,,,,,,,,,,,,,,,,,,,,,,,,,,,,,,,,,,,,,,,,,,,,,,,,,,,,,,,,,,,,,,,,,,,,,,,,,,
0,80,80,91,1,,5d5fac22e32d920001c82b53,62c53a09614ceb72cf758a92,2022-07-06_09h30.31.041,Colour_Asymmetry_Pilot,2022.1.3,Win32,58.83391187,62c50e9c1127f2cd403a315f,,,,,,,,,,,,,,,,,,,,,,,,,,,,,,,,,,,,,,,,,,,,,,,,,,,,,,,,,,,,,,,,,,,,,,,,,,,,,,,,,,,,,,,,,,,,,,,,,,,,,,,,,,,,,,,,,,,,,,,,,,,,,,,,,,,,,,,,,,,,,,,,,,,,,,,,,,,,,,,,,,,
0,81,81,51,1,,5d5fac22e32d920001c82b53,62c53a09614ceb72cf758a92,2022-07-06_09h30.31.041,Colour_Asymmetry_Pilot,2022.1.3,Win32,58.83391187,62c50e9c1127f2cd403a315f,,,,,,,,,,,,,,,,,,,,,,,,,,,,,,,,,,,,,,,,,,,,,,,,,,,,,,,,,,,,,,,,,,,,,,,,,,,,,,,,,,,,,,,,,,,,,,,,,,,,,,,,,,,,,,,,,,,,,,,,,,,,,,,,,,,,,,,,,,,,,,,,,,,,,,,,,,,,,,,,,,,
0,82,82,74,1,,5d5fac22e32d920001c82b53,62c53a09614ceb72cf758a92,2022-07-06_09h30.31.041,Colour_Asymmetry_Pilot,2022.1.3,Win32,58.83391187,62c50e9c1127f2cd403a315f,,,,,,,,,,,,,,,,,,,,,,,,,,,,,,,,,,,,,,,,,,,,,,,,,,,,,,,,,,,,,,,,,,,,,,,,,,,,,,,,,,,,,,,,,,,,,,,,,,,,,,,,,,,,,,,,,,,,,,,,,,,,,,,,,,,,,,,,,,,,,,,,,,,,,,,,,,,,,,,,,,,
0,83,83,47,1,,5d5fac22e32d920001c82b53,62c53a09614ceb72cf758a92,2022-07-06_09h30.31.041,Colour_Asymmetry_Pilot,2022.1.3,Win32,58.83391187,62c50e9c1127f2cd403a315f,,,,,,,,,,,,,,,,,,,,,,,,,,,,,,,,,,,,,,,,,,,,,,,,,,,,,,,,,,,,,,,,,,,,,,,,,,,,,,,,,,,,,,,,,,,,,,,,,,,,,,,,,,,,,,,,,,,,,,,,,,,,,,,,,,,,,,,,,,,,,,,,,,,,,,,,,,,,,,,,,,,
0,84,84,75,1,,5d5fac22e32d920001c82b53,62c53a09614ceb72cf758a92,2022-07-06_09h30.31.041,Colour_Asymmetry_Pilot,2022.1.3,Win32,58.83391187,62c50e9c1127f2cd403a315f,,,,,,,,,,,,,,,,,,,,,,,,,,,,,,,,,,,,,,,,,,,,,,,,,,,,,,,,,,,,,,,,,,,,,,,,,,,,,,,,,,,,,,,,,,,,,,,,,,,,,,,,,,,,,,,,,,,,,,,,,,,,,,,,,,,,,,,,,,,,,,,,,,,,,,,,,,,,,,,,,,,
0,85,85,44,1,,5d5fac22e32d920001c82b53,62c53a09614ceb72cf758a92,2022-07-06_09h30.31.041,Colour_Asymmetry_Pilot,2022.1.3,Win32,58.83391187,62c50e9c1127f2cd403a315f,,,,,,,,,,,,,,,,,,,,,,,,,,,,,,,,,,,,,,,,,,,,,,,,,,,,,,,,,,,,,,,,,,,,,,,,,,,,,,,,,,,,,,,,,,,,,,,,,,,,,,,,,,,,,,,,,,,,,,,,,,,,,,,,,,,,,,,,,,,,,,,,,,,,,,,,,,,,,,,,,,,
0,86,86,29,1,,5d5fac22e32d920001c82b53,62c53a09614ceb72cf758a92,2022-07-06_09h30.31.041,Colour_Asymmetry_Pilot,2022.1.3,Win32,58.83391187,62c50e9c1127f2cd403a315f,,,,,,,,,,,,,,,,,,,,,,,,,,,,,,,,,,,,,,,,,,,,,,,,,,,,,,,,,,,,,,,,,,,,,,,,,,,,,,,,,,,,,,,,,,,,,,,,,,,,,,,,,,,,,,,,,,,,,,,,,,,,,,,,,,,,,,,,,,,,,,,,,,,,,,,,,,,,,,,,,,,
0,87,87,39,1,,5d5fac22e32d920001c82b53,62c53a09614ceb72cf758a92,2022-07-06_09h30.31.041,Colour_Asymmetry_Pilot,2022.1.3,Win32,58.83391187,62c50e9c1127f2cd403a315f,,,,,,,,,,,,,,,,,,,,,,,,,,,,,,,,,,,,,,,,,,,,,,,,,,,,,,,,,,,,,,,,,,,,,,,,,,,,,,,,,,,,,,,,,,,,,,,,,,,,,,,,,,,,,,,,,,,,,,,,,,,,,,,,,,,,,,,,,,,,,,,,,,,,,,,,,,,,,,,,,,,
0,88,88,69,1,,5d5fac22e32d920001c82b53,62c53a09614ceb72cf758a92,2022-07-06_09h30.31.041,Colour_Asymmetry_Pilot,2022.1.3,Win32,58.83391187,62c50e9c1127f2cd403a315f,,,,,,,,,,,,,,,,,,,,,,,,,,,,,,,,,,,,,,,,,,,,,,,,,,,,,,,,,,,,,,,,,,,,,,,,,,,,,,,,,,,,,,,,,,,,,,,,,,,,,,,,,,,,,,,,,,,,,,,,,,,,,,,,,,,,,,,,,,,,,,,,,,,,,,,,,,,,,,,,,,,
0,89,89,41,1,,5d5fac22e32d920001c82b53,62c53a09614ceb72cf758a92,2022-07-06_09h30.31.041,Colour_Asymmetry_Pilot,2022.1.3,Win32,58.83391187,62c50e9c1127f2cd403a315f,,,,,,,,,,,,,,,,,,,,,,,,,,,,,,,,,,,,,,,,,,,,,,,,,,,,,,,,,,,,,,,,,,,,,,,,,,,,,,,,,,,,,,,,,,,,,,,,,,,,,,,,,,,,,,,,,,,,,,,,,,,,,,,,,,,,,,,,,,,,,,,,,,,,,,,,,,,,,,,,,,,
0,90,90,68,1,,5d5fac22e32d920001c82b53,62c53a09614ceb72cf758a92,2022-07-06_09h30.31.041,Colour_Asymmetry_Pilot,2022.1.3,Win32,58.83391187,62c50e9c1127f2cd403a315f,,,,,,,,,,,,,,,,,,,,,,,,,,,,,,,,,,,,,,,,,,,,,,,,,,,,,,,,,,,,,,,,,,,,,,,,,,,,,,,,,,,,,,,,,,,,,,,,,,,,,,,,,,,,,,,,,,,,,,,,,,,,,,,,,,,,,,,,,,,,,,,,,,,,,,,,,,,,,,,,,,,
0,91,91,90,1,,5d5fac22e32d920001c82b53,62c53a09614ceb72cf758a92,2022-07-06_09h30.31.041,Colour_Asymmetry_Pilot,2022.1.3,Win32,58.83391187,62c50e9c1127f2cd403a315f,,,,,,,,,,,,,,,,,,,,,,,,,,,,,,,,,,,,,,,,,,,,,,,,,,,,,,,,,,,,,,,,,,,,,,,,,,,,,,,,,,,,,,,,,,,,,,,,,,,,,,,,,,,,,,,,,,,,,,,,,,,,,,,,,,,,,,,,,,,,,,,,,,,,,,,,,,,,,,,,,,,
0,92,92,71,1,,5d5fac22e32d920001c82b53,62c53a09614ceb72cf758a92,2022-07-06_09h30.31.041,Colour_Asymmetry_Pilot,2022.1.3,Win32,58.83391187,62c50e9c1127f2cd403a315f,,,,,,,,,,,,,,,,,,,,,,,,,,,,,,,,,,,,,,,,,,,,,,,,,,,,,,,,,,,,,,,,,,,,,,,,,,,,,,,,,,,,,,,,,,,,,,,,,,,,,,,,,,,,,,,,,,,,,,,,,,,,,,,,,,,,,,,,,,,,,,,,,,,,,,,,,,,,,,,,,,,
,,,,,,5d5fac22e32d920001c82b53,62c53a09614ceb72cf758a92,2022-07-06_09h30.31.041,Colour_Asymmetry_Pilot,2022.1.3,Win32,58.83391187,62c50e9c1127f2cd403a315f,0,0,0,30,1,fourtwo,,,,,,,,,,,,,,,,,,,,,,,,,,,,,,,,,,,,,,,,,,,,,,,,,,,,,,,,,,,,,,,,,,,,,,,,,,,,,,,,,,,,,,,,,,,,,,,,,,,,,,,,,,,,,,,,,,,,,,,,,,,,,,,,,,,,,,,,,,,,,,,,,,,,,,,,,,,,,
,,,,,,5d5fac22e32d920001c82b53,62c53a09614ceb72cf758a92,2022-07-06_09h30.31.041,Colour_Asymmetry_Pilot,2022.1.3,Win32,58.83391187,62c50e9c1127f2cd403a315f,0,1,1,23,1,fourthree,,,,,,,,,,,,,,,,,,,,,,,,,,,,,,,,,,,,,,,,,,,,,,,,,,,,,,,,,,,,,,,,,,,,,,,,,,,,,,,,,,,,,,,,,,,,,,,,,,,,,,,,,,,,,,,,,,,,,,,,,,,,,,,,,,,,,,,,,,,,,,,,,,,,,,,,,,,,,
,,,,,,5d5fac22e32d920001c82b53,62c53a09614ceb72cf758a92,2022-07-06_09h30.31.041,Colour_Asymmetry_Pilot,2022.1.3,Win32,58.83391187,62c50e9c1127f2cd403a315f,0,2,2,153,1,onethree,,,,,,,,,,,,,,,,,,,,,,,,,,,,,,,,,,,,,,,,,,,,,,,,,,,,,,,,,,,,,,,,,,,,,,,,,,,,,,,,,,,,,,,,,,,,,,,,,,,,,,,,,,,,,,,,,,,,,,,,,,,,,,,,,,,,,,,,,,,,,,,,,,,,,,,,,,,,,
,,,,,,5d5fac22e32d920001c82b53,62c53a09614ceb72cf758a92,2022-07-06_09h30.31.041,Colour_Asymmetry_Pilot,2022.1.3,Win32,58.83391187,62c50e9c1127f2cd403a315f,0,3,3,65,1,onethree,,,,,,,,,,,,,,,,,,,,,,,,,,,,,,,,,,,,,,,,,,,,,,,,,,,,,,,,,,,,,,,,,,,,,,,,,,,,,,,,,,,,,,,,,,,,,,,,,,,,,,,,,,,,,,,,,,,,,,,,,,,,,,,,,,,,,,,,,,,,,,,,,,,,,,,,,,,,,
,,,,,,5d5fac22e32d920001c82b53,62c53a09614ceb72cf758a92,2022-07-06_09h30.31.041,Colour_Asymmetry_Pilot,2022.1.3,Win32,58.83391187,62c50e9c1127f2cd403a315f,0,4,4,20,1,threeone,,,,,,,,,,,,,,,,,,,,,,,,,,,,,,,,,,,,,,,,,,,,,,,,,,,,,,,,,,,,,,,,,,,,,,,,,,,,,,,,,,,,,,,,,,,,,,,,,,,,,,,,,,,,,,,,,,,,,,,,,,,,,,,,,,,,,,,,,,,,,,,,,,,,,,,,,,,,,
,,,,,,5d5fac22e32d920001c82b53,62c53a09614ceb72cf758a92,2022-07-06_09h30.31.041,Colour_Asymmetry_Pilot,2022.1.3,Win32,58.83391187,62c50e9c1127f2cd403a315f,0,5,5,107,1,twofour,,,,,,,,,,,,,,,,,,,,,,,,,,,,,,,,,,,,,,,,,,,,,,,,,,,,,,,,,,,,,,,,,,,,,,,,,,,,,,,,,,,,,,,,,,,,,,,,,,,,,,,,,,,,,,,,,,,,,,,,,,,,,,,,,,,,,,,,,,,,,,,,,,,,,,,,,,,,,
,,,,,,5d5fac22e32d920001c82b53,62c53a09614ceb72cf758a92,2022-07-06_09h30.31.041,Colour_Asymmetry_Pilot,2022.1.3,Win32,58.83391187,62c50e9c1127f2cd403a315f,0,6,6,8,1,onetwo,,,,,,,,,,,,,,,,,,,,,,,,,,,,,,,,,,,,,,,,,,,,,,,,,,,,,,,,,,,,,,,,,,,,,,,,,,,,,,,,,,,,,,,,,,,,,,,,,,,,,,,,,,,,,,,,,,,,,,,,,,,,,,,,,,,,,,,,,,,,,,,,,,,,,,,,,,,,,
,,,,,,5d5fac22e32d920001c82b53,62c53a09614ceb72cf758a92,2022-07-06_09h30.31.041,Colour_Asymmetry_Pilot,2022.1.3,Win32,58.83391187,62c50e9c1127f2cd403a315f,0,7,7,27,1,twofour,,,,,,,,,,,,,,,,,,,,,,,,,,,,,,,,,,,,,,,,,,,,,,,,,,,,,,,,,,,,,,,,,,,,,,,,,,,,,,,,,,,,,,,,,,,,,,,,,,,,,,,,,,,,,,,,,,,,,,,,,,,,,,,,,,,,,,,,,,,,,,,,,,,,,,,,,,,,,
,,,,,,5d5fac22e32d920001c82b53,62c53a09614ceb72cf758a92,2022-07-06_09h30.31.041,Colour_Asymmetry_Pilot,2022.1.3,Win32,58.83391187,62c50e9c1127f2cd403a315f,0,8,8,118,1,fourtwo,,,,,,,,,,,,,,,,,,,,,,,,,,,,,,,,,,,,,,,,,,,,,,,,,,,,,,,,,,,,,,,,,,,,,,,,,,,,,,,,,,,,,,,,,,,,,,,,,,,,,,,,,,,,,,,,,,,,,,,,,,,,,,,,,,,,,,,,,,,,,,,,,,,,,,,,,,,,,
,,,,,,5d5fac22e32d920001c82b53,62c53a09614ceb72cf758a92,2022-07-06_09h30.31.041,Colour_Asymmetry_Pilot,2022.1.3,Win32,58.83391187,62c50e9c1127f2cd403a315f,0,9,9,97,1,onethree,,,,,,,,,,,,,,,,,,,,,,,,,,,,,,,,,,,,,,,,,,,,,,,,,,,,,,,,,,,,,,,,,,,,,,,,,,,,,,,,,,,,,,,,,,,,,,,,,,,,,,,,,,,,,,,,,,,,,,,,,,,,,,,,,,,,,,,,,,,,,,,,,,,,,,,,,,,,,
,,,,,,5d5fac22e32d920001c82b53,62c53a09614ceb72cf758a92,2022-07-06_09h30.31.041,Colour_Asymmetry_Pilot,2022.1.3,Win32,58.83391187,62c50e9c1127f2cd403a315f,0,10,10,123,1,twofour,,,,,,,,,,,,,,,,,,,,,,,,,,,,,,,,,,,,,,,,,,,,,,,,,,,,,,,,,,,,,,,,,,,,,,,,,,,,,,,,,,,,,,,,,,,,,,,,,,,,,,,,,,,,,,,,,,,,,,,,,,,,,,,,,,,,,,,,,,,,,,,,,,,,,,,,,,,,,
,,,,,,5d5fac22e32d920001c82b53,62c53a09614ceb72cf758a92,2022-07-06_09h30.31.041,Colour_Asymmetry_Pilot,2022.1.3,Win32,58.83391187,62c50e9c1127f2cd403a315f,0,11,11,135,1,fourthree,,,,,,,,,,,,,,,,,,,,,,,,,,,,,,,,,,,,,,,,,,,,,,,,,,,,,,,,,,,,,,,,,,,,,,,,,,,,,,,,,,,,,,,,,,,,,,,,,,,,,,,,,,,,,,,,,,,,,,,,,,,,,,,,,,,,,,,,,,,,,,,,,,,,,,,,,,,,,
,,,,,,5d5fac22e32d920001c82b53,62c53a09614ceb72cf758a92,2022-07-06_09h30.31.041,Colour_Asymmetry_Pilot,2022.1.3,Win32,58.83391187,62c50e9c1127f2cd403a315f,0,12,12,53,1,threefour,,,,,,,,,,,,,,,,,,,,,,,,,,,,,,,,,,,,,,,,,,,,,,,,,,,,,,,,,,,,,,,,,,,,,,,,,,,,,,,,,,,,,,,,,,,,,,,,,,,,,,,,,,,,,,,,,,,,,,,,,,,,,,,,,,,,,,,,,,,,,,,,,,,,,,,,,,,,,
,,,,,,5d5fac22e32d920001c82b53,62c53a09614ceb72cf758a92,2022-07-06_09h30.31.041,Colour_Asymmetry_Pilot,2022.1.3,Win32,58.83391187,62c50e9c1127f2cd403a315f,0,13,13,113,1,onethree,,,,,,,,,,,,,,,,,,,,,,,,,,,,,,,,,,,,,,,,,,,,,,,,,,,,,,,,,,,,,,,,,,,,,,,,,,,,,,,,,,,,,,,,,,,,,,,,,,,,,,,,,,,,,,,,,,,,,,,,,,,,,,,,,,,,,,,,,,,,,,,,,,,,,,,,,,,,,
,,,,,,5d5fac22e32d920001c82b53,62c53a09614ceb72cf758a92,2022-07-06_09h30.31.041,Colour_Asymmetry_Pilot,2022.1.3,Win32,58.83391187,62c50e9c1127f2cd403a315f,0,14,14,99,1,twofour,,,,,,,,,,,,,,,,,,,,,,,,,,,,,,,,,,,,,,,,,,,,,,,,,,,,,,,,,,,,,,,,,,,,,,,,,,,,,,,,,,,,,,,,,,,,,,,,,,,,,,,,,,,,,,,,,,,,,,,,,,,,,,,,,,,,,,,,,,,,,,,,,,,,,,,,,,,,,
,,,,,,5d5fac22e32d920001c82b53,62c53a09614ceb72cf758a92,2022-07-06_09h30.31.041,Colour_Asymmetry_Pilot,2022.1.3,Win32,58.83391187,62c50e9c1127f2cd403a315f,0,15,15,114,1,twoone,,,,,,,,,,,,,,,,,,,,,,,,,,,,,,,,,,,,,,,,,,,,,,,,,,,,,,,,,,,,,,,,,,,,,,,,,,,,,,,,,,,,,,,,,,,,,,,,,,,,,,,,,,,,,,,,,,,,,,,,,,,,,,,,,,,,,,,,,,,,,,,,,,,,,,,,,,,,,
,,,,,,5d5fac22e32d920001c82b53,62c53a09614ceb72cf758a92,2022-07-06_09h30.31.041,Colour_Asymmetry_Pilot,2022.1.3,Win32,58.83391187,62c50e9c1127f2cd403a315f,0,16,16,24,1,onetwo,,,,,,,,,,,,,,,,,,,,,,,,,,,,,,,,,,,,,,,,,,,,,,,,,,,,,,,,,,,,,,,,,,,,,,,,,,,,,,,,,,,,,,,,,,,,,,,,,,,,,,,,,,,,,,,,,,,,,,,,,,,,,,,,,,,,,,,,,,,,,,,,,,,,,,,,,,,,,
,,,,,,5d5fac22e32d920001c82b53,62c53a09614ceb72cf758a92,2022-07-06_09h30.31.041,Colour_Asymmetry_Pilot,2022.1.3,Win32,58.83391187,62c50e9c1127f2cd403a315f,0,17,17,150,1,fourtwo,,,,,,,,,,,,,,,,,,,,,,,,,,,,,,,,,,,,,,,,,,,,,,,,,,,,,,,,,,,,,,,,,,,,,,,,,,,,,,,,,,,,,,,,,,,,,,,,,,,,,,,,,,,,,,,,,,,,,,,,,,,,,,,,,,,,,,,,,,,,,,,,,,,,,,,,,,,,,
,,,,,,5d5fac22e32d920001c82b53,62c53a09614ceb72cf758a92,2022-07-06_09h30.31.041,Colour_Asymmetry_Pilot,2022.1.3,Win32,58.83391187,62c50e9c1127f2cd403a315f,0,18,18,50,1,twoone,,,,,,,,,,,,,,,,,,,,,,,,,,,,,,,,,,,,,,,,,,,,,,,,,,,,,,,,,,,,,,,,,,,,,,,,,,,,,,,,,,,,,,,,,,,,,,,,,,,,,,,,,,,,,,,,,,,,,,,,,,,,,,,,,,,,,,,,,,,,,,,,,,,,,,,,,,,,,
,,,,,,5d5fac22e32d920001c82b53,62c53a09614ceb72cf758a92,2022-07-06_09h30.31.041,Colour_Asymmetry_Pilot,2022.1.3,Win32,58.83391187,62c50e9c1127f2cd403a315f,0,19,19,119,1,fourthree,,,,,,,,,,,,,,,,,,,,,,,,,,,,,,,,,,,,,,,,,,,,,,,,,,,,,,,,,,,,,,,,,,,,,,,,,,,,,,,,,,,,,,,,,,,,,,,,,,,,,,,,,,,,,,,,,,,,,,,,,,,,,,,,,,,,,,,,,,,,,,,,,,,,,,,,,,,,,
,,,,,,5d5fac22e32d920001c82b53,62c53a09614ceb72cf758a92,2022-07-06_09h30.31.041,Colour_Asymmetry_Pilot,2022.1.3,Win32,58.83391187,62c50e9c1127f2cd403a315f,0,20,20,92,1,threeone,,,,,,,,,,,,,,,,,,,,,,,,,,,,,,,,,,,,,,,,,,,,,,,,,,,,,,,,,,,,,,,,,,,,,,,,,,,,,,,,,,,,,,,,,,,,,,,,,,,,,,,,,,,,,,,,,,,,,,,,,,,,,,,,,,,,,,,,,,,,,,,,,,,,,,,,,,,,,
,,,,,,5d5fac22e32d920001c82b53,62c53a09614ceb72cf758a92,2022-07-06_09h30.31.041,Colour_Asymmetry_Pilot,2022.1.3,Win32,58.83391187,62c50e9c1127f2cd403a315f,0,21,21,33,1,onethree,,,,,,,,,,,,,,,,,,,,,,,,,,,,,,,,,,,,,,,,,,,,,,,,,,,,,,,,,,,,,,,,,,,,,,,,,,,,,,,,,,,,,,,,,,,,,,,,,,,,,,,,,,,,,,,,,,,,,,,,,,,,,,,,,,,,,,,,,,,,,,,,,,,,,,,,,,,,,
,,,,,,5d5fac22e32d920001c82b53,62c53a09614ceb72cf758a92,2022-07-06_09h30.31.041,Colour_Asymmetry_Pilot,2022.1.3,Win32,58.83391187,62c50e9c1127f2cd403a315f,0,22,22,147,1,twofour,,,,,,,,,,,,,,,,,,,,,,,,,,,,,,,,,,,,,,,,,,,,,,,,,,,,,,,,,,,,,,,,,,,,,,,,,,,,,,,,,,,,,,,,,,,,,,,,,,,,,,,,,,,,,,,,,,,,,,,,,,,,,,,,,,,,,,,,,,,,,,,,,,,,,,,,,,,,,
,,,,,,5d5fac22e32d920001c82b53,62c53a09614ceb72cf758a92,2022-07-06_09h30.31.041,Colour_Asymmetry_Pilot,2022.1.3,Win32,58.83391187,62c50e9c1127f2cd403a315f,0,23,23,28,1,threeone,,,,,,,,,,,,,,,,,,,,,,,,,,,,,,,,,,,,,,,,,,,,,,,,,,,,,,,,,,,,,,,,,,,,,,,,,,,,,,,,,,,,,,,,,,,,,,,,,,,,,,,,,,,,,,,,,,,,,,,,,,,,,,,,,,,,,,,,,,,,,,,,,,,,,,,,,,,,,
,,,,,,5d5fac22e32d920001c82b53,62c53a09614ceb72cf758a92,2022-07-06_09h30.31.041,Colour_Asymmetry_Pilot,2022.1.3,Win32,58.83391187,62c50e9c1127f2cd403a315f,0,24,24,151,1,fourthree,,,,,,,,,,,,,,,,,,,,,,,,,,,,,,,,,,,,,,,,,,,,,,,,,,,,,,,,,,,,,,,,,,,,,,,,,,,,,,,,,,,,,,,,,,,,,,,,,,,,,,,,,,,,,,,,,,,,,,,,,,,,,,,,,,,,,,,,,,,,,,,,,,,,,,,,,,,,,
,,,,,,5d5fac22e32d920001c82b53,62c53a09614ceb72cf758a92,2022-07-06_09h30.31.041,Colour_Asymmetry_Pilot,2022.1.3,Win32,58.83391187,62c50e9c1127f2cd403a315f,0,25,25,130,1,twoone,,,,,,,,,,,,,,,,,,,,,,,,,,,,,,,,,,,,,,,,,,,,,,,,,,,,,,,,,,,,,,,,,,,,,,,,,,,,,,,,,,,,,,,,,,,,,,,,,,,,,,,,,,,,,,,,,,,,,,,,,,,,,,,,,,,,,,,,,,,,,,,,,,,,,,,,,,,,,
,,,,,,5d5fac22e32d920001c82b53,62c53a09614ceb72cf758a92,2022-07-06_09h30.31.041,Colour_Asymmetry_Pilot,2022.1.3,Win32,58.83391187,62c50e9c1127f2cd403a315f,0,26,26,17,1,onethree,,,,,,,,,,,,,,,,,,,,,,,,,,,,,,,,,,,,,,,,,,,,,,,,,,,,,,,,,,,,,,,,,,,,,,,,,,,,,,,,,,,,,,,,,,,,,,,,,,,,,,,,,,,,,,,,,,,,,,,,,,,,,,,,,,,,,,,,,,,,,,,,,,,,,,,,,,,,,
,,,,,,5d5fac22e32d920001c82b53,62c53a09614ceb72cf758a92,2022-07-06_09h30.31.041,Colour_Asymmetry_Pilot,2022.1.3,Win32,58.83391187,62c50e9c1127f2cd403a315f,0,27,27,70,1,fourtwo,,,,,,,,,,,,,,,,,,,,,,,,,,,,,,,,,,,,,,,,,,,,,,,,,,,,,,,,,,,,,,,,,,,,,,,,,,,,,,,,,,,,,,,,,,,,,,,,,,,,,,,,,,,,,,,,,,,,,,,,,,,,,,,,,,,,,,,,,,,,,,,,,,,,,,,,,,,,,
,,,,,,5d5fac22e32d920001c82b53,62c53a09614ceb72cf758a92,2022-07-06_09h30.31.041,Colour_Asymmetry_Pilot,2022.1.3,Win32,58.83391187,62c50e9c1127f2cd403a315f,0,28,28,161,1,onethree,,,,,,,,,,,,,,,,,,,,,,,,,,,,,,,,,,,,,,,,,,,,,,,,,,,,,,,,,,,,,,,,,,,,,,,,,,,,,,,,,,,,,,,,,,,,,,,,,,,,,,,,,,,,,,,,,,,,,,,,,,,,,,,,,,,,,,,,,,,,,,,,,,,,,,,,,,,,,
,,,,,,5d5fac22e32d920001c82b53,62c53a09614ceb72cf758a92,2022-07-06_09h30.31.041,Colour_Asymmetry_Pilot,2022.1.3,Win32,58.83391187,62c50e9c1127f2cd403a315f,0,29,29,32,1,onetwo,,,,,,,,,,,,,,,,,,,,,,,,,,,,,,,,,,,,,,,,,,,,,,,,,,,,,,,,,,,,,,,,,,,,,,,,,,,,,,,,,,,,,,,,,,,,,,,,,,,,,,,,,,,,,,,,,,,,,,,,,,,,,,,,,,,,,,,,,,,,,,,,,,,,,,,,,,,,,
,,,,,,5d5fac22e32d920001c82b53,62c53a09614ceb72cf758a92,2022-07-06_09h30.31.041,Colour_Asymmetry_Pilot,2022.1.3,Win32,58.83391187,62c50e9c1127f2cd403a315f,0,30,30,49,1,onethree,,,,,,,,,,,,,,,,,,,,,,,,,,,,,,,,,,,,,,,,,,,,,,,,,,,,,,,,,,,,,,,,,,,,,,,,,,,,,,,,,,,,,,,,,,,,,,,,,,,,,,,,,,,,,,,,,,,,,,,,,,,,,,,,,,,,,,,,,,,,,,,,,,,,,,,,,,,,,
,,,,,,5d5fac22e32d920001c82b53,62c53a09614ceb72cf758a92,2022-07-06_09h30.31.041,Colour_Asymmetry_Pilot,2022.1.3,Win32,58.83391187,62c50e9c1127f2cd403a315f,0,31,31,11,1,twofour,,,,,,,,,,,,,,,,,,,,,,,,,,,,,,,,,,,,,,,,,,,,,,,,,,,,,,,,,,,,,,,,,,,,,,,,,,,,,,,,,,,,,,,,,,,,,,,,,,,,,,,,,,,,,,,,,,,,,,,,,,,,,,,,,,,,,,,,,,,,,,,,,,,,,,,,,,,,,
,,,,,,5d5fac22e32d920001c82b53,62c53a09614ceb72cf758a92,2022-07-06_09h30.31.041,Colour_Asymmetry_Pilot,2022.1.3,Win32,58.83391187,62c50e9c1127f2cd403a315f,0,32,32,14,1,fourtwo,,,,,,,,,,,,,,,,,,,,,,,,,,,,,,,,,,,,,,,,,,,,,,,,,,,,,,,,,,,,,,,,,,,,,,,,,,,,,,,,,,,,,,,,,,,,,,,,,,,,,,,,,,,,,,,,,,,,,,,,,,,,,,,,,,,,,,,,,,,,,,,,,,,,,,,,,,,,,
,,,,,,5d5fac22e32d920001c82b53,62c53a09614ceb72cf758a92,2022-07-06_09h30.31.041,Colour_Asymmetry_Pilot,2022.1.3,Win32,58.83391187,62c50e9c1127f2cd403a315f,0,33,33,91,1,twofour,,,,,,,,,,,,,,,,,,,,,,,,,,,,,,,,,,,,,,,,,,,,,,,,,,,,,,,,,,,,,,,,,,,,,,,,,,,,,,,,,,,,,,,,,,,,,,,,,,,,,,,,,,,,,,,,,,,,,,,,,,,,,,,,,,,,,,,,,,,,,,,,,,,,,,,,,,,,,
,,,,,,5d5fac22e32d920001c82b53,62c53a09614ceb72cf758a92,2022-07-06_09h30.31.041,Colour_Asymmetry_Pilot,2022.1.3,Win32,58.83391187,62c50e9c1127f2cd403a315f,0,34,34,59,1,twofour,,,,,,,,,,,,,,,,,,,,,,,,,,,,,,,,,,,,,,,,,,,,,,,,,,,,,,,,,,,,,,,,,,,,,,,,,,,,,,,,,,,,,,,,,,,,,,,,,,,,,,,,,,,,,,,,,,,,,,,,,,,,,,,,,,,,,,,,,,,,,,,,,,,,,,,,,,,,,
,,,,,,5d5fac22e32d920001c82b53,62c53a09614ceb72cf758a92,2022-07-06_09h30.31.041,Colour_Asymmetry_Pilot,2022.1.3,Win32,58.83391187,62c50e9c1127f2cd403a315f,0,35,35,128,1,onetwo,,,,,,,,,,,,,,,,,,,,,,,,,,,,,,,,,,,,,,,,,,,,,,,,,,,,,,,,,,,,,,,,,,,,,,,,,,,,,,,,,,,,,,,,,,,,,,,,,,,,,,,,,,,,,,,,,,,,,,,,,,,,,,,,,,,,,,,,,,,,,,,,,,,,,,,,,,,,,
,,,,,,5d5fac22e32d920001c82b53,62c53a09614ceb72cf758a92,2022-07-06_09h30.31.041,Colour_Asymmetry_Pilot,2022.1.3,Win32,58.83391187,62c50e9c1127f2cd403a315f,0,36,36,125,1,threefour,,,,,,,,,,,,,,,,,,,,,,,,,,,,,,,,,,,,,,,,,,,,,,,,,,,,,,,,,,,,,,,,,,,,,,,,,,,,,,,,,,,,,,,,,,,,,,,,,,,,,,,,,,,,,,,,,,,,,,,,,,,,,,,,,,,,,,,,,,,,,,,,,,,,,,,,,,,,,
,,,,,,5d5fac22e32d920001c82b53,62c53a09614ceb72cf758a92,2022-07-06_09h30.31.041,Colour_Asymmetry_Pilot,2022.1.3,Win32,58.83391187,62c50e9c1127f2cd403a315f,0,37,37,75,1,twofour,,,,,,,,,,,,,,,,,,,,,,,,,,,,,,,,,,,,,,,,,,,,,,,,,,,,,,,,,,,,,,,,,,,,,,,,,,,,,,,,,,,,,,,,,,,,,,,,,,,,,,,,,,,,,,,,,,,,,,,,,,,,,,,,,,,,,,,,,,,,,,,,,,,,,,,,,,,,,
,,,,,,5d5fac22e32d920001c82b53,62c53a09614ceb72cf758a92,2022-07-06_09h30.31.041,Colour_Asymmetry_Pilot,2022.1.3,Win32,58.83391187,62c50e9c1127f2cd403a315f,0,38,38,67,1,twofour,,,,,,,,,,,,,,,,,,,,,,,,,,,,,,,,,,,,,,,,,,,,,,,,,,,,,,,,,,,,,,,,,,,,,,,,,,,,,,,,,,,,,,,,,,,,,,,,,,,,,,,,,,,,,,,,,,,,,,,,,,,,,,,,,,,,,,,,,,,,,,,,,,,,,,,,,,,,,
,,,,,,5d5fac22e32d920001c82b53,62c53a09614ceb72cf758a92,2022-07-06_09h30.31.041,Colour_Asymmetry_Pilot,2022.1.3,Win32,58.83391187,62c50e9c1127f2cd403a315f,0,39,39,71,1,fourthree,,,,,,,,,,,,,,,,,,,,,,,,,,,,,,,,,,,,,,,,,,,,,,,,,,,,,,,,,,,,,,,,,,,,,,,,,,,,,,,,,,,,,,,,,,,,,,,,,,,,,,,,,,,,,,,,,,,,,,,,,,,,,,,,,,,,,,,,,,,,,,,,,,,,,,,,,,,,,
,,,,,,5d5fac22e32d920001c82b53,62c53a09614ceb72cf758a92,2022-07-06_09h30.31.041,Colour_Asymmetry_Pilot,2022.1.3,Win32,58.83391187,62c50e9c1127f2cd403a315f,0,40,40,37,1,threefour,,,,,,,,,,,,,,,,,,,,,,,,,,,,,,,,,,,,,,,,,,,,,,,,,,,,,,,,,,,,,,,,,,,,,,,,,,,,,,,,,,,,,,,,,,,,,,,,,,,,,,,,,,,,,,,,,,,,,,,,,,,,,,,,,,,,,,,,,,,,,,,,,,,,,,,,,,,,,
,,,,,,5d5fac22e32d920001c82b53,62c53a09614ceb72cf758a92,2022-07-06_09h30.31.041,Colour_Asymmetry_Pilot,2022.1.3,Win32,58.83391187,62c50e9c1127f2cd403a315f,0,41,41,144,1,onetwo,,,,,,,,,,,,,,,,,,,,,,,,,,,,,,,,,,,,,,,,,,,,,,,,,,,,,,,,,,,,,,,,,,,,,,,,,,,,,,,,,,,,,,,,,,,,,,,,,,,,,,,,,,,,,,,,,,,,,,,,,,,,,,,,,,,,,,,,,,,,,,,,,,,,,,,,,,,,,
,,,,,,5d5fac22e32d920001c82b53,62c53a09614ceb72cf758a92,2022-07-06_09h30.31.041,Colour_Asymmetry_Pilot,2022.1.3,Win32,58.83391187,62c50e9c1127f2cd403a315f,0,42,42,31,1,fourthree,,,,,,,,,,,,,,,,,,,,,,,,,,,,,,,,,,,,,,,,,,,,,,,,,,,,,,,,,,,,,,,,,,,,,,,,,,,,,,,,,,,,,,,,,,,,,,,,,,,,,,,,,,,,,,,,,,,,,,,,,,,,,,,,,,,,,,,,,,,,,,,,,,,,,,,,,,,,,
,,,,,,5d5fac22e32d920001c82b53,62c53a09614ceb72cf758a92,2022-07-06_09h30.31.041,Colour_Asymmetry_Pilot,2022.1.3,Win32,58.83391187,62c50e9c1127f2cd403a315f,0,43,43,133,1,threefour,,,,,,,,,,,,,,,,,,,,,,,,,,,,,,,,,,,,,,,,,,,,,,,,,,,,,,,,,,,,,,,,,,,,,,,,,,,,,,,,,,,,,,,,,,,,,,,,,,,,,,,,,,,,,,,,,,,,,,,,,,,,,,,,,,,,,,,,,,,,,,,,,,,,,,,,,,,,,
,,,,,,5d5fac22e32d920001c82b53,62c53a09614ceb72cf758a92,2022-07-06_09h30.31.041,Colour_Asymmetry_Pilot,2022.1.3,Win32,58.83391187,62c50e9c1127f2cd403a315f,0,44,44,112,1,onetwo,,,,,,,,,,,,,,,,,,,,,,,,,,,,,,,,,,,,,,,,,,,,,,,,,,,,,,,,,,,,,,,,,,,,,,,,,,,,,,,,,,,,,,,,,,,,,,,,,,,,,,,,,,,,,,,,,,,,,,,,,,,,,,,,,,,,,,,,,,,,,,,,,,,,,,,,,,,,,
,,,,,,5d5fac22e32d920001c82b53,62c53a09614ceb72cf758a92,2022-07-06_09h30.31.041,Colour_Asymmetry_Pilot,2022.1.3,Win32,58.83391187,62c50e9c1127f2cd403a315f,0,45,45,5,1,threefour,,,,,,,,,,,,,,,,,,,,,,,,,,,,,,,,,,,,,,,,,,,,,,,,,,,,,,,,,,,,,,,,,,,,,,,,,,,,,,,,,,,,,,,,,,,,,,,,,,,,,,,,,,,,,,,,,,,,,,,,,,,,,,,,,,,,,,,,,,,,,,,,,,,,,,,,,,,,,
,,,,,,5d5fac22e32d920001c82b53,62c53a09614ceb72cf758a92,2022-07-06_09h30.31.041,Colour_Asymmetry_Pilot,2022.1.3,Win32,58.83391187,62c50e9c1127f2cd403a315f,0,46,46,58,1,twoone,,,,,,,,,,,,,,,,,,,,,,,,,,,,,,,,,,,,,,,,,,,,,,,,,,,,,,,,,,,,,,,,,,,,,,,,,,,,,,,,,,,,,,,,,,,,,,,,,,,,,,,,,,,,,,,,,,,,,,,,,,,,,,,,,,,,,,,,,,,,,,,,,,,,,,,,,,,,,
,,,,,,5d5fac22e32d920001c82b53,62c53a09614ceb72cf758a92,2022-07-06_09h30.31.041,Colour_Asymmetry_Pilot,2022.1.3,Win32,58.83391187,62c50e9c1127f2cd403a315f,0,47,47,156,1,threeone,,,,,,,,,,,,,,,,,,,,,,,,,,,,,,,,,,,,,,,,,,,,,,,,,,,,,,,,,,,,,,,,,,,,,,,,,,,,,,,,,,,,,,,,,,,,,,,,,,,,,,,,,,,,,,,,,,,,,,,,,,,,,,,,,,,,,,,,,,,,,,,,,,,,,,,,,,,,,
,,,,,,5d5fac22e32d920001c82b53,62c53a09614ceb72cf758a92,2022-07-06_09h30.31.041,Colour_Asymmetry_Pilot,2022.1.3,Win32,58.83391187,62c50e9c1127f2cd403a315f,0,48,48,87,1,fourthree,,,,,,,,,,,,,,,,,,,,,,,,,,,,,,,,,,,,,,,,,,,,,,,,,,,,,,,,,,,,,,,,,,,,,,,,,,,,,,,,,,,,,,,,,,,,,,,,,,,,,,,,,,,,,,,,,,,,,,,,,,,,,,,,,,,,,,,,,,,,,,,,,,,,,,,,,,,,,
,,,,,,5d5fac22e32d920001c82b53,62c53a09614ceb72cf758a92,2022-07-06_09h30.31.041,Colour_Asymmetry_Pilot,2022.1.3,Win32,58.83391187,62c50e9c1127f2cd403a315f,0,49,49,137,1,onethree,,,,,,,,,,,,,,,,,,,,,,,,,,,,,,,,,,,,,,,,,,,,,,,,,,,,,,,,,,,,,,,,,,,,,,,,,,,,,,,,,,,,,,,,,,,,,,,,,,,,,,,,,,,,,,,,,,,,,,,,,,,,,,,,,,,,,,,,,,,,,,,,,,,,,,,,,,,,,
,,,,,,5d5fac22e32d920001c82b53,62c53a09614ceb72cf758a92,2022-07-06_09h30.31.041,Colour_Asymmetry_Pilot,2022.1.3,Win32,58.83391187,62c50e9c1127f2cd403a315f,0,50,50,25,1,onethree,,,,,,,,,,,,,,,,,,,,,,,,,,,,,,,,,,,,,,,,,,,,,,,,,,,,,,,,,,,,,,,,,,,,,,,,,,,,,,,,,,,,,,,,,,,,,,,,,,,,,,,,,,,,,,,,,,,,,,,,,,,,,,,,,,,,,,,,,,,,,,,,,,,,,,,,,,,,,
,,,,,,5d5fac22e32d920001c82b53,62c53a09614ceb72cf758a92,2022-07-06_09h30.31.041,Colour_Asymmetry_Pilot,2022.1.3,Win32,58.83391187,62c50e9c1127f2cd403a315f,0,51,51,157,1,threefour,,,,,,,,,,,,,,,,,,,,,,,,,,,,,,,,,,,,,,,,,,,,,,,,,,,,,,,,,,,,,,,,,,,,,,,,,,,,,,,,,,,,,,,,,,,,,,,,,,,,,,,,,,,,,,,,,,,,,,,,,,,,,,,,,,,,,,,,,,,,,,,,,,,,,,,,,,,,,
,,,,,,5d5fac22e32d920001c82b53,62c53a09614ceb72cf758a92,2022-07-06_09h30.31.041,Colour_Asymmetry_Pilot,2022.1.3,Win32,58.83391187,62c50e9c1127f2cd403a315f,0,52,52,160,1,onetwo,,,,,,,,,,,,,,,,,,,,,,,,,,,,,,,,,,,,,,,,,,,,,,,,,,,,,,,,,,,,,,,,,,,,,,,,,,,,,,,,,,,,,,,,,,,,,,,,,,,,,,,,,,,,,,,,,,,,,,,,,,,,,,,,,,,,,,,,,,,,,,,,,,,,,,,,,,,,,
,,,,,,5d5fac22e32d920001c82b53,62c53a09614ceb72cf758a92,2022-07-06_09h30.31.041,Colour_Asymmetry_Pilot,2022.1.3,Win32,58.83391187,62c50e9c1127f2cd403a315f,0,53,53,86,1,fourtwo,,,,,,,,,,,,,,,,,,,,,,,,,,,,,,,,,,,,,,,,,,,,,,,,,,,,,,,,,,,,,,,,,,,,,,,,,,,,,,,,,,,,,,,,,,,,,,,,,,,,,,,,,,,,,,,,,,,,,,,,,,,,,,,,,,,,,,,,,,,,,,,,,,,,,,,,,,,,,
,,,,,,5d5fac22e32d920001c82b53,62c53a09614ceb72cf758a92,2022-07-06_09h30.31.041,Colour_Asymmetry_Pilot,2022.1.3,Win32,58.83391187,62c50e9c1127f2cd403a315f,0,54,54,126,1,fourtwo,,,,,,,,,,,,,,,,,,,,,,,,,,,,,,,,,,,,,,,,,,,,,,,,,,,,,,,,,,,,,,,,,,,,,,,,,,,,,,,,,,,,,,,,,,,,,,,,,,,,,,,,,,,,,,,,,,,,,,,,,,,,,,,,,,,,,,,,,,,,,,,,,,,,,,,,,,,,,
,,,,,,5d5fac22e32d920001c82b53,62c53a09614ceb72cf758a92,2022-07-06_09h30.31.041,Colour_Asymmetry_Pilot,2022.1.3,Win32,58.83391187,62c50e9c1127f2cd403a315f,0,55,55,83,1,twofour,,,,,,,,,,,,,,,,,,,,,,,,,,,,,,,,,,,,,,,,,,,,,,,,,,,,,,,,,,,,,,,,,,,,,,,,,,,,,,,,,,,,,,,,,,,,,,,,,,,,,,,,,,,,,,,,,,,,,,,,,,,,,,,,,,,,,,,,,,,,,,,,,,,,,,,,,,,,,
,,,,,,5d5fac22e32d920001c82b53,62c53a09614ceb72cf758a92,2022-07-06_09h30.31.041,Colour_Asymmetry_Pilot,2022.1.3,Win32,58.83391187,62c50e9c1127f2cd403a315f,0,56,56,60,1,threeone,,,,,,,,,,,,,,,,,,,,,,,,,,,,,,,,,,,,,,,,,,,,,,,,,,,,,,,,,,,,,,,,,,,,,,,,,,,,,,,,,,,,,,,,,,,,,,,,,,,,,,,,,,,,,,,,,,,,,,,,,,,,,,,,,,,,,,,,,,,,,,,,,,,,,,,,,,,,,
,,,,,,5d5fac22e32d920001c82b53,62c53a09614ceb72cf758a92,2022-07-06_09h30.31.041,Colour_Asymmetry_Pilot,2022.1.3,Win32,58.83391187,62c50e9c1127f2cd403a315f,0,57,57,78,1,fourtwo,,,,,,,,,,,,,,,,,,,,,,,,,,,,,,,,,,,,,,,,,,,,,,,,,,,,,,,,,,,,,,,,,,,,,,,,,,,,,,,,,,,,,,,,,,,,,,,,,,,,,,,,,,,,,,,,,,,,,,,,,,,,,,,,,,,,,,,,,,,,,,,,,,,,,,,,,,,,,
,,,,,,5d5fac22e32d920001c82b53,62c53a09614ceb72cf758a92,2022-07-06_09h30.31.041,Colour_Asymmetry_Pilot,2022.1.3,Win32,58.83391187,62c50e9c1127f2cd403a315f,0,58,58,124,1,threeone,,,,,,,,,,,,,,,,,,,,,,,,,,,,,,,,,,,,,,,,,,,,,,,,,,,,,,,,,,,,,,,,,,,,,,,,,,,,,,,,,,,,,,,,,,,,,,,,,,,,,,,,,,,,,,,,,,,,,,,,,,,,,,,,,,,,,,,,,,,,,,,,,,,,,,,,,,,,,
,,,,,,5d5fac22e32d920001c82b53,62c53a09614ceb72cf758a92,2022-07-06_09h30.31.041,Colour_Asymmetry_Pilot,2022.1.3,Win32,58.83391187,62c50e9c1127f2cd403a315f,0,59,59,105,1,onethree,,,,,,,,,,,,,,,,,,,,,,,,,,,,,,,,,,,,,,,,,,,,,,,,,,,,,,,,,,,,,,,,,,,,,,,,,,,,,,,,,,,,,,,,,,,,,,,,,,,,,,,,,,,,,,,,,,,,,,,,,,,,,,,,,,,,,,,,,,,,,,,,,,,,,,,,,,,,,
,,,,,,5d5fac22e32d920001c82b53,62c53a09614ceb72cf758a92,2022-07-06_09h30.31.041,Colour_Asymmetry_Pilot,2022.1.3,Win32,58.83391187,62c50e9c1127f2cd403a315f,0,60,60,43,1,twofour,,,,,,,,,,,,,,,,,,,,,,,,,,,,,,,,,,,,,,,,,,,,,,,,,,,,,,,,,,,,,,,,,,,,,,,,,,,,,,,,,,,,,,,,,,,,,,,,,,,,,,,,,,,,,,,,,,,,,,,,,,,,,,,,,,,,,,,,,,,,,,,,,,,,,,,,,,,,,
,,,,,,5d5fac22e32d920001c82b53,62c53a09614ceb72cf758a92,2022-07-06_09h30.31.041,Colour_Asymmetry_Pilot,2022.1.3,Win32,58.83391187,62c50e9c1127f2cd403a315f,0,61,61,62,1,fourtwo,,,,,,,,,,,,,,,,,,,,,,,,,,,,,,,,,,,,,,,,,,,,,,,,,,,,,,,,,,,,,,,,,,,,,,,,,,,,,,,,,,,,,,,,,,,,,,,,,,,,,,,,,,,,,,,,,,,,,,,,,,,,,,,,,,,,,,,,,,,,,,,,,,,,,,,,,,,,,
,,,,,,5d5fac22e32d920001c82b53,62c53a09614ceb72cf758a92,2022-07-06_09h30.31.041,Colour_Asymmetry_Pilot,2022.1.3,Win32,58.83391187,62c50e9c1127f2cd403a315f,0,62,62,102,1,fourtwo,,,,,,,,,,,,,,,,,,,,,,,,,,,,,,,,,,,,,,,,,,,,,,,,,,,,,,,,,,,,,,,,,,,,,,,,,,,,,,,,,,,,,,,,,,,,,,,,,,,,,,,,,,,,,,,,,,,,,,,,,,,,,,,,,,,,,,,,,,,,,,,,,,,,,,,,,,,,,
,,,,,,5d5fac22e32d920001c82b53,62c53a09614ceb72cf758a92,2022-07-06_09h30.31.041,Colour_Asymmetry_Pilot,2022.1.3,Win32,58.83391187,62c50e9c1127f2cd403a315f,0,63,63,46,1,fourtwo,,,,,,,,,,,,,,,,,,,,,,,,,,,,,,,,,,,,,,,,,,,,,,,,,,,,,,,,,,,,,,,,,,,,,,,,,,,,,,,,,,,,,,,,,,,,,,,,,,,,,,,,,,,,,,,,,,,,,,,,,,,,,,,,,,,,,,,,,,,,,,,,,,,,,,,,,,,,,
,,,,,,5d5fac22e32d920001c82b53,62c53a09614ceb72cf758a92,2022-07-06_09h30.31.041,Colour_Asymmetry_Pilot,2022.1.3,Win32,58.83391187,62c50e9c1127f2cd403a315f,0,64,64,41,1,onethree,,,,,,,,,,,,,,,,,,,,,,,,,,,,,,,,,,,,,,,,,,,,,,,,,,,,,,,,,,,,,,,,,,,,,,,,,,,,,,,,,,,,,,,,,,,,,,,,,,,,,,,,,,,,,,,,,,,,,,,,,,,,,,,,,,,,,,,,,,,,,,,,,,,,,,,,,,,,,
,,,,,,5d5fac22e32d920001c82b53,62c53a09614ceb72cf758a92,2022-07-06_09h30.31.041,Colour_Asymmetry_Pilot,2022.1.3,Win32,58.83391187,62c50e9c1127f2cd403a315f,0,65,65,98,1,twoone,,,,,,,,,,,,,,,,,,,,,,,,,,,,,,,,,,,,,,,,,,,,,,,,,,,,,,,,,,,,,,,,,,,,,,,,,,,,,,,,,,,,,,,,,,,,,,,,,,,,,,,,,,,,,,,,,,,,,,,,,,,,,,,,,,,,,,,,,,,,,,,,,,,,,,,,,,,,,
,,,,,,5d5fac22e32d920001c82b53,62c53a09614ceb72cf758a92,2022-07-06_09h30.31.041,Colour_Asymmetry_Pilot,2022.1.3,Win32,58.83391187,62c50e9c1127f2cd403a315f,0,66,66,110,1,fourtwo,,,,,,,,,,,,,,,,,,,,,,,,,,,,,,,,,,,,,,,,,,,,,,,,,,,,,,,,,,,,,,,,,,,,,,,,,,,,,,,,,,,,,,,,,,,,,,,,,,,,,,,,,,,,,,,,,,,,,,,,,,,,,,,,,,,,,,,,,,,,,,,,,,,,,,,,,,,,,
,,,,,,5d5fac22e32d920001c82b53,62c53a09614ceb72cf758a92,2022-07-06_09h30.31.041,Colour_Asymmetry_Pilot,2022.1.3,Win32,58.83391187,62c50e9c1127f2cd403a315f,0,67,67,69,1,threefour,,,,,,,,,,,,,,,,,,,,,,,,,,,,,,,,,,,,,,,,,,,,,,,,,,,,,,,,,,,,,,,,,,,,,,,,,,,,,,,,,,,,,,,,,,,,,,,,,,,,,,,,,,,,,,,,,,,,,,,,,,,,,,,,,,,,,,,,,,,,,,,,,,,,,,,,,,,,,
,,,,,,5d5fac22e32d920001c82b53,62c53a09614ceb72cf758a92,2022-07-06_09h30.31.041,Colour_Asymmetry_Pilot,2022.1.3,Win32,58.83391187,62c50e9c1127f2cd403a315f,0,68,68,148,1,threeone,,,,,,,,,,,,,,,,,,,,,,,,,,,,,,,,,,,,,,,,,,,,,,,,,,,,,,,,,,,,,,,,,,,,,,,,,,,,,,,,,,,,,,,,,,,,,,,,,,,,,,,,,,,,,,,,,,,,,,,,,,,,,,,,,,,,,,,,,,,,,,,,,,,,,,,,,,,,,
,,,,,,5d5fac22e32d920001c82b53,62c53a09614ceb72cf758a92,2022-07-06_09h30.31.041,Colour_Asymmetry_Pilot,2022.1.3,Win32,58.83391187,62c50e9c1127f2cd403a315f,0,69,69,10,1,twoone,,,,,,,,,,,,,,,,,,,,,,,,,,,,,,,,,,,,,,,,,,,,,,,,,,,,,,,,,,,,,,,,,,,,,,,,,,,,,,,,,,,,,,,,,,,,,,,,,,,,,,,,,,,,,,,,,,,,,,,,,,,,,,,,,,,,,,,,,,,,,,,,,,,,,,,,,,,,,
,,,,,,5d5fac22e32d920001c82b53,62c53a09614ceb72cf758a92,2022-07-06_09h30.31.041,Colour_Asymmetry_Pilot,2022.1.3,Win32,58.83391187,62c50e9c1127f2cd403a315f,0,70,70,131,1,twofour,,,,,,,,,,,,,,,,,,,,,,,,,,,,,,,,,,,,,,,,,,,,,,,,,,,,,,,,,,,,,,,,,,,,,,,,,,,,,,,,,,,,,,,,,,,,,,,,,,,,,,,,,,,,,,,,,,,,,,,,,,,,,,,,,,,,,,,,,,,,,,,,,,,,,,,,,,,,,
,,,,,,5d5fac22e32d920001c82b53,62c53a09614ceb72cf758a92,2022-07-06_09h30.31.041,Colour_Asymmetry_Pilot,2022.1.3,Win32,58.83391187,62c50e9c1127f2cd403a315f,0,71,71,21,1,threefour,,,,,,,,,,,,,,,,,,,,,,,,,,,,,,,,,,,,,,,,,,,,,,,,,,,,,,,,,,,,,,,,,,,,,,,,,,,,,,,,,,,,,,,,,,,,,,,,,,,,,,,,,,,,,,,,,,,,,,,,,,,,,,,,,,,,,,,,,,,,,,,,,,,,,,,,,,,,,
,,,,,,5d5fac22e32d920001c82b53,62c53a09614ceb72cf758a92,2022-07-06_09h30.31.041,Colour_Asymmetry_Pilot,2022.1.3,Win32,58.83391187,62c50e9c1127f2cd403a315f,0,72,72,117,1,threefour,,,,,,,,,,,,,,,,,,,,,,,,,,,,,,,,,,,,,,,,,,,,,,,,,,,,,,,,,,,,,,,,,,,,,,,,,,,,,,,,,,,,,,,,,,,,,,,,,,,,,,,,,,,,,,,,,,,,,,,,,,,,,,,,,,,,,,,,,,,,,,,,,,,,,,,,,,,,,
,,,,,,5d5fac22e32d920001c82b53,62c53a09614ceb72cf758a92,2022-07-06_09h30.31.041,Colour_Asymmetry_Pilot,2022.1.3,Win32,58.83391187,62c50e9c1127f2cd403a315f,0,73,73,154,1,twoone,,,,,,,,,,,,,,,,,,,,,,,,,,,,,,,,,,,,,,,,,,,,,,,,,,,,,,,,,,,,,,,,,,,,,,,,,,,,,,,,,,,,,,,,,,,,,,,,,,,,,,,,,,,,,,,,,,,,,,,,,,,,,,,,,,,,,,,,,,,,,,,,,,,,,,,,,,,,,
,,,,,,5d5fac22e32d920001c82b53,62c53a09614ceb72cf758a92,2022-07-06_09h30.31.041,Colour_Asymmetry_Pilot,2022.1.3,Win32,58.83391187,62c50e9c1127f2cd403a315f,0,74,74,159,1,fourthree,,,,,,,,,,,,,,,,,,,,,,,,,,,,,,,,,,,,,,,,,,,,,,,,,,,,,,,,,,,,,,,,,,,,,,,,,,,,,,,,,,,,,,,,,,,,,,,,,,,,,,,,,,,,,,,,,,,,,,,,,,,,,,,,,,,,,,,,,,,,,,,,,,,,,,,,,,,,,
,,,,,,5d5fac22e32d920001c82b53,62c53a09614ceb72cf758a92,2022-07-06_09h30.31.041,Colour_Asymmetry_Pilot,2022.1.3,Win32,58.83391187,62c50e9c1127f2cd403a315f,0,75,75,89,1,onethree,,,,,,,,,,,,,,,,,,,,,,,,,,,,,,,,,,,,,,,,,,,,,,,,,,,,,,,,,,,,,,,,,,,,,,,,,,,,,,,,,,,,,,,,,,,,,,,,,,,,,,,,,,,,,,,,,,,,,,,,,,,,,,,,,,,,,,,,,,,,,,,,,,,,,,,,,,,,,
,,,,,,5d5fac22e32d920001c82b53,62c53a09614ceb72cf758a92,2022-07-06_09h30.31.041,Colour_Asymmetry_Pilot,2022.1.3,Win32,58.83391187,62c50e9c1127f2cd403a315f,0,76,76,116,1,threeone,,,,,,,,,,,,,,,,,,,,,,,,,,,,,,,,,,,,,,,,,,,,,,,,,,,,,,,,,,,,,,,,,,,,,,,,,,,,,,,,,,,,,,,,,,,,,,,,,,,,,,,,,,,,,,,,,,,,,,,,,,,,,,,,,,,,,,,,,,,,,,,,,,,,,,,,,,,,,
,,,,,,5d5fac22e32d920001c82b53,62c53a09614ceb72cf758a92,2022-07-06_09h30.31.041,Colour_Asymmetry_Pilot,2022.1.3,Win32,58.83391187,62c50e9c1127f2cd403a315f,0,77,77,9,1,onethree,,,,,,,,,,,,,,,,,,,,,,,,,,,,,,,,,,,,,,,,,,,,,,,,,,,,,,,,,,,,,,,,,,,,,,,,,,,,,,,,,,,,,,,,,,,,,,,,,,,,,,,,,,,,,,,,,,,,,,,,,,,,,,,,,,,,,,,,,,,,,,,,,,,,,,,,,,,,,
,,,,,,5d5fac22e32d920001c82b53,62c53a09614ceb72cf758a92,2022-07-06_09h30.31.041,Colour_Asymmetry_Pilot,2022.1.3,Win32,58.83391187,62c50e9c1127f2cd403a315f,0,78,78,139,1,twofour,,,,,,,,,,,,,,,,,,,,,,,,,,,,,,,,,,,,,,,,,,,,,,,,,,,,,,,,,,,,,,,,,,,,,,,,,,,,,,,,,,,,,,,,,,,,,,,,,,,,,,,,,,,,,,,,,,,,,,,,,,,,,,,,,,,,,,,,,,,,,,,,,,,,,,,,,,,,,
,,,,,,5d5fac22e32d920001c82b53,62c53a09614ceb72cf758a92,2022-07-06_09h30.31.041,Colour_Asymmetry_Pilot,2022.1.3,Win32,58.83391187,62c50e9c1127f2cd403a315f,0,79,79,127,1,fourthree,,,,,,,,,,,,,,,,,,,,,,,,,,,,,,,,,,,,,,,,,,,,,,,,,,,,,,,,,,,,,,,,,,,,,,,,,,,,,,,,,,,,,,,,,,,,,,,,,,,,,,,,,,,,,,,,,,,,,,,,,,,,,,,,,,,,,,,,,,,,,,,,,,,,,,,,,,,,,
,,,,,,5d5fac22e32d920001c82b53,62c53a09614ceb72cf758a92,2022-07-06_09h30.31.041,Colour_Asymmetry_Pilot,2022.1.3,Win32,58.83391187,62c50e9c1127f2cd403a315f,0,80,80,16,1,onetwo,,,,,,,,,,,,,,,,,,,,,,,,,,,,,,,,,,,,,,,,,,,,,,,,,,,,,,,,,,,,,,,,,,,,,,,,,,,,,,,,,,,,,,,,,,,,,,,,,,,,,,,,,,,,,,,,,,,,,,,,,,,,,,,,,,,,,,,,,,,,,,,,,,,,,,,,,,,,,
,,,,,,5d5fac22e32d920001c82b53,62c53a09614ceb72cf758a92,2022-07-06_09h30.31.041,Colour_Asymmetry_Pilot,2022.1.3,Win32,58.83391187,62c50e9c1127f2cd403a315f,0,81,81,93,1,threefour,,,,,,,,,,,,,,,,,,,,,,,,,,,,,,,,,,,,,,,,,,,,,,,,,,,,,,,,,,,,,,,,,,,,,,,,,,,,,,,,,,,,,,,,,,,,,,,,,,,,,,,,,,,,,,,,,,,,,,,,,,,,,,,,,,,,,,,,,,,,,,,,,,,,,,,,,,,,,
,,,,,,5d5fac22e32d920001c82b53,62c53a09614ceb72cf758a92,2022-07-06_09h30.31.041,Colour_Asymmetry_Pilot,2022.1.3,Win32,58.83391187,62c50e9c1127f2cd403a315f,0,82,82,109,1,threefour,,,,,,,,,,,,,,,,,,,,,,,,,,,,,,,,,,,,,,,,,,,,,,,,,,,,,,,,,,,,,,,,,,,,,,,,,,,,,,,,,,,,,,,,,,,,,,,,,,,,,,,,,,,,,,,,,,,,,,,,,,,,,,,,,,,,,,,,,,,,,,,,,,,,,,,,,,,,,
,,,,,,5d5fac22e32d920001c82b53,62c53a09614ceb72cf758a92,2022-07-06_09h30.31.041,Colour_Asymmetry_Pilot,2022.1.3,Win32,58.83391187,62c50e9c1127f2cd403a315f,0,83,83,47,1,fourthree,,,,,,,,,,,,,,,,,,,,,,,,,,,,,,,,,,,,,,,,,,,,,,,,,,,,,,,,,,,,,,,,,,,,,,,,,,,,,,,,,,,,,,,,,,,,,,,,,,,,,,,,,,,,,,,,,,,,,,,,,,,,,,,,,,,,,,,,,,,,,,,,,,,,,,,,,,,,,
,,,,,,5d5fac22e32d920001c82b53,62c53a09614ceb72cf758a92,2022-07-06_09h30.31.041,Colour_Asymmetry_Pilot,2022.1.3,Win32,58.83391187,62c50e9c1127f2cd403a315f,0,84,84,1,1,onethree,,,,,,,,,,,,,,,,,,,,,,,,,,,,,,,,,,,,,,,,,,,,,,,,,,,,,,,,,,,,,,,,,,,,,,,,,,,,,,,,,,,,,,,,,,,,,,,,,,,,,,,,,,,,,,,,,,,,,,,,,,,,,,,,,,,,,,,,,,,,,,,,,,,,,,,,,,,,,
,,,,,,5d5fac22e32d920001c82b53,62c53a09614ceb72cf758a92,2022-07-06_09h30.31.041,Colour_Asymmetry_Pilot,2022.1.3,Win32,58.83391187,62c50e9c1127f2cd403a315f,0,85,85,4,1,threeone,,,,,,,,,,,,,,,,,,,,,,,,,,,,,,,,,,,,,,,,,,,,,,,,,,,,,,,,,,,,,,,,,,,,,,,,,,,,,,,,,,,,,,,,,,,,,,,,,,,,,,,,,,,,,,,,,,,,,,,,,,,,,,,,,,,,,,,,,,,,,,,,,,,,,,,,,,,,,
,,,,,,5d5fac22e32d920001c82b53,62c53a09614ceb72cf758a92,2022-07-06_09h30.31.041,Colour_Asymmetry_Pilot,2022.1.3,Win32,58.83391187,62c50e9c1127f2cd403a315f,0,86,86,120,1,onetwo,,,,,,,,,,,,,,,,,,,,,,,,,,,,,,,,,,,,,,,,,,,,,,,,,,,,,,,,,,,,,,,,,,,,,,,,,,,,,,,,,,,,,,,,,,,,,,,,,,,,,,,,,,,,,,,,,,,,,,,,,,,,,,,,,,,,,,,,,,,,,,,,,,,,,,,,,,,,,
,,,,,,5d5fac22e32d920001c82b53,62c53a09614ceb72cf758a92,2022-07-06_09h30.31.041,Colour_Asymmetry_Pilot,2022.1.3,Win32,58.83391187,62c50e9c1127f2cd403a315f,0,87,87,7,1,fourthree,,,,,,,,,,,,,,,,,,,,,,,,,,,,,,,,,,,,,,,,,,,,,,,,,,,,,,,,,,,,,,,,,,,,,,,,,,,,,,,,,,,,,,,,,,,,,,,,,,,,,,,,,,,,,,,,,,,,,,,,,,,,,,,,,,,,,,,,,,,,,,,,,,,,,,,,,,,,,
,,,,,,5d5fac22e32d920001c82b53,62c53a09614ceb72cf758a92,2022-07-06_09h30.31.041,Colour_Asymmetry_Pilot,2022.1.3,Win32,58.83391187,62c50e9c1127f2cd403a315f,0,88,88,54,1,fourtwo,,,,,,,,,,,,,,,,,,,,,,,,,,,,,,,,,,,,,,,,,,,,,,,,,,,,,,,,,,,,,,,,,,,,,,,,,,,,,,,,,,,,,,,,,,,,,,,,,,,,,,,,,,,,,,,,,,,,,,,,,,,,,,,,,,,,,,,,,,,,,,,,,,,,,,,,,,,,,
,,,,,,5d5fac22e32d920001c82b53,62c53a09614ceb72cf758a92,2022-07-06_09h30.31.041,Colour_Asymmetry_Pilot,2022.1.3,Win32,58.83391187,62c50e9c1127f2cd403a315f,0,89,89,19,1,twofour,,,,,,,,,,,,,,,,,,,,,,,,,,,,,,,,,,,,,,,,,,,,,,,,,,,,,,,,,,,,,,,,,,,,,,,,,,,,,,,,,,,,,,,,,,,,,,,,,,,,,,,,,,,,,,,,,,,,,,,,,,,,,,,,,,,,,,,,,,,,,,,,,,,,,,,,,,,,,
,,,,,,5d5fac22e32d920001c82b53,62c53a09614ceb72cf758a92,2022-07-06_09h30.31.041,Colour_Asymmetry_Pilot,2022.1.3,Win32,58.83391187,62c50e9c1127f2cd403a315f,0,90,90,35,1,twofour,,,,,,,,,,,,,,,,,,,,,,,,,,,,,,,,,,,,,,,,,,,,,,,,,,,,,,,,,,,,,,,,,,,,,,,,,,,,,,,,,,,,,,,,,,,,,,,,,,,,,,,,,,,,,,,,,,,,,,,,,,,,,,,,,,,,,,,,,,,,,,,,,,,,,,,,,,,,,
,,,,,,5d5fac22e32d920001c82b53,62c53a09614ceb72cf758a92,2022-07-06_09h30.31.041,Colour_Asymmetry_Pilot,2022.1.3,Win32,58.83391187,62c50e9c1127f2cd403a315f,0,91,91,34,1,twoone,,,,,,,,,,,,,,,,,,,,,,,,,,,,,,,,,,,,,,,,,,,,,,,,,,,,,,,,,,,,,,,,,,,,,,,,,,,,,,,,,,,,,,,,,,,,,,,,,,,,,,,,,,,,,,,,,,,,,,,,,,,,,,,,,,,,,,,,,,,,,,,,,,,,,,,,,,,,,
,,,,,,5d5fac22e32d920001c82b53,62c53a09614ceb72cf758a92,2022-07-06_09h30.31.041,Colour_Asymmetry_Pilot,2022.1.3,Win32,58.83391187,62c50e9c1127f2cd403a315f,0,92,92,36,1,threeone,,,,,,,,,,,,,,,,,,,,,,,,,,,,,,,,,,,,,,,,,,,,,,,,,,,,,,,,,,,,,,,,,,,,,,,,,,,,,,,,,,,,,,,,,,,,,,,,,,,,,,,,,,,,,,,,,,,,,,,,,,,,,,,,,,,,,,,,,,,,,,,,,,,,,,,,,,,,,
,,,,,,5d5fac22e32d920001c82b53,62c53a09614ceb72cf758a92,2022-07-06_09h30.31.041,Colour_Asymmetry_Pilot,2022.1.3,Win32,58.83391187,62c50e9c1127f2cd403a315f,0,93,93,72,1,onetwo,,,,,,,,,,,,,,,,,,,,,,,,,,,,,,,,,,,,,,,,,,,,,,,,,,,,,,,,,,,,,,,,,,,,,,,,,,,,,,,,,,,,,,,,,,,,,,,,,,,,,,,,,,,,,,,,,,,,,,,,,,,,,,,,,,,,,,,,,,,,,,,,,,,,,,,,,,,,,
,,,,,,5d5fac22e32d920001c82b53,62c53a09614ceb72cf758a92,2022-07-06_09h30.31.041,Colour_Asymmetry_Pilot,2022.1.3,Win32,58.83391187,62c50e9c1127f2cd403a315f,0,94,94,108,1,threeone,,,,,,,,,,,,,,,,,,,,,,,,,,,,,,,,,,,,,,,,,,,,,,,,,,,,,,,,,,,,,,,,,,,,,,,,,,,,,,,,,,,,,,,,,,,,,,,,,,,,,,,,,,,,,,,,,,,,,,,,,,,,,,,,,,,,,,,,,,,,,,,,,,,,,,,,,,,,,
,,,,,,5d5fac22e32d920001c82b53,62c53a09614ceb72cf758a92,2022-07-06_09h30.31.041,Colour_Asymmetry_Pilot,2022.1.3,Win32,58.83391187,62c50e9c1127f2cd403a315f,0,95,95,96,1,onetwo,,,,,,,,,,,,,,,,,,,,,,,,,,,,,,,,,,,,,,,,,,,,,,,,,,,,,,,,,,,,,,,,,,,,,,,,,,,,,,,,,,,,,,,,,,,,,,,,,,,,,,,,,,,,,,,,,,,,,,,,,,,,,,,,,,,,,,,,,,,,,,,,,,,,,,,,,,,,,
,,,,,,5d5fac22e32d920001c82b53,62c53a09614ceb72cf758a92,2022-07-06_09h30.31.041,Colour_Asymmetry_Pilot,2022.1.3,Win32,58.83391187,62c50e9c1127f2cd403a315f,0,96,96,3,1,twofour,,,,,,,,,,,,,,,,,,,,,,,,,,,,,,,,,,,,,,,,,,,,,,,,,,,,,,,,,,,,,,,,,,,,,,,,,,,,,,,,,,,,,,,,,,,,,,,,,,,,,,,,,,,,,,,,,,,,,,,,,,,,,,,,,,,,,,,,,,,,,,,,,,,,,,,,,,,,,
,,,,,,5d5fac22e32d920001c82b53,62c53a09614ceb72cf758a92,2022-07-06_09h30.31.041,Colour_Asymmetry_Pilot,2022.1.3,Win32,58.83391187,62c50e9c1127f2cd403a315f,0,97,97,74,1,twoone,,,,,,,,,,,,,,,,,,,,,,,,,,,,,,,,,,,,,,,,,,,,,,,,,,,,,,,,,,,,,,,,,,,,,,,,,,,,,,,,,,,,,,,,,,,,,,,,,,,,,,,,,,,,,,,,,,,,,,,,,,,,,,,,,,,,,,,,,,,,,,,,,,,,,,,,,,,,,
,,,,,,5d5fac22e32d920001c82b53,62c53a09614ceb72cf758a92,2022-07-06_09h30.31.041,Colour_Asymmetry_Pilot,2022.1.3,Win32,58.83391187,62c50e9c1127f2cd403a315f,0,98,98,40,1,onetwo,,,,,,,,,,,,,,,,,,,,,,,,,,,,,,,,,,,,,,,,,,,,,,,,,,,,,,,,,,,,,,,,,,,,,,,,,,,,,,,,,,,,,,,,,,,,,,,,,,,,,,,,,,,,,,,,,,,,,,,,,,,,,,,,,,,,,,,,,,,,,,,,,,,,,,,,,,,,,
,,,,,,5d5fac22e32d920001c82b53,62c53a09614ceb72cf758a92,2022-07-06_09h30.31.041,Colour_Asymmetry_Pilot,2022.1.3,Win32,58.83391187,62c50e9c1127f2cd403a315f,0,99,99,121,1,onethree,,,,,,,,,,,,,,,,,,,,,,,,,,,,,,,,,,,,,,,,,,,,,,,,,,,,,,,,,,,,,,,,,,,,,,,,,,,,,,,,,,,,,,,,,,,,,,,,,,,,,,,,,,,,,,,,,,,,,,,,,,,,,,,,,,,,,,,,,,,,,,,,,,,,,,,,,,,,,
,,,,,,5d5fac22e32d920001c82b53,62c53a09614ceb72cf758a92,2022-07-06_09h30.31.041,Colour_Asymmetry_Pilot,2022.1.3,Win32,58.83391187,62c50e9c1127f2cd403a315f,0,100,100,104,1,onetwo,,,,,,,,,,,,,,,,,,,,,,,,,,,,,,,,,,,,,,,,,,,,,,,,,,,,,,,,,,,,,,,,,,,,,,,,,,,,,,,,,,,,,,,,,,,,,,,,,,,,,,,,,,,,,,,,,,,,,,,,,,,,,,,,,,,,,,,,,,,,,,,,,,,,,,,,,,,,,
,,,,,,5d5fac22e32d920001c82b53,62c53a09614ceb72cf758a92,2022-07-06_09h30.31.041,Colour_Asymmetry_Pilot,2022.1.3,Win32,58.83391187,62c50e9c1127f2cd403a315f,0,101,101,94,1,fourtwo,,,,,,,,,,,,,,,,,,,,,,,,,,,,,,,,,,,,,,,,,,,,,,,,,,,,,,,,,,,,,,,,,,,,,,,,,,,,,,,,,,,,,,,,,,,,,,,,,,,,,,,,,,,,,,,,,,,,,,,,,,,,,,,,,,,,,,,,,,,,,,,,,,,,,,,,,,,,,
,,,,,,5d5fac22e32d920001c82b53,62c53a09614ceb72cf758a92,2022-07-06_09h30.31.041,Colour_Asymmetry_Pilot,2022.1.3,Win32,58.83391187,62c50e9c1127f2cd403a315f,0,102,102,82,1,twoone,,,,,,,,,,,,,,,,,,,,,,,,,,,,,,,,,,,,,,,,,,,,,,,,,,,,,,,,,,,,,,,,,,,,,,,,,,,,,,,,,,,,,,,,,,,,,,,,,,,,,,,,,,,,,,,,,,,,,,,,,,,,,,,,,,,,,,,,,,,,,,,,,,,,,,,,,,,,,
,,,,,,5d5fac22e32d920001c82b53,62c53a09614ceb72cf758a92,2022-07-06_09h30.31.041,Colour_Asymmetry_Pilot,2022.1.3,Win32,58.83391187,62c50e9c1127f2cd403a315f,0,103,103,76,1,threeone,,,,,,,,,,,,,,,,,,,,,,,,,,,,,,,,,,,,,,,,,,,,,,,,,,,,,,,,,,,,,,,,,,,,,,,,,,,,,,,,,,,,,,,,,,,,,,,,,,,,,,,,,,,,,,,,,,,,,,,,,,,,,,,,,,,,,,,,,,,,,,,,,,,,,,,,,,,,,
,,,,,,5d5fac22e32d920001c82b53,62c53a09614ceb72cf758a92,2022-07-06_09h30.31.041,Colour_Asymmetry_Pilot,2022.1.3,Win32,58.83391187,62c50e9c1127f2cd403a315f,0,104,104,63,1,fourthree,,,,,,,,,,,,,,,,,,,,,,,,,,,,,,,,,,,,,,,,,,,,,,,,,,,,,,,,,,,,,,,,,,,,,,,,,,,,,,,,,,,,,,,,,,,,,,,,,,,,,,,,,,,,,,,,,,,,,,,,,,,,,,,,,,,,,,,,,,,,,,,,,,,,,,,,,,,,,
,,,,,,5d5fac22e32d920001c82b53,62c53a09614ceb72cf758a92,2022-07-06_09h30.31.041,Colour_Asymmetry_Pilot,2022.1.3,Win32,58.83391187,62c50e9c1127f2cd403a315f,0,105,105,79,1,fourthree,,,,,,,,,,,,,,,,,,,,,,,,,,,,,,,,,,,,,,,,,,,,,,,,,,,,,,,,,,,,,,,,,,,,,,,,,,,,,,,,,,,,,,,,,,,,,,,,,,,,,,,,,,,,,,,,,,,,,,,,,,,,,,,,,,,,,,,,,,,,,,,,,,,,,,,,,,,,,
,,,,,,5d5fac22e32d920001c82b53,62c53a09614ceb72cf758a92,2022-07-06_09h30.31.041,Colour_Asymmetry_Pilot,2022.1.3,Win32,58.83391187,62c50e9c1127f2cd403a315f,0,106,106,85,1,threefour,,,,,,,,,,,,,,,,,,,,,,,,,,,,,,,,,,,,,,,,,,,,,,,,,,,,,,,,,,,,,,,,,,,,,,,,,,,,,,,,,,,,,,,,,,,,,,,,,,,,,,,,,,,,,,,,,,,,,,,,,,,,,,,,,,,,,,,,,,,,,,,,,,,,,,,,,,,,,
,,,,,,5d5fac22e32d920001c82b53,62c53a09614ceb72cf758a92,2022-07-06_09h30.31.041,Colour_Asymmetry_Pilot,2022.1.3,Win32,58.83391187,62c50e9c1127f2cd403a315f,0,107,107,39,1,fourthree,,,,,,,,,,,,,,,,,,,,,,,,,,,,,,,,,,,,,,,,,,,,,,,,,,,,,,,,,,,,,,,,,,,,,,,,,,,,,,,,,,,,,,,,,,,,,,,,,,,,,,,,,,,,,,,,,,,,,,,,,,,,,,,,,,,,,,,,,,,,,,,,,,,,,,,,,,,,,
,,,,,,5d5fac22e32d920001c82b53,62c53a09614ceb72cf758a92,2022-07-06_09h30.31.041,Colour_Asymmetry_Pilot,2022.1.3,Win32,58.83391187,62c50e9c1127f2cd403a315f,0,108,108,48,1,onetwo,,,,,,,,,,,,,,,,,,,,,,,,,,,,,,,,,,,,,,,,,,,,,,,,,,,,,,,,,,,,,,,,,,,,,,,,,,,,,,,,,,,,,,,,,,,,,,,,,,,,,,,,,,,,,,,,,,,,,,,,,,,,,,,,,,,,,,,,,,,,,,,,,,,,,,,,,,,,,
,,,,,,5d5fac22e32d920001c82b53,62c53a09614ceb72cf758a92,2022-07-06_09h30.31.041,Colour_Asymmetry_Pilot,2022.1.3,Win32,58.83391187,62c50e9c1127f2cd403a315f,0,109,109,68,1,threeone,,,,,,,,,,,,,,,,,,,,,,,,,,,,,,,,,,,,,,,,,,,,,,,,,,,,,,,,,,,,,,,,,,,,,,,,,,,,,,,,,,,,,,,,,,,,,,,,,,,,,,,,,,,,,,,,,,,,,,,,,,,,,,,,,,,,,,,,,,,,,,,,,,,,,,,,,,,,,
,,,,,,5d5fac22e32d920001c82b53,62c53a09614ceb72cf758a92,2022-07-06_09h30.31.041,Colour_Asymmetry_Pilot,2022.1.3,Win32,58.83391187,62c50e9c1127f2cd403a315f,0,110,110,52,1,threeone,,,,,,,,,,,,,,,,,,,,,,,,,,,,,,,,,,,,,,,,,,,,,,,,,,,,,,,,,,,,,,,,,,,,,,,,,,,,,,,,,,,,,,,,,,,,,,,,,,,,,,,,,,,,,,,,,,,,,,,,,,,,,,,,,,,,,,,,,,,,,,,,,,,,,,,,,,,,,
,,,,,,5d5fac22e32d920001c82b53,62c53a09614ceb72cf758a92,2022-07-06_09h30.31.041,Colour_Asymmetry_Pilot,2022.1.3,Win32,58.83391187,62c50e9c1127f2cd403a315f,0,111,111,12,1,threeone,,,,,,,,,,,,,,,,,,,,,,,,,,,,,,,,,,,,,,,,,,,,,,,,,,,,,,,,,,,,,,,,,,,,,,,,,,,,,,,,,,,,,,,,,,,,,,,,,,,,,,,,,,,,,,,,,,,,,,,,,,,,,,,,,,,,,,,,,,,,,,,,,,,,,,,,,,,,,
,,,,,,5d5fac22e32d920001c82b53,62c53a09614ceb72cf758a92,2022-07-06_09h30.31.041,Colour_Asymmetry_Pilot,2022.1.3,Win32,58.83391187,62c50e9c1127f2cd403a315f,0,112,112,66,1,twoone,,,,,,,,,,,,,,,,,,,,,,,,,,,,,,,,,,,,,,,,,,,,,,,,,,,,,,,,,,,,,,,,,,,,,,,,,,,,,,,,,,,,,,,,,,,,,,,,,,,,,,,,,,,,,,,,,,,,,,,,,,,,,,,,,,,,,,,,,,,,,,,,,,,,,,,,,,,,,
,,,,,,5d5fac22e32d920001c82b53,62c53a09614ceb72cf758a92,2022-07-06_09h30.31.041,Colour_Asymmetry_Pilot,2022.1.3,Win32,58.83391187,62c50e9c1127f2cd403a315f,0,113,113,84,1,threeone,,,,,,,,,,,,,,,,,,,,,,,,,,,,,,,,,,,,,,,,,,,,,,,,,,,,,,,,,,,,,,,,,,,,,,,,,,,,,,,,,,,,,,,,,,,,,,,,,,,,,,,,,,,,,,,,,,,,,,,,,,,,,,,,,,,,,,,,,,,,,,,,,,,,,,,,,,,,,
,,,,,,5d5fac22e32d920001c82b53,62c53a09614ceb72cf758a92,2022-07-06_09h30.31.041,Colour_Asymmetry_Pilot,2022.1.3,Win32,58.83391187,62c50e9c1127f2cd403a315f,0,114,114,122,1,twoone,,,,,,,,,,,,,,,,,,,,,,,,,,,,,,,,,,,,,,,,,,,,,,,,,,,,,,,,,,,,,,,,,,,,,,,,,,,,,,,,,,,,,,,,,,,,,,,,,,,,,,,,,,,,,,,,,,,,,,,,,,,,,,,,,,,,,,,,,,,,,,,,,,,,,,,,,,,,,
,,,,,,5d5fac22e32d920001c82b53,62c53a09614ceb72cf758a92,2022-07-06_09h30.31.041,Colour_Asymmetry_Pilot,2022.1.3,Win32,58.83391187,62c50e9c1127f2cd403a315f,0,115,115,132,1,threeone,,,,,,,,,,,,,,,,,,,,,,,,,,,,,,,,,,,,,,,,,,,,,,,,,,,,,,,,,,,,,,,,,,,,,,,,,,,,,,,,,,,,,,,,,,,,,,,,,,,,,,,,,,,,,,,,,,,,,,,,,,,,,,,,,,,,,,,,,,,,,,,,,,,,,,,,,,,,,
,,,,,,5d5fac22e32d920001c82b53,62c53a09614ceb72cf758a92,2022-07-06_09h30.31.041,Colour_Asymmetry_Pilot,2022.1.3,Win32,58.83391187,62c50e9c1127f2cd403a315f,0,116,116,73,1,onethree,,,,,,,,,,,,,,,,,,,,,,,,,,,,,,,,,,,,,,,,,,,,,,,,,,,,,,,,,,,,,,,,,,,,,,,,,,,,,,,,,,,,,,,,,,,,,,,,,,,,,,,,,,,,,,,,,,,,,,,,,,,,,,,,,,,,,,,,,,,,,,,,,,,,,,,,,,,,,
,,,,,,5d5fac22e32d920001c82b53,62c53a09614ceb72cf758a92,2022-07-06_09h30.31.041,Colour_Asymmetry_Pilot,2022.1.3,Win32,58.83391187,62c50e9c1127f2cd403a315f,0,117,117,56,1,onetwo,,,,,,,,,,,,,,,,,,,,,,,,,,,,,,,,,,,,,,,,,,,,,,,,,,,,,,,,,,,,,,,,,,,,,,,,,,,,,,,,,,,,,,,,,,,,,,,,,,,,,,,,,,,,,,,,,,,,,,,,,,,,,,,,,,,,,,,,,,,,,,,,,,,,,,,,,,,,,
,,,,,,5d5fac22e32d920001c82b53,62c53a09614ceb72cf758a92,2022-07-06_09h30.31.041,Colour_Asymmetry_Pilot,2022.1.3,Win32,58.83391187,62c50e9c1127f2cd403a315f,0,118,118,152,1,onetwo,,,,,,,,,,,,,,,,,,,,,,,,,,,,,,,,,,,,,,,,,,,,,,,,,,,,,,,,,,,,,,,,,,,,,,,,,,,,,,,,,,,,,,,,,,,,,,,,,,,,,,,,,,,,,,,,,,,,,,,,,,,,,,,,,,,,,,,,,,,,,,,,,,,,,,,,,,,,,
,,,,,,5d5fac22e32d920001c82b53,62c53a09614ceb72cf758a92,2022-07-06_09h30.31.041,Colour_Asymmetry_Pilot,2022.1.3,Win32,58.83391187,62c50e9c1127f2cd403a315f,0,119,119,38,1,fourtwo,,,,,,,,,,,,,,,,,,,,,,,,,,,,,,,,,,,,,,,,,,,,,,,,,,,,,,,,,,,,,,,,,,,,,,,,,,,,,,,,,,,,,,,,,,,,,,,,,,,,,,,,,,,,,,,,,,,,,,,,,,,,,,,,,,,,,,,,,,,,,,,,,,,,,,,,,,,,,
,,,,,,5d5fac22e32d920001c82b53,62c53a09614ceb72cf758a92,2022-07-06_09h30.31.041,Colour_Asymmetry_Pilot,2022.1.3,Win32,58.83391187,62c50e9c1127f2cd403a315f,0,120,120,136,1,onetwo,,,,,,,,,,,,,,,,,,,,,,,,,,,,,,,,,,,,,,,,,,,,,,,,,,,,,,,,,,,,,,,,,,,,,,,,,,,,,,,,,,,,,,,,,,,,,,,,,,,,,,,,,,,,,,,,,,,,,,,,,,,,,,,,,,,,,,,,,,,,,,,,,,,,,,,,,,,,,
,,,,,,5d5fac22e32d920001c82b53,62c53a09614ceb72cf758a92,2022-07-06_09h30.31.041,Colour_Asymmetry_Pilot,2022.1.3,Win32,58.83391187,62c50e9c1127f2cd403a315f,0,121,121,42,1,twoone,,,,,,,,,,,,,,,,,,,,,,,,,,,,,,,,,,,,,,,,,,,,,,,,,,,,,,,,,,,,,,,,,,,,,,,,,,,,,,,,,,,,,,,,,,,,,,,,,,,,,,,,,,,,,,,,,,,,,,,,,,,,,,,,,,,,,,,,,,,,,,,,,,,,,,,,,,,,,
,,,,,,5d5fac22e32d920001c82b53,62c53a09614ceb72cf758a92,2022-07-06_09h30.31.041,Colour_Asymmetry_Pilot,2022.1.3,Win32,58.83391187,62c50e9c1127f2cd403a315f,0,122,122,149,1,threefour,,,,,,,,,,,,,,,,,,,,,,,,,,,,,,,,,,,,,,,,,,,,,,,,,,,,,,,,,,,,,,,,,,,,,,,,,,,,,,,,,,,,,,,,,,,,,,,,,,,,,,,,,,,,,,,,,,,,,,,,,,,,,,,,,,,,,,,,,,,,,,,,,,,,,,,,,,,,,
,,,,,,5d5fac22e32d920001c82b53,62c53a09614ceb72cf758a92,2022-07-06_09h30.31.041,Colour_Asymmetry_Pilot,2022.1.3,Win32,58.83391187,62c50e9c1127f2cd403a315f,0,123,123,61,1,threefour,,,,,,,,,,,,,,,,,,,,,,,,,,,,,,,,,,,,,,,,,,,,,,,,,,,,,,,,,,,,,,,,,,,,,,,,,,,,,,,,,,,,,,,,,,,,,,,,,,,,,,,,,,,,,,,,,,,,,,,,,,,,,,,,,,,,,,,,,,,,,,,,,,,,,,,,,,,,,
,,,,,,5d5fac22e32d920001c82b53,62c53a09614ceb72cf758a92,2022-07-06_09h30.31.041,Colour_Asymmetry_Pilot,2022.1.3,Win32,58.83391187,62c50e9c1127f2cd403a315f,0,124,124,146,1,twoone,,,,,,,,,,,,,,,,,,,,,,,,,,,,,,,,,,,,,,,,,,,,,,,,,,,,,,,,,,,,,,,,,,,,,,,,,,,,,,,,,,,,,,,,,,,,,,,,,,,,,,,,,,,,,,,,,,,,,,,,,,,,,,,,,,,,,,,,,,,,,,,,,,,,,,,,,,,,,
,,,,,,5d5fac22e32d920001c82b53,62c53a09614ceb72cf758a92,2022-07-06_09h30.31.041,Colour_Asymmetry_Pilot,2022.1.3,Win32,58.83391187,62c50e9c1127f2cd403a315f,0,125,125,115,1,twofour,,,,,,,,,,,,,,,,,,,,,,,,,,,,,,,,,,,,,,,,,,,,,,,,,,,,,,,,,,,,,,,,,,,,,,,,,,,,,,,,,,,,,,,,,,,,,,,,,,,,,,,,,,,,,,,,,,,,,,,,,,,,,,,,,,,,,,,,,,,,,,,,,,,,,,,,,,,,,
,,,,,,5d5fac22e32d920001c82b53,62c53a09614ceb72cf758a92,2022-07-06_09h30.31.041,Colour_Asymmetry_Pilot,2022.1.3,Win32,58.83391187,62c50e9c1127f2cd403a315f,0,126,126,100,1,threeone,,,,,,,,,,,,,,,,,,,,,,,,,,,,,,,,,,,,,,,,,,,,,,,,,,,,,,,,,,,,,,,,,,,,,,,,,,,,,,,,,,,,,,,,,,,,,,,,,,,,,,,,,,,,,,,,,,,,,,,,,,,,,,,,,,,,,,,,,,,,,,,,,,,,,,,,,,,,,
,,,,,,5d5fac22e32d920001c82b53,62c53a09614ceb72cf758a92,2022-07-06_09h30.31.041,Colour_Asymmetry_Pilot,2022.1.3,Win32,58.83391187,62c50e9c1127f2cd403a315f,0,127,127,15,1,fourthree,,,,,,,,,,,,,,,,,,,,,,,,,,,,,,,,,,,,,,,,,,,,,,,,,,,,,,,,,,,,,,,,,,,,,,,,,,,,,,,,,,,,,,,,,,,,,,,,,,,,,,,,,,,,,,,,,,,,,,,,,,,,,,,,,,,,,,,,,,,,,,,,,,,,,,,,,,,,,
,,,,,,5d5fac22e32d920001c82b53,62c53a09614ceb72cf758a92,2022-07-06_09h30.31.041,Colour_Asymmetry_Pilot,2022.1.3,Win32,58.83391187,62c50e9c1127f2cd403a315f,0,128,128,141,1,threefour,,,,,,,,,,,,,,,,,,,,,,,,,,,,,,,,,,,,,,,,,,,,,,,,,,,,,,,,,,,,,,,,,,,,,,,,,,,,,,,,,,,,,,,,,,,,,,,,,,,,,,,,,,,,,,,,,,,,,,,,,,,,,,,,,,,,,,,,,,,,,,,,,,,,,,,,,,,,,
,,,,,,5d5fac22e32d920001c82b53,62c53a09614ceb72cf758a92,2022-07-06_09h30.31.041,Colour_Asymmetry_Pilot,2022.1.3,Win32,58.83391187,62c50e9c1127f2cd403a315f,0,129,129,18,1,twoone,,,,,,,,,,,,,,,,,,,,,,,,,,,,,,,,,,,,,,,,,,,,,,,,,,,,,,,,,,,,,,,,,,,,,,,,,,,,,,,,,,,,,,,,,,,,,,,,,,,,,,,,,,,,,,,,,,,,,,,,,,,,,,,,,,,,,,,,,,,,,,,,,,,,,,,,,,,,,
,,,,,,5d5fac22e32d920001c82b53,62c53a09614ceb72cf758a92,2022-07-06_09h30.31.041,Colour_Asymmetry_Pilot,2022.1.3,Win32,58.83391187,62c50e9c1127f2cd403a315f,0,130,130,129,1,onethree,,,,,,,,,,,,,,,,,,,,,,,,,,,,,,,,,,,,,,,,,,,,,,,,,,,,,,,,,,,,,,,,,,,,,,,,,,,,,,,,,,,,,,,,,,,,,,,,,,,,,,,,,,,,,,,,,,,,,,,,,,,,,,,,,,,,,,,,,,,,,,,,,,,,,,,,,,,,,
,,,,,,5d5fac22e32d920001c82b53,62c53a09614ceb72cf758a92,2022-07-06_09h30.31.041,Colour_Asymmetry_Pilot,2022.1.3,Win32,58.83391187,62c50e9c1127f2cd403a315f,0,131,131,29,1,threefour,,,,,,,,,,,,,,,,,,,,,,,,,,,,,,,,,,,,,,,,,,,,,,,,,,,,,,,,,,,,,,,,,,,,,,,,,,,,,,,,,,,,,,,,,,,,,,,,,,,,,,,,,,,,,,,,,,,,,,,,,,,,,,,,,,,,,,,,,,,,,,,,,,,,,,,,,,,,,
,,,,,,5d5fac22e32d920001c82b53,62c53a09614ceb72cf758a92,2022-07-06_09h30.31.041,Colour_Asymmetry_Pilot,2022.1.3,Win32,58.83391187,62c50e9c1127f2cd403a315f,0,132,132,103,1,fourthree,,,,,,,,,,,,,,,,,,,,,,,,,,,,,,,,,,,,,,,,,,,,,,,,,,,,,,,,,,,,,,,,,,,,,,,,,,,,,,,,,,,,,,,,,,,,,,,,,,,,,,,,,,,,,,,,,,,,,,,,,,,,,,,,,,,,,,,,,,,,,,,,,,,,,,,,,,,,,
,,,,,,5d5fac22e32d920001c82b53,62c53a09614ceb72cf758a92,2022-07-06_09h30.31.041,Colour_Asymmetry_Pilot,2022.1.3,Win32,58.83391187,62c50e9c1127f2cd403a315f,0,133,133,142,1,fourtwo,,,,,,,,,,,,,,,,,,,,,,,,,,,,,,,,,,,,,,,,,,,,,,,,,,,,,,,,,,,,,,,,,,,,,,,,,,,,,,,,,,,,,,,,,,,,,,,,,,,,,,,,,,,,,,,,,,,,,,,,,,,,,,,,,,,,,,,,,,,,,,,,,,,,,,,,,,,,,
,,,,,,5d5fac22e32d920001c82b53,62c53a09614ceb72cf758a92,2022-07-06_09h30.31.041,Colour_Asymmetry_Pilot,2022.1.3,Win32,58.83391187,62c50e9c1127f2cd403a315f,0,134,134,0,1,onetwo,,,,,,,,,,,,,,,,,,,,,,,,,,,,,,,,,,,,,,,,,,,,,,,,,,,,,,,,,,,,,,,,,,,,,,,,,,,,,,,,,,,,,,,,,,,,,,,,,,,,,,,,,,,,,,,,,,,,,,,,,,,,,,,,,,,,,,,,,,,,,,,,,,,,,,,,,,,,,
,,,,,,5d5fac22e32d920001c82b53,62c53a09614ceb72cf758a92,2022-07-06_09h30.31.041,Colour_Asymmetry_Pilot,2022.1.3,Win32,58.83391187,62c50e9c1127f2cd403a315f,0,135,135,90,1,twoone,,,,,,,,,,,,,,,,,,,,,,,,,,,,,,,,,,,,,,,,,,,,,,,,,,,,,,,,,,,,,,,,,,,,,,,,,,,,,,,,,,,,,,,,,,,,,,,,,,,,,,,,,,,,,,,,,,,,,,,,,,,,,,,,,,,,,,,,,,,,,,,,,,,,,,,,,,,,,
,,,,,,5d5fac22e32d920001c82b53,62c53a09614ceb72cf758a92,2022-07-06_09h30.31.041,Colour_Asymmetry_Pilot,2022.1.3,Win32,58.83391187,62c50e9c1127f2cd403a315f,0,136,136,145,1,onethree,,,,,,,,,,,,,,,,,,,,,,,,,,,,,,,,,,,,,,,,,,,,,,,,,,,,,,,,,,,,,,,,,,,,,,,,,,,,,,,,,,,,,,,,,,,,,,,,,,,,,,,,,,,,,,,,,,,,,,,,,,,,,,,,,,,,,,,,,,,,,,,,,,,,,,,,,,,,,
,,,,,,5d5fac22e32d920001c82b53,62c53a09614ceb72cf758a92,2022-07-06_09h30.31.041,Colour_Asymmetry_Pilot,2022.1.3,Win32,58.83391187,62c50e9c1127f2cd403a315f,0,137,137,134,1,fourtwo,,,,,,,,,,,,,,,,,,,,,,,,,,,,,,,,,,,,,,,,,,,,,,,,,,,,,,,,,,,,,,,,,,,,,,,,,,,,,,,,,,,,,,,,,,,,,,,,,,,,,,,,,,,,,,,,,,,,,,,,,,,,,,,,,,,,,,,,,,,,,,,,,,,,,,,,,,,,,
,,,,,,5d5fac22e32d920001c82b53,62c53a09614ceb72cf758a92,2022-07-06_09h30.31.041,Colour_Asymmetry_Pilot,2022.1.3,Win32,58.83391187,62c50e9c1127f2cd403a315f,0,138,138,45,1,threefour,,,,,,,,,,,,,,,,,,,,,,,,,,,,,,,,,,,,,,,,,,,,,,,,,,,,,,,,,,,,,,,,,,,,,,,,,,,,,,,,,,,,,,,,,,,,,,,,,,,,,,,,,,,,,,,,,,,,,,,,,,,,,,,,,,,,,,,,,,,,,,,,,,,,,,,,,,,,,
,,,,,,5d5fac22e32d920001c82b53,62c53a09614ceb72cf758a92,2022-07-06_09h30.31.041,Colour_Asymmetry_Pilot,2022.1.3,Win32,58.83391187,62c50e9c1127f2cd403a315f,0,139,139,22,1,fourtwo,,,,,,,,,,,,,,,,,,,,,,,,,,,,,,,,,,,,,,,,,,,,,,,,,,,,,,,,,,,,,,,,,,,,,,,,,,,,,,,,,,,,,,,,,,,,,,,,,,,,,,,,,,,,,,,,,,,,,,,,,,,,,,,,,,,,,,,,,,,,,,,,,,,,,,,,,,,,,
,,,,,,5d5fac22e32d920001c82b53,62c53a09614ceb72cf758a92,2022-07-06_09h30.31.041,Colour_Asymmetry_Pilot,2022.1.3,Win32,58.83391187,62c50e9c1127f2cd403a315f,0,140,140,13,1,threefour,,,,,,,,,,,,,,,,,,,,,,,,,,,,,,,,,,,,,,,,,,,,,,,,,,,,,,,,,,,,,,,,,,,,,,,,,,,,,,,,,,,,,,,,,,,,,,,,,,,,,,,,,,,,,,,,,,,,,,,,,,,,,,,,,,,,,,,,,,,,,,,,,,,,,,,,,,,,,
,,,,,,5d5fac22e32d920001c82b53,62c53a09614ceb72cf758a92,2022-07-06_09h30.31.041,Colour_Asymmetry_Pilot,2022.1.3,Win32,58.83391187,62c50e9c1127f2cd403a315f,0,141,141,158,1,fourtwo,,,,,,,,,,,,,,,,,,,,,,,,,,,,,,,,,,,,,,,,,,,,,,,,,,,,,,,,,,,,,,,,,,,,,,,,,,,,,,,,,,,,,,,,,,,,,,,,,,,,,,,,,,,,,,,,,,,,,,,,,,,,,,,,,,,,,,,,,,,,,,,,,,,,,,,,,,,,,
,,,,,,5d5fac22e32d920001c82b53,62c53a09614ceb72cf758a92,2022-07-06_09h30.31.041,Colour_Asymmetry_Pilot,2022.1.3,Win32,58.83391187,62c50e9c1127f2cd403a315f,0,142,142,101,1,threefour,,,,,,,,,,,,,,,,,,,,,,,,,,,,,,,,,,,,,,,,,,,,,,,,,,,,,,,,,,,,,,,,,,,,,,,,,,,,,,,,,,,,,,,,,,,,,,,,,,,,,,,,,,,,,,,,,,,,,,,,,,,,,,,,,,,,,,,,,,,,,,,,,,,,,,,,,,,,,
,,,,,,5d5fac22e32d920001c82b53,62c53a09614ceb72cf758a92,2022-07-06_09h30.31.041,Colour_Asymmetry_Pilot,2022.1.3,Win32,58.83391187,62c50e9c1127f2cd403a315f,0,143,143,143,1,fourthree,,,,,,,,,,,,,,,,,,,,,,,,,,,,,,,,,,,,,,,,,,,,,,,,,,,,,,,,,,,,,,,,,,,,,,,,,,,,,,,,,,,,,,,,,,,,,,,,,,,,,,,,,,,,,,,,,,,,,,,,,,,,,,,,,,,,,,,,,,,,,,,,,,,,,,,,,,,,,
,,,,,,5d5fac22e32d920001c82b53,62c53a09614ceb72cf758a92,2022-07-06_09h30.31.041,Colour_Asymmetry_Pilot,2022.1.3,Win32,58.83391187,62c50e9c1127f2cd403a315f,0,144,144,64,1,onetwo,,,,,,,,,,,,,,,,,,,,,,,,,,,,,,,,,,,,,,,,,,,,,,,,,,,,,,,,,,,,,,,,,,,,,,,,,,,,,,,,,,,,,,,,,,,,,,,,,,,,,,,,,,,,,,,,,,,,,,,,,,,,,,,,,,,,,,,,,,,,,,,,,,,,,,,,,,,,,
,,,,,,5d5fac22e32d920001c82b53,62c53a09614ceb72cf758a92,2022-07-06_09h30.31.041,Colour_Asymmetry_Pilot,2022.1.3,Win32,58.83391187,62c50e9c1127f2cd403a315f,0,145,145,106,1,twoone,,,,,,,,,,,,,,,,,,,,,,,,,,,,,,,,,,,,,,,,,,,,,,,,,,,,,,,,,,,,,,,,,,,,,,,,,,,,,,,,,,,,,,,,,,,,,,,,,,,,,,,,,,,,,,,,,,,,,,,,,,,,,,,,,,,,,,,,,,,,,,,,,,,,,,,,,,,,,
,,,,,,5d5fac22e32d920001c82b53,62c53a09614ceb72cf758a92,2022-07-06_09h30.31.041,Colour_Asymmetry_Pilot,2022.1.3,Win32,58.83391187,62c50e9c1127f2cd403a315f,0,146,146,88,1,onetwo,,,,,,,,,,,,,,,,,,,,,,,,,,,,,,,,,,,,,,,,,,,,,,,,,,,,,,,,,,,,,,,,,,,,,,,,,,,,,,,,,,,,,,,,,,,,,,,,,,,,,,,,,,,,,,,,,,,,,,,,,,,,,,,,,,,,,,,,,,,,,,,,,,,,,,,,,,,,,
,,,,,,5d5fac22e32d920001c82b53,62c53a09614ceb72cf758a92,2022-07-06_09h30.31.041,Colour_Asymmetry_Pilot,2022.1.3,Win32,58.83391187,62c50e9c1127f2cd403a315f,0,147,147,95,1,fourthree,,,,,,,,,,,,,,,,,,,,,,,,,,,,,,,,,,,,,,,,,,,,,,,,,,,,,,,,,,,,,,,,,,,,,,,,,,,,,,,,,,,,,,,,,,,,,,,,,,,,,,,,,,,,,,,,,,,,,,,,,,,,,,,,,,,,,,,,,,,,,,,,,,,,,,,,,,,,,
,,,,,,5d5fac22e32d920001c82b53,62c53a09614ceb72cf758a92,2022-07-06_09h30.31.041,Colour_Asymmetry_Pilot,2022.1.3,Win32,58.83391187,62c50e9c1127f2cd403a315f,0,148,148,6,1,fourtwo,,,,,,,,,,,,,,,,,,,,,,,,,,,,,,,,,,,,,,,,,,,,,,,,,,,,,,,,,,,,,,,,,,,,,,,,,,,,,,,,,,,,,,,,,,,,,,,,,,,,,,,,,,,,,,,,,,,,,,,,,,,,,,,,,,,,,,,,,,,,,,,,,,,,,,,,,,,,,
,,,,,,5d5fac22e32d920001c82b53,62c53a09614ceb72cf758a92,2022-07-06_09h30.31.041,Colour_Asymmetry_Pilot,2022.1.3,Win32,58.83391187,62c50e9c1127f2cd403a315f,0,149,149,51,1,twofour,,,,,,,,,,,,,,,,,,,,,,,,,,,,,,,,,,,,,,,,,,,,,,,,,,,,,,,,,,,,,,,,,,,,,,,,,,,,,,,,,,,,,,,,,,,,,,,,,,,,,,,,,,,,,,,,,,,,,,,,,,,,,,,,,,,,,,,,,,,,,,,,,,,,,,,,,,,,,
,,,,,,5d5fac22e32d920001c82b53,62c53a09614ceb72cf758a92,2022-07-06_09h30.31.041,Colour_Asymmetry_Pilot,2022.1.3,Win32,58.83391187,62c50e9c1127f2cd403a315f,0,150,150,80,1,onetwo,,,,,,,,,,,,,,,,,,,,,,,,,,,,,,,,,,,,,,,,,,,,,,,,,,,,,,,,,,,,,,,,,,,,,,,,,,,,,,,,,,,,,,,,,,,,,,,,,,,,,,,,,,,,,,,,,,,,,,,,,,,,,,,,,,,,,,,,,,,,,,,,,,,,,,,,,,,,,
,,,,,,5d5fac22e32d920001c82b53,62c53a09614ceb72cf758a92,2022-07-06_09h30.31.041,Colour_Asymmetry_Pilot,2022.1.3,Win32,58.83391187,62c50e9c1127f2cd403a315f,0,151,151,155,1,twofour,,,,,,,,,,,,,,,,,,,,,,,,,,,,,,,,,,,,,,,,,,,,,,,,,,,,,,,,,,,,,,,,,,,,,,,,,,,,,,,,,,,,,,,,,,,,,,,,,,,,,,,,,,,,,,,,,,,,,,,,,,,,,,,,,,,,,,,,,,,,,,,,,,,,,,,,,,,,,
,,,,,,5d5fac22e32d920001c82b53,62c53a09614ceb72cf758a92,2022-07-06_09h30.31.041,Colour_Asymmetry_Pilot,2022.1.3,Win32,58.83391187,62c50e9c1127f2cd403a315f,0,152,152,111,1,fourthree,,,,,,,,,,,,,,,,,,,,,,,,,,,,,,,,,,,,,,,,,,,,,,,,,,,,,,,,,,,,,,,,,,,,,,,,,,,,,,,,,,,,,,,,,,,,,,,,,,,,,,,,,,,,,,,,,,,,,,,,,,,,,,,,,,,,,,,,,,,,,,,,,,,,,,,,,,,,,
,,,,,,5d5fac22e32d920001c82b53,62c53a09614ceb72cf758a92,2022-07-06_09h30.31.041,Colour_Asymmetry_Pilot,2022.1.3,Win32,58.83391187,62c50e9c1127f2cd403a315f,0,153,153,140,1,threeone,,,,,,,,,,,,,,,,,,,,,,,,,,,,,,,,,,,,,,,,,,,,,,,,,,,,,,,,,,,,,,,,,,,,,,,,,,,,,,,,,,,,,,,,,,,,,,,,,,,,,,,,,,,,,,,,,,,,,,,,,,,,,,,,,,,,,,,,,,,,,,,,,,,,,,,,,,,,,
,,,,,,5d5fac22e32d920001c82b53,62c53a09614ceb72cf758a92,2022-07-06_09h30.31.041,Colour_Asymmetry_Pilot,2022.1.3,Win32,58.83391187,62c50e9c1127f2cd403a315f,0,154,154,2,1,twoone,,,,,,,,,,,,,,,,,,,,,,,,,,,,,,,,,,,,,,,,,,,,,,,,,,,,,,,,,,,,,,,,,,,,,,,,,,,,,,,,,,,,,,,,,,,,,,,,,,,,,,,,,,,,,,,,,,,,,,,,,,,,,,,,,,,,,,,,,,,,,,,,,,,,,,,,,,,,,
,,,,,,5d5fac22e32d920001c82b53,62c53a09614ceb72cf758a92,2022-07-06_09h30.31.041,Colour_Asymmetry_Pilot,2022.1.3,Win32,58.83391187,62c50e9c1127f2cd403a315f,0,155,155,81,1,onethree,,,,,,,,,,,,,,,,,,,,,,,,,,,,,,,,,,,,,,,,,,,,,,,,,,,,,,,,,,,,,,,,,,,,,,,,,,,,,,,,,,,,,,,,,,,,,,,,,,,,,,,,,,,,,,,,,,,,,,,,,,,,,,,,,,,,,,,,,,,,,,,,,,,,,,,,,,,,,
,,,,,,5d5fac22e32d920001c82b53,62c53a09614ceb72cf758a92,2022-07-06_09h30.31.041,Colour_Asymmetry_Pilot,2022.1.3,Win32,58.83391187,62c50e9c1127f2cd403a315f,0,156,156,138,1,twoone,,,,,,,,,,,,,,,,,,,,,,,,,,,,,,,,,,,,,,,,,,,,,,,,,,,,,,,,,,,,,,,,,,,,,,,,,,,,,,,,,,,,,,,,,,,,,,,,,,,,,,,,,,,,,,,,,,,,,,,,,,,,,,,,,,,,,,,,,,,,,,,,,,,,,,,,,,,,,
,,,,,,5d5fac22e32d920001c82b53,62c53a09614ceb72cf758a92,2022-07-06_09h30.31.041,Colour_Asymmetry_Pilot,2022.1.3,Win32,58.83391187,62c50e9c1127f2cd403a315f,0,157,157,77,1,threefour,,,,,,,,,,,,,,,,,,,,,,,,,,,,,,,,,,,,,,,,,,,,,,,,,,,,,,,,,,,,,,,,,,,,,,,,,,,,,,,,,,,,,,,,,,,,,,,,,,,,,,,,,,,,,,,,,,,,,,,,,,,,,,,,,,,,,,,,,,,,,,,,,,,,,,,,,,,,,
,,,,,,5d5fac22e32d920001c82b53,62c53a09614ceb72cf758a92,2022-07-06_09h30.31.041,Colour_Asymmetry_Pilot,2022.1.3,Win32,58.83391187,62c50e9c1127f2cd403a315f,0,158,158,57,1,onethree,,,,,,,,,,,,,,,,,,,,,,,,,,,,,,,,,,,,,,,,,,,,,,,,,,,,,,,,,,,,,,,,,,,,,,,,,,,,,,,,,,,,,,,,,,,,,,,,,,,,,,,,,,,,,,,,,,,,,,,,,,,,,,,,,,,,,,,,,,,,,,,,,,,,,,,,,,,,,
,,,,,,5d5fac22e32d920001c82b53,62c53a09614ceb72cf758a92,2022-07-06_09h30.31.041,Colour_Asymmetry_Pilot,2022.1.3,Win32,58.83391187,62c50e9c1127f2cd403a315f,0,159,159,55,1,fourthree,,,,,,,,,,,,,,,,,,,,,,,,,,,,,,,,,,,,,,,,,,,,,,,,,,,,,,,,,,,,,,,,,,,,,,,,,,,,,,,,,,,,,,,,,,,,,,,,,,,,,,,,,,,,,,,,,,,,,,,,,,,,,,,,,,,,,,,,,,,,,,,,,,,,,,,,,,,,,
,,,,,,5d5fac22e32d920001c82b53,62c53a09614ceb72cf758a92,2022-07-06_09h30.31.041,Colour_Asymmetry_Pilot,2022.1.3,Win32,58.83391187,62c50e9c1127f2cd403a315f,0,160,160,26,1,twoone,,,,,,,,,,,,,,,,,,,,,,,,,,,,,,,,,,,,,,,,,,,,,,,,,,,,,,,,,,,,,,,,,,,,,,,,,,,,,,,,,,,,,,,,,,,,,,,,,,,,,,,,,,,,,,,,,,,,,,,,,,,,,,,,,,,,,,,,,,,,,,,,,,,,,,,,,,,,,
,,,,,,5d5fac22e32d920001c82b53,62c53a09614ceb72cf758a92,2022-07-06_09h30.31.041,Colour_Asymmetry_Pilot,2022.1.3,Win32,58.83391187,62c50e9c1127f2cd403a315f,0,161,161,44,1,threeone,,,,,,,,,,,,,,,,,,,,,,,,,,,,,,,,,,,,,,,,,,,,,,,,,,,,,,,,,,,,,,,,,,,,,,,,,,,,,,,,,,,,,,,,,,,,,,,,,,,,,,,,,,,,,,,,,,,,,,,,,,,,,,,,,,,,,,,,,,,,,,,,,,,,,,,,,,,,,
,,,,,,5d5fac22e32d920001c82b53,62c53a09614ceb72cf758a92,2022-07-06_09h30.31.041,Colour_Asymmetry_Pilot,2022.1.3,Win32,58.83391187,62c50e9c1127f2cd403a315f,,,,,,,space,4.4621,space,8.8362,space,45.8875,space,13.0602,space,3.014,space,6.4267,"[0.6547999999999998,-0.043199999999999905,-0.011800000000000033]",fourtwo,"[0.7018,0.7802,-0.16079999999999994]",-3,15.3334,-95.20001221,52.79998779,1,0,0,response7disk_5,15.20001221,-2.399993896,1,0,0,rectangle_8,15.20001221,-2.399993896,1,0,0,1,15.20001221,-2.399993896,1,0,0,0,0,0,0,1,,,,,,,,,,,,,,,,,,,,,,,,,,,,,,,,,,,,,,,,,,,,,,,,,,,,,,,,,,,,,,,,,,,,,,,,,,,,,,,,,,,,,,,,,,,,,,,,,,,,,,,,,,,,,,,,
,,,,,,5d5fac22e32d920001c82b53,62c53a09614ceb72cf758a92,2022-07-06_09h30.31.041,Colour_Asymmetry_Pilot,2022.1.3,Win32,58.83391187,62c50e9c1127f2cd403a315f,,,,,,,,,,,,,,,,,,,"[0.7646000000000002,0.07440000000000002,0.2704]",twofour,"[0.8115999999999999,-0.0040000000000000036,-0.09819999999999995]",1,5.4145,64.79998779,-112,1,0,0,response3disk_5,4,2.399993896,1,0,0,rectangle_8,4,2.399993896,1,0,0,1,4,2.399993896,1,0,0,1,0,1,0,1,,,,,,,,,,,,,,,,,,,,,,,,,,,,,,,,,,,,,,,,,,,,,,,,,,,,,,,,,,,,,,,,,,,,,,,,,,,,,,,,,,,,,,,,,,,,,,,,,,,,,,,,,,,,,,,,
,,,,,,5d5fac22e32d920001c82b53,62c53a09614ceb72cf758a92,2022-07-06_09h30.31.041,Colour_Asymmetry_Pilot,2022.1.3,Win32,58.83391187,62c50e9c1127f2cd403a315f,,,,,,,,,,,,,,,,,,,"[0.04299999999999993,0.16060000000000008,-0.6628000000000001]",twoone,"[0.8115999999999999,-0.0040000000000000036,-0.09819999999999995]",-4,4.3648,-26.39996338,112.7999878,1,0,0,response7disk_5,4.799987793,2.399993896,1,0,0,rectangle_8,4.799987793,2.399993896,1,0,0,1,4.799987793,2.399993896,1,0,0,2,0,2,0,1,,,,,,,,,,,,,,,,,,,,,,,,,,,,,,,,,,,,,,,,,,,,,,,,,,,,,,,,,,,,,,,,,,,,,,,,,,,,,,,,,,,,,,,,,,,,,,,,,,,,,,,,,,,,,,,,
,,,,,,5d5fac22e32d920001c82b53,62c53a09614ceb72cf758a92,2022-07-06_09h30.31.041,Colour_Asymmetry_Pilot,2022.1.3,Win32,58.83391187,62c50e9c1127f2cd403a315f,,,,,,,,,,,,,,,,,,,"[-0.2942,-0.24719999999999998,-0.357]",twoone,"[-0.4746,-0.0354000000000001,0.5449999999999999]",-3,5.7142,-77.59997559,40,1,0,0,response7disk_5,-2.399963379,-4,1,0,0,rectangle_8,57.60003662,-100.7999878,1,0,0,1,-3.200012207,-6.399993896,1,0,0,3,0,3,0,1,response3disk_7,4,rectangle_4,,,,,,,,,,,,,,,,,,,,,,,,,,,,,,,,,,,,,,,,,,,,,,,,,,,,,,,,,,,,,,,,,,,,,,,,,,,,,,,,,,,,,,,,,,,,,,,,,,,,,,,,,,,,,
,,,,,,5d5fac22e32d920001c82b53,62c53a09614ceb72cf758a92,2022-07-06_09h30.31.041,Colour_Asymmetry_Pilot,2022.1.3,Win32,58.83391187,62c50e9c1127f2cd403a315f,,,,,,,,,,,,,,,,,,,"[-0.8198,-0.5138,-0.7492000000000001]",threeone,"[0.3568,-0.20799999999999996,-0.9844]",-4,2.7656,-36,58.3999939,1,0,0,response7disk_5,0.799987793,2.399993896,1,0,0,rectangle_8,0.799987793,2.399993896,1,0,0,1,0.799987793,2.399993896,1,0,0,4,0,4,0,1,,,,,,,,,,,,,,,,,,,,,,,,,,,,,,,,,,,,,,,,,,,,,,,,,,,,,,,,,,,,,,,,,,,,,,,,,,,,,,,,,,,,,,,,,,,,,,,,,,,,,,,,,,,,,,,,
,,,,,,5d5fac22e32d920001c82b53,62c53a09614ceb72cf758a92,2022-07-06_09h30.31.041,Colour_Asymmetry_Pilot,2022.1.3,Win32,58.83391187,62c50e9c1127f2cd403a315f,,,,,,,,,,,,,,,,,,,"[-0.6235999999999999,-0.6786,-0.08239999999999992]",onethree,"[-0.4902000000000001,0.2704,-0.45899999999999996]",-4,2.3986,-36,79.19998169,1,0,0,response7disk_5,-4.799987793,-2.399993896,1,0,0,rectangle_8,42.40002441,-127.2000122,1,0,0,1,0.799987793,0.799987793,1,0,0,5,0,5,0,1,response3disk_7,4,rectangle_4,,,,,,,,,,,,,,,,,,,,,,,,,,,,,,,,,,,,,,,,,,,,,,,,,,,,,,,,,,,,,,,,,,,,,,,,,,,,,,,,,,,,,,,,,,,,,,,,,,,,,,,,,,,,,
,,,,,,5d5fac22e32d920001c82b53,62c53a09614ceb72cf758a92,2022-07-06_09h30.31.041,Colour_Asymmetry_Pilot,2022.1.3,Win32,58.83391187,62c50e9c1127f2cd403a315f,,,,,,,,,,,,,,,,,,,"[-0.9296,-0.12959999999999994,-0.043199999999999905]",twofour,"[-0.9844,-0.9688,-0.9922]",-2,4.0146,-100.7999878,-56.80001831,1,0,0,response5disk_5,-7.200012207,-8,1,0,0,rectangle_8,-7.200012207,-8,1,0,0,1,-7.200012207,-8,1,0,0,6,0,6,0,1,,,,,,,,,,,,,,,,,,,,,,,,,,,,,,,,,,,,,,,,,,,,,,,,,,,,,,,,,,,,,,,,,,,,,,,,,,,,,,,,,,,,,,,,,,,,,,,,,,,,,,,,,,,,,,,,
,,,,,,5d5fac22e32d920001c82b53,62c53a09614ceb72cf758a92,2022-07-06_09h30.31.041,Colour_Asymmetry_Pilot,2022.1.3,Win32,58.83391187,62c50e9c1127f2cd403a315f,,,,,,,,,,,,,,,,,,,,fourtwo,,-3,8.1765,,,,,,,,,,,,,,,,,,,,,,,,,,,,,,,,space,28.1845,"[-0.9296,-0.12959999999999994,-0.043199999999999905]","[-0.20799999999999996,-0.655,-0.01980000000000004]",-115.2000122,43.19998169,1,0,0,response7disk,0.799987793,-5.600006104,1,0,0,rectangle,0.799987793,-5.600006104,1,0,0,,2,0.0034,0,0.799987793,-5.600006104,1,0,0,0,0,0,7,1,7,first,,,,,,,,,,,,,,,,,,,,,,,,,,,,,,,,,,,,,,,,,,,,,,,,,,,,,,,,,,,,,,,,,,,,,,,,
,,,,,,5d5fac22e32d920001c82b53,62c53a09614ceb72cf758a92,2022-07-06_09h30.31.041,Colour_Asymmetry_Pilot,2022.1.3,Win32,58.83391187,62c50e9c1127f2cd403a315f,,,,,,,,,,,,,,,,,,,,fourthree,,-3,4.2484,,,,,,,,,,,,,,,,,,,,,,,,,,,,,,,,,,"[-0.38039999999999996,-0.4276,-0.1452]","[0.5449999999999999,-0.31000000000000005,-0.0354000000000001]",-71.20001221,41.6000061,1,0,0,response7disk,-18.39996338,-6.399993896,1,0,0,rectangle,-18.39996338,-6.399993896,1,0,0,,1,0.0022,0,-18.39996338,-6.399993896,1,0,0,0,1,1,129,1,48,second,,,,,,,,,,,,,,,,,,,,,,,,,,,,,,,,,,,,,,,,,,,,,,,,,,,,,,,,,,,,,,,,,,,,,,,,
,,,,,,5d5fac22e32d920001c82b53,62c53a09614ceb72cf758a92,2022-07-06_09h30.31.041,Colour_Asymmetry_Pilot,2022.1.3,Win32,58.83391187,62c50e9c1127f2cd403a315f,,,,,,,,,,,,,,,,,,,,onethree,,-3,2.3159,,,,,,,,,,,,,,,,,,,,,,,,,,,,,,,,,,"[0.7018,0.7176,0.6155999999999999]","[0.9372,0.20779999999999998,0.2704]",-95.20001221,44.79998779,1,0,0,response7disk,-8.799987793,-1.600006104,1,0,0,rectangle,-8.799987793,-1.600006104,1,0,0,,1,0.0001,0,-8.799987793,-1.600006104,1,0,0,0,2,2,30,1,30,first,,,,,,,,,,,,,,,,,,,,,,,,,,,,,,,,,,,,,,,,,,,,,,,,,,,,,,,,,,,,,,,,,,,,,,,,
,,,,,,5d5fac22e32d920001c82b53,62c53a09614ceb72cf758a92,2022-07-06_09h30.31.041,Colour_Asymmetry_Pilot,2022.1.3,Win32,58.83391187,62c50e9c1127f2cd403a315f,,,,,,,,,,,,,,,,,,,,onethree,,-4,1.0828,,,,,,,,,,,,,,,,,,,,,,,,,,,,,,,,,,"[-0.9216,-0.5529999999999999,-0.3962]","[0.9686000000000001,0.5763999999999998,0.11359999999999992]",-50.39996338,78.3999939,1,0,0,response7disk,-4,16.79998779,1,0,0,rectangle,-4,16.79998779,1,0,0,,2,0.002,0,-4,16.79998779,1,0,0,0,3,3,106,1,25,second,,,,,,,,,,,,,,,,,,,,,,,,,,,,,,,,,,,,,,,,,,,,,,,,,,,,,,,,,,,,,,,,,,,,,,,,
,,,,,,5d5fac22e32d920001c82b53,62c53a09614ceb72cf758a92,2022-07-06_09h30.31.041,Colour_Asymmetry_Pilot,2022.1.3,Win32,58.83391187,62c50e9c1127f2cd403a315f,,,,,,,,,,,,,,,,,,,,threeone,,3,4.2476,,,,,,,,,,,,,,,,,,,,,,,,,,,,,,,,,,"[0.6625999999999999,0.4980000000000002,-0.357]","[0.34099999999999997,0.5841999999999998,-0.9844]",65.60003662,36,1,0,0,response1disk,5.600036621,-7.200012207,1,0,0,rectangle,5.600036621,-7.200012207,1,0,0,,3,0.0017,0,5.600036621,-7.200012207,1,0,0,0,4,4,118,1,37,second,,,,,,,,,,,,,,,,,,,,,,,,,,,,,,,,,,,,,,,,,,,,,,,,,,,,,,,,,,,,,,,,,,,,,,,,
,,,,,,5d5fac22e32d920001c82b53,62c53a09614ceb72cf758a92,2022-07-06_09h30.31.041,Colour_Asymmetry_Pilot,2022.1.3,Win32,58.83391187,62c50e9c1127f2cd403a315f,,,,,,,,,,,,,,,,,,,,twofour,,-4,1.1995,,,,,,,,,,,,,,,,,,,,,,,,,,,,,,,,,,"[-0.8198,-0.5138,-0.7492000000000001]","[0.9686000000000001,0.3802000000000001,0.19999999999999996]",-28,95.19998169,1,0,0,response7disk,24,-1.600006104,1,0,0,rectangle,24,-1.600006104,1,0,0,,1,0.0021,0,24,-1.600006104,1,0,0,0,5,5,53,1,53,first,,,,,,,,,,,,,,,,,,,,,,,,,,,,,,,,,,,,,,,,,,,,,,,,,,,,,,,,,,,,,,,,,,,,,,,,
,,,,,,5d5fac22e32d920001c82b53,62c53a09614ceb72cf758a92,2022-07-06_09h30.31.041,Colour_Asymmetry_Pilot,2022.1.3,Win32,58.83391187,62c50e9c1127f2cd403a315f,,,,,,,,,,,,,,,,,,,,onetwo,,-4,0.7497,,,,,,,,,,,,,,,,,,,,,,,,,,,,,,,,,,"[0.3881999999999999,-0.23939999999999995,-0.05040000000000011]","[-0.9296,-0.12959999999999994,-0.043199999999999905]",-58.39996338,104,1,0,0,response7disk,12,-4,1,0,0,rectangle,12,-4,1,0,0,,1,0.0001,0,12,-4,1,0,0,0,6,6,158,1,77,second,,,,,,,,,,,,,,,,,,,,,,,,,,,,,,,,,,,,,,,,,,,,,,,,,,,,,,,,,,,,,,,,,,,,,,,,
,,,,,,5d5fac22e32d920001c82b53,62c53a09614ceb72cf758a92,2022-07-06_09h30.31.041,Colour_Asymmetry_Pilot,2022.1.3,Win32,58.83391187,62c50e9c1127f2cd403a315f,,,,,,,,,,,,,,,,,,,,twofour,,1,2.7495,,,,,,,,,,,,,,,,,,,,,,,,,,,,,,,,,,"[-0.9688,-0.38039999999999996,-0.41979999999999995]","[-0.17659999999999998,-0.2864,-0.8354]",57.60003662,-96,1,0,0,response3disk,7.200012207,-2.399993896,1,0,0,rectangle,7.200012207,-2.399993896,1,0,0,,2,0.0018,0,7.200012207,-2.399993896,1,0,0,0,7,7,150,1,69,second,,,,,,,,,,,,,,,,,,,,,,,,,,,,,,,,,,,,,,,,,,,,,,,,,,,,,,,,,,,,,,,,,,,,,,,,
,,,,,,5d5fac22e32d920001c82b53,62c53a09614ceb72cf758a92,2022-07-06_09h30.31.041,Colour_Asymmetry_Pilot,2022.1.3,Win32,58.83391187,62c50e9c1127f2cd403a315f,,,,,,,,,,,,,,,,,,,,fourtwo,,-3,9.3627,,,,,,,,,,,,,,,,,,,,,,,,,,,,,,,,,,"[-0.0040000000000000036,0.02739999999999987,-0.08239999999999992]","[-0.050999999999999934,-0.6706000000000001,-0.804]",-104.7999878,38.3999939,1,0,0,response7disk,-0.799987793,-0.800018311,1,0,0,rectangle,-0.799987793,-0.800018311,1,0,0,,3,0.0017,0,-0.799987793,-0.800018311,1,0,0,0,8,8,85,1,4,second,,,,,,,,,,,,,,,,,,,,,,,,,,,,,,,,,,,,,,,,,,,,,,,,,,,,,,,,,,,,,,,,,,,,,,,,
,,,,,,5d5fac22e32d920001c82b53,62c53a09614ceb72cf758a92,2022-07-06_09h30.31.041,Colour_Asymmetry_Pilot,2022.1.3,Win32,58.83391187,62c50e9c1127f2cd403a315f,,,,,,,,,,,,,,,,,,,,onethree,,-4,1.5824,,,,,,,,,,,,,,,,,,,,,,,,,,,,,,,,,,"[-0.050999999999999934,-0.6706000000000001,-0.804]","[0.37240000000000006,0.4980000000000002,-0.2864]",-38.39996338,66.3999939,1,0,0,response7disk,-8.799987793,-0.800018311,1,0,0,rectangle,-8.799987793,-0.800018311,1,0,0,,2,0.0019,0,-8.799987793,-0.800018311,1,0,0,0,9,9,79,1,79,first,,,,,,,,,,,,,,,,,,,,,,,,,,,,,,,,,,,,,,,,,,,,,,,,,,,,,,,,,,,,,,,,,,,,,,,,
,,,,,,5d5fac22e32d920001c82b53,62c53a09614ceb72cf758a92,2022-07-06_09h30.31.041,Colour_Asymmetry_Pilot,2022.1.3,Win32,58.83391187,62c50e9c1127f2cd403a315f,,,,,,,,,,,,,,,,,,,,twofour,,1,9.7626,,,,,,,,,,,,,,,,,,,,,,,,,,,,,,,,,,"[-0.10599999999999998,-0.10599999999999998,0.5841999999999998]","[-0.4982,-0.2942,-0.0354000000000001]",45.60003662,-116,1,0,0,response3disk,-12,-8.800018311,1,0,0,rectangle,104,-40.80001831,1,0,0,2,2,2.7335,1,-8,11.19998169,1,0,0,0,10,10,104,1,23,second,response3disk_3,rectangle,,,,,,,,,,,,,,,,,,,,,,,,,,,,,,,,,,,,,,,,,,,,,,,,,,,,,,,,,,,,,,,,,,,,,,
,,,,,,5d5fac22e32d920001c82b53,62c53a09614ceb72cf758a92,2022-07-06_09h30.31.041,Colour_Asymmetry_Pilot,2022.1.3,Win32,58.83391187,62c50e9c1127f2cd403a315f,,,,,,,,,,,,,,,,,,,,fourthree,,1,4.5816,,,,,,,,,,,,,,,,,,,,,,,,,,,,,,,,,,"[-0.17659999999999998,-0.2864,-0.8354]","[-0.9688,-0.38039999999999996,-0.41979999999999995]",33.60003662,-123.2000122,1,0,0,response3disk,-6.399963379,-0.800018311,1,0,0,rectangle,-6.399963379,-0.800018311,1,0,0,2,3,0.0021,0,-6.399963379,-0.800018311,1,0,0,0,11,11,69,1,69,first,,,,,,,,,,,,,,,,,,,,,,,,,,,,,,,,,,,,,,,,,,,,,,,,,,,,,,,,,,,,,,,,,,,,,,,,
,,,,,,5d5fac22e32d920001c82b53,62c53a09614ceb72cf758a92,2022-07-06_09h30.31.041,Colour_Asymmetry_Pilot,2022.1.3,Win32,58.83391187,62c50e9c1127f2cd403a315f,,,,,,,,,,,,,,,,,,,,threefour,,-4,2.066,,,,,,,,,,,,,,,,,,,,,,,,,,,,,,,,,,"[0.0351999999999999,0.41159999999999997,0.0038000000000000256]","[-0.5922000000000001,-0.7492000000000001,-0.5296000000000001]",-42.39996338,67.19998169,1,0,0,response7disk,-24,-1.600006104,1,0,0,rectangle,-24,-1.600006104,1,0,0,2,2,0.0013,0,-24,-1.600006104,1,0,0,0,12,12,103,1,22,second,,,,,,,,,,,,,,,,,,,,,,,,,,,,,,,,,,,,,,,,,,,,,,,,,,,,,,,,,,,,,,,,,,,,,,,,
,,,,,,5d5fac22e32d920001c82b53,62c53a09614ceb72cf758a92,2022-07-06_09h30.31.041,Colour_Asymmetry_Pilot,2022.1.3,Win32,58.83391187,62c50e9c1127f2cd403a315f,,,,,,,,,,,,,,,,,,,,onethree,,-4,1.5997,,,,,,,,,,,,,,,,,,,,,,,,,,,,,,,,,,"[0.2862,0.7802,0.3568]","[0.8274000000000001,-0.5844,-0.9452]",-36.79998779,78.3999939,1,0,0,response7disk,-20.79998779,8.799987793,1,0,0,rectangle,-20.79998779,8.799987793,1,0,0,2,3,0.0021,0,-20.79998779,8.799987793,1,0,0,0,13,13,80,1,80,first,,,,,,,,,,,,,,,,,,,,,,,,,,,,,,,,,,,,,,,,,,,,,,,,,,,,,,,,,,,,,,,,,,,,,,,,
,,,,,,5d5fac22e32d920001c82b53,62c53a09614ceb72cf758a92,2022-07-06_09h30.31.041,Colour_Asymmetry_Pilot,2022.1.3,Win32,58.83391187,62c50e9c1127f2cd403a315f,,,,,,,,,,,,,,,,,,,,twofour,,-4,0.6998,,,,,,,,,,,,,,,,,,,,,,,,,,,,,,,,,,"[-0.8198,-0.5138,-0.7492000000000001]","[0.7018,0.7176,0.6155999999999999]",-47.20001221,76.79998779,1,0,0,response7disk,-22.39996338,-11.20001221,1,0,0,rectangle,-22.39996338,-11.20001221,1,0,0,2,3,0.0001,0,-22.39996338,-11.20001221,1,0,0,0,14,14,27,1,27,first,,,,,,,,,,,,,,,,,,,,,,,,,,,,,,,,,,,,,,,,,,,,,,,,,,,,,,,,,,,,,,,,,,,,,,,,
