trials.thisRepN,trials.thisTrialN,trials.thisN,trials.thisIndex,trials.ran,Colourcodes,participant,session,date,expName,psychopyVersion,OS,frameRate,study_id,trials_4.thisRepN,trials_4.thisTrialN,trials_4.thisN,trials_4.thisIndex,trials_4.ran,StimulusPos,key_resp.keys,key_resp.rt,key_resp_2.keys,key_resp_2.rt,key_resp_15.keys,key_resp_15.rt,key_resp_17.keys,key_resp_17.rt,key_resp_9.keys,key_resp_9.rt,key_resp_10.keys,key_resp_10.rt,Circle1_col,Ecc,Circle2_col,similarity,response_time,mouse_5.x,mouse_5.y,mouse_5.leftButton,mouse_5.midButton,mouse_5.rightButton,mouse_5.clicked_name,mouse_10.x,mouse_10.y,mouse_10.leftButton,mouse_10.midButton,mouse_10.rightButton,mouse_10.clicked_name,mouse_7.x,mouse_7.y,mouse_7.leftButton,mouse_7.midButton,mouse_7.rightButton,mouse_7.clicked_name,catchprac,catchnumberprac,mouse_6.x,mouse_6.y,mouse_6.leftButton,mouse_6.midButton,mouse_6.rightButton,mouse_6.clicked_name,duringprac.thisRepN,duringprac.thisTrialN,duringprac.thisN,duringprac.thisIndex,duringprac.ran,key_resp_22.keys,key_resp_22.rt,Circle1_colour,Circle2_colour,mouse.x,mouse.y,mouse.leftButton,mouse.midButton,mouse.rightButton,mouse.clicked_name,mouse_2.x,mouse_2.y,mouse_2.leftButton,mouse_2.midButton,mouse_2.rightButton,mouse_2.clicked_name,mouse_3.x,mouse_3.y,mouse_3.leftButton,mouse_3.midButton,mouse_3.rightButton,catchresponse,catchnumber,response_time_catch,Catch,mouse_11.x,mouse_11.y,mouse_11.leftButton,mouse_11.midButton,mouse_11.rightButton,trials_2.thisRepN,trials_2.thisTrialN,trials_2.thisN,trials_2.thisIndex,trials_2.ran,Colourpair,Temporder,mouse_3.clicked_name,mouse_11.clicked_name,trials_3.thisRepN,trials_3.thisTrialN,trials_3.thisN,trials_3.thisIndex,trials_3.ran,key_resp_instr_Ishi.keys,key_resp_instr_Ishi.rt,Ishi_trial_keyresp.keys,Ishi_textbox.text,Ishi_mouse.x,Ishi_mouse.y,Ishi_mouse.leftButton,Ishi_mouse.midButton,Ishi_mouse.rightButton,Ishi_mouse.clicked_name,Ishi_loop.thisRepN,Ishi_loop.thisTrialN,Ishi_loop.thisN,Ishi_loop.thisIndex,Ishi_loop.ran,imageaddress,textbox.text,mouse_4.x,mouse_4.y,mouse_4.leftButton,mouse_4.midButton,mouse_4.rightButton,mouse_4.clicked_name,textbox_2.text,mouse_8.x,mouse_8.y,mouse_8.leftButton,mouse_8.midButton,mouse_8.rightButton,mouse_8.clicked_name,textbox_3.text,mouse_9.x,mouse_9.y,mouse_9.leftButton,mouse_9.midButton,mouse_9.rightButton,mouse_9.clicked_name,textbox_4.text,mouse_12.x,mouse_12.y,mouse_12.leftButton,mouse_12.midButton,mouse_12.rightButton,mouse_12.clicked_name,textbox_5.text,mouse_13.x,mouse_13.y,mouse_13.leftButton,mouse_13.midButton,mouse_13.rightButton,mouse_13.clicked_name,textbox_6.text,mouse_14.x,mouse_14.y,mouse_14.leftButton,mouse_14.midButton,mouse_14.rightButton,mouse_14.clicked_name,textbox_7.text,mouse_15.x,mouse_15.y,mouse_15.leftButton,mouse_15.midButton,mouse_15.rightButton,mouse_15.clicked_name
0,0,0,55,1,,5dd81eb38ed6bf7c5be5eff3,62c539a87453ccbf503cd803,2022-07-06_09h34.35.067,Colour_Asymmetry_Pilot,2022.1.3,Win32,57.28689276,62c50e9c1127f2cd403a315f,,,,,,,,,,,,,,,,,,,,,,,,,,,,,,,,,,,,,,,,,,,,,,,,,,,,,,,,,,,,,,,,,,,,,,,,,,,,,,,,,,,,,,,,,,,,,,,,,,,,,,,,,,,,,,,,,,,,,,,,,,,,,,,,,,,,,,,,,,,,,,,,,,,,,,,,,,,,,,,,,,,
0,1,1,48,1,,5dd81eb38ed6bf7c5be5eff3,62c539a87453ccbf503cd803,2022-07-06_09h34.35.067,Colour_Asymmetry_Pilot,2022.1.3,Win32,57.28689276,62c50e9c1127f2cd403a315f,,,,,,,,,,,,,,,,,,,,,,,,,,,,,,,,,,,,,,,,,,,,,,,,,,,,,,,,,,,,,,,,,,,,,,,,,,,,,,,,,,,,,,,,,,,,,,,,,,,,,,,,,,,,,,,,,,,,,,,,,,,,,,,,,,,,,,,,,,,,,,,,,,,,,,,,,,,,,,,,,,,
0,2,2,61,1,,5dd81eb38ed6bf7c5be5eff3,62c539a87453ccbf503cd803,2022-07-06_09h34.35.067,Colour_Asymmetry_Pilot,2022.1.3,Win32,57.28689276,62c50e9c1127f2cd403a315f,,,,,,,,,,,,,,,,,,,,,,,,,,,,,,,,,,,,,,,,,,,,,,,,,,,,,,,,,,,,,,,,,,,,,,,,,,,,,,,,,,,,,,,,,,,,,,,,,,,,,,,,,,,,,,,,,,,,,,,,,,,,,,,,,,,,,,,,,,,,,,,,,,,,,,,,,,,,,,,,,,,
0,3,3,57,1,,5dd81eb38ed6bf7c5be5eff3,62c539a87453ccbf503cd803,2022-07-06_09h34.35.067,Colour_Asymmetry_Pilot,2022.1.3,Win32,57.28689276,62c50e9c1127f2cd403a315f,,,,,,,,,,,,,,,,,,,,,,,,,,,,,,,,,,,,,,,,,,,,,,,,,,,,,,,,,,,,,,,,,,,,,,,,,,,,,,,,,,,,,,,,,,,,,,,,,,,,,,,,,,,,,,,,,,,,,,,,,,,,,,,,,,,,,,,,,,,,,,,,,,,,,,,,,,,,,,,,,,,
0,4,4,59,1,,5dd81eb38ed6bf7c5be5eff3,62c539a87453ccbf503cd803,2022-07-06_09h34.35.067,Colour_Asymmetry_Pilot,2022.1.3,Win32,57.28689276,62c50e9c1127f2cd403a315f,,,,,,,,,,,,,,,,,,,,,,,,,,,,,,,,,,,,,,,,,,,,,,,,,,,,,,,,,,,,,,,,,,,,,,,,,,,,,,,,,,,,,,,,,,,,,,,,,,,,,,,,,,,,,,,,,,,,,,,,,,,,,,,,,,,,,,,,,,,,,,,,,,,,,,,,,,,,,,,,,,,
0,5,5,11,1,,5dd81eb38ed6bf7c5be5eff3,62c539a87453ccbf503cd803,2022-07-06_09h34.35.067,Colour_Asymmetry_Pilot,2022.1.3,Win32,57.28689276,62c50e9c1127f2cd403a315f,,,,,,,,,,,,,,,,,,,,,,,,,,,,,,,,,,,,,,,,,,,,,,,,,,,,,,,,,,,,,,,,,,,,,,,,,,,,,,,,,,,,,,,,,,,,,,,,,,,,,,,,,,,,,,,,,,,,,,,,,,,,,,,,,,,,,,,,,,,,,,,,,,,,,,,,,,,,,,,,,,,
0,6,6,44,1,,5dd81eb38ed6bf7c5be5eff3,62c539a87453ccbf503cd803,2022-07-06_09h34.35.067,Colour_Asymmetry_Pilot,2022.1.3,Win32,57.28689276,62c50e9c1127f2cd403a315f,,,,,,,,,,,,,,,,,,,,,,,,,,,,,,,,,,,,,,,,,,,,,,,,,,,,,,,,,,,,,,,,,,,,,,,,,,,,,,,,,,,,,,,,,,,,,,,,,,,,,,,,,,,,,,,,,,,,,,,,,,,,,,,,,,,,,,,,,,,,,,,,,,,,,,,,,,,,,,,,,,,
0,7,7,1,1,,5dd81eb38ed6bf7c5be5eff3,62c539a87453ccbf503cd803,2022-07-06_09h34.35.067,Colour_Asymmetry_Pilot,2022.1.3,Win32,57.28689276,62c50e9c1127f2cd403a315f,,,,,,,,,,,,,,,,,,,,,,,,,,,,,,,,,,,,,,,,,,,,,,,,,,,,,,,,,,,,,,,,,,,,,,,,,,,,,,,,,,,,,,,,,,,,,,,,,,,,,,,,,,,,,,,,,,,,,,,,,,,,,,,,,,,,,,,,,,,,,,,,,,,,,,,,,,,,,,,,,,,
0,8,8,39,1,,5dd81eb38ed6bf7c5be5eff3,62c539a87453ccbf503cd803,2022-07-06_09h34.35.067,Colour_Asymmetry_Pilot,2022.1.3,Win32,57.28689276,62c50e9c1127f2cd403a315f,,,,,,,,,,,,,,,,,,,,,,,,,,,,,,,,,,,,,,,,,,,,,,,,,,,,,,,,,,,,,,,,,,,,,,,,,,,,,,,,,,,,,,,,,,,,,,,,,,,,,,,,,,,,,,,,,,,,,,,,,,,,,,,,,,,,,,,,,,,,,,,,,,,,,,,,,,,,,,,,,,,
0,9,9,78,1,,5dd81eb38ed6bf7c5be5eff3,62c539a87453ccbf503cd803,2022-07-06_09h34.35.067,Colour_Asymmetry_Pilot,2022.1.3,Win32,57.28689276,62c50e9c1127f2cd403a315f,,,,,,,,,,,,,,,,,,,,,,,,,,,,,,,,,,,,,,,,,,,,,,,,,,,,,,,,,,,,,,,,,,,,,,,,,,,,,,,,,,,,,,,,,,,,,,,,,,,,,,,,,,,,,,,,,,,,,,,,,,,,,,,,,,,,,,,,,,,,,,,,,,,,,,,,,,,,,,,,,,,
0,10,10,51,1,,5dd81eb38ed6bf7c5be5eff3,62c539a87453ccbf503cd803,2022-07-06_09h34.35.067,Colour_Asymmetry_Pilot,2022.1.3,Win32,57.28689276,62c50e9c1127f2cd403a315f,,,,,,,,,,,,,,,,,,,,,,,,,,,,,,,,,,,,,,,,,,,,,,,,,,,,,,,,,,,,,,,,,,,,,,,,,,,,,,,,,,,,,,,,,,,,,,,,,,,,,,,,,,,,,,,,,,,,,,,,,,,,,,,,,,,,,,,,,,,,,,,,,,,,,,,,,,,,,,,,,,,
0,11,11,71,1,,5dd81eb38ed6bf7c5be5eff3,62c539a87453ccbf503cd803,2022-07-06_09h34.35.067,Colour_Asymmetry_Pilot,2022.1.3,Win32,57.28689276,62c50e9c1127f2cd403a315f,,,,,,,,,,,,,,,,,,,,,,,,,,,,,,,,,,,,,,,,,,,,,,,,,,,,,,,,,,,,,,,,,,,,,,,,,,,,,,,,,,,,,,,,,,,,,,,,,,,,,,,,,,,,,,,,,,,,,,,,,,,,,,,,,,,,,,,,,,,,,,,,,,,,,,,,,,,,,,,,,,,
0,12,12,27,1,,5dd81eb38ed6bf7c5be5eff3,62c539a87453ccbf503cd803,2022-07-06_09h34.35.067,Colour_Asymmetry_Pilot,2022.1.3,Win32,57.28689276,62c50e9c1127f2cd403a315f,,,,,,,,,,,,,,,,,,,,,,,,,,,,,,,,,,,,,,,,,,,,,,,,,,,,,,,,,,,,,,,,,,,,,,,,,,,,,,,,,,,,,,,,,,,,,,,,,,,,,,,,,,,,,,,,,,,,,,,,,,,,,,,,,,,,,,,,,,,,,,,,,,,,,,,,,,,,,,,,,,,
0,13,13,85,1,,5dd81eb38ed6bf7c5be5eff3,62c539a87453ccbf503cd803,2022-07-06_09h34.35.067,Colour_Asymmetry_Pilot,2022.1.3,Win32,57.28689276,62c50e9c1127f2cd403a315f,,,,,,,,,,,,,,,,,,,,,,,,,,,,,,,,,,,,,,,,,,,,,,,,,,,,,,,,,,,,,,,,,,,,,,,,,,,,,,,,,,,,,,,,,,,,,,,,,,,,,,,,,,,,,,,,,,,,,,,,,,,,,,,,,,,,,,,,,,,,,,,,,,,,,,,,,,,,,,,,,,,
0,14,14,8,1,,5dd81eb38ed6bf7c5be5eff3,62c539a87453ccbf503cd803,2022-07-06_09h34.35.067,Colour_Asymmetry_Pilot,2022.1.3,Win32,57.28689276,62c50e9c1127f2cd403a315f,,,,,,,,,,,,,,,,,,,,,,,,,,,,,,,,,,,,,,,,,,,,,,,,,,,,,,,,,,,,,,,,,,,,,,,,,,,,,,,,,,,,,,,,,,,,,,,,,,,,,,,,,,,,,,,,,,,,,,,,,,,,,,,,,,,,,,,,,,,,,,,,,,,,,,,,,,,,,,,,,,,
0,15,15,28,1,,5dd81eb38ed6bf7c5be5eff3,62c539a87453ccbf503cd803,2022-07-06_09h34.35.067,Colour_Asymmetry_Pilot,2022.1.3,Win32,57.28689276,62c50e9c1127f2cd403a315f,,,,,,,,,,,,,,,,,,,,,,,,,,,,,,,,,,,,,,,,,,,,,,,,,,,,,,,,,,,,,,,,,,,,,,,,,,,,,,,,,,,,,,,,,,,,,,,,,,,,,,,,,,,,,,,,,,,,,,,,,,,,,,,,,,,,,,,,,,,,,,,,,,,,,,,,,,,,,,,,,,,
0,16,16,86,1,,5dd81eb38ed6bf7c5be5eff3,62c539a87453ccbf503cd803,2022-07-06_09h34.35.067,Colour_Asymmetry_Pilot,2022.1.3,Win32,57.28689276,62c50e9c1127f2cd403a315f,,,,,,,,,,,,,,,,,,,,,,,,,,,,,,,,,,,,,,,,,,,,,,,,,,,,,,,,,,,,,,,,,,,,,,,,,,,,,,,,,,,,,,,,,,,,,,,,,,,,,,,,,,,,,,,,,,,,,,,,,,,,,,,,,,,,,,,,,,,,,,,,,,,,,,,,,,,,,,,,,,,
0,17,17,81,1,,5dd81eb38ed6bf7c5be5eff3,62c539a87453ccbf503cd803,2022-07-06_09h34.35.067,Colour_Asymmetry_Pilot,2022.1.3,Win32,57.28689276,62c50e9c1127f2cd403a315f,,,,,,,,,,,,,,,,,,,,,,,,,,,,,,,,,,,,,,,,,,,,,,,,,,,,,,,,,,,,,,,,,,,,,,,,,,,,,,,,,,,,,,,,,,,,,,,,,,,,,,,,,,,,,,,,,,,,,,,,,,,,,,,,,,,,,,,,,,,,,,,,,,,,,,,,,,,,,,,,,,,
0,18,18,50,1,,5dd81eb38ed6bf7c5be5eff3,62c539a87453ccbf503cd803,2022-07-06_09h34.35.067,Colour_Asymmetry_Pilot,2022.1.3,Win32,57.28689276,62c50e9c1127f2cd403a315f,,,,,,,,,,,,,,,,,,,,,,,,,,,,,,,,,,,,,,,,,,,,,,,,,,,,,,,,,,,,,,,,,,,,,,,,,,,,,,,,,,,,,,,,,,,,,,,,,,,,,,,,,,,,,,,,,,,,,,,,,,,,,,,,,,,,,,,,,,,,,,,,,,,,,,,,,,,,,,,,,,,
0,19,19,79,1,,5dd81eb38ed6bf7c5be5eff3,62c539a87453ccbf503cd803,2022-07-06_09h34.35.067,Colour_Asymmetry_Pilot,2022.1.3,Win32,57.28689276,62c50e9c1127f2cd403a315f,,,,,,,,,,,,,,,,,,,,,,,,,,,,,,,,,,,,,,,,,,,,,,,,,,,,,,,,,,,,,,,,,,,,,,,,,,,,,,,,,,,,,,,,,,,,,,,,,,,,,,,,,,,,,,,,,,,,,,,,,,,,,,,,,,,,,,,,,,,,,,,,,,,,,,,,,,,,,,,,,,,
0,20,20,35,1,,5dd81eb38ed6bf7c5be5eff3,62c539a87453ccbf503cd803,2022-07-06_09h34.35.067,Colour_Asymmetry_Pilot,2022.1.3,Win32,57.28689276,62c50e9c1127f2cd403a315f,,,,,,,,,,,,,,,,,,,,,,,,,,,,,,,,,,,,,,,,,,,,,,,,,,,,,,,,,,,,,,,,,,,,,,,,,,,,,,,,,,,,,,,,,,,,,,,,,,,,,,,,,,,,,,,,,,,,,,,,,,,,,,,,,,,,,,,,,,,,,,,,,,,,,,,,,,,,,,,,,,,
0,21,21,66,1,,5dd81eb38ed6bf7c5be5eff3,62c539a87453ccbf503cd803,2022-07-06_09h34.35.067,Colour_Asymmetry_Pilot,2022.1.3,Win32,57.28689276,62c50e9c1127f2cd403a315f,,,,,,,,,,,,,,,,,,,,,,,,,,,,,,,,,,,,,,,,,,,,,,,,,,,,,,,,,,,,,,,,,,,,,,,,,,,,,,,,,,,,,,,,,,,,,,,,,,,,,,,,,,,,,,,,,,,,,,,,,,,,,,,,,,,,,,,,,,,,,,,,,,,,,,,,,,,,,,,,,,,
0,22,22,9,1,,5dd81eb38ed6bf7c5be5eff3,62c539a87453ccbf503cd803,2022-07-06_09h34.35.067,Colour_Asymmetry_Pilot,2022.1.3,Win32,57.28689276,62c50e9c1127f2cd403a315f,,,,,,,,,,,,,,,,,,,,,,,,,,,,,,,,,,,,,,,,,,,,,,,,,,,,,,,,,,,,,,,,,,,,,,,,,,,,,,,,,,,,,,,,,,,,,,,,,,,,,,,,,,,,,,,,,,,,,,,,,,,,,,,,,,,,,,,,,,,,,,,,,,,,,,,,,,,,,,,,,,,
0,23,23,31,1,,5dd81eb38ed6bf7c5be5eff3,62c539a87453ccbf503cd803,2022-07-06_09h34.35.067,Colour_Asymmetry_Pilot,2022.1.3,Win32,57.28689276,62c50e9c1127f2cd403a315f,,,,,,,,,,,,,,,,,,,,,,,,,,,,,,,,,,,,,,,,,,,,,,,,,,,,,,,,,,,,,,,,,,,,,,,,,,,,,,,,,,,,,,,,,,,,,,,,,,,,,,,,,,,,,,,,,,,,,,,,,,,,,,,,,,,,,,,,,,,,,,,,,,,,,,,,,,,,,,,,,,,
0,24,24,37,1,,5dd81eb38ed6bf7c5be5eff3,62c539a87453ccbf503cd803,2022-07-06_09h34.35.067,Colour_Asymmetry_Pilot,2022.1.3,Win32,57.28689276,62c50e9c1127f2cd403a315f,,,,,,,,,,,,,,,,,,,,,,,,,,,,,,,,,,,,,,,,,,,,,,,,,,,,,,,,,,,,,,,,,,,,,,,,,,,,,,,,,,,,,,,,,,,,,,,,,,,,,,,,,,,,,,,,,,,,,,,,,,,,,,,,,,,,,,,,,,,,,,,,,,,,,,,,,,,,,,,,,,,
0,25,25,16,1,,5dd81eb38ed6bf7c5be5eff3,62c539a87453ccbf503cd803,2022-07-06_09h34.35.067,Colour_Asymmetry_Pilot,2022.1.3,Win32,57.28689276,62c50e9c1127f2cd403a315f,,,,,,,,,,,,,,,,,,,,,,,,,,,,,,,,,,,,,,,,,,,,,,,,,,,,,,,,,,,,,,,,,,,,,,,,,,,,,,,,,,,,,,,,,,,,,,,,,,,,,,,,,,,,,,,,,,,,,,,,,,,,,,,,,,,,,,,,,,,,,,,,,,,,,,,,,,,,,,,,,,,
0,26,26,47,1,,5dd81eb38ed6bf7c5be5eff3,62c539a87453ccbf503cd803,2022-07-06_09h34.35.067,Colour_Asymmetry_Pilot,2022.1.3,Win32,57.28689276,62c50e9c1127f2cd403a315f,,,,,,,,,,,,,,,,,,,,,,,,,,,,,,,,,,,,,,,,,,,,,,,,,,,,,,,,,,,,,,,,,,,,,,,,,,,,,,,,,,,,,,,,,,,,,,,,,,,,,,,,,,,,,,,,,,,,,,,,,,,,,,,,,,,,,,,,,,,,,,,,,,,,,,,,,,,,,,,,,,,
0,27,27,26,1,,5dd81eb38ed6bf7c5be5eff3,62c539a87453ccbf503cd803,2022-07-06_09h34.35.067,Colour_Asymmetry_Pilot,2022.1.3,Win32,57.28689276,62c50e9c1127f2cd403a315f,,,,,,,,,,,,,,,,,,,,,,,,,,,,,,,,,,,,,,,,,,,,,,,,,,,,,,,,,,,,,,,,,,,,,,,,,,,,,,,,,,,,,,,,,,,,,,,,,,,,,,,,,,,,,,,,,,,,,,,,,,,,,,,,,,,,,,,,,,,,,,,,,,,,,,,,,,,,,,,,,,,
0,28,28,69,1,,5dd81eb38ed6bf7c5be5eff3,62c539a87453ccbf503cd803,2022-07-06_09h34.35.067,Colour_Asymmetry_Pilot,2022.1.3,Win32,57.28689276,62c50e9c1127f2cd403a315f,,,,,,,,,,,,,,,,,,,,,,,,,,,,,,,,,,,,,,,,,,,,,,,,,,,,,,,,,,,,,,,,,,,,,,,,,,,,,,,,,,,,,,,,,,,,,,,,,,,,,,,,,,,,,,,,,,,,,,,,,,,,,,,,,,,,,,,,,,,,,,,,,,,,,,,,,,,,,,,,,,,
0,29,29,10,1,,5dd81eb38ed6bf7c5be5eff3,62c539a87453ccbf503cd803,2022-07-06_09h34.35.067,Colour_Asymmetry_Pilot,2022.1.3,Win32,57.28689276,62c50e9c1127f2cd403a315f,,,,,,,,,,,,,,,,,,,,,,,,,,,,,,,,,,,,,,,,,,,,,,,,,,,,,,,,,,,,,,,,,,,,,,,,,,,,,,,,,,,,,,,,,,,,,,,,,,,,,,,,,,,,,,,,,,,,,,,,,,,,,,,,,,,,,,,,,,,,,,,,,,,,,,,,,,,,,,,,,,,
0,30,30,25,1,,5dd81eb38ed6bf7c5be5eff3,62c539a87453ccbf503cd803,2022-07-06_09h34.35.067,Colour_Asymmetry_Pilot,2022.1.3,Win32,57.28689276,62c50e9c1127f2cd403a315f,,,,,,,,,,,,,,,,,,,,,,,,,,,,,,,,,,,,,,,,,,,,,,,,,,,,,,,,,,,,,,,,,,,,,,,,,,,,,,,,,,,,,,,,,,,,,,,,,,,,,,,,,,,,,,,,,,,,,,,,,,,,,,,,,,,,,,,,,,,,,,,,,,,,,,,,,,,,,,,,,,,
0,31,31,7,1,,5dd81eb38ed6bf7c5be5eff3,62c539a87453ccbf503cd803,2022-07-06_09h34.35.067,Colour_Asymmetry_Pilot,2022.1.3,Win32,57.28689276,62c50e9c1127f2cd403a315f,,,,,,,,,,,,,,,,,,,,,,,,,,,,,,,,,,,,,,,,,,,,,,,,,,,,,,,,,,,,,,,,,,,,,,,,,,,,,,,,,,,,,,,,,,,,,,,,,,,,,,,,,,,,,,,,,,,,,,,,,,,,,,,,,,,,,,,,,,,,,,,,,,,,,,,,,,,,,,,,,,,
0,32,32,90,1,,5dd81eb38ed6bf7c5be5eff3,62c539a87453ccbf503cd803,2022-07-06_09h34.35.067,Colour_Asymmetry_Pilot,2022.1.3,Win32,57.28689276,62c50e9c1127f2cd403a315f,,,,,,,,,,,,,,,,,,,,,,,,,,,,,,,,,,,,,,,,,,,,,,,,,,,,,,,,,,,,,,,,,,,,,,,,,,,,,,,,,,,,,,,,,,,,,,,,,,,,,,,,,,,,,,,,,,,,,,,,,,,,,,,,,,,,,,,,,,,,,,,,,,,,,,,,,,,,,,,,,,,
0,33,33,72,1,,5dd81eb38ed6bf7c5be5eff3,62c539a87453ccbf503cd803,2022-07-06_09h34.35.067,Colour_Asymmetry_Pilot,2022.1.3,Win32,57.28689276,62c50e9c1127f2cd403a315f,,,,,,,,,,,,,,,,,,,,,,,,,,,,,,,,,,,,,,,,,,,,,,,,,,,,,,,,,,,,,,,,,,,,,,,,,,,,,,,,,,,,,,,,,,,,,,,,,,,,,,,,,,,,,,,,,,,,,,,,,,,,,,,,,,,,,,,,,,,,,,,,,,,,,,,,,,,,,,,,,,,
0,34,34,17,1,,5dd81eb38ed6bf7c5be5eff3,62c539a87453ccbf503cd803,2022-07-06_09h34.35.067,Colour_Asymmetry_Pilot,2022.1.3,Win32,57.28689276,62c50e9c1127f2cd403a315f,,,,,,,,,,,,,,,,,,,,,,,,,,,,,,,,,,,,,,,,,,,,,,,,,,,,,,,,,,,,,,,,,,,,,,,,,,,,,,,,,,,,,,,,,,,,,,,,,,,,,,,,,,,,,,,,,,,,,,,,,,,,,,,,,,,,,,,,,,,,,,,,,,,,,,,,,,,,,,,,,,,
0,35,35,41,1,,5dd81eb38ed6bf7c5be5eff3,62c539a87453ccbf503cd803,2022-07-06_09h34.35.067,Colour_Asymmetry_Pilot,2022.1.3,Win32,57.28689276,62c50e9c1127f2cd403a315f,,,,,,,,,,,,,,,,,,,,,,,,,,,,,,,,,,,,,,,,,,,,,,,,,,,,,,,,,,,,,,,,,,,,,,,,,,,,,,,,,,,,,,,,,,,,,,,,,,,,,,,,,,,,,,,,,,,,,,,,,,,,,,,,,,,,,,,,,,,,,,,,,,,,,,,,,,,,,,,,,,,
0,36,36,58,1,,5dd81eb38ed6bf7c5be5eff3,62c539a87453ccbf503cd803,2022-07-06_09h34.35.067,Colour_Asymmetry_Pilot,2022.1.3,Win32,57.28689276,62c50e9c1127f2cd403a315f,,,,,,,,,,,,,,,,,,,,,,,,,,,,,,,,,,,,,,,,,,,,,,,,,,,,,,,,,,,,,,,,,,,,,,,,,,,,,,,,,,,,,,,,,,,,,,,,,,,,,,,,,,,,,,,,,,,,,,,,,,,,,,,,,,,,,,,,,,,,,,,,,,,,,,,,,,,,,,,,,,,
0,37,37,68,1,,5dd81eb38ed6bf7c5be5eff3,62c539a87453ccbf503cd803,2022-07-06_09h34.35.067,Colour_Asymmetry_Pilot,2022.1.3,Win32,57.28689276,62c50e9c1127f2cd403a315f,,,,,,,,,,,,,,,,,,,,,,,,,,,,,,,,,,,,,,,,,,,,,,,,,,,,,,,,,,,,,,,,,,,,,,,,,,,,,,,,,,,,,,,,,,,,,,,,,,,,,,,,,,,,,,,,,,,,,,,,,,,,,,,,,,,,,,,,,,,,,,,,,,,,,,,,,,,,,,,,,,,
0,38,38,18,1,,5dd81eb38ed6bf7c5be5eff3,62c539a87453ccbf503cd803,2022-07-06_09h34.35.067,Colour_Asymmetry_Pilot,2022.1.3,Win32,57.28689276,62c50e9c1127f2cd403a315f,,,,,,,,,,,,,,,,,,,,,,,,,,,,,,,,,,,,,,,,,,,,,,,,,,,,,,,,,,,,,,,,,,,,,,,,,,,,,,,,,,,,,,,,,,,,,,,,,,,,,,,,,,,,,,,,,,,,,,,,,,,,,,,,,,,,,,,,,,,,,,,,,,,,,,,,,,,,,,,,,,,
0,39,39,89,1,,5dd81eb38ed6bf7c5be5eff3,62c539a87453ccbf503cd803,2022-07-06_09h34.35.067,Colour_Asymmetry_Pilot,2022.1.3,Win32,57.28689276,62c50e9c1127f2cd403a315f,,,,,,,,,,,,,,,,,,,,,,,,,,,,,,,,,,,,,,,,,,,,,,,,,,,,,,,,,,,,,,,,,,,,,,,,,,,,,,,,,,,,,,,,,,,,,,,,,,,,,,,,,,,,,,,,,,,,,,,,,,,,,,,,,,,,,,,,,,,,,,,,,,,,,,,,,,,,,,,,,,,
0,40,40,23,1,,5dd81eb38ed6bf7c5be5eff3,62c539a87453ccbf503cd803,2022-07-06_09h34.35.067,Colour_Asymmetry_Pilot,2022.1.3,Win32,57.28689276,62c50e9c1127f2cd403a315f,,,,,,,,,,,,,,,,,,,,,,,,,,,,,,,,,,,,,,,,,,,,,,,,,,,,,,,,,,,,,,,,,,,,,,,,,,,,,,,,,,,,,,,,,,,,,,,,,,,,,,,,,,,,,,,,,,,,,,,,,,,,,,,,,,,,,,,,,,,,,,,,,,,,,,,,,,,,,,,,,,,
0,41,41,2,1,,5dd81eb38ed6bf7c5be5eff3,62c539a87453ccbf503cd803,2022-07-06_09h34.35.067,Colour_Asymmetry_Pilot,2022.1.3,Win32,57.28689276,62c50e9c1127f2cd403a315f,,,,,,,,,,,,,,,,,,,,,,,,,,,,,,,,,,,,,,,,,,,,,,,,,,,,,,,,,,,,,,,,,,,,,,,,,,,,,,,,,,,,,,,,,,,,,,,,,,,,,,,,,,,,,,,,,,,,,,,,,,,,,,,,,,,,,,,,,,,,,,,,,,,,,,,,,,,,,,,,,,,
0,42,42,15,1,,5dd81eb38ed6bf7c5be5eff3,62c539a87453ccbf503cd803,2022-07-06_09h34.35.067,Colour_Asymmetry_Pilot,2022.1.3,Win32,57.28689276,62c50e9c1127f2cd403a315f,,,,,,,,,,,,,,,,,,,,,,,,,,,,,,,,,,,,,,,,,,,,,,,,,,,,,,,,,,,,,,,,,,,,,,,,,,,,,,,,,,,,,,,,,,,,,,,,,,,,,,,,,,,,,,,,,,,,,,,,,,,,,,,,,,,,,,,,,,,,,,,,,,,,,,,,,,,,,,,,,,,
0,43,43,30,1,,5dd81eb38ed6bf7c5be5eff3,62c539a87453ccbf503cd803,2022-07-06_09h34.35.067,Colour_Asymmetry_Pilot,2022.1.3,Win32,57.28689276,62c50e9c1127f2cd403a315f,,,,,,,,,,,,,,,,,,,,,,,,,,,,,,,,,,,,,,,,,,,,,,,,,,,,,,,,,,,,,,,,,,,,,,,,,,,,,,,,,,,,,,,,,,,,,,,,,,,,,,,,,,,,,,,,,,,,,,,,,,,,,,,,,,,,,,,,,,,,,,,,,,,,,,,,,,,,,,,,,,,
0,44,44,56,1,,5dd81eb38ed6bf7c5be5eff3,62c539a87453ccbf503cd803,2022-07-06_09h34.35.067,Colour_Asymmetry_Pilot,2022.1.3,Win32,57.28689276,62c50e9c1127f2cd403a315f,,,,,,,,,,,,,,,,,,,,,,,,,,,,,,,,,,,,,,,,,,,,,,,,,,,,,,,,,,,,,,,,,,,,,,,,,,,,,,,,,,,,,,,,,,,,,,,,,,,,,,,,,,,,,,,,,,,,,,,,,,,,,,,,,,,,,,,,,,,,,,,,,,,,,,,,,,,,,,,,,,,
0,45,45,33,1,,5dd81eb38ed6bf7c5be5eff3,62c539a87453ccbf503cd803,2022-07-06_09h34.35.067,Colour_Asymmetry_Pilot,2022.1.3,Win32,57.28689276,62c50e9c1127f2cd403a315f,,,,,,,,,,,,,,,,,,,,,,,,,,,,,,,,,,,,,,,,,,,,,,,,,,,,,,,,,,,,,,,,,,,,,,,,,,,,,,,,,,,,,,,,,,,,,,,,,,,,,,,,,,,,,,,,,,,,,,,,,,,,,,,,,,,,,,,,,,,,,,,,,,,,,,,,,,,,,,,,,,,
0,46,46,77,1,,5dd81eb38ed6bf7c5be5eff3,62c539a87453ccbf503cd803,2022-07-06_09h34.35.067,Colour_Asymmetry_Pilot,2022.1.3,Win32,57.28689276,62c50e9c1127f2cd403a315f,,,,,,,,,,,,,,,,,,,,,,,,,,,,,,,,,,,,,,,,,,,,,,,,,,,,,,,,,,,,,,,,,,,,,,,,,,,,,,,,,,,,,,,,,,,,,,,,,,,,,,,,,,,,,,,,,,,,,,,,,,,,,,,,,,,,,,,,,,,,,,,,,,,,,,,,,,,,,,,,,,,
0,47,47,80,1,,5dd81eb38ed6bf7c5be5eff3,62c539a87453ccbf503cd803,2022-07-06_09h34.35.067,Colour_Asymmetry_Pilot,2022.1.3,Win32,57.28689276,62c50e9c1127f2cd403a315f,,,,,,,,,,,,,,,,,,,,,,,,,,,,,,,,,,,,,,,,,,,,,,,,,,,,,,,,,,,,,,,,,,,,,,,,,,,,,,,,,,,,,,,,,,,,,,,,,,,,,,,,,,,,,,,,,,,,,,,,,,,,,,,,,,,,,,,,,,,,,,,,,,,,,,,,,,,,,,,,,,,
0,48,48,87,1,,5dd81eb38ed6bf7c5be5eff3,62c539a87453ccbf503cd803,2022-07-06_09h34.35.067,Colour_Asymmetry_Pilot,2022.1.3,Win32,57.28689276,62c50e9c1127f2cd403a315f,,,,,,,,,,,,,,,,,,,,,,,,,,,,,,,,,,,,,,,,,,,,,,,,,,,,,,,,,,,,,,,,,,,,,,,,,,,,,,,,,,,,,,,,,,,,,,,,,,,,,,,,,,,,,,,,,,,,,,,,,,,,,,,,,,,,,,,,,,,,,,,,,,,,,,,,,,,,,,,,,,,
0,49,49,20,1,,5dd81eb38ed6bf7c5be5eff3,62c539a87453ccbf503cd803,2022-07-06_09h34.35.067,Colour_Asymmetry_Pilot,2022.1.3,Win32,57.28689276,62c50e9c1127f2cd403a315f,,,,,,,,,,,,,,,,,,,,,,,,,,,,,,,,,,,,,,,,,,,,,,,,,,,,,,,,,,,,,,,,,,,,,,,,,,,,,,,,,,,,,,,,,,,,,,,,,,,,,,,,,,,,,,,,,,,,,,,,,,,,,,,,,,,,,,,,,,,,,,,,,,,,,,,,,,,,,,,,,,,
0,50,50,32,1,,5dd81eb38ed6bf7c5be5eff3,62c539a87453ccbf503cd803,2022-07-06_09h34.35.067,Colour_Asymmetry_Pilot,2022.1.3,Win32,57.28689276,62c50e9c1127f2cd403a315f,,,,,,,,,,,,,,,,,,,,,,,,,,,,,,,,,,,,,,,,,,,,,,,,,,,,,,,,,,,,,,,,,,,,,,,,,,,,,,,,,,,,,,,,,,,,,,,,,,,,,,,,,,,,,,,,,,,,,,,,,,,,,,,,,,,,,,,,,,,,,,,,,,,,,,,,,,,,,,,,,,,
0,51,51,64,1,,5dd81eb38ed6bf7c5be5eff3,62c539a87453ccbf503cd803,2022-07-06_09h34.35.067,Colour_Asymmetry_Pilot,2022.1.3,Win32,57.28689276,62c50e9c1127f2cd403a315f,,,,,,,,,,,,,,,,,,,,,,,,,,,,,,,,,,,,,,,,,,,,,,,,,,,,,,,,,,,,,,,,,,,,,,,,,,,,,,,,,,,,,,,,,,,,,,,,,,,,,,,,,,,,,,,,,,,,,,,,,,,,,,,,,,,,,,,,,,,,,,,,,,,,,,,,,,,,,,,,,,,
0,52,52,45,1,,5dd81eb38ed6bf7c5be5eff3,62c539a87453ccbf503cd803,2022-07-06_09h34.35.067,Colour_Asymmetry_Pilot,2022.1.3,Win32,57.28689276,62c50e9c1127f2cd403a315f,,,,,,,,,,,,,,,,,,,,,,,,,,,,,,,,,,,,,,,,,,,,,,,,,,,,,,,,,,,,,,,,,,,,,,,,,,,,,,,,,,,,,,,,,,,,,,,,,,,,,,,,,,,,,,,,,,,,,,,,,,,,,,,,,,,,,,,,,,,,,,,,,,,,,,,,,,,,,,,,,,,
0,53,53,29,1,,5dd81eb38ed6bf7c5be5eff3,62c539a87453ccbf503cd803,2022-07-06_09h34.35.067,Colour_Asymmetry_Pilot,2022.1.3,Win32,57.28689276,62c50e9c1127f2cd403a315f,,,,,,,,,,,,,,,,,,,,,,,,,,,,,,,,,,,,,,,,,,,,,,,,,,,,,,,,,,,,,,,,,,,,,,,,,,,,,,,,,,,,,,,,,,,,,,,,,,,,,,,,,,,,,,,,,,,,,,,,,,,,,,,,,,,,,,,,,,,,,,,,,,,,,,,,,,,,,,,,,,,
0,54,54,5,1,,5dd81eb38ed6bf7c5be5eff3,62c539a87453ccbf503cd803,2022-07-06_09h34.35.067,Colour_Asymmetry_Pilot,2022.1.3,Win32,57.28689276,62c50e9c1127f2cd403a315f,,,,,,,,,,,,,,,,,,,,,,,,,,,,,,,,,,,,,,,,,,,,,,,,,,,,,,,,,,,,,,,,,,,,,,,,,,,,,,,,,,,,,,,,,,,,,,,,,,,,,,,,,,,,,,,,,,,,,,,,,,,,,,,,,,,,,,,,,,,,,,,,,,,,,,,,,,,,,,,,,,,
0,55,55,36,1,,5dd81eb38ed6bf7c5be5eff3,62c539a87453ccbf503cd803,2022-07-06_09h34.35.067,Colour_Asymmetry_Pilot,2022.1.3,Win32,57.28689276,62c50e9c1127f2cd403a315f,,,,,,,,,,,,,,,,,,,,,,,,,,,,,,,,,,,,,,,,,,,,,,,,,,,,,,,,,,,,,,,,,,,,,,,,,,,,,,,,,,,,,,,,,,,,,,,,,,,,,,,,,,,,,,,,,,,,,,,,,,,,,,,,,,,,,,,,,,,,,,,,,,,,,,,,,,,,,,,,,,,
0,56,56,76,1,,5dd81eb38ed6bf7c5be5eff3,62c539a87453ccbf503cd803,2022-07-06_09h34.35.067,Colour_Asymmetry_Pilot,2022.1.3,Win32,57.28689276,62c50e9c1127f2cd403a315f,,,,,,,,,,,,,,,,,,,,,,,,,,,,,,,,,,,,,,,,,,,,,,,,,,,,,,,,,,,,,,,,,,,,,,,,,,,,,,,,,,,,,,,,,,,,,,,,,,,,,,,,,,,,,,,,,,,,,,,,,,,,,,,,,,,,,,,,,,,,,,,,,,,,,,,,,,,,,,,,,,,
0,57,57,24,1,,5dd81eb38ed6bf7c5be5eff3,62c539a87453ccbf503cd803,2022-07-06_09h34.35.067,Colour_Asymmetry_Pilot,2022.1.3,Win32,57.28689276,62c50e9c1127f2cd403a315f,,,,,,,,,,,,,,,,,,,,,,,,,,,,,,,,,,,,,,,,,,,,,,,,,,,,,,,,,,,,,,,,,,,,,,,,,,,,,,,,,,,,,,,,,,,,,,,,,,,,,,,,,,,,,,,,,,,,,,,,,,,,,,,,,,,,,,,,,,,,,,,,,,,,,,,,,,,,,,,,,,,
0,58,58,38,1,,5dd81eb38ed6bf7c5be5eff3,62c539a87453ccbf503cd803,2022-07-06_09h34.35.067,Colour_Asymmetry_Pilot,2022.1.3,Win32,57.28689276,62c50e9c1127f2cd403a315f,,,,,,,,,,,,,,,,,,,,,,,,,,,,,,,,,,,,,,,,,,,,,,,,,,,,,,,,,,,,,,,,,,,,,,,,,,,,,,,,,,,,,,,,,,,,,,,,,,,,,,,,,,,,,,,,,,,,,,,,,,,,,,,,,,,,,,,,,,,,,,,,,,,,,,,,,,,,,,,,,,,
0,59,59,42,1,,5dd81eb38ed6bf7c5be5eff3,62c539a87453ccbf503cd803,2022-07-06_09h34.35.067,Colour_Asymmetry_Pilot,2022.1.3,Win32,57.28689276,62c50e9c1127f2cd403a315f,,,,,,,,,,,,,,,,,,,,,,,,,,,,,,,,,,,,,,,,,,,,,,,,,,,,,,,,,,,,,,,,,,,,,,,,,,,,,,,,,,,,,,,,,,,,,,,,,,,,,,,,,,,,,,,,,,,,,,,,,,,,,,,,,,,,,,,,,,,,,,,,,,,,,,,,,,,,,,,,,,,
0,60,60,88,1,,5dd81eb38ed6bf7c5be5eff3,62c539a87453ccbf503cd803,2022-07-06_09h34.35.067,Colour_Asymmetry_Pilot,2022.1.3,Win32,57.28689276,62c50e9c1127f2cd403a315f,,,,,,,,,,,,,,,,,,,,,,,,,,,,,,,,,,,,,,,,,,,,,,,,,,,,,,,,,,,,,,,,,,,,,,,,,,,,,,,,,,,,,,,,,,,,,,,,,,,,,,,,,,,,,,,,,,,,,,,,,,,,,,,,,,,,,,,,,,,,,,,,,,,,,,,,,,,,,,,,,,,
0,61,61,34,1,,5dd81eb38ed6bf7c5be5eff3,62c539a87453ccbf503cd803,2022-07-06_09h34.35.067,Colour_Asymmetry_Pilot,2022.1.3,Win32,57.28689276,62c50e9c1127f2cd403a315f,,,,,,,,,,,,,,,,,,,,,,,,,,,,,,,,,,,,,,,,,,,,,,,,,,,,,,,,,,,,,,,,,,,,,,,,,,,,,,,,,,,,,,,,,,,,,,,,,,,,,,,,,,,,,,,,,,,,,,,,,,,,,,,,,,,,,,,,,,,,,,,,,,,,,,,,,,,,,,,,,,,
0,62,62,52,1,,5dd81eb38ed6bf7c5be5eff3,62c539a87453ccbf503cd803,2022-07-06_09h34.35.067,Colour_Asymmetry_Pilot,2022.1.3,Win32,57.28689276,62c50e9c1127f2cd403a315f,,,,,,,,,,,,,,,,,,,,,,,,,,,,,,,,,,,,,,,,,,,,,,,,,,,,,,,,,,,,,,,,,,,,,,,,,,,,,,,,,,,,,,,,,,,,,,,,,,,,,,,,,,,,,,,,,,,,,,,,,,,,,,,,,,,,,,,,,,,,,,,,,,,,,,,,,,,,,,,,,,,
0,63,63,54,1,,5dd81eb38ed6bf7c5be5eff3,62c539a87453ccbf503cd803,2022-07-06_09h34.35.067,Colour_Asymmetry_Pilot,2022.1.3,Win32,57.28689276,62c50e9c1127f2cd403a315f,,,,,,,,,,,,,,,,,,,,,,,,,,,,,,,,,,,,,,,,,,,,,,,,,,,,,,,,,,,,,,,,,,,,,,,,,,,,,,,,,,,,,,,,,,,,,,,,,,,,,,,,,,,,,,,,,,,,,,,,,,,,,,,,,,,,,,,,,,,,,,,,,,,,,,,,,,,,,,,,,,,
0,64,64,13,1,,5dd81eb38ed6bf7c5be5eff3,62c539a87453ccbf503cd803,2022-07-06_09h34.35.067,Colour_Asymmetry_Pilot,2022.1.3,Win32,57.28689276,62c50e9c1127f2cd403a315f,,,,,,,,,,,,,,,,,,,,,,,,,,,,,,,,,,,,,,,,,,,,,,,,,,,,,,,,,,,,,,,,,,,,,,,,,,,,,,,,,,,,,,,,,,,,,,,,,,,,,,,,,,,,,,,,,,,,,,,,,,,,,,,,,,,,,,,,,,,,,,,,,,,,,,,,,,,,,,,,,,,
0,65,65,43,1,,5dd81eb38ed6bf7c5be5eff3,62c539a87453ccbf503cd803,2022-07-06_09h34.35.067,Colour_Asymmetry_Pilot,2022.1.3,Win32,57.28689276,62c50e9c1127f2cd403a315f,,,,,,,,,,,,,,,,,,,,,,,,,,,,,,,,,,,,,,,,,,,,,,,,,,,,,,,,,,,,,,,,,,,,,,,,,,,,,,,,,,,,,,,,,,,,,,,,,,,,,,,,,,,,,,,,,,,,,,,,,,,,,,,,,,,,,,,,,,,,,,,,,,,,,,,,,,,,,,,,,,,
0,66,66,74,1,,5dd81eb38ed6bf7c5be5eff3,62c539a87453ccbf503cd803,2022-07-06_09h34.35.067,Colour_Asymmetry_Pilot,2022.1.3,Win32,57.28689276,62c50e9c1127f2cd403a315f,,,,,,,,,,,,,,,,,,,,,,,,,,,,,,,,,,,,,,,,,,,,,,,,,,,,,,,,,,,,,,,,,,,,,,,,,,,,,,,,,,,,,,,,,,,,,,,,,,,,,,,,,,,,,,,,,,,,,,,,,,,,,,,,,,,,,,,,,,,,,,,,,,,,,,,,,,,,,,,,,,,
0,67,67,46,1,,5dd81eb38ed6bf7c5be5eff3,62c539a87453ccbf503cd803,2022-07-06_09h34.35.067,Colour_Asymmetry_Pilot,2022.1.3,Win32,57.28689276,62c50e9c1127f2cd403a315f,,,,,,,,,,,,,,,,,,,,,,,,,,,,,,,,,,,,,,,,,,,,,,,,,,,,,,,,,,,,,,,,,,,,,,,,,,,,,,,,,,,,,,,,,,,,,,,,,,,,,,,,,,,,,,,,,,,,,,,,,,,,,,,,,,,,,,,,,,,,,,,,,,,,,,,,,,,,,,,,,,,
0,68,68,63,1,,5dd81eb38ed6bf7c5be5eff3,62c539a87453ccbf503cd803,2022-07-06_09h34.35.067,Colour_Asymmetry_Pilot,2022.1.3,Win32,57.28689276,62c50e9c1127f2cd403a315f,,,,,,,,,,,,,,,,,,,,,,,,,,,,,,,,,,,,,,,,,,,,,,,,,,,,,,,,,,,,,,,,,,,,,,,,,,,,,,,,,,,,,,,,,,,,,,,,,,,,,,,,,,,,,,,,,,,,,,,,,,,,,,,,,,,,,,,,,,,,,,,,,,,,,,,,,,,,,,,,,,,
0,69,69,0,1,,5dd81eb38ed6bf7c5be5eff3,62c539a87453ccbf503cd803,2022-07-06_09h34.35.067,Colour_Asymmetry_Pilot,2022.1.3,Win32,57.28689276,62c50e9c1127f2cd403a315f,,,,,,,,,,,,,,,,,,,,,,,,,,,,,,,,,,,,,,,,,,,,,,,,,,,,,,,,,,,,,,,,,,,,,,,,,,,,,,,,,,,,,,,,,,,,,,,,,,,,,,,,,,,,,,,,,,,,,,,,,,,,,,,,,,,,,,,,,,,,,,,,,,,,,,,,,,,,,,,,,,,
0,70,70,75,1,,5dd81eb38ed6bf7c5be5eff3,62c539a87453ccbf503cd803,2022-07-06_09h34.35.067,Colour_Asymmetry_Pilot,2022.1.3,Win32,57.28689276,62c50e9c1127f2cd403a315f,,,,,,,,,,,,,,,,,,,,,,,,,,,,,,,,,,,,,,,,,,,,,,,,,,,,,,,,,,,,,,,,,,,,,,,,,,,,,,,,,,,,,,,,,,,,,,,,,,,,,,,,,,,,,,,,,,,,,,,,,,,,,,,,,,,,,,,,,,,,,,,,,,,,,,,,,,,,,,,,,,,
0,71,71,82,1,,5dd81eb38ed6bf7c5be5eff3,62c539a87453ccbf503cd803,2022-07-06_09h34.35.067,Colour_Asymmetry_Pilot,2022.1.3,Win32,57.28689276,62c50e9c1127f2cd403a315f,,,,,,,,,,,,,,,,,,,,,,,,,,,,,,,,,,,,,,,,,,,,,,,,,,,,,,,,,,,,,,,,,,,,,,,,,,,,,,,,,,,,,,,,,,,,,,,,,,,,,,,,,,,,,,,,,,,,,,,,,,,,,,,,,,,,,,,,,,,,,,,,,,,,,,,,,,,,,,,,,,,
0,72,72,83,1,,5dd81eb38ed6bf7c5be5eff3,62c539a87453ccbf503cd803,2022-07-06_09h34.35.067,Colour_Asymmetry_Pilot,2022.1.3,Win32,57.28689276,62c50e9c1127f2cd403a315f,,,,,,,,,,,,,,,,,,,,,,,,,,,,,,,,,,,,,,,,,,,,,,,,,,,,,,,,,,,,,,,,,,,,,,,,,,,,,,,,,,,,,,,,,,,,,,,,,,,,,,,,,,,,,,,,,,,,,,,,,,,,,,,,,,,,,,,,,,,,,,,,,,,,,,,,,,,,,,,,,,,
0,73,73,12,1,,5dd81eb38ed6bf7c5be5eff3,62c539a87453ccbf503cd803,2022-07-06_09h34.35.067,Colour_Asymmetry_Pilot,2022.1.3,Win32,57.28689276,62c50e9c1127f2cd403a315f,,,,,,,,,,,,,,,,,,,,,,,,,,,,,,,,,,,,,,,,,,,,,,,,,,,,,,,,,,,,,,,,,,,,,,,,,,,,,,,,,,,,,,,,,,,,,,,,,,,,,,,,,,,,,,,,,,,,,,,,,,,,,,,,,,,,,,,,,,,,,,,,,,,,,,,,,,,,,,,,,,,
0,74,74,19,1,,5dd81eb38ed6bf7c5be5eff3,62c539a87453ccbf503cd803,2022-07-06_09h34.35.067,Colour_Asymmetry_Pilot,2022.1.3,Win32,57.28689276,62c50e9c1127f2cd403a315f,,,,,,,,,,,,,,,,,,,,,,,,,,,,,,,,,,,,,,,,,,,,,,,,,,,,,,,,,,,,,,,,,,,,,,,,,,,,,,,,,,,,,,,,,,,,,,,,,,,,,,,,,,,,,,,,,,,,,,,,,,,,,,,,,,,,,,,,,,,,,,,,,,,,,,,,,,,,,,,,,,,
0,75,75,6,1,,5dd81eb38ed6bf7c5be5eff3,62c539a87453ccbf503cd803,2022-07-06_09h34.35.067,Colour_Asymmetry_Pilot,2022.1.3,Win32,57.28689276,62c50e9c1127f2cd403a315f,,,,,,,,,,,,,,,,,,,,,,,,,,,,,,,,,,,,,,,,,,,,,,,,,,,,,,,,,,,,,,,,,,,,,,,,,,,,,,,,,,,,,,,,,,,,,,,,,,,,,,,,,,,,,,,,,,,,,,,,,,,,,,,,,,,,,,,,,,,,,,,,,,,,,,,,,,,,,,,,,,,
0,76,76,3,1,,5dd81eb38ed6bf7c5be5eff3,62c539a87453ccbf503cd803,2022-07-06_09h34.35.067,Colour_Asymmetry_Pilot,2022.1.3,Win32,57.28689276,62c50e9c1127f2cd403a315f,,,,,,,,,,,,,,,,,,,,,,,,,,,,,,,,,,,,,,,,,,,,,,,,,,,,,,,,,,,,,,,,,,,,,,,,,,,,,,,,,,,,,,,,,,,,,,,,,,,,,,,,,,,,,,,,,,,,,,,,,,,,,,,,,,,,,,,,,,,,,,,,,,,,,,,,,,,,,,,,,,,
0,77,77,65,1,,5dd81eb38ed6bf7c5be5eff3,62c539a87453ccbf503cd803,2022-07-06_09h34.35.067,Colour_Asymmetry_Pilot,2022.1.3,Win32,57.28689276,62c50e9c1127f2cd403a315f,,,,,,,,,,,,,,,,,,,,,,,,,,,,,,,,,,,,,,,,,,,,,,,,,,,,,,,,,,,,,,,,,,,,,,,,,,,,,,,,,,,,,,,,,,,,,,,,,,,,,,,,,,,,,,,,,,,,,,,,,,,,,,,,,,,,,,,,,,,,,,,,,,,,,,,,,,,,,,,,,,,
0,78,78,91,1,,5dd81eb38ed6bf7c5be5eff3,62c539a87453ccbf503cd803,2022-07-06_09h34.35.067,Colour_Asymmetry_Pilot,2022.1.3,Win32,57.28689276,62c50e9c1127f2cd403a315f,,,,,,,,,,,,,,,,,,,,,,,,,,,,,,,,,,,,,,,,,,,,,,,,,,,,,,,,,,,,,,,,,,,,,,,,,,,,,,,,,,,,,,,,,,,,,,,,,,,,,,,,,,,,,,,,,,,,,,,,,,,,,,,,,,,,,,,,,,,,,,,,,,,,,,,,,,,,,,,,,,,
0,79,79,49,1,,5dd81eb38ed6bf7c5be5eff3,62c539a87453ccbf503cd803,2022-07-06_09h34.35.067,Colour_Asymmetry_Pilot,2022.1.3,Win32,57.28689276,62c50e9c1127f2cd403a315f,,,,,,,,,,,,,,,,,,,,,,,,,,,,,,,,,,,,,,,,,,,,,,,,,,,,,,,,,,,,,,,,,,,,,,,,,,,,,,,,,,,,,,,,,,,,,,,,,,,,,,,,,,,,,,,,,,,,,,,,,,,,,,,,,,,,,,,,,,,,,,,,,,,,,,,,,,,,,,,,,,,
0,80,80,4,1,,5dd81eb38ed6bf7c5be5eff3,62c539a87453ccbf503cd803,2022-07-06_09h34.35.067,Colour_Asymmetry_Pilot,2022.1.3,Win32,57.28689276,62c50e9c1127f2cd403a315f,,,,,,,,,,,,,,,,,,,,,,,,,,,,,,,,,,,,,,,,,,,,,,,,,,,,,,,,,,,,,,,,,,,,,,,,,,,,,,,,,,,,,,,,,,,,,,,,,,,,,,,,,,,,,,,,,,,,,,,,,,,,,,,,,,,,,,,,,,,,,,,,,,,,,,,,,,,,,,,,,,,
0,81,81,21,1,,5dd81eb38ed6bf7c5be5eff3,62c539a87453ccbf503cd803,2022-07-06_09h34.35.067,Colour_Asymmetry_Pilot,2022.1.3,Win32,57.28689276,62c50e9c1127f2cd403a315f,,,,,,,,,,,,,,,,,,,,,,,,,,,,,,,,,,,,,,,,,,,,,,,,,,,,,,,,,,,,,,,,,,,,,,,,,,,,,,,,,,,,,,,,,,,,,,,,,,,,,,,,,,,,,,,,,,,,,,,,,,,,,,,,,,,,,,,,,,,,,,,,,,,,,,,,,,,,,,,,,,,
0,82,82,22,1,,5dd81eb38ed6bf7c5be5eff3,62c539a87453ccbf503cd803,2022-07-06_09h34.35.067,Colour_Asymmetry_Pilot,2022.1.3,Win32,57.28689276,62c50e9c1127f2cd403a315f,,,,,,,,,,,,,,,,,,,,,,,,,,,,,,,,,,,,,,,,,,,,,,,,,,,,,,,,,,,,,,,,,,,,,,,,,,,,,,,,,,,,,,,,,,,,,,,,,,,,,,,,,,,,,,,,,,,,,,,,,,,,,,,,,,,,,,,,,,,,,,,,,,,,,,,,,,,,,,,,,,,
0,83,83,67,1,,5dd81eb38ed6bf7c5be5eff3,62c539a87453ccbf503cd803,2022-07-06_09h34.35.067,Colour_Asymmetry_Pilot,2022.1.3,Win32,57.28689276,62c50e9c1127f2cd403a315f,,,,,,,,,,,,,,,,,,,,,,,,,,,,,,,,,,,,,,,,,,,,,,,,,,,,,,,,,,,,,,,,,,,,,,,,,,,,,,,,,,,,,,,,,,,,,,,,,,,,,,,,,,,,,,,,,,,,,,,,,,,,,,,,,,,,,,,,,,,,,,,,,,,,,,,,,,,,,,,,,,,
0,84,84,40,1,,5dd81eb38ed6bf7c5be5eff3,62c539a87453ccbf503cd803,2022-07-06_09h34.35.067,Colour_Asymmetry_Pilot,2022.1.3,Win32,57.28689276,62c50e9c1127f2cd403a315f,,,,,,,,,,,,,,,,,,,,,,,,,,,,,,,,,,,,,,,,,,,,,,,,,,,,,,,,,,,,,,,,,,,,,,,,,,,,,,,,,,,,,,,,,,,,,,,,,,,,,,,,,,,,,,,,,,,,,,,,,,,,,,,,,,,,,,,,,,,,,,,,,,,,,,,,,,,,,,,,,,,
0,85,85,14,1,,5dd81eb38ed6bf7c5be5eff3,62c539a87453ccbf503cd803,2022-07-06_09h34.35.067,Colour_Asymmetry_Pilot,2022.1.3,Win32,57.28689276,62c50e9c1127f2cd403a315f,,,,,,,,,,,,,,,,,,,,,,,,,,,,,,,,,,,,,,,,,,,,,,,,,,,,,,,,,,,,,,,,,,,,,,,,,,,,,,,,,,,,,,,,,,,,,,,,,,,,,,,,,,,,,,,,,,,,,,,,,,,,,,,,,,,,,,,,,,,,,,,,,,,,,,,,,,,,,,,,,,,
0,86,86,53,1,,5dd81eb38ed6bf7c5be5eff3,62c539a87453ccbf503cd803,2022-07-06_09h34.35.067,Colour_Asymmetry_Pilot,2022.1.3,Win32,57.28689276,62c50e9c1127f2cd403a315f,,,,,,,,,,,,,,,,,,,,,,,,,,,,,,,,,,,,,,,,,,,,,,,,,,,,,,,,,,,,,,,,,,,,,,,,,,,,,,,,,,,,,,,,,,,,,,,,,,,,,,,,,,,,,,,,,,,,,,,,,,,,,,,,,,,,,,,,,,,,,,,,,,,,,,,,,,,,,,,,,,,
0,87,87,84,1,,5dd81eb38ed6bf7c5be5eff3,62c539a87453ccbf503cd803,2022-07-06_09h34.35.067,Colour_Asymmetry_Pilot,2022.1.3,Win32,57.28689276,62c50e9c1127f2cd403a315f,,,,,,,,,,,,,,,,,,,,,,,,,,,,,,,,,,,,,,,,,,,,,,,,,,,,,,,,,,,,,,,,,,,,,,,,,,,,,,,,,,,,,,,,,,,,,,,,,,,,,,,,,,,,,,,,,,,,,,,,,,,,,,,,,,,,,,,,,,,,,,,,,,,,,,,,,,,,,,,,,,,
0,88,88,92,1,,5dd81eb38ed6bf7c5be5eff3,62c539a87453ccbf503cd803,2022-07-06_09h34.35.067,Colour_Asymmetry_Pilot,2022.1.3,Win32,57.28689276,62c50e9c1127f2cd403a315f,,,,,,,,,,,,,,,,,,,,,,,,,,,,,,,,,,,,,,,,,,,,,,,,,,,,,,,,,,,,,,,,,,,,,,,,,,,,,,,,,,,,,,,,,,,,,,,,,,,,,,,,,,,,,,,,,,,,,,,,,,,,,,,,,,,,,,,,,,,,,,,,,,,,,,,,,,,,,,,,,,,
0,89,89,60,1,,5dd81eb38ed6bf7c5be5eff3,62c539a87453ccbf503cd803,2022-07-06_09h34.35.067,Colour_Asymmetry_Pilot,2022.1.3,Win32,57.28689276,62c50e9c1127f2cd403a315f,,,,,,,,,,,,,,,,,,,,,,,,,,,,,,,,,,,,,,,,,,,,,,,,,,,,,,,,,,,,,,,,,,,,,,,,,,,,,,,,,,,,,,,,,,,,,,,,,,,,,,,,,,,,,,,,,,,,,,,,,,,,,,,,,,,,,,,,,,,,,,,,,,,,,,,,,,,,,,,,,,,
0,90,90,73,1,,5dd81eb38ed6bf7c5be5eff3,62c539a87453ccbf503cd803,2022-07-06_09h34.35.067,Colour_Asymmetry_Pilot,2022.1.3,Win32,57.28689276,62c50e9c1127f2cd403a315f,,,,,,,,,,,,,,,,,,,,,,,,,,,,,,,,,,,,,,,,,,,,,,,,,,,,,,,,,,,,,,,,,,,,,,,,,,,,,,,,,,,,,,,,,,,,,,,,,,,,,,,,,,,,,,,,,,,,,,,,,,,,,,,,,,,,,,,,,,,,,,,,,,,,,,,,,,,,,,,,,,,
0,91,91,70,1,,5dd81eb38ed6bf7c5be5eff3,62c539a87453ccbf503cd803,2022-07-06_09h34.35.067,Colour_Asymmetry_Pilot,2022.1.3,Win32,57.28689276,62c50e9c1127f2cd403a315f,,,,,,,,,,,,,,,,,,,,,,,,,,,,,,,,,,,,,,,,,,,,,,,,,,,,,,,,,,,,,,,,,,,,,,,,,,,,,,,,,,,,,,,,,,,,,,,,,,,,,,,,,,,,,,,,,,,,,,,,,,,,,,,,,,,,,,,,,,,,,,,,,,,,,,,,,,,,,,,,,,,
0,92,92,62,1,,5dd81eb38ed6bf7c5be5eff3,62c539a87453ccbf503cd803,2022-07-06_09h34.35.067,Colour_Asymmetry_Pilot,2022.1.3,Win32,57.28689276,62c50e9c1127f2cd403a315f,,,,,,,,,,,,,,,,,,,,,,,,,,,,,,,,,,,,,,,,,,,,,,,,,,,,,,,,,,,,,,,,,,,,,,,,,,,,,,,,,,,,,,,,,,,,,,,,,,,,,,,,,,,,,,,,,,,,,,,,,,,,,,,,,,,,,,,,,,,,,,,,,,,,,,,,,,,,,,,,,,,
,,,,,,5dd81eb38ed6bf7c5be5eff3,62c539a87453ccbf503cd803,2022-07-06_09h34.35.067,Colour_Asymmetry_Pilot,2022.1.3,Win32,57.28689276,62c50e9c1127f2cd403a315f,0,0,0,12,1,threeone,,,,,,,,,,,,,,,,,,,,,,,,,,,,,,,,,,,,,,,,,,,,,,,,,,,,,,,,,,,,,,,,,,,,,,,,,,,,,,,,,,,,,,,,,,,,,,,,,,,,,,,,,,,,,,,,,,,,,,,,,,,,,,,,,,,,,,,,,,,,,,,,,,,,,,,,,,,,,
,,,,,,5dd81eb38ed6bf7c5be5eff3,62c539a87453ccbf503cd803,2022-07-06_09h34.35.067,Colour_Asymmetry_Pilot,2022.1.3,Win32,57.28689276,62c50e9c1127f2cd403a315f,0,1,1,80,1,onetwo,,,,,,,,,,,,,,,,,,,,,,,,,,,,,,,,,,,,,,,,,,,,,,,,,,,,,,,,,,,,,,,,,,,,,,,,,,,,,,,,,,,,,,,,,,,,,,,,,,,,,,,,,,,,,,,,,,,,,,,,,,,,,,,,,,,,,,,,,,,,,,,,,,,,,,,,,,,,,
,,,,,,5dd81eb38ed6bf7c5be5eff3,62c539a87453ccbf503cd803,2022-07-06_09h34.35.067,Colour_Asymmetry_Pilot,2022.1.3,Win32,57.28689276,62c50e9c1127f2cd403a315f,0,2,2,7,1,fourthree,,,,,,,,,,,,,,,,,,,,,,,,,,,,,,,,,,,,,,,,,,,,,,,,,,,,,,,,,,,,,,,,,,,,,,,,,,,,,,,,,,,,,,,,,,,,,,,,,,,,,,,,,,,,,,,,,,,,,,,,,,,,,,,,,,,,,,,,,,,,,,,,,,,,,,,,,,,,,
,,,,,,5dd81eb38ed6bf7c5be5eff3,62c539a87453ccbf503cd803,2022-07-06_09h34.35.067,Colour_Asymmetry_Pilot,2022.1.3,Win32,57.28689276,62c50e9c1127f2cd403a315f,0,3,3,147,1,twofour,,,,,,,,,,,,,,,,,,,,,,,,,,,,,,,,,,,,,,,,,,,,,,,,,,,,,,,,,,,,,,,,,,,,,,,,,,,,,,,,,,,,,,,,,,,,,,,,,,,,,,,,,,,,,,,,,,,,,,,,,,,,,,,,,,,,,,,,,,,,,,,,,,,,,,,,,,,,,
,,,,,,5dd81eb38ed6bf7c5be5eff3,62c539a87453ccbf503cd803,2022-07-06_09h34.35.067,Colour_Asymmetry_Pilot,2022.1.3,Win32,57.28689276,62c50e9c1127f2cd403a315f,0,4,4,20,1,threeone,,,,,,,,,,,,,,,,,,,,,,,,,,,,,,,,,,,,,,,,,,,,,,,,,,,,,,,,,,,,,,,,,,,,,,,,,,,,,,,,,,,,,,,,,,,,,,,,,,,,,,,,,,,,,,,,,,,,,,,,,,,,,,,,,,,,,,,,,,,,,,,,,,,,,,,,,,,,,
,,,,,,5dd81eb38ed6bf7c5be5eff3,62c539a87453ccbf503cd803,2022-07-06_09h34.35.067,Colour_Asymmetry_Pilot,2022.1.3,Win32,57.28689276,62c50e9c1127f2cd403a315f,0,5,5,4,1,threeone,,,,,,,,,,,,,,,,,,,,,,,,,,,,,,,,,,,,,,,,,,,,,,,,,,,,,,,,,,,,,,,,,,,,,,,,,,,,,,,,,,,,,,,,,,,,,,,,,,,,,,,,,,,,,,,,,,,,,,,,,,,,,,,,,,,,,,,,,,,,,,,,,,,,,,,,,,,,,
,,,,,,5dd81eb38ed6bf7c5be5eff3,62c539a87453ccbf503cd803,2022-07-06_09h34.35.067,Colour_Asymmetry_Pilot,2022.1.3,Win32,57.28689276,62c50e9c1127f2cd403a315f,0,6,6,146,1,twoone,,,,,,,,,,,,,,,,,,,,,,,,,,,,,,,,,,,,,,,,,,,,,,,,,,,,,,,,,,,,,,,,,,,,,,,,,,,,,,,,,,,,,,,,,,,,,,,,,,,,,,,,,,,,,,,,,,,,,,,,,,,,,,,,,,,,,,,,,,,,,,,,,,,,,,,,,,,,,
,,,,,,5dd81eb38ed6bf7c5be5eff3,62c539a87453ccbf503cd803,2022-07-06_09h34.35.067,Colour_Asymmetry_Pilot,2022.1.3,Win32,57.28689276,62c50e9c1127f2cd403a315f,0,7,7,47,1,fourthree,,,,,,,,,,,,,,,,,,,,,,,,,,,,,,,,,,,,,,,,,,,,,,,,,,,,,,,,,,,,,,,,,,,,,,,,,,,,,,,,,,,,,,,,,,,,,,,,,,,,,,,,,,,,,,,,,,,,,,,,,,,,,,,,,,,,,,,,,,,,,,,,,,,,,,,,,,,,,
,,,,,,5dd81eb38ed6bf7c5be5eff3,62c539a87453ccbf503cd803,2022-07-06_09h34.35.067,Colour_Asymmetry_Pilot,2022.1.3,Win32,57.28689276,62c50e9c1127f2cd403a315f,0,8,8,125,1,threefour,,,,,,,,,,,,,,,,,,,,,,,,,,,,,,,,,,,,,,,,,,,,,,,,,,,,,,,,,,,,,,,,,,,,,,,,,,,,,,,,,,,,,,,,,,,,,,,,,,,,,,,,,,,,,,,,,,,,,,,,,,,,,,,,,,,,,,,,,,,,,,,,,,,,,,,,,,,,,
,,,,,,5dd81eb38ed6bf7c5be5eff3,62c539a87453ccbf503cd803,2022-07-06_09h34.35.067,Colour_Asymmetry_Pilot,2022.1.3,Win32,57.28689276,62c50e9c1127f2cd403a315f,0,9,9,46,1,fourtwo,,,,,,,,,,,,,,,,,,,,,,,,,,,,,,,,,,,,,,,,,,,,,,,,,,,,,,,,,,,,,,,,,,,,,,,,,,,,,,,,,,,,,,,,,,,,,,,,,,,,,,,,,,,,,,,,,,,,,,,,,,,,,,,,,,,,,,,,,,,,,,,,,,,,,,,,,,,,,
,,,,,,5dd81eb38ed6bf7c5be5eff3,62c539a87453ccbf503cd803,2022-07-06_09h34.35.067,Colour_Asymmetry_Pilot,2022.1.3,Win32,57.28689276,62c50e9c1127f2cd403a315f,0,10,10,131,1,twofour,,,,,,,,,,,,,,,,,,,,,,,,,,,,,,,,,,,,,,,,,,,,,,,,,,,,,,,,,,,,,,,,,,,,,,,,,,,,,,,,,,,,,,,,,,,,,,,,,,,,,,,,,,,,,,,,,,,,,,,,,,,,,,,,,,,,,,,,,,,,,,,,,,,,,,,,,,,,,
,,,,,,5dd81eb38ed6bf7c5be5eff3,62c539a87453ccbf503cd803,2022-07-06_09h34.35.067,Colour_Asymmetry_Pilot,2022.1.3,Win32,57.28689276,62c50e9c1127f2cd403a315f,0,11,11,26,1,twoone,,,,,,,,,,,,,,,,,,,,,,,,,,,,,,,,,,,,,,,,,,,,,,,,,,,,,,,,,,,,,,,,,,,,,,,,,,,,,,,,,,,,,,,,,,,,,,,,,,,,,,,,,,,,,,,,,,,,,,,,,,,,,,,,,,,,,,,,,,,,,,,,,,,,,,,,,,,,,
,,,,,,5dd81eb38ed6bf7c5be5eff3,62c539a87453ccbf503cd803,2022-07-06_09h34.35.067,Colour_Asymmetry_Pilot,2022.1.3,Win32,57.28689276,62c50e9c1127f2cd403a315f,0,12,12,104,1,onetwo,,,,,,,,,,,,,,,,,,,,,,,,,,,,,,,,,,,,,,,,,,,,,,,,,,,,,,,,,,,,,,,,,,,,,,,,,,,,,,,,,,,,,,,,,,,,,,,,,,,,,,,,,,,,,,,,,,,,,,,,,,,,,,,,,,,,,,,,,,,,,,,,,,,,,,,,,,,,,
,,,,,,5dd81eb38ed6bf7c5be5eff3,62c539a87453ccbf503cd803,2022-07-06_09h34.35.067,Colour_Asymmetry_Pilot,2022.1.3,Win32,57.28689276,62c50e9c1127f2cd403a315f,0,13,13,28,1,threeone,,,,,,,,,,,,,,,,,,,,,,,,,,,,,,,,,,,,,,,,,,,,,,,,,,,,,,,,,,,,,,,,,,,,,,,,,,,,,,,,,,,,,,,,,,,,,,,,,,,,,,,,,,,,,,,,,,,,,,,,,,,,,,,,,,,,,,,,,,,,,,,,,,,,,,,,,,,,,
,,,,,,5dd81eb38ed6bf7c5be5eff3,62c539a87453ccbf503cd803,2022-07-06_09h34.35.067,Colour_Asymmetry_Pilot,2022.1.3,Win32,57.28689276,62c50e9c1127f2cd403a315f,0,14,14,151,1,fourthree,,,,,,,,,,,,,,,,,,,,,,,,,,,,,,,,,,,,,,,,,,,,,,,,,,,,,,,,,,,,,,,,,,,,,,,,,,,,,,,,,,,,,,,,,,,,,,,,,,,,,,,,,,,,,,,,,,,,,,,,,,,,,,,,,,,,,,,,,,,,,,,,,,,,,,,,,,,,,
,,,,,,5dd81eb38ed6bf7c5be5eff3,62c539a87453ccbf503cd803,2022-07-06_09h34.35.067,Colour_Asymmetry_Pilot,2022.1.3,Win32,57.28689276,62c50e9c1127f2cd403a315f,0,15,15,115,1,twofour,,,,,,,,,,,,,,,,,,,,,,,,,,,,,,,,,,,,,,,,,,,,,,,,,,,,,,,,,,,,,,,,,,,,,,,,,,,,,,,,,,,,,,,,,,,,,,,,,,,,,,,,,,,,,,,,,,,,,,,,,,,,,,,,,,,,,,,,,,,,,,,,,,,,,,,,,,,,,
,,,,,,5dd81eb38ed6bf7c5be5eff3,62c539a87453ccbf503cd803,2022-07-06_09h34.35.067,Colour_Asymmetry_Pilot,2022.1.3,Win32,57.28689276,62c50e9c1127f2cd403a315f,0,16,16,140,1,threeone,,,,,,,,,,,,,,,,,,,,,,,,,,,,,,,,,,,,,,,,,,,,,,,,,,,,,,,,,,,,,,,,,,,,,,,,,,,,,,,,,,,,,,,,,,,,,,,,,,,,,,,,,,,,,,,,,,,,,,,,,,,,,,,,,,,,,,,,,,,,,,,,,,,,,,,,,,,,,
,,,,,,5dd81eb38ed6bf7c5be5eff3,62c539a87453ccbf503cd803,2022-07-06_09h34.35.067,Colour_Asymmetry_Pilot,2022.1.3,Win32,57.28689276,62c50e9c1127f2cd403a315f,0,17,17,62,1,fourtwo,,,,,,,,,,,,,,,,,,,,,,,,,,,,,,,,,,,,,,,,,,,,,,,,,,,,,,,,,,,,,,,,,,,,,,,,,,,,,,,,,,,,,,,,,,,,,,,,,,,,,,,,,,,,,,,,,,,,,,,,,,,,,,,,,,,,,,,,,,,,,,,,,,,,,,,,,,,,,
,,,,,,5dd81eb38ed6bf7c5be5eff3,62c539a87453ccbf503cd803,2022-07-06_09h34.35.067,Colour_Asymmetry_Pilot,2022.1.3,Win32,57.28689276,62c50e9c1127f2cd403a315f,0,18,18,74,1,twoone,,,,,,,,,,,,,,,,,,,,,,,,,,,,,,,,,,,,,,,,,,,,,,,,,,,,,,,,,,,,,,,,,,,,,,,,,,,,,,,,,,,,,,,,,,,,,,,,,,,,,,,,,,,,,,,,,,,,,,,,,,,,,,,,,,,,,,,,,,,,,,,,,,,,,,,,,,,,,
,,,,,,5dd81eb38ed6bf7c5be5eff3,62c539a87453ccbf503cd803,2022-07-06_09h34.35.067,Colour_Asymmetry_Pilot,2022.1.3,Win32,57.28689276,62c50e9c1127f2cd403a315f,0,19,19,109,1,threefour,,,,,,,,,,,,,,,,,,,,,,,,,,,,,,,,,,,,,,,,,,,,,,,,,,,,,,,,,,,,,,,,,,,,,,,,,,,,,,,,,,,,,,,,,,,,,,,,,,,,,,,,,,,,,,,,,,,,,,,,,,,,,,,,,,,,,,,,,,,,,,,,,,,,,,,,,,,,,
,,,,,,5dd81eb38ed6bf7c5be5eff3,62c539a87453ccbf503cd803,2022-07-06_09h34.35.067,Colour_Asymmetry_Pilot,2022.1.3,Win32,57.28689276,62c50e9c1127f2cd403a315f,0,20,20,159,1,fourthree,,,,,,,,,,,,,,,,,,,,,,,,,,,,,,,,,,,,,,,,,,,,,,,,,,,,,,,,,,,,,,,,,,,,,,,,,,,,,,,,,,,,,,,,,,,,,,,,,,,,,,,,,,,,,,,,,,,,,,,,,,,,,,,,,,,,,,,,,,,,,,,,,,,,,,,,,,,,,
,,,,,,5dd81eb38ed6bf7c5be5eff3,62c539a87453ccbf503cd803,2022-07-06_09h34.35.067,Colour_Asymmetry_Pilot,2022.1.3,Win32,57.28689276,62c50e9c1127f2cd403a315f,0,21,21,29,1,threefour,,,,,,,,,,,,,,,,,,,,,,,,,,,,,,,,,,,,,,,,,,,,,,,,,,,,,,,,,,,,,,,,,,,,,,,,,,,,,,,,,,,,,,,,,,,,,,,,,,,,,,,,,,,,,,,,,,,,,,,,,,,,,,,,,,,,,,,,,,,,,,,,,,,,,,,,,,,,,
,,,,,,5dd81eb38ed6bf7c5be5eff3,62c539a87453ccbf503cd803,2022-07-06_09h34.35.067,Colour_Asymmetry_Pilot,2022.1.3,Win32,57.28689276,62c50e9c1127f2cd403a315f,0,22,22,58,1,twoone,,,,,,,,,,,,,,,,,,,,,,,,,,,,,,,,,,,,,,,,,,,,,,,,,,,,,,,,,,,,,,,,,,,,,,,,,,,,,,,,,,,,,,,,,,,,,,,,,,,,,,,,,,,,,,,,,,,,,,,,,,,,,,,,,,,,,,,,,,,,,,,,,,,,,,,,,,,,,
,,,,,,5dd81eb38ed6bf7c5be5eff3,62c539a87453ccbf503cd803,2022-07-06_09h34.35.067,Colour_Asymmetry_Pilot,2022.1.3,Win32,57.28689276,62c50e9c1127f2cd403a315f,0,23,23,57,1,onethree,,,,,,,,,,,,,,,,,,,,,,,,,,,,,,,,,,,,,,,,,,,,,,,,,,,,,,,,,,,,,,,,,,,,,,,,,,,,,,,,,,,,,,,,,,,,,,,,,,,,,,,,,,,,,,,,,,,,,,,,,,,,,,,,,,,,,,,,,,,,,,,,,,,,,,,,,,,,,
,,,,,,5dd81eb38ed6bf7c5be5eff3,62c539a87453ccbf503cd803,2022-07-06_09h34.35.067,Colour_Asymmetry_Pilot,2022.1.3,Win32,57.28689276,62c50e9c1127f2cd403a315f,0,24,24,32,1,onetwo,,,,,,,,,,,,,,,,,,,,,,,,,,,,,,,,,,,,,,,,,,,,,,,,,,,,,,,,,,,,,,,,,,,,,,,,,,,,,,,,,,,,,,,,,,,,,,,,,,,,,,,,,,,,,,,,,,,,,,,,,,,,,,,,,,,,,,,,,,,,,,,,,,,,,,,,,,,,,
,,,,,,5dd81eb38ed6bf7c5be5eff3,62c539a87453ccbf503cd803,2022-07-06_09h34.35.067,Colour_Asymmetry_Pilot,2022.1.3,Win32,57.28689276,62c50e9c1127f2cd403a315f,0,25,25,127,1,fourthree,,,,,,,,,,,,,,,,,,,,,,,,,,,,,,,,,,,,,,,,,,,,,,,,,,,,,,,,,,,,,,,,,,,,,,,,,,,,,,,,,,,,,,,,,,,,,,,,,,,,,,,,,,,,,,,,,,,,,,,,,,,,,,,,,,,,,,,,,,,,,,,,,,,,,,,,,,,,,
,,,,,,5dd81eb38ed6bf7c5be5eff3,62c539a87453ccbf503cd803,2022-07-06_09h34.35.067,Colour_Asymmetry_Pilot,2022.1.3,Win32,57.28689276,62c50e9c1127f2cd403a315f,0,26,26,81,1,onethree,,,,,,,,,,,,,,,,,,,,,,,,,,,,,,,,,,,,,,,,,,,,,,,,,,,,,,,,,,,,,,,,,,,,,,,,,,,,,,,,,,,,,,,,,,,,,,,,,,,,,,,,,,,,,,,,,,,,,,,,,,,,,,,,,,,,,,,,,,,,,,,,,,,,,,,,,,,,,
,,,,,,5dd81eb38ed6bf7c5be5eff3,62c539a87453ccbf503cd803,2022-07-06_09h34.35.067,Colour_Asymmetry_Pilot,2022.1.3,Win32,57.28689276,62c50e9c1127f2cd403a315f,0,27,27,10,1,twoone,,,,,,,,,,,,,,,,,,,,,,,,,,,,,,,,,,,,,,,,,,,,,,,,,,,,,,,,,,,,,,,,,,,,,,,,,,,,,,,,,,,,,,,,,,,,,,,,,,,,,,,,,,,,,,,,,,,,,,,,,,,,,,,,,,,,,,,,,,,,,,,,,,,,,,,,,,,,,
,,,,,,5dd81eb38ed6bf7c5be5eff3,62c539a87453ccbf503cd803,2022-07-06_09h34.35.067,Colour_Asymmetry_Pilot,2022.1.3,Win32,57.28689276,62c50e9c1127f2cd403a315f,0,28,28,9,1,onethree,,,,,,,,,,,,,,,,,,,,,,,,,,,,,,,,,,,,,,,,,,,,,,,,,,,,,,,,,,,,,,,,,,,,,,,,,,,,,,,,,,,,,,,,,,,,,,,,,,,,,,,,,,,,,,,,,,,,,,,,,,,,,,,,,,,,,,,,,,,,,,,,,,,,,,,,,,,,,
,,,,,,5dd81eb38ed6bf7c5be5eff3,62c539a87453ccbf503cd803,2022-07-06_09h34.35.067,Colour_Asymmetry_Pilot,2022.1.3,Win32,57.28689276,62c50e9c1127f2cd403a315f,0,29,29,60,1,threeone,,,,,,,,,,,,,,,,,,,,,,,,,,,,,,,,,,,,,,,,,,,,,,,,,,,,,,,,,,,,,,,,,,,,,,,,,,,,,,,,,,,,,,,,,,,,,,,,,,,,,,,,,,,,,,,,,,,,,,,,,,,,,,,,,,,,,,,,,,,,,,,,,,,,,,,,,,,,,
,,,,,,5dd81eb38ed6bf7c5be5eff3,62c539a87453ccbf503cd803,2022-07-06_09h34.35.067,Colour_Asymmetry_Pilot,2022.1.3,Win32,57.28689276,62c50e9c1127f2cd403a315f,0,30,30,111,1,fourthree,,,,,,,,,,,,,,,,,,,,,,,,,,,,,,,,,,,,,,,,,,,,,,,,,,,,,,,,,,,,,,,,,,,,,,,,,,,,,,,,,,,,,,,,,,,,,,,,,,,,,,,,,,,,,,,,,,,,,,,,,,,,,,,,,,,,,,,,,,,,,,,,,,,,,,,,,,,,,
,,,,,,5dd81eb38ed6bf7c5be5eff3,62c539a87453ccbf503cd803,2022-07-06_09h34.35.067,Colour_Asymmetry_Pilot,2022.1.3,Win32,57.28689276,62c50e9c1127f2cd403a315f,0,31,31,23,1,fourthree,,,,,,,,,,,,,,,,,,,,,,,,,,,,,,,,,,,,,,,,,,,,,,,,,,,,,,,,,,,,,,,,,,,,,,,,,,,,,,,,,,,,,,,,,,,,,,,,,,,,,,,,,,,,,,,,,,,,,,,,,,,,,,,,,,,,,,,,,,,,,,,,,,,,,,,,,,,,,
,,,,,,5dd81eb38ed6bf7c5be5eff3,62c539a87453ccbf503cd803,2022-07-06_09h34.35.067,Colour_Asymmetry_Pilot,2022.1.3,Win32,57.28689276,62c50e9c1127f2cd403a315f,0,32,32,161,1,onethree,,,,,,,,,,,,,,,,,,,,,,,,,,,,,,,,,,,,,,,,,,,,,,,,,,,,,,,,,,,,,,,,,,,,,,,,,,,,,,,,,,,,,,,,,,,,,,,,,,,,,,,,,,,,,,,,,,,,,,,,,,,,,,,,,,,,,,,,,,,,,,,,,,,,,,,,,,,,,
,,,,,,5dd81eb38ed6bf7c5be5eff3,62c539a87453ccbf503cd803,2022-07-06_09h34.35.067,Colour_Asymmetry_Pilot,2022.1.3,Win32,57.28689276,62c50e9c1127f2cd403a315f,0,33,33,91,1,twofour,,,,,,,,,,,,,,,,,,,,,,,,,,,,,,,,,,,,,,,,,,,,,,,,,,,,,,,,,,,,,,,,,,,,,,,,,,,,,,,,,,,,,,,,,,,,,,,,,,,,,,,,,,,,,,,,,,,,,,,,,,,,,,,,,,,,,,,,,,,,,,,,,,,,,,,,,,,,,
,,,,,,5dd81eb38ed6bf7c5be5eff3,62c539a87453ccbf503cd803,2022-07-06_09h34.35.067,Colour_Asymmetry_Pilot,2022.1.3,Win32,57.28689276,62c50e9c1127f2cd403a315f,0,34,34,39,1,fourthree,,,,,,,,,,,,,,,,,,,,,,,,,,,,,,,,,,,,,,,,,,,,,,,,,,,,,,,,,,,,,,,,,,,,,,,,,,,,,,,,,,,,,,,,,,,,,,,,,,,,,,,,,,,,,,,,,,,,,,,,,,,,,,,,,,,,,,,,,,,,,,,,,,,,,,,,,,,,,
,,,,,,5dd81eb38ed6bf7c5be5eff3,62c539a87453ccbf503cd803,2022-07-06_09h34.35.067,Colour_Asymmetry_Pilot,2022.1.3,Win32,57.28689276,62c50e9c1127f2cd403a315f,0,35,35,42,1,twoone,,,,,,,,,,,,,,,,,,,,,,,,,,,,,,,,,,,,,,,,,,,,,,,,,,,,,,,,,,,,,,,,,,,,,,,,,,,,,,,,,,,,,,,,,,,,,,,,,,,,,,,,,,,,,,,,,,,,,,,,,,,,,,,,,,,,,,,,,,,,,,,,,,,,,,,,,,,,,
,,,,,,5dd81eb38ed6bf7c5be5eff3,62c539a87453ccbf503cd803,2022-07-06_09h34.35.067,Colour_Asymmetry_Pilot,2022.1.3,Win32,57.28689276,62c50e9c1127f2cd403a315f,0,36,36,73,1,onethree,,,,,,,,,,,,,,,,,,,,,,,,,,,,,,,,,,,,,,,,,,,,,,,,,,,,,,,,,,,,,,,,,,,,,,,,,,,,,,,,,,,,,,,,,,,,,,,,,,,,,,,,,,,,,,,,,,,,,,,,,,,,,,,,,,,,,,,,,,,,,,,,,,,,,,,,,,,,,
,,,,,,5dd81eb38ed6bf7c5be5eff3,62c539a87453ccbf503cd803,2022-07-06_09h34.35.067,Colour_Asymmetry_Pilot,2022.1.3,Win32,57.28689276,62c50e9c1127f2cd403a315f,0,37,37,36,1,threeone,,,,,,,,,,,,,,,,,,,,,,,,,,,,,,,,,,,,,,,,,,,,,,,,,,,,,,,,,,,,,,,,,,,,,,,,,,,,,,,,,,,,,,,,,,,,,,,,,,,,,,,,,,,,,,,,,,,,,,,,,,,,,,,,,,,,,,,,,,,,,,,,,,,,,,,,,,,,,
,,,,,,5dd81eb38ed6bf7c5be5eff3,62c539a87453ccbf503cd803,2022-07-06_09h34.35.067,Colour_Asymmetry_Pilot,2022.1.3,Win32,57.28689276,62c50e9c1127f2cd403a315f,0,38,38,160,1,onetwo,,,,,,,,,,,,,,,,,,,,,,,,,,,,,,,,,,,,,,,,,,,,,,,,,,,,,,,,,,,,,,,,,,,,,,,,,,,,,,,,,,,,,,,,,,,,,,,,,,,,,,,,,,,,,,,,,,,,,,,,,,,,,,,,,,,,,,,,,,,,,,,,,,,,,,,,,,,,,
,,,,,,5dd81eb38ed6bf7c5be5eff3,62c539a87453ccbf503cd803,2022-07-06_09h34.35.067,Colour_Asymmetry_Pilot,2022.1.3,Win32,57.28689276,62c50e9c1127f2cd403a315f,0,39,39,130,1,twoone,,,,,,,,,,,,,,,,,,,,,,,,,,,,,,,,,,,,,,,,,,,,,,,,,,,,,,,,,,,,,,,,,,,,,,,,,,,,,,,,,,,,,,,,,,,,,,,,,,,,,,,,,,,,,,,,,,,,,,,,,,,,,,,,,,,,,,,,,,,,,,,,,,,,,,,,,,,,,
,,,,,,5dd81eb38ed6bf7c5be5eff3,62c539a87453ccbf503cd803,2022-07-06_09h34.35.067,Colour_Asymmetry_Pilot,2022.1.3,Win32,57.28689276,62c50e9c1127f2cd403a315f,0,40,40,16,1,onetwo,,,,,,,,,,,,,,,,,,,,,,,,,,,,,,,,,,,,,,,,,,,,,,,,,,,,,,,,,,,,,,,,,,,,,,,,,,,,,,,,,,,,,,,,,,,,,,,,,,,,,,,,,,,,,,,,,,,,,,,,,,,,,,,,,,,,,,,,,,,,,,,,,,,,,,,,,,,,,
,,,,,,5dd81eb38ed6bf7c5be5eff3,62c539a87453ccbf503cd803,2022-07-06_09h34.35.067,Colour_Asymmetry_Pilot,2022.1.3,Win32,57.28689276,62c50e9c1127f2cd403a315f,0,41,41,118,1,fourtwo,,,,,,,,,,,,,,,,,,,,,,,,,,,,,,,,,,,,,,,,,,,,,,,,,,,,,,,,,,,,,,,,,,,,,,,,,,,,,,,,,,,,,,,,,,,,,,,,,,,,,,,,,,,,,,,,,,,,,,,,,,,,,,,,,,,,,,,,,,,,,,,,,,,,,,,,,,,,,
,,,,,,5dd81eb38ed6bf7c5be5eff3,62c539a87453ccbf503cd803,2022-07-06_09h34.35.067,Colour_Asymmetry_Pilot,2022.1.3,Win32,57.28689276,62c50e9c1127f2cd403a315f,0,42,42,11,1,twofour,,,,,,,,,,,,,,,,,,,,,,,,,,,,,,,,,,,,,,,,,,,,,,,,,,,,,,,,,,,,,,,,,,,,,,,,,,,,,,,,,,,,,,,,,,,,,,,,,,,,,,,,,,,,,,,,,,,,,,,,,,,,,,,,,,,,,,,,,,,,,,,,,,,,,,,,,,,,,
,,,,,,5dd81eb38ed6bf7c5be5eff3,62c539a87453ccbf503cd803,2022-07-06_09h34.35.067,Colour_Asymmetry_Pilot,2022.1.3,Win32,57.28689276,62c50e9c1127f2cd403a315f,0,43,43,24,1,onetwo,,,,,,,,,,,,,,,,,,,,,,,,,,,,,,,,,,,,,,,,,,,,,,,,,,,,,,,,,,,,,,,,,,,,,,,,,,,,,,,,,,,,,,,,,,,,,,,,,,,,,,,,,,,,,,,,,,,,,,,,,,,,,,,,,,,,,,,,,,,,,,,,,,,,,,,,,,,,,
,,,,,,5dd81eb38ed6bf7c5be5eff3,62c539a87453ccbf503cd803,2022-07-06_09h34.35.067,Colour_Asymmetry_Pilot,2022.1.3,Win32,57.28689276,62c50e9c1127f2cd403a315f,0,44,44,116,1,threeone,,,,,,,,,,,,,,,,,,,,,,,,,,,,,,,,,,,,,,,,,,,,,,,,,,,,,,,,,,,,,,,,,,,,,,,,,,,,,,,,,,,,,,,,,,,,,,,,,,,,,,,,,,,,,,,,,,,,,,,,,,,,,,,,,,,,,,,,,,,,,,,,,,,,,,,,,,,,,
,,,,,,5dd81eb38ed6bf7c5be5eff3,62c539a87453ccbf503cd803,2022-07-06_09h34.35.067,Colour_Asymmetry_Pilot,2022.1.3,Win32,57.28689276,62c50e9c1127f2cd403a315f,0,45,45,95,1,fourthree,,,,,,,,,,,,,,,,,,,,,,,,,,,,,,,,,,,,,,,,,,,,,,,,,,,,,,,,,,,,,,,,,,,,,,,,,,,,,,,,,,,,,,,,,,,,,,,,,,,,,,,,,,,,,,,,,,,,,,,,,,,,,,,,,,,,,,,,,,,,,,,,,,,,,,,,,,,,,
,,,,,,5dd81eb38ed6bf7c5be5eff3,62c539a87453ccbf503cd803,2022-07-06_09h34.35.067,Colour_Asymmetry_Pilot,2022.1.3,Win32,57.28689276,62c50e9c1127f2cd403a315f,0,46,46,123,1,twofour,,,,,,,,,,,,,,,,,,,,,,,,,,,,,,,,,,,,,,,,,,,,,,,,,,,,,,,,,,,,,,,,,,,,,,,,,,,,,,,,,,,,,,,,,,,,,,,,,,,,,,,,,,,,,,,,,,,,,,,,,,,,,,,,,,,,,,,,,,,,,,,,,,,,,,,,,,,,,
,,,,,,5dd81eb38ed6bf7c5be5eff3,62c539a87453ccbf503cd803,2022-07-06_09h34.35.067,Colour_Asymmetry_Pilot,2022.1.3,Win32,57.28689276,62c50e9c1127f2cd403a315f,0,47,47,6,1,fourtwo,,,,,,,,,,,,,,,,,,,,,,,,,,,,,,,,,,,,,,,,,,,,,,,,,,,,,,,,,,,,,,,,,,,,,,,,,,,,,,,,,,,,,,,,,,,,,,,,,,,,,,,,,,,,,,,,,,,,,,,,,,,,,,,,,,,,,,,,,,,,,,,,,,,,,,,,,,,,,
,,,,,,5dd81eb38ed6bf7c5be5eff3,62c539a87453ccbf503cd803,2022-07-06_09h34.35.067,Colour_Asymmetry_Pilot,2022.1.3,Win32,57.28689276,62c50e9c1127f2cd403a315f,0,48,48,152,1,onetwo,,,,,,,,,,,,,,,,,,,,,,,,,,,,,,,,,,,,,,,,,,,,,,,,,,,,,,,,,,,,,,,,,,,,,,,,,,,,,,,,,,,,,,,,,,,,,,,,,,,,,,,,,,,,,,,,,,,,,,,,,,,,,,,,,,,,,,,,,,,,,,,,,,,,,,,,,,,,,
,,,,,,5dd81eb38ed6bf7c5be5eff3,62c539a87453ccbf503cd803,2022-07-06_09h34.35.067,Colour_Asymmetry_Pilot,2022.1.3,Win32,57.28689276,62c50e9c1127f2cd403a315f,0,49,49,40,1,onetwo,,,,,,,,,,,,,,,,,,,,,,,,,,,,,,,,,,,,,,,,,,,,,,,,,,,,,,,,,,,,,,,,,,,,,,,,,,,,,,,,,,,,,,,,,,,,,,,,,,,,,,,,,,,,,,,,,,,,,,,,,,,,,,,,,,,,,,,,,,,,,,,,,,,,,,,,,,,,,
,,,,,,5dd81eb38ed6bf7c5be5eff3,62c539a87453ccbf503cd803,2022-07-06_09h34.35.067,Colour_Asymmetry_Pilot,2022.1.3,Win32,57.28689276,62c50e9c1127f2cd403a315f,0,50,50,0,1,onetwo,,,,,,,,,,,,,,,,,,,,,,,,,,,,,,,,,,,,,,,,,,,,,,,,,,,,,,,,,,,,,,,,,,,,,,,,,,,,,,,,,,,,,,,,,,,,,,,,,,,,,,,,,,,,,,,,,,,,,,,,,,,,,,,,,,,,,,,,,,,,,,,,,,,,,,,,,,,,,
,,,,,,5dd81eb38ed6bf7c5be5eff3,62c539a87453ccbf503cd803,2022-07-06_09h34.35.067,Colour_Asymmetry_Pilot,2022.1.3,Win32,57.28689276,62c50e9c1127f2cd403a315f,0,51,51,141,1,threefour,,,,,,,,,,,,,,,,,,,,,,,,,,,,,,,,,,,,,,,,,,,,,,,,,,,,,,,,,,,,,,,,,,,,,,,,,,,,,,,,,,,,,,,,,,,,,,,,,,,,,,,,,,,,,,,,,,,,,,,,,,,,,,,,,,,,,,,,,,,,,,,,,,,,,,,,,,,,,
,,,,,,5dd81eb38ed6bf7c5be5eff3,62c539a87453ccbf503cd803,2022-07-06_09h34.35.067,Colour_Asymmetry_Pilot,2022.1.3,Win32,57.28689276,62c50e9c1127f2cd403a315f,0,52,52,63,1,fourthree,,,,,,,,,,,,,,,,,,,,,,,,,,,,,,,,,,,,,,,,,,,,,,,,,,,,,,,,,,,,,,,,,,,,,,,,,,,,,,,,,,,,,,,,,,,,,,,,,,,,,,,,,,,,,,,,,,,,,,,,,,,,,,,,,,,,,,,,,,,,,,,,,,,,,,,,,,,,,
,,,,,,5dd81eb38ed6bf7c5be5eff3,62c539a87453ccbf503cd803,2022-07-06_09h34.35.067,Colour_Asymmetry_Pilot,2022.1.3,Win32,57.28689276,62c50e9c1127f2cd403a315f,0,53,53,76,1,threeone,,,,,,,,,,,,,,,,,,,,,,,,,,,,,,,,,,,,,,,,,,,,,,,,,,,,,,,,,,,,,,,,,,,,,,,,,,,,,,,,,,,,,,,,,,,,,,,,,,,,,,,,,,,,,,,,,,,,,,,,,,,,,,,,,,,,,,,,,,,,,,,,,,,,,,,,,,,,,
,,,,,,5dd81eb38ed6bf7c5be5eff3,62c539a87453ccbf503cd803,2022-07-06_09h34.35.067,Colour_Asymmetry_Pilot,2022.1.3,Win32,57.28689276,62c50e9c1127f2cd403a315f,0,54,54,13,1,threefour,,,,,,,,,,,,,,,,,,,,,,,,,,,,,,,,,,,,,,,,,,,,,,,,,,,,,,,,,,,,,,,,,,,,,,,,,,,,,,,,,,,,,,,,,,,,,,,,,,,,,,,,,,,,,,,,,,,,,,,,,,,,,,,,,,,,,,,,,,,,,,,,,,,,,,,,,,,,,
,,,,,,5dd81eb38ed6bf7c5be5eff3,62c539a87453ccbf503cd803,2022-07-06_09h34.35.067,Colour_Asymmetry_Pilot,2022.1.3,Win32,57.28689276,62c50e9c1127f2cd403a315f,0,55,55,53,1,threefour,,,,,,,,,,,,,,,,,,,,,,,,,,,,,,,,,,,,,,,,,,,,,,,,,,,,,,,,,,,,,,,,,,,,,,,,,,,,,,,,,,,,,,,,,,,,,,,,,,,,,,,,,,,,,,,,,,,,,,,,,,,,,,,,,,,,,,,,,,,,,,,,,,,,,,,,,,,,,
,,,,,,5dd81eb38ed6bf7c5be5eff3,62c539a87453ccbf503cd803,2022-07-06_09h34.35.067,Colour_Asymmetry_Pilot,2022.1.3,Win32,57.28689276,62c50e9c1127f2cd403a315f,0,56,56,18,1,twoone,,,,,,,,,,,,,,,,,,,,,,,,,,,,,,,,,,,,,,,,,,,,,,,,,,,,,,,,,,,,,,,,,,,,,,,,,,,,,,,,,,,,,,,,,,,,,,,,,,,,,,,,,,,,,,,,,,,,,,,,,,,,,,,,,,,,,,,,,,,,,,,,,,,,,,,,,,,,,
,,,,,,5dd81eb38ed6bf7c5be5eff3,62c539a87453ccbf503cd803,2022-07-06_09h34.35.067,Colour_Asymmetry_Pilot,2022.1.3,Win32,57.28689276,62c50e9c1127f2cd403a315f,0,57,57,75,1,twofour,,,,,,,,,,,,,,,,,,,,,,,,,,,,,,,,,,,,,,,,,,,,,,,,,,,,,,,,,,,,,,,,,,,,,,,,,,,,,,,,,,,,,,,,,,,,,,,,,,,,,,,,,,,,,,,,,,,,,,,,,,,,,,,,,,,,,,,,,,,,,,,,,,,,,,,,,,,,,
,,,,,,5dd81eb38ed6bf7c5be5eff3,62c539a87453ccbf503cd803,2022-07-06_09h34.35.067,Colour_Asymmetry_Pilot,2022.1.3,Win32,57.28689276,62c50e9c1127f2cd403a315f,0,58,58,117,1,threefour,,,,,,,,,,,,,,,,,,,,,,,,,,,,,,,,,,,,,,,,,,,,,,,,,,,,,,,,,,,,,,,,,,,,,,,,,,,,,,,,,,,,,,,,,,,,,,,,,,,,,,,,,,,,,,,,,,,,,,,,,,,,,,,,,,,,,,,,,,,,,,,,,,,,,,,,,,,,,
,,,,,,5dd81eb38ed6bf7c5be5eff3,62c539a87453ccbf503cd803,2022-07-06_09h34.35.067,Colour_Asymmetry_Pilot,2022.1.3,Win32,57.28689276,62c50e9c1127f2cd403a315f,0,59,59,153,1,onethree,,,,,,,,,,,,,,,,,,,,,,,,,,,,,,,,,,,,,,,,,,,,,,,,,,,,,,,,,,,,,,,,,,,,,,,,,,,,,,,,,,,,,,,,,,,,,,,,,,,,,,,,,,,,,,,,,,,,,,,,,,,,,,,,,,,,,,,,,,,,,,,,,,,,,,,,,,,,,
,,,,,,5dd81eb38ed6bf7c5be5eff3,62c539a87453ccbf503cd803,2022-07-06_09h34.35.067,Colour_Asymmetry_Pilot,2022.1.3,Win32,57.28689276,62c50e9c1127f2cd403a315f,0,60,60,96,1,onetwo,,,,,,,,,,,,,,,,,,,,,,,,,,,,,,,,,,,,,,,,,,,,,,,,,,,,,,,,,,,,,,,,,,,,,,,,,,,,,,,,,,,,,,,,,,,,,,,,,,,,,,,,,,,,,,,,,,,,,,,,,,,,,,,,,,,,,,,,,,,,,,,,,,,,,,,,,,,,,
,,,,,,5dd81eb38ed6bf7c5be5eff3,62c539a87453ccbf503cd803,2022-07-06_09h34.35.067,Colour_Asymmetry_Pilot,2022.1.3,Win32,57.28689276,62c50e9c1127f2cd403a315f,0,61,61,110,1,fourtwo,,,,,,,,,,,,,,,,,,,,,,,,,,,,,,,,,,,,,,,,,,,,,,,,,,,,,,,,,,,,,,,,,,,,,,,,,,,,,,,,,,,,,,,,,,,,,,,,,,,,,,,,,,,,,,,,,,,,,,,,,,,,,,,,,,,,,,,,,,,,,,,,,,,,,,,,,,,,,
,,,,,,5dd81eb38ed6bf7c5be5eff3,62c539a87453ccbf503cd803,2022-07-06_09h34.35.067,Colour_Asymmetry_Pilot,2022.1.3,Win32,57.28689276,62c50e9c1127f2cd403a315f,0,62,62,82,1,twoone,,,,,,,,,,,,,,,,,,,,,,,,,,,,,,,,,,,,,,,,,,,,,,,,,,,,,,,,,,,,,,,,,,,,,,,,,,,,,,,,,,,,,,,,,,,,,,,,,,,,,,,,,,,,,,,,,,,,,,,,,,,,,,,,,,,,,,,,,,,,,,,,,,,,,,,,,,,,,
,,,,,,5dd81eb38ed6bf7c5be5eff3,62c539a87453ccbf503cd803,2022-07-06_09h34.35.067,Colour_Asymmetry_Pilot,2022.1.3,Win32,57.28689276,62c50e9c1127f2cd403a315f,0,63,63,124,1,threeone,,,,,,,,,,,,,,,,,,,,,,,,,,,,,,,,,,,,,,,,,,,,,,,,,,,,,,,,,,,,,,,,,,,,,,,,,,,,,,,,,,,,,,,,,,,,,,,,,,,,,,,,,,,,,,,,,,,,,,,,,,,,,,,,,,,,,,,,,,,,,,,,,,,,,,,,,,,,,
,,,,,,5dd81eb38ed6bf7c5be5eff3,62c539a87453ccbf503cd803,2022-07-06_09h34.35.067,Colour_Asymmetry_Pilot,2022.1.3,Win32,57.28689276,62c50e9c1127f2cd403a315f,0,64,64,94,1,fourtwo,,,,,,,,,,,,,,,,,,,,,,,,,,,,,,,,,,,,,,,,,,,,,,,,,,,,,,,,,,,,,,,,,,,,,,,,,,,,,,,,,,,,,,,,,,,,,,,,,,,,,,,,,,,,,,,,,,,,,,,,,,,,,,,,,,,,,,,,,,,,,,,,,,,,,,,,,,,,,
,,,,,,5dd81eb38ed6bf7c5be5eff3,62c539a87453ccbf503cd803,2022-07-06_09h34.35.067,Colour_Asymmetry_Pilot,2022.1.3,Win32,57.28689276,62c50e9c1127f2cd403a315f,0,65,65,119,1,fourthree,,,,,,,,,,,,,,,,,,,,,,,,,,,,,,,,,,,,,,,,,,,,,,,,,,,,,,,,,,,,,,,,,,,,,,,,,,,,,,,,,,,,,,,,,,,,,,,,,,,,,,,,,,,,,,,,,,,,,,,,,,,,,,,,,,,,,,,,,,,,,,,,,,,,,,,,,,,,,
,,,,,,5dd81eb38ed6bf7c5be5eff3,62c539a87453ccbf503cd803,2022-07-06_09h34.35.067,Colour_Asymmetry_Pilot,2022.1.3,Win32,57.28689276,62c50e9c1127f2cd403a315f,0,66,66,45,1,threefour,,,,,,,,,,,,,,,,,,,,,,,,,,,,,,,,,,,,,,,,,,,,,,,,,,,,,,,,,,,,,,,,,,,,,,,,,,,,,,,,,,,,,,,,,,,,,,,,,,,,,,,,,,,,,,,,,,,,,,,,,,,,,,,,,,,,,,,,,,,,,,,,,,,,,,,,,,,,,
,,,,,,5dd81eb38ed6bf7c5be5eff3,62c539a87453ccbf503cd803,2022-07-06_09h34.35.067,Colour_Asymmetry_Pilot,2022.1.3,Win32,57.28689276,62c50e9c1127f2cd403a315f,0,67,67,19,1,twofour,,,,,,,,,,,,,,,,,,,,,,,,,,,,,,,,,,,,,,,,,,,,,,,,,,,,,,,,,,,,,,,,,,,,,,,,,,,,,,,,,,,,,,,,,,,,,,,,,,,,,,,,,,,,,,,,,,,,,,,,,,,,,,,,,,,,,,,,,,,,,,,,,,,,,,,,,,,,,
,,,,,,5dd81eb38ed6bf7c5be5eff3,62c539a87453ccbf503cd803,2022-07-06_09h34.35.067,Colour_Asymmetry_Pilot,2022.1.3,Win32,57.28689276,62c50e9c1127f2cd403a315f,0,68,68,30,1,fourtwo,,,,,,,,,,,,,,,,,,,,,,,,,,,,,,,,,,,,,,,,,,,,,,,,,,,,,,,,,,,,,,,,,,,,,,,,,,,,,,,,,,,,,,,,,,,,,,,,,,,,,,,,,,,,,,,,,,,,,,,,,,,,,,,,,,,,,,,,,,,,,,,,,,,,,,,,,,,,,
,,,,,,5dd81eb38ed6bf7c5be5eff3,62c539a87453ccbf503cd803,2022-07-06_09h34.35.067,Colour_Asymmetry_Pilot,2022.1.3,Win32,57.28689276,62c50e9c1127f2cd403a315f,0,69,69,8,1,onetwo,,,,,,,,,,,,,,,,,,,,,,,,,,,,,,,,,,,,,,,,,,,,,,,,,,,,,,,,,,,,,,,,,,,,,,,,,,,,,,,,,,,,,,,,,,,,,,,,,,,,,,,,,,,,,,,,,,,,,,,,,,,,,,,,,,,,,,,,,,,,,,,,,,,,,,,,,,,,,
,,,,,,5dd81eb38ed6bf7c5be5eff3,62c539a87453ccbf503cd803,2022-07-06_09h34.35.067,Colour_Asymmetry_Pilot,2022.1.3,Win32,57.28689276,62c50e9c1127f2cd403a315f,0,70,70,49,1,onethree,,,,,,,,,,,,,,,,,,,,,,,,,,,,,,,,,,,,,,,,,,,,,,,,,,,,,,,,,,,,,,,,,,,,,,,,,,,,,,,,,,,,,,,,,,,,,,,,,,,,,,,,,,,,,,,,,,,,,,,,,,,,,,,,,,,,,,,,,,,,,,,,,,,,,,,,,,,,,
,,,,,,5dd81eb38ed6bf7c5be5eff3,62c539a87453ccbf503cd803,2022-07-06_09h34.35.067,Colour_Asymmetry_Pilot,2022.1.3,Win32,57.28689276,62c50e9c1127f2cd403a315f,0,71,71,68,1,threeone,,,,,,,,,,,,,,,,,,,,,,,,,,,,,,,,,,,,,,,,,,,,,,,,,,,,,,,,,,,,,,,,,,,,,,,,,,,,,,,,,,,,,,,,,,,,,,,,,,,,,,,,,,,,,,,,,,,,,,,,,,,,,,,,,,,,,,,,,,,,,,,,,,,,,,,,,,,,,
,,,,,,5dd81eb38ed6bf7c5be5eff3,62c539a87453ccbf503cd803,2022-07-06_09h34.35.067,Colour_Asymmetry_Pilot,2022.1.3,Win32,57.28689276,62c50e9c1127f2cd403a315f,0,72,72,84,1,threeone,,,,,,,,,,,,,,,,,,,,,,,,,,,,,,,,,,,,,,,,,,,,,,,,,,,,,,,,,,,,,,,,,,,,,,,,,,,,,,,,,,,,,,,,,,,,,,,,,,,,,,,,,,,,,,,,,,,,,,,,,,,,,,,,,,,,,,,,,,,,,,,,,,,,,,,,,,,,,
,,,,,,5dd81eb38ed6bf7c5be5eff3,62c539a87453ccbf503cd803,2022-07-06_09h34.35.067,Colour_Asymmetry_Pilot,2022.1.3,Win32,57.28689276,62c50e9c1127f2cd403a315f,0,73,73,52,1,threeone,,,,,,,,,,,,,,,,,,,,,,,,,,,,,,,,,,,,,,,,,,,,,,,,,,,,,,,,,,,,,,,,,,,,,,,,,,,,,,,,,,,,,,,,,,,,,,,,,,,,,,,,,,,,,,,,,,,,,,,,,,,,,,,,,,,,,,,,,,,,,,,,,,,,,,,,,,,,,
,,,,,,5dd81eb38ed6bf7c5be5eff3,62c539a87453ccbf503cd803,2022-07-06_09h34.35.067,Colour_Asymmetry_Pilot,2022.1.3,Win32,57.28689276,62c50e9c1127f2cd403a315f,0,74,74,93,1,threefour,,,,,,,,,,,,,,,,,,,,,,,,,,,,,,,,,,,,,,,,,,,,,,,,,,,,,,,,,,,,,,,,,,,,,,,,,,,,,,,,,,,,,,,,,,,,,,,,,,,,,,,,,,,,,,,,,,,,,,,,,,,,,,,,,,,,,,,,,,,,,,,,,,,,,,,,,,,,,
,,,,,,5dd81eb38ed6bf7c5be5eff3,62c539a87453ccbf503cd803,2022-07-06_09h34.35.067,Colour_Asymmetry_Pilot,2022.1.3,Win32,57.28689276,62c50e9c1127f2cd403a315f,0,75,75,103,1,fourthree,,,,,,,,,,,,,,,,,,,,,,,,,,,,,,,,,,,,,,,,,,,,,,,,,,,,,,,,,,,,,,,,,,,,,,,,,,,,,,,,,,,,,,,,,,,,,,,,,,,,,,,,,,,,,,,,,,,,,,,,,,,,,,,,,,,,,,,,,,,,,,,,,,,,,,,,,,,,,
,,,,,,5dd81eb38ed6bf7c5be5eff3,62c539a87453ccbf503cd803,2022-07-06_09h34.35.067,Colour_Asymmetry_Pilot,2022.1.3,Win32,57.28689276,62c50e9c1127f2cd403a315f,0,76,76,136,1,onetwo,,,,,,,,,,,,,,,,,,,,,,,,,,,,,,,,,,,,,,,,,,,,,,,,,,,,,,,,,,,,,,,,,,,,,,,,,,,,,,,,,,,,,,,,,,,,,,,,,,,,,,,,,,,,,,,,,,,,,,,,,,,,,,,,,,,,,,,,,,,,,,,,,,,,,,,,,,,,,
,,,,,,5dd81eb38ed6bf7c5be5eff3,62c539a87453ccbf503cd803,2022-07-06_09h34.35.067,Colour_Asymmetry_Pilot,2022.1.3,Win32,57.28689276,62c50e9c1127f2cd403a315f,0,77,77,41,1,onethree,,,,,,,,,,,,,,,,,,,,,,,,,,,,,,,,,,,,,,,,,,,,,,,,,,,,,,,,,,,,,,,,,,,,,,,,,,,,,,,,,,,,,,,,,,,,,,,,,,,,,,,,,,,,,,,,,,,,,,,,,,,,,,,,,,,,,,,,,,,,,,,,,,,,,,,,,,,,,
,,,,,,5dd81eb38ed6bf7c5be5eff3,62c539a87453ccbf503cd803,2022-07-06_09h34.35.067,Colour_Asymmetry_Pilot,2022.1.3,Win32,57.28689276,62c50e9c1127f2cd403a315f,0,78,78,15,1,fourthree,,,,,,,,,,,,,,,,,,,,,,,,,,,,,,,,,,,,,,,,,,,,,,,,,,,,,,,,,,,,,,,,,,,,,,,,,,,,,,,,,,,,,,,,,,,,,,,,,,,,,,,,,,,,,,,,,,,,,,,,,,,,,,,,,,,,,,,,,,,,,,,,,,,,,,,,,,,,,
,,,,,,5dd81eb38ed6bf7c5be5eff3,62c539a87453ccbf503cd803,2022-07-06_09h34.35.067,Colour_Asymmetry_Pilot,2022.1.3,Win32,57.28689276,62c50e9c1127f2cd403a315f,0,79,79,71,1,fourthree,,,,,,,,,,,,,,,,,,,,,,,,,,,,,,,,,,,,,,,,,,,,,,,,,,,,,,,,,,,,,,,,,,,,,,,,,,,,,,,,,,,,,,,,,,,,,,,,,,,,,,,,,,,,,,,,,,,,,,,,,,,,,,,,,,,,,,,,,,,,,,,,,,,,,,,,,,,,,
,,,,,,5dd81eb38ed6bf7c5be5eff3,62c539a87453ccbf503cd803,2022-07-06_09h34.35.067,Colour_Asymmetry_Pilot,2022.1.3,Win32,57.28689276,62c50e9c1127f2cd403a315f,0,80,80,105,1,onethree,,,,,,,,,,,,,,,,,,,,,,,,,,,,,,,,,,,,,,,,,,,,,,,,,,,,,,,,,,,,,,,,,,,,,,,,,,,,,,,,,,,,,,,,,,,,,,,,,,,,,,,,,,,,,,,,,,,,,,,,,,,,,,,,,,,,,,,,,,,,,,,,,,,,,,,,,,,,,
,,,,,,5dd81eb38ed6bf7c5be5eff3,62c539a87453ccbf503cd803,2022-07-06_09h34.35.067,Colour_Asymmetry_Pilot,2022.1.3,Win32,57.28689276,62c50e9c1127f2cd403a315f,0,81,81,106,1,twoone,,,,,,,,,,,,,,,,,,,,,,,,,,,,,,,,,,,,,,,,,,,,,,,,,,,,,,,,,,,,,,,,,,,,,,,,,,,,,,,,,,,,,,,,,,,,,,,,,,,,,,,,,,,,,,,,,,,,,,,,,,,,,,,,,,,,,,,,,,,,,,,,,,,,,,,,,,,,,
,,,,,,5dd81eb38ed6bf7c5be5eff3,62c539a87453ccbf503cd803,2022-07-06_09h34.35.067,Colour_Asymmetry_Pilot,2022.1.3,Win32,57.28689276,62c50e9c1127f2cd403a315f,0,82,82,133,1,threefour,,,,,,,,,,,,,,,,,,,,,,,,,,,,,,,,,,,,,,,,,,,,,,,,,,,,,,,,,,,,,,,,,,,,,,,,,,,,,,,,,,,,,,,,,,,,,,,,,,,,,,,,,,,,,,,,,,,,,,,,,,,,,,,,,,,,,,,,,,,,,,,,,,,,,,,,,,,,,
,,,,,,5dd81eb38ed6bf7c5be5eff3,62c539a87453ccbf503cd803,2022-07-06_09h34.35.067,Colour_Asymmetry_Pilot,2022.1.3,Win32,57.28689276,62c50e9c1127f2cd403a315f,0,83,83,34,1,twoone,,,,,,,,,,,,,,,,,,,,,,,,,,,,,,,,,,,,,,,,,,,,,,,,,,,,,,,,,,,,,,,,,,,,,,,,,,,,,,,,,,,,,,,,,,,,,,,,,,,,,,,,,,,,,,,,,,,,,,,,,,,,,,,,,,,,,,,,,,,,,,,,,,,,,,,,,,,,,
,,,,,,5dd81eb38ed6bf7c5be5eff3,62c539a87453ccbf503cd803,2022-07-06_09h34.35.067,Colour_Asymmetry_Pilot,2022.1.3,Win32,57.28689276,62c50e9c1127f2cd403a315f,0,84,84,101,1,threefour,,,,,,,,,,,,,,,,,,,,,,,,,,,,,,,,,,,,,,,,,,,,,,,,,,,,,,,,,,,,,,,,,,,,,,,,,,,,,,,,,,,,,,,,,,,,,,,,,,,,,,,,,,,,,,,,,,,,,,,,,,,,,,,,,,,,,,,,,,,,,,,,,,,,,,,,,,,,,
,,,,,,5dd81eb38ed6bf7c5be5eff3,62c539a87453ccbf503cd803,2022-07-06_09h34.35.067,Colour_Asymmetry_Pilot,2022.1.3,Win32,57.28689276,62c50e9c1127f2cd403a315f,0,85,85,149,1,threefour,,,,,,,,,,,,,,,,,,,,,,,,,,,,,,,,,,,,,,,,,,,,,,,,,,,,,,,,,,,,,,,,,,,,,,,,,,,,,,,,,,,,,,,,,,,,,,,,,,,,,,,,,,,,,,,,,,,,,,,,,,,,,,,,,,,,,,,,,,,,,,,,,,,,,,,,,,,,,
,,,,,,5dd81eb38ed6bf7c5be5eff3,62c539a87453ccbf503cd803,2022-07-06_09h34.35.067,Colour_Asymmetry_Pilot,2022.1.3,Win32,57.28689276,62c50e9c1127f2cd403a315f,0,86,86,59,1,twofour,,,,,,,,,,,,,,,,,,,,,,,,,,,,,,,,,,,,,,,,,,,,,,,,,,,,,,,,,,,,,,,,,,,,,,,,,,,,,,,,,,,,,,,,,,,,,,,,,,,,,,,,,,,,,,,,,,,,,,,,,,,,,,,,,,,,,,,,,,,,,,,,,,,,,,,,,,,,,
,,,,,,5dd81eb38ed6bf7c5be5eff3,62c539a87453ccbf503cd803,2022-07-06_09h34.35.067,Colour_Asymmetry_Pilot,2022.1.3,Win32,57.28689276,62c50e9c1127f2cd403a315f,0,87,87,126,1,fourtwo,,,,,,,,,,,,,,,,,,,,,,,,,,,,,,,,,,,,,,,,,,,,,,,,,,,,,,,,,,,,,,,,,,,,,,,,,,,,,,,,,,,,,,,,,,,,,,,,,,,,,,,,,,,,,,,,,,,,,,,,,,,,,,,,,,,,,,,,,,,,,,,,,,,,,,,,,,,,,
,,,,,,5dd81eb38ed6bf7c5be5eff3,62c539a87453ccbf503cd803,2022-07-06_09h34.35.067,Colour_Asymmetry_Pilot,2022.1.3,Win32,57.28689276,62c50e9c1127f2cd403a315f,0,88,88,139,1,twofour,,,,,,,,,,,,,,,,,,,,,,,,,,,,,,,,,,,,,,,,,,,,,,,,,,,,,,,,,,,,,,,,,,,,,,,,,,,,,,,,,,,,,,,,,,,,,,,,,,,,,,,,,,,,,,,,,,,,,,,,,,,,,,,,,,,,,,,,,,,,,,,,,,,,,,,,,,,,,
,,,,,,5dd81eb38ed6bf7c5be5eff3,62c539a87453ccbf503cd803,2022-07-06_09h34.35.067,Colour_Asymmetry_Pilot,2022.1.3,Win32,57.28689276,62c50e9c1127f2cd403a315f,0,89,89,65,1,onethree,,,,,,,,,,,,,,,,,,,,,,,,,,,,,,,,,,,,,,,,,,,,,,,,,,,,,,,,,,,,,,,,,,,,,,,,,,,,,,,,,,,,,,,,,,,,,,,,,,,,,,,,,,,,,,,,,,,,,,,,,,,,,,,,,,,,,,,,,,,,,,,,,,,,,,,,,,,,,
,,,,,,5dd81eb38ed6bf7c5be5eff3,62c539a87453ccbf503cd803,2022-07-06_09h34.35.067,Colour_Asymmetry_Pilot,2022.1.3,Win32,57.28689276,62c50e9c1127f2cd403a315f,0,90,90,67,1,twofour,,,,,,,,,,,,,,,,,,,,,,,,,,,,,,,,,,,,,,,,,,,,,,,,,,,,,,,,,,,,,,,,,,,,,,,,,,,,,,,,,,,,,,,,,,,,,,,,,,,,,,,,,,,,,,,,,,,,,,,,,,,,,,,,,,,,,,,,,,,,,,,,,,,,,,,,,,,,,
,,,,,,5dd81eb38ed6bf7c5be5eff3,62c539a87453ccbf503cd803,2022-07-06_09h34.35.067,Colour_Asymmetry_Pilot,2022.1.3,Win32,57.28689276,62c50e9c1127f2cd403a315f,0,91,91,89,1,onethree,,,,,,,,,,,,,,,,,,,,,,,,,,,,,,,,,,,,,,,,,,,,,,,,,,,,,,,,,,,,,,,,,,,,,,,,,,,,,,,,,,,,,,,,,,,,,,,,,,,,,,,,,,,,,,,,,,,,,,,,,,,,,,,,,,,,,,,,,,,,,,,,,,,,,,,,,,,,,
,,,,,,5dd81eb38ed6bf7c5be5eff3,62c539a87453ccbf503cd803,2022-07-06_09h34.35.067,Colour_Asymmetry_Pilot,2022.1.3,Win32,57.28689276,62c50e9c1127f2cd403a315f,0,92,92,79,1,fourthree,,,,,,,,,,,,,,,,,,,,,,,,,,,,,,,,,,,,,,,,,,,,,,,,,,,,,,,,,,,,,,,,,,,,,,,,,,,,,,,,,,,,,,,,,,,,,,,,,,,,,,,,,,,,,,,,,,,,,,,,,,,,,,,,,,,,,,,,,,,,,,,,,,,,,,,,,,,,,
,,,,,,5dd81eb38ed6bf7c5be5eff3,62c539a87453ccbf503cd803,2022-07-06_09h34.35.067,Colour_Asymmetry_Pilot,2022.1.3,Win32,57.28689276,62c50e9c1127f2cd403a315f,0,93,93,157,1,threefour,,,,,,,,,,,,,,,,,,,,,,,,,,,,,,,,,,,,,,,,,,,,,,,,,,,,,,,,,,,,,,,,,,,,,,,,,,,,,,,,,,,,,,,,,,,,,,,,,,,,,,,,,,,,,,,,,,,,,,,,,,,,,,,,,,,,,,,,,,,,,,,,,,,,,,,,,,,,,
,,,,,,5dd81eb38ed6bf7c5be5eff3,62c539a87453ccbf503cd803,2022-07-06_09h34.35.067,Colour_Asymmetry_Pilot,2022.1.3,Win32,57.28689276,62c50e9c1127f2cd403a315f,0,94,94,66,1,twoone,,,,,,,,,,,,,,,,,,,,,,,,,,,,,,,,,,,,,,,,,,,,,,,,,,,,,,,,,,,,,,,,,,,,,,,,,,,,,,,,,,,,,,,,,,,,,,,,,,,,,,,,,,,,,,,,,,,,,,,,,,,,,,,,,,,,,,,,,,,,,,,,,,,,,,,,,,,,,
,,,,,,5dd81eb38ed6bf7c5be5eff3,62c539a87453ccbf503cd803,2022-07-06_09h34.35.067,Colour_Asymmetry_Pilot,2022.1.3,Win32,57.28689276,62c50e9c1127f2cd403a315f,0,95,95,72,1,onetwo,,,,,,,,,,,,,,,,,,,,,,,,,,,,,,,,,,,,,,,,,,,,,,,,,,,,,,,,,,,,,,,,,,,,,,,,,,,,,,,,,,,,,,,,,,,,,,,,,,,,,,,,,,,,,,,,,,,,,,,,,,,,,,,,,,,,,,,,,,,,,,,,,,,,,,,,,,,,,
,,,,,,5dd81eb38ed6bf7c5be5eff3,62c539a87453ccbf503cd803,2022-07-06_09h34.35.067,Colour_Asymmetry_Pilot,2022.1.3,Win32,57.28689276,62c50e9c1127f2cd403a315f,0,96,96,135,1,fourthree,,,,,,,,,,,,,,,,,,,,,,,,,,,,,,,,,,,,,,,,,,,,,,,,,,,,,,,,,,,,,,,,,,,,,,,,,,,,,,,,,,,,,,,,,,,,,,,,,,,,,,,,,,,,,,,,,,,,,,,,,,,,,,,,,,,,,,,,,,,,,,,,,,,,,,,,,,,,,
,,,,,,5dd81eb38ed6bf7c5be5eff3,62c539a87453ccbf503cd803,2022-07-06_09h34.35.067,Colour_Asymmetry_Pilot,2022.1.3,Win32,57.28689276,62c50e9c1127f2cd403a315f,0,97,97,83,1,twofour,,,,,,,,,,,,,,,,,,,,,,,,,,,,,,,,,,,,,,,,,,,,,,,,,,,,,,,,,,,,,,,,,,,,,,,,,,,,,,,,,,,,,,,,,,,,,,,,,,,,,,,,,,,,,,,,,,,,,,,,,,,,,,,,,,,,,,,,,,,,,,,,,,,,,,,,,,,,,
,,,,,,5dd81eb38ed6bf7c5be5eff3,62c539a87453ccbf503cd803,2022-07-06_09h34.35.067,Colour_Asymmetry_Pilot,2022.1.3,Win32,57.28689276,62c50e9c1127f2cd403a315f,0,98,98,92,1,threeone,,,,,,,,,,,,,,,,,,,,,,,,,,,,,,,,,,,,,,,,,,,,,,,,,,,,,,,,,,,,,,,,,,,,,,,,,,,,,,,,,,,,,,,,,,,,,,,,,,,,,,,,,,,,,,,,,,,,,,,,,,,,,,,,,,,,,,,,,,,,,,,,,,,,,,,,,,,,,
,,,,,,5dd81eb38ed6bf7c5be5eff3,62c539a87453ccbf503cd803,2022-07-06_09h34.35.067,Colour_Asymmetry_Pilot,2022.1.3,Win32,57.28689276,62c50e9c1127f2cd403a315f,0,99,99,158,1,fourtwo,,,,,,,,,,,,,,,,,,,,,,,,,,,,,,,,,,,,,,,,,,,,,,,,,,,,,,,,,,,,,,,,,,,,,,,,,,,,,,,,,,,,,,,,,,,,,,,,,,,,,,,,,,,,,,,,,,,,,,,,,,,,,,,,,,,,,,,,,,,,,,,,,,,,,,,,,,,,,
,,,,,,5dd81eb38ed6bf7c5be5eff3,62c539a87453ccbf503cd803,2022-07-06_09h34.35.067,Colour_Asymmetry_Pilot,2022.1.3,Win32,57.28689276,62c50e9c1127f2cd403a315f,0,100,100,1,1,onethree,,,,,,,,,,,,,,,,,,,,,,,,,,,,,,,,,,,,,,,,,,,,,,,,,,,,,,,,,,,,,,,,,,,,,,,,,,,,,,,,,,,,,,,,,,,,,,,,,,,,,,,,,,,,,,,,,,,,,,,,,,,,,,,,,,,,,,,,,,,,,,,,,,,,,,,,,,,,,
,,,,,,5dd81eb38ed6bf7c5be5eff3,62c539a87453ccbf503cd803,2022-07-06_09h34.35.067,Colour_Asymmetry_Pilot,2022.1.3,Win32,57.28689276,62c50e9c1127f2cd403a315f,0,101,101,122,1,twoone,,,,,,,,,,,,,,,,,,,,,,,,,,,,,,,,,,,,,,,,,,,,,,,,,,,,,,,,,,,,,,,,,,,,,,,,,,,,,,,,,,,,,,,,,,,,,,,,,,,,,,,,,,,,,,,,,,,,,,,,,,,,,,,,,,,,,,,,,,,,,,,,,,,,,,,,,,,,,
,,,,,,5dd81eb38ed6bf7c5be5eff3,62c539a87453ccbf503cd803,2022-07-06_09h34.35.067,Colour_Asymmetry_Pilot,2022.1.3,Win32,57.28689276,62c50e9c1127f2cd403a315f,0,102,102,38,1,fourtwo,,,,,,,,,,,,,,,,,,,,,,,,,,,,,,,,,,,,,,,,,,,,,,,,,,,,,,,,,,,,,,,,,,,,,,,,,,,,,,,,,,,,,,,,,,,,,,,,,,,,,,,,,,,,,,,,,,,,,,,,,,,,,,,,,,,,,,,,,,,,,,,,,,,,,,,,,,,,,
,,,,,,5dd81eb38ed6bf7c5be5eff3,62c539a87453ccbf503cd803,2022-07-06_09h34.35.067,Colour_Asymmetry_Pilot,2022.1.3,Win32,57.28689276,62c50e9c1127f2cd403a315f,0,103,103,25,1,onethree,,,,,,,,,,,,,,,,,,,,,,,,,,,,,,,,,,,,,,,,,,,,,,,,,,,,,,,,,,,,,,,,,,,,,,,,,,,,,,,,,,,,,,,,,,,,,,,,,,,,,,,,,,,,,,,,,,,,,,,,,,,,,,,,,,,,,,,,,,,,,,,,,,,,,,,,,,,,,
,,,,,,5dd81eb38ed6bf7c5be5eff3,62c539a87453ccbf503cd803,2022-07-06_09h34.35.067,Colour_Asymmetry_Pilot,2022.1.3,Win32,57.28689276,62c50e9c1127f2cd403a315f,0,104,104,100,1,threeone,,,,,,,,,,,,,,,,,,,,,,,,,,,,,,,,,,,,,,,,,,,,,,,,,,,,,,,,,,,,,,,,,,,,,,,,,,,,,,,,,,,,,,,,,,,,,,,,,,,,,,,,,,,,,,,,,,,,,,,,,,,,,,,,,,,,,,,,,,,,,,,,,,,,,,,,,,,,,
,,,,,,5dd81eb38ed6bf7c5be5eff3,62c539a87453ccbf503cd803,2022-07-06_09h34.35.067,Colour_Asymmetry_Pilot,2022.1.3,Win32,57.28689276,62c50e9c1127f2cd403a315f,0,105,105,51,1,twofour,,,,,,,,,,,,,,,,,,,,,,,,,,,,,,,,,,,,,,,,,,,,,,,,,,,,,,,,,,,,,,,,,,,,,,,,,,,,,,,,,,,,,,,,,,,,,,,,,,,,,,,,,,,,,,,,,,,,,,,,,,,,,,,,,,,,,,,,,,,,,,,,,,,,,,,,,,,,,
,,,,,,5dd81eb38ed6bf7c5be5eff3,62c539a87453ccbf503cd803,2022-07-06_09h34.35.067,Colour_Asymmetry_Pilot,2022.1.3,Win32,57.28689276,62c50e9c1127f2cd403a315f,0,106,106,148,1,threeone,,,,,,,,,,,,,,,,,,,,,,,,,,,,,,,,,,,,,,,,,,,,,,,,,,,,,,,,,,,,,,,,,,,,,,,,,,,,,,,,,,,,,,,,,,,,,,,,,,,,,,,,,,,,,,,,,,,,,,,,,,,,,,,,,,,,,,,,,,,,,,,,,,,,,,,,,,,,,
,,,,,,5dd81eb38ed6bf7c5be5eff3,62c539a87453ccbf503cd803,2022-07-06_09h34.35.067,Colour_Asymmetry_Pilot,2022.1.3,Win32,57.28689276,62c50e9c1127f2cd403a315f,0,107,107,129,1,onethree,,,,,,,,,,,,,,,,,,,,,,,,,,,,,,,,,,,,,,,,,,,,,,,,,,,,,,,,,,,,,,,,,,,,,,,,,,,,,,,,,,,,,,,,,,,,,,,,,,,,,,,,,,,,,,,,,,,,,,,,,,,,,,,,,,,,,,,,,,,,,,,,,,,,,,,,,,,,,
,,,,,,5dd81eb38ed6bf7c5be5eff3,62c539a87453ccbf503cd803,2022-07-06_09h34.35.067,Colour_Asymmetry_Pilot,2022.1.3,Win32,57.28689276,62c50e9c1127f2cd403a315f,0,108,108,17,1,onethree,,,,,,,,,,,,,,,,,,,,,,,,,,,,,,,,,,,,,,,,,,,,,,,,,,,,,,,,,,,,,,,,,,,,,,,,,,,,,,,,,,,,,,,,,,,,,,,,,,,,,,,,,,,,,,,,,,,,,,,,,,,,,,,,,,,,,,,,,,,,,,,,,,,,,,,,,,,,,
,,,,,,5dd81eb38ed6bf7c5be5eff3,62c539a87453ccbf503cd803,2022-07-06_09h34.35.067,Colour_Asymmetry_Pilot,2022.1.3,Win32,57.28689276,62c50e9c1127f2cd403a315f,0,109,109,44,1,threeone,,,,,,,,,,,,,,,,,,,,,,,,,,,,,,,,,,,,,,,,,,,,,,,,,,,,,,,,,,,,,,,,,,,,,,,,,,,,,,,,,,,,,,,,,,,,,,,,,,,,,,,,,,,,,,,,,,,,,,,,,,,,,,,,,,,,,,,,,,,,,,,,,,,,,,,,,,,,,
,,,,,,5dd81eb38ed6bf7c5be5eff3,62c539a87453ccbf503cd803,2022-07-06_09h34.35.067,Colour_Asymmetry_Pilot,2022.1.3,Win32,57.28689276,62c50e9c1127f2cd403a315f,0,110,110,138,1,twoone,,,,,,,,,,,,,,,,,,,,,,,,,,,,,,,,,,,,,,,,,,,,,,,,,,,,,,,,,,,,,,,,,,,,,,,,,,,,,,,,,,,,,,,,,,,,,,,,,,,,,,,,,,,,,,,,,,,,,,,,,,,,,,,,,,,,,,,,,,,,,,,,,,,,,,,,,,,,,
,,,,,,5dd81eb38ed6bf7c5be5eff3,62c539a87453ccbf503cd803,2022-07-06_09h34.35.067,Colour_Asymmetry_Pilot,2022.1.3,Win32,57.28689276,62c50e9c1127f2cd403a315f,0,111,111,142,1,fourtwo,,,,,,,,,,,,,,,,,,,,,,,,,,,,,,,,,,,,,,,,,,,,,,,,,,,,,,,,,,,,,,,,,,,,,,,,,,,,,,,,,,,,,,,,,,,,,,,,,,,,,,,,,,,,,,,,,,,,,,,,,,,,,,,,,,,,,,,,,,,,,,,,,,,,,,,,,,,,,
,,,,,,5dd81eb38ed6bf7c5be5eff3,62c539a87453ccbf503cd803,2022-07-06_09h34.35.067,Colour_Asymmetry_Pilot,2022.1.3,Win32,57.28689276,62c50e9c1127f2cd403a315f,0,112,112,3,1,twofour,,,,,,,,,,,,,,,,,,,,,,,,,,,,,,,,,,,,,,,,,,,,,,,,,,,,,,,,,,,,,,,,,,,,,,,,,,,,,,,,,,,,,,,,,,,,,,,,,,,,,,,,,,,,,,,,,,,,,,,,,,,,,,,,,,,,,,,,,,,,,,,,,,,,,,,,,,,,,
,,,,,,5dd81eb38ed6bf7c5be5eff3,62c539a87453ccbf503cd803,2022-07-06_09h34.35.067,Colour_Asymmetry_Pilot,2022.1.3,Win32,57.28689276,62c50e9c1127f2cd403a315f,0,113,113,77,1,threefour,,,,,,,,,,,,,,,,,,,,,,,,,,,,,,,,,,,,,,,,,,,,,,,,,,,,,,,,,,,,,,,,,,,,,,,,,,,,,,,,,,,,,,,,,,,,,,,,,,,,,,,,,,,,,,,,,,,,,,,,,,,,,,,,,,,,,,,,,,,,,,,,,,,,,,,,,,,,,
,,,,,,5dd81eb38ed6bf7c5be5eff3,62c539a87453ccbf503cd803,2022-07-06_09h34.35.067,Colour_Asymmetry_Pilot,2022.1.3,Win32,57.28689276,62c50e9c1127f2cd403a315f,0,114,114,144,1,onetwo,,,,,,,,,,,,,,,,,,,,,,,,,,,,,,,,,,,,,,,,,,,,,,,,,,,,,,,,,,,,,,,,,,,,,,,,,,,,,,,,,,,,,,,,,,,,,,,,,,,,,,,,,,,,,,,,,,,,,,,,,,,,,,,,,,,,,,,,,,,,,,,,,,,,,,,,,,,,,
,,,,,,5dd81eb38ed6bf7c5be5eff3,62c539a87453ccbf503cd803,2022-07-06_09h34.35.067,Colour_Asymmetry_Pilot,2022.1.3,Win32,57.28689276,62c50e9c1127f2cd403a315f,0,115,115,107,1,twofour,,,,,,,,,,,,,,,,,,,,,,,,,,,,,,,,,,,,,,,,,,,,,,,,,,,,,,,,,,,,,,,,,,,,,,,,,,,,,,,,,,,,,,,,,,,,,,,,,,,,,,,,,,,,,,,,,,,,,,,,,,,,,,,,,,,,,,,,,,,,,,,,,,,,,,,,,,,,,
,,,,,,5dd81eb38ed6bf7c5be5eff3,62c539a87453ccbf503cd803,2022-07-06_09h34.35.067,Colour_Asymmetry_Pilot,2022.1.3,Win32,57.28689276,62c50e9c1127f2cd403a315f,0,116,116,55,1,fourthree,,,,,,,,,,,,,,,,,,,,,,,,,,,,,,,,,,,,,,,,,,,,,,,,,,,,,,,,,,,,,,,,,,,,,,,,,,,,,,,,,,,,,,,,,,,,,,,,,,,,,,,,,,,,,,,,,,,,,,,,,,,,,,,,,,,,,,,,,,,,,,,,,,,,,,,,,,,,,
,,,,,,5dd81eb38ed6bf7c5be5eff3,62c539a87453ccbf503cd803,2022-07-06_09h34.35.067,Colour_Asymmetry_Pilot,2022.1.3,Win32,57.28689276,62c50e9c1127f2cd403a315f,0,117,117,112,1,onetwo,,,,,,,,,,,,,,,,,,,,,,,,,,,,,,,,,,,,,,,,,,,,,,,,,,,,,,,,,,,,,,,,,,,,,,,,,,,,,,,,,,,,,,,,,,,,,,,,,,,,,,,,,,,,,,,,,,,,,,,,,,,,,,,,,,,,,,,,,,,,,,,,,,,,,,,,,,,,,
,,,,,,5dd81eb38ed6bf7c5be5eff3,62c539a87453ccbf503cd803,2022-07-06_09h34.35.067,Colour_Asymmetry_Pilot,2022.1.3,Win32,57.28689276,62c50e9c1127f2cd403a315f,0,118,118,88,1,onetwo,,,,,,,,,,,,,,,,,,,,,,,,,,,,,,,,,,,,,,,,,,,,,,,,,,,,,,,,,,,,,,,,,,,,,,,,,,,,,,,,,,,,,,,,,,,,,,,,,,,,,,,,,,,,,,,,,,,,,,,,,,,,,,,,,,,,,,,,,,,,,,,,,,,,,,,,,,,,,
,,,,,,5dd81eb38ed6bf7c5be5eff3,62c539a87453ccbf503cd803,2022-07-06_09h34.35.067,Colour_Asymmetry_Pilot,2022.1.3,Win32,57.28689276,62c50e9c1127f2cd403a315f,0,119,119,134,1,fourtwo,,,,,,,,,,,,,,,,,,,,,,,,,,,,,,,,,,,,,,,,,,,,,,,,,,,,,,,,,,,,,,,,,,,,,,,,,,,,,,,,,,,,,,,,,,,,,,,,,,,,,,,,,,,,,,,,,,,,,,,,,,,,,,,,,,,,,,,,,,,,,,,,,,,,,,,,,,,,,
,,,,,,5dd81eb38ed6bf7c5be5eff3,62c539a87453ccbf503cd803,2022-07-06_09h34.35.067,Colour_Asymmetry_Pilot,2022.1.3,Win32,57.28689276,62c50e9c1127f2cd403a315f,0,120,120,137,1,onethree,,,,,,,,,,,,,,,,,,,,,,,,,,,,,,,,,,,,,,,,,,,,,,,,,,,,,,,,,,,,,,,,,,,,,,,,,,,,,,,,,,,,,,,,,,,,,,,,,,,,,,,,,,,,,,,,,,,,,,,,,,,,,,,,,,,,,,,,,,,,,,,,,,,,,,,,,,,,,
,,,,,,5dd81eb38ed6bf7c5be5eff3,62c539a87453ccbf503cd803,2022-07-06_09h34.35.067,Colour_Asymmetry_Pilot,2022.1.3,Win32,57.28689276,62c50e9c1127f2cd403a315f,0,121,121,128,1,onetwo,,,,,,,,,,,,,,,,,,,,,,,,,,,,,,,,,,,,,,,,,,,,,,,,,,,,,,,,,,,,,,,,,,,,,,,,,,,,,,,,,,,,,,,,,,,,,,,,,,,,,,,,,,,,,,,,,,,,,,,,,,,,,,,,,,,,,,,,,,,,,,,,,,,,,,,,,,,,,
,,,,,,5dd81eb38ed6bf7c5be5eff3,62c539a87453ccbf503cd803,2022-07-06_09h34.35.067,Colour_Asymmetry_Pilot,2022.1.3,Win32,57.28689276,62c50e9c1127f2cd403a315f,0,122,122,86,1,fourtwo,,,,,,,,,,,,,,,,,,,,,,,,,,,,,,,,,,,,,,,,,,,,,,,,,,,,,,,,,,,,,,,,,,,,,,,,,,,,,,,,,,,,,,,,,,,,,,,,,,,,,,,,,,,,,,,,,,,,,,,,,,,,,,,,,,,,,,,,,,,,,,,,,,,,,,,,,,,,,
,,,,,,5dd81eb38ed6bf7c5be5eff3,62c539a87453ccbf503cd803,2022-07-06_09h34.35.067,Colour_Asymmetry_Pilot,2022.1.3,Win32,57.28689276,62c50e9c1127f2cd403a315f,0,123,123,27,1,twofour,,,,,,,,,,,,,,,,,,,,,,,,,,,,,,,,,,,,,,,,,,,,,,,,,,,,,,,,,,,,,,,,,,,,,,,,,,,,,,,,,,,,,,,,,,,,,,,,,,,,,,,,,,,,,,,,,,,,,,,,,,,,,,,,,,,,,,,,,,,,,,,,,,,,,,,,,,,,,
,,,,,,5dd81eb38ed6bf7c5be5eff3,62c539a87453ccbf503cd803,2022-07-06_09h34.35.067,Colour_Asymmetry_Pilot,2022.1.3,Win32,57.28689276,62c50e9c1127f2cd403a315f,0,124,124,120,1,onetwo,,,,,,,,,,,,,,,,,,,,,,,,,,,,,,,,,,,,,,,,,,,,,,,,,,,,,,,,,,,,,,,,,,,,,,,,,,,,,,,,,,,,,,,,,,,,,,,,,,,,,,,,,,,,,,,,,,,,,,,,,,,,,,,,,,,,,,,,,,,,,,,,,,,,,,,,,,,,,
,,,,,,5dd81eb38ed6bf7c5be5eff3,62c539a87453ccbf503cd803,2022-07-06_09h34.35.067,Colour_Asymmetry_Pilot,2022.1.3,Win32,57.28689276,62c50e9c1127f2cd403a315f,0,125,125,69,1,threefour,,,,,,,,,,,,,,,,,,,,,,,,,,,,,,,,,,,,,,,,,,,,,,,,,,,,,,,,,,,,,,,,,,,,,,,,,,,,,,,,,,,,,,,,,,,,,,,,,,,,,,,,,,,,,,,,,,,,,,,,,,,,,,,,,,,,,,,,,,,,,,,,,,,,,,,,,,,,,
,,,,,,5dd81eb38ed6bf7c5be5eff3,62c539a87453ccbf503cd803,2022-07-06_09h34.35.067,Colour_Asymmetry_Pilot,2022.1.3,Win32,57.28689276,62c50e9c1127f2cd403a315f,0,126,126,87,1,fourthree,,,,,,,,,,,,,,,,,,,,,,,,,,,,,,,,,,,,,,,,,,,,,,,,,,,,,,,,,,,,,,,,,,,,,,,,,,,,,,,,,,,,,,,,,,,,,,,,,,,,,,,,,,,,,,,,,,,,,,,,,,,,,,,,,,,,,,,,,,,,,,,,,,,,,,,,,,,,,
,,,,,,5dd81eb38ed6bf7c5be5eff3,62c539a87453ccbf503cd803,2022-07-06_09h34.35.067,Colour_Asymmetry_Pilot,2022.1.3,Win32,57.28689276,62c50e9c1127f2cd403a315f,0,127,127,50,1,twoone,,,,,,,,,,,,,,,,,,,,,,,,,,,,,,,,,,,,,,,,,,,,,,,,,,,,,,,,,,,,,,,,,,,,,,,,,,,,,,,,,,,,,,,,,,,,,,,,,,,,,,,,,,,,,,,,,,,,,,,,,,,,,,,,,,,,,,,,,,,,,,,,,,,,,,,,,,,,,
,,,,,,5dd81eb38ed6bf7c5be5eff3,62c539a87453ccbf503cd803,2022-07-06_09h34.35.067,Colour_Asymmetry_Pilot,2022.1.3,Win32,57.28689276,62c50e9c1127f2cd403a315f,0,128,128,143,1,fourthree,,,,,,,,,,,,,,,,,,,,,,,,,,,,,,,,,,,,,,,,,,,,,,,,,,,,,,,,,,,,,,,,,,,,,,,,,,,,,,,,,,,,,,,,,,,,,,,,,,,,,,,,,,,,,,,,,,,,,,,,,,,,,,,,,,,,,,,,,,,,,,,,,,,,,,,,,,,,,
,,,,,,5dd81eb38ed6bf7c5be5eff3,62c539a87453ccbf503cd803,2022-07-06_09h34.35.067,Colour_Asymmetry_Pilot,2022.1.3,Win32,57.28689276,62c50e9c1127f2cd403a315f,0,129,129,114,1,twoone,,,,,,,,,,,,,,,,,,,,,,,,,,,,,,,,,,,,,,,,,,,,,,,,,,,,,,,,,,,,,,,,,,,,,,,,,,,,,,,,,,,,,,,,,,,,,,,,,,,,,,,,,,,,,,,,,,,,,,,,,,,,,,,,,,,,,,,,,,,,,,,,,,,,,,,,,,,,,
,,,,,,5dd81eb38ed6bf7c5be5eff3,62c539a87453ccbf503cd803,2022-07-06_09h34.35.067,Colour_Asymmetry_Pilot,2022.1.3,Win32,57.28689276,62c50e9c1127f2cd403a315f,0,130,130,70,1,fourtwo,,,,,,,,,,,,,,,,,,,,,,,,,,,,,,,,,,,,,,,,,,,,,,,,,,,,,,,,,,,,,,,,,,,,,,,,,,,,,,,,,,,,,,,,,,,,,,,,,,,,,,,,,,,,,,,,,,,,,,,,,,,,,,,,,,,,,,,,,,,,,,,,,,,,,,,,,,,,,
,,,,,,5dd81eb38ed6bf7c5be5eff3,62c539a87453ccbf503cd803,2022-07-06_09h34.35.067,Colour_Asymmetry_Pilot,2022.1.3,Win32,57.28689276,62c50e9c1127f2cd403a315f,0,131,131,56,1,onetwo,,,,,,,,,,,,,,,,,,,,,,,,,,,,,,,,,,,,,,,,,,,,,,,,,,,,,,,,,,,,,,,,,,,,,,,,,,,,,,,,,,,,,,,,,,,,,,,,,,,,,,,,,,,,,,,,,,,,,,,,,,,,,,,,,,,,,,,,,,,,,,,,,,,,,,,,,,,,,
,,,,,,5dd81eb38ed6bf7c5be5eff3,62c539a87453ccbf503cd803,2022-07-06_09h34.35.067,Colour_Asymmetry_Pilot,2022.1.3,Win32,57.28689276,62c50e9c1127f2cd403a315f,0,132,132,113,1,onethree,,,,,,,,,,,,,,,,,,,,,,,,,,,,,,,,,,,,,,,,,,,,,,,,,,,,,,,,,,,,,,,,,,,,,,,,,,,,,,,,,,,,,,,,,,,,,,,,,,,,,,,,,,,,,,,,,,,,,,,,,,,,,,,,,,,,,,,,,,,,,,,,,,,,,,,,,,,,,
,,,,,,5dd81eb38ed6bf7c5be5eff3,62c539a87453ccbf503cd803,2022-07-06_09h34.35.067,Colour_Asymmetry_Pilot,2022.1.3,Win32,57.28689276,62c50e9c1127f2cd403a315f,0,133,133,121,1,onethree,,,,,,,,,,,,,,,,,,,,,,,,,,,,,,,,,,,,,,,,,,,,,,,,,,,,,,,,,,,,,,,,,,,,,,,,,,,,,,,,,,,,,,,,,,,,,,,,,,,,,,,,,,,,,,,,,,,,,,,,,,,,,,,,,,,,,,,,,,,,,,,,,,,,,,,,,,,,,
,,,,,,5dd81eb38ed6bf7c5be5eff3,62c539a87453ccbf503cd803,2022-07-06_09h34.35.067,Colour_Asymmetry_Pilot,2022.1.3,Win32,57.28689276,62c50e9c1127f2cd403a315f,0,134,134,155,1,twofour,,,,,,,,,,,,,,,,,,,,,,,,,,,,,,,,,,,,,,,,,,,,,,,,,,,,,,,,,,,,,,,,,,,,,,,,,,,,,,,,,,,,,,,,,,,,,,,,,,,,,,,,,,,,,,,,,,,,,,,,,,,,,,,,,,,,,,,,,,,,,,,,,,,,,,,,,,,,,
,,,,,,5dd81eb38ed6bf7c5be5eff3,62c539a87453ccbf503cd803,2022-07-06_09h34.35.067,Colour_Asymmetry_Pilot,2022.1.3,Win32,57.28689276,62c50e9c1127f2cd403a315f,0,135,135,145,1,onethree,,,,,,,,,,,,,,,,,,,,,,,,,,,,,,,,,,,,,,,,,,,,,,,,,,,,,,,,,,,,,,,,,,,,,,,,,,,,,,,,,,,,,,,,,,,,,,,,,,,,,,,,,,,,,,,,,,,,,,,,,,,,,,,,,,,,,,,,,,,,,,,,,,,,,,,,,,,,,
,,,,,,5dd81eb38ed6bf7c5be5eff3,62c539a87453ccbf503cd803,2022-07-06_09h34.35.067,Colour_Asymmetry_Pilot,2022.1.3,Win32,57.28689276,62c50e9c1127f2cd403a315f,0,136,136,33,1,onethree,,,,,,,,,,,,,,,,,,,,,,,,,,,,,,,,,,,,,,,,,,,,,,,,,,,,,,,,,,,,,,,,,,,,,,,,,,,,,,,,,,,,,,,,,,,,,,,,,,,,,,,,,,,,,,,,,,,,,,,,,,,,,,,,,,,,,,,,,,,,,,,,,,,,,,,,,,,,,
,,,,,,5dd81eb38ed6bf7c5be5eff3,62c539a87453ccbf503cd803,2022-07-06_09h34.35.067,Colour_Asymmetry_Pilot,2022.1.3,Win32,57.28689276,62c50e9c1127f2cd403a315f,0,137,137,154,1,twoone,,,,,,,,,,,,,,,,,,,,,,,,,,,,,,,,,,,,,,,,,,,,,,,,,,,,,,,,,,,,,,,,,,,,,,,,,,,,,,,,,,,,,,,,,,,,,,,,,,,,,,,,,,,,,,,,,,,,,,,,,,,,,,,,,,,,,,,,,,,,,,,,,,,,,,,,,,,,,
,,,,,,5dd81eb38ed6bf7c5be5eff3,62c539a87453ccbf503cd803,2022-07-06_09h34.35.067,Colour_Asymmetry_Pilot,2022.1.3,Win32,57.28689276,62c50e9c1127f2cd403a315f,0,138,138,21,1,threefour,,,,,,,,,,,,,,,,,,,,,,,,,,,,,,,,,,,,,,,,,,,,,,,,,,,,,,,,,,,,,,,,,,,,,,,,,,,,,,,,,,,,,,,,,,,,,,,,,,,,,,,,,,,,,,,,,,,,,,,,,,,,,,,,,,,,,,,,,,,,,,,,,,,,,,,,,,,,,
,,,,,,5dd81eb38ed6bf7c5be5eff3,62c539a87453ccbf503cd803,2022-07-06_09h34.35.067,Colour_Asymmetry_Pilot,2022.1.3,Win32,57.28689276,62c50e9c1127f2cd403a315f,0,139,139,156,1,threeone,,,,,,,,,,,,,,,,,,,,,,,,,,,,,,,,,,,,,,,,,,,,,,,,,,,,,,,,,,,,,,,,,,,,,,,,,,,,,,,,,,,,,,,,,,,,,,,,,,,,,,,,,,,,,,,,,,,,,,,,,,,,,,,,,,,,,,,,,,,,,,,,,,,,,,,,,,,,,
,,,,,,5dd81eb38ed6bf7c5be5eff3,62c539a87453ccbf503cd803,2022-07-06_09h34.35.067,Colour_Asymmetry_Pilot,2022.1.3,Win32,57.28689276,62c50e9c1127f2cd403a315f,0,140,140,90,1,twoone,,,,,,,,,,,,,,,,,,,,,,,,,,,,,,,,,,,,,,,,,,,,,,,,,,,,,,,,,,,,,,,,,,,,,,,,,,,,,,,,,,,,,,,,,,,,,,,,,,,,,,,,,,,,,,,,,,,,,,,,,,,,,,,,,,,,,,,,,,,,,,,,,,,,,,,,,,,,,
,,,,,,5dd81eb38ed6bf7c5be5eff3,62c539a87453ccbf503cd803,2022-07-06_09h34.35.067,Colour_Asymmetry_Pilot,2022.1.3,Win32,57.28689276,62c50e9c1127f2cd403a315f,0,141,141,99,1,twofour,,,,,,,,,,,,,,,,,,,,,,,,,,,,,,,,,,,,,,,,,,,,,,,,,,,,,,,,,,,,,,,,,,,,,,,,,,,,,,,,,,,,,,,,,,,,,,,,,,,,,,,,,,,,,,,,,,,,,,,,,,,,,,,,,,,,,,,,,,,,,,,,,,,,,,,,,,,,,
,,,,,,5dd81eb38ed6bf7c5be5eff3,62c539a87453ccbf503cd803,2022-07-06_09h34.35.067,Colour_Asymmetry_Pilot,2022.1.3,Win32,57.28689276,62c50e9c1127f2cd403a315f,0,142,142,98,1,twoone,,,,,,,,,,,,,,,,,,,,,,,,,,,,,,,,,,,,,,,,,,,,,,,,,,,,,,,,,,,,,,,,,,,,,,,,,,,,,,,,,,,,,,,,,,,,,,,,,,,,,,,,,,,,,,,,,,,,,,,,,,,,,,,,,,,,,,,,,,,,,,,,,,,,,,,,,,,,,
,,,,,,5dd81eb38ed6bf7c5be5eff3,62c539a87453ccbf503cd803,2022-07-06_09h34.35.067,Colour_Asymmetry_Pilot,2022.1.3,Win32,57.28689276,62c50e9c1127f2cd403a315f,0,143,143,150,1,fourtwo,,,,,,,,,,,,,,,,,,,,,,,,,,,,,,,,,,,,,,,,,,,,,,,,,,,,,,,,,,,,,,,,,,,,,,,,,,,,,,,,,,,,,,,,,,,,,,,,,,,,,,,,,,,,,,,,,,,,,,,,,,,,,,,,,,,,,,,,,,,,,,,,,,,,,,,,,,,,,
,,,,,,5dd81eb38ed6bf7c5be5eff3,62c539a87453ccbf503cd803,2022-07-06_09h34.35.067,Colour_Asymmetry_Pilot,2022.1.3,Win32,57.28689276,62c50e9c1127f2cd403a315f,0,144,144,78,1,fourtwo,,,,,,,,,,,,,,,,,,,,,,,,,,,,,,,,,,,,,,,,,,,,,,,,,,,,,,,,,,,,,,,,,,,,,,,,,,,,,,,,,,,,,,,,,,,,,,,,,,,,,,,,,,,,,,,,,,,,,,,,,,,,,,,,,,,,,,,,,,,,,,,,,,,,,,,,,,,,,
,,,,,,5dd81eb38ed6bf7c5be5eff3,62c539a87453ccbf503cd803,2022-07-06_09h34.35.067,Colour_Asymmetry_Pilot,2022.1.3,Win32,57.28689276,62c50e9c1127f2cd403a315f,0,145,145,85,1,threefour,,,,,,,,,,,,,,,,,,,,,,,,,,,,,,,,,,,,,,,,,,,,,,,,,,,,,,,,,,,,,,,,,,,,,,,,,,,,,,,,,,,,,,,,,,,,,,,,,,,,,,,,,,,,,,,,,,,,,,,,,,,,,,,,,,,,,,,,,,,,,,,,,,,,,,,,,,,,,
,,,,,,5dd81eb38ed6bf7c5be5eff3,62c539a87453ccbf503cd803,2022-07-06_09h34.35.067,Colour_Asymmetry_Pilot,2022.1.3,Win32,57.28689276,62c50e9c1127f2cd403a315f,0,146,146,37,1,threefour,,,,,,,,,,,,,,,,,,,,,,,,,,,,,,,,,,,,,,,,,,,,,,,,,,,,,,,,,,,,,,,,,,,,,,,,,,,,,,,,,,,,,,,,,,,,,,,,,,,,,,,,,,,,,,,,,,,,,,,,,,,,,,,,,,,,,,,,,,,,,,,,,,,,,,,,,,,,,
,,,,,,5dd81eb38ed6bf7c5be5eff3,62c539a87453ccbf503cd803,2022-07-06_09h34.35.067,Colour_Asymmetry_Pilot,2022.1.3,Win32,57.28689276,62c50e9c1127f2cd403a315f,0,147,147,43,1,twofour,,,,,,,,,,,,,,,,,,,,,,,,,,,,,,,,,,,,,,,,,,,,,,,,,,,,,,,,,,,,,,,,,,,,,,,,,,,,,,,,,,,,,,,,,,,,,,,,,,,,,,,,,,,,,,,,,,,,,,,,,,,,,,,,,,,,,,,,,,,,,,,,,,,,,,,,,,,,,
,,,,,,5dd81eb38ed6bf7c5be5eff3,62c539a87453ccbf503cd803,2022-07-06_09h34.35.067,Colour_Asymmetry_Pilot,2022.1.3,Win32,57.28689276,62c50e9c1127f2cd403a315f,0,148,148,108,1,threeone,,,,,,,,,,,,,,,,,,,,,,,,,,,,,,,,,,,,,,,,,,,,,,,,,,,,,,,,,,,,,,,,,,,,,,,,,,,,,,,,,,,,,,,,,,,,,,,,,,,,,,,,,,,,,,,,,,,,,,,,,,,,,,,,,,,,,,,,,,,,,,,,,,,,,,,,,,,,,
,,,,,,5dd81eb38ed6bf7c5be5eff3,62c539a87453ccbf503cd803,2022-07-06_09h34.35.067,Colour_Asymmetry_Pilot,2022.1.3,Win32,57.28689276,62c50e9c1127f2cd403a315f,0,149,149,61,1,threefour,,,,,,,,,,,,,,,,,,,,,,,,,,,,,,,,,,,,,,,,,,,,,,,,,,,,,,,,,,,,,,,,,,,,,,,,,,,,,,,,,,,,,,,,,,,,,,,,,,,,,,,,,,,,,,,,,,,,,,,,,,,,,,,,,,,,,,,,,,,,,,,,,,,,,,,,,,,,,
,,,,,,5dd81eb38ed6bf7c5be5eff3,62c539a87453ccbf503cd803,2022-07-06_09h34.35.067,Colour_Asymmetry_Pilot,2022.1.3,Win32,57.28689276,62c50e9c1127f2cd403a315f,0,150,150,97,1,onethree,,,,,,,,,,,,,,,,,,,,,,,,,,,,,,,,,,,,,,,,,,,,,,,,,,,,,,,,,,,,,,,,,,,,,,,,,,,,,,,,,,,,,,,,,,,,,,,,,,,,,,,,,,,,,,,,,,,,,,,,,,,,,,,,,,,,,,,,,,,,,,,,,,,,,,,,,,,,,
,,,,,,5dd81eb38ed6bf7c5be5eff3,62c539a87453ccbf503cd803,2022-07-06_09h34.35.067,Colour_Asymmetry_Pilot,2022.1.3,Win32,57.28689276,62c50e9c1127f2cd403a315f,0,151,151,102,1,fourtwo,,,,,,,,,,,,,,,,,,,,,,,,,,,,,,,,,,,,,,,,,,,,,,,,,,,,,,,,,,,,,,,,,,,,,,,,,,,,,,,,,,,,,,,,,,,,,,,,,,,,,,,,,,,,,,,,,,,,,,,,,,,,,,,,,,,,,,,,,,,,,,,,,,,,,,,,,,,,,
,,,,,,5dd81eb38ed6bf7c5be5eff3,62c539a87453ccbf503cd803,2022-07-06_09h34.35.067,Colour_Asymmetry_Pilot,2022.1.3,Win32,57.28689276,62c50e9c1127f2cd403a315f,0,152,152,14,1,fourtwo,,,,,,,,,,,,,,,,,,,,,,,,,,,,,,,,,,,,,,,,,,,,,,,,,,,,,,,,,,,,,,,,,,,,,,,,,,,,,,,,,,,,,,,,,,,,,,,,,,,,,,,,,,,,,,,,,,,,,,,,,,,,,,,,,,,,,,,,,,,,,,,,,,,,,,,,,,,,,
,,,,,,5dd81eb38ed6bf7c5be5eff3,62c539a87453ccbf503cd803,2022-07-06_09h34.35.067,Colour_Asymmetry_Pilot,2022.1.3,Win32,57.28689276,62c50e9c1127f2cd403a315f,0,153,153,35,1,twofour,,,,,,,,,,,,,,,,,,,,,,,,,,,,,,,,,,,,,,,,,,,,,,,,,,,,,,,,,,,,,,,,,,,,,,,,,,,,,,,,,,,,,,,,,,,,,,,,,,,,,,,,,,,,,,,,,,,,,,,,,,,,,,,,,,,,,,,,,,,,,,,,,,,,,,,,,,,,,
,,,,,,5dd81eb38ed6bf7c5be5eff3,62c539a87453ccbf503cd803,2022-07-06_09h34.35.067,Colour_Asymmetry_Pilot,2022.1.3,Win32,57.28689276,62c50e9c1127f2cd403a315f,0,154,154,2,1,twoone,,,,,,,,,,,,,,,,,,,,,,,,,,,,,,,,,,,,,,,,,,,,,,,,,,,,,,,,,,,,,,,,,,,,,,,,,,,,,,,,,,,,,,,,,,,,,,,,,,,,,,,,,,,,,,,,,,,,,,,,,,,,,,,,,,,,,,,,,,,,,,,,,,,,,,,,,,,,,
,,,,,,5dd81eb38ed6bf7c5be5eff3,62c539a87453ccbf503cd803,2022-07-06_09h34.35.067,Colour_Asymmetry_Pilot,2022.1.3,Win32,57.28689276,62c50e9c1127f2cd403a315f,0,155,155,5,1,threefour,,,,,,,,,,,,,,,,,,,,,,,,,,,,,,,,,,,,,,,,,,,,,,,,,,,,,,,,,,,,,,,,,,,,,,,,,,,,,,,,,,,,,,,,,,,,,,,,,,,,,,,,,,,,,,,,,,,,,,,,,,,,,,,,,,,,,,,,,,,,,,,,,,,,,,,,,,,,,
,,,,,,5dd81eb38ed6bf7c5be5eff3,62c539a87453ccbf503cd803,2022-07-06_09h34.35.067,Colour_Asymmetry_Pilot,2022.1.3,Win32,57.28689276,62c50e9c1127f2cd403a315f,0,156,156,22,1,fourtwo,,,,,,,,,,,,,,,,,,,,,,,,,,,,,,,,,,,,,,,,,,,,,,,,,,,,,,,,,,,,,,,,,,,,,,,,,,,,,,,,,,,,,,,,,,,,,,,,,,,,,,,,,,,,,,,,,,,,,,,,,,,,,,,,,,,,,,,,,,,,,,,,,,,,,,,,,,,,,
,,,,,,5dd81eb38ed6bf7c5be5eff3,62c539a87453ccbf503cd803,2022-07-06_09h34.35.067,Colour_Asymmetry_Pilot,2022.1.3,Win32,57.28689276,62c50e9c1127f2cd403a315f,0,157,157,54,1,fourtwo,,,,,,,,,,,,,,,,,,,,,,,,,,,,,,,,,,,,,,,,,,,,,,,,,,,,,,,,,,,,,,,,,,,,,,,,,,,,,,,,,,,,,,,,,,,,,,,,,,,,,,,,,,,,,,,,,,,,,,,,,,,,,,,,,,,,,,,,,,,,,,,,,,,,,,,,,,,,,
,,,,,,5dd81eb38ed6bf7c5be5eff3,62c539a87453ccbf503cd803,2022-07-06_09h34.35.067,Colour_Asymmetry_Pilot,2022.1.3,Win32,57.28689276,62c50e9c1127f2cd403a315f,0,158,158,132,1,threeone,,,,,,,,,,,,,,,,,,,,,,,,,,,,,,,,,,,,,,,,,,,,,,,,,,,,,,,,,,,,,,,,,,,,,,,,,,,,,,,,,,,,,,,,,,,,,,,,,,,,,,,,,,,,,,,,,,,,,,,,,,,,,,,,,,,,,,,,,,,,,,,,,,,,,,,,,,,,,
,,,,,,5dd81eb38ed6bf7c5be5eff3,62c539a87453ccbf503cd803,2022-07-06_09h34.35.067,Colour_Asymmetry_Pilot,2022.1.3,Win32,57.28689276,62c50e9c1127f2cd403a315f,0,159,159,48,1,onetwo,,,,,,,,,,,,,,,,,,,,,,,,,,,,,,,,,,,,,,,,,,,,,,,,,,,,,,,,,,,,,,,,,,,,,,,,,,,,,,,,,,,,,,,,,,,,,,,,,,,,,,,,,,,,,,,,,,,,,,,,,,,,,,,,,,,,,,,,,,,,,,,,,,,,,,,,,,,,,
,,,,,,5dd81eb38ed6bf7c5be5eff3,62c539a87453ccbf503cd803,2022-07-06_09h34.35.067,Colour_Asymmetry_Pilot,2022.1.3,Win32,57.28689276,62c50e9c1127f2cd403a315f,0,160,160,64,1,onetwo,,,,,,,,,,,,,,,,,,,,,,,,,,,,,,,,,,,,,,,,,,,,,,,,,,,,,,,,,,,,,,,,,,,,,,,,,,,,,,,,,,,,,,,,,,,,,,,,,,,,,,,,,,,,,,,,,,,,,,,,,,,,,,,,,,,,,,,,,,,,,,,,,,,,,,,,,,,,,
,,,,,,5dd81eb38ed6bf7c5be5eff3,62c539a87453ccbf503cd803,2022-07-06_09h34.35.067,Colour_Asymmetry_Pilot,2022.1.3,Win32,57.28689276,62c50e9c1127f2cd403a315f,0,161,161,31,1,fourthree,,,,,,,,,,,,,,,,,,,,,,,,,,,,,,,,,,,,,,,,,,,,,,,,,,,,,,,,,,,,,,,,,,,,,,,,,,,,,,,,,,,,,,,,,,,,,,,,,,,,,,,,,,,,,,,,,,,,,,,,,,,,,,,,,,,,,,,,,,,,,,,,,,,,,,,,,,,,,
,,,,,,5dd81eb38ed6bf7c5be5eff3,62c539a87453ccbf503cd803,2022-07-06_09h34.35.067,Colour_Asymmetry_Pilot,2022.1.3,Win32,57.28689276,62c50e9c1127f2cd403a315f,,,,,,,space,16.4195,space,14.4059,space,28.7534,space,20.5473,space,18.1818,space,4.5733,"[0.6625999999999999,0.4980000000000002,-0.357]",onethree,"[-0.9688,-0.38039999999999996,-0.41979999999999995]",-4,9.8227,-66,119,1,0,0,response7disk_5,-3,2,1,0,0,rectangle_8,64,125,1,0,0,response1disk_7,7,4,-3,-4,1,0,0,rectangle_4,0,0,0,0,1,,,,,,,,,,,,,,,,,,,,,,,,,,,,,,,,,,,,,,,,,,,,,,,,,,,,,,,,,,,,,,,,,,,,,,,,,,,,,,,,,,,,,,,,,,,,,,,,,,,,,,,,,,,,,
,,,,,,5dd81eb38ed6bf7c5be5eff3,62c539a87453ccbf503cd803,2022-07-06_09h34.35.067,Colour_Asymmetry_Pilot,2022.1.3,Win32,57.28689276,62c50e9c1127f2cd403a315f,,,,,,,,,,,,,,,,,,,"[0.37240000000000006,-0.050999999999999934,-0.5216]",threeone,"[0.5449999999999999,-0.31000000000000005,-0.0354000000000001]",-2,5.6175,-47,-35,1,0,0,response5disk_5,-1,4,1,0,0,rectangle_8,47,105,1,0,0,response1disk_7,7,4,6,-10,1,0,0,rectangle_4,1,0,1,0,1,,,,,,,,,,,,,,,,,,,,,,,,,,,,,,,,,,,,,,,,,,,,,,,,,,,,,,,,,,,,,,,,,,,,,,,,,,,,,,,,,,,,,,,,,,,,,,,,,,,,,,,,,,,,,
,,,,,,5dd81eb38ed6bf7c5be5eff3,62c539a87453ccbf503cd803,2022-07-06_09h34.35.067,Colour_Asymmetry_Pilot,2022.1.3,Win32,57.28689276,62c50e9c1127f2cd403a315f,,,,,,,,,,,,,,,,,,,"[-0.24719999999999998,-0.0354000000000001,0.3175999999999999]",onethree,"[-0.30200000000000005,0.14500000000000002,0.2784]",2,4.2504,48,-48,1,0,0,response3disk_5,11,3,1,0,0,rectangle_8,11,3,1,0,0,,,4,11,3,1,0,0,,2,0,2,0,1,,,,,,,,,,,,,,,,,,,,,,,,,,,,,,,,,,,,,,,,,,,,,,,,,,,,,,,,,,,,,,,,,,,,,,,,,,,,,,,,,,,,,,,,,,,,,,,,,,,,,,,,,,,,,
,,,,,,5dd81eb38ed6bf7c5be5eff3,62c539a87453ccbf503cd803,2022-07-06_09h34.35.067,Colour_Asymmetry_Pilot,2022.1.3,Win32,57.28689276,62c50e9c1127f2cd403a315f,,,,,,,,,,,,,,,,,,,"[-0.9766,-0.34920000000000007,0.2156]",onethree,"[0.7018,0.7176,0.6155999999999999]",-2,3.9351,-56,-28,1,0,0,response5disk_5,26,11,1,0,0,rectangle_8,26,11,1,0,0,,,4,26,11,1,0,0,,3,0,3,0,1,,,,,,,,,,,,,,,,,,,,,,,,,,,,,,,,,,,,,,,,,,,,,,,,,,,,,,,,,,,,,,,,,,,,,,,,,,,,,,,,,,,,,,,,,,,,,,,,,,,,,,,,,,,,,
,,,,,,5dd81eb38ed6bf7c5be5eff3,62c539a87453ccbf503cd803,2022-07-06_09h34.35.067,Colour_Asymmetry_Pilot,2022.1.3,Win32,57.28689276,62c50e9c1127f2cd403a315f,,,,,,,,,,,,,,,,,,,"[-0.9688,-0.7412000000000001,-0.4902000000000001]",twoone,"[0.9842,0.7409999999999999,-0.6628000000000001]",-4,1.8666,-67,68,1,0,0,response7disk_5,-11,2,1,0,0,rectangle_8,-11,2,1,0,0,,,4,-11,2,1,0,0,,4,0,4,0,1,,,,,,,,,,,,,,,,,,,,,,,,,,,,,,,,,,,,,,,,,,,,,,,,,,,,,,,,,,,,,,,,,,,,,,,,,,,,,,,,,,,,,,,,,,,,,,,,,,,,,,,,,,,,,
,,,,,,5dd81eb38ed6bf7c5be5eff3,62c539a87453ccbf503cd803,2022-07-06_09h34.35.067,Colour_Asymmetry_Pilot,2022.1.3,Win32,57.28689276,62c50e9c1127f2cd403a315f,,,,,,,,,,,,,,,,,,,"[-0.9216,-0.5529999999999999,-0.3962]",threefour,"[-0.09019999999999995,0.44300000000000006,0.5371999999999999]",-1,1.2499,-41,-75,1,0,0,response5disk_5,-6,-1,1,0,0,rectangle_8,-6,-1,1,0,0,,,4,-6,-1,1,0,0,,5,0,5,0,1,,,,,,,,,,,,,,,,,,,,,,,,,,,,,,,,,,,,,,,,,,,,,,,,,,,,,,,,,,,,,,,,,,,,,,,,,,,,,,,,,,,,,,,,,,,,,,,,,,,,,,,,,,,,,
,,,,,,5dd81eb38ed6bf7c5be5eff3,62c539a87453ccbf503cd803,2022-07-06_09h34.35.067,Colour_Asymmetry_Pilot,2022.1.3,Win32,57.28689276,62c50e9c1127f2cd403a315f,,,,,,,,,,,,,,,,,,,"[-0.5922000000000001,-0.7492000000000001,-0.5296000000000001]",threeone,"[0.3881999999999999,-0.23939999999999995,-0.05040000000000011]",-1,1.4168,-53,-59,1,0,0,response5disk_5,7,16,1,0,0,rectangle_8,7,16,1,0,0,,,4,7,16,1,0,0,,6,0,6,0,1,,,,,,,,,,,,,,,,,,,,,,,,,,,,,,,,,,,,,,,,,,,,,,,,,,,,,,,,,,,,,,,,,,,,,,,,,,,,,,,,,,,,,,,,,,,,,,,,,,,,,,,,,,,,,
,,,,,,5dd81eb38ed6bf7c5be5eff3,62c539a87453ccbf503cd803,2022-07-06_09h34.35.067,Colour_Asymmetry_Pilot,2022.1.3,Win32,57.28689276,62c50e9c1127f2cd403a315f,,,,,,,,,,,,,,,,,,,,threeone,,4,4.1557,,,,,,,,,,,,,,,,,,,,,,,,,,,,,,,,space,5.1004,"[1,0.12939999999999996,-1]","[0.9763999999999999,0.30979999999999985,-0.6786]",60,154,1,0,0,response1disk,5,-1,1,0,0,rectangle,5,-1,1,0,0,,3,0.0045,0,5,-1,1,0,0,0,0,0,134,1,53,second,,,,,,,,,,,,,,,,,,,,,,,,,,,,,,,,,,,,,,,,,,,,,,,,,,,,,,,,,,,,,,,,,,,,,,,,
,,,,,,5dd81eb38ed6bf7c5be5eff3,62c539a87453ccbf503cd803,2022-07-06_09h34.35.067,Colour_Asymmetry_Pilot,2022.1.3,Win32,57.28689276,62c50e9c1127f2cd403a315f,,,,,,,,,,,,,,,,,,,,onetwo,,-2,0.7935,,,,,,,,,,,,,,,,,,,,,,,,,,,,,,,,,,"[0.19199999999999995,0.18419999999999992,0.5136000000000001]","[0.9763999999999999,0.8588,-0.05900000000000005]",-54,-36,1,0,0,response5disk,9,4,1,0,0,rectangle,9,4,1,0,0,,2,0.0031,0,9,4,1,0,0,0,1,1,125,1,44,second,,,,,,,,,,,,,,,,,,,,,,,,,,,,,,,,,,,,,,,,,,,,,,,,,,,,,,,,,,,,,,,,,,,,,,,,
,,,,,,5dd81eb38ed6bf7c5be5eff3,62c539a87453ccbf503cd803,2022-07-06_09h34.35.067,Colour_Asymmetry_Pilot,2022.1.3,Win32,57.28689276,62c50e9c1127f2cd403a315f,,,,,,,,,,,,,,,,,,,,fourthree,,4,1.0528,,,,,,,,,,,,,,,,,,,,,,,,,,,,,,,,,,"[-0.2942,-0.7648,-0.7492000000000001]","[-0.5922000000000001,-0.7492000000000001,-0.5296000000000001]",56,84,1,0,0,response1disk,5,0,1,0,0,rectangle,5,0,1,0,0,,1,0.0034,0,5,0,1,0,0,0,2,2,63,1,63,first,,,,,,,,,,,,,,,,,,,,,,,,,,,,,,,,,,,,,,,,,,,,,,,,,,,,,,,,,,,,,,,,,,,,,,,,
,,,,,,5dd81eb38ed6bf7c5be5eff3,62c539a87453ccbf503cd803,2022-07-06_09h34.35.067,Colour_Asymmetry_Pilot,2022.1.3,Win32,57.28689276,62c50e9c1127f2cd403a315f,,,,,,,,,,,,,,,,,,,,twofour,,-3,0.9836,,,,,,,,,,,,,,,,,,,,,,,,,,,,,,,,,,"[0.7176,-0.906,-0.6864]","[0.23920000000000008,0.2704,0.16060000000000008]",-79,71,1,0,0,response7disk,-9,-2,1,0,0,rectangle,-9,-2,1,0,0,,1,0.0007,0,-9,-2,1,0,0,0,3,3,139,1,58,second,,,,,,,,,,,,,,,,,,,,,,,,,,,,,,,,,,,,,,,,,,,,,,,,,,,,,,,,,,,,,,,,,,,,,,,,
,,,,,,5dd81eb38ed6bf7c5be5eff3,62c539a87453ccbf503cd803,2022-07-06_09h34.35.067,Colour_Asymmetry_Pilot,2022.1.3,Win32,57.28689276,62c50e9c1127f2cd403a315f,,,,,,,,,,,,,,,,,,,,threeone,,-4,0.5332,,,,,,,,,,,,,,,,,,,,,,,,,,,,,,,,,,"[-0.07459999999999989,0.12139999999999995,-0.9922]","[-0.9688,-0.4902000000000001,-0.12159999999999993]",-82,125,1,0,0,response7disk,8,7,1,0,0,rectangle,8,7,1,0,0,,1,0.0007,0,8,7,1,0,0,0,4,4,103,1,22,second,,,,,,,,,,,,,,,,,,,,,,,,,,,,,,,,,,,,,,,,,,,,,,,,,,,,,,,,,,,,,,,,,,,,,,,,
,,,,,,5dd81eb38ed6bf7c5be5eff3,62c539a87453ccbf503cd803,2022-07-06_09h34.35.067,Colour_Asymmetry_Pilot,2022.1.3,Win32,57.28689276,62c50e9c1127f2cd403a315f,,,,,,,,,,,,,,,,,,,,threeone,,-4,0.5489,,,,,,,,,,,,,,,,,,,,,,,,,,,,,,,,,,"[0.7802,-0.23140000000000005,-0.20799999999999996]","[-0.9766,-0.6472,0.07440000000000002]",-89,136,1,0,0,response7disk,-1,6,1,0,0,rectangle,-1,6,1,0,0,,1,0.0008,0,-1,6,1,0,0,0,5,5,124,1,43,second,,,,,,,,,,,,,,,,,,,,,,,,,,,,,,,,,,,,,,,,,,,,,,,,,,,,,,,,,,,,,,,,,,,,,,,,
,,,,,,5dd81eb38ed6bf7c5be5eff3,62c539a87453ccbf503cd803,2022-07-06_09h34.35.067,Colour_Asymmetry_Pilot,2022.1.3,Win32,57.28689276,62c50e9c1127f2cd403a315f,,,,,,,,,,,,,,,,,,,,twoone,,-2,2.4666,,,,,,,,,,,,,,,,,,,,,,,,,,,,,,,,,,"[0.7018,0.7802,-0.16079999999999994]","[-0.2942,-0.24719999999999998,-0.357]",-56,-29,1,0,0,response5disk,4,15,1,0,0,rectangle,4,15,1,0,0,,1,0.0005,0,4,15,1,0,0,0,6,6,59,1,59,first,,,,,,,,,,,,,,,,,,,,,,,,,,,,,,,,,,,,,,,,,,,,,,,,,,,,,,,,,,,,,,,,,,,,,,,,
,,,,,,5dd81eb38ed6bf7c5be5eff3,62c539a87453ccbf503cd803,2022-07-06_09h34.35.067,Colour_Asymmetry_Pilot,2022.1.3,Win32,57.28689276,62c50e9c1127f2cd403a315f,,,,,,,,,,,,,,,,,,,,fourthree,,-4,0.5671,,,,,,,,,,,,,,,,,,,,,,,,,,,,,,,,,,"[0.18419999999999992,-0.4276,-0.404]","[-0.4276,0.0038000000000000256,-0.3256]",-90,145,1,0,0,response7disk,-9,-6,1,0,0,rectangle,-9,-6,1,0,0,,1,0.0006,0,-9,-6,1,0,0,0,7,7,147,1,66,second,,,,,,,,,,,,,,,,,,,,,,,,,,,,,,,,,,,,,,,,,,,,,,,,,,,,,,,,,,,,,,,,,,,,,,,,
,,,,,,5dd81eb38ed6bf7c5be5eff3,62c539a87453ccbf503cd803,2022-07-06_09h34.35.067,Colour_Asymmetry_Pilot,2022.1.3,Win32,57.28689276,62c50e9c1127f2cd403a315f,,,,,,,,,,,,,,,,,,,,threefour,,-3,0.9835,,,,,,,,,,,,,,,,,,,,,,,,,,,,,,,,,,"[0.9686000000000001,0.5763999999999998,0.11359999999999992]","[-0.09019999999999995,0.44300000000000006,0.5371999999999999]",-76,38,1,0,0,response7disk,-2,-8,1,0,0,rectangle,-2,-8,1,0,0,,2,0.0039,0,-2,-8,1,0,0,0,8,8,28,1,28,first,,,,,,,,,,,,,,,,,,,,,,,,,,,,,,,,,,,,,,,,,,,,,,,,,,,,,,,,,,,,,,,,,,,,,,,,
,,,,,,5dd81eb38ed6bf7c5be5eff3,62c539a87453ccbf503cd803,2022-07-06_09h34.35.067,Colour_Asymmetry_Pilot,2022.1.3,Win32,57.28689276,62c50e9c1127f2cd403a315f,,,,,,,,,,,,,,,,,,,,fourtwo,,-2,1.1501,,,,,,,,,,,,,,,,,,,,,,,,,,,,,,,,,,"[-0.26280000000000003,-0.4746,-0.2158]","[-0.10599999999999998,-0.10599999999999998,0.5841999999999998]",-76,-40,1,0,0,response5disk,3,-2,1,0,0,rectangle,3,-2,1,0,0,,3,0.004,0,3,-2,1,0,0,0,9,9,13,1,13,first,,,,,,,,,,,,,,,,,,,,,,,,,,,,,,,,,,,,,,,,,,,,,,,,,,,,,,,,,,,,,,,,,,,,,,,,
,,,,,,5dd81eb38ed6bf7c5be5eff3,62c539a87453ccbf503cd803,2022-07-06_09h34.35.067,Colour_Asymmetry_Pilot,2022.1.3,Win32,57.28689276,62c50e9c1127f2cd403a315f,,,,,,,,,,,,,,,,,,,,twofour,,-3,0.9174,,,,,,,,,,,,,,,,,,,,,,,,,,,,,,,,,,"[-0.4902000000000001,0.2704,-0.45899999999999996]","[0.3881999999999999,-0.23939999999999995,-0.05040000000000011]",-79,54,1,0,0,response7disk,0,2,1,0,0,rectangle,0,2,1,0,0,,2,0.0045,0,0,2,1,0,0,0,10,10,42,1,42,first,,,,,,,,,,,,,,,,,,,,,,,,,,,,,,,,,,,,,,,,,,,,,,,,,,,,,,,,,,,,,,,,,,,,,,,,
,,,,,,5dd81eb38ed6bf7c5be5eff3,62c539a87453ccbf503cd803,2022-07-06_09h34.35.067,Colour_Asymmetry_Pilot,2022.1.3,Win32,57.28689276,62c50e9c1127f2cd403a315f,,,,,,,,,,,,,,,,,,,,twoone,,-3,0.4343,,,,,,,,,,,,,,,,,,,,,,,,,,,,,,,,,,"[0.12939999999999996,-0.2864,0.3253999999999999]","[0.9763999999999999,-0.1137999999999999,-0.6314]",-78,47,1,0,0,response7disk,4,-9,1,0,0,rectangle,4,-9,1,0,0,,1,0.0043,0,4,-9,1,0,0,0,11,11,113,1,32,second,,,,,,,,,,,,,,,,,,,,,,,,,,,,,,,,,,,,,,,,,,,,,,,,,,,,,,,,,,,,,,,,,,,,,,,,
,,,,,,5dd81eb38ed6bf7c5be5eff3,62c539a87453ccbf503cd803,2022-07-06_09h34.35.067,Colour_Asymmetry_Pilot,2022.1.3,Win32,57.28689276,62c50e9c1127f2cd403a315f,,,,,,,,,,,,,,,,,,,,onetwo,,-1,0.9831,,,,,,,,,,,,,,,,,,,,,,,,,,,,,,,,,,"[-0.10599999999999998,-0.15300000000000002,0.15280000000000005]","[-0.4982,-0.2942,-0.0354000000000001]",-53,-82,1,0,0,response5disk,-21,-10,1,0,0,rectangle,-21,-10,1,0,0,,3,0.0051,0,-21,-10,1,0,0,0,12,12,6,1,6,first,,,,,,,,,,,,,,,,,,,,,,,,,,,,,,,,,,,,,,,,,,,,,,,,,,,,,,,,,,,,,,,,,,,,,,,,
,,,,,,5dd81eb38ed6bf7c5be5eff3,62c539a87453ccbf503cd803,2022-07-06_09h34.35.067,Colour_Asymmetry_Pilot,2022.1.3,Win32,57.28689276,62c50e9c1127f2cd403a315f,,,,,,,,,,,,,,,,,,,,threeone,,-1,0.6665,,,,,,,,,,,,,,,,,,,,,,,,,,,,,,,,,,"[0.9763999999999999,-0.1137999999999999,-0.6314]","[0.7646000000000002,0.07440000000000002,0.2704]",-46,-92,1,0,0,response5disk,-2,-2,1,0,0,rectangle,72,-107,1,0,0,1,1,6.7821,1,12,-10,1,0,0,0,13,13,136,1,55,second,response3disk_3,rectangle,,,,,,,,,,,,,,,,,,,,,,,,,,,,,,,,,,,,,,,,,,,,,,,,,,,,,,,,,,,,,,,,,,,,,,
,,,,,,5dd81eb38ed6bf7c5be5eff3,62c539a87453ccbf503cd803,2022-07-06_09h34.35.067,Colour_Asymmetry_Pilot,2022.1.3,Win32,57.28689276,62c50e9c1127f2cd403a315f,,,,,,,,,,,,,,,,,,,,fourthree,,3,1.2836,,,,,,,,,,,,,,,,,,,,,,,,,,,,,,,,,,"[0.6625999999999999,0.4980000000000002,-0.357]","[0.5528,0.7409999999999999,-0.71]",131,39,1,0,0,response1disk,6,8,1,0,0,rectangle,6,8,1,0,0,1,1,0.0007,0,6,8,1,0,0,0,14,14,73,1,73,first,,,,,,,,,,,,,,,,,,,,,,,,,,,,,,,,,,,,,,,,,,,,,,,,,,,,,,,,,,,,,,,,,,,,,,,,
,,,,,,5dd81eb38ed6bf7c5be5eff3,62c539a87453ccbf503cd803,2022-07-06_09h34.35.067,Colour_Asymmetry_Pilot,2022.1.3,Win32,57.28689276,62c50e9c1127f2cd403a315f,,,,,,,,,,,,,,,,,,,,twofour,,1,0.8331,,,,,,,,,,,,,,,,,,,,,,,,,,,,,,,,,,"[0.18419999999999992,-0.4276,-0.404]","[0.7802,-0.23140000000000005,-0.20799999999999996]",44,-117,1,0,0,response3disk,16,-6,1,0,0,rectangle,16,-6,1,0,0,1,2,0.0028,0,16,-6,1,0,0,0,15,15,84,1,3,second,,,,,,,,,,,,,,,,,,,,,,,,,,,,,,,,,,,,,,,,,,,,,,,,,,,,,,,,,,,,,,,,,,,,,,,,
,,,,,,5dd81eb38ed6bf7c5be5eff3,62c539a87453ccbf503cd803,2022-07-06_09h34.35.067,Colour_Asymmetry_Pilot,2022.1.3,Win32,57.28689276,62c50e9c1127f2cd403a315f,,,,,,,,,,,,,,,,,,,,threeone,,1,0.5349,,,,,,,,,,,,,,,,,,,,,,,,,,,,,,,,,,"[0.0351999999999999,0.41159999999999997,0.0038000000000000256]","[-0.9296,-0.12959999999999994,-0.043199999999999905]",58,-109,1,0,0,response3disk,24,9,1,0,0,rectangle,24,9,1,0,0,1,2,0.0007,0,24,9,1,0,0,0,16,16,4,1,4,first,,,,,,,,,,,,,,,,,,,,,,,,,,,,,,,,,,,,,,,,,,,,,,,,,,,,,,,,,,,,,,,,,,,,,,,,
,,,,,,5dd81eb38ed6bf7c5be5eff3,62c539a87453ccbf503cd803,2022-07-06_09h34.35.067,Colour_Asymmetry_Pilot,2022.1.3,Win32,57.28689276,62c50e9c1127f2cd403a315f,,,,,,,,,,,,,,,,,,,,fourtwo,,-1,1.2878,,,,,,,,,,,,,,,,,,,,,,,,,,,,,,,,,,"[-0.2942,-0.24719999999999998,-0.357]","[0.7018,0.7802,-0.16079999999999994]",-95,-117,1,0,0,response5disk,-14,2,1,0,0,rectangle,-14,2,1,0,0,1,3,0.0036,0,-14,2,1,0,0,0,17,17,140,1,59,second,,,,,,,,,,,,,,,,,,,,,,,,,,,,,,,,,,,,,,,,,,,,,,,,,,,,,,,,,,,,,,,,,,,,,,,,
