trials.thisRepN,trials.thisTrialN,trials.thisN,trials.thisIndex,trials.ran,Colourcodes,participant,session,date,expName,psychopyVersion,OS,frameRate,study_id,trials_4.thisRepN,trials_4.thisTrialN,trials_4.thisN,trials_4.thisIndex,trials_4.ran,StimulusPos,key_resp.keys,key_resp.rt,key_resp_2.keys,key_resp_2.rt,key_resp_15.keys,key_resp_15.rt,key_resp_17.keys,key_resp_17.rt,key_resp_9.keys,key_resp_9.rt,key_resp_10.keys,key_resp_10.rt,Circle1_col,Ecc,Circle2_col,similarity,response_time,mouse_5.x,mouse_5.y,mouse_5.leftButton,mouse_5.midButton,mouse_5.rightButton,mouse_5.clicked_name,mouse_10.x,mouse_10.y,mouse_10.leftButton,mouse_10.midButton,mouse_10.rightButton,mouse_10.clicked_name,mouse_7.x,mouse_7.y,mouse_7.leftButton,mouse_7.midButton,mouse_7.rightButton,mouse_7.clicked_name,catchprac,catchnumberprac,mouse_6.x,mouse_6.y,mouse_6.leftButton,mouse_6.midButton,mouse_6.rightButton,mouse_6.clicked_name,duringprac.thisRepN,duringprac.thisTrialN,duringprac.thisN,duringprac.thisIndex,duringprac.ran,key_resp_22.keys,key_resp_22.rt,Circle1_colour,Circle2_colour,mouse.x,mouse.y,mouse.leftButton,mouse.midButton,mouse.rightButton,mouse.clicked_name,mouse_2.x,mouse_2.y,mouse_2.leftButton,mouse_2.midButton,mouse_2.rightButton,mouse_2.clicked_name,mouse_3.x,mouse_3.y,mouse_3.leftButton,mouse_3.midButton,mouse_3.rightButton,catchresponse,catchnumber,response_time_catch,Catch,mouse_11.x,mouse_11.y,mouse_11.leftButton,mouse_11.midButton,mouse_11.rightButton,trials_2.thisRepN,trials_2.thisTrialN,trials_2.thisN,trials_2.thisIndex,trials_2.ran,Colourpair,Temporder,mouse_3.clicked_name,mouse_11.clicked_name,trials_3.thisRepN,trials_3.thisTrialN,trials_3.thisN,trials_3.thisIndex,trials_3.ran,key_resp_instr_Ishi.keys,key_resp_instr_Ishi.rt,Ishi_trial_keyresp.keys,Ishi_textbox.text,Ishi_mouse.x,Ishi_mouse.y,Ishi_mouse.leftButton,Ishi_mouse.midButton,Ishi_mouse.rightButton,Ishi_mouse.clicked_name,Ishi_loop.thisRepN,Ishi_loop.thisTrialN,Ishi_loop.thisN,Ishi_loop.thisIndex,Ishi_loop.ran,imageaddress,textbox.text,mouse_4.x,mouse_4.y,mouse_4.leftButton,mouse_4.midButton,mouse_4.rightButton,mouse_4.clicked_name,textbox_2.text,mouse_8.x,mouse_8.y,mouse_8.leftButton,mouse_8.midButton,mouse_8.rightButton,mouse_8.clicked_name,textbox_3.text,mouse_9.x,mouse_9.y,mouse_9.leftButton,mouse_9.midButton,mouse_9.rightButton,mouse_9.clicked_name,textbox_4.text,mouse_12.x,mouse_12.y,mouse_12.leftButton,mouse_12.midButton,mouse_12.rightButton,mouse_12.clicked_name,textbox_5.text,mouse_13.x,mouse_13.y,mouse_13.leftButton,mouse_13.midButton,mouse_13.rightButton,mouse_13.clicked_name,textbox_6.text,mouse_14.x,mouse_14.y,mouse_14.leftButton,mouse_14.midButton,mouse_14.rightButton,mouse_14.clicked_name,textbox_7.text,mouse_15.x,mouse_15.y,mouse_15.leftButton,mouse_15.midButton,mouse_15.rightButton
0,0,0,50,1,,6050edc9b0fa3d391dae2ffe,62c53950c1c9a7c5e0129e8b,2022-07-06_09h33.47.079,Colour_Asymmetry_Pilot,2022.1.3,Win32,60.26274557,62c50e9c1127f2cd403a315f,,,,,,,,,,,,,,,,,,,,,,,,,,,,,,,,,,,,,,,,,,,,,,,,,,,,,,,,,,,,,,,,,,,,,,,,,,,,,,,,,,,,,,,,,,,,,,,,,,,,,,,,,,,,,,,,,,,,,,,,,,,,,,,,,,,,,,,,,,,,,,,,,,,,,,,,,,,,,,,,,,
0,1,1,75,1,,6050edc9b0fa3d391dae2ffe,62c53950c1c9a7c5e0129e8b,2022-07-06_09h33.47.079,Colour_Asymmetry_Pilot,2022.1.3,Win32,60.26274557,62c50e9c1127f2cd403a315f,,,,,,,,,,,,,,,,,,,,,,,,,,,,,,,,,,,,,,,,,,,,,,,,,,,,,,,,,,,,,,,,,,,,,,,,,,,,,,,,,,,,,,,,,,,,,,,,,,,,,,,,,,,,,,,,,,,,,,,,,,,,,,,,,,,,,,,,,,,,,,,,,,,,,,,,,,,,,,,,,,
0,2,2,79,1,,6050edc9b0fa3d391dae2ffe,62c53950c1c9a7c5e0129e8b,2022-07-06_09h33.47.079,Colour_Asymmetry_Pilot,2022.1.3,Win32,60.26274557,62c50e9c1127f2cd403a315f,,,,,,,,,,,,,,,,,,,,,,,,,,,,,,,,,,,,,,,,,,,,,,,,,,,,,,,,,,,,,,,,,,,,,,,,,,,,,,,,,,,,,,,,,,,,,,,,,,,,,,,,,,,,,,,,,,,,,,,,,,,,,,,,,,,,,,,,,,,,,,,,,,,,,,,,,,,,,,,,,,
0,3,3,73,1,,6050edc9b0fa3d391dae2ffe,62c53950c1c9a7c5e0129e8b,2022-07-06_09h33.47.079,Colour_Asymmetry_Pilot,2022.1.3,Win32,60.26274557,62c50e9c1127f2cd403a315f,,,,,,,,,,,,,,,,,,,,,,,,,,,,,,,,,,,,,,,,,,,,,,,,,,,,,,,,,,,,,,,,,,,,,,,,,,,,,,,,,,,,,,,,,,,,,,,,,,,,,,,,,,,,,,,,,,,,,,,,,,,,,,,,,,,,,,,,,,,,,,,,,,,,,,,,,,,,,,,,,,
0,4,4,19,1,,6050edc9b0fa3d391dae2ffe,62c53950c1c9a7c5e0129e8b,2022-07-06_09h33.47.079,Colour_Asymmetry_Pilot,2022.1.3,Win32,60.26274557,62c50e9c1127f2cd403a315f,,,,,,,,,,,,,,,,,,,,,,,,,,,,,,,,,,,,,,,,,,,,,,,,,,,,,,,,,,,,,,,,,,,,,,,,,,,,,,,,,,,,,,,,,,,,,,,,,,,,,,,,,,,,,,,,,,,,,,,,,,,,,,,,,,,,,,,,,,,,,,,,,,,,,,,,,,,,,,,,,,
0,5,5,89,1,,6050edc9b0fa3d391dae2ffe,62c53950c1c9a7c5e0129e8b,2022-07-06_09h33.47.079,Colour_Asymmetry_Pilot,2022.1.3,Win32,60.26274557,62c50e9c1127f2cd403a315f,,,,,,,,,,,,,,,,,,,,,,,,,,,,,,,,,,,,,,,,,,,,,,,,,,,,,,,,,,,,,,,,,,,,,,,,,,,,,,,,,,,,,,,,,,,,,,,,,,,,,,,,,,,,,,,,,,,,,,,,,,,,,,,,,,,,,,,,,,,,,,,,,,,,,,,,,,,,,,,,,,
0,6,6,25,1,,6050edc9b0fa3d391dae2ffe,62c53950c1c9a7c5e0129e8b,2022-07-06_09h33.47.079,Colour_Asymmetry_Pilot,2022.1.3,Win32,60.26274557,62c50e9c1127f2cd403a315f,,,,,,,,,,,,,,,,,,,,,,,,,,,,,,,,,,,,,,,,,,,,,,,,,,,,,,,,,,,,,,,,,,,,,,,,,,,,,,,,,,,,,,,,,,,,,,,,,,,,,,,,,,,,,,,,,,,,,,,,,,,,,,,,,,,,,,,,,,,,,,,,,,,,,,,,,,,,,,,,,,
0,7,7,63,1,,6050edc9b0fa3d391dae2ffe,62c53950c1c9a7c5e0129e8b,2022-07-06_09h33.47.079,Colour_Asymmetry_Pilot,2022.1.3,Win32,60.26274557,62c50e9c1127f2cd403a315f,,,,,,,,,,,,,,,,,,,,,,,,,,,,,,,,,,,,,,,,,,,,,,,,,,,,,,,,,,,,,,,,,,,,,,,,,,,,,,,,,,,,,,,,,,,,,,,,,,,,,,,,,,,,,,,,,,,,,,,,,,,,,,,,,,,,,,,,,,,,,,,,,,,,,,,,,,,,,,,,,,
0,8,8,59,1,,6050edc9b0fa3d391dae2ffe,62c53950c1c9a7c5e0129e8b,2022-07-06_09h33.47.079,Colour_Asymmetry_Pilot,2022.1.3,Win32,60.26274557,62c50e9c1127f2cd403a315f,,,,,,,,,,,,,,,,,,,,,,,,,,,,,,,,,,,,,,,,,,,,,,,,,,,,,,,,,,,,,,,,,,,,,,,,,,,,,,,,,,,,,,,,,,,,,,,,,,,,,,,,,,,,,,,,,,,,,,,,,,,,,,,,,,,,,,,,,,,,,,,,,,,,,,,,,,,,,,,,,,
0,9,9,76,1,,6050edc9b0fa3d391dae2ffe,62c53950c1c9a7c5e0129e8b,2022-07-06_09h33.47.079,Colour_Asymmetry_Pilot,2022.1.3,Win32,60.26274557,62c50e9c1127f2cd403a315f,,,,,,,,,,,,,,,,,,,,,,,,,,,,,,,,,,,,,,,,,,,,,,,,,,,,,,,,,,,,,,,,,,,,,,,,,,,,,,,,,,,,,,,,,,,,,,,,,,,,,,,,,,,,,,,,,,,,,,,,,,,,,,,,,,,,,,,,,,,,,,,,,,,,,,,,,,,,,,,,,,
0,10,10,68,1,,6050edc9b0fa3d391dae2ffe,62c53950c1c9a7c5e0129e8b,2022-07-06_09h33.47.079,Colour_Asymmetry_Pilot,2022.1.3,Win32,60.26274557,62c50e9c1127f2cd403a315f,,,,,,,,,,,,,,,,,,,,,,,,,,,,,,,,,,,,,,,,,,,,,,,,,,,,,,,,,,,,,,,,,,,,,,,,,,,,,,,,,,,,,,,,,,,,,,,,,,,,,,,,,,,,,,,,,,,,,,,,,,,,,,,,,,,,,,,,,,,,,,,,,,,,,,,,,,,,,,,,,,
0,11,11,6,1,,6050edc9b0fa3d391dae2ffe,62c53950c1c9a7c5e0129e8b,2022-07-06_09h33.47.079,Colour_Asymmetry_Pilot,2022.1.3,Win32,60.26274557,62c50e9c1127f2cd403a315f,,,,,,,,,,,,,,,,,,,,,,,,,,,,,,,,,,,,,,,,,,,,,,,,,,,,,,,,,,,,,,,,,,,,,,,,,,,,,,,,,,,,,,,,,,,,,,,,,,,,,,,,,,,,,,,,,,,,,,,,,,,,,,,,,,,,,,,,,,,,,,,,,,,,,,,,,,,,,,,,,,
0,12,12,0,1,,6050edc9b0fa3d391dae2ffe,62c53950c1c9a7c5e0129e8b,2022-07-06_09h33.47.079,Colour_Asymmetry_Pilot,2022.1.3,Win32,60.26274557,62c50e9c1127f2cd403a315f,,,,,,,,,,,,,,,,,,,,,,,,,,,,,,,,,,,,,,,,,,,,,,,,,,,,,,,,,,,,,,,,,,,,,,,,,,,,,,,,,,,,,,,,,,,,,,,,,,,,,,,,,,,,,,,,,,,,,,,,,,,,,,,,,,,,,,,,,,,,,,,,,,,,,,,,,,,,,,,,,,
0,13,13,23,1,,6050edc9b0fa3d391dae2ffe,62c53950c1c9a7c5e0129e8b,2022-07-06_09h33.47.079,Colour_Asymmetry_Pilot,2022.1.3,Win32,60.26274557,62c50e9c1127f2cd403a315f,,,,,,,,,,,,,,,,,,,,,,,,,,,,,,,,,,,,,,,,,,,,,,,,,,,,,,,,,,,,,,,,,,,,,,,,,,,,,,,,,,,,,,,,,,,,,,,,,,,,,,,,,,,,,,,,,,,,,,,,,,,,,,,,,,,,,,,,,,,,,,,,,,,,,,,,,,,,,,,,,,
0,14,14,43,1,,6050edc9b0fa3d391dae2ffe,62c53950c1c9a7c5e0129e8b,2022-07-06_09h33.47.079,Colour_Asymmetry_Pilot,2022.1.3,Win32,60.26274557,62c50e9c1127f2cd403a315f,,,,,,,,,,,,,,,,,,,,,,,,,,,,,,,,,,,,,,,,,,,,,,,,,,,,,,,,,,,,,,,,,,,,,,,,,,,,,,,,,,,,,,,,,,,,,,,,,,,,,,,,,,,,,,,,,,,,,,,,,,,,,,,,,,,,,,,,,,,,,,,,,,,,,,,,,,,,,,,,,,
0,15,15,12,1,,6050edc9b0fa3d391dae2ffe,62c53950c1c9a7c5e0129e8b,2022-07-06_09h33.47.079,Colour_Asymmetry_Pilot,2022.1.3,Win32,60.26274557,62c50e9c1127f2cd403a315f,,,,,,,,,,,,,,,,,,,,,,,,,,,,,,,,,,,,,,,,,,,,,,,,,,,,,,,,,,,,,,,,,,,,,,,,,,,,,,,,,,,,,,,,,,,,,,,,,,,,,,,,,,,,,,,,,,,,,,,,,,,,,,,,,,,,,,,,,,,,,,,,,,,,,,,,,,,,,,,,,,
0,16,16,83,1,,6050edc9b0fa3d391dae2ffe,62c53950c1c9a7c5e0129e8b,2022-07-06_09h33.47.079,Colour_Asymmetry_Pilot,2022.1.3,Win32,60.26274557,62c50e9c1127f2cd403a315f,,,,,,,,,,,,,,,,,,,,,,,,,,,,,,,,,,,,,,,,,,,,,,,,,,,,,,,,,,,,,,,,,,,,,,,,,,,,,,,,,,,,,,,,,,,,,,,,,,,,,,,,,,,,,,,,,,,,,,,,,,,,,,,,,,,,,,,,,,,,,,,,,,,,,,,,,,,,,,,,,,
0,17,17,8,1,,6050edc9b0fa3d391dae2ffe,62c53950c1c9a7c5e0129e8b,2022-07-06_09h33.47.079,Colour_Asymmetry_Pilot,2022.1.3,Win32,60.26274557,62c50e9c1127f2cd403a315f,,,,,,,,,,,,,,,,,,,,,,,,,,,,,,,,,,,,,,,,,,,,,,,,,,,,,,,,,,,,,,,,,,,,,,,,,,,,,,,,,,,,,,,,,,,,,,,,,,,,,,,,,,,,,,,,,,,,,,,,,,,,,,,,,,,,,,,,,,,,,,,,,,,,,,,,,,,,,,,,,,
0,18,18,17,1,,6050edc9b0fa3d391dae2ffe,62c53950c1c9a7c5e0129e8b,2022-07-06_09h33.47.079,Colour_Asymmetry_Pilot,2022.1.3,Win32,60.26274557,62c50e9c1127f2cd403a315f,,,,,,,,,,,,,,,,,,,,,,,,,,,,,,,,,,,,,,,,,,,,,,,,,,,,,,,,,,,,,,,,,,,,,,,,,,,,,,,,,,,,,,,,,,,,,,,,,,,,,,,,,,,,,,,,,,,,,,,,,,,,,,,,,,,,,,,,,,,,,,,,,,,,,,,,,,,,,,,,,,
0,19,19,62,1,,6050edc9b0fa3d391dae2ffe,62c53950c1c9a7c5e0129e8b,2022-07-06_09h33.47.079,Colour_Asymmetry_Pilot,2022.1.3,Win32,60.26274557,62c50e9c1127f2cd403a315f,,,,,,,,,,,,,,,,,,,,,,,,,,,,,,,,,,,,,,,,,,,,,,,,,,,,,,,,,,,,,,,,,,,,,,,,,,,,,,,,,,,,,,,,,,,,,,,,,,,,,,,,,,,,,,,,,,,,,,,,,,,,,,,,,,,,,,,,,,,,,,,,,,,,,,,,,,,,,,,,,,
0,20,20,24,1,,6050edc9b0fa3d391dae2ffe,62c53950c1c9a7c5e0129e8b,2022-07-06_09h33.47.079,Colour_Asymmetry_Pilot,2022.1.3,Win32,60.26274557,62c50e9c1127f2cd403a315f,,,,,,,,,,,,,,,,,,,,,,,,,,,,,,,,,,,,,,,,,,,,,,,,,,,,,,,,,,,,,,,,,,,,,,,,,,,,,,,,,,,,,,,,,,,,,,,,,,,,,,,,,,,,,,,,,,,,,,,,,,,,,,,,,,,,,,,,,,,,,,,,,,,,,,,,,,,,,,,,,,
0,21,21,80,1,,6050edc9b0fa3d391dae2ffe,62c53950c1c9a7c5e0129e8b,2022-07-06_09h33.47.079,Colour_Asymmetry_Pilot,2022.1.3,Win32,60.26274557,62c50e9c1127f2cd403a315f,,,,,,,,,,,,,,,,,,,,,,,,,,,,,,,,,,,,,,,,,,,,,,,,,,,,,,,,,,,,,,,,,,,,,,,,,,,,,,,,,,,,,,,,,,,,,,,,,,,,,,,,,,,,,,,,,,,,,,,,,,,,,,,,,,,,,,,,,,,,,,,,,,,,,,,,,,,,,,,,,,
0,22,22,32,1,,6050edc9b0fa3d391dae2ffe,62c53950c1c9a7c5e0129e8b,2022-07-06_09h33.47.079,Colour_Asymmetry_Pilot,2022.1.3,Win32,60.26274557,62c50e9c1127f2cd403a315f,,,,,,,,,,,,,,,,,,,,,,,,,,,,,,,,,,,,,,,,,,,,,,,,,,,,,,,,,,,,,,,,,,,,,,,,,,,,,,,,,,,,,,,,,,,,,,,,,,,,,,,,,,,,,,,,,,,,,,,,,,,,,,,,,,,,,,,,,,,,,,,,,,,,,,,,,,,,,,,,,,
0,23,23,82,1,,6050edc9b0fa3d391dae2ffe,62c53950c1c9a7c5e0129e8b,2022-07-06_09h33.47.079,Colour_Asymmetry_Pilot,2022.1.3,Win32,60.26274557,62c50e9c1127f2cd403a315f,,,,,,,,,,,,,,,,,,,,,,,,,,,,,,,,,,,,,,,,,,,,,,,,,,,,,,,,,,,,,,,,,,,,,,,,,,,,,,,,,,,,,,,,,,,,,,,,,,,,,,,,,,,,,,,,,,,,,,,,,,,,,,,,,,,,,,,,,,,,,,,,,,,,,,,,,,,,,,,,,,
0,24,24,33,1,,6050edc9b0fa3d391dae2ffe,62c53950c1c9a7c5e0129e8b,2022-07-06_09h33.47.079,Colour_Asymmetry_Pilot,2022.1.3,Win32,60.26274557,62c50e9c1127f2cd403a315f,,,,,,,,,,,,,,,,,,,,,,,,,,,,,,,,,,,,,,,,,,,,,,,,,,,,,,,,,,,,,,,,,,,,,,,,,,,,,,,,,,,,,,,,,,,,,,,,,,,,,,,,,,,,,,,,,,,,,,,,,,,,,,,,,,,,,,,,,,,,,,,,,,,,,,,,,,,,,,,,,,
0,25,25,85,1,,6050edc9b0fa3d391dae2ffe,62c53950c1c9a7c5e0129e8b,2022-07-06_09h33.47.079,Colour_Asymmetry_Pilot,2022.1.3,Win32,60.26274557,62c50e9c1127f2cd403a315f,,,,,,,,,,,,,,,,,,,,,,,,,,,,,,,,,,,,,,,,,,,,,,,,,,,,,,,,,,,,,,,,,,,,,,,,,,,,,,,,,,,,,,,,,,,,,,,,,,,,,,,,,,,,,,,,,,,,,,,,,,,,,,,,,,,,,,,,,,,,,,,,,,,,,,,,,,,,,,,,,,
0,26,26,84,1,,6050edc9b0fa3d391dae2ffe,62c53950c1c9a7c5e0129e8b,2022-07-06_09h33.47.079,Colour_Asymmetry_Pilot,2022.1.3,Win32,60.26274557,62c50e9c1127f2cd403a315f,,,,,,,,,,,,,,,,,,,,,,,,,,,,,,,,,,,,,,,,,,,,,,,,,,,,,,,,,,,,,,,,,,,,,,,,,,,,,,,,,,,,,,,,,,,,,,,,,,,,,,,,,,,,,,,,,,,,,,,,,,,,,,,,,,,,,,,,,,,,,,,,,,,,,,,,,,,,,,,,,,
0,27,27,5,1,,6050edc9b0fa3d391dae2ffe,62c53950c1c9a7c5e0129e8b,2022-07-06_09h33.47.079,Colour_Asymmetry_Pilot,2022.1.3,Win32,60.26274557,62c50e9c1127f2cd403a315f,,,,,,,,,,,,,,,,,,,,,,,,,,,,,,,,,,,,,,,,,,,,,,,,,,,,,,,,,,,,,,,,,,,,,,,,,,,,,,,,,,,,,,,,,,,,,,,,,,,,,,,,,,,,,,,,,,,,,,,,,,,,,,,,,,,,,,,,,,,,,,,,,,,,,,,,,,,,,,,,,,
0,28,28,42,1,,6050edc9b0fa3d391dae2ffe,62c53950c1c9a7c5e0129e8b,2022-07-06_09h33.47.079,Colour_Asymmetry_Pilot,2022.1.3,Win32,60.26274557,62c50e9c1127f2cd403a315f,,,,,,,,,,,,,,,,,,,,,,,,,,,,,,,,,,,,,,,,,,,,,,,,,,,,,,,,,,,,,,,,,,,,,,,,,,,,,,,,,,,,,,,,,,,,,,,,,,,,,,,,,,,,,,,,,,,,,,,,,,,,,,,,,,,,,,,,,,,,,,,,,,,,,,,,,,,,,,,,,,
0,29,29,51,1,,6050edc9b0fa3d391dae2ffe,62c53950c1c9a7c5e0129e8b,2022-07-06_09h33.47.079,Colour_Asymmetry_Pilot,2022.1.3,Win32,60.26274557,62c50e9c1127f2cd403a315f,,,,,,,,,,,,,,,,,,,,,,,,,,,,,,,,,,,,,,,,,,,,,,,,,,,,,,,,,,,,,,,,,,,,,,,,,,,,,,,,,,,,,,,,,,,,,,,,,,,,,,,,,,,,,,,,,,,,,,,,,,,,,,,,,,,,,,,,,,,,,,,,,,,,,,,,,,,,,,,,,,
0,30,30,92,1,,6050edc9b0fa3d391dae2ffe,62c53950c1c9a7c5e0129e8b,2022-07-06_09h33.47.079,Colour_Asymmetry_Pilot,2022.1.3,Win32,60.26274557,62c50e9c1127f2cd403a315f,,,,,,,,,,,,,,,,,,,,,,,,,,,,,,,,,,,,,,,,,,,,,,,,,,,,,,,,,,,,,,,,,,,,,,,,,,,,,,,,,,,,,,,,,,,,,,,,,,,,,,,,,,,,,,,,,,,,,,,,,,,,,,,,,,,,,,,,,,,,,,,,,,,,,,,,,,,,,,,,,,
0,31,31,65,1,,6050edc9b0fa3d391dae2ffe,62c53950c1c9a7c5e0129e8b,2022-07-06_09h33.47.079,Colour_Asymmetry_Pilot,2022.1.3,Win32,60.26274557,62c50e9c1127f2cd403a315f,,,,,,,,,,,,,,,,,,,,,,,,,,,,,,,,,,,,,,,,,,,,,,,,,,,,,,,,,,,,,,,,,,,,,,,,,,,,,,,,,,,,,,,,,,,,,,,,,,,,,,,,,,,,,,,,,,,,,,,,,,,,,,,,,,,,,,,,,,,,,,,,,,,,,,,,,,,,,,,,,,
0,32,32,45,1,,6050edc9b0fa3d391dae2ffe,62c53950c1c9a7c5e0129e8b,2022-07-06_09h33.47.079,Colour_Asymmetry_Pilot,2022.1.3,Win32,60.26274557,62c50e9c1127f2cd403a315f,,,,,,,,,,,,,,,,,,,,,,,,,,,,,,,,,,,,,,,,,,,,,,,,,,,,,,,,,,,,,,,,,,,,,,,,,,,,,,,,,,,,,,,,,,,,,,,,,,,,,,,,,,,,,,,,,,,,,,,,,,,,,,,,,,,,,,,,,,,,,,,,,,,,,,,,,,,,,,,,,,
0,33,33,10,1,,6050edc9b0fa3d391dae2ffe,62c53950c1c9a7c5e0129e8b,2022-07-06_09h33.47.079,Colour_Asymmetry_Pilot,2022.1.3,Win32,60.26274557,62c50e9c1127f2cd403a315f,,,,,,,,,,,,,,,,,,,,,,,,,,,,,,,,,,,,,,,,,,,,,,,,,,,,,,,,,,,,,,,,,,,,,,,,,,,,,,,,,,,,,,,,,,,,,,,,,,,,,,,,,,,,,,,,,,,,,,,,,,,,,,,,,,,,,,,,,,,,,,,,,,,,,,,,,,,,,,,,,,
0,34,34,66,1,,6050edc9b0fa3d391dae2ffe,62c53950c1c9a7c5e0129e8b,2022-07-06_09h33.47.079,Colour_Asymmetry_Pilot,2022.1.3,Win32,60.26274557,62c50e9c1127f2cd403a315f,,,,,,,,,,,,,,,,,,,,,,,,,,,,,,,,,,,,,,,,,,,,,,,,,,,,,,,,,,,,,,,,,,,,,,,,,,,,,,,,,,,,,,,,,,,,,,,,,,,,,,,,,,,,,,,,,,,,,,,,,,,,,,,,,,,,,,,,,,,,,,,,,,,,,,,,,,,,,,,,,,
0,35,35,58,1,,6050edc9b0fa3d391dae2ffe,62c53950c1c9a7c5e0129e8b,2022-07-06_09h33.47.079,Colour_Asymmetry_Pilot,2022.1.3,Win32,60.26274557,62c50e9c1127f2cd403a315f,,,,,,,,,,,,,,,,,,,,,,,,,,,,,,,,,,,,,,,,,,,,,,,,,,,,,,,,,,,,,,,,,,,,,,,,,,,,,,,,,,,,,,,,,,,,,,,,,,,,,,,,,,,,,,,,,,,,,,,,,,,,,,,,,,,,,,,,,,,,,,,,,,,,,,,,,,,,,,,,,,
0,36,36,53,1,,6050edc9b0fa3d391dae2ffe,62c53950c1c9a7c5e0129e8b,2022-07-06_09h33.47.079,Colour_Asymmetry_Pilot,2022.1.3,Win32,60.26274557,62c50e9c1127f2cd403a315f,,,,,,,,,,,,,,,,,,,,,,,,,,,,,,,,,,,,,,,,,,,,,,,,,,,,,,,,,,,,,,,,,,,,,,,,,,,,,,,,,,,,,,,,,,,,,,,,,,,,,,,,,,,,,,,,,,,,,,,,,,,,,,,,,,,,,,,,,,,,,,,,,,,,,,,,,,,,,,,,,,
0,37,37,72,1,,6050edc9b0fa3d391dae2ffe,62c53950c1c9a7c5e0129e8b,2022-07-06_09h33.47.079,Colour_Asymmetry_Pilot,2022.1.3,Win32,60.26274557,62c50e9c1127f2cd403a315f,,,,,,,,,,,,,,,,,,,,,,,,,,,,,,,,,,,,,,,,,,,,,,,,,,,,,,,,,,,,,,,,,,,,,,,,,,,,,,,,,,,,,,,,,,,,,,,,,,,,,,,,,,,,,,,,,,,,,,,,,,,,,,,,,,,,,,,,,,,,,,,,,,,,,,,,,,,,,,,,,,
0,38,38,29,1,,6050edc9b0fa3d391dae2ffe,62c53950c1c9a7c5e0129e8b,2022-07-06_09h33.47.079,Colour_Asymmetry_Pilot,2022.1.3,Win32,60.26274557,62c50e9c1127f2cd403a315f,,,,,,,,,,,,,,,,,,,,,,,,,,,,,,,,,,,,,,,,,,,,,,,,,,,,,,,,,,,,,,,,,,,,,,,,,,,,,,,,,,,,,,,,,,,,,,,,,,,,,,,,,,,,,,,,,,,,,,,,,,,,,,,,,,,,,,,,,,,,,,,,,,,,,,,,,,,,,,,,,,
0,39,39,20,1,,6050edc9b0fa3d391dae2ffe,62c53950c1c9a7c5e0129e8b,2022-07-06_09h33.47.079,Colour_Asymmetry_Pilot,2022.1.3,Win32,60.26274557,62c50e9c1127f2cd403a315f,,,,,,,,,,,,,,,,,,,,,,,,,,,,,,,,,,,,,,,,,,,,,,,,,,,,,,,,,,,,,,,,,,,,,,,,,,,,,,,,,,,,,,,,,,,,,,,,,,,,,,,,,,,,,,,,,,,,,,,,,,,,,,,,,,,,,,,,,,,,,,,,,,,,,,,,,,,,,,,,,,
0,40,40,14,1,,6050edc9b0fa3d391dae2ffe,62c53950c1c9a7c5e0129e8b,2022-07-06_09h33.47.079,Colour_Asymmetry_Pilot,2022.1.3,Win32,60.26274557,62c50e9c1127f2cd403a315f,,,,,,,,,,,,,,,,,,,,,,,,,,,,,,,,,,,,,,,,,,,,,,,,,,,,,,,,,,,,,,,,,,,,,,,,,,,,,,,,,,,,,,,,,,,,,,,,,,,,,,,,,,,,,,,,,,,,,,,,,,,,,,,,,,,,,,,,,,,,,,,,,,,,,,,,,,,,,,,,,,
0,41,41,47,1,,6050edc9b0fa3d391dae2ffe,62c53950c1c9a7c5e0129e8b,2022-07-06_09h33.47.079,Colour_Asymmetry_Pilot,2022.1.3,Win32,60.26274557,62c50e9c1127f2cd403a315f,,,,,,,,,,,,,,,,,,,,,,,,,,,,,,,,,,,,,,,,,,,,,,,,,,,,,,,,,,,,,,,,,,,,,,,,,,,,,,,,,,,,,,,,,,,,,,,,,,,,,,,,,,,,,,,,,,,,,,,,,,,,,,,,,,,,,,,,,,,,,,,,,,,,,,,,,,,,,,,,,,
0,42,42,61,1,,6050edc9b0fa3d391dae2ffe,62c53950c1c9a7c5e0129e8b,2022-07-06_09h33.47.079,Colour_Asymmetry_Pilot,2022.1.3,Win32,60.26274557,62c50e9c1127f2cd403a315f,,,,,,,,,,,,,,,,,,,,,,,,,,,,,,,,,,,,,,,,,,,,,,,,,,,,,,,,,,,,,,,,,,,,,,,,,,,,,,,,,,,,,,,,,,,,,,,,,,,,,,,,,,,,,,,,,,,,,,,,,,,,,,,,,,,,,,,,,,,,,,,,,,,,,,,,,,,,,,,,,,
0,43,43,74,1,,6050edc9b0fa3d391dae2ffe,62c53950c1c9a7c5e0129e8b,2022-07-06_09h33.47.079,Colour_Asymmetry_Pilot,2022.1.3,Win32,60.26274557,62c50e9c1127f2cd403a315f,,,,,,,,,,,,,,,,,,,,,,,,,,,,,,,,,,,,,,,,,,,,,,,,,,,,,,,,,,,,,,,,,,,,,,,,,,,,,,,,,,,,,,,,,,,,,,,,,,,,,,,,,,,,,,,,,,,,,,,,,,,,,,,,,,,,,,,,,,,,,,,,,,,,,,,,,,,,,,,,,,
0,44,44,52,1,,6050edc9b0fa3d391dae2ffe,62c53950c1c9a7c5e0129e8b,2022-07-06_09h33.47.079,Colour_Asymmetry_Pilot,2022.1.3,Win32,60.26274557,62c50e9c1127f2cd403a315f,,,,,,,,,,,,,,,,,,,,,,,,,,,,,,,,,,,,,,,,,,,,,,,,,,,,,,,,,,,,,,,,,,,,,,,,,,,,,,,,,,,,,,,,,,,,,,,,,,,,,,,,,,,,,,,,,,,,,,,,,,,,,,,,,,,,,,,,,,,,,,,,,,,,,,,,,,,,,,,,,,
0,45,45,7,1,,6050edc9b0fa3d391dae2ffe,62c53950c1c9a7c5e0129e8b,2022-07-06_09h33.47.079,Colour_Asymmetry_Pilot,2022.1.3,Win32,60.26274557,62c50e9c1127f2cd403a315f,,,,,,,,,,,,,,,,,,,,,,,,,,,,,,,,,,,,,,,,,,,,,,,,,,,,,,,,,,,,,,,,,,,,,,,,,,,,,,,,,,,,,,,,,,,,,,,,,,,,,,,,,,,,,,,,,,,,,,,,,,,,,,,,,,,,,,,,,,,,,,,,,,,,,,,,,,,,,,,,,,
0,46,46,27,1,,6050edc9b0fa3d391dae2ffe,62c53950c1c9a7c5e0129e8b,2022-07-06_09h33.47.079,Colour_Asymmetry_Pilot,2022.1.3,Win32,60.26274557,62c50e9c1127f2cd403a315f,,,,,,,,,,,,,,,,,,,,,,,,,,,,,,,,,,,,,,,,,,,,,,,,,,,,,,,,,,,,,,,,,,,,,,,,,,,,,,,,,,,,,,,,,,,,,,,,,,,,,,,,,,,,,,,,,,,,,,,,,,,,,,,,,,,,,,,,,,,,,,,,,,,,,,,,,,,,,,,,,,
0,47,47,40,1,,6050edc9b0fa3d391dae2ffe,62c53950c1c9a7c5e0129e8b,2022-07-06_09h33.47.079,Colour_Asymmetry_Pilot,2022.1.3,Win32,60.26274557,62c50e9c1127f2cd403a315f,,,,,,,,,,,,,,,,,,,,,,,,,,,,,,,,,,,,,,,,,,,,,,,,,,,,,,,,,,,,,,,,,,,,,,,,,,,,,,,,,,,,,,,,,,,,,,,,,,,,,,,,,,,,,,,,,,,,,,,,,,,,,,,,,,,,,,,,,,,,,,,,,,,,,,,,,,,,,,,,,,
0,48,48,39,1,,6050edc9b0fa3d391dae2ffe,62c53950c1c9a7c5e0129e8b,2022-07-06_09h33.47.079,Colour_Asymmetry_Pilot,2022.1.3,Win32,60.26274557,62c50e9c1127f2cd403a315f,,,,,,,,,,,,,,,,,,,,,,,,,,,,,,,,,,,,,,,,,,,,,,,,,,,,,,,,,,,,,,,,,,,,,,,,,,,,,,,,,,,,,,,,,,,,,,,,,,,,,,,,,,,,,,,,,,,,,,,,,,,,,,,,,,,,,,,,,,,,,,,,,,,,,,,,,,,,,,,,,,
0,49,49,1,1,,6050edc9b0fa3d391dae2ffe,62c53950c1c9a7c5e0129e8b,2022-07-06_09h33.47.079,Colour_Asymmetry_Pilot,2022.1.3,Win32,60.26274557,62c50e9c1127f2cd403a315f,,,,,,,,,,,,,,,,,,,,,,,,,,,,,,,,,,,,,,,,,,,,,,,,,,,,,,,,,,,,,,,,,,,,,,,,,,,,,,,,,,,,,,,,,,,,,,,,,,,,,,,,,,,,,,,,,,,,,,,,,,,,,,,,,,,,,,,,,,,,,,,,,,,,,,,,,,,,,,,,,,
0,50,50,54,1,,6050edc9b0fa3d391dae2ffe,62c53950c1c9a7c5e0129e8b,2022-07-06_09h33.47.079,Colour_Asymmetry_Pilot,2022.1.3,Win32,60.26274557,62c50e9c1127f2cd403a315f,,,,,,,,,,,,,,,,,,,,,,,,,,,,,,,,,,,,,,,,,,,,,,,,,,,,,,,,,,,,,,,,,,,,,,,,,,,,,,,,,,,,,,,,,,,,,,,,,,,,,,,,,,,,,,,,,,,,,,,,,,,,,,,,,,,,,,,,,,,,,,,,,,,,,,,,,,,,,,,,,,
0,51,51,34,1,,6050edc9b0fa3d391dae2ffe,62c53950c1c9a7c5e0129e8b,2022-07-06_09h33.47.079,Colour_Asymmetry_Pilot,2022.1.3,Win32,60.26274557,62c50e9c1127f2cd403a315f,,,,,,,,,,,,,,,,,,,,,,,,,,,,,,,,,,,,,,,,,,,,,,,,,,,,,,,,,,,,,,,,,,,,,,,,,,,,,,,,,,,,,,,,,,,,,,,,,,,,,,,,,,,,,,,,,,,,,,,,,,,,,,,,,,,,,,,,,,,,,,,,,,,,,,,,,,,,,,,,,,
0,52,52,91,1,,6050edc9b0fa3d391dae2ffe,62c53950c1c9a7c5e0129e8b,2022-07-06_09h33.47.079,Colour_Asymmetry_Pilot,2022.1.3,Win32,60.26274557,62c50e9c1127f2cd403a315f,,,,,,,,,,,,,,,,,,,,,,,,,,,,,,,,,,,,,,,,,,,,,,,,,,,,,,,,,,,,,,,,,,,,,,,,,,,,,,,,,,,,,,,,,,,,,,,,,,,,,,,,,,,,,,,,,,,,,,,,,,,,,,,,,,,,,,,,,,,,,,,,,,,,,,,,,,,,,,,,,,
0,53,53,70,1,,6050edc9b0fa3d391dae2ffe,62c53950c1c9a7c5e0129e8b,2022-07-06_09h33.47.079,Colour_Asymmetry_Pilot,2022.1.3,Win32,60.26274557,62c50e9c1127f2cd403a315f,,,,,,,,,,,,,,,,,,,,,,,,,,,,,,,,,,,,,,,,,,,,,,,,,,,,,,,,,,,,,,,,,,,,,,,,,,,,,,,,,,,,,,,,,,,,,,,,,,,,,,,,,,,,,,,,,,,,,,,,,,,,,,,,,,,,,,,,,,,,,,,,,,,,,,,,,,,,,,,,,,
0,54,54,28,1,,6050edc9b0fa3d391dae2ffe,62c53950c1c9a7c5e0129e8b,2022-07-06_09h33.47.079,Colour_Asymmetry_Pilot,2022.1.3,Win32,60.26274557,62c50e9c1127f2cd403a315f,,,,,,,,,,,,,,,,,,,,,,,,,,,,,,,,,,,,,,,,,,,,,,,,,,,,,,,,,,,,,,,,,,,,,,,,,,,,,,,,,,,,,,,,,,,,,,,,,,,,,,,,,,,,,,,,,,,,,,,,,,,,,,,,,,,,,,,,,,,,,,,,,,,,,,,,,,,,,,,,,,
0,55,55,11,1,,6050edc9b0fa3d391dae2ffe,62c53950c1c9a7c5e0129e8b,2022-07-06_09h33.47.079,Colour_Asymmetry_Pilot,2022.1.3,Win32,60.26274557,62c50e9c1127f2cd403a315f,,,,,,,,,,,,,,,,,,,,,,,,,,,,,,,,,,,,,,,,,,,,,,,,,,,,,,,,,,,,,,,,,,,,,,,,,,,,,,,,,,,,,,,,,,,,,,,,,,,,,,,,,,,,,,,,,,,,,,,,,,,,,,,,,,,,,,,,,,,,,,,,,,,,,,,,,,,,,,,,,,
0,56,56,18,1,,6050edc9b0fa3d391dae2ffe,62c53950c1c9a7c5e0129e8b,2022-07-06_09h33.47.079,Colour_Asymmetry_Pilot,2022.1.3,Win32,60.26274557,62c50e9c1127f2cd403a315f,,,,,,,,,,,,,,,,,,,,,,,,,,,,,,,,,,,,,,,,,,,,,,,,,,,,,,,,,,,,,,,,,,,,,,,,,,,,,,,,,,,,,,,,,,,,,,,,,,,,,,,,,,,,,,,,,,,,,,,,,,,,,,,,,,,,,,,,,,,,,,,,,,,,,,,,,,,,,,,,,,
0,57,57,22,1,,6050edc9b0fa3d391dae2ffe,62c53950c1c9a7c5e0129e8b,2022-07-06_09h33.47.079,Colour_Asymmetry_Pilot,2022.1.3,Win32,60.26274557,62c50e9c1127f2cd403a315f,,,,,,,,,,,,,,,,,,,,,,,,,,,,,,,,,,,,,,,,,,,,,,,,,,,,,,,,,,,,,,,,,,,,,,,,,,,,,,,,,,,,,,,,,,,,,,,,,,,,,,,,,,,,,,,,,,,,,,,,,,,,,,,,,,,,,,,,,,,,,,,,,,,,,,,,,,,,,,,,,,
0,58,58,55,1,,6050edc9b0fa3d391dae2ffe,62c53950c1c9a7c5e0129e8b,2022-07-06_09h33.47.079,Colour_Asymmetry_Pilot,2022.1.3,Win32,60.26274557,62c50e9c1127f2cd403a315f,,,,,,,,,,,,,,,,,,,,,,,,,,,,,,,,,,,,,,,,,,,,,,,,,,,,,,,,,,,,,,,,,,,,,,,,,,,,,,,,,,,,,,,,,,,,,,,,,,,,,,,,,,,,,,,,,,,,,,,,,,,,,,,,,,,,,,,,,,,,,,,,,,,,,,,,,,,,,,,,,,
0,59,59,57,1,,6050edc9b0fa3d391dae2ffe,62c53950c1c9a7c5e0129e8b,2022-07-06_09h33.47.079,Colour_Asymmetry_Pilot,2022.1.3,Win32,60.26274557,62c50e9c1127f2cd403a315f,,,,,,,,,,,,,,,,,,,,,,,,,,,,,,,,,,,,,,,,,,,,,,,,,,,,,,,,,,,,,,,,,,,,,,,,,,,,,,,,,,,,,,,,,,,,,,,,,,,,,,,,,,,,,,,,,,,,,,,,,,,,,,,,,,,,,,,,,,,,,,,,,,,,,,,,,,,,,,,,,,
0,60,60,46,1,,6050edc9b0fa3d391dae2ffe,62c53950c1c9a7c5e0129e8b,2022-07-06_09h33.47.079,Colour_Asymmetry_Pilot,2022.1.3,Win32,60.26274557,62c50e9c1127f2cd403a315f,,,,,,,,,,,,,,,,,,,,,,,,,,,,,,,,,,,,,,,,,,,,,,,,,,,,,,,,,,,,,,,,,,,,,,,,,,,,,,,,,,,,,,,,,,,,,,,,,,,,,,,,,,,,,,,,,,,,,,,,,,,,,,,,,,,,,,,,,,,,,,,,,,,,,,,,,,,,,,,,,,
0,61,61,81,1,,6050edc9b0fa3d391dae2ffe,62c53950c1c9a7c5e0129e8b,2022-07-06_09h33.47.079,Colour_Asymmetry_Pilot,2022.1.3,Win32,60.26274557,62c50e9c1127f2cd403a315f,,,,,,,,,,,,,,,,,,,,,,,,,,,,,,,,,,,,,,,,,,,,,,,,,,,,,,,,,,,,,,,,,,,,,,,,,,,,,,,,,,,,,,,,,,,,,,,,,,,,,,,,,,,,,,,,,,,,,,,,,,,,,,,,,,,,,,,,,,,,,,,,,,,,,,,,,,,,,,,,,,
0,62,62,15,1,,6050edc9b0fa3d391dae2ffe,62c53950c1c9a7c5e0129e8b,2022-07-06_09h33.47.079,Colour_Asymmetry_Pilot,2022.1.3,Win32,60.26274557,62c50e9c1127f2cd403a315f,,,,,,,,,,,,,,,,,,,,,,,,,,,,,,,,,,,,,,,,,,,,,,,,,,,,,,,,,,,,,,,,,,,,,,,,,,,,,,,,,,,,,,,,,,,,,,,,,,,,,,,,,,,,,,,,,,,,,,,,,,,,,,,,,,,,,,,,,,,,,,,,,,,,,,,,,,,,,,,,,,
0,63,63,44,1,,6050edc9b0fa3d391dae2ffe,62c53950c1c9a7c5e0129e8b,2022-07-06_09h33.47.079,Colour_Asymmetry_Pilot,2022.1.3,Win32,60.26274557,62c50e9c1127f2cd403a315f,,,,,,,,,,,,,,,,,,,,,,,,,,,,,,,,,,,,,,,,,,,,,,,,,,,,,,,,,,,,,,,,,,,,,,,,,,,,,,,,,,,,,,,,,,,,,,,,,,,,,,,,,,,,,,,,,,,,,,,,,,,,,,,,,,,,,,,,,,,,,,,,,,,,,,,,,,,,,,,,,,
0,64,64,30,1,,6050edc9b0fa3d391dae2ffe,62c53950c1c9a7c5e0129e8b,2022-07-06_09h33.47.079,Colour_Asymmetry_Pilot,2022.1.3,Win32,60.26274557,62c50e9c1127f2cd403a315f,,,,,,,,,,,,,,,,,,,,,,,,,,,,,,,,,,,,,,,,,,,,,,,,,,,,,,,,,,,,,,,,,,,,,,,,,,,,,,,,,,,,,,,,,,,,,,,,,,,,,,,,,,,,,,,,,,,,,,,,,,,,,,,,,,,,,,,,,,,,,,,,,,,,,,,,,,,,,,,,,,
0,65,65,86,1,,6050edc9b0fa3d391dae2ffe,62c53950c1c9a7c5e0129e8b,2022-07-06_09h33.47.079,Colour_Asymmetry_Pilot,2022.1.3,Win32,60.26274557,62c50e9c1127f2cd403a315f,,,,,,,,,,,,,,,,,,,,,,,,,,,,,,,,,,,,,,,,,,,,,,,,,,,,,,,,,,,,,,,,,,,,,,,,,,,,,,,,,,,,,,,,,,,,,,,,,,,,,,,,,,,,,,,,,,,,,,,,,,,,,,,,,,,,,,,,,,,,,,,,,,,,,,,,,,,,,,,,,,
0,66,66,49,1,,6050edc9b0fa3d391dae2ffe,62c53950c1c9a7c5e0129e8b,2022-07-06_09h33.47.079,Colour_Asymmetry_Pilot,2022.1.3,Win32,60.26274557,62c50e9c1127f2cd403a315f,,,,,,,,,,,,,,,,,,,,,,,,,,,,,,,,,,,,,,,,,,,,,,,,,,,,,,,,,,,,,,,,,,,,,,,,,,,,,,,,,,,,,,,,,,,,,,,,,,,,,,,,,,,,,,,,,,,,,,,,,,,,,,,,,,,,,,,,,,,,,,,,,,,,,,,,,,,,,,,,,,
0,67,67,69,1,,6050edc9b0fa3d391dae2ffe,62c53950c1c9a7c5e0129e8b,2022-07-06_09h33.47.079,Colour_Asymmetry_Pilot,2022.1.3,Win32,60.26274557,62c50e9c1127f2cd403a315f,,,,,,,,,,,,,,,,,,,,,,,,,,,,,,,,,,,,,,,,,,,,,,,,,,,,,,,,,,,,,,,,,,,,,,,,,,,,,,,,,,,,,,,,,,,,,,,,,,,,,,,,,,,,,,,,,,,,,,,,,,,,,,,,,,,,,,,,,,,,,,,,,,,,,,,,,,,,,,,,,,
0,68,68,36,1,,6050edc9b0fa3d391dae2ffe,62c53950c1c9a7c5e0129e8b,2022-07-06_09h33.47.079,Colour_Asymmetry_Pilot,2022.1.3,Win32,60.26274557,62c50e9c1127f2cd403a315f,,,,,,,,,,,,,,,,,,,,,,,,,,,,,,,,,,,,,,,,,,,,,,,,,,,,,,,,,,,,,,,,,,,,,,,,,,,,,,,,,,,,,,,,,,,,,,,,,,,,,,,,,,,,,,,,,,,,,,,,,,,,,,,,,,,,,,,,,,,,,,,,,,,,,,,,,,,,,,,,,,
0,69,69,2,1,,6050edc9b0fa3d391dae2ffe,62c53950c1c9a7c5e0129e8b,2022-07-06_09h33.47.079,Colour_Asymmetry_Pilot,2022.1.3,Win32,60.26274557,62c50e9c1127f2cd403a315f,,,,,,,,,,,,,,,,,,,,,,,,,,,,,,,,,,,,,,,,,,,,,,,,,,,,,,,,,,,,,,,,,,,,,,,,,,,,,,,,,,,,,,,,,,,,,,,,,,,,,,,,,,,,,,,,,,,,,,,,,,,,,,,,,,,,,,,,,,,,,,,,,,,,,,,,,,,,,,,,,,
0,70,70,87,1,,6050edc9b0fa3d391dae2ffe,62c53950c1c9a7c5e0129e8b,2022-07-06_09h33.47.079,Colour_Asymmetry_Pilot,2022.1.3,Win32,60.26274557,62c50e9c1127f2cd403a315f,,,,,,,,,,,,,,,,,,,,,,,,,,,,,,,,,,,,,,,,,,,,,,,,,,,,,,,,,,,,,,,,,,,,,,,,,,,,,,,,,,,,,,,,,,,,,,,,,,,,,,,,,,,,,,,,,,,,,,,,,,,,,,,,,,,,,,,,,,,,,,,,,,,,,,,,,,,,,,,,,,
0,71,71,4,1,,6050edc9b0fa3d391dae2ffe,62c53950c1c9a7c5e0129e8b,2022-07-06_09h33.47.079,Colour_Asymmetry_Pilot,2022.1.3,Win32,60.26274557,62c50e9c1127f2cd403a315f,,,,,,,,,,,,,,,,,,,,,,,,,,,,,,,,,,,,,,,,,,,,,,,,,,,,,,,,,,,,,,,,,,,,,,,,,,,,,,,,,,,,,,,,,,,,,,,,,,,,,,,,,,,,,,,,,,,,,,,,,,,,,,,,,,,,,,,,,,,,,,,,,,,,,,,,,,,,,,,,,,
0,72,72,13,1,,6050edc9b0fa3d391dae2ffe,62c53950c1c9a7c5e0129e8b,2022-07-06_09h33.47.079,Colour_Asymmetry_Pilot,2022.1.3,Win32,60.26274557,62c50e9c1127f2cd403a315f,,,,,,,,,,,,,,,,,,,,,,,,,,,,,,,,,,,,,,,,,,,,,,,,,,,,,,,,,,,,,,,,,,,,,,,,,,,,,,,,,,,,,,,,,,,,,,,,,,,,,,,,,,,,,,,,,,,,,,,,,,,,,,,,,,,,,,,,,,,,,,,,,,,,,,,,,,,,,,,,,,
0,73,73,77,1,,6050edc9b0fa3d391dae2ffe,62c53950c1c9a7c5e0129e8b,2022-07-06_09h33.47.079,Colour_Asymmetry_Pilot,2022.1.3,Win32,60.26274557,62c50e9c1127f2cd403a315f,,,,,,,,,,,,,,,,,,,,,,,,,,,,,,,,,,,,,,,,,,,,,,,,,,,,,,,,,,,,,,,,,,,,,,,,,,,,,,,,,,,,,,,,,,,,,,,,,,,,,,,,,,,,,,,,,,,,,,,,,,,,,,,,,,,,,,,,,,,,,,,,,,,,,,,,,,,,,,,,,,
0,74,74,90,1,,6050edc9b0fa3d391dae2ffe,62c53950c1c9a7c5e0129e8b,2022-07-06_09h33.47.079,Colour_Asymmetry_Pilot,2022.1.3,Win32,60.26274557,62c50e9c1127f2cd403a315f,,,,,,,,,,,,,,,,,,,,,,,,,,,,,,,,,,,,,,,,,,,,,,,,,,,,,,,,,,,,,,,,,,,,,,,,,,,,,,,,,,,,,,,,,,,,,,,,,,,,,,,,,,,,,,,,,,,,,,,,,,,,,,,,,,,,,,,,,,,,,,,,,,,,,,,,,,,,,,,,,,
0,75,75,64,1,,6050edc9b0fa3d391dae2ffe,62c53950c1c9a7c5e0129e8b,2022-07-06_09h33.47.079,Colour_Asymmetry_Pilot,2022.1.3,Win32,60.26274557,62c50e9c1127f2cd403a315f,,,,,,,,,,,,,,,,,,,,,,,,,,,,,,,,,,,,,,,,,,,,,,,,,,,,,,,,,,,,,,,,,,,,,,,,,,,,,,,,,,,,,,,,,,,,,,,,,,,,,,,,,,,,,,,,,,,,,,,,,,,,,,,,,,,,,,,,,,,,,,,,,,,,,,,,,,,,,,,,,,
0,76,76,3,1,,6050edc9b0fa3d391dae2ffe,62c53950c1c9a7c5e0129e8b,2022-07-06_09h33.47.079,Colour_Asymmetry_Pilot,2022.1.3,Win32,60.26274557,62c50e9c1127f2cd403a315f,,,,,,,,,,,,,,,,,,,,,,,,,,,,,,,,,,,,,,,,,,,,,,,,,,,,,,,,,,,,,,,,,,,,,,,,,,,,,,,,,,,,,,,,,,,,,,,,,,,,,,,,,,,,,,,,,,,,,,,,,,,,,,,,,,,,,,,,,,,,,,,,,,,,,,,,,,,,,,,,,,
0,77,77,48,1,,6050edc9b0fa3d391dae2ffe,62c53950c1c9a7c5e0129e8b,2022-07-06_09h33.47.079,Colour_Asymmetry_Pilot,2022.1.3,Win32,60.26274557,62c50e9c1127f2cd403a315f,,,,,,,,,,,,,,,,,,,,,,,,,,,,,,,,,,,,,,,,,,,,,,,,,,,,,,,,,,,,,,,,,,,,,,,,,,,,,,,,,,,,,,,,,,,,,,,,,,,,,,,,,,,,,,,,,,,,,,,,,,,,,,,,,,,,,,,,,,,,,,,,,,,,,,,,,,,,,,,,,,
0,78,78,71,1,,6050edc9b0fa3d391dae2ffe,62c53950c1c9a7c5e0129e8b,2022-07-06_09h33.47.079,Colour_Asymmetry_Pilot,2022.1.3,Win32,60.26274557,62c50e9c1127f2cd403a315f,,,,,,,,,,,,,,,,,,,,,,,,,,,,,,,,,,,,,,,,,,,,,,,,,,,,,,,,,,,,,,,,,,,,,,,,,,,,,,,,,,,,,,,,,,,,,,,,,,,,,,,,,,,,,,,,,,,,,,,,,,,,,,,,,,,,,,,,,,,,,,,,,,,,,,,,,,,,,,,,,,
0,79,79,67,1,,6050edc9b0fa3d391dae2ffe,62c53950c1c9a7c5e0129e8b,2022-07-06_09h33.47.079,Colour_Asymmetry_Pilot,2022.1.3,Win32,60.26274557,62c50e9c1127f2cd403a315f,,,,,,,,,,,,,,,,,,,,,,,,,,,,,,,,,,,,,,,,,,,,,,,,,,,,,,,,,,,,,,,,,,,,,,,,,,,,,,,,,,,,,,,,,,,,,,,,,,,,,,,,,,,,,,,,,,,,,,,,,,,,,,,,,,,,,,,,,,,,,,,,,,,,,,,,,,,,,,,,,,
0,80,80,35,1,,6050edc9b0fa3d391dae2ffe,62c53950c1c9a7c5e0129e8b,2022-07-06_09h33.47.079,Colour_Asymmetry_Pilot,2022.1.3,Win32,60.26274557,62c50e9c1127f2cd403a315f,,,,,,,,,,,,,,,,,,,,,,,,,,,,,,,,,,,,,,,,,,,,,,,,,,,,,,,,,,,,,,,,,,,,,,,,,,,,,,,,,,,,,,,,,,,,,,,,,,,,,,,,,,,,,,,,,,,,,,,,,,,,,,,,,,,,,,,,,,,,,,,,,,,,,,,,,,,,,,,,,,
0,81,81,9,1,,6050edc9b0fa3d391dae2ffe,62c53950c1c9a7c5e0129e8b,2022-07-06_09h33.47.079,Colour_Asymmetry_Pilot,2022.1.3,Win32,60.26274557,62c50e9c1127f2cd403a315f,,,,,,,,,,,,,,,,,,,,,,,,,,,,,,,,,,,,,,,,,,,,,,,,,,,,,,,,,,,,,,,,,,,,,,,,,,,,,,,,,,,,,,,,,,,,,,,,,,,,,,,,,,,,,,,,,,,,,,,,,,,,,,,,,,,,,,,,,,,,,,,,,,,,,,,,,,,,,,,,,,
0,82,82,31,1,,6050edc9b0fa3d391dae2ffe,62c53950c1c9a7c5e0129e8b,2022-07-06_09h33.47.079,Colour_Asymmetry_Pilot,2022.1.3,Win32,60.26274557,62c50e9c1127f2cd403a315f,,,,,,,,,,,,,,,,,,,,,,,,,,,,,,,,,,,,,,,,,,,,,,,,,,,,,,,,,,,,,,,,,,,,,,,,,,,,,,,,,,,,,,,,,,,,,,,,,,,,,,,,,,,,,,,,,,,,,,,,,,,,,,,,,,,,,,,,,,,,,,,,,,,,,,,,,,,,,,,,,,
0,83,83,41,1,,6050edc9b0fa3d391dae2ffe,62c53950c1c9a7c5e0129e8b,2022-07-06_09h33.47.079,Colour_Asymmetry_Pilot,2022.1.3,Win32,60.26274557,62c50e9c1127f2cd403a315f,,,,,,,,,,,,,,,,,,,,,,,,,,,,,,,,,,,,,,,,,,,,,,,,,,,,,,,,,,,,,,,,,,,,,,,,,,,,,,,,,,,,,,,,,,,,,,,,,,,,,,,,,,,,,,,,,,,,,,,,,,,,,,,,,,,,,,,,,,,,,,,,,,,,,,,,,,,,,,,,,,
0,84,84,26,1,,6050edc9b0fa3d391dae2ffe,62c53950c1c9a7c5e0129e8b,2022-07-06_09h33.47.079,Colour_Asymmetry_Pilot,2022.1.3,Win32,60.26274557,62c50e9c1127f2cd403a315f,,,,,,,,,,,,,,,,,,,,,,,,,,,,,,,,,,,,,,,,,,,,,,,,,,,,,,,,,,,,,,,,,,,,,,,,,,,,,,,,,,,,,,,,,,,,,,,,,,,,,,,,,,,,,,,,,,,,,,,,,,,,,,,,,,,,,,,,,,,,,,,,,,,,,,,,,,,,,,,,,,
0,85,85,38,1,,6050edc9b0fa3d391dae2ffe,62c53950c1c9a7c5e0129e8b,2022-07-06_09h33.47.079,Colour_Asymmetry_Pilot,2022.1.3,Win32,60.26274557,62c50e9c1127f2cd403a315f,,,,,,,,,,,,,,,,,,,,,,,,,,,,,,,,,,,,,,,,,,,,,,,,,,,,,,,,,,,,,,,,,,,,,,,,,,,,,,,,,,,,,,,,,,,,,,,,,,,,,,,,,,,,,,,,,,,,,,,,,,,,,,,,,,,,,,,,,,,,,,,,,,,,,,,,,,,,,,,,,,
0,86,86,88,1,,6050edc9b0fa3d391dae2ffe,62c53950c1c9a7c5e0129e8b,2022-07-06_09h33.47.079,Colour_Asymmetry_Pilot,2022.1.3,Win32,60.26274557,62c50e9c1127f2cd403a315f,,,,,,,,,,,,,,,,,,,,,,,,,,,,,,,,,,,,,,,,,,,,,,,,,,,,,,,,,,,,,,,,,,,,,,,,,,,,,,,,,,,,,,,,,,,,,,,,,,,,,,,,,,,,,,,,,,,,,,,,,,,,,,,,,,,,,,,,,,,,,,,,,,,,,,,,,,,,,,,,,,
0,87,87,56,1,,6050edc9b0fa3d391dae2ffe,62c53950c1c9a7c5e0129e8b,2022-07-06_09h33.47.079,Colour_Asymmetry_Pilot,2022.1.3,Win32,60.26274557,62c50e9c1127f2cd403a315f,,,,,,,,,,,,,,,,,,,,,,,,,,,,,,,,,,,,,,,,,,,,,,,,,,,,,,,,,,,,,,,,,,,,,,,,,,,,,,,,,,,,,,,,,,,,,,,,,,,,,,,,,,,,,,,,,,,,,,,,,,,,,,,,,,,,,,,,,,,,,,,,,,,,,,,,,,,,,,,,,,
0,88,88,21,1,,6050edc9b0fa3d391dae2ffe,62c53950c1c9a7c5e0129e8b,2022-07-06_09h33.47.079,Colour_Asymmetry_Pilot,2022.1.3,Win32,60.26274557,62c50e9c1127f2cd403a315f,,,,,,,,,,,,,,,,,,,,,,,,,,,,,,,,,,,,,,,,,,,,,,,,,,,,,,,,,,,,,,,,,,,,,,,,,,,,,,,,,,,,,,,,,,,,,,,,,,,,,,,,,,,,,,,,,,,,,,,,,,,,,,,,,,,,,,,,,,,,,,,,,,,,,,,,,,,,,,,,,,
0,89,89,60,1,,6050edc9b0fa3d391dae2ffe,62c53950c1c9a7c5e0129e8b,2022-07-06_09h33.47.079,Colour_Asymmetry_Pilot,2022.1.3,Win32,60.26274557,62c50e9c1127f2cd403a315f,,,,,,,,,,,,,,,,,,,,,,,,,,,,,,,,,,,,,,,,,,,,,,,,,,,,,,,,,,,,,,,,,,,,,,,,,,,,,,,,,,,,,,,,,,,,,,,,,,,,,,,,,,,,,,,,,,,,,,,,,,,,,,,,,,,,,,,,,,,,,,,,,,,,,,,,,,,,,,,,,,
0,90,90,78,1,,6050edc9b0fa3d391dae2ffe,62c53950c1c9a7c5e0129e8b,2022-07-06_09h33.47.079,Colour_Asymmetry_Pilot,2022.1.3,Win32,60.26274557,62c50e9c1127f2cd403a315f,,,,,,,,,,,,,,,,,,,,,,,,,,,,,,,,,,,,,,,,,,,,,,,,,,,,,,,,,,,,,,,,,,,,,,,,,,,,,,,,,,,,,,,,,,,,,,,,,,,,,,,,,,,,,,,,,,,,,,,,,,,,,,,,,,,,,,,,,,,,,,,,,,,,,,,,,,,,,,,,,,
0,91,91,37,1,,6050edc9b0fa3d391dae2ffe,62c53950c1c9a7c5e0129e8b,2022-07-06_09h33.47.079,Colour_Asymmetry_Pilot,2022.1.3,Win32,60.26274557,62c50e9c1127f2cd403a315f,,,,,,,,,,,,,,,,,,,,,,,,,,,,,,,,,,,,,,,,,,,,,,,,,,,,,,,,,,,,,,,,,,,,,,,,,,,,,,,,,,,,,,,,,,,,,,,,,,,,,,,,,,,,,,,,,,,,,,,,,,,,,,,,,,,,,,,,,,,,,,,,,,,,,,,,,,,,,,,,,,
0,92,92,16,1,,6050edc9b0fa3d391dae2ffe,62c53950c1c9a7c5e0129e8b,2022-07-06_09h33.47.079,Colour_Asymmetry_Pilot,2022.1.3,Win32,60.26274557,62c50e9c1127f2cd403a315f,,,,,,,,,,,,,,,,,,,,,,,,,,,,,,,,,,,,,,,,,,,,,,,,,,,,,,,,,,,,,,,,,,,,,,,,,,,,,,,,,,,,,,,,,,,,,,,,,,,,,,,,,,,,,,,,,,,,,,,,,,,,,,,,,,,,,,,,,,,,,,,,,,,,,,,,,,,,,,,,,,
,,,,,,6050edc9b0fa3d391dae2ffe,62c53950c1c9a7c5e0129e8b,2022-07-06_09h33.47.079,Colour_Asymmetry_Pilot,2022.1.3,Win32,60.26274557,62c50e9c1127f2cd403a315f,0,0,0,55,1,fourthree,,,,,,,,,,,,,,,,,,,,,,,,,,,,,,,,,,,,,,,,,,,,,,,,,,,,,,,,,,,,,,,,,,,,,,,,,,,,,,,,,,,,,,,,,,,,,,,,,,,,,,,,,,,,,,,,,,,,,,,,,,,,,,,,,,,,,,,,,,,,,,,,,,,,,,,,,,,,
,,,,,,6050edc9b0fa3d391dae2ffe,62c53950c1c9a7c5e0129e8b,2022-07-06_09h33.47.079,Colour_Asymmetry_Pilot,2022.1.3,Win32,60.26274557,62c50e9c1127f2cd403a315f,0,1,1,129,1,onethree,,,,,,,,,,,,,,,,,,,,,,,,,,,,,,,,,,,,,,,,,,,,,,,,,,,,,,,,,,,,,,,,,,,,,,,,,,,,,,,,,,,,,,,,,,,,,,,,,,,,,,,,,,,,,,,,,,,,,,,,,,,,,,,,,,,,,,,,,,,,,,,,,,,,,,,,,,,,
,,,,,,6050edc9b0fa3d391dae2ffe,62c53950c1c9a7c5e0129e8b,2022-07-06_09h33.47.079,Colour_Asymmetry_Pilot,2022.1.3,Win32,60.26274557,62c50e9c1127f2cd403a315f,0,2,2,88,1,onetwo,,,,,,,,,,,,,,,,,,,,,,,,,,,,,,,,,,,,,,,,,,,,,,,,,,,,,,,,,,,,,,,,,,,,,,,,,,,,,,,,,,,,,,,,,,,,,,,,,,,,,,,,,,,,,,,,,,,,,,,,,,,,,,,,,,,,,,,,,,,,,,,,,,,,,,,,,,,,
,,,,,,6050edc9b0fa3d391dae2ffe,62c53950c1c9a7c5e0129e8b,2022-07-06_09h33.47.079,Colour_Asymmetry_Pilot,2022.1.3,Win32,60.26274557,62c50e9c1127f2cd403a315f,0,3,3,139,1,twofour,,,,,,,,,,,,,,,,,,,,,,,,,,,,,,,,,,,,,,,,,,,,,,,,,,,,,,,,,,,,,,,,,,,,,,,,,,,,,,,,,,,,,,,,,,,,,,,,,,,,,,,,,,,,,,,,,,,,,,,,,,,,,,,,,,,,,,,,,,,,,,,,,,,,,,,,,,,,
,,,,,,6050edc9b0fa3d391dae2ffe,62c53950c1c9a7c5e0129e8b,2022-07-06_09h33.47.079,Colour_Asymmetry_Pilot,2022.1.3,Win32,60.26274557,62c50e9c1127f2cd403a315f,0,4,4,63,1,fourthree,,,,,,,,,,,,,,,,,,,,,,,,,,,,,,,,,,,,,,,,,,,,,,,,,,,,,,,,,,,,,,,,,,,,,,,,,,,,,,,,,,,,,,,,,,,,,,,,,,,,,,,,,,,,,,,,,,,,,,,,,,,,,,,,,,,,,,,,,,,,,,,,,,,,,,,,,,,,
,,,,,,6050edc9b0fa3d391dae2ffe,62c53950c1c9a7c5e0129e8b,2022-07-06_09h33.47.079,Colour_Asymmetry_Pilot,2022.1.3,Win32,60.26274557,62c50e9c1127f2cd403a315f,0,5,5,132,1,threeone,,,,,,,,,,,,,,,,,,,,,,,,,,,,,,,,,,,,,,,,,,,,,,,,,,,,,,,,,,,,,,,,,,,,,,,,,,,,,,,,,,,,,,,,,,,,,,,,,,,,,,,,,,,,,,,,,,,,,,,,,,,,,,,,,,,,,,,,,,,,,,,,,,,,,,,,,,,,
,,,,,,6050edc9b0fa3d391dae2ffe,62c53950c1c9a7c5e0129e8b,2022-07-06_09h33.47.079,Colour_Asymmetry_Pilot,2022.1.3,Win32,60.26274557,62c50e9c1127f2cd403a315f,0,6,6,138,1,twoone,,,,,,,,,,,,,,,,,,,,,,,,,,,,,,,,,,,,,,,,,,,,,,,,,,,,,,,,,,,,,,,,,,,,,,,,,,,,,,,,,,,,,,,,,,,,,,,,,,,,,,,,,,,,,,,,,,,,,,,,,,,,,,,,,,,,,,,,,,,,,,,,,,,,,,,,,,,,
,,,,,,6050edc9b0fa3d391dae2ffe,62c53950c1c9a7c5e0129e8b,2022-07-06_09h33.47.079,Colour_Asymmetry_Pilot,2022.1.3,Win32,60.26274557,62c50e9c1127f2cd403a315f,0,7,7,30,1,fourtwo,,,,,,,,,,,,,,,,,,,,,,,,,,,,,,,,,,,,,,,,,,,,,,,,,,,,,,,,,,,,,,,,,,,,,,,,,,,,,,,,,,,,,,,,,,,,,,,,,,,,,,,,,,,,,,,,,,,,,,,,,,,,,,,,,,,,,,,,,,,,,,,,,,,,,,,,,,,,
,,,,,,6050edc9b0fa3d391dae2ffe,62c53950c1c9a7c5e0129e8b,2022-07-06_09h33.47.079,Colour_Asymmetry_Pilot,2022.1.3,Win32,60.26274557,62c50e9c1127f2cd403a315f,0,8,8,36,1,threeone,,,,,,,,,,,,,,,,,,,,,,,,,,,,,,,,,,,,,,,,,,,,,,,,,,,,,,,,,,,,,,,,,,,,,,,,,,,,,,,,,,,,,,,,,,,,,,,,,,,,,,,,,,,,,,,,,,,,,,,,,,,,,,,,,,,,,,,,,,,,,,,,,,,,,,,,,,,,
,,,,,,6050edc9b0fa3d391dae2ffe,62c53950c1c9a7c5e0129e8b,2022-07-06_09h33.47.079,Colour_Asymmetry_Pilot,2022.1.3,Win32,60.26274557,62c50e9c1127f2cd403a315f,0,9,9,118,1,fourtwo,,,,,,,,,,,,,,,,,,,,,,,,,,,,,,,,,,,,,,,,,,,,,,,,,,,,,,,,,,,,,,,,,,,,,,,,,,,,,,,,,,,,,,,,,,,,,,,,,,,,,,,,,,,,,,,,,,,,,,,,,,,,,,,,,,,,,,,,,,,,,,,,,,,,,,,,,,,,
,,,,,,6050edc9b0fa3d391dae2ffe,62c53950c1c9a7c5e0129e8b,2022-07-06_09h33.47.079,Colour_Asymmetry_Pilot,2022.1.3,Win32,60.26274557,62c50e9c1127f2cd403a315f,0,10,10,87,1,fourthree,,,,,,,,,,,,,,,,,,,,,,,,,,,,,,,,,,,,,,,,,,,,,,,,,,,,,,,,,,,,,,,,,,,,,,,,,,,,,,,,,,,,,,,,,,,,,,,,,,,,,,,,,,,,,,,,,,,,,,,,,,,,,,,,,,,,,,,,,,,,,,,,,,,,,,,,,,,,
,,,,,,6050edc9b0fa3d391dae2ffe,62c53950c1c9a7c5e0129e8b,2022-07-06_09h33.47.079,Colour_Asymmetry_Pilot,2022.1.3,Win32,60.26274557,62c50e9c1127f2cd403a315f,0,11,11,37,1,threefour,,,,,,,,,,,,,,,,,,,,,,,,,,,,,,,,,,,,,,,,,,,,,,,,,,,,,,,,,,,,,,,,,,,,,,,,,,,,,,,,,,,,,,,,,,,,,,,,,,,,,,,,,,,,,,,,,,,,,,,,,,,,,,,,,,,,,,,,,,,,,,,,,,,,,,,,,,,,
,,,,,,6050edc9b0fa3d391dae2ffe,62c53950c1c9a7c5e0129e8b,2022-07-06_09h33.47.079,Colour_Asymmetry_Pilot,2022.1.3,Win32,60.26274557,62c50e9c1127f2cd403a315f,0,12,12,91,1,twofour,,,,,,,,,,,,,,,,,,,,,,,,,,,,,,,,,,,,,,,,,,,,,,,,,,,,,,,,,,,,,,,,,,,,,,,,,,,,,,,,,,,,,,,,,,,,,,,,,,,,,,,,,,,,,,,,,,,,,,,,,,,,,,,,,,,,,,,,,,,,,,,,,,,,,,,,,,,,
,,,,,,6050edc9b0fa3d391dae2ffe,62c53950c1c9a7c5e0129e8b,2022-07-06_09h33.47.079,Colour_Asymmetry_Pilot,2022.1.3,Win32,60.26274557,62c50e9c1127f2cd403a315f,0,13,13,44,1,threeone,,,,,,,,,,,,,,,,,,,,,,,,,,,,,,,,,,,,,,,,,,,,,,,,,,,,,,,,,,,,,,,,,,,,,,,,,,,,,,,,,,,,,,,,,,,,,,,,,,,,,,,,,,,,,,,,,,,,,,,,,,,,,,,,,,,,,,,,,,,,,,,,,,,,,,,,,,,,
,,,,,,6050edc9b0fa3d391dae2ffe,62c53950c1c9a7c5e0129e8b,2022-07-06_09h33.47.079,Colour_Asymmetry_Pilot,2022.1.3,Win32,60.26274557,62c50e9c1127f2cd403a315f,0,14,14,78,1,fourtwo,,,,,,,,,,,,,,,,,,,,,,,,,,,,,,,,,,,,,,,,,,,,,,,,,,,,,,,,,,,,,,,,,,,,,,,,,,,,,,,,,,,,,,,,,,,,,,,,,,,,,,,,,,,,,,,,,,,,,,,,,,,,,,,,,,,,,,,,,,,,,,,,,,,,,,,,,,,,
,,,,,,6050edc9b0fa3d391dae2ffe,62c53950c1c9a7c5e0129e8b,2022-07-06_09h33.47.079,Colour_Asymmetry_Pilot,2022.1.3,Win32,60.26274557,62c50e9c1127f2cd403a315f,0,15,15,9,1,onethree,,,,,,,,,,,,,,,,,,,,,,,,,,,,,,,,,,,,,,,,,,,,,,,,,,,,,,,,,,,,,,,,,,,,,,,,,,,,,,,,,,,,,,,,,,,,,,,,,,,,,,,,,,,,,,,,,,,,,,,,,,,,,,,,,,,,,,,,,,,,,,,,,,,,,,,,,,,,
,,,,,,6050edc9b0fa3d391dae2ffe,62c53950c1c9a7c5e0129e8b,2022-07-06_09h33.47.079,Colour_Asymmetry_Pilot,2022.1.3,Win32,60.26274557,62c50e9c1127f2cd403a315f,0,16,16,86,1,fourtwo,,,,,,,,,,,,,,,,,,,,,,,,,,,,,,,,,,,,,,,,,,,,,,,,,,,,,,,,,,,,,,,,,,,,,,,,,,,,,,,,,,,,,,,,,,,,,,,,,,,,,,,,,,,,,,,,,,,,,,,,,,,,,,,,,,,,,,,,,,,,,,,,,,,,,,,,,,,,
,,,,,,6050edc9b0fa3d391dae2ffe,62c53950c1c9a7c5e0129e8b,2022-07-06_09h33.47.079,Colour_Asymmetry_Pilot,2022.1.3,Win32,60.26274557,62c50e9c1127f2cd403a315f,0,17,17,127,1,fourthree,,,,,,,,,,,,,,,,,,,,,,,,,,,,,,,,,,,,,,,,,,,,,,,,,,,,,,,,,,,,,,,,,,,,,,,,,,,,,,,,,,,,,,,,,,,,,,,,,,,,,,,,,,,,,,,,,,,,,,,,,,,,,,,,,,,,,,,,,,,,,,,,,,,,,,,,,,,,
,,,,,,6050edc9b0fa3d391dae2ffe,62c53950c1c9a7c5e0129e8b,2022-07-06_09h33.47.079,Colour_Asymmetry_Pilot,2022.1.3,Win32,60.26274557,62c50e9c1127f2cd403a315f,0,18,18,50,1,twoone,,,,,,,,,,,,,,,,,,,,,,,,,,,,,,,,,,,,,,,,,,,,,,,,,,,,,,,,,,,,,,,,,,,,,,,,,,,,,,,,,,,,,,,,,,,,,,,,,,,,,,,,,,,,,,,,,,,,,,,,,,,,,,,,,,,,,,,,,,,,,,,,,,,,,,,,,,,,
,,,,,,6050edc9b0fa3d391dae2ffe,62c53950c1c9a7c5e0129e8b,2022-07-06_09h33.47.079,Colour_Asymmetry_Pilot,2022.1.3,Win32,60.26274557,62c50e9c1127f2cd403a315f,0,19,19,122,1,twoone,,,,,,,,,,,,,,,,,,,,,,,,,,,,,,,,,,,,,,,,,,,,,,,,,,,,,,,,,,,,,,,,,,,,,,,,,,,,,,,,,,,,,,,,,,,,,,,,,,,,,,,,,,,,,,,,,,,,,,,,,,,,,,,,,,,,,,,,,,,,,,,,,,,,,,,,,,,,
,,,,,,6050edc9b0fa3d391dae2ffe,62c53950c1c9a7c5e0129e8b,2022-07-06_09h33.47.079,Colour_Asymmetry_Pilot,2022.1.3,Win32,60.26274557,62c50e9c1127f2cd403a315f,0,20,20,66,1,twoone,,,,,,,,,,,,,,,,,,,,,,,,,,,,,,,,,,,,,,,,,,,,,,,,,,,,,,,,,,,,,,,,,,,,,,,,,,,,,,,,,,,,,,,,,,,,,,,,,,,,,,,,,,,,,,,,,,,,,,,,,,,,,,,,,,,,,,,,,,,,,,,,,,,,,,,,,,,,
,,,,,,6050edc9b0fa3d391dae2ffe,62c53950c1c9a7c5e0129e8b,2022-07-06_09h33.47.079,Colour_Asymmetry_Pilot,2022.1.3,Win32,60.26274557,62c50e9c1127f2cd403a315f,0,21,21,84,1,threeone,,,,,,,,,,,,,,,,,,,,,,,,,,,,,,,,,,,,,,,,,,,,,,,,,,,,,,,,,,,,,,,,,,,,,,,,,,,,,,,,,,,,,,,,,,,,,,,,,,,,,,,,,,,,,,,,,,,,,,,,,,,,,,,,,,,,,,,,,,,,,,,,,,,,,,,,,,,,
,,,,,,6050edc9b0fa3d391dae2ffe,62c53950c1c9a7c5e0129e8b,2022-07-06_09h33.47.079,Colour_Asymmetry_Pilot,2022.1.3,Win32,60.26274557,62c50e9c1127f2cd403a315f,0,22,22,29,1,threefour,,,,,,,,,,,,,,,,,,,,,,,,,,,,,,,,,,,,,,,,,,,,,,,,,,,,,,,,,,,,,,,,,,,,,,,,,,,,,,,,,,,,,,,,,,,,,,,,,,,,,,,,,,,,,,,,,,,,,,,,,,,,,,,,,,,,,,,,,,,,,,,,,,,,,,,,,,,,
,,,,,,6050edc9b0fa3d391dae2ffe,62c53950c1c9a7c5e0129e8b,2022-07-06_09h33.47.079,Colour_Asymmetry_Pilot,2022.1.3,Win32,60.26274557,62c50e9c1127f2cd403a315f,0,23,23,114,1,twoone,,,,,,,,,,,,,,,,,,,,,,,,,,,,,,,,,,,,,,,,,,,,,,,,,,,,,,,,,,,,,,,,,,,,,,,,,,,,,,,,,,,,,,,,,,,,,,,,,,,,,,,,,,,,,,,,,,,,,,,,,,,,,,,,,,,,,,,,,,,,,,,,,,,,,,,,,,,,
,,,,,,6050edc9b0fa3d391dae2ffe,62c53950c1c9a7c5e0129e8b,2022-07-06_09h33.47.079,Colour_Asymmetry_Pilot,2022.1.3,Win32,60.26274557,62c50e9c1127f2cd403a315f,0,24,24,40,1,onetwo,,,,,,,,,,,,,,,,,,,,,,,,,,,,,,,,,,,,,,,,,,,,,,,,,,,,,,,,,,,,,,,,,,,,,,,,,,,,,,,,,,,,,,,,,,,,,,,,,,,,,,,,,,,,,,,,,,,,,,,,,,,,,,,,,,,,,,,,,,,,,,,,,,,,,,,,,,,,
,,,,,,6050edc9b0fa3d391dae2ffe,62c53950c1c9a7c5e0129e8b,2022-07-06_09h33.47.079,Colour_Asymmetry_Pilot,2022.1.3,Win32,60.26274557,62c50e9c1127f2cd403a315f,0,25,25,77,1,threefour,,,,,,,,,,,,,,,,,,,,,,,,,,,,,,,,,,,,,,,,,,,,,,,,,,,,,,,,,,,,,,,,,,,,,,,,,,,,,,,,,,,,,,,,,,,,,,,,,,,,,,,,,,,,,,,,,,,,,,,,,,,,,,,,,,,,,,,,,,,,,,,,,,,,,,,,,,,,
,,,,,,6050edc9b0fa3d391dae2ffe,62c53950c1c9a7c5e0129e8b,2022-07-06_09h33.47.079,Colour_Asymmetry_Pilot,2022.1.3,Win32,60.26274557,62c50e9c1127f2cd403a315f,0,26,26,59,1,twofour,,,,,,,,,,,,,,,,,,,,,,,,,,,,,,,,,,,,,,,,,,,,,,,,,,,,,,,,,,,,,,,,,,,,,,,,,,,,,,,,,,,,,,,,,,,,,,,,,,,,,,,,,,,,,,,,,,,,,,,,,,,,,,,,,,,,,,,,,,,,,,,,,,,,,,,,,,,,
,,,,,,6050edc9b0fa3d391dae2ffe,62c53950c1c9a7c5e0129e8b,2022-07-06_09h33.47.079,Colour_Asymmetry_Pilot,2022.1.3,Win32,60.26274557,62c50e9c1127f2cd403a315f,0,27,27,161,1,onethree,,,,,,,,,,,,,,,,,,,,,,,,,,,,,,,,,,,,,,,,,,,,,,,,,,,,,,,,,,,,,,,,,,,,,,,,,,,,,,,,,,,,,,,,,,,,,,,,,,,,,,,,,,,,,,,,,,,,,,,,,,,,,,,,,,,,,,,,,,,,,,,,,,,,,,,,,,,,
,,,,,,6050edc9b0fa3d391dae2ffe,62c53950c1c9a7c5e0129e8b,2022-07-06_09h33.47.079,Colour_Asymmetry_Pilot,2022.1.3,Win32,60.26274557,62c50e9c1127f2cd403a315f,0,28,28,157,1,threefour,,,,,,,,,,,,,,,,,,,,,,,,,,,,,,,,,,,,,,,,,,,,,,,,,,,,,,,,,,,,,,,,,,,,,,,,,,,,,,,,,,,,,,,,,,,,,,,,,,,,,,,,,,,,,,,,,,,,,,,,,,,,,,,,,,,,,,,,,,,,,,,,,,,,,,,,,,,,
,,,,,,6050edc9b0fa3d391dae2ffe,62c53950c1c9a7c5e0129e8b,2022-07-06_09h33.47.079,Colour_Asymmetry_Pilot,2022.1.3,Win32,60.26274557,62c50e9c1127f2cd403a315f,0,29,29,81,1,onethree,,,,,,,,,,,,,,,,,,,,,,,,,,,,,,,,,,,,,,,,,,,,,,,,,,,,,,,,,,,,,,,,,,,,,,,,,,,,,,,,,,,,,,,,,,,,,,,,,,,,,,,,,,,,,,,,,,,,,,,,,,,,,,,,,,,,,,,,,,,,,,,,,,,,,,,,,,,,
,,,,,,6050edc9b0fa3d391dae2ffe,62c53950c1c9a7c5e0129e8b,2022-07-06_09h33.47.079,Colour_Asymmetry_Pilot,2022.1.3,Win32,60.26274557,62c50e9c1127f2cd403a315f,0,30,30,92,1,threeone,,,,,,,,,,,,,,,,,,,,,,,,,,,,,,,,,,,,,,,,,,,,,,,,,,,,,,,,,,,,,,,,,,,,,,,,,,,,,,,,,,,,,,,,,,,,,,,,,,,,,,,,,,,,,,,,,,,,,,,,,,,,,,,,,,,,,,,,,,,,,,,,,,,,,,,,,,,,
,,,,,,6050edc9b0fa3d391dae2ffe,62c53950c1c9a7c5e0129e8b,2022-07-06_09h33.47.079,Colour_Asymmetry_Pilot,2022.1.3,Win32,60.26274557,62c50e9c1127f2cd403a315f,0,31,31,134,1,fourtwo,,,,,,,,,,,,,,,,,,,,,,,,,,,,,,,,,,,,,,,,,,,,,,,,,,,,,,,,,,,,,,,,,,,,,,,,,,,,,,,,,,,,,,,,,,,,,,,,,,,,,,,,,,,,,,,,,,,,,,,,,,,,,,,,,,,,,,,,,,,,,,,,,,,,,,,,,,,,
,,,,,,6050edc9b0fa3d391dae2ffe,62c53950c1c9a7c5e0129e8b,2022-07-06_09h33.47.079,Colour_Asymmetry_Pilot,2022.1.3,Win32,60.26274557,62c50e9c1127f2cd403a315f,0,32,32,152,1,onetwo,,,,,,,,,,,,,,,,,,,,,,,,,,,,,,,,,,,,,,,,,,,,,,,,,,,,,,,,,,,,,,,,,,,,,,,,,,,,,,,,,,,,,,,,,,,,,,,,,,,,,,,,,,,,,,,,,,,,,,,,,,,,,,,,,,,,,,,,,,,,,,,,,,,,,,,,,,,,
,,,,,,6050edc9b0fa3d391dae2ffe,62c53950c1c9a7c5e0129e8b,2022-07-06_09h33.47.079,Colour_Asymmetry_Pilot,2022.1.3,Win32,60.26274557,62c50e9c1127f2cd403a315f,0,33,33,97,1,onethree,,,,,,,,,,,,,,,,,,,,,,,,,,,,,,,,,,,,,,,,,,,,,,,,,,,,,,,,,,,,,,,,,,,,,,,,,,,,,,,,,,,,,,,,,,,,,,,,,,,,,,,,,,,,,,,,,,,,,,,,,,,,,,,,,,,,,,,,,,,,,,,,,,,,,,,,,,,,
,,,,,,6050edc9b0fa3d391dae2ffe,62c53950c1c9a7c5e0129e8b,2022-07-06_09h33.47.079,Colour_Asymmetry_Pilot,2022.1.3,Win32,60.26274557,62c50e9c1127f2cd403a315f,0,34,34,22,1,fourtwo,,,,,,,,,,,,,,,,,,,,,,,,,,,,,,,,,,,,,,,,,,,,,,,,,,,,,,,,,,,,,,,,,,,,,,,,,,,,,,,,,,,,,,,,,,,,,,,,,,,,,,,,,,,,,,,,,,,,,,,,,,,,,,,,,,,,,,,,,,,,,,,,,,,,,,,,,,,,
,,,,,,6050edc9b0fa3d391dae2ffe,62c53950c1c9a7c5e0129e8b,2022-07-06_09h33.47.079,Colour_Asymmetry_Pilot,2022.1.3,Win32,60.26274557,62c50e9c1127f2cd403a315f,0,35,35,39,1,fourthree,,,,,,,,,,,,,,,,,,,,,,,,,,,,,,,,,,,,,,,,,,,,,,,,,,,,,,,,,,,,,,,,,,,,,,,,,,,,,,,,,,,,,,,,,,,,,,,,,,,,,,,,,,,,,,,,,,,,,,,,,,,,,,,,,,,,,,,,,,,,,,,,,,,,,,,,,,,,
,,,,,,6050edc9b0fa3d391dae2ffe,62c53950c1c9a7c5e0129e8b,2022-07-06_09h33.47.079,Colour_Asymmetry_Pilot,2022.1.3,Win32,60.26274557,62c50e9c1127f2cd403a315f,0,36,36,140,1,threeone,,,,,,,,,,,,,,,,,,,,,,,,,,,,,,,,,,,,,,,,,,,,,,,,,,,,,,,,,,,,,,,,,,,,,,,,,,,,,,,,,,,,,,,,,,,,,,,,,,,,,,,,,,,,,,,,,,,,,,,,,,,,,,,,,,,,,,,,,,,,,,,,,,,,,,,,,,,,
,,,,,,6050edc9b0fa3d391dae2ffe,62c53950c1c9a7c5e0129e8b,2022-07-06_09h33.47.079,Colour_Asymmetry_Pilot,2022.1.3,Win32,60.26274557,62c50e9c1127f2cd403a315f,0,37,37,159,1,fourthree,,,,,,,,,,,,,,,,,,,,,,,,,,,,,,,,,,,,,,,,,,,,,,,,,,,,,,,,,,,,,,,,,,,,,,,,,,,,,,,,,,,,,,,,,,,,,,,,,,,,,,,,,,,,,,,,,,,,,,,,,,,,,,,,,,,,,,,,,,,,,,,,,,,,,,,,,,,,
,,,,,,6050edc9b0fa3d391dae2ffe,62c53950c1c9a7c5e0129e8b,2022-07-06_09h33.47.079,Colour_Asymmetry_Pilot,2022.1.3,Win32,60.26274557,62c50e9c1127f2cd403a315f,0,38,38,43,1,twofour,,,,,,,,,,,,,,,,,,,,,,,,,,,,,,,,,,,,,,,,,,,,,,,,,,,,,,,,,,,,,,,,,,,,,,,,,,,,,,,,,,,,,,,,,,,,,,,,,,,,,,,,,,,,,,,,,,,,,,,,,,,,,,,,,,,,,,,,,,,,,,,,,,,,,,,,,,,,
,,,,,,6050edc9b0fa3d391dae2ffe,62c53950c1c9a7c5e0129e8b,2022-07-06_09h33.47.079,Colour_Asymmetry_Pilot,2022.1.3,Win32,60.26274557,62c50e9c1127f2cd403a315f,0,39,39,106,1,twoone,,,,,,,,,,,,,,,,,,,,,,,,,,,,,,,,,,,,,,,,,,,,,,,,,,,,,,,,,,,,,,,,,,,,,,,,,,,,,,,,,,,,,,,,,,,,,,,,,,,,,,,,,,,,,,,,,,,,,,,,,,,,,,,,,,,,,,,,,,,,,,,,,,,,,,,,,,,,
,,,,,,6050edc9b0fa3d391dae2ffe,62c53950c1c9a7c5e0129e8b,2022-07-06_09h33.47.079,Colour_Asymmetry_Pilot,2022.1.3,Win32,60.26274557,62c50e9c1127f2cd403a315f,0,40,40,143,1,fourthree,,,,,,,,,,,,,,,,,,,,,,,,,,,,,,,,,,,,,,,,,,,,,,,,,,,,,,,,,,,,,,,,,,,,,,,,,,,,,,,,,,,,,,,,,,,,,,,,,,,,,,,,,,,,,,,,,,,,,,,,,,,,,,,,,,,,,,,,,,,,,,,,,,,,,,,,,,,,
,,,,,,6050edc9b0fa3d391dae2ffe,62c53950c1c9a7c5e0129e8b,2022-07-06_09h33.47.079,Colour_Asymmetry_Pilot,2022.1.3,Win32,60.26274557,62c50e9c1127f2cd403a315f,0,41,41,49,1,onethree,,,,,,,,,,,,,,,,,,,,,,,,,,,,,,,,,,,,,,,,,,,,,,,,,,,,,,,,,,,,,,,,,,,,,,,,,,,,,,,,,,,,,,,,,,,,,,,,,,,,,,,,,,,,,,,,,,,,,,,,,,,,,,,,,,,,,,,,,,,,,,,,,,,,,,,,,,,,
,,,,,,6050edc9b0fa3d391dae2ffe,62c53950c1c9a7c5e0129e8b,2022-07-06_09h33.47.079,Colour_Asymmetry_Pilot,2022.1.3,Win32,60.26274557,62c50e9c1127f2cd403a315f,0,42,42,18,1,twoone,,,,,,,,,,,,,,,,,,,,,,,,,,,,,,,,,,,,,,,,,,,,,,,,,,,,,,,,,,,,,,,,,,,,,,,,,,,,,,,,,,,,,,,,,,,,,,,,,,,,,,,,,,,,,,,,,,,,,,,,,,,,,,,,,,,,,,,,,,,,,,,,,,,,,,,,,,,,
,,,,,,6050edc9b0fa3d391dae2ffe,62c53950c1c9a7c5e0129e8b,2022-07-06_09h33.47.079,Colour_Asymmetry_Pilot,2022.1.3,Win32,60.26274557,62c50e9c1127f2cd403a315f,0,43,43,153,1,onethree,,,,,,,,,,,,,,,,,,,,,,,,,,,,,,,,,,,,,,,,,,,,,,,,,,,,,,,,,,,,,,,,,,,,,,,,,,,,,,,,,,,,,,,,,,,,,,,,,,,,,,,,,,,,,,,,,,,,,,,,,,,,,,,,,,,,,,,,,,,,,,,,,,,,,,,,,,,,
,,,,,,6050edc9b0fa3d391dae2ffe,62c53950c1c9a7c5e0129e8b,2022-07-06_09h33.47.079,Colour_Asymmetry_Pilot,2022.1.3,Win32,60.26274557,62c50e9c1127f2cd403a315f,0,44,44,119,1,fourthree,,,,,,,,,,,,,,,,,,,,,,,,,,,,,,,,,,,,,,,,,,,,,,,,,,,,,,,,,,,,,,,,,,,,,,,,,,,,,,,,,,,,,,,,,,,,,,,,,,,,,,,,,,,,,,,,,,,,,,,,,,,,,,,,,,,,,,,,,,,,,,,,,,,,,,,,,,,,
,,,,,,6050edc9b0fa3d391dae2ffe,62c53950c1c9a7c5e0129e8b,2022-07-06_09h33.47.079,Colour_Asymmetry_Pilot,2022.1.3,Win32,60.26274557,62c50e9c1127f2cd403a315f,0,45,45,144,1,onetwo,,,,,,,,,,,,,,,,,,,,,,,,,,,,,,,,,,,,,,,,,,,,,,,,,,,,,,,,,,,,,,,,,,,,,,,,,,,,,,,,,,,,,,,,,,,,,,,,,,,,,,,,,,,,,,,,,,,,,,,,,,,,,,,,,,,,,,,,,,,,,,,,,,,,,,,,,,,,
,,,,,,6050edc9b0fa3d391dae2ffe,62c53950c1c9a7c5e0129e8b,2022-07-06_09h33.47.079,Colour_Asymmetry_Pilot,2022.1.3,Win32,60.26274557,62c50e9c1127f2cd403a315f,0,46,46,15,1,fourthree,,,,,,,,,,,,,,,,,,,,,,,,,,,,,,,,,,,,,,,,,,,,,,,,,,,,,,,,,,,,,,,,,,,,,,,,,,,,,,,,,,,,,,,,,,,,,,,,,,,,,,,,,,,,,,,,,,,,,,,,,,,,,,,,,,,,,,,,,,,,,,,,,,,,,,,,,,,,
,,,,,,6050edc9b0fa3d391dae2ffe,62c53950c1c9a7c5e0129e8b,2022-07-06_09h33.47.079,Colour_Asymmetry_Pilot,2022.1.3,Win32,60.26274557,62c50e9c1127f2cd403a315f,0,47,47,26,1,twoone,,,,,,,,,,,,,,,,,,,,,,,,,,,,,,,,,,,,,,,,,,,,,,,,,,,,,,,,,,,,,,,,,,,,,,,,,,,,,,,,,,,,,,,,,,,,,,,,,,,,,,,,,,,,,,,,,,,,,,,,,,,,,,,,,,,,,,,,,,,,,,,,,,,,,,,,,,,,
,,,,,,6050edc9b0fa3d391dae2ffe,62c53950c1c9a7c5e0129e8b,2022-07-06_09h33.47.079,Colour_Asymmetry_Pilot,2022.1.3,Win32,60.26274557,62c50e9c1127f2cd403a315f,0,48,48,13,1,threefour,,,,,,,,,,,,,,,,,,,,,,,,,,,,,,,,,,,,,,,,,,,,,,,,,,,,,,,,,,,,,,,,,,,,,,,,,,,,,,,,,,,,,,,,,,,,,,,,,,,,,,,,,,,,,,,,,,,,,,,,,,,,,,,,,,,,,,,,,,,,,,,,,,,,,,,,,,,,
,,,,,,6050edc9b0fa3d391dae2ffe,62c53950c1c9a7c5e0129e8b,2022-07-06_09h33.47.079,Colour_Asymmetry_Pilot,2022.1.3,Win32,60.26274557,62c50e9c1127f2cd403a315f,0,49,49,6,1,fourtwo,,,,,,,,,,,,,,,,,,,,,,,,,,,,,,,,,,,,,,,,,,,,,,,,,,,,,,,,,,,,,,,,,,,,,,,,,,,,,,,,,,,,,,,,,,,,,,,,,,,,,,,,,,,,,,,,,,,,,,,,,,,,,,,,,,,,,,,,,,,,,,,,,,,,,,,,,,,,
,,,,,,6050edc9b0fa3d391dae2ffe,62c53950c1c9a7c5e0129e8b,2022-07-06_09h33.47.079,Colour_Asymmetry_Pilot,2022.1.3,Win32,60.26274557,62c50e9c1127f2cd403a315f,0,50,50,42,1,twoone,,,,,,,,,,,,,,,,,,,,,,,,,,,,,,,,,,,,,,,,,,,,,,,,,,,,,,,,,,,,,,,,,,,,,,,,,,,,,,,,,,,,,,,,,,,,,,,,,,,,,,,,,,,,,,,,,,,,,,,,,,,,,,,,,,,,,,,,,,,,,,,,,,,,,,,,,,,,
,,,,,,6050edc9b0fa3d391dae2ffe,62c53950c1c9a7c5e0129e8b,2022-07-06_09h33.47.079,Colour_Asymmetry_Pilot,2022.1.3,Win32,60.26274557,62c50e9c1127f2cd403a315f,0,51,51,68,1,threeone,,,,,,,,,,,,,,,,,,,,,,,,,,,,,,,,,,,,,,,,,,,,,,,,,,,,,,,,,,,,,,,,,,,,,,,,,,,,,,,,,,,,,,,,,,,,,,,,,,,,,,,,,,,,,,,,,,,,,,,,,,,,,,,,,,,,,,,,,,,,,,,,,,,,,,,,,,,,
,,,,,,6050edc9b0fa3d391dae2ffe,62c53950c1c9a7c5e0129e8b,2022-07-06_09h33.47.079,Colour_Asymmetry_Pilot,2022.1.3,Win32,60.26274557,62c50e9c1127f2cd403a315f,0,52,52,135,1,fourthree,,,,,,,,,,,,,,,,,,,,,,,,,,,,,,,,,,,,,,,,,,,,,,,,,,,,,,,,,,,,,,,,,,,,,,,,,,,,,,,,,,,,,,,,,,,,,,,,,,,,,,,,,,,,,,,,,,,,,,,,,,,,,,,,,,,,,,,,,,,,,,,,,,,,,,,,,,,,
,,,,,,6050edc9b0fa3d391dae2ffe,62c53950c1c9a7c5e0129e8b,2022-07-06_09h33.47.079,Colour_Asymmetry_Pilot,2022.1.3,Win32,60.26274557,62c50e9c1127f2cd403a315f,0,53,53,34,1,twoone,,,,,,,,,,,,,,,,,,,,,,,,,,,,,,,,,,,,,,,,,,,,,,,,,,,,,,,,,,,,,,,,,,,,,,,,,,,,,,,,,,,,,,,,,,,,,,,,,,,,,,,,,,,,,,,,,,,,,,,,,,,,,,,,,,,,,,,,,,,,,,,,,,,,,,,,,,,,
,,,,,,6050edc9b0fa3d391dae2ffe,62c53950c1c9a7c5e0129e8b,2022-07-06_09h33.47.079,Colour_Asymmetry_Pilot,2022.1.3,Win32,60.26274557,62c50e9c1127f2cd403a315f,0,54,54,147,1,twofour,,,,,,,,,,,,,,,,,,,,,,,,,,,,,,,,,,,,,,,,,,,,,,,,,,,,,,,,,,,,,,,,,,,,,,,,,,,,,,,,,,,,,,,,,,,,,,,,,,,,,,,,,,,,,,,,,,,,,,,,,,,,,,,,,,,,,,,,,,,,,,,,,,,,,,,,,,,,
,,,,,,6050edc9b0fa3d391dae2ffe,62c53950c1c9a7c5e0129e8b,2022-07-06_09h33.47.079,Colour_Asymmetry_Pilot,2022.1.3,Win32,60.26274557,62c50e9c1127f2cd403a315f,0,55,55,1,1,onethree,,,,,,,,,,,,,,,,,,,,,,,,,,,,,,,,,,,,,,,,,,,,,,,,,,,,,,,,,,,,,,,,,,,,,,,,,,,,,,,,,,,,,,,,,,,,,,,,,,,,,,,,,,,,,,,,,,,,,,,,,,,,,,,,,,,,,,,,,,,,,,,,,,,,,,,,,,,,
,,,,,,6050edc9b0fa3d391dae2ffe,62c53950c1c9a7c5e0129e8b,2022-07-06_09h33.47.079,Colour_Asymmetry_Pilot,2022.1.3,Win32,60.26274557,62c50e9c1127f2cd403a315f,0,56,56,158,1,fourtwo,,,,,,,,,,,,,,,,,,,,,,,,,,,,,,,,,,,,,,,,,,,,,,,,,,,,,,,,,,,,,,,,,,,,,,,,,,,,,,,,,,,,,,,,,,,,,,,,,,,,,,,,,,,,,,,,,,,,,,,,,,,,,,,,,,,,,,,,,,,,,,,,,,,,,,,,,,,,
,,,,,,6050edc9b0fa3d391dae2ffe,62c53950c1c9a7c5e0129e8b,2022-07-06_09h33.47.079,Colour_Asymmetry_Pilot,2022.1.3,Win32,60.26274557,62c50e9c1127f2cd403a315f,0,57,57,52,1,threeone,,,,,,,,,,,,,,,,,,,,,,,,,,,,,,,,,,,,,,,,,,,,,,,,,,,,,,,,,,,,,,,,,,,,,,,,,,,,,,,,,,,,,,,,,,,,,,,,,,,,,,,,,,,,,,,,,,,,,,,,,,,,,,,,,,,,,,,,,,,,,,,,,,,,,,,,,,,,
,,,,,,6050edc9b0fa3d391dae2ffe,62c53950c1c9a7c5e0129e8b,2022-07-06_09h33.47.079,Colour_Asymmetry_Pilot,2022.1.3,Win32,60.26274557,62c50e9c1127f2cd403a315f,0,58,58,33,1,onethree,,,,,,,,,,,,,,,,,,,,,,,,,,,,,,,,,,,,,,,,,,,,,,,,,,,,,,,,,,,,,,,,,,,,,,,,,,,,,,,,,,,,,,,,,,,,,,,,,,,,,,,,,,,,,,,,,,,,,,,,,,,,,,,,,,,,,,,,,,,,,,,,,,,,,,,,,,,,
,,,,,,6050edc9b0fa3d391dae2ffe,62c53950c1c9a7c5e0129e8b,2022-07-06_09h33.47.079,Colour_Asymmetry_Pilot,2022.1.3,Win32,60.26274557,62c50e9c1127f2cd403a315f,0,59,59,61,1,threefour,,,,,,,,,,,,,,,,,,,,,,,,,,,,,,,,,,,,,,,,,,,,,,,,,,,,,,,,,,,,,,,,,,,,,,,,,,,,,,,,,,,,,,,,,,,,,,,,,,,,,,,,,,,,,,,,,,,,,,,,,,,,,,,,,,,,,,,,,,,,,,,,,,,,,,,,,,,,
,,,,,,6050edc9b0fa3d391dae2ffe,62c53950c1c9a7c5e0129e8b,2022-07-06_09h33.47.079,Colour_Asymmetry_Pilot,2022.1.3,Win32,60.26274557,62c50e9c1127f2cd403a315f,0,60,60,27,1,twofour,,,,,,,,,,,,,,,,,,,,,,,,,,,,,,,,,,,,,,,,,,,,,,,,,,,,,,,,,,,,,,,,,,,,,,,,,,,,,,,,,,,,,,,,,,,,,,,,,,,,,,,,,,,,,,,,,,,,,,,,,,,,,,,,,,,,,,,,,,,,,,,,,,,,,,,,,,,,
,,,,,,6050edc9b0fa3d391dae2ffe,62c53950c1c9a7c5e0129e8b,2022-07-06_09h33.47.079,Colour_Asymmetry_Pilot,2022.1.3,Win32,60.26274557,62c50e9c1127f2cd403a315f,0,61,61,4,1,threeone,,,,,,,,,,,,,,,,,,,,,,,,,,,,,,,,,,,,,,,,,,,,,,,,,,,,,,,,,,,,,,,,,,,,,,,,,,,,,,,,,,,,,,,,,,,,,,,,,,,,,,,,,,,,,,,,,,,,,,,,,,,,,,,,,,,,,,,,,,,,,,,,,,,,,,,,,,,,
,,,,,,6050edc9b0fa3d391dae2ffe,62c53950c1c9a7c5e0129e8b,2022-07-06_09h33.47.079,Colour_Asymmetry_Pilot,2022.1.3,Win32,60.26274557,62c50e9c1127f2cd403a315f,0,62,62,100,1,threeone,,,,,,,,,,,,,,,,,,,,,,,,,,,,,,,,,,,,,,,,,,,,,,,,,,,,,,,,,,,,,,,,,,,,,,,,,,,,,,,,,,,,,,,,,,,,,,,,,,,,,,,,,,,,,,,,,,,,,,,,,,,,,,,,,,,,,,,,,,,,,,,,,,,,,,,,,,,,
,,,,,,6050edc9b0fa3d391dae2ffe,62c53950c1c9a7c5e0129e8b,2022-07-06_09h33.47.079,Colour_Asymmetry_Pilot,2022.1.3,Win32,60.26274557,62c50e9c1127f2cd403a315f,0,63,63,113,1,onethree,,,,,,,,,,,,,,,,,,,,,,,,,,,,,,,,,,,,,,,,,,,,,,,,,,,,,,,,,,,,,,,,,,,,,,,,,,,,,,,,,,,,,,,,,,,,,,,,,,,,,,,,,,,,,,,,,,,,,,,,,,,,,,,,,,,,,,,,,,,,,,,,,,,,,,,,,,,,
,,,,,,6050edc9b0fa3d391dae2ffe,62c53950c1c9a7c5e0129e8b,2022-07-06_09h33.47.079,Colour_Asymmetry_Pilot,2022.1.3,Win32,60.26274557,62c50e9c1127f2cd403a315f,0,64,64,19,1,twofour,,,,,,,,,,,,,,,,,,,,,,,,,,,,,,,,,,,,,,,,,,,,,,,,,,,,,,,,,,,,,,,,,,,,,,,,,,,,,,,,,,,,,,,,,,,,,,,,,,,,,,,,,,,,,,,,,,,,,,,,,,,,,,,,,,,,,,,,,,,,,,,,,,,,,,,,,,,,
,,,,,,6050edc9b0fa3d391dae2ffe,62c53950c1c9a7c5e0129e8b,2022-07-06_09h33.47.079,Colour_Asymmetry_Pilot,2022.1.3,Win32,60.26274557,62c50e9c1127f2cd403a315f,0,65,65,151,1,fourthree,,,,,,,,,,,,,,,,,,,,,,,,,,,,,,,,,,,,,,,,,,,,,,,,,,,,,,,,,,,,,,,,,,,,,,,,,,,,,,,,,,,,,,,,,,,,,,,,,,,,,,,,,,,,,,,,,,,,,,,,,,,,,,,,,,,,,,,,,,,,,,,,,,,,,,,,,,,,
,,,,,,6050edc9b0fa3d391dae2ffe,62c53950c1c9a7c5e0129e8b,2022-07-06_09h33.47.079,Colour_Asymmetry_Pilot,2022.1.3,Win32,60.26274557,62c50e9c1127f2cd403a315f,0,66,66,125,1,threefour,,,,,,,,,,,,,,,,,,,,,,,,,,,,,,,,,,,,,,,,,,,,,,,,,,,,,,,,,,,,,,,,,,,,,,,,,,,,,,,,,,,,,,,,,,,,,,,,,,,,,,,,,,,,,,,,,,,,,,,,,,,,,,,,,,,,,,,,,,,,,,,,,,,,,,,,,,,,
,,,,,,6050edc9b0fa3d391dae2ffe,62c53950c1c9a7c5e0129e8b,2022-07-06_09h33.47.079,Colour_Asymmetry_Pilot,2022.1.3,Win32,60.26274557,62c50e9c1127f2cd403a315f,0,67,67,111,1,fourthree,,,,,,,,,,,,,,,,,,,,,,,,,,,,,,,,,,,,,,,,,,,,,,,,,,,,,,,,,,,,,,,,,,,,,,,,,,,,,,,,,,,,,,,,,,,,,,,,,,,,,,,,,,,,,,,,,,,,,,,,,,,,,,,,,,,,,,,,,,,,,,,,,,,,,,,,,,,,
,,,,,,6050edc9b0fa3d391dae2ffe,62c53950c1c9a7c5e0129e8b,2022-07-06_09h33.47.079,Colour_Asymmetry_Pilot,2022.1.3,Win32,60.26274557,62c50e9c1127f2cd403a315f,0,68,68,112,1,onetwo,,,,,,,,,,,,,,,,,,,,,,,,,,,,,,,,,,,,,,,,,,,,,,,,,,,,,,,,,,,,,,,,,,,,,,,,,,,,,,,,,,,,,,,,,,,,,,,,,,,,,,,,,,,,,,,,,,,,,,,,,,,,,,,,,,,,,,,,,,,,,,,,,,,,,,,,,,,,
,,,,,,6050edc9b0fa3d391dae2ffe,62c53950c1c9a7c5e0129e8b,2022-07-06_09h33.47.079,Colour_Asymmetry_Pilot,2022.1.3,Win32,60.26274557,62c50e9c1127f2cd403a315f,0,69,69,82,1,twoone,,,,,,,,,,,,,,,,,,,,,,,,,,,,,,,,,,,,,,,,,,,,,,,,,,,,,,,,,,,,,,,,,,,,,,,,,,,,,,,,,,,,,,,,,,,,,,,,,,,,,,,,,,,,,,,,,,,,,,,,,,,,,,,,,,,,,,,,,,,,,,,,,,,,,,,,,,,,
,,,,,,6050edc9b0fa3d391dae2ffe,62c53950c1c9a7c5e0129e8b,2022-07-06_09h33.47.079,Colour_Asymmetry_Pilot,2022.1.3,Win32,60.26274557,62c50e9c1127f2cd403a315f,0,70,70,101,1,threefour,,,,,,,,,,,,,,,,,,,,,,,,,,,,,,,,,,,,,,,,,,,,,,,,,,,,,,,,,,,,,,,,,,,,,,,,,,,,,,,,,,,,,,,,,,,,,,,,,,,,,,,,,,,,,,,,,,,,,,,,,,,,,,,,,,,,,,,,,,,,,,,,,,,,,,,,,,,,
,,,,,,6050edc9b0fa3d391dae2ffe,62c53950c1c9a7c5e0129e8b,2022-07-06_09h33.47.079,Colour_Asymmetry_Pilot,2022.1.3,Win32,60.26274557,62c50e9c1127f2cd403a315f,0,71,71,41,1,onethree,,,,,,,,,,,,,,,,,,,,,,,,,,,,,,,,,,,,,,,,,,,,,,,,,,,,,,,,,,,,,,,,,,,,,,,,,,,,,,,,,,,,,,,,,,,,,,,,,,,,,,,,,,,,,,,,,,,,,,,,,,,,,,,,,,,,,,,,,,,,,,,,,,,,,,,,,,,,
,,,,,,6050edc9b0fa3d391dae2ffe,62c53950c1c9a7c5e0129e8b,2022-07-06_09h33.47.079,Colour_Asymmetry_Pilot,2022.1.3,Win32,60.26274557,62c50e9c1127f2cd403a315f,0,72,72,107,1,twofour,,,,,,,,,,,,,,,,,,,,,,,,,,,,,,,,,,,,,,,,,,,,,,,,,,,,,,,,,,,,,,,,,,,,,,,,,,,,,,,,,,,,,,,,,,,,,,,,,,,,,,,,,,,,,,,,,,,,,,,,,,,,,,,,,,,,,,,,,,,,,,,,,,,,,,,,,,,,
,,,,,,6050edc9b0fa3d391dae2ffe,62c53950c1c9a7c5e0129e8b,2022-07-06_09h33.47.079,Colour_Asymmetry_Pilot,2022.1.3,Win32,60.26274557,62c50e9c1127f2cd403a315f,0,73,73,115,1,twofour,,,,,,,,,,,,,,,,,,,,,,,,,,,,,,,,,,,,,,,,,,,,,,,,,,,,,,,,,,,,,,,,,,,,,,,,,,,,,,,,,,,,,,,,,,,,,,,,,,,,,,,,,,,,,,,,,,,,,,,,,,,,,,,,,,,,,,,,,,,,,,,,,,,,,,,,,,,,
,,,,,,6050edc9b0fa3d391dae2ffe,62c53950c1c9a7c5e0129e8b,2022-07-06_09h33.47.079,Colour_Asymmetry_Pilot,2022.1.3,Win32,60.26274557,62c50e9c1127f2cd403a315f,0,74,74,75,1,twofour,,,,,,,,,,,,,,,,,,,,,,,,,,,,,,,,,,,,,,,,,,,,,,,,,,,,,,,,,,,,,,,,,,,,,,,,,,,,,,,,,,,,,,,,,,,,,,,,,,,,,,,,,,,,,,,,,,,,,,,,,,,,,,,,,,,,,,,,,,,,,,,,,,,,,,,,,,,,
,,,,,,6050edc9b0fa3d391dae2ffe,62c53950c1c9a7c5e0129e8b,2022-07-06_09h33.47.079,Colour_Asymmetry_Pilot,2022.1.3,Win32,60.26274557,62c50e9c1127f2cd403a315f,0,75,75,102,1,fourtwo,,,,,,,,,,,,,,,,,,,,,,,,,,,,,,,,,,,,,,,,,,,,,,,,,,,,,,,,,,,,,,,,,,,,,,,,,,,,,,,,,,,,,,,,,,,,,,,,,,,,,,,,,,,,,,,,,,,,,,,,,,,,,,,,,,,,,,,,,,,,,,,,,,,,,,,,,,,,
,,,,,,6050edc9b0fa3d391dae2ffe,62c53950c1c9a7c5e0129e8b,2022-07-06_09h33.47.079,Colour_Asymmetry_Pilot,2022.1.3,Win32,60.26274557,62c50e9c1127f2cd403a315f,0,76,76,2,1,twoone,,,,,,,,,,,,,,,,,,,,,,,,,,,,,,,,,,,,,,,,,,,,,,,,,,,,,,,,,,,,,,,,,,,,,,,,,,,,,,,,,,,,,,,,,,,,,,,,,,,,,,,,,,,,,,,,,,,,,,,,,,,,,,,,,,,,,,,,,,,,,,,,,,,,,,,,,,,,
,,,,,,6050edc9b0fa3d391dae2ffe,62c53950c1c9a7c5e0129e8b,2022-07-06_09h33.47.079,Colour_Asymmetry_Pilot,2022.1.3,Win32,60.26274557,62c50e9c1127f2cd403a315f,0,77,77,80,1,onetwo,,,,,,,,,,,,,,,,,,,,,,,,,,,,,,,,,,,,,,,,,,,,,,,,,,,,,,,,,,,,,,,,,,,,,,,,,,,,,,,,,,,,,,,,,,,,,,,,,,,,,,,,,,,,,,,,,,,,,,,,,,,,,,,,,,,,,,,,,,,,,,,,,,,,,,,,,,,,
,,,,,,6050edc9b0fa3d391dae2ffe,62c53950c1c9a7c5e0129e8b,2022-07-06_09h33.47.079,Colour_Asymmetry_Pilot,2022.1.3,Win32,60.26274557,62c50e9c1127f2cd403a315f,0,78,78,120,1,onetwo,,,,,,,,,,,,,,,,,,,,,,,,,,,,,,,,,,,,,,,,,,,,,,,,,,,,,,,,,,,,,,,,,,,,,,,,,,,,,,,,,,,,,,,,,,,,,,,,,,,,,,,,,,,,,,,,,,,,,,,,,,,,,,,,,,,,,,,,,,,,,,,,,,,,,,,,,,,,
,,,,,,6050edc9b0fa3d391dae2ffe,62c53950c1c9a7c5e0129e8b,2022-07-06_09h33.47.079,Colour_Asymmetry_Pilot,2022.1.3,Win32,60.26274557,62c50e9c1127f2cd403a315f,0,79,79,31,1,fourthree,,,,,,,,,,,,,,,,,,,,,,,,,,,,,,,,,,,,,,,,,,,,,,,,,,,,,,,,,,,,,,,,,,,,,,,,,,,,,,,,,,,,,,,,,,,,,,,,,,,,,,,,,,,,,,,,,,,,,,,,,,,,,,,,,,,,,,,,,,,,,,,,,,,,,,,,,,,,
,,,,,,6050edc9b0fa3d391dae2ffe,62c53950c1c9a7c5e0129e8b,2022-07-06_09h33.47.079,Colour_Asymmetry_Pilot,2022.1.3,Win32,60.26274557,62c50e9c1127f2cd403a315f,0,80,80,93,1,threefour,,,,,,,,,,,,,,,,,,,,,,,,,,,,,,,,,,,,,,,,,,,,,,,,,,,,,,,,,,,,,,,,,,,,,,,,,,,,,,,,,,,,,,,,,,,,,,,,,,,,,,,,,,,,,,,,,,,,,,,,,,,,,,,,,,,,,,,,,,,,,,,,,,,,,,,,,,,,
,,,,,,6050edc9b0fa3d391dae2ffe,62c53950c1c9a7c5e0129e8b,2022-07-06_09h33.47.079,Colour_Asymmetry_Pilot,2022.1.3,Win32,60.26274557,62c50e9c1127f2cd403a315f,0,81,81,69,1,threefour,,,,,,,,,,,,,,,,,,,,,,,,,,,,,,,,,,,,,,,,,,,,,,,,,,,,,,,,,,,,,,,,,,,,,,,,,,,,,,,,,,,,,,,,,,,,,,,,,,,,,,,,,,,,,,,,,,,,,,,,,,,,,,,,,,,,,,,,,,,,,,,,,,,,,,,,,,,,
,,,,,,6050edc9b0fa3d391dae2ffe,62c53950c1c9a7c5e0129e8b,2022-07-06_09h33.47.079,Colour_Asymmetry_Pilot,2022.1.3,Win32,60.26274557,62c50e9c1127f2cd403a315f,0,82,82,146,1,twoone,,,,,,,,,,,,,,,,,,,,,,,,,,,,,,,,,,,,,,,,,,,,,,,,,,,,,,,,,,,,,,,,,,,,,,,,,,,,,,,,,,,,,,,,,,,,,,,,,,,,,,,,,,,,,,,,,,,,,,,,,,,,,,,,,,,,,,,,,,,,,,,,,,,,,,,,,,,,
,,,,,,6050edc9b0fa3d391dae2ffe,62c53950c1c9a7c5e0129e8b,2022-07-06_09h33.47.079,Colour_Asymmetry_Pilot,2022.1.3,Win32,60.26274557,62c50e9c1127f2cd403a315f,0,83,83,126,1,fourtwo,,,,,,,,,,,,,,,,,,,,,,,,,,,,,,,,,,,,,,,,,,,,,,,,,,,,,,,,,,,,,,,,,,,,,,,,,,,,,,,,,,,,,,,,,,,,,,,,,,,,,,,,,,,,,,,,,,,,,,,,,,,,,,,,,,,,,,,,,,,,,,,,,,,,,,,,,,,,
,,,,,,6050edc9b0fa3d391dae2ffe,62c53950c1c9a7c5e0129e8b,2022-07-06_09h33.47.079,Colour_Asymmetry_Pilot,2022.1.3,Win32,60.26274557,62c50e9c1127f2cd403a315f,0,84,84,133,1,threefour,,,,,,,,,,,,,,,,,,,,,,,,,,,,,,,,,,,,,,,,,,,,,,,,,,,,,,,,,,,,,,,,,,,,,,,,,,,,,,,,,,,,,,,,,,,,,,,,,,,,,,,,,,,,,,,,,,,,,,,,,,,,,,,,,,,,,,,,,,,,,,,,,,,,,,,,,,,,
,,,,,,6050edc9b0fa3d391dae2ffe,62c53950c1c9a7c5e0129e8b,2022-07-06_09h33.47.079,Colour_Asymmetry_Pilot,2022.1.3,Win32,60.26274557,62c50e9c1127f2cd403a315f,0,85,85,64,1,onetwo,,,,,,,,,,,,,,,,,,,,,,,,,,,,,,,,,,,,,,,,,,,,,,,,,,,,,,,,,,,,,,,,,,,,,,,,,,,,,,,,,,,,,,,,,,,,,,,,,,,,,,,,,,,,,,,,,,,,,,,,,,,,,,,,,,,,,,,,,,,,,,,,,,,,,,,,,,,,
,,,,,,6050edc9b0fa3d391dae2ffe,62c53950c1c9a7c5e0129e8b,2022-07-06_09h33.47.079,Colour_Asymmetry_Pilot,2022.1.3,Win32,60.26274557,62c50e9c1127f2cd403a315f,0,86,86,96,1,onetwo,,,,,,,,,,,,,,,,,,,,,,,,,,,,,,,,,,,,,,,,,,,,,,,,,,,,,,,,,,,,,,,,,,,,,,,,,,,,,,,,,,,,,,,,,,,,,,,,,,,,,,,,,,,,,,,,,,,,,,,,,,,,,,,,,,,,,,,,,,,,,,,,,,,,,,,,,,,,
,,,,,,6050edc9b0fa3d391dae2ffe,62c53950c1c9a7c5e0129e8b,2022-07-06_09h33.47.079,Colour_Asymmetry_Pilot,2022.1.3,Win32,60.26274557,62c50e9c1127f2cd403a315f,0,87,87,124,1,threeone,,,,,,,,,,,,,,,,,,,,,,,,,,,,,,,,,,,,,,,,,,,,,,,,,,,,,,,,,,,,,,,,,,,,,,,,,,,,,,,,,,,,,,,,,,,,,,,,,,,,,,,,,,,,,,,,,,,,,,,,,,,,,,,,,,,,,,,,,,,,,,,,,,,,,,,,,,,,
,,,,,,6050edc9b0fa3d391dae2ffe,62c53950c1c9a7c5e0129e8b,2022-07-06_09h33.47.079,Colour_Asymmetry_Pilot,2022.1.3,Win32,60.26274557,62c50e9c1127f2cd403a315f,0,88,88,117,1,threefour,,,,,,,,,,,,,,,,,,,,,,,,,,,,,,,,,,,,,,,,,,,,,,,,,,,,,,,,,,,,,,,,,,,,,,,,,,,,,,,,,,,,,,,,,,,,,,,,,,,,,,,,,,,,,,,,,,,,,,,,,,,,,,,,,,,,,,,,,,,,,,,,,,,,,,,,,,,,
,,,,,,6050edc9b0fa3d391dae2ffe,62c53950c1c9a7c5e0129e8b,2022-07-06_09h33.47.079,Colour_Asymmetry_Pilot,2022.1.3,Win32,60.26274557,62c50e9c1127f2cd403a315f,0,89,89,71,1,fourthree,,,,,,,,,,,,,,,,,,,,,,,,,,,,,,,,,,,,,,,,,,,,,,,,,,,,,,,,,,,,,,,,,,,,,,,,,,,,,,,,,,,,,,,,,,,,,,,,,,,,,,,,,,,,,,,,,,,,,,,,,,,,,,,,,,,,,,,,,,,,,,,,,,,,,,,,,,,,
,,,,,,6050edc9b0fa3d391dae2ffe,62c53950c1c9a7c5e0129e8b,2022-07-06_09h33.47.079,Colour_Asymmetry_Pilot,2022.1.3,Win32,60.26274557,62c50e9c1127f2cd403a315f,0,90,90,154,1,twoone,,,,,,,,,,,,,,,,,,,,,,,,,,,,,,,,,,,,,,,,,,,,,,,,,,,,,,,,,,,,,,,,,,,,,,,,,,,,,,,,,,,,,,,,,,,,,,,,,,,,,,,,,,,,,,,,,,,,,,,,,,,,,,,,,,,,,,,,,,,,,,,,,,,,,,,,,,,,
,,,,,,6050edc9b0fa3d391dae2ffe,62c53950c1c9a7c5e0129e8b,2022-07-06_09h33.47.079,Colour_Asymmetry_Pilot,2022.1.3,Win32,60.26274557,62c50e9c1127f2cd403a315f,0,91,91,131,1,twofour,,,,,,,,,,,,,,,,,,,,,,,,,,,,,,,,,,,,,,,,,,,,,,,,,,,,,,,,,,,,,,,,,,,,,,,,,,,,,,,,,,,,,,,,,,,,,,,,,,,,,,,,,,,,,,,,,,,,,,,,,,,,,,,,,,,,,,,,,,,,,,,,,,,,,,,,,,,,
,,,,,,6050edc9b0fa3d391dae2ffe,62c53950c1c9a7c5e0129e8b,2022-07-06_09h33.47.079,Colour_Asymmetry_Pilot,2022.1.3,Win32,60.26274557,62c50e9c1127f2cd403a315f,0,92,92,137,1,onethree,,,,,,,,,,,,,,,,,,,,,,,,,,,,,,,,,,,,,,,,,,,,,,,,,,,,,,,,,,,,,,,,,,,,,,,,,,,,,,,,,,,,,,,,,,,,,,,,,,,,,,,,,,,,,,,,,,,,,,,,,,,,,,,,,,,,,,,,,,,,,,,,,,,,,,,,,,,,
,,,,,,6050edc9b0fa3d391dae2ffe,62c53950c1c9a7c5e0129e8b,2022-07-06_09h33.47.079,Colour_Asymmetry_Pilot,2022.1.3,Win32,60.26274557,62c50e9c1127f2cd403a315f,0,93,93,89,1,onethree,,,,,,,,,,,,,,,,,,,,,,,,,,,,,,,,,,,,,,,,,,,,,,,,,,,,,,,,,,,,,,,,,,,,,,,,,,,,,,,,,,,,,,,,,,,,,,,,,,,,,,,,,,,,,,,,,,,,,,,,,,,,,,,,,,,,,,,,,,,,,,,,,,,,,,,,,,,,
,,,,,,6050edc9b0fa3d391dae2ffe,62c53950c1c9a7c5e0129e8b,2022-07-06_09h33.47.079,Colour_Asymmetry_Pilot,2022.1.3,Win32,60.26274557,62c50e9c1127f2cd403a315f,0,94,94,142,1,fourtwo,,,,,,,,,,,,,,,,,,,,,,,,,,,,,,,,,,,,,,,,,,,,,,,,,,,,,,,,,,,,,,,,,,,,,,,,,,,,,,,,,,,,,,,,,,,,,,,,,,,,,,,,,,,,,,,,,,,,,,,,,,,,,,,,,,,,,,,,,,,,,,,,,,,,,,,,,,,,
,,,,,,6050edc9b0fa3d391dae2ffe,62c53950c1c9a7c5e0129e8b,2022-07-06_09h33.47.079,Colour_Asymmetry_Pilot,2022.1.3,Win32,60.26274557,62c50e9c1127f2cd403a315f,0,95,95,108,1,threeone,,,,,,,,,,,,,,,,,,,,,,,,,,,,,,,,,,,,,,,,,,,,,,,,,,,,,,,,,,,,,,,,,,,,,,,,,,,,,,,,,,,,,,,,,,,,,,,,,,,,,,,,,,,,,,,,,,,,,,,,,,,,,,,,,,,,,,,,,,,,,,,,,,,,,,,,,,,,
,,,,,,6050edc9b0fa3d391dae2ffe,62c53950c1c9a7c5e0129e8b,2022-07-06_09h33.47.079,Colour_Asymmetry_Pilot,2022.1.3,Win32,60.26274557,62c50e9c1127f2cd403a315f,0,96,96,123,1,twofour,,,,,,,,,,,,,,,,,,,,,,,,,,,,,,,,,,,,,,,,,,,,,,,,,,,,,,,,,,,,,,,,,,,,,,,,,,,,,,,,,,,,,,,,,,,,,,,,,,,,,,,,,,,,,,,,,,,,,,,,,,,,,,,,,,,,,,,,,,,,,,,,,,,,,,,,,,,,
,,,,,,6050edc9b0fa3d391dae2ffe,62c53950c1c9a7c5e0129e8b,2022-07-06_09h33.47.079,Colour_Asymmetry_Pilot,2022.1.3,Win32,60.26274557,62c50e9c1127f2cd403a315f,0,97,97,130,1,twoone,,,,,,,,,,,,,,,,,,,,,,,,,,,,,,,,,,,,,,,,,,,,,,,,,,,,,,,,,,,,,,,,,,,,,,,,,,,,,,,,,,,,,,,,,,,,,,,,,,,,,,,,,,,,,,,,,,,,,,,,,,,,,,,,,,,,,,,,,,,,,,,,,,,,,,,,,,,,
,,,,,,6050edc9b0fa3d391dae2ffe,62c53950c1c9a7c5e0129e8b,2022-07-06_09h33.47.079,Colour_Asymmetry_Pilot,2022.1.3,Win32,60.26274557,62c50e9c1127f2cd403a315f,0,98,98,24,1,onetwo,,,,,,,,,,,,,,,,,,,,,,,,,,,,,,,,,,,,,,,,,,,,,,,,,,,,,,,,,,,,,,,,,,,,,,,,,,,,,,,,,,,,,,,,,,,,,,,,,,,,,,,,,,,,,,,,,,,,,,,,,,,,,,,,,,,,,,,,,,,,,,,,,,,,,,,,,,,,
,,,,,,6050edc9b0fa3d391dae2ffe,62c53950c1c9a7c5e0129e8b,2022-07-06_09h33.47.079,Colour_Asymmetry_Pilot,2022.1.3,Win32,60.26274557,62c50e9c1127f2cd403a315f,0,99,99,38,1,fourtwo,,,,,,,,,,,,,,,,,,,,,,,,,,,,,,,,,,,,,,,,,,,,,,,,,,,,,,,,,,,,,,,,,,,,,,,,,,,,,,,,,,,,,,,,,,,,,,,,,,,,,,,,,,,,,,,,,,,,,,,,,,,,,,,,,,,,,,,,,,,,,,,,,,,,,,,,,,,,
,,,,,,6050edc9b0fa3d391dae2ffe,62c53950c1c9a7c5e0129e8b,2022-07-06_09h33.47.079,Colour_Asymmetry_Pilot,2022.1.3,Win32,60.26274557,62c50e9c1127f2cd403a315f,0,100,100,104,1,onetwo,,,,,,,,,,,,,,,,,,,,,,,,,,,,,,,,,,,,,,,,,,,,,,,,,,,,,,,,,,,,,,,,,,,,,,,,,,,,,,,,,,,,,,,,,,,,,,,,,,,,,,,,,,,,,,,,,,,,,,,,,,,,,,,,,,,,,,,,,,,,,,,,,,,,,,,,,,,,
,,,,,,6050edc9b0fa3d391dae2ffe,62c53950c1c9a7c5e0129e8b,2022-07-06_09h33.47.079,Colour_Asymmetry_Pilot,2022.1.3,Win32,60.26274557,62c50e9c1127f2cd403a315f,0,101,101,156,1,threeone,,,,,,,,,,,,,,,,,,,,,,,,,,,,,,,,,,,,,,,,,,,,,,,,,,,,,,,,,,,,,,,,,,,,,,,,,,,,,,,,,,,,,,,,,,,,,,,,,,,,,,,,,,,,,,,,,,,,,,,,,,,,,,,,,,,,,,,,,,,,,,,,,,,,,,,,,,,,
,,,,,,6050edc9b0fa3d391dae2ffe,62c53950c1c9a7c5e0129e8b,2022-07-06_09h33.47.079,Colour_Asymmetry_Pilot,2022.1.3,Win32,60.26274557,62c50e9c1127f2cd403a315f,0,102,102,74,1,twoone,,,,,,,,,,,,,,,,,,,,,,,,,,,,,,,,,,,,,,,,,,,,,,,,,,,,,,,,,,,,,,,,,,,,,,,,,,,,,,,,,,,,,,,,,,,,,,,,,,,,,,,,,,,,,,,,,,,,,,,,,,,,,,,,,,,,,,,,,,,,,,,,,,,,,,,,,,,,
,,,,,,6050edc9b0fa3d391dae2ffe,62c53950c1c9a7c5e0129e8b,2022-07-06_09h33.47.079,Colour_Asymmetry_Pilot,2022.1.3,Win32,60.26274557,62c50e9c1127f2cd403a315f,0,103,103,7,1,fourthree,,,,,,,,,,,,,,,,,,,,,,,,,,,,,,,,,,,,,,,,,,,,,,,,,,,,,,,,,,,,,,,,,,,,,,,,,,,,,,,,,,,,,,,,,,,,,,,,,,,,,,,,,,,,,,,,,,,,,,,,,,,,,,,,,,,,,,,,,,,,,,,,,,,,,,,,,,,,
,,,,,,6050edc9b0fa3d391dae2ffe,62c53950c1c9a7c5e0129e8b,2022-07-06_09h33.47.079,Colour_Asymmetry_Pilot,2022.1.3,Win32,60.26274557,62c50e9c1127f2cd403a315f,0,104,104,90,1,twoone,,,,,,,,,,,,,,,,,,,,,,,,,,,,,,,,,,,,,,,,,,,,,,,,,,,,,,,,,,,,,,,,,,,,,,,,,,,,,,,,,,,,,,,,,,,,,,,,,,,,,,,,,,,,,,,,,,,,,,,,,,,,,,,,,,,,,,,,,,,,,,,,,,,,,,,,,,,,
,,,,,,6050edc9b0fa3d391dae2ffe,62c53950c1c9a7c5e0129e8b,2022-07-06_09h33.47.079,Colour_Asymmetry_Pilot,2022.1.3,Win32,60.26274557,62c50e9c1127f2cd403a315f,0,105,105,99,1,twofour,,,,,,,,,,,,,,,,,,,,,,,,,,,,,,,,,,,,,,,,,,,,,,,,,,,,,,,,,,,,,,,,,,,,,,,,,,,,,,,,,,,,,,,,,,,,,,,,,,,,,,,,,,,,,,,,,,,,,,,,,,,,,,,,,,,,,,,,,,,,,,,,,,,,,,,,,,,,
,,,,,,6050edc9b0fa3d391dae2ffe,62c53950c1c9a7c5e0129e8b,2022-07-06_09h33.47.079,Colour_Asymmetry_Pilot,2022.1.3,Win32,60.26274557,62c50e9c1127f2cd403a315f,0,106,106,3,1,twofour,,,,,,,,,,,,,,,,,,,,,,,,,,,,,,,,,,,,,,,,,,,,,,,,,,,,,,,,,,,,,,,,,,,,,,,,,,,,,,,,,,,,,,,,,,,,,,,,,,,,,,,,,,,,,,,,,,,,,,,,,,,,,,,,,,,,,,,,,,,,,,,,,,,,,,,,,,,,
,,,,,,6050edc9b0fa3d391dae2ffe,62c53950c1c9a7c5e0129e8b,2022-07-06_09h33.47.079,Colour_Asymmetry_Pilot,2022.1.3,Win32,60.26274557,62c50e9c1127f2cd403a315f,0,107,107,128,1,onetwo,,,,,,,,,,,,,,,,,,,,,,,,,,,,,,,,,,,,,,,,,,,,,,,,,,,,,,,,,,,,,,,,,,,,,,,,,,,,,,,,,,,,,,,,,,,,,,,,,,,,,,,,,,,,,,,,,,,,,,,,,,,,,,,,,,,,,,,,,,,,,,,,,,,,,,,,,,,,
,,,,,,6050edc9b0fa3d391dae2ffe,62c53950c1c9a7c5e0129e8b,2022-07-06_09h33.47.079,Colour_Asymmetry_Pilot,2022.1.3,Win32,60.26274557,62c50e9c1127f2cd403a315f,0,108,108,116,1,threeone,,,,,,,,,,,,,,,,,,,,,,,,,,,,,,,,,,,,,,,,,,,,,,,,,,,,,,,,,,,,,,,,,,,,,,,,,,,,,,,,,,,,,,,,,,,,,,,,,,,,,,,,,,,,,,,,,,,,,,,,,,,,,,,,,,,,,,,,,,,,,,,,,,,,,,,,,,,,
,,,,,,6050edc9b0fa3d391dae2ffe,62c53950c1c9a7c5e0129e8b,2022-07-06_09h33.47.079,Colour_Asymmetry_Pilot,2022.1.3,Win32,60.26274557,62c50e9c1127f2cd403a315f,0,109,109,5,1,threefour,,,,,,,,,,,,,,,,,,,,,,,,,,,,,,,,,,,,,,,,,,,,,,,,,,,,,,,,,,,,,,,,,,,,,,,,,,,,,,,,,,,,,,,,,,,,,,,,,,,,,,,,,,,,,,,,,,,,,,,,,,,,,,,,,,,,,,,,,,,,,,,,,,,,,,,,,,,,
,,,,,,6050edc9b0fa3d391dae2ffe,62c53950c1c9a7c5e0129e8b,2022-07-06_09h33.47.079,Colour_Asymmetry_Pilot,2022.1.3,Win32,60.26274557,62c50e9c1127f2cd403a315f,0,110,110,145,1,onethree,,,,,,,,,,,,,,,,,,,,,,,,,,,,,,,,,,,,,,,,,,,,,,,,,,,,,,,,,,,,,,,,,,,,,,,,,,,,,,,,,,,,,,,,,,,,,,,,,,,,,,,,,,,,,,,,,,,,,,,,,,,,,,,,,,,,,,,,,,,,,,,,,,,,,,,,,,,,
,,,,,,6050edc9b0fa3d391dae2ffe,62c53950c1c9a7c5e0129e8b,2022-07-06_09h33.47.079,Colour_Asymmetry_Pilot,2022.1.3,Win32,60.26274557,62c50e9c1127f2cd403a315f,0,111,111,76,1,threeone,,,,,,,,,,,,,,,,,,,,,,,,,,,,,,,,,,,,,,,,,,,,,,,,,,,,,,,,,,,,,,,,,,,,,,,,,,,,,,,,,,,,,,,,,,,,,,,,,,,,,,,,,,,,,,,,,,,,,,,,,,,,,,,,,,,,,,,,,,,,,,,,,,,,,,,,,,,,
,,,,,,6050edc9b0fa3d391dae2ffe,62c53950c1c9a7c5e0129e8b,2022-07-06_09h33.47.079,Colour_Asymmetry_Pilot,2022.1.3,Win32,60.26274557,62c50e9c1127f2cd403a315f,0,112,112,85,1,threefour,,,,,,,,,,,,,,,,,,,,,,,,,,,,,,,,,,,,,,,,,,,,,,,,,,,,,,,,,,,,,,,,,,,,,,,,,,,,,,,,,,,,,,,,,,,,,,,,,,,,,,,,,,,,,,,,,,,,,,,,,,,,,,,,,,,,,,,,,,,,,,,,,,,,,,,,,,,,
,,,,,,6050edc9b0fa3d391dae2ffe,62c53950c1c9a7c5e0129e8b,2022-07-06_09h33.47.079,Colour_Asymmetry_Pilot,2022.1.3,Win32,60.26274557,62c50e9c1127f2cd403a315f,0,113,113,109,1,threefour,,,,,,,,,,,,,,,,,,,,,,,,,,,,,,,,,,,,,,,,,,,,,,,,,,,,,,,,,,,,,,,,,,,,,,,,,,,,,,,,,,,,,,,,,,,,,,,,,,,,,,,,,,,,,,,,,,,,,,,,,,,,,,,,,,,,,,,,,,,,,,,,,,,,,,,,,,,,
,,,,,,6050edc9b0fa3d391dae2ffe,62c53950c1c9a7c5e0129e8b,2022-07-06_09h33.47.079,Colour_Asymmetry_Pilot,2022.1.3,Win32,60.26274557,62c50e9c1127f2cd403a315f,0,114,114,57,1,onethree,,,,,,,,,,,,,,,,,,,,,,,,,,,,,,,,,,,,,,,,,,,,,,,,,,,,,,,,,,,,,,,,,,,,,,,,,,,,,,,,,,,,,,,,,,,,,,,,,,,,,,,,,,,,,,,,,,,,,,,,,,,,,,,,,,,,,,,,,,,,,,,,,,,,,,,,,,,,
,,,,,,6050edc9b0fa3d391dae2ffe,62c53950c1c9a7c5e0129e8b,2022-07-06_09h33.47.079,Colour_Asymmetry_Pilot,2022.1.3,Win32,60.26274557,62c50e9c1127f2cd403a315f,0,115,115,14,1,fourtwo,,,,,,,,,,,,,,,,,,,,,,,,,,,,,,,,,,,,,,,,,,,,,,,,,,,,,,,,,,,,,,,,,,,,,,,,,,,,,,,,,,,,,,,,,,,,,,,,,,,,,,,,,,,,,,,,,,,,,,,,,,,,,,,,,,,,,,,,,,,,,,,,,,,,,,,,,,,,
,,,,,,6050edc9b0fa3d391dae2ffe,62c53950c1c9a7c5e0129e8b,2022-07-06_09h33.47.079,Colour_Asymmetry_Pilot,2022.1.3,Win32,60.26274557,62c50e9c1127f2cd403a315f,0,116,116,46,1,fourtwo,,,,,,,,,,,,,,,,,,,,,,,,,,,,,,,,,,,,,,,,,,,,,,,,,,,,,,,,,,,,,,,,,,,,,,,,,,,,,,,,,,,,,,,,,,,,,,,,,,,,,,,,,,,,,,,,,,,,,,,,,,,,,,,,,,,,,,,,,,,,,,,,,,,,,,,,,,,,
,,,,,,6050edc9b0fa3d391dae2ffe,62c53950c1c9a7c5e0129e8b,2022-07-06_09h33.47.079,Colour_Asymmetry_Pilot,2022.1.3,Win32,60.26274557,62c50e9c1127f2cd403a315f,0,117,117,141,1,threefour,,,,,,,,,,,,,,,,,,,,,,,,,,,,,,,,,,,,,,,,,,,,,,,,,,,,,,,,,,,,,,,,,,,,,,,,,,,,,,,,,,,,,,,,,,,,,,,,,,,,,,,,,,,,,,,,,,,,,,,,,,,,,,,,,,,,,,,,,,,,,,,,,,,,,,,,,,,,
,,,,,,6050edc9b0fa3d391dae2ffe,62c53950c1c9a7c5e0129e8b,2022-07-06_09h33.47.079,Colour_Asymmetry_Pilot,2022.1.3,Win32,60.26274557,62c50e9c1127f2cd403a315f,0,118,118,65,1,onethree,,,,,,,,,,,,,,,,,,,,,,,,,,,,,,,,,,,,,,,,,,,,,,,,,,,,,,,,,,,,,,,,,,,,,,,,,,,,,,,,,,,,,,,,,,,,,,,,,,,,,,,,,,,,,,,,,,,,,,,,,,,,,,,,,,,,,,,,,,,,,,,,,,,,,,,,,,,,
,,,,,,6050edc9b0fa3d391dae2ffe,62c53950c1c9a7c5e0129e8b,2022-07-06_09h33.47.079,Colour_Asymmetry_Pilot,2022.1.3,Win32,60.26274557,62c50e9c1127f2cd403a315f,0,119,119,8,1,onetwo,,,,,,,,,,,,,,,,,,,,,,,,,,,,,,,,,,,,,,,,,,,,,,,,,,,,,,,,,,,,,,,,,,,,,,,,,,,,,,,,,,,,,,,,,,,,,,,,,,,,,,,,,,,,,,,,,,,,,,,,,,,,,,,,,,,,,,,,,,,,,,,,,,,,,,,,,,,,
,,,,,,6050edc9b0fa3d391dae2ffe,62c53950c1c9a7c5e0129e8b,2022-07-06_09h33.47.079,Colour_Asymmetry_Pilot,2022.1.3,Win32,60.26274557,62c50e9c1127f2cd403a315f,0,120,120,150,1,fourtwo,,,,,,,,,,,,,,,,,,,,,,,,,,,,,,,,,,,,,,,,,,,,,,,,,,,,,,,,,,,,,,,,,,,,,,,,,,,,,,,,,,,,,,,,,,,,,,,,,,,,,,,,,,,,,,,,,,,,,,,,,,,,,,,,,,,,,,,,,,,,,,,,,,,,,,,,,,,,
,,,,,,6050edc9b0fa3d391dae2ffe,62c53950c1c9a7c5e0129e8b,2022-07-06_09h33.47.079,Colour_Asymmetry_Pilot,2022.1.3,Win32,60.26274557,62c50e9c1127f2cd403a315f,0,121,121,48,1,onetwo,,,,,,,,,,,,,,,,,,,,,,,,,,,,,,,,,,,,,,,,,,,,,,,,,,,,,,,,,,,,,,,,,,,,,,,,,,,,,,,,,,,,,,,,,,,,,,,,,,,,,,,,,,,,,,,,,,,,,,,,,,,,,,,,,,,,,,,,,,,,,,,,,,,,,,,,,,,,
,,,,,,6050edc9b0fa3d391dae2ffe,62c53950c1c9a7c5e0129e8b,2022-07-06_09h33.47.079,Colour_Asymmetry_Pilot,2022.1.3,Win32,60.26274557,62c50e9c1127f2cd403a315f,0,122,122,17,1,onethree,,,,,,,,,,,,,,,,,,,,,,,,,,,,,,,,,,,,,,,,,,,,,,,,,,,,,,,,,,,,,,,,,,,,,,,,,,,,,,,,,,,,,,,,,,,,,,,,,,,,,,,,,,,,,,,,,,,,,,,,,,,,,,,,,,,,,,,,,,,,,,,,,,,,,,,,,,,,
,,,,,,6050edc9b0fa3d391dae2ffe,62c53950c1c9a7c5e0129e8b,2022-07-06_09h33.47.079,Colour_Asymmetry_Pilot,2022.1.3,Win32,60.26274557,62c50e9c1127f2cd403a315f,0,123,123,45,1,threefour,,,,,,,,,,,,,,,,,,,,,,,,,,,,,,,,,,,,,,,,,,,,,,,,,,,,,,,,,,,,,,,,,,,,,,,,,,,,,,,,,,,,,,,,,,,,,,,,,,,,,,,,,,,,,,,,,,,,,,,,,,,,,,,,,,,,,,,,,,,,,,,,,,,,,,,,,,,,
,,,,,,6050edc9b0fa3d391dae2ffe,62c53950c1c9a7c5e0129e8b,2022-07-06_09h33.47.079,Colour_Asymmetry_Pilot,2022.1.3,Win32,60.26274557,62c50e9c1127f2cd403a315f,0,124,124,21,1,threefour,,,,,,,,,,,,,,,,,,,,,,,,,,,,,,,,,,,,,,,,,,,,,,,,,,,,,,,,,,,,,,,,,,,,,,,,,,,,,,,,,,,,,,,,,,,,,,,,,,,,,,,,,,,,,,,,,,,,,,,,,,,,,,,,,,,,,,,,,,,,,,,,,,,,,,,,,,,,
,,,,,,6050edc9b0fa3d391dae2ffe,62c53950c1c9a7c5e0129e8b,2022-07-06_09h33.47.079,Colour_Asymmetry_Pilot,2022.1.3,Win32,60.26274557,62c50e9c1127f2cd403a315f,0,125,125,67,1,twofour,,,,,,,,,,,,,,,,,,,,,,,,,,,,,,,,,,,,,,,,,,,,,,,,,,,,,,,,,,,,,,,,,,,,,,,,,,,,,,,,,,,,,,,,,,,,,,,,,,,,,,,,,,,,,,,,,,,,,,,,,,,,,,,,,,,,,,,,,,,,,,,,,,,,,,,,,,,,
,,,,,,6050edc9b0fa3d391dae2ffe,62c53950c1c9a7c5e0129e8b,2022-07-06_09h33.47.079,Colour_Asymmetry_Pilot,2022.1.3,Win32,60.26274557,62c50e9c1127f2cd403a315f,0,126,126,72,1,onetwo,,,,,,,,,,,,,,,,,,,,,,,,,,,,,,,,,,,,,,,,,,,,,,,,,,,,,,,,,,,,,,,,,,,,,,,,,,,,,,,,,,,,,,,,,,,,,,,,,,,,,,,,,,,,,,,,,,,,,,,,,,,,,,,,,,,,,,,,,,,,,,,,,,,,,,,,,,,,
,,,,,,6050edc9b0fa3d391dae2ffe,62c53950c1c9a7c5e0129e8b,2022-07-06_09h33.47.079,Colour_Asymmetry_Pilot,2022.1.3,Win32,60.26274557,62c50e9c1127f2cd403a315f,0,127,127,95,1,fourthree,,,,,,,,,,,,,,,,,,,,,,,,,,,,,,,,,,,,,,,,,,,,,,,,,,,,,,,,,,,,,,,,,,,,,,,,,,,,,,,,,,,,,,,,,,,,,,,,,,,,,,,,,,,,,,,,,,,,,,,,,,,,,,,,,,,,,,,,,,,,,,,,,,,,,,,,,,,,
,,,,,,6050edc9b0fa3d391dae2ffe,62c53950c1c9a7c5e0129e8b,2022-07-06_09h33.47.079,Colour_Asymmetry_Pilot,2022.1.3,Win32,60.26274557,62c50e9c1127f2cd403a315f,0,128,128,155,1,twofour,,,,,,,,,,,,,,,,,,,,,,,,,,,,,,,,,,,,,,,,,,,,,,,,,,,,,,,,,,,,,,,,,,,,,,,,,,,,,,,,,,,,,,,,,,,,,,,,,,,,,,,,,,,,,,,,,,,,,,,,,,,,,,,,,,,,,,,,,,,,,,,,,,,,,,,,,,,,
,,,,,,6050edc9b0fa3d391dae2ffe,62c53950c1c9a7c5e0129e8b,2022-07-06_09h33.47.079,Colour_Asymmetry_Pilot,2022.1.3,Win32,60.26274557,62c50e9c1127f2cd403a315f,0,129,129,62,1,fourtwo,,,,,,,,,,,,,,,,,,,,,,,,,,,,,,,,,,,,,,,,,,,,,,,,,,,,,,,,,,,,,,,,,,,,,,,,,,,,,,,,,,,,,,,,,,,,,,,,,,,,,,,,,,,,,,,,,,,,,,,,,,,,,,,,,,,,,,,,,,,,,,,,,,,,,,,,,,,,
,,,,,,6050edc9b0fa3d391dae2ffe,62c53950c1c9a7c5e0129e8b,2022-07-06_09h33.47.079,Colour_Asymmetry_Pilot,2022.1.3,Win32,60.26274557,62c50e9c1127f2cd403a315f,0,130,130,28,1,threeone,,,,,,,,,,,,,,,,,,,,,,,,,,,,,,,,,,,,,,,,,,,,,,,,,,,,,,,,,,,,,,,,,,,,,,,,,,,,,,,,,,,,,,,,,,,,,,,,,,,,,,,,,,,,,,,,,,,,,,,,,,,,,,,,,,,,,,,,,,,,,,,,,,,,,,,,,,,,
,,,,,,6050edc9b0fa3d391dae2ffe,62c53950c1c9a7c5e0129e8b,2022-07-06_09h33.47.079,Colour_Asymmetry_Pilot,2022.1.3,Win32,60.26274557,62c50e9c1127f2cd403a315f,0,131,131,60,1,threeone,,,,,,,,,,,,,,,,,,,,,,,,,,,,,,,,,,,,,,,,,,,,,,,,,,,,,,,,,,,,,,,,,,,,,,,,,,,,,,,,,,,,,,,,,,,,,,,,,,,,,,,,,,,,,,,,,,,,,,,,,,,,,,,,,,,,,,,,,,,,,,,,,,,,,,,,,,,,
,,,,,,6050edc9b0fa3d391dae2ffe,62c53950c1c9a7c5e0129e8b,2022-07-06_09h33.47.079,Colour_Asymmetry_Pilot,2022.1.3,Win32,60.26274557,62c50e9c1127f2cd403a315f,0,132,132,83,1,twofour,,,,,,,,,,,,,,,,,,,,,,,,,,,,,,,,,,,,,,,,,,,,,,,,,,,,,,,,,,,,,,,,,,,,,,,,,,,,,,,,,,,,,,,,,,,,,,,,,,,,,,,,,,,,,,,,,,,,,,,,,,,,,,,,,,,,,,,,,,,,,,,,,,,,,,,,,,,,
,,,,,,6050edc9b0fa3d391dae2ffe,62c53950c1c9a7c5e0129e8b,2022-07-06_09h33.47.079,Colour_Asymmetry_Pilot,2022.1.3,Win32,60.26274557,62c50e9c1127f2cd403a315f,0,133,133,56,1,onetwo,,,,,,,,,,,,,,,,,,,,,,,,,,,,,,,,,,,,,,,,,,,,,,,,,,,,,,,,,,,,,,,,,,,,,,,,,,,,,,,,,,,,,,,,,,,,,,,,,,,,,,,,,,,,,,,,,,,,,,,,,,,,,,,,,,,,,,,,,,,,,,,,,,,,,,,,,,,,
,,,,,,6050edc9b0fa3d391dae2ffe,62c53950c1c9a7c5e0129e8b,2022-07-06_09h33.47.079,Colour_Asymmetry_Pilot,2022.1.3,Win32,60.26274557,62c50e9c1127f2cd403a315f,0,134,134,23,1,fourthree,,,,,,,,,,,,,,,,,,,,,,,,,,,,,,,,,,,,,,,,,,,,,,,,,,,,,,,,,,,,,,,,,,,,,,,,,,,,,,,,,,,,,,,,,,,,,,,,,,,,,,,,,,,,,,,,,,,,,,,,,,,,,,,,,,,,,,,,,,,,,,,,,,,,,,,,,,,,
,,,,,,6050edc9b0fa3d391dae2ffe,62c53950c1c9a7c5e0129e8b,2022-07-06_09h33.47.079,Colour_Asymmetry_Pilot,2022.1.3,Win32,60.26274557,62c50e9c1127f2cd403a315f,0,135,135,20,1,threeone,,,,,,,,,,,,,,,,,,,,,,,,,,,,,,,,,,,,,,,,,,,,,,,,,,,,,,,,,,,,,,,,,,,,,,,,,,,,,,,,,,,,,,,,,,,,,,,,,,,,,,,,,,,,,,,,,,,,,,,,,,,,,,,,,,,,,,,,,,,,,,,,,,,,,,,,,,,,
,,,,,,6050edc9b0fa3d391dae2ffe,62c53950c1c9a7c5e0129e8b,2022-07-06_09h33.47.079,Colour_Asymmetry_Pilot,2022.1.3,Win32,60.26274557,62c50e9c1127f2cd403a315f,0,136,136,25,1,onethree,,,,,,,,,,,,,,,,,,,,,,,,,,,,,,,,,,,,,,,,,,,,,,,,,,,,,,,,,,,,,,,,,,,,,,,,,,,,,,,,,,,,,,,,,,,,,,,,,,,,,,,,,,,,,,,,,,,,,,,,,,,,,,,,,,,,,,,,,,,,,,,,,,,,,,,,,,,,
,,,,,,6050edc9b0fa3d391dae2ffe,62c53950c1c9a7c5e0129e8b,2022-07-06_09h33.47.079,Colour_Asymmetry_Pilot,2022.1.3,Win32,60.26274557,62c50e9c1127f2cd403a315f,0,137,137,11,1,twofour,,,,,,,,,,,,,,,,,,,,,,,,,,,,,,,,,,,,,,,,,,,,,,,,,,,,,,,,,,,,,,,,,,,,,,,,,,,,,,,,,,,,,,,,,,,,,,,,,,,,,,,,,,,,,,,,,,,,,,,,,,,,,,,,,,,,,,,,,,,,,,,,,,,,,,,,,,,,
,,,,,,6050edc9b0fa3d391dae2ffe,62c53950c1c9a7c5e0129e8b,2022-07-06_09h33.47.079,Colour_Asymmetry_Pilot,2022.1.3,Win32,60.26274557,62c50e9c1127f2cd403a315f,0,138,138,94,1,fourtwo,,,,,,,,,,,,,,,,,,,,,,,,,,,,,,,,,,,,,,,,,,,,,,,,,,,,,,,,,,,,,,,,,,,,,,,,,,,,,,,,,,,,,,,,,,,,,,,,,,,,,,,,,,,,,,,,,,,,,,,,,,,,,,,,,,,,,,,,,,,,,,,,,,,,,,,,,,,,
,,,,,,6050edc9b0fa3d391dae2ffe,62c53950c1c9a7c5e0129e8b,2022-07-06_09h33.47.079,Colour_Asymmetry_Pilot,2022.1.3,Win32,60.26274557,62c50e9c1127f2cd403a315f,0,139,139,58,1,twoone,,,,,,,,,,,,,,,,,,,,,,,,,,,,,,,,,,,,,,,,,,,,,,,,,,,,,,,,,,,,,,,,,,,,,,,,,,,,,,,,,,,,,,,,,,,,,,,,,,,,,,,,,,,,,,,,,,,,,,,,,,,,,,,,,,,,,,,,,,,,,,,,,,,,,,,,,,,,
,,,,,,6050edc9b0fa3d391dae2ffe,62c53950c1c9a7c5e0129e8b,2022-07-06_09h33.47.079,Colour_Asymmetry_Pilot,2022.1.3,Win32,60.26274557,62c50e9c1127f2cd403a315f,0,140,140,70,1,fourtwo,,,,,,,,,,,,,,,,,,,,,,,,,,,,,,,,,,,,,,,,,,,,,,,,,,,,,,,,,,,,,,,,,,,,,,,,,,,,,,,,,,,,,,,,,,,,,,,,,,,,,,,,,,,,,,,,,,,,,,,,,,,,,,,,,,,,,,,,,,,,,,,,,,,,,,,,,,,,
,,,,,,6050edc9b0fa3d391dae2ffe,62c53950c1c9a7c5e0129e8b,2022-07-06_09h33.47.079,Colour_Asymmetry_Pilot,2022.1.3,Win32,60.26274557,62c50e9c1127f2cd403a315f,0,141,141,73,1,onethree,,,,,,,,,,,,,,,,,,,,,,,,,,,,,,,,,,,,,,,,,,,,,,,,,,,,,,,,,,,,,,,,,,,,,,,,,,,,,,,,,,,,,,,,,,,,,,,,,,,,,,,,,,,,,,,,,,,,,,,,,,,,,,,,,,,,,,,,,,,,,,,,,,,,,,,,,,,,
,,,,,,6050edc9b0fa3d391dae2ffe,62c53950c1c9a7c5e0129e8b,2022-07-06_09h33.47.079,Colour_Asymmetry_Pilot,2022.1.3,Win32,60.26274557,62c50e9c1127f2cd403a315f,0,142,142,121,1,onethree,,,,,,,,,,,,,,,,,,,,,,,,,,,,,,,,,,,,,,,,,,,,,,,,,,,,,,,,,,,,,,,,,,,,,,,,,,,,,,,,,,,,,,,,,,,,,,,,,,,,,,,,,,,,,,,,,,,,,,,,,,,,,,,,,,,,,,,,,,,,,,,,,,,,,,,,,,,,
,,,,,,6050edc9b0fa3d391dae2ffe,62c53950c1c9a7c5e0129e8b,2022-07-06_09h33.47.079,Colour_Asymmetry_Pilot,2022.1.3,Win32,60.26274557,62c50e9c1127f2cd403a315f,0,143,143,148,1,threeone,,,,,,,,,,,,,,,,,,,,,,,,,,,,,,,,,,,,,,,,,,,,,,,,,,,,,,,,,,,,,,,,,,,,,,,,,,,,,,,,,,,,,,,,,,,,,,,,,,,,,,,,,,,,,,,,,,,,,,,,,,,,,,,,,,,,,,,,,,,,,,,,,,,,,,,,,,,,
,,,,,,6050edc9b0fa3d391dae2ffe,62c53950c1c9a7c5e0129e8b,2022-07-06_09h33.47.079,Colour_Asymmetry_Pilot,2022.1.3,Win32,60.26274557,62c50e9c1127f2cd403a315f,0,144,144,53,1,threefour,,,,,,,,,,,,,,,,,,,,,,,,,,,,,,,,,,,,,,,,,,,,,,,,,,,,,,,,,,,,,,,,,,,,,,,,,,,,,,,,,,,,,,,,,,,,,,,,,,,,,,,,,,,,,,,,,,,,,,,,,,,,,,,,,,,,,,,,,,,,,,,,,,,,,,,,,,,,
,,,,,,6050edc9b0fa3d391dae2ffe,62c53950c1c9a7c5e0129e8b,2022-07-06_09h33.47.079,Colour_Asymmetry_Pilot,2022.1.3,Win32,60.26274557,62c50e9c1127f2cd403a315f,0,145,145,51,1,twofour,,,,,,,,,,,,,,,,,,,,,,,,,,,,,,,,,,,,,,,,,,,,,,,,,,,,,,,,,,,,,,,,,,,,,,,,,,,,,,,,,,,,,,,,,,,,,,,,,,,,,,,,,,,,,,,,,,,,,,,,,,,,,,,,,,,,,,,,,,,,,,,,,,,,,,,,,,,,
,,,,,,6050edc9b0fa3d391dae2ffe,62c53950c1c9a7c5e0129e8b,2022-07-06_09h33.47.079,Colour_Asymmetry_Pilot,2022.1.3,Win32,60.26274557,62c50e9c1127f2cd403a315f,0,146,146,35,1,twofour,,,,,,,,,,,,,,,,,,,,,,,,,,,,,,,,,,,,,,,,,,,,,,,,,,,,,,,,,,,,,,,,,,,,,,,,,,,,,,,,,,,,,,,,,,,,,,,,,,,,,,,,,,,,,,,,,,,,,,,,,,,,,,,,,,,,,,,,,,,,,,,,,,,,,,,,,,,,
,,,,,,6050edc9b0fa3d391dae2ffe,62c53950c1c9a7c5e0129e8b,2022-07-06_09h33.47.079,Colour_Asymmetry_Pilot,2022.1.3,Win32,60.26274557,62c50e9c1127f2cd403a315f,0,147,147,10,1,twoone,,,,,,,,,,,,,,,,,,,,,,,,,,,,,,,,,,,,,,,,,,,,,,,,,,,,,,,,,,,,,,,,,,,,,,,,,,,,,,,,,,,,,,,,,,,,,,,,,,,,,,,,,,,,,,,,,,,,,,,,,,,,,,,,,,,,,,,,,,,,,,,,,,,,,,,,,,,,
,,,,,,6050edc9b0fa3d391dae2ffe,62c53950c1c9a7c5e0129e8b,2022-07-06_09h33.47.079,Colour_Asymmetry_Pilot,2022.1.3,Win32,60.26274557,62c50e9c1127f2cd403a315f,0,148,148,47,1,fourthree,,,,,,,,,,,,,,,,,,,,,,,,,,,,,,,,,,,,,,,,,,,,,,,,,,,,,,,,,,,,,,,,,,,,,,,,,,,,,,,,,,,,,,,,,,,,,,,,,,,,,,,,,,,,,,,,,,,,,,,,,,,,,,,,,,,,,,,,,,,,,,,,,,,,,,,,,,,,
,,,,,,6050edc9b0fa3d391dae2ffe,62c53950c1c9a7c5e0129e8b,2022-07-06_09h33.47.079,Colour_Asymmetry_Pilot,2022.1.3,Win32,60.26274557,62c50e9c1127f2cd403a315f,0,149,149,79,1,fourthree,,,,,,,,,,,,,,,,,,,,,,,,,,,,,,,,,,,,,,,,,,,,,,,,,,,,,,,,,,,,,,,,,,,,,,,,,,,,,,,,,,,,,,,,,,,,,,,,,,,,,,,,,,,,,,,,,,,,,,,,,,,,,,,,,,,,,,,,,,,,,,,,,,,,,,,,,,,,
,,,,,,6050edc9b0fa3d391dae2ffe,62c53950c1c9a7c5e0129e8b,2022-07-06_09h33.47.079,Colour_Asymmetry_Pilot,2022.1.3,Win32,60.26274557,62c50e9c1127f2cd403a315f,0,150,150,54,1,fourtwo,,,,,,,,,,,,,,,,,,,,,,,,,,,,,,,,,,,,,,,,,,,,,,,,,,,,,,,,,,,,,,,,,,,,,,,,,,,,,,,,,,,,,,,,,,,,,,,,,,,,,,,,,,,,,,,,,,,,,,,,,,,,,,,,,,,,,,,,,,,,,,,,,,,,,,,,,,,,
,,,,,,6050edc9b0fa3d391dae2ffe,62c53950c1c9a7c5e0129e8b,2022-07-06_09h33.47.079,Colour_Asymmetry_Pilot,2022.1.3,Win32,60.26274557,62c50e9c1127f2cd403a315f,0,151,151,160,1,onetwo,,,,,,,,,,,,,,,,,,,,,,,,,,,,,,,,,,,,,,,,,,,,,,,,,,,,,,,,,,,,,,,,,,,,,,,,,,,,,,,,,,,,,,,,,,,,,,,,,,,,,,,,,,,,,,,,,,,,,,,,,,,,,,,,,,,,,,,,,,,,,,,,,,,,,,,,,,,,
,,,,,,6050edc9b0fa3d391dae2ffe,62c53950c1c9a7c5e0129e8b,2022-07-06_09h33.47.079,Colour_Asymmetry_Pilot,2022.1.3,Win32,60.26274557,62c50e9c1127f2cd403a315f,0,152,152,16,1,onetwo,,,,,,,,,,,,,,,,,,,,,,,,,,,,,,,,,,,,,,,,,,,,,,,,,,,,,,,,,,,,,,,,,,,,,,,,,,,,,,,,,,,,,,,,,,,,,,,,,,,,,,,,,,,,,,,,,,,,,,,,,,,,,,,,,,,,,,,,,,,,,,,,,,,,,,,,,,,,
,,,,,,6050edc9b0fa3d391dae2ffe,62c53950c1c9a7c5e0129e8b,2022-07-06_09h33.47.079,Colour_Asymmetry_Pilot,2022.1.3,Win32,60.26274557,62c50e9c1127f2cd403a315f,0,153,153,105,1,onethree,,,,,,,,,,,,,,,,,,,,,,,,,,,,,,,,,,,,,,,,,,,,,,,,,,,,,,,,,,,,,,,,,,,,,,,,,,,,,,,,,,,,,,,,,,,,,,,,,,,,,,,,,,,,,,,,,,,,,,,,,,,,,,,,,,,,,,,,,,,,,,,,,,,,,,,,,,,,
,,,,,,6050edc9b0fa3d391dae2ffe,62c53950c1c9a7c5e0129e8b,2022-07-06_09h33.47.079,Colour_Asymmetry_Pilot,2022.1.3,Win32,60.26274557,62c50e9c1127f2cd403a315f,0,154,154,98,1,twoone,,,,,,,,,,,,,,,,,,,,,,,,,,,,,,,,,,,,,,,,,,,,,,,,,,,,,,,,,,,,,,,,,,,,,,,,,,,,,,,,,,,,,,,,,,,,,,,,,,,,,,,,,,,,,,,,,,,,,,,,,,,,,,,,,,,,,,,,,,,,,,,,,,,,,,,,,,,,
,,,,,,6050edc9b0fa3d391dae2ffe,62c53950c1c9a7c5e0129e8b,2022-07-06_09h33.47.079,Colour_Asymmetry_Pilot,2022.1.3,Win32,60.26274557,62c50e9c1127f2cd403a315f,0,155,155,0,1,onetwo,,,,,,,,,,,,,,,,,,,,,,,,,,,,,,,,,,,,,,,,,,,,,,,,,,,,,,,,,,,,,,,,,,,,,,,,,,,,,,,,,,,,,,,,,,,,,,,,,,,,,,,,,,,,,,,,,,,,,,,,,,,,,,,,,,,,,,,,,,,,,,,,,,,,,,,,,,,,
,,,,,,6050edc9b0fa3d391dae2ffe,62c53950c1c9a7c5e0129e8b,2022-07-06_09h33.47.079,Colour_Asymmetry_Pilot,2022.1.3,Win32,60.26274557,62c50e9c1127f2cd403a315f,0,156,156,149,1,threefour,,,,,,,,,,,,,,,,,,,,,,,,,,,,,,,,,,,,,,,,,,,,,,,,,,,,,,,,,,,,,,,,,,,,,,,,,,,,,,,,,,,,,,,,,,,,,,,,,,,,,,,,,,,,,,,,,,,,,,,,,,,,,,,,,,,,,,,,,,,,,,,,,,,,,,,,,,,,
,,,,,,6050edc9b0fa3d391dae2ffe,62c53950c1c9a7c5e0129e8b,2022-07-06_09h33.47.079,Colour_Asymmetry_Pilot,2022.1.3,Win32,60.26274557,62c50e9c1127f2cd403a315f,0,157,157,32,1,onetwo,,,,,,,,,,,,,,,,,,,,,,,,,,,,,,,,,,,,,,,,,,,,,,,,,,,,,,,,,,,,,,,,,,,,,,,,,,,,,,,,,,,,,,,,,,,,,,,,,,,,,,,,,,,,,,,,,,,,,,,,,,,,,,,,,,,,,,,,,,,,,,,,,,,,,,,,,,,,
,,,,,,6050edc9b0fa3d391dae2ffe,62c53950c1c9a7c5e0129e8b,2022-07-06_09h33.47.079,Colour_Asymmetry_Pilot,2022.1.3,Win32,60.26274557,62c50e9c1127f2cd403a315f,0,158,158,12,1,threeone,,,,,,,,,,,,,,,,,,,,,,,,,,,,,,,,,,,,,,,,,,,,,,,,,,,,,,,,,,,,,,,,,,,,,,,,,,,,,,,,,,,,,,,,,,,,,,,,,,,,,,,,,,,,,,,,,,,,,,,,,,,,,,,,,,,,,,,,,,,,,,,,,,,,,,,,,,,,
,,,,,,6050edc9b0fa3d391dae2ffe,62c53950c1c9a7c5e0129e8b,2022-07-06_09h33.47.079,Colour_Asymmetry_Pilot,2022.1.3,Win32,60.26274557,62c50e9c1127f2cd403a315f,0,159,159,136,1,onetwo,,,,,,,,,,,,,,,,,,,,,,,,,,,,,,,,,,,,,,,,,,,,,,,,,,,,,,,,,,,,,,,,,,,,,,,,,,,,,,,,,,,,,,,,,,,,,,,,,,,,,,,,,,,,,,,,,,,,,,,,,,,,,,,,,,,,,,,,,,,,,,,,,,,,,,,,,,,,
,,,,,,6050edc9b0fa3d391dae2ffe,62c53950c1c9a7c5e0129e8b,2022-07-06_09h33.47.079,Colour_Asymmetry_Pilot,2022.1.3,Win32,60.26274557,62c50e9c1127f2cd403a315f,0,160,160,103,1,fourthree,,,,,,,,,,,,,,,,,,,,,,,,,,,,,,,,,,,,,,,,,,,,,,,,,,,,,,,,,,,,,,,,,,,,,,,,,,,,,,,,,,,,,,,,,,,,,,,,,,,,,,,,,,,,,,,,,,,,,,,,,,,,,,,,,,,,,,,,,,,,,,,,,,,,,,,,,,,,
,,,,,,6050edc9b0fa3d391dae2ffe,62c53950c1c9a7c5e0129e8b,2022-07-06_09h33.47.079,Colour_Asymmetry_Pilot,2022.1.3,Win32,60.26274557,62c50e9c1127f2cd403a315f,0,161,161,110,1,fourtwo,,,,,,,,,,,,,,,,,,,,,,,,,,,,,,,,,,,,,,,,,,,,,,,,,,,,,,,,,,,,,,,,,,,,,,,,,,,,,,,,,,,,,,,,,,,,,,,,,,,,,,,,,,,,,,,,,,,,,,,,,,,,,,,,,,,,,,,,,,,,,,,,,,,,,,,,,,,,
,,,,,,6050edc9b0fa3d391dae2ffe,62c53950c1c9a7c5e0129e8b,2022-07-06_09h33.47.079,Colour_Asymmetry_Pilot,2022.1.3,Win32,60.26274557,62c50e9c1127f2cd403a315f,,,,,,,space,3.5046,space,5.2301,space,49.0372,space,8.1993,space,3.0319,space,3.6048,"[0.34099999999999997,0.5841999999999998,-0.9844]",fourtwo,"[0.18419999999999992,-0.4276,-0.404]",-1,7.2916,-64,-133.5,1,0,0,response5disk_5,-9,7.5,1,0,0,rectangle_8,37,96.5,1,0,0,response1disk_7,7,4,0,8.5,1,0,0,rectangle_4,0,0,0,0,1,,,,,,,,,,,,,,,,,,,,,,,,,,,,,,,,,,,,,,,,,,,,,,,,,,,,,,,,,,,,,,,,,,,,,,,,,,,,,,,,,,,,,,,,,,,,,,,,,,,,,,,,,,,,
,,,,,,6050edc9b0fa3d391dae2ffe,62c53950c1c9a7c5e0129e8b,2022-07-06_09h33.47.079,Colour_Asymmetry_Pilot,2022.1.3,Win32,60.26274557,62c50e9c1127f2cd403a315f,,,,,,,,,,,,,,,,,,,"[0.9763999999999999,0.30979999999999985,-0.6786]",threeone,"[-0.6706000000000001,-0.6157999999999999,-0.6786]",-1,1.0001,-37,-85.5,1,0,0,response5disk_5,-6,-1.5,1,0,0,rectangle_8,-6,-1.5,1,0,0,,,4,-6,-1.5,1,0,0,,1,0,1,0,1,,,,,,,,,,,,,,,,,,,,,,,,,,,,,,,,,,,,,,,,,,,,,,,,,,,,,,,,,,,,,,,,,,,,,,,,,,,,,,,,,,,,,,,,,,,,,,,,,,,,,,,,,,,,
,,,,,,6050edc9b0fa3d391dae2ffe,62c53950c1c9a7c5e0129e8b,2022-07-06_09h33.47.079,Colour_Asymmetry_Pilot,2022.1.3,Win32,60.26274557,62c50e9c1127f2cd403a315f,,,,,,,,,,,,,,,,,,,"[-0.5922000000000001,-0.7492000000000001,-0.5296000000000001]",onethree,"[-0.9766,-0.6472,0.07440000000000002]",1,6.7664,67,-108.5,1,0,0,response3disk_5,-17,12.5,1,0,0,rectangle_8,-17,12.5,1,0,0,,,4,-17,12.5,1,0,0,,2,0,2,0,1,,,,,,,,,,,,,,,,,,,,,,,,,,,,,,,,,,,,,,,,,,,,,,,,,,,,,,,,,,,,,,,,,,,,,,,,,,,,,,,,,,,,,,,,,,,,,,,,,,,,,,,,,,,,
,,,,,,6050edc9b0fa3d391dae2ffe,62c53950c1c9a7c5e0129e8b,2022-07-06_09h33.47.079,Colour_Asymmetry_Pilot,2022.1.3,Win32,60.26274557,62c50e9c1127f2cd403a315f,,,,,,,,,,,,,,,,,,,"[0.9763999999999999,0.8588,-0.05900000000000005]",fourtwo,"[-0.5922000000000001,-0.7492000000000001,-0.5296000000000001]",-2,2.4167,-85,-69.5,1,0,0,response5disk_5,-18,3.5,1,0,0,rectangle_8,-18,3.5,1,0,0,,,4,-18,3.5,1,0,0,,3,0,3,0,1,,,,,,,,,,,,,,,,,,,,,,,,,,,,,,,,,,,,,,,,,,,,,,,,,,,,,,,,,,,,,,,,,,,,,,,,,,,,,,,,,,,,,,,,,,,,,,,,,,,,,,,,,,,,
,,,,,,6050edc9b0fa3d391dae2ffe,62c53950c1c9a7c5e0129e8b,2022-07-06_09h33.47.079,Colour_Asymmetry_Pilot,2022.1.3,Win32,60.26274557,62c50e9c1127f2cd403a315f,,,,,,,,,,,,,,,,,,,"[-0.011800000000000033,-0.906,-0.45100000000000007]",threefour,"[-0.4668,-0.8746,-0.2942]",-1,5.9166,-44,-93.5,1,0,0,response5disk_5,-6,8.5,1,0,0,rectangle_8,-6,8.5,1,0,0,,,4,-6,8.5,1,0,0,,4,0,4,0,1,,,,,,,,,,,,,,,,,,,,,,,,,,,,,,,,,,,,,,,,,,,,,,,,,,,,,,,,,,,,,,,,,,,,,,,,,,,,,,,,,,,,,,,,,,,,,,,,,,,,,,,,,,,,
,,,,,,6050edc9b0fa3d391dae2ffe,62c53950c1c9a7c5e0129e8b,2022-07-06_09h33.47.079,Colour_Asymmetry_Pilot,2022.1.3,Win32,60.26274557,62c50e9c1127f2cd403a315f,,,,,,,,,,,,,,,,,,,"[0.9372,0.9450000000000001,0.8980000000000001]",fourtwo,"[0.19199999999999995,0.18419999999999992,0.5136000000000001]",1,1.2499,51,-78.5,1,0,0,response3disk_5,-14,1.5,1,0,0,rectangle_8,-14,1.5,1,0,0,,,4,-14,1.5,1,0,0,,5,0,5,0,1,,,,,,,,,,,,,,,,,,,,,,,,,,,,,,,,,,,,,,,,,,,,,,,,,,,,,,,,,,,,,,,,,,,,,,,,,,,,,,,,,,,,,,,,,,,,,,,,,,,,,,,,,,,,
,,,,,,6050edc9b0fa3d391dae2ffe,62c53950c1c9a7c5e0129e8b,2022-07-06_09h33.47.079,Colour_Asymmetry_Pilot,2022.1.3,Win32,60.26274557,62c50e9c1127f2cd403a315f,,,,,,,,,,,,,,,,,,,"[0.9372,0.20779999999999998,0.2704]",threeone,"[0.7646000000000002,0.07440000000000002,0.2704]",4,2.0999,42,105.5,1,0,0,response1disk_5,-5,-2.5,1,0,0,rectangle_8,-5,-2.5,1,0,0,,,4,-5,-2.5,1,0,0,,6,0,6,0,1,,,,,,,,,,,,,,,,,,,,,,,,,,,,,,,,,,,,,,,,,,,,,,,,,,,,,,,,,,,,,,,,,,,,,,,,,,,,,,,,,,,,,,,,,,,,,,,,,,,,,,,,,,,,
,,,,,,6050edc9b0fa3d391dae2ffe,62c53950c1c9a7c5e0129e8b,2022-07-06_09h33.47.079,Colour_Asymmetry_Pilot,2022.1.3,Win32,60.26274557,62c50e9c1127f2cd403a315f,,,,,,,,,,,,,,,,,,,,fourthree,,-4,1.4999,,,,,,,,,,,,,,,,,,,,,,,,,,,,,,,,space,3.5499,"[-0.24719999999999998,0.5213999999999999,-0.12959999999999994]","[0.9686000000000001,0.3802000000000001,0.19999999999999996]",-76,98.5,1,0,0,response7disk,-11,-6.5,1,0,0,rectangle,-11,-6.5,1,0,0,,2,0.0039,0,-11,-6.5,1,0,0,0,0,0,18,1,18,first,,,,,,,,,,,,,,,,,,,,,,,,,,,,,,,,,,,,,,,,,,,,,,,,,,,,,,,,,,,,,,,,,,,,,,,
,,,,,,6050edc9b0fa3d391dae2ffe,62c53950c1c9a7c5e0129e8b,2022-07-06_09h33.47.079,Colour_Asymmetry_Pilot,2022.1.3,Win32,60.26274557,62c50e9c1127f2cd403a315f,,,,,,,,,,,,,,,,,,,,onethree,,1,5.2497,,,,,,,,,,,,,,,,,,,,,,,,,,,,,,,,,,"[-0.34920000000000007,-0.702,-0.5216]","[0.40379999999999994,0.09000000000000008,0.44300000000000006]",54,-133.5,1,0,0,response3disk,-8,2.5,1,0,0,rectangle,-8,2.5,1,0,0,,2,0.0009,0,-8,2.5,1,0,0,0,1,1,100,1,19,second,,,,,,,,,,,,,,,,,,,,,,,,,,,,,,,,,,,,,,,,,,,,,,,,,,,,,,,,,,,,,,,,,,,,,,,
,,,,,,6050edc9b0fa3d391dae2ffe,62c53950c1c9a7c5e0129e8b,2022-07-06_09h33.47.079,Colour_Asymmetry_Pilot,2022.1.3,Win32,60.26274557,62c50e9c1127f2cd403a315f,,,,,,,,,,,,,,,,,,,,onetwo,,-4,2.8,,,,,,,,,,,,,,,,,,,,,,,,,,,,,,,,,,"[-0.6706000000000001,-0.6157999999999999,-0.6786]","[0.3568,-0.20799999999999996,-0.9844]",-60,101.5,1,0,0,response7disk,-15,-2.5,1,0,0,rectangle,-15,-2.5,1,0,0,,2,0.0001,0,-15,-2.5,1,0,0,0,2,2,33,1,33,first,,,,,,,,,,,,,,,,,,,,,,,,,,,,,,,,,,,,,,,,,,,,,,,,,,,,,,,,,,,,,,,,,,,,,,,
,,,,,,6050edc9b0fa3d391dae2ffe,62c53950c1c9a7c5e0129e8b,2022-07-06_09h33.47.079,Colour_Asymmetry_Pilot,2022.1.3,Win32,60.26274557,62c50e9c1127f2cd403a315f,,,,,,,,,,,,,,,,,,,,twofour,,-2,2.6493,,,,,,,,,,,,,,,,,,,,,,,,,,,,,,,,,,"[-0.9766,-0.34920000000000007,0.2156]","[0.23120000000000007,-0.7726,-0.34120000000000006]",-97,-59.5,1,0,0,response5disk,-8,-1.5,1,0,0,rectangle,-8,-1.5,1,0,0,,2,0.0001,0,-8,-1.5,1,0,0,0,3,3,82,1,1,second,,,,,,,,,,,,,,,,,,,,,,,,,,,,,,,,,,,,,,,,,,,,,,,,,,,,,,,,,,,,,,,,,,,,,,,
,,,,,,6050edc9b0fa3d391dae2ffe,62c53950c1c9a7c5e0129e8b,2022-07-06_09h33.47.079,Colour_Asymmetry_Pilot,2022.1.3,Win32,60.26274557,62c50e9c1127f2cd403a315f,,,,,,,,,,,,,,,,,,,,fourthree,,-4,0.6002,,,,,,,,,,,,,,,,,,,,,,,,,,,,,,,,,,"[0.40379999999999994,0.09000000000000008,0.44300000000000006]","[0.37240000000000006,-0.050999999999999934,-0.5216]",-41,102.5,1,0,0,response7disk,2,6.5,1,0,0,rectangle,2,6.5,1,0,0,,2,0.0001,0,2,6.5,1,0,0,0,4,4,47,1,47,first,,,,,,,,,,,,,,,,,,,,,,,,,,,,,,,,,,,,,,,,,,,,,,,,,,,,,,,,,,,,,,,,,,,,,,,
,,,,,,6050edc9b0fa3d391dae2ffe,62c53950c1c9a7c5e0129e8b,2022-07-06_09h33.47.079,Colour_Asymmetry_Pilot,2022.1.3,Win32,60.26274557,62c50e9c1127f2cd403a315f,,,,,,,,,,,,,,,,,,,,threeone,,-4,0.7833,,,,,,,,,,,,,,,,,,,,,,,,,,,,,,,,,,"[-0.6706000000000001,-0.6157999999999999,-0.6786]","[-0.07459999999999989,0.12139999999999995,-0.9922]",-61,90.5,1,0,0,response7disk,-10,8.5,1,0,0,rectangle,-10,8.5,1,0,0,,3,0.0005,0,-10,8.5,1,0,0,0,5,5,14,1,14,first,,,,,,,,,,,,,,,,,,,,,,,,,,,,,,,,,,,,,,,,,,,,,,,,,,,,,,,,,,,,,,,,,,,,,,,
,,,,,,6050edc9b0fa3d391dae2ffe,62c53950c1c9a7c5e0129e8b,2022-07-06_09h33.47.079,Colour_Asymmetry_Pilot,2022.1.3,Win32,60.26274557,62c50e9c1127f2cd403a315f,,,,,,,,,,,,,,,,,,,,twoone,,-4,1.0656,,,,,,,,,,,,,,,,,,,,,,,,,,,,,,,,,,"[-0.011800000000000033,-0.906,-0.45100000000000007]","[-0.4982,-0.2942,-0.0354000000000001]",-46,82.5,1,0,0,response7disk,-17,5.5,1,0,0,rectangle,-17,5.5,1,0,0,,3,0.0001,0,-17,5.5,1,0,0,0,6,6,59,1,59,first,,,,,,,,,,,,,,,,,,,,,,,,,,,,,,,,,,,,,,,,,,,,,,,,,,,,,,,,,,,,,,,,,,,,,,,
,,,,,,6050edc9b0fa3d391dae2ffe,62c53950c1c9a7c5e0129e8b,2022-07-06_09h33.47.079,Colour_Asymmetry_Pilot,2022.1.3,Win32,60.26274557,62c50e9c1127f2cd403a315f,,,,,,,,,,,,,,,,,,,,fourtwo,,-3,3.0833,,,,,,,,,,,,,,,,,,,,,,,,,,,,,,,,,,"[-0.050999999999999934,-0.6706000000000001,-0.804]","[0.9213999999999998,0.6391999999999998,-0.9922]",-107,41.5,1,0,0,response7disk,-20,-3.5,1,0,0,rectangle,-20,-3.5,1,0,0,,2,0.0007,0,-20,-3.5,1,0,0,0,7,7,68,1,68,first,,,,,,,,,,,,,,,,,,,,,,,,,,,,,,,,,,,,,,,,,,,,,,,,,,,,,,,,,,,,,,,,,,,,,,,
,,,,,,6050edc9b0fa3d391dae2ffe,62c53950c1c9a7c5e0129e8b,2022-07-06_09h33.47.079,Colour_Asymmetry_Pilot,2022.1.3,Win32,60.26274557,62c50e9c1127f2cd403a315f,,,,,,,,,,,,,,,,,,,,threeone,,-3,3.1513,,,,,,,,,,,,,,,,,,,,,,,,,,,,,,,,,,"[-0.5452,-0.608,0.2470000000000001]","[-0.4902000000000001,0.2704,-0.45899999999999996]",-102,36.5,1,0,0,response7disk,-19,-3.5,1,0,0,rectangle,-19,-3.5,1,0,0,,3,0.0005,0,-19,-3.5,1,0,0,0,8,8,32,1,32,first,,,,,,,,,,,,,,,,,,,,,,,,,,,,,,,,,,,,,,,,,,,,,,,,,,,,,,,,,,,,,,,,,,,,,,,
,,,,,,6050edc9b0fa3d391dae2ffe,62c53950c1c9a7c5e0129e8b,2022-07-06_09h33.47.079,Colour_Asymmetry_Pilot,2022.1.3,Win32,60.26274557,62c50e9c1127f2cd403a315f,,,,,,,,,,,,,,,,,,,,fourtwo,,-4,0.5325,,,,,,,,,,,,,,,,,,,,,,,,,,,,,,,,,,"[0.37240000000000006,0.4980000000000002,-0.2864]","[-0.5922000000000001,-0.7492000000000001,-0.5296000000000001]",-46,76.5,1,0,0,response7disk,1,7.5,1,0,0,rectangle,1,7.5,1,0,0,,2,0.0006,0,1,7.5,1,0,0,0,9,9,37,1,37,first,,,,,,,,,,,,,,,,,,,,,,,,,,,,,,,,,,,,,,,,,,,,,,,,,,,,,,,,,,,,,,,,,,,,,,,
,,,,,,6050edc9b0fa3d391dae2ffe,62c53950c1c9a7c5e0129e8b,2022-07-06_09h33.47.079,Colour_Asymmetry_Pilot,2022.1.3,Win32,60.26274557,62c50e9c1127f2cd403a315f,,,,,,,,,,,,,,,,,,,,fourthree,,3,1.2165,,,,,,,,,,,,,,,,,,,,,,,,,,,,,,,,,,"[-0.9138,-0.5296000000000001,-0.5529999999999999]","[-0.8118,-0.8198,-0.5452]",96,37.5,1,0,0,response1disk,-8,-2.5,1,0,0,rectangle,-8,-2.5,1,0,0,,3,0.0013,0,-8,-2.5,1,0,0,0,10,10,53,1,53,first,,,,,,,,,,,,,,,,,,,,,,,,,,,,,,,,,,,,,,,,,,,,,,,,,,,,,,,,,,,,,,,,,,,,,,,
,,,,,,6050edc9b0fa3d391dae2ffe,62c53950c1c9a7c5e0129e8b,2022-07-06_09h33.47.079,Colour_Asymmetry_Pilot,2022.1.3,Win32,60.26274557,62c50e9c1127f2cd403a315f,,,,,,,,,,,,,,,,,,,,threefour,,-4,0.851,,,,,,,,,,,,,,,,,,,,,,,,,,,,,,,,,,"[-0.6,0.16860000000000008,0.44300000000000006]","[-0.2942,-0.7648,-0.7492000000000001]",-67,103.5,1,0,0,response7disk,-9,-13.5,1,0,0,rectangle,-9,-13.5,1,0,0,,2,0.0005,0,-9,-13.5,1,0,0,0,11,11,24,1,24,first,,,,,,,,,,,,,,,,,,,,,,,,,,,,,,,,,,,,,,,,,,,,,,,,,,,,,,,,,,,,,,,,,,,,,,,
,,,,,,6050edc9b0fa3d391dae2ffe,62c53950c1c9a7c5e0129e8b,2022-07-06_09h33.47.079,Colour_Asymmetry_Pilot,2022.1.3,Win32,60.26274557,62c50e9c1127f2cd403a315f,,,,,,,,,,,,,,,,,,,,twofour,,1,5.1336,,,,,,,,,,,,,,,,,,,,,,,,,,,,,,,,,,"[0.3881999999999999,-0.23939999999999995,-0.05040000000000011]","[0.22340000000000004,-0.9296,-0.7884]",71,-101.5,1,0,0,response3disk,-15,-10.5,1,0,0,rectangle,103,-55.5,1,0,0,2,2,2.6338,1,-6,-8.5,1,0,0,0,12,12,161,1,80,second,response3disk_3,rectangle,,,,,,,,,,,,,,,,,,,,,,,,,,,,,,,,,,,,,,,,,,,,,,,,,,,,,,,,,,,,,,,,,,,,,
,,,,,,6050edc9b0fa3d391dae2ffe,62c53950c1c9a7c5e0129e8b,2022-07-06_09h33.47.079,Colour_Asymmetry_Pilot,2022.1.3,Win32,60.26274557,62c50e9c1127f2cd403a315f,,,,,,,,,,,,,,,,,,,,threeone,,4,0.8519,,,,,,,,,,,,,,,,,,,,,,,,,,,,,,,,,,"[0.9372,0.20779999999999998,0.2704]","[0.9686000000000001,0.3802000000000001,0.19999999999999996]",61,102.5,1,0,0,response1disk,22,-1.5,1,0,0,rectangle,22,-1.5,1,0,0,2,3,0.0006,0,22,-1.5,1,0,0,0,13,13,137,1,56,second,,,,,,,,,,,,,,,,,,,,,,,,,,,,,,,,,,,,,,,,,,,,,,,,,,,,,,,,,,,,,,,,,,,,,,,
,,,,,,6050edc9b0fa3d391dae2ffe,62c53950c1c9a7c5e0129e8b,2022-07-06_09h33.47.079,Colour_Asymmetry_Pilot,2022.1.3,Win32,60.26274557,62c50e9c1127f2cd403a315f,,,,,,,,,,,,,,,,,,,,fourtwo,,3,0.7333,,,,,,,,,,,,,,,,,,,,,,,,,,,,,,,,,,"[0.09799999999999986,-0.24719999999999998,0.15280000000000005]","[0.3881999999999999,-0.23939999999999995,-0.05040000000000011]",86,56.5,1,0,0,response1disk,7,-3.5,1,0,0,rectangle,7,-3.5,1,0,0,2,3,0.0002,0,7,-3.5,1,0,0,0,14,14,62,1,62,first,,,,,,,,,,,,,,,,,,,,,,,,,,,,,,,,,,,,,,,,,,,,,,,,,,,,,,,,,,,,,,,,,,,,,,,
,,,,,,6050edc9b0fa3d391dae2ffe,62c53950c1c9a7c5e0129e8b,2022-07-06_09h33.47.079,Colour_Asymmetry_Pilot,2022.1.3,Win32,60.26274557,62c50e9c1127f2cd403a315f,,,,,,,,,,,,,,,,,,,,onethree,,-3,1.2998,,,,,,,,,,,,,,,,,,,,,,,,,,,,,,,,,,"[-0.06680000000000008,-0.45100000000000007,-0.906]","[-0.8198,-0.5138,-0.7492000000000001]",-102,32.5,1,0,0,response7disk,11,-0.5,1,0,0,rectangle,11,-0.5,1,0,0,2,1,0.0006,0,11,-0.5,1,0,0,0,15,15,81,1,0,second,,,,,,,,,,,,,,,,,,,,,,,,,,,,,,,,,,,,,,,,,,,,,,,,,,,,,,,,,,,,,,,,,,,,,,,
,,,,,,6050edc9b0fa3d391dae2ffe,62c53950c1c9a7c5e0129e8b,2022-07-06_09h33.47.079,Colour_Asymmetry_Pilot,2022.1.3,Win32,60.26274557,62c50e9c1127f2cd403a315f,,,,,,,,,,,,,,,,,,,,fourtwo,,3,1.3332,,,,,,,,,,,,,,,,,,,,,,,,,,,,,,,,,,"[-0.4982,-0.2942,-0.0354000000000001]","[-0.5452,-0.608,0.2470000000000001]",117,56.5,1,0,0,response1disk,-13,4.5,1,0,0,rectangle,-13,4.5,1,0,0,2,3,0.0004,0,-13,4.5,1,0,0,0,16,16,8,1,8,first,,,,,,,,,,,,,,,,,,,,,,,,,,,,,,,,,,,,,,,,,,,,,,,,,,,,,,,,,,,,,,,,,,,,,,,
,,,,,,6050edc9b0fa3d391dae2ffe,62c53950c1c9a7c5e0129e8b,2022-07-06_09h33.47.079,Colour_Asymmetry_Pilot,2022.1.3,Win32,60.26274557,62c50e9c1127f2cd403a315f,,,,,,,,,,,,,,,,,,,,fourthree,,-3,0.8183,,,,,,,,,,,,,,,,,,,,,,,,,,,,,,,,,,"[-0.9844,-0.9688,-0.9922]","[0.19199999999999995,0.18419999999999992,0.5136000000000001]",-94,69.5,1,0,0,response7disk,-13,2.5,1,0,0,rectangle,-13,2.5,1,0,0,2,3,0,0,-13,2.5,1,0,0,0,17,17,139,1,58,second,,,,,,,,,,,,,,,,,,,,,,,,,,,,,,,,,,,,,,,,,,,,,,,,,,,,,,,,,,,,,,,,,,,,,,,
