trials.thisRepN,trials.thisTrialN,trials.thisN,trials.thisIndex,trials.ran,Colourcodes,participant,session,date,expName,psychopyVersion,OS,frameRate,study_id,trials_4.thisRepN,trials_4.thisTrialN,trials_4.thisN,trials_4.thisIndex,trials_4.ran,StimulusPos,key_resp.keys,key_resp.rt,key_resp_2.keys,key_resp_2.rt,key_resp_15.keys,key_resp_15.rt,key_resp_17.keys,key_resp_17.rt,key_resp_9.keys,key_resp_9.rt,key_resp_10.keys,key_resp_10.rt,Circle1_col,Ecc,Circle2_col,similarity,response_time,mouse_5.x,mouse_5.y,mouse_5.leftButton,mouse_5.midButton,mouse_5.rightButton,mouse_5.clicked_name,mouse_10.x,mouse_10.y,mouse_10.leftButton,mouse_10.midButton,mouse_10.rightButton,mouse_10.clicked_name,mouse_7.x,mouse_7.y,mouse_7.leftButton,mouse_7.midButton,mouse_7.rightButton,mouse_7.clicked_name,catchprac,catchnumberprac,mouse_6.x,mouse_6.y,mouse_6.leftButton,mouse_6.midButton,mouse_6.rightButton,mouse_6.clicked_name,duringprac.thisRepN,duringprac.thisTrialN,duringprac.thisN,duringprac.thisIndex,duringprac.ran,key_resp_22.keys,key_resp_22.rt,Circle1_colour,Circle2_colour,mouse.x,mouse.y,mouse.leftButton,mouse.midButton,mouse.rightButton,mouse.clicked_name,mouse_2.x,mouse_2.y,mouse_2.leftButton,mouse_2.midButton,mouse_2.rightButton,mouse_2.clicked_name,mouse_3.x,mouse_3.y,mouse_3.leftButton,mouse_3.midButton,mouse_3.rightButton,catchresponse,catchnumber,response_time_catch,Catch,mouse_11.x,mouse_11.y,mouse_11.leftButton,mouse_11.midButton,mouse_11.rightButton,trials_2.thisRepN,trials_2.thisTrialN,trials_2.thisN,trials_2.thisIndex,trials_2.ran,Colourpair,Temporder,mouse_3.clicked_name,mouse_11.clicked_name,trials_3.thisRepN,trials_3.thisTrialN,trials_3.thisN,trials_3.thisIndex,trials_3.ran,key_resp_instr_Ishi.keys,key_resp_instr_Ishi.rt,Ishi_trial_keyresp.keys,Ishi_textbox.text,Ishi_mouse.x,Ishi_mouse.y,Ishi_mouse.leftButton,Ishi_mouse.midButton,Ishi_mouse.rightButton,Ishi_mouse.clicked_name,Ishi_loop.thisRepN,Ishi_loop.thisTrialN,Ishi_loop.thisN,Ishi_loop.thisIndex,Ishi_loop.ran,imageaddress,textbox.text,mouse_4.x,mouse_4.y,mouse_4.leftButton,mouse_4.midButton,mouse_4.rightButton,mouse_4.clicked_name,textbox_2.text,mouse_8.x,mouse_8.y,mouse_8.leftButton,mouse_8.midButton,mouse_8.rightButton,mouse_8.clicked_name,textbox_3.text,mouse_9.x,mouse_9.y,mouse_9.leftButton,mouse_9.midButton,mouse_9.rightButton,mouse_9.clicked_name,textbox_4.text,mouse_12.x,mouse_12.y,mouse_12.leftButton,mouse_12.midButton,mouse_12.rightButton,mouse_12.clicked_name,textbox_5.text,mouse_13.x,mouse_13.y,mouse_13.leftButton,mouse_13.midButton,mouse_13.rightButton,mouse_13.clicked_name,textbox_6.text,mouse_14.x,mouse_14.y,mouse_14.leftButton,mouse_14.midButton,mouse_14.rightButton,mouse_14.clicked_name,textbox_7.text,mouse_15.x,mouse_15.y,mouse_15.leftButton,mouse_15.midButton,mouse_15.rightButton
0,0,0,21,1,,608e66a90accb5f38c30ff64,62c539d1090ffd6a618437f5,2022-07-06_10h29.54.653,Colour_Asymmetry_Pilot,2022.1.3,Win32,59.99880002,62c50e9c1127f2cd403a315f,,,,,,,,,,,,,,,,,,,,,,,,,,,,,,,,,,,,,,,,,,,,,,,,,,,,,,,,,,,,,,,,,,,,,,,,,,,,,,,,,,,,,,,,,,,,,,,,,,,,,,,,,,,,,,,,,,,,,,,,,,,,,,,,,,,,,,,,,,,,,,,,,,,,,,,,,,,,,,,,,,
0,1,1,85,1,,608e66a90accb5f38c30ff64,62c539d1090ffd6a618437f5,2022-07-06_10h29.54.653,Colour_Asymmetry_Pilot,2022.1.3,Win32,59.99880002,62c50e9c1127f2cd403a315f,,,,,,,,,,,,,,,,,,,,,,,,,,,,,,,,,,,,,,,,,,,,,,,,,,,,,,,,,,,,,,,,,,,,,,,,,,,,,,,,,,,,,,,,,,,,,,,,,,,,,,,,,,,,,,,,,,,,,,,,,,,,,,,,,,,,,,,,,,,,,,,,,,,,,,,,,,,,,,,,,,
0,2,2,35,1,,608e66a90accb5f38c30ff64,62c539d1090ffd6a618437f5,2022-07-06_10h29.54.653,Colour_Asymmetry_Pilot,2022.1.3,Win32,59.99880002,62c50e9c1127f2cd403a315f,,,,,,,,,,,,,,,,,,,,,,,,,,,,,,,,,,,,,,,,,,,,,,,,,,,,,,,,,,,,,,,,,,,,,,,,,,,,,,,,,,,,,,,,,,,,,,,,,,,,,,,,,,,,,,,,,,,,,,,,,,,,,,,,,,,,,,,,,,,,,,,,,,,,,,,,,,,,,,,,,,
0,3,3,48,1,,608e66a90accb5f38c30ff64,62c539d1090ffd6a618437f5,2022-07-06_10h29.54.653,Colour_Asymmetry_Pilot,2022.1.3,Win32,59.99880002,62c50e9c1127f2cd403a315f,,,,,,,,,,,,,,,,,,,,,,,,,,,,,,,,,,,,,,,,,,,,,,,,,,,,,,,,,,,,,,,,,,,,,,,,,,,,,,,,,,,,,,,,,,,,,,,,,,,,,,,,,,,,,,,,,,,,,,,,,,,,,,,,,,,,,,,,,,,,,,,,,,,,,,,,,,,,,,,,,,
0,4,4,61,1,,608e66a90accb5f38c30ff64,62c539d1090ffd6a618437f5,2022-07-06_10h29.54.653,Colour_Asymmetry_Pilot,2022.1.3,Win32,59.99880002,62c50e9c1127f2cd403a315f,,,,,,,,,,,,,,,,,,,,,,,,,,,,,,,,,,,,,,,,,,,,,,,,,,,,,,,,,,,,,,,,,,,,,,,,,,,,,,,,,,,,,,,,,,,,,,,,,,,,,,,,,,,,,,,,,,,,,,,,,,,,,,,,,,,,,,,,,,,,,,,,,,,,,,,,,,,,,,,,,,
0,5,5,91,1,,608e66a90accb5f38c30ff64,62c539d1090ffd6a618437f5,2022-07-06_10h29.54.653,Colour_Asymmetry_Pilot,2022.1.3,Win32,59.99880002,62c50e9c1127f2cd403a315f,,,,,,,,,,,,,,,,,,,,,,,,,,,,,,,,,,,,,,,,,,,,,,,,,,,,,,,,,,,,,,,,,,,,,,,,,,,,,,,,,,,,,,,,,,,,,,,,,,,,,,,,,,,,,,,,,,,,,,,,,,,,,,,,,,,,,,,,,,,,,,,,,,,,,,,,,,,,,,,,,,
0,6,6,5,1,,608e66a90accb5f38c30ff64,62c539d1090ffd6a618437f5,2022-07-06_10h29.54.653,Colour_Asymmetry_Pilot,2022.1.3,Win32,59.99880002,62c50e9c1127f2cd403a315f,,,,,,,,,,,,,,,,,,,,,,,,,,,,,,,,,,,,,,,,,,,,,,,,,,,,,,,,,,,,,,,,,,,,,,,,,,,,,,,,,,,,,,,,,,,,,,,,,,,,,,,,,,,,,,,,,,,,,,,,,,,,,,,,,,,,,,,,,,,,,,,,,,,,,,,,,,,,,,,,,,
0,7,7,26,1,,608e66a90accb5f38c30ff64,62c539d1090ffd6a618437f5,2022-07-06_10h29.54.653,Colour_Asymmetry_Pilot,2022.1.3,Win32,59.99880002,62c50e9c1127f2cd403a315f,,,,,,,,,,,,,,,,,,,,,,,,,,,,,,,,,,,,,,,,,,,,,,,,,,,,,,,,,,,,,,,,,,,,,,,,,,,,,,,,,,,,,,,,,,,,,,,,,,,,,,,,,,,,,,,,,,,,,,,,,,,,,,,,,,,,,,,,,,,,,,,,,,,,,,,,,,,,,,,,,,
0,8,8,58,1,,608e66a90accb5f38c30ff64,62c539d1090ffd6a618437f5,2022-07-06_10h29.54.653,Colour_Asymmetry_Pilot,2022.1.3,Win32,59.99880002,62c50e9c1127f2cd403a315f,,,,,,,,,,,,,,,,,,,,,,,,,,,,,,,,,,,,,,,,,,,,,,,,,,,,,,,,,,,,,,,,,,,,,,,,,,,,,,,,,,,,,,,,,,,,,,,,,,,,,,,,,,,,,,,,,,,,,,,,,,,,,,,,,,,,,,,,,,,,,,,,,,,,,,,,,,,,,,,,,,
0,9,9,23,1,,608e66a90accb5f38c30ff64,62c539d1090ffd6a618437f5,2022-07-06_10h29.54.653,Colour_Asymmetry_Pilot,2022.1.3,Win32,59.99880002,62c50e9c1127f2cd403a315f,,,,,,,,,,,,,,,,,,,,,,,,,,,,,,,,,,,,,,,,,,,,,,,,,,,,,,,,,,,,,,,,,,,,,,,,,,,,,,,,,,,,,,,,,,,,,,,,,,,,,,,,,,,,,,,,,,,,,,,,,,,,,,,,,,,,,,,,,,,,,,,,,,,,,,,,,,,,,,,,,,
0,10,10,22,1,,608e66a90accb5f38c30ff64,62c539d1090ffd6a618437f5,2022-07-06_10h29.54.653,Colour_Asymmetry_Pilot,2022.1.3,Win32,59.99880002,62c50e9c1127f2cd403a315f,,,,,,,,,,,,,,,,,,,,,,,,,,,,,,,,,,,,,,,,,,,,,,,,,,,,,,,,,,,,,,,,,,,,,,,,,,,,,,,,,,,,,,,,,,,,,,,,,,,,,,,,,,,,,,,,,,,,,,,,,,,,,,,,,,,,,,,,,,,,,,,,,,,,,,,,,,,,,,,,,,
0,11,11,39,1,,608e66a90accb5f38c30ff64,62c539d1090ffd6a618437f5,2022-07-06_10h29.54.653,Colour_Asymmetry_Pilot,2022.1.3,Win32,59.99880002,62c50e9c1127f2cd403a315f,,,,,,,,,,,,,,,,,,,,,,,,,,,,,,,,,,,,,,,,,,,,,,,,,,,,,,,,,,,,,,,,,,,,,,,,,,,,,,,,,,,,,,,,,,,,,,,,,,,,,,,,,,,,,,,,,,,,,,,,,,,,,,,,,,,,,,,,,,,,,,,,,,,,,,,,,,,,,,,,,,
0,12,12,24,1,,608e66a90accb5f38c30ff64,62c539d1090ffd6a618437f5,2022-07-06_10h29.54.653,Colour_Asymmetry_Pilot,2022.1.3,Win32,59.99880002,62c50e9c1127f2cd403a315f,,,,,,,,,,,,,,,,,,,,,,,,,,,,,,,,,,,,,,,,,,,,,,,,,,,,,,,,,,,,,,,,,,,,,,,,,,,,,,,,,,,,,,,,,,,,,,,,,,,,,,,,,,,,,,,,,,,,,,,,,,,,,,,,,,,,,,,,,,,,,,,,,,,,,,,,,,,,,,,,,,
0,13,13,18,1,,608e66a90accb5f38c30ff64,62c539d1090ffd6a618437f5,2022-07-06_10h29.54.653,Colour_Asymmetry_Pilot,2022.1.3,Win32,59.99880002,62c50e9c1127f2cd403a315f,,,,,,,,,,,,,,,,,,,,,,,,,,,,,,,,,,,,,,,,,,,,,,,,,,,,,,,,,,,,,,,,,,,,,,,,,,,,,,,,,,,,,,,,,,,,,,,,,,,,,,,,,,,,,,,,,,,,,,,,,,,,,,,,,,,,,,,,,,,,,,,,,,,,,,,,,,,,,,,,,,
0,14,14,13,1,,608e66a90accb5f38c30ff64,62c539d1090ffd6a618437f5,2022-07-06_10h29.54.653,Colour_Asymmetry_Pilot,2022.1.3,Win32,59.99880002,62c50e9c1127f2cd403a315f,,,,,,,,,,,,,,,,,,,,,,,,,,,,,,,,,,,,,,,,,,,,,,,,,,,,,,,,,,,,,,,,,,,,,,,,,,,,,,,,,,,,,,,,,,,,,,,,,,,,,,,,,,,,,,,,,,,,,,,,,,,,,,,,,,,,,,,,,,,,,,,,,,,,,,,,,,,,,,,,,,
0,15,15,81,1,,608e66a90accb5f38c30ff64,62c539d1090ffd6a618437f5,2022-07-06_10h29.54.653,Colour_Asymmetry_Pilot,2022.1.3,Win32,59.99880002,62c50e9c1127f2cd403a315f,,,,,,,,,,,,,,,,,,,,,,,,,,,,,,,,,,,,,,,,,,,,,,,,,,,,,,,,,,,,,,,,,,,,,,,,,,,,,,,,,,,,,,,,,,,,,,,,,,,,,,,,,,,,,,,,,,,,,,,,,,,,,,,,,,,,,,,,,,,,,,,,,,,,,,,,,,,,,,,,,,
0,16,16,59,1,,608e66a90accb5f38c30ff64,62c539d1090ffd6a618437f5,2022-07-06_10h29.54.653,Colour_Asymmetry_Pilot,2022.1.3,Win32,59.99880002,62c50e9c1127f2cd403a315f,,,,,,,,,,,,,,,,,,,,,,,,,,,,,,,,,,,,,,,,,,,,,,,,,,,,,,,,,,,,,,,,,,,,,,,,,,,,,,,,,,,,,,,,,,,,,,,,,,,,,,,,,,,,,,,,,,,,,,,,,,,,,,,,,,,,,,,,,,,,,,,,,,,,,,,,,,,,,,,,,,
0,17,17,41,1,,608e66a90accb5f38c30ff64,62c539d1090ffd6a618437f5,2022-07-06_10h29.54.653,Colour_Asymmetry_Pilot,2022.1.3,Win32,59.99880002,62c50e9c1127f2cd403a315f,,,,,,,,,,,,,,,,,,,,,,,,,,,,,,,,,,,,,,,,,,,,,,,,,,,,,,,,,,,,,,,,,,,,,,,,,,,,,,,,,,,,,,,,,,,,,,,,,,,,,,,,,,,,,,,,,,,,,,,,,,,,,,,,,,,,,,,,,,,,,,,,,,,,,,,,,,,,,,,,,,
0,18,18,73,1,,608e66a90accb5f38c30ff64,62c539d1090ffd6a618437f5,2022-07-06_10h29.54.653,Colour_Asymmetry_Pilot,2022.1.3,Win32,59.99880002,62c50e9c1127f2cd403a315f,,,,,,,,,,,,,,,,,,,,,,,,,,,,,,,,,,,,,,,,,,,,,,,,,,,,,,,,,,,,,,,,,,,,,,,,,,,,,,,,,,,,,,,,,,,,,,,,,,,,,,,,,,,,,,,,,,,,,,,,,,,,,,,,,,,,,,,,,,,,,,,,,,,,,,,,,,,,,,,,,,
0,19,19,75,1,,608e66a90accb5f38c30ff64,62c539d1090ffd6a618437f5,2022-07-06_10h29.54.653,Colour_Asymmetry_Pilot,2022.1.3,Win32,59.99880002,62c50e9c1127f2cd403a315f,,,,,,,,,,,,,,,,,,,,,,,,,,,,,,,,,,,,,,,,,,,,,,,,,,,,,,,,,,,,,,,,,,,,,,,,,,,,,,,,,,,,,,,,,,,,,,,,,,,,,,,,,,,,,,,,,,,,,,,,,,,,,,,,,,,,,,,,,,,,,,,,,,,,,,,,,,,,,,,,,,
0,20,20,10,1,,608e66a90accb5f38c30ff64,62c539d1090ffd6a618437f5,2022-07-06_10h29.54.653,Colour_Asymmetry_Pilot,2022.1.3,Win32,59.99880002,62c50e9c1127f2cd403a315f,,,,,,,,,,,,,,,,,,,,,,,,,,,,,,,,,,,,,,,,,,,,,,,,,,,,,,,,,,,,,,,,,,,,,,,,,,,,,,,,,,,,,,,,,,,,,,,,,,,,,,,,,,,,,,,,,,,,,,,,,,,,,,,,,,,,,,,,,,,,,,,,,,,,,,,,,,,,,,,,,,
0,21,21,82,1,,608e66a90accb5f38c30ff64,62c539d1090ffd6a618437f5,2022-07-06_10h29.54.653,Colour_Asymmetry_Pilot,2022.1.3,Win32,59.99880002,62c50e9c1127f2cd403a315f,,,,,,,,,,,,,,,,,,,,,,,,,,,,,,,,,,,,,,,,,,,,,,,,,,,,,,,,,,,,,,,,,,,,,,,,,,,,,,,,,,,,,,,,,,,,,,,,,,,,,,,,,,,,,,,,,,,,,,,,,,,,,,,,,,,,,,,,,,,,,,,,,,,,,,,,,,,,,,,,,,
0,22,22,12,1,,608e66a90accb5f38c30ff64,62c539d1090ffd6a618437f5,2022-07-06_10h29.54.653,Colour_Asymmetry_Pilot,2022.1.3,Win32,59.99880002,62c50e9c1127f2cd403a315f,,,,,,,,,,,,,,,,,,,,,,,,,,,,,,,,,,,,,,,,,,,,,,,,,,,,,,,,,,,,,,,,,,,,,,,,,,,,,,,,,,,,,,,,,,,,,,,,,,,,,,,,,,,,,,,,,,,,,,,,,,,,,,,,,,,,,,,,,,,,,,,,,,,,,,,,,,,,,,,,,,
0,23,23,0,1,,608e66a90accb5f38c30ff64,62c539d1090ffd6a618437f5,2022-07-06_10h29.54.653,Colour_Asymmetry_Pilot,2022.1.3,Win32,59.99880002,62c50e9c1127f2cd403a315f,,,,,,,,,,,,,,,,,,,,,,,,,,,,,,,,,,,,,,,,,,,,,,,,,,,,,,,,,,,,,,,,,,,,,,,,,,,,,,,,,,,,,,,,,,,,,,,,,,,,,,,,,,,,,,,,,,,,,,,,,,,,,,,,,,,,,,,,,,,,,,,,,,,,,,,,,,,,,,,,,,
0,24,24,11,1,,608e66a90accb5f38c30ff64,62c539d1090ffd6a618437f5,2022-07-06_10h29.54.653,Colour_Asymmetry_Pilot,2022.1.3,Win32,59.99880002,62c50e9c1127f2cd403a315f,,,,,,,,,,,,,,,,,,,,,,,,,,,,,,,,,,,,,,,,,,,,,,,,,,,,,,,,,,,,,,,,,,,,,,,,,,,,,,,,,,,,,,,,,,,,,,,,,,,,,,,,,,,,,,,,,,,,,,,,,,,,,,,,,,,,,,,,,,,,,,,,,,,,,,,,,,,,,,,,,,
0,25,25,60,1,,608e66a90accb5f38c30ff64,62c539d1090ffd6a618437f5,2022-07-06_10h29.54.653,Colour_Asymmetry_Pilot,2022.1.3,Win32,59.99880002,62c50e9c1127f2cd403a315f,,,,,,,,,,,,,,,,,,,,,,,,,,,,,,,,,,,,,,,,,,,,,,,,,,,,,,,,,,,,,,,,,,,,,,,,,,,,,,,,,,,,,,,,,,,,,,,,,,,,,,,,,,,,,,,,,,,,,,,,,,,,,,,,,,,,,,,,,,,,,,,,,,,,,,,,,,,,,,,,,,
0,26,26,16,1,,608e66a90accb5f38c30ff64,62c539d1090ffd6a618437f5,2022-07-06_10h29.54.653,Colour_Asymmetry_Pilot,2022.1.3,Win32,59.99880002,62c50e9c1127f2cd403a315f,,,,,,,,,,,,,,,,,,,,,,,,,,,,,,,,,,,,,,,,,,,,,,,,,,,,,,,,,,,,,,,,,,,,,,,,,,,,,,,,,,,,,,,,,,,,,,,,,,,,,,,,,,,,,,,,,,,,,,,,,,,,,,,,,,,,,,,,,,,,,,,,,,,,,,,,,,,,,,,,,,
0,27,27,51,1,,608e66a90accb5f38c30ff64,62c539d1090ffd6a618437f5,2022-07-06_10h29.54.653,Colour_Asymmetry_Pilot,2022.1.3,Win32,59.99880002,62c50e9c1127f2cd403a315f,,,,,,,,,,,,,,,,,,,,,,,,,,,,,,,,,,,,,,,,,,,,,,,,,,,,,,,,,,,,,,,,,,,,,,,,,,,,,,,,,,,,,,,,,,,,,,,,,,,,,,,,,,,,,,,,,,,,,,,,,,,,,,,,,,,,,,,,,,,,,,,,,,,,,,,,,,,,,,,,,,
0,28,28,56,1,,608e66a90accb5f38c30ff64,62c539d1090ffd6a618437f5,2022-07-06_10h29.54.653,Colour_Asymmetry_Pilot,2022.1.3,Win32,59.99880002,62c50e9c1127f2cd403a315f,,,,,,,,,,,,,,,,,,,,,,,,,,,,,,,,,,,,,,,,,,,,,,,,,,,,,,,,,,,,,,,,,,,,,,,,,,,,,,,,,,,,,,,,,,,,,,,,,,,,,,,,,,,,,,,,,,,,,,,,,,,,,,,,,,,,,,,,,,,,,,,,,,,,,,,,,,,,,,,,,,
0,29,29,49,1,,608e66a90accb5f38c30ff64,62c539d1090ffd6a618437f5,2022-07-06_10h29.54.653,Colour_Asymmetry_Pilot,2022.1.3,Win32,59.99880002,62c50e9c1127f2cd403a315f,,,,,,,,,,,,,,,,,,,,,,,,,,,,,,,,,,,,,,,,,,,,,,,,,,,,,,,,,,,,,,,,,,,,,,,,,,,,,,,,,,,,,,,,,,,,,,,,,,,,,,,,,,,,,,,,,,,,,,,,,,,,,,,,,,,,,,,,,,,,,,,,,,,,,,,,,,,,,,,,,,
0,30,30,80,1,,608e66a90accb5f38c30ff64,62c539d1090ffd6a618437f5,2022-07-06_10h29.54.653,Colour_Asymmetry_Pilot,2022.1.3,Win32,59.99880002,62c50e9c1127f2cd403a315f,,,,,,,,,,,,,,,,,,,,,,,,,,,,,,,,,,,,,,,,,,,,,,,,,,,,,,,,,,,,,,,,,,,,,,,,,,,,,,,,,,,,,,,,,,,,,,,,,,,,,,,,,,,,,,,,,,,,,,,,,,,,,,,,,,,,,,,,,,,,,,,,,,,,,,,,,,,,,,,,,,
0,31,31,34,1,,608e66a90accb5f38c30ff64,62c539d1090ffd6a618437f5,2022-07-06_10h29.54.653,Colour_Asymmetry_Pilot,2022.1.3,Win32,59.99880002,62c50e9c1127f2cd403a315f,,,,,,,,,,,,,,,,,,,,,,,,,,,,,,,,,,,,,,,,,,,,,,,,,,,,,,,,,,,,,,,,,,,,,,,,,,,,,,,,,,,,,,,,,,,,,,,,,,,,,,,,,,,,,,,,,,,,,,,,,,,,,,,,,,,,,,,,,,,,,,,,,,,,,,,,,,,,,,,,,,
0,32,32,46,1,,608e66a90accb5f38c30ff64,62c539d1090ffd6a618437f5,2022-07-06_10h29.54.653,Colour_Asymmetry_Pilot,2022.1.3,Win32,59.99880002,62c50e9c1127f2cd403a315f,,,,,,,,,,,,,,,,,,,,,,,,,,,,,,,,,,,,,,,,,,,,,,,,,,,,,,,,,,,,,,,,,,,,,,,,,,,,,,,,,,,,,,,,,,,,,,,,,,,,,,,,,,,,,,,,,,,,,,,,,,,,,,,,,,,,,,,,,,,,,,,,,,,,,,,,,,,,,,,,,,
0,33,33,69,1,,608e66a90accb5f38c30ff64,62c539d1090ffd6a618437f5,2022-07-06_10h29.54.653,Colour_Asymmetry_Pilot,2022.1.3,Win32,59.99880002,62c50e9c1127f2cd403a315f,,,,,,,,,,,,,,,,,,,,,,,,,,,,,,,,,,,,,,,,,,,,,,,,,,,,,,,,,,,,,,,,,,,,,,,,,,,,,,,,,,,,,,,,,,,,,,,,,,,,,,,,,,,,,,,,,,,,,,,,,,,,,,,,,,,,,,,,,,,,,,,,,,,,,,,,,,,,,,,,,,
0,34,34,74,1,,608e66a90accb5f38c30ff64,62c539d1090ffd6a618437f5,2022-07-06_10h29.54.653,Colour_Asymmetry_Pilot,2022.1.3,Win32,59.99880002,62c50e9c1127f2cd403a315f,,,,,,,,,,,,,,,,,,,,,,,,,,,,,,,,,,,,,,,,,,,,,,,,,,,,,,,,,,,,,,,,,,,,,,,,,,,,,,,,,,,,,,,,,,,,,,,,,,,,,,,,,,,,,,,,,,,,,,,,,,,,,,,,,,,,,,,,,,,,,,,,,,,,,,,,,,,,,,,,,,
0,35,35,86,1,,608e66a90accb5f38c30ff64,62c539d1090ffd6a618437f5,2022-07-06_10h29.54.653,Colour_Asymmetry_Pilot,2022.1.3,Win32,59.99880002,62c50e9c1127f2cd403a315f,,,,,,,,,,,,,,,,,,,,,,,,,,,,,,,,,,,,,,,,,,,,,,,,,,,,,,,,,,,,,,,,,,,,,,,,,,,,,,,,,,,,,,,,,,,,,,,,,,,,,,,,,,,,,,,,,,,,,,,,,,,,,,,,,,,,,,,,,,,,,,,,,,,,,,,,,,,,,,,,,,
0,36,36,65,1,,608e66a90accb5f38c30ff64,62c539d1090ffd6a618437f5,2022-07-06_10h29.54.653,Colour_Asymmetry_Pilot,2022.1.3,Win32,59.99880002,62c50e9c1127f2cd403a315f,,,,,,,,,,,,,,,,,,,,,,,,,,,,,,,,,,,,,,,,,,,,,,,,,,,,,,,,,,,,,,,,,,,,,,,,,,,,,,,,,,,,,,,,,,,,,,,,,,,,,,,,,,,,,,,,,,,,,,,,,,,,,,,,,,,,,,,,,,,,,,,,,,,,,,,,,,,,,,,,,,
0,37,37,52,1,,608e66a90accb5f38c30ff64,62c539d1090ffd6a618437f5,2022-07-06_10h29.54.653,Colour_Asymmetry_Pilot,2022.1.3,Win32,59.99880002,62c50e9c1127f2cd403a315f,,,,,,,,,,,,,,,,,,,,,,,,,,,,,,,,,,,,,,,,,,,,,,,,,,,,,,,,,,,,,,,,,,,,,,,,,,,,,,,,,,,,,,,,,,,,,,,,,,,,,,,,,,,,,,,,,,,,,,,,,,,,,,,,,,,,,,,,,,,,,,,,,,,,,,,,,,,,,,,,,,
0,38,38,19,1,,608e66a90accb5f38c30ff64,62c539d1090ffd6a618437f5,2022-07-06_10h29.54.653,Colour_Asymmetry_Pilot,2022.1.3,Win32,59.99880002,62c50e9c1127f2cd403a315f,,,,,,,,,,,,,,,,,,,,,,,,,,,,,,,,,,,,,,,,,,,,,,,,,,,,,,,,,,,,,,,,,,,,,,,,,,,,,,,,,,,,,,,,,,,,,,,,,,,,,,,,,,,,,,,,,,,,,,,,,,,,,,,,,,,,,,,,,,,,,,,,,,,,,,,,,,,,,,,,,,
0,39,39,33,1,,608e66a90accb5f38c30ff64,62c539d1090ffd6a618437f5,2022-07-06_10h29.54.653,Colour_Asymmetry_Pilot,2022.1.3,Win32,59.99880002,62c50e9c1127f2cd403a315f,,,,,,,,,,,,,,,,,,,,,,,,,,,,,,,,,,,,,,,,,,,,,,,,,,,,,,,,,,,,,,,,,,,,,,,,,,,,,,,,,,,,,,,,,,,,,,,,,,,,,,,,,,,,,,,,,,,,,,,,,,,,,,,,,,,,,,,,,,,,,,,,,,,,,,,,,,,,,,,,,,
0,40,40,31,1,,608e66a90accb5f38c30ff64,62c539d1090ffd6a618437f5,2022-07-06_10h29.54.653,Colour_Asymmetry_Pilot,2022.1.3,Win32,59.99880002,62c50e9c1127f2cd403a315f,,,,,,,,,,,,,,,,,,,,,,,,,,,,,,,,,,,,,,,,,,,,,,,,,,,,,,,,,,,,,,,,,,,,,,,,,,,,,,,,,,,,,,,,,,,,,,,,,,,,,,,,,,,,,,,,,,,,,,,,,,,,,,,,,,,,,,,,,,,,,,,,,,,,,,,,,,,,,,,,,,
0,41,41,3,1,,608e66a90accb5f38c30ff64,62c539d1090ffd6a618437f5,2022-07-06_10h29.54.653,Colour_Asymmetry_Pilot,2022.1.3,Win32,59.99880002,62c50e9c1127f2cd403a315f,,,,,,,,,,,,,,,,,,,,,,,,,,,,,,,,,,,,,,,,,,,,,,,,,,,,,,,,,,,,,,,,,,,,,,,,,,,,,,,,,,,,,,,,,,,,,,,,,,,,,,,,,,,,,,,,,,,,,,,,,,,,,,,,,,,,,,,,,,,,,,,,,,,,,,,,,,,,,,,,,,
0,42,42,29,1,,608e66a90accb5f38c30ff64,62c539d1090ffd6a618437f5,2022-07-06_10h29.54.653,Colour_Asymmetry_Pilot,2022.1.3,Win32,59.99880002,62c50e9c1127f2cd403a315f,,,,,,,,,,,,,,,,,,,,,,,,,,,,,,,,,,,,,,,,,,,,,,,,,,,,,,,,,,,,,,,,,,,,,,,,,,,,,,,,,,,,,,,,,,,,,,,,,,,,,,,,,,,,,,,,,,,,,,,,,,,,,,,,,,,,,,,,,,,,,,,,,,,,,,,,,,,,,,,,,,
0,43,43,50,1,,608e66a90accb5f38c30ff64,62c539d1090ffd6a618437f5,2022-07-06_10h29.54.653,Colour_Asymmetry_Pilot,2022.1.3,Win32,59.99880002,62c50e9c1127f2cd403a315f,,,,,,,,,,,,,,,,,,,,,,,,,,,,,,,,,,,,,,,,,,,,,,,,,,,,,,,,,,,,,,,,,,,,,,,,,,,,,,,,,,,,,,,,,,,,,,,,,,,,,,,,,,,,,,,,,,,,,,,,,,,,,,,,,,,,,,,,,,,,,,,,,,,,,,,,,,,,,,,,,,
0,44,44,92,1,,608e66a90accb5f38c30ff64,62c539d1090ffd6a618437f5,2022-07-06_10h29.54.653,Colour_Asymmetry_Pilot,2022.1.3,Win32,59.99880002,62c50e9c1127f2cd403a315f,,,,,,,,,,,,,,,,,,,,,,,,,,,,,,,,,,,,,,,,,,,,,,,,,,,,,,,,,,,,,,,,,,,,,,,,,,,,,,,,,,,,,,,,,,,,,,,,,,,,,,,,,,,,,,,,,,,,,,,,,,,,,,,,,,,,,,,,,,,,,,,,,,,,,,,,,,,,,,,,,,
0,45,45,45,1,,608e66a90accb5f38c30ff64,62c539d1090ffd6a618437f5,2022-07-06_10h29.54.653,Colour_Asymmetry_Pilot,2022.1.3,Win32,59.99880002,62c50e9c1127f2cd403a315f,,,,,,,,,,,,,,,,,,,,,,,,,,,,,,,,,,,,,,,,,,,,,,,,,,,,,,,,,,,,,,,,,,,,,,,,,,,,,,,,,,,,,,,,,,,,,,,,,,,,,,,,,,,,,,,,,,,,,,,,,,,,,,,,,,,,,,,,,,,,,,,,,,,,,,,,,,,,,,,,,,
0,46,46,90,1,,608e66a90accb5f38c30ff64,62c539d1090ffd6a618437f5,2022-07-06_10h29.54.653,Colour_Asymmetry_Pilot,2022.1.3,Win32,59.99880002,62c50e9c1127f2cd403a315f,,,,,,,,,,,,,,,,,,,,,,,,,,,,,,,,,,,,,,,,,,,,,,,,,,,,,,,,,,,,,,,,,,,,,,,,,,,,,,,,,,,,,,,,,,,,,,,,,,,,,,,,,,,,,,,,,,,,,,,,,,,,,,,,,,,,,,,,,,,,,,,,,,,,,,,,,,,,,,,,,,
0,47,47,15,1,,608e66a90accb5f38c30ff64,62c539d1090ffd6a618437f5,2022-07-06_10h29.54.653,Colour_Asymmetry_Pilot,2022.1.3,Win32,59.99880002,62c50e9c1127f2cd403a315f,,,,,,,,,,,,,,,,,,,,,,,,,,,,,,,,,,,,,,,,,,,,,,,,,,,,,,,,,,,,,,,,,,,,,,,,,,,,,,,,,,,,,,,,,,,,,,,,,,,,,,,,,,,,,,,,,,,,,,,,,,,,,,,,,,,,,,,,,,,,,,,,,,,,,,,,,,,,,,,,,,
0,48,48,37,1,,608e66a90accb5f38c30ff64,62c539d1090ffd6a618437f5,2022-07-06_10h29.54.653,Colour_Asymmetry_Pilot,2022.1.3,Win32,59.99880002,62c50e9c1127f2cd403a315f,,,,,,,,,,,,,,,,,,,,,,,,,,,,,,,,,,,,,,,,,,,,,,,,,,,,,,,,,,,,,,,,,,,,,,,,,,,,,,,,,,,,,,,,,,,,,,,,,,,,,,,,,,,,,,,,,,,,,,,,,,,,,,,,,,,,,,,,,,,,,,,,,,,,,,,,,,,,,,,,,,
0,49,49,7,1,,608e66a90accb5f38c30ff64,62c539d1090ffd6a618437f5,2022-07-06_10h29.54.653,Colour_Asymmetry_Pilot,2022.1.3,Win32,59.99880002,62c50e9c1127f2cd403a315f,,,,,,,,,,,,,,,,,,,,,,,,,,,,,,,,,,,,,,,,,,,,,,,,,,,,,,,,,,,,,,,,,,,,,,,,,,,,,,,,,,,,,,,,,,,,,,,,,,,,,,,,,,,,,,,,,,,,,,,,,,,,,,,,,,,,,,,,,,,,,,,,,,,,,,,,,,,,,,,,,,
0,50,50,25,1,,608e66a90accb5f38c30ff64,62c539d1090ffd6a618437f5,2022-07-06_10h29.54.653,Colour_Asymmetry_Pilot,2022.1.3,Win32,59.99880002,62c50e9c1127f2cd403a315f,,,,,,,,,,,,,,,,,,,,,,,,,,,,,,,,,,,,,,,,,,,,,,,,,,,,,,,,,,,,,,,,,,,,,,,,,,,,,,,,,,,,,,,,,,,,,,,,,,,,,,,,,,,,,,,,,,,,,,,,,,,,,,,,,,,,,,,,,,,,,,,,,,,,,,,,,,,,,,,,,,
0,51,51,71,1,,608e66a90accb5f38c30ff64,62c539d1090ffd6a618437f5,2022-07-06_10h29.54.653,Colour_Asymmetry_Pilot,2022.1.3,Win32,59.99880002,62c50e9c1127f2cd403a315f,,,,,,,,,,,,,,,,,,,,,,,,,,,,,,,,,,,,,,,,,,,,,,,,,,,,,,,,,,,,,,,,,,,,,,,,,,,,,,,,,,,,,,,,,,,,,,,,,,,,,,,,,,,,,,,,,,,,,,,,,,,,,,,,,,,,,,,,,,,,,,,,,,,,,,,,,,,,,,,,,,
0,52,52,8,1,,608e66a90accb5f38c30ff64,62c539d1090ffd6a618437f5,2022-07-06_10h29.54.653,Colour_Asymmetry_Pilot,2022.1.3,Win32,59.99880002,62c50e9c1127f2cd403a315f,,,,,,,,,,,,,,,,,,,,,,,,,,,,,,,,,,,,,,,,,,,,,,,,,,,,,,,,,,,,,,,,,,,,,,,,,,,,,,,,,,,,,,,,,,,,,,,,,,,,,,,,,,,,,,,,,,,,,,,,,,,,,,,,,,,,,,,,,,,,,,,,,,,,,,,,,,,,,,,,,,
0,53,53,20,1,,608e66a90accb5f38c30ff64,62c539d1090ffd6a618437f5,2022-07-06_10h29.54.653,Colour_Asymmetry_Pilot,2022.1.3,Win32,59.99880002,62c50e9c1127f2cd403a315f,,,,,,,,,,,,,,,,,,,,,,,,,,,,,,,,,,,,,,,,,,,,,,,,,,,,,,,,,,,,,,,,,,,,,,,,,,,,,,,,,,,,,,,,,,,,,,,,,,,,,,,,,,,,,,,,,,,,,,,,,,,,,,,,,,,,,,,,,,,,,,,,,,,,,,,,,,,,,,,,,,
0,54,54,63,1,,608e66a90accb5f38c30ff64,62c539d1090ffd6a618437f5,2022-07-06_10h29.54.653,Colour_Asymmetry_Pilot,2022.1.3,Win32,59.99880002,62c50e9c1127f2cd403a315f,,,,,,,,,,,,,,,,,,,,,,,,,,,,,,,,,,,,,,,,,,,,,,,,,,,,,,,,,,,,,,,,,,,,,,,,,,,,,,,,,,,,,,,,,,,,,,,,,,,,,,,,,,,,,,,,,,,,,,,,,,,,,,,,,,,,,,,,,,,,,,,,,,,,,,,,,,,,,,,,,,
0,55,55,67,1,,608e66a90accb5f38c30ff64,62c539d1090ffd6a618437f5,2022-07-06_10h29.54.653,Colour_Asymmetry_Pilot,2022.1.3,Win32,59.99880002,62c50e9c1127f2cd403a315f,,,,,,,,,,,,,,,,,,,,,,,,,,,,,,,,,,,,,,,,,,,,,,,,,,,,,,,,,,,,,,,,,,,,,,,,,,,,,,,,,,,,,,,,,,,,,,,,,,,,,,,,,,,,,,,,,,,,,,,,,,,,,,,,,,,,,,,,,,,,,,,,,,,,,,,,,,,,,,,,,,
0,56,56,1,1,,608e66a90accb5f38c30ff64,62c539d1090ffd6a618437f5,2022-07-06_10h29.54.653,Colour_Asymmetry_Pilot,2022.1.3,Win32,59.99880002,62c50e9c1127f2cd403a315f,,,,,,,,,,,,,,,,,,,,,,,,,,,,,,,,,,,,,,,,,,,,,,,,,,,,,,,,,,,,,,,,,,,,,,,,,,,,,,,,,,,,,,,,,,,,,,,,,,,,,,,,,,,,,,,,,,,,,,,,,,,,,,,,,,,,,,,,,,,,,,,,,,,,,,,,,,,,,,,,,,
0,57,57,40,1,,608e66a90accb5f38c30ff64,62c539d1090ffd6a618437f5,2022-07-06_10h29.54.653,Colour_Asymmetry_Pilot,2022.1.3,Win32,59.99880002,62c50e9c1127f2cd403a315f,,,,,,,,,,,,,,,,,,,,,,,,,,,,,,,,,,,,,,,,,,,,,,,,,,,,,,,,,,,,,,,,,,,,,,,,,,,,,,,,,,,,,,,,,,,,,,,,,,,,,,,,,,,,,,,,,,,,,,,,,,,,,,,,,,,,,,,,,,,,,,,,,,,,,,,,,,,,,,,,,,
0,58,58,36,1,,608e66a90accb5f38c30ff64,62c539d1090ffd6a618437f5,2022-07-06_10h29.54.653,Colour_Asymmetry_Pilot,2022.1.3,Win32,59.99880002,62c50e9c1127f2cd403a315f,,,,,,,,,,,,,,,,,,,,,,,,,,,,,,,,,,,,,,,,,,,,,,,,,,,,,,,,,,,,,,,,,,,,,,,,,,,,,,,,,,,,,,,,,,,,,,,,,,,,,,,,,,,,,,,,,,,,,,,,,,,,,,,,,,,,,,,,,,,,,,,,,,,,,,,,,,,,,,,,,,
0,59,59,77,1,,608e66a90accb5f38c30ff64,62c539d1090ffd6a618437f5,2022-07-06_10h29.54.653,Colour_Asymmetry_Pilot,2022.1.3,Win32,59.99880002,62c50e9c1127f2cd403a315f,,,,,,,,,,,,,,,,,,,,,,,,,,,,,,,,,,,,,,,,,,,,,,,,,,,,,,,,,,,,,,,,,,,,,,,,,,,,,,,,,,,,,,,,,,,,,,,,,,,,,,,,,,,,,,,,,,,,,,,,,,,,,,,,,,,,,,,,,,,,,,,,,,,,,,,,,,,,,,,,,,
0,60,60,76,1,,608e66a90accb5f38c30ff64,62c539d1090ffd6a618437f5,2022-07-06_10h29.54.653,Colour_Asymmetry_Pilot,2022.1.3,Win32,59.99880002,62c50e9c1127f2cd403a315f,,,,,,,,,,,,,,,,,,,,,,,,,,,,,,,,,,,,,,,,,,,,,,,,,,,,,,,,,,,,,,,,,,,,,,,,,,,,,,,,,,,,,,,,,,,,,,,,,,,,,,,,,,,,,,,,,,,,,,,,,,,,,,,,,,,,,,,,,,,,,,,,,,,,,,,,,,,,,,,,,,
0,61,61,4,1,,608e66a90accb5f38c30ff64,62c539d1090ffd6a618437f5,2022-07-06_10h29.54.653,Colour_Asymmetry_Pilot,2022.1.3,Win32,59.99880002,62c50e9c1127f2cd403a315f,,,,,,,,,,,,,,,,,,,,,,,,,,,,,,,,,,,,,,,,,,,,,,,,,,,,,,,,,,,,,,,,,,,,,,,,,,,,,,,,,,,,,,,,,,,,,,,,,,,,,,,,,,,,,,,,,,,,,,,,,,,,,,,,,,,,,,,,,,,,,,,,,,,,,,,,,,,,,,,,,,
0,62,62,53,1,,608e66a90accb5f38c30ff64,62c539d1090ffd6a618437f5,2022-07-06_10h29.54.653,Colour_Asymmetry_Pilot,2022.1.3,Win32,59.99880002,62c50e9c1127f2cd403a315f,,,,,,,,,,,,,,,,,,,,,,,,,,,,,,,,,,,,,,,,,,,,,,,,,,,,,,,,,,,,,,,,,,,,,,,,,,,,,,,,,,,,,,,,,,,,,,,,,,,,,,,,,,,,,,,,,,,,,,,,,,,,,,,,,,,,,,,,,,,,,,,,,,,,,,,,,,,,,,,,,,
0,63,63,47,1,,608e66a90accb5f38c30ff64,62c539d1090ffd6a618437f5,2022-07-06_10h29.54.653,Colour_Asymmetry_Pilot,2022.1.3,Win32,59.99880002,62c50e9c1127f2cd403a315f,,,,,,,,,,,,,,,,,,,,,,,,,,,,,,,,,,,,,,,,,,,,,,,,,,,,,,,,,,,,,,,,,,,,,,,,,,,,,,,,,,,,,,,,,,,,,,,,,,,,,,,,,,,,,,,,,,,,,,,,,,,,,,,,,,,,,,,,,,,,,,,,,,,,,,,,,,,,,,,,,,
0,64,64,38,1,,608e66a90accb5f38c30ff64,62c539d1090ffd6a618437f5,2022-07-06_10h29.54.653,Colour_Asymmetry_Pilot,2022.1.3,Win32,59.99880002,62c50e9c1127f2cd403a315f,,,,,,,,,,,,,,,,,,,,,,,,,,,,,,,,,,,,,,,,,,,,,,,,,,,,,,,,,,,,,,,,,,,,,,,,,,,,,,,,,,,,,,,,,,,,,,,,,,,,,,,,,,,,,,,,,,,,,,,,,,,,,,,,,,,,,,,,,,,,,,,,,,,,,,,,,,,,,,,,,,
0,65,65,44,1,,608e66a90accb5f38c30ff64,62c539d1090ffd6a618437f5,2022-07-06_10h29.54.653,Colour_Asymmetry_Pilot,2022.1.3,Win32,59.99880002,62c50e9c1127f2cd403a315f,,,,,,,,,,,,,,,,,,,,,,,,,,,,,,,,,,,,,,,,,,,,,,,,,,,,,,,,,,,,,,,,,,,,,,,,,,,,,,,,,,,,,,,,,,,,,,,,,,,,,,,,,,,,,,,,,,,,,,,,,,,,,,,,,,,,,,,,,,,,,,,,,,,,,,,,,,,,,,,,,,
0,66,66,62,1,,608e66a90accb5f38c30ff64,62c539d1090ffd6a618437f5,2022-07-06_10h29.54.653,Colour_Asymmetry_Pilot,2022.1.3,Win32,59.99880002,62c50e9c1127f2cd403a315f,,,,,,,,,,,,,,,,,,,,,,,,,,,,,,,,,,,,,,,,,,,,,,,,,,,,,,,,,,,,,,,,,,,,,,,,,,,,,,,,,,,,,,,,,,,,,,,,,,,,,,,,,,,,,,,,,,,,,,,,,,,,,,,,,,,,,,,,,,,,,,,,,,,,,,,,,,,,,,,,,,
0,67,67,64,1,,608e66a90accb5f38c30ff64,62c539d1090ffd6a618437f5,2022-07-06_10h29.54.653,Colour_Asymmetry_Pilot,2022.1.3,Win32,59.99880002,62c50e9c1127f2cd403a315f,,,,,,,,,,,,,,,,,,,,,,,,,,,,,,,,,,,,,,,,,,,,,,,,,,,,,,,,,,,,,,,,,,,,,,,,,,,,,,,,,,,,,,,,,,,,,,,,,,,,,,,,,,,,,,,,,,,,,,,,,,,,,,,,,,,,,,,,,,,,,,,,,,,,,,,,,,,,,,,,,,
0,68,68,54,1,,608e66a90accb5f38c30ff64,62c539d1090ffd6a618437f5,2022-07-06_10h29.54.653,Colour_Asymmetry_Pilot,2022.1.3,Win32,59.99880002,62c50e9c1127f2cd403a315f,,,,,,,,,,,,,,,,,,,,,,,,,,,,,,,,,,,,,,,,,,,,,,,,,,,,,,,,,,,,,,,,,,,,,,,,,,,,,,,,,,,,,,,,,,,,,,,,,,,,,,,,,,,,,,,,,,,,,,,,,,,,,,,,,,,,,,,,,,,,,,,,,,,,,,,,,,,,,,,,,,
0,69,69,17,1,,608e66a90accb5f38c30ff64,62c539d1090ffd6a618437f5,2022-07-06_10h29.54.653,Colour_Asymmetry_Pilot,2022.1.3,Win32,59.99880002,62c50e9c1127f2cd403a315f,,,,,,,,,,,,,,,,,,,,,,,,,,,,,,,,,,,,,,,,,,,,,,,,,,,,,,,,,,,,,,,,,,,,,,,,,,,,,,,,,,,,,,,,,,,,,,,,,,,,,,,,,,,,,,,,,,,,,,,,,,,,,,,,,,,,,,,,,,,,,,,,,,,,,,,,,,,,,,,,,,
0,70,70,88,1,,608e66a90accb5f38c30ff64,62c539d1090ffd6a618437f5,2022-07-06_10h29.54.653,Colour_Asymmetry_Pilot,2022.1.3,Win32,59.99880002,62c50e9c1127f2cd403a315f,,,,,,,,,,,,,,,,,,,,,,,,,,,,,,,,,,,,,,,,,,,,,,,,,,,,,,,,,,,,,,,,,,,,,,,,,,,,,,,,,,,,,,,,,,,,,,,,,,,,,,,,,,,,,,,,,,,,,,,,,,,,,,,,,,,,,,,,,,,,,,,,,,,,,,,,,,,,,,,,,,
0,71,71,30,1,,608e66a90accb5f38c30ff64,62c539d1090ffd6a618437f5,2022-07-06_10h29.54.653,Colour_Asymmetry_Pilot,2022.1.3,Win32,59.99880002,62c50e9c1127f2cd403a315f,,,,,,,,,,,,,,,,,,,,,,,,,,,,,,,,,,,,,,,,,,,,,,,,,,,,,,,,,,,,,,,,,,,,,,,,,,,,,,,,,,,,,,,,,,,,,,,,,,,,,,,,,,,,,,,,,,,,,,,,,,,,,,,,,,,,,,,,,,,,,,,,,,,,,,,,,,,,,,,,,,
0,72,72,79,1,,608e66a90accb5f38c30ff64,62c539d1090ffd6a618437f5,2022-07-06_10h29.54.653,Colour_Asymmetry_Pilot,2022.1.3,Win32,59.99880002,62c50e9c1127f2cd403a315f,,,,,,,,,,,,,,,,,,,,,,,,,,,,,,,,,,,,,,,,,,,,,,,,,,,,,,,,,,,,,,,,,,,,,,,,,,,,,,,,,,,,,,,,,,,,,,,,,,,,,,,,,,,,,,,,,,,,,,,,,,,,,,,,,,,,,,,,,,,,,,,,,,,,,,,,,,,,,,,,,,
0,73,73,87,1,,608e66a90accb5f38c30ff64,62c539d1090ffd6a618437f5,2022-07-06_10h29.54.653,Colour_Asymmetry_Pilot,2022.1.3,Win32,59.99880002,62c50e9c1127f2cd403a315f,,,,,,,,,,,,,,,,,,,,,,,,,,,,,,,,,,,,,,,,,,,,,,,,,,,,,,,,,,,,,,,,,,,,,,,,,,,,,,,,,,,,,,,,,,,,,,,,,,,,,,,,,,,,,,,,,,,,,,,,,,,,,,,,,,,,,,,,,,,,,,,,,,,,,,,,,,,,,,,,,,
0,74,74,14,1,,608e66a90accb5f38c30ff64,62c539d1090ffd6a618437f5,2022-07-06_10h29.54.653,Colour_Asymmetry_Pilot,2022.1.3,Win32,59.99880002,62c50e9c1127f2cd403a315f,,,,,,,,,,,,,,,,,,,,,,,,,,,,,,,,,,,,,,,,,,,,,,,,,,,,,,,,,,,,,,,,,,,,,,,,,,,,,,,,,,,,,,,,,,,,,,,,,,,,,,,,,,,,,,,,,,,,,,,,,,,,,,,,,,,,,,,,,,,,,,,,,,,,,,,,,,,,,,,,,,
0,75,75,83,1,,608e66a90accb5f38c30ff64,62c539d1090ffd6a618437f5,2022-07-06_10h29.54.653,Colour_Asymmetry_Pilot,2022.1.3,Win32,59.99880002,62c50e9c1127f2cd403a315f,,,,,,,,,,,,,,,,,,,,,,,,,,,,,,,,,,,,,,,,,,,,,,,,,,,,,,,,,,,,,,,,,,,,,,,,,,,,,,,,,,,,,,,,,,,,,,,,,,,,,,,,,,,,,,,,,,,,,,,,,,,,,,,,,,,,,,,,,,,,,,,,,,,,,,,,,,,,,,,,,,
0,76,76,89,1,,608e66a90accb5f38c30ff64,62c539d1090ffd6a618437f5,2022-07-06_10h29.54.653,Colour_Asymmetry_Pilot,2022.1.3,Win32,59.99880002,62c50e9c1127f2cd403a315f,,,,,,,,,,,,,,,,,,,,,,,,,,,,,,,,,,,,,,,,,,,,,,,,,,,,,,,,,,,,,,,,,,,,,,,,,,,,,,,,,,,,,,,,,,,,,,,,,,,,,,,,,,,,,,,,,,,,,,,,,,,,,,,,,,,,,,,,,,,,,,,,,,,,,,,,,,,,,,,,,,
0,77,77,84,1,,608e66a90accb5f38c30ff64,62c539d1090ffd6a618437f5,2022-07-06_10h29.54.653,Colour_Asymmetry_Pilot,2022.1.3,Win32,59.99880002,62c50e9c1127f2cd403a315f,,,,,,,,,,,,,,,,,,,,,,,,,,,,,,,,,,,,,,,,,,,,,,,,,,,,,,,,,,,,,,,,,,,,,,,,,,,,,,,,,,,,,,,,,,,,,,,,,,,,,,,,,,,,,,,,,,,,,,,,,,,,,,,,,,,,,,,,,,,,,,,,,,,,,,,,,,,,,,,,,,
0,78,78,28,1,,608e66a90accb5f38c30ff64,62c539d1090ffd6a618437f5,2022-07-06_10h29.54.653,Colour_Asymmetry_Pilot,2022.1.3,Win32,59.99880002,62c50e9c1127f2cd403a315f,,,,,,,,,,,,,,,,,,,,,,,,,,,,,,,,,,,,,,,,,,,,,,,,,,,,,,,,,,,,,,,,,,,,,,,,,,,,,,,,,,,,,,,,,,,,,,,,,,,,,,,,,,,,,,,,,,,,,,,,,,,,,,,,,,,,,,,,,,,,,,,,,,,,,,,,,,,,,,,,,,
0,79,79,68,1,,608e66a90accb5f38c30ff64,62c539d1090ffd6a618437f5,2022-07-06_10h29.54.653,Colour_Asymmetry_Pilot,2022.1.3,Win32,59.99880002,62c50e9c1127f2cd403a315f,,,,,,,,,,,,,,,,,,,,,,,,,,,,,,,,,,,,,,,,,,,,,,,,,,,,,,,,,,,,,,,,,,,,,,,,,,,,,,,,,,,,,,,,,,,,,,,,,,,,,,,,,,,,,,,,,,,,,,,,,,,,,,,,,,,,,,,,,,,,,,,,,,,,,,,,,,,,,,,,,,
0,80,80,27,1,,608e66a90accb5f38c30ff64,62c539d1090ffd6a618437f5,2022-07-06_10h29.54.653,Colour_Asymmetry_Pilot,2022.1.3,Win32,59.99880002,62c50e9c1127f2cd403a315f,,,,,,,,,,,,,,,,,,,,,,,,,,,,,,,,,,,,,,,,,,,,,,,,,,,,,,,,,,,,,,,,,,,,,,,,,,,,,,,,,,,,,,,,,,,,,,,,,,,,,,,,,,,,,,,,,,,,,,,,,,,,,,,,,,,,,,,,,,,,,,,,,,,,,,,,,,,,,,,,,,
0,81,81,70,1,,608e66a90accb5f38c30ff64,62c539d1090ffd6a618437f5,2022-07-06_10h29.54.653,Colour_Asymmetry_Pilot,2022.1.3,Win32,59.99880002,62c50e9c1127f2cd403a315f,,,,,,,,,,,,,,,,,,,,,,,,,,,,,,,,,,,,,,,,,,,,,,,,,,,,,,,,,,,,,,,,,,,,,,,,,,,,,,,,,,,,,,,,,,,,,,,,,,,,,,,,,,,,,,,,,,,,,,,,,,,,,,,,,,,,,,,,,,,,,,,,,,,,,,,,,,,,,,,,,,
0,82,82,32,1,,608e66a90accb5f38c30ff64,62c539d1090ffd6a618437f5,2022-07-06_10h29.54.653,Colour_Asymmetry_Pilot,2022.1.3,Win32,59.99880002,62c50e9c1127f2cd403a315f,,,,,,,,,,,,,,,,,,,,,,,,,,,,,,,,,,,,,,,,,,,,,,,,,,,,,,,,,,,,,,,,,,,,,,,,,,,,,,,,,,,,,,,,,,,,,,,,,,,,,,,,,,,,,,,,,,,,,,,,,,,,,,,,,,,,,,,,,,,,,,,,,,,,,,,,,,,,,,,,,,
0,83,83,57,1,,608e66a90accb5f38c30ff64,62c539d1090ffd6a618437f5,2022-07-06_10h29.54.653,Colour_Asymmetry_Pilot,2022.1.3,Win32,59.99880002,62c50e9c1127f2cd403a315f,,,,,,,,,,,,,,,,,,,,,,,,,,,,,,,,,,,,,,,,,,,,,,,,,,,,,,,,,,,,,,,,,,,,,,,,,,,,,,,,,,,,,,,,,,,,,,,,,,,,,,,,,,,,,,,,,,,,,,,,,,,,,,,,,,,,,,,,,,,,,,,,,,,,,,,,,,,,,,,,,,
0,84,84,9,1,,608e66a90accb5f38c30ff64,62c539d1090ffd6a618437f5,2022-07-06_10h29.54.653,Colour_Asymmetry_Pilot,2022.1.3,Win32,59.99880002,62c50e9c1127f2cd403a315f,,,,,,,,,,,,,,,,,,,,,,,,,,,,,,,,,,,,,,,,,,,,,,,,,,,,,,,,,,,,,,,,,,,,,,,,,,,,,,,,,,,,,,,,,,,,,,,,,,,,,,,,,,,,,,,,,,,,,,,,,,,,,,,,,,,,,,,,,,,,,,,,,,,,,,,,,,,,,,,,,,
0,85,85,72,1,,608e66a90accb5f38c30ff64,62c539d1090ffd6a618437f5,2022-07-06_10h29.54.653,Colour_Asymmetry_Pilot,2022.1.3,Win32,59.99880002,62c50e9c1127f2cd403a315f,,,,,,,,,,,,,,,,,,,,,,,,,,,,,,,,,,,,,,,,,,,,,,,,,,,,,,,,,,,,,,,,,,,,,,,,,,,,,,,,,,,,,,,,,,,,,,,,,,,,,,,,,,,,,,,,,,,,,,,,,,,,,,,,,,,,,,,,,,,,,,,,,,,,,,,,,,,,,,,,,,
0,86,86,55,1,,608e66a90accb5f38c30ff64,62c539d1090ffd6a618437f5,2022-07-06_10h29.54.653,Colour_Asymmetry_Pilot,2022.1.3,Win32,59.99880002,62c50e9c1127f2cd403a315f,,,,,,,,,,,,,,,,,,,,,,,,,,,,,,,,,,,,,,,,,,,,,,,,,,,,,,,,,,,,,,,,,,,,,,,,,,,,,,,,,,,,,,,,,,,,,,,,,,,,,,,,,,,,,,,,,,,,,,,,,,,,,,,,,,,,,,,,,,,,,,,,,,,,,,,,,,,,,,,,,,
0,87,87,43,1,,608e66a90accb5f38c30ff64,62c539d1090ffd6a618437f5,2022-07-06_10h29.54.653,Colour_Asymmetry_Pilot,2022.1.3,Win32,59.99880002,62c50e9c1127f2cd403a315f,,,,,,,,,,,,,,,,,,,,,,,,,,,,,,,,,,,,,,,,,,,,,,,,,,,,,,,,,,,,,,,,,,,,,,,,,,,,,,,,,,,,,,,,,,,,,,,,,,,,,,,,,,,,,,,,,,,,,,,,,,,,,,,,,,,,,,,,,,,,,,,,,,,,,,,,,,,,,,,,,,
0,88,88,6,1,,608e66a90accb5f38c30ff64,62c539d1090ffd6a618437f5,2022-07-06_10h29.54.653,Colour_Asymmetry_Pilot,2022.1.3,Win32,59.99880002,62c50e9c1127f2cd403a315f,,,,,,,,,,,,,,,,,,,,,,,,,,,,,,,,,,,,,,,,,,,,,,,,,,,,,,,,,,,,,,,,,,,,,,,,,,,,,,,,,,,,,,,,,,,,,,,,,,,,,,,,,,,,,,,,,,,,,,,,,,,,,,,,,,,,,,,,,,,,,,,,,,,,,,,,,,,,,,,,,,
0,89,89,42,1,,608e66a90accb5f38c30ff64,62c539d1090ffd6a618437f5,2022-07-06_10h29.54.653,Colour_Asymmetry_Pilot,2022.1.3,Win32,59.99880002,62c50e9c1127f2cd403a315f,,,,,,,,,,,,,,,,,,,,,,,,,,,,,,,,,,,,,,,,,,,,,,,,,,,,,,,,,,,,,,,,,,,,,,,,,,,,,,,,,,,,,,,,,,,,,,,,,,,,,,,,,,,,,,,,,,,,,,,,,,,,,,,,,,,,,,,,,,,,,,,,,,,,,,,,,,,,,,,,,,
0,90,90,78,1,,608e66a90accb5f38c30ff64,62c539d1090ffd6a618437f5,2022-07-06_10h29.54.653,Colour_Asymmetry_Pilot,2022.1.3,Win32,59.99880002,62c50e9c1127f2cd403a315f,,,,,,,,,,,,,,,,,,,,,,,,,,,,,,,,,,,,,,,,,,,,,,,,,,,,,,,,,,,,,,,,,,,,,,,,,,,,,,,,,,,,,,,,,,,,,,,,,,,,,,,,,,,,,,,,,,,,,,,,,,,,,,,,,,,,,,,,,,,,,,,,,,,,,,,,,,,,,,,,,,
0,91,91,2,1,,608e66a90accb5f38c30ff64,62c539d1090ffd6a618437f5,2022-07-06_10h29.54.653,Colour_Asymmetry_Pilot,2022.1.3,Win32,59.99880002,62c50e9c1127f2cd403a315f,,,,,,,,,,,,,,,,,,,,,,,,,,,,,,,,,,,,,,,,,,,,,,,,,,,,,,,,,,,,,,,,,,,,,,,,,,,,,,,,,,,,,,,,,,,,,,,,,,,,,,,,,,,,,,,,,,,,,,,,,,,,,,,,,,,,,,,,,,,,,,,,,,,,,,,,,,,,,,,,,,
0,92,92,66,1,,608e66a90accb5f38c30ff64,62c539d1090ffd6a618437f5,2022-07-06_10h29.54.653,Colour_Asymmetry_Pilot,2022.1.3,Win32,59.99880002,62c50e9c1127f2cd403a315f,,,,,,,,,,,,,,,,,,,,,,,,,,,,,,,,,,,,,,,,,,,,,,,,,,,,,,,,,,,,,,,,,,,,,,,,,,,,,,,,,,,,,,,,,,,,,,,,,,,,,,,,,,,,,,,,,,,,,,,,,,,,,,,,,,,,,,,,,,,,,,,,,,,,,,,,,,,,,,,,,,
,,,,,,608e66a90accb5f38c30ff64,62c539d1090ffd6a618437f5,2022-07-06_10h29.54.653,Colour_Asymmetry_Pilot,2022.1.3,Win32,59.99880002,62c50e9c1127f2cd403a315f,0,0,0,1,1,onethree,,,,,,,,,,,,,,,,,,,,,,,,,,,,,,,,,,,,,,,,,,,,,,,,,,,,,,,,,,,,,,,,,,,,,,,,,,,,,,,,,,,,,,,,,,,,,,,,,,,,,,,,,,,,,,,,,,,,,,,,,,,,,,,,,,,,,,,,,,,,,,,,,,,,,,,,,,,,
,,,,,,608e66a90accb5f38c30ff64,62c539d1090ffd6a618437f5,2022-07-06_10h29.54.653,Colour_Asymmetry_Pilot,2022.1.3,Win32,59.99880002,62c50e9c1127f2cd403a315f,0,1,1,30,1,fourtwo,,,,,,,,,,,,,,,,,,,,,,,,,,,,,,,,,,,,,,,,,,,,,,,,,,,,,,,,,,,,,,,,,,,,,,,,,,,,,,,,,,,,,,,,,,,,,,,,,,,,,,,,,,,,,,,,,,,,,,,,,,,,,,,,,,,,,,,,,,,,,,,,,,,,,,,,,,,,
,,,,,,608e66a90accb5f38c30ff64,62c539d1090ffd6a618437f5,2022-07-06_10h29.54.653,Colour_Asymmetry_Pilot,2022.1.3,Win32,59.99880002,62c50e9c1127f2cd403a315f,0,2,2,88,1,onetwo,,,,,,,,,,,,,,,,,,,,,,,,,,,,,,,,,,,,,,,,,,,,,,,,,,,,,,,,,,,,,,,,,,,,,,,,,,,,,,,,,,,,,,,,,,,,,,,,,,,,,,,,,,,,,,,,,,,,,,,,,,,,,,,,,,,,,,,,,,,,,,,,,,,,,,,,,,,,
,,,,,,608e66a90accb5f38c30ff64,62c539d1090ffd6a618437f5,2022-07-06_10h29.54.653,Colour_Asymmetry_Pilot,2022.1.3,Win32,59.99880002,62c50e9c1127f2cd403a315f,0,3,3,128,1,onetwo,,,,,,,,,,,,,,,,,,,,,,,,,,,,,,,,,,,,,,,,,,,,,,,,,,,,,,,,,,,,,,,,,,,,,,,,,,,,,,,,,,,,,,,,,,,,,,,,,,,,,,,,,,,,,,,,,,,,,,,,,,,,,,,,,,,,,,,,,,,,,,,,,,,,,,,,,,,,
,,,,,,608e66a90accb5f38c30ff64,62c539d1090ffd6a618437f5,2022-07-06_10h29.54.653,Colour_Asymmetry_Pilot,2022.1.3,Win32,59.99880002,62c50e9c1127f2cd403a315f,0,4,4,114,1,twoone,,,,,,,,,,,,,,,,,,,,,,,,,,,,,,,,,,,,,,,,,,,,,,,,,,,,,,,,,,,,,,,,,,,,,,,,,,,,,,,,,,,,,,,,,,,,,,,,,,,,,,,,,,,,,,,,,,,,,,,,,,,,,,,,,,,,,,,,,,,,,,,,,,,,,,,,,,,,
,,,,,,608e66a90accb5f38c30ff64,62c539d1090ffd6a618437f5,2022-07-06_10h29.54.653,Colour_Asymmetry_Pilot,2022.1.3,Win32,59.99880002,62c50e9c1127f2cd403a315f,0,5,5,140,1,threeone,,,,,,,,,,,,,,,,,,,,,,,,,,,,,,,,,,,,,,,,,,,,,,,,,,,,,,,,,,,,,,,,,,,,,,,,,,,,,,,,,,,,,,,,,,,,,,,,,,,,,,,,,,,,,,,,,,,,,,,,,,,,,,,,,,,,,,,,,,,,,,,,,,,,,,,,,,,,
,,,,,,608e66a90accb5f38c30ff64,62c539d1090ffd6a618437f5,2022-07-06_10h29.54.653,Colour_Asymmetry_Pilot,2022.1.3,Win32,59.99880002,62c50e9c1127f2cd403a315f,0,6,6,2,1,twoone,,,,,,,,,,,,,,,,,,,,,,,,,,,,,,,,,,,,,,,,,,,,,,,,,,,,,,,,,,,,,,,,,,,,,,,,,,,,,,,,,,,,,,,,,,,,,,,,,,,,,,,,,,,,,,,,,,,,,,,,,,,,,,,,,,,,,,,,,,,,,,,,,,,,,,,,,,,,
,,,,,,608e66a90accb5f38c30ff64,62c539d1090ffd6a618437f5,2022-07-06_10h29.54.653,Colour_Asymmetry_Pilot,2022.1.3,Win32,59.99880002,62c50e9c1127f2cd403a315f,0,7,7,143,1,fourthree,,,,,,,,,,,,,,,,,,,,,,,,,,,,,,,,,,,,,,,,,,,,,,,,,,,,,,,,,,,,,,,,,,,,,,,,,,,,,,,,,,,,,,,,,,,,,,,,,,,,,,,,,,,,,,,,,,,,,,,,,,,,,,,,,,,,,,,,,,,,,,,,,,,,,,,,,,,,
,,,,,,608e66a90accb5f38c30ff64,62c539d1090ffd6a618437f5,2022-07-06_10h29.54.653,Colour_Asymmetry_Pilot,2022.1.3,Win32,59.99880002,62c50e9c1127f2cd403a315f,0,8,8,126,1,fourtwo,,,,,,,,,,,,,,,,,,,,,,,,,,,,,,,,,,,,,,,,,,,,,,,,,,,,,,,,,,,,,,,,,,,,,,,,,,,,,,,,,,,,,,,,,,,,,,,,,,,,,,,,,,,,,,,,,,,,,,,,,,,,,,,,,,,,,,,,,,,,,,,,,,,,,,,,,,,,
,,,,,,608e66a90accb5f38c30ff64,62c539d1090ffd6a618437f5,2022-07-06_10h29.54.653,Colour_Asymmetry_Pilot,2022.1.3,Win32,59.99880002,62c50e9c1127f2cd403a315f,0,9,9,9,1,onethree,,,,,,,,,,,,,,,,,,,,,,,,,,,,,,,,,,,,,,,,,,,,,,,,,,,,,,,,,,,,,,,,,,,,,,,,,,,,,,,,,,,,,,,,,,,,,,,,,,,,,,,,,,,,,,,,,,,,,,,,,,,,,,,,,,,,,,,,,,,,,,,,,,,,,,,,,,,,
,,,,,,608e66a90accb5f38c30ff64,62c539d1090ffd6a618437f5,2022-07-06_10h29.54.653,Colour_Asymmetry_Pilot,2022.1.3,Win32,59.99880002,62c50e9c1127f2cd403a315f,0,10,10,77,1,threefour,,,,,,,,,,,,,,,,,,,,,,,,,,,,,,,,,,,,,,,,,,,,,,,,,,,,,,,,,,,,,,,,,,,,,,,,,,,,,,,,,,,,,,,,,,,,,,,,,,,,,,,,,,,,,,,,,,,,,,,,,,,,,,,,,,,,,,,,,,,,,,,,,,,,,,,,,,,,
,,,,,,608e66a90accb5f38c30ff64,62c539d1090ffd6a618437f5,2022-07-06_10h29.54.653,Colour_Asymmetry_Pilot,2022.1.3,Win32,59.99880002,62c50e9c1127f2cd403a315f,0,11,11,20,1,threeone,,,,,,,,,,,,,,,,,,,,,,,,,,,,,,,,,,,,,,,,,,,,,,,,,,,,,,,,,,,,,,,,,,,,,,,,,,,,,,,,,,,,,,,,,,,,,,,,,,,,,,,,,,,,,,,,,,,,,,,,,,,,,,,,,,,,,,,,,,,,,,,,,,,,,,,,,,,,
,,,,,,608e66a90accb5f38c30ff64,62c539d1090ffd6a618437f5,2022-07-06_10h29.54.653,Colour_Asymmetry_Pilot,2022.1.3,Win32,59.99880002,62c50e9c1127f2cd403a315f,0,12,12,136,1,onetwo,,,,,,,,,,,,,,,,,,,,,,,,,,,,,,,,,,,,,,,,,,,,,,,,,,,,,,,,,,,,,,,,,,,,,,,,,,,,,,,,,,,,,,,,,,,,,,,,,,,,,,,,,,,,,,,,,,,,,,,,,,,,,,,,,,,,,,,,,,,,,,,,,,,,,,,,,,,,
,,,,,,608e66a90accb5f38c30ff64,62c539d1090ffd6a618437f5,2022-07-06_10h29.54.653,Colour_Asymmetry_Pilot,2022.1.3,Win32,59.99880002,62c50e9c1127f2cd403a315f,0,13,13,76,1,threeone,,,,,,,,,,,,,,,,,,,,,,,,,,,,,,,,,,,,,,,,,,,,,,,,,,,,,,,,,,,,,,,,,,,,,,,,,,,,,,,,,,,,,,,,,,,,,,,,,,,,,,,,,,,,,,,,,,,,,,,,,,,,,,,,,,,,,,,,,,,,,,,,,,,,,,,,,,,,
,,,,,,608e66a90accb5f38c30ff64,62c539d1090ffd6a618437f5,2022-07-06_10h29.54.653,Colour_Asymmetry_Pilot,2022.1.3,Win32,59.99880002,62c50e9c1127f2cd403a315f,0,14,14,36,1,threeone,,,,,,,,,,,,,,,,,,,,,,,,,,,,,,,,,,,,,,,,,,,,,,,,,,,,,,,,,,,,,,,,,,,,,,,,,,,,,,,,,,,,,,,,,,,,,,,,,,,,,,,,,,,,,,,,,,,,,,,,,,,,,,,,,,,,,,,,,,,,,,,,,,,,,,,,,,,,
,,,,,,608e66a90accb5f38c30ff64,62c539d1090ffd6a618437f5,2022-07-06_10h29.54.653,Colour_Asymmetry_Pilot,2022.1.3,Win32,59.99880002,62c50e9c1127f2cd403a315f,0,15,15,104,1,onetwo,,,,,,,,,,,,,,,,,,,,,,,,,,,,,,,,,,,,,,,,,,,,,,,,,,,,,,,,,,,,,,,,,,,,,,,,,,,,,,,,,,,,,,,,,,,,,,,,,,,,,,,,,,,,,,,,,,,,,,,,,,,,,,,,,,,,,,,,,,,,,,,,,,,,,,,,,,,,
,,,,,,608e66a90accb5f38c30ff64,62c539d1090ffd6a618437f5,2022-07-06_10h29.54.653,Colour_Asymmetry_Pilot,2022.1.3,Win32,59.99880002,62c50e9c1127f2cd403a315f,0,16,16,69,1,threefour,,,,,,,,,,,,,,,,,,,,,,,,,,,,,,,,,,,,,,,,,,,,,,,,,,,,,,,,,,,,,,,,,,,,,,,,,,,,,,,,,,,,,,,,,,,,,,,,,,,,,,,,,,,,,,,,,,,,,,,,,,,,,,,,,,,,,,,,,,,,,,,,,,,,,,,,,,,,
,,,,,,608e66a90accb5f38c30ff64,62c539d1090ffd6a618437f5,2022-07-06_10h29.54.653,Colour_Asymmetry_Pilot,2022.1.3,Win32,59.99880002,62c50e9c1127f2cd403a315f,0,17,17,29,1,threefour,,,,,,,,,,,,,,,,,,,,,,,,,,,,,,,,,,,,,,,,,,,,,,,,,,,,,,,,,,,,,,,,,,,,,,,,,,,,,,,,,,,,,,,,,,,,,,,,,,,,,,,,,,,,,,,,,,,,,,,,,,,,,,,,,,,,,,,,,,,,,,,,,,,,,,,,,,,,
,,,,,,608e66a90accb5f38c30ff64,62c539d1090ffd6a618437f5,2022-07-06_10h29.54.653,Colour_Asymmetry_Pilot,2022.1.3,Win32,59.99880002,62c50e9c1127f2cd403a315f,0,18,18,130,1,twoone,,,,,,,,,,,,,,,,,,,,,,,,,,,,,,,,,,,,,,,,,,,,,,,,,,,,,,,,,,,,,,,,,,,,,,,,,,,,,,,,,,,,,,,,,,,,,,,,,,,,,,,,,,,,,,,,,,,,,,,,,,,,,,,,,,,,,,,,,,,,,,,,,,,,,,,,,,,,
,,,,,,608e66a90accb5f38c30ff64,62c539d1090ffd6a618437f5,2022-07-06_10h29.54.653,Colour_Asymmetry_Pilot,2022.1.3,Win32,59.99880002,62c50e9c1127f2cd403a315f,0,19,19,142,1,fourtwo,,,,,,,,,,,,,,,,,,,,,,,,,,,,,,,,,,,,,,,,,,,,,,,,,,,,,,,,,,,,,,,,,,,,,,,,,,,,,,,,,,,,,,,,,,,,,,,,,,,,,,,,,,,,,,,,,,,,,,,,,,,,,,,,,,,,,,,,,,,,,,,,,,,,,,,,,,,,
,,,,,,608e66a90accb5f38c30ff64,62c539d1090ffd6a618437f5,2022-07-06_10h29.54.653,Colour_Asymmetry_Pilot,2022.1.3,Win32,59.99880002,62c50e9c1127f2cd403a315f,0,20,20,115,1,twofour,,,,,,,,,,,,,,,,,,,,,,,,,,,,,,,,,,,,,,,,,,,,,,,,,,,,,,,,,,,,,,,,,,,,,,,,,,,,,,,,,,,,,,,,,,,,,,,,,,,,,,,,,,,,,,,,,,,,,,,,,,,,,,,,,,,,,,,,,,,,,,,,,,,,,,,,,,,,
,,,,,,608e66a90accb5f38c30ff64,62c539d1090ffd6a618437f5,2022-07-06_10h29.54.653,Colour_Asymmetry_Pilot,2022.1.3,Win32,59.99880002,62c50e9c1127f2cd403a315f,0,21,21,117,1,threefour,,,,,,,,,,,,,,,,,,,,,,,,,,,,,,,,,,,,,,,,,,,,,,,,,,,,,,,,,,,,,,,,,,,,,,,,,,,,,,,,,,,,,,,,,,,,,,,,,,,,,,,,,,,,,,,,,,,,,,,,,,,,,,,,,,,,,,,,,,,,,,,,,,,,,,,,,,,,
,,,,,,608e66a90accb5f38c30ff64,62c539d1090ffd6a618437f5,2022-07-06_10h29.54.653,Colour_Asymmetry_Pilot,2022.1.3,Win32,59.99880002,62c50e9c1127f2cd403a315f,0,22,22,118,1,fourtwo,,,,,,,,,,,,,,,,,,,,,,,,,,,,,,,,,,,,,,,,,,,,,,,,,,,,,,,,,,,,,,,,,,,,,,,,,,,,,,,,,,,,,,,,,,,,,,,,,,,,,,,,,,,,,,,,,,,,,,,,,,,,,,,,,,,,,,,,,,,,,,,,,,,,,,,,,,,,
,,,,,,608e66a90accb5f38c30ff64,62c539d1090ffd6a618437f5,2022-07-06_10h29.54.653,Colour_Asymmetry_Pilot,2022.1.3,Win32,59.99880002,62c50e9c1127f2cd403a315f,0,23,23,123,1,twofour,,,,,,,,,,,,,,,,,,,,,,,,,,,,,,,,,,,,,,,,,,,,,,,,,,,,,,,,,,,,,,,,,,,,,,,,,,,,,,,,,,,,,,,,,,,,,,,,,,,,,,,,,,,,,,,,,,,,,,,,,,,,,,,,,,,,,,,,,,,,,,,,,,,,,,,,,,,,
,,,,,,608e66a90accb5f38c30ff64,62c539d1090ffd6a618437f5,2022-07-06_10h29.54.653,Colour_Asymmetry_Pilot,2022.1.3,Win32,59.99880002,62c50e9c1127f2cd403a315f,0,24,24,105,1,onethree,,,,,,,,,,,,,,,,,,,,,,,,,,,,,,,,,,,,,,,,,,,,,,,,,,,,,,,,,,,,,,,,,,,,,,,,,,,,,,,,,,,,,,,,,,,,,,,,,,,,,,,,,,,,,,,,,,,,,,,,,,,,,,,,,,,,,,,,,,,,,,,,,,,,,,,,,,,,
,,,,,,608e66a90accb5f38c30ff64,62c539d1090ffd6a618437f5,2022-07-06_10h29.54.653,Colour_Asymmetry_Pilot,2022.1.3,Win32,59.99880002,62c50e9c1127f2cd403a315f,0,25,25,58,1,twoone,,,,,,,,,,,,,,,,,,,,,,,,,,,,,,,,,,,,,,,,,,,,,,,,,,,,,,,,,,,,,,,,,,,,,,,,,,,,,,,,,,,,,,,,,,,,,,,,,,,,,,,,,,,,,,,,,,,,,,,,,,,,,,,,,,,,,,,,,,,,,,,,,,,,,,,,,,,,
,,,,,,608e66a90accb5f38c30ff64,62c539d1090ffd6a618437f5,2022-07-06_10h29.54.653,Colour_Asymmetry_Pilot,2022.1.3,Win32,59.99880002,62c50e9c1127f2cd403a315f,0,26,26,101,1,threefour,,,,,,,,,,,,,,,,,,,,,,,,,,,,,,,,,,,,,,,,,,,,,,,,,,,,,,,,,,,,,,,,,,,,,,,,,,,,,,,,,,,,,,,,,,,,,,,,,,,,,,,,,,,,,,,,,,,,,,,,,,,,,,,,,,,,,,,,,,,,,,,,,,,,,,,,,,,,
,,,,,,608e66a90accb5f38c30ff64,62c539d1090ffd6a618437f5,2022-07-06_10h29.54.653,Colour_Asymmetry_Pilot,2022.1.3,Win32,59.99880002,62c50e9c1127f2cd403a315f,0,27,27,32,1,onetwo,,,,,,,,,,,,,,,,,,,,,,,,,,,,,,,,,,,,,,,,,,,,,,,,,,,,,,,,,,,,,,,,,,,,,,,,,,,,,,,,,,,,,,,,,,,,,,,,,,,,,,,,,,,,,,,,,,,,,,,,,,,,,,,,,,,,,,,,,,,,,,,,,,,,,,,,,,,,
,,,,,,608e66a90accb5f38c30ff64,62c539d1090ffd6a618437f5,2022-07-06_10h29.54.653,Colour_Asymmetry_Pilot,2022.1.3,Win32,59.99880002,62c50e9c1127f2cd403a315f,0,28,28,26,1,twoone,,,,,,,,,,,,,,,,,,,,,,,,,,,,,,,,,,,,,,,,,,,,,,,,,,,,,,,,,,,,,,,,,,,,,,,,,,,,,,,,,,,,,,,,,,,,,,,,,,,,,,,,,,,,,,,,,,,,,,,,,,,,,,,,,,,,,,,,,,,,,,,,,,,,,,,,,,,,
,,,,,,608e66a90accb5f38c30ff64,62c539d1090ffd6a618437f5,2022-07-06_10h29.54.653,Colour_Asymmetry_Pilot,2022.1.3,Win32,59.99880002,62c50e9c1127f2cd403a315f,0,29,29,13,1,threefour,,,,,,,,,,,,,,,,,,,,,,,,,,,,,,,,,,,,,,,,,,,,,,,,,,,,,,,,,,,,,,,,,,,,,,,,,,,,,,,,,,,,,,,,,,,,,,,,,,,,,,,,,,,,,,,,,,,,,,,,,,,,,,,,,,,,,,,,,,,,,,,,,,,,,,,,,,,,
,,,,,,608e66a90accb5f38c30ff64,62c539d1090ffd6a618437f5,2022-07-06_10h29.54.653,Colour_Asymmetry_Pilot,2022.1.3,Win32,59.99880002,62c50e9c1127f2cd403a315f,0,30,30,6,1,fourtwo,,,,,,,,,,,,,,,,,,,,,,,,,,,,,,,,,,,,,,,,,,,,,,,,,,,,,,,,,,,,,,,,,,,,,,,,,,,,,,,,,,,,,,,,,,,,,,,,,,,,,,,,,,,,,,,,,,,,,,,,,,,,,,,,,,,,,,,,,,,,,,,,,,,,,,,,,,,,
,,,,,,608e66a90accb5f38c30ff64,62c539d1090ffd6a618437f5,2022-07-06_10h29.54.653,Colour_Asymmetry_Pilot,2022.1.3,Win32,59.99880002,62c50e9c1127f2cd403a315f,0,31,31,161,1,onethree,,,,,,,,,,,,,,,,,,,,,,,,,,,,,,,,,,,,,,,,,,,,,,,,,,,,,,,,,,,,,,,,,,,,,,,,,,,,,,,,,,,,,,,,,,,,,,,,,,,,,,,,,,,,,,,,,,,,,,,,,,,,,,,,,,,,,,,,,,,,,,,,,,,,,,,,,,,,
,,,,,,608e66a90accb5f38c30ff64,62c539d1090ffd6a618437f5,2022-07-06_10h29.54.653,Colour_Asymmetry_Pilot,2022.1.3,Win32,59.99880002,62c50e9c1127f2cd403a315f,0,32,32,146,1,twoone,,,,,,,,,,,,,,,,,,,,,,,,,,,,,,,,,,,,,,,,,,,,,,,,,,,,,,,,,,,,,,,,,,,,,,,,,,,,,,,,,,,,,,,,,,,,,,,,,,,,,,,,,,,,,,,,,,,,,,,,,,,,,,,,,,,,,,,,,,,,,,,,,,,,,,,,,,,,
,,,,,,608e66a90accb5f38c30ff64,62c539d1090ffd6a618437f5,2022-07-06_10h29.54.653,Colour_Asymmetry_Pilot,2022.1.3,Win32,59.99880002,62c50e9c1127f2cd403a315f,0,33,33,75,1,twofour,,,,,,,,,,,,,,,,,,,,,,,,,,,,,,,,,,,,,,,,,,,,,,,,,,,,,,,,,,,,,,,,,,,,,,,,,,,,,,,,,,,,,,,,,,,,,,,,,,,,,,,,,,,,,,,,,,,,,,,,,,,,,,,,,,,,,,,,,,,,,,,,,,,,,,,,,,,,
,,,,,,608e66a90accb5f38c30ff64,62c539d1090ffd6a618437f5,2022-07-06_10h29.54.653,Colour_Asymmetry_Pilot,2022.1.3,Win32,59.99880002,62c50e9c1127f2cd403a315f,0,34,34,59,1,twofour,,,,,,,,,,,,,,,,,,,,,,,,,,,,,,,,,,,,,,,,,,,,,,,,,,,,,,,,,,,,,,,,,,,,,,,,,,,,,,,,,,,,,,,,,,,,,,,,,,,,,,,,,,,,,,,,,,,,,,,,,,,,,,,,,,,,,,,,,,,,,,,,,,,,,,,,,,,,
,,,,,,608e66a90accb5f38c30ff64,62c539d1090ffd6a618437f5,2022-07-06_10h29.54.653,Colour_Asymmetry_Pilot,2022.1.3,Win32,59.99880002,62c50e9c1127f2cd403a315f,0,35,35,159,1,fourthree,,,,,,,,,,,,,,,,,,,,,,,,,,,,,,,,,,,,,,,,,,,,,,,,,,,,,,,,,,,,,,,,,,,,,,,,,,,,,,,,,,,,,,,,,,,,,,,,,,,,,,,,,,,,,,,,,,,,,,,,,,,,,,,,,,,,,,,,,,,,,,,,,,,,,,,,,,,,
,,,,,,608e66a90accb5f38c30ff64,62c539d1090ffd6a618437f5,2022-07-06_10h29.54.653,Colour_Asymmetry_Pilot,2022.1.3,Win32,59.99880002,62c50e9c1127f2cd403a315f,0,36,36,107,1,twofour,,,,,,,,,,,,,,,,,,,,,,,,,,,,,,,,,,,,,,,,,,,,,,,,,,,,,,,,,,,,,,,,,,,,,,,,,,,,,,,,,,,,,,,,,,,,,,,,,,,,,,,,,,,,,,,,,,,,,,,,,,,,,,,,,,,,,,,,,,,,,,,,,,,,,,,,,,,,
,,,,,,608e66a90accb5f38c30ff64,62c539d1090ffd6a618437f5,2022-07-06_10h29.54.653,Colour_Asymmetry_Pilot,2022.1.3,Win32,59.99880002,62c50e9c1127f2cd403a315f,0,37,37,11,1,twofour,,,,,,,,,,,,,,,,,,,,,,,,,,,,,,,,,,,,,,,,,,,,,,,,,,,,,,,,,,,,,,,,,,,,,,,,,,,,,,,,,,,,,,,,,,,,,,,,,,,,,,,,,,,,,,,,,,,,,,,,,,,,,,,,,,,,,,,,,,,,,,,,,,,,,,,,,,,,
,,,,,,608e66a90accb5f38c30ff64,62c539d1090ffd6a618437f5,2022-07-06_10h29.54.653,Colour_Asymmetry_Pilot,2022.1.3,Win32,59.99880002,62c50e9c1127f2cd403a315f,0,38,38,4,1,threeone,,,,,,,,,,,,,,,,,,,,,,,,,,,,,,,,,,,,,,,,,,,,,,,,,,,,,,,,,,,,,,,,,,,,,,,,,,,,,,,,,,,,,,,,,,,,,,,,,,,,,,,,,,,,,,,,,,,,,,,,,,,,,,,,,,,,,,,,,,,,,,,,,,,,,,,,,,,,
,,,,,,608e66a90accb5f38c30ff64,62c539d1090ffd6a618437f5,2022-07-06_10h29.54.653,Colour_Asymmetry_Pilot,2022.1.3,Win32,59.99880002,62c50e9c1127f2cd403a315f,0,39,39,111,1,fourthree,,,,,,,,,,,,,,,,,,,,,,,,,,,,,,,,,,,,,,,,,,,,,,,,,,,,,,,,,,,,,,,,,,,,,,,,,,,,,,,,,,,,,,,,,,,,,,,,,,,,,,,,,,,,,,,,,,,,,,,,,,,,,,,,,,,,,,,,,,,,,,,,,,,,,,,,,,,,
,,,,,,608e66a90accb5f38c30ff64,62c539d1090ffd6a618437f5,2022-07-06_10h29.54.653,Colour_Asymmetry_Pilot,2022.1.3,Win32,59.99880002,62c50e9c1127f2cd403a315f,0,40,40,84,1,threeone,,,,,,,,,,,,,,,,,,,,,,,,,,,,,,,,,,,,,,,,,,,,,,,,,,,,,,,,,,,,,,,,,,,,,,,,,,,,,,,,,,,,,,,,,,,,,,,,,,,,,,,,,,,,,,,,,,,,,,,,,,,,,,,,,,,,,,,,,,,,,,,,,,,,,,,,,,,,
,,,,,,608e66a90accb5f38c30ff64,62c539d1090ffd6a618437f5,2022-07-06_10h29.54.653,Colour_Asymmetry_Pilot,2022.1.3,Win32,59.99880002,62c50e9c1127f2cd403a315f,0,41,41,150,1,fourtwo,,,,,,,,,,,,,,,,,,,,,,,,,,,,,,,,,,,,,,,,,,,,,,,,,,,,,,,,,,,,,,,,,,,,,,,,,,,,,,,,,,,,,,,,,,,,,,,,,,,,,,,,,,,,,,,,,,,,,,,,,,,,,,,,,,,,,,,,,,,,,,,,,,,,,,,,,,,,
,,,,,,608e66a90accb5f38c30ff64,62c539d1090ffd6a618437f5,2022-07-06_10h29.54.653,Colour_Asymmetry_Pilot,2022.1.3,Win32,59.99880002,62c50e9c1127f2cd403a315f,0,42,42,102,1,fourtwo,,,,,,,,,,,,,,,,,,,,,,,,,,,,,,,,,,,,,,,,,,,,,,,,,,,,,,,,,,,,,,,,,,,,,,,,,,,,,,,,,,,,,,,,,,,,,,,,,,,,,,,,,,,,,,,,,,,,,,,,,,,,,,,,,,,,,,,,,,,,,,,,,,,,,,,,,,,,
,,,,,,608e66a90accb5f38c30ff64,62c539d1090ffd6a618437f5,2022-07-06_10h29.54.653,Colour_Asymmetry_Pilot,2022.1.3,Win32,59.99880002,62c50e9c1127f2cd403a315f,0,43,43,31,1,fourthree,,,,,,,,,,,,,,,,,,,,,,,,,,,,,,,,,,,,,,,,,,,,,,,,,,,,,,,,,,,,,,,,,,,,,,,,,,,,,,,,,,,,,,,,,,,,,,,,,,,,,,,,,,,,,,,,,,,,,,,,,,,,,,,,,,,,,,,,,,,,,,,,,,,,,,,,,,,,
,,,,,,608e66a90accb5f38c30ff64,62c539d1090ffd6a618437f5,2022-07-06_10h29.54.653,Colour_Asymmetry_Pilot,2022.1.3,Win32,59.99880002,62c50e9c1127f2cd403a315f,0,44,44,67,1,twofour,,,,,,,,,,,,,,,,,,,,,,,,,,,,,,,,,,,,,,,,,,,,,,,,,,,,,,,,,,,,,,,,,,,,,,,,,,,,,,,,,,,,,,,,,,,,,,,,,,,,,,,,,,,,,,,,,,,,,,,,,,,,,,,,,,,,,,,,,,,,,,,,,,,,,,,,,,,,
,,,,,,608e66a90accb5f38c30ff64,62c539d1090ffd6a618437f5,2022-07-06_10h29.54.653,Colour_Asymmetry_Pilot,2022.1.3,Win32,59.99880002,62c50e9c1127f2cd403a315f,0,45,45,33,1,onethree,,,,,,,,,,,,,,,,,,,,,,,,,,,,,,,,,,,,,,,,,,,,,,,,,,,,,,,,,,,,,,,,,,,,,,,,,,,,,,,,,,,,,,,,,,,,,,,,,,,,,,,,,,,,,,,,,,,,,,,,,,,,,,,,,,,,,,,,,,,,,,,,,,,,,,,,,,,,
,,,,,,608e66a90accb5f38c30ff64,62c539d1090ffd6a618437f5,2022-07-06_10h29.54.653,Colour_Asymmetry_Pilot,2022.1.3,Win32,59.99880002,62c50e9c1127f2cd403a315f,0,46,46,37,1,threefour,,,,,,,,,,,,,,,,,,,,,,,,,,,,,,,,,,,,,,,,,,,,,,,,,,,,,,,,,,,,,,,,,,,,,,,,,,,,,,,,,,,,,,,,,,,,,,,,,,,,,,,,,,,,,,,,,,,,,,,,,,,,,,,,,,,,,,,,,,,,,,,,,,,,,,,,,,,,
,,,,,,608e66a90accb5f38c30ff64,62c539d1090ffd6a618437f5,2022-07-06_10h29.54.653,Colour_Asymmetry_Pilot,2022.1.3,Win32,59.99880002,62c50e9c1127f2cd403a315f,0,47,47,25,1,onethree,,,,,,,,,,,,,,,,,,,,,,,,,,,,,,,,,,,,,,,,,,,,,,,,,,,,,,,,,,,,,,,,,,,,,,,,,,,,,,,,,,,,,,,,,,,,,,,,,,,,,,,,,,,,,,,,,,,,,,,,,,,,,,,,,,,,,,,,,,,,,,,,,,,,,,,,,,,,
,,,,,,608e66a90accb5f38c30ff64,62c539d1090ffd6a618437f5,2022-07-06_10h29.54.653,Colour_Asymmetry_Pilot,2022.1.3,Win32,59.99880002,62c50e9c1127f2cd403a315f,0,48,48,145,1,onethree,,,,,,,,,,,,,,,,,,,,,,,,,,,,,,,,,,,,,,,,,,,,,,,,,,,,,,,,,,,,,,,,,,,,,,,,,,,,,,,,,,,,,,,,,,,,,,,,,,,,,,,,,,,,,,,,,,,,,,,,,,,,,,,,,,,,,,,,,,,,,,,,,,,,,,,,,,,,
,,,,,,608e66a90accb5f38c30ff64,62c539d1090ffd6a618437f5,2022-07-06_10h29.54.653,Colour_Asymmetry_Pilot,2022.1.3,Win32,59.99880002,62c50e9c1127f2cd403a315f,0,49,49,135,1,fourthree,,,,,,,,,,,,,,,,,,,,,,,,,,,,,,,,,,,,,,,,,,,,,,,,,,,,,,,,,,,,,,,,,,,,,,,,,,,,,,,,,,,,,,,,,,,,,,,,,,,,,,,,,,,,,,,,,,,,,,,,,,,,,,,,,,,,,,,,,,,,,,,,,,,,,,,,,,,,
,,,,,,608e66a90accb5f38c30ff64,62c539d1090ffd6a618437f5,2022-07-06_10h29.54.653,Colour_Asymmetry_Pilot,2022.1.3,Win32,59.99880002,62c50e9c1127f2cd403a315f,0,50,50,80,1,onetwo,,,,,,,,,,,,,,,,,,,,,,,,,,,,,,,,,,,,,,,,,,,,,,,,,,,,,,,,,,,,,,,,,,,,,,,,,,,,,,,,,,,,,,,,,,,,,,,,,,,,,,,,,,,,,,,,,,,,,,,,,,,,,,,,,,,,,,,,,,,,,,,,,,,,,,,,,,,,
,,,,,,608e66a90accb5f38c30ff64,62c539d1090ffd6a618437f5,2022-07-06_10h29.54.653,Colour_Asymmetry_Pilot,2022.1.3,Win32,59.99880002,62c50e9c1127f2cd403a315f,0,51,51,46,1,fourtwo,,,,,,,,,,,,,,,,,,,,,,,,,,,,,,,,,,,,,,,,,,,,,,,,,,,,,,,,,,,,,,,,,,,,,,,,,,,,,,,,,,,,,,,,,,,,,,,,,,,,,,,,,,,,,,,,,,,,,,,,,,,,,,,,,,,,,,,,,,,,,,,,,,,,,,,,,,,,
,,,,,,608e66a90accb5f38c30ff64,62c539d1090ffd6a618437f5,2022-07-06_10h29.54.653,Colour_Asymmetry_Pilot,2022.1.3,Win32,59.99880002,62c50e9c1127f2cd403a315f,0,52,52,156,1,threeone,,,,,,,,,,,,,,,,,,,,,,,,,,,,,,,,,,,,,,,,,,,,,,,,,,,,,,,,,,,,,,,,,,,,,,,,,,,,,,,,,,,,,,,,,,,,,,,,,,,,,,,,,,,,,,,,,,,,,,,,,,,,,,,,,,,,,,,,,,,,,,,,,,,,,,,,,,,,
,,,,,,608e66a90accb5f38c30ff64,62c539d1090ffd6a618437f5,2022-07-06_10h29.54.653,Colour_Asymmetry_Pilot,2022.1.3,Win32,59.99880002,62c50e9c1127f2cd403a315f,0,53,53,39,1,fourthree,,,,,,,,,,,,,,,,,,,,,,,,,,,,,,,,,,,,,,,,,,,,,,,,,,,,,,,,,,,,,,,,,,,,,,,,,,,,,,,,,,,,,,,,,,,,,,,,,,,,,,,,,,,,,,,,,,,,,,,,,,,,,,,,,,,,,,,,,,,,,,,,,,,,,,,,,,,,
,,,,,,608e66a90accb5f38c30ff64,62c539d1090ffd6a618437f5,2022-07-06_10h29.54.653,Colour_Asymmetry_Pilot,2022.1.3,Win32,59.99880002,62c50e9c1127f2cd403a315f,0,54,54,154,1,twoone,,,,,,,,,,,,,,,,,,,,,,,,,,,,,,,,,,,,,,,,,,,,,,,,,,,,,,,,,,,,,,,,,,,,,,,,,,,,,,,,,,,,,,,,,,,,,,,,,,,,,,,,,,,,,,,,,,,,,,,,,,,,,,,,,,,,,,,,,,,,,,,,,,,,,,,,,,,,
,,,,,,608e66a90accb5f38c30ff64,62c539d1090ffd6a618437f5,2022-07-06_10h29.54.653,Colour_Asymmetry_Pilot,2022.1.3,Win32,59.99880002,62c50e9c1127f2cd403a315f,0,55,55,60,1,threeone,,,,,,,,,,,,,,,,,,,,,,,,,,,,,,,,,,,,,,,,,,,,,,,,,,,,,,,,,,,,,,,,,,,,,,,,,,,,,,,,,,,,,,,,,,,,,,,,,,,,,,,,,,,,,,,,,,,,,,,,,,,,,,,,,,,,,,,,,,,,,,,,,,,,,,,,,,,,
,,,,,,608e66a90accb5f38c30ff64,62c539d1090ffd6a618437f5,2022-07-06_10h29.54.653,Colour_Asymmetry_Pilot,2022.1.3,Win32,59.99880002,62c50e9c1127f2cd403a315f,0,56,56,48,1,onetwo,,,,,,,,,,,,,,,,,,,,,,,,,,,,,,,,,,,,,,,,,,,,,,,,,,,,,,,,,,,,,,,,,,,,,,,,,,,,,,,,,,,,,,,,,,,,,,,,,,,,,,,,,,,,,,,,,,,,,,,,,,,,,,,,,,,,,,,,,,,,,,,,,,,,,,,,,,,,
,,,,,,608e66a90accb5f38c30ff64,62c539d1090ffd6a618437f5,2022-07-06_10h29.54.653,Colour_Asymmetry_Pilot,2022.1.3,Win32,59.99880002,62c50e9c1127f2cd403a315f,0,57,57,27,1,twofour,,,,,,,,,,,,,,,,,,,,,,,,,,,,,,,,,,,,,,,,,,,,,,,,,,,,,,,,,,,,,,,,,,,,,,,,,,,,,,,,,,,,,,,,,,,,,,,,,,,,,,,,,,,,,,,,,,,,,,,,,,,,,,,,,,,,,,,,,,,,,,,,,,,,,,,,,,,,
,,,,,,608e66a90accb5f38c30ff64,62c539d1090ffd6a618437f5,2022-07-06_10h29.54.653,Colour_Asymmetry_Pilot,2022.1.3,Win32,59.99880002,62c50e9c1127f2cd403a315f,0,58,58,116,1,threeone,,,,,,,,,,,,,,,,,,,,,,,,,,,,,,,,,,,,,,,,,,,,,,,,,,,,,,,,,,,,,,,,,,,,,,,,,,,,,,,,,,,,,,,,,,,,,,,,,,,,,,,,,,,,,,,,,,,,,,,,,,,,,,,,,,,,,,,,,,,,,,,,,,,,,,,,,,,,
,,,,,,608e66a90accb5f38c30ff64,62c539d1090ffd6a618437f5,2022-07-06_10h29.54.653,Colour_Asymmetry_Pilot,2022.1.3,Win32,59.99880002,62c50e9c1127f2cd403a315f,0,59,59,87,1,fourthree,,,,,,,,,,,,,,,,,,,,,,,,,,,,,,,,,,,,,,,,,,,,,,,,,,,,,,,,,,,,,,,,,,,,,,,,,,,,,,,,,,,,,,,,,,,,,,,,,,,,,,,,,,,,,,,,,,,,,,,,,,,,,,,,,,,,,,,,,,,,,,,,,,,,,,,,,,,,
,,,,,,608e66a90accb5f38c30ff64,62c539d1090ffd6a618437f5,2022-07-06_10h29.54.653,Colour_Asymmetry_Pilot,2022.1.3,Win32,59.99880002,62c50e9c1127f2cd403a315f,0,60,60,127,1,fourthree,,,,,,,,,,,,,,,,,,,,,,,,,,,,,,,,,,,,,,,,,,,,,,,,,,,,,,,,,,,,,,,,,,,,,,,,,,,,,,,,,,,,,,,,,,,,,,,,,,,,,,,,,,,,,,,,,,,,,,,,,,,,,,,,,,,,,,,,,,,,,,,,,,,,,,,,,,,,
,,,,,,608e66a90accb5f38c30ff64,62c539d1090ffd6a618437f5,2022-07-06_10h29.54.653,Colour_Asymmetry_Pilot,2022.1.3,Win32,59.99880002,62c50e9c1127f2cd403a315f,0,61,61,49,1,onethree,,,,,,,,,,,,,,,,,,,,,,,,,,,,,,,,,,,,,,,,,,,,,,,,,,,,,,,,,,,,,,,,,,,,,,,,,,,,,,,,,,,,,,,,,,,,,,,,,,,,,,,,,,,,,,,,,,,,,,,,,,,,,,,,,,,,,,,,,,,,,,,,,,,,,,,,,,,,
,,,,,,608e66a90accb5f38c30ff64,62c539d1090ffd6a618437f5,2022-07-06_10h29.54.653,Colour_Asymmetry_Pilot,2022.1.3,Win32,59.99880002,62c50e9c1127f2cd403a315f,0,62,62,160,1,onetwo,,,,,,,,,,,,,,,,,,,,,,,,,,,,,,,,,,,,,,,,,,,,,,,,,,,,,,,,,,,,,,,,,,,,,,,,,,,,,,,,,,,,,,,,,,,,,,,,,,,,,,,,,,,,,,,,,,,,,,,,,,,,,,,,,,,,,,,,,,,,,,,,,,,,,,,,,,,,
,,,,,,608e66a90accb5f38c30ff64,62c539d1090ffd6a618437f5,2022-07-06_10h29.54.653,Colour_Asymmetry_Pilot,2022.1.3,Win32,59.99880002,62c50e9c1127f2cd403a315f,0,63,63,94,1,fourtwo,,,,,,,,,,,,,,,,,,,,,,,,,,,,,,,,,,,,,,,,,,,,,,,,,,,,,,,,,,,,,,,,,,,,,,,,,,,,,,,,,,,,,,,,,,,,,,,,,,,,,,,,,,,,,,,,,,,,,,,,,,,,,,,,,,,,,,,,,,,,,,,,,,,,,,,,,,,,
,,,,,,608e66a90accb5f38c30ff64,62c539d1090ffd6a618437f5,2022-07-06_10h29.54.653,Colour_Asymmetry_Pilot,2022.1.3,Win32,59.99880002,62c50e9c1127f2cd403a315f,0,64,64,155,1,twofour,,,,,,,,,,,,,,,,,,,,,,,,,,,,,,,,,,,,,,,,,,,,,,,,,,,,,,,,,,,,,,,,,,,,,,,,,,,,,,,,,,,,,,,,,,,,,,,,,,,,,,,,,,,,,,,,,,,,,,,,,,,,,,,,,,,,,,,,,,,,,,,,,,,,,,,,,,,,
,,,,,,608e66a90accb5f38c30ff64,62c539d1090ffd6a618437f5,2022-07-06_10h29.54.653,Colour_Asymmetry_Pilot,2022.1.3,Win32,59.99880002,62c50e9c1127f2cd403a315f,0,65,65,125,1,threefour,,,,,,,,,,,,,,,,,,,,,,,,,,,,,,,,,,,,,,,,,,,,,,,,,,,,,,,,,,,,,,,,,,,,,,,,,,,,,,,,,,,,,,,,,,,,,,,,,,,,,,,,,,,,,,,,,,,,,,,,,,,,,,,,,,,,,,,,,,,,,,,,,,,,,,,,,,,,
,,,,,,608e66a90accb5f38c30ff64,62c539d1090ffd6a618437f5,2022-07-06_10h29.54.653,Colour_Asymmetry_Pilot,2022.1.3,Win32,59.99880002,62c50e9c1127f2cd403a315f,0,66,66,119,1,fourthree,,,,,,,,,,,,,,,,,,,,,,,,,,,,,,,,,,,,,,,,,,,,,,,,,,,,,,,,,,,,,,,,,,,,,,,,,,,,,,,,,,,,,,,,,,,,,,,,,,,,,,,,,,,,,,,,,,,,,,,,,,,,,,,,,,,,,,,,,,,,,,,,,,,,,,,,,,,,
,,,,,,608e66a90accb5f38c30ff64,62c539d1090ffd6a618437f5,2022-07-06_10h29.54.653,Colour_Asymmetry_Pilot,2022.1.3,Win32,59.99880002,62c50e9c1127f2cd403a315f,0,67,67,65,1,onethree,,,,,,,,,,,,,,,,,,,,,,,,,,,,,,,,,,,,,,,,,,,,,,,,,,,,,,,,,,,,,,,,,,,,,,,,,,,,,,,,,,,,,,,,,,,,,,,,,,,,,,,,,,,,,,,,,,,,,,,,,,,,,,,,,,,,,,,,,,,,,,,,,,,,,,,,,,,,
,,,,,,608e66a90accb5f38c30ff64,62c539d1090ffd6a618437f5,2022-07-06_10h29.54.653,Colour_Asymmetry_Pilot,2022.1.3,Win32,59.99880002,62c50e9c1127f2cd403a315f,0,68,68,79,1,fourthree,,,,,,,,,,,,,,,,,,,,,,,,,,,,,,,,,,,,,,,,,,,,,,,,,,,,,,,,,,,,,,,,,,,,,,,,,,,,,,,,,,,,,,,,,,,,,,,,,,,,,,,,,,,,,,,,,,,,,,,,,,,,,,,,,,,,,,,,,,,,,,,,,,,,,,,,,,,,
,,,,,,608e66a90accb5f38c30ff64,62c539d1090ffd6a618437f5,2022-07-06_10h29.54.653,Colour_Asymmetry_Pilot,2022.1.3,Win32,59.99880002,62c50e9c1127f2cd403a315f,0,69,69,100,1,threeone,,,,,,,,,,,,,,,,,,,,,,,,,,,,,,,,,,,,,,,,,,,,,,,,,,,,,,,,,,,,,,,,,,,,,,,,,,,,,,,,,,,,,,,,,,,,,,,,,,,,,,,,,,,,,,,,,,,,,,,,,,,,,,,,,,,,,,,,,,,,,,,,,,,,,,,,,,,,
,,,,,,608e66a90accb5f38c30ff64,62c539d1090ffd6a618437f5,2022-07-06_10h29.54.653,Colour_Asymmetry_Pilot,2022.1.3,Win32,59.99880002,62c50e9c1127f2cd403a315f,0,70,70,61,1,threefour,,,,,,,,,,,,,,,,,,,,,,,,,,,,,,,,,,,,,,,,,,,,,,,,,,,,,,,,,,,,,,,,,,,,,,,,,,,,,,,,,,,,,,,,,,,,,,,,,,,,,,,,,,,,,,,,,,,,,,,,,,,,,,,,,,,,,,,,,,,,,,,,,,,,,,,,,,,,
,,,,,,608e66a90accb5f38c30ff64,62c539d1090ffd6a618437f5,2022-07-06_10h29.54.653,Colour_Asymmetry_Pilot,2022.1.3,Win32,59.99880002,62c50e9c1127f2cd403a315f,0,71,71,89,1,onethree,,,,,,,,,,,,,,,,,,,,,,,,,,,,,,,,,,,,,,,,,,,,,,,,,,,,,,,,,,,,,,,,,,,,,,,,,,,,,,,,,,,,,,,,,,,,,,,,,,,,,,,,,,,,,,,,,,,,,,,,,,,,,,,,,,,,,,,,,,,,,,,,,,,,,,,,,,,,
,,,,,,608e66a90accb5f38c30ff64,62c539d1090ffd6a618437f5,2022-07-06_10h29.54.653,Colour_Asymmetry_Pilot,2022.1.3,Win32,59.99880002,62c50e9c1127f2cd403a315f,0,72,72,64,1,onetwo,,,,,,,,,,,,,,,,,,,,,,,,,,,,,,,,,,,,,,,,,,,,,,,,,,,,,,,,,,,,,,,,,,,,,,,,,,,,,,,,,,,,,,,,,,,,,,,,,,,,,,,,,,,,,,,,,,,,,,,,,,,,,,,,,,,,,,,,,,,,,,,,,,,,,,,,,,,,
,,,,,,608e66a90accb5f38c30ff64,62c539d1090ffd6a618437f5,2022-07-06_10h29.54.653,Colour_Asymmetry_Pilot,2022.1.3,Win32,59.99880002,62c50e9c1127f2cd403a315f,0,73,73,55,1,fourthree,,,,,,,,,,,,,,,,,,,,,,,,,,,,,,,,,,,,,,,,,,,,,,,,,,,,,,,,,,,,,,,,,,,,,,,,,,,,,,,,,,,,,,,,,,,,,,,,,,,,,,,,,,,,,,,,,,,,,,,,,,,,,,,,,,,,,,,,,,,,,,,,,,,,,,,,,,,,
,,,,,,608e66a90accb5f38c30ff64,62c539d1090ffd6a618437f5,2022-07-06_10h29.54.653,Colour_Asymmetry_Pilot,2022.1.3,Win32,59.99880002,62c50e9c1127f2cd403a315f,0,74,74,152,1,onetwo,,,,,,,,,,,,,,,,,,,,,,,,,,,,,,,,,,,,,,,,,,,,,,,,,,,,,,,,,,,,,,,,,,,,,,,,,,,,,,,,,,,,,,,,,,,,,,,,,,,,,,,,,,,,,,,,,,,,,,,,,,,,,,,,,,,,,,,,,,,,,,,,,,,,,,,,,,,,
,,,,,,608e66a90accb5f38c30ff64,62c539d1090ffd6a618437f5,2022-07-06_10h29.54.653,Colour_Asymmetry_Pilot,2022.1.3,Win32,59.99880002,62c50e9c1127f2cd403a315f,0,75,75,15,1,fourthree,,,,,,,,,,,,,,,,,,,,,,,,,,,,,,,,,,,,,,,,,,,,,,,,,,,,,,,,,,,,,,,,,,,,,,,,,,,,,,,,,,,,,,,,,,,,,,,,,,,,,,,,,,,,,,,,,,,,,,,,,,,,,,,,,,,,,,,,,,,,,,,,,,,,,,,,,,,,
,,,,,,608e66a90accb5f38c30ff64,62c539d1090ffd6a618437f5,2022-07-06_10h29.54.653,Colour_Asymmetry_Pilot,2022.1.3,Win32,59.99880002,62c50e9c1127f2cd403a315f,0,76,76,71,1,fourthree,,,,,,,,,,,,,,,,,,,,,,,,,,,,,,,,,,,,,,,,,,,,,,,,,,,,,,,,,,,,,,,,,,,,,,,,,,,,,,,,,,,,,,,,,,,,,,,,,,,,,,,,,,,,,,,,,,,,,,,,,,,,,,,,,,,,,,,,,,,,,,,,,,,,,,,,,,,,
,,,,,,608e66a90accb5f38c30ff64,62c539d1090ffd6a618437f5,2022-07-06_10h29.54.653,Colour_Asymmetry_Pilot,2022.1.3,Win32,59.99880002,62c50e9c1127f2cd403a315f,0,77,77,157,1,threefour,,,,,,,,,,,,,,,,,,,,,,,,,,,,,,,,,,,,,,,,,,,,,,,,,,,,,,,,,,,,,,,,,,,,,,,,,,,,,,,,,,,,,,,,,,,,,,,,,,,,,,,,,,,,,,,,,,,,,,,,,,,,,,,,,,,,,,,,,,,,,,,,,,,,,,,,,,,,
,,,,,,608e66a90accb5f38c30ff64,62c539d1090ffd6a618437f5,2022-07-06_10h29.54.653,Colour_Asymmetry_Pilot,2022.1.3,Win32,59.99880002,62c50e9c1127f2cd403a315f,0,78,78,108,1,threeone,,,,,,,,,,,,,,,,,,,,,,,,,,,,,,,,,,,,,,,,,,,,,,,,,,,,,,,,,,,,,,,,,,,,,,,,,,,,,,,,,,,,,,,,,,,,,,,,,,,,,,,,,,,,,,,,,,,,,,,,,,,,,,,,,,,,,,,,,,,,,,,,,,,,,,,,,,,,
,,,,,,608e66a90accb5f38c30ff64,62c539d1090ffd6a618437f5,2022-07-06_10h29.54.653,Colour_Asymmetry_Pilot,2022.1.3,Win32,59.99880002,62c50e9c1127f2cd403a315f,0,79,79,139,1,twofour,,,,,,,,,,,,,,,,,,,,,,,,,,,,,,,,,,,,,,,,,,,,,,,,,,,,,,,,,,,,,,,,,,,,,,,,,,,,,,,,,,,,,,,,,,,,,,,,,,,,,,,,,,,,,,,,,,,,,,,,,,,,,,,,,,,,,,,,,,,,,,,,,,,,,,,,,,,,
,,,,,,608e66a90accb5f38c30ff64,62c539d1090ffd6a618437f5,2022-07-06_10h29.54.653,Colour_Asymmetry_Pilot,2022.1.3,Win32,59.99880002,62c50e9c1127f2cd403a315f,0,80,80,158,1,fourtwo,,,,,,,,,,,,,,,,,,,,,,,,,,,,,,,,,,,,,,,,,,,,,,,,,,,,,,,,,,,,,,,,,,,,,,,,,,,,,,,,,,,,,,,,,,,,,,,,,,,,,,,,,,,,,,,,,,,,,,,,,,,,,,,,,,,,,,,,,,,,,,,,,,,,,,,,,,,,
,,,,,,608e66a90accb5f38c30ff64,62c539d1090ffd6a618437f5,2022-07-06_10h29.54.653,Colour_Asymmetry_Pilot,2022.1.3,Win32,59.99880002,62c50e9c1127f2cd403a315f,0,81,81,113,1,onethree,,,,,,,,,,,,,,,,,,,,,,,,,,,,,,,,,,,,,,,,,,,,,,,,,,,,,,,,,,,,,,,,,,,,,,,,,,,,,,,,,,,,,,,,,,,,,,,,,,,,,,,,,,,,,,,,,,,,,,,,,,,,,,,,,,,,,,,,,,,,,,,,,,,,,,,,,,,,
,,,,,,608e66a90accb5f38c30ff64,62c539d1090ffd6a618437f5,2022-07-06_10h29.54.653,Colour_Asymmetry_Pilot,2022.1.3,Win32,59.99880002,62c50e9c1127f2cd403a315f,0,82,82,45,1,threefour,,,,,,,,,,,,,,,,,,,,,,,,,,,,,,,,,,,,,,,,,,,,,,,,,,,,,,,,,,,,,,,,,,,,,,,,,,,,,,,,,,,,,,,,,,,,,,,,,,,,,,,,,,,,,,,,,,,,,,,,,,,,,,,,,,,,,,,,,,,,,,,,,,,,,,,,,,,,
,,,,,,608e66a90accb5f38c30ff64,62c539d1090ffd6a618437f5,2022-07-06_10h29.54.653,Colour_Asymmetry_Pilot,2022.1.3,Win32,59.99880002,62c50e9c1127f2cd403a315f,0,83,83,148,1,threeone,,,,,,,,,,,,,,,,,,,,,,,,,,,,,,,,,,,,,,,,,,,,,,,,,,,,,,,,,,,,,,,,,,,,,,,,,,,,,,,,,,,,,,,,,,,,,,,,,,,,,,,,,,,,,,,,,,,,,,,,,,,,,,,,,,,,,,,,,,,,,,,,,,,,,,,,,,,,
,,,,,,608e66a90accb5f38c30ff64,62c539d1090ffd6a618437f5,2022-07-06_10h29.54.653,Colour_Asymmetry_Pilot,2022.1.3,Win32,59.99880002,62c50e9c1127f2cd403a315f,0,84,84,41,1,onethree,,,,,,,,,,,,,,,,,,,,,,,,,,,,,,,,,,,,,,,,,,,,,,,,,,,,,,,,,,,,,,,,,,,,,,,,,,,,,,,,,,,,,,,,,,,,,,,,,,,,,,,,,,,,,,,,,,,,,,,,,,,,,,,,,,,,,,,,,,,,,,,,,,,,,,,,,,,,
,,,,,,608e66a90accb5f38c30ff64,62c539d1090ffd6a618437f5,2022-07-06_10h29.54.653,Colour_Asymmetry_Pilot,2022.1.3,Win32,59.99880002,62c50e9c1127f2cd403a315f,0,85,85,85,1,threefour,,,,,,,,,,,,,,,,,,,,,,,,,,,,,,,,,,,,,,,,,,,,,,,,,,,,,,,,,,,,,,,,,,,,,,,,,,,,,,,,,,,,,,,,,,,,,,,,,,,,,,,,,,,,,,,,,,,,,,,,,,,,,,,,,,,,,,,,,,,,,,,,,,,,,,,,,,,,
,,,,,,608e66a90accb5f38c30ff64,62c539d1090ffd6a618437f5,2022-07-06_10h29.54.653,Colour_Asymmetry_Pilot,2022.1.3,Win32,59.99880002,62c50e9c1127f2cd403a315f,0,86,86,93,1,threefour,,,,,,,,,,,,,,,,,,,,,,,,,,,,,,,,,,,,,,,,,,,,,,,,,,,,,,,,,,,,,,,,,,,,,,,,,,,,,,,,,,,,,,,,,,,,,,,,,,,,,,,,,,,,,,,,,,,,,,,,,,,,,,,,,,,,,,,,,,,,,,,,,,,,,,,,,,,,
,,,,,,608e66a90accb5f38c30ff64,62c539d1090ffd6a618437f5,2022-07-06_10h29.54.653,Colour_Asymmetry_Pilot,2022.1.3,Win32,59.99880002,62c50e9c1127f2cd403a315f,0,87,87,92,1,threeone,,,,,,,,,,,,,,,,,,,,,,,,,,,,,,,,,,,,,,,,,,,,,,,,,,,,,,,,,,,,,,,,,,,,,,,,,,,,,,,,,,,,,,,,,,,,,,,,,,,,,,,,,,,,,,,,,,,,,,,,,,,,,,,,,,,,,,,,,,,,,,,,,,,,,,,,,,,,
,,,,,,608e66a90accb5f38c30ff64,62c539d1090ffd6a618437f5,2022-07-06_10h29.54.653,Colour_Asymmetry_Pilot,2022.1.3,Win32,59.99880002,62c50e9c1127f2cd403a315f,0,88,88,99,1,twofour,,,,,,,,,,,,,,,,,,,,,,,,,,,,,,,,,,,,,,,,,,,,,,,,,,,,,,,,,,,,,,,,,,,,,,,,,,,,,,,,,,,,,,,,,,,,,,,,,,,,,,,,,,,,,,,,,,,,,,,,,,,,,,,,,,,,,,,,,,,,,,,,,,,,,,,,,,,,
,,,,,,608e66a90accb5f38c30ff64,62c539d1090ffd6a618437f5,2022-07-06_10h29.54.653,Colour_Asymmetry_Pilot,2022.1.3,Win32,59.99880002,62c50e9c1127f2cd403a315f,0,89,89,120,1,onetwo,,,,,,,,,,,,,,,,,,,,,,,,,,,,,,,,,,,,,,,,,,,,,,,,,,,,,,,,,,,,,,,,,,,,,,,,,,,,,,,,,,,,,,,,,,,,,,,,,,,,,,,,,,,,,,,,,,,,,,,,,,,,,,,,,,,,,,,,,,,,,,,,,,,,,,,,,,,,
,,,,,,608e66a90accb5f38c30ff64,62c539d1090ffd6a618437f5,2022-07-06_10h29.54.653,Colour_Asymmetry_Pilot,2022.1.3,Win32,59.99880002,62c50e9c1127f2cd403a315f,0,90,90,141,1,threefour,,,,,,,,,,,,,,,,,,,,,,,,,,,,,,,,,,,,,,,,,,,,,,,,,,,,,,,,,,,,,,,,,,,,,,,,,,,,,,,,,,,,,,,,,,,,,,,,,,,,,,,,,,,,,,,,,,,,,,,,,,,,,,,,,,,,,,,,,,,,,,,,,,,,,,,,,,,,
,,,,,,608e66a90accb5f38c30ff64,62c539d1090ffd6a618437f5,2022-07-06_10h29.54.653,Colour_Asymmetry_Pilot,2022.1.3,Win32,59.99880002,62c50e9c1127f2cd403a315f,0,91,91,90,1,twoone,,,,,,,,,,,,,,,,,,,,,,,,,,,,,,,,,,,,,,,,,,,,,,,,,,,,,,,,,,,,,,,,,,,,,,,,,,,,,,,,,,,,,,,,,,,,,,,,,,,,,,,,,,,,,,,,,,,,,,,,,,,,,,,,,,,,,,,,,,,,,,,,,,,,,,,,,,,,
,,,,,,608e66a90accb5f38c30ff64,62c539d1090ffd6a618437f5,2022-07-06_10h29.54.653,Colour_Asymmetry_Pilot,2022.1.3,Win32,59.99880002,62c50e9c1127f2cd403a315f,0,92,92,133,1,threefour,,,,,,,,,,,,,,,,,,,,,,,,,,,,,,,,,,,,,,,,,,,,,,,,,,,,,,,,,,,,,,,,,,,,,,,,,,,,,,,,,,,,,,,,,,,,,,,,,,,,,,,,,,,,,,,,,,,,,,,,,,,,,,,,,,,,,,,,,,,,,,,,,,,,,,,,,,,,
,,,,,,608e66a90accb5f38c30ff64,62c539d1090ffd6a618437f5,2022-07-06_10h29.54.653,Colour_Asymmetry_Pilot,2022.1.3,Win32,59.99880002,62c50e9c1127f2cd403a315f,0,93,93,74,1,twoone,,,,,,,,,,,,,,,,,,,,,,,,,,,,,,,,,,,,,,,,,,,,,,,,,,,,,,,,,,,,,,,,,,,,,,,,,,,,,,,,,,,,,,,,,,,,,,,,,,,,,,,,,,,,,,,,,,,,,,,,,,,,,,,,,,,,,,,,,,,,,,,,,,,,,,,,,,,,
,,,,,,608e66a90accb5f38c30ff64,62c539d1090ffd6a618437f5,2022-07-06_10h29.54.653,Colour_Asymmetry_Pilot,2022.1.3,Win32,59.99880002,62c50e9c1127f2cd403a315f,0,94,94,121,1,onethree,,,,,,,,,,,,,,,,,,,,,,,,,,,,,,,,,,,,,,,,,,,,,,,,,,,,,,,,,,,,,,,,,,,,,,,,,,,,,,,,,,,,,,,,,,,,,,,,,,,,,,,,,,,,,,,,,,,,,,,,,,,,,,,,,,,,,,,,,,,,,,,,,,,,,,,,,,,,
,,,,,,608e66a90accb5f38c30ff64,62c539d1090ffd6a618437f5,2022-07-06_10h29.54.653,Colour_Asymmetry_Pilot,2022.1.3,Win32,59.99880002,62c50e9c1127f2cd403a315f,0,95,95,106,1,twoone,,,,,,,,,,,,,,,,,,,,,,,,,,,,,,,,,,,,,,,,,,,,,,,,,,,,,,,,,,,,,,,,,,,,,,,,,,,,,,,,,,,,,,,,,,,,,,,,,,,,,,,,,,,,,,,,,,,,,,,,,,,,,,,,,,,,,,,,,,,,,,,,,,,,,,,,,,,,
,,,,,,608e66a90accb5f38c30ff64,62c539d1090ffd6a618437f5,2022-07-06_10h29.54.653,Colour_Asymmetry_Pilot,2022.1.3,Win32,59.99880002,62c50e9c1127f2cd403a315f,0,96,96,24,1,onetwo,,,,,,,,,,,,,,,,,,,,,,,,,,,,,,,,,,,,,,,,,,,,,,,,,,,,,,,,,,,,,,,,,,,,,,,,,,,,,,,,,,,,,,,,,,,,,,,,,,,,,,,,,,,,,,,,,,,,,,,,,,,,,,,,,,,,,,,,,,,,,,,,,,,,,,,,,,,,
,,,,,,608e66a90accb5f38c30ff64,62c539d1090ffd6a618437f5,2022-07-06_10h29.54.653,Colour_Asymmetry_Pilot,2022.1.3,Win32,59.99880002,62c50e9c1127f2cd403a315f,0,97,97,5,1,threefour,,,,,,,,,,,,,,,,,,,,,,,,,,,,,,,,,,,,,,,,,,,,,,,,,,,,,,,,,,,,,,,,,,,,,,,,,,,,,,,,,,,,,,,,,,,,,,,,,,,,,,,,,,,,,,,,,,,,,,,,,,,,,,,,,,,,,,,,,,,,,,,,,,,,,,,,,,,,
,,,,,,608e66a90accb5f38c30ff64,62c539d1090ffd6a618437f5,2022-07-06_10h29.54.653,Colour_Asymmetry_Pilot,2022.1.3,Win32,59.99880002,62c50e9c1127f2cd403a315f,0,98,98,72,1,onetwo,,,,,,,,,,,,,,,,,,,,,,,,,,,,,,,,,,,,,,,,,,,,,,,,,,,,,,,,,,,,,,,,,,,,,,,,,,,,,,,,,,,,,,,,,,,,,,,,,,,,,,,,,,,,,,,,,,,,,,,,,,,,,,,,,,,,,,,,,,,,,,,,,,,,,,,,,,,,
,,,,,,608e66a90accb5f38c30ff64,62c539d1090ffd6a618437f5,2022-07-06_10h29.54.653,Colour_Asymmetry_Pilot,2022.1.3,Win32,59.99880002,62c50e9c1127f2cd403a315f,0,99,99,22,1,fourtwo,,,,,,,,,,,,,,,,,,,,,,,,,,,,,,,,,,,,,,,,,,,,,,,,,,,,,,,,,,,,,,,,,,,,,,,,,,,,,,,,,,,,,,,,,,,,,,,,,,,,,,,,,,,,,,,,,,,,,,,,,,,,,,,,,,,,,,,,,,,,,,,,,,,,,,,,,,,,
,,,,,,608e66a90accb5f38c30ff64,62c539d1090ffd6a618437f5,2022-07-06_10h29.54.653,Colour_Asymmetry_Pilot,2022.1.3,Win32,59.99880002,62c50e9c1127f2cd403a315f,0,100,100,144,1,onetwo,,,,,,,,,,,,,,,,,,,,,,,,,,,,,,,,,,,,,,,,,,,,,,,,,,,,,,,,,,,,,,,,,,,,,,,,,,,,,,,,,,,,,,,,,,,,,,,,,,,,,,,,,,,,,,,,,,,,,,,,,,,,,,,,,,,,,,,,,,,,,,,,,,,,,,,,,,,,
,,,,,,608e66a90accb5f38c30ff64,62c539d1090ffd6a618437f5,2022-07-06_10h29.54.653,Colour_Asymmetry_Pilot,2022.1.3,Win32,59.99880002,62c50e9c1127f2cd403a315f,0,101,101,43,1,twofour,,,,,,,,,,,,,,,,,,,,,,,,,,,,,,,,,,,,,,,,,,,,,,,,,,,,,,,,,,,,,,,,,,,,,,,,,,,,,,,,,,,,,,,,,,,,,,,,,,,,,,,,,,,,,,,,,,,,,,,,,,,,,,,,,,,,,,,,,,,,,,,,,,,,,,,,,,,,
,,,,,,608e66a90accb5f38c30ff64,62c539d1090ffd6a618437f5,2022-07-06_10h29.54.653,Colour_Asymmetry_Pilot,2022.1.3,Win32,59.99880002,62c50e9c1127f2cd403a315f,0,102,102,34,1,twoone,,,,,,,,,,,,,,,,,,,,,,,,,,,,,,,,,,,,,,,,,,,,,,,,,,,,,,,,,,,,,,,,,,,,,,,,,,,,,,,,,,,,,,,,,,,,,,,,,,,,,,,,,,,,,,,,,,,,,,,,,,,,,,,,,,,,,,,,,,,,,,,,,,,,,,,,,,,,
,,,,,,608e66a90accb5f38c30ff64,62c539d1090ffd6a618437f5,2022-07-06_10h29.54.653,Colour_Asymmetry_Pilot,2022.1.3,Win32,59.99880002,62c50e9c1127f2cd403a315f,0,103,103,62,1,fourtwo,,,,,,,,,,,,,,,,,,,,,,,,,,,,,,,,,,,,,,,,,,,,,,,,,,,,,,,,,,,,,,,,,,,,,,,,,,,,,,,,,,,,,,,,,,,,,,,,,,,,,,,,,,,,,,,,,,,,,,,,,,,,,,,,,,,,,,,,,,,,,,,,,,,,,,,,,,,,
,,,,,,608e66a90accb5f38c30ff64,62c539d1090ffd6a618437f5,2022-07-06_10h29.54.653,Colour_Asymmetry_Pilot,2022.1.3,Win32,59.99880002,62c50e9c1127f2cd403a315f,0,104,104,112,1,onetwo,,,,,,,,,,,,,,,,,,,,,,,,,,,,,,,,,,,,,,,,,,,,,,,,,,,,,,,,,,,,,,,,,,,,,,,,,,,,,,,,,,,,,,,,,,,,,,,,,,,,,,,,,,,,,,,,,,,,,,,,,,,,,,,,,,,,,,,,,,,,,,,,,,,,,,,,,,,,
,,,,,,608e66a90accb5f38c30ff64,62c539d1090ffd6a618437f5,2022-07-06_10h29.54.653,Colour_Asymmetry_Pilot,2022.1.3,Win32,59.99880002,62c50e9c1127f2cd403a315f,0,105,105,7,1,fourthree,,,,,,,,,,,,,,,,,,,,,,,,,,,,,,,,,,,,,,,,,,,,,,,,,,,,,,,,,,,,,,,,,,,,,,,,,,,,,,,,,,,,,,,,,,,,,,,,,,,,,,,,,,,,,,,,,,,,,,,,,,,,,,,,,,,,,,,,,,,,,,,,,,,,,,,,,,,,
,,,,,,608e66a90accb5f38c30ff64,62c539d1090ffd6a618437f5,2022-07-06_10h29.54.653,Colour_Asymmetry_Pilot,2022.1.3,Win32,59.99880002,62c50e9c1127f2cd403a315f,0,106,106,149,1,threefour,,,,,,,,,,,,,,,,,,,,,,,,,,,,,,,,,,,,,,,,,,,,,,,,,,,,,,,,,,,,,,,,,,,,,,,,,,,,,,,,,,,,,,,,,,,,,,,,,,,,,,,,,,,,,,,,,,,,,,,,,,,,,,,,,,,,,,,,,,,,,,,,,,,,,,,,,,,,
,,,,,,608e66a90accb5f38c30ff64,62c539d1090ffd6a618437f5,2022-07-06_10h29.54.653,Colour_Asymmetry_Pilot,2022.1.3,Win32,59.99880002,62c50e9c1127f2cd403a315f,0,107,107,51,1,twofour,,,,,,,,,,,,,,,,,,,,,,,,,,,,,,,,,,,,,,,,,,,,,,,,,,,,,,,,,,,,,,,,,,,,,,,,,,,,,,,,,,,,,,,,,,,,,,,,,,,,,,,,,,,,,,,,,,,,,,,,,,,,,,,,,,,,,,,,,,,,,,,,,,,,,,,,,,,,
,,,,,,608e66a90accb5f38c30ff64,62c539d1090ffd6a618437f5,2022-07-06_10h29.54.653,Colour_Asymmetry_Pilot,2022.1.3,Win32,59.99880002,62c50e9c1127f2cd403a315f,0,108,108,14,1,fourtwo,,,,,,,,,,,,,,,,,,,,,,,,,,,,,,,,,,,,,,,,,,,,,,,,,,,,,,,,,,,,,,,,,,,,,,,,,,,,,,,,,,,,,,,,,,,,,,,,,,,,,,,,,,,,,,,,,,,,,,,,,,,,,,,,,,,,,,,,,,,,,,,,,,,,,,,,,,,,
,,,,,,608e66a90accb5f38c30ff64,62c539d1090ffd6a618437f5,2022-07-06_10h29.54.653,Colour_Asymmetry_Pilot,2022.1.3,Win32,59.99880002,62c50e9c1127f2cd403a315f,0,109,109,138,1,twoone,,,,,,,,,,,,,,,,,,,,,,,,,,,,,,,,,,,,,,,,,,,,,,,,,,,,,,,,,,,,,,,,,,,,,,,,,,,,,,,,,,,,,,,,,,,,,,,,,,,,,,,,,,,,,,,,,,,,,,,,,,,,,,,,,,,,,,,,,,,,,,,,,,,,,,,,,,,,
,,,,,,608e66a90accb5f38c30ff64,62c539d1090ffd6a618437f5,2022-07-06_10h29.54.653,Colour_Asymmetry_Pilot,2022.1.3,Win32,59.99880002,62c50e9c1127f2cd403a315f,0,110,110,68,1,threeone,,,,,,,,,,,,,,,,,,,,,,,,,,,,,,,,,,,,,,,,,,,,,,,,,,,,,,,,,,,,,,,,,,,,,,,,,,,,,,,,,,,,,,,,,,,,,,,,,,,,,,,,,,,,,,,,,,,,,,,,,,,,,,,,,,,,,,,,,,,,,,,,,,,,,,,,,,,,
,,,,,,608e66a90accb5f38c30ff64,62c539d1090ffd6a618437f5,2022-07-06_10h29.54.653,Colour_Asymmetry_Pilot,2022.1.3,Win32,59.99880002,62c50e9c1127f2cd403a315f,0,111,111,21,1,threefour,,,,,,,,,,,,,,,,,,,,,,,,,,,,,,,,,,,,,,,,,,,,,,,,,,,,,,,,,,,,,,,,,,,,,,,,,,,,,,,,,,,,,,,,,,,,,,,,,,,,,,,,,,,,,,,,,,,,,,,,,,,,,,,,,,,,,,,,,,,,,,,,,,,,,,,,,,,,
,,,,,,608e66a90accb5f38c30ff64,62c539d1090ffd6a618437f5,2022-07-06_10h29.54.653,Colour_Asymmetry_Pilot,2022.1.3,Win32,59.99880002,62c50e9c1127f2cd403a315f,0,112,112,42,1,twoone,,,,,,,,,,,,,,,,,,,,,,,,,,,,,,,,,,,,,,,,,,,,,,,,,,,,,,,,,,,,,,,,,,,,,,,,,,,,,,,,,,,,,,,,,,,,,,,,,,,,,,,,,,,,,,,,,,,,,,,,,,,,,,,,,,,,,,,,,,,,,,,,,,,,,,,,,,,,
,,,,,,608e66a90accb5f38c30ff64,62c539d1090ffd6a618437f5,2022-07-06_10h29.54.653,Colour_Asymmetry_Pilot,2022.1.3,Win32,59.99880002,62c50e9c1127f2cd403a315f,0,113,113,122,1,twoone,,,,,,,,,,,,,,,,,,,,,,,,,,,,,,,,,,,,,,,,,,,,,,,,,,,,,,,,,,,,,,,,,,,,,,,,,,,,,,,,,,,,,,,,,,,,,,,,,,,,,,,,,,,,,,,,,,,,,,,,,,,,,,,,,,,,,,,,,,,,,,,,,,,,,,,,,,,,
,,,,,,608e66a90accb5f38c30ff64,62c539d1090ffd6a618437f5,2022-07-06_10h29.54.653,Colour_Asymmetry_Pilot,2022.1.3,Win32,59.99880002,62c50e9c1127f2cd403a315f,0,114,114,0,1,onetwo,,,,,,,,,,,,,,,,,,,,,,,,,,,,,,,,,,,,,,,,,,,,,,,,,,,,,,,,,,,,,,,,,,,,,,,,,,,,,,,,,,,,,,,,,,,,,,,,,,,,,,,,,,,,,,,,,,,,,,,,,,,,,,,,,,,,,,,,,,,,,,,,,,,,,,,,,,,,
,,,,,,608e66a90accb5f38c30ff64,62c539d1090ffd6a618437f5,2022-07-06_10h29.54.653,Colour_Asymmetry_Pilot,2022.1.3,Win32,59.99880002,62c50e9c1127f2cd403a315f,0,115,115,110,1,fourtwo,,,,,,,,,,,,,,,,,,,,,,,,,,,,,,,,,,,,,,,,,,,,,,,,,,,,,,,,,,,,,,,,,,,,,,,,,,,,,,,,,,,,,,,,,,,,,,,,,,,,,,,,,,,,,,,,,,,,,,,,,,,,,,,,,,,,,,,,,,,,,,,,,,,,,,,,,,,,
,,,,,,608e66a90accb5f38c30ff64,62c539d1090ffd6a618437f5,2022-07-06_10h29.54.653,Colour_Asymmetry_Pilot,2022.1.3,Win32,59.99880002,62c50e9c1127f2cd403a315f,0,116,116,63,1,fourthree,,,,,,,,,,,,,,,,,,,,,,,,,,,,,,,,,,,,,,,,,,,,,,,,,,,,,,,,,,,,,,,,,,,,,,,,,,,,,,,,,,,,,,,,,,,,,,,,,,,,,,,,,,,,,,,,,,,,,,,,,,,,,,,,,,,,,,,,,,,,,,,,,,,,,,,,,,,,
,,,,,,608e66a90accb5f38c30ff64,62c539d1090ffd6a618437f5,2022-07-06_10h29.54.653,Colour_Asymmetry_Pilot,2022.1.3,Win32,59.99880002,62c50e9c1127f2cd403a315f,0,117,117,147,1,twofour,,,,,,,,,,,,,,,,,,,,,,,,,,,,,,,,,,,,,,,,,,,,,,,,,,,,,,,,,,,,,,,,,,,,,,,,,,,,,,,,,,,,,,,,,,,,,,,,,,,,,,,,,,,,,,,,,,,,,,,,,,,,,,,,,,,,,,,,,,,,,,,,,,,,,,,,,,,,
,,,,,,608e66a90accb5f38c30ff64,62c539d1090ffd6a618437f5,2022-07-06_10h29.54.653,Colour_Asymmetry_Pilot,2022.1.3,Win32,59.99880002,62c50e9c1127f2cd403a315f,0,118,118,129,1,onethree,,,,,,,,,,,,,,,,,,,,,,,,,,,,,,,,,,,,,,,,,,,,,,,,,,,,,,,,,,,,,,,,,,,,,,,,,,,,,,,,,,,,,,,,,,,,,,,,,,,,,,,,,,,,,,,,,,,,,,,,,,,,,,,,,,,,,,,,,,,,,,,,,,,,,,,,,,,,
,,,,,,608e66a90accb5f38c30ff64,62c539d1090ffd6a618437f5,2022-07-06_10h29.54.653,Colour_Asymmetry_Pilot,2022.1.3,Win32,59.99880002,62c50e9c1127f2cd403a315f,0,119,119,134,1,fourtwo,,,,,,,,,,,,,,,,,,,,,,,,,,,,,,,,,,,,,,,,,,,,,,,,,,,,,,,,,,,,,,,,,,,,,,,,,,,,,,,,,,,,,,,,,,,,,,,,,,,,,,,,,,,,,,,,,,,,,,,,,,,,,,,,,,,,,,,,,,,,,,,,,,,,,,,,,,,,
,,,,,,608e66a90accb5f38c30ff64,62c539d1090ffd6a618437f5,2022-07-06_10h29.54.653,Colour_Asymmetry_Pilot,2022.1.3,Win32,59.99880002,62c50e9c1127f2cd403a315f,0,120,120,73,1,onethree,,,,,,,,,,,,,,,,,,,,,,,,,,,,,,,,,,,,,,,,,,,,,,,,,,,,,,,,,,,,,,,,,,,,,,,,,,,,,,,,,,,,,,,,,,,,,,,,,,,,,,,,,,,,,,,,,,,,,,,,,,,,,,,,,,,,,,,,,,,,,,,,,,,,,,,,,,,,
,,,,,,608e66a90accb5f38c30ff64,62c539d1090ffd6a618437f5,2022-07-06_10h29.54.653,Colour_Asymmetry_Pilot,2022.1.3,Win32,59.99880002,62c50e9c1127f2cd403a315f,0,121,121,124,1,threeone,,,,,,,,,,,,,,,,,,,,,,,,,,,,,,,,,,,,,,,,,,,,,,,,,,,,,,,,,,,,,,,,,,,,,,,,,,,,,,,,,,,,,,,,,,,,,,,,,,,,,,,,,,,,,,,,,,,,,,,,,,,,,,,,,,,,,,,,,,,,,,,,,,,,,,,,,,,,
,,,,,,608e66a90accb5f38c30ff64,62c539d1090ffd6a618437f5,2022-07-06_10h29.54.653,Colour_Asymmetry_Pilot,2022.1.3,Win32,59.99880002,62c50e9c1127f2cd403a315f,0,122,122,70,1,fourtwo,,,,,,,,,,,,,,,,,,,,,,,,,,,,,,,,,,,,,,,,,,,,,,,,,,,,,,,,,,,,,,,,,,,,,,,,,,,,,,,,,,,,,,,,,,,,,,,,,,,,,,,,,,,,,,,,,,,,,,,,,,,,,,,,,,,,,,,,,,,,,,,,,,,,,,,,,,,,
,,,,,,608e66a90accb5f38c30ff64,62c539d1090ffd6a618437f5,2022-07-06_10h29.54.653,Colour_Asymmetry_Pilot,2022.1.3,Win32,59.99880002,62c50e9c1127f2cd403a315f,0,123,123,52,1,threeone,,,,,,,,,,,,,,,,,,,,,,,,,,,,,,,,,,,,,,,,,,,,,,,,,,,,,,,,,,,,,,,,,,,,,,,,,,,,,,,,,,,,,,,,,,,,,,,,,,,,,,,,,,,,,,,,,,,,,,,,,,,,,,,,,,,,,,,,,,,,,,,,,,,,,,,,,,,,
,,,,,,608e66a90accb5f38c30ff64,62c539d1090ffd6a618437f5,2022-07-06_10h29.54.653,Colour_Asymmetry_Pilot,2022.1.3,Win32,59.99880002,62c50e9c1127f2cd403a315f,0,124,124,95,1,fourthree,,,,,,,,,,,,,,,,,,,,,,,,,,,,,,,,,,,,,,,,,,,,,,,,,,,,,,,,,,,,,,,,,,,,,,,,,,,,,,,,,,,,,,,,,,,,,,,,,,,,,,,,,,,,,,,,,,,,,,,,,,,,,,,,,,,,,,,,,,,,,,,,,,,,,,,,,,,,
,,,,,,608e66a90accb5f38c30ff64,62c539d1090ffd6a618437f5,2022-07-06_10h29.54.653,Colour_Asymmetry_Pilot,2022.1.3,Win32,59.99880002,62c50e9c1127f2cd403a315f,0,125,125,18,1,twoone,,,,,,,,,,,,,,,,,,,,,,,,,,,,,,,,,,,,,,,,,,,,,,,,,,,,,,,,,,,,,,,,,,,,,,,,,,,,,,,,,,,,,,,,,,,,,,,,,,,,,,,,,,,,,,,,,,,,,,,,,,,,,,,,,,,,,,,,,,,,,,,,,,,,,,,,,,,,
,,,,,,608e66a90accb5f38c30ff64,62c539d1090ffd6a618437f5,2022-07-06_10h29.54.653,Colour_Asymmetry_Pilot,2022.1.3,Win32,59.99880002,62c50e9c1127f2cd403a315f,0,126,126,97,1,onethree,,,,,,,,,,,,,,,,,,,,,,,,,,,,,,,,,,,,,,,,,,,,,,,,,,,,,,,,,,,,,,,,,,,,,,,,,,,,,,,,,,,,,,,,,,,,,,,,,,,,,,,,,,,,,,,,,,,,,,,,,,,,,,,,,,,,,,,,,,,,,,,,,,,,,,,,,,,,
,,,,,,608e66a90accb5f38c30ff64,62c539d1090ffd6a618437f5,2022-07-06_10h29.54.653,Colour_Asymmetry_Pilot,2022.1.3,Win32,59.99880002,62c50e9c1127f2cd403a315f,0,127,127,47,1,fourthree,,,,,,,,,,,,,,,,,,,,,,,,,,,,,,,,,,,,,,,,,,,,,,,,,,,,,,,,,,,,,,,,,,,,,,,,,,,,,,,,,,,,,,,,,,,,,,,,,,,,,,,,,,,,,,,,,,,,,,,,,,,,,,,,,,,,,,,,,,,,,,,,,,,,,,,,,,,,
,,,,,,608e66a90accb5f38c30ff64,62c539d1090ffd6a618437f5,2022-07-06_10h29.54.653,Colour_Asymmetry_Pilot,2022.1.3,Win32,59.99880002,62c50e9c1127f2cd403a315f,0,128,128,23,1,fourthree,,,,,,,,,,,,,,,,,,,,,,,,,,,,,,,,,,,,,,,,,,,,,,,,,,,,,,,,,,,,,,,,,,,,,,,,,,,,,,,,,,,,,,,,,,,,,,,,,,,,,,,,,,,,,,,,,,,,,,,,,,,,,,,,,,,,,,,,,,,,,,,,,,,,,,,,,,,,
,,,,,,608e66a90accb5f38c30ff64,62c539d1090ffd6a618437f5,2022-07-06_10h29.54.653,Colour_Asymmetry_Pilot,2022.1.3,Win32,59.99880002,62c50e9c1127f2cd403a315f,0,129,129,54,1,fourtwo,,,,,,,,,,,,,,,,,,,,,,,,,,,,,,,,,,,,,,,,,,,,,,,,,,,,,,,,,,,,,,,,,,,,,,,,,,,,,,,,,,,,,,,,,,,,,,,,,,,,,,,,,,,,,,,,,,,,,,,,,,,,,,,,,,,,,,,,,,,,,,,,,,,,,,,,,,,,
,,,,,,608e66a90accb5f38c30ff64,62c539d1090ffd6a618437f5,2022-07-06_10h29.54.653,Colour_Asymmetry_Pilot,2022.1.3,Win32,59.99880002,62c50e9c1127f2cd403a315f,0,130,130,10,1,twoone,,,,,,,,,,,,,,,,,,,,,,,,,,,,,,,,,,,,,,,,,,,,,,,,,,,,,,,,,,,,,,,,,,,,,,,,,,,,,,,,,,,,,,,,,,,,,,,,,,,,,,,,,,,,,,,,,,,,,,,,,,,,,,,,,,,,,,,,,,,,,,,,,,,,,,,,,,,,
,,,,,,608e66a90accb5f38c30ff64,62c539d1090ffd6a618437f5,2022-07-06_10h29.54.653,Colour_Asymmetry_Pilot,2022.1.3,Win32,59.99880002,62c50e9c1127f2cd403a315f,0,131,131,56,1,onetwo,,,,,,,,,,,,,,,,,,,,,,,,,,,,,,,,,,,,,,,,,,,,,,,,,,,,,,,,,,,,,,,,,,,,,,,,,,,,,,,,,,,,,,,,,,,,,,,,,,,,,,,,,,,,,,,,,,,,,,,,,,,,,,,,,,,,,,,,,,,,,,,,,,,,,,,,,,,,
,,,,,,608e66a90accb5f38c30ff64,62c539d1090ffd6a618437f5,2022-07-06_10h29.54.653,Colour_Asymmetry_Pilot,2022.1.3,Win32,59.99880002,62c50e9c1127f2cd403a315f,0,132,132,153,1,onethree,,,,,,,,,,,,,,,,,,,,,,,,,,,,,,,,,,,,,,,,,,,,,,,,,,,,,,,,,,,,,,,,,,,,,,,,,,,,,,,,,,,,,,,,,,,,,,,,,,,,,,,,,,,,,,,,,,,,,,,,,,,,,,,,,,,,,,,,,,,,,,,,,,,,,,,,,,,,
,,,,,,608e66a90accb5f38c30ff64,62c539d1090ffd6a618437f5,2022-07-06_10h29.54.653,Colour_Asymmetry_Pilot,2022.1.3,Win32,59.99880002,62c50e9c1127f2cd403a315f,0,133,133,19,1,twofour,,,,,,,,,,,,,,,,,,,,,,,,,,,,,,,,,,,,,,,,,,,,,,,,,,,,,,,,,,,,,,,,,,,,,,,,,,,,,,,,,,,,,,,,,,,,,,,,,,,,,,,,,,,,,,,,,,,,,,,,,,,,,,,,,,,,,,,,,,,,,,,,,,,,,,,,,,,,
,,,,,,608e66a90accb5f38c30ff64,62c539d1090ffd6a618437f5,2022-07-06_10h29.54.653,Colour_Asymmetry_Pilot,2022.1.3,Win32,59.99880002,62c50e9c1127f2cd403a315f,0,134,134,151,1,fourthree,,,,,,,,,,,,,,,,,,,,,,,,,,,,,,,,,,,,,,,,,,,,,,,,,,,,,,,,,,,,,,,,,,,,,,,,,,,,,,,,,,,,,,,,,,,,,,,,,,,,,,,,,,,,,,,,,,,,,,,,,,,,,,,,,,,,,,,,,,,,,,,,,,,,,,,,,,,,
,,,,,,608e66a90accb5f38c30ff64,62c539d1090ffd6a618437f5,2022-07-06_10h29.54.653,Colour_Asymmetry_Pilot,2022.1.3,Win32,59.99880002,62c50e9c1127f2cd403a315f,0,135,135,50,1,twoone,,,,,,,,,,,,,,,,,,,,,,,,,,,,,,,,,,,,,,,,,,,,,,,,,,,,,,,,,,,,,,,,,,,,,,,,,,,,,,,,,,,,,,,,,,,,,,,,,,,,,,,,,,,,,,,,,,,,,,,,,,,,,,,,,,,,,,,,,,,,,,,,,,,,,,,,,,,,
,,,,,,608e66a90accb5f38c30ff64,62c539d1090ffd6a618437f5,2022-07-06_10h29.54.653,Colour_Asymmetry_Pilot,2022.1.3,Win32,59.99880002,62c50e9c1127f2cd403a315f,0,136,136,8,1,onetwo,,,,,,,,,,,,,,,,,,,,,,,,,,,,,,,,,,,,,,,,,,,,,,,,,,,,,,,,,,,,,,,,,,,,,,,,,,,,,,,,,,,,,,,,,,,,,,,,,,,,,,,,,,,,,,,,,,,,,,,,,,,,,,,,,,,,,,,,,,,,,,,,,,,,,,,,,,,,
,,,,,,608e66a90accb5f38c30ff64,62c539d1090ffd6a618437f5,2022-07-06_10h29.54.653,Colour_Asymmetry_Pilot,2022.1.3,Win32,59.99880002,62c50e9c1127f2cd403a315f,0,137,137,12,1,threeone,,,,,,,,,,,,,,,,,,,,,,,,,,,,,,,,,,,,,,,,,,,,,,,,,,,,,,,,,,,,,,,,,,,,,,,,,,,,,,,,,,,,,,,,,,,,,,,,,,,,,,,,,,,,,,,,,,,,,,,,,,,,,,,,,,,,,,,,,,,,,,,,,,,,,,,,,,,,
,,,,,,608e66a90accb5f38c30ff64,62c539d1090ffd6a618437f5,2022-07-06_10h29.54.653,Colour_Asymmetry_Pilot,2022.1.3,Win32,59.99880002,62c50e9c1127f2cd403a315f,0,138,138,3,1,twofour,,,,,,,,,,,,,,,,,,,,,,,,,,,,,,,,,,,,,,,,,,,,,,,,,,,,,,,,,,,,,,,,,,,,,,,,,,,,,,,,,,,,,,,,,,,,,,,,,,,,,,,,,,,,,,,,,,,,,,,,,,,,,,,,,,,,,,,,,,,,,,,,,,,,,,,,,,,,
,,,,,,608e66a90accb5f38c30ff64,62c539d1090ffd6a618437f5,2022-07-06_10h29.54.653,Colour_Asymmetry_Pilot,2022.1.3,Win32,59.99880002,62c50e9c1127f2cd403a315f,0,139,139,131,1,twofour,,,,,,,,,,,,,,,,,,,,,,,,,,,,,,,,,,,,,,,,,,,,,,,,,,,,,,,,,,,,,,,,,,,,,,,,,,,,,,,,,,,,,,,,,,,,,,,,,,,,,,,,,,,,,,,,,,,,,,,,,,,,,,,,,,,,,,,,,,,,,,,,,,,,,,,,,,,,
,,,,,,608e66a90accb5f38c30ff64,62c539d1090ffd6a618437f5,2022-07-06_10h29.54.653,Colour_Asymmetry_Pilot,2022.1.3,Win32,59.99880002,62c50e9c1127f2cd403a315f,0,140,140,91,1,twofour,,,,,,,,,,,,,,,,,,,,,,,,,,,,,,,,,,,,,,,,,,,,,,,,,,,,,,,,,,,,,,,,,,,,,,,,,,,,,,,,,,,,,,,,,,,,,,,,,,,,,,,,,,,,,,,,,,,,,,,,,,,,,,,,,,,,,,,,,,,,,,,,,,,,,,,,,,,,
,,,,,,608e66a90accb5f38c30ff64,62c539d1090ffd6a618437f5,2022-07-06_10h29.54.653,Colour_Asymmetry_Pilot,2022.1.3,Win32,59.99880002,62c50e9c1127f2cd403a315f,0,141,141,132,1,threeone,,,,,,,,,,,,,,,,,,,,,,,,,,,,,,,,,,,,,,,,,,,,,,,,,,,,,,,,,,,,,,,,,,,,,,,,,,,,,,,,,,,,,,,,,,,,,,,,,,,,,,,,,,,,,,,,,,,,,,,,,,,,,,,,,,,,,,,,,,,,,,,,,,,,,,,,,,,,
,,,,,,608e66a90accb5f38c30ff64,62c539d1090ffd6a618437f5,2022-07-06_10h29.54.653,Colour_Asymmetry_Pilot,2022.1.3,Win32,59.99880002,62c50e9c1127f2cd403a315f,0,142,142,137,1,onethree,,,,,,,,,,,,,,,,,,,,,,,,,,,,,,,,,,,,,,,,,,,,,,,,,,,,,,,,,,,,,,,,,,,,,,,,,,,,,,,,,,,,,,,,,,,,,,,,,,,,,,,,,,,,,,,,,,,,,,,,,,,,,,,,,,,,,,,,,,,,,,,,,,,,,,,,,,,,
,,,,,,608e66a90accb5f38c30ff64,62c539d1090ffd6a618437f5,2022-07-06_10h29.54.653,Colour_Asymmetry_Pilot,2022.1.3,Win32,59.99880002,62c50e9c1127f2cd403a315f,0,143,143,81,1,onethree,,,,,,,,,,,,,,,,,,,,,,,,,,,,,,,,,,,,,,,,,,,,,,,,,,,,,,,,,,,,,,,,,,,,,,,,,,,,,,,,,,,,,,,,,,,,,,,,,,,,,,,,,,,,,,,,,,,,,,,,,,,,,,,,,,,,,,,,,,,,,,,,,,,,,,,,,,,,
,,,,,,608e66a90accb5f38c30ff64,62c539d1090ffd6a618437f5,2022-07-06_10h29.54.653,Colour_Asymmetry_Pilot,2022.1.3,Win32,59.99880002,62c50e9c1127f2cd403a315f,0,144,144,35,1,twofour,,,,,,,,,,,,,,,,,,,,,,,,,,,,,,,,,,,,,,,,,,,,,,,,,,,,,,,,,,,,,,,,,,,,,,,,,,,,,,,,,,,,,,,,,,,,,,,,,,,,,,,,,,,,,,,,,,,,,,,,,,,,,,,,,,,,,,,,,,,,,,,,,,,,,,,,,,,,
,,,,,,608e66a90accb5f38c30ff64,62c539d1090ffd6a618437f5,2022-07-06_10h29.54.653,Colour_Asymmetry_Pilot,2022.1.3,Win32,59.99880002,62c50e9c1127f2cd403a315f,0,145,145,86,1,fourtwo,,,,,,,,,,,,,,,,,,,,,,,,,,,,,,,,,,,,,,,,,,,,,,,,,,,,,,,,,,,,,,,,,,,,,,,,,,,,,,,,,,,,,,,,,,,,,,,,,,,,,,,,,,,,,,,,,,,,,,,,,,,,,,,,,,,,,,,,,,,,,,,,,,,,,,,,,,,,
,,,,,,608e66a90accb5f38c30ff64,62c539d1090ffd6a618437f5,2022-07-06_10h29.54.653,Colour_Asymmetry_Pilot,2022.1.3,Win32,59.99880002,62c50e9c1127f2cd403a315f,0,146,146,57,1,onethree,,,,,,,,,,,,,,,,,,,,,,,,,,,,,,,,,,,,,,,,,,,,,,,,,,,,,,,,,,,,,,,,,,,,,,,,,,,,,,,,,,,,,,,,,,,,,,,,,,,,,,,,,,,,,,,,,,,,,,,,,,,,,,,,,,,,,,,,,,,,,,,,,,,,,,,,,,,,
,,,,,,608e66a90accb5f38c30ff64,62c539d1090ffd6a618437f5,2022-07-06_10h29.54.653,Colour_Asymmetry_Pilot,2022.1.3,Win32,59.99880002,62c50e9c1127f2cd403a315f,0,147,147,66,1,twoone,,,,,,,,,,,,,,,,,,,,,,,,,,,,,,,,,,,,,,,,,,,,,,,,,,,,,,,,,,,,,,,,,,,,,,,,,,,,,,,,,,,,,,,,,,,,,,,,,,,,,,,,,,,,,,,,,,,,,,,,,,,,,,,,,,,,,,,,,,,,,,,,,,,,,,,,,,,,
,,,,,,608e66a90accb5f38c30ff64,62c539d1090ffd6a618437f5,2022-07-06_10h29.54.653,Colour_Asymmetry_Pilot,2022.1.3,Win32,59.99880002,62c50e9c1127f2cd403a315f,0,148,148,44,1,threeone,,,,,,,,,,,,,,,,,,,,,,,,,,,,,,,,,,,,,,,,,,,,,,,,,,,,,,,,,,,,,,,,,,,,,,,,,,,,,,,,,,,,,,,,,,,,,,,,,,,,,,,,,,,,,,,,,,,,,,,,,,,,,,,,,,,,,,,,,,,,,,,,,,,,,,,,,,,,
,,,,,,608e66a90accb5f38c30ff64,62c539d1090ffd6a618437f5,2022-07-06_10h29.54.653,Colour_Asymmetry_Pilot,2022.1.3,Win32,59.99880002,62c50e9c1127f2cd403a315f,0,149,149,16,1,onetwo,,,,,,,,,,,,,,,,,,,,,,,,,,,,,,,,,,,,,,,,,,,,,,,,,,,,,,,,,,,,,,,,,,,,,,,,,,,,,,,,,,,,,,,,,,,,,,,,,,,,,,,,,,,,,,,,,,,,,,,,,,,,,,,,,,,,,,,,,,,,,,,,,,,,,,,,,,,,
,,,,,,608e66a90accb5f38c30ff64,62c539d1090ffd6a618437f5,2022-07-06_10h29.54.653,Colour_Asymmetry_Pilot,2022.1.3,Win32,59.99880002,62c50e9c1127f2cd403a315f,0,150,150,53,1,threefour,,,,,,,,,,,,,,,,,,,,,,,,,,,,,,,,,,,,,,,,,,,,,,,,,,,,,,,,,,,,,,,,,,,,,,,,,,,,,,,,,,,,,,,,,,,,,,,,,,,,,,,,,,,,,,,,,,,,,,,,,,,,,,,,,,,,,,,,,,,,,,,,,,,,,,,,,,,,
,,,,,,608e66a90accb5f38c30ff64,62c539d1090ffd6a618437f5,2022-07-06_10h29.54.653,Colour_Asymmetry_Pilot,2022.1.3,Win32,59.99880002,62c50e9c1127f2cd403a315f,0,151,151,82,1,twoone,,,,,,,,,,,,,,,,,,,,,,,,,,,,,,,,,,,,,,,,,,,,,,,,,,,,,,,,,,,,,,,,,,,,,,,,,,,,,,,,,,,,,,,,,,,,,,,,,,,,,,,,,,,,,,,,,,,,,,,,,,,,,,,,,,,,,,,,,,,,,,,,,,,,,,,,,,,,
,,,,,,608e66a90accb5f38c30ff64,62c539d1090ffd6a618437f5,2022-07-06_10h29.54.653,Colour_Asymmetry_Pilot,2022.1.3,Win32,59.99880002,62c50e9c1127f2cd403a315f,0,152,152,38,1,fourtwo,,,,,,,,,,,,,,,,,,,,,,,,,,,,,,,,,,,,,,,,,,,,,,,,,,,,,,,,,,,,,,,,,,,,,,,,,,,,,,,,,,,,,,,,,,,,,,,,,,,,,,,,,,,,,,,,,,,,,,,,,,,,,,,,,,,,,,,,,,,,,,,,,,,,,,,,,,,,
,,,,,,608e66a90accb5f38c30ff64,62c539d1090ffd6a618437f5,2022-07-06_10h29.54.653,Colour_Asymmetry_Pilot,2022.1.3,Win32,59.99880002,62c50e9c1127f2cd403a315f,0,153,153,17,1,onethree,,,,,,,,,,,,,,,,,,,,,,,,,,,,,,,,,,,,,,,,,,,,,,,,,,,,,,,,,,,,,,,,,,,,,,,,,,,,,,,,,,,,,,,,,,,,,,,,,,,,,,,,,,,,,,,,,,,,,,,,,,,,,,,,,,,,,,,,,,,,,,,,,,,,,,,,,,,,
,,,,,,608e66a90accb5f38c30ff64,62c539d1090ffd6a618437f5,2022-07-06_10h29.54.653,Colour_Asymmetry_Pilot,2022.1.3,Win32,59.99880002,62c50e9c1127f2cd403a315f,0,154,154,96,1,onetwo,,,,,,,,,,,,,,,,,,,,,,,,,,,,,,,,,,,,,,,,,,,,,,,,,,,,,,,,,,,,,,,,,,,,,,,,,,,,,,,,,,,,,,,,,,,,,,,,,,,,,,,,,,,,,,,,,,,,,,,,,,,,,,,,,,,,,,,,,,,,,,,,,,,,,,,,,,,,
,,,,,,608e66a90accb5f38c30ff64,62c539d1090ffd6a618437f5,2022-07-06_10h29.54.653,Colour_Asymmetry_Pilot,2022.1.3,Win32,59.99880002,62c50e9c1127f2cd403a315f,0,155,155,109,1,threefour,,,,,,,,,,,,,,,,,,,,,,,,,,,,,,,,,,,,,,,,,,,,,,,,,,,,,,,,,,,,,,,,,,,,,,,,,,,,,,,,,,,,,,,,,,,,,,,,,,,,,,,,,,,,,,,,,,,,,,,,,,,,,,,,,,,,,,,,,,,,,,,,,,,,,,,,,,,,
,,,,,,608e66a90accb5f38c30ff64,62c539d1090ffd6a618437f5,2022-07-06_10h29.54.653,Colour_Asymmetry_Pilot,2022.1.3,Win32,59.99880002,62c50e9c1127f2cd403a315f,0,156,156,40,1,onetwo,,,,,,,,,,,,,,,,,,,,,,,,,,,,,,,,,,,,,,,,,,,,,,,,,,,,,,,,,,,,,,,,,,,,,,,,,,,,,,,,,,,,,,,,,,,,,,,,,,,,,,,,,,,,,,,,,,,,,,,,,,,,,,,,,,,,,,,,,,,,,,,,,,,,,,,,,,,,
,,,,,,608e66a90accb5f38c30ff64,62c539d1090ffd6a618437f5,2022-07-06_10h29.54.653,Colour_Asymmetry_Pilot,2022.1.3,Win32,59.99880002,62c50e9c1127f2cd403a315f,0,157,157,103,1,fourthree,,,,,,,,,,,,,,,,,,,,,,,,,,,,,,,,,,,,,,,,,,,,,,,,,,,,,,,,,,,,,,,,,,,,,,,,,,,,,,,,,,,,,,,,,,,,,,,,,,,,,,,,,,,,,,,,,,,,,,,,,,,,,,,,,,,,,,,,,,,,,,,,,,,,,,,,,,,,
,,,,,,608e66a90accb5f38c30ff64,62c539d1090ffd6a618437f5,2022-07-06_10h29.54.653,Colour_Asymmetry_Pilot,2022.1.3,Win32,59.99880002,62c50e9c1127f2cd403a315f,0,158,158,28,1,threeone,,,,,,,,,,,,,,,,,,,,,,,,,,,,,,,,,,,,,,,,,,,,,,,,,,,,,,,,,,,,,,,,,,,,,,,,,,,,,,,,,,,,,,,,,,,,,,,,,,,,,,,,,,,,,,,,,,,,,,,,,,,,,,,,,,,,,,,,,,,,,,,,,,,,,,,,,,,,
,,,,,,608e66a90accb5f38c30ff64,62c539d1090ffd6a618437f5,2022-07-06_10h29.54.653,Colour_Asymmetry_Pilot,2022.1.3,Win32,59.99880002,62c50e9c1127f2cd403a315f,0,159,159,98,1,twoone,,,,,,,,,,,,,,,,,,,,,,,,,,,,,,,,,,,,,,,,,,,,,,,,,,,,,,,,,,,,,,,,,,,,,,,,,,,,,,,,,,,,,,,,,,,,,,,,,,,,,,,,,,,,,,,,,,,,,,,,,,,,,,,,,,,,,,,,,,,,,,,,,,,,,,,,,,,,
,,,,,,608e66a90accb5f38c30ff64,62c539d1090ffd6a618437f5,2022-07-06_10h29.54.653,Colour_Asymmetry_Pilot,2022.1.3,Win32,59.99880002,62c50e9c1127f2cd403a315f,0,160,160,83,1,twofour,,,,,,,,,,,,,,,,,,,,,,,,,,,,,,,,,,,,,,,,,,,,,,,,,,,,,,,,,,,,,,,,,,,,,,,,,,,,,,,,,,,,,,,,,,,,,,,,,,,,,,,,,,,,,,,,,,,,,,,,,,,,,,,,,,,,,,,,,,,,,,,,,,,,,,,,,,,,
,,,,,,608e66a90accb5f38c30ff64,62c539d1090ffd6a618437f5,2022-07-06_10h29.54.653,Colour_Asymmetry_Pilot,2022.1.3,Win32,59.99880002,62c50e9c1127f2cd403a315f,0,161,161,78,1,fourtwo,,,,,,,,,,,,,,,,,,,,,,,,,,,,,,,,,,,,,,,,,,,,,,,,,,,,,,,,,,,,,,,,,,,,,,,,,,,,,,,,,,,,,,,,,,,,,,,,,,,,,,,,,,,,,,,,,,,,,,,,,,,,,,,,,,,,,,,,,,,,,,,,,,,,,,,,,,,,
,,,,,,608e66a90accb5f38c30ff64,62c539d1090ffd6a618437f5,2022-07-06_10h29.54.653,Colour_Asymmetry_Pilot,2022.1.3,Win32,59.99880002,62c50e9c1127f2cd403a315f,,,,,,,space,2.8624,space,10.4592,space,36.6546,space,78.6428,space,4.2313,space,4.851,"[-0.2942,-0.24719999999999998,-0.357]",fourtwo,"[0.09799999999999986,-0.24719999999999998,0.15280000000000005]",-2,11.4421,-101,-50,1,0,0,response5disk_5,-12,-4,1,0,0,rectangle_8,57,-131,1,0,0,response3disk_7,4,1,10,13,1,0,0,rectangle_4,0,0,0,0,1,,,,,,,,,,,,,,,,,,,,,,,,,,,,,,,,,,,,,,,,,,,,,,,,,,,,,,,,,,,,,,,,,,,,,,,,,,,,,,,,,,,,,,,,,,,,,,,,,,,,,,,,,,,,
,,,,,,608e66a90accb5f38c30ff64,62c539d1090ffd6a618437f5,2022-07-06_10h29.54.653,Colour_Asymmetry_Pilot,2022.1.3,Win32,59.99880002,62c50e9c1127f2cd403a315f,,,,,,,,,,,,,,,,,,,"[-0.4902000000000001,0.2704,-0.45899999999999996]",fourtwo,"[0.37240000000000006,-0.050999999999999934,-0.5216]",1,3.5722,53,-120,1,0,0,response3disk_5,1,6,1,0,0,rectangle_8,1,6,1,0,0,,,1,1,6,1,0,0,,1,0,1,0,1,,,,,,,,,,,,,,,,,,,,,,,,,,,,,,,,,,,,,,,,,,,,,,,,,,,,,,,,,,,,,,,,,,,,,,,,,,,,,,,,,,,,,,,,,,,,,,,,,,,,,,,,,,,,
,,,,,,608e66a90accb5f38c30ff64,62c539d1090ffd6a618437f5,2022-07-06_10h29.54.653,Colour_Asymmetry_Pilot,2022.1.3,Win32,59.99880002,62c50e9c1127f2cd403a315f,,,,,,,,,,,,,,,,,,,"[0.8115999999999999,-0.0040000000000000036,-0.09819999999999995]",fourthree,"[-0.45899999999999996,-0.3256,-0.9374]",-1,5.998,-67,-127,1,0,0,response5disk_5,7,1,1,0,0,rectangle_8,7,1,1,0,0,,,1,7,1,1,0,0,,2,0,2,0,1,,,,,,,,,,,,,,,,,,,,,,,,,,,,,,,,,,,,,,,,,,,,,,,,,,,,,,,,,,,,,,,,,,,,,,,,,,,,,,,,,,,,,,,,,,,,,,,,,,,,,,,,,,,,
,,,,,,608e66a90accb5f38c30ff64,62c539d1090ffd6a618437f5,2022-07-06_10h29.54.653,Colour_Asymmetry_Pilot,2022.1.3,Win32,59.99880002,62c50e9c1127f2cd403a315f,,,,,,,,,,,,,,,,,,,"[-0.17659999999999998,-0.2864,-0.8354]",threefour,"[-0.6235999999999999,-0.6786,-0.08239999999999992]",-1,5.8724,-60,-123,1,0,0,response5disk_5,5,5,1,0,0,rectangle_8,5,5,1,0,0,,,1,5,5,1,0,0,,3,0,3,0,1,,,,,,,,,,,,,,,,,,,,,,,,,,,,,,,,,,,,,,,,,,,,,,,,,,,,,,,,,,,,,,,,,,,,,,,,,,,,,,,,,,,,,,,,,,,,,,,,,,,,,,,,,,,,
,,,,,,608e66a90accb5f38c30ff64,62c539d1090ffd6a618437f5,2022-07-06_10h29.54.653,Colour_Asymmetry_Pilot,2022.1.3,Win32,59.99880002,62c50e9c1127f2cd403a315f,,,,,,,,,,,,,,,,,,,"[0.5449999999999999,-0.31000000000000005,-0.0354000000000001]",onethree,"[0.30180000000000007,-0.7884,-0.9844]",1,2.799,39,-115,1,0,0,response3disk_5,-6,-6,1,0,0,rectangle_8,-6,-6,1,0,0,,,1,-6,-6,1,0,0,,4,0,4,0,1,,,,,,,,,,,,,,,,,,,,,,,,,,,,,,,,,,,,,,,,,,,,,,,,,,,,,,,,,,,,,,,,,,,,,,,,,,,,,,,,,,,,,,,,,,,,,,,,,,,,,,,,,,,,
,,,,,,608e66a90accb5f38c30ff64,62c539d1090ffd6a618437f5,2022-07-06_10h29.54.653,Colour_Asymmetry_Pilot,2022.1.3,Win32,59.99880002,62c50e9c1127f2cd403a315f,,,,,,,,,,,,,,,,,,,"[0.34099999999999997,0.12939999999999996,-0.9766]",onetwo,"[-0.26280000000000003,-0.2158,-0.3256]",1,3.1323,77,-127,1,0,0,response3disk_5,-14,7,1,0,0,rectangle_8,47,-119,1,0,0,response3disk_7,4,1,12,9,1,0,0,rectangle_4,5,0,5,0,1,,,,,,,,,,,,,,,,,,,,,,,,,,,,,,,,,,,,,,,,,,,,,,,,,,,,,,,,,,,,,,,,,,,,,,,,,,,,,,,,,,,,,,,,,,,,,,,,,,,,,,,,,,,,
,,,,,,608e66a90accb5f38c30ff64,62c539d1090ffd6a618437f5,2022-07-06_10h29.54.653,Colour_Asymmetry_Pilot,2022.1.3,Win32,59.99880002,62c50e9c1127f2cd403a315f,,,,,,,,,,,,,,,,,,,"[0.7018,0.7176,0.6155999999999999]",onethree,"[-0.5452,-0.608,0.2470000000000001]",-2,3.3157,-82,-53,1,0,0,response5disk_5,18,8,1,0,0,rectangle_8,18,8,1,0,0,,,1,18,8,1,0,0,,6,0,6,0,1,,,,,,,,,,,,,,,,,,,,,,,,,,,,,,,,,,,,,,,,,,,,,,,,,,,,,,,,,,,,,,,,,,,,,,,,,,,,,,,,,,,,,,,,,,,,,,,,,,,,,,,,,,,,
,,,,,,608e66a90accb5f38c30ff64,62c539d1090ffd6a618437f5,2022-07-06_10h29.54.653,Colour_Asymmetry_Pilot,2022.1.3,Win32,59.99880002,62c50e9c1127f2cd403a315f,,,,,,,,,,,,,,,,,,,,onethree,,-2,3.5651,,,,,,,,,,,,,,,,,,,,,,,,,,,,,,,,space,3.5398,"[-0.4982,-0.2942,-0.0354000000000001]","[0.2862,0.7802,0.3568]",-124,-50,1,0,0,response5disk,7,15,1,0,0,rectangle,7,15,1,0,0,,3,0.0045,0,7,15,1,0,0,0,0,0,56,1,56,first,,,,,,,,,,,,,,,,,,,,,,,,,,,,,,,,,,,,,,,,,,,,,,,,,,,,,,,,,,,,,,,,,,,,,,,
,,,,,,608e66a90accb5f38c30ff64,62c539d1090ffd6a618437f5,2022-07-06_10h29.54.653,Colour_Asymmetry_Pilot,2022.1.3,Win32,59.99880002,62c50e9c1127f2cd403a315f,,,,,,,,,,,,,,,,,,,,fourtwo,,-1,6.5972,,,,,,,,,,,,,,,,,,,,,,,,,,,,,,,,,,"[0.3568,-0.20799999999999996,-0.9844]","[-0.20799999999999996,-0.655,-0.01980000000000004]",-51,-133,1,0,0,response5disk,-4,-1,1,0,0,rectangle,-4,-1,1,0,0,,1,0.0015,0,-4,-1,1,0,0,0,1,1,150,1,69,second,,,,,,,,,,,,,,,,,,,,,,,,,,,,,,,,,,,,,,,,,,,,,,,,,,,,,,,,,,,,,,,,,,,,,,,
,,,,,,608e66a90accb5f38c30ff64,62c539d1090ffd6a618437f5,2022-07-06_10h29.54.653,Colour_Asymmetry_Pilot,2022.1.3,Win32,59.99880002,62c50e9c1127f2cd403a315f,,,,,,,,,,,,,,,,,,,,onetwo,,-3,0.8997,,,,,,,,,,,,,,,,,,,,,,,,,,,,,,,,,,"[-0.011800000000000033,-0.906,-0.45100000000000007]","[0.9842,0.7409999999999999,-0.6628000000000001]",-94,34,1,0,0,response7disk,2,1,1,0,0,rectangle,2,1,1,0,0,,2,0.0017,0,2,1,1,0,0,0,2,2,94,1,13,second,,,,,,,,,,,,,,,,,,,,,,,,,,,,,,,,,,,,,,,,,,,,,,,,,,,,,,,,,,,,,,,,,,,,,,,
,,,,,,608e66a90accb5f38c30ff64,62c539d1090ffd6a618437f5,2022-07-06_10h29.54.653,Colour_Asymmetry_Pilot,2022.1.3,Win32,59.99880002,62c50e9c1127f2cd403a315f,,,,,,,,,,,,,,,,,,,,onetwo,,1,5.381,,,,,,,,,,,,,,,,,,,,,,,,,,,,,,,,,,"[-0.0040000000000000036,0.02739999999999987,-0.08239999999999992]","[-0.9296,-0.12959999999999994,-0.043199999999999905]",25,-127,1,0,0,response3disk,0,-8,1,0,0,rectangle,0,-8,1,0,0,,1,0.0019,0,0,-8,1,0,0,0,3,3,95,1,14,second,,,,,,,,,,,,,,,,,,,,,,,,,,,,,,,,,,,,,,,,,,,,,,,,,,,,,,,,,,,,,,,,,,,,,,,
,,,,,,608e66a90accb5f38c30ff64,62c539d1090ffd6a618437f5,2022-07-06_10h29.54.653,Colour_Asymmetry_Pilot,2022.1.3,Win32,59.99880002,62c50e9c1127f2cd403a315f,,,,,,,,,,,,,,,,,,,,twoone,,-2,6.464,,,,,,,,,,,,,,,,,,,,,,,,,,,,,,,,,,"[-0.4276,0.0038000000000000256,-0.3256]","[-0.38039999999999996,-0.4276,-0.1452]",-87,-58,1,0,0,response5disk,-28,10,1,0,0,rectangle,-28,10,1,0,0,,3,0.0011,0,-28,10,1,0,0,0,4,4,158,1,77,second,,,,,,,,,,,,,,,,,,,,,,,,,,,,,,,,,,,,,,,,,,,,,,,,,,,,,,,,,,,,,,,,,,,,,,,
,,,,,,608e66a90accb5f38c30ff64,62c539d1090ffd6a618437f5,2022-07-06_10h29.54.653,Colour_Asymmetry_Pilot,2022.1.3,Win32,59.99880002,62c50e9c1127f2cd403a315f,,,,,,,,,,,,,,,,,,,,threeone,,2,0.6994,,,,,,,,,,,,,,,,,,,,,,,,,,,,,,,,,,"[0.3568,-0.20799999999999996,-0.9844]","[0.3802000000000001,0.19199999999999995,-0.6394]",86,-42,1,0,0,response3disk,-5,-7,1,0,0,rectangle,-5,-7,1,0,0,,1,0.0012,0,-5,-7,1,0,0,0,5,5,5,1,5,first,,,,,,,,,,,,,,,,,,,,,,,,,,,,,,,,,,,,,,,,,,,,,,,,,,,,,,,,,,,,,,,,,,,,,,,
,,,,,,608e66a90accb5f38c30ff64,62c539d1090ffd6a618437f5,2022-07-06_10h29.54.653,Colour_Asymmetry_Pilot,2022.1.3,Win32,59.99880002,62c50e9c1127f2cd403a315f,,,,,,,,,,,,,,,,,,,,twoone,,3,1.7495,,,,,,,,,,,,,,,,,,,,,,,,,,,,,,,,,,"[0.4196,0.4665999999999999,0.3568]","[0.8115999999999999,-0.0040000000000000036,-0.09819999999999995]",103,41,1,0,0,response1disk,16,-11,1,0,0,rectangle,16,-11,1,0,0,,1,0.0002,0,16,-11,1,0,0,0,6,6,110,1,29,second,,,,,,,,,,,,,,,,,,,,,,,,,,,,,,,,,,,,,,,,,,,,,,,,,,,,,,,,,,,,,,,,,,,,,,,
,,,,,,608e66a90accb5f38c30ff64,62c539d1090ffd6a618437f5,2022-07-06_10h29.54.653,Colour_Asymmetry_Pilot,2022.1.3,Win32,59.99880002,62c50e9c1127f2cd403a315f,,,,,,,,,,,,,,,,,,,,fourthree,,-1,0.6329,,,,,,,,,,,,,,,,,,,,,,,,,,,,,,,,,,"[0.5528,0.7409999999999999,-0.71]","[-0.17659999999999998,-0.2864,-0.8354]",-79,-110,1,0,0,response5disk,11,9,1,0,0,rectangle,11,9,1,0,0,,1,0.0001,0,11,9,1,0,0,0,7,7,61,1,61,first,,,,,,,,,,,,,,,,,,,,,,,,,,,,,,,,,,,,,,,,,,,,,,,,,,,,,,,,,,,,,,,,,,,,,,,
,,,,,,608e66a90accb5f38c30ff64,62c539d1090ffd6a618437f5,2022-07-06_10h29.54.653,Colour_Asymmetry_Pilot,2022.1.3,Win32,59.99880002,62c50e9c1127f2cd403a315f,,,,,,,,,,,,,,,,,,,,fourtwo,,-2,2.5824,,,,,,,,,,,,,,,,,,,,,,,,,,,,,,,,,,"[0.37240000000000006,-0.050999999999999934,-0.5216]","[-0.17659999999999998,0.3253999999999999,0.19999999999999996]",-113,-83,1,0,0,response5disk,25,19,1,0,0,rectangle,25,19,1,0,0,,2,0.0024,0,25,19,1,0,0,0,8,8,100,1,19,second,,,,,,,,,,,,,,,,,,,,,,,,,,,,,,,,,,,,,,,,,,,,,,,,,,,,,,,,,,,,,,,,,,,,,,,
,,,,,,608e66a90accb5f38c30ff64,62c539d1090ffd6a618437f5,2022-07-06_10h29.54.653,Colour_Asymmetry_Pilot,2022.1.3,Win32,59.99880002,62c50e9c1127f2cd403a315f,,,,,,,,,,,,,,,,,,,,onethree,,-1,1.4992,,,,,,,,,,,,,,,,,,,,,,,,,,,,,,,,,,"[-0.26280000000000003,-0.4746,-0.2158]","[-0.4276,0.0038000000000000256,-0.3256]",-44,-125,1,0,0,response5disk,6,0,1,0,0,rectangle,6,0,1,0,0,,1,0.002,0,6,0,1,0,0,0,9,9,25,1,25,first,,,,,,,,,,,,,,,,,,,,,,,,,,,,,,,,,,,,,,,,,,,,,,,,,,,,,,,,,,,,,,,,,,,,,,,
,,,,,,608e66a90accb5f38c30ff64,62c539d1090ffd6a618437f5,2022-07-06_10h29.54.653,Colour_Asymmetry_Pilot,2022.1.3,Win32,59.99880002,62c50e9c1127f2cd403a315f,,,,,,,,,,,,,,,,,,,,threefour,,2,4.2478,,,,,,,,,,,,,,,,,,,,,,,,,,,,,,,,,,"[0.2784,-0.31000000000000005,-0.5452]","[0.8115999999999999,-0.0040000000000000036,-0.09819999999999995]",94,-60,1,0,0,response3disk,32,4,1,0,0,rectangle,32,4,1,0,0,,3,0.001,0,32,4,1,0,0,0,10,10,57,1,57,first,,,,,,,,,,,,,,,,,,,,,,,,,,,,,,,,,,,,,,,,,,,,,,,,,,,,,,,,,,,,,,,,,,,,,,,
,,,,,,608e66a90accb5f38c30ff64,62c539d1090ffd6a618437f5,2022-07-06_10h29.54.653,Colour_Asymmetry_Pilot,2022.1.3,Win32,59.99880002,62c50e9c1127f2cd403a315f,,,,,,,,,,,,,,,,,,,,threeone,,4,0.7162,,,,,,,,,,,,,,,,,,,,,,,,,,,,,,,,,,"[0.3802000000000001,0.19199999999999995,-0.6394]","[0.3568,-0.20799999999999996,-0.9844]",79,113,1,0,0,response1disk,13,-1,1,0,0,rectangle,13,-1,1,0,0,,1,0.0011,0,13,-1,1,0,0,0,11,11,86,1,5,second,,,,,,,,,,,,,,,,,,,,,,,,,,,,,,,,,,,,,,,,,,,,,,,,,,,,,,,,,,,,,,,,,,,,,,,
,,,,,,608e66a90accb5f38c30ff64,62c539d1090ffd6a618437f5,2022-07-06_10h29.54.653,Colour_Asymmetry_Pilot,2022.1.3,Win32,59.99880002,62c50e9c1127f2cd403a315f,,,,,,,,,,,,,,,,,,,,onetwo,,1,0.8326,,,,,,,,,,,,,,,,,,,,,,,,,,,,,,,,,,"[0.04299999999999993,0.16060000000000008,-0.6628000000000001]","[0.23120000000000007,-0.7726,-0.34120000000000006]",44,-118,1,0,0,response3disk,9,1,1,0,0,rectangle,9,1,1,0,0,,2,0.0009,0,9,1,1,0,0,0,12,12,53,1,53,first,,,,,,,,,,,,,,,,,,,,,,,,,,,,,,,,,,,,,,,,,,,,,,,,,,,,,,,,,,,,,,,,,,,,,,,
,,,,,,608e66a90accb5f38c30ff64,62c539d1090ffd6a618437f5,2022-07-06_10h29.54.653,Colour_Asymmetry_Pilot,2022.1.3,Win32,59.99880002,62c50e9c1127f2cd403a315f,,,,,,,,,,,,,,,,,,,,threeone,,4,0.7499,,,,,,,,,,,,,,,,,,,,,,,,,,,,,,,,,,"[0.2862,0.7802,0.3568]","[0.9686000000000001,0.3802000000000001,0.19999999999999996]",42,109,1,0,0,response1disk,4,8,1,0,0,rectangle,4,8,1,0,0,,1,0.0021,0,4,8,1,0,0,0,13,13,80,1,80,first,,,,,,,,,,,,,,,,,,,,,,,,,,,,,,,,,,,,,,,,,,,,,,,,,,,,,,,,,,,,,,,,,,,,,,,
,,,,,,608e66a90accb5f38c30ff64,62c539d1090ffd6a618437f5,2022-07-06_10h29.54.653,Colour_Asymmetry_Pilot,2022.1.3,Win32,59.99880002,62c50e9c1127f2cd403a315f,,,,,,,,,,,,,,,,,,,,threeone,,-2,1.0825,,,,,,,,,,,,,,,,,,,,,,,,,,,,,,,,,,"[0.3802000000000001,0.19199999999999995,-0.6394]","[-0.8118,-0.8198,-0.5452]",-129,-54,1,0,0,response5disk,-32,-7,1,0,0,rectangle,-32,-7,1,0,0,,3,0.0016,0,-32,-7,1,0,0,0,14,14,9,1,9,first,,,,,,,,,,,,,,,,,,,,,,,,,,,,,,,,,,,,,,,,,,,,,,,,,,,,,,,,,,,,,,,,,,,,,,,
,,,,,,608e66a90accb5f38c30ff64,62c539d1090ffd6a618437f5,2022-07-06_10h29.54.653,Colour_Asymmetry_Pilot,2022.1.3,Win32,59.99880002,62c50e9c1127f2cd403a315f,,,,,,,,,,,,,,,,,,,,onetwo,,1,1.4003,,,,,,,,,,,,,,,,,,,,,,,,,,,,,,,,,,"[0.18419999999999992,-0.4276,-0.404]","[0.0351999999999999,0.41159999999999997,0.0038000000000000256]",33,-130,1,0,0,response3disk,6,-13,1,0,0,rectangle,6,-13,1,0,0,,2,0.0011,0,6,-13,1,0,0,0,15,15,50,1,50,first,,,,,,,,,,,,,,,,,,,,,,,,,,,,,,,,,,,,,,,,,,,,,,,,,,,,,,,,,,,,,,,,,,,,,,,
,,,,,,608e66a90accb5f38c30ff64,62c539d1090ffd6a618437f5,2022-07-06_10h29.54.653,Colour_Asymmetry_Pilot,2022.1.3,Win32,59.99880002,62c50e9c1127f2cd403a315f,,,,,,,,,,,,,,,,,,,,threefour,,3,0.6499,,,,,,,,,,,,,,,,,,,,,,,,,,,,,,,,,,"[-0.4668,-0.8746,-0.2942]","[-0.9766,-0.34920000000000007,0.2156]",121,53,1,0,0,response1disk,-12,-7,1,0,0,rectangle,120,-65,1,0,0,2,2,1.8157,1,7,-6,1,0,0,0,16,16,76,1,76,first,response3disk_3,rectangle,,,,,,,,,,,,,,,,,,,,,,,,,,,,,,,,,,,,,,,,,,,,,,,,,,,,,,,,,,,,,,,,,,,,,
,,,,,,608e66a90accb5f38c30ff64,62c539d1090ffd6a618437f5,2022-07-06_10h29.54.653,Colour_Asymmetry_Pilot,2022.1.3,Win32,59.99880002,62c50e9c1127f2cd403a315f,,,,,,,,,,,,,,,,,,,,threefour,,-1,1.4327,,,,,,,,,,,,,,,,,,,,,,,,,,,,,,,,,,"[0.04299999999999993,0.16060000000000008,-0.6628000000000001]","[0.3881999999999999,-0.23939999999999995,-0.05040000000000011]",-61,-121,1,0,0,response5disk,28,2,1,0,0,rectangle,28,2,1,0,0,2,1,0.0009,0,28,2,1,0,0,0,17,17,121,1,40,second,,,,,,,,,,,,,,,,,,,,,,,,,,,,,,,,,,,,,,,,,,,,,,,,,,,,,,,,,,,,,,,,,,,,,,,
