trials.thisRepN,trials.thisTrialN,trials.thisN,trials.thisIndex,trials.ran,Colourcodes,participant,session,date,expName,psychopyVersion,OS,frameRate,study_id,trials_4.thisRepN,trials_4.thisTrialN,trials_4.thisN,trials_4.thisIndex,trials_4.ran,StimulusPos,key_resp.keys,key_resp.rt,key_resp_2.keys,key_resp_2.rt,key_resp_15.keys,key_resp_15.rt,key_resp_17.keys,key_resp_17.rt,key_resp_9.keys,key_resp_9.rt,key_resp_10.keys,key_resp_10.rt,Circle1_col,Ecc,Circle2_col,similarity,response_time,mouse_5.x,mouse_5.y,mouse_5.leftButton,mouse_5.midButton,mouse_5.rightButton,mouse_5.clicked_name,mouse_10.x,mouse_10.y,mouse_10.leftButton,mouse_10.midButton,mouse_10.rightButton,mouse_10.clicked_name,mouse_7.x,mouse_7.y,mouse_7.leftButton,mouse_7.midButton,mouse_7.rightButton,catchnumberprac,mouse_6.x,mouse_6.y,mouse_6.leftButton,mouse_6.midButton,mouse_6.rightButton,duringprac.thisRepN,duringprac.thisTrialN,duringprac.thisN,duringprac.thisIndex,duringprac.ran,mouse_7.clicked_name,catchprac,mouse_6.clicked_name,key_resp_22.keys,key_resp_22.rt,Circle1_colour,Circle2_colour,mouse.x,mouse.y,mouse.leftButton,mouse.midButton,mouse.rightButton,mouse.clicked_name,mouse_2.x,mouse_2.y,mouse_2.leftButton,mouse_2.midButton,mouse_2.rightButton,mouse_2.clicked_name,mouse_3.x,mouse_3.y,mouse_3.leftButton,mouse_3.midButton,mouse_3.rightButton,catchresponse,catchnumber,response_time_catch,Catch,mouse_11.x,mouse_11.y,mouse_11.leftButton,mouse_11.midButton,mouse_11.rightButton,trials_2.thisRepN,trials_2.thisTrialN,trials_2.thisN,trials_2.thisIndex,trials_2.ran,Colourpair,Temporder,mouse_3.clicked_name,mouse_11.clicked_name,trials_3.thisRepN,trials_3.thisTrialN,trials_3.thisN,trials_3.thisIndex,trials_3.ran,key_resp_instr_Ishi.keys,key_resp_instr_Ishi.rt,Ishi_trial_keyresp.keys,Ishi_textbox.text,Ishi_mouse.x,Ishi_mouse.y,Ishi_mouse.leftButton,Ishi_mouse.midButton,Ishi_mouse.rightButton,Ishi_mouse.clicked_name,Ishi_loop.thisRepN,Ishi_loop.thisTrialN,Ishi_loop.thisN,Ishi_loop.thisIndex,Ishi_loop.ran,imageaddress,textbox.text,mouse_4.x,mouse_4.y,mouse_4.leftButton,mouse_4.midButton,mouse_4.rightButton,mouse_4.clicked_name,textbox_2.text,mouse_8.x,mouse_8.y,mouse_8.leftButton,mouse_8.midButton,mouse_8.rightButton,mouse_8.clicked_name,textbox_3.text,mouse_9.x,mouse_9.y,mouse_9.leftButton,mouse_9.midButton,mouse_9.rightButton,mouse_9.clicked_name,textbox_4.text,mouse_12.x,mouse_12.y,mouse_12.leftButton,mouse_12.midButton,mouse_12.rightButton,mouse_12.clicked_name,textbox_5.text,mouse_13.x,mouse_13.y,mouse_13.leftButton,mouse_13.midButton,mouse_13.rightButton,mouse_13.clicked_name,textbox_6.text,mouse_14.x,mouse_14.y,mouse_14.leftButton,mouse_14.midButton,mouse_14.rightButton,mouse_14.clicked_name,textbox_7.text,mouse_15.x,mouse_15.y,mouse_15.leftButton,mouse_15.midButton,mouse_15.rightButton,mouse_15.clicked_name
0,0,0,14,1,,615409afcfcc9627a0bf44c3,62c538e854f3a38dea76a905,2022-07-06_09h25.51.267,Colour_Asymmetry_Pilot,2022.1.3,Win32,59.88741167,62c50e9c1127f2cd403a315f,,,,,,,,,,,,,,,,,,,,,,,,,,,,,,,,,,,,,,,,,,,,,,,,,,,,,,,,,,,,,,,,,,,,,,,,,,,,,,,,,,,,,,,,,,,,,,,,,,,,,,,,,,,,,,,,,,,,,,,,,,,,,,,,,,,,,,,,,,,,,,,,,,,,,,,,,,,,,,,,,,,
0,1,1,13,1,,615409afcfcc9627a0bf44c3,62c538e854f3a38dea76a905,2022-07-06_09h25.51.267,Colour_Asymmetry_Pilot,2022.1.3,Win32,59.88741167,62c50e9c1127f2cd403a315f,,,,,,,,,,,,,,,,,,,,,,,,,,,,,,,,,,,,,,,,,,,,,,,,,,,,,,,,,,,,,,,,,,,,,,,,,,,,,,,,,,,,,,,,,,,,,,,,,,,,,,,,,,,,,,,,,,,,,,,,,,,,,,,,,,,,,,,,,,,,,,,,,,,,,,,,,,,,,,,,,,,
0,2,2,63,1,,615409afcfcc9627a0bf44c3,62c538e854f3a38dea76a905,2022-07-06_09h25.51.267,Colour_Asymmetry_Pilot,2022.1.3,Win32,59.88741167,62c50e9c1127f2cd403a315f,,,,,,,,,,,,,,,,,,,,,,,,,,,,,,,,,,,,,,,,,,,,,,,,,,,,,,,,,,,,,,,,,,,,,,,,,,,,,,,,,,,,,,,,,,,,,,,,,,,,,,,,,,,,,,,,,,,,,,,,,,,,,,,,,,,,,,,,,,,,,,,,,,,,,,,,,,,,,,,,,,,
0,3,3,25,1,,615409afcfcc9627a0bf44c3,62c538e854f3a38dea76a905,2022-07-06_09h25.51.267,Colour_Asymmetry_Pilot,2022.1.3,Win32,59.88741167,62c50e9c1127f2cd403a315f,,,,,,,,,,,,,,,,,,,,,,,,,,,,,,,,,,,,,,,,,,,,,,,,,,,,,,,,,,,,,,,,,,,,,,,,,,,,,,,,,,,,,,,,,,,,,,,,,,,,,,,,,,,,,,,,,,,,,,,,,,,,,,,,,,,,,,,,,,,,,,,,,,,,,,,,,,,,,,,,,,,
0,4,4,3,1,,615409afcfcc9627a0bf44c3,62c538e854f3a38dea76a905,2022-07-06_09h25.51.267,Colour_Asymmetry_Pilot,2022.1.3,Win32,59.88741167,62c50e9c1127f2cd403a315f,,,,,,,,,,,,,,,,,,,,,,,,,,,,,,,,,,,,,,,,,,,,,,,,,,,,,,,,,,,,,,,,,,,,,,,,,,,,,,,,,,,,,,,,,,,,,,,,,,,,,,,,,,,,,,,,,,,,,,,,,,,,,,,,,,,,,,,,,,,,,,,,,,,,,,,,,,,,,,,,,,,
0,5,5,20,1,,615409afcfcc9627a0bf44c3,62c538e854f3a38dea76a905,2022-07-06_09h25.51.267,Colour_Asymmetry_Pilot,2022.1.3,Win32,59.88741167,62c50e9c1127f2cd403a315f,,,,,,,,,,,,,,,,,,,,,,,,,,,,,,,,,,,,,,,,,,,,,,,,,,,,,,,,,,,,,,,,,,,,,,,,,,,,,,,,,,,,,,,,,,,,,,,,,,,,,,,,,,,,,,,,,,,,,,,,,,,,,,,,,,,,,,,,,,,,,,,,,,,,,,,,,,,,,,,,,,,
0,6,6,79,1,,615409afcfcc9627a0bf44c3,62c538e854f3a38dea76a905,2022-07-06_09h25.51.267,Colour_Asymmetry_Pilot,2022.1.3,Win32,59.88741167,62c50e9c1127f2cd403a315f,,,,,,,,,,,,,,,,,,,,,,,,,,,,,,,,,,,,,,,,,,,,,,,,,,,,,,,,,,,,,,,,,,,,,,,,,,,,,,,,,,,,,,,,,,,,,,,,,,,,,,,,,,,,,,,,,,,,,,,,,,,,,,,,,,,,,,,,,,,,,,,,,,,,,,,,,,,,,,,,,,,
0,7,7,75,1,,615409afcfcc9627a0bf44c3,62c538e854f3a38dea76a905,2022-07-06_09h25.51.267,Colour_Asymmetry_Pilot,2022.1.3,Win32,59.88741167,62c50e9c1127f2cd403a315f,,,,,,,,,,,,,,,,,,,,,,,,,,,,,,,,,,,,,,,,,,,,,,,,,,,,,,,,,,,,,,,,,,,,,,,,,,,,,,,,,,,,,,,,,,,,,,,,,,,,,,,,,,,,,,,,,,,,,,,,,,,,,,,,,,,,,,,,,,,,,,,,,,,,,,,,,,,,,,,,,,,
0,8,8,84,1,,615409afcfcc9627a0bf44c3,62c538e854f3a38dea76a905,2022-07-06_09h25.51.267,Colour_Asymmetry_Pilot,2022.1.3,Win32,59.88741167,62c50e9c1127f2cd403a315f,,,,,,,,,,,,,,,,,,,,,,,,,,,,,,,,,,,,,,,,,,,,,,,,,,,,,,,,,,,,,,,,,,,,,,,,,,,,,,,,,,,,,,,,,,,,,,,,,,,,,,,,,,,,,,,,,,,,,,,,,,,,,,,,,,,,,,,,,,,,,,,,,,,,,,,,,,,,,,,,,,,
0,9,9,21,1,,615409afcfcc9627a0bf44c3,62c538e854f3a38dea76a905,2022-07-06_09h25.51.267,Colour_Asymmetry_Pilot,2022.1.3,Win32,59.88741167,62c50e9c1127f2cd403a315f,,,,,,,,,,,,,,,,,,,,,,,,,,,,,,,,,,,,,,,,,,,,,,,,,,,,,,,,,,,,,,,,,,,,,,,,,,,,,,,,,,,,,,,,,,,,,,,,,,,,,,,,,,,,,,,,,,,,,,,,,,,,,,,,,,,,,,,,,,,,,,,,,,,,,,,,,,,,,,,,,,,
0,10,10,67,1,,615409afcfcc9627a0bf44c3,62c538e854f3a38dea76a905,2022-07-06_09h25.51.267,Colour_Asymmetry_Pilot,2022.1.3,Win32,59.88741167,62c50e9c1127f2cd403a315f,,,,,,,,,,,,,,,,,,,,,,,,,,,,,,,,,,,,,,,,,,,,,,,,,,,,,,,,,,,,,,,,,,,,,,,,,,,,,,,,,,,,,,,,,,,,,,,,,,,,,,,,,,,,,,,,,,,,,,,,,,,,,,,,,,,,,,,,,,,,,,,,,,,,,,,,,,,,,,,,,,,
0,11,11,51,1,,615409afcfcc9627a0bf44c3,62c538e854f3a38dea76a905,2022-07-06_09h25.51.267,Colour_Asymmetry_Pilot,2022.1.3,Win32,59.88741167,62c50e9c1127f2cd403a315f,,,,,,,,,,,,,,,,,,,,,,,,,,,,,,,,,,,,,,,,,,,,,,,,,,,,,,,,,,,,,,,,,,,,,,,,,,,,,,,,,,,,,,,,,,,,,,,,,,,,,,,,,,,,,,,,,,,,,,,,,,,,,,,,,,,,,,,,,,,,,,,,,,,,,,,,,,,,,,,,,,,
0,12,12,15,1,,615409afcfcc9627a0bf44c3,62c538e854f3a38dea76a905,2022-07-06_09h25.51.267,Colour_Asymmetry_Pilot,2022.1.3,Win32,59.88741167,62c50e9c1127f2cd403a315f,,,,,,,,,,,,,,,,,,,,,,,,,,,,,,,,,,,,,,,,,,,,,,,,,,,,,,,,,,,,,,,,,,,,,,,,,,,,,,,,,,,,,,,,,,,,,,,,,,,,,,,,,,,,,,,,,,,,,,,,,,,,,,,,,,,,,,,,,,,,,,,,,,,,,,,,,,,,,,,,,,,
0,13,13,27,1,,615409afcfcc9627a0bf44c3,62c538e854f3a38dea76a905,2022-07-06_09h25.51.267,Colour_Asymmetry_Pilot,2022.1.3,Win32,59.88741167,62c50e9c1127f2cd403a315f,,,,,,,,,,,,,,,,,,,,,,,,,,,,,,,,,,,,,,,,,,,,,,,,,,,,,,,,,,,,,,,,,,,,,,,,,,,,,,,,,,,,,,,,,,,,,,,,,,,,,,,,,,,,,,,,,,,,,,,,,,,,,,,,,,,,,,,,,,,,,,,,,,,,,,,,,,,,,,,,,,,
0,14,14,26,1,,615409afcfcc9627a0bf44c3,62c538e854f3a38dea76a905,2022-07-06_09h25.51.267,Colour_Asymmetry_Pilot,2022.1.3,Win32,59.88741167,62c50e9c1127f2cd403a315f,,,,,,,,,,,,,,,,,,,,,,,,,,,,,,,,,,,,,,,,,,,,,,,,,,,,,,,,,,,,,,,,,,,,,,,,,,,,,,,,,,,,,,,,,,,,,,,,,,,,,,,,,,,,,,,,,,,,,,,,,,,,,,,,,,,,,,,,,,,,,,,,,,,,,,,,,,,,,,,,,,,
0,15,15,78,1,,615409afcfcc9627a0bf44c3,62c538e854f3a38dea76a905,2022-07-06_09h25.51.267,Colour_Asymmetry_Pilot,2022.1.3,Win32,59.88741167,62c50e9c1127f2cd403a315f,,,,,,,,,,,,,,,,,,,,,,,,,,,,,,,,,,,,,,,,,,,,,,,,,,,,,,,,,,,,,,,,,,,,,,,,,,,,,,,,,,,,,,,,,,,,,,,,,,,,,,,,,,,,,,,,,,,,,,,,,,,,,,,,,,,,,,,,,,,,,,,,,,,,,,,,,,,,,,,,,,,
0,16,16,59,1,,615409afcfcc9627a0bf44c3,62c538e854f3a38dea76a905,2022-07-06_09h25.51.267,Colour_Asymmetry_Pilot,2022.1.3,Win32,59.88741167,62c50e9c1127f2cd403a315f,,,,,,,,,,,,,,,,,,,,,,,,,,,,,,,,,,,,,,,,,,,,,,,,,,,,,,,,,,,,,,,,,,,,,,,,,,,,,,,,,,,,,,,,,,,,,,,,,,,,,,,,,,,,,,,,,,,,,,,,,,,,,,,,,,,,,,,,,,,,,,,,,,,,,,,,,,,,,,,,,,,
0,17,17,62,1,,615409afcfcc9627a0bf44c3,62c538e854f3a38dea76a905,2022-07-06_09h25.51.267,Colour_Asymmetry_Pilot,2022.1.3,Win32,59.88741167,62c50e9c1127f2cd403a315f,,,,,,,,,,,,,,,,,,,,,,,,,,,,,,,,,,,,,,,,,,,,,,,,,,,,,,,,,,,,,,,,,,,,,,,,,,,,,,,,,,,,,,,,,,,,,,,,,,,,,,,,,,,,,,,,,,,,,,,,,,,,,,,,,,,,,,,,,,,,,,,,,,,,,,,,,,,,,,,,,,,
0,18,18,41,1,,615409afcfcc9627a0bf44c3,62c538e854f3a38dea76a905,2022-07-06_09h25.51.267,Colour_Asymmetry_Pilot,2022.1.3,Win32,59.88741167,62c50e9c1127f2cd403a315f,,,,,,,,,,,,,,,,,,,,,,,,,,,,,,,,,,,,,,,,,,,,,,,,,,,,,,,,,,,,,,,,,,,,,,,,,,,,,,,,,,,,,,,,,,,,,,,,,,,,,,,,,,,,,,,,,,,,,,,,,,,,,,,,,,,,,,,,,,,,,,,,,,,,,,,,,,,,,,,,,,,
0,19,19,70,1,,615409afcfcc9627a0bf44c3,62c538e854f3a38dea76a905,2022-07-06_09h25.51.267,Colour_Asymmetry_Pilot,2022.1.3,Win32,59.88741167,62c50e9c1127f2cd403a315f,,,,,,,,,,,,,,,,,,,,,,,,,,,,,,,,,,,,,,,,,,,,,,,,,,,,,,,,,,,,,,,,,,,,,,,,,,,,,,,,,,,,,,,,,,,,,,,,,,,,,,,,,,,,,,,,,,,,,,,,,,,,,,,,,,,,,,,,,,,,,,,,,,,,,,,,,,,,,,,,,,,
0,20,20,73,1,,615409afcfcc9627a0bf44c3,62c538e854f3a38dea76a905,2022-07-06_09h25.51.267,Colour_Asymmetry_Pilot,2022.1.3,Win32,59.88741167,62c50e9c1127f2cd403a315f,,,,,,,,,,,,,,,,,,,,,,,,,,,,,,,,,,,,,,,,,,,,,,,,,,,,,,,,,,,,,,,,,,,,,,,,,,,,,,,,,,,,,,,,,,,,,,,,,,,,,,,,,,,,,,,,,,,,,,,,,,,,,,,,,,,,,,,,,,,,,,,,,,,,,,,,,,,,,,,,,,,
0,21,21,68,1,,615409afcfcc9627a0bf44c3,62c538e854f3a38dea76a905,2022-07-06_09h25.51.267,Colour_Asymmetry_Pilot,2022.1.3,Win32,59.88741167,62c50e9c1127f2cd403a315f,,,,,,,,,,,,,,,,,,,,,,,,,,,,,,,,,,,,,,,,,,,,,,,,,,,,,,,,,,,,,,,,,,,,,,,,,,,,,,,,,,,,,,,,,,,,,,,,,,,,,,,,,,,,,,,,,,,,,,,,,,,,,,,,,,,,,,,,,,,,,,,,,,,,,,,,,,,,,,,,,,,
0,22,22,40,1,,615409afcfcc9627a0bf44c3,62c538e854f3a38dea76a905,2022-07-06_09h25.51.267,Colour_Asymmetry_Pilot,2022.1.3,Win32,59.88741167,62c50e9c1127f2cd403a315f,,,,,,,,,,,,,,,,,,,,,,,,,,,,,,,,,,,,,,,,,,,,,,,,,,,,,,,,,,,,,,,,,,,,,,,,,,,,,,,,,,,,,,,,,,,,,,,,,,,,,,,,,,,,,,,,,,,,,,,,,,,,,,,,,,,,,,,,,,,,,,,,,,,,,,,,,,,,,,,,,,,
0,23,23,80,1,,615409afcfcc9627a0bf44c3,62c538e854f3a38dea76a905,2022-07-06_09h25.51.267,Colour_Asymmetry_Pilot,2022.1.3,Win32,59.88741167,62c50e9c1127f2cd403a315f,,,,,,,,,,,,,,,,,,,,,,,,,,,,,,,,,,,,,,,,,,,,,,,,,,,,,,,,,,,,,,,,,,,,,,,,,,,,,,,,,,,,,,,,,,,,,,,,,,,,,,,,,,,,,,,,,,,,,,,,,,,,,,,,,,,,,,,,,,,,,,,,,,,,,,,,,,,,,,,,,,,
0,24,24,90,1,,615409afcfcc9627a0bf44c3,62c538e854f3a38dea76a905,2022-07-06_09h25.51.267,Colour_Asymmetry_Pilot,2022.1.3,Win32,59.88741167,62c50e9c1127f2cd403a315f,,,,,,,,,,,,,,,,,,,,,,,,,,,,,,,,,,,,,,,,,,,,,,,,,,,,,,,,,,,,,,,,,,,,,,,,,,,,,,,,,,,,,,,,,,,,,,,,,,,,,,,,,,,,,,,,,,,,,,,,,,,,,,,,,,,,,,,,,,,,,,,,,,,,,,,,,,,,,,,,,,,
0,25,25,81,1,,615409afcfcc9627a0bf44c3,62c538e854f3a38dea76a905,2022-07-06_09h25.51.267,Colour_Asymmetry_Pilot,2022.1.3,Win32,59.88741167,62c50e9c1127f2cd403a315f,,,,,,,,,,,,,,,,,,,,,,,,,,,,,,,,,,,,,,,,,,,,,,,,,,,,,,,,,,,,,,,,,,,,,,,,,,,,,,,,,,,,,,,,,,,,,,,,,,,,,,,,,,,,,,,,,,,,,,,,,,,,,,,,,,,,,,,,,,,,,,,,,,,,,,,,,,,,,,,,,,,
0,26,26,33,1,,615409afcfcc9627a0bf44c3,62c538e854f3a38dea76a905,2022-07-06_09h25.51.267,Colour_Asymmetry_Pilot,2022.1.3,Win32,59.88741167,62c50e9c1127f2cd403a315f,,,,,,,,,,,,,,,,,,,,,,,,,,,,,,,,,,,,,,,,,,,,,,,,,,,,,,,,,,,,,,,,,,,,,,,,,,,,,,,,,,,,,,,,,,,,,,,,,,,,,,,,,,,,,,,,,,,,,,,,,,,,,,,,,,,,,,,,,,,,,,,,,,,,,,,,,,,,,,,,,,,
0,27,27,69,1,,615409afcfcc9627a0bf44c3,62c538e854f3a38dea76a905,2022-07-06_09h25.51.267,Colour_Asymmetry_Pilot,2022.1.3,Win32,59.88741167,62c50e9c1127f2cd403a315f,,,,,,,,,,,,,,,,,,,,,,,,,,,,,,,,,,,,,,,,,,,,,,,,,,,,,,,,,,,,,,,,,,,,,,,,,,,,,,,,,,,,,,,,,,,,,,,,,,,,,,,,,,,,,,,,,,,,,,,,,,,,,,,,,,,,,,,,,,,,,,,,,,,,,,,,,,,,,,,,,,,
0,28,28,48,1,,615409afcfcc9627a0bf44c3,62c538e854f3a38dea76a905,2022-07-06_09h25.51.267,Colour_Asymmetry_Pilot,2022.1.3,Win32,59.88741167,62c50e9c1127f2cd403a315f,,,,,,,,,,,,,,,,,,,,,,,,,,,,,,,,,,,,,,,,,,,,,,,,,,,,,,,,,,,,,,,,,,,,,,,,,,,,,,,,,,,,,,,,,,,,,,,,,,,,,,,,,,,,,,,,,,,,,,,,,,,,,,,,,,,,,,,,,,,,,,,,,,,,,,,,,,,,,,,,,,,
0,29,29,9,1,,615409afcfcc9627a0bf44c3,62c538e854f3a38dea76a905,2022-07-06_09h25.51.267,Colour_Asymmetry_Pilot,2022.1.3,Win32,59.88741167,62c50e9c1127f2cd403a315f,,,,,,,,,,,,,,,,,,,,,,,,,,,,,,,,,,,,,,,,,,,,,,,,,,,,,,,,,,,,,,,,,,,,,,,,,,,,,,,,,,,,,,,,,,,,,,,,,,,,,,,,,,,,,,,,,,,,,,,,,,,,,,,,,,,,,,,,,,,,,,,,,,,,,,,,,,,,,,,,,,,
0,30,30,31,1,,615409afcfcc9627a0bf44c3,62c538e854f3a38dea76a905,2022-07-06_09h25.51.267,Colour_Asymmetry_Pilot,2022.1.3,Win32,59.88741167,62c50e9c1127f2cd403a315f,,,,,,,,,,,,,,,,,,,,,,,,,,,,,,,,,,,,,,,,,,,,,,,,,,,,,,,,,,,,,,,,,,,,,,,,,,,,,,,,,,,,,,,,,,,,,,,,,,,,,,,,,,,,,,,,,,,,,,,,,,,,,,,,,,,,,,,,,,,,,,,,,,,,,,,,,,,,,,,,,,,
0,31,31,35,1,,615409afcfcc9627a0bf44c3,62c538e854f3a38dea76a905,2022-07-06_09h25.51.267,Colour_Asymmetry_Pilot,2022.1.3,Win32,59.88741167,62c50e9c1127f2cd403a315f,,,,,,,,,,,,,,,,,,,,,,,,,,,,,,,,,,,,,,,,,,,,,,,,,,,,,,,,,,,,,,,,,,,,,,,,,,,,,,,,,,,,,,,,,,,,,,,,,,,,,,,,,,,,,,,,,,,,,,,,,,,,,,,,,,,,,,,,,,,,,,,,,,,,,,,,,,,,,,,,,,,
0,32,32,53,1,,615409afcfcc9627a0bf44c3,62c538e854f3a38dea76a905,2022-07-06_09h25.51.267,Colour_Asymmetry_Pilot,2022.1.3,Win32,59.88741167,62c50e9c1127f2cd403a315f,,,,,,,,,,,,,,,,,,,,,,,,,,,,,,,,,,,,,,,,,,,,,,,,,,,,,,,,,,,,,,,,,,,,,,,,,,,,,,,,,,,,,,,,,,,,,,,,,,,,,,,,,,,,,,,,,,,,,,,,,,,,,,,,,,,,,,,,,,,,,,,,,,,,,,,,,,,,,,,,,,,
0,33,33,32,1,,615409afcfcc9627a0bf44c3,62c538e854f3a38dea76a905,2022-07-06_09h25.51.267,Colour_Asymmetry_Pilot,2022.1.3,Win32,59.88741167,62c50e9c1127f2cd403a315f,,,,,,,,,,,,,,,,,,,,,,,,,,,,,,,,,,,,,,,,,,,,,,,,,,,,,,,,,,,,,,,,,,,,,,,,,,,,,,,,,,,,,,,,,,,,,,,,,,,,,,,,,,,,,,,,,,,,,,,,,,,,,,,,,,,,,,,,,,,,,,,,,,,,,,,,,,,,,,,,,,,
0,34,34,88,1,,615409afcfcc9627a0bf44c3,62c538e854f3a38dea76a905,2022-07-06_09h25.51.267,Colour_Asymmetry_Pilot,2022.1.3,Win32,59.88741167,62c50e9c1127f2cd403a315f,,,,,,,,,,,,,,,,,,,,,,,,,,,,,,,,,,,,,,,,,,,,,,,,,,,,,,,,,,,,,,,,,,,,,,,,,,,,,,,,,,,,,,,,,,,,,,,,,,,,,,,,,,,,,,,,,,,,,,,,,,,,,,,,,,,,,,,,,,,,,,,,,,,,,,,,,,,,,,,,,,,
0,35,35,38,1,,615409afcfcc9627a0bf44c3,62c538e854f3a38dea76a905,2022-07-06_09h25.51.267,Colour_Asymmetry_Pilot,2022.1.3,Win32,59.88741167,62c50e9c1127f2cd403a315f,,,,,,,,,,,,,,,,,,,,,,,,,,,,,,,,,,,,,,,,,,,,,,,,,,,,,,,,,,,,,,,,,,,,,,,,,,,,,,,,,,,,,,,,,,,,,,,,,,,,,,,,,,,,,,,,,,,,,,,,,,,,,,,,,,,,,,,,,,,,,,,,,,,,,,,,,,,,,,,,,,,
0,36,36,49,1,,615409afcfcc9627a0bf44c3,62c538e854f3a38dea76a905,2022-07-06_09h25.51.267,Colour_Asymmetry_Pilot,2022.1.3,Win32,59.88741167,62c50e9c1127f2cd403a315f,,,,,,,,,,,,,,,,,,,,,,,,,,,,,,,,,,,,,,,,,,,,,,,,,,,,,,,,,,,,,,,,,,,,,,,,,,,,,,,,,,,,,,,,,,,,,,,,,,,,,,,,,,,,,,,,,,,,,,,,,,,,,,,,,,,,,,,,,,,,,,,,,,,,,,,,,,,,,,,,,,,
0,37,37,57,1,,615409afcfcc9627a0bf44c3,62c538e854f3a38dea76a905,2022-07-06_09h25.51.267,Colour_Asymmetry_Pilot,2022.1.3,Win32,59.88741167,62c50e9c1127f2cd403a315f,,,,,,,,,,,,,,,,,,,,,,,,,,,,,,,,,,,,,,,,,,,,,,,,,,,,,,,,,,,,,,,,,,,,,,,,,,,,,,,,,,,,,,,,,,,,,,,,,,,,,,,,,,,,,,,,,,,,,,,,,,,,,,,,,,,,,,,,,,,,,,,,,,,,,,,,,,,,,,,,,,,
0,38,38,47,1,,615409afcfcc9627a0bf44c3,62c538e854f3a38dea76a905,2022-07-06_09h25.51.267,Colour_Asymmetry_Pilot,2022.1.3,Win32,59.88741167,62c50e9c1127f2cd403a315f,,,,,,,,,,,,,,,,,,,,,,,,,,,,,,,,,,,,,,,,,,,,,,,,,,,,,,,,,,,,,,,,,,,,,,,,,,,,,,,,,,,,,,,,,,,,,,,,,,,,,,,,,,,,,,,,,,,,,,,,,,,,,,,,,,,,,,,,,,,,,,,,,,,,,,,,,,,,,,,,,,,
0,39,39,12,1,,615409afcfcc9627a0bf44c3,62c538e854f3a38dea76a905,2022-07-06_09h25.51.267,Colour_Asymmetry_Pilot,2022.1.3,Win32,59.88741167,62c50e9c1127f2cd403a315f,,,,,,,,,,,,,,,,,,,,,,,,,,,,,,,,,,,,,,,,,,,,,,,,,,,,,,,,,,,,,,,,,,,,,,,,,,,,,,,,,,,,,,,,,,,,,,,,,,,,,,,,,,,,,,,,,,,,,,,,,,,,,,,,,,,,,,,,,,,,,,,,,,,,,,,,,,,,,,,,,,,
0,40,40,23,1,,615409afcfcc9627a0bf44c3,62c538e854f3a38dea76a905,2022-07-06_09h25.51.267,Colour_Asymmetry_Pilot,2022.1.3,Win32,59.88741167,62c50e9c1127f2cd403a315f,,,,,,,,,,,,,,,,,,,,,,,,,,,,,,,,,,,,,,,,,,,,,,,,,,,,,,,,,,,,,,,,,,,,,,,,,,,,,,,,,,,,,,,,,,,,,,,,,,,,,,,,,,,,,,,,,,,,,,,,,,,,,,,,,,,,,,,,,,,,,,,,,,,,,,,,,,,,,,,,,,,
0,41,41,65,1,,615409afcfcc9627a0bf44c3,62c538e854f3a38dea76a905,2022-07-06_09h25.51.267,Colour_Asymmetry_Pilot,2022.1.3,Win32,59.88741167,62c50e9c1127f2cd403a315f,,,,,,,,,,,,,,,,,,,,,,,,,,,,,,,,,,,,,,,,,,,,,,,,,,,,,,,,,,,,,,,,,,,,,,,,,,,,,,,,,,,,,,,,,,,,,,,,,,,,,,,,,,,,,,,,,,,,,,,,,,,,,,,,,,,,,,,,,,,,,,,,,,,,,,,,,,,,,,,,,,,
0,42,42,91,1,,615409afcfcc9627a0bf44c3,62c538e854f3a38dea76a905,2022-07-06_09h25.51.267,Colour_Asymmetry_Pilot,2022.1.3,Win32,59.88741167,62c50e9c1127f2cd403a315f,,,,,,,,,,,,,,,,,,,,,,,,,,,,,,,,,,,,,,,,,,,,,,,,,,,,,,,,,,,,,,,,,,,,,,,,,,,,,,,,,,,,,,,,,,,,,,,,,,,,,,,,,,,,,,,,,,,,,,,,,,,,,,,,,,,,,,,,,,,,,,,,,,,,,,,,,,,,,,,,,,,
0,43,43,50,1,,615409afcfcc9627a0bf44c3,62c538e854f3a38dea76a905,2022-07-06_09h25.51.267,Colour_Asymmetry_Pilot,2022.1.3,Win32,59.88741167,62c50e9c1127f2cd403a315f,,,,,,,,,,,,,,,,,,,,,,,,,,,,,,,,,,,,,,,,,,,,,,,,,,,,,,,,,,,,,,,,,,,,,,,,,,,,,,,,,,,,,,,,,,,,,,,,,,,,,,,,,,,,,,,,,,,,,,,,,,,,,,,,,,,,,,,,,,,,,,,,,,,,,,,,,,,,,,,,,,,
0,44,44,24,1,,615409afcfcc9627a0bf44c3,62c538e854f3a38dea76a905,2022-07-06_09h25.51.267,Colour_Asymmetry_Pilot,2022.1.3,Win32,59.88741167,62c50e9c1127f2cd403a315f,,,,,,,,,,,,,,,,,,,,,,,,,,,,,,,,,,,,,,,,,,,,,,,,,,,,,,,,,,,,,,,,,,,,,,,,,,,,,,,,,,,,,,,,,,,,,,,,,,,,,,,,,,,,,,,,,,,,,,,,,,,,,,,,,,,,,,,,,,,,,,,,,,,,,,,,,,,,,,,,,,,
0,45,45,58,1,,615409afcfcc9627a0bf44c3,62c538e854f3a38dea76a905,2022-07-06_09h25.51.267,Colour_Asymmetry_Pilot,2022.1.3,Win32,59.88741167,62c50e9c1127f2cd403a315f,,,,,,,,,,,,,,,,,,,,,,,,,,,,,,,,,,,,,,,,,,,,,,,,,,,,,,,,,,,,,,,,,,,,,,,,,,,,,,,,,,,,,,,,,,,,,,,,,,,,,,,,,,,,,,,,,,,,,,,,,,,,,,,,,,,,,,,,,,,,,,,,,,,,,,,,,,,,,,,,,,,
0,46,46,34,1,,615409afcfcc9627a0bf44c3,62c538e854f3a38dea76a905,2022-07-06_09h25.51.267,Colour_Asymmetry_Pilot,2022.1.3,Win32,59.88741167,62c50e9c1127f2cd403a315f,,,,,,,,,,,,,,,,,,,,,,,,,,,,,,,,,,,,,,,,,,,,,,,,,,,,,,,,,,,,,,,,,,,,,,,,,,,,,,,,,,,,,,,,,,,,,,,,,,,,,,,,,,,,,,,,,,,,,,,,,,,,,,,,,,,,,,,,,,,,,,,,,,,,,,,,,,,,,,,,,,,
0,47,47,87,1,,615409afcfcc9627a0bf44c3,62c538e854f3a38dea76a905,2022-07-06_09h25.51.267,Colour_Asymmetry_Pilot,2022.1.3,Win32,59.88741167,62c50e9c1127f2cd403a315f,,,,,,,,,,,,,,,,,,,,,,,,,,,,,,,,,,,,,,,,,,,,,,,,,,,,,,,,,,,,,,,,,,,,,,,,,,,,,,,,,,,,,,,,,,,,,,,,,,,,,,,,,,,,,,,,,,,,,,,,,,,,,,,,,,,,,,,,,,,,,,,,,,,,,,,,,,,,,,,,,,,
0,48,48,36,1,,615409afcfcc9627a0bf44c3,62c538e854f3a38dea76a905,2022-07-06_09h25.51.267,Colour_Asymmetry_Pilot,2022.1.3,Win32,59.88741167,62c50e9c1127f2cd403a315f,,,,,,,,,,,,,,,,,,,,,,,,,,,,,,,,,,,,,,,,,,,,,,,,,,,,,,,,,,,,,,,,,,,,,,,,,,,,,,,,,,,,,,,,,,,,,,,,,,,,,,,,,,,,,,,,,,,,,,,,,,,,,,,,,,,,,,,,,,,,,,,,,,,,,,,,,,,,,,,,,,,
0,49,49,11,1,,615409afcfcc9627a0bf44c3,62c538e854f3a38dea76a905,2022-07-06_09h25.51.267,Colour_Asymmetry_Pilot,2022.1.3,Win32,59.88741167,62c50e9c1127f2cd403a315f,,,,,,,,,,,,,,,,,,,,,,,,,,,,,,,,,,,,,,,,,,,,,,,,,,,,,,,,,,,,,,,,,,,,,,,,,,,,,,,,,,,,,,,,,,,,,,,,,,,,,,,,,,,,,,,,,,,,,,,,,,,,,,,,,,,,,,,,,,,,,,,,,,,,,,,,,,,,,,,,,,,
0,50,50,39,1,,615409afcfcc9627a0bf44c3,62c538e854f3a38dea76a905,2022-07-06_09h25.51.267,Colour_Asymmetry_Pilot,2022.1.3,Win32,59.88741167,62c50e9c1127f2cd403a315f,,,,,,,,,,,,,,,,,,,,,,,,,,,,,,,,,,,,,,,,,,,,,,,,,,,,,,,,,,,,,,,,,,,,,,,,,,,,,,,,,,,,,,,,,,,,,,,,,,,,,,,,,,,,,,,,,,,,,,,,,,,,,,,,,,,,,,,,,,,,,,,,,,,,,,,,,,,,,,,,,,,
0,51,51,8,1,,615409afcfcc9627a0bf44c3,62c538e854f3a38dea76a905,2022-07-06_09h25.51.267,Colour_Asymmetry_Pilot,2022.1.3,Win32,59.88741167,62c50e9c1127f2cd403a315f,,,,,,,,,,,,,,,,,,,,,,,,,,,,,,,,,,,,,,,,,,,,,,,,,,,,,,,,,,,,,,,,,,,,,,,,,,,,,,,,,,,,,,,,,,,,,,,,,,,,,,,,,,,,,,,,,,,,,,,,,,,,,,,,,,,,,,,,,,,,,,,,,,,,,,,,,,,,,,,,,,,
0,52,52,66,1,,615409afcfcc9627a0bf44c3,62c538e854f3a38dea76a905,2022-07-06_09h25.51.267,Colour_Asymmetry_Pilot,2022.1.3,Win32,59.88741167,62c50e9c1127f2cd403a315f,,,,,,,,,,,,,,,,,,,,,,,,,,,,,,,,,,,,,,,,,,,,,,,,,,,,,,,,,,,,,,,,,,,,,,,,,,,,,,,,,,,,,,,,,,,,,,,,,,,,,,,,,,,,,,,,,,,,,,,,,,,,,,,,,,,,,,,,,,,,,,,,,,,,,,,,,,,,,,,,,,,
0,53,53,83,1,,615409afcfcc9627a0bf44c3,62c538e854f3a38dea76a905,2022-07-06_09h25.51.267,Colour_Asymmetry_Pilot,2022.1.3,Win32,59.88741167,62c50e9c1127f2cd403a315f,,,,,,,,,,,,,,,,,,,,,,,,,,,,,,,,,,,,,,,,,,,,,,,,,,,,,,,,,,,,,,,,,,,,,,,,,,,,,,,,,,,,,,,,,,,,,,,,,,,,,,,,,,,,,,,,,,,,,,,,,,,,,,,,,,,,,,,,,,,,,,,,,,,,,,,,,,,,,,,,,,,
0,54,54,46,1,,615409afcfcc9627a0bf44c3,62c538e854f3a38dea76a905,2022-07-06_09h25.51.267,Colour_Asymmetry_Pilot,2022.1.3,Win32,59.88741167,62c50e9c1127f2cd403a315f,,,,,,,,,,,,,,,,,,,,,,,,,,,,,,,,,,,,,,,,,,,,,,,,,,,,,,,,,,,,,,,,,,,,,,,,,,,,,,,,,,,,,,,,,,,,,,,,,,,,,,,,,,,,,,,,,,,,,,,,,,,,,,,,,,,,,,,,,,,,,,,,,,,,,,,,,,,,,,,,,,,
0,55,55,43,1,,615409afcfcc9627a0bf44c3,62c538e854f3a38dea76a905,2022-07-06_09h25.51.267,Colour_Asymmetry_Pilot,2022.1.3,Win32,59.88741167,62c50e9c1127f2cd403a315f,,,,,,,,,,,,,,,,,,,,,,,,,,,,,,,,,,,,,,,,,,,,,,,,,,,,,,,,,,,,,,,,,,,,,,,,,,,,,,,,,,,,,,,,,,,,,,,,,,,,,,,,,,,,,,,,,,,,,,,,,,,,,,,,,,,,,,,,,,,,,,,,,,,,,,,,,,,,,,,,,,,
0,56,56,44,1,,615409afcfcc9627a0bf44c3,62c538e854f3a38dea76a905,2022-07-06_09h25.51.267,Colour_Asymmetry_Pilot,2022.1.3,Win32,59.88741167,62c50e9c1127f2cd403a315f,,,,,,,,,,,,,,,,,,,,,,,,,,,,,,,,,,,,,,,,,,,,,,,,,,,,,,,,,,,,,,,,,,,,,,,,,,,,,,,,,,,,,,,,,,,,,,,,,,,,,,,,,,,,,,,,,,,,,,,,,,,,,,,,,,,,,,,,,,,,,,,,,,,,,,,,,,,,,,,,,,,
0,57,57,19,1,,615409afcfcc9627a0bf44c3,62c538e854f3a38dea76a905,2022-07-06_09h25.51.267,Colour_Asymmetry_Pilot,2022.1.3,Win32,59.88741167,62c50e9c1127f2cd403a315f,,,,,,,,,,,,,,,,,,,,,,,,,,,,,,,,,,,,,,,,,,,,,,,,,,,,,,,,,,,,,,,,,,,,,,,,,,,,,,,,,,,,,,,,,,,,,,,,,,,,,,,,,,,,,,,,,,,,,,,,,,,,,,,,,,,,,,,,,,,,,,,,,,,,,,,,,,,,,,,,,,,
0,58,58,82,1,,615409afcfcc9627a0bf44c3,62c538e854f3a38dea76a905,2022-07-06_09h25.51.267,Colour_Asymmetry_Pilot,2022.1.3,Win32,59.88741167,62c50e9c1127f2cd403a315f,,,,,,,,,,,,,,,,,,,,,,,,,,,,,,,,,,,,,,,,,,,,,,,,,,,,,,,,,,,,,,,,,,,,,,,,,,,,,,,,,,,,,,,,,,,,,,,,,,,,,,,,,,,,,,,,,,,,,,,,,,,,,,,,,,,,,,,,,,,,,,,,,,,,,,,,,,,,,,,,,,,
0,59,59,5,1,,615409afcfcc9627a0bf44c3,62c538e854f3a38dea76a905,2022-07-06_09h25.51.267,Colour_Asymmetry_Pilot,2022.1.3,Win32,59.88741167,62c50e9c1127f2cd403a315f,,,,,,,,,,,,,,,,,,,,,,,,,,,,,,,,,,,,,,,,,,,,,,,,,,,,,,,,,,,,,,,,,,,,,,,,,,,,,,,,,,,,,,,,,,,,,,,,,,,,,,,,,,,,,,,,,,,,,,,,,,,,,,,,,,,,,,,,,,,,,,,,,,,,,,,,,,,,,,,,,,,
0,60,60,61,1,,615409afcfcc9627a0bf44c3,62c538e854f3a38dea76a905,2022-07-06_09h25.51.267,Colour_Asymmetry_Pilot,2022.1.3,Win32,59.88741167,62c50e9c1127f2cd403a315f,,,,,,,,,,,,,,,,,,,,,,,,,,,,,,,,,,,,,,,,,,,,,,,,,,,,,,,,,,,,,,,,,,,,,,,,,,,,,,,,,,,,,,,,,,,,,,,,,,,,,,,,,,,,,,,,,,,,,,,,,,,,,,,,,,,,,,,,,,,,,,,,,,,,,,,,,,,,,,,,,,,
0,61,61,7,1,,615409afcfcc9627a0bf44c3,62c538e854f3a38dea76a905,2022-07-06_09h25.51.267,Colour_Asymmetry_Pilot,2022.1.3,Win32,59.88741167,62c50e9c1127f2cd403a315f,,,,,,,,,,,,,,,,,,,,,,,,,,,,,,,,,,,,,,,,,,,,,,,,,,,,,,,,,,,,,,,,,,,,,,,,,,,,,,,,,,,,,,,,,,,,,,,,,,,,,,,,,,,,,,,,,,,,,,,,,,,,,,,,,,,,,,,,,,,,,,,,,,,,,,,,,,,,,,,,,,,
0,62,62,77,1,,615409afcfcc9627a0bf44c3,62c538e854f3a38dea76a905,2022-07-06_09h25.51.267,Colour_Asymmetry_Pilot,2022.1.3,Win32,59.88741167,62c50e9c1127f2cd403a315f,,,,,,,,,,,,,,,,,,,,,,,,,,,,,,,,,,,,,,,,,,,,,,,,,,,,,,,,,,,,,,,,,,,,,,,,,,,,,,,,,,,,,,,,,,,,,,,,,,,,,,,,,,,,,,,,,,,,,,,,,,,,,,,,,,,,,,,,,,,,,,,,,,,,,,,,,,,,,,,,,,,
0,63,63,55,1,,615409afcfcc9627a0bf44c3,62c538e854f3a38dea76a905,2022-07-06_09h25.51.267,Colour_Asymmetry_Pilot,2022.1.3,Win32,59.88741167,62c50e9c1127f2cd403a315f,,,,,,,,,,,,,,,,,,,,,,,,,,,,,,,,,,,,,,,,,,,,,,,,,,,,,,,,,,,,,,,,,,,,,,,,,,,,,,,,,,,,,,,,,,,,,,,,,,,,,,,,,,,,,,,,,,,,,,,,,,,,,,,,,,,,,,,,,,,,,,,,,,,,,,,,,,,,,,,,,,,
0,64,64,16,1,,615409afcfcc9627a0bf44c3,62c538e854f3a38dea76a905,2022-07-06_09h25.51.267,Colour_Asymmetry_Pilot,2022.1.3,Win32,59.88741167,62c50e9c1127f2cd403a315f,,,,,,,,,,,,,,,,,,,,,,,,,,,,,,,,,,,,,,,,,,,,,,,,,,,,,,,,,,,,,,,,,,,,,,,,,,,,,,,,,,,,,,,,,,,,,,,,,,,,,,,,,,,,,,,,,,,,,,,,,,,,,,,,,,,,,,,,,,,,,,,,,,,,,,,,,,,,,,,,,,,
0,65,65,76,1,,615409afcfcc9627a0bf44c3,62c538e854f3a38dea76a905,2022-07-06_09h25.51.267,Colour_Asymmetry_Pilot,2022.1.3,Win32,59.88741167,62c50e9c1127f2cd403a315f,,,,,,,,,,,,,,,,,,,,,,,,,,,,,,,,,,,,,,,,,,,,,,,,,,,,,,,,,,,,,,,,,,,,,,,,,,,,,,,,,,,,,,,,,,,,,,,,,,,,,,,,,,,,,,,,,,,,,,,,,,,,,,,,,,,,,,,,,,,,,,,,,,,,,,,,,,,,,,,,,,,
0,66,66,29,1,,615409afcfcc9627a0bf44c3,62c538e854f3a38dea76a905,2022-07-06_09h25.51.267,Colour_Asymmetry_Pilot,2022.1.3,Win32,59.88741167,62c50e9c1127f2cd403a315f,,,,,,,,,,,,,,,,,,,,,,,,,,,,,,,,,,,,,,,,,,,,,,,,,,,,,,,,,,,,,,,,,,,,,,,,,,,,,,,,,,,,,,,,,,,,,,,,,,,,,,,,,,,,,,,,,,,,,,,,,,,,,,,,,,,,,,,,,,,,,,,,,,,,,,,,,,,,,,,,,,,
0,67,67,86,1,,615409afcfcc9627a0bf44c3,62c538e854f3a38dea76a905,2022-07-06_09h25.51.267,Colour_Asymmetry_Pilot,2022.1.3,Win32,59.88741167,62c50e9c1127f2cd403a315f,,,,,,,,,,,,,,,,,,,,,,,,,,,,,,,,,,,,,,,,,,,,,,,,,,,,,,,,,,,,,,,,,,,,,,,,,,,,,,,,,,,,,,,,,,,,,,,,,,,,,,,,,,,,,,,,,,,,,,,,,,,,,,,,,,,,,,,,,,,,,,,,,,,,,,,,,,,,,,,,,,,
0,68,68,17,1,,615409afcfcc9627a0bf44c3,62c538e854f3a38dea76a905,2022-07-06_09h25.51.267,Colour_Asymmetry_Pilot,2022.1.3,Win32,59.88741167,62c50e9c1127f2cd403a315f,,,,,,,,,,,,,,,,,,,,,,,,,,,,,,,,,,,,,,,,,,,,,,,,,,,,,,,,,,,,,,,,,,,,,,,,,,,,,,,,,,,,,,,,,,,,,,,,,,,,,,,,,,,,,,,,,,,,,,,,,,,,,,,,,,,,,,,,,,,,,,,,,,,,,,,,,,,,,,,,,,,
0,69,69,64,1,,615409afcfcc9627a0bf44c3,62c538e854f3a38dea76a905,2022-07-06_09h25.51.267,Colour_Asymmetry_Pilot,2022.1.3,Win32,59.88741167,62c50e9c1127f2cd403a315f,,,,,,,,,,,,,,,,,,,,,,,,,,,,,,,,,,,,,,,,,,,,,,,,,,,,,,,,,,,,,,,,,,,,,,,,,,,,,,,,,,,,,,,,,,,,,,,,,,,,,,,,,,,,,,,,,,,,,,,,,,,,,,,,,,,,,,,,,,,,,,,,,,,,,,,,,,,,,,,,,,,
0,70,70,45,1,,615409afcfcc9627a0bf44c3,62c538e854f3a38dea76a905,2022-07-06_09h25.51.267,Colour_Asymmetry_Pilot,2022.1.3,Win32,59.88741167,62c50e9c1127f2cd403a315f,,,,,,,,,,,,,,,,,,,,,,,,,,,,,,,,,,,,,,,,,,,,,,,,,,,,,,,,,,,,,,,,,,,,,,,,,,,,,,,,,,,,,,,,,,,,,,,,,,,,,,,,,,,,,,,,,,,,,,,,,,,,,,,,,,,,,,,,,,,,,,,,,,,,,,,,,,,,,,,,,,,
0,71,71,54,1,,615409afcfcc9627a0bf44c3,62c538e854f3a38dea76a905,2022-07-06_09h25.51.267,Colour_Asymmetry_Pilot,2022.1.3,Win32,59.88741167,62c50e9c1127f2cd403a315f,,,,,,,,,,,,,,,,,,,,,,,,,,,,,,,,,,,,,,,,,,,,,,,,,,,,,,,,,,,,,,,,,,,,,,,,,,,,,,,,,,,,,,,,,,,,,,,,,,,,,,,,,,,,,,,,,,,,,,,,,,,,,,,,,,,,,,,,,,,,,,,,,,,,,,,,,,,,,,,,,,,
0,72,72,37,1,,615409afcfcc9627a0bf44c3,62c538e854f3a38dea76a905,2022-07-06_09h25.51.267,Colour_Asymmetry_Pilot,2022.1.3,Win32,59.88741167,62c50e9c1127f2cd403a315f,,,,,,,,,,,,,,,,,,,,,,,,,,,,,,,,,,,,,,,,,,,,,,,,,,,,,,,,,,,,,,,,,,,,,,,,,,,,,,,,,,,,,,,,,,,,,,,,,,,,,,,,,,,,,,,,,,,,,,,,,,,,,,,,,,,,,,,,,,,,,,,,,,,,,,,,,,,,,,,,,,,
0,73,73,6,1,,615409afcfcc9627a0bf44c3,62c538e854f3a38dea76a905,2022-07-06_09h25.51.267,Colour_Asymmetry_Pilot,2022.1.3,Win32,59.88741167,62c50e9c1127f2cd403a315f,,,,,,,,,,,,,,,,,,,,,,,,,,,,,,,,,,,,,,,,,,,,,,,,,,,,,,,,,,,,,,,,,,,,,,,,,,,,,,,,,,,,,,,,,,,,,,,,,,,,,,,,,,,,,,,,,,,,,,,,,,,,,,,,,,,,,,,,,,,,,,,,,,,,,,,,,,,,,,,,,,,
0,74,74,52,1,,615409afcfcc9627a0bf44c3,62c538e854f3a38dea76a905,2022-07-06_09h25.51.267,Colour_Asymmetry_Pilot,2022.1.3,Win32,59.88741167,62c50e9c1127f2cd403a315f,,,,,,,,,,,,,,,,,,,,,,,,,,,,,,,,,,,,,,,,,,,,,,,,,,,,,,,,,,,,,,,,,,,,,,,,,,,,,,,,,,,,,,,,,,,,,,,,,,,,,,,,,,,,,,,,,,,,,,,,,,,,,,,,,,,,,,,,,,,,,,,,,,,,,,,,,,,,,,,,,,,
0,75,75,0,1,,615409afcfcc9627a0bf44c3,62c538e854f3a38dea76a905,2022-07-06_09h25.51.267,Colour_Asymmetry_Pilot,2022.1.3,Win32,59.88741167,62c50e9c1127f2cd403a315f,,,,,,,,,,,,,,,,,,,,,,,,,,,,,,,,,,,,,,,,,,,,,,,,,,,,,,,,,,,,,,,,,,,,,,,,,,,,,,,,,,,,,,,,,,,,,,,,,,,,,,,,,,,,,,,,,,,,,,,,,,,,,,,,,,,,,,,,,,,,,,,,,,,,,,,,,,,,,,,,,,,
0,76,76,30,1,,615409afcfcc9627a0bf44c3,62c538e854f3a38dea76a905,2022-07-06_09h25.51.267,Colour_Asymmetry_Pilot,2022.1.3,Win32,59.88741167,62c50e9c1127f2cd403a315f,,,,,,,,,,,,,,,,,,,,,,,,,,,,,,,,,,,,,,,,,,,,,,,,,,,,,,,,,,,,,,,,,,,,,,,,,,,,,,,,,,,,,,,,,,,,,,,,,,,,,,,,,,,,,,,,,,,,,,,,,,,,,,,,,,,,,,,,,,,,,,,,,,,,,,,,,,,,,,,,,,,
0,77,77,60,1,,615409afcfcc9627a0bf44c3,62c538e854f3a38dea76a905,2022-07-06_09h25.51.267,Colour_Asymmetry_Pilot,2022.1.3,Win32,59.88741167,62c50e9c1127f2cd403a315f,,,,,,,,,,,,,,,,,,,,,,,,,,,,,,,,,,,,,,,,,,,,,,,,,,,,,,,,,,,,,,,,,,,,,,,,,,,,,,,,,,,,,,,,,,,,,,,,,,,,,,,,,,,,,,,,,,,,,,,,,,,,,,,,,,,,,,,,,,,,,,,,,,,,,,,,,,,,,,,,,,,
0,78,78,71,1,,615409afcfcc9627a0bf44c3,62c538e854f3a38dea76a905,2022-07-06_09h25.51.267,Colour_Asymmetry_Pilot,2022.1.3,Win32,59.88741167,62c50e9c1127f2cd403a315f,,,,,,,,,,,,,,,,,,,,,,,,,,,,,,,,,,,,,,,,,,,,,,,,,,,,,,,,,,,,,,,,,,,,,,,,,,,,,,,,,,,,,,,,,,,,,,,,,,,,,,,,,,,,,,,,,,,,,,,,,,,,,,,,,,,,,,,,,,,,,,,,,,,,,,,,,,,,,,,,,,,
0,79,79,92,1,,615409afcfcc9627a0bf44c3,62c538e854f3a38dea76a905,2022-07-06_09h25.51.267,Colour_Asymmetry_Pilot,2022.1.3,Win32,59.88741167,62c50e9c1127f2cd403a315f,,,,,,,,,,,,,,,,,,,,,,,,,,,,,,,,,,,,,,,,,,,,,,,,,,,,,,,,,,,,,,,,,,,,,,,,,,,,,,,,,,,,,,,,,,,,,,,,,,,,,,,,,,,,,,,,,,,,,,,,,,,,,,,,,,,,,,,,,,,,,,,,,,,,,,,,,,,,,,,,,,,
0,80,80,22,1,,615409afcfcc9627a0bf44c3,62c538e854f3a38dea76a905,2022-07-06_09h25.51.267,Colour_Asymmetry_Pilot,2022.1.3,Win32,59.88741167,62c50e9c1127f2cd403a315f,,,,,,,,,,,,,,,,,,,,,,,,,,,,,,,,,,,,,,,,,,,,,,,,,,,,,,,,,,,,,,,,,,,,,,,,,,,,,,,,,,,,,,,,,,,,,,,,,,,,,,,,,,,,,,,,,,,,,,,,,,,,,,,,,,,,,,,,,,,,,,,,,,,,,,,,,,,,,,,,,,,
0,81,81,4,1,,615409afcfcc9627a0bf44c3,62c538e854f3a38dea76a905,2022-07-06_09h25.51.267,Colour_Asymmetry_Pilot,2022.1.3,Win32,59.88741167,62c50e9c1127f2cd403a315f,,,,,,,,,,,,,,,,,,,,,,,,,,,,,,,,,,,,,,,,,,,,,,,,,,,,,,,,,,,,,,,,,,,,,,,,,,,,,,,,,,,,,,,,,,,,,,,,,,,,,,,,,,,,,,,,,,,,,,,,,,,,,,,,,,,,,,,,,,,,,,,,,,,,,,,,,,,,,,,,,,,
0,82,82,89,1,,615409afcfcc9627a0bf44c3,62c538e854f3a38dea76a905,2022-07-06_09h25.51.267,Colour_Asymmetry_Pilot,2022.1.3,Win32,59.88741167,62c50e9c1127f2cd403a315f,,,,,,,,,,,,,,,,,,,,,,,,,,,,,,,,,,,,,,,,,,,,,,,,,,,,,,,,,,,,,,,,,,,,,,,,,,,,,,,,,,,,,,,,,,,,,,,,,,,,,,,,,,,,,,,,,,,,,,,,,,,,,,,,,,,,,,,,,,,,,,,,,,,,,,,,,,,,,,,,,,,
0,83,83,42,1,,615409afcfcc9627a0bf44c3,62c538e854f3a38dea76a905,2022-07-06_09h25.51.267,Colour_Asymmetry_Pilot,2022.1.3,Win32,59.88741167,62c50e9c1127f2cd403a315f,,,,,,,,,,,,,,,,,,,,,,,,,,,,,,,,,,,,,,,,,,,,,,,,,,,,,,,,,,,,,,,,,,,,,,,,,,,,,,,,,,,,,,,,,,,,,,,,,,,,,,,,,,,,,,,,,,,,,,,,,,,,,,,,,,,,,,,,,,,,,,,,,,,,,,,,,,,,,,,,,,,
0,84,84,85,1,,615409afcfcc9627a0bf44c3,62c538e854f3a38dea76a905,2022-07-06_09h25.51.267,Colour_Asymmetry_Pilot,2022.1.3,Win32,59.88741167,62c50e9c1127f2cd403a315f,,,,,,,,,,,,,,,,,,,,,,,,,,,,,,,,,,,,,,,,,,,,,,,,,,,,,,,,,,,,,,,,,,,,,,,,,,,,,,,,,,,,,,,,,,,,,,,,,,,,,,,,,,,,,,,,,,,,,,,,,,,,,,,,,,,,,,,,,,,,,,,,,,,,,,,,,,,,,,,,,,,
0,85,85,72,1,,615409afcfcc9627a0bf44c3,62c538e854f3a38dea76a905,2022-07-06_09h25.51.267,Colour_Asymmetry_Pilot,2022.1.3,Win32,59.88741167,62c50e9c1127f2cd403a315f,,,,,,,,,,,,,,,,,,,,,,,,,,,,,,,,,,,,,,,,,,,,,,,,,,,,,,,,,,,,,,,,,,,,,,,,,,,,,,,,,,,,,,,,,,,,,,,,,,,,,,,,,,,,,,,,,,,,,,,,,,,,,,,,,,,,,,,,,,,,,,,,,,,,,,,,,,,,,,,,,,,
0,86,86,18,1,,615409afcfcc9627a0bf44c3,62c538e854f3a38dea76a905,2022-07-06_09h25.51.267,Colour_Asymmetry_Pilot,2022.1.3,Win32,59.88741167,62c50e9c1127f2cd403a315f,,,,,,,,,,,,,,,,,,,,,,,,,,,,,,,,,,,,,,,,,,,,,,,,,,,,,,,,,,,,,,,,,,,,,,,,,,,,,,,,,,,,,,,,,,,,,,,,,,,,,,,,,,,,,,,,,,,,,,,,,,,,,,,,,,,,,,,,,,,,,,,,,,,,,,,,,,,,,,,,,,,
0,87,87,10,1,,615409afcfcc9627a0bf44c3,62c538e854f3a38dea76a905,2022-07-06_09h25.51.267,Colour_Asymmetry_Pilot,2022.1.3,Win32,59.88741167,62c50e9c1127f2cd403a315f,,,,,,,,,,,,,,,,,,,,,,,,,,,,,,,,,,,,,,,,,,,,,,,,,,,,,,,,,,,,,,,,,,,,,,,,,,,,,,,,,,,,,,,,,,,,,,,,,,,,,,,,,,,,,,,,,,,,,,,,,,,,,,,,,,,,,,,,,,,,,,,,,,,,,,,,,,,,,,,,,,,
0,88,88,56,1,,615409afcfcc9627a0bf44c3,62c538e854f3a38dea76a905,2022-07-06_09h25.51.267,Colour_Asymmetry_Pilot,2022.1.3,Win32,59.88741167,62c50e9c1127f2cd403a315f,,,,,,,,,,,,,,,,,,,,,,,,,,,,,,,,,,,,,,,,,,,,,,,,,,,,,,,,,,,,,,,,,,,,,,,,,,,,,,,,,,,,,,,,,,,,,,,,,,,,,,,,,,,,,,,,,,,,,,,,,,,,,,,,,,,,,,,,,,,,,,,,,,,,,,,,,,,,,,,,,,,
0,89,89,28,1,,615409afcfcc9627a0bf44c3,62c538e854f3a38dea76a905,2022-07-06_09h25.51.267,Colour_Asymmetry_Pilot,2022.1.3,Win32,59.88741167,62c50e9c1127f2cd403a315f,,,,,,,,,,,,,,,,,,,,,,,,,,,,,,,,,,,,,,,,,,,,,,,,,,,,,,,,,,,,,,,,,,,,,,,,,,,,,,,,,,,,,,,,,,,,,,,,,,,,,,,,,,,,,,,,,,,,,,,,,,,,,,,,,,,,,,,,,,,,,,,,,,,,,,,,,,,,,,,,,,,
0,90,90,2,1,,615409afcfcc9627a0bf44c3,62c538e854f3a38dea76a905,2022-07-06_09h25.51.267,Colour_Asymmetry_Pilot,2022.1.3,Win32,59.88741167,62c50e9c1127f2cd403a315f,,,,,,,,,,,,,,,,,,,,,,,,,,,,,,,,,,,,,,,,,,,,,,,,,,,,,,,,,,,,,,,,,,,,,,,,,,,,,,,,,,,,,,,,,,,,,,,,,,,,,,,,,,,,,,,,,,,,,,,,,,,,,,,,,,,,,,,,,,,,,,,,,,,,,,,,,,,,,,,,,,,
0,91,91,74,1,,615409afcfcc9627a0bf44c3,62c538e854f3a38dea76a905,2022-07-06_09h25.51.267,Colour_Asymmetry_Pilot,2022.1.3,Win32,59.88741167,62c50e9c1127f2cd403a315f,,,,,,,,,,,,,,,,,,,,,,,,,,,,,,,,,,,,,,,,,,,,,,,,,,,,,,,,,,,,,,,,,,,,,,,,,,,,,,,,,,,,,,,,,,,,,,,,,,,,,,,,,,,,,,,,,,,,,,,,,,,,,,,,,,,,,,,,,,,,,,,,,,,,,,,,,,,,,,,,,,,
0,92,92,1,1,,615409afcfcc9627a0bf44c3,62c538e854f3a38dea76a905,2022-07-06_09h25.51.267,Colour_Asymmetry_Pilot,2022.1.3,Win32,59.88741167,62c50e9c1127f2cd403a315f,,,,,,,,,,,,,,,,,,,,,,,,,,,,,,,,,,,,,,,,,,,,,,,,,,,,,,,,,,,,,,,,,,,,,,,,,,,,,,,,,,,,,,,,,,,,,,,,,,,,,,,,,,,,,,,,,,,,,,,,,,,,,,,,,,,,,,,,,,,,,,,,,,,,,,,,,,,,,,,,,,,
,,,,,,615409afcfcc9627a0bf44c3,62c538e854f3a38dea76a905,2022-07-06_09h25.51.267,Colour_Asymmetry_Pilot,2022.1.3,Win32,59.88741167,62c50e9c1127f2cd403a315f,0,0,0,12,1,threeone,,,,,,,,,,,,,,,,,,,,,,,,,,,,,,,,,,,,,,,,,,,,,,,,,,,,,,,,,,,,,,,,,,,,,,,,,,,,,,,,,,,,,,,,,,,,,,,,,,,,,,,,,,,,,,,,,,,,,,,,,,,,,,,,,,,,,,,,,,,,,,,,,,,,,,,,,,,,,
,,,,,,615409afcfcc9627a0bf44c3,62c538e854f3a38dea76a905,2022-07-06_09h25.51.267,Colour_Asymmetry_Pilot,2022.1.3,Win32,59.88741167,62c50e9c1127f2cd403a315f,0,1,1,47,1,fourthree,,,,,,,,,,,,,,,,,,,,,,,,,,,,,,,,,,,,,,,,,,,,,,,,,,,,,,,,,,,,,,,,,,,,,,,,,,,,,,,,,,,,,,,,,,,,,,,,,,,,,,,,,,,,,,,,,,,,,,,,,,,,,,,,,,,,,,,,,,,,,,,,,,,,,,,,,,,,,
,,,,,,615409afcfcc9627a0bf44c3,62c538e854f3a38dea76a905,2022-07-06_09h25.51.267,Colour_Asymmetry_Pilot,2022.1.3,Win32,59.88741167,62c50e9c1127f2cd403a315f,0,2,2,23,1,fourthree,,,,,,,,,,,,,,,,,,,,,,,,,,,,,,,,,,,,,,,,,,,,,,,,,,,,,,,,,,,,,,,,,,,,,,,,,,,,,,,,,,,,,,,,,,,,,,,,,,,,,,,,,,,,,,,,,,,,,,,,,,,,,,,,,,,,,,,,,,,,,,,,,,,,,,,,,,,,,
,,,,,,615409afcfcc9627a0bf44c3,62c538e854f3a38dea76a905,2022-07-06_09h25.51.267,Colour_Asymmetry_Pilot,2022.1.3,Win32,59.88741167,62c50e9c1127f2cd403a315f,0,3,3,77,1,threefour,,,,,,,,,,,,,,,,,,,,,,,,,,,,,,,,,,,,,,,,,,,,,,,,,,,,,,,,,,,,,,,,,,,,,,,,,,,,,,,,,,,,,,,,,,,,,,,,,,,,,,,,,,,,,,,,,,,,,,,,,,,,,,,,,,,,,,,,,,,,,,,,,,,,,,,,,,,,,
,,,,,,615409afcfcc9627a0bf44c3,62c538e854f3a38dea76a905,2022-07-06_09h25.51.267,Colour_Asymmetry_Pilot,2022.1.3,Win32,59.88741167,62c50e9c1127f2cd403a315f,0,4,4,14,1,fourtwo,,,,,,,,,,,,,,,,,,,,,,,,,,,,,,,,,,,,,,,,,,,,,,,,,,,,,,,,,,,,,,,,,,,,,,,,,,,,,,,,,,,,,,,,,,,,,,,,,,,,,,,,,,,,,,,,,,,,,,,,,,,,,,,,,,,,,,,,,,,,,,,,,,,,,,,,,,,,,
,,,,,,615409afcfcc9627a0bf44c3,62c538e854f3a38dea76a905,2022-07-06_09h25.51.267,Colour_Asymmetry_Pilot,2022.1.3,Win32,59.88741167,62c50e9c1127f2cd403a315f,0,5,5,119,1,fourthree,,,,,,,,,,,,,,,,,,,,,,,,,,,,,,,,,,,,,,,,,,,,,,,,,,,,,,,,,,,,,,,,,,,,,,,,,,,,,,,,,,,,,,,,,,,,,,,,,,,,,,,,,,,,,,,,,,,,,,,,,,,,,,,,,,,,,,,,,,,,,,,,,,,,,,,,,,,,,
,,,,,,615409afcfcc9627a0bf44c3,62c538e854f3a38dea76a905,2022-07-06_09h25.51.267,Colour_Asymmetry_Pilot,2022.1.3,Win32,59.88741167,62c50e9c1127f2cd403a315f,0,6,6,33,1,onethree,,,,,,,,,,,,,,,,,,,,,,,,,,,,,,,,,,,,,,,,,,,,,,,,,,,,,,,,,,,,,,,,,,,,,,,,,,,,,,,,,,,,,,,,,,,,,,,,,,,,,,,,,,,,,,,,,,,,,,,,,,,,,,,,,,,,,,,,,,,,,,,,,,,,,,,,,,,,,
,,,,,,615409afcfcc9627a0bf44c3,62c538e854f3a38dea76a905,2022-07-06_09h25.51.267,Colour_Asymmetry_Pilot,2022.1.3,Win32,59.88741167,62c50e9c1127f2cd403a315f,0,7,7,122,1,twoone,,,,,,,,,,,,,,,,,,,,,,,,,,,,,,,,,,,,,,,,,,,,,,,,,,,,,,,,,,,,,,,,,,,,,,,,,,,,,,,,,,,,,,,,,,,,,,,,,,,,,,,,,,,,,,,,,,,,,,,,,,,,,,,,,,,,,,,,,,,,,,,,,,,,,,,,,,,,,
,,,,,,615409afcfcc9627a0bf44c3,62c538e854f3a38dea76a905,2022-07-06_09h25.51.267,Colour_Asymmetry_Pilot,2022.1.3,Win32,59.88741167,62c50e9c1127f2cd403a315f,0,8,8,27,1,twofour,,,,,,,,,,,,,,,,,,,,,,,,,,,,,,,,,,,,,,,,,,,,,,,,,,,,,,,,,,,,,,,,,,,,,,,,,,,,,,,,,,,,,,,,,,,,,,,,,,,,,,,,,,,,,,,,,,,,,,,,,,,,,,,,,,,,,,,,,,,,,,,,,,,,,,,,,,,,,
,,,,,,615409afcfcc9627a0bf44c3,62c538e854f3a38dea76a905,2022-07-06_09h25.51.267,Colour_Asymmetry_Pilot,2022.1.3,Win32,59.88741167,62c50e9c1127f2cd403a315f,0,9,9,19,1,twofour,,,,,,,,,,,,,,,,,,,,,,,,,,,,,,,,,,,,,,,,,,,,,,,,,,,,,,,,,,,,,,,,,,,,,,,,,,,,,,,,,,,,,,,,,,,,,,,,,,,,,,,,,,,,,,,,,,,,,,,,,,,,,,,,,,,,,,,,,,,,,,,,,,,,,,,,,,,,,
,,,,,,615409afcfcc9627a0bf44c3,62c538e854f3a38dea76a905,2022-07-06_09h25.51.267,Colour_Asymmetry_Pilot,2022.1.3,Win32,59.88741167,62c50e9c1127f2cd403a315f,0,10,10,74,1,twoone,,,,,,,,,,,,,,,,,,,,,,,,,,,,,,,,,,,,,,,,,,,,,,,,,,,,,,,,,,,,,,,,,,,,,,,,,,,,,,,,,,,,,,,,,,,,,,,,,,,,,,,,,,,,,,,,,,,,,,,,,,,,,,,,,,,,,,,,,,,,,,,,,,,,,,,,,,,,,
,,,,,,615409afcfcc9627a0bf44c3,62c538e854f3a38dea76a905,2022-07-06_09h25.51.267,Colour_Asymmetry_Pilot,2022.1.3,Win32,59.88741167,62c50e9c1127f2cd403a315f,0,11,11,159,1,fourthree,,,,,,,,,,,,,,,,,,,,,,,,,,,,,,,,,,,,,,,,,,,,,,,,,,,,,,,,,,,,,,,,,,,,,,,,,,,,,,,,,,,,,,,,,,,,,,,,,,,,,,,,,,,,,,,,,,,,,,,,,,,,,,,,,,,,,,,,,,,,,,,,,,,,,,,,,,,,,
,,,,,,615409afcfcc9627a0bf44c3,62c538e854f3a38dea76a905,2022-07-06_09h25.51.267,Colour_Asymmetry_Pilot,2022.1.3,Win32,59.88741167,62c50e9c1127f2cd403a315f,0,12,12,67,1,twofour,,,,,,,,,,,,,,,,,,,,,,,,,,,,,,,,,,,,,,,,,,,,,,,,,,,,,,,,,,,,,,,,,,,,,,,,,,,,,,,,,,,,,,,,,,,,,,,,,,,,,,,,,,,,,,,,,,,,,,,,,,,,,,,,,,,,,,,,,,,,,,,,,,,,,,,,,,,,,
,,,,,,615409afcfcc9627a0bf44c3,62c538e854f3a38dea76a905,2022-07-06_09h25.51.267,Colour_Asymmetry_Pilot,2022.1.3,Win32,59.88741167,62c50e9c1127f2cd403a315f,0,13,13,35,1,twofour,,,,,,,,,,,,,,,,,,,,,,,,,,,,,,,,,,,,,,,,,,,,,,,,,,,,,,,,,,,,,,,,,,,,,,,,,,,,,,,,,,,,,,,,,,,,,,,,,,,,,,,,,,,,,,,,,,,,,,,,,,,,,,,,,,,,,,,,,,,,,,,,,,,,,,,,,,,,,
,,,,,,615409afcfcc9627a0bf44c3,62c538e854f3a38dea76a905,2022-07-06_09h25.51.267,Colour_Asymmetry_Pilot,2022.1.3,Win32,59.88741167,62c50e9c1127f2cd403a315f,0,14,14,128,1,onetwo,,,,,,,,,,,,,,,,,,,,,,,,,,,,,,,,,,,,,,,,,,,,,,,,,,,,,,,,,,,,,,,,,,,,,,,,,,,,,,,,,,,,,,,,,,,,,,,,,,,,,,,,,,,,,,,,,,,,,,,,,,,,,,,,,,,,,,,,,,,,,,,,,,,,,,,,,,,,,
,,,,,,615409afcfcc9627a0bf44c3,62c538e854f3a38dea76a905,2022-07-06_09h25.51.267,Colour_Asymmetry_Pilot,2022.1.3,Win32,59.88741167,62c50e9c1127f2cd403a315f,0,15,15,5,1,threefour,,,,,,,,,,,,,,,,,,,,,,,,,,,,,,,,,,,,,,,,,,,,,,,,,,,,,,,,,,,,,,,,,,,,,,,,,,,,,,,,,,,,,,,,,,,,,,,,,,,,,,,,,,,,,,,,,,,,,,,,,,,,,,,,,,,,,,,,,,,,,,,,,,,,,,,,,,,,,
,,,,,,615409afcfcc9627a0bf44c3,62c538e854f3a38dea76a905,2022-07-06_09h25.51.267,Colour_Asymmetry_Pilot,2022.1.3,Win32,59.88741167,62c50e9c1127f2cd403a315f,0,16,16,25,1,onethree,,,,,,,,,,,,,,,,,,,,,,,,,,,,,,,,,,,,,,,,,,,,,,,,,,,,,,,,,,,,,,,,,,,,,,,,,,,,,,,,,,,,,,,,,,,,,,,,,,,,,,,,,,,,,,,,,,,,,,,,,,,,,,,,,,,,,,,,,,,,,,,,,,,,,,,,,,,,,
,,,,,,615409afcfcc9627a0bf44c3,62c538e854f3a38dea76a905,2022-07-06_09h25.51.267,Colour_Asymmetry_Pilot,2022.1.3,Win32,59.88741167,62c50e9c1127f2cd403a315f,0,17,17,31,1,fourthree,,,,,,,,,,,,,,,,,,,,,,,,,,,,,,,,,,,,,,,,,,,,,,,,,,,,,,,,,,,,,,,,,,,,,,,,,,,,,,,,,,,,,,,,,,,,,,,,,,,,,,,,,,,,,,,,,,,,,,,,,,,,,,,,,,,,,,,,,,,,,,,,,,,,,,,,,,,,,
,,,,,,615409afcfcc9627a0bf44c3,62c538e854f3a38dea76a905,2022-07-06_09h25.51.267,Colour_Asymmetry_Pilot,2022.1.3,Win32,59.88741167,62c50e9c1127f2cd403a315f,0,18,18,114,1,twoone,,,,,,,,,,,,,,,,,,,,,,,,,,,,,,,,,,,,,,,,,,,,,,,,,,,,,,,,,,,,,,,,,,,,,,,,,,,,,,,,,,,,,,,,,,,,,,,,,,,,,,,,,,,,,,,,,,,,,,,,,,,,,,,,,,,,,,,,,,,,,,,,,,,,,,,,,,,,,
,,,,,,615409afcfcc9627a0bf44c3,62c538e854f3a38dea76a905,2022-07-06_09h25.51.267,Colour_Asymmetry_Pilot,2022.1.3,Win32,59.88741167,62c50e9c1127f2cd403a315f,0,19,19,143,1,fourthree,,,,,,,,,,,,,,,,,,,,,,,,,,,,,,,,,,,,,,,,,,,,,,,,,,,,,,,,,,,,,,,,,,,,,,,,,,,,,,,,,,,,,,,,,,,,,,,,,,,,,,,,,,,,,,,,,,,,,,,,,,,,,,,,,,,,,,,,,,,,,,,,,,,,,,,,,,,,,
,,,,,,615409afcfcc9627a0bf44c3,62c538e854f3a38dea76a905,2022-07-06_09h25.51.267,Colour_Asymmetry_Pilot,2022.1.3,Win32,59.88741167,62c50e9c1127f2cd403a315f,0,20,20,107,1,twofour,,,,,,,,,,,,,,,,,,,,,,,,,,,,,,,,,,,,,,,,,,,,,,,,,,,,,,,,,,,,,,,,,,,,,,,,,,,,,,,,,,,,,,,,,,,,,,,,,,,,,,,,,,,,,,,,,,,,,,,,,,,,,,,,,,,,,,,,,,,,,,,,,,,,,,,,,,,,,
,,,,,,615409afcfcc9627a0bf44c3,62c538e854f3a38dea76a905,2022-07-06_09h25.51.267,Colour_Asymmetry_Pilot,2022.1.3,Win32,59.88741167,62c50e9c1127f2cd403a315f,0,21,21,38,1,fourtwo,,,,,,,,,,,,,,,,,,,,,,,,,,,,,,,,,,,,,,,,,,,,,,,,,,,,,,,,,,,,,,,,,,,,,,,,,,,,,,,,,,,,,,,,,,,,,,,,,,,,,,,,,,,,,,,,,,,,,,,,,,,,,,,,,,,,,,,,,,,,,,,,,,,,,,,,,,,,,
,,,,,,615409afcfcc9627a0bf44c3,62c538e854f3a38dea76a905,2022-07-06_09h25.51.267,Colour_Asymmetry_Pilot,2022.1.3,Win32,59.88741167,62c50e9c1127f2cd403a315f,0,22,22,135,1,fourthree,,,,,,,,,,,,,,,,,,,,,,,,,,,,,,,,,,,,,,,,,,,,,,,,,,,,,,,,,,,,,,,,,,,,,,,,,,,,,,,,,,,,,,,,,,,,,,,,,,,,,,,,,,,,,,,,,,,,,,,,,,,,,,,,,,,,,,,,,,,,,,,,,,,,,,,,,,,,,
,,,,,,615409afcfcc9627a0bf44c3,62c538e854f3a38dea76a905,2022-07-06_09h25.51.267,Colour_Asymmetry_Pilot,2022.1.3,Win32,59.88741167,62c50e9c1127f2cd403a315f,0,23,23,136,1,onetwo,,,,,,,,,,,,,,,,,,,,,,,,,,,,,,,,,,,,,,,,,,,,,,,,,,,,,,,,,,,,,,,,,,,,,,,,,,,,,,,,,,,,,,,,,,,,,,,,,,,,,,,,,,,,,,,,,,,,,,,,,,,,,,,,,,,,,,,,,,,,,,,,,,,,,,,,,,,,,
,,,,,,615409afcfcc9627a0bf44c3,62c538e854f3a38dea76a905,2022-07-06_09h25.51.267,Colour_Asymmetry_Pilot,2022.1.3,Win32,59.88741167,62c50e9c1127f2cd403a315f,0,24,24,120,1,onetwo,,,,,,,,,,,,,,,,,,,,,,,,,,,,,,,,,,,,,,,,,,,,,,,,,,,,,,,,,,,,,,,,,,,,,,,,,,,,,,,,,,,,,,,,,,,,,,,,,,,,,,,,,,,,,,,,,,,,,,,,,,,,,,,,,,,,,,,,,,,,,,,,,,,,,,,,,,,,,
,,,,,,615409afcfcc9627a0bf44c3,62c538e854f3a38dea76a905,2022-07-06_09h25.51.267,Colour_Asymmetry_Pilot,2022.1.3,Win32,59.88741167,62c50e9c1127f2cd403a315f,0,25,25,73,1,onethree,,,,,,,,,,,,,,,,,,,,,,,,,,,,,,,,,,,,,,,,,,,,,,,,,,,,,,,,,,,,,,,,,,,,,,,,,,,,,,,,,,,,,,,,,,,,,,,,,,,,,,,,,,,,,,,,,,,,,,,,,,,,,,,,,,,,,,,,,,,,,,,,,,,,,,,,,,,,,
,,,,,,615409afcfcc9627a0bf44c3,62c538e854f3a38dea76a905,2022-07-06_09h25.51.267,Colour_Asymmetry_Pilot,2022.1.3,Win32,59.88741167,62c50e9c1127f2cd403a315f,0,26,26,9,1,onethree,,,,,,,,,,,,,,,,,,,,,,,,,,,,,,,,,,,,,,,,,,,,,,,,,,,,,,,,,,,,,,,,,,,,,,,,,,,,,,,,,,,,,,,,,,,,,,,,,,,,,,,,,,,,,,,,,,,,,,,,,,,,,,,,,,,,,,,,,,,,,,,,,,,,,,,,,,,,,
,,,,,,615409afcfcc9627a0bf44c3,62c538e854f3a38dea76a905,2022-07-06_09h25.51.267,Colour_Asymmetry_Pilot,2022.1.3,Win32,59.88741167,62c50e9c1127f2cd403a315f,0,27,27,26,1,twoone,,,,,,,,,,,,,,,,,,,,,,,,,,,,,,,,,,,,,,,,,,,,,,,,,,,,,,,,,,,,,,,,,,,,,,,,,,,,,,,,,,,,,,,,,,,,,,,,,,,,,,,,,,,,,,,,,,,,,,,,,,,,,,,,,,,,,,,,,,,,,,,,,,,,,,,,,,,,,
,,,,,,615409afcfcc9627a0bf44c3,62c538e854f3a38dea76a905,2022-07-06_09h25.51.267,Colour_Asymmetry_Pilot,2022.1.3,Win32,59.88741167,62c50e9c1127f2cd403a315f,0,28,28,113,1,onethree,,,,,,,,,,,,,,,,,,,,,,,,,,,,,,,,,,,,,,,,,,,,,,,,,,,,,,,,,,,,,,,,,,,,,,,,,,,,,,,,,,,,,,,,,,,,,,,,,,,,,,,,,,,,,,,,,,,,,,,,,,,,,,,,,,,,,,,,,,,,,,,,,,,,,,,,,,,,,
,,,,,,615409afcfcc9627a0bf44c3,62c538e854f3a38dea76a905,2022-07-06_09h25.51.267,Colour_Asymmetry_Pilot,2022.1.3,Win32,59.88741167,62c50e9c1127f2cd403a315f,0,29,29,96,1,onetwo,,,,,,,,,,,,,,,,,,,,,,,,,,,,,,,,,,,,,,,,,,,,,,,,,,,,,,,,,,,,,,,,,,,,,,,,,,,,,,,,,,,,,,,,,,,,,,,,,,,,,,,,,,,,,,,,,,,,,,,,,,,,,,,,,,,,,,,,,,,,,,,,,,,,,,,,,,,,,
,,,,,,615409afcfcc9627a0bf44c3,62c538e854f3a38dea76a905,2022-07-06_09h25.51.267,Colour_Asymmetry_Pilot,2022.1.3,Win32,59.88741167,62c50e9c1127f2cd403a315f,0,30,30,46,1,fourtwo,,,,,,,,,,,,,,,,,,,,,,,,,,,,,,,,,,,,,,,,,,,,,,,,,,,,,,,,,,,,,,,,,,,,,,,,,,,,,,,,,,,,,,,,,,,,,,,,,,,,,,,,,,,,,,,,,,,,,,,,,,,,,,,,,,,,,,,,,,,,,,,,,,,,,,,,,,,,,
,,,,,,615409afcfcc9627a0bf44c3,62c538e854f3a38dea76a905,2022-07-06_09h25.51.267,Colour_Asymmetry_Pilot,2022.1.3,Win32,59.88741167,62c50e9c1127f2cd403a315f,0,31,31,76,1,threeone,,,,,,,,,,,,,,,,,,,,,,,,,,,,,,,,,,,,,,,,,,,,,,,,,,,,,,,,,,,,,,,,,,,,,,,,,,,,,,,,,,,,,,,,,,,,,,,,,,,,,,,,,,,,,,,,,,,,,,,,,,,,,,,,,,,,,,,,,,,,,,,,,,,,,,,,,,,,,
,,,,,,615409afcfcc9627a0bf44c3,62c538e854f3a38dea76a905,2022-07-06_09h25.51.267,Colour_Asymmetry_Pilot,2022.1.3,Win32,59.88741167,62c50e9c1127f2cd403a315f,0,32,32,150,1,fourtwo,,,,,,,,,,,,,,,,,,,,,,,,,,,,,,,,,,,,,,,,,,,,,,,,,,,,,,,,,,,,,,,,,,,,,,,,,,,,,,,,,,,,,,,,,,,,,,,,,,,,,,,,,,,,,,,,,,,,,,,,,,,,,,,,,,,,,,,,,,,,,,,,,,,,,,,,,,,,,
,,,,,,615409afcfcc9627a0bf44c3,62c538e854f3a38dea76a905,2022-07-06_09h25.51.267,Colour_Asymmetry_Pilot,2022.1.3,Win32,59.88741167,62c50e9c1127f2cd403a315f,0,33,33,89,1,onethree,,,,,,,,,,,,,,,,,,,,,,,,,,,,,,,,,,,,,,,,,,,,,,,,,,,,,,,,,,,,,,,,,,,,,,,,,,,,,,,,,,,,,,,,,,,,,,,,,,,,,,,,,,,,,,,,,,,,,,,,,,,,,,,,,,,,,,,,,,,,,,,,,,,,,,,,,,,,,
,,,,,,615409afcfcc9627a0bf44c3,62c538e854f3a38dea76a905,2022-07-06_09h25.51.267,Colour_Asymmetry_Pilot,2022.1.3,Win32,59.88741167,62c50e9c1127f2cd403a315f,0,34,34,130,1,twoone,,,,,,,,,,,,,,,,,,,,,,,,,,,,,,,,,,,,,,,,,,,,,,,,,,,,,,,,,,,,,,,,,,,,,,,,,,,,,,,,,,,,,,,,,,,,,,,,,,,,,,,,,,,,,,,,,,,,,,,,,,,,,,,,,,,,,,,,,,,,,,,,,,,,,,,,,,,,,
,,,,,,615409afcfcc9627a0bf44c3,62c538e854f3a38dea76a905,2022-07-06_09h25.51.267,Colour_Asymmetry_Pilot,2022.1.3,Win32,59.88741167,62c50e9c1127f2cd403a315f,0,35,35,3,1,twofour,,,,,,,,,,,,,,,,,,,,,,,,,,,,,,,,,,,,,,,,,,,,,,,,,,,,,,,,,,,,,,,,,,,,,,,,,,,,,,,,,,,,,,,,,,,,,,,,,,,,,,,,,,,,,,,,,,,,,,,,,,,,,,,,,,,,,,,,,,,,,,,,,,,,,,,,,,,,,
,,,,,,615409afcfcc9627a0bf44c3,62c538e854f3a38dea76a905,2022-07-06_09h25.51.267,Colour_Asymmetry_Pilot,2022.1.3,Win32,59.88741167,62c50e9c1127f2cd403a315f,0,36,36,66,1,twoone,,,,,,,,,,,,,,,,,,,,,,,,,,,,,,,,,,,,,,,,,,,,,,,,,,,,,,,,,,,,,,,,,,,,,,,,,,,,,,,,,,,,,,,,,,,,,,,,,,,,,,,,,,,,,,,,,,,,,,,,,,,,,,,,,,,,,,,,,,,,,,,,,,,,,,,,,,,,,
,,,,,,615409afcfcc9627a0bf44c3,62c538e854f3a38dea76a905,2022-07-06_09h25.51.267,Colour_Asymmetry_Pilot,2022.1.3,Win32,59.88741167,62c50e9c1127f2cd403a315f,0,37,37,1,1,onethree,,,,,,,,,,,,,,,,,,,,,,,,,,,,,,,,,,,,,,,,,,,,,,,,,,,,,,,,,,,,,,,,,,,,,,,,,,,,,,,,,,,,,,,,,,,,,,,,,,,,,,,,,,,,,,,,,,,,,,,,,,,,,,,,,,,,,,,,,,,,,,,,,,,,,,,,,,,,,
,,,,,,615409afcfcc9627a0bf44c3,62c538e854f3a38dea76a905,2022-07-06_09h25.51.267,Colour_Asymmetry_Pilot,2022.1.3,Win32,59.88741167,62c50e9c1127f2cd403a315f,0,38,38,137,1,onethree,,,,,,,,,,,,,,,,,,,,,,,,,,,,,,,,,,,,,,,,,,,,,,,,,,,,,,,,,,,,,,,,,,,,,,,,,,,,,,,,,,,,,,,,,,,,,,,,,,,,,,,,,,,,,,,,,,,,,,,,,,,,,,,,,,,,,,,,,,,,,,,,,,,,,,,,,,,,,
,,,,,,615409afcfcc9627a0bf44c3,62c538e854f3a38dea76a905,2022-07-06_09h25.51.267,Colour_Asymmetry_Pilot,2022.1.3,Win32,59.88741167,62c50e9c1127f2cd403a315f,0,39,39,15,1,fourthree,,,,,,,,,,,,,,,,,,,,,,,,,,,,,,,,,,,,,,,,,,,,,,,,,,,,,,,,,,,,,,,,,,,,,,,,,,,,,,,,,,,,,,,,,,,,,,,,,,,,,,,,,,,,,,,,,,,,,,,,,,,,,,,,,,,,,,,,,,,,,,,,,,,,,,,,,,,,,
,,,,,,615409afcfcc9627a0bf44c3,62c538e854f3a38dea76a905,2022-07-06_09h25.51.267,Colour_Asymmetry_Pilot,2022.1.3,Win32,59.88741167,62c50e9c1127f2cd403a315f,0,40,40,102,1,fourtwo,,,,,,,,,,,,,,,,,,,,,,,,,,,,,,,,,,,,,,,,,,,,,,,,,,,,,,,,,,,,,,,,,,,,,,,,,,,,,,,,,,,,,,,,,,,,,,,,,,,,,,,,,,,,,,,,,,,,,,,,,,,,,,,,,,,,,,,,,,,,,,,,,,,,,,,,,,,,,
,,,,,,615409afcfcc9627a0bf44c3,62c538e854f3a38dea76a905,2022-07-06_09h25.51.267,Colour_Asymmetry_Pilot,2022.1.3,Win32,59.88741167,62c50e9c1127f2cd403a315f,0,41,41,85,1,threefour,,,,,,,,,,,,,,,,,,,,,,,,,,,,,,,,,,,,,,,,,,,,,,,,,,,,,,,,,,,,,,,,,,,,,,,,,,,,,,,,,,,,,,,,,,,,,,,,,,,,,,,,,,,,,,,,,,,,,,,,,,,,,,,,,,,,,,,,,,,,,,,,,,,,,,,,,,,,,
,,,,,,615409afcfcc9627a0bf44c3,62c538e854f3a38dea76a905,2022-07-06_09h25.51.267,Colour_Asymmetry_Pilot,2022.1.3,Win32,59.88741167,62c50e9c1127f2cd403a315f,0,42,42,59,1,twofour,,,,,,,,,,,,,,,,,,,,,,,,,,,,,,,,,,,,,,,,,,,,,,,,,,,,,,,,,,,,,,,,,,,,,,,,,,,,,,,,,,,,,,,,,,,,,,,,,,,,,,,,,,,,,,,,,,,,,,,,,,,,,,,,,,,,,,,,,,,,,,,,,,,,,,,,,,,,,
,,,,,,615409afcfcc9627a0bf44c3,62c538e854f3a38dea76a905,2022-07-06_09h25.51.267,Colour_Asymmetry_Pilot,2022.1.3,Win32,59.88741167,62c50e9c1127f2cd403a315f,0,43,43,80,1,onetwo,,,,,,,,,,,,,,,,,,,,,,,,,,,,,,,,,,,,,,,,,,,,,,,,,,,,,,,,,,,,,,,,,,,,,,,,,,,,,,,,,,,,,,,,,,,,,,,,,,,,,,,,,,,,,,,,,,,,,,,,,,,,,,,,,,,,,,,,,,,,,,,,,,,,,,,,,,,,,
,,,,,,615409afcfcc9627a0bf44c3,62c538e854f3a38dea76a905,2022-07-06_09h25.51.267,Colour_Asymmetry_Pilot,2022.1.3,Win32,59.88741167,62c50e9c1127f2cd403a315f,0,44,44,132,1,threeone,,,,,,,,,,,,,,,,,,,,,,,,,,,,,,,,,,,,,,,,,,,,,,,,,,,,,,,,,,,,,,,,,,,,,,,,,,,,,,,,,,,,,,,,,,,,,,,,,,,,,,,,,,,,,,,,,,,,,,,,,,,,,,,,,,,,,,,,,,,,,,,,,,,,,,,,,,,,,
,,,,,,615409afcfcc9627a0bf44c3,62c538e854f3a38dea76a905,2022-07-06_09h25.51.267,Colour_Asymmetry_Pilot,2022.1.3,Win32,59.88741167,62c50e9c1127f2cd403a315f,0,45,45,48,1,onetwo,,,,,,,,,,,,,,,,,,,,,,,,,,,,,,,,,,,,,,,,,,,,,,,,,,,,,,,,,,,,,,,,,,,,,,,,,,,,,,,,,,,,,,,,,,,,,,,,,,,,,,,,,,,,,,,,,,,,,,,,,,,,,,,,,,,,,,,,,,,,,,,,,,,,,,,,,,,,,
,,,,,,615409afcfcc9627a0bf44c3,62c538e854f3a38dea76a905,2022-07-06_09h25.51.267,Colour_Asymmetry_Pilot,2022.1.3,Win32,59.88741167,62c50e9c1127f2cd403a315f,0,46,46,153,1,onethree,,,,,,,,,,,,,,,,,,,,,,,,,,,,,,,,,,,,,,,,,,,,,,,,,,,,,,,,,,,,,,,,,,,,,,,,,,,,,,,,,,,,,,,,,,,,,,,,,,,,,,,,,,,,,,,,,,,,,,,,,,,,,,,,,,,,,,,,,,,,,,,,,,,,,,,,,,,,,
,,,,,,615409afcfcc9627a0bf44c3,62c538e854f3a38dea76a905,2022-07-06_09h25.51.267,Colour_Asymmetry_Pilot,2022.1.3,Win32,59.88741167,62c50e9c1127f2cd403a315f,0,47,47,98,1,twoone,,,,,,,,,,,,,,,,,,,,,,,,,,,,,,,,,,,,,,,,,,,,,,,,,,,,,,,,,,,,,,,,,,,,,,,,,,,,,,,,,,,,,,,,,,,,,,,,,,,,,,,,,,,,,,,,,,,,,,,,,,,,,,,,,,,,,,,,,,,,,,,,,,,,,,,,,,,,,
,,,,,,615409afcfcc9627a0bf44c3,62c538e854f3a38dea76a905,2022-07-06_09h25.51.267,Colour_Asymmetry_Pilot,2022.1.3,Win32,59.88741167,62c50e9c1127f2cd403a315f,0,48,48,154,1,twoone,,,,,,,,,,,,,,,,,,,,,,,,,,,,,,,,,,,,,,,,,,,,,,,,,,,,,,,,,,,,,,,,,,,,,,,,,,,,,,,,,,,,,,,,,,,,,,,,,,,,,,,,,,,,,,,,,,,,,,,,,,,,,,,,,,,,,,,,,,,,,,,,,,,,,,,,,,,,,
,,,,,,615409afcfcc9627a0bf44c3,62c538e854f3a38dea76a905,2022-07-06_09h25.51.267,Colour_Asymmetry_Pilot,2022.1.3,Win32,59.88741167,62c50e9c1127f2cd403a315f,0,49,49,49,1,onethree,,,,,,,,,,,,,,,,,,,,,,,,,,,,,,,,,,,,,,,,,,,,,,,,,,,,,,,,,,,,,,,,,,,,,,,,,,,,,,,,,,,,,,,,,,,,,,,,,,,,,,,,,,,,,,,,,,,,,,,,,,,,,,,,,,,,,,,,,,,,,,,,,,,,,,,,,,,,,
,,,,,,615409afcfcc9627a0bf44c3,62c538e854f3a38dea76a905,2022-07-06_09h25.51.267,Colour_Asymmetry_Pilot,2022.1.3,Win32,59.88741167,62c50e9c1127f2cd403a315f,0,50,50,142,1,fourtwo,,,,,,,,,,,,,,,,,,,,,,,,,,,,,,,,,,,,,,,,,,,,,,,,,,,,,,,,,,,,,,,,,,,,,,,,,,,,,,,,,,,,,,,,,,,,,,,,,,,,,,,,,,,,,,,,,,,,,,,,,,,,,,,,,,,,,,,,,,,,,,,,,,,,,,,,,,,,,
,,,,,,615409afcfcc9627a0bf44c3,62c538e854f3a38dea76a905,2022-07-06_09h25.51.267,Colour_Asymmetry_Pilot,2022.1.3,Win32,59.88741167,62c50e9c1127f2cd403a315f,0,51,51,22,1,fourtwo,,,,,,,,,,,,,,,,,,,,,,,,,,,,,,,,,,,,,,,,,,,,,,,,,,,,,,,,,,,,,,,,,,,,,,,,,,,,,,,,,,,,,,,,,,,,,,,,,,,,,,,,,,,,,,,,,,,,,,,,,,,,,,,,,,,,,,,,,,,,,,,,,,,,,,,,,,,,,
,,,,,,615409afcfcc9627a0bf44c3,62c538e854f3a38dea76a905,2022-07-06_09h25.51.267,Colour_Asymmetry_Pilot,2022.1.3,Win32,59.88741167,62c50e9c1127f2cd403a315f,0,52,52,133,1,threefour,,,,,,,,,,,,,,,,,,,,,,,,,,,,,,,,,,,,,,,,,,,,,,,,,,,,,,,,,,,,,,,,,,,,,,,,,,,,,,,,,,,,,,,,,,,,,,,,,,,,,,,,,,,,,,,,,,,,,,,,,,,,,,,,,,,,,,,,,,,,,,,,,,,,,,,,,,,,,
,,,,,,615409afcfcc9627a0bf44c3,62c538e854f3a38dea76a905,2022-07-06_09h25.51.267,Colour_Asymmetry_Pilot,2022.1.3,Win32,59.88741167,62c50e9c1127f2cd403a315f,0,53,53,121,1,onethree,,,,,,,,,,,,,,,,,,,,,,,,,,,,,,,,,,,,,,,,,,,,,,,,,,,,,,,,,,,,,,,,,,,,,,,,,,,,,,,,,,,,,,,,,,,,,,,,,,,,,,,,,,,,,,,,,,,,,,,,,,,,,,,,,,,,,,,,,,,,,,,,,,,,,,,,,,,,,
,,,,,,615409afcfcc9627a0bf44c3,62c538e854f3a38dea76a905,2022-07-06_09h25.51.267,Colour_Asymmetry_Pilot,2022.1.3,Win32,59.88741167,62c50e9c1127f2cd403a315f,0,54,54,94,1,fourtwo,,,,,,,,,,,,,,,,,,,,,,,,,,,,,,,,,,,,,,,,,,,,,,,,,,,,,,,,,,,,,,,,,,,,,,,,,,,,,,,,,,,,,,,,,,,,,,,,,,,,,,,,,,,,,,,,,,,,,,,,,,,,,,,,,,,,,,,,,,,,,,,,,,,,,,,,,,,,,
,,,,,,615409afcfcc9627a0bf44c3,62c538e854f3a38dea76a905,2022-07-06_09h25.51.267,Colour_Asymmetry_Pilot,2022.1.3,Win32,59.88741167,62c50e9c1127f2cd403a315f,0,55,55,90,1,twoone,,,,,,,,,,,,,,,,,,,,,,,,,,,,,,,,,,,,,,,,,,,,,,,,,,,,,,,,,,,,,,,,,,,,,,,,,,,,,,,,,,,,,,,,,,,,,,,,,,,,,,,,,,,,,,,,,,,,,,,,,,,,,,,,,,,,,,,,,,,,,,,,,,,,,,,,,,,,,
,,,,,,615409afcfcc9627a0bf44c3,62c538e854f3a38dea76a905,2022-07-06_09h25.51.267,Colour_Asymmetry_Pilot,2022.1.3,Win32,59.88741167,62c50e9c1127f2cd403a315f,0,56,56,139,1,twofour,,,,,,,,,,,,,,,,,,,,,,,,,,,,,,,,,,,,,,,,,,,,,,,,,,,,,,,,,,,,,,,,,,,,,,,,,,,,,,,,,,,,,,,,,,,,,,,,,,,,,,,,,,,,,,,,,,,,,,,,,,,,,,,,,,,,,,,,,,,,,,,,,,,,,,,,,,,,,
,,,,,,615409afcfcc9627a0bf44c3,62c538e854f3a38dea76a905,2022-07-06_09h25.51.267,Colour_Asymmetry_Pilot,2022.1.3,Win32,59.88741167,62c50e9c1127f2cd403a315f,0,57,57,82,1,twoone,,,,,,,,,,,,,,,,,,,,,,,,,,,,,,,,,,,,,,,,,,,,,,,,,,,,,,,,,,,,,,,,,,,,,,,,,,,,,,,,,,,,,,,,,,,,,,,,,,,,,,,,,,,,,,,,,,,,,,,,,,,,,,,,,,,,,,,,,,,,,,,,,,,,,,,,,,,,,
,,,,,,615409afcfcc9627a0bf44c3,62c538e854f3a38dea76a905,2022-07-06_09h25.51.267,Colour_Asymmetry_Pilot,2022.1.3,Win32,59.88741167,62c50e9c1127f2cd403a315f,0,58,58,34,1,twoone,,,,,,,,,,,,,,,,,,,,,,,,,,,,,,,,,,,,,,,,,,,,,,,,,,,,,,,,,,,,,,,,,,,,,,,,,,,,,,,,,,,,,,,,,,,,,,,,,,,,,,,,,,,,,,,,,,,,,,,,,,,,,,,,,,,,,,,,,,,,,,,,,,,,,,,,,,,,,
,,,,,,615409afcfcc9627a0bf44c3,62c538e854f3a38dea76a905,2022-07-06_09h25.51.267,Colour_Asymmetry_Pilot,2022.1.3,Win32,59.88741167,62c50e9c1127f2cd403a315f,0,59,59,79,1,fourthree,,,,,,,,,,,,,,,,,,,,,,,,,,,,,,,,,,,,,,,,,,,,,,,,,,,,,,,,,,,,,,,,,,,,,,,,,,,,,,,,,,,,,,,,,,,,,,,,,,,,,,,,,,,,,,,,,,,,,,,,,,,,,,,,,,,,,,,,,,,,,,,,,,,,,,,,,,,,,
,,,,,,615409afcfcc9627a0bf44c3,62c538e854f3a38dea76a905,2022-07-06_09h25.51.267,Colour_Asymmetry_Pilot,2022.1.3,Win32,59.88741167,62c50e9c1127f2cd403a315f,0,60,60,134,1,fourtwo,,,,,,,,,,,,,,,,,,,,,,,,,,,,,,,,,,,,,,,,,,,,,,,,,,,,,,,,,,,,,,,,,,,,,,,,,,,,,,,,,,,,,,,,,,,,,,,,,,,,,,,,,,,,,,,,,,,,,,,,,,,,,,,,,,,,,,,,,,,,,,,,,,,,,,,,,,,,,
,,,,,,615409afcfcc9627a0bf44c3,62c538e854f3a38dea76a905,2022-07-06_09h25.51.267,Colour_Asymmetry_Pilot,2022.1.3,Win32,59.88741167,62c50e9c1127f2cd403a315f,0,61,61,106,1,twoone,,,,,,,,,,,,,,,,,,,,,,,,,,,,,,,,,,,,,,,,,,,,,,,,,,,,,,,,,,,,,,,,,,,,,,,,,,,,,,,,,,,,,,,,,,,,,,,,,,,,,,,,,,,,,,,,,,,,,,,,,,,,,,,,,,,,,,,,,,,,,,,,,,,,,,,,,,,,,
,,,,,,615409afcfcc9627a0bf44c3,62c538e854f3a38dea76a905,2022-07-06_09h25.51.267,Colour_Asymmetry_Pilot,2022.1.3,Win32,59.88741167,62c50e9c1127f2cd403a315f,0,62,62,123,1,twofour,,,,,,,,,,,,,,,,,,,,,,,,,,,,,,,,,,,,,,,,,,,,,,,,,,,,,,,,,,,,,,,,,,,,,,,,,,,,,,,,,,,,,,,,,,,,,,,,,,,,,,,,,,,,,,,,,,,,,,,,,,,,,,,,,,,,,,,,,,,,,,,,,,,,,,,,,,,,,
,,,,,,615409afcfcc9627a0bf44c3,62c538e854f3a38dea76a905,2022-07-06_09h25.51.267,Colour_Asymmetry_Pilot,2022.1.3,Win32,59.88741167,62c50e9c1127f2cd403a315f,0,63,63,24,1,onetwo,,,,,,,,,,,,,,,,,,,,,,,,,,,,,,,,,,,,,,,,,,,,,,,,,,,,,,,,,,,,,,,,,,,,,,,,,,,,,,,,,,,,,,,,,,,,,,,,,,,,,,,,,,,,,,,,,,,,,,,,,,,,,,,,,,,,,,,,,,,,,,,,,,,,,,,,,,,,,
,,,,,,615409afcfcc9627a0bf44c3,62c538e854f3a38dea76a905,2022-07-06_09h25.51.267,Colour_Asymmetry_Pilot,2022.1.3,Win32,59.88741167,62c50e9c1127f2cd403a315f,0,64,64,156,1,threeone,,,,,,,,,,,,,,,,,,,,,,,,,,,,,,,,,,,,,,,,,,,,,,,,,,,,,,,,,,,,,,,,,,,,,,,,,,,,,,,,,,,,,,,,,,,,,,,,,,,,,,,,,,,,,,,,,,,,,,,,,,,,,,,,,,,,,,,,,,,,,,,,,,,,,,,,,,,,,
,,,,,,615409afcfcc9627a0bf44c3,62c538e854f3a38dea76a905,2022-07-06_09h25.51.267,Colour_Asymmetry_Pilot,2022.1.3,Win32,59.88741167,62c50e9c1127f2cd403a315f,0,65,65,125,1,threefour,,,,,,,,,,,,,,,,,,,,,,,,,,,,,,,,,,,,,,,,,,,,,,,,,,,,,,,,,,,,,,,,,,,,,,,,,,,,,,,,,,,,,,,,,,,,,,,,,,,,,,,,,,,,,,,,,,,,,,,,,,,,,,,,,,,,,,,,,,,,,,,,,,,,,,,,,,,,,
,,,,,,615409afcfcc9627a0bf44c3,62c538e854f3a38dea76a905,2022-07-06_09h25.51.267,Colour_Asymmetry_Pilot,2022.1.3,Win32,59.88741167,62c50e9c1127f2cd403a315f,0,66,66,140,1,threeone,,,,,,,,,,,,,,,,,,,,,,,,,,,,,,,,,,,,,,,,,,,,,,,,,,,,,,,,,,,,,,,,,,,,,,,,,,,,,,,,,,,,,,,,,,,,,,,,,,,,,,,,,,,,,,,,,,,,,,,,,,,,,,,,,,,,,,,,,,,,,,,,,,,,,,,,,,,,,
,,,,,,615409afcfcc9627a0bf44c3,62c538e854f3a38dea76a905,2022-07-06_09h25.51.267,Colour_Asymmetry_Pilot,2022.1.3,Win32,59.88741167,62c50e9c1127f2cd403a315f,0,67,67,21,1,threefour,,,,,,,,,,,,,,,,,,,,,,,,,,,,,,,,,,,,,,,,,,,,,,,,,,,,,,,,,,,,,,,,,,,,,,,,,,,,,,,,,,,,,,,,,,,,,,,,,,,,,,,,,,,,,,,,,,,,,,,,,,,,,,,,,,,,,,,,,,,,,,,,,,,,,,,,,,,,,
,,,,,,615409afcfcc9627a0bf44c3,62c538e854f3a38dea76a905,2022-07-06_09h25.51.267,Colour_Asymmetry_Pilot,2022.1.3,Win32,59.88741167,62c50e9c1127f2cd403a315f,0,68,68,105,1,onethree,,,,,,,,,,,,,,,,,,,,,,,,,,,,,,,,,,,,,,,,,,,,,,,,,,,,,,,,,,,,,,,,,,,,,,,,,,,,,,,,,,,,,,,,,,,,,,,,,,,,,,,,,,,,,,,,,,,,,,,,,,,,,,,,,,,,,,,,,,,,,,,,,,,,,,,,,,,,,
,,,,,,615409afcfcc9627a0bf44c3,62c538e854f3a38dea76a905,2022-07-06_09h25.51.267,Colour_Asymmetry_Pilot,2022.1.3,Win32,59.88741167,62c50e9c1127f2cd403a315f,0,69,69,72,1,onetwo,,,,,,,,,,,,,,,,,,,,,,,,,,,,,,,,,,,,,,,,,,,,,,,,,,,,,,,,,,,,,,,,,,,,,,,,,,,,,,,,,,,,,,,,,,,,,,,,,,,,,,,,,,,,,,,,,,,,,,,,,,,,,,,,,,,,,,,,,,,,,,,,,,,,,,,,,,,,,
,,,,,,615409afcfcc9627a0bf44c3,62c538e854f3a38dea76a905,2022-07-06_09h25.51.267,Colour_Asymmetry_Pilot,2022.1.3,Win32,59.88741167,62c50e9c1127f2cd403a315f,0,70,70,155,1,twofour,,,,,,,,,,,,,,,,,,,,,,,,,,,,,,,,,,,,,,,,,,,,,,,,,,,,,,,,,,,,,,,,,,,,,,,,,,,,,,,,,,,,,,,,,,,,,,,,,,,,,,,,,,,,,,,,,,,,,,,,,,,,,,,,,,,,,,,,,,,,,,,,,,,,,,,,,,,,,
,,,,,,615409afcfcc9627a0bf44c3,62c538e854f3a38dea76a905,2022-07-06_09h25.51.267,Colour_Asymmetry_Pilot,2022.1.3,Win32,59.88741167,62c50e9c1127f2cd403a315f,0,71,71,7,1,fourthree,,,,,,,,,,,,,,,,,,,,,,,,,,,,,,,,,,,,,,,,,,,,,,,,,,,,,,,,,,,,,,,,,,,,,,,,,,,,,,,,,,,,,,,,,,,,,,,,,,,,,,,,,,,,,,,,,,,,,,,,,,,,,,,,,,,,,,,,,,,,,,,,,,,,,,,,,,,,,
,,,,,,615409afcfcc9627a0bf44c3,62c538e854f3a38dea76a905,2022-07-06_09h25.51.267,Colour_Asymmetry_Pilot,2022.1.3,Win32,59.88741167,62c50e9c1127f2cd403a315f,0,72,72,62,1,fourtwo,,,,,,,,,,,,,,,,,,,,,,,,,,,,,,,,,,,,,,,,,,,,,,,,,,,,,,,,,,,,,,,,,,,,,,,,,,,,,,,,,,,,,,,,,,,,,,,,,,,,,,,,,,,,,,,,,,,,,,,,,,,,,,,,,,,,,,,,,,,,,,,,,,,,,,,,,,,,,
,,,,,,615409afcfcc9627a0bf44c3,62c538e854f3a38dea76a905,2022-07-06_09h25.51.267,Colour_Asymmetry_Pilot,2022.1.3,Win32,59.88741167,62c50e9c1127f2cd403a315f,0,73,73,145,1,onethree,,,,,,,,,,,,,,,,,,,,,,,,,,,,,,,,,,,,,,,,,,,,,,,,,,,,,,,,,,,,,,,,,,,,,,,,,,,,,,,,,,,,,,,,,,,,,,,,,,,,,,,,,,,,,,,,,,,,,,,,,,,,,,,,,,,,,,,,,,,,,,,,,,,,,,,,,,,,,
,,,,,,615409afcfcc9627a0bf44c3,62c538e854f3a38dea76a905,2022-07-06_09h25.51.267,Colour_Asymmetry_Pilot,2022.1.3,Win32,59.88741167,62c50e9c1127f2cd403a315f,0,74,74,37,1,threefour,,,,,,,,,,,,,,,,,,,,,,,,,,,,,,,,,,,,,,,,,,,,,,,,,,,,,,,,,,,,,,,,,,,,,,,,,,,,,,,,,,,,,,,,,,,,,,,,,,,,,,,,,,,,,,,,,,,,,,,,,,,,,,,,,,,,,,,,,,,,,,,,,,,,,,,,,,,,,
,,,,,,615409afcfcc9627a0bf44c3,62c538e854f3a38dea76a905,2022-07-06_09h25.51.267,Colour_Asymmetry_Pilot,2022.1.3,Win32,59.88741167,62c50e9c1127f2cd403a315f,0,75,75,108,1,threeone,,,,,,,,,,,,,,,,,,,,,,,,,,,,,,,,,,,,,,,,,,,,,,,,,,,,,,,,,,,,,,,,,,,,,,,,,,,,,,,,,,,,,,,,,,,,,,,,,,,,,,,,,,,,,,,,,,,,,,,,,,,,,,,,,,,,,,,,,,,,,,,,,,,,,,,,,,,,,
,,,,,,615409afcfcc9627a0bf44c3,62c538e854f3a38dea76a905,2022-07-06_09h25.51.267,Colour_Asymmetry_Pilot,2022.1.3,Win32,59.88741167,62c50e9c1127f2cd403a315f,0,76,76,95,1,fourthree,,,,,,,,,,,,,,,,,,,,,,,,,,,,,,,,,,,,,,,,,,,,,,,,,,,,,,,,,,,,,,,,,,,,,,,,,,,,,,,,,,,,,,,,,,,,,,,,,,,,,,,,,,,,,,,,,,,,,,,,,,,,,,,,,,,,,,,,,,,,,,,,,,,,,,,,,,,,,
,,,,,,615409afcfcc9627a0bf44c3,62c538e854f3a38dea76a905,2022-07-06_09h25.51.267,Colour_Asymmetry_Pilot,2022.1.3,Win32,59.88741167,62c50e9c1127f2cd403a315f,0,77,77,45,1,threefour,,,,,,,,,,,,,,,,,,,,,,,,,,,,,,,,,,,,,,,,,,,,,,,,,,,,,,,,,,,,,,,,,,,,,,,,,,,,,,,,,,,,,,,,,,,,,,,,,,,,,,,,,,,,,,,,,,,,,,,,,,,,,,,,,,,,,,,,,,,,,,,,,,,,,,,,,,,,,
,,,,,,615409afcfcc9627a0bf44c3,62c538e854f3a38dea76a905,2022-07-06_09h25.51.267,Colour_Asymmetry_Pilot,2022.1.3,Win32,59.88741167,62c50e9c1127f2cd403a315f,0,78,78,88,1,onetwo,,,,,,,,,,,,,,,,,,,,,,,,,,,,,,,,,,,,,,,,,,,,,,,,,,,,,,,,,,,,,,,,,,,,,,,,,,,,,,,,,,,,,,,,,,,,,,,,,,,,,,,,,,,,,,,,,,,,,,,,,,,,,,,,,,,,,,,,,,,,,,,,,,,,,,,,,,,,,
,,,,,,615409afcfcc9627a0bf44c3,62c538e854f3a38dea76a905,2022-07-06_09h25.51.267,Colour_Asymmetry_Pilot,2022.1.3,Win32,59.88741167,62c50e9c1127f2cd403a315f,0,79,79,147,1,twofour,,,,,,,,,,,,,,,,,,,,,,,,,,,,,,,,,,,,,,,,,,,,,,,,,,,,,,,,,,,,,,,,,,,,,,,,,,,,,,,,,,,,,,,,,,,,,,,,,,,,,,,,,,,,,,,,,,,,,,,,,,,,,,,,,,,,,,,,,,,,,,,,,,,,,,,,,,,,,
,,,,,,615409afcfcc9627a0bf44c3,62c538e854f3a38dea76a905,2022-07-06_09h25.51.267,Colour_Asymmetry_Pilot,2022.1.3,Win32,59.88741167,62c50e9c1127f2cd403a315f,0,80,80,28,1,threeone,,,,,,,,,,,,,,,,,,,,,,,,,,,,,,,,,,,,,,,,,,,,,,,,,,,,,,,,,,,,,,,,,,,,,,,,,,,,,,,,,,,,,,,,,,,,,,,,,,,,,,,,,,,,,,,,,,,,,,,,,,,,,,,,,,,,,,,,,,,,,,,,,,,,,,,,,,,,,
,,,,,,615409afcfcc9627a0bf44c3,62c538e854f3a38dea76a905,2022-07-06_09h25.51.267,Colour_Asymmetry_Pilot,2022.1.3,Win32,59.88741167,62c50e9c1127f2cd403a315f,0,81,81,65,1,onethree,,,,,,,,,,,,,,,,,,,,,,,,,,,,,,,,,,,,,,,,,,,,,,,,,,,,,,,,,,,,,,,,,,,,,,,,,,,,,,,,,,,,,,,,,,,,,,,,,,,,,,,,,,,,,,,,,,,,,,,,,,,,,,,,,,,,,,,,,,,,,,,,,,,,,,,,,,,,,
,,,,,,615409afcfcc9627a0bf44c3,62c538e854f3a38dea76a905,2022-07-06_09h25.51.267,Colour_Asymmetry_Pilot,2022.1.3,Win32,59.88741167,62c50e9c1127f2cd403a315f,0,82,82,129,1,onethree,,,,,,,,,,,,,,,,,,,,,,,,,,,,,,,,,,,,,,,,,,,,,,,,,,,,,,,,,,,,,,,,,,,,,,,,,,,,,,,,,,,,,,,,,,,,,,,,,,,,,,,,,,,,,,,,,,,,,,,,,,,,,,,,,,,,,,,,,,,,,,,,,,,,,,,,,,,,,
,,,,,,615409afcfcc9627a0bf44c3,62c538e854f3a38dea76a905,2022-07-06_09h25.51.267,Colour_Asymmetry_Pilot,2022.1.3,Win32,59.88741167,62c50e9c1127f2cd403a315f,0,83,83,10,1,twoone,,,,,,,,,,,,,,,,,,,,,,,,,,,,,,,,,,,,,,,,,,,,,,,,,,,,,,,,,,,,,,,,,,,,,,,,,,,,,,,,,,,,,,,,,,,,,,,,,,,,,,,,,,,,,,,,,,,,,,,,,,,,,,,,,,,,,,,,,,,,,,,,,,,,,,,,,,,,,
,,,,,,615409afcfcc9627a0bf44c3,62c538e854f3a38dea76a905,2022-07-06_09h25.51.267,Colour_Asymmetry_Pilot,2022.1.3,Win32,59.88741167,62c50e9c1127f2cd403a315f,0,84,84,17,1,onethree,,,,,,,,,,,,,,,,,,,,,,,,,,,,,,,,,,,,,,,,,,,,,,,,,,,,,,,,,,,,,,,,,,,,,,,,,,,,,,,,,,,,,,,,,,,,,,,,,,,,,,,,,,,,,,,,,,,,,,,,,,,,,,,,,,,,,,,,,,,,,,,,,,,,,,,,,,,,,
,,,,,,615409afcfcc9627a0bf44c3,62c538e854f3a38dea76a905,2022-07-06_09h25.51.267,Colour_Asymmetry_Pilot,2022.1.3,Win32,59.88741167,62c50e9c1127f2cd403a315f,0,85,85,78,1,fourtwo,,,,,,,,,,,,,,,,,,,,,,,,,,,,,,,,,,,,,,,,,,,,,,,,,,,,,,,,,,,,,,,,,,,,,,,,,,,,,,,,,,,,,,,,,,,,,,,,,,,,,,,,,,,,,,,,,,,,,,,,,,,,,,,,,,,,,,,,,,,,,,,,,,,,,,,,,,,,,
,,,,,,615409afcfcc9627a0bf44c3,62c538e854f3a38dea76a905,2022-07-06_09h25.51.267,Colour_Asymmetry_Pilot,2022.1.3,Win32,59.88741167,62c50e9c1127f2cd403a315f,0,86,86,2,1,twoone,,,,,,,,,,,,,,,,,,,,,,,,,,,,,,,,,,,,,,,,,,,,,,,,,,,,,,,,,,,,,,,,,,,,,,,,,,,,,,,,,,,,,,,,,,,,,,,,,,,,,,,,,,,,,,,,,,,,,,,,,,,,,,,,,,,,,,,,,,,,,,,,,,,,,,,,,,,,,
,,,,,,615409afcfcc9627a0bf44c3,62c538e854f3a38dea76a905,2022-07-06_09h25.51.267,Colour_Asymmetry_Pilot,2022.1.3,Win32,59.88741167,62c50e9c1127f2cd403a315f,0,87,87,148,1,threeone,,,,,,,,,,,,,,,,,,,,,,,,,,,,,,,,,,,,,,,,,,,,,,,,,,,,,,,,,,,,,,,,,,,,,,,,,,,,,,,,,,,,,,,,,,,,,,,,,,,,,,,,,,,,,,,,,,,,,,,,,,,,,,,,,,,,,,,,,,,,,,,,,,,,,,,,,,,,,
,,,,,,615409afcfcc9627a0bf44c3,62c538e854f3a38dea76a905,2022-07-06_09h25.51.267,Colour_Asymmetry_Pilot,2022.1.3,Win32,59.88741167,62c50e9c1127f2cd403a315f,0,88,88,124,1,threeone,,,,,,,,,,,,,,,,,,,,,,,,,,,,,,,,,,,,,,,,,,,,,,,,,,,,,,,,,,,,,,,,,,,,,,,,,,,,,,,,,,,,,,,,,,,,,,,,,,,,,,,,,,,,,,,,,,,,,,,,,,,,,,,,,,,,,,,,,,,,,,,,,,,,,,,,,,,,,
,,,,,,615409afcfcc9627a0bf44c3,62c538e854f3a38dea76a905,2022-07-06_09h25.51.267,Colour_Asymmetry_Pilot,2022.1.3,Win32,59.88741167,62c50e9c1127f2cd403a315f,0,89,89,43,1,twofour,,,,,,,,,,,,,,,,,,,,,,,,,,,,,,,,,,,,,,,,,,,,,,,,,,,,,,,,,,,,,,,,,,,,,,,,,,,,,,,,,,,,,,,,,,,,,,,,,,,,,,,,,,,,,,,,,,,,,,,,,,,,,,,,,,,,,,,,,,,,,,,,,,,,,,,,,,,,,
,,,,,,615409afcfcc9627a0bf44c3,62c538e854f3a38dea76a905,2022-07-06_09h25.51.267,Colour_Asymmetry_Pilot,2022.1.3,Win32,59.88741167,62c50e9c1127f2cd403a315f,0,90,90,99,1,twofour,,,,,,,,,,,,,,,,,,,,,,,,,,,,,,,,,,,,,,,,,,,,,,,,,,,,,,,,,,,,,,,,,,,,,,,,,,,,,,,,,,,,,,,,,,,,,,,,,,,,,,,,,,,,,,,,,,,,,,,,,,,,,,,,,,,,,,,,,,,,,,,,,,,,,,,,,,,,,
,,,,,,615409afcfcc9627a0bf44c3,62c538e854f3a38dea76a905,2022-07-06_09h25.51.267,Colour_Asymmetry_Pilot,2022.1.3,Win32,59.88741167,62c50e9c1127f2cd403a315f,0,91,91,109,1,threefour,,,,,,,,,,,,,,,,,,,,,,,,,,,,,,,,,,,,,,,,,,,,,,,,,,,,,,,,,,,,,,,,,,,,,,,,,,,,,,,,,,,,,,,,,,,,,,,,,,,,,,,,,,,,,,,,,,,,,,,,,,,,,,,,,,,,,,,,,,,,,,,,,,,,,,,,,,,,,
,,,,,,615409afcfcc9627a0bf44c3,62c538e854f3a38dea76a905,2022-07-06_09h25.51.267,Colour_Asymmetry_Pilot,2022.1.3,Win32,59.88741167,62c50e9c1127f2cd403a315f,0,92,92,54,1,fourtwo,,,,,,,,,,,,,,,,,,,,,,,,,,,,,,,,,,,,,,,,,,,,,,,,,,,,,,,,,,,,,,,,,,,,,,,,,,,,,,,,,,,,,,,,,,,,,,,,,,,,,,,,,,,,,,,,,,,,,,,,,,,,,,,,,,,,,,,,,,,,,,,,,,,,,,,,,,,,,
,,,,,,615409afcfcc9627a0bf44c3,62c538e854f3a38dea76a905,2022-07-06_09h25.51.267,Colour_Asymmetry_Pilot,2022.1.3,Win32,59.88741167,62c50e9c1127f2cd403a315f,0,93,93,92,1,threeone,,,,,,,,,,,,,,,,,,,,,,,,,,,,,,,,,,,,,,,,,,,,,,,,,,,,,,,,,,,,,,,,,,,,,,,,,,,,,,,,,,,,,,,,,,,,,,,,,,,,,,,,,,,,,,,,,,,,,,,,,,,,,,,,,,,,,,,,,,,,,,,,,,,,,,,,,,,,,
,,,,,,615409afcfcc9627a0bf44c3,62c538e854f3a38dea76a905,2022-07-06_09h25.51.267,Colour_Asymmetry_Pilot,2022.1.3,Win32,59.88741167,62c50e9c1127f2cd403a315f,0,94,94,152,1,onetwo,,,,,,,,,,,,,,,,,,,,,,,,,,,,,,,,,,,,,,,,,,,,,,,,,,,,,,,,,,,,,,,,,,,,,,,,,,,,,,,,,,,,,,,,,,,,,,,,,,,,,,,,,,,,,,,,,,,,,,,,,,,,,,,,,,,,,,,,,,,,,,,,,,,,,,,,,,,,,
,,,,,,615409afcfcc9627a0bf44c3,62c538e854f3a38dea76a905,2022-07-06_09h25.51.267,Colour_Asymmetry_Pilot,2022.1.3,Win32,59.88741167,62c50e9c1127f2cd403a315f,0,95,95,50,1,twoone,,,,,,,,,,,,,,,,,,,,,,,,,,,,,,,,,,,,,,,,,,,,,,,,,,,,,,,,,,,,,,,,,,,,,,,,,,,,,,,,,,,,,,,,,,,,,,,,,,,,,,,,,,,,,,,,,,,,,,,,,,,,,,,,,,,,,,,,,,,,,,,,,,,,,,,,,,,,,
,,,,,,615409afcfcc9627a0bf44c3,62c538e854f3a38dea76a905,2022-07-06_09h25.51.267,Colour_Asymmetry_Pilot,2022.1.3,Win32,59.88741167,62c50e9c1127f2cd403a315f,0,96,96,151,1,fourthree,,,,,,,,,,,,,,,,,,,,,,,,,,,,,,,,,,,,,,,,,,,,,,,,,,,,,,,,,,,,,,,,,,,,,,,,,,,,,,,,,,,,,,,,,,,,,,,,,,,,,,,,,,,,,,,,,,,,,,,,,,,,,,,,,,,,,,,,,,,,,,,,,,,,,,,,,,,,,
,,,,,,615409afcfcc9627a0bf44c3,62c538e854f3a38dea76a905,2022-07-06_09h25.51.267,Colour_Asymmetry_Pilot,2022.1.3,Win32,59.88741167,62c50e9c1127f2cd403a315f,0,97,97,161,1,onethree,,,,,,,,,,,,,,,,,,,,,,,,,,,,,,,,,,,,,,,,,,,,,,,,,,,,,,,,,,,,,,,,,,,,,,,,,,,,,,,,,,,,,,,,,,,,,,,,,,,,,,,,,,,,,,,,,,,,,,,,,,,,,,,,,,,,,,,,,,,,,,,,,,,,,,,,,,,,,
,,,,,,615409afcfcc9627a0bf44c3,62c538e854f3a38dea76a905,2022-07-06_09h25.51.267,Colour_Asymmetry_Pilot,2022.1.3,Win32,59.88741167,62c50e9c1127f2cd403a315f,0,98,98,117,1,threefour,,,,,,,,,,,,,,,,,,,,,,,,,,,,,,,,,,,,,,,,,,,,,,,,,,,,,,,,,,,,,,,,,,,,,,,,,,,,,,,,,,,,,,,,,,,,,,,,,,,,,,,,,,,,,,,,,,,,,,,,,,,,,,,,,,,,,,,,,,,,,,,,,,,,,,,,,,,,,
,,,,,,615409afcfcc9627a0bf44c3,62c538e854f3a38dea76a905,2022-07-06_09h25.51.267,Colour_Asymmetry_Pilot,2022.1.3,Win32,59.88741167,62c50e9c1127f2cd403a315f,0,99,99,53,1,threefour,,,,,,,,,,,,,,,,,,,,,,,,,,,,,,,,,,,,,,,,,,,,,,,,,,,,,,,,,,,,,,,,,,,,,,,,,,,,,,,,,,,,,,,,,,,,,,,,,,,,,,,,,,,,,,,,,,,,,,,,,,,,,,,,,,,,,,,,,,,,,,,,,,,,,,,,,,,,,
,,,,,,615409afcfcc9627a0bf44c3,62c538e854f3a38dea76a905,2022-07-06_09h25.51.267,Colour_Asymmetry_Pilot,2022.1.3,Win32,59.88741167,62c50e9c1127f2cd403a315f,0,100,100,68,1,threeone,,,,,,,,,,,,,,,,,,,,,,,,,,,,,,,,,,,,,,,,,,,,,,,,,,,,,,,,,,,,,,,,,,,,,,,,,,,,,,,,,,,,,,,,,,,,,,,,,,,,,,,,,,,,,,,,,,,,,,,,,,,,,,,,,,,,,,,,,,,,,,,,,,,,,,,,,,,,,
,,,,,,615409afcfcc9627a0bf44c3,62c538e854f3a38dea76a905,2022-07-06_09h25.51.267,Colour_Asymmetry_Pilot,2022.1.3,Win32,59.88741167,62c50e9c1127f2cd403a315f,0,101,101,20,1,threeone,,,,,,,,,,,,,,,,,,,,,,,,,,,,,,,,,,,,,,,,,,,,,,,,,,,,,,,,,,,,,,,,,,,,,,,,,,,,,,,,,,,,,,,,,,,,,,,,,,,,,,,,,,,,,,,,,,,,,,,,,,,,,,,,,,,,,,,,,,,,,,,,,,,,,,,,,,,,,
,,,,,,615409afcfcc9627a0bf44c3,62c538e854f3a38dea76a905,2022-07-06_09h25.51.267,Colour_Asymmetry_Pilot,2022.1.3,Win32,59.88741167,62c50e9c1127f2cd403a315f,0,102,102,11,1,twofour,,,,,,,,,,,,,,,,,,,,,,,,,,,,,,,,,,,,,,,,,,,,,,,,,,,,,,,,,,,,,,,,,,,,,,,,,,,,,,,,,,,,,,,,,,,,,,,,,,,,,,,,,,,,,,,,,,,,,,,,,,,,,,,,,,,,,,,,,,,,,,,,,,,,,,,,,,,,,
,,,,,,615409afcfcc9627a0bf44c3,62c538e854f3a38dea76a905,2022-07-06_09h25.51.267,Colour_Asymmetry_Pilot,2022.1.3,Win32,59.88741167,62c50e9c1127f2cd403a315f,0,103,103,30,1,fourtwo,,,,,,,,,,,,,,,,,,,,,,,,,,,,,,,,,,,,,,,,,,,,,,,,,,,,,,,,,,,,,,,,,,,,,,,,,,,,,,,,,,,,,,,,,,,,,,,,,,,,,,,,,,,,,,,,,,,,,,,,,,,,,,,,,,,,,,,,,,,,,,,,,,,,,,,,,,,,,
,,,,,,615409afcfcc9627a0bf44c3,62c538e854f3a38dea76a905,2022-07-06_09h25.51.267,Colour_Asymmetry_Pilot,2022.1.3,Win32,59.88741167,62c50e9c1127f2cd403a315f,0,104,104,39,1,fourthree,,,,,,,,,,,,,,,,,,,,,,,,,,,,,,,,,,,,,,,,,,,,,,,,,,,,,,,,,,,,,,,,,,,,,,,,,,,,,,,,,,,,,,,,,,,,,,,,,,,,,,,,,,,,,,,,,,,,,,,,,,,,,,,,,,,,,,,,,,,,,,,,,,,,,,,,,,,,,
,,,,,,615409afcfcc9627a0bf44c3,62c538e854f3a38dea76a905,2022-07-06_09h25.51.267,Colour_Asymmetry_Pilot,2022.1.3,Win32,59.88741167,62c50e9c1127f2cd403a315f,0,105,105,127,1,fourthree,,,,,,,,,,,,,,,,,,,,,,,,,,,,,,,,,,,,,,,,,,,,,,,,,,,,,,,,,,,,,,,,,,,,,,,,,,,,,,,,,,,,,,,,,,,,,,,,,,,,,,,,,,,,,,,,,,,,,,,,,,,,,,,,,,,,,,,,,,,,,,,,,,,,,,,,,,,,,
,,,,,,615409afcfcc9627a0bf44c3,62c538e854f3a38dea76a905,2022-07-06_09h25.51.267,Colour_Asymmetry_Pilot,2022.1.3,Win32,59.88741167,62c50e9c1127f2cd403a315f,0,106,106,110,1,fourtwo,,,,,,,,,,,,,,,,,,,,,,,,,,,,,,,,,,,,,,,,,,,,,,,,,,,,,,,,,,,,,,,,,,,,,,,,,,,,,,,,,,,,,,,,,,,,,,,,,,,,,,,,,,,,,,,,,,,,,,,,,,,,,,,,,,,,,,,,,,,,,,,,,,,,,,,,,,,,,
,,,,,,615409afcfcc9627a0bf44c3,62c538e854f3a38dea76a905,2022-07-06_09h25.51.267,Colour_Asymmetry_Pilot,2022.1.3,Win32,59.88741167,62c50e9c1127f2cd403a315f,0,107,107,86,1,fourtwo,,,,,,,,,,,,,,,,,,,,,,,,,,,,,,,,,,,,,,,,,,,,,,,,,,,,,,,,,,,,,,,,,,,,,,,,,,,,,,,,,,,,,,,,,,,,,,,,,,,,,,,,,,,,,,,,,,,,,,,,,,,,,,,,,,,,,,,,,,,,,,,,,,,,,,,,,,,,,
,,,,,,615409afcfcc9627a0bf44c3,62c538e854f3a38dea76a905,2022-07-06_09h25.51.267,Colour_Asymmetry_Pilot,2022.1.3,Win32,59.88741167,62c50e9c1127f2cd403a315f,0,108,108,149,1,threefour,,,,,,,,,,,,,,,,,,,,,,,,,,,,,,,,,,,,,,,,,,,,,,,,,,,,,,,,,,,,,,,,,,,,,,,,,,,,,,,,,,,,,,,,,,,,,,,,,,,,,,,,,,,,,,,,,,,,,,,,,,,,,,,,,,,,,,,,,,,,,,,,,,,,,,,,,,,,,
,,,,,,615409afcfcc9627a0bf44c3,62c538e854f3a38dea76a905,2022-07-06_09h25.51.267,Colour_Asymmetry_Pilot,2022.1.3,Win32,59.88741167,62c50e9c1127f2cd403a315f,0,109,109,112,1,onetwo,,,,,,,,,,,,,,,,,,,,,,,,,,,,,,,,,,,,,,,,,,,,,,,,,,,,,,,,,,,,,,,,,,,,,,,,,,,,,,,,,,,,,,,,,,,,,,,,,,,,,,,,,,,,,,,,,,,,,,,,,,,,,,,,,,,,,,,,,,,,,,,,,,,,,,,,,,,,,
,,,,,,615409afcfcc9627a0bf44c3,62c538e854f3a38dea76a905,2022-07-06_09h25.51.267,Colour_Asymmetry_Pilot,2022.1.3,Win32,59.88741167,62c50e9c1127f2cd403a315f,0,110,110,0,1,onetwo,,,,,,,,,,,,,,,,,,,,,,,,,,,,,,,,,,,,,,,,,,,,,,,,,,,,,,,,,,,,,,,,,,,,,,,,,,,,,,,,,,,,,,,,,,,,,,,,,,,,,,,,,,,,,,,,,,,,,,,,,,,,,,,,,,,,,,,,,,,,,,,,,,,,,,,,,,,,,
,,,,,,615409afcfcc9627a0bf44c3,62c538e854f3a38dea76a905,2022-07-06_09h25.51.267,Colour_Asymmetry_Pilot,2022.1.3,Win32,59.88741167,62c50e9c1127f2cd403a315f,0,111,111,69,1,threefour,,,,,,,,,,,,,,,,,,,,,,,,,,,,,,,,,,,,,,,,,,,,,,,,,,,,,,,,,,,,,,,,,,,,,,,,,,,,,,,,,,,,,,,,,,,,,,,,,,,,,,,,,,,,,,,,,,,,,,,,,,,,,,,,,,,,,,,,,,,,,,,,,,,,,,,,,,,,,
,,,,,,615409afcfcc9627a0bf44c3,62c538e854f3a38dea76a905,2022-07-06_09h25.51.267,Colour_Asymmetry_Pilot,2022.1.3,Win32,59.88741167,62c50e9c1127f2cd403a315f,0,112,112,8,1,onetwo,,,,,,,,,,,,,,,,,,,,,,,,,,,,,,,,,,,,,,,,,,,,,,,,,,,,,,,,,,,,,,,,,,,,,,,,,,,,,,,,,,,,,,,,,,,,,,,,,,,,,,,,,,,,,,,,,,,,,,,,,,,,,,,,,,,,,,,,,,,,,,,,,,,,,,,,,,,,,
,,,,,,615409afcfcc9627a0bf44c3,62c538e854f3a38dea76a905,2022-07-06_09h25.51.267,Colour_Asymmetry_Pilot,2022.1.3,Win32,59.88741167,62c50e9c1127f2cd403a315f,0,113,113,131,1,twofour,,,,,,,,,,,,,,,,,,,,,,,,,,,,,,,,,,,,,,,,,,,,,,,,,,,,,,,,,,,,,,,,,,,,,,,,,,,,,,,,,,,,,,,,,,,,,,,,,,,,,,,,,,,,,,,,,,,,,,,,,,,,,,,,,,,,,,,,,,,,,,,,,,,,,,,,,,,,,
,,,,,,615409afcfcc9627a0bf44c3,62c538e854f3a38dea76a905,2022-07-06_09h25.51.267,Colour_Asymmetry_Pilot,2022.1.3,Win32,59.88741167,62c50e9c1127f2cd403a315f,0,114,114,141,1,threefour,,,,,,,,,,,,,,,,,,,,,,,,,,,,,,,,,,,,,,,,,,,,,,,,,,,,,,,,,,,,,,,,,,,,,,,,,,,,,,,,,,,,,,,,,,,,,,,,,,,,,,,,,,,,,,,,,,,,,,,,,,,,,,,,,,,,,,,,,,,,,,,,,,,,,,,,,,,,,
,,,,,,615409afcfcc9627a0bf44c3,62c538e854f3a38dea76a905,2022-07-06_09h25.51.267,Colour_Asymmetry_Pilot,2022.1.3,Win32,59.88741167,62c50e9c1127f2cd403a315f,0,115,115,97,1,onethree,,,,,,,,,,,,,,,,,,,,,,,,,,,,,,,,,,,,,,,,,,,,,,,,,,,,,,,,,,,,,,,,,,,,,,,,,,,,,,,,,,,,,,,,,,,,,,,,,,,,,,,,,,,,,,,,,,,,,,,,,,,,,,,,,,,,,,,,,,,,,,,,,,,,,,,,,,,,,
,,,,,,615409afcfcc9627a0bf44c3,62c538e854f3a38dea76a905,2022-07-06_09h25.51.267,Colour_Asymmetry_Pilot,2022.1.3,Win32,59.88741167,62c50e9c1127f2cd403a315f,0,116,116,91,1,twofour,,,,,,,,,,,,,,,,,,,,,,,,,,,,,,,,,,,,,,,,,,,,,,,,,,,,,,,,,,,,,,,,,,,,,,,,,,,,,,,,,,,,,,,,,,,,,,,,,,,,,,,,,,,,,,,,,,,,,,,,,,,,,,,,,,,,,,,,,,,,,,,,,,,,,,,,,,,,,
,,,,,,615409afcfcc9627a0bf44c3,62c538e854f3a38dea76a905,2022-07-06_09h25.51.267,Colour_Asymmetry_Pilot,2022.1.3,Win32,59.88741167,62c50e9c1127f2cd403a315f,0,117,117,18,1,twoone,,,,,,,,,,,,,,,,,,,,,,,,,,,,,,,,,,,,,,,,,,,,,,,,,,,,,,,,,,,,,,,,,,,,,,,,,,,,,,,,,,,,,,,,,,,,,,,,,,,,,,,,,,,,,,,,,,,,,,,,,,,,,,,,,,,,,,,,,,,,,,,,,,,,,,,,,,,,,
,,,,,,615409afcfcc9627a0bf44c3,62c538e854f3a38dea76a905,2022-07-06_09h25.51.267,Colour_Asymmetry_Pilot,2022.1.3,Win32,59.88741167,62c50e9c1127f2cd403a315f,0,118,118,64,1,onetwo,,,,,,,,,,,,,,,,,,,,,,,,,,,,,,,,,,,,,,,,,,,,,,,,,,,,,,,,,,,,,,,,,,,,,,,,,,,,,,,,,,,,,,,,,,,,,,,,,,,,,,,,,,,,,,,,,,,,,,,,,,,,,,,,,,,,,,,,,,,,,,,,,,,,,,,,,,,,,
,,,,,,615409afcfcc9627a0bf44c3,62c538e854f3a38dea76a905,2022-07-06_09h25.51.267,Colour_Asymmetry_Pilot,2022.1.3,Win32,59.88741167,62c50e9c1127f2cd403a315f,0,119,119,101,1,threefour,,,,,,,,,,,,,,,,,,,,,,,,,,,,,,,,,,,,,,,,,,,,,,,,,,,,,,,,,,,,,,,,,,,,,,,,,,,,,,,,,,,,,,,,,,,,,,,,,,,,,,,,,,,,,,,,,,,,,,,,,,,,,,,,,,,,,,,,,,,,,,,,,,,,,,,,,,,,,
,,,,,,615409afcfcc9627a0bf44c3,62c538e854f3a38dea76a905,2022-07-06_09h25.51.267,Colour_Asymmetry_Pilot,2022.1.3,Win32,59.88741167,62c50e9c1127f2cd403a315f,0,120,120,41,1,onethree,,,,,,,,,,,,,,,,,,,,,,,,,,,,,,,,,,,,,,,,,,,,,,,,,,,,,,,,,,,,,,,,,,,,,,,,,,,,,,,,,,,,,,,,,,,,,,,,,,,,,,,,,,,,,,,,,,,,,,,,,,,,,,,,,,,,,,,,,,,,,,,,,,,,,,,,,,,,,
,,,,,,615409afcfcc9627a0bf44c3,62c538e854f3a38dea76a905,2022-07-06_09h25.51.267,Colour_Asymmetry_Pilot,2022.1.3,Win32,59.88741167,62c50e9c1127f2cd403a315f,0,121,121,104,1,onetwo,,,,,,,,,,,,,,,,,,,,,,,,,,,,,,,,,,,,,,,,,,,,,,,,,,,,,,,,,,,,,,,,,,,,,,,,,,,,,,,,,,,,,,,,,,,,,,,,,,,,,,,,,,,,,,,,,,,,,,,,,,,,,,,,,,,,,,,,,,,,,,,,,,,,,,,,,,,,,
,,,,,,615409afcfcc9627a0bf44c3,62c538e854f3a38dea76a905,2022-07-06_09h25.51.267,Colour_Asymmetry_Pilot,2022.1.3,Win32,59.88741167,62c50e9c1127f2cd403a315f,0,122,122,126,1,fourtwo,,,,,,,,,,,,,,,,,,,,,,,,,,,,,,,,,,,,,,,,,,,,,,,,,,,,,,,,,,,,,,,,,,,,,,,,,,,,,,,,,,,,,,,,,,,,,,,,,,,,,,,,,,,,,,,,,,,,,,,,,,,,,,,,,,,,,,,,,,,,,,,,,,,,,,,,,,,,,
,,,,,,615409afcfcc9627a0bf44c3,62c538e854f3a38dea76a905,2022-07-06_09h25.51.267,Colour_Asymmetry_Pilot,2022.1.3,Win32,59.88741167,62c50e9c1127f2cd403a315f,0,123,123,32,1,onetwo,,,,,,,,,,,,,,,,,,,,,,,,,,,,,,,,,,,,,,,,,,,,,,,,,,,,,,,,,,,,,,,,,,,,,,,,,,,,,,,,,,,,,,,,,,,,,,,,,,,,,,,,,,,,,,,,,,,,,,,,,,,,,,,,,,,,,,,,,,,,,,,,,,,,,,,,,,,,,
,,,,,,615409afcfcc9627a0bf44c3,62c538e854f3a38dea76a905,2022-07-06_09h25.51.267,Colour_Asymmetry_Pilot,2022.1.3,Win32,59.88741167,62c50e9c1127f2cd403a315f,0,124,124,138,1,twoone,,,,,,,,,,,,,,,,,,,,,,,,,,,,,,,,,,,,,,,,,,,,,,,,,,,,,,,,,,,,,,,,,,,,,,,,,,,,,,,,,,,,,,,,,,,,,,,,,,,,,,,,,,,,,,,,,,,,,,,,,,,,,,,,,,,,,,,,,,,,,,,,,,,,,,,,,,,,,
,,,,,,615409afcfcc9627a0bf44c3,62c538e854f3a38dea76a905,2022-07-06_09h25.51.267,Colour_Asymmetry_Pilot,2022.1.3,Win32,59.88741167,62c50e9c1127f2cd403a315f,0,125,125,52,1,threeone,,,,,,,,,,,,,,,,,,,,,,,,,,,,,,,,,,,,,,,,,,,,,,,,,,,,,,,,,,,,,,,,,,,,,,,,,,,,,,,,,,,,,,,,,,,,,,,,,,,,,,,,,,,,,,,,,,,,,,,,,,,,,,,,,,,,,,,,,,,,,,,,,,,,,,,,,,,,,
,,,,,,615409afcfcc9627a0bf44c3,62c538e854f3a38dea76a905,2022-07-06_09h25.51.267,Colour_Asymmetry_Pilot,2022.1.3,Win32,59.88741167,62c50e9c1127f2cd403a315f,0,126,126,160,1,onetwo,,,,,,,,,,,,,,,,,,,,,,,,,,,,,,,,,,,,,,,,,,,,,,,,,,,,,,,,,,,,,,,,,,,,,,,,,,,,,,,,,,,,,,,,,,,,,,,,,,,,,,,,,,,,,,,,,,,,,,,,,,,,,,,,,,,,,,,,,,,,,,,,,,,,,,,,,,,,,
,,,,,,615409afcfcc9627a0bf44c3,62c538e854f3a38dea76a905,2022-07-06_09h25.51.267,Colour_Asymmetry_Pilot,2022.1.3,Win32,59.88741167,62c50e9c1127f2cd403a315f,0,127,127,40,1,onetwo,,,,,,,,,,,,,,,,,,,,,,,,,,,,,,,,,,,,,,,,,,,,,,,,,,,,,,,,,,,,,,,,,,,,,,,,,,,,,,,,,,,,,,,,,,,,,,,,,,,,,,,,,,,,,,,,,,,,,,,,,,,,,,,,,,,,,,,,,,,,,,,,,,,,,,,,,,,,,
,,,,,,615409afcfcc9627a0bf44c3,62c538e854f3a38dea76a905,2022-07-06_09h25.51.267,Colour_Asymmetry_Pilot,2022.1.3,Win32,59.88741167,62c50e9c1127f2cd403a315f,0,128,128,57,1,onethree,,,,,,,,,,,,,,,,,,,,,,,,,,,,,,,,,,,,,,,,,,,,,,,,,,,,,,,,,,,,,,,,,,,,,,,,,,,,,,,,,,,,,,,,,,,,,,,,,,,,,,,,,,,,,,,,,,,,,,,,,,,,,,,,,,,,,,,,,,,,,,,,,,,,,,,,,,,,,
,,,,,,615409afcfcc9627a0bf44c3,62c538e854f3a38dea76a905,2022-07-06_09h25.51.267,Colour_Asymmetry_Pilot,2022.1.3,Win32,59.88741167,62c50e9c1127f2cd403a315f,0,129,129,84,1,threeone,,,,,,,,,,,,,,,,,,,,,,,,,,,,,,,,,,,,,,,,,,,,,,,,,,,,,,,,,,,,,,,,,,,,,,,,,,,,,,,,,,,,,,,,,,,,,,,,,,,,,,,,,,,,,,,,,,,,,,,,,,,,,,,,,,,,,,,,,,,,,,,,,,,,,,,,,,,,,
,,,,,,615409afcfcc9627a0bf44c3,62c538e854f3a38dea76a905,2022-07-06_09h25.51.267,Colour_Asymmetry_Pilot,2022.1.3,Win32,59.88741167,62c50e9c1127f2cd403a315f,0,130,130,51,1,twofour,,,,,,,,,,,,,,,,,,,,,,,,,,,,,,,,,,,,,,,,,,,,,,,,,,,,,,,,,,,,,,,,,,,,,,,,,,,,,,,,,,,,,,,,,,,,,,,,,,,,,,,,,,,,,,,,,,,,,,,,,,,,,,,,,,,,,,,,,,,,,,,,,,,,,,,,,,,,,
,,,,,,615409afcfcc9627a0bf44c3,62c538e854f3a38dea76a905,2022-07-06_09h25.51.267,Colour_Asymmetry_Pilot,2022.1.3,Win32,59.88741167,62c50e9c1127f2cd403a315f,0,131,131,158,1,fourtwo,,,,,,,,,,,,,,,,,,,,,,,,,,,,,,,,,,,,,,,,,,,,,,,,,,,,,,,,,,,,,,,,,,,,,,,,,,,,,,,,,,,,,,,,,,,,,,,,,,,,,,,,,,,,,,,,,,,,,,,,,,,,,,,,,,,,,,,,,,,,,,,,,,,,,,,,,,,,,
,,,,,,615409afcfcc9627a0bf44c3,62c538e854f3a38dea76a905,2022-07-06_09h25.51.267,Colour_Asymmetry_Pilot,2022.1.3,Win32,59.88741167,62c50e9c1127f2cd403a315f,0,132,132,13,1,threefour,,,,,,,,,,,,,,,,,,,,,,,,,,,,,,,,,,,,,,,,,,,,,,,,,,,,,,,,,,,,,,,,,,,,,,,,,,,,,,,,,,,,,,,,,,,,,,,,,,,,,,,,,,,,,,,,,,,,,,,,,,,,,,,,,,,,,,,,,,,,,,,,,,,,,,,,,,,,,
,,,,,,615409afcfcc9627a0bf44c3,62c538e854f3a38dea76a905,2022-07-06_09h25.51.267,Colour_Asymmetry_Pilot,2022.1.3,Win32,59.88741167,62c50e9c1127f2cd403a315f,0,133,133,81,1,onethree,,,,,,,,,,,,,,,,,,,,,,,,,,,,,,,,,,,,,,,,,,,,,,,,,,,,,,,,,,,,,,,,,,,,,,,,,,,,,,,,,,,,,,,,,,,,,,,,,,,,,,,,,,,,,,,,,,,,,,,,,,,,,,,,,,,,,,,,,,,,,,,,,,,,,,,,,,,,,
,,,,,,615409afcfcc9627a0bf44c3,62c538e854f3a38dea76a905,2022-07-06_09h25.51.267,Colour_Asymmetry_Pilot,2022.1.3,Win32,59.88741167,62c50e9c1127f2cd403a315f,0,134,134,63,1,fourthree,,,,,,,,,,,,,,,,,,,,,,,,,,,,,,,,,,,,,,,,,,,,,,,,,,,,,,,,,,,,,,,,,,,,,,,,,,,,,,,,,,,,,,,,,,,,,,,,,,,,,,,,,,,,,,,,,,,,,,,,,,,,,,,,,,,,,,,,,,,,,,,,,,,,,,,,,,,,,
,,,,,,615409afcfcc9627a0bf44c3,62c538e854f3a38dea76a905,2022-07-06_09h25.51.267,Colour_Asymmetry_Pilot,2022.1.3,Win32,59.88741167,62c50e9c1127f2cd403a315f,0,135,135,83,1,twofour,,,,,,,,,,,,,,,,,,,,,,,,,,,,,,,,,,,,,,,,,,,,,,,,,,,,,,,,,,,,,,,,,,,,,,,,,,,,,,,,,,,,,,,,,,,,,,,,,,,,,,,,,,,,,,,,,,,,,,,,,,,,,,,,,,,,,,,,,,,,,,,,,,,,,,,,,,,,,
,,,,,,615409afcfcc9627a0bf44c3,62c538e854f3a38dea76a905,2022-07-06_09h25.51.267,Colour_Asymmetry_Pilot,2022.1.3,Win32,59.88741167,62c50e9c1127f2cd403a315f,0,136,136,116,1,threeone,,,,,,,,,,,,,,,,,,,,,,,,,,,,,,,,,,,,,,,,,,,,,,,,,,,,,,,,,,,,,,,,,,,,,,,,,,,,,,,,,,,,,,,,,,,,,,,,,,,,,,,,,,,,,,,,,,,,,,,,,,,,,,,,,,,,,,,,,,,,,,,,,,,,,,,,,,,,,
,,,,,,615409afcfcc9627a0bf44c3,62c538e854f3a38dea76a905,2022-07-06_09h25.51.267,Colour_Asymmetry_Pilot,2022.1.3,Win32,59.88741167,62c50e9c1127f2cd403a315f,0,137,137,16,1,onetwo,,,,,,,,,,,,,,,,,,,,,,,,,,,,,,,,,,,,,,,,,,,,,,,,,,,,,,,,,,,,,,,,,,,,,,,,,,,,,,,,,,,,,,,,,,,,,,,,,,,,,,,,,,,,,,,,,,,,,,,,,,,,,,,,,,,,,,,,,,,,,,,,,,,,,,,,,,,,,
,,,,,,615409afcfcc9627a0bf44c3,62c538e854f3a38dea76a905,2022-07-06_09h25.51.267,Colour_Asymmetry_Pilot,2022.1.3,Win32,59.88741167,62c50e9c1127f2cd403a315f,0,138,138,71,1,fourthree,,,,,,,,,,,,,,,,,,,,,,,,,,,,,,,,,,,,,,,,,,,,,,,,,,,,,,,,,,,,,,,,,,,,,,,,,,,,,,,,,,,,,,,,,,,,,,,,,,,,,,,,,,,,,,,,,,,,,,,,,,,,,,,,,,,,,,,,,,,,,,,,,,,,,,,,,,,,,
,,,,,,615409afcfcc9627a0bf44c3,62c538e854f3a38dea76a905,2022-07-06_09h25.51.267,Colour_Asymmetry_Pilot,2022.1.3,Win32,59.88741167,62c50e9c1127f2cd403a315f,0,139,139,75,1,twofour,,,,,,,,,,,,,,,,,,,,,,,,,,,,,,,,,,,,,,,,,,,,,,,,,,,,,,,,,,,,,,,,,,,,,,,,,,,,,,,,,,,,,,,,,,,,,,,,,,,,,,,,,,,,,,,,,,,,,,,,,,,,,,,,,,,,,,,,,,,,,,,,,,,,,,,,,,,,,
,,,,,,615409afcfcc9627a0bf44c3,62c538e854f3a38dea76a905,2022-07-06_09h25.51.267,Colour_Asymmetry_Pilot,2022.1.3,Win32,59.88741167,62c50e9c1127f2cd403a315f,0,140,140,36,1,threeone,,,,,,,,,,,,,,,,,,,,,,,,,,,,,,,,,,,,,,,,,,,,,,,,,,,,,,,,,,,,,,,,,,,,,,,,,,,,,,,,,,,,,,,,,,,,,,,,,,,,,,,,,,,,,,,,,,,,,,,,,,,,,,,,,,,,,,,,,,,,,,,,,,,,,,,,,,,,,
,,,,,,615409afcfcc9627a0bf44c3,62c538e854f3a38dea76a905,2022-07-06_09h25.51.267,Colour_Asymmetry_Pilot,2022.1.3,Win32,59.88741167,62c50e9c1127f2cd403a315f,0,141,141,42,1,twoone,,,,,,,,,,,,,,,,,,,,,,,,,,,,,,,,,,,,,,,,,,,,,,,,,,,,,,,,,,,,,,,,,,,,,,,,,,,,,,,,,,,,,,,,,,,,,,,,,,,,,,,,,,,,,,,,,,,,,,,,,,,,,,,,,,,,,,,,,,,,,,,,,,,,,,,,,,,,,
,,,,,,615409afcfcc9627a0bf44c3,62c538e854f3a38dea76a905,2022-07-06_09h25.51.267,Colour_Asymmetry_Pilot,2022.1.3,Win32,59.88741167,62c50e9c1127f2cd403a315f,0,142,142,44,1,threeone,,,,,,,,,,,,,,,,,,,,,,,,,,,,,,,,,,,,,,,,,,,,,,,,,,,,,,,,,,,,,,,,,,,,,,,,,,,,,,,,,,,,,,,,,,,,,,,,,,,,,,,,,,,,,,,,,,,,,,,,,,,,,,,,,,,,,,,,,,,,,,,,,,,,,,,,,,,,,
,,,,,,615409afcfcc9627a0bf44c3,62c538e854f3a38dea76a905,2022-07-06_09h25.51.267,Colour_Asymmetry_Pilot,2022.1.3,Win32,59.88741167,62c50e9c1127f2cd403a315f,0,143,143,144,1,onetwo,,,,,,,,,,,,,,,,,,,,,,,,,,,,,,,,,,,,,,,,,,,,,,,,,,,,,,,,,,,,,,,,,,,,,,,,,,,,,,,,,,,,,,,,,,,,,,,,,,,,,,,,,,,,,,,,,,,,,,,,,,,,,,,,,,,,,,,,,,,,,,,,,,,,,,,,,,,,,
,,,,,,615409afcfcc9627a0bf44c3,62c538e854f3a38dea76a905,2022-07-06_09h25.51.267,Colour_Asymmetry_Pilot,2022.1.3,Win32,59.88741167,62c50e9c1127f2cd403a315f,0,144,144,115,1,twofour,,,,,,,,,,,,,,,,,,,,,,,,,,,,,,,,,,,,,,,,,,,,,,,,,,,,,,,,,,,,,,,,,,,,,,,,,,,,,,,,,,,,,,,,,,,,,,,,,,,,,,,,,,,,,,,,,,,,,,,,,,,,,,,,,,,,,,,,,,,,,,,,,,,,,,,,,,,,,
,,,,,,615409afcfcc9627a0bf44c3,62c538e854f3a38dea76a905,2022-07-06_09h25.51.267,Colour_Asymmetry_Pilot,2022.1.3,Win32,59.88741167,62c50e9c1127f2cd403a315f,0,145,145,58,1,twoone,,,,,,,,,,,,,,,,,,,,,,,,,,,,,,,,,,,,,,,,,,,,,,,,,,,,,,,,,,,,,,,,,,,,,,,,,,,,,,,,,,,,,,,,,,,,,,,,,,,,,,,,,,,,,,,,,,,,,,,,,,,,,,,,,,,,,,,,,,,,,,,,,,,,,,,,,,,,,
,,,,,,615409afcfcc9627a0bf44c3,62c538e854f3a38dea76a905,2022-07-06_09h25.51.267,Colour_Asymmetry_Pilot,2022.1.3,Win32,59.88741167,62c50e9c1127f2cd403a315f,0,146,146,87,1,fourthree,,,,,,,,,,,,,,,,,,,,,,,,,,,,,,,,,,,,,,,,,,,,,,,,,,,,,,,,,,,,,,,,,,,,,,,,,,,,,,,,,,,,,,,,,,,,,,,,,,,,,,,,,,,,,,,,,,,,,,,,,,,,,,,,,,,,,,,,,,,,,,,,,,,,,,,,,,,,,
,,,,,,615409afcfcc9627a0bf44c3,62c538e854f3a38dea76a905,2022-07-06_09h25.51.267,Colour_Asymmetry_Pilot,2022.1.3,Win32,59.88741167,62c50e9c1127f2cd403a315f,0,147,147,56,1,onetwo,,,,,,,,,,,,,,,,,,,,,,,,,,,,,,,,,,,,,,,,,,,,,,,,,,,,,,,,,,,,,,,,,,,,,,,,,,,,,,,,,,,,,,,,,,,,,,,,,,,,,,,,,,,,,,,,,,,,,,,,,,,,,,,,,,,,,,,,,,,,,,,,,,,,,,,,,,,,,
,,,,,,615409afcfcc9627a0bf44c3,62c538e854f3a38dea76a905,2022-07-06_09h25.51.267,Colour_Asymmetry_Pilot,2022.1.3,Win32,59.88741167,62c50e9c1127f2cd403a315f,0,148,148,93,1,threefour,,,,,,,,,,,,,,,,,,,,,,,,,,,,,,,,,,,,,,,,,,,,,,,,,,,,,,,,,,,,,,,,,,,,,,,,,,,,,,,,,,,,,,,,,,,,,,,,,,,,,,,,,,,,,,,,,,,,,,,,,,,,,,,,,,,,,,,,,,,,,,,,,,,,,,,,,,,,,
,,,,,,615409afcfcc9627a0bf44c3,62c538e854f3a38dea76a905,2022-07-06_09h25.51.267,Colour_Asymmetry_Pilot,2022.1.3,Win32,59.88741167,62c50e9c1127f2cd403a315f,0,149,149,6,1,fourtwo,,,,,,,,,,,,,,,,,,,,,,,,,,,,,,,,,,,,,,,,,,,,,,,,,,,,,,,,,,,,,,,,,,,,,,,,,,,,,,,,,,,,,,,,,,,,,,,,,,,,,,,,,,,,,,,,,,,,,,,,,,,,,,,,,,,,,,,,,,,,,,,,,,,,,,,,,,,,,
,,,,,,615409afcfcc9627a0bf44c3,62c538e854f3a38dea76a905,2022-07-06_09h25.51.267,Colour_Asymmetry_Pilot,2022.1.3,Win32,59.88741167,62c50e9c1127f2cd403a315f,0,150,150,146,1,twoone,,,,,,,,,,,,,,,,,,,,,,,,,,,,,,,,,,,,,,,,,,,,,,,,,,,,,,,,,,,,,,,,,,,,,,,,,,,,,,,,,,,,,,,,,,,,,,,,,,,,,,,,,,,,,,,,,,,,,,,,,,,,,,,,,,,,,,,,,,,,,,,,,,,,,,,,,,,,,
,,,,,,615409afcfcc9627a0bf44c3,62c538e854f3a38dea76a905,2022-07-06_09h25.51.267,Colour_Asymmetry_Pilot,2022.1.3,Win32,59.88741167,62c50e9c1127f2cd403a315f,0,151,151,103,1,fourthree,,,,,,,,,,,,,,,,,,,,,,,,,,,,,,,,,,,,,,,,,,,,,,,,,,,,,,,,,,,,,,,,,,,,,,,,,,,,,,,,,,,,,,,,,,,,,,,,,,,,,,,,,,,,,,,,,,,,,,,,,,,,,,,,,,,,,,,,,,,,,,,,,,,,,,,,,,,,,
,,,,,,615409afcfcc9627a0bf44c3,62c538e854f3a38dea76a905,2022-07-06_09h25.51.267,Colour_Asymmetry_Pilot,2022.1.3,Win32,59.88741167,62c50e9c1127f2cd403a315f,0,152,152,4,1,threeone,,,,,,,,,,,,,,,,,,,,,,,,,,,,,,,,,,,,,,,,,,,,,,,,,,,,,,,,,,,,,,,,,,,,,,,,,,,,,,,,,,,,,,,,,,,,,,,,,,,,,,,,,,,,,,,,,,,,,,,,,,,,,,,,,,,,,,,,,,,,,,,,,,,,,,,,,,,,,
,,,,,,615409afcfcc9627a0bf44c3,62c538e854f3a38dea76a905,2022-07-06_09h25.51.267,Colour_Asymmetry_Pilot,2022.1.3,Win32,59.88741167,62c50e9c1127f2cd403a315f,0,153,153,111,1,fourthree,,,,,,,,,,,,,,,,,,,,,,,,,,,,,,,,,,,,,,,,,,,,,,,,,,,,,,,,,,,,,,,,,,,,,,,,,,,,,,,,,,,,,,,,,,,,,,,,,,,,,,,,,,,,,,,,,,,,,,,,,,,,,,,,,,,,,,,,,,,,,,,,,,,,,,,,,,,,,
,,,,,,615409afcfcc9627a0bf44c3,62c538e854f3a38dea76a905,2022-07-06_09h25.51.267,Colour_Asymmetry_Pilot,2022.1.3,Win32,59.88741167,62c50e9c1127f2cd403a315f,0,154,154,157,1,threefour,,,,,,,,,,,,,,,,,,,,,,,,,,,,,,,,,,,,,,,,,,,,,,,,,,,,,,,,,,,,,,,,,,,,,,,,,,,,,,,,,,,,,,,,,,,,,,,,,,,,,,,,,,,,,,,,,,,,,,,,,,,,,,,,,,,,,,,,,,,,,,,,,,,,,,,,,,,,,
,,,,,,615409afcfcc9627a0bf44c3,62c538e854f3a38dea76a905,2022-07-06_09h25.51.267,Colour_Asymmetry_Pilot,2022.1.3,Win32,59.88741167,62c50e9c1127f2cd403a315f,0,155,155,55,1,fourthree,,,,,,,,,,,,,,,,,,,,,,,,,,,,,,,,,,,,,,,,,,,,,,,,,,,,,,,,,,,,,,,,,,,,,,,,,,,,,,,,,,,,,,,,,,,,,,,,,,,,,,,,,,,,,,,,,,,,,,,,,,,,,,,,,,,,,,,,,,,,,,,,,,,,,,,,,,,,,
,,,,,,615409afcfcc9627a0bf44c3,62c538e854f3a38dea76a905,2022-07-06_09h25.51.267,Colour_Asymmetry_Pilot,2022.1.3,Win32,59.88741167,62c50e9c1127f2cd403a315f,0,156,156,29,1,threefour,,,,,,,,,,,,,,,,,,,,,,,,,,,,,,,,,,,,,,,,,,,,,,,,,,,,,,,,,,,,,,,,,,,,,,,,,,,,,,,,,,,,,,,,,,,,,,,,,,,,,,,,,,,,,,,,,,,,,,,,,,,,,,,,,,,,,,,,,,,,,,,,,,,,,,,,,,,,,
,,,,,,615409afcfcc9627a0bf44c3,62c538e854f3a38dea76a905,2022-07-06_09h25.51.267,Colour_Asymmetry_Pilot,2022.1.3,Win32,59.88741167,62c50e9c1127f2cd403a315f,0,157,157,70,1,fourtwo,,,,,,,,,,,,,,,,,,,,,,,,,,,,,,,,,,,,,,,,,,,,,,,,,,,,,,,,,,,,,,,,,,,,,,,,,,,,,,,,,,,,,,,,,,,,,,,,,,,,,,,,,,,,,,,,,,,,,,,,,,,,,,,,,,,,,,,,,,,,,,,,,,,,,,,,,,,,,
,,,,,,615409afcfcc9627a0bf44c3,62c538e854f3a38dea76a905,2022-07-06_09h25.51.267,Colour_Asymmetry_Pilot,2022.1.3,Win32,59.88741167,62c50e9c1127f2cd403a315f,0,158,158,61,1,threefour,,,,,,,,,,,,,,,,,,,,,,,,,,,,,,,,,,,,,,,,,,,,,,,,,,,,,,,,,,,,,,,,,,,,,,,,,,,,,,,,,,,,,,,,,,,,,,,,,,,,,,,,,,,,,,,,,,,,,,,,,,,,,,,,,,,,,,,,,,,,,,,,,,,,,,,,,,,,,
,,,,,,615409afcfcc9627a0bf44c3,62c538e854f3a38dea76a905,2022-07-06_09h25.51.267,Colour_Asymmetry_Pilot,2022.1.3,Win32,59.88741167,62c50e9c1127f2cd403a315f,0,159,159,60,1,threeone,,,,,,,,,,,,,,,,,,,,,,,,,,,,,,,,,,,,,,,,,,,,,,,,,,,,,,,,,,,,,,,,,,,,,,,,,,,,,,,,,,,,,,,,,,,,,,,,,,,,,,,,,,,,,,,,,,,,,,,,,,,,,,,,,,,,,,,,,,,,,,,,,,,,,,,,,,,,,
,,,,,,615409afcfcc9627a0bf44c3,62c538e854f3a38dea76a905,2022-07-06_09h25.51.267,Colour_Asymmetry_Pilot,2022.1.3,Win32,59.88741167,62c50e9c1127f2cd403a315f,0,160,160,100,1,threeone,,,,,,,,,,,,,,,,,,,,,,,,,,,,,,,,,,,,,,,,,,,,,,,,,,,,,,,,,,,,,,,,,,,,,,,,,,,,,,,,,,,,,,,,,,,,,,,,,,,,,,,,,,,,,,,,,,,,,,,,,,,,,,,,,,,,,,,,,,,,,,,,,,,,,,,,,,,,,
,,,,,,615409afcfcc9627a0bf44c3,62c538e854f3a38dea76a905,2022-07-06_09h25.51.267,Colour_Asymmetry_Pilot,2022.1.3,Win32,59.88741167,62c50e9c1127f2cd403a315f,0,161,161,118,1,fourtwo,,,,,,,,,,,,,,,,,,,,,,,,,,,,,,,,,,,,,,,,,,,,,,,,,,,,,,,,,,,,,,,,,,,,,,,,,,,,,,,,,,,,,,,,,,,,,,,,,,,,,,,,,,,,,,,,,,,,,,,,,,,,,,,,,,,,,,,,,,,,,,,,,,,,,,,,,,,,,
,,,,,,615409afcfcc9627a0bf44c3,62c538e854f3a38dea76a905,2022-07-06_09h25.51.267,Colour_Asymmetry_Pilot,2022.1.3,Win32,59.88741167,62c50e9c1127f2cd403a315f,,,,,,,space,3.2671,space,77.3343,space,21.2892,space,12.3375,space,3.4533,space,4.391,"[-0.9766,-0.6472,0.07440000000000002]",twoone,"[-0.24719999999999998,-0.0354000000000001,0.3175999999999999]",-2,9.754,-122,-29,1,0,0,response5disk_5,5,0,1,0,0,rectangle_8,5,0,1,0,0,4,5,0,1,0,0,0,0,0,0,1,,,,,,,,,,,,,,,,,,,,,,,,,,,,,,,,,,,,,,,,,,,,,,,,,,,,,,,,,,,,,,,,,,,,,,,,,,,,,,,,,,,,,,,,,,,,,,,,,,,,,,,,,,,,,,,,
,,,,,,615409afcfcc9627a0bf44c3,62c538e854f3a38dea76a905,2022-07-06_09h25.51.267,Colour_Asymmetry_Pilot,2022.1.3,Win32,59.88741167,62c50e9c1127f2cd403a315f,,,,,,,,,,,,,,,,,,,"[-0.07459999999999989,0.12139999999999995,-0.9922]",twoone,"[-0.01980000000000004,-0.5138,-0.38039999999999996]",-4,4.0437,-41,87,1,0,0,response7disk_5,-3,-2,1,0,0,rectangle_8,-3,-2,1,0,0,4,-3,-2,1,0,0,1,0,1,0,1,,,,,,,,,,,,,,,,,,,,,,,,,,,,,,,,,,,,,,,,,,,,,,,,,,,,,,,,,,,,,,,,,,,,,,,,,,,,,,,,,,,,,,,,,,,,,,,,,,,,,,,,,,,,,,,,
,,,,,,615409afcfcc9627a0bf44c3,62c538e854f3a38dea76a905,2022-07-06_09h25.51.267,Colour_Asymmetry_Pilot,2022.1.3,Win32,59.88741167,62c50e9c1127f2cd403a315f,,,,,,,,,,,,,,,,,,,"[-0.8118,-0.8198,-0.5452]",twofour,"[-0.9688,-0.4902000000000001,-0.12159999999999993]",-1,5.3975,-57,-124,1,0,0,response5disk_5,-1,-3,1,0,0,rectangle_8,-1,-3,1,0,0,4,-1,-3,1,0,0,2,0,2,0,1,,,,,,,,,,,,,,,,,,,,,,,,,,,,,,,,,,,,,,,,,,,,,,,,,,,,,,,,,,,,,,,,,,,,,,,,,,,,,,,,,,,,,,,,,,,,,,,,,,,,,,,,,,,,,,,,
,,,,,,615409afcfcc9627a0bf44c3,62c538e854f3a38dea76a905,2022-07-06_09h25.51.267,Colour_Asymmetry_Pilot,2022.1.3,Win32,59.88741167,62c50e9c1127f2cd403a315f,,,,,,,,,,,,,,,,,,,"[-0.30200000000000005,0.14500000000000002,0.2784]",fourtwo,"[-0.5688,-0.08239999999999992,-0.1844]",-1,8.5658,-33,-84,1,0,0,response5disk_5,-4,-3,1,0,0,rectangle_8,53,117,1,0,0,4,-2,10,1,0,0,3,0,3,0,1,response1disk_7,7,rectangle_4,,,,,,,,,,,,,,,,,,,,,,,,,,,,,,,,,,,,,,,,,,,,,,,,,,,,,,,,,,,,,,,,,,,,,,,,,,,,,,,,,,,,,,,,,,,,,,,,,,,,,,,,,,,,,
,,,,,,615409afcfcc9627a0bf44c3,62c538e854f3a38dea76a905,2022-07-06_09h25.51.267,Colour_Asymmetry_Pilot,2022.1.3,Win32,59.88741167,62c50e9c1127f2cd403a315f,,,,,,,,,,,,,,,,,,,"[-0.9138,-0.5296000000000001,-0.5529999999999999]",threefour,"[0.7176,-0.906,-0.6864]",-4,3.1927,-48,102,1,0,0,response7disk_5,-5,-3,1,0,0,rectangle_8,41,77,1,0,0,4,-14,-9,1,0,0,4,0,4,0,1,response1disk_7,7,rectangle_4,,,,,,,,,,,,,,,,,,,,,,,,,,,,,,,,,,,,,,,,,,,,,,,,,,,,,,,,,,,,,,,,,,,,,,,,,,,,,,,,,,,,,,,,,,,,,,,,,,,,,,,,,,,,,
,,,,,,615409afcfcc9627a0bf44c3,62c538e854f3a38dea76a905,2022-07-06_09h25.51.267,Colour_Asymmetry_Pilot,2022.1.3,Win32,59.88741167,62c50e9c1127f2cd403a315f,,,,,,,,,,,,,,,,,,,"[0.8274000000000001,-0.5844,-0.9452]",onethree,"[-0.4902000000000001,0.2704,-0.45899999999999996]",-4,2.2428,-34,81,1,0,0,response7disk_5,-12,4,1,0,0,rectangle_8,-12,4,1,0,0,4,-12,4,1,0,0,5,0,5,0,1,,,,,,,,,,,,,,,,,,,,,,,,,,,,,,,,,,,,,,,,,,,,,,,,,,,,,,,,,,,,,,,,,,,,,,,,,,,,,,,,,,,,,,,,,,,,,,,,,,,,,,,,,,,,,,,,
,,,,,,615409afcfcc9627a0bf44c3,62c538e854f3a38dea76a905,2022-07-06_09h25.51.267,Colour_Asymmetry_Pilot,2022.1.3,Win32,59.88741167,62c50e9c1127f2cd403a315f,,,,,,,,,,,,,,,,,,,"[-0.4276,0.0038000000000000256,-0.3256]",threefour,"[0.04299999999999993,0.16060000000000008,-0.6628000000000001]",-2,3.9127,-117,-54,1,0,0,response5disk_5,-13,-5,1,0,0,rectangle_8,-13,-5,1,0,0,4,-13,-5,1,0,0,6,0,6,0,1,,,,,,,,,,,,,,,,,,,,,,,,,,,,,,,,,,,,,,,,,,,,,,,,,,,,,,,,,,,,,,,,,,,,,,,,,,,,,,,,,,,,,,,,,,,,,,,,,,,,,,,,,,,,,,,,
,,,,,,615409afcfcc9627a0bf44c3,62c538e854f3a38dea76a905,2022-07-06_09h25.51.267,Colour_Asymmetry_Pilot,2022.1.3,Win32,59.88741167,62c50e9c1127f2cd403a315f,,,,,,,,,,,,,,,,,,,,threeone,,-4,3.2408,,,,,,,,,,,,,,,,,,,,,,,,,,,,,,,,space,3.2912,"[-0.2942,-0.7648,-0.7492000000000001]","[0.7646000000000002,0.07440000000000002,0.2704]",-48,95,1,0,0,response7disk,-1,4,1,0,0,rectangle,-1,4,1,0,0,,1,0.0015,0,-1,4,1,0,0,0,0,0,116,1,35,second,,,,,,,,,,,,,,,,,,,,,,,,,,,,,,,,,,,,,,,,,,,,,,,,,,,,,,,,,,,,,,,,,,,,,,,,
,,,,,,615409afcfcc9627a0bf44c3,62c538e854f3a38dea76a905,2022-07-06_09h25.51.267,Colour_Asymmetry_Pilot,2022.1.3,Win32,59.88741167,62c50e9c1127f2cd403a315f,,,,,,,,,,,,,,,,,,,,fourthree,,-4,1.7061,,,,,,,,,,,,,,,,,,,,,,,,,,,,,,,,,,"[0.30180000000000007,-0.7884,-0.9844]","[-0.9296,-0.12959999999999994,-0.043199999999999905]",-37,71,1,0,0,response7disk,1,3,1,0,0,rectangle,1,3,1,0,0,,3,0.0009,0,1,3,1,0,0,0,1,1,37,1,37,first,,,,,,,,,,,,,,,,,,,,,,,,,,,,,,,,,,,,,,,,,,,,,,,,,,,,,,,,,,,,,,,,,,,,,,,,
,,,,,,615409afcfcc9627a0bf44c3,62c538e854f3a38dea76a905,2022-07-06_09h25.51.267,Colour_Asymmetry_Pilot,2022.1.3,Win32,59.88741167,62c50e9c1127f2cd403a315f,,,,,,,,,,,,,,,,,,,,fourthree,,-4,20.525,,,,,,,,,,,,,,,,,,,,,,,,,,,,,,,,,,"[0.9372,0.9450000000000001,0.8980000000000001]","[-0.9216,-0.5529999999999999,-0.3962]",-35,68,1,0,0,response7disk,-3,2,1,0,0,rectangle,-3,2,1,0,0,,2,0.0012,0,-3,2,1,0,0,0,2,2,81,1,0,second,,,,,,,,,,,,,,,,,,,,,,,,,,,,,,,,,,,,,,,,,,,,,,,,,,,,,,,,,,,,,,,,,,,,,,,,
,,,,,,615409afcfcc9627a0bf44c3,62c538e854f3a38dea76a905,2022-07-06_09h25.51.267,Colour_Asymmetry_Pilot,2022.1.3,Win32,59.88741167,62c50e9c1127f2cd403a315f,,,,,,,,,,,,,,,,,,,,threefour,,-4,15.5304,,,,,,,,,,,,,,,,,,,,,,,,,,,,,,,,,,"[0.7018,0.7802,-0.16079999999999994]","[0.2784,-0.31000000000000005,-0.5452]",-43,68,1,0,0,response7disk,-20,-3,1,0,0,rectangle,-20,-3,1,0,0,,1,0.0008,0,-20,-3,1,0,0,0,3,3,71,1,71,first,,,,,,,,,,,,,,,,,,,,,,,,,,,,,,,,,,,,,,,,,,,,,,,,,,,,,,,,,,,,,,,,,,,,,,,,
,,,,,,615409afcfcc9627a0bf44c3,62c538e854f3a38dea76a905,2022-07-06_09h25.51.267,Colour_Asymmetry_Pilot,2022.1.3,Win32,59.88741167,62c50e9c1127f2cd403a315f,,,,,,,,,,,,,,,,,,,,fourtwo,,-4,3.8448,,,,,,,,,,,,,,,,,,,,,,,,,,,,,,,,,,"[0.9686000000000001,0.5763999999999998,0.11359999999999992]","[-0.07459999999999989,0.12139999999999995,-0.9922]",-32,105,1,0,0,response7disk,1,6,1,0,0,rectangle,1,6,1,0,0,,1,0.0002,0,1,6,1,0,0,0,4,4,48,1,48,first,,,,,,,,,,,,,,,,,,,,,,,,,,,,,,,,,,,,,,,,,,,,,,,,,,,,,,,,,,,,,,,,,,,,,,,,
,,,,,,615409afcfcc9627a0bf44c3,62c538e854f3a38dea76a905,2022-07-06_09h25.51.267,Colour_Asymmetry_Pilot,2022.1.3,Win32,59.88741167,62c50e9c1127f2cd403a315f,,,,,,,,,,,,,,,,,,,,fourthree,,4,1.9359,,,,,,,,,,,,,,,,,,,,,,,,,,,,,,,,,,"[0.12939999999999996,-0.2864,0.3253999999999999]","[0.09799999999999986,-0.24719999999999998,0.15280000000000005]",51,80,1,0,0,response1disk,3,-8,1,0,0,rectangle,3,-8,1,0,0,,3,0.0012,0,3,-8,1,0,0,0,5,5,30,1,30,first,,,,,,,,,,,,,,,,,,,,,,,,,,,,,,,,,,,,,,,,,,,,,,,,,,,,,,,,,,,,,,,,,,,,,,,,
,,,,,,615409afcfcc9627a0bf44c3,62c538e854f3a38dea76a905,2022-07-06_09h25.51.267,Colour_Asymmetry_Pilot,2022.1.3,Win32,59.88741167,62c50e9c1127f2cd403a315f,,,,,,,,,,,,,,,,,,,,onethree,,-4,2.0729,,,,,,,,,,,,,,,,,,,,,,,,,,,,,,,,,,"[0.9213999999999998,0.6391999999999998,-0.9922]","[-0.6942,-0.7648,-0.12959999999999994]",-46,93,1,0,0,response7disk,1,1,1,0,0,rectangle,1,1,1,0,0,,1,0.001,0,1,1,1,0,0,0,6,6,24,1,24,first,,,,,,,,,,,,,,,,,,,,,,,,,,,,,,,,,,,,,,,,,,,,,,,,,,,,,,,,,,,,,,,,,,,,,,,,
,,,,,,615409afcfcc9627a0bf44c3,62c538e854f3a38dea76a905,2022-07-06_09h25.51.267,Colour_Asymmetry_Pilot,2022.1.3,Win32,59.88741167,62c50e9c1127f2cd403a315f,,,,,,,,,,,,,,,,,,,,twoone,,-2,1.8588,,,,,,,,,,,,,,,,,,,,,,,,,,,,,,,,,,"[-0.9766,-0.34920000000000007,0.2156]","[-0.6942,-0.7648,-0.12959999999999994]",-65,-29,1,0,0,response5disk,-2,-1,1,0,0,rectangle,-2,-1,1,0,0,,3,0.001,0,-2,-1,1,0,0,0,7,7,156,1,75,second,,,,,,,,,,,,,,,,,,,,,,,,,,,,,,,,,,,,,,,,,,,,,,,,,,,,,,,,,,,,,,,,,,,,,,,,
,,,,,,615409afcfcc9627a0bf44c3,62c538e854f3a38dea76a905,2022-07-06_09h25.51.267,Colour_Asymmetry_Pilot,2022.1.3,Win32,59.88741167,62c50e9c1127f2cd403a315f,,,,,,,,,,,,,,,,,,,,twofour,,-4,1.0168,,,,,,,,,,,,,,,,,,,,,,,,,,,,,,,,,,"[-0.6942,-0.7648,-0.12959999999999994]","[0.9213999999999998,0.6391999999999998,-0.9922]",-31,68,1,0,0,response7disk,-6,4,1,0,0,rectangle,-6,4,1,0,0,,2,0.0008,0,-6,4,1,0,0,0,8,8,105,1,24,second,,,,,,,,,,,,,,,,,,,,,,,,,,,,,,,,,,,,,,,,,,,,,,,,,,,,,,,,,,,,,,,,,,,,,,,,
,,,,,,615409afcfcc9627a0bf44c3,62c538e854f3a38dea76a905,2022-07-06_09h25.51.267,Colour_Asymmetry_Pilot,2022.1.3,Win32,59.88741167,62c50e9c1127f2cd403a315f,,,,,,,,,,,,,,,,,,,,twofour,,4,0.6509,,,,,,,,,,,,,,,,,,,,,,,,,,,,,,,,,,"[0.9372,0.9450000000000001,0.8980000000000001]","[0.9372,0.9450000000000001,0.8980000000000001]",35,92,1,0,0,response1disk,18,7,1,0,0,rectangle,18,7,1,0,0,,1,0.0012,0,18,7,1,0,0,0,9,9,4,1,4,first,,,,,,,,,,,,,,,,,,,,,,,,,,,,,,,,,,,,,,,,,,,,,,,,,,,,,,,,,,,,,,,,,,,,,,,,
,,,,,,615409afcfcc9627a0bf44c3,62c538e854f3a38dea76a905,2022-07-06_09h25.51.267,Colour_Asymmetry_Pilot,2022.1.3,Win32,59.88741167,62c50e9c1127f2cd403a315f,,,,,,,,,,,,,,,,,,,,twoone,,-4,1.7734,,,,,,,,,,,,,,,,,,,,,,,,,,,,,,,,,,"[0.9763999999999999,-0.1137999999999999,-0.6314]","[-0.10599999999999998,-0.15300000000000002,0.15280000000000005]",-25,93,1,0,0,response7disk,7,-7,1,0,0,rectangle,7,-7,1,0,0,,3,0.0009,0,7,-7,1,0,0,0,10,10,38,1,38,first,,,,,,,,,,,,,,,,,,,,,,,,,,,,,,,,,,,,,,,,,,,,,,,,,,,,,,,,,,,,,,,,,,,,,,,,
,,,,,,615409afcfcc9627a0bf44c3,62c538e854f3a38dea76a905,2022-07-06_09h25.51.267,Colour_Asymmetry_Pilot,2022.1.3,Win32,59.88741167,62c50e9c1127f2cd403a315f,,,,,,,,,,,,,,,,,,,,fourthree,,-4,0.6506,,,,,,,,,,,,,,,,,,,,,,,,,,,,,,,,,,"[0.09799999999999986,-0.24719999999999998,0.15280000000000005]","[-0.6706000000000001,-0.6157999999999999,-0.6786]",-40,84,1,0,0,response7disk,8,8,1,0,0,rectangle,8,8,1,0,0,,3,0.0002,0,8,8,1,0,0,0,11,11,135,1,54,second,,,,,,,,,,,,,,,,,,,,,,,,,,,,,,,,,,,,,,,,,,,,,,,,,,,,,,,,,,,,,,,,,,,,,,,,
,,,,,,615409afcfcc9627a0bf44c3,62c538e854f3a38dea76a905,2022-07-06_09h25.51.267,Colour_Asymmetry_Pilot,2022.1.3,Win32,59.88741167,62c50e9c1127f2cd403a315f,,,,,,,,,,,,,,,,,,,,twofour,,-4,0.4848,,,,,,,,,,,,,,,,,,,,,,,,,,,,,,,,,,"[0.05879999999999996,0.2784,0.5841999999999998]","[-0.06680000000000008,-0.45100000000000007,-0.906]",-50,85,1,0,0,response7disk,-1,15,1,0,0,rectangle,-1,15,1,0,0,,2,0.001,0,-1,15,1,0,0,0,12,12,60,1,60,first,,,,,,,,,,,,,,,,,,,,,,,,,,,,,,,,,,,,,,,,,,,,,,,,,,,,,,,,,,,,,,,,,,,,,,,,
,,,,,,615409afcfcc9627a0bf44c3,62c538e854f3a38dea76a905,2022-07-06_09h25.51.267,Colour_Asymmetry_Pilot,2022.1.3,Win32,59.88741167,62c50e9c1127f2cd403a315f,,,,,,,,,,,,,,,,,,,,twofour,,-4,1.106,,,,,,,,,,,,,,,,,,,,,,,,,,,,,,,,,,"[-0.10599999999999998,-0.15300000000000002,0.15280000000000005]","[0.9763999999999999,-0.1137999999999999,-0.6314]",-35,79,1,0,0,response7disk,-16,9,1,0,0,rectangle,-16,9,1,0,0,,3,0.0018,0,-16,9,1,0,0,0,13,13,119,1,38,second,,,,,,,,,,,,,,,,,,,,,,,,,,,,,,,,,,,,,,,,,,,,,,,,,,,,,,,,,,,,,,,,,,,,,,,,
,,,,,,615409afcfcc9627a0bf44c3,62c538e854f3a38dea76a905,2022-07-06_09h25.51.267,Colour_Asymmetry_Pilot,2022.1.3,Win32,59.88741167,62c50e9c1127f2cd403a315f,,,,,,,,,,,,,,,,,,,,onetwo,,-4,0.7409,,,,,,,,,,,,,,,,,,,,,,,,,,,,,,,,,,"[-0.8982,-0.37259999999999993,0.2784]","[-0.07459999999999989,0.12139999999999995,-0.9922]",-48,86,1,0,0,response7disk,13,-9,1,0,0,rectangle,13,-9,1,0,0,,3,0.0002,0,13,-9,1,0,0,0,14,14,120,1,39,second,,,,,,,,,,,,,,,,,,,,,,,,,,,,,,,,,,,,,,,,,,,,,,,,,,,,,,,,,,,,,,,,,,,,,,,,
,,,,,,615409afcfcc9627a0bf44c3,62c538e854f3a38dea76a905,2022-07-06_09h25.51.267,Colour_Asymmetry_Pilot,2022.1.3,Win32,59.88741167,62c50e9c1127f2cd403a315f,,,,,,,,,,,,,,,,,,,,threefour,,-1,2.1379,,,,,,,,,,,,,,,,,,,,,,,,,,,,,,,,,,"[-0.9688,-0.38039999999999996,-0.41979999999999995]","[-0.5688,-0.08239999999999992,-0.1844]",-53,-87,1,0,0,response5disk,-20,-21,1,0,0,rectangle,-20,-21,1,0,0,-1,3,0.0002,0,-20,-21,1,0,0,0,15,15,94,1,13,second,,,,,,,,,,,,,,,,,,,,,,,,,,,,,,,,,,,,,,,,,,,,,,,,,,,,,,,,,,,,,,,,,,,,,,,,
,,,,,,615409afcfcc9627a0bf44c3,62c538e854f3a38dea76a905,2022-07-06_09h25.51.267,Colour_Asymmetry_Pilot,2022.1.3,Win32,59.88741167,62c50e9c1127f2cd403a315f,,,,,,,,,,,,,,,,,,,,onethree,,-4,1.6699,,,,,,,,,,,,,,,,,,,,,,,,,,,,,,,,,,"[0.5528,0.7409999999999999,-0.71]","[0.9686000000000001,0.5763999999999998,0.11359999999999992]",-39,100,1,0,0,response7disk,4,10,1,0,0,rectangle,4,10,1,0,0,-1,3,0.0002,0,4,10,1,0,0,0,16,16,67,1,67,first,,,,,,,,,,,,,,,,,,,,,,,,,,,,,,,,,,,,,,,,,,,,,,,,,,,,,,,,,,,,,,,,,,,,,,,,
,,,,,,615409afcfcc9627a0bf44c3,62c538e854f3a38dea76a905,2022-07-06_09h25.51.267,Colour_Asymmetry_Pilot,2022.1.3,Win32,59.88741167,62c50e9c1127f2cd403a315f,,,,,,,,,,,,,,,,,,,,fourthree,,-1,1.0236,,,,,,,,,,,,,,,,,,,,,,,,,,,,,,,,,,"[-0.6942,-0.7648,-0.12959999999999994]","[-0.8118,-0.8198,-0.5452]",-39,-83,1,0,0,response5disk,-3,-4,1,0,0,rectangle,-3,-4,1,0,0,-1,2,0.0008,0,-3,-4,1,0,0,0,17,17,114,1,33,second,,,,,,,,,,,,,,,,,,,,,,,,,,,,,,,,,,,,,,,,,,,,,,,,,,,,,,,,,,,,,,,,,,,,,,,,
