trials.thisRepN,trials.thisTrialN,trials.thisN,trials.thisIndex,trials.ran,Colourcodes,participant,session,date,expName,psychopyVersion,OS,frameRate,study_id,trials_4.thisRepN,trials_4.thisTrialN,trials_4.thisN,trials_4.thisIndex,trials_4.ran,StimulusPos,key_resp.keys,key_resp.rt,key_resp_2.keys,key_resp_2.rt,key_resp_15.keys,key_resp_15.rt,key_resp_17.keys,key_resp_17.rt,key_resp_9.keys,key_resp_9.rt,key_resp_10.keys,key_resp_10.rt,Circle1_col,Ecc,Circle2_col,similarity,response_time,mouse_5.x,mouse_5.y,mouse_5.leftButton,mouse_5.midButton,mouse_5.rightButton,mouse_5.clicked_name,mouse_10.x,mouse_10.y,mouse_10.leftButton,mouse_10.midButton,mouse_10.rightButton,mouse_10.clicked_name,mouse_7.x,mouse_7.y,mouse_7.leftButton,mouse_7.midButton,mouse_7.rightButton,mouse_7.clicked_name,catchprac,catchnumberprac,mouse_6.x,mouse_6.y,mouse_6.leftButton,mouse_6.midButton,mouse_6.rightButton,mouse_6.clicked_name,duringprac.thisRepN,duringprac.thisTrialN,duringprac.thisN,duringprac.thisIndex,duringprac.ran,key_resp_22.keys,key_resp_22.rt,Circle1_colour,Circle2_colour,mouse.x,mouse.y,mouse.leftButton,mouse.midButton,mouse.rightButton,mouse.clicked_name,mouse_2.x,mouse_2.y,mouse_2.leftButton,mouse_2.midButton,mouse_2.rightButton,mouse_2.clicked_name,mouse_3.x,mouse_3.y,mouse_3.leftButton,mouse_3.midButton,mouse_3.rightButton,catchresponse,catchnumber,response_time_catch,Catch,mouse_11.x,mouse_11.y,mouse_11.leftButton,mouse_11.midButton,mouse_11.rightButton,trials_2.thisRepN,trials_2.thisTrialN,trials_2.thisN,trials_2.thisIndex,trials_2.ran,Colourpair,Temporder,mouse_3.clicked_name,mouse_11.clicked_name,trials_3.thisRepN,trials_3.thisTrialN,trials_3.thisN,trials_3.thisIndex,trials_3.ran,key_resp_instr_Ishi.keys,key_resp_instr_Ishi.rt,Ishi_trial_keyresp.keys,Ishi_textbox.text,Ishi_mouse.x,Ishi_mouse.y,Ishi_mouse.leftButton,Ishi_mouse.midButton,Ishi_mouse.rightButton,Ishi_mouse.clicked_name,Ishi_loop.thisRepN,Ishi_loop.thisTrialN,Ishi_loop.thisN,Ishi_loop.thisIndex,Ishi_loop.ran,imageaddress,textbox.text,mouse_4.x,mouse_4.y,mouse_4.leftButton,mouse_4.midButton,mouse_4.rightButton,mouse_4.clicked_name,textbox_2.text,mouse_8.x,mouse_8.y,mouse_8.leftButton,mouse_8.midButton,mouse_8.rightButton,mouse_8.clicked_name,textbox_3.text,mouse_9.x,mouse_9.y,mouse_9.leftButton,mouse_9.midButton,mouse_9.rightButton,mouse_9.clicked_name,textbox_4.text,mouse_12.x,mouse_12.y,mouse_12.leftButton,mouse_12.midButton,mouse_12.rightButton,mouse_12.clicked_name,textbox_5.text,mouse_13.x,mouse_13.y,mouse_13.leftButton,mouse_13.midButton,mouse_13.rightButton,mouse_13.clicked_name,textbox_6.text,mouse_14.x,mouse_14.y,mouse_14.leftButton,mouse_14.midButton,mouse_14.rightButton,mouse_14.clicked_name,textbox_7.text,mouse_15.x,mouse_15.y,mouse_15.leftButton,mouse_15.midButton,mouse_15.rightButton,mouse_15.clicked_name
0,0,0,17,1,,6132b4b1f9e3fcb24598b43f,62c539b3710891b46175a7c9,2022-07-06_08h31.05.013,Colour_Asymmetry_Pilot,2022.1.3,Win32,164.5548791,62c50e9c1127f2cd403a315f,,,,,,,,,,,,,,,,,,,,,,,,,,,,,,,,,,,,,,,,,,,,,,,,,,,,,,,,,,,,,,,,,,,,,,,,,,,,,,,,,,,,,,,,,,,,,,,,,,,,,,,,,,,,,,,,,,,,,,,,,,,,,,,,,,,,,,,,,,,,,,,,,,,,,,,,,,,,,,,,,,,
0,1,1,21,1,,6132b4b1f9e3fcb24598b43f,62c539b3710891b46175a7c9,2022-07-06_08h31.05.013,Colour_Asymmetry_Pilot,2022.1.3,Win32,164.5548791,62c50e9c1127f2cd403a315f,,,,,,,,,,,,,,,,,,,,,,,,,,,,,,,,,,,,,,,,,,,,,,,,,,,,,,,,,,,,,,,,,,,,,,,,,,,,,,,,,,,,,,,,,,,,,,,,,,,,,,,,,,,,,,,,,,,,,,,,,,,,,,,,,,,,,,,,,,,,,,,,,,,,,,,,,,,,,,,,,,,
0,2,2,92,1,,6132b4b1f9e3fcb24598b43f,62c539b3710891b46175a7c9,2022-07-06_08h31.05.013,Colour_Asymmetry_Pilot,2022.1.3,Win32,164.5548791,62c50e9c1127f2cd403a315f,,,,,,,,,,,,,,,,,,,,,,,,,,,,,,,,,,,,,,,,,,,,,,,,,,,,,,,,,,,,,,,,,,,,,,,,,,,,,,,,,,,,,,,,,,,,,,,,,,,,,,,,,,,,,,,,,,,,,,,,,,,,,,,,,,,,,,,,,,,,,,,,,,,,,,,,,,,,,,,,,,,
0,3,3,63,1,,6132b4b1f9e3fcb24598b43f,62c539b3710891b46175a7c9,2022-07-06_08h31.05.013,Colour_Asymmetry_Pilot,2022.1.3,Win32,164.5548791,62c50e9c1127f2cd403a315f,,,,,,,,,,,,,,,,,,,,,,,,,,,,,,,,,,,,,,,,,,,,,,,,,,,,,,,,,,,,,,,,,,,,,,,,,,,,,,,,,,,,,,,,,,,,,,,,,,,,,,,,,,,,,,,,,,,,,,,,,,,,,,,,,,,,,,,,,,,,,,,,,,,,,,,,,,,,,,,,,,,
0,4,4,30,1,,6132b4b1f9e3fcb24598b43f,62c539b3710891b46175a7c9,2022-07-06_08h31.05.013,Colour_Asymmetry_Pilot,2022.1.3,Win32,164.5548791,62c50e9c1127f2cd403a315f,,,,,,,,,,,,,,,,,,,,,,,,,,,,,,,,,,,,,,,,,,,,,,,,,,,,,,,,,,,,,,,,,,,,,,,,,,,,,,,,,,,,,,,,,,,,,,,,,,,,,,,,,,,,,,,,,,,,,,,,,,,,,,,,,,,,,,,,,,,,,,,,,,,,,,,,,,,,,,,,,,,
0,5,5,26,1,,6132b4b1f9e3fcb24598b43f,62c539b3710891b46175a7c9,2022-07-06_08h31.05.013,Colour_Asymmetry_Pilot,2022.1.3,Win32,164.5548791,62c50e9c1127f2cd403a315f,,,,,,,,,,,,,,,,,,,,,,,,,,,,,,,,,,,,,,,,,,,,,,,,,,,,,,,,,,,,,,,,,,,,,,,,,,,,,,,,,,,,,,,,,,,,,,,,,,,,,,,,,,,,,,,,,,,,,,,,,,,,,,,,,,,,,,,,,,,,,,,,,,,,,,,,,,,,,,,,,,,
0,6,6,56,1,,6132b4b1f9e3fcb24598b43f,62c539b3710891b46175a7c9,2022-07-06_08h31.05.013,Colour_Asymmetry_Pilot,2022.1.3,Win32,164.5548791,62c50e9c1127f2cd403a315f,,,,,,,,,,,,,,,,,,,,,,,,,,,,,,,,,,,,,,,,,,,,,,,,,,,,,,,,,,,,,,,,,,,,,,,,,,,,,,,,,,,,,,,,,,,,,,,,,,,,,,,,,,,,,,,,,,,,,,,,,,,,,,,,,,,,,,,,,,,,,,,,,,,,,,,,,,,,,,,,,,,
0,7,7,62,1,,6132b4b1f9e3fcb24598b43f,62c539b3710891b46175a7c9,2022-07-06_08h31.05.013,Colour_Asymmetry_Pilot,2022.1.3,Win32,164.5548791,62c50e9c1127f2cd403a315f,,,,,,,,,,,,,,,,,,,,,,,,,,,,,,,,,,,,,,,,,,,,,,,,,,,,,,,,,,,,,,,,,,,,,,,,,,,,,,,,,,,,,,,,,,,,,,,,,,,,,,,,,,,,,,,,,,,,,,,,,,,,,,,,,,,,,,,,,,,,,,,,,,,,,,,,,,,,,,,,,,,
0,8,8,16,1,,6132b4b1f9e3fcb24598b43f,62c539b3710891b46175a7c9,2022-07-06_08h31.05.013,Colour_Asymmetry_Pilot,2022.1.3,Win32,164.5548791,62c50e9c1127f2cd403a315f,,,,,,,,,,,,,,,,,,,,,,,,,,,,,,,,,,,,,,,,,,,,,,,,,,,,,,,,,,,,,,,,,,,,,,,,,,,,,,,,,,,,,,,,,,,,,,,,,,,,,,,,,,,,,,,,,,,,,,,,,,,,,,,,,,,,,,,,,,,,,,,,,,,,,,,,,,,,,,,,,,,
0,9,9,68,1,,6132b4b1f9e3fcb24598b43f,62c539b3710891b46175a7c9,2022-07-06_08h31.05.013,Colour_Asymmetry_Pilot,2022.1.3,Win32,164.5548791,62c50e9c1127f2cd403a315f,,,,,,,,,,,,,,,,,,,,,,,,,,,,,,,,,,,,,,,,,,,,,,,,,,,,,,,,,,,,,,,,,,,,,,,,,,,,,,,,,,,,,,,,,,,,,,,,,,,,,,,,,,,,,,,,,,,,,,,,,,,,,,,,,,,,,,,,,,,,,,,,,,,,,,,,,,,,,,,,,,,
0,10,10,51,1,,6132b4b1f9e3fcb24598b43f,62c539b3710891b46175a7c9,2022-07-06_08h31.05.013,Colour_Asymmetry_Pilot,2022.1.3,Win32,164.5548791,62c50e9c1127f2cd403a315f,,,,,,,,,,,,,,,,,,,,,,,,,,,,,,,,,,,,,,,,,,,,,,,,,,,,,,,,,,,,,,,,,,,,,,,,,,,,,,,,,,,,,,,,,,,,,,,,,,,,,,,,,,,,,,,,,,,,,,,,,,,,,,,,,,,,,,,,,,,,,,,,,,,,,,,,,,,,,,,,,,,
0,11,11,79,1,,6132b4b1f9e3fcb24598b43f,62c539b3710891b46175a7c9,2022-07-06_08h31.05.013,Colour_Asymmetry_Pilot,2022.1.3,Win32,164.5548791,62c50e9c1127f2cd403a315f,,,,,,,,,,,,,,,,,,,,,,,,,,,,,,,,,,,,,,,,,,,,,,,,,,,,,,,,,,,,,,,,,,,,,,,,,,,,,,,,,,,,,,,,,,,,,,,,,,,,,,,,,,,,,,,,,,,,,,,,,,,,,,,,,,,,,,,,,,,,,,,,,,,,,,,,,,,,,,,,,,,
0,12,12,12,1,,6132b4b1f9e3fcb24598b43f,62c539b3710891b46175a7c9,2022-07-06_08h31.05.013,Colour_Asymmetry_Pilot,2022.1.3,Win32,164.5548791,62c50e9c1127f2cd403a315f,,,,,,,,,,,,,,,,,,,,,,,,,,,,,,,,,,,,,,,,,,,,,,,,,,,,,,,,,,,,,,,,,,,,,,,,,,,,,,,,,,,,,,,,,,,,,,,,,,,,,,,,,,,,,,,,,,,,,,,,,,,,,,,,,,,,,,,,,,,,,,,,,,,,,,,,,,,,,,,,,,,
0,13,13,91,1,,6132b4b1f9e3fcb24598b43f,62c539b3710891b46175a7c9,2022-07-06_08h31.05.013,Colour_Asymmetry_Pilot,2022.1.3,Win32,164.5548791,62c50e9c1127f2cd403a315f,,,,,,,,,,,,,,,,,,,,,,,,,,,,,,,,,,,,,,,,,,,,,,,,,,,,,,,,,,,,,,,,,,,,,,,,,,,,,,,,,,,,,,,,,,,,,,,,,,,,,,,,,,,,,,,,,,,,,,,,,,,,,,,,,,,,,,,,,,,,,,,,,,,,,,,,,,,,,,,,,,,
0,14,14,8,1,,6132b4b1f9e3fcb24598b43f,62c539b3710891b46175a7c9,2022-07-06_08h31.05.013,Colour_Asymmetry_Pilot,2022.1.3,Win32,164.5548791,62c50e9c1127f2cd403a315f,,,,,,,,,,,,,,,,,,,,,,,,,,,,,,,,,,,,,,,,,,,,,,,,,,,,,,,,,,,,,,,,,,,,,,,,,,,,,,,,,,,,,,,,,,,,,,,,,,,,,,,,,,,,,,,,,,,,,,,,,,,,,,,,,,,,,,,,,,,,,,,,,,,,,,,,,,,,,,,,,,,
0,15,15,90,1,,6132b4b1f9e3fcb24598b43f,62c539b3710891b46175a7c9,2022-07-06_08h31.05.013,Colour_Asymmetry_Pilot,2022.1.3,Win32,164.5548791,62c50e9c1127f2cd403a315f,,,,,,,,,,,,,,,,,,,,,,,,,,,,,,,,,,,,,,,,,,,,,,,,,,,,,,,,,,,,,,,,,,,,,,,,,,,,,,,,,,,,,,,,,,,,,,,,,,,,,,,,,,,,,,,,,,,,,,,,,,,,,,,,,,,,,,,,,,,,,,,,,,,,,,,,,,,,,,,,,,,
0,16,16,71,1,,6132b4b1f9e3fcb24598b43f,62c539b3710891b46175a7c9,2022-07-06_08h31.05.013,Colour_Asymmetry_Pilot,2022.1.3,Win32,164.5548791,62c50e9c1127f2cd403a315f,,,,,,,,,,,,,,,,,,,,,,,,,,,,,,,,,,,,,,,,,,,,,,,,,,,,,,,,,,,,,,,,,,,,,,,,,,,,,,,,,,,,,,,,,,,,,,,,,,,,,,,,,,,,,,,,,,,,,,,,,,,,,,,,,,,,,,,,,,,,,,,,,,,,,,,,,,,,,,,,,,,
0,17,17,25,1,,6132b4b1f9e3fcb24598b43f,62c539b3710891b46175a7c9,2022-07-06_08h31.05.013,Colour_Asymmetry_Pilot,2022.1.3,Win32,164.5548791,62c50e9c1127f2cd403a315f,,,,,,,,,,,,,,,,,,,,,,,,,,,,,,,,,,,,,,,,,,,,,,,,,,,,,,,,,,,,,,,,,,,,,,,,,,,,,,,,,,,,,,,,,,,,,,,,,,,,,,,,,,,,,,,,,,,,,,,,,,,,,,,,,,,,,,,,,,,,,,,,,,,,,,,,,,,,,,,,,,,
0,18,18,28,1,,6132b4b1f9e3fcb24598b43f,62c539b3710891b46175a7c9,2022-07-06_08h31.05.013,Colour_Asymmetry_Pilot,2022.1.3,Win32,164.5548791,62c50e9c1127f2cd403a315f,,,,,,,,,,,,,,,,,,,,,,,,,,,,,,,,,,,,,,,,,,,,,,,,,,,,,,,,,,,,,,,,,,,,,,,,,,,,,,,,,,,,,,,,,,,,,,,,,,,,,,,,,,,,,,,,,,,,,,,,,,,,,,,,,,,,,,,,,,,,,,,,,,,,,,,,,,,,,,,,,,,
0,19,19,65,1,,6132b4b1f9e3fcb24598b43f,62c539b3710891b46175a7c9,2022-07-06_08h31.05.013,Colour_Asymmetry_Pilot,2022.1.3,Win32,164.5548791,62c50e9c1127f2cd403a315f,,,,,,,,,,,,,,,,,,,,,,,,,,,,,,,,,,,,,,,,,,,,,,,,,,,,,,,,,,,,,,,,,,,,,,,,,,,,,,,,,,,,,,,,,,,,,,,,,,,,,,,,,,,,,,,,,,,,,,,,,,,,,,,,,,,,,,,,,,,,,,,,,,,,,,,,,,,,,,,,,,,
0,20,20,6,1,,6132b4b1f9e3fcb24598b43f,62c539b3710891b46175a7c9,2022-07-06_08h31.05.013,Colour_Asymmetry_Pilot,2022.1.3,Win32,164.5548791,62c50e9c1127f2cd403a315f,,,,,,,,,,,,,,,,,,,,,,,,,,,,,,,,,,,,,,,,,,,,,,,,,,,,,,,,,,,,,,,,,,,,,,,,,,,,,,,,,,,,,,,,,,,,,,,,,,,,,,,,,,,,,,,,,,,,,,,,,,,,,,,,,,,,,,,,,,,,,,,,,,,,,,,,,,,,,,,,,,,
0,21,21,82,1,,6132b4b1f9e3fcb24598b43f,62c539b3710891b46175a7c9,2022-07-06_08h31.05.013,Colour_Asymmetry_Pilot,2022.1.3,Win32,164.5548791,62c50e9c1127f2cd403a315f,,,,,,,,,,,,,,,,,,,,,,,,,,,,,,,,,,,,,,,,,,,,,,,,,,,,,,,,,,,,,,,,,,,,,,,,,,,,,,,,,,,,,,,,,,,,,,,,,,,,,,,,,,,,,,,,,,,,,,,,,,,,,,,,,,,,,,,,,,,,,,,,,,,,,,,,,,,,,,,,,,,
0,22,22,7,1,,6132b4b1f9e3fcb24598b43f,62c539b3710891b46175a7c9,2022-07-06_08h31.05.013,Colour_Asymmetry_Pilot,2022.1.3,Win32,164.5548791,62c50e9c1127f2cd403a315f,,,,,,,,,,,,,,,,,,,,,,,,,,,,,,,,,,,,,,,,,,,,,,,,,,,,,,,,,,,,,,,,,,,,,,,,,,,,,,,,,,,,,,,,,,,,,,,,,,,,,,,,,,,,,,,,,,,,,,,,,,,,,,,,,,,,,,,,,,,,,,,,,,,,,,,,,,,,,,,,,,,
0,23,23,73,1,,6132b4b1f9e3fcb24598b43f,62c539b3710891b46175a7c9,2022-07-06_08h31.05.013,Colour_Asymmetry_Pilot,2022.1.3,Win32,164.5548791,62c50e9c1127f2cd403a315f,,,,,,,,,,,,,,,,,,,,,,,,,,,,,,,,,,,,,,,,,,,,,,,,,,,,,,,,,,,,,,,,,,,,,,,,,,,,,,,,,,,,,,,,,,,,,,,,,,,,,,,,,,,,,,,,,,,,,,,,,,,,,,,,,,,,,,,,,,,,,,,,,,,,,,,,,,,,,,,,,,,
0,24,24,59,1,,6132b4b1f9e3fcb24598b43f,62c539b3710891b46175a7c9,2022-07-06_08h31.05.013,Colour_Asymmetry_Pilot,2022.1.3,Win32,164.5548791,62c50e9c1127f2cd403a315f,,,,,,,,,,,,,,,,,,,,,,,,,,,,,,,,,,,,,,,,,,,,,,,,,,,,,,,,,,,,,,,,,,,,,,,,,,,,,,,,,,,,,,,,,,,,,,,,,,,,,,,,,,,,,,,,,,,,,,,,,,,,,,,,,,,,,,,,,,,,,,,,,,,,,,,,,,,,,,,,,,,
0,25,25,54,1,,6132b4b1f9e3fcb24598b43f,62c539b3710891b46175a7c9,2022-07-06_08h31.05.013,Colour_Asymmetry_Pilot,2022.1.3,Win32,164.5548791,62c50e9c1127f2cd403a315f,,,,,,,,,,,,,,,,,,,,,,,,,,,,,,,,,,,,,,,,,,,,,,,,,,,,,,,,,,,,,,,,,,,,,,,,,,,,,,,,,,,,,,,,,,,,,,,,,,,,,,,,,,,,,,,,,,,,,,,,,,,,,,,,,,,,,,,,,,,,,,,,,,,,,,,,,,,,,,,,,,,
0,26,26,0,1,,6132b4b1f9e3fcb24598b43f,62c539b3710891b46175a7c9,2022-07-06_08h31.05.013,Colour_Asymmetry_Pilot,2022.1.3,Win32,164.5548791,62c50e9c1127f2cd403a315f,,,,,,,,,,,,,,,,,,,,,,,,,,,,,,,,,,,,,,,,,,,,,,,,,,,,,,,,,,,,,,,,,,,,,,,,,,,,,,,,,,,,,,,,,,,,,,,,,,,,,,,,,,,,,,,,,,,,,,,,,,,,,,,,,,,,,,,,,,,,,,,,,,,,,,,,,,,,,,,,,,,
0,27,27,77,1,,6132b4b1f9e3fcb24598b43f,62c539b3710891b46175a7c9,2022-07-06_08h31.05.013,Colour_Asymmetry_Pilot,2022.1.3,Win32,164.5548791,62c50e9c1127f2cd403a315f,,,,,,,,,,,,,,,,,,,,,,,,,,,,,,,,,,,,,,,,,,,,,,,,,,,,,,,,,,,,,,,,,,,,,,,,,,,,,,,,,,,,,,,,,,,,,,,,,,,,,,,,,,,,,,,,,,,,,,,,,,,,,,,,,,,,,,,,,,,,,,,,,,,,,,,,,,,,,,,,,,,
0,28,28,70,1,,6132b4b1f9e3fcb24598b43f,62c539b3710891b46175a7c9,2022-07-06_08h31.05.013,Colour_Asymmetry_Pilot,2022.1.3,Win32,164.5548791,62c50e9c1127f2cd403a315f,,,,,,,,,,,,,,,,,,,,,,,,,,,,,,,,,,,,,,,,,,,,,,,,,,,,,,,,,,,,,,,,,,,,,,,,,,,,,,,,,,,,,,,,,,,,,,,,,,,,,,,,,,,,,,,,,,,,,,,,,,,,,,,,,,,,,,,,,,,,,,,,,,,,,,,,,,,,,,,,,,,
0,29,29,18,1,,6132b4b1f9e3fcb24598b43f,62c539b3710891b46175a7c9,2022-07-06_08h31.05.013,Colour_Asymmetry_Pilot,2022.1.3,Win32,164.5548791,62c50e9c1127f2cd403a315f,,,,,,,,,,,,,,,,,,,,,,,,,,,,,,,,,,,,,,,,,,,,,,,,,,,,,,,,,,,,,,,,,,,,,,,,,,,,,,,,,,,,,,,,,,,,,,,,,,,,,,,,,,,,,,,,,,,,,,,,,,,,,,,,,,,,,,,,,,,,,,,,,,,,,,,,,,,,,,,,,,,
0,30,30,48,1,,6132b4b1f9e3fcb24598b43f,62c539b3710891b46175a7c9,2022-07-06_08h31.05.013,Colour_Asymmetry_Pilot,2022.1.3,Win32,164.5548791,62c50e9c1127f2cd403a315f,,,,,,,,,,,,,,,,,,,,,,,,,,,,,,,,,,,,,,,,,,,,,,,,,,,,,,,,,,,,,,,,,,,,,,,,,,,,,,,,,,,,,,,,,,,,,,,,,,,,,,,,,,,,,,,,,,,,,,,,,,,,,,,,,,,,,,,,,,,,,,,,,,,,,,,,,,,,,,,,,,,
0,31,31,85,1,,6132b4b1f9e3fcb24598b43f,62c539b3710891b46175a7c9,2022-07-06_08h31.05.013,Colour_Asymmetry_Pilot,2022.1.3,Win32,164.5548791,62c50e9c1127f2cd403a315f,,,,,,,,,,,,,,,,,,,,,,,,,,,,,,,,,,,,,,,,,,,,,,,,,,,,,,,,,,,,,,,,,,,,,,,,,,,,,,,,,,,,,,,,,,,,,,,,,,,,,,,,,,,,,,,,,,,,,,,,,,,,,,,,,,,,,,,,,,,,,,,,,,,,,,,,,,,,,,,,,,,
0,32,32,31,1,,6132b4b1f9e3fcb24598b43f,62c539b3710891b46175a7c9,2022-07-06_08h31.05.013,Colour_Asymmetry_Pilot,2022.1.3,Win32,164.5548791,62c50e9c1127f2cd403a315f,,,,,,,,,,,,,,,,,,,,,,,,,,,,,,,,,,,,,,,,,,,,,,,,,,,,,,,,,,,,,,,,,,,,,,,,,,,,,,,,,,,,,,,,,,,,,,,,,,,,,,,,,,,,,,,,,,,,,,,,,,,,,,,,,,,,,,,,,,,,,,,,,,,,,,,,,,,,,,,,,,,
0,33,33,46,1,,6132b4b1f9e3fcb24598b43f,62c539b3710891b46175a7c9,2022-07-06_08h31.05.013,Colour_Asymmetry_Pilot,2022.1.3,Win32,164.5548791,62c50e9c1127f2cd403a315f,,,,,,,,,,,,,,,,,,,,,,,,,,,,,,,,,,,,,,,,,,,,,,,,,,,,,,,,,,,,,,,,,,,,,,,,,,,,,,,,,,,,,,,,,,,,,,,,,,,,,,,,,,,,,,,,,,,,,,,,,,,,,,,,,,,,,,,,,,,,,,,,,,,,,,,,,,,,,,,,,,,
0,34,34,81,1,,6132b4b1f9e3fcb24598b43f,62c539b3710891b46175a7c9,2022-07-06_08h31.05.013,Colour_Asymmetry_Pilot,2022.1.3,Win32,164.5548791,62c50e9c1127f2cd403a315f,,,,,,,,,,,,,,,,,,,,,,,,,,,,,,,,,,,,,,,,,,,,,,,,,,,,,,,,,,,,,,,,,,,,,,,,,,,,,,,,,,,,,,,,,,,,,,,,,,,,,,,,,,,,,,,,,,,,,,,,,,,,,,,,,,,,,,,,,,,,,,,,,,,,,,,,,,,,,,,,,,,
0,35,35,57,1,,6132b4b1f9e3fcb24598b43f,62c539b3710891b46175a7c9,2022-07-06_08h31.05.013,Colour_Asymmetry_Pilot,2022.1.3,Win32,164.5548791,62c50e9c1127f2cd403a315f,,,,,,,,,,,,,,,,,,,,,,,,,,,,,,,,,,,,,,,,,,,,,,,,,,,,,,,,,,,,,,,,,,,,,,,,,,,,,,,,,,,,,,,,,,,,,,,,,,,,,,,,,,,,,,,,,,,,,,,,,,,,,,,,,,,,,,,,,,,,,,,,,,,,,,,,,,,,,,,,,,,
0,36,36,19,1,,6132b4b1f9e3fcb24598b43f,62c539b3710891b46175a7c9,2022-07-06_08h31.05.013,Colour_Asymmetry_Pilot,2022.1.3,Win32,164.5548791,62c50e9c1127f2cd403a315f,,,,,,,,,,,,,,,,,,,,,,,,,,,,,,,,,,,,,,,,,,,,,,,,,,,,,,,,,,,,,,,,,,,,,,,,,,,,,,,,,,,,,,,,,,,,,,,,,,,,,,,,,,,,,,,,,,,,,,,,,,,,,,,,,,,,,,,,,,,,,,,,,,,,,,,,,,,,,,,,,,,
0,37,37,39,1,,6132b4b1f9e3fcb24598b43f,62c539b3710891b46175a7c9,2022-07-06_08h31.05.013,Colour_Asymmetry_Pilot,2022.1.3,Win32,164.5548791,62c50e9c1127f2cd403a315f,,,,,,,,,,,,,,,,,,,,,,,,,,,,,,,,,,,,,,,,,,,,,,,,,,,,,,,,,,,,,,,,,,,,,,,,,,,,,,,,,,,,,,,,,,,,,,,,,,,,,,,,,,,,,,,,,,,,,,,,,,,,,,,,,,,,,,,,,,,,,,,,,,,,,,,,,,,,,,,,,,,
0,38,38,34,1,,6132b4b1f9e3fcb24598b43f,62c539b3710891b46175a7c9,2022-07-06_08h31.05.013,Colour_Asymmetry_Pilot,2022.1.3,Win32,164.5548791,62c50e9c1127f2cd403a315f,,,,,,,,,,,,,,,,,,,,,,,,,,,,,,,,,,,,,,,,,,,,,,,,,,,,,,,,,,,,,,,,,,,,,,,,,,,,,,,,,,,,,,,,,,,,,,,,,,,,,,,,,,,,,,,,,,,,,,,,,,,,,,,,,,,,,,,,,,,,,,,,,,,,,,,,,,,,,,,,,,,
0,39,39,49,1,,6132b4b1f9e3fcb24598b43f,62c539b3710891b46175a7c9,2022-07-06_08h31.05.013,Colour_Asymmetry_Pilot,2022.1.3,Win32,164.5548791,62c50e9c1127f2cd403a315f,,,,,,,,,,,,,,,,,,,,,,,,,,,,,,,,,,,,,,,,,,,,,,,,,,,,,,,,,,,,,,,,,,,,,,,,,,,,,,,,,,,,,,,,,,,,,,,,,,,,,,,,,,,,,,,,,,,,,,,,,,,,,,,,,,,,,,,,,,,,,,,,,,,,,,,,,,,,,,,,,,,
0,40,40,32,1,,6132b4b1f9e3fcb24598b43f,62c539b3710891b46175a7c9,2022-07-06_08h31.05.013,Colour_Asymmetry_Pilot,2022.1.3,Win32,164.5548791,62c50e9c1127f2cd403a315f,,,,,,,,,,,,,,,,,,,,,,,,,,,,,,,,,,,,,,,,,,,,,,,,,,,,,,,,,,,,,,,,,,,,,,,,,,,,,,,,,,,,,,,,,,,,,,,,,,,,,,,,,,,,,,,,,,,,,,,,,,,,,,,,,,,,,,,,,,,,,,,,,,,,,,,,,,,,,,,,,,,
0,41,41,72,1,,6132b4b1f9e3fcb24598b43f,62c539b3710891b46175a7c9,2022-07-06_08h31.05.013,Colour_Asymmetry_Pilot,2022.1.3,Win32,164.5548791,62c50e9c1127f2cd403a315f,,,,,,,,,,,,,,,,,,,,,,,,,,,,,,,,,,,,,,,,,,,,,,,,,,,,,,,,,,,,,,,,,,,,,,,,,,,,,,,,,,,,,,,,,,,,,,,,,,,,,,,,,,,,,,,,,,,,,,,,,,,,,,,,,,,,,,,,,,,,,,,,,,,,,,,,,,,,,,,,,,,
0,42,42,38,1,,6132b4b1f9e3fcb24598b43f,62c539b3710891b46175a7c9,2022-07-06_08h31.05.013,Colour_Asymmetry_Pilot,2022.1.3,Win32,164.5548791,62c50e9c1127f2cd403a315f,,,,,,,,,,,,,,,,,,,,,,,,,,,,,,,,,,,,,,,,,,,,,,,,,,,,,,,,,,,,,,,,,,,,,,,,,,,,,,,,,,,,,,,,,,,,,,,,,,,,,,,,,,,,,,,,,,,,,,,,,,,,,,,,,,,,,,,,,,,,,,,,,,,,,,,,,,,,,,,,,,,
0,43,43,2,1,,6132b4b1f9e3fcb24598b43f,62c539b3710891b46175a7c9,2022-07-06_08h31.05.013,Colour_Asymmetry_Pilot,2022.1.3,Win32,164.5548791,62c50e9c1127f2cd403a315f,,,,,,,,,,,,,,,,,,,,,,,,,,,,,,,,,,,,,,,,,,,,,,,,,,,,,,,,,,,,,,,,,,,,,,,,,,,,,,,,,,,,,,,,,,,,,,,,,,,,,,,,,,,,,,,,,,,,,,,,,,,,,,,,,,,,,,,,,,,,,,,,,,,,,,,,,,,,,,,,,,,
0,44,44,36,1,,6132b4b1f9e3fcb24598b43f,62c539b3710891b46175a7c9,2022-07-06_08h31.05.013,Colour_Asymmetry_Pilot,2022.1.3,Win32,164.5548791,62c50e9c1127f2cd403a315f,,,,,,,,,,,,,,,,,,,,,,,,,,,,,,,,,,,,,,,,,,,,,,,,,,,,,,,,,,,,,,,,,,,,,,,,,,,,,,,,,,,,,,,,,,,,,,,,,,,,,,,,,,,,,,,,,,,,,,,,,,,,,,,,,,,,,,,,,,,,,,,,,,,,,,,,,,,,,,,,,,,
0,45,45,89,1,,6132b4b1f9e3fcb24598b43f,62c539b3710891b46175a7c9,2022-07-06_08h31.05.013,Colour_Asymmetry_Pilot,2022.1.3,Win32,164.5548791,62c50e9c1127f2cd403a315f,,,,,,,,,,,,,,,,,,,,,,,,,,,,,,,,,,,,,,,,,,,,,,,,,,,,,,,,,,,,,,,,,,,,,,,,,,,,,,,,,,,,,,,,,,,,,,,,,,,,,,,,,,,,,,,,,,,,,,,,,,,,,,,,,,,,,,,,,,,,,,,,,,,,,,,,,,,,,,,,,,,
0,46,46,80,1,,6132b4b1f9e3fcb24598b43f,62c539b3710891b46175a7c9,2022-07-06_08h31.05.013,Colour_Asymmetry_Pilot,2022.1.3,Win32,164.5548791,62c50e9c1127f2cd403a315f,,,,,,,,,,,,,,,,,,,,,,,,,,,,,,,,,,,,,,,,,,,,,,,,,,,,,,,,,,,,,,,,,,,,,,,,,,,,,,,,,,,,,,,,,,,,,,,,,,,,,,,,,,,,,,,,,,,,,,,,,,,,,,,,,,,,,,,,,,,,,,,,,,,,,,,,,,,,,,,,,,,
0,47,47,5,1,,6132b4b1f9e3fcb24598b43f,62c539b3710891b46175a7c9,2022-07-06_08h31.05.013,Colour_Asymmetry_Pilot,2022.1.3,Win32,164.5548791,62c50e9c1127f2cd403a315f,,,,,,,,,,,,,,,,,,,,,,,,,,,,,,,,,,,,,,,,,,,,,,,,,,,,,,,,,,,,,,,,,,,,,,,,,,,,,,,,,,,,,,,,,,,,,,,,,,,,,,,,,,,,,,,,,,,,,,,,,,,,,,,,,,,,,,,,,,,,,,,,,,,,,,,,,,,,,,,,,,,
0,48,48,1,1,,6132b4b1f9e3fcb24598b43f,62c539b3710891b46175a7c9,2022-07-06_08h31.05.013,Colour_Asymmetry_Pilot,2022.1.3,Win32,164.5548791,62c50e9c1127f2cd403a315f,,,,,,,,,,,,,,,,,,,,,,,,,,,,,,,,,,,,,,,,,,,,,,,,,,,,,,,,,,,,,,,,,,,,,,,,,,,,,,,,,,,,,,,,,,,,,,,,,,,,,,,,,,,,,,,,,,,,,,,,,,,,,,,,,,,,,,,,,,,,,,,,,,,,,,,,,,,,,,,,,,,
0,49,49,83,1,,6132b4b1f9e3fcb24598b43f,62c539b3710891b46175a7c9,2022-07-06_08h31.05.013,Colour_Asymmetry_Pilot,2022.1.3,Win32,164.5548791,62c50e9c1127f2cd403a315f,,,,,,,,,,,,,,,,,,,,,,,,,,,,,,,,,,,,,,,,,,,,,,,,,,,,,,,,,,,,,,,,,,,,,,,,,,,,,,,,,,,,,,,,,,,,,,,,,,,,,,,,,,,,,,,,,,,,,,,,,,,,,,,,,,,,,,,,,,,,,,,,,,,,,,,,,,,,,,,,,,,
0,50,50,29,1,,6132b4b1f9e3fcb24598b43f,62c539b3710891b46175a7c9,2022-07-06_08h31.05.013,Colour_Asymmetry_Pilot,2022.1.3,Win32,164.5548791,62c50e9c1127f2cd403a315f,,,,,,,,,,,,,,,,,,,,,,,,,,,,,,,,,,,,,,,,,,,,,,,,,,,,,,,,,,,,,,,,,,,,,,,,,,,,,,,,,,,,,,,,,,,,,,,,,,,,,,,,,,,,,,,,,,,,,,,,,,,,,,,,,,,,,,,,,,,,,,,,,,,,,,,,,,,,,,,,,,,
0,51,51,23,1,,6132b4b1f9e3fcb24598b43f,62c539b3710891b46175a7c9,2022-07-06_08h31.05.013,Colour_Asymmetry_Pilot,2022.1.3,Win32,164.5548791,62c50e9c1127f2cd403a315f,,,,,,,,,,,,,,,,,,,,,,,,,,,,,,,,,,,,,,,,,,,,,,,,,,,,,,,,,,,,,,,,,,,,,,,,,,,,,,,,,,,,,,,,,,,,,,,,,,,,,,,,,,,,,,,,,,,,,,,,,,,,,,,,,,,,,,,,,,,,,,,,,,,,,,,,,,,,,,,,,,,
0,52,52,27,1,,6132b4b1f9e3fcb24598b43f,62c539b3710891b46175a7c9,2022-07-06_08h31.05.013,Colour_Asymmetry_Pilot,2022.1.3,Win32,164.5548791,62c50e9c1127f2cd403a315f,,,,,,,,,,,,,,,,,,,,,,,,,,,,,,,,,,,,,,,,,,,,,,,,,,,,,,,,,,,,,,,,,,,,,,,,,,,,,,,,,,,,,,,,,,,,,,,,,,,,,,,,,,,,,,,,,,,,,,,,,,,,,,,,,,,,,,,,,,,,,,,,,,,,,,,,,,,,,,,,,,,
0,53,53,3,1,,6132b4b1f9e3fcb24598b43f,62c539b3710891b46175a7c9,2022-07-06_08h31.05.013,Colour_Asymmetry_Pilot,2022.1.3,Win32,164.5548791,62c50e9c1127f2cd403a315f,,,,,,,,,,,,,,,,,,,,,,,,,,,,,,,,,,,,,,,,,,,,,,,,,,,,,,,,,,,,,,,,,,,,,,,,,,,,,,,,,,,,,,,,,,,,,,,,,,,,,,,,,,,,,,,,,,,,,,,,,,,,,,,,,,,,,,,,,,,,,,,,,,,,,,,,,,,,,,,,,,,
0,54,54,33,1,,6132b4b1f9e3fcb24598b43f,62c539b3710891b46175a7c9,2022-07-06_08h31.05.013,Colour_Asymmetry_Pilot,2022.1.3,Win32,164.5548791,62c50e9c1127f2cd403a315f,,,,,,,,,,,,,,,,,,,,,,,,,,,,,,,,,,,,,,,,,,,,,,,,,,,,,,,,,,,,,,,,,,,,,,,,,,,,,,,,,,,,,,,,,,,,,,,,,,,,,,,,,,,,,,,,,,,,,,,,,,,,,,,,,,,,,,,,,,,,,,,,,,,,,,,,,,,,,,,,,,,
0,55,55,66,1,,6132b4b1f9e3fcb24598b43f,62c539b3710891b46175a7c9,2022-07-06_08h31.05.013,Colour_Asymmetry_Pilot,2022.1.3,Win32,164.5548791,62c50e9c1127f2cd403a315f,,,,,,,,,,,,,,,,,,,,,,,,,,,,,,,,,,,,,,,,,,,,,,,,,,,,,,,,,,,,,,,,,,,,,,,,,,,,,,,,,,,,,,,,,,,,,,,,,,,,,,,,,,,,,,,,,,,,,,,,,,,,,,,,,,,,,,,,,,,,,,,,,,,,,,,,,,,,,,,,,,,
0,56,56,44,1,,6132b4b1f9e3fcb24598b43f,62c539b3710891b46175a7c9,2022-07-06_08h31.05.013,Colour_Asymmetry_Pilot,2022.1.3,Win32,164.5548791,62c50e9c1127f2cd403a315f,,,,,,,,,,,,,,,,,,,,,,,,,,,,,,,,,,,,,,,,,,,,,,,,,,,,,,,,,,,,,,,,,,,,,,,,,,,,,,,,,,,,,,,,,,,,,,,,,,,,,,,,,,,,,,,,,,,,,,,,,,,,,,,,,,,,,,,,,,,,,,,,,,,,,,,,,,,,,,,,,,,
0,57,57,64,1,,6132b4b1f9e3fcb24598b43f,62c539b3710891b46175a7c9,2022-07-06_08h31.05.013,Colour_Asymmetry_Pilot,2022.1.3,Win32,164.5548791,62c50e9c1127f2cd403a315f,,,,,,,,,,,,,,,,,,,,,,,,,,,,,,,,,,,,,,,,,,,,,,,,,,,,,,,,,,,,,,,,,,,,,,,,,,,,,,,,,,,,,,,,,,,,,,,,,,,,,,,,,,,,,,,,,,,,,,,,,,,,,,,,,,,,,,,,,,,,,,,,,,,,,,,,,,,,,,,,,,,
0,58,58,45,1,,6132b4b1f9e3fcb24598b43f,62c539b3710891b46175a7c9,2022-07-06_08h31.05.013,Colour_Asymmetry_Pilot,2022.1.3,Win32,164.5548791,62c50e9c1127f2cd403a315f,,,,,,,,,,,,,,,,,,,,,,,,,,,,,,,,,,,,,,,,,,,,,,,,,,,,,,,,,,,,,,,,,,,,,,,,,,,,,,,,,,,,,,,,,,,,,,,,,,,,,,,,,,,,,,,,,,,,,,,,,,,,,,,,,,,,,,,,,,,,,,,,,,,,,,,,,,,,,,,,,,,
0,59,59,10,1,,6132b4b1f9e3fcb24598b43f,62c539b3710891b46175a7c9,2022-07-06_08h31.05.013,Colour_Asymmetry_Pilot,2022.1.3,Win32,164.5548791,62c50e9c1127f2cd403a315f,,,,,,,,,,,,,,,,,,,,,,,,,,,,,,,,,,,,,,,,,,,,,,,,,,,,,,,,,,,,,,,,,,,,,,,,,,,,,,,,,,,,,,,,,,,,,,,,,,,,,,,,,,,,,,,,,,,,,,,,,,,,,,,,,,,,,,,,,,,,,,,,,,,,,,,,,,,,,,,,,,,
0,60,60,24,1,,6132b4b1f9e3fcb24598b43f,62c539b3710891b46175a7c9,2022-07-06_08h31.05.013,Colour_Asymmetry_Pilot,2022.1.3,Win32,164.5548791,62c50e9c1127f2cd403a315f,,,,,,,,,,,,,,,,,,,,,,,,,,,,,,,,,,,,,,,,,,,,,,,,,,,,,,,,,,,,,,,,,,,,,,,,,,,,,,,,,,,,,,,,,,,,,,,,,,,,,,,,,,,,,,,,,,,,,,,,,,,,,,,,,,,,,,,,,,,,,,,,,,,,,,,,,,,,,,,,,,,
0,61,61,87,1,,6132b4b1f9e3fcb24598b43f,62c539b3710891b46175a7c9,2022-07-06_08h31.05.013,Colour_Asymmetry_Pilot,2022.1.3,Win32,164.5548791,62c50e9c1127f2cd403a315f,,,,,,,,,,,,,,,,,,,,,,,,,,,,,,,,,,,,,,,,,,,,,,,,,,,,,,,,,,,,,,,,,,,,,,,,,,,,,,,,,,,,,,,,,,,,,,,,,,,,,,,,,,,,,,,,,,,,,,,,,,,,,,,,,,,,,,,,,,,,,,,,,,,,,,,,,,,,,,,,,,,
0,62,62,76,1,,6132b4b1f9e3fcb24598b43f,62c539b3710891b46175a7c9,2022-07-06_08h31.05.013,Colour_Asymmetry_Pilot,2022.1.3,Win32,164.5548791,62c50e9c1127f2cd403a315f,,,,,,,,,,,,,,,,,,,,,,,,,,,,,,,,,,,,,,,,,,,,,,,,,,,,,,,,,,,,,,,,,,,,,,,,,,,,,,,,,,,,,,,,,,,,,,,,,,,,,,,,,,,,,,,,,,,,,,,,,,,,,,,,,,,,,,,,,,,,,,,,,,,,,,,,,,,,,,,,,,,
0,63,63,75,1,,6132b4b1f9e3fcb24598b43f,62c539b3710891b46175a7c9,2022-07-06_08h31.05.013,Colour_Asymmetry_Pilot,2022.1.3,Win32,164.5548791,62c50e9c1127f2cd403a315f,,,,,,,,,,,,,,,,,,,,,,,,,,,,,,,,,,,,,,,,,,,,,,,,,,,,,,,,,,,,,,,,,,,,,,,,,,,,,,,,,,,,,,,,,,,,,,,,,,,,,,,,,,,,,,,,,,,,,,,,,,,,,,,,,,,,,,,,,,,,,,,,,,,,,,,,,,,,,,,,,,,
0,64,64,43,1,,6132b4b1f9e3fcb24598b43f,62c539b3710891b46175a7c9,2022-07-06_08h31.05.013,Colour_Asymmetry_Pilot,2022.1.3,Win32,164.5548791,62c50e9c1127f2cd403a315f,,,,,,,,,,,,,,,,,,,,,,,,,,,,,,,,,,,,,,,,,,,,,,,,,,,,,,,,,,,,,,,,,,,,,,,,,,,,,,,,,,,,,,,,,,,,,,,,,,,,,,,,,,,,,,,,,,,,,,,,,,,,,,,,,,,,,,,,,,,,,,,,,,,,,,,,,,,,,,,,,,,
0,65,65,61,1,,6132b4b1f9e3fcb24598b43f,62c539b3710891b46175a7c9,2022-07-06_08h31.05.013,Colour_Asymmetry_Pilot,2022.1.3,Win32,164.5548791,62c50e9c1127f2cd403a315f,,,,,,,,,,,,,,,,,,,,,,,,,,,,,,,,,,,,,,,,,,,,,,,,,,,,,,,,,,,,,,,,,,,,,,,,,,,,,,,,,,,,,,,,,,,,,,,,,,,,,,,,,,,,,,,,,,,,,,,,,,,,,,,,,,,,,,,,,,,,,,,,,,,,,,,,,,,,,,,,,,,
0,66,66,86,1,,6132b4b1f9e3fcb24598b43f,62c539b3710891b46175a7c9,2022-07-06_08h31.05.013,Colour_Asymmetry_Pilot,2022.1.3,Win32,164.5548791,62c50e9c1127f2cd403a315f,,,,,,,,,,,,,,,,,,,,,,,,,,,,,,,,,,,,,,,,,,,,,,,,,,,,,,,,,,,,,,,,,,,,,,,,,,,,,,,,,,,,,,,,,,,,,,,,,,,,,,,,,,,,,,,,,,,,,,,,,,,,,,,,,,,,,,,,,,,,,,,,,,,,,,,,,,,,,,,,,,,
0,67,67,14,1,,6132b4b1f9e3fcb24598b43f,62c539b3710891b46175a7c9,2022-07-06_08h31.05.013,Colour_Asymmetry_Pilot,2022.1.3,Win32,164.5548791,62c50e9c1127f2cd403a315f,,,,,,,,,,,,,,,,,,,,,,,,,,,,,,,,,,,,,,,,,,,,,,,,,,,,,,,,,,,,,,,,,,,,,,,,,,,,,,,,,,,,,,,,,,,,,,,,,,,,,,,,,,,,,,,,,,,,,,,,,,,,,,,,,,,,,,,,,,,,,,,,,,,,,,,,,,,,,,,,,,,
0,68,68,53,1,,6132b4b1f9e3fcb24598b43f,62c539b3710891b46175a7c9,2022-07-06_08h31.05.013,Colour_Asymmetry_Pilot,2022.1.3,Win32,164.5548791,62c50e9c1127f2cd403a315f,,,,,,,,,,,,,,,,,,,,,,,,,,,,,,,,,,,,,,,,,,,,,,,,,,,,,,,,,,,,,,,,,,,,,,,,,,,,,,,,,,,,,,,,,,,,,,,,,,,,,,,,,,,,,,,,,,,,,,,,,,,,,,,,,,,,,,,,,,,,,,,,,,,,,,,,,,,,,,,,,,,
0,69,69,55,1,,6132b4b1f9e3fcb24598b43f,62c539b3710891b46175a7c9,2022-07-06_08h31.05.013,Colour_Asymmetry_Pilot,2022.1.3,Win32,164.5548791,62c50e9c1127f2cd403a315f,,,,,,,,,,,,,,,,,,,,,,,,,,,,,,,,,,,,,,,,,,,,,,,,,,,,,,,,,,,,,,,,,,,,,,,,,,,,,,,,,,,,,,,,,,,,,,,,,,,,,,,,,,,,,,,,,,,,,,,,,,,,,,,,,,,,,,,,,,,,,,,,,,,,,,,,,,,,,,,,,,,
0,70,70,15,1,,6132b4b1f9e3fcb24598b43f,62c539b3710891b46175a7c9,2022-07-06_08h31.05.013,Colour_Asymmetry_Pilot,2022.1.3,Win32,164.5548791,62c50e9c1127f2cd403a315f,,,,,,,,,,,,,,,,,,,,,,,,,,,,,,,,,,,,,,,,,,,,,,,,,,,,,,,,,,,,,,,,,,,,,,,,,,,,,,,,,,,,,,,,,,,,,,,,,,,,,,,,,,,,,,,,,,,,,,,,,,,,,,,,,,,,,,,,,,,,,,,,,,,,,,,,,,,,,,,,,,,
0,71,71,40,1,,6132b4b1f9e3fcb24598b43f,62c539b3710891b46175a7c9,2022-07-06_08h31.05.013,Colour_Asymmetry_Pilot,2022.1.3,Win32,164.5548791,62c50e9c1127f2cd403a315f,,,,,,,,,,,,,,,,,,,,,,,,,,,,,,,,,,,,,,,,,,,,,,,,,,,,,,,,,,,,,,,,,,,,,,,,,,,,,,,,,,,,,,,,,,,,,,,,,,,,,,,,,,,,,,,,,,,,,,,,,,,,,,,,,,,,,,,,,,,,,,,,,,,,,,,,,,,,,,,,,,,
0,72,72,67,1,,6132b4b1f9e3fcb24598b43f,62c539b3710891b46175a7c9,2022-07-06_08h31.05.013,Colour_Asymmetry_Pilot,2022.1.3,Win32,164.5548791,62c50e9c1127f2cd403a315f,,,,,,,,,,,,,,,,,,,,,,,,,,,,,,,,,,,,,,,,,,,,,,,,,,,,,,,,,,,,,,,,,,,,,,,,,,,,,,,,,,,,,,,,,,,,,,,,,,,,,,,,,,,,,,,,,,,,,,,,,,,,,,,,,,,,,,,,,,,,,,,,,,,,,,,,,,,,,,,,,,,
0,73,73,35,1,,6132b4b1f9e3fcb24598b43f,62c539b3710891b46175a7c9,2022-07-06_08h31.05.013,Colour_Asymmetry_Pilot,2022.1.3,Win32,164.5548791,62c50e9c1127f2cd403a315f,,,,,,,,,,,,,,,,,,,,,,,,,,,,,,,,,,,,,,,,,,,,,,,,,,,,,,,,,,,,,,,,,,,,,,,,,,,,,,,,,,,,,,,,,,,,,,,,,,,,,,,,,,,,,,,,,,,,,,,,,,,,,,,,,,,,,,,,,,,,,,,,,,,,,,,,,,,,,,,,,,,
0,74,74,84,1,,6132b4b1f9e3fcb24598b43f,62c539b3710891b46175a7c9,2022-07-06_08h31.05.013,Colour_Asymmetry_Pilot,2022.1.3,Win32,164.5548791,62c50e9c1127f2cd403a315f,,,,,,,,,,,,,,,,,,,,,,,,,,,,,,,,,,,,,,,,,,,,,,,,,,,,,,,,,,,,,,,,,,,,,,,,,,,,,,,,,,,,,,,,,,,,,,,,,,,,,,,,,,,,,,,,,,,,,,,,,,,,,,,,,,,,,,,,,,,,,,,,,,,,,,,,,,,,,,,,,,,
0,75,75,50,1,,6132b4b1f9e3fcb24598b43f,62c539b3710891b46175a7c9,2022-07-06_08h31.05.013,Colour_Asymmetry_Pilot,2022.1.3,Win32,164.5548791,62c50e9c1127f2cd403a315f,,,,,,,,,,,,,,,,,,,,,,,,,,,,,,,,,,,,,,,,,,,,,,,,,,,,,,,,,,,,,,,,,,,,,,,,,,,,,,,,,,,,,,,,,,,,,,,,,,,,,,,,,,,,,,,,,,,,,,,,,,,,,,,,,,,,,,,,,,,,,,,,,,,,,,,,,,,,,,,,,,,
0,76,76,60,1,,6132b4b1f9e3fcb24598b43f,62c539b3710891b46175a7c9,2022-07-06_08h31.05.013,Colour_Asymmetry_Pilot,2022.1.3,Win32,164.5548791,62c50e9c1127f2cd403a315f,,,,,,,,,,,,,,,,,,,,,,,,,,,,,,,,,,,,,,,,,,,,,,,,,,,,,,,,,,,,,,,,,,,,,,,,,,,,,,,,,,,,,,,,,,,,,,,,,,,,,,,,,,,,,,,,,,,,,,,,,,,,,,,,,,,,,,,,,,,,,,,,,,,,,,,,,,,,,,,,,,,
0,77,77,52,1,,6132b4b1f9e3fcb24598b43f,62c539b3710891b46175a7c9,2022-07-06_08h31.05.013,Colour_Asymmetry_Pilot,2022.1.3,Win32,164.5548791,62c50e9c1127f2cd403a315f,,,,,,,,,,,,,,,,,,,,,,,,,,,,,,,,,,,,,,,,,,,,,,,,,,,,,,,,,,,,,,,,,,,,,,,,,,,,,,,,,,,,,,,,,,,,,,,,,,,,,,,,,,,,,,,,,,,,,,,,,,,,,,,,,,,,,,,,,,,,,,,,,,,,,,,,,,,,,,,,,,,
0,78,78,88,1,,6132b4b1f9e3fcb24598b43f,62c539b3710891b46175a7c9,2022-07-06_08h31.05.013,Colour_Asymmetry_Pilot,2022.1.3,Win32,164.5548791,62c50e9c1127f2cd403a315f,,,,,,,,,,,,,,,,,,,,,,,,,,,,,,,,,,,,,,,,,,,,,,,,,,,,,,,,,,,,,,,,,,,,,,,,,,,,,,,,,,,,,,,,,,,,,,,,,,,,,,,,,,,,,,,,,,,,,,,,,,,,,,,,,,,,,,,,,,,,,,,,,,,,,,,,,,,,,,,,,,,
0,79,79,41,1,,6132b4b1f9e3fcb24598b43f,62c539b3710891b46175a7c9,2022-07-06_08h31.05.013,Colour_Asymmetry_Pilot,2022.1.3,Win32,164.5548791,62c50e9c1127f2cd403a315f,,,,,,,,,,,,,,,,,,,,,,,,,,,,,,,,,,,,,,,,,,,,,,,,,,,,,,,,,,,,,,,,,,,,,,,,,,,,,,,,,,,,,,,,,,,,,,,,,,,,,,,,,,,,,,,,,,,,,,,,,,,,,,,,,,,,,,,,,,,,,,,,,,,,,,,,,,,,,,,,,,,
0,80,80,20,1,,6132b4b1f9e3fcb24598b43f,62c539b3710891b46175a7c9,2022-07-06_08h31.05.013,Colour_Asymmetry_Pilot,2022.1.3,Win32,164.5548791,62c50e9c1127f2cd403a315f,,,,,,,,,,,,,,,,,,,,,,,,,,,,,,,,,,,,,,,,,,,,,,,,,,,,,,,,,,,,,,,,,,,,,,,,,,,,,,,,,,,,,,,,,,,,,,,,,,,,,,,,,,,,,,,,,,,,,,,,,,,,,,,,,,,,,,,,,,,,,,,,,,,,,,,,,,,,,,,,,,,
0,81,81,58,1,,6132b4b1f9e3fcb24598b43f,62c539b3710891b46175a7c9,2022-07-06_08h31.05.013,Colour_Asymmetry_Pilot,2022.1.3,Win32,164.5548791,62c50e9c1127f2cd403a315f,,,,,,,,,,,,,,,,,,,,,,,,,,,,,,,,,,,,,,,,,,,,,,,,,,,,,,,,,,,,,,,,,,,,,,,,,,,,,,,,,,,,,,,,,,,,,,,,,,,,,,,,,,,,,,,,,,,,,,,,,,,,,,,,,,,,,,,,,,,,,,,,,,,,,,,,,,,,,,,,,,,
0,82,82,42,1,,6132b4b1f9e3fcb24598b43f,62c539b3710891b46175a7c9,2022-07-06_08h31.05.013,Colour_Asymmetry_Pilot,2022.1.3,Win32,164.5548791,62c50e9c1127f2cd403a315f,,,,,,,,,,,,,,,,,,,,,,,,,,,,,,,,,,,,,,,,,,,,,,,,,,,,,,,,,,,,,,,,,,,,,,,,,,,,,,,,,,,,,,,,,,,,,,,,,,,,,,,,,,,,,,,,,,,,,,,,,,,,,,,,,,,,,,,,,,,,,,,,,,,,,,,,,,,,,,,,,,,
0,83,83,9,1,,6132b4b1f9e3fcb24598b43f,62c539b3710891b46175a7c9,2022-07-06_08h31.05.013,Colour_Asymmetry_Pilot,2022.1.3,Win32,164.5548791,62c50e9c1127f2cd403a315f,,,,,,,,,,,,,,,,,,,,,,,,,,,,,,,,,,,,,,,,,,,,,,,,,,,,,,,,,,,,,,,,,,,,,,,,,,,,,,,,,,,,,,,,,,,,,,,,,,,,,,,,,,,,,,,,,,,,,,,,,,,,,,,,,,,,,,,,,,,,,,,,,,,,,,,,,,,,,,,,,,,
0,84,84,11,1,,6132b4b1f9e3fcb24598b43f,62c539b3710891b46175a7c9,2022-07-06_08h31.05.013,Colour_Asymmetry_Pilot,2022.1.3,Win32,164.5548791,62c50e9c1127f2cd403a315f,,,,,,,,,,,,,,,,,,,,,,,,,,,,,,,,,,,,,,,,,,,,,,,,,,,,,,,,,,,,,,,,,,,,,,,,,,,,,,,,,,,,,,,,,,,,,,,,,,,,,,,,,,,,,,,,,,,,,,,,,,,,,,,,,,,,,,,,,,,,,,,,,,,,,,,,,,,,,,,,,,,
0,85,85,78,1,,6132b4b1f9e3fcb24598b43f,62c539b3710891b46175a7c9,2022-07-06_08h31.05.013,Colour_Asymmetry_Pilot,2022.1.3,Win32,164.5548791,62c50e9c1127f2cd403a315f,,,,,,,,,,,,,,,,,,,,,,,,,,,,,,,,,,,,,,,,,,,,,,,,,,,,,,,,,,,,,,,,,,,,,,,,,,,,,,,,,,,,,,,,,,,,,,,,,,,,,,,,,,,,,,,,,,,,,,,,,,,,,,,,,,,,,,,,,,,,,,,,,,,,,,,,,,,,,,,,,,,
0,86,86,4,1,,6132b4b1f9e3fcb24598b43f,62c539b3710891b46175a7c9,2022-07-06_08h31.05.013,Colour_Asymmetry_Pilot,2022.1.3,Win32,164.5548791,62c50e9c1127f2cd403a315f,,,,,,,,,,,,,,,,,,,,,,,,,,,,,,,,,,,,,,,,,,,,,,,,,,,,,,,,,,,,,,,,,,,,,,,,,,,,,,,,,,,,,,,,,,,,,,,,,,,,,,,,,,,,,,,,,,,,,,,,,,,,,,,,,,,,,,,,,,,,,,,,,,,,,,,,,,,,,,,,,,,
0,87,87,47,1,,6132b4b1f9e3fcb24598b43f,62c539b3710891b46175a7c9,2022-07-06_08h31.05.013,Colour_Asymmetry_Pilot,2022.1.3,Win32,164.5548791,62c50e9c1127f2cd403a315f,,,,,,,,,,,,,,,,,,,,,,,,,,,,,,,,,,,,,,,,,,,,,,,,,,,,,,,,,,,,,,,,,,,,,,,,,,,,,,,,,,,,,,,,,,,,,,,,,,,,,,,,,,,,,,,,,,,,,,,,,,,,,,,,,,,,,,,,,,,,,,,,,,,,,,,,,,,,,,,,,,,
0,88,88,13,1,,6132b4b1f9e3fcb24598b43f,62c539b3710891b46175a7c9,2022-07-06_08h31.05.013,Colour_Asymmetry_Pilot,2022.1.3,Win32,164.5548791,62c50e9c1127f2cd403a315f,,,,,,,,,,,,,,,,,,,,,,,,,,,,,,,,,,,,,,,,,,,,,,,,,,,,,,,,,,,,,,,,,,,,,,,,,,,,,,,,,,,,,,,,,,,,,,,,,,,,,,,,,,,,,,,,,,,,,,,,,,,,,,,,,,,,,,,,,,,,,,,,,,,,,,,,,,,,,,,,,,,
0,89,89,74,1,,6132b4b1f9e3fcb24598b43f,62c539b3710891b46175a7c9,2022-07-06_08h31.05.013,Colour_Asymmetry_Pilot,2022.1.3,Win32,164.5548791,62c50e9c1127f2cd403a315f,,,,,,,,,,,,,,,,,,,,,,,,,,,,,,,,,,,,,,,,,,,,,,,,,,,,,,,,,,,,,,,,,,,,,,,,,,,,,,,,,,,,,,,,,,,,,,,,,,,,,,,,,,,,,,,,,,,,,,,,,,,,,,,,,,,,,,,,,,,,,,,,,,,,,,,,,,,,,,,,,,,
0,90,90,22,1,,6132b4b1f9e3fcb24598b43f,62c539b3710891b46175a7c9,2022-07-06_08h31.05.013,Colour_Asymmetry_Pilot,2022.1.3,Win32,164.5548791,62c50e9c1127f2cd403a315f,,,,,,,,,,,,,,,,,,,,,,,,,,,,,,,,,,,,,,,,,,,,,,,,,,,,,,,,,,,,,,,,,,,,,,,,,,,,,,,,,,,,,,,,,,,,,,,,,,,,,,,,,,,,,,,,,,,,,,,,,,,,,,,,,,,,,,,,,,,,,,,,,,,,,,,,,,,,,,,,,,,
0,91,91,37,1,,6132b4b1f9e3fcb24598b43f,62c539b3710891b46175a7c9,2022-07-06_08h31.05.013,Colour_Asymmetry_Pilot,2022.1.3,Win32,164.5548791,62c50e9c1127f2cd403a315f,,,,,,,,,,,,,,,,,,,,,,,,,,,,,,,,,,,,,,,,,,,,,,,,,,,,,,,,,,,,,,,,,,,,,,,,,,,,,,,,,,,,,,,,,,,,,,,,,,,,,,,,,,,,,,,,,,,,,,,,,,,,,,,,,,,,,,,,,,,,,,,,,,,,,,,,,,,,,,,,,,,
0,92,92,69,1,,6132b4b1f9e3fcb24598b43f,62c539b3710891b46175a7c9,2022-07-06_08h31.05.013,Colour_Asymmetry_Pilot,2022.1.3,Win32,164.5548791,62c50e9c1127f2cd403a315f,,,,,,,,,,,,,,,,,,,,,,,,,,,,,,,,,,,,,,,,,,,,,,,,,,,,,,,,,,,,,,,,,,,,,,,,,,,,,,,,,,,,,,,,,,,,,,,,,,,,,,,,,,,,,,,,,,,,,,,,,,,,,,,,,,,,,,,,,,,,,,,,,,,,,,,,,,,,,,,,,,,
,,,,,,6132b4b1f9e3fcb24598b43f,62c539b3710891b46175a7c9,2022-07-06_08h31.05.013,Colour_Asymmetry_Pilot,2022.1.3,Win32,164.5548791,62c50e9c1127f2cd403a315f,0,0,0,23,1,fourthree,,,,,,,,,,,,,,,,,,,,,,,,,,,,,,,,,,,,,,,,,,,,,,,,,,,,,,,,,,,,,,,,,,,,,,,,,,,,,,,,,,,,,,,,,,,,,,,,,,,,,,,,,,,,,,,,,,,,,,,,,,,,,,,,,,,,,,,,,,,,,,,,,,,,,,,,,,,,,
,,,,,,6132b4b1f9e3fcb24598b43f,62c539b3710891b46175a7c9,2022-07-06_08h31.05.013,Colour_Asymmetry_Pilot,2022.1.3,Win32,164.5548791,62c50e9c1127f2cd403a315f,0,1,1,116,1,threeone,,,,,,,,,,,,,,,,,,,,,,,,,,,,,,,,,,,,,,,,,,,,,,,,,,,,,,,,,,,,,,,,,,,,,,,,,,,,,,,,,,,,,,,,,,,,,,,,,,,,,,,,,,,,,,,,,,,,,,,,,,,,,,,,,,,,,,,,,,,,,,,,,,,,,,,,,,,,,
,,,,,,6132b4b1f9e3fcb24598b43f,62c539b3710891b46175a7c9,2022-07-06_08h31.05.013,Colour_Asymmetry_Pilot,2022.1.3,Win32,164.5548791,62c50e9c1127f2cd403a315f,0,2,2,149,1,threefour,,,,,,,,,,,,,,,,,,,,,,,,,,,,,,,,,,,,,,,,,,,,,,,,,,,,,,,,,,,,,,,,,,,,,,,,,,,,,,,,,,,,,,,,,,,,,,,,,,,,,,,,,,,,,,,,,,,,,,,,,,,,,,,,,,,,,,,,,,,,,,,,,,,,,,,,,,,,,
,,,,,,6132b4b1f9e3fcb24598b43f,62c539b3710891b46175a7c9,2022-07-06_08h31.05.013,Colour_Asymmetry_Pilot,2022.1.3,Win32,164.5548791,62c50e9c1127f2cd403a315f,0,3,3,95,1,fourthree,,,,,,,,,,,,,,,,,,,,,,,,,,,,,,,,,,,,,,,,,,,,,,,,,,,,,,,,,,,,,,,,,,,,,,,,,,,,,,,,,,,,,,,,,,,,,,,,,,,,,,,,,,,,,,,,,,,,,,,,,,,,,,,,,,,,,,,,,,,,,,,,,,,,,,,,,,,,,
,,,,,,6132b4b1f9e3fcb24598b43f,62c539b3710891b46175a7c9,2022-07-06_08h31.05.013,Colour_Asymmetry_Pilot,2022.1.3,Win32,164.5548791,62c50e9c1127f2cd403a315f,0,4,4,142,1,fourtwo,,,,,,,,,,,,,,,,,,,,,,,,,,,,,,,,,,,,,,,,,,,,,,,,,,,,,,,,,,,,,,,,,,,,,,,,,,,,,,,,,,,,,,,,,,,,,,,,,,,,,,,,,,,,,,,,,,,,,,,,,,,,,,,,,,,,,,,,,,,,,,,,,,,,,,,,,,,,,
,,,,,,6132b4b1f9e3fcb24598b43f,62c539b3710891b46175a7c9,2022-07-06_08h31.05.013,Colour_Asymmetry_Pilot,2022.1.3,Win32,164.5548791,62c50e9c1127f2cd403a315f,0,5,5,52,1,threeone,,,,,,,,,,,,,,,,,,,,,,,,,,,,,,,,,,,,,,,,,,,,,,,,,,,,,,,,,,,,,,,,,,,,,,,,,,,,,,,,,,,,,,,,,,,,,,,,,,,,,,,,,,,,,,,,,,,,,,,,,,,,,,,,,,,,,,,,,,,,,,,,,,,,,,,,,,,,,
,,,,,,6132b4b1f9e3fcb24598b43f,62c539b3710891b46175a7c9,2022-07-06_08h31.05.013,Colour_Asymmetry_Pilot,2022.1.3,Win32,164.5548791,62c50e9c1127f2cd403a315f,0,6,6,48,1,onetwo,,,,,,,,,,,,,,,,,,,,,,,,,,,,,,,,,,,,,,,,,,,,,,,,,,,,,,,,,,,,,,,,,,,,,,,,,,,,,,,,,,,,,,,,,,,,,,,,,,,,,,,,,,,,,,,,,,,,,,,,,,,,,,,,,,,,,,,,,,,,,,,,,,,,,,,,,,,,,
,,,,,,6132b4b1f9e3fcb24598b43f,62c539b3710891b46175a7c9,2022-07-06_08h31.05.013,Colour_Asymmetry_Pilot,2022.1.3,Win32,164.5548791,62c50e9c1127f2cd403a315f,0,7,7,33,1,onethree,,,,,,,,,,,,,,,,,,,,,,,,,,,,,,,,,,,,,,,,,,,,,,,,,,,,,,,,,,,,,,,,,,,,,,,,,,,,,,,,,,,,,,,,,,,,,,,,,,,,,,,,,,,,,,,,,,,,,,,,,,,,,,,,,,,,,,,,,,,,,,,,,,,,,,,,,,,,,
,,,,,,6132b4b1f9e3fcb24598b43f,62c539b3710891b46175a7c9,2022-07-06_08h31.05.013,Colour_Asymmetry_Pilot,2022.1.3,Win32,164.5548791,62c50e9c1127f2cd403a315f,0,8,8,127,1,fourthree,,,,,,,,,,,,,,,,,,,,,,,,,,,,,,,,,,,,,,,,,,,,,,,,,,,,,,,,,,,,,,,,,,,,,,,,,,,,,,,,,,,,,,,,,,,,,,,,,,,,,,,,,,,,,,,,,,,,,,,,,,,,,,,,,,,,,,,,,,,,,,,,,,,,,,,,,,,,,
,,,,,,6132b4b1f9e3fcb24598b43f,62c539b3710891b46175a7c9,2022-07-06_08h31.05.013,Colour_Asymmetry_Pilot,2022.1.3,Win32,164.5548791,62c50e9c1127f2cd403a315f,0,9,9,91,1,twofour,,,,,,,,,,,,,,,,,,,,,,,,,,,,,,,,,,,,,,,,,,,,,,,,,,,,,,,,,,,,,,,,,,,,,,,,,,,,,,,,,,,,,,,,,,,,,,,,,,,,,,,,,,,,,,,,,,,,,,,,,,,,,,,,,,,,,,,,,,,,,,,,,,,,,,,,,,,,,
,,,,,,6132b4b1f9e3fcb24598b43f,62c539b3710891b46175a7c9,2022-07-06_08h31.05.013,Colour_Asymmetry_Pilot,2022.1.3,Win32,164.5548791,62c50e9c1127f2cd403a315f,0,10,10,58,1,twoone,,,,,,,,,,,,,,,,,,,,,,,,,,,,,,,,,,,,,,,,,,,,,,,,,,,,,,,,,,,,,,,,,,,,,,,,,,,,,,,,,,,,,,,,,,,,,,,,,,,,,,,,,,,,,,,,,,,,,,,,,,,,,,,,,,,,,,,,,,,,,,,,,,,,,,,,,,,,,
,,,,,,6132b4b1f9e3fcb24598b43f,62c539b3710891b46175a7c9,2022-07-06_08h31.05.013,Colour_Asymmetry_Pilot,2022.1.3,Win32,164.5548791,62c50e9c1127f2cd403a315f,0,11,11,123,1,twofour,,,,,,,,,,,,,,,,,,,,,,,,,,,,,,,,,,,,,,,,,,,,,,,,,,,,,,,,,,,,,,,,,,,,,,,,,,,,,,,,,,,,,,,,,,,,,,,,,,,,,,,,,,,,,,,,,,,,,,,,,,,,,,,,,,,,,,,,,,,,,,,,,,,,,,,,,,,,,
,,,,,,6132b4b1f9e3fcb24598b43f,62c539b3710891b46175a7c9,2022-07-06_08h31.05.013,Colour_Asymmetry_Pilot,2022.1.3,Win32,164.5548791,62c50e9c1127f2cd403a315f,0,12,12,46,1,fourtwo,,,,,,,,,,,,,,,,,,,,,,,,,,,,,,,,,,,,,,,,,,,,,,,,,,,,,,,,,,,,,,,,,,,,,,,,,,,,,,,,,,,,,,,,,,,,,,,,,,,,,,,,,,,,,,,,,,,,,,,,,,,,,,,,,,,,,,,,,,,,,,,,,,,,,,,,,,,,,
,,,,,,6132b4b1f9e3fcb24598b43f,62c539b3710891b46175a7c9,2022-07-06_08h31.05.013,Colour_Asymmetry_Pilot,2022.1.3,Win32,164.5548791,62c50e9c1127f2cd403a315f,0,13,13,124,1,threeone,,,,,,,,,,,,,,,,,,,,,,,,,,,,,,,,,,,,,,,,,,,,,,,,,,,,,,,,,,,,,,,,,,,,,,,,,,,,,,,,,,,,,,,,,,,,,,,,,,,,,,,,,,,,,,,,,,,,,,,,,,,,,,,,,,,,,,,,,,,,,,,,,,,,,,,,,,,,,
,,,,,,6132b4b1f9e3fcb24598b43f,62c539b3710891b46175a7c9,2022-07-06_08h31.05.013,Colour_Asymmetry_Pilot,2022.1.3,Win32,164.5548791,62c50e9c1127f2cd403a315f,0,14,14,8,1,onetwo,,,,,,,,,,,,,,,,,,,,,,,,,,,,,,,,,,,,,,,,,,,,,,,,,,,,,,,,,,,,,,,,,,,,,,,,,,,,,,,,,,,,,,,,,,,,,,,,,,,,,,,,,,,,,,,,,,,,,,,,,,,,,,,,,,,,,,,,,,,,,,,,,,,,,,,,,,,,,
,,,,,,6132b4b1f9e3fcb24598b43f,62c539b3710891b46175a7c9,2022-07-06_08h31.05.013,Colour_Asymmetry_Pilot,2022.1.3,Win32,164.5548791,62c50e9c1127f2cd403a315f,0,15,15,157,1,threefour,,,,,,,,,,,,,,,,,,,,,,,,,,,,,,,,,,,,,,,,,,,,,,,,,,,,,,,,,,,,,,,,,,,,,,,,,,,,,,,,,,,,,,,,,,,,,,,,,,,,,,,,,,,,,,,,,,,,,,,,,,,,,,,,,,,,,,,,,,,,,,,,,,,,,,,,,,,,,
,,,,,,6132b4b1f9e3fcb24598b43f,62c539b3710891b46175a7c9,2022-07-06_08h31.05.013,Colour_Asymmetry_Pilot,2022.1.3,Win32,164.5548791,62c50e9c1127f2cd403a315f,0,16,16,159,1,fourthree,,,,,,,,,,,,,,,,,,,,,,,,,,,,,,,,,,,,,,,,,,,,,,,,,,,,,,,,,,,,,,,,,,,,,,,,,,,,,,,,,,,,,,,,,,,,,,,,,,,,,,,,,,,,,,,,,,,,,,,,,,,,,,,,,,,,,,,,,,,,,,,,,,,,,,,,,,,,,
,,,,,,6132b4b1f9e3fcb24598b43f,62c539b3710891b46175a7c9,2022-07-06_08h31.05.013,Colour_Asymmetry_Pilot,2022.1.3,Win32,164.5548791,62c50e9c1127f2cd403a315f,0,17,17,141,1,threefour,,,,,,,,,,,,,,,,,,,,,,,,,,,,,,,,,,,,,,,,,,,,,,,,,,,,,,,,,,,,,,,,,,,,,,,,,,,,,,,,,,,,,,,,,,,,,,,,,,,,,,,,,,,,,,,,,,,,,,,,,,,,,,,,,,,,,,,,,,,,,,,,,,,,,,,,,,,,,
,,,,,,6132b4b1f9e3fcb24598b43f,62c539b3710891b46175a7c9,2022-07-06_08h31.05.013,Colour_Asymmetry_Pilot,2022.1.3,Win32,164.5548791,62c50e9c1127f2cd403a315f,0,18,18,32,1,onetwo,,,,,,,,,,,,,,,,,,,,,,,,,,,,,,,,,,,,,,,,,,,,,,,,,,,,,,,,,,,,,,,,,,,,,,,,,,,,,,,,,,,,,,,,,,,,,,,,,,,,,,,,,,,,,,,,,,,,,,,,,,,,,,,,,,,,,,,,,,,,,,,,,,,,,,,,,,,,,
,,,,,,6132b4b1f9e3fcb24598b43f,62c539b3710891b46175a7c9,2022-07-06_08h31.05.013,Colour_Asymmetry_Pilot,2022.1.3,Win32,164.5548791,62c50e9c1127f2cd403a315f,0,19,19,81,1,onethree,,,,,,,,,,,,,,,,,,,,,,,,,,,,,,,,,,,,,,,,,,,,,,,,,,,,,,,,,,,,,,,,,,,,,,,,,,,,,,,,,,,,,,,,,,,,,,,,,,,,,,,,,,,,,,,,,,,,,,,,,,,,,,,,,,,,,,,,,,,,,,,,,,,,,,,,,,,,,
,,,,,,6132b4b1f9e3fcb24598b43f,62c539b3710891b46175a7c9,2022-07-06_08h31.05.013,Colour_Asymmetry_Pilot,2022.1.3,Win32,164.5548791,62c50e9c1127f2cd403a315f,0,20,20,97,1,onethree,,,,,,,,,,,,,,,,,,,,,,,,,,,,,,,,,,,,,,,,,,,,,,,,,,,,,,,,,,,,,,,,,,,,,,,,,,,,,,,,,,,,,,,,,,,,,,,,,,,,,,,,,,,,,,,,,,,,,,,,,,,,,,,,,,,,,,,,,,,,,,,,,,,,,,,,,,,,,
,,,,,,6132b4b1f9e3fcb24598b43f,62c539b3710891b46175a7c9,2022-07-06_08h31.05.013,Colour_Asymmetry_Pilot,2022.1.3,Win32,164.5548791,62c50e9c1127f2cd403a315f,0,21,21,44,1,threeone,,,,,,,,,,,,,,,,,,,,,,,,,,,,,,,,,,,,,,,,,,,,,,,,,,,,,,,,,,,,,,,,,,,,,,,,,,,,,,,,,,,,,,,,,,,,,,,,,,,,,,,,,,,,,,,,,,,,,,,,,,,,,,,,,,,,,,,,,,,,,,,,,,,,,,,,,,,,,
,,,,,,6132b4b1f9e3fcb24598b43f,62c539b3710891b46175a7c9,2022-07-06_08h31.05.013,Colour_Asymmetry_Pilot,2022.1.3,Win32,164.5548791,62c50e9c1127f2cd403a315f,0,22,22,63,1,fourthree,,,,,,,,,,,,,,,,,,,,,,,,,,,,,,,,,,,,,,,,,,,,,,,,,,,,,,,,,,,,,,,,,,,,,,,,,,,,,,,,,,,,,,,,,,,,,,,,,,,,,,,,,,,,,,,,,,,,,,,,,,,,,,,,,,,,,,,,,,,,,,,,,,,,,,,,,,,,,
,,,,,,6132b4b1f9e3fcb24598b43f,62c539b3710891b46175a7c9,2022-07-06_08h31.05.013,Colour_Asymmetry_Pilot,2022.1.3,Win32,164.5548791,62c50e9c1127f2cd403a315f,0,23,23,18,1,twoone,,,,,,,,,,,,,,,,,,,,,,,,,,,,,,,,,,,,,,,,,,,,,,,,,,,,,,,,,,,,,,,,,,,,,,,,,,,,,,,,,,,,,,,,,,,,,,,,,,,,,,,,,,,,,,,,,,,,,,,,,,,,,,,,,,,,,,,,,,,,,,,,,,,,,,,,,,,,,
,,,,,,6132b4b1f9e3fcb24598b43f,62c539b3710891b46175a7c9,2022-07-06_08h31.05.013,Colour_Asymmetry_Pilot,2022.1.3,Win32,164.5548791,62c50e9c1127f2cd403a315f,0,24,24,144,1,onetwo,,,,,,,,,,,,,,,,,,,,,,,,,,,,,,,,,,,,,,,,,,,,,,,,,,,,,,,,,,,,,,,,,,,,,,,,,,,,,,,,,,,,,,,,,,,,,,,,,,,,,,,,,,,,,,,,,,,,,,,,,,,,,,,,,,,,,,,,,,,,,,,,,,,,,,,,,,,,,
,,,,,,6132b4b1f9e3fcb24598b43f,62c539b3710891b46175a7c9,2022-07-06_08h31.05.013,Colour_Asymmetry_Pilot,2022.1.3,Win32,164.5548791,62c50e9c1127f2cd403a315f,0,25,25,16,1,onetwo,,,,,,,,,,,,,,,,,,,,,,,,,,,,,,,,,,,,,,,,,,,,,,,,,,,,,,,,,,,,,,,,,,,,,,,,,,,,,,,,,,,,,,,,,,,,,,,,,,,,,,,,,,,,,,,,,,,,,,,,,,,,,,,,,,,,,,,,,,,,,,,,,,,,,,,,,,,,,
,,,,,,6132b4b1f9e3fcb24598b43f,62c539b3710891b46175a7c9,2022-07-06_08h31.05.013,Colour_Asymmetry_Pilot,2022.1.3,Win32,164.5548791,62c50e9c1127f2cd403a315f,0,26,26,113,1,onethree,,,,,,,,,,,,,,,,,,,,,,,,,,,,,,,,,,,,,,,,,,,,,,,,,,,,,,,,,,,,,,,,,,,,,,,,,,,,,,,,,,,,,,,,,,,,,,,,,,,,,,,,,,,,,,,,,,,,,,,,,,,,,,,,,,,,,,,,,,,,,,,,,,,,,,,,,,,,,
,,,,,,6132b4b1f9e3fcb24598b43f,62c539b3710891b46175a7c9,2022-07-06_08h31.05.013,Colour_Asymmetry_Pilot,2022.1.3,Win32,164.5548791,62c50e9c1127f2cd403a315f,0,27,27,104,1,onetwo,,,,,,,,,,,,,,,,,,,,,,,,,,,,,,,,,,,,,,,,,,,,,,,,,,,,,,,,,,,,,,,,,,,,,,,,,,,,,,,,,,,,,,,,,,,,,,,,,,,,,,,,,,,,,,,,,,,,,,,,,,,,,,,,,,,,,,,,,,,,,,,,,,,,,,,,,,,,,
,,,,,,6132b4b1f9e3fcb24598b43f,62c539b3710891b46175a7c9,2022-07-06_08h31.05.013,Colour_Asymmetry_Pilot,2022.1.3,Win32,164.5548791,62c50e9c1127f2cd403a315f,0,28,28,47,1,fourthree,,,,,,,,,,,,,,,,,,,,,,,,,,,,,,,,,,,,,,,,,,,,,,,,,,,,,,,,,,,,,,,,,,,,,,,,,,,,,,,,,,,,,,,,,,,,,,,,,,,,,,,,,,,,,,,,,,,,,,,,,,,,,,,,,,,,,,,,,,,,,,,,,,,,,,,,,,,,,
,,,,,,6132b4b1f9e3fcb24598b43f,62c539b3710891b46175a7c9,2022-07-06_08h31.05.013,Colour_Asymmetry_Pilot,2022.1.3,Win32,164.5548791,62c50e9c1127f2cd403a315f,0,29,29,92,1,threeone,,,,,,,,,,,,,,,,,,,,,,,,,,,,,,,,,,,,,,,,,,,,,,,,,,,,,,,,,,,,,,,,,,,,,,,,,,,,,,,,,,,,,,,,,,,,,,,,,,,,,,,,,,,,,,,,,,,,,,,,,,,,,,,,,,,,,,,,,,,,,,,,,,,,,,,,,,,,,
,,,,,,6132b4b1f9e3fcb24598b43f,62c539b3710891b46175a7c9,2022-07-06_08h31.05.013,Colour_Asymmetry_Pilot,2022.1.3,Win32,164.5548791,62c50e9c1127f2cd403a315f,0,30,30,69,1,threefour,,,,,,,,,,,,,,,,,,,,,,,,,,,,,,,,,,,,,,,,,,,,,,,,,,,,,,,,,,,,,,,,,,,,,,,,,,,,,,,,,,,,,,,,,,,,,,,,,,,,,,,,,,,,,,,,,,,,,,,,,,,,,,,,,,,,,,,,,,,,,,,,,,,,,,,,,,,,,
,,,,,,6132b4b1f9e3fcb24598b43f,62c539b3710891b46175a7c9,2022-07-06_08h31.05.013,Colour_Asymmetry_Pilot,2022.1.3,Win32,164.5548791,62c50e9c1127f2cd403a315f,0,31,31,78,1,fourtwo,,,,,,,,,,,,,,,,,,,,,,,,,,,,,,,,,,,,,,,,,,,,,,,,,,,,,,,,,,,,,,,,,,,,,,,,,,,,,,,,,,,,,,,,,,,,,,,,,,,,,,,,,,,,,,,,,,,,,,,,,,,,,,,,,,,,,,,,,,,,,,,,,,,,,,,,,,,,,
,,,,,,6132b4b1f9e3fcb24598b43f,62c539b3710891b46175a7c9,2022-07-06_08h31.05.013,Colour_Asymmetry_Pilot,2022.1.3,Win32,164.5548791,62c50e9c1127f2cd403a315f,0,32,32,154,1,twoone,,,,,,,,,,,,,,,,,,,,,,,,,,,,,,,,,,,,,,,,,,,,,,,,,,,,,,,,,,,,,,,,,,,,,,,,,,,,,,,,,,,,,,,,,,,,,,,,,,,,,,,,,,,,,,,,,,,,,,,,,,,,,,,,,,,,,,,,,,,,,,,,,,,,,,,,,,,,,
,,,,,,6132b4b1f9e3fcb24598b43f,62c539b3710891b46175a7c9,2022-07-06_08h31.05.013,Colour_Asymmetry_Pilot,2022.1.3,Win32,164.5548791,62c50e9c1127f2cd403a315f,0,33,33,114,1,twoone,,,,,,,,,,,,,,,,,,,,,,,,,,,,,,,,,,,,,,,,,,,,,,,,,,,,,,,,,,,,,,,,,,,,,,,,,,,,,,,,,,,,,,,,,,,,,,,,,,,,,,,,,,,,,,,,,,,,,,,,,,,,,,,,,,,,,,,,,,,,,,,,,,,,,,,,,,,,,
,,,,,,6132b4b1f9e3fcb24598b43f,62c539b3710891b46175a7c9,2022-07-06_08h31.05.013,Colour_Asymmetry_Pilot,2022.1.3,Win32,164.5548791,62c50e9c1127f2cd403a315f,0,34,34,143,1,fourthree,,,,,,,,,,,,,,,,,,,,,,,,,,,,,,,,,,,,,,,,,,,,,,,,,,,,,,,,,,,,,,,,,,,,,,,,,,,,,,,,,,,,,,,,,,,,,,,,,,,,,,,,,,,,,,,,,,,,,,,,,,,,,,,,,,,,,,,,,,,,,,,,,,,,,,,,,,,,,
,,,,,,6132b4b1f9e3fcb24598b43f,62c539b3710891b46175a7c9,2022-07-06_08h31.05.013,Colour_Asymmetry_Pilot,2022.1.3,Win32,164.5548791,62c50e9c1127f2cd403a315f,0,35,35,38,1,fourtwo,,,,,,,,,,,,,,,,,,,,,,,,,,,,,,,,,,,,,,,,,,,,,,,,,,,,,,,,,,,,,,,,,,,,,,,,,,,,,,,,,,,,,,,,,,,,,,,,,,,,,,,,,,,,,,,,,,,,,,,,,,,,,,,,,,,,,,,,,,,,,,,,,,,,,,,,,,,,,
,,,,,,6132b4b1f9e3fcb24598b43f,62c539b3710891b46175a7c9,2022-07-06_08h31.05.013,Colour_Asymmetry_Pilot,2022.1.3,Win32,164.5548791,62c50e9c1127f2cd403a315f,0,36,36,12,1,threeone,,,,,,,,,,,,,,,,,,,,,,,,,,,,,,,,,,,,,,,,,,,,,,,,,,,,,,,,,,,,,,,,,,,,,,,,,,,,,,,,,,,,,,,,,,,,,,,,,,,,,,,,,,,,,,,,,,,,,,,,,,,,,,,,,,,,,,,,,,,,,,,,,,,,,,,,,,,,,
,,,,,,6132b4b1f9e3fcb24598b43f,62c539b3710891b46175a7c9,2022-07-06_08h31.05.013,Colour_Asymmetry_Pilot,2022.1.3,Win32,164.5548791,62c50e9c1127f2cd403a315f,0,37,37,27,1,twofour,,,,,,,,,,,,,,,,,,,,,,,,,,,,,,,,,,,,,,,,,,,,,,,,,,,,,,,,,,,,,,,,,,,,,,,,,,,,,,,,,,,,,,,,,,,,,,,,,,,,,,,,,,,,,,,,,,,,,,,,,,,,,,,,,,,,,,,,,,,,,,,,,,,,,,,,,,,,,
,,,,,,6132b4b1f9e3fcb24598b43f,62c539b3710891b46175a7c9,2022-07-06_08h31.05.013,Colour_Asymmetry_Pilot,2022.1.3,Win32,164.5548791,62c50e9c1127f2cd403a315f,0,38,38,53,1,threefour,,,,,,,,,,,,,,,,,,,,,,,,,,,,,,,,,,,,,,,,,,,,,,,,,,,,,,,,,,,,,,,,,,,,,,,,,,,,,,,,,,,,,,,,,,,,,,,,,,,,,,,,,,,,,,,,,,,,,,,,,,,,,,,,,,,,,,,,,,,,,,,,,,,,,,,,,,,,,
,,,,,,6132b4b1f9e3fcb24598b43f,62c539b3710891b46175a7c9,2022-07-06_08h31.05.013,Colour_Asymmetry_Pilot,2022.1.3,Win32,164.5548791,62c50e9c1127f2cd403a315f,0,39,39,111,1,fourthree,,,,,,,,,,,,,,,,,,,,,,,,,,,,,,,,,,,,,,,,,,,,,,,,,,,,,,,,,,,,,,,,,,,,,,,,,,,,,,,,,,,,,,,,,,,,,,,,,,,,,,,,,,,,,,,,,,,,,,,,,,,,,,,,,,,,,,,,,,,,,,,,,,,,,,,,,,,,,
,,,,,,6132b4b1f9e3fcb24598b43f,62c539b3710891b46175a7c9,2022-07-06_08h31.05.013,Colour_Asymmetry_Pilot,2022.1.3,Win32,164.5548791,62c50e9c1127f2cd403a315f,0,40,40,43,1,twofour,,,,,,,,,,,,,,,,,,,,,,,,,,,,,,,,,,,,,,,,,,,,,,,,,,,,,,,,,,,,,,,,,,,,,,,,,,,,,,,,,,,,,,,,,,,,,,,,,,,,,,,,,,,,,,,,,,,,,,,,,,,,,,,,,,,,,,,,,,,,,,,,,,,,,,,,,,,,,
,,,,,,6132b4b1f9e3fcb24598b43f,62c539b3710891b46175a7c9,2022-07-06_08h31.05.013,Colour_Asymmetry_Pilot,2022.1.3,Win32,164.5548791,62c50e9c1127f2cd403a315f,0,41,41,30,1,fourtwo,,,,,,,,,,,,,,,,,,,,,,,,,,,,,,,,,,,,,,,,,,,,,,,,,,,,,,,,,,,,,,,,,,,,,,,,,,,,,,,,,,,,,,,,,,,,,,,,,,,,,,,,,,,,,,,,,,,,,,,,,,,,,,,,,,,,,,,,,,,,,,,,,,,,,,,,,,,,,
,,,,,,6132b4b1f9e3fcb24598b43f,62c539b3710891b46175a7c9,2022-07-06_08h31.05.013,Colour_Asymmetry_Pilot,2022.1.3,Win32,164.5548791,62c50e9c1127f2cd403a315f,0,42,42,49,1,onethree,,,,,,,,,,,,,,,,,,,,,,,,,,,,,,,,,,,,,,,,,,,,,,,,,,,,,,,,,,,,,,,,,,,,,,,,,,,,,,,,,,,,,,,,,,,,,,,,,,,,,,,,,,,,,,,,,,,,,,,,,,,,,,,,,,,,,,,,,,,,,,,,,,,,,,,,,,,,,
,,,,,,6132b4b1f9e3fcb24598b43f,62c539b3710891b46175a7c9,2022-07-06_08h31.05.013,Colour_Asymmetry_Pilot,2022.1.3,Win32,164.5548791,62c50e9c1127f2cd403a315f,0,43,43,130,1,twoone,,,,,,,,,,,,,,,,,,,,,,,,,,,,,,,,,,,,,,,,,,,,,,,,,,,,,,,,,,,,,,,,,,,,,,,,,,,,,,,,,,,,,,,,,,,,,,,,,,,,,,,,,,,,,,,,,,,,,,,,,,,,,,,,,,,,,,,,,,,,,,,,,,,,,,,,,,,,,
,,,,,,6132b4b1f9e3fcb24598b43f,62c539b3710891b46175a7c9,2022-07-06_08h31.05.013,Colour_Asymmetry_Pilot,2022.1.3,Win32,164.5548791,62c50e9c1127f2cd403a315f,0,44,44,118,1,fourtwo,,,,,,,,,,,,,,,,,,,,,,,,,,,,,,,,,,,,,,,,,,,,,,,,,,,,,,,,,,,,,,,,,,,,,,,,,,,,,,,,,,,,,,,,,,,,,,,,,,,,,,,,,,,,,,,,,,,,,,,,,,,,,,,,,,,,,,,,,,,,,,,,,,,,,,,,,,,,,
,,,,,,6132b4b1f9e3fcb24598b43f,62c539b3710891b46175a7c9,2022-07-06_08h31.05.013,Colour_Asymmetry_Pilot,2022.1.3,Win32,164.5548791,62c50e9c1127f2cd403a315f,0,45,45,132,1,threeone,,,,,,,,,,,,,,,,,,,,,,,,,,,,,,,,,,,,,,,,,,,,,,,,,,,,,,,,,,,,,,,,,,,,,,,,,,,,,,,,,,,,,,,,,,,,,,,,,,,,,,,,,,,,,,,,,,,,,,,,,,,,,,,,,,,,,,,,,,,,,,,,,,,,,,,,,,,,,
,,,,,,6132b4b1f9e3fcb24598b43f,62c539b3710891b46175a7c9,2022-07-06_08h31.05.013,Colour_Asymmetry_Pilot,2022.1.3,Win32,164.5548791,62c50e9c1127f2cd403a315f,0,46,46,151,1,fourthree,,,,,,,,,,,,,,,,,,,,,,,,,,,,,,,,,,,,,,,,,,,,,,,,,,,,,,,,,,,,,,,,,,,,,,,,,,,,,,,,,,,,,,,,,,,,,,,,,,,,,,,,,,,,,,,,,,,,,,,,,,,,,,,,,,,,,,,,,,,,,,,,,,,,,,,,,,,,,
,,,,,,6132b4b1f9e3fcb24598b43f,62c539b3710891b46175a7c9,2022-07-06_08h31.05.013,Colour_Asymmetry_Pilot,2022.1.3,Win32,164.5548791,62c50e9c1127f2cd403a315f,0,47,47,17,1,onethree,,,,,,,,,,,,,,,,,,,,,,,,,,,,,,,,,,,,,,,,,,,,,,,,,,,,,,,,,,,,,,,,,,,,,,,,,,,,,,,,,,,,,,,,,,,,,,,,,,,,,,,,,,,,,,,,,,,,,,,,,,,,,,,,,,,,,,,,,,,,,,,,,,,,,,,,,,,,,
,,,,,,6132b4b1f9e3fcb24598b43f,62c539b3710891b46175a7c9,2022-07-06_08h31.05.013,Colour_Asymmetry_Pilot,2022.1.3,Win32,164.5548791,62c50e9c1127f2cd403a315f,0,48,48,158,1,fourtwo,,,,,,,,,,,,,,,,,,,,,,,,,,,,,,,,,,,,,,,,,,,,,,,,,,,,,,,,,,,,,,,,,,,,,,,,,,,,,,,,,,,,,,,,,,,,,,,,,,,,,,,,,,,,,,,,,,,,,,,,,,,,,,,,,,,,,,,,,,,,,,,,,,,,,,,,,,,,,
,,,,,,6132b4b1f9e3fcb24598b43f,62c539b3710891b46175a7c9,2022-07-06_08h31.05.013,Colour_Asymmetry_Pilot,2022.1.3,Win32,164.5548791,62c50e9c1127f2cd403a315f,0,49,49,39,1,fourthree,,,,,,,,,,,,,,,,,,,,,,,,,,,,,,,,,,,,,,,,,,,,,,,,,,,,,,,,,,,,,,,,,,,,,,,,,,,,,,,,,,,,,,,,,,,,,,,,,,,,,,,,,,,,,,,,,,,,,,,,,,,,,,,,,,,,,,,,,,,,,,,,,,,,,,,,,,,,,
,,,,,,6132b4b1f9e3fcb24598b43f,62c539b3710891b46175a7c9,2022-07-06_08h31.05.013,Colour_Asymmetry_Pilot,2022.1.3,Win32,164.5548791,62c50e9c1127f2cd403a315f,0,50,50,101,1,threefour,,,,,,,,,,,,,,,,,,,,,,,,,,,,,,,,,,,,,,,,,,,,,,,,,,,,,,,,,,,,,,,,,,,,,,,,,,,,,,,,,,,,,,,,,,,,,,,,,,,,,,,,,,,,,,,,,,,,,,,,,,,,,,,,,,,,,,,,,,,,,,,,,,,,,,,,,,,,,
,,,,,,6132b4b1f9e3fcb24598b43f,62c539b3710891b46175a7c9,2022-07-06_08h31.05.013,Colour_Asymmetry_Pilot,2022.1.3,Win32,164.5548791,62c50e9c1127f2cd403a315f,0,51,51,11,1,twofour,,,,,,,,,,,,,,,,,,,,,,,,,,,,,,,,,,,,,,,,,,,,,,,,,,,,,,,,,,,,,,,,,,,,,,,,,,,,,,,,,,,,,,,,,,,,,,,,,,,,,,,,,,,,,,,,,,,,,,,,,,,,,,,,,,,,,,,,,,,,,,,,,,,,,,,,,,,,,
,,,,,,6132b4b1f9e3fcb24598b43f,62c539b3710891b46175a7c9,2022-07-06_08h31.05.013,Colour_Asymmetry_Pilot,2022.1.3,Win32,164.5548791,62c50e9c1127f2cd403a315f,0,52,52,85,1,threefour,,,,,,,,,,,,,,,,,,,,,,,,,,,,,,,,,,,,,,,,,,,,,,,,,,,,,,,,,,,,,,,,,,,,,,,,,,,,,,,,,,,,,,,,,,,,,,,,,,,,,,,,,,,,,,,,,,,,,,,,,,,,,,,,,,,,,,,,,,,,,,,,,,,,,,,,,,,,,
,,,,,,6132b4b1f9e3fcb24598b43f,62c539b3710891b46175a7c9,2022-07-06_08h31.05.013,Colour_Asymmetry_Pilot,2022.1.3,Win32,164.5548791,62c50e9c1127f2cd403a315f,0,53,53,37,1,threefour,,,,,,,,,,,,,,,,,,,,,,,,,,,,,,,,,,,,,,,,,,,,,,,,,,,,,,,,,,,,,,,,,,,,,,,,,,,,,,,,,,,,,,,,,,,,,,,,,,,,,,,,,,,,,,,,,,,,,,,,,,,,,,,,,,,,,,,,,,,,,,,,,,,,,,,,,,,,,
,,,,,,6132b4b1f9e3fcb24598b43f,62c539b3710891b46175a7c9,2022-07-06_08h31.05.013,Colour_Asymmetry_Pilot,2022.1.3,Win32,164.5548791,62c50e9c1127f2cd403a315f,0,54,54,140,1,threeone,,,,,,,,,,,,,,,,,,,,,,,,,,,,,,,,,,,,,,,,,,,,,,,,,,,,,,,,,,,,,,,,,,,,,,,,,,,,,,,,,,,,,,,,,,,,,,,,,,,,,,,,,,,,,,,,,,,,,,,,,,,,,,,,,,,,,,,,,,,,,,,,,,,,,,,,,,,,,
,,,,,,6132b4b1f9e3fcb24598b43f,62c539b3710891b46175a7c9,2022-07-06_08h31.05.013,Colour_Asymmetry_Pilot,2022.1.3,Win32,164.5548791,62c50e9c1127f2cd403a315f,0,55,55,56,1,onetwo,,,,,,,,,,,,,,,,,,,,,,,,,,,,,,,,,,,,,,,,,,,,,,,,,,,,,,,,,,,,,,,,,,,,,,,,,,,,,,,,,,,,,,,,,,,,,,,,,,,,,,,,,,,,,,,,,,,,,,,,,,,,,,,,,,,,,,,,,,,,,,,,,,,,,,,,,,,,,
,,,,,,6132b4b1f9e3fcb24598b43f,62c539b3710891b46175a7c9,2022-07-06_08h31.05.013,Colour_Asymmetry_Pilot,2022.1.3,Win32,164.5548791,62c50e9c1127f2cd403a315f,0,56,56,72,1,onetwo,,,,,,,,,,,,,,,,,,,,,,,,,,,,,,,,,,,,,,,,,,,,,,,,,,,,,,,,,,,,,,,,,,,,,,,,,,,,,,,,,,,,,,,,,,,,,,,,,,,,,,,,,,,,,,,,,,,,,,,,,,,,,,,,,,,,,,,,,,,,,,,,,,,,,,,,,,,,,
,,,,,,6132b4b1f9e3fcb24598b43f,62c539b3710891b46175a7c9,2022-07-06_08h31.05.013,Colour_Asymmetry_Pilot,2022.1.3,Win32,164.5548791,62c50e9c1127f2cd403a315f,0,57,57,25,1,onethree,,,,,,,,,,,,,,,,,,,,,,,,,,,,,,,,,,,,,,,,,,,,,,,,,,,,,,,,,,,,,,,,,,,,,,,,,,,,,,,,,,,,,,,,,,,,,,,,,,,,,,,,,,,,,,,,,,,,,,,,,,,,,,,,,,,,,,,,,,,,,,,,,,,,,,,,,,,,,
,,,,,,6132b4b1f9e3fcb24598b43f,62c539b3710891b46175a7c9,2022-07-06_08h31.05.013,Colour_Asymmetry_Pilot,2022.1.3,Win32,164.5548791,62c50e9c1127f2cd403a315f,0,58,58,9,1,onethree,,,,,,,,,,,,,,,,,,,,,,,,,,,,,,,,,,,,,,,,,,,,,,,,,,,,,,,,,,,,,,,,,,,,,,,,,,,,,,,,,,,,,,,,,,,,,,,,,,,,,,,,,,,,,,,,,,,,,,,,,,,,,,,,,,,,,,,,,,,,,,,,,,,,,,,,,,,,,
,,,,,,6132b4b1f9e3fcb24598b43f,62c539b3710891b46175a7c9,2022-07-06_08h31.05.013,Colour_Asymmetry_Pilot,2022.1.3,Win32,164.5548791,62c50e9c1127f2cd403a315f,0,59,59,122,1,twoone,,,,,,,,,,,,,,,,,,,,,,,,,,,,,,,,,,,,,,,,,,,,,,,,,,,,,,,,,,,,,,,,,,,,,,,,,,,,,,,,,,,,,,,,,,,,,,,,,,,,,,,,,,,,,,,,,,,,,,,,,,,,,,,,,,,,,,,,,,,,,,,,,,,,,,,,,,,,,
,,,,,,6132b4b1f9e3fcb24598b43f,62c539b3710891b46175a7c9,2022-07-06_08h31.05.013,Colour_Asymmetry_Pilot,2022.1.3,Win32,164.5548791,62c50e9c1127f2cd403a315f,0,60,60,57,1,onethree,,,,,,,,,,,,,,,,,,,,,,,,,,,,,,,,,,,,,,,,,,,,,,,,,,,,,,,,,,,,,,,,,,,,,,,,,,,,,,,,,,,,,,,,,,,,,,,,,,,,,,,,,,,,,,,,,,,,,,,,,,,,,,,,,,,,,,,,,,,,,,,,,,,,,,,,,,,,,
,,,,,,6132b4b1f9e3fcb24598b43f,62c539b3710891b46175a7c9,2022-07-06_08h31.05.013,Colour_Asymmetry_Pilot,2022.1.3,Win32,164.5548791,62c50e9c1127f2cd403a315f,0,61,61,110,1,fourtwo,,,,,,,,,,,,,,,,,,,,,,,,,,,,,,,,,,,,,,,,,,,,,,,,,,,,,,,,,,,,,,,,,,,,,,,,,,,,,,,,,,,,,,,,,,,,,,,,,,,,,,,,,,,,,,,,,,,,,,,,,,,,,,,,,,,,,,,,,,,,,,,,,,,,,,,,,,,,,
,,,,,,6132b4b1f9e3fcb24598b43f,62c539b3710891b46175a7c9,2022-07-06_08h31.05.013,Colour_Asymmetry_Pilot,2022.1.3,Win32,164.5548791,62c50e9c1127f2cd403a315f,0,62,62,34,1,twoone,,,,,,,,,,,,,,,,,,,,,,,,,,,,,,,,,,,,,,,,,,,,,,,,,,,,,,,,,,,,,,,,,,,,,,,,,,,,,,,,,,,,,,,,,,,,,,,,,,,,,,,,,,,,,,,,,,,,,,,,,,,,,,,,,,,,,,,,,,,,,,,,,,,,,,,,,,,,,
,,,,,,6132b4b1f9e3fcb24598b43f,62c539b3710891b46175a7c9,2022-07-06_08h31.05.013,Colour_Asymmetry_Pilot,2022.1.3,Win32,164.5548791,62c50e9c1127f2cd403a315f,0,63,63,50,1,twoone,,,,,,,,,,,,,,,,,,,,,,,,,,,,,,,,,,,,,,,,,,,,,,,,,,,,,,,,,,,,,,,,,,,,,,,,,,,,,,,,,,,,,,,,,,,,,,,,,,,,,,,,,,,,,,,,,,,,,,,,,,,,,,,,,,,,,,,,,,,,,,,,,,,,,,,,,,,,,
,,,,,,6132b4b1f9e3fcb24598b43f,62c539b3710891b46175a7c9,2022-07-06_08h31.05.013,Colour_Asymmetry_Pilot,2022.1.3,Win32,164.5548791,62c50e9c1127f2cd403a315f,0,64,64,87,1,fourthree,,,,,,,,,,,,,,,,,,,,,,,,,,,,,,,,,,,,,,,,,,,,,,,,,,,,,,,,,,,,,,,,,,,,,,,,,,,,,,,,,,,,,,,,,,,,,,,,,,,,,,,,,,,,,,,,,,,,,,,,,,,,,,,,,,,,,,,,,,,,,,,,,,,,,,,,,,,,,
,,,,,,6132b4b1f9e3fcb24598b43f,62c539b3710891b46175a7c9,2022-07-06_08h31.05.013,Colour_Asymmetry_Pilot,2022.1.3,Win32,164.5548791,62c50e9c1127f2cd403a315f,0,65,65,115,1,twofour,,,,,,,,,,,,,,,,,,,,,,,,,,,,,,,,,,,,,,,,,,,,,,,,,,,,,,,,,,,,,,,,,,,,,,,,,,,,,,,,,,,,,,,,,,,,,,,,,,,,,,,,,,,,,,,,,,,,,,,,,,,,,,,,,,,,,,,,,,,,,,,,,,,,,,,,,,,,,
,,,,,,6132b4b1f9e3fcb24598b43f,62c539b3710891b46175a7c9,2022-07-06_08h31.05.013,Colour_Asymmetry_Pilot,2022.1.3,Win32,164.5548791,62c50e9c1127f2cd403a315f,0,66,66,19,1,twofour,,,,,,,,,,,,,,,,,,,,,,,,,,,,,,,,,,,,,,,,,,,,,,,,,,,,,,,,,,,,,,,,,,,,,,,,,,,,,,,,,,,,,,,,,,,,,,,,,,,,,,,,,,,,,,,,,,,,,,,,,,,,,,,,,,,,,,,,,,,,,,,,,,,,,,,,,,,,,
,,,,,,6132b4b1f9e3fcb24598b43f,62c539b3710891b46175a7c9,2022-07-06_08h31.05.013,Colour_Asymmetry_Pilot,2022.1.3,Win32,164.5548791,62c50e9c1127f2cd403a315f,0,67,67,150,1,fourtwo,,,,,,,,,,,,,,,,,,,,,,,,,,,,,,,,,,,,,,,,,,,,,,,,,,,,,,,,,,,,,,,,,,,,,,,,,,,,,,,,,,,,,,,,,,,,,,,,,,,,,,,,,,,,,,,,,,,,,,,,,,,,,,,,,,,,,,,,,,,,,,,,,,,,,,,,,,,,,
,,,,,,6132b4b1f9e3fcb24598b43f,62c539b3710891b46175a7c9,2022-07-06_08h31.05.013,Colour_Asymmetry_Pilot,2022.1.3,Win32,164.5548791,62c50e9c1127f2cd403a315f,0,68,68,119,1,fourthree,,,,,,,,,,,,,,,,,,,,,,,,,,,,,,,,,,,,,,,,,,,,,,,,,,,,,,,,,,,,,,,,,,,,,,,,,,,,,,,,,,,,,,,,,,,,,,,,,,,,,,,,,,,,,,,,,,,,,,,,,,,,,,,,,,,,,,,,,,,,,,,,,,,,,,,,,,,,,
,,,,,,6132b4b1f9e3fcb24598b43f,62c539b3710891b46175a7c9,2022-07-06_08h31.05.013,Colour_Asymmetry_Pilot,2022.1.3,Win32,164.5548791,62c50e9c1127f2cd403a315f,0,69,69,135,1,fourthree,,,,,,,,,,,,,,,,,,,,,,,,,,,,,,,,,,,,,,,,,,,,,,,,,,,,,,,,,,,,,,,,,,,,,,,,,,,,,,,,,,,,,,,,,,,,,,,,,,,,,,,,,,,,,,,,,,,,,,,,,,,,,,,,,,,,,,,,,,,,,,,,,,,,,,,,,,,,,
,,,,,,6132b4b1f9e3fcb24598b43f,62c539b3710891b46175a7c9,2022-07-06_08h31.05.013,Colour_Asymmetry_Pilot,2022.1.3,Win32,164.5548791,62c50e9c1127f2cd403a315f,0,70,70,45,1,threefour,,,,,,,,,,,,,,,,,,,,,,,,,,,,,,,,,,,,,,,,,,,,,,,,,,,,,,,,,,,,,,,,,,,,,,,,,,,,,,,,,,,,,,,,,,,,,,,,,,,,,,,,,,,,,,,,,,,,,,,,,,,,,,,,,,,,,,,,,,,,,,,,,,,,,,,,,,,,,
,,,,,,6132b4b1f9e3fcb24598b43f,62c539b3710891b46175a7c9,2022-07-06_08h31.05.013,Colour_Asymmetry_Pilot,2022.1.3,Win32,164.5548791,62c50e9c1127f2cd403a315f,0,71,71,24,1,onetwo,,,,,,,,,,,,,,,,,,,,,,,,,,,,,,,,,,,,,,,,,,,,,,,,,,,,,,,,,,,,,,,,,,,,,,,,,,,,,,,,,,,,,,,,,,,,,,,,,,,,,,,,,,,,,,,,,,,,,,,,,,,,,,,,,,,,,,,,,,,,,,,,,,,,,,,,,,,,,
,,,,,,6132b4b1f9e3fcb24598b43f,62c539b3710891b46175a7c9,2022-07-06_08h31.05.013,Colour_Asymmetry_Pilot,2022.1.3,Win32,164.5548791,62c50e9c1127f2cd403a315f,0,72,72,0,1,onetwo,,,,,,,,,,,,,,,,,,,,,,,,,,,,,,,,,,,,,,,,,,,,,,,,,,,,,,,,,,,,,,,,,,,,,,,,,,,,,,,,,,,,,,,,,,,,,,,,,,,,,,,,,,,,,,,,,,,,,,,,,,,,,,,,,,,,,,,,,,,,,,,,,,,,,,,,,,,,,
,,,,,,6132b4b1f9e3fcb24598b43f,62c539b3710891b46175a7c9,2022-07-06_08h31.05.013,Colour_Asymmetry_Pilot,2022.1.3,Win32,164.5548791,62c50e9c1127f2cd403a315f,0,73,73,20,1,threeone,,,,,,,,,,,,,,,,,,,,,,,,,,,,,,,,,,,,,,,,,,,,,,,,,,,,,,,,,,,,,,,,,,,,,,,,,,,,,,,,,,,,,,,,,,,,,,,,,,,,,,,,,,,,,,,,,,,,,,,,,,,,,,,,,,,,,,,,,,,,,,,,,,,,,,,,,,,,,
,,,,,,6132b4b1f9e3fcb24598b43f,62c539b3710891b46175a7c9,2022-07-06_08h31.05.013,Colour_Asymmetry_Pilot,2022.1.3,Win32,164.5548791,62c50e9c1127f2cd403a315f,0,74,74,59,1,twofour,,,,,,,,,,,,,,,,,,,,,,,,,,,,,,,,,,,,,,,,,,,,,,,,,,,,,,,,,,,,,,,,,,,,,,,,,,,,,,,,,,,,,,,,,,,,,,,,,,,,,,,,,,,,,,,,,,,,,,,,,,,,,,,,,,,,,,,,,,,,,,,,,,,,,,,,,,,,,
,,,,,,6132b4b1f9e3fcb24598b43f,62c539b3710891b46175a7c9,2022-07-06_08h31.05.013,Colour_Asymmetry_Pilot,2022.1.3,Win32,164.5548791,62c50e9c1127f2cd403a315f,0,75,75,102,1,fourtwo,,,,,,,,,,,,,,,,,,,,,,,,,,,,,,,,,,,,,,,,,,,,,,,,,,,,,,,,,,,,,,,,,,,,,,,,,,,,,,,,,,,,,,,,,,,,,,,,,,,,,,,,,,,,,,,,,,,,,,,,,,,,,,,,,,,,,,,,,,,,,,,,,,,,,,,,,,,,,
,,,,,,6132b4b1f9e3fcb24598b43f,62c539b3710891b46175a7c9,2022-07-06_08h31.05.013,Colour_Asymmetry_Pilot,2022.1.3,Win32,164.5548791,62c50e9c1127f2cd403a315f,0,76,76,105,1,onethree,,,,,,,,,,,,,,,,,,,,,,,,,,,,,,,,,,,,,,,,,,,,,,,,,,,,,,,,,,,,,,,,,,,,,,,,,,,,,,,,,,,,,,,,,,,,,,,,,,,,,,,,,,,,,,,,,,,,,,,,,,,,,,,,,,,,,,,,,,,,,,,,,,,,,,,,,,,,,
,,,,,,6132b4b1f9e3fcb24598b43f,62c539b3710891b46175a7c9,2022-07-06_08h31.05.013,Colour_Asymmetry_Pilot,2022.1.3,Win32,164.5548791,62c50e9c1127f2cd403a315f,0,77,77,65,1,onethree,,,,,,,,,,,,,,,,,,,,,,,,,,,,,,,,,,,,,,,,,,,,,,,,,,,,,,,,,,,,,,,,,,,,,,,,,,,,,,,,,,,,,,,,,,,,,,,,,,,,,,,,,,,,,,,,,,,,,,,,,,,,,,,,,,,,,,,,,,,,,,,,,,,,,,,,,,,,,
,,,,,,6132b4b1f9e3fcb24598b43f,62c539b3710891b46175a7c9,2022-07-06_08h31.05.013,Colour_Asymmetry_Pilot,2022.1.3,Win32,164.5548791,62c50e9c1127f2cd403a315f,0,78,78,134,1,fourtwo,,,,,,,,,,,,,,,,,,,,,,,,,,,,,,,,,,,,,,,,,,,,,,,,,,,,,,,,,,,,,,,,,,,,,,,,,,,,,,,,,,,,,,,,,,,,,,,,,,,,,,,,,,,,,,,,,,,,,,,,,,,,,,,,,,,,,,,,,,,,,,,,,,,,,,,,,,,,,
,,,,,,6132b4b1f9e3fcb24598b43f,62c539b3710891b46175a7c9,2022-07-06_08h31.05.013,Colour_Asymmetry_Pilot,2022.1.3,Win32,164.5548791,62c50e9c1127f2cd403a315f,0,79,79,98,1,twoone,,,,,,,,,,,,,,,,,,,,,,,,,,,,,,,,,,,,,,,,,,,,,,,,,,,,,,,,,,,,,,,,,,,,,,,,,,,,,,,,,,,,,,,,,,,,,,,,,,,,,,,,,,,,,,,,,,,,,,,,,,,,,,,,,,,,,,,,,,,,,,,,,,,,,,,,,,,,,
,,,,,,6132b4b1f9e3fcb24598b43f,62c539b3710891b46175a7c9,2022-07-06_08h31.05.013,Colour_Asymmetry_Pilot,2022.1.3,Win32,164.5548791,62c50e9c1127f2cd403a315f,0,80,80,94,1,fourtwo,,,,,,,,,,,,,,,,,,,,,,,,,,,,,,,,,,,,,,,,,,,,,,,,,,,,,,,,,,,,,,,,,,,,,,,,,,,,,,,,,,,,,,,,,,,,,,,,,,,,,,,,,,,,,,,,,,,,,,,,,,,,,,,,,,,,,,,,,,,,,,,,,,,,,,,,,,,,,
,,,,,,6132b4b1f9e3fcb24598b43f,62c539b3710891b46175a7c9,2022-07-06_08h31.05.013,Colour_Asymmetry_Pilot,2022.1.3,Win32,164.5548791,62c50e9c1127f2cd403a315f,0,81,81,51,1,twofour,,,,,,,,,,,,,,,,,,,,,,,,,,,,,,,,,,,,,,,,,,,,,,,,,,,,,,,,,,,,,,,,,,,,,,,,,,,,,,,,,,,,,,,,,,,,,,,,,,,,,,,,,,,,,,,,,,,,,,,,,,,,,,,,,,,,,,,,,,,,,,,,,,,,,,,,,,,,,
,,,,,,6132b4b1f9e3fcb24598b43f,62c539b3710891b46175a7c9,2022-07-06_08h31.05.013,Colour_Asymmetry_Pilot,2022.1.3,Win32,164.5548791,62c50e9c1127f2cd403a315f,0,82,82,22,1,fourtwo,,,,,,,,,,,,,,,,,,,,,,,,,,,,,,,,,,,,,,,,,,,,,,,,,,,,,,,,,,,,,,,,,,,,,,,,,,,,,,,,,,,,,,,,,,,,,,,,,,,,,,,,,,,,,,,,,,,,,,,,,,,,,,,,,,,,,,,,,,,,,,,,,,,,,,,,,,,,,
,,,,,,6132b4b1f9e3fcb24598b43f,62c539b3710891b46175a7c9,2022-07-06_08h31.05.013,Colour_Asymmetry_Pilot,2022.1.3,Win32,164.5548791,62c50e9c1127f2cd403a315f,0,83,83,155,1,twofour,,,,,,,,,,,,,,,,,,,,,,,,,,,,,,,,,,,,,,,,,,,,,,,,,,,,,,,,,,,,,,,,,,,,,,,,,,,,,,,,,,,,,,,,,,,,,,,,,,,,,,,,,,,,,,,,,,,,,,,,,,,,,,,,,,,,,,,,,,,,,,,,,,,,,,,,,,,,,
,,,,,,6132b4b1f9e3fcb24598b43f,62c539b3710891b46175a7c9,2022-07-06_08h31.05.013,Colour_Asymmetry_Pilot,2022.1.3,Win32,164.5548791,62c50e9c1127f2cd403a315f,0,84,84,74,1,twoone,,,,,,,,,,,,,,,,,,,,,,,,,,,,,,,,,,,,,,,,,,,,,,,,,,,,,,,,,,,,,,,,,,,,,,,,,,,,,,,,,,,,,,,,,,,,,,,,,,,,,,,,,,,,,,,,,,,,,,,,,,,,,,,,,,,,,,,,,,,,,,,,,,,,,,,,,,,,,
,,,,,,6132b4b1f9e3fcb24598b43f,62c539b3710891b46175a7c9,2022-07-06_08h31.05.013,Colour_Asymmetry_Pilot,2022.1.3,Win32,164.5548791,62c50e9c1127f2cd403a315f,0,85,85,36,1,threeone,,,,,,,,,,,,,,,,,,,,,,,,,,,,,,,,,,,,,,,,,,,,,,,,,,,,,,,,,,,,,,,,,,,,,,,,,,,,,,,,,,,,,,,,,,,,,,,,,,,,,,,,,,,,,,,,,,,,,,,,,,,,,,,,,,,,,,,,,,,,,,,,,,,,,,,,,,,,,
,,,,,,6132b4b1f9e3fcb24598b43f,62c539b3710891b46175a7c9,2022-07-06_08h31.05.013,Colour_Asymmetry_Pilot,2022.1.3,Win32,164.5548791,62c50e9c1127f2cd403a315f,0,86,86,108,1,threeone,,,,,,,,,,,,,,,,,,,,,,,,,,,,,,,,,,,,,,,,,,,,,,,,,,,,,,,,,,,,,,,,,,,,,,,,,,,,,,,,,,,,,,,,,,,,,,,,,,,,,,,,,,,,,,,,,,,,,,,,,,,,,,,,,,,,,,,,,,,,,,,,,,,,,,,,,,,,,
,,,,,,6132b4b1f9e3fcb24598b43f,62c539b3710891b46175a7c9,2022-07-06_08h31.05.013,Colour_Asymmetry_Pilot,2022.1.3,Win32,164.5548791,62c50e9c1127f2cd403a315f,0,87,87,139,1,twofour,,,,,,,,,,,,,,,,,,,,,,,,,,,,,,,,,,,,,,,,,,,,,,,,,,,,,,,,,,,,,,,,,,,,,,,,,,,,,,,,,,,,,,,,,,,,,,,,,,,,,,,,,,,,,,,,,,,,,,,,,,,,,,,,,,,,,,,,,,,,,,,,,,,,,,,,,,,,,
,,,,,,6132b4b1f9e3fcb24598b43f,62c539b3710891b46175a7c9,2022-07-06_08h31.05.013,Colour_Asymmetry_Pilot,2022.1.3,Win32,164.5548791,62c50e9c1127f2cd403a315f,0,88,88,112,1,onetwo,,,,,,,,,,,,,,,,,,,,,,,,,,,,,,,,,,,,,,,,,,,,,,,,,,,,,,,,,,,,,,,,,,,,,,,,,,,,,,,,,,,,,,,,,,,,,,,,,,,,,,,,,,,,,,,,,,,,,,,,,,,,,,,,,,,,,,,,,,,,,,,,,,,,,,,,,,,,,
,,,,,,6132b4b1f9e3fcb24598b43f,62c539b3710891b46175a7c9,2022-07-06_08h31.05.013,Colour_Asymmetry_Pilot,2022.1.3,Win32,164.5548791,62c50e9c1127f2cd403a315f,0,89,89,3,1,twofour,,,,,,,,,,,,,,,,,,,,,,,,,,,,,,,,,,,,,,,,,,,,,,,,,,,,,,,,,,,,,,,,,,,,,,,,,,,,,,,,,,,,,,,,,,,,,,,,,,,,,,,,,,,,,,,,,,,,,,,,,,,,,,,,,,,,,,,,,,,,,,,,,,,,,,,,,,,,,
,,,,,,6132b4b1f9e3fcb24598b43f,62c539b3710891b46175a7c9,2022-07-06_08h31.05.013,Colour_Asymmetry_Pilot,2022.1.3,Win32,164.5548791,62c50e9c1127f2cd403a315f,0,90,90,79,1,fourthree,,,,,,,,,,,,,,,,,,,,,,,,,,,,,,,,,,,,,,,,,,,,,,,,,,,,,,,,,,,,,,,,,,,,,,,,,,,,,,,,,,,,,,,,,,,,,,,,,,,,,,,,,,,,,,,,,,,,,,,,,,,,,,,,,,,,,,,,,,,,,,,,,,,,,,,,,,,,,
,,,,,,6132b4b1f9e3fcb24598b43f,62c539b3710891b46175a7c9,2022-07-06_08h31.05.013,Colour_Asymmetry_Pilot,2022.1.3,Win32,164.5548791,62c50e9c1127f2cd403a315f,0,91,91,70,1,fourtwo,,,,,,,,,,,,,,,,,,,,,,,,,,,,,,,,,,,,,,,,,,,,,,,,,,,,,,,,,,,,,,,,,,,,,,,,,,,,,,,,,,,,,,,,,,,,,,,,,,,,,,,,,,,,,,,,,,,,,,,,,,,,,,,,,,,,,,,,,,,,,,,,,,,,,,,,,,,,,
,,,,,,6132b4b1f9e3fcb24598b43f,62c539b3710891b46175a7c9,2022-07-06_08h31.05.013,Colour_Asymmetry_Pilot,2022.1.3,Win32,164.5548791,62c50e9c1127f2cd403a315f,0,92,92,71,1,fourthree,,,,,,,,,,,,,,,,,,,,,,,,,,,,,,,,,,,,,,,,,,,,,,,,,,,,,,,,,,,,,,,,,,,,,,,,,,,,,,,,,,,,,,,,,,,,,,,,,,,,,,,,,,,,,,,,,,,,,,,,,,,,,,,,,,,,,,,,,,,,,,,,,,,,,,,,,,,,,
,,,,,,6132b4b1f9e3fcb24598b43f,62c539b3710891b46175a7c9,2022-07-06_08h31.05.013,Colour_Asymmetry_Pilot,2022.1.3,Win32,164.5548791,62c50e9c1127f2cd403a315f,0,93,93,82,1,twoone,,,,,,,,,,,,,,,,,,,,,,,,,,,,,,,,,,,,,,,,,,,,,,,,,,,,,,,,,,,,,,,,,,,,,,,,,,,,,,,,,,,,,,,,,,,,,,,,,,,,,,,,,,,,,,,,,,,,,,,,,,,,,,,,,,,,,,,,,,,,,,,,,,,,,,,,,,,,,
,,,,,,6132b4b1f9e3fcb24598b43f,62c539b3710891b46175a7c9,2022-07-06_08h31.05.013,Colour_Asymmetry_Pilot,2022.1.3,Win32,164.5548791,62c50e9c1127f2cd403a315f,0,94,94,10,1,twoone,,,,,,,,,,,,,,,,,,,,,,,,,,,,,,,,,,,,,,,,,,,,,,,,,,,,,,,,,,,,,,,,,,,,,,,,,,,,,,,,,,,,,,,,,,,,,,,,,,,,,,,,,,,,,,,,,,,,,,,,,,,,,,,,,,,,,,,,,,,,,,,,,,,,,,,,,,,,,
,,,,,,6132b4b1f9e3fcb24598b43f,62c539b3710891b46175a7c9,2022-07-06_08h31.05.013,Colour_Asymmetry_Pilot,2022.1.3,Win32,164.5548791,62c50e9c1127f2cd403a315f,0,95,95,129,1,onethree,,,,,,,,,,,,,,,,,,,,,,,,,,,,,,,,,,,,,,,,,,,,,,,,,,,,,,,,,,,,,,,,,,,,,,,,,,,,,,,,,,,,,,,,,,,,,,,,,,,,,,,,,,,,,,,,,,,,,,,,,,,,,,,,,,,,,,,,,,,,,,,,,,,,,,,,,,,,,
,,,,,,6132b4b1f9e3fcb24598b43f,62c539b3710891b46175a7c9,2022-07-06_08h31.05.013,Colour_Asymmetry_Pilot,2022.1.3,Win32,164.5548791,62c50e9c1127f2cd403a315f,0,96,96,2,1,twoone,,,,,,,,,,,,,,,,,,,,,,,,,,,,,,,,,,,,,,,,,,,,,,,,,,,,,,,,,,,,,,,,,,,,,,,,,,,,,,,,,,,,,,,,,,,,,,,,,,,,,,,,,,,,,,,,,,,,,,,,,,,,,,,,,,,,,,,,,,,,,,,,,,,,,,,,,,,,,
,,,,,,6132b4b1f9e3fcb24598b43f,62c539b3710891b46175a7c9,2022-07-06_08h31.05.013,Colour_Asymmetry_Pilot,2022.1.3,Win32,164.5548791,62c50e9c1127f2cd403a315f,0,97,97,5,1,threefour,,,,,,,,,,,,,,,,,,,,,,,,,,,,,,,,,,,,,,,,,,,,,,,,,,,,,,,,,,,,,,,,,,,,,,,,,,,,,,,,,,,,,,,,,,,,,,,,,,,,,,,,,,,,,,,,,,,,,,,,,,,,,,,,,,,,,,,,,,,,,,,,,,,,,,,,,,,,,
,,,,,,6132b4b1f9e3fcb24598b43f,62c539b3710891b46175a7c9,2022-07-06_08h31.05.013,Colour_Asymmetry_Pilot,2022.1.3,Win32,164.5548791,62c50e9c1127f2cd403a315f,0,98,98,75,1,twofour,,,,,,,,,,,,,,,,,,,,,,,,,,,,,,,,,,,,,,,,,,,,,,,,,,,,,,,,,,,,,,,,,,,,,,,,,,,,,,,,,,,,,,,,,,,,,,,,,,,,,,,,,,,,,,,,,,,,,,,,,,,,,,,,,,,,,,,,,,,,,,,,,,,,,,,,,,,,,
,,,,,,6132b4b1f9e3fcb24598b43f,62c539b3710891b46175a7c9,2022-07-06_08h31.05.013,Colour_Asymmetry_Pilot,2022.1.3,Win32,164.5548791,62c50e9c1127f2cd403a315f,0,99,99,62,1,fourtwo,,,,,,,,,,,,,,,,,,,,,,,,,,,,,,,,,,,,,,,,,,,,,,,,,,,,,,,,,,,,,,,,,,,,,,,,,,,,,,,,,,,,,,,,,,,,,,,,,,,,,,,,,,,,,,,,,,,,,,,,,,,,,,,,,,,,,,,,,,,,,,,,,,,,,,,,,,,,,
,,,,,,6132b4b1f9e3fcb24598b43f,62c539b3710891b46175a7c9,2022-07-06_08h31.05.013,Colour_Asymmetry_Pilot,2022.1.3,Win32,164.5548791,62c50e9c1127f2cd403a315f,0,100,100,126,1,fourtwo,,,,,,,,,,,,,,,,,,,,,,,,,,,,,,,,,,,,,,,,,,,,,,,,,,,,,,,,,,,,,,,,,,,,,,,,,,,,,,,,,,,,,,,,,,,,,,,,,,,,,,,,,,,,,,,,,,,,,,,,,,,,,,,,,,,,,,,,,,,,,,,,,,,,,,,,,,,,,
,,,,,,6132b4b1f9e3fcb24598b43f,62c539b3710891b46175a7c9,2022-07-06_08h31.05.013,Colour_Asymmetry_Pilot,2022.1.3,Win32,164.5548791,62c50e9c1127f2cd403a315f,0,101,101,13,1,threefour,,,,,,,,,,,,,,,,,,,,,,,,,,,,,,,,,,,,,,,,,,,,,,,,,,,,,,,,,,,,,,,,,,,,,,,,,,,,,,,,,,,,,,,,,,,,,,,,,,,,,,,,,,,,,,,,,,,,,,,,,,,,,,,,,,,,,,,,,,,,,,,,,,,,,,,,,,,,,
,,,,,,6132b4b1f9e3fcb24598b43f,62c539b3710891b46175a7c9,2022-07-06_08h31.05.013,Colour_Asymmetry_Pilot,2022.1.3,Win32,164.5548791,62c50e9c1127f2cd403a315f,0,102,102,41,1,onethree,,,,,,,,,,,,,,,,,,,,,,,,,,,,,,,,,,,,,,,,,,,,,,,,,,,,,,,,,,,,,,,,,,,,,,,,,,,,,,,,,,,,,,,,,,,,,,,,,,,,,,,,,,,,,,,,,,,,,,,,,,,,,,,,,,,,,,,,,,,,,,,,,,,,,,,,,,,,,
,,,,,,6132b4b1f9e3fcb24598b43f,62c539b3710891b46175a7c9,2022-07-06_08h31.05.013,Colour_Asymmetry_Pilot,2022.1.3,Win32,164.5548791,62c50e9c1127f2cd403a315f,0,103,103,1,1,onethree,,,,,,,,,,,,,,,,,,,,,,,,,,,,,,,,,,,,,,,,,,,,,,,,,,,,,,,,,,,,,,,,,,,,,,,,,,,,,,,,,,,,,,,,,,,,,,,,,,,,,,,,,,,,,,,,,,,,,,,,,,,,,,,,,,,,,,,,,,,,,,,,,,,,,,,,,,,,,
,,,,,,6132b4b1f9e3fcb24598b43f,62c539b3710891b46175a7c9,2022-07-06_08h31.05.013,Colour_Asymmetry_Pilot,2022.1.3,Win32,164.5548791,62c50e9c1127f2cd403a315f,0,104,104,80,1,onetwo,,,,,,,,,,,,,,,,,,,,,,,,,,,,,,,,,,,,,,,,,,,,,,,,,,,,,,,,,,,,,,,,,,,,,,,,,,,,,,,,,,,,,,,,,,,,,,,,,,,,,,,,,,,,,,,,,,,,,,,,,,,,,,,,,,,,,,,,,,,,,,,,,,,,,,,,,,,,,
,,,,,,6132b4b1f9e3fcb24598b43f,62c539b3710891b46175a7c9,2022-07-06_08h31.05.013,Colour_Asymmetry_Pilot,2022.1.3,Win32,164.5548791,62c50e9c1127f2cd403a315f,0,105,105,35,1,twofour,,,,,,,,,,,,,,,,,,,,,,,,,,,,,,,,,,,,,,,,,,,,,,,,,,,,,,,,,,,,,,,,,,,,,,,,,,,,,,,,,,,,,,,,,,,,,,,,,,,,,,,,,,,,,,,,,,,,,,,,,,,,,,,,,,,,,,,,,,,,,,,,,,,,,,,,,,,,,
,,,,,,6132b4b1f9e3fcb24598b43f,62c539b3710891b46175a7c9,2022-07-06_08h31.05.013,Colour_Asymmetry_Pilot,2022.1.3,Win32,164.5548791,62c50e9c1127f2cd403a315f,0,106,106,156,1,threeone,,,,,,,,,,,,,,,,,,,,,,,,,,,,,,,,,,,,,,,,,,,,,,,,,,,,,,,,,,,,,,,,,,,,,,,,,,,,,,,,,,,,,,,,,,,,,,,,,,,,,,,,,,,,,,,,,,,,,,,,,,,,,,,,,,,,,,,,,,,,,,,,,,,,,,,,,,,,,
,,,,,,6132b4b1f9e3fcb24598b43f,62c539b3710891b46175a7c9,2022-07-06_08h31.05.013,Colour_Asymmetry_Pilot,2022.1.3,Win32,164.5548791,62c50e9c1127f2cd403a315f,0,107,107,103,1,fourthree,,,,,,,,,,,,,,,,,,,,,,,,,,,,,,,,,,,,,,,,,,,,,,,,,,,,,,,,,,,,,,,,,,,,,,,,,,,,,,,,,,,,,,,,,,,,,,,,,,,,,,,,,,,,,,,,,,,,,,,,,,,,,,,,,,,,,,,,,,,,,,,,,,,,,,,,,,,,,
,,,,,,6132b4b1f9e3fcb24598b43f,62c539b3710891b46175a7c9,2022-07-06_08h31.05.013,Colour_Asymmetry_Pilot,2022.1.3,Win32,164.5548791,62c50e9c1127f2cd403a315f,0,108,108,107,1,twofour,,,,,,,,,,,,,,,,,,,,,,,,,,,,,,,,,,,,,,,,,,,,,,,,,,,,,,,,,,,,,,,,,,,,,,,,,,,,,,,,,,,,,,,,,,,,,,,,,,,,,,,,,,,,,,,,,,,,,,,,,,,,,,,,,,,,,,,,,,,,,,,,,,,,,,,,,,,,,
,,,,,,6132b4b1f9e3fcb24598b43f,62c539b3710891b46175a7c9,2022-07-06_08h31.05.013,Colour_Asymmetry_Pilot,2022.1.3,Win32,164.5548791,62c50e9c1127f2cd403a315f,0,109,109,100,1,threeone,,,,,,,,,,,,,,,,,,,,,,,,,,,,,,,,,,,,,,,,,,,,,,,,,,,,,,,,,,,,,,,,,,,,,,,,,,,,,,,,,,,,,,,,,,,,,,,,,,,,,,,,,,,,,,,,,,,,,,,,,,,,,,,,,,,,,,,,,,,,,,,,,,,,,,,,,,,,,
,,,,,,6132b4b1f9e3fcb24598b43f,62c539b3710891b46175a7c9,2022-07-06_08h31.05.013,Colour_Asymmetry_Pilot,2022.1.3,Win32,164.5548791,62c50e9c1127f2cd403a315f,0,110,110,61,1,threefour,,,,,,,,,,,,,,,,,,,,,,,,,,,,,,,,,,,,,,,,,,,,,,,,,,,,,,,,,,,,,,,,,,,,,,,,,,,,,,,,,,,,,,,,,,,,,,,,,,,,,,,,,,,,,,,,,,,,,,,,,,,,,,,,,,,,,,,,,,,,,,,,,,,,,,,,,,,,,
,,,,,,6132b4b1f9e3fcb24598b43f,62c539b3710891b46175a7c9,2022-07-06_08h31.05.013,Colour_Asymmetry_Pilot,2022.1.3,Win32,164.5548791,62c50e9c1127f2cd403a315f,0,111,111,6,1,fourtwo,,,,,,,,,,,,,,,,,,,,,,,,,,,,,,,,,,,,,,,,,,,,,,,,,,,,,,,,,,,,,,,,,,,,,,,,,,,,,,,,,,,,,,,,,,,,,,,,,,,,,,,,,,,,,,,,,,,,,,,,,,,,,,,,,,,,,,,,,,,,,,,,,,,,,,,,,,,,,
,,,,,,6132b4b1f9e3fcb24598b43f,62c539b3710891b46175a7c9,2022-07-06_08h31.05.013,Colour_Asymmetry_Pilot,2022.1.3,Win32,164.5548791,62c50e9c1127f2cd403a315f,0,112,112,120,1,onetwo,,,,,,,,,,,,,,,,,,,,,,,,,,,,,,,,,,,,,,,,,,,,,,,,,,,,,,,,,,,,,,,,,,,,,,,,,,,,,,,,,,,,,,,,,,,,,,,,,,,,,,,,,,,,,,,,,,,,,,,,,,,,,,,,,,,,,,,,,,,,,,,,,,,,,,,,,,,,,
,,,,,,6132b4b1f9e3fcb24598b43f,62c539b3710891b46175a7c9,2022-07-06_08h31.05.013,Colour_Asymmetry_Pilot,2022.1.3,Win32,164.5548791,62c50e9c1127f2cd403a315f,0,113,113,153,1,onethree,,,,,,,,,,,,,,,,,,,,,,,,,,,,,,,,,,,,,,,,,,,,,,,,,,,,,,,,,,,,,,,,,,,,,,,,,,,,,,,,,,,,,,,,,,,,,,,,,,,,,,,,,,,,,,,,,,,,,,,,,,,,,,,,,,,,,,,,,,,,,,,,,,,,,,,,,,,,,
,,,,,,6132b4b1f9e3fcb24598b43f,62c539b3710891b46175a7c9,2022-07-06_08h31.05.013,Colour_Asymmetry_Pilot,2022.1.3,Win32,164.5548791,62c50e9c1127f2cd403a315f,0,114,114,133,1,threefour,,,,,,,,,,,,,,,,,,,,,,,,,,,,,,,,,,,,,,,,,,,,,,,,,,,,,,,,,,,,,,,,,,,,,,,,,,,,,,,,,,,,,,,,,,,,,,,,,,,,,,,,,,,,,,,,,,,,,,,,,,,,,,,,,,,,,,,,,,,,,,,,,,,,,,,,,,,,,
,,,,,,6132b4b1f9e3fcb24598b43f,62c539b3710891b46175a7c9,2022-07-06_08h31.05.013,Colour_Asymmetry_Pilot,2022.1.3,Win32,164.5548791,62c50e9c1127f2cd403a315f,0,115,115,89,1,onethree,,,,,,,,,,,,,,,,,,,,,,,,,,,,,,,,,,,,,,,,,,,,,,,,,,,,,,,,,,,,,,,,,,,,,,,,,,,,,,,,,,,,,,,,,,,,,,,,,,,,,,,,,,,,,,,,,,,,,,,,,,,,,,,,,,,,,,,,,,,,,,,,,,,,,,,,,,,,,
,,,,,,6132b4b1f9e3fcb24598b43f,62c539b3710891b46175a7c9,2022-07-06_08h31.05.013,Colour_Asymmetry_Pilot,2022.1.3,Win32,164.5548791,62c50e9c1127f2cd403a315f,0,116,116,152,1,onetwo,,,,,,,,,,,,,,,,,,,,,,,,,,,,,,,,,,,,,,,,,,,,,,,,,,,,,,,,,,,,,,,,,,,,,,,,,,,,,,,,,,,,,,,,,,,,,,,,,,,,,,,,,,,,,,,,,,,,,,,,,,,,,,,,,,,,,,,,,,,,,,,,,,,,,,,,,,,,,
,,,,,,6132b4b1f9e3fcb24598b43f,62c539b3710891b46175a7c9,2022-07-06_08h31.05.013,Colour_Asymmetry_Pilot,2022.1.3,Win32,164.5548791,62c50e9c1127f2cd403a315f,0,117,117,54,1,fourtwo,,,,,,,,,,,,,,,,,,,,,,,,,,,,,,,,,,,,,,,,,,,,,,,,,,,,,,,,,,,,,,,,,,,,,,,,,,,,,,,,,,,,,,,,,,,,,,,,,,,,,,,,,,,,,,,,,,,,,,,,,,,,,,,,,,,,,,,,,,,,,,,,,,,,,,,,,,,,,
,,,,,,6132b4b1f9e3fcb24598b43f,62c539b3710891b46175a7c9,2022-07-06_08h31.05.013,Colour_Asymmetry_Pilot,2022.1.3,Win32,164.5548791,62c50e9c1127f2cd403a315f,0,118,118,14,1,fourtwo,,,,,,,,,,,,,,,,,,,,,,,,,,,,,,,,,,,,,,,,,,,,,,,,,,,,,,,,,,,,,,,,,,,,,,,,,,,,,,,,,,,,,,,,,,,,,,,,,,,,,,,,,,,,,,,,,,,,,,,,,,,,,,,,,,,,,,,,,,,,,,,,,,,,,,,,,,,,,
,,,,,,6132b4b1f9e3fcb24598b43f,62c539b3710891b46175a7c9,2022-07-06_08h31.05.013,Colour_Asymmetry_Pilot,2022.1.3,Win32,164.5548791,62c50e9c1127f2cd403a315f,0,119,119,84,1,threeone,,,,,,,,,,,,,,,,,,,,,,,,,,,,,,,,,,,,,,,,,,,,,,,,,,,,,,,,,,,,,,,,,,,,,,,,,,,,,,,,,,,,,,,,,,,,,,,,,,,,,,,,,,,,,,,,,,,,,,,,,,,,,,,,,,,,,,,,,,,,,,,,,,,,,,,,,,,,,
,,,,,,6132b4b1f9e3fcb24598b43f,62c539b3710891b46175a7c9,2022-07-06_08h31.05.013,Colour_Asymmetry_Pilot,2022.1.3,Win32,164.5548791,62c50e9c1127f2cd403a315f,0,120,120,73,1,onethree,,,,,,,,,,,,,,,,,,,,,,,,,,,,,,,,,,,,,,,,,,,,,,,,,,,,,,,,,,,,,,,,,,,,,,,,,,,,,,,,,,,,,,,,,,,,,,,,,,,,,,,,,,,,,,,,,,,,,,,,,,,,,,,,,,,,,,,,,,,,,,,,,,,,,,,,,,,,,
,,,,,,6132b4b1f9e3fcb24598b43f,62c539b3710891b46175a7c9,2022-07-06_08h31.05.013,Colour_Asymmetry_Pilot,2022.1.3,Win32,164.5548791,62c50e9c1127f2cd403a315f,0,121,121,117,1,threefour,,,,,,,,,,,,,,,,,,,,,,,,,,,,,,,,,,,,,,,,,,,,,,,,,,,,,,,,,,,,,,,,,,,,,,,,,,,,,,,,,,,,,,,,,,,,,,,,,,,,,,,,,,,,,,,,,,,,,,,,,,,,,,,,,,,,,,,,,,,,,,,,,,,,,,,,,,,,,
,,,,,,6132b4b1f9e3fcb24598b43f,62c539b3710891b46175a7c9,2022-07-06_08h31.05.013,Colour_Asymmetry_Pilot,2022.1.3,Win32,164.5548791,62c50e9c1127f2cd403a315f,0,122,122,145,1,onethree,,,,,,,,,,,,,,,,,,,,,,,,,,,,,,,,,,,,,,,,,,,,,,,,,,,,,,,,,,,,,,,,,,,,,,,,,,,,,,,,,,,,,,,,,,,,,,,,,,,,,,,,,,,,,,,,,,,,,,,,,,,,,,,,,,,,,,,,,,,,,,,,,,,,,,,,,,,,,
,,,,,,6132b4b1f9e3fcb24598b43f,62c539b3710891b46175a7c9,2022-07-06_08h31.05.013,Colour_Asymmetry_Pilot,2022.1.3,Win32,164.5548791,62c50e9c1127f2cd403a315f,0,123,123,55,1,fourthree,,,,,,,,,,,,,,,,,,,,,,,,,,,,,,,,,,,,,,,,,,,,,,,,,,,,,,,,,,,,,,,,,,,,,,,,,,,,,,,,,,,,,,,,,,,,,,,,,,,,,,,,,,,,,,,,,,,,,,,,,,,,,,,,,,,,,,,,,,,,,,,,,,,,,,,,,,,,,
,,,,,,6132b4b1f9e3fcb24598b43f,62c539b3710891b46175a7c9,2022-07-06_08h31.05.013,Colour_Asymmetry_Pilot,2022.1.3,Win32,164.5548791,62c50e9c1127f2cd403a315f,0,124,124,125,1,threefour,,,,,,,,,,,,,,,,,,,,,,,,,,,,,,,,,,,,,,,,,,,,,,,,,,,,,,,,,,,,,,,,,,,,,,,,,,,,,,,,,,,,,,,,,,,,,,,,,,,,,,,,,,,,,,,,,,,,,,,,,,,,,,,,,,,,,,,,,,,,,,,,,,,,,,,,,,,,,
,,,,,,6132b4b1f9e3fcb24598b43f,62c539b3710891b46175a7c9,2022-07-06_08h31.05.013,Colour_Asymmetry_Pilot,2022.1.3,Win32,164.5548791,62c50e9c1127f2cd403a315f,0,125,125,160,1,onetwo,,,,,,,,,,,,,,,,,,,,,,,,,,,,,,,,,,,,,,,,,,,,,,,,,,,,,,,,,,,,,,,,,,,,,,,,,,,,,,,,,,,,,,,,,,,,,,,,,,,,,,,,,,,,,,,,,,,,,,,,,,,,,,,,,,,,,,,,,,,,,,,,,,,,,,,,,,,,,
,,,,,,6132b4b1f9e3fcb24598b43f,62c539b3710891b46175a7c9,2022-07-06_08h31.05.013,Colour_Asymmetry_Pilot,2022.1.3,Win32,164.5548791,62c50e9c1127f2cd403a315f,0,126,126,148,1,threeone,,,,,,,,,,,,,,,,,,,,,,,,,,,,,,,,,,,,,,,,,,,,,,,,,,,,,,,,,,,,,,,,,,,,,,,,,,,,,,,,,,,,,,,,,,,,,,,,,,,,,,,,,,,,,,,,,,,,,,,,,,,,,,,,,,,,,,,,,,,,,,,,,,,,,,,,,,,,,
,,,,,,6132b4b1f9e3fcb24598b43f,62c539b3710891b46175a7c9,2022-07-06_08h31.05.013,Colour_Asymmetry_Pilot,2022.1.3,Win32,164.5548791,62c50e9c1127f2cd403a315f,0,127,127,66,1,twoone,,,,,,,,,,,,,,,,,,,,,,,,,,,,,,,,,,,,,,,,,,,,,,,,,,,,,,,,,,,,,,,,,,,,,,,,,,,,,,,,,,,,,,,,,,,,,,,,,,,,,,,,,,,,,,,,,,,,,,,,,,,,,,,,,,,,,,,,,,,,,,,,,,,,,,,,,,,,,
,,,,,,6132b4b1f9e3fcb24598b43f,62c539b3710891b46175a7c9,2022-07-06_08h31.05.013,Colour_Asymmetry_Pilot,2022.1.3,Win32,164.5548791,62c50e9c1127f2cd403a315f,0,128,128,40,1,onetwo,,,,,,,,,,,,,,,,,,,,,,,,,,,,,,,,,,,,,,,,,,,,,,,,,,,,,,,,,,,,,,,,,,,,,,,,,,,,,,,,,,,,,,,,,,,,,,,,,,,,,,,,,,,,,,,,,,,,,,,,,,,,,,,,,,,,,,,,,,,,,,,,,,,,,,,,,,,,,
,,,,,,6132b4b1f9e3fcb24598b43f,62c539b3710891b46175a7c9,2022-07-06_08h31.05.013,Colour_Asymmetry_Pilot,2022.1.3,Win32,164.5548791,62c50e9c1127f2cd403a315f,0,129,129,109,1,threefour,,,,,,,,,,,,,,,,,,,,,,,,,,,,,,,,,,,,,,,,,,,,,,,,,,,,,,,,,,,,,,,,,,,,,,,,,,,,,,,,,,,,,,,,,,,,,,,,,,,,,,,,,,,,,,,,,,,,,,,,,,,,,,,,,,,,,,,,,,,,,,,,,,,,,,,,,,,,,
,,,,,,6132b4b1f9e3fcb24598b43f,62c539b3710891b46175a7c9,2022-07-06_08h31.05.013,Colour_Asymmetry_Pilot,2022.1.3,Win32,164.5548791,62c50e9c1127f2cd403a315f,0,130,130,7,1,fourthree,,,,,,,,,,,,,,,,,,,,,,,,,,,,,,,,,,,,,,,,,,,,,,,,,,,,,,,,,,,,,,,,,,,,,,,,,,,,,,,,,,,,,,,,,,,,,,,,,,,,,,,,,,,,,,,,,,,,,,,,,,,,,,,,,,,,,,,,,,,,,,,,,,,,,,,,,,,,,
,,,,,,6132b4b1f9e3fcb24598b43f,62c539b3710891b46175a7c9,2022-07-06_08h31.05.013,Colour_Asymmetry_Pilot,2022.1.3,Win32,164.5548791,62c50e9c1127f2cd403a315f,0,131,131,29,1,threefour,,,,,,,,,,,,,,,,,,,,,,,,,,,,,,,,,,,,,,,,,,,,,,,,,,,,,,,,,,,,,,,,,,,,,,,,,,,,,,,,,,,,,,,,,,,,,,,,,,,,,,,,,,,,,,,,,,,,,,,,,,,,,,,,,,,,,,,,,,,,,,,,,,,,,,,,,,,,,
,,,,,,6132b4b1f9e3fcb24598b43f,62c539b3710891b46175a7c9,2022-07-06_08h31.05.013,Colour_Asymmetry_Pilot,2022.1.3,Win32,164.5548791,62c50e9c1127f2cd403a315f,0,132,132,96,1,onetwo,,,,,,,,,,,,,,,,,,,,,,,,,,,,,,,,,,,,,,,,,,,,,,,,,,,,,,,,,,,,,,,,,,,,,,,,,,,,,,,,,,,,,,,,,,,,,,,,,,,,,,,,,,,,,,,,,,,,,,,,,,,,,,,,,,,,,,,,,,,,,,,,,,,,,,,,,,,,,
,,,,,,6132b4b1f9e3fcb24598b43f,62c539b3710891b46175a7c9,2022-07-06_08h31.05.013,Colour_Asymmetry_Pilot,2022.1.3,Win32,164.5548791,62c50e9c1127f2cd403a315f,0,133,133,21,1,threefour,,,,,,,,,,,,,,,,,,,,,,,,,,,,,,,,,,,,,,,,,,,,,,,,,,,,,,,,,,,,,,,,,,,,,,,,,,,,,,,,,,,,,,,,,,,,,,,,,,,,,,,,,,,,,,,,,,,,,,,,,,,,,,,,,,,,,,,,,,,,,,,,,,,,,,,,,,,,,
,,,,,,6132b4b1f9e3fcb24598b43f,62c539b3710891b46175a7c9,2022-07-06_08h31.05.013,Colour_Asymmetry_Pilot,2022.1.3,Win32,164.5548791,62c50e9c1127f2cd403a315f,0,134,134,60,1,threeone,,,,,,,,,,,,,,,,,,,,,,,,,,,,,,,,,,,,,,,,,,,,,,,,,,,,,,,,,,,,,,,,,,,,,,,,,,,,,,,,,,,,,,,,,,,,,,,,,,,,,,,,,,,,,,,,,,,,,,,,,,,,,,,,,,,,,,,,,,,,,,,,,,,,,,,,,,,,,
,,,,,,6132b4b1f9e3fcb24598b43f,62c539b3710891b46175a7c9,2022-07-06_08h31.05.013,Colour_Asymmetry_Pilot,2022.1.3,Win32,164.5548791,62c50e9c1127f2cd403a315f,0,135,135,161,1,onethree,,,,,,,,,,,,,,,,,,,,,,,,,,,,,,,,,,,,,,,,,,,,,,,,,,,,,,,,,,,,,,,,,,,,,,,,,,,,,,,,,,,,,,,,,,,,,,,,,,,,,,,,,,,,,,,,,,,,,,,,,,,,,,,,,,,,,,,,,,,,,,,,,,,,,,,,,,,,,
,,,,,,6132b4b1f9e3fcb24598b43f,62c539b3710891b46175a7c9,2022-07-06_08h31.05.013,Colour_Asymmetry_Pilot,2022.1.3,Win32,164.5548791,62c50e9c1127f2cd403a315f,0,136,136,147,1,twofour,,,,,,,,,,,,,,,,,,,,,,,,,,,,,,,,,,,,,,,,,,,,,,,,,,,,,,,,,,,,,,,,,,,,,,,,,,,,,,,,,,,,,,,,,,,,,,,,,,,,,,,,,,,,,,,,,,,,,,,,,,,,,,,,,,,,,,,,,,,,,,,,,,,,,,,,,,,,,
,,,,,,6132b4b1f9e3fcb24598b43f,62c539b3710891b46175a7c9,2022-07-06_08h31.05.013,Colour_Asymmetry_Pilot,2022.1.3,Win32,164.5548791,62c50e9c1127f2cd403a315f,0,137,137,77,1,threefour,,,,,,,,,,,,,,,,,,,,,,,,,,,,,,,,,,,,,,,,,,,,,,,,,,,,,,,,,,,,,,,,,,,,,,,,,,,,,,,,,,,,,,,,,,,,,,,,,,,,,,,,,,,,,,,,,,,,,,,,,,,,,,,,,,,,,,,,,,,,,,,,,,,,,,,,,,,,,
,,,,,,6132b4b1f9e3fcb24598b43f,62c539b3710891b46175a7c9,2022-07-06_08h31.05.013,Colour_Asymmetry_Pilot,2022.1.3,Win32,164.5548791,62c50e9c1127f2cd403a315f,0,138,138,93,1,threefour,,,,,,,,,,,,,,,,,,,,,,,,,,,,,,,,,,,,,,,,,,,,,,,,,,,,,,,,,,,,,,,,,,,,,,,,,,,,,,,,,,,,,,,,,,,,,,,,,,,,,,,,,,,,,,,,,,,,,,,,,,,,,,,,,,,,,,,,,,,,,,,,,,,,,,,,,,,,,
,,,,,,6132b4b1f9e3fcb24598b43f,62c539b3710891b46175a7c9,2022-07-06_08h31.05.013,Colour_Asymmetry_Pilot,2022.1.3,Win32,164.5548791,62c50e9c1127f2cd403a315f,0,139,139,31,1,fourthree,,,,,,,,,,,,,,,,,,,,,,,,,,,,,,,,,,,,,,,,,,,,,,,,,,,,,,,,,,,,,,,,,,,,,,,,,,,,,,,,,,,,,,,,,,,,,,,,,,,,,,,,,,,,,,,,,,,,,,,,,,,,,,,,,,,,,,,,,,,,,,,,,,,,,,,,,,,,,
,,,,,,6132b4b1f9e3fcb24598b43f,62c539b3710891b46175a7c9,2022-07-06_08h31.05.013,Colour_Asymmetry_Pilot,2022.1.3,Win32,164.5548791,62c50e9c1127f2cd403a315f,0,140,140,86,1,fourtwo,,,,,,,,,,,,,,,,,,,,,,,,,,,,,,,,,,,,,,,,,,,,,,,,,,,,,,,,,,,,,,,,,,,,,,,,,,,,,,,,,,,,,,,,,,,,,,,,,,,,,,,,,,,,,,,,,,,,,,,,,,,,,,,,,,,,,,,,,,,,,,,,,,,,,,,,,,,,,
,,,,,,6132b4b1f9e3fcb24598b43f,62c539b3710891b46175a7c9,2022-07-06_08h31.05.013,Colour_Asymmetry_Pilot,2022.1.3,Win32,164.5548791,62c50e9c1127f2cd403a315f,0,141,141,83,1,twofour,,,,,,,,,,,,,,,,,,,,,,,,,,,,,,,,,,,,,,,,,,,,,,,,,,,,,,,,,,,,,,,,,,,,,,,,,,,,,,,,,,,,,,,,,,,,,,,,,,,,,,,,,,,,,,,,,,,,,,,,,,,,,,,,,,,,,,,,,,,,,,,,,,,,,,,,,,,,,
,,,,,,6132b4b1f9e3fcb24598b43f,62c539b3710891b46175a7c9,2022-07-06_08h31.05.013,Colour_Asymmetry_Pilot,2022.1.3,Win32,164.5548791,62c50e9c1127f2cd403a315f,0,142,142,26,1,twoone,,,,,,,,,,,,,,,,,,,,,,,,,,,,,,,,,,,,,,,,,,,,,,,,,,,,,,,,,,,,,,,,,,,,,,,,,,,,,,,,,,,,,,,,,,,,,,,,,,,,,,,,,,,,,,,,,,,,,,,,,,,,,,,,,,,,,,,,,,,,,,,,,,,,,,,,,,,,,
,,,,,,6132b4b1f9e3fcb24598b43f,62c539b3710891b46175a7c9,2022-07-06_08h31.05.013,Colour_Asymmetry_Pilot,2022.1.3,Win32,164.5548791,62c50e9c1127f2cd403a315f,0,143,143,121,1,onethree,,,,,,,,,,,,,,,,,,,,,,,,,,,,,,,,,,,,,,,,,,,,,,,,,,,,,,,,,,,,,,,,,,,,,,,,,,,,,,,,,,,,,,,,,,,,,,,,,,,,,,,,,,,,,,,,,,,,,,,,,,,,,,,,,,,,,,,,,,,,,,,,,,,,,,,,,,,,,
,,,,,,6132b4b1f9e3fcb24598b43f,62c539b3710891b46175a7c9,2022-07-06_08h31.05.013,Colour_Asymmetry_Pilot,2022.1.3,Win32,164.5548791,62c50e9c1127f2cd403a315f,0,144,144,138,1,twoone,,,,,,,,,,,,,,,,,,,,,,,,,,,,,,,,,,,,,,,,,,,,,,,,,,,,,,,,,,,,,,,,,,,,,,,,,,,,,,,,,,,,,,,,,,,,,,,,,,,,,,,,,,,,,,,,,,,,,,,,,,,,,,,,,,,,,,,,,,,,,,,,,,,,,,,,,,,,,
,,,,,,6132b4b1f9e3fcb24598b43f,62c539b3710891b46175a7c9,2022-07-06_08h31.05.013,Colour_Asymmetry_Pilot,2022.1.3,Win32,164.5548791,62c50e9c1127f2cd403a315f,0,145,145,28,1,threeone,,,,,,,,,,,,,,,,,,,,,,,,,,,,,,,,,,,,,,,,,,,,,,,,,,,,,,,,,,,,,,,,,,,,,,,,,,,,,,,,,,,,,,,,,,,,,,,,,,,,,,,,,,,,,,,,,,,,,,,,,,,,,,,,,,,,,,,,,,,,,,,,,,,,,,,,,,,,,
,,,,,,6132b4b1f9e3fcb24598b43f,62c539b3710891b46175a7c9,2022-07-06_08h31.05.013,Colour_Asymmetry_Pilot,2022.1.3,Win32,164.5548791,62c50e9c1127f2cd403a315f,0,146,146,131,1,twofour,,,,,,,,,,,,,,,,,,,,,,,,,,,,,,,,,,,,,,,,,,,,,,,,,,,,,,,,,,,,,,,,,,,,,,,,,,,,,,,,,,,,,,,,,,,,,,,,,,,,,,,,,,,,,,,,,,,,,,,,,,,,,,,,,,,,,,,,,,,,,,,,,,,,,,,,,,,,,
,,,,,,6132b4b1f9e3fcb24598b43f,62c539b3710891b46175a7c9,2022-07-06_08h31.05.013,Colour_Asymmetry_Pilot,2022.1.3,Win32,164.5548791,62c50e9c1127f2cd403a315f,0,147,147,67,1,twofour,,,,,,,,,,,,,,,,,,,,,,,,,,,,,,,,,,,,,,,,,,,,,,,,,,,,,,,,,,,,,,,,,,,,,,,,,,,,,,,,,,,,,,,,,,,,,,,,,,,,,,,,,,,,,,,,,,,,,,,,,,,,,,,,,,,,,,,,,,,,,,,,,,,,,,,,,,,,,
,,,,,,6132b4b1f9e3fcb24598b43f,62c539b3710891b46175a7c9,2022-07-06_08h31.05.013,Colour_Asymmetry_Pilot,2022.1.3,Win32,164.5548791,62c50e9c1127f2cd403a315f,0,148,148,88,1,onetwo,,,,,,,,,,,,,,,,,,,,,,,,,,,,,,,,,,,,,,,,,,,,,,,,,,,,,,,,,,,,,,,,,,,,,,,,,,,,,,,,,,,,,,,,,,,,,,,,,,,,,,,,,,,,,,,,,,,,,,,,,,,,,,,,,,,,,,,,,,,,,,,,,,,,,,,,,,,,,
,,,,,,6132b4b1f9e3fcb24598b43f,62c539b3710891b46175a7c9,2022-07-06_08h31.05.013,Colour_Asymmetry_Pilot,2022.1.3,Win32,164.5548791,62c50e9c1127f2cd403a315f,0,149,149,128,1,onetwo,,,,,,,,,,,,,,,,,,,,,,,,,,,,,,,,,,,,,,,,,,,,,,,,,,,,,,,,,,,,,,,,,,,,,,,,,,,,,,,,,,,,,,,,,,,,,,,,,,,,,,,,,,,,,,,,,,,,,,,,,,,,,,,,,,,,,,,,,,,,,,,,,,,,,,,,,,,,,
,,,,,,6132b4b1f9e3fcb24598b43f,62c539b3710891b46175a7c9,2022-07-06_08h31.05.013,Colour_Asymmetry_Pilot,2022.1.3,Win32,164.5548791,62c50e9c1127f2cd403a315f,0,150,150,4,1,threeone,,,,,,,,,,,,,,,,,,,,,,,,,,,,,,,,,,,,,,,,,,,,,,,,,,,,,,,,,,,,,,,,,,,,,,,,,,,,,,,,,,,,,,,,,,,,,,,,,,,,,,,,,,,,,,,,,,,,,,,,,,,,,,,,,,,,,,,,,,,,,,,,,,,,,,,,,,,,,
,,,,,,6132b4b1f9e3fcb24598b43f,62c539b3710891b46175a7c9,2022-07-06_08h31.05.013,Colour_Asymmetry_Pilot,2022.1.3,Win32,164.5548791,62c50e9c1127f2cd403a315f,0,151,151,64,1,onetwo,,,,,,,,,,,,,,,,,,,,,,,,,,,,,,,,,,,,,,,,,,,,,,,,,,,,,,,,,,,,,,,,,,,,,,,,,,,,,,,,,,,,,,,,,,,,,,,,,,,,,,,,,,,,,,,,,,,,,,,,,,,,,,,,,,,,,,,,,,,,,,,,,,,,,,,,,,,,,
,,,,,,6132b4b1f9e3fcb24598b43f,62c539b3710891b46175a7c9,2022-07-06_08h31.05.013,Colour_Asymmetry_Pilot,2022.1.3,Win32,164.5548791,62c50e9c1127f2cd403a315f,0,152,152,99,1,twofour,,,,,,,,,,,,,,,,,,,,,,,,,,,,,,,,,,,,,,,,,,,,,,,,,,,,,,,,,,,,,,,,,,,,,,,,,,,,,,,,,,,,,,,,,,,,,,,,,,,,,,,,,,,,,,,,,,,,,,,,,,,,,,,,,,,,,,,,,,,,,,,,,,,,,,,,,,,,,
,,,,,,6132b4b1f9e3fcb24598b43f,62c539b3710891b46175a7c9,2022-07-06_08h31.05.013,Colour_Asymmetry_Pilot,2022.1.3,Win32,164.5548791,62c50e9c1127f2cd403a315f,0,153,153,68,1,threeone,,,,,,,,,,,,,,,,,,,,,,,,,,,,,,,,,,,,,,,,,,,,,,,,,,,,,,,,,,,,,,,,,,,,,,,,,,,,,,,,,,,,,,,,,,,,,,,,,,,,,,,,,,,,,,,,,,,,,,,,,,,,,,,,,,,,,,,,,,,,,,,,,,,,,,,,,,,,,
,,,,,,6132b4b1f9e3fcb24598b43f,62c539b3710891b46175a7c9,2022-07-06_08h31.05.013,Colour_Asymmetry_Pilot,2022.1.3,Win32,164.5548791,62c50e9c1127f2cd403a315f,0,154,154,42,1,twoone,,,,,,,,,,,,,,,,,,,,,,,,,,,,,,,,,,,,,,,,,,,,,,,,,,,,,,,,,,,,,,,,,,,,,,,,,,,,,,,,,,,,,,,,,,,,,,,,,,,,,,,,,,,,,,,,,,,,,,,,,,,,,,,,,,,,,,,,,,,,,,,,,,,,,,,,,,,,,
,,,,,,6132b4b1f9e3fcb24598b43f,62c539b3710891b46175a7c9,2022-07-06_08h31.05.013,Colour_Asymmetry_Pilot,2022.1.3,Win32,164.5548791,62c50e9c1127f2cd403a315f,0,155,155,15,1,fourthree,,,,,,,,,,,,,,,,,,,,,,,,,,,,,,,,,,,,,,,,,,,,,,,,,,,,,,,,,,,,,,,,,,,,,,,,,,,,,,,,,,,,,,,,,,,,,,,,,,,,,,,,,,,,,,,,,,,,,,,,,,,,,,,,,,,,,,,,,,,,,,,,,,,,,,,,,,,,,
,,,,,,6132b4b1f9e3fcb24598b43f,62c539b3710891b46175a7c9,2022-07-06_08h31.05.013,Colour_Asymmetry_Pilot,2022.1.3,Win32,164.5548791,62c50e9c1127f2cd403a315f,0,156,156,90,1,twoone,,,,,,,,,,,,,,,,,,,,,,,,,,,,,,,,,,,,,,,,,,,,,,,,,,,,,,,,,,,,,,,,,,,,,,,,,,,,,,,,,,,,,,,,,,,,,,,,,,,,,,,,,,,,,,,,,,,,,,,,,,,,,,,,,,,,,,,,,,,,,,,,,,,,,,,,,,,,,
,,,,,,6132b4b1f9e3fcb24598b43f,62c539b3710891b46175a7c9,2022-07-06_08h31.05.013,Colour_Asymmetry_Pilot,2022.1.3,Win32,164.5548791,62c50e9c1127f2cd403a315f,0,157,157,137,1,onethree,,,,,,,,,,,,,,,,,,,,,,,,,,,,,,,,,,,,,,,,,,,,,,,,,,,,,,,,,,,,,,,,,,,,,,,,,,,,,,,,,,,,,,,,,,,,,,,,,,,,,,,,,,,,,,,,,,,,,,,,,,,,,,,,,,,,,,,,,,,,,,,,,,,,,,,,,,,,,
,,,,,,6132b4b1f9e3fcb24598b43f,62c539b3710891b46175a7c9,2022-07-06_08h31.05.013,Colour_Asymmetry_Pilot,2022.1.3,Win32,164.5548791,62c50e9c1127f2cd403a315f,0,158,158,76,1,threeone,,,,,,,,,,,,,,,,,,,,,,,,,,,,,,,,,,,,,,,,,,,,,,,,,,,,,,,,,,,,,,,,,,,,,,,,,,,,,,,,,,,,,,,,,,,,,,,,,,,,,,,,,,,,,,,,,,,,,,,,,,,,,,,,,,,,,,,,,,,,,,,,,,,,,,,,,,,,,
,,,,,,6132b4b1f9e3fcb24598b43f,62c539b3710891b46175a7c9,2022-07-06_08h31.05.013,Colour_Asymmetry_Pilot,2022.1.3,Win32,164.5548791,62c50e9c1127f2cd403a315f,0,159,159,136,1,onetwo,,,,,,,,,,,,,,,,,,,,,,,,,,,,,,,,,,,,,,,,,,,,,,,,,,,,,,,,,,,,,,,,,,,,,,,,,,,,,,,,,,,,,,,,,,,,,,,,,,,,,,,,,,,,,,,,,,,,,,,,,,,,,,,,,,,,,,,,,,,,,,,,,,,,,,,,,,,,,
,,,,,,6132b4b1f9e3fcb24598b43f,62c539b3710891b46175a7c9,2022-07-06_08h31.05.013,Colour_Asymmetry_Pilot,2022.1.3,Win32,164.5548791,62c50e9c1127f2cd403a315f,0,160,160,146,1,twoone,,,,,,,,,,,,,,,,,,,,,,,,,,,,,,,,,,,,,,,,,,,,,,,,,,,,,,,,,,,,,,,,,,,,,,,,,,,,,,,,,,,,,,,,,,,,,,,,,,,,,,,,,,,,,,,,,,,,,,,,,,,,,,,,,,,,,,,,,,,,,,,,,,,,,,,,,,,,,
,,,,,,6132b4b1f9e3fcb24598b43f,62c539b3710891b46175a7c9,2022-07-06_08h31.05.013,Colour_Asymmetry_Pilot,2022.1.3,Win32,164.5548791,62c50e9c1127f2cd403a315f,0,161,161,106,1,twoone,,,,,,,,,,,,,,,,,,,,,,,,,,,,,,,,,,,,,,,,,,,,,,,,,,,,,,,,,,,,,,,,,,,,,,,,,,,,,,,,,,,,,,,,,,,,,,,,,,,,,,,,,,,,,,,,,,,,,,,,,,,,,,,,,,,,,,,,,,,,,,,,,,,,,,,,,,,,,
,,,,,,6132b4b1f9e3fcb24598b43f,62c539b3710891b46175a7c9,2022-07-06_08h31.05.013,Colour_Asymmetry_Pilot,2022.1.3,Win32,164.5548791,62c50e9c1127f2cd403a315f,,,,,,,space,4.112,space,18.2985,space,31.3419,space,7.6649,space,77.3547,space,221.8193,"[0.11359999999999992,0.6312,0.5213999999999999]",twofour,"[-0.9844,-0.9688,-0.9922]",-4,6.8675,-48,104,1,0,0,response7disk_5,15,2,1,0,0,rectangle_8,62,117,1,0,0,response1disk_7,7,4,10,11,1,0,0,rectangle_4,0,0,0,0,1,,,,,,,,,,,,,,,,,,,,,,,,,,,,,,,,,,,,,,,,,,,,,,,,,,,,,,,,,,,,,,,,,,,,,,,,,,,,,,,,,,,,,,,,,,,,,,,,,,,,,,,,,,,,,
,,,,,,6132b4b1f9e3fcb24598b43f,62c539b3710891b46175a7c9,2022-07-06_08h31.05.013,Colour_Asymmetry_Pilot,2022.1.3,Win32,164.5548791,62c50e9c1127f2cd403a315f,,,,,,,,,,,,,,,,,,,"[-0.2942,-0.24719999999999998,-0.357]",twofour,"[-0.17659999999999998,0.3253999999999999,0.19999999999999996]",-1,3.8193,-40,-89,1,0,0,response5disk_5,3,12,1,0,0,rectangle_8,3,12,1,0,0,,,4,3,12,1,0,0,,1,0,1,0,1,,,,,,,,,,,,,,,,,,,,,,,,,,,,,,,,,,,,,,,,,,,,,,,,,,,,,,,,,,,,,,,,,,,,,,,,,,,,,,,,,,,,,,,,,,,,,,,,,,,,,,,,,,,,,
,,,,,,6132b4b1f9e3fcb24598b43f,62c539b3710891b46175a7c9,2022-07-06_08h31.05.013,Colour_Asymmetry_Pilot,2022.1.3,Win32,164.5548791,62c50e9c1127f2cd403a315f,,,,,,,,,,,,,,,,,,,"[0.04299999999999993,0.16060000000000008,-0.6628000000000001]",threefour,"[-0.5688,-0.08239999999999992,-0.1844]",-2,2.0302,-105,-72,1,0,0,response5disk_5,2,-1,1,0,0,rectangle_8,2,-1,1,0,0,,,4,2,-1,1,0,0,,2,0,2,0,1,,,,,,,,,,,,,,,,,,,,,,,,,,,,,,,,,,,,,,,,,,,,,,,,,,,,,,,,,,,,,,,,,,,,,,,,,,,,,,,,,,,,,,,,,,,,,,,,,,,,,,,,,,,,,
,,,,,,6132b4b1f9e3fcb24598b43f,62c539b3710891b46175a7c9,2022-07-06_08h31.05.013,Colour_Asymmetry_Pilot,2022.1.3,Win32,164.5548791,62c50e9c1127f2cd403a315f,,,,,,,,,,,,,,,,,,,"[0.23920000000000008,0.2704,0.16060000000000008]",twoone,"[0.3881999999999999,-0.23939999999999995,-0.05040000000000011]",-4,2.0367,-66,93,1,0,0,response7disk_5,28,2,1,0,0,rectangle_8,28,2,1,0,0,,,4,28,2,1,0,0,,3,0,3,0,1,,,,,,,,,,,,,,,,,,,,,,,,,,,,,,,,,,,,,,,,,,,,,,,,,,,,,,,,,,,,,,,,,,,,,,,,,,,,,,,,,,,,,,,,,,,,,,,,,,,,,,,,,,,,,
,,,,,,6132b4b1f9e3fcb24598b43f,62c539b3710891b46175a7c9,2022-07-06_08h31.05.013,Colour_Asymmetry_Pilot,2022.1.3,Win32,164.5548791,62c50e9c1127f2cd403a315f,,,,,,,,,,,,,,,,,,,"[-0.26280000000000003,-0.4746,-0.2158]",fourtwo,"[-0.45899999999999996,-0.3256,-0.9374]",-4,1.5179,-47,103,1,0,0,response7disk_5,-10,-17,1,0,0,rectangle_8,50,89,1,0,0,response1disk_7,7,4,-5,11,1,0,0,rectangle_4,4,0,4,0,1,,,,,,,,,,,,,,,,,,,,,,,,,,,,,,,,,,,,,,,,,,,,,,,,,,,,,,,,,,,,,,,,,,,,,,,,,,,,,,,,,,,,,,,,,,,,,,,,,,,,,,,,,,,,,
,,,,,,6132b4b1f9e3fcb24598b43f,62c539b3710891b46175a7c9,2022-07-06_08h31.05.013,Colour_Asymmetry_Pilot,2022.1.3,Win32,164.5548791,62c50e9c1127f2cd403a315f,,,,,,,,,,,,,,,,,,,"[0.30180000000000007,-0.7884,-0.9844]",threeone,"[0.40379999999999994,0.09000000000000008,0.44300000000000006]",1,2.357,75,-113,1,0,0,response3disk_5,13,-11,1,0,0,rectangle_8,13,-11,1,0,0,,,4,13,-11,1,0,0,,5,0,5,0,1,,,,,,,,,,,,,,,,,,,,,,,,,,,,,,,,,,,,,,,,,,,,,,,,,,,,,,,,,,,,,,,,,,,,,,,,,,,,,,,,,,,,,,,,,,,,,,,,,,,,,,,,,,,,,
,,,,,,6132b4b1f9e3fcb24598b43f,62c539b3710891b46175a7c9,2022-07-06_08h31.05.013,Colour_Asymmetry_Pilot,2022.1.3,Win32,164.5548791,62c50e9c1127f2cd403a315f,,,,,,,,,,,,,,,,,,,"[0.9686000000000001,0.3802000000000001,0.19999999999999996]",twoone,"[0.0351999999999999,0.41159999999999997,0.0038000000000000256]",-3,1.3089,-96,32,1,0,0,response7disk_5,-27,-7,1,0,0,rectangle_8,-27,-7,1,0,0,,,4,-27,-7,1,0,0,,6,0,6,0,1,,,,,,,,,,,,,,,,,,,,,,,,,,,,,,,,,,,,,,,,,,,,,,,,,,,,,,,,,,,,,,,,,,,,,,,,,,,,,,,,,,,,,,,,,,,,,,,,,,,,,,,,,,,,,
,,,,,,6132b4b1f9e3fcb24598b43f,62c539b3710891b46175a7c9,2022-07-06_08h31.05.013,Colour_Asymmetry_Pilot,2022.1.3,Win32,164.5548791,62c50e9c1127f2cd403a315f,,,,,,,,,,,,,,,,,,,,fourthree,,2,1.2462,,,,,,,,,,,,,,,,,,,,,,,,,,,,,,,,space,18.6906,"[-0.48240000000000005,0.3175999999999999,0.2156]","[-0.10599999999999998,-0.15300000000000002,0.15280000000000005]",106,-67,1,0,0,response3disk,3,-18,1,0,0,rectangle,3,-18,1,0,0,,2,0.0015,0,3,-18,1,0,0,0,0,0,113,1,32,second,,,,,,,,,,,,,,,,,,,,,,,,,,,,,,,,,,,,,,,,,,,,,,,,,,,,,,,,,,,,,,,,,,,,,,,,
,,,,,,6132b4b1f9e3fcb24598b43f,62c539b3710891b46175a7c9,2022-07-06_08h31.05.013,Colour_Asymmetry_Pilot,2022.1.3,Win32,164.5548791,62c50e9c1127f2cd403a315f,,,,,,,,,,,,,,,,,,,,threeone,,-2,2.8408,,,,,,,,,,,,,,,,,,,,,,,,,,,,,,,,,,"[0.7646000000000002,0.07440000000000002,0.2704]","[-0.8982,-0.37259999999999993,0.2784]",-119,-52,1,0,0,response5disk,-3,4,1,0,0,rectangle,-3,4,1,0,0,,2,0.0002,0,-3,4,1,0,0,0,1,1,56,1,56,first,,,,,,,,,,,,,,,,,,,,,,,,,,,,,,,,,,,,,,,,,,,,,,,,,,,,,,,,,,,,,,,,,,,,,,,,
,,,,,,6132b4b1f9e3fcb24598b43f,62c539b3710891b46175a7c9,2022-07-06_08h31.05.013,Colour_Asymmetry_Pilot,2022.1.3,Win32,164.5548791,62c50e9c1127f2cd403a315f,,,,,,,,,,,,,,,,,,,,threefour,,1,0.8623,,,,,,,,,,,,,,,,,,,,,,,,,,,,,,,,,,"[-0.01980000000000004,-0.5138,-0.38039999999999996]","[-0.6235999999999999,-0.6786,-0.08239999999999992]",62,-105,1,0,0,response3disk,-1,1,1,0,0,rectangle,-1,1,1,0,0,,1,0.0007,0,-1,1,1,0,0,0,2,2,142,1,61,second,,,,,,,,,,,,,,,,,,,,,,,,,,,,,,,,,,,,,,,,,,,,,,,,,,,,,,,,,,,,,,,,,,,,,,,,
,,,,,,6132b4b1f9e3fcb24598b43f,62c539b3710891b46175a7c9,2022-07-06_08h31.05.013,Colour_Asymmetry_Pilot,2022.1.3,Win32,164.5548791,62c50e9c1127f2cd403a315f,,,,,,,,,,,,,,,,,,,,fourthree,,1,1.3591,,,,,,,,,,,,,,,,,,,,,,,,,,,,,,,,,,"[-0.01980000000000004,-0.5138,-0.38039999999999996]","[0.3568,-0.20799999999999996,-0.9844]",79,-131,1,0,0,response3disk,7,-1,1,0,0,rectangle,7,-1,1,0,0,,2,0.0014,0,7,-1,1,0,0,0,3,3,17,1,17,first,,,,,,,,,,,,,,,,,,,,,,,,,,,,,,,,,,,,,,,,,,,,,,,,,,,,,,,,,,,,,,,,,,,,,,,,
,,,,,,6132b4b1f9e3fcb24598b43f,62c539b3710891b46175a7c9,2022-07-06_08h31.05.013,Colour_Asymmetry_Pilot,2022.1.3,Win32,164.5548791,62c50e9c1127f2cd403a315f,,,,,,,,,,,,,,,,,,,,fourtwo,,1,3.788,,,,,,,,,,,,,,,,,,,,,,,,,,,,,,,,,,"[-0.24719999999999998,-0.0354000000000001,0.3175999999999999]","[0.19199999999999995,0.18419999999999992,0.5136000000000001]",62,-135,1,0,0,response3disk,-3,6,1,0,0,rectangle,-3,6,1,0,0,,2,0.0003,0,-3,6,1,0,0,0,4,4,143,1,62,second,,,,,,,,,,,,,,,,,,,,,,,,,,,,,,,,,,,,,,,,,,,,,,,,,,,,,,,,,,,,,,,,,,,,,,,,
,,,,,,6132b4b1f9e3fcb24598b43f,62c539b3710891b46175a7c9,2022-07-06_08h31.05.013,Colour_Asymmetry_Pilot,2022.1.3,Win32,164.5548791,62c50e9c1127f2cd403a315f,,,,,,,,,,,,,,,,,,,,threeone,,-1,0.9994,,,,,,,,,,,,,,,,,,,,,,,,,,,,,,,,,,"[-0.10599999999999998,-0.15300000000000002,0.15280000000000005]","[0.0351999999999999,0.41159999999999997,0.0038000000000000256]",-54,-92,1,0,0,response5disk,1,-7,1,0,0,rectangle,66,-116,1,0,0,1,1,2.2417,1,0,3,1,0,0,0,5,5,55,1,55,first,response3disk_3,rectangle,,,,,,,,,,,,,,,,,,,,,,,,,,,,,,,,,,,,,,,,,,,,,,,,,,,,,,,,,,,,,,,,,,,,,,
,,,,,,6132b4b1f9e3fcb24598b43f,62c539b3710891b46175a7c9,2022-07-06_08h31.05.013,Colour_Asymmetry_Pilot,2022.1.3,Win32,164.5548791,62c50e9c1127f2cd403a315f,,,,,,,,,,,,,,,,,,,,onetwo,,2,1.0298,,,,,,,,,,,,,,,,,,,,,,,,,,,,,,,,,,"[0.3881999999999999,-0.23939999999999995,-0.05040000000000011]","[0.9686000000000001,0.3802000000000001,0.19999999999999996]",131,-54,1,0,0,response3disk,11,9,1,0,0,rectangle,11,9,1,0,0,1,2,0.0013,0,11,9,1,0,0,0,6,6,54,1,54,first,,,,,,,,,,,,,,,,,,,,,,,,,,,,,,,,,,,,,,,,,,,,,,,,,,,,,,,,,,,,,,,,,,,,,,,,
,,,,,,6132b4b1f9e3fcb24598b43f,62c539b3710891b46175a7c9,2022-07-06_08h31.05.013,Colour_Asymmetry_Pilot,2022.1.3,Win32,164.5548791,62c50e9c1127f2cd403a315f,,,,,,,,,,,,,,,,,,,,onethree,,2,0.861,,,,,,,,,,,,,,,,,,,,,,,,,,,,,,,,,,"[-0.20799999999999996,-0.655,-0.01980000000000004]","[-0.24719999999999998,-0.0354000000000001,0.3175999999999999]",147,-45,1,0,0,response3disk,7,0,1,0,0,rectangle,7,0,1,0,0,1,2,9.99999E-05,0,7,0,1,0,0,0,7,7,147,1,66,second,,,,,,,,,,,,,,,,,,,,,,,,,,,,,,,,,,,,,,,,,,,,,,,,,,,,,,,,,,,,,,,,,,,,,,,,
,,,,,,6132b4b1f9e3fcb24598b43f,62c539b3710891b46175a7c9,2022-07-06_08h31.05.013,Colour_Asymmetry_Pilot,2022.1.3,Win32,164.5548791,62c50e9c1127f2cd403a315f,,,,,,,,,,,,,,,,,,,,fourthree,,-3,0.9956,,,,,,,,,,,,,,,,,,,,,,,,,,,,,,,,,,"[0.9213999999999998,0.6391999999999998,-0.9922]","[0.18419999999999992,-0.4276,-0.404]",-90,56,1,0,0,response7disk,13,-17,1,0,0,rectangle,13,-17,1,0,0,1,3,0.0009,0,13,-17,1,0,0,0,8,8,106,1,25,second,,,,,,,,,,,,,,,,,,,,,,,,,,,,,,,,,,,,,,,,,,,,,,,,,,,,,,,,,,,,,,,,,,,,,,,,
,,,,,,6132b4b1f9e3fcb24598b43f,62c539b3710891b46175a7c9,2022-07-06_08h31.05.013,Colour_Asymmetry_Pilot,2022.1.3,Win32,164.5548791,62c50e9c1127f2cd403a315f,,,,,,,,,,,,,,,,,,,,twofour,,3,0.8842,,,,,,,,,,,,,,,,,,,,,,,,,,,,,,,,,,"[0.8274000000000001,-0.5844,-0.9452]","[0.9763999999999999,-0.1137999999999999,-0.6314]",142,50,1,0,0,response1disk,0,6,1,0,0,rectangle,0,6,1,0,0,1,2,0.0006,0,0,6,1,0,0,0,9,9,120,1,39,second,,,,,,,,,,,,,,,,,,,,,,,,,,,,,,,,,,,,,,,,,,,,,,,,,,,,,,,,,,,,,,,,,,,,,,,,
,,,,,,6132b4b1f9e3fcb24598b43f,62c539b3710891b46175a7c9,2022-07-06_08h31.05.013,Colour_Asymmetry_Pilot,2022.1.3,Win32,164.5548791,62c50e9c1127f2cd403a315f,,,,,,,,,,,,,,,,,,,,twoone,,-2,2.3286,,,,,,,,,,,,,,,,,,,,,,,,,,,,,,,,,,"[0.7018,0.7176,0.6155999999999999]","[0.5449999999999999,-0.31000000000000005,-0.0354000000000001]",-118,-71,1,0,0,response5disk,1,6,1,0,0,rectangle,1,6,1,0,0,1,2,0.0001,0,1,6,1,0,0,0,10,10,27,1,27,first,,,,,,,,,,,,,,,,,,,,,,,,,,,,,,,,,,,,,,,,,,,,,,,,,,,,,,,,,,,,,,,,,,,,,,,,
,,,,,,6132b4b1f9e3fcb24598b43f,62c539b3710891b46175a7c9,2022-07-06_08h31.05.013,Colour_Asymmetry_Pilot,2022.1.3,Win32,164.5548791,62c50e9c1127f2cd403a315f,,,,,,,,,,,,,,,,,,,,twofour,,-2,2.9752,,,,,,,,,,,,,,,,,,,,,,,,,,,,,,,,,,"[-0.8198,-0.5138,-0.7492000000000001]","[-0.2942,-0.7648,-0.7492000000000001]",-110,-82,1,0,0,response5disk,-13,-10,1,0,0,rectangle,-13,-10,1,0,0,1,2,9.99999E-05,0,-13,-10,1,0,0,0,11,11,33,1,33,first,,,,,,,,,,,,,,,,,,,,,,,,,,,,,,,,,,,,,,,,,,,,,,,,,,,,,,,,,,,,,,,,,,,,,,,,
,,,,,,6132b4b1f9e3fcb24598b43f,62c539b3710891b46175a7c9,2022-07-06_08h31.05.013,Colour_Asymmetry_Pilot,2022.1.3,Win32,164.5548791,62c50e9c1127f2cd403a315f,,,,,,,,,,,,,,,,,,,,fourtwo,,-3,2.4306,,,,,,,,,,,,,,,,,,,,,,,,,,,,,,,,,,"[-0.6706000000000001,-0.6157999999999999,-0.6786]","[0.7176,-0.906,-0.6864]",-125,43,1,0,0,response7disk,-10,-10,1,0,0,rectangle,-10,-10,1,0,0,1,3,0.0011,0,-10,-10,1,0,0,0,12,12,12,1,12,first,,,,,,,,,,,,,,,,,,,,,,,,,,,,,,,,,,,,,,,,,,,,,,,,,,,,,,,,,,,,,,,,,,,,,,,,
,,,,,,6132b4b1f9e3fcb24598b43f,62c539b3710891b46175a7c9,2022-07-06_08h31.05.013,Colour_Asymmetry_Pilot,2022.1.3,Win32,164.5548791,62c50e9c1127f2cd403a315f,,,,,,,,,,,,,,,,,,,,threeone,,-1,3.2835,,,,,,,,,,,,,,,,,,,,,,,,,,,,,,,,,,"[0.09799999999999986,-0.24719999999999998,0.15280000000000005]","[-0.26280000000000003,-0.4746,-0.2158]",-44,-107,1,0,0,response5disk,-17,-2,1,0,0,rectangle,-17,-2,1,0,0,1,1,0.0011,0,-17,-2,1,0,0,0,13,13,144,1,63,second,,,,,,,,,,,,,,,,,,,,,,,,,,,,,,,,,,,,,,,,,,,,,,,,,,,,,,,,,,,,,,,,,,,,,,,,
,,,,,,6132b4b1f9e3fcb24598b43f,62c539b3710891b46175a7c9,2022-07-06_08h31.05.013,Colour_Asymmetry_Pilot,2022.1.3,Win32,164.5548791,62c50e9c1127f2cd403a315f,,,,,,,,,,,,,,,,,,,,onetwo,,3,0.6482,,,,,,,,,,,,,,,,,,,,,,,,,,,,,,,,,,"[0.6547999999999998,-0.043199999999999905,-0.011800000000000033]","[0.5449999999999999,-0.31000000000000005,-0.0354000000000001]",121,56,1,0,0,response1disk,3,-7,1,0,0,rectangle,3,-7,1,0,0,1,3,0.0006,0,3,-7,1,0,0,0,14,14,72,1,72,first,,,,,,,,,,,,,,,,,,,,,,,,,,,,,,,,,,,,,,,,,,,,,,,,,,,,,,,,,,,,,,,,,,,,,,,,
,,,,,,6132b4b1f9e3fcb24598b43f,62c539b3710891b46175a7c9,2022-07-06_08h31.05.013,Colour_Asymmetry_Pilot,2022.1.3,Win32,164.5548791,62c50e9c1127f2cd403a315f,,,,,,,,,,,,,,,,,,,,threefour,,-1,2.0737,,,,,,,,,,,,,,,,,,,,,,,,,,,,,,,,,,"[0.12939999999999996,-0.2864,0.3253999999999999]","[-0.9296,-0.12959999999999994,-0.043199999999999905]",-70,-113,1,0,0,response5disk,-17,-14,1,0,0,rectangle,-17,-14,1,0,0,1,3,0.0001,0,-17,-14,1,0,0,0,15,15,38,1,38,first,,,,,,,,,,,,,,,,,,,,,,,,,,,,,,,,,,,,,,,,,,,,,,,,,,,,,,,,,,,,,,,,,,,,,,,,
,,,,,,6132b4b1f9e3fcb24598b43f,62c539b3710891b46175a7c9,2022-07-06_08h31.05.013,Colour_Asymmetry_Pilot,2022.1.3,Win32,164.5548791,62c50e9c1127f2cd403a315f,,,,,,,,,,,,,,,,,,,,fourthree,,-3,1.1852,,,,,,,,,,,,,,,,,,,,,,,,,,,,,,,,,,"[0.12939999999999996,-0.2864,0.3253999999999999]","[-0.6706000000000001,-0.6157999999999999,-0.6786]",-94,35,1,0,0,response7disk,-11,6,1,0,0,rectangle,-11,6,1,0,0,1,3,0.0001,0,-11,6,1,0,0,0,16,16,0,1,0,first,,,,,,,,,,,,,,,,,,,,,,,,,,,,,,,,,,,,,,,,,,,,,,,,,,,,,,,,,,,,,,,,,,,,,,,,
