trials.thisRepN,trials.thisTrialN,trials.thisN,trials.thisIndex,trials.ran,Colourcodes,participant,session,date,expName,psychopyVersion,OS,frameRate,study_id,trials_4.thisRepN,trials_4.thisTrialN,trials_4.thisN,trials_4.thisIndex,trials_4.ran,StimulusPos,key_resp.keys,key_resp.rt,key_resp_2.keys,key_resp_2.rt,key_resp_15.keys,key_resp_15.rt,key_resp_17.keys,key_resp_17.rt,key_resp_9.keys,key_resp_9.rt,key_resp_10.keys,key_resp_10.rt,Circle1_col,Ecc,Circle2_col,similarity,response_time,mouse_5.x,mouse_5.y,mouse_5.leftButton,mouse_5.midButton,mouse_5.rightButton,mouse_5.clicked_name,mouse_10.x,mouse_10.y,mouse_10.leftButton,mouse_10.midButton,mouse_10.rightButton,mouse_10.clicked_name,mouse_7.x,mouse_7.y,mouse_7.leftButton,mouse_7.midButton,mouse_7.rightButton,catchnumberprac,mouse_6.x,mouse_6.y,mouse_6.leftButton,mouse_6.midButton,mouse_6.rightButton,duringprac.thisRepN,duringprac.thisTrialN,duringprac.thisN,duringprac.thisIndex,duringprac.ran,mouse_7.clicked_name,catchprac,mouse_6.clicked_name,key_resp_22.keys,key_resp_22.rt,Circle1_colour,Circle2_colour,mouse.x,mouse.y,mouse.leftButton,mouse.midButton,mouse.rightButton,mouse.clicked_name,mouse_2.x,mouse_2.y,mouse_2.leftButton,mouse_2.midButton,mouse_2.rightButton,mouse_2.clicked_name,mouse_3.x,mouse_3.y,mouse_3.leftButton,mouse_3.midButton,mouse_3.rightButton,catchresponse,catchnumber,response_time_catch,Catch,mouse_11.x,mouse_11.y,mouse_11.leftButton,mouse_11.midButton,mouse_11.rightButton,trials_2.thisRepN,trials_2.thisTrialN,trials_2.thisN,trials_2.thisIndex,trials_2.ran,Colourpair,Temporder,mouse_3.clicked_name,mouse_11.clicked_name,trials_3.thisRepN,trials_3.thisTrialN,trials_3.thisN,trials_3.thisIndex,trials_3.ran,key_resp_instr_Ishi.keys,key_resp_instr_Ishi.rt,Ishi_trial_keyresp.keys,Ishi_textbox.text,Ishi_mouse.x,Ishi_mouse.y,Ishi_mouse.leftButton,Ishi_mouse.midButton,Ishi_mouse.rightButton,Ishi_mouse.clicked_name,Ishi_loop.thisRepN,Ishi_loop.thisTrialN,Ishi_loop.thisN,Ishi_loop.thisIndex,Ishi_loop.ran,imageaddress,textbox.text,mouse_4.x,mouse_4.y,mouse_4.leftButton,mouse_4.midButton,mouse_4.rightButton,mouse_4.clicked_name,textbox_2.text,mouse_8.x,mouse_8.y,mouse_8.leftButton,mouse_8.midButton,mouse_8.rightButton,mouse_8.clicked_name,textbox_3.text,mouse_9.x,mouse_9.y,mouse_9.leftButton,mouse_9.midButton,mouse_9.rightButton,mouse_9.clicked_name,textbox_4.text,mouse_12.x,mouse_12.y,mouse_12.leftButton,mouse_12.midButton,mouse_12.rightButton,mouse_12.clicked_name,textbox_5.text,mouse_13.x,mouse_13.y,mouse_13.leftButton,mouse_13.midButton,mouse_13.rightButton,mouse_13.clicked_name,textbox_6.text,mouse_14.x,mouse_14.y,mouse_14.leftButton,mouse_14.midButton,mouse_14.rightButton,mouse_14.clicked_name,textbox_7.text,mouse_15.x,mouse_15.y,mouse_15.leftButton,mouse_15.midButton,mouse_15.rightButton,mouse_15.clicked_name
0,0,0,67,1,,614b9cf9b25cadec95eefee0,62c53a202e79a1004aaf4efa,2022-07-06_01h32.36.557,Colour_Asymmetry_Pilot,2022.1.3,Win32,60.00960154,62c50e9c1127f2cd403a315f,,,,,,,,,,,,,,,,,,,,,,,,,,,,,,,,,,,,,,,,,,,,,,,,,,,,,,,,,,,,,,,,,,,,,,,,,,,,,,,,,,,,,,,,,,,,,,,,,,,,,,,,,,,,,,,,,,,,,,,,,,,,,,,,,,,,,,,,,,,,,,,,,,,,,,,,,,,,,,,,,,,
0,1,1,79,1,,614b9cf9b25cadec95eefee0,62c53a202e79a1004aaf4efa,2022-07-06_01h32.36.557,Colour_Asymmetry_Pilot,2022.1.3,Win32,60.00960154,62c50e9c1127f2cd403a315f,,,,,,,,,,,,,,,,,,,,,,,,,,,,,,,,,,,,,,,,,,,,,,,,,,,,,,,,,,,,,,,,,,,,,,,,,,,,,,,,,,,,,,,,,,,,,,,,,,,,,,,,,,,,,,,,,,,,,,,,,,,,,,,,,,,,,,,,,,,,,,,,,,,,,,,,,,,,,,,,,,,
0,2,2,1,1,,614b9cf9b25cadec95eefee0,62c53a202e79a1004aaf4efa,2022-07-06_01h32.36.557,Colour_Asymmetry_Pilot,2022.1.3,Win32,60.00960154,62c50e9c1127f2cd403a315f,,,,,,,,,,,,,,,,,,,,,,,,,,,,,,,,,,,,,,,,,,,,,,,,,,,,,,,,,,,,,,,,,,,,,,,,,,,,,,,,,,,,,,,,,,,,,,,,,,,,,,,,,,,,,,,,,,,,,,,,,,,,,,,,,,,,,,,,,,,,,,,,,,,,,,,,,,,,,,,,,,,
0,3,3,74,1,,614b9cf9b25cadec95eefee0,62c53a202e79a1004aaf4efa,2022-07-06_01h32.36.557,Colour_Asymmetry_Pilot,2022.1.3,Win32,60.00960154,62c50e9c1127f2cd403a315f,,,,,,,,,,,,,,,,,,,,,,,,,,,,,,,,,,,,,,,,,,,,,,,,,,,,,,,,,,,,,,,,,,,,,,,,,,,,,,,,,,,,,,,,,,,,,,,,,,,,,,,,,,,,,,,,,,,,,,,,,,,,,,,,,,,,,,,,,,,,,,,,,,,,,,,,,,,,,,,,,,,
0,4,4,89,1,,614b9cf9b25cadec95eefee0,62c53a202e79a1004aaf4efa,2022-07-06_01h32.36.557,Colour_Asymmetry_Pilot,2022.1.3,Win32,60.00960154,62c50e9c1127f2cd403a315f,,,,,,,,,,,,,,,,,,,,,,,,,,,,,,,,,,,,,,,,,,,,,,,,,,,,,,,,,,,,,,,,,,,,,,,,,,,,,,,,,,,,,,,,,,,,,,,,,,,,,,,,,,,,,,,,,,,,,,,,,,,,,,,,,,,,,,,,,,,,,,,,,,,,,,,,,,,,,,,,,,,
0,5,5,88,1,,614b9cf9b25cadec95eefee0,62c53a202e79a1004aaf4efa,2022-07-06_01h32.36.557,Colour_Asymmetry_Pilot,2022.1.3,Win32,60.00960154,62c50e9c1127f2cd403a315f,,,,,,,,,,,,,,,,,,,,,,,,,,,,,,,,,,,,,,,,,,,,,,,,,,,,,,,,,,,,,,,,,,,,,,,,,,,,,,,,,,,,,,,,,,,,,,,,,,,,,,,,,,,,,,,,,,,,,,,,,,,,,,,,,,,,,,,,,,,,,,,,,,,,,,,,,,,,,,,,,,,
0,6,6,83,1,,614b9cf9b25cadec95eefee0,62c53a202e79a1004aaf4efa,2022-07-06_01h32.36.557,Colour_Asymmetry_Pilot,2022.1.3,Win32,60.00960154,62c50e9c1127f2cd403a315f,,,,,,,,,,,,,,,,,,,,,,,,,,,,,,,,,,,,,,,,,,,,,,,,,,,,,,,,,,,,,,,,,,,,,,,,,,,,,,,,,,,,,,,,,,,,,,,,,,,,,,,,,,,,,,,,,,,,,,,,,,,,,,,,,,,,,,,,,,,,,,,,,,,,,,,,,,,,,,,,,,,
0,7,7,82,1,,614b9cf9b25cadec95eefee0,62c53a202e79a1004aaf4efa,2022-07-06_01h32.36.557,Colour_Asymmetry_Pilot,2022.1.3,Win32,60.00960154,62c50e9c1127f2cd403a315f,,,,,,,,,,,,,,,,,,,,,,,,,,,,,,,,,,,,,,,,,,,,,,,,,,,,,,,,,,,,,,,,,,,,,,,,,,,,,,,,,,,,,,,,,,,,,,,,,,,,,,,,,,,,,,,,,,,,,,,,,,,,,,,,,,,,,,,,,,,,,,,,,,,,,,,,,,,,,,,,,,,
0,8,8,6,1,,614b9cf9b25cadec95eefee0,62c53a202e79a1004aaf4efa,2022-07-06_01h32.36.557,Colour_Asymmetry_Pilot,2022.1.3,Win32,60.00960154,62c50e9c1127f2cd403a315f,,,,,,,,,,,,,,,,,,,,,,,,,,,,,,,,,,,,,,,,,,,,,,,,,,,,,,,,,,,,,,,,,,,,,,,,,,,,,,,,,,,,,,,,,,,,,,,,,,,,,,,,,,,,,,,,,,,,,,,,,,,,,,,,,,,,,,,,,,,,,,,,,,,,,,,,,,,,,,,,,,,
0,9,9,85,1,,614b9cf9b25cadec95eefee0,62c53a202e79a1004aaf4efa,2022-07-06_01h32.36.557,Colour_Asymmetry_Pilot,2022.1.3,Win32,60.00960154,62c50e9c1127f2cd403a315f,,,,,,,,,,,,,,,,,,,,,,,,,,,,,,,,,,,,,,,,,,,,,,,,,,,,,,,,,,,,,,,,,,,,,,,,,,,,,,,,,,,,,,,,,,,,,,,,,,,,,,,,,,,,,,,,,,,,,,,,,,,,,,,,,,,,,,,,,,,,,,,,,,,,,,,,,,,,,,,,,,,
0,10,10,45,1,,614b9cf9b25cadec95eefee0,62c53a202e79a1004aaf4efa,2022-07-06_01h32.36.557,Colour_Asymmetry_Pilot,2022.1.3,Win32,60.00960154,62c50e9c1127f2cd403a315f,,,,,,,,,,,,,,,,,,,,,,,,,,,,,,,,,,,,,,,,,,,,,,,,,,,,,,,,,,,,,,,,,,,,,,,,,,,,,,,,,,,,,,,,,,,,,,,,,,,,,,,,,,,,,,,,,,,,,,,,,,,,,,,,,,,,,,,,,,,,,,,,,,,,,,,,,,,,,,,,,,,
0,11,11,40,1,,614b9cf9b25cadec95eefee0,62c53a202e79a1004aaf4efa,2022-07-06_01h32.36.557,Colour_Asymmetry_Pilot,2022.1.3,Win32,60.00960154,62c50e9c1127f2cd403a315f,,,,,,,,,,,,,,,,,,,,,,,,,,,,,,,,,,,,,,,,,,,,,,,,,,,,,,,,,,,,,,,,,,,,,,,,,,,,,,,,,,,,,,,,,,,,,,,,,,,,,,,,,,,,,,,,,,,,,,,,,,,,,,,,,,,,,,,,,,,,,,,,,,,,,,,,,,,,,,,,,,,
0,12,12,73,1,,614b9cf9b25cadec95eefee0,62c53a202e79a1004aaf4efa,2022-07-06_01h32.36.557,Colour_Asymmetry_Pilot,2022.1.3,Win32,60.00960154,62c50e9c1127f2cd403a315f,,,,,,,,,,,,,,,,,,,,,,,,,,,,,,,,,,,,,,,,,,,,,,,,,,,,,,,,,,,,,,,,,,,,,,,,,,,,,,,,,,,,,,,,,,,,,,,,,,,,,,,,,,,,,,,,,,,,,,,,,,,,,,,,,,,,,,,,,,,,,,,,,,,,,,,,,,,,,,,,,,,
0,13,13,51,1,,614b9cf9b25cadec95eefee0,62c53a202e79a1004aaf4efa,2022-07-06_01h32.36.557,Colour_Asymmetry_Pilot,2022.1.3,Win32,60.00960154,62c50e9c1127f2cd403a315f,,,,,,,,,,,,,,,,,,,,,,,,,,,,,,,,,,,,,,,,,,,,,,,,,,,,,,,,,,,,,,,,,,,,,,,,,,,,,,,,,,,,,,,,,,,,,,,,,,,,,,,,,,,,,,,,,,,,,,,,,,,,,,,,,,,,,,,,,,,,,,,,,,,,,,,,,,,,,,,,,,,
0,14,14,21,1,,614b9cf9b25cadec95eefee0,62c53a202e79a1004aaf4efa,2022-07-06_01h32.36.557,Colour_Asymmetry_Pilot,2022.1.3,Win32,60.00960154,62c50e9c1127f2cd403a315f,,,,,,,,,,,,,,,,,,,,,,,,,,,,,,,,,,,,,,,,,,,,,,,,,,,,,,,,,,,,,,,,,,,,,,,,,,,,,,,,,,,,,,,,,,,,,,,,,,,,,,,,,,,,,,,,,,,,,,,,,,,,,,,,,,,,,,,,,,,,,,,,,,,,,,,,,,,,,,,,,,,
0,15,15,29,1,,614b9cf9b25cadec95eefee0,62c53a202e79a1004aaf4efa,2022-07-06_01h32.36.557,Colour_Asymmetry_Pilot,2022.1.3,Win32,60.00960154,62c50e9c1127f2cd403a315f,,,,,,,,,,,,,,,,,,,,,,,,,,,,,,,,,,,,,,,,,,,,,,,,,,,,,,,,,,,,,,,,,,,,,,,,,,,,,,,,,,,,,,,,,,,,,,,,,,,,,,,,,,,,,,,,,,,,,,,,,,,,,,,,,,,,,,,,,,,,,,,,,,,,,,,,,,,,,,,,,,,
0,16,16,68,1,,614b9cf9b25cadec95eefee0,62c53a202e79a1004aaf4efa,2022-07-06_01h32.36.557,Colour_Asymmetry_Pilot,2022.1.3,Win32,60.00960154,62c50e9c1127f2cd403a315f,,,,,,,,,,,,,,,,,,,,,,,,,,,,,,,,,,,,,,,,,,,,,,,,,,,,,,,,,,,,,,,,,,,,,,,,,,,,,,,,,,,,,,,,,,,,,,,,,,,,,,,,,,,,,,,,,,,,,,,,,,,,,,,,,,,,,,,,,,,,,,,,,,,,,,,,,,,,,,,,,,,
0,17,17,34,1,,614b9cf9b25cadec95eefee0,62c53a202e79a1004aaf4efa,2022-07-06_01h32.36.557,Colour_Asymmetry_Pilot,2022.1.3,Win32,60.00960154,62c50e9c1127f2cd403a315f,,,,,,,,,,,,,,,,,,,,,,,,,,,,,,,,,,,,,,,,,,,,,,,,,,,,,,,,,,,,,,,,,,,,,,,,,,,,,,,,,,,,,,,,,,,,,,,,,,,,,,,,,,,,,,,,,,,,,,,,,,,,,,,,,,,,,,,,,,,,,,,,,,,,,,,,,,,,,,,,,,,
0,18,18,37,1,,614b9cf9b25cadec95eefee0,62c53a202e79a1004aaf4efa,2022-07-06_01h32.36.557,Colour_Asymmetry_Pilot,2022.1.3,Win32,60.00960154,62c50e9c1127f2cd403a315f,,,,,,,,,,,,,,,,,,,,,,,,,,,,,,,,,,,,,,,,,,,,,,,,,,,,,,,,,,,,,,,,,,,,,,,,,,,,,,,,,,,,,,,,,,,,,,,,,,,,,,,,,,,,,,,,,,,,,,,,,,,,,,,,,,,,,,,,,,,,,,,,,,,,,,,,,,,,,,,,,,,
0,19,19,49,1,,614b9cf9b25cadec95eefee0,62c53a202e79a1004aaf4efa,2022-07-06_01h32.36.557,Colour_Asymmetry_Pilot,2022.1.3,Win32,60.00960154,62c50e9c1127f2cd403a315f,,,,,,,,,,,,,,,,,,,,,,,,,,,,,,,,,,,,,,,,,,,,,,,,,,,,,,,,,,,,,,,,,,,,,,,,,,,,,,,,,,,,,,,,,,,,,,,,,,,,,,,,,,,,,,,,,,,,,,,,,,,,,,,,,,,,,,,,,,,,,,,,,,,,,,,,,,,,,,,,,,,
0,20,20,44,1,,614b9cf9b25cadec95eefee0,62c53a202e79a1004aaf4efa,2022-07-06_01h32.36.557,Colour_Asymmetry_Pilot,2022.1.3,Win32,60.00960154,62c50e9c1127f2cd403a315f,,,,,,,,,,,,,,,,,,,,,,,,,,,,,,,,,,,,,,,,,,,,,,,,,,,,,,,,,,,,,,,,,,,,,,,,,,,,,,,,,,,,,,,,,,,,,,,,,,,,,,,,,,,,,,,,,,,,,,,,,,,,,,,,,,,,,,,,,,,,,,,,,,,,,,,,,,,,,,,,,,,
0,21,21,24,1,,614b9cf9b25cadec95eefee0,62c53a202e79a1004aaf4efa,2022-07-06_01h32.36.557,Colour_Asymmetry_Pilot,2022.1.3,Win32,60.00960154,62c50e9c1127f2cd403a315f,,,,,,,,,,,,,,,,,,,,,,,,,,,,,,,,,,,,,,,,,,,,,,,,,,,,,,,,,,,,,,,,,,,,,,,,,,,,,,,,,,,,,,,,,,,,,,,,,,,,,,,,,,,,,,,,,,,,,,,,,,,,,,,,,,,,,,,,,,,,,,,,,,,,,,,,,,,,,,,,,,,
0,22,22,11,1,,614b9cf9b25cadec95eefee0,62c53a202e79a1004aaf4efa,2022-07-06_01h32.36.557,Colour_Asymmetry_Pilot,2022.1.3,Win32,60.00960154,62c50e9c1127f2cd403a315f,,,,,,,,,,,,,,,,,,,,,,,,,,,,,,,,,,,,,,,,,,,,,,,,,,,,,,,,,,,,,,,,,,,,,,,,,,,,,,,,,,,,,,,,,,,,,,,,,,,,,,,,,,,,,,,,,,,,,,,,,,,,,,,,,,,,,,,,,,,,,,,,,,,,,,,,,,,,,,,,,,,
0,23,23,64,1,,614b9cf9b25cadec95eefee0,62c53a202e79a1004aaf4efa,2022-07-06_01h32.36.557,Colour_Asymmetry_Pilot,2022.1.3,Win32,60.00960154,62c50e9c1127f2cd403a315f,,,,,,,,,,,,,,,,,,,,,,,,,,,,,,,,,,,,,,,,,,,,,,,,,,,,,,,,,,,,,,,,,,,,,,,,,,,,,,,,,,,,,,,,,,,,,,,,,,,,,,,,,,,,,,,,,,,,,,,,,,,,,,,,,,,,,,,,,,,,,,,,,,,,,,,,,,,,,,,,,,,
0,24,24,77,1,,614b9cf9b25cadec95eefee0,62c53a202e79a1004aaf4efa,2022-07-06_01h32.36.557,Colour_Asymmetry_Pilot,2022.1.3,Win32,60.00960154,62c50e9c1127f2cd403a315f,,,,,,,,,,,,,,,,,,,,,,,,,,,,,,,,,,,,,,,,,,,,,,,,,,,,,,,,,,,,,,,,,,,,,,,,,,,,,,,,,,,,,,,,,,,,,,,,,,,,,,,,,,,,,,,,,,,,,,,,,,,,,,,,,,,,,,,,,,,,,,,,,,,,,,,,,,,,,,,,,,,
0,25,25,5,1,,614b9cf9b25cadec95eefee0,62c53a202e79a1004aaf4efa,2022-07-06_01h32.36.557,Colour_Asymmetry_Pilot,2022.1.3,Win32,60.00960154,62c50e9c1127f2cd403a315f,,,,,,,,,,,,,,,,,,,,,,,,,,,,,,,,,,,,,,,,,,,,,,,,,,,,,,,,,,,,,,,,,,,,,,,,,,,,,,,,,,,,,,,,,,,,,,,,,,,,,,,,,,,,,,,,,,,,,,,,,,,,,,,,,,,,,,,,,,,,,,,,,,,,,,,,,,,,,,,,,,,
0,26,26,26,1,,614b9cf9b25cadec95eefee0,62c53a202e79a1004aaf4efa,2022-07-06_01h32.36.557,Colour_Asymmetry_Pilot,2022.1.3,Win32,60.00960154,62c50e9c1127f2cd403a315f,,,,,,,,,,,,,,,,,,,,,,,,,,,,,,,,,,,,,,,,,,,,,,,,,,,,,,,,,,,,,,,,,,,,,,,,,,,,,,,,,,,,,,,,,,,,,,,,,,,,,,,,,,,,,,,,,,,,,,,,,,,,,,,,,,,,,,,,,,,,,,,,,,,,,,,,,,,,,,,,,,,
0,27,27,42,1,,614b9cf9b25cadec95eefee0,62c53a202e79a1004aaf4efa,2022-07-06_01h32.36.557,Colour_Asymmetry_Pilot,2022.1.3,Win32,60.00960154,62c50e9c1127f2cd403a315f,,,,,,,,,,,,,,,,,,,,,,,,,,,,,,,,,,,,,,,,,,,,,,,,,,,,,,,,,,,,,,,,,,,,,,,,,,,,,,,,,,,,,,,,,,,,,,,,,,,,,,,,,,,,,,,,,,,,,,,,,,,,,,,,,,,,,,,,,,,,,,,,,,,,,,,,,,,,,,,,,,,
0,28,28,9,1,,614b9cf9b25cadec95eefee0,62c53a202e79a1004aaf4efa,2022-07-06_01h32.36.557,Colour_Asymmetry_Pilot,2022.1.3,Win32,60.00960154,62c50e9c1127f2cd403a315f,,,,,,,,,,,,,,,,,,,,,,,,,,,,,,,,,,,,,,,,,,,,,,,,,,,,,,,,,,,,,,,,,,,,,,,,,,,,,,,,,,,,,,,,,,,,,,,,,,,,,,,,,,,,,,,,,,,,,,,,,,,,,,,,,,,,,,,,,,,,,,,,,,,,,,,,,,,,,,,,,,,
0,29,29,15,1,,614b9cf9b25cadec95eefee0,62c53a202e79a1004aaf4efa,2022-07-06_01h32.36.557,Colour_Asymmetry_Pilot,2022.1.3,Win32,60.00960154,62c50e9c1127f2cd403a315f,,,,,,,,,,,,,,,,,,,,,,,,,,,,,,,,,,,,,,,,,,,,,,,,,,,,,,,,,,,,,,,,,,,,,,,,,,,,,,,,,,,,,,,,,,,,,,,,,,,,,,,,,,,,,,,,,,,,,,,,,,,,,,,,,,,,,,,,,,,,,,,,,,,,,,,,,,,,,,,,,,,
0,30,30,2,1,,614b9cf9b25cadec95eefee0,62c53a202e79a1004aaf4efa,2022-07-06_01h32.36.557,Colour_Asymmetry_Pilot,2022.1.3,Win32,60.00960154,62c50e9c1127f2cd403a315f,,,,,,,,,,,,,,,,,,,,,,,,,,,,,,,,,,,,,,,,,,,,,,,,,,,,,,,,,,,,,,,,,,,,,,,,,,,,,,,,,,,,,,,,,,,,,,,,,,,,,,,,,,,,,,,,,,,,,,,,,,,,,,,,,,,,,,,,,,,,,,,,,,,,,,,,,,,,,,,,,,,
0,31,31,33,1,,614b9cf9b25cadec95eefee0,62c53a202e79a1004aaf4efa,2022-07-06_01h32.36.557,Colour_Asymmetry_Pilot,2022.1.3,Win32,60.00960154,62c50e9c1127f2cd403a315f,,,,,,,,,,,,,,,,,,,,,,,,,,,,,,,,,,,,,,,,,,,,,,,,,,,,,,,,,,,,,,,,,,,,,,,,,,,,,,,,,,,,,,,,,,,,,,,,,,,,,,,,,,,,,,,,,,,,,,,,,,,,,,,,,,,,,,,,,,,,,,,,,,,,,,,,,,,,,,,,,,,
0,32,32,46,1,,614b9cf9b25cadec95eefee0,62c53a202e79a1004aaf4efa,2022-07-06_01h32.36.557,Colour_Asymmetry_Pilot,2022.1.3,Win32,60.00960154,62c50e9c1127f2cd403a315f,,,,,,,,,,,,,,,,,,,,,,,,,,,,,,,,,,,,,,,,,,,,,,,,,,,,,,,,,,,,,,,,,,,,,,,,,,,,,,,,,,,,,,,,,,,,,,,,,,,,,,,,,,,,,,,,,,,,,,,,,,,,,,,,,,,,,,,,,,,,,,,,,,,,,,,,,,,,,,,,,,,
0,33,33,52,1,,614b9cf9b25cadec95eefee0,62c53a202e79a1004aaf4efa,2022-07-06_01h32.36.557,Colour_Asymmetry_Pilot,2022.1.3,Win32,60.00960154,62c50e9c1127f2cd403a315f,,,,,,,,,,,,,,,,,,,,,,,,,,,,,,,,,,,,,,,,,,,,,,,,,,,,,,,,,,,,,,,,,,,,,,,,,,,,,,,,,,,,,,,,,,,,,,,,,,,,,,,,,,,,,,,,,,,,,,,,,,,,,,,,,,,,,,,,,,,,,,,,,,,,,,,,,,,,,,,,,,,
0,34,34,57,1,,614b9cf9b25cadec95eefee0,62c53a202e79a1004aaf4efa,2022-07-06_01h32.36.557,Colour_Asymmetry_Pilot,2022.1.3,Win32,60.00960154,62c50e9c1127f2cd403a315f,,,,,,,,,,,,,,,,,,,,,,,,,,,,,,,,,,,,,,,,,,,,,,,,,,,,,,,,,,,,,,,,,,,,,,,,,,,,,,,,,,,,,,,,,,,,,,,,,,,,,,,,,,,,,,,,,,,,,,,,,,,,,,,,,,,,,,,,,,,,,,,,,,,,,,,,,,,,,,,,,,,
0,35,35,76,1,,614b9cf9b25cadec95eefee0,62c53a202e79a1004aaf4efa,2022-07-06_01h32.36.557,Colour_Asymmetry_Pilot,2022.1.3,Win32,60.00960154,62c50e9c1127f2cd403a315f,,,,,,,,,,,,,,,,,,,,,,,,,,,,,,,,,,,,,,,,,,,,,,,,,,,,,,,,,,,,,,,,,,,,,,,,,,,,,,,,,,,,,,,,,,,,,,,,,,,,,,,,,,,,,,,,,,,,,,,,,,,,,,,,,,,,,,,,,,,,,,,,,,,,,,,,,,,,,,,,,,,
0,36,36,78,1,,614b9cf9b25cadec95eefee0,62c53a202e79a1004aaf4efa,2022-07-06_01h32.36.557,Colour_Asymmetry_Pilot,2022.1.3,Win32,60.00960154,62c50e9c1127f2cd403a315f,,,,,,,,,,,,,,,,,,,,,,,,,,,,,,,,,,,,,,,,,,,,,,,,,,,,,,,,,,,,,,,,,,,,,,,,,,,,,,,,,,,,,,,,,,,,,,,,,,,,,,,,,,,,,,,,,,,,,,,,,,,,,,,,,,,,,,,,,,,,,,,,,,,,,,,,,,,,,,,,,,,
0,37,37,61,1,,614b9cf9b25cadec95eefee0,62c53a202e79a1004aaf4efa,2022-07-06_01h32.36.557,Colour_Asymmetry_Pilot,2022.1.3,Win32,60.00960154,62c50e9c1127f2cd403a315f,,,,,,,,,,,,,,,,,,,,,,,,,,,,,,,,,,,,,,,,,,,,,,,,,,,,,,,,,,,,,,,,,,,,,,,,,,,,,,,,,,,,,,,,,,,,,,,,,,,,,,,,,,,,,,,,,,,,,,,,,,,,,,,,,,,,,,,,,,,,,,,,,,,,,,,,,,,,,,,,,,,
0,38,38,72,1,,614b9cf9b25cadec95eefee0,62c53a202e79a1004aaf4efa,2022-07-06_01h32.36.557,Colour_Asymmetry_Pilot,2022.1.3,Win32,60.00960154,62c50e9c1127f2cd403a315f,,,,,,,,,,,,,,,,,,,,,,,,,,,,,,,,,,,,,,,,,,,,,,,,,,,,,,,,,,,,,,,,,,,,,,,,,,,,,,,,,,,,,,,,,,,,,,,,,,,,,,,,,,,,,,,,,,,,,,,,,,,,,,,,,,,,,,,,,,,,,,,,,,,,,,,,,,,,,,,,,,,
0,39,39,3,1,,614b9cf9b25cadec95eefee0,62c53a202e79a1004aaf4efa,2022-07-06_01h32.36.557,Colour_Asymmetry_Pilot,2022.1.3,Win32,60.00960154,62c50e9c1127f2cd403a315f,,,,,,,,,,,,,,,,,,,,,,,,,,,,,,,,,,,,,,,,,,,,,,,,,,,,,,,,,,,,,,,,,,,,,,,,,,,,,,,,,,,,,,,,,,,,,,,,,,,,,,,,,,,,,,,,,,,,,,,,,,,,,,,,,,,,,,,,,,,,,,,,,,,,,,,,,,,,,,,,,,,
0,40,40,35,1,,614b9cf9b25cadec95eefee0,62c53a202e79a1004aaf4efa,2022-07-06_01h32.36.557,Colour_Asymmetry_Pilot,2022.1.3,Win32,60.00960154,62c50e9c1127f2cd403a315f,,,,,,,,,,,,,,,,,,,,,,,,,,,,,,,,,,,,,,,,,,,,,,,,,,,,,,,,,,,,,,,,,,,,,,,,,,,,,,,,,,,,,,,,,,,,,,,,,,,,,,,,,,,,,,,,,,,,,,,,,,,,,,,,,,,,,,,,,,,,,,,,,,,,,,,,,,,,,,,,,,,
0,41,41,28,1,,614b9cf9b25cadec95eefee0,62c53a202e79a1004aaf4efa,2022-07-06_01h32.36.557,Colour_Asymmetry_Pilot,2022.1.3,Win32,60.00960154,62c50e9c1127f2cd403a315f,,,,,,,,,,,,,,,,,,,,,,,,,,,,,,,,,,,,,,,,,,,,,,,,,,,,,,,,,,,,,,,,,,,,,,,,,,,,,,,,,,,,,,,,,,,,,,,,,,,,,,,,,,,,,,,,,,,,,,,,,,,,,,,,,,,,,,,,,,,,,,,,,,,,,,,,,,,,,,,,,,,
0,42,42,16,1,,614b9cf9b25cadec95eefee0,62c53a202e79a1004aaf4efa,2022-07-06_01h32.36.557,Colour_Asymmetry_Pilot,2022.1.3,Win32,60.00960154,62c50e9c1127f2cd403a315f,,,,,,,,,,,,,,,,,,,,,,,,,,,,,,,,,,,,,,,,,,,,,,,,,,,,,,,,,,,,,,,,,,,,,,,,,,,,,,,,,,,,,,,,,,,,,,,,,,,,,,,,,,,,,,,,,,,,,,,,,,,,,,,,,,,,,,,,,,,,,,,,,,,,,,,,,,,,,,,,,,,
0,43,43,41,1,,614b9cf9b25cadec95eefee0,62c53a202e79a1004aaf4efa,2022-07-06_01h32.36.557,Colour_Asymmetry_Pilot,2022.1.3,Win32,60.00960154,62c50e9c1127f2cd403a315f,,,,,,,,,,,,,,,,,,,,,,,,,,,,,,,,,,,,,,,,,,,,,,,,,,,,,,,,,,,,,,,,,,,,,,,,,,,,,,,,,,,,,,,,,,,,,,,,,,,,,,,,,,,,,,,,,,,,,,,,,,,,,,,,,,,,,,,,,,,,,,,,,,,,,,,,,,,,,,,,,,,
0,44,44,58,1,,614b9cf9b25cadec95eefee0,62c53a202e79a1004aaf4efa,2022-07-06_01h32.36.557,Colour_Asymmetry_Pilot,2022.1.3,Win32,60.00960154,62c50e9c1127f2cd403a315f,,,,,,,,,,,,,,,,,,,,,,,,,,,,,,,,,,,,,,,,,,,,,,,,,,,,,,,,,,,,,,,,,,,,,,,,,,,,,,,,,,,,,,,,,,,,,,,,,,,,,,,,,,,,,,,,,,,,,,,,,,,,,,,,,,,,,,,,,,,,,,,,,,,,,,,,,,,,,,,,,,,
0,45,45,7,1,,614b9cf9b25cadec95eefee0,62c53a202e79a1004aaf4efa,2022-07-06_01h32.36.557,Colour_Asymmetry_Pilot,2022.1.3,Win32,60.00960154,62c50e9c1127f2cd403a315f,,,,,,,,,,,,,,,,,,,,,,,,,,,,,,,,,,,,,,,,,,,,,,,,,,,,,,,,,,,,,,,,,,,,,,,,,,,,,,,,,,,,,,,,,,,,,,,,,,,,,,,,,,,,,,,,,,,,,,,,,,,,,,,,,,,,,,,,,,,,,,,,,,,,,,,,,,,,,,,,,,,
0,46,46,53,1,,614b9cf9b25cadec95eefee0,62c53a202e79a1004aaf4efa,2022-07-06_01h32.36.557,Colour_Asymmetry_Pilot,2022.1.3,Win32,60.00960154,62c50e9c1127f2cd403a315f,,,,,,,,,,,,,,,,,,,,,,,,,,,,,,,,,,,,,,,,,,,,,,,,,,,,,,,,,,,,,,,,,,,,,,,,,,,,,,,,,,,,,,,,,,,,,,,,,,,,,,,,,,,,,,,,,,,,,,,,,,,,,,,,,,,,,,,,,,,,,,,,,,,,,,,,,,,,,,,,,,,
0,47,47,69,1,,614b9cf9b25cadec95eefee0,62c53a202e79a1004aaf4efa,2022-07-06_01h32.36.557,Colour_Asymmetry_Pilot,2022.1.3,Win32,60.00960154,62c50e9c1127f2cd403a315f,,,,,,,,,,,,,,,,,,,,,,,,,,,,,,,,,,,,,,,,,,,,,,,,,,,,,,,,,,,,,,,,,,,,,,,,,,,,,,,,,,,,,,,,,,,,,,,,,,,,,,,,,,,,,,,,,,,,,,,,,,,,,,,,,,,,,,,,,,,,,,,,,,,,,,,,,,,,,,,,,,,
0,48,48,13,1,,614b9cf9b25cadec95eefee0,62c53a202e79a1004aaf4efa,2022-07-06_01h32.36.557,Colour_Asymmetry_Pilot,2022.1.3,Win32,60.00960154,62c50e9c1127f2cd403a315f,,,,,,,,,,,,,,,,,,,,,,,,,,,,,,,,,,,,,,,,,,,,,,,,,,,,,,,,,,,,,,,,,,,,,,,,,,,,,,,,,,,,,,,,,,,,,,,,,,,,,,,,,,,,,,,,,,,,,,,,,,,,,,,,,,,,,,,,,,,,,,,,,,,,,,,,,,,,,,,,,,,
0,49,49,75,1,,614b9cf9b25cadec95eefee0,62c53a202e79a1004aaf4efa,2022-07-06_01h32.36.557,Colour_Asymmetry_Pilot,2022.1.3,Win32,60.00960154,62c50e9c1127f2cd403a315f,,,,,,,,,,,,,,,,,,,,,,,,,,,,,,,,,,,,,,,,,,,,,,,,,,,,,,,,,,,,,,,,,,,,,,,,,,,,,,,,,,,,,,,,,,,,,,,,,,,,,,,,,,,,,,,,,,,,,,,,,,,,,,,,,,,,,,,,,,,,,,,,,,,,,,,,,,,,,,,,,,,
0,50,50,59,1,,614b9cf9b25cadec95eefee0,62c53a202e79a1004aaf4efa,2022-07-06_01h32.36.557,Colour_Asymmetry_Pilot,2022.1.3,Win32,60.00960154,62c50e9c1127f2cd403a315f,,,,,,,,,,,,,,,,,,,,,,,,,,,,,,,,,,,,,,,,,,,,,,,,,,,,,,,,,,,,,,,,,,,,,,,,,,,,,,,,,,,,,,,,,,,,,,,,,,,,,,,,,,,,,,,,,,,,,,,,,,,,,,,,,,,,,,,,,,,,,,,,,,,,,,,,,,,,,,,,,,,
0,51,51,81,1,,614b9cf9b25cadec95eefee0,62c53a202e79a1004aaf4efa,2022-07-06_01h32.36.557,Colour_Asymmetry_Pilot,2022.1.3,Win32,60.00960154,62c50e9c1127f2cd403a315f,,,,,,,,,,,,,,,,,,,,,,,,,,,,,,,,,,,,,,,,,,,,,,,,,,,,,,,,,,,,,,,,,,,,,,,,,,,,,,,,,,,,,,,,,,,,,,,,,,,,,,,,,,,,,,,,,,,,,,,,,,,,,,,,,,,,,,,,,,,,,,,,,,,,,,,,,,,,,,,,,,,
0,52,52,62,1,,614b9cf9b25cadec95eefee0,62c53a202e79a1004aaf4efa,2022-07-06_01h32.36.557,Colour_Asymmetry_Pilot,2022.1.3,Win32,60.00960154,62c50e9c1127f2cd403a315f,,,,,,,,,,,,,,,,,,,,,,,,,,,,,,,,,,,,,,,,,,,,,,,,,,,,,,,,,,,,,,,,,,,,,,,,,,,,,,,,,,,,,,,,,,,,,,,,,,,,,,,,,,,,,,,,,,,,,,,,,,,,,,,,,,,,,,,,,,,,,,,,,,,,,,,,,,,,,,,,,,,
0,53,53,84,1,,614b9cf9b25cadec95eefee0,62c53a202e79a1004aaf4efa,2022-07-06_01h32.36.557,Colour_Asymmetry_Pilot,2022.1.3,Win32,60.00960154,62c50e9c1127f2cd403a315f,,,,,,,,,,,,,,,,,,,,,,,,,,,,,,,,,,,,,,,,,,,,,,,,,,,,,,,,,,,,,,,,,,,,,,,,,,,,,,,,,,,,,,,,,,,,,,,,,,,,,,,,,,,,,,,,,,,,,,,,,,,,,,,,,,,,,,,,,,,,,,,,,,,,,,,,,,,,,,,,,,,
0,54,54,87,1,,614b9cf9b25cadec95eefee0,62c53a202e79a1004aaf4efa,2022-07-06_01h32.36.557,Colour_Asymmetry_Pilot,2022.1.3,Win32,60.00960154,62c50e9c1127f2cd403a315f,,,,,,,,,,,,,,,,,,,,,,,,,,,,,,,,,,,,,,,,,,,,,,,,,,,,,,,,,,,,,,,,,,,,,,,,,,,,,,,,,,,,,,,,,,,,,,,,,,,,,,,,,,,,,,,,,,,,,,,,,,,,,,,,,,,,,,,,,,,,,,,,,,,,,,,,,,,,,,,,,,,
0,55,55,22,1,,614b9cf9b25cadec95eefee0,62c53a202e79a1004aaf4efa,2022-07-06_01h32.36.557,Colour_Asymmetry_Pilot,2022.1.3,Win32,60.00960154,62c50e9c1127f2cd403a315f,,,,,,,,,,,,,,,,,,,,,,,,,,,,,,,,,,,,,,,,,,,,,,,,,,,,,,,,,,,,,,,,,,,,,,,,,,,,,,,,,,,,,,,,,,,,,,,,,,,,,,,,,,,,,,,,,,,,,,,,,,,,,,,,,,,,,,,,,,,,,,,,,,,,,,,,,,,,,,,,,,,
0,56,56,65,1,,614b9cf9b25cadec95eefee0,62c53a202e79a1004aaf4efa,2022-07-06_01h32.36.557,Colour_Asymmetry_Pilot,2022.1.3,Win32,60.00960154,62c50e9c1127f2cd403a315f,,,,,,,,,,,,,,,,,,,,,,,,,,,,,,,,,,,,,,,,,,,,,,,,,,,,,,,,,,,,,,,,,,,,,,,,,,,,,,,,,,,,,,,,,,,,,,,,,,,,,,,,,,,,,,,,,,,,,,,,,,,,,,,,,,,,,,,,,,,,,,,,,,,,,,,,,,,,,,,,,,,
0,57,57,20,1,,614b9cf9b25cadec95eefee0,62c53a202e79a1004aaf4efa,2022-07-06_01h32.36.557,Colour_Asymmetry_Pilot,2022.1.3,Win32,60.00960154,62c50e9c1127f2cd403a315f,,,,,,,,,,,,,,,,,,,,,,,,,,,,,,,,,,,,,,,,,,,,,,,,,,,,,,,,,,,,,,,,,,,,,,,,,,,,,,,,,,,,,,,,,,,,,,,,,,,,,,,,,,,,,,,,,,,,,,,,,,,,,,,,,,,,,,,,,,,,,,,,,,,,,,,,,,,,,,,,,,,
0,58,58,80,1,,614b9cf9b25cadec95eefee0,62c53a202e79a1004aaf4efa,2022-07-06_01h32.36.557,Colour_Asymmetry_Pilot,2022.1.3,Win32,60.00960154,62c50e9c1127f2cd403a315f,,,,,,,,,,,,,,,,,,,,,,,,,,,,,,,,,,,,,,,,,,,,,,,,,,,,,,,,,,,,,,,,,,,,,,,,,,,,,,,,,,,,,,,,,,,,,,,,,,,,,,,,,,,,,,,,,,,,,,,,,,,,,,,,,,,,,,,,,,,,,,,,,,,,,,,,,,,,,,,,,,,
0,59,59,36,1,,614b9cf9b25cadec95eefee0,62c53a202e79a1004aaf4efa,2022-07-06_01h32.36.557,Colour_Asymmetry_Pilot,2022.1.3,Win32,60.00960154,62c50e9c1127f2cd403a315f,,,,,,,,,,,,,,,,,,,,,,,,,,,,,,,,,,,,,,,,,,,,,,,,,,,,,,,,,,,,,,,,,,,,,,,,,,,,,,,,,,,,,,,,,,,,,,,,,,,,,,,,,,,,,,,,,,,,,,,,,,,,,,,,,,,,,,,,,,,,,,,,,,,,,,,,,,,,,,,,,,,
0,60,60,10,1,,614b9cf9b25cadec95eefee0,62c53a202e79a1004aaf4efa,2022-07-06_01h32.36.557,Colour_Asymmetry_Pilot,2022.1.3,Win32,60.00960154,62c50e9c1127f2cd403a315f,,,,,,,,,,,,,,,,,,,,,,,,,,,,,,,,,,,,,,,,,,,,,,,,,,,,,,,,,,,,,,,,,,,,,,,,,,,,,,,,,,,,,,,,,,,,,,,,,,,,,,,,,,,,,,,,,,,,,,,,,,,,,,,,,,,,,,,,,,,,,,,,,,,,,,,,,,,,,,,,,,,
0,61,61,18,1,,614b9cf9b25cadec95eefee0,62c53a202e79a1004aaf4efa,2022-07-06_01h32.36.557,Colour_Asymmetry_Pilot,2022.1.3,Win32,60.00960154,62c50e9c1127f2cd403a315f,,,,,,,,,,,,,,,,,,,,,,,,,,,,,,,,,,,,,,,,,,,,,,,,,,,,,,,,,,,,,,,,,,,,,,,,,,,,,,,,,,,,,,,,,,,,,,,,,,,,,,,,,,,,,,,,,,,,,,,,,,,,,,,,,,,,,,,,,,,,,,,,,,,,,,,,,,,,,,,,,,,
0,62,62,38,1,,614b9cf9b25cadec95eefee0,62c53a202e79a1004aaf4efa,2022-07-06_01h32.36.557,Colour_Asymmetry_Pilot,2022.1.3,Win32,60.00960154,62c50e9c1127f2cd403a315f,,,,,,,,,,,,,,,,,,,,,,,,,,,,,,,,,,,,,,,,,,,,,,,,,,,,,,,,,,,,,,,,,,,,,,,,,,,,,,,,,,,,,,,,,,,,,,,,,,,,,,,,,,,,,,,,,,,,,,,,,,,,,,,,,,,,,,,,,,,,,,,,,,,,,,,,,,,,,,,,,,,
0,63,63,17,1,,614b9cf9b25cadec95eefee0,62c53a202e79a1004aaf4efa,2022-07-06_01h32.36.557,Colour_Asymmetry_Pilot,2022.1.3,Win32,60.00960154,62c50e9c1127f2cd403a315f,,,,,,,,,,,,,,,,,,,,,,,,,,,,,,,,,,,,,,,,,,,,,,,,,,,,,,,,,,,,,,,,,,,,,,,,,,,,,,,,,,,,,,,,,,,,,,,,,,,,,,,,,,,,,,,,,,,,,,,,,,,,,,,,,,,,,,,,,,,,,,,,,,,,,,,,,,,,,,,,,,,
0,64,64,12,1,,614b9cf9b25cadec95eefee0,62c53a202e79a1004aaf4efa,2022-07-06_01h32.36.557,Colour_Asymmetry_Pilot,2022.1.3,Win32,60.00960154,62c50e9c1127f2cd403a315f,,,,,,,,,,,,,,,,,,,,,,,,,,,,,,,,,,,,,,,,,,,,,,,,,,,,,,,,,,,,,,,,,,,,,,,,,,,,,,,,,,,,,,,,,,,,,,,,,,,,,,,,,,,,,,,,,,,,,,,,,,,,,,,,,,,,,,,,,,,,,,,,,,,,,,,,,,,,,,,,,,,
0,65,65,8,1,,614b9cf9b25cadec95eefee0,62c53a202e79a1004aaf4efa,2022-07-06_01h32.36.557,Colour_Asymmetry_Pilot,2022.1.3,Win32,60.00960154,62c50e9c1127f2cd403a315f,,,,,,,,,,,,,,,,,,,,,,,,,,,,,,,,,,,,,,,,,,,,,,,,,,,,,,,,,,,,,,,,,,,,,,,,,,,,,,,,,,,,,,,,,,,,,,,,,,,,,,,,,,,,,,,,,,,,,,,,,,,,,,,,,,,,,,,,,,,,,,,,,,,,,,,,,,,,,,,,,,,
0,66,66,50,1,,614b9cf9b25cadec95eefee0,62c53a202e79a1004aaf4efa,2022-07-06_01h32.36.557,Colour_Asymmetry_Pilot,2022.1.3,Win32,60.00960154,62c50e9c1127f2cd403a315f,,,,,,,,,,,,,,,,,,,,,,,,,,,,,,,,,,,,,,,,,,,,,,,,,,,,,,,,,,,,,,,,,,,,,,,,,,,,,,,,,,,,,,,,,,,,,,,,,,,,,,,,,,,,,,,,,,,,,,,,,,,,,,,,,,,,,,,,,,,,,,,,,,,,,,,,,,,,,,,,,,,
0,67,67,23,1,,614b9cf9b25cadec95eefee0,62c53a202e79a1004aaf4efa,2022-07-06_01h32.36.557,Colour_Asymmetry_Pilot,2022.1.3,Win32,60.00960154,62c50e9c1127f2cd403a315f,,,,,,,,,,,,,,,,,,,,,,,,,,,,,,,,,,,,,,,,,,,,,,,,,,,,,,,,,,,,,,,,,,,,,,,,,,,,,,,,,,,,,,,,,,,,,,,,,,,,,,,,,,,,,,,,,,,,,,,,,,,,,,,,,,,,,,,,,,,,,,,,,,,,,,,,,,,,,,,,,,,
0,68,68,55,1,,614b9cf9b25cadec95eefee0,62c53a202e79a1004aaf4efa,2022-07-06_01h32.36.557,Colour_Asymmetry_Pilot,2022.1.3,Win32,60.00960154,62c50e9c1127f2cd403a315f,,,,,,,,,,,,,,,,,,,,,,,,,,,,,,,,,,,,,,,,,,,,,,,,,,,,,,,,,,,,,,,,,,,,,,,,,,,,,,,,,,,,,,,,,,,,,,,,,,,,,,,,,,,,,,,,,,,,,,,,,,,,,,,,,,,,,,,,,,,,,,,,,,,,,,,,,,,,,,,,,,,
0,69,69,32,1,,614b9cf9b25cadec95eefee0,62c53a202e79a1004aaf4efa,2022-07-06_01h32.36.557,Colour_Asymmetry_Pilot,2022.1.3,Win32,60.00960154,62c50e9c1127f2cd403a315f,,,,,,,,,,,,,,,,,,,,,,,,,,,,,,,,,,,,,,,,,,,,,,,,,,,,,,,,,,,,,,,,,,,,,,,,,,,,,,,,,,,,,,,,,,,,,,,,,,,,,,,,,,,,,,,,,,,,,,,,,,,,,,,,,,,,,,,,,,,,,,,,,,,,,,,,,,,,,,,,,,,
0,70,70,56,1,,614b9cf9b25cadec95eefee0,62c53a202e79a1004aaf4efa,2022-07-06_01h32.36.557,Colour_Asymmetry_Pilot,2022.1.3,Win32,60.00960154,62c50e9c1127f2cd403a315f,,,,,,,,,,,,,,,,,,,,,,,,,,,,,,,,,,,,,,,,,,,,,,,,,,,,,,,,,,,,,,,,,,,,,,,,,,,,,,,,,,,,,,,,,,,,,,,,,,,,,,,,,,,,,,,,,,,,,,,,,,,,,,,,,,,,,,,,,,,,,,,,,,,,,,,,,,,,,,,,,,,
0,71,71,91,1,,614b9cf9b25cadec95eefee0,62c53a202e79a1004aaf4efa,2022-07-06_01h32.36.557,Colour_Asymmetry_Pilot,2022.1.3,Win32,60.00960154,62c50e9c1127f2cd403a315f,,,,,,,,,,,,,,,,,,,,,,,,,,,,,,,,,,,,,,,,,,,,,,,,,,,,,,,,,,,,,,,,,,,,,,,,,,,,,,,,,,,,,,,,,,,,,,,,,,,,,,,,,,,,,,,,,,,,,,,,,,,,,,,,,,,,,,,,,,,,,,,,,,,,,,,,,,,,,,,,,,,
0,72,72,43,1,,614b9cf9b25cadec95eefee0,62c53a202e79a1004aaf4efa,2022-07-06_01h32.36.557,Colour_Asymmetry_Pilot,2022.1.3,Win32,60.00960154,62c50e9c1127f2cd403a315f,,,,,,,,,,,,,,,,,,,,,,,,,,,,,,,,,,,,,,,,,,,,,,,,,,,,,,,,,,,,,,,,,,,,,,,,,,,,,,,,,,,,,,,,,,,,,,,,,,,,,,,,,,,,,,,,,,,,,,,,,,,,,,,,,,,,,,,,,,,,,,,,,,,,,,,,,,,,,,,,,,,
0,73,73,92,1,,614b9cf9b25cadec95eefee0,62c53a202e79a1004aaf4efa,2022-07-06_01h32.36.557,Colour_Asymmetry_Pilot,2022.1.3,Win32,60.00960154,62c50e9c1127f2cd403a315f,,,,,,,,,,,,,,,,,,,,,,,,,,,,,,,,,,,,,,,,,,,,,,,,,,,,,,,,,,,,,,,,,,,,,,,,,,,,,,,,,,,,,,,,,,,,,,,,,,,,,,,,,,,,,,,,,,,,,,,,,,,,,,,,,,,,,,,,,,,,,,,,,,,,,,,,,,,,,,,,,,,
0,74,74,25,1,,614b9cf9b25cadec95eefee0,62c53a202e79a1004aaf4efa,2022-07-06_01h32.36.557,Colour_Asymmetry_Pilot,2022.1.3,Win32,60.00960154,62c50e9c1127f2cd403a315f,,,,,,,,,,,,,,,,,,,,,,,,,,,,,,,,,,,,,,,,,,,,,,,,,,,,,,,,,,,,,,,,,,,,,,,,,,,,,,,,,,,,,,,,,,,,,,,,,,,,,,,,,,,,,,,,,,,,,,,,,,,,,,,,,,,,,,,,,,,,,,,,,,,,,,,,,,,,,,,,,,,
0,75,75,60,1,,614b9cf9b25cadec95eefee0,62c53a202e79a1004aaf4efa,2022-07-06_01h32.36.557,Colour_Asymmetry_Pilot,2022.1.3,Win32,60.00960154,62c50e9c1127f2cd403a315f,,,,,,,,,,,,,,,,,,,,,,,,,,,,,,,,,,,,,,,,,,,,,,,,,,,,,,,,,,,,,,,,,,,,,,,,,,,,,,,,,,,,,,,,,,,,,,,,,,,,,,,,,,,,,,,,,,,,,,,,,,,,,,,,,,,,,,,,,,,,,,,,,,,,,,,,,,,,,,,,,,,
0,76,76,86,1,,614b9cf9b25cadec95eefee0,62c53a202e79a1004aaf4efa,2022-07-06_01h32.36.557,Colour_Asymmetry_Pilot,2022.1.3,Win32,60.00960154,62c50e9c1127f2cd403a315f,,,,,,,,,,,,,,,,,,,,,,,,,,,,,,,,,,,,,,,,,,,,,,,,,,,,,,,,,,,,,,,,,,,,,,,,,,,,,,,,,,,,,,,,,,,,,,,,,,,,,,,,,,,,,,,,,,,,,,,,,,,,,,,,,,,,,,,,,,,,,,,,,,,,,,,,,,,,,,,,,,,
0,77,77,0,1,,614b9cf9b25cadec95eefee0,62c53a202e79a1004aaf4efa,2022-07-06_01h32.36.557,Colour_Asymmetry_Pilot,2022.1.3,Win32,60.00960154,62c50e9c1127f2cd403a315f,,,,,,,,,,,,,,,,,,,,,,,,,,,,,,,,,,,,,,,,,,,,,,,,,,,,,,,,,,,,,,,,,,,,,,,,,,,,,,,,,,,,,,,,,,,,,,,,,,,,,,,,,,,,,,,,,,,,,,,,,,,,,,,,,,,,,,,,,,,,,,,,,,,,,,,,,,,,,,,,,,,
0,78,78,39,1,,614b9cf9b25cadec95eefee0,62c53a202e79a1004aaf4efa,2022-07-06_01h32.36.557,Colour_Asymmetry_Pilot,2022.1.3,Win32,60.00960154,62c50e9c1127f2cd403a315f,,,,,,,,,,,,,,,,,,,,,,,,,,,,,,,,,,,,,,,,,,,,,,,,,,,,,,,,,,,,,,,,,,,,,,,,,,,,,,,,,,,,,,,,,,,,,,,,,,,,,,,,,,,,,,,,,,,,,,,,,,,,,,,,,,,,,,,,,,,,,,,,,,,,,,,,,,,,,,,,,,,
0,79,79,47,1,,614b9cf9b25cadec95eefee0,62c53a202e79a1004aaf4efa,2022-07-06_01h32.36.557,Colour_Asymmetry_Pilot,2022.1.3,Win32,60.00960154,62c50e9c1127f2cd403a315f,,,,,,,,,,,,,,,,,,,,,,,,,,,,,,,,,,,,,,,,,,,,,,,,,,,,,,,,,,,,,,,,,,,,,,,,,,,,,,,,,,,,,,,,,,,,,,,,,,,,,,,,,,,,,,,,,,,,,,,,,,,,,,,,,,,,,,,,,,,,,,,,,,,,,,,,,,,,,,,,,,,
0,80,80,71,1,,614b9cf9b25cadec95eefee0,62c53a202e79a1004aaf4efa,2022-07-06_01h32.36.557,Colour_Asymmetry_Pilot,2022.1.3,Win32,60.00960154,62c50e9c1127f2cd403a315f,,,,,,,,,,,,,,,,,,,,,,,,,,,,,,,,,,,,,,,,,,,,,,,,,,,,,,,,,,,,,,,,,,,,,,,,,,,,,,,,,,,,,,,,,,,,,,,,,,,,,,,,,,,,,,,,,,,,,,,,,,,,,,,,,,,,,,,,,,,,,,,,,,,,,,,,,,,,,,,,,,,
0,81,81,30,1,,614b9cf9b25cadec95eefee0,62c53a202e79a1004aaf4efa,2022-07-06_01h32.36.557,Colour_Asymmetry_Pilot,2022.1.3,Win32,60.00960154,62c50e9c1127f2cd403a315f,,,,,,,,,,,,,,,,,,,,,,,,,,,,,,,,,,,,,,,,,,,,,,,,,,,,,,,,,,,,,,,,,,,,,,,,,,,,,,,,,,,,,,,,,,,,,,,,,,,,,,,,,,,,,,,,,,,,,,,,,,,,,,,,,,,,,,,,,,,,,,,,,,,,,,,,,,,,,,,,,,,
0,82,82,27,1,,614b9cf9b25cadec95eefee0,62c53a202e79a1004aaf4efa,2022-07-06_01h32.36.557,Colour_Asymmetry_Pilot,2022.1.3,Win32,60.00960154,62c50e9c1127f2cd403a315f,,,,,,,,,,,,,,,,,,,,,,,,,,,,,,,,,,,,,,,,,,,,,,,,,,,,,,,,,,,,,,,,,,,,,,,,,,,,,,,,,,,,,,,,,,,,,,,,,,,,,,,,,,,,,,,,,,,,,,,,,,,,,,,,,,,,,,,,,,,,,,,,,,,,,,,,,,,,,,,,,,,
0,83,83,14,1,,614b9cf9b25cadec95eefee0,62c53a202e79a1004aaf4efa,2022-07-06_01h32.36.557,Colour_Asymmetry_Pilot,2022.1.3,Win32,60.00960154,62c50e9c1127f2cd403a315f,,,,,,,,,,,,,,,,,,,,,,,,,,,,,,,,,,,,,,,,,,,,,,,,,,,,,,,,,,,,,,,,,,,,,,,,,,,,,,,,,,,,,,,,,,,,,,,,,,,,,,,,,,,,,,,,,,,,,,,,,,,,,,,,,,,,,,,,,,,,,,,,,,,,,,,,,,,,,,,,,,,
0,84,84,66,1,,614b9cf9b25cadec95eefee0,62c53a202e79a1004aaf4efa,2022-07-06_01h32.36.557,Colour_Asymmetry_Pilot,2022.1.3,Win32,60.00960154,62c50e9c1127f2cd403a315f,,,,,,,,,,,,,,,,,,,,,,,,,,,,,,,,,,,,,,,,,,,,,,,,,,,,,,,,,,,,,,,,,,,,,,,,,,,,,,,,,,,,,,,,,,,,,,,,,,,,,,,,,,,,,,,,,,,,,,,,,,,,,,,,,,,,,,,,,,,,,,,,,,,,,,,,,,,,,,,,,,,
0,85,85,54,1,,614b9cf9b25cadec95eefee0,62c53a202e79a1004aaf4efa,2022-07-06_01h32.36.557,Colour_Asymmetry_Pilot,2022.1.3,Win32,60.00960154,62c50e9c1127f2cd403a315f,,,,,,,,,,,,,,,,,,,,,,,,,,,,,,,,,,,,,,,,,,,,,,,,,,,,,,,,,,,,,,,,,,,,,,,,,,,,,,,,,,,,,,,,,,,,,,,,,,,,,,,,,,,,,,,,,,,,,,,,,,,,,,,,,,,,,,,,,,,,,,,,,,,,,,,,,,,,,,,,,,,
0,86,86,31,1,,614b9cf9b25cadec95eefee0,62c53a202e79a1004aaf4efa,2022-07-06_01h32.36.557,Colour_Asymmetry_Pilot,2022.1.3,Win32,60.00960154,62c50e9c1127f2cd403a315f,,,,,,,,,,,,,,,,,,,,,,,,,,,,,,,,,,,,,,,,,,,,,,,,,,,,,,,,,,,,,,,,,,,,,,,,,,,,,,,,,,,,,,,,,,,,,,,,,,,,,,,,,,,,,,,,,,,,,,,,,,,,,,,,,,,,,,,,,,,,,,,,,,,,,,,,,,,,,,,,,,,
0,87,87,70,1,,614b9cf9b25cadec95eefee0,62c53a202e79a1004aaf4efa,2022-07-06_01h32.36.557,Colour_Asymmetry_Pilot,2022.1.3,Win32,60.00960154,62c50e9c1127f2cd403a315f,,,,,,,,,,,,,,,,,,,,,,,,,,,,,,,,,,,,,,,,,,,,,,,,,,,,,,,,,,,,,,,,,,,,,,,,,,,,,,,,,,,,,,,,,,,,,,,,,,,,,,,,,,,,,,,,,,,,,,,,,,,,,,,,,,,,,,,,,,,,,,,,,,,,,,,,,,,,,,,,,,,
0,88,88,48,1,,614b9cf9b25cadec95eefee0,62c53a202e79a1004aaf4efa,2022-07-06_01h32.36.557,Colour_Asymmetry_Pilot,2022.1.3,Win32,60.00960154,62c50e9c1127f2cd403a315f,,,,,,,,,,,,,,,,,,,,,,,,,,,,,,,,,,,,,,,,,,,,,,,,,,,,,,,,,,,,,,,,,,,,,,,,,,,,,,,,,,,,,,,,,,,,,,,,,,,,,,,,,,,,,,,,,,,,,,,,,,,,,,,,,,,,,,,,,,,,,,,,,,,,,,,,,,,,,,,,,,,
0,89,89,4,1,,614b9cf9b25cadec95eefee0,62c53a202e79a1004aaf4efa,2022-07-06_01h32.36.557,Colour_Asymmetry_Pilot,2022.1.3,Win32,60.00960154,62c50e9c1127f2cd403a315f,,,,,,,,,,,,,,,,,,,,,,,,,,,,,,,,,,,,,,,,,,,,,,,,,,,,,,,,,,,,,,,,,,,,,,,,,,,,,,,,,,,,,,,,,,,,,,,,,,,,,,,,,,,,,,,,,,,,,,,,,,,,,,,,,,,,,,,,,,,,,,,,,,,,,,,,,,,,,,,,,,,
0,90,90,90,1,,614b9cf9b25cadec95eefee0,62c53a202e79a1004aaf4efa,2022-07-06_01h32.36.557,Colour_Asymmetry_Pilot,2022.1.3,Win32,60.00960154,62c50e9c1127f2cd403a315f,,,,,,,,,,,,,,,,,,,,,,,,,,,,,,,,,,,,,,,,,,,,,,,,,,,,,,,,,,,,,,,,,,,,,,,,,,,,,,,,,,,,,,,,,,,,,,,,,,,,,,,,,,,,,,,,,,,,,,,,,,,,,,,,,,,,,,,,,,,,,,,,,,,,,,,,,,,,,,,,,,,
0,91,91,19,1,,614b9cf9b25cadec95eefee0,62c53a202e79a1004aaf4efa,2022-07-06_01h32.36.557,Colour_Asymmetry_Pilot,2022.1.3,Win32,60.00960154,62c50e9c1127f2cd403a315f,,,,,,,,,,,,,,,,,,,,,,,,,,,,,,,,,,,,,,,,,,,,,,,,,,,,,,,,,,,,,,,,,,,,,,,,,,,,,,,,,,,,,,,,,,,,,,,,,,,,,,,,,,,,,,,,,,,,,,,,,,,,,,,,,,,,,,,,,,,,,,,,,,,,,,,,,,,,,,,,,,,
0,92,92,63,1,,614b9cf9b25cadec95eefee0,62c53a202e79a1004aaf4efa,2022-07-06_01h32.36.557,Colour_Asymmetry_Pilot,2022.1.3,Win32,60.00960154,62c50e9c1127f2cd403a315f,,,,,,,,,,,,,,,,,,,,,,,,,,,,,,,,,,,,,,,,,,,,,,,,,,,,,,,,,,,,,,,,,,,,,,,,,,,,,,,,,,,,,,,,,,,,,,,,,,,,,,,,,,,,,,,,,,,,,,,,,,,,,,,,,,,,,,,,,,,,,,,,,,,,,,,,,,,,,,,,,,,
,,,,,,614b9cf9b25cadec95eefee0,62c53a202e79a1004aaf4efa,2022-07-06_01h32.36.557,Colour_Asymmetry_Pilot,2022.1.3,Win32,60.00960154,62c50e9c1127f2cd403a315f,0,0,0,34,1,twoone,,,,,,,,,,,,,,,,,,,,,,,,,,,,,,,,,,,,,,,,,,,,,,,,,,,,,,,,,,,,,,,,,,,,,,,,,,,,,,,,,,,,,,,,,,,,,,,,,,,,,,,,,,,,,,,,,,,,,,,,,,,,,,,,,,,,,,,,,,,,,,,,,,,,,,,,,,,,,
,,,,,,614b9cf9b25cadec95eefee0,62c53a202e79a1004aaf4efa,2022-07-06_01h32.36.557,Colour_Asymmetry_Pilot,2022.1.3,Win32,60.00960154,62c50e9c1127f2cd403a315f,0,1,1,79,1,fourthree,,,,,,,,,,,,,,,,,,,,,,,,,,,,,,,,,,,,,,,,,,,,,,,,,,,,,,,,,,,,,,,,,,,,,,,,,,,,,,,,,,,,,,,,,,,,,,,,,,,,,,,,,,,,,,,,,,,,,,,,,,,,,,,,,,,,,,,,,,,,,,,,,,,,,,,,,,,,,
,,,,,,614b9cf9b25cadec95eefee0,62c53a202e79a1004aaf4efa,2022-07-06_01h32.36.557,Colour_Asymmetry_Pilot,2022.1.3,Win32,60.00960154,62c50e9c1127f2cd403a315f,0,2,2,139,1,twofour,,,,,,,,,,,,,,,,,,,,,,,,,,,,,,,,,,,,,,,,,,,,,,,,,,,,,,,,,,,,,,,,,,,,,,,,,,,,,,,,,,,,,,,,,,,,,,,,,,,,,,,,,,,,,,,,,,,,,,,,,,,,,,,,,,,,,,,,,,,,,,,,,,,,,,,,,,,,,
,,,,,,614b9cf9b25cadec95eefee0,62c53a202e79a1004aaf4efa,2022-07-06_01h32.36.557,Colour_Asymmetry_Pilot,2022.1.3,Win32,60.00960154,62c50e9c1127f2cd403a315f,0,3,3,49,1,onethree,,,,,,,,,,,,,,,,,,,,,,,,,,,,,,,,,,,,,,,,,,,,,,,,,,,,,,,,,,,,,,,,,,,,,,,,,,,,,,,,,,,,,,,,,,,,,,,,,,,,,,,,,,,,,,,,,,,,,,,,,,,,,,,,,,,,,,,,,,,,,,,,,,,,,,,,,,,,,
,,,,,,614b9cf9b25cadec95eefee0,62c53a202e79a1004aaf4efa,2022-07-06_01h32.36.557,Colour_Asymmetry_Pilot,2022.1.3,Win32,60.00960154,62c50e9c1127f2cd403a315f,0,4,4,110,1,fourtwo,,,,,,,,,,,,,,,,,,,,,,,,,,,,,,,,,,,,,,,,,,,,,,,,,,,,,,,,,,,,,,,,,,,,,,,,,,,,,,,,,,,,,,,,,,,,,,,,,,,,,,,,,,,,,,,,,,,,,,,,,,,,,,,,,,,,,,,,,,,,,,,,,,,,,,,,,,,,,
,,,,,,614b9cf9b25cadec95eefee0,62c53a202e79a1004aaf4efa,2022-07-06_01h32.36.557,Colour_Asymmetry_Pilot,2022.1.3,Win32,60.00960154,62c50e9c1127f2cd403a315f,0,5,5,43,1,twofour,,,,,,,,,,,,,,,,,,,,,,,,,,,,,,,,,,,,,,,,,,,,,,,,,,,,,,,,,,,,,,,,,,,,,,,,,,,,,,,,,,,,,,,,,,,,,,,,,,,,,,,,,,,,,,,,,,,,,,,,,,,,,,,,,,,,,,,,,,,,,,,,,,,,,,,,,,,,,
,,,,,,614b9cf9b25cadec95eefee0,62c53a202e79a1004aaf4efa,2022-07-06_01h32.36.557,Colour_Asymmetry_Pilot,2022.1.3,Win32,60.00960154,62c50e9c1127f2cd403a315f,0,6,6,23,1,fourthree,,,,,,,,,,,,,,,,,,,,,,,,,,,,,,,,,,,,,,,,,,,,,,,,,,,,,,,,,,,,,,,,,,,,,,,,,,,,,,,,,,,,,,,,,,,,,,,,,,,,,,,,,,,,,,,,,,,,,,,,,,,,,,,,,,,,,,,,,,,,,,,,,,,,,,,,,,,,,
,,,,,,614b9cf9b25cadec95eefee0,62c53a202e79a1004aaf4efa,2022-07-06_01h32.36.557,Colour_Asymmetry_Pilot,2022.1.3,Win32,60.00960154,62c50e9c1127f2cd403a315f,0,7,7,159,1,fourthree,,,,,,,,,,,,,,,,,,,,,,,,,,,,,,,,,,,,,,,,,,,,,,,,,,,,,,,,,,,,,,,,,,,,,,,,,,,,,,,,,,,,,,,,,,,,,,,,,,,,,,,,,,,,,,,,,,,,,,,,,,,,,,,,,,,,,,,,,,,,,,,,,,,,,,,,,,,,,
,,,,,,614b9cf9b25cadec95eefee0,62c53a202e79a1004aaf4efa,2022-07-06_01h32.36.557,Colour_Asymmetry_Pilot,2022.1.3,Win32,60.00960154,62c50e9c1127f2cd403a315f,0,8,8,84,1,threeone,,,,,,,,,,,,,,,,,,,,,,,,,,,,,,,,,,,,,,,,,,,,,,,,,,,,,,,,,,,,,,,,,,,,,,,,,,,,,,,,,,,,,,,,,,,,,,,,,,,,,,,,,,,,,,,,,,,,,,,,,,,,,,,,,,,,,,,,,,,,,,,,,,,,,,,,,,,,,
,,,,,,614b9cf9b25cadec95eefee0,62c53a202e79a1004aaf4efa,2022-07-06_01h32.36.557,Colour_Asymmetry_Pilot,2022.1.3,Win32,60.00960154,62c50e9c1127f2cd403a315f,0,9,9,46,1,fourtwo,,,,,,,,,,,,,,,,,,,,,,,,,,,,,,,,,,,,,,,,,,,,,,,,,,,,,,,,,,,,,,,,,,,,,,,,,,,,,,,,,,,,,,,,,,,,,,,,,,,,,,,,,,,,,,,,,,,,,,,,,,,,,,,,,,,,,,,,,,,,,,,,,,,,,,,,,,,,,
,,,,,,614b9cf9b25cadec95eefee0,62c53a202e79a1004aaf4efa,2022-07-06_01h32.36.557,Colour_Asymmetry_Pilot,2022.1.3,Win32,60.00960154,62c50e9c1127f2cd403a315f,0,10,10,89,1,onethree,,,,,,,,,,,,,,,,,,,,,,,,,,,,,,,,,,,,,,,,,,,,,,,,,,,,,,,,,,,,,,,,,,,,,,,,,,,,,,,,,,,,,,,,,,,,,,,,,,,,,,,,,,,,,,,,,,,,,,,,,,,,,,,,,,,,,,,,,,,,,,,,,,,,,,,,,,,,,
,,,,,,614b9cf9b25cadec95eefee0,62c53a202e79a1004aaf4efa,2022-07-06_01h32.36.557,Colour_Asymmetry_Pilot,2022.1.3,Win32,60.00960154,62c50e9c1127f2cd403a315f,0,11,11,103,1,fourthree,,,,,,,,,,,,,,,,,,,,,,,,,,,,,,,,,,,,,,,,,,,,,,,,,,,,,,,,,,,,,,,,,,,,,,,,,,,,,,,,,,,,,,,,,,,,,,,,,,,,,,,,,,,,,,,,,,,,,,,,,,,,,,,,,,,,,,,,,,,,,,,,,,,,,,,,,,,,,
,,,,,,614b9cf9b25cadec95eefee0,62c53a202e79a1004aaf4efa,2022-07-06_01h32.36.557,Colour_Asymmetry_Pilot,2022.1.3,Win32,60.00960154,62c50e9c1127f2cd403a315f,0,12,12,25,1,onethree,,,,,,,,,,,,,,,,,,,,,,,,,,,,,,,,,,,,,,,,,,,,,,,,,,,,,,,,,,,,,,,,,,,,,,,,,,,,,,,,,,,,,,,,,,,,,,,,,,,,,,,,,,,,,,,,,,,,,,,,,,,,,,,,,,,,,,,,,,,,,,,,,,,,,,,,,,,,,
,,,,,,614b9cf9b25cadec95eefee0,62c53a202e79a1004aaf4efa,2022-07-06_01h32.36.557,Colour_Asymmetry_Pilot,2022.1.3,Win32,60.00960154,62c50e9c1127f2cd403a315f,0,13,13,96,1,onetwo,,,,,,,,,,,,,,,,,,,,,,,,,,,,,,,,,,,,,,,,,,,,,,,,,,,,,,,,,,,,,,,,,,,,,,,,,,,,,,,,,,,,,,,,,,,,,,,,,,,,,,,,,,,,,,,,,,,,,,,,,,,,,,,,,,,,,,,,,,,,,,,,,,,,,,,,,,,,,
,,,,,,614b9cf9b25cadec95eefee0,62c53a202e79a1004aaf4efa,2022-07-06_01h32.36.557,Colour_Asymmetry_Pilot,2022.1.3,Win32,60.00960154,62c50e9c1127f2cd403a315f,0,14,14,65,1,onethree,,,,,,,,,,,,,,,,,,,,,,,,,,,,,,,,,,,,,,,,,,,,,,,,,,,,,,,,,,,,,,,,,,,,,,,,,,,,,,,,,,,,,,,,,,,,,,,,,,,,,,,,,,,,,,,,,,,,,,,,,,,,,,,,,,,,,,,,,,,,,,,,,,,,,,,,,,,,,
,,,,,,614b9cf9b25cadec95eefee0,62c53a202e79a1004aaf4efa,2022-07-06_01h32.36.557,Colour_Asymmetry_Pilot,2022.1.3,Win32,60.00960154,62c50e9c1127f2cd403a315f,0,15,15,2,1,twoone,,,,,,,,,,,,,,,,,,,,,,,,,,,,,,,,,,,,,,,,,,,,,,,,,,,,,,,,,,,,,,,,,,,,,,,,,,,,,,,,,,,,,,,,,,,,,,,,,,,,,,,,,,,,,,,,,,,,,,,,,,,,,,,,,,,,,,,,,,,,,,,,,,,,,,,,,,,,,
,,,,,,614b9cf9b25cadec95eefee0,62c53a202e79a1004aaf4efa,2022-07-06_01h32.36.557,Colour_Asymmetry_Pilot,2022.1.3,Win32,60.00960154,62c50e9c1127f2cd403a315f,0,16,16,22,1,fourtwo,,,,,,,,,,,,,,,,,,,,,,,,,,,,,,,,,,,,,,,,,,,,,,,,,,,,,,,,,,,,,,,,,,,,,,,,,,,,,,,,,,,,,,,,,,,,,,,,,,,,,,,,,,,,,,,,,,,,,,,,,,,,,,,,,,,,,,,,,,,,,,,,,,,,,,,,,,,,,
,,,,,,614b9cf9b25cadec95eefee0,62c53a202e79a1004aaf4efa,2022-07-06_01h32.36.557,Colour_Asymmetry_Pilot,2022.1.3,Win32,60.00960154,62c50e9c1127f2cd403a315f,0,17,17,146,1,twoone,,,,,,,,,,,,,,,,,,,,,,,,,,,,,,,,,,,,,,,,,,,,,,,,,,,,,,,,,,,,,,,,,,,,,,,,,,,,,,,,,,,,,,,,,,,,,,,,,,,,,,,,,,,,,,,,,,,,,,,,,,,,,,,,,,,,,,,,,,,,,,,,,,,,,,,,,,,,,
,,,,,,614b9cf9b25cadec95eefee0,62c53a202e79a1004aaf4efa,2022-07-06_01h32.36.557,Colour_Asymmetry_Pilot,2022.1.3,Win32,60.00960154,62c50e9c1127f2cd403a315f,0,18,18,6,1,fourtwo,,,,,,,,,,,,,,,,,,,,,,,,,,,,,,,,,,,,,,,,,,,,,,,,,,,,,,,,,,,,,,,,,,,,,,,,,,,,,,,,,,,,,,,,,,,,,,,,,,,,,,,,,,,,,,,,,,,,,,,,,,,,,,,,,,,,,,,,,,,,,,,,,,,,,,,,,,,,,
,,,,,,614b9cf9b25cadec95eefee0,62c53a202e79a1004aaf4efa,2022-07-06_01h32.36.557,Colour_Asymmetry_Pilot,2022.1.3,Win32,60.00960154,62c50e9c1127f2cd403a315f,0,19,19,62,1,fourtwo,,,,,,,,,,,,,,,,,,,,,,,,,,,,,,,,,,,,,,,,,,,,,,,,,,,,,,,,,,,,,,,,,,,,,,,,,,,,,,,,,,,,,,,,,,,,,,,,,,,,,,,,,,,,,,,,,,,,,,,,,,,,,,,,,,,,,,,,,,,,,,,,,,,,,,,,,,,,,
,,,,,,614b9cf9b25cadec95eefee0,62c53a202e79a1004aaf4efa,2022-07-06_01h32.36.557,Colour_Asymmetry_Pilot,2022.1.3,Win32,60.00960154,62c50e9c1127f2cd403a315f,0,20,20,85,1,threefour,,,,,,,,,,,,,,,,,,,,,,,,,,,,,,,,,,,,,,,,,,,,,,,,,,,,,,,,,,,,,,,,,,,,,,,,,,,,,,,,,,,,,,,,,,,,,,,,,,,,,,,,,,,,,,,,,,,,,,,,,,,,,,,,,,,,,,,,,,,,,,,,,,,,,,,,,,,,,
,,,,,,614b9cf9b25cadec95eefee0,62c53a202e79a1004aaf4efa,2022-07-06_01h32.36.557,Colour_Asymmetry_Pilot,2022.1.3,Win32,60.00960154,62c50e9c1127f2cd403a315f,0,21,21,88,1,onetwo,,,,,,,,,,,,,,,,,,,,,,,,,,,,,,,,,,,,,,,,,,,,,,,,,,,,,,,,,,,,,,,,,,,,,,,,,,,,,,,,,,,,,,,,,,,,,,,,,,,,,,,,,,,,,,,,,,,,,,,,,,,,,,,,,,,,,,,,,,,,,,,,,,,,,,,,,,,,,
,,,,,,614b9cf9b25cadec95eefee0,62c53a202e79a1004aaf4efa,2022-07-06_01h32.36.557,Colour_Asymmetry_Pilot,2022.1.3,Win32,60.00960154,62c50e9c1127f2cd403a315f,0,22,22,161,1,onethree,,,,,,,,,,,,,,,,,,,,,,,,,,,,,,,,,,,,,,,,,,,,,,,,,,,,,,,,,,,,,,,,,,,,,,,,,,,,,,,,,,,,,,,,,,,,,,,,,,,,,,,,,,,,,,,,,,,,,,,,,,,,,,,,,,,,,,,,,,,,,,,,,,,,,,,,,,,,,
,,,,,,614b9cf9b25cadec95eefee0,62c53a202e79a1004aaf4efa,2022-07-06_01h32.36.557,Colour_Asymmetry_Pilot,2022.1.3,Win32,60.00960154,62c50e9c1127f2cd403a315f,0,23,23,36,1,threeone,,,,,,,,,,,,,,,,,,,,,,,,,,,,,,,,,,,,,,,,,,,,,,,,,,,,,,,,,,,,,,,,,,,,,,,,,,,,,,,,,,,,,,,,,,,,,,,,,,,,,,,,,,,,,,,,,,,,,,,,,,,,,,,,,,,,,,,,,,,,,,,,,,,,,,,,,,,,,
,,,,,,614b9cf9b25cadec95eefee0,62c53a202e79a1004aaf4efa,2022-07-06_01h32.36.557,Colour_Asymmetry_Pilot,2022.1.3,Win32,60.00960154,62c50e9c1127f2cd403a315f,0,24,24,107,1,twofour,,,,,,,,,,,,,,,,,,,,,,,,,,,,,,,,,,,,,,,,,,,,,,,,,,,,,,,,,,,,,,,,,,,,,,,,,,,,,,,,,,,,,,,,,,,,,,,,,,,,,,,,,,,,,,,,,,,,,,,,,,,,,,,,,,,,,,,,,,,,,,,,,,,,,,,,,,,,,
,,,,,,614b9cf9b25cadec95eefee0,62c53a202e79a1004aaf4efa,2022-07-06_01h32.36.557,Colour_Asymmetry_Pilot,2022.1.3,Win32,60.00960154,62c50e9c1127f2cd403a315f,0,25,25,51,1,twofour,,,,,,,,,,,,,,,,,,,,,,,,,,,,,,,,,,,,,,,,,,,,,,,,,,,,,,,,,,,,,,,,,,,,,,,,,,,,,,,,,,,,,,,,,,,,,,,,,,,,,,,,,,,,,,,,,,,,,,,,,,,,,,,,,,,,,,,,,,,,,,,,,,,,,,,,,,,,,
,,,,,,614b9cf9b25cadec95eefee0,62c53a202e79a1004aaf4efa,2022-07-06_01h32.36.557,Colour_Asymmetry_Pilot,2022.1.3,Win32,60.00960154,62c50e9c1127f2cd403a315f,0,26,26,98,1,twoone,,,,,,,,,,,,,,,,,,,,,,,,,,,,,,,,,,,,,,,,,,,,,,,,,,,,,,,,,,,,,,,,,,,,,,,,,,,,,,,,,,,,,,,,,,,,,,,,,,,,,,,,,,,,,,,,,,,,,,,,,,,,,,,,,,,,,,,,,,,,,,,,,,,,,,,,,,,,,
,,,,,,614b9cf9b25cadec95eefee0,62c53a202e79a1004aaf4efa,2022-07-06_01h32.36.557,Colour_Asymmetry_Pilot,2022.1.3,Win32,60.00960154,62c50e9c1127f2cd403a315f,0,27,27,156,1,threeone,,,,,,,,,,,,,,,,,,,,,,,,,,,,,,,,,,,,,,,,,,,,,,,,,,,,,,,,,,,,,,,,,,,,,,,,,,,,,,,,,,,,,,,,,,,,,,,,,,,,,,,,,,,,,,,,,,,,,,,,,,,,,,,,,,,,,,,,,,,,,,,,,,,,,,,,,,,,,
,,,,,,614b9cf9b25cadec95eefee0,62c53a202e79a1004aaf4efa,2022-07-06_01h32.36.557,Colour_Asymmetry_Pilot,2022.1.3,Win32,60.00960154,62c50e9c1127f2cd403a315f,0,28,28,54,1,fourtwo,,,,,,,,,,,,,,,,,,,,,,,,,,,,,,,,,,,,,,,,,,,,,,,,,,,,,,,,,,,,,,,,,,,,,,,,,,,,,,,,,,,,,,,,,,,,,,,,,,,,,,,,,,,,,,,,,,,,,,,,,,,,,,,,,,,,,,,,,,,,,,,,,,,,,,,,,,,,,
,,,,,,614b9cf9b25cadec95eefee0,62c53a202e79a1004aaf4efa,2022-07-06_01h32.36.557,Colour_Asymmetry_Pilot,2022.1.3,Win32,60.00960154,62c50e9c1127f2cd403a315f,0,29,29,16,1,onetwo,,,,,,,,,,,,,,,,,,,,,,,,,,,,,,,,,,,,,,,,,,,,,,,,,,,,,,,,,,,,,,,,,,,,,,,,,,,,,,,,,,,,,,,,,,,,,,,,,,,,,,,,,,,,,,,,,,,,,,,,,,,,,,,,,,,,,,,,,,,,,,,,,,,,,,,,,,,,,
,,,,,,614b9cf9b25cadec95eefee0,62c53a202e79a1004aaf4efa,2022-07-06_01h32.36.557,Colour_Asymmetry_Pilot,2022.1.3,Win32,60.00960154,62c50e9c1127f2cd403a315f,0,30,30,78,1,fourtwo,,,,,,,,,,,,,,,,,,,,,,,,,,,,,,,,,,,,,,,,,,,,,,,,,,,,,,,,,,,,,,,,,,,,,,,,,,,,,,,,,,,,,,,,,,,,,,,,,,,,,,,,,,,,,,,,,,,,,,,,,,,,,,,,,,,,,,,,,,,,,,,,,,,,,,,,,,,,,
,,,,,,614b9cf9b25cadec95eefee0,62c53a202e79a1004aaf4efa,2022-07-06_01h32.36.557,Colour_Asymmetry_Pilot,2022.1.3,Win32,60.00960154,62c50e9c1127f2cd403a315f,0,31,31,140,1,threeone,,,,,,,,,,,,,,,,,,,,,,,,,,,,,,,,,,,,,,,,,,,,,,,,,,,,,,,,,,,,,,,,,,,,,,,,,,,,,,,,,,,,,,,,,,,,,,,,,,,,,,,,,,,,,,,,,,,,,,,,,,,,,,,,,,,,,,,,,,,,,,,,,,,,,,,,,,,,,
,,,,,,614b9cf9b25cadec95eefee0,62c53a202e79a1004aaf4efa,2022-07-06_01h32.36.557,Colour_Asymmetry_Pilot,2022.1.3,Win32,60.00960154,62c50e9c1127f2cd403a315f,0,32,32,119,1,fourthree,,,,,,,,,,,,,,,,,,,,,,,,,,,,,,,,,,,,,,,,,,,,,,,,,,,,,,,,,,,,,,,,,,,,,,,,,,,,,,,,,,,,,,,,,,,,,,,,,,,,,,,,,,,,,,,,,,,,,,,,,,,,,,,,,,,,,,,,,,,,,,,,,,,,,,,,,,,,,
,,,,,,614b9cf9b25cadec95eefee0,62c53a202e79a1004aaf4efa,2022-07-06_01h32.36.557,Colour_Asymmetry_Pilot,2022.1.3,Win32,60.00960154,62c50e9c1127f2cd403a315f,0,33,33,133,1,threefour,,,,,,,,,,,,,,,,,,,,,,,,,,,,,,,,,,,,,,,,,,,,,,,,,,,,,,,,,,,,,,,,,,,,,,,,,,,,,,,,,,,,,,,,,,,,,,,,,,,,,,,,,,,,,,,,,,,,,,,,,,,,,,,,,,,,,,,,,,,,,,,,,,,,,,,,,,,,,
,,,,,,614b9cf9b25cadec95eefee0,62c53a202e79a1004aaf4efa,2022-07-06_01h32.36.557,Colour_Asymmetry_Pilot,2022.1.3,Win32,60.00960154,62c50e9c1127f2cd403a315f,0,34,34,35,1,twofour,,,,,,,,,,,,,,,,,,,,,,,,,,,,,,,,,,,,,,,,,,,,,,,,,,,,,,,,,,,,,,,,,,,,,,,,,,,,,,,,,,,,,,,,,,,,,,,,,,,,,,,,,,,,,,,,,,,,,,,,,,,,,,,,,,,,,,,,,,,,,,,,,,,,,,,,,,,,,
,,,,,,614b9cf9b25cadec95eefee0,62c53a202e79a1004aaf4efa,2022-07-06_01h32.36.557,Colour_Asymmetry_Pilot,2022.1.3,Win32,60.00960154,62c50e9c1127f2cd403a315f,0,35,35,123,1,twofour,,,,,,,,,,,,,,,,,,,,,,,,,,,,,,,,,,,,,,,,,,,,,,,,,,,,,,,,,,,,,,,,,,,,,,,,,,,,,,,,,,,,,,,,,,,,,,,,,,,,,,,,,,,,,,,,,,,,,,,,,,,,,,,,,,,,,,,,,,,,,,,,,,,,,,,,,,,,,
,,,,,,614b9cf9b25cadec95eefee0,62c53a202e79a1004aaf4efa,2022-07-06_01h32.36.557,Colour_Asymmetry_Pilot,2022.1.3,Win32,60.00960154,62c50e9c1127f2cd403a315f,0,36,36,17,1,onethree,,,,,,,,,,,,,,,,,,,,,,,,,,,,,,,,,,,,,,,,,,,,,,,,,,,,,,,,,,,,,,,,,,,,,,,,,,,,,,,,,,,,,,,,,,,,,,,,,,,,,,,,,,,,,,,,,,,,,,,,,,,,,,,,,,,,,,,,,,,,,,,,,,,,,,,,,,,,,
,,,,,,614b9cf9b25cadec95eefee0,62c53a202e79a1004aaf4efa,2022-07-06_01h32.36.557,Colour_Asymmetry_Pilot,2022.1.3,Win32,60.00960154,62c50e9c1127f2cd403a315f,0,37,37,128,1,onetwo,,,,,,,,,,,,,,,,,,,,,,,,,,,,,,,,,,,,,,,,,,,,,,,,,,,,,,,,,,,,,,,,,,,,,,,,,,,,,,,,,,,,,,,,,,,,,,,,,,,,,,,,,,,,,,,,,,,,,,,,,,,,,,,,,,,,,,,,,,,,,,,,,,,,,,,,,,,,,
,,,,,,614b9cf9b25cadec95eefee0,62c53a202e79a1004aaf4efa,2022-07-06_01h32.36.557,Colour_Asymmetry_Pilot,2022.1.3,Win32,60.00960154,62c50e9c1127f2cd403a315f,0,38,38,120,1,onetwo,,,,,,,,,,,,,,,,,,,,,,,,,,,,,,,,,,,,,,,,,,,,,,,,,,,,,,,,,,,,,,,,,,,,,,,,,,,,,,,,,,,,,,,,,,,,,,,,,,,,,,,,,,,,,,,,,,,,,,,,,,,,,,,,,,,,,,,,,,,,,,,,,,,,,,,,,,,,,
,,,,,,614b9cf9b25cadec95eefee0,62c53a202e79a1004aaf4efa,2022-07-06_01h32.36.557,Colour_Asymmetry_Pilot,2022.1.3,Win32,60.00960154,62c50e9c1127f2cd403a315f,0,39,39,60,1,threeone,,,,,,,,,,,,,,,,,,,,,,,,,,,,,,,,,,,,,,,,,,,,,,,,,,,,,,,,,,,,,,,,,,,,,,,,,,,,,,,,,,,,,,,,,,,,,,,,,,,,,,,,,,,,,,,,,,,,,,,,,,,,,,,,,,,,,,,,,,,,,,,,,,,,,,,,,,,,,
,,,,,,614b9cf9b25cadec95eefee0,62c53a202e79a1004aaf4efa,2022-07-06_01h32.36.557,Colour_Asymmetry_Pilot,2022.1.3,Win32,60.00960154,62c50e9c1127f2cd403a315f,0,40,40,63,1,fourthree,,,,,,,,,,,,,,,,,,,,,,,,,,,,,,,,,,,,,,,,,,,,,,,,,,,,,,,,,,,,,,,,,,,,,,,,,,,,,,,,,,,,,,,,,,,,,,,,,,,,,,,,,,,,,,,,,,,,,,,,,,,,,,,,,,,,,,,,,,,,,,,,,,,,,,,,,,,,,
,,,,,,614b9cf9b25cadec95eefee0,62c53a202e79a1004aaf4efa,2022-07-06_01h32.36.557,Colour_Asymmetry_Pilot,2022.1.3,Win32,60.00960154,62c50e9c1127f2cd403a315f,0,41,41,61,1,threefour,,,,,,,,,,,,,,,,,,,,,,,,,,,,,,,,,,,,,,,,,,,,,,,,,,,,,,,,,,,,,,,,,,,,,,,,,,,,,,,,,,,,,,,,,,,,,,,,,,,,,,,,,,,,,,,,,,,,,,,,,,,,,,,,,,,,,,,,,,,,,,,,,,,,,,,,,,,,,
,,,,,,614b9cf9b25cadec95eefee0,62c53a202e79a1004aaf4efa,2022-07-06_01h32.36.557,Colour_Asymmetry_Pilot,2022.1.3,Win32,60.00960154,62c50e9c1127f2cd403a315f,0,42,42,129,1,onethree,,,,,,,,,,,,,,,,,,,,,,,,,,,,,,,,,,,,,,,,,,,,,,,,,,,,,,,,,,,,,,,,,,,,,,,,,,,,,,,,,,,,,,,,,,,,,,,,,,,,,,,,,,,,,,,,,,,,,,,,,,,,,,,,,,,,,,,,,,,,,,,,,,,,,,,,,,,,,
,,,,,,614b9cf9b25cadec95eefee0,62c53a202e79a1004aaf4efa,2022-07-06_01h32.36.557,Colour_Asymmetry_Pilot,2022.1.3,Win32,60.00960154,62c50e9c1127f2cd403a315f,0,43,43,142,1,fourtwo,,,,,,,,,,,,,,,,,,,,,,,,,,,,,,,,,,,,,,,,,,,,,,,,,,,,,,,,,,,,,,,,,,,,,,,,,,,,,,,,,,,,,,,,,,,,,,,,,,,,,,,,,,,,,,,,,,,,,,,,,,,,,,,,,,,,,,,,,,,,,,,,,,,,,,,,,,,,,
,,,,,,614b9cf9b25cadec95eefee0,62c53a202e79a1004aaf4efa,2022-07-06_01h32.36.557,Colour_Asymmetry_Pilot,2022.1.3,Win32,60.00960154,62c50e9c1127f2cd403a315f,0,44,44,73,1,onethree,,,,,,,,,,,,,,,,,,,,,,,,,,,,,,,,,,,,,,,,,,,,,,,,,,,,,,,,,,,,,,,,,,,,,,,,,,,,,,,,,,,,,,,,,,,,,,,,,,,,,,,,,,,,,,,,,,,,,,,,,,,,,,,,,,,,,,,,,,,,,,,,,,,,,,,,,,,,,
,,,,,,614b9cf9b25cadec95eefee0,62c53a202e79a1004aaf4efa,2022-07-06_01h32.36.557,Colour_Asymmetry_Pilot,2022.1.3,Win32,60.00960154,62c50e9c1127f2cd403a315f,0,45,45,3,1,twofour,,,,,,,,,,,,,,,,,,,,,,,,,,,,,,,,,,,,,,,,,,,,,,,,,,,,,,,,,,,,,,,,,,,,,,,,,,,,,,,,,,,,,,,,,,,,,,,,,,,,,,,,,,,,,,,,,,,,,,,,,,,,,,,,,,,,,,,,,,,,,,,,,,,,,,,,,,,,,
,,,,,,614b9cf9b25cadec95eefee0,62c53a202e79a1004aaf4efa,2022-07-06_01h32.36.557,Colour_Asymmetry_Pilot,2022.1.3,Win32,60.00960154,62c50e9c1127f2cd403a315f,0,46,46,0,1,onetwo,,,,,,,,,,,,,,,,,,,,,,,,,,,,,,,,,,,,,,,,,,,,,,,,,,,,,,,,,,,,,,,,,,,,,,,,,,,,,,,,,,,,,,,,,,,,,,,,,,,,,,,,,,,,,,,,,,,,,,,,,,,,,,,,,,,,,,,,,,,,,,,,,,,,,,,,,,,,,
,,,,,,614b9cf9b25cadec95eefee0,62c53a202e79a1004aaf4efa,2022-07-06_01h32.36.557,Colour_Asymmetry_Pilot,2022.1.3,Win32,60.00960154,62c50e9c1127f2cd403a315f,0,47,47,108,1,threeone,,,,,,,,,,,,,,,,,,,,,,,,,,,,,,,,,,,,,,,,,,,,,,,,,,,,,,,,,,,,,,,,,,,,,,,,,,,,,,,,,,,,,,,,,,,,,,,,,,,,,,,,,,,,,,,,,,,,,,,,,,,,,,,,,,,,,,,,,,,,,,,,,,,,,,,,,,,,,
,,,,,,614b9cf9b25cadec95eefee0,62c53a202e79a1004aaf4efa,2022-07-06_01h32.36.557,Colour_Asymmetry_Pilot,2022.1.3,Win32,60.00960154,62c50e9c1127f2cd403a315f,0,48,48,160,1,onetwo,,,,,,,,,,,,,,,,,,,,,,,,,,,,,,,,,,,,,,,,,,,,,,,,,,,,,,,,,,,,,,,,,,,,,,,,,,,,,,,,,,,,,,,,,,,,,,,,,,,,,,,,,,,,,,,,,,,,,,,,,,,,,,,,,,,,,,,,,,,,,,,,,,,,,,,,,,,,,
,,,,,,614b9cf9b25cadec95eefee0,62c53a202e79a1004aaf4efa,2022-07-06_01h32.36.557,Colour_Asymmetry_Pilot,2022.1.3,Win32,60.00960154,62c50e9c1127f2cd403a315f,0,49,49,7,1,fourthree,,,,,,,,,,,,,,,,,,,,,,,,,,,,,,,,,,,,,,,,,,,,,,,,,,,,,,,,,,,,,,,,,,,,,,,,,,,,,,,,,,,,,,,,,,,,,,,,,,,,,,,,,,,,,,,,,,,,,,,,,,,,,,,,,,,,,,,,,,,,,,,,,,,,,,,,,,,,,
,,,,,,614b9cf9b25cadec95eefee0,62c53a202e79a1004aaf4efa,2022-07-06_01h32.36.557,Colour_Asymmetry_Pilot,2022.1.3,Win32,60.00960154,62c50e9c1127f2cd403a315f,0,50,50,31,1,fourthree,,,,,,,,,,,,,,,,,,,,,,,,,,,,,,,,,,,,,,,,,,,,,,,,,,,,,,,,,,,,,,,,,,,,,,,,,,,,,,,,,,,,,,,,,,,,,,,,,,,,,,,,,,,,,,,,,,,,,,,,,,,,,,,,,,,,,,,,,,,,,,,,,,,,,,,,,,,,,
,,,,,,614b9cf9b25cadec95eefee0,62c53a202e79a1004aaf4efa,2022-07-06_01h32.36.557,Colour_Asymmetry_Pilot,2022.1.3,Win32,60.00960154,62c50e9c1127f2cd403a315f,0,51,51,14,1,fourtwo,,,,,,,,,,,,,,,,,,,,,,,,,,,,,,,,,,,,,,,,,,,,,,,,,,,,,,,,,,,,,,,,,,,,,,,,,,,,,,,,,,,,,,,,,,,,,,,,,,,,,,,,,,,,,,,,,,,,,,,,,,,,,,,,,,,,,,,,,,,,,,,,,,,,,,,,,,,,,
,,,,,,614b9cf9b25cadec95eefee0,62c53a202e79a1004aaf4efa,2022-07-06_01h32.36.557,Colour_Asymmetry_Pilot,2022.1.3,Win32,60.00960154,62c50e9c1127f2cd403a315f,0,52,52,148,1,threeone,,,,,,,,,,,,,,,,,,,,,,,,,,,,,,,,,,,,,,,,,,,,,,,,,,,,,,,,,,,,,,,,,,,,,,,,,,,,,,,,,,,,,,,,,,,,,,,,,,,,,,,,,,,,,,,,,,,,,,,,,,,,,,,,,,,,,,,,,,,,,,,,,,,,,,,,,,,,,
,,,,,,614b9cf9b25cadec95eefee0,62c53a202e79a1004aaf4efa,2022-07-06_01h32.36.557,Colour_Asymmetry_Pilot,2022.1.3,Win32,60.00960154,62c50e9c1127f2cd403a315f,0,53,53,80,1,onetwo,,,,,,,,,,,,,,,,,,,,,,,,,,,,,,,,,,,,,,,,,,,,,,,,,,,,,,,,,,,,,,,,,,,,,,,,,,,,,,,,,,,,,,,,,,,,,,,,,,,,,,,,,,,,,,,,,,,,,,,,,,,,,,,,,,,,,,,,,,,,,,,,,,,,,,,,,,,,,
,,,,,,614b9cf9b25cadec95eefee0,62c53a202e79a1004aaf4efa,2022-07-06_01h32.36.557,Colour_Asymmetry_Pilot,2022.1.3,Win32,60.00960154,62c50e9c1127f2cd403a315f,0,54,54,37,1,threefour,,,,,,,,,,,,,,,,,,,,,,,,,,,,,,,,,,,,,,,,,,,,,,,,,,,,,,,,,,,,,,,,,,,,,,,,,,,,,,,,,,,,,,,,,,,,,,,,,,,,,,,,,,,,,,,,,,,,,,,,,,,,,,,,,,,,,,,,,,,,,,,,,,,,,,,,,,,,,
,,,,,,614b9cf9b25cadec95eefee0,62c53a202e79a1004aaf4efa,2022-07-06_01h32.36.557,Colour_Asymmetry_Pilot,2022.1.3,Win32,60.00960154,62c50e9c1127f2cd403a315f,0,55,55,130,1,twoone,,,,,,,,,,,,,,,,,,,,,,,,,,,,,,,,,,,,,,,,,,,,,,,,,,,,,,,,,,,,,,,,,,,,,,,,,,,,,,,,,,,,,,,,,,,,,,,,,,,,,,,,,,,,,,,,,,,,,,,,,,,,,,,,,,,,,,,,,,,,,,,,,,,,,,,,,,,,,
,,,,,,614b9cf9b25cadec95eefee0,62c53a202e79a1004aaf4efa,2022-07-06_01h32.36.557,Colour_Asymmetry_Pilot,2022.1.3,Win32,60.00960154,62c50e9c1127f2cd403a315f,0,56,56,48,1,onetwo,,,,,,,,,,,,,,,,,,,,,,,,,,,,,,,,,,,,,,,,,,,,,,,,,,,,,,,,,,,,,,,,,,,,,,,,,,,,,,,,,,,,,,,,,,,,,,,,,,,,,,,,,,,,,,,,,,,,,,,,,,,,,,,,,,,,,,,,,,,,,,,,,,,,,,,,,,,,,
,,,,,,614b9cf9b25cadec95eefee0,62c53a202e79a1004aaf4efa,2022-07-06_01h32.36.557,Colour_Asymmetry_Pilot,2022.1.3,Win32,60.00960154,62c50e9c1127f2cd403a315f,0,57,57,97,1,onethree,,,,,,,,,,,,,,,,,,,,,,,,,,,,,,,,,,,,,,,,,,,,,,,,,,,,,,,,,,,,,,,,,,,,,,,,,,,,,,,,,,,,,,,,,,,,,,,,,,,,,,,,,,,,,,,,,,,,,,,,,,,,,,,,,,,,,,,,,,,,,,,,,,,,,,,,,,,,,
,,,,,,614b9cf9b25cadec95eefee0,62c53a202e79a1004aaf4efa,2022-07-06_01h32.36.557,Colour_Asymmetry_Pilot,2022.1.3,Win32,60.00960154,62c50e9c1127f2cd403a315f,0,58,58,11,1,twofour,,,,,,,,,,,,,,,,,,,,,,,,,,,,,,,,,,,,,,,,,,,,,,,,,,,,,,,,,,,,,,,,,,,,,,,,,,,,,,,,,,,,,,,,,,,,,,,,,,,,,,,,,,,,,,,,,,,,,,,,,,,,,,,,,,,,,,,,,,,,,,,,,,,,,,,,,,,,,
,,,,,,614b9cf9b25cadec95eefee0,62c53a202e79a1004aaf4efa,2022-07-06_01h32.36.557,Colour_Asymmetry_Pilot,2022.1.3,Win32,60.00960154,62c50e9c1127f2cd403a315f,0,59,59,144,1,onetwo,,,,,,,,,,,,,,,,,,,,,,,,,,,,,,,,,,,,,,,,,,,,,,,,,,,,,,,,,,,,,,,,,,,,,,,,,,,,,,,,,,,,,,,,,,,,,,,,,,,,,,,,,,,,,,,,,,,,,,,,,,,,,,,,,,,,,,,,,,,,,,,,,,,,,,,,,,,,,
,,,,,,614b9cf9b25cadec95eefee0,62c53a202e79a1004aaf4efa,2022-07-06_01h32.36.557,Colour_Asymmetry_Pilot,2022.1.3,Win32,60.00960154,62c50e9c1127f2cd403a315f,0,60,60,152,1,onetwo,,,,,,,,,,,,,,,,,,,,,,,,,,,,,,,,,,,,,,,,,,,,,,,,,,,,,,,,,,,,,,,,,,,,,,,,,,,,,,,,,,,,,,,,,,,,,,,,,,,,,,,,,,,,,,,,,,,,,,,,,,,,,,,,,,,,,,,,,,,,,,,,,,,,,,,,,,,,,
,,,,,,614b9cf9b25cadec95eefee0,62c53a202e79a1004aaf4efa,2022-07-06_01h32.36.557,Colour_Asymmetry_Pilot,2022.1.3,Win32,60.00960154,62c50e9c1127f2cd403a315f,0,61,61,76,1,threeone,,,,,,,,,,,,,,,,,,,,,,,,,,,,,,,,,,,,,,,,,,,,,,,,,,,,,,,,,,,,,,,,,,,,,,,,,,,,,,,,,,,,,,,,,,,,,,,,,,,,,,,,,,,,,,,,,,,,,,,,,,,,,,,,,,,,,,,,,,,,,,,,,,,,,,,,,,,,,
,,,,,,614b9cf9b25cadec95eefee0,62c53a202e79a1004aaf4efa,2022-07-06_01h32.36.557,Colour_Asymmetry_Pilot,2022.1.3,Win32,60.00960154,62c50e9c1127f2cd403a315f,0,62,62,57,1,onethree,,,,,,,,,,,,,,,,,,,,,,,,,,,,,,,,,,,,,,,,,,,,,,,,,,,,,,,,,,,,,,,,,,,,,,,,,,,,,,,,,,,,,,,,,,,,,,,,,,,,,,,,,,,,,,,,,,,,,,,,,,,,,,,,,,,,,,,,,,,,,,,,,,,,,,,,,,,,,
,,,,,,614b9cf9b25cadec95eefee0,62c53a202e79a1004aaf4efa,2022-07-06_01h32.36.557,Colour_Asymmetry_Pilot,2022.1.3,Win32,60.00960154,62c50e9c1127f2cd403a315f,0,63,63,10,1,twoone,,,,,,,,,,,,,,,,,,,,,,,,,,,,,,,,,,,,,,,,,,,,,,,,,,,,,,,,,,,,,,,,,,,,,,,,,,,,,,,,,,,,,,,,,,,,,,,,,,,,,,,,,,,,,,,,,,,,,,,,,,,,,,,,,,,,,,,,,,,,,,,,,,,,,,,,,,,,,
,,,,,,614b9cf9b25cadec95eefee0,62c53a202e79a1004aaf4efa,2022-07-06_01h32.36.557,Colour_Asymmetry_Pilot,2022.1.3,Win32,60.00960154,62c50e9c1127f2cd403a315f,0,64,64,24,1,onetwo,,,,,,,,,,,,,,,,,,,,,,,,,,,,,,,,,,,,,,,,,,,,,,,,,,,,,,,,,,,,,,,,,,,,,,,,,,,,,,,,,,,,,,,,,,,,,,,,,,,,,,,,,,,,,,,,,,,,,,,,,,,,,,,,,,,,,,,,,,,,,,,,,,,,,,,,,,,,,
,,,,,,614b9cf9b25cadec95eefee0,62c53a202e79a1004aaf4efa,2022-07-06_01h32.36.557,Colour_Asymmetry_Pilot,2022.1.3,Win32,60.00960154,62c50e9c1127f2cd403a315f,0,65,65,30,1,fourtwo,,,,,,,,,,,,,,,,,,,,,,,,,,,,,,,,,,,,,,,,,,,,,,,,,,,,,,,,,,,,,,,,,,,,,,,,,,,,,,,,,,,,,,,,,,,,,,,,,,,,,,,,,,,,,,,,,,,,,,,,,,,,,,,,,,,,,,,,,,,,,,,,,,,,,,,,,,,,,
,,,,,,614b9cf9b25cadec95eefee0,62c53a202e79a1004aaf4efa,2022-07-06_01h32.36.557,Colour_Asymmetry_Pilot,2022.1.3,Win32,60.00960154,62c50e9c1127f2cd403a315f,0,66,66,67,1,twofour,,,,,,,,,,,,,,,,,,,,,,,,,,,,,,,,,,,,,,,,,,,,,,,,,,,,,,,,,,,,,,,,,,,,,,,,,,,,,,,,,,,,,,,,,,,,,,,,,,,,,,,,,,,,,,,,,,,,,,,,,,,,,,,,,,,,,,,,,,,,,,,,,,,,,,,,,,,,,
,,,,,,614b9cf9b25cadec95eefee0,62c53a202e79a1004aaf4efa,2022-07-06_01h32.36.557,Colour_Asymmetry_Pilot,2022.1.3,Win32,60.00960154,62c50e9c1127f2cd403a315f,0,67,67,15,1,fourthree,,,,,,,,,,,,,,,,,,,,,,,,,,,,,,,,,,,,,,,,,,,,,,,,,,,,,,,,,,,,,,,,,,,,,,,,,,,,,,,,,,,,,,,,,,,,,,,,,,,,,,,,,,,,,,,,,,,,,,,,,,,,,,,,,,,,,,,,,,,,,,,,,,,,,,,,,,,,,
,,,,,,614b9cf9b25cadec95eefee0,62c53a202e79a1004aaf4efa,2022-07-06_01h32.36.557,Colour_Asymmetry_Pilot,2022.1.3,Win32,60.00960154,62c50e9c1127f2cd403a315f,0,68,68,81,1,onethree,,,,,,,,,,,,,,,,,,,,,,,,,,,,,,,,,,,,,,,,,,,,,,,,,,,,,,,,,,,,,,,,,,,,,,,,,,,,,,,,,,,,,,,,,,,,,,,,,,,,,,,,,,,,,,,,,,,,,,,,,,,,,,,,,,,,,,,,,,,,,,,,,,,,,,,,,,,,,
,,,,,,614b9cf9b25cadec95eefee0,62c53a202e79a1004aaf4efa,2022-07-06_01h32.36.557,Colour_Asymmetry_Pilot,2022.1.3,Win32,60.00960154,62c50e9c1127f2cd403a315f,0,69,69,70,1,fourtwo,,,,,,,,,,,,,,,,,,,,,,,,,,,,,,,,,,,,,,,,,,,,,,,,,,,,,,,,,,,,,,,,,,,,,,,,,,,,,,,,,,,,,,,,,,,,,,,,,,,,,,,,,,,,,,,,,,,,,,,,,,,,,,,,,,,,,,,,,,,,,,,,,,,,,,,,,,,,,
,,,,,,614b9cf9b25cadec95eefee0,62c53a202e79a1004aaf4efa,2022-07-06_01h32.36.557,Colour_Asymmetry_Pilot,2022.1.3,Win32,60.00960154,62c50e9c1127f2cd403a315f,0,70,70,104,1,onetwo,,,,,,,,,,,,,,,,,,,,,,,,,,,,,,,,,,,,,,,,,,,,,,,,,,,,,,,,,,,,,,,,,,,,,,,,,,,,,,,,,,,,,,,,,,,,,,,,,,,,,,,,,,,,,,,,,,,,,,,,,,,,,,,,,,,,,,,,,,,,,,,,,,,,,,,,,,,,,
,,,,,,614b9cf9b25cadec95eefee0,62c53a202e79a1004aaf4efa,2022-07-06_01h32.36.557,Colour_Asymmetry_Pilot,2022.1.3,Win32,60.00960154,62c50e9c1127f2cd403a315f,0,71,71,87,1,fourthree,,,,,,,,,,,,,,,,,,,,,,,,,,,,,,,,,,,,,,,,,,,,,,,,,,,,,,,,,,,,,,,,,,,,,,,,,,,,,,,,,,,,,,,,,,,,,,,,,,,,,,,,,,,,,,,,,,,,,,,,,,,,,,,,,,,,,,,,,,,,,,,,,,,,,,,,,,,,,
,,,,,,614b9cf9b25cadec95eefee0,62c53a202e79a1004aaf4efa,2022-07-06_01h32.36.557,Colour_Asymmetry_Pilot,2022.1.3,Win32,60.00960154,62c50e9c1127f2cd403a315f,0,72,72,74,1,twoone,,,,,,,,,,,,,,,,,,,,,,,,,,,,,,,,,,,,,,,,,,,,,,,,,,,,,,,,,,,,,,,,,,,,,,,,,,,,,,,,,,,,,,,,,,,,,,,,,,,,,,,,,,,,,,,,,,,,,,,,,,,,,,,,,,,,,,,,,,,,,,,,,,,,,,,,,,,,,
,,,,,,614b9cf9b25cadec95eefee0,62c53a202e79a1004aaf4efa,2022-07-06_01h32.36.557,Colour_Asymmetry_Pilot,2022.1.3,Win32,60.00960154,62c50e9c1127f2cd403a315f,0,73,73,71,1,fourthree,,,,,,,,,,,,,,,,,,,,,,,,,,,,,,,,,,,,,,,,,,,,,,,,,,,,,,,,,,,,,,,,,,,,,,,,,,,,,,,,,,,,,,,,,,,,,,,,,,,,,,,,,,,,,,,,,,,,,,,,,,,,,,,,,,,,,,,,,,,,,,,,,,,,,,,,,,,,,
,,,,,,614b9cf9b25cadec95eefee0,62c53a202e79a1004aaf4efa,2022-07-06_01h32.36.557,Colour_Asymmetry_Pilot,2022.1.3,Win32,60.00960154,62c50e9c1127f2cd403a315f,0,74,74,82,1,twoone,,,,,,,,,,,,,,,,,,,,,,,,,,,,,,,,,,,,,,,,,,,,,,,,,,,,,,,,,,,,,,,,,,,,,,,,,,,,,,,,,,,,,,,,,,,,,,,,,,,,,,,,,,,,,,,,,,,,,,,,,,,,,,,,,,,,,,,,,,,,,,,,,,,,,,,,,,,,,
,,,,,,614b9cf9b25cadec95eefee0,62c53a202e79a1004aaf4efa,2022-07-06_01h32.36.557,Colour_Asymmetry_Pilot,2022.1.3,Win32,60.00960154,62c50e9c1127f2cd403a315f,0,75,75,138,1,twoone,,,,,,,,,,,,,,,,,,,,,,,,,,,,,,,,,,,,,,,,,,,,,,,,,,,,,,,,,,,,,,,,,,,,,,,,,,,,,,,,,,,,,,,,,,,,,,,,,,,,,,,,,,,,,,,,,,,,,,,,,,,,,,,,,,,,,,,,,,,,,,,,,,,,,,,,,,,,,
,,,,,,614b9cf9b25cadec95eefee0,62c53a202e79a1004aaf4efa,2022-07-06_01h32.36.557,Colour_Asymmetry_Pilot,2022.1.3,Win32,60.00960154,62c50e9c1127f2cd403a315f,0,76,76,158,1,fourtwo,,,,,,,,,,,,,,,,,,,,,,,,,,,,,,,,,,,,,,,,,,,,,,,,,,,,,,,,,,,,,,,,,,,,,,,,,,,,,,,,,,,,,,,,,,,,,,,,,,,,,,,,,,,,,,,,,,,,,,,,,,,,,,,,,,,,,,,,,,,,,,,,,,,,,,,,,,,,,
,,,,,,614b9cf9b25cadec95eefee0,62c53a202e79a1004aaf4efa,2022-07-06_01h32.36.557,Colour_Asymmetry_Pilot,2022.1.3,Win32,60.00960154,62c50e9c1127f2cd403a315f,0,77,77,33,1,onethree,,,,,,,,,,,,,,,,,,,,,,,,,,,,,,,,,,,,,,,,,,,,,,,,,,,,,,,,,,,,,,,,,,,,,,,,,,,,,,,,,,,,,,,,,,,,,,,,,,,,,,,,,,,,,,,,,,,,,,,,,,,,,,,,,,,,,,,,,,,,,,,,,,,,,,,,,,,,,
,,,,,,614b9cf9b25cadec95eefee0,62c53a202e79a1004aaf4efa,2022-07-06_01h32.36.557,Colour_Asymmetry_Pilot,2022.1.3,Win32,60.00960154,62c50e9c1127f2cd403a315f,0,78,78,9,1,onethree,,,,,,,,,,,,,,,,,,,,,,,,,,,,,,,,,,,,,,,,,,,,,,,,,,,,,,,,,,,,,,,,,,,,,,,,,,,,,,,,,,,,,,,,,,,,,,,,,,,,,,,,,,,,,,,,,,,,,,,,,,,,,,,,,,,,,,,,,,,,,,,,,,,,,,,,,,,,,
,,,,,,614b9cf9b25cadec95eefee0,62c53a202e79a1004aaf4efa,2022-07-06_01h32.36.557,Colour_Asymmetry_Pilot,2022.1.3,Win32,60.00960154,62c50e9c1127f2cd403a315f,0,79,79,90,1,twoone,,,,,,,,,,,,,,,,,,,,,,,,,,,,,,,,,,,,,,,,,,,,,,,,,,,,,,,,,,,,,,,,,,,,,,,,,,,,,,,,,,,,,,,,,,,,,,,,,,,,,,,,,,,,,,,,,,,,,,,,,,,,,,,,,,,,,,,,,,,,,,,,,,,,,,,,,,,,,
,,,,,,614b9cf9b25cadec95eefee0,62c53a202e79a1004aaf4efa,2022-07-06_01h32.36.557,Colour_Asymmetry_Pilot,2022.1.3,Win32,60.00960154,62c50e9c1127f2cd403a315f,0,80,80,12,1,threeone,,,,,,,,,,,,,,,,,,,,,,,,,,,,,,,,,,,,,,,,,,,,,,,,,,,,,,,,,,,,,,,,,,,,,,,,,,,,,,,,,,,,,,,,,,,,,,,,,,,,,,,,,,,,,,,,,,,,,,,,,,,,,,,,,,,,,,,,,,,,,,,,,,,,,,,,,,,,,
,,,,,,614b9cf9b25cadec95eefee0,62c53a202e79a1004aaf4efa,2022-07-06_01h32.36.557,Colour_Asymmetry_Pilot,2022.1.3,Win32,60.00960154,62c50e9c1127f2cd403a315f,0,81,81,52,1,threeone,,,,,,,,,,,,,,,,,,,,,,,,,,,,,,,,,,,,,,,,,,,,,,,,,,,,,,,,,,,,,,,,,,,,,,,,,,,,,,,,,,,,,,,,,,,,,,,,,,,,,,,,,,,,,,,,,,,,,,,,,,,,,,,,,,,,,,,,,,,,,,,,,,,,,,,,,,,,,
,,,,,,614b9cf9b25cadec95eefee0,62c53a202e79a1004aaf4efa,2022-07-06_01h32.36.557,Colour_Asymmetry_Pilot,2022.1.3,Win32,60.00960154,62c50e9c1127f2cd403a315f,0,82,82,151,1,fourthree,,,,,,,,,,,,,,,,,,,,,,,,,,,,,,,,,,,,,,,,,,,,,,,,,,,,,,,,,,,,,,,,,,,,,,,,,,,,,,,,,,,,,,,,,,,,,,,,,,,,,,,,,,,,,,,,,,,,,,,,,,,,,,,,,,,,,,,,,,,,,,,,,,,,,,,,,,,,,
,,,,,,614b9cf9b25cadec95eefee0,62c53a202e79a1004aaf4efa,2022-07-06_01h32.36.557,Colour_Asymmetry_Pilot,2022.1.3,Win32,60.00960154,62c50e9c1127f2cd403a315f,0,83,83,1,1,onethree,,,,,,,,,,,,,,,,,,,,,,,,,,,,,,,,,,,,,,,,,,,,,,,,,,,,,,,,,,,,,,,,,,,,,,,,,,,,,,,,,,,,,,,,,,,,,,,,,,,,,,,,,,,,,,,,,,,,,,,,,,,,,,,,,,,,,,,,,,,,,,,,,,,,,,,,,,,,,
,,,,,,614b9cf9b25cadec95eefee0,62c53a202e79a1004aaf4efa,2022-07-06_01h32.36.557,Colour_Asymmetry_Pilot,2022.1.3,Win32,60.00960154,62c50e9c1127f2cd403a315f,0,84,84,132,1,threeone,,,,,,,,,,,,,,,,,,,,,,,,,,,,,,,,,,,,,,,,,,,,,,,,,,,,,,,,,,,,,,,,,,,,,,,,,,,,,,,,,,,,,,,,,,,,,,,,,,,,,,,,,,,,,,,,,,,,,,,,,,,,,,,,,,,,,,,,,,,,,,,,,,,,,,,,,,,,,
,,,,,,614b9cf9b25cadec95eefee0,62c53a202e79a1004aaf4efa,2022-07-06_01h32.36.557,Colour_Asymmetry_Pilot,2022.1.3,Win32,60.00960154,62c50e9c1127f2cd403a315f,0,85,85,21,1,threefour,,,,,,,,,,,,,,,,,,,,,,,,,,,,,,,,,,,,,,,,,,,,,,,,,,,,,,,,,,,,,,,,,,,,,,,,,,,,,,,,,,,,,,,,,,,,,,,,,,,,,,,,,,,,,,,,,,,,,,,,,,,,,,,,,,,,,,,,,,,,,,,,,,,,,,,,,,,,,
,,,,,,614b9cf9b25cadec95eefee0,62c53a202e79a1004aaf4efa,2022-07-06_01h32.36.557,Colour_Asymmetry_Pilot,2022.1.3,Win32,60.00960154,62c50e9c1127f2cd403a315f,0,86,86,127,1,fourthree,,,,,,,,,,,,,,,,,,,,,,,,,,,,,,,,,,,,,,,,,,,,,,,,,,,,,,,,,,,,,,,,,,,,,,,,,,,,,,,,,,,,,,,,,,,,,,,,,,,,,,,,,,,,,,,,,,,,,,,,,,,,,,,,,,,,,,,,,,,,,,,,,,,,,,,,,,,,,
,,,,,,614b9cf9b25cadec95eefee0,62c53a202e79a1004aaf4efa,2022-07-06_01h32.36.557,Colour_Asymmetry_Pilot,2022.1.3,Win32,60.00960154,62c50e9c1127f2cd403a315f,0,87,87,149,1,threefour,,,,,,,,,,,,,,,,,,,,,,,,,,,,,,,,,,,,,,,,,,,,,,,,,,,,,,,,,,,,,,,,,,,,,,,,,,,,,,,,,,,,,,,,,,,,,,,,,,,,,,,,,,,,,,,,,,,,,,,,,,,,,,,,,,,,,,,,,,,,,,,,,,,,,,,,,,,,,
,,,,,,614b9cf9b25cadec95eefee0,62c53a202e79a1004aaf4efa,2022-07-06_01h32.36.557,Colour_Asymmetry_Pilot,2022.1.3,Win32,60.00960154,62c50e9c1127f2cd403a315f,0,88,88,94,1,fourtwo,,,,,,,,,,,,,,,,,,,,,,,,,,,,,,,,,,,,,,,,,,,,,,,,,,,,,,,,,,,,,,,,,,,,,,,,,,,,,,,,,,,,,,,,,,,,,,,,,,,,,,,,,,,,,,,,,,,,,,,,,,,,,,,,,,,,,,,,,,,,,,,,,,,,,,,,,,,,,
,,,,,,614b9cf9b25cadec95eefee0,62c53a202e79a1004aaf4efa,2022-07-06_01h32.36.557,Colour_Asymmetry_Pilot,2022.1.3,Win32,60.00960154,62c50e9c1127f2cd403a315f,0,89,89,155,1,twofour,,,,,,,,,,,,,,,,,,,,,,,,,,,,,,,,,,,,,,,,,,,,,,,,,,,,,,,,,,,,,,,,,,,,,,,,,,,,,,,,,,,,,,,,,,,,,,,,,,,,,,,,,,,,,,,,,,,,,,,,,,,,,,,,,,,,,,,,,,,,,,,,,,,,,,,,,,,,,
,,,,,,614b9cf9b25cadec95eefee0,62c53a202e79a1004aaf4efa,2022-07-06_01h32.36.557,Colour_Asymmetry_Pilot,2022.1.3,Win32,60.00960154,62c50e9c1127f2cd403a315f,0,90,90,8,1,onetwo,,,,,,,,,,,,,,,,,,,,,,,,,,,,,,,,,,,,,,,,,,,,,,,,,,,,,,,,,,,,,,,,,,,,,,,,,,,,,,,,,,,,,,,,,,,,,,,,,,,,,,,,,,,,,,,,,,,,,,,,,,,,,,,,,,,,,,,,,,,,,,,,,,,,,,,,,,,,,
,,,,,,614b9cf9b25cadec95eefee0,62c53a202e79a1004aaf4efa,2022-07-06_01h32.36.557,Colour_Asymmetry_Pilot,2022.1.3,Win32,60.00960154,62c50e9c1127f2cd403a315f,0,91,91,19,1,twofour,,,,,,,,,,,,,,,,,,,,,,,,,,,,,,,,,,,,,,,,,,,,,,,,,,,,,,,,,,,,,,,,,,,,,,,,,,,,,,,,,,,,,,,,,,,,,,,,,,,,,,,,,,,,,,,,,,,,,,,,,,,,,,,,,,,,,,,,,,,,,,,,,,,,,,,,,,,,,
,,,,,,614b9cf9b25cadec95eefee0,62c53a202e79a1004aaf4efa,2022-07-06_01h32.36.557,Colour_Asymmetry_Pilot,2022.1.3,Win32,60.00960154,62c50e9c1127f2cd403a315f,0,92,92,124,1,threeone,,,,,,,,,,,,,,,,,,,,,,,,,,,,,,,,,,,,,,,,,,,,,,,,,,,,,,,,,,,,,,,,,,,,,,,,,,,,,,,,,,,,,,,,,,,,,,,,,,,,,,,,,,,,,,,,,,,,,,,,,,,,,,,,,,,,,,,,,,,,,,,,,,,,,,,,,,,,,
,,,,,,614b9cf9b25cadec95eefee0,62c53a202e79a1004aaf4efa,2022-07-06_01h32.36.557,Colour_Asymmetry_Pilot,2022.1.3,Win32,60.00960154,62c50e9c1127f2cd403a315f,0,93,93,147,1,twofour,,,,,,,,,,,,,,,,,,,,,,,,,,,,,,,,,,,,,,,,,,,,,,,,,,,,,,,,,,,,,,,,,,,,,,,,,,,,,,,,,,,,,,,,,,,,,,,,,,,,,,,,,,,,,,,,,,,,,,,,,,,,,,,,,,,,,,,,,,,,,,,,,,,,,,,,,,,,,
,,,,,,614b9cf9b25cadec95eefee0,62c53a202e79a1004aaf4efa,2022-07-06_01h32.36.557,Colour_Asymmetry_Pilot,2022.1.3,Win32,60.00960154,62c50e9c1127f2cd403a315f,0,94,94,153,1,onethree,,,,,,,,,,,,,,,,,,,,,,,,,,,,,,,,,,,,,,,,,,,,,,,,,,,,,,,,,,,,,,,,,,,,,,,,,,,,,,,,,,,,,,,,,,,,,,,,,,,,,,,,,,,,,,,,,,,,,,,,,,,,,,,,,,,,,,,,,,,,,,,,,,,,,,,,,,,,,
,,,,,,614b9cf9b25cadec95eefee0,62c53a202e79a1004aaf4efa,2022-07-06_01h32.36.557,Colour_Asymmetry_Pilot,2022.1.3,Win32,60.00960154,62c50e9c1127f2cd403a315f,0,95,95,150,1,fourtwo,,,,,,,,,,,,,,,,,,,,,,,,,,,,,,,,,,,,,,,,,,,,,,,,,,,,,,,,,,,,,,,,,,,,,,,,,,,,,,,,,,,,,,,,,,,,,,,,,,,,,,,,,,,,,,,,,,,,,,,,,,,,,,,,,,,,,,,,,,,,,,,,,,,,,,,,,,,,,
,,,,,,614b9cf9b25cadec95eefee0,62c53a202e79a1004aaf4efa,2022-07-06_01h32.36.557,Colour_Asymmetry_Pilot,2022.1.3,Win32,60.00960154,62c50e9c1127f2cd403a315f,0,96,96,66,1,twoone,,,,,,,,,,,,,,,,,,,,,,,,,,,,,,,,,,,,,,,,,,,,,,,,,,,,,,,,,,,,,,,,,,,,,,,,,,,,,,,,,,,,,,,,,,,,,,,,,,,,,,,,,,,,,,,,,,,,,,,,,,,,,,,,,,,,,,,,,,,,,,,,,,,,,,,,,,,,,
,,,,,,614b9cf9b25cadec95eefee0,62c53a202e79a1004aaf4efa,2022-07-06_01h32.36.557,Colour_Asymmetry_Pilot,2022.1.3,Win32,60.00960154,62c50e9c1127f2cd403a315f,0,97,97,40,1,onetwo,,,,,,,,,,,,,,,,,,,,,,,,,,,,,,,,,,,,,,,,,,,,,,,,,,,,,,,,,,,,,,,,,,,,,,,,,,,,,,,,,,,,,,,,,,,,,,,,,,,,,,,,,,,,,,,,,,,,,,,,,,,,,,,,,,,,,,,,,,,,,,,,,,,,,,,,,,,,,
,,,,,,614b9cf9b25cadec95eefee0,62c53a202e79a1004aaf4efa,2022-07-06_01h32.36.557,Colour_Asymmetry_Pilot,2022.1.3,Win32,60.00960154,62c50e9c1127f2cd403a315f,0,98,98,42,1,twoone,,,,,,,,,,,,,,,,,,,,,,,,,,,,,,,,,,,,,,,,,,,,,,,,,,,,,,,,,,,,,,,,,,,,,,,,,,,,,,,,,,,,,,,,,,,,,,,,,,,,,,,,,,,,,,,,,,,,,,,,,,,,,,,,,,,,,,,,,,,,,,,,,,,,,,,,,,,,,
,,,,,,614b9cf9b25cadec95eefee0,62c53a202e79a1004aaf4efa,2022-07-06_01h32.36.557,Colour_Asymmetry_Pilot,2022.1.3,Win32,60.00960154,62c50e9c1127f2cd403a315f,0,99,99,13,1,threefour,,,,,,,,,,,,,,,,,,,,,,,,,,,,,,,,,,,,,,,,,,,,,,,,,,,,,,,,,,,,,,,,,,,,,,,,,,,,,,,,,,,,,,,,,,,,,,,,,,,,,,,,,,,,,,,,,,,,,,,,,,,,,,,,,,,,,,,,,,,,,,,,,,,,,,,,,,,,,
,,,,,,614b9cf9b25cadec95eefee0,62c53a202e79a1004aaf4efa,2022-07-06_01h32.36.557,Colour_Asymmetry_Pilot,2022.1.3,Win32,60.00960154,62c50e9c1127f2cd403a315f,0,100,100,56,1,onetwo,,,,,,,,,,,,,,,,,,,,,,,,,,,,,,,,,,,,,,,,,,,,,,,,,,,,,,,,,,,,,,,,,,,,,,,,,,,,,,,,,,,,,,,,,,,,,,,,,,,,,,,,,,,,,,,,,,,,,,,,,,,,,,,,,,,,,,,,,,,,,,,,,,,,,,,,,,,,,
,,,,,,614b9cf9b25cadec95eefee0,62c53a202e79a1004aaf4efa,2022-07-06_01h32.36.557,Colour_Asymmetry_Pilot,2022.1.3,Win32,60.00960154,62c50e9c1127f2cd403a315f,0,101,101,115,1,twofour,,,,,,,,,,,,,,,,,,,,,,,,,,,,,,,,,,,,,,,,,,,,,,,,,,,,,,,,,,,,,,,,,,,,,,,,,,,,,,,,,,,,,,,,,,,,,,,,,,,,,,,,,,,,,,,,,,,,,,,,,,,,,,,,,,,,,,,,,,,,,,,,,,,,,,,,,,,,,
,,,,,,614b9cf9b25cadec95eefee0,62c53a202e79a1004aaf4efa,2022-07-06_01h32.36.557,Colour_Asymmetry_Pilot,2022.1.3,Win32,60.00960154,62c50e9c1127f2cd403a315f,0,102,102,86,1,fourtwo,,,,,,,,,,,,,,,,,,,,,,,,,,,,,,,,,,,,,,,,,,,,,,,,,,,,,,,,,,,,,,,,,,,,,,,,,,,,,,,,,,,,,,,,,,,,,,,,,,,,,,,,,,,,,,,,,,,,,,,,,,,,,,,,,,,,,,,,,,,,,,,,,,,,,,,,,,,,,
,,,,,,614b9cf9b25cadec95eefee0,62c53a202e79a1004aaf4efa,2022-07-06_01h32.36.557,Colour_Asymmetry_Pilot,2022.1.3,Win32,60.00960154,62c50e9c1127f2cd403a315f,0,103,103,5,1,threefour,,,,,,,,,,,,,,,,,,,,,,,,,,,,,,,,,,,,,,,,,,,,,,,,,,,,,,,,,,,,,,,,,,,,,,,,,,,,,,,,,,,,,,,,,,,,,,,,,,,,,,,,,,,,,,,,,,,,,,,,,,,,,,,,,,,,,,,,,,,,,,,,,,,,,,,,,,,,,
,,,,,,614b9cf9b25cadec95eefee0,62c53a202e79a1004aaf4efa,2022-07-06_01h32.36.557,Colour_Asymmetry_Pilot,2022.1.3,Win32,60.00960154,62c50e9c1127f2cd403a315f,0,104,104,117,1,threefour,,,,,,,,,,,,,,,,,,,,,,,,,,,,,,,,,,,,,,,,,,,,,,,,,,,,,,,,,,,,,,,,,,,,,,,,,,,,,,,,,,,,,,,,,,,,,,,,,,,,,,,,,,,,,,,,,,,,,,,,,,,,,,,,,,,,,,,,,,,,,,,,,,,,,,,,,,,,,
,,,,,,614b9cf9b25cadec95eefee0,62c53a202e79a1004aaf4efa,2022-07-06_01h32.36.557,Colour_Asymmetry_Pilot,2022.1.3,Win32,60.00960154,62c50e9c1127f2cd403a315f,0,105,105,55,1,fourthree,,,,,,,,,,,,,,,,,,,,,,,,,,,,,,,,,,,,,,,,,,,,,,,,,,,,,,,,,,,,,,,,,,,,,,,,,,,,,,,,,,,,,,,,,,,,,,,,,,,,,,,,,,,,,,,,,,,,,,,,,,,,,,,,,,,,,,,,,,,,,,,,,,,,,,,,,,,,,
,,,,,,614b9cf9b25cadec95eefee0,62c53a202e79a1004aaf4efa,2022-07-06_01h32.36.557,Colour_Asymmetry_Pilot,2022.1.3,Win32,60.00960154,62c50e9c1127f2cd403a315f,0,106,106,114,1,twoone,,,,,,,,,,,,,,,,,,,,,,,,,,,,,,,,,,,,,,,,,,,,,,,,,,,,,,,,,,,,,,,,,,,,,,,,,,,,,,,,,,,,,,,,,,,,,,,,,,,,,,,,,,,,,,,,,,,,,,,,,,,,,,,,,,,,,,,,,,,,,,,,,,,,,,,,,,,,,
,,,,,,614b9cf9b25cadec95eefee0,62c53a202e79a1004aaf4efa,2022-07-06_01h32.36.557,Colour_Asymmetry_Pilot,2022.1.3,Win32,60.00960154,62c50e9c1127f2cd403a315f,0,107,107,68,1,threeone,,,,,,,,,,,,,,,,,,,,,,,,,,,,,,,,,,,,,,,,,,,,,,,,,,,,,,,,,,,,,,,,,,,,,,,,,,,,,,,,,,,,,,,,,,,,,,,,,,,,,,,,,,,,,,,,,,,,,,,,,,,,,,,,,,,,,,,,,,,,,,,,,,,,,,,,,,,,,
,,,,,,614b9cf9b25cadec95eefee0,62c53a202e79a1004aaf4efa,2022-07-06_01h32.36.557,Colour_Asymmetry_Pilot,2022.1.3,Win32,60.00960154,62c50e9c1127f2cd403a315f,0,108,108,91,1,twofour,,,,,,,,,,,,,,,,,,,,,,,,,,,,,,,,,,,,,,,,,,,,,,,,,,,,,,,,,,,,,,,,,,,,,,,,,,,,,,,,,,,,,,,,,,,,,,,,,,,,,,,,,,,,,,,,,,,,,,,,,,,,,,,,,,,,,,,,,,,,,,,,,,,,,,,,,,,,,
,,,,,,614b9cf9b25cadec95eefee0,62c53a202e79a1004aaf4efa,2022-07-06_01h32.36.557,Colour_Asymmetry_Pilot,2022.1.3,Win32,60.00960154,62c50e9c1127f2cd403a315f,0,109,109,106,1,twoone,,,,,,,,,,,,,,,,,,,,,,,,,,,,,,,,,,,,,,,,,,,,,,,,,,,,,,,,,,,,,,,,,,,,,,,,,,,,,,,,,,,,,,,,,,,,,,,,,,,,,,,,,,,,,,,,,,,,,,,,,,,,,,,,,,,,,,,,,,,,,,,,,,,,,,,,,,,,,
,,,,,,614b9cf9b25cadec95eefee0,62c53a202e79a1004aaf4efa,2022-07-06_01h32.36.557,Colour_Asymmetry_Pilot,2022.1.3,Win32,60.00960154,62c50e9c1127f2cd403a315f,0,110,110,95,1,fourthree,,,,,,,,,,,,,,,,,,,,,,,,,,,,,,,,,,,,,,,,,,,,,,,,,,,,,,,,,,,,,,,,,,,,,,,,,,,,,,,,,,,,,,,,,,,,,,,,,,,,,,,,,,,,,,,,,,,,,,,,,,,,,,,,,,,,,,,,,,,,,,,,,,,,,,,,,,,,,
,,,,,,614b9cf9b25cadec95eefee0,62c53a202e79a1004aaf4efa,2022-07-06_01h32.36.557,Colour_Asymmetry_Pilot,2022.1.3,Win32,60.00960154,62c50e9c1127f2cd403a315f,0,111,111,137,1,onethree,,,,,,,,,,,,,,,,,,,,,,,,,,,,,,,,,,,,,,,,,,,,,,,,,,,,,,,,,,,,,,,,,,,,,,,,,,,,,,,,,,,,,,,,,,,,,,,,,,,,,,,,,,,,,,,,,,,,,,,,,,,,,,,,,,,,,,,,,,,,,,,,,,,,,,,,,,,,,
,,,,,,614b9cf9b25cadec95eefee0,62c53a202e79a1004aaf4efa,2022-07-06_01h32.36.557,Colour_Asymmetry_Pilot,2022.1.3,Win32,60.00960154,62c50e9c1127f2cd403a315f,0,112,112,113,1,onethree,,,,,,,,,,,,,,,,,,,,,,,,,,,,,,,,,,,,,,,,,,,,,,,,,,,,,,,,,,,,,,,,,,,,,,,,,,,,,,,,,,,,,,,,,,,,,,,,,,,,,,,,,,,,,,,,,,,,,,,,,,,,,,,,,,,,,,,,,,,,,,,,,,,,,,,,,,,,,
,,,,,,614b9cf9b25cadec95eefee0,62c53a202e79a1004aaf4efa,2022-07-06_01h32.36.557,Colour_Asymmetry_Pilot,2022.1.3,Win32,60.00960154,62c50e9c1127f2cd403a315f,0,113,113,116,1,threeone,,,,,,,,,,,,,,,,,,,,,,,,,,,,,,,,,,,,,,,,,,,,,,,,,,,,,,,,,,,,,,,,,,,,,,,,,,,,,,,,,,,,,,,,,,,,,,,,,,,,,,,,,,,,,,,,,,,,,,,,,,,,,,,,,,,,,,,,,,,,,,,,,,,,,,,,,,,,,
,,,,,,614b9cf9b25cadec95eefee0,62c53a202e79a1004aaf4efa,2022-07-06_01h32.36.557,Colour_Asymmetry_Pilot,2022.1.3,Win32,60.00960154,62c50e9c1127f2cd403a315f,0,114,114,32,1,onetwo,,,,,,,,,,,,,,,,,,,,,,,,,,,,,,,,,,,,,,,,,,,,,,,,,,,,,,,,,,,,,,,,,,,,,,,,,,,,,,,,,,,,,,,,,,,,,,,,,,,,,,,,,,,,,,,,,,,,,,,,,,,,,,,,,,,,,,,,,,,,,,,,,,,,,,,,,,,,,
,,,,,,614b9cf9b25cadec95eefee0,62c53a202e79a1004aaf4efa,2022-07-06_01h32.36.557,Colour_Asymmetry_Pilot,2022.1.3,Win32,60.00960154,62c50e9c1127f2cd403a315f,0,115,115,118,1,fourtwo,,,,,,,,,,,,,,,,,,,,,,,,,,,,,,,,,,,,,,,,,,,,,,,,,,,,,,,,,,,,,,,,,,,,,,,,,,,,,,,,,,,,,,,,,,,,,,,,,,,,,,,,,,,,,,,,,,,,,,,,,,,,,,,,,,,,,,,,,,,,,,,,,,,,,,,,,,,,,
,,,,,,614b9cf9b25cadec95eefee0,62c53a202e79a1004aaf4efa,2022-07-06_01h32.36.557,Colour_Asymmetry_Pilot,2022.1.3,Win32,60.00960154,62c50e9c1127f2cd403a315f,0,116,116,27,1,twofour,,,,,,,,,,,,,,,,,,,,,,,,,,,,,,,,,,,,,,,,,,,,,,,,,,,,,,,,,,,,,,,,,,,,,,,,,,,,,,,,,,,,,,,,,,,,,,,,,,,,,,,,,,,,,,,,,,,,,,,,,,,,,,,,,,,,,,,,,,,,,,,,,,,,,,,,,,,,,
,,,,,,614b9cf9b25cadec95eefee0,62c53a202e79a1004aaf4efa,2022-07-06_01h32.36.557,Colour_Asymmetry_Pilot,2022.1.3,Win32,60.00960154,62c50e9c1127f2cd403a315f,0,117,117,45,1,threefour,,,,,,,,,,,,,,,,,,,,,,,,,,,,,,,,,,,,,,,,,,,,,,,,,,,,,,,,,,,,,,,,,,,,,,,,,,,,,,,,,,,,,,,,,,,,,,,,,,,,,,,,,,,,,,,,,,,,,,,,,,,,,,,,,,,,,,,,,,,,,,,,,,,,,,,,,,,,,
,,,,,,614b9cf9b25cadec95eefee0,62c53a202e79a1004aaf4efa,2022-07-06_01h32.36.557,Colour_Asymmetry_Pilot,2022.1.3,Win32,60.00960154,62c50e9c1127f2cd403a315f,0,118,118,112,1,onetwo,,,,,,,,,,,,,,,,,,,,,,,,,,,,,,,,,,,,,,,,,,,,,,,,,,,,,,,,,,,,,,,,,,,,,,,,,,,,,,,,,,,,,,,,,,,,,,,,,,,,,,,,,,,,,,,,,,,,,,,,,,,,,,,,,,,,,,,,,,,,,,,,,,,,,,,,,,,,,
,,,,,,614b9cf9b25cadec95eefee0,62c53a202e79a1004aaf4efa,2022-07-06_01h32.36.557,Colour_Asymmetry_Pilot,2022.1.3,Win32,60.00960154,62c50e9c1127f2cd403a315f,0,119,119,77,1,threefour,,,,,,,,,,,,,,,,,,,,,,,,,,,,,,,,,,,,,,,,,,,,,,,,,,,,,,,,,,,,,,,,,,,,,,,,,,,,,,,,,,,,,,,,,,,,,,,,,,,,,,,,,,,,,,,,,,,,,,,,,,,,,,,,,,,,,,,,,,,,,,,,,,,,,,,,,,,,,
,,,,,,614b9cf9b25cadec95eefee0,62c53a202e79a1004aaf4efa,2022-07-06_01h32.36.557,Colour_Asymmetry_Pilot,2022.1.3,Win32,60.00960154,62c50e9c1127f2cd403a315f,0,120,120,99,1,twofour,,,,,,,,,,,,,,,,,,,,,,,,,,,,,,,,,,,,,,,,,,,,,,,,,,,,,,,,,,,,,,,,,,,,,,,,,,,,,,,,,,,,,,,,,,,,,,,,,,,,,,,,,,,,,,,,,,,,,,,,,,,,,,,,,,,,,,,,,,,,,,,,,,,,,,,,,,,,,
,,,,,,614b9cf9b25cadec95eefee0,62c53a202e79a1004aaf4efa,2022-07-06_01h32.36.557,Colour_Asymmetry_Pilot,2022.1.3,Win32,60.00960154,62c50e9c1127f2cd403a315f,0,121,121,131,1,twofour,,,,,,,,,,,,,,,,,,,,,,,,,,,,,,,,,,,,,,,,,,,,,,,,,,,,,,,,,,,,,,,,,,,,,,,,,,,,,,,,,,,,,,,,,,,,,,,,,,,,,,,,,,,,,,,,,,,,,,,,,,,,,,,,,,,,,,,,,,,,,,,,,,,,,,,,,,,,,
,,,,,,614b9cf9b25cadec95eefee0,62c53a202e79a1004aaf4efa,2022-07-06_01h32.36.557,Colour_Asymmetry_Pilot,2022.1.3,Win32,60.00960154,62c50e9c1127f2cd403a315f,0,122,122,39,1,fourthree,,,,,,,,,,,,,,,,,,,,,,,,,,,,,,,,,,,,,,,,,,,,,,,,,,,,,,,,,,,,,,,,,,,,,,,,,,,,,,,,,,,,,,,,,,,,,,,,,,,,,,,,,,,,,,,,,,,,,,,,,,,,,,,,,,,,,,,,,,,,,,,,,,,,,,,,,,,,,
,,,,,,614b9cf9b25cadec95eefee0,62c53a202e79a1004aaf4efa,2022-07-06_01h32.36.557,Colour_Asymmetry_Pilot,2022.1.3,Win32,60.00960154,62c50e9c1127f2cd403a315f,0,123,123,44,1,threeone,,,,,,,,,,,,,,,,,,,,,,,,,,,,,,,,,,,,,,,,,,,,,,,,,,,,,,,,,,,,,,,,,,,,,,,,,,,,,,,,,,,,,,,,,,,,,,,,,,,,,,,,,,,,,,,,,,,,,,,,,,,,,,,,,,,,,,,,,,,,,,,,,,,,,,,,,,,,,
,,,,,,614b9cf9b25cadec95eefee0,62c53a202e79a1004aaf4efa,2022-07-06_01h32.36.557,Colour_Asymmetry_Pilot,2022.1.3,Win32,60.00960154,62c50e9c1127f2cd403a315f,0,124,124,38,1,fourtwo,,,,,,,,,,,,,,,,,,,,,,,,,,,,,,,,,,,,,,,,,,,,,,,,,,,,,,,,,,,,,,,,,,,,,,,,,,,,,,,,,,,,,,,,,,,,,,,,,,,,,,,,,,,,,,,,,,,,,,,,,,,,,,,,,,,,,,,,,,,,,,,,,,,,,,,,,,,,,
,,,,,,614b9cf9b25cadec95eefee0,62c53a202e79a1004aaf4efa,2022-07-06_01h32.36.557,Colour_Asymmetry_Pilot,2022.1.3,Win32,60.00960154,62c50e9c1127f2cd403a315f,0,125,125,100,1,threeone,,,,,,,,,,,,,,,,,,,,,,,,,,,,,,,,,,,,,,,,,,,,,,,,,,,,,,,,,,,,,,,,,,,,,,,,,,,,,,,,,,,,,,,,,,,,,,,,,,,,,,,,,,,,,,,,,,,,,,,,,,,,,,,,,,,,,,,,,,,,,,,,,,,,,,,,,,,,,
,,,,,,614b9cf9b25cadec95eefee0,62c53a202e79a1004aaf4efa,2022-07-06_01h32.36.557,Colour_Asymmetry_Pilot,2022.1.3,Win32,60.00960154,62c50e9c1127f2cd403a315f,0,126,126,72,1,onetwo,,,,,,,,,,,,,,,,,,,,,,,,,,,,,,,,,,,,,,,,,,,,,,,,,,,,,,,,,,,,,,,,,,,,,,,,,,,,,,,,,,,,,,,,,,,,,,,,,,,,,,,,,,,,,,,,,,,,,,,,,,,,,,,,,,,,,,,,,,,,,,,,,,,,,,,,,,,,,
,,,,,,614b9cf9b25cadec95eefee0,62c53a202e79a1004aaf4efa,2022-07-06_01h32.36.557,Colour_Asymmetry_Pilot,2022.1.3,Win32,60.00960154,62c50e9c1127f2cd403a315f,0,127,127,126,1,fourtwo,,,,,,,,,,,,,,,,,,,,,,,,,,,,,,,,,,,,,,,,,,,,,,,,,,,,,,,,,,,,,,,,,,,,,,,,,,,,,,,,,,,,,,,,,,,,,,,,,,,,,,,,,,,,,,,,,,,,,,,,,,,,,,,,,,,,,,,,,,,,,,,,,,,,,,,,,,,,,
,,,,,,614b9cf9b25cadec95eefee0,62c53a202e79a1004aaf4efa,2022-07-06_01h32.36.557,Colour_Asymmetry_Pilot,2022.1.3,Win32,60.00960154,62c50e9c1127f2cd403a315f,0,128,128,125,1,threefour,,,,,,,,,,,,,,,,,,,,,,,,,,,,,,,,,,,,,,,,,,,,,,,,,,,,,,,,,,,,,,,,,,,,,,,,,,,,,,,,,,,,,,,,,,,,,,,,,,,,,,,,,,,,,,,,,,,,,,,,,,,,,,,,,,,,,,,,,,,,,,,,,,,,,,,,,,,,,
,,,,,,614b9cf9b25cadec95eefee0,62c53a202e79a1004aaf4efa,2022-07-06_01h32.36.557,Colour_Asymmetry_Pilot,2022.1.3,Win32,60.00960154,62c50e9c1127f2cd403a315f,0,129,129,141,1,threefour,,,,,,,,,,,,,,,,,,,,,,,,,,,,,,,,,,,,,,,,,,,,,,,,,,,,,,,,,,,,,,,,,,,,,,,,,,,,,,,,,,,,,,,,,,,,,,,,,,,,,,,,,,,,,,,,,,,,,,,,,,,,,,,,,,,,,,,,,,,,,,,,,,,,,,,,,,,,,
,,,,,,614b9cf9b25cadec95eefee0,62c53a202e79a1004aaf4efa,2022-07-06_01h32.36.557,Colour_Asymmetry_Pilot,2022.1.3,Win32,60.00960154,62c50e9c1127f2cd403a315f,0,130,130,136,1,onetwo,,,,,,,,,,,,,,,,,,,,,,,,,,,,,,,,,,,,,,,,,,,,,,,,,,,,,,,,,,,,,,,,,,,,,,,,,,,,,,,,,,,,,,,,,,,,,,,,,,,,,,,,,,,,,,,,,,,,,,,,,,,,,,,,,,,,,,,,,,,,,,,,,,,,,,,,,,,,,
,,,,,,614b9cf9b25cadec95eefee0,62c53a202e79a1004aaf4efa,2022-07-06_01h32.36.557,Colour_Asymmetry_Pilot,2022.1.3,Win32,60.00960154,62c50e9c1127f2cd403a315f,0,131,131,47,1,fourthree,,,,,,,,,,,,,,,,,,,,,,,,,,,,,,,,,,,,,,,,,,,,,,,,,,,,,,,,,,,,,,,,,,,,,,,,,,,,,,,,,,,,,,,,,,,,,,,,,,,,,,,,,,,,,,,,,,,,,,,,,,,,,,,,,,,,,,,,,,,,,,,,,,,,,,,,,,,,,
,,,,,,614b9cf9b25cadec95eefee0,62c53a202e79a1004aaf4efa,2022-07-06_01h32.36.557,Colour_Asymmetry_Pilot,2022.1.3,Win32,60.00960154,62c50e9c1127f2cd403a315f,0,132,132,135,1,fourthree,,,,,,,,,,,,,,,,,,,,,,,,,,,,,,,,,,,,,,,,,,,,,,,,,,,,,,,,,,,,,,,,,,,,,,,,,,,,,,,,,,,,,,,,,,,,,,,,,,,,,,,,,,,,,,,,,,,,,,,,,,,,,,,,,,,,,,,,,,,,,,,,,,,,,,,,,,,,,
,,,,,,614b9cf9b25cadec95eefee0,62c53a202e79a1004aaf4efa,2022-07-06_01h32.36.557,Colour_Asymmetry_Pilot,2022.1.3,Win32,60.00960154,62c50e9c1127f2cd403a315f,0,133,133,92,1,threeone,,,,,,,,,,,,,,,,,,,,,,,,,,,,,,,,,,,,,,,,,,,,,,,,,,,,,,,,,,,,,,,,,,,,,,,,,,,,,,,,,,,,,,,,,,,,,,,,,,,,,,,,,,,,,,,,,,,,,,,,,,,,,,,,,,,,,,,,,,,,,,,,,,,,,,,,,,,,,
,,,,,,614b9cf9b25cadec95eefee0,62c53a202e79a1004aaf4efa,2022-07-06_01h32.36.557,Colour_Asymmetry_Pilot,2022.1.3,Win32,60.00960154,62c50e9c1127f2cd403a315f,0,134,134,145,1,onethree,,,,,,,,,,,,,,,,,,,,,,,,,,,,,,,,,,,,,,,,,,,,,,,,,,,,,,,,,,,,,,,,,,,,,,,,,,,,,,,,,,,,,,,,,,,,,,,,,,,,,,,,,,,,,,,,,,,,,,,,,,,,,,,,,,,,,,,,,,,,,,,,,,,,,,,,,,,,,
,,,,,,614b9cf9b25cadec95eefee0,62c53a202e79a1004aaf4efa,2022-07-06_01h32.36.557,Colour_Asymmetry_Pilot,2022.1.3,Win32,60.00960154,62c50e9c1127f2cd403a315f,0,135,135,102,1,fourtwo,,,,,,,,,,,,,,,,,,,,,,,,,,,,,,,,,,,,,,,,,,,,,,,,,,,,,,,,,,,,,,,,,,,,,,,,,,,,,,,,,,,,,,,,,,,,,,,,,,,,,,,,,,,,,,,,,,,,,,,,,,,,,,,,,,,,,,,,,,,,,,,,,,,,,,,,,,,,,
,,,,,,614b9cf9b25cadec95eefee0,62c53a202e79a1004aaf4efa,2022-07-06_01h32.36.557,Colour_Asymmetry_Pilot,2022.1.3,Win32,60.00960154,62c50e9c1127f2cd403a315f,0,136,136,121,1,onethree,,,,,,,,,,,,,,,,,,,,,,,,,,,,,,,,,,,,,,,,,,,,,,,,,,,,,,,,,,,,,,,,,,,,,,,,,,,,,,,,,,,,,,,,,,,,,,,,,,,,,,,,,,,,,,,,,,,,,,,,,,,,,,,,,,,,,,,,,,,,,,,,,,,,,,,,,,,,,
,,,,,,614b9cf9b25cadec95eefee0,62c53a202e79a1004aaf4efa,2022-07-06_01h32.36.557,Colour_Asymmetry_Pilot,2022.1.3,Win32,60.00960154,62c50e9c1127f2cd403a315f,0,137,137,83,1,twofour,,,,,,,,,,,,,,,,,,,,,,,,,,,,,,,,,,,,,,,,,,,,,,,,,,,,,,,,,,,,,,,,,,,,,,,,,,,,,,,,,,,,,,,,,,,,,,,,,,,,,,,,,,,,,,,,,,,,,,,,,,,,,,,,,,,,,,,,,,,,,,,,,,,,,,,,,,,,,
,,,,,,614b9cf9b25cadec95eefee0,62c53a202e79a1004aaf4efa,2022-07-06_01h32.36.557,Colour_Asymmetry_Pilot,2022.1.3,Win32,60.00960154,62c50e9c1127f2cd403a315f,0,138,138,59,1,twofour,,,,,,,,,,,,,,,,,,,,,,,,,,,,,,,,,,,,,,,,,,,,,,,,,,,,,,,,,,,,,,,,,,,,,,,,,,,,,,,,,,,,,,,,,,,,,,,,,,,,,,,,,,,,,,,,,,,,,,,,,,,,,,,,,,,,,,,,,,,,,,,,,,,,,,,,,,,,,
,,,,,,614b9cf9b25cadec95eefee0,62c53a202e79a1004aaf4efa,2022-07-06_01h32.36.557,Colour_Asymmetry_Pilot,2022.1.3,Win32,60.00960154,62c50e9c1127f2cd403a315f,0,139,139,50,1,twoone,,,,,,,,,,,,,,,,,,,,,,,,,,,,,,,,,,,,,,,,,,,,,,,,,,,,,,,,,,,,,,,,,,,,,,,,,,,,,,,,,,,,,,,,,,,,,,,,,,,,,,,,,,,,,,,,,,,,,,,,,,,,,,,,,,,,,,,,,,,,,,,,,,,,,,,,,,,,,
,,,,,,614b9cf9b25cadec95eefee0,62c53a202e79a1004aaf4efa,2022-07-06_01h32.36.557,Colour_Asymmetry_Pilot,2022.1.3,Win32,60.00960154,62c50e9c1127f2cd403a315f,0,140,140,26,1,twoone,,,,,,,,,,,,,,,,,,,,,,,,,,,,,,,,,,,,,,,,,,,,,,,,,,,,,,,,,,,,,,,,,,,,,,,,,,,,,,,,,,,,,,,,,,,,,,,,,,,,,,,,,,,,,,,,,,,,,,,,,,,,,,,,,,,,,,,,,,,,,,,,,,,,,,,,,,,,,
,,,,,,614b9cf9b25cadec95eefee0,62c53a202e79a1004aaf4efa,2022-07-06_01h32.36.557,Colour_Asymmetry_Pilot,2022.1.3,Win32,60.00960154,62c50e9c1127f2cd403a315f,0,141,141,134,1,fourtwo,,,,,,,,,,,,,,,,,,,,,,,,,,,,,,,,,,,,,,,,,,,,,,,,,,,,,,,,,,,,,,,,,,,,,,,,,,,,,,,,,,,,,,,,,,,,,,,,,,,,,,,,,,,,,,,,,,,,,,,,,,,,,,,,,,,,,,,,,,,,,,,,,,,,,,,,,,,,,
,,,,,,614b9cf9b25cadec95eefee0,62c53a202e79a1004aaf4efa,2022-07-06_01h32.36.557,Colour_Asymmetry_Pilot,2022.1.3,Win32,60.00960154,62c50e9c1127f2cd403a315f,0,142,142,28,1,threeone,,,,,,,,,,,,,,,,,,,,,,,,,,,,,,,,,,,,,,,,,,,,,,,,,,,,,,,,,,,,,,,,,,,,,,,,,,,,,,,,,,,,,,,,,,,,,,,,,,,,,,,,,,,,,,,,,,,,,,,,,,,,,,,,,,,,,,,,,,,,,,,,,,,,,,,,,,,,,
,,,,,,614b9cf9b25cadec95eefee0,62c53a202e79a1004aaf4efa,2022-07-06_01h32.36.557,Colour_Asymmetry_Pilot,2022.1.3,Win32,60.00960154,62c50e9c1127f2cd403a315f,0,143,143,93,1,threefour,,,,,,,,,,,,,,,,,,,,,,,,,,,,,,,,,,,,,,,,,,,,,,,,,,,,,,,,,,,,,,,,,,,,,,,,,,,,,,,,,,,,,,,,,,,,,,,,,,,,,,,,,,,,,,,,,,,,,,,,,,,,,,,,,,,,,,,,,,,,,,,,,,,,,,,,,,,,,
,,,,,,614b9cf9b25cadec95eefee0,62c53a202e79a1004aaf4efa,2022-07-06_01h32.36.557,Colour_Asymmetry_Pilot,2022.1.3,Win32,60.00960154,62c50e9c1127f2cd403a315f,0,144,144,29,1,threefour,,,,,,,,,,,,,,,,,,,,,,,,,,,,,,,,,,,,,,,,,,,,,,,,,,,,,,,,,,,,,,,,,,,,,,,,,,,,,,,,,,,,,,,,,,,,,,,,,,,,,,,,,,,,,,,,,,,,,,,,,,,,,,,,,,,,,,,,,,,,,,,,,,,,,,,,,,,,,
,,,,,,614b9cf9b25cadec95eefee0,62c53a202e79a1004aaf4efa,2022-07-06_01h32.36.557,Colour_Asymmetry_Pilot,2022.1.3,Win32,60.00960154,62c50e9c1127f2cd403a315f,0,145,145,101,1,threefour,,,,,,,,,,,,,,,,,,,,,,,,,,,,,,,,,,,,,,,,,,,,,,,,,,,,,,,,,,,,,,,,,,,,,,,,,,,,,,,,,,,,,,,,,,,,,,,,,,,,,,,,,,,,,,,,,,,,,,,,,,,,,,,,,,,,,,,,,,,,,,,,,,,,,,,,,,,,,
,,,,,,614b9cf9b25cadec95eefee0,62c53a202e79a1004aaf4efa,2022-07-06_01h32.36.557,Colour_Asymmetry_Pilot,2022.1.3,Win32,60.00960154,62c50e9c1127f2cd403a315f,0,146,146,105,1,onethree,,,,,,,,,,,,,,,,,,,,,,,,,,,,,,,,,,,,,,,,,,,,,,,,,,,,,,,,,,,,,,,,,,,,,,,,,,,,,,,,,,,,,,,,,,,,,,,,,,,,,,,,,,,,,,,,,,,,,,,,,,,,,,,,,,,,,,,,,,,,,,,,,,,,,,,,,,,,,
,,,,,,614b9cf9b25cadec95eefee0,62c53a202e79a1004aaf4efa,2022-07-06_01h32.36.557,Colour_Asymmetry_Pilot,2022.1.3,Win32,60.00960154,62c50e9c1127f2cd403a315f,0,147,147,41,1,onethree,,,,,,,,,,,,,,,,,,,,,,,,,,,,,,,,,,,,,,,,,,,,,,,,,,,,,,,,,,,,,,,,,,,,,,,,,,,,,,,,,,,,,,,,,,,,,,,,,,,,,,,,,,,,,,,,,,,,,,,,,,,,,,,,,,,,,,,,,,,,,,,,,,,,,,,,,,,,,
,,,,,,614b9cf9b25cadec95eefee0,62c53a202e79a1004aaf4efa,2022-07-06_01h32.36.557,Colour_Asymmetry_Pilot,2022.1.3,Win32,60.00960154,62c50e9c1127f2cd403a315f,0,148,148,157,1,threefour,,,,,,,,,,,,,,,,,,,,,,,,,,,,,,,,,,,,,,,,,,,,,,,,,,,,,,,,,,,,,,,,,,,,,,,,,,,,,,,,,,,,,,,,,,,,,,,,,,,,,,,,,,,,,,,,,,,,,,,,,,,,,,,,,,,,,,,,,,,,,,,,,,,,,,,,,,,,,
,,,,,,614b9cf9b25cadec95eefee0,62c53a202e79a1004aaf4efa,2022-07-06_01h32.36.557,Colour_Asymmetry_Pilot,2022.1.3,Win32,60.00960154,62c50e9c1127f2cd403a315f,0,149,149,69,1,threefour,,,,,,,,,,,,,,,,,,,,,,,,,,,,,,,,,,,,,,,,,,,,,,,,,,,,,,,,,,,,,,,,,,,,,,,,,,,,,,,,,,,,,,,,,,,,,,,,,,,,,,,,,,,,,,,,,,,,,,,,,,,,,,,,,,,,,,,,,,,,,,,,,,,,,,,,,,,,,
,,,,,,614b9cf9b25cadec95eefee0,62c53a202e79a1004aaf4efa,2022-07-06_01h32.36.557,Colour_Asymmetry_Pilot,2022.1.3,Win32,60.00960154,62c50e9c1127f2cd403a315f,0,150,150,18,1,twoone,,,,,,,,,,,,,,,,,,,,,,,,,,,,,,,,,,,,,,,,,,,,,,,,,,,,,,,,,,,,,,,,,,,,,,,,,,,,,,,,,,,,,,,,,,,,,,,,,,,,,,,,,,,,,,,,,,,,,,,,,,,,,,,,,,,,,,,,,,,,,,,,,,,,,,,,,,,,,
,,,,,,614b9cf9b25cadec95eefee0,62c53a202e79a1004aaf4efa,2022-07-06_01h32.36.557,Colour_Asymmetry_Pilot,2022.1.3,Win32,60.00960154,62c50e9c1127f2cd403a315f,0,151,151,143,1,fourthree,,,,,,,,,,,,,,,,,,,,,,,,,,,,,,,,,,,,,,,,,,,,,,,,,,,,,,,,,,,,,,,,,,,,,,,,,,,,,,,,,,,,,,,,,,,,,,,,,,,,,,,,,,,,,,,,,,,,,,,,,,,,,,,,,,,,,,,,,,,,,,,,,,,,,,,,,,,,,
,,,,,,614b9cf9b25cadec95eefee0,62c53a202e79a1004aaf4efa,2022-07-06_01h32.36.557,Colour_Asymmetry_Pilot,2022.1.3,Win32,60.00960154,62c50e9c1127f2cd403a315f,0,152,152,64,1,onetwo,,,,,,,,,,,,,,,,,,,,,,,,,,,,,,,,,,,,,,,,,,,,,,,,,,,,,,,,,,,,,,,,,,,,,,,,,,,,,,,,,,,,,,,,,,,,,,,,,,,,,,,,,,,,,,,,,,,,,,,,,,,,,,,,,,,,,,,,,,,,,,,,,,,,,,,,,,,,,
,,,,,,614b9cf9b25cadec95eefee0,62c53a202e79a1004aaf4efa,2022-07-06_01h32.36.557,Colour_Asymmetry_Pilot,2022.1.3,Win32,60.00960154,62c50e9c1127f2cd403a315f,0,153,153,53,1,threefour,,,,,,,,,,,,,,,,,,,,,,,,,,,,,,,,,,,,,,,,,,,,,,,,,,,,,,,,,,,,,,,,,,,,,,,,,,,,,,,,,,,,,,,,,,,,,,,,,,,,,,,,,,,,,,,,,,,,,,,,,,,,,,,,,,,,,,,,,,,,,,,,,,,,,,,,,,,,,
,,,,,,614b9cf9b25cadec95eefee0,62c53a202e79a1004aaf4efa,2022-07-06_01h32.36.557,Colour_Asymmetry_Pilot,2022.1.3,Win32,60.00960154,62c50e9c1127f2cd403a315f,0,154,154,20,1,threeone,,,,,,,,,,,,,,,,,,,,,,,,,,,,,,,,,,,,,,,,,,,,,,,,,,,,,,,,,,,,,,,,,,,,,,,,,,,,,,,,,,,,,,,,,,,,,,,,,,,,,,,,,,,,,,,,,,,,,,,,,,,,,,,,,,,,,,,,,,,,,,,,,,,,,,,,,,,,,
,,,,,,614b9cf9b25cadec95eefee0,62c53a202e79a1004aaf4efa,2022-07-06_01h32.36.557,Colour_Asymmetry_Pilot,2022.1.3,Win32,60.00960154,62c50e9c1127f2cd403a315f,0,155,155,111,1,fourthree,,,,,,,,,,,,,,,,,,,,,,,,,,,,,,,,,,,,,,,,,,,,,,,,,,,,,,,,,,,,,,,,,,,,,,,,,,,,,,,,,,,,,,,,,,,,,,,,,,,,,,,,,,,,,,,,,,,,,,,,,,,,,,,,,,,,,,,,,,,,,,,,,,,,,,,,,,,,,
,,,,,,614b9cf9b25cadec95eefee0,62c53a202e79a1004aaf4efa,2022-07-06_01h32.36.557,Colour_Asymmetry_Pilot,2022.1.3,Win32,60.00960154,62c50e9c1127f2cd403a315f,0,156,156,122,1,twoone,,,,,,,,,,,,,,,,,,,,,,,,,,,,,,,,,,,,,,,,,,,,,,,,,,,,,,,,,,,,,,,,,,,,,,,,,,,,,,,,,,,,,,,,,,,,,,,,,,,,,,,,,,,,,,,,,,,,,,,,,,,,,,,,,,,,,,,,,,,,,,,,,,,,,,,,,,,,,
,,,,,,614b9cf9b25cadec95eefee0,62c53a202e79a1004aaf4efa,2022-07-06_01h32.36.557,Colour_Asymmetry_Pilot,2022.1.3,Win32,60.00960154,62c50e9c1127f2cd403a315f,0,157,157,75,1,twofour,,,,,,,,,,,,,,,,,,,,,,,,,,,,,,,,,,,,,,,,,,,,,,,,,,,,,,,,,,,,,,,,,,,,,,,,,,,,,,,,,,,,,,,,,,,,,,,,,,,,,,,,,,,,,,,,,,,,,,,,,,,,,,,,,,,,,,,,,,,,,,,,,,,,,,,,,,,,,
,,,,,,614b9cf9b25cadec95eefee0,62c53a202e79a1004aaf4efa,2022-07-06_01h32.36.557,Colour_Asymmetry_Pilot,2022.1.3,Win32,60.00960154,62c50e9c1127f2cd403a315f,0,158,158,4,1,threeone,,,,,,,,,,,,,,,,,,,,,,,,,,,,,,,,,,,,,,,,,,,,,,,,,,,,,,,,,,,,,,,,,,,,,,,,,,,,,,,,,,,,,,,,,,,,,,,,,,,,,,,,,,,,,,,,,,,,,,,,,,,,,,,,,,,,,,,,,,,,,,,,,,,,,,,,,,,,,
,,,,,,614b9cf9b25cadec95eefee0,62c53a202e79a1004aaf4efa,2022-07-06_01h32.36.557,Colour_Asymmetry_Pilot,2022.1.3,Win32,60.00960154,62c50e9c1127f2cd403a315f,0,159,159,109,1,threefour,,,,,,,,,,,,,,,,,,,,,,,,,,,,,,,,,,,,,,,,,,,,,,,,,,,,,,,,,,,,,,,,,,,,,,,,,,,,,,,,,,,,,,,,,,,,,,,,,,,,,,,,,,,,,,,,,,,,,,,,,,,,,,,,,,,,,,,,,,,,,,,,,,,,,,,,,,,,,
,,,,,,614b9cf9b25cadec95eefee0,62c53a202e79a1004aaf4efa,2022-07-06_01h32.36.557,Colour_Asymmetry_Pilot,2022.1.3,Win32,60.00960154,62c50e9c1127f2cd403a315f,0,160,160,58,1,twoone,,,,,,,,,,,,,,,,,,,,,,,,,,,,,,,,,,,,,,,,,,,,,,,,,,,,,,,,,,,,,,,,,,,,,,,,,,,,,,,,,,,,,,,,,,,,,,,,,,,,,,,,,,,,,,,,,,,,,,,,,,,,,,,,,,,,,,,,,,,,,,,,,,,,,,,,,,,,,
,,,,,,614b9cf9b25cadec95eefee0,62c53a202e79a1004aaf4efa,2022-07-06_01h32.36.557,Colour_Asymmetry_Pilot,2022.1.3,Win32,60.00960154,62c50e9c1127f2cd403a315f,0,161,161,154,1,twoone,,,,,,,,,,,,,,,,,,,,,,,,,,,,,,,,,,,,,,,,,,,,,,,,,,,,,,,,,,,,,,,,,,,,,,,,,,,,,,,,,,,,,,,,,,,,,,,,,,,,,,,,,,,,,,,,,,,,,,,,,,,,,,,,,,,,,,,,,,,,,,,,,,,,,,,,,,,,,
,,,,,,614b9cf9b25cadec95eefee0,62c53a202e79a1004aaf4efa,2022-07-06_01h32.36.557,Colour_Asymmetry_Pilot,2022.1.3,Win32,60.00960154,62c50e9c1127f2cd403a315f,,,,,,,space,1.5501,space,5.6166,space,28.8163,space,31.0283,space,5.736,space,4.0663,"[0.3568,-0.20799999999999996,-0.9844]",twoone,"[-0.38039999999999996,-0.4276,-0.1452]",-4,7.0193,-52,103,1,0,0,response7disk_5,-10,4,1,0,0,rectangle_8,-10,4,1,0,0,2,-10,4,1,0,0,0,0,0,0,1,,,,,,,,,,,,,,,,,,,,,,,,,,,,,,,,,,,,,,,,,,,,,,,,,,,,,,,,,,,,,,,,,,,,,,,,,,,,,,,,,,,,,,,,,,,,,,,,,,,,,,,,,,,,,,,,
,,,,,,614b9cf9b25cadec95eefee0,62c53a202e79a1004aaf4efa,2022-07-06_01h32.36.557,Colour_Asymmetry_Pilot,2022.1.3,Win32,60.00960154,62c50e9c1127f2cd403a315f,,,,,,,,,,,,,,,,,,,"[-0.48240000000000005,0.3175999999999999,0.2156]",twofour,"[-0.7412000000000001,-0.08239999999999992,-0.6864]",1,4.602,41,-70,1,0,0,response3disk_5,-1,-5,1,0,0,rectangle_8,82,-45,1,0,0,2,8,-4,1,0,0,1,0,1,0,1,response3disk_7,5,rectangle_4,,,,,,,,,,,,,,,,,,,,,,,,,,,,,,,,,,,,,,,,,,,,,,,,,,,,,,,,,,,,,,,,,,,,,,,,,,,,,,,,,,,,,,,,,,,,,,,,,,,,,,,,,,,,,
,,,,,,614b9cf9b25cadec95eefee0,62c53a202e79a1004aaf4efa,2022-07-06_01h32.36.557,Colour_Asymmetry_Pilot,2022.1.3,Win32,60.00960154,62c50e9c1127f2cd403a315f,,,,,,,,,,,,,,,,,,,"[0.0351999999999999,0.41159999999999997,0.0038000000000000256]",twofour,"[-0.4276,0.0038000000000000256,-0.3256]",3,1.6013,99,37,1,0,0,response1disk_5,8,8,1,0,0,rectangle_8,8,8,1,0,0,2,8,8,1,0,0,2,0,2,0,1,,,,,,,,,,,,,,,,,,,,,,,,,,,,,,,,,,,,,,,,,,,,,,,,,,,,,,,,,,,,,,,,,,,,,,,,,,,,,,,,,,,,,,,,,,,,,,,,,,,,,,,,,,,,,,,,
,,,,,,614b9cf9b25cadec95eefee0,62c53a202e79a1004aaf4efa,2022-07-06_01h32.36.557,Colour_Asymmetry_Pilot,2022.1.3,Win32,60.00960154,62c50e9c1127f2cd403a315f,,,,,,,,,,,,,,,,,,,"[0.11359999999999992,0.6312,0.5213999999999999]",twofour,"[-0.17659999999999998,-0.2864,-0.8354]",-3,3.1004,-82,41,1,0,0,response7disk_5,0,9,1,0,0,rectangle_8,0,9,1,0,0,2,0,9,1,0,0,3,0,3,0,1,,,,,,,,,,,,,,,,,,,,,,,,,,,,,,,,,,,,,,,,,,,,,,,,,,,,,,,,,,,,,,,,,,,,,,,,,,,,,,,,,,,,,,,,,,,,,,,,,,,,,,,,,,,,,,,,
,,,,,,614b9cf9b25cadec95eefee0,62c53a202e79a1004aaf4efa,2022-07-06_01h32.36.557,Colour_Asymmetry_Pilot,2022.1.3,Win32,60.00960154,62c50e9c1127f2cd403a315f,,,,,,,,,,,,,,,,,,,"[0.9372,0.20779999999999998,0.2704]",onethree,"[0.7018,0.7802,-0.16079999999999994]",-4,1.8825,-38,88,1,0,0,response7disk_5,11,-10,1,0,0,rectangle_8,11,-10,1,0,0,2,11,-10,1,0,0,4,0,4,0,1,,,,,,,,,,,,,,,,,,,,,,,,,,,,,,,,,,,,,,,,,,,,,,,,,,,,,,,,,,,,,,,,,,,,,,,,,,,,,,,,,,,,,,,,,,,,,,,,,,,,,,,,,,,,,,,,
,,,,,,614b9cf9b25cadec95eefee0,62c53a202e79a1004aaf4efa,2022-07-06_01h32.36.557,Colour_Asymmetry_Pilot,2022.1.3,Win32,60.00960154,62c50e9c1127f2cd403a315f,,,,,,,,,,,,,,,,,,,"[0.7176,-0.906,-0.6864]",fourtwo,"[0.30180000000000007,-0.7884,-0.9844]",4,1.5523,42,78,1,0,0,response1disk_5,-1,3,1,0,0,rectangle_8,74,-36,1,0,0,2,3,1,1,0,0,5,0,5,0,1,response3disk_7,5,rectangle_4,,,,,,,,,,,,,,,,,,,,,,,,,,,,,,,,,,,,,,,,,,,,,,,,,,,,,,,,,,,,,,,,,,,,,,,,,,,,,,,,,,,,,,,,,,,,,,,,,,,,,,,,,,,,,
,,,,,,614b9cf9b25cadec95eefee0,62c53a202e79a1004aaf4efa,2022-07-06_01h32.36.557,Colour_Asymmetry_Pilot,2022.1.3,Win32,60.00960154,62c50e9c1127f2cd403a315f,,,,,,,,,,,,,,,,,,,"[0.3802000000000001,0.19199999999999995,-0.6394]",onethree,"[0.19199999999999995,0.18419999999999992,0.5136000000000001]",-4,2.9827,-36,65,1,0,0,response7disk_5,12,6,1,0,0,rectangle_8,12,6,1,0,0,2,12,6,1,0,0,6,0,6,0,1,,,,,,,,,,,,,,,,,,,,,,,,,,,,,,,,,,,,,,,,,,,,,,,,,,,,,,,,,,,,,,,,,,,,,,,,,,,,,,,,,,,,,,,,,,,,,,,,,,,,,,,,,,,,,,,,
,,,,,,614b9cf9b25cadec95eefee0,62c53a202e79a1004aaf4efa,2022-07-06_01h32.36.557,Colour_Asymmetry_Pilot,2022.1.3,Win32,60.00960154,62c50e9c1127f2cd403a315f,,,,,,,,,,,,,,,,,,,,twoone,,-4,2.2167,,,,,,,,,,,,,,,,,,,,,,,,,,,,,,,,space,31.193,"[0.2862,0.7802,0.3568]","[0.9686000000000001,0.3802000000000001,0.19999999999999996]",-27,70,1,0,0,response7disk,-2,12,1,0,0,rectangle,-2,12,1,0,0,,1,0.0021,0,-2,12,1,0,0,0,0,0,123,1,42,second,,,,,,,,,,,,,,,,,,,,,,,,,,,,,,,,,,,,,,,,,,,,,,,,,,,,,,,,,,,,,,,,,,,,,,,,
,,,,,,614b9cf9b25cadec95eefee0,62c53a202e79a1004aaf4efa,2022-07-06_01h32.36.557,Colour_Asymmetry_Pilot,2022.1.3,Win32,60.00960154,62c50e9c1127f2cd403a315f,,,,,,,,,,,,,,,,,,,,fourthree,,-4,3.542,,,,,,,,,,,,,,,,,,,,,,,,,,,,,,,,,,"[-0.9766,-0.6472,0.07440000000000002]","[0.04299999999999993,0.16060000000000008,-0.6628000000000001]",-50,68,1,0,0,response7disk,-4,12,1,0,0,rectangle,-4,12,1,0,0,,3,0.0015,0,-4,12,1,0,0,0,1,1,81,1,0,second,,,,,,,,,,,,,,,,,,,,,,,,,,,,,,,,,,,,,,,,,,,,,,,,,,,,,,,,,,,,,,,,,,,,,,,,
,,,,,,614b9cf9b25cadec95eefee0,62c53a202e79a1004aaf4efa,2022-07-06_01h32.36.557,Colour_Asymmetry_Pilot,2022.1.3,Win32,60.00960154,62c50e9c1127f2cd403a315f,,,,,,,,,,,,,,,,,,,,twofour,,-4,2.3329,,,,,,,,,,,,,,,,,,,,,,,,,,,,,,,,,,"[0.12939999999999996,-0.2864,0.3253999999999999]","[-0.4902000000000001,0.2704,-0.45899999999999996]",-52,76,1,0,0,response7disk,1,12,1,0,0,rectangle,79,-30,1,0,0,2,2,5.3196,1,2,-11,1,0,0,0,2,2,55,1,55,first,response3disk_3,rectangle,,,,,,,,,,,,,,,,,,,,,,,,,,,,,,,,,,,,,,,,,,,,,,,,,,,,,,,,,,,,,,,,,,,,,,
,,,,,,614b9cf9b25cadec95eefee0,62c53a202e79a1004aaf4efa,2022-07-06_01h32.36.557,Colour_Asymmetry_Pilot,2022.1.3,Win32,60.00960154,62c50e9c1127f2cd403a315f,,,,,,,,,,,,,,,,,,,,onethree,,-4,1.8347,,,,,,,,,,,,,,,,,,,,,,,,,,,,,,,,,,"[0.796,0.2156,-0.27859999999999996]","[-0.30200000000000005,0.14500000000000002,0.2784]",-37,82,1,0,0,response7disk,-2,7,1,0,0,rectangle,-2,7,1,0,0,2,3,0.0012,0,-2,7,1,0,0,0,3,3,17,1,17,first,,,,,,,,,,,,,,,,,,,,,,,,,,,,,,,,,,,,,,,,,,,,,,,,,,,,,,,,,,,,,,,,,,,,,,,,
,,,,,,614b9cf9b25cadec95eefee0,62c53a202e79a1004aaf4efa,2022-07-06_01h32.36.557,Colour_Asymmetry_Pilot,2022.1.3,Win32,60.00960154,62c50e9c1127f2cd403a315f,,,,,,,,,,,,,,,,,,,,fourtwo,,2,2.0854,,,,,,,,,,,,,,,,,,,,,,,,,,,,,,,,,,"[0.2784,-0.31000000000000005,-0.5452]","[0.8274000000000001,-0.5844,-0.9452]",69,-39,1,0,0,response3disk,7,2,1,0,0,rectangle,7,2,1,0,0,2,2,0.0012,0,7,2,1,0,0,0,4,4,40,1,40,first,,,,,,,,,,,,,,,,,,,,,,,,,,,,,,,,,,,,,,,,,,,,,,,,,,,,,,,,,,,,,,,,,,,,,,,,
,,,,,,614b9cf9b25cadec95eefee0,62c53a202e79a1004aaf4efa,2022-07-06_01h32.36.557,Colour_Asymmetry_Pilot,2022.1.3,Win32,60.00960154,62c50e9c1127f2cd403a315f,,,,,,,,,,,,,,,,,,,,twofour,,-4,1.5271,,,,,,,,,,,,,,,,,,,,,,,,,,,,,,,,,,"[0.37240000000000006,-0.050999999999999934,-0.5216]","[0.4196,0.4665999999999999,0.3568]",-39,69,1,0,0,response7disk,4,-7,1,0,0,rectangle,4,-7,1,0,0,2,3,0.002,0,4,-7,1,0,0,0,5,5,33,1,33,first,,,,,,,,,,,,,,,,,,,,,,,,,,,,,,,,,,,,,,,,,,,,,,,,,,,,,,,,,,,,,,,,,,,,,,,,
,,,,,,614b9cf9b25cadec95eefee0,62c53a202e79a1004aaf4efa,2022-07-06_01h32.36.557,Colour_Asymmetry_Pilot,2022.1.3,Win32,60.00960154,62c50e9c1127f2cd403a315f,,,,,,,,,,,,,,,,,,,,fourthree,,-4,1.0498,,,,,,,,,,,,,,,,,,,,,,,,,,,,,,,,,,"[0.6547999999999998,-0.043199999999999905,-0.011800000000000033]","[-0.7412000000000001,-0.08239999999999992,-0.6864]",-18,40,1,0,0,response7disk,-7,10,1,0,0,rectangle,-7,10,1,0,0,2,3,0.0002,0,-7,10,1,0,0,0,6,6,99,1,18,second,,,,,,,,,,,,,,,,,,,,,,,,,,,,,,,,,,,,,,,,,,,,,,,,,,,,,,,,,,,,,,,,,,,,,,,,
,,,,,,614b9cf9b25cadec95eefee0,62c53a202e79a1004aaf4efa,2022-07-06_01h32.36.557,Colour_Asymmetry_Pilot,2022.1.3,Win32,60.00960154,62c50e9c1127f2cd403a315f,,,,,,,,,,,,,,,,,,,,fourthree,,-4,1.2329,,,,,,,,,,,,,,,,,,,,,,,,,,,,,,,,,,"[0.2862,0.7802,0.3568]","[-0.06680000000000008,-0.45100000000000007,-0.906]",-41,91,1,0,0,response7disk,10,0,1,0,0,rectangle,10,0,1,0,0,2,3,0.0003,0,10,0,1,0,0,0,7,7,144,1,63,second,,,,,,,,,,,,,,,,,,,,,,,,,,,,,,,,,,,,,,,,,,,,,,,,,,,,,,,,,,,,,,,,,,,,,,,,
,,,,,,614b9cf9b25cadec95eefee0,62c53a202e79a1004aaf4efa,2022-07-06_01h32.36.557,Colour_Asymmetry_Pilot,2022.1.3,Win32,60.00960154,62c50e9c1127f2cd403a315f,,,,,,,,,,,,,,,,,,,,threeone,,-4,1.2132,,,,,,,,,,,,,,,,,,,,,,,,,,,,,,,,,,"[0.04299999999999993,0.16060000000000008,-0.6628000000000001]","[-0.9766,-0.6472,0.07440000000000002]",-42,64,1,0,0,response7disk,-2,8,1,0,0,rectangle,-2,8,1,0,0,2,3,0.0002,0,-2,8,1,0,0,0,8,8,0,1,0,first,,,,,,,,,,,,,,,,,,,,,,,,,,,,,,,,,,,,,,,,,,,,,,,,,,,,,,,,,,,,,,,,,,,,,,,,
,,,,,,614b9cf9b25cadec95eefee0,62c53a202e79a1004aaf4efa,2022-07-06_01h32.36.557,Colour_Asymmetry_Pilot,2022.1.3,Win32,60.00960154,62c50e9c1127f2cd403a315f,,,,,,,,,,,,,,,,,,,,fourtwo,,-1,3.2997,,,,,,,,,,,,,,,,,,,,,,,,,,,,,,,,,,"[-0.4276,0.0038000000000000256,-0.3256]","[0.04299999999999993,0.16060000000000008,-0.6628000000000001]",-50,-87,1,0,0,response5disk,-4,-2,1,0,0,rectangle,-4,-2,1,0,0,2,1,0.0013,0,-4,-2,1,0,0,0,9,9,142,1,61,second,,,,,,,,,,,,,,,,,,,,,,,,,,,,,,,,,,,,,,,,,,,,,,,,,,,,,,,,,,,,,,,,,,,,,,,,
,,,,,,614b9cf9b25cadec95eefee0,62c53a202e79a1004aaf4efa,2022-07-06_01h32.36.557,Colour_Asymmetry_Pilot,2022.1.3,Win32,60.00960154,62c50e9c1127f2cd403a315f,,,,,,,,,,,,,,,,,,,,onethree,,-4,0.7191,,,,,,,,,,,,,,,,,,,,,,,,,,,,,,,,,,"[-0.06680000000000008,-0.45100000000000007,-0.906]","[-0.4746,-0.0354000000000001,0.5449999999999999]",-51,75,1,0,0,response7disk,4,0,1,0,0,rectangle,104,-52,1,0,0,2,2,1.998,1,-4,4,1,0,0,0,10,10,97,1,16,second,response3disk_3,rectangle,,,,,,,,,,,,,,,,,,,,,,,,,,,,,,,,,,,,,,,,,,,,,,,,,,,,,,,,,,,,,,,,,,,,,,
,,,,,,614b9cf9b25cadec95eefee0,62c53a202e79a1004aaf4efa,2022-07-06_01h32.36.557,Colour_Asymmetry_Pilot,2022.1.3,Win32,60.00960154,62c50e9c1127f2cd403a315f,,,,,,,,,,,,,,,,,,,,fourthree,,-3,1.4735,,,,,,,,,,,,,,,,,,,,,,,,,,,,,,,,,,"[0.4196,0.4665999999999999,0.3568]","[-0.9688,-0.38039999999999996,-0.41979999999999995]",-56,22,1,0,0,response7disk,6,-15,1,0,0,rectangle,6,-15,1,0,0,2,3,0.0012,0,6,-15,1,0,0,0,11,11,80,1,80,first,,,,,,,,,,,,,,,,,,,,,,,,,,,,,,,,,,,,,,,,,,,,,,,,,,,,,,,,,,,,,,,,,,,,,,,,
,,,,,,614b9cf9b25cadec95eefee0,62c53a202e79a1004aaf4efa,2022-07-06_01h32.36.557,Colour_Asymmetry_Pilot,2022.1.3,Win32,60.00960154,62c50e9c1127f2cd403a315f,,,,,,,,,,,,,,,,,,,,onethree,,-4,0.6884,,,,,,,,,,,,,,,,,,,,,,,,,,,,,,,,,,"[-0.24719999999999998,-0.0354000000000001,0.3175999999999999]","[0.30180000000000007,-0.7884,-0.9844]",-73,104,1,0,0,response7disk,-10,13,1,0,0,rectangle,-10,13,1,0,0,2,1,0.0013,0,-10,13,1,0,0,0,12,12,48,1,48,first,,,,,,,,,,,,,,,,,,,,,,,,,,,,,,,,,,,,,,,,,,,,,,,,,,,,,,,,,,,,,,,,,,,,,,,,
,,,,,,614b9cf9b25cadec95eefee0,62c53a202e79a1004aaf4efa,2022-07-06_01h32.36.557,Colour_Asymmetry_Pilot,2022.1.3,Win32,60.00960154,62c50e9c1127f2cd403a315f,,,,,,,,,,,,,,,,,,,,onetwo,,-4,0.6847,,,,,,,,,,,,,,,,,,,,,,,,,,,,,,,,,,"[-0.2942,-0.24719999999999998,-0.357]","[-0.26280000000000003,-0.4746,-0.2158]",-32,64,1,0,0,response7disk,2,3,1,0,0,rectangle,2,3,1,0,0,2,1,0.0002,0,2,3,1,0,0,0,13,13,108,1,27,second,,,,,,,,,,,,,,,,,,,,,,,,,,,,,,,,,,,,,,,,,,,,,,,,,,,,,,,,,,,,,,,,,,,,,,,,
,,,,,,614b9cf9b25cadec95eefee0,62c53a202e79a1004aaf4efa,2022-07-06_01h32.36.557,Colour_Asymmetry_Pilot,2022.1.3,Win32,60.00960154,62c50e9c1127f2cd403a315f,,,,,,,,,,,,,,,,,,,,onethree,,-3,0.8331,,,,,,,,,,,,,,,,,,,,,,,,,,,,,,,,,,"[-0.5452,-0.608,0.2470000000000001]","[0.23120000000000007,-0.7726,-0.34120000000000006]",-76,33,1,0,0,response7disk,-4,3,1,0,0,rectangle,-4,3,1,0,0,2,1,0.0002,0,-4,3,1,0,0,0,14,14,66,1,66,first,,,,,,,,,,,,,,,,,,,,,,,,,,,,,,,,,,,,,,,,,,,,,,,,,,,,,,,,,,,,,,,,,,,,,,,,
,,,,,,614b9cf9b25cadec95eefee0,62c53a202e79a1004aaf4efa,2022-07-06_01h32.36.557,Colour_Asymmetry_Pilot,2022.1.3,Win32,60.00960154,62c50e9c1127f2cd403a315f,,,,,,,,,,,,,,,,,,,,twoone,,-4,0.7668,,,,,,,,,,,,,,,,,,,,,,,,,,,,,,,,,,"[0.9763999999999999,-0.1137999999999999,-0.6314]","[0.4196,0.4665999999999999,0.3568]",-62,84,1,0,0,response7disk,-8,9,1,0,0,rectangle,-8,9,1,0,0,2,3,0.0021,0,-8,9,1,0,0,0,15,15,111,1,30,second,,,,,,,,,,,,,,,,,,,,,,,,,,,,,,,,,,,,,,,,,,,,,,,,,,,,,,,,,,,,,,,,,,,,,,,,
,,,,,,614b9cf9b25cadec95eefee0,62c53a202e79a1004aaf4efa,2022-07-06_01h32.36.557,Colour_Asymmetry_Pilot,2022.1.3,Win32,60.00960154,62c50e9c1127f2cd403a315f,,,,,,,,,,,,,,,,,,,,fourtwo,,-4,0.801,,,,,,,,,,,,,,,,,,,,,,,,,,,,,,,,,,"[-0.8198,-0.5138,-0.7492000000000001]","[-0.9766,-0.6472,0.07440000000000002]",-41,79,1,0,0,response7disk,5,-4,1,0,0,rectangle,5,-4,1,0,0,2,3,0.0002,0,5,-4,1,0,0,0,16,16,135,1,54,second,,,,,,,,,,,,,,,,,,,,,,,,,,,,,,,,,,,,,,,,,,,,,,,,,,,,,,,,,,,,,,,,,,,,,,,,
,,,,,,614b9cf9b25cadec95eefee0,62c53a202e79a1004aaf4efa,2022-07-06_01h32.36.557,Colour_Asymmetry_Pilot,2022.1.3,Win32,60.00960154,62c50e9c1127f2cd403a315f,,,,,,,,,,,,,,,,,,,,twoone,,-4,0.4832,,,,,,,,,,,,,,,,,,,,,,,,,,,,,,,,,,"[0.7802,-0.23140000000000005,-0.20799999999999996]","[0.04299999999999993,0.16060000000000008,-0.6628000000000001]",-40,82,1,0,0,response7disk,2,10,1,0,0,rectangle,2,10,1,0,0,2,1,0.0012,0,2,10,1,0,0,0,17,17,109,1,28,second,,,,,,,,,,,,,,,,,,,,,,,,,,,,,,,,,,,,,,,,,,,,,,,,,,,,,,,,,,,,,,,,,,,,,,,,
