trials.thisRepN,trials.thisTrialN,trials.thisN,trials.thisIndex,trials.ran,Colourcodes,participant,session,date,expName,psychopyVersion,OS,frameRate,study_id,trials_4.thisRepN,trials_4.thisTrialN,trials_4.thisN,trials_4.thisIndex,trials_4.ran,StimulusPos,key_resp.keys,key_resp.rt,key_resp_2.keys,key_resp_2.rt,key_resp_15.keys,key_resp_15.rt,key_resp_17.keys,key_resp_17.rt,key_resp_9.keys,key_resp_9.rt,key_resp_10.keys,key_resp_10.rt,Circle1_col,Ecc,Circle2_col,similarity,response_time,mouse_5.x,mouse_5.y,mouse_5.leftButton,mouse_5.midButton,mouse_5.rightButton,mouse_5.clicked_name,mouse_10.x,mouse_10.y,mouse_10.leftButton,mouse_10.midButton,mouse_10.rightButton,mouse_10.clicked_name,mouse_7.x,mouse_7.y,mouse_7.leftButton,mouse_7.midButton,mouse_7.rightButton,catchnumberprac,mouse_6.x,mouse_6.y,mouse_6.leftButton,mouse_6.midButton,mouse_6.rightButton,duringprac.thisRepN,duringprac.thisTrialN,duringprac.thisN,duringprac.thisIndex,duringprac.ran,mouse_7.clicked_name,catchprac,mouse_6.clicked_name,key_resp_22.keys,key_resp_22.rt,Circle1_colour,Circle2_colour,mouse.x,mouse.y,mouse.leftButton,mouse.midButton,mouse.rightButton,mouse.clicked_name,mouse_2.x,mouse_2.y,mouse_2.leftButton,mouse_2.midButton,mouse_2.rightButton,mouse_2.clicked_name,mouse_3.x,mouse_3.y,mouse_3.leftButton,mouse_3.midButton,mouse_3.rightButton,catchresponse,catchnumber,response_time_catch,Catch,mouse_11.x,mouse_11.y,mouse_11.leftButton,mouse_11.midButton,mouse_11.rightButton,trials_2.thisRepN,trials_2.thisTrialN,trials_2.thisN,trials_2.thisIndex,trials_2.ran,Colourpair,Temporder,mouse_3.clicked_name,mouse_11.clicked_name,trials_3.thisRepN,trials_3.thisTrialN,trials_3.thisN,trials_3.thisIndex,trials_3.ran,key_resp_instr_Ishi.keys,key_resp_instr_Ishi.rt,Ishi_trial_keyresp.keys,Ishi_trial_keyresp.rt,Ishi_textbox.text,Ishi_mouse.x,Ishi_mouse.y,Ishi_mouse.leftButton,Ishi_mouse.midButton,Ishi_mouse.rightButton,Ishi_loop.thisRepN,Ishi_loop.thisTrialN,Ishi_loop.thisN,Ishi_loop.thisIndex,Ishi_loop.ran,imageaddress,Ishi_mouse.clicked_name,textbox.text,mouse_4.x,mouse_4.y,mouse_4.leftButton,mouse_4.midButton,mouse_4.rightButton,mouse_4.clicked_name,textbox_2.text,mouse_8.x,mouse_8.y,mouse_8.leftButton,mouse_8.midButton,mouse_8.rightButton,mouse_8.clicked_name,textbox_3.text,mouse_9.x,mouse_9.y,mouse_9.leftButton,mouse_9.midButton,mouse_9.rightButton,mouse_9.clicked_name,textbox_4.text,mouse_12.x,mouse_12.y,mouse_12.leftButton,mouse_12.midButton,mouse_12.rightButton,mouse_12.clicked_name,textbox_5.text,mouse_13.x,mouse_13.y,mouse_13.leftButton,mouse_13.midButton,mouse_13.rightButton,mouse_13.clicked_name,textbox_6.text,mouse_14.x,mouse_14.y,mouse_14.leftButton,mouse_14.midButton,mouse_14.rightButton,mouse_14.clicked_name,textbox_7.text,mouse_15.x,mouse_15.y,mouse_15.leftButton,mouse_15.midButton,mouse_15.rightButton,mouse_15.clicked_name
0,0,0,55,1,,5fbaab6752b13f885c0fb1bd,62c53918c3820a560e4cde5d,2022-07-06_09h41.56.563,Colour_Asymmetry_Pilot,2022.1.3,Win32,60.07449237,62c50e9c1127f2cd403a315f,,,,,,,,,,,,,,,,,,,,,,,,,,,,,,,,,,,,,,,,,,,,,,,,,,,,,,,,,,,,,,,,,,,,,,,,,,,,,,,,,,,,,,,,,,,,,,,,,,,,,,,,,,,,,,,,,,,,,,,,,,,,,,,,,,,,,,,,,,,,,,,,,,,,,,,,,,,,,,,,,,,,
0,1,1,17,1,,5fbaab6752b13f885c0fb1bd,62c53918c3820a560e4cde5d,2022-07-06_09h41.56.563,Colour_Asymmetry_Pilot,2022.1.3,Win32,60.07449237,62c50e9c1127f2cd403a315f,,,,,,,,,,,,,,,,,,,,,,,,,,,,,,,,,,,,,,,,,,,,,,,,,,,,,,,,,,,,,,,,,,,,,,,,,,,,,,,,,,,,,,,,,,,,,,,,,,,,,,,,,,,,,,,,,,,,,,,,,,,,,,,,,,,,,,,,,,,,,,,,,,,,,,,,,,,,,,,,,,,,
0,2,2,47,1,,5fbaab6752b13f885c0fb1bd,62c53918c3820a560e4cde5d,2022-07-06_09h41.56.563,Colour_Asymmetry_Pilot,2022.1.3,Win32,60.07449237,62c50e9c1127f2cd403a315f,,,,,,,,,,,,,,,,,,,,,,,,,,,,,,,,,,,,,,,,,,,,,,,,,,,,,,,,,,,,,,,,,,,,,,,,,,,,,,,,,,,,,,,,,,,,,,,,,,,,,,,,,,,,,,,,,,,,,,,,,,,,,,,,,,,,,,,,,,,,,,,,,,,,,,,,,,,,,,,,,,,,
0,3,3,30,1,,5fbaab6752b13f885c0fb1bd,62c53918c3820a560e4cde5d,2022-07-06_09h41.56.563,Colour_Asymmetry_Pilot,2022.1.3,Win32,60.07449237,62c50e9c1127f2cd403a315f,,,,,,,,,,,,,,,,,,,,,,,,,,,,,,,,,,,,,,,,,,,,,,,,,,,,,,,,,,,,,,,,,,,,,,,,,,,,,,,,,,,,,,,,,,,,,,,,,,,,,,,,,,,,,,,,,,,,,,,,,,,,,,,,,,,,,,,,,,,,,,,,,,,,,,,,,,,,,,,,,,,,
0,4,4,79,1,,5fbaab6752b13f885c0fb1bd,62c53918c3820a560e4cde5d,2022-07-06_09h41.56.563,Colour_Asymmetry_Pilot,2022.1.3,Win32,60.07449237,62c50e9c1127f2cd403a315f,,,,,,,,,,,,,,,,,,,,,,,,,,,,,,,,,,,,,,,,,,,,,,,,,,,,,,,,,,,,,,,,,,,,,,,,,,,,,,,,,,,,,,,,,,,,,,,,,,,,,,,,,,,,,,,,,,,,,,,,,,,,,,,,,,,,,,,,,,,,,,,,,,,,,,,,,,,,,,,,,,,,
0,5,5,27,1,,5fbaab6752b13f885c0fb1bd,62c53918c3820a560e4cde5d,2022-07-06_09h41.56.563,Colour_Asymmetry_Pilot,2022.1.3,Win32,60.07449237,62c50e9c1127f2cd403a315f,,,,,,,,,,,,,,,,,,,,,,,,,,,,,,,,,,,,,,,,,,,,,,,,,,,,,,,,,,,,,,,,,,,,,,,,,,,,,,,,,,,,,,,,,,,,,,,,,,,,,,,,,,,,,,,,,,,,,,,,,,,,,,,,,,,,,,,,,,,,,,,,,,,,,,,,,,,,,,,,,,,,
0,6,6,88,1,,5fbaab6752b13f885c0fb1bd,62c53918c3820a560e4cde5d,2022-07-06_09h41.56.563,Colour_Asymmetry_Pilot,2022.1.3,Win32,60.07449237,62c50e9c1127f2cd403a315f,,,,,,,,,,,,,,,,,,,,,,,,,,,,,,,,,,,,,,,,,,,,,,,,,,,,,,,,,,,,,,,,,,,,,,,,,,,,,,,,,,,,,,,,,,,,,,,,,,,,,,,,,,,,,,,,,,,,,,,,,,,,,,,,,,,,,,,,,,,,,,,,,,,,,,,,,,,,,,,,,,,,
0,7,7,61,1,,5fbaab6752b13f885c0fb1bd,62c53918c3820a560e4cde5d,2022-07-06_09h41.56.563,Colour_Asymmetry_Pilot,2022.1.3,Win32,60.07449237,62c50e9c1127f2cd403a315f,,,,,,,,,,,,,,,,,,,,,,,,,,,,,,,,,,,,,,,,,,,,,,,,,,,,,,,,,,,,,,,,,,,,,,,,,,,,,,,,,,,,,,,,,,,,,,,,,,,,,,,,,,,,,,,,,,,,,,,,,,,,,,,,,,,,,,,,,,,,,,,,,,,,,,,,,,,,,,,,,,,,
0,8,8,38,1,,5fbaab6752b13f885c0fb1bd,62c53918c3820a560e4cde5d,2022-07-06_09h41.56.563,Colour_Asymmetry_Pilot,2022.1.3,Win32,60.07449237,62c50e9c1127f2cd403a315f,,,,,,,,,,,,,,,,,,,,,,,,,,,,,,,,,,,,,,,,,,,,,,,,,,,,,,,,,,,,,,,,,,,,,,,,,,,,,,,,,,,,,,,,,,,,,,,,,,,,,,,,,,,,,,,,,,,,,,,,,,,,,,,,,,,,,,,,,,,,,,,,,,,,,,,,,,,,,,,,,,,,
0,9,9,72,1,,5fbaab6752b13f885c0fb1bd,62c53918c3820a560e4cde5d,2022-07-06_09h41.56.563,Colour_Asymmetry_Pilot,2022.1.3,Win32,60.07449237,62c50e9c1127f2cd403a315f,,,,,,,,,,,,,,,,,,,,,,,,,,,,,,,,,,,,,,,,,,,,,,,,,,,,,,,,,,,,,,,,,,,,,,,,,,,,,,,,,,,,,,,,,,,,,,,,,,,,,,,,,,,,,,,,,,,,,,,,,,,,,,,,,,,,,,,,,,,,,,,,,,,,,,,,,,,,,,,,,,,,
0,10,10,21,1,,5fbaab6752b13f885c0fb1bd,62c53918c3820a560e4cde5d,2022-07-06_09h41.56.563,Colour_Asymmetry_Pilot,2022.1.3,Win32,60.07449237,62c50e9c1127f2cd403a315f,,,,,,,,,,,,,,,,,,,,,,,,,,,,,,,,,,,,,,,,,,,,,,,,,,,,,,,,,,,,,,,,,,,,,,,,,,,,,,,,,,,,,,,,,,,,,,,,,,,,,,,,,,,,,,,,,,,,,,,,,,,,,,,,,,,,,,,,,,,,,,,,,,,,,,,,,,,,,,,,,,,,
0,11,11,57,1,,5fbaab6752b13f885c0fb1bd,62c53918c3820a560e4cde5d,2022-07-06_09h41.56.563,Colour_Asymmetry_Pilot,2022.1.3,Win32,60.07449237,62c50e9c1127f2cd403a315f,,,,,,,,,,,,,,,,,,,,,,,,,,,,,,,,,,,,,,,,,,,,,,,,,,,,,,,,,,,,,,,,,,,,,,,,,,,,,,,,,,,,,,,,,,,,,,,,,,,,,,,,,,,,,,,,,,,,,,,,,,,,,,,,,,,,,,,,,,,,,,,,,,,,,,,,,,,,,,,,,,,,
0,12,12,7,1,,5fbaab6752b13f885c0fb1bd,62c53918c3820a560e4cde5d,2022-07-06_09h41.56.563,Colour_Asymmetry_Pilot,2022.1.3,Win32,60.07449237,62c50e9c1127f2cd403a315f,,,,,,,,,,,,,,,,,,,,,,,,,,,,,,,,,,,,,,,,,,,,,,,,,,,,,,,,,,,,,,,,,,,,,,,,,,,,,,,,,,,,,,,,,,,,,,,,,,,,,,,,,,,,,,,,,,,,,,,,,,,,,,,,,,,,,,,,,,,,,,,,,,,,,,,,,,,,,,,,,,,,
0,13,13,78,1,,5fbaab6752b13f885c0fb1bd,62c53918c3820a560e4cde5d,2022-07-06_09h41.56.563,Colour_Asymmetry_Pilot,2022.1.3,Win32,60.07449237,62c50e9c1127f2cd403a315f,,,,,,,,,,,,,,,,,,,,,,,,,,,,,,,,,,,,,,,,,,,,,,,,,,,,,,,,,,,,,,,,,,,,,,,,,,,,,,,,,,,,,,,,,,,,,,,,,,,,,,,,,,,,,,,,,,,,,,,,,,,,,,,,,,,,,,,,,,,,,,,,,,,,,,,,,,,,,,,,,,,,
0,14,14,67,1,,5fbaab6752b13f885c0fb1bd,62c53918c3820a560e4cde5d,2022-07-06_09h41.56.563,Colour_Asymmetry_Pilot,2022.1.3,Win32,60.07449237,62c50e9c1127f2cd403a315f,,,,,,,,,,,,,,,,,,,,,,,,,,,,,,,,,,,,,,,,,,,,,,,,,,,,,,,,,,,,,,,,,,,,,,,,,,,,,,,,,,,,,,,,,,,,,,,,,,,,,,,,,,,,,,,,,,,,,,,,,,,,,,,,,,,,,,,,,,,,,,,,,,,,,,,,,,,,,,,,,,,,
0,15,15,68,1,,5fbaab6752b13f885c0fb1bd,62c53918c3820a560e4cde5d,2022-07-06_09h41.56.563,Colour_Asymmetry_Pilot,2022.1.3,Win32,60.07449237,62c50e9c1127f2cd403a315f,,,,,,,,,,,,,,,,,,,,,,,,,,,,,,,,,,,,,,,,,,,,,,,,,,,,,,,,,,,,,,,,,,,,,,,,,,,,,,,,,,,,,,,,,,,,,,,,,,,,,,,,,,,,,,,,,,,,,,,,,,,,,,,,,,,,,,,,,,,,,,,,,,,,,,,,,,,,,,,,,,,,
0,16,16,76,1,,5fbaab6752b13f885c0fb1bd,62c53918c3820a560e4cde5d,2022-07-06_09h41.56.563,Colour_Asymmetry_Pilot,2022.1.3,Win32,60.07449237,62c50e9c1127f2cd403a315f,,,,,,,,,,,,,,,,,,,,,,,,,,,,,,,,,,,,,,,,,,,,,,,,,,,,,,,,,,,,,,,,,,,,,,,,,,,,,,,,,,,,,,,,,,,,,,,,,,,,,,,,,,,,,,,,,,,,,,,,,,,,,,,,,,,,,,,,,,,,,,,,,,,,,,,,,,,,,,,,,,,,
0,17,17,23,1,,5fbaab6752b13f885c0fb1bd,62c53918c3820a560e4cde5d,2022-07-06_09h41.56.563,Colour_Asymmetry_Pilot,2022.1.3,Win32,60.07449237,62c50e9c1127f2cd403a315f,,,,,,,,,,,,,,,,,,,,,,,,,,,,,,,,,,,,,,,,,,,,,,,,,,,,,,,,,,,,,,,,,,,,,,,,,,,,,,,,,,,,,,,,,,,,,,,,,,,,,,,,,,,,,,,,,,,,,,,,,,,,,,,,,,,,,,,,,,,,,,,,,,,,,,,,,,,,,,,,,,,,
0,18,18,0,1,,5fbaab6752b13f885c0fb1bd,62c53918c3820a560e4cde5d,2022-07-06_09h41.56.563,Colour_Asymmetry_Pilot,2022.1.3,Win32,60.07449237,62c50e9c1127f2cd403a315f,,,,,,,,,,,,,,,,,,,,,,,,,,,,,,,,,,,,,,,,,,,,,,,,,,,,,,,,,,,,,,,,,,,,,,,,,,,,,,,,,,,,,,,,,,,,,,,,,,,,,,,,,,,,,,,,,,,,,,,,,,,,,,,,,,,,,,,,,,,,,,,,,,,,,,,,,,,,,,,,,,,,
0,19,19,9,1,,5fbaab6752b13f885c0fb1bd,62c53918c3820a560e4cde5d,2022-07-06_09h41.56.563,Colour_Asymmetry_Pilot,2022.1.3,Win32,60.07449237,62c50e9c1127f2cd403a315f,,,,,,,,,,,,,,,,,,,,,,,,,,,,,,,,,,,,,,,,,,,,,,,,,,,,,,,,,,,,,,,,,,,,,,,,,,,,,,,,,,,,,,,,,,,,,,,,,,,,,,,,,,,,,,,,,,,,,,,,,,,,,,,,,,,,,,,,,,,,,,,,,,,,,,,,,,,,,,,,,,,,
0,20,20,36,1,,5fbaab6752b13f885c0fb1bd,62c53918c3820a560e4cde5d,2022-07-06_09h41.56.563,Colour_Asymmetry_Pilot,2022.1.3,Win32,60.07449237,62c50e9c1127f2cd403a315f,,,,,,,,,,,,,,,,,,,,,,,,,,,,,,,,,,,,,,,,,,,,,,,,,,,,,,,,,,,,,,,,,,,,,,,,,,,,,,,,,,,,,,,,,,,,,,,,,,,,,,,,,,,,,,,,,,,,,,,,,,,,,,,,,,,,,,,,,,,,,,,,,,,,,,,,,,,,,,,,,,,,
0,21,21,41,1,,5fbaab6752b13f885c0fb1bd,62c53918c3820a560e4cde5d,2022-07-06_09h41.56.563,Colour_Asymmetry_Pilot,2022.1.3,Win32,60.07449237,62c50e9c1127f2cd403a315f,,,,,,,,,,,,,,,,,,,,,,,,,,,,,,,,,,,,,,,,,,,,,,,,,,,,,,,,,,,,,,,,,,,,,,,,,,,,,,,,,,,,,,,,,,,,,,,,,,,,,,,,,,,,,,,,,,,,,,,,,,,,,,,,,,,,,,,,,,,,,,,,,,,,,,,,,,,,,,,,,,,,
0,22,22,24,1,,5fbaab6752b13f885c0fb1bd,62c53918c3820a560e4cde5d,2022-07-06_09h41.56.563,Colour_Asymmetry_Pilot,2022.1.3,Win32,60.07449237,62c50e9c1127f2cd403a315f,,,,,,,,,,,,,,,,,,,,,,,,,,,,,,,,,,,,,,,,,,,,,,,,,,,,,,,,,,,,,,,,,,,,,,,,,,,,,,,,,,,,,,,,,,,,,,,,,,,,,,,,,,,,,,,,,,,,,,,,,,,,,,,,,,,,,,,,,,,,,,,,,,,,,,,,,,,,,,,,,,,,
0,23,23,28,1,,5fbaab6752b13f885c0fb1bd,62c53918c3820a560e4cde5d,2022-07-06_09h41.56.563,Colour_Asymmetry_Pilot,2022.1.3,Win32,60.07449237,62c50e9c1127f2cd403a315f,,,,,,,,,,,,,,,,,,,,,,,,,,,,,,,,,,,,,,,,,,,,,,,,,,,,,,,,,,,,,,,,,,,,,,,,,,,,,,,,,,,,,,,,,,,,,,,,,,,,,,,,,,,,,,,,,,,,,,,,,,,,,,,,,,,,,,,,,,,,,,,,,,,,,,,,,,,,,,,,,,,,
0,24,24,33,1,,5fbaab6752b13f885c0fb1bd,62c53918c3820a560e4cde5d,2022-07-06_09h41.56.563,Colour_Asymmetry_Pilot,2022.1.3,Win32,60.07449237,62c50e9c1127f2cd403a315f,,,,,,,,,,,,,,,,,,,,,,,,,,,,,,,,,,,,,,,,,,,,,,,,,,,,,,,,,,,,,,,,,,,,,,,,,,,,,,,,,,,,,,,,,,,,,,,,,,,,,,,,,,,,,,,,,,,,,,,,,,,,,,,,,,,,,,,,,,,,,,,,,,,,,,,,,,,,,,,,,,,,
0,25,25,53,1,,5fbaab6752b13f885c0fb1bd,62c53918c3820a560e4cde5d,2022-07-06_09h41.56.563,Colour_Asymmetry_Pilot,2022.1.3,Win32,60.07449237,62c50e9c1127f2cd403a315f,,,,,,,,,,,,,,,,,,,,,,,,,,,,,,,,,,,,,,,,,,,,,,,,,,,,,,,,,,,,,,,,,,,,,,,,,,,,,,,,,,,,,,,,,,,,,,,,,,,,,,,,,,,,,,,,,,,,,,,,,,,,,,,,,,,,,,,,,,,,,,,,,,,,,,,,,,,,,,,,,,,,
0,26,26,90,1,,5fbaab6752b13f885c0fb1bd,62c53918c3820a560e4cde5d,2022-07-06_09h41.56.563,Colour_Asymmetry_Pilot,2022.1.3,Win32,60.07449237,62c50e9c1127f2cd403a315f,,,,,,,,,,,,,,,,,,,,,,,,,,,,,,,,,,,,,,,,,,,,,,,,,,,,,,,,,,,,,,,,,,,,,,,,,,,,,,,,,,,,,,,,,,,,,,,,,,,,,,,,,,,,,,,,,,,,,,,,,,,,,,,,,,,,,,,,,,,,,,,,,,,,,,,,,,,,,,,,,,,,
0,27,27,16,1,,5fbaab6752b13f885c0fb1bd,62c53918c3820a560e4cde5d,2022-07-06_09h41.56.563,Colour_Asymmetry_Pilot,2022.1.3,Win32,60.07449237,62c50e9c1127f2cd403a315f,,,,,,,,,,,,,,,,,,,,,,,,,,,,,,,,,,,,,,,,,,,,,,,,,,,,,,,,,,,,,,,,,,,,,,,,,,,,,,,,,,,,,,,,,,,,,,,,,,,,,,,,,,,,,,,,,,,,,,,,,,,,,,,,,,,,,,,,,,,,,,,,,,,,,,,,,,,,,,,,,,,,
0,28,28,29,1,,5fbaab6752b13f885c0fb1bd,62c53918c3820a560e4cde5d,2022-07-06_09h41.56.563,Colour_Asymmetry_Pilot,2022.1.3,Win32,60.07449237,62c50e9c1127f2cd403a315f,,,,,,,,,,,,,,,,,,,,,,,,,,,,,,,,,,,,,,,,,,,,,,,,,,,,,,,,,,,,,,,,,,,,,,,,,,,,,,,,,,,,,,,,,,,,,,,,,,,,,,,,,,,,,,,,,,,,,,,,,,,,,,,,,,,,,,,,,,,,,,,,,,,,,,,,,,,,,,,,,,,,
0,29,29,52,1,,5fbaab6752b13f885c0fb1bd,62c53918c3820a560e4cde5d,2022-07-06_09h41.56.563,Colour_Asymmetry_Pilot,2022.1.3,Win32,60.07449237,62c50e9c1127f2cd403a315f,,,,,,,,,,,,,,,,,,,,,,,,,,,,,,,,,,,,,,,,,,,,,,,,,,,,,,,,,,,,,,,,,,,,,,,,,,,,,,,,,,,,,,,,,,,,,,,,,,,,,,,,,,,,,,,,,,,,,,,,,,,,,,,,,,,,,,,,,,,,,,,,,,,,,,,,,,,,,,,,,,,,
0,30,30,4,1,,5fbaab6752b13f885c0fb1bd,62c53918c3820a560e4cde5d,2022-07-06_09h41.56.563,Colour_Asymmetry_Pilot,2022.1.3,Win32,60.07449237,62c50e9c1127f2cd403a315f,,,,,,,,,,,,,,,,,,,,,,,,,,,,,,,,,,,,,,,,,,,,,,,,,,,,,,,,,,,,,,,,,,,,,,,,,,,,,,,,,,,,,,,,,,,,,,,,,,,,,,,,,,,,,,,,,,,,,,,,,,,,,,,,,,,,,,,,,,,,,,,,,,,,,,,,,,,,,,,,,,,,
0,31,31,15,1,,5fbaab6752b13f885c0fb1bd,62c53918c3820a560e4cde5d,2022-07-06_09h41.56.563,Colour_Asymmetry_Pilot,2022.1.3,Win32,60.07449237,62c50e9c1127f2cd403a315f,,,,,,,,,,,,,,,,,,,,,,,,,,,,,,,,,,,,,,,,,,,,,,,,,,,,,,,,,,,,,,,,,,,,,,,,,,,,,,,,,,,,,,,,,,,,,,,,,,,,,,,,,,,,,,,,,,,,,,,,,,,,,,,,,,,,,,,,,,,,,,,,,,,,,,,,,,,,,,,,,,,,
0,32,32,18,1,,5fbaab6752b13f885c0fb1bd,62c53918c3820a560e4cde5d,2022-07-06_09h41.56.563,Colour_Asymmetry_Pilot,2022.1.3,Win32,60.07449237,62c50e9c1127f2cd403a315f,,,,,,,,,,,,,,,,,,,,,,,,,,,,,,,,,,,,,,,,,,,,,,,,,,,,,,,,,,,,,,,,,,,,,,,,,,,,,,,,,,,,,,,,,,,,,,,,,,,,,,,,,,,,,,,,,,,,,,,,,,,,,,,,,,,,,,,,,,,,,,,,,,,,,,,,,,,,,,,,,,,,
0,33,33,86,1,,5fbaab6752b13f885c0fb1bd,62c53918c3820a560e4cde5d,2022-07-06_09h41.56.563,Colour_Asymmetry_Pilot,2022.1.3,Win32,60.07449237,62c50e9c1127f2cd403a315f,,,,,,,,,,,,,,,,,,,,,,,,,,,,,,,,,,,,,,,,,,,,,,,,,,,,,,,,,,,,,,,,,,,,,,,,,,,,,,,,,,,,,,,,,,,,,,,,,,,,,,,,,,,,,,,,,,,,,,,,,,,,,,,,,,,,,,,,,,,,,,,,,,,,,,,,,,,,,,,,,,,,
0,34,34,45,1,,5fbaab6752b13f885c0fb1bd,62c53918c3820a560e4cde5d,2022-07-06_09h41.56.563,Colour_Asymmetry_Pilot,2022.1.3,Win32,60.07449237,62c50e9c1127f2cd403a315f,,,,,,,,,,,,,,,,,,,,,,,,,,,,,,,,,,,,,,,,,,,,,,,,,,,,,,,,,,,,,,,,,,,,,,,,,,,,,,,,,,,,,,,,,,,,,,,,,,,,,,,,,,,,,,,,,,,,,,,,,,,,,,,,,,,,,,,,,,,,,,,,,,,,,,,,,,,,,,,,,,,,
0,35,35,10,1,,5fbaab6752b13f885c0fb1bd,62c53918c3820a560e4cde5d,2022-07-06_09h41.56.563,Colour_Asymmetry_Pilot,2022.1.3,Win32,60.07449237,62c50e9c1127f2cd403a315f,,,,,,,,,,,,,,,,,,,,,,,,,,,,,,,,,,,,,,,,,,,,,,,,,,,,,,,,,,,,,,,,,,,,,,,,,,,,,,,,,,,,,,,,,,,,,,,,,,,,,,,,,,,,,,,,,,,,,,,,,,,,,,,,,,,,,,,,,,,,,,,,,,,,,,,,,,,,,,,,,,,,
0,36,36,34,1,,5fbaab6752b13f885c0fb1bd,62c53918c3820a560e4cde5d,2022-07-06_09h41.56.563,Colour_Asymmetry_Pilot,2022.1.3,Win32,60.07449237,62c50e9c1127f2cd403a315f,,,,,,,,,,,,,,,,,,,,,,,,,,,,,,,,,,,,,,,,,,,,,,,,,,,,,,,,,,,,,,,,,,,,,,,,,,,,,,,,,,,,,,,,,,,,,,,,,,,,,,,,,,,,,,,,,,,,,,,,,,,,,,,,,,,,,,,,,,,,,,,,,,,,,,,,,,,,,,,,,,,,
0,37,37,85,1,,5fbaab6752b13f885c0fb1bd,62c53918c3820a560e4cde5d,2022-07-06_09h41.56.563,Colour_Asymmetry_Pilot,2022.1.3,Win32,60.07449237,62c50e9c1127f2cd403a315f,,,,,,,,,,,,,,,,,,,,,,,,,,,,,,,,,,,,,,,,,,,,,,,,,,,,,,,,,,,,,,,,,,,,,,,,,,,,,,,,,,,,,,,,,,,,,,,,,,,,,,,,,,,,,,,,,,,,,,,,,,,,,,,,,,,,,,,,,,,,,,,,,,,,,,,,,,,,,,,,,,,,
0,38,38,5,1,,5fbaab6752b13f885c0fb1bd,62c53918c3820a560e4cde5d,2022-07-06_09h41.56.563,Colour_Asymmetry_Pilot,2022.1.3,Win32,60.07449237,62c50e9c1127f2cd403a315f,,,,,,,,,,,,,,,,,,,,,,,,,,,,,,,,,,,,,,,,,,,,,,,,,,,,,,,,,,,,,,,,,,,,,,,,,,,,,,,,,,,,,,,,,,,,,,,,,,,,,,,,,,,,,,,,,,,,,,,,,,,,,,,,,,,,,,,,,,,,,,,,,,,,,,,,,,,,,,,,,,,,
0,39,39,60,1,,5fbaab6752b13f885c0fb1bd,62c53918c3820a560e4cde5d,2022-07-06_09h41.56.563,Colour_Asymmetry_Pilot,2022.1.3,Win32,60.07449237,62c50e9c1127f2cd403a315f,,,,,,,,,,,,,,,,,,,,,,,,,,,,,,,,,,,,,,,,,,,,,,,,,,,,,,,,,,,,,,,,,,,,,,,,,,,,,,,,,,,,,,,,,,,,,,,,,,,,,,,,,,,,,,,,,,,,,,,,,,,,,,,,,,,,,,,,,,,,,,,,,,,,,,,,,,,,,,,,,,,,
0,40,40,71,1,,5fbaab6752b13f885c0fb1bd,62c53918c3820a560e4cde5d,2022-07-06_09h41.56.563,Colour_Asymmetry_Pilot,2022.1.3,Win32,60.07449237,62c50e9c1127f2cd403a315f,,,,,,,,,,,,,,,,,,,,,,,,,,,,,,,,,,,,,,,,,,,,,,,,,,,,,,,,,,,,,,,,,,,,,,,,,,,,,,,,,,,,,,,,,,,,,,,,,,,,,,,,,,,,,,,,,,,,,,,,,,,,,,,,,,,,,,,,,,,,,,,,,,,,,,,,,,,,,,,,,,,,
0,41,41,32,1,,5fbaab6752b13f885c0fb1bd,62c53918c3820a560e4cde5d,2022-07-06_09h41.56.563,Colour_Asymmetry_Pilot,2022.1.3,Win32,60.07449237,62c50e9c1127f2cd403a315f,,,,,,,,,,,,,,,,,,,,,,,,,,,,,,,,,,,,,,,,,,,,,,,,,,,,,,,,,,,,,,,,,,,,,,,,,,,,,,,,,,,,,,,,,,,,,,,,,,,,,,,,,,,,,,,,,,,,,,,,,,,,,,,,,,,,,,,,,,,,,,,,,,,,,,,,,,,,,,,,,,,,
0,42,42,65,1,,5fbaab6752b13f885c0fb1bd,62c53918c3820a560e4cde5d,2022-07-06_09h41.56.563,Colour_Asymmetry_Pilot,2022.1.3,Win32,60.07449237,62c50e9c1127f2cd403a315f,,,,,,,,,,,,,,,,,,,,,,,,,,,,,,,,,,,,,,,,,,,,,,,,,,,,,,,,,,,,,,,,,,,,,,,,,,,,,,,,,,,,,,,,,,,,,,,,,,,,,,,,,,,,,,,,,,,,,,,,,,,,,,,,,,,,,,,,,,,,,,,,,,,,,,,,,,,,,,,,,,,,
0,43,43,73,1,,5fbaab6752b13f885c0fb1bd,62c53918c3820a560e4cde5d,2022-07-06_09h41.56.563,Colour_Asymmetry_Pilot,2022.1.3,Win32,60.07449237,62c50e9c1127f2cd403a315f,,,,,,,,,,,,,,,,,,,,,,,,,,,,,,,,,,,,,,,,,,,,,,,,,,,,,,,,,,,,,,,,,,,,,,,,,,,,,,,,,,,,,,,,,,,,,,,,,,,,,,,,,,,,,,,,,,,,,,,,,,,,,,,,,,,,,,,,,,,,,,,,,,,,,,,,,,,,,,,,,,,,
0,44,44,14,1,,5fbaab6752b13f885c0fb1bd,62c53918c3820a560e4cde5d,2022-07-06_09h41.56.563,Colour_Asymmetry_Pilot,2022.1.3,Win32,60.07449237,62c50e9c1127f2cd403a315f,,,,,,,,,,,,,,,,,,,,,,,,,,,,,,,,,,,,,,,,,,,,,,,,,,,,,,,,,,,,,,,,,,,,,,,,,,,,,,,,,,,,,,,,,,,,,,,,,,,,,,,,,,,,,,,,,,,,,,,,,,,,,,,,,,,,,,,,,,,,,,,,,,,,,,,,,,,,,,,,,,,,
0,45,45,26,1,,5fbaab6752b13f885c0fb1bd,62c53918c3820a560e4cde5d,2022-07-06_09h41.56.563,Colour_Asymmetry_Pilot,2022.1.3,Win32,60.07449237,62c50e9c1127f2cd403a315f,,,,,,,,,,,,,,,,,,,,,,,,,,,,,,,,,,,,,,,,,,,,,,,,,,,,,,,,,,,,,,,,,,,,,,,,,,,,,,,,,,,,,,,,,,,,,,,,,,,,,,,,,,,,,,,,,,,,,,,,,,,,,,,,,,,,,,,,,,,,,,,,,,,,,,,,,,,,,,,,,,,,
0,46,46,39,1,,5fbaab6752b13f885c0fb1bd,62c53918c3820a560e4cde5d,2022-07-06_09h41.56.563,Colour_Asymmetry_Pilot,2022.1.3,Win32,60.07449237,62c50e9c1127f2cd403a315f,,,,,,,,,,,,,,,,,,,,,,,,,,,,,,,,,,,,,,,,,,,,,,,,,,,,,,,,,,,,,,,,,,,,,,,,,,,,,,,,,,,,,,,,,,,,,,,,,,,,,,,,,,,,,,,,,,,,,,,,,,,,,,,,,,,,,,,,,,,,,,,,,,,,,,,,,,,,,,,,,,,,
0,47,47,22,1,,5fbaab6752b13f885c0fb1bd,62c53918c3820a560e4cde5d,2022-07-06_09h41.56.563,Colour_Asymmetry_Pilot,2022.1.3,Win32,60.07449237,62c50e9c1127f2cd403a315f,,,,,,,,,,,,,,,,,,,,,,,,,,,,,,,,,,,,,,,,,,,,,,,,,,,,,,,,,,,,,,,,,,,,,,,,,,,,,,,,,,,,,,,,,,,,,,,,,,,,,,,,,,,,,,,,,,,,,,,,,,,,,,,,,,,,,,,,,,,,,,,,,,,,,,,,,,,,,,,,,,,,
0,48,48,58,1,,5fbaab6752b13f885c0fb1bd,62c53918c3820a560e4cde5d,2022-07-06_09h41.56.563,Colour_Asymmetry_Pilot,2022.1.3,Win32,60.07449237,62c50e9c1127f2cd403a315f,,,,,,,,,,,,,,,,,,,,,,,,,,,,,,,,,,,,,,,,,,,,,,,,,,,,,,,,,,,,,,,,,,,,,,,,,,,,,,,,,,,,,,,,,,,,,,,,,,,,,,,,,,,,,,,,,,,,,,,,,,,,,,,,,,,,,,,,,,,,,,,,,,,,,,,,,,,,,,,,,,,,
0,49,49,49,1,,5fbaab6752b13f885c0fb1bd,62c53918c3820a560e4cde5d,2022-07-06_09h41.56.563,Colour_Asymmetry_Pilot,2022.1.3,Win32,60.07449237,62c50e9c1127f2cd403a315f,,,,,,,,,,,,,,,,,,,,,,,,,,,,,,,,,,,,,,,,,,,,,,,,,,,,,,,,,,,,,,,,,,,,,,,,,,,,,,,,,,,,,,,,,,,,,,,,,,,,,,,,,,,,,,,,,,,,,,,,,,,,,,,,,,,,,,,,,,,,,,,,,,,,,,,,,,,,,,,,,,,,
0,50,50,84,1,,5fbaab6752b13f885c0fb1bd,62c53918c3820a560e4cde5d,2022-07-06_09h41.56.563,Colour_Asymmetry_Pilot,2022.1.3,Win32,60.07449237,62c50e9c1127f2cd403a315f,,,,,,,,,,,,,,,,,,,,,,,,,,,,,,,,,,,,,,,,,,,,,,,,,,,,,,,,,,,,,,,,,,,,,,,,,,,,,,,,,,,,,,,,,,,,,,,,,,,,,,,,,,,,,,,,,,,,,,,,,,,,,,,,,,,,,,,,,,,,,,,,,,,,,,,,,,,,,,,,,,,,
0,51,51,35,1,,5fbaab6752b13f885c0fb1bd,62c53918c3820a560e4cde5d,2022-07-06_09h41.56.563,Colour_Asymmetry_Pilot,2022.1.3,Win32,60.07449237,62c50e9c1127f2cd403a315f,,,,,,,,,,,,,,,,,,,,,,,,,,,,,,,,,,,,,,,,,,,,,,,,,,,,,,,,,,,,,,,,,,,,,,,,,,,,,,,,,,,,,,,,,,,,,,,,,,,,,,,,,,,,,,,,,,,,,,,,,,,,,,,,,,,,,,,,,,,,,,,,,,,,,,,,,,,,,,,,,,,,
0,52,52,40,1,,5fbaab6752b13f885c0fb1bd,62c53918c3820a560e4cde5d,2022-07-06_09h41.56.563,Colour_Asymmetry_Pilot,2022.1.3,Win32,60.07449237,62c50e9c1127f2cd403a315f,,,,,,,,,,,,,,,,,,,,,,,,,,,,,,,,,,,,,,,,,,,,,,,,,,,,,,,,,,,,,,,,,,,,,,,,,,,,,,,,,,,,,,,,,,,,,,,,,,,,,,,,,,,,,,,,,,,,,,,,,,,,,,,,,,,,,,,,,,,,,,,,,,,,,,,,,,,,,,,,,,,,
0,53,53,48,1,,5fbaab6752b13f885c0fb1bd,62c53918c3820a560e4cde5d,2022-07-06_09h41.56.563,Colour_Asymmetry_Pilot,2022.1.3,Win32,60.07449237,62c50e9c1127f2cd403a315f,,,,,,,,,,,,,,,,,,,,,,,,,,,,,,,,,,,,,,,,,,,,,,,,,,,,,,,,,,,,,,,,,,,,,,,,,,,,,,,,,,,,,,,,,,,,,,,,,,,,,,,,,,,,,,,,,,,,,,,,,,,,,,,,,,,,,,,,,,,,,,,,,,,,,,,,,,,,,,,,,,,,
0,54,54,46,1,,5fbaab6752b13f885c0fb1bd,62c53918c3820a560e4cde5d,2022-07-06_09h41.56.563,Colour_Asymmetry_Pilot,2022.1.3,Win32,60.07449237,62c50e9c1127f2cd403a315f,,,,,,,,,,,,,,,,,,,,,,,,,,,,,,,,,,,,,,,,,,,,,,,,,,,,,,,,,,,,,,,,,,,,,,,,,,,,,,,,,,,,,,,,,,,,,,,,,,,,,,,,,,,,,,,,,,,,,,,,,,,,,,,,,,,,,,,,,,,,,,,,,,,,,,,,,,,,,,,,,,,,
0,55,55,87,1,,5fbaab6752b13f885c0fb1bd,62c53918c3820a560e4cde5d,2022-07-06_09h41.56.563,Colour_Asymmetry_Pilot,2022.1.3,Win32,60.07449237,62c50e9c1127f2cd403a315f,,,,,,,,,,,,,,,,,,,,,,,,,,,,,,,,,,,,,,,,,,,,,,,,,,,,,,,,,,,,,,,,,,,,,,,,,,,,,,,,,,,,,,,,,,,,,,,,,,,,,,,,,,,,,,,,,,,,,,,,,,,,,,,,,,,,,,,,,,,,,,,,,,,,,,,,,,,,,,,,,,,,
0,56,56,44,1,,5fbaab6752b13f885c0fb1bd,62c53918c3820a560e4cde5d,2022-07-06_09h41.56.563,Colour_Asymmetry_Pilot,2022.1.3,Win32,60.07449237,62c50e9c1127f2cd403a315f,,,,,,,,,,,,,,,,,,,,,,,,,,,,,,,,,,,,,,,,,,,,,,,,,,,,,,,,,,,,,,,,,,,,,,,,,,,,,,,,,,,,,,,,,,,,,,,,,,,,,,,,,,,,,,,,,,,,,,,,,,,,,,,,,,,,,,,,,,,,,,,,,,,,,,,,,,,,,,,,,,,,
0,57,57,8,1,,5fbaab6752b13f885c0fb1bd,62c53918c3820a560e4cde5d,2022-07-06_09h41.56.563,Colour_Asymmetry_Pilot,2022.1.3,Win32,60.07449237,62c50e9c1127f2cd403a315f,,,,,,,,,,,,,,,,,,,,,,,,,,,,,,,,,,,,,,,,,,,,,,,,,,,,,,,,,,,,,,,,,,,,,,,,,,,,,,,,,,,,,,,,,,,,,,,,,,,,,,,,,,,,,,,,,,,,,,,,,,,,,,,,,,,,,,,,,,,,,,,,,,,,,,,,,,,,,,,,,,,,
0,58,58,62,1,,5fbaab6752b13f885c0fb1bd,62c53918c3820a560e4cde5d,2022-07-06_09h41.56.563,Colour_Asymmetry_Pilot,2022.1.3,Win32,60.07449237,62c50e9c1127f2cd403a315f,,,,,,,,,,,,,,,,,,,,,,,,,,,,,,,,,,,,,,,,,,,,,,,,,,,,,,,,,,,,,,,,,,,,,,,,,,,,,,,,,,,,,,,,,,,,,,,,,,,,,,,,,,,,,,,,,,,,,,,,,,,,,,,,,,,,,,,,,,,,,,,,,,,,,,,,,,,,,,,,,,,,
0,59,59,81,1,,5fbaab6752b13f885c0fb1bd,62c53918c3820a560e4cde5d,2022-07-06_09h41.56.563,Colour_Asymmetry_Pilot,2022.1.3,Win32,60.07449237,62c50e9c1127f2cd403a315f,,,,,,,,,,,,,,,,,,,,,,,,,,,,,,,,,,,,,,,,,,,,,,,,,,,,,,,,,,,,,,,,,,,,,,,,,,,,,,,,,,,,,,,,,,,,,,,,,,,,,,,,,,,,,,,,,,,,,,,,,,,,,,,,,,,,,,,,,,,,,,,,,,,,,,,,,,,,,,,,,,,,
0,60,60,19,1,,5fbaab6752b13f885c0fb1bd,62c53918c3820a560e4cde5d,2022-07-06_09h41.56.563,Colour_Asymmetry_Pilot,2022.1.3,Win32,60.07449237,62c50e9c1127f2cd403a315f,,,,,,,,,,,,,,,,,,,,,,,,,,,,,,,,,,,,,,,,,,,,,,,,,,,,,,,,,,,,,,,,,,,,,,,,,,,,,,,,,,,,,,,,,,,,,,,,,,,,,,,,,,,,,,,,,,,,,,,,,,,,,,,,,,,,,,,,,,,,,,,,,,,,,,,,,,,,,,,,,,,,
0,61,61,75,1,,5fbaab6752b13f885c0fb1bd,62c53918c3820a560e4cde5d,2022-07-06_09h41.56.563,Colour_Asymmetry_Pilot,2022.1.3,Win32,60.07449237,62c50e9c1127f2cd403a315f,,,,,,,,,,,,,,,,,,,,,,,,,,,,,,,,,,,,,,,,,,,,,,,,,,,,,,,,,,,,,,,,,,,,,,,,,,,,,,,,,,,,,,,,,,,,,,,,,,,,,,,,,,,,,,,,,,,,,,,,,,,,,,,,,,,,,,,,,,,,,,,,,,,,,,,,,,,,,,,,,,,,
0,62,62,69,1,,5fbaab6752b13f885c0fb1bd,62c53918c3820a560e4cde5d,2022-07-06_09h41.56.563,Colour_Asymmetry_Pilot,2022.1.3,Win32,60.07449237,62c50e9c1127f2cd403a315f,,,,,,,,,,,,,,,,,,,,,,,,,,,,,,,,,,,,,,,,,,,,,,,,,,,,,,,,,,,,,,,,,,,,,,,,,,,,,,,,,,,,,,,,,,,,,,,,,,,,,,,,,,,,,,,,,,,,,,,,,,,,,,,,,,,,,,,,,,,,,,,,,,,,,,,,,,,,,,,,,,,,
0,63,63,50,1,,5fbaab6752b13f885c0fb1bd,62c53918c3820a560e4cde5d,2022-07-06_09h41.56.563,Colour_Asymmetry_Pilot,2022.1.3,Win32,60.07449237,62c50e9c1127f2cd403a315f,,,,,,,,,,,,,,,,,,,,,,,,,,,,,,,,,,,,,,,,,,,,,,,,,,,,,,,,,,,,,,,,,,,,,,,,,,,,,,,,,,,,,,,,,,,,,,,,,,,,,,,,,,,,,,,,,,,,,,,,,,,,,,,,,,,,,,,,,,,,,,,,,,,,,,,,,,,,,,,,,,,,
0,64,64,91,1,,5fbaab6752b13f885c0fb1bd,62c53918c3820a560e4cde5d,2022-07-06_09h41.56.563,Colour_Asymmetry_Pilot,2022.1.3,Win32,60.07449237,62c50e9c1127f2cd403a315f,,,,,,,,,,,,,,,,,,,,,,,,,,,,,,,,,,,,,,,,,,,,,,,,,,,,,,,,,,,,,,,,,,,,,,,,,,,,,,,,,,,,,,,,,,,,,,,,,,,,,,,,,,,,,,,,,,,,,,,,,,,,,,,,,,,,,,,,,,,,,,,,,,,,,,,,,,,,,,,,,,,,
0,65,65,80,1,,5fbaab6752b13f885c0fb1bd,62c53918c3820a560e4cde5d,2022-07-06_09h41.56.563,Colour_Asymmetry_Pilot,2022.1.3,Win32,60.07449237,62c50e9c1127f2cd403a315f,,,,,,,,,,,,,,,,,,,,,,,,,,,,,,,,,,,,,,,,,,,,,,,,,,,,,,,,,,,,,,,,,,,,,,,,,,,,,,,,,,,,,,,,,,,,,,,,,,,,,,,,,,,,,,,,,,,,,,,,,,,,,,,,,,,,,,,,,,,,,,,,,,,,,,,,,,,,,,,,,,,,
0,66,66,25,1,,5fbaab6752b13f885c0fb1bd,62c53918c3820a560e4cde5d,2022-07-06_09h41.56.563,Colour_Asymmetry_Pilot,2022.1.3,Win32,60.07449237,62c50e9c1127f2cd403a315f,,,,,,,,,,,,,,,,,,,,,,,,,,,,,,,,,,,,,,,,,,,,,,,,,,,,,,,,,,,,,,,,,,,,,,,,,,,,,,,,,,,,,,,,,,,,,,,,,,,,,,,,,,,,,,,,,,,,,,,,,,,,,,,,,,,,,,,,,,,,,,,,,,,,,,,,,,,,,,,,,,,,
0,67,67,70,1,,5fbaab6752b13f885c0fb1bd,62c53918c3820a560e4cde5d,2022-07-06_09h41.56.563,Colour_Asymmetry_Pilot,2022.1.3,Win32,60.07449237,62c50e9c1127f2cd403a315f,,,,,,,,,,,,,,,,,,,,,,,,,,,,,,,,,,,,,,,,,,,,,,,,,,,,,,,,,,,,,,,,,,,,,,,,,,,,,,,,,,,,,,,,,,,,,,,,,,,,,,,,,,,,,,,,,,,,,,,,,,,,,,,,,,,,,,,,,,,,,,,,,,,,,,,,,,,,,,,,,,,,
0,68,68,92,1,,5fbaab6752b13f885c0fb1bd,62c53918c3820a560e4cde5d,2022-07-06_09h41.56.563,Colour_Asymmetry_Pilot,2022.1.3,Win32,60.07449237,62c50e9c1127f2cd403a315f,,,,,,,,,,,,,,,,,,,,,,,,,,,,,,,,,,,,,,,,,,,,,,,,,,,,,,,,,,,,,,,,,,,,,,,,,,,,,,,,,,,,,,,,,,,,,,,,,,,,,,,,,,,,,,,,,,,,,,,,,,,,,,,,,,,,,,,,,,,,,,,,,,,,,,,,,,,,,,,,,,,,
0,69,69,42,1,,5fbaab6752b13f885c0fb1bd,62c53918c3820a560e4cde5d,2022-07-06_09h41.56.563,Colour_Asymmetry_Pilot,2022.1.3,Win32,60.07449237,62c50e9c1127f2cd403a315f,,,,,,,,,,,,,,,,,,,,,,,,,,,,,,,,,,,,,,,,,,,,,,,,,,,,,,,,,,,,,,,,,,,,,,,,,,,,,,,,,,,,,,,,,,,,,,,,,,,,,,,,,,,,,,,,,,,,,,,,,,,,,,,,,,,,,,,,,,,,,,,,,,,,,,,,,,,,,,,,,,,,
0,70,70,77,1,,5fbaab6752b13f885c0fb1bd,62c53918c3820a560e4cde5d,2022-07-06_09h41.56.563,Colour_Asymmetry_Pilot,2022.1.3,Win32,60.07449237,62c50e9c1127f2cd403a315f,,,,,,,,,,,,,,,,,,,,,,,,,,,,,,,,,,,,,,,,,,,,,,,,,,,,,,,,,,,,,,,,,,,,,,,,,,,,,,,,,,,,,,,,,,,,,,,,,,,,,,,,,,,,,,,,,,,,,,,,,,,,,,,,,,,,,,,,,,,,,,,,,,,,,,,,,,,,,,,,,,,,
0,71,71,63,1,,5fbaab6752b13f885c0fb1bd,62c53918c3820a560e4cde5d,2022-07-06_09h41.56.563,Colour_Asymmetry_Pilot,2022.1.3,Win32,60.07449237,62c50e9c1127f2cd403a315f,,,,,,,,,,,,,,,,,,,,,,,,,,,,,,,,,,,,,,,,,,,,,,,,,,,,,,,,,,,,,,,,,,,,,,,,,,,,,,,,,,,,,,,,,,,,,,,,,,,,,,,,,,,,,,,,,,,,,,,,,,,,,,,,,,,,,,,,,,,,,,,,,,,,,,,,,,,,,,,,,,,,
0,72,72,43,1,,5fbaab6752b13f885c0fb1bd,62c53918c3820a560e4cde5d,2022-07-06_09h41.56.563,Colour_Asymmetry_Pilot,2022.1.3,Win32,60.07449237,62c50e9c1127f2cd403a315f,,,,,,,,,,,,,,,,,,,,,,,,,,,,,,,,,,,,,,,,,,,,,,,,,,,,,,,,,,,,,,,,,,,,,,,,,,,,,,,,,,,,,,,,,,,,,,,,,,,,,,,,,,,,,,,,,,,,,,,,,,,,,,,,,,,,,,,,,,,,,,,,,,,,,,,,,,,,,,,,,,,,
0,73,73,1,1,,5fbaab6752b13f885c0fb1bd,62c53918c3820a560e4cde5d,2022-07-06_09h41.56.563,Colour_Asymmetry_Pilot,2022.1.3,Win32,60.07449237,62c50e9c1127f2cd403a315f,,,,,,,,,,,,,,,,,,,,,,,,,,,,,,,,,,,,,,,,,,,,,,,,,,,,,,,,,,,,,,,,,,,,,,,,,,,,,,,,,,,,,,,,,,,,,,,,,,,,,,,,,,,,,,,,,,,,,,,,,,,,,,,,,,,,,,,,,,,,,,,,,,,,,,,,,,,,,,,,,,,,
0,74,74,6,1,,5fbaab6752b13f885c0fb1bd,62c53918c3820a560e4cde5d,2022-07-06_09h41.56.563,Colour_Asymmetry_Pilot,2022.1.3,Win32,60.07449237,62c50e9c1127f2cd403a315f,,,,,,,,,,,,,,,,,,,,,,,,,,,,,,,,,,,,,,,,,,,,,,,,,,,,,,,,,,,,,,,,,,,,,,,,,,,,,,,,,,,,,,,,,,,,,,,,,,,,,,,,,,,,,,,,,,,,,,,,,,,,,,,,,,,,,,,,,,,,,,,,,,,,,,,,,,,,,,,,,,,,
0,75,75,83,1,,5fbaab6752b13f885c0fb1bd,62c53918c3820a560e4cde5d,2022-07-06_09h41.56.563,Colour_Asymmetry_Pilot,2022.1.3,Win32,60.07449237,62c50e9c1127f2cd403a315f,,,,,,,,,,,,,,,,,,,,,,,,,,,,,,,,,,,,,,,,,,,,,,,,,,,,,,,,,,,,,,,,,,,,,,,,,,,,,,,,,,,,,,,,,,,,,,,,,,,,,,,,,,,,,,,,,,,,,,,,,,,,,,,,,,,,,,,,,,,,,,,,,,,,,,,,,,,,,,,,,,,,
0,76,76,31,1,,5fbaab6752b13f885c0fb1bd,62c53918c3820a560e4cde5d,2022-07-06_09h41.56.563,Colour_Asymmetry_Pilot,2022.1.3,Win32,60.07449237,62c50e9c1127f2cd403a315f,,,,,,,,,,,,,,,,,,,,,,,,,,,,,,,,,,,,,,,,,,,,,,,,,,,,,,,,,,,,,,,,,,,,,,,,,,,,,,,,,,,,,,,,,,,,,,,,,,,,,,,,,,,,,,,,,,,,,,,,,,,,,,,,,,,,,,,,,,,,,,,,,,,,,,,,,,,,,,,,,,,,
0,77,77,54,1,,5fbaab6752b13f885c0fb1bd,62c53918c3820a560e4cde5d,2022-07-06_09h41.56.563,Colour_Asymmetry_Pilot,2022.1.3,Win32,60.07449237,62c50e9c1127f2cd403a315f,,,,,,,,,,,,,,,,,,,,,,,,,,,,,,,,,,,,,,,,,,,,,,,,,,,,,,,,,,,,,,,,,,,,,,,,,,,,,,,,,,,,,,,,,,,,,,,,,,,,,,,,,,,,,,,,,,,,,,,,,,,,,,,,,,,,,,,,,,,,,,,,,,,,,,,,,,,,,,,,,,,,
0,78,78,59,1,,5fbaab6752b13f885c0fb1bd,62c53918c3820a560e4cde5d,2022-07-06_09h41.56.563,Colour_Asymmetry_Pilot,2022.1.3,Win32,60.07449237,62c50e9c1127f2cd403a315f,,,,,,,,,,,,,,,,,,,,,,,,,,,,,,,,,,,,,,,,,,,,,,,,,,,,,,,,,,,,,,,,,,,,,,,,,,,,,,,,,,,,,,,,,,,,,,,,,,,,,,,,,,,,,,,,,,,,,,,,,,,,,,,,,,,,,,,,,,,,,,,,,,,,,,,,,,,,,,,,,,,,
0,79,79,51,1,,5fbaab6752b13f885c0fb1bd,62c53918c3820a560e4cde5d,2022-07-06_09h41.56.563,Colour_Asymmetry_Pilot,2022.1.3,Win32,60.07449237,62c50e9c1127f2cd403a315f,,,,,,,,,,,,,,,,,,,,,,,,,,,,,,,,,,,,,,,,,,,,,,,,,,,,,,,,,,,,,,,,,,,,,,,,,,,,,,,,,,,,,,,,,,,,,,,,,,,,,,,,,,,,,,,,,,,,,,,,,,,,,,,,,,,,,,,,,,,,,,,,,,,,,,,,,,,,,,,,,,,,
0,80,80,11,1,,5fbaab6752b13f885c0fb1bd,62c53918c3820a560e4cde5d,2022-07-06_09h41.56.563,Colour_Asymmetry_Pilot,2022.1.3,Win32,60.07449237,62c50e9c1127f2cd403a315f,,,,,,,,,,,,,,,,,,,,,,,,,,,,,,,,,,,,,,,,,,,,,,,,,,,,,,,,,,,,,,,,,,,,,,,,,,,,,,,,,,,,,,,,,,,,,,,,,,,,,,,,,,,,,,,,,,,,,,,,,,,,,,,,,,,,,,,,,,,,,,,,,,,,,,,,,,,,,,,,,,,,
0,81,81,74,1,,5fbaab6752b13f885c0fb1bd,62c53918c3820a560e4cde5d,2022-07-06_09h41.56.563,Colour_Asymmetry_Pilot,2022.1.3,Win32,60.07449237,62c50e9c1127f2cd403a315f,,,,,,,,,,,,,,,,,,,,,,,,,,,,,,,,,,,,,,,,,,,,,,,,,,,,,,,,,,,,,,,,,,,,,,,,,,,,,,,,,,,,,,,,,,,,,,,,,,,,,,,,,,,,,,,,,,,,,,,,,,,,,,,,,,,,,,,,,,,,,,,,,,,,,,,,,,,,,,,,,,,,
0,82,82,37,1,,5fbaab6752b13f885c0fb1bd,62c53918c3820a560e4cde5d,2022-07-06_09h41.56.563,Colour_Asymmetry_Pilot,2022.1.3,Win32,60.07449237,62c50e9c1127f2cd403a315f,,,,,,,,,,,,,,,,,,,,,,,,,,,,,,,,,,,,,,,,,,,,,,,,,,,,,,,,,,,,,,,,,,,,,,,,,,,,,,,,,,,,,,,,,,,,,,,,,,,,,,,,,,,,,,,,,,,,,,,,,,,,,,,,,,,,,,,,,,,,,,,,,,,,,,,,,,,,,,,,,,,,
0,83,83,64,1,,5fbaab6752b13f885c0fb1bd,62c53918c3820a560e4cde5d,2022-07-06_09h41.56.563,Colour_Asymmetry_Pilot,2022.1.3,Win32,60.07449237,62c50e9c1127f2cd403a315f,,,,,,,,,,,,,,,,,,,,,,,,,,,,,,,,,,,,,,,,,,,,,,,,,,,,,,,,,,,,,,,,,,,,,,,,,,,,,,,,,,,,,,,,,,,,,,,,,,,,,,,,,,,,,,,,,,,,,,,,,,,,,,,,,,,,,,,,,,,,,,,,,,,,,,,,,,,,,,,,,,,,
0,84,84,12,1,,5fbaab6752b13f885c0fb1bd,62c53918c3820a560e4cde5d,2022-07-06_09h41.56.563,Colour_Asymmetry_Pilot,2022.1.3,Win32,60.07449237,62c50e9c1127f2cd403a315f,,,,,,,,,,,,,,,,,,,,,,,,,,,,,,,,,,,,,,,,,,,,,,,,,,,,,,,,,,,,,,,,,,,,,,,,,,,,,,,,,,,,,,,,,,,,,,,,,,,,,,,,,,,,,,,,,,,,,,,,,,,,,,,,,,,,,,,,,,,,,,,,,,,,,,,,,,,,,,,,,,,,
0,85,85,66,1,,5fbaab6752b13f885c0fb1bd,62c53918c3820a560e4cde5d,2022-07-06_09h41.56.563,Colour_Asymmetry_Pilot,2022.1.3,Win32,60.07449237,62c50e9c1127f2cd403a315f,,,,,,,,,,,,,,,,,,,,,,,,,,,,,,,,,,,,,,,,,,,,,,,,,,,,,,,,,,,,,,,,,,,,,,,,,,,,,,,,,,,,,,,,,,,,,,,,,,,,,,,,,,,,,,,,,,,,,,,,,,,,,,,,,,,,,,,,,,,,,,,,,,,,,,,,,,,,,,,,,,,,
0,86,86,13,1,,5fbaab6752b13f885c0fb1bd,62c53918c3820a560e4cde5d,2022-07-06_09h41.56.563,Colour_Asymmetry_Pilot,2022.1.3,Win32,60.07449237,62c50e9c1127f2cd403a315f,,,,,,,,,,,,,,,,,,,,,,,,,,,,,,,,,,,,,,,,,,,,,,,,,,,,,,,,,,,,,,,,,,,,,,,,,,,,,,,,,,,,,,,,,,,,,,,,,,,,,,,,,,,,,,,,,,,,,,,,,,,,,,,,,,,,,,,,,,,,,,,,,,,,,,,,,,,,,,,,,,,,
0,87,87,20,1,,5fbaab6752b13f885c0fb1bd,62c53918c3820a560e4cde5d,2022-07-06_09h41.56.563,Colour_Asymmetry_Pilot,2022.1.3,Win32,60.07449237,62c50e9c1127f2cd403a315f,,,,,,,,,,,,,,,,,,,,,,,,,,,,,,,,,,,,,,,,,,,,,,,,,,,,,,,,,,,,,,,,,,,,,,,,,,,,,,,,,,,,,,,,,,,,,,,,,,,,,,,,,,,,,,,,,,,,,,,,,,,,,,,,,,,,,,,,,,,,,,,,,,,,,,,,,,,,,,,,,,,,
0,88,88,89,1,,5fbaab6752b13f885c0fb1bd,62c53918c3820a560e4cde5d,2022-07-06_09h41.56.563,Colour_Asymmetry_Pilot,2022.1.3,Win32,60.07449237,62c50e9c1127f2cd403a315f,,,,,,,,,,,,,,,,,,,,,,,,,,,,,,,,,,,,,,,,,,,,,,,,,,,,,,,,,,,,,,,,,,,,,,,,,,,,,,,,,,,,,,,,,,,,,,,,,,,,,,,,,,,,,,,,,,,,,,,,,,,,,,,,,,,,,,,,,,,,,,,,,,,,,,,,,,,,,,,,,,,,
0,89,89,56,1,,5fbaab6752b13f885c0fb1bd,62c53918c3820a560e4cde5d,2022-07-06_09h41.56.563,Colour_Asymmetry_Pilot,2022.1.3,Win32,60.07449237,62c50e9c1127f2cd403a315f,,,,,,,,,,,,,,,,,,,,,,,,,,,,,,,,,,,,,,,,,,,,,,,,,,,,,,,,,,,,,,,,,,,,,,,,,,,,,,,,,,,,,,,,,,,,,,,,,,,,,,,,,,,,,,,,,,,,,,,,,,,,,,,,,,,,,,,,,,,,,,,,,,,,,,,,,,,,,,,,,,,,
0,90,90,3,1,,5fbaab6752b13f885c0fb1bd,62c53918c3820a560e4cde5d,2022-07-06_09h41.56.563,Colour_Asymmetry_Pilot,2022.1.3,Win32,60.07449237,62c50e9c1127f2cd403a315f,,,,,,,,,,,,,,,,,,,,,,,,,,,,,,,,,,,,,,,,,,,,,,,,,,,,,,,,,,,,,,,,,,,,,,,,,,,,,,,,,,,,,,,,,,,,,,,,,,,,,,,,,,,,,,,,,,,,,,,,,,,,,,,,,,,,,,,,,,,,,,,,,,,,,,,,,,,,,,,,,,,,
0,91,91,2,1,,5fbaab6752b13f885c0fb1bd,62c53918c3820a560e4cde5d,2022-07-06_09h41.56.563,Colour_Asymmetry_Pilot,2022.1.3,Win32,60.07449237,62c50e9c1127f2cd403a315f,,,,,,,,,,,,,,,,,,,,,,,,,,,,,,,,,,,,,,,,,,,,,,,,,,,,,,,,,,,,,,,,,,,,,,,,,,,,,,,,,,,,,,,,,,,,,,,,,,,,,,,,,,,,,,,,,,,,,,,,,,,,,,,,,,,,,,,,,,,,,,,,,,,,,,,,,,,,,,,,,,,,
0,92,92,82,1,,5fbaab6752b13f885c0fb1bd,62c53918c3820a560e4cde5d,2022-07-06_09h41.56.563,Colour_Asymmetry_Pilot,2022.1.3,Win32,60.07449237,62c50e9c1127f2cd403a315f,,,,,,,,,,,,,,,,,,,,,,,,,,,,,,,,,,,,,,,,,,,,,,,,,,,,,,,,,,,,,,,,,,,,,,,,,,,,,,,,,,,,,,,,,,,,,,,,,,,,,,,,,,,,,,,,,,,,,,,,,,,,,,,,,,,,,,,,,,,,,,,,,,,,,,,,,,,,,,,,,,,,
,,,,,,5fbaab6752b13f885c0fb1bd,62c53918c3820a560e4cde5d,2022-07-06_09h41.56.563,Colour_Asymmetry_Pilot,2022.1.3,Win32,60.07449237,62c50e9c1127f2cd403a315f,0,0,0,150,1,fourtwo,,,,,,,,,,,,,,,,,,,,,,,,,,,,,,,,,,,,,,,,,,,,,,,,,,,,,,,,,,,,,,,,,,,,,,,,,,,,,,,,,,,,,,,,,,,,,,,,,,,,,,,,,,,,,,,,,,,,,,,,,,,,,,,,,,,,,,,,,,,,,,,,,,,,,,,,,,,,,,
,,,,,,5fbaab6752b13f885c0fb1bd,62c53918c3820a560e4cde5d,2022-07-06_09h41.56.563,Colour_Asymmetry_Pilot,2022.1.3,Win32,60.07449237,62c50e9c1127f2cd403a315f,0,1,1,108,1,threeone,,,,,,,,,,,,,,,,,,,,,,,,,,,,,,,,,,,,,,,,,,,,,,,,,,,,,,,,,,,,,,,,,,,,,,,,,,,,,,,,,,,,,,,,,,,,,,,,,,,,,,,,,,,,,,,,,,,,,,,,,,,,,,,,,,,,,,,,,,,,,,,,,,,,,,,,,,,,,,
,,,,,,5fbaab6752b13f885c0fb1bd,62c53918c3820a560e4cde5d,2022-07-06_09h41.56.563,Colour_Asymmetry_Pilot,2022.1.3,Win32,60.07449237,62c50e9c1127f2cd403a315f,0,2,2,2,1,twoone,,,,,,,,,,,,,,,,,,,,,,,,,,,,,,,,,,,,,,,,,,,,,,,,,,,,,,,,,,,,,,,,,,,,,,,,,,,,,,,,,,,,,,,,,,,,,,,,,,,,,,,,,,,,,,,,,,,,,,,,,,,,,,,,,,,,,,,,,,,,,,,,,,,,,,,,,,,,,,
,,,,,,5fbaab6752b13f885c0fb1bd,62c53918c3820a560e4cde5d,2022-07-06_09h41.56.563,Colour_Asymmetry_Pilot,2022.1.3,Win32,60.07449237,62c50e9c1127f2cd403a315f,0,3,3,79,1,fourthree,,,,,,,,,,,,,,,,,,,,,,,,,,,,,,,,,,,,,,,,,,,,,,,,,,,,,,,,,,,,,,,,,,,,,,,,,,,,,,,,,,,,,,,,,,,,,,,,,,,,,,,,,,,,,,,,,,,,,,,,,,,,,,,,,,,,,,,,,,,,,,,,,,,,,,,,,,,,,,
,,,,,,5fbaab6752b13f885c0fb1bd,62c53918c3820a560e4cde5d,2022-07-06_09h41.56.563,Colour_Asymmetry_Pilot,2022.1.3,Win32,60.07449237,62c50e9c1127f2cd403a315f,0,4,4,30,1,fourtwo,,,,,,,,,,,,,,,,,,,,,,,,,,,,,,,,,,,,,,,,,,,,,,,,,,,,,,,,,,,,,,,,,,,,,,,,,,,,,,,,,,,,,,,,,,,,,,,,,,,,,,,,,,,,,,,,,,,,,,,,,,,,,,,,,,,,,,,,,,,,,,,,,,,,,,,,,,,,,,
,,,,,,5fbaab6752b13f885c0fb1bd,62c53918c3820a560e4cde5d,2022-07-06_09h41.56.563,Colour_Asymmetry_Pilot,2022.1.3,Win32,60.07449237,62c50e9c1127f2cd403a315f,0,5,5,23,1,fourthree,,,,,,,,,,,,,,,,,,,,,,,,,,,,,,,,,,,,,,,,,,,,,,,,,,,,,,,,,,,,,,,,,,,,,,,,,,,,,,,,,,,,,,,,,,,,,,,,,,,,,,,,,,,,,,,,,,,,,,,,,,,,,,,,,,,,,,,,,,,,,,,,,,,,,,,,,,,,,,
,,,,,,5fbaab6752b13f885c0fb1bd,62c53918c3820a560e4cde5d,2022-07-06_09h41.56.563,Colour_Asymmetry_Pilot,2022.1.3,Win32,60.07449237,62c50e9c1127f2cd403a315f,0,6,6,5,1,threefour,,,,,,,,,,,,,,,,,,,,,,,,,,,,,,,,,,,,,,,,,,,,,,,,,,,,,,,,,,,,,,,,,,,,,,,,,,,,,,,,,,,,,,,,,,,,,,,,,,,,,,,,,,,,,,,,,,,,,,,,,,,,,,,,,,,,,,,,,,,,,,,,,,,,,,,,,,,,,,
,,,,,,5fbaab6752b13f885c0fb1bd,62c53918c3820a560e4cde5d,2022-07-06_09h41.56.563,Colour_Asymmetry_Pilot,2022.1.3,Win32,60.07449237,62c50e9c1127f2cd403a315f,0,7,7,48,1,onetwo,,,,,,,,,,,,,,,,,,,,,,,,,,,,,,,,,,,,,,,,,,,,,,,,,,,,,,,,,,,,,,,,,,,,,,,,,,,,,,,,,,,,,,,,,,,,,,,,,,,,,,,,,,,,,,,,,,,,,,,,,,,,,,,,,,,,,,,,,,,,,,,,,,,,,,,,,,,,,,
,,,,,,5fbaab6752b13f885c0fb1bd,62c53918c3820a560e4cde5d,2022-07-06_09h41.56.563,Colour_Asymmetry_Pilot,2022.1.3,Win32,60.07449237,62c50e9c1127f2cd403a315f,0,8,8,122,1,twoone,,,,,,,,,,,,,,,,,,,,,,,,,,,,,,,,,,,,,,,,,,,,,,,,,,,,,,,,,,,,,,,,,,,,,,,,,,,,,,,,,,,,,,,,,,,,,,,,,,,,,,,,,,,,,,,,,,,,,,,,,,,,,,,,,,,,,,,,,,,,,,,,,,,,,,,,,,,,,,
,,,,,,5fbaab6752b13f885c0fb1bd,62c53918c3820a560e4cde5d,2022-07-06_09h41.56.563,Colour_Asymmetry_Pilot,2022.1.3,Win32,60.07449237,62c50e9c1127f2cd403a315f,0,9,9,53,1,threefour,,,,,,,,,,,,,,,,,,,,,,,,,,,,,,,,,,,,,,,,,,,,,,,,,,,,,,,,,,,,,,,,,,,,,,,,,,,,,,,,,,,,,,,,,,,,,,,,,,,,,,,,,,,,,,,,,,,,,,,,,,,,,,,,,,,,,,,,,,,,,,,,,,,,,,,,,,,,,,
,,,,,,5fbaab6752b13f885c0fb1bd,62c53918c3820a560e4cde5d,2022-07-06_09h41.56.563,Colour_Asymmetry_Pilot,2022.1.3,Win32,60.07449237,62c50e9c1127f2cd403a315f,0,10,10,115,1,twofour,,,,,,,,,,,,,,,,,,,,,,,,,,,,,,,,,,,,,,,,,,,,,,,,,,,,,,,,,,,,,,,,,,,,,,,,,,,,,,,,,,,,,,,,,,,,,,,,,,,,,,,,,,,,,,,,,,,,,,,,,,,,,,,,,,,,,,,,,,,,,,,,,,,,,,,,,,,,,,
,,,,,,5fbaab6752b13f885c0fb1bd,62c53918c3820a560e4cde5d,2022-07-06_09h41.56.563,Colour_Asymmetry_Pilot,2022.1.3,Win32,60.07449237,62c50e9c1127f2cd403a315f,0,11,11,128,1,onetwo,,,,,,,,,,,,,,,,,,,,,,,,,,,,,,,,,,,,,,,,,,,,,,,,,,,,,,,,,,,,,,,,,,,,,,,,,,,,,,,,,,,,,,,,,,,,,,,,,,,,,,,,,,,,,,,,,,,,,,,,,,,,,,,,,,,,,,,,,,,,,,,,,,,,,,,,,,,,,,
,,,,,,5fbaab6752b13f885c0fb1bd,62c53918c3820a560e4cde5d,2022-07-06_09h41.56.563,Colour_Asymmetry_Pilot,2022.1.3,Win32,60.07449237,62c50e9c1127f2cd403a315f,0,12,12,123,1,twofour,,,,,,,,,,,,,,,,,,,,,,,,,,,,,,,,,,,,,,,,,,,,,,,,,,,,,,,,,,,,,,,,,,,,,,,,,,,,,,,,,,,,,,,,,,,,,,,,,,,,,,,,,,,,,,,,,,,,,,,,,,,,,,,,,,,,,,,,,,,,,,,,,,,,,,,,,,,,,,
,,,,,,5fbaab6752b13f885c0fb1bd,62c53918c3820a560e4cde5d,2022-07-06_09h41.56.563,Colour_Asymmetry_Pilot,2022.1.3,Win32,60.07449237,62c50e9c1127f2cd403a315f,0,13,13,7,1,fourthree,,,,,,,,,,,,,,,,,,,,,,,,,,,,,,,,,,,,,,,,,,,,,,,,,,,,,,,,,,,,,,,,,,,,,,,,,,,,,,,,,,,,,,,,,,,,,,,,,,,,,,,,,,,,,,,,,,,,,,,,,,,,,,,,,,,,,,,,,,,,,,,,,,,,,,,,,,,,,,
,,,,,,5fbaab6752b13f885c0fb1bd,62c53918c3820a560e4cde5d,2022-07-06_09h41.56.563,Colour_Asymmetry_Pilot,2022.1.3,Win32,60.07449237,62c50e9c1127f2cd403a315f,0,14,14,97,1,onethree,,,,,,,,,,,,,,,,,,,,,,,,,,,,,,,,,,,,,,,,,,,,,,,,,,,,,,,,,,,,,,,,,,,,,,,,,,,,,,,,,,,,,,,,,,,,,,,,,,,,,,,,,,,,,,,,,,,,,,,,,,,,,,,,,,,,,,,,,,,,,,,,,,,,,,,,,,,,,,
,,,,,,5fbaab6752b13f885c0fb1bd,62c53918c3820a560e4cde5d,2022-07-06_09h41.56.563,Colour_Asymmetry_Pilot,2022.1.3,Win32,60.07449237,62c50e9c1127f2cd403a315f,0,15,15,52,1,threeone,,,,,,,,,,,,,,,,,,,,,,,,,,,,,,,,,,,,,,,,,,,,,,,,,,,,,,,,,,,,,,,,,,,,,,,,,,,,,,,,,,,,,,,,,,,,,,,,,,,,,,,,,,,,,,,,,,,,,,,,,,,,,,,,,,,,,,,,,,,,,,,,,,,,,,,,,,,,,,
,,,,,,5fbaab6752b13f885c0fb1bd,62c53918c3820a560e4cde5d,2022-07-06_09h41.56.563,Colour_Asymmetry_Pilot,2022.1.3,Win32,60.07449237,62c50e9c1127f2cd403a315f,0,16,16,71,1,fourthree,,,,,,,,,,,,,,,,,,,,,,,,,,,,,,,,,,,,,,,,,,,,,,,,,,,,,,,,,,,,,,,,,,,,,,,,,,,,,,,,,,,,,,,,,,,,,,,,,,,,,,,,,,,,,,,,,,,,,,,,,,,,,,,,,,,,,,,,,,,,,,,,,,,,,,,,,,,,,,
,,,,,,5fbaab6752b13f885c0fb1bd,62c53918c3820a560e4cde5d,2022-07-06_09h41.56.563,Colour_Asymmetry_Pilot,2022.1.3,Win32,60.07449237,62c50e9c1127f2cd403a315f,0,17,17,86,1,fourtwo,,,,,,,,,,,,,,,,,,,,,,,,,,,,,,,,,,,,,,,,,,,,,,,,,,,,,,,,,,,,,,,,,,,,,,,,,,,,,,,,,,,,,,,,,,,,,,,,,,,,,,,,,,,,,,,,,,,,,,,,,,,,,,,,,,,,,,,,,,,,,,,,,,,,,,,,,,,,,,
,,,,,,5fbaab6752b13f885c0fb1bd,62c53918c3820a560e4cde5d,2022-07-06_09h41.56.563,Colour_Asymmetry_Pilot,2022.1.3,Win32,60.07449237,62c50e9c1127f2cd403a315f,0,18,18,140,1,threeone,,,,,,,,,,,,,,,,,,,,,,,,,,,,,,,,,,,,,,,,,,,,,,,,,,,,,,,,,,,,,,,,,,,,,,,,,,,,,,,,,,,,,,,,,,,,,,,,,,,,,,,,,,,,,,,,,,,,,,,,,,,,,,,,,,,,,,,,,,,,,,,,,,,,,,,,,,,,,,
,,,,,,5fbaab6752b13f885c0fb1bd,62c53918c3820a560e4cde5d,2022-07-06_09h41.56.563,Colour_Asymmetry_Pilot,2022.1.3,Win32,60.07449237,62c50e9c1127f2cd403a315f,0,19,19,55,1,fourthree,,,,,,,,,,,,,,,,,,,,,,,,,,,,,,,,,,,,,,,,,,,,,,,,,,,,,,,,,,,,,,,,,,,,,,,,,,,,,,,,,,,,,,,,,,,,,,,,,,,,,,,,,,,,,,,,,,,,,,,,,,,,,,,,,,,,,,,,,,,,,,,,,,,,,,,,,,,,,,
,,,,,,5fbaab6752b13f885c0fb1bd,62c53918c3820a560e4cde5d,2022-07-06_09h41.56.563,Colour_Asymmetry_Pilot,2022.1.3,Win32,60.07449237,62c50e9c1127f2cd403a315f,0,20,20,60,1,threeone,,,,,,,,,,,,,,,,,,,,,,,,,,,,,,,,,,,,,,,,,,,,,,,,,,,,,,,,,,,,,,,,,,,,,,,,,,,,,,,,,,,,,,,,,,,,,,,,,,,,,,,,,,,,,,,,,,,,,,,,,,,,,,,,,,,,,,,,,,,,,,,,,,,,,,,,,,,,,,
,,,,,,5fbaab6752b13f885c0fb1bd,62c53918c3820a560e4cde5d,2022-07-06_09h41.56.563,Colour_Asymmetry_Pilot,2022.1.3,Win32,60.07449237,62c50e9c1127f2cd403a315f,0,21,21,118,1,fourtwo,,,,,,,,,,,,,,,,,,,,,,,,,,,,,,,,,,,,,,,,,,,,,,,,,,,,,,,,,,,,,,,,,,,,,,,,,,,,,,,,,,,,,,,,,,,,,,,,,,,,,,,,,,,,,,,,,,,,,,,,,,,,,,,,,,,,,,,,,,,,,,,,,,,,,,,,,,,,,,
,,,,,,5fbaab6752b13f885c0fb1bd,62c53918c3820a560e4cde5d,2022-07-06_09h41.56.563,Colour_Asymmetry_Pilot,2022.1.3,Win32,60.07449237,62c50e9c1127f2cd403a315f,0,22,22,125,1,threefour,,,,,,,,,,,,,,,,,,,,,,,,,,,,,,,,,,,,,,,,,,,,,,,,,,,,,,,,,,,,,,,,,,,,,,,,,,,,,,,,,,,,,,,,,,,,,,,,,,,,,,,,,,,,,,,,,,,,,,,,,,,,,,,,,,,,,,,,,,,,,,,,,,,,,,,,,,,,,,
,,,,,,5fbaab6752b13f885c0fb1bd,62c53918c3820a560e4cde5d,2022-07-06_09h41.56.563,Colour_Asymmetry_Pilot,2022.1.3,Win32,60.07449237,62c50e9c1127f2cd403a315f,0,23,23,58,1,twoone,,,,,,,,,,,,,,,,,,,,,,,,,,,,,,,,,,,,,,,,,,,,,,,,,,,,,,,,,,,,,,,,,,,,,,,,,,,,,,,,,,,,,,,,,,,,,,,,,,,,,,,,,,,,,,,,,,,,,,,,,,,,,,,,,,,,,,,,,,,,,,,,,,,,,,,,,,,,,,
,,,,,,5fbaab6752b13f885c0fb1bd,62c53918c3820a560e4cde5d,2022-07-06_09h41.56.563,Colour_Asymmetry_Pilot,2022.1.3,Win32,60.07449237,62c50e9c1127f2cd403a315f,0,24,24,29,1,threefour,,,,,,,,,,,,,,,,,,,,,,,,,,,,,,,,,,,,,,,,,,,,,,,,,,,,,,,,,,,,,,,,,,,,,,,,,,,,,,,,,,,,,,,,,,,,,,,,,,,,,,,,,,,,,,,,,,,,,,,,,,,,,,,,,,,,,,,,,,,,,,,,,,,,,,,,,,,,,,
,,,,,,5fbaab6752b13f885c0fb1bd,62c53918c3820a560e4cde5d,2022-07-06_09h41.56.563,Colour_Asymmetry_Pilot,2022.1.3,Win32,60.07449237,62c50e9c1127f2cd403a315f,0,25,25,27,1,twofour,,,,,,,,,,,,,,,,,,,,,,,,,,,,,,,,,,,,,,,,,,,,,,,,,,,,,,,,,,,,,,,,,,,,,,,,,,,,,,,,,,,,,,,,,,,,,,,,,,,,,,,,,,,,,,,,,,,,,,,,,,,,,,,,,,,,,,,,,,,,,,,,,,,,,,,,,,,,,,
,,,,,,5fbaab6752b13f885c0fb1bd,62c53918c3820a560e4cde5d,2022-07-06_09h41.56.563,Colour_Asymmetry_Pilot,2022.1.3,Win32,60.07449237,62c50e9c1127f2cd403a315f,0,26,26,109,1,threefour,,,,,,,,,,,,,,,,,,,,,,,,,,,,,,,,,,,,,,,,,,,,,,,,,,,,,,,,,,,,,,,,,,,,,,,,,,,,,,,,,,,,,,,,,,,,,,,,,,,,,,,,,,,,,,,,,,,,,,,,,,,,,,,,,,,,,,,,,,,,,,,,,,,,,,,,,,,,,,
,,,,,,5fbaab6752b13f885c0fb1bd,62c53918c3820a560e4cde5d,2022-07-06_09h41.56.563,Colour_Asymmetry_Pilot,2022.1.3,Win32,60.07449237,62c50e9c1127f2cd403a315f,0,27,27,33,1,onethree,,,,,,,,,,,,,,,,,,,,,,,,,,,,,,,,,,,,,,,,,,,,,,,,,,,,,,,,,,,,,,,,,,,,,,,,,,,,,,,,,,,,,,,,,,,,,,,,,,,,,,,,,,,,,,,,,,,,,,,,,,,,,,,,,,,,,,,,,,,,,,,,,,,,,,,,,,,,,,
,,,,,,5fbaab6752b13f885c0fb1bd,62c53918c3820a560e4cde5d,2022-07-06_09h41.56.563,Colour_Asymmetry_Pilot,2022.1.3,Win32,60.07449237,62c50e9c1127f2cd403a315f,0,28,28,56,1,onetwo,,,,,,,,,,,,,,,,,,,,,,,,,,,,,,,,,,,,,,,,,,,,,,,,,,,,,,,,,,,,,,,,,,,,,,,,,,,,,,,,,,,,,,,,,,,,,,,,,,,,,,,,,,,,,,,,,,,,,,,,,,,,,,,,,,,,,,,,,,,,,,,,,,,,,,,,,,,,,,
,,,,,,5fbaab6752b13f885c0fb1bd,62c53918c3820a560e4cde5d,2022-07-06_09h41.56.563,Colour_Asymmetry_Pilot,2022.1.3,Win32,60.07449237,62c50e9c1127f2cd403a315f,0,29,29,113,1,onethree,,,,,,,,,,,,,,,,,,,,,,,,,,,,,,,,,,,,,,,,,,,,,,,,,,,,,,,,,,,,,,,,,,,,,,,,,,,,,,,,,,,,,,,,,,,,,,,,,,,,,,,,,,,,,,,,,,,,,,,,,,,,,,,,,,,,,,,,,,,,,,,,,,,,,,,,,,,,,,
,,,,,,5fbaab6752b13f885c0fb1bd,62c53918c3820a560e4cde5d,2022-07-06_09h41.56.563,Colour_Asymmetry_Pilot,2022.1.3,Win32,60.07449237,62c50e9c1127f2cd403a315f,0,30,30,129,1,onethree,,,,,,,,,,,,,,,,,,,,,,,,,,,,,,,,,,,,,,,,,,,,,,,,,,,,,,,,,,,,,,,,,,,,,,,,,,,,,,,,,,,,,,,,,,,,,,,,,,,,,,,,,,,,,,,,,,,,,,,,,,,,,,,,,,,,,,,,,,,,,,,,,,,,,,,,,,,,,,
,,,,,,5fbaab6752b13f885c0fb1bd,62c53918c3820a560e4cde5d,2022-07-06_09h41.56.563,Colour_Asymmetry_Pilot,2022.1.3,Win32,60.07449237,62c50e9c1127f2cd403a315f,0,31,31,17,1,onethree,,,,,,,,,,,,,,,,,,,,,,,,,,,,,,,,,,,,,,,,,,,,,,,,,,,,,,,,,,,,,,,,,,,,,,,,,,,,,,,,,,,,,,,,,,,,,,,,,,,,,,,,,,,,,,,,,,,,,,,,,,,,,,,,,,,,,,,,,,,,,,,,,,,,,,,,,,,,,,
,,,,,,5fbaab6752b13f885c0fb1bd,62c53918c3820a560e4cde5d,2022-07-06_09h41.56.563,Colour_Asymmetry_Pilot,2022.1.3,Win32,60.07449237,62c50e9c1127f2cd403a315f,0,32,32,104,1,onetwo,,,,,,,,,,,,,,,,,,,,,,,,,,,,,,,,,,,,,,,,,,,,,,,,,,,,,,,,,,,,,,,,,,,,,,,,,,,,,,,,,,,,,,,,,,,,,,,,,,,,,,,,,,,,,,,,,,,,,,,,,,,,,,,,,,,,,,,,,,,,,,,,,,,,,,,,,,,,,,
,,,,,,5fbaab6752b13f885c0fb1bd,62c53918c3820a560e4cde5d,2022-07-06_09h41.56.563,Colour_Asymmetry_Pilot,2022.1.3,Win32,60.07449237,62c50e9c1127f2cd403a315f,0,33,33,19,1,twofour,,,,,,,,,,,,,,,,,,,,,,,,,,,,,,,,,,,,,,,,,,,,,,,,,,,,,,,,,,,,,,,,,,,,,,,,,,,,,,,,,,,,,,,,,,,,,,,,,,,,,,,,,,,,,,,,,,,,,,,,,,,,,,,,,,,,,,,,,,,,,,,,,,,,,,,,,,,,,,
,,,,,,5fbaab6752b13f885c0fb1bd,62c53918c3820a560e4cde5d,2022-07-06_09h41.56.563,Colour_Asymmetry_Pilot,2022.1.3,Win32,60.07449237,62c50e9c1127f2cd403a315f,0,34,34,42,1,twoone,,,,,,,,,,,,,,,,,,,,,,,,,,,,,,,,,,,,,,,,,,,,,,,,,,,,,,,,,,,,,,,,,,,,,,,,,,,,,,,,,,,,,,,,,,,,,,,,,,,,,,,,,,,,,,,,,,,,,,,,,,,,,,,,,,,,,,,,,,,,,,,,,,,,,,,,,,,,,,
,,,,,,5fbaab6752b13f885c0fb1bd,62c53918c3820a560e4cde5d,2022-07-06_09h41.56.563,Colour_Asymmetry_Pilot,2022.1.3,Win32,60.07449237,62c50e9c1127f2cd403a315f,0,35,35,110,1,fourtwo,,,,,,,,,,,,,,,,,,,,,,,,,,,,,,,,,,,,,,,,,,,,,,,,,,,,,,,,,,,,,,,,,,,,,,,,,,,,,,,,,,,,,,,,,,,,,,,,,,,,,,,,,,,,,,,,,,,,,,,,,,,,,,,,,,,,,,,,,,,,,,,,,,,,,,,,,,,,,,
,,,,,,5fbaab6752b13f885c0fb1bd,62c53918c3820a560e4cde5d,2022-07-06_09h41.56.563,Colour_Asymmetry_Pilot,2022.1.3,Win32,60.07449237,62c50e9c1127f2cd403a315f,0,36,36,51,1,twofour,,,,,,,,,,,,,,,,,,,,,,,,,,,,,,,,,,,,,,,,,,,,,,,,,,,,,,,,,,,,,,,,,,,,,,,,,,,,,,,,,,,,,,,,,,,,,,,,,,,,,,,,,,,,,,,,,,,,,,,,,,,,,,,,,,,,,,,,,,,,,,,,,,,,,,,,,,,,,,
,,,,,,5fbaab6752b13f885c0fb1bd,62c53918c3820a560e4cde5d,2022-07-06_09h41.56.563,Colour_Asymmetry_Pilot,2022.1.3,Win32,60.07449237,62c50e9c1127f2cd403a315f,0,37,37,72,1,onetwo,,,,,,,,,,,,,,,,,,,,,,,,,,,,,,,,,,,,,,,,,,,,,,,,,,,,,,,,,,,,,,,,,,,,,,,,,,,,,,,,,,,,,,,,,,,,,,,,,,,,,,,,,,,,,,,,,,,,,,,,,,,,,,,,,,,,,,,,,,,,,,,,,,,,,,,,,,,,,,
,,,,,,5fbaab6752b13f885c0fb1bd,62c53918c3820a560e4cde5d,2022-07-06_09h41.56.563,Colour_Asymmetry_Pilot,2022.1.3,Win32,60.07449237,62c50e9c1127f2cd403a315f,0,38,38,50,1,twoone,,,,,,,,,,,,,,,,,,,,,,,,,,,,,,,,,,,,,,,,,,,,,,,,,,,,,,,,,,,,,,,,,,,,,,,,,,,,,,,,,,,,,,,,,,,,,,,,,,,,,,,,,,,,,,,,,,,,,,,,,,,,,,,,,,,,,,,,,,,,,,,,,,,,,,,,,,,,,,
,,,,,,5fbaab6752b13f885c0fb1bd,62c53918c3820a560e4cde5d,2022-07-06_09h41.56.563,Colour_Asymmetry_Pilot,2022.1.3,Win32,60.07449237,62c50e9c1127f2cd403a315f,0,39,39,69,1,threefour,,,,,,,,,,,,,,,,,,,,,,,,,,,,,,,,,,,,,,,,,,,,,,,,,,,,,,,,,,,,,,,,,,,,,,,,,,,,,,,,,,,,,,,,,,,,,,,,,,,,,,,,,,,,,,,,,,,,,,,,,,,,,,,,,,,,,,,,,,,,,,,,,,,,,,,,,,,,,,
,,,,,,5fbaab6752b13f885c0fb1bd,62c53918c3820a560e4cde5d,2022-07-06_09h41.56.563,Colour_Asymmetry_Pilot,2022.1.3,Win32,60.07449237,62c50e9c1127f2cd403a315f,0,40,40,135,1,fourthree,,,,,,,,,,,,,,,,,,,,,,,,,,,,,,,,,,,,,,,,,,,,,,,,,,,,,,,,,,,,,,,,,,,,,,,,,,,,,,,,,,,,,,,,,,,,,,,,,,,,,,,,,,,,,,,,,,,,,,,,,,,,,,,,,,,,,,,,,,,,,,,,,,,,,,,,,,,,,,
,,,,,,5fbaab6752b13f885c0fb1bd,62c53918c3820a560e4cde5d,2022-07-06_09h41.56.563,Colour_Asymmetry_Pilot,2022.1.3,Win32,60.07449237,62c50e9c1127f2cd403a315f,0,41,41,39,1,fourthree,,,,,,,,,,,,,,,,,,,,,,,,,,,,,,,,,,,,,,,,,,,,,,,,,,,,,,,,,,,,,,,,,,,,,,,,,,,,,,,,,,,,,,,,,,,,,,,,,,,,,,,,,,,,,,,,,,,,,,,,,,,,,,,,,,,,,,,,,,,,,,,,,,,,,,,,,,,,,,
,,,,,,5fbaab6752b13f885c0fb1bd,62c53918c3820a560e4cde5d,2022-07-06_09h41.56.563,Colour_Asymmetry_Pilot,2022.1.3,Win32,60.07449237,62c50e9c1127f2cd403a315f,0,42,42,81,1,onethree,,,,,,,,,,,,,,,,,,,,,,,,,,,,,,,,,,,,,,,,,,,,,,,,,,,,,,,,,,,,,,,,,,,,,,,,,,,,,,,,,,,,,,,,,,,,,,,,,,,,,,,,,,,,,,,,,,,,,,,,,,,,,,,,,,,,,,,,,,,,,,,,,,,,,,,,,,,,,,
,,,,,,5fbaab6752b13f885c0fb1bd,62c53918c3820a560e4cde5d,2022-07-06_09h41.56.563,Colour_Asymmetry_Pilot,2022.1.3,Win32,60.07449237,62c50e9c1127f2cd403a315f,0,43,43,28,1,threeone,,,,,,,,,,,,,,,,,,,,,,,,,,,,,,,,,,,,,,,,,,,,,,,,,,,,,,,,,,,,,,,,,,,,,,,,,,,,,,,,,,,,,,,,,,,,,,,,,,,,,,,,,,,,,,,,,,,,,,,,,,,,,,,,,,,,,,,,,,,,,,,,,,,,,,,,,,,,,,
,,,,,,5fbaab6752b13f885c0fb1bd,62c53918c3820a560e4cde5d,2022-07-06_09h41.56.563,Colour_Asymmetry_Pilot,2022.1.3,Win32,60.07449237,62c50e9c1127f2cd403a315f,0,44,44,12,1,threeone,,,,,,,,,,,,,,,,,,,,,,,,,,,,,,,,,,,,,,,,,,,,,,,,,,,,,,,,,,,,,,,,,,,,,,,,,,,,,,,,,,,,,,,,,,,,,,,,,,,,,,,,,,,,,,,,,,,,,,,,,,,,,,,,,,,,,,,,,,,,,,,,,,,,,,,,,,,,,,
,,,,,,5fbaab6752b13f885c0fb1bd,62c53918c3820a560e4cde5d,2022-07-06_09h41.56.563,Colour_Asymmetry_Pilot,2022.1.3,Win32,60.07449237,62c50e9c1127f2cd403a315f,0,45,45,57,1,onethree,,,,,,,,,,,,,,,,,,,,,,,,,,,,,,,,,,,,,,,,,,,,,,,,,,,,,,,,,,,,,,,,,,,,,,,,,,,,,,,,,,,,,,,,,,,,,,,,,,,,,,,,,,,,,,,,,,,,,,,,,,,,,,,,,,,,,,,,,,,,,,,,,,,,,,,,,,,,,,
,,,,,,5fbaab6752b13f885c0fb1bd,62c53918c3820a560e4cde5d,2022-07-06_09h41.56.563,Colour_Asymmetry_Pilot,2022.1.3,Win32,60.07449237,62c50e9c1127f2cd403a315f,0,46,46,26,1,twoone,,,,,,,,,,,,,,,,,,,,,,,,,,,,,,,,,,,,,,,,,,,,,,,,,,,,,,,,,,,,,,,,,,,,,,,,,,,,,,,,,,,,,,,,,,,,,,,,,,,,,,,,,,,,,,,,,,,,,,,,,,,,,,,,,,,,,,,,,,,,,,,,,,,,,,,,,,,,,,
,,,,,,5fbaab6752b13f885c0fb1bd,62c53918c3820a560e4cde5d,2022-07-06_09h41.56.563,Colour_Asymmetry_Pilot,2022.1.3,Win32,60.07449237,62c50e9c1127f2cd403a315f,0,47,47,117,1,threefour,,,,,,,,,,,,,,,,,,,,,,,,,,,,,,,,,,,,,,,,,,,,,,,,,,,,,,,,,,,,,,,,,,,,,,,,,,,,,,,,,,,,,,,,,,,,,,,,,,,,,,,,,,,,,,,,,,,,,,,,,,,,,,,,,,,,,,,,,,,,,,,,,,,,,,,,,,,,,,
,,,,,,5fbaab6752b13f885c0fb1bd,62c53918c3820a560e4cde5d,2022-07-06_09h41.56.563,Colour_Asymmetry_Pilot,2022.1.3,Win32,60.07449237,62c50e9c1127f2cd403a315f,0,48,48,35,1,twofour,,,,,,,,,,,,,,,,,,,,,,,,,,,,,,,,,,,,,,,,,,,,,,,,,,,,,,,,,,,,,,,,,,,,,,,,,,,,,,,,,,,,,,,,,,,,,,,,,,,,,,,,,,,,,,,,,,,,,,,,,,,,,,,,,,,,,,,,,,,,,,,,,,,,,,,,,,,,,,
,,,,,,5fbaab6752b13f885c0fb1bd,62c53918c3820a560e4cde5d,2022-07-06_09h41.56.563,Colour_Asymmetry_Pilot,2022.1.3,Win32,60.07449237,62c50e9c1127f2cd403a315f,0,49,49,159,1,fourthree,,,,,,,,,,,,,,,,,,,,,,,,,,,,,,,,,,,,,,,,,,,,,,,,,,,,,,,,,,,,,,,,,,,,,,,,,,,,,,,,,,,,,,,,,,,,,,,,,,,,,,,,,,,,,,,,,,,,,,,,,,,,,,,,,,,,,,,,,,,,,,,,,,,,,,,,,,,,,,
,,,,,,5fbaab6752b13f885c0fb1bd,62c53918c3820a560e4cde5d,2022-07-06_09h41.56.563,Colour_Asymmetry_Pilot,2022.1.3,Win32,60.07449237,62c50e9c1127f2cd403a315f,0,50,50,68,1,threeone,,,,,,,,,,,,,,,,,,,,,,,,,,,,,,,,,,,,,,,,,,,,,,,,,,,,,,,,,,,,,,,,,,,,,,,,,,,,,,,,,,,,,,,,,,,,,,,,,,,,,,,,,,,,,,,,,,,,,,,,,,,,,,,,,,,,,,,,,,,,,,,,,,,,,,,,,,,,,,
,,,,,,5fbaab6752b13f885c0fb1bd,62c53918c3820a560e4cde5d,2022-07-06_09h41.56.563,Colour_Asymmetry_Pilot,2022.1.3,Win32,60.07449237,62c50e9c1127f2cd403a315f,0,51,51,155,1,twofour,,,,,,,,,,,,,,,,,,,,,,,,,,,,,,,,,,,,,,,,,,,,,,,,,,,,,,,,,,,,,,,,,,,,,,,,,,,,,,,,,,,,,,,,,,,,,,,,,,,,,,,,,,,,,,,,,,,,,,,,,,,,,,,,,,,,,,,,,,,,,,,,,,,,,,,,,,,,,,
,,,,,,5fbaab6752b13f885c0fb1bd,62c53918c3820a560e4cde5d,2022-07-06_09h41.56.563,Colour_Asymmetry_Pilot,2022.1.3,Win32,60.07449237,62c50e9c1127f2cd403a315f,0,52,52,124,1,threeone,,,,,,,,,,,,,,,,,,,,,,,,,,,,,,,,,,,,,,,,,,,,,,,,,,,,,,,,,,,,,,,,,,,,,,,,,,,,,,,,,,,,,,,,,,,,,,,,,,,,,,,,,,,,,,,,,,,,,,,,,,,,,,,,,,,,,,,,,,,,,,,,,,,,,,,,,,,,,,
,,,,,,5fbaab6752b13f885c0fb1bd,62c53918c3820a560e4cde5d,2022-07-06_09h41.56.563,Colour_Asymmetry_Pilot,2022.1.3,Win32,60.07449237,62c50e9c1127f2cd403a315f,0,53,53,8,1,onetwo,,,,,,,,,,,,,,,,,,,,,,,,,,,,,,,,,,,,,,,,,,,,,,,,,,,,,,,,,,,,,,,,,,,,,,,,,,,,,,,,,,,,,,,,,,,,,,,,,,,,,,,,,,,,,,,,,,,,,,,,,,,,,,,,,,,,,,,,,,,,,,,,,,,,,,,,,,,,,,
,,,,,,5fbaab6752b13f885c0fb1bd,62c53918c3820a560e4cde5d,2022-07-06_09h41.56.563,Colour_Asymmetry_Pilot,2022.1.3,Win32,60.07449237,62c50e9c1127f2cd403a315f,0,54,54,94,1,fourtwo,,,,,,,,,,,,,,,,,,,,,,,,,,,,,,,,,,,,,,,,,,,,,,,,,,,,,,,,,,,,,,,,,,,,,,,,,,,,,,,,,,,,,,,,,,,,,,,,,,,,,,,,,,,,,,,,,,,,,,,,,,,,,,,,,,,,,,,,,,,,,,,,,,,,,,,,,,,,,,
,,,,,,5fbaab6752b13f885c0fb1bd,62c53918c3820a560e4cde5d,2022-07-06_09h41.56.563,Colour_Asymmetry_Pilot,2022.1.3,Win32,60.07449237,62c50e9c1127f2cd403a315f,0,55,55,142,1,fourtwo,,,,,,,,,,,,,,,,,,,,,,,,,,,,,,,,,,,,,,,,,,,,,,,,,,,,,,,,,,,,,,,,,,,,,,,,,,,,,,,,,,,,,,,,,,,,,,,,,,,,,,,,,,,,,,,,,,,,,,,,,,,,,,,,,,,,,,,,,,,,,,,,,,,,,,,,,,,,,,
,,,,,,5fbaab6752b13f885c0fb1bd,62c53918c3820a560e4cde5d,2022-07-06_09h41.56.563,Colour_Asymmetry_Pilot,2022.1.3,Win32,60.07449237,62c50e9c1127f2cd403a315f,0,56,56,95,1,fourthree,,,,,,,,,,,,,,,,,,,,,,,,,,,,,,,,,,,,,,,,,,,,,,,,,,,,,,,,,,,,,,,,,,,,,,,,,,,,,,,,,,,,,,,,,,,,,,,,,,,,,,,,,,,,,,,,,,,,,,,,,,,,,,,,,,,,,,,,,,,,,,,,,,,,,,,,,,,,,,
,,,,,,5fbaab6752b13f885c0fb1bd,62c53918c3820a560e4cde5d,2022-07-06_09h41.56.563,Colour_Asymmetry_Pilot,2022.1.3,Win32,60.07449237,62c50e9c1127f2cd403a315f,0,57,57,120,1,onetwo,,,,,,,,,,,,,,,,,,,,,,,,,,,,,,,,,,,,,,,,,,,,,,,,,,,,,,,,,,,,,,,,,,,,,,,,,,,,,,,,,,,,,,,,,,,,,,,,,,,,,,,,,,,,,,,,,,,,,,,,,,,,,,,,,,,,,,,,,,,,,,,,,,,,,,,,,,,,,,
,,,,,,5fbaab6752b13f885c0fb1bd,62c53918c3820a560e4cde5d,2022-07-06_09h41.56.563,Colour_Asymmetry_Pilot,2022.1.3,Win32,60.07449237,62c50e9c1127f2cd403a315f,0,58,58,59,1,twofour,,,,,,,,,,,,,,,,,,,,,,,,,,,,,,,,,,,,,,,,,,,,,,,,,,,,,,,,,,,,,,,,,,,,,,,,,,,,,,,,,,,,,,,,,,,,,,,,,,,,,,,,,,,,,,,,,,,,,,,,,,,,,,,,,,,,,,,,,,,,,,,,,,,,,,,,,,,,,,
,,,,,,5fbaab6752b13f885c0fb1bd,62c53918c3820a560e4cde5d,2022-07-06_09h41.56.563,Colour_Asymmetry_Pilot,2022.1.3,Win32,60.07449237,62c50e9c1127f2cd403a315f,0,59,59,119,1,fourthree,,,,,,,,,,,,,,,,,,,,,,,,,,,,,,,,,,,,,,,,,,,,,,,,,,,,,,,,,,,,,,,,,,,,,,,,,,,,,,,,,,,,,,,,,,,,,,,,,,,,,,,,,,,,,,,,,,,,,,,,,,,,,,,,,,,,,,,,,,,,,,,,,,,,,,,,,,,,,,
,,,,,,5fbaab6752b13f885c0fb1bd,62c53918c3820a560e4cde5d,2022-07-06_09h41.56.563,Colour_Asymmetry_Pilot,2022.1.3,Win32,60.07449237,62c50e9c1127f2cd403a315f,0,60,60,136,1,onetwo,,,,,,,,,,,,,,,,,,,,,,,,,,,,,,,,,,,,,,,,,,,,,,,,,,,,,,,,,,,,,,,,,,,,,,,,,,,,,,,,,,,,,,,,,,,,,,,,,,,,,,,,,,,,,,,,,,,,,,,,,,,,,,,,,,,,,,,,,,,,,,,,,,,,,,,,,,,,,,
,,,,,,5fbaab6752b13f885c0fb1bd,62c53918c3820a560e4cde5d,2022-07-06_09h41.56.563,Colour_Asymmetry_Pilot,2022.1.3,Win32,60.07449237,62c50e9c1127f2cd403a315f,0,61,61,157,1,threefour,,,,,,,,,,,,,,,,,,,,,,,,,,,,,,,,,,,,,,,,,,,,,,,,,,,,,,,,,,,,,,,,,,,,,,,,,,,,,,,,,,,,,,,,,,,,,,,,,,,,,,,,,,,,,,,,,,,,,,,,,,,,,,,,,,,,,,,,,,,,,,,,,,,,,,,,,,,,,,
,,,,,,5fbaab6752b13f885c0fb1bd,62c53918c3820a560e4cde5d,2022-07-06_09h41.56.563,Colour_Asymmetry_Pilot,2022.1.3,Win32,60.07449237,62c50e9c1127f2cd403a315f,0,62,62,100,1,threeone,,,,,,,,,,,,,,,,,,,,,,,,,,,,,,,,,,,,,,,,,,,,,,,,,,,,,,,,,,,,,,,,,,,,,,,,,,,,,,,,,,,,,,,,,,,,,,,,,,,,,,,,,,,,,,,,,,,,,,,,,,,,,,,,,,,,,,,,,,,,,,,,,,,,,,,,,,,,,,
,,,,,,5fbaab6752b13f885c0fb1bd,62c53918c3820a560e4cde5d,2022-07-06_09h41.56.563,Colour_Asymmetry_Pilot,2022.1.3,Win32,60.07449237,62c50e9c1127f2cd403a315f,0,63,63,54,1,fourtwo,,,,,,,,,,,,,,,,,,,,,,,,,,,,,,,,,,,,,,,,,,,,,,,,,,,,,,,,,,,,,,,,,,,,,,,,,,,,,,,,,,,,,,,,,,,,,,,,,,,,,,,,,,,,,,,,,,,,,,,,,,,,,,,,,,,,,,,,,,,,,,,,,,,,,,,,,,,,,,
,,,,,,5fbaab6752b13f885c0fb1bd,62c53918c3820a560e4cde5d,2022-07-06_09h41.56.563,Colour_Asymmetry_Pilot,2022.1.3,Win32,60.07449237,62c50e9c1127f2cd403a315f,0,64,64,9,1,onethree,,,,,,,,,,,,,,,,,,,,,,,,,,,,,,,,,,,,,,,,,,,,,,,,,,,,,,,,,,,,,,,,,,,,,,,,,,,,,,,,,,,,,,,,,,,,,,,,,,,,,,,,,,,,,,,,,,,,,,,,,,,,,,,,,,,,,,,,,,,,,,,,,,,,,,,,,,,,,,
,,,,,,5fbaab6752b13f885c0fb1bd,62c53918c3820a560e4cde5d,2022-07-06_09h41.56.563,Colour_Asymmetry_Pilot,2022.1.3,Win32,60.07449237,62c50e9c1127f2cd403a315f,0,65,65,74,1,twoone,,,,,,,,,,,,,,,,,,,,,,,,,,,,,,,,,,,,,,,,,,,,,,,,,,,,,,,,,,,,,,,,,,,,,,,,,,,,,,,,,,,,,,,,,,,,,,,,,,,,,,,,,,,,,,,,,,,,,,,,,,,,,,,,,,,,,,,,,,,,,,,,,,,,,,,,,,,,,,
,,,,,,5fbaab6752b13f885c0fb1bd,62c53918c3820a560e4cde5d,2022-07-06_09h41.56.563,Colour_Asymmetry_Pilot,2022.1.3,Win32,60.07449237,62c50e9c1127f2cd403a315f,0,66,66,0,1,onetwo,,,,,,,,,,,,,,,,,,,,,,,,,,,,,,,,,,,,,,,,,,,,,,,,,,,,,,,,,,,,,,,,,,,,,,,,,,,,,,,,,,,,,,,,,,,,,,,,,,,,,,,,,,,,,,,,,,,,,,,,,,,,,,,,,,,,,,,,,,,,,,,,,,,,,,,,,,,,,,
,,,,,,5fbaab6752b13f885c0fb1bd,62c53918c3820a560e4cde5d,2022-07-06_09h41.56.563,Colour_Asymmetry_Pilot,2022.1.3,Win32,60.07449237,62c50e9c1127f2cd403a315f,0,67,67,116,1,threeone,,,,,,,,,,,,,,,,,,,,,,,,,,,,,,,,,,,,,,,,,,,,,,,,,,,,,,,,,,,,,,,,,,,,,,,,,,,,,,,,,,,,,,,,,,,,,,,,,,,,,,,,,,,,,,,,,,,,,,,,,,,,,,,,,,,,,,,,,,,,,,,,,,,,,,,,,,,,,,
,,,,,,5fbaab6752b13f885c0fb1bd,62c53918c3820a560e4cde5d,2022-07-06_09h41.56.563,Colour_Asymmetry_Pilot,2022.1.3,Win32,60.07449237,62c50e9c1127f2cd403a315f,0,68,68,18,1,twoone,,,,,,,,,,,,,,,,,,,,,,,,,,,,,,,,,,,,,,,,,,,,,,,,,,,,,,,,,,,,,,,,,,,,,,,,,,,,,,,,,,,,,,,,,,,,,,,,,,,,,,,,,,,,,,,,,,,,,,,,,,,,,,,,,,,,,,,,,,,,,,,,,,,,,,,,,,,,,,
,,,,,,5fbaab6752b13f885c0fb1bd,62c53918c3820a560e4cde5d,2022-07-06_09h41.56.563,Colour_Asymmetry_Pilot,2022.1.3,Win32,60.07449237,62c50e9c1127f2cd403a315f,0,69,69,102,1,fourtwo,,,,,,,,,,,,,,,,,,,,,,,,,,,,,,,,,,,,,,,,,,,,,,,,,,,,,,,,,,,,,,,,,,,,,,,,,,,,,,,,,,,,,,,,,,,,,,,,,,,,,,,,,,,,,,,,,,,,,,,,,,,,,,,,,,,,,,,,,,,,,,,,,,,,,,,,,,,,,,
,,,,,,5fbaab6752b13f885c0fb1bd,62c53918c3820a560e4cde5d,2022-07-06_09h41.56.563,Colour_Asymmetry_Pilot,2022.1.3,Win32,60.07449237,62c50e9c1127f2cd403a315f,0,70,70,127,1,fourthree,,,,,,,,,,,,,,,,,,,,,,,,,,,,,,,,,,,,,,,,,,,,,,,,,,,,,,,,,,,,,,,,,,,,,,,,,,,,,,,,,,,,,,,,,,,,,,,,,,,,,,,,,,,,,,,,,,,,,,,,,,,,,,,,,,,,,,,,,,,,,,,,,,,,,,,,,,,,,,
,,,,,,5fbaab6752b13f885c0fb1bd,62c53918c3820a560e4cde5d,2022-07-06_09h41.56.563,Colour_Asymmetry_Pilot,2022.1.3,Win32,60.07449237,62c50e9c1127f2cd403a315f,0,71,71,10,1,twoone,,,,,,,,,,,,,,,,,,,,,,,,,,,,,,,,,,,,,,,,,,,,,,,,,,,,,,,,,,,,,,,,,,,,,,,,,,,,,,,,,,,,,,,,,,,,,,,,,,,,,,,,,,,,,,,,,,,,,,,,,,,,,,,,,,,,,,,,,,,,,,,,,,,,,,,,,,,,,,
,,,,,,5fbaab6752b13f885c0fb1bd,62c53918c3820a560e4cde5d,2022-07-06_09h41.56.563,Colour_Asymmetry_Pilot,2022.1.3,Win32,60.07449237,62c50e9c1127f2cd403a315f,0,72,72,153,1,onethree,,,,,,,,,,,,,,,,,,,,,,,,,,,,,,,,,,,,,,,,,,,,,,,,,,,,,,,,,,,,,,,,,,,,,,,,,,,,,,,,,,,,,,,,,,,,,,,,,,,,,,,,,,,,,,,,,,,,,,,,,,,,,,,,,,,,,,,,,,,,,,,,,,,,,,,,,,,,,,
,,,,,,5fbaab6752b13f885c0fb1bd,62c53918c3820a560e4cde5d,2022-07-06_09h41.56.563,Colour_Asymmetry_Pilot,2022.1.3,Win32,60.07449237,62c50e9c1127f2cd403a315f,0,73,73,105,1,onethree,,,,,,,,,,,,,,,,,,,,,,,,,,,,,,,,,,,,,,,,,,,,,,,,,,,,,,,,,,,,,,,,,,,,,,,,,,,,,,,,,,,,,,,,,,,,,,,,,,,,,,,,,,,,,,,,,,,,,,,,,,,,,,,,,,,,,,,,,,,,,,,,,,,,,,,,,,,,,,
,,,,,,5fbaab6752b13f885c0fb1bd,62c53918c3820a560e4cde5d,2022-07-06_09h41.56.563,Colour_Asymmetry_Pilot,2022.1.3,Win32,60.07449237,62c50e9c1127f2cd403a315f,0,74,74,4,1,threeone,,,,,,,,,,,,,,,,,,,,,,,,,,,,,,,,,,,,,,,,,,,,,,,,,,,,,,,,,,,,,,,,,,,,,,,,,,,,,,,,,,,,,,,,,,,,,,,,,,,,,,,,,,,,,,,,,,,,,,,,,,,,,,,,,,,,,,,,,,,,,,,,,,,,,,,,,,,,,,
,,,,,,5fbaab6752b13f885c0fb1bd,62c53918c3820a560e4cde5d,2022-07-06_09h41.56.563,Colour_Asymmetry_Pilot,2022.1.3,Win32,60.07449237,62c50e9c1127f2cd403a315f,0,75,75,138,1,twoone,,,,,,,,,,,,,,,,,,,,,,,,,,,,,,,,,,,,,,,,,,,,,,,,,,,,,,,,,,,,,,,,,,,,,,,,,,,,,,,,,,,,,,,,,,,,,,,,,,,,,,,,,,,,,,,,,,,,,,,,,,,,,,,,,,,,,,,,,,,,,,,,,,,,,,,,,,,,,,
,,,,,,5fbaab6752b13f885c0fb1bd,62c53918c3820a560e4cde5d,2022-07-06_09h41.56.563,Colour_Asymmetry_Pilot,2022.1.3,Win32,60.07449237,62c50e9c1127f2cd403a315f,0,76,76,160,1,onetwo,,,,,,,,,,,,,,,,,,,,,,,,,,,,,,,,,,,,,,,,,,,,,,,,,,,,,,,,,,,,,,,,,,,,,,,,,,,,,,,,,,,,,,,,,,,,,,,,,,,,,,,,,,,,,,,,,,,,,,,,,,,,,,,,,,,,,,,,,,,,,,,,,,,,,,,,,,,,,,
,,,,,,5fbaab6752b13f885c0fb1bd,62c53918c3820a560e4cde5d,2022-07-06_09h41.56.563,Colour_Asymmetry_Pilot,2022.1.3,Win32,60.07449237,62c50e9c1127f2cd403a315f,0,77,77,149,1,threefour,,,,,,,,,,,,,,,,,,,,,,,,,,,,,,,,,,,,,,,,,,,,,,,,,,,,,,,,,,,,,,,,,,,,,,,,,,,,,,,,,,,,,,,,,,,,,,,,,,,,,,,,,,,,,,,,,,,,,,,,,,,,,,,,,,,,,,,,,,,,,,,,,,,,,,,,,,,,,,
,,,,,,5fbaab6752b13f885c0fb1bd,62c53918c3820a560e4cde5d,2022-07-06_09h41.56.563,Colour_Asymmetry_Pilot,2022.1.3,Win32,60.07449237,62c50e9c1127f2cd403a315f,0,78,78,20,1,threeone,,,,,,,,,,,,,,,,,,,,,,,,,,,,,,,,,,,,,,,,,,,,,,,,,,,,,,,,,,,,,,,,,,,,,,,,,,,,,,,,,,,,,,,,,,,,,,,,,,,,,,,,,,,,,,,,,,,,,,,,,,,,,,,,,,,,,,,,,,,,,,,,,,,,,,,,,,,,,,
,,,,,,5fbaab6752b13f885c0fb1bd,62c53918c3820a560e4cde5d,2022-07-06_09h41.56.563,Colour_Asymmetry_Pilot,2022.1.3,Win32,60.07449237,62c50e9c1127f2cd403a315f,0,79,79,77,1,threefour,,,,,,,,,,,,,,,,,,,,,,,,,,,,,,,,,,,,,,,,,,,,,,,,,,,,,,,,,,,,,,,,,,,,,,,,,,,,,,,,,,,,,,,,,,,,,,,,,,,,,,,,,,,,,,,,,,,,,,,,,,,,,,,,,,,,,,,,,,,,,,,,,,,,,,,,,,,,,,
,,,,,,5fbaab6752b13f885c0fb1bd,62c53918c3820a560e4cde5d,2022-07-06_09h41.56.563,Colour_Asymmetry_Pilot,2022.1.3,Win32,60.07449237,62c50e9c1127f2cd403a315f,0,80,80,147,1,twofour,,,,,,,,,,,,,,,,,,,,,,,,,,,,,,,,,,,,,,,,,,,,,,,,,,,,,,,,,,,,,,,,,,,,,,,,,,,,,,,,,,,,,,,,,,,,,,,,,,,,,,,,,,,,,,,,,,,,,,,,,,,,,,,,,,,,,,,,,,,,,,,,,,,,,,,,,,,,,,
,,,,,,5fbaab6752b13f885c0fb1bd,62c53918c3820a560e4cde5d,2022-07-06_09h41.56.563,Colour_Asymmetry_Pilot,2022.1.3,Win32,60.07449237,62c50e9c1127f2cd403a315f,0,81,81,70,1,fourtwo,,,,,,,,,,,,,,,,,,,,,,,,,,,,,,,,,,,,,,,,,,,,,,,,,,,,,,,,,,,,,,,,,,,,,,,,,,,,,,,,,,,,,,,,,,,,,,,,,,,,,,,,,,,,,,,,,,,,,,,,,,,,,,,,,,,,,,,,,,,,,,,,,,,,,,,,,,,,,,
,,,,,,5fbaab6752b13f885c0fb1bd,62c53918c3820a560e4cde5d,2022-07-06_09h41.56.563,Colour_Asymmetry_Pilot,2022.1.3,Win32,60.07449237,62c50e9c1127f2cd403a315f,0,82,82,131,1,twofour,,,,,,,,,,,,,,,,,,,,,,,,,,,,,,,,,,,,,,,,,,,,,,,,,,,,,,,,,,,,,,,,,,,,,,,,,,,,,,,,,,,,,,,,,,,,,,,,,,,,,,,,,,,,,,,,,,,,,,,,,,,,,,,,,,,,,,,,,,,,,,,,,,,,,,,,,,,,,,
,,,,,,5fbaab6752b13f885c0fb1bd,62c53918c3820a560e4cde5d,2022-07-06_09h41.56.563,Colour_Asymmetry_Pilot,2022.1.3,Win32,60.07449237,62c50e9c1127f2cd403a315f,0,83,83,61,1,threefour,,,,,,,,,,,,,,,,,,,,,,,,,,,,,,,,,,,,,,,,,,,,,,,,,,,,,,,,,,,,,,,,,,,,,,,,,,,,,,,,,,,,,,,,,,,,,,,,,,,,,,,,,,,,,,,,,,,,,,,,,,,,,,,,,,,,,,,,,,,,,,,,,,,,,,,,,,,,,,
,,,,,,5fbaab6752b13f885c0fb1bd,62c53918c3820a560e4cde5d,2022-07-06_09h41.56.563,Colour_Asymmetry_Pilot,2022.1.3,Win32,60.07449237,62c50e9c1127f2cd403a315f,0,84,84,98,1,twoone,,,,,,,,,,,,,,,,,,,,,,,,,,,,,,,,,,,,,,,,,,,,,,,,,,,,,,,,,,,,,,,,,,,,,,,,,,,,,,,,,,,,,,,,,,,,,,,,,,,,,,,,,,,,,,,,,,,,,,,,,,,,,,,,,,,,,,,,,,,,,,,,,,,,,,,,,,,,,,
,,,,,,5fbaab6752b13f885c0fb1bd,62c53918c3820a560e4cde5d,2022-07-06_09h41.56.563,Colour_Asymmetry_Pilot,2022.1.3,Win32,60.07449237,62c50e9c1127f2cd403a315f,0,85,85,161,1,onethree,,,,,,,,,,,,,,,,,,,,,,,,,,,,,,,,,,,,,,,,,,,,,,,,,,,,,,,,,,,,,,,,,,,,,,,,,,,,,,,,,,,,,,,,,,,,,,,,,,,,,,,,,,,,,,,,,,,,,,,,,,,,,,,,,,,,,,,,,,,,,,,,,,,,,,,,,,,,,,
,,,,,,5fbaab6752b13f885c0fb1bd,62c53918c3820a560e4cde5d,2022-07-06_09h41.56.563,Colour_Asymmetry_Pilot,2022.1.3,Win32,60.07449237,62c50e9c1127f2cd403a315f,0,86,86,156,1,threeone,,,,,,,,,,,,,,,,,,,,,,,,,,,,,,,,,,,,,,,,,,,,,,,,,,,,,,,,,,,,,,,,,,,,,,,,,,,,,,,,,,,,,,,,,,,,,,,,,,,,,,,,,,,,,,,,,,,,,,,,,,,,,,,,,,,,,,,,,,,,,,,,,,,,,,,,,,,,,,
,,,,,,5fbaab6752b13f885c0fb1bd,62c53918c3820a560e4cde5d,2022-07-06_09h41.56.563,Colour_Asymmetry_Pilot,2022.1.3,Win32,60.07449237,62c50e9c1127f2cd403a315f,0,87,87,130,1,twoone,,,,,,,,,,,,,,,,,,,,,,,,,,,,,,,,,,,,,,,,,,,,,,,,,,,,,,,,,,,,,,,,,,,,,,,,,,,,,,,,,,,,,,,,,,,,,,,,,,,,,,,,,,,,,,,,,,,,,,,,,,,,,,,,,,,,,,,,,,,,,,,,,,,,,,,,,,,,,,
,,,,,,5fbaab6752b13f885c0fb1bd,62c53918c3820a560e4cde5d,2022-07-06_09h41.56.563,Colour_Asymmetry_Pilot,2022.1.3,Win32,60.07449237,62c50e9c1127f2cd403a315f,0,88,88,62,1,fourtwo,,,,,,,,,,,,,,,,,,,,,,,,,,,,,,,,,,,,,,,,,,,,,,,,,,,,,,,,,,,,,,,,,,,,,,,,,,,,,,,,,,,,,,,,,,,,,,,,,,,,,,,,,,,,,,,,,,,,,,,,,,,,,,,,,,,,,,,,,,,,,,,,,,,,,,,,,,,,,,
,,,,,,5fbaab6752b13f885c0fb1bd,62c53918c3820a560e4cde5d,2022-07-06_09h41.56.563,Colour_Asymmetry_Pilot,2022.1.3,Win32,60.07449237,62c50e9c1127f2cd403a315f,0,89,89,14,1,fourtwo,,,,,,,,,,,,,,,,,,,,,,,,,,,,,,,,,,,,,,,,,,,,,,,,,,,,,,,,,,,,,,,,,,,,,,,,,,,,,,,,,,,,,,,,,,,,,,,,,,,,,,,,,,,,,,,,,,,,,,,,,,,,,,,,,,,,,,,,,,,,,,,,,,,,,,,,,,,,,,
,,,,,,5fbaab6752b13f885c0fb1bd,62c53918c3820a560e4cde5d,2022-07-06_09h41.56.563,Colour_Asymmetry_Pilot,2022.1.3,Win32,60.07449237,62c50e9c1127f2cd403a315f,0,90,90,16,1,onetwo,,,,,,,,,,,,,,,,,,,,,,,,,,,,,,,,,,,,,,,,,,,,,,,,,,,,,,,,,,,,,,,,,,,,,,,,,,,,,,,,,,,,,,,,,,,,,,,,,,,,,,,,,,,,,,,,,,,,,,,,,,,,,,,,,,,,,,,,,,,,,,,,,,,,,,,,,,,,,,
,,,,,,5fbaab6752b13f885c0fb1bd,62c53918c3820a560e4cde5d,2022-07-06_09h41.56.563,Colour_Asymmetry_Pilot,2022.1.3,Win32,60.07449237,62c50e9c1127f2cd403a315f,0,91,91,154,1,twoone,,,,,,,,,,,,,,,,,,,,,,,,,,,,,,,,,,,,,,,,,,,,,,,,,,,,,,,,,,,,,,,,,,,,,,,,,,,,,,,,,,,,,,,,,,,,,,,,,,,,,,,,,,,,,,,,,,,,,,,,,,,,,,,,,,,,,,,,,,,,,,,,,,,,,,,,,,,,,,
,,,,,,5fbaab6752b13f885c0fb1bd,62c53918c3820a560e4cde5d,2022-07-06_09h41.56.563,Colour_Asymmetry_Pilot,2022.1.3,Win32,60.07449237,62c50e9c1127f2cd403a315f,0,92,92,144,1,onetwo,,,,,,,,,,,,,,,,,,,,,,,,,,,,,,,,,,,,,,,,,,,,,,,,,,,,,,,,,,,,,,,,,,,,,,,,,,,,,,,,,,,,,,,,,,,,,,,,,,,,,,,,,,,,,,,,,,,,,,,,,,,,,,,,,,,,,,,,,,,,,,,,,,,,,,,,,,,,,,
,,,,,,5fbaab6752b13f885c0fb1bd,62c53918c3820a560e4cde5d,2022-07-06_09h41.56.563,Colour_Asymmetry_Pilot,2022.1.3,Win32,60.07449237,62c50e9c1127f2cd403a315f,0,93,93,6,1,fourtwo,,,,,,,,,,,,,,,,,,,,,,,,,,,,,,,,,,,,,,,,,,,,,,,,,,,,,,,,,,,,,,,,,,,,,,,,,,,,,,,,,,,,,,,,,,,,,,,,,,,,,,,,,,,,,,,,,,,,,,,,,,,,,,,,,,,,,,,,,,,,,,,,,,,,,,,,,,,,,,
,,,,,,5fbaab6752b13f885c0fb1bd,62c53918c3820a560e4cde5d,2022-07-06_09h41.56.563,Colour_Asymmetry_Pilot,2022.1.3,Win32,60.07449237,62c50e9c1127f2cd403a315f,0,94,94,24,1,onetwo,,,,,,,,,,,,,,,,,,,,,,,,,,,,,,,,,,,,,,,,,,,,,,,,,,,,,,,,,,,,,,,,,,,,,,,,,,,,,,,,,,,,,,,,,,,,,,,,,,,,,,,,,,,,,,,,,,,,,,,,,,,,,,,,,,,,,,,,,,,,,,,,,,,,,,,,,,,,,,
,,,,,,5fbaab6752b13f885c0fb1bd,62c53918c3820a560e4cde5d,2022-07-06_09h41.56.563,Colour_Asymmetry_Pilot,2022.1.3,Win32,60.07449237,62c50e9c1127f2cd403a315f,0,95,95,47,1,fourthree,,,,,,,,,,,,,,,,,,,,,,,,,,,,,,,,,,,,,,,,,,,,,,,,,,,,,,,,,,,,,,,,,,,,,,,,,,,,,,,,,,,,,,,,,,,,,,,,,,,,,,,,,,,,,,,,,,,,,,,,,,,,,,,,,,,,,,,,,,,,,,,,,,,,,,,,,,,,,,
,,,,,,5fbaab6752b13f885c0fb1bd,62c53918c3820a560e4cde5d,2022-07-06_09h41.56.563,Colour_Asymmetry_Pilot,2022.1.3,Win32,60.07449237,62c50e9c1127f2cd403a315f,0,96,96,65,1,onethree,,,,,,,,,,,,,,,,,,,,,,,,,,,,,,,,,,,,,,,,,,,,,,,,,,,,,,,,,,,,,,,,,,,,,,,,,,,,,,,,,,,,,,,,,,,,,,,,,,,,,,,,,,,,,,,,,,,,,,,,,,,,,,,,,,,,,,,,,,,,,,,,,,,,,,,,,,,,,,
,,,,,,5fbaab6752b13f885c0fb1bd,62c53918c3820a560e4cde5d,2022-07-06_09h41.56.563,Colour_Asymmetry_Pilot,2022.1.3,Win32,60.07449237,62c50e9c1127f2cd403a315f,0,97,97,45,1,threefour,,,,,,,,,,,,,,,,,,,,,,,,,,,,,,,,,,,,,,,,,,,,,,,,,,,,,,,,,,,,,,,,,,,,,,,,,,,,,,,,,,,,,,,,,,,,,,,,,,,,,,,,,,,,,,,,,,,,,,,,,,,,,,,,,,,,,,,,,,,,,,,,,,,,,,,,,,,,,,
,,,,,,5fbaab6752b13f885c0fb1bd,62c53918c3820a560e4cde5d,2022-07-06_09h41.56.563,Colour_Asymmetry_Pilot,2022.1.3,Win32,60.07449237,62c50e9c1127f2cd403a315f,0,98,98,37,1,threefour,,,,,,,,,,,,,,,,,,,,,,,,,,,,,,,,,,,,,,,,,,,,,,,,,,,,,,,,,,,,,,,,,,,,,,,,,,,,,,,,,,,,,,,,,,,,,,,,,,,,,,,,,,,,,,,,,,,,,,,,,,,,,,,,,,,,,,,,,,,,,,,,,,,,,,,,,,,,,,
,,,,,,5fbaab6752b13f885c0fb1bd,62c53918c3820a560e4cde5d,2022-07-06_09h41.56.563,Colour_Asymmetry_Pilot,2022.1.3,Win32,60.07449237,62c50e9c1127f2cd403a315f,0,99,99,25,1,onethree,,,,,,,,,,,,,,,,,,,,,,,,,,,,,,,,,,,,,,,,,,,,,,,,,,,,,,,,,,,,,,,,,,,,,,,,,,,,,,,,,,,,,,,,,,,,,,,,,,,,,,,,,,,,,,,,,,,,,,,,,,,,,,,,,,,,,,,,,,,,,,,,,,,,,,,,,,,,,,
,,,,,,5fbaab6752b13f885c0fb1bd,62c53918c3820a560e4cde5d,2022-07-06_09h41.56.563,Colour_Asymmetry_Pilot,2022.1.3,Win32,60.07449237,62c50e9c1127f2cd403a315f,0,100,100,46,1,fourtwo,,,,,,,,,,,,,,,,,,,,,,,,,,,,,,,,,,,,,,,,,,,,,,,,,,,,,,,,,,,,,,,,,,,,,,,,,,,,,,,,,,,,,,,,,,,,,,,,,,,,,,,,,,,,,,,,,,,,,,,,,,,,,,,,,,,,,,,,,,,,,,,,,,,,,,,,,,,,,,
,,,,,,5fbaab6752b13f885c0fb1bd,62c53918c3820a560e4cde5d,2022-07-06_09h41.56.563,Colour_Asymmetry_Pilot,2022.1.3,Win32,60.07449237,62c50e9c1127f2cd403a315f,0,101,101,85,1,threefour,,,,,,,,,,,,,,,,,,,,,,,,,,,,,,,,,,,,,,,,,,,,,,,,,,,,,,,,,,,,,,,,,,,,,,,,,,,,,,,,,,,,,,,,,,,,,,,,,,,,,,,,,,,,,,,,,,,,,,,,,,,,,,,,,,,,,,,,,,,,,,,,,,,,,,,,,,,,,,
,,,,,,5fbaab6752b13f885c0fb1bd,62c53918c3820a560e4cde5d,2022-07-06_09h41.56.563,Colour_Asymmetry_Pilot,2022.1.3,Win32,60.07449237,62c50e9c1127f2cd403a315f,0,102,102,145,1,onethree,,,,,,,,,,,,,,,,,,,,,,,,,,,,,,,,,,,,,,,,,,,,,,,,,,,,,,,,,,,,,,,,,,,,,,,,,,,,,,,,,,,,,,,,,,,,,,,,,,,,,,,,,,,,,,,,,,,,,,,,,,,,,,,,,,,,,,,,,,,,,,,,,,,,,,,,,,,,,,
,,,,,,5fbaab6752b13f885c0fb1bd,62c53918c3820a560e4cde5d,2022-07-06_09h41.56.563,Colour_Asymmetry_Pilot,2022.1.3,Win32,60.07449237,62c50e9c1127f2cd403a315f,0,103,103,90,1,twoone,,,,,,,,,,,,,,,,,,,,,,,,,,,,,,,,,,,,,,,,,,,,,,,,,,,,,,,,,,,,,,,,,,,,,,,,,,,,,,,,,,,,,,,,,,,,,,,,,,,,,,,,,,,,,,,,,,,,,,,,,,,,,,,,,,,,,,,,,,,,,,,,,,,,,,,,,,,,,,
,,,,,,5fbaab6752b13f885c0fb1bd,62c53918c3820a560e4cde5d,2022-07-06_09h41.56.563,Colour_Asymmetry_Pilot,2022.1.3,Win32,60.07449237,62c50e9c1127f2cd403a315f,0,104,104,146,1,twoone,,,,,,,,,,,,,,,,,,,,,,,,,,,,,,,,,,,,,,,,,,,,,,,,,,,,,,,,,,,,,,,,,,,,,,,,,,,,,,,,,,,,,,,,,,,,,,,,,,,,,,,,,,,,,,,,,,,,,,,,,,,,,,,,,,,,,,,,,,,,,,,,,,,,,,,,,,,,,,
,,,,,,5fbaab6752b13f885c0fb1bd,62c53918c3820a560e4cde5d,2022-07-06_09h41.56.563,Colour_Asymmetry_Pilot,2022.1.3,Win32,60.07449237,62c50e9c1127f2cd403a315f,0,105,105,103,1,fourthree,,,,,,,,,,,,,,,,,,,,,,,,,,,,,,,,,,,,,,,,,,,,,,,,,,,,,,,,,,,,,,,,,,,,,,,,,,,,,,,,,,,,,,,,,,,,,,,,,,,,,,,,,,,,,,,,,,,,,,,,,,,,,,,,,,,,,,,,,,,,,,,,,,,,,,,,,,,,,,
,,,,,,5fbaab6752b13f885c0fb1bd,62c53918c3820a560e4cde5d,2022-07-06_09h41.56.563,Colour_Asymmetry_Pilot,2022.1.3,Win32,60.07449237,62c50e9c1127f2cd403a315f,0,106,106,76,1,threeone,,,,,,,,,,,,,,,,,,,,,,,,,,,,,,,,,,,,,,,,,,,,,,,,,,,,,,,,,,,,,,,,,,,,,,,,,,,,,,,,,,,,,,,,,,,,,,,,,,,,,,,,,,,,,,,,,,,,,,,,,,,,,,,,,,,,,,,,,,,,,,,,,,,,,,,,,,,,,,
,,,,,,5fbaab6752b13f885c0fb1bd,62c53918c3820a560e4cde5d,2022-07-06_09h41.56.563,Colour_Asymmetry_Pilot,2022.1.3,Win32,60.07449237,62c50e9c1127f2cd403a315f,0,107,107,158,1,fourtwo,,,,,,,,,,,,,,,,,,,,,,,,,,,,,,,,,,,,,,,,,,,,,,,,,,,,,,,,,,,,,,,,,,,,,,,,,,,,,,,,,,,,,,,,,,,,,,,,,,,,,,,,,,,,,,,,,,,,,,,,,,,,,,,,,,,,,,,,,,,,,,,,,,,,,,,,,,,,,,
,,,,,,5fbaab6752b13f885c0fb1bd,62c53918c3820a560e4cde5d,2022-07-06_09h41.56.563,Colour_Asymmetry_Pilot,2022.1.3,Win32,60.07449237,62c50e9c1127f2cd403a315f,0,108,108,92,1,threeone,,,,,,,,,,,,,,,,,,,,,,,,,,,,,,,,,,,,,,,,,,,,,,,,,,,,,,,,,,,,,,,,,,,,,,,,,,,,,,,,,,,,,,,,,,,,,,,,,,,,,,,,,,,,,,,,,,,,,,,,,,,,,,,,,,,,,,,,,,,,,,,,,,,,,,,,,,,,,,
,,,,,,5fbaab6752b13f885c0fb1bd,62c53918c3820a560e4cde5d,2022-07-06_09h41.56.563,Colour_Asymmetry_Pilot,2022.1.3,Win32,60.07449237,62c50e9c1127f2cd403a315f,0,109,109,66,1,twoone,,,,,,,,,,,,,,,,,,,,,,,,,,,,,,,,,,,,,,,,,,,,,,,,,,,,,,,,,,,,,,,,,,,,,,,,,,,,,,,,,,,,,,,,,,,,,,,,,,,,,,,,,,,,,,,,,,,,,,,,,,,,,,,,,,,,,,,,,,,,,,,,,,,,,,,,,,,,,,
,,,,,,5fbaab6752b13f885c0fb1bd,62c53918c3820a560e4cde5d,2022-07-06_09h41.56.563,Colour_Asymmetry_Pilot,2022.1.3,Win32,60.07449237,62c50e9c1127f2cd403a315f,0,110,110,93,1,threefour,,,,,,,,,,,,,,,,,,,,,,,,,,,,,,,,,,,,,,,,,,,,,,,,,,,,,,,,,,,,,,,,,,,,,,,,,,,,,,,,,,,,,,,,,,,,,,,,,,,,,,,,,,,,,,,,,,,,,,,,,,,,,,,,,,,,,,,,,,,,,,,,,,,,,,,,,,,,,,
,,,,,,5fbaab6752b13f885c0fb1bd,62c53918c3820a560e4cde5d,2022-07-06_09h41.56.563,Colour_Asymmetry_Pilot,2022.1.3,Win32,60.07449237,62c50e9c1127f2cd403a315f,0,111,111,64,1,onetwo,,,,,,,,,,,,,,,,,,,,,,,,,,,,,,,,,,,,,,,,,,,,,,,,,,,,,,,,,,,,,,,,,,,,,,,,,,,,,,,,,,,,,,,,,,,,,,,,,,,,,,,,,,,,,,,,,,,,,,,,,,,,,,,,,,,,,,,,,,,,,,,,,,,,,,,,,,,,,,
,,,,,,5fbaab6752b13f885c0fb1bd,62c53918c3820a560e4cde5d,2022-07-06_09h41.56.563,Colour_Asymmetry_Pilot,2022.1.3,Win32,60.07449237,62c50e9c1127f2cd403a315f,0,112,112,114,1,twoone,,,,,,,,,,,,,,,,,,,,,,,,,,,,,,,,,,,,,,,,,,,,,,,,,,,,,,,,,,,,,,,,,,,,,,,,,,,,,,,,,,,,,,,,,,,,,,,,,,,,,,,,,,,,,,,,,,,,,,,,,,,,,,,,,,,,,,,,,,,,,,,,,,,,,,,,,,,,,,
,,,,,,5fbaab6752b13f885c0fb1bd,62c53918c3820a560e4cde5d,2022-07-06_09h41.56.563,Colour_Asymmetry_Pilot,2022.1.3,Win32,60.07449237,62c50e9c1127f2cd403a315f,0,113,113,31,1,fourthree,,,,,,,,,,,,,,,,,,,,,,,,,,,,,,,,,,,,,,,,,,,,,,,,,,,,,,,,,,,,,,,,,,,,,,,,,,,,,,,,,,,,,,,,,,,,,,,,,,,,,,,,,,,,,,,,,,,,,,,,,,,,,,,,,,,,,,,,,,,,,,,,,,,,,,,,,,,,,,
,,,,,,5fbaab6752b13f885c0fb1bd,62c53918c3820a560e4cde5d,2022-07-06_09h41.56.563,Colour_Asymmetry_Pilot,2022.1.3,Win32,60.07449237,62c50e9c1127f2cd403a315f,0,114,114,111,1,fourthree,,,,,,,,,,,,,,,,,,,,,,,,,,,,,,,,,,,,,,,,,,,,,,,,,,,,,,,,,,,,,,,,,,,,,,,,,,,,,,,,,,,,,,,,,,,,,,,,,,,,,,,,,,,,,,,,,,,,,,,,,,,,,,,,,,,,,,,,,,,,,,,,,,,,,,,,,,,,,,
,,,,,,5fbaab6752b13f885c0fb1bd,62c53918c3820a560e4cde5d,2022-07-06_09h41.56.563,Colour_Asymmetry_Pilot,2022.1.3,Win32,60.07449237,62c50e9c1127f2cd403a315f,0,115,115,82,1,twoone,,,,,,,,,,,,,,,,,,,,,,,,,,,,,,,,,,,,,,,,,,,,,,,,,,,,,,,,,,,,,,,,,,,,,,,,,,,,,,,,,,,,,,,,,,,,,,,,,,,,,,,,,,,,,,,,,,,,,,,,,,,,,,,,,,,,,,,,,,,,,,,,,,,,,,,,,,,,,,
,,,,,,5fbaab6752b13f885c0fb1bd,62c53918c3820a560e4cde5d,2022-07-06_09h41.56.563,Colour_Asymmetry_Pilot,2022.1.3,Win32,60.07449237,62c50e9c1127f2cd403a315f,0,116,116,21,1,threefour,,,,,,,,,,,,,,,,,,,,,,,,,,,,,,,,,,,,,,,,,,,,,,,,,,,,,,,,,,,,,,,,,,,,,,,,,,,,,,,,,,,,,,,,,,,,,,,,,,,,,,,,,,,,,,,,,,,,,,,,,,,,,,,,,,,,,,,,,,,,,,,,,,,,,,,,,,,,,,
,,,,,,5fbaab6752b13f885c0fb1bd,62c53918c3820a560e4cde5d,2022-07-06_09h41.56.563,Colour_Asymmetry_Pilot,2022.1.3,Win32,60.07449237,62c50e9c1127f2cd403a315f,0,117,117,78,1,fourtwo,,,,,,,,,,,,,,,,,,,,,,,,,,,,,,,,,,,,,,,,,,,,,,,,,,,,,,,,,,,,,,,,,,,,,,,,,,,,,,,,,,,,,,,,,,,,,,,,,,,,,,,,,,,,,,,,,,,,,,,,,,,,,,,,,,,,,,,,,,,,,,,,,,,,,,,,,,,,,,
,,,,,,5fbaab6752b13f885c0fb1bd,62c53918c3820a560e4cde5d,2022-07-06_09h41.56.563,Colour_Asymmetry_Pilot,2022.1.3,Win32,60.07449237,62c50e9c1127f2cd403a315f,0,118,118,126,1,fourtwo,,,,,,,,,,,,,,,,,,,,,,,,,,,,,,,,,,,,,,,,,,,,,,,,,,,,,,,,,,,,,,,,,,,,,,,,,,,,,,,,,,,,,,,,,,,,,,,,,,,,,,,,,,,,,,,,,,,,,,,,,,,,,,,,,,,,,,,,,,,,,,,,,,,,,,,,,,,,,,
,,,,,,5fbaab6752b13f885c0fb1bd,62c53918c3820a560e4cde5d,2022-07-06_09h41.56.563,Colour_Asymmetry_Pilot,2022.1.3,Win32,60.07449237,62c50e9c1127f2cd403a315f,0,119,119,22,1,fourtwo,,,,,,,,,,,,,,,,,,,,,,,,,,,,,,,,,,,,,,,,,,,,,,,,,,,,,,,,,,,,,,,,,,,,,,,,,,,,,,,,,,,,,,,,,,,,,,,,,,,,,,,,,,,,,,,,,,,,,,,,,,,,,,,,,,,,,,,,,,,,,,,,,,,,,,,,,,,,,,
,,,,,,5fbaab6752b13f885c0fb1bd,62c53918c3820a560e4cde5d,2022-07-06_09h41.56.563,Colour_Asymmetry_Pilot,2022.1.3,Win32,60.07449237,62c50e9c1127f2cd403a315f,0,120,120,83,1,twofour,,,,,,,,,,,,,,,,,,,,,,,,,,,,,,,,,,,,,,,,,,,,,,,,,,,,,,,,,,,,,,,,,,,,,,,,,,,,,,,,,,,,,,,,,,,,,,,,,,,,,,,,,,,,,,,,,,,,,,,,,,,,,,,,,,,,,,,,,,,,,,,,,,,,,,,,,,,,,,
,,,,,,5fbaab6752b13f885c0fb1bd,62c53918c3820a560e4cde5d,2022-07-06_09h41.56.563,Colour_Asymmetry_Pilot,2022.1.3,Win32,60.07449237,62c50e9c1127f2cd403a315f,0,121,121,134,1,fourtwo,,,,,,,,,,,,,,,,,,,,,,,,,,,,,,,,,,,,,,,,,,,,,,,,,,,,,,,,,,,,,,,,,,,,,,,,,,,,,,,,,,,,,,,,,,,,,,,,,,,,,,,,,,,,,,,,,,,,,,,,,,,,,,,,,,,,,,,,,,,,,,,,,,,,,,,,,,,,,,
,,,,,,5fbaab6752b13f885c0fb1bd,62c53918c3820a560e4cde5d,2022-07-06_09h41.56.563,Colour_Asymmetry_Pilot,2022.1.3,Win32,60.07449237,62c50e9c1127f2cd403a315f,0,122,122,34,1,twoone,,,,,,,,,,,,,,,,,,,,,,,,,,,,,,,,,,,,,,,,,,,,,,,,,,,,,,,,,,,,,,,,,,,,,,,,,,,,,,,,,,,,,,,,,,,,,,,,,,,,,,,,,,,,,,,,,,,,,,,,,,,,,,,,,,,,,,,,,,,,,,,,,,,,,,,,,,,,,,
,,,,,,5fbaab6752b13f885c0fb1bd,62c53918c3820a560e4cde5d,2022-07-06_09h41.56.563,Colour_Asymmetry_Pilot,2022.1.3,Win32,60.07449237,62c50e9c1127f2cd403a315f,0,123,123,107,1,twofour,,,,,,,,,,,,,,,,,,,,,,,,,,,,,,,,,,,,,,,,,,,,,,,,,,,,,,,,,,,,,,,,,,,,,,,,,,,,,,,,,,,,,,,,,,,,,,,,,,,,,,,,,,,,,,,,,,,,,,,,,,,,,,,,,,,,,,,,,,,,,,,,,,,,,,,,,,,,,,
,,,,,,5fbaab6752b13f885c0fb1bd,62c53918c3820a560e4cde5d,2022-07-06_09h41.56.563,Colour_Asymmetry_Pilot,2022.1.3,Win32,60.07449237,62c50e9c1127f2cd403a315f,0,124,124,73,1,onethree,,,,,,,,,,,,,,,,,,,,,,,,,,,,,,,,,,,,,,,,,,,,,,,,,,,,,,,,,,,,,,,,,,,,,,,,,,,,,,,,,,,,,,,,,,,,,,,,,,,,,,,,,,,,,,,,,,,,,,,,,,,,,,,,,,,,,,,,,,,,,,,,,,,,,,,,,,,,,,
,,,,,,5fbaab6752b13f885c0fb1bd,62c53918c3820a560e4cde5d,2022-07-06_09h41.56.563,Colour_Asymmetry_Pilot,2022.1.3,Win32,60.07449237,62c50e9c1127f2cd403a315f,0,125,125,43,1,twofour,,,,,,,,,,,,,,,,,,,,,,,,,,,,,,,,,,,,,,,,,,,,,,,,,,,,,,,,,,,,,,,,,,,,,,,,,,,,,,,,,,,,,,,,,,,,,,,,,,,,,,,,,,,,,,,,,,,,,,,,,,,,,,,,,,,,,,,,,,,,,,,,,,,,,,,,,,,,,,
,,,,,,5fbaab6752b13f885c0fb1bd,62c53918c3820a560e4cde5d,2022-07-06_09h41.56.563,Colour_Asymmetry_Pilot,2022.1.3,Win32,60.07449237,62c50e9c1127f2cd403a315f,0,126,126,67,1,twofour,,,,,,,,,,,,,,,,,,,,,,,,,,,,,,,,,,,,,,,,,,,,,,,,,,,,,,,,,,,,,,,,,,,,,,,,,,,,,,,,,,,,,,,,,,,,,,,,,,,,,,,,,,,,,,,,,,,,,,,,,,,,,,,,,,,,,,,,,,,,,,,,,,,,,,,,,,,,,,
,,,,,,5fbaab6752b13f885c0fb1bd,62c53918c3820a560e4cde5d,2022-07-06_09h41.56.563,Colour_Asymmetry_Pilot,2022.1.3,Win32,60.07449237,62c50e9c1127f2cd403a315f,0,127,127,15,1,fourthree,,,,,,,,,,,,,,,,,,,,,,,,,,,,,,,,,,,,,,,,,,,,,,,,,,,,,,,,,,,,,,,,,,,,,,,,,,,,,,,,,,,,,,,,,,,,,,,,,,,,,,,,,,,,,,,,,,,,,,,,,,,,,,,,,,,,,,,,,,,,,,,,,,,,,,,,,,,,,,
,,,,,,5fbaab6752b13f885c0fb1bd,62c53918c3820a560e4cde5d,2022-07-06_09h41.56.563,Colour_Asymmetry_Pilot,2022.1.3,Win32,60.07449237,62c50e9c1127f2cd403a315f,0,128,128,121,1,onethree,,,,,,,,,,,,,,,,,,,,,,,,,,,,,,,,,,,,,,,,,,,,,,,,,,,,,,,,,,,,,,,,,,,,,,,,,,,,,,,,,,,,,,,,,,,,,,,,,,,,,,,,,,,,,,,,,,,,,,,,,,,,,,,,,,,,,,,,,,,,,,,,,,,,,,,,,,,,,,
,,,,,,5fbaab6752b13f885c0fb1bd,62c53918c3820a560e4cde5d,2022-07-06_09h41.56.563,Colour_Asymmetry_Pilot,2022.1.3,Win32,60.07449237,62c50e9c1127f2cd403a315f,0,129,129,3,1,twofour,,,,,,,,,,,,,,,,,,,,,,,,,,,,,,,,,,,,,,,,,,,,,,,,,,,,,,,,,,,,,,,,,,,,,,,,,,,,,,,,,,,,,,,,,,,,,,,,,,,,,,,,,,,,,,,,,,,,,,,,,,,,,,,,,,,,,,,,,,,,,,,,,,,,,,,,,,,,,,
,,,,,,5fbaab6752b13f885c0fb1bd,62c53918c3820a560e4cde5d,2022-07-06_09h41.56.563,Colour_Asymmetry_Pilot,2022.1.3,Win32,60.07449237,62c50e9c1127f2cd403a315f,0,130,130,88,1,onetwo,,,,,,,,,,,,,,,,,,,,,,,,,,,,,,,,,,,,,,,,,,,,,,,,,,,,,,,,,,,,,,,,,,,,,,,,,,,,,,,,,,,,,,,,,,,,,,,,,,,,,,,,,,,,,,,,,,,,,,,,,,,,,,,,,,,,,,,,,,,,,,,,,,,,,,,,,,,,,,
,,,,,,5fbaab6752b13f885c0fb1bd,62c53918c3820a560e4cde5d,2022-07-06_09h41.56.563,Colour_Asymmetry_Pilot,2022.1.3,Win32,60.07449237,62c50e9c1127f2cd403a315f,0,131,131,137,1,onethree,,,,,,,,,,,,,,,,,,,,,,,,,,,,,,,,,,,,,,,,,,,,,,,,,,,,,,,,,,,,,,,,,,,,,,,,,,,,,,,,,,,,,,,,,,,,,,,,,,,,,,,,,,,,,,,,,,,,,,,,,,,,,,,,,,,,,,,,,,,,,,,,,,,,,,,,,,,,,,
,,,,,,5fbaab6752b13f885c0fb1bd,62c53918c3820a560e4cde5d,2022-07-06_09h41.56.563,Colour_Asymmetry_Pilot,2022.1.3,Win32,60.07449237,62c50e9c1127f2cd403a315f,0,132,132,13,1,threefour,,,,,,,,,,,,,,,,,,,,,,,,,,,,,,,,,,,,,,,,,,,,,,,,,,,,,,,,,,,,,,,,,,,,,,,,,,,,,,,,,,,,,,,,,,,,,,,,,,,,,,,,,,,,,,,,,,,,,,,,,,,,,,,,,,,,,,,,,,,,,,,,,,,,,,,,,,,,,,
,,,,,,5fbaab6752b13f885c0fb1bd,62c53918c3820a560e4cde5d,2022-07-06_09h41.56.563,Colour_Asymmetry_Pilot,2022.1.3,Win32,60.07449237,62c50e9c1127f2cd403a315f,0,133,133,49,1,onethree,,,,,,,,,,,,,,,,,,,,,,,,,,,,,,,,,,,,,,,,,,,,,,,,,,,,,,,,,,,,,,,,,,,,,,,,,,,,,,,,,,,,,,,,,,,,,,,,,,,,,,,,,,,,,,,,,,,,,,,,,,,,,,,,,,,,,,,,,,,,,,,,,,,,,,,,,,,,,,
,,,,,,5fbaab6752b13f885c0fb1bd,62c53918c3820a560e4cde5d,2022-07-06_09h41.56.563,Colour_Asymmetry_Pilot,2022.1.3,Win32,60.07449237,62c50e9c1127f2cd403a315f,0,134,134,148,1,threeone,,,,,,,,,,,,,,,,,,,,,,,,,,,,,,,,,,,,,,,,,,,,,,,,,,,,,,,,,,,,,,,,,,,,,,,,,,,,,,,,,,,,,,,,,,,,,,,,,,,,,,,,,,,,,,,,,,,,,,,,,,,,,,,,,,,,,,,,,,,,,,,,,,,,,,,,,,,,,,
,,,,,,5fbaab6752b13f885c0fb1bd,62c53918c3820a560e4cde5d,2022-07-06_09h41.56.563,Colour_Asymmetry_Pilot,2022.1.3,Win32,60.07449237,62c50e9c1127f2cd403a315f,0,135,135,84,1,threeone,,,,,,,,,,,,,,,,,,,,,,,,,,,,,,,,,,,,,,,,,,,,,,,,,,,,,,,,,,,,,,,,,,,,,,,,,,,,,,,,,,,,,,,,,,,,,,,,,,,,,,,,,,,,,,,,,,,,,,,,,,,,,,,,,,,,,,,,,,,,,,,,,,,,,,,,,,,,,,
,,,,,,5fbaab6752b13f885c0fb1bd,62c53918c3820a560e4cde5d,2022-07-06_09h41.56.563,Colour_Asymmetry_Pilot,2022.1.3,Win32,60.07449237,62c50e9c1127f2cd403a315f,0,136,136,151,1,fourthree,,,,,,,,,,,,,,,,,,,,,,,,,,,,,,,,,,,,,,,,,,,,,,,,,,,,,,,,,,,,,,,,,,,,,,,,,,,,,,,,,,,,,,,,,,,,,,,,,,,,,,,,,,,,,,,,,,,,,,,,,,,,,,,,,,,,,,,,,,,,,,,,,,,,,,,,,,,,,,
,,,,,,5fbaab6752b13f885c0fb1bd,62c53918c3820a560e4cde5d,2022-07-06_09h41.56.563,Colour_Asymmetry_Pilot,2022.1.3,Win32,60.07449237,62c50e9c1127f2cd403a315f,0,137,137,141,1,threefour,,,,,,,,,,,,,,,,,,,,,,,,,,,,,,,,,,,,,,,,,,,,,,,,,,,,,,,,,,,,,,,,,,,,,,,,,,,,,,,,,,,,,,,,,,,,,,,,,,,,,,,,,,,,,,,,,,,,,,,,,,,,,,,,,,,,,,,,,,,,,,,,,,,,,,,,,,,,,,
,,,,,,5fbaab6752b13f885c0fb1bd,62c53918c3820a560e4cde5d,2022-07-06_09h41.56.563,Colour_Asymmetry_Pilot,2022.1.3,Win32,60.07449237,62c50e9c1127f2cd403a315f,0,138,138,96,1,onetwo,,,,,,,,,,,,,,,,,,,,,,,,,,,,,,,,,,,,,,,,,,,,,,,,,,,,,,,,,,,,,,,,,,,,,,,,,,,,,,,,,,,,,,,,,,,,,,,,,,,,,,,,,,,,,,,,,,,,,,,,,,,,,,,,,,,,,,,,,,,,,,,,,,,,,,,,,,,,,,
,,,,,,5fbaab6752b13f885c0fb1bd,62c53918c3820a560e4cde5d,2022-07-06_09h41.56.563,Colour_Asymmetry_Pilot,2022.1.3,Win32,60.07449237,62c50e9c1127f2cd403a315f,0,139,139,133,1,threefour,,,,,,,,,,,,,,,,,,,,,,,,,,,,,,,,,,,,,,,,,,,,,,,,,,,,,,,,,,,,,,,,,,,,,,,,,,,,,,,,,,,,,,,,,,,,,,,,,,,,,,,,,,,,,,,,,,,,,,,,,,,,,,,,,,,,,,,,,,,,,,,,,,,,,,,,,,,,,,
,,,,,,5fbaab6752b13f885c0fb1bd,62c53918c3820a560e4cde5d,2022-07-06_09h41.56.563,Colour_Asymmetry_Pilot,2022.1.3,Win32,60.07449237,62c50e9c1127f2cd403a315f,0,140,140,75,1,twofour,,,,,,,,,,,,,,,,,,,,,,,,,,,,,,,,,,,,,,,,,,,,,,,,,,,,,,,,,,,,,,,,,,,,,,,,,,,,,,,,,,,,,,,,,,,,,,,,,,,,,,,,,,,,,,,,,,,,,,,,,,,,,,,,,,,,,,,,,,,,,,,,,,,,,,,,,,,,,,
,,,,,,5fbaab6752b13f885c0fb1bd,62c53918c3820a560e4cde5d,2022-07-06_09h41.56.563,Colour_Asymmetry_Pilot,2022.1.3,Win32,60.07449237,62c50e9c1127f2cd403a315f,0,141,141,99,1,twofour,,,,,,,,,,,,,,,,,,,,,,,,,,,,,,,,,,,,,,,,,,,,,,,,,,,,,,,,,,,,,,,,,,,,,,,,,,,,,,,,,,,,,,,,,,,,,,,,,,,,,,,,,,,,,,,,,,,,,,,,,,,,,,,,,,,,,,,,,,,,,,,,,,,,,,,,,,,,,,
,,,,,,5fbaab6752b13f885c0fb1bd,62c53918c3820a560e4cde5d,2022-07-06_09h41.56.563,Colour_Asymmetry_Pilot,2022.1.3,Win32,60.07449237,62c50e9c1127f2cd403a315f,0,142,142,101,1,threefour,,,,,,,,,,,,,,,,,,,,,,,,,,,,,,,,,,,,,,,,,,,,,,,,,,,,,,,,,,,,,,,,,,,,,,,,,,,,,,,,,,,,,,,,,,,,,,,,,,,,,,,,,,,,,,,,,,,,,,,,,,,,,,,,,,,,,,,,,,,,,,,,,,,,,,,,,,,,,,
,,,,,,5fbaab6752b13f885c0fb1bd,62c53918c3820a560e4cde5d,2022-07-06_09h41.56.563,Colour_Asymmetry_Pilot,2022.1.3,Win32,60.07449237,62c50e9c1127f2cd403a315f,0,143,143,132,1,threeone,,,,,,,,,,,,,,,,,,,,,,,,,,,,,,,,,,,,,,,,,,,,,,,,,,,,,,,,,,,,,,,,,,,,,,,,,,,,,,,,,,,,,,,,,,,,,,,,,,,,,,,,,,,,,,,,,,,,,,,,,,,,,,,,,,,,,,,,,,,,,,,,,,,,,,,,,,,,,,
,,,,,,5fbaab6752b13f885c0fb1bd,62c53918c3820a560e4cde5d,2022-07-06_09h41.56.563,Colour_Asymmetry_Pilot,2022.1.3,Win32,60.07449237,62c50e9c1127f2cd403a315f,0,144,144,87,1,fourthree,,,,,,,,,,,,,,,,,,,,,,,,,,,,,,,,,,,,,,,,,,,,,,,,,,,,,,,,,,,,,,,,,,,,,,,,,,,,,,,,,,,,,,,,,,,,,,,,,,,,,,,,,,,,,,,,,,,,,,,,,,,,,,,,,,,,,,,,,,,,,,,,,,,,,,,,,,,,,,
,,,,,,5fbaab6752b13f885c0fb1bd,62c53918c3820a560e4cde5d,2022-07-06_09h41.56.563,Colour_Asymmetry_Pilot,2022.1.3,Win32,60.07449237,62c50e9c1127f2cd403a315f,0,145,145,106,1,twoone,,,,,,,,,,,,,,,,,,,,,,,,,,,,,,,,,,,,,,,,,,,,,,,,,,,,,,,,,,,,,,,,,,,,,,,,,,,,,,,,,,,,,,,,,,,,,,,,,,,,,,,,,,,,,,,,,,,,,,,,,,,,,,,,,,,,,,,,,,,,,,,,,,,,,,,,,,,,,,
,,,,,,5fbaab6752b13f885c0fb1bd,62c53918c3820a560e4cde5d,2022-07-06_09h41.56.563,Colour_Asymmetry_Pilot,2022.1.3,Win32,60.07449237,62c50e9c1127f2cd403a315f,0,146,146,32,1,onetwo,,,,,,,,,,,,,,,,,,,,,,,,,,,,,,,,,,,,,,,,,,,,,,,,,,,,,,,,,,,,,,,,,,,,,,,,,,,,,,,,,,,,,,,,,,,,,,,,,,,,,,,,,,,,,,,,,,,,,,,,,,,,,,,,,,,,,,,,,,,,,,,,,,,,,,,,,,,,,,
,,,,,,5fbaab6752b13f885c0fb1bd,62c53918c3820a560e4cde5d,2022-07-06_09h41.56.563,Colour_Asymmetry_Pilot,2022.1.3,Win32,60.07449237,62c50e9c1127f2cd403a315f,0,147,147,36,1,threeone,,,,,,,,,,,,,,,,,,,,,,,,,,,,,,,,,,,,,,,,,,,,,,,,,,,,,,,,,,,,,,,,,,,,,,,,,,,,,,,,,,,,,,,,,,,,,,,,,,,,,,,,,,,,,,,,,,,,,,,,,,,,,,,,,,,,,,,,,,,,,,,,,,,,,,,,,,,,,,
,,,,,,5fbaab6752b13f885c0fb1bd,62c53918c3820a560e4cde5d,2022-07-06_09h41.56.563,Colour_Asymmetry_Pilot,2022.1.3,Win32,60.07449237,62c50e9c1127f2cd403a315f,0,148,148,80,1,onetwo,,,,,,,,,,,,,,,,,,,,,,,,,,,,,,,,,,,,,,,,,,,,,,,,,,,,,,,,,,,,,,,,,,,,,,,,,,,,,,,,,,,,,,,,,,,,,,,,,,,,,,,,,,,,,,,,,,,,,,,,,,,,,,,,,,,,,,,,,,,,,,,,,,,,,,,,,,,,,,
,,,,,,5fbaab6752b13f885c0fb1bd,62c53918c3820a560e4cde5d,2022-07-06_09h41.56.563,Colour_Asymmetry_Pilot,2022.1.3,Win32,60.07449237,62c50e9c1127f2cd403a315f,0,149,149,91,1,twofour,,,,,,,,,,,,,,,,,,,,,,,,,,,,,,,,,,,,,,,,,,,,,,,,,,,,,,,,,,,,,,,,,,,,,,,,,,,,,,,,,,,,,,,,,,,,,,,,,,,,,,,,,,,,,,,,,,,,,,,,,,,,,,,,,,,,,,,,,,,,,,,,,,,,,,,,,,,,,,
,,,,,,5fbaab6752b13f885c0fb1bd,62c53918c3820a560e4cde5d,2022-07-06_09h41.56.563,Colour_Asymmetry_Pilot,2022.1.3,Win32,60.07449237,62c50e9c1127f2cd403a315f,0,150,150,11,1,twofour,,,,,,,,,,,,,,,,,,,,,,,,,,,,,,,,,,,,,,,,,,,,,,,,,,,,,,,,,,,,,,,,,,,,,,,,,,,,,,,,,,,,,,,,,,,,,,,,,,,,,,,,,,,,,,,,,,,,,,,,,,,,,,,,,,,,,,,,,,,,,,,,,,,,,,,,,,,,,,
,,,,,,5fbaab6752b13f885c0fb1bd,62c53918c3820a560e4cde5d,2022-07-06_09h41.56.563,Colour_Asymmetry_Pilot,2022.1.3,Win32,60.07449237,62c50e9c1127f2cd403a315f,0,151,151,41,1,onethree,,,,,,,,,,,,,,,,,,,,,,,,,,,,,,,,,,,,,,,,,,,,,,,,,,,,,,,,,,,,,,,,,,,,,,,,,,,,,,,,,,,,,,,,,,,,,,,,,,,,,,,,,,,,,,,,,,,,,,,,,,,,,,,,,,,,,,,,,,,,,,,,,,,,,,,,,,,,,,
,,,,,,5fbaab6752b13f885c0fb1bd,62c53918c3820a560e4cde5d,2022-07-06_09h41.56.563,Colour_Asymmetry_Pilot,2022.1.3,Win32,60.07449237,62c50e9c1127f2cd403a315f,0,152,152,152,1,onetwo,,,,,,,,,,,,,,,,,,,,,,,,,,,,,,,,,,,,,,,,,,,,,,,,,,,,,,,,,,,,,,,,,,,,,,,,,,,,,,,,,,,,,,,,,,,,,,,,,,,,,,,,,,,,,,,,,,,,,,,,,,,,,,,,,,,,,,,,,,,,,,,,,,,,,,,,,,,,,,
,,,,,,5fbaab6752b13f885c0fb1bd,62c53918c3820a560e4cde5d,2022-07-06_09h41.56.563,Colour_Asymmetry_Pilot,2022.1.3,Win32,60.07449237,62c50e9c1127f2cd403a315f,0,153,153,139,1,twofour,,,,,,,,,,,,,,,,,,,,,,,,,,,,,,,,,,,,,,,,,,,,,,,,,,,,,,,,,,,,,,,,,,,,,,,,,,,,,,,,,,,,,,,,,,,,,,,,,,,,,,,,,,,,,,,,,,,,,,,,,,,,,,,,,,,,,,,,,,,,,,,,,,,,,,,,,,,,,,
,,,,,,5fbaab6752b13f885c0fb1bd,62c53918c3820a560e4cde5d,2022-07-06_09h41.56.563,Colour_Asymmetry_Pilot,2022.1.3,Win32,60.07449237,62c50e9c1127f2cd403a315f,0,154,154,38,1,fourtwo,,,,,,,,,,,,,,,,,,,,,,,,,,,,,,,,,,,,,,,,,,,,,,,,,,,,,,,,,,,,,,,,,,,,,,,,,,,,,,,,,,,,,,,,,,,,,,,,,,,,,,,,,,,,,,,,,,,,,,,,,,,,,,,,,,,,,,,,,,,,,,,,,,,,,,,,,,,,,,
,,,,,,5fbaab6752b13f885c0fb1bd,62c53918c3820a560e4cde5d,2022-07-06_09h41.56.563,Colour_Asymmetry_Pilot,2022.1.3,Win32,60.07449237,62c50e9c1127f2cd403a315f,0,155,155,63,1,fourthree,,,,,,,,,,,,,,,,,,,,,,,,,,,,,,,,,,,,,,,,,,,,,,,,,,,,,,,,,,,,,,,,,,,,,,,,,,,,,,,,,,,,,,,,,,,,,,,,,,,,,,,,,,,,,,,,,,,,,,,,,,,,,,,,,,,,,,,,,,,,,,,,,,,,,,,,,,,,,,
,,,,,,5fbaab6752b13f885c0fb1bd,62c53918c3820a560e4cde5d,2022-07-06_09h41.56.563,Colour_Asymmetry_Pilot,2022.1.3,Win32,60.07449237,62c50e9c1127f2cd403a315f,0,156,156,143,1,fourthree,,,,,,,,,,,,,,,,,,,,,,,,,,,,,,,,,,,,,,,,,,,,,,,,,,,,,,,,,,,,,,,,,,,,,,,,,,,,,,,,,,,,,,,,,,,,,,,,,,,,,,,,,,,,,,,,,,,,,,,,,,,,,,,,,,,,,,,,,,,,,,,,,,,,,,,,,,,,,,
,,,,,,5fbaab6752b13f885c0fb1bd,62c53918c3820a560e4cde5d,2022-07-06_09h41.56.563,Colour_Asymmetry_Pilot,2022.1.3,Win32,60.07449237,62c50e9c1127f2cd403a315f,0,157,157,112,1,onetwo,,,,,,,,,,,,,,,,,,,,,,,,,,,,,,,,,,,,,,,,,,,,,,,,,,,,,,,,,,,,,,,,,,,,,,,,,,,,,,,,,,,,,,,,,,,,,,,,,,,,,,,,,,,,,,,,,,,,,,,,,,,,,,,,,,,,,,,,,,,,,,,,,,,,,,,,,,,,,,
,,,,,,5fbaab6752b13f885c0fb1bd,62c53918c3820a560e4cde5d,2022-07-06_09h41.56.563,Colour_Asymmetry_Pilot,2022.1.3,Win32,60.07449237,62c50e9c1127f2cd403a315f,0,158,158,44,1,threeone,,,,,,,,,,,,,,,,,,,,,,,,,,,,,,,,,,,,,,,,,,,,,,,,,,,,,,,,,,,,,,,,,,,,,,,,,,,,,,,,,,,,,,,,,,,,,,,,,,,,,,,,,,,,,,,,,,,,,,,,,,,,,,,,,,,,,,,,,,,,,,,,,,,,,,,,,,,,,,
,,,,,,5fbaab6752b13f885c0fb1bd,62c53918c3820a560e4cde5d,2022-07-06_09h41.56.563,Colour_Asymmetry_Pilot,2022.1.3,Win32,60.07449237,62c50e9c1127f2cd403a315f,0,159,159,1,1,onethree,,,,,,,,,,,,,,,,,,,,,,,,,,,,,,,,,,,,,,,,,,,,,,,,,,,,,,,,,,,,,,,,,,,,,,,,,,,,,,,,,,,,,,,,,,,,,,,,,,,,,,,,,,,,,,,,,,,,,,,,,,,,,,,,,,,,,,,,,,,,,,,,,,,,,,,,,,,,,,
,,,,,,5fbaab6752b13f885c0fb1bd,62c53918c3820a560e4cde5d,2022-07-06_09h41.56.563,Colour_Asymmetry_Pilot,2022.1.3,Win32,60.07449237,62c50e9c1127f2cd403a315f,0,160,160,89,1,onethree,,,,,,,,,,,,,,,,,,,,,,,,,,,,,,,,,,,,,,,,,,,,,,,,,,,,,,,,,,,,,,,,,,,,,,,,,,,,,,,,,,,,,,,,,,,,,,,,,,,,,,,,,,,,,,,,,,,,,,,,,,,,,,,,,,,,,,,,,,,,,,,,,,,,,,,,,,,,,,
,,,,,,5fbaab6752b13f885c0fb1bd,62c53918c3820a560e4cde5d,2022-07-06_09h41.56.563,Colour_Asymmetry_Pilot,2022.1.3,Win32,60.07449237,62c50e9c1127f2cd403a315f,0,161,161,40,1,onetwo,,,,,,,,,,,,,,,,,,,,,,,,,,,,,,,,,,,,,,,,,,,,,,,,,,,,,,,,,,,,,,,,,,,,,,,,,,,,,,,,,,,,,,,,,,,,,,,,,,,,,,,,,,,,,,,,,,,,,,,,,,,,,,,,,,,,,,,,,,,,,,,,,,,,,,,,,,,,,,
,,,,,,5fbaab6752b13f885c0fb1bd,62c53918c3820a560e4cde5d,2022-07-06_09h41.56.563,Colour_Asymmetry_Pilot,2022.1.3,Win32,60.07449237,62c50e9c1127f2cd403a315f,,,,,,,space,4.6368,space,23.4251,space,31.504,space,8.3248,space,1.6978,space,5.1953,"[0.12939999999999996,-0.2864,0.3253999999999999]",twoone,"[-0.4746,-0.0354000000000001,0.5449999999999999]",4,34.7168,64,148.266571,1,0,0,response1disk_5,-6.399902344,-7.466674805,1,0,0,rectangle_8,-6.399902344,-7.466674805,1,0,0,3,-6.399902344,-7.466674805,1,0,0,0,0,0,0,1,,,,,,,,,,,,,,,,,,,,,,,,,,,,,,,,,,,,,,,,,,,,,,,,,,,,,,,,,,,,,,,,,,,,,,,,,,,,,,,,,,,,,,,,,,,,,,,,,,,,,,,,,,,,,,,,,
,,,,,,5fbaab6752b13f885c0fb1bd,62c53918c3820a560e4cde5d,2022-07-06_09h41.56.563,Colour_Asymmetry_Pilot,2022.1.3,Win32,60.07449237,62c50e9c1127f2cd403a315f,,,,,,,,,,,,,,,,,,,"[0.34099999999999997,0.5841999999999998,-0.9844]",onetwo,"[0.9842,0.7409999999999999,-0.6628000000000001]",3,7.3843,142.9333496,39.46655273,1,0,0,response1disk_5,6.400024414,2.133300781,1,0,0,rectangle_8,6.400024414,2.133300781,1,0,0,3,6.400024414,2.133300781,1,0,0,1,0,1,0,1,,,,,,,,,,,,,,,,,,,,,,,,,,,,,,,,,,,,,,,,,,,,,,,,,,,,,,,,,,,,,,,,,,,,,,,,,,,,,,,,,,,,,,,,,,,,,,,,,,,,,,,,,,,,,,,,,
,,,,,,5fbaab6752b13f885c0fb1bd,62c53918c3820a560e4cde5d,2022-07-06_09h41.56.563,Colour_Asymmetry_Pilot,2022.1.3,Win32,60.07449237,62c50e9c1127f2cd403a315f,,,,,,,,,,,,,,,,,,,"[-0.9138,-0.5296000000000001,-0.5529999999999999]",twoone,"[-0.9844,-0.9688,-0.9922]",-3,5.2862,-97.06652832,45.86657715,1,0,0,response7disk_5,6.400024414,0,1,0,0,rectangle_8,128,55.46655273,1,0,0,3,2.133422852,1.066650391,1,0,0,2,0,2,0,1,response1disk_7,6,rectangle_4,,,,,,,,,,,,,,,,,,,,,,,,,,,,,,,,,,,,,,,,,,,,,,,,,,,,,,,,,,,,,,,,,,,,,,,,,,,,,,,,,,,,,,,,,,,,,,,,,,,,,,,,,,,,,,
,,,,,,5fbaab6752b13f885c0fb1bd,62c53918c3820a560e4cde5d,2022-07-06_09h41.56.563,Colour_Asymmetry_Pilot,2022.1.3,Win32,60.07449237,62c50e9c1127f2cd403a315f,,,,,,,,,,,,,,,,,,,"[0.30180000000000007,-0.7884,-0.9844]",twoone,"[0.7646000000000002,0.07440000000000002,0.2704]",2,4.0701,115.2001953,-53.33343506,1,0,0,response3disk_5,-6.399902344,0,1,0,0,rectangle_8,-6.399902344,0,1,0,0,3,-6.399902344,0,1,0,0,3,0,3,0,1,,,,,,,,,,,,,,,,,,,,,,,,,,,,,,,,,,,,,,,,,,,,,,,,,,,,,,,,,,,,,,,,,,,,,,,,,,,,,,,,,,,,,,,,,,,,,,,,,,,,,,,,,,,,,,,,,
,,,,,,5fbaab6752b13f885c0fb1bd,62c53918c3820a560e4cde5d,2022-07-06_09h41.56.563,Colour_Asymmetry_Pilot,2022.1.3,Win32,60.07449237,62c50e9c1127f2cd403a315f,,,,,,,,,,,,,,,,,,,"[-0.9766,-0.6472,0.07440000000000002]",fourthree,"[0.9763999999999999,-0.1137999999999999,-0.6314]",-4,1.7083,-40.53314209,85.33328247,1,0,0,response7disk_5,8.533569336,-1.066772461,1,0,0,rectangle_8,8.533569336,-1.066772461,1,0,0,3,8.533569336,-1.066772461,1,0,0,4,0,4,0,1,,,,,,,,,,,,,,,,,,,,,,,,,,,,,,,,,,,,,,,,,,,,,,,,,,,,,,,,,,,,,,,,,,,,,,,,,,,,,,,,,,,,,,,,,,,,,,,,,,,,,,,,,,,,,,,,,
,,,,,,5fbaab6752b13f885c0fb1bd,62c53918c3820a560e4cde5d,2022-07-06_09h41.56.563,Colour_Asymmetry_Pilot,2022.1.3,Win32,60.07449237,62c50e9c1127f2cd403a315f,,,,,,,,,,,,,,,,,,,"[0.9686000000000001,0.3802000000000001,0.19999999999999996]",onetwo,"[0.12939999999999996,-0.2864,0.3253999999999999]",-3,2.4714,-108.7998657,56.5333252,1,0,0,response7disk_5,7.466796875,0,1,0,0,rectangle_8,7.466796875,0,1,0,0,3,7.466796875,0,1,0,0,5,0,5,0,1,,,,,,,,,,,,,,,,,,,,,,,,,,,,,,,,,,,,,,,,,,,,,,,,,,,,,,,,,,,,,,,,,,,,,,,,,,,,,,,,,,,,,,,,,,,,,,,,,,,,,,,,,,,,,,,,,
,,,,,,5fbaab6752b13f885c0fb1bd,62c53918c3820a560e4cde5d,2022-07-06_09h41.56.563,Colour_Asymmetry_Pilot,2022.1.3,Win32,60.07449237,62c50e9c1127f2cd403a315f,,,,,,,,,,,,,,,,,,,"[0.9763999999999999,0.30979999999999985,-0.6786]",twofour,"[-0.9766,-0.34920000000000007,0.2156]",-4,1.4224,-59.73321533,155.7332764,1,0,0,response7disk_5,-11.73321533,1.066650391,1,0,0,rectangle_8,-11.73321533,1.066650391,1,0,0,3,-11.73321533,1.066650391,1,0,0,6,0,6,0,1,,,,,,,,,,,,,,,,,,,,,,,,,,,,,,,,,,,,,,,,,,,,,,,,,,,,,,,,,,,,,,,,,,,,,,,,,,,,,,,,,,,,,,,,,,,,,,,,,,,,,,,,,,,,,,,,,
,,,,,,5fbaab6752b13f885c0fb1bd,62c53918c3820a560e4cde5d,2022-07-06_09h41.56.563,Colour_Asymmetry_Pilot,2022.1.3,Win32,60.07449237,62c50e9c1127f2cd403a315f,,,,,,,,,,,,,,,,,,,,fourtwo,,-4,2.548,,,,,,,,,,,,,,,,,,,,,,,,,,,,,,,,space,2.8965,"[0.0351999999999999,0.41159999999999997,0.0038000000000000256]","[0.8115999999999999,-0.0040000000000000036,-0.09819999999999995]",-28.79986572,83.19995117,1,0,0,response7disk,-4.266540527,-16.00012207,1,0,0,rectangle,-4.266540527,-16.00012207,1,0,0,,2,0.0015,0,-4.266540527,-16.00012207,1,0,0,0,0,0,18,1,18,first,,,,,,,,,,,,,,,,,,,,,,,,,,,,,,,,,,,,,,,,,,,,,,,,,,,,,,,,,,,,,,,,,,,,,,,,,
,,,,,,5fbaab6752b13f885c0fb1bd,62c53918c3820a560e4cde5d,2022-07-06_09h41.56.563,Colour_Asymmetry_Pilot,2022.1.3,Win32,60.07449237,62c50e9c1127f2cd403a315f,,,,,,,,,,,,,,,,,,,,threeone,,-4,3.1213,,,,,,,,,,,,,,,,,,,,,,,,,,,,,,,,,,"[-0.011800000000000033,-0.906,-0.45100000000000007]","[-0.30200000000000005,0.14500000000000002,0.2784]",-78.93322754,85.33328247,1,0,0,response7disk,-2.133300781,1.066650391,1,0,0,rectangle,-2.133300781,1.066650391,1,0,0,,3,0.001,0,-2.133300781,1.066650391,1,0,0,0,1,1,100,1,19,second,,,,,,,,,,,,,,,,,,,,,,,,,,,,,,,,,,,,,,,,,,,,,,,,,,,,,,,,,,,,,,,,,,,,,,,,,
,,,,,,5fbaab6752b13f885c0fb1bd,62c53918c3820a560e4cde5d,2022-07-06_09h41.56.563,Colour_Asymmetry_Pilot,2022.1.3,Win32,60.07449237,62c50e9c1127f2cd403a315f,,,,,,,,,,,,,,,,,,,,twoone,,-3,3.3809,,,,,,,,,,,,,,,,,,,,,,,,,,,,,,,,,,"[-0.34920000000000007,-0.702,-0.5216]","[-0.9688,-0.7412000000000001,-0.4902000000000001]",-98.13330078,43.73321533,1,0,0,response7disk,7.466796875,0,1,0,0,rectangle,7.466796875,0,1,0,0,,2,0.002,0,7.466796875,0,1,0,0,0,2,2,33,1,33,first,,,,,,,,,,,,,,,,,,,,,,,,,,,,,,,,,,,,,,,,,,,,,,,,,,,,,,,,,,,,,,,,,,,,,,,,,
,,,,,,5fbaab6752b13f885c0fb1bd,62c53918c3820a560e4cde5d,2022-07-06_09h41.56.563,Colour_Asymmetry_Pilot,2022.1.3,Win32,60.07449237,62c50e9c1127f2cd403a315f,,,,,,,,,,,,,,,,,,,,fourthree,,1,6.8271,,,,,,,,,,,,,,,,,,,,,,,,,,,,,,,,,,"[0.9686000000000001,0.5763999999999998,0.11359999999999992]","[0.9372,0.20779999999999998,0.2704]",54.40002441,-138.666687,1,0,0,response3disk,-13.86657715,10.66656494,1,0,0,rectangle,-13.86657715,10.66656494,1,0,0,,1,0.0007,0,-13.86657715,10.66656494,1,0,0,0,3,3,82,1,1,second,,,,,,,,,,,,,,,,,,,,,,,,,,,,,,,,,,,,,,,,,,,,,,,,,,,,,,,,,,,,,,,,,,,,,,,,,
,,,,,,5fbaab6752b13f885c0fb1bd,62c53918c3820a560e4cde5d,2022-07-06_09h41.56.563,Colour_Asymmetry_Pilot,2022.1.3,Win32,60.07449237,62c50e9c1127f2cd403a315f,,,,,,,,,,,,,,,,,,,,fourtwo,,-2,2.0148,,,,,,,,,,,,,,,,,,,,,,,,,,,,,,,,,,"[-0.6235999999999999,-0.6786,-0.08239999999999992]","[-0.17659999999999998,-0.2864,-0.8354]",-102.3999023,-39.4666748,1,0,0,response5disk,-20.26654053,-5.333435059,1,0,0,rectangle,-20.26654053,-5.333435059,1,0,0,,2,0.0008,0,-20.26654053,-5.333435059,1,0,0,0,4,4,47,1,47,first,,,,,,,,,,,,,,,,,,,,,,,,,,,,,,,,,,,,,,,,,,,,,,,,,,,,,,,,,,,,,,,,,,,,,,,,,
,,,,,,5fbaab6752b13f885c0fb1bd,62c53918c3820a560e4cde5d,2022-07-06_09h41.56.563,Colour_Asymmetry_Pilot,2022.1.3,Win32,60.07449237,62c50e9c1127f2cd403a315f,,,,,,,,,,,,,,,,,,,,fourthree,,-3,2.056,,,,,,,,,,,,,,,,,,,,,,,,,,,,,,,,,,"[-0.5688,-0.08239999999999992,-0.1844]","[0.18419999999999992,-0.4276,-0.404]",-98.13330078,45.86657715,1,0,0,response7disk,-2.133300781,2.133300781,1,0,0,rectangle,-2.133300781,2.133300781,1,0,0,,1,0.0007,0,-2.133300781,2.133300781,1,0,0,0,5,5,14,1,14,first,,,,,,,,,,,,,,,,,,,,,,,,,,,,,,,,,,,,,,,,,,,,,,,,,,,,,,,,,,,,,,,,,,,,,,,,,
,,,,,,5fbaab6752b13f885c0fb1bd,62c53918c3820a560e4cde5d,2022-07-06_09h41.56.563,Colour_Asymmetry_Pilot,2022.1.3,Win32,60.07449237,62c50e9c1127f2cd403a315f,,,,,,,,,,,,,,,,,,,,threefour,,-4,4.5129,,,,,,,,,,,,,,,,,,,,,,,,,,,,,,,,,,"[0.9686000000000001,0.5763999999999998,0.11359999999999992]","[-0.10599999999999998,-0.10599999999999998,0.5841999999999998]",-39.46655273,94.93328857,1,0,0,response7disk,6.400024414,-1.066772461,1,0,0,rectangle,6.400024414,-1.066772461,1,0,0,,3,0.0007,0,6.400024414,-1.066772461,1,0,0,0,6,6,59,1,59,first,,,,,,,,,,,,,,,,,,,,,,,,,,,,,,,,,,,,,,,,,,,,,,,,,,,,,,,,,,,,,,,,,,,,,,,,,
,,,,,,5fbaab6752b13f885c0fb1bd,62c53918c3820a560e4cde5d,2022-07-06_09h41.56.563,Colour_Asymmetry_Pilot,2022.1.3,Win32,60.07449237,62c50e9c1127f2cd403a315f,,,,,,,,,,,,,,,,,,,,onetwo,,-3,6.2208,,,,,,,,,,,,,,,,,,,,,,,,,,,,,,,,,,"[-0.6942,-0.7648,-0.12959999999999994]","[-0.7412000000000001,-0.08239999999999992,-0.6864]",-95.99987793,73.59991455,1,0,0,response7disk,2.133422852,3.199890137,1,0,0,rectangle,2.133422852,3.199890137,1,0,0,,3,0.0003,0,2.133422852,3.199890137,1,0,0,0,7,7,68,1,68,first,,,,,,,,,,,,,,,,,,,,,,,,,,,,,,,,,,,,,,,,,,,,,,,,,,,,,,,,,,,,,,,,,,,,,,,,,
,,,,,,5fbaab6752b13f885c0fb1bd,62c53918c3820a560e4cde5d,2022-07-06_09h41.56.563,Colour_Asymmetry_Pilot,2022.1.3,Win32,60.07449237,62c50e9c1127f2cd403a315f,,,,,,,,,,,,,,,,,,,,twoone,,-4,0.7993,,,,,,,,,,,,,,,,,,,,,,,,,,,,,,,,,,"[0.34099999999999997,0.12939999999999996,-0.9766]","[-0.48240000000000005,0.3175999999999999,0.2156]",-57.59997559,82.13327026,1,0,0,response7disk,1.066894531,-1.066772461,1,0,0,rectangle,1.066894531,-1.066772461,1,0,0,,3,0.0003,0,1.066894531,-1.066772461,1,0,0,0,8,8,32,1,32,first,,,,,,,,,,,,,,,,,,,,,,,,,,,,,,,,,,,,,,,,,,,,,,,,,,,,,,,,,,,,,,,,,,,,,,,,,
,,,,,,5fbaab6752b13f885c0fb1bd,62c53918c3820a560e4cde5d,2022-07-06_09h41.56.563,Colour_Asymmetry_Pilot,2022.1.3,Win32,60.07449237,62c50e9c1127f2cd403a315f,,,,,,,,,,,,,,,,,,,,threefour,,-3,0.9834,,,,,,,,,,,,,,,,,,,,,,,,,,,,,,,,,,"[0.6547999999999998,-0.043199999999999905,-0.011800000000000033]","[-0.9766,-0.34920000000000007,0.2156]",-116.2665405,53.33325195,1,0,0,response7disk,1.066894531,1.066650391,1,0,0,rectangle,1.066894531,1.066650391,1,0,0,,1,0.0007,0,1.066894531,1.066650391,1,0,0,0,9,9,37,1,37,first,,,,,,,,,,,,,,,,,,,,,,,,,,,,,,,,,,,,,,,,,,,,,,,,,,,,,,,,,,,,,,,,,,,,,,,,,
,,,,,,5fbaab6752b13f885c0fb1bd,62c53918c3820a560e4cde5d,2022-07-06_09h41.56.563,Colour_Asymmetry_Pilot,2022.1.3,Win32,60.07449237,62c50e9c1127f2cd403a315f,,,,,,,,,,,,,,,,,,,,twofour,,2,3.5798,,,,,,,,,,,,,,,,,,,,,,,,,,,,,,,,,,"[-0.5922000000000001,-0.7492000000000001,-0.5296000000000001]","[-0.8982,-0.37259999999999993,0.2784]",98.13354492,-87.4666748,1,0,0,response3disk,0,-12.80010986,1,0,0,rectangle,0,-12.80010986,1,0,0,,3,0.0007,0,0,-12.80010986,1,0,0,0,10,10,53,1,53,first,,,,,,,,,,,,,,,,,,,,,,,,,,,,,,,,,,,,,,,,,,,,,,,,,,,,,,,,,,,,,,,,,,,,,,,,,
,,,,,,5fbaab6752b13f885c0fb1bd,62c53918c3820a560e4cde5d,2022-07-06_09h41.56.563,Colour_Asymmetry_Pilot,2022.1.3,Win32,60.07449237,62c50e9c1127f2cd403a315f,,,,,,,,,,,,,,,,,,,,onetwo,,1,1.2328,,,,,,,,,,,,,,,,,,,,,,,,,,,,,,,,,,"[0.40379999999999994,0.09000000000000008,0.44300000000000006]","[-0.38039999999999996,-0.4276,-0.1452]",42.66674805,-116.2667847,1,0,0,response3disk,-4.266540527,6.399902344,1,0,0,rectangle,-4.266540527,6.399902344,1,0,0,,2,0.0008,0,-4.266540527,6.399902344,1,0,0,0,11,11,24,1,24,first,,,,,,,,,,,,,,,,,,,,,,,,,,,,,,,,,,,,,,,,,,,,,,,,,,,,,,,,,,,,,,,,,,,,,,,,,
,,,,,,5fbaab6752b13f885c0fb1bd,62c53918c3820a560e4cde5d,2022-07-06_09h41.56.563,Colour_Asymmetry_Pilot,2022.1.3,Win32,60.07449237,62c50e9c1127f2cd403a315f,,,,,,,,,,,,,,,,,,,,twofour,,-1,1.5566,,,,,,,,,,,,,,,,,,,,,,,,,,,,,,,,,,"[-0.9216,-0.5529999999999999,-0.3962]","[-0.24719999999999998,0.5213999999999999,-0.12959999999999994]",-44.79986572,-129.0667725,1,0,0,response5disk,16,0,1,0,0,rectangle,100.2667236,-64.00012207,1,0,0,2,2,3.4378,1,-6.399902344,-4.266784668,1,0,0,0,12,12,161,1,80,second,response3disk_3,rectangle,,,,,,,,,,,,,,,,,,,,,,,,,,,,,,,,,,,,,,,,,,,,,,,,,,,,,,,,,,,,,,,,,,,,,,,
,,,,,,5fbaab6752b13f885c0fb1bd,62c53918c3820a560e4cde5d,2022-07-06_09h41.56.563,Colour_Asymmetry_Pilot,2022.1.3,Win32,60.07449237,62c50e9c1127f2cd403a315f,,,,,,,,,,,,,,,,,,,,fourthree,,-2,2.1314,,,,,,,,,,,,,,,,,,,,,,,,,,,,,,,,,,"[-0.8198,-0.5138,-0.7492000000000001]","[0.5449999999999999,-0.31000000000000005,-0.0354000000000001]",-98.13330078,-61.86669922,1,0,0,response5disk,14.93334961,3.199890137,1,0,0,rectangle,14.93334961,3.199890137,1,0,0,2,1,0.001,0,14.93334961,3.199890137,1,0,0,0,13,13,137,1,56,second,,,,,,,,,,,,,,,,,,,,,,,,,,,,,,,,,,,,,,,,,,,,,,,,,,,,,,,,,,,,,,,,,,,,,,,,,
