trials.thisRepN,trials.thisTrialN,trials.thisN,trials.thisIndex,trials.ran,Colourcodes,participant,session,date,expName,psychopyVersion,OS,frameRate,study_id,trials_4.thisRepN,trials_4.thisTrialN,trials_4.thisN,trials_4.thisIndex,trials_4.ran,StimulusPos,key_resp.keys,key_resp.rt,key_resp_2.keys,key_resp_2.rt,key_resp_15.keys,key_resp_15.rt,key_resp_17.keys,key_resp_17.rt,key_resp_9.keys,key_resp_9.rt,key_resp_10.keys,key_resp_10.rt,Circle1_col,Ecc,Circle2_col,similarity,response_time,mouse_5.x,mouse_5.y,mouse_5.leftButton,mouse_5.midButton,mouse_5.rightButton,mouse_5.clicked_name,mouse_10.x,mouse_10.y,mouse_10.leftButton,mouse_10.midButton,mouse_10.rightButton,mouse_10.clicked_name,mouse_7.x,mouse_7.y,mouse_7.leftButton,mouse_7.midButton,mouse_7.rightButton,catchnumberprac,mouse_6.x,mouse_6.y,mouse_6.leftButton,mouse_6.midButton,mouse_6.rightButton,duringprac.thisRepN,duringprac.thisTrialN,duringprac.thisN,duringprac.thisIndex,duringprac.ran,mouse_7.clicked_name,catchprac,mouse_6.clicked_name,key_resp_22.keys,key_resp_22.rt,Circle1_colour,Circle2_colour,mouse.x,mouse.y,mouse.leftButton,mouse.midButton,mouse.rightButton,mouse.clicked_name,mouse_2.x,mouse_2.y,mouse_2.leftButton,mouse_2.midButton,mouse_2.rightButton,mouse_2.clicked_name,mouse_3.x,mouse_3.y,mouse_3.leftButton,mouse_3.midButton,mouse_3.rightButton,catchresponse,catchnumber,response_time_catch,Catch,mouse_11.x,mouse_11.y,mouse_11.leftButton,mouse_11.midButton,mouse_11.rightButton,trials_2.thisRepN,trials_2.thisTrialN,trials_2.thisN,trials_2.thisIndex,trials_2.ran,Colourpair,Temporder,mouse_3.clicked_name,mouse_11.clicked_name,trials_3.thisRepN,trials_3.thisTrialN,trials_3.thisN,trials_3.thisIndex,trials_3.ran,key_resp_instr_Ishi.keys,key_resp_instr_Ishi.rt,Ishi_trial_keyresp.keys,Ishi_textbox.text,Ishi_mouse.x,Ishi_mouse.y,Ishi_mouse.leftButton,Ishi_mouse.midButton,Ishi_mouse.rightButton,Ishi_mouse.clicked_name,Ishi_loop.thisRepN,Ishi_loop.thisTrialN,Ishi_loop.thisN,Ishi_loop.thisIndex,Ishi_loop.ran,imageaddress,textbox.text,mouse_4.x,mouse_4.y,mouse_4.leftButton,mouse_4.midButton,mouse_4.rightButton,mouse_4.clicked_name,textbox_2.text,mouse_8.x,mouse_8.y,mouse_8.leftButton,mouse_8.midButton,mouse_8.rightButton,mouse_8.clicked_name,textbox_3.text,mouse_9.x,mouse_9.y,mouse_9.leftButton,mouse_9.midButton,mouse_9.rightButton,mouse_9.clicked_name,textbox_4.text,mouse_12.x,mouse_12.y,mouse_12.leftButton,mouse_12.midButton,mouse_12.rightButton,mouse_12.clicked_name,textbox_5.text,mouse_13.x,mouse_13.y,mouse_13.leftButton,mouse_13.midButton,mouse_13.rightButton,mouse_13.clicked_name,textbox_6.text,mouse_14.x,mouse_14.y,mouse_14.leftButton,mouse_14.midButton,mouse_14.rightButton,mouse_14.clicked_name,textbox_7.text,mouse_15.x,mouse_15.y,mouse_15.leftButton,mouse_15.midButton,mouse_15.rightButton,mouse_15.clicked_name
0,0,0,54,1,,5ff0a3d22c2ee6fa5d47c312,62c53993dd89adad07129e57,2022-07-06_09h32.35.733,Colour_Asymmetry_Pilot,2022.1.3,Win32,143.1434297,62c50e9c1127f2cd403a315f,,,,,,,,,,,,,,,,,,,,,,,,,,,,,,,,,,,,,,,,,,,,,,,,,,,,,,,,,,,,,,,,,,,,,,,,,,,,,,,,,,,,,,,,,,,,,,,,,,,,,,,,,,,,,,,,,,,,,,,,,,,,,,,,,,,,,,,,,,,,,,,,,,,,,,,,,,,,,,,,,,,
0,1,1,52,1,,5ff0a3d22c2ee6fa5d47c312,62c53993dd89adad07129e57,2022-07-06_09h32.35.733,Colour_Asymmetry_Pilot,2022.1.3,Win32,143.1434297,62c50e9c1127f2cd403a315f,,,,,,,,,,,,,,,,,,,,,,,,,,,,,,,,,,,,,,,,,,,,,,,,,,,,,,,,,,,,,,,,,,,,,,,,,,,,,,,,,,,,,,,,,,,,,,,,,,,,,,,,,,,,,,,,,,,,,,,,,,,,,,,,,,,,,,,,,,,,,,,,,,,,,,,,,,,,,,,,,,,
0,2,2,24,1,,5ff0a3d22c2ee6fa5d47c312,62c53993dd89adad07129e57,2022-07-06_09h32.35.733,Colour_Asymmetry_Pilot,2022.1.3,Win32,143.1434297,62c50e9c1127f2cd403a315f,,,,,,,,,,,,,,,,,,,,,,,,,,,,,,,,,,,,,,,,,,,,,,,,,,,,,,,,,,,,,,,,,,,,,,,,,,,,,,,,,,,,,,,,,,,,,,,,,,,,,,,,,,,,,,,,,,,,,,,,,,,,,,,,,,,,,,,,,,,,,,,,,,,,,,,,,,,,,,,,,,,
0,3,3,3,1,,5ff0a3d22c2ee6fa5d47c312,62c53993dd89adad07129e57,2022-07-06_09h32.35.733,Colour_Asymmetry_Pilot,2022.1.3,Win32,143.1434297,62c50e9c1127f2cd403a315f,,,,,,,,,,,,,,,,,,,,,,,,,,,,,,,,,,,,,,,,,,,,,,,,,,,,,,,,,,,,,,,,,,,,,,,,,,,,,,,,,,,,,,,,,,,,,,,,,,,,,,,,,,,,,,,,,,,,,,,,,,,,,,,,,,,,,,,,,,,,,,,,,,,,,,,,,,,,,,,,,,,
0,4,4,86,1,,5ff0a3d22c2ee6fa5d47c312,62c53993dd89adad07129e57,2022-07-06_09h32.35.733,Colour_Asymmetry_Pilot,2022.1.3,Win32,143.1434297,62c50e9c1127f2cd403a315f,,,,,,,,,,,,,,,,,,,,,,,,,,,,,,,,,,,,,,,,,,,,,,,,,,,,,,,,,,,,,,,,,,,,,,,,,,,,,,,,,,,,,,,,,,,,,,,,,,,,,,,,,,,,,,,,,,,,,,,,,,,,,,,,,,,,,,,,,,,,,,,,,,,,,,,,,,,,,,,,,,,
0,5,5,64,1,,5ff0a3d22c2ee6fa5d47c312,62c53993dd89adad07129e57,2022-07-06_09h32.35.733,Colour_Asymmetry_Pilot,2022.1.3,Win32,143.1434297,62c50e9c1127f2cd403a315f,,,,,,,,,,,,,,,,,,,,,,,,,,,,,,,,,,,,,,,,,,,,,,,,,,,,,,,,,,,,,,,,,,,,,,,,,,,,,,,,,,,,,,,,,,,,,,,,,,,,,,,,,,,,,,,,,,,,,,,,,,,,,,,,,,,,,,,,,,,,,,,,,,,,,,,,,,,,,,,,,,,
0,6,6,49,1,,5ff0a3d22c2ee6fa5d47c312,62c53993dd89adad07129e57,2022-07-06_09h32.35.733,Colour_Asymmetry_Pilot,2022.1.3,Win32,143.1434297,62c50e9c1127f2cd403a315f,,,,,,,,,,,,,,,,,,,,,,,,,,,,,,,,,,,,,,,,,,,,,,,,,,,,,,,,,,,,,,,,,,,,,,,,,,,,,,,,,,,,,,,,,,,,,,,,,,,,,,,,,,,,,,,,,,,,,,,,,,,,,,,,,,,,,,,,,,,,,,,,,,,,,,,,,,,,,,,,,,,
0,7,7,20,1,,5ff0a3d22c2ee6fa5d47c312,62c53993dd89adad07129e57,2022-07-06_09h32.35.733,Colour_Asymmetry_Pilot,2022.1.3,Win32,143.1434297,62c50e9c1127f2cd403a315f,,,,,,,,,,,,,,,,,,,,,,,,,,,,,,,,,,,,,,,,,,,,,,,,,,,,,,,,,,,,,,,,,,,,,,,,,,,,,,,,,,,,,,,,,,,,,,,,,,,,,,,,,,,,,,,,,,,,,,,,,,,,,,,,,,,,,,,,,,,,,,,,,,,,,,,,,,,,,,,,,,,
0,8,8,71,1,,5ff0a3d22c2ee6fa5d47c312,62c53993dd89adad07129e57,2022-07-06_09h32.35.733,Colour_Asymmetry_Pilot,2022.1.3,Win32,143.1434297,62c50e9c1127f2cd403a315f,,,,,,,,,,,,,,,,,,,,,,,,,,,,,,,,,,,,,,,,,,,,,,,,,,,,,,,,,,,,,,,,,,,,,,,,,,,,,,,,,,,,,,,,,,,,,,,,,,,,,,,,,,,,,,,,,,,,,,,,,,,,,,,,,,,,,,,,,,,,,,,,,,,,,,,,,,,,,,,,,,,
0,9,9,53,1,,5ff0a3d22c2ee6fa5d47c312,62c53993dd89adad07129e57,2022-07-06_09h32.35.733,Colour_Asymmetry_Pilot,2022.1.3,Win32,143.1434297,62c50e9c1127f2cd403a315f,,,,,,,,,,,,,,,,,,,,,,,,,,,,,,,,,,,,,,,,,,,,,,,,,,,,,,,,,,,,,,,,,,,,,,,,,,,,,,,,,,,,,,,,,,,,,,,,,,,,,,,,,,,,,,,,,,,,,,,,,,,,,,,,,,,,,,,,,,,,,,,,,,,,,,,,,,,,,,,,,,,
0,10,10,72,1,,5ff0a3d22c2ee6fa5d47c312,62c53993dd89adad07129e57,2022-07-06_09h32.35.733,Colour_Asymmetry_Pilot,2022.1.3,Win32,143.1434297,62c50e9c1127f2cd403a315f,,,,,,,,,,,,,,,,,,,,,,,,,,,,,,,,,,,,,,,,,,,,,,,,,,,,,,,,,,,,,,,,,,,,,,,,,,,,,,,,,,,,,,,,,,,,,,,,,,,,,,,,,,,,,,,,,,,,,,,,,,,,,,,,,,,,,,,,,,,,,,,,,,,,,,,,,,,,,,,,,,,
0,11,11,74,1,,5ff0a3d22c2ee6fa5d47c312,62c53993dd89adad07129e57,2022-07-06_09h32.35.733,Colour_Asymmetry_Pilot,2022.1.3,Win32,143.1434297,62c50e9c1127f2cd403a315f,,,,,,,,,,,,,,,,,,,,,,,,,,,,,,,,,,,,,,,,,,,,,,,,,,,,,,,,,,,,,,,,,,,,,,,,,,,,,,,,,,,,,,,,,,,,,,,,,,,,,,,,,,,,,,,,,,,,,,,,,,,,,,,,,,,,,,,,,,,,,,,,,,,,,,,,,,,,,,,,,,,
0,12,12,27,1,,5ff0a3d22c2ee6fa5d47c312,62c53993dd89adad07129e57,2022-07-06_09h32.35.733,Colour_Asymmetry_Pilot,2022.1.3,Win32,143.1434297,62c50e9c1127f2cd403a315f,,,,,,,,,,,,,,,,,,,,,,,,,,,,,,,,,,,,,,,,,,,,,,,,,,,,,,,,,,,,,,,,,,,,,,,,,,,,,,,,,,,,,,,,,,,,,,,,,,,,,,,,,,,,,,,,,,,,,,,,,,,,,,,,,,,,,,,,,,,,,,,,,,,,,,,,,,,,,,,,,,,
0,13,13,45,1,,5ff0a3d22c2ee6fa5d47c312,62c53993dd89adad07129e57,2022-07-06_09h32.35.733,Colour_Asymmetry_Pilot,2022.1.3,Win32,143.1434297,62c50e9c1127f2cd403a315f,,,,,,,,,,,,,,,,,,,,,,,,,,,,,,,,,,,,,,,,,,,,,,,,,,,,,,,,,,,,,,,,,,,,,,,,,,,,,,,,,,,,,,,,,,,,,,,,,,,,,,,,,,,,,,,,,,,,,,,,,,,,,,,,,,,,,,,,,,,,,,,,,,,,,,,,,,,,,,,,,,,
0,14,14,19,1,,5ff0a3d22c2ee6fa5d47c312,62c53993dd89adad07129e57,2022-07-06_09h32.35.733,Colour_Asymmetry_Pilot,2022.1.3,Win32,143.1434297,62c50e9c1127f2cd403a315f,,,,,,,,,,,,,,,,,,,,,,,,,,,,,,,,,,,,,,,,,,,,,,,,,,,,,,,,,,,,,,,,,,,,,,,,,,,,,,,,,,,,,,,,,,,,,,,,,,,,,,,,,,,,,,,,,,,,,,,,,,,,,,,,,,,,,,,,,,,,,,,,,,,,,,,,,,,,,,,,,,,
0,15,15,79,1,,5ff0a3d22c2ee6fa5d47c312,62c53993dd89adad07129e57,2022-07-06_09h32.35.733,Colour_Asymmetry_Pilot,2022.1.3,Win32,143.1434297,62c50e9c1127f2cd403a315f,,,,,,,,,,,,,,,,,,,,,,,,,,,,,,,,,,,,,,,,,,,,,,,,,,,,,,,,,,,,,,,,,,,,,,,,,,,,,,,,,,,,,,,,,,,,,,,,,,,,,,,,,,,,,,,,,,,,,,,,,,,,,,,,,,,,,,,,,,,,,,,,,,,,,,,,,,,,,,,,,,,
0,16,16,18,1,,5ff0a3d22c2ee6fa5d47c312,62c53993dd89adad07129e57,2022-07-06_09h32.35.733,Colour_Asymmetry_Pilot,2022.1.3,Win32,143.1434297,62c50e9c1127f2cd403a315f,,,,,,,,,,,,,,,,,,,,,,,,,,,,,,,,,,,,,,,,,,,,,,,,,,,,,,,,,,,,,,,,,,,,,,,,,,,,,,,,,,,,,,,,,,,,,,,,,,,,,,,,,,,,,,,,,,,,,,,,,,,,,,,,,,,,,,,,,,,,,,,,,,,,,,,,,,,,,,,,,,,
0,17,17,61,1,,5ff0a3d22c2ee6fa5d47c312,62c53993dd89adad07129e57,2022-07-06_09h32.35.733,Colour_Asymmetry_Pilot,2022.1.3,Win32,143.1434297,62c50e9c1127f2cd403a315f,,,,,,,,,,,,,,,,,,,,,,,,,,,,,,,,,,,,,,,,,,,,,,,,,,,,,,,,,,,,,,,,,,,,,,,,,,,,,,,,,,,,,,,,,,,,,,,,,,,,,,,,,,,,,,,,,,,,,,,,,,,,,,,,,,,,,,,,,,,,,,,,,,,,,,,,,,,,,,,,,,,
0,18,18,39,1,,5ff0a3d22c2ee6fa5d47c312,62c53993dd89adad07129e57,2022-07-06_09h32.35.733,Colour_Asymmetry_Pilot,2022.1.3,Win32,143.1434297,62c50e9c1127f2cd403a315f,,,,,,,,,,,,,,,,,,,,,,,,,,,,,,,,,,,,,,,,,,,,,,,,,,,,,,,,,,,,,,,,,,,,,,,,,,,,,,,,,,,,,,,,,,,,,,,,,,,,,,,,,,,,,,,,,,,,,,,,,,,,,,,,,,,,,,,,,,,,,,,,,,,,,,,,,,,,,,,,,,,
0,19,19,87,1,,5ff0a3d22c2ee6fa5d47c312,62c53993dd89adad07129e57,2022-07-06_09h32.35.733,Colour_Asymmetry_Pilot,2022.1.3,Win32,143.1434297,62c50e9c1127f2cd403a315f,,,,,,,,,,,,,,,,,,,,,,,,,,,,,,,,,,,,,,,,,,,,,,,,,,,,,,,,,,,,,,,,,,,,,,,,,,,,,,,,,,,,,,,,,,,,,,,,,,,,,,,,,,,,,,,,,,,,,,,,,,,,,,,,,,,,,,,,,,,,,,,,,,,,,,,,,,,,,,,,,,,
0,20,20,14,1,,5ff0a3d22c2ee6fa5d47c312,62c53993dd89adad07129e57,2022-07-06_09h32.35.733,Colour_Asymmetry_Pilot,2022.1.3,Win32,143.1434297,62c50e9c1127f2cd403a315f,,,,,,,,,,,,,,,,,,,,,,,,,,,,,,,,,,,,,,,,,,,,,,,,,,,,,,,,,,,,,,,,,,,,,,,,,,,,,,,,,,,,,,,,,,,,,,,,,,,,,,,,,,,,,,,,,,,,,,,,,,,,,,,,,,,,,,,,,,,,,,,,,,,,,,,,,,,,,,,,,,,
0,21,21,31,1,,5ff0a3d22c2ee6fa5d47c312,62c53993dd89adad07129e57,2022-07-06_09h32.35.733,Colour_Asymmetry_Pilot,2022.1.3,Win32,143.1434297,62c50e9c1127f2cd403a315f,,,,,,,,,,,,,,,,,,,,,,,,,,,,,,,,,,,,,,,,,,,,,,,,,,,,,,,,,,,,,,,,,,,,,,,,,,,,,,,,,,,,,,,,,,,,,,,,,,,,,,,,,,,,,,,,,,,,,,,,,,,,,,,,,,,,,,,,,,,,,,,,,,,,,,,,,,,,,,,,,,,
0,22,22,55,1,,5ff0a3d22c2ee6fa5d47c312,62c53993dd89adad07129e57,2022-07-06_09h32.35.733,Colour_Asymmetry_Pilot,2022.1.3,Win32,143.1434297,62c50e9c1127f2cd403a315f,,,,,,,,,,,,,,,,,,,,,,,,,,,,,,,,,,,,,,,,,,,,,,,,,,,,,,,,,,,,,,,,,,,,,,,,,,,,,,,,,,,,,,,,,,,,,,,,,,,,,,,,,,,,,,,,,,,,,,,,,,,,,,,,,,,,,,,,,,,,,,,,,,,,,,,,,,,,,,,,,,,
0,23,23,90,1,,5ff0a3d22c2ee6fa5d47c312,62c53993dd89adad07129e57,2022-07-06_09h32.35.733,Colour_Asymmetry_Pilot,2022.1.3,Win32,143.1434297,62c50e9c1127f2cd403a315f,,,,,,,,,,,,,,,,,,,,,,,,,,,,,,,,,,,,,,,,,,,,,,,,,,,,,,,,,,,,,,,,,,,,,,,,,,,,,,,,,,,,,,,,,,,,,,,,,,,,,,,,,,,,,,,,,,,,,,,,,,,,,,,,,,,,,,,,,,,,,,,,,,,,,,,,,,,,,,,,,,,
0,24,24,46,1,,5ff0a3d22c2ee6fa5d47c312,62c53993dd89adad07129e57,2022-07-06_09h32.35.733,Colour_Asymmetry_Pilot,2022.1.3,Win32,143.1434297,62c50e9c1127f2cd403a315f,,,,,,,,,,,,,,,,,,,,,,,,,,,,,,,,,,,,,,,,,,,,,,,,,,,,,,,,,,,,,,,,,,,,,,,,,,,,,,,,,,,,,,,,,,,,,,,,,,,,,,,,,,,,,,,,,,,,,,,,,,,,,,,,,,,,,,,,,,,,,,,,,,,,,,,,,,,,,,,,,,,
0,25,25,32,1,,5ff0a3d22c2ee6fa5d47c312,62c53993dd89adad07129e57,2022-07-06_09h32.35.733,Colour_Asymmetry_Pilot,2022.1.3,Win32,143.1434297,62c50e9c1127f2cd403a315f,,,,,,,,,,,,,,,,,,,,,,,,,,,,,,,,,,,,,,,,,,,,,,,,,,,,,,,,,,,,,,,,,,,,,,,,,,,,,,,,,,,,,,,,,,,,,,,,,,,,,,,,,,,,,,,,,,,,,,,,,,,,,,,,,,,,,,,,,,,,,,,,,,,,,,,,,,,,,,,,,,,
0,26,26,63,1,,5ff0a3d22c2ee6fa5d47c312,62c53993dd89adad07129e57,2022-07-06_09h32.35.733,Colour_Asymmetry_Pilot,2022.1.3,Win32,143.1434297,62c50e9c1127f2cd403a315f,,,,,,,,,,,,,,,,,,,,,,,,,,,,,,,,,,,,,,,,,,,,,,,,,,,,,,,,,,,,,,,,,,,,,,,,,,,,,,,,,,,,,,,,,,,,,,,,,,,,,,,,,,,,,,,,,,,,,,,,,,,,,,,,,,,,,,,,,,,,,,,,,,,,,,,,,,,,,,,,,,,
0,27,27,40,1,,5ff0a3d22c2ee6fa5d47c312,62c53993dd89adad07129e57,2022-07-06_09h32.35.733,Colour_Asymmetry_Pilot,2022.1.3,Win32,143.1434297,62c50e9c1127f2cd403a315f,,,,,,,,,,,,,,,,,,,,,,,,,,,,,,,,,,,,,,,,,,,,,,,,,,,,,,,,,,,,,,,,,,,,,,,,,,,,,,,,,,,,,,,,,,,,,,,,,,,,,,,,,,,,,,,,,,,,,,,,,,,,,,,,,,,,,,,,,,,,,,,,,,,,,,,,,,,,,,,,,,,
0,28,28,62,1,,5ff0a3d22c2ee6fa5d47c312,62c53993dd89adad07129e57,2022-07-06_09h32.35.733,Colour_Asymmetry_Pilot,2022.1.3,Win32,143.1434297,62c50e9c1127f2cd403a315f,,,,,,,,,,,,,,,,,,,,,,,,,,,,,,,,,,,,,,,,,,,,,,,,,,,,,,,,,,,,,,,,,,,,,,,,,,,,,,,,,,,,,,,,,,,,,,,,,,,,,,,,,,,,,,,,,,,,,,,,,,,,,,,,,,,,,,,,,,,,,,,,,,,,,,,,,,,,,,,,,,,
0,29,29,68,1,,5ff0a3d22c2ee6fa5d47c312,62c53993dd89adad07129e57,2022-07-06_09h32.35.733,Colour_Asymmetry_Pilot,2022.1.3,Win32,143.1434297,62c50e9c1127f2cd403a315f,,,,,,,,,,,,,,,,,,,,,,,,,,,,,,,,,,,,,,,,,,,,,,,,,,,,,,,,,,,,,,,,,,,,,,,,,,,,,,,,,,,,,,,,,,,,,,,,,,,,,,,,,,,,,,,,,,,,,,,,,,,,,,,,,,,,,,,,,,,,,,,,,,,,,,,,,,,,,,,,,,,
0,30,30,89,1,,5ff0a3d22c2ee6fa5d47c312,62c53993dd89adad07129e57,2022-07-06_09h32.35.733,Colour_Asymmetry_Pilot,2022.1.3,Win32,143.1434297,62c50e9c1127f2cd403a315f,,,,,,,,,,,,,,,,,,,,,,,,,,,,,,,,,,,,,,,,,,,,,,,,,,,,,,,,,,,,,,,,,,,,,,,,,,,,,,,,,,,,,,,,,,,,,,,,,,,,,,,,,,,,,,,,,,,,,,,,,,,,,,,,,,,,,,,,,,,,,,,,,,,,,,,,,,,,,,,,,,,
0,31,31,48,1,,5ff0a3d22c2ee6fa5d47c312,62c53993dd89adad07129e57,2022-07-06_09h32.35.733,Colour_Asymmetry_Pilot,2022.1.3,Win32,143.1434297,62c50e9c1127f2cd403a315f,,,,,,,,,,,,,,,,,,,,,,,,,,,,,,,,,,,,,,,,,,,,,,,,,,,,,,,,,,,,,,,,,,,,,,,,,,,,,,,,,,,,,,,,,,,,,,,,,,,,,,,,,,,,,,,,,,,,,,,,,,,,,,,,,,,,,,,,,,,,,,,,,,,,,,,,,,,,,,,,,,,
0,32,32,22,1,,5ff0a3d22c2ee6fa5d47c312,62c53993dd89adad07129e57,2022-07-06_09h32.35.733,Colour_Asymmetry_Pilot,2022.1.3,Win32,143.1434297,62c50e9c1127f2cd403a315f,,,,,,,,,,,,,,,,,,,,,,,,,,,,,,,,,,,,,,,,,,,,,,,,,,,,,,,,,,,,,,,,,,,,,,,,,,,,,,,,,,,,,,,,,,,,,,,,,,,,,,,,,,,,,,,,,,,,,,,,,,,,,,,,,,,,,,,,,,,,,,,,,,,,,,,,,,,,,,,,,,,
0,33,33,47,1,,5ff0a3d22c2ee6fa5d47c312,62c53993dd89adad07129e57,2022-07-06_09h32.35.733,Colour_Asymmetry_Pilot,2022.1.3,Win32,143.1434297,62c50e9c1127f2cd403a315f,,,,,,,,,,,,,,,,,,,,,,,,,,,,,,,,,,,,,,,,,,,,,,,,,,,,,,,,,,,,,,,,,,,,,,,,,,,,,,,,,,,,,,,,,,,,,,,,,,,,,,,,,,,,,,,,,,,,,,,,,,,,,,,,,,,,,,,,,,,,,,,,,,,,,,,,,,,,,,,,,,,
0,34,34,85,1,,5ff0a3d22c2ee6fa5d47c312,62c53993dd89adad07129e57,2022-07-06_09h32.35.733,Colour_Asymmetry_Pilot,2022.1.3,Win32,143.1434297,62c50e9c1127f2cd403a315f,,,,,,,,,,,,,,,,,,,,,,,,,,,,,,,,,,,,,,,,,,,,,,,,,,,,,,,,,,,,,,,,,,,,,,,,,,,,,,,,,,,,,,,,,,,,,,,,,,,,,,,,,,,,,,,,,,,,,,,,,,,,,,,,,,,,,,,,,,,,,,,,,,,,,,,,,,,,,,,,,,,
0,35,35,60,1,,5ff0a3d22c2ee6fa5d47c312,62c53993dd89adad07129e57,2022-07-06_09h32.35.733,Colour_Asymmetry_Pilot,2022.1.3,Win32,143.1434297,62c50e9c1127f2cd403a315f,,,,,,,,,,,,,,,,,,,,,,,,,,,,,,,,,,,,,,,,,,,,,,,,,,,,,,,,,,,,,,,,,,,,,,,,,,,,,,,,,,,,,,,,,,,,,,,,,,,,,,,,,,,,,,,,,,,,,,,,,,,,,,,,,,,,,,,,,,,,,,,,,,,,,,,,,,,,,,,,,,,
0,36,36,33,1,,5ff0a3d22c2ee6fa5d47c312,62c53993dd89adad07129e57,2022-07-06_09h32.35.733,Colour_Asymmetry_Pilot,2022.1.3,Win32,143.1434297,62c50e9c1127f2cd403a315f,,,,,,,,,,,,,,,,,,,,,,,,,,,,,,,,,,,,,,,,,,,,,,,,,,,,,,,,,,,,,,,,,,,,,,,,,,,,,,,,,,,,,,,,,,,,,,,,,,,,,,,,,,,,,,,,,,,,,,,,,,,,,,,,,,,,,,,,,,,,,,,,,,,,,,,,,,,,,,,,,,,
0,37,37,37,1,,5ff0a3d22c2ee6fa5d47c312,62c53993dd89adad07129e57,2022-07-06_09h32.35.733,Colour_Asymmetry_Pilot,2022.1.3,Win32,143.1434297,62c50e9c1127f2cd403a315f,,,,,,,,,,,,,,,,,,,,,,,,,,,,,,,,,,,,,,,,,,,,,,,,,,,,,,,,,,,,,,,,,,,,,,,,,,,,,,,,,,,,,,,,,,,,,,,,,,,,,,,,,,,,,,,,,,,,,,,,,,,,,,,,,,,,,,,,,,,,,,,,,,,,,,,,,,,,,,,,,,,
0,38,38,76,1,,5ff0a3d22c2ee6fa5d47c312,62c53993dd89adad07129e57,2022-07-06_09h32.35.733,Colour_Asymmetry_Pilot,2022.1.3,Win32,143.1434297,62c50e9c1127f2cd403a315f,,,,,,,,,,,,,,,,,,,,,,,,,,,,,,,,,,,,,,,,,,,,,,,,,,,,,,,,,,,,,,,,,,,,,,,,,,,,,,,,,,,,,,,,,,,,,,,,,,,,,,,,,,,,,,,,,,,,,,,,,,,,,,,,,,,,,,,,,,,,,,,,,,,,,,,,,,,,,,,,,,,
0,39,39,8,1,,5ff0a3d22c2ee6fa5d47c312,62c53993dd89adad07129e57,2022-07-06_09h32.35.733,Colour_Asymmetry_Pilot,2022.1.3,Win32,143.1434297,62c50e9c1127f2cd403a315f,,,,,,,,,,,,,,,,,,,,,,,,,,,,,,,,,,,,,,,,,,,,,,,,,,,,,,,,,,,,,,,,,,,,,,,,,,,,,,,,,,,,,,,,,,,,,,,,,,,,,,,,,,,,,,,,,,,,,,,,,,,,,,,,,,,,,,,,,,,,,,,,,,,,,,,,,,,,,,,,,,,
0,40,40,41,1,,5ff0a3d22c2ee6fa5d47c312,62c53993dd89adad07129e57,2022-07-06_09h32.35.733,Colour_Asymmetry_Pilot,2022.1.3,Win32,143.1434297,62c50e9c1127f2cd403a315f,,,,,,,,,,,,,,,,,,,,,,,,,,,,,,,,,,,,,,,,,,,,,,,,,,,,,,,,,,,,,,,,,,,,,,,,,,,,,,,,,,,,,,,,,,,,,,,,,,,,,,,,,,,,,,,,,,,,,,,,,,,,,,,,,,,,,,,,,,,,,,,,,,,,,,,,,,,,,,,,,,,
0,41,41,75,1,,5ff0a3d22c2ee6fa5d47c312,62c53993dd89adad07129e57,2022-07-06_09h32.35.733,Colour_Asymmetry_Pilot,2022.1.3,Win32,143.1434297,62c50e9c1127f2cd403a315f,,,,,,,,,,,,,,,,,,,,,,,,,,,,,,,,,,,,,,,,,,,,,,,,,,,,,,,,,,,,,,,,,,,,,,,,,,,,,,,,,,,,,,,,,,,,,,,,,,,,,,,,,,,,,,,,,,,,,,,,,,,,,,,,,,,,,,,,,,,,,,,,,,,,,,,,,,,,,,,,,,,
0,42,42,78,1,,5ff0a3d22c2ee6fa5d47c312,62c53993dd89adad07129e57,2022-07-06_09h32.35.733,Colour_Asymmetry_Pilot,2022.1.3,Win32,143.1434297,62c50e9c1127f2cd403a315f,,,,,,,,,,,,,,,,,,,,,,,,,,,,,,,,,,,,,,,,,,,,,,,,,,,,,,,,,,,,,,,,,,,,,,,,,,,,,,,,,,,,,,,,,,,,,,,,,,,,,,,,,,,,,,,,,,,,,,,,,,,,,,,,,,,,,,,,,,,,,,,,,,,,,,,,,,,,,,,,,,,
0,43,43,50,1,,5ff0a3d22c2ee6fa5d47c312,62c53993dd89adad07129e57,2022-07-06_09h32.35.733,Colour_Asymmetry_Pilot,2022.1.3,Win32,143.1434297,62c50e9c1127f2cd403a315f,,,,,,,,,,,,,,,,,,,,,,,,,,,,,,,,,,,,,,,,,,,,,,,,,,,,,,,,,,,,,,,,,,,,,,,,,,,,,,,,,,,,,,,,,,,,,,,,,,,,,,,,,,,,,,,,,,,,,,,,,,,,,,,,,,,,,,,,,,,,,,,,,,,,,,,,,,,,,,,,,,,
0,44,44,56,1,,5ff0a3d22c2ee6fa5d47c312,62c53993dd89adad07129e57,2022-07-06_09h32.35.733,Colour_Asymmetry_Pilot,2022.1.3,Win32,143.1434297,62c50e9c1127f2cd403a315f,,,,,,,,,,,,,,,,,,,,,,,,,,,,,,,,,,,,,,,,,,,,,,,,,,,,,,,,,,,,,,,,,,,,,,,,,,,,,,,,,,,,,,,,,,,,,,,,,,,,,,,,,,,,,,,,,,,,,,,,,,,,,,,,,,,,,,,,,,,,,,,,,,,,,,,,,,,,,,,,,,,
0,45,45,81,1,,5ff0a3d22c2ee6fa5d47c312,62c53993dd89adad07129e57,2022-07-06_09h32.35.733,Colour_Asymmetry_Pilot,2022.1.3,Win32,143.1434297,62c50e9c1127f2cd403a315f,,,,,,,,,,,,,,,,,,,,,,,,,,,,,,,,,,,,,,,,,,,,,,,,,,,,,,,,,,,,,,,,,,,,,,,,,,,,,,,,,,,,,,,,,,,,,,,,,,,,,,,,,,,,,,,,,,,,,,,,,,,,,,,,,,,,,,,,,,,,,,,,,,,,,,,,,,,,,,,,,,,
0,46,46,26,1,,5ff0a3d22c2ee6fa5d47c312,62c53993dd89adad07129e57,2022-07-06_09h32.35.733,Colour_Asymmetry_Pilot,2022.1.3,Win32,143.1434297,62c50e9c1127f2cd403a315f,,,,,,,,,,,,,,,,,,,,,,,,,,,,,,,,,,,,,,,,,,,,,,,,,,,,,,,,,,,,,,,,,,,,,,,,,,,,,,,,,,,,,,,,,,,,,,,,,,,,,,,,,,,,,,,,,,,,,,,,,,,,,,,,,,,,,,,,,,,,,,,,,,,,,,,,,,,,,,,,,,,
0,47,47,9,1,,5ff0a3d22c2ee6fa5d47c312,62c53993dd89adad07129e57,2022-07-06_09h32.35.733,Colour_Asymmetry_Pilot,2022.1.3,Win32,143.1434297,62c50e9c1127f2cd403a315f,,,,,,,,,,,,,,,,,,,,,,,,,,,,,,,,,,,,,,,,,,,,,,,,,,,,,,,,,,,,,,,,,,,,,,,,,,,,,,,,,,,,,,,,,,,,,,,,,,,,,,,,,,,,,,,,,,,,,,,,,,,,,,,,,,,,,,,,,,,,,,,,,,,,,,,,,,,,,,,,,,,
0,48,48,4,1,,5ff0a3d22c2ee6fa5d47c312,62c53993dd89adad07129e57,2022-07-06_09h32.35.733,Colour_Asymmetry_Pilot,2022.1.3,Win32,143.1434297,62c50e9c1127f2cd403a315f,,,,,,,,,,,,,,,,,,,,,,,,,,,,,,,,,,,,,,,,,,,,,,,,,,,,,,,,,,,,,,,,,,,,,,,,,,,,,,,,,,,,,,,,,,,,,,,,,,,,,,,,,,,,,,,,,,,,,,,,,,,,,,,,,,,,,,,,,,,,,,,,,,,,,,,,,,,,,,,,,,,
0,49,49,1,1,,5ff0a3d22c2ee6fa5d47c312,62c53993dd89adad07129e57,2022-07-06_09h32.35.733,Colour_Asymmetry_Pilot,2022.1.3,Win32,143.1434297,62c50e9c1127f2cd403a315f,,,,,,,,,,,,,,,,,,,,,,,,,,,,,,,,,,,,,,,,,,,,,,,,,,,,,,,,,,,,,,,,,,,,,,,,,,,,,,,,,,,,,,,,,,,,,,,,,,,,,,,,,,,,,,,,,,,,,,,,,,,,,,,,,,,,,,,,,,,,,,,,,,,,,,,,,,,,,,,,,,,
0,50,50,17,1,,5ff0a3d22c2ee6fa5d47c312,62c53993dd89adad07129e57,2022-07-06_09h32.35.733,Colour_Asymmetry_Pilot,2022.1.3,Win32,143.1434297,62c50e9c1127f2cd403a315f,,,,,,,,,,,,,,,,,,,,,,,,,,,,,,,,,,,,,,,,,,,,,,,,,,,,,,,,,,,,,,,,,,,,,,,,,,,,,,,,,,,,,,,,,,,,,,,,,,,,,,,,,,,,,,,,,,,,,,,,,,,,,,,,,,,,,,,,,,,,,,,,,,,,,,,,,,,,,,,,,,,
0,51,51,91,1,,5ff0a3d22c2ee6fa5d47c312,62c53993dd89adad07129e57,2022-07-06_09h32.35.733,Colour_Asymmetry_Pilot,2022.1.3,Win32,143.1434297,62c50e9c1127f2cd403a315f,,,,,,,,,,,,,,,,,,,,,,,,,,,,,,,,,,,,,,,,,,,,,,,,,,,,,,,,,,,,,,,,,,,,,,,,,,,,,,,,,,,,,,,,,,,,,,,,,,,,,,,,,,,,,,,,,,,,,,,,,,,,,,,,,,,,,,,,,,,,,,,,,,,,,,,,,,,,,,,,,,,
0,52,52,29,1,,5ff0a3d22c2ee6fa5d47c312,62c53993dd89adad07129e57,2022-07-06_09h32.35.733,Colour_Asymmetry_Pilot,2022.1.3,Win32,143.1434297,62c50e9c1127f2cd403a315f,,,,,,,,,,,,,,,,,,,,,,,,,,,,,,,,,,,,,,,,,,,,,,,,,,,,,,,,,,,,,,,,,,,,,,,,,,,,,,,,,,,,,,,,,,,,,,,,,,,,,,,,,,,,,,,,,,,,,,,,,,,,,,,,,,,,,,,,,,,,,,,,,,,,,,,,,,,,,,,,,,,
0,53,53,66,1,,5ff0a3d22c2ee6fa5d47c312,62c53993dd89adad07129e57,2022-07-06_09h32.35.733,Colour_Asymmetry_Pilot,2022.1.3,Win32,143.1434297,62c50e9c1127f2cd403a315f,,,,,,,,,,,,,,,,,,,,,,,,,,,,,,,,,,,,,,,,,,,,,,,,,,,,,,,,,,,,,,,,,,,,,,,,,,,,,,,,,,,,,,,,,,,,,,,,,,,,,,,,,,,,,,,,,,,,,,,,,,,,,,,,,,,,,,,,,,,,,,,,,,,,,,,,,,,,,,,,,,,
0,54,54,80,1,,5ff0a3d22c2ee6fa5d47c312,62c53993dd89adad07129e57,2022-07-06_09h32.35.733,Colour_Asymmetry_Pilot,2022.1.3,Win32,143.1434297,62c50e9c1127f2cd403a315f,,,,,,,,,,,,,,,,,,,,,,,,,,,,,,,,,,,,,,,,,,,,,,,,,,,,,,,,,,,,,,,,,,,,,,,,,,,,,,,,,,,,,,,,,,,,,,,,,,,,,,,,,,,,,,,,,,,,,,,,,,,,,,,,,,,,,,,,,,,,,,,,,,,,,,,,,,,,,,,,,,,
0,55,55,10,1,,5ff0a3d22c2ee6fa5d47c312,62c53993dd89adad07129e57,2022-07-06_09h32.35.733,Colour_Asymmetry_Pilot,2022.1.3,Win32,143.1434297,62c50e9c1127f2cd403a315f,,,,,,,,,,,,,,,,,,,,,,,,,,,,,,,,,,,,,,,,,,,,,,,,,,,,,,,,,,,,,,,,,,,,,,,,,,,,,,,,,,,,,,,,,,,,,,,,,,,,,,,,,,,,,,,,,,,,,,,,,,,,,,,,,,,,,,,,,,,,,,,,,,,,,,,,,,,,,,,,,,,
0,56,56,59,1,,5ff0a3d22c2ee6fa5d47c312,62c53993dd89adad07129e57,2022-07-06_09h32.35.733,Colour_Asymmetry_Pilot,2022.1.3,Win32,143.1434297,62c50e9c1127f2cd403a315f,,,,,,,,,,,,,,,,,,,,,,,,,,,,,,,,,,,,,,,,,,,,,,,,,,,,,,,,,,,,,,,,,,,,,,,,,,,,,,,,,,,,,,,,,,,,,,,,,,,,,,,,,,,,,,,,,,,,,,,,,,,,,,,,,,,,,,,,,,,,,,,,,,,,,,,,,,,,,,,,,,,
0,57,57,69,1,,5ff0a3d22c2ee6fa5d47c312,62c53993dd89adad07129e57,2022-07-06_09h32.35.733,Colour_Asymmetry_Pilot,2022.1.3,Win32,143.1434297,62c50e9c1127f2cd403a315f,,,,,,,,,,,,,,,,,,,,,,,,,,,,,,,,,,,,,,,,,,,,,,,,,,,,,,,,,,,,,,,,,,,,,,,,,,,,,,,,,,,,,,,,,,,,,,,,,,,,,,,,,,,,,,,,,,,,,,,,,,,,,,,,,,,,,,,,,,,,,,,,,,,,,,,,,,,,,,,,,,,
0,58,58,35,1,,5ff0a3d22c2ee6fa5d47c312,62c53993dd89adad07129e57,2022-07-06_09h32.35.733,Colour_Asymmetry_Pilot,2022.1.3,Win32,143.1434297,62c50e9c1127f2cd403a315f,,,,,,,,,,,,,,,,,,,,,,,,,,,,,,,,,,,,,,,,,,,,,,,,,,,,,,,,,,,,,,,,,,,,,,,,,,,,,,,,,,,,,,,,,,,,,,,,,,,,,,,,,,,,,,,,,,,,,,,,,,,,,,,,,,,,,,,,,,,,,,,,,,,,,,,,,,,,,,,,,,,
0,59,59,83,1,,5ff0a3d22c2ee6fa5d47c312,62c53993dd89adad07129e57,2022-07-06_09h32.35.733,Colour_Asymmetry_Pilot,2022.1.3,Win32,143.1434297,62c50e9c1127f2cd403a315f,,,,,,,,,,,,,,,,,,,,,,,,,,,,,,,,,,,,,,,,,,,,,,,,,,,,,,,,,,,,,,,,,,,,,,,,,,,,,,,,,,,,,,,,,,,,,,,,,,,,,,,,,,,,,,,,,,,,,,,,,,,,,,,,,,,,,,,,,,,,,,,,,,,,,,,,,,,,,,,,,,,
0,60,60,44,1,,5ff0a3d22c2ee6fa5d47c312,62c53993dd89adad07129e57,2022-07-06_09h32.35.733,Colour_Asymmetry_Pilot,2022.1.3,Win32,143.1434297,62c50e9c1127f2cd403a315f,,,,,,,,,,,,,,,,,,,,,,,,,,,,,,,,,,,,,,,,,,,,,,,,,,,,,,,,,,,,,,,,,,,,,,,,,,,,,,,,,,,,,,,,,,,,,,,,,,,,,,,,,,,,,,,,,,,,,,,,,,,,,,,,,,,,,,,,,,,,,,,,,,,,,,,,,,,,,,,,,,,
0,61,61,42,1,,5ff0a3d22c2ee6fa5d47c312,62c53993dd89adad07129e57,2022-07-06_09h32.35.733,Colour_Asymmetry_Pilot,2022.1.3,Win32,143.1434297,62c50e9c1127f2cd403a315f,,,,,,,,,,,,,,,,,,,,,,,,,,,,,,,,,,,,,,,,,,,,,,,,,,,,,,,,,,,,,,,,,,,,,,,,,,,,,,,,,,,,,,,,,,,,,,,,,,,,,,,,,,,,,,,,,,,,,,,,,,,,,,,,,,,,,,,,,,,,,,,,,,,,,,,,,,,,,,,,,,,
0,62,62,88,1,,5ff0a3d22c2ee6fa5d47c312,62c53993dd89adad07129e57,2022-07-06_09h32.35.733,Colour_Asymmetry_Pilot,2022.1.3,Win32,143.1434297,62c50e9c1127f2cd403a315f,,,,,,,,,,,,,,,,,,,,,,,,,,,,,,,,,,,,,,,,,,,,,,,,,,,,,,,,,,,,,,,,,,,,,,,,,,,,,,,,,,,,,,,,,,,,,,,,,,,,,,,,,,,,,,,,,,,,,,,,,,,,,,,,,,,,,,,,,,,,,,,,,,,,,,,,,,,,,,,,,,,
0,63,63,38,1,,5ff0a3d22c2ee6fa5d47c312,62c53993dd89adad07129e57,2022-07-06_09h32.35.733,Colour_Asymmetry_Pilot,2022.1.3,Win32,143.1434297,62c50e9c1127f2cd403a315f,,,,,,,,,,,,,,,,,,,,,,,,,,,,,,,,,,,,,,,,,,,,,,,,,,,,,,,,,,,,,,,,,,,,,,,,,,,,,,,,,,,,,,,,,,,,,,,,,,,,,,,,,,,,,,,,,,,,,,,,,,,,,,,,,,,,,,,,,,,,,,,,,,,,,,,,,,,,,,,,,,,
0,64,64,65,1,,5ff0a3d22c2ee6fa5d47c312,62c53993dd89adad07129e57,2022-07-06_09h32.35.733,Colour_Asymmetry_Pilot,2022.1.3,Win32,143.1434297,62c50e9c1127f2cd403a315f,,,,,,,,,,,,,,,,,,,,,,,,,,,,,,,,,,,,,,,,,,,,,,,,,,,,,,,,,,,,,,,,,,,,,,,,,,,,,,,,,,,,,,,,,,,,,,,,,,,,,,,,,,,,,,,,,,,,,,,,,,,,,,,,,,,,,,,,,,,,,,,,,,,,,,,,,,,,,,,,,,,
0,65,65,84,1,,5ff0a3d22c2ee6fa5d47c312,62c53993dd89adad07129e57,2022-07-06_09h32.35.733,Colour_Asymmetry_Pilot,2022.1.3,Win32,143.1434297,62c50e9c1127f2cd403a315f,,,,,,,,,,,,,,,,,,,,,,,,,,,,,,,,,,,,,,,,,,,,,,,,,,,,,,,,,,,,,,,,,,,,,,,,,,,,,,,,,,,,,,,,,,,,,,,,,,,,,,,,,,,,,,,,,,,,,,,,,,,,,,,,,,,,,,,,,,,,,,,,,,,,,,,,,,,,,,,,,,,
0,66,66,13,1,,5ff0a3d22c2ee6fa5d47c312,62c53993dd89adad07129e57,2022-07-06_09h32.35.733,Colour_Asymmetry_Pilot,2022.1.3,Win32,143.1434297,62c50e9c1127f2cd403a315f,,,,,,,,,,,,,,,,,,,,,,,,,,,,,,,,,,,,,,,,,,,,,,,,,,,,,,,,,,,,,,,,,,,,,,,,,,,,,,,,,,,,,,,,,,,,,,,,,,,,,,,,,,,,,,,,,,,,,,,,,,,,,,,,,,,,,,,,,,,,,,,,,,,,,,,,,,,,,,,,,,,
0,67,67,25,1,,5ff0a3d22c2ee6fa5d47c312,62c53993dd89adad07129e57,2022-07-06_09h32.35.733,Colour_Asymmetry_Pilot,2022.1.3,Win32,143.1434297,62c50e9c1127f2cd403a315f,,,,,,,,,,,,,,,,,,,,,,,,,,,,,,,,,,,,,,,,,,,,,,,,,,,,,,,,,,,,,,,,,,,,,,,,,,,,,,,,,,,,,,,,,,,,,,,,,,,,,,,,,,,,,,,,,,,,,,,,,,,,,,,,,,,,,,,,,,,,,,,,,,,,,,,,,,,,,,,,,,,
0,68,68,2,1,,5ff0a3d22c2ee6fa5d47c312,62c53993dd89adad07129e57,2022-07-06_09h32.35.733,Colour_Asymmetry_Pilot,2022.1.3,Win32,143.1434297,62c50e9c1127f2cd403a315f,,,,,,,,,,,,,,,,,,,,,,,,,,,,,,,,,,,,,,,,,,,,,,,,,,,,,,,,,,,,,,,,,,,,,,,,,,,,,,,,,,,,,,,,,,,,,,,,,,,,,,,,,,,,,,,,,,,,,,,,,,,,,,,,,,,,,,,,,,,,,,,,,,,,,,,,,,,,,,,,,,,
0,69,69,16,1,,5ff0a3d22c2ee6fa5d47c312,62c53993dd89adad07129e57,2022-07-06_09h32.35.733,Colour_Asymmetry_Pilot,2022.1.3,Win32,143.1434297,62c50e9c1127f2cd403a315f,,,,,,,,,,,,,,,,,,,,,,,,,,,,,,,,,,,,,,,,,,,,,,,,,,,,,,,,,,,,,,,,,,,,,,,,,,,,,,,,,,,,,,,,,,,,,,,,,,,,,,,,,,,,,,,,,,,,,,,,,,,,,,,,,,,,,,,,,,,,,,,,,,,,,,,,,,,,,,,,,,,
0,70,70,12,1,,5ff0a3d22c2ee6fa5d47c312,62c53993dd89adad07129e57,2022-07-06_09h32.35.733,Colour_Asymmetry_Pilot,2022.1.3,Win32,143.1434297,62c50e9c1127f2cd403a315f,,,,,,,,,,,,,,,,,,,,,,,,,,,,,,,,,,,,,,,,,,,,,,,,,,,,,,,,,,,,,,,,,,,,,,,,,,,,,,,,,,,,,,,,,,,,,,,,,,,,,,,,,,,,,,,,,,,,,,,,,,,,,,,,,,,,,,,,,,,,,,,,,,,,,,,,,,,,,,,,,,,
0,71,71,82,1,,5ff0a3d22c2ee6fa5d47c312,62c53993dd89adad07129e57,2022-07-06_09h32.35.733,Colour_Asymmetry_Pilot,2022.1.3,Win32,143.1434297,62c50e9c1127f2cd403a315f,,,,,,,,,,,,,,,,,,,,,,,,,,,,,,,,,,,,,,,,,,,,,,,,,,,,,,,,,,,,,,,,,,,,,,,,,,,,,,,,,,,,,,,,,,,,,,,,,,,,,,,,,,,,,,,,,,,,,,,,,,,,,,,,,,,,,,,,,,,,,,,,,,,,,,,,,,,,,,,,,,,
0,72,72,23,1,,5ff0a3d22c2ee6fa5d47c312,62c53993dd89adad07129e57,2022-07-06_09h32.35.733,Colour_Asymmetry_Pilot,2022.1.3,Win32,143.1434297,62c50e9c1127f2cd403a315f,,,,,,,,,,,,,,,,,,,,,,,,,,,,,,,,,,,,,,,,,,,,,,,,,,,,,,,,,,,,,,,,,,,,,,,,,,,,,,,,,,,,,,,,,,,,,,,,,,,,,,,,,,,,,,,,,,,,,,,,,,,,,,,,,,,,,,,,,,,,,,,,,,,,,,,,,,,,,,,,,,,
0,73,73,67,1,,5ff0a3d22c2ee6fa5d47c312,62c53993dd89adad07129e57,2022-07-06_09h32.35.733,Colour_Asymmetry_Pilot,2022.1.3,Win32,143.1434297,62c50e9c1127f2cd403a315f,,,,,,,,,,,,,,,,,,,,,,,,,,,,,,,,,,,,,,,,,,,,,,,,,,,,,,,,,,,,,,,,,,,,,,,,,,,,,,,,,,,,,,,,,,,,,,,,,,,,,,,,,,,,,,,,,,,,,,,,,,,,,,,,,,,,,,,,,,,,,,,,,,,,,,,,,,,,,,,,,,,
0,74,74,51,1,,5ff0a3d22c2ee6fa5d47c312,62c53993dd89adad07129e57,2022-07-06_09h32.35.733,Colour_Asymmetry_Pilot,2022.1.3,Win32,143.1434297,62c50e9c1127f2cd403a315f,,,,,,,,,,,,,,,,,,,,,,,,,,,,,,,,,,,,,,,,,,,,,,,,,,,,,,,,,,,,,,,,,,,,,,,,,,,,,,,,,,,,,,,,,,,,,,,,,,,,,,,,,,,,,,,,,,,,,,,,,,,,,,,,,,,,,,,,,,,,,,,,,,,,,,,,,,,,,,,,,,,
0,75,75,0,1,,5ff0a3d22c2ee6fa5d47c312,62c53993dd89adad07129e57,2022-07-06_09h32.35.733,Colour_Asymmetry_Pilot,2022.1.3,Win32,143.1434297,62c50e9c1127f2cd403a315f,,,,,,,,,,,,,,,,,,,,,,,,,,,,,,,,,,,,,,,,,,,,,,,,,,,,,,,,,,,,,,,,,,,,,,,,,,,,,,,,,,,,,,,,,,,,,,,,,,,,,,,,,,,,,,,,,,,,,,,,,,,,,,,,,,,,,,,,,,,,,,,,,,,,,,,,,,,,,,,,,,,
0,76,76,92,1,,5ff0a3d22c2ee6fa5d47c312,62c53993dd89adad07129e57,2022-07-06_09h32.35.733,Colour_Asymmetry_Pilot,2022.1.3,Win32,143.1434297,62c50e9c1127f2cd403a315f,,,,,,,,,,,,,,,,,,,,,,,,,,,,,,,,,,,,,,,,,,,,,,,,,,,,,,,,,,,,,,,,,,,,,,,,,,,,,,,,,,,,,,,,,,,,,,,,,,,,,,,,,,,,,,,,,,,,,,,,,,,,,,,,,,,,,,,,,,,,,,,,,,,,,,,,,,,,,,,,,,,
0,77,77,21,1,,5ff0a3d22c2ee6fa5d47c312,62c53993dd89adad07129e57,2022-07-06_09h32.35.733,Colour_Asymmetry_Pilot,2022.1.3,Win32,143.1434297,62c50e9c1127f2cd403a315f,,,,,,,,,,,,,,,,,,,,,,,,,,,,,,,,,,,,,,,,,,,,,,,,,,,,,,,,,,,,,,,,,,,,,,,,,,,,,,,,,,,,,,,,,,,,,,,,,,,,,,,,,,,,,,,,,,,,,,,,,,,,,,,,,,,,,,,,,,,,,,,,,,,,,,,,,,,,,,,,,,,
0,78,78,43,1,,5ff0a3d22c2ee6fa5d47c312,62c53993dd89adad07129e57,2022-07-06_09h32.35.733,Colour_Asymmetry_Pilot,2022.1.3,Win32,143.1434297,62c50e9c1127f2cd403a315f,,,,,,,,,,,,,,,,,,,,,,,,,,,,,,,,,,,,,,,,,,,,,,,,,,,,,,,,,,,,,,,,,,,,,,,,,,,,,,,,,,,,,,,,,,,,,,,,,,,,,,,,,,,,,,,,,,,,,,,,,,,,,,,,,,,,,,,,,,,,,,,,,,,,,,,,,,,,,,,,,,,
0,79,79,58,1,,5ff0a3d22c2ee6fa5d47c312,62c53993dd89adad07129e57,2022-07-06_09h32.35.733,Colour_Asymmetry_Pilot,2022.1.3,Win32,143.1434297,62c50e9c1127f2cd403a315f,,,,,,,,,,,,,,,,,,,,,,,,,,,,,,,,,,,,,,,,,,,,,,,,,,,,,,,,,,,,,,,,,,,,,,,,,,,,,,,,,,,,,,,,,,,,,,,,,,,,,,,,,,,,,,,,,,,,,,,,,,,,,,,,,,,,,,,,,,,,,,,,,,,,,,,,,,,,,,,,,,,
0,80,80,11,1,,5ff0a3d22c2ee6fa5d47c312,62c53993dd89adad07129e57,2022-07-06_09h32.35.733,Colour_Asymmetry_Pilot,2022.1.3,Win32,143.1434297,62c50e9c1127f2cd403a315f,,,,,,,,,,,,,,,,,,,,,,,,,,,,,,,,,,,,,,,,,,,,,,,,,,,,,,,,,,,,,,,,,,,,,,,,,,,,,,,,,,,,,,,,,,,,,,,,,,,,,,,,,,,,,,,,,,,,,,,,,,,,,,,,,,,,,,,,,,,,,,,,,,,,,,,,,,,,,,,,,,,
0,81,81,6,1,,5ff0a3d22c2ee6fa5d47c312,62c53993dd89adad07129e57,2022-07-06_09h32.35.733,Colour_Asymmetry_Pilot,2022.1.3,Win32,143.1434297,62c50e9c1127f2cd403a315f,,,,,,,,,,,,,,,,,,,,,,,,,,,,,,,,,,,,,,,,,,,,,,,,,,,,,,,,,,,,,,,,,,,,,,,,,,,,,,,,,,,,,,,,,,,,,,,,,,,,,,,,,,,,,,,,,,,,,,,,,,,,,,,,,,,,,,,,,,,,,,,,,,,,,,,,,,,,,,,,,,,
0,82,82,15,1,,5ff0a3d22c2ee6fa5d47c312,62c53993dd89adad07129e57,2022-07-06_09h32.35.733,Colour_Asymmetry_Pilot,2022.1.3,Win32,143.1434297,62c50e9c1127f2cd403a315f,,,,,,,,,,,,,,,,,,,,,,,,,,,,,,,,,,,,,,,,,,,,,,,,,,,,,,,,,,,,,,,,,,,,,,,,,,,,,,,,,,,,,,,,,,,,,,,,,,,,,,,,,,,,,,,,,,,,,,,,,,,,,,,,,,,,,,,,,,,,,,,,,,,,,,,,,,,,,,,,,,,
0,83,83,5,1,,5ff0a3d22c2ee6fa5d47c312,62c53993dd89adad07129e57,2022-07-06_09h32.35.733,Colour_Asymmetry_Pilot,2022.1.3,Win32,143.1434297,62c50e9c1127f2cd403a315f,,,,,,,,,,,,,,,,,,,,,,,,,,,,,,,,,,,,,,,,,,,,,,,,,,,,,,,,,,,,,,,,,,,,,,,,,,,,,,,,,,,,,,,,,,,,,,,,,,,,,,,,,,,,,,,,,,,,,,,,,,,,,,,,,,,,,,,,,,,,,,,,,,,,,,,,,,,,,,,,,,,
0,84,84,30,1,,5ff0a3d22c2ee6fa5d47c312,62c53993dd89adad07129e57,2022-07-06_09h32.35.733,Colour_Asymmetry_Pilot,2022.1.3,Win32,143.1434297,62c50e9c1127f2cd403a315f,,,,,,,,,,,,,,,,,,,,,,,,,,,,,,,,,,,,,,,,,,,,,,,,,,,,,,,,,,,,,,,,,,,,,,,,,,,,,,,,,,,,,,,,,,,,,,,,,,,,,,,,,,,,,,,,,,,,,,,,,,,,,,,,,,,,,,,,,,,,,,,,,,,,,,,,,,,,,,,,,,,
0,85,85,77,1,,5ff0a3d22c2ee6fa5d47c312,62c53993dd89adad07129e57,2022-07-06_09h32.35.733,Colour_Asymmetry_Pilot,2022.1.3,Win32,143.1434297,62c50e9c1127f2cd403a315f,,,,,,,,,,,,,,,,,,,,,,,,,,,,,,,,,,,,,,,,,,,,,,,,,,,,,,,,,,,,,,,,,,,,,,,,,,,,,,,,,,,,,,,,,,,,,,,,,,,,,,,,,,,,,,,,,,,,,,,,,,,,,,,,,,,,,,,,,,,,,,,,,,,,,,,,,,,,,,,,,,,
0,86,86,73,1,,5ff0a3d22c2ee6fa5d47c312,62c53993dd89adad07129e57,2022-07-06_09h32.35.733,Colour_Asymmetry_Pilot,2022.1.3,Win32,143.1434297,62c50e9c1127f2cd403a315f,,,,,,,,,,,,,,,,,,,,,,,,,,,,,,,,,,,,,,,,,,,,,,,,,,,,,,,,,,,,,,,,,,,,,,,,,,,,,,,,,,,,,,,,,,,,,,,,,,,,,,,,,,,,,,,,,,,,,,,,,,,,,,,,,,,,,,,,,,,,,,,,,,,,,,,,,,,,,,,,,,,
0,87,87,34,1,,5ff0a3d22c2ee6fa5d47c312,62c53993dd89adad07129e57,2022-07-06_09h32.35.733,Colour_Asymmetry_Pilot,2022.1.3,Win32,143.1434297,62c50e9c1127f2cd403a315f,,,,,,,,,,,,,,,,,,,,,,,,,,,,,,,,,,,,,,,,,,,,,,,,,,,,,,,,,,,,,,,,,,,,,,,,,,,,,,,,,,,,,,,,,,,,,,,,,,,,,,,,,,,,,,,,,,,,,,,,,,,,,,,,,,,,,,,,,,,,,,,,,,,,,,,,,,,,,,,,,,,
0,88,88,36,1,,5ff0a3d22c2ee6fa5d47c312,62c53993dd89adad07129e57,2022-07-06_09h32.35.733,Colour_Asymmetry_Pilot,2022.1.3,Win32,143.1434297,62c50e9c1127f2cd403a315f,,,,,,,,,,,,,,,,,,,,,,,,,,,,,,,,,,,,,,,,,,,,,,,,,,,,,,,,,,,,,,,,,,,,,,,,,,,,,,,,,,,,,,,,,,,,,,,,,,,,,,,,,,,,,,,,,,,,,,,,,,,,,,,,,,,,,,,,,,,,,,,,,,,,,,,,,,,,,,,,,,,
0,89,89,7,1,,5ff0a3d22c2ee6fa5d47c312,62c53993dd89adad07129e57,2022-07-06_09h32.35.733,Colour_Asymmetry_Pilot,2022.1.3,Win32,143.1434297,62c50e9c1127f2cd403a315f,,,,,,,,,,,,,,,,,,,,,,,,,,,,,,,,,,,,,,,,,,,,,,,,,,,,,,,,,,,,,,,,,,,,,,,,,,,,,,,,,,,,,,,,,,,,,,,,,,,,,,,,,,,,,,,,,,,,,,,,,,,,,,,,,,,,,,,,,,,,,,,,,,,,,,,,,,,,,,,,,,,
0,90,90,57,1,,5ff0a3d22c2ee6fa5d47c312,62c53993dd89adad07129e57,2022-07-06_09h32.35.733,Colour_Asymmetry_Pilot,2022.1.3,Win32,143.1434297,62c50e9c1127f2cd403a315f,,,,,,,,,,,,,,,,,,,,,,,,,,,,,,,,,,,,,,,,,,,,,,,,,,,,,,,,,,,,,,,,,,,,,,,,,,,,,,,,,,,,,,,,,,,,,,,,,,,,,,,,,,,,,,,,,,,,,,,,,,,,,,,,,,,,,,,,,,,,,,,,,,,,,,,,,,,,,,,,,,,
0,91,91,70,1,,5ff0a3d22c2ee6fa5d47c312,62c53993dd89adad07129e57,2022-07-06_09h32.35.733,Colour_Asymmetry_Pilot,2022.1.3,Win32,143.1434297,62c50e9c1127f2cd403a315f,,,,,,,,,,,,,,,,,,,,,,,,,,,,,,,,,,,,,,,,,,,,,,,,,,,,,,,,,,,,,,,,,,,,,,,,,,,,,,,,,,,,,,,,,,,,,,,,,,,,,,,,,,,,,,,,,,,,,,,,,,,,,,,,,,,,,,,,,,,,,,,,,,,,,,,,,,,,,,,,,,,
0,92,92,28,1,,5ff0a3d22c2ee6fa5d47c312,62c53993dd89adad07129e57,2022-07-06_09h32.35.733,Colour_Asymmetry_Pilot,2022.1.3,Win32,143.1434297,62c50e9c1127f2cd403a315f,,,,,,,,,,,,,,,,,,,,,,,,,,,,,,,,,,,,,,,,,,,,,,,,,,,,,,,,,,,,,,,,,,,,,,,,,,,,,,,,,,,,,,,,,,,,,,,,,,,,,,,,,,,,,,,,,,,,,,,,,,,,,,,,,,,,,,,,,,,,,,,,,,,,,,,,,,,,,,,,,,,
,,,,,,5ff0a3d22c2ee6fa5d47c312,62c53993dd89adad07129e57,2022-07-06_09h32.35.733,Colour_Asymmetry_Pilot,2022.1.3,Win32,143.1434297,62c50e9c1127f2cd403a315f,0,0,0,118,1,fourtwo,,,,,,,,,,,,,,,,,,,,,,,,,,,,,,,,,,,,,,,,,,,,,,,,,,,,,,,,,,,,,,,,,,,,,,,,,,,,,,,,,,,,,,,,,,,,,,,,,,,,,,,,,,,,,,,,,,,,,,,,,,,,,,,,,,,,,,,,,,,,,,,,,,,,,,,,,,,,,
,,,,,,5ff0a3d22c2ee6fa5d47c312,62c53993dd89adad07129e57,2022-07-06_09h32.35.733,Colour_Asymmetry_Pilot,2022.1.3,Win32,143.1434297,62c50e9c1127f2cd403a315f,0,1,1,76,1,threeone,,,,,,,,,,,,,,,,,,,,,,,,,,,,,,,,,,,,,,,,,,,,,,,,,,,,,,,,,,,,,,,,,,,,,,,,,,,,,,,,,,,,,,,,,,,,,,,,,,,,,,,,,,,,,,,,,,,,,,,,,,,,,,,,,,,,,,,,,,,,,,,,,,,,,,,,,,,,,
,,,,,,5ff0a3d22c2ee6fa5d47c312,62c53993dd89adad07129e57,2022-07-06_09h32.35.733,Colour_Asymmetry_Pilot,2022.1.3,Win32,143.1434297,62c50e9c1127f2cd403a315f,0,2,2,125,1,threefour,,,,,,,,,,,,,,,,,,,,,,,,,,,,,,,,,,,,,,,,,,,,,,,,,,,,,,,,,,,,,,,,,,,,,,,,,,,,,,,,,,,,,,,,,,,,,,,,,,,,,,,,,,,,,,,,,,,,,,,,,,,,,,,,,,,,,,,,,,,,,,,,,,,,,,,,,,,,,
,,,,,,5ff0a3d22c2ee6fa5d47c312,62c53993dd89adad07129e57,2022-07-06_09h32.35.733,Colour_Asymmetry_Pilot,2022.1.3,Win32,143.1434297,62c50e9c1127f2cd403a315f,0,3,3,41,1,onethree,,,,,,,,,,,,,,,,,,,,,,,,,,,,,,,,,,,,,,,,,,,,,,,,,,,,,,,,,,,,,,,,,,,,,,,,,,,,,,,,,,,,,,,,,,,,,,,,,,,,,,,,,,,,,,,,,,,,,,,,,,,,,,,,,,,,,,,,,,,,,,,,,,,,,,,,,,,,,
,,,,,,5ff0a3d22c2ee6fa5d47c312,62c53993dd89adad07129e57,2022-07-06_09h32.35.733,Colour_Asymmetry_Pilot,2022.1.3,Win32,143.1434297,62c50e9c1127f2cd403a315f,0,4,4,3,1,twofour,,,,,,,,,,,,,,,,,,,,,,,,,,,,,,,,,,,,,,,,,,,,,,,,,,,,,,,,,,,,,,,,,,,,,,,,,,,,,,,,,,,,,,,,,,,,,,,,,,,,,,,,,,,,,,,,,,,,,,,,,,,,,,,,,,,,,,,,,,,,,,,,,,,,,,,,,,,,,
,,,,,,5ff0a3d22c2ee6fa5d47c312,62c53993dd89adad07129e57,2022-07-06_09h32.35.733,Colour_Asymmetry_Pilot,2022.1.3,Win32,143.1434297,62c50e9c1127f2cd403a315f,0,5,5,99,1,twofour,,,,,,,,,,,,,,,,,,,,,,,,,,,,,,,,,,,,,,,,,,,,,,,,,,,,,,,,,,,,,,,,,,,,,,,,,,,,,,,,,,,,,,,,,,,,,,,,,,,,,,,,,,,,,,,,,,,,,,,,,,,,,,,,,,,,,,,,,,,,,,,,,,,,,,,,,,,,,
,,,,,,5ff0a3d22c2ee6fa5d47c312,62c53993dd89adad07129e57,2022-07-06_09h32.35.733,Colour_Asymmetry_Pilot,2022.1.3,Win32,143.1434297,62c50e9c1127f2cd403a315f,0,6,6,1,1,onethree,,,,,,,,,,,,,,,,,,,,,,,,,,,,,,,,,,,,,,,,,,,,,,,,,,,,,,,,,,,,,,,,,,,,,,,,,,,,,,,,,,,,,,,,,,,,,,,,,,,,,,,,,,,,,,,,,,,,,,,,,,,,,,,,,,,,,,,,,,,,,,,,,,,,,,,,,,,,,
,,,,,,5ff0a3d22c2ee6fa5d47c312,62c53993dd89adad07129e57,2022-07-06_09h32.35.733,Colour_Asymmetry_Pilot,2022.1.3,Win32,143.1434297,62c50e9c1127f2cd403a315f,0,7,7,112,1,onetwo,,,,,,,,,,,,,,,,,,,,,,,,,,,,,,,,,,,,,,,,,,,,,,,,,,,,,,,,,,,,,,,,,,,,,,,,,,,,,,,,,,,,,,,,,,,,,,,,,,,,,,,,,,,,,,,,,,,,,,,,,,,,,,,,,,,,,,,,,,,,,,,,,,,,,,,,,,,,,
,,,,,,5ff0a3d22c2ee6fa5d47c312,62c53993dd89adad07129e57,2022-07-06_09h32.35.733,Colour_Asymmetry_Pilot,2022.1.3,Win32,143.1434297,62c50e9c1127f2cd403a315f,0,8,8,8,1,onetwo,,,,,,,,,,,,,,,,,,,,,,,,,,,,,,,,,,,,,,,,,,,,,,,,,,,,,,,,,,,,,,,,,,,,,,,,,,,,,,,,,,,,,,,,,,,,,,,,,,,,,,,,,,,,,,,,,,,,,,,,,,,,,,,,,,,,,,,,,,,,,,,,,,,,,,,,,,,,,
,,,,,,5ff0a3d22c2ee6fa5d47c312,62c53993dd89adad07129e57,2022-07-06_09h32.35.733,Colour_Asymmetry_Pilot,2022.1.3,Win32,143.1434297,62c50e9c1127f2cd403a315f,0,9,9,119,1,fourthree,,,,,,,,,,,,,,,,,,,,,,,,,,,,,,,,,,,,,,,,,,,,,,,,,,,,,,,,,,,,,,,,,,,,,,,,,,,,,,,,,,,,,,,,,,,,,,,,,,,,,,,,,,,,,,,,,,,,,,,,,,,,,,,,,,,,,,,,,,,,,,,,,,,,,,,,,,,,,
,,,,,,5ff0a3d22c2ee6fa5d47c312,62c53993dd89adad07129e57,2022-07-06_09h32.35.733,Colour_Asymmetry_Pilot,2022.1.3,Win32,143.1434297,62c50e9c1127f2cd403a315f,0,10,10,35,1,twofour,,,,,,,,,,,,,,,,,,,,,,,,,,,,,,,,,,,,,,,,,,,,,,,,,,,,,,,,,,,,,,,,,,,,,,,,,,,,,,,,,,,,,,,,,,,,,,,,,,,,,,,,,,,,,,,,,,,,,,,,,,,,,,,,,,,,,,,,,,,,,,,,,,,,,,,,,,,,,
,,,,,,5ff0a3d22c2ee6fa5d47c312,62c53993dd89adad07129e57,2022-07-06_09h32.35.733,Colour_Asymmetry_Pilot,2022.1.3,Win32,143.1434297,62c50e9c1127f2cd403a315f,0,11,11,84,1,threeone,,,,,,,,,,,,,,,,,,,,,,,,,,,,,,,,,,,,,,,,,,,,,,,,,,,,,,,,,,,,,,,,,,,,,,,,,,,,,,,,,,,,,,,,,,,,,,,,,,,,,,,,,,,,,,,,,,,,,,,,,,,,,,,,,,,,,,,,,,,,,,,,,,,,,,,,,,,,,
,,,,,,5ff0a3d22c2ee6fa5d47c312,62c53993dd89adad07129e57,2022-07-06_09h32.35.733,Colour_Asymmetry_Pilot,2022.1.3,Win32,143.1434297,62c50e9c1127f2cd403a315f,0,12,12,96,1,onetwo,,,,,,,,,,,,,,,,,,,,,,,,,,,,,,,,,,,,,,,,,,,,,,,,,,,,,,,,,,,,,,,,,,,,,,,,,,,,,,,,,,,,,,,,,,,,,,,,,,,,,,,,,,,,,,,,,,,,,,,,,,,,,,,,,,,,,,,,,,,,,,,,,,,,,,,,,,,,,
,,,,,,5ff0a3d22c2ee6fa5d47c312,62c53993dd89adad07129e57,2022-07-06_09h32.35.733,Colour_Asymmetry_Pilot,2022.1.3,Win32,143.1434297,62c50e9c1127f2cd403a315f,0,13,13,122,1,twoone,,,,,,,,,,,,,,,,,,,,,,,,,,,,,,,,,,,,,,,,,,,,,,,,,,,,,,,,,,,,,,,,,,,,,,,,,,,,,,,,,,,,,,,,,,,,,,,,,,,,,,,,,,,,,,,,,,,,,,,,,,,,,,,,,,,,,,,,,,,,,,,,,,,,,,,,,,,,,
,,,,,,5ff0a3d22c2ee6fa5d47c312,62c53993dd89adad07129e57,2022-07-06_09h32.35.733,Colour_Asymmetry_Pilot,2022.1.3,Win32,143.1434297,62c50e9c1127f2cd403a315f,0,14,14,133,1,threefour,,,,,,,,,,,,,,,,,,,,,,,,,,,,,,,,,,,,,,,,,,,,,,,,,,,,,,,,,,,,,,,,,,,,,,,,,,,,,,,,,,,,,,,,,,,,,,,,,,,,,,,,,,,,,,,,,,,,,,,,,,,,,,,,,,,,,,,,,,,,,,,,,,,,,,,,,,,,,
,,,,,,5ff0a3d22c2ee6fa5d47c312,62c53993dd89adad07129e57,2022-07-06_09h32.35.733,Colour_Asymmetry_Pilot,2022.1.3,Win32,143.1434297,62c50e9c1127f2cd403a315f,0,15,15,137,1,onethree,,,,,,,,,,,,,,,,,,,,,,,,,,,,,,,,,,,,,,,,,,,,,,,,,,,,,,,,,,,,,,,,,,,,,,,,,,,,,,,,,,,,,,,,,,,,,,,,,,,,,,,,,,,,,,,,,,,,,,,,,,,,,,,,,,,,,,,,,,,,,,,,,,,,,,,,,,,,,
,,,,,,5ff0a3d22c2ee6fa5d47c312,62c53993dd89adad07129e57,2022-07-06_09h32.35.733,Colour_Asymmetry_Pilot,2022.1.3,Win32,143.1434297,62c50e9c1127f2cd403a315f,0,16,16,83,1,twofour,,,,,,,,,,,,,,,,,,,,,,,,,,,,,,,,,,,,,,,,,,,,,,,,,,,,,,,,,,,,,,,,,,,,,,,,,,,,,,,,,,,,,,,,,,,,,,,,,,,,,,,,,,,,,,,,,,,,,,,,,,,,,,,,,,,,,,,,,,,,,,,,,,,,,,,,,,,,,
,,,,,,5ff0a3d22c2ee6fa5d47c312,62c53993dd89adad07129e57,2022-07-06_09h32.35.733,Colour_Asymmetry_Pilot,2022.1.3,Win32,143.1434297,62c50e9c1127f2cd403a315f,0,17,17,4,1,threeone,,,,,,,,,,,,,,,,,,,,,,,,,,,,,,,,,,,,,,,,,,,,,,,,,,,,,,,,,,,,,,,,,,,,,,,,,,,,,,,,,,,,,,,,,,,,,,,,,,,,,,,,,,,,,,,,,,,,,,,,,,,,,,,,,,,,,,,,,,,,,,,,,,,,,,,,,,,,,
,,,,,,5ff0a3d22c2ee6fa5d47c312,62c53993dd89adad07129e57,2022-07-06_09h32.35.733,Colour_Asymmetry_Pilot,2022.1.3,Win32,143.1434297,62c50e9c1127f2cd403a315f,0,18,18,109,1,threefour,,,,,,,,,,,,,,,,,,,,,,,,,,,,,,,,,,,,,,,,,,,,,,,,,,,,,,,,,,,,,,,,,,,,,,,,,,,,,,,,,,,,,,,,,,,,,,,,,,,,,,,,,,,,,,,,,,,,,,,,,,,,,,,,,,,,,,,,,,,,,,,,,,,,,,,,,,,,,
,,,,,,5ff0a3d22c2ee6fa5d47c312,62c53993dd89adad07129e57,2022-07-06_09h32.35.733,Colour_Asymmetry_Pilot,2022.1.3,Win32,143.1434297,62c50e9c1127f2cd403a315f,0,19,19,90,1,twoone,,,,,,,,,,,,,,,,,,,,,,,,,,,,,,,,,,,,,,,,,,,,,,,,,,,,,,,,,,,,,,,,,,,,,,,,,,,,,,,,,,,,,,,,,,,,,,,,,,,,,,,,,,,,,,,,,,,,,,,,,,,,,,,,,,,,,,,,,,,,,,,,,,,,,,,,,,,,,
,,,,,,5ff0a3d22c2ee6fa5d47c312,62c53993dd89adad07129e57,2022-07-06_09h32.35.733,Colour_Asymmetry_Pilot,2022.1.3,Win32,143.1434297,62c50e9c1127f2cd403a315f,0,20,20,42,1,twoone,,,,,,,,,,,,,,,,,,,,,,,,,,,,,,,,,,,,,,,,,,,,,,,,,,,,,,,,,,,,,,,,,,,,,,,,,,,,,,,,,,,,,,,,,,,,,,,,,,,,,,,,,,,,,,,,,,,,,,,,,,,,,,,,,,,,,,,,,,,,,,,,,,,,,,,,,,,,,
,,,,,,5ff0a3d22c2ee6fa5d47c312,62c53993dd89adad07129e57,2022-07-06_09h32.35.733,Colour_Asymmetry_Pilot,2022.1.3,Win32,143.1434297,62c50e9c1127f2cd403a315f,0,21,21,19,1,twofour,,,,,,,,,,,,,,,,,,,,,,,,,,,,,,,,,,,,,,,,,,,,,,,,,,,,,,,,,,,,,,,,,,,,,,,,,,,,,,,,,,,,,,,,,,,,,,,,,,,,,,,,,,,,,,,,,,,,,,,,,,,,,,,,,,,,,,,,,,,,,,,,,,,,,,,,,,,,,
,,,,,,5ff0a3d22c2ee6fa5d47c312,62c53993dd89adad07129e57,2022-07-06_09h32.35.733,Colour_Asymmetry_Pilot,2022.1.3,Win32,143.1434297,62c50e9c1127f2cd403a315f,0,22,22,115,1,twofour,,,,,,,,,,,,,,,,,,,,,,,,,,,,,,,,,,,,,,,,,,,,,,,,,,,,,,,,,,,,,,,,,,,,,,,,,,,,,,,,,,,,,,,,,,,,,,,,,,,,,,,,,,,,,,,,,,,,,,,,,,,,,,,,,,,,,,,,,,,,,,,,,,,,,,,,,,,,,
,,,,,,5ff0a3d22c2ee6fa5d47c312,62c53993dd89adad07129e57,2022-07-06_09h32.35.733,Colour_Asymmetry_Pilot,2022.1.3,Win32,143.1434297,62c50e9c1127f2cd403a315f,0,23,23,33,1,onethree,,,,,,,,,,,,,,,,,,,,,,,,,,,,,,,,,,,,,,,,,,,,,,,,,,,,,,,,,,,,,,,,,,,,,,,,,,,,,,,,,,,,,,,,,,,,,,,,,,,,,,,,,,,,,,,,,,,,,,,,,,,,,,,,,,,,,,,,,,,,,,,,,,,,,,,,,,,,,
,,,,,,5ff0a3d22c2ee6fa5d47c312,62c53993dd89adad07129e57,2022-07-06_09h32.35.733,Colour_Asymmetry_Pilot,2022.1.3,Win32,143.1434297,62c50e9c1127f2cd403a315f,0,24,24,21,1,threefour,,,,,,,,,,,,,,,,,,,,,,,,,,,,,,,,,,,,,,,,,,,,,,,,,,,,,,,,,,,,,,,,,,,,,,,,,,,,,,,,,,,,,,,,,,,,,,,,,,,,,,,,,,,,,,,,,,,,,,,,,,,,,,,,,,,,,,,,,,,,,,,,,,,,,,,,,,,,,
,,,,,,5ff0a3d22c2ee6fa5d47c312,62c53993dd89adad07129e57,2022-07-06_09h32.35.733,Colour_Asymmetry_Pilot,2022.1.3,Win32,143.1434297,62c50e9c1127f2cd403a315f,0,25,25,82,1,twoone,,,,,,,,,,,,,,,,,,,,,,,,,,,,,,,,,,,,,,,,,,,,,,,,,,,,,,,,,,,,,,,,,,,,,,,,,,,,,,,,,,,,,,,,,,,,,,,,,,,,,,,,,,,,,,,,,,,,,,,,,,,,,,,,,,,,,,,,,,,,,,,,,,,,,,,,,,,,,
,,,,,,5ff0a3d22c2ee6fa5d47c312,62c53993dd89adad07129e57,2022-07-06_09h32.35.733,Colour_Asymmetry_Pilot,2022.1.3,Win32,143.1434297,62c50e9c1127f2cd403a315f,0,26,26,60,1,threeone,,,,,,,,,,,,,,,,,,,,,,,,,,,,,,,,,,,,,,,,,,,,,,,,,,,,,,,,,,,,,,,,,,,,,,,,,,,,,,,,,,,,,,,,,,,,,,,,,,,,,,,,,,,,,,,,,,,,,,,,,,,,,,,,,,,,,,,,,,,,,,,,,,,,,,,,,,,,,
,,,,,,5ff0a3d22c2ee6fa5d47c312,62c53993dd89adad07129e57,2022-07-06_09h32.35.733,Colour_Asymmetry_Pilot,2022.1.3,Win32,143.1434297,62c50e9c1127f2cd403a315f,0,27,27,113,1,onethree,,,,,,,,,,,,,,,,,,,,,,,,,,,,,,,,,,,,,,,,,,,,,,,,,,,,,,,,,,,,,,,,,,,,,,,,,,,,,,,,,,,,,,,,,,,,,,,,,,,,,,,,,,,,,,,,,,,,,,,,,,,,,,,,,,,,,,,,,,,,,,,,,,,,,,,,,,,,,
,,,,,,5ff0a3d22c2ee6fa5d47c312,62c53993dd89adad07129e57,2022-07-06_09h32.35.733,Colour_Asymmetry_Pilot,2022.1.3,Win32,143.1434297,62c50e9c1127f2cd403a315f,0,28,28,124,1,threeone,,,,,,,,,,,,,,,,,,,,,,,,,,,,,,,,,,,,,,,,,,,,,,,,,,,,,,,,,,,,,,,,,,,,,,,,,,,,,,,,,,,,,,,,,,,,,,,,,,,,,,,,,,,,,,,,,,,,,,,,,,,,,,,,,,,,,,,,,,,,,,,,,,,,,,,,,,,,,
,,,,,,5ff0a3d22c2ee6fa5d47c312,62c53993dd89adad07129e57,2022-07-06_09h32.35.733,Colour_Asymmetry_Pilot,2022.1.3,Win32,143.1434297,62c50e9c1127f2cd403a315f,0,29,29,15,1,fourthree,,,,,,,,,,,,,,,,,,,,,,,,,,,,,,,,,,,,,,,,,,,,,,,,,,,,,,,,,,,,,,,,,,,,,,,,,,,,,,,,,,,,,,,,,,,,,,,,,,,,,,,,,,,,,,,,,,,,,,,,,,,,,,,,,,,,,,,,,,,,,,,,,,,,,,,,,,,,,
,,,,,,5ff0a3d22c2ee6fa5d47c312,62c53993dd89adad07129e57,2022-07-06_09h32.35.733,Colour_Asymmetry_Pilot,2022.1.3,Win32,143.1434297,62c50e9c1127f2cd403a315f,0,30,30,11,1,twofour,,,,,,,,,,,,,,,,,,,,,,,,,,,,,,,,,,,,,,,,,,,,,,,,,,,,,,,,,,,,,,,,,,,,,,,,,,,,,,,,,,,,,,,,,,,,,,,,,,,,,,,,,,,,,,,,,,,,,,,,,,,,,,,,,,,,,,,,,,,,,,,,,,,,,,,,,,,,,
,,,,,,5ff0a3d22c2ee6fa5d47c312,62c53993dd89adad07129e57,2022-07-06_09h32.35.733,Colour_Asymmetry_Pilot,2022.1.3,Win32,143.1434297,62c50e9c1127f2cd403a315f,0,31,31,149,1,threefour,,,,,,,,,,,,,,,,,,,,,,,,,,,,,,,,,,,,,,,,,,,,,,,,,,,,,,,,,,,,,,,,,,,,,,,,,,,,,,,,,,,,,,,,,,,,,,,,,,,,,,,,,,,,,,,,,,,,,,,,,,,,,,,,,,,,,,,,,,,,,,,,,,,,,,,,,,,,,
,,,,,,5ff0a3d22c2ee6fa5d47c312,62c53993dd89adad07129e57,2022-07-06_09h32.35.733,Colour_Asymmetry_Pilot,2022.1.3,Win32,143.1434297,62c50e9c1127f2cd403a315f,0,32,32,40,1,onetwo,,,,,,,,,,,,,,,,,,,,,,,,,,,,,,,,,,,,,,,,,,,,,,,,,,,,,,,,,,,,,,,,,,,,,,,,,,,,,,,,,,,,,,,,,,,,,,,,,,,,,,,,,,,,,,,,,,,,,,,,,,,,,,,,,,,,,,,,,,,,,,,,,,,,,,,,,,,,,
,,,,,,5ff0a3d22c2ee6fa5d47c312,62c53993dd89adad07129e57,2022-07-06_09h32.35.733,Colour_Asymmetry_Pilot,2022.1.3,Win32,143.1434297,62c50e9c1127f2cd403a315f,0,33,33,159,1,fourthree,,,,,,,,,,,,,,,,,,,,,,,,,,,,,,,,,,,,,,,,,,,,,,,,,,,,,,,,,,,,,,,,,,,,,,,,,,,,,,,,,,,,,,,,,,,,,,,,,,,,,,,,,,,,,,,,,,,,,,,,,,,,,,,,,,,,,,,,,,,,,,,,,,,,,,,,,,,,,
,,,,,,5ff0a3d22c2ee6fa5d47c312,62c53993dd89adad07129e57,2022-07-06_09h32.35.733,Colour_Asymmetry_Pilot,2022.1.3,Win32,143.1434297,62c50e9c1127f2cd403a315f,0,34,34,147,1,twofour,,,,,,,,,,,,,,,,,,,,,,,,,,,,,,,,,,,,,,,,,,,,,,,,,,,,,,,,,,,,,,,,,,,,,,,,,,,,,,,,,,,,,,,,,,,,,,,,,,,,,,,,,,,,,,,,,,,,,,,,,,,,,,,,,,,,,,,,,,,,,,,,,,,,,,,,,,,,,
,,,,,,5ff0a3d22c2ee6fa5d47c312,62c53993dd89adad07129e57,2022-07-06_09h32.35.733,Colour_Asymmetry_Pilot,2022.1.3,Win32,143.1434297,62c50e9c1127f2cd403a315f,0,35,35,148,1,threeone,,,,,,,,,,,,,,,,,,,,,,,,,,,,,,,,,,,,,,,,,,,,,,,,,,,,,,,,,,,,,,,,,,,,,,,,,,,,,,,,,,,,,,,,,,,,,,,,,,,,,,,,,,,,,,,,,,,,,,,,,,,,,,,,,,,,,,,,,,,,,,,,,,,,,,,,,,,,,
,,,,,,5ff0a3d22c2ee6fa5d47c312,62c53993dd89adad07129e57,2022-07-06_09h32.35.733,Colour_Asymmetry_Pilot,2022.1.3,Win32,143.1434297,62c50e9c1127f2cd403a315f,0,36,36,138,1,twoone,,,,,,,,,,,,,,,,,,,,,,,,,,,,,,,,,,,,,,,,,,,,,,,,,,,,,,,,,,,,,,,,,,,,,,,,,,,,,,,,,,,,,,,,,,,,,,,,,,,,,,,,,,,,,,,,,,,,,,,,,,,,,,,,,,,,,,,,,,,,,,,,,,,,,,,,,,,,,
,,,,,,5ff0a3d22c2ee6fa5d47c312,62c53993dd89adad07129e57,2022-07-06_09h32.35.733,Colour_Asymmetry_Pilot,2022.1.3,Win32,143.1434297,62c50e9c1127f2cd403a315f,0,37,37,57,1,onethree,,,,,,,,,,,,,,,,,,,,,,,,,,,,,,,,,,,,,,,,,,,,,,,,,,,,,,,,,,,,,,,,,,,,,,,,,,,,,,,,,,,,,,,,,,,,,,,,,,,,,,,,,,,,,,,,,,,,,,,,,,,,,,,,,,,,,,,,,,,,,,,,,,,,,,,,,,,,,
,,,,,,5ff0a3d22c2ee6fa5d47c312,62c53993dd89adad07129e57,2022-07-06_09h32.35.733,Colour_Asymmetry_Pilot,2022.1.3,Win32,143.1434297,62c50e9c1127f2cd403a315f,0,38,38,106,1,twoone,,,,,,,,,,,,,,,,,,,,,,,,,,,,,,,,,,,,,,,,,,,,,,,,,,,,,,,,,,,,,,,,,,,,,,,,,,,,,,,,,,,,,,,,,,,,,,,,,,,,,,,,,,,,,,,,,,,,,,,,,,,,,,,,,,,,,,,,,,,,,,,,,,,,,,,,,,,,,
,,,,,,5ff0a3d22c2ee6fa5d47c312,62c53993dd89adad07129e57,2022-07-06_09h32.35.733,Colour_Asymmetry_Pilot,2022.1.3,Win32,143.1434297,62c50e9c1127f2cd403a315f,0,39,39,91,1,twofour,,,,,,,,,,,,,,,,,,,,,,,,,,,,,,,,,,,,,,,,,,,,,,,,,,,,,,,,,,,,,,,,,,,,,,,,,,,,,,,,,,,,,,,,,,,,,,,,,,,,,,,,,,,,,,,,,,,,,,,,,,,,,,,,,,,,,,,,,,,,,,,,,,,,,,,,,,,,,
,,,,,,5ff0a3d22c2ee6fa5d47c312,62c53993dd89adad07129e57,2022-07-06_09h32.35.733,Colour_Asymmetry_Pilot,2022.1.3,Win32,143.1434297,62c50e9c1127f2cd403a315f,0,40,40,12,1,threeone,,,,,,,,,,,,,,,,,,,,,,,,,,,,,,,,,,,,,,,,,,,,,,,,,,,,,,,,,,,,,,,,,,,,,,,,,,,,,,,,,,,,,,,,,,,,,,,,,,,,,,,,,,,,,,,,,,,,,,,,,,,,,,,,,,,,,,,,,,,,,,,,,,,,,,,,,,,,,
,,,,,,5ff0a3d22c2ee6fa5d47c312,62c53993dd89adad07129e57,2022-07-06_09h32.35.733,Colour_Asymmetry_Pilot,2022.1.3,Win32,143.1434297,62c50e9c1127f2cd403a315f,0,41,41,68,1,threeone,,,,,,,,,,,,,,,,,,,,,,,,,,,,,,,,,,,,,,,,,,,,,,,,,,,,,,,,,,,,,,,,,,,,,,,,,,,,,,,,,,,,,,,,,,,,,,,,,,,,,,,,,,,,,,,,,,,,,,,,,,,,,,,,,,,,,,,,,,,,,,,,,,,,,,,,,,,,,
,,,,,,5ff0a3d22c2ee6fa5d47c312,62c53993dd89adad07129e57,2022-07-06_09h32.35.733,Colour_Asymmetry_Pilot,2022.1.3,Win32,143.1434297,62c50e9c1127f2cd403a315f,0,42,42,97,1,onethree,,,,,,,,,,,,,,,,,,,,,,,,,,,,,,,,,,,,,,,,,,,,,,,,,,,,,,,,,,,,,,,,,,,,,,,,,,,,,,,,,,,,,,,,,,,,,,,,,,,,,,,,,,,,,,,,,,,,,,,,,,,,,,,,,,,,,,,,,,,,,,,,,,,,,,,,,,,,,
,,,,,,5ff0a3d22c2ee6fa5d47c312,62c53993dd89adad07129e57,2022-07-06_09h32.35.733,Colour_Asymmetry_Pilot,2022.1.3,Win32,143.1434297,62c50e9c1127f2cd403a315f,0,43,43,6,1,fourtwo,,,,,,,,,,,,,,,,,,,,,,,,,,,,,,,,,,,,,,,,,,,,,,,,,,,,,,,,,,,,,,,,,,,,,,,,,,,,,,,,,,,,,,,,,,,,,,,,,,,,,,,,,,,,,,,,,,,,,,,,,,,,,,,,,,,,,,,,,,,,,,,,,,,,,,,,,,,,,
,,,,,,5ff0a3d22c2ee6fa5d47c312,62c53993dd89adad07129e57,2022-07-06_09h32.35.733,Colour_Asymmetry_Pilot,2022.1.3,Win32,143.1434297,62c50e9c1127f2cd403a315f,0,44,44,156,1,threeone,,,,,,,,,,,,,,,,,,,,,,,,,,,,,,,,,,,,,,,,,,,,,,,,,,,,,,,,,,,,,,,,,,,,,,,,,,,,,,,,,,,,,,,,,,,,,,,,,,,,,,,,,,,,,,,,,,,,,,,,,,,,,,,,,,,,,,,,,,,,,,,,,,,,,,,,,,,,,
,,,,,,5ff0a3d22c2ee6fa5d47c312,62c53993dd89adad07129e57,2022-07-06_09h32.35.733,Colour_Asymmetry_Pilot,2022.1.3,Win32,143.1434297,62c50e9c1127f2cd403a315f,0,45,45,32,1,onetwo,,,,,,,,,,,,,,,,,,,,,,,,,,,,,,,,,,,,,,,,,,,,,,,,,,,,,,,,,,,,,,,,,,,,,,,,,,,,,,,,,,,,,,,,,,,,,,,,,,,,,,,,,,,,,,,,,,,,,,,,,,,,,,,,,,,,,,,,,,,,,,,,,,,,,,,,,,,,,
,,,,,,5ff0a3d22c2ee6fa5d47c312,62c53993dd89adad07129e57,2022-07-06_09h32.35.733,Colour_Asymmetry_Pilot,2022.1.3,Win32,143.1434297,62c50e9c1127f2cd403a315f,0,46,46,152,1,onetwo,,,,,,,,,,,,,,,,,,,,,,,,,,,,,,,,,,,,,,,,,,,,,,,,,,,,,,,,,,,,,,,,,,,,,,,,,,,,,,,,,,,,,,,,,,,,,,,,,,,,,,,,,,,,,,,,,,,,,,,,,,,,,,,,,,,,,,,,,,,,,,,,,,,,,,,,,,,,,
,,,,,,5ff0a3d22c2ee6fa5d47c312,62c53993dd89adad07129e57,2022-07-06_09h32.35.733,Colour_Asymmetry_Pilot,2022.1.3,Win32,143.1434297,62c50e9c1127f2cd403a315f,0,47,47,64,1,onetwo,,,,,,,,,,,,,,,,,,,,,,,,,,,,,,,,,,,,,,,,,,,,,,,,,,,,,,,,,,,,,,,,,,,,,,,,,,,,,,,,,,,,,,,,,,,,,,,,,,,,,,,,,,,,,,,,,,,,,,,,,,,,,,,,,,,,,,,,,,,,,,,,,,,,,,,,,,,,,
,,,,,,5ff0a3d22c2ee6fa5d47c312,62c53993dd89adad07129e57,2022-07-06_09h32.35.733,Colour_Asymmetry_Pilot,2022.1.3,Win32,143.1434297,62c50e9c1127f2cd403a315f,0,48,48,72,1,onetwo,,,,,,,,,,,,,,,,,,,,,,,,,,,,,,,,,,,,,,,,,,,,,,,,,,,,,,,,,,,,,,,,,,,,,,,,,,,,,,,,,,,,,,,,,,,,,,,,,,,,,,,,,,,,,,,,,,,,,,,,,,,,,,,,,,,,,,,,,,,,,,,,,,,,,,,,,,,,,
,,,,,,5ff0a3d22c2ee6fa5d47c312,62c53993dd89adad07129e57,2022-07-06_09h32.35.733,Colour_Asymmetry_Pilot,2022.1.3,Win32,143.1434297,62c50e9c1127f2cd403a315f,0,49,49,7,1,fourthree,,,,,,,,,,,,,,,,,,,,,,,,,,,,,,,,,,,,,,,,,,,,,,,,,,,,,,,,,,,,,,,,,,,,,,,,,,,,,,,,,,,,,,,,,,,,,,,,,,,,,,,,,,,,,,,,,,,,,,,,,,,,,,,,,,,,,,,,,,,,,,,,,,,,,,,,,,,,,
,,,,,,5ff0a3d22c2ee6fa5d47c312,62c53993dd89adad07129e57,2022-07-06_09h32.35.733,Colour_Asymmetry_Pilot,2022.1.3,Win32,143.1434297,62c50e9c1127f2cd403a315f,0,50,50,120,1,onetwo,,,,,,,,,,,,,,,,,,,,,,,,,,,,,,,,,,,,,,,,,,,,,,,,,,,,,,,,,,,,,,,,,,,,,,,,,,,,,,,,,,,,,,,,,,,,,,,,,,,,,,,,,,,,,,,,,,,,,,,,,,,,,,,,,,,,,,,,,,,,,,,,,,,,,,,,,,,,,
,,,,,,5ff0a3d22c2ee6fa5d47c312,62c53993dd89adad07129e57,2022-07-06_09h32.35.733,Colour_Asymmetry_Pilot,2022.1.3,Win32,143.1434297,62c50e9c1127f2cd403a315f,0,51,51,126,1,fourtwo,,,,,,,,,,,,,,,,,,,,,,,,,,,,,,,,,,,,,,,,,,,,,,,,,,,,,,,,,,,,,,,,,,,,,,,,,,,,,,,,,,,,,,,,,,,,,,,,,,,,,,,,,,,,,,,,,,,,,,,,,,,,,,,,,,,,,,,,,,,,,,,,,,,,,,,,,,,,,
,,,,,,5ff0a3d22c2ee6fa5d47c312,62c53993dd89adad07129e57,2022-07-06_09h32.35.733,Colour_Asymmetry_Pilot,2022.1.3,Win32,143.1434297,62c50e9c1127f2cd403a315f,0,52,52,73,1,onethree,,,,,,,,,,,,,,,,,,,,,,,,,,,,,,,,,,,,,,,,,,,,,,,,,,,,,,,,,,,,,,,,,,,,,,,,,,,,,,,,,,,,,,,,,,,,,,,,,,,,,,,,,,,,,,,,,,,,,,,,,,,,,,,,,,,,,,,,,,,,,,,,,,,,,,,,,,,,,
,,,,,,5ff0a3d22c2ee6fa5d47c312,62c53993dd89adad07129e57,2022-07-06_09h32.35.733,Colour_Asymmetry_Pilot,2022.1.3,Win32,143.1434297,62c50e9c1127f2cd403a315f,0,53,53,18,1,twoone,,,,,,,,,,,,,,,,,,,,,,,,,,,,,,,,,,,,,,,,,,,,,,,,,,,,,,,,,,,,,,,,,,,,,,,,,,,,,,,,,,,,,,,,,,,,,,,,,,,,,,,,,,,,,,,,,,,,,,,,,,,,,,,,,,,,,,,,,,,,,,,,,,,,,,,,,,,,,
,,,,,,5ff0a3d22c2ee6fa5d47c312,62c53993dd89adad07129e57,2022-07-06_09h32.35.733,Colour_Asymmetry_Pilot,2022.1.3,Win32,143.1434297,62c50e9c1127f2cd403a315f,0,54,54,155,1,twofour,,,,,,,,,,,,,,,,,,,,,,,,,,,,,,,,,,,,,,,,,,,,,,,,,,,,,,,,,,,,,,,,,,,,,,,,,,,,,,,,,,,,,,,,,,,,,,,,,,,,,,,,,,,,,,,,,,,,,,,,,,,,,,,,,,,,,,,,,,,,,,,,,,,,,,,,,,,,,
,,,,,,5ff0a3d22c2ee6fa5d47c312,62c53993dd89adad07129e57,2022-07-06_09h32.35.733,Colour_Asymmetry_Pilot,2022.1.3,Win32,143.1434297,62c50e9c1127f2cd403a315f,0,55,55,102,1,fourtwo,,,,,,,,,,,,,,,,,,,,,,,,,,,,,,,,,,,,,,,,,,,,,,,,,,,,,,,,,,,,,,,,,,,,,,,,,,,,,,,,,,,,,,,,,,,,,,,,,,,,,,,,,,,,,,,,,,,,,,,,,,,,,,,,,,,,,,,,,,,,,,,,,,,,,,,,,,,,,
,,,,,,5ff0a3d22c2ee6fa5d47c312,62c53993dd89adad07129e57,2022-07-06_09h32.35.733,Colour_Asymmetry_Pilot,2022.1.3,Win32,143.1434297,62c50e9c1127f2cd403a315f,0,56,56,88,1,onetwo,,,,,,,,,,,,,,,,,,,,,,,,,,,,,,,,,,,,,,,,,,,,,,,,,,,,,,,,,,,,,,,,,,,,,,,,,,,,,,,,,,,,,,,,,,,,,,,,,,,,,,,,,,,,,,,,,,,,,,,,,,,,,,,,,,,,,,,,,,,,,,,,,,,,,,,,,,,,,
,,,,,,5ff0a3d22c2ee6fa5d47c312,62c53993dd89adad07129e57,2022-07-06_09h32.35.733,Colour_Asymmetry_Pilot,2022.1.3,Win32,143.1434297,62c50e9c1127f2cd403a315f,0,57,57,132,1,threeone,,,,,,,,,,,,,,,,,,,,,,,,,,,,,,,,,,,,,,,,,,,,,,,,,,,,,,,,,,,,,,,,,,,,,,,,,,,,,,,,,,,,,,,,,,,,,,,,,,,,,,,,,,,,,,,,,,,,,,,,,,,,,,,,,,,,,,,,,,,,,,,,,,,,,,,,,,,,,
,,,,,,5ff0a3d22c2ee6fa5d47c312,62c53993dd89adad07129e57,2022-07-06_09h32.35.733,Colour_Asymmetry_Pilot,2022.1.3,Win32,143.1434297,62c50e9c1127f2cd403a315f,0,58,58,86,1,fourtwo,,,,,,,,,,,,,,,,,,,,,,,,,,,,,,,,,,,,,,,,,,,,,,,,,,,,,,,,,,,,,,,,,,,,,,,,,,,,,,,,,,,,,,,,,,,,,,,,,,,,,,,,,,,,,,,,,,,,,,,,,,,,,,,,,,,,,,,,,,,,,,,,,,,,,,,,,,,,,
,,,,,,5ff0a3d22c2ee6fa5d47c312,62c53993dd89adad07129e57,2022-07-06_09h32.35.733,Colour_Asymmetry_Pilot,2022.1.3,Win32,143.1434297,62c50e9c1127f2cd403a315f,0,59,59,47,1,fourthree,,,,,,,,,,,,,,,,,,,,,,,,,,,,,,,,,,,,,,,,,,,,,,,,,,,,,,,,,,,,,,,,,,,,,,,,,,,,,,,,,,,,,,,,,,,,,,,,,,,,,,,,,,,,,,,,,,,,,,,,,,,,,,,,,,,,,,,,,,,,,,,,,,,,,,,,,,,,,
,,,,,,5ff0a3d22c2ee6fa5d47c312,62c53993dd89adad07129e57,2022-07-06_09h32.35.733,Colour_Asymmetry_Pilot,2022.1.3,Win32,143.1434297,62c50e9c1127f2cd403a315f,0,60,60,81,1,onethree,,,,,,,,,,,,,,,,,,,,,,,,,,,,,,,,,,,,,,,,,,,,,,,,,,,,,,,,,,,,,,,,,,,,,,,,,,,,,,,,,,,,,,,,,,,,,,,,,,,,,,,,,,,,,,,,,,,,,,,,,,,,,,,,,,,,,,,,,,,,,,,,,,,,,,,,,,,,,
,,,,,,5ff0a3d22c2ee6fa5d47c312,62c53993dd89adad07129e57,2022-07-06_09h32.35.733,Colour_Asymmetry_Pilot,2022.1.3,Win32,143.1434297,62c50e9c1127f2cd403a315f,0,61,61,135,1,fourthree,,,,,,,,,,,,,,,,,,,,,,,,,,,,,,,,,,,,,,,,,,,,,,,,,,,,,,,,,,,,,,,,,,,,,,,,,,,,,,,,,,,,,,,,,,,,,,,,,,,,,,,,,,,,,,,,,,,,,,,,,,,,,,,,,,,,,,,,,,,,,,,,,,,,,,,,,,,,,
,,,,,,5ff0a3d22c2ee6fa5d47c312,62c53993dd89adad07129e57,2022-07-06_09h32.35.733,Colour_Asymmetry_Pilot,2022.1.3,Win32,143.1434297,62c50e9c1127f2cd403a315f,0,62,62,22,1,fourtwo,,,,,,,,,,,,,,,,,,,,,,,,,,,,,,,,,,,,,,,,,,,,,,,,,,,,,,,,,,,,,,,,,,,,,,,,,,,,,,,,,,,,,,,,,,,,,,,,,,,,,,,,,,,,,,,,,,,,,,,,,,,,,,,,,,,,,,,,,,,,,,,,,,,,,,,,,,,,,
,,,,,,5ff0a3d22c2ee6fa5d47c312,62c53993dd89adad07129e57,2022-07-06_09h32.35.733,Colour_Asymmetry_Pilot,2022.1.3,Win32,143.1434297,62c50e9c1127f2cd403a315f,0,63,63,140,1,threeone,,,,,,,,,,,,,,,,,,,,,,,,,,,,,,,,,,,,,,,,,,,,,,,,,,,,,,,,,,,,,,,,,,,,,,,,,,,,,,,,,,,,,,,,,,,,,,,,,,,,,,,,,,,,,,,,,,,,,,,,,,,,,,,,,,,,,,,,,,,,,,,,,,,,,,,,,,,,,
,,,,,,5ff0a3d22c2ee6fa5d47c312,62c53993dd89adad07129e57,2022-07-06_09h32.35.733,Colour_Asymmetry_Pilot,2022.1.3,Win32,143.1434297,62c50e9c1127f2cd403a315f,0,64,64,23,1,fourthree,,,,,,,,,,,,,,,,,,,,,,,,,,,,,,,,,,,,,,,,,,,,,,,,,,,,,,,,,,,,,,,,,,,,,,,,,,,,,,,,,,,,,,,,,,,,,,,,,,,,,,,,,,,,,,,,,,,,,,,,,,,,,,,,,,,,,,,,,,,,,,,,,,,,,,,,,,,,,
,,,,,,5ff0a3d22c2ee6fa5d47c312,62c53993dd89adad07129e57,2022-07-06_09h32.35.733,Colour_Asymmetry_Pilot,2022.1.3,Win32,143.1434297,62c50e9c1127f2cd403a315f,0,65,65,53,1,threefour,,,,,,,,,,,,,,,,,,,,,,,,,,,,,,,,,,,,,,,,,,,,,,,,,,,,,,,,,,,,,,,,,,,,,,,,,,,,,,,,,,,,,,,,,,,,,,,,,,,,,,,,,,,,,,,,,,,,,,,,,,,,,,,,,,,,,,,,,,,,,,,,,,,,,,,,,,,,,
,,,,,,5ff0a3d22c2ee6fa5d47c312,62c53993dd89adad07129e57,2022-07-06_09h32.35.733,Colour_Asymmetry_Pilot,2022.1.3,Win32,143.1434297,62c50e9c1127f2cd403a315f,0,66,66,2,1,twoone,,,,,,,,,,,,,,,,,,,,,,,,,,,,,,,,,,,,,,,,,,,,,,,,,,,,,,,,,,,,,,,,,,,,,,,,,,,,,,,,,,,,,,,,,,,,,,,,,,,,,,,,,,,,,,,,,,,,,,,,,,,,,,,,,,,,,,,,,,,,,,,,,,,,,,,,,,,,,
,,,,,,5ff0a3d22c2ee6fa5d47c312,62c53993dd89adad07129e57,2022-07-06_09h32.35.733,Colour_Asymmetry_Pilot,2022.1.3,Win32,143.1434297,62c50e9c1127f2cd403a315f,0,67,67,150,1,fourtwo,,,,,,,,,,,,,,,,,,,,,,,,,,,,,,,,,,,,,,,,,,,,,,,,,,,,,,,,,,,,,,,,,,,,,,,,,,,,,,,,,,,,,,,,,,,,,,,,,,,,,,,,,,,,,,,,,,,,,,,,,,,,,,,,,,,,,,,,,,,,,,,,,,,,,,,,,,,,,
,,,,,,5ff0a3d22c2ee6fa5d47c312,62c53993dd89adad07129e57,2022-07-06_09h32.35.733,Colour_Asymmetry_Pilot,2022.1.3,Win32,143.1434297,62c50e9c1127f2cd403a315f,0,68,68,98,1,twoone,,,,,,,,,,,,,,,,,,,,,,,,,,,,,,,,,,,,,,,,,,,,,,,,,,,,,,,,,,,,,,,,,,,,,,,,,,,,,,,,,,,,,,,,,,,,,,,,,,,,,,,,,,,,,,,,,,,,,,,,,,,,,,,,,,,,,,,,,,,,,,,,,,,,,,,,,,,,,
,,,,,,5ff0a3d22c2ee6fa5d47c312,62c53993dd89adad07129e57,2022-07-06_09h32.35.733,Colour_Asymmetry_Pilot,2022.1.3,Win32,143.1434297,62c50e9c1127f2cd403a315f,0,69,69,103,1,fourthree,,,,,,,,,,,,,,,,,,,,,,,,,,,,,,,,,,,,,,,,,,,,,,,,,,,,,,,,,,,,,,,,,,,,,,,,,,,,,,,,,,,,,,,,,,,,,,,,,,,,,,,,,,,,,,,,,,,,,,,,,,,,,,,,,,,,,,,,,,,,,,,,,,,,,,,,,,,,,
,,,,,,5ff0a3d22c2ee6fa5d47c312,62c53993dd89adad07129e57,2022-07-06_09h32.35.733,Colour_Asymmetry_Pilot,2022.1.3,Win32,143.1434297,62c50e9c1127f2cd403a315f,0,70,70,141,1,threefour,,,,,,,,,,,,,,,,,,,,,,,,,,,,,,,,,,,,,,,,,,,,,,,,,,,,,,,,,,,,,,,,,,,,,,,,,,,,,,,,,,,,,,,,,,,,,,,,,,,,,,,,,,,,,,,,,,,,,,,,,,,,,,,,,,,,,,,,,,,,,,,,,,,,,,,,,,,,,
,,,,,,5ff0a3d22c2ee6fa5d47c312,62c53993dd89adad07129e57,2022-07-06_09h32.35.733,Colour_Asymmetry_Pilot,2022.1.3,Win32,143.1434297,62c50e9c1127f2cd403a315f,0,71,71,77,1,threefour,,,,,,,,,,,,,,,,,,,,,,,,,,,,,,,,,,,,,,,,,,,,,,,,,,,,,,,,,,,,,,,,,,,,,,,,,,,,,,,,,,,,,,,,,,,,,,,,,,,,,,,,,,,,,,,,,,,,,,,,,,,,,,,,,,,,,,,,,,,,,,,,,,,,,,,,,,,,,
,,,,,,5ff0a3d22c2ee6fa5d47c312,62c53993dd89adad07129e57,2022-07-06_09h32.35.733,Colour_Asymmetry_Pilot,2022.1.3,Win32,143.1434297,62c50e9c1127f2cd403a315f,0,72,72,39,1,fourthree,,,,,,,,,,,,,,,,,,,,,,,,,,,,,,,,,,,,,,,,,,,,,,,,,,,,,,,,,,,,,,,,,,,,,,,,,,,,,,,,,,,,,,,,,,,,,,,,,,,,,,,,,,,,,,,,,,,,,,,,,,,,,,,,,,,,,,,,,,,,,,,,,,,,,,,,,,,,,
,,,,,,5ff0a3d22c2ee6fa5d47c312,62c53993dd89adad07129e57,2022-07-06_09h32.35.733,Colour_Asymmetry_Pilot,2022.1.3,Win32,143.1434297,62c50e9c1127f2cd403a315f,0,73,73,143,1,fourthree,,,,,,,,,,,,,,,,,,,,,,,,,,,,,,,,,,,,,,,,,,,,,,,,,,,,,,,,,,,,,,,,,,,,,,,,,,,,,,,,,,,,,,,,,,,,,,,,,,,,,,,,,,,,,,,,,,,,,,,,,,,,,,,,,,,,,,,,,,,,,,,,,,,,,,,,,,,,,
,,,,,,5ff0a3d22c2ee6fa5d47c312,62c53993dd89adad07129e57,2022-07-06_09h32.35.733,Colour_Asymmetry_Pilot,2022.1.3,Win32,143.1434297,62c50e9c1127f2cd403a315f,0,74,74,94,1,fourtwo,,,,,,,,,,,,,,,,,,,,,,,,,,,,,,,,,,,,,,,,,,,,,,,,,,,,,,,,,,,,,,,,,,,,,,,,,,,,,,,,,,,,,,,,,,,,,,,,,,,,,,,,,,,,,,,,,,,,,,,,,,,,,,,,,,,,,,,,,,,,,,,,,,,,,,,,,,,,,
,,,,,,5ff0a3d22c2ee6fa5d47c312,62c53993dd89adad07129e57,2022-07-06_09h32.35.733,Colour_Asymmetry_Pilot,2022.1.3,Win32,143.1434297,62c50e9c1127f2cd403a315f,0,75,75,24,1,onetwo,,,,,,,,,,,,,,,,,,,,,,,,,,,,,,,,,,,,,,,,,,,,,,,,,,,,,,,,,,,,,,,,,,,,,,,,,,,,,,,,,,,,,,,,,,,,,,,,,,,,,,,,,,,,,,,,,,,,,,,,,,,,,,,,,,,,,,,,,,,,,,,,,,,,,,,,,,,,,
,,,,,,5ff0a3d22c2ee6fa5d47c312,62c53993dd89adad07129e57,2022-07-06_09h32.35.733,Colour_Asymmetry_Pilot,2022.1.3,Win32,143.1434297,62c50e9c1127f2cd403a315f,0,76,76,157,1,threefour,,,,,,,,,,,,,,,,,,,,,,,,,,,,,,,,,,,,,,,,,,,,,,,,,,,,,,,,,,,,,,,,,,,,,,,,,,,,,,,,,,,,,,,,,,,,,,,,,,,,,,,,,,,,,,,,,,,,,,,,,,,,,,,,,,,,,,,,,,,,,,,,,,,,,,,,,,,,,
,,,,,,5ff0a3d22c2ee6fa5d47c312,62c53993dd89adad07129e57,2022-07-06_09h32.35.733,Colour_Asymmetry_Pilot,2022.1.3,Win32,143.1434297,62c50e9c1127f2cd403a315f,0,77,77,71,1,fourthree,,,,,,,,,,,,,,,,,,,,,,,,,,,,,,,,,,,,,,,,,,,,,,,,,,,,,,,,,,,,,,,,,,,,,,,,,,,,,,,,,,,,,,,,,,,,,,,,,,,,,,,,,,,,,,,,,,,,,,,,,,,,,,,,,,,,,,,,,,,,,,,,,,,,,,,,,,,,,
,,,,,,5ff0a3d22c2ee6fa5d47c312,62c53993dd89adad07129e57,2022-07-06_09h32.35.733,Colour_Asymmetry_Pilot,2022.1.3,Win32,143.1434297,62c50e9c1127f2cd403a315f,0,78,78,55,1,fourthree,,,,,,,,,,,,,,,,,,,,,,,,,,,,,,,,,,,,,,,,,,,,,,,,,,,,,,,,,,,,,,,,,,,,,,,,,,,,,,,,,,,,,,,,,,,,,,,,,,,,,,,,,,,,,,,,,,,,,,,,,,,,,,,,,,,,,,,,,,,,,,,,,,,,,,,,,,,,,
,,,,,,5ff0a3d22c2ee6fa5d47c312,62c53993dd89adad07129e57,2022-07-06_09h32.35.733,Colour_Asymmetry_Pilot,2022.1.3,Win32,143.1434297,62c50e9c1127f2cd403a315f,0,79,79,114,1,twoone,,,,,,,,,,,,,,,,,,,,,,,,,,,,,,,,,,,,,,,,,,,,,,,,,,,,,,,,,,,,,,,,,,,,,,,,,,,,,,,,,,,,,,,,,,,,,,,,,,,,,,,,,,,,,,,,,,,,,,,,,,,,,,,,,,,,,,,,,,,,,,,,,,,,,,,,,,,,,
,,,,,,5ff0a3d22c2ee6fa5d47c312,62c53993dd89adad07129e57,2022-07-06_09h32.35.733,Colour_Asymmetry_Pilot,2022.1.3,Win32,143.1434297,62c50e9c1127f2cd403a315f,0,80,80,144,1,onetwo,,,,,,,,,,,,,,,,,,,,,,,,,,,,,,,,,,,,,,,,,,,,,,,,,,,,,,,,,,,,,,,,,,,,,,,,,,,,,,,,,,,,,,,,,,,,,,,,,,,,,,,,,,,,,,,,,,,,,,,,,,,,,,,,,,,,,,,,,,,,,,,,,,,,,,,,,,,,,
,,,,,,5ff0a3d22c2ee6fa5d47c312,62c53993dd89adad07129e57,2022-07-06_09h32.35.733,Colour_Asymmetry_Pilot,2022.1.3,Win32,143.1434297,62c50e9c1127f2cd403a315f,0,81,81,37,1,threefour,,,,,,,,,,,,,,,,,,,,,,,,,,,,,,,,,,,,,,,,,,,,,,,,,,,,,,,,,,,,,,,,,,,,,,,,,,,,,,,,,,,,,,,,,,,,,,,,,,,,,,,,,,,,,,,,,,,,,,,,,,,,,,,,,,,,,,,,,,,,,,,,,,,,,,,,,,,,,
,,,,,,5ff0a3d22c2ee6fa5d47c312,62c53993dd89adad07129e57,2022-07-06_09h32.35.733,Colour_Asymmetry_Pilot,2022.1.3,Win32,143.1434297,62c50e9c1127f2cd403a315f,0,82,82,75,1,twofour,,,,,,,,,,,,,,,,,,,,,,,,,,,,,,,,,,,,,,,,,,,,,,,,,,,,,,,,,,,,,,,,,,,,,,,,,,,,,,,,,,,,,,,,,,,,,,,,,,,,,,,,,,,,,,,,,,,,,,,,,,,,,,,,,,,,,,,,,,,,,,,,,,,,,,,,,,,,,
,,,,,,5ff0a3d22c2ee6fa5d47c312,62c53993dd89adad07129e57,2022-07-06_09h32.35.733,Colour_Asymmetry_Pilot,2022.1.3,Win32,143.1434297,62c50e9c1127f2cd403a315f,0,83,83,43,1,twofour,,,,,,,,,,,,,,,,,,,,,,,,,,,,,,,,,,,,,,,,,,,,,,,,,,,,,,,,,,,,,,,,,,,,,,,,,,,,,,,,,,,,,,,,,,,,,,,,,,,,,,,,,,,,,,,,,,,,,,,,,,,,,,,,,,,,,,,,,,,,,,,,,,,,,,,,,,,,,
,,,,,,5ff0a3d22c2ee6fa5d47c312,62c53993dd89adad07129e57,2022-07-06_09h32.35.733,Colour_Asymmetry_Pilot,2022.1.3,Win32,143.1434297,62c50e9c1127f2cd403a315f,0,84,84,130,1,twoone,,,,,,,,,,,,,,,,,,,,,,,,,,,,,,,,,,,,,,,,,,,,,,,,,,,,,,,,,,,,,,,,,,,,,,,,,,,,,,,,,,,,,,,,,,,,,,,,,,,,,,,,,,,,,,,,,,,,,,,,,,,,,,,,,,,,,,,,,,,,,,,,,,,,,,,,,,,,,
,,,,,,5ff0a3d22c2ee6fa5d47c312,62c53993dd89adad07129e57,2022-07-06_09h32.35.733,Colour_Asymmetry_Pilot,2022.1.3,Win32,143.1434297,62c50e9c1127f2cd403a315f,0,85,85,151,1,fourthree,,,,,,,,,,,,,,,,,,,,,,,,,,,,,,,,,,,,,,,,,,,,,,,,,,,,,,,,,,,,,,,,,,,,,,,,,,,,,,,,,,,,,,,,,,,,,,,,,,,,,,,,,,,,,,,,,,,,,,,,,,,,,,,,,,,,,,,,,,,,,,,,,,,,,,,,,,,,,
,,,,,,5ff0a3d22c2ee6fa5d47c312,62c53993dd89adad07129e57,2022-07-06_09h32.35.733,Colour_Asymmetry_Pilot,2022.1.3,Win32,143.1434297,62c50e9c1127f2cd403a315f,0,86,86,74,1,twoone,,,,,,,,,,,,,,,,,,,,,,,,,,,,,,,,,,,,,,,,,,,,,,,,,,,,,,,,,,,,,,,,,,,,,,,,,,,,,,,,,,,,,,,,,,,,,,,,,,,,,,,,,,,,,,,,,,,,,,,,,,,,,,,,,,,,,,,,,,,,,,,,,,,,,,,,,,,,,
,,,,,,5ff0a3d22c2ee6fa5d47c312,62c53993dd89adad07129e57,2022-07-06_09h32.35.733,Colour_Asymmetry_Pilot,2022.1.3,Win32,143.1434297,62c50e9c1127f2cd403a315f,0,87,87,85,1,threefour,,,,,,,,,,,,,,,,,,,,,,,,,,,,,,,,,,,,,,,,,,,,,,,,,,,,,,,,,,,,,,,,,,,,,,,,,,,,,,,,,,,,,,,,,,,,,,,,,,,,,,,,,,,,,,,,,,,,,,,,,,,,,,,,,,,,,,,,,,,,,,,,,,,,,,,,,,,,,
,,,,,,5ff0a3d22c2ee6fa5d47c312,62c53993dd89adad07129e57,2022-07-06_09h32.35.733,Colour_Asymmetry_Pilot,2022.1.3,Win32,143.1434297,62c50e9c1127f2cd403a315f,0,88,88,104,1,onetwo,,,,,,,,,,,,,,,,,,,,,,,,,,,,,,,,,,,,,,,,,,,,,,,,,,,,,,,,,,,,,,,,,,,,,,,,,,,,,,,,,,,,,,,,,,,,,,,,,,,,,,,,,,,,,,,,,,,,,,,,,,,,,,,,,,,,,,,,,,,,,,,,,,,,,,,,,,,,,
,,,,,,5ff0a3d22c2ee6fa5d47c312,62c53993dd89adad07129e57,2022-07-06_09h32.35.733,Colour_Asymmetry_Pilot,2022.1.3,Win32,143.1434297,62c50e9c1127f2cd403a315f,0,89,89,136,1,onetwo,,,,,,,,,,,,,,,,,,,,,,,,,,,,,,,,,,,,,,,,,,,,,,,,,,,,,,,,,,,,,,,,,,,,,,,,,,,,,,,,,,,,,,,,,,,,,,,,,,,,,,,,,,,,,,,,,,,,,,,,,,,,,,,,,,,,,,,,,,,,,,,,,,,,,,,,,,,,,
,,,,,,5ff0a3d22c2ee6fa5d47c312,62c53993dd89adad07129e57,2022-07-06_09h32.35.733,Colour_Asymmetry_Pilot,2022.1.3,Win32,143.1434297,62c50e9c1127f2cd403a315f,0,90,90,80,1,onetwo,,,,,,,,,,,,,,,,,,,,,,,,,,,,,,,,,,,,,,,,,,,,,,,,,,,,,,,,,,,,,,,,,,,,,,,,,,,,,,,,,,,,,,,,,,,,,,,,,,,,,,,,,,,,,,,,,,,,,,,,,,,,,,,,,,,,,,,,,,,,,,,,,,,,,,,,,,,,,
,,,,,,5ff0a3d22c2ee6fa5d47c312,62c53993dd89adad07129e57,2022-07-06_09h32.35.733,Colour_Asymmetry_Pilot,2022.1.3,Win32,143.1434297,62c50e9c1127f2cd403a315f,0,91,91,36,1,threeone,,,,,,,,,,,,,,,,,,,,,,,,,,,,,,,,,,,,,,,,,,,,,,,,,,,,,,,,,,,,,,,,,,,,,,,,,,,,,,,,,,,,,,,,,,,,,,,,,,,,,,,,,,,,,,,,,,,,,,,,,,,,,,,,,,,,,,,,,,,,,,,,,,,,,,,,,,,,,
,,,,,,5ff0a3d22c2ee6fa5d47c312,62c53993dd89adad07129e57,2022-07-06_09h32.35.733,Colour_Asymmetry_Pilot,2022.1.3,Win32,143.1434297,62c50e9c1127f2cd403a315f,0,92,92,161,1,onethree,,,,,,,,,,,,,,,,,,,,,,,,,,,,,,,,,,,,,,,,,,,,,,,,,,,,,,,,,,,,,,,,,,,,,,,,,,,,,,,,,,,,,,,,,,,,,,,,,,,,,,,,,,,,,,,,,,,,,,,,,,,,,,,,,,,,,,,,,,,,,,,,,,,,,,,,,,,,,
,,,,,,5ff0a3d22c2ee6fa5d47c312,62c53993dd89adad07129e57,2022-07-06_09h32.35.733,Colour_Asymmetry_Pilot,2022.1.3,Win32,143.1434297,62c50e9c1127f2cd403a315f,0,93,93,117,1,threefour,,,,,,,,,,,,,,,,,,,,,,,,,,,,,,,,,,,,,,,,,,,,,,,,,,,,,,,,,,,,,,,,,,,,,,,,,,,,,,,,,,,,,,,,,,,,,,,,,,,,,,,,,,,,,,,,,,,,,,,,,,,,,,,,,,,,,,,,,,,,,,,,,,,,,,,,,,,,,
,,,,,,5ff0a3d22c2ee6fa5d47c312,62c53993dd89adad07129e57,2022-07-06_09h32.35.733,Colour_Asymmetry_Pilot,2022.1.3,Win32,143.1434297,62c50e9c1127f2cd403a315f,0,94,94,13,1,threefour,,,,,,,,,,,,,,,,,,,,,,,,,,,,,,,,,,,,,,,,,,,,,,,,,,,,,,,,,,,,,,,,,,,,,,,,,,,,,,,,,,,,,,,,,,,,,,,,,,,,,,,,,,,,,,,,,,,,,,,,,,,,,,,,,,,,,,,,,,,,,,,,,,,,,,,,,,,,,
,,,,,,5ff0a3d22c2ee6fa5d47c312,62c53993dd89adad07129e57,2022-07-06_09h32.35.733,Colour_Asymmetry_Pilot,2022.1.3,Win32,143.1434297,62c50e9c1127f2cd403a315f,0,95,95,153,1,onethree,,,,,,,,,,,,,,,,,,,,,,,,,,,,,,,,,,,,,,,,,,,,,,,,,,,,,,,,,,,,,,,,,,,,,,,,,,,,,,,,,,,,,,,,,,,,,,,,,,,,,,,,,,,,,,,,,,,,,,,,,,,,,,,,,,,,,,,,,,,,,,,,,,,,,,,,,,,,,
,,,,,,5ff0a3d22c2ee6fa5d47c312,62c53993dd89adad07129e57,2022-07-06_09h32.35.733,Colour_Asymmetry_Pilot,2022.1.3,Win32,143.1434297,62c50e9c1127f2cd403a315f,0,96,96,65,1,onethree,,,,,,,,,,,,,,,,,,,,,,,,,,,,,,,,,,,,,,,,,,,,,,,,,,,,,,,,,,,,,,,,,,,,,,,,,,,,,,,,,,,,,,,,,,,,,,,,,,,,,,,,,,,,,,,,,,,,,,,,,,,,,,,,,,,,,,,,,,,,,,,,,,,,,,,,,,,,,
,,,,,,5ff0a3d22c2ee6fa5d47c312,62c53993dd89adad07129e57,2022-07-06_09h32.35.733,Colour_Asymmetry_Pilot,2022.1.3,Win32,143.1434297,62c50e9c1127f2cd403a315f,0,97,97,116,1,threeone,,,,,,,,,,,,,,,,,,,,,,,,,,,,,,,,,,,,,,,,,,,,,,,,,,,,,,,,,,,,,,,,,,,,,,,,,,,,,,,,,,,,,,,,,,,,,,,,,,,,,,,,,,,,,,,,,,,,,,,,,,,,,,,,,,,,,,,,,,,,,,,,,,,,,,,,,,,,,
,,,,,,5ff0a3d22c2ee6fa5d47c312,62c53993dd89adad07129e57,2022-07-06_09h32.35.733,Colour_Asymmetry_Pilot,2022.1.3,Win32,143.1434297,62c50e9c1127f2cd403a315f,0,98,98,70,1,fourtwo,,,,,,,,,,,,,,,,,,,,,,,,,,,,,,,,,,,,,,,,,,,,,,,,,,,,,,,,,,,,,,,,,,,,,,,,,,,,,,,,,,,,,,,,,,,,,,,,,,,,,,,,,,,,,,,,,,,,,,,,,,,,,,,,,,,,,,,,,,,,,,,,,,,,,,,,,,,,,
,,,,,,5ff0a3d22c2ee6fa5d47c312,62c53993dd89adad07129e57,2022-07-06_09h32.35.733,Colour_Asymmetry_Pilot,2022.1.3,Win32,143.1434297,62c50e9c1127f2cd403a315f,0,99,99,66,1,twoone,,,,,,,,,,,,,,,,,,,,,,,,,,,,,,,,,,,,,,,,,,,,,,,,,,,,,,,,,,,,,,,,,,,,,,,,,,,,,,,,,,,,,,,,,,,,,,,,,,,,,,,,,,,,,,,,,,,,,,,,,,,,,,,,,,,,,,,,,,,,,,,,,,,,,,,,,,,,,
,,,,,,5ff0a3d22c2ee6fa5d47c312,62c53993dd89adad07129e57,2022-07-06_09h32.35.733,Colour_Asymmetry_Pilot,2022.1.3,Win32,143.1434297,62c50e9c1127f2cd403a315f,0,100,100,101,1,threefour,,,,,,,,,,,,,,,,,,,,,,,,,,,,,,,,,,,,,,,,,,,,,,,,,,,,,,,,,,,,,,,,,,,,,,,,,,,,,,,,,,,,,,,,,,,,,,,,,,,,,,,,,,,,,,,,,,,,,,,,,,,,,,,,,,,,,,,,,,,,,,,,,,,,,,,,,,,,,
,,,,,,5ff0a3d22c2ee6fa5d47c312,62c53993dd89adad07129e57,2022-07-06_09h32.35.733,Colour_Asymmetry_Pilot,2022.1.3,Win32,143.1434297,62c50e9c1127f2cd403a315f,0,101,101,110,1,fourtwo,,,,,,,,,,,,,,,,,,,,,,,,,,,,,,,,,,,,,,,,,,,,,,,,,,,,,,,,,,,,,,,,,,,,,,,,,,,,,,,,,,,,,,,,,,,,,,,,,,,,,,,,,,,,,,,,,,,,,,,,,,,,,,,,,,,,,,,,,,,,,,,,,,,,,,,,,,,,,
,,,,,,5ff0a3d22c2ee6fa5d47c312,62c53993dd89adad07129e57,2022-07-06_09h32.35.733,Colour_Asymmetry_Pilot,2022.1.3,Win32,143.1434297,62c50e9c1127f2cd403a315f,0,102,102,27,1,twofour,,,,,,,,,,,,,,,,,,,,,,,,,,,,,,,,,,,,,,,,,,,,,,,,,,,,,,,,,,,,,,,,,,,,,,,,,,,,,,,,,,,,,,,,,,,,,,,,,,,,,,,,,,,,,,,,,,,,,,,,,,,,,,,,,,,,,,,,,,,,,,,,,,,,,,,,,,,,,
,,,,,,5ff0a3d22c2ee6fa5d47c312,62c53993dd89adad07129e57,2022-07-06_09h32.35.733,Colour_Asymmetry_Pilot,2022.1.3,Win32,143.1434297,62c50e9c1127f2cd403a315f,0,103,103,45,1,threefour,,,,,,,,,,,,,,,,,,,,,,,,,,,,,,,,,,,,,,,,,,,,,,,,,,,,,,,,,,,,,,,,,,,,,,,,,,,,,,,,,,,,,,,,,,,,,,,,,,,,,,,,,,,,,,,,,,,,,,,,,,,,,,,,,,,,,,,,,,,,,,,,,,,,,,,,,,,,,
,,,,,,5ff0a3d22c2ee6fa5d47c312,62c53993dd89adad07129e57,2022-07-06_09h32.35.733,Colour_Asymmetry_Pilot,2022.1.3,Win32,143.1434297,62c50e9c1127f2cd403a315f,0,104,104,100,1,threeone,,,,,,,,,,,,,,,,,,,,,,,,,,,,,,,,,,,,,,,,,,,,,,,,,,,,,,,,,,,,,,,,,,,,,,,,,,,,,,,,,,,,,,,,,,,,,,,,,,,,,,,,,,,,,,,,,,,,,,,,,,,,,,,,,,,,,,,,,,,,,,,,,,,,,,,,,,,,,
,,,,,,5ff0a3d22c2ee6fa5d47c312,62c53993dd89adad07129e57,2022-07-06_09h32.35.733,Colour_Asymmetry_Pilot,2022.1.3,Win32,143.1434297,62c50e9c1127f2cd403a315f,0,105,105,0,1,onetwo,,,,,,,,,,,,,,,,,,,,,,,,,,,,,,,,,,,,,,,,,,,,,,,,,,,,,,,,,,,,,,,,,,,,,,,,,,,,,,,,,,,,,,,,,,,,,,,,,,,,,,,,,,,,,,,,,,,,,,,,,,,,,,,,,,,,,,,,,,,,,,,,,,,,,,,,,,,,,
,,,,,,5ff0a3d22c2ee6fa5d47c312,62c53993dd89adad07129e57,2022-07-06_09h32.35.733,Colour_Asymmetry_Pilot,2022.1.3,Win32,143.1434297,62c50e9c1127f2cd403a315f,0,106,106,63,1,fourthree,,,,,,,,,,,,,,,,,,,,,,,,,,,,,,,,,,,,,,,,,,,,,,,,,,,,,,,,,,,,,,,,,,,,,,,,,,,,,,,,,,,,,,,,,,,,,,,,,,,,,,,,,,,,,,,,,,,,,,,,,,,,,,,,,,,,,,,,,,,,,,,,,,,,,,,,,,,,,
,,,,,,5ff0a3d22c2ee6fa5d47c312,62c53993dd89adad07129e57,2022-07-06_09h32.35.733,Colour_Asymmetry_Pilot,2022.1.3,Win32,143.1434297,62c50e9c1127f2cd403a315f,0,107,107,49,1,onethree,,,,,,,,,,,,,,,,,,,,,,,,,,,,,,,,,,,,,,,,,,,,,,,,,,,,,,,,,,,,,,,,,,,,,,,,,,,,,,,,,,,,,,,,,,,,,,,,,,,,,,,,,,,,,,,,,,,,,,,,,,,,,,,,,,,,,,,,,,,,,,,,,,,,,,,,,,,,,
,,,,,,5ff0a3d22c2ee6fa5d47c312,62c53993dd89adad07129e57,2022-07-06_09h32.35.733,Colour_Asymmetry_Pilot,2022.1.3,Win32,143.1434297,62c50e9c1127f2cd403a315f,0,108,108,59,1,twofour,,,,,,,,,,,,,,,,,,,,,,,,,,,,,,,,,,,,,,,,,,,,,,,,,,,,,,,,,,,,,,,,,,,,,,,,,,,,,,,,,,,,,,,,,,,,,,,,,,,,,,,,,,,,,,,,,,,,,,,,,,,,,,,,,,,,,,,,,,,,,,,,,,,,,,,,,,,,,
,,,,,,5ff0a3d22c2ee6fa5d47c312,62c53993dd89adad07129e57,2022-07-06_09h32.35.733,Colour_Asymmetry_Pilot,2022.1.3,Win32,143.1434297,62c50e9c1127f2cd403a315f,0,109,109,78,1,fourtwo,,,,,,,,,,,,,,,,,,,,,,,,,,,,,,,,,,,,,,,,,,,,,,,,,,,,,,,,,,,,,,,,,,,,,,,,,,,,,,,,,,,,,,,,,,,,,,,,,,,,,,,,,,,,,,,,,,,,,,,,,,,,,,,,,,,,,,,,,,,,,,,,,,,,,,,,,,,,,
,,,,,,5ff0a3d22c2ee6fa5d47c312,62c53993dd89adad07129e57,2022-07-06_09h32.35.733,Colour_Asymmetry_Pilot,2022.1.3,Win32,143.1434297,62c50e9c1127f2cd403a315f,0,110,110,108,1,threeone,,,,,,,,,,,,,,,,,,,,,,,,,,,,,,,,,,,,,,,,,,,,,,,,,,,,,,,,,,,,,,,,,,,,,,,,,,,,,,,,,,,,,,,,,,,,,,,,,,,,,,,,,,,,,,,,,,,,,,,,,,,,,,,,,,,,,,,,,,,,,,,,,,,,,,,,,,,,,
,,,,,,5ff0a3d22c2ee6fa5d47c312,62c53993dd89adad07129e57,2022-07-06_09h32.35.733,Colour_Asymmetry_Pilot,2022.1.3,Win32,143.1434297,62c50e9c1127f2cd403a315f,0,111,111,5,1,threefour,,,,,,,,,,,,,,,,,,,,,,,,,,,,,,,,,,,,,,,,,,,,,,,,,,,,,,,,,,,,,,,,,,,,,,,,,,,,,,,,,,,,,,,,,,,,,,,,,,,,,,,,,,,,,,,,,,,,,,,,,,,,,,,,,,,,,,,,,,,,,,,,,,,,,,,,,,,,,
,,,,,,5ff0a3d22c2ee6fa5d47c312,62c53993dd89adad07129e57,2022-07-06_09h32.35.733,Colour_Asymmetry_Pilot,2022.1.3,Win32,143.1434297,62c50e9c1127f2cd403a315f,0,112,112,142,1,fourtwo,,,,,,,,,,,,,,,,,,,,,,,,,,,,,,,,,,,,,,,,,,,,,,,,,,,,,,,,,,,,,,,,,,,,,,,,,,,,,,,,,,,,,,,,,,,,,,,,,,,,,,,,,,,,,,,,,,,,,,,,,,,,,,,,,,,,,,,,,,,,,,,,,,,,,,,,,,,,,
,,,,,,5ff0a3d22c2ee6fa5d47c312,62c53993dd89adad07129e57,2022-07-06_09h32.35.733,Colour_Asymmetry_Pilot,2022.1.3,Win32,143.1434297,62c50e9c1127f2cd403a315f,0,113,113,154,1,twoone,,,,,,,,,,,,,,,,,,,,,,,,,,,,,,,,,,,,,,,,,,,,,,,,,,,,,,,,,,,,,,,,,,,,,,,,,,,,,,,,,,,,,,,,,,,,,,,,,,,,,,,,,,,,,,,,,,,,,,,,,,,,,,,,,,,,,,,,,,,,,,,,,,,,,,,,,,,,,
,,,,,,5ff0a3d22c2ee6fa5d47c312,62c53993dd89adad07129e57,2022-07-06_09h32.35.733,Colour_Asymmetry_Pilot,2022.1.3,Win32,143.1434297,62c50e9c1127f2cd403a315f,0,114,114,129,1,onethree,,,,,,,,,,,,,,,,,,,,,,,,,,,,,,,,,,,,,,,,,,,,,,,,,,,,,,,,,,,,,,,,,,,,,,,,,,,,,,,,,,,,,,,,,,,,,,,,,,,,,,,,,,,,,,,,,,,,,,,,,,,,,,,,,,,,,,,,,,,,,,,,,,,,,,,,,,,,,
,,,,,,5ff0a3d22c2ee6fa5d47c312,62c53993dd89adad07129e57,2022-07-06_09h32.35.733,Colour_Asymmetry_Pilot,2022.1.3,Win32,143.1434297,62c50e9c1127f2cd403a315f,0,115,115,9,1,onethree,,,,,,,,,,,,,,,,,,,,,,,,,,,,,,,,,,,,,,,,,,,,,,,,,,,,,,,,,,,,,,,,,,,,,,,,,,,,,,,,,,,,,,,,,,,,,,,,,,,,,,,,,,,,,,,,,,,,,,,,,,,,,,,,,,,,,,,,,,,,,,,,,,,,,,,,,,,,,
,,,,,,5ff0a3d22c2ee6fa5d47c312,62c53993dd89adad07129e57,2022-07-06_09h32.35.733,Colour_Asymmetry_Pilot,2022.1.3,Win32,143.1434297,62c50e9c1127f2cd403a315f,0,116,116,30,1,fourtwo,,,,,,,,,,,,,,,,,,,,,,,,,,,,,,,,,,,,,,,,,,,,,,,,,,,,,,,,,,,,,,,,,,,,,,,,,,,,,,,,,,,,,,,,,,,,,,,,,,,,,,,,,,,,,,,,,,,,,,,,,,,,,,,,,,,,,,,,,,,,,,,,,,,,,,,,,,,,,
,,,,,,5ff0a3d22c2ee6fa5d47c312,62c53993dd89adad07129e57,2022-07-06_09h32.35.733,Colour_Asymmetry_Pilot,2022.1.3,Win32,143.1434297,62c50e9c1127f2cd403a315f,0,117,117,92,1,threeone,,,,,,,,,,,,,,,,,,,,,,,,,,,,,,,,,,,,,,,,,,,,,,,,,,,,,,,,,,,,,,,,,,,,,,,,,,,,,,,,,,,,,,,,,,,,,,,,,,,,,,,,,,,,,,,,,,,,,,,,,,,,,,,,,,,,,,,,,,,,,,,,,,,,,,,,,,,,,
,,,,,,5ff0a3d22c2ee6fa5d47c312,62c53993dd89adad07129e57,2022-07-06_09h32.35.733,Colour_Asymmetry_Pilot,2022.1.3,Win32,143.1434297,62c50e9c1127f2cd403a315f,0,118,118,134,1,fourtwo,,,,,,,,,,,,,,,,,,,,,,,,,,,,,,,,,,,,,,,,,,,,,,,,,,,,,,,,,,,,,,,,,,,,,,,,,,,,,,,,,,,,,,,,,,,,,,,,,,,,,,,,,,,,,,,,,,,,,,,,,,,,,,,,,,,,,,,,,,,,,,,,,,,,,,,,,,,,,
,,,,,,5ff0a3d22c2ee6fa5d47c312,62c53993dd89adad07129e57,2022-07-06_09h32.35.733,Colour_Asymmetry_Pilot,2022.1.3,Win32,143.1434297,62c50e9c1127f2cd403a315f,0,119,119,89,1,onethree,,,,,,,,,,,,,,,,,,,,,,,,,,,,,,,,,,,,,,,,,,,,,,,,,,,,,,,,,,,,,,,,,,,,,,,,,,,,,,,,,,,,,,,,,,,,,,,,,,,,,,,,,,,,,,,,,,,,,,,,,,,,,,,,,,,,,,,,,,,,,,,,,,,,,,,,,,,,,
,,,,,,5ff0a3d22c2ee6fa5d47c312,62c53993dd89adad07129e57,2022-07-06_09h32.35.733,Colour_Asymmetry_Pilot,2022.1.3,Win32,143.1434297,62c50e9c1127f2cd403a315f,0,120,120,48,1,onetwo,,,,,,,,,,,,,,,,,,,,,,,,,,,,,,,,,,,,,,,,,,,,,,,,,,,,,,,,,,,,,,,,,,,,,,,,,,,,,,,,,,,,,,,,,,,,,,,,,,,,,,,,,,,,,,,,,,,,,,,,,,,,,,,,,,,,,,,,,,,,,,,,,,,,,,,,,,,,,
,,,,,,5ff0a3d22c2ee6fa5d47c312,62c53993dd89adad07129e57,2022-07-06_09h32.35.733,Colour_Asymmetry_Pilot,2022.1.3,Win32,143.1434297,62c50e9c1127f2cd403a315f,0,121,121,67,1,twofour,,,,,,,,,,,,,,,,,,,,,,,,,,,,,,,,,,,,,,,,,,,,,,,,,,,,,,,,,,,,,,,,,,,,,,,,,,,,,,,,,,,,,,,,,,,,,,,,,,,,,,,,,,,,,,,,,,,,,,,,,,,,,,,,,,,,,,,,,,,,,,,,,,,,,,,,,,,,,
,,,,,,5ff0a3d22c2ee6fa5d47c312,62c53993dd89adad07129e57,2022-07-06_09h32.35.733,Colour_Asymmetry_Pilot,2022.1.3,Win32,143.1434297,62c50e9c1127f2cd403a315f,0,122,122,16,1,onetwo,,,,,,,,,,,,,,,,,,,,,,,,,,,,,,,,,,,,,,,,,,,,,,,,,,,,,,,,,,,,,,,,,,,,,,,,,,,,,,,,,,,,,,,,,,,,,,,,,,,,,,,,,,,,,,,,,,,,,,,,,,,,,,,,,,,,,,,,,,,,,,,,,,,,,,,,,,,,,
,,,,,,5ff0a3d22c2ee6fa5d47c312,62c53993dd89adad07129e57,2022-07-06_09h32.35.733,Colour_Asymmetry_Pilot,2022.1.3,Win32,143.1434297,62c50e9c1127f2cd403a315f,0,123,123,52,1,threeone,,,,,,,,,,,,,,,,,,,,,,,,,,,,,,,,,,,,,,,,,,,,,,,,,,,,,,,,,,,,,,,,,,,,,,,,,,,,,,,,,,,,,,,,,,,,,,,,,,,,,,,,,,,,,,,,,,,,,,,,,,,,,,,,,,,,,,,,,,,,,,,,,,,,,,,,,,,,,
,,,,,,5ff0a3d22c2ee6fa5d47c312,62c53993dd89adad07129e57,2022-07-06_09h32.35.733,Colour_Asymmetry_Pilot,2022.1.3,Win32,143.1434297,62c50e9c1127f2cd403a315f,0,124,124,54,1,fourtwo,,,,,,,,,,,,,,,,,,,,,,,,,,,,,,,,,,,,,,,,,,,,,,,,,,,,,,,,,,,,,,,,,,,,,,,,,,,,,,,,,,,,,,,,,,,,,,,,,,,,,,,,,,,,,,,,,,,,,,,,,,,,,,,,,,,,,,,,,,,,,,,,,,,,,,,,,,,,,
,,,,,,5ff0a3d22c2ee6fa5d47c312,62c53993dd89adad07129e57,2022-07-06_09h32.35.733,Colour_Asymmetry_Pilot,2022.1.3,Win32,143.1434297,62c50e9c1127f2cd403a315f,0,125,125,26,1,twoone,,,,,,,,,,,,,,,,,,,,,,,,,,,,,,,,,,,,,,,,,,,,,,,,,,,,,,,,,,,,,,,,,,,,,,,,,,,,,,,,,,,,,,,,,,,,,,,,,,,,,,,,,,,,,,,,,,,,,,,,,,,,,,,,,,,,,,,,,,,,,,,,,,,,,,,,,,,,,
,,,,,,5ff0a3d22c2ee6fa5d47c312,62c53993dd89adad07129e57,2022-07-06_09h32.35.733,Colour_Asymmetry_Pilot,2022.1.3,Win32,143.1434297,62c50e9c1127f2cd403a315f,0,126,126,46,1,fourtwo,,,,,,,,,,,,,,,,,,,,,,,,,,,,,,,,,,,,,,,,,,,,,,,,,,,,,,,,,,,,,,,,,,,,,,,,,,,,,,,,,,,,,,,,,,,,,,,,,,,,,,,,,,,,,,,,,,,,,,,,,,,,,,,,,,,,,,,,,,,,,,,,,,,,,,,,,,,,,
,,,,,,5ff0a3d22c2ee6fa5d47c312,62c53993dd89adad07129e57,2022-07-06_09h32.35.733,Colour_Asymmetry_Pilot,2022.1.3,Win32,143.1434297,62c50e9c1127f2cd403a315f,0,127,127,105,1,onethree,,,,,,,,,,,,,,,,,,,,,,,,,,,,,,,,,,,,,,,,,,,,,,,,,,,,,,,,,,,,,,,,,,,,,,,,,,,,,,,,,,,,,,,,,,,,,,,,,,,,,,,,,,,,,,,,,,,,,,,,,,,,,,,,,,,,,,,,,,,,,,,,,,,,,,,,,,,,,
,,,,,,5ff0a3d22c2ee6fa5d47c312,62c53993dd89adad07129e57,2022-07-06_09h32.35.733,Colour_Asymmetry_Pilot,2022.1.3,Win32,143.1434297,62c50e9c1127f2cd403a315f,0,128,128,95,1,fourthree,,,,,,,,,,,,,,,,,,,,,,,,,,,,,,,,,,,,,,,,,,,,,,,,,,,,,,,,,,,,,,,,,,,,,,,,,,,,,,,,,,,,,,,,,,,,,,,,,,,,,,,,,,,,,,,,,,,,,,,,,,,,,,,,,,,,,,,,,,,,,,,,,,,,,,,,,,,,,
,,,,,,5ff0a3d22c2ee6fa5d47c312,62c53993dd89adad07129e57,2022-07-06_09h32.35.733,Colour_Asymmetry_Pilot,2022.1.3,Win32,143.1434297,62c50e9c1127f2cd403a315f,0,129,129,62,1,fourtwo,,,,,,,,,,,,,,,,,,,,,,,,,,,,,,,,,,,,,,,,,,,,,,,,,,,,,,,,,,,,,,,,,,,,,,,,,,,,,,,,,,,,,,,,,,,,,,,,,,,,,,,,,,,,,,,,,,,,,,,,,,,,,,,,,,,,,,,,,,,,,,,,,,,,,,,,,,,,,
,,,,,,5ff0a3d22c2ee6fa5d47c312,62c53993dd89adad07129e57,2022-07-06_09h32.35.733,Colour_Asymmetry_Pilot,2022.1.3,Win32,143.1434297,62c50e9c1127f2cd403a315f,0,130,130,61,1,threefour,,,,,,,,,,,,,,,,,,,,,,,,,,,,,,,,,,,,,,,,,,,,,,,,,,,,,,,,,,,,,,,,,,,,,,,,,,,,,,,,,,,,,,,,,,,,,,,,,,,,,,,,,,,,,,,,,,,,,,,,,,,,,,,,,,,,,,,,,,,,,,,,,,,,,,,,,,,,,
,,,,,,5ff0a3d22c2ee6fa5d47c312,62c53993dd89adad07129e57,2022-07-06_09h32.35.733,Colour_Asymmetry_Pilot,2022.1.3,Win32,143.1434297,62c50e9c1127f2cd403a315f,0,131,131,128,1,onetwo,,,,,,,,,,,,,,,,,,,,,,,,,,,,,,,,,,,,,,,,,,,,,,,,,,,,,,,,,,,,,,,,,,,,,,,,,,,,,,,,,,,,,,,,,,,,,,,,,,,,,,,,,,,,,,,,,,,,,,,,,,,,,,,,,,,,,,,,,,,,,,,,,,,,,,,,,,,,,
,,,,,,5ff0a3d22c2ee6fa5d47c312,62c53993dd89adad07129e57,2022-07-06_09h32.35.733,Colour_Asymmetry_Pilot,2022.1.3,Win32,143.1434297,62c50e9c1127f2cd403a315f,0,132,132,10,1,twoone,,,,,,,,,,,,,,,,,,,,,,,,,,,,,,,,,,,,,,,,,,,,,,,,,,,,,,,,,,,,,,,,,,,,,,,,,,,,,,,,,,,,,,,,,,,,,,,,,,,,,,,,,,,,,,,,,,,,,,,,,,,,,,,,,,,,,,,,,,,,,,,,,,,,,,,,,,,,,
,,,,,,5ff0a3d22c2ee6fa5d47c312,62c53993dd89adad07129e57,2022-07-06_09h32.35.733,Colour_Asymmetry_Pilot,2022.1.3,Win32,143.1434297,62c50e9c1127f2cd403a315f,0,133,133,139,1,twofour,,,,,,,,,,,,,,,,,,,,,,,,,,,,,,,,,,,,,,,,,,,,,,,,,,,,,,,,,,,,,,,,,,,,,,,,,,,,,,,,,,,,,,,,,,,,,,,,,,,,,,,,,,,,,,,,,,,,,,,,,,,,,,,,,,,,,,,,,,,,,,,,,,,,,,,,,,,,,
,,,,,,5ff0a3d22c2ee6fa5d47c312,62c53993dd89adad07129e57,2022-07-06_09h32.35.733,Colour_Asymmetry_Pilot,2022.1.3,Win32,143.1434297,62c50e9c1127f2cd403a315f,0,134,134,145,1,onethree,,,,,,,,,,,,,,,,,,,,,,,,,,,,,,,,,,,,,,,,,,,,,,,,,,,,,,,,,,,,,,,,,,,,,,,,,,,,,,,,,,,,,,,,,,,,,,,,,,,,,,,,,,,,,,,,,,,,,,,,,,,,,,,,,,,,,,,,,,,,,,,,,,,,,,,,,,,,,
,,,,,,5ff0a3d22c2ee6fa5d47c312,62c53993dd89adad07129e57,2022-07-06_09h32.35.733,Colour_Asymmetry_Pilot,2022.1.3,Win32,143.1434297,62c50e9c1127f2cd403a315f,0,135,135,146,1,twoone,,,,,,,,,,,,,,,,,,,,,,,,,,,,,,,,,,,,,,,,,,,,,,,,,,,,,,,,,,,,,,,,,,,,,,,,,,,,,,,,,,,,,,,,,,,,,,,,,,,,,,,,,,,,,,,,,,,,,,,,,,,,,,,,,,,,,,,,,,,,,,,,,,,,,,,,,,,,,
,,,,,,5ff0a3d22c2ee6fa5d47c312,62c53993dd89adad07129e57,2022-07-06_09h32.35.733,Colour_Asymmetry_Pilot,2022.1.3,Win32,143.1434297,62c50e9c1127f2cd403a315f,0,136,136,20,1,threeone,,,,,,,,,,,,,,,,,,,,,,,,,,,,,,,,,,,,,,,,,,,,,,,,,,,,,,,,,,,,,,,,,,,,,,,,,,,,,,,,,,,,,,,,,,,,,,,,,,,,,,,,,,,,,,,,,,,,,,,,,,,,,,,,,,,,,,,,,,,,,,,,,,,,,,,,,,,,,
,,,,,,5ff0a3d22c2ee6fa5d47c312,62c53993dd89adad07129e57,2022-07-06_09h32.35.733,Colour_Asymmetry_Pilot,2022.1.3,Win32,143.1434297,62c50e9c1127f2cd403a315f,0,137,137,31,1,fourthree,,,,,,,,,,,,,,,,,,,,,,,,,,,,,,,,,,,,,,,,,,,,,,,,,,,,,,,,,,,,,,,,,,,,,,,,,,,,,,,,,,,,,,,,,,,,,,,,,,,,,,,,,,,,,,,,,,,,,,,,,,,,,,,,,,,,,,,,,,,,,,,,,,,,,,,,,,,,,
,,,,,,5ff0a3d22c2ee6fa5d47c312,62c53993dd89adad07129e57,2022-07-06_09h32.35.733,Colour_Asymmetry_Pilot,2022.1.3,Win32,143.1434297,62c50e9c1127f2cd403a315f,0,138,138,69,1,threefour,,,,,,,,,,,,,,,,,,,,,,,,,,,,,,,,,,,,,,,,,,,,,,,,,,,,,,,,,,,,,,,,,,,,,,,,,,,,,,,,,,,,,,,,,,,,,,,,,,,,,,,,,,,,,,,,,,,,,,,,,,,,,,,,,,,,,,,,,,,,,,,,,,,,,,,,,,,,,
,,,,,,5ff0a3d22c2ee6fa5d47c312,62c53993dd89adad07129e57,2022-07-06_09h32.35.733,Colour_Asymmetry_Pilot,2022.1.3,Win32,143.1434297,62c50e9c1127f2cd403a315f,0,139,139,44,1,threeone,,,,,,,,,,,,,,,,,,,,,,,,,,,,,,,,,,,,,,,,,,,,,,,,,,,,,,,,,,,,,,,,,,,,,,,,,,,,,,,,,,,,,,,,,,,,,,,,,,,,,,,,,,,,,,,,,,,,,,,,,,,,,,,,,,,,,,,,,,,,,,,,,,,,,,,,,,,,,
,,,,,,5ff0a3d22c2ee6fa5d47c312,62c53993dd89adad07129e57,2022-07-06_09h32.35.733,Colour_Asymmetry_Pilot,2022.1.3,Win32,143.1434297,62c50e9c1127f2cd403a315f,0,140,140,131,1,twofour,,,,,,,,,,,,,,,,,,,,,,,,,,,,,,,,,,,,,,,,,,,,,,,,,,,,,,,,,,,,,,,,,,,,,,,,,,,,,,,,,,,,,,,,,,,,,,,,,,,,,,,,,,,,,,,,,,,,,,,,,,,,,,,,,,,,,,,,,,,,,,,,,,,,,,,,,,,,,
,,,,,,5ff0a3d22c2ee6fa5d47c312,62c53993dd89adad07129e57,2022-07-06_09h32.35.733,Colour_Asymmetry_Pilot,2022.1.3,Win32,143.1434297,62c50e9c1127f2cd403a315f,0,141,141,87,1,fourthree,,,,,,,,,,,,,,,,,,,,,,,,,,,,,,,,,,,,,,,,,,,,,,,,,,,,,,,,,,,,,,,,,,,,,,,,,,,,,,,,,,,,,,,,,,,,,,,,,,,,,,,,,,,,,,,,,,,,,,,,,,,,,,,,,,,,,,,,,,,,,,,,,,,,,,,,,,,,,
,,,,,,5ff0a3d22c2ee6fa5d47c312,62c53993dd89adad07129e57,2022-07-06_09h32.35.733,Colour_Asymmetry_Pilot,2022.1.3,Win32,143.1434297,62c50e9c1127f2cd403a315f,0,142,142,93,1,threefour,,,,,,,,,,,,,,,,,,,,,,,,,,,,,,,,,,,,,,,,,,,,,,,,,,,,,,,,,,,,,,,,,,,,,,,,,,,,,,,,,,,,,,,,,,,,,,,,,,,,,,,,,,,,,,,,,,,,,,,,,,,,,,,,,,,,,,,,,,,,,,,,,,,,,,,,,,,,,
,,,,,,5ff0a3d22c2ee6fa5d47c312,62c53993dd89adad07129e57,2022-07-06_09h32.35.733,Colour_Asymmetry_Pilot,2022.1.3,Win32,143.1434297,62c50e9c1127f2cd403a315f,0,143,143,56,1,onetwo,,,,,,,,,,,,,,,,,,,,,,,,,,,,,,,,,,,,,,,,,,,,,,,,,,,,,,,,,,,,,,,,,,,,,,,,,,,,,,,,,,,,,,,,,,,,,,,,,,,,,,,,,,,,,,,,,,,,,,,,,,,,,,,,,,,,,,,,,,,,,,,,,,,,,,,,,,,,,
,,,,,,5ff0a3d22c2ee6fa5d47c312,62c53993dd89adad07129e57,2022-07-06_09h32.35.733,Colour_Asymmetry_Pilot,2022.1.3,Win32,143.1434297,62c50e9c1127f2cd403a315f,0,144,144,79,1,fourthree,,,,,,,,,,,,,,,,,,,,,,,,,,,,,,,,,,,,,,,,,,,,,,,,,,,,,,,,,,,,,,,,,,,,,,,,,,,,,,,,,,,,,,,,,,,,,,,,,,,,,,,,,,,,,,,,,,,,,,,,,,,,,,,,,,,,,,,,,,,,,,,,,,,,,,,,,,,,,
,,,,,,5ff0a3d22c2ee6fa5d47c312,62c53993dd89adad07129e57,2022-07-06_09h32.35.733,Colour_Asymmetry_Pilot,2022.1.3,Win32,143.1434297,62c50e9c1127f2cd403a315f,0,145,145,28,1,threeone,,,,,,,,,,,,,,,,,,,,,,,,,,,,,,,,,,,,,,,,,,,,,,,,,,,,,,,,,,,,,,,,,,,,,,,,,,,,,,,,,,,,,,,,,,,,,,,,,,,,,,,,,,,,,,,,,,,,,,,,,,,,,,,,,,,,,,,,,,,,,,,,,,,,,,,,,,,,,
,,,,,,5ff0a3d22c2ee6fa5d47c312,62c53993dd89adad07129e57,2022-07-06_09h32.35.733,Colour_Asymmetry_Pilot,2022.1.3,Win32,143.1434297,62c50e9c1127f2cd403a315f,0,146,146,17,1,onethree,,,,,,,,,,,,,,,,,,,,,,,,,,,,,,,,,,,,,,,,,,,,,,,,,,,,,,,,,,,,,,,,,,,,,,,,,,,,,,,,,,,,,,,,,,,,,,,,,,,,,,,,,,,,,,,,,,,,,,,,,,,,,,,,,,,,,,,,,,,,,,,,,,,,,,,,,,,,,
,,,,,,5ff0a3d22c2ee6fa5d47c312,62c53993dd89adad07129e57,2022-07-06_09h32.35.733,Colour_Asymmetry_Pilot,2022.1.3,Win32,143.1434297,62c50e9c1127f2cd403a315f,0,147,147,123,1,twofour,,,,,,,,,,,,,,,,,,,,,,,,,,,,,,,,,,,,,,,,,,,,,,,,,,,,,,,,,,,,,,,,,,,,,,,,,,,,,,,,,,,,,,,,,,,,,,,,,,,,,,,,,,,,,,,,,,,,,,,,,,,,,,,,,,,,,,,,,,,,,,,,,,,,,,,,,,,,,
,,,,,,5ff0a3d22c2ee6fa5d47c312,62c53993dd89adad07129e57,2022-07-06_09h32.35.733,Colour_Asymmetry_Pilot,2022.1.3,Win32,143.1434297,62c50e9c1127f2cd403a315f,0,148,148,51,1,twofour,,,,,,,,,,,,,,,,,,,,,,,,,,,,,,,,,,,,,,,,,,,,,,,,,,,,,,,,,,,,,,,,,,,,,,,,,,,,,,,,,,,,,,,,,,,,,,,,,,,,,,,,,,,,,,,,,,,,,,,,,,,,,,,,,,,,,,,,,,,,,,,,,,,,,,,,,,,,,
,,,,,,5ff0a3d22c2ee6fa5d47c312,62c53993dd89adad07129e57,2022-07-06_09h32.35.733,Colour_Asymmetry_Pilot,2022.1.3,Win32,143.1434297,62c50e9c1127f2cd403a315f,0,149,149,107,1,twofour,,,,,,,,,,,,,,,,,,,,,,,,,,,,,,,,,,,,,,,,,,,,,,,,,,,,,,,,,,,,,,,,,,,,,,,,,,,,,,,,,,,,,,,,,,,,,,,,,,,,,,,,,,,,,,,,,,,,,,,,,,,,,,,,,,,,,,,,,,,,,,,,,,,,,,,,,,,,,
,,,,,,5ff0a3d22c2ee6fa5d47c312,62c53993dd89adad07129e57,2022-07-06_09h32.35.733,Colour_Asymmetry_Pilot,2022.1.3,Win32,143.1434297,62c50e9c1127f2cd403a315f,0,150,150,29,1,threefour,,,,,,,,,,,,,,,,,,,,,,,,,,,,,,,,,,,,,,,,,,,,,,,,,,,,,,,,,,,,,,,,,,,,,,,,,,,,,,,,,,,,,,,,,,,,,,,,,,,,,,,,,,,,,,,,,,,,,,,,,,,,,,,,,,,,,,,,,,,,,,,,,,,,,,,,,,,,,
,,,,,,5ff0a3d22c2ee6fa5d47c312,62c53993dd89adad07129e57,2022-07-06_09h32.35.733,Colour_Asymmetry_Pilot,2022.1.3,Win32,143.1434297,62c50e9c1127f2cd403a315f,0,151,151,50,1,twoone,,,,,,,,,,,,,,,,,,,,,,,,,,,,,,,,,,,,,,,,,,,,,,,,,,,,,,,,,,,,,,,,,,,,,,,,,,,,,,,,,,,,,,,,,,,,,,,,,,,,,,,,,,,,,,,,,,,,,,,,,,,,,,,,,,,,,,,,,,,,,,,,,,,,,,,,,,,,,
,,,,,,5ff0a3d22c2ee6fa5d47c312,62c53993dd89adad07129e57,2022-07-06_09h32.35.733,Colour_Asymmetry_Pilot,2022.1.3,Win32,143.1434297,62c50e9c1127f2cd403a315f,0,152,152,111,1,fourthree,,,,,,,,,,,,,,,,,,,,,,,,,,,,,,,,,,,,,,,,,,,,,,,,,,,,,,,,,,,,,,,,,,,,,,,,,,,,,,,,,,,,,,,,,,,,,,,,,,,,,,,,,,,,,,,,,,,,,,,,,,,,,,,,,,,,,,,,,,,,,,,,,,,,,,,,,,,,,
,,,,,,5ff0a3d22c2ee6fa5d47c312,62c53993dd89adad07129e57,2022-07-06_09h32.35.733,Colour_Asymmetry_Pilot,2022.1.3,Win32,143.1434297,62c50e9c1127f2cd403a315f,0,153,153,14,1,fourtwo,,,,,,,,,,,,,,,,,,,,,,,,,,,,,,,,,,,,,,,,,,,,,,,,,,,,,,,,,,,,,,,,,,,,,,,,,,,,,,,,,,,,,,,,,,,,,,,,,,,,,,,,,,,,,,,,,,,,,,,,,,,,,,,,,,,,,,,,,,,,,,,,,,,,,,,,,,,,,
,,,,,,5ff0a3d22c2ee6fa5d47c312,62c53993dd89adad07129e57,2022-07-06_09h32.35.733,Colour_Asymmetry_Pilot,2022.1.3,Win32,143.1434297,62c50e9c1127f2cd403a315f,0,154,154,127,1,fourthree,,,,,,,,,,,,,,,,,,,,,,,,,,,,,,,,,,,,,,,,,,,,,,,,,,,,,,,,,,,,,,,,,,,,,,,,,,,,,,,,,,,,,,,,,,,,,,,,,,,,,,,,,,,,,,,,,,,,,,,,,,,,,,,,,,,,,,,,,,,,,,,,,,,,,,,,,,,,,
,,,,,,5ff0a3d22c2ee6fa5d47c312,62c53993dd89adad07129e57,2022-07-06_09h32.35.733,Colour_Asymmetry_Pilot,2022.1.3,Win32,143.1434297,62c50e9c1127f2cd403a315f,0,155,155,158,1,fourtwo,,,,,,,,,,,,,,,,,,,,,,,,,,,,,,,,,,,,,,,,,,,,,,,,,,,,,,,,,,,,,,,,,,,,,,,,,,,,,,,,,,,,,,,,,,,,,,,,,,,,,,,,,,,,,,,,,,,,,,,,,,,,,,,,,,,,,,,,,,,,,,,,,,,,,,,,,,,,,
,,,,,,5ff0a3d22c2ee6fa5d47c312,62c53993dd89adad07129e57,2022-07-06_09h32.35.733,Colour_Asymmetry_Pilot,2022.1.3,Win32,143.1434297,62c50e9c1127f2cd403a315f,0,156,156,34,1,twoone,,,,,,,,,,,,,,,,,,,,,,,,,,,,,,,,,,,,,,,,,,,,,,,,,,,,,,,,,,,,,,,,,,,,,,,,,,,,,,,,,,,,,,,,,,,,,,,,,,,,,,,,,,,,,,,,,,,,,,,,,,,,,,,,,,,,,,,,,,,,,,,,,,,,,,,,,,,,,
,,,,,,5ff0a3d22c2ee6fa5d47c312,62c53993dd89adad07129e57,2022-07-06_09h32.35.733,Colour_Asymmetry_Pilot,2022.1.3,Win32,143.1434297,62c50e9c1127f2cd403a315f,0,157,157,121,1,onethree,,,,,,,,,,,,,,,,,,,,,,,,,,,,,,,,,,,,,,,,,,,,,,,,,,,,,,,,,,,,,,,,,,,,,,,,,,,,,,,,,,,,,,,,,,,,,,,,,,,,,,,,,,,,,,,,,,,,,,,,,,,,,,,,,,,,,,,,,,,,,,,,,,,,,,,,,,,,,
,,,,,,5ff0a3d22c2ee6fa5d47c312,62c53993dd89adad07129e57,2022-07-06_09h32.35.733,Colour_Asymmetry_Pilot,2022.1.3,Win32,143.1434297,62c50e9c1127f2cd403a315f,0,158,158,160,1,onetwo,,,,,,,,,,,,,,,,,,,,,,,,,,,,,,,,,,,,,,,,,,,,,,,,,,,,,,,,,,,,,,,,,,,,,,,,,,,,,,,,,,,,,,,,,,,,,,,,,,,,,,,,,,,,,,,,,,,,,,,,,,,,,,,,,,,,,,,,,,,,,,,,,,,,,,,,,,,,,
,,,,,,5ff0a3d22c2ee6fa5d47c312,62c53993dd89adad07129e57,2022-07-06_09h32.35.733,Colour_Asymmetry_Pilot,2022.1.3,Win32,143.1434297,62c50e9c1127f2cd403a315f,0,159,159,58,1,twoone,,,,,,,,,,,,,,,,,,,,,,,,,,,,,,,,,,,,,,,,,,,,,,,,,,,,,,,,,,,,,,,,,,,,,,,,,,,,,,,,,,,,,,,,,,,,,,,,,,,,,,,,,,,,,,,,,,,,,,,,,,,,,,,,,,,,,,,,,,,,,,,,,,,,,,,,,,,,,
,,,,,,5ff0a3d22c2ee6fa5d47c312,62c53993dd89adad07129e57,2022-07-06_09h32.35.733,Colour_Asymmetry_Pilot,2022.1.3,Win32,143.1434297,62c50e9c1127f2cd403a315f,0,160,160,38,1,fourtwo,,,,,,,,,,,,,,,,,,,,,,,,,,,,,,,,,,,,,,,,,,,,,,,,,,,,,,,,,,,,,,,,,,,,,,,,,,,,,,,,,,,,,,,,,,,,,,,,,,,,,,,,,,,,,,,,,,,,,,,,,,,,,,,,,,,,,,,,,,,,,,,,,,,,,,,,,,,,,
,,,,,,5ff0a3d22c2ee6fa5d47c312,62c53993dd89adad07129e57,2022-07-06_09h32.35.733,Colour_Asymmetry_Pilot,2022.1.3,Win32,143.1434297,62c50e9c1127f2cd403a315f,0,161,161,25,1,onethree,,,,,,,,,,,,,,,,,,,,,,,,,,,,,,,,,,,,,,,,,,,,,,,,,,,,,,,,,,,,,,,,,,,,,,,,,,,,,,,,,,,,,,,,,,,,,,,,,,,,,,,,,,,,,,,,,,,,,,,,,,,,,,,,,,,,,,,,,,,,,,,,,,,,,,,,,,,,,
,,,,,,5ff0a3d22c2ee6fa5d47c312,62c53993dd89adad07129e57,2022-07-06_09h32.35.733,Colour_Asymmetry_Pilot,2022.1.3,Win32,143.1434297,62c50e9c1127f2cd403a315f,,,,,,,space,10.0167,space,4.1242,space,222.3848,space,35.0888,space,81.8264,space,7.3657,"[0.7018,0.7802,-0.16079999999999994]",fourthree,"[-0.06680000000000008,-0.45100000000000007,-0.906]",1,5.9527,97,-191,1,0,0,response3disk_5,-20,1,1,0,0,rectangle_8,-20,1,1,0,0,4,-20,1,1,0,0,0,0,0,0,1,,,,,,,,,,,,,,,,,,,,,,,,,,,,,,,,,,,,,,,,,,,,,,,,,,,,,,,,,,,,,,,,,,,,,,,,,,,,,,,,,,,,,,,,,,,,,,,,,,,,,,,,,,,,,,,,
,,,,,,5ff0a3d22c2ee6fa5d47c312,62c53993dd89adad07129e57,2022-07-06_09h32.35.733,Colour_Asymmetry_Pilot,2022.1.3,Win32,143.1434297,62c50e9c1127f2cd403a315f,,,,,,,,,,,,,,,,,,,"[-0.5922000000000001,-0.7492000000000001,-0.5296000000000001]",fourtwo,"[0.11359999999999992,0.6312,0.5213999999999999]",-2,4.3339,-129,-57,1,0,0,response5disk_5,25,-13,1,0,0,rectangle_8,25,-13,1,0,0,4,25,-13,1,0,0,1,0,1,0,1,,,,,,,,,,,,,,,,,,,,,,,,,,,,,,,,,,,,,,,,,,,,,,,,,,,,,,,,,,,,,,,,,,,,,,,,,,,,,,,,,,,,,,,,,,,,,,,,,,,,,,,,,,,,,,,,
,,,,,,5ff0a3d22c2ee6fa5d47c312,62c53993dd89adad07129e57,2022-07-06_09h32.35.733,Colour_Asymmetry_Pilot,2022.1.3,Win32,143.1434297,62c50e9c1127f2cd403a315f,,,,,,,,,,,,,,,,,,,"[-0.4668,-0.8746,-0.2942]",onetwo,"[-0.6942,-0.7648,-0.12959999999999994]",1,2.1532,54,-167,1,0,0,response3disk_5,-14,2,1,0,0,rectangle_8,57,144,1,0,0,4,17,-13,1,0,0,2,0,2,0,1,response1disk_7,7,rectangle_4,,,,,,,,,,,,,,,,,,,,,,,,,,,,,,,,,,,,,,,,,,,,,,,,,,,,,,,,,,,,,,,,,,,,,,,,,,,,,,,,,,,,,,,,,,,,,,,,,,,,,,,,,,,,,
,,,,,,5ff0a3d22c2ee6fa5d47c312,62c53993dd89adad07129e57,2022-07-06_09h32.35.733,Colour_Asymmetry_Pilot,2022.1.3,Win32,143.1434297,62c50e9c1127f2cd403a315f,,,,,,,,,,,,,,,,,,,"[-0.4982,-0.2942,-0.0354000000000001]",twoone,"[0.9763999999999999,0.8588,-0.05900000000000005]",-3,1.9519,-127,80,1,0,0,response7disk_5,-22,-9,1,0,0,rectangle_8,-22,-9,1,0,0,4,-22,-9,1,0,0,3,0,3,0,1,,,,,,,,,,,,,,,,,,,,,,,,,,,,,,,,,,,,,,,,,,,,,,,,,,,,,,,,,,,,,,,,,,,,,,,,,,,,,,,,,,,,,,,,,,,,,,,,,,,,,,,,,,,,,,,,
,,,,,,5ff0a3d22c2ee6fa5d47c312,62c53993dd89adad07129e57,2022-07-06_09h32.35.733,Colour_Asymmetry_Pilot,2022.1.3,Win32,143.1434297,62c50e9c1127f2cd403a315f,,,,,,,,,,,,,,,,,,,"[-0.5922000000000001,-0.7492000000000001,-0.5296000000000001]",onetwo,"[0.7018,0.7176,0.6155999999999999]",-4,1.0625,-66,104,1,0,0,response7disk_5,8,1,1,0,0,rectangle_8,35,171,1,0,0,4,26,9,1,0,0,4,0,4,0,1,response1disk_7,7,rectangle_4,,,,,,,,,,,,,,,,,,,,,,,,,,,,,,,,,,,,,,,,,,,,,,,,,,,,,,,,,,,,,,,,,,,,,,,,,,,,,,,,,,,,,,,,,,,,,,,,,,,,,,,,,,,,,
,,,,,,5ff0a3d22c2ee6fa5d47c312,62c53993dd89adad07129e57,2022-07-06_09h32.35.733,Colour_Asymmetry_Pilot,2022.1.3,Win32,143.1434297,62c50e9c1127f2cd403a315f,,,,,,,,,,,,,,,,,,,"[0.23920000000000008,0.2704,0.16060000000000008]",fourthree,"[-0.9688,-0.7412000000000001,-0.4902000000000001]",-4,0.903,-41,109,1,0,0,response7disk_5,7,-1,1,0,0,rectangle_8,7,-1,1,0,0,4,7,-1,1,0,0,5,0,5,0,1,,,,,,,,,,,,,,,,,,,,,,,,,,,,,,,,,,,,,,,,,,,,,,,,,,,,,,,,,,,,,,,,,,,,,,,,,,,,,,,,,,,,,,,,,,,,,,,,,,,,,,,,,,,,,,,,
,,,,,,5ff0a3d22c2ee6fa5d47c312,62c53993dd89adad07129e57,2022-07-06_09h32.35.733,Colour_Asymmetry_Pilot,2022.1.3,Win32,143.1434297,62c50e9c1127f2cd403a315f,,,,,,,,,,,,,,,,,,,"[-0.9216,-0.5529999999999999,-0.3962]",twofour,"[-0.5452,-0.608,0.2470000000000001]",2,1.5002,177,-85,1,0,0,response3disk_5,9,-16,1,0,0,rectangle_8,9,-16,1,0,0,4,9,-16,1,0,0,6,0,6,0,1,,,,,,,,,,,,,,,,,,,,,,,,,,,,,,,,,,,,,,,,,,,,,,,,,,,,,,,,,,,,,,,,,,,,,,,,,,,,,,,,,,,,,,,,,,,,,,,,,,,,,,,,,,,,,,,,
,,,,,,5ff0a3d22c2ee6fa5d47c312,62c53993dd89adad07129e57,2022-07-06_09h32.35.733,Colour_Asymmetry_Pilot,2022.1.3,Win32,143.1434297,62c50e9c1127f2cd403a315f,,,,,,,,,,,,,,,,,,,,fourtwo,,1,2.7715,,,,,,,,,,,,,,,,,,,,,,,,,,,,,,,,space,9.0267,"[0.4196,0.4665999999999999,0.3568]","[0.7802,-0.23140000000000005,-0.20799999999999996]",55,-136,1,0,0,response3disk,-37,-4,1,0,0,rectangle,-37,-4,1,0,0,,2,0.0018,0,-37,-4,1,0,0,0,0,0,22,1,22,first,,,,,,,,,,,,,,,,,,,,,,,,,,,,,,,,,,,,,,,,,,,,,,,,,,,,,,,,,,,,,,,,,,,,,,,,
,,,,,,5ff0a3d22c2ee6fa5d47c312,62c53993dd89adad07129e57,2022-07-06_09h32.35.733,Colour_Asymmetry_Pilot,2022.1.3,Win32,143.1434297,62c50e9c1127f2cd403a315f,,,,,,,,,,,,,,,,,,,,threeone,,1,2.2437,,,,,,,,,,,,,,,,,,,,,,,,,,,,,,,,,,"[-0.8198,-0.5138,-0.7492000000000001]","[0.23920000000000008,0.2704,0.16060000000000008]",105,-153,1,0,0,response3disk,18,-18,1,0,0,rectangle,18,-18,1,0,0,,1,0.0006,0,18,-18,1,0,0,0,1,1,46,1,46,first,,,,,,,,,,,,,,,,,,,,,,,,,,,,,,,,,,,,,,,,,,,,,,,,,,,,,,,,,,,,,,,,,,,,,,,,
,,,,,,5ff0a3d22c2ee6fa5d47c312,62c53993dd89adad07129e57,2022-07-06_09h32.35.733,Colour_Asymmetry_Pilot,2022.1.3,Win32,143.1434297,62c50e9c1127f2cd403a315f,,,,,,,,,,,,,,,,,,,,threefour,,-3,2.278,,,,,,,,,,,,,,,,,,,,,,,,,,,,,,,,,,"[0.9763999999999999,0.8588,-0.05900000000000005]","[0.40379999999999994,0.09000000000000008,0.44300000000000006]",-108,41,1,0,0,response7disk,9,-18,1,0,0,rectangle,9,-18,1,0,0,,2,0.0009,0,9,-18,1,0,0,0,2,2,151,1,70,second,,,,,,,,,,,,,,,,,,,,,,,,,,,,,,,,,,,,,,,,,,,,,,,,,,,,,,,,,,,,,,,,,,,,,,,,
,,,,,,5ff0a3d22c2ee6fa5d47c312,62c53993dd89adad07129e57,2022-07-06_09h32.35.733,Colour_Asymmetry_Pilot,2022.1.3,Win32,143.1434297,62c50e9c1127f2cd403a315f,,,,,,,,,,,,,,,,,,,,onethree,,4,1.6601,,,,,,,,,,,,,,,,,,,,,,,,,,,,,,,,,,"[-0.9688,-0.4902000000000001,-0.12159999999999993]","[-0.8982,-0.37259999999999993,0.2784]",70,100,1,0,0,response1disk,20,-23,1,0,0,rectangle,20,-23,1,0,0,,2,0.0001,0,20,-23,1,0,0,0,3,3,49,1,49,first,,,,,,,,,,,,,,,,,,,,,,,,,,,,,,,,,,,,,,,,,,,,,,,,,,,,,,,,,,,,,,,,,,,,,,,,
,,,,,,5ff0a3d22c2ee6fa5d47c312,62c53993dd89adad07129e57,2022-07-06_09h32.35.733,Colour_Asymmetry_Pilot,2022.1.3,Win32,143.1434297,62c50e9c1127f2cd403a315f,,,,,,,,,,,,,,,,,,,,twofour,,1,1.2226,,,,,,,,,,,,,,,,,,,,,,,,,,,,,,,,,,"[-0.30200000000000005,0.14500000000000002,0.2784]","[-0.9688,-0.7412000000000001,-0.4902000000000001]",61,-172,1,0,0,response3disk,2,4,1,0,0,rectangle,2,4,1,0,0,,2,1E-04,0,2,4,1,0,0,0,4,4,44,1,44,first,,,,,,,,,,,,,,,,,,,,,,,,,,,,,,,,,,,,,,,,,,,,,,,,,,,,,,,,,,,,,,,,,,,,,,,,
,,,,,,5ff0a3d22c2ee6fa5d47c312,62c53993dd89adad07129e57,2022-07-06_09h32.35.733,Colour_Asymmetry_Pilot,2022.1.3,Win32,143.1434297,62c50e9c1127f2cd403a315f,,,,,,,,,,,,,,,,,,,,twofour,,-4,1.2156,,,,,,,,,,,,,,,,,,,,,,,,,,,,,,,,,,"[0.05879999999999996,0.2784,0.5841999999999998]","[-0.050999999999999934,-0.6706000000000001,-0.804]",-54,126,1,0,0,response7disk,-1,-17,1,0,0,rectangle,-1,-17,1,0,0,,2,0.0001,0,-1,-17,1,0,0,0,5,5,133,1,52,second,,,,,,,,,,,,,,,,,,,,,,,,,,,,,,,,,,,,,,,,,,,,,,,,,,,,,,,,,,,,,,,,,,,,,,,,
,,,,,,5ff0a3d22c2ee6fa5d47c312,62c53993dd89adad07129e57,2022-07-06_09h32.35.733,Colour_Asymmetry_Pilot,2022.1.3,Win32,143.1434297,62c50e9c1127f2cd403a315f,,,,,,,,,,,,,,,,,,,,onethree,,-1,1.9588,,,,,,,,,,,,,,,,,,,,,,,,,,,,,,,,,,"[-0.4902000000000001,0.2704,-0.45899999999999996]","[0.9213999999999998,0.6391999999999998,-0.9922]",-75,-197,1,0,0,response5disk,-19,-13,1,0,0,rectangle,-19,-13,1,0,0,,1,0.0005,0,-19,-13,1,0,0,0,6,6,90,1,9,second,,,,,,,,,,,,,,,,,,,,,,,,,,,,,,,,,,,,,,,,,,,,,,,,,,,,,,,,,,,,,,,,,,,,,,,,
,,,,,,5ff0a3d22c2ee6fa5d47c312,62c53993dd89adad07129e57,2022-07-06_09h32.35.733,Colour_Asymmetry_Pilot,2022.1.3,Win32,143.1434297,62c50e9c1127f2cd403a315f,,,,,,,,,,,,,,,,,,,,onetwo,,-3,4.0563,,,,,,,,,,,,,,,,,,,,,,,,,,,,,,,,,,"[-0.17659999999999998,-0.2864,-0.8354]","[-0.4746,-0.0354000000000001,0.5449999999999999]",-154,62,1,0,0,response7disk,9,6,1,0,0,rectangle,9,6,1,0,0,,2,0.0006,0,9,6,1,0,0,0,7,7,98,1,17,second,,,,,,,,,,,,,,,,,,,,,,,,,,,,,,,,,,,,,,,,,,,,,,,,,,,,,,,,,,,,,,,,,,,,,,,,
,,,,,,5ff0a3d22c2ee6fa5d47c312,62c53993dd89adad07129e57,2022-07-06_09h32.35.733,Colour_Asymmetry_Pilot,2022.1.3,Win32,143.1434297,62c50e9c1127f2cd403a315f,,,,,,,,,,,,,,,,,,,,onetwo,,-2,3.9313,,,,,,,,,,,,,,,,,,,,,,,,,,,,,,,,,,"[1,0.12939999999999996,-1]","[-0.24719999999999998,0.5213999999999999,-0.12959999999999994]",-150,-70,1,0,0,response5disk,-50,17,1,0,0,rectangle,-50,17,1,0,0,,2,0,0,-50,17,1,0,0,0,8,8,82,1,1,second,,,,,,,,,,,,,,,,,,,,,,,,,,,,,,,,,,,,,,,,,,,,,,,,,,,,,,,,,,,,,,,,,,,,,,,,
,,,,,,5ff0a3d22c2ee6fa5d47c312,62c53993dd89adad07129e57,2022-07-06_09h32.35.733,Colour_Asymmetry_Pilot,2022.1.3,Win32,143.1434297,62c50e9c1127f2cd403a315f,,,,,,,,,,,,,,,,,,,,fourthree,,-3,0.8476,,,,,,,,,,,,,,,,,,,,,,,,,,,,,,,,,,"[0.5528,0.7409999999999999,-0.71]","[0.7802,-0.23140000000000005,-0.20799999999999996]",-152,46,1,0,0,response7disk,-21,-20,1,0,0,rectangle,-21,-20,1,0,0,,3,0.0006,0,-21,-20,1,0,0,0,9,9,63,1,63,first,,,,,,,,,,,,,,,,,,,,,,,,,,,,,,,,,,,,,,,,,,,,,,,,,,,,,,,,,,,,,,,,,,,,,,,,
,,,,,,5ff0a3d22c2ee6fa5d47c312,62c53993dd89adad07129e57,2022-07-06_09h32.35.733,Colour_Asymmetry_Pilot,2022.1.3,Win32,143.1434297,62c50e9c1127f2cd403a315f,,,,,,,,,,,,,,,,,,,,twofour,,-2,0.8197,,,,,,,,,,,,,,,,,,,,,,,,,,,,,,,,,,"[-0.24719999999999998,0.5213999999999999,-0.12959999999999994]","[0.37240000000000006,0.4980000000000002,-0.2864]",-136,-64,1,0,0,response5disk,23,-3,1,0,0,rectangle,23,-3,1,0,0,,1,0.0006,0,23,-3,1,0,0,0,10,10,94,1,13,second,,,,,,,,,,,,,,,,,,,,,,,,,,,,,,,,,,,,,,,,,,,,,,,,,,,,,,,,,,,,,,,,,,,,,,,,
,,,,,,5ff0a3d22c2ee6fa5d47c312,62c53993dd89adad07129e57,2022-07-06_09h32.35.733,Colour_Asymmetry_Pilot,2022.1.3,Win32,143.1434297,62c50e9c1127f2cd403a315f,,,,,,,,,,,,,,,,,,,,threeone,,-4,0.5831,,,,,,,,,,,,,,,,,,,,,,,,,,,,,,,,,,"[0.7176,-0.906,-0.6864]","[-0.7412000000000001,-0.08239999999999992,-0.6864]",-69,145,1,0,0,response7disk,30,-9,1,0,0,rectangle,141,-77,1,0,0,2,2,2.5701,1,8,4,1,0,0,0,11,11,76,1,76,first,response3disk_3,rectangle,,,,,,,,,,,,,,,,,,,,,,,,,,,,,,,,,,,,,,,,,,,,,,,,,,,,,,,,,,,,,,,,,,,,,,
,,,,,,5ff0a3d22c2ee6fa5d47c312,62c53993dd89adad07129e57,2022-07-06_09h32.35.733,Colour_Asymmetry_Pilot,2022.1.3,Win32,143.1434297,62c50e9c1127f2cd403a315f,,,,,,,,,,,,,,,,,,,,onetwo,,1,1.1515,,,,,,,,,,,,,,,,,,,,,,,,,,,,,,,,,,"[0.3802000000000001,0.19199999999999995,-0.6394]","[-0.2942,-0.7648,-0.7492000000000001]",39,-163,1,0,0,response3disk,-9,-26,1,0,0,rectangle,-9,-26,1,0,0,2,2,0.0001,0,-9,-26,1,0,0,0,12,12,4,1,4,first,,,,,,,,,,,,,,,,,,,,,,,,,,,,,,,,,,,,,,,,,,,,,,,,,,,,,,,,,,,,,,,,,,,,,,,,
,,,,,,5ff0a3d22c2ee6fa5d47c312,62c53993dd89adad07129e57,2022-07-06_09h32.35.733,Colour_Asymmetry_Pilot,2022.1.3,Win32,143.1434297,62c50e9c1127f2cd403a315f,,,,,,,,,,,,,,,,,,,,twoone,,-4,0.4514,,,,,,,,,,,,,,,,,,,,,,,,,,,,,,,,,,"[-0.7412000000000001,-0.08239999999999992,-0.6864]","[0.7176,-0.906,-0.6864]",-59,144,1,0,0,response7disk,0,-12,1,0,0,rectangle,0,-12,1,0,0,2,2,0,0,0,-12,1,0,0,0,13,13,157,1,76,second,,,,,,,,,,,,,,,,,,,,,,,,,,,,,,,,,,,,,,,,,,,,,,,,,,,,,,,,,,,,,,,,,,,,,,,,
,,,,,,5ff0a3d22c2ee6fa5d47c312,62c53993dd89adad07129e57,2022-07-06_09h32.35.733,Colour_Asymmetry_Pilot,2022.1.3,Win32,143.1434297,62c50e9c1127f2cd403a315f,,,,,,,,,,,,,,,,,,,,threefour,,-2,1.4307,,,,,,,,,,,,,,,,,,,,,,,,,,,,,,,,,,"[0.9372,0.20779999999999998,0.2704]","[0.5528,0.7409999999999999,-0.71]",-109,-81,1,0,0,response5disk,11,0,1,0,0,rectangle,11,0,1,0,0,2,1,0.0006,0,11,0,1,0,0,0,14,14,45,1,45,first,,,,,,,,,,,,,,,,,,,,,,,,,,,,,,,,,,,,,,,,,,,,,,,,,,,,,,,,,,,,,,,,,,,,,,,,
,,,,,,5ff0a3d22c2ee6fa5d47c312,62c53993dd89adad07129e57,2022-07-06_09h32.35.733,Colour_Asymmetry_Pilot,2022.1.3,Win32,143.1434297,62c50e9c1127f2cd403a315f,,,,,,,,,,,,,,,,,,,,onethree,,-3,1.3405,,,,,,,,,,,,,,,,,,,,,,,,,,,,,,,,,,"[0.04299999999999993,0.16060000000000008,-0.6628000000000001]","[-0.2942,-0.7648,-0.7492000000000001]",-136,31,1,0,0,response7disk,53,-28,1,0,0,rectangle,53,-28,1,0,0,2,2,0.0005,0,53,-28,1,0,0,0,15,15,156,1,75,second,,,,,,,,,,,,,,,,,,,,,,,,,,,,,,,,,,,,,,,,,,,,,,,,,,,,,,,,,,,,,,,,,,,,,,,,
,,,,,,5ff0a3d22c2ee6fa5d47c312,62c53993dd89adad07129e57,2022-07-06_09h32.35.733,Colour_Asymmetry_Pilot,2022.1.3,Win32,143.1434297,62c50e9c1127f2cd403a315f,,,,,,,,,,,,,,,,,,,,twofour,,-3,0.3682,,,,,,,,,,,,,,,,,,,,,,,,,,,,,,,,,,"[-0.4276,0.0038000000000000256,-0.3256]","[-0.06680000000000008,-0.45100000000000007,-0.906]",-157,77,1,0,0,response7disk,-56,8,1,0,0,rectangle,-56,8,1,0,0,2,2,0.0001,0,-56,8,1,0,0,0,16,16,15,1,15,first,,,,,,,,,,,,,,,,,,,,,,,,,,,,,,,,,,,,,,,,,,,,,,,,,,,,,,,,,,,,,,,,,,,,,,,,
,,,,,,5ff0a3d22c2ee6fa5d47c312,62c53993dd89adad07129e57,2022-07-06_09h32.35.733,Colour_Asymmetry_Pilot,2022.1.3,Win32,143.1434297,62c50e9c1127f2cd403a315f,,,,,,,,,,,,,,,,,,,,threeone,,1,1.0766,,,,,,,,,,,,,,,,,,,,,,,,,,,,,,,,,,"[0.0351999999999999,0.41159999999999997,0.0038000000000000256]","[-0.26280000000000003,-0.2158,-0.3256]",145,-162,1,0,0,response3disk,-20,3,1,0,0,rectangle,-20,3,1,0,0,2,1,0.0005,0,-20,3,1,0,0,0,17,17,71,1,71,first,,,,,,,,,,,,,,,,,,,,,,,,,,,,,,,,,,,,,,,,,,,,,,,,,,,,,,,,,,,,,,,,,,,,,,,,
