trials.thisRepN,trials.thisTrialN,trials.thisN,trials.thisIndex,trials.ran,Colourcodes,participant,session,date,expName,psychopyVersion,OS,frameRate,study_id,trials_4.thisRepN,trials_4.thisTrialN,trials_4.thisN,trials_4.thisIndex,trials_4.ran,StimulusPos,key_resp.keys,key_resp.rt,key_resp_2.keys,key_resp_2.rt,key_resp_15.keys,key_resp_15.rt,key_resp_17.keys,key_resp_17.rt,key_resp_9.keys,key_resp_9.rt,key_resp_10.keys,key_resp_10.rt,Circle1_col,Ecc,Circle2_col,similarity,response_time,mouse_5.x,mouse_5.y,mouse_5.leftButton,mouse_5.midButton,mouse_5.rightButton,mouse_5.clicked_name,mouse_10.x,mouse_10.y,mouse_10.leftButton,mouse_10.midButton,mouse_10.rightButton,mouse_10.clicked_name,mouse_7.x,mouse_7.y,mouse_7.leftButton,mouse_7.midButton,mouse_7.rightButton,catchnumberprac,mouse_6.x,mouse_6.y,mouse_6.leftButton,mouse_6.midButton,mouse_6.rightButton,duringprac.thisRepN,duringprac.thisTrialN,duringprac.thisN,duringprac.thisIndex,duringprac.ran,mouse_7.clicked_name,catchprac,mouse_6.clicked_name,key_resp_22.keys,key_resp_22.rt,Circle1_colour,Circle2_colour,mouse.x,mouse.y,mouse.leftButton,mouse.midButton,mouse.rightButton,mouse.clicked_name,mouse_2.x,mouse_2.y,mouse_2.leftButton,mouse_2.midButton,mouse_2.rightButton,mouse_2.clicked_name,mouse_3.x,mouse_3.y,mouse_3.leftButton,mouse_3.midButton,mouse_3.rightButton,catchresponse,catchnumber,response_time_catch,Catch,mouse_11.x,mouse_11.y,mouse_11.leftButton,mouse_11.midButton,mouse_11.rightButton,trials_2.thisRepN,trials_2.thisTrialN,trials_2.thisN,trials_2.thisIndex,trials_2.ran,Colourpair,Temporder,mouse_3.clicked_name,mouse_11.clicked_name,trials_3.thisRepN,trials_3.thisTrialN,trials_3.thisN,trials_3.thisIndex,trials_3.ran,key_resp_instr_Ishi.keys,key_resp_instr_Ishi.rt,Ishi_trial_keyresp.keys,Ishi_trial_keyresp.rt,Ishi_textbox.text,Ishi_mouse.x,Ishi_mouse.y,Ishi_mouse.leftButton,Ishi_mouse.midButton,Ishi_mouse.rightButton,Ishi_loop.thisRepN,Ishi_loop.thisTrialN,Ishi_loop.thisN,Ishi_loop.thisIndex,Ishi_loop.ran,imageaddress,textbox.text,mouse_4.x,mouse_4.y,mouse_4.leftButton,mouse_4.midButton,mouse_4.rightButton,mouse_4.clicked_name,textbox_2.text,mouse_8.x,mouse_8.y,mouse_8.leftButton,mouse_8.midButton,mouse_8.rightButton,mouse_8.clicked_name,textbox_3.text,mouse_9.x,mouse_9.y,mouse_9.leftButton,mouse_9.midButton,mouse_9.rightButton,mouse_9.clicked_name,textbox_4.text,mouse_12.x,mouse_12.y,mouse_12.leftButton,mouse_12.midButton,mouse_12.rightButton,mouse_12.clicked_name,textbox_5.text,mouse_13.x,mouse_13.y,mouse_13.leftButton,mouse_13.midButton,mouse_13.rightButton,mouse_13.clicked_name,textbox_6.text,mouse_14.x,mouse_14.y,mouse_14.leftButton,mouse_14.midButton,mouse_14.rightButton,textbox_7.text,mouse_15.x,mouse_15.y,mouse_15.leftButton,mouse_15.midButton,mouse_15.rightButton
0,0,0,30,1,,604d728ad647066e76840d8a,62c5385b9a5d4f8d5af6d3ec,2022-07-06_09h23.30.294,Colour_Asymmetry_Pilot,2022.1.3,Win32,120.6272618,62c50e9c1127f2cd403a315f,,,,,,,,,,,,,,,,,,,,,,,,,,,,,,,,,,,,,,,,,,,,,,,,,,,,,,,,,,,,,,,,,,,,,,,,,,,,,,,,,,,,,,,,,,,,,,,,,,,,,,,,,,,,,,,,,,,,,,,,,,,,,,,,,,,,,,,,,,,,,,,,,,,,,,,,,,,,,,,,,
0,1,1,12,1,,604d728ad647066e76840d8a,62c5385b9a5d4f8d5af6d3ec,2022-07-06_09h23.30.294,Colour_Asymmetry_Pilot,2022.1.3,Win32,120.6272618,62c50e9c1127f2cd403a315f,,,,,,,,,,,,,,,,,,,,,,,,,,,,,,,,,,,,,,,,,,,,,,,,,,,,,,,,,,,,,,,,,,,,,,,,,,,,,,,,,,,,,,,,,,,,,,,,,,,,,,,,,,,,,,,,,,,,,,,,,,,,,,,,,,,,,,,,,,,,,,,,,,,,,,,,,,,,,,,,,
0,2,2,13,1,,604d728ad647066e76840d8a,62c5385b9a5d4f8d5af6d3ec,2022-07-06_09h23.30.294,Colour_Asymmetry_Pilot,2022.1.3,Win32,120.6272618,62c50e9c1127f2cd403a315f,,,,,,,,,,,,,,,,,,,,,,,,,,,,,,,,,,,,,,,,,,,,,,,,,,,,,,,,,,,,,,,,,,,,,,,,,,,,,,,,,,,,,,,,,,,,,,,,,,,,,,,,,,,,,,,,,,,,,,,,,,,,,,,,,,,,,,,,,,,,,,,,,,,,,,,,,,,,,,,,,
0,3,3,6,1,,604d728ad647066e76840d8a,62c5385b9a5d4f8d5af6d3ec,2022-07-06_09h23.30.294,Colour_Asymmetry_Pilot,2022.1.3,Win32,120.6272618,62c50e9c1127f2cd403a315f,,,,,,,,,,,,,,,,,,,,,,,,,,,,,,,,,,,,,,,,,,,,,,,,,,,,,,,,,,,,,,,,,,,,,,,,,,,,,,,,,,,,,,,,,,,,,,,,,,,,,,,,,,,,,,,,,,,,,,,,,,,,,,,,,,,,,,,,,,,,,,,,,,,,,,,,,,,,,,,,,
0,4,4,85,1,,604d728ad647066e76840d8a,62c5385b9a5d4f8d5af6d3ec,2022-07-06_09h23.30.294,Colour_Asymmetry_Pilot,2022.1.3,Win32,120.6272618,62c50e9c1127f2cd403a315f,,,,,,,,,,,,,,,,,,,,,,,,,,,,,,,,,,,,,,,,,,,,,,,,,,,,,,,,,,,,,,,,,,,,,,,,,,,,,,,,,,,,,,,,,,,,,,,,,,,,,,,,,,,,,,,,,,,,,,,,,,,,,,,,,,,,,,,,,,,,,,,,,,,,,,,,,,,,,,,,,
0,5,5,51,1,,604d728ad647066e76840d8a,62c5385b9a5d4f8d5af6d3ec,2022-07-06_09h23.30.294,Colour_Asymmetry_Pilot,2022.1.3,Win32,120.6272618,62c50e9c1127f2cd403a315f,,,,,,,,,,,,,,,,,,,,,,,,,,,,,,,,,,,,,,,,,,,,,,,,,,,,,,,,,,,,,,,,,,,,,,,,,,,,,,,,,,,,,,,,,,,,,,,,,,,,,,,,,,,,,,,,,,,,,,,,,,,,,,,,,,,,,,,,,,,,,,,,,,,,,,,,,,,,,,,,,
0,6,6,39,1,,604d728ad647066e76840d8a,62c5385b9a5d4f8d5af6d3ec,2022-07-06_09h23.30.294,Colour_Asymmetry_Pilot,2022.1.3,Win32,120.6272618,62c50e9c1127f2cd403a315f,,,,,,,,,,,,,,,,,,,,,,,,,,,,,,,,,,,,,,,,,,,,,,,,,,,,,,,,,,,,,,,,,,,,,,,,,,,,,,,,,,,,,,,,,,,,,,,,,,,,,,,,,,,,,,,,,,,,,,,,,,,,,,,,,,,,,,,,,,,,,,,,,,,,,,,,,,,,,,,,,
0,7,7,40,1,,604d728ad647066e76840d8a,62c5385b9a5d4f8d5af6d3ec,2022-07-06_09h23.30.294,Colour_Asymmetry_Pilot,2022.1.3,Win32,120.6272618,62c50e9c1127f2cd403a315f,,,,,,,,,,,,,,,,,,,,,,,,,,,,,,,,,,,,,,,,,,,,,,,,,,,,,,,,,,,,,,,,,,,,,,,,,,,,,,,,,,,,,,,,,,,,,,,,,,,,,,,,,,,,,,,,,,,,,,,,,,,,,,,,,,,,,,,,,,,,,,,,,,,,,,,,,,,,,,,,,
0,8,8,41,1,,604d728ad647066e76840d8a,62c5385b9a5d4f8d5af6d3ec,2022-07-06_09h23.30.294,Colour_Asymmetry_Pilot,2022.1.3,Win32,120.6272618,62c50e9c1127f2cd403a315f,,,,,,,,,,,,,,,,,,,,,,,,,,,,,,,,,,,,,,,,,,,,,,,,,,,,,,,,,,,,,,,,,,,,,,,,,,,,,,,,,,,,,,,,,,,,,,,,,,,,,,,,,,,,,,,,,,,,,,,,,,,,,,,,,,,,,,,,,,,,,,,,,,,,,,,,,,,,,,,,,
0,9,9,75,1,,604d728ad647066e76840d8a,62c5385b9a5d4f8d5af6d3ec,2022-07-06_09h23.30.294,Colour_Asymmetry_Pilot,2022.1.3,Win32,120.6272618,62c50e9c1127f2cd403a315f,,,,,,,,,,,,,,,,,,,,,,,,,,,,,,,,,,,,,,,,,,,,,,,,,,,,,,,,,,,,,,,,,,,,,,,,,,,,,,,,,,,,,,,,,,,,,,,,,,,,,,,,,,,,,,,,,,,,,,,,,,,,,,,,,,,,,,,,,,,,,,,,,,,,,,,,,,,,,,,,,
0,10,10,83,1,,604d728ad647066e76840d8a,62c5385b9a5d4f8d5af6d3ec,2022-07-06_09h23.30.294,Colour_Asymmetry_Pilot,2022.1.3,Win32,120.6272618,62c50e9c1127f2cd403a315f,,,,,,,,,,,,,,,,,,,,,,,,,,,,,,,,,,,,,,,,,,,,,,,,,,,,,,,,,,,,,,,,,,,,,,,,,,,,,,,,,,,,,,,,,,,,,,,,,,,,,,,,,,,,,,,,,,,,,,,,,,,,,,,,,,,,,,,,,,,,,,,,,,,,,,,,,,,,,,,,,
0,11,11,78,1,,604d728ad647066e76840d8a,62c5385b9a5d4f8d5af6d3ec,2022-07-06_09h23.30.294,Colour_Asymmetry_Pilot,2022.1.3,Win32,120.6272618,62c50e9c1127f2cd403a315f,,,,,,,,,,,,,,,,,,,,,,,,,,,,,,,,,,,,,,,,,,,,,,,,,,,,,,,,,,,,,,,,,,,,,,,,,,,,,,,,,,,,,,,,,,,,,,,,,,,,,,,,,,,,,,,,,,,,,,,,,,,,,,,,,,,,,,,,,,,,,,,,,,,,,,,,,,,,,,,,,
0,12,12,91,1,,604d728ad647066e76840d8a,62c5385b9a5d4f8d5af6d3ec,2022-07-06_09h23.30.294,Colour_Asymmetry_Pilot,2022.1.3,Win32,120.6272618,62c50e9c1127f2cd403a315f,,,,,,,,,,,,,,,,,,,,,,,,,,,,,,,,,,,,,,,,,,,,,,,,,,,,,,,,,,,,,,,,,,,,,,,,,,,,,,,,,,,,,,,,,,,,,,,,,,,,,,,,,,,,,,,,,,,,,,,,,,,,,,,,,,,,,,,,,,,,,,,,,,,,,,,,,,,,,,,,,
0,13,13,25,1,,604d728ad647066e76840d8a,62c5385b9a5d4f8d5af6d3ec,2022-07-06_09h23.30.294,Colour_Asymmetry_Pilot,2022.1.3,Win32,120.6272618,62c50e9c1127f2cd403a315f,,,,,,,,,,,,,,,,,,,,,,,,,,,,,,,,,,,,,,,,,,,,,,,,,,,,,,,,,,,,,,,,,,,,,,,,,,,,,,,,,,,,,,,,,,,,,,,,,,,,,,,,,,,,,,,,,,,,,,,,,,,,,,,,,,,,,,,,,,,,,,,,,,,,,,,,,,,,,,,,,
0,14,14,69,1,,604d728ad647066e76840d8a,62c5385b9a5d4f8d5af6d3ec,2022-07-06_09h23.30.294,Colour_Asymmetry_Pilot,2022.1.3,Win32,120.6272618,62c50e9c1127f2cd403a315f,,,,,,,,,,,,,,,,,,,,,,,,,,,,,,,,,,,,,,,,,,,,,,,,,,,,,,,,,,,,,,,,,,,,,,,,,,,,,,,,,,,,,,,,,,,,,,,,,,,,,,,,,,,,,,,,,,,,,,,,,,,,,,,,,,,,,,,,,,,,,,,,,,,,,,,,,,,,,,,,,
0,15,15,20,1,,604d728ad647066e76840d8a,62c5385b9a5d4f8d5af6d3ec,2022-07-06_09h23.30.294,Colour_Asymmetry_Pilot,2022.1.3,Win32,120.6272618,62c50e9c1127f2cd403a315f,,,,,,,,,,,,,,,,,,,,,,,,,,,,,,,,,,,,,,,,,,,,,,,,,,,,,,,,,,,,,,,,,,,,,,,,,,,,,,,,,,,,,,,,,,,,,,,,,,,,,,,,,,,,,,,,,,,,,,,,,,,,,,,,,,,,,,,,,,,,,,,,,,,,,,,,,,,,,,,,,
0,16,16,31,1,,604d728ad647066e76840d8a,62c5385b9a5d4f8d5af6d3ec,2022-07-06_09h23.30.294,Colour_Asymmetry_Pilot,2022.1.3,Win32,120.6272618,62c50e9c1127f2cd403a315f,,,,,,,,,,,,,,,,,,,,,,,,,,,,,,,,,,,,,,,,,,,,,,,,,,,,,,,,,,,,,,,,,,,,,,,,,,,,,,,,,,,,,,,,,,,,,,,,,,,,,,,,,,,,,,,,,,,,,,,,,,,,,,,,,,,,,,,,,,,,,,,,,,,,,,,,,,,,,,,,,
0,17,17,73,1,,604d728ad647066e76840d8a,62c5385b9a5d4f8d5af6d3ec,2022-07-06_09h23.30.294,Colour_Asymmetry_Pilot,2022.1.3,Win32,120.6272618,62c50e9c1127f2cd403a315f,,,,,,,,,,,,,,,,,,,,,,,,,,,,,,,,,,,,,,,,,,,,,,,,,,,,,,,,,,,,,,,,,,,,,,,,,,,,,,,,,,,,,,,,,,,,,,,,,,,,,,,,,,,,,,,,,,,,,,,,,,,,,,,,,,,,,,,,,,,,,,,,,,,,,,,,,,,,,,,,,
0,18,18,29,1,,604d728ad647066e76840d8a,62c5385b9a5d4f8d5af6d3ec,2022-07-06_09h23.30.294,Colour_Asymmetry_Pilot,2022.1.3,Win32,120.6272618,62c50e9c1127f2cd403a315f,,,,,,,,,,,,,,,,,,,,,,,,,,,,,,,,,,,,,,,,,,,,,,,,,,,,,,,,,,,,,,,,,,,,,,,,,,,,,,,,,,,,,,,,,,,,,,,,,,,,,,,,,,,,,,,,,,,,,,,,,,,,,,,,,,,,,,,,,,,,,,,,,,,,,,,,,,,,,,,,,
0,19,19,24,1,,604d728ad647066e76840d8a,62c5385b9a5d4f8d5af6d3ec,2022-07-06_09h23.30.294,Colour_Asymmetry_Pilot,2022.1.3,Win32,120.6272618,62c50e9c1127f2cd403a315f,,,,,,,,,,,,,,,,,,,,,,,,,,,,,,,,,,,,,,,,,,,,,,,,,,,,,,,,,,,,,,,,,,,,,,,,,,,,,,,,,,,,,,,,,,,,,,,,,,,,,,,,,,,,,,,,,,,,,,,,,,,,,,,,,,,,,,,,,,,,,,,,,,,,,,,,,,,,,,,,,
0,20,20,22,1,,604d728ad647066e76840d8a,62c5385b9a5d4f8d5af6d3ec,2022-07-06_09h23.30.294,Colour_Asymmetry_Pilot,2022.1.3,Win32,120.6272618,62c50e9c1127f2cd403a315f,,,,,,,,,,,,,,,,,,,,,,,,,,,,,,,,,,,,,,,,,,,,,,,,,,,,,,,,,,,,,,,,,,,,,,,,,,,,,,,,,,,,,,,,,,,,,,,,,,,,,,,,,,,,,,,,,,,,,,,,,,,,,,,,,,,,,,,,,,,,,,,,,,,,,,,,,,,,,,,,,
0,21,21,54,1,,604d728ad647066e76840d8a,62c5385b9a5d4f8d5af6d3ec,2022-07-06_09h23.30.294,Colour_Asymmetry_Pilot,2022.1.3,Win32,120.6272618,62c50e9c1127f2cd403a315f,,,,,,,,,,,,,,,,,,,,,,,,,,,,,,,,,,,,,,,,,,,,,,,,,,,,,,,,,,,,,,,,,,,,,,,,,,,,,,,,,,,,,,,,,,,,,,,,,,,,,,,,,,,,,,,,,,,,,,,,,,,,,,,,,,,,,,,,,,,,,,,,,,,,,,,,,,,,,,,,,
0,22,22,86,1,,604d728ad647066e76840d8a,62c5385b9a5d4f8d5af6d3ec,2022-07-06_09h23.30.294,Colour_Asymmetry_Pilot,2022.1.3,Win32,120.6272618,62c50e9c1127f2cd403a315f,,,,,,,,,,,,,,,,,,,,,,,,,,,,,,,,,,,,,,,,,,,,,,,,,,,,,,,,,,,,,,,,,,,,,,,,,,,,,,,,,,,,,,,,,,,,,,,,,,,,,,,,,,,,,,,,,,,,,,,,,,,,,,,,,,,,,,,,,,,,,,,,,,,,,,,,,,,,,,,,,
0,23,23,46,1,,604d728ad647066e76840d8a,62c5385b9a5d4f8d5af6d3ec,2022-07-06_09h23.30.294,Colour_Asymmetry_Pilot,2022.1.3,Win32,120.6272618,62c50e9c1127f2cd403a315f,,,,,,,,,,,,,,,,,,,,,,,,,,,,,,,,,,,,,,,,,,,,,,,,,,,,,,,,,,,,,,,,,,,,,,,,,,,,,,,,,,,,,,,,,,,,,,,,,,,,,,,,,,,,,,,,,,,,,,,,,,,,,,,,,,,,,,,,,,,,,,,,,,,,,,,,,,,,,,,,,
0,24,24,76,1,,604d728ad647066e76840d8a,62c5385b9a5d4f8d5af6d3ec,2022-07-06_09h23.30.294,Colour_Asymmetry_Pilot,2022.1.3,Win32,120.6272618,62c50e9c1127f2cd403a315f,,,,,,,,,,,,,,,,,,,,,,,,,,,,,,,,,,,,,,,,,,,,,,,,,,,,,,,,,,,,,,,,,,,,,,,,,,,,,,,,,,,,,,,,,,,,,,,,,,,,,,,,,,,,,,,,,,,,,,,,,,,,,,,,,,,,,,,,,,,,,,,,,,,,,,,,,,,,,,,,,
0,25,25,44,1,,604d728ad647066e76840d8a,62c5385b9a5d4f8d5af6d3ec,2022-07-06_09h23.30.294,Colour_Asymmetry_Pilot,2022.1.3,Win32,120.6272618,62c50e9c1127f2cd403a315f,,,,,,,,,,,,,,,,,,,,,,,,,,,,,,,,,,,,,,,,,,,,,,,,,,,,,,,,,,,,,,,,,,,,,,,,,,,,,,,,,,,,,,,,,,,,,,,,,,,,,,,,,,,,,,,,,,,,,,,,,,,,,,,,,,,,,,,,,,,,,,,,,,,,,,,,,,,,,,,,,
0,26,26,92,1,,604d728ad647066e76840d8a,62c5385b9a5d4f8d5af6d3ec,2022-07-06_09h23.30.294,Colour_Asymmetry_Pilot,2022.1.3,Win32,120.6272618,62c50e9c1127f2cd403a315f,,,,,,,,,,,,,,,,,,,,,,,,,,,,,,,,,,,,,,,,,,,,,,,,,,,,,,,,,,,,,,,,,,,,,,,,,,,,,,,,,,,,,,,,,,,,,,,,,,,,,,,,,,,,,,,,,,,,,,,,,,,,,,,,,,,,,,,,,,,,,,,,,,,,,,,,,,,,,,,,,
0,27,27,49,1,,604d728ad647066e76840d8a,62c5385b9a5d4f8d5af6d3ec,2022-07-06_09h23.30.294,Colour_Asymmetry_Pilot,2022.1.3,Win32,120.6272618,62c50e9c1127f2cd403a315f,,,,,,,,,,,,,,,,,,,,,,,,,,,,,,,,,,,,,,,,,,,,,,,,,,,,,,,,,,,,,,,,,,,,,,,,,,,,,,,,,,,,,,,,,,,,,,,,,,,,,,,,,,,,,,,,,,,,,,,,,,,,,,,,,,,,,,,,,,,,,,,,,,,,,,,,,,,,,,,,,
0,28,28,88,1,,604d728ad647066e76840d8a,62c5385b9a5d4f8d5af6d3ec,2022-07-06_09h23.30.294,Colour_Asymmetry_Pilot,2022.1.3,Win32,120.6272618,62c50e9c1127f2cd403a315f,,,,,,,,,,,,,,,,,,,,,,,,,,,,,,,,,,,,,,,,,,,,,,,,,,,,,,,,,,,,,,,,,,,,,,,,,,,,,,,,,,,,,,,,,,,,,,,,,,,,,,,,,,,,,,,,,,,,,,,,,,,,,,,,,,,,,,,,,,,,,,,,,,,,,,,,,,,,,,,,,
0,29,29,4,1,,604d728ad647066e76840d8a,62c5385b9a5d4f8d5af6d3ec,2022-07-06_09h23.30.294,Colour_Asymmetry_Pilot,2022.1.3,Win32,120.6272618,62c50e9c1127f2cd403a315f,,,,,,,,,,,,,,,,,,,,,,,,,,,,,,,,,,,,,,,,,,,,,,,,,,,,,,,,,,,,,,,,,,,,,,,,,,,,,,,,,,,,,,,,,,,,,,,,,,,,,,,,,,,,,,,,,,,,,,,,,,,,,,,,,,,,,,,,,,,,,,,,,,,,,,,,,,,,,,,,,
0,30,30,35,1,,604d728ad647066e76840d8a,62c5385b9a5d4f8d5af6d3ec,2022-07-06_09h23.30.294,Colour_Asymmetry_Pilot,2022.1.3,Win32,120.6272618,62c50e9c1127f2cd403a315f,,,,,,,,,,,,,,,,,,,,,,,,,,,,,,,,,,,,,,,,,,,,,,,,,,,,,,,,,,,,,,,,,,,,,,,,,,,,,,,,,,,,,,,,,,,,,,,,,,,,,,,,,,,,,,,,,,,,,,,,,,,,,,,,,,,,,,,,,,,,,,,,,,,,,,,,,,,,,,,,,
0,31,31,0,1,,604d728ad647066e76840d8a,62c5385b9a5d4f8d5af6d3ec,2022-07-06_09h23.30.294,Colour_Asymmetry_Pilot,2022.1.3,Win32,120.6272618,62c50e9c1127f2cd403a315f,,,,,,,,,,,,,,,,,,,,,,,,,,,,,,,,,,,,,,,,,,,,,,,,,,,,,,,,,,,,,,,,,,,,,,,,,,,,,,,,,,,,,,,,,,,,,,,,,,,,,,,,,,,,,,,,,,,,,,,,,,,,,,,,,,,,,,,,,,,,,,,,,,,,,,,,,,,,,,,,,
0,32,32,26,1,,604d728ad647066e76840d8a,62c5385b9a5d4f8d5af6d3ec,2022-07-06_09h23.30.294,Colour_Asymmetry_Pilot,2022.1.3,Win32,120.6272618,62c50e9c1127f2cd403a315f,,,,,,,,,,,,,,,,,,,,,,,,,,,,,,,,,,,,,,,,,,,,,,,,,,,,,,,,,,,,,,,,,,,,,,,,,,,,,,,,,,,,,,,,,,,,,,,,,,,,,,,,,,,,,,,,,,,,,,,,,,,,,,,,,,,,,,,,,,,,,,,,,,,,,,,,,,,,,,,,,
0,33,33,3,1,,604d728ad647066e76840d8a,62c5385b9a5d4f8d5af6d3ec,2022-07-06_09h23.30.294,Colour_Asymmetry_Pilot,2022.1.3,Win32,120.6272618,62c50e9c1127f2cd403a315f,,,,,,,,,,,,,,,,,,,,,,,,,,,,,,,,,,,,,,,,,,,,,,,,,,,,,,,,,,,,,,,,,,,,,,,,,,,,,,,,,,,,,,,,,,,,,,,,,,,,,,,,,,,,,,,,,,,,,,,,,,,,,,,,,,,,,,,,,,,,,,,,,,,,,,,,,,,,,,,,,
0,34,34,60,1,,604d728ad647066e76840d8a,62c5385b9a5d4f8d5af6d3ec,2022-07-06_09h23.30.294,Colour_Asymmetry_Pilot,2022.1.3,Win32,120.6272618,62c50e9c1127f2cd403a315f,,,,,,,,,,,,,,,,,,,,,,,,,,,,,,,,,,,,,,,,,,,,,,,,,,,,,,,,,,,,,,,,,,,,,,,,,,,,,,,,,,,,,,,,,,,,,,,,,,,,,,,,,,,,,,,,,,,,,,,,,,,,,,,,,,,,,,,,,,,,,,,,,,,,,,,,,,,,,,,,,
0,35,35,10,1,,604d728ad647066e76840d8a,62c5385b9a5d4f8d5af6d3ec,2022-07-06_09h23.30.294,Colour_Asymmetry_Pilot,2022.1.3,Win32,120.6272618,62c50e9c1127f2cd403a315f,,,,,,,,,,,,,,,,,,,,,,,,,,,,,,,,,,,,,,,,,,,,,,,,,,,,,,,,,,,,,,,,,,,,,,,,,,,,,,,,,,,,,,,,,,,,,,,,,,,,,,,,,,,,,,,,,,,,,,,,,,,,,,,,,,,,,,,,,,,,,,,,,,,,,,,,,,,,,,,,,
0,36,36,18,1,,604d728ad647066e76840d8a,62c5385b9a5d4f8d5af6d3ec,2022-07-06_09h23.30.294,Colour_Asymmetry_Pilot,2022.1.3,Win32,120.6272618,62c50e9c1127f2cd403a315f,,,,,,,,,,,,,,,,,,,,,,,,,,,,,,,,,,,,,,,,,,,,,,,,,,,,,,,,,,,,,,,,,,,,,,,,,,,,,,,,,,,,,,,,,,,,,,,,,,,,,,,,,,,,,,,,,,,,,,,,,,,,,,,,,,,,,,,,,,,,,,,,,,,,,,,,,,,,,,,,,
0,37,37,32,1,,604d728ad647066e76840d8a,62c5385b9a5d4f8d5af6d3ec,2022-07-06_09h23.30.294,Colour_Asymmetry_Pilot,2022.1.3,Win32,120.6272618,62c50e9c1127f2cd403a315f,,,,,,,,,,,,,,,,,,,,,,,,,,,,,,,,,,,,,,,,,,,,,,,,,,,,,,,,,,,,,,,,,,,,,,,,,,,,,,,,,,,,,,,,,,,,,,,,,,,,,,,,,,,,,,,,,,,,,,,,,,,,,,,,,,,,,,,,,,,,,,,,,,,,,,,,,,,,,,,,,
0,38,38,81,1,,604d728ad647066e76840d8a,62c5385b9a5d4f8d5af6d3ec,2022-07-06_09h23.30.294,Colour_Asymmetry_Pilot,2022.1.3,Win32,120.6272618,62c50e9c1127f2cd403a315f,,,,,,,,,,,,,,,,,,,,,,,,,,,,,,,,,,,,,,,,,,,,,,,,,,,,,,,,,,,,,,,,,,,,,,,,,,,,,,,,,,,,,,,,,,,,,,,,,,,,,,,,,,,,,,,,,,,,,,,,,,,,,,,,,,,,,,,,,,,,,,,,,,,,,,,,,,,,,,,,,
0,39,39,55,1,,604d728ad647066e76840d8a,62c5385b9a5d4f8d5af6d3ec,2022-07-06_09h23.30.294,Colour_Asymmetry_Pilot,2022.1.3,Win32,120.6272618,62c50e9c1127f2cd403a315f,,,,,,,,,,,,,,,,,,,,,,,,,,,,,,,,,,,,,,,,,,,,,,,,,,,,,,,,,,,,,,,,,,,,,,,,,,,,,,,,,,,,,,,,,,,,,,,,,,,,,,,,,,,,,,,,,,,,,,,,,,,,,,,,,,,,,,,,,,,,,,,,,,,,,,,,,,,,,,,,,
0,40,40,36,1,,604d728ad647066e76840d8a,62c5385b9a5d4f8d5af6d3ec,2022-07-06_09h23.30.294,Colour_Asymmetry_Pilot,2022.1.3,Win32,120.6272618,62c50e9c1127f2cd403a315f,,,,,,,,,,,,,,,,,,,,,,,,,,,,,,,,,,,,,,,,,,,,,,,,,,,,,,,,,,,,,,,,,,,,,,,,,,,,,,,,,,,,,,,,,,,,,,,,,,,,,,,,,,,,,,,,,,,,,,,,,,,,,,,,,,,,,,,,,,,,,,,,,,,,,,,,,,,,,,,,,
0,41,41,33,1,,604d728ad647066e76840d8a,62c5385b9a5d4f8d5af6d3ec,2022-07-06_09h23.30.294,Colour_Asymmetry_Pilot,2022.1.3,Win32,120.6272618,62c50e9c1127f2cd403a315f,,,,,,,,,,,,,,,,,,,,,,,,,,,,,,,,,,,,,,,,,,,,,,,,,,,,,,,,,,,,,,,,,,,,,,,,,,,,,,,,,,,,,,,,,,,,,,,,,,,,,,,,,,,,,,,,,,,,,,,,,,,,,,,,,,,,,,,,,,,,,,,,,,,,,,,,,,,,,,,,,
0,42,42,87,1,,604d728ad647066e76840d8a,62c5385b9a5d4f8d5af6d3ec,2022-07-06_09h23.30.294,Colour_Asymmetry_Pilot,2022.1.3,Win32,120.6272618,62c50e9c1127f2cd403a315f,,,,,,,,,,,,,,,,,,,,,,,,,,,,,,,,,,,,,,,,,,,,,,,,,,,,,,,,,,,,,,,,,,,,,,,,,,,,,,,,,,,,,,,,,,,,,,,,,,,,,,,,,,,,,,,,,,,,,,,,,,,,,,,,,,,,,,,,,,,,,,,,,,,,,,,,,,,,,,,,,
0,43,43,27,1,,604d728ad647066e76840d8a,62c5385b9a5d4f8d5af6d3ec,2022-07-06_09h23.30.294,Colour_Asymmetry_Pilot,2022.1.3,Win32,120.6272618,62c50e9c1127f2cd403a315f,,,,,,,,,,,,,,,,,,,,,,,,,,,,,,,,,,,,,,,,,,,,,,,,,,,,,,,,,,,,,,,,,,,,,,,,,,,,,,,,,,,,,,,,,,,,,,,,,,,,,,,,,,,,,,,,,,,,,,,,,,,,,,,,,,,,,,,,,,,,,,,,,,,,,,,,,,,,,,,,,
0,44,44,8,1,,604d728ad647066e76840d8a,62c5385b9a5d4f8d5af6d3ec,2022-07-06_09h23.30.294,Colour_Asymmetry_Pilot,2022.1.3,Win32,120.6272618,62c50e9c1127f2cd403a315f,,,,,,,,,,,,,,,,,,,,,,,,,,,,,,,,,,,,,,,,,,,,,,,,,,,,,,,,,,,,,,,,,,,,,,,,,,,,,,,,,,,,,,,,,,,,,,,,,,,,,,,,,,,,,,,,,,,,,,,,,,,,,,,,,,,,,,,,,,,,,,,,,,,,,,,,,,,,,,,,,
0,45,45,74,1,,604d728ad647066e76840d8a,62c5385b9a5d4f8d5af6d3ec,2022-07-06_09h23.30.294,Colour_Asymmetry_Pilot,2022.1.3,Win32,120.6272618,62c50e9c1127f2cd403a315f,,,,,,,,,,,,,,,,,,,,,,,,,,,,,,,,,,,,,,,,,,,,,,,,,,,,,,,,,,,,,,,,,,,,,,,,,,,,,,,,,,,,,,,,,,,,,,,,,,,,,,,,,,,,,,,,,,,,,,,,,,,,,,,,,,,,,,,,,,,,,,,,,,,,,,,,,,,,,,,,,
0,46,46,34,1,,604d728ad647066e76840d8a,62c5385b9a5d4f8d5af6d3ec,2022-07-06_09h23.30.294,Colour_Asymmetry_Pilot,2022.1.3,Win32,120.6272618,62c50e9c1127f2cd403a315f,,,,,,,,,,,,,,,,,,,,,,,,,,,,,,,,,,,,,,,,,,,,,,,,,,,,,,,,,,,,,,,,,,,,,,,,,,,,,,,,,,,,,,,,,,,,,,,,,,,,,,,,,,,,,,,,,,,,,,,,,,,,,,,,,,,,,,,,,,,,,,,,,,,,,,,,,,,,,,,,,
0,47,47,9,1,,604d728ad647066e76840d8a,62c5385b9a5d4f8d5af6d3ec,2022-07-06_09h23.30.294,Colour_Asymmetry_Pilot,2022.1.3,Win32,120.6272618,62c50e9c1127f2cd403a315f,,,,,,,,,,,,,,,,,,,,,,,,,,,,,,,,,,,,,,,,,,,,,,,,,,,,,,,,,,,,,,,,,,,,,,,,,,,,,,,,,,,,,,,,,,,,,,,,,,,,,,,,,,,,,,,,,,,,,,,,,,,,,,,,,,,,,,,,,,,,,,,,,,,,,,,,,,,,,,,,,
0,48,48,82,1,,604d728ad647066e76840d8a,62c5385b9a5d4f8d5af6d3ec,2022-07-06_09h23.30.294,Colour_Asymmetry_Pilot,2022.1.3,Win32,120.6272618,62c50e9c1127f2cd403a315f,,,,,,,,,,,,,,,,,,,,,,,,,,,,,,,,,,,,,,,,,,,,,,,,,,,,,,,,,,,,,,,,,,,,,,,,,,,,,,,,,,,,,,,,,,,,,,,,,,,,,,,,,,,,,,,,,,,,,,,,,,,,,,,,,,,,,,,,,,,,,,,,,,,,,,,,,,,,,,,,,
0,49,49,71,1,,604d728ad647066e76840d8a,62c5385b9a5d4f8d5af6d3ec,2022-07-06_09h23.30.294,Colour_Asymmetry_Pilot,2022.1.3,Win32,120.6272618,62c50e9c1127f2cd403a315f,,,,,,,,,,,,,,,,,,,,,,,,,,,,,,,,,,,,,,,,,,,,,,,,,,,,,,,,,,,,,,,,,,,,,,,,,,,,,,,,,,,,,,,,,,,,,,,,,,,,,,,,,,,,,,,,,,,,,,,,,,,,,,,,,,,,,,,,,,,,,,,,,,,,,,,,,,,,,,,,,
0,50,50,17,1,,604d728ad647066e76840d8a,62c5385b9a5d4f8d5af6d3ec,2022-07-06_09h23.30.294,Colour_Asymmetry_Pilot,2022.1.3,Win32,120.6272618,62c50e9c1127f2cd403a315f,,,,,,,,,,,,,,,,,,,,,,,,,,,,,,,,,,,,,,,,,,,,,,,,,,,,,,,,,,,,,,,,,,,,,,,,,,,,,,,,,,,,,,,,,,,,,,,,,,,,,,,,,,,,,,,,,,,,,,,,,,,,,,,,,,,,,,,,,,,,,,,,,,,,,,,,,,,,,,,,,
0,51,51,16,1,,604d728ad647066e76840d8a,62c5385b9a5d4f8d5af6d3ec,2022-07-06_09h23.30.294,Colour_Asymmetry_Pilot,2022.1.3,Win32,120.6272618,62c50e9c1127f2cd403a315f,,,,,,,,,,,,,,,,,,,,,,,,,,,,,,,,,,,,,,,,,,,,,,,,,,,,,,,,,,,,,,,,,,,,,,,,,,,,,,,,,,,,,,,,,,,,,,,,,,,,,,,,,,,,,,,,,,,,,,,,,,,,,,,,,,,,,,,,,,,,,,,,,,,,,,,,,,,,,,,,,
0,52,52,23,1,,604d728ad647066e76840d8a,62c5385b9a5d4f8d5af6d3ec,2022-07-06_09h23.30.294,Colour_Asymmetry_Pilot,2022.1.3,Win32,120.6272618,62c50e9c1127f2cd403a315f,,,,,,,,,,,,,,,,,,,,,,,,,,,,,,,,,,,,,,,,,,,,,,,,,,,,,,,,,,,,,,,,,,,,,,,,,,,,,,,,,,,,,,,,,,,,,,,,,,,,,,,,,,,,,,,,,,,,,,,,,,,,,,,,,,,,,,,,,,,,,,,,,,,,,,,,,,,,,,,,,
0,53,53,77,1,,604d728ad647066e76840d8a,62c5385b9a5d4f8d5af6d3ec,2022-07-06_09h23.30.294,Colour_Asymmetry_Pilot,2022.1.3,Win32,120.6272618,62c50e9c1127f2cd403a315f,,,,,,,,,,,,,,,,,,,,,,,,,,,,,,,,,,,,,,,,,,,,,,,,,,,,,,,,,,,,,,,,,,,,,,,,,,,,,,,,,,,,,,,,,,,,,,,,,,,,,,,,,,,,,,,,,,,,,,,,,,,,,,,,,,,,,,,,,,,,,,,,,,,,,,,,,,,,,,,,,
0,54,54,67,1,,604d728ad647066e76840d8a,62c5385b9a5d4f8d5af6d3ec,2022-07-06_09h23.30.294,Colour_Asymmetry_Pilot,2022.1.3,Win32,120.6272618,62c50e9c1127f2cd403a315f,,,,,,,,,,,,,,,,,,,,,,,,,,,,,,,,,,,,,,,,,,,,,,,,,,,,,,,,,,,,,,,,,,,,,,,,,,,,,,,,,,,,,,,,,,,,,,,,,,,,,,,,,,,,,,,,,,,,,,,,,,,,,,,,,,,,,,,,,,,,,,,,,,,,,,,,,,,,,,,,,
0,55,55,11,1,,604d728ad647066e76840d8a,62c5385b9a5d4f8d5af6d3ec,2022-07-06_09h23.30.294,Colour_Asymmetry_Pilot,2022.1.3,Win32,120.6272618,62c50e9c1127f2cd403a315f,,,,,,,,,,,,,,,,,,,,,,,,,,,,,,,,,,,,,,,,,,,,,,,,,,,,,,,,,,,,,,,,,,,,,,,,,,,,,,,,,,,,,,,,,,,,,,,,,,,,,,,,,,,,,,,,,,,,,,,,,,,,,,,,,,,,,,,,,,,,,,,,,,,,,,,,,,,,,,,,,
0,56,56,37,1,,604d728ad647066e76840d8a,62c5385b9a5d4f8d5af6d3ec,2022-07-06_09h23.30.294,Colour_Asymmetry_Pilot,2022.1.3,Win32,120.6272618,62c50e9c1127f2cd403a315f,,,,,,,,,,,,,,,,,,,,,,,,,,,,,,,,,,,,,,,,,,,,,,,,,,,,,,,,,,,,,,,,,,,,,,,,,,,,,,,,,,,,,,,,,,,,,,,,,,,,,,,,,,,,,,,,,,,,,,,,,,,,,,,,,,,,,,,,,,,,,,,,,,,,,,,,,,,,,,,,,
0,57,57,89,1,,604d728ad647066e76840d8a,62c5385b9a5d4f8d5af6d3ec,2022-07-06_09h23.30.294,Colour_Asymmetry_Pilot,2022.1.3,Win32,120.6272618,62c50e9c1127f2cd403a315f,,,,,,,,,,,,,,,,,,,,,,,,,,,,,,,,,,,,,,,,,,,,,,,,,,,,,,,,,,,,,,,,,,,,,,,,,,,,,,,,,,,,,,,,,,,,,,,,,,,,,,,,,,,,,,,,,,,,,,,,,,,,,,,,,,,,,,,,,,,,,,,,,,,,,,,,,,,,,,,,,
0,58,58,70,1,,604d728ad647066e76840d8a,62c5385b9a5d4f8d5af6d3ec,2022-07-06_09h23.30.294,Colour_Asymmetry_Pilot,2022.1.3,Win32,120.6272618,62c50e9c1127f2cd403a315f,,,,,,,,,,,,,,,,,,,,,,,,,,,,,,,,,,,,,,,,,,,,,,,,,,,,,,,,,,,,,,,,,,,,,,,,,,,,,,,,,,,,,,,,,,,,,,,,,,,,,,,,,,,,,,,,,,,,,,,,,,,,,,,,,,,,,,,,,,,,,,,,,,,,,,,,,,,,,,,,,
0,59,59,45,1,,604d728ad647066e76840d8a,62c5385b9a5d4f8d5af6d3ec,2022-07-06_09h23.30.294,Colour_Asymmetry_Pilot,2022.1.3,Win32,120.6272618,62c50e9c1127f2cd403a315f,,,,,,,,,,,,,,,,,,,,,,,,,,,,,,,,,,,,,,,,,,,,,,,,,,,,,,,,,,,,,,,,,,,,,,,,,,,,,,,,,,,,,,,,,,,,,,,,,,,,,,,,,,,,,,,,,,,,,,,,,,,,,,,,,,,,,,,,,,,,,,,,,,,,,,,,,,,,,,,,,
0,60,60,7,1,,604d728ad647066e76840d8a,62c5385b9a5d4f8d5af6d3ec,2022-07-06_09h23.30.294,Colour_Asymmetry_Pilot,2022.1.3,Win32,120.6272618,62c50e9c1127f2cd403a315f,,,,,,,,,,,,,,,,,,,,,,,,,,,,,,,,,,,,,,,,,,,,,,,,,,,,,,,,,,,,,,,,,,,,,,,,,,,,,,,,,,,,,,,,,,,,,,,,,,,,,,,,,,,,,,,,,,,,,,,,,,,,,,,,,,,,,,,,,,,,,,,,,,,,,,,,,,,,,,,,,
0,61,61,68,1,,604d728ad647066e76840d8a,62c5385b9a5d4f8d5af6d3ec,2022-07-06_09h23.30.294,Colour_Asymmetry_Pilot,2022.1.3,Win32,120.6272618,62c50e9c1127f2cd403a315f,,,,,,,,,,,,,,,,,,,,,,,,,,,,,,,,,,,,,,,,,,,,,,,,,,,,,,,,,,,,,,,,,,,,,,,,,,,,,,,,,,,,,,,,,,,,,,,,,,,,,,,,,,,,,,,,,,,,,,,,,,,,,,,,,,,,,,,,,,,,,,,,,,,,,,,,,,,,,,,,,
0,62,62,57,1,,604d728ad647066e76840d8a,62c5385b9a5d4f8d5af6d3ec,2022-07-06_09h23.30.294,Colour_Asymmetry_Pilot,2022.1.3,Win32,120.6272618,62c50e9c1127f2cd403a315f,,,,,,,,,,,,,,,,,,,,,,,,,,,,,,,,,,,,,,,,,,,,,,,,,,,,,,,,,,,,,,,,,,,,,,,,,,,,,,,,,,,,,,,,,,,,,,,,,,,,,,,,,,,,,,,,,,,,,,,,,,,,,,,,,,,,,,,,,,,,,,,,,,,,,,,,,,,,,,,,,
0,63,63,56,1,,604d728ad647066e76840d8a,62c5385b9a5d4f8d5af6d3ec,2022-07-06_09h23.30.294,Colour_Asymmetry_Pilot,2022.1.3,Win32,120.6272618,62c50e9c1127f2cd403a315f,,,,,,,,,,,,,,,,,,,,,,,,,,,,,,,,,,,,,,,,,,,,,,,,,,,,,,,,,,,,,,,,,,,,,,,,,,,,,,,,,,,,,,,,,,,,,,,,,,,,,,,,,,,,,,,,,,,,,,,,,,,,,,,,,,,,,,,,,,,,,,,,,,,,,,,,,,,,,,,,,
0,64,64,42,1,,604d728ad647066e76840d8a,62c5385b9a5d4f8d5af6d3ec,2022-07-06_09h23.30.294,Colour_Asymmetry_Pilot,2022.1.3,Win32,120.6272618,62c50e9c1127f2cd403a315f,,,,,,,,,,,,,,,,,,,,,,,,,,,,,,,,,,,,,,,,,,,,,,,,,,,,,,,,,,,,,,,,,,,,,,,,,,,,,,,,,,,,,,,,,,,,,,,,,,,,,,,,,,,,,,,,,,,,,,,,,,,,,,,,,,,,,,,,,,,,,,,,,,,,,,,,,,,,,,,,,
0,65,65,63,1,,604d728ad647066e76840d8a,62c5385b9a5d4f8d5af6d3ec,2022-07-06_09h23.30.294,Colour_Asymmetry_Pilot,2022.1.3,Win32,120.6272618,62c50e9c1127f2cd403a315f,,,,,,,,,,,,,,,,,,,,,,,,,,,,,,,,,,,,,,,,,,,,,,,,,,,,,,,,,,,,,,,,,,,,,,,,,,,,,,,,,,,,,,,,,,,,,,,,,,,,,,,,,,,,,,,,,,,,,,,,,,,,,,,,,,,,,,,,,,,,,,,,,,,,,,,,,,,,,,,,,
0,66,66,2,1,,604d728ad647066e76840d8a,62c5385b9a5d4f8d5af6d3ec,2022-07-06_09h23.30.294,Colour_Asymmetry_Pilot,2022.1.3,Win32,120.6272618,62c50e9c1127f2cd403a315f,,,,,,,,,,,,,,,,,,,,,,,,,,,,,,,,,,,,,,,,,,,,,,,,,,,,,,,,,,,,,,,,,,,,,,,,,,,,,,,,,,,,,,,,,,,,,,,,,,,,,,,,,,,,,,,,,,,,,,,,,,,,,,,,,,,,,,,,,,,,,,,,,,,,,,,,,,,,,,,,,
0,67,67,50,1,,604d728ad647066e76840d8a,62c5385b9a5d4f8d5af6d3ec,2022-07-06_09h23.30.294,Colour_Asymmetry_Pilot,2022.1.3,Win32,120.6272618,62c50e9c1127f2cd403a315f,,,,,,,,,,,,,,,,,,,,,,,,,,,,,,,,,,,,,,,,,,,,,,,,,,,,,,,,,,,,,,,,,,,,,,,,,,,,,,,,,,,,,,,,,,,,,,,,,,,,,,,,,,,,,,,,,,,,,,,,,,,,,,,,,,,,,,,,,,,,,,,,,,,,,,,,,,,,,,,,,
0,68,68,43,1,,604d728ad647066e76840d8a,62c5385b9a5d4f8d5af6d3ec,2022-07-06_09h23.30.294,Colour_Asymmetry_Pilot,2022.1.3,Win32,120.6272618,62c50e9c1127f2cd403a315f,,,,,,,,,,,,,,,,,,,,,,,,,,,,,,,,,,,,,,,,,,,,,,,,,,,,,,,,,,,,,,,,,,,,,,,,,,,,,,,,,,,,,,,,,,,,,,,,,,,,,,,,,,,,,,,,,,,,,,,,,,,,,,,,,,,,,,,,,,,,,,,,,,,,,,,,,,,,,,,,,
0,69,69,58,1,,604d728ad647066e76840d8a,62c5385b9a5d4f8d5af6d3ec,2022-07-06_09h23.30.294,Colour_Asymmetry_Pilot,2022.1.3,Win32,120.6272618,62c50e9c1127f2cd403a315f,,,,,,,,,,,,,,,,,,,,,,,,,,,,,,,,,,,,,,,,,,,,,,,,,,,,,,,,,,,,,,,,,,,,,,,,,,,,,,,,,,,,,,,,,,,,,,,,,,,,,,,,,,,,,,,,,,,,,,,,,,,,,,,,,,,,,,,,,,,,,,,,,,,,,,,,,,,,,,,,,
0,70,70,28,1,,604d728ad647066e76840d8a,62c5385b9a5d4f8d5af6d3ec,2022-07-06_09h23.30.294,Colour_Asymmetry_Pilot,2022.1.3,Win32,120.6272618,62c50e9c1127f2cd403a315f,,,,,,,,,,,,,,,,,,,,,,,,,,,,,,,,,,,,,,,,,,,,,,,,,,,,,,,,,,,,,,,,,,,,,,,,,,,,,,,,,,,,,,,,,,,,,,,,,,,,,,,,,,,,,,,,,,,,,,,,,,,,,,,,,,,,,,,,,,,,,,,,,,,,,,,,,,,,,,,,,
0,71,71,59,1,,604d728ad647066e76840d8a,62c5385b9a5d4f8d5af6d3ec,2022-07-06_09h23.30.294,Colour_Asymmetry_Pilot,2022.1.3,Win32,120.6272618,62c50e9c1127f2cd403a315f,,,,,,,,,,,,,,,,,,,,,,,,,,,,,,,,,,,,,,,,,,,,,,,,,,,,,,,,,,,,,,,,,,,,,,,,,,,,,,,,,,,,,,,,,,,,,,,,,,,,,,,,,,,,,,,,,,,,,,,,,,,,,,,,,,,,,,,,,,,,,,,,,,,,,,,,,,,,,,,,,
0,72,72,1,1,,604d728ad647066e76840d8a,62c5385b9a5d4f8d5af6d3ec,2022-07-06_09h23.30.294,Colour_Asymmetry_Pilot,2022.1.3,Win32,120.6272618,62c50e9c1127f2cd403a315f,,,,,,,,,,,,,,,,,,,,,,,,,,,,,,,,,,,,,,,,,,,,,,,,,,,,,,,,,,,,,,,,,,,,,,,,,,,,,,,,,,,,,,,,,,,,,,,,,,,,,,,,,,,,,,,,,,,,,,,,,,,,,,,,,,,,,,,,,,,,,,,,,,,,,,,,,,,,,,,,,
0,73,73,80,1,,604d728ad647066e76840d8a,62c5385b9a5d4f8d5af6d3ec,2022-07-06_09h23.30.294,Colour_Asymmetry_Pilot,2022.1.3,Win32,120.6272618,62c50e9c1127f2cd403a315f,,,,,,,,,,,,,,,,,,,,,,,,,,,,,,,,,,,,,,,,,,,,,,,,,,,,,,,,,,,,,,,,,,,,,,,,,,,,,,,,,,,,,,,,,,,,,,,,,,,,,,,,,,,,,,,,,,,,,,,,,,,,,,,,,,,,,,,,,,,,,,,,,,,,,,,,,,,,,,,,,
0,74,74,62,1,,604d728ad647066e76840d8a,62c5385b9a5d4f8d5af6d3ec,2022-07-06_09h23.30.294,Colour_Asymmetry_Pilot,2022.1.3,Win32,120.6272618,62c50e9c1127f2cd403a315f,,,,,,,,,,,,,,,,,,,,,,,,,,,,,,,,,,,,,,,,,,,,,,,,,,,,,,,,,,,,,,,,,,,,,,,,,,,,,,,,,,,,,,,,,,,,,,,,,,,,,,,,,,,,,,,,,,,,,,,,,,,,,,,,,,,,,,,,,,,,,,,,,,,,,,,,,,,,,,,,,
0,75,75,53,1,,604d728ad647066e76840d8a,62c5385b9a5d4f8d5af6d3ec,2022-07-06_09h23.30.294,Colour_Asymmetry_Pilot,2022.1.3,Win32,120.6272618,62c50e9c1127f2cd403a315f,,,,,,,,,,,,,,,,,,,,,,,,,,,,,,,,,,,,,,,,,,,,,,,,,,,,,,,,,,,,,,,,,,,,,,,,,,,,,,,,,,,,,,,,,,,,,,,,,,,,,,,,,,,,,,,,,,,,,,,,,,,,,,,,,,,,,,,,,,,,,,,,,,,,,,,,,,,,,,,,,
0,76,76,38,1,,604d728ad647066e76840d8a,62c5385b9a5d4f8d5af6d3ec,2022-07-06_09h23.30.294,Colour_Asymmetry_Pilot,2022.1.3,Win32,120.6272618,62c50e9c1127f2cd403a315f,,,,,,,,,,,,,,,,,,,,,,,,,,,,,,,,,,,,,,,,,,,,,,,,,,,,,,,,,,,,,,,,,,,,,,,,,,,,,,,,,,,,,,,,,,,,,,,,,,,,,,,,,,,,,,,,,,,,,,,,,,,,,,,,,,,,,,,,,,,,,,,,,,,,,,,,,,,,,,,,,
0,77,77,19,1,,604d728ad647066e76840d8a,62c5385b9a5d4f8d5af6d3ec,2022-07-06_09h23.30.294,Colour_Asymmetry_Pilot,2022.1.3,Win32,120.6272618,62c50e9c1127f2cd403a315f,,,,,,,,,,,,,,,,,,,,,,,,,,,,,,,,,,,,,,,,,,,,,,,,,,,,,,,,,,,,,,,,,,,,,,,,,,,,,,,,,,,,,,,,,,,,,,,,,,,,,,,,,,,,,,,,,,,,,,,,,,,,,,,,,,,,,,,,,,,,,,,,,,,,,,,,,,,,,,,,,
0,78,78,48,1,,604d728ad647066e76840d8a,62c5385b9a5d4f8d5af6d3ec,2022-07-06_09h23.30.294,Colour_Asymmetry_Pilot,2022.1.3,Win32,120.6272618,62c50e9c1127f2cd403a315f,,,,,,,,,,,,,,,,,,,,,,,,,,,,,,,,,,,,,,,,,,,,,,,,,,,,,,,,,,,,,,,,,,,,,,,,,,,,,,,,,,,,,,,,,,,,,,,,,,,,,,,,,,,,,,,,,,,,,,,,,,,,,,,,,,,,,,,,,,,,,,,,,,,,,,,,,,,,,,,,,
0,79,79,14,1,,604d728ad647066e76840d8a,62c5385b9a5d4f8d5af6d3ec,2022-07-06_09h23.30.294,Colour_Asymmetry_Pilot,2022.1.3,Win32,120.6272618,62c50e9c1127f2cd403a315f,,,,,,,,,,,,,,,,,,,,,,,,,,,,,,,,,,,,,,,,,,,,,,,,,,,,,,,,,,,,,,,,,,,,,,,,,,,,,,,,,,,,,,,,,,,,,,,,,,,,,,,,,,,,,,,,,,,,,,,,,,,,,,,,,,,,,,,,,,,,,,,,,,,,,,,,,,,,,,,,,
0,80,80,15,1,,604d728ad647066e76840d8a,62c5385b9a5d4f8d5af6d3ec,2022-07-06_09h23.30.294,Colour_Asymmetry_Pilot,2022.1.3,Win32,120.6272618,62c50e9c1127f2cd403a315f,,,,,,,,,,,,,,,,,,,,,,,,,,,,,,,,,,,,,,,,,,,,,,,,,,,,,,,,,,,,,,,,,,,,,,,,,,,,,,,,,,,,,,,,,,,,,,,,,,,,,,,,,,,,,,,,,,,,,,,,,,,,,,,,,,,,,,,,,,,,,,,,,,,,,,,,,,,,,,,,,
0,81,81,61,1,,604d728ad647066e76840d8a,62c5385b9a5d4f8d5af6d3ec,2022-07-06_09h23.30.294,Colour_Asymmetry_Pilot,2022.1.3,Win32,120.6272618,62c50e9c1127f2cd403a315f,,,,,,,,,,,,,,,,,,,,,,,,,,,,,,,,,,,,,,,,,,,,,,,,,,,,,,,,,,,,,,,,,,,,,,,,,,,,,,,,,,,,,,,,,,,,,,,,,,,,,,,,,,,,,,,,,,,,,,,,,,,,,,,,,,,,,,,,,,,,,,,,,,,,,,,,,,,,,,,,,
0,82,82,90,1,,604d728ad647066e76840d8a,62c5385b9a5d4f8d5af6d3ec,2022-07-06_09h23.30.294,Colour_Asymmetry_Pilot,2022.1.3,Win32,120.6272618,62c50e9c1127f2cd403a315f,,,,,,,,,,,,,,,,,,,,,,,,,,,,,,,,,,,,,,,,,,,,,,,,,,,,,,,,,,,,,,,,,,,,,,,,,,,,,,,,,,,,,,,,,,,,,,,,,,,,,,,,,,,,,,,,,,,,,,,,,,,,,,,,,,,,,,,,,,,,,,,,,,,,,,,,,,,,,,,,,
0,83,83,64,1,,604d728ad647066e76840d8a,62c5385b9a5d4f8d5af6d3ec,2022-07-06_09h23.30.294,Colour_Asymmetry_Pilot,2022.1.3,Win32,120.6272618,62c50e9c1127f2cd403a315f,,,,,,,,,,,,,,,,,,,,,,,,,,,,,,,,,,,,,,,,,,,,,,,,,,,,,,,,,,,,,,,,,,,,,,,,,,,,,,,,,,,,,,,,,,,,,,,,,,,,,,,,,,,,,,,,,,,,,,,,,,,,,,,,,,,,,,,,,,,,,,,,,,,,,,,,,,,,,,,,,
0,84,84,21,1,,604d728ad647066e76840d8a,62c5385b9a5d4f8d5af6d3ec,2022-07-06_09h23.30.294,Colour_Asymmetry_Pilot,2022.1.3,Win32,120.6272618,62c50e9c1127f2cd403a315f,,,,,,,,,,,,,,,,,,,,,,,,,,,,,,,,,,,,,,,,,,,,,,,,,,,,,,,,,,,,,,,,,,,,,,,,,,,,,,,,,,,,,,,,,,,,,,,,,,,,,,,,,,,,,,,,,,,,,,,,,,,,,,,,,,,,,,,,,,,,,,,,,,,,,,,,,,,,,,,,,
0,85,85,79,1,,604d728ad647066e76840d8a,62c5385b9a5d4f8d5af6d3ec,2022-07-06_09h23.30.294,Colour_Asymmetry_Pilot,2022.1.3,Win32,120.6272618,62c50e9c1127f2cd403a315f,,,,,,,,,,,,,,,,,,,,,,,,,,,,,,,,,,,,,,,,,,,,,,,,,,,,,,,,,,,,,,,,,,,,,,,,,,,,,,,,,,,,,,,,,,,,,,,,,,,,,,,,,,,,,,,,,,,,,,,,,,,,,,,,,,,,,,,,,,,,,,,,,,,,,,,,,,,,,,,,,
0,86,86,52,1,,604d728ad647066e76840d8a,62c5385b9a5d4f8d5af6d3ec,2022-07-06_09h23.30.294,Colour_Asymmetry_Pilot,2022.1.3,Win32,120.6272618,62c50e9c1127f2cd403a315f,,,,,,,,,,,,,,,,,,,,,,,,,,,,,,,,,,,,,,,,,,,,,,,,,,,,,,,,,,,,,,,,,,,,,,,,,,,,,,,,,,,,,,,,,,,,,,,,,,,,,,,,,,,,,,,,,,,,,,,,,,,,,,,,,,,,,,,,,,,,,,,,,,,,,,,,,,,,,,,,,
0,87,87,72,1,,604d728ad647066e76840d8a,62c5385b9a5d4f8d5af6d3ec,2022-07-06_09h23.30.294,Colour_Asymmetry_Pilot,2022.1.3,Win32,120.6272618,62c50e9c1127f2cd403a315f,,,,,,,,,,,,,,,,,,,,,,,,,,,,,,,,,,,,,,,,,,,,,,,,,,,,,,,,,,,,,,,,,,,,,,,,,,,,,,,,,,,,,,,,,,,,,,,,,,,,,,,,,,,,,,,,,,,,,,,,,,,,,,,,,,,,,,,,,,,,,,,,,,,,,,,,,,,,,,,,,
0,88,88,65,1,,604d728ad647066e76840d8a,62c5385b9a5d4f8d5af6d3ec,2022-07-06_09h23.30.294,Colour_Asymmetry_Pilot,2022.1.3,Win32,120.6272618,62c50e9c1127f2cd403a315f,,,,,,,,,,,,,,,,,,,,,,,,,,,,,,,,,,,,,,,,,,,,,,,,,,,,,,,,,,,,,,,,,,,,,,,,,,,,,,,,,,,,,,,,,,,,,,,,,,,,,,,,,,,,,,,,,,,,,,,,,,,,,,,,,,,,,,,,,,,,,,,,,,,,,,,,,,,,,,,,,
0,89,89,84,1,,604d728ad647066e76840d8a,62c5385b9a5d4f8d5af6d3ec,2022-07-06_09h23.30.294,Colour_Asymmetry_Pilot,2022.1.3,Win32,120.6272618,62c50e9c1127f2cd403a315f,,,,,,,,,,,,,,,,,,,,,,,,,,,,,,,,,,,,,,,,,,,,,,,,,,,,,,,,,,,,,,,,,,,,,,,,,,,,,,,,,,,,,,,,,,,,,,,,,,,,,,,,,,,,,,,,,,,,,,,,,,,,,,,,,,,,,,,,,,,,,,,,,,,,,,,,,,,,,,,,,
0,90,90,66,1,,604d728ad647066e76840d8a,62c5385b9a5d4f8d5af6d3ec,2022-07-06_09h23.30.294,Colour_Asymmetry_Pilot,2022.1.3,Win32,120.6272618,62c50e9c1127f2cd403a315f,,,,,,,,,,,,,,,,,,,,,,,,,,,,,,,,,,,,,,,,,,,,,,,,,,,,,,,,,,,,,,,,,,,,,,,,,,,,,,,,,,,,,,,,,,,,,,,,,,,,,,,,,,,,,,,,,,,,,,,,,,,,,,,,,,,,,,,,,,,,,,,,,,,,,,,,,,,,,,,,,
0,91,91,47,1,,604d728ad647066e76840d8a,62c5385b9a5d4f8d5af6d3ec,2022-07-06_09h23.30.294,Colour_Asymmetry_Pilot,2022.1.3,Win32,120.6272618,62c50e9c1127f2cd403a315f,,,,,,,,,,,,,,,,,,,,,,,,,,,,,,,,,,,,,,,,,,,,,,,,,,,,,,,,,,,,,,,,,,,,,,,,,,,,,,,,,,,,,,,,,,,,,,,,,,,,,,,,,,,,,,,,,,,,,,,,,,,,,,,,,,,,,,,,,,,,,,,,,,,,,,,,,,,,,,,,,
0,92,92,5,1,,604d728ad647066e76840d8a,62c5385b9a5d4f8d5af6d3ec,2022-07-06_09h23.30.294,Colour_Asymmetry_Pilot,2022.1.3,Win32,120.6272618,62c50e9c1127f2cd403a315f,,,,,,,,,,,,,,,,,,,,,,,,,,,,,,,,,,,,,,,,,,,,,,,,,,,,,,,,,,,,,,,,,,,,,,,,,,,,,,,,,,,,,,,,,,,,,,,,,,,,,,,,,,,,,,,,,,,,,,,,,,,,,,,,,,,,,,,,,,,,,,,,,,,,,,,,,,,,,,,,,
,,,,,,604d728ad647066e76840d8a,62c5385b9a5d4f8d5af6d3ec,2022-07-06_09h23.30.294,Colour_Asymmetry_Pilot,2022.1.3,Win32,120.6272618,62c50e9c1127f2cd403a315f,0,0,0,126,1,fourtwo,,,,,,,,,,,,,,,,,,,,,,,,,,,,,,,,,,,,,,,,,,,,,,,,,,,,,,,,,,,,,,,,,,,,,,,,,,,,,,,,,,,,,,,,,,,,,,,,,,,,,,,,,,,,,,,,,,,,,,,,,,,,,,,,,,,,,,,,,,,,,,,,,,,,,,,,,,,
,,,,,,604d728ad647066e76840d8a,62c5385b9a5d4f8d5af6d3ec,2022-07-06_09h23.30.294,Colour_Asymmetry_Pilot,2022.1.3,Win32,120.6272618,62c50e9c1127f2cd403a315f,0,1,1,55,1,fourthree,,,,,,,,,,,,,,,,,,,,,,,,,,,,,,,,,,,,,,,,,,,,,,,,,,,,,,,,,,,,,,,,,,,,,,,,,,,,,,,,,,,,,,,,,,,,,,,,,,,,,,,,,,,,,,,,,,,,,,,,,,,,,,,,,,,,,,,,,,,,,,,,,,,,,,,,,,,
,,,,,,604d728ad647066e76840d8a,62c5385b9a5d4f8d5af6d3ec,2022-07-06_09h23.30.294,Colour_Asymmetry_Pilot,2022.1.3,Win32,120.6272618,62c50e9c1127f2cd403a315f,0,2,2,0,1,onetwo,,,,,,,,,,,,,,,,,,,,,,,,,,,,,,,,,,,,,,,,,,,,,,,,,,,,,,,,,,,,,,,,,,,,,,,,,,,,,,,,,,,,,,,,,,,,,,,,,,,,,,,,,,,,,,,,,,,,,,,,,,,,,,,,,,,,,,,,,,,,,,,,,,,,,,,,,,,
,,,,,,604d728ad647066e76840d8a,62c5385b9a5d4f8d5af6d3ec,2022-07-06_09h23.30.294,Colour_Asymmetry_Pilot,2022.1.3,Win32,120.6272618,62c50e9c1127f2cd403a315f,0,3,3,151,1,fourthree,,,,,,,,,,,,,,,,,,,,,,,,,,,,,,,,,,,,,,,,,,,,,,,,,,,,,,,,,,,,,,,,,,,,,,,,,,,,,,,,,,,,,,,,,,,,,,,,,,,,,,,,,,,,,,,,,,,,,,,,,,,,,,,,,,,,,,,,,,,,,,,,,,,,,,,,,,,
,,,,,,604d728ad647066e76840d8a,62c5385b9a5d4f8d5af6d3ec,2022-07-06_09h23.30.294,Colour_Asymmetry_Pilot,2022.1.3,Win32,120.6272618,62c50e9c1127f2cd403a315f,0,4,4,21,1,threefour,,,,,,,,,,,,,,,,,,,,,,,,,,,,,,,,,,,,,,,,,,,,,,,,,,,,,,,,,,,,,,,,,,,,,,,,,,,,,,,,,,,,,,,,,,,,,,,,,,,,,,,,,,,,,,,,,,,,,,,,,,,,,,,,,,,,,,,,,,,,,,,,,,,,,,,,,,,
,,,,,,604d728ad647066e76840d8a,62c5385b9a5d4f8d5af6d3ec,2022-07-06_09h23.30.294,Colour_Asymmetry_Pilot,2022.1.3,Win32,120.6272618,62c50e9c1127f2cd403a315f,0,5,5,145,1,onethree,,,,,,,,,,,,,,,,,,,,,,,,,,,,,,,,,,,,,,,,,,,,,,,,,,,,,,,,,,,,,,,,,,,,,,,,,,,,,,,,,,,,,,,,,,,,,,,,,,,,,,,,,,,,,,,,,,,,,,,,,,,,,,,,,,,,,,,,,,,,,,,,,,,,,,,,,,,
,,,,,,604d728ad647066e76840d8a,62c5385b9a5d4f8d5af6d3ec,2022-07-06_09h23.30.294,Colour_Asymmetry_Pilot,2022.1.3,Win32,120.6272618,62c50e9c1127f2cd403a315f,0,6,6,69,1,threefour,,,,,,,,,,,,,,,,,,,,,,,,,,,,,,,,,,,,,,,,,,,,,,,,,,,,,,,,,,,,,,,,,,,,,,,,,,,,,,,,,,,,,,,,,,,,,,,,,,,,,,,,,,,,,,,,,,,,,,,,,,,,,,,,,,,,,,,,,,,,,,,,,,,,,,,,,,,
,,,,,,604d728ad647066e76840d8a,62c5385b9a5d4f8d5af6d3ec,2022-07-06_09h23.30.294,Colour_Asymmetry_Pilot,2022.1.3,Win32,120.6272618,62c50e9c1127f2cd403a315f,0,7,7,28,1,threeone,,,,,,,,,,,,,,,,,,,,,,,,,,,,,,,,,,,,,,,,,,,,,,,,,,,,,,,,,,,,,,,,,,,,,,,,,,,,,,,,,,,,,,,,,,,,,,,,,,,,,,,,,,,,,,,,,,,,,,,,,,,,,,,,,,,,,,,,,,,,,,,,,,,,,,,,,,,
,,,,,,604d728ad647066e76840d8a,62c5385b9a5d4f8d5af6d3ec,2022-07-06_09h23.30.294,Colour_Asymmetry_Pilot,2022.1.3,Win32,120.6272618,62c50e9c1127f2cd403a315f,0,8,8,87,1,fourthree,,,,,,,,,,,,,,,,,,,,,,,,,,,,,,,,,,,,,,,,,,,,,,,,,,,,,,,,,,,,,,,,,,,,,,,,,,,,,,,,,,,,,,,,,,,,,,,,,,,,,,,,,,,,,,,,,,,,,,,,,,,,,,,,,,,,,,,,,,,,,,,,,,,,,,,,,,,
,,,,,,604d728ad647066e76840d8a,62c5385b9a5d4f8d5af6d3ec,2022-07-06_09h23.30.294,Colour_Asymmetry_Pilot,2022.1.3,Win32,120.6272618,62c50e9c1127f2cd403a315f,0,9,9,37,1,threefour,,,,,,,,,,,,,,,,,,,,,,,,,,,,,,,,,,,,,,,,,,,,,,,,,,,,,,,,,,,,,,,,,,,,,,,,,,,,,,,,,,,,,,,,,,,,,,,,,,,,,,,,,,,,,,,,,,,,,,,,,,,,,,,,,,,,,,,,,,,,,,,,,,,,,,,,,,,
,,,,,,604d728ad647066e76840d8a,62c5385b9a5d4f8d5af6d3ec,2022-07-06_09h23.30.294,Colour_Asymmetry_Pilot,2022.1.3,Win32,120.6272618,62c50e9c1127f2cd403a315f,0,10,10,29,1,threefour,,,,,,,,,,,,,,,,,,,,,,,,,,,,,,,,,,,,,,,,,,,,,,,,,,,,,,,,,,,,,,,,,,,,,,,,,,,,,,,,,,,,,,,,,,,,,,,,,,,,,,,,,,,,,,,,,,,,,,,,,,,,,,,,,,,,,,,,,,,,,,,,,,,,,,,,,,,
,,,,,,604d728ad647066e76840d8a,62c5385b9a5d4f8d5af6d3ec,2022-07-06_09h23.30.294,Colour_Asymmetry_Pilot,2022.1.3,Win32,120.6272618,62c50e9c1127f2cd403a315f,0,11,11,112,1,onetwo,,,,,,,,,,,,,,,,,,,,,,,,,,,,,,,,,,,,,,,,,,,,,,,,,,,,,,,,,,,,,,,,,,,,,,,,,,,,,,,,,,,,,,,,,,,,,,,,,,,,,,,,,,,,,,,,,,,,,,,,,,,,,,,,,,,,,,,,,,,,,,,,,,,,,,,,,,,
,,,,,,604d728ad647066e76840d8a,62c5385b9a5d4f8d5af6d3ec,2022-07-06_09h23.30.294,Colour_Asymmetry_Pilot,2022.1.3,Win32,120.6272618,62c50e9c1127f2cd403a315f,0,12,12,133,1,threefour,,,,,,,,,,,,,,,,,,,,,,,,,,,,,,,,,,,,,,,,,,,,,,,,,,,,,,,,,,,,,,,,,,,,,,,,,,,,,,,,,,,,,,,,,,,,,,,,,,,,,,,,,,,,,,,,,,,,,,,,,,,,,,,,,,,,,,,,,,,,,,,,,,,,,,,,,,,
,,,,,,604d728ad647066e76840d8a,62c5385b9a5d4f8d5af6d3ec,2022-07-06_09h23.30.294,Colour_Asymmetry_Pilot,2022.1.3,Win32,120.6272618,62c50e9c1127f2cd403a315f,0,13,13,84,1,threeone,,,,,,,,,,,,,,,,,,,,,,,,,,,,,,,,,,,,,,,,,,,,,,,,,,,,,,,,,,,,,,,,,,,,,,,,,,,,,,,,,,,,,,,,,,,,,,,,,,,,,,,,,,,,,,,,,,,,,,,,,,,,,,,,,,,,,,,,,,,,,,,,,,,,,,,,,,,
,,,,,,604d728ad647066e76840d8a,62c5385b9a5d4f8d5af6d3ec,2022-07-06_09h23.30.294,Colour_Asymmetry_Pilot,2022.1.3,Win32,120.6272618,62c50e9c1127f2cd403a315f,0,14,14,18,1,twoone,,,,,,,,,,,,,,,,,,,,,,,,,,,,,,,,,,,,,,,,,,,,,,,,,,,,,,,,,,,,,,,,,,,,,,,,,,,,,,,,,,,,,,,,,,,,,,,,,,,,,,,,,,,,,,,,,,,,,,,,,,,,,,,,,,,,,,,,,,,,,,,,,,,,,,,,,,,
,,,,,,604d728ad647066e76840d8a,62c5385b9a5d4f8d5af6d3ec,2022-07-06_09h23.30.294,Colour_Asymmetry_Pilot,2022.1.3,Win32,120.6272618,62c50e9c1127f2cd403a315f,0,15,15,19,1,twofour,,,,,,,,,,,,,,,,,,,,,,,,,,,,,,,,,,,,,,,,,,,,,,,,,,,,,,,,,,,,,,,,,,,,,,,,,,,,,,,,,,,,,,,,,,,,,,,,,,,,,,,,,,,,,,,,,,,,,,,,,,,,,,,,,,,,,,,,,,,,,,,,,,,,,,,,,,,
,,,,,,604d728ad647066e76840d8a,62c5385b9a5d4f8d5af6d3ec,2022-07-06_09h23.30.294,Colour_Asymmetry_Pilot,2022.1.3,Win32,120.6272618,62c50e9c1127f2cd403a315f,0,16,16,159,1,fourthree,,,,,,,,,,,,,,,,,,,,,,,,,,,,,,,,,,,,,,,,,,,,,,,,,,,,,,,,,,,,,,,,,,,,,,,,,,,,,,,,,,,,,,,,,,,,,,,,,,,,,,,,,,,,,,,,,,,,,,,,,,,,,,,,,,,,,,,,,,,,,,,,,,,,,,,,,,,
,,,,,,604d728ad647066e76840d8a,62c5385b9a5d4f8d5af6d3ec,2022-07-06_09h23.30.294,Colour_Asymmetry_Pilot,2022.1.3,Win32,120.6272618,62c50e9c1127f2cd403a315f,0,17,17,74,1,twoone,,,,,,,,,,,,,,,,,,,,,,,,,,,,,,,,,,,,,,,,,,,,,,,,,,,,,,,,,,,,,,,,,,,,,,,,,,,,,,,,,,,,,,,,,,,,,,,,,,,,,,,,,,,,,,,,,,,,,,,,,,,,,,,,,,,,,,,,,,,,,,,,,,,,,,,,,,,
,,,,,,604d728ad647066e76840d8a,62c5385b9a5d4f8d5af6d3ec,2022-07-06_09h23.30.294,Colour_Asymmetry_Pilot,2022.1.3,Win32,120.6272618,62c50e9c1127f2cd403a315f,0,18,18,158,1,fourtwo,,,,,,,,,,,,,,,,,,,,,,,,,,,,,,,,,,,,,,,,,,,,,,,,,,,,,,,,,,,,,,,,,,,,,,,,,,,,,,,,,,,,,,,,,,,,,,,,,,,,,,,,,,,,,,,,,,,,,,,,,,,,,,,,,,,,,,,,,,,,,,,,,,,,,,,,,,,
,,,,,,604d728ad647066e76840d8a,62c5385b9a5d4f8d5af6d3ec,2022-07-06_09h23.30.294,Colour_Asymmetry_Pilot,2022.1.3,Win32,120.6272618,62c50e9c1127f2cd403a315f,0,19,19,1,1,onethree,,,,,,,,,,,,,,,,,,,,,,,,,,,,,,,,,,,,,,,,,,,,,,,,,,,,,,,,,,,,,,,,,,,,,,,,,,,,,,,,,,,,,,,,,,,,,,,,,,,,,,,,,,,,,,,,,,,,,,,,,,,,,,,,,,,,,,,,,,,,,,,,,,,,,,,,,,,
,,,,,,604d728ad647066e76840d8a,62c5385b9a5d4f8d5af6d3ec,2022-07-06_09h23.30.294,Colour_Asymmetry_Pilot,2022.1.3,Win32,120.6272618,62c50e9c1127f2cd403a315f,0,20,20,148,1,threeone,,,,,,,,,,,,,,,,,,,,,,,,,,,,,,,,,,,,,,,,,,,,,,,,,,,,,,,,,,,,,,,,,,,,,,,,,,,,,,,,,,,,,,,,,,,,,,,,,,,,,,,,,,,,,,,,,,,,,,,,,,,,,,,,,,,,,,,,,,,,,,,,,,,,,,,,,,,
,,,,,,604d728ad647066e76840d8a,62c5385b9a5d4f8d5af6d3ec,2022-07-06_09h23.30.294,Colour_Asymmetry_Pilot,2022.1.3,Win32,120.6272618,62c50e9c1127f2cd403a315f,0,21,21,34,1,twoone,,,,,,,,,,,,,,,,,,,,,,,,,,,,,,,,,,,,,,,,,,,,,,,,,,,,,,,,,,,,,,,,,,,,,,,,,,,,,,,,,,,,,,,,,,,,,,,,,,,,,,,,,,,,,,,,,,,,,,,,,,,,,,,,,,,,,,,,,,,,,,,,,,,,,,,,,,,
,,,,,,604d728ad647066e76840d8a,62c5385b9a5d4f8d5af6d3ec,2022-07-06_09h23.30.294,Colour_Asymmetry_Pilot,2022.1.3,Win32,120.6272618,62c50e9c1127f2cd403a315f,0,22,22,123,1,twofour,,,,,,,,,,,,,,,,,,,,,,,,,,,,,,,,,,,,,,,,,,,,,,,,,,,,,,,,,,,,,,,,,,,,,,,,,,,,,,,,,,,,,,,,,,,,,,,,,,,,,,,,,,,,,,,,,,,,,,,,,,,,,,,,,,,,,,,,,,,,,,,,,,,,,,,,,,,
,,,,,,604d728ad647066e76840d8a,62c5385b9a5d4f8d5af6d3ec,2022-07-06_09h23.30.294,Colour_Asymmetry_Pilot,2022.1.3,Win32,120.6272618,62c50e9c1127f2cd403a315f,0,23,23,4,1,threeone,,,,,,,,,,,,,,,,,,,,,,,,,,,,,,,,,,,,,,,,,,,,,,,,,,,,,,,,,,,,,,,,,,,,,,,,,,,,,,,,,,,,,,,,,,,,,,,,,,,,,,,,,,,,,,,,,,,,,,,,,,,,,,,,,,,,,,,,,,,,,,,,,,,,,,,,,,,
,,,,,,604d728ad647066e76840d8a,62c5385b9a5d4f8d5af6d3ec,2022-07-06_09h23.30.294,Colour_Asymmetry_Pilot,2022.1.3,Win32,120.6272618,62c50e9c1127f2cd403a315f,0,24,24,11,1,twofour,,,,,,,,,,,,,,,,,,,,,,,,,,,,,,,,,,,,,,,,,,,,,,,,,,,,,,,,,,,,,,,,,,,,,,,,,,,,,,,,,,,,,,,,,,,,,,,,,,,,,,,,,,,,,,,,,,,,,,,,,,,,,,,,,,,,,,,,,,,,,,,,,,,,,,,,,,,
,,,,,,604d728ad647066e76840d8a,62c5385b9a5d4f8d5af6d3ec,2022-07-06_09h23.30.294,Colour_Asymmetry_Pilot,2022.1.3,Win32,120.6272618,62c50e9c1127f2cd403a315f,0,25,25,25,1,onethree,,,,,,,,,,,,,,,,,,,,,,,,,,,,,,,,,,,,,,,,,,,,,,,,,,,,,,,,,,,,,,,,,,,,,,,,,,,,,,,,,,,,,,,,,,,,,,,,,,,,,,,,,,,,,,,,,,,,,,,,,,,,,,,,,,,,,,,,,,,,,,,,,,,,,,,,,,,
,,,,,,604d728ad647066e76840d8a,62c5385b9a5d4f8d5af6d3ec,2022-07-06_09h23.30.294,Colour_Asymmetry_Pilot,2022.1.3,Win32,120.6272618,62c50e9c1127f2cd403a315f,0,26,26,52,1,threeone,,,,,,,,,,,,,,,,,,,,,,,,,,,,,,,,,,,,,,,,,,,,,,,,,,,,,,,,,,,,,,,,,,,,,,,,,,,,,,,,,,,,,,,,,,,,,,,,,,,,,,,,,,,,,,,,,,,,,,,,,,,,,,,,,,,,,,,,,,,,,,,,,,,,,,,,,,,
,,,,,,604d728ad647066e76840d8a,62c5385b9a5d4f8d5af6d3ec,2022-07-06_09h23.30.294,Colour_Asymmetry_Pilot,2022.1.3,Win32,120.6272618,62c50e9c1127f2cd403a315f,0,27,27,8,1,onetwo,,,,,,,,,,,,,,,,,,,,,,,,,,,,,,,,,,,,,,,,,,,,,,,,,,,,,,,,,,,,,,,,,,,,,,,,,,,,,,,,,,,,,,,,,,,,,,,,,,,,,,,,,,,,,,,,,,,,,,,,,,,,,,,,,,,,,,,,,,,,,,,,,,,,,,,,,,,
,,,,,,604d728ad647066e76840d8a,62c5385b9a5d4f8d5af6d3ec,2022-07-06_09h23.30.294,Colour_Asymmetry_Pilot,2022.1.3,Win32,120.6272618,62c50e9c1127f2cd403a315f,0,28,28,144,1,onetwo,,,,,,,,,,,,,,,,,,,,,,,,,,,,,,,,,,,,,,,,,,,,,,,,,,,,,,,,,,,,,,,,,,,,,,,,,,,,,,,,,,,,,,,,,,,,,,,,,,,,,,,,,,,,,,,,,,,,,,,,,,,,,,,,,,,,,,,,,,,,,,,,,,,,,,,,,,,
,,,,,,604d728ad647066e76840d8a,62c5385b9a5d4f8d5af6d3ec,2022-07-06_09h23.30.294,Colour_Asymmetry_Pilot,2022.1.3,Win32,120.6272618,62c50e9c1127f2cd403a315f,0,29,29,101,1,threefour,,,,,,,,,,,,,,,,,,,,,,,,,,,,,,,,,,,,,,,,,,,,,,,,,,,,,,,,,,,,,,,,,,,,,,,,,,,,,,,,,,,,,,,,,,,,,,,,,,,,,,,,,,,,,,,,,,,,,,,,,,,,,,,,,,,,,,,,,,,,,,,,,,,,,,,,,,,
,,,,,,604d728ad647066e76840d8a,62c5385b9a5d4f8d5af6d3ec,2022-07-06_09h23.30.294,Colour_Asymmetry_Pilot,2022.1.3,Win32,120.6272618,62c50e9c1127f2cd403a315f,0,30,30,119,1,fourthree,,,,,,,,,,,,,,,,,,,,,,,,,,,,,,,,,,,,,,,,,,,,,,,,,,,,,,,,,,,,,,,,,,,,,,,,,,,,,,,,,,,,,,,,,,,,,,,,,,,,,,,,,,,,,,,,,,,,,,,,,,,,,,,,,,,,,,,,,,,,,,,,,,,,,,,,,,,
,,,,,,604d728ad647066e76840d8a,62c5385b9a5d4f8d5af6d3ec,2022-07-06_09h23.30.294,Colour_Asymmetry_Pilot,2022.1.3,Win32,120.6272618,62c50e9c1127f2cd403a315f,0,31,31,116,1,threeone,,,,,,,,,,,,,,,,,,,,,,,,,,,,,,,,,,,,,,,,,,,,,,,,,,,,,,,,,,,,,,,,,,,,,,,,,,,,,,,,,,,,,,,,,,,,,,,,,,,,,,,,,,,,,,,,,,,,,,,,,,,,,,,,,,,,,,,,,,,,,,,,,,,,,,,,,,,
,,,,,,604d728ad647066e76840d8a,62c5385b9a5d4f8d5af6d3ec,2022-07-06_09h23.30.294,Colour_Asymmetry_Pilot,2022.1.3,Win32,120.6272618,62c50e9c1127f2cd403a315f,0,32,32,32,1,onetwo,,,,,,,,,,,,,,,,,,,,,,,,,,,,,,,,,,,,,,,,,,,,,,,,,,,,,,,,,,,,,,,,,,,,,,,,,,,,,,,,,,,,,,,,,,,,,,,,,,,,,,,,,,,,,,,,,,,,,,,,,,,,,,,,,,,,,,,,,,,,,,,,,,,,,,,,,,,
,,,,,,604d728ad647066e76840d8a,62c5385b9a5d4f8d5af6d3ec,2022-07-06_09h23.30.294,Colour_Asymmetry_Pilot,2022.1.3,Win32,120.6272618,62c50e9c1127f2cd403a315f,0,33,33,138,1,twoone,,,,,,,,,,,,,,,,,,,,,,,,,,,,,,,,,,,,,,,,,,,,,,,,,,,,,,,,,,,,,,,,,,,,,,,,,,,,,,,,,,,,,,,,,,,,,,,,,,,,,,,,,,,,,,,,,,,,,,,,,,,,,,,,,,,,,,,,,,,,,,,,,,,,,,,,,,,
,,,,,,604d728ad647066e76840d8a,62c5385b9a5d4f8d5af6d3ec,2022-07-06_09h23.30.294,Colour_Asymmetry_Pilot,2022.1.3,Win32,120.6272618,62c50e9c1127f2cd403a315f,0,34,34,54,1,fourtwo,,,,,,,,,,,,,,,,,,,,,,,,,,,,,,,,,,,,,,,,,,,,,,,,,,,,,,,,,,,,,,,,,,,,,,,,,,,,,,,,,,,,,,,,,,,,,,,,,,,,,,,,,,,,,,,,,,,,,,,,,,,,,,,,,,,,,,,,,,,,,,,,,,,,,,,,,,,
,,,,,,604d728ad647066e76840d8a,62c5385b9a5d4f8d5af6d3ec,2022-07-06_09h23.30.294,Colour_Asymmetry_Pilot,2022.1.3,Win32,120.6272618,62c50e9c1127f2cd403a315f,0,35,35,15,1,fourthree,,,,,,,,,,,,,,,,,,,,,,,,,,,,,,,,,,,,,,,,,,,,,,,,,,,,,,,,,,,,,,,,,,,,,,,,,,,,,,,,,,,,,,,,,,,,,,,,,,,,,,,,,,,,,,,,,,,,,,,,,,,,,,,,,,,,,,,,,,,,,,,,,,,,,,,,,,,
,,,,,,604d728ad647066e76840d8a,62c5385b9a5d4f8d5af6d3ec,2022-07-06_09h23.30.294,Colour_Asymmetry_Pilot,2022.1.3,Win32,120.6272618,62c50e9c1127f2cd403a315f,0,36,36,16,1,onetwo,,,,,,,,,,,,,,,,,,,,,,,,,,,,,,,,,,,,,,,,,,,,,,,,,,,,,,,,,,,,,,,,,,,,,,,,,,,,,,,,,,,,,,,,,,,,,,,,,,,,,,,,,,,,,,,,,,,,,,,,,,,,,,,,,,,,,,,,,,,,,,,,,,,,,,,,,,,
,,,,,,604d728ad647066e76840d8a,62c5385b9a5d4f8d5af6d3ec,2022-07-06_09h23.30.294,Colour_Asymmetry_Pilot,2022.1.3,Win32,120.6272618,62c50e9c1127f2cd403a315f,0,37,37,53,1,threefour,,,,,,,,,,,,,,,,,,,,,,,,,,,,,,,,,,,,,,,,,,,,,,,,,,,,,,,,,,,,,,,,,,,,,,,,,,,,,,,,,,,,,,,,,,,,,,,,,,,,,,,,,,,,,,,,,,,,,,,,,,,,,,,,,,,,,,,,,,,,,,,,,,,,,,,,,,,
,,,,,,604d728ad647066e76840d8a,62c5385b9a5d4f8d5af6d3ec,2022-07-06_09h23.30.294,Colour_Asymmetry_Pilot,2022.1.3,Win32,120.6272618,62c50e9c1127f2cd403a315f,0,38,38,95,1,fourthree,,,,,,,,,,,,,,,,,,,,,,,,,,,,,,,,,,,,,,,,,,,,,,,,,,,,,,,,,,,,,,,,,,,,,,,,,,,,,,,,,,,,,,,,,,,,,,,,,,,,,,,,,,,,,,,,,,,,,,,,,,,,,,,,,,,,,,,,,,,,,,,,,,,,,,,,,,,
,,,,,,604d728ad647066e76840d8a,62c5385b9a5d4f8d5af6d3ec,2022-07-06_09h23.30.294,Colour_Asymmetry_Pilot,2022.1.3,Win32,120.6272618,62c50e9c1127f2cd403a315f,0,39,39,161,1,onethree,,,,,,,,,,,,,,,,,,,,,,,,,,,,,,,,,,,,,,,,,,,,,,,,,,,,,,,,,,,,,,,,,,,,,,,,,,,,,,,,,,,,,,,,,,,,,,,,,,,,,,,,,,,,,,,,,,,,,,,,,,,,,,,,,,,,,,,,,,,,,,,,,,,,,,,,,,,
,,,,,,604d728ad647066e76840d8a,62c5385b9a5d4f8d5af6d3ec,2022-07-06_09h23.30.294,Colour_Asymmetry_Pilot,2022.1.3,Win32,120.6272618,62c50e9c1127f2cd403a315f,0,40,40,106,1,twoone,,,,,,,,,,,,,,,,,,,,,,,,,,,,,,,,,,,,,,,,,,,,,,,,,,,,,,,,,,,,,,,,,,,,,,,,,,,,,,,,,,,,,,,,,,,,,,,,,,,,,,,,,,,,,,,,,,,,,,,,,,,,,,,,,,,,,,,,,,,,,,,,,,,,,,,,,,,
,,,,,,604d728ad647066e76840d8a,62c5385b9a5d4f8d5af6d3ec,2022-07-06_09h23.30.294,Colour_Asymmetry_Pilot,2022.1.3,Win32,120.6272618,62c50e9c1127f2cd403a315f,0,41,41,13,1,threefour,,,,,,,,,,,,,,,,,,,,,,,,,,,,,,,,,,,,,,,,,,,,,,,,,,,,,,,,,,,,,,,,,,,,,,,,,,,,,,,,,,,,,,,,,,,,,,,,,,,,,,,,,,,,,,,,,,,,,,,,,,,,,,,,,,,,,,,,,,,,,,,,,,,,,,,,,,,
,,,,,,604d728ad647066e76840d8a,62c5385b9a5d4f8d5af6d3ec,2022-07-06_09h23.30.294,Colour_Asymmetry_Pilot,2022.1.3,Win32,120.6272618,62c50e9c1127f2cd403a315f,0,42,42,102,1,fourtwo,,,,,,,,,,,,,,,,,,,,,,,,,,,,,,,,,,,,,,,,,,,,,,,,,,,,,,,,,,,,,,,,,,,,,,,,,,,,,,,,,,,,,,,,,,,,,,,,,,,,,,,,,,,,,,,,,,,,,,,,,,,,,,,,,,,,,,,,,,,,,,,,,,,,,,,,,,,
,,,,,,604d728ad647066e76840d8a,62c5385b9a5d4f8d5af6d3ec,2022-07-06_09h23.30.294,Colour_Asymmetry_Pilot,2022.1.3,Win32,120.6272618,62c50e9c1127f2cd403a315f,0,43,43,125,1,threefour,,,,,,,,,,,,,,,,,,,,,,,,,,,,,,,,,,,,,,,,,,,,,,,,,,,,,,,,,,,,,,,,,,,,,,,,,,,,,,,,,,,,,,,,,,,,,,,,,,,,,,,,,,,,,,,,,,,,,,,,,,,,,,,,,,,,,,,,,,,,,,,,,,,,,,,,,,,
,,,,,,604d728ad647066e76840d8a,62c5385b9a5d4f8d5af6d3ec,2022-07-06_09h23.30.294,Colour_Asymmetry_Pilot,2022.1.3,Win32,120.6272618,62c50e9c1127f2cd403a315f,0,44,44,130,1,twoone,,,,,,,,,,,,,,,,,,,,,,,,,,,,,,,,,,,,,,,,,,,,,,,,,,,,,,,,,,,,,,,,,,,,,,,,,,,,,,,,,,,,,,,,,,,,,,,,,,,,,,,,,,,,,,,,,,,,,,,,,,,,,,,,,,,,,,,,,,,,,,,,,,,,,,,,,,,
,,,,,,604d728ad647066e76840d8a,62c5385b9a5d4f8d5af6d3ec,2022-07-06_09h23.30.294,Colour_Asymmetry_Pilot,2022.1.3,Win32,120.6272618,62c50e9c1127f2cd403a315f,0,45,45,99,1,twofour,,,,,,,,,,,,,,,,,,,,,,,,,,,,,,,,,,,,,,,,,,,,,,,,,,,,,,,,,,,,,,,,,,,,,,,,,,,,,,,,,,,,,,,,,,,,,,,,,,,,,,,,,,,,,,,,,,,,,,,,,,,,,,,,,,,,,,,,,,,,,,,,,,,,,,,,,,,
,,,,,,604d728ad647066e76840d8a,62c5385b9a5d4f8d5af6d3ec,2022-07-06_09h23.30.294,Colour_Asymmetry_Pilot,2022.1.3,Win32,120.6272618,62c50e9c1127f2cd403a315f,0,46,46,17,1,onethree,,,,,,,,,,,,,,,,,,,,,,,,,,,,,,,,,,,,,,,,,,,,,,,,,,,,,,,,,,,,,,,,,,,,,,,,,,,,,,,,,,,,,,,,,,,,,,,,,,,,,,,,,,,,,,,,,,,,,,,,,,,,,,,,,,,,,,,,,,,,,,,,,,,,,,,,,,,
,,,,,,604d728ad647066e76840d8a,62c5385b9a5d4f8d5af6d3ec,2022-07-06_09h23.30.294,Colour_Asymmetry_Pilot,2022.1.3,Win32,120.6272618,62c50e9c1127f2cd403a315f,0,47,47,7,1,fourthree,,,,,,,,,,,,,,,,,,,,,,,,,,,,,,,,,,,,,,,,,,,,,,,,,,,,,,,,,,,,,,,,,,,,,,,,,,,,,,,,,,,,,,,,,,,,,,,,,,,,,,,,,,,,,,,,,,,,,,,,,,,,,,,,,,,,,,,,,,,,,,,,,,,,,,,,,,,
,,,,,,604d728ad647066e76840d8a,62c5385b9a5d4f8d5af6d3ec,2022-07-06_09h23.30.294,Colour_Asymmetry_Pilot,2022.1.3,Win32,120.6272618,62c50e9c1127f2cd403a315f,0,48,48,153,1,onethree,,,,,,,,,,,,,,,,,,,,,,,,,,,,,,,,,,,,,,,,,,,,,,,,,,,,,,,,,,,,,,,,,,,,,,,,,,,,,,,,,,,,,,,,,,,,,,,,,,,,,,,,,,,,,,,,,,,,,,,,,,,,,,,,,,,,,,,,,,,,,,,,,,,,,,,,,,,
,,,,,,604d728ad647066e76840d8a,62c5385b9a5d4f8d5af6d3ec,2022-07-06_09h23.30.294,Colour_Asymmetry_Pilot,2022.1.3,Win32,120.6272618,62c50e9c1127f2cd403a315f,0,49,49,100,1,threeone,,,,,,,,,,,,,,,,,,,,,,,,,,,,,,,,,,,,,,,,,,,,,,,,,,,,,,,,,,,,,,,,,,,,,,,,,,,,,,,,,,,,,,,,,,,,,,,,,,,,,,,,,,,,,,,,,,,,,,,,,,,,,,,,,,,,,,,,,,,,,,,,,,,,,,,,,,,
,,,,,,604d728ad647066e76840d8a,62c5385b9a5d4f8d5af6d3ec,2022-07-06_09h23.30.294,Colour_Asymmetry_Pilot,2022.1.3,Win32,120.6272618,62c50e9c1127f2cd403a315f,0,50,50,157,1,threefour,,,,,,,,,,,,,,,,,,,,,,,,,,,,,,,,,,,,,,,,,,,,,,,,,,,,,,,,,,,,,,,,,,,,,,,,,,,,,,,,,,,,,,,,,,,,,,,,,,,,,,,,,,,,,,,,,,,,,,,,,,,,,,,,,,,,,,,,,,,,,,,,,,,,,,,,,,,
,,,,,,604d728ad647066e76840d8a,62c5385b9a5d4f8d5af6d3ec,2022-07-06_09h23.30.294,Colour_Asymmetry_Pilot,2022.1.3,Win32,120.6272618,62c50e9c1127f2cd403a315f,0,51,51,96,1,onetwo,,,,,,,,,,,,,,,,,,,,,,,,,,,,,,,,,,,,,,,,,,,,,,,,,,,,,,,,,,,,,,,,,,,,,,,,,,,,,,,,,,,,,,,,,,,,,,,,,,,,,,,,,,,,,,,,,,,,,,,,,,,,,,,,,,,,,,,,,,,,,,,,,,,,,,,,,,,
,,,,,,604d728ad647066e76840d8a,62c5385b9a5d4f8d5af6d3ec,2022-07-06_09h23.30.294,Colour_Asymmetry_Pilot,2022.1.3,Win32,120.6272618,62c50e9c1127f2cd403a315f,0,52,52,154,1,twoone,,,,,,,,,,,,,,,,,,,,,,,,,,,,,,,,,,,,,,,,,,,,,,,,,,,,,,,,,,,,,,,,,,,,,,,,,,,,,,,,,,,,,,,,,,,,,,,,,,,,,,,,,,,,,,,,,,,,,,,,,,,,,,,,,,,,,,,,,,,,,,,,,,,,,,,,,,,
,,,,,,604d728ad647066e76840d8a,62c5385b9a5d4f8d5af6d3ec,2022-07-06_09h23.30.294,Colour_Asymmetry_Pilot,2022.1.3,Win32,120.6272618,62c50e9c1127f2cd403a315f,0,53,53,150,1,fourtwo,,,,,,,,,,,,,,,,,,,,,,,,,,,,,,,,,,,,,,,,,,,,,,,,,,,,,,,,,,,,,,,,,,,,,,,,,,,,,,,,,,,,,,,,,,,,,,,,,,,,,,,,,,,,,,,,,,,,,,,,,,,,,,,,,,,,,,,,,,,,,,,,,,,,,,,,,,,
,,,,,,604d728ad647066e76840d8a,62c5385b9a5d4f8d5af6d3ec,2022-07-06_09h23.30.294,Colour_Asymmetry_Pilot,2022.1.3,Win32,120.6272618,62c50e9c1127f2cd403a315f,0,54,54,160,1,onetwo,,,,,,,,,,,,,,,,,,,,,,,,,,,,,,,,,,,,,,,,,,,,,,,,,,,,,,,,,,,,,,,,,,,,,,,,,,,,,,,,,,,,,,,,,,,,,,,,,,,,,,,,,,,,,,,,,,,,,,,,,,,,,,,,,,,,,,,,,,,,,,,,,,,,,,,,,,,
,,,,,,604d728ad647066e76840d8a,62c5385b9a5d4f8d5af6d3ec,2022-07-06_09h23.30.294,Colour_Asymmetry_Pilot,2022.1.3,Win32,120.6272618,62c50e9c1127f2cd403a315f,0,55,55,83,1,twofour,,,,,,,,,,,,,,,,,,,,,,,,,,,,,,,,,,,,,,,,,,,,,,,,,,,,,,,,,,,,,,,,,,,,,,,,,,,,,,,,,,,,,,,,,,,,,,,,,,,,,,,,,,,,,,,,,,,,,,,,,,,,,,,,,,,,,,,,,,,,,,,,,,,,,,,,,,,
,,,,,,604d728ad647066e76840d8a,62c5385b9a5d4f8d5af6d3ec,2022-07-06_09h23.30.294,Colour_Asymmetry_Pilot,2022.1.3,Win32,120.6272618,62c50e9c1127f2cd403a315f,0,56,56,66,1,twoone,,,,,,,,,,,,,,,,,,,,,,,,,,,,,,,,,,,,,,,,,,,,,,,,,,,,,,,,,,,,,,,,,,,,,,,,,,,,,,,,,,,,,,,,,,,,,,,,,,,,,,,,,,,,,,,,,,,,,,,,,,,,,,,,,,,,,,,,,,,,,,,,,,,,,,,,,,,
,,,,,,604d728ad647066e76840d8a,62c5385b9a5d4f8d5af6d3ec,2022-07-06_09h23.30.294,Colour_Asymmetry_Pilot,2022.1.3,Win32,120.6272618,62c50e9c1127f2cd403a315f,0,57,57,46,1,fourtwo,,,,,,,,,,,,,,,,,,,,,,,,,,,,,,,,,,,,,,,,,,,,,,,,,,,,,,,,,,,,,,,,,,,,,,,,,,,,,,,,,,,,,,,,,,,,,,,,,,,,,,,,,,,,,,,,,,,,,,,,,,,,,,,,,,,,,,,,,,,,,,,,,,,,,,,,,,,
,,,,,,604d728ad647066e76840d8a,62c5385b9a5d4f8d5af6d3ec,2022-07-06_09h23.30.294,Colour_Asymmetry_Pilot,2022.1.3,Win32,120.6272618,62c50e9c1127f2cd403a315f,0,58,58,108,1,threeone,,,,,,,,,,,,,,,,,,,,,,,,,,,,,,,,,,,,,,,,,,,,,,,,,,,,,,,,,,,,,,,,,,,,,,,,,,,,,,,,,,,,,,,,,,,,,,,,,,,,,,,,,,,,,,,,,,,,,,,,,,,,,,,,,,,,,,,,,,,,,,,,,,,,,,,,,,,
,,,,,,604d728ad647066e76840d8a,62c5385b9a5d4f8d5af6d3ec,2022-07-06_09h23.30.294,Colour_Asymmetry_Pilot,2022.1.3,Win32,120.6272618,62c50e9c1127f2cd403a315f,0,59,59,27,1,twofour,,,,,,,,,,,,,,,,,,,,,,,,,,,,,,,,,,,,,,,,,,,,,,,,,,,,,,,,,,,,,,,,,,,,,,,,,,,,,,,,,,,,,,,,,,,,,,,,,,,,,,,,,,,,,,,,,,,,,,,,,,,,,,,,,,,,,,,,,,,,,,,,,,,,,,,,,,,
,,,,,,604d728ad647066e76840d8a,62c5385b9a5d4f8d5af6d3ec,2022-07-06_09h23.30.294,Colour_Asymmetry_Pilot,2022.1.3,Win32,120.6272618,62c50e9c1127f2cd403a315f,0,60,60,91,1,twofour,,,,,,,,,,,,,,,,,,,,,,,,,,,,,,,,,,,,,,,,,,,,,,,,,,,,,,,,,,,,,,,,,,,,,,,,,,,,,,,,,,,,,,,,,,,,,,,,,,,,,,,,,,,,,,,,,,,,,,,,,,,,,,,,,,,,,,,,,,,,,,,,,,,,,,,,,,,
,,,,,,604d728ad647066e76840d8a,62c5385b9a5d4f8d5af6d3ec,2022-07-06_09h23.30.294,Colour_Asymmetry_Pilot,2022.1.3,Win32,120.6272618,62c50e9c1127f2cd403a315f,0,61,61,118,1,fourtwo,,,,,,,,,,,,,,,,,,,,,,,,,,,,,,,,,,,,,,,,,,,,,,,,,,,,,,,,,,,,,,,,,,,,,,,,,,,,,,,,,,,,,,,,,,,,,,,,,,,,,,,,,,,,,,,,,,,,,,,,,,,,,,,,,,,,,,,,,,,,,,,,,,,,,,,,,,,
,,,,,,604d728ad647066e76840d8a,62c5385b9a5d4f8d5af6d3ec,2022-07-06_09h23.30.294,Colour_Asymmetry_Pilot,2022.1.3,Win32,120.6272618,62c50e9c1127f2cd403a315f,0,62,62,81,1,onethree,,,,,,,,,,,,,,,,,,,,,,,,,,,,,,,,,,,,,,,,,,,,,,,,,,,,,,,,,,,,,,,,,,,,,,,,,,,,,,,,,,,,,,,,,,,,,,,,,,,,,,,,,,,,,,,,,,,,,,,,,,,,,,,,,,,,,,,,,,,,,,,,,,,,,,,,,,,
,,,,,,604d728ad647066e76840d8a,62c5385b9a5d4f8d5af6d3ec,2022-07-06_09h23.30.294,Colour_Asymmetry_Pilot,2022.1.3,Win32,120.6272618,62c50e9c1127f2cd403a315f,0,63,63,85,1,threefour,,,,,,,,,,,,,,,,,,,,,,,,,,,,,,,,,,,,,,,,,,,,,,,,,,,,,,,,,,,,,,,,,,,,,,,,,,,,,,,,,,,,,,,,,,,,,,,,,,,,,,,,,,,,,,,,,,,,,,,,,,,,,,,,,,,,,,,,,,,,,,,,,,,,,,,,,,,
,,,,,,604d728ad647066e76840d8a,62c5385b9a5d4f8d5af6d3ec,2022-07-06_09h23.30.294,Colour_Asymmetry_Pilot,2022.1.3,Win32,120.6272618,62c50e9c1127f2cd403a315f,0,64,64,75,1,twofour,,,,,,,,,,,,,,,,,,,,,,,,,,,,,,,,,,,,,,,,,,,,,,,,,,,,,,,,,,,,,,,,,,,,,,,,,,,,,,,,,,,,,,,,,,,,,,,,,,,,,,,,,,,,,,,,,,,,,,,,,,,,,,,,,,,,,,,,,,,,,,,,,,,,,,,,,,,
,,,,,,604d728ad647066e76840d8a,62c5385b9a5d4f8d5af6d3ec,2022-07-06_09h23.30.294,Colour_Asymmetry_Pilot,2022.1.3,Win32,120.6272618,62c50e9c1127f2cd403a315f,0,65,65,65,1,onethree,,,,,,,,,,,,,,,,,,,,,,,,,,,,,,,,,,,,,,,,,,,,,,,,,,,,,,,,,,,,,,,,,,,,,,,,,,,,,,,,,,,,,,,,,,,,,,,,,,,,,,,,,,,,,,,,,,,,,,,,,,,,,,,,,,,,,,,,,,,,,,,,,,,,,,,,,,,
,,,,,,604d728ad647066e76840d8a,62c5385b9a5d4f8d5af6d3ec,2022-07-06_09h23.30.294,Colour_Asymmetry_Pilot,2022.1.3,Win32,120.6272618,62c50e9c1127f2cd403a315f,0,66,66,93,1,threefour,,,,,,,,,,,,,,,,,,,,,,,,,,,,,,,,,,,,,,,,,,,,,,,,,,,,,,,,,,,,,,,,,,,,,,,,,,,,,,,,,,,,,,,,,,,,,,,,,,,,,,,,,,,,,,,,,,,,,,,,,,,,,,,,,,,,,,,,,,,,,,,,,,,,,,,,,,,
,,,,,,604d728ad647066e76840d8a,62c5385b9a5d4f8d5af6d3ec,2022-07-06_09h23.30.294,Colour_Asymmetry_Pilot,2022.1.3,Win32,120.6272618,62c50e9c1127f2cd403a315f,0,67,67,88,1,onetwo,,,,,,,,,,,,,,,,,,,,,,,,,,,,,,,,,,,,,,,,,,,,,,,,,,,,,,,,,,,,,,,,,,,,,,,,,,,,,,,,,,,,,,,,,,,,,,,,,,,,,,,,,,,,,,,,,,,,,,,,,,,,,,,,,,,,,,,,,,,,,,,,,,,,,,,,,,,
,,,,,,604d728ad647066e76840d8a,62c5385b9a5d4f8d5af6d3ec,2022-07-06_09h23.30.294,Colour_Asymmetry_Pilot,2022.1.3,Win32,120.6272618,62c50e9c1127f2cd403a315f,0,68,68,51,1,twofour,,,,,,,,,,,,,,,,,,,,,,,,,,,,,,,,,,,,,,,,,,,,,,,,,,,,,,,,,,,,,,,,,,,,,,,,,,,,,,,,,,,,,,,,,,,,,,,,,,,,,,,,,,,,,,,,,,,,,,,,,,,,,,,,,,,,,,,,,,,,,,,,,,,,,,,,,,,
,,,,,,604d728ad647066e76840d8a,62c5385b9a5d4f8d5af6d3ec,2022-07-06_09h23.30.294,Colour_Asymmetry_Pilot,2022.1.3,Win32,120.6272618,62c50e9c1127f2cd403a315f,0,69,69,124,1,threeone,,,,,,,,,,,,,,,,,,,,,,,,,,,,,,,,,,,,,,,,,,,,,,,,,,,,,,,,,,,,,,,,,,,,,,,,,,,,,,,,,,,,,,,,,,,,,,,,,,,,,,,,,,,,,,,,,,,,,,,,,,,,,,,,,,,,,,,,,,,,,,,,,,,,,,,,,,,
,,,,,,604d728ad647066e76840d8a,62c5385b9a5d4f8d5af6d3ec,2022-07-06_09h23.30.294,Colour_Asymmetry_Pilot,2022.1.3,Win32,120.6272618,62c50e9c1127f2cd403a315f,0,70,70,139,1,twofour,,,,,,,,,,,,,,,,,,,,,,,,,,,,,,,,,,,,,,,,,,,,,,,,,,,,,,,,,,,,,,,,,,,,,,,,,,,,,,,,,,,,,,,,,,,,,,,,,,,,,,,,,,,,,,,,,,,,,,,,,,,,,,,,,,,,,,,,,,,,,,,,,,,,,,,,,,,
,,,,,,604d728ad647066e76840d8a,62c5385b9a5d4f8d5af6d3ec,2022-07-06_09h23.30.294,Colour_Asymmetry_Pilot,2022.1.3,Win32,120.6272618,62c50e9c1127f2cd403a315f,0,71,71,57,1,onethree,,,,,,,,,,,,,,,,,,,,,,,,,,,,,,,,,,,,,,,,,,,,,,,,,,,,,,,,,,,,,,,,,,,,,,,,,,,,,,,,,,,,,,,,,,,,,,,,,,,,,,,,,,,,,,,,,,,,,,,,,,,,,,,,,,,,,,,,,,,,,,,,,,,,,,,,,,,
,,,,,,604d728ad647066e76840d8a,62c5385b9a5d4f8d5af6d3ec,2022-07-06_09h23.30.294,Colour_Asymmetry_Pilot,2022.1.3,Win32,120.6272618,62c50e9c1127f2cd403a315f,0,72,72,128,1,onetwo,,,,,,,,,,,,,,,,,,,,,,,,,,,,,,,,,,,,,,,,,,,,,,,,,,,,,,,,,,,,,,,,,,,,,,,,,,,,,,,,,,,,,,,,,,,,,,,,,,,,,,,,,,,,,,,,,,,,,,,,,,,,,,,,,,,,,,,,,,,,,,,,,,,,,,,,,,,
,,,,,,604d728ad647066e76840d8a,62c5385b9a5d4f8d5af6d3ec,2022-07-06_09h23.30.294,Colour_Asymmetry_Pilot,2022.1.3,Win32,120.6272618,62c50e9c1127f2cd403a315f,0,73,73,142,1,fourtwo,,,,,,,,,,,,,,,,,,,,,,,,,,,,,,,,,,,,,,,,,,,,,,,,,,,,,,,,,,,,,,,,,,,,,,,,,,,,,,,,,,,,,,,,,,,,,,,,,,,,,,,,,,,,,,,,,,,,,,,,,,,,,,,,,,,,,,,,,,,,,,,,,,,,,,,,,,,
,,,,,,604d728ad647066e76840d8a,62c5385b9a5d4f8d5af6d3ec,2022-07-06_09h23.30.294,Colour_Asymmetry_Pilot,2022.1.3,Win32,120.6272618,62c50e9c1127f2cd403a315f,0,74,74,155,1,twofour,,,,,,,,,,,,,,,,,,,,,,,,,,,,,,,,,,,,,,,,,,,,,,,,,,,,,,,,,,,,,,,,,,,,,,,,,,,,,,,,,,,,,,,,,,,,,,,,,,,,,,,,,,,,,,,,,,,,,,,,,,,,,,,,,,,,,,,,,,,,,,,,,,,,,,,,,,,
,,,,,,604d728ad647066e76840d8a,62c5385b9a5d4f8d5af6d3ec,2022-07-06_09h23.30.294,Colour_Asymmetry_Pilot,2022.1.3,Win32,120.6272618,62c50e9c1127f2cd403a315f,0,75,75,68,1,threeone,,,,,,,,,,,,,,,,,,,,,,,,,,,,,,,,,,,,,,,,,,,,,,,,,,,,,,,,,,,,,,,,,,,,,,,,,,,,,,,,,,,,,,,,,,,,,,,,,,,,,,,,,,,,,,,,,,,,,,,,,,,,,,,,,,,,,,,,,,,,,,,,,,,,,,,,,,,
,,,,,,604d728ad647066e76840d8a,62c5385b9a5d4f8d5af6d3ec,2022-07-06_09h23.30.294,Colour_Asymmetry_Pilot,2022.1.3,Win32,120.6272618,62c50e9c1127f2cd403a315f,0,76,76,78,1,fourtwo,,,,,,,,,,,,,,,,,,,,,,,,,,,,,,,,,,,,,,,,,,,,,,,,,,,,,,,,,,,,,,,,,,,,,,,,,,,,,,,,,,,,,,,,,,,,,,,,,,,,,,,,,,,,,,,,,,,,,,,,,,,,,,,,,,,,,,,,,,,,,,,,,,,,,,,,,,,
,,,,,,604d728ad647066e76840d8a,62c5385b9a5d4f8d5af6d3ec,2022-07-06_09h23.30.294,Colour_Asymmetry_Pilot,2022.1.3,Win32,120.6272618,62c50e9c1127f2cd403a315f,0,77,77,5,1,threefour,,,,,,,,,,,,,,,,,,,,,,,,,,,,,,,,,,,,,,,,,,,,,,,,,,,,,,,,,,,,,,,,,,,,,,,,,,,,,,,,,,,,,,,,,,,,,,,,,,,,,,,,,,,,,,,,,,,,,,,,,,,,,,,,,,,,,,,,,,,,,,,,,,,,,,,,,,,
,,,,,,604d728ad647066e76840d8a,62c5385b9a5d4f8d5af6d3ec,2022-07-06_09h23.30.294,Colour_Asymmetry_Pilot,2022.1.3,Win32,120.6272618,62c50e9c1127f2cd403a315f,0,78,78,67,1,twofour,,,,,,,,,,,,,,,,,,,,,,,,,,,,,,,,,,,,,,,,,,,,,,,,,,,,,,,,,,,,,,,,,,,,,,,,,,,,,,,,,,,,,,,,,,,,,,,,,,,,,,,,,,,,,,,,,,,,,,,,,,,,,,,,,,,,,,,,,,,,,,,,,,,,,,,,,,,
,,,,,,604d728ad647066e76840d8a,62c5385b9a5d4f8d5af6d3ec,2022-07-06_09h23.30.294,Colour_Asymmetry_Pilot,2022.1.3,Win32,120.6272618,62c50e9c1127f2cd403a315f,0,79,79,31,1,fourthree,,,,,,,,,,,,,,,,,,,,,,,,,,,,,,,,,,,,,,,,,,,,,,,,,,,,,,,,,,,,,,,,,,,,,,,,,,,,,,,,,,,,,,,,,,,,,,,,,,,,,,,,,,,,,,,,,,,,,,,,,,,,,,,,,,,,,,,,,,,,,,,,,,,,,,,,,,,
,,,,,,604d728ad647066e76840d8a,62c5385b9a5d4f8d5af6d3ec,2022-07-06_09h23.30.294,Colour_Asymmetry_Pilot,2022.1.3,Win32,120.6272618,62c50e9c1127f2cd403a315f,0,80,80,136,1,onetwo,,,,,,,,,,,,,,,,,,,,,,,,,,,,,,,,,,,,,,,,,,,,,,,,,,,,,,,,,,,,,,,,,,,,,,,,,,,,,,,,,,,,,,,,,,,,,,,,,,,,,,,,,,,,,,,,,,,,,,,,,,,,,,,,,,,,,,,,,,,,,,,,,,,,,,,,,,,
,,,,,,604d728ad647066e76840d8a,62c5385b9a5d4f8d5af6d3ec,2022-07-06_09h23.30.294,Colour_Asymmetry_Pilot,2022.1.3,Win32,120.6272618,62c50e9c1127f2cd403a315f,0,81,81,77,1,threefour,,,,,,,,,,,,,,,,,,,,,,,,,,,,,,,,,,,,,,,,,,,,,,,,,,,,,,,,,,,,,,,,,,,,,,,,,,,,,,,,,,,,,,,,,,,,,,,,,,,,,,,,,,,,,,,,,,,,,,,,,,,,,,,,,,,,,,,,,,,,,,,,,,,,,,,,,,,
,,,,,,604d728ad647066e76840d8a,62c5385b9a5d4f8d5af6d3ec,2022-07-06_09h23.30.294,Colour_Asymmetry_Pilot,2022.1.3,Win32,120.6272618,62c50e9c1127f2cd403a315f,0,82,82,48,1,onetwo,,,,,,,,,,,,,,,,,,,,,,,,,,,,,,,,,,,,,,,,,,,,,,,,,,,,,,,,,,,,,,,,,,,,,,,,,,,,,,,,,,,,,,,,,,,,,,,,,,,,,,,,,,,,,,,,,,,,,,,,,,,,,,,,,,,,,,,,,,,,,,,,,,,,,,,,,,,
,,,,,,604d728ad647066e76840d8a,62c5385b9a5d4f8d5af6d3ec,2022-07-06_09h23.30.294,Colour_Asymmetry_Pilot,2022.1.3,Win32,120.6272618,62c50e9c1127f2cd403a315f,0,83,83,98,1,twoone,,,,,,,,,,,,,,,,,,,,,,,,,,,,,,,,,,,,,,,,,,,,,,,,,,,,,,,,,,,,,,,,,,,,,,,,,,,,,,,,,,,,,,,,,,,,,,,,,,,,,,,,,,,,,,,,,,,,,,,,,,,,,,,,,,,,,,,,,,,,,,,,,,,,,,,,,,,
,,,,,,604d728ad647066e76840d8a,62c5385b9a5d4f8d5af6d3ec,2022-07-06_09h23.30.294,Colour_Asymmetry_Pilot,2022.1.3,Win32,120.6272618,62c50e9c1127f2cd403a315f,0,84,84,24,1,onetwo,,,,,,,,,,,,,,,,,,,,,,,,,,,,,,,,,,,,,,,,,,,,,,,,,,,,,,,,,,,,,,,,,,,,,,,,,,,,,,,,,,,,,,,,,,,,,,,,,,,,,,,,,,,,,,,,,,,,,,,,,,,,,,,,,,,,,,,,,,,,,,,,,,,,,,,,,,,
,,,,,,604d728ad647066e76840d8a,62c5385b9a5d4f8d5af6d3ec,2022-07-06_09h23.30.294,Colour_Asymmetry_Pilot,2022.1.3,Win32,120.6272618,62c50e9c1127f2cd403a315f,0,85,85,135,1,fourthree,,,,,,,,,,,,,,,,,,,,,,,,,,,,,,,,,,,,,,,,,,,,,,,,,,,,,,,,,,,,,,,,,,,,,,,,,,,,,,,,,,,,,,,,,,,,,,,,,,,,,,,,,,,,,,,,,,,,,,,,,,,,,,,,,,,,,,,,,,,,,,,,,,,,,,,,,,,
,,,,,,604d728ad647066e76840d8a,62c5385b9a5d4f8d5af6d3ec,2022-07-06_09h23.30.294,Colour_Asymmetry_Pilot,2022.1.3,Win32,120.6272618,62c50e9c1127f2cd403a315f,0,86,86,76,1,threeone,,,,,,,,,,,,,,,,,,,,,,,,,,,,,,,,,,,,,,,,,,,,,,,,,,,,,,,,,,,,,,,,,,,,,,,,,,,,,,,,,,,,,,,,,,,,,,,,,,,,,,,,,,,,,,,,,,,,,,,,,,,,,,,,,,,,,,,,,,,,,,,,,,,,,,,,,,,
,,,,,,604d728ad647066e76840d8a,62c5385b9a5d4f8d5af6d3ec,2022-07-06_09h23.30.294,Colour_Asymmetry_Pilot,2022.1.3,Win32,120.6272618,62c50e9c1127f2cd403a315f,0,87,87,42,1,twoone,,,,,,,,,,,,,,,,,,,,,,,,,,,,,,,,,,,,,,,,,,,,,,,,,,,,,,,,,,,,,,,,,,,,,,,,,,,,,,,,,,,,,,,,,,,,,,,,,,,,,,,,,,,,,,,,,,,,,,,,,,,,,,,,,,,,,,,,,,,,,,,,,,,,,,,,,,,
,,,,,,604d728ad647066e76840d8a,62c5385b9a5d4f8d5af6d3ec,2022-07-06_09h23.30.294,Colour_Asymmetry_Pilot,2022.1.3,Win32,120.6272618,62c50e9c1127f2cd403a315f,0,88,88,90,1,twoone,,,,,,,,,,,,,,,,,,,,,,,,,,,,,,,,,,,,,,,,,,,,,,,,,,,,,,,,,,,,,,,,,,,,,,,,,,,,,,,,,,,,,,,,,,,,,,,,,,,,,,,,,,,,,,,,,,,,,,,,,,,,,,,,,,,,,,,,,,,,,,,,,,,,,,,,,,,
,,,,,,604d728ad647066e76840d8a,62c5385b9a5d4f8d5af6d3ec,2022-07-06_09h23.30.294,Colour_Asymmetry_Pilot,2022.1.3,Win32,120.6272618,62c50e9c1127f2cd403a315f,0,89,89,140,1,threeone,,,,,,,,,,,,,,,,,,,,,,,,,,,,,,,,,,,,,,,,,,,,,,,,,,,,,,,,,,,,,,,,,,,,,,,,,,,,,,,,,,,,,,,,,,,,,,,,,,,,,,,,,,,,,,,,,,,,,,,,,,,,,,,,,,,,,,,,,,,,,,,,,,,,,,,,,,,
,,,,,,604d728ad647066e76840d8a,62c5385b9a5d4f8d5af6d3ec,2022-07-06_09h23.30.294,Colour_Asymmetry_Pilot,2022.1.3,Win32,120.6272618,62c50e9c1127f2cd403a315f,0,90,90,94,1,fourtwo,,,,,,,,,,,,,,,,,,,,,,,,,,,,,,,,,,,,,,,,,,,,,,,,,,,,,,,,,,,,,,,,,,,,,,,,,,,,,,,,,,,,,,,,,,,,,,,,,,,,,,,,,,,,,,,,,,,,,,,,,,,,,,,,,,,,,,,,,,,,,,,,,,,,,,,,,,,
,,,,,,604d728ad647066e76840d8a,62c5385b9a5d4f8d5af6d3ec,2022-07-06_09h23.30.294,Colour_Asymmetry_Pilot,2022.1.3,Win32,120.6272618,62c50e9c1127f2cd403a315f,0,91,91,73,1,onethree,,,,,,,,,,,,,,,,,,,,,,,,,,,,,,,,,,,,,,,,,,,,,,,,,,,,,,,,,,,,,,,,,,,,,,,,,,,,,,,,,,,,,,,,,,,,,,,,,,,,,,,,,,,,,,,,,,,,,,,,,,,,,,,,,,,,,,,,,,,,,,,,,,,,,,,,,,,
,,,,,,604d728ad647066e76840d8a,62c5385b9a5d4f8d5af6d3ec,2022-07-06_09h23.30.294,Colour_Asymmetry_Pilot,2022.1.3,Win32,120.6272618,62c50e9c1127f2cd403a315f,0,92,92,23,1,fourthree,,,,,,,,,,,,,,,,,,,,,,,,,,,,,,,,,,,,,,,,,,,,,,,,,,,,,,,,,,,,,,,,,,,,,,,,,,,,,,,,,,,,,,,,,,,,,,,,,,,,,,,,,,,,,,,,,,,,,,,,,,,,,,,,,,,,,,,,,,,,,,,,,,,,,,,,,,,
,,,,,,604d728ad647066e76840d8a,62c5385b9a5d4f8d5af6d3ec,2022-07-06_09h23.30.294,Colour_Asymmetry_Pilot,2022.1.3,Win32,120.6272618,62c50e9c1127f2cd403a315f,0,93,93,120,1,onetwo,,,,,,,,,,,,,,,,,,,,,,,,,,,,,,,,,,,,,,,,,,,,,,,,,,,,,,,,,,,,,,,,,,,,,,,,,,,,,,,,,,,,,,,,,,,,,,,,,,,,,,,,,,,,,,,,,,,,,,,,,,,,,,,,,,,,,,,,,,,,,,,,,,,,,,,,,,,
,,,,,,604d728ad647066e76840d8a,62c5385b9a5d4f8d5af6d3ec,2022-07-06_09h23.30.294,Colour_Asymmetry_Pilot,2022.1.3,Win32,120.6272618,62c50e9c1127f2cd403a315f,0,94,94,107,1,twofour,,,,,,,,,,,,,,,,,,,,,,,,,,,,,,,,,,,,,,,,,,,,,,,,,,,,,,,,,,,,,,,,,,,,,,,,,,,,,,,,,,,,,,,,,,,,,,,,,,,,,,,,,,,,,,,,,,,,,,,,,,,,,,,,,,,,,,,,,,,,,,,,,,,,,,,,,,,
,,,,,,604d728ad647066e76840d8a,62c5385b9a5d4f8d5af6d3ec,2022-07-06_09h23.30.294,Colour_Asymmetry_Pilot,2022.1.3,Win32,120.6272618,62c50e9c1127f2cd403a315f,0,95,95,49,1,onethree,,,,,,,,,,,,,,,,,,,,,,,,,,,,,,,,,,,,,,,,,,,,,,,,,,,,,,,,,,,,,,,,,,,,,,,,,,,,,,,,,,,,,,,,,,,,,,,,,,,,,,,,,,,,,,,,,,,,,,,,,,,,,,,,,,,,,,,,,,,,,,,,,,,,,,,,,,,
,,,,,,604d728ad647066e76840d8a,62c5385b9a5d4f8d5af6d3ec,2022-07-06_09h23.30.294,Colour_Asymmetry_Pilot,2022.1.3,Win32,120.6272618,62c50e9c1127f2cd403a315f,0,96,96,141,1,threefour,,,,,,,,,,,,,,,,,,,,,,,,,,,,,,,,,,,,,,,,,,,,,,,,,,,,,,,,,,,,,,,,,,,,,,,,,,,,,,,,,,,,,,,,,,,,,,,,,,,,,,,,,,,,,,,,,,,,,,,,,,,,,,,,,,,,,,,,,,,,,,,,,,,,,,,,,,,
,,,,,,604d728ad647066e76840d8a,62c5385b9a5d4f8d5af6d3ec,2022-07-06_09h23.30.294,Colour_Asymmetry_Pilot,2022.1.3,Win32,120.6272618,62c50e9c1127f2cd403a315f,0,97,97,41,1,onethree,,,,,,,,,,,,,,,,,,,,,,,,,,,,,,,,,,,,,,,,,,,,,,,,,,,,,,,,,,,,,,,,,,,,,,,,,,,,,,,,,,,,,,,,,,,,,,,,,,,,,,,,,,,,,,,,,,,,,,,,,,,,,,,,,,,,,,,,,,,,,,,,,,,,,,,,,,,
,,,,,,604d728ad647066e76840d8a,62c5385b9a5d4f8d5af6d3ec,2022-07-06_09h23.30.294,Colour_Asymmetry_Pilot,2022.1.3,Win32,120.6272618,62c50e9c1127f2cd403a315f,0,98,98,71,1,fourthree,,,,,,,,,,,,,,,,,,,,,,,,,,,,,,,,,,,,,,,,,,,,,,,,,,,,,,,,,,,,,,,,,,,,,,,,,,,,,,,,,,,,,,,,,,,,,,,,,,,,,,,,,,,,,,,,,,,,,,,,,,,,,,,,,,,,,,,,,,,,,,,,,,,,,,,,,,,
,,,,,,604d728ad647066e76840d8a,62c5385b9a5d4f8d5af6d3ec,2022-07-06_09h23.30.294,Colour_Asymmetry_Pilot,2022.1.3,Win32,120.6272618,62c50e9c1127f2cd403a315f,0,99,99,59,1,twofour,,,,,,,,,,,,,,,,,,,,,,,,,,,,,,,,,,,,,,,,,,,,,,,,,,,,,,,,,,,,,,,,,,,,,,,,,,,,,,,,,,,,,,,,,,,,,,,,,,,,,,,,,,,,,,,,,,,,,,,,,,,,,,,,,,,,,,,,,,,,,,,,,,,,,,,,,,,
,,,,,,604d728ad647066e76840d8a,62c5385b9a5d4f8d5af6d3ec,2022-07-06_09h23.30.294,Colour_Asymmetry_Pilot,2022.1.3,Win32,120.6272618,62c50e9c1127f2cd403a315f,0,100,100,105,1,onethree,,,,,,,,,,,,,,,,,,,,,,,,,,,,,,,,,,,,,,,,,,,,,,,,,,,,,,,,,,,,,,,,,,,,,,,,,,,,,,,,,,,,,,,,,,,,,,,,,,,,,,,,,,,,,,,,,,,,,,,,,,,,,,,,,,,,,,,,,,,,,,,,,,,,,,,,,,,
,,,,,,604d728ad647066e76840d8a,62c5385b9a5d4f8d5af6d3ec,2022-07-06_09h23.30.294,Colour_Asymmetry_Pilot,2022.1.3,Win32,120.6272618,62c50e9c1127f2cd403a315f,0,101,101,147,1,twofour,,,,,,,,,,,,,,,,,,,,,,,,,,,,,,,,,,,,,,,,,,,,,,,,,,,,,,,,,,,,,,,,,,,,,,,,,,,,,,,,,,,,,,,,,,,,,,,,,,,,,,,,,,,,,,,,,,,,,,,,,,,,,,,,,,,,,,,,,,,,,,,,,,,,,,,,,,,
,,,,,,604d728ad647066e76840d8a,62c5385b9a5d4f8d5af6d3ec,2022-07-06_09h23.30.294,Colour_Asymmetry_Pilot,2022.1.3,Win32,120.6272618,62c50e9c1127f2cd403a315f,0,102,102,86,1,fourtwo,,,,,,,,,,,,,,,,,,,,,,,,,,,,,,,,,,,,,,,,,,,,,,,,,,,,,,,,,,,,,,,,,,,,,,,,,,,,,,,,,,,,,,,,,,,,,,,,,,,,,,,,,,,,,,,,,,,,,,,,,,,,,,,,,,,,,,,,,,,,,,,,,,,,,,,,,,,
,,,,,,604d728ad647066e76840d8a,62c5385b9a5d4f8d5af6d3ec,2022-07-06_09h23.30.294,Colour_Asymmetry_Pilot,2022.1.3,Win32,120.6272618,62c50e9c1127f2cd403a315f,0,103,103,111,1,fourthree,,,,,,,,,,,,,,,,,,,,,,,,,,,,,,,,,,,,,,,,,,,,,,,,,,,,,,,,,,,,,,,,,,,,,,,,,,,,,,,,,,,,,,,,,,,,,,,,,,,,,,,,,,,,,,,,,,,,,,,,,,,,,,,,,,,,,,,,,,,,,,,,,,,,,,,,,,,
,,,,,,604d728ad647066e76840d8a,62c5385b9a5d4f8d5af6d3ec,2022-07-06_09h23.30.294,Colour_Asymmetry_Pilot,2022.1.3,Win32,120.6272618,62c50e9c1127f2cd403a315f,0,104,104,103,1,fourthree,,,,,,,,,,,,,,,,,,,,,,,,,,,,,,,,,,,,,,,,,,,,,,,,,,,,,,,,,,,,,,,,,,,,,,,,,,,,,,,,,,,,,,,,,,,,,,,,,,,,,,,,,,,,,,,,,,,,,,,,,,,,,,,,,,,,,,,,,,,,,,,,,,,,,,,,,,,
,,,,,,604d728ad647066e76840d8a,62c5385b9a5d4f8d5af6d3ec,2022-07-06_09h23.30.294,Colour_Asymmetry_Pilot,2022.1.3,Win32,120.6272618,62c50e9c1127f2cd403a315f,0,105,105,79,1,fourthree,,,,,,,,,,,,,,,,,,,,,,,,,,,,,,,,,,,,,,,,,,,,,,,,,,,,,,,,,,,,,,,,,,,,,,,,,,,,,,,,,,,,,,,,,,,,,,,,,,,,,,,,,,,,,,,,,,,,,,,,,,,,,,,,,,,,,,,,,,,,,,,,,,,,,,,,,,,
,,,,,,604d728ad647066e76840d8a,62c5385b9a5d4f8d5af6d3ec,2022-07-06_09h23.30.294,Colour_Asymmetry_Pilot,2022.1.3,Win32,120.6272618,62c50e9c1127f2cd403a315f,0,106,106,149,1,threefour,,,,,,,,,,,,,,,,,,,,,,,,,,,,,,,,,,,,,,,,,,,,,,,,,,,,,,,,,,,,,,,,,,,,,,,,,,,,,,,,,,,,,,,,,,,,,,,,,,,,,,,,,,,,,,,,,,,,,,,,,,,,,,,,,,,,,,,,,,,,,,,,,,,,,,,,,,,
,,,,,,604d728ad647066e76840d8a,62c5385b9a5d4f8d5af6d3ec,2022-07-06_09h23.30.294,Colour_Asymmetry_Pilot,2022.1.3,Win32,120.6272618,62c50e9c1127f2cd403a315f,0,107,107,40,1,onetwo,,,,,,,,,,,,,,,,,,,,,,,,,,,,,,,,,,,,,,,,,,,,,,,,,,,,,,,,,,,,,,,,,,,,,,,,,,,,,,,,,,,,,,,,,,,,,,,,,,,,,,,,,,,,,,,,,,,,,,,,,,,,,,,,,,,,,,,,,,,,,,,,,,,,,,,,,,,
,,,,,,604d728ad647066e76840d8a,62c5385b9a5d4f8d5af6d3ec,2022-07-06_09h23.30.294,Colour_Asymmetry_Pilot,2022.1.3,Win32,120.6272618,62c50e9c1127f2cd403a315f,0,108,108,38,1,fourtwo,,,,,,,,,,,,,,,,,,,,,,,,,,,,,,,,,,,,,,,,,,,,,,,,,,,,,,,,,,,,,,,,,,,,,,,,,,,,,,,,,,,,,,,,,,,,,,,,,,,,,,,,,,,,,,,,,,,,,,,,,,,,,,,,,,,,,,,,,,,,,,,,,,,,,,,,,,,
,,,,,,604d728ad647066e76840d8a,62c5385b9a5d4f8d5af6d3ec,2022-07-06_09h23.30.294,Colour_Asymmetry_Pilot,2022.1.3,Win32,120.6272618,62c50e9c1127f2cd403a315f,0,109,109,36,1,threeone,,,,,,,,,,,,,,,,,,,,,,,,,,,,,,,,,,,,,,,,,,,,,,,,,,,,,,,,,,,,,,,,,,,,,,,,,,,,,,,,,,,,,,,,,,,,,,,,,,,,,,,,,,,,,,,,,,,,,,,,,,,,,,,,,,,,,,,,,,,,,,,,,,,,,,,,,,,
,,,,,,604d728ad647066e76840d8a,62c5385b9a5d4f8d5af6d3ec,2022-07-06_09h23.30.294,Colour_Asymmetry_Pilot,2022.1.3,Win32,120.6272618,62c50e9c1127f2cd403a315f,0,110,110,6,1,fourtwo,,,,,,,,,,,,,,,,,,,,,,,,,,,,,,,,,,,,,,,,,,,,,,,,,,,,,,,,,,,,,,,,,,,,,,,,,,,,,,,,,,,,,,,,,,,,,,,,,,,,,,,,,,,,,,,,,,,,,,,,,,,,,,,,,,,,,,,,,,,,,,,,,,,,,,,,,,,
,,,,,,604d728ad647066e76840d8a,62c5385b9a5d4f8d5af6d3ec,2022-07-06_09h23.30.294,Colour_Asymmetry_Pilot,2022.1.3,Win32,120.6272618,62c50e9c1127f2cd403a315f,0,111,111,26,1,twoone,,,,,,,,,,,,,,,,,,,,,,,,,,,,,,,,,,,,,,,,,,,,,,,,,,,,,,,,,,,,,,,,,,,,,,,,,,,,,,,,,,,,,,,,,,,,,,,,,,,,,,,,,,,,,,,,,,,,,,,,,,,,,,,,,,,,,,,,,,,,,,,,,,,,,,,,,,,
,,,,,,604d728ad647066e76840d8a,62c5385b9a5d4f8d5af6d3ec,2022-07-06_09h23.30.294,Colour_Asymmetry_Pilot,2022.1.3,Win32,120.6272618,62c50e9c1127f2cd403a315f,0,112,112,72,1,onetwo,,,,,,,,,,,,,,,,,,,,,,,,,,,,,,,,,,,,,,,,,,,,,,,,,,,,,,,,,,,,,,,,,,,,,,,,,,,,,,,,,,,,,,,,,,,,,,,,,,,,,,,,,,,,,,,,,,,,,,,,,,,,,,,,,,,,,,,,,,,,,,,,,,,,,,,,,,,
,,,,,,604d728ad647066e76840d8a,62c5385b9a5d4f8d5af6d3ec,2022-07-06_09h23.30.294,Colour_Asymmetry_Pilot,2022.1.3,Win32,120.6272618,62c50e9c1127f2cd403a315f,0,113,113,113,1,onethree,,,,,,,,,,,,,,,,,,,,,,,,,,,,,,,,,,,,,,,,,,,,,,,,,,,,,,,,,,,,,,,,,,,,,,,,,,,,,,,,,,,,,,,,,,,,,,,,,,,,,,,,,,,,,,,,,,,,,,,,,,,,,,,,,,,,,,,,,,,,,,,,,,,,,,,,,,,
,,,,,,604d728ad647066e76840d8a,62c5385b9a5d4f8d5af6d3ec,2022-07-06_09h23.30.294,Colour_Asymmetry_Pilot,2022.1.3,Win32,120.6272618,62c50e9c1127f2cd403a315f,0,114,114,152,1,onetwo,,,,,,,,,,,,,,,,,,,,,,,,,,,,,,,,,,,,,,,,,,,,,,,,,,,,,,,,,,,,,,,,,,,,,,,,,,,,,,,,,,,,,,,,,,,,,,,,,,,,,,,,,,,,,,,,,,,,,,,,,,,,,,,,,,,,,,,,,,,,,,,,,,,,,,,,,,,
,,,,,,604d728ad647066e76840d8a,62c5385b9a5d4f8d5af6d3ec,2022-07-06_09h23.30.294,Colour_Asymmetry_Pilot,2022.1.3,Win32,120.6272618,62c50e9c1127f2cd403a315f,0,115,115,14,1,fourtwo,,,,,,,,,,,,,,,,,,,,,,,,,,,,,,,,,,,,,,,,,,,,,,,,,,,,,,,,,,,,,,,,,,,,,,,,,,,,,,,,,,,,,,,,,,,,,,,,,,,,,,,,,,,,,,,,,,,,,,,,,,,,,,,,,,,,,,,,,,,,,,,,,,,,,,,,,,,
,,,,,,604d728ad647066e76840d8a,62c5385b9a5d4f8d5af6d3ec,2022-07-06_09h23.30.294,Colour_Asymmetry_Pilot,2022.1.3,Win32,120.6272618,62c50e9c1127f2cd403a315f,0,116,116,132,1,threeone,,,,,,,,,,,,,,,,,,,,,,,,,,,,,,,,,,,,,,,,,,,,,,,,,,,,,,,,,,,,,,,,,,,,,,,,,,,,,,,,,,,,,,,,,,,,,,,,,,,,,,,,,,,,,,,,,,,,,,,,,,,,,,,,,,,,,,,,,,,,,,,,,,,,,,,,,,,
,,,,,,604d728ad647066e76840d8a,62c5385b9a5d4f8d5af6d3ec,2022-07-06_09h23.30.294,Colour_Asymmetry_Pilot,2022.1.3,Win32,120.6272618,62c50e9c1127f2cd403a315f,0,117,117,39,1,fourthree,,,,,,,,,,,,,,,,,,,,,,,,,,,,,,,,,,,,,,,,,,,,,,,,,,,,,,,,,,,,,,,,,,,,,,,,,,,,,,,,,,,,,,,,,,,,,,,,,,,,,,,,,,,,,,,,,,,,,,,,,,,,,,,,,,,,,,,,,,,,,,,,,,,,,,,,,,,
,,,,,,604d728ad647066e76840d8a,62c5385b9a5d4f8d5af6d3ec,2022-07-06_09h23.30.294,Colour_Asymmetry_Pilot,2022.1.3,Win32,120.6272618,62c50e9c1127f2cd403a315f,0,118,118,61,1,threefour,,,,,,,,,,,,,,,,,,,,,,,,,,,,,,,,,,,,,,,,,,,,,,,,,,,,,,,,,,,,,,,,,,,,,,,,,,,,,,,,,,,,,,,,,,,,,,,,,,,,,,,,,,,,,,,,,,,,,,,,,,,,,,,,,,,,,,,,,,,,,,,,,,,,,,,,,,,
,,,,,,604d728ad647066e76840d8a,62c5385b9a5d4f8d5af6d3ec,2022-07-06_09h23.30.294,Colour_Asymmetry_Pilot,2022.1.3,Win32,120.6272618,62c50e9c1127f2cd403a315f,0,119,119,44,1,threeone,,,,,,,,,,,,,,,,,,,,,,,,,,,,,,,,,,,,,,,,,,,,,,,,,,,,,,,,,,,,,,,,,,,,,,,,,,,,,,,,,,,,,,,,,,,,,,,,,,,,,,,,,,,,,,,,,,,,,,,,,,,,,,,,,,,,,,,,,,,,,,,,,,,,,,,,,,,
,,,,,,604d728ad647066e76840d8a,62c5385b9a5d4f8d5af6d3ec,2022-07-06_09h23.30.294,Colour_Asymmetry_Pilot,2022.1.3,Win32,120.6272618,62c50e9c1127f2cd403a315f,0,120,120,115,1,twofour,,,,,,,,,,,,,,,,,,,,,,,,,,,,,,,,,,,,,,,,,,,,,,,,,,,,,,,,,,,,,,,,,,,,,,,,,,,,,,,,,,,,,,,,,,,,,,,,,,,,,,,,,,,,,,,,,,,,,,,,,,,,,,,,,,,,,,,,,,,,,,,,,,,,,,,,,,,
,,,,,,604d728ad647066e76840d8a,62c5385b9a5d4f8d5af6d3ec,2022-07-06_09h23.30.294,Colour_Asymmetry_Pilot,2022.1.3,Win32,120.6272618,62c50e9c1127f2cd403a315f,0,121,121,70,1,fourtwo,,,,,,,,,,,,,,,,,,,,,,,,,,,,,,,,,,,,,,,,,,,,,,,,,,,,,,,,,,,,,,,,,,,,,,,,,,,,,,,,,,,,,,,,,,,,,,,,,,,,,,,,,,,,,,,,,,,,,,,,,,,,,,,,,,,,,,,,,,,,,,,,,,,,,,,,,,,
,,,,,,604d728ad647066e76840d8a,62c5385b9a5d4f8d5af6d3ec,2022-07-06_09h23.30.294,Colour_Asymmetry_Pilot,2022.1.3,Win32,120.6272618,62c50e9c1127f2cd403a315f,0,122,122,60,1,threeone,,,,,,,,,,,,,,,,,,,,,,,,,,,,,,,,,,,,,,,,,,,,,,,,,,,,,,,,,,,,,,,,,,,,,,,,,,,,,,,,,,,,,,,,,,,,,,,,,,,,,,,,,,,,,,,,,,,,,,,,,,,,,,,,,,,,,,,,,,,,,,,,,,,,,,,,,,,
,,,,,,604d728ad647066e76840d8a,62c5385b9a5d4f8d5af6d3ec,2022-07-06_09h23.30.294,Colour_Asymmetry_Pilot,2022.1.3,Win32,120.6272618,62c50e9c1127f2cd403a315f,0,123,123,143,1,fourthree,,,,,,,,,,,,,,,,,,,,,,,,,,,,,,,,,,,,,,,,,,,,,,,,,,,,,,,,,,,,,,,,,,,,,,,,,,,,,,,,,,,,,,,,,,,,,,,,,,,,,,,,,,,,,,,,,,,,,,,,,,,,,,,,,,,,,,,,,,,,,,,,,,,,,,,,,,,
,,,,,,604d728ad647066e76840d8a,62c5385b9a5d4f8d5af6d3ec,2022-07-06_09h23.30.294,Colour_Asymmetry_Pilot,2022.1.3,Win32,120.6272618,62c50e9c1127f2cd403a315f,0,124,124,43,1,twofour,,,,,,,,,,,,,,,,,,,,,,,,,,,,,,,,,,,,,,,,,,,,,,,,,,,,,,,,,,,,,,,,,,,,,,,,,,,,,,,,,,,,,,,,,,,,,,,,,,,,,,,,,,,,,,,,,,,,,,,,,,,,,,,,,,,,,,,,,,,,,,,,,,,,,,,,,,,
,,,,,,604d728ad647066e76840d8a,62c5385b9a5d4f8d5af6d3ec,2022-07-06_09h23.30.294,Colour_Asymmetry_Pilot,2022.1.3,Win32,120.6272618,62c50e9c1127f2cd403a315f,0,125,125,117,1,threefour,,,,,,,,,,,,,,,,,,,,,,,,,,,,,,,,,,,,,,,,,,,,,,,,,,,,,,,,,,,,,,,,,,,,,,,,,,,,,,,,,,,,,,,,,,,,,,,,,,,,,,,,,,,,,,,,,,,,,,,,,,,,,,,,,,,,,,,,,,,,,,,,,,,,,,,,,,,
,,,,,,604d728ad647066e76840d8a,62c5385b9a5d4f8d5af6d3ec,2022-07-06_09h23.30.294,Colour_Asymmetry_Pilot,2022.1.3,Win32,120.6272618,62c50e9c1127f2cd403a315f,0,126,126,156,1,threeone,,,,,,,,,,,,,,,,,,,,,,,,,,,,,,,,,,,,,,,,,,,,,,,,,,,,,,,,,,,,,,,,,,,,,,,,,,,,,,,,,,,,,,,,,,,,,,,,,,,,,,,,,,,,,,,,,,,,,,,,,,,,,,,,,,,,,,,,,,,,,,,,,,,,,,,,,,,
,,,,,,604d728ad647066e76840d8a,62c5385b9a5d4f8d5af6d3ec,2022-07-06_09h23.30.294,Colour_Asymmetry_Pilot,2022.1.3,Win32,120.6272618,62c50e9c1127f2cd403a315f,0,127,127,47,1,fourthree,,,,,,,,,,,,,,,,,,,,,,,,,,,,,,,,,,,,,,,,,,,,,,,,,,,,,,,,,,,,,,,,,,,,,,,,,,,,,,,,,,,,,,,,,,,,,,,,,,,,,,,,,,,,,,,,,,,,,,,,,,,,,,,,,,,,,,,,,,,,,,,,,,,,,,,,,,,
,,,,,,604d728ad647066e76840d8a,62c5385b9a5d4f8d5af6d3ec,2022-07-06_09h23.30.294,Colour_Asymmetry_Pilot,2022.1.3,Win32,120.6272618,62c50e9c1127f2cd403a315f,0,128,128,89,1,onethree,,,,,,,,,,,,,,,,,,,,,,,,,,,,,,,,,,,,,,,,,,,,,,,,,,,,,,,,,,,,,,,,,,,,,,,,,,,,,,,,,,,,,,,,,,,,,,,,,,,,,,,,,,,,,,,,,,,,,,,,,,,,,,,,,,,,,,,,,,,,,,,,,,,,,,,,,,,
,,,,,,604d728ad647066e76840d8a,62c5385b9a5d4f8d5af6d3ec,2022-07-06_09h23.30.294,Colour_Asymmetry_Pilot,2022.1.3,Win32,120.6272618,62c50e9c1127f2cd403a315f,0,129,129,109,1,threefour,,,,,,,,,,,,,,,,,,,,,,,,,,,,,,,,,,,,,,,,,,,,,,,,,,,,,,,,,,,,,,,,,,,,,,,,,,,,,,,,,,,,,,,,,,,,,,,,,,,,,,,,,,,,,,,,,,,,,,,,,,,,,,,,,,,,,,,,,,,,,,,,,,,,,,,,,,,
,,,,,,604d728ad647066e76840d8a,62c5385b9a5d4f8d5af6d3ec,2022-07-06_09h23.30.294,Colour_Asymmetry_Pilot,2022.1.3,Win32,120.6272618,62c50e9c1127f2cd403a315f,0,130,130,33,1,onethree,,,,,,,,,,,,,,,,,,,,,,,,,,,,,,,,,,,,,,,,,,,,,,,,,,,,,,,,,,,,,,,,,,,,,,,,,,,,,,,,,,,,,,,,,,,,,,,,,,,,,,,,,,,,,,,,,,,,,,,,,,,,,,,,,,,,,,,,,,,,,,,,,,,,,,,,,,,
,,,,,,604d728ad647066e76840d8a,62c5385b9a5d4f8d5af6d3ec,2022-07-06_09h23.30.294,Colour_Asymmetry_Pilot,2022.1.3,Win32,120.6272618,62c50e9c1127f2cd403a315f,0,131,131,10,1,twoone,,,,,,,,,,,,,,,,,,,,,,,,,,,,,,,,,,,,,,,,,,,,,,,,,,,,,,,,,,,,,,,,,,,,,,,,,,,,,,,,,,,,,,,,,,,,,,,,,,,,,,,,,,,,,,,,,,,,,,,,,,,,,,,,,,,,,,,,,,,,,,,,,,,,,,,,,,,
,,,,,,604d728ad647066e76840d8a,62c5385b9a5d4f8d5af6d3ec,2022-07-06_09h23.30.294,Colour_Asymmetry_Pilot,2022.1.3,Win32,120.6272618,62c50e9c1127f2cd403a315f,0,132,132,134,1,fourtwo,,,,,,,,,,,,,,,,,,,,,,,,,,,,,,,,,,,,,,,,,,,,,,,,,,,,,,,,,,,,,,,,,,,,,,,,,,,,,,,,,,,,,,,,,,,,,,,,,,,,,,,,,,,,,,,,,,,,,,,,,,,,,,,,,,,,,,,,,,,,,,,,,,,,,,,,,,,
,,,,,,604d728ad647066e76840d8a,62c5385b9a5d4f8d5af6d3ec,2022-07-06_09h23.30.294,Colour_Asymmetry_Pilot,2022.1.3,Win32,120.6272618,62c50e9c1127f2cd403a315f,0,133,133,62,1,fourtwo,,,,,,,,,,,,,,,,,,,,,,,,,,,,,,,,,,,,,,,,,,,,,,,,,,,,,,,,,,,,,,,,,,,,,,,,,,,,,,,,,,,,,,,,,,,,,,,,,,,,,,,,,,,,,,,,,,,,,,,,,,,,,,,,,,,,,,,,,,,,,,,,,,,,,,,,,,,
,,,,,,604d728ad647066e76840d8a,62c5385b9a5d4f8d5af6d3ec,2022-07-06_09h23.30.294,Colour_Asymmetry_Pilot,2022.1.3,Win32,120.6272618,62c50e9c1127f2cd403a315f,0,134,134,129,1,onethree,,,,,,,,,,,,,,,,,,,,,,,,,,,,,,,,,,,,,,,,,,,,,,,,,,,,,,,,,,,,,,,,,,,,,,,,,,,,,,,,,,,,,,,,,,,,,,,,,,,,,,,,,,,,,,,,,,,,,,,,,,,,,,,,,,,,,,,,,,,,,,,,,,,,,,,,,,,
,,,,,,604d728ad647066e76840d8a,62c5385b9a5d4f8d5af6d3ec,2022-07-06_09h23.30.294,Colour_Asymmetry_Pilot,2022.1.3,Win32,120.6272618,62c50e9c1127f2cd403a315f,0,135,135,56,1,onetwo,,,,,,,,,,,,,,,,,,,,,,,,,,,,,,,,,,,,,,,,,,,,,,,,,,,,,,,,,,,,,,,,,,,,,,,,,,,,,,,,,,,,,,,,,,,,,,,,,,,,,,,,,,,,,,,,,,,,,,,,,,,,,,,,,,,,,,,,,,,,,,,,,,,,,,,,,,,
,,,,,,604d728ad647066e76840d8a,62c5385b9a5d4f8d5af6d3ec,2022-07-06_09h23.30.294,Colour_Asymmetry_Pilot,2022.1.3,Win32,120.6272618,62c50e9c1127f2cd403a315f,0,136,136,127,1,fourthree,,,,,,,,,,,,,,,,,,,,,,,,,,,,,,,,,,,,,,,,,,,,,,,,,,,,,,,,,,,,,,,,,,,,,,,,,,,,,,,,,,,,,,,,,,,,,,,,,,,,,,,,,,,,,,,,,,,,,,,,,,,,,,,,,,,,,,,,,,,,,,,,,,,,,,,,,,,
,,,,,,604d728ad647066e76840d8a,62c5385b9a5d4f8d5af6d3ec,2022-07-06_09h23.30.294,Colour_Asymmetry_Pilot,2022.1.3,Win32,120.6272618,62c50e9c1127f2cd403a315f,0,137,137,121,1,onethree,,,,,,,,,,,,,,,,,,,,,,,,,,,,,,,,,,,,,,,,,,,,,,,,,,,,,,,,,,,,,,,,,,,,,,,,,,,,,,,,,,,,,,,,,,,,,,,,,,,,,,,,,,,,,,,,,,,,,,,,,,,,,,,,,,,,,,,,,,,,,,,,,,,,,,,,,,,
,,,,,,604d728ad647066e76840d8a,62c5385b9a5d4f8d5af6d3ec,2022-07-06_09h23.30.294,Colour_Asymmetry_Pilot,2022.1.3,Win32,120.6272618,62c50e9c1127f2cd403a315f,0,138,138,2,1,twoone,,,,,,,,,,,,,,,,,,,,,,,,,,,,,,,,,,,,,,,,,,,,,,,,,,,,,,,,,,,,,,,,,,,,,,,,,,,,,,,,,,,,,,,,,,,,,,,,,,,,,,,,,,,,,,,,,,,,,,,,,,,,,,,,,,,,,,,,,,,,,,,,,,,,,,,,,,,
,,,,,,604d728ad647066e76840d8a,62c5385b9a5d4f8d5af6d3ec,2022-07-06_09h23.30.294,Colour_Asymmetry_Pilot,2022.1.3,Win32,120.6272618,62c50e9c1127f2cd403a315f,0,139,139,58,1,twoone,,,,,,,,,,,,,,,,,,,,,,,,,,,,,,,,,,,,,,,,,,,,,,,,,,,,,,,,,,,,,,,,,,,,,,,,,,,,,,,,,,,,,,,,,,,,,,,,,,,,,,,,,,,,,,,,,,,,,,,,,,,,,,,,,,,,,,,,,,,,,,,,,,,,,,,,,,,
,,,,,,604d728ad647066e76840d8a,62c5385b9a5d4f8d5af6d3ec,2022-07-06_09h23.30.294,Colour_Asymmetry_Pilot,2022.1.3,Win32,120.6272618,62c50e9c1127f2cd403a315f,0,140,140,131,1,twofour,,,,,,,,,,,,,,,,,,,,,,,,,,,,,,,,,,,,,,,,,,,,,,,,,,,,,,,,,,,,,,,,,,,,,,,,,,,,,,,,,,,,,,,,,,,,,,,,,,,,,,,,,,,,,,,,,,,,,,,,,,,,,,,,,,,,,,,,,,,,,,,,,,,,,,,,,,,
,,,,,,604d728ad647066e76840d8a,62c5385b9a5d4f8d5af6d3ec,2022-07-06_09h23.30.294,Colour_Asymmetry_Pilot,2022.1.3,Win32,120.6272618,62c50e9c1127f2cd403a315f,0,141,141,92,1,threeone,,,,,,,,,,,,,,,,,,,,,,,,,,,,,,,,,,,,,,,,,,,,,,,,,,,,,,,,,,,,,,,,,,,,,,,,,,,,,,,,,,,,,,,,,,,,,,,,,,,,,,,,,,,,,,,,,,,,,,,,,,,,,,,,,,,,,,,,,,,,,,,,,,,,,,,,,,,
,,,,,,604d728ad647066e76840d8a,62c5385b9a5d4f8d5af6d3ec,2022-07-06_09h23.30.294,Colour_Asymmetry_Pilot,2022.1.3,Win32,120.6272618,62c50e9c1127f2cd403a315f,0,142,142,80,1,onetwo,,,,,,,,,,,,,,,,,,,,,,,,,,,,,,,,,,,,,,,,,,,,,,,,,,,,,,,,,,,,,,,,,,,,,,,,,,,,,,,,,,,,,,,,,,,,,,,,,,,,,,,,,,,,,,,,,,,,,,,,,,,,,,,,,,,,,,,,,,,,,,,,,,,,,,,,,,,
,,,,,,604d728ad647066e76840d8a,62c5385b9a5d4f8d5af6d3ec,2022-07-06_09h23.30.294,Colour_Asymmetry_Pilot,2022.1.3,Win32,120.6272618,62c50e9c1127f2cd403a315f,0,143,143,12,1,threeone,,,,,,,,,,,,,,,,,,,,,,,,,,,,,,,,,,,,,,,,,,,,,,,,,,,,,,,,,,,,,,,,,,,,,,,,,,,,,,,,,,,,,,,,,,,,,,,,,,,,,,,,,,,,,,,,,,,,,,,,,,,,,,,,,,,,,,,,,,,,,,,,,,,,,,,,,,,
,,,,,,604d728ad647066e76840d8a,62c5385b9a5d4f8d5af6d3ec,2022-07-06_09h23.30.294,Colour_Asymmetry_Pilot,2022.1.3,Win32,120.6272618,62c50e9c1127f2cd403a315f,0,144,144,35,1,twofour,,,,,,,,,,,,,,,,,,,,,,,,,,,,,,,,,,,,,,,,,,,,,,,,,,,,,,,,,,,,,,,,,,,,,,,,,,,,,,,,,,,,,,,,,,,,,,,,,,,,,,,,,,,,,,,,,,,,,,,,,,,,,,,,,,,,,,,,,,,,,,,,,,,,,,,,,,,
,,,,,,604d728ad647066e76840d8a,62c5385b9a5d4f8d5af6d3ec,2022-07-06_09h23.30.294,Colour_Asymmetry_Pilot,2022.1.3,Win32,120.6272618,62c50e9c1127f2cd403a315f,0,145,145,110,1,fourtwo,,,,,,,,,,,,,,,,,,,,,,,,,,,,,,,,,,,,,,,,,,,,,,,,,,,,,,,,,,,,,,,,,,,,,,,,,,,,,,,,,,,,,,,,,,,,,,,,,,,,,,,,,,,,,,,,,,,,,,,,,,,,,,,,,,,,,,,,,,,,,,,,,,,,,,,,,,,
,,,,,,604d728ad647066e76840d8a,62c5385b9a5d4f8d5af6d3ec,2022-07-06_09h23.30.294,Colour_Asymmetry_Pilot,2022.1.3,Win32,120.6272618,62c50e9c1127f2cd403a315f,0,146,146,82,1,twoone,,,,,,,,,,,,,,,,,,,,,,,,,,,,,,,,,,,,,,,,,,,,,,,,,,,,,,,,,,,,,,,,,,,,,,,,,,,,,,,,,,,,,,,,,,,,,,,,,,,,,,,,,,,,,,,,,,,,,,,,,,,,,,,,,,,,,,,,,,,,,,,,,,,,,,,,,,,
,,,,,,604d728ad647066e76840d8a,62c5385b9a5d4f8d5af6d3ec,2022-07-06_09h23.30.294,Colour_Asymmetry_Pilot,2022.1.3,Win32,120.6272618,62c50e9c1127f2cd403a315f,0,147,147,146,1,twoone,,,,,,,,,,,,,,,,,,,,,,,,,,,,,,,,,,,,,,,,,,,,,,,,,,,,,,,,,,,,,,,,,,,,,,,,,,,,,,,,,,,,,,,,,,,,,,,,,,,,,,,,,,,,,,,,,,,,,,,,,,,,,,,,,,,,,,,,,,,,,,,,,,,,,,,,,,,
,,,,,,604d728ad647066e76840d8a,62c5385b9a5d4f8d5af6d3ec,2022-07-06_09h23.30.294,Colour_Asymmetry_Pilot,2022.1.3,Win32,120.6272618,62c50e9c1127f2cd403a315f,0,148,148,97,1,onethree,,,,,,,,,,,,,,,,,,,,,,,,,,,,,,,,,,,,,,,,,,,,,,,,,,,,,,,,,,,,,,,,,,,,,,,,,,,,,,,,,,,,,,,,,,,,,,,,,,,,,,,,,,,,,,,,,,,,,,,,,,,,,,,,,,,,,,,,,,,,,,,,,,,,,,,,,,,
,,,,,,604d728ad647066e76840d8a,62c5385b9a5d4f8d5af6d3ec,2022-07-06_09h23.30.294,Colour_Asymmetry_Pilot,2022.1.3,Win32,120.6272618,62c50e9c1127f2cd403a315f,0,149,149,3,1,twofour,,,,,,,,,,,,,,,,,,,,,,,,,,,,,,,,,,,,,,,,,,,,,,,,,,,,,,,,,,,,,,,,,,,,,,,,,,,,,,,,,,,,,,,,,,,,,,,,,,,,,,,,,,,,,,,,,,,,,,,,,,,,,,,,,,,,,,,,,,,,,,,,,,,,,,,,,,,
,,,,,,604d728ad647066e76840d8a,62c5385b9a5d4f8d5af6d3ec,2022-07-06_09h23.30.294,Colour_Asymmetry_Pilot,2022.1.3,Win32,120.6272618,62c50e9c1127f2cd403a315f,0,150,150,9,1,onethree,,,,,,,,,,,,,,,,,,,,,,,,,,,,,,,,,,,,,,,,,,,,,,,,,,,,,,,,,,,,,,,,,,,,,,,,,,,,,,,,,,,,,,,,,,,,,,,,,,,,,,,,,,,,,,,,,,,,,,,,,,,,,,,,,,,,,,,,,,,,,,,,,,,,,,,,,,,
,,,,,,604d728ad647066e76840d8a,62c5385b9a5d4f8d5af6d3ec,2022-07-06_09h23.30.294,Colour_Asymmetry_Pilot,2022.1.3,Win32,120.6272618,62c50e9c1127f2cd403a315f,0,151,151,64,1,onetwo,,,,,,,,,,,,,,,,,,,,,,,,,,,,,,,,,,,,,,,,,,,,,,,,,,,,,,,,,,,,,,,,,,,,,,,,,,,,,,,,,,,,,,,,,,,,,,,,,,,,,,,,,,,,,,,,,,,,,,,,,,,,,,,,,,,,,,,,,,,,,,,,,,,,,,,,,,,
,,,,,,604d728ad647066e76840d8a,62c5385b9a5d4f8d5af6d3ec,2022-07-06_09h23.30.294,Colour_Asymmetry_Pilot,2022.1.3,Win32,120.6272618,62c50e9c1127f2cd403a315f,0,152,152,30,1,fourtwo,,,,,,,,,,,,,,,,,,,,,,,,,,,,,,,,,,,,,,,,,,,,,,,,,,,,,,,,,,,,,,,,,,,,,,,,,,,,,,,,,,,,,,,,,,,,,,,,,,,,,,,,,,,,,,,,,,,,,,,,,,,,,,,,,,,,,,,,,,,,,,,,,,,,,,,,,,,
,,,,,,604d728ad647066e76840d8a,62c5385b9a5d4f8d5af6d3ec,2022-07-06_09h23.30.294,Colour_Asymmetry_Pilot,2022.1.3,Win32,120.6272618,62c50e9c1127f2cd403a315f,0,153,153,50,1,twoone,,,,,,,,,,,,,,,,,,,,,,,,,,,,,,,,,,,,,,,,,,,,,,,,,,,,,,,,,,,,,,,,,,,,,,,,,,,,,,,,,,,,,,,,,,,,,,,,,,,,,,,,,,,,,,,,,,,,,,,,,,,,,,,,,,,,,,,,,,,,,,,,,,,,,,,,,,,
,,,,,,604d728ad647066e76840d8a,62c5385b9a5d4f8d5af6d3ec,2022-07-06_09h23.30.294,Colour_Asymmetry_Pilot,2022.1.3,Win32,120.6272618,62c50e9c1127f2cd403a315f,0,154,154,104,1,onetwo,,,,,,,,,,,,,,,,,,,,,,,,,,,,,,,,,,,,,,,,,,,,,,,,,,,,,,,,,,,,,,,,,,,,,,,,,,,,,,,,,,,,,,,,,,,,,,,,,,,,,,,,,,,,,,,,,,,,,,,,,,,,,,,,,,,,,,,,,,,,,,,,,,,,,,,,,,,
,,,,,,604d728ad647066e76840d8a,62c5385b9a5d4f8d5af6d3ec,2022-07-06_09h23.30.294,Colour_Asymmetry_Pilot,2022.1.3,Win32,120.6272618,62c50e9c1127f2cd403a315f,0,155,155,45,1,threefour,,,,,,,,,,,,,,,,,,,,,,,,,,,,,,,,,,,,,,,,,,,,,,,,,,,,,,,,,,,,,,,,,,,,,,,,,,,,,,,,,,,,,,,,,,,,,,,,,,,,,,,,,,,,,,,,,,,,,,,,,,,,,,,,,,,,,,,,,,,,,,,,,,,,,,,,,,,
,,,,,,604d728ad647066e76840d8a,62c5385b9a5d4f8d5af6d3ec,2022-07-06_09h23.30.294,Colour_Asymmetry_Pilot,2022.1.3,Win32,120.6272618,62c50e9c1127f2cd403a315f,0,156,156,114,1,twoone,,,,,,,,,,,,,,,,,,,,,,,,,,,,,,,,,,,,,,,,,,,,,,,,,,,,,,,,,,,,,,,,,,,,,,,,,,,,,,,,,,,,,,,,,,,,,,,,,,,,,,,,,,,,,,,,,,,,,,,,,,,,,,,,,,,,,,,,,,,,,,,,,,,,,,,,,,,
,,,,,,604d728ad647066e76840d8a,62c5385b9a5d4f8d5af6d3ec,2022-07-06_09h23.30.294,Colour_Asymmetry_Pilot,2022.1.3,Win32,120.6272618,62c50e9c1127f2cd403a315f,0,157,157,122,1,twoone,,,,,,,,,,,,,,,,,,,,,,,,,,,,,,,,,,,,,,,,,,,,,,,,,,,,,,,,,,,,,,,,,,,,,,,,,,,,,,,,,,,,,,,,,,,,,,,,,,,,,,,,,,,,,,,,,,,,,,,,,,,,,,,,,,,,,,,,,,,,,,,,,,,,,,,,,,,
,,,,,,604d728ad647066e76840d8a,62c5385b9a5d4f8d5af6d3ec,2022-07-06_09h23.30.294,Colour_Asymmetry_Pilot,2022.1.3,Win32,120.6272618,62c50e9c1127f2cd403a315f,0,158,158,20,1,threeone,,,,,,,,,,,,,,,,,,,,,,,,,,,,,,,,,,,,,,,,,,,,,,,,,,,,,,,,,,,,,,,,,,,,,,,,,,,,,,,,,,,,,,,,,,,,,,,,,,,,,,,,,,,,,,,,,,,,,,,,,,,,,,,,,,,,,,,,,,,,,,,,,,,,,,,,,,,
,,,,,,604d728ad647066e76840d8a,62c5385b9a5d4f8d5af6d3ec,2022-07-06_09h23.30.294,Colour_Asymmetry_Pilot,2022.1.3,Win32,120.6272618,62c50e9c1127f2cd403a315f,0,159,159,63,1,fourthree,,,,,,,,,,,,,,,,,,,,,,,,,,,,,,,,,,,,,,,,,,,,,,,,,,,,,,,,,,,,,,,,,,,,,,,,,,,,,,,,,,,,,,,,,,,,,,,,,,,,,,,,,,,,,,,,,,,,,,,,,,,,,,,,,,,,,,,,,,,,,,,,,,,,,,,,,,,
,,,,,,604d728ad647066e76840d8a,62c5385b9a5d4f8d5af6d3ec,2022-07-06_09h23.30.294,Colour_Asymmetry_Pilot,2022.1.3,Win32,120.6272618,62c50e9c1127f2cd403a315f,0,160,160,22,1,fourtwo,,,,,,,,,,,,,,,,,,,,,,,,,,,,,,,,,,,,,,,,,,,,,,,,,,,,,,,,,,,,,,,,,,,,,,,,,,,,,,,,,,,,,,,,,,,,,,,,,,,,,,,,,,,,,,,,,,,,,,,,,,,,,,,,,,,,,,,,,,,,,,,,,,,,,,,,,,,
,,,,,,604d728ad647066e76840d8a,62c5385b9a5d4f8d5af6d3ec,2022-07-06_09h23.30.294,Colour_Asymmetry_Pilot,2022.1.3,Win32,120.6272618,62c50e9c1127f2cd403a315f,0,161,161,137,1,onethree,,,,,,,,,,,,,,,,,,,,,,,,,,,,,,,,,,,,,,,,,,,,,,,,,,,,,,,,,,,,,,,,,,,,,,,,,,,,,,,,,,,,,,,,,,,,,,,,,,,,,,,,,,,,,,,,,,,,,,,,,,,,,,,,,,,,,,,,,,,,,,,,,,,,,,,,,,,
,,,,,,604d728ad647066e76840d8a,62c5385b9a5d4f8d5af6d3ec,2022-07-06_09h23.30.294,Colour_Asymmetry_Pilot,2022.1.3,Win32,120.6272618,62c50e9c1127f2cd403a315f,,,,,,,space,42.019,space,1.2554,space,29.5053,space,10.0751,space,2.7703,space,6.8969,"[0.37240000000000006,0.4980000000000002,-0.2864]",threeone,"[-0.5688,-0.08239999999999992,-0.1844]",1,7.8078,69,-127,1,0,0,response3disk_5,22,20,1,0,0,rectangle_8,22,20,1,0,0,1,22,20,1,0,0,0,0,0,0,1,,,,,,,,,,,,,,,,,,,,,,,,,,,,,,,,,,,,,,,,,,,,,,,,,,,,,,,,,,,,,,,,,,,,,,,,,,,,,,,,,,,,,,,,,,,,,,,,,,,,,,,,,,,,,,
,,,,,,604d728ad647066e76840d8a,62c5385b9a5d4f8d5af6d3ec,2022-07-06_09h23.30.294,Colour_Asymmetry_Pilot,2022.1.3,Win32,120.6272618,62c50e9c1127f2cd403a315f,,,,,,,,,,,,,,,,,,,"[-0.06680000000000008,-0.45100000000000007,-0.906]",twofour,"[-0.4276,0.0038000000000000256,-0.3256]",-2,2.9994,-107,-57,1,0,0,response5disk_5,-18,-6,1,0,0,rectangle_8,-18,-6,1,0,0,1,-18,-6,1,0,0,1,0,1,0,1,,,,,,,,,,,,,,,,,,,,,,,,,,,,,,,,,,,,,,,,,,,,,,,,,,,,,,,,,,,,,,,,,,,,,,,,,,,,,,,,,,,,,,,,,,,,,,,,,,,,,,,,,,,,,,
,,,,,,604d728ad647066e76840d8a,62c5385b9a5d4f8d5af6d3ec,2022-07-06_09h23.30.294,Colour_Asymmetry_Pilot,2022.1.3,Win32,120.6272618,62c50e9c1127f2cd403a315f,,,,,,,,,,,,,,,,,,,"[0.19199999999999995,0.18419999999999992,0.5136000000000001]",onetwo,"[-0.9844,-0.9688,-0.9922]",4,1.7414,104,113,1,0,0,response1disk_5,3,4,1,0,0,rectangle_8,72,101,1,0,0,1,-19,-4,1,0,0,2,0,2,0,1,response1disk_7,7,rectangle_4,,,,,,,,,,,,,,,,,,,,,,,,,,,,,,,,,,,,,,,,,,,,,,,,,,,,,,,,,,,,,,,,,,,,,,,,,,,,,,,,,,,,,,,,,,,,,,,,,,,,,,,,,,,
,,,,,,604d728ad647066e76840d8a,62c5385b9a5d4f8d5af6d3ec,2022-07-06_09h23.30.294,Colour_Asymmetry_Pilot,2022.1.3,Win32,120.6272618,62c50e9c1127f2cd403a315f,,,,,,,,,,,,,,,,,,,"[-0.24719999999999998,0.5213999999999999,-0.12959999999999994]",fourthree,"[-0.20799999999999996,-0.655,-0.01980000000000004]",-1,3.3913,-98,-132,1,0,0,response5disk_5,-28,6,1,0,0,rectangle_8,-28,6,1,0,0,1,-28,6,1,0,0,3,0,3,0,1,,,,,,,,,,,,,,,,,,,,,,,,,,,,,,,,,,,,,,,,,,,,,,,,,,,,,,,,,,,,,,,,,,,,,,,,,,,,,,,,,,,,,,,,,,,,,,,,,,,,,,,,,,,,,,
,,,,,,604d728ad647066e76840d8a,62c5385b9a5d4f8d5af6d3ec,2022-07-06_09h23.30.294,Colour_Asymmetry_Pilot,2022.1.3,Win32,120.6272618,62c50e9c1127f2cd403a315f,,,,,,,,,,,,,,,,,,,"[-0.26280000000000003,-0.4746,-0.2158]",threeone,"[-0.24719999999999998,0.5213999999999999,-0.12959999999999994]",-3,2.1746,-86,50,1,0,0,response7disk_5,7,4,1,0,0,rectangle_8,80,-114,1,0,0,1,17,-9,1,0,0,4,0,4,0,1,response3disk_7,4,rectangle_4,,,,,,,,,,,,,,,,,,,,,,,,,,,,,,,,,,,,,,,,,,,,,,,,,,,,,,,,,,,,,,,,,,,,,,,,,,,,,,,,,,,,,,,,,,,,,,,,,,,,,,,,,,,
,,,,,,604d728ad647066e76840d8a,62c5385b9a5d4f8d5af6d3ec,2022-07-06_09h23.30.294,Colour_Asymmetry_Pilot,2022.1.3,Win32,120.6272618,62c50e9c1127f2cd403a315f,,,,,,,,,,,,,,,,,,,"[0.18419999999999992,-0.4276,-0.404]",twofour,"[-0.9844,-0.9688,-0.9922]",1,3.8079,95,-103,1,0,0,response3disk_5,-18,12,1,0,0,rectangle_8,-18,12,1,0,0,1,-18,12,1,0,0,5,0,5,0,1,,,,,,,,,,,,,,,,,,,,,,,,,,,,,,,,,,,,,,,,,,,,,,,,,,,,,,,,,,,,,,,,,,,,,,,,,,,,,,,,,,,,,,,,,,,,,,,,,,,,,,,,,,,,,,
,,,,,,604d728ad647066e76840d8a,62c5385b9a5d4f8d5af6d3ec,2022-07-06_09h23.30.294,Colour_Asymmetry_Pilot,2022.1.3,Win32,120.6272618,62c50e9c1127f2cd403a315f,,,,,,,,,,,,,,,,,,,"[0.37240000000000006,0.4980000000000002,-0.2864]",twoone,"[0.23120000000000007,-0.7726,-0.34120000000000006]",4,3.8746,39,112,1,0,0,response1disk_5,-9,0,1,0,0,rectangle_8,-9,0,1,0,0,1,-9,0,1,0,0,6,0,6,0,1,,,,,,,,,,,,,,,,,,,,,,,,,,,,,,,,,,,,,,,,,,,,,,,,,,,,,,,,,,,,,,,,,,,,,,,,,,,,,,,,,,,,,,,,,,,,,,,,,,,,,,,,,,,,,,
,,,,,,604d728ad647066e76840d8a,62c5385b9a5d4f8d5af6d3ec,2022-07-06_09h23.30.294,Colour_Asymmetry_Pilot,2022.1.3,Win32,120.6272618,62c50e9c1127f2cd403a315f,,,,,,,,,,,,,,,,,,,,fourtwo,,-2,1.9581,,,,,,,,,,,,,,,,,,,,,,,,,,,,,,,,space,88.4922,"[-0.9688,-0.38039999999999996,-0.41979999999999995]","[0.796,0.2156,-0.27859999999999996]",-129,-60,1,0,0,response5disk,-20,-9,1,0,0,rectangle,-20,-9,1,0,0,,3,0.0038,0,-20,-9,1,0,0,0,0,0,103,1,22,second,,,,,,,,,,,,,,,,,,,,,,,,,,,,,,,,,,,,,,,,,,,,,,,,,,,,,,,,,,,,,,,,,,,,,,
,,,,,,604d728ad647066e76840d8a,62c5385b9a5d4f8d5af6d3ec,2022-07-06_09h23.30.294,Colour_Asymmetry_Pilot,2022.1.3,Win32,120.6272618,62c50e9c1127f2cd403a315f,,,,,,,,,,,,,,,,,,,,fourthree,,-2,1.7988,,,,,,,,,,,,,,,,,,,,,,,,,,,,,,,,,,"[-0.24719999999999998,0.5213999999999999,-0.12959999999999994]","[-0.050999999999999934,-0.6706000000000001,-0.804]",-107,-24,1,0,0,response5disk,-42,-14,1,0,0,rectangle,-42,-14,1,0,0,,3,0.0002,0,-42,-14,1,0,0,0,1,1,138,1,57,second,,,,,,,,,,,,,,,,,,,,,,,,,,,,,,,,,,,,,,,,,,,,,,,,,,,,,,,,,,,,,,,,,,,,,,
,,,,,,604d728ad647066e76840d8a,62c5385b9a5d4f8d5af6d3ec,2022-07-06_09h23.30.294,Colour_Asymmetry_Pilot,2022.1.3,Win32,120.6272618,62c50e9c1127f2cd403a315f,,,,,,,,,,,,,,,,,,,,onetwo,,2,1.1253,,,,,,,,,,,,,,,,,,,,,,,,,,,,,,,,,,"[-0.5452,-0.608,0.2470000000000001]","[-0.48240000000000005,0.3175999999999999,0.2156]",98,-53,1,0,0,response3disk,-3,13,1,0,0,rectangle,-3,13,1,0,0,,3,0.0002,0,-3,13,1,0,0,0,2,2,157,1,76,second,,,,,,,,,,,,,,,,,,,,,,,,,,,,,,,,,,,,,,,,,,,,,,,,,,,,,,,,,,,,,,,,,,,,,,
,,,,,,604d728ad647066e76840d8a,62c5385b9a5d4f8d5af6d3ec,2022-07-06_09h23.30.294,Colour_Asymmetry_Pilot,2022.1.3,Win32,120.6272618,62c50e9c1127f2cd403a315f,,,,,,,,,,,,,,,,,,,,fourthree,,1,1.0497,,,,,,,,,,,,,,,,,,,,,,,,,,,,,,,,,,"[0.3568,-0.20799999999999996,-0.9844]","[-0.2942,-0.7648,-0.7492000000000001]",56,-98,1,0,0,response3disk,7,3,1,0,0,rectangle,7,3,1,0,0,,3,0.0001,0,7,3,1,0,0,0,3,3,110,1,29,second,,,,,,,,,,,,,,,,,,,,,,,,,,,,,,,,,,,,,,,,,,,,,,,,,,,,,,,,,,,,,,,,,,,,,,
,,,,,,604d728ad647066e76840d8a,62c5385b9a5d4f8d5af6d3ec,2022-07-06_09h23.30.294,Colour_Asymmetry_Pilot,2022.1.3,Win32,120.6272618,62c50e9c1127f2cd403a315f,,,,,,,,,,,,,,,,,,,,threefour,,-2,0.8245,,,,,,,,,,,,,,,,,,,,,,,,,,,,,,,,,,"[0.7646000000000002,0.07440000000000002,0.2704]","[0.6625999999999999,0.4980000000000002,-0.357]",-109,-69,1,0,0,response5disk,-10,-2,1,0,0,rectangle,-10,-2,1,0,0,,2,0.0007,0,-10,-2,1,0,0,0,4,4,115,1,34,second,,,,,,,,,,,,,,,,,,,,,,,,,,,,,,,,,,,,,,,,,,,,,,,,,,,,,,,,,,,,,,,,,,,,,,
,,,,,,604d728ad647066e76840d8a,62c5385b9a5d4f8d5af6d3ec,2022-07-06_09h23.30.294,Colour_Asymmetry_Pilot,2022.1.3,Win32,120.6272618,62c50e9c1127f2cd403a315f,,,,,,,,,,,,,,,,,,,,onethree,,-4,0.5175,,,,,,,,,,,,,,,,,,,,,,,,,,,,,,,,,,"[-0.9688,-0.4902000000000001,-0.12159999999999993]","[0.7176,-0.906,-0.6864]",-63,145,1,0,0,response7disk,-11,8,1,0,0,rectangle,-11,8,1,0,0,,2,0,0,-11,8,1,0,0,0,5,5,23,1,23,first,,,,,,,,,,,,,,,,,,,,,,,,,,,,,,,,,,,,,,,,,,,,,,,,,,,,,,,,,,,,,,,,,,,,,,
,,,,,,604d728ad647066e76840d8a,62c5385b9a5d4f8d5af6d3ec,2022-07-06_09h23.30.294,Colour_Asymmetry_Pilot,2022.1.3,Win32,120.6272618,62c50e9c1127f2cd403a315f,,,,,,,,,,,,,,,,,,,,threefour,,1,1.7001,,,,,,,,,,,,,,,,,,,,,,,,,,,,,,,,,,"[-0.17659999999999998,0.3253999999999999,0.19999999999999996]","[0.37240000000000006,0.4980000000000002,-0.2864]",69,-123,1,0,0,response3disk,-10,1,1,0,0,rectangle,-10,1,1,0,0,,3,0.0005,0,-10,1,1,0,0,0,6,6,7,1,7,first,,,,,,,,,,,,,,,,,,,,,,,,,,,,,,,,,,,,,,,,,,,,,,,,,,,,,,,,,,,,,,,,,,,,,,
,,,,,,604d728ad647066e76840d8a,62c5385b9a5d4f8d5af6d3ec,2022-07-06_09h23.30.294,Colour_Asymmetry_Pilot,2022.1.3,Win32,120.6272618,62c50e9c1127f2cd403a315f,,,,,,,,,,,,,,,,,,,,threeone,,-2,0.7072,,,,,,,,,,,,,,,,,,,,,,,,,,,,,,,,,,"[-0.9688,-0.38039999999999996,-0.41979999999999995]","[0.8115999999999999,-0.0040000000000000036,-0.09819999999999995]",-91,-29,1,0,0,response5disk,-17,-14,1,0,0,rectangle,-17,-14,1,0,0,,3,0.0001,0,-17,-14,1,0,0,0,7,7,13,1,13,first,,,,,,,,,,,,,,,,,,,,,,,,,,,,,,,,,,,,,,,,,,,,,,,,,,,,,,,,,,,,,,,,,,,,,,
,,,,,,604d728ad647066e76840d8a,62c5385b9a5d4f8d5af6d3ec,2022-07-06_09h23.30.294,Colour_Asymmetry_Pilot,2022.1.3,Win32,120.6272618,62c50e9c1127f2cd403a315f,,,,,,,,,,,,,,,,,,,,fourthree,,-3,0.4497,,,,,,,,,,,,,,,,,,,,,,,,,,,,,,,,,,"[-0.4902000000000001,0.2704,-0.45899999999999996]","[0.8274000000000001,-0.5844,-0.9452]",-106,43,1,0,0,response7disk,29,-11,1,0,0,rectangle,29,-11,1,0,0,,3,0,0,29,-11,1,0,0,0,8,8,44,1,44,first,,,,,,,,,,,,,,,,,,,,,,,,,,,,,,,,,,,,,,,,,,,,,,,,,,,,,,,,,,,,,,,,,,,,,,
,,,,,,604d728ad647066e76840d8a,62c5385b9a5d4f8d5af6d3ec,2022-07-06_09h23.30.294,Colour_Asymmetry_Pilot,2022.1.3,Win32,120.6272618,62c50e9c1127f2cd403a315f,,,,,,,,,,,,,,,,,,,,threefour,,-2,0.9663,,,,,,,,,,,,,,,,,,,,,,,,,,,,,,,,,,"[0.3881999999999999,-0.23939999999999995,-0.05040000000000011]","[-0.06680000000000008,-0.45100000000000007,-0.906]",-107,-68,1,0,0,response5disk,-11,-15,1,0,0,rectangle,-11,-15,1,0,0,,2,0.0008,0,-11,-15,1,0,0,0,9,9,47,1,47,first,,,,,,,,,,,,,,,,,,,,,,,,,,,,,,,,,,,,,,,,,,,,,,,,,,,,,,,,,,,,,,,,,,,,,,
,,,,,,604d728ad647066e76840d8a,62c5385b9a5d4f8d5af6d3ec,2022-07-06_09h23.30.294,Colour_Asymmetry_Pilot,2022.1.3,Win32,120.6272618,62c50e9c1127f2cd403a315f,,,,,,,,,,,,,,,,,,,,threefour,,4,0.5334,,,,,,,,,,,,,,,,,,,,,,,,,,,,,,,,,,"[-0.17659999999999998,-0.2864,-0.8354]","[-0.17659999999999998,-0.2864,-0.8354]",53,132,1,0,0,response1disk,-6,11,1,0,0,rectangle,-6,11,1,0,0,,2,1E-04,0,-6,11,1,0,0,0,10,10,48,1,48,first,,,,,,,,,,,,,,,,,,,,,,,,,,,,,,,,,,,,,,,,,,,,,,,,,,,,,,,,,,,,,,,,,,,,,,
,,,,,,604d728ad647066e76840d8a,62c5385b9a5d4f8d5af6d3ec,2022-07-06_09h23.30.294,Colour_Asymmetry_Pilot,2022.1.3,Win32,120.6272618,62c50e9c1127f2cd403a315f,,,,,,,,,,,,,,,,,,,,onetwo,,4,0.308,,,,,,,,,,,,,,,,,,,,,,,,,,,,,,,,,,"[0.9763999999999999,0.8588,-0.05900000000000005]","[0.9842,0.7409999999999999,-0.6628000000000001]",71,105,1,0,0,response1disk,6,-6,1,0,0,rectangle,6,-6,1,0,0,,1,0.0006,0,6,-6,1,0,0,0,11,11,141,1,60,second,,,,,,,,,,,,,,,,,,,,,,,,,,,,,,,,,,,,,,,,,,,,,,,,,,,,,,,,,,,,,,,,,,,,,,
,,,,,,604d728ad647066e76840d8a,62c5385b9a5d4f8d5af6d3ec,2022-07-06_09h23.30.294,Colour_Asymmetry_Pilot,2022.1.3,Win32,120.6272618,62c50e9c1127f2cd403a315f,,,,,,,,,,,,,,,,,,,,threefour,,1,1.1916,,,,,,,,,,,,,,,,,,,,,,,,,,,,,,,,,,"[-0.4902000000000001,0.2704,-0.45899999999999996]","[0.9213999999999998,0.6391999999999998,-0.9922]",54,-98,1,0,0,response3disk,1,5,1,0,0,rectangle,1,5,1,0,0,,3,0.0007,0,1,5,1,0,0,0,12,12,67,1,67,first,,,,,,,,,,,,,,,,,,,,,,,,,,,,,,,,,,,,,,,,,,,,,,,,,,,,,,,,,,,,,,,,,,,,,,
,,,,,,604d728ad647066e76840d8a,62c5385b9a5d4f8d5af6d3ec,2022-07-06_09h23.30.294,Colour_Asymmetry_Pilot,2022.1.3,Win32,120.6272618,62c50e9c1127f2cd403a315f,,,,,,,,,,,,,,,,,,,,threeone,,-1,0.6831,,,,,,,,,,,,,,,,,,,,,,,,,,,,,,,,,,"[0.23120000000000007,-0.7726,-0.34120000000000006]","[0.0351999999999999,0.41159999999999997,0.0038000000000000256]",-44,-107,1,0,0,response5disk,-18,-21,1,0,0,rectangle,-18,-21,1,0,0,,1,0.0009,0,-18,-21,1,0,0,0,13,13,49,1,49,first,,,,,,,,,,,,,,,,,,,,,,,,,,,,,,,,,,,,,,,,,,,,,,,,,,,,,,,,,,,,,,,,,,,,,,
,,,,,,604d728ad647066e76840d8a,62c5385b9a5d4f8d5af6d3ec,2022-07-06_09h23.30.294,Colour_Asymmetry_Pilot,2022.1.3,Win32,120.6272618,62c50e9c1127f2cd403a315f,,,,,,,,,,,,,,,,,,,,twoone,,-2,0.5588,,,,,,,,,,,,,,,,,,,,,,,,,,,,,,,,,,"[0.40379999999999994,0.09000000000000008,0.44300000000000006]","[0.34099999999999997,0.5841999999999998,-0.9844]",-88,-81,1,0,0,response5disk,9,5,1,0,0,rectangle,9,5,1,0,0,,1,0.0002,0,9,5,1,0,0,0,14,14,45,1,45,first,,,,,,,,,,,,,,,,,,,,,,,,,,,,,,,,,,,,,,,,,,,,,,,,,,,,,,,,,,,,,,,,,,,,,,
,,,,,,604d728ad647066e76840d8a,62c5385b9a5d4f8d5af6d3ec,2022-07-06_09h23.30.294,Colour_Asymmetry_Pilot,2022.1.3,Win32,120.6272618,62c50e9c1127f2cd403a315f,,,,,,,,,,,,,,,,,,,,twofour,,-2,0.6998,,,,,,,,,,,,,,,,,,,,,,,,,,,,,,,,,,"[-0.48240000000000005,0.3175999999999999,0.2156]","[0.8274000000000001,-0.5844,-0.9452]",-95,-45,1,0,0,response5disk,-21,-5,1,0,0,rectangle,-21,-5,1,0,0,,3,0.0006,0,-21,-5,1,0,0,0,15,15,82,1,1,second,,,,,,,,,,,,,,,,,,,,,,,,,,,,,,,,,,,,,,,,,,,,,,,,,,,,,,,,,,,,,,,,,,,,,,
,,,,,,604d728ad647066e76840d8a,62c5385b9a5d4f8d5af6d3ec,2022-07-06_09h23.30.294,Colour_Asymmetry_Pilot,2022.1.3,Win32,120.6272618,62c50e9c1127f2cd403a315f,,,,,,,,,,,,,,,,,,,,fourthree,,-1,0.5996,,,,,,,,,,,,,,,,,,,,,,,,,,,,,,,,,,"[0.9213999999999998,0.6391999999999998,-0.9922]","[-0.4902000000000001,0.2704,-0.45899999999999996]",-34,-89,1,0,0,response5disk,1,11,1,0,0,rectangle,1,11,1,0,0,,3,0.0004,0,1,11,1,0,0,0,16,16,148,1,67,second,,,,,,,,,,,,,,,,,,,,,,,,,,,,,,,,,,,,,,,,,,,,,,,,,,,,,,,,,,,,,,,,,,,,,,
,,,,,,604d728ad647066e76840d8a,62c5385b9a5d4f8d5af6d3ec,2022-07-06_09h23.30.294,Colour_Asymmetry_Pilot,2022.1.3,Win32,120.6272618,62c50e9c1127f2cd403a315f,,,,,,,,,,,,,,,,,,,,twoone,,1,0.3751,,,,,,,,,,,,,,,,,,,,,,,,,,,,,,,,,,"[0.7802,-0.23140000000000005,-0.20799999999999996]","[0.9686000000000001,0.5763999999999998,0.11359999999999992]",53,-82,1,0,0,response3disk,24,-10,1,0,0,rectangle,24,-10,1,0,0,,3,0.0003,0,24,-10,1,0,0,0,17,17,39,1,39,first,,,,,,,,,,,,,,,,,,,,,,,,,,,,,,,,,,,,,,,,,,,,,,,,,,,,,,,,,,,,,,,,,,,,,,
,,,,,,604d728ad647066e76840d8a,62c5385b9a5d4f8d5af6d3ec,2022-07-06_09h23.30.294,Colour_Asymmetry_Pilot,2022.1.3,Win32,120.6272618,62c50e9c1127f2cd403a315f,,,,,,,,,,,,,,,,,,,,fourtwo,,-2,0.4998,,,,,,,,,,,,,,,,,,,,,,,,,,,,,,,,,,"[0.9763999999999999,0.30979999999999985,-0.6786]","[0.0351999999999999,0.41159999999999997,0.0038000000000000256]",-94,-47,1,0,0,response5disk,-26,12,1,0,0,rectangle,-26,12,1,0,0,,2,0.0009,0,-26,12,1,0,0,0,18,18,145,1,64,second,,,,,,,,,,,,,,,,,,,,,,,,,,,,,,,,,,,,,,,,,,,,,,,,,,,,,,,,,,,,,,,,,,,,,,
