trials.thisRepN,trials.thisTrialN,trials.thisN,trials.thisIndex,trials.ran,Colourcodes,participant,session,date,expName,psychopyVersion,OS,frameRate,study_id,trials_4.thisRepN,trials_4.thisTrialN,trials_4.thisN,trials_4.thisIndex,trials_4.ran,StimulusPos,key_resp.keys,key_resp.rt,key_resp_2.keys,key_resp_2.rt,key_resp_15.keys,key_resp_15.rt,key_resp_17.keys,key_resp_17.rt,key_resp_9.keys,key_resp_9.rt,key_resp_10.keys,key_resp_10.rt,Circle1_col,Ecc,Circle2_col,similarity,response_time,mouse_5.x,mouse_5.y,mouse_5.leftButton,mouse_5.midButton,mouse_5.rightButton,mouse_5.clicked_name,mouse_10.x,mouse_10.y,mouse_10.leftButton,mouse_10.midButton,mouse_10.rightButton,mouse_10.clicked_name,mouse_7.x,mouse_7.y,mouse_7.leftButton,mouse_7.midButton,mouse_7.rightButton,catchnumberprac,mouse_6.x,mouse_6.y,mouse_6.leftButton,mouse_6.midButton,mouse_6.rightButton,duringprac.thisRepN,duringprac.thisTrialN,duringprac.thisN,duringprac.thisIndex,duringprac.ran,mouse_7.clicked_name,catchprac,mouse_6.clicked_name,key_resp_22.keys,key_resp_22.rt,Circle1_colour,Circle2_colour,mouse.x,mouse.y,mouse.leftButton,mouse.midButton,mouse.rightButton,mouse.clicked_name,mouse_2.x,mouse_2.y,mouse_2.leftButton,mouse_2.midButton,mouse_2.rightButton,mouse_2.clicked_name,mouse_3.x,mouse_3.y,mouse_3.leftButton,mouse_3.midButton,mouse_3.rightButton,catchresponse,catchnumber,response_time_catch,Catch,mouse_11.x,mouse_11.y,mouse_11.leftButton,mouse_11.midButton,mouse_11.rightButton,trials_2.thisRepN,trials_2.thisTrialN,trials_2.thisN,trials_2.thisIndex,trials_2.ran,Colourpair,Temporder,mouse_3.clicked_name,mouse_11.clicked_name,trials_3.thisRepN,trials_3.thisTrialN,trials_3.thisN,trials_3.thisIndex,trials_3.ran,key_resp_instr_Ishi.keys,key_resp_instr_Ishi.rt,Ishi_trial_keyresp.keys,Ishi_trial_keyresp.rt,Ishi_textbox.text,Ishi_mouse.x,Ishi_mouse.y,Ishi_mouse.leftButton,Ishi_mouse.midButton,Ishi_mouse.rightButton,Ishi_loop.thisRepN,Ishi_loop.thisTrialN,Ishi_loop.thisN,Ishi_loop.thisIndex,Ishi_loop.ran,imageaddress,Ishi_mouse.clicked_name,textbox.text,mouse_4.x,mouse_4.y,mouse_4.leftButton,mouse_4.midButton,mouse_4.rightButton,mouse_4.clicked_name,textbox_2.text,mouse_8.x,mouse_8.y,mouse_8.leftButton,mouse_8.midButton,mouse_8.rightButton,mouse_8.clicked_name,textbox_3.text,mouse_9.x,mouse_9.y,mouse_9.leftButton,mouse_9.midButton,mouse_9.rightButton,mouse_9.clicked_name,textbox_4.text,mouse_12.x,mouse_12.y,mouse_12.leftButton,mouse_12.midButton,mouse_12.rightButton,mouse_12.clicked_name,textbox_5.text,mouse_13.x,mouse_13.y,mouse_13.leftButton,mouse_13.midButton,mouse_13.rightButton,mouse_13.clicked_name,textbox_6.text,mouse_14.x,mouse_14.y,mouse_14.leftButton,mouse_14.midButton,mouse_14.rightButton,mouse_14.clicked_name,textbox_7.text,mouse_15.x,mouse_15.y,mouse_15.leftButton,mouse_15.midButton,mouse_15.rightButton,mouse_15.clicked_name
0,0,0,35,1,,606b0c7e02dae1504090f77c,62c5387930da34237653c7e3,2022-07-06_09h23.58.413,Colour_Asymmetry_Pilot,2022.1.3,Win32,61.36851795,62c50e9c1127f2cd403a315f,,,,,,,,,,,,,,,,,,,,,,,,,,,,,,,,,,,,,,,,,,,,,,,,,,,,,,,,,,,,,,,,,,,,,,,,,,,,,,,,,,,,,,,,,,,,,,,,,,,,,,,,,,,,,,,,,,,,,,,,,,,,,,,,,,,,,,,,,,,,,,,,,,,,,,,,,,,,,,,,,,,,
0,1,1,23,1,,606b0c7e02dae1504090f77c,62c5387930da34237653c7e3,2022-07-06_09h23.58.413,Colour_Asymmetry_Pilot,2022.1.3,Win32,61.36851795,62c50e9c1127f2cd403a315f,,,,,,,,,,,,,,,,,,,,,,,,,,,,,,,,,,,,,,,,,,,,,,,,,,,,,,,,,,,,,,,,,,,,,,,,,,,,,,,,,,,,,,,,,,,,,,,,,,,,,,,,,,,,,,,,,,,,,,,,,,,,,,,,,,,,,,,,,,,,,,,,,,,,,,,,,,,,,,,,,,,,
0,2,2,13,1,,606b0c7e02dae1504090f77c,62c5387930da34237653c7e3,2022-07-06_09h23.58.413,Colour_Asymmetry_Pilot,2022.1.3,Win32,61.36851795,62c50e9c1127f2cd403a315f,,,,,,,,,,,,,,,,,,,,,,,,,,,,,,,,,,,,,,,,,,,,,,,,,,,,,,,,,,,,,,,,,,,,,,,,,,,,,,,,,,,,,,,,,,,,,,,,,,,,,,,,,,,,,,,,,,,,,,,,,,,,,,,,,,,,,,,,,,,,,,,,,,,,,,,,,,,,,,,,,,,,
0,3,3,7,1,,606b0c7e02dae1504090f77c,62c5387930da34237653c7e3,2022-07-06_09h23.58.413,Colour_Asymmetry_Pilot,2022.1.3,Win32,61.36851795,62c50e9c1127f2cd403a315f,,,,,,,,,,,,,,,,,,,,,,,,,,,,,,,,,,,,,,,,,,,,,,,,,,,,,,,,,,,,,,,,,,,,,,,,,,,,,,,,,,,,,,,,,,,,,,,,,,,,,,,,,,,,,,,,,,,,,,,,,,,,,,,,,,,,,,,,,,,,,,,,,,,,,,,,,,,,,,,,,,,,
0,4,4,5,1,,606b0c7e02dae1504090f77c,62c5387930da34237653c7e3,2022-07-06_09h23.58.413,Colour_Asymmetry_Pilot,2022.1.3,Win32,61.36851795,62c50e9c1127f2cd403a315f,,,,,,,,,,,,,,,,,,,,,,,,,,,,,,,,,,,,,,,,,,,,,,,,,,,,,,,,,,,,,,,,,,,,,,,,,,,,,,,,,,,,,,,,,,,,,,,,,,,,,,,,,,,,,,,,,,,,,,,,,,,,,,,,,,,,,,,,,,,,,,,,,,,,,,,,,,,,,,,,,,,,
0,5,5,3,1,,606b0c7e02dae1504090f77c,62c5387930da34237653c7e3,2022-07-06_09h23.58.413,Colour_Asymmetry_Pilot,2022.1.3,Win32,61.36851795,62c50e9c1127f2cd403a315f,,,,,,,,,,,,,,,,,,,,,,,,,,,,,,,,,,,,,,,,,,,,,,,,,,,,,,,,,,,,,,,,,,,,,,,,,,,,,,,,,,,,,,,,,,,,,,,,,,,,,,,,,,,,,,,,,,,,,,,,,,,,,,,,,,,,,,,,,,,,,,,,,,,,,,,,,,,,,,,,,,,,
0,6,6,36,1,,606b0c7e02dae1504090f77c,62c5387930da34237653c7e3,2022-07-06_09h23.58.413,Colour_Asymmetry_Pilot,2022.1.3,Win32,61.36851795,62c50e9c1127f2cd403a315f,,,,,,,,,,,,,,,,,,,,,,,,,,,,,,,,,,,,,,,,,,,,,,,,,,,,,,,,,,,,,,,,,,,,,,,,,,,,,,,,,,,,,,,,,,,,,,,,,,,,,,,,,,,,,,,,,,,,,,,,,,,,,,,,,,,,,,,,,,,,,,,,,,,,,,,,,,,,,,,,,,,,
0,7,7,67,1,,606b0c7e02dae1504090f77c,62c5387930da34237653c7e3,2022-07-06_09h23.58.413,Colour_Asymmetry_Pilot,2022.1.3,Win32,61.36851795,62c50e9c1127f2cd403a315f,,,,,,,,,,,,,,,,,,,,,,,,,,,,,,,,,,,,,,,,,,,,,,,,,,,,,,,,,,,,,,,,,,,,,,,,,,,,,,,,,,,,,,,,,,,,,,,,,,,,,,,,,,,,,,,,,,,,,,,,,,,,,,,,,,,,,,,,,,,,,,,,,,,,,,,,,,,,,,,,,,,,
0,8,8,72,1,,606b0c7e02dae1504090f77c,62c5387930da34237653c7e3,2022-07-06_09h23.58.413,Colour_Asymmetry_Pilot,2022.1.3,Win32,61.36851795,62c50e9c1127f2cd403a315f,,,,,,,,,,,,,,,,,,,,,,,,,,,,,,,,,,,,,,,,,,,,,,,,,,,,,,,,,,,,,,,,,,,,,,,,,,,,,,,,,,,,,,,,,,,,,,,,,,,,,,,,,,,,,,,,,,,,,,,,,,,,,,,,,,,,,,,,,,,,,,,,,,,,,,,,,,,,,,,,,,,,
0,9,9,90,1,,606b0c7e02dae1504090f77c,62c5387930da34237653c7e3,2022-07-06_09h23.58.413,Colour_Asymmetry_Pilot,2022.1.3,Win32,61.36851795,62c50e9c1127f2cd403a315f,,,,,,,,,,,,,,,,,,,,,,,,,,,,,,,,,,,,,,,,,,,,,,,,,,,,,,,,,,,,,,,,,,,,,,,,,,,,,,,,,,,,,,,,,,,,,,,,,,,,,,,,,,,,,,,,,,,,,,,,,,,,,,,,,,,,,,,,,,,,,,,,,,,,,,,,,,,,,,,,,,,,
0,10,10,44,1,,606b0c7e02dae1504090f77c,62c5387930da34237653c7e3,2022-07-06_09h23.58.413,Colour_Asymmetry_Pilot,2022.1.3,Win32,61.36851795,62c50e9c1127f2cd403a315f,,,,,,,,,,,,,,,,,,,,,,,,,,,,,,,,,,,,,,,,,,,,,,,,,,,,,,,,,,,,,,,,,,,,,,,,,,,,,,,,,,,,,,,,,,,,,,,,,,,,,,,,,,,,,,,,,,,,,,,,,,,,,,,,,,,,,,,,,,,,,,,,,,,,,,,,,,,,,,,,,,,,
0,11,11,85,1,,606b0c7e02dae1504090f77c,62c5387930da34237653c7e3,2022-07-06_09h23.58.413,Colour_Asymmetry_Pilot,2022.1.3,Win32,61.36851795,62c50e9c1127f2cd403a315f,,,,,,,,,,,,,,,,,,,,,,,,,,,,,,,,,,,,,,,,,,,,,,,,,,,,,,,,,,,,,,,,,,,,,,,,,,,,,,,,,,,,,,,,,,,,,,,,,,,,,,,,,,,,,,,,,,,,,,,,,,,,,,,,,,,,,,,,,,,,,,,,,,,,,,,,,,,,,,,,,,,,
0,12,12,53,1,,606b0c7e02dae1504090f77c,62c5387930da34237653c7e3,2022-07-06_09h23.58.413,Colour_Asymmetry_Pilot,2022.1.3,Win32,61.36851795,62c50e9c1127f2cd403a315f,,,,,,,,,,,,,,,,,,,,,,,,,,,,,,,,,,,,,,,,,,,,,,,,,,,,,,,,,,,,,,,,,,,,,,,,,,,,,,,,,,,,,,,,,,,,,,,,,,,,,,,,,,,,,,,,,,,,,,,,,,,,,,,,,,,,,,,,,,,,,,,,,,,,,,,,,,,,,,,,,,,,
0,13,13,68,1,,606b0c7e02dae1504090f77c,62c5387930da34237653c7e3,2022-07-06_09h23.58.413,Colour_Asymmetry_Pilot,2022.1.3,Win32,61.36851795,62c50e9c1127f2cd403a315f,,,,,,,,,,,,,,,,,,,,,,,,,,,,,,,,,,,,,,,,,,,,,,,,,,,,,,,,,,,,,,,,,,,,,,,,,,,,,,,,,,,,,,,,,,,,,,,,,,,,,,,,,,,,,,,,,,,,,,,,,,,,,,,,,,,,,,,,,,,,,,,,,,,,,,,,,,,,,,,,,,,,
0,14,14,9,1,,606b0c7e02dae1504090f77c,62c5387930da34237653c7e3,2022-07-06_09h23.58.413,Colour_Asymmetry_Pilot,2022.1.3,Win32,61.36851795,62c50e9c1127f2cd403a315f,,,,,,,,,,,,,,,,,,,,,,,,,,,,,,,,,,,,,,,,,,,,,,,,,,,,,,,,,,,,,,,,,,,,,,,,,,,,,,,,,,,,,,,,,,,,,,,,,,,,,,,,,,,,,,,,,,,,,,,,,,,,,,,,,,,,,,,,,,,,,,,,,,,,,,,,,,,,,,,,,,,,
0,15,15,50,1,,606b0c7e02dae1504090f77c,62c5387930da34237653c7e3,2022-07-06_09h23.58.413,Colour_Asymmetry_Pilot,2022.1.3,Win32,61.36851795,62c50e9c1127f2cd403a315f,,,,,,,,,,,,,,,,,,,,,,,,,,,,,,,,,,,,,,,,,,,,,,,,,,,,,,,,,,,,,,,,,,,,,,,,,,,,,,,,,,,,,,,,,,,,,,,,,,,,,,,,,,,,,,,,,,,,,,,,,,,,,,,,,,,,,,,,,,,,,,,,,,,,,,,,,,,,,,,,,,,,
0,16,16,55,1,,606b0c7e02dae1504090f77c,62c5387930da34237653c7e3,2022-07-06_09h23.58.413,Colour_Asymmetry_Pilot,2022.1.3,Win32,61.36851795,62c50e9c1127f2cd403a315f,,,,,,,,,,,,,,,,,,,,,,,,,,,,,,,,,,,,,,,,,,,,,,,,,,,,,,,,,,,,,,,,,,,,,,,,,,,,,,,,,,,,,,,,,,,,,,,,,,,,,,,,,,,,,,,,,,,,,,,,,,,,,,,,,,,,,,,,,,,,,,,,,,,,,,,,,,,,,,,,,,,,
0,17,17,28,1,,606b0c7e02dae1504090f77c,62c5387930da34237653c7e3,2022-07-06_09h23.58.413,Colour_Asymmetry_Pilot,2022.1.3,Win32,61.36851795,62c50e9c1127f2cd403a315f,,,,,,,,,,,,,,,,,,,,,,,,,,,,,,,,,,,,,,,,,,,,,,,,,,,,,,,,,,,,,,,,,,,,,,,,,,,,,,,,,,,,,,,,,,,,,,,,,,,,,,,,,,,,,,,,,,,,,,,,,,,,,,,,,,,,,,,,,,,,,,,,,,,,,,,,,,,,,,,,,,,,
0,18,18,74,1,,606b0c7e02dae1504090f77c,62c5387930da34237653c7e3,2022-07-06_09h23.58.413,Colour_Asymmetry_Pilot,2022.1.3,Win32,61.36851795,62c50e9c1127f2cd403a315f,,,,,,,,,,,,,,,,,,,,,,,,,,,,,,,,,,,,,,,,,,,,,,,,,,,,,,,,,,,,,,,,,,,,,,,,,,,,,,,,,,,,,,,,,,,,,,,,,,,,,,,,,,,,,,,,,,,,,,,,,,,,,,,,,,,,,,,,,,,,,,,,,,,,,,,,,,,,,,,,,,,,
0,19,19,70,1,,606b0c7e02dae1504090f77c,62c5387930da34237653c7e3,2022-07-06_09h23.58.413,Colour_Asymmetry_Pilot,2022.1.3,Win32,61.36851795,62c50e9c1127f2cd403a315f,,,,,,,,,,,,,,,,,,,,,,,,,,,,,,,,,,,,,,,,,,,,,,,,,,,,,,,,,,,,,,,,,,,,,,,,,,,,,,,,,,,,,,,,,,,,,,,,,,,,,,,,,,,,,,,,,,,,,,,,,,,,,,,,,,,,,,,,,,,,,,,,,,,,,,,,,,,,,,,,,,,,
0,20,20,12,1,,606b0c7e02dae1504090f77c,62c5387930da34237653c7e3,2022-07-06_09h23.58.413,Colour_Asymmetry_Pilot,2022.1.3,Win32,61.36851795,62c50e9c1127f2cd403a315f,,,,,,,,,,,,,,,,,,,,,,,,,,,,,,,,,,,,,,,,,,,,,,,,,,,,,,,,,,,,,,,,,,,,,,,,,,,,,,,,,,,,,,,,,,,,,,,,,,,,,,,,,,,,,,,,,,,,,,,,,,,,,,,,,,,,,,,,,,,,,,,,,,,,,,,,,,,,,,,,,,,,
0,21,21,62,1,,606b0c7e02dae1504090f77c,62c5387930da34237653c7e3,2022-07-06_09h23.58.413,Colour_Asymmetry_Pilot,2022.1.3,Win32,61.36851795,62c50e9c1127f2cd403a315f,,,,,,,,,,,,,,,,,,,,,,,,,,,,,,,,,,,,,,,,,,,,,,,,,,,,,,,,,,,,,,,,,,,,,,,,,,,,,,,,,,,,,,,,,,,,,,,,,,,,,,,,,,,,,,,,,,,,,,,,,,,,,,,,,,,,,,,,,,,,,,,,,,,,,,,,,,,,,,,,,,,,
0,22,22,73,1,,606b0c7e02dae1504090f77c,62c5387930da34237653c7e3,2022-07-06_09h23.58.413,Colour_Asymmetry_Pilot,2022.1.3,Win32,61.36851795,62c50e9c1127f2cd403a315f,,,,,,,,,,,,,,,,,,,,,,,,,,,,,,,,,,,,,,,,,,,,,,,,,,,,,,,,,,,,,,,,,,,,,,,,,,,,,,,,,,,,,,,,,,,,,,,,,,,,,,,,,,,,,,,,,,,,,,,,,,,,,,,,,,,,,,,,,,,,,,,,,,,,,,,,,,,,,,,,,,,,
0,23,23,30,1,,606b0c7e02dae1504090f77c,62c5387930da34237653c7e3,2022-07-06_09h23.58.413,Colour_Asymmetry_Pilot,2022.1.3,Win32,61.36851795,62c50e9c1127f2cd403a315f,,,,,,,,,,,,,,,,,,,,,,,,,,,,,,,,,,,,,,,,,,,,,,,,,,,,,,,,,,,,,,,,,,,,,,,,,,,,,,,,,,,,,,,,,,,,,,,,,,,,,,,,,,,,,,,,,,,,,,,,,,,,,,,,,,,,,,,,,,,,,,,,,,,,,,,,,,,,,,,,,,,,
0,24,24,89,1,,606b0c7e02dae1504090f77c,62c5387930da34237653c7e3,2022-07-06_09h23.58.413,Colour_Asymmetry_Pilot,2022.1.3,Win32,61.36851795,62c50e9c1127f2cd403a315f,,,,,,,,,,,,,,,,,,,,,,,,,,,,,,,,,,,,,,,,,,,,,,,,,,,,,,,,,,,,,,,,,,,,,,,,,,,,,,,,,,,,,,,,,,,,,,,,,,,,,,,,,,,,,,,,,,,,,,,,,,,,,,,,,,,,,,,,,,,,,,,,,,,,,,,,,,,,,,,,,,,,
0,25,25,47,1,,606b0c7e02dae1504090f77c,62c5387930da34237653c7e3,2022-07-06_09h23.58.413,Colour_Asymmetry_Pilot,2022.1.3,Win32,61.36851795,62c50e9c1127f2cd403a315f,,,,,,,,,,,,,,,,,,,,,,,,,,,,,,,,,,,,,,,,,,,,,,,,,,,,,,,,,,,,,,,,,,,,,,,,,,,,,,,,,,,,,,,,,,,,,,,,,,,,,,,,,,,,,,,,,,,,,,,,,,,,,,,,,,,,,,,,,,,,,,,,,,,,,,,,,,,,,,,,,,,,
0,26,26,56,1,,606b0c7e02dae1504090f77c,62c5387930da34237653c7e3,2022-07-06_09h23.58.413,Colour_Asymmetry_Pilot,2022.1.3,Win32,61.36851795,62c50e9c1127f2cd403a315f,,,,,,,,,,,,,,,,,,,,,,,,,,,,,,,,,,,,,,,,,,,,,,,,,,,,,,,,,,,,,,,,,,,,,,,,,,,,,,,,,,,,,,,,,,,,,,,,,,,,,,,,,,,,,,,,,,,,,,,,,,,,,,,,,,,,,,,,,,,,,,,,,,,,,,,,,,,,,,,,,,,,
0,27,27,57,1,,606b0c7e02dae1504090f77c,62c5387930da34237653c7e3,2022-07-06_09h23.58.413,Colour_Asymmetry_Pilot,2022.1.3,Win32,61.36851795,62c50e9c1127f2cd403a315f,,,,,,,,,,,,,,,,,,,,,,,,,,,,,,,,,,,,,,,,,,,,,,,,,,,,,,,,,,,,,,,,,,,,,,,,,,,,,,,,,,,,,,,,,,,,,,,,,,,,,,,,,,,,,,,,,,,,,,,,,,,,,,,,,,,,,,,,,,,,,,,,,,,,,,,,,,,,,,,,,,,,
0,28,28,38,1,,606b0c7e02dae1504090f77c,62c5387930da34237653c7e3,2022-07-06_09h23.58.413,Colour_Asymmetry_Pilot,2022.1.3,Win32,61.36851795,62c50e9c1127f2cd403a315f,,,,,,,,,,,,,,,,,,,,,,,,,,,,,,,,,,,,,,,,,,,,,,,,,,,,,,,,,,,,,,,,,,,,,,,,,,,,,,,,,,,,,,,,,,,,,,,,,,,,,,,,,,,,,,,,,,,,,,,,,,,,,,,,,,,,,,,,,,,,,,,,,,,,,,,,,,,,,,,,,,,,
0,29,29,59,1,,606b0c7e02dae1504090f77c,62c5387930da34237653c7e3,2022-07-06_09h23.58.413,Colour_Asymmetry_Pilot,2022.1.3,Win32,61.36851795,62c50e9c1127f2cd403a315f,,,,,,,,,,,,,,,,,,,,,,,,,,,,,,,,,,,,,,,,,,,,,,,,,,,,,,,,,,,,,,,,,,,,,,,,,,,,,,,,,,,,,,,,,,,,,,,,,,,,,,,,,,,,,,,,,,,,,,,,,,,,,,,,,,,,,,,,,,,,,,,,,,,,,,,,,,,,,,,,,,,,
0,30,30,82,1,,606b0c7e02dae1504090f77c,62c5387930da34237653c7e3,2022-07-06_09h23.58.413,Colour_Asymmetry_Pilot,2022.1.3,Win32,61.36851795,62c50e9c1127f2cd403a315f,,,,,,,,,,,,,,,,,,,,,,,,,,,,,,,,,,,,,,,,,,,,,,,,,,,,,,,,,,,,,,,,,,,,,,,,,,,,,,,,,,,,,,,,,,,,,,,,,,,,,,,,,,,,,,,,,,,,,,,,,,,,,,,,,,,,,,,,,,,,,,,,,,,,,,,,,,,,,,,,,,,,
0,31,31,4,1,,606b0c7e02dae1504090f77c,62c5387930da34237653c7e3,2022-07-06_09h23.58.413,Colour_Asymmetry_Pilot,2022.1.3,Win32,61.36851795,62c50e9c1127f2cd403a315f,,,,,,,,,,,,,,,,,,,,,,,,,,,,,,,,,,,,,,,,,,,,,,,,,,,,,,,,,,,,,,,,,,,,,,,,,,,,,,,,,,,,,,,,,,,,,,,,,,,,,,,,,,,,,,,,,,,,,,,,,,,,,,,,,,,,,,,,,,,,,,,,,,,,,,,,,,,,,,,,,,,,
0,32,32,48,1,,606b0c7e02dae1504090f77c,62c5387930da34237653c7e3,2022-07-06_09h23.58.413,Colour_Asymmetry_Pilot,2022.1.3,Win32,61.36851795,62c50e9c1127f2cd403a315f,,,,,,,,,,,,,,,,,,,,,,,,,,,,,,,,,,,,,,,,,,,,,,,,,,,,,,,,,,,,,,,,,,,,,,,,,,,,,,,,,,,,,,,,,,,,,,,,,,,,,,,,,,,,,,,,,,,,,,,,,,,,,,,,,,,,,,,,,,,,,,,,,,,,,,,,,,,,,,,,,,,,
0,33,33,81,1,,606b0c7e02dae1504090f77c,62c5387930da34237653c7e3,2022-07-06_09h23.58.413,Colour_Asymmetry_Pilot,2022.1.3,Win32,61.36851795,62c50e9c1127f2cd403a315f,,,,,,,,,,,,,,,,,,,,,,,,,,,,,,,,,,,,,,,,,,,,,,,,,,,,,,,,,,,,,,,,,,,,,,,,,,,,,,,,,,,,,,,,,,,,,,,,,,,,,,,,,,,,,,,,,,,,,,,,,,,,,,,,,,,,,,,,,,,,,,,,,,,,,,,,,,,,,,,,,,,,
0,34,34,27,1,,606b0c7e02dae1504090f77c,62c5387930da34237653c7e3,2022-07-06_09h23.58.413,Colour_Asymmetry_Pilot,2022.1.3,Win32,61.36851795,62c50e9c1127f2cd403a315f,,,,,,,,,,,,,,,,,,,,,,,,,,,,,,,,,,,,,,,,,,,,,,,,,,,,,,,,,,,,,,,,,,,,,,,,,,,,,,,,,,,,,,,,,,,,,,,,,,,,,,,,,,,,,,,,,,,,,,,,,,,,,,,,,,,,,,,,,,,,,,,,,,,,,,,,,,,,,,,,,,,,
0,35,35,41,1,,606b0c7e02dae1504090f77c,62c5387930da34237653c7e3,2022-07-06_09h23.58.413,Colour_Asymmetry_Pilot,2022.1.3,Win32,61.36851795,62c50e9c1127f2cd403a315f,,,,,,,,,,,,,,,,,,,,,,,,,,,,,,,,,,,,,,,,,,,,,,,,,,,,,,,,,,,,,,,,,,,,,,,,,,,,,,,,,,,,,,,,,,,,,,,,,,,,,,,,,,,,,,,,,,,,,,,,,,,,,,,,,,,,,,,,,,,,,,,,,,,,,,,,,,,,,,,,,,,,
0,36,36,63,1,,606b0c7e02dae1504090f77c,62c5387930da34237653c7e3,2022-07-06_09h23.58.413,Colour_Asymmetry_Pilot,2022.1.3,Win32,61.36851795,62c50e9c1127f2cd403a315f,,,,,,,,,,,,,,,,,,,,,,,,,,,,,,,,,,,,,,,,,,,,,,,,,,,,,,,,,,,,,,,,,,,,,,,,,,,,,,,,,,,,,,,,,,,,,,,,,,,,,,,,,,,,,,,,,,,,,,,,,,,,,,,,,,,,,,,,,,,,,,,,,,,,,,,,,,,,,,,,,,,,
0,37,37,58,1,,606b0c7e02dae1504090f77c,62c5387930da34237653c7e3,2022-07-06_09h23.58.413,Colour_Asymmetry_Pilot,2022.1.3,Win32,61.36851795,62c50e9c1127f2cd403a315f,,,,,,,,,,,,,,,,,,,,,,,,,,,,,,,,,,,,,,,,,,,,,,,,,,,,,,,,,,,,,,,,,,,,,,,,,,,,,,,,,,,,,,,,,,,,,,,,,,,,,,,,,,,,,,,,,,,,,,,,,,,,,,,,,,,,,,,,,,,,,,,,,,,,,,,,,,,,,,,,,,,,
0,38,38,32,1,,606b0c7e02dae1504090f77c,62c5387930da34237653c7e3,2022-07-06_09h23.58.413,Colour_Asymmetry_Pilot,2022.1.3,Win32,61.36851795,62c50e9c1127f2cd403a315f,,,,,,,,,,,,,,,,,,,,,,,,,,,,,,,,,,,,,,,,,,,,,,,,,,,,,,,,,,,,,,,,,,,,,,,,,,,,,,,,,,,,,,,,,,,,,,,,,,,,,,,,,,,,,,,,,,,,,,,,,,,,,,,,,,,,,,,,,,,,,,,,,,,,,,,,,,,,,,,,,,,,
0,39,39,42,1,,606b0c7e02dae1504090f77c,62c5387930da34237653c7e3,2022-07-06_09h23.58.413,Colour_Asymmetry_Pilot,2022.1.3,Win32,61.36851795,62c50e9c1127f2cd403a315f,,,,,,,,,,,,,,,,,,,,,,,,,,,,,,,,,,,,,,,,,,,,,,,,,,,,,,,,,,,,,,,,,,,,,,,,,,,,,,,,,,,,,,,,,,,,,,,,,,,,,,,,,,,,,,,,,,,,,,,,,,,,,,,,,,,,,,,,,,,,,,,,,,,,,,,,,,,,,,,,,,,,
0,40,40,8,1,,606b0c7e02dae1504090f77c,62c5387930da34237653c7e3,2022-07-06_09h23.58.413,Colour_Asymmetry_Pilot,2022.1.3,Win32,61.36851795,62c50e9c1127f2cd403a315f,,,,,,,,,,,,,,,,,,,,,,,,,,,,,,,,,,,,,,,,,,,,,,,,,,,,,,,,,,,,,,,,,,,,,,,,,,,,,,,,,,,,,,,,,,,,,,,,,,,,,,,,,,,,,,,,,,,,,,,,,,,,,,,,,,,,,,,,,,,,,,,,,,,,,,,,,,,,,,,,,,,,
0,41,41,16,1,,606b0c7e02dae1504090f77c,62c5387930da34237653c7e3,2022-07-06_09h23.58.413,Colour_Asymmetry_Pilot,2022.1.3,Win32,61.36851795,62c50e9c1127f2cd403a315f,,,,,,,,,,,,,,,,,,,,,,,,,,,,,,,,,,,,,,,,,,,,,,,,,,,,,,,,,,,,,,,,,,,,,,,,,,,,,,,,,,,,,,,,,,,,,,,,,,,,,,,,,,,,,,,,,,,,,,,,,,,,,,,,,,,,,,,,,,,,,,,,,,,,,,,,,,,,,,,,,,,,
0,42,42,54,1,,606b0c7e02dae1504090f77c,62c5387930da34237653c7e3,2022-07-06_09h23.58.413,Colour_Asymmetry_Pilot,2022.1.3,Win32,61.36851795,62c50e9c1127f2cd403a315f,,,,,,,,,,,,,,,,,,,,,,,,,,,,,,,,,,,,,,,,,,,,,,,,,,,,,,,,,,,,,,,,,,,,,,,,,,,,,,,,,,,,,,,,,,,,,,,,,,,,,,,,,,,,,,,,,,,,,,,,,,,,,,,,,,,,,,,,,,,,,,,,,,,,,,,,,,,,,,,,,,,,
0,43,43,37,1,,606b0c7e02dae1504090f77c,62c5387930da34237653c7e3,2022-07-06_09h23.58.413,Colour_Asymmetry_Pilot,2022.1.3,Win32,61.36851795,62c50e9c1127f2cd403a315f,,,,,,,,,,,,,,,,,,,,,,,,,,,,,,,,,,,,,,,,,,,,,,,,,,,,,,,,,,,,,,,,,,,,,,,,,,,,,,,,,,,,,,,,,,,,,,,,,,,,,,,,,,,,,,,,,,,,,,,,,,,,,,,,,,,,,,,,,,,,,,,,,,,,,,,,,,,,,,,,,,,,
0,44,44,79,1,,606b0c7e02dae1504090f77c,62c5387930da34237653c7e3,2022-07-06_09h23.58.413,Colour_Asymmetry_Pilot,2022.1.3,Win32,61.36851795,62c50e9c1127f2cd403a315f,,,,,,,,,,,,,,,,,,,,,,,,,,,,,,,,,,,,,,,,,,,,,,,,,,,,,,,,,,,,,,,,,,,,,,,,,,,,,,,,,,,,,,,,,,,,,,,,,,,,,,,,,,,,,,,,,,,,,,,,,,,,,,,,,,,,,,,,,,,,,,,,,,,,,,,,,,,,,,,,,,,,
0,45,45,60,1,,606b0c7e02dae1504090f77c,62c5387930da34237653c7e3,2022-07-06_09h23.58.413,Colour_Asymmetry_Pilot,2022.1.3,Win32,61.36851795,62c50e9c1127f2cd403a315f,,,,,,,,,,,,,,,,,,,,,,,,,,,,,,,,,,,,,,,,,,,,,,,,,,,,,,,,,,,,,,,,,,,,,,,,,,,,,,,,,,,,,,,,,,,,,,,,,,,,,,,,,,,,,,,,,,,,,,,,,,,,,,,,,,,,,,,,,,,,,,,,,,,,,,,,,,,,,,,,,,,,
0,46,46,24,1,,606b0c7e02dae1504090f77c,62c5387930da34237653c7e3,2022-07-06_09h23.58.413,Colour_Asymmetry_Pilot,2022.1.3,Win32,61.36851795,62c50e9c1127f2cd403a315f,,,,,,,,,,,,,,,,,,,,,,,,,,,,,,,,,,,,,,,,,,,,,,,,,,,,,,,,,,,,,,,,,,,,,,,,,,,,,,,,,,,,,,,,,,,,,,,,,,,,,,,,,,,,,,,,,,,,,,,,,,,,,,,,,,,,,,,,,,,,,,,,,,,,,,,,,,,,,,,,,,,,
0,47,47,10,1,,606b0c7e02dae1504090f77c,62c5387930da34237653c7e3,2022-07-06_09h23.58.413,Colour_Asymmetry_Pilot,2022.1.3,Win32,61.36851795,62c50e9c1127f2cd403a315f,,,,,,,,,,,,,,,,,,,,,,,,,,,,,,,,,,,,,,,,,,,,,,,,,,,,,,,,,,,,,,,,,,,,,,,,,,,,,,,,,,,,,,,,,,,,,,,,,,,,,,,,,,,,,,,,,,,,,,,,,,,,,,,,,,,,,,,,,,,,,,,,,,,,,,,,,,,,,,,,,,,,
0,48,48,92,1,,606b0c7e02dae1504090f77c,62c5387930da34237653c7e3,2022-07-06_09h23.58.413,Colour_Asymmetry_Pilot,2022.1.3,Win32,61.36851795,62c50e9c1127f2cd403a315f,,,,,,,,,,,,,,,,,,,,,,,,,,,,,,,,,,,,,,,,,,,,,,,,,,,,,,,,,,,,,,,,,,,,,,,,,,,,,,,,,,,,,,,,,,,,,,,,,,,,,,,,,,,,,,,,,,,,,,,,,,,,,,,,,,,,,,,,,,,,,,,,,,,,,,,,,,,,,,,,,,,,
0,49,49,77,1,,606b0c7e02dae1504090f77c,62c5387930da34237653c7e3,2022-07-06_09h23.58.413,Colour_Asymmetry_Pilot,2022.1.3,Win32,61.36851795,62c50e9c1127f2cd403a315f,,,,,,,,,,,,,,,,,,,,,,,,,,,,,,,,,,,,,,,,,,,,,,,,,,,,,,,,,,,,,,,,,,,,,,,,,,,,,,,,,,,,,,,,,,,,,,,,,,,,,,,,,,,,,,,,,,,,,,,,,,,,,,,,,,,,,,,,,,,,,,,,,,,,,,,,,,,,,,,,,,,,
0,50,50,43,1,,606b0c7e02dae1504090f77c,62c5387930da34237653c7e3,2022-07-06_09h23.58.413,Colour_Asymmetry_Pilot,2022.1.3,Win32,61.36851795,62c50e9c1127f2cd403a315f,,,,,,,,,,,,,,,,,,,,,,,,,,,,,,,,,,,,,,,,,,,,,,,,,,,,,,,,,,,,,,,,,,,,,,,,,,,,,,,,,,,,,,,,,,,,,,,,,,,,,,,,,,,,,,,,,,,,,,,,,,,,,,,,,,,,,,,,,,,,,,,,,,,,,,,,,,,,,,,,,,,,
0,51,51,76,1,,606b0c7e02dae1504090f77c,62c5387930da34237653c7e3,2022-07-06_09h23.58.413,Colour_Asymmetry_Pilot,2022.1.3,Win32,61.36851795,62c50e9c1127f2cd403a315f,,,,,,,,,,,,,,,,,,,,,,,,,,,,,,,,,,,,,,,,,,,,,,,,,,,,,,,,,,,,,,,,,,,,,,,,,,,,,,,,,,,,,,,,,,,,,,,,,,,,,,,,,,,,,,,,,,,,,,,,,,,,,,,,,,,,,,,,,,,,,,,,,,,,,,,,,,,,,,,,,,,,
0,52,52,83,1,,606b0c7e02dae1504090f77c,62c5387930da34237653c7e3,2022-07-06_09h23.58.413,Colour_Asymmetry_Pilot,2022.1.3,Win32,61.36851795,62c50e9c1127f2cd403a315f,,,,,,,,,,,,,,,,,,,,,,,,,,,,,,,,,,,,,,,,,,,,,,,,,,,,,,,,,,,,,,,,,,,,,,,,,,,,,,,,,,,,,,,,,,,,,,,,,,,,,,,,,,,,,,,,,,,,,,,,,,,,,,,,,,,,,,,,,,,,,,,,,,,,,,,,,,,,,,,,,,,,
0,53,53,29,1,,606b0c7e02dae1504090f77c,62c5387930da34237653c7e3,2022-07-06_09h23.58.413,Colour_Asymmetry_Pilot,2022.1.3,Win32,61.36851795,62c50e9c1127f2cd403a315f,,,,,,,,,,,,,,,,,,,,,,,,,,,,,,,,,,,,,,,,,,,,,,,,,,,,,,,,,,,,,,,,,,,,,,,,,,,,,,,,,,,,,,,,,,,,,,,,,,,,,,,,,,,,,,,,,,,,,,,,,,,,,,,,,,,,,,,,,,,,,,,,,,,,,,,,,,,,,,,,,,,,
0,54,54,88,1,,606b0c7e02dae1504090f77c,62c5387930da34237653c7e3,2022-07-06_09h23.58.413,Colour_Asymmetry_Pilot,2022.1.3,Win32,61.36851795,62c50e9c1127f2cd403a315f,,,,,,,,,,,,,,,,,,,,,,,,,,,,,,,,,,,,,,,,,,,,,,,,,,,,,,,,,,,,,,,,,,,,,,,,,,,,,,,,,,,,,,,,,,,,,,,,,,,,,,,,,,,,,,,,,,,,,,,,,,,,,,,,,,,,,,,,,,,,,,,,,,,,,,,,,,,,,,,,,,,,
0,55,55,25,1,,606b0c7e02dae1504090f77c,62c5387930da34237653c7e3,2022-07-06_09h23.58.413,Colour_Asymmetry_Pilot,2022.1.3,Win32,61.36851795,62c50e9c1127f2cd403a315f,,,,,,,,,,,,,,,,,,,,,,,,,,,,,,,,,,,,,,,,,,,,,,,,,,,,,,,,,,,,,,,,,,,,,,,,,,,,,,,,,,,,,,,,,,,,,,,,,,,,,,,,,,,,,,,,,,,,,,,,,,,,,,,,,,,,,,,,,,,,,,,,,,,,,,,,,,,,,,,,,,,,
0,56,56,11,1,,606b0c7e02dae1504090f77c,62c5387930da34237653c7e3,2022-07-06_09h23.58.413,Colour_Asymmetry_Pilot,2022.1.3,Win32,61.36851795,62c50e9c1127f2cd403a315f,,,,,,,,,,,,,,,,,,,,,,,,,,,,,,,,,,,,,,,,,,,,,,,,,,,,,,,,,,,,,,,,,,,,,,,,,,,,,,,,,,,,,,,,,,,,,,,,,,,,,,,,,,,,,,,,,,,,,,,,,,,,,,,,,,,,,,,,,,,,,,,,,,,,,,,,,,,,,,,,,,,,
0,57,57,19,1,,606b0c7e02dae1504090f77c,62c5387930da34237653c7e3,2022-07-06_09h23.58.413,Colour_Asymmetry_Pilot,2022.1.3,Win32,61.36851795,62c50e9c1127f2cd403a315f,,,,,,,,,,,,,,,,,,,,,,,,,,,,,,,,,,,,,,,,,,,,,,,,,,,,,,,,,,,,,,,,,,,,,,,,,,,,,,,,,,,,,,,,,,,,,,,,,,,,,,,,,,,,,,,,,,,,,,,,,,,,,,,,,,,,,,,,,,,,,,,,,,,,,,,,,,,,,,,,,,,,
0,58,58,52,1,,606b0c7e02dae1504090f77c,62c5387930da34237653c7e3,2022-07-06_09h23.58.413,Colour_Asymmetry_Pilot,2022.1.3,Win32,61.36851795,62c50e9c1127f2cd403a315f,,,,,,,,,,,,,,,,,,,,,,,,,,,,,,,,,,,,,,,,,,,,,,,,,,,,,,,,,,,,,,,,,,,,,,,,,,,,,,,,,,,,,,,,,,,,,,,,,,,,,,,,,,,,,,,,,,,,,,,,,,,,,,,,,,,,,,,,,,,,,,,,,,,,,,,,,,,,,,,,,,,,
0,59,59,64,1,,606b0c7e02dae1504090f77c,62c5387930da34237653c7e3,2022-07-06_09h23.58.413,Colour_Asymmetry_Pilot,2022.1.3,Win32,61.36851795,62c50e9c1127f2cd403a315f,,,,,,,,,,,,,,,,,,,,,,,,,,,,,,,,,,,,,,,,,,,,,,,,,,,,,,,,,,,,,,,,,,,,,,,,,,,,,,,,,,,,,,,,,,,,,,,,,,,,,,,,,,,,,,,,,,,,,,,,,,,,,,,,,,,,,,,,,,,,,,,,,,,,,,,,,,,,,,,,,,,,
0,60,60,71,1,,606b0c7e02dae1504090f77c,62c5387930da34237653c7e3,2022-07-06_09h23.58.413,Colour_Asymmetry_Pilot,2022.1.3,Win32,61.36851795,62c50e9c1127f2cd403a315f,,,,,,,,,,,,,,,,,,,,,,,,,,,,,,,,,,,,,,,,,,,,,,,,,,,,,,,,,,,,,,,,,,,,,,,,,,,,,,,,,,,,,,,,,,,,,,,,,,,,,,,,,,,,,,,,,,,,,,,,,,,,,,,,,,,,,,,,,,,,,,,,,,,,,,,,,,,,,,,,,,,,
0,61,61,39,1,,606b0c7e02dae1504090f77c,62c5387930da34237653c7e3,2022-07-06_09h23.58.413,Colour_Asymmetry_Pilot,2022.1.3,Win32,61.36851795,62c50e9c1127f2cd403a315f,,,,,,,,,,,,,,,,,,,,,,,,,,,,,,,,,,,,,,,,,,,,,,,,,,,,,,,,,,,,,,,,,,,,,,,,,,,,,,,,,,,,,,,,,,,,,,,,,,,,,,,,,,,,,,,,,,,,,,,,,,,,,,,,,,,,,,,,,,,,,,,,,,,,,,,,,,,,,,,,,,,,
0,62,62,80,1,,606b0c7e02dae1504090f77c,62c5387930da34237653c7e3,2022-07-06_09h23.58.413,Colour_Asymmetry_Pilot,2022.1.3,Win32,61.36851795,62c50e9c1127f2cd403a315f,,,,,,,,,,,,,,,,,,,,,,,,,,,,,,,,,,,,,,,,,,,,,,,,,,,,,,,,,,,,,,,,,,,,,,,,,,,,,,,,,,,,,,,,,,,,,,,,,,,,,,,,,,,,,,,,,,,,,,,,,,,,,,,,,,,,,,,,,,,,,,,,,,,,,,,,,,,,,,,,,,,,
0,63,63,69,1,,606b0c7e02dae1504090f77c,62c5387930da34237653c7e3,2022-07-06_09h23.58.413,Colour_Asymmetry_Pilot,2022.1.3,Win32,61.36851795,62c50e9c1127f2cd403a315f,,,,,,,,,,,,,,,,,,,,,,,,,,,,,,,,,,,,,,,,,,,,,,,,,,,,,,,,,,,,,,,,,,,,,,,,,,,,,,,,,,,,,,,,,,,,,,,,,,,,,,,,,,,,,,,,,,,,,,,,,,,,,,,,,,,,,,,,,,,,,,,,,,,,,,,,,,,,,,,,,,,,
0,64,64,49,1,,606b0c7e02dae1504090f77c,62c5387930da34237653c7e3,2022-07-06_09h23.58.413,Colour_Asymmetry_Pilot,2022.1.3,Win32,61.36851795,62c50e9c1127f2cd403a315f,,,,,,,,,,,,,,,,,,,,,,,,,,,,,,,,,,,,,,,,,,,,,,,,,,,,,,,,,,,,,,,,,,,,,,,,,,,,,,,,,,,,,,,,,,,,,,,,,,,,,,,,,,,,,,,,,,,,,,,,,,,,,,,,,,,,,,,,,,,,,,,,,,,,,,,,,,,,,,,,,,,,
0,65,65,33,1,,606b0c7e02dae1504090f77c,62c5387930da34237653c7e3,2022-07-06_09h23.58.413,Colour_Asymmetry_Pilot,2022.1.3,Win32,61.36851795,62c50e9c1127f2cd403a315f,,,,,,,,,,,,,,,,,,,,,,,,,,,,,,,,,,,,,,,,,,,,,,,,,,,,,,,,,,,,,,,,,,,,,,,,,,,,,,,,,,,,,,,,,,,,,,,,,,,,,,,,,,,,,,,,,,,,,,,,,,,,,,,,,,,,,,,,,,,,,,,,,,,,,,,,,,,,,,,,,,,,
0,66,66,34,1,,606b0c7e02dae1504090f77c,62c5387930da34237653c7e3,2022-07-06_09h23.58.413,Colour_Asymmetry_Pilot,2022.1.3,Win32,61.36851795,62c50e9c1127f2cd403a315f,,,,,,,,,,,,,,,,,,,,,,,,,,,,,,,,,,,,,,,,,,,,,,,,,,,,,,,,,,,,,,,,,,,,,,,,,,,,,,,,,,,,,,,,,,,,,,,,,,,,,,,,,,,,,,,,,,,,,,,,,,,,,,,,,,,,,,,,,,,,,,,,,,,,,,,,,,,,,,,,,,,,
0,67,67,91,1,,606b0c7e02dae1504090f77c,62c5387930da34237653c7e3,2022-07-06_09h23.58.413,Colour_Asymmetry_Pilot,2022.1.3,Win32,61.36851795,62c50e9c1127f2cd403a315f,,,,,,,,,,,,,,,,,,,,,,,,,,,,,,,,,,,,,,,,,,,,,,,,,,,,,,,,,,,,,,,,,,,,,,,,,,,,,,,,,,,,,,,,,,,,,,,,,,,,,,,,,,,,,,,,,,,,,,,,,,,,,,,,,,,,,,,,,,,,,,,,,,,,,,,,,,,,,,,,,,,,
0,68,68,75,1,,606b0c7e02dae1504090f77c,62c5387930da34237653c7e3,2022-07-06_09h23.58.413,Colour_Asymmetry_Pilot,2022.1.3,Win32,61.36851795,62c50e9c1127f2cd403a315f,,,,,,,,,,,,,,,,,,,,,,,,,,,,,,,,,,,,,,,,,,,,,,,,,,,,,,,,,,,,,,,,,,,,,,,,,,,,,,,,,,,,,,,,,,,,,,,,,,,,,,,,,,,,,,,,,,,,,,,,,,,,,,,,,,,,,,,,,,,,,,,,,,,,,,,,,,,,,,,,,,,,
0,69,69,61,1,,606b0c7e02dae1504090f77c,62c5387930da34237653c7e3,2022-07-06_09h23.58.413,Colour_Asymmetry_Pilot,2022.1.3,Win32,61.36851795,62c50e9c1127f2cd403a315f,,,,,,,,,,,,,,,,,,,,,,,,,,,,,,,,,,,,,,,,,,,,,,,,,,,,,,,,,,,,,,,,,,,,,,,,,,,,,,,,,,,,,,,,,,,,,,,,,,,,,,,,,,,,,,,,,,,,,,,,,,,,,,,,,,,,,,,,,,,,,,,,,,,,,,,,,,,,,,,,,,,,
0,70,70,21,1,,606b0c7e02dae1504090f77c,62c5387930da34237653c7e3,2022-07-06_09h23.58.413,Colour_Asymmetry_Pilot,2022.1.3,Win32,61.36851795,62c50e9c1127f2cd403a315f,,,,,,,,,,,,,,,,,,,,,,,,,,,,,,,,,,,,,,,,,,,,,,,,,,,,,,,,,,,,,,,,,,,,,,,,,,,,,,,,,,,,,,,,,,,,,,,,,,,,,,,,,,,,,,,,,,,,,,,,,,,,,,,,,,,,,,,,,,,,,,,,,,,,,,,,,,,,,,,,,,,,
0,71,71,84,1,,606b0c7e02dae1504090f77c,62c5387930da34237653c7e3,2022-07-06_09h23.58.413,Colour_Asymmetry_Pilot,2022.1.3,Win32,61.36851795,62c50e9c1127f2cd403a315f,,,,,,,,,,,,,,,,,,,,,,,,,,,,,,,,,,,,,,,,,,,,,,,,,,,,,,,,,,,,,,,,,,,,,,,,,,,,,,,,,,,,,,,,,,,,,,,,,,,,,,,,,,,,,,,,,,,,,,,,,,,,,,,,,,,,,,,,,,,,,,,,,,,,,,,,,,,,,,,,,,,,
0,72,72,66,1,,606b0c7e02dae1504090f77c,62c5387930da34237653c7e3,2022-07-06_09h23.58.413,Colour_Asymmetry_Pilot,2022.1.3,Win32,61.36851795,62c50e9c1127f2cd403a315f,,,,,,,,,,,,,,,,,,,,,,,,,,,,,,,,,,,,,,,,,,,,,,,,,,,,,,,,,,,,,,,,,,,,,,,,,,,,,,,,,,,,,,,,,,,,,,,,,,,,,,,,,,,,,,,,,,,,,,,,,,,,,,,,,,,,,,,,,,,,,,,,,,,,,,,,,,,,,,,,,,,,
0,73,73,46,1,,606b0c7e02dae1504090f77c,62c5387930da34237653c7e3,2022-07-06_09h23.58.413,Colour_Asymmetry_Pilot,2022.1.3,Win32,61.36851795,62c50e9c1127f2cd403a315f,,,,,,,,,,,,,,,,,,,,,,,,,,,,,,,,,,,,,,,,,,,,,,,,,,,,,,,,,,,,,,,,,,,,,,,,,,,,,,,,,,,,,,,,,,,,,,,,,,,,,,,,,,,,,,,,,,,,,,,,,,,,,,,,,,,,,,,,,,,,,,,,,,,,,,,,,,,,,,,,,,,,
0,74,74,31,1,,606b0c7e02dae1504090f77c,62c5387930da34237653c7e3,2022-07-06_09h23.58.413,Colour_Asymmetry_Pilot,2022.1.3,Win32,61.36851795,62c50e9c1127f2cd403a315f,,,,,,,,,,,,,,,,,,,,,,,,,,,,,,,,,,,,,,,,,,,,,,,,,,,,,,,,,,,,,,,,,,,,,,,,,,,,,,,,,,,,,,,,,,,,,,,,,,,,,,,,,,,,,,,,,,,,,,,,,,,,,,,,,,,,,,,,,,,,,,,,,,,,,,,,,,,,,,,,,,,,
0,75,75,40,1,,606b0c7e02dae1504090f77c,62c5387930da34237653c7e3,2022-07-06_09h23.58.413,Colour_Asymmetry_Pilot,2022.1.3,Win32,61.36851795,62c50e9c1127f2cd403a315f,,,,,,,,,,,,,,,,,,,,,,,,,,,,,,,,,,,,,,,,,,,,,,,,,,,,,,,,,,,,,,,,,,,,,,,,,,,,,,,,,,,,,,,,,,,,,,,,,,,,,,,,,,,,,,,,,,,,,,,,,,,,,,,,,,,,,,,,,,,,,,,,,,,,,,,,,,,,,,,,,,,,
0,76,76,45,1,,606b0c7e02dae1504090f77c,62c5387930da34237653c7e3,2022-07-06_09h23.58.413,Colour_Asymmetry_Pilot,2022.1.3,Win32,61.36851795,62c50e9c1127f2cd403a315f,,,,,,,,,,,,,,,,,,,,,,,,,,,,,,,,,,,,,,,,,,,,,,,,,,,,,,,,,,,,,,,,,,,,,,,,,,,,,,,,,,,,,,,,,,,,,,,,,,,,,,,,,,,,,,,,,,,,,,,,,,,,,,,,,,,,,,,,,,,,,,,,,,,,,,,,,,,,,,,,,,,,
0,77,77,20,1,,606b0c7e02dae1504090f77c,62c5387930da34237653c7e3,2022-07-06_09h23.58.413,Colour_Asymmetry_Pilot,2022.1.3,Win32,61.36851795,62c50e9c1127f2cd403a315f,,,,,,,,,,,,,,,,,,,,,,,,,,,,,,,,,,,,,,,,,,,,,,,,,,,,,,,,,,,,,,,,,,,,,,,,,,,,,,,,,,,,,,,,,,,,,,,,,,,,,,,,,,,,,,,,,,,,,,,,,,,,,,,,,,,,,,,,,,,,,,,,,,,,,,,,,,,,,,,,,,,,
0,78,78,22,1,,606b0c7e02dae1504090f77c,62c5387930da34237653c7e3,2022-07-06_09h23.58.413,Colour_Asymmetry_Pilot,2022.1.3,Win32,61.36851795,62c50e9c1127f2cd403a315f,,,,,,,,,,,,,,,,,,,,,,,,,,,,,,,,,,,,,,,,,,,,,,,,,,,,,,,,,,,,,,,,,,,,,,,,,,,,,,,,,,,,,,,,,,,,,,,,,,,,,,,,,,,,,,,,,,,,,,,,,,,,,,,,,,,,,,,,,,,,,,,,,,,,,,,,,,,,,,,,,,,,
0,79,79,0,1,,606b0c7e02dae1504090f77c,62c5387930da34237653c7e3,2022-07-06_09h23.58.413,Colour_Asymmetry_Pilot,2022.1.3,Win32,61.36851795,62c50e9c1127f2cd403a315f,,,,,,,,,,,,,,,,,,,,,,,,,,,,,,,,,,,,,,,,,,,,,,,,,,,,,,,,,,,,,,,,,,,,,,,,,,,,,,,,,,,,,,,,,,,,,,,,,,,,,,,,,,,,,,,,,,,,,,,,,,,,,,,,,,,,,,,,,,,,,,,,,,,,,,,,,,,,,,,,,,,,
0,80,80,2,1,,606b0c7e02dae1504090f77c,62c5387930da34237653c7e3,2022-07-06_09h23.58.413,Colour_Asymmetry_Pilot,2022.1.3,Win32,61.36851795,62c50e9c1127f2cd403a315f,,,,,,,,,,,,,,,,,,,,,,,,,,,,,,,,,,,,,,,,,,,,,,,,,,,,,,,,,,,,,,,,,,,,,,,,,,,,,,,,,,,,,,,,,,,,,,,,,,,,,,,,,,,,,,,,,,,,,,,,,,,,,,,,,,,,,,,,,,,,,,,,,,,,,,,,,,,,,,,,,,,,
0,81,81,65,1,,606b0c7e02dae1504090f77c,62c5387930da34237653c7e3,2022-07-06_09h23.58.413,Colour_Asymmetry_Pilot,2022.1.3,Win32,61.36851795,62c50e9c1127f2cd403a315f,,,,,,,,,,,,,,,,,,,,,,,,,,,,,,,,,,,,,,,,,,,,,,,,,,,,,,,,,,,,,,,,,,,,,,,,,,,,,,,,,,,,,,,,,,,,,,,,,,,,,,,,,,,,,,,,,,,,,,,,,,,,,,,,,,,,,,,,,,,,,,,,,,,,,,,,,,,,,,,,,,,,
0,82,82,51,1,,606b0c7e02dae1504090f77c,62c5387930da34237653c7e3,2022-07-06_09h23.58.413,Colour_Asymmetry_Pilot,2022.1.3,Win32,61.36851795,62c50e9c1127f2cd403a315f,,,,,,,,,,,,,,,,,,,,,,,,,,,,,,,,,,,,,,,,,,,,,,,,,,,,,,,,,,,,,,,,,,,,,,,,,,,,,,,,,,,,,,,,,,,,,,,,,,,,,,,,,,,,,,,,,,,,,,,,,,,,,,,,,,,,,,,,,,,,,,,,,,,,,,,,,,,,,,,,,,,,
0,83,83,87,1,,606b0c7e02dae1504090f77c,62c5387930da34237653c7e3,2022-07-06_09h23.58.413,Colour_Asymmetry_Pilot,2022.1.3,Win32,61.36851795,62c50e9c1127f2cd403a315f,,,,,,,,,,,,,,,,,,,,,,,,,,,,,,,,,,,,,,,,,,,,,,,,,,,,,,,,,,,,,,,,,,,,,,,,,,,,,,,,,,,,,,,,,,,,,,,,,,,,,,,,,,,,,,,,,,,,,,,,,,,,,,,,,,,,,,,,,,,,,,,,,,,,,,,,,,,,,,,,,,,,
0,84,84,15,1,,606b0c7e02dae1504090f77c,62c5387930da34237653c7e3,2022-07-06_09h23.58.413,Colour_Asymmetry_Pilot,2022.1.3,Win32,61.36851795,62c50e9c1127f2cd403a315f,,,,,,,,,,,,,,,,,,,,,,,,,,,,,,,,,,,,,,,,,,,,,,,,,,,,,,,,,,,,,,,,,,,,,,,,,,,,,,,,,,,,,,,,,,,,,,,,,,,,,,,,,,,,,,,,,,,,,,,,,,,,,,,,,,,,,,,,,,,,,,,,,,,,,,,,,,,,,,,,,,,,
0,85,85,18,1,,606b0c7e02dae1504090f77c,62c5387930da34237653c7e3,2022-07-06_09h23.58.413,Colour_Asymmetry_Pilot,2022.1.3,Win32,61.36851795,62c50e9c1127f2cd403a315f,,,,,,,,,,,,,,,,,,,,,,,,,,,,,,,,,,,,,,,,,,,,,,,,,,,,,,,,,,,,,,,,,,,,,,,,,,,,,,,,,,,,,,,,,,,,,,,,,,,,,,,,,,,,,,,,,,,,,,,,,,,,,,,,,,,,,,,,,,,,,,,,,,,,,,,,,,,,,,,,,,,,
0,86,86,1,1,,606b0c7e02dae1504090f77c,62c5387930da34237653c7e3,2022-07-06_09h23.58.413,Colour_Asymmetry_Pilot,2022.1.3,Win32,61.36851795,62c50e9c1127f2cd403a315f,,,,,,,,,,,,,,,,,,,,,,,,,,,,,,,,,,,,,,,,,,,,,,,,,,,,,,,,,,,,,,,,,,,,,,,,,,,,,,,,,,,,,,,,,,,,,,,,,,,,,,,,,,,,,,,,,,,,,,,,,,,,,,,,,,,,,,,,,,,,,,,,,,,,,,,,,,,,,,,,,,,,
0,87,87,86,1,,606b0c7e02dae1504090f77c,62c5387930da34237653c7e3,2022-07-06_09h23.58.413,Colour_Asymmetry_Pilot,2022.1.3,Win32,61.36851795,62c50e9c1127f2cd403a315f,,,,,,,,,,,,,,,,,,,,,,,,,,,,,,,,,,,,,,,,,,,,,,,,,,,,,,,,,,,,,,,,,,,,,,,,,,,,,,,,,,,,,,,,,,,,,,,,,,,,,,,,,,,,,,,,,,,,,,,,,,,,,,,,,,,,,,,,,,,,,,,,,,,,,,,,,,,,,,,,,,,,
0,88,88,26,1,,606b0c7e02dae1504090f77c,62c5387930da34237653c7e3,2022-07-06_09h23.58.413,Colour_Asymmetry_Pilot,2022.1.3,Win32,61.36851795,62c50e9c1127f2cd403a315f,,,,,,,,,,,,,,,,,,,,,,,,,,,,,,,,,,,,,,,,,,,,,,,,,,,,,,,,,,,,,,,,,,,,,,,,,,,,,,,,,,,,,,,,,,,,,,,,,,,,,,,,,,,,,,,,,,,,,,,,,,,,,,,,,,,,,,,,,,,,,,,,,,,,,,,,,,,,,,,,,,,,
0,89,89,78,1,,606b0c7e02dae1504090f77c,62c5387930da34237653c7e3,2022-07-06_09h23.58.413,Colour_Asymmetry_Pilot,2022.1.3,Win32,61.36851795,62c50e9c1127f2cd403a315f,,,,,,,,,,,,,,,,,,,,,,,,,,,,,,,,,,,,,,,,,,,,,,,,,,,,,,,,,,,,,,,,,,,,,,,,,,,,,,,,,,,,,,,,,,,,,,,,,,,,,,,,,,,,,,,,,,,,,,,,,,,,,,,,,,,,,,,,,,,,,,,,,,,,,,,,,,,,,,,,,,,,
0,90,90,6,1,,606b0c7e02dae1504090f77c,62c5387930da34237653c7e3,2022-07-06_09h23.58.413,Colour_Asymmetry_Pilot,2022.1.3,Win32,61.36851795,62c50e9c1127f2cd403a315f,,,,,,,,,,,,,,,,,,,,,,,,,,,,,,,,,,,,,,,,,,,,,,,,,,,,,,,,,,,,,,,,,,,,,,,,,,,,,,,,,,,,,,,,,,,,,,,,,,,,,,,,,,,,,,,,,,,,,,,,,,,,,,,,,,,,,,,,,,,,,,,,,,,,,,,,,,,,,,,,,,,,
0,91,91,17,1,,606b0c7e02dae1504090f77c,62c5387930da34237653c7e3,2022-07-06_09h23.58.413,Colour_Asymmetry_Pilot,2022.1.3,Win32,61.36851795,62c50e9c1127f2cd403a315f,,,,,,,,,,,,,,,,,,,,,,,,,,,,,,,,,,,,,,,,,,,,,,,,,,,,,,,,,,,,,,,,,,,,,,,,,,,,,,,,,,,,,,,,,,,,,,,,,,,,,,,,,,,,,,,,,,,,,,,,,,,,,,,,,,,,,,,,,,,,,,,,,,,,,,,,,,,,,,,,,,,,
0,92,92,14,1,,606b0c7e02dae1504090f77c,62c5387930da34237653c7e3,2022-07-06_09h23.58.413,Colour_Asymmetry_Pilot,2022.1.3,Win32,61.36851795,62c50e9c1127f2cd403a315f,,,,,,,,,,,,,,,,,,,,,,,,,,,,,,,,,,,,,,,,,,,,,,,,,,,,,,,,,,,,,,,,,,,,,,,,,,,,,,,,,,,,,,,,,,,,,,,,,,,,,,,,,,,,,,,,,,,,,,,,,,,,,,,,,,,,,,,,,,,,,,,,,,,,,,,,,,,,,,,,,,,,
,,,,,,606b0c7e02dae1504090f77c,62c5387930da34237653c7e3,2022-07-06_09h23.58.413,Colour_Asymmetry_Pilot,2022.1.3,Win32,61.36851795,62c50e9c1127f2cd403a315f,0,0,0,153,1,onethree,,,,,,,,,,,,,,,,,,,,,,,,,,,,,,,,,,,,,,,,,,,,,,,,,,,,,,,,,,,,,,,,,,,,,,,,,,,,,,,,,,,,,,,,,,,,,,,,,,,,,,,,,,,,,,,,,,,,,,,,,,,,,,,,,,,,,,,,,,,,,,,,,,,,,,,,,,,,,,
,,,,,,606b0c7e02dae1504090f77c,62c5387930da34237653c7e3,2022-07-06_09h23.58.413,Colour_Asymmetry_Pilot,2022.1.3,Win32,61.36851795,62c50e9c1127f2cd403a315f,0,1,1,40,1,onetwo,,,,,,,,,,,,,,,,,,,,,,,,,,,,,,,,,,,,,,,,,,,,,,,,,,,,,,,,,,,,,,,,,,,,,,,,,,,,,,,,,,,,,,,,,,,,,,,,,,,,,,,,,,,,,,,,,,,,,,,,,,,,,,,,,,,,,,,,,,,,,,,,,,,,,,,,,,,,,,
,,,,,,606b0c7e02dae1504090f77c,62c5387930da34237653c7e3,2022-07-06_09h23.58.413,Colour_Asymmetry_Pilot,2022.1.3,Win32,61.36851795,62c50e9c1127f2cd403a315f,0,2,2,127,1,fourthree,,,,,,,,,,,,,,,,,,,,,,,,,,,,,,,,,,,,,,,,,,,,,,,,,,,,,,,,,,,,,,,,,,,,,,,,,,,,,,,,,,,,,,,,,,,,,,,,,,,,,,,,,,,,,,,,,,,,,,,,,,,,,,,,,,,,,,,,,,,,,,,,,,,,,,,,,,,,,,
,,,,,,606b0c7e02dae1504090f77c,62c5387930da34237653c7e3,2022-07-06_09h23.58.413,Colour_Asymmetry_Pilot,2022.1.3,Win32,61.36851795,62c50e9c1127f2cd403a315f,0,3,3,56,1,onetwo,,,,,,,,,,,,,,,,,,,,,,,,,,,,,,,,,,,,,,,,,,,,,,,,,,,,,,,,,,,,,,,,,,,,,,,,,,,,,,,,,,,,,,,,,,,,,,,,,,,,,,,,,,,,,,,,,,,,,,,,,,,,,,,,,,,,,,,,,,,,,,,,,,,,,,,,,,,,,,
,,,,,,606b0c7e02dae1504090f77c,62c5387930da34237653c7e3,2022-07-06_09h23.58.413,Colour_Asymmetry_Pilot,2022.1.3,Win32,61.36851795,62c50e9c1127f2cd403a315f,0,4,4,33,1,onethree,,,,,,,,,,,,,,,,,,,,,,,,,,,,,,,,,,,,,,,,,,,,,,,,,,,,,,,,,,,,,,,,,,,,,,,,,,,,,,,,,,,,,,,,,,,,,,,,,,,,,,,,,,,,,,,,,,,,,,,,,,,,,,,,,,,,,,,,,,,,,,,,,,,,,,,,,,,,,,
,,,,,,606b0c7e02dae1504090f77c,62c5387930da34237653c7e3,2022-07-06_09h23.58.413,Colour_Asymmetry_Pilot,2022.1.3,Win32,61.36851795,62c50e9c1127f2cd403a315f,0,5,5,52,1,threeone,,,,,,,,,,,,,,,,,,,,,,,,,,,,,,,,,,,,,,,,,,,,,,,,,,,,,,,,,,,,,,,,,,,,,,,,,,,,,,,,,,,,,,,,,,,,,,,,,,,,,,,,,,,,,,,,,,,,,,,,,,,,,,,,,,,,,,,,,,,,,,,,,,,,,,,,,,,,,,
,,,,,,606b0c7e02dae1504090f77c,62c5387930da34237653c7e3,2022-07-06_09h23.58.413,Colour_Asymmetry_Pilot,2022.1.3,Win32,61.36851795,62c50e9c1127f2cd403a315f,0,6,6,140,1,threeone,,,,,,,,,,,,,,,,,,,,,,,,,,,,,,,,,,,,,,,,,,,,,,,,,,,,,,,,,,,,,,,,,,,,,,,,,,,,,,,,,,,,,,,,,,,,,,,,,,,,,,,,,,,,,,,,,,,,,,,,,,,,,,,,,,,,,,,,,,,,,,,,,,,,,,,,,,,,,,
,,,,,,606b0c7e02dae1504090f77c,62c5387930da34237653c7e3,2022-07-06_09h23.58.413,Colour_Asymmetry_Pilot,2022.1.3,Win32,61.36851795,62c50e9c1127f2cd403a315f,0,7,7,126,1,fourtwo,,,,,,,,,,,,,,,,,,,,,,,,,,,,,,,,,,,,,,,,,,,,,,,,,,,,,,,,,,,,,,,,,,,,,,,,,,,,,,,,,,,,,,,,,,,,,,,,,,,,,,,,,,,,,,,,,,,,,,,,,,,,,,,,,,,,,,,,,,,,,,,,,,,,,,,,,,,,,,
,,,,,,606b0c7e02dae1504090f77c,62c5387930da34237653c7e3,2022-07-06_09h23.58.413,Colour_Asymmetry_Pilot,2022.1.3,Win32,61.36851795,62c50e9c1127f2cd403a315f,0,8,8,24,1,onetwo,,,,,,,,,,,,,,,,,,,,,,,,,,,,,,,,,,,,,,,,,,,,,,,,,,,,,,,,,,,,,,,,,,,,,,,,,,,,,,,,,,,,,,,,,,,,,,,,,,,,,,,,,,,,,,,,,,,,,,,,,,,,,,,,,,,,,,,,,,,,,,,,,,,,,,,,,,,,,,
,,,,,,606b0c7e02dae1504090f77c,62c5387930da34237653c7e3,2022-07-06_09h23.58.413,Colour_Asymmetry_Pilot,2022.1.3,Win32,61.36851795,62c50e9c1127f2cd403a315f,0,9,9,38,1,fourtwo,,,,,,,,,,,,,,,,,,,,,,,,,,,,,,,,,,,,,,,,,,,,,,,,,,,,,,,,,,,,,,,,,,,,,,,,,,,,,,,,,,,,,,,,,,,,,,,,,,,,,,,,,,,,,,,,,,,,,,,,,,,,,,,,,,,,,,,,,,,,,,,,,,,,,,,,,,,,,,
,,,,,,606b0c7e02dae1504090f77c,62c5387930da34237653c7e3,2022-07-06_09h23.58.413,Colour_Asymmetry_Pilot,2022.1.3,Win32,61.36851795,62c50e9c1127f2cd403a315f,0,10,10,96,1,onetwo,,,,,,,,,,,,,,,,,,,,,,,,,,,,,,,,,,,,,,,,,,,,,,,,,,,,,,,,,,,,,,,,,,,,,,,,,,,,,,,,,,,,,,,,,,,,,,,,,,,,,,,,,,,,,,,,,,,,,,,,,,,,,,,,,,,,,,,,,,,,,,,,,,,,,,,,,,,,,,
,,,,,,606b0c7e02dae1504090f77c,62c5387930da34237653c7e3,2022-07-06_09h23.58.413,Colour_Asymmetry_Pilot,2022.1.3,Win32,61.36851795,62c50e9c1127f2cd403a315f,0,11,11,63,1,fourthree,,,,,,,,,,,,,,,,,,,,,,,,,,,,,,,,,,,,,,,,,,,,,,,,,,,,,,,,,,,,,,,,,,,,,,,,,,,,,,,,,,,,,,,,,,,,,,,,,,,,,,,,,,,,,,,,,,,,,,,,,,,,,,,,,,,,,,,,,,,,,,,,,,,,,,,,,,,,,,
,,,,,,606b0c7e02dae1504090f77c,62c5387930da34237653c7e3,2022-07-06_09h23.58.413,Colour_Asymmetry_Pilot,2022.1.3,Win32,61.36851795,62c50e9c1127f2cd403a315f,0,12,12,79,1,fourthree,,,,,,,,,,,,,,,,,,,,,,,,,,,,,,,,,,,,,,,,,,,,,,,,,,,,,,,,,,,,,,,,,,,,,,,,,,,,,,,,,,,,,,,,,,,,,,,,,,,,,,,,,,,,,,,,,,,,,,,,,,,,,,,,,,,,,,,,,,,,,,,,,,,,,,,,,,,,,,
,,,,,,606b0c7e02dae1504090f77c,62c5387930da34237653c7e3,2022-07-06_09h23.58.413,Colour_Asymmetry_Pilot,2022.1.3,Win32,61.36851795,62c50e9c1127f2cd403a315f,0,13,13,59,1,twofour,,,,,,,,,,,,,,,,,,,,,,,,,,,,,,,,,,,,,,,,,,,,,,,,,,,,,,,,,,,,,,,,,,,,,,,,,,,,,,,,,,,,,,,,,,,,,,,,,,,,,,,,,,,,,,,,,,,,,,,,,,,,,,,,,,,,,,,,,,,,,,,,,,,,,,,,,,,,,,
,,,,,,606b0c7e02dae1504090f77c,62c5387930da34237653c7e3,2022-07-06_09h23.58.413,Colour_Asymmetry_Pilot,2022.1.3,Win32,61.36851795,62c50e9c1127f2cd403a315f,0,14,14,20,1,threeone,,,,,,,,,,,,,,,,,,,,,,,,,,,,,,,,,,,,,,,,,,,,,,,,,,,,,,,,,,,,,,,,,,,,,,,,,,,,,,,,,,,,,,,,,,,,,,,,,,,,,,,,,,,,,,,,,,,,,,,,,,,,,,,,,,,,,,,,,,,,,,,,,,,,,,,,,,,,,,
,,,,,,606b0c7e02dae1504090f77c,62c5387930da34237653c7e3,2022-07-06_09h23.58.413,Colour_Asymmetry_Pilot,2022.1.3,Win32,61.36851795,62c50e9c1127f2cd403a315f,0,15,15,62,1,fourtwo,,,,,,,,,,,,,,,,,,,,,,,,,,,,,,,,,,,,,,,,,,,,,,,,,,,,,,,,,,,,,,,,,,,,,,,,,,,,,,,,,,,,,,,,,,,,,,,,,,,,,,,,,,,,,,,,,,,,,,,,,,,,,,,,,,,,,,,,,,,,,,,,,,,,,,,,,,,,,,
,,,,,,606b0c7e02dae1504090f77c,62c5387930da34237653c7e3,2022-07-06_09h23.58.413,Colour_Asymmetry_Pilot,2022.1.3,Win32,61.36851795,62c50e9c1127f2cd403a315f,0,16,16,121,1,onethree,,,,,,,,,,,,,,,,,,,,,,,,,,,,,,,,,,,,,,,,,,,,,,,,,,,,,,,,,,,,,,,,,,,,,,,,,,,,,,,,,,,,,,,,,,,,,,,,,,,,,,,,,,,,,,,,,,,,,,,,,,,,,,,,,,,,,,,,,,,,,,,,,,,,,,,,,,,,,,
,,,,,,606b0c7e02dae1504090f77c,62c5387930da34237653c7e3,2022-07-06_09h23.58.413,Colour_Asymmetry_Pilot,2022.1.3,Win32,61.36851795,62c50e9c1127f2cd403a315f,0,17,17,0,1,onetwo,,,,,,,,,,,,,,,,,,,,,,,,,,,,,,,,,,,,,,,,,,,,,,,,,,,,,,,,,,,,,,,,,,,,,,,,,,,,,,,,,,,,,,,,,,,,,,,,,,,,,,,,,,,,,,,,,,,,,,,,,,,,,,,,,,,,,,,,,,,,,,,,,,,,,,,,,,,,,,
,,,,,,606b0c7e02dae1504090f77c,62c5387930da34237653c7e3,2022-07-06_09h23.58.413,Colour_Asymmetry_Pilot,2022.1.3,Win32,61.36851795,62c50e9c1127f2cd403a315f,0,18,18,109,1,threefour,,,,,,,,,,,,,,,,,,,,,,,,,,,,,,,,,,,,,,,,,,,,,,,,,,,,,,,,,,,,,,,,,,,,,,,,,,,,,,,,,,,,,,,,,,,,,,,,,,,,,,,,,,,,,,,,,,,,,,,,,,,,,,,,,,,,,,,,,,,,,,,,,,,,,,,,,,,,,,
,,,,,,606b0c7e02dae1504090f77c,62c5387930da34237653c7e3,2022-07-06_09h23.58.413,Colour_Asymmetry_Pilot,2022.1.3,Win32,61.36851795,62c50e9c1127f2cd403a315f,0,19,19,82,1,twoone,,,,,,,,,,,,,,,,,,,,,,,,,,,,,,,,,,,,,,,,,,,,,,,,,,,,,,,,,,,,,,,,,,,,,,,,,,,,,,,,,,,,,,,,,,,,,,,,,,,,,,,,,,,,,,,,,,,,,,,,,,,,,,,,,,,,,,,,,,,,,,,,,,,,,,,,,,,,,,
,,,,,,606b0c7e02dae1504090f77c,62c5387930da34237653c7e3,2022-07-06_09h23.58.413,Colour_Asymmetry_Pilot,2022.1.3,Win32,61.36851795,62c50e9c1127f2cd403a315f,0,20,20,1,1,onethree,,,,,,,,,,,,,,,,,,,,,,,,,,,,,,,,,,,,,,,,,,,,,,,,,,,,,,,,,,,,,,,,,,,,,,,,,,,,,,,,,,,,,,,,,,,,,,,,,,,,,,,,,,,,,,,,,,,,,,,,,,,,,,,,,,,,,,,,,,,,,,,,,,,,,,,,,,,,,,
,,,,,,606b0c7e02dae1504090f77c,62c5387930da34237653c7e3,2022-07-06_09h23.58.413,Colour_Asymmetry_Pilot,2022.1.3,Win32,61.36851795,62c50e9c1127f2cd403a315f,0,21,21,17,1,onethree,,,,,,,,,,,,,,,,,,,,,,,,,,,,,,,,,,,,,,,,,,,,,,,,,,,,,,,,,,,,,,,,,,,,,,,,,,,,,,,,,,,,,,,,,,,,,,,,,,,,,,,,,,,,,,,,,,,,,,,,,,,,,,,,,,,,,,,,,,,,,,,,,,,,,,,,,,,,,,
,,,,,,606b0c7e02dae1504090f77c,62c5387930da34237653c7e3,2022-07-06_09h23.58.413,Colour_Asymmetry_Pilot,2022.1.3,Win32,61.36851795,62c50e9c1127f2cd403a315f,0,22,22,97,1,onethree,,,,,,,,,,,,,,,,,,,,,,,,,,,,,,,,,,,,,,,,,,,,,,,,,,,,,,,,,,,,,,,,,,,,,,,,,,,,,,,,,,,,,,,,,,,,,,,,,,,,,,,,,,,,,,,,,,,,,,,,,,,,,,,,,,,,,,,,,,,,,,,,,,,,,,,,,,,,,,
,,,,,,606b0c7e02dae1504090f77c,62c5387930da34237653c7e3,2022-07-06_09h23.58.413,Colour_Asymmetry_Pilot,2022.1.3,Win32,61.36851795,62c50e9c1127f2cd403a315f,0,23,23,10,1,twoone,,,,,,,,,,,,,,,,,,,,,,,,,,,,,,,,,,,,,,,,,,,,,,,,,,,,,,,,,,,,,,,,,,,,,,,,,,,,,,,,,,,,,,,,,,,,,,,,,,,,,,,,,,,,,,,,,,,,,,,,,,,,,,,,,,,,,,,,,,,,,,,,,,,,,,,,,,,,,,
,,,,,,606b0c7e02dae1504090f77c,62c5387930da34237653c7e3,2022-07-06_09h23.58.413,Colour_Asymmetry_Pilot,2022.1.3,Win32,61.36851795,62c50e9c1127f2cd403a315f,0,24,24,134,1,fourtwo,,,,,,,,,,,,,,,,,,,,,,,,,,,,,,,,,,,,,,,,,,,,,,,,,,,,,,,,,,,,,,,,,,,,,,,,,,,,,,,,,,,,,,,,,,,,,,,,,,,,,,,,,,,,,,,,,,,,,,,,,,,,,,,,,,,,,,,,,,,,,,,,,,,,,,,,,,,,,,
,,,,,,606b0c7e02dae1504090f77c,62c5387930da34237653c7e3,2022-07-06_09h23.58.413,Colour_Asymmetry_Pilot,2022.1.3,Win32,61.36851795,62c50e9c1127f2cd403a315f,0,25,25,25,1,onethree,,,,,,,,,,,,,,,,,,,,,,,,,,,,,,,,,,,,,,,,,,,,,,,,,,,,,,,,,,,,,,,,,,,,,,,,,,,,,,,,,,,,,,,,,,,,,,,,,,,,,,,,,,,,,,,,,,,,,,,,,,,,,,,,,,,,,,,,,,,,,,,,,,,,,,,,,,,,,,
,,,,,,606b0c7e02dae1504090f77c,62c5387930da34237653c7e3,2022-07-06_09h23.58.413,Colour_Asymmetry_Pilot,2022.1.3,Win32,61.36851795,62c50e9c1127f2cd403a315f,0,26,26,144,1,onetwo,,,,,,,,,,,,,,,,,,,,,,,,,,,,,,,,,,,,,,,,,,,,,,,,,,,,,,,,,,,,,,,,,,,,,,,,,,,,,,,,,,,,,,,,,,,,,,,,,,,,,,,,,,,,,,,,,,,,,,,,,,,,,,,,,,,,,,,,,,,,,,,,,,,,,,,,,,,,,,
,,,,,,606b0c7e02dae1504090f77c,62c5387930da34237653c7e3,2022-07-06_09h23.58.413,Colour_Asymmetry_Pilot,2022.1.3,Win32,61.36851795,62c50e9c1127f2cd403a315f,0,27,27,147,1,twofour,,,,,,,,,,,,,,,,,,,,,,,,,,,,,,,,,,,,,,,,,,,,,,,,,,,,,,,,,,,,,,,,,,,,,,,,,,,,,,,,,,,,,,,,,,,,,,,,,,,,,,,,,,,,,,,,,,,,,,,,,,,,,,,,,,,,,,,,,,,,,,,,,,,,,,,,,,,,,,
,,,,,,606b0c7e02dae1504090f77c,62c5387930da34237653c7e3,2022-07-06_09h23.58.413,Colour_Asymmetry_Pilot,2022.1.3,Win32,61.36851795,62c50e9c1127f2cd403a315f,0,28,28,99,1,twofour,,,,,,,,,,,,,,,,,,,,,,,,,,,,,,,,,,,,,,,,,,,,,,,,,,,,,,,,,,,,,,,,,,,,,,,,,,,,,,,,,,,,,,,,,,,,,,,,,,,,,,,,,,,,,,,,,,,,,,,,,,,,,,,,,,,,,,,,,,,,,,,,,,,,,,,,,,,,,,
,,,,,,606b0c7e02dae1504090f77c,62c5387930da34237653c7e3,2022-07-06_09h23.58.413,Colour_Asymmetry_Pilot,2022.1.3,Win32,61.36851795,62c50e9c1127f2cd403a315f,0,29,29,60,1,threeone,,,,,,,,,,,,,,,,,,,,,,,,,,,,,,,,,,,,,,,,,,,,,,,,,,,,,,,,,,,,,,,,,,,,,,,,,,,,,,,,,,,,,,,,,,,,,,,,,,,,,,,,,,,,,,,,,,,,,,,,,,,,,,,,,,,,,,,,,,,,,,,,,,,,,,,,,,,,,,
,,,,,,606b0c7e02dae1504090f77c,62c5387930da34237653c7e3,2022-07-06_09h23.58.413,Colour_Asymmetry_Pilot,2022.1.3,Win32,61.36851795,62c50e9c1127f2cd403a315f,0,30,30,43,1,twofour,,,,,,,,,,,,,,,,,,,,,,,,,,,,,,,,,,,,,,,,,,,,,,,,,,,,,,,,,,,,,,,,,,,,,,,,,,,,,,,,,,,,,,,,,,,,,,,,,,,,,,,,,,,,,,,,,,,,,,,,,,,,,,,,,,,,,,,,,,,,,,,,,,,,,,,,,,,,,,
,,,,,,606b0c7e02dae1504090f77c,62c5387930da34237653c7e3,2022-07-06_09h23.58.413,Colour_Asymmetry_Pilot,2022.1.3,Win32,61.36851795,62c50e9c1127f2cd403a315f,0,31,31,154,1,twoone,,,,,,,,,,,,,,,,,,,,,,,,,,,,,,,,,,,,,,,,,,,,,,,,,,,,,,,,,,,,,,,,,,,,,,,,,,,,,,,,,,,,,,,,,,,,,,,,,,,,,,,,,,,,,,,,,,,,,,,,,,,,,,,,,,,,,,,,,,,,,,,,,,,,,,,,,,,,,,
,,,,,,606b0c7e02dae1504090f77c,62c5387930da34237653c7e3,2022-07-06_09h23.58.413,Colour_Asymmetry_Pilot,2022.1.3,Win32,61.36851795,62c50e9c1127f2cd403a315f,0,32,32,61,1,threefour,,,,,,,,,,,,,,,,,,,,,,,,,,,,,,,,,,,,,,,,,,,,,,,,,,,,,,,,,,,,,,,,,,,,,,,,,,,,,,,,,,,,,,,,,,,,,,,,,,,,,,,,,,,,,,,,,,,,,,,,,,,,,,,,,,,,,,,,,,,,,,,,,,,,,,,,,,,,,,
,,,,,,606b0c7e02dae1504090f77c,62c5387930da34237653c7e3,2022-07-06_09h23.58.413,Colour_Asymmetry_Pilot,2022.1.3,Win32,61.36851795,62c50e9c1127f2cd403a315f,0,33,33,72,1,onetwo,,,,,,,,,,,,,,,,,,,,,,,,,,,,,,,,,,,,,,,,,,,,,,,,,,,,,,,,,,,,,,,,,,,,,,,,,,,,,,,,,,,,,,,,,,,,,,,,,,,,,,,,,,,,,,,,,,,,,,,,,,,,,,,,,,,,,,,,,,,,,,,,,,,,,,,,,,,,,,
,,,,,,606b0c7e02dae1504090f77c,62c5387930da34237653c7e3,2022-07-06_09h23.58.413,Colour_Asymmetry_Pilot,2022.1.3,Win32,61.36851795,62c50e9c1127f2cd403a315f,0,34,34,156,1,threeone,,,,,,,,,,,,,,,,,,,,,,,,,,,,,,,,,,,,,,,,,,,,,,,,,,,,,,,,,,,,,,,,,,,,,,,,,,,,,,,,,,,,,,,,,,,,,,,,,,,,,,,,,,,,,,,,,,,,,,,,,,,,,,,,,,,,,,,,,,,,,,,,,,,,,,,,,,,,,,
,,,,,,606b0c7e02dae1504090f77c,62c5387930da34237653c7e3,2022-07-06_09h23.58.413,Colour_Asymmetry_Pilot,2022.1.3,Win32,61.36851795,62c50e9c1127f2cd403a315f,0,35,35,98,1,twoone,,,,,,,,,,,,,,,,,,,,,,,,,,,,,,,,,,,,,,,,,,,,,,,,,,,,,,,,,,,,,,,,,,,,,,,,,,,,,,,,,,,,,,,,,,,,,,,,,,,,,,,,,,,,,,,,,,,,,,,,,,,,,,,,,,,,,,,,,,,,,,,,,,,,,,,,,,,,,,
,,,,,,606b0c7e02dae1504090f77c,62c5387930da34237653c7e3,2022-07-06_09h23.58.413,Colour_Asymmetry_Pilot,2022.1.3,Win32,61.36851795,62c50e9c1127f2cd403a315f,0,36,36,70,1,fourtwo,,,,,,,,,,,,,,,,,,,,,,,,,,,,,,,,,,,,,,,,,,,,,,,,,,,,,,,,,,,,,,,,,,,,,,,,,,,,,,,,,,,,,,,,,,,,,,,,,,,,,,,,,,,,,,,,,,,,,,,,,,,,,,,,,,,,,,,,,,,,,,,,,,,,,,,,,,,,,,
,,,,,,606b0c7e02dae1504090f77c,62c5387930da34237653c7e3,2022-07-06_09h23.58.413,Colour_Asymmetry_Pilot,2022.1.3,Win32,61.36851795,62c50e9c1127f2cd403a315f,0,37,37,7,1,fourthree,,,,,,,,,,,,,,,,,,,,,,,,,,,,,,,,,,,,,,,,,,,,,,,,,,,,,,,,,,,,,,,,,,,,,,,,,,,,,,,,,,,,,,,,,,,,,,,,,,,,,,,,,,,,,,,,,,,,,,,,,,,,,,,,,,,,,,,,,,,,,,,,,,,,,,,,,,,,,,
,,,,,,606b0c7e02dae1504090f77c,62c5387930da34237653c7e3,2022-07-06_09h23.58.413,Colour_Asymmetry_Pilot,2022.1.3,Win32,61.36851795,62c50e9c1127f2cd403a315f,0,38,38,93,1,threefour,,,,,,,,,,,,,,,,,,,,,,,,,,,,,,,,,,,,,,,,,,,,,,,,,,,,,,,,,,,,,,,,,,,,,,,,,,,,,,,,,,,,,,,,,,,,,,,,,,,,,,,,,,,,,,,,,,,,,,,,,,,,,,,,,,,,,,,,,,,,,,,,,,,,,,,,,,,,,,
,,,,,,606b0c7e02dae1504090f77c,62c5387930da34237653c7e3,2022-07-06_09h23.58.413,Colour_Asymmetry_Pilot,2022.1.3,Win32,61.36851795,62c50e9c1127f2cd403a315f,0,39,39,125,1,threefour,,,,,,,,,,,,,,,,,,,,,,,,,,,,,,,,,,,,,,,,,,,,,,,,,,,,,,,,,,,,,,,,,,,,,,,,,,,,,,,,,,,,,,,,,,,,,,,,,,,,,,,,,,,,,,,,,,,,,,,,,,,,,,,,,,,,,,,,,,,,,,,,,,,,,,,,,,,,,,
,,,,,,606b0c7e02dae1504090f77c,62c5387930da34237653c7e3,2022-07-06_09h23.58.413,Colour_Asymmetry_Pilot,2022.1.3,Win32,61.36851795,62c50e9c1127f2cd403a315f,0,40,40,18,1,twoone,,,,,,,,,,,,,,,,,,,,,,,,,,,,,,,,,,,,,,,,,,,,,,,,,,,,,,,,,,,,,,,,,,,,,,,,,,,,,,,,,,,,,,,,,,,,,,,,,,,,,,,,,,,,,,,,,,,,,,,,,,,,,,,,,,,,,,,,,,,,,,,,,,,,,,,,,,,,,,
,,,,,,606b0c7e02dae1504090f77c,62c5387930da34237653c7e3,2022-07-06_09h23.58.413,Colour_Asymmetry_Pilot,2022.1.3,Win32,61.36851795,62c50e9c1127f2cd403a315f,0,41,41,47,1,fourthree,,,,,,,,,,,,,,,,,,,,,,,,,,,,,,,,,,,,,,,,,,,,,,,,,,,,,,,,,,,,,,,,,,,,,,,,,,,,,,,,,,,,,,,,,,,,,,,,,,,,,,,,,,,,,,,,,,,,,,,,,,,,,,,,,,,,,,,,,,,,,,,,,,,,,,,,,,,,,,
,,,,,,606b0c7e02dae1504090f77c,62c5387930da34237653c7e3,2022-07-06_09h23.58.413,Colour_Asymmetry_Pilot,2022.1.3,Win32,61.36851795,62c50e9c1127f2cd403a315f,0,42,42,148,1,threeone,,,,,,,,,,,,,,,,,,,,,,,,,,,,,,,,,,,,,,,,,,,,,,,,,,,,,,,,,,,,,,,,,,,,,,,,,,,,,,,,,,,,,,,,,,,,,,,,,,,,,,,,,,,,,,,,,,,,,,,,,,,,,,,,,,,,,,,,,,,,,,,,,,,,,,,,,,,,,,
,,,,,,606b0c7e02dae1504090f77c,62c5387930da34237653c7e3,2022-07-06_09h23.58.413,Colour_Asymmetry_Pilot,2022.1.3,Win32,61.36851795,62c50e9c1127f2cd403a315f,0,43,43,73,1,onethree,,,,,,,,,,,,,,,,,,,,,,,,,,,,,,,,,,,,,,,,,,,,,,,,,,,,,,,,,,,,,,,,,,,,,,,,,,,,,,,,,,,,,,,,,,,,,,,,,,,,,,,,,,,,,,,,,,,,,,,,,,,,,,,,,,,,,,,,,,,,,,,,,,,,,,,,,,,,,,
,,,,,,606b0c7e02dae1504090f77c,62c5387930da34237653c7e3,2022-07-06_09h23.58.413,Colour_Asymmetry_Pilot,2022.1.3,Win32,61.36851795,62c50e9c1127f2cd403a315f,0,44,44,14,1,fourtwo,,,,,,,,,,,,,,,,,,,,,,,,,,,,,,,,,,,,,,,,,,,,,,,,,,,,,,,,,,,,,,,,,,,,,,,,,,,,,,,,,,,,,,,,,,,,,,,,,,,,,,,,,,,,,,,,,,,,,,,,,,,,,,,,,,,,,,,,,,,,,,,,,,,,,,,,,,,,,,
,,,,,,606b0c7e02dae1504090f77c,62c5387930da34237653c7e3,2022-07-06_09h23.58.413,Colour_Asymmetry_Pilot,2022.1.3,Win32,61.36851795,62c50e9c1127f2cd403a315f,0,45,45,58,1,twoone,,,,,,,,,,,,,,,,,,,,,,,,,,,,,,,,,,,,,,,,,,,,,,,,,,,,,,,,,,,,,,,,,,,,,,,,,,,,,,,,,,,,,,,,,,,,,,,,,,,,,,,,,,,,,,,,,,,,,,,,,,,,,,,,,,,,,,,,,,,,,,,,,,,,,,,,,,,,,,
,,,,,,606b0c7e02dae1504090f77c,62c5387930da34237653c7e3,2022-07-06_09h23.58.413,Colour_Asymmetry_Pilot,2022.1.3,Win32,61.36851795,62c50e9c1127f2cd403a315f,0,46,46,141,1,threefour,,,,,,,,,,,,,,,,,,,,,,,,,,,,,,,,,,,,,,,,,,,,,,,,,,,,,,,,,,,,,,,,,,,,,,,,,,,,,,,,,,,,,,,,,,,,,,,,,,,,,,,,,,,,,,,,,,,,,,,,,,,,,,,,,,,,,,,,,,,,,,,,,,,,,,,,,,,,,,
,,,,,,606b0c7e02dae1504090f77c,62c5387930da34237653c7e3,2022-07-06_09h23.58.413,Colour_Asymmetry_Pilot,2022.1.3,Win32,61.36851795,62c50e9c1127f2cd403a315f,0,47,47,116,1,threeone,,,,,,,,,,,,,,,,,,,,,,,,,,,,,,,,,,,,,,,,,,,,,,,,,,,,,,,,,,,,,,,,,,,,,,,,,,,,,,,,,,,,,,,,,,,,,,,,,,,,,,,,,,,,,,,,,,,,,,,,,,,,,,,,,,,,,,,,,,,,,,,,,,,,,,,,,,,,,,
,,,,,,606b0c7e02dae1504090f77c,62c5387930da34237653c7e3,2022-07-06_09h23.58.413,Colour_Asymmetry_Pilot,2022.1.3,Win32,61.36851795,62c50e9c1127f2cd403a315f,0,48,48,117,1,threefour,,,,,,,,,,,,,,,,,,,,,,,,,,,,,,,,,,,,,,,,,,,,,,,,,,,,,,,,,,,,,,,,,,,,,,,,,,,,,,,,,,,,,,,,,,,,,,,,,,,,,,,,,,,,,,,,,,,,,,,,,,,,,,,,,,,,,,,,,,,,,,,,,,,,,,,,,,,,,,
,,,,,,606b0c7e02dae1504090f77c,62c5387930da34237653c7e3,2022-07-06_09h23.58.413,Colour_Asymmetry_Pilot,2022.1.3,Win32,61.36851795,62c50e9c1127f2cd403a315f,0,49,49,51,1,twofour,,,,,,,,,,,,,,,,,,,,,,,,,,,,,,,,,,,,,,,,,,,,,,,,,,,,,,,,,,,,,,,,,,,,,,,,,,,,,,,,,,,,,,,,,,,,,,,,,,,,,,,,,,,,,,,,,,,,,,,,,,,,,,,,,,,,,,,,,,,,,,,,,,,,,,,,,,,,,,
,,,,,,606b0c7e02dae1504090f77c,62c5387930da34237653c7e3,2022-07-06_09h23.58.413,Colour_Asymmetry_Pilot,2022.1.3,Win32,61.36851795,62c50e9c1127f2cd403a315f,0,50,50,151,1,fourthree,,,,,,,,,,,,,,,,,,,,,,,,,,,,,,,,,,,,,,,,,,,,,,,,,,,,,,,,,,,,,,,,,,,,,,,,,,,,,,,,,,,,,,,,,,,,,,,,,,,,,,,,,,,,,,,,,,,,,,,,,,,,,,,,,,,,,,,,,,,,,,,,,,,,,,,,,,,,,,
,,,,,,606b0c7e02dae1504090f77c,62c5387930da34237653c7e3,2022-07-06_09h23.58.413,Colour_Asymmetry_Pilot,2022.1.3,Win32,61.36851795,62c50e9c1127f2cd403a315f,0,51,51,66,1,twoone,,,,,,,,,,,,,,,,,,,,,,,,,,,,,,,,,,,,,,,,,,,,,,,,,,,,,,,,,,,,,,,,,,,,,,,,,,,,,,,,,,,,,,,,,,,,,,,,,,,,,,,,,,,,,,,,,,,,,,,,,,,,,,,,,,,,,,,,,,,,,,,,,,,,,,,,,,,,,,
,,,,,,606b0c7e02dae1504090f77c,62c5387930da34237653c7e3,2022-07-06_09h23.58.413,Colour_Asymmetry_Pilot,2022.1.3,Win32,61.36851795,62c50e9c1127f2cd403a315f,0,52,52,69,1,threefour,,,,,,,,,,,,,,,,,,,,,,,,,,,,,,,,,,,,,,,,,,,,,,,,,,,,,,,,,,,,,,,,,,,,,,,,,,,,,,,,,,,,,,,,,,,,,,,,,,,,,,,,,,,,,,,,,,,,,,,,,,,,,,,,,,,,,,,,,,,,,,,,,,,,,,,,,,,,,,
,,,,,,606b0c7e02dae1504090f77c,62c5387930da34237653c7e3,2022-07-06_09h23.58.413,Colour_Asymmetry_Pilot,2022.1.3,Win32,61.36851795,62c50e9c1127f2cd403a315f,0,53,53,44,1,threeone,,,,,,,,,,,,,,,,,,,,,,,,,,,,,,,,,,,,,,,,,,,,,,,,,,,,,,,,,,,,,,,,,,,,,,,,,,,,,,,,,,,,,,,,,,,,,,,,,,,,,,,,,,,,,,,,,,,,,,,,,,,,,,,,,,,,,,,,,,,,,,,,,,,,,,,,,,,,,,
,,,,,,606b0c7e02dae1504090f77c,62c5387930da34237653c7e3,2022-07-06_09h23.58.413,Colour_Asymmetry_Pilot,2022.1.3,Win32,61.36851795,62c50e9c1127f2cd403a315f,0,54,54,88,1,onetwo,,,,,,,,,,,,,,,,,,,,,,,,,,,,,,,,,,,,,,,,,,,,,,,,,,,,,,,,,,,,,,,,,,,,,,,,,,,,,,,,,,,,,,,,,,,,,,,,,,,,,,,,,,,,,,,,,,,,,,,,,,,,,,,,,,,,,,,,,,,,,,,,,,,,,,,,,,,,,,
,,,,,,606b0c7e02dae1504090f77c,62c5387930da34237653c7e3,2022-07-06_09h23.58.413,Colour_Asymmetry_Pilot,2022.1.3,Win32,61.36851795,62c50e9c1127f2cd403a315f,0,55,55,87,1,fourthree,,,,,,,,,,,,,,,,,,,,,,,,,,,,,,,,,,,,,,,,,,,,,,,,,,,,,,,,,,,,,,,,,,,,,,,,,,,,,,,,,,,,,,,,,,,,,,,,,,,,,,,,,,,,,,,,,,,,,,,,,,,,,,,,,,,,,,,,,,,,,,,,,,,,,,,,,,,,,,
,,,,,,606b0c7e02dae1504090f77c,62c5387930da34237653c7e3,2022-07-06_09h23.58.413,Colour_Asymmetry_Pilot,2022.1.3,Win32,61.36851795,62c50e9c1127f2cd403a315f,0,56,56,71,1,fourthree,,,,,,,,,,,,,,,,,,,,,,,,,,,,,,,,,,,,,,,,,,,,,,,,,,,,,,,,,,,,,,,,,,,,,,,,,,,,,,,,,,,,,,,,,,,,,,,,,,,,,,,,,,,,,,,,,,,,,,,,,,,,,,,,,,,,,,,,,,,,,,,,,,,,,,,,,,,,,,
,,,,,,606b0c7e02dae1504090f77c,62c5387930da34237653c7e3,2022-07-06_09h23.58.413,Colour_Asymmetry_Pilot,2022.1.3,Win32,61.36851795,62c50e9c1127f2cd403a315f,0,57,57,136,1,onetwo,,,,,,,,,,,,,,,,,,,,,,,,,,,,,,,,,,,,,,,,,,,,,,,,,,,,,,,,,,,,,,,,,,,,,,,,,,,,,,,,,,,,,,,,,,,,,,,,,,,,,,,,,,,,,,,,,,,,,,,,,,,,,,,,,,,,,,,,,,,,,,,,,,,,,,,,,,,,,,
,,,,,,606b0c7e02dae1504090f77c,62c5387930da34237653c7e3,2022-07-06_09h23.58.413,Colour_Asymmetry_Pilot,2022.1.3,Win32,61.36851795,62c50e9c1127f2cd403a315f,0,58,58,122,1,twoone,,,,,,,,,,,,,,,,,,,,,,,,,,,,,,,,,,,,,,,,,,,,,,,,,,,,,,,,,,,,,,,,,,,,,,,,,,,,,,,,,,,,,,,,,,,,,,,,,,,,,,,,,,,,,,,,,,,,,,,,,,,,,,,,,,,,,,,,,,,,,,,,,,,,,,,,,,,,,,
,,,,,,606b0c7e02dae1504090f77c,62c5387930da34237653c7e3,2022-07-06_09h23.58.413,Colour_Asymmetry_Pilot,2022.1.3,Win32,61.36851795,62c50e9c1127f2cd403a315f,0,59,59,95,1,fourthree,,,,,,,,,,,,,,,,,,,,,,,,,,,,,,,,,,,,,,,,,,,,,,,,,,,,,,,,,,,,,,,,,,,,,,,,,,,,,,,,,,,,,,,,,,,,,,,,,,,,,,,,,,,,,,,,,,,,,,,,,,,,,,,,,,,,,,,,,,,,,,,,,,,,,,,,,,,,,,
,,,,,,606b0c7e02dae1504090f77c,62c5387930da34237653c7e3,2022-07-06_09h23.58.413,Colour_Asymmetry_Pilot,2022.1.3,Win32,61.36851795,62c50e9c1127f2cd403a315f,0,60,60,85,1,threefour,,,,,,,,,,,,,,,,,,,,,,,,,,,,,,,,,,,,,,,,,,,,,,,,,,,,,,,,,,,,,,,,,,,,,,,,,,,,,,,,,,,,,,,,,,,,,,,,,,,,,,,,,,,,,,,,,,,,,,,,,,,,,,,,,,,,,,,,,,,,,,,,,,,,,,,,,,,,,,
,,,,,,606b0c7e02dae1504090f77c,62c5387930da34237653c7e3,2022-07-06_09h23.58.413,Colour_Asymmetry_Pilot,2022.1.3,Win32,61.36851795,62c50e9c1127f2cd403a315f,0,61,61,146,1,twoone,,,,,,,,,,,,,,,,,,,,,,,,,,,,,,,,,,,,,,,,,,,,,,,,,,,,,,,,,,,,,,,,,,,,,,,,,,,,,,,,,,,,,,,,,,,,,,,,,,,,,,,,,,,,,,,,,,,,,,,,,,,,,,,,,,,,,,,,,,,,,,,,,,,,,,,,,,,,,,
,,,,,,606b0c7e02dae1504090f77c,62c5387930da34237653c7e3,2022-07-06_09h23.58.413,Colour_Asymmetry_Pilot,2022.1.3,Win32,61.36851795,62c50e9c1127f2cd403a315f,0,62,62,133,1,threefour,,,,,,,,,,,,,,,,,,,,,,,,,,,,,,,,,,,,,,,,,,,,,,,,,,,,,,,,,,,,,,,,,,,,,,,,,,,,,,,,,,,,,,,,,,,,,,,,,,,,,,,,,,,,,,,,,,,,,,,,,,,,,,,,,,,,,,,,,,,,,,,,,,,,,,,,,,,,,,
,,,,,,606b0c7e02dae1504090f77c,62c5387930da34237653c7e3,2022-07-06_09h23.58.413,Colour_Asymmetry_Pilot,2022.1.3,Win32,61.36851795,62c50e9c1127f2cd403a315f,0,63,63,113,1,onethree,,,,,,,,,,,,,,,,,,,,,,,,,,,,,,,,,,,,,,,,,,,,,,,,,,,,,,,,,,,,,,,,,,,,,,,,,,,,,,,,,,,,,,,,,,,,,,,,,,,,,,,,,,,,,,,,,,,,,,,,,,,,,,,,,,,,,,,,,,,,,,,,,,,,,,,,,,,,,,
,,,,,,606b0c7e02dae1504090f77c,62c5387930da34237653c7e3,2022-07-06_09h23.58.413,Colour_Asymmetry_Pilot,2022.1.3,Win32,61.36851795,62c50e9c1127f2cd403a315f,0,64,64,89,1,onethree,,,,,,,,,,,,,,,,,,,,,,,,,,,,,,,,,,,,,,,,,,,,,,,,,,,,,,,,,,,,,,,,,,,,,,,,,,,,,,,,,,,,,,,,,,,,,,,,,,,,,,,,,,,,,,,,,,,,,,,,,,,,,,,,,,,,,,,,,,,,,,,,,,,,,,,,,,,,,,
,,,,,,606b0c7e02dae1504090f77c,62c5387930da34237653c7e3,2022-07-06_09h23.58.413,Colour_Asymmetry_Pilot,2022.1.3,Win32,61.36851795,62c50e9c1127f2cd403a315f,0,65,65,15,1,fourthree,,,,,,,,,,,,,,,,,,,,,,,,,,,,,,,,,,,,,,,,,,,,,,,,,,,,,,,,,,,,,,,,,,,,,,,,,,,,,,,,,,,,,,,,,,,,,,,,,,,,,,,,,,,,,,,,,,,,,,,,,,,,,,,,,,,,,,,,,,,,,,,,,,,,,,,,,,,,,,
,,,,,,606b0c7e02dae1504090f77c,62c5387930da34237653c7e3,2022-07-06_09h23.58.413,Colour_Asymmetry_Pilot,2022.1.3,Win32,61.36851795,62c50e9c1127f2cd403a315f,0,66,66,161,1,onethree,,,,,,,,,,,,,,,,,,,,,,,,,,,,,,,,,,,,,,,,,,,,,,,,,,,,,,,,,,,,,,,,,,,,,,,,,,,,,,,,,,,,,,,,,,,,,,,,,,,,,,,,,,,,,,,,,,,,,,,,,,,,,,,,,,,,,,,,,,,,,,,,,,,,,,,,,,,,,,
,,,,,,606b0c7e02dae1504090f77c,62c5387930da34237653c7e3,2022-07-06_09h23.58.413,Colour_Asymmetry_Pilot,2022.1.3,Win32,61.36851795,62c50e9c1127f2cd403a315f,0,67,67,30,1,fourtwo,,,,,,,,,,,,,,,,,,,,,,,,,,,,,,,,,,,,,,,,,,,,,,,,,,,,,,,,,,,,,,,,,,,,,,,,,,,,,,,,,,,,,,,,,,,,,,,,,,,,,,,,,,,,,,,,,,,,,,,,,,,,,,,,,,,,,,,,,,,,,,,,,,,,,,,,,,,,,,
,,,,,,606b0c7e02dae1504090f77c,62c5387930da34237653c7e3,2022-07-06_09h23.58.413,Colour_Asymmetry_Pilot,2022.1.3,Win32,61.36851795,62c50e9c1127f2cd403a315f,0,68,68,37,1,threefour,,,,,,,,,,,,,,,,,,,,,,,,,,,,,,,,,,,,,,,,,,,,,,,,,,,,,,,,,,,,,,,,,,,,,,,,,,,,,,,,,,,,,,,,,,,,,,,,,,,,,,,,,,,,,,,,,,,,,,,,,,,,,,,,,,,,,,,,,,,,,,,,,,,,,,,,,,,,,,
,,,,,,606b0c7e02dae1504090f77c,62c5387930da34237653c7e3,2022-07-06_09h23.58.413,Colour_Asymmetry_Pilot,2022.1.3,Win32,61.36851795,62c50e9c1127f2cd403a315f,0,69,69,21,1,threefour,,,,,,,,,,,,,,,,,,,,,,,,,,,,,,,,,,,,,,,,,,,,,,,,,,,,,,,,,,,,,,,,,,,,,,,,,,,,,,,,,,,,,,,,,,,,,,,,,,,,,,,,,,,,,,,,,,,,,,,,,,,,,,,,,,,,,,,,,,,,,,,,,,,,,,,,,,,,,,
,,,,,,606b0c7e02dae1504090f77c,62c5387930da34237653c7e3,2022-07-06_09h23.58.413,Colour_Asymmetry_Pilot,2022.1.3,Win32,61.36851795,62c50e9c1127f2cd403a315f,0,70,70,29,1,threefour,,,,,,,,,,,,,,,,,,,,,,,,,,,,,,,,,,,,,,,,,,,,,,,,,,,,,,,,,,,,,,,,,,,,,,,,,,,,,,,,,,,,,,,,,,,,,,,,,,,,,,,,,,,,,,,,,,,,,,,,,,,,,,,,,,,,,,,,,,,,,,,,,,,,,,,,,,,,,,
,,,,,,606b0c7e02dae1504090f77c,62c5387930da34237653c7e3,2022-07-06_09h23.58.413,Colour_Asymmetry_Pilot,2022.1.3,Win32,61.36851795,62c50e9c1127f2cd403a315f,0,71,71,108,1,threeone,,,,,,,,,,,,,,,,,,,,,,,,,,,,,,,,,,,,,,,,,,,,,,,,,,,,,,,,,,,,,,,,,,,,,,,,,,,,,,,,,,,,,,,,,,,,,,,,,,,,,,,,,,,,,,,,,,,,,,,,,,,,,,,,,,,,,,,,,,,,,,,,,,,,,,,,,,,,,,
,,,,,,606b0c7e02dae1504090f77c,62c5387930da34237653c7e3,2022-07-06_09h23.58.413,Colour_Asymmetry_Pilot,2022.1.3,Win32,61.36851795,62c50e9c1127f2cd403a315f,0,72,72,42,1,twoone,,,,,,,,,,,,,,,,,,,,,,,,,,,,,,,,,,,,,,,,,,,,,,,,,,,,,,,,,,,,,,,,,,,,,,,,,,,,,,,,,,,,,,,,,,,,,,,,,,,,,,,,,,,,,,,,,,,,,,,,,,,,,,,,,,,,,,,,,,,,,,,,,,,,,,,,,,,,,,
,,,,,,606b0c7e02dae1504090f77c,62c5387930da34237653c7e3,2022-07-06_09h23.58.413,Colour_Asymmetry_Pilot,2022.1.3,Win32,61.36851795,62c50e9c1127f2cd403a315f,0,73,73,77,1,threefour,,,,,,,,,,,,,,,,,,,,,,,,,,,,,,,,,,,,,,,,,,,,,,,,,,,,,,,,,,,,,,,,,,,,,,,,,,,,,,,,,,,,,,,,,,,,,,,,,,,,,,,,,,,,,,,,,,,,,,,,,,,,,,,,,,,,,,,,,,,,,,,,,,,,,,,,,,,,,,
,,,,,,606b0c7e02dae1504090f77c,62c5387930da34237653c7e3,2022-07-06_09h23.58.413,Colour_Asymmetry_Pilot,2022.1.3,Win32,61.36851795,62c50e9c1127f2cd403a315f,0,74,74,68,1,threeone,,,,,,,,,,,,,,,,,,,,,,,,,,,,,,,,,,,,,,,,,,,,,,,,,,,,,,,,,,,,,,,,,,,,,,,,,,,,,,,,,,,,,,,,,,,,,,,,,,,,,,,,,,,,,,,,,,,,,,,,,,,,,,,,,,,,,,,,,,,,,,,,,,,,,,,,,,,,,,
,,,,,,606b0c7e02dae1504090f77c,62c5387930da34237653c7e3,2022-07-06_09h23.58.413,Colour_Asymmetry_Pilot,2022.1.3,Win32,61.36851795,62c50e9c1127f2cd403a315f,0,75,75,67,1,twofour,,,,,,,,,,,,,,,,,,,,,,,,,,,,,,,,,,,,,,,,,,,,,,,,,,,,,,,,,,,,,,,,,,,,,,,,,,,,,,,,,,,,,,,,,,,,,,,,,,,,,,,,,,,,,,,,,,,,,,,,,,,,,,,,,,,,,,,,,,,,,,,,,,,,,,,,,,,,,,
,,,,,,606b0c7e02dae1504090f77c,62c5387930da34237653c7e3,2022-07-06_09h23.58.413,Colour_Asymmetry_Pilot,2022.1.3,Win32,61.36851795,62c50e9c1127f2cd403a315f,0,76,76,16,1,onetwo,,,,,,,,,,,,,,,,,,,,,,,,,,,,,,,,,,,,,,,,,,,,,,,,,,,,,,,,,,,,,,,,,,,,,,,,,,,,,,,,,,,,,,,,,,,,,,,,,,,,,,,,,,,,,,,,,,,,,,,,,,,,,,,,,,,,,,,,,,,,,,,,,,,,,,,,,,,,,,
,,,,,,606b0c7e02dae1504090f77c,62c5387930da34237653c7e3,2022-07-06_09h23.58.413,Colour_Asymmetry_Pilot,2022.1.3,Win32,61.36851795,62c50e9c1127f2cd403a315f,0,77,77,9,1,onethree,,,,,,,,,,,,,,,,,,,,,,,,,,,,,,,,,,,,,,,,,,,,,,,,,,,,,,,,,,,,,,,,,,,,,,,,,,,,,,,,,,,,,,,,,,,,,,,,,,,,,,,,,,,,,,,,,,,,,,,,,,,,,,,,,,,,,,,,,,,,,,,,,,,,,,,,,,,,,,
,,,,,,606b0c7e02dae1504090f77c,62c5387930da34237653c7e3,2022-07-06_09h23.58.413,Colour_Asymmetry_Pilot,2022.1.3,Win32,61.36851795,62c50e9c1127f2cd403a315f,0,78,78,6,1,fourtwo,,,,,,,,,,,,,,,,,,,,,,,,,,,,,,,,,,,,,,,,,,,,,,,,,,,,,,,,,,,,,,,,,,,,,,,,,,,,,,,,,,,,,,,,,,,,,,,,,,,,,,,,,,,,,,,,,,,,,,,,,,,,,,,,,,,,,,,,,,,,,,,,,,,,,,,,,,,,,,
,,,,,,606b0c7e02dae1504090f77c,62c5387930da34237653c7e3,2022-07-06_09h23.58.413,Colour_Asymmetry_Pilot,2022.1.3,Win32,61.36851795,62c50e9c1127f2cd403a315f,0,79,79,132,1,threeone,,,,,,,,,,,,,,,,,,,,,,,,,,,,,,,,,,,,,,,,,,,,,,,,,,,,,,,,,,,,,,,,,,,,,,,,,,,,,,,,,,,,,,,,,,,,,,,,,,,,,,,,,,,,,,,,,,,,,,,,,,,,,,,,,,,,,,,,,,,,,,,,,,,,,,,,,,,,,,
,,,,,,606b0c7e02dae1504090f77c,62c5387930da34237653c7e3,2022-07-06_09h23.58.413,Colour_Asymmetry_Pilot,2022.1.3,Win32,61.36851795,62c50e9c1127f2cd403a315f,0,80,80,114,1,twoone,,,,,,,,,,,,,,,,,,,,,,,,,,,,,,,,,,,,,,,,,,,,,,,,,,,,,,,,,,,,,,,,,,,,,,,,,,,,,,,,,,,,,,,,,,,,,,,,,,,,,,,,,,,,,,,,,,,,,,,,,,,,,,,,,,,,,,,,,,,,,,,,,,,,,,,,,,,,,,
,,,,,,606b0c7e02dae1504090f77c,62c5387930da34237653c7e3,2022-07-06_09h23.58.413,Colour_Asymmetry_Pilot,2022.1.3,Win32,61.36851795,62c50e9c1127f2cd403a315f,0,81,81,124,1,threeone,,,,,,,,,,,,,,,,,,,,,,,,,,,,,,,,,,,,,,,,,,,,,,,,,,,,,,,,,,,,,,,,,,,,,,,,,,,,,,,,,,,,,,,,,,,,,,,,,,,,,,,,,,,,,,,,,,,,,,,,,,,,,,,,,,,,,,,,,,,,,,,,,,,,,,,,,,,,,,
,,,,,,606b0c7e02dae1504090f77c,62c5387930da34237653c7e3,2022-07-06_09h23.58.413,Colour_Asymmetry_Pilot,2022.1.3,Win32,61.36851795,62c50e9c1127f2cd403a315f,0,82,82,158,1,fourtwo,,,,,,,,,,,,,,,,,,,,,,,,,,,,,,,,,,,,,,,,,,,,,,,,,,,,,,,,,,,,,,,,,,,,,,,,,,,,,,,,,,,,,,,,,,,,,,,,,,,,,,,,,,,,,,,,,,,,,,,,,,,,,,,,,,,,,,,,,,,,,,,,,,,,,,,,,,,,,,
,,,,,,606b0c7e02dae1504090f77c,62c5387930da34237653c7e3,2022-07-06_09h23.58.413,Colour_Asymmetry_Pilot,2022.1.3,Win32,61.36851795,62c50e9c1127f2cd403a315f,0,83,83,41,1,onethree,,,,,,,,,,,,,,,,,,,,,,,,,,,,,,,,,,,,,,,,,,,,,,,,,,,,,,,,,,,,,,,,,,,,,,,,,,,,,,,,,,,,,,,,,,,,,,,,,,,,,,,,,,,,,,,,,,,,,,,,,,,,,,,,,,,,,,,,,,,,,,,,,,,,,,,,,,,,,,
,,,,,,606b0c7e02dae1504090f77c,62c5387930da34237653c7e3,2022-07-06_09h23.58.413,Colour_Asymmetry_Pilot,2022.1.3,Win32,61.36851795,62c50e9c1127f2cd403a315f,0,84,84,155,1,twofour,,,,,,,,,,,,,,,,,,,,,,,,,,,,,,,,,,,,,,,,,,,,,,,,,,,,,,,,,,,,,,,,,,,,,,,,,,,,,,,,,,,,,,,,,,,,,,,,,,,,,,,,,,,,,,,,,,,,,,,,,,,,,,,,,,,,,,,,,,,,,,,,,,,,,,,,,,,,,,
,,,,,,606b0c7e02dae1504090f77c,62c5387930da34237653c7e3,2022-07-06_09h23.58.413,Colour_Asymmetry_Pilot,2022.1.3,Win32,61.36851795,62c50e9c1127f2cd403a315f,0,85,85,75,1,twofour,,,,,,,,,,,,,,,,,,,,,,,,,,,,,,,,,,,,,,,,,,,,,,,,,,,,,,,,,,,,,,,,,,,,,,,,,,,,,,,,,,,,,,,,,,,,,,,,,,,,,,,,,,,,,,,,,,,,,,,,,,,,,,,,,,,,,,,,,,,,,,,,,,,,,,,,,,,,,,
,,,,,,606b0c7e02dae1504090f77c,62c5387930da34237653c7e3,2022-07-06_09h23.58.413,Colour_Asymmetry_Pilot,2022.1.3,Win32,61.36851795,62c50e9c1127f2cd403a315f,0,86,86,142,1,fourtwo,,,,,,,,,,,,,,,,,,,,,,,,,,,,,,,,,,,,,,,,,,,,,,,,,,,,,,,,,,,,,,,,,,,,,,,,,,,,,,,,,,,,,,,,,,,,,,,,,,,,,,,,,,,,,,,,,,,,,,,,,,,,,,,,,,,,,,,,,,,,,,,,,,,,,,,,,,,,,,
,,,,,,606b0c7e02dae1504090f77c,62c5387930da34237653c7e3,2022-07-06_09h23.58.413,Colour_Asymmetry_Pilot,2022.1.3,Win32,61.36851795,62c50e9c1127f2cd403a315f,0,87,87,152,1,onetwo,,,,,,,,,,,,,,,,,,,,,,,,,,,,,,,,,,,,,,,,,,,,,,,,,,,,,,,,,,,,,,,,,,,,,,,,,,,,,,,,,,,,,,,,,,,,,,,,,,,,,,,,,,,,,,,,,,,,,,,,,,,,,,,,,,,,,,,,,,,,,,,,,,,,,,,,,,,,,,
,,,,,,606b0c7e02dae1504090f77c,62c5387930da34237653c7e3,2022-07-06_09h23.58.413,Colour_Asymmetry_Pilot,2022.1.3,Win32,61.36851795,62c50e9c1127f2cd403a315f,0,88,88,53,1,threefour,,,,,,,,,,,,,,,,,,,,,,,,,,,,,,,,,,,,,,,,,,,,,,,,,,,,,,,,,,,,,,,,,,,,,,,,,,,,,,,,,,,,,,,,,,,,,,,,,,,,,,,,,,,,,,,,,,,,,,,,,,,,,,,,,,,,,,,,,,,,,,,,,,,,,,,,,,,,,,
,,,,,,606b0c7e02dae1504090f77c,62c5387930da34237653c7e3,2022-07-06_09h23.58.413,Colour_Asymmetry_Pilot,2022.1.3,Win32,61.36851795,62c50e9c1127f2cd403a315f,0,89,89,149,1,threefour,,,,,,,,,,,,,,,,,,,,,,,,,,,,,,,,,,,,,,,,,,,,,,,,,,,,,,,,,,,,,,,,,,,,,,,,,,,,,,,,,,,,,,,,,,,,,,,,,,,,,,,,,,,,,,,,,,,,,,,,,,,,,,,,,,,,,,,,,,,,,,,,,,,,,,,,,,,,,,
,,,,,,606b0c7e02dae1504090f77c,62c5387930da34237653c7e3,2022-07-06_09h23.58.413,Colour_Asymmetry_Pilot,2022.1.3,Win32,61.36851795,62c50e9c1127f2cd403a315f,0,90,90,107,1,twofour,,,,,,,,,,,,,,,,,,,,,,,,,,,,,,,,,,,,,,,,,,,,,,,,,,,,,,,,,,,,,,,,,,,,,,,,,,,,,,,,,,,,,,,,,,,,,,,,,,,,,,,,,,,,,,,,,,,,,,,,,,,,,,,,,,,,,,,,,,,,,,,,,,,,,,,,,,,,,,
,,,,,,606b0c7e02dae1504090f77c,62c5387930da34237653c7e3,2022-07-06_09h23.58.413,Colour_Asymmetry_Pilot,2022.1.3,Win32,61.36851795,62c50e9c1127f2cd403a315f,0,91,91,57,1,onethree,,,,,,,,,,,,,,,,,,,,,,,,,,,,,,,,,,,,,,,,,,,,,,,,,,,,,,,,,,,,,,,,,,,,,,,,,,,,,,,,,,,,,,,,,,,,,,,,,,,,,,,,,,,,,,,,,,,,,,,,,,,,,,,,,,,,,,,,,,,,,,,,,,,,,,,,,,,,,,
,,,,,,606b0c7e02dae1504090f77c,62c5387930da34237653c7e3,2022-07-06_09h23.58.413,Colour_Asymmetry_Pilot,2022.1.3,Win32,61.36851795,62c50e9c1127f2cd403a315f,0,92,92,78,1,fourtwo,,,,,,,,,,,,,,,,,,,,,,,,,,,,,,,,,,,,,,,,,,,,,,,,,,,,,,,,,,,,,,,,,,,,,,,,,,,,,,,,,,,,,,,,,,,,,,,,,,,,,,,,,,,,,,,,,,,,,,,,,,,,,,,,,,,,,,,,,,,,,,,,,,,,,,,,,,,,,,
,,,,,,606b0c7e02dae1504090f77c,62c5387930da34237653c7e3,2022-07-06_09h23.58.413,Colour_Asymmetry_Pilot,2022.1.3,Win32,61.36851795,62c50e9c1127f2cd403a315f,0,93,93,19,1,twofour,,,,,,,,,,,,,,,,,,,,,,,,,,,,,,,,,,,,,,,,,,,,,,,,,,,,,,,,,,,,,,,,,,,,,,,,,,,,,,,,,,,,,,,,,,,,,,,,,,,,,,,,,,,,,,,,,,,,,,,,,,,,,,,,,,,,,,,,,,,,,,,,,,,,,,,,,,,,,,
,,,,,,606b0c7e02dae1504090f77c,62c5387930da34237653c7e3,2022-07-06_09h23.58.413,Colour_Asymmetry_Pilot,2022.1.3,Win32,61.36851795,62c50e9c1127f2cd403a315f,0,94,94,11,1,twofour,,,,,,,,,,,,,,,,,,,,,,,,,,,,,,,,,,,,,,,,,,,,,,,,,,,,,,,,,,,,,,,,,,,,,,,,,,,,,,,,,,,,,,,,,,,,,,,,,,,,,,,,,,,,,,,,,,,,,,,,,,,,,,,,,,,,,,,,,,,,,,,,,,,,,,,,,,,,,,
,,,,,,606b0c7e02dae1504090f77c,62c5387930da34237653c7e3,2022-07-06_09h23.58.413,Colour_Asymmetry_Pilot,2022.1.3,Win32,61.36851795,62c50e9c1127f2cd403a315f,0,95,95,100,1,threeone,,,,,,,,,,,,,,,,,,,,,,,,,,,,,,,,,,,,,,,,,,,,,,,,,,,,,,,,,,,,,,,,,,,,,,,,,,,,,,,,,,,,,,,,,,,,,,,,,,,,,,,,,,,,,,,,,,,,,,,,,,,,,,,,,,,,,,,,,,,,,,,,,,,,,,,,,,,,,,
,,,,,,606b0c7e02dae1504090f77c,62c5387930da34237653c7e3,2022-07-06_09h23.58.413,Colour_Asymmetry_Pilot,2022.1.3,Win32,61.36851795,62c50e9c1127f2cd403a315f,0,96,96,90,1,twoone,,,,,,,,,,,,,,,,,,,,,,,,,,,,,,,,,,,,,,,,,,,,,,,,,,,,,,,,,,,,,,,,,,,,,,,,,,,,,,,,,,,,,,,,,,,,,,,,,,,,,,,,,,,,,,,,,,,,,,,,,,,,,,,,,,,,,,,,,,,,,,,,,,,,,,,,,,,,,,
,,,,,,606b0c7e02dae1504090f77c,62c5387930da34237653c7e3,2022-07-06_09h23.58.413,Colour_Asymmetry_Pilot,2022.1.3,Win32,61.36851795,62c50e9c1127f2cd403a315f,0,97,97,5,1,threefour,,,,,,,,,,,,,,,,,,,,,,,,,,,,,,,,,,,,,,,,,,,,,,,,,,,,,,,,,,,,,,,,,,,,,,,,,,,,,,,,,,,,,,,,,,,,,,,,,,,,,,,,,,,,,,,,,,,,,,,,,,,,,,,,,,,,,,,,,,,,,,,,,,,,,,,,,,,,,,
,,,,,,606b0c7e02dae1504090f77c,62c5387930da34237653c7e3,2022-07-06_09h23.58.413,Colour_Asymmetry_Pilot,2022.1.3,Win32,61.36851795,62c50e9c1127f2cd403a315f,0,98,98,48,1,onetwo,,,,,,,,,,,,,,,,,,,,,,,,,,,,,,,,,,,,,,,,,,,,,,,,,,,,,,,,,,,,,,,,,,,,,,,,,,,,,,,,,,,,,,,,,,,,,,,,,,,,,,,,,,,,,,,,,,,,,,,,,,,,,,,,,,,,,,,,,,,,,,,,,,,,,,,,,,,,,,
,,,,,,606b0c7e02dae1504090f77c,62c5387930da34237653c7e3,2022-07-06_09h23.58.413,Colour_Asymmetry_Pilot,2022.1.3,Win32,61.36851795,62c50e9c1127f2cd403a315f,0,99,99,49,1,onethree,,,,,,,,,,,,,,,,,,,,,,,,,,,,,,,,,,,,,,,,,,,,,,,,,,,,,,,,,,,,,,,,,,,,,,,,,,,,,,,,,,,,,,,,,,,,,,,,,,,,,,,,,,,,,,,,,,,,,,,,,,,,,,,,,,,,,,,,,,,,,,,,,,,,,,,,,,,,,,
,,,,,,606b0c7e02dae1504090f77c,62c5387930da34237653c7e3,2022-07-06_09h23.58.413,Colour_Asymmetry_Pilot,2022.1.3,Win32,61.36851795,62c50e9c1127f2cd403a315f,0,100,100,112,1,onetwo,,,,,,,,,,,,,,,,,,,,,,,,,,,,,,,,,,,,,,,,,,,,,,,,,,,,,,,,,,,,,,,,,,,,,,,,,,,,,,,,,,,,,,,,,,,,,,,,,,,,,,,,,,,,,,,,,,,,,,,,,,,,,,,,,,,,,,,,,,,,,,,,,,,,,,,,,,,,,,
,,,,,,606b0c7e02dae1504090f77c,62c5387930da34237653c7e3,2022-07-06_09h23.58.413,Colour_Asymmetry_Pilot,2022.1.3,Win32,61.36851795,62c50e9c1127f2cd403a315f,0,101,101,35,1,twofour,,,,,,,,,,,,,,,,,,,,,,,,,,,,,,,,,,,,,,,,,,,,,,,,,,,,,,,,,,,,,,,,,,,,,,,,,,,,,,,,,,,,,,,,,,,,,,,,,,,,,,,,,,,,,,,,,,,,,,,,,,,,,,,,,,,,,,,,,,,,,,,,,,,,,,,,,,,,,,
,,,,,,606b0c7e02dae1504090f77c,62c5387930da34237653c7e3,2022-07-06_09h23.58.413,Colour_Asymmetry_Pilot,2022.1.3,Win32,61.36851795,62c50e9c1127f2cd403a315f,0,102,102,139,1,twofour,,,,,,,,,,,,,,,,,,,,,,,,,,,,,,,,,,,,,,,,,,,,,,,,,,,,,,,,,,,,,,,,,,,,,,,,,,,,,,,,,,,,,,,,,,,,,,,,,,,,,,,,,,,,,,,,,,,,,,,,,,,,,,,,,,,,,,,,,,,,,,,,,,,,,,,,,,,,,,
,,,,,,606b0c7e02dae1504090f77c,62c5387930da34237653c7e3,2022-07-06_09h23.58.413,Colour_Asymmetry_Pilot,2022.1.3,Win32,61.36851795,62c50e9c1127f2cd403a315f,0,103,103,46,1,fourtwo,,,,,,,,,,,,,,,,,,,,,,,,,,,,,,,,,,,,,,,,,,,,,,,,,,,,,,,,,,,,,,,,,,,,,,,,,,,,,,,,,,,,,,,,,,,,,,,,,,,,,,,,,,,,,,,,,,,,,,,,,,,,,,,,,,,,,,,,,,,,,,,,,,,,,,,,,,,,,,
,,,,,,606b0c7e02dae1504090f77c,62c5387930da34237653c7e3,2022-07-06_09h23.58.413,Colour_Asymmetry_Pilot,2022.1.3,Win32,61.36851795,62c50e9c1127f2cd403a315f,0,104,104,129,1,onethree,,,,,,,,,,,,,,,,,,,,,,,,,,,,,,,,,,,,,,,,,,,,,,,,,,,,,,,,,,,,,,,,,,,,,,,,,,,,,,,,,,,,,,,,,,,,,,,,,,,,,,,,,,,,,,,,,,,,,,,,,,,,,,,,,,,,,,,,,,,,,,,,,,,,,,,,,,,,,,
,,,,,,606b0c7e02dae1504090f77c,62c5387930da34237653c7e3,2022-07-06_09h23.58.413,Colour_Asymmetry_Pilot,2022.1.3,Win32,61.36851795,62c50e9c1127f2cd403a315f,0,105,105,3,1,twofour,,,,,,,,,,,,,,,,,,,,,,,,,,,,,,,,,,,,,,,,,,,,,,,,,,,,,,,,,,,,,,,,,,,,,,,,,,,,,,,,,,,,,,,,,,,,,,,,,,,,,,,,,,,,,,,,,,,,,,,,,,,,,,,,,,,,,,,,,,,,,,,,,,,,,,,,,,,,,,
,,,,,,606b0c7e02dae1504090f77c,62c5387930da34237653c7e3,2022-07-06_09h23.58.413,Colour_Asymmetry_Pilot,2022.1.3,Win32,61.36851795,62c50e9c1127f2cd403a315f,0,106,106,31,1,fourthree,,,,,,,,,,,,,,,,,,,,,,,,,,,,,,,,,,,,,,,,,,,,,,,,,,,,,,,,,,,,,,,,,,,,,,,,,,,,,,,,,,,,,,,,,,,,,,,,,,,,,,,,,,,,,,,,,,,,,,,,,,,,,,,,,,,,,,,,,,,,,,,,,,,,,,,,,,,,,,
,,,,,,606b0c7e02dae1504090f77c,62c5387930da34237653c7e3,2022-07-06_09h23.58.413,Colour_Asymmetry_Pilot,2022.1.3,Win32,61.36851795,62c50e9c1127f2cd403a315f,0,107,107,130,1,twoone,,,,,,,,,,,,,,,,,,,,,,,,,,,,,,,,,,,,,,,,,,,,,,,,,,,,,,,,,,,,,,,,,,,,,,,,,,,,,,,,,,,,,,,,,,,,,,,,,,,,,,,,,,,,,,,,,,,,,,,,,,,,,,,,,,,,,,,,,,,,,,,,,,,,,,,,,,,,,,
,,,,,,606b0c7e02dae1504090f77c,62c5387930da34237653c7e3,2022-07-06_09h23.58.413,Colour_Asymmetry_Pilot,2022.1.3,Win32,61.36851795,62c50e9c1127f2cd403a315f,0,108,108,26,1,twoone,,,,,,,,,,,,,,,,,,,,,,,,,,,,,,,,,,,,,,,,,,,,,,,,,,,,,,,,,,,,,,,,,,,,,,,,,,,,,,,,,,,,,,,,,,,,,,,,,,,,,,,,,,,,,,,,,,,,,,,,,,,,,,,,,,,,,,,,,,,,,,,,,,,,,,,,,,,,,,
,,,,,,606b0c7e02dae1504090f77c,62c5387930da34237653c7e3,2022-07-06_09h23.58.413,Colour_Asymmetry_Pilot,2022.1.3,Win32,61.36851795,62c50e9c1127f2cd403a315f,0,109,109,80,1,onetwo,,,,,,,,,,,,,,,,,,,,,,,,,,,,,,,,,,,,,,,,,,,,,,,,,,,,,,,,,,,,,,,,,,,,,,,,,,,,,,,,,,,,,,,,,,,,,,,,,,,,,,,,,,,,,,,,,,,,,,,,,,,,,,,,,,,,,,,,,,,,,,,,,,,,,,,,,,,,,,
,,,,,,606b0c7e02dae1504090f77c,62c5387930da34237653c7e3,2022-07-06_09h23.58.413,Colour_Asymmetry_Pilot,2022.1.3,Win32,61.36851795,62c50e9c1127f2cd403a315f,0,110,110,13,1,threefour,,,,,,,,,,,,,,,,,,,,,,,,,,,,,,,,,,,,,,,,,,,,,,,,,,,,,,,,,,,,,,,,,,,,,,,,,,,,,,,,,,,,,,,,,,,,,,,,,,,,,,,,,,,,,,,,,,,,,,,,,,,,,,,,,,,,,,,,,,,,,,,,,,,,,,,,,,,,,,
,,,,,,606b0c7e02dae1504090f77c,62c5387930da34237653c7e3,2022-07-06_09h23.58.413,Colour_Asymmetry_Pilot,2022.1.3,Win32,61.36851795,62c50e9c1127f2cd403a315f,0,111,111,39,1,fourthree,,,,,,,,,,,,,,,,,,,,,,,,,,,,,,,,,,,,,,,,,,,,,,,,,,,,,,,,,,,,,,,,,,,,,,,,,,,,,,,,,,,,,,,,,,,,,,,,,,,,,,,,,,,,,,,,,,,,,,,,,,,,,,,,,,,,,,,,,,,,,,,,,,,,,,,,,,,,,,
,,,,,,606b0c7e02dae1504090f77c,62c5387930da34237653c7e3,2022-07-06_09h23.58.413,Colour_Asymmetry_Pilot,2022.1.3,Win32,61.36851795,62c50e9c1127f2cd403a315f,0,112,112,138,1,twoone,,,,,,,,,,,,,,,,,,,,,,,,,,,,,,,,,,,,,,,,,,,,,,,,,,,,,,,,,,,,,,,,,,,,,,,,,,,,,,,,,,,,,,,,,,,,,,,,,,,,,,,,,,,,,,,,,,,,,,,,,,,,,,,,,,,,,,,,,,,,,,,,,,,,,,,,,,,,,,
,,,,,,606b0c7e02dae1504090f77c,62c5387930da34237653c7e3,2022-07-06_09h23.58.413,Colour_Asymmetry_Pilot,2022.1.3,Win32,61.36851795,62c50e9c1127f2cd403a315f,0,113,113,22,1,fourtwo,,,,,,,,,,,,,,,,,,,,,,,,,,,,,,,,,,,,,,,,,,,,,,,,,,,,,,,,,,,,,,,,,,,,,,,,,,,,,,,,,,,,,,,,,,,,,,,,,,,,,,,,,,,,,,,,,,,,,,,,,,,,,,,,,,,,,,,,,,,,,,,,,,,,,,,,,,,,,,
,,,,,,606b0c7e02dae1504090f77c,62c5387930da34237653c7e3,2022-07-06_09h23.58.413,Colour_Asymmetry_Pilot,2022.1.3,Win32,61.36851795,62c50e9c1127f2cd403a315f,0,114,114,119,1,fourthree,,,,,,,,,,,,,,,,,,,,,,,,,,,,,,,,,,,,,,,,,,,,,,,,,,,,,,,,,,,,,,,,,,,,,,,,,,,,,,,,,,,,,,,,,,,,,,,,,,,,,,,,,,,,,,,,,,,,,,,,,,,,,,,,,,,,,,,,,,,,,,,,,,,,,,,,,,,,,,
,,,,,,606b0c7e02dae1504090f77c,62c5387930da34237653c7e3,2022-07-06_09h23.58.413,Colour_Asymmetry_Pilot,2022.1.3,Win32,61.36851795,62c50e9c1127f2cd403a315f,0,115,115,157,1,threefour,,,,,,,,,,,,,,,,,,,,,,,,,,,,,,,,,,,,,,,,,,,,,,,,,,,,,,,,,,,,,,,,,,,,,,,,,,,,,,,,,,,,,,,,,,,,,,,,,,,,,,,,,,,,,,,,,,,,,,,,,,,,,,,,,,,,,,,,,,,,,,,,,,,,,,,,,,,,,,
,,,,,,606b0c7e02dae1504090f77c,62c5387930da34237653c7e3,2022-07-06_09h23.58.413,Colour_Asymmetry_Pilot,2022.1.3,Win32,61.36851795,62c50e9c1127f2cd403a315f,0,116,116,128,1,onetwo,,,,,,,,,,,,,,,,,,,,,,,,,,,,,,,,,,,,,,,,,,,,,,,,,,,,,,,,,,,,,,,,,,,,,,,,,,,,,,,,,,,,,,,,,,,,,,,,,,,,,,,,,,,,,,,,,,,,,,,,,,,,,,,,,,,,,,,,,,,,,,,,,,,,,,,,,,,,,,
,,,,,,606b0c7e02dae1504090f77c,62c5387930da34237653c7e3,2022-07-06_09h23.58.413,Colour_Asymmetry_Pilot,2022.1.3,Win32,61.36851795,62c50e9c1127f2cd403a315f,0,117,117,118,1,fourtwo,,,,,,,,,,,,,,,,,,,,,,,,,,,,,,,,,,,,,,,,,,,,,,,,,,,,,,,,,,,,,,,,,,,,,,,,,,,,,,,,,,,,,,,,,,,,,,,,,,,,,,,,,,,,,,,,,,,,,,,,,,,,,,,,,,,,,,,,,,,,,,,,,,,,,,,,,,,,,,
,,,,,,606b0c7e02dae1504090f77c,62c5387930da34237653c7e3,2022-07-06_09h23.58.413,Colour_Asymmetry_Pilot,2022.1.3,Win32,61.36851795,62c50e9c1127f2cd403a315f,0,118,118,92,1,threeone,,,,,,,,,,,,,,,,,,,,,,,,,,,,,,,,,,,,,,,,,,,,,,,,,,,,,,,,,,,,,,,,,,,,,,,,,,,,,,,,,,,,,,,,,,,,,,,,,,,,,,,,,,,,,,,,,,,,,,,,,,,,,,,,,,,,,,,,,,,,,,,,,,,,,,,,,,,,,,
,,,,,,606b0c7e02dae1504090f77c,62c5387930da34237653c7e3,2022-07-06_09h23.58.413,Colour_Asymmetry_Pilot,2022.1.3,Win32,61.36851795,62c50e9c1127f2cd403a315f,0,119,119,115,1,twofour,,,,,,,,,,,,,,,,,,,,,,,,,,,,,,,,,,,,,,,,,,,,,,,,,,,,,,,,,,,,,,,,,,,,,,,,,,,,,,,,,,,,,,,,,,,,,,,,,,,,,,,,,,,,,,,,,,,,,,,,,,,,,,,,,,,,,,,,,,,,,,,,,,,,,,,,,,,,,,
,,,,,,606b0c7e02dae1504090f77c,62c5387930da34237653c7e3,2022-07-06_09h23.58.413,Colour_Asymmetry_Pilot,2022.1.3,Win32,61.36851795,62c50e9c1127f2cd403a315f,0,120,120,50,1,twoone,,,,,,,,,,,,,,,,,,,,,,,,,,,,,,,,,,,,,,,,,,,,,,,,,,,,,,,,,,,,,,,,,,,,,,,,,,,,,,,,,,,,,,,,,,,,,,,,,,,,,,,,,,,,,,,,,,,,,,,,,,,,,,,,,,,,,,,,,,,,,,,,,,,,,,,,,,,,,,
,,,,,,606b0c7e02dae1504090f77c,62c5387930da34237653c7e3,2022-07-06_09h23.58.413,Colour_Asymmetry_Pilot,2022.1.3,Win32,61.36851795,62c50e9c1127f2cd403a315f,0,121,121,45,1,threefour,,,,,,,,,,,,,,,,,,,,,,,,,,,,,,,,,,,,,,,,,,,,,,,,,,,,,,,,,,,,,,,,,,,,,,,,,,,,,,,,,,,,,,,,,,,,,,,,,,,,,,,,,,,,,,,,,,,,,,,,,,,,,,,,,,,,,,,,,,,,,,,,,,,,,,,,,,,,,,
,,,,,,606b0c7e02dae1504090f77c,62c5387930da34237653c7e3,2022-07-06_09h23.58.413,Colour_Asymmetry_Pilot,2022.1.3,Win32,61.36851795,62c50e9c1127f2cd403a315f,0,122,122,86,1,fourtwo,,,,,,,,,,,,,,,,,,,,,,,,,,,,,,,,,,,,,,,,,,,,,,,,,,,,,,,,,,,,,,,,,,,,,,,,,,,,,,,,,,,,,,,,,,,,,,,,,,,,,,,,,,,,,,,,,,,,,,,,,,,,,,,,,,,,,,,,,,,,,,,,,,,,,,,,,,,,,,
,,,,,,606b0c7e02dae1504090f77c,62c5387930da34237653c7e3,2022-07-06_09h23.58.413,Colour_Asymmetry_Pilot,2022.1.3,Win32,61.36851795,62c50e9c1127f2cd403a315f,0,123,123,111,1,fourthree,,,,,,,,,,,,,,,,,,,,,,,,,,,,,,,,,,,,,,,,,,,,,,,,,,,,,,,,,,,,,,,,,,,,,,,,,,,,,,,,,,,,,,,,,,,,,,,,,,,,,,,,,,,,,,,,,,,,,,,,,,,,,,,,,,,,,,,,,,,,,,,,,,,,,,,,,,,,,,
,,,,,,606b0c7e02dae1504090f77c,62c5387930da34237653c7e3,2022-07-06_09h23.58.413,Colour_Asymmetry_Pilot,2022.1.3,Win32,61.36851795,62c50e9c1127f2cd403a315f,0,124,124,36,1,threeone,,,,,,,,,,,,,,,,,,,,,,,,,,,,,,,,,,,,,,,,,,,,,,,,,,,,,,,,,,,,,,,,,,,,,,,,,,,,,,,,,,,,,,,,,,,,,,,,,,,,,,,,,,,,,,,,,,,,,,,,,,,,,,,,,,,,,,,,,,,,,,,,,,,,,,,,,,,,,,
,,,,,,606b0c7e02dae1504090f77c,62c5387930da34237653c7e3,2022-07-06_09h23.58.413,Colour_Asymmetry_Pilot,2022.1.3,Win32,61.36851795,62c50e9c1127f2cd403a315f,0,125,125,28,1,threeone,,,,,,,,,,,,,,,,,,,,,,,,,,,,,,,,,,,,,,,,,,,,,,,,,,,,,,,,,,,,,,,,,,,,,,,,,,,,,,,,,,,,,,,,,,,,,,,,,,,,,,,,,,,,,,,,,,,,,,,,,,,,,,,,,,,,,,,,,,,,,,,,,,,,,,,,,,,,,,
,,,,,,606b0c7e02dae1504090f77c,62c5387930da34237653c7e3,2022-07-06_09h23.58.413,Colour_Asymmetry_Pilot,2022.1.3,Win32,61.36851795,62c50e9c1127f2cd403a315f,0,126,126,131,1,twofour,,,,,,,,,,,,,,,,,,,,,,,,,,,,,,,,,,,,,,,,,,,,,,,,,,,,,,,,,,,,,,,,,,,,,,,,,,,,,,,,,,,,,,,,,,,,,,,,,,,,,,,,,,,,,,,,,,,,,,,,,,,,,,,,,,,,,,,,,,,,,,,,,,,,,,,,,,,,,,
,,,,,,606b0c7e02dae1504090f77c,62c5387930da34237653c7e3,2022-07-06_09h23.58.413,Colour_Asymmetry_Pilot,2022.1.3,Win32,61.36851795,62c50e9c1127f2cd403a315f,0,127,127,143,1,fourthree,,,,,,,,,,,,,,,,,,,,,,,,,,,,,,,,,,,,,,,,,,,,,,,,,,,,,,,,,,,,,,,,,,,,,,,,,,,,,,,,,,,,,,,,,,,,,,,,,,,,,,,,,,,,,,,,,,,,,,,,,,,,,,,,,,,,,,,,,,,,,,,,,,,,,,,,,,,,,,
,,,,,,606b0c7e02dae1504090f77c,62c5387930da34237653c7e3,2022-07-06_09h23.58.413,Colour_Asymmetry_Pilot,2022.1.3,Win32,61.36851795,62c50e9c1127f2cd403a315f,0,128,128,145,1,onethree,,,,,,,,,,,,,,,,,,,,,,,,,,,,,,,,,,,,,,,,,,,,,,,,,,,,,,,,,,,,,,,,,,,,,,,,,,,,,,,,,,,,,,,,,,,,,,,,,,,,,,,,,,,,,,,,,,,,,,,,,,,,,,,,,,,,,,,,,,,,,,,,,,,,,,,,,,,,,,
,,,,,,606b0c7e02dae1504090f77c,62c5387930da34237653c7e3,2022-07-06_09h23.58.413,Colour_Asymmetry_Pilot,2022.1.3,Win32,61.36851795,62c50e9c1127f2cd403a315f,0,129,129,64,1,onetwo,,,,,,,,,,,,,,,,,,,,,,,,,,,,,,,,,,,,,,,,,,,,,,,,,,,,,,,,,,,,,,,,,,,,,,,,,,,,,,,,,,,,,,,,,,,,,,,,,,,,,,,,,,,,,,,,,,,,,,,,,,,,,,,,,,,,,,,,,,,,,,,,,,,,,,,,,,,,,,
,,,,,,606b0c7e02dae1504090f77c,62c5387930da34237653c7e3,2022-07-06_09h23.58.413,Colour_Asymmetry_Pilot,2022.1.3,Win32,61.36851795,62c50e9c1127f2cd403a315f,0,130,130,23,1,fourthree,,,,,,,,,,,,,,,,,,,,,,,,,,,,,,,,,,,,,,,,,,,,,,,,,,,,,,,,,,,,,,,,,,,,,,,,,,,,,,,,,,,,,,,,,,,,,,,,,,,,,,,,,,,,,,,,,,,,,,,,,,,,,,,,,,,,,,,,,,,,,,,,,,,,,,,,,,,,,,
,,,,,,606b0c7e02dae1504090f77c,62c5387930da34237653c7e3,2022-07-06_09h23.58.413,Colour_Asymmetry_Pilot,2022.1.3,Win32,61.36851795,62c50e9c1127f2cd403a315f,0,131,131,8,1,onetwo,,,,,,,,,,,,,,,,,,,,,,,,,,,,,,,,,,,,,,,,,,,,,,,,,,,,,,,,,,,,,,,,,,,,,,,,,,,,,,,,,,,,,,,,,,,,,,,,,,,,,,,,,,,,,,,,,,,,,,,,,,,,,,,,,,,,,,,,,,,,,,,,,,,,,,,,,,,,,,
,,,,,,606b0c7e02dae1504090f77c,62c5387930da34237653c7e3,2022-07-06_09h23.58.413,Colour_Asymmetry_Pilot,2022.1.3,Win32,61.36851795,62c50e9c1127f2cd403a315f,0,132,132,150,1,fourtwo,,,,,,,,,,,,,,,,,,,,,,,,,,,,,,,,,,,,,,,,,,,,,,,,,,,,,,,,,,,,,,,,,,,,,,,,,,,,,,,,,,,,,,,,,,,,,,,,,,,,,,,,,,,,,,,,,,,,,,,,,,,,,,,,,,,,,,,,,,,,,,,,,,,,,,,,,,,,,,
,,,,,,606b0c7e02dae1504090f77c,62c5387930da34237653c7e3,2022-07-06_09h23.58.413,Colour_Asymmetry_Pilot,2022.1.3,Win32,61.36851795,62c50e9c1127f2cd403a315f,0,133,133,103,1,fourthree,,,,,,,,,,,,,,,,,,,,,,,,,,,,,,,,,,,,,,,,,,,,,,,,,,,,,,,,,,,,,,,,,,,,,,,,,,,,,,,,,,,,,,,,,,,,,,,,,,,,,,,,,,,,,,,,,,,,,,,,,,,,,,,,,,,,,,,,,,,,,,,,,,,,,,,,,,,,,,
,,,,,,606b0c7e02dae1504090f77c,62c5387930da34237653c7e3,2022-07-06_09h23.58.413,Colour_Asymmetry_Pilot,2022.1.3,Win32,61.36851795,62c50e9c1127f2cd403a315f,0,134,134,84,1,threeone,,,,,,,,,,,,,,,,,,,,,,,,,,,,,,,,,,,,,,,,,,,,,,,,,,,,,,,,,,,,,,,,,,,,,,,,,,,,,,,,,,,,,,,,,,,,,,,,,,,,,,,,,,,,,,,,,,,,,,,,,,,,,,,,,,,,,,,,,,,,,,,,,,,,,,,,,,,,,,
,,,,,,606b0c7e02dae1504090f77c,62c5387930da34237653c7e3,2022-07-06_09h23.58.413,Colour_Asymmetry_Pilot,2022.1.3,Win32,61.36851795,62c50e9c1127f2cd403a315f,0,135,135,135,1,fourthree,,,,,,,,,,,,,,,,,,,,,,,,,,,,,,,,,,,,,,,,,,,,,,,,,,,,,,,,,,,,,,,,,,,,,,,,,,,,,,,,,,,,,,,,,,,,,,,,,,,,,,,,,,,,,,,,,,,,,,,,,,,,,,,,,,,,,,,,,,,,,,,,,,,,,,,,,,,,,,
,,,,,,606b0c7e02dae1504090f77c,62c5387930da34237653c7e3,2022-07-06_09h23.58.413,Colour_Asymmetry_Pilot,2022.1.3,Win32,61.36851795,62c50e9c1127f2cd403a315f,0,136,136,55,1,fourthree,,,,,,,,,,,,,,,,,,,,,,,,,,,,,,,,,,,,,,,,,,,,,,,,,,,,,,,,,,,,,,,,,,,,,,,,,,,,,,,,,,,,,,,,,,,,,,,,,,,,,,,,,,,,,,,,,,,,,,,,,,,,,,,,,,,,,,,,,,,,,,,,,,,,,,,,,,,,,,
,,,,,,606b0c7e02dae1504090f77c,62c5387930da34237653c7e3,2022-07-06_09h23.58.413,Colour_Asymmetry_Pilot,2022.1.3,Win32,61.36851795,62c50e9c1127f2cd403a315f,0,137,137,160,1,onetwo,,,,,,,,,,,,,,,,,,,,,,,,,,,,,,,,,,,,,,,,,,,,,,,,,,,,,,,,,,,,,,,,,,,,,,,,,,,,,,,,,,,,,,,,,,,,,,,,,,,,,,,,,,,,,,,,,,,,,,,,,,,,,,,,,,,,,,,,,,,,,,,,,,,,,,,,,,,,,,
,,,,,,606b0c7e02dae1504090f77c,62c5387930da34237653c7e3,2022-07-06_09h23.58.413,Colour_Asymmetry_Pilot,2022.1.3,Win32,61.36851795,62c50e9c1127f2cd403a315f,0,138,138,159,1,fourthree,,,,,,,,,,,,,,,,,,,,,,,,,,,,,,,,,,,,,,,,,,,,,,,,,,,,,,,,,,,,,,,,,,,,,,,,,,,,,,,,,,,,,,,,,,,,,,,,,,,,,,,,,,,,,,,,,,,,,,,,,,,,,,,,,,,,,,,,,,,,,,,,,,,,,,,,,,,,,,
,,,,,,606b0c7e02dae1504090f77c,62c5387930da34237653c7e3,2022-07-06_09h23.58.413,Colour_Asymmetry_Pilot,2022.1.3,Win32,61.36851795,62c50e9c1127f2cd403a315f,0,139,139,76,1,threeone,,,,,,,,,,,,,,,,,,,,,,,,,,,,,,,,,,,,,,,,,,,,,,,,,,,,,,,,,,,,,,,,,,,,,,,,,,,,,,,,,,,,,,,,,,,,,,,,,,,,,,,,,,,,,,,,,,,,,,,,,,,,,,,,,,,,,,,,,,,,,,,,,,,,,,,,,,,,,,
,,,,,,606b0c7e02dae1504090f77c,62c5387930da34237653c7e3,2022-07-06_09h23.58.413,Colour_Asymmetry_Pilot,2022.1.3,Win32,61.36851795,62c50e9c1127f2cd403a315f,0,140,140,74,1,twoone,,,,,,,,,,,,,,,,,,,,,,,,,,,,,,,,,,,,,,,,,,,,,,,,,,,,,,,,,,,,,,,,,,,,,,,,,,,,,,,,,,,,,,,,,,,,,,,,,,,,,,,,,,,,,,,,,,,,,,,,,,,,,,,,,,,,,,,,,,,,,,,,,,,,,,,,,,,,,,
,,,,,,606b0c7e02dae1504090f77c,62c5387930da34237653c7e3,2022-07-06_09h23.58.413,Colour_Asymmetry_Pilot,2022.1.3,Win32,61.36851795,62c50e9c1127f2cd403a315f,0,141,141,81,1,onethree,,,,,,,,,,,,,,,,,,,,,,,,,,,,,,,,,,,,,,,,,,,,,,,,,,,,,,,,,,,,,,,,,,,,,,,,,,,,,,,,,,,,,,,,,,,,,,,,,,,,,,,,,,,,,,,,,,,,,,,,,,,,,,,,,,,,,,,,,,,,,,,,,,,,,,,,,,,,,,
,,,,,,606b0c7e02dae1504090f77c,62c5387930da34237653c7e3,2022-07-06_09h23.58.413,Colour_Asymmetry_Pilot,2022.1.3,Win32,61.36851795,62c50e9c1127f2cd403a315f,0,142,142,12,1,threeone,,,,,,,,,,,,,,,,,,,,,,,,,,,,,,,,,,,,,,,,,,,,,,,,,,,,,,,,,,,,,,,,,,,,,,,,,,,,,,,,,,,,,,,,,,,,,,,,,,,,,,,,,,,,,,,,,,,,,,,,,,,,,,,,,,,,,,,,,,,,,,,,,,,,,,,,,,,,,,
,,,,,,606b0c7e02dae1504090f77c,62c5387930da34237653c7e3,2022-07-06_09h23.58.413,Colour_Asymmetry_Pilot,2022.1.3,Win32,61.36851795,62c50e9c1127f2cd403a315f,0,143,143,104,1,onetwo,,,,,,,,,,,,,,,,,,,,,,,,,,,,,,,,,,,,,,,,,,,,,,,,,,,,,,,,,,,,,,,,,,,,,,,,,,,,,,,,,,,,,,,,,,,,,,,,,,,,,,,,,,,,,,,,,,,,,,,,,,,,,,,,,,,,,,,,,,,,,,,,,,,,,,,,,,,,,,
,,,,,,606b0c7e02dae1504090f77c,62c5387930da34237653c7e3,2022-07-06_09h23.58.413,Colour_Asymmetry_Pilot,2022.1.3,Win32,61.36851795,62c50e9c1127f2cd403a315f,0,144,144,105,1,onethree,,,,,,,,,,,,,,,,,,,,,,,,,,,,,,,,,,,,,,,,,,,,,,,,,,,,,,,,,,,,,,,,,,,,,,,,,,,,,,,,,,,,,,,,,,,,,,,,,,,,,,,,,,,,,,,,,,,,,,,,,,,,,,,,,,,,,,,,,,,,,,,,,,,,,,,,,,,,,,
,,,,,,606b0c7e02dae1504090f77c,62c5387930da34237653c7e3,2022-07-06_09h23.58.413,Colour_Asymmetry_Pilot,2022.1.3,Win32,61.36851795,62c50e9c1127f2cd403a315f,0,145,145,54,1,fourtwo,,,,,,,,,,,,,,,,,,,,,,,,,,,,,,,,,,,,,,,,,,,,,,,,,,,,,,,,,,,,,,,,,,,,,,,,,,,,,,,,,,,,,,,,,,,,,,,,,,,,,,,,,,,,,,,,,,,,,,,,,,,,,,,,,,,,,,,,,,,,,,,,,,,,,,,,,,,,,,
,,,,,,606b0c7e02dae1504090f77c,62c5387930da34237653c7e3,2022-07-06_09h23.58.413,Colour_Asymmetry_Pilot,2022.1.3,Win32,61.36851795,62c50e9c1127f2cd403a315f,0,146,146,34,1,twoone,,,,,,,,,,,,,,,,,,,,,,,,,,,,,,,,,,,,,,,,,,,,,,,,,,,,,,,,,,,,,,,,,,,,,,,,,,,,,,,,,,,,,,,,,,,,,,,,,,,,,,,,,,,,,,,,,,,,,,,,,,,,,,,,,,,,,,,,,,,,,,,,,,,,,,,,,,,,,,
,,,,,,606b0c7e02dae1504090f77c,62c5387930da34237653c7e3,2022-07-06_09h23.58.413,Colour_Asymmetry_Pilot,2022.1.3,Win32,61.36851795,62c50e9c1127f2cd403a315f,0,147,147,106,1,twoone,,,,,,,,,,,,,,,,,,,,,,,,,,,,,,,,,,,,,,,,,,,,,,,,,,,,,,,,,,,,,,,,,,,,,,,,,,,,,,,,,,,,,,,,,,,,,,,,,,,,,,,,,,,,,,,,,,,,,,,,,,,,,,,,,,,,,,,,,,,,,,,,,,,,,,,,,,,,,,
,,,,,,606b0c7e02dae1504090f77c,62c5387930da34237653c7e3,2022-07-06_09h23.58.413,Colour_Asymmetry_Pilot,2022.1.3,Win32,61.36851795,62c50e9c1127f2cd403a315f,0,148,148,94,1,fourtwo,,,,,,,,,,,,,,,,,,,,,,,,,,,,,,,,,,,,,,,,,,,,,,,,,,,,,,,,,,,,,,,,,,,,,,,,,,,,,,,,,,,,,,,,,,,,,,,,,,,,,,,,,,,,,,,,,,,,,,,,,,,,,,,,,,,,,,,,,,,,,,,,,,,,,,,,,,,,,,
,,,,,,606b0c7e02dae1504090f77c,62c5387930da34237653c7e3,2022-07-06_09h23.58.413,Colour_Asymmetry_Pilot,2022.1.3,Win32,61.36851795,62c50e9c1127f2cd403a315f,0,149,149,110,1,fourtwo,,,,,,,,,,,,,,,,,,,,,,,,,,,,,,,,,,,,,,,,,,,,,,,,,,,,,,,,,,,,,,,,,,,,,,,,,,,,,,,,,,,,,,,,,,,,,,,,,,,,,,,,,,,,,,,,,,,,,,,,,,,,,,,,,,,,,,,,,,,,,,,,,,,,,,,,,,,,,,
,,,,,,606b0c7e02dae1504090f77c,62c5387930da34237653c7e3,2022-07-06_09h23.58.413,Colour_Asymmetry_Pilot,2022.1.3,Win32,61.36851795,62c50e9c1127f2cd403a315f,0,150,150,32,1,onetwo,,,,,,,,,,,,,,,,,,,,,,,,,,,,,,,,,,,,,,,,,,,,,,,,,,,,,,,,,,,,,,,,,,,,,,,,,,,,,,,,,,,,,,,,,,,,,,,,,,,,,,,,,,,,,,,,,,,,,,,,,,,,,,,,,,,,,,,,,,,,,,,,,,,,,,,,,,,,,,
,,,,,,606b0c7e02dae1504090f77c,62c5387930da34237653c7e3,2022-07-06_09h23.58.413,Colour_Asymmetry_Pilot,2022.1.3,Win32,61.36851795,62c50e9c1127f2cd403a315f,0,151,151,4,1,threeone,,,,,,,,,,,,,,,,,,,,,,,,,,,,,,,,,,,,,,,,,,,,,,,,,,,,,,,,,,,,,,,,,,,,,,,,,,,,,,,,,,,,,,,,,,,,,,,,,,,,,,,,,,,,,,,,,,,,,,,,,,,,,,,,,,,,,,,,,,,,,,,,,,,,,,,,,,,,,,
,,,,,,606b0c7e02dae1504090f77c,62c5387930da34237653c7e3,2022-07-06_09h23.58.413,Colour_Asymmetry_Pilot,2022.1.3,Win32,61.36851795,62c50e9c1127f2cd403a315f,0,152,152,137,1,onethree,,,,,,,,,,,,,,,,,,,,,,,,,,,,,,,,,,,,,,,,,,,,,,,,,,,,,,,,,,,,,,,,,,,,,,,,,,,,,,,,,,,,,,,,,,,,,,,,,,,,,,,,,,,,,,,,,,,,,,,,,,,,,,,,,,,,,,,,,,,,,,,,,,,,,,,,,,,,,,
,,,,,,606b0c7e02dae1504090f77c,62c5387930da34237653c7e3,2022-07-06_09h23.58.413,Colour_Asymmetry_Pilot,2022.1.3,Win32,61.36851795,62c50e9c1127f2cd403a315f,0,153,153,65,1,onethree,,,,,,,,,,,,,,,,,,,,,,,,,,,,,,,,,,,,,,,,,,,,,,,,,,,,,,,,,,,,,,,,,,,,,,,,,,,,,,,,,,,,,,,,,,,,,,,,,,,,,,,,,,,,,,,,,,,,,,,,,,,,,,,,,,,,,,,,,,,,,,,,,,,,,,,,,,,,,,
,,,,,,606b0c7e02dae1504090f77c,62c5387930da34237653c7e3,2022-07-06_09h23.58.413,Colour_Asymmetry_Pilot,2022.1.3,Win32,61.36851795,62c50e9c1127f2cd403a315f,0,154,154,27,1,twofour,,,,,,,,,,,,,,,,,,,,,,,,,,,,,,,,,,,,,,,,,,,,,,,,,,,,,,,,,,,,,,,,,,,,,,,,,,,,,,,,,,,,,,,,,,,,,,,,,,,,,,,,,,,,,,,,,,,,,,,,,,,,,,,,,,,,,,,,,,,,,,,,,,,,,,,,,,,,,,
,,,,,,606b0c7e02dae1504090f77c,62c5387930da34237653c7e3,2022-07-06_09h23.58.413,Colour_Asymmetry_Pilot,2022.1.3,Win32,61.36851795,62c50e9c1127f2cd403a315f,0,155,155,101,1,threefour,,,,,,,,,,,,,,,,,,,,,,,,,,,,,,,,,,,,,,,,,,,,,,,,,,,,,,,,,,,,,,,,,,,,,,,,,,,,,,,,,,,,,,,,,,,,,,,,,,,,,,,,,,,,,,,,,,,,,,,,,,,,,,,,,,,,,,,,,,,,,,,,,,,,,,,,,,,,,,
,,,,,,606b0c7e02dae1504090f77c,62c5387930da34237653c7e3,2022-07-06_09h23.58.413,Colour_Asymmetry_Pilot,2022.1.3,Win32,61.36851795,62c50e9c1127f2cd403a315f,0,156,156,2,1,twoone,,,,,,,,,,,,,,,,,,,,,,,,,,,,,,,,,,,,,,,,,,,,,,,,,,,,,,,,,,,,,,,,,,,,,,,,,,,,,,,,,,,,,,,,,,,,,,,,,,,,,,,,,,,,,,,,,,,,,,,,,,,,,,,,,,,,,,,,,,,,,,,,,,,,,,,,,,,,,,
,,,,,,606b0c7e02dae1504090f77c,62c5387930da34237653c7e3,2022-07-06_09h23.58.413,Colour_Asymmetry_Pilot,2022.1.3,Win32,61.36851795,62c50e9c1127f2cd403a315f,0,157,157,123,1,twofour,,,,,,,,,,,,,,,,,,,,,,,,,,,,,,,,,,,,,,,,,,,,,,,,,,,,,,,,,,,,,,,,,,,,,,,,,,,,,,,,,,,,,,,,,,,,,,,,,,,,,,,,,,,,,,,,,,,,,,,,,,,,,,,,,,,,,,,,,,,,,,,,,,,,,,,,,,,,,,
,,,,,,606b0c7e02dae1504090f77c,62c5387930da34237653c7e3,2022-07-06_09h23.58.413,Colour_Asymmetry_Pilot,2022.1.3,Win32,61.36851795,62c50e9c1127f2cd403a315f,0,158,158,83,1,twofour,,,,,,,,,,,,,,,,,,,,,,,,,,,,,,,,,,,,,,,,,,,,,,,,,,,,,,,,,,,,,,,,,,,,,,,,,,,,,,,,,,,,,,,,,,,,,,,,,,,,,,,,,,,,,,,,,,,,,,,,,,,,,,,,,,,,,,,,,,,,,,,,,,,,,,,,,,,,,,
,,,,,,606b0c7e02dae1504090f77c,62c5387930da34237653c7e3,2022-07-06_09h23.58.413,Colour_Asymmetry_Pilot,2022.1.3,Win32,61.36851795,62c50e9c1127f2cd403a315f,0,159,159,120,1,onetwo,,,,,,,,,,,,,,,,,,,,,,,,,,,,,,,,,,,,,,,,,,,,,,,,,,,,,,,,,,,,,,,,,,,,,,,,,,,,,,,,,,,,,,,,,,,,,,,,,,,,,,,,,,,,,,,,,,,,,,,,,,,,,,,,,,,,,,,,,,,,,,,,,,,,,,,,,,,,,,
,,,,,,606b0c7e02dae1504090f77c,62c5387930da34237653c7e3,2022-07-06_09h23.58.413,Colour_Asymmetry_Pilot,2022.1.3,Win32,61.36851795,62c50e9c1127f2cd403a315f,0,160,160,102,1,fourtwo,,,,,,,,,,,,,,,,,,,,,,,,,,,,,,,,,,,,,,,,,,,,,,,,,,,,,,,,,,,,,,,,,,,,,,,,,,,,,,,,,,,,,,,,,,,,,,,,,,,,,,,,,,,,,,,,,,,,,,,,,,,,,,,,,,,,,,,,,,,,,,,,,,,,,,,,,,,,,,
,,,,,,606b0c7e02dae1504090f77c,62c5387930da34237653c7e3,2022-07-06_09h23.58.413,Colour_Asymmetry_Pilot,2022.1.3,Win32,61.36851795,62c50e9c1127f2cd403a315f,0,161,161,91,1,twofour,,,,,,,,,,,,,,,,,,,,,,,,,,,,,,,,,,,,,,,,,,,,,,,,,,,,,,,,,,,,,,,,,,,,,,,,,,,,,,,,,,,,,,,,,,,,,,,,,,,,,,,,,,,,,,,,,,,,,,,,,,,,,,,,,,,,,,,,,,,,,,,,,,,,,,,,,,,,,,
,,,,,,606b0c7e02dae1504090f77c,62c5387930da34237653c7e3,2022-07-06_09h23.58.413,Colour_Asymmetry_Pilot,2022.1.3,Win32,61.36851795,62c50e9c1127f2cd403a315f,,,,,,,space,2.7349,space,13.1612,space,31.4662,space,4.8503,space,3.4155,space,4.5568,"[-0.10599999999999998,-0.10599999999999998,0.5841999999999998]",twofour,"[-0.10599999999999998,-0.10599999999999998,0.5841999999999998]",4,3.097,29,71,1,0,0,response1disk_5,-1,2,1,0,0,rectangle_8,-1,2,1,0,0,4,-1,2,1,0,0,0,0,0,0,1,,,,,,,,,,,,,,,,,,,,,,,,,,,,,,,,,,,,,,,,,,,,,,,,,,,,,,,,,,,,,,,,,,,,,,,,,,,,,,,,,,,,,,,,,,,,,,,,,,,,,,,,,,,,,,,,,
,,,,,,606b0c7e02dae1504090f77c,62c5387930da34237653c7e3,2022-07-06_09h23.58.413,Colour_Asymmetry_Pilot,2022.1.3,Win32,61.36851795,62c50e9c1127f2cd403a315f,,,,,,,,,,,,,,,,,,,"[0.23920000000000008,0.2704,0.16060000000000008]",threeone,"[-0.4982,-0.2942,-0.0354000000000001]",-4,1.9717,-18,67,1,0,0,response7disk_5,-6,-11,1,0,0,rectangle_8,34,66,1,0,0,4,20,3,1,0,0,1,0,1,0,1,response1disk_7,7,rectangle_4,,,,,,,,,,,,,,,,,,,,,,,,,,,,,,,,,,,,,,,,,,,,,,,,,,,,,,,,,,,,,,,,,,,,,,,,,,,,,,,,,,,,,,,,,,,,,,,,,,,,,,,,,,,,,,
,,,,,,606b0c7e02dae1504090f77c,62c5387930da34237653c7e3,2022-07-06_09h23.58.413,Colour_Asymmetry_Pilot,2022.1.3,Win32,61.36851795,62c50e9c1127f2cd403a315f,,,,,,,,,,,,,,,,,,,"[0.37240000000000006,0.4980000000000002,-0.2864]",onetwo,"[-0.5688,-0.08239999999999992,-0.1844]",-4,2.0951,-31,57,1,0,0,response7disk_5,14,-4,1,0,0,rectangle_8,51,61,1,0,0,4,6,-10,1,0,0,2,0,2,0,1,response1disk_7,7,rectangle_4,,,,,,,,,,,,,,,,,,,,,,,,,,,,,,,,,,,,,,,,,,,,,,,,,,,,,,,,,,,,,,,,,,,,,,,,,,,,,,,,,,,,,,,,,,,,,,,,,,,,,,,,,,,,,,
,,,,,,606b0c7e02dae1504090f77c,62c5387930da34237653c7e3,2022-07-06_09h23.58.413,Colour_Asymmetry_Pilot,2022.1.3,Win32,61.36851795,62c50e9c1127f2cd403a315f,,,,,,,,,,,,,,,,,,,"[-0.9766,-0.6472,0.07440000000000002]",threefour,"[-0.5922000000000001,-0.7492000000000001,-0.5296000000000001]",2,4.43,45,-39,1,0,0,response3disk_5,22,-9,1,0,0,rectangle_8,22,-9,1,0,0,4,22,-9,1,0,0,3,0,3,0,1,,,,,,,,,,,,,,,,,,,,,,,,,,,,,,,,,,,,,,,,,,,,,,,,,,,,,,,,,,,,,,,,,,,,,,,,,,,,,,,,,,,,,,,,,,,,,,,,,,,,,,,,,,,,,,,,,
,,,,,,606b0c7e02dae1504090f77c,62c5387930da34237653c7e3,2022-07-06_09h23.58.413,Colour_Asymmetry_Pilot,2022.1.3,Win32,61.36851795,62c50e9c1127f2cd403a315f,,,,,,,,,,,,,,,,,,,"[0.9213999999999998,0.6391999999999998,-0.9922]",onetwo,"[-0.24719999999999998,0.5213999999999999,-0.12959999999999994]",-4,57.4099,-14,44,1,0,0,response7disk_5,-5,-1,1,0,0,rectangle_8,-5,-1,1,0,0,4,-5,-1,1,0,0,4,0,4,0,1,,,,,,,,,,,,,,,,,,,,,,,,,,,,,,,,,,,,,,,,,,,,,,,,,,,,,,,,,,,,,,,,,,,,,,,,,,,,,,,,,,,,,,,,,,,,,,,,,,,,,,,,,,,,,,,,,
,,,,,,606b0c7e02dae1504090f77c,62c5387930da34237653c7e3,2022-07-06_09h23.58.413,Colour_Asymmetry_Pilot,2022.1.3,Win32,61.36851795,62c50e9c1127f2cd403a315f,,,,,,,,,,,,,,,,,,,"[-0.5922000000000001,-0.7492000000000001,-0.5296000000000001]",fourtwo,"[-0.24719999999999998,0.5213999999999999,-0.12959999999999994]",-4,0.9865,-30,55,1,0,0,response7disk_5,-3,-7,1,0,0,rectangle_8,-3,-7,1,0,0,4,-3,-7,1,0,0,5,0,5,0,1,,,,,,,,,,,,,,,,,,,,,,,,,,,,,,,,,,,,,,,,,,,,,,,,,,,,,,,,,,,,,,,,,,,,,,,,,,,,,,,,,,,,,,,,,,,,,,,,,,,,,,,,,,,,,,,,,
,,,,,,606b0c7e02dae1504090f77c,62c5387930da34237653c7e3,2022-07-06_09h23.58.413,Colour_Asymmetry_Pilot,2022.1.3,Win32,61.36851795,62c50e9c1127f2cd403a315f,,,,,,,,,,,,,,,,,,,"[-0.9296,-0.12959999999999994,-0.043199999999999905]",twofour,"[-0.9688,-0.7412000000000001,-0.4902000000000001]",-2,2.4328,-39,-21,1,0,0,response5disk_5,-9,-9,1,0,0,rectangle_8,-9,-9,1,0,0,4,-9,-9,1,0,0,6,0,6,0,1,,,,,,,,,,,,,,,,,,,,,,,,,,,,,,,,,,,,,,,,,,,,,,,,,,,,,,,,,,,,,,,,,,,,,,,,,,,,,,,,,,,,,,,,,,,,,,,,,,,,,,,,,,,,,,,,,
,,,,,,606b0c7e02dae1504090f77c,62c5387930da34237653c7e3,2022-07-06_09h23.58.413,Colour_Asymmetry_Pilot,2022.1.3,Win32,61.36851795,62c50e9c1127f2cd403a315f,,,,,,,,,,,,,,,,,,,,onethree,,-4,1.2579,,,,,,,,,,,,,,,,,,,,,,,,,,,,,,,,space,2.5676,"[0.23920000000000008,0.2704,0.16060000000000008]","[0.9763999999999999,-0.1137999999999999,-0.6314]",-38,64,1,0,0,response7disk,-18,14,1,0,0,rectangle,-18,14,1,0,0,-3,3,0.0052,0,-18,14,1,0,0,0,0,0,123,1,42,second,,,,,,,,,,,,,,,,,,,,,,,,,,,,,,,,,,,,,,,,,,,,,,,,,,,,,,,,,,,,,,,,,,,,,,,,,
,,,,,,606b0c7e02dae1504090f77c,62c5387930da34237653c7e3,2022-07-06_09h23.58.413,Colour_Asymmetry_Pilot,2022.1.3,Win32,61.36851795,62c50e9c1127f2cd403a315f,,,,,,,,,,,,,,,,,,,,onetwo,,-4,0.3556,,,,,,,,,,,,,,,,,,,,,,,,,,,,,,,,,,"[-0.9688,-0.7412000000000001,-0.4902000000000001]","[0.30180000000000007,-0.7884,-0.9844]",-29,58,1,0,0,response7disk,-1,18,1,0,0,rectangle,-1,18,1,0,0,-3,2,0.004,0,-1,18,1,0,0,0,1,1,81,1,0,second,,,,,,,,,,,,,,,,,,,,,,,,,,,,,,,,,,,,,,,,,,,,,,,,,,,,,,,,,,,,,,,,,,,,,,,,,
,,,,,,606b0c7e02dae1504090f77c,62c5387930da34237653c7e3,2022-07-06_09h23.58.413,Colour_Asymmetry_Pilot,2022.1.3,Win32,61.36851795,62c50e9c1127f2cd403a315f,,,,,,,,,,,,,,,,,,,,fourthree,,-1,2.0198,,,,,,,,,,,,,,,,,,,,,,,,,,,,,,,,,,"[0.37240000000000006,-0.050999999999999934,-0.5216]","[0.40379999999999994,0.09000000000000008,0.44300000000000006]",-19,-58,1,0,0,response5disk,20,10,1,0,0,rectangle,52,-37,1,0,0,2,2,3.4271,1,9,-4,1,0,0,0,2,2,55,1,55,first,response3disk_3,rectangle,,,,,,,,,,,,,,,,,,,,,,,,,,,,,,,,,,,,,,,,,,,,,,,,,,,,,,,,,,,,,,,,,,,,,,,
,,,,,,606b0c7e02dae1504090f77c,62c5387930da34237653c7e3,2022-07-06_09h23.58.413,Colour_Asymmetry_Pilot,2022.1.3,Win32,61.36851795,62c50e9c1127f2cd403a315f,,,,,,,,,,,,,,,,,,,,onetwo,,-3,57.0592,,,,,,,,,,,,,,,,,,,,,,,,,,,,,,,,,,"[-0.9688,-0.7412000000000001,-0.4902000000000001]","[-0.8982,-0.37259999999999993,0.2784]",-40,24,1,0,0,response7disk,1,4,1,0,0,rectangle,1,4,1,0,0,2,1,0.0034,0,1,4,1,0,0,0,3,3,17,1,17,first,,,,,,,,,,,,,,,,,,,,,,,,,,,,,,,,,,,,,,,,,,,,,,,,,,,,,,,,,,,,,,,,,,,,,,,,,
,,,,,,606b0c7e02dae1504090f77c,62c5387930da34237653c7e3,2022-07-06_09h23.58.413,Colour_Asymmetry_Pilot,2022.1.3,Win32,61.36851795,62c50e9c1127f2cd403a315f,,,,,,,,,,,,,,,,,,,,onethree,,-4,1.3235,,,,,,,,,,,,,,,,,,,,,,,,,,,,,,,,,,"[-0.050999999999999934,-0.6706000000000001,-0.804]","[-0.26280000000000003,-0.2158,-0.3256]",-39,56,1,0,0,response7disk,-24,21,1,0,0,rectangle,-24,21,1,0,0,-3,3,0.0019,0,-24,21,1,0,0,0,4,4,40,1,40,first,,,,,,,,,,,,,,,,,,,,,,,,,,,,,,,,,,,,,,,,,,,,,,,,,,,,,,,,,,,,,,,,,,,,,,,,,
,,,,,,606b0c7e02dae1504090f77c,62c5387930da34237653c7e3,2022-07-06_09h23.58.413,Colour_Asymmetry_Pilot,2022.1.3,Win32,61.36851795,62c50e9c1127f2cd403a315f,,,,,,,,,,,,,,,,,,,,threeone,,-3,0.4879,,,,,,,,,,,,,,,,,,,,,,,,,,,,,,,,,,"[-0.10599999999999998,-0.15300000000000002,0.15280000000000005]","[0.9372,0.20779999999999998,0.2704]",-45,33,1,0,0,response7disk,27,2,1,0,0,rectangle,27,2,1,0,0,-3,1,0.0016,0,27,2,1,0,0,0,5,5,33,1,33,first,,,,,,,,,,,,,,,,,,,,,,,,,,,,,,,,,,,,,,,,,,,,,,,,,,,,,,,,,,,,,,,,,,,,,,,,,
,,,,,,606b0c7e02dae1504090f77c,62c5387930da34237653c7e3,2022-07-06_09h23.58.413,Colour_Asymmetry_Pilot,2022.1.3,Win32,61.36851795,62c50e9c1127f2cd403a315f,,,,,,,,,,,,,,,,,,,,threeone,,-3,0.62,,,,,,,,,,,,,,,,,,,,,,,,,,,,,,,,,,"[-0.48240000000000005,0.3175999999999999,0.2156]","[0.4196,0.4665999999999999,0.3568]",-57,32,1,0,0,response7disk,10,11,1,0,0,rectangle,10,11,1,0,0,-3,1,0.0009,0,10,11,1,0,0,0,6,6,99,1,18,second,,,,,,,,,,,,,,,,,,,,,,,,,,,,,,,,,,,,,,,,,,,,,,,,,,,,,,,,,,,,,,,,,,,,,,,,,
,,,,,,606b0c7e02dae1504090f77c,62c5387930da34237653c7e3,2022-07-06_09h23.58.413,Colour_Asymmetry_Pilot,2022.1.3,Win32,61.36851795,62c50e9c1127f2cd403a315f,,,,,,,,,,,,,,,,,,,,fourtwo,,-4,0.3985,,,,,,,,,,,,,,,,,,,,,,,,,,,,,,,,,,"[0.04299999999999993,0.16060000000000008,-0.6628000000000001]","[-0.9688,-0.7412000000000001,-0.4902000000000001]",-13,46,1,0,0,response7disk,5,6,1,0,0,rectangle,5,6,1,0,0,-3,3,0.0102,0,5,6,1,0,0,0,7,7,144,1,63,second,,,,,,,,,,,,,,,,,,,,,,,,,,,,,,,,,,,,,,,,,,,,,,,,,,,,,,,,,,,,,,,,,,,,,,,,,
,,,,,,606b0c7e02dae1504090f77c,62c5387930da34237653c7e3,2022-07-06_09h23.58.413,Colour_Asymmetry_Pilot,2022.1.3,Win32,61.36851795,62c50e9c1127f2cd403a315f,,,,,,,,,,,,,,,,,,,,onetwo,,-4,0.3226,,,,,,,,,,,,,,,,,,,,,,,,,,,,,,,,,,"[0.30180000000000007,-0.7884,-0.9844]","[-0.9688,-0.7412000000000001,-0.4902000000000001]",-30,44,1,0,0,response7disk,-4,1,1,0,0,rectangle,-4,1,1,0,0,-3,1,0.0021,0,-4,1,1,0,0,0,8,8,0,1,0,first,,,,,,,,,,,,,,,,,,,,,,,,,,,,,,,,,,,,,,,,,,,,,,,,,,,,,,,,,,,,,,,,,,,,,,,,,
,,,,,,606b0c7e02dae1504090f77c,62c5387930da34237653c7e3,2022-07-06_09h23.58.413,Colour_Asymmetry_Pilot,2022.1.3,Win32,61.36851795,62c50e9c1127f2cd403a315f,,,,,,,,,,,,,,,,,,,,fourtwo,,-3,0.6243,,,,,,,,,,,,,,,,,,,,,,,,,,,,,,,,,,"[-0.9688,-0.38039999999999996,-0.41979999999999995]","[-0.01980000000000004,-0.5138,-0.38039999999999996]",-47,25,1,0,0,response7disk,20,7,1,0,0,rectangle,20,7,1,0,0,-3,1,0.0065,0,20,7,1,0,0,0,9,9,142,1,61,second,,,,,,,,,,,,,,,,,,,,,,,,,,,,,,,,,,,,,,,,,,,,,,,,,,,,,,,,,,,,,,,,,,,,,,,,,
,,,,,,606b0c7e02dae1504090f77c,62c5387930da34237653c7e3,2022-07-06_09h23.58.413,Colour_Asymmetry_Pilot,2022.1.3,Win32,61.36851795,62c50e9c1127f2cd403a315f,,,,,,,,,,,,,,,,,,,,onetwo,,-4,1.148,,,,,,,,,,,,,,,,,,,,,,,,,,,,,,,,,,"[-0.8118,-0.8198,-0.5452]","[0.796,0.2156,-0.27859999999999996]",-17,52,1,0,0,response7disk,19,2,1,0,0,rectangle,45,-65,1,0,0,1,1,2.9166,1,3,8,1,0,0,0,10,10,97,1,16,second,response3disk_3,rectangle,,,,,,,,,,,,,,,,,,,,,,,,,,,,,,,,,,,,,,,,,,,,,,,,,,,,,,,,,,,,,,,,,,,,,,,
,,,,,,606b0c7e02dae1504090f77c,62c5387930da34237653c7e3,2022-07-06_09h23.58.413,Colour_Asymmetry_Pilot,2022.1.3,Win32,61.36851795,62c50e9c1127f2cd403a315f,,,,,,,,,,,,,,,,,,,,fourthree,,-3,0.5747,,,,,,,,,,,,,,,,,,,,,,,,,,,,,,,,,,"[-0.4276,0.0038000000000000256,-0.3256]","[0.9686000000000001,0.5763999999999998,0.11359999999999992]",-45,31,1,0,0,response7disk,11,3,1,0,0,rectangle,11,3,1,0,0,1,1,0.0008,0,11,3,1,0,0,0,11,11,80,1,80,first,,,,,,,,,,,,,,,,,,,,,,,,,,,,,,,,,,,,,,,,,,,,,,,,,,,,,,,,,,,,,,,,,,,,,,,,,
,,,,,,606b0c7e02dae1504090f77c,62c5387930da34237653c7e3,2022-07-06_09h23.58.413,Colour_Asymmetry_Pilot,2022.1.3,Win32,61.36851795,62c50e9c1127f2cd403a315f,,,,,,,,,,,,,,,,,,,,fourthree,,-4,0.3348,,,,,,,,,,,,,,,,,,,,,,,,,,,,,,,,,,"[0.9842,0.7409999999999999,-0.6628000000000001]","[0.23120000000000007,-0.7726,-0.34120000000000006]",-17,55,1,0,0,response7disk,0,4,1,0,0,rectangle,0,4,1,0,0,1,1,0.0003,0,0,4,1,0,0,0,12,12,48,1,48,first,,,,,,,,,,,,,,,,,,,,,,,,,,,,,,,,,,,,,,,,,,,,,,,,,,,,,,,,,,,,,,,,,,,,,,,,,
,,,,,,606b0c7e02dae1504090f77c,62c5387930da34237653c7e3,2022-07-06_09h23.58.413,Colour_Asymmetry_Pilot,2022.1.3,Win32,61.36851795,62c50e9c1127f2cd403a315f,,,,,,,,,,,,,,,,,,,,twofour,,-2,0.5391,,,,,,,,,,,,,,,,,,,,,,,,,,,,,,,,,,"[-0.17659999999999998,0.3253999999999999,0.19999999999999996]","[-0.9138,-0.5296000000000001,-0.5529999999999999]",-32,-30,1,0,0,response5disk,10,2,1,0,0,rectangle,10,2,1,0,0,1,2,0.0047,0,10,2,1,0,0,0,13,13,108,1,27,second,,,,,,,,,,,,,,,,,,,,,,,,,,,,,,,,,,,,,,,,,,,,,,,,,,,,,,,,,,,,,,,,,,,,,,,,,
,,,,,,606b0c7e02dae1504090f77c,62c5387930da34237653c7e3,2022-07-06_09h23.58.413,Colour_Asymmetry_Pilot,2022.1.3,Win32,61.36851795,62c50e9c1127f2cd403a315f,,,,,,,,,,,,,,,,,,,,threeone,,-4,0.806,,,,,,,,,,,,,,,,,,,,,,,,,,,,,,,,,,"[-0.7412000000000001,-0.08239999999999992,-0.6864]","[-0.20799999999999996,-0.655,-0.01980000000000004]",-22,55,1,0,0,response7disk,9,10,1,0,0,rectangle,9,10,1,0,0,1,3,0.0017,0,9,10,1,0,0,0,14,14,66,1,66,first,,,,,,,,,,,,,,,,,,,,,,,,,,,,,,,,,,,,,,,,,,,,,,,,,,,,,,,,,,,,,,,,,,,,,,,,,
,,,,,,606b0c7e02dae1504090f77c,62c5387930da34237653c7e3,2022-07-06_09h23.58.413,Colour_Asymmetry_Pilot,2022.1.3,Win32,61.36851795,62c50e9c1127f2cd403a315f,,,,,,,,,,,,,,,,,,,,fourtwo,,2,2.0203,,,,,,,,,,,,,,,,,,,,,,,,,,,,,,,,,,"[0.37240000000000006,0.4980000000000002,-0.2864]","[0.5528,0.7409999999999999,-0.71]",47,-20,1,0,0,response3disk,24,-2,1,0,0,rectangle,24,-2,1,0,0,1,2,0.0015,0,24,-2,1,0,0,0,15,15,111,1,30,second,,,,,,,,,,,,,,,,,,,,,,,,,,,,,,,,,,,,,,,,,,,,,,,,,,,,,,,,,,,,,,,,,,,,,,,,,
,,,,,,606b0c7e02dae1504090f77c,62c5387930da34237653c7e3,2022-07-06_09h23.58.413,Colour_Asymmetry_Pilot,2022.1.3,Win32,61.36851795,62c50e9c1127f2cd403a315f,,,,,,,,,,,,,,,,,,,,onethree,,-4,0.3748,,,,,,,,,,,,,,,,,,,,,,,,,,,,,,,,,,"[-0.9766,-0.6472,0.07440000000000002]","[0.4196,0.4665999999999999,0.3568]",-53,61,1,0,0,response7disk,19,0,1,0,0,rectangle,19,0,1,0,0,1,2,0.0003,0,19,0,1,0,0,0,16,16,135,1,54,second,,,,,,,,,,,,,,,,,,,,,,,,,,,,,,,,,,,,,,,,,,,,,,,,,,,,,,,,,,,,,,,,,,,,,,,,,
