trials.thisRepN,trials.thisTrialN,trials.thisN,trials.thisIndex,trials.ran,Colourcodes,participant,session,date,expName,psychopyVersion,OS,frameRate,study_id,trials_4.thisRepN,trials_4.thisTrialN,trials_4.thisN,trials_4.thisIndex,trials_4.ran,StimulusPos,key_resp.keys,key_resp.rt,key_resp_2.keys,key_resp_2.rt,key_resp_15.keys,key_resp_15.rt,key_resp_17.keys,key_resp_17.rt,key_resp_9.keys,key_resp_9.rt,key_resp_10.keys,key_resp_10.rt,Circle1_col,Ecc,Circle2_col,similarity,response_time,mouse_5.x,mouse_5.y,mouse_5.leftButton,mouse_5.midButton,mouse_5.rightButton,mouse_5.clicked_name,mouse_10.x,mouse_10.y,mouse_10.leftButton,mouse_10.midButton,mouse_10.rightButton,mouse_10.clicked_name,mouse_7.x,mouse_7.y,mouse_7.leftButton,mouse_7.midButton,mouse_7.rightButton,mouse_7.clicked_name,catchprac,catchnumberprac,mouse_6.x,mouse_6.y,mouse_6.leftButton,mouse_6.midButton,mouse_6.rightButton,mouse_6.clicked_name,duringprac.thisRepN,duringprac.thisTrialN,duringprac.thisN,duringprac.thisIndex,duringprac.ran,key_resp_22.keys,key_resp_22.rt,Circle1_colour,Circle2_colour,mouse.x,mouse.y,mouse.leftButton,mouse.midButton,mouse.rightButton,mouse.clicked_name,mouse_2.x,mouse_2.y,mouse_2.leftButton,mouse_2.midButton,mouse_2.rightButton,mouse_2.clicked_name,mouse_3.x,mouse_3.y,mouse_3.leftButton,mouse_3.midButton,mouse_3.rightButton,catchresponse,catchnumber,response_time_catch,Catch,mouse_11.x,mouse_11.y,mouse_11.leftButton,mouse_11.midButton,mouse_11.rightButton,trials_2.thisRepN,trials_2.thisTrialN,trials_2.thisN,trials_2.thisIndex,trials_2.ran,Colourpair,Temporder,mouse_3.clicked_name,mouse_11.clicked_name,trials_3.thisRepN,trials_3.thisTrialN,trials_3.thisN,trials_3.thisIndex,trials_3.ran,key_resp_instr_Ishi.keys,key_resp_instr_Ishi.rt,Ishi_trial_keyresp.keys,Ishi_trial_keyresp.rt,Ishi_textbox.text,Ishi_mouse.x,Ishi_mouse.y,Ishi_mouse.leftButton,Ishi_mouse.midButton,Ishi_mouse.rightButton,Ishi_loop.thisRepN,Ishi_loop.thisTrialN,Ishi_loop.thisN,Ishi_loop.thisIndex,Ishi_loop.ran,imageaddress,textbox.text,mouse_4.x,mouse_4.y,mouse_4.leftButton,mouse_4.midButton,mouse_4.rightButton,mouse_4.clicked_name,textbox_2.text,mouse_8.x,mouse_8.y,mouse_8.leftButton,mouse_8.midButton,mouse_8.rightButton,mouse_8.clicked_name,textbox_3.text,mouse_9.x,mouse_9.y,mouse_9.leftButton,mouse_9.midButton,mouse_9.rightButton,mouse_9.clicked_name,textbox_4.text,mouse_12.x,mouse_12.y,mouse_12.leftButton,mouse_12.midButton,mouse_12.rightButton,mouse_12.clicked_name,textbox_5.text,mouse_13.x,mouse_13.y,mouse_13.leftButton,mouse_13.midButton,mouse_13.rightButton,mouse_13.clicked_name,textbox_6.text,mouse_14.x,mouse_14.y,mouse_14.leftButton,mouse_14.midButton,mouse_14.rightButton,mouse_14.clicked_name,textbox_7.text,mouse_15.x,mouse_15.y,mouse_15.leftButton,mouse_15.midButton,mouse_15.rightButton,mouse_15.clicked_name
0,0,0,8,1,,616ff9687de15c02fc267080,62c53a9c2f6e3a324060b81f,2022-07-06_09h33.05.618,Colour_Asymmetry_Pilot,2022.1.3,Win32,59.70862193,62c50e9c1127f2cd403a315f,,,,,,,,,,,,,,,,,,,,,,,,,,,,,,,,,,,,,,,,,,,,,,,,,,,,,,,,,,,,,,,,,,,,,,,,,,,,,,,,,,,,,,,,,,,,,,,,,,,,,,,,,,,,,,,,,,,,,,,,,,,,,,,,,,,,,,,,,,,,,,,,,,,,,,,,,,,,,,,,,,,
0,1,1,67,1,,616ff9687de15c02fc267080,62c53a9c2f6e3a324060b81f,2022-07-06_09h33.05.618,Colour_Asymmetry_Pilot,2022.1.3,Win32,59.70862193,62c50e9c1127f2cd403a315f,,,,,,,,,,,,,,,,,,,,,,,,,,,,,,,,,,,,,,,,,,,,,,,,,,,,,,,,,,,,,,,,,,,,,,,,,,,,,,,,,,,,,,,,,,,,,,,,,,,,,,,,,,,,,,,,,,,,,,,,,,,,,,,,,,,,,,,,,,,,,,,,,,,,,,,,,,,,,,,,,,,
0,2,2,66,1,,616ff9687de15c02fc267080,62c53a9c2f6e3a324060b81f,2022-07-06_09h33.05.618,Colour_Asymmetry_Pilot,2022.1.3,Win32,59.70862193,62c50e9c1127f2cd403a315f,,,,,,,,,,,,,,,,,,,,,,,,,,,,,,,,,,,,,,,,,,,,,,,,,,,,,,,,,,,,,,,,,,,,,,,,,,,,,,,,,,,,,,,,,,,,,,,,,,,,,,,,,,,,,,,,,,,,,,,,,,,,,,,,,,,,,,,,,,,,,,,,,,,,,,,,,,,,,,,,,,,
0,3,3,39,1,,616ff9687de15c02fc267080,62c53a9c2f6e3a324060b81f,2022-07-06_09h33.05.618,Colour_Asymmetry_Pilot,2022.1.3,Win32,59.70862193,62c50e9c1127f2cd403a315f,,,,,,,,,,,,,,,,,,,,,,,,,,,,,,,,,,,,,,,,,,,,,,,,,,,,,,,,,,,,,,,,,,,,,,,,,,,,,,,,,,,,,,,,,,,,,,,,,,,,,,,,,,,,,,,,,,,,,,,,,,,,,,,,,,,,,,,,,,,,,,,,,,,,,,,,,,,,,,,,,,,
0,4,4,87,1,,616ff9687de15c02fc267080,62c53a9c2f6e3a324060b81f,2022-07-06_09h33.05.618,Colour_Asymmetry_Pilot,2022.1.3,Win32,59.70862193,62c50e9c1127f2cd403a315f,,,,,,,,,,,,,,,,,,,,,,,,,,,,,,,,,,,,,,,,,,,,,,,,,,,,,,,,,,,,,,,,,,,,,,,,,,,,,,,,,,,,,,,,,,,,,,,,,,,,,,,,,,,,,,,,,,,,,,,,,,,,,,,,,,,,,,,,,,,,,,,,,,,,,,,,,,,,,,,,,,,
0,5,5,51,1,,616ff9687de15c02fc267080,62c53a9c2f6e3a324060b81f,2022-07-06_09h33.05.618,Colour_Asymmetry_Pilot,2022.1.3,Win32,59.70862193,62c50e9c1127f2cd403a315f,,,,,,,,,,,,,,,,,,,,,,,,,,,,,,,,,,,,,,,,,,,,,,,,,,,,,,,,,,,,,,,,,,,,,,,,,,,,,,,,,,,,,,,,,,,,,,,,,,,,,,,,,,,,,,,,,,,,,,,,,,,,,,,,,,,,,,,,,,,,,,,,,,,,,,,,,,,,,,,,,,,
0,6,6,81,1,,616ff9687de15c02fc267080,62c53a9c2f6e3a324060b81f,2022-07-06_09h33.05.618,Colour_Asymmetry_Pilot,2022.1.3,Win32,59.70862193,62c50e9c1127f2cd403a315f,,,,,,,,,,,,,,,,,,,,,,,,,,,,,,,,,,,,,,,,,,,,,,,,,,,,,,,,,,,,,,,,,,,,,,,,,,,,,,,,,,,,,,,,,,,,,,,,,,,,,,,,,,,,,,,,,,,,,,,,,,,,,,,,,,,,,,,,,,,,,,,,,,,,,,,,,,,,,,,,,,,
0,7,7,69,1,,616ff9687de15c02fc267080,62c53a9c2f6e3a324060b81f,2022-07-06_09h33.05.618,Colour_Asymmetry_Pilot,2022.1.3,Win32,59.70862193,62c50e9c1127f2cd403a315f,,,,,,,,,,,,,,,,,,,,,,,,,,,,,,,,,,,,,,,,,,,,,,,,,,,,,,,,,,,,,,,,,,,,,,,,,,,,,,,,,,,,,,,,,,,,,,,,,,,,,,,,,,,,,,,,,,,,,,,,,,,,,,,,,,,,,,,,,,,,,,,,,,,,,,,,,,,,,,,,,,,
0,8,8,1,1,,616ff9687de15c02fc267080,62c53a9c2f6e3a324060b81f,2022-07-06_09h33.05.618,Colour_Asymmetry_Pilot,2022.1.3,Win32,59.70862193,62c50e9c1127f2cd403a315f,,,,,,,,,,,,,,,,,,,,,,,,,,,,,,,,,,,,,,,,,,,,,,,,,,,,,,,,,,,,,,,,,,,,,,,,,,,,,,,,,,,,,,,,,,,,,,,,,,,,,,,,,,,,,,,,,,,,,,,,,,,,,,,,,,,,,,,,,,,,,,,,,,,,,,,,,,,,,,,,,,,
0,9,9,32,1,,616ff9687de15c02fc267080,62c53a9c2f6e3a324060b81f,2022-07-06_09h33.05.618,Colour_Asymmetry_Pilot,2022.1.3,Win32,59.70862193,62c50e9c1127f2cd403a315f,,,,,,,,,,,,,,,,,,,,,,,,,,,,,,,,,,,,,,,,,,,,,,,,,,,,,,,,,,,,,,,,,,,,,,,,,,,,,,,,,,,,,,,,,,,,,,,,,,,,,,,,,,,,,,,,,,,,,,,,,,,,,,,,,,,,,,,,,,,,,,,,,,,,,,,,,,,,,,,,,,,
0,10,10,33,1,,616ff9687de15c02fc267080,62c53a9c2f6e3a324060b81f,2022-07-06_09h33.05.618,Colour_Asymmetry_Pilot,2022.1.3,Win32,59.70862193,62c50e9c1127f2cd403a315f,,,,,,,,,,,,,,,,,,,,,,,,,,,,,,,,,,,,,,,,,,,,,,,,,,,,,,,,,,,,,,,,,,,,,,,,,,,,,,,,,,,,,,,,,,,,,,,,,,,,,,,,,,,,,,,,,,,,,,,,,,,,,,,,,,,,,,,,,,,,,,,,,,,,,,,,,,,,,,,,,,,
0,11,11,6,1,,616ff9687de15c02fc267080,62c53a9c2f6e3a324060b81f,2022-07-06_09h33.05.618,Colour_Asymmetry_Pilot,2022.1.3,Win32,59.70862193,62c50e9c1127f2cd403a315f,,,,,,,,,,,,,,,,,,,,,,,,,,,,,,,,,,,,,,,,,,,,,,,,,,,,,,,,,,,,,,,,,,,,,,,,,,,,,,,,,,,,,,,,,,,,,,,,,,,,,,,,,,,,,,,,,,,,,,,,,,,,,,,,,,,,,,,,,,,,,,,,,,,,,,,,,,,,,,,,,,,
0,12,12,26,1,,616ff9687de15c02fc267080,62c53a9c2f6e3a324060b81f,2022-07-06_09h33.05.618,Colour_Asymmetry_Pilot,2022.1.3,Win32,59.70862193,62c50e9c1127f2cd403a315f,,,,,,,,,,,,,,,,,,,,,,,,,,,,,,,,,,,,,,,,,,,,,,,,,,,,,,,,,,,,,,,,,,,,,,,,,,,,,,,,,,,,,,,,,,,,,,,,,,,,,,,,,,,,,,,,,,,,,,,,,,,,,,,,,,,,,,,,,,,,,,,,,,,,,,,,,,,,,,,,,,,
0,13,13,57,1,,616ff9687de15c02fc267080,62c53a9c2f6e3a324060b81f,2022-07-06_09h33.05.618,Colour_Asymmetry_Pilot,2022.1.3,Win32,59.70862193,62c50e9c1127f2cd403a315f,,,,,,,,,,,,,,,,,,,,,,,,,,,,,,,,,,,,,,,,,,,,,,,,,,,,,,,,,,,,,,,,,,,,,,,,,,,,,,,,,,,,,,,,,,,,,,,,,,,,,,,,,,,,,,,,,,,,,,,,,,,,,,,,,,,,,,,,,,,,,,,,,,,,,,,,,,,,,,,,,,,
0,14,14,85,1,,616ff9687de15c02fc267080,62c53a9c2f6e3a324060b81f,2022-07-06_09h33.05.618,Colour_Asymmetry_Pilot,2022.1.3,Win32,59.70862193,62c50e9c1127f2cd403a315f,,,,,,,,,,,,,,,,,,,,,,,,,,,,,,,,,,,,,,,,,,,,,,,,,,,,,,,,,,,,,,,,,,,,,,,,,,,,,,,,,,,,,,,,,,,,,,,,,,,,,,,,,,,,,,,,,,,,,,,,,,,,,,,,,,,,,,,,,,,,,,,,,,,,,,,,,,,,,,,,,,,
0,15,15,42,1,,616ff9687de15c02fc267080,62c53a9c2f6e3a324060b81f,2022-07-06_09h33.05.618,Colour_Asymmetry_Pilot,2022.1.3,Win32,59.70862193,62c50e9c1127f2cd403a315f,,,,,,,,,,,,,,,,,,,,,,,,,,,,,,,,,,,,,,,,,,,,,,,,,,,,,,,,,,,,,,,,,,,,,,,,,,,,,,,,,,,,,,,,,,,,,,,,,,,,,,,,,,,,,,,,,,,,,,,,,,,,,,,,,,,,,,,,,,,,,,,,,,,,,,,,,,,,,,,,,,,
0,16,16,45,1,,616ff9687de15c02fc267080,62c53a9c2f6e3a324060b81f,2022-07-06_09h33.05.618,Colour_Asymmetry_Pilot,2022.1.3,Win32,59.70862193,62c50e9c1127f2cd403a315f,,,,,,,,,,,,,,,,,,,,,,,,,,,,,,,,,,,,,,,,,,,,,,,,,,,,,,,,,,,,,,,,,,,,,,,,,,,,,,,,,,,,,,,,,,,,,,,,,,,,,,,,,,,,,,,,,,,,,,,,,,,,,,,,,,,,,,,,,,,,,,,,,,,,,,,,,,,,,,,,,,,
0,17,17,55,1,,616ff9687de15c02fc267080,62c53a9c2f6e3a324060b81f,2022-07-06_09h33.05.618,Colour_Asymmetry_Pilot,2022.1.3,Win32,59.70862193,62c50e9c1127f2cd403a315f,,,,,,,,,,,,,,,,,,,,,,,,,,,,,,,,,,,,,,,,,,,,,,,,,,,,,,,,,,,,,,,,,,,,,,,,,,,,,,,,,,,,,,,,,,,,,,,,,,,,,,,,,,,,,,,,,,,,,,,,,,,,,,,,,,,,,,,,,,,,,,,,,,,,,,,,,,,,,,,,,,,
0,18,18,84,1,,616ff9687de15c02fc267080,62c53a9c2f6e3a324060b81f,2022-07-06_09h33.05.618,Colour_Asymmetry_Pilot,2022.1.3,Win32,59.70862193,62c50e9c1127f2cd403a315f,,,,,,,,,,,,,,,,,,,,,,,,,,,,,,,,,,,,,,,,,,,,,,,,,,,,,,,,,,,,,,,,,,,,,,,,,,,,,,,,,,,,,,,,,,,,,,,,,,,,,,,,,,,,,,,,,,,,,,,,,,,,,,,,,,,,,,,,,,,,,,,,,,,,,,,,,,,,,,,,,,,
0,19,19,62,1,,616ff9687de15c02fc267080,62c53a9c2f6e3a324060b81f,2022-07-06_09h33.05.618,Colour_Asymmetry_Pilot,2022.1.3,Win32,59.70862193,62c50e9c1127f2cd403a315f,,,,,,,,,,,,,,,,,,,,,,,,,,,,,,,,,,,,,,,,,,,,,,,,,,,,,,,,,,,,,,,,,,,,,,,,,,,,,,,,,,,,,,,,,,,,,,,,,,,,,,,,,,,,,,,,,,,,,,,,,,,,,,,,,,,,,,,,,,,,,,,,,,,,,,,,,,,,,,,,,,,
0,20,20,61,1,,616ff9687de15c02fc267080,62c53a9c2f6e3a324060b81f,2022-07-06_09h33.05.618,Colour_Asymmetry_Pilot,2022.1.3,Win32,59.70862193,62c50e9c1127f2cd403a315f,,,,,,,,,,,,,,,,,,,,,,,,,,,,,,,,,,,,,,,,,,,,,,,,,,,,,,,,,,,,,,,,,,,,,,,,,,,,,,,,,,,,,,,,,,,,,,,,,,,,,,,,,,,,,,,,,,,,,,,,,,,,,,,,,,,,,,,,,,,,,,,,,,,,,,,,,,,,,,,,,,,
0,21,21,30,1,,616ff9687de15c02fc267080,62c53a9c2f6e3a324060b81f,2022-07-06_09h33.05.618,Colour_Asymmetry_Pilot,2022.1.3,Win32,59.70862193,62c50e9c1127f2cd403a315f,,,,,,,,,,,,,,,,,,,,,,,,,,,,,,,,,,,,,,,,,,,,,,,,,,,,,,,,,,,,,,,,,,,,,,,,,,,,,,,,,,,,,,,,,,,,,,,,,,,,,,,,,,,,,,,,,,,,,,,,,,,,,,,,,,,,,,,,,,,,,,,,,,,,,,,,,,,,,,,,,,,
0,22,22,71,1,,616ff9687de15c02fc267080,62c53a9c2f6e3a324060b81f,2022-07-06_09h33.05.618,Colour_Asymmetry_Pilot,2022.1.3,Win32,59.70862193,62c50e9c1127f2cd403a315f,,,,,,,,,,,,,,,,,,,,,,,,,,,,,,,,,,,,,,,,,,,,,,,,,,,,,,,,,,,,,,,,,,,,,,,,,,,,,,,,,,,,,,,,,,,,,,,,,,,,,,,,,,,,,,,,,,,,,,,,,,,,,,,,,,,,,,,,,,,,,,,,,,,,,,,,,,,,,,,,,,,
0,23,23,10,1,,616ff9687de15c02fc267080,62c53a9c2f6e3a324060b81f,2022-07-06_09h33.05.618,Colour_Asymmetry_Pilot,2022.1.3,Win32,59.70862193,62c50e9c1127f2cd403a315f,,,,,,,,,,,,,,,,,,,,,,,,,,,,,,,,,,,,,,,,,,,,,,,,,,,,,,,,,,,,,,,,,,,,,,,,,,,,,,,,,,,,,,,,,,,,,,,,,,,,,,,,,,,,,,,,,,,,,,,,,,,,,,,,,,,,,,,,,,,,,,,,,,,,,,,,,,,,,,,,,,,
0,24,24,13,1,,616ff9687de15c02fc267080,62c53a9c2f6e3a324060b81f,2022-07-06_09h33.05.618,Colour_Asymmetry_Pilot,2022.1.3,Win32,59.70862193,62c50e9c1127f2cd403a315f,,,,,,,,,,,,,,,,,,,,,,,,,,,,,,,,,,,,,,,,,,,,,,,,,,,,,,,,,,,,,,,,,,,,,,,,,,,,,,,,,,,,,,,,,,,,,,,,,,,,,,,,,,,,,,,,,,,,,,,,,,,,,,,,,,,,,,,,,,,,,,,,,,,,,,,,,,,,,,,,,,,
0,25,25,14,1,,616ff9687de15c02fc267080,62c53a9c2f6e3a324060b81f,2022-07-06_09h33.05.618,Colour_Asymmetry_Pilot,2022.1.3,Win32,59.70862193,62c50e9c1127f2cd403a315f,,,,,,,,,,,,,,,,,,,,,,,,,,,,,,,,,,,,,,,,,,,,,,,,,,,,,,,,,,,,,,,,,,,,,,,,,,,,,,,,,,,,,,,,,,,,,,,,,,,,,,,,,,,,,,,,,,,,,,,,,,,,,,,,,,,,,,,,,,,,,,,,,,,,,,,,,,,,,,,,,,,
0,26,26,91,1,,616ff9687de15c02fc267080,62c53a9c2f6e3a324060b81f,2022-07-06_09h33.05.618,Colour_Asymmetry_Pilot,2022.1.3,Win32,59.70862193,62c50e9c1127f2cd403a315f,,,,,,,,,,,,,,,,,,,,,,,,,,,,,,,,,,,,,,,,,,,,,,,,,,,,,,,,,,,,,,,,,,,,,,,,,,,,,,,,,,,,,,,,,,,,,,,,,,,,,,,,,,,,,,,,,,,,,,,,,,,,,,,,,,,,,,,,,,,,,,,,,,,,,,,,,,,,,,,,,,,
0,27,27,34,1,,616ff9687de15c02fc267080,62c53a9c2f6e3a324060b81f,2022-07-06_09h33.05.618,Colour_Asymmetry_Pilot,2022.1.3,Win32,59.70862193,62c50e9c1127f2cd403a315f,,,,,,,,,,,,,,,,,,,,,,,,,,,,,,,,,,,,,,,,,,,,,,,,,,,,,,,,,,,,,,,,,,,,,,,,,,,,,,,,,,,,,,,,,,,,,,,,,,,,,,,,,,,,,,,,,,,,,,,,,,,,,,,,,,,,,,,,,,,,,,,,,,,,,,,,,,,,,,,,,,,
0,28,28,0,1,,616ff9687de15c02fc267080,62c53a9c2f6e3a324060b81f,2022-07-06_09h33.05.618,Colour_Asymmetry_Pilot,2022.1.3,Win32,59.70862193,62c50e9c1127f2cd403a315f,,,,,,,,,,,,,,,,,,,,,,,,,,,,,,,,,,,,,,,,,,,,,,,,,,,,,,,,,,,,,,,,,,,,,,,,,,,,,,,,,,,,,,,,,,,,,,,,,,,,,,,,,,,,,,,,,,,,,,,,,,,,,,,,,,,,,,,,,,,,,,,,,,,,,,,,,,,,,,,,,,,
0,29,29,38,1,,616ff9687de15c02fc267080,62c53a9c2f6e3a324060b81f,2022-07-06_09h33.05.618,Colour_Asymmetry_Pilot,2022.1.3,Win32,59.70862193,62c50e9c1127f2cd403a315f,,,,,,,,,,,,,,,,,,,,,,,,,,,,,,,,,,,,,,,,,,,,,,,,,,,,,,,,,,,,,,,,,,,,,,,,,,,,,,,,,,,,,,,,,,,,,,,,,,,,,,,,,,,,,,,,,,,,,,,,,,,,,,,,,,,,,,,,,,,,,,,,,,,,,,,,,,,,,,,,,,,
0,30,30,63,1,,616ff9687de15c02fc267080,62c53a9c2f6e3a324060b81f,2022-07-06_09h33.05.618,Colour_Asymmetry_Pilot,2022.1.3,Win32,59.70862193,62c50e9c1127f2cd403a315f,,,,,,,,,,,,,,,,,,,,,,,,,,,,,,,,,,,,,,,,,,,,,,,,,,,,,,,,,,,,,,,,,,,,,,,,,,,,,,,,,,,,,,,,,,,,,,,,,,,,,,,,,,,,,,,,,,,,,,,,,,,,,,,,,,,,,,,,,,,,,,,,,,,,,,,,,,,,,,,,,,,
0,31,31,15,1,,616ff9687de15c02fc267080,62c53a9c2f6e3a324060b81f,2022-07-06_09h33.05.618,Colour_Asymmetry_Pilot,2022.1.3,Win32,59.70862193,62c50e9c1127f2cd403a315f,,,,,,,,,,,,,,,,,,,,,,,,,,,,,,,,,,,,,,,,,,,,,,,,,,,,,,,,,,,,,,,,,,,,,,,,,,,,,,,,,,,,,,,,,,,,,,,,,,,,,,,,,,,,,,,,,,,,,,,,,,,,,,,,,,,,,,,,,,,,,,,,,,,,,,,,,,,,,,,,,,,
0,32,32,58,1,,616ff9687de15c02fc267080,62c53a9c2f6e3a324060b81f,2022-07-06_09h33.05.618,Colour_Asymmetry_Pilot,2022.1.3,Win32,59.70862193,62c50e9c1127f2cd403a315f,,,,,,,,,,,,,,,,,,,,,,,,,,,,,,,,,,,,,,,,,,,,,,,,,,,,,,,,,,,,,,,,,,,,,,,,,,,,,,,,,,,,,,,,,,,,,,,,,,,,,,,,,,,,,,,,,,,,,,,,,,,,,,,,,,,,,,,,,,,,,,,,,,,,,,,,,,,,,,,,,,,
0,33,33,40,1,,616ff9687de15c02fc267080,62c53a9c2f6e3a324060b81f,2022-07-06_09h33.05.618,Colour_Asymmetry_Pilot,2022.1.3,Win32,59.70862193,62c50e9c1127f2cd403a315f,,,,,,,,,,,,,,,,,,,,,,,,,,,,,,,,,,,,,,,,,,,,,,,,,,,,,,,,,,,,,,,,,,,,,,,,,,,,,,,,,,,,,,,,,,,,,,,,,,,,,,,,,,,,,,,,,,,,,,,,,,,,,,,,,,,,,,,,,,,,,,,,,,,,,,,,,,,,,,,,,,,
0,34,34,20,1,,616ff9687de15c02fc267080,62c53a9c2f6e3a324060b81f,2022-07-06_09h33.05.618,Colour_Asymmetry_Pilot,2022.1.3,Win32,59.70862193,62c50e9c1127f2cd403a315f,,,,,,,,,,,,,,,,,,,,,,,,,,,,,,,,,,,,,,,,,,,,,,,,,,,,,,,,,,,,,,,,,,,,,,,,,,,,,,,,,,,,,,,,,,,,,,,,,,,,,,,,,,,,,,,,,,,,,,,,,,,,,,,,,,,,,,,,,,,,,,,,,,,,,,,,,,,,,,,,,,,
0,35,35,68,1,,616ff9687de15c02fc267080,62c53a9c2f6e3a324060b81f,2022-07-06_09h33.05.618,Colour_Asymmetry_Pilot,2022.1.3,Win32,59.70862193,62c50e9c1127f2cd403a315f,,,,,,,,,,,,,,,,,,,,,,,,,,,,,,,,,,,,,,,,,,,,,,,,,,,,,,,,,,,,,,,,,,,,,,,,,,,,,,,,,,,,,,,,,,,,,,,,,,,,,,,,,,,,,,,,,,,,,,,,,,,,,,,,,,,,,,,,,,,,,,,,,,,,,,,,,,,,,,,,,,,
0,36,36,4,1,,616ff9687de15c02fc267080,62c53a9c2f6e3a324060b81f,2022-07-06_09h33.05.618,Colour_Asymmetry_Pilot,2022.1.3,Win32,59.70862193,62c50e9c1127f2cd403a315f,,,,,,,,,,,,,,,,,,,,,,,,,,,,,,,,,,,,,,,,,,,,,,,,,,,,,,,,,,,,,,,,,,,,,,,,,,,,,,,,,,,,,,,,,,,,,,,,,,,,,,,,,,,,,,,,,,,,,,,,,,,,,,,,,,,,,,,,,,,,,,,,,,,,,,,,,,,,,,,,,,,
0,37,37,78,1,,616ff9687de15c02fc267080,62c53a9c2f6e3a324060b81f,2022-07-06_09h33.05.618,Colour_Asymmetry_Pilot,2022.1.3,Win32,59.70862193,62c50e9c1127f2cd403a315f,,,,,,,,,,,,,,,,,,,,,,,,,,,,,,,,,,,,,,,,,,,,,,,,,,,,,,,,,,,,,,,,,,,,,,,,,,,,,,,,,,,,,,,,,,,,,,,,,,,,,,,,,,,,,,,,,,,,,,,,,,,,,,,,,,,,,,,,,,,,,,,,,,,,,,,,,,,,,,,,,,,
0,38,38,72,1,,616ff9687de15c02fc267080,62c53a9c2f6e3a324060b81f,2022-07-06_09h33.05.618,Colour_Asymmetry_Pilot,2022.1.3,Win32,59.70862193,62c50e9c1127f2cd403a315f,,,,,,,,,,,,,,,,,,,,,,,,,,,,,,,,,,,,,,,,,,,,,,,,,,,,,,,,,,,,,,,,,,,,,,,,,,,,,,,,,,,,,,,,,,,,,,,,,,,,,,,,,,,,,,,,,,,,,,,,,,,,,,,,,,,,,,,,,,,,,,,,,,,,,,,,,,,,,,,,,,,
0,39,39,92,1,,616ff9687de15c02fc267080,62c53a9c2f6e3a324060b81f,2022-07-06_09h33.05.618,Colour_Asymmetry_Pilot,2022.1.3,Win32,59.70862193,62c50e9c1127f2cd403a315f,,,,,,,,,,,,,,,,,,,,,,,,,,,,,,,,,,,,,,,,,,,,,,,,,,,,,,,,,,,,,,,,,,,,,,,,,,,,,,,,,,,,,,,,,,,,,,,,,,,,,,,,,,,,,,,,,,,,,,,,,,,,,,,,,,,,,,,,,,,,,,,,,,,,,,,,,,,,,,,,,,,
0,40,40,64,1,,616ff9687de15c02fc267080,62c53a9c2f6e3a324060b81f,2022-07-06_09h33.05.618,Colour_Asymmetry_Pilot,2022.1.3,Win32,59.70862193,62c50e9c1127f2cd403a315f,,,,,,,,,,,,,,,,,,,,,,,,,,,,,,,,,,,,,,,,,,,,,,,,,,,,,,,,,,,,,,,,,,,,,,,,,,,,,,,,,,,,,,,,,,,,,,,,,,,,,,,,,,,,,,,,,,,,,,,,,,,,,,,,,,,,,,,,,,,,,,,,,,,,,,,,,,,,,,,,,,,
0,41,41,44,1,,616ff9687de15c02fc267080,62c53a9c2f6e3a324060b81f,2022-07-06_09h33.05.618,Colour_Asymmetry_Pilot,2022.1.3,Win32,59.70862193,62c50e9c1127f2cd403a315f,,,,,,,,,,,,,,,,,,,,,,,,,,,,,,,,,,,,,,,,,,,,,,,,,,,,,,,,,,,,,,,,,,,,,,,,,,,,,,,,,,,,,,,,,,,,,,,,,,,,,,,,,,,,,,,,,,,,,,,,,,,,,,,,,,,,,,,,,,,,,,,,,,,,,,,,,,,,,,,,,,,
0,42,42,17,1,,616ff9687de15c02fc267080,62c53a9c2f6e3a324060b81f,2022-07-06_09h33.05.618,Colour_Asymmetry_Pilot,2022.1.3,Win32,59.70862193,62c50e9c1127f2cd403a315f,,,,,,,,,,,,,,,,,,,,,,,,,,,,,,,,,,,,,,,,,,,,,,,,,,,,,,,,,,,,,,,,,,,,,,,,,,,,,,,,,,,,,,,,,,,,,,,,,,,,,,,,,,,,,,,,,,,,,,,,,,,,,,,,,,,,,,,,,,,,,,,,,,,,,,,,,,,,,,,,,,,
0,43,43,56,1,,616ff9687de15c02fc267080,62c53a9c2f6e3a324060b81f,2022-07-06_09h33.05.618,Colour_Asymmetry_Pilot,2022.1.3,Win32,59.70862193,62c50e9c1127f2cd403a315f,,,,,,,,,,,,,,,,,,,,,,,,,,,,,,,,,,,,,,,,,,,,,,,,,,,,,,,,,,,,,,,,,,,,,,,,,,,,,,,,,,,,,,,,,,,,,,,,,,,,,,,,,,,,,,,,,,,,,,,,,,,,,,,,,,,,,,,,,,,,,,,,,,,,,,,,,,,,,,,,,,,
0,44,44,52,1,,616ff9687de15c02fc267080,62c53a9c2f6e3a324060b81f,2022-07-06_09h33.05.618,Colour_Asymmetry_Pilot,2022.1.3,Win32,59.70862193,62c50e9c1127f2cd403a315f,,,,,,,,,,,,,,,,,,,,,,,,,,,,,,,,,,,,,,,,,,,,,,,,,,,,,,,,,,,,,,,,,,,,,,,,,,,,,,,,,,,,,,,,,,,,,,,,,,,,,,,,,,,,,,,,,,,,,,,,,,,,,,,,,,,,,,,,,,,,,,,,,,,,,,,,,,,,,,,,,,,
0,45,45,60,1,,616ff9687de15c02fc267080,62c53a9c2f6e3a324060b81f,2022-07-06_09h33.05.618,Colour_Asymmetry_Pilot,2022.1.3,Win32,59.70862193,62c50e9c1127f2cd403a315f,,,,,,,,,,,,,,,,,,,,,,,,,,,,,,,,,,,,,,,,,,,,,,,,,,,,,,,,,,,,,,,,,,,,,,,,,,,,,,,,,,,,,,,,,,,,,,,,,,,,,,,,,,,,,,,,,,,,,,,,,,,,,,,,,,,,,,,,,,,,,,,,,,,,,,,,,,,,,,,,,,,
0,46,46,65,1,,616ff9687de15c02fc267080,62c53a9c2f6e3a324060b81f,2022-07-06_09h33.05.618,Colour_Asymmetry_Pilot,2022.1.3,Win32,59.70862193,62c50e9c1127f2cd403a315f,,,,,,,,,,,,,,,,,,,,,,,,,,,,,,,,,,,,,,,,,,,,,,,,,,,,,,,,,,,,,,,,,,,,,,,,,,,,,,,,,,,,,,,,,,,,,,,,,,,,,,,,,,,,,,,,,,,,,,,,,,,,,,,,,,,,,,,,,,,,,,,,,,,,,,,,,,,,,,,,,,,
0,47,47,48,1,,616ff9687de15c02fc267080,62c53a9c2f6e3a324060b81f,2022-07-06_09h33.05.618,Colour_Asymmetry_Pilot,2022.1.3,Win32,59.70862193,62c50e9c1127f2cd403a315f,,,,,,,,,,,,,,,,,,,,,,,,,,,,,,,,,,,,,,,,,,,,,,,,,,,,,,,,,,,,,,,,,,,,,,,,,,,,,,,,,,,,,,,,,,,,,,,,,,,,,,,,,,,,,,,,,,,,,,,,,,,,,,,,,,,,,,,,,,,,,,,,,,,,,,,,,,,,,,,,,,,
0,48,48,82,1,,616ff9687de15c02fc267080,62c53a9c2f6e3a324060b81f,2022-07-06_09h33.05.618,Colour_Asymmetry_Pilot,2022.1.3,Win32,59.70862193,62c50e9c1127f2cd403a315f,,,,,,,,,,,,,,,,,,,,,,,,,,,,,,,,,,,,,,,,,,,,,,,,,,,,,,,,,,,,,,,,,,,,,,,,,,,,,,,,,,,,,,,,,,,,,,,,,,,,,,,,,,,,,,,,,,,,,,,,,,,,,,,,,,,,,,,,,,,,,,,,,,,,,,,,,,,,,,,,,,,
0,49,49,22,1,,616ff9687de15c02fc267080,62c53a9c2f6e3a324060b81f,2022-07-06_09h33.05.618,Colour_Asymmetry_Pilot,2022.1.3,Win32,59.70862193,62c50e9c1127f2cd403a315f,,,,,,,,,,,,,,,,,,,,,,,,,,,,,,,,,,,,,,,,,,,,,,,,,,,,,,,,,,,,,,,,,,,,,,,,,,,,,,,,,,,,,,,,,,,,,,,,,,,,,,,,,,,,,,,,,,,,,,,,,,,,,,,,,,,,,,,,,,,,,,,,,,,,,,,,,,,,,,,,,,,
0,50,50,25,1,,616ff9687de15c02fc267080,62c53a9c2f6e3a324060b81f,2022-07-06_09h33.05.618,Colour_Asymmetry_Pilot,2022.1.3,Win32,59.70862193,62c50e9c1127f2cd403a315f,,,,,,,,,,,,,,,,,,,,,,,,,,,,,,,,,,,,,,,,,,,,,,,,,,,,,,,,,,,,,,,,,,,,,,,,,,,,,,,,,,,,,,,,,,,,,,,,,,,,,,,,,,,,,,,,,,,,,,,,,,,,,,,,,,,,,,,,,,,,,,,,,,,,,,,,,,,,,,,,,,,
0,51,51,74,1,,616ff9687de15c02fc267080,62c53a9c2f6e3a324060b81f,2022-07-06_09h33.05.618,Colour_Asymmetry_Pilot,2022.1.3,Win32,59.70862193,62c50e9c1127f2cd403a315f,,,,,,,,,,,,,,,,,,,,,,,,,,,,,,,,,,,,,,,,,,,,,,,,,,,,,,,,,,,,,,,,,,,,,,,,,,,,,,,,,,,,,,,,,,,,,,,,,,,,,,,,,,,,,,,,,,,,,,,,,,,,,,,,,,,,,,,,,,,,,,,,,,,,,,,,,,,,,,,,,,,
0,52,52,18,1,,616ff9687de15c02fc267080,62c53a9c2f6e3a324060b81f,2022-07-06_09h33.05.618,Colour_Asymmetry_Pilot,2022.1.3,Win32,59.70862193,62c50e9c1127f2cd403a315f,,,,,,,,,,,,,,,,,,,,,,,,,,,,,,,,,,,,,,,,,,,,,,,,,,,,,,,,,,,,,,,,,,,,,,,,,,,,,,,,,,,,,,,,,,,,,,,,,,,,,,,,,,,,,,,,,,,,,,,,,,,,,,,,,,,,,,,,,,,,,,,,,,,,,,,,,,,,,,,,,,,
0,53,53,12,1,,616ff9687de15c02fc267080,62c53a9c2f6e3a324060b81f,2022-07-06_09h33.05.618,Colour_Asymmetry_Pilot,2022.1.3,Win32,59.70862193,62c50e9c1127f2cd403a315f,,,,,,,,,,,,,,,,,,,,,,,,,,,,,,,,,,,,,,,,,,,,,,,,,,,,,,,,,,,,,,,,,,,,,,,,,,,,,,,,,,,,,,,,,,,,,,,,,,,,,,,,,,,,,,,,,,,,,,,,,,,,,,,,,,,,,,,,,,,,,,,,,,,,,,,,,,,,,,,,,,,
0,54,54,7,1,,616ff9687de15c02fc267080,62c53a9c2f6e3a324060b81f,2022-07-06_09h33.05.618,Colour_Asymmetry_Pilot,2022.1.3,Win32,59.70862193,62c50e9c1127f2cd403a315f,,,,,,,,,,,,,,,,,,,,,,,,,,,,,,,,,,,,,,,,,,,,,,,,,,,,,,,,,,,,,,,,,,,,,,,,,,,,,,,,,,,,,,,,,,,,,,,,,,,,,,,,,,,,,,,,,,,,,,,,,,,,,,,,,,,,,,,,,,,,,,,,,,,,,,,,,,,,,,,,,,,
0,55,55,70,1,,616ff9687de15c02fc267080,62c53a9c2f6e3a324060b81f,2022-07-06_09h33.05.618,Colour_Asymmetry_Pilot,2022.1.3,Win32,59.70862193,62c50e9c1127f2cd403a315f,,,,,,,,,,,,,,,,,,,,,,,,,,,,,,,,,,,,,,,,,,,,,,,,,,,,,,,,,,,,,,,,,,,,,,,,,,,,,,,,,,,,,,,,,,,,,,,,,,,,,,,,,,,,,,,,,,,,,,,,,,,,,,,,,,,,,,,,,,,,,,,,,,,,,,,,,,,,,,,,,,,
0,56,56,23,1,,616ff9687de15c02fc267080,62c53a9c2f6e3a324060b81f,2022-07-06_09h33.05.618,Colour_Asymmetry_Pilot,2022.1.3,Win32,59.70862193,62c50e9c1127f2cd403a315f,,,,,,,,,,,,,,,,,,,,,,,,,,,,,,,,,,,,,,,,,,,,,,,,,,,,,,,,,,,,,,,,,,,,,,,,,,,,,,,,,,,,,,,,,,,,,,,,,,,,,,,,,,,,,,,,,,,,,,,,,,,,,,,,,,,,,,,,,,,,,,,,,,,,,,,,,,,,,,,,,,,
0,57,57,19,1,,616ff9687de15c02fc267080,62c53a9c2f6e3a324060b81f,2022-07-06_09h33.05.618,Colour_Asymmetry_Pilot,2022.1.3,Win32,59.70862193,62c50e9c1127f2cd403a315f,,,,,,,,,,,,,,,,,,,,,,,,,,,,,,,,,,,,,,,,,,,,,,,,,,,,,,,,,,,,,,,,,,,,,,,,,,,,,,,,,,,,,,,,,,,,,,,,,,,,,,,,,,,,,,,,,,,,,,,,,,,,,,,,,,,,,,,,,,,,,,,,,,,,,,,,,,,,,,,,,,,
0,58,58,29,1,,616ff9687de15c02fc267080,62c53a9c2f6e3a324060b81f,2022-07-06_09h33.05.618,Colour_Asymmetry_Pilot,2022.1.3,Win32,59.70862193,62c50e9c1127f2cd403a315f,,,,,,,,,,,,,,,,,,,,,,,,,,,,,,,,,,,,,,,,,,,,,,,,,,,,,,,,,,,,,,,,,,,,,,,,,,,,,,,,,,,,,,,,,,,,,,,,,,,,,,,,,,,,,,,,,,,,,,,,,,,,,,,,,,,,,,,,,,,,,,,,,,,,,,,,,,,,,,,,,,,
0,59,59,5,1,,616ff9687de15c02fc267080,62c53a9c2f6e3a324060b81f,2022-07-06_09h33.05.618,Colour_Asymmetry_Pilot,2022.1.3,Win32,59.70862193,62c50e9c1127f2cd403a315f,,,,,,,,,,,,,,,,,,,,,,,,,,,,,,,,,,,,,,,,,,,,,,,,,,,,,,,,,,,,,,,,,,,,,,,,,,,,,,,,,,,,,,,,,,,,,,,,,,,,,,,,,,,,,,,,,,,,,,,,,,,,,,,,,,,,,,,,,,,,,,,,,,,,,,,,,,,,,,,,,,,
0,60,60,37,1,,616ff9687de15c02fc267080,62c53a9c2f6e3a324060b81f,2022-07-06_09h33.05.618,Colour_Asymmetry_Pilot,2022.1.3,Win32,59.70862193,62c50e9c1127f2cd403a315f,,,,,,,,,,,,,,,,,,,,,,,,,,,,,,,,,,,,,,,,,,,,,,,,,,,,,,,,,,,,,,,,,,,,,,,,,,,,,,,,,,,,,,,,,,,,,,,,,,,,,,,,,,,,,,,,,,,,,,,,,,,,,,,,,,,,,,,,,,,,,,,,,,,,,,,,,,,,,,,,,,,
0,61,61,59,1,,616ff9687de15c02fc267080,62c53a9c2f6e3a324060b81f,2022-07-06_09h33.05.618,Colour_Asymmetry_Pilot,2022.1.3,Win32,59.70862193,62c50e9c1127f2cd403a315f,,,,,,,,,,,,,,,,,,,,,,,,,,,,,,,,,,,,,,,,,,,,,,,,,,,,,,,,,,,,,,,,,,,,,,,,,,,,,,,,,,,,,,,,,,,,,,,,,,,,,,,,,,,,,,,,,,,,,,,,,,,,,,,,,,,,,,,,,,,,,,,,,,,,,,,,,,,,,,,,,,,
0,62,62,3,1,,616ff9687de15c02fc267080,62c53a9c2f6e3a324060b81f,2022-07-06_09h33.05.618,Colour_Asymmetry_Pilot,2022.1.3,Win32,59.70862193,62c50e9c1127f2cd403a315f,,,,,,,,,,,,,,,,,,,,,,,,,,,,,,,,,,,,,,,,,,,,,,,,,,,,,,,,,,,,,,,,,,,,,,,,,,,,,,,,,,,,,,,,,,,,,,,,,,,,,,,,,,,,,,,,,,,,,,,,,,,,,,,,,,,,,,,,,,,,,,,,,,,,,,,,,,,,,,,,,,,
0,63,63,35,1,,616ff9687de15c02fc267080,62c53a9c2f6e3a324060b81f,2022-07-06_09h33.05.618,Colour_Asymmetry_Pilot,2022.1.3,Win32,59.70862193,62c50e9c1127f2cd403a315f,,,,,,,,,,,,,,,,,,,,,,,,,,,,,,,,,,,,,,,,,,,,,,,,,,,,,,,,,,,,,,,,,,,,,,,,,,,,,,,,,,,,,,,,,,,,,,,,,,,,,,,,,,,,,,,,,,,,,,,,,,,,,,,,,,,,,,,,,,,,,,,,,,,,,,,,,,,,,,,,,,,
0,64,64,73,1,,616ff9687de15c02fc267080,62c53a9c2f6e3a324060b81f,2022-07-06_09h33.05.618,Colour_Asymmetry_Pilot,2022.1.3,Win32,59.70862193,62c50e9c1127f2cd403a315f,,,,,,,,,,,,,,,,,,,,,,,,,,,,,,,,,,,,,,,,,,,,,,,,,,,,,,,,,,,,,,,,,,,,,,,,,,,,,,,,,,,,,,,,,,,,,,,,,,,,,,,,,,,,,,,,,,,,,,,,,,,,,,,,,,,,,,,,,,,,,,,,,,,,,,,,,,,,,,,,,,,
0,65,65,31,1,,616ff9687de15c02fc267080,62c53a9c2f6e3a324060b81f,2022-07-06_09h33.05.618,Colour_Asymmetry_Pilot,2022.1.3,Win32,59.70862193,62c50e9c1127f2cd403a315f,,,,,,,,,,,,,,,,,,,,,,,,,,,,,,,,,,,,,,,,,,,,,,,,,,,,,,,,,,,,,,,,,,,,,,,,,,,,,,,,,,,,,,,,,,,,,,,,,,,,,,,,,,,,,,,,,,,,,,,,,,,,,,,,,,,,,,,,,,,,,,,,,,,,,,,,,,,,,,,,,,,
0,66,66,47,1,,616ff9687de15c02fc267080,62c53a9c2f6e3a324060b81f,2022-07-06_09h33.05.618,Colour_Asymmetry_Pilot,2022.1.3,Win32,59.70862193,62c50e9c1127f2cd403a315f,,,,,,,,,,,,,,,,,,,,,,,,,,,,,,,,,,,,,,,,,,,,,,,,,,,,,,,,,,,,,,,,,,,,,,,,,,,,,,,,,,,,,,,,,,,,,,,,,,,,,,,,,,,,,,,,,,,,,,,,,,,,,,,,,,,,,,,,,,,,,,,,,,,,,,,,,,,,,,,,,,,
0,67,67,77,1,,616ff9687de15c02fc267080,62c53a9c2f6e3a324060b81f,2022-07-06_09h33.05.618,Colour_Asymmetry_Pilot,2022.1.3,Win32,59.70862193,62c50e9c1127f2cd403a315f,,,,,,,,,,,,,,,,,,,,,,,,,,,,,,,,,,,,,,,,,,,,,,,,,,,,,,,,,,,,,,,,,,,,,,,,,,,,,,,,,,,,,,,,,,,,,,,,,,,,,,,,,,,,,,,,,,,,,,,,,,,,,,,,,,,,,,,,,,,,,,,,,,,,,,,,,,,,,,,,,,,
0,68,68,46,1,,616ff9687de15c02fc267080,62c53a9c2f6e3a324060b81f,2022-07-06_09h33.05.618,Colour_Asymmetry_Pilot,2022.1.3,Win32,59.70862193,62c50e9c1127f2cd403a315f,,,,,,,,,,,,,,,,,,,,,,,,,,,,,,,,,,,,,,,,,,,,,,,,,,,,,,,,,,,,,,,,,,,,,,,,,,,,,,,,,,,,,,,,,,,,,,,,,,,,,,,,,,,,,,,,,,,,,,,,,,,,,,,,,,,,,,,,,,,,,,,,,,,,,,,,,,,,,,,,,,,
0,69,69,2,1,,616ff9687de15c02fc267080,62c53a9c2f6e3a324060b81f,2022-07-06_09h33.05.618,Colour_Asymmetry_Pilot,2022.1.3,Win32,59.70862193,62c50e9c1127f2cd403a315f,,,,,,,,,,,,,,,,,,,,,,,,,,,,,,,,,,,,,,,,,,,,,,,,,,,,,,,,,,,,,,,,,,,,,,,,,,,,,,,,,,,,,,,,,,,,,,,,,,,,,,,,,,,,,,,,,,,,,,,,,,,,,,,,,,,,,,,,,,,,,,,,,,,,,,,,,,,,,,,,,,,
0,70,70,49,1,,616ff9687de15c02fc267080,62c53a9c2f6e3a324060b81f,2022-07-06_09h33.05.618,Colour_Asymmetry_Pilot,2022.1.3,Win32,59.70862193,62c50e9c1127f2cd403a315f,,,,,,,,,,,,,,,,,,,,,,,,,,,,,,,,,,,,,,,,,,,,,,,,,,,,,,,,,,,,,,,,,,,,,,,,,,,,,,,,,,,,,,,,,,,,,,,,,,,,,,,,,,,,,,,,,,,,,,,,,,,,,,,,,,,,,,,,,,,,,,,,,,,,,,,,,,,,,,,,,,,
0,71,71,80,1,,616ff9687de15c02fc267080,62c53a9c2f6e3a324060b81f,2022-07-06_09h33.05.618,Colour_Asymmetry_Pilot,2022.1.3,Win32,59.70862193,62c50e9c1127f2cd403a315f,,,,,,,,,,,,,,,,,,,,,,,,,,,,,,,,,,,,,,,,,,,,,,,,,,,,,,,,,,,,,,,,,,,,,,,,,,,,,,,,,,,,,,,,,,,,,,,,,,,,,,,,,,,,,,,,,,,,,,,,,,,,,,,,,,,,,,,,,,,,,,,,,,,,,,,,,,,,,,,,,,,
0,72,72,75,1,,616ff9687de15c02fc267080,62c53a9c2f6e3a324060b81f,2022-07-06_09h33.05.618,Colour_Asymmetry_Pilot,2022.1.3,Win32,59.70862193,62c50e9c1127f2cd403a315f,,,,,,,,,,,,,,,,,,,,,,,,,,,,,,,,,,,,,,,,,,,,,,,,,,,,,,,,,,,,,,,,,,,,,,,,,,,,,,,,,,,,,,,,,,,,,,,,,,,,,,,,,,,,,,,,,,,,,,,,,,,,,,,,,,,,,,,,,,,,,,,,,,,,,,,,,,,,,,,,,,,
0,73,73,53,1,,616ff9687de15c02fc267080,62c53a9c2f6e3a324060b81f,2022-07-06_09h33.05.618,Colour_Asymmetry_Pilot,2022.1.3,Win32,59.70862193,62c50e9c1127f2cd403a315f,,,,,,,,,,,,,,,,,,,,,,,,,,,,,,,,,,,,,,,,,,,,,,,,,,,,,,,,,,,,,,,,,,,,,,,,,,,,,,,,,,,,,,,,,,,,,,,,,,,,,,,,,,,,,,,,,,,,,,,,,,,,,,,,,,,,,,,,,,,,,,,,,,,,,,,,,,,,,,,,,,,
0,74,74,76,1,,616ff9687de15c02fc267080,62c53a9c2f6e3a324060b81f,2022-07-06_09h33.05.618,Colour_Asymmetry_Pilot,2022.1.3,Win32,59.70862193,62c50e9c1127f2cd403a315f,,,,,,,,,,,,,,,,,,,,,,,,,,,,,,,,,,,,,,,,,,,,,,,,,,,,,,,,,,,,,,,,,,,,,,,,,,,,,,,,,,,,,,,,,,,,,,,,,,,,,,,,,,,,,,,,,,,,,,,,,,,,,,,,,,,,,,,,,,,,,,,,,,,,,,,,,,,,,,,,,,,
0,75,75,36,1,,616ff9687de15c02fc267080,62c53a9c2f6e3a324060b81f,2022-07-06_09h33.05.618,Colour_Asymmetry_Pilot,2022.1.3,Win32,59.70862193,62c50e9c1127f2cd403a315f,,,,,,,,,,,,,,,,,,,,,,,,,,,,,,,,,,,,,,,,,,,,,,,,,,,,,,,,,,,,,,,,,,,,,,,,,,,,,,,,,,,,,,,,,,,,,,,,,,,,,,,,,,,,,,,,,,,,,,,,,,,,,,,,,,,,,,,,,,,,,,,,,,,,,,,,,,,,,,,,,,,
0,76,76,88,1,,616ff9687de15c02fc267080,62c53a9c2f6e3a324060b81f,2022-07-06_09h33.05.618,Colour_Asymmetry_Pilot,2022.1.3,Win32,59.70862193,62c50e9c1127f2cd403a315f,,,,,,,,,,,,,,,,,,,,,,,,,,,,,,,,,,,,,,,,,,,,,,,,,,,,,,,,,,,,,,,,,,,,,,,,,,,,,,,,,,,,,,,,,,,,,,,,,,,,,,,,,,,,,,,,,,,,,,,,,,,,,,,,,,,,,,,,,,,,,,,,,,,,,,,,,,,,,,,,,,,
0,77,77,28,1,,616ff9687de15c02fc267080,62c53a9c2f6e3a324060b81f,2022-07-06_09h33.05.618,Colour_Asymmetry_Pilot,2022.1.3,Win32,59.70862193,62c50e9c1127f2cd403a315f,,,,,,,,,,,,,,,,,,,,,,,,,,,,,,,,,,,,,,,,,,,,,,,,,,,,,,,,,,,,,,,,,,,,,,,,,,,,,,,,,,,,,,,,,,,,,,,,,,,,,,,,,,,,,,,,,,,,,,,,,,,,,,,,,,,,,,,,,,,,,,,,,,,,,,,,,,,,,,,,,,,
0,78,78,83,1,,616ff9687de15c02fc267080,62c53a9c2f6e3a324060b81f,2022-07-06_09h33.05.618,Colour_Asymmetry_Pilot,2022.1.3,Win32,59.70862193,62c50e9c1127f2cd403a315f,,,,,,,,,,,,,,,,,,,,,,,,,,,,,,,,,,,,,,,,,,,,,,,,,,,,,,,,,,,,,,,,,,,,,,,,,,,,,,,,,,,,,,,,,,,,,,,,,,,,,,,,,,,,,,,,,,,,,,,,,,,,,,,,,,,,,,,,,,,,,,,,,,,,,,,,,,,,,,,,,,,
0,79,79,41,1,,616ff9687de15c02fc267080,62c53a9c2f6e3a324060b81f,2022-07-06_09h33.05.618,Colour_Asymmetry_Pilot,2022.1.3,Win32,59.70862193,62c50e9c1127f2cd403a315f,,,,,,,,,,,,,,,,,,,,,,,,,,,,,,,,,,,,,,,,,,,,,,,,,,,,,,,,,,,,,,,,,,,,,,,,,,,,,,,,,,,,,,,,,,,,,,,,,,,,,,,,,,,,,,,,,,,,,,,,,,,,,,,,,,,,,,,,,,,,,,,,,,,,,,,,,,,,,,,,,,,
0,80,80,86,1,,616ff9687de15c02fc267080,62c53a9c2f6e3a324060b81f,2022-07-06_09h33.05.618,Colour_Asymmetry_Pilot,2022.1.3,Win32,59.70862193,62c50e9c1127f2cd403a315f,,,,,,,,,,,,,,,,,,,,,,,,,,,,,,,,,,,,,,,,,,,,,,,,,,,,,,,,,,,,,,,,,,,,,,,,,,,,,,,,,,,,,,,,,,,,,,,,,,,,,,,,,,,,,,,,,,,,,,,,,,,,,,,,,,,,,,,,,,,,,,,,,,,,,,,,,,,,,,,,,,,
0,81,81,54,1,,616ff9687de15c02fc267080,62c53a9c2f6e3a324060b81f,2022-07-06_09h33.05.618,Colour_Asymmetry_Pilot,2022.1.3,Win32,59.70862193,62c50e9c1127f2cd403a315f,,,,,,,,,,,,,,,,,,,,,,,,,,,,,,,,,,,,,,,,,,,,,,,,,,,,,,,,,,,,,,,,,,,,,,,,,,,,,,,,,,,,,,,,,,,,,,,,,,,,,,,,,,,,,,,,,,,,,,,,,,,,,,,,,,,,,,,,,,,,,,,,,,,,,,,,,,,,,,,,,,,
0,82,82,27,1,,616ff9687de15c02fc267080,62c53a9c2f6e3a324060b81f,2022-07-06_09h33.05.618,Colour_Asymmetry_Pilot,2022.1.3,Win32,59.70862193,62c50e9c1127f2cd403a315f,,,,,,,,,,,,,,,,,,,,,,,,,,,,,,,,,,,,,,,,,,,,,,,,,,,,,,,,,,,,,,,,,,,,,,,,,,,,,,,,,,,,,,,,,,,,,,,,,,,,,,,,,,,,,,,,,,,,,,,,,,,,,,,,,,,,,,,,,,,,,,,,,,,,,,,,,,,,,,,,,,,
0,83,83,79,1,,616ff9687de15c02fc267080,62c53a9c2f6e3a324060b81f,2022-07-06_09h33.05.618,Colour_Asymmetry_Pilot,2022.1.3,Win32,59.70862193,62c50e9c1127f2cd403a315f,,,,,,,,,,,,,,,,,,,,,,,,,,,,,,,,,,,,,,,,,,,,,,,,,,,,,,,,,,,,,,,,,,,,,,,,,,,,,,,,,,,,,,,,,,,,,,,,,,,,,,,,,,,,,,,,,,,,,,,,,,,,,,,,,,,,,,,,,,,,,,,,,,,,,,,,,,,,,,,,,,,
0,84,84,9,1,,616ff9687de15c02fc267080,62c53a9c2f6e3a324060b81f,2022-07-06_09h33.05.618,Colour_Asymmetry_Pilot,2022.1.3,Win32,59.70862193,62c50e9c1127f2cd403a315f,,,,,,,,,,,,,,,,,,,,,,,,,,,,,,,,,,,,,,,,,,,,,,,,,,,,,,,,,,,,,,,,,,,,,,,,,,,,,,,,,,,,,,,,,,,,,,,,,,,,,,,,,,,,,,,,,,,,,,,,,,,,,,,,,,,,,,,,,,,,,,,,,,,,,,,,,,,,,,,,,,,
0,85,85,50,1,,616ff9687de15c02fc267080,62c53a9c2f6e3a324060b81f,2022-07-06_09h33.05.618,Colour_Asymmetry_Pilot,2022.1.3,Win32,59.70862193,62c50e9c1127f2cd403a315f,,,,,,,,,,,,,,,,,,,,,,,,,,,,,,,,,,,,,,,,,,,,,,,,,,,,,,,,,,,,,,,,,,,,,,,,,,,,,,,,,,,,,,,,,,,,,,,,,,,,,,,,,,,,,,,,,,,,,,,,,,,,,,,,,,,,,,,,,,,,,,,,,,,,,,,,,,,,,,,,,,,
0,86,86,16,1,,616ff9687de15c02fc267080,62c53a9c2f6e3a324060b81f,2022-07-06_09h33.05.618,Colour_Asymmetry_Pilot,2022.1.3,Win32,59.70862193,62c50e9c1127f2cd403a315f,,,,,,,,,,,,,,,,,,,,,,,,,,,,,,,,,,,,,,,,,,,,,,,,,,,,,,,,,,,,,,,,,,,,,,,,,,,,,,,,,,,,,,,,,,,,,,,,,,,,,,,,,,,,,,,,,,,,,,,,,,,,,,,,,,,,,,,,,,,,,,,,,,,,,,,,,,,,,,,,,,,
0,87,87,90,1,,616ff9687de15c02fc267080,62c53a9c2f6e3a324060b81f,2022-07-06_09h33.05.618,Colour_Asymmetry_Pilot,2022.1.3,Win32,59.70862193,62c50e9c1127f2cd403a315f,,,,,,,,,,,,,,,,,,,,,,,,,,,,,,,,,,,,,,,,,,,,,,,,,,,,,,,,,,,,,,,,,,,,,,,,,,,,,,,,,,,,,,,,,,,,,,,,,,,,,,,,,,,,,,,,,,,,,,,,,,,,,,,,,,,,,,,,,,,,,,,,,,,,,,,,,,,,,,,,,,,
0,88,88,89,1,,616ff9687de15c02fc267080,62c53a9c2f6e3a324060b81f,2022-07-06_09h33.05.618,Colour_Asymmetry_Pilot,2022.1.3,Win32,59.70862193,62c50e9c1127f2cd403a315f,,,,,,,,,,,,,,,,,,,,,,,,,,,,,,,,,,,,,,,,,,,,,,,,,,,,,,,,,,,,,,,,,,,,,,,,,,,,,,,,,,,,,,,,,,,,,,,,,,,,,,,,,,,,,,,,,,,,,,,,,,,,,,,,,,,,,,,,,,,,,,,,,,,,,,,,,,,,,,,,,,,
0,89,89,21,1,,616ff9687de15c02fc267080,62c53a9c2f6e3a324060b81f,2022-07-06_09h33.05.618,Colour_Asymmetry_Pilot,2022.1.3,Win32,59.70862193,62c50e9c1127f2cd403a315f,,,,,,,,,,,,,,,,,,,,,,,,,,,,,,,,,,,,,,,,,,,,,,,,,,,,,,,,,,,,,,,,,,,,,,,,,,,,,,,,,,,,,,,,,,,,,,,,,,,,,,,,,,,,,,,,,,,,,,,,,,,,,,,,,,,,,,,,,,,,,,,,,,,,,,,,,,,,,,,,,,,
0,90,90,24,1,,616ff9687de15c02fc267080,62c53a9c2f6e3a324060b81f,2022-07-06_09h33.05.618,Colour_Asymmetry_Pilot,2022.1.3,Win32,59.70862193,62c50e9c1127f2cd403a315f,,,,,,,,,,,,,,,,,,,,,,,,,,,,,,,,,,,,,,,,,,,,,,,,,,,,,,,,,,,,,,,,,,,,,,,,,,,,,,,,,,,,,,,,,,,,,,,,,,,,,,,,,,,,,,,,,,,,,,,,,,,,,,,,,,,,,,,,,,,,,,,,,,,,,,,,,,,,,,,,,,,
0,91,91,11,1,,616ff9687de15c02fc267080,62c53a9c2f6e3a324060b81f,2022-07-06_09h33.05.618,Colour_Asymmetry_Pilot,2022.1.3,Win32,59.70862193,62c50e9c1127f2cd403a315f,,,,,,,,,,,,,,,,,,,,,,,,,,,,,,,,,,,,,,,,,,,,,,,,,,,,,,,,,,,,,,,,,,,,,,,,,,,,,,,,,,,,,,,,,,,,,,,,,,,,,,,,,,,,,,,,,,,,,,,,,,,,,,,,,,,,,,,,,,,,,,,,,,,,,,,,,,,,,,,,,,,
0,92,92,43,1,,616ff9687de15c02fc267080,62c53a9c2f6e3a324060b81f,2022-07-06_09h33.05.618,Colour_Asymmetry_Pilot,2022.1.3,Win32,59.70862193,62c50e9c1127f2cd403a315f,,,,,,,,,,,,,,,,,,,,,,,,,,,,,,,,,,,,,,,,,,,,,,,,,,,,,,,,,,,,,,,,,,,,,,,,,,,,,,,,,,,,,,,,,,,,,,,,,,,,,,,,,,,,,,,,,,,,,,,,,,,,,,,,,,,,,,,,,,,,,,,,,,,,,,,,,,,,,,,,,,,
,,,,,,616ff9687de15c02fc267080,62c53a9c2f6e3a324060b81f,2022-07-06_09h33.05.618,Colour_Asymmetry_Pilot,2022.1.3,Win32,59.70862193,62c50e9c1127f2cd403a315f,0,0,0,14,1,fourtwo,,,,,,,,,,,,,,,,,,,,,,,,,,,,,,,,,,,,,,,,,,,,,,,,,,,,,,,,,,,,,,,,,,,,,,,,,,,,,,,,,,,,,,,,,,,,,,,,,,,,,,,,,,,,,,,,,,,,,,,,,,,,,,,,,,,,,,,,,,,,,,,,,,,,,,,,,,,,,
,,,,,,616ff9687de15c02fc267080,62c53a9c2f6e3a324060b81f,2022-07-06_09h33.05.618,Colour_Asymmetry_Pilot,2022.1.3,Win32,59.70862193,62c50e9c1127f2cd403a315f,0,1,1,161,1,onethree,,,,,,,,,,,,,,,,,,,,,,,,,,,,,,,,,,,,,,,,,,,,,,,,,,,,,,,,,,,,,,,,,,,,,,,,,,,,,,,,,,,,,,,,,,,,,,,,,,,,,,,,,,,,,,,,,,,,,,,,,,,,,,,,,,,,,,,,,,,,,,,,,,,,,,,,,,,,,
,,,,,,616ff9687de15c02fc267080,62c53a9c2f6e3a324060b81f,2022-07-06_09h33.05.618,Colour_Asymmetry_Pilot,2022.1.3,Win32,59.70862193,62c50e9c1127f2cd403a315f,0,2,2,13,1,threefour,,,,,,,,,,,,,,,,,,,,,,,,,,,,,,,,,,,,,,,,,,,,,,,,,,,,,,,,,,,,,,,,,,,,,,,,,,,,,,,,,,,,,,,,,,,,,,,,,,,,,,,,,,,,,,,,,,,,,,,,,,,,,,,,,,,,,,,,,,,,,,,,,,,,,,,,,,,,,
,,,,,,616ff9687de15c02fc267080,62c53a9c2f6e3a324060b81f,2022-07-06_09h33.05.618,Colour_Asymmetry_Pilot,2022.1.3,Win32,59.70862193,62c50e9c1127f2cd403a315f,0,3,3,34,1,twoone,,,,,,,,,,,,,,,,,,,,,,,,,,,,,,,,,,,,,,,,,,,,,,,,,,,,,,,,,,,,,,,,,,,,,,,,,,,,,,,,,,,,,,,,,,,,,,,,,,,,,,,,,,,,,,,,,,,,,,,,,,,,,,,,,,,,,,,,,,,,,,,,,,,,,,,,,,,,,
,,,,,,616ff9687de15c02fc267080,62c53a9c2f6e3a324060b81f,2022-07-06_09h33.05.618,Colour_Asymmetry_Pilot,2022.1.3,Win32,59.70862193,62c50e9c1127f2cd403a315f,0,4,4,5,1,threefour,,,,,,,,,,,,,,,,,,,,,,,,,,,,,,,,,,,,,,,,,,,,,,,,,,,,,,,,,,,,,,,,,,,,,,,,,,,,,,,,,,,,,,,,,,,,,,,,,,,,,,,,,,,,,,,,,,,,,,,,,,,,,,,,,,,,,,,,,,,,,,,,,,,,,,,,,,,,,
,,,,,,616ff9687de15c02fc267080,62c53a9c2f6e3a324060b81f,2022-07-06_09h33.05.618,Colour_Asymmetry_Pilot,2022.1.3,Win32,59.70862193,62c50e9c1127f2cd403a315f,0,5,5,148,1,threeone,,,,,,,,,,,,,,,,,,,,,,,,,,,,,,,,,,,,,,,,,,,,,,,,,,,,,,,,,,,,,,,,,,,,,,,,,,,,,,,,,,,,,,,,,,,,,,,,,,,,,,,,,,,,,,,,,,,,,,,,,,,,,,,,,,,,,,,,,,,,,,,,,,,,,,,,,,,,,
,,,,,,616ff9687de15c02fc267080,62c53a9c2f6e3a324060b81f,2022-07-06_09h33.05.618,Colour_Asymmetry_Pilot,2022.1.3,Win32,59.70862193,62c50e9c1127f2cd403a315f,0,6,6,143,1,fourthree,,,,,,,,,,,,,,,,,,,,,,,,,,,,,,,,,,,,,,,,,,,,,,,,,,,,,,,,,,,,,,,,,,,,,,,,,,,,,,,,,,,,,,,,,,,,,,,,,,,,,,,,,,,,,,,,,,,,,,,,,,,,,,,,,,,,,,,,,,,,,,,,,,,,,,,,,,,,,
,,,,,,616ff9687de15c02fc267080,62c53a9c2f6e3a324060b81f,2022-07-06_09h33.05.618,Colour_Asymmetry_Pilot,2022.1.3,Win32,59.70862193,62c50e9c1127f2cd403a315f,0,7,7,152,1,onetwo,,,,,,,,,,,,,,,,,,,,,,,,,,,,,,,,,,,,,,,,,,,,,,,,,,,,,,,,,,,,,,,,,,,,,,,,,,,,,,,,,,,,,,,,,,,,,,,,,,,,,,,,,,,,,,,,,,,,,,,,,,,,,,,,,,,,,,,,,,,,,,,,,,,,,,,,,,,,,
,,,,,,616ff9687de15c02fc267080,62c53a9c2f6e3a324060b81f,2022-07-06_09h33.05.618,Colour_Asymmetry_Pilot,2022.1.3,Win32,59.70862193,62c50e9c1127f2cd403a315f,0,8,8,12,1,threeone,,,,,,,,,,,,,,,,,,,,,,,,,,,,,,,,,,,,,,,,,,,,,,,,,,,,,,,,,,,,,,,,,,,,,,,,,,,,,,,,,,,,,,,,,,,,,,,,,,,,,,,,,,,,,,,,,,,,,,,,,,,,,,,,,,,,,,,,,,,,,,,,,,,,,,,,,,,,,
,,,,,,616ff9687de15c02fc267080,62c53a9c2f6e3a324060b81f,2022-07-06_09h33.05.618,Colour_Asymmetry_Pilot,2022.1.3,Win32,59.70862193,62c50e9c1127f2cd403a315f,0,9,9,78,1,fourtwo,,,,,,,,,,,,,,,,,,,,,,,,,,,,,,,,,,,,,,,,,,,,,,,,,,,,,,,,,,,,,,,,,,,,,,,,,,,,,,,,,,,,,,,,,,,,,,,,,,,,,,,,,,,,,,,,,,,,,,,,,,,,,,,,,,,,,,,,,,,,,,,,,,,,,,,,,,,,,
,,,,,,616ff9687de15c02fc267080,62c53a9c2f6e3a324060b81f,2022-07-06_09h33.05.618,Colour_Asymmetry_Pilot,2022.1.3,Win32,59.70862193,62c50e9c1127f2cd403a315f,0,10,10,89,1,onethree,,,,,,,,,,,,,,,,,,,,,,,,,,,,,,,,,,,,,,,,,,,,,,,,,,,,,,,,,,,,,,,,,,,,,,,,,,,,,,,,,,,,,,,,,,,,,,,,,,,,,,,,,,,,,,,,,,,,,,,,,,,,,,,,,,,,,,,,,,,,,,,,,,,,,,,,,,,,,
,,,,,,616ff9687de15c02fc267080,62c53a9c2f6e3a324060b81f,2022-07-06_09h33.05.618,Colour_Asymmetry_Pilot,2022.1.3,Win32,59.70862193,62c50e9c1127f2cd403a315f,0,11,11,31,1,fourthree,,,,,,,,,,,,,,,,,,,,,,,,,,,,,,,,,,,,,,,,,,,,,,,,,,,,,,,,,,,,,,,,,,,,,,,,,,,,,,,,,,,,,,,,,,,,,,,,,,,,,,,,,,,,,,,,,,,,,,,,,,,,,,,,,,,,,,,,,,,,,,,,,,,,,,,,,,,,,
,,,,,,616ff9687de15c02fc267080,62c53a9c2f6e3a324060b81f,2022-07-06_09h33.05.618,Colour_Asymmetry_Pilot,2022.1.3,Win32,59.70862193,62c50e9c1127f2cd403a315f,0,12,12,133,1,threefour,,,,,,,,,,,,,,,,,,,,,,,,,,,,,,,,,,,,,,,,,,,,,,,,,,,,,,,,,,,,,,,,,,,,,,,,,,,,,,,,,,,,,,,,,,,,,,,,,,,,,,,,,,,,,,,,,,,,,,,,,,,,,,,,,,,,,,,,,,,,,,,,,,,,,,,,,,,,,
,,,,,,616ff9687de15c02fc267080,62c53a9c2f6e3a324060b81f,2022-07-06_09h33.05.618,Colour_Asymmetry_Pilot,2022.1.3,Win32,59.70862193,62c50e9c1127f2cd403a315f,0,13,13,18,1,twoone,,,,,,,,,,,,,,,,,,,,,,,,,,,,,,,,,,,,,,,,,,,,,,,,,,,,,,,,,,,,,,,,,,,,,,,,,,,,,,,,,,,,,,,,,,,,,,,,,,,,,,,,,,,,,,,,,,,,,,,,,,,,,,,,,,,,,,,,,,,,,,,,,,,,,,,,,,,,,
,,,,,,616ff9687de15c02fc267080,62c53a9c2f6e3a324060b81f,2022-07-06_09h33.05.618,Colour_Asymmetry_Pilot,2022.1.3,Win32,59.70862193,62c50e9c1127f2cd403a315f,0,14,14,122,1,twoone,,,,,,,,,,,,,,,,,,,,,,,,,,,,,,,,,,,,,,,,,,,,,,,,,,,,,,,,,,,,,,,,,,,,,,,,,,,,,,,,,,,,,,,,,,,,,,,,,,,,,,,,,,,,,,,,,,,,,,,,,,,,,,,,,,,,,,,,,,,,,,,,,,,,,,,,,,,,,
,,,,,,616ff9687de15c02fc267080,62c53a9c2f6e3a324060b81f,2022-07-06_09h33.05.618,Colour_Asymmetry_Pilot,2022.1.3,Win32,59.70862193,62c50e9c1127f2cd403a315f,0,15,15,46,1,fourtwo,,,,,,,,,,,,,,,,,,,,,,,,,,,,,,,,,,,,,,,,,,,,,,,,,,,,,,,,,,,,,,,,,,,,,,,,,,,,,,,,,,,,,,,,,,,,,,,,,,,,,,,,,,,,,,,,,,,,,,,,,,,,,,,,,,,,,,,,,,,,,,,,,,,,,,,,,,,,,
,,,,,,616ff9687de15c02fc267080,62c53a9c2f6e3a324060b81f,2022-07-06_09h33.05.618,Colour_Asymmetry_Pilot,2022.1.3,Win32,59.70862193,62c50e9c1127f2cd403a315f,0,16,16,24,1,onetwo,,,,,,,,,,,,,,,,,,,,,,,,,,,,,,,,,,,,,,,,,,,,,,,,,,,,,,,,,,,,,,,,,,,,,,,,,,,,,,,,,,,,,,,,,,,,,,,,,,,,,,,,,,,,,,,,,,,,,,,,,,,,,,,,,,,,,,,,,,,,,,,,,,,,,,,,,,,,,
,,,,,,616ff9687de15c02fc267080,62c53a9c2f6e3a324060b81f,2022-07-06_09h33.05.618,Colour_Asymmetry_Pilot,2022.1.3,Win32,59.70862193,62c50e9c1127f2cd403a315f,0,17,17,110,1,fourtwo,,,,,,,,,,,,,,,,,,,,,,,,,,,,,,,,,,,,,,,,,,,,,,,,,,,,,,,,,,,,,,,,,,,,,,,,,,,,,,,,,,,,,,,,,,,,,,,,,,,,,,,,,,,,,,,,,,,,,,,,,,,,,,,,,,,,,,,,,,,,,,,,,,,,,,,,,,,,,
,,,,,,616ff9687de15c02fc267080,62c53a9c2f6e3a324060b81f,2022-07-06_09h33.05.618,Colour_Asymmetry_Pilot,2022.1.3,Win32,59.70862193,62c50e9c1127f2cd403a315f,0,18,18,102,1,fourtwo,,,,,,,,,,,,,,,,,,,,,,,,,,,,,,,,,,,,,,,,,,,,,,,,,,,,,,,,,,,,,,,,,,,,,,,,,,,,,,,,,,,,,,,,,,,,,,,,,,,,,,,,,,,,,,,,,,,,,,,,,,,,,,,,,,,,,,,,,,,,,,,,,,,,,,,,,,,,,
,,,,,,616ff9687de15c02fc267080,62c53a9c2f6e3a324060b81f,2022-07-06_09h33.05.618,Colour_Asymmetry_Pilot,2022.1.3,Win32,59.70862193,62c50e9c1127f2cd403a315f,0,19,19,121,1,onethree,,,,,,,,,,,,,,,,,,,,,,,,,,,,,,,,,,,,,,,,,,,,,,,,,,,,,,,,,,,,,,,,,,,,,,,,,,,,,,,,,,,,,,,,,,,,,,,,,,,,,,,,,,,,,,,,,,,,,,,,,,,,,,,,,,,,,,,,,,,,,,,,,,,,,,,,,,,,,
,,,,,,616ff9687de15c02fc267080,62c53a9c2f6e3a324060b81f,2022-07-06_09h33.05.618,Colour_Asymmetry_Pilot,2022.1.3,Win32,59.70862193,62c50e9c1127f2cd403a315f,0,20,20,98,1,twoone,,,,,,,,,,,,,,,,,,,,,,,,,,,,,,,,,,,,,,,,,,,,,,,,,,,,,,,,,,,,,,,,,,,,,,,,,,,,,,,,,,,,,,,,,,,,,,,,,,,,,,,,,,,,,,,,,,,,,,,,,,,,,,,,,,,,,,,,,,,,,,,,,,,,,,,,,,,,,
,,,,,,616ff9687de15c02fc267080,62c53a9c2f6e3a324060b81f,2022-07-06_09h33.05.618,Colour_Asymmetry_Pilot,2022.1.3,Win32,59.70862193,62c50e9c1127f2cd403a315f,0,21,21,17,1,onethree,,,,,,,,,,,,,,,,,,,,,,,,,,,,,,,,,,,,,,,,,,,,,,,,,,,,,,,,,,,,,,,,,,,,,,,,,,,,,,,,,,,,,,,,,,,,,,,,,,,,,,,,,,,,,,,,,,,,,,,,,,,,,,,,,,,,,,,,,,,,,,,,,,,,,,,,,,,,,
,,,,,,616ff9687de15c02fc267080,62c53a9c2f6e3a324060b81f,2022-07-06_09h33.05.618,Colour_Asymmetry_Pilot,2022.1.3,Win32,59.70862193,62c50e9c1127f2cd403a315f,0,22,22,68,1,threeone,,,,,,,,,,,,,,,,,,,,,,,,,,,,,,,,,,,,,,,,,,,,,,,,,,,,,,,,,,,,,,,,,,,,,,,,,,,,,,,,,,,,,,,,,,,,,,,,,,,,,,,,,,,,,,,,,,,,,,,,,,,,,,,,,,,,,,,,,,,,,,,,,,,,,,,,,,,,,
,,,,,,616ff9687de15c02fc267080,62c53a9c2f6e3a324060b81f,2022-07-06_09h33.05.618,Colour_Asymmetry_Pilot,2022.1.3,Win32,59.70862193,62c50e9c1127f2cd403a315f,0,23,23,7,1,fourthree,,,,,,,,,,,,,,,,,,,,,,,,,,,,,,,,,,,,,,,,,,,,,,,,,,,,,,,,,,,,,,,,,,,,,,,,,,,,,,,,,,,,,,,,,,,,,,,,,,,,,,,,,,,,,,,,,,,,,,,,,,,,,,,,,,,,,,,,,,,,,,,,,,,,,,,,,,,,,
,,,,,,616ff9687de15c02fc267080,62c53a9c2f6e3a324060b81f,2022-07-06_09h33.05.618,Colour_Asymmetry_Pilot,2022.1.3,Win32,59.70862193,62c50e9c1127f2cd403a315f,0,24,24,44,1,threeone,,,,,,,,,,,,,,,,,,,,,,,,,,,,,,,,,,,,,,,,,,,,,,,,,,,,,,,,,,,,,,,,,,,,,,,,,,,,,,,,,,,,,,,,,,,,,,,,,,,,,,,,,,,,,,,,,,,,,,,,,,,,,,,,,,,,,,,,,,,,,,,,,,,,,,,,,,,,,
,,,,,,616ff9687de15c02fc267080,62c53a9c2f6e3a324060b81f,2022-07-06_09h33.05.618,Colour_Asymmetry_Pilot,2022.1.3,Win32,59.70862193,62c50e9c1127f2cd403a315f,0,25,25,66,1,twoone,,,,,,,,,,,,,,,,,,,,,,,,,,,,,,,,,,,,,,,,,,,,,,,,,,,,,,,,,,,,,,,,,,,,,,,,,,,,,,,,,,,,,,,,,,,,,,,,,,,,,,,,,,,,,,,,,,,,,,,,,,,,,,,,,,,,,,,,,,,,,,,,,,,,,,,,,,,,,
,,,,,,616ff9687de15c02fc267080,62c53a9c2f6e3a324060b81f,2022-07-06_09h33.05.618,Colour_Asymmetry_Pilot,2022.1.3,Win32,59.70862193,62c50e9c1127f2cd403a315f,0,26,26,36,1,threeone,,,,,,,,,,,,,,,,,,,,,,,,,,,,,,,,,,,,,,,,,,,,,,,,,,,,,,,,,,,,,,,,,,,,,,,,,,,,,,,,,,,,,,,,,,,,,,,,,,,,,,,,,,,,,,,,,,,,,,,,,,,,,,,,,,,,,,,,,,,,,,,,,,,,,,,,,,,,,
,,,,,,616ff9687de15c02fc267080,62c53a9c2f6e3a324060b81f,2022-07-06_09h33.05.618,Colour_Asymmetry_Pilot,2022.1.3,Win32,59.70862193,62c50e9c1127f2cd403a315f,0,27,27,113,1,onethree,,,,,,,,,,,,,,,,,,,,,,,,,,,,,,,,,,,,,,,,,,,,,,,,,,,,,,,,,,,,,,,,,,,,,,,,,,,,,,,,,,,,,,,,,,,,,,,,,,,,,,,,,,,,,,,,,,,,,,,,,,,,,,,,,,,,,,,,,,,,,,,,,,,,,,,,,,,,,
,,,,,,616ff9687de15c02fc267080,62c53a9c2f6e3a324060b81f,2022-07-06_09h33.05.618,Colour_Asymmetry_Pilot,2022.1.3,Win32,59.70862193,62c50e9c1127f2cd403a315f,0,28,28,142,1,fourtwo,,,,,,,,,,,,,,,,,,,,,,,,,,,,,,,,,,,,,,,,,,,,,,,,,,,,,,,,,,,,,,,,,,,,,,,,,,,,,,,,,,,,,,,,,,,,,,,,,,,,,,,,,,,,,,,,,,,,,,,,,,,,,,,,,,,,,,,,,,,,,,,,,,,,,,,,,,,,,
,,,,,,616ff9687de15c02fc267080,62c53a9c2f6e3a324060b81f,2022-07-06_09h33.05.618,Colour_Asymmetry_Pilot,2022.1.3,Win32,59.70862193,62c50e9c1127f2cd403a315f,0,29,29,159,1,fourthree,,,,,,,,,,,,,,,,,,,,,,,,,,,,,,,,,,,,,,,,,,,,,,,,,,,,,,,,,,,,,,,,,,,,,,,,,,,,,,,,,,,,,,,,,,,,,,,,,,,,,,,,,,,,,,,,,,,,,,,,,,,,,,,,,,,,,,,,,,,,,,,,,,,,,,,,,,,,,
,,,,,,616ff9687de15c02fc267080,62c53a9c2f6e3a324060b81f,2022-07-06_09h33.05.618,Colour_Asymmetry_Pilot,2022.1.3,Win32,59.70862193,62c50e9c1127f2cd403a315f,0,30,30,147,1,twofour,,,,,,,,,,,,,,,,,,,,,,,,,,,,,,,,,,,,,,,,,,,,,,,,,,,,,,,,,,,,,,,,,,,,,,,,,,,,,,,,,,,,,,,,,,,,,,,,,,,,,,,,,,,,,,,,,,,,,,,,,,,,,,,,,,,,,,,,,,,,,,,,,,,,,,,,,,,,,
,,,,,,616ff9687de15c02fc267080,62c53a9c2f6e3a324060b81f,2022-07-06_09h33.05.618,Colour_Asymmetry_Pilot,2022.1.3,Win32,59.70862193,62c50e9c1127f2cd403a315f,0,31,31,32,1,onetwo,,,,,,,,,,,,,,,,,,,,,,,,,,,,,,,,,,,,,,,,,,,,,,,,,,,,,,,,,,,,,,,,,,,,,,,,,,,,,,,,,,,,,,,,,,,,,,,,,,,,,,,,,,,,,,,,,,,,,,,,,,,,,,,,,,,,,,,,,,,,,,,,,,,,,,,,,,,,,
,,,,,,616ff9687de15c02fc267080,62c53a9c2f6e3a324060b81f,2022-07-06_09h33.05.618,Colour_Asymmetry_Pilot,2022.1.3,Win32,59.70862193,62c50e9c1127f2cd403a315f,0,32,32,129,1,onethree,,,,,,,,,,,,,,,,,,,,,,,,,,,,,,,,,,,,,,,,,,,,,,,,,,,,,,,,,,,,,,,,,,,,,,,,,,,,,,,,,,,,,,,,,,,,,,,,,,,,,,,,,,,,,,,,,,,,,,,,,,,,,,,,,,,,,,,,,,,,,,,,,,,,,,,,,,,,,
,,,,,,616ff9687de15c02fc267080,62c53a9c2f6e3a324060b81f,2022-07-06_09h33.05.618,Colour_Asymmetry_Pilot,2022.1.3,Win32,59.70862193,62c50e9c1127f2cd403a315f,0,33,33,45,1,threefour,,,,,,,,,,,,,,,,,,,,,,,,,,,,,,,,,,,,,,,,,,,,,,,,,,,,,,,,,,,,,,,,,,,,,,,,,,,,,,,,,,,,,,,,,,,,,,,,,,,,,,,,,,,,,,,,,,,,,,,,,,,,,,,,,,,,,,,,,,,,,,,,,,,,,,,,,,,,,
,,,,,,616ff9687de15c02fc267080,62c53a9c2f6e3a324060b81f,2022-07-06_09h33.05.618,Colour_Asymmetry_Pilot,2022.1.3,Win32,59.70862193,62c50e9c1127f2cd403a315f,0,34,34,154,1,twoone,,,,,,,,,,,,,,,,,,,,,,,,,,,,,,,,,,,,,,,,,,,,,,,,,,,,,,,,,,,,,,,,,,,,,,,,,,,,,,,,,,,,,,,,,,,,,,,,,,,,,,,,,,,,,,,,,,,,,,,,,,,,,,,,,,,,,,,,,,,,,,,,,,,,,,,,,,,,,
,,,,,,616ff9687de15c02fc267080,62c53a9c2f6e3a324060b81f,2022-07-06_09h33.05.618,Colour_Asymmetry_Pilot,2022.1.3,Win32,59.70862193,62c50e9c1127f2cd403a315f,0,35,35,155,1,twofour,,,,,,,,,,,,,,,,,,,,,,,,,,,,,,,,,,,,,,,,,,,,,,,,,,,,,,,,,,,,,,,,,,,,,,,,,,,,,,,,,,,,,,,,,,,,,,,,,,,,,,,,,,,,,,,,,,,,,,,,,,,,,,,,,,,,,,,,,,,,,,,,,,,,,,,,,,,,,
,,,,,,616ff9687de15c02fc267080,62c53a9c2f6e3a324060b81f,2022-07-06_09h33.05.618,Colour_Asymmetry_Pilot,2022.1.3,Win32,59.70862193,62c50e9c1127f2cd403a315f,0,36,36,50,1,twoone,,,,,,,,,,,,,,,,,,,,,,,,,,,,,,,,,,,,,,,,,,,,,,,,,,,,,,,,,,,,,,,,,,,,,,,,,,,,,,,,,,,,,,,,,,,,,,,,,,,,,,,,,,,,,,,,,,,,,,,,,,,,,,,,,,,,,,,,,,,,,,,,,,,,,,,,,,,,,
,,,,,,616ff9687de15c02fc267080,62c53a9c2f6e3a324060b81f,2022-07-06_09h33.05.618,Colour_Asymmetry_Pilot,2022.1.3,Win32,59.70862193,62c50e9c1127f2cd403a315f,0,37,37,43,1,twofour,,,,,,,,,,,,,,,,,,,,,,,,,,,,,,,,,,,,,,,,,,,,,,,,,,,,,,,,,,,,,,,,,,,,,,,,,,,,,,,,,,,,,,,,,,,,,,,,,,,,,,,,,,,,,,,,,,,,,,,,,,,,,,,,,,,,,,,,,,,,,,,,,,,,,,,,,,,,,
,,,,,,616ff9687de15c02fc267080,62c53a9c2f6e3a324060b81f,2022-07-06_09h33.05.618,Colour_Asymmetry_Pilot,2022.1.3,Win32,59.70862193,62c50e9c1127f2cd403a315f,0,38,38,151,1,fourthree,,,,,,,,,,,,,,,,,,,,,,,,,,,,,,,,,,,,,,,,,,,,,,,,,,,,,,,,,,,,,,,,,,,,,,,,,,,,,,,,,,,,,,,,,,,,,,,,,,,,,,,,,,,,,,,,,,,,,,,,,,,,,,,,,,,,,,,,,,,,,,,,,,,,,,,,,,,,,
,,,,,,616ff9687de15c02fc267080,62c53a9c2f6e3a324060b81f,2022-07-06_09h33.05.618,Colour_Asymmetry_Pilot,2022.1.3,Win32,59.70862193,62c50e9c1127f2cd403a315f,0,39,39,20,1,threeone,,,,,,,,,,,,,,,,,,,,,,,,,,,,,,,,,,,,,,,,,,,,,,,,,,,,,,,,,,,,,,,,,,,,,,,,,,,,,,,,,,,,,,,,,,,,,,,,,,,,,,,,,,,,,,,,,,,,,,,,,,,,,,,,,,,,,,,,,,,,,,,,,,,,,,,,,,,,,
,,,,,,616ff9687de15c02fc267080,62c53a9c2f6e3a324060b81f,2022-07-06_09h33.05.618,Colour_Asymmetry_Pilot,2022.1.3,Win32,59.70862193,62c50e9c1127f2cd403a315f,0,40,40,35,1,twofour,,,,,,,,,,,,,,,,,,,,,,,,,,,,,,,,,,,,,,,,,,,,,,,,,,,,,,,,,,,,,,,,,,,,,,,,,,,,,,,,,,,,,,,,,,,,,,,,,,,,,,,,,,,,,,,,,,,,,,,,,,,,,,,,,,,,,,,,,,,,,,,,,,,,,,,,,,,,,
,,,,,,616ff9687de15c02fc267080,62c53a9c2f6e3a324060b81f,2022-07-06_09h33.05.618,Colour_Asymmetry_Pilot,2022.1.3,Win32,59.70862193,62c50e9c1127f2cd403a315f,0,41,41,96,1,onetwo,,,,,,,,,,,,,,,,,,,,,,,,,,,,,,,,,,,,,,,,,,,,,,,,,,,,,,,,,,,,,,,,,,,,,,,,,,,,,,,,,,,,,,,,,,,,,,,,,,,,,,,,,,,,,,,,,,,,,,,,,,,,,,,,,,,,,,,,,,,,,,,,,,,,,,,,,,,,,
,,,,,,616ff9687de15c02fc267080,62c53a9c2f6e3a324060b81f,2022-07-06_09h33.05.618,Colour_Asymmetry_Pilot,2022.1.3,Win32,59.70862193,62c50e9c1127f2cd403a315f,0,42,42,82,1,twoone,,,,,,,,,,,,,,,,,,,,,,,,,,,,,,,,,,,,,,,,,,,,,,,,,,,,,,,,,,,,,,,,,,,,,,,,,,,,,,,,,,,,,,,,,,,,,,,,,,,,,,,,,,,,,,,,,,,,,,,,,,,,,,,,,,,,,,,,,,,,,,,,,,,,,,,,,,,,,
,,,,,,616ff9687de15c02fc267080,62c53a9c2f6e3a324060b81f,2022-07-06_09h33.05.618,Colour_Asymmetry_Pilot,2022.1.3,Win32,59.70862193,62c50e9c1127f2cd403a315f,0,43,43,69,1,threefour,,,,,,,,,,,,,,,,,,,,,,,,,,,,,,,,,,,,,,,,,,,,,,,,,,,,,,,,,,,,,,,,,,,,,,,,,,,,,,,,,,,,,,,,,,,,,,,,,,,,,,,,,,,,,,,,,,,,,,,,,,,,,,,,,,,,,,,,,,,,,,,,,,,,,,,,,,,,,
,,,,,,616ff9687de15c02fc267080,62c53a9c2f6e3a324060b81f,2022-07-06_09h33.05.618,Colour_Asymmetry_Pilot,2022.1.3,Win32,59.70862193,62c50e9c1127f2cd403a315f,0,44,44,106,1,twoone,,,,,,,,,,,,,,,,,,,,,,,,,,,,,,,,,,,,,,,,,,,,,,,,,,,,,,,,,,,,,,,,,,,,,,,,,,,,,,,,,,,,,,,,,,,,,,,,,,,,,,,,,,,,,,,,,,,,,,,,,,,,,,,,,,,,,,,,,,,,,,,,,,,,,,,,,,,,,
,,,,,,616ff9687de15c02fc267080,62c53a9c2f6e3a324060b81f,2022-07-06_09h33.05.618,Colour_Asymmetry_Pilot,2022.1.3,Win32,59.70862193,62c50e9c1127f2cd403a315f,0,45,45,130,1,twoone,,,,,,,,,,,,,,,,,,,,,,,,,,,,,,,,,,,,,,,,,,,,,,,,,,,,,,,,,,,,,,,,,,,,,,,,,,,,,,,,,,,,,,,,,,,,,,,,,,,,,,,,,,,,,,,,,,,,,,,,,,,,,,,,,,,,,,,,,,,,,,,,,,,,,,,,,,,,,
,,,,,,616ff9687de15c02fc267080,62c53a9c2f6e3a324060b81f,2022-07-06_09h33.05.618,Colour_Asymmetry_Pilot,2022.1.3,Win32,59.70862193,62c50e9c1127f2cd403a315f,0,46,46,95,1,fourthree,,,,,,,,,,,,,,,,,,,,,,,,,,,,,,,,,,,,,,,,,,,,,,,,,,,,,,,,,,,,,,,,,,,,,,,,,,,,,,,,,,,,,,,,,,,,,,,,,,,,,,,,,,,,,,,,,,,,,,,,,,,,,,,,,,,,,,,,,,,,,,,,,,,,,,,,,,,,,
,,,,,,616ff9687de15c02fc267080,62c53a9c2f6e3a324060b81f,2022-07-06_09h33.05.618,Colour_Asymmetry_Pilot,2022.1.3,Win32,59.70862193,62c50e9c1127f2cd403a315f,0,47,47,87,1,fourthree,,,,,,,,,,,,,,,,,,,,,,,,,,,,,,,,,,,,,,,,,,,,,,,,,,,,,,,,,,,,,,,,,,,,,,,,,,,,,,,,,,,,,,,,,,,,,,,,,,,,,,,,,,,,,,,,,,,,,,,,,,,,,,,,,,,,,,,,,,,,,,,,,,,,,,,,,,,,,
,,,,,,616ff9687de15c02fc267080,62c53a9c2f6e3a324060b81f,2022-07-06_09h33.05.618,Colour_Asymmetry_Pilot,2022.1.3,Win32,59.70862193,62c50e9c1127f2cd403a315f,0,48,48,76,1,threeone,,,,,,,,,,,,,,,,,,,,,,,,,,,,,,,,,,,,,,,,,,,,,,,,,,,,,,,,,,,,,,,,,,,,,,,,,,,,,,,,,,,,,,,,,,,,,,,,,,,,,,,,,,,,,,,,,,,,,,,,,,,,,,,,,,,,,,,,,,,,,,,,,,,,,,,,,,,,,
,,,,,,616ff9687de15c02fc267080,62c53a9c2f6e3a324060b81f,2022-07-06_09h33.05.618,Colour_Asymmetry_Pilot,2022.1.3,Win32,59.70862193,62c50e9c1127f2cd403a315f,0,49,49,29,1,threefour,,,,,,,,,,,,,,,,,,,,,,,,,,,,,,,,,,,,,,,,,,,,,,,,,,,,,,,,,,,,,,,,,,,,,,,,,,,,,,,,,,,,,,,,,,,,,,,,,,,,,,,,,,,,,,,,,,,,,,,,,,,,,,,,,,,,,,,,,,,,,,,,,,,,,,,,,,,,,
,,,,,,616ff9687de15c02fc267080,62c53a9c2f6e3a324060b81f,2022-07-06_09h33.05.618,Colour_Asymmetry_Pilot,2022.1.3,Win32,59.70862193,62c50e9c1127f2cd403a315f,0,50,50,105,1,onethree,,,,,,,,,,,,,,,,,,,,,,,,,,,,,,,,,,,,,,,,,,,,,,,,,,,,,,,,,,,,,,,,,,,,,,,,,,,,,,,,,,,,,,,,,,,,,,,,,,,,,,,,,,,,,,,,,,,,,,,,,,,,,,,,,,,,,,,,,,,,,,,,,,,,,,,,,,,,,
,,,,,,616ff9687de15c02fc267080,62c53a9c2f6e3a324060b81f,2022-07-06_09h33.05.618,Colour_Asymmetry_Pilot,2022.1.3,Win32,59.70862193,62c50e9c1127f2cd403a315f,0,51,51,11,1,twofour,,,,,,,,,,,,,,,,,,,,,,,,,,,,,,,,,,,,,,,,,,,,,,,,,,,,,,,,,,,,,,,,,,,,,,,,,,,,,,,,,,,,,,,,,,,,,,,,,,,,,,,,,,,,,,,,,,,,,,,,,,,,,,,,,,,,,,,,,,,,,,,,,,,,,,,,,,,,,
,,,,,,616ff9687de15c02fc267080,62c53a9c2f6e3a324060b81f,2022-07-06_09h33.05.618,Colour_Asymmetry_Pilot,2022.1.3,Win32,59.70862193,62c50e9c1127f2cd403a315f,0,52,52,79,1,fourthree,,,,,,,,,,,,,,,,,,,,,,,,,,,,,,,,,,,,,,,,,,,,,,,,,,,,,,,,,,,,,,,,,,,,,,,,,,,,,,,,,,,,,,,,,,,,,,,,,,,,,,,,,,,,,,,,,,,,,,,,,,,,,,,,,,,,,,,,,,,,,,,,,,,,,,,,,,,,,
,,,,,,616ff9687de15c02fc267080,62c53a9c2f6e3a324060b81f,2022-07-06_09h33.05.618,Colour_Asymmetry_Pilot,2022.1.3,Win32,59.70862193,62c50e9c1127f2cd403a315f,0,53,53,9,1,onethree,,,,,,,,,,,,,,,,,,,,,,,,,,,,,,,,,,,,,,,,,,,,,,,,,,,,,,,,,,,,,,,,,,,,,,,,,,,,,,,,,,,,,,,,,,,,,,,,,,,,,,,,,,,,,,,,,,,,,,,,,,,,,,,,,,,,,,,,,,,,,,,,,,,,,,,,,,,,,
,,,,,,616ff9687de15c02fc267080,62c53a9c2f6e3a324060b81f,2022-07-06_09h33.05.618,Colour_Asymmetry_Pilot,2022.1.3,Win32,59.70862193,62c50e9c1127f2cd403a315f,0,54,54,93,1,threefour,,,,,,,,,,,,,,,,,,,,,,,,,,,,,,,,,,,,,,,,,,,,,,,,,,,,,,,,,,,,,,,,,,,,,,,,,,,,,,,,,,,,,,,,,,,,,,,,,,,,,,,,,,,,,,,,,,,,,,,,,,,,,,,,,,,,,,,,,,,,,,,,,,,,,,,,,,,,,
,,,,,,616ff9687de15c02fc267080,62c53a9c2f6e3a324060b81f,2022-07-06_09h33.05.618,Colour_Asymmetry_Pilot,2022.1.3,Win32,59.70862193,62c50e9c1127f2cd403a315f,0,55,55,108,1,threeone,,,,,,,,,,,,,,,,,,,,,,,,,,,,,,,,,,,,,,,,,,,,,,,,,,,,,,,,,,,,,,,,,,,,,,,,,,,,,,,,,,,,,,,,,,,,,,,,,,,,,,,,,,,,,,,,,,,,,,,,,,,,,,,,,,,,,,,,,,,,,,,,,,,,,,,,,,,,,
,,,,,,616ff9687de15c02fc267080,62c53a9c2f6e3a324060b81f,2022-07-06_09h33.05.618,Colour_Asymmetry_Pilot,2022.1.3,Win32,59.70862193,62c50e9c1127f2cd403a315f,0,56,56,30,1,fourtwo,,,,,,,,,,,,,,,,,,,,,,,,,,,,,,,,,,,,,,,,,,,,,,,,,,,,,,,,,,,,,,,,,,,,,,,,,,,,,,,,,,,,,,,,,,,,,,,,,,,,,,,,,,,,,,,,,,,,,,,,,,,,,,,,,,,,,,,,,,,,,,,,,,,,,,,,,,,,,
,,,,,,616ff9687de15c02fc267080,62c53a9c2f6e3a324060b81f,2022-07-06_09h33.05.618,Colour_Asymmetry_Pilot,2022.1.3,Win32,59.70862193,62c50e9c1127f2cd403a315f,0,57,57,81,1,onethree,,,,,,,,,,,,,,,,,,,,,,,,,,,,,,,,,,,,,,,,,,,,,,,,,,,,,,,,,,,,,,,,,,,,,,,,,,,,,,,,,,,,,,,,,,,,,,,,,,,,,,,,,,,,,,,,,,,,,,,,,,,,,,,,,,,,,,,,,,,,,,,,,,,,,,,,,,,,,
,,,,,,616ff9687de15c02fc267080,62c53a9c2f6e3a324060b81f,2022-07-06_09h33.05.618,Colour_Asymmetry_Pilot,2022.1.3,Win32,59.70862193,62c50e9c1127f2cd403a315f,0,58,58,104,1,onetwo,,,,,,,,,,,,,,,,,,,,,,,,,,,,,,,,,,,,,,,,,,,,,,,,,,,,,,,,,,,,,,,,,,,,,,,,,,,,,,,,,,,,,,,,,,,,,,,,,,,,,,,,,,,,,,,,,,,,,,,,,,,,,,,,,,,,,,,,,,,,,,,,,,,,,,,,,,,,,
,,,,,,616ff9687de15c02fc267080,62c53a9c2f6e3a324060b81f,2022-07-06_09h33.05.618,Colour_Asymmetry_Pilot,2022.1.3,Win32,59.70862193,62c50e9c1127f2cd403a315f,0,59,59,41,1,onethree,,,,,,,,,,,,,,,,,,,,,,,,,,,,,,,,,,,,,,,,,,,,,,,,,,,,,,,,,,,,,,,,,,,,,,,,,,,,,,,,,,,,,,,,,,,,,,,,,,,,,,,,,,,,,,,,,,,,,,,,,,,,,,,,,,,,,,,,,,,,,,,,,,,,,,,,,,,,,
,,,,,,616ff9687de15c02fc267080,62c53a9c2f6e3a324060b81f,2022-07-06_09h33.05.618,Colour_Asymmetry_Pilot,2022.1.3,Win32,59.70862193,62c50e9c1127f2cd403a315f,0,60,60,149,1,threefour,,,,,,,,,,,,,,,,,,,,,,,,,,,,,,,,,,,,,,,,,,,,,,,,,,,,,,,,,,,,,,,,,,,,,,,,,,,,,,,,,,,,,,,,,,,,,,,,,,,,,,,,,,,,,,,,,,,,,,,,,,,,,,,,,,,,,,,,,,,,,,,,,,,,,,,,,,,,,
,,,,,,616ff9687de15c02fc267080,62c53a9c2f6e3a324060b81f,2022-07-06_09h33.05.618,Colour_Asymmetry_Pilot,2022.1.3,Win32,59.70862193,62c50e9c1127f2cd403a315f,0,61,61,112,1,onetwo,,,,,,,,,,,,,,,,,,,,,,,,,,,,,,,,,,,,,,,,,,,,,,,,,,,,,,,,,,,,,,,,,,,,,,,,,,,,,,,,,,,,,,,,,,,,,,,,,,,,,,,,,,,,,,,,,,,,,,,,,,,,,,,,,,,,,,,,,,,,,,,,,,,,,,,,,,,,,
,,,,,,616ff9687de15c02fc267080,62c53a9c2f6e3a324060b81f,2022-07-06_09h33.05.618,Colour_Asymmetry_Pilot,2022.1.3,Win32,59.70862193,62c50e9c1127f2cd403a315f,0,62,62,51,1,twofour,,,,,,,,,,,,,,,,,,,,,,,,,,,,,,,,,,,,,,,,,,,,,,,,,,,,,,,,,,,,,,,,,,,,,,,,,,,,,,,,,,,,,,,,,,,,,,,,,,,,,,,,,,,,,,,,,,,,,,,,,,,,,,,,,,,,,,,,,,,,,,,,,,,,,,,,,,,,,
,,,,,,616ff9687de15c02fc267080,62c53a9c2f6e3a324060b81f,2022-07-06_09h33.05.618,Colour_Asymmetry_Pilot,2022.1.3,Win32,59.70862193,62c50e9c1127f2cd403a315f,0,63,63,74,1,twoone,,,,,,,,,,,,,,,,,,,,,,,,,,,,,,,,,,,,,,,,,,,,,,,,,,,,,,,,,,,,,,,,,,,,,,,,,,,,,,,,,,,,,,,,,,,,,,,,,,,,,,,,,,,,,,,,,,,,,,,,,,,,,,,,,,,,,,,,,,,,,,,,,,,,,,,,,,,,,
,,,,,,616ff9687de15c02fc267080,62c53a9c2f6e3a324060b81f,2022-07-06_09h33.05.618,Colour_Asymmetry_Pilot,2022.1.3,Win32,59.70862193,62c50e9c1127f2cd403a315f,0,64,64,103,1,fourthree,,,,,,,,,,,,,,,,,,,,,,,,,,,,,,,,,,,,,,,,,,,,,,,,,,,,,,,,,,,,,,,,,,,,,,,,,,,,,,,,,,,,,,,,,,,,,,,,,,,,,,,,,,,,,,,,,,,,,,,,,,,,,,,,,,,,,,,,,,,,,,,,,,,,,,,,,,,,,
,,,,,,616ff9687de15c02fc267080,62c53a9c2f6e3a324060b81f,2022-07-06_09h33.05.618,Colour_Asymmetry_Pilot,2022.1.3,Win32,59.70862193,62c50e9c1127f2cd403a315f,0,65,65,26,1,twoone,,,,,,,,,,,,,,,,,,,,,,,,,,,,,,,,,,,,,,,,,,,,,,,,,,,,,,,,,,,,,,,,,,,,,,,,,,,,,,,,,,,,,,,,,,,,,,,,,,,,,,,,,,,,,,,,,,,,,,,,,,,,,,,,,,,,,,,,,,,,,,,,,,,,,,,,,,,,,
,,,,,,616ff9687de15c02fc267080,62c53a9c2f6e3a324060b81f,2022-07-06_09h33.05.618,Colour_Asymmetry_Pilot,2022.1.3,Win32,59.70862193,62c50e9c1127f2cd403a315f,0,66,66,42,1,twoone,,,,,,,,,,,,,,,,,,,,,,,,,,,,,,,,,,,,,,,,,,,,,,,,,,,,,,,,,,,,,,,,,,,,,,,,,,,,,,,,,,,,,,,,,,,,,,,,,,,,,,,,,,,,,,,,,,,,,,,,,,,,,,,,,,,,,,,,,,,,,,,,,,,,,,,,,,,,,
,,,,,,616ff9687de15c02fc267080,62c53a9c2f6e3a324060b81f,2022-07-06_09h33.05.618,Colour_Asymmetry_Pilot,2022.1.3,Win32,59.70862193,62c50e9c1127f2cd403a315f,0,67,67,128,1,onetwo,,,,,,,,,,,,,,,,,,,,,,,,,,,,,,,,,,,,,,,,,,,,,,,,,,,,,,,,,,,,,,,,,,,,,,,,,,,,,,,,,,,,,,,,,,,,,,,,,,,,,,,,,,,,,,,,,,,,,,,,,,,,,,,,,,,,,,,,,,,,,,,,,,,,,,,,,,,,,
,,,,,,616ff9687de15c02fc267080,62c53a9c2f6e3a324060b81f,2022-07-06_09h33.05.618,Colour_Asymmetry_Pilot,2022.1.3,Win32,59.70862193,62c50e9c1127f2cd403a315f,0,68,68,55,1,fourthree,,,,,,,,,,,,,,,,,,,,,,,,,,,,,,,,,,,,,,,,,,,,,,,,,,,,,,,,,,,,,,,,,,,,,,,,,,,,,,,,,,,,,,,,,,,,,,,,,,,,,,,,,,,,,,,,,,,,,,,,,,,,,,,,,,,,,,,,,,,,,,,,,,,,,,,,,,,,,
,,,,,,616ff9687de15c02fc267080,62c53a9c2f6e3a324060b81f,2022-07-06_09h33.05.618,Colour_Asymmetry_Pilot,2022.1.3,Win32,59.70862193,62c50e9c1127f2cd403a315f,0,69,69,57,1,onethree,,,,,,,,,,,,,,,,,,,,,,,,,,,,,,,,,,,,,,,,,,,,,,,,,,,,,,,,,,,,,,,,,,,,,,,,,,,,,,,,,,,,,,,,,,,,,,,,,,,,,,,,,,,,,,,,,,,,,,,,,,,,,,,,,,,,,,,,,,,,,,,,,,,,,,,,,,,,,
,,,,,,616ff9687de15c02fc267080,62c53a9c2f6e3a324060b81f,2022-07-06_09h33.05.618,Colour_Asymmetry_Pilot,2022.1.3,Win32,59.70862193,62c50e9c1127f2cd403a315f,0,70,70,111,1,fourthree,,,,,,,,,,,,,,,,,,,,,,,,,,,,,,,,,,,,,,,,,,,,,,,,,,,,,,,,,,,,,,,,,,,,,,,,,,,,,,,,,,,,,,,,,,,,,,,,,,,,,,,,,,,,,,,,,,,,,,,,,,,,,,,,,,,,,,,,,,,,,,,,,,,,,,,,,,,,,
,,,,,,616ff9687de15c02fc267080,62c53a9c2f6e3a324060b81f,2022-07-06_09h33.05.618,Colour_Asymmetry_Pilot,2022.1.3,Win32,59.70862193,62c50e9c1127f2cd403a315f,0,71,71,88,1,onetwo,,,,,,,,,,,,,,,,,,,,,,,,,,,,,,,,,,,,,,,,,,,,,,,,,,,,,,,,,,,,,,,,,,,,,,,,,,,,,,,,,,,,,,,,,,,,,,,,,,,,,,,,,,,,,,,,,,,,,,,,,,,,,,,,,,,,,,,,,,,,,,,,,,,,,,,,,,,,,
,,,,,,616ff9687de15c02fc267080,62c53a9c2f6e3a324060b81f,2022-07-06_09h33.05.618,Colour_Asymmetry_Pilot,2022.1.3,Win32,59.70862193,62c50e9c1127f2cd403a315f,0,72,72,138,1,twoone,,,,,,,,,,,,,,,,,,,,,,,,,,,,,,,,,,,,,,,,,,,,,,,,,,,,,,,,,,,,,,,,,,,,,,,,,,,,,,,,,,,,,,,,,,,,,,,,,,,,,,,,,,,,,,,,,,,,,,,,,,,,,,,,,,,,,,,,,,,,,,,,,,,,,,,,,,,,,
,,,,,,616ff9687de15c02fc267080,62c53a9c2f6e3a324060b81f,2022-07-06_09h33.05.618,Colour_Asymmetry_Pilot,2022.1.3,Win32,59.70862193,62c50e9c1127f2cd403a315f,0,73,73,40,1,onetwo,,,,,,,,,,,,,,,,,,,,,,,,,,,,,,,,,,,,,,,,,,,,,,,,,,,,,,,,,,,,,,,,,,,,,,,,,,,,,,,,,,,,,,,,,,,,,,,,,,,,,,,,,,,,,,,,,,,,,,,,,,,,,,,,,,,,,,,,,,,,,,,,,,,,,,,,,,,,,
,,,,,,616ff9687de15c02fc267080,62c53a9c2f6e3a324060b81f,2022-07-06_09h33.05.618,Colour_Asymmetry_Pilot,2022.1.3,Win32,59.70862193,62c50e9c1127f2cd403a315f,0,74,74,65,1,onethree,,,,,,,,,,,,,,,,,,,,,,,,,,,,,,,,,,,,,,,,,,,,,,,,,,,,,,,,,,,,,,,,,,,,,,,,,,,,,,,,,,,,,,,,,,,,,,,,,,,,,,,,,,,,,,,,,,,,,,,,,,,,,,,,,,,,,,,,,,,,,,,,,,,,,,,,,,,,,
,,,,,,616ff9687de15c02fc267080,62c53a9c2f6e3a324060b81f,2022-07-06_09h33.05.618,Colour_Asymmetry_Pilot,2022.1.3,Win32,59.70862193,62c50e9c1127f2cd403a315f,0,75,75,54,1,fourtwo,,,,,,,,,,,,,,,,,,,,,,,,,,,,,,,,,,,,,,,,,,,,,,,,,,,,,,,,,,,,,,,,,,,,,,,,,,,,,,,,,,,,,,,,,,,,,,,,,,,,,,,,,,,,,,,,,,,,,,,,,,,,,,,,,,,,,,,,,,,,,,,,,,,,,,,,,,,,,
,,,,,,616ff9687de15c02fc267080,62c53a9c2f6e3a324060b81f,2022-07-06_09h33.05.618,Colour_Asymmetry_Pilot,2022.1.3,Win32,59.70862193,62c50e9c1127f2cd403a315f,0,76,76,160,1,onetwo,,,,,,,,,,,,,,,,,,,,,,,,,,,,,,,,,,,,,,,,,,,,,,,,,,,,,,,,,,,,,,,,,,,,,,,,,,,,,,,,,,,,,,,,,,,,,,,,,,,,,,,,,,,,,,,,,,,,,,,,,,,,,,,,,,,,,,,,,,,,,,,,,,,,,,,,,,,,,
,,,,,,616ff9687de15c02fc267080,62c53a9c2f6e3a324060b81f,2022-07-06_09h33.05.618,Colour_Asymmetry_Pilot,2022.1.3,Win32,59.70862193,62c50e9c1127f2cd403a315f,0,77,77,127,1,fourthree,,,,,,,,,,,,,,,,,,,,,,,,,,,,,,,,,,,,,,,,,,,,,,,,,,,,,,,,,,,,,,,,,,,,,,,,,,,,,,,,,,,,,,,,,,,,,,,,,,,,,,,,,,,,,,,,,,,,,,,,,,,,,,,,,,,,,,,,,,,,,,,,,,,,,,,,,,,,,
,,,,,,616ff9687de15c02fc267080,62c53a9c2f6e3a324060b81f,2022-07-06_09h33.05.618,Colour_Asymmetry_Pilot,2022.1.3,Win32,59.70862193,62c50e9c1127f2cd403a315f,0,78,78,84,1,threeone,,,,,,,,,,,,,,,,,,,,,,,,,,,,,,,,,,,,,,,,,,,,,,,,,,,,,,,,,,,,,,,,,,,,,,,,,,,,,,,,,,,,,,,,,,,,,,,,,,,,,,,,,,,,,,,,,,,,,,,,,,,,,,,,,,,,,,,,,,,,,,,,,,,,,,,,,,,,,
,,,,,,616ff9687de15c02fc267080,62c53a9c2f6e3a324060b81f,2022-07-06_09h33.05.618,Colour_Asymmetry_Pilot,2022.1.3,Win32,59.70862193,62c50e9c1127f2cd403a315f,0,79,79,139,1,twofour,,,,,,,,,,,,,,,,,,,,,,,,,,,,,,,,,,,,,,,,,,,,,,,,,,,,,,,,,,,,,,,,,,,,,,,,,,,,,,,,,,,,,,,,,,,,,,,,,,,,,,,,,,,,,,,,,,,,,,,,,,,,,,,,,,,,,,,,,,,,,,,,,,,,,,,,,,,,,
,,,,,,616ff9687de15c02fc267080,62c53a9c2f6e3a324060b81f,2022-07-06_09h33.05.618,Colour_Asymmetry_Pilot,2022.1.3,Win32,59.70862193,62c50e9c1127f2cd403a315f,0,80,80,10,1,twoone,,,,,,,,,,,,,,,,,,,,,,,,,,,,,,,,,,,,,,,,,,,,,,,,,,,,,,,,,,,,,,,,,,,,,,,,,,,,,,,,,,,,,,,,,,,,,,,,,,,,,,,,,,,,,,,,,,,,,,,,,,,,,,,,,,,,,,,,,,,,,,,,,,,,,,,,,,,,,
,,,,,,616ff9687de15c02fc267080,62c53a9c2f6e3a324060b81f,2022-07-06_09h33.05.618,Colour_Asymmetry_Pilot,2022.1.3,Win32,59.70862193,62c50e9c1127f2cd403a315f,0,81,81,2,1,twoone,,,,,,,,,,,,,,,,,,,,,,,,,,,,,,,,,,,,,,,,,,,,,,,,,,,,,,,,,,,,,,,,,,,,,,,,,,,,,,,,,,,,,,,,,,,,,,,,,,,,,,,,,,,,,,,,,,,,,,,,,,,,,,,,,,,,,,,,,,,,,,,,,,,,,,,,,,,,,
,,,,,,616ff9687de15c02fc267080,62c53a9c2f6e3a324060b81f,2022-07-06_09h33.05.618,Colour_Asymmetry_Pilot,2022.1.3,Win32,59.70862193,62c50e9c1127f2cd403a315f,0,82,82,71,1,fourthree,,,,,,,,,,,,,,,,,,,,,,,,,,,,,,,,,,,,,,,,,,,,,,,,,,,,,,,,,,,,,,,,,,,,,,,,,,,,,,,,,,,,,,,,,,,,,,,,,,,,,,,,,,,,,,,,,,,,,,,,,,,,,,,,,,,,,,,,,,,,,,,,,,,,,,,,,,,,,
,,,,,,616ff9687de15c02fc267080,62c53a9c2f6e3a324060b81f,2022-07-06_09h33.05.618,Colour_Asymmetry_Pilot,2022.1.3,Win32,59.70862193,62c50e9c1127f2cd403a315f,0,83,83,15,1,fourthree,,,,,,,,,,,,,,,,,,,,,,,,,,,,,,,,,,,,,,,,,,,,,,,,,,,,,,,,,,,,,,,,,,,,,,,,,,,,,,,,,,,,,,,,,,,,,,,,,,,,,,,,,,,,,,,,,,,,,,,,,,,,,,,,,,,,,,,,,,,,,,,,,,,,,,,,,,,,,
,,,,,,616ff9687de15c02fc267080,62c53a9c2f6e3a324060b81f,2022-07-06_09h33.05.618,Colour_Asymmetry_Pilot,2022.1.3,Win32,59.70862193,62c50e9c1127f2cd403a315f,0,84,84,144,1,onetwo,,,,,,,,,,,,,,,,,,,,,,,,,,,,,,,,,,,,,,,,,,,,,,,,,,,,,,,,,,,,,,,,,,,,,,,,,,,,,,,,,,,,,,,,,,,,,,,,,,,,,,,,,,,,,,,,,,,,,,,,,,,,,,,,,,,,,,,,,,,,,,,,,,,,,,,,,,,,,
,,,,,,616ff9687de15c02fc267080,62c53a9c2f6e3a324060b81f,2022-07-06_09h33.05.618,Colour_Asymmetry_Pilot,2022.1.3,Win32,59.70862193,62c50e9c1127f2cd403a315f,0,85,85,77,1,threefour,,,,,,,,,,,,,,,,,,,,,,,,,,,,,,,,,,,,,,,,,,,,,,,,,,,,,,,,,,,,,,,,,,,,,,,,,,,,,,,,,,,,,,,,,,,,,,,,,,,,,,,,,,,,,,,,,,,,,,,,,,,,,,,,,,,,,,,,,,,,,,,,,,,,,,,,,,,,,
,,,,,,616ff9687de15c02fc267080,62c53a9c2f6e3a324060b81f,2022-07-06_09h33.05.618,Colour_Asymmetry_Pilot,2022.1.3,Win32,59.70862193,62c50e9c1127f2cd403a315f,0,86,86,137,1,onethree,,,,,,,,,,,,,,,,,,,,,,,,,,,,,,,,,,,,,,,,,,,,,,,,,,,,,,,,,,,,,,,,,,,,,,,,,,,,,,,,,,,,,,,,,,,,,,,,,,,,,,,,,,,,,,,,,,,,,,,,,,,,,,,,,,,,,,,,,,,,,,,,,,,,,,,,,,,,,
,,,,,,616ff9687de15c02fc267080,62c53a9c2f6e3a324060b81f,2022-07-06_09h33.05.618,Colour_Asymmetry_Pilot,2022.1.3,Win32,59.70862193,62c50e9c1127f2cd403a315f,0,87,87,146,1,twoone,,,,,,,,,,,,,,,,,,,,,,,,,,,,,,,,,,,,,,,,,,,,,,,,,,,,,,,,,,,,,,,,,,,,,,,,,,,,,,,,,,,,,,,,,,,,,,,,,,,,,,,,,,,,,,,,,,,,,,,,,,,,,,,,,,,,,,,,,,,,,,,,,,,,,,,,,,,,,
,,,,,,616ff9687de15c02fc267080,62c53a9c2f6e3a324060b81f,2022-07-06_09h33.05.618,Colour_Asymmetry_Pilot,2022.1.3,Win32,59.70862193,62c50e9c1127f2cd403a315f,0,88,88,19,1,twofour,,,,,,,,,,,,,,,,,,,,,,,,,,,,,,,,,,,,,,,,,,,,,,,,,,,,,,,,,,,,,,,,,,,,,,,,,,,,,,,,,,,,,,,,,,,,,,,,,,,,,,,,,,,,,,,,,,,,,,,,,,,,,,,,,,,,,,,,,,,,,,,,,,,,,,,,,,,,,
,,,,,,616ff9687de15c02fc267080,62c53a9c2f6e3a324060b81f,2022-07-06_09h33.05.618,Colour_Asymmetry_Pilot,2022.1.3,Win32,59.70862193,62c50e9c1127f2cd403a315f,0,89,89,1,1,onethree,,,,,,,,,,,,,,,,,,,,,,,,,,,,,,,,,,,,,,,,,,,,,,,,,,,,,,,,,,,,,,,,,,,,,,,,,,,,,,,,,,,,,,,,,,,,,,,,,,,,,,,,,,,,,,,,,,,,,,,,,,,,,,,,,,,,,,,,,,,,,,,,,,,,,,,,,,,,,
,,,,,,616ff9687de15c02fc267080,62c53a9c2f6e3a324060b81f,2022-07-06_09h33.05.618,Colour_Asymmetry_Pilot,2022.1.3,Win32,59.70862193,62c50e9c1127f2cd403a315f,0,90,90,48,1,onetwo,,,,,,,,,,,,,,,,,,,,,,,,,,,,,,,,,,,,,,,,,,,,,,,,,,,,,,,,,,,,,,,,,,,,,,,,,,,,,,,,,,,,,,,,,,,,,,,,,,,,,,,,,,,,,,,,,,,,,,,,,,,,,,,,,,,,,,,,,,,,,,,,,,,,,,,,,,,,,
,,,,,,616ff9687de15c02fc267080,62c53a9c2f6e3a324060b81f,2022-07-06_09h33.05.618,Colour_Asymmetry_Pilot,2022.1.3,Win32,59.70862193,62c50e9c1127f2cd403a315f,0,91,91,33,1,onethree,,,,,,,,,,,,,,,,,,,,,,,,,,,,,,,,,,,,,,,,,,,,,,,,,,,,,,,,,,,,,,,,,,,,,,,,,,,,,,,,,,,,,,,,,,,,,,,,,,,,,,,,,,,,,,,,,,,,,,,,,,,,,,,,,,,,,,,,,,,,,,,,,,,,,,,,,,,,,
,,,,,,616ff9687de15c02fc267080,62c53a9c2f6e3a324060b81f,2022-07-06_09h33.05.618,Colour_Asymmetry_Pilot,2022.1.3,Win32,59.70862193,62c50e9c1127f2cd403a315f,0,92,92,86,1,fourtwo,,,,,,,,,,,,,,,,,,,,,,,,,,,,,,,,,,,,,,,,,,,,,,,,,,,,,,,,,,,,,,,,,,,,,,,,,,,,,,,,,,,,,,,,,,,,,,,,,,,,,,,,,,,,,,,,,,,,,,,,,,,,,,,,,,,,,,,,,,,,,,,,,,,,,,,,,,,,,
,,,,,,616ff9687de15c02fc267080,62c53a9c2f6e3a324060b81f,2022-07-06_09h33.05.618,Colour_Asymmetry_Pilot,2022.1.3,Win32,59.70862193,62c50e9c1127f2cd403a315f,0,93,93,59,1,twofour,,,,,,,,,,,,,,,,,,,,,,,,,,,,,,,,,,,,,,,,,,,,,,,,,,,,,,,,,,,,,,,,,,,,,,,,,,,,,,,,,,,,,,,,,,,,,,,,,,,,,,,,,,,,,,,,,,,,,,,,,,,,,,,,,,,,,,,,,,,,,,,,,,,,,,,,,,,,,
,,,,,,616ff9687de15c02fc267080,62c53a9c2f6e3a324060b81f,2022-07-06_09h33.05.618,Colour_Asymmetry_Pilot,2022.1.3,Win32,59.70862193,62c50e9c1127f2cd403a315f,0,94,94,126,1,fourtwo,,,,,,,,,,,,,,,,,,,,,,,,,,,,,,,,,,,,,,,,,,,,,,,,,,,,,,,,,,,,,,,,,,,,,,,,,,,,,,,,,,,,,,,,,,,,,,,,,,,,,,,,,,,,,,,,,,,,,,,,,,,,,,,,,,,,,,,,,,,,,,,,,,,,,,,,,,,,,
,,,,,,616ff9687de15c02fc267080,62c53a9c2f6e3a324060b81f,2022-07-06_09h33.05.618,Colour_Asymmetry_Pilot,2022.1.3,Win32,59.70862193,62c50e9c1127f2cd403a315f,0,95,95,60,1,threeone,,,,,,,,,,,,,,,,,,,,,,,,,,,,,,,,,,,,,,,,,,,,,,,,,,,,,,,,,,,,,,,,,,,,,,,,,,,,,,,,,,,,,,,,,,,,,,,,,,,,,,,,,,,,,,,,,,,,,,,,,,,,,,,,,,,,,,,,,,,,,,,,,,,,,,,,,,,,,
,,,,,,616ff9687de15c02fc267080,62c53a9c2f6e3a324060b81f,2022-07-06_09h33.05.618,Colour_Asymmetry_Pilot,2022.1.3,Win32,59.70862193,62c50e9c1127f2cd403a315f,0,96,96,64,1,onetwo,,,,,,,,,,,,,,,,,,,,,,,,,,,,,,,,,,,,,,,,,,,,,,,,,,,,,,,,,,,,,,,,,,,,,,,,,,,,,,,,,,,,,,,,,,,,,,,,,,,,,,,,,,,,,,,,,,,,,,,,,,,,,,,,,,,,,,,,,,,,,,,,,,,,,,,,,,,,,
,,,,,,616ff9687de15c02fc267080,62c53a9c2f6e3a324060b81f,2022-07-06_09h33.05.618,Colour_Asymmetry_Pilot,2022.1.3,Win32,59.70862193,62c50e9c1127f2cd403a315f,0,97,97,141,1,threefour,,,,,,,,,,,,,,,,,,,,,,,,,,,,,,,,,,,,,,,,,,,,,,,,,,,,,,,,,,,,,,,,,,,,,,,,,,,,,,,,,,,,,,,,,,,,,,,,,,,,,,,,,,,,,,,,,,,,,,,,,,,,,,,,,,,,,,,,,,,,,,,,,,,,,,,,,,,,,
,,,,,,616ff9687de15c02fc267080,62c53a9c2f6e3a324060b81f,2022-07-06_09h33.05.618,Colour_Asymmetry_Pilot,2022.1.3,Win32,59.70862193,62c50e9c1127f2cd403a315f,0,98,98,25,1,onethree,,,,,,,,,,,,,,,,,,,,,,,,,,,,,,,,,,,,,,,,,,,,,,,,,,,,,,,,,,,,,,,,,,,,,,,,,,,,,,,,,,,,,,,,,,,,,,,,,,,,,,,,,,,,,,,,,,,,,,,,,,,,,,,,,,,,,,,,,,,,,,,,,,,,,,,,,,,,,
,,,,,,616ff9687de15c02fc267080,62c53a9c2f6e3a324060b81f,2022-07-06_09h33.05.618,Colour_Asymmetry_Pilot,2022.1.3,Win32,59.70862193,62c50e9c1127f2cd403a315f,0,99,99,156,1,threeone,,,,,,,,,,,,,,,,,,,,,,,,,,,,,,,,,,,,,,,,,,,,,,,,,,,,,,,,,,,,,,,,,,,,,,,,,,,,,,,,,,,,,,,,,,,,,,,,,,,,,,,,,,,,,,,,,,,,,,,,,,,,,,,,,,,,,,,,,,,,,,,,,,,,,,,,,,,,,
,,,,,,616ff9687de15c02fc267080,62c53a9c2f6e3a324060b81f,2022-07-06_09h33.05.618,Colour_Asymmetry_Pilot,2022.1.3,Win32,59.70862193,62c50e9c1127f2cd403a315f,0,100,100,116,1,threeone,,,,,,,,,,,,,,,,,,,,,,,,,,,,,,,,,,,,,,,,,,,,,,,,,,,,,,,,,,,,,,,,,,,,,,,,,,,,,,,,,,,,,,,,,,,,,,,,,,,,,,,,,,,,,,,,,,,,,,,,,,,,,,,,,,,,,,,,,,,,,,,,,,,,,,,,,,,,,
,,,,,,616ff9687de15c02fc267080,62c53a9c2f6e3a324060b81f,2022-07-06_09h33.05.618,Colour_Asymmetry_Pilot,2022.1.3,Win32,59.70862193,62c50e9c1127f2cd403a315f,0,101,101,85,1,threefour,,,,,,,,,,,,,,,,,,,,,,,,,,,,,,,,,,,,,,,,,,,,,,,,,,,,,,,,,,,,,,,,,,,,,,,,,,,,,,,,,,,,,,,,,,,,,,,,,,,,,,,,,,,,,,,,,,,,,,,,,,,,,,,,,,,,,,,,,,,,,,,,,,,,,,,,,,,,,
,,,,,,616ff9687de15c02fc267080,62c53a9c2f6e3a324060b81f,2022-07-06_09h33.05.618,Colour_Asymmetry_Pilot,2022.1.3,Win32,59.70862193,62c50e9c1127f2cd403a315f,0,102,102,92,1,threeone,,,,,,,,,,,,,,,,,,,,,,,,,,,,,,,,,,,,,,,,,,,,,,,,,,,,,,,,,,,,,,,,,,,,,,,,,,,,,,,,,,,,,,,,,,,,,,,,,,,,,,,,,,,,,,,,,,,,,,,,,,,,,,,,,,,,,,,,,,,,,,,,,,,,,,,,,,,,,
,,,,,,616ff9687de15c02fc267080,62c53a9c2f6e3a324060b81f,2022-07-06_09h33.05.618,Colour_Asymmetry_Pilot,2022.1.3,Win32,59.70862193,62c50e9c1127f2cd403a315f,0,103,103,16,1,onetwo,,,,,,,,,,,,,,,,,,,,,,,,,,,,,,,,,,,,,,,,,,,,,,,,,,,,,,,,,,,,,,,,,,,,,,,,,,,,,,,,,,,,,,,,,,,,,,,,,,,,,,,,,,,,,,,,,,,,,,,,,,,,,,,,,,,,,,,,,,,,,,,,,,,,,,,,,,,,,
,,,,,,616ff9687de15c02fc267080,62c53a9c2f6e3a324060b81f,2022-07-06_09h33.05.618,Colour_Asymmetry_Pilot,2022.1.3,Win32,59.70862193,62c50e9c1127f2cd403a315f,0,104,104,58,1,twoone,,,,,,,,,,,,,,,,,,,,,,,,,,,,,,,,,,,,,,,,,,,,,,,,,,,,,,,,,,,,,,,,,,,,,,,,,,,,,,,,,,,,,,,,,,,,,,,,,,,,,,,,,,,,,,,,,,,,,,,,,,,,,,,,,,,,,,,,,,,,,,,,,,,,,,,,,,,,,
,,,,,,616ff9687de15c02fc267080,62c53a9c2f6e3a324060b81f,2022-07-06_09h33.05.618,Colour_Asymmetry_Pilot,2022.1.3,Win32,59.70862193,62c50e9c1127f2cd403a315f,0,105,105,6,1,fourtwo,,,,,,,,,,,,,,,,,,,,,,,,,,,,,,,,,,,,,,,,,,,,,,,,,,,,,,,,,,,,,,,,,,,,,,,,,,,,,,,,,,,,,,,,,,,,,,,,,,,,,,,,,,,,,,,,,,,,,,,,,,,,,,,,,,,,,,,,,,,,,,,,,,,,,,,,,,,,,
,,,,,,616ff9687de15c02fc267080,62c53a9c2f6e3a324060b81f,2022-07-06_09h33.05.618,Colour_Asymmetry_Pilot,2022.1.3,Win32,59.70862193,62c50e9c1127f2cd403a315f,0,106,106,118,1,fourtwo,,,,,,,,,,,,,,,,,,,,,,,,,,,,,,,,,,,,,,,,,,,,,,,,,,,,,,,,,,,,,,,,,,,,,,,,,,,,,,,,,,,,,,,,,,,,,,,,,,,,,,,,,,,,,,,,,,,,,,,,,,,,,,,,,,,,,,,,,,,,,,,,,,,,,,,,,,,,,
,,,,,,616ff9687de15c02fc267080,62c53a9c2f6e3a324060b81f,2022-07-06_09h33.05.618,Colour_Asymmetry_Pilot,2022.1.3,Win32,59.70862193,62c50e9c1127f2cd403a315f,0,107,107,28,1,threeone,,,,,,,,,,,,,,,,,,,,,,,,,,,,,,,,,,,,,,,,,,,,,,,,,,,,,,,,,,,,,,,,,,,,,,,,,,,,,,,,,,,,,,,,,,,,,,,,,,,,,,,,,,,,,,,,,,,,,,,,,,,,,,,,,,,,,,,,,,,,,,,,,,,,,,,,,,,,,
,,,,,,616ff9687de15c02fc267080,62c53a9c2f6e3a324060b81f,2022-07-06_09h33.05.618,Colour_Asymmetry_Pilot,2022.1.3,Win32,59.70862193,62c50e9c1127f2cd403a315f,0,108,108,63,1,fourthree,,,,,,,,,,,,,,,,,,,,,,,,,,,,,,,,,,,,,,,,,,,,,,,,,,,,,,,,,,,,,,,,,,,,,,,,,,,,,,,,,,,,,,,,,,,,,,,,,,,,,,,,,,,,,,,,,,,,,,,,,,,,,,,,,,,,,,,,,,,,,,,,,,,,,,,,,,,,,
,,,,,,616ff9687de15c02fc267080,62c53a9c2f6e3a324060b81f,2022-07-06_09h33.05.618,Colour_Asymmetry_Pilot,2022.1.3,Win32,59.70862193,62c50e9c1127f2cd403a315f,0,109,109,124,1,threeone,,,,,,,,,,,,,,,,,,,,,,,,,,,,,,,,,,,,,,,,,,,,,,,,,,,,,,,,,,,,,,,,,,,,,,,,,,,,,,,,,,,,,,,,,,,,,,,,,,,,,,,,,,,,,,,,,,,,,,,,,,,,,,,,,,,,,,,,,,,,,,,,,,,,,,,,,,,,,
,,,,,,616ff9687de15c02fc267080,62c53a9c2f6e3a324060b81f,2022-07-06_09h33.05.618,Colour_Asymmetry_Pilot,2022.1.3,Win32,59.70862193,62c50e9c1127f2cd403a315f,0,110,110,38,1,fourtwo,,,,,,,,,,,,,,,,,,,,,,,,,,,,,,,,,,,,,,,,,,,,,,,,,,,,,,,,,,,,,,,,,,,,,,,,,,,,,,,,,,,,,,,,,,,,,,,,,,,,,,,,,,,,,,,,,,,,,,,,,,,,,,,,,,,,,,,,,,,,,,,,,,,,,,,,,,,,,
,,,,,,616ff9687de15c02fc267080,62c53a9c2f6e3a324060b81f,2022-07-06_09h33.05.618,Colour_Asymmetry_Pilot,2022.1.3,Win32,59.70862193,62c50e9c1127f2cd403a315f,0,111,111,56,1,onetwo,,,,,,,,,,,,,,,,,,,,,,,,,,,,,,,,,,,,,,,,,,,,,,,,,,,,,,,,,,,,,,,,,,,,,,,,,,,,,,,,,,,,,,,,,,,,,,,,,,,,,,,,,,,,,,,,,,,,,,,,,,,,,,,,,,,,,,,,,,,,,,,,,,,,,,,,,,,,,
,,,,,,616ff9687de15c02fc267080,62c53a9c2f6e3a324060b81f,2022-07-06_09h33.05.618,Colour_Asymmetry_Pilot,2022.1.3,Win32,59.70862193,62c50e9c1127f2cd403a315f,0,112,112,3,1,twofour,,,,,,,,,,,,,,,,,,,,,,,,,,,,,,,,,,,,,,,,,,,,,,,,,,,,,,,,,,,,,,,,,,,,,,,,,,,,,,,,,,,,,,,,,,,,,,,,,,,,,,,,,,,,,,,,,,,,,,,,,,,,,,,,,,,,,,,,,,,,,,,,,,,,,,,,,,,,,
,,,,,,616ff9687de15c02fc267080,62c53a9c2f6e3a324060b81f,2022-07-06_09h33.05.618,Colour_Asymmetry_Pilot,2022.1.3,Win32,59.70862193,62c50e9c1127f2cd403a315f,0,113,113,39,1,fourthree,,,,,,,,,,,,,,,,,,,,,,,,,,,,,,,,,,,,,,,,,,,,,,,,,,,,,,,,,,,,,,,,,,,,,,,,,,,,,,,,,,,,,,,,,,,,,,,,,,,,,,,,,,,,,,,,,,,,,,,,,,,,,,,,,,,,,,,,,,,,,,,,,,,,,,,,,,,,,
,,,,,,616ff9687de15c02fc267080,62c53a9c2f6e3a324060b81f,2022-07-06_09h33.05.618,Colour_Asymmetry_Pilot,2022.1.3,Win32,59.70862193,62c50e9c1127f2cd403a315f,0,114,114,61,1,threefour,,,,,,,,,,,,,,,,,,,,,,,,,,,,,,,,,,,,,,,,,,,,,,,,,,,,,,,,,,,,,,,,,,,,,,,,,,,,,,,,,,,,,,,,,,,,,,,,,,,,,,,,,,,,,,,,,,,,,,,,,,,,,,,,,,,,,,,,,,,,,,,,,,,,,,,,,,,,,
,,,,,,616ff9687de15c02fc267080,62c53a9c2f6e3a324060b81f,2022-07-06_09h33.05.618,Colour_Asymmetry_Pilot,2022.1.3,Win32,59.70862193,62c50e9c1127f2cd403a315f,0,115,115,52,1,threeone,,,,,,,,,,,,,,,,,,,,,,,,,,,,,,,,,,,,,,,,,,,,,,,,,,,,,,,,,,,,,,,,,,,,,,,,,,,,,,,,,,,,,,,,,,,,,,,,,,,,,,,,,,,,,,,,,,,,,,,,,,,,,,,,,,,,,,,,,,,,,,,,,,,,,,,,,,,,,
,,,,,,616ff9687de15c02fc267080,62c53a9c2f6e3a324060b81f,2022-07-06_09h33.05.618,Colour_Asymmetry_Pilot,2022.1.3,Win32,59.70862193,62c50e9c1127f2cd403a315f,0,116,116,72,1,onetwo,,,,,,,,,,,,,,,,,,,,,,,,,,,,,,,,,,,,,,,,,,,,,,,,,,,,,,,,,,,,,,,,,,,,,,,,,,,,,,,,,,,,,,,,,,,,,,,,,,,,,,,,,,,,,,,,,,,,,,,,,,,,,,,,,,,,,,,,,,,,,,,,,,,,,,,,,,,,,
,,,,,,616ff9687de15c02fc267080,62c53a9c2f6e3a324060b81f,2022-07-06_09h33.05.618,Colour_Asymmetry_Pilot,2022.1.3,Win32,59.70862193,62c50e9c1127f2cd403a315f,0,117,117,4,1,threeone,,,,,,,,,,,,,,,,,,,,,,,,,,,,,,,,,,,,,,,,,,,,,,,,,,,,,,,,,,,,,,,,,,,,,,,,,,,,,,,,,,,,,,,,,,,,,,,,,,,,,,,,,,,,,,,,,,,,,,,,,,,,,,,,,,,,,,,,,,,,,,,,,,,,,,,,,,,,,
,,,,,,616ff9687de15c02fc267080,62c53a9c2f6e3a324060b81f,2022-07-06_09h33.05.618,Colour_Asymmetry_Pilot,2022.1.3,Win32,59.70862193,62c50e9c1127f2cd403a315f,0,118,118,99,1,twofour,,,,,,,,,,,,,,,,,,,,,,,,,,,,,,,,,,,,,,,,,,,,,,,,,,,,,,,,,,,,,,,,,,,,,,,,,,,,,,,,,,,,,,,,,,,,,,,,,,,,,,,,,,,,,,,,,,,,,,,,,,,,,,,,,,,,,,,,,,,,,,,,,,,,,,,,,,,,,
,,,,,,616ff9687de15c02fc267080,62c53a9c2f6e3a324060b81f,2022-07-06_09h33.05.618,Colour_Asymmetry_Pilot,2022.1.3,Win32,59.70862193,62c50e9c1127f2cd403a315f,0,119,119,136,1,onetwo,,,,,,,,,,,,,,,,,,,,,,,,,,,,,,,,,,,,,,,,,,,,,,,,,,,,,,,,,,,,,,,,,,,,,,,,,,,,,,,,,,,,,,,,,,,,,,,,,,,,,,,,,,,,,,,,,,,,,,,,,,,,,,,,,,,,,,,,,,,,,,,,,,,,,,,,,,,,,
,,,,,,616ff9687de15c02fc267080,62c53a9c2f6e3a324060b81f,2022-07-06_09h33.05.618,Colour_Asymmetry_Pilot,2022.1.3,Win32,59.70862193,62c50e9c1127f2cd403a315f,0,120,120,62,1,fourtwo,,,,,,,,,,,,,,,,,,,,,,,,,,,,,,,,,,,,,,,,,,,,,,,,,,,,,,,,,,,,,,,,,,,,,,,,,,,,,,,,,,,,,,,,,,,,,,,,,,,,,,,,,,,,,,,,,,,,,,,,,,,,,,,,,,,,,,,,,,,,,,,,,,,,,,,,,,,,,
,,,,,,616ff9687de15c02fc267080,62c53a9c2f6e3a324060b81f,2022-07-06_09h33.05.618,Colour_Asymmetry_Pilot,2022.1.3,Win32,59.70862193,62c50e9c1127f2cd403a315f,0,121,121,94,1,fourtwo,,,,,,,,,,,,,,,,,,,,,,,,,,,,,,,,,,,,,,,,,,,,,,,,,,,,,,,,,,,,,,,,,,,,,,,,,,,,,,,,,,,,,,,,,,,,,,,,,,,,,,,,,,,,,,,,,,,,,,,,,,,,,,,,,,,,,,,,,,,,,,,,,,,,,,,,,,,,,
,,,,,,616ff9687de15c02fc267080,62c53a9c2f6e3a324060b81f,2022-07-06_09h33.05.618,Colour_Asymmetry_Pilot,2022.1.3,Win32,59.70862193,62c50e9c1127f2cd403a315f,0,122,122,83,1,twofour,,,,,,,,,,,,,,,,,,,,,,,,,,,,,,,,,,,,,,,,,,,,,,,,,,,,,,,,,,,,,,,,,,,,,,,,,,,,,,,,,,,,,,,,,,,,,,,,,,,,,,,,,,,,,,,,,,,,,,,,,,,,,,,,,,,,,,,,,,,,,,,,,,,,,,,,,,,,,
,,,,,,616ff9687de15c02fc267080,62c53a9c2f6e3a324060b81f,2022-07-06_09h33.05.618,Colour_Asymmetry_Pilot,2022.1.3,Win32,59.70862193,62c50e9c1127f2cd403a315f,0,123,123,91,1,twofour,,,,,,,,,,,,,,,,,,,,,,,,,,,,,,,,,,,,,,,,,,,,,,,,,,,,,,,,,,,,,,,,,,,,,,,,,,,,,,,,,,,,,,,,,,,,,,,,,,,,,,,,,,,,,,,,,,,,,,,,,,,,,,,,,,,,,,,,,,,,,,,,,,,,,,,,,,,,,
,,,,,,616ff9687de15c02fc267080,62c53a9c2f6e3a324060b81f,2022-07-06_09h33.05.618,Colour_Asymmetry_Pilot,2022.1.3,Win32,59.70862193,62c50e9c1127f2cd403a315f,0,124,124,8,1,onetwo,,,,,,,,,,,,,,,,,,,,,,,,,,,,,,,,,,,,,,,,,,,,,,,,,,,,,,,,,,,,,,,,,,,,,,,,,,,,,,,,,,,,,,,,,,,,,,,,,,,,,,,,,,,,,,,,,,,,,,,,,,,,,,,,,,,,,,,,,,,,,,,,,,,,,,,,,,,,,
,,,,,,616ff9687de15c02fc267080,62c53a9c2f6e3a324060b81f,2022-07-06_09h33.05.618,Colour_Asymmetry_Pilot,2022.1.3,Win32,59.70862193,62c50e9c1127f2cd403a315f,0,125,125,97,1,onethree,,,,,,,,,,,,,,,,,,,,,,,,,,,,,,,,,,,,,,,,,,,,,,,,,,,,,,,,,,,,,,,,,,,,,,,,,,,,,,,,,,,,,,,,,,,,,,,,,,,,,,,,,,,,,,,,,,,,,,,,,,,,,,,,,,,,,,,,,,,,,,,,,,,,,,,,,,,,,
,,,,,,616ff9687de15c02fc267080,62c53a9c2f6e3a324060b81f,2022-07-06_09h33.05.618,Colour_Asymmetry_Pilot,2022.1.3,Win32,59.70862193,62c50e9c1127f2cd403a315f,0,126,126,67,1,twofour,,,,,,,,,,,,,,,,,,,,,,,,,,,,,,,,,,,,,,,,,,,,,,,,,,,,,,,,,,,,,,,,,,,,,,,,,,,,,,,,,,,,,,,,,,,,,,,,,,,,,,,,,,,,,,,,,,,,,,,,,,,,,,,,,,,,,,,,,,,,,,,,,,,,,,,,,,,,,
,,,,,,616ff9687de15c02fc267080,62c53a9c2f6e3a324060b81f,2022-07-06_09h33.05.618,Colour_Asymmetry_Pilot,2022.1.3,Win32,59.70862193,62c50e9c1127f2cd403a315f,0,127,127,135,1,fourthree,,,,,,,,,,,,,,,,,,,,,,,,,,,,,,,,,,,,,,,,,,,,,,,,,,,,,,,,,,,,,,,,,,,,,,,,,,,,,,,,,,,,,,,,,,,,,,,,,,,,,,,,,,,,,,,,,,,,,,,,,,,,,,,,,,,,,,,,,,,,,,,,,,,,,,,,,,,,,
,,,,,,616ff9687de15c02fc267080,62c53a9c2f6e3a324060b81f,2022-07-06_09h33.05.618,Colour_Asymmetry_Pilot,2022.1.3,Win32,59.70862193,62c50e9c1127f2cd403a315f,0,128,128,117,1,threefour,,,,,,,,,,,,,,,,,,,,,,,,,,,,,,,,,,,,,,,,,,,,,,,,,,,,,,,,,,,,,,,,,,,,,,,,,,,,,,,,,,,,,,,,,,,,,,,,,,,,,,,,,,,,,,,,,,,,,,,,,,,,,,,,,,,,,,,,,,,,,,,,,,,,,,,,,,,,,
,,,,,,616ff9687de15c02fc267080,62c53a9c2f6e3a324060b81f,2022-07-06_09h33.05.618,Colour_Asymmetry_Pilot,2022.1.3,Win32,59.70862193,62c50e9c1127f2cd403a315f,0,129,129,145,1,onethree,,,,,,,,,,,,,,,,,,,,,,,,,,,,,,,,,,,,,,,,,,,,,,,,,,,,,,,,,,,,,,,,,,,,,,,,,,,,,,,,,,,,,,,,,,,,,,,,,,,,,,,,,,,,,,,,,,,,,,,,,,,,,,,,,,,,,,,,,,,,,,,,,,,,,,,,,,,,,
,,,,,,616ff9687de15c02fc267080,62c53a9c2f6e3a324060b81f,2022-07-06_09h33.05.618,Colour_Asymmetry_Pilot,2022.1.3,Win32,59.70862193,62c50e9c1127f2cd403a315f,0,130,130,109,1,threefour,,,,,,,,,,,,,,,,,,,,,,,,,,,,,,,,,,,,,,,,,,,,,,,,,,,,,,,,,,,,,,,,,,,,,,,,,,,,,,,,,,,,,,,,,,,,,,,,,,,,,,,,,,,,,,,,,,,,,,,,,,,,,,,,,,,,,,,,,,,,,,,,,,,,,,,,,,,,,
,,,,,,616ff9687de15c02fc267080,62c53a9c2f6e3a324060b81f,2022-07-06_09h33.05.618,Colour_Asymmetry_Pilot,2022.1.3,Win32,59.70862193,62c50e9c1127f2cd403a315f,0,131,131,140,1,threeone,,,,,,,,,,,,,,,,,,,,,,,,,,,,,,,,,,,,,,,,,,,,,,,,,,,,,,,,,,,,,,,,,,,,,,,,,,,,,,,,,,,,,,,,,,,,,,,,,,,,,,,,,,,,,,,,,,,,,,,,,,,,,,,,,,,,,,,,,,,,,,,,,,,,,,,,,,,,,
,,,,,,616ff9687de15c02fc267080,62c53a9c2f6e3a324060b81f,2022-07-06_09h33.05.618,Colour_Asymmetry_Pilot,2022.1.3,Win32,59.70862193,62c50e9c1127f2cd403a315f,0,132,132,90,1,twoone,,,,,,,,,,,,,,,,,,,,,,,,,,,,,,,,,,,,,,,,,,,,,,,,,,,,,,,,,,,,,,,,,,,,,,,,,,,,,,,,,,,,,,,,,,,,,,,,,,,,,,,,,,,,,,,,,,,,,,,,,,,,,,,,,,,,,,,,,,,,,,,,,,,,,,,,,,,,,
,,,,,,616ff9687de15c02fc267080,62c53a9c2f6e3a324060b81f,2022-07-06_09h33.05.618,Colour_Asymmetry_Pilot,2022.1.3,Win32,59.70862193,62c50e9c1127f2cd403a315f,0,133,133,123,1,twofour,,,,,,,,,,,,,,,,,,,,,,,,,,,,,,,,,,,,,,,,,,,,,,,,,,,,,,,,,,,,,,,,,,,,,,,,,,,,,,,,,,,,,,,,,,,,,,,,,,,,,,,,,,,,,,,,,,,,,,,,,,,,,,,,,,,,,,,,,,,,,,,,,,,,,,,,,,,,,
,,,,,,616ff9687de15c02fc267080,62c53a9c2f6e3a324060b81f,2022-07-06_09h33.05.618,Colour_Asymmetry_Pilot,2022.1.3,Win32,59.70862193,62c50e9c1127f2cd403a315f,0,134,134,21,1,threefour,,,,,,,,,,,,,,,,,,,,,,,,,,,,,,,,,,,,,,,,,,,,,,,,,,,,,,,,,,,,,,,,,,,,,,,,,,,,,,,,,,,,,,,,,,,,,,,,,,,,,,,,,,,,,,,,,,,,,,,,,,,,,,,,,,,,,,,,,,,,,,,,,,,,,,,,,,,,,
,,,,,,616ff9687de15c02fc267080,62c53a9c2f6e3a324060b81f,2022-07-06_09h33.05.618,Colour_Asymmetry_Pilot,2022.1.3,Win32,59.70862193,62c50e9c1127f2cd403a315f,0,135,135,114,1,twoone,,,,,,,,,,,,,,,,,,,,,,,,,,,,,,,,,,,,,,,,,,,,,,,,,,,,,,,,,,,,,,,,,,,,,,,,,,,,,,,,,,,,,,,,,,,,,,,,,,,,,,,,,,,,,,,,,,,,,,,,,,,,,,,,,,,,,,,,,,,,,,,,,,,,,,,,,,,,,
,,,,,,616ff9687de15c02fc267080,62c53a9c2f6e3a324060b81f,2022-07-06_09h33.05.618,Colour_Asymmetry_Pilot,2022.1.3,Win32,59.70862193,62c50e9c1127f2cd403a315f,0,136,136,27,1,twofour,,,,,,,,,,,,,,,,,,,,,,,,,,,,,,,,,,,,,,,,,,,,,,,,,,,,,,,,,,,,,,,,,,,,,,,,,,,,,,,,,,,,,,,,,,,,,,,,,,,,,,,,,,,,,,,,,,,,,,,,,,,,,,,,,,,,,,,,,,,,,,,,,,,,,,,,,,,,,
,,,,,,616ff9687de15c02fc267080,62c53a9c2f6e3a324060b81f,2022-07-06_09h33.05.618,Colour_Asymmetry_Pilot,2022.1.3,Win32,59.70862193,62c50e9c1127f2cd403a315f,0,137,137,0,1,onetwo,,,,,,,,,,,,,,,,,,,,,,,,,,,,,,,,,,,,,,,,,,,,,,,,,,,,,,,,,,,,,,,,,,,,,,,,,,,,,,,,,,,,,,,,,,,,,,,,,,,,,,,,,,,,,,,,,,,,,,,,,,,,,,,,,,,,,,,,,,,,,,,,,,,,,,,,,,,,,
,,,,,,616ff9687de15c02fc267080,62c53a9c2f6e3a324060b81f,2022-07-06_09h33.05.618,Colour_Asymmetry_Pilot,2022.1.3,Win32,59.70862193,62c50e9c1127f2cd403a315f,0,138,138,47,1,fourthree,,,,,,,,,,,,,,,,,,,,,,,,,,,,,,,,,,,,,,,,,,,,,,,,,,,,,,,,,,,,,,,,,,,,,,,,,,,,,,,,,,,,,,,,,,,,,,,,,,,,,,,,,,,,,,,,,,,,,,,,,,,,,,,,,,,,,,,,,,,,,,,,,,,,,,,,,,,,,
,,,,,,616ff9687de15c02fc267080,62c53a9c2f6e3a324060b81f,2022-07-06_09h33.05.618,Colour_Asymmetry_Pilot,2022.1.3,Win32,59.70862193,62c50e9c1127f2cd403a315f,0,139,139,75,1,twofour,,,,,,,,,,,,,,,,,,,,,,,,,,,,,,,,,,,,,,,,,,,,,,,,,,,,,,,,,,,,,,,,,,,,,,,,,,,,,,,,,,,,,,,,,,,,,,,,,,,,,,,,,,,,,,,,,,,,,,,,,,,,,,,,,,,,,,,,,,,,,,,,,,,,,,,,,,,,,
,,,,,,616ff9687de15c02fc267080,62c53a9c2f6e3a324060b81f,2022-07-06_09h33.05.618,Colour_Asymmetry_Pilot,2022.1.3,Win32,59.70862193,62c50e9c1127f2cd403a315f,0,140,140,49,1,onethree,,,,,,,,,,,,,,,,,,,,,,,,,,,,,,,,,,,,,,,,,,,,,,,,,,,,,,,,,,,,,,,,,,,,,,,,,,,,,,,,,,,,,,,,,,,,,,,,,,,,,,,,,,,,,,,,,,,,,,,,,,,,,,,,,,,,,,,,,,,,,,,,,,,,,,,,,,,,,
,,,,,,616ff9687de15c02fc267080,62c53a9c2f6e3a324060b81f,2022-07-06_09h33.05.618,Colour_Asymmetry_Pilot,2022.1.3,Win32,59.70862193,62c50e9c1127f2cd403a315f,0,141,141,53,1,threefour,,,,,,,,,,,,,,,,,,,,,,,,,,,,,,,,,,,,,,,,,,,,,,,,,,,,,,,,,,,,,,,,,,,,,,,,,,,,,,,,,,,,,,,,,,,,,,,,,,,,,,,,,,,,,,,,,,,,,,,,,,,,,,,,,,,,,,,,,,,,,,,,,,,,,,,,,,,,,
,,,,,,616ff9687de15c02fc267080,62c53a9c2f6e3a324060b81f,2022-07-06_09h33.05.618,Colour_Asymmetry_Pilot,2022.1.3,Win32,59.70862193,62c50e9c1127f2cd403a315f,0,142,142,157,1,threefour,,,,,,,,,,,,,,,,,,,,,,,,,,,,,,,,,,,,,,,,,,,,,,,,,,,,,,,,,,,,,,,,,,,,,,,,,,,,,,,,,,,,,,,,,,,,,,,,,,,,,,,,,,,,,,,,,,,,,,,,,,,,,,,,,,,,,,,,,,,,,,,,,,,,,,,,,,,,,
,,,,,,616ff9687de15c02fc267080,62c53a9c2f6e3a324060b81f,2022-07-06_09h33.05.618,Colour_Asymmetry_Pilot,2022.1.3,Win32,59.70862193,62c50e9c1127f2cd403a315f,0,143,143,134,1,fourtwo,,,,,,,,,,,,,,,,,,,,,,,,,,,,,,,,,,,,,,,,,,,,,,,,,,,,,,,,,,,,,,,,,,,,,,,,,,,,,,,,,,,,,,,,,,,,,,,,,,,,,,,,,,,,,,,,,,,,,,,,,,,,,,,,,,,,,,,,,,,,,,,,,,,,,,,,,,,,,
,,,,,,616ff9687de15c02fc267080,62c53a9c2f6e3a324060b81f,2022-07-06_09h33.05.618,Colour_Asymmetry_Pilot,2022.1.3,Win32,59.70862193,62c50e9c1127f2cd403a315f,0,144,144,100,1,threeone,,,,,,,,,,,,,,,,,,,,,,,,,,,,,,,,,,,,,,,,,,,,,,,,,,,,,,,,,,,,,,,,,,,,,,,,,,,,,,,,,,,,,,,,,,,,,,,,,,,,,,,,,,,,,,,,,,,,,,,,,,,,,,,,,,,,,,,,,,,,,,,,,,,,,,,,,,,,,
,,,,,,616ff9687de15c02fc267080,62c53a9c2f6e3a324060b81f,2022-07-06_09h33.05.618,Colour_Asymmetry_Pilot,2022.1.3,Win32,59.70862193,62c50e9c1127f2cd403a315f,0,145,145,132,1,threeone,,,,,,,,,,,,,,,,,,,,,,,,,,,,,,,,,,,,,,,,,,,,,,,,,,,,,,,,,,,,,,,,,,,,,,,,,,,,,,,,,,,,,,,,,,,,,,,,,,,,,,,,,,,,,,,,,,,,,,,,,,,,,,,,,,,,,,,,,,,,,,,,,,,,,,,,,,,,,
,,,,,,616ff9687de15c02fc267080,62c53a9c2f6e3a324060b81f,2022-07-06_09h33.05.618,Colour_Asymmetry_Pilot,2022.1.3,Win32,59.70862193,62c50e9c1127f2cd403a315f,0,146,146,120,1,onetwo,,,,,,,,,,,,,,,,,,,,,,,,,,,,,,,,,,,,,,,,,,,,,,,,,,,,,,,,,,,,,,,,,,,,,,,,,,,,,,,,,,,,,,,,,,,,,,,,,,,,,,,,,,,,,,,,,,,,,,,,,,,,,,,,,,,,,,,,,,,,,,,,,,,,,,,,,,,,,
,,,,,,616ff9687de15c02fc267080,62c53a9c2f6e3a324060b81f,2022-07-06_09h33.05.618,Colour_Asymmetry_Pilot,2022.1.3,Win32,59.70862193,62c50e9c1127f2cd403a315f,0,147,147,80,1,onetwo,,,,,,,,,,,,,,,,,,,,,,,,,,,,,,,,,,,,,,,,,,,,,,,,,,,,,,,,,,,,,,,,,,,,,,,,,,,,,,,,,,,,,,,,,,,,,,,,,,,,,,,,,,,,,,,,,,,,,,,,,,,,,,,,,,,,,,,,,,,,,,,,,,,,,,,,,,,,,
,,,,,,616ff9687de15c02fc267080,62c53a9c2f6e3a324060b81f,2022-07-06_09h33.05.618,Colour_Asymmetry_Pilot,2022.1.3,Win32,59.70862193,62c50e9c1127f2cd403a315f,0,148,148,73,1,onethree,,,,,,,,,,,,,,,,,,,,,,,,,,,,,,,,,,,,,,,,,,,,,,,,,,,,,,,,,,,,,,,,,,,,,,,,,,,,,,,,,,,,,,,,,,,,,,,,,,,,,,,,,,,,,,,,,,,,,,,,,,,,,,,,,,,,,,,,,,,,,,,,,,,,,,,,,,,,,
,,,,,,616ff9687de15c02fc267080,62c53a9c2f6e3a324060b81f,2022-07-06_09h33.05.618,Colour_Asymmetry_Pilot,2022.1.3,Win32,59.70862193,62c50e9c1127f2cd403a315f,0,149,149,22,1,fourtwo,,,,,,,,,,,,,,,,,,,,,,,,,,,,,,,,,,,,,,,,,,,,,,,,,,,,,,,,,,,,,,,,,,,,,,,,,,,,,,,,,,,,,,,,,,,,,,,,,,,,,,,,,,,,,,,,,,,,,,,,,,,,,,,,,,,,,,,,,,,,,,,,,,,,,,,,,,,,,
,,,,,,616ff9687de15c02fc267080,62c53a9c2f6e3a324060b81f,2022-07-06_09h33.05.618,Colour_Asymmetry_Pilot,2022.1.3,Win32,59.70862193,62c50e9c1127f2cd403a315f,0,150,150,101,1,threefour,,,,,,,,,,,,,,,,,,,,,,,,,,,,,,,,,,,,,,,,,,,,,,,,,,,,,,,,,,,,,,,,,,,,,,,,,,,,,,,,,,,,,,,,,,,,,,,,,,,,,,,,,,,,,,,,,,,,,,,,,,,,,,,,,,,,,,,,,,,,,,,,,,,,,,,,,,,,,
,,,,,,616ff9687de15c02fc267080,62c53a9c2f6e3a324060b81f,2022-07-06_09h33.05.618,Colour_Asymmetry_Pilot,2022.1.3,Win32,59.70862193,62c50e9c1127f2cd403a315f,0,151,151,153,1,onethree,,,,,,,,,,,,,,,,,,,,,,,,,,,,,,,,,,,,,,,,,,,,,,,,,,,,,,,,,,,,,,,,,,,,,,,,,,,,,,,,,,,,,,,,,,,,,,,,,,,,,,,,,,,,,,,,,,,,,,,,,,,,,,,,,,,,,,,,,,,,,,,,,,,,,,,,,,,,,
,,,,,,616ff9687de15c02fc267080,62c53a9c2f6e3a324060b81f,2022-07-06_09h33.05.618,Colour_Asymmetry_Pilot,2022.1.3,Win32,59.70862193,62c50e9c1127f2cd403a315f,0,152,152,125,1,threefour,,,,,,,,,,,,,,,,,,,,,,,,,,,,,,,,,,,,,,,,,,,,,,,,,,,,,,,,,,,,,,,,,,,,,,,,,,,,,,,,,,,,,,,,,,,,,,,,,,,,,,,,,,,,,,,,,,,,,,,,,,,,,,,,,,,,,,,,,,,,,,,,,,,,,,,,,,,,,
,,,,,,616ff9687de15c02fc267080,62c53a9c2f6e3a324060b81f,2022-07-06_09h33.05.618,Colour_Asymmetry_Pilot,2022.1.3,Win32,59.70862193,62c50e9c1127f2cd403a315f,0,153,153,107,1,twofour,,,,,,,,,,,,,,,,,,,,,,,,,,,,,,,,,,,,,,,,,,,,,,,,,,,,,,,,,,,,,,,,,,,,,,,,,,,,,,,,,,,,,,,,,,,,,,,,,,,,,,,,,,,,,,,,,,,,,,,,,,,,,,,,,,,,,,,,,,,,,,,,,,,,,,,,,,,,,
,,,,,,616ff9687de15c02fc267080,62c53a9c2f6e3a324060b81f,2022-07-06_09h33.05.618,Colour_Asymmetry_Pilot,2022.1.3,Win32,59.70862193,62c50e9c1127f2cd403a315f,0,154,154,150,1,fourtwo,,,,,,,,,,,,,,,,,,,,,,,,,,,,,,,,,,,,,,,,,,,,,,,,,,,,,,,,,,,,,,,,,,,,,,,,,,,,,,,,,,,,,,,,,,,,,,,,,,,,,,,,,,,,,,,,,,,,,,,,,,,,,,,,,,,,,,,,,,,,,,,,,,,,,,,,,,,,,
,,,,,,616ff9687de15c02fc267080,62c53a9c2f6e3a324060b81f,2022-07-06_09h33.05.618,Colour_Asymmetry_Pilot,2022.1.3,Win32,59.70862193,62c50e9c1127f2cd403a315f,0,155,155,37,1,threefour,,,,,,,,,,,,,,,,,,,,,,,,,,,,,,,,,,,,,,,,,,,,,,,,,,,,,,,,,,,,,,,,,,,,,,,,,,,,,,,,,,,,,,,,,,,,,,,,,,,,,,,,,,,,,,,,,,,,,,,,,,,,,,,,,,,,,,,,,,,,,,,,,,,,,,,,,,,,,
,,,,,,616ff9687de15c02fc267080,62c53a9c2f6e3a324060b81f,2022-07-06_09h33.05.618,Colour_Asymmetry_Pilot,2022.1.3,Win32,59.70862193,62c50e9c1127f2cd403a315f,0,156,156,158,1,fourtwo,,,,,,,,,,,,,,,,,,,,,,,,,,,,,,,,,,,,,,,,,,,,,,,,,,,,,,,,,,,,,,,,,,,,,,,,,,,,,,,,,,,,,,,,,,,,,,,,,,,,,,,,,,,,,,,,,,,,,,,,,,,,,,,,,,,,,,,,,,,,,,,,,,,,,,,,,,,,,
,,,,,,616ff9687de15c02fc267080,62c53a9c2f6e3a324060b81f,2022-07-06_09h33.05.618,Colour_Asymmetry_Pilot,2022.1.3,Win32,59.70862193,62c50e9c1127f2cd403a315f,0,157,157,115,1,twofour,,,,,,,,,,,,,,,,,,,,,,,,,,,,,,,,,,,,,,,,,,,,,,,,,,,,,,,,,,,,,,,,,,,,,,,,,,,,,,,,,,,,,,,,,,,,,,,,,,,,,,,,,,,,,,,,,,,,,,,,,,,,,,,,,,,,,,,,,,,,,,,,,,,,,,,,,,,,,
,,,,,,616ff9687de15c02fc267080,62c53a9c2f6e3a324060b81f,2022-07-06_09h33.05.618,Colour_Asymmetry_Pilot,2022.1.3,Win32,59.70862193,62c50e9c1127f2cd403a315f,0,158,158,70,1,fourtwo,,,,,,,,,,,,,,,,,,,,,,,,,,,,,,,,,,,,,,,,,,,,,,,,,,,,,,,,,,,,,,,,,,,,,,,,,,,,,,,,,,,,,,,,,,,,,,,,,,,,,,,,,,,,,,,,,,,,,,,,,,,,,,,,,,,,,,,,,,,,,,,,,,,,,,,,,,,,,
,,,,,,616ff9687de15c02fc267080,62c53a9c2f6e3a324060b81f,2022-07-06_09h33.05.618,Colour_Asymmetry_Pilot,2022.1.3,Win32,59.70862193,62c50e9c1127f2cd403a315f,0,159,159,119,1,fourthree,,,,,,,,,,,,,,,,,,,,,,,,,,,,,,,,,,,,,,,,,,,,,,,,,,,,,,,,,,,,,,,,,,,,,,,,,,,,,,,,,,,,,,,,,,,,,,,,,,,,,,,,,,,,,,,,,,,,,,,,,,,,,,,,,,,,,,,,,,,,,,,,,,,,,,,,,,,,,
,,,,,,616ff9687de15c02fc267080,62c53a9c2f6e3a324060b81f,2022-07-06_09h33.05.618,Colour_Asymmetry_Pilot,2022.1.3,Win32,59.70862193,62c50e9c1127f2cd403a315f,0,160,160,131,1,twofour,,,,,,,,,,,,,,,,,,,,,,,,,,,,,,,,,,,,,,,,,,,,,,,,,,,,,,,,,,,,,,,,,,,,,,,,,,,,,,,,,,,,,,,,,,,,,,,,,,,,,,,,,,,,,,,,,,,,,,,,,,,,,,,,,,,,,,,,,,,,,,,,,,,,,,,,,,,,,
,,,,,,616ff9687de15c02fc267080,62c53a9c2f6e3a324060b81f,2022-07-06_09h33.05.618,Colour_Asymmetry_Pilot,2022.1.3,Win32,59.70862193,62c50e9c1127f2cd403a315f,0,161,161,23,1,fourthree,,,,,,,,,,,,,,,,,,,,,,,,,,,,,,,,,,,,,,,,,,,,,,,,,,,,,,,,,,,,,,,,,,,,,,,,,,,,,,,,,,,,,,,,,,,,,,,,,,,,,,,,,,,,,,,,,,,,,,,,,,,,,,,,,,,,,,,,,,,,,,,,,,,,,,,,,,,,,
,,,,,,616ff9687de15c02fc267080,62c53a9c2f6e3a324060b81f,2022-07-06_09h33.05.618,Colour_Asymmetry_Pilot,2022.1.3,Win32,59.70862193,62c50e9c1127f2cd403a315f,,,,,,,space,4.2901,space,16.5828,space,43.8312,space,15.4344,space,2.8649,space,4.6745,"[-0.17659999999999998,-0.2864,-0.8354]",twofour,"[0.9372,0.20779999999999998,0.2704]",-4,10.1682,-37.5,40,1,0,0,response7disk_5,3.166687012,-3.333343506,1,0,0,rectangle_8,56.5,-23.33334351,1,0,0,response3disk_7,5,2,-0.166656494,0,1,0,0,rectangle_4,0,0,0,0,1,,,,,,,,,,,,,,,,,,,,,,,,,,,,,,,,,,,,,,,,,,,,,,,,,,,,,,,,,,,,,,,,,,,,,,,,,,,,,,,,,,,,,,,,,,,,,,,,,,,,,,,,,,,,,
,,,,,,616ff9687de15c02fc267080,62c53a9c2f6e3a324060b81f,2022-07-06_09h33.05.618,Colour_Asymmetry_Pilot,2022.1.3,Win32,59.70862193,62c50e9c1127f2cd403a315f,,,,,,,,,,,,,,,,,,,"[-0.9766,-0.6472,0.07440000000000002]",twoone,"[-0.011800000000000033,-0.906,-0.45100000000000007]",-4,7.6167,-33.5,62,1,0,0,response7disk_5,1.166687012,4,1,0,0,rectangle_8,1.166687012,4,1,0,0,,,2,1.166687012,4,1,0,0,,1,0,1,0,1,,,,,,,,,,,,,,,,,,,,,,,,,,,,,,,,,,,,,,,,,,,,,,,,,,,,,,,,,,,,,,,,,,,,,,,,,,,,,,,,,,,,,,,,,,,,,,,,,,,,,,,,,,,,,
,,,,,,616ff9687de15c02fc267080,62c53a9c2f6e3a324060b81f,2022-07-06_09h33.05.618,Colour_Asymmetry_Pilot,2022.1.3,Win32,59.70862193,62c50e9c1127f2cd403a315f,,,,,,,,,,,,,,,,,,,"[0.34099999999999997,0.12939999999999996,-0.9766]",onethree,"[-0.2942,-0.7648,-0.7492000000000001]",-4,4.9177,-32.83331299,65.33332825,1,0,0,response7disk_5,-2.166656494,2.666656494,1,0,0,rectangle_8,-2.166656494,2.666656494,1,0,0,,,2,-2.166656494,2.666656494,1,0,0,,2,0,2,0,1,,,,,,,,,,,,,,,,,,,,,,,,,,,,,,,,,,,,,,,,,,,,,,,,,,,,,,,,,,,,,,,,,,,,,,,,,,,,,,,,,,,,,,,,,,,,,,,,,,,,,,,,,,,,,
,,,,,,616ff9687de15c02fc267080,62c53a9c2f6e3a324060b81f,2022-07-06_09h33.05.618,Colour_Asymmetry_Pilot,2022.1.3,Win32,59.70862193,62c50e9c1127f2cd403a315f,,,,,,,,,,,,,,,,,,,"[0.22340000000000004,-0.9296,-0.7884]",fourtwo,"[-0.30200000000000005,0.14500000000000002,0.2784]",-4,4.6195,-32.16665649,50.66665649,1,0,0,response7disk_5,3.166687012,4,1,0,0,rectangle_8,3.166687012,4,1,0,0,,,2,3.166687012,4,1,0,0,,3,0,3,0,1,,,,,,,,,,,,,,,,,,,,,,,,,,,,,,,,,,,,,,,,,,,,,,,,,,,,,,,,,,,,,,,,,,,,,,,,,,,,,,,,,,,,,,,,,,,,,,,,,,,,,,,,,,,,,
,,,,,,616ff9687de15c02fc267080,62c53a9c2f6e3a324060b81f,2022-07-06_09h33.05.618,Colour_Asymmetry_Pilot,2022.1.3,Win32,59.70862193,62c50e9c1127f2cd403a315f,,,,,,,,,,,,,,,,,,,"[0.8274000000000001,-0.5844,-0.9452]",threeone,"[-0.9844,-0.9688,-0.9922]",-4,5.2729,-24.83331299,49.33332825,1,0,0,response7disk_5,-0.166656494,5.333328247,1,0,0,rectangle_8,-0.166656494,5.333328247,1,0,0,,,2,-0.166656494,5.333328247,1,0,0,,4,0,4,0,1,,,,,,,,,,,,,,,,,,,,,,,,,,,,,,,,,,,,,,,,,,,,,,,,,,,,,,,,,,,,,,,,,,,,,,,,,,,,,,,,,,,,,,,,,,,,,,,,,,,,,,,,,,,,,
,,,,,,616ff9687de15c02fc267080,62c53a9c2f6e3a324060b81f,2022-07-06_09h33.05.618,Colour_Asymmetry_Pilot,2022.1.3,Win32,59.70862193,62c50e9c1127f2cd403a315f,,,,,,,,,,,,,,,,,,,"[-0.45899999999999996,-0.3256,-0.9374]",fourthree,"[-0.9138,-0.5296000000000001,-0.5529999999999999]",-3,2.8002,-60.16665649,39.33332825,1,0,0,response7disk_5,-7.5,1.333328247,1,0,0,rectangle_8,-7.5,1.333328247,1,0,0,,,2,-7.5,1.333328247,1,0,0,,5,0,5,0,1,,,,,,,,,,,,,,,,,,,,,,,,,,,,,,,,,,,,,,,,,,,,,,,,,,,,,,,,,,,,,,,,,,,,,,,,,,,,,,,,,,,,,,,,,,,,,,,,,,,,,,,,,,,,,
,,,,,,616ff9687de15c02fc267080,62c53a9c2f6e3a324060b81f,2022-07-06_09h33.05.618,Colour_Asymmetry_Pilot,2022.1.3,Win32,59.70862193,62c50e9c1127f2cd403a315f,,,,,,,,,,,,,,,,,,,"[-0.6,0.16860000000000008,0.44300000000000006]",twofour,"[-0.26280000000000003,-0.2158,-0.3256]",-4,3.6991,-16.16665649,42.66665649,1,0,0,response7disk_5,2.5,5.333328247,1,0,0,rectangle_8,2.5,5.333328247,1,0,0,,,2,2.5,5.333328247,1,0,0,,6,0,6,0,1,,,,,,,,,,,,,,,,,,,,,,,,,,,,,,,,,,,,,,,,,,,,,,,,,,,,,,,,,,,,,,,,,,,,,,,,,,,,,,,,,,,,,,,,,,,,,,,,,,,,,,,,,,,,,
,,,,,,616ff9687de15c02fc267080,62c53a9c2f6e3a324060b81f,2022-07-06_09h33.05.618,Colour_Asymmetry_Pilot,2022.1.3,Win32,59.70862193,62c50e9c1127f2cd403a315f,,,,,,,,,,,,,,,,,,,,fourtwo,,-4,8.453,,,,,,,,,,,,,,,,,,,,,,,,,,,,,,,,space,4.9794,"[-0.4982,-0.2942,-0.0354000000000001]","[-0.26280000000000003,-0.2158,-0.3256]",-40.16665649,64,1,0,0,response7disk,5.166687012,-1.333343506,1,0,0,rectangle,5.166687012,-1.333343506,1,0,0,,3,0.0045,0,5.166687012,-1.333343506,1,0,0,0,0,0,153,1,72,second,,,,,,,,,,,,,,,,,,,,,,,,,,,,,,,,,,,,,,,,,,,,,,,,,,,,,,,,,,,,,,,,,,,,,,,,
,,,,,,616ff9687de15c02fc267080,62c53a9c2f6e3a324060b81f,2022-07-06_09h33.05.618,Colour_Asymmetry_Pilot,2022.1.3,Win32,59.70862193,62c50e9c1127f2cd403a315f,,,,,,,,,,,,,,,,,,,,onethree,,-4,5.3502,,,,,,,,,,,,,,,,,,,,,,,,,,,,,,,,,,"[-0.6235999999999999,-0.6786,-0.08239999999999992]","[0.8274000000000001,-0.5844,-0.9452]",-36.16665649,55.33332825,1,0,0,response7disk,-9.5,2,1,0,0,rectangle,-9.5,2,1,0,0,,3,0.0009,0,-9.5,2,1,0,0,0,1,1,114,1,33,second,,,,,,,,,,,,,,,,,,,,,,,,,,,,,,,,,,,,,,,,,,,,,,,,,,,,,,,,,,,,,,,,,,,,,,,,
,,,,,,616ff9687de15c02fc267080,62c53a9c2f6e3a324060b81f,2022-07-06_09h33.05.618,Colour_Asymmetry_Pilot,2022.1.3,Win32,59.70862193,62c50e9c1127f2cd403a315f,,,,,,,,,,,,,,,,,,,,threefour,,-4,4.2665,,,,,,,,,,,,,,,,,,,,,,,,,,,,,,,,,,"[-0.30200000000000005,0.14500000000000002,0.2784]","[-0.4668,-0.8746,-0.2942]",-27.5,47.33332825,1,0,0,response7disk,-0.166656494,0.666656494,1,0,0,rectangle,-0.166656494,0.666656494,1,0,0,,2,0.0031,0,-0.166656494,0.666656494,1,0,0,0,2,2,46,1,46,first,,,,,,,,,,,,,,,,,,,,,,,,,,,,,,,,,,,,,,,,,,,,,,,,,,,,,,,,,,,,,,,,,,,,,,,,
,,,,,,616ff9687de15c02fc267080,62c53a9c2f6e3a324060b81f,2022-07-06_09h33.05.618,Colour_Asymmetry_Pilot,2022.1.3,Win32,59.70862193,62c50e9c1127f2cd403a315f,,,,,,,,,,,,,,,,,,,,twoone,,-4,4.4008,,,,,,,,,,,,,,,,,,,,,,,,,,,,,,,,,,"[0.0351999999999999,0.41159999999999997,0.0038000000000000256]","[-0.5452,-0.608,0.2470000000000001]",-37.5,72,1,0,0,response7disk,-2.166656494,-4,1,0,0,rectangle,-2.166656494,-4,1,0,0,,1,0.0032,0,-2.166656494,-4,1,0,0,0,3,3,150,1,69,second,,,,,,,,,,,,,,,,,,,,,,,,,,,,,,,,,,,,,,,,,,,,,,,,,,,,,,,,,,,,,,,,,,,,,,,,
,,,,,,616ff9687de15c02fc267080,62c53a9c2f6e3a324060b81f,2022-07-06_09h33.05.618,Colour_Asymmetry_Pilot,2022.1.3,Win32,59.70862193,62c50e9c1127f2cd403a315f,,,,,,,,,,,,,,,,,,,,threefour,,-3,2.2491,,,,,,,,,,,,,,,,,,,,,,,,,,,,,,,,,,"[-0.09019999999999995,0.44300000000000006,0.5371999999999999]","[0.19199999999999995,0.18419999999999992,0.5136000000000001]",-37.5,27.33332825,1,0,0,response7disk,-8.166656494,-2.666687012,1,0,0,rectangle,-8.166656494,-2.666687012,1,0,0,,3,0.0031,0,-8.166656494,-2.666687012,1,0,0,0,4,4,17,1,17,first,,,,,,,,,,,,,,,,,,,,,,,,,,,,,,,,,,,,,,,,,,,,,,,,,,,,,,,,,,,,,,,,,,,,,,,,
,,,,,,616ff9687de15c02fc267080,62c53a9c2f6e3a324060b81f,2022-07-06_09h33.05.618,Colour_Asymmetry_Pilot,2022.1.3,Win32,59.70862193,62c50e9c1127f2cd403a315f,,,,,,,,,,,,,,,,,,,,threeone,,-4,5.2662,,,,,,,,,,,,,,,,,,,,,,,,,,,,,,,,,,"[0.30180000000000007,-0.7884,-0.9844]","[-0.9688,-0.7412000000000001,-0.4902000000000001]",-28.83331299,42.66665649,1,0,0,response7disk,-2.166656494,-0.666687012,1,0,0,rectangle,-2.166656494,-0.666687012,1,0,0,,1,0.0033,0,-2.166656494,-0.666687012,1,0,0,0,5,5,8,1,8,first,,,,,,,,,,,,,,,,,,,,,,,,,,,,,,,,,,,,,,,,,,,,,,,,,,,,,,,,,,,,,,,,,,,,,,,,
,,,,,,616ff9687de15c02fc267080,62c53a9c2f6e3a324060b81f,2022-07-06_09h33.05.618,Colour_Asymmetry_Pilot,2022.1.3,Win32,59.70862193,62c50e9c1127f2cd403a315f,,,,,,,,,,,,,,,,,,,,fourthree,,-4,4.2507,,,,,,,,,,,,,,,,,,,,,,,,,,,,,,,,,,"[0.0351999999999999,0.41159999999999997,0.0038000000000000256]","[0.9372,0.9450000000000001,0.8980000000000001]",-25.5,44.66665649,1,0,0,response7disk,-10.16665649,6,1,0,0,rectangle,-10.16665649,6,1,0,0,,2,0.0027,0,-10.16665649,6,1,0,0,0,6,6,28,1,28,first,,,,,,,,,,,,,,,,,,,,,,,,,,,,,,,,,,,,,,,,,,,,,,,,,,,,,,,,,,,,,,,,,,,,,,,,
,,,,,,616ff9687de15c02fc267080,62c53a9c2f6e3a324060b81f,2022-07-06_09h33.05.618,Colour_Asymmetry_Pilot,2022.1.3,Win32,59.70862193,62c50e9c1127f2cd403a315f,,,,,,,,,,,,,,,,,,,,onetwo,,-4,6.8001,,,,,,,,,,,,,,,,,,,,,,,,,,,,,,,,,,"[-0.6706000000000001,-0.6157999999999999,-0.6786]","[-0.34920000000000007,-0.702,-0.5216]",-23.5,39.33332825,1,0,0,response7disk,-4.833312988,1.333328247,1,0,0,rectangle,-4.833312988,1.333328247,1,0,0,,1,0.0036,0,-4.833312988,1.333328247,1,0,0,0,7,7,12,1,12,first,,,,,,,,,,,,,,,,,,,,,,,,,,,,,,,,,,,,,,,,,,,,,,,,,,,,,,,,,,,,,,,,,,,,,,,,
,,,,,,616ff9687de15c02fc267080,62c53a9c2f6e3a324060b81f,2022-07-06_09h33.05.618,Colour_Asymmetry_Pilot,2022.1.3,Win32,59.70862193,62c50e9c1127f2cd403a315f,,,,,,,,,,,,,,,,,,,,threeone,,-4,1.7833,,,,,,,,,,,,,,,,,,,,,,,,,,,,,,,,,,"[-0.06680000000000008,-0.45100000000000007,-0.906]","[-0.9688,-0.4902000000000001,-0.12159999999999993]",-32.16665649,58,1,0,0,response7disk,1.166687012,3.333328247,1,0,0,rectangle,1.166687012,3.333328247,1,0,0,,3,0.0029,0,1.166687012,3.333328247,1,0,0,0,8,8,108,1,27,second,,,,,,,,,,,,,,,,,,,,,,,,,,,,,,,,,,,,,,,,,,,,,,,,,,,,,,,,,,,,,,,,,,,,,,,,
,,,,,,616ff9687de15c02fc267080,62c53a9c2f6e3a324060b81f,2022-07-06_09h33.05.618,Colour_Asymmetry_Pilot,2022.1.3,Win32,59.70862193,62c50e9c1127f2cd403a315f,,,,,,,,,,,,,,,,,,,,fourtwo,,4,4.0843,,,,,,,,,,,,,,,,,,,,,,,,,,,,,,,,,,"[0.22340000000000004,-0.9296,-0.7884]","[0.30180000000000007,-0.7884,-0.9844]",26.5,52,1,0,0,response1disk,-1.5,5.333328247,1,0,0,rectangle,-1.5,5.333328247,1,0,0,,2,0.0032,0,-1.5,5.333328247,1,0,0,0,9,9,44,1,44,first,,,,,,,,,,,,,,,,,,,,,,,,,,,,,,,,,,,,,,,,,,,,,,,,,,,,,,,,,,,,,,,,,,,,,,,,
,,,,,,616ff9687de15c02fc267080,62c53a9c2f6e3a324060b81f,2022-07-06_09h33.05.618,Colour_Asymmetry_Pilot,2022.1.3,Win32,59.70862193,62c50e9c1127f2cd403a315f,,,,,,,,,,,,,,,,,,,,onethree,,4,2.4678,,,,,,,,,,,,,,,,,,,,,,,,,,,,,,,,,,"[0.3881999999999999,-0.23939999999999995,-0.05040000000000011]","[0.18419999999999992,-0.4276,-0.404]",21.83334351,44.66665649,1,0,0,response1disk,5.166687012,5.333328247,1,0,0,rectangle,5.166687012,5.333328247,1,0,0,,1,0.0025,0,5.166687012,5.333328247,1,0,0,0,10,10,59,1,59,first,,,,,,,,,,,,,,,,,,,,,,,,,,,,,,,,,,,,,,,,,,,,,,,,,,,,,,,,,,,,,,,,,,,,,,,,
,,,,,,616ff9687de15c02fc267080,62c53a9c2f6e3a324060b81f,2022-07-06_09h33.05.618,Colour_Asymmetry_Pilot,2022.1.3,Win32,59.70862193,62c50e9c1127f2cd403a315f,,,,,,,,,,,,,,,,,,,,fourthree,,-4,3.5852,,,,,,,,,,,,,,,,,,,,,,,,,,,,,,,,,,"[-0.26280000000000003,-0.4746,-0.2158]","[0.9763999999999999,0.30979999999999985,-0.6786]",-32.16665649,60.66665649,1,0,0,response7disk,-0.166656494,4.666656494,1,0,0,rectangle,-0.166656494,4.666656494,1,0,0,,2,0.0023,0,-0.166656494,4.666656494,1,0,0,0,11,11,106,1,25,second,,,,,,,,,,,,,,,,,,,,,,,,,,,,,,,,,,,,,,,,,,,,,,,,,,,,,,,,,,,,,,,,,,,,,,,,
,,,,,,616ff9687de15c02fc267080,62c53a9c2f6e3a324060b81f,2022-07-06_09h33.05.618,Colour_Asymmetry_Pilot,2022.1.3,Win32,59.70862193,62c50e9c1127f2cd403a315f,,,,,,,,,,,,,,,,,,,,threefour,,-4,1.5832,,,,,,,,,,,,,,,,,,,,,,,,,,,,,,,,,,"[-0.5452,-0.608,0.2470000000000001]","[0.0351999999999999,0.41159999999999997,0.0038000000000000256]",-26.83331299,45.33332825,1,0,0,response7disk,-6.166656494,-2.666687012,1,0,0,rectangle,-6.166656494,-2.666687012,1,0,0,,3,0.0027,0,-6.166656494,-2.666687012,1,0,0,0,12,12,69,1,69,first,,,,,,,,,,,,,,,,,,,,,,,,,,,,,,,,,,,,,,,,,,,,,,,,,,,,,,,,,,,,,,,,,,,,,,,,
,,,,,,616ff9687de15c02fc267080,62c53a9c2f6e3a324060b81f,2022-07-06_09h33.05.618,Colour_Asymmetry_Pilot,2022.1.3,Win32,59.70862193,62c50e9c1127f2cd403a315f,,,,,,,,,,,,,,,,,,,,twoone,,-4,6.239,,,,,,,,,,,,,,,,,,,,,,,,,,,,,,,,,,"[-0.5688,-0.08239999999999992,-0.1844]","[-0.38039999999999996,-0.4276,-0.1452]",-29.5,62,1,0,0,response7disk,-0.833312988,6.666656494,1,0,0,rectangle,-0.833312988,6.666656494,1,0,0,,2,0.0032,0,-0.833312988,6.666656494,1,0,0,0,13,13,39,1,39,first,,,,,,,,,,,,,,,,,,,,,,,,,,,,,,,,,,,,,,,,,,,,,,,,,,,,,,,,,,,,,,,,,,,,,,,,
,,,,,,616ff9687de15c02fc267080,62c53a9c2f6e3a324060b81f,2022-07-06_09h33.05.618,Colour_Asymmetry_Pilot,2022.1.3,Win32,59.70862193,62c50e9c1127f2cd403a315f,,,,,,,,,,,,,,,,,,,,twoone,,-4,2.395,,,,,,,,,,,,,,,,,,,,,,,,,,,,,,,,,,"[-0.9688,-0.4902000000000001,-0.12159999999999993]","[-0.9688,-0.38039999999999996,-0.41979999999999995]",-20.16665649,51.33332825,1,0,0,response7disk,-2.833312988,0.666656494,1,0,0,rectangle,-2.833312988,0.666656494,1,0,0,,1,0.0025,0,-2.833312988,0.666656494,1,0,0,0,14,14,3,1,3,first,,,,,,,,,,,,,,,,,,,,,,,,,,,,,,,,,,,,,,,,,,,,,,,,,,,,,,,,,,,,,,,,,,,,,,,,
