trials.thisRepN,trials.thisTrialN,trials.thisN,trials.thisIndex,trials.ran,Colourcodes,participant,session,date,expName,psychopyVersion,OS,frameRate,study_id,trials_4.thisRepN,trials_4.thisTrialN,trials_4.thisN,trials_4.thisIndex,trials_4.ran,StimulusPos,key_resp.keys,key_resp.rt,key_resp_2.keys,key_resp_2.rt,key_resp_15.keys,key_resp_15.rt,key_resp_17.keys,key_resp_17.rt,key_resp_9.keys,key_resp_9.rt,key_resp_10.keys,key_resp_10.rt,Circle1_col,Ecc,Circle2_col,similarity,response_time,mouse_5.x,mouse_5.y,mouse_5.leftButton,mouse_5.midButton,mouse_5.rightButton,mouse_5.clicked_name,mouse_10.x,mouse_10.y,mouse_10.leftButton,mouse_10.midButton,mouse_10.rightButton,mouse_10.clicked_name,mouse_7.x,mouse_7.y,mouse_7.leftButton,mouse_7.midButton,mouse_7.rightButton,catchnumberprac,mouse_6.x,mouse_6.y,mouse_6.leftButton,mouse_6.midButton,mouse_6.rightButton,duringprac.thisRepN,duringprac.thisTrialN,duringprac.thisN,duringprac.thisIndex,duringprac.ran,mouse_7.clicked_name,catchprac,mouse_6.clicked_name,key_resp_22.keys,key_resp_22.rt,Circle1_colour,Circle2_colour,mouse.x,mouse.y,mouse.leftButton,mouse.midButton,mouse.rightButton,mouse.clicked_name,mouse_2.x,mouse_2.y,mouse_2.leftButton,mouse_2.midButton,mouse_2.rightButton,mouse_2.clicked_name,mouse_3.x,mouse_3.y,mouse_3.leftButton,mouse_3.midButton,mouse_3.rightButton,catchresponse,catchnumber,response_time_catch,Catch,mouse_11.x,mouse_11.y,mouse_11.leftButton,mouse_11.midButton,mouse_11.rightButton,trials_2.thisRepN,trials_2.thisTrialN,trials_2.thisN,trials_2.thisIndex,trials_2.ran,Colourpair,Temporder,mouse_3.clicked_name,mouse_11.clicked_name,trials_3.thisRepN,trials_3.thisTrialN,trials_3.thisN,trials_3.thisIndex,trials_3.ran,key_resp_instr_Ishi.keys,key_resp_instr_Ishi.rt,Ishi_trial_keyresp.keys,Ishi_textbox.text,Ishi_mouse.x,Ishi_mouse.y,Ishi_mouse.leftButton,Ishi_mouse.midButton,Ishi_mouse.rightButton,Ishi_mouse.clicked_name,Ishi_loop.thisRepN,Ishi_loop.thisTrialN,Ishi_loop.thisN,Ishi_loop.thisIndex,Ishi_loop.ran,imageaddress,textbox.text,mouse_4.x,mouse_4.y,mouse_4.leftButton,mouse_4.midButton,mouse_4.rightButton,mouse_4.clicked_name,textbox_2.text,mouse_8.x,mouse_8.y,mouse_8.leftButton,mouse_8.midButton,mouse_8.rightButton,mouse_8.clicked_name,textbox_3.text,mouse_9.x,mouse_9.y,mouse_9.leftButton,mouse_9.midButton,mouse_9.rightButton,mouse_9.clicked_name,textbox_4.text,mouse_12.x,mouse_12.y,mouse_12.leftButton,mouse_12.midButton,mouse_12.rightButton,mouse_12.clicked_name,textbox_5.text,mouse_13.x,mouse_13.y,mouse_13.leftButton,mouse_13.midButton,mouse_13.rightButton,mouse_13.clicked_name,textbox_6.text,mouse_14.x,mouse_14.y,mouse_14.leftButton,mouse_14.midButton,mouse_14.rightButton,mouse_14.clicked_name,textbox_7.text,mouse_15.x,mouse_15.y,mouse_15.leftButton,mouse_15.midButton,mouse_15.rightButton,mouse_15.clicked_name
0,0,0,73,1,,5eb331bc1f70081249e6fb7a,62c539b4a9a7a237c3f6d3fa,2022-07-06_08h34.07.284,Colour_Asymmetry_Pilot,2022.1.3,Win32,59.95203837,62c50e9c1127f2cd403a315f,,,,,,,,,,,,,,,,,,,,,,,,,,,,,,,,,,,,,,,,,,,,,,,,,,,,,,,,,,,,,,,,,,,,,,,,,,,,,,,,,,,,,,,,,,,,,,,,,,,,,,,,,,,,,,,,,,,,,,,,,,,,,,,,,,,,,,,,,,,,,,,,,,,,,,,,,,,,,,,,,,,
0,1,1,62,1,,5eb331bc1f70081249e6fb7a,62c539b4a9a7a237c3f6d3fa,2022-07-06_08h34.07.284,Colour_Asymmetry_Pilot,2022.1.3,Win32,59.95203837,62c50e9c1127f2cd403a315f,,,,,,,,,,,,,,,,,,,,,,,,,,,,,,,,,,,,,,,,,,,,,,,,,,,,,,,,,,,,,,,,,,,,,,,,,,,,,,,,,,,,,,,,,,,,,,,,,,,,,,,,,,,,,,,,,,,,,,,,,,,,,,,,,,,,,,,,,,,,,,,,,,,,,,,,,,,,,,,,,,,
0,2,2,15,1,,5eb331bc1f70081249e6fb7a,62c539b4a9a7a237c3f6d3fa,2022-07-06_08h34.07.284,Colour_Asymmetry_Pilot,2022.1.3,Win32,59.95203837,62c50e9c1127f2cd403a315f,,,,,,,,,,,,,,,,,,,,,,,,,,,,,,,,,,,,,,,,,,,,,,,,,,,,,,,,,,,,,,,,,,,,,,,,,,,,,,,,,,,,,,,,,,,,,,,,,,,,,,,,,,,,,,,,,,,,,,,,,,,,,,,,,,,,,,,,,,,,,,,,,,,,,,,,,,,,,,,,,,,
0,3,3,80,1,,5eb331bc1f70081249e6fb7a,62c539b4a9a7a237c3f6d3fa,2022-07-06_08h34.07.284,Colour_Asymmetry_Pilot,2022.1.3,Win32,59.95203837,62c50e9c1127f2cd403a315f,,,,,,,,,,,,,,,,,,,,,,,,,,,,,,,,,,,,,,,,,,,,,,,,,,,,,,,,,,,,,,,,,,,,,,,,,,,,,,,,,,,,,,,,,,,,,,,,,,,,,,,,,,,,,,,,,,,,,,,,,,,,,,,,,,,,,,,,,,,,,,,,,,,,,,,,,,,,,,,,,,,
0,4,4,38,1,,5eb331bc1f70081249e6fb7a,62c539b4a9a7a237c3f6d3fa,2022-07-06_08h34.07.284,Colour_Asymmetry_Pilot,2022.1.3,Win32,59.95203837,62c50e9c1127f2cd403a315f,,,,,,,,,,,,,,,,,,,,,,,,,,,,,,,,,,,,,,,,,,,,,,,,,,,,,,,,,,,,,,,,,,,,,,,,,,,,,,,,,,,,,,,,,,,,,,,,,,,,,,,,,,,,,,,,,,,,,,,,,,,,,,,,,,,,,,,,,,,,,,,,,,,,,,,,,,,,,,,,,,,
0,5,5,71,1,,5eb331bc1f70081249e6fb7a,62c539b4a9a7a237c3f6d3fa,2022-07-06_08h34.07.284,Colour_Asymmetry_Pilot,2022.1.3,Win32,59.95203837,62c50e9c1127f2cd403a315f,,,,,,,,,,,,,,,,,,,,,,,,,,,,,,,,,,,,,,,,,,,,,,,,,,,,,,,,,,,,,,,,,,,,,,,,,,,,,,,,,,,,,,,,,,,,,,,,,,,,,,,,,,,,,,,,,,,,,,,,,,,,,,,,,,,,,,,,,,,,,,,,,,,,,,,,,,,,,,,,,,,
0,6,6,63,1,,5eb331bc1f70081249e6fb7a,62c539b4a9a7a237c3f6d3fa,2022-07-06_08h34.07.284,Colour_Asymmetry_Pilot,2022.1.3,Win32,59.95203837,62c50e9c1127f2cd403a315f,,,,,,,,,,,,,,,,,,,,,,,,,,,,,,,,,,,,,,,,,,,,,,,,,,,,,,,,,,,,,,,,,,,,,,,,,,,,,,,,,,,,,,,,,,,,,,,,,,,,,,,,,,,,,,,,,,,,,,,,,,,,,,,,,,,,,,,,,,,,,,,,,,,,,,,,,,,,,,,,,,,
0,7,7,67,1,,5eb331bc1f70081249e6fb7a,62c539b4a9a7a237c3f6d3fa,2022-07-06_08h34.07.284,Colour_Asymmetry_Pilot,2022.1.3,Win32,59.95203837,62c50e9c1127f2cd403a315f,,,,,,,,,,,,,,,,,,,,,,,,,,,,,,,,,,,,,,,,,,,,,,,,,,,,,,,,,,,,,,,,,,,,,,,,,,,,,,,,,,,,,,,,,,,,,,,,,,,,,,,,,,,,,,,,,,,,,,,,,,,,,,,,,,,,,,,,,,,,,,,,,,,,,,,,,,,,,,,,,,,
0,8,8,61,1,,5eb331bc1f70081249e6fb7a,62c539b4a9a7a237c3f6d3fa,2022-07-06_08h34.07.284,Colour_Asymmetry_Pilot,2022.1.3,Win32,59.95203837,62c50e9c1127f2cd403a315f,,,,,,,,,,,,,,,,,,,,,,,,,,,,,,,,,,,,,,,,,,,,,,,,,,,,,,,,,,,,,,,,,,,,,,,,,,,,,,,,,,,,,,,,,,,,,,,,,,,,,,,,,,,,,,,,,,,,,,,,,,,,,,,,,,,,,,,,,,,,,,,,,,,,,,,,,,,,,,,,,,,
0,9,9,20,1,,5eb331bc1f70081249e6fb7a,62c539b4a9a7a237c3f6d3fa,2022-07-06_08h34.07.284,Colour_Asymmetry_Pilot,2022.1.3,Win32,59.95203837,62c50e9c1127f2cd403a315f,,,,,,,,,,,,,,,,,,,,,,,,,,,,,,,,,,,,,,,,,,,,,,,,,,,,,,,,,,,,,,,,,,,,,,,,,,,,,,,,,,,,,,,,,,,,,,,,,,,,,,,,,,,,,,,,,,,,,,,,,,,,,,,,,,,,,,,,,,,,,,,,,,,,,,,,,,,,,,,,,,,
0,10,10,23,1,,5eb331bc1f70081249e6fb7a,62c539b4a9a7a237c3f6d3fa,2022-07-06_08h34.07.284,Colour_Asymmetry_Pilot,2022.1.3,Win32,59.95203837,62c50e9c1127f2cd403a315f,,,,,,,,,,,,,,,,,,,,,,,,,,,,,,,,,,,,,,,,,,,,,,,,,,,,,,,,,,,,,,,,,,,,,,,,,,,,,,,,,,,,,,,,,,,,,,,,,,,,,,,,,,,,,,,,,,,,,,,,,,,,,,,,,,,,,,,,,,,,,,,,,,,,,,,,,,,,,,,,,,,
0,11,11,32,1,,5eb331bc1f70081249e6fb7a,62c539b4a9a7a237c3f6d3fa,2022-07-06_08h34.07.284,Colour_Asymmetry_Pilot,2022.1.3,Win32,59.95203837,62c50e9c1127f2cd403a315f,,,,,,,,,,,,,,,,,,,,,,,,,,,,,,,,,,,,,,,,,,,,,,,,,,,,,,,,,,,,,,,,,,,,,,,,,,,,,,,,,,,,,,,,,,,,,,,,,,,,,,,,,,,,,,,,,,,,,,,,,,,,,,,,,,,,,,,,,,,,,,,,,,,,,,,,,,,,,,,,,,,
0,12,12,50,1,,5eb331bc1f70081249e6fb7a,62c539b4a9a7a237c3f6d3fa,2022-07-06_08h34.07.284,Colour_Asymmetry_Pilot,2022.1.3,Win32,59.95203837,62c50e9c1127f2cd403a315f,,,,,,,,,,,,,,,,,,,,,,,,,,,,,,,,,,,,,,,,,,,,,,,,,,,,,,,,,,,,,,,,,,,,,,,,,,,,,,,,,,,,,,,,,,,,,,,,,,,,,,,,,,,,,,,,,,,,,,,,,,,,,,,,,,,,,,,,,,,,,,,,,,,,,,,,,,,,,,,,,,,
0,13,13,87,1,,5eb331bc1f70081249e6fb7a,62c539b4a9a7a237c3f6d3fa,2022-07-06_08h34.07.284,Colour_Asymmetry_Pilot,2022.1.3,Win32,59.95203837,62c50e9c1127f2cd403a315f,,,,,,,,,,,,,,,,,,,,,,,,,,,,,,,,,,,,,,,,,,,,,,,,,,,,,,,,,,,,,,,,,,,,,,,,,,,,,,,,,,,,,,,,,,,,,,,,,,,,,,,,,,,,,,,,,,,,,,,,,,,,,,,,,,,,,,,,,,,,,,,,,,,,,,,,,,,,,,,,,,,
0,14,14,56,1,,5eb331bc1f70081249e6fb7a,62c539b4a9a7a237c3f6d3fa,2022-07-06_08h34.07.284,Colour_Asymmetry_Pilot,2022.1.3,Win32,59.95203837,62c50e9c1127f2cd403a315f,,,,,,,,,,,,,,,,,,,,,,,,,,,,,,,,,,,,,,,,,,,,,,,,,,,,,,,,,,,,,,,,,,,,,,,,,,,,,,,,,,,,,,,,,,,,,,,,,,,,,,,,,,,,,,,,,,,,,,,,,,,,,,,,,,,,,,,,,,,,,,,,,,,,,,,,,,,,,,,,,,,
0,15,15,36,1,,5eb331bc1f70081249e6fb7a,62c539b4a9a7a237c3f6d3fa,2022-07-06_08h34.07.284,Colour_Asymmetry_Pilot,2022.1.3,Win32,59.95203837,62c50e9c1127f2cd403a315f,,,,,,,,,,,,,,,,,,,,,,,,,,,,,,,,,,,,,,,,,,,,,,,,,,,,,,,,,,,,,,,,,,,,,,,,,,,,,,,,,,,,,,,,,,,,,,,,,,,,,,,,,,,,,,,,,,,,,,,,,,,,,,,,,,,,,,,,,,,,,,,,,,,,,,,,,,,,,,,,,,,
0,16,16,51,1,,5eb331bc1f70081249e6fb7a,62c539b4a9a7a237c3f6d3fa,2022-07-06_08h34.07.284,Colour_Asymmetry_Pilot,2022.1.3,Win32,59.95203837,62c50e9c1127f2cd403a315f,,,,,,,,,,,,,,,,,,,,,,,,,,,,,,,,,,,,,,,,,,,,,,,,,,,,,,,,,,,,,,,,,,,,,,,,,,,,,,,,,,,,,,,,,,,,,,,,,,,,,,,,,,,,,,,,,,,,,,,,,,,,,,,,,,,,,,,,,,,,,,,,,,,,,,,,,,,,,,,,,,,
0,17,17,78,1,,5eb331bc1f70081249e6fb7a,62c539b4a9a7a237c3f6d3fa,2022-07-06_08h34.07.284,Colour_Asymmetry_Pilot,2022.1.3,Win32,59.95203837,62c50e9c1127f2cd403a315f,,,,,,,,,,,,,,,,,,,,,,,,,,,,,,,,,,,,,,,,,,,,,,,,,,,,,,,,,,,,,,,,,,,,,,,,,,,,,,,,,,,,,,,,,,,,,,,,,,,,,,,,,,,,,,,,,,,,,,,,,,,,,,,,,,,,,,,,,,,,,,,,,,,,,,,,,,,,,,,,,,,
0,18,18,31,1,,5eb331bc1f70081249e6fb7a,62c539b4a9a7a237c3f6d3fa,2022-07-06_08h34.07.284,Colour_Asymmetry_Pilot,2022.1.3,Win32,59.95203837,62c50e9c1127f2cd403a315f,,,,,,,,,,,,,,,,,,,,,,,,,,,,,,,,,,,,,,,,,,,,,,,,,,,,,,,,,,,,,,,,,,,,,,,,,,,,,,,,,,,,,,,,,,,,,,,,,,,,,,,,,,,,,,,,,,,,,,,,,,,,,,,,,,,,,,,,,,,,,,,,,,,,,,,,,,,,,,,,,,,
0,19,19,60,1,,5eb331bc1f70081249e6fb7a,62c539b4a9a7a237c3f6d3fa,2022-07-06_08h34.07.284,Colour_Asymmetry_Pilot,2022.1.3,Win32,59.95203837,62c50e9c1127f2cd403a315f,,,,,,,,,,,,,,,,,,,,,,,,,,,,,,,,,,,,,,,,,,,,,,,,,,,,,,,,,,,,,,,,,,,,,,,,,,,,,,,,,,,,,,,,,,,,,,,,,,,,,,,,,,,,,,,,,,,,,,,,,,,,,,,,,,,,,,,,,,,,,,,,,,,,,,,,,,,,,,,,,,,
0,20,20,68,1,,5eb331bc1f70081249e6fb7a,62c539b4a9a7a237c3f6d3fa,2022-07-06_08h34.07.284,Colour_Asymmetry_Pilot,2022.1.3,Win32,59.95203837,62c50e9c1127f2cd403a315f,,,,,,,,,,,,,,,,,,,,,,,,,,,,,,,,,,,,,,,,,,,,,,,,,,,,,,,,,,,,,,,,,,,,,,,,,,,,,,,,,,,,,,,,,,,,,,,,,,,,,,,,,,,,,,,,,,,,,,,,,,,,,,,,,,,,,,,,,,,,,,,,,,,,,,,,,,,,,,,,,,,
0,21,21,17,1,,5eb331bc1f70081249e6fb7a,62c539b4a9a7a237c3f6d3fa,2022-07-06_08h34.07.284,Colour_Asymmetry_Pilot,2022.1.3,Win32,59.95203837,62c50e9c1127f2cd403a315f,,,,,,,,,,,,,,,,,,,,,,,,,,,,,,,,,,,,,,,,,,,,,,,,,,,,,,,,,,,,,,,,,,,,,,,,,,,,,,,,,,,,,,,,,,,,,,,,,,,,,,,,,,,,,,,,,,,,,,,,,,,,,,,,,,,,,,,,,,,,,,,,,,,,,,,,,,,,,,,,,,,
0,22,22,6,1,,5eb331bc1f70081249e6fb7a,62c539b4a9a7a237c3f6d3fa,2022-07-06_08h34.07.284,Colour_Asymmetry_Pilot,2022.1.3,Win32,59.95203837,62c50e9c1127f2cd403a315f,,,,,,,,,,,,,,,,,,,,,,,,,,,,,,,,,,,,,,,,,,,,,,,,,,,,,,,,,,,,,,,,,,,,,,,,,,,,,,,,,,,,,,,,,,,,,,,,,,,,,,,,,,,,,,,,,,,,,,,,,,,,,,,,,,,,,,,,,,,,,,,,,,,,,,,,,,,,,,,,,,,
0,23,23,29,1,,5eb331bc1f70081249e6fb7a,62c539b4a9a7a237c3f6d3fa,2022-07-06_08h34.07.284,Colour_Asymmetry_Pilot,2022.1.3,Win32,59.95203837,62c50e9c1127f2cd403a315f,,,,,,,,,,,,,,,,,,,,,,,,,,,,,,,,,,,,,,,,,,,,,,,,,,,,,,,,,,,,,,,,,,,,,,,,,,,,,,,,,,,,,,,,,,,,,,,,,,,,,,,,,,,,,,,,,,,,,,,,,,,,,,,,,,,,,,,,,,,,,,,,,,,,,,,,,,,,,,,,,,,
0,24,24,19,1,,5eb331bc1f70081249e6fb7a,62c539b4a9a7a237c3f6d3fa,2022-07-06_08h34.07.284,Colour_Asymmetry_Pilot,2022.1.3,Win32,59.95203837,62c50e9c1127f2cd403a315f,,,,,,,,,,,,,,,,,,,,,,,,,,,,,,,,,,,,,,,,,,,,,,,,,,,,,,,,,,,,,,,,,,,,,,,,,,,,,,,,,,,,,,,,,,,,,,,,,,,,,,,,,,,,,,,,,,,,,,,,,,,,,,,,,,,,,,,,,,,,,,,,,,,,,,,,,,,,,,,,,,,
0,25,25,69,1,,5eb331bc1f70081249e6fb7a,62c539b4a9a7a237c3f6d3fa,2022-07-06_08h34.07.284,Colour_Asymmetry_Pilot,2022.1.3,Win32,59.95203837,62c50e9c1127f2cd403a315f,,,,,,,,,,,,,,,,,,,,,,,,,,,,,,,,,,,,,,,,,,,,,,,,,,,,,,,,,,,,,,,,,,,,,,,,,,,,,,,,,,,,,,,,,,,,,,,,,,,,,,,,,,,,,,,,,,,,,,,,,,,,,,,,,,,,,,,,,,,,,,,,,,,,,,,,,,,,,,,,,,,
0,26,26,13,1,,5eb331bc1f70081249e6fb7a,62c539b4a9a7a237c3f6d3fa,2022-07-06_08h34.07.284,Colour_Asymmetry_Pilot,2022.1.3,Win32,59.95203837,62c50e9c1127f2cd403a315f,,,,,,,,,,,,,,,,,,,,,,,,,,,,,,,,,,,,,,,,,,,,,,,,,,,,,,,,,,,,,,,,,,,,,,,,,,,,,,,,,,,,,,,,,,,,,,,,,,,,,,,,,,,,,,,,,,,,,,,,,,,,,,,,,,,,,,,,,,,,,,,,,,,,,,,,,,,,,,,,,,,
0,27,27,91,1,,5eb331bc1f70081249e6fb7a,62c539b4a9a7a237c3f6d3fa,2022-07-06_08h34.07.284,Colour_Asymmetry_Pilot,2022.1.3,Win32,59.95203837,62c50e9c1127f2cd403a315f,,,,,,,,,,,,,,,,,,,,,,,,,,,,,,,,,,,,,,,,,,,,,,,,,,,,,,,,,,,,,,,,,,,,,,,,,,,,,,,,,,,,,,,,,,,,,,,,,,,,,,,,,,,,,,,,,,,,,,,,,,,,,,,,,,,,,,,,,,,,,,,,,,,,,,,,,,,,,,,,,,,
0,28,28,3,1,,5eb331bc1f70081249e6fb7a,62c539b4a9a7a237c3f6d3fa,2022-07-06_08h34.07.284,Colour_Asymmetry_Pilot,2022.1.3,Win32,59.95203837,62c50e9c1127f2cd403a315f,,,,,,,,,,,,,,,,,,,,,,,,,,,,,,,,,,,,,,,,,,,,,,,,,,,,,,,,,,,,,,,,,,,,,,,,,,,,,,,,,,,,,,,,,,,,,,,,,,,,,,,,,,,,,,,,,,,,,,,,,,,,,,,,,,,,,,,,,,,,,,,,,,,,,,,,,,,,,,,,,,,
0,29,29,84,1,,5eb331bc1f70081249e6fb7a,62c539b4a9a7a237c3f6d3fa,2022-07-06_08h34.07.284,Colour_Asymmetry_Pilot,2022.1.3,Win32,59.95203837,62c50e9c1127f2cd403a315f,,,,,,,,,,,,,,,,,,,,,,,,,,,,,,,,,,,,,,,,,,,,,,,,,,,,,,,,,,,,,,,,,,,,,,,,,,,,,,,,,,,,,,,,,,,,,,,,,,,,,,,,,,,,,,,,,,,,,,,,,,,,,,,,,,,,,,,,,,,,,,,,,,,,,,,,,,,,,,,,,,,
0,30,30,57,1,,5eb331bc1f70081249e6fb7a,62c539b4a9a7a237c3f6d3fa,2022-07-06_08h34.07.284,Colour_Asymmetry_Pilot,2022.1.3,Win32,59.95203837,62c50e9c1127f2cd403a315f,,,,,,,,,,,,,,,,,,,,,,,,,,,,,,,,,,,,,,,,,,,,,,,,,,,,,,,,,,,,,,,,,,,,,,,,,,,,,,,,,,,,,,,,,,,,,,,,,,,,,,,,,,,,,,,,,,,,,,,,,,,,,,,,,,,,,,,,,,,,,,,,,,,,,,,,,,,,,,,,,,,
0,31,31,74,1,,5eb331bc1f70081249e6fb7a,62c539b4a9a7a237c3f6d3fa,2022-07-06_08h34.07.284,Colour_Asymmetry_Pilot,2022.1.3,Win32,59.95203837,62c50e9c1127f2cd403a315f,,,,,,,,,,,,,,,,,,,,,,,,,,,,,,,,,,,,,,,,,,,,,,,,,,,,,,,,,,,,,,,,,,,,,,,,,,,,,,,,,,,,,,,,,,,,,,,,,,,,,,,,,,,,,,,,,,,,,,,,,,,,,,,,,,,,,,,,,,,,,,,,,,,,,,,,,,,,,,,,,,,
0,32,32,72,1,,5eb331bc1f70081249e6fb7a,62c539b4a9a7a237c3f6d3fa,2022-07-06_08h34.07.284,Colour_Asymmetry_Pilot,2022.1.3,Win32,59.95203837,62c50e9c1127f2cd403a315f,,,,,,,,,,,,,,,,,,,,,,,,,,,,,,,,,,,,,,,,,,,,,,,,,,,,,,,,,,,,,,,,,,,,,,,,,,,,,,,,,,,,,,,,,,,,,,,,,,,,,,,,,,,,,,,,,,,,,,,,,,,,,,,,,,,,,,,,,,,,,,,,,,,,,,,,,,,,,,,,,,,
0,33,33,54,1,,5eb331bc1f70081249e6fb7a,62c539b4a9a7a237c3f6d3fa,2022-07-06_08h34.07.284,Colour_Asymmetry_Pilot,2022.1.3,Win32,59.95203837,62c50e9c1127f2cd403a315f,,,,,,,,,,,,,,,,,,,,,,,,,,,,,,,,,,,,,,,,,,,,,,,,,,,,,,,,,,,,,,,,,,,,,,,,,,,,,,,,,,,,,,,,,,,,,,,,,,,,,,,,,,,,,,,,,,,,,,,,,,,,,,,,,,,,,,,,,,,,,,,,,,,,,,,,,,,,,,,,,,,
0,34,34,65,1,,5eb331bc1f70081249e6fb7a,62c539b4a9a7a237c3f6d3fa,2022-07-06_08h34.07.284,Colour_Asymmetry_Pilot,2022.1.3,Win32,59.95203837,62c50e9c1127f2cd403a315f,,,,,,,,,,,,,,,,,,,,,,,,,,,,,,,,,,,,,,,,,,,,,,,,,,,,,,,,,,,,,,,,,,,,,,,,,,,,,,,,,,,,,,,,,,,,,,,,,,,,,,,,,,,,,,,,,,,,,,,,,,,,,,,,,,,,,,,,,,,,,,,,,,,,,,,,,,,,,,,,,,,
0,35,35,8,1,,5eb331bc1f70081249e6fb7a,62c539b4a9a7a237c3f6d3fa,2022-07-06_08h34.07.284,Colour_Asymmetry_Pilot,2022.1.3,Win32,59.95203837,62c50e9c1127f2cd403a315f,,,,,,,,,,,,,,,,,,,,,,,,,,,,,,,,,,,,,,,,,,,,,,,,,,,,,,,,,,,,,,,,,,,,,,,,,,,,,,,,,,,,,,,,,,,,,,,,,,,,,,,,,,,,,,,,,,,,,,,,,,,,,,,,,,,,,,,,,,,,,,,,,,,,,,,,,,,,,,,,,,,
0,36,36,41,1,,5eb331bc1f70081249e6fb7a,62c539b4a9a7a237c3f6d3fa,2022-07-06_08h34.07.284,Colour_Asymmetry_Pilot,2022.1.3,Win32,59.95203837,62c50e9c1127f2cd403a315f,,,,,,,,,,,,,,,,,,,,,,,,,,,,,,,,,,,,,,,,,,,,,,,,,,,,,,,,,,,,,,,,,,,,,,,,,,,,,,,,,,,,,,,,,,,,,,,,,,,,,,,,,,,,,,,,,,,,,,,,,,,,,,,,,,,,,,,,,,,,,,,,,,,,,,,,,,,,,,,,,,,
0,37,37,24,1,,5eb331bc1f70081249e6fb7a,62c539b4a9a7a237c3f6d3fa,2022-07-06_08h34.07.284,Colour_Asymmetry_Pilot,2022.1.3,Win32,59.95203837,62c50e9c1127f2cd403a315f,,,,,,,,,,,,,,,,,,,,,,,,,,,,,,,,,,,,,,,,,,,,,,,,,,,,,,,,,,,,,,,,,,,,,,,,,,,,,,,,,,,,,,,,,,,,,,,,,,,,,,,,,,,,,,,,,,,,,,,,,,,,,,,,,,,,,,,,,,,,,,,,,,,,,,,,,,,,,,,,,,,
0,38,38,4,1,,5eb331bc1f70081249e6fb7a,62c539b4a9a7a237c3f6d3fa,2022-07-06_08h34.07.284,Colour_Asymmetry_Pilot,2022.1.3,Win32,59.95203837,62c50e9c1127f2cd403a315f,,,,,,,,,,,,,,,,,,,,,,,,,,,,,,,,,,,,,,,,,,,,,,,,,,,,,,,,,,,,,,,,,,,,,,,,,,,,,,,,,,,,,,,,,,,,,,,,,,,,,,,,,,,,,,,,,,,,,,,,,,,,,,,,,,,,,,,,,,,,,,,,,,,,,,,,,,,,,,,,,,,
0,39,39,11,1,,5eb331bc1f70081249e6fb7a,62c539b4a9a7a237c3f6d3fa,2022-07-06_08h34.07.284,Colour_Asymmetry_Pilot,2022.1.3,Win32,59.95203837,62c50e9c1127f2cd403a315f,,,,,,,,,,,,,,,,,,,,,,,,,,,,,,,,,,,,,,,,,,,,,,,,,,,,,,,,,,,,,,,,,,,,,,,,,,,,,,,,,,,,,,,,,,,,,,,,,,,,,,,,,,,,,,,,,,,,,,,,,,,,,,,,,,,,,,,,,,,,,,,,,,,,,,,,,,,,,,,,,,,
0,40,40,18,1,,5eb331bc1f70081249e6fb7a,62c539b4a9a7a237c3f6d3fa,2022-07-06_08h34.07.284,Colour_Asymmetry_Pilot,2022.1.3,Win32,59.95203837,62c50e9c1127f2cd403a315f,,,,,,,,,,,,,,,,,,,,,,,,,,,,,,,,,,,,,,,,,,,,,,,,,,,,,,,,,,,,,,,,,,,,,,,,,,,,,,,,,,,,,,,,,,,,,,,,,,,,,,,,,,,,,,,,,,,,,,,,,,,,,,,,,,,,,,,,,,,,,,,,,,,,,,,,,,,,,,,,,,,
0,41,41,1,1,,5eb331bc1f70081249e6fb7a,62c539b4a9a7a237c3f6d3fa,2022-07-06_08h34.07.284,Colour_Asymmetry_Pilot,2022.1.3,Win32,59.95203837,62c50e9c1127f2cd403a315f,,,,,,,,,,,,,,,,,,,,,,,,,,,,,,,,,,,,,,,,,,,,,,,,,,,,,,,,,,,,,,,,,,,,,,,,,,,,,,,,,,,,,,,,,,,,,,,,,,,,,,,,,,,,,,,,,,,,,,,,,,,,,,,,,,,,,,,,,,,,,,,,,,,,,,,,,,,,,,,,,,,
0,42,42,28,1,,5eb331bc1f70081249e6fb7a,62c539b4a9a7a237c3f6d3fa,2022-07-06_08h34.07.284,Colour_Asymmetry_Pilot,2022.1.3,Win32,59.95203837,62c50e9c1127f2cd403a315f,,,,,,,,,,,,,,,,,,,,,,,,,,,,,,,,,,,,,,,,,,,,,,,,,,,,,,,,,,,,,,,,,,,,,,,,,,,,,,,,,,,,,,,,,,,,,,,,,,,,,,,,,,,,,,,,,,,,,,,,,,,,,,,,,,,,,,,,,,,,,,,,,,,,,,,,,,,,,,,,,,,
0,43,43,46,1,,5eb331bc1f70081249e6fb7a,62c539b4a9a7a237c3f6d3fa,2022-07-06_08h34.07.284,Colour_Asymmetry_Pilot,2022.1.3,Win32,59.95203837,62c50e9c1127f2cd403a315f,,,,,,,,,,,,,,,,,,,,,,,,,,,,,,,,,,,,,,,,,,,,,,,,,,,,,,,,,,,,,,,,,,,,,,,,,,,,,,,,,,,,,,,,,,,,,,,,,,,,,,,,,,,,,,,,,,,,,,,,,,,,,,,,,,,,,,,,,,,,,,,,,,,,,,,,,,,,,,,,,,,
0,44,44,16,1,,5eb331bc1f70081249e6fb7a,62c539b4a9a7a237c3f6d3fa,2022-07-06_08h34.07.284,Colour_Asymmetry_Pilot,2022.1.3,Win32,59.95203837,62c50e9c1127f2cd403a315f,,,,,,,,,,,,,,,,,,,,,,,,,,,,,,,,,,,,,,,,,,,,,,,,,,,,,,,,,,,,,,,,,,,,,,,,,,,,,,,,,,,,,,,,,,,,,,,,,,,,,,,,,,,,,,,,,,,,,,,,,,,,,,,,,,,,,,,,,,,,,,,,,,,,,,,,,,,,,,,,,,,
0,45,45,25,1,,5eb331bc1f70081249e6fb7a,62c539b4a9a7a237c3f6d3fa,2022-07-06_08h34.07.284,Colour_Asymmetry_Pilot,2022.1.3,Win32,59.95203837,62c50e9c1127f2cd403a315f,,,,,,,,,,,,,,,,,,,,,,,,,,,,,,,,,,,,,,,,,,,,,,,,,,,,,,,,,,,,,,,,,,,,,,,,,,,,,,,,,,,,,,,,,,,,,,,,,,,,,,,,,,,,,,,,,,,,,,,,,,,,,,,,,,,,,,,,,,,,,,,,,,,,,,,,,,,,,,,,,,,
0,46,46,30,1,,5eb331bc1f70081249e6fb7a,62c539b4a9a7a237c3f6d3fa,2022-07-06_08h34.07.284,Colour_Asymmetry_Pilot,2022.1.3,Win32,59.95203837,62c50e9c1127f2cd403a315f,,,,,,,,,,,,,,,,,,,,,,,,,,,,,,,,,,,,,,,,,,,,,,,,,,,,,,,,,,,,,,,,,,,,,,,,,,,,,,,,,,,,,,,,,,,,,,,,,,,,,,,,,,,,,,,,,,,,,,,,,,,,,,,,,,,,,,,,,,,,,,,,,,,,,,,,,,,,,,,,,,,
0,47,47,75,1,,5eb331bc1f70081249e6fb7a,62c539b4a9a7a237c3f6d3fa,2022-07-06_08h34.07.284,Colour_Asymmetry_Pilot,2022.1.3,Win32,59.95203837,62c50e9c1127f2cd403a315f,,,,,,,,,,,,,,,,,,,,,,,,,,,,,,,,,,,,,,,,,,,,,,,,,,,,,,,,,,,,,,,,,,,,,,,,,,,,,,,,,,,,,,,,,,,,,,,,,,,,,,,,,,,,,,,,,,,,,,,,,,,,,,,,,,,,,,,,,,,,,,,,,,,,,,,,,,,,,,,,,,,
0,48,48,2,1,,5eb331bc1f70081249e6fb7a,62c539b4a9a7a237c3f6d3fa,2022-07-06_08h34.07.284,Colour_Asymmetry_Pilot,2022.1.3,Win32,59.95203837,62c50e9c1127f2cd403a315f,,,,,,,,,,,,,,,,,,,,,,,,,,,,,,,,,,,,,,,,,,,,,,,,,,,,,,,,,,,,,,,,,,,,,,,,,,,,,,,,,,,,,,,,,,,,,,,,,,,,,,,,,,,,,,,,,,,,,,,,,,,,,,,,,,,,,,,,,,,,,,,,,,,,,,,,,,,,,,,,,,,
0,49,49,40,1,,5eb331bc1f70081249e6fb7a,62c539b4a9a7a237c3f6d3fa,2022-07-06_08h34.07.284,Colour_Asymmetry_Pilot,2022.1.3,Win32,59.95203837,62c50e9c1127f2cd403a315f,,,,,,,,,,,,,,,,,,,,,,,,,,,,,,,,,,,,,,,,,,,,,,,,,,,,,,,,,,,,,,,,,,,,,,,,,,,,,,,,,,,,,,,,,,,,,,,,,,,,,,,,,,,,,,,,,,,,,,,,,,,,,,,,,,,,,,,,,,,,,,,,,,,,,,,,,,,,,,,,,,,
0,50,50,64,1,,5eb331bc1f70081249e6fb7a,62c539b4a9a7a237c3f6d3fa,2022-07-06_08h34.07.284,Colour_Asymmetry_Pilot,2022.1.3,Win32,59.95203837,62c50e9c1127f2cd403a315f,,,,,,,,,,,,,,,,,,,,,,,,,,,,,,,,,,,,,,,,,,,,,,,,,,,,,,,,,,,,,,,,,,,,,,,,,,,,,,,,,,,,,,,,,,,,,,,,,,,,,,,,,,,,,,,,,,,,,,,,,,,,,,,,,,,,,,,,,,,,,,,,,,,,,,,,,,,,,,,,,,,
0,51,51,48,1,,5eb331bc1f70081249e6fb7a,62c539b4a9a7a237c3f6d3fa,2022-07-06_08h34.07.284,Colour_Asymmetry_Pilot,2022.1.3,Win32,59.95203837,62c50e9c1127f2cd403a315f,,,,,,,,,,,,,,,,,,,,,,,,,,,,,,,,,,,,,,,,,,,,,,,,,,,,,,,,,,,,,,,,,,,,,,,,,,,,,,,,,,,,,,,,,,,,,,,,,,,,,,,,,,,,,,,,,,,,,,,,,,,,,,,,,,,,,,,,,,,,,,,,,,,,,,,,,,,,,,,,,,,
0,52,52,39,1,,5eb331bc1f70081249e6fb7a,62c539b4a9a7a237c3f6d3fa,2022-07-06_08h34.07.284,Colour_Asymmetry_Pilot,2022.1.3,Win32,59.95203837,62c50e9c1127f2cd403a315f,,,,,,,,,,,,,,,,,,,,,,,,,,,,,,,,,,,,,,,,,,,,,,,,,,,,,,,,,,,,,,,,,,,,,,,,,,,,,,,,,,,,,,,,,,,,,,,,,,,,,,,,,,,,,,,,,,,,,,,,,,,,,,,,,,,,,,,,,,,,,,,,,,,,,,,,,,,,,,,,,,,
0,53,53,83,1,,5eb331bc1f70081249e6fb7a,62c539b4a9a7a237c3f6d3fa,2022-07-06_08h34.07.284,Colour_Asymmetry_Pilot,2022.1.3,Win32,59.95203837,62c50e9c1127f2cd403a315f,,,,,,,,,,,,,,,,,,,,,,,,,,,,,,,,,,,,,,,,,,,,,,,,,,,,,,,,,,,,,,,,,,,,,,,,,,,,,,,,,,,,,,,,,,,,,,,,,,,,,,,,,,,,,,,,,,,,,,,,,,,,,,,,,,,,,,,,,,,,,,,,,,,,,,,,,,,,,,,,,,,
0,54,54,10,1,,5eb331bc1f70081249e6fb7a,62c539b4a9a7a237c3f6d3fa,2022-07-06_08h34.07.284,Colour_Asymmetry_Pilot,2022.1.3,Win32,59.95203837,62c50e9c1127f2cd403a315f,,,,,,,,,,,,,,,,,,,,,,,,,,,,,,,,,,,,,,,,,,,,,,,,,,,,,,,,,,,,,,,,,,,,,,,,,,,,,,,,,,,,,,,,,,,,,,,,,,,,,,,,,,,,,,,,,,,,,,,,,,,,,,,,,,,,,,,,,,,,,,,,,,,,,,,,,,,,,,,,,,,
0,55,55,14,1,,5eb331bc1f70081249e6fb7a,62c539b4a9a7a237c3f6d3fa,2022-07-06_08h34.07.284,Colour_Asymmetry_Pilot,2022.1.3,Win32,59.95203837,62c50e9c1127f2cd403a315f,,,,,,,,,,,,,,,,,,,,,,,,,,,,,,,,,,,,,,,,,,,,,,,,,,,,,,,,,,,,,,,,,,,,,,,,,,,,,,,,,,,,,,,,,,,,,,,,,,,,,,,,,,,,,,,,,,,,,,,,,,,,,,,,,,,,,,,,,,,,,,,,,,,,,,,,,,,,,,,,,,,
0,56,56,33,1,,5eb331bc1f70081249e6fb7a,62c539b4a9a7a237c3f6d3fa,2022-07-06_08h34.07.284,Colour_Asymmetry_Pilot,2022.1.3,Win32,59.95203837,62c50e9c1127f2cd403a315f,,,,,,,,,,,,,,,,,,,,,,,,,,,,,,,,,,,,,,,,,,,,,,,,,,,,,,,,,,,,,,,,,,,,,,,,,,,,,,,,,,,,,,,,,,,,,,,,,,,,,,,,,,,,,,,,,,,,,,,,,,,,,,,,,,,,,,,,,,,,,,,,,,,,,,,,,,,,,,,,,,,
0,57,57,81,1,,5eb331bc1f70081249e6fb7a,62c539b4a9a7a237c3f6d3fa,2022-07-06_08h34.07.284,Colour_Asymmetry_Pilot,2022.1.3,Win32,59.95203837,62c50e9c1127f2cd403a315f,,,,,,,,,,,,,,,,,,,,,,,,,,,,,,,,,,,,,,,,,,,,,,,,,,,,,,,,,,,,,,,,,,,,,,,,,,,,,,,,,,,,,,,,,,,,,,,,,,,,,,,,,,,,,,,,,,,,,,,,,,,,,,,,,,,,,,,,,,,,,,,,,,,,,,,,,,,,,,,,,,,
0,58,58,66,1,,5eb331bc1f70081249e6fb7a,62c539b4a9a7a237c3f6d3fa,2022-07-06_08h34.07.284,Colour_Asymmetry_Pilot,2022.1.3,Win32,59.95203837,62c50e9c1127f2cd403a315f,,,,,,,,,,,,,,,,,,,,,,,,,,,,,,,,,,,,,,,,,,,,,,,,,,,,,,,,,,,,,,,,,,,,,,,,,,,,,,,,,,,,,,,,,,,,,,,,,,,,,,,,,,,,,,,,,,,,,,,,,,,,,,,,,,,,,,,,,,,,,,,,,,,,,,,,,,,,,,,,,,,
0,59,59,26,1,,5eb331bc1f70081249e6fb7a,62c539b4a9a7a237c3f6d3fa,2022-07-06_08h34.07.284,Colour_Asymmetry_Pilot,2022.1.3,Win32,59.95203837,62c50e9c1127f2cd403a315f,,,,,,,,,,,,,,,,,,,,,,,,,,,,,,,,,,,,,,,,,,,,,,,,,,,,,,,,,,,,,,,,,,,,,,,,,,,,,,,,,,,,,,,,,,,,,,,,,,,,,,,,,,,,,,,,,,,,,,,,,,,,,,,,,,,,,,,,,,,,,,,,,,,,,,,,,,,,,,,,,,,
0,60,60,47,1,,5eb331bc1f70081249e6fb7a,62c539b4a9a7a237c3f6d3fa,2022-07-06_08h34.07.284,Colour_Asymmetry_Pilot,2022.1.3,Win32,59.95203837,62c50e9c1127f2cd403a315f,,,,,,,,,,,,,,,,,,,,,,,,,,,,,,,,,,,,,,,,,,,,,,,,,,,,,,,,,,,,,,,,,,,,,,,,,,,,,,,,,,,,,,,,,,,,,,,,,,,,,,,,,,,,,,,,,,,,,,,,,,,,,,,,,,,,,,,,,,,,,,,,,,,,,,,,,,,,,,,,,,,
0,61,61,22,1,,5eb331bc1f70081249e6fb7a,62c539b4a9a7a237c3f6d3fa,2022-07-06_08h34.07.284,Colour_Asymmetry_Pilot,2022.1.3,Win32,59.95203837,62c50e9c1127f2cd403a315f,,,,,,,,,,,,,,,,,,,,,,,,,,,,,,,,,,,,,,,,,,,,,,,,,,,,,,,,,,,,,,,,,,,,,,,,,,,,,,,,,,,,,,,,,,,,,,,,,,,,,,,,,,,,,,,,,,,,,,,,,,,,,,,,,,,,,,,,,,,,,,,,,,,,,,,,,,,,,,,,,,,
0,62,62,35,1,,5eb331bc1f70081249e6fb7a,62c539b4a9a7a237c3f6d3fa,2022-07-06_08h34.07.284,Colour_Asymmetry_Pilot,2022.1.3,Win32,59.95203837,62c50e9c1127f2cd403a315f,,,,,,,,,,,,,,,,,,,,,,,,,,,,,,,,,,,,,,,,,,,,,,,,,,,,,,,,,,,,,,,,,,,,,,,,,,,,,,,,,,,,,,,,,,,,,,,,,,,,,,,,,,,,,,,,,,,,,,,,,,,,,,,,,,,,,,,,,,,,,,,,,,,,,,,,,,,,,,,,,,,
0,63,63,37,1,,5eb331bc1f70081249e6fb7a,62c539b4a9a7a237c3f6d3fa,2022-07-06_08h34.07.284,Colour_Asymmetry_Pilot,2022.1.3,Win32,59.95203837,62c50e9c1127f2cd403a315f,,,,,,,,,,,,,,,,,,,,,,,,,,,,,,,,,,,,,,,,,,,,,,,,,,,,,,,,,,,,,,,,,,,,,,,,,,,,,,,,,,,,,,,,,,,,,,,,,,,,,,,,,,,,,,,,,,,,,,,,,,,,,,,,,,,,,,,,,,,,,,,,,,,,,,,,,,,,,,,,,,,
0,64,64,59,1,,5eb331bc1f70081249e6fb7a,62c539b4a9a7a237c3f6d3fa,2022-07-06_08h34.07.284,Colour_Asymmetry_Pilot,2022.1.3,Win32,59.95203837,62c50e9c1127f2cd403a315f,,,,,,,,,,,,,,,,,,,,,,,,,,,,,,,,,,,,,,,,,,,,,,,,,,,,,,,,,,,,,,,,,,,,,,,,,,,,,,,,,,,,,,,,,,,,,,,,,,,,,,,,,,,,,,,,,,,,,,,,,,,,,,,,,,,,,,,,,,,,,,,,,,,,,,,,,,,,,,,,,,,
0,65,65,0,1,,5eb331bc1f70081249e6fb7a,62c539b4a9a7a237c3f6d3fa,2022-07-06_08h34.07.284,Colour_Asymmetry_Pilot,2022.1.3,Win32,59.95203837,62c50e9c1127f2cd403a315f,,,,,,,,,,,,,,,,,,,,,,,,,,,,,,,,,,,,,,,,,,,,,,,,,,,,,,,,,,,,,,,,,,,,,,,,,,,,,,,,,,,,,,,,,,,,,,,,,,,,,,,,,,,,,,,,,,,,,,,,,,,,,,,,,,,,,,,,,,,,,,,,,,,,,,,,,,,,,,,,,,,
0,66,66,34,1,,5eb331bc1f70081249e6fb7a,62c539b4a9a7a237c3f6d3fa,2022-07-06_08h34.07.284,Colour_Asymmetry_Pilot,2022.1.3,Win32,59.95203837,62c50e9c1127f2cd403a315f,,,,,,,,,,,,,,,,,,,,,,,,,,,,,,,,,,,,,,,,,,,,,,,,,,,,,,,,,,,,,,,,,,,,,,,,,,,,,,,,,,,,,,,,,,,,,,,,,,,,,,,,,,,,,,,,,,,,,,,,,,,,,,,,,,,,,,,,,,,,,,,,,,,,,,,,,,,,,,,,,,,
0,67,67,53,1,,5eb331bc1f70081249e6fb7a,62c539b4a9a7a237c3f6d3fa,2022-07-06_08h34.07.284,Colour_Asymmetry_Pilot,2022.1.3,Win32,59.95203837,62c50e9c1127f2cd403a315f,,,,,,,,,,,,,,,,,,,,,,,,,,,,,,,,,,,,,,,,,,,,,,,,,,,,,,,,,,,,,,,,,,,,,,,,,,,,,,,,,,,,,,,,,,,,,,,,,,,,,,,,,,,,,,,,,,,,,,,,,,,,,,,,,,,,,,,,,,,,,,,,,,,,,,,,,,,,,,,,,,,
0,68,68,5,1,,5eb331bc1f70081249e6fb7a,62c539b4a9a7a237c3f6d3fa,2022-07-06_08h34.07.284,Colour_Asymmetry_Pilot,2022.1.3,Win32,59.95203837,62c50e9c1127f2cd403a315f,,,,,,,,,,,,,,,,,,,,,,,,,,,,,,,,,,,,,,,,,,,,,,,,,,,,,,,,,,,,,,,,,,,,,,,,,,,,,,,,,,,,,,,,,,,,,,,,,,,,,,,,,,,,,,,,,,,,,,,,,,,,,,,,,,,,,,,,,,,,,,,,,,,,,,,,,,,,,,,,,,,
0,69,69,52,1,,5eb331bc1f70081249e6fb7a,62c539b4a9a7a237c3f6d3fa,2022-07-06_08h34.07.284,Colour_Asymmetry_Pilot,2022.1.3,Win32,59.95203837,62c50e9c1127f2cd403a315f,,,,,,,,,,,,,,,,,,,,,,,,,,,,,,,,,,,,,,,,,,,,,,,,,,,,,,,,,,,,,,,,,,,,,,,,,,,,,,,,,,,,,,,,,,,,,,,,,,,,,,,,,,,,,,,,,,,,,,,,,,,,,,,,,,,,,,,,,,,,,,,,,,,,,,,,,,,,,,,,,,,
0,70,70,77,1,,5eb331bc1f70081249e6fb7a,62c539b4a9a7a237c3f6d3fa,2022-07-06_08h34.07.284,Colour_Asymmetry_Pilot,2022.1.3,Win32,59.95203837,62c50e9c1127f2cd403a315f,,,,,,,,,,,,,,,,,,,,,,,,,,,,,,,,,,,,,,,,,,,,,,,,,,,,,,,,,,,,,,,,,,,,,,,,,,,,,,,,,,,,,,,,,,,,,,,,,,,,,,,,,,,,,,,,,,,,,,,,,,,,,,,,,,,,,,,,,,,,,,,,,,,,,,,,,,,,,,,,,,,
0,71,71,27,1,,5eb331bc1f70081249e6fb7a,62c539b4a9a7a237c3f6d3fa,2022-07-06_08h34.07.284,Colour_Asymmetry_Pilot,2022.1.3,Win32,59.95203837,62c50e9c1127f2cd403a315f,,,,,,,,,,,,,,,,,,,,,,,,,,,,,,,,,,,,,,,,,,,,,,,,,,,,,,,,,,,,,,,,,,,,,,,,,,,,,,,,,,,,,,,,,,,,,,,,,,,,,,,,,,,,,,,,,,,,,,,,,,,,,,,,,,,,,,,,,,,,,,,,,,,,,,,,,,,,,,,,,,,
0,72,72,92,1,,5eb331bc1f70081249e6fb7a,62c539b4a9a7a237c3f6d3fa,2022-07-06_08h34.07.284,Colour_Asymmetry_Pilot,2022.1.3,Win32,59.95203837,62c50e9c1127f2cd403a315f,,,,,,,,,,,,,,,,,,,,,,,,,,,,,,,,,,,,,,,,,,,,,,,,,,,,,,,,,,,,,,,,,,,,,,,,,,,,,,,,,,,,,,,,,,,,,,,,,,,,,,,,,,,,,,,,,,,,,,,,,,,,,,,,,,,,,,,,,,,,,,,,,,,,,,,,,,,,,,,,,,,
0,73,73,43,1,,5eb331bc1f70081249e6fb7a,62c539b4a9a7a237c3f6d3fa,2022-07-06_08h34.07.284,Colour_Asymmetry_Pilot,2022.1.3,Win32,59.95203837,62c50e9c1127f2cd403a315f,,,,,,,,,,,,,,,,,,,,,,,,,,,,,,,,,,,,,,,,,,,,,,,,,,,,,,,,,,,,,,,,,,,,,,,,,,,,,,,,,,,,,,,,,,,,,,,,,,,,,,,,,,,,,,,,,,,,,,,,,,,,,,,,,,,,,,,,,,,,,,,,,,,,,,,,,,,,,,,,,,,
0,74,74,85,1,,5eb331bc1f70081249e6fb7a,62c539b4a9a7a237c3f6d3fa,2022-07-06_08h34.07.284,Colour_Asymmetry_Pilot,2022.1.3,Win32,59.95203837,62c50e9c1127f2cd403a315f,,,,,,,,,,,,,,,,,,,,,,,,,,,,,,,,,,,,,,,,,,,,,,,,,,,,,,,,,,,,,,,,,,,,,,,,,,,,,,,,,,,,,,,,,,,,,,,,,,,,,,,,,,,,,,,,,,,,,,,,,,,,,,,,,,,,,,,,,,,,,,,,,,,,,,,,,,,,,,,,,,,
0,75,75,58,1,,5eb331bc1f70081249e6fb7a,62c539b4a9a7a237c3f6d3fa,2022-07-06_08h34.07.284,Colour_Asymmetry_Pilot,2022.1.3,Win32,59.95203837,62c50e9c1127f2cd403a315f,,,,,,,,,,,,,,,,,,,,,,,,,,,,,,,,,,,,,,,,,,,,,,,,,,,,,,,,,,,,,,,,,,,,,,,,,,,,,,,,,,,,,,,,,,,,,,,,,,,,,,,,,,,,,,,,,,,,,,,,,,,,,,,,,,,,,,,,,,,,,,,,,,,,,,,,,,,,,,,,,,,
0,76,76,70,1,,5eb331bc1f70081249e6fb7a,62c539b4a9a7a237c3f6d3fa,2022-07-06_08h34.07.284,Colour_Asymmetry_Pilot,2022.1.3,Win32,59.95203837,62c50e9c1127f2cd403a315f,,,,,,,,,,,,,,,,,,,,,,,,,,,,,,,,,,,,,,,,,,,,,,,,,,,,,,,,,,,,,,,,,,,,,,,,,,,,,,,,,,,,,,,,,,,,,,,,,,,,,,,,,,,,,,,,,,,,,,,,,,,,,,,,,,,,,,,,,,,,,,,,,,,,,,,,,,,,,,,,,,,
0,77,77,89,1,,5eb331bc1f70081249e6fb7a,62c539b4a9a7a237c3f6d3fa,2022-07-06_08h34.07.284,Colour_Asymmetry_Pilot,2022.1.3,Win32,59.95203837,62c50e9c1127f2cd403a315f,,,,,,,,,,,,,,,,,,,,,,,,,,,,,,,,,,,,,,,,,,,,,,,,,,,,,,,,,,,,,,,,,,,,,,,,,,,,,,,,,,,,,,,,,,,,,,,,,,,,,,,,,,,,,,,,,,,,,,,,,,,,,,,,,,,,,,,,,,,,,,,,,,,,,,,,,,,,,,,,,,,
0,78,78,76,1,,5eb331bc1f70081249e6fb7a,62c539b4a9a7a237c3f6d3fa,2022-07-06_08h34.07.284,Colour_Asymmetry_Pilot,2022.1.3,Win32,59.95203837,62c50e9c1127f2cd403a315f,,,,,,,,,,,,,,,,,,,,,,,,,,,,,,,,,,,,,,,,,,,,,,,,,,,,,,,,,,,,,,,,,,,,,,,,,,,,,,,,,,,,,,,,,,,,,,,,,,,,,,,,,,,,,,,,,,,,,,,,,,,,,,,,,,,,,,,,,,,,,,,,,,,,,,,,,,,,,,,,,,,
0,79,79,79,1,,5eb331bc1f70081249e6fb7a,62c539b4a9a7a237c3f6d3fa,2022-07-06_08h34.07.284,Colour_Asymmetry_Pilot,2022.1.3,Win32,59.95203837,62c50e9c1127f2cd403a315f,,,,,,,,,,,,,,,,,,,,,,,,,,,,,,,,,,,,,,,,,,,,,,,,,,,,,,,,,,,,,,,,,,,,,,,,,,,,,,,,,,,,,,,,,,,,,,,,,,,,,,,,,,,,,,,,,,,,,,,,,,,,,,,,,,,,,,,,,,,,,,,,,,,,,,,,,,,,,,,,,,,
0,80,80,7,1,,5eb331bc1f70081249e6fb7a,62c539b4a9a7a237c3f6d3fa,2022-07-06_08h34.07.284,Colour_Asymmetry_Pilot,2022.1.3,Win32,59.95203837,62c50e9c1127f2cd403a315f,,,,,,,,,,,,,,,,,,,,,,,,,,,,,,,,,,,,,,,,,,,,,,,,,,,,,,,,,,,,,,,,,,,,,,,,,,,,,,,,,,,,,,,,,,,,,,,,,,,,,,,,,,,,,,,,,,,,,,,,,,,,,,,,,,,,,,,,,,,,,,,,,,,,,,,,,,,,,,,,,,,
0,81,81,12,1,,5eb331bc1f70081249e6fb7a,62c539b4a9a7a237c3f6d3fa,2022-07-06_08h34.07.284,Colour_Asymmetry_Pilot,2022.1.3,Win32,59.95203837,62c50e9c1127f2cd403a315f,,,,,,,,,,,,,,,,,,,,,,,,,,,,,,,,,,,,,,,,,,,,,,,,,,,,,,,,,,,,,,,,,,,,,,,,,,,,,,,,,,,,,,,,,,,,,,,,,,,,,,,,,,,,,,,,,,,,,,,,,,,,,,,,,,,,,,,,,,,,,,,,,,,,,,,,,,,,,,,,,,,
0,82,82,45,1,,5eb331bc1f70081249e6fb7a,62c539b4a9a7a237c3f6d3fa,2022-07-06_08h34.07.284,Colour_Asymmetry_Pilot,2022.1.3,Win32,59.95203837,62c50e9c1127f2cd403a315f,,,,,,,,,,,,,,,,,,,,,,,,,,,,,,,,,,,,,,,,,,,,,,,,,,,,,,,,,,,,,,,,,,,,,,,,,,,,,,,,,,,,,,,,,,,,,,,,,,,,,,,,,,,,,,,,,,,,,,,,,,,,,,,,,,,,,,,,,,,,,,,,,,,,,,,,,,,,,,,,,,,
0,83,83,90,1,,5eb331bc1f70081249e6fb7a,62c539b4a9a7a237c3f6d3fa,2022-07-06_08h34.07.284,Colour_Asymmetry_Pilot,2022.1.3,Win32,59.95203837,62c50e9c1127f2cd403a315f,,,,,,,,,,,,,,,,,,,,,,,,,,,,,,,,,,,,,,,,,,,,,,,,,,,,,,,,,,,,,,,,,,,,,,,,,,,,,,,,,,,,,,,,,,,,,,,,,,,,,,,,,,,,,,,,,,,,,,,,,,,,,,,,,,,,,,,,,,,,,,,,,,,,,,,,,,,,,,,,,,,
0,84,84,86,1,,5eb331bc1f70081249e6fb7a,62c539b4a9a7a237c3f6d3fa,2022-07-06_08h34.07.284,Colour_Asymmetry_Pilot,2022.1.3,Win32,59.95203837,62c50e9c1127f2cd403a315f,,,,,,,,,,,,,,,,,,,,,,,,,,,,,,,,,,,,,,,,,,,,,,,,,,,,,,,,,,,,,,,,,,,,,,,,,,,,,,,,,,,,,,,,,,,,,,,,,,,,,,,,,,,,,,,,,,,,,,,,,,,,,,,,,,,,,,,,,,,,,,,,,,,,,,,,,,,,,,,,,,,
0,85,85,49,1,,5eb331bc1f70081249e6fb7a,62c539b4a9a7a237c3f6d3fa,2022-07-06_08h34.07.284,Colour_Asymmetry_Pilot,2022.1.3,Win32,59.95203837,62c50e9c1127f2cd403a315f,,,,,,,,,,,,,,,,,,,,,,,,,,,,,,,,,,,,,,,,,,,,,,,,,,,,,,,,,,,,,,,,,,,,,,,,,,,,,,,,,,,,,,,,,,,,,,,,,,,,,,,,,,,,,,,,,,,,,,,,,,,,,,,,,,,,,,,,,,,,,,,,,,,,,,,,,,,,,,,,,,,
0,86,86,44,1,,5eb331bc1f70081249e6fb7a,62c539b4a9a7a237c3f6d3fa,2022-07-06_08h34.07.284,Colour_Asymmetry_Pilot,2022.1.3,Win32,59.95203837,62c50e9c1127f2cd403a315f,,,,,,,,,,,,,,,,,,,,,,,,,,,,,,,,,,,,,,,,,,,,,,,,,,,,,,,,,,,,,,,,,,,,,,,,,,,,,,,,,,,,,,,,,,,,,,,,,,,,,,,,,,,,,,,,,,,,,,,,,,,,,,,,,,,,,,,,,,,,,,,,,,,,,,,,,,,,,,,,,,,
0,87,87,88,1,,5eb331bc1f70081249e6fb7a,62c539b4a9a7a237c3f6d3fa,2022-07-06_08h34.07.284,Colour_Asymmetry_Pilot,2022.1.3,Win32,59.95203837,62c50e9c1127f2cd403a315f,,,,,,,,,,,,,,,,,,,,,,,,,,,,,,,,,,,,,,,,,,,,,,,,,,,,,,,,,,,,,,,,,,,,,,,,,,,,,,,,,,,,,,,,,,,,,,,,,,,,,,,,,,,,,,,,,,,,,,,,,,,,,,,,,,,,,,,,,,,,,,,,,,,,,,,,,,,,,,,,,,,
0,88,88,21,1,,5eb331bc1f70081249e6fb7a,62c539b4a9a7a237c3f6d3fa,2022-07-06_08h34.07.284,Colour_Asymmetry_Pilot,2022.1.3,Win32,59.95203837,62c50e9c1127f2cd403a315f,,,,,,,,,,,,,,,,,,,,,,,,,,,,,,,,,,,,,,,,,,,,,,,,,,,,,,,,,,,,,,,,,,,,,,,,,,,,,,,,,,,,,,,,,,,,,,,,,,,,,,,,,,,,,,,,,,,,,,,,,,,,,,,,,,,,,,,,,,,,,,,,,,,,,,,,,,,,,,,,,,,
0,89,89,55,1,,5eb331bc1f70081249e6fb7a,62c539b4a9a7a237c3f6d3fa,2022-07-06_08h34.07.284,Colour_Asymmetry_Pilot,2022.1.3,Win32,59.95203837,62c50e9c1127f2cd403a315f,,,,,,,,,,,,,,,,,,,,,,,,,,,,,,,,,,,,,,,,,,,,,,,,,,,,,,,,,,,,,,,,,,,,,,,,,,,,,,,,,,,,,,,,,,,,,,,,,,,,,,,,,,,,,,,,,,,,,,,,,,,,,,,,,,,,,,,,,,,,,,,,,,,,,,,,,,,,,,,,,,,
0,90,90,82,1,,5eb331bc1f70081249e6fb7a,62c539b4a9a7a237c3f6d3fa,2022-07-06_08h34.07.284,Colour_Asymmetry_Pilot,2022.1.3,Win32,59.95203837,62c50e9c1127f2cd403a315f,,,,,,,,,,,,,,,,,,,,,,,,,,,,,,,,,,,,,,,,,,,,,,,,,,,,,,,,,,,,,,,,,,,,,,,,,,,,,,,,,,,,,,,,,,,,,,,,,,,,,,,,,,,,,,,,,,,,,,,,,,,,,,,,,,,,,,,,,,,,,,,,,,,,,,,,,,,,,,,,,,,
0,91,91,42,1,,5eb331bc1f70081249e6fb7a,62c539b4a9a7a237c3f6d3fa,2022-07-06_08h34.07.284,Colour_Asymmetry_Pilot,2022.1.3,Win32,59.95203837,62c50e9c1127f2cd403a315f,,,,,,,,,,,,,,,,,,,,,,,,,,,,,,,,,,,,,,,,,,,,,,,,,,,,,,,,,,,,,,,,,,,,,,,,,,,,,,,,,,,,,,,,,,,,,,,,,,,,,,,,,,,,,,,,,,,,,,,,,,,,,,,,,,,,,,,,,,,,,,,,,,,,,,,,,,,,,,,,,,,
0,92,92,9,1,,5eb331bc1f70081249e6fb7a,62c539b4a9a7a237c3f6d3fa,2022-07-06_08h34.07.284,Colour_Asymmetry_Pilot,2022.1.3,Win32,59.95203837,62c50e9c1127f2cd403a315f,,,,,,,,,,,,,,,,,,,,,,,,,,,,,,,,,,,,,,,,,,,,,,,,,,,,,,,,,,,,,,,,,,,,,,,,,,,,,,,,,,,,,,,,,,,,,,,,,,,,,,,,,,,,,,,,,,,,,,,,,,,,,,,,,,,,,,,,,,,,,,,,,,,,,,,,,,,,,,,,,,,
,,,,,,5eb331bc1f70081249e6fb7a,62c539b4a9a7a237c3f6d3fa,2022-07-06_08h34.07.284,Colour_Asymmetry_Pilot,2022.1.3,Win32,59.95203837,62c50e9c1127f2cd403a315f,0,0,0,62,1,fourtwo,,,,,,,,,,,,,,,,,,,,,,,,,,,,,,,,,,,,,,,,,,,,,,,,,,,,,,,,,,,,,,,,,,,,,,,,,,,,,,,,,,,,,,,,,,,,,,,,,,,,,,,,,,,,,,,,,,,,,,,,,,,,,,,,,,,,,,,,,,,,,,,,,,,,,,,,,,,,,
,,,,,,5eb331bc1f70081249e6fb7a,62c539b4a9a7a237c3f6d3fa,2022-07-06_08h34.07.284,Colour_Asymmetry_Pilot,2022.1.3,Win32,59.95203837,62c50e9c1127f2cd403a315f,0,1,1,55,1,fourthree,,,,,,,,,,,,,,,,,,,,,,,,,,,,,,,,,,,,,,,,,,,,,,,,,,,,,,,,,,,,,,,,,,,,,,,,,,,,,,,,,,,,,,,,,,,,,,,,,,,,,,,,,,,,,,,,,,,,,,,,,,,,,,,,,,,,,,,,,,,,,,,,,,,,,,,,,,,,,
,,,,,,5eb331bc1f70081249e6fb7a,62c539b4a9a7a237c3f6d3fa,2022-07-06_08h34.07.284,Colour_Asymmetry_Pilot,2022.1.3,Win32,59.95203837,62c50e9c1127f2cd403a315f,0,2,2,122,1,twoone,,,,,,,,,,,,,,,,,,,,,,,,,,,,,,,,,,,,,,,,,,,,,,,,,,,,,,,,,,,,,,,,,,,,,,,,,,,,,,,,,,,,,,,,,,,,,,,,,,,,,,,,,,,,,,,,,,,,,,,,,,,,,,,,,,,,,,,,,,,,,,,,,,,,,,,,,,,,,
,,,,,,5eb331bc1f70081249e6fb7a,62c539b4a9a7a237c3f6d3fa,2022-07-06_08h34.07.284,Colour_Asymmetry_Pilot,2022.1.3,Win32,59.95203837,62c50e9c1127f2cd403a315f,0,3,3,22,1,fourtwo,,,,,,,,,,,,,,,,,,,,,,,,,,,,,,,,,,,,,,,,,,,,,,,,,,,,,,,,,,,,,,,,,,,,,,,,,,,,,,,,,,,,,,,,,,,,,,,,,,,,,,,,,,,,,,,,,,,,,,,,,,,,,,,,,,,,,,,,,,,,,,,,,,,,,,,,,,,,,
,,,,,,5eb331bc1f70081249e6fb7a,62c539b4a9a7a237c3f6d3fa,2022-07-06_08h34.07.284,Colour_Asymmetry_Pilot,2022.1.3,Win32,59.95203837,62c50e9c1127f2cd403a315f,0,4,4,66,1,twoone,,,,,,,,,,,,,,,,,,,,,,,,,,,,,,,,,,,,,,,,,,,,,,,,,,,,,,,,,,,,,,,,,,,,,,,,,,,,,,,,,,,,,,,,,,,,,,,,,,,,,,,,,,,,,,,,,,,,,,,,,,,,,,,,,,,,,,,,,,,,,,,,,,,,,,,,,,,,,
,,,,,,5eb331bc1f70081249e6fb7a,62c539b4a9a7a237c3f6d3fa,2022-07-06_08h34.07.284,Colour_Asymmetry_Pilot,2022.1.3,Win32,59.95203837,62c50e9c1127f2cd403a315f,0,5,5,160,1,onetwo,,,,,,,,,,,,,,,,,,,,,,,,,,,,,,,,,,,,,,,,,,,,,,,,,,,,,,,,,,,,,,,,,,,,,,,,,,,,,,,,,,,,,,,,,,,,,,,,,,,,,,,,,,,,,,,,,,,,,,,,,,,,,,,,,,,,,,,,,,,,,,,,,,,,,,,,,,,,,
,,,,,,5eb331bc1f70081249e6fb7a,62c539b4a9a7a237c3f6d3fa,2022-07-06_08h34.07.284,Colour_Asymmetry_Pilot,2022.1.3,Win32,59.95203837,62c50e9c1127f2cd403a315f,0,6,6,49,1,onethree,,,,,,,,,,,,,,,,,,,,,,,,,,,,,,,,,,,,,,,,,,,,,,,,,,,,,,,,,,,,,,,,,,,,,,,,,,,,,,,,,,,,,,,,,,,,,,,,,,,,,,,,,,,,,,,,,,,,,,,,,,,,,,,,,,,,,,,,,,,,,,,,,,,,,,,,,,,,,
,,,,,,5eb331bc1f70081249e6fb7a,62c539b4a9a7a237c3f6d3fa,2022-07-06_08h34.07.284,Colour_Asymmetry_Pilot,2022.1.3,Win32,59.95203837,62c50e9c1127f2cd403a315f,0,7,7,154,1,twoone,,,,,,,,,,,,,,,,,,,,,,,,,,,,,,,,,,,,,,,,,,,,,,,,,,,,,,,,,,,,,,,,,,,,,,,,,,,,,,,,,,,,,,,,,,,,,,,,,,,,,,,,,,,,,,,,,,,,,,,,,,,,,,,,,,,,,,,,,,,,,,,,,,,,,,,,,,,,,
,,,,,,5eb331bc1f70081249e6fb7a,62c539b4a9a7a237c3f6d3fa,2022-07-06_08h34.07.284,Colour_Asymmetry_Pilot,2022.1.3,Win32,59.95203837,62c50e9c1127f2cd403a315f,0,8,8,41,1,onethree,,,,,,,,,,,,,,,,,,,,,,,,,,,,,,,,,,,,,,,,,,,,,,,,,,,,,,,,,,,,,,,,,,,,,,,,,,,,,,,,,,,,,,,,,,,,,,,,,,,,,,,,,,,,,,,,,,,,,,,,,,,,,,,,,,,,,,,,,,,,,,,,,,,,,,,,,,,,,
,,,,,,5eb331bc1f70081249e6fb7a,62c539b4a9a7a237c3f6d3fa,2022-07-06_08h34.07.284,Colour_Asymmetry_Pilot,2022.1.3,Win32,59.95203837,62c50e9c1127f2cd403a315f,0,9,9,134,1,fourtwo,,,,,,,,,,,,,,,,,,,,,,,,,,,,,,,,,,,,,,,,,,,,,,,,,,,,,,,,,,,,,,,,,,,,,,,,,,,,,,,,,,,,,,,,,,,,,,,,,,,,,,,,,,,,,,,,,,,,,,,,,,,,,,,,,,,,,,,,,,,,,,,,,,,,,,,,,,,,,
,,,,,,5eb331bc1f70081249e6fb7a,62c539b4a9a7a237c3f6d3fa,2022-07-06_08h34.07.284,Colour_Asymmetry_Pilot,2022.1.3,Win32,59.95203837,62c50e9c1127f2cd403a315f,0,10,10,130,1,twoone,,,,,,,,,,,,,,,,,,,,,,,,,,,,,,,,,,,,,,,,,,,,,,,,,,,,,,,,,,,,,,,,,,,,,,,,,,,,,,,,,,,,,,,,,,,,,,,,,,,,,,,,,,,,,,,,,,,,,,,,,,,,,,,,,,,,,,,,,,,,,,,,,,,,,,,,,,,,,
,,,,,,5eb331bc1f70081249e6fb7a,62c539b4a9a7a237c3f6d3fa,2022-07-06_08h34.07.284,Colour_Asymmetry_Pilot,2022.1.3,Win32,59.95203837,62c50e9c1127f2cd403a315f,0,11,11,113,1,onethree,,,,,,,,,,,,,,,,,,,,,,,,,,,,,,,,,,,,,,,,,,,,,,,,,,,,,,,,,,,,,,,,,,,,,,,,,,,,,,,,,,,,,,,,,,,,,,,,,,,,,,,,,,,,,,,,,,,,,,,,,,,,,,,,,,,,,,,,,,,,,,,,,,,,,,,,,,,,,
,,,,,,5eb331bc1f70081249e6fb7a,62c539b4a9a7a237c3f6d3fa,2022-07-06_08h34.07.284,Colour_Asymmetry_Pilot,2022.1.3,Win32,59.95203837,62c50e9c1127f2cd403a315f,0,12,12,73,1,onethree,,,,,,,,,,,,,,,,,,,,,,,,,,,,,,,,,,,,,,,,,,,,,,,,,,,,,,,,,,,,,,,,,,,,,,,,,,,,,,,,,,,,,,,,,,,,,,,,,,,,,,,,,,,,,,,,,,,,,,,,,,,,,,,,,,,,,,,,,,,,,,,,,,,,,,,,,,,,,
,,,,,,5eb331bc1f70081249e6fb7a,62c539b4a9a7a237c3f6d3fa,2022-07-06_08h34.07.284,Colour_Asymmetry_Pilot,2022.1.3,Win32,59.95203837,62c50e9c1127f2cd403a315f,0,13,13,150,1,fourtwo,,,,,,,,,,,,,,,,,,,,,,,,,,,,,,,,,,,,,,,,,,,,,,,,,,,,,,,,,,,,,,,,,,,,,,,,,,,,,,,,,,,,,,,,,,,,,,,,,,,,,,,,,,,,,,,,,,,,,,,,,,,,,,,,,,,,,,,,,,,,,,,,,,,,,,,,,,,,,
,,,,,,5eb331bc1f70081249e6fb7a,62c539b4a9a7a237c3f6d3fa,2022-07-06_08h34.07.284,Colour_Asymmetry_Pilot,2022.1.3,Win32,59.95203837,62c50e9c1127f2cd403a315f,0,14,14,103,1,fourthree,,,,,,,,,,,,,,,,,,,,,,,,,,,,,,,,,,,,,,,,,,,,,,,,,,,,,,,,,,,,,,,,,,,,,,,,,,,,,,,,,,,,,,,,,,,,,,,,,,,,,,,,,,,,,,,,,,,,,,,,,,,,,,,,,,,,,,,,,,,,,,,,,,,,,,,,,,,,,
,,,,,,5eb331bc1f70081249e6fb7a,62c539b4a9a7a237c3f6d3fa,2022-07-06_08h34.07.284,Colour_Asymmetry_Pilot,2022.1.3,Win32,59.95203837,62c50e9c1127f2cd403a315f,0,15,15,45,1,threefour,,,,,,,,,,,,,,,,,,,,,,,,,,,,,,,,,,,,,,,,,,,,,,,,,,,,,,,,,,,,,,,,,,,,,,,,,,,,,,,,,,,,,,,,,,,,,,,,,,,,,,,,,,,,,,,,,,,,,,,,,,,,,,,,,,,,,,,,,,,,,,,,,,,,,,,,,,,,,
,,,,,,5eb331bc1f70081249e6fb7a,62c539b4a9a7a237c3f6d3fa,2022-07-06_08h34.07.284,Colour_Asymmetry_Pilot,2022.1.3,Win32,59.95203837,62c50e9c1127f2cd403a315f,0,16,16,19,1,twofour,,,,,,,,,,,,,,,,,,,,,,,,,,,,,,,,,,,,,,,,,,,,,,,,,,,,,,,,,,,,,,,,,,,,,,,,,,,,,,,,,,,,,,,,,,,,,,,,,,,,,,,,,,,,,,,,,,,,,,,,,,,,,,,,,,,,,,,,,,,,,,,,,,,,,,,,,,,,,
,,,,,,5eb331bc1f70081249e6fb7a,62c539b4a9a7a237c3f6d3fa,2022-07-06_08h34.07.284,Colour_Asymmetry_Pilot,2022.1.3,Win32,59.95203837,62c50e9c1127f2cd403a315f,0,17,17,135,1,fourthree,,,,,,,,,,,,,,,,,,,,,,,,,,,,,,,,,,,,,,,,,,,,,,,,,,,,,,,,,,,,,,,,,,,,,,,,,,,,,,,,,,,,,,,,,,,,,,,,,,,,,,,,,,,,,,,,,,,,,,,,,,,,,,,,,,,,,,,,,,,,,,,,,,,,,,,,,,,,,
,,,,,,5eb331bc1f70081249e6fb7a,62c539b4a9a7a237c3f6d3fa,2022-07-06_08h34.07.284,Colour_Asymmetry_Pilot,2022.1.3,Win32,59.95203837,62c50e9c1127f2cd403a315f,0,18,18,26,1,twoone,,,,,,,,,,,,,,,,,,,,,,,,,,,,,,,,,,,,,,,,,,,,,,,,,,,,,,,,,,,,,,,,,,,,,,,,,,,,,,,,,,,,,,,,,,,,,,,,,,,,,,,,,,,,,,,,,,,,,,,,,,,,,,,,,,,,,,,,,,,,,,,,,,,,,,,,,,,,,
,,,,,,5eb331bc1f70081249e6fb7a,62c539b4a9a7a237c3f6d3fa,2022-07-06_08h34.07.284,Colour_Asymmetry_Pilot,2022.1.3,Win32,59.95203837,62c50e9c1127f2cd403a315f,0,19,19,100,1,threeone,,,,,,,,,,,,,,,,,,,,,,,,,,,,,,,,,,,,,,,,,,,,,,,,,,,,,,,,,,,,,,,,,,,,,,,,,,,,,,,,,,,,,,,,,,,,,,,,,,,,,,,,,,,,,,,,,,,,,,,,,,,,,,,,,,,,,,,,,,,,,,,,,,,,,,,,,,,,,
,,,,,,5eb331bc1f70081249e6fb7a,62c539b4a9a7a237c3f6d3fa,2022-07-06_08h34.07.284,Colour_Asymmetry_Pilot,2022.1.3,Win32,59.95203837,62c50e9c1127f2cd403a315f,0,20,20,87,1,fourthree,,,,,,,,,,,,,,,,,,,,,,,,,,,,,,,,,,,,,,,,,,,,,,,,,,,,,,,,,,,,,,,,,,,,,,,,,,,,,,,,,,,,,,,,,,,,,,,,,,,,,,,,,,,,,,,,,,,,,,,,,,,,,,,,,,,,,,,,,,,,,,,,,,,,,,,,,,,,,
,,,,,,5eb331bc1f70081249e6fb7a,62c539b4a9a7a237c3f6d3fa,2022-07-06_08h34.07.284,Colour_Asymmetry_Pilot,2022.1.3,Win32,59.95203837,62c50e9c1127f2cd403a315f,0,21,21,76,1,threeone,,,,,,,,,,,,,,,,,,,,,,,,,,,,,,,,,,,,,,,,,,,,,,,,,,,,,,,,,,,,,,,,,,,,,,,,,,,,,,,,,,,,,,,,,,,,,,,,,,,,,,,,,,,,,,,,,,,,,,,,,,,,,,,,,,,,,,,,,,,,,,,,,,,,,,,,,,,,,
,,,,,,5eb331bc1f70081249e6fb7a,62c539b4a9a7a237c3f6d3fa,2022-07-06_08h34.07.284,Colour_Asymmetry_Pilot,2022.1.3,Win32,59.95203837,62c50e9c1127f2cd403a315f,0,22,22,115,1,twofour,,,,,,,,,,,,,,,,,,,,,,,,,,,,,,,,,,,,,,,,,,,,,,,,,,,,,,,,,,,,,,,,,,,,,,,,,,,,,,,,,,,,,,,,,,,,,,,,,,,,,,,,,,,,,,,,,,,,,,,,,,,,,,,,,,,,,,,,,,,,,,,,,,,,,,,,,,,,,
,,,,,,5eb331bc1f70081249e6fb7a,62c539b4a9a7a237c3f6d3fa,2022-07-06_08h34.07.284,Colour_Asymmetry_Pilot,2022.1.3,Win32,59.95203837,62c50e9c1127f2cd403a315f,0,23,23,114,1,twoone,,,,,,,,,,,,,,,,,,,,,,,,,,,,,,,,,,,,,,,,,,,,,,,,,,,,,,,,,,,,,,,,,,,,,,,,,,,,,,,,,,,,,,,,,,,,,,,,,,,,,,,,,,,,,,,,,,,,,,,,,,,,,,,,,,,,,,,,,,,,,,,,,,,,,,,,,,,,,
,,,,,,5eb331bc1f70081249e6fb7a,62c539b4a9a7a237c3f6d3fa,2022-07-06_08h34.07.284,Colour_Asymmetry_Pilot,2022.1.3,Win32,59.95203837,62c50e9c1127f2cd403a315f,0,24,24,111,1,fourthree,,,,,,,,,,,,,,,,,,,,,,,,,,,,,,,,,,,,,,,,,,,,,,,,,,,,,,,,,,,,,,,,,,,,,,,,,,,,,,,,,,,,,,,,,,,,,,,,,,,,,,,,,,,,,,,,,,,,,,,,,,,,,,,,,,,,,,,,,,,,,,,,,,,,,,,,,,,,,
,,,,,,5eb331bc1f70081249e6fb7a,62c539b4a9a7a237c3f6d3fa,2022-07-06_08h34.07.284,Colour_Asymmetry_Pilot,2022.1.3,Win32,59.95203837,62c50e9c1127f2cd403a315f,0,25,25,161,1,onethree,,,,,,,,,,,,,,,,,,,,,,,,,,,,,,,,,,,,,,,,,,,,,,,,,,,,,,,,,,,,,,,,,,,,,,,,,,,,,,,,,,,,,,,,,,,,,,,,,,,,,,,,,,,,,,,,,,,,,,,,,,,,,,,,,,,,,,,,,,,,,,,,,,,,,,,,,,,,,
,,,,,,5eb331bc1f70081249e6fb7a,62c539b4a9a7a237c3f6d3fa,2022-07-06_08h34.07.284,Colour_Asymmetry_Pilot,2022.1.3,Win32,59.95203837,62c50e9c1127f2cd403a315f,0,26,26,13,1,threefour,,,,,,,,,,,,,,,,,,,,,,,,,,,,,,,,,,,,,,,,,,,,,,,,,,,,,,,,,,,,,,,,,,,,,,,,,,,,,,,,,,,,,,,,,,,,,,,,,,,,,,,,,,,,,,,,,,,,,,,,,,,,,,,,,,,,,,,,,,,,,,,,,,,,,,,,,,,,,
,,,,,,5eb331bc1f70081249e6fb7a,62c539b4a9a7a237c3f6d3fa,2022-07-06_08h34.07.284,Colour_Asymmetry_Pilot,2022.1.3,Win32,59.95203837,62c50e9c1127f2cd403a315f,0,27,27,138,1,twoone,,,,,,,,,,,,,,,,,,,,,,,,,,,,,,,,,,,,,,,,,,,,,,,,,,,,,,,,,,,,,,,,,,,,,,,,,,,,,,,,,,,,,,,,,,,,,,,,,,,,,,,,,,,,,,,,,,,,,,,,,,,,,,,,,,,,,,,,,,,,,,,,,,,,,,,,,,,,,
,,,,,,5eb331bc1f70081249e6fb7a,62c539b4a9a7a237c3f6d3fa,2022-07-06_08h34.07.284,Colour_Asymmetry_Pilot,2022.1.3,Win32,59.95203837,62c50e9c1127f2cd403a315f,0,28,28,149,1,threefour,,,,,,,,,,,,,,,,,,,,,,,,,,,,,,,,,,,,,,,,,,,,,,,,,,,,,,,,,,,,,,,,,,,,,,,,,,,,,,,,,,,,,,,,,,,,,,,,,,,,,,,,,,,,,,,,,,,,,,,,,,,,,,,,,,,,,,,,,,,,,,,,,,,,,,,,,,,,,
,,,,,,5eb331bc1f70081249e6fb7a,62c539b4a9a7a237c3f6d3fa,2022-07-06_08h34.07.284,Colour_Asymmetry_Pilot,2022.1.3,Win32,59.95203837,62c50e9c1127f2cd403a315f,0,29,29,4,1,threeone,,,,,,,,,,,,,,,,,,,,,,,,,,,,,,,,,,,,,,,,,,,,,,,,,,,,,,,,,,,,,,,,,,,,,,,,,,,,,,,,,,,,,,,,,,,,,,,,,,,,,,,,,,,,,,,,,,,,,,,,,,,,,,,,,,,,,,,,,,,,,,,,,,,,,,,,,,,,,
,,,,,,5eb331bc1f70081249e6fb7a,62c539b4a9a7a237c3f6d3fa,2022-07-06_08h34.07.284,Colour_Asymmetry_Pilot,2022.1.3,Win32,59.95203837,62c50e9c1127f2cd403a315f,0,30,30,85,1,threefour,,,,,,,,,,,,,,,,,,,,,,,,,,,,,,,,,,,,,,,,,,,,,,,,,,,,,,,,,,,,,,,,,,,,,,,,,,,,,,,,,,,,,,,,,,,,,,,,,,,,,,,,,,,,,,,,,,,,,,,,,,,,,,,,,,,,,,,,,,,,,,,,,,,,,,,,,,,,,
,,,,,,5eb331bc1f70081249e6fb7a,62c539b4a9a7a237c3f6d3fa,2022-07-06_08h34.07.284,Colour_Asymmetry_Pilot,2022.1.3,Win32,59.95203837,62c50e9c1127f2cd403a315f,0,31,31,89,1,onethree,,,,,,,,,,,,,,,,,,,,,,,,,,,,,,,,,,,,,,,,,,,,,,,,,,,,,,,,,,,,,,,,,,,,,,,,,,,,,,,,,,,,,,,,,,,,,,,,,,,,,,,,,,,,,,,,,,,,,,,,,,,,,,,,,,,,,,,,,,,,,,,,,,,,,,,,,,,,,
,,,,,,5eb331bc1f70081249e6fb7a,62c539b4a9a7a237c3f6d3fa,2022-07-06_08h34.07.284,Colour_Asymmetry_Pilot,2022.1.3,Win32,59.95203837,62c50e9c1127f2cd403a315f,0,32,32,25,1,onethree,,,,,,,,,,,,,,,,,,,,,,,,,,,,,,,,,,,,,,,,,,,,,,,,,,,,,,,,,,,,,,,,,,,,,,,,,,,,,,,,,,,,,,,,,,,,,,,,,,,,,,,,,,,,,,,,,,,,,,,,,,,,,,,,,,,,,,,,,,,,,,,,,,,,,,,,,,,,,
,,,,,,5eb331bc1f70081249e6fb7a,62c539b4a9a7a237c3f6d3fa,2022-07-06_08h34.07.284,Colour_Asymmetry_Pilot,2022.1.3,Win32,59.95203837,62c50e9c1127f2cd403a315f,0,33,33,94,1,fourtwo,,,,,,,,,,,,,,,,,,,,,,,,,,,,,,,,,,,,,,,,,,,,,,,,,,,,,,,,,,,,,,,,,,,,,,,,,,,,,,,,,,,,,,,,,,,,,,,,,,,,,,,,,,,,,,,,,,,,,,,,,,,,,,,,,,,,,,,,,,,,,,,,,,,,,,,,,,,,,
,,,,,,5eb331bc1f70081249e6fb7a,62c539b4a9a7a237c3f6d3fa,2022-07-06_08h34.07.284,Colour_Asymmetry_Pilot,2022.1.3,Win32,59.95203837,62c50e9c1127f2cd403a315f,0,34,34,116,1,threeone,,,,,,,,,,,,,,,,,,,,,,,,,,,,,,,,,,,,,,,,,,,,,,,,,,,,,,,,,,,,,,,,,,,,,,,,,,,,,,,,,,,,,,,,,,,,,,,,,,,,,,,,,,,,,,,,,,,,,,,,,,,,,,,,,,,,,,,,,,,,,,,,,,,,,,,,,,,,,
,,,,,,5eb331bc1f70081249e6fb7a,62c539b4a9a7a237c3f6d3fa,2022-07-06_08h34.07.284,Colour_Asymmetry_Pilot,2022.1.3,Win32,59.95203837,62c50e9c1127f2cd403a315f,0,35,35,29,1,threefour,,,,,,,,,,,,,,,,,,,,,,,,,,,,,,,,,,,,,,,,,,,,,,,,,,,,,,,,,,,,,,,,,,,,,,,,,,,,,,,,,,,,,,,,,,,,,,,,,,,,,,,,,,,,,,,,,,,,,,,,,,,,,,,,,,,,,,,,,,,,,,,,,,,,,,,,,,,,,
,,,,,,5eb331bc1f70081249e6fb7a,62c539b4a9a7a237c3f6d3fa,2022-07-06_08h34.07.284,Colour_Asymmetry_Pilot,2022.1.3,Win32,59.95203837,62c50e9c1127f2cd403a315f,0,36,36,125,1,threefour,,,,,,,,,,,,,,,,,,,,,,,,,,,,,,,,,,,,,,,,,,,,,,,,,,,,,,,,,,,,,,,,,,,,,,,,,,,,,,,,,,,,,,,,,,,,,,,,,,,,,,,,,,,,,,,,,,,,,,,,,,,,,,,,,,,,,,,,,,,,,,,,,,,,,,,,,,,,,
,,,,,,5eb331bc1f70081249e6fb7a,62c539b4a9a7a237c3f6d3fa,2022-07-06_08h34.07.284,Colour_Asymmetry_Pilot,2022.1.3,Win32,59.95203837,62c50e9c1127f2cd403a315f,0,37,37,71,1,fourthree,,,,,,,,,,,,,,,,,,,,,,,,,,,,,,,,,,,,,,,,,,,,,,,,,,,,,,,,,,,,,,,,,,,,,,,,,,,,,,,,,,,,,,,,,,,,,,,,,,,,,,,,,,,,,,,,,,,,,,,,,,,,,,,,,,,,,,,,,,,,,,,,,,,,,,,,,,,,,
,,,,,,5eb331bc1f70081249e6fb7a,62c539b4a9a7a237c3f6d3fa,2022-07-06_08h34.07.284,Colour_Asymmetry_Pilot,2022.1.3,Win32,59.95203837,62c50e9c1127f2cd403a315f,0,38,38,95,1,fourthree,,,,,,,,,,,,,,,,,,,,,,,,,,,,,,,,,,,,,,,,,,,,,,,,,,,,,,,,,,,,,,,,,,,,,,,,,,,,,,,,,,,,,,,,,,,,,,,,,,,,,,,,,,,,,,,,,,,,,,,,,,,,,,,,,,,,,,,,,,,,,,,,,,,,,,,,,,,,,
,,,,,,5eb331bc1f70081249e6fb7a,62c539b4a9a7a237c3f6d3fa,2022-07-06_08h34.07.284,Colour_Asymmetry_Pilot,2022.1.3,Win32,59.95203837,62c50e9c1127f2cd403a315f,0,39,39,93,1,threefour,,,,,,,,,,,,,,,,,,,,,,,,,,,,,,,,,,,,,,,,,,,,,,,,,,,,,,,,,,,,,,,,,,,,,,,,,,,,,,,,,,,,,,,,,,,,,,,,,,,,,,,,,,,,,,,,,,,,,,,,,,,,,,,,,,,,,,,,,,,,,,,,,,,,,,,,,,,,,
,,,,,,5eb331bc1f70081249e6fb7a,62c539b4a9a7a237c3f6d3fa,2022-07-06_08h34.07.284,Colour_Asymmetry_Pilot,2022.1.3,Win32,59.95203837,62c50e9c1127f2cd403a315f,0,40,40,44,1,threeone,,,,,,,,,,,,,,,,,,,,,,,,,,,,,,,,,,,,,,,,,,,,,,,,,,,,,,,,,,,,,,,,,,,,,,,,,,,,,,,,,,,,,,,,,,,,,,,,,,,,,,,,,,,,,,,,,,,,,,,,,,,,,,,,,,,,,,,,,,,,,,,,,,,,,,,,,,,,,
,,,,,,5eb331bc1f70081249e6fb7a,62c539b4a9a7a237c3f6d3fa,2022-07-06_08h34.07.284,Colour_Asymmetry_Pilot,2022.1.3,Win32,59.95203837,62c50e9c1127f2cd403a315f,0,41,41,131,1,twofour,,,,,,,,,,,,,,,,,,,,,,,,,,,,,,,,,,,,,,,,,,,,,,,,,,,,,,,,,,,,,,,,,,,,,,,,,,,,,,,,,,,,,,,,,,,,,,,,,,,,,,,,,,,,,,,,,,,,,,,,,,,,,,,,,,,,,,,,,,,,,,,,,,,,,,,,,,,,,
,,,,,,5eb331bc1f70081249e6fb7a,62c539b4a9a7a237c3f6d3fa,2022-07-06_08h34.07.284,Colour_Asymmetry_Pilot,2022.1.3,Win32,59.95203837,62c50e9c1127f2cd403a315f,0,42,42,68,1,threeone,,,,,,,,,,,,,,,,,,,,,,,,,,,,,,,,,,,,,,,,,,,,,,,,,,,,,,,,,,,,,,,,,,,,,,,,,,,,,,,,,,,,,,,,,,,,,,,,,,,,,,,,,,,,,,,,,,,,,,,,,,,,,,,,,,,,,,,,,,,,,,,,,,,,,,,,,,,,,
,,,,,,5eb331bc1f70081249e6fb7a,62c539b4a9a7a237c3f6d3fa,2022-07-06_08h34.07.284,Colour_Asymmetry_Pilot,2022.1.3,Win32,59.95203837,62c50e9c1127f2cd403a315f,0,43,43,10,1,twoone,,,,,,,,,,,,,,,,,,,,,,,,,,,,,,,,,,,,,,,,,,,,,,,,,,,,,,,,,,,,,,,,,,,,,,,,,,,,,,,,,,,,,,,,,,,,,,,,,,,,,,,,,,,,,,,,,,,,,,,,,,,,,,,,,,,,,,,,,,,,,,,,,,,,,,,,,,,,,
,,,,,,5eb331bc1f70081249e6fb7a,62c539b4a9a7a237c3f6d3fa,2022-07-06_08h34.07.284,Colour_Asymmetry_Pilot,2022.1.3,Win32,59.95203837,62c50e9c1127f2cd403a315f,0,44,44,88,1,onetwo,,,,,,,,,,,,,,,,,,,,,,,,,,,,,,,,,,,,,,,,,,,,,,,,,,,,,,,,,,,,,,,,,,,,,,,,,,,,,,,,,,,,,,,,,,,,,,,,,,,,,,,,,,,,,,,,,,,,,,,,,,,,,,,,,,,,,,,,,,,,,,,,,,,,,,,,,,,,,
,,,,,,5eb331bc1f70081249e6fb7a,62c539b4a9a7a237c3f6d3fa,2022-07-06_08h34.07.284,Colour_Asymmetry_Pilot,2022.1.3,Win32,59.95203837,62c50e9c1127f2cd403a315f,0,45,45,56,1,onetwo,,,,,,,,,,,,,,,,,,,,,,,,,,,,,,,,,,,,,,,,,,,,,,,,,,,,,,,,,,,,,,,,,,,,,,,,,,,,,,,,,,,,,,,,,,,,,,,,,,,,,,,,,,,,,,,,,,,,,,,,,,,,,,,,,,,,,,,,,,,,,,,,,,,,,,,,,,,,,
,,,,,,5eb331bc1f70081249e6fb7a,62c539b4a9a7a237c3f6d3fa,2022-07-06_08h34.07.284,Colour_Asymmetry_Pilot,2022.1.3,Win32,59.95203837,62c50e9c1127f2cd403a315f,0,46,46,51,1,twofour,,,,,,,,,,,,,,,,,,,,,,,,,,,,,,,,,,,,,,,,,,,,,,,,,,,,,,,,,,,,,,,,,,,,,,,,,,,,,,,,,,,,,,,,,,,,,,,,,,,,,,,,,,,,,,,,,,,,,,,,,,,,,,,,,,,,,,,,,,,,,,,,,,,,,,,,,,,,,
,,,,,,5eb331bc1f70081249e6fb7a,62c539b4a9a7a237c3f6d3fa,2022-07-06_08h34.07.284,Colour_Asymmetry_Pilot,2022.1.3,Win32,59.95203837,62c50e9c1127f2cd403a315f,0,47,47,80,1,onetwo,,,,,,,,,,,,,,,,,,,,,,,,,,,,,,,,,,,,,,,,,,,,,,,,,,,,,,,,,,,,,,,,,,,,,,,,,,,,,,,,,,,,,,,,,,,,,,,,,,,,,,,,,,,,,,,,,,,,,,,,,,,,,,,,,,,,,,,,,,,,,,,,,,,,,,,,,,,,,
,,,,,,5eb331bc1f70081249e6fb7a,62c539b4a9a7a237c3f6d3fa,2022-07-06_08h34.07.284,Colour_Asymmetry_Pilot,2022.1.3,Win32,59.95203837,62c50e9c1127f2cd403a315f,0,48,48,144,1,onetwo,,,,,,,,,,,,,,,,,,,,,,,,,,,,,,,,,,,,,,,,,,,,,,,,,,,,,,,,,,,,,,,,,,,,,,,,,,,,,,,,,,,,,,,,,,,,,,,,,,,,,,,,,,,,,,,,,,,,,,,,,,,,,,,,,,,,,,,,,,,,,,,,,,,,,,,,,,,,,
,,,,,,5eb331bc1f70081249e6fb7a,62c539b4a9a7a237c3f6d3fa,2022-07-06_08h34.07.284,Colour_Asymmetry_Pilot,2022.1.3,Win32,59.95203837,62c50e9c1127f2cd403a315f,0,49,49,57,1,onethree,,,,,,,,,,,,,,,,,,,,,,,,,,,,,,,,,,,,,,,,,,,,,,,,,,,,,,,,,,,,,,,,,,,,,,,,,,,,,,,,,,,,,,,,,,,,,,,,,,,,,,,,,,,,,,,,,,,,,,,,,,,,,,,,,,,,,,,,,,,,,,,,,,,,,,,,,,,,,
,,,,,,5eb331bc1f70081249e6fb7a,62c539b4a9a7a237c3f6d3fa,2022-07-06_08h34.07.284,Colour_Asymmetry_Pilot,2022.1.3,Win32,59.95203837,62c50e9c1127f2cd403a315f,0,50,50,54,1,fourtwo,,,,,,,,,,,,,,,,,,,,,,,,,,,,,,,,,,,,,,,,,,,,,,,,,,,,,,,,,,,,,,,,,,,,,,,,,,,,,,,,,,,,,,,,,,,,,,,,,,,,,,,,,,,,,,,,,,,,,,,,,,,,,,,,,,,,,,,,,,,,,,,,,,,,,,,,,,,,,
,,,,,,5eb331bc1f70081249e6fb7a,62c539b4a9a7a237c3f6d3fa,2022-07-06_08h34.07.284,Colour_Asymmetry_Pilot,2022.1.3,Win32,59.95203837,62c50e9c1127f2cd403a315f,0,51,51,27,1,twofour,,,,,,,,,,,,,,,,,,,,,,,,,,,,,,,,,,,,,,,,,,,,,,,,,,,,,,,,,,,,,,,,,,,,,,,,,,,,,,,,,,,,,,,,,,,,,,,,,,,,,,,,,,,,,,,,,,,,,,,,,,,,,,,,,,,,,,,,,,,,,,,,,,,,,,,,,,,,,
,,,,,,5eb331bc1f70081249e6fb7a,62c539b4a9a7a237c3f6d3fa,2022-07-06_08h34.07.284,Colour_Asymmetry_Pilot,2022.1.3,Win32,59.95203837,62c50e9c1127f2cd403a315f,0,52,52,136,1,onetwo,,,,,,,,,,,,,,,,,,,,,,,,,,,,,,,,,,,,,,,,,,,,,,,,,,,,,,,,,,,,,,,,,,,,,,,,,,,,,,,,,,,,,,,,,,,,,,,,,,,,,,,,,,,,,,,,,,,,,,,,,,,,,,,,,,,,,,,,,,,,,,,,,,,,,,,,,,,,,
,,,,,,5eb331bc1f70081249e6fb7a,62c539b4a9a7a237c3f6d3fa,2022-07-06_08h34.07.284,Colour_Asymmetry_Pilot,2022.1.3,Win32,59.95203837,62c50e9c1127f2cd403a315f,0,53,53,77,1,threefour,,,,,,,,,,,,,,,,,,,,,,,,,,,,,,,,,,,,,,,,,,,,,,,,,,,,,,,,,,,,,,,,,,,,,,,,,,,,,,,,,,,,,,,,,,,,,,,,,,,,,,,,,,,,,,,,,,,,,,,,,,,,,,,,,,,,,,,,,,,,,,,,,,,,,,,,,,,,,
,,,,,,5eb331bc1f70081249e6fb7a,62c539b4a9a7a237c3f6d3fa,2022-07-06_08h34.07.284,Colour_Asymmetry_Pilot,2022.1.3,Win32,59.95203837,62c50e9c1127f2cd403a315f,0,54,54,129,1,onethree,,,,,,,,,,,,,,,,,,,,,,,,,,,,,,,,,,,,,,,,,,,,,,,,,,,,,,,,,,,,,,,,,,,,,,,,,,,,,,,,,,,,,,,,,,,,,,,,,,,,,,,,,,,,,,,,,,,,,,,,,,,,,,,,,,,,,,,,,,,,,,,,,,,,,,,,,,,,,
,,,,,,5eb331bc1f70081249e6fb7a,62c539b4a9a7a237c3f6d3fa,2022-07-06_08h34.07.284,Colour_Asymmetry_Pilot,2022.1.3,Win32,59.95203837,62c50e9c1127f2cd403a315f,0,55,55,58,1,twoone,,,,,,,,,,,,,,,,,,,,,,,,,,,,,,,,,,,,,,,,,,,,,,,,,,,,,,,,,,,,,,,,,,,,,,,,,,,,,,,,,,,,,,,,,,,,,,,,,,,,,,,,,,,,,,,,,,,,,,,,,,,,,,,,,,,,,,,,,,,,,,,,,,,,,,,,,,,,,
,,,,,,5eb331bc1f70081249e6fb7a,62c539b4a9a7a237c3f6d3fa,2022-07-06_08h34.07.284,Colour_Asymmetry_Pilot,2022.1.3,Win32,59.95203837,62c50e9c1127f2cd403a315f,0,56,56,3,1,twofour,,,,,,,,,,,,,,,,,,,,,,,,,,,,,,,,,,,,,,,,,,,,,,,,,,,,,,,,,,,,,,,,,,,,,,,,,,,,,,,,,,,,,,,,,,,,,,,,,,,,,,,,,,,,,,,,,,,,,,,,,,,,,,,,,,,,,,,,,,,,,,,,,,,,,,,,,,,,,
,,,,,,5eb331bc1f70081249e6fb7a,62c539b4a9a7a237c3f6d3fa,2022-07-06_08h34.07.284,Colour_Asymmetry_Pilot,2022.1.3,Win32,59.95203837,62c50e9c1127f2cd403a315f,0,57,57,99,1,twofour,,,,,,,,,,,,,,,,,,,,,,,,,,,,,,,,,,,,,,,,,,,,,,,,,,,,,,,,,,,,,,,,,,,,,,,,,,,,,,,,,,,,,,,,,,,,,,,,,,,,,,,,,,,,,,,,,,,,,,,,,,,,,,,,,,,,,,,,,,,,,,,,,,,,,,,,,,,,,
,,,,,,5eb331bc1f70081249e6fb7a,62c539b4a9a7a237c3f6d3fa,2022-07-06_08h34.07.284,Colour_Asymmetry_Pilot,2022.1.3,Win32,59.95203837,62c50e9c1127f2cd403a315f,0,58,58,61,1,threefour,,,,,,,,,,,,,,,,,,,,,,,,,,,,,,,,,,,,,,,,,,,,,,,,,,,,,,,,,,,,,,,,,,,,,,,,,,,,,,,,,,,,,,,,,,,,,,,,,,,,,,,,,,,,,,,,,,,,,,,,,,,,,,,,,,,,,,,,,,,,,,,,,,,,,,,,,,,,,
,,,,,,5eb331bc1f70081249e6fb7a,62c539b4a9a7a237c3f6d3fa,2022-07-06_08h34.07.284,Colour_Asymmetry_Pilot,2022.1.3,Win32,59.95203837,62c50e9c1127f2cd403a315f,0,59,59,0,1,onetwo,,,,,,,,,,,,,,,,,,,,,,,,,,,,,,,,,,,,,,,,,,,,,,,,,,,,,,,,,,,,,,,,,,,,,,,,,,,,,,,,,,,,,,,,,,,,,,,,,,,,,,,,,,,,,,,,,,,,,,,,,,,,,,,,,,,,,,,,,,,,,,,,,,,,,,,,,,,,,
,,,,,,5eb331bc1f70081249e6fb7a,62c539b4a9a7a237c3f6d3fa,2022-07-06_08h34.07.284,Colour_Asymmetry_Pilot,2022.1.3,Win32,59.95203837,62c50e9c1127f2cd403a315f,0,60,60,118,1,fourtwo,,,,,,,,,,,,,,,,,,,,,,,,,,,,,,,,,,,,,,,,,,,,,,,,,,,,,,,,,,,,,,,,,,,,,,,,,,,,,,,,,,,,,,,,,,,,,,,,,,,,,,,,,,,,,,,,,,,,,,,,,,,,,,,,,,,,,,,,,,,,,,,,,,,,,,,,,,,,,
,,,,,,5eb331bc1f70081249e6fb7a,62c539b4a9a7a237c3f6d3fa,2022-07-06_08h34.07.284,Colour_Asymmetry_Pilot,2022.1.3,Win32,59.95203837,62c50e9c1127f2cd403a315f,0,61,61,98,1,twoone,,,,,,,,,,,,,,,,,,,,,,,,,,,,,,,,,,,,,,,,,,,,,,,,,,,,,,,,,,,,,,,,,,,,,,,,,,,,,,,,,,,,,,,,,,,,,,,,,,,,,,,,,,,,,,,,,,,,,,,,,,,,,,,,,,,,,,,,,,,,,,,,,,,,,,,,,,,,,
,,,,,,5eb331bc1f70081249e6fb7a,62c539b4a9a7a237c3f6d3fa,2022-07-06_08h34.07.284,Colour_Asymmetry_Pilot,2022.1.3,Win32,59.95203837,62c50e9c1127f2cd403a315f,0,62,62,65,1,onethree,,,,,,,,,,,,,,,,,,,,,,,,,,,,,,,,,,,,,,,,,,,,,,,,,,,,,,,,,,,,,,,,,,,,,,,,,,,,,,,,,,,,,,,,,,,,,,,,,,,,,,,,,,,,,,,,,,,,,,,,,,,,,,,,,,,,,,,,,,,,,,,,,,,,,,,,,,,,,
,,,,,,5eb331bc1f70081249e6fb7a,62c539b4a9a7a237c3f6d3fa,2022-07-06_08h34.07.284,Colour_Asymmetry_Pilot,2022.1.3,Win32,59.95203837,62c50e9c1127f2cd403a315f,0,63,63,81,1,onethree,,,,,,,,,,,,,,,,,,,,,,,,,,,,,,,,,,,,,,,,,,,,,,,,,,,,,,,,,,,,,,,,,,,,,,,,,,,,,,,,,,,,,,,,,,,,,,,,,,,,,,,,,,,,,,,,,,,,,,,,,,,,,,,,,,,,,,,,,,,,,,,,,,,,,,,,,,,,,
,,,,,,5eb331bc1f70081249e6fb7a,62c539b4a9a7a237c3f6d3fa,2022-07-06_08h34.07.284,Colour_Asymmetry_Pilot,2022.1.3,Win32,59.95203837,62c50e9c1127f2cd403a315f,0,64,64,82,1,twoone,,,,,,,,,,,,,,,,,,,,,,,,,,,,,,,,,,,,,,,,,,,,,,,,,,,,,,,,,,,,,,,,,,,,,,,,,,,,,,,,,,,,,,,,,,,,,,,,,,,,,,,,,,,,,,,,,,,,,,,,,,,,,,,,,,,,,,,,,,,,,,,,,,,,,,,,,,,,,
,,,,,,5eb331bc1f70081249e6fb7a,62c539b4a9a7a237c3f6d3fa,2022-07-06_08h34.07.284,Colour_Asymmetry_Pilot,2022.1.3,Win32,59.95203837,62c50e9c1127f2cd403a315f,0,65,65,7,1,fourthree,,,,,,,,,,,,,,,,,,,,,,,,,,,,,,,,,,,,,,,,,,,,,,,,,,,,,,,,,,,,,,,,,,,,,,,,,,,,,,,,,,,,,,,,,,,,,,,,,,,,,,,,,,,,,,,,,,,,,,,,,,,,,,,,,,,,,,,,,,,,,,,,,,,,,,,,,,,,,
,,,,,,5eb331bc1f70081249e6fb7a,62c539b4a9a7a237c3f6d3fa,2022-07-06_08h34.07.284,Colour_Asymmetry_Pilot,2022.1.3,Win32,59.95203837,62c50e9c1127f2cd403a315f,0,66,66,8,1,onetwo,,,,,,,,,,,,,,,,,,,,,,,,,,,,,,,,,,,,,,,,,,,,,,,,,,,,,,,,,,,,,,,,,,,,,,,,,,,,,,,,,,,,,,,,,,,,,,,,,,,,,,,,,,,,,,,,,,,,,,,,,,,,,,,,,,,,,,,,,,,,,,,,,,,,,,,,,,,,,
,,,,,,5eb331bc1f70081249e6fb7a,62c539b4a9a7a237c3f6d3fa,2022-07-06_08h34.07.284,Colour_Asymmetry_Pilot,2022.1.3,Win32,59.95203837,62c50e9c1127f2cd403a315f,0,67,67,52,1,threeone,,,,,,,,,,,,,,,,,,,,,,,,,,,,,,,,,,,,,,,,,,,,,,,,,,,,,,,,,,,,,,,,,,,,,,,,,,,,,,,,,,,,,,,,,,,,,,,,,,,,,,,,,,,,,,,,,,,,,,,,,,,,,,,,,,,,,,,,,,,,,,,,,,,,,,,,,,,,,
,,,,,,5eb331bc1f70081249e6fb7a,62c539b4a9a7a237c3f6d3fa,2022-07-06_08h34.07.284,Colour_Asymmetry_Pilot,2022.1.3,Win32,59.95203837,62c50e9c1127f2cd403a315f,0,68,68,15,1,fourthree,,,,,,,,,,,,,,,,,,,,,,,,,,,,,,,,,,,,,,,,,,,,,,,,,,,,,,,,,,,,,,,,,,,,,,,,,,,,,,,,,,,,,,,,,,,,,,,,,,,,,,,,,,,,,,,,,,,,,,,,,,,,,,,,,,,,,,,,,,,,,,,,,,,,,,,,,,,,,
,,,,,,5eb331bc1f70081249e6fb7a,62c539b4a9a7a237c3f6d3fa,2022-07-06_08h34.07.284,Colour_Asymmetry_Pilot,2022.1.3,Win32,59.95203837,62c50e9c1127f2cd403a315f,0,69,69,147,1,twofour,,,,,,,,,,,,,,,,,,,,,,,,,,,,,,,,,,,,,,,,,,,,,,,,,,,,,,,,,,,,,,,,,,,,,,,,,,,,,,,,,,,,,,,,,,,,,,,,,,,,,,,,,,,,,,,,,,,,,,,,,,,,,,,,,,,,,,,,,,,,,,,,,,,,,,,,,,,,,
,,,,,,5eb331bc1f70081249e6fb7a,62c539b4a9a7a237c3f6d3fa,2022-07-06_08h34.07.284,Colour_Asymmetry_Pilot,2022.1.3,Win32,59.95203837,62c50e9c1127f2cd403a315f,0,70,70,104,1,onetwo,,,,,,,,,,,,,,,,,,,,,,,,,,,,,,,,,,,,,,,,,,,,,,,,,,,,,,,,,,,,,,,,,,,,,,,,,,,,,,,,,,,,,,,,,,,,,,,,,,,,,,,,,,,,,,,,,,,,,,,,,,,,,,,,,,,,,,,,,,,,,,,,,,,,,,,,,,,,,
,,,,,,5eb331bc1f70081249e6fb7a,62c539b4a9a7a237c3f6d3fa,2022-07-06_08h34.07.284,Colour_Asymmetry_Pilot,2022.1.3,Win32,59.95203837,62c50e9c1127f2cd403a315f,0,71,71,24,1,onetwo,,,,,,,,,,,,,,,,,,,,,,,,,,,,,,,,,,,,,,,,,,,,,,,,,,,,,,,,,,,,,,,,,,,,,,,,,,,,,,,,,,,,,,,,,,,,,,,,,,,,,,,,,,,,,,,,,,,,,,,,,,,,,,,,,,,,,,,,,,,,,,,,,,,,,,,,,,,,,
,,,,,,5eb331bc1f70081249e6fb7a,62c539b4a9a7a237c3f6d3fa,2022-07-06_08h34.07.284,Colour_Asymmetry_Pilot,2022.1.3,Win32,59.95203837,62c50e9c1127f2cd403a315f,0,72,72,70,1,fourtwo,,,,,,,,,,,,,,,,,,,,,,,,,,,,,,,,,,,,,,,,,,,,,,,,,,,,,,,,,,,,,,,,,,,,,,,,,,,,,,,,,,,,,,,,,,,,,,,,,,,,,,,,,,,,,,,,,,,,,,,,,,,,,,,,,,,,,,,,,,,,,,,,,,,,,,,,,,,,,
,,,,,,5eb331bc1f70081249e6fb7a,62c539b4a9a7a237c3f6d3fa,2022-07-06_08h34.07.284,Colour_Asymmetry_Pilot,2022.1.3,Win32,59.95203837,62c50e9c1127f2cd403a315f,0,73,73,97,1,onethree,,,,,,,,,,,,,,,,,,,,,,,,,,,,,,,,,,,,,,,,,,,,,,,,,,,,,,,,,,,,,,,,,,,,,,,,,,,,,,,,,,,,,,,,,,,,,,,,,,,,,,,,,,,,,,,,,,,,,,,,,,,,,,,,,,,,,,,,,,,,,,,,,,,,,,,,,,,,,
,,,,,,5eb331bc1f70081249e6fb7a,62c539b4a9a7a237c3f6d3fa,2022-07-06_08h34.07.284,Colour_Asymmetry_Pilot,2022.1.3,Win32,59.95203837,62c50e9c1127f2cd403a315f,0,74,74,64,1,onetwo,,,,,,,,,,,,,,,,,,,,,,,,,,,,,,,,,,,,,,,,,,,,,,,,,,,,,,,,,,,,,,,,,,,,,,,,,,,,,,,,,,,,,,,,,,,,,,,,,,,,,,,,,,,,,,,,,,,,,,,,,,,,,,,,,,,,,,,,,,,,,,,,,,,,,,,,,,,,,
,,,,,,5eb331bc1f70081249e6fb7a,62c539b4a9a7a237c3f6d3fa,2022-07-06_08h34.07.284,Colour_Asymmetry_Pilot,2022.1.3,Win32,59.95203837,62c50e9c1127f2cd403a315f,0,75,75,74,1,twoone,,,,,,,,,,,,,,,,,,,,,,,,,,,,,,,,,,,,,,,,,,,,,,,,,,,,,,,,,,,,,,,,,,,,,,,,,,,,,,,,,,,,,,,,,,,,,,,,,,,,,,,,,,,,,,,,,,,,,,,,,,,,,,,,,,,,,,,,,,,,,,,,,,,,,,,,,,,,,
,,,,,,5eb331bc1f70081249e6fb7a,62c539b4a9a7a237c3f6d3fa,2022-07-06_08h34.07.284,Colour_Asymmetry_Pilot,2022.1.3,Win32,59.95203837,62c50e9c1127f2cd403a315f,0,76,76,121,1,onethree,,,,,,,,,,,,,,,,,,,,,,,,,,,,,,,,,,,,,,,,,,,,,,,,,,,,,,,,,,,,,,,,,,,,,,,,,,,,,,,,,,,,,,,,,,,,,,,,,,,,,,,,,,,,,,,,,,,,,,,,,,,,,,,,,,,,,,,,,,,,,,,,,,,,,,,,,,,,,
,,,,,,5eb331bc1f70081249e6fb7a,62c539b4a9a7a237c3f6d3fa,2022-07-06_08h34.07.284,Colour_Asymmetry_Pilot,2022.1.3,Win32,59.95203837,62c50e9c1127f2cd403a315f,0,77,77,28,1,threeone,,,,,,,,,,,,,,,,,,,,,,,,,,,,,,,,,,,,,,,,,,,,,,,,,,,,,,,,,,,,,,,,,,,,,,,,,,,,,,,,,,,,,,,,,,,,,,,,,,,,,,,,,,,,,,,,,,,,,,,,,,,,,,,,,,,,,,,,,,,,,,,,,,,,,,,,,,,,,
,,,,,,5eb331bc1f70081249e6fb7a,62c539b4a9a7a237c3f6d3fa,2022-07-06_08h34.07.284,Colour_Asymmetry_Pilot,2022.1.3,Win32,59.95203837,62c50e9c1127f2cd403a315f,0,78,78,101,1,threefour,,,,,,,,,,,,,,,,,,,,,,,,,,,,,,,,,,,,,,,,,,,,,,,,,,,,,,,,,,,,,,,,,,,,,,,,,,,,,,,,,,,,,,,,,,,,,,,,,,,,,,,,,,,,,,,,,,,,,,,,,,,,,,,,,,,,,,,,,,,,,,,,,,,,,,,,,,,,,
,,,,,,5eb331bc1f70081249e6fb7a,62c539b4a9a7a237c3f6d3fa,2022-07-06_08h34.07.284,Colour_Asymmetry_Pilot,2022.1.3,Win32,59.95203837,62c50e9c1127f2cd403a315f,0,79,79,112,1,onetwo,,,,,,,,,,,,,,,,,,,,,,,,,,,,,,,,,,,,,,,,,,,,,,,,,,,,,,,,,,,,,,,,,,,,,,,,,,,,,,,,,,,,,,,,,,,,,,,,,,,,,,,,,,,,,,,,,,,,,,,,,,,,,,,,,,,,,,,,,,,,,,,,,,,,,,,,,,,,,
,,,,,,5eb331bc1f70081249e6fb7a,62c539b4a9a7a237c3f6d3fa,2022-07-06_08h34.07.284,Colour_Asymmetry_Pilot,2022.1.3,Win32,59.95203837,62c50e9c1127f2cd403a315f,0,80,80,16,1,onetwo,,,,,,,,,,,,,,,,,,,,,,,,,,,,,,,,,,,,,,,,,,,,,,,,,,,,,,,,,,,,,,,,,,,,,,,,,,,,,,,,,,,,,,,,,,,,,,,,,,,,,,,,,,,,,,,,,,,,,,,,,,,,,,,,,,,,,,,,,,,,,,,,,,,,,,,,,,,,,
,,,,,,5eb331bc1f70081249e6fb7a,62c539b4a9a7a237c3f6d3fa,2022-07-06_08h34.07.284,Colour_Asymmetry_Pilot,2022.1.3,Win32,59.95203837,62c50e9c1127f2cd403a315f,0,81,81,123,1,twofour,,,,,,,,,,,,,,,,,,,,,,,,,,,,,,,,,,,,,,,,,,,,,,,,,,,,,,,,,,,,,,,,,,,,,,,,,,,,,,,,,,,,,,,,,,,,,,,,,,,,,,,,,,,,,,,,,,,,,,,,,,,,,,,,,,,,,,,,,,,,,,,,,,,,,,,,,,,,,
,,,,,,5eb331bc1f70081249e6fb7a,62c539b4a9a7a237c3f6d3fa,2022-07-06_08h34.07.284,Colour_Asymmetry_Pilot,2022.1.3,Win32,59.95203837,62c50e9c1127f2cd403a315f,0,82,82,39,1,fourthree,,,,,,,,,,,,,,,,,,,,,,,,,,,,,,,,,,,,,,,,,,,,,,,,,,,,,,,,,,,,,,,,,,,,,,,,,,,,,,,,,,,,,,,,,,,,,,,,,,,,,,,,,,,,,,,,,,,,,,,,,,,,,,,,,,,,,,,,,,,,,,,,,,,,,,,,,,,,,
,,,,,,5eb331bc1f70081249e6fb7a,62c539b4a9a7a237c3f6d3fa,2022-07-06_08h34.07.284,Colour_Asymmetry_Pilot,2022.1.3,Win32,59.95203837,62c50e9c1127f2cd403a315f,0,83,83,109,1,threefour,,,,,,,,,,,,,,,,,,,,,,,,,,,,,,,,,,,,,,,,,,,,,,,,,,,,,,,,,,,,,,,,,,,,,,,,,,,,,,,,,,,,,,,,,,,,,,,,,,,,,,,,,,,,,,,,,,,,,,,,,,,,,,,,,,,,,,,,,,,,,,,,,,,,,,,,,,,,,
,,,,,,5eb331bc1f70081249e6fb7a,62c539b4a9a7a237c3f6d3fa,2022-07-06_08h34.07.284,Colour_Asymmetry_Pilot,2022.1.3,Win32,59.95203837,62c50e9c1127f2cd403a315f,0,84,84,67,1,twofour,,,,,,,,,,,,,,,,,,,,,,,,,,,,,,,,,,,,,,,,,,,,,,,,,,,,,,,,,,,,,,,,,,,,,,,,,,,,,,,,,,,,,,,,,,,,,,,,,,,,,,,,,,,,,,,,,,,,,,,,,,,,,,,,,,,,,,,,,,,,,,,,,,,,,,,,,,,,,
,,,,,,5eb331bc1f70081249e6fb7a,62c539b4a9a7a237c3f6d3fa,2022-07-06_08h34.07.284,Colour_Asymmetry_Pilot,2022.1.3,Win32,59.95203837,62c50e9c1127f2cd403a315f,0,85,85,92,1,threeone,,,,,,,,,,,,,,,,,,,,,,,,,,,,,,,,,,,,,,,,,,,,,,,,,,,,,,,,,,,,,,,,,,,,,,,,,,,,,,,,,,,,,,,,,,,,,,,,,,,,,,,,,,,,,,,,,,,,,,,,,,,,,,,,,,,,,,,,,,,,,,,,,,,,,,,,,,,,,
,,,,,,5eb331bc1f70081249e6fb7a,62c539b4a9a7a237c3f6d3fa,2022-07-06_08h34.07.284,Colour_Asymmetry_Pilot,2022.1.3,Win32,59.95203837,62c50e9c1127f2cd403a315f,0,86,86,145,1,onethree,,,,,,,,,,,,,,,,,,,,,,,,,,,,,,,,,,,,,,,,,,,,,,,,,,,,,,,,,,,,,,,,,,,,,,,,,,,,,,,,,,,,,,,,,,,,,,,,,,,,,,,,,,,,,,,,,,,,,,,,,,,,,,,,,,,,,,,,,,,,,,,,,,,,,,,,,,,,,
,,,,,,5eb331bc1f70081249e6fb7a,62c539b4a9a7a237c3f6d3fa,2022-07-06_08h34.07.284,Colour_Asymmetry_Pilot,2022.1.3,Win32,59.95203837,62c50e9c1127f2cd403a315f,0,87,87,79,1,fourthree,,,,,,,,,,,,,,,,,,,,,,,,,,,,,,,,,,,,,,,,,,,,,,,,,,,,,,,,,,,,,,,,,,,,,,,,,,,,,,,,,,,,,,,,,,,,,,,,,,,,,,,,,,,,,,,,,,,,,,,,,,,,,,,,,,,,,,,,,,,,,,,,,,,,,,,,,,,,,
,,,,,,5eb331bc1f70081249e6fb7a,62c539b4a9a7a237c3f6d3fa,2022-07-06_08h34.07.284,Colour_Asymmetry_Pilot,2022.1.3,Win32,59.95203837,62c50e9c1127f2cd403a315f,0,88,88,32,1,onetwo,,,,,,,,,,,,,,,,,,,,,,,,,,,,,,,,,,,,,,,,,,,,,,,,,,,,,,,,,,,,,,,,,,,,,,,,,,,,,,,,,,,,,,,,,,,,,,,,,,,,,,,,,,,,,,,,,,,,,,,,,,,,,,,,,,,,,,,,,,,,,,,,,,,,,,,,,,,,,
,,,,,,5eb331bc1f70081249e6fb7a,62c539b4a9a7a237c3f6d3fa,2022-07-06_08h34.07.284,Colour_Asymmetry_Pilot,2022.1.3,Win32,59.95203837,62c50e9c1127f2cd403a315f,0,89,89,53,1,threefour,,,,,,,,,,,,,,,,,,,,,,,,,,,,,,,,,,,,,,,,,,,,,,,,,,,,,,,,,,,,,,,,,,,,,,,,,,,,,,,,,,,,,,,,,,,,,,,,,,,,,,,,,,,,,,,,,,,,,,,,,,,,,,,,,,,,,,,,,,,,,,,,,,,,,,,,,,,,,
,,,,,,5eb331bc1f70081249e6fb7a,62c539b4a9a7a237c3f6d3fa,2022-07-06_08h34.07.284,Colour_Asymmetry_Pilot,2022.1.3,Win32,59.95203837,62c50e9c1127f2cd403a315f,0,90,90,107,1,twofour,,,,,,,,,,,,,,,,,,,,,,,,,,,,,,,,,,,,,,,,,,,,,,,,,,,,,,,,,,,,,,,,,,,,,,,,,,,,,,,,,,,,,,,,,,,,,,,,,,,,,,,,,,,,,,,,,,,,,,,,,,,,,,,,,,,,,,,,,,,,,,,,,,,,,,,,,,,,,
,,,,,,5eb331bc1f70081249e6fb7a,62c539b4a9a7a237c3f6d3fa,2022-07-06_08h34.07.284,Colour_Asymmetry_Pilot,2022.1.3,Win32,59.95203837,62c50e9c1127f2cd403a315f,0,91,91,133,1,threefour,,,,,,,,,,,,,,,,,,,,,,,,,,,,,,,,,,,,,,,,,,,,,,,,,,,,,,,,,,,,,,,,,,,,,,,,,,,,,,,,,,,,,,,,,,,,,,,,,,,,,,,,,,,,,,,,,,,,,,,,,,,,,,,,,,,,,,,,,,,,,,,,,,,,,,,,,,,,,
,,,,,,5eb331bc1f70081249e6fb7a,62c539b4a9a7a237c3f6d3fa,2022-07-06_08h34.07.284,Colour_Asymmetry_Pilot,2022.1.3,Win32,59.95203837,62c50e9c1127f2cd403a315f,0,92,92,59,1,twofour,,,,,,,,,,,,,,,,,,,,,,,,,,,,,,,,,,,,,,,,,,,,,,,,,,,,,,,,,,,,,,,,,,,,,,,,,,,,,,,,,,,,,,,,,,,,,,,,,,,,,,,,,,,,,,,,,,,,,,,,,,,,,,,,,,,,,,,,,,,,,,,,,,,,,,,,,,,,,
,,,,,,5eb331bc1f70081249e6fb7a,62c539b4a9a7a237c3f6d3fa,2022-07-06_08h34.07.284,Colour_Asymmetry_Pilot,2022.1.3,Win32,59.95203837,62c50e9c1127f2cd403a315f,0,93,93,18,1,twoone,,,,,,,,,,,,,,,,,,,,,,,,,,,,,,,,,,,,,,,,,,,,,,,,,,,,,,,,,,,,,,,,,,,,,,,,,,,,,,,,,,,,,,,,,,,,,,,,,,,,,,,,,,,,,,,,,,,,,,,,,,,,,,,,,,,,,,,,,,,,,,,,,,,,,,,,,,,,,
,,,,,,5eb331bc1f70081249e6fb7a,62c539b4a9a7a237c3f6d3fa,2022-07-06_08h34.07.284,Colour_Asymmetry_Pilot,2022.1.3,Win32,59.95203837,62c50e9c1127f2cd403a315f,0,94,94,86,1,fourtwo,,,,,,,,,,,,,,,,,,,,,,,,,,,,,,,,,,,,,,,,,,,,,,,,,,,,,,,,,,,,,,,,,,,,,,,,,,,,,,,,,,,,,,,,,,,,,,,,,,,,,,,,,,,,,,,,,,,,,,,,,,,,,,,,,,,,,,,,,,,,,,,,,,,,,,,,,,,,,
,,,,,,5eb331bc1f70081249e6fb7a,62c539b4a9a7a237c3f6d3fa,2022-07-06_08h34.07.284,Colour_Asymmetry_Pilot,2022.1.3,Win32,59.95203837,62c50e9c1127f2cd403a315f,0,95,95,91,1,twofour,,,,,,,,,,,,,,,,,,,,,,,,,,,,,,,,,,,,,,,,,,,,,,,,,,,,,,,,,,,,,,,,,,,,,,,,,,,,,,,,,,,,,,,,,,,,,,,,,,,,,,,,,,,,,,,,,,,,,,,,,,,,,,,,,,,,,,,,,,,,,,,,,,,,,,,,,,,,,
,,,,,,5eb331bc1f70081249e6fb7a,62c539b4a9a7a237c3f6d3fa,2022-07-06_08h34.07.284,Colour_Asymmetry_Pilot,2022.1.3,Win32,59.95203837,62c50e9c1127f2cd403a315f,0,96,96,20,1,threeone,,,,,,,,,,,,,,,,,,,,,,,,,,,,,,,,,,,,,,,,,,,,,,,,,,,,,,,,,,,,,,,,,,,,,,,,,,,,,,,,,,,,,,,,,,,,,,,,,,,,,,,,,,,,,,,,,,,,,,,,,,,,,,,,,,,,,,,,,,,,,,,,,,,,,,,,,,,,,
,,,,,,5eb331bc1f70081249e6fb7a,62c539b4a9a7a237c3f6d3fa,2022-07-06_08h34.07.284,Colour_Asymmetry_Pilot,2022.1.3,Win32,59.95203837,62c50e9c1127f2cd403a315f,0,97,97,42,1,twoone,,,,,,,,,,,,,,,,,,,,,,,,,,,,,,,,,,,,,,,,,,,,,,,,,,,,,,,,,,,,,,,,,,,,,,,,,,,,,,,,,,,,,,,,,,,,,,,,,,,,,,,,,,,,,,,,,,,,,,,,,,,,,,,,,,,,,,,,,,,,,,,,,,,,,,,,,,,,,
,,,,,,5eb331bc1f70081249e6fb7a,62c539b4a9a7a237c3f6d3fa,2022-07-06_08h34.07.284,Colour_Asymmetry_Pilot,2022.1.3,Win32,59.95203837,62c50e9c1127f2cd403a315f,0,98,98,11,1,twofour,,,,,,,,,,,,,,,,,,,,,,,,,,,,,,,,,,,,,,,,,,,,,,,,,,,,,,,,,,,,,,,,,,,,,,,,,,,,,,,,,,,,,,,,,,,,,,,,,,,,,,,,,,,,,,,,,,,,,,,,,,,,,,,,,,,,,,,,,,,,,,,,,,,,,,,,,,,,,
,,,,,,5eb331bc1f70081249e6fb7a,62c539b4a9a7a237c3f6d3fa,2022-07-06_08h34.07.284,Colour_Asymmetry_Pilot,2022.1.3,Win32,59.95203837,62c50e9c1127f2cd403a315f,0,99,99,106,1,twoone,,,,,,,,,,,,,,,,,,,,,,,,,,,,,,,,,,,,,,,,,,,,,,,,,,,,,,,,,,,,,,,,,,,,,,,,,,,,,,,,,,,,,,,,,,,,,,,,,,,,,,,,,,,,,,,,,,,,,,,,,,,,,,,,,,,,,,,,,,,,,,,,,,,,,,,,,,,,,
,,,,,,5eb331bc1f70081249e6fb7a,62c539b4a9a7a237c3f6d3fa,2022-07-06_08h34.07.284,Colour_Asymmetry_Pilot,2022.1.3,Win32,59.95203837,62c50e9c1127f2cd403a315f,0,100,100,2,1,twoone,,,,,,,,,,,,,,,,,,,,,,,,,,,,,,,,,,,,,,,,,,,,,,,,,,,,,,,,,,,,,,,,,,,,,,,,,,,,,,,,,,,,,,,,,,,,,,,,,,,,,,,,,,,,,,,,,,,,,,,,,,,,,,,,,,,,,,,,,,,,,,,,,,,,,,,,,,,,,
,,,,,,5eb331bc1f70081249e6fb7a,62c539b4a9a7a237c3f6d3fa,2022-07-06_08h34.07.284,Colour_Asymmetry_Pilot,2022.1.3,Win32,59.95203837,62c50e9c1127f2cd403a315f,0,101,101,34,1,twoone,,,,,,,,,,,,,,,,,,,,,,,,,,,,,,,,,,,,,,,,,,,,,,,,,,,,,,,,,,,,,,,,,,,,,,,,,,,,,,,,,,,,,,,,,,,,,,,,,,,,,,,,,,,,,,,,,,,,,,,,,,,,,,,,,,,,,,,,,,,,,,,,,,,,,,,,,,,,,
,,,,,,5eb331bc1f70081249e6fb7a,62c539b4a9a7a237c3f6d3fa,2022-07-06_08h34.07.284,Colour_Asymmetry_Pilot,2022.1.3,Win32,59.95203837,62c50e9c1127f2cd403a315f,0,102,102,157,1,threefour,,,,,,,,,,,,,,,,,,,,,,,,,,,,,,,,,,,,,,,,,,,,,,,,,,,,,,,,,,,,,,,,,,,,,,,,,,,,,,,,,,,,,,,,,,,,,,,,,,,,,,,,,,,,,,,,,,,,,,,,,,,,,,,,,,,,,,,,,,,,,,,,,,,,,,,,,,,,,
,,,,,,5eb331bc1f70081249e6fb7a,62c539b4a9a7a237c3f6d3fa,2022-07-06_08h34.07.284,Colour_Asymmetry_Pilot,2022.1.3,Win32,59.95203837,62c50e9c1127f2cd403a315f,0,103,103,110,1,fourtwo,,,,,,,,,,,,,,,,,,,,,,,,,,,,,,,,,,,,,,,,,,,,,,,,,,,,,,,,,,,,,,,,,,,,,,,,,,,,,,,,,,,,,,,,,,,,,,,,,,,,,,,,,,,,,,,,,,,,,,,,,,,,,,,,,,,,,,,,,,,,,,,,,,,,,,,,,,,,,
,,,,,,5eb331bc1f70081249e6fb7a,62c539b4a9a7a237c3f6d3fa,2022-07-06_08h34.07.284,Colour_Asymmetry_Pilot,2022.1.3,Win32,59.95203837,62c50e9c1127f2cd403a315f,0,104,104,60,1,threeone,,,,,,,,,,,,,,,,,,,,,,,,,,,,,,,,,,,,,,,,,,,,,,,,,,,,,,,,,,,,,,,,,,,,,,,,,,,,,,,,,,,,,,,,,,,,,,,,,,,,,,,,,,,,,,,,,,,,,,,,,,,,,,,,,,,,,,,,,,,,,,,,,,,,,,,,,,,,,
,,,,,,5eb331bc1f70081249e6fb7a,62c539b4a9a7a237c3f6d3fa,2022-07-06_08h34.07.284,Colour_Asymmetry_Pilot,2022.1.3,Win32,59.95203837,62c50e9c1127f2cd403a315f,0,105,105,38,1,fourtwo,,,,,,,,,,,,,,,,,,,,,,,,,,,,,,,,,,,,,,,,,,,,,,,,,,,,,,,,,,,,,,,,,,,,,,,,,,,,,,,,,,,,,,,,,,,,,,,,,,,,,,,,,,,,,,,,,,,,,,,,,,,,,,,,,,,,,,,,,,,,,,,,,,,,,,,,,,,,,
,,,,,,5eb331bc1f70081249e6fb7a,62c539b4a9a7a237c3f6d3fa,2022-07-06_08h34.07.284,Colour_Asymmetry_Pilot,2022.1.3,Win32,59.95203837,62c50e9c1127f2cd403a315f,0,106,106,47,1,fourthree,,,,,,,,,,,,,,,,,,,,,,,,,,,,,,,,,,,,,,,,,,,,,,,,,,,,,,,,,,,,,,,,,,,,,,,,,,,,,,,,,,,,,,,,,,,,,,,,,,,,,,,,,,,,,,,,,,,,,,,,,,,,,,,,,,,,,,,,,,,,,,,,,,,,,,,,,,,,,
,,,,,,5eb331bc1f70081249e6fb7a,62c539b4a9a7a237c3f6d3fa,2022-07-06_08h34.07.284,Colour_Asymmetry_Pilot,2022.1.3,Win32,59.95203837,62c50e9c1127f2cd403a315f,0,107,107,6,1,fourtwo,,,,,,,,,,,,,,,,,,,,,,,,,,,,,,,,,,,,,,,,,,,,,,,,,,,,,,,,,,,,,,,,,,,,,,,,,,,,,,,,,,,,,,,,,,,,,,,,,,,,,,,,,,,,,,,,,,,,,,,,,,,,,,,,,,,,,,,,,,,,,,,,,,,,,,,,,,,,,
,,,,,,5eb331bc1f70081249e6fb7a,62c539b4a9a7a237c3f6d3fa,2022-07-06_08h34.07.284,Colour_Asymmetry_Pilot,2022.1.3,Win32,59.95203837,62c50e9c1127f2cd403a315f,0,108,108,105,1,onethree,,,,,,,,,,,,,,,,,,,,,,,,,,,,,,,,,,,,,,,,,,,,,,,,,,,,,,,,,,,,,,,,,,,,,,,,,,,,,,,,,,,,,,,,,,,,,,,,,,,,,,,,,,,,,,,,,,,,,,,,,,,,,,,,,,,,,,,,,,,,,,,,,,,,,,,,,,,,,
,,,,,,5eb331bc1f70081249e6fb7a,62c539b4a9a7a237c3f6d3fa,2022-07-06_08h34.07.284,Colour_Asymmetry_Pilot,2022.1.3,Win32,59.95203837,62c50e9c1127f2cd403a315f,0,109,109,17,1,onethree,,,,,,,,,,,,,,,,,,,,,,,,,,,,,,,,,,,,,,,,,,,,,,,,,,,,,,,,,,,,,,,,,,,,,,,,,,,,,,,,,,,,,,,,,,,,,,,,,,,,,,,,,,,,,,,,,,,,,,,,,,,,,,,,,,,,,,,,,,,,,,,,,,,,,,,,,,,,,
,,,,,,5eb331bc1f70081249e6fb7a,62c539b4a9a7a237c3f6d3fa,2022-07-06_08h34.07.284,Colour_Asymmetry_Pilot,2022.1.3,Win32,59.95203837,62c50e9c1127f2cd403a315f,0,110,110,43,1,twofour,,,,,,,,,,,,,,,,,,,,,,,,,,,,,,,,,,,,,,,,,,,,,,,,,,,,,,,,,,,,,,,,,,,,,,,,,,,,,,,,,,,,,,,,,,,,,,,,,,,,,,,,,,,,,,,,,,,,,,,,,,,,,,,,,,,,,,,,,,,,,,,,,,,,,,,,,,,,,
,,,,,,5eb331bc1f70081249e6fb7a,62c539b4a9a7a237c3f6d3fa,2022-07-06_08h34.07.284,Colour_Asymmetry_Pilot,2022.1.3,Win32,59.95203837,62c50e9c1127f2cd403a315f,0,111,111,40,1,onetwo,,,,,,,,,,,,,,,,,,,,,,,,,,,,,,,,,,,,,,,,,,,,,,,,,,,,,,,,,,,,,,,,,,,,,,,,,,,,,,,,,,,,,,,,,,,,,,,,,,,,,,,,,,,,,,,,,,,,,,,,,,,,,,,,,,,,,,,,,,,,,,,,,,,,,,,,,,,,,
,,,,,,5eb331bc1f70081249e6fb7a,62c539b4a9a7a237c3f6d3fa,2022-07-06_08h34.07.284,Colour_Asymmetry_Pilot,2022.1.3,Win32,59.95203837,62c50e9c1127f2cd403a315f,0,112,112,90,1,twoone,,,,,,,,,,,,,,,,,,,,,,,,,,,,,,,,,,,,,,,,,,,,,,,,,,,,,,,,,,,,,,,,,,,,,,,,,,,,,,,,,,,,,,,,,,,,,,,,,,,,,,,,,,,,,,,,,,,,,,,,,,,,,,,,,,,,,,,,,,,,,,,,,,,,,,,,,,,,,
,,,,,,5eb331bc1f70081249e6fb7a,62c539b4a9a7a237c3f6d3fa,2022-07-06_08h34.07.284,Colour_Asymmetry_Pilot,2022.1.3,Win32,59.95203837,62c50e9c1127f2cd403a315f,0,113,113,83,1,twofour,,,,,,,,,,,,,,,,,,,,,,,,,,,,,,,,,,,,,,,,,,,,,,,,,,,,,,,,,,,,,,,,,,,,,,,,,,,,,,,,,,,,,,,,,,,,,,,,,,,,,,,,,,,,,,,,,,,,,,,,,,,,,,,,,,,,,,,,,,,,,,,,,,,,,,,,,,,,,
,,,,,,5eb331bc1f70081249e6fb7a,62c539b4a9a7a237c3f6d3fa,2022-07-06_08h34.07.284,Colour_Asymmetry_Pilot,2022.1.3,Win32,59.95203837,62c50e9c1127f2cd403a315f,0,114,114,146,1,twoone,,,,,,,,,,,,,,,,,,,,,,,,,,,,,,,,,,,,,,,,,,,,,,,,,,,,,,,,,,,,,,,,,,,,,,,,,,,,,,,,,,,,,,,,,,,,,,,,,,,,,,,,,,,,,,,,,,,,,,,,,,,,,,,,,,,,,,,,,,,,,,,,,,,,,,,,,,,,,
,,,,,,5eb331bc1f70081249e6fb7a,62c539b4a9a7a237c3f6d3fa,2022-07-06_08h34.07.284,Colour_Asymmetry_Pilot,2022.1.3,Win32,59.95203837,62c50e9c1127f2cd403a315f,0,115,115,1,1,onethree,,,,,,,,,,,,,,,,,,,,,,,,,,,,,,,,,,,,,,,,,,,,,,,,,,,,,,,,,,,,,,,,,,,,,,,,,,,,,,,,,,,,,,,,,,,,,,,,,,,,,,,,,,,,,,,,,,,,,,,,,,,,,,,,,,,,,,,,,,,,,,,,,,,,,,,,,,,,,
,,,,,,5eb331bc1f70081249e6fb7a,62c539b4a9a7a237c3f6d3fa,2022-07-06_08h34.07.284,Colour_Asymmetry_Pilot,2022.1.3,Win32,59.95203837,62c50e9c1127f2cd403a315f,0,116,116,14,1,fourtwo,,,,,,,,,,,,,,,,,,,,,,,,,,,,,,,,,,,,,,,,,,,,,,,,,,,,,,,,,,,,,,,,,,,,,,,,,,,,,,,,,,,,,,,,,,,,,,,,,,,,,,,,,,,,,,,,,,,,,,,,,,,,,,,,,,,,,,,,,,,,,,,,,,,,,,,,,,,,,
,,,,,,5eb331bc1f70081249e6fb7a,62c539b4a9a7a237c3f6d3fa,2022-07-06_08h34.07.284,Colour_Asymmetry_Pilot,2022.1.3,Win32,59.95203837,62c50e9c1127f2cd403a315f,0,117,117,156,1,threeone,,,,,,,,,,,,,,,,,,,,,,,,,,,,,,,,,,,,,,,,,,,,,,,,,,,,,,,,,,,,,,,,,,,,,,,,,,,,,,,,,,,,,,,,,,,,,,,,,,,,,,,,,,,,,,,,,,,,,,,,,,,,,,,,,,,,,,,,,,,,,,,,,,,,,,,,,,,,,
,,,,,,5eb331bc1f70081249e6fb7a,62c539b4a9a7a237c3f6d3fa,2022-07-06_08h34.07.284,Colour_Asymmetry_Pilot,2022.1.3,Win32,59.95203837,62c50e9c1127f2cd403a315f,0,118,118,155,1,twofour,,,,,,,,,,,,,,,,,,,,,,,,,,,,,,,,,,,,,,,,,,,,,,,,,,,,,,,,,,,,,,,,,,,,,,,,,,,,,,,,,,,,,,,,,,,,,,,,,,,,,,,,,,,,,,,,,,,,,,,,,,,,,,,,,,,,,,,,,,,,,,,,,,,,,,,,,,,,,
,,,,,,5eb331bc1f70081249e6fb7a,62c539b4a9a7a237c3f6d3fa,2022-07-06_08h34.07.284,Colour_Asymmetry_Pilot,2022.1.3,Win32,59.95203837,62c50e9c1127f2cd403a315f,0,119,119,159,1,fourthree,,,,,,,,,,,,,,,,,,,,,,,,,,,,,,,,,,,,,,,,,,,,,,,,,,,,,,,,,,,,,,,,,,,,,,,,,,,,,,,,,,,,,,,,,,,,,,,,,,,,,,,,,,,,,,,,,,,,,,,,,,,,,,,,,,,,,,,,,,,,,,,,,,,,,,,,,,,,,
,,,,,,5eb331bc1f70081249e6fb7a,62c539b4a9a7a237c3f6d3fa,2022-07-06_08h34.07.284,Colour_Asymmetry_Pilot,2022.1.3,Win32,59.95203837,62c50e9c1127f2cd403a315f,0,120,120,63,1,fourthree,,,,,,,,,,,,,,,,,,,,,,,,,,,,,,,,,,,,,,,,,,,,,,,,,,,,,,,,,,,,,,,,,,,,,,,,,,,,,,,,,,,,,,,,,,,,,,,,,,,,,,,,,,,,,,,,,,,,,,,,,,,,,,,,,,,,,,,,,,,,,,,,,,,,,,,,,,,,,
,,,,,,5eb331bc1f70081249e6fb7a,62c539b4a9a7a237c3f6d3fa,2022-07-06_08h34.07.284,Colour_Asymmetry_Pilot,2022.1.3,Win32,59.95203837,62c50e9c1127f2cd403a315f,0,121,121,75,1,twofour,,,,,,,,,,,,,,,,,,,,,,,,,,,,,,,,,,,,,,,,,,,,,,,,,,,,,,,,,,,,,,,,,,,,,,,,,,,,,,,,,,,,,,,,,,,,,,,,,,,,,,,,,,,,,,,,,,,,,,,,,,,,,,,,,,,,,,,,,,,,,,,,,,,,,,,,,,,,,
,,,,,,5eb331bc1f70081249e6fb7a,62c539b4a9a7a237c3f6d3fa,2022-07-06_08h34.07.284,Colour_Asymmetry_Pilot,2022.1.3,Win32,59.95203837,62c50e9c1127f2cd403a315f,0,122,122,36,1,threeone,,,,,,,,,,,,,,,,,,,,,,,,,,,,,,,,,,,,,,,,,,,,,,,,,,,,,,,,,,,,,,,,,,,,,,,,,,,,,,,,,,,,,,,,,,,,,,,,,,,,,,,,,,,,,,,,,,,,,,,,,,,,,,,,,,,,,,,,,,,,,,,,,,,,,,,,,,,,,
,,,,,,5eb331bc1f70081249e6fb7a,62c539b4a9a7a237c3f6d3fa,2022-07-06_08h34.07.284,Colour_Asymmetry_Pilot,2022.1.3,Win32,59.95203837,62c50e9c1127f2cd403a315f,0,123,123,140,1,threeone,,,,,,,,,,,,,,,,,,,,,,,,,,,,,,,,,,,,,,,,,,,,,,,,,,,,,,,,,,,,,,,,,,,,,,,,,,,,,,,,,,,,,,,,,,,,,,,,,,,,,,,,,,,,,,,,,,,,,,,,,,,,,,,,,,,,,,,,,,,,,,,,,,,,,,,,,,,,,
,,,,,,5eb331bc1f70081249e6fb7a,62c539b4a9a7a237c3f6d3fa,2022-07-06_08h34.07.284,Colour_Asymmetry_Pilot,2022.1.3,Win32,59.95203837,62c50e9c1127f2cd403a315f,0,124,124,139,1,twofour,,,,,,,,,,,,,,,,,,,,,,,,,,,,,,,,,,,,,,,,,,,,,,,,,,,,,,,,,,,,,,,,,,,,,,,,,,,,,,,,,,,,,,,,,,,,,,,,,,,,,,,,,,,,,,,,,,,,,,,,,,,,,,,,,,,,,,,,,,,,,,,,,,,,,,,,,,,,,
,,,,,,5eb331bc1f70081249e6fb7a,62c539b4a9a7a237c3f6d3fa,2022-07-06_08h34.07.284,Colour_Asymmetry_Pilot,2022.1.3,Win32,59.95203837,62c50e9c1127f2cd403a315f,0,125,125,12,1,threeone,,,,,,,,,,,,,,,,,,,,,,,,,,,,,,,,,,,,,,,,,,,,,,,,,,,,,,,,,,,,,,,,,,,,,,,,,,,,,,,,,,,,,,,,,,,,,,,,,,,,,,,,,,,,,,,,,,,,,,,,,,,,,,,,,,,,,,,,,,,,,,,,,,,,,,,,,,,,,
,,,,,,5eb331bc1f70081249e6fb7a,62c539b4a9a7a237c3f6d3fa,2022-07-06_08h34.07.284,Colour_Asymmetry_Pilot,2022.1.3,Win32,59.95203837,62c50e9c1127f2cd403a315f,0,126,126,158,1,fourtwo,,,,,,,,,,,,,,,,,,,,,,,,,,,,,,,,,,,,,,,,,,,,,,,,,,,,,,,,,,,,,,,,,,,,,,,,,,,,,,,,,,,,,,,,,,,,,,,,,,,,,,,,,,,,,,,,,,,,,,,,,,,,,,,,,,,,,,,,,,,,,,,,,,,,,,,,,,,,,
,,,,,,5eb331bc1f70081249e6fb7a,62c539b4a9a7a237c3f6d3fa,2022-07-06_08h34.07.284,Colour_Asymmetry_Pilot,2022.1.3,Win32,59.95203837,62c50e9c1127f2cd403a315f,0,127,127,84,1,threeone,,,,,,,,,,,,,,,,,,,,,,,,,,,,,,,,,,,,,,,,,,,,,,,,,,,,,,,,,,,,,,,,,,,,,,,,,,,,,,,,,,,,,,,,,,,,,,,,,,,,,,,,,,,,,,,,,,,,,,,,,,,,,,,,,,,,,,,,,,,,,,,,,,,,,,,,,,,,,
,,,,,,5eb331bc1f70081249e6fb7a,62c539b4a9a7a237c3f6d3fa,2022-07-06_08h34.07.284,Colour_Asymmetry_Pilot,2022.1.3,Win32,59.95203837,62c50e9c1127f2cd403a315f,0,128,128,96,1,onetwo,,,,,,,,,,,,,,,,,,,,,,,,,,,,,,,,,,,,,,,,,,,,,,,,,,,,,,,,,,,,,,,,,,,,,,,,,,,,,,,,,,,,,,,,,,,,,,,,,,,,,,,,,,,,,,,,,,,,,,,,,,,,,,,,,,,,,,,,,,,,,,,,,,,,,,,,,,,,,
,,,,,,5eb331bc1f70081249e6fb7a,62c539b4a9a7a237c3f6d3fa,2022-07-06_08h34.07.284,Colour_Asymmetry_Pilot,2022.1.3,Win32,59.95203837,62c50e9c1127f2cd403a315f,0,129,129,46,1,fourtwo,,,,,,,,,,,,,,,,,,,,,,,,,,,,,,,,,,,,,,,,,,,,,,,,,,,,,,,,,,,,,,,,,,,,,,,,,,,,,,,,,,,,,,,,,,,,,,,,,,,,,,,,,,,,,,,,,,,,,,,,,,,,,,,,,,,,,,,,,,,,,,,,,,,,,,,,,,,,,
,,,,,,5eb331bc1f70081249e6fb7a,62c539b4a9a7a237c3f6d3fa,2022-07-06_08h34.07.284,Colour_Asymmetry_Pilot,2022.1.3,Win32,59.95203837,62c50e9c1127f2cd403a315f,0,130,130,119,1,fourthree,,,,,,,,,,,,,,,,,,,,,,,,,,,,,,,,,,,,,,,,,,,,,,,,,,,,,,,,,,,,,,,,,,,,,,,,,,,,,,,,,,,,,,,,,,,,,,,,,,,,,,,,,,,,,,,,,,,,,,,,,,,,,,,,,,,,,,,,,,,,,,,,,,,,,,,,,,,,,
,,,,,,5eb331bc1f70081249e6fb7a,62c539b4a9a7a237c3f6d3fa,2022-07-06_08h34.07.284,Colour_Asymmetry_Pilot,2022.1.3,Win32,59.95203837,62c50e9c1127f2cd403a315f,0,131,131,143,1,fourthree,,,,,,,,,,,,,,,,,,,,,,,,,,,,,,,,,,,,,,,,,,,,,,,,,,,,,,,,,,,,,,,,,,,,,,,,,,,,,,,,,,,,,,,,,,,,,,,,,,,,,,,,,,,,,,,,,,,,,,,,,,,,,,,,,,,,,,,,,,,,,,,,,,,,,,,,,,,,,
,,,,,,5eb331bc1f70081249e6fb7a,62c539b4a9a7a237c3f6d3fa,2022-07-06_08h34.07.284,Colour_Asymmetry_Pilot,2022.1.3,Win32,59.95203837,62c50e9c1127f2cd403a315f,0,132,132,50,1,twoone,,,,,,,,,,,,,,,,,,,,,,,,,,,,,,,,,,,,,,,,,,,,,,,,,,,,,,,,,,,,,,,,,,,,,,,,,,,,,,,,,,,,,,,,,,,,,,,,,,,,,,,,,,,,,,,,,,,,,,,,,,,,,,,,,,,,,,,,,,,,,,,,,,,,,,,,,,,,,
,,,,,,5eb331bc1f70081249e6fb7a,62c539b4a9a7a237c3f6d3fa,2022-07-06_08h34.07.284,Colour_Asymmetry_Pilot,2022.1.3,Win32,59.95203837,62c50e9c1127f2cd403a315f,0,133,133,23,1,fourthree,,,,,,,,,,,,,,,,,,,,,,,,,,,,,,,,,,,,,,,,,,,,,,,,,,,,,,,,,,,,,,,,,,,,,,,,,,,,,,,,,,,,,,,,,,,,,,,,,,,,,,,,,,,,,,,,,,,,,,,,,,,,,,,,,,,,,,,,,,,,,,,,,,,,,,,,,,,,,
,,,,,,5eb331bc1f70081249e6fb7a,62c539b4a9a7a237c3f6d3fa,2022-07-06_08h34.07.284,Colour_Asymmetry_Pilot,2022.1.3,Win32,59.95203837,62c50e9c1127f2cd403a315f,0,134,134,48,1,onetwo,,,,,,,,,,,,,,,,,,,,,,,,,,,,,,,,,,,,,,,,,,,,,,,,,,,,,,,,,,,,,,,,,,,,,,,,,,,,,,,,,,,,,,,,,,,,,,,,,,,,,,,,,,,,,,,,,,,,,,,,,,,,,,,,,,,,,,,,,,,,,,,,,,,,,,,,,,,,,
,,,,,,5eb331bc1f70081249e6fb7a,62c539b4a9a7a237c3f6d3fa,2022-07-06_08h34.07.284,Colour_Asymmetry_Pilot,2022.1.3,Win32,59.95203837,62c50e9c1127f2cd403a315f,0,135,135,108,1,threeone,,,,,,,,,,,,,,,,,,,,,,,,,,,,,,,,,,,,,,,,,,,,,,,,,,,,,,,,,,,,,,,,,,,,,,,,,,,,,,,,,,,,,,,,,,,,,,,,,,,,,,,,,,,,,,,,,,,,,,,,,,,,,,,,,,,,,,,,,,,,,,,,,,,,,,,,,,,,,
,,,,,,5eb331bc1f70081249e6fb7a,62c539b4a9a7a237c3f6d3fa,2022-07-06_08h34.07.284,Colour_Asymmetry_Pilot,2022.1.3,Win32,59.95203837,62c50e9c1127f2cd403a315f,0,136,136,128,1,onetwo,,,,,,,,,,,,,,,,,,,,,,,,,,,,,,,,,,,,,,,,,,,,,,,,,,,,,,,,,,,,,,,,,,,,,,,,,,,,,,,,,,,,,,,,,,,,,,,,,,,,,,,,,,,,,,,,,,,,,,,,,,,,,,,,,,,,,,,,,,,,,,,,,,,,,,,,,,,,,
,,,,,,5eb331bc1f70081249e6fb7a,62c539b4a9a7a237c3f6d3fa,2022-07-06_08h34.07.284,Colour_Asymmetry_Pilot,2022.1.3,Win32,59.95203837,62c50e9c1127f2cd403a315f,0,137,137,148,1,threeone,,,,,,,,,,,,,,,,,,,,,,,,,,,,,,,,,,,,,,,,,,,,,,,,,,,,,,,,,,,,,,,,,,,,,,,,,,,,,,,,,,,,,,,,,,,,,,,,,,,,,,,,,,,,,,,,,,,,,,,,,,,,,,,,,,,,,,,,,,,,,,,,,,,,,,,,,,,,,
,,,,,,5eb331bc1f70081249e6fb7a,62c539b4a9a7a237c3f6d3fa,2022-07-06_08h34.07.284,Colour_Asymmetry_Pilot,2022.1.3,Win32,59.95203837,62c50e9c1127f2cd403a315f,0,138,138,117,1,threefour,,,,,,,,,,,,,,,,,,,,,,,,,,,,,,,,,,,,,,,,,,,,,,,,,,,,,,,,,,,,,,,,,,,,,,,,,,,,,,,,,,,,,,,,,,,,,,,,,,,,,,,,,,,,,,,,,,,,,,,,,,,,,,,,,,,,,,,,,,,,,,,,,,,,,,,,,,,,,
,,,,,,5eb331bc1f70081249e6fb7a,62c539b4a9a7a237c3f6d3fa,2022-07-06_08h34.07.284,Colour_Asymmetry_Pilot,2022.1.3,Win32,59.95203837,62c50e9c1127f2cd403a315f,0,139,139,124,1,threeone,,,,,,,,,,,,,,,,,,,,,,,,,,,,,,,,,,,,,,,,,,,,,,,,,,,,,,,,,,,,,,,,,,,,,,,,,,,,,,,,,,,,,,,,,,,,,,,,,,,,,,,,,,,,,,,,,,,,,,,,,,,,,,,,,,,,,,,,,,,,,,,,,,,,,,,,,,,,,
,,,,,,5eb331bc1f70081249e6fb7a,62c539b4a9a7a237c3f6d3fa,2022-07-06_08h34.07.284,Colour_Asymmetry_Pilot,2022.1.3,Win32,59.95203837,62c50e9c1127f2cd403a315f,0,140,140,31,1,fourthree,,,,,,,,,,,,,,,,,,,,,,,,,,,,,,,,,,,,,,,,,,,,,,,,,,,,,,,,,,,,,,,,,,,,,,,,,,,,,,,,,,,,,,,,,,,,,,,,,,,,,,,,,,,,,,,,,,,,,,,,,,,,,,,,,,,,,,,,,,,,,,,,,,,,,,,,,,,,,
,,,,,,5eb331bc1f70081249e6fb7a,62c539b4a9a7a237c3f6d3fa,2022-07-06_08h34.07.284,Colour_Asymmetry_Pilot,2022.1.3,Win32,59.95203837,62c50e9c1127f2cd403a315f,0,141,141,30,1,fourtwo,,,,,,,,,,,,,,,,,,,,,,,,,,,,,,,,,,,,,,,,,,,,,,,,,,,,,,,,,,,,,,,,,,,,,,,,,,,,,,,,,,,,,,,,,,,,,,,,,,,,,,,,,,,,,,,,,,,,,,,,,,,,,,,,,,,,,,,,,,,,,,,,,,,,,,,,,,,,,
,,,,,,5eb331bc1f70081249e6fb7a,62c539b4a9a7a237c3f6d3fa,2022-07-06_08h34.07.284,Colour_Asymmetry_Pilot,2022.1.3,Win32,59.95203837,62c50e9c1127f2cd403a315f,0,142,142,137,1,onethree,,,,,,,,,,,,,,,,,,,,,,,,,,,,,,,,,,,,,,,,,,,,,,,,,,,,,,,,,,,,,,,,,,,,,,,,,,,,,,,,,,,,,,,,,,,,,,,,,,,,,,,,,,,,,,,,,,,,,,,,,,,,,,,,,,,,,,,,,,,,,,,,,,,,,,,,,,,,,
,,,,,,5eb331bc1f70081249e6fb7a,62c539b4a9a7a237c3f6d3fa,2022-07-06_08h34.07.284,Colour_Asymmetry_Pilot,2022.1.3,Win32,59.95203837,62c50e9c1127f2cd403a315f,0,143,143,126,1,fourtwo,,,,,,,,,,,,,,,,,,,,,,,,,,,,,,,,,,,,,,,,,,,,,,,,,,,,,,,,,,,,,,,,,,,,,,,,,,,,,,,,,,,,,,,,,,,,,,,,,,,,,,,,,,,,,,,,,,,,,,,,,,,,,,,,,,,,,,,,,,,,,,,,,,,,,,,,,,,,,
,,,,,,5eb331bc1f70081249e6fb7a,62c539b4a9a7a237c3f6d3fa,2022-07-06_08h34.07.284,Colour_Asymmetry_Pilot,2022.1.3,Win32,59.95203837,62c50e9c1127f2cd403a315f,0,144,144,127,1,fourthree,,,,,,,,,,,,,,,,,,,,,,,,,,,,,,,,,,,,,,,,,,,,,,,,,,,,,,,,,,,,,,,,,,,,,,,,,,,,,,,,,,,,,,,,,,,,,,,,,,,,,,,,,,,,,,,,,,,,,,,,,,,,,,,,,,,,,,,,,,,,,,,,,,,,,,,,,,,,,
,,,,,,5eb331bc1f70081249e6fb7a,62c539b4a9a7a237c3f6d3fa,2022-07-06_08h34.07.284,Colour_Asymmetry_Pilot,2022.1.3,Win32,59.95203837,62c50e9c1127f2cd403a315f,0,145,145,72,1,onetwo,,,,,,,,,,,,,,,,,,,,,,,,,,,,,,,,,,,,,,,,,,,,,,,,,,,,,,,,,,,,,,,,,,,,,,,,,,,,,,,,,,,,,,,,,,,,,,,,,,,,,,,,,,,,,,,,,,,,,,,,,,,,,,,,,,,,,,,,,,,,,,,,,,,,,,,,,,,,,
,,,,,,5eb331bc1f70081249e6fb7a,62c539b4a9a7a237c3f6d3fa,2022-07-06_08h34.07.284,Colour_Asymmetry_Pilot,2022.1.3,Win32,59.95203837,62c50e9c1127f2cd403a315f,0,146,146,69,1,threefour,,,,,,,,,,,,,,,,,,,,,,,,,,,,,,,,,,,,,,,,,,,,,,,,,,,,,,,,,,,,,,,,,,,,,,,,,,,,,,,,,,,,,,,,,,,,,,,,,,,,,,,,,,,,,,,,,,,,,,,,,,,,,,,,,,,,,,,,,,,,,,,,,,,,,,,,,,,,,
,,,,,,5eb331bc1f70081249e6fb7a,62c539b4a9a7a237c3f6d3fa,2022-07-06_08h34.07.284,Colour_Asymmetry_Pilot,2022.1.3,Win32,59.95203837,62c50e9c1127f2cd403a315f,0,147,147,120,1,onetwo,,,,,,,,,,,,,,,,,,,,,,,,,,,,,,,,,,,,,,,,,,,,,,,,,,,,,,,,,,,,,,,,,,,,,,,,,,,,,,,,,,,,,,,,,,,,,,,,,,,,,,,,,,,,,,,,,,,,,,,,,,,,,,,,,,,,,,,,,,,,,,,,,,,,,,,,,,,,,
,,,,,,5eb331bc1f70081249e6fb7a,62c539b4a9a7a237c3f6d3fa,2022-07-06_08h34.07.284,Colour_Asymmetry_Pilot,2022.1.3,Win32,59.95203837,62c50e9c1127f2cd403a315f,0,148,148,142,1,fourtwo,,,,,,,,,,,,,,,,,,,,,,,,,,,,,,,,,,,,,,,,,,,,,,,,,,,,,,,,,,,,,,,,,,,,,,,,,,,,,,,,,,,,,,,,,,,,,,,,,,,,,,,,,,,,,,,,,,,,,,,,,,,,,,,,,,,,,,,,,,,,,,,,,,,,,,,,,,,,,
,,,,,,5eb331bc1f70081249e6fb7a,62c539b4a9a7a237c3f6d3fa,2022-07-06_08h34.07.284,Colour_Asymmetry_Pilot,2022.1.3,Win32,59.95203837,62c50e9c1127f2cd403a315f,0,149,149,9,1,onethree,,,,,,,,,,,,,,,,,,,,,,,,,,,,,,,,,,,,,,,,,,,,,,,,,,,,,,,,,,,,,,,,,,,,,,,,,,,,,,,,,,,,,,,,,,,,,,,,,,,,,,,,,,,,,,,,,,,,,,,,,,,,,,,,,,,,,,,,,,,,,,,,,,,,,,,,,,,,,
,,,,,,5eb331bc1f70081249e6fb7a,62c539b4a9a7a237c3f6d3fa,2022-07-06_08h34.07.284,Colour_Asymmetry_Pilot,2022.1.3,Win32,59.95203837,62c50e9c1127f2cd403a315f,0,150,150,33,1,onethree,,,,,,,,,,,,,,,,,,,,,,,,,,,,,,,,,,,,,,,,,,,,,,,,,,,,,,,,,,,,,,,,,,,,,,,,,,,,,,,,,,,,,,,,,,,,,,,,,,,,,,,,,,,,,,,,,,,,,,,,,,,,,,,,,,,,,,,,,,,,,,,,,,,,,,,,,,,,,
,,,,,,5eb331bc1f70081249e6fb7a,62c539b4a9a7a237c3f6d3fa,2022-07-06_08h34.07.284,Colour_Asymmetry_Pilot,2022.1.3,Win32,59.95203837,62c50e9c1127f2cd403a315f,0,151,151,141,1,threefour,,,,,,,,,,,,,,,,,,,,,,,,,,,,,,,,,,,,,,,,,,,,,,,,,,,,,,,,,,,,,,,,,,,,,,,,,,,,,,,,,,,,,,,,,,,,,,,,,,,,,,,,,,,,,,,,,,,,,,,,,,,,,,,,,,,,,,,,,,,,,,,,,,,,,,,,,,,,,
,,,,,,5eb331bc1f70081249e6fb7a,62c539b4a9a7a237c3f6d3fa,2022-07-06_08h34.07.284,Colour_Asymmetry_Pilot,2022.1.3,Win32,59.95203837,62c50e9c1127f2cd403a315f,0,152,152,153,1,onethree,,,,,,,,,,,,,,,,,,,,,,,,,,,,,,,,,,,,,,,,,,,,,,,,,,,,,,,,,,,,,,,,,,,,,,,,,,,,,,,,,,,,,,,,,,,,,,,,,,,,,,,,,,,,,,,,,,,,,,,,,,,,,,,,,,,,,,,,,,,,,,,,,,,,,,,,,,,,,
,,,,,,5eb331bc1f70081249e6fb7a,62c539b4a9a7a237c3f6d3fa,2022-07-06_08h34.07.284,Colour_Asymmetry_Pilot,2022.1.3,Win32,59.95203837,62c50e9c1127f2cd403a315f,0,153,153,21,1,threefour,,,,,,,,,,,,,,,,,,,,,,,,,,,,,,,,,,,,,,,,,,,,,,,,,,,,,,,,,,,,,,,,,,,,,,,,,,,,,,,,,,,,,,,,,,,,,,,,,,,,,,,,,,,,,,,,,,,,,,,,,,,,,,,,,,,,,,,,,,,,,,,,,,,,,,,,,,,,,
,,,,,,5eb331bc1f70081249e6fb7a,62c539b4a9a7a237c3f6d3fa,2022-07-06_08h34.07.284,Colour_Asymmetry_Pilot,2022.1.3,Win32,59.95203837,62c50e9c1127f2cd403a315f,0,154,154,35,1,twofour,,,,,,,,,,,,,,,,,,,,,,,,,,,,,,,,,,,,,,,,,,,,,,,,,,,,,,,,,,,,,,,,,,,,,,,,,,,,,,,,,,,,,,,,,,,,,,,,,,,,,,,,,,,,,,,,,,,,,,,,,,,,,,,,,,,,,,,,,,,,,,,,,,,,,,,,,,,,,
,,,,,,5eb331bc1f70081249e6fb7a,62c539b4a9a7a237c3f6d3fa,2022-07-06_08h34.07.284,Colour_Asymmetry_Pilot,2022.1.3,Win32,59.95203837,62c50e9c1127f2cd403a315f,0,155,155,151,1,fourthree,,,,,,,,,,,,,,,,,,,,,,,,,,,,,,,,,,,,,,,,,,,,,,,,,,,,,,,,,,,,,,,,,,,,,,,,,,,,,,,,,,,,,,,,,,,,,,,,,,,,,,,,,,,,,,,,,,,,,,,,,,,,,,,,,,,,,,,,,,,,,,,,,,,,,,,,,,,,,
,,,,,,5eb331bc1f70081249e6fb7a,62c539b4a9a7a237c3f6d3fa,2022-07-06_08h34.07.284,Colour_Asymmetry_Pilot,2022.1.3,Win32,59.95203837,62c50e9c1127f2cd403a315f,0,156,156,37,1,threefour,,,,,,,,,,,,,,,,,,,,,,,,,,,,,,,,,,,,,,,,,,,,,,,,,,,,,,,,,,,,,,,,,,,,,,,,,,,,,,,,,,,,,,,,,,,,,,,,,,,,,,,,,,,,,,,,,,,,,,,,,,,,,,,,,,,,,,,,,,,,,,,,,,,,,,,,,,,,,
,,,,,,5eb331bc1f70081249e6fb7a,62c539b4a9a7a237c3f6d3fa,2022-07-06_08h34.07.284,Colour_Asymmetry_Pilot,2022.1.3,Win32,59.95203837,62c50e9c1127f2cd403a315f,0,157,157,102,1,fourtwo,,,,,,,,,,,,,,,,,,,,,,,,,,,,,,,,,,,,,,,,,,,,,,,,,,,,,,,,,,,,,,,,,,,,,,,,,,,,,,,,,,,,,,,,,,,,,,,,,,,,,,,,,,,,,,,,,,,,,,,,,,,,,,,,,,,,,,,,,,,,,,,,,,,,,,,,,,,,,
,,,,,,5eb331bc1f70081249e6fb7a,62c539b4a9a7a237c3f6d3fa,2022-07-06_08h34.07.284,Colour_Asymmetry_Pilot,2022.1.3,Win32,59.95203837,62c50e9c1127f2cd403a315f,0,158,158,152,1,onetwo,,,,,,,,,,,,,,,,,,,,,,,,,,,,,,,,,,,,,,,,,,,,,,,,,,,,,,,,,,,,,,,,,,,,,,,,,,,,,,,,,,,,,,,,,,,,,,,,,,,,,,,,,,,,,,,,,,,,,,,,,,,,,,,,,,,,,,,,,,,,,,,,,,,,,,,,,,,,,
,,,,,,5eb331bc1f70081249e6fb7a,62c539b4a9a7a237c3f6d3fa,2022-07-06_08h34.07.284,Colour_Asymmetry_Pilot,2022.1.3,Win32,59.95203837,62c50e9c1127f2cd403a315f,0,159,159,132,1,threeone,,,,,,,,,,,,,,,,,,,,,,,,,,,,,,,,,,,,,,,,,,,,,,,,,,,,,,,,,,,,,,,,,,,,,,,,,,,,,,,,,,,,,,,,,,,,,,,,,,,,,,,,,,,,,,,,,,,,,,,,,,,,,,,,,,,,,,,,,,,,,,,,,,,,,,,,,,,,,
,,,,,,5eb331bc1f70081249e6fb7a,62c539b4a9a7a237c3f6d3fa,2022-07-06_08h34.07.284,Colour_Asymmetry_Pilot,2022.1.3,Win32,59.95203837,62c50e9c1127f2cd403a315f,0,160,160,78,1,fourtwo,,,,,,,,,,,,,,,,,,,,,,,,,,,,,,,,,,,,,,,,,,,,,,,,,,,,,,,,,,,,,,,,,,,,,,,,,,,,,,,,,,,,,,,,,,,,,,,,,,,,,,,,,,,,,,,,,,,,,,,,,,,,,,,,,,,,,,,,,,,,,,,,,,,,,,,,,,,,,
,,,,,,5eb331bc1f70081249e6fb7a,62c539b4a9a7a237c3f6d3fa,2022-07-06_08h34.07.284,Colour_Asymmetry_Pilot,2022.1.3,Win32,59.95203837,62c50e9c1127f2cd403a315f,0,161,161,5,1,threefour,,,,,,,,,,,,,,,,,,,,,,,,,,,,,,,,,,,,,,,,,,,,,,,,,,,,,,,,,,,,,,,,,,,,,,,,,,,,,,,,,,,,,,,,,,,,,,,,,,,,,,,,,,,,,,,,,,,,,,,,,,,,,,,,,,,,,,,,,,,,,,,,,,,,,,,,,,,,,
,,,,,,5eb331bc1f70081249e6fb7a,62c539b4a9a7a237c3f6d3fa,2022-07-06_08h34.07.284,Colour_Asymmetry_Pilot,2022.1.3,Win32,59.95203837,62c50e9c1127f2cd403a315f,,,,,,,space,2.367,space,1.453,space,0.469,space,1.138,space,3.37,space,2.773,"[-0.34920000000000007,-0.702,-0.5216]",twofour,"[0.23920000000000008,0.2704,0.16060000000000008]",1,8.039,25,-73,1,0,0,response3disk_5,1,5,1,0,0,rectangle_8,1,5,1,0,0,3,1,5,1,0,0,0,0,0,0,1,,,,,,,,,,,,,,,,,,,,,,,,,,,,,,,,,,,,,,,,,,,,,,,,,,,,,,,,,,,,,,,,,,,,,,,,,,,,,,,,,,,,,,,,,,,,,,,,,,,,,,,,,,,,,,,,
,,,,,,5eb331bc1f70081249e6fb7a,62c539b4a9a7a237c3f6d3fa,2022-07-06_08h34.07.284,Colour_Asymmetry_Pilot,2022.1.3,Win32,59.95203837,62c50e9c1127f2cd403a315f,,,,,,,,,,,,,,,,,,,"[0.4196,0.4665999999999999,0.3568]",onethree,"[0.2862,0.7802,0.3568]",3,7.004,80,41,1,0,0,response1disk_5,-8,1,1,0,0,rectangle_8,-8,1,1,0,0,3,-8,1,1,0,0,1,0,1,0,1,,,,,,,,,,,,,,,,,,,,,,,,,,,,,,,,,,,,,,,,,,,,,,,,,,,,,,,,,,,,,,,,,,,,,,,,,,,,,,,,,,,,,,,,,,,,,,,,,,,,,,,,,,,,,,,,
,,,,,,5eb331bc1f70081249e6fb7a,62c539b4a9a7a237c3f6d3fa,2022-07-06_08h34.07.284,Colour_Asymmetry_Pilot,2022.1.3,Win32,59.95203837,62c50e9c1127f2cd403a315f,,,,,,,,,,,,,,,,,,,"[-0.6,0.16860000000000008,0.44300000000000006]",onetwo,"[-0.5922000000000001,-0.7492000000000001,-0.5296000000000001]",2,2.218,100,-47,1,0,0,response3disk_5,1,-4,1,0,0,rectangle_8,85,47,1,0,0,3,8,2,1,0,0,2,0,2,0,1,response1disk_7,6,rectangle_4,,,,,,,,,,,,,,,,,,,,,,,,,,,,,,,,,,,,,,,,,,,,,,,,,,,,,,,,,,,,,,,,,,,,,,,,,,,,,,,,,,,,,,,,,,,,,,,,,,,,,,,,,,,,,
,,,,,,5eb331bc1f70081249e6fb7a,62c539b4a9a7a237c3f6d3fa,2022-07-06_08h34.07.284,Colour_Asymmetry_Pilot,2022.1.3,Win32,59.95203837,62c50e9c1127f2cd403a315f,,,,,,,,,,,,,,,,,,,"[0.8115999999999999,-0.0040000000000000036,-0.09819999999999995]",onethree,"[-0.9216,-0.5529999999999999,-0.3962]",-4,2.803,-42,60,1,0,0,response7disk_5,6,-7,1,0,0,rectangle_8,77,29,1,0,0,3,-9,3,1,0,0,3,0,3,0,1,response1disk_7,6,rectangle_4,,,,,,,,,,,,,,,,,,,,,,,,,,,,,,,,,,,,,,,,,,,,,,,,,,,,,,,,,,,,,,,,,,,,,,,,,,,,,,,,,,,,,,,,,,,,,,,,,,,,,,,,,,,,,
,,,,,,5eb331bc1f70081249e6fb7a,62c539b4a9a7a237c3f6d3fa,2022-07-06_08h34.07.284,Colour_Asymmetry_Pilot,2022.1.3,Win32,59.95203837,62c50e9c1127f2cd403a315f,,,,,,,,,,,,,,,,,,,"[-0.38039999999999996,-0.4276,-0.1452]",fourtwo,"[0.34099999999999997,0.12939999999999996,-0.9766]",-4,4.939,-45,82,1,0,0,response7disk_5,12,3,1,0,0,rectangle_8,12,3,1,0,0,3,12,3,1,0,0,4,0,4,0,1,,,,,,,,,,,,,,,,,,,,,,,,,,,,,,,,,,,,,,,,,,,,,,,,,,,,,,,,,,,,,,,,,,,,,,,,,,,,,,,,,,,,,,,,,,,,,,,,,,,,,,,,,,,,,,,,
,,,,,,5eb331bc1f70081249e6fb7a,62c539b4a9a7a237c3f6d3fa,2022-07-06_08h34.07.284,Colour_Asymmetry_Pilot,2022.1.3,Win32,59.95203837,62c50e9c1127f2cd403a315f,,,,,,,,,,,,,,,,,,,"[-0.24719999999999998,0.5213999999999999,-0.12959999999999994]",onethree,"[0.18419999999999992,-0.4276,-0.404]",-4,2.285,-26,65,1,0,0,response7disk_5,1,3,1,0,0,rectangle_8,1,3,1,0,0,3,1,3,1,0,0,5,0,5,0,1,,,,,,,,,,,,,,,,,,,,,,,,,,,,,,,,,,,,,,,,,,,,,,,,,,,,,,,,,,,,,,,,,,,,,,,,,,,,,,,,,,,,,,,,,,,,,,,,,,,,,,,,,,,,,,,,
,,,,,,5eb331bc1f70081249e6fb7a,62c539b4a9a7a237c3f6d3fa,2022-07-06_08h34.07.284,Colour_Asymmetry_Pilot,2022.1.3,Win32,59.95203837,62c50e9c1127f2cd403a315f,,,,,,,,,,,,,,,,,,,"[-0.7412000000000001,-0.08239999999999992,-0.6864]",onethree,"[0.7176,-0.906,-0.6864]",-4,1.102,-64,74,1,0,0,response7disk_5,10,4,1,0,0,rectangle_8,10,4,1,0,0,3,10,4,1,0,0,6,0,6,0,1,,,,,,,,,,,,,,,,,,,,,,,,,,,,,,,,,,,,,,,,,,,,,,,,,,,,,,,,,,,,,,,,,,,,,,,,,,,,,,,,,,,,,,,,,,,,,,,,,,,,,,,,,,,,,,,,
,,,,,,5eb331bc1f70081249e6fb7a,62c539b4a9a7a237c3f6d3fa,2022-07-06_08h34.07.284,Colour_Asymmetry_Pilot,2022.1.3,Win32,59.95203837,62c50e9c1127f2cd403a315f,,,,,,,,,,,,,,,,,,,,fourtwo,,-3,2.419,,,,,,,,,,,,,,,,,,,,,,,,,,,,,,,,space,26.392,"[0.7018,0.7176,0.6155999999999999]","[0.09799999999999986,-0.24719999999999998,0.15280000000000005]",-46,26,1,0,0,response7disk,4,-11,1,0,0,rectangle,4,-11,1,0,0,,2,0.003,0,4,-11,1,0,0,0,0,0,94,1,13,second,,,,,,,,,,,,,,,,,,,,,,,,,,,,,,,,,,,,,,,,,,,,,,,,,,,,,,,,,,,,,,,,,,,,,,,,
,,,,,,5eb331bc1f70081249e6fb7a,62c539b4a9a7a237c3f6d3fa,2022-07-06_08h34.07.284,Colour_Asymmetry_Pilot,2022.1.3,Win32,59.95203837,62c50e9c1127f2cd403a315f,,,,,,,,,,,,,,,,,,,,fourthree,,-4,1.667,,,,,,,,,,,,,,,,,,,,,,,,,,,,,,,,,,"[-0.30200000000000005,0.14500000000000002,0.2784]","[1,0.12939999999999996,-1]",-33,71,1,0,0,response7disk,-3,-4,1,0,0,rectangle,-3,-4,1,0,0,,1,0.002,0,-3,-4,1,0,0,0,1,1,95,1,14,second,,,,,,,,,,,,,,,,,,,,,,,,,,,,,,,,,,,,,,,,,,,,,,,,,,,,,,,,,,,,,,,,,,,,,,,,
,,,,,,5eb331bc1f70081249e6fb7a,62c539b4a9a7a237c3f6d3fa,2022-07-06_08h34.07.284,Colour_Asymmetry_Pilot,2022.1.3,Win32,59.95203837,62c50e9c1127f2cd403a315f,,,,,,,,,,,,,,,,,,,,twoone,,-4,0.834,,,,,,,,,,,,,,,,,,,,,,,,,,,,,,,,,,"[-0.6706000000000001,-0.6157999999999999,-0.6786]","[0.5528,0.7409999999999999,-0.71]",-42,80,1,0,0,response7disk,-7,1,1,0,0,rectangle,-7,1,1,0,0,,2,0.007,0,-7,1,1,0,0,0,2,2,146,1,65,second,,,,,,,,,,,,,,,,,,,,,,,,,,,,,,,,,,,,,,,,,,,,,,,,,,,,,,,,,,,,,,,,,,,,,,,,
,,,,,,5eb331bc1f70081249e6fb7a,62c539b4a9a7a237c3f6d3fa,2022-07-06_08h34.07.284,Colour_Asymmetry_Pilot,2022.1.3,Win32,59.95203837,62c50e9c1127f2cd403a315f,,,,,,,,,,,,,,,,,,,,fourtwo,,-4,0.467,,,,,,,,,,,,,,,,,,,,,,,,,,,,,,,,,,"[-0.2942,-0.24719999999999998,-0.357]","[0.6625999999999999,0.4980000000000002,-0.357]",-29,56,1,0,0,response7disk,5,0,1,0,0,rectangle,71,-41,1,0,0,2,2,3.286,1,-10,3,1,0,0,0,3,3,159,1,78,second,response3disk_3,rectangle,,,,,,,,,,,,,,,,,,,,,,,,,,,,,,,,,,,,,,,,,,,,,,,,,,,,,,,,,,,,,,,,,,,,,,
,,,,,,5eb331bc1f70081249e6fb7a,62c539b4a9a7a237c3f6d3fa,2022-07-06_08h34.07.284,Colour_Asymmetry_Pilot,2022.1.3,Win32,59.95203837,62c50e9c1127f2cd403a315f,,,,,,,,,,,,,,,,,,,,twoone,,1,1.467,,,,,,,,,,,,,,,,,,,,,,,,,,,,,,,,,,"[-0.011800000000000033,-0.906,-0.45100000000000007]","[-0.9688,-0.4902000000000001,-0.12159999999999993]",35,-83,1,0,0,response3disk,-4,10,1,0,0,rectangle,-4,10,1,0,0,2,2,0.001,0,-4,10,1,0,0,0,4,4,90,1,9,second,,,,,,,,,,,,,,,,,,,,,,,,,,,,,,,,,,,,,,,,,,,,,,,,,,,,,,,,,,,,,,,,,,,,,,,,
,,,,,,5eb331bc1f70081249e6fb7a,62c539b4a9a7a237c3f6d3fa,2022-07-06_08h34.07.284,Colour_Asymmetry_Pilot,2022.1.3,Win32,59.95203837,62c50e9c1127f2cd403a315f,,,,,,,,,,,,,,,,,,,,onetwo,,3,0.735,,,,,,,,,,,,,,,,,,,,,,,,,,,,,,,,,,"[0.9842,0.7409999999999999,-0.6628000000000001]","[0.796,0.2156,-0.27859999999999996]",86,49,1,0,0,response1disk,12,-6,1,0,0,rectangle,12,-6,1,0,0,2,3,0.002,0,12,-6,1,0,0,0,5,5,123,1,42,second,,,,,,,,,,,,,,,,,,,,,,,,,,,,,,,,,,,,,,,,,,,,,,,,,,,,,,,,,,,,,,,,,,,,,,,,
,,,,,,5eb331bc1f70081249e6fb7a,62c539b4a9a7a237c3f6d3fa,2022-07-06_08h34.07.284,Colour_Asymmetry_Pilot,2022.1.3,Win32,59.95203837,62c50e9c1127f2cd403a315f,,,,,,,,,,,,,,,,,,,,onethree,,-4,0.817,,,,,,,,,,,,,,,,,,,,,,,,,,,,,,,,,,"[0.34099999999999997,0.12939999999999996,-0.9766]","[-0.4668,-0.8746,-0.2942]",-44,62,1,0,0,response7disk,15,-2,1,0,0,rectangle,15,-2,1,0,0,2,2,0.002,0,15,-2,1,0,0,0,6,6,122,1,41,second,,,,,,,,,,,,,,,,,,,,,,,,,,,,,,,,,,,,,,,,,,,,,,,,,,,,,,,,,,,,,,,,,,,,,,,,
,,,,,,5eb331bc1f70081249e6fb7a,62c539b4a9a7a237c3f6d3fa,2022-07-06_08h34.07.284,Colour_Asymmetry_Pilot,2022.1.3,Win32,59.95203837,62c50e9c1127f2cd403a315f,,,,,,,,,,,,,,,,,,,,twoone,,-3,0.917,,,,,,,,,,,,,,,,,,,,,,,,,,,,,,,,,,"[-0.09019999999999995,0.44300000000000006,0.5371999999999999]","[0.7646000000000002,0.07440000000000002,0.2704]",-61,33,1,0,0,response7disk,-11,3,1,0,0,rectangle,-11,3,1,0,0,2,1,0.003,0,-11,3,1,0,0,0,7,7,79,1,79,first,,,,,,,,,,,,,,,,,,,,,,,,,,,,,,,,,,,,,,,,,,,,,,,,,,,,,,,,,,,,,,,,,,,,,,,,
,,,,,,5eb331bc1f70081249e6fb7a,62c539b4a9a7a237c3f6d3fa,2022-07-06_08h34.07.284,Colour_Asymmetry_Pilot,2022.1.3,Win32,59.95203837,62c50e9c1127f2cd403a315f,,,,,,,,,,,,,,,,,,,,onethree,,-3,0.733,,,,,,,,,,,,,,,,,,,,,,,,,,,,,,,,,,"[0.6547999999999998,-0.043199999999999905,-0.011800000000000033]","[-0.6942,-0.7648,-0.12959999999999994]",-115,55,1,0,0,response7disk,1,-4,1,0,0,rectangle,1,-4,1,0,0,2,1,0,0,1,-4,1,0,0,0,8,8,107,1,26,second,,,,,,,,,,,,,,,,,,,,,,,,,,,,,,,,,,,,,,,,,,,,,,,,,,,,,,,,,,,,,,,,,,,,,,,,
,,,,,,5eb331bc1f70081249e6fb7a,62c539b4a9a7a237c3f6d3fa,2022-07-06_08h34.07.284,Colour_Asymmetry_Pilot,2022.1.3,Win32,59.95203837,62c50e9c1127f2cd403a315f,,,,,,,,,,,,,,,,,,,,fourtwo,,2,2.834,,,,,,,,,,,,,,,,,,,,,,,,,,,,,,,,,,"[-0.48240000000000005,0.3175999999999999,0.2156]","[-0.5922000000000001,-0.7492000000000001,-0.5296000000000001]",86,-62,1,0,0,response3disk,-5,0,1,0,0,rectangle,-5,0,1,0,0,2,1,0,0,-5,0,1,0,0,0,9,9,81,1,0,second,,,,,,,,,,,,,,,,,,,,,,,,,,,,,,,,,,,,,,,,,,,,,,,,,,,,,,,,,,,,,,,,,,,,,,,,
,,,,,,5eb331bc1f70081249e6fb7a,62c539b4a9a7a237c3f6d3fa,2022-07-06_08h34.07.284,Colour_Asymmetry_Pilot,2022.1.3,Win32,59.95203837,62c50e9c1127f2cd403a315f,,,,,,,,,,,,,,,,,,,,twoone,,-3,1.936,,,,,,,,,,,,,,,,,,,,,,,,,,,,,,,,,,"[-0.9766,-0.6472,0.07440000000000002]","[0.7176,-0.906,-0.6864]",-84,29,1,0,0,response7disk,-17,0,1,0,0,rectangle,-17,0,1,0,0,2,3,0.003,0,-17,0,1,0,0,0,10,10,30,1,30,first,,,,,,,,,,,,,,,,,,,,,,,,,,,,,,,,,,,,,,,,,,,,,,,,,,,,,,,,,,,,,,,,,,,,,,,,
,,,,,,5eb331bc1f70081249e6fb7a,62c539b4a9a7a237c3f6d3fa,2022-07-06_08h34.07.284,Colour_Asymmetry_Pilot,2022.1.3,Win32,59.95203837,62c50e9c1127f2cd403a315f,,,,,,,,,,,,,,,,,,,,onethree,,2,1.467,,,,,,,,,,,,,,,,,,,,,,,,,,,,,,,,,,"[-0.38039999999999996,-0.4276,-0.1452]","[0.2862,0.7802,0.3568]",73,-37,1,0,0,response3disk,-11,-5,1,0,0,rectangle,-11,-5,1,0,0,2,3,0,0,-11,-5,1,0,0,0,11,11,110,1,29,second,,,,,,,,,,,,,,,,,,,,,,,,,,,,,,,,,,,,,,,,,,,,,,,,,,,,,,,,,,,,,,,,,,,,,,,,
,,,,,,5eb331bc1f70081249e6fb7a,62c539b4a9a7a237c3f6d3fa,2022-07-06_08h34.07.284,Colour_Asymmetry_Pilot,2022.1.3,Win32,59.95203837,62c50e9c1127f2cd403a315f,,,,,,,,,,,,,,,,,,,,onethree,,-2,1.985,,,,,,,,,,,,,,,,,,,,,,,,,,,,,,,,,,"[0.22340000000000004,-0.9296,-0.7884]","[-0.6706000000000001,-0.6157999999999999,-0.6786]",-83,-35,1,0,0,response5disk,7,2,1,0,0,rectangle,7,2,1,0,0,2,1,0.003,0,7,2,1,0,0,0,12,12,92,1,11,second,,,,,,,,,,,,,,,,,,,,,,,,,,,,,,,,,,,,,,,,,,,,,,,,,,,,,,,,,,,,,,,,,,,,,,,,
,,,,,,5eb331bc1f70081249e6fb7a,62c539b4a9a7a237c3f6d3fa,2022-07-06_08h34.07.284,Colour_Asymmetry_Pilot,2022.1.3,Win32,59.95203837,62c50e9c1127f2cd403a315f,,,,,,,,,,,,,,,,,,,,fourtwo,,-1,1.286,,,,,,,,,,,,,,,,,,,,,,,,,,,,,,,,,,"[0.34099999999999997,0.5841999999999998,-0.9844]","[0.9372,0.20779999999999998,0.2704]",-34,-76,1,0,0,response5disk,-5,-3,1,0,0,rectangle,-5,-3,1,0,0,2,1,0.001,0,-5,-3,1,0,0,0,13,13,8,1,8,first,,,,,,,,,,,,,,,,,,,,,,,,,,,,,,,,,,,,,,,,,,,,,,,,,,,,,,,,,,,,,,,,,,,,,,,,
,,,,,,5eb331bc1f70081249e6fb7a,62c539b4a9a7a237c3f6d3fa,2022-07-06_08h34.07.284,Colour_Asymmetry_Pilot,2022.1.3,Win32,59.95203837,62c50e9c1127f2cd403a315f,,,,,,,,,,,,,,,,,,,,fourthree,,-2,2.251,,,,,,,,,,,,,,,,,,,,,,,,,,,,,,,,,,"[-0.5688,-0.08239999999999992,-0.1844]","[0.9763999999999999,0.8588,-0.05900000000000005]",-72,-52,1,0,0,response5disk,-23,6,1,0,0,rectangle,-23,6,1,0,0,2,2,0.002,0,-23,6,1,0,0,0,14,14,66,1,66,first,,,,,,,,,,,,,,,,,,,,,,,,,,,,,,,,,,,,,,,,,,,,,,,,,,,,,,,,,,,,,,,,,,,,,,,,
,,,,,,5eb331bc1f70081249e6fb7a,62c539b4a9a7a237c3f6d3fa,2022-07-06_08h34.07.284,Colour_Asymmetry_Pilot,2022.1.3,Win32,59.95203837,62c50e9c1127f2cd403a315f,,,,,,,,,,,,,,,,,,,,threefour,,-4,1.017,,,,,,,,,,,,,,,,,,,,,,,,,,,,,,,,,,"[0.7646000000000002,0.07440000000000002,0.2704]","[-0.09019999999999995,0.44300000000000006,0.5371999999999999]",-36,62,1,0,0,response7disk,1,3,1,0,0,rectangle,46,42,1,0,0,3,3,1.549,1,-2,-13,1,0,0,0,15,15,160,1,79,second,response1disk_3,rectangle,,,,,,,,,,,,,,,,,,,,,,,,,,,,,,,,,,,,,,,,,,,,,,,,,,,,,,,,,,,,,,,,,,,,,,
,,,,,,5eb331bc1f70081249e6fb7a,62c539b4a9a7a237c3f6d3fa,2022-07-06_08h34.07.284,Colour_Asymmetry_Pilot,2022.1.3,Win32,59.95203837,62c50e9c1127f2cd403a315f,,,,,,,,,,,,,,,,,,,,twofour,,-2,1.319,,,,,,,,,,,,,,,,,,,,,,,,,,,,,,,,,,"[0.5528,0.7409999999999999,-0.71]","[0.9372,0.20779999999999998,0.2704]",-83,-32,1,0,0,response5disk,-13,-5,1,0,0,rectangle,-13,-5,1,0,0,3,3,0.001,0,-13,-5,1,0,0,0,16,16,45,1,45,first,,,,,,,,,,,,,,,,,,,,,,,,,,,,,,,,,,,,,,,,,,,,,,,,,,,,,,,,,,,,,,,,,,,,,,,,
,,,,,,5eb331bc1f70081249e6fb7a,62c539b4a9a7a237c3f6d3fa,2022-07-06_08h34.07.284,Colour_Asymmetry_Pilot,2022.1.3,Win32,59.95203837,62c50e9c1127f2cd403a315f,,,,,,,,,,,,,,,,,,,,fourthree,,2,0.85,,,,,,,,,,,,,,,,,,,,,,,,,,,,,,,,,,"[-0.4668,-0.8746,-0.2942]","[0.11359999999999992,0.6312,0.5213999999999999]",59,-40,1,0,0,response3disk,-15,5,1,0,0,rectangle,-15,5,1,0,0,3,1,0.002,0,-15,5,1,0,0,0,17,17,133,1,52,second,,,,,,,,,,,,,,,,,,,,,,,,,,,,,,,,,,,,,,,,,,,,,,,,,,,,,,,,,,,,,,,,,,,,,,,,
