trials.thisRepN,trials.thisTrialN,trials.thisN,trials.thisIndex,trials.ran,Colourcodes,participant,session,date,expName,psychopyVersion,OS,frameRate,study_id,trials_4.thisRepN,trials_4.thisTrialN,trials_4.thisN,trials_4.thisIndex,trials_4.ran,StimulusPos,key_resp.keys,key_resp.rt,key_resp_2.keys,key_resp_2.rt,key_resp_15.keys,key_resp_15.rt,key_resp_17.keys,key_resp_17.rt,key_resp_9.keys,key_resp_9.rt,key_resp_10.keys,key_resp_10.rt,Circle1_col,Ecc,Circle2_col,similarity,response_time,mouse_5.x,mouse_5.y,mouse_5.leftButton,mouse_5.midButton,mouse_5.rightButton,mouse_5.clicked_name,mouse_10.x,mouse_10.y,mouse_10.leftButton,mouse_10.midButton,mouse_10.rightButton,mouse_10.clicked_name,mouse_7.x,mouse_7.y,mouse_7.leftButton,mouse_7.midButton,mouse_7.rightButton,catchnumberprac,mouse_6.x,mouse_6.y,mouse_6.leftButton,mouse_6.midButton,mouse_6.rightButton,duringprac.thisRepN,duringprac.thisTrialN,duringprac.thisN,duringprac.thisIndex,duringprac.ran,mouse_7.clicked_name,catchprac,mouse_6.clicked_name,key_resp_22.keys,key_resp_22.rt,Circle1_colour,Circle2_colour,mouse.x,mouse.y,mouse.leftButton,mouse.midButton,mouse.rightButton,mouse.clicked_name,mouse_2.x,mouse_2.y,mouse_2.leftButton,mouse_2.midButton,mouse_2.rightButton,mouse_2.clicked_name,mouse_3.x,mouse_3.y,mouse_3.leftButton,mouse_3.midButton,mouse_3.rightButton,catchresponse,catchnumber,response_time_catch,Catch,mouse_11.x,mouse_11.y,mouse_11.leftButton,mouse_11.midButton,mouse_11.rightButton,trials_2.thisRepN,trials_2.thisTrialN,trials_2.thisN,trials_2.thisIndex,trials_2.ran,Colourpair,Temporder,mouse_3.clicked_name,mouse_11.clicked_name,trials_3.thisRepN,trials_3.thisTrialN,trials_3.thisN,trials_3.thisIndex,trials_3.ran,key_resp_instr_Ishi.keys,key_resp_instr_Ishi.rt,Ishi_trial_keyresp.keys,Ishi_trial_keyresp.rt,Ishi_textbox.text,Ishi_mouse.x,Ishi_mouse.y,Ishi_mouse.leftButton,Ishi_mouse.midButton,Ishi_mouse.rightButton,Ishi_loop.thisRepN,Ishi_loop.thisTrialN,Ishi_loop.thisN,Ishi_loop.thisIndex,Ishi_loop.ran,imageaddress,Ishi_mouse.clicked_name,textbox.text,mouse_4.x,mouse_4.y,mouse_4.leftButton,mouse_4.midButton,mouse_4.rightButton,mouse_4.clicked_name,textbox_2.text,mouse_8.x,mouse_8.y,mouse_8.leftButton,mouse_8.midButton,mouse_8.rightButton,mouse_8.clicked_name,textbox_3.text,mouse_9.x,mouse_9.y,mouse_9.leftButton,mouse_9.midButton,mouse_9.rightButton,mouse_9.clicked_name,textbox_4.text,mouse_12.x,mouse_12.y,mouse_12.leftButton,mouse_12.midButton,mouse_12.rightButton,mouse_12.clicked_name,textbox_5.text,mouse_13.x,mouse_13.y,mouse_13.leftButton,mouse_13.midButton,mouse_13.rightButton,mouse_13.clicked_name,textbox_6.text,mouse_14.x,mouse_14.y,mouse_14.leftButton,mouse_14.midButton,mouse_14.rightButton,mouse_14.clicked_name,textbox_7.text,mouse_15.x,mouse_15.y,mouse_15.leftButton,mouse_15.midButton,mouse_15.rightButton,mouse_15.clicked_name
0,0,0,34,1,,6170470c7c54261cb56b3565,62c5391615bc9962c572dea2,2022-07-06_09h27.15.204,Colour_Asymmetry_Pilot,2022.1.3,Win32,60.0240096,62c50e9c1127f2cd403a315f,,,,,,,,,,,,,,,,,,,,,,,,,,,,,,,,,,,,,,,,,,,,,,,,,,,,,,,,,,,,,,,,,,,,,,,,,,,,,,,,,,,,,,,,,,,,,,,,,,,,,,,,,,,,,,,,,,,,,,,,,,,,,,,,,,,,,,,,,,,,,,,,,,,,,,,,,,,,,,,,,,,,
0,1,1,0,1,,6170470c7c54261cb56b3565,62c5391615bc9962c572dea2,2022-07-06_09h27.15.204,Colour_Asymmetry_Pilot,2022.1.3,Win32,60.0240096,62c50e9c1127f2cd403a315f,,,,,,,,,,,,,,,,,,,,,,,,,,,,,,,,,,,,,,,,,,,,,,,,,,,,,,,,,,,,,,,,,,,,,,,,,,,,,,,,,,,,,,,,,,,,,,,,,,,,,,,,,,,,,,,,,,,,,,,,,,,,,,,,,,,,,,,,,,,,,,,,,,,,,,,,,,,,,,,,,,,,
0,2,2,25,1,,6170470c7c54261cb56b3565,62c5391615bc9962c572dea2,2022-07-06_09h27.15.204,Colour_Asymmetry_Pilot,2022.1.3,Win32,60.0240096,62c50e9c1127f2cd403a315f,,,,,,,,,,,,,,,,,,,,,,,,,,,,,,,,,,,,,,,,,,,,,,,,,,,,,,,,,,,,,,,,,,,,,,,,,,,,,,,,,,,,,,,,,,,,,,,,,,,,,,,,,,,,,,,,,,,,,,,,,,,,,,,,,,,,,,,,,,,,,,,,,,,,,,,,,,,,,,,,,,,,
0,3,3,78,1,,6170470c7c54261cb56b3565,62c5391615bc9962c572dea2,2022-07-06_09h27.15.204,Colour_Asymmetry_Pilot,2022.1.3,Win32,60.0240096,62c50e9c1127f2cd403a315f,,,,,,,,,,,,,,,,,,,,,,,,,,,,,,,,,,,,,,,,,,,,,,,,,,,,,,,,,,,,,,,,,,,,,,,,,,,,,,,,,,,,,,,,,,,,,,,,,,,,,,,,,,,,,,,,,,,,,,,,,,,,,,,,,,,,,,,,,,,,,,,,,,,,,,,,,,,,,,,,,,,,
0,4,4,74,1,,6170470c7c54261cb56b3565,62c5391615bc9962c572dea2,2022-07-06_09h27.15.204,Colour_Asymmetry_Pilot,2022.1.3,Win32,60.0240096,62c50e9c1127f2cd403a315f,,,,,,,,,,,,,,,,,,,,,,,,,,,,,,,,,,,,,,,,,,,,,,,,,,,,,,,,,,,,,,,,,,,,,,,,,,,,,,,,,,,,,,,,,,,,,,,,,,,,,,,,,,,,,,,,,,,,,,,,,,,,,,,,,,,,,,,,,,,,,,,,,,,,,,,,,,,,,,,,,,,,
0,5,5,22,1,,6170470c7c54261cb56b3565,62c5391615bc9962c572dea2,2022-07-06_09h27.15.204,Colour_Asymmetry_Pilot,2022.1.3,Win32,60.0240096,62c50e9c1127f2cd403a315f,,,,,,,,,,,,,,,,,,,,,,,,,,,,,,,,,,,,,,,,,,,,,,,,,,,,,,,,,,,,,,,,,,,,,,,,,,,,,,,,,,,,,,,,,,,,,,,,,,,,,,,,,,,,,,,,,,,,,,,,,,,,,,,,,,,,,,,,,,,,,,,,,,,,,,,,,,,,,,,,,,,,
0,6,6,2,1,,6170470c7c54261cb56b3565,62c5391615bc9962c572dea2,2022-07-06_09h27.15.204,Colour_Asymmetry_Pilot,2022.1.3,Win32,60.0240096,62c50e9c1127f2cd403a315f,,,,,,,,,,,,,,,,,,,,,,,,,,,,,,,,,,,,,,,,,,,,,,,,,,,,,,,,,,,,,,,,,,,,,,,,,,,,,,,,,,,,,,,,,,,,,,,,,,,,,,,,,,,,,,,,,,,,,,,,,,,,,,,,,,,,,,,,,,,,,,,,,,,,,,,,,,,,,,,,,,,,
0,7,7,85,1,,6170470c7c54261cb56b3565,62c5391615bc9962c572dea2,2022-07-06_09h27.15.204,Colour_Asymmetry_Pilot,2022.1.3,Win32,60.0240096,62c50e9c1127f2cd403a315f,,,,,,,,,,,,,,,,,,,,,,,,,,,,,,,,,,,,,,,,,,,,,,,,,,,,,,,,,,,,,,,,,,,,,,,,,,,,,,,,,,,,,,,,,,,,,,,,,,,,,,,,,,,,,,,,,,,,,,,,,,,,,,,,,,,,,,,,,,,,,,,,,,,,,,,,,,,,,,,,,,,,
0,8,8,51,1,,6170470c7c54261cb56b3565,62c5391615bc9962c572dea2,2022-07-06_09h27.15.204,Colour_Asymmetry_Pilot,2022.1.3,Win32,60.0240096,62c50e9c1127f2cd403a315f,,,,,,,,,,,,,,,,,,,,,,,,,,,,,,,,,,,,,,,,,,,,,,,,,,,,,,,,,,,,,,,,,,,,,,,,,,,,,,,,,,,,,,,,,,,,,,,,,,,,,,,,,,,,,,,,,,,,,,,,,,,,,,,,,,,,,,,,,,,,,,,,,,,,,,,,,,,,,,,,,,,,
0,9,9,47,1,,6170470c7c54261cb56b3565,62c5391615bc9962c572dea2,2022-07-06_09h27.15.204,Colour_Asymmetry_Pilot,2022.1.3,Win32,60.0240096,62c50e9c1127f2cd403a315f,,,,,,,,,,,,,,,,,,,,,,,,,,,,,,,,,,,,,,,,,,,,,,,,,,,,,,,,,,,,,,,,,,,,,,,,,,,,,,,,,,,,,,,,,,,,,,,,,,,,,,,,,,,,,,,,,,,,,,,,,,,,,,,,,,,,,,,,,,,,,,,,,,,,,,,,,,,,,,,,,,,,
0,10,10,41,1,,6170470c7c54261cb56b3565,62c5391615bc9962c572dea2,2022-07-06_09h27.15.204,Colour_Asymmetry_Pilot,2022.1.3,Win32,60.0240096,62c50e9c1127f2cd403a315f,,,,,,,,,,,,,,,,,,,,,,,,,,,,,,,,,,,,,,,,,,,,,,,,,,,,,,,,,,,,,,,,,,,,,,,,,,,,,,,,,,,,,,,,,,,,,,,,,,,,,,,,,,,,,,,,,,,,,,,,,,,,,,,,,,,,,,,,,,,,,,,,,,,,,,,,,,,,,,,,,,,,
0,11,11,55,1,,6170470c7c54261cb56b3565,62c5391615bc9962c572dea2,2022-07-06_09h27.15.204,Colour_Asymmetry_Pilot,2022.1.3,Win32,60.0240096,62c50e9c1127f2cd403a315f,,,,,,,,,,,,,,,,,,,,,,,,,,,,,,,,,,,,,,,,,,,,,,,,,,,,,,,,,,,,,,,,,,,,,,,,,,,,,,,,,,,,,,,,,,,,,,,,,,,,,,,,,,,,,,,,,,,,,,,,,,,,,,,,,,,,,,,,,,,,,,,,,,,,,,,,,,,,,,,,,,,,
0,12,12,13,1,,6170470c7c54261cb56b3565,62c5391615bc9962c572dea2,2022-07-06_09h27.15.204,Colour_Asymmetry_Pilot,2022.1.3,Win32,60.0240096,62c50e9c1127f2cd403a315f,,,,,,,,,,,,,,,,,,,,,,,,,,,,,,,,,,,,,,,,,,,,,,,,,,,,,,,,,,,,,,,,,,,,,,,,,,,,,,,,,,,,,,,,,,,,,,,,,,,,,,,,,,,,,,,,,,,,,,,,,,,,,,,,,,,,,,,,,,,,,,,,,,,,,,,,,,,,,,,,,,,,
0,13,13,27,1,,6170470c7c54261cb56b3565,62c5391615bc9962c572dea2,2022-07-06_09h27.15.204,Colour_Asymmetry_Pilot,2022.1.3,Win32,60.0240096,62c50e9c1127f2cd403a315f,,,,,,,,,,,,,,,,,,,,,,,,,,,,,,,,,,,,,,,,,,,,,,,,,,,,,,,,,,,,,,,,,,,,,,,,,,,,,,,,,,,,,,,,,,,,,,,,,,,,,,,,,,,,,,,,,,,,,,,,,,,,,,,,,,,,,,,,,,,,,,,,,,,,,,,,,,,,,,,,,,,,
0,14,14,39,1,,6170470c7c54261cb56b3565,62c5391615bc9962c572dea2,2022-07-06_09h27.15.204,Colour_Asymmetry_Pilot,2022.1.3,Win32,60.0240096,62c50e9c1127f2cd403a315f,,,,,,,,,,,,,,,,,,,,,,,,,,,,,,,,,,,,,,,,,,,,,,,,,,,,,,,,,,,,,,,,,,,,,,,,,,,,,,,,,,,,,,,,,,,,,,,,,,,,,,,,,,,,,,,,,,,,,,,,,,,,,,,,,,,,,,,,,,,,,,,,,,,,,,,,,,,,,,,,,,,,
0,15,15,43,1,,6170470c7c54261cb56b3565,62c5391615bc9962c572dea2,2022-07-06_09h27.15.204,Colour_Asymmetry_Pilot,2022.1.3,Win32,60.0240096,62c50e9c1127f2cd403a315f,,,,,,,,,,,,,,,,,,,,,,,,,,,,,,,,,,,,,,,,,,,,,,,,,,,,,,,,,,,,,,,,,,,,,,,,,,,,,,,,,,,,,,,,,,,,,,,,,,,,,,,,,,,,,,,,,,,,,,,,,,,,,,,,,,,,,,,,,,,,,,,,,,,,,,,,,,,,,,,,,,,,
0,16,16,12,1,,6170470c7c54261cb56b3565,62c5391615bc9962c572dea2,2022-07-06_09h27.15.204,Colour_Asymmetry_Pilot,2022.1.3,Win32,60.0240096,62c50e9c1127f2cd403a315f,,,,,,,,,,,,,,,,,,,,,,,,,,,,,,,,,,,,,,,,,,,,,,,,,,,,,,,,,,,,,,,,,,,,,,,,,,,,,,,,,,,,,,,,,,,,,,,,,,,,,,,,,,,,,,,,,,,,,,,,,,,,,,,,,,,,,,,,,,,,,,,,,,,,,,,,,,,,,,,,,,,,
0,17,17,48,1,,6170470c7c54261cb56b3565,62c5391615bc9962c572dea2,2022-07-06_09h27.15.204,Colour_Asymmetry_Pilot,2022.1.3,Win32,60.0240096,62c50e9c1127f2cd403a315f,,,,,,,,,,,,,,,,,,,,,,,,,,,,,,,,,,,,,,,,,,,,,,,,,,,,,,,,,,,,,,,,,,,,,,,,,,,,,,,,,,,,,,,,,,,,,,,,,,,,,,,,,,,,,,,,,,,,,,,,,,,,,,,,,,,,,,,,,,,,,,,,,,,,,,,,,,,,,,,,,,,,
0,18,18,18,1,,6170470c7c54261cb56b3565,62c5391615bc9962c572dea2,2022-07-06_09h27.15.204,Colour_Asymmetry_Pilot,2022.1.3,Win32,60.0240096,62c50e9c1127f2cd403a315f,,,,,,,,,,,,,,,,,,,,,,,,,,,,,,,,,,,,,,,,,,,,,,,,,,,,,,,,,,,,,,,,,,,,,,,,,,,,,,,,,,,,,,,,,,,,,,,,,,,,,,,,,,,,,,,,,,,,,,,,,,,,,,,,,,,,,,,,,,,,,,,,,,,,,,,,,,,,,,,,,,,,
0,19,19,72,1,,6170470c7c54261cb56b3565,62c5391615bc9962c572dea2,2022-07-06_09h27.15.204,Colour_Asymmetry_Pilot,2022.1.3,Win32,60.0240096,62c50e9c1127f2cd403a315f,,,,,,,,,,,,,,,,,,,,,,,,,,,,,,,,,,,,,,,,,,,,,,,,,,,,,,,,,,,,,,,,,,,,,,,,,,,,,,,,,,,,,,,,,,,,,,,,,,,,,,,,,,,,,,,,,,,,,,,,,,,,,,,,,,,,,,,,,,,,,,,,,,,,,,,,,,,,,,,,,,,,
0,20,20,52,1,,6170470c7c54261cb56b3565,62c5391615bc9962c572dea2,2022-07-06_09h27.15.204,Colour_Asymmetry_Pilot,2022.1.3,Win32,60.0240096,62c50e9c1127f2cd403a315f,,,,,,,,,,,,,,,,,,,,,,,,,,,,,,,,,,,,,,,,,,,,,,,,,,,,,,,,,,,,,,,,,,,,,,,,,,,,,,,,,,,,,,,,,,,,,,,,,,,,,,,,,,,,,,,,,,,,,,,,,,,,,,,,,,,,,,,,,,,,,,,,,,,,,,,,,,,,,,,,,,,,
0,21,21,91,1,,6170470c7c54261cb56b3565,62c5391615bc9962c572dea2,2022-07-06_09h27.15.204,Colour_Asymmetry_Pilot,2022.1.3,Win32,60.0240096,62c50e9c1127f2cd403a315f,,,,,,,,,,,,,,,,,,,,,,,,,,,,,,,,,,,,,,,,,,,,,,,,,,,,,,,,,,,,,,,,,,,,,,,,,,,,,,,,,,,,,,,,,,,,,,,,,,,,,,,,,,,,,,,,,,,,,,,,,,,,,,,,,,,,,,,,,,,,,,,,,,,,,,,,,,,,,,,,,,,,
0,22,22,69,1,,6170470c7c54261cb56b3565,62c5391615bc9962c572dea2,2022-07-06_09h27.15.204,Colour_Asymmetry_Pilot,2022.1.3,Win32,60.0240096,62c50e9c1127f2cd403a315f,,,,,,,,,,,,,,,,,,,,,,,,,,,,,,,,,,,,,,,,,,,,,,,,,,,,,,,,,,,,,,,,,,,,,,,,,,,,,,,,,,,,,,,,,,,,,,,,,,,,,,,,,,,,,,,,,,,,,,,,,,,,,,,,,,,,,,,,,,,,,,,,,,,,,,,,,,,,,,,,,,,,
0,23,23,87,1,,6170470c7c54261cb56b3565,62c5391615bc9962c572dea2,2022-07-06_09h27.15.204,Colour_Asymmetry_Pilot,2022.1.3,Win32,60.0240096,62c50e9c1127f2cd403a315f,,,,,,,,,,,,,,,,,,,,,,,,,,,,,,,,,,,,,,,,,,,,,,,,,,,,,,,,,,,,,,,,,,,,,,,,,,,,,,,,,,,,,,,,,,,,,,,,,,,,,,,,,,,,,,,,,,,,,,,,,,,,,,,,,,,,,,,,,,,,,,,,,,,,,,,,,,,,,,,,,,,,
0,24,24,20,1,,6170470c7c54261cb56b3565,62c5391615bc9962c572dea2,2022-07-06_09h27.15.204,Colour_Asymmetry_Pilot,2022.1.3,Win32,60.0240096,62c50e9c1127f2cd403a315f,,,,,,,,,,,,,,,,,,,,,,,,,,,,,,,,,,,,,,,,,,,,,,,,,,,,,,,,,,,,,,,,,,,,,,,,,,,,,,,,,,,,,,,,,,,,,,,,,,,,,,,,,,,,,,,,,,,,,,,,,,,,,,,,,,,,,,,,,,,,,,,,,,,,,,,,,,,,,,,,,,,,
0,25,25,30,1,,6170470c7c54261cb56b3565,62c5391615bc9962c572dea2,2022-07-06_09h27.15.204,Colour_Asymmetry_Pilot,2022.1.3,Win32,60.0240096,62c50e9c1127f2cd403a315f,,,,,,,,,,,,,,,,,,,,,,,,,,,,,,,,,,,,,,,,,,,,,,,,,,,,,,,,,,,,,,,,,,,,,,,,,,,,,,,,,,,,,,,,,,,,,,,,,,,,,,,,,,,,,,,,,,,,,,,,,,,,,,,,,,,,,,,,,,,,,,,,,,,,,,,,,,,,,,,,,,,,
0,26,26,77,1,,6170470c7c54261cb56b3565,62c5391615bc9962c572dea2,2022-07-06_09h27.15.204,Colour_Asymmetry_Pilot,2022.1.3,Win32,60.0240096,62c50e9c1127f2cd403a315f,,,,,,,,,,,,,,,,,,,,,,,,,,,,,,,,,,,,,,,,,,,,,,,,,,,,,,,,,,,,,,,,,,,,,,,,,,,,,,,,,,,,,,,,,,,,,,,,,,,,,,,,,,,,,,,,,,,,,,,,,,,,,,,,,,,,,,,,,,,,,,,,,,,,,,,,,,,,,,,,,,,,
0,27,27,83,1,,6170470c7c54261cb56b3565,62c5391615bc9962c572dea2,2022-07-06_09h27.15.204,Colour_Asymmetry_Pilot,2022.1.3,Win32,60.0240096,62c50e9c1127f2cd403a315f,,,,,,,,,,,,,,,,,,,,,,,,,,,,,,,,,,,,,,,,,,,,,,,,,,,,,,,,,,,,,,,,,,,,,,,,,,,,,,,,,,,,,,,,,,,,,,,,,,,,,,,,,,,,,,,,,,,,,,,,,,,,,,,,,,,,,,,,,,,,,,,,,,,,,,,,,,,,,,,,,,,,
0,28,28,46,1,,6170470c7c54261cb56b3565,62c5391615bc9962c572dea2,2022-07-06_09h27.15.204,Colour_Asymmetry_Pilot,2022.1.3,Win32,60.0240096,62c50e9c1127f2cd403a315f,,,,,,,,,,,,,,,,,,,,,,,,,,,,,,,,,,,,,,,,,,,,,,,,,,,,,,,,,,,,,,,,,,,,,,,,,,,,,,,,,,,,,,,,,,,,,,,,,,,,,,,,,,,,,,,,,,,,,,,,,,,,,,,,,,,,,,,,,,,,,,,,,,,,,,,,,,,,,,,,,,,,
0,29,29,54,1,,6170470c7c54261cb56b3565,62c5391615bc9962c572dea2,2022-07-06_09h27.15.204,Colour_Asymmetry_Pilot,2022.1.3,Win32,60.0240096,62c50e9c1127f2cd403a315f,,,,,,,,,,,,,,,,,,,,,,,,,,,,,,,,,,,,,,,,,,,,,,,,,,,,,,,,,,,,,,,,,,,,,,,,,,,,,,,,,,,,,,,,,,,,,,,,,,,,,,,,,,,,,,,,,,,,,,,,,,,,,,,,,,,,,,,,,,,,,,,,,,,,,,,,,,,,,,,,,,,,
0,30,30,10,1,,6170470c7c54261cb56b3565,62c5391615bc9962c572dea2,2022-07-06_09h27.15.204,Colour_Asymmetry_Pilot,2022.1.3,Win32,60.0240096,62c50e9c1127f2cd403a315f,,,,,,,,,,,,,,,,,,,,,,,,,,,,,,,,,,,,,,,,,,,,,,,,,,,,,,,,,,,,,,,,,,,,,,,,,,,,,,,,,,,,,,,,,,,,,,,,,,,,,,,,,,,,,,,,,,,,,,,,,,,,,,,,,,,,,,,,,,,,,,,,,,,,,,,,,,,,,,,,,,,,
0,31,31,36,1,,6170470c7c54261cb56b3565,62c5391615bc9962c572dea2,2022-07-06_09h27.15.204,Colour_Asymmetry_Pilot,2022.1.3,Win32,60.0240096,62c50e9c1127f2cd403a315f,,,,,,,,,,,,,,,,,,,,,,,,,,,,,,,,,,,,,,,,,,,,,,,,,,,,,,,,,,,,,,,,,,,,,,,,,,,,,,,,,,,,,,,,,,,,,,,,,,,,,,,,,,,,,,,,,,,,,,,,,,,,,,,,,,,,,,,,,,,,,,,,,,,,,,,,,,,,,,,,,,,,
0,32,32,82,1,,6170470c7c54261cb56b3565,62c5391615bc9962c572dea2,2022-07-06_09h27.15.204,Colour_Asymmetry_Pilot,2022.1.3,Win32,60.0240096,62c50e9c1127f2cd403a315f,,,,,,,,,,,,,,,,,,,,,,,,,,,,,,,,,,,,,,,,,,,,,,,,,,,,,,,,,,,,,,,,,,,,,,,,,,,,,,,,,,,,,,,,,,,,,,,,,,,,,,,,,,,,,,,,,,,,,,,,,,,,,,,,,,,,,,,,,,,,,,,,,,,,,,,,,,,,,,,,,,,,
0,33,33,1,1,,6170470c7c54261cb56b3565,62c5391615bc9962c572dea2,2022-07-06_09h27.15.204,Colour_Asymmetry_Pilot,2022.1.3,Win32,60.0240096,62c50e9c1127f2cd403a315f,,,,,,,,,,,,,,,,,,,,,,,,,,,,,,,,,,,,,,,,,,,,,,,,,,,,,,,,,,,,,,,,,,,,,,,,,,,,,,,,,,,,,,,,,,,,,,,,,,,,,,,,,,,,,,,,,,,,,,,,,,,,,,,,,,,,,,,,,,,,,,,,,,,,,,,,,,,,,,,,,,,,
0,34,34,75,1,,6170470c7c54261cb56b3565,62c5391615bc9962c572dea2,2022-07-06_09h27.15.204,Colour_Asymmetry_Pilot,2022.1.3,Win32,60.0240096,62c50e9c1127f2cd403a315f,,,,,,,,,,,,,,,,,,,,,,,,,,,,,,,,,,,,,,,,,,,,,,,,,,,,,,,,,,,,,,,,,,,,,,,,,,,,,,,,,,,,,,,,,,,,,,,,,,,,,,,,,,,,,,,,,,,,,,,,,,,,,,,,,,,,,,,,,,,,,,,,,,,,,,,,,,,,,,,,,,,,
0,35,35,4,1,,6170470c7c54261cb56b3565,62c5391615bc9962c572dea2,2022-07-06_09h27.15.204,Colour_Asymmetry_Pilot,2022.1.3,Win32,60.0240096,62c50e9c1127f2cd403a315f,,,,,,,,,,,,,,,,,,,,,,,,,,,,,,,,,,,,,,,,,,,,,,,,,,,,,,,,,,,,,,,,,,,,,,,,,,,,,,,,,,,,,,,,,,,,,,,,,,,,,,,,,,,,,,,,,,,,,,,,,,,,,,,,,,,,,,,,,,,,,,,,,,,,,,,,,,,,,,,,,,,,
0,36,36,42,1,,6170470c7c54261cb56b3565,62c5391615bc9962c572dea2,2022-07-06_09h27.15.204,Colour_Asymmetry_Pilot,2022.1.3,Win32,60.0240096,62c50e9c1127f2cd403a315f,,,,,,,,,,,,,,,,,,,,,,,,,,,,,,,,,,,,,,,,,,,,,,,,,,,,,,,,,,,,,,,,,,,,,,,,,,,,,,,,,,,,,,,,,,,,,,,,,,,,,,,,,,,,,,,,,,,,,,,,,,,,,,,,,,,,,,,,,,,,,,,,,,,,,,,,,,,,,,,,,,,,
0,37,37,71,1,,6170470c7c54261cb56b3565,62c5391615bc9962c572dea2,2022-07-06_09h27.15.204,Colour_Asymmetry_Pilot,2022.1.3,Win32,60.0240096,62c50e9c1127f2cd403a315f,,,,,,,,,,,,,,,,,,,,,,,,,,,,,,,,,,,,,,,,,,,,,,,,,,,,,,,,,,,,,,,,,,,,,,,,,,,,,,,,,,,,,,,,,,,,,,,,,,,,,,,,,,,,,,,,,,,,,,,,,,,,,,,,,,,,,,,,,,,,,,,,,,,,,,,,,,,,,,,,,,,,
0,38,38,64,1,,6170470c7c54261cb56b3565,62c5391615bc9962c572dea2,2022-07-06_09h27.15.204,Colour_Asymmetry_Pilot,2022.1.3,Win32,60.0240096,62c50e9c1127f2cd403a315f,,,,,,,,,,,,,,,,,,,,,,,,,,,,,,,,,,,,,,,,,,,,,,,,,,,,,,,,,,,,,,,,,,,,,,,,,,,,,,,,,,,,,,,,,,,,,,,,,,,,,,,,,,,,,,,,,,,,,,,,,,,,,,,,,,,,,,,,,,,,,,,,,,,,,,,,,,,,,,,,,,,,
0,39,39,65,1,,6170470c7c54261cb56b3565,62c5391615bc9962c572dea2,2022-07-06_09h27.15.204,Colour_Asymmetry_Pilot,2022.1.3,Win32,60.0240096,62c50e9c1127f2cd403a315f,,,,,,,,,,,,,,,,,,,,,,,,,,,,,,,,,,,,,,,,,,,,,,,,,,,,,,,,,,,,,,,,,,,,,,,,,,,,,,,,,,,,,,,,,,,,,,,,,,,,,,,,,,,,,,,,,,,,,,,,,,,,,,,,,,,,,,,,,,,,,,,,,,,,,,,,,,,,,,,,,,,,
0,40,40,67,1,,6170470c7c54261cb56b3565,62c5391615bc9962c572dea2,2022-07-06_09h27.15.204,Colour_Asymmetry_Pilot,2022.1.3,Win32,60.0240096,62c50e9c1127f2cd403a315f,,,,,,,,,,,,,,,,,,,,,,,,,,,,,,,,,,,,,,,,,,,,,,,,,,,,,,,,,,,,,,,,,,,,,,,,,,,,,,,,,,,,,,,,,,,,,,,,,,,,,,,,,,,,,,,,,,,,,,,,,,,,,,,,,,,,,,,,,,,,,,,,,,,,,,,,,,,,,,,,,,,,
0,41,41,7,1,,6170470c7c54261cb56b3565,62c5391615bc9962c572dea2,2022-07-06_09h27.15.204,Colour_Asymmetry_Pilot,2022.1.3,Win32,60.0240096,62c50e9c1127f2cd403a315f,,,,,,,,,,,,,,,,,,,,,,,,,,,,,,,,,,,,,,,,,,,,,,,,,,,,,,,,,,,,,,,,,,,,,,,,,,,,,,,,,,,,,,,,,,,,,,,,,,,,,,,,,,,,,,,,,,,,,,,,,,,,,,,,,,,,,,,,,,,,,,,,,,,,,,,,,,,,,,,,,,,,
0,42,42,33,1,,6170470c7c54261cb56b3565,62c5391615bc9962c572dea2,2022-07-06_09h27.15.204,Colour_Asymmetry_Pilot,2022.1.3,Win32,60.0240096,62c50e9c1127f2cd403a315f,,,,,,,,,,,,,,,,,,,,,,,,,,,,,,,,,,,,,,,,,,,,,,,,,,,,,,,,,,,,,,,,,,,,,,,,,,,,,,,,,,,,,,,,,,,,,,,,,,,,,,,,,,,,,,,,,,,,,,,,,,,,,,,,,,,,,,,,,,,,,,,,,,,,,,,,,,,,,,,,,,,,
0,43,43,3,1,,6170470c7c54261cb56b3565,62c5391615bc9962c572dea2,2022-07-06_09h27.15.204,Colour_Asymmetry_Pilot,2022.1.3,Win32,60.0240096,62c50e9c1127f2cd403a315f,,,,,,,,,,,,,,,,,,,,,,,,,,,,,,,,,,,,,,,,,,,,,,,,,,,,,,,,,,,,,,,,,,,,,,,,,,,,,,,,,,,,,,,,,,,,,,,,,,,,,,,,,,,,,,,,,,,,,,,,,,,,,,,,,,,,,,,,,,,,,,,,,,,,,,,,,,,,,,,,,,,,
0,44,44,70,1,,6170470c7c54261cb56b3565,62c5391615bc9962c572dea2,2022-07-06_09h27.15.204,Colour_Asymmetry_Pilot,2022.1.3,Win32,60.0240096,62c50e9c1127f2cd403a315f,,,,,,,,,,,,,,,,,,,,,,,,,,,,,,,,,,,,,,,,,,,,,,,,,,,,,,,,,,,,,,,,,,,,,,,,,,,,,,,,,,,,,,,,,,,,,,,,,,,,,,,,,,,,,,,,,,,,,,,,,,,,,,,,,,,,,,,,,,,,,,,,,,,,,,,,,,,,,,,,,,,,
0,45,45,5,1,,6170470c7c54261cb56b3565,62c5391615bc9962c572dea2,2022-07-06_09h27.15.204,Colour_Asymmetry_Pilot,2022.1.3,Win32,60.0240096,62c50e9c1127f2cd403a315f,,,,,,,,,,,,,,,,,,,,,,,,,,,,,,,,,,,,,,,,,,,,,,,,,,,,,,,,,,,,,,,,,,,,,,,,,,,,,,,,,,,,,,,,,,,,,,,,,,,,,,,,,,,,,,,,,,,,,,,,,,,,,,,,,,,,,,,,,,,,,,,,,,,,,,,,,,,,,,,,,,,,
0,46,46,60,1,,6170470c7c54261cb56b3565,62c5391615bc9962c572dea2,2022-07-06_09h27.15.204,Colour_Asymmetry_Pilot,2022.1.3,Win32,60.0240096,62c50e9c1127f2cd403a315f,,,,,,,,,,,,,,,,,,,,,,,,,,,,,,,,,,,,,,,,,,,,,,,,,,,,,,,,,,,,,,,,,,,,,,,,,,,,,,,,,,,,,,,,,,,,,,,,,,,,,,,,,,,,,,,,,,,,,,,,,,,,,,,,,,,,,,,,,,,,,,,,,,,,,,,,,,,,,,,,,,,,
0,47,47,86,1,,6170470c7c54261cb56b3565,62c5391615bc9962c572dea2,2022-07-06_09h27.15.204,Colour_Asymmetry_Pilot,2022.1.3,Win32,60.0240096,62c50e9c1127f2cd403a315f,,,,,,,,,,,,,,,,,,,,,,,,,,,,,,,,,,,,,,,,,,,,,,,,,,,,,,,,,,,,,,,,,,,,,,,,,,,,,,,,,,,,,,,,,,,,,,,,,,,,,,,,,,,,,,,,,,,,,,,,,,,,,,,,,,,,,,,,,,,,,,,,,,,,,,,,,,,,,,,,,,,,
0,48,48,21,1,,6170470c7c54261cb56b3565,62c5391615bc9962c572dea2,2022-07-06_09h27.15.204,Colour_Asymmetry_Pilot,2022.1.3,Win32,60.0240096,62c50e9c1127f2cd403a315f,,,,,,,,,,,,,,,,,,,,,,,,,,,,,,,,,,,,,,,,,,,,,,,,,,,,,,,,,,,,,,,,,,,,,,,,,,,,,,,,,,,,,,,,,,,,,,,,,,,,,,,,,,,,,,,,,,,,,,,,,,,,,,,,,,,,,,,,,,,,,,,,,,,,,,,,,,,,,,,,,,,,
0,49,49,28,1,,6170470c7c54261cb56b3565,62c5391615bc9962c572dea2,2022-07-06_09h27.15.204,Colour_Asymmetry_Pilot,2022.1.3,Win32,60.0240096,62c50e9c1127f2cd403a315f,,,,,,,,,,,,,,,,,,,,,,,,,,,,,,,,,,,,,,,,,,,,,,,,,,,,,,,,,,,,,,,,,,,,,,,,,,,,,,,,,,,,,,,,,,,,,,,,,,,,,,,,,,,,,,,,,,,,,,,,,,,,,,,,,,,,,,,,,,,,,,,,,,,,,,,,,,,,,,,,,,,,
0,50,50,17,1,,6170470c7c54261cb56b3565,62c5391615bc9962c572dea2,2022-07-06_09h27.15.204,Colour_Asymmetry_Pilot,2022.1.3,Win32,60.0240096,62c50e9c1127f2cd403a315f,,,,,,,,,,,,,,,,,,,,,,,,,,,,,,,,,,,,,,,,,,,,,,,,,,,,,,,,,,,,,,,,,,,,,,,,,,,,,,,,,,,,,,,,,,,,,,,,,,,,,,,,,,,,,,,,,,,,,,,,,,,,,,,,,,,,,,,,,,,,,,,,,,,,,,,,,,,,,,,,,,,,
0,51,51,76,1,,6170470c7c54261cb56b3565,62c5391615bc9962c572dea2,2022-07-06_09h27.15.204,Colour_Asymmetry_Pilot,2022.1.3,Win32,60.0240096,62c50e9c1127f2cd403a315f,,,,,,,,,,,,,,,,,,,,,,,,,,,,,,,,,,,,,,,,,,,,,,,,,,,,,,,,,,,,,,,,,,,,,,,,,,,,,,,,,,,,,,,,,,,,,,,,,,,,,,,,,,,,,,,,,,,,,,,,,,,,,,,,,,,,,,,,,,,,,,,,,,,,,,,,,,,,,,,,,,,,
0,52,52,57,1,,6170470c7c54261cb56b3565,62c5391615bc9962c572dea2,2022-07-06_09h27.15.204,Colour_Asymmetry_Pilot,2022.1.3,Win32,60.0240096,62c50e9c1127f2cd403a315f,,,,,,,,,,,,,,,,,,,,,,,,,,,,,,,,,,,,,,,,,,,,,,,,,,,,,,,,,,,,,,,,,,,,,,,,,,,,,,,,,,,,,,,,,,,,,,,,,,,,,,,,,,,,,,,,,,,,,,,,,,,,,,,,,,,,,,,,,,,,,,,,,,,,,,,,,,,,,,,,,,,,
0,53,53,16,1,,6170470c7c54261cb56b3565,62c5391615bc9962c572dea2,2022-07-06_09h27.15.204,Colour_Asymmetry_Pilot,2022.1.3,Win32,60.0240096,62c50e9c1127f2cd403a315f,,,,,,,,,,,,,,,,,,,,,,,,,,,,,,,,,,,,,,,,,,,,,,,,,,,,,,,,,,,,,,,,,,,,,,,,,,,,,,,,,,,,,,,,,,,,,,,,,,,,,,,,,,,,,,,,,,,,,,,,,,,,,,,,,,,,,,,,,,,,,,,,,,,,,,,,,,,,,,,,,,,,
0,54,54,31,1,,6170470c7c54261cb56b3565,62c5391615bc9962c572dea2,2022-07-06_09h27.15.204,Colour_Asymmetry_Pilot,2022.1.3,Win32,60.0240096,62c50e9c1127f2cd403a315f,,,,,,,,,,,,,,,,,,,,,,,,,,,,,,,,,,,,,,,,,,,,,,,,,,,,,,,,,,,,,,,,,,,,,,,,,,,,,,,,,,,,,,,,,,,,,,,,,,,,,,,,,,,,,,,,,,,,,,,,,,,,,,,,,,,,,,,,,,,,,,,,,,,,,,,,,,,,,,,,,,,,
0,55,55,61,1,,6170470c7c54261cb56b3565,62c5391615bc9962c572dea2,2022-07-06_09h27.15.204,Colour_Asymmetry_Pilot,2022.1.3,Win32,60.0240096,62c50e9c1127f2cd403a315f,,,,,,,,,,,,,,,,,,,,,,,,,,,,,,,,,,,,,,,,,,,,,,,,,,,,,,,,,,,,,,,,,,,,,,,,,,,,,,,,,,,,,,,,,,,,,,,,,,,,,,,,,,,,,,,,,,,,,,,,,,,,,,,,,,,,,,,,,,,,,,,,,,,,,,,,,,,,,,,,,,,,
0,56,56,73,1,,6170470c7c54261cb56b3565,62c5391615bc9962c572dea2,2022-07-06_09h27.15.204,Colour_Asymmetry_Pilot,2022.1.3,Win32,60.0240096,62c50e9c1127f2cd403a315f,,,,,,,,,,,,,,,,,,,,,,,,,,,,,,,,,,,,,,,,,,,,,,,,,,,,,,,,,,,,,,,,,,,,,,,,,,,,,,,,,,,,,,,,,,,,,,,,,,,,,,,,,,,,,,,,,,,,,,,,,,,,,,,,,,,,,,,,,,,,,,,,,,,,,,,,,,,,,,,,,,,,
0,57,57,66,1,,6170470c7c54261cb56b3565,62c5391615bc9962c572dea2,2022-07-06_09h27.15.204,Colour_Asymmetry_Pilot,2022.1.3,Win32,60.0240096,62c50e9c1127f2cd403a315f,,,,,,,,,,,,,,,,,,,,,,,,,,,,,,,,,,,,,,,,,,,,,,,,,,,,,,,,,,,,,,,,,,,,,,,,,,,,,,,,,,,,,,,,,,,,,,,,,,,,,,,,,,,,,,,,,,,,,,,,,,,,,,,,,,,,,,,,,,,,,,,,,,,,,,,,,,,,,,,,,,,,
0,58,58,6,1,,6170470c7c54261cb56b3565,62c5391615bc9962c572dea2,2022-07-06_09h27.15.204,Colour_Asymmetry_Pilot,2022.1.3,Win32,60.0240096,62c50e9c1127f2cd403a315f,,,,,,,,,,,,,,,,,,,,,,,,,,,,,,,,,,,,,,,,,,,,,,,,,,,,,,,,,,,,,,,,,,,,,,,,,,,,,,,,,,,,,,,,,,,,,,,,,,,,,,,,,,,,,,,,,,,,,,,,,,,,,,,,,,,,,,,,,,,,,,,,,,,,,,,,,,,,,,,,,,,,
0,59,59,90,1,,6170470c7c54261cb56b3565,62c5391615bc9962c572dea2,2022-07-06_09h27.15.204,Colour_Asymmetry_Pilot,2022.1.3,Win32,60.0240096,62c50e9c1127f2cd403a315f,,,,,,,,,,,,,,,,,,,,,,,,,,,,,,,,,,,,,,,,,,,,,,,,,,,,,,,,,,,,,,,,,,,,,,,,,,,,,,,,,,,,,,,,,,,,,,,,,,,,,,,,,,,,,,,,,,,,,,,,,,,,,,,,,,,,,,,,,,,,,,,,,,,,,,,,,,,,,,,,,,,,
0,60,60,89,1,,6170470c7c54261cb56b3565,62c5391615bc9962c572dea2,2022-07-06_09h27.15.204,Colour_Asymmetry_Pilot,2022.1.3,Win32,60.0240096,62c50e9c1127f2cd403a315f,,,,,,,,,,,,,,,,,,,,,,,,,,,,,,,,,,,,,,,,,,,,,,,,,,,,,,,,,,,,,,,,,,,,,,,,,,,,,,,,,,,,,,,,,,,,,,,,,,,,,,,,,,,,,,,,,,,,,,,,,,,,,,,,,,,,,,,,,,,,,,,,,,,,,,,,,,,,,,,,,,,,
0,61,61,58,1,,6170470c7c54261cb56b3565,62c5391615bc9962c572dea2,2022-07-06_09h27.15.204,Colour_Asymmetry_Pilot,2022.1.3,Win32,60.0240096,62c50e9c1127f2cd403a315f,,,,,,,,,,,,,,,,,,,,,,,,,,,,,,,,,,,,,,,,,,,,,,,,,,,,,,,,,,,,,,,,,,,,,,,,,,,,,,,,,,,,,,,,,,,,,,,,,,,,,,,,,,,,,,,,,,,,,,,,,,,,,,,,,,,,,,,,,,,,,,,,,,,,,,,,,,,,,,,,,,,,
0,62,62,88,1,,6170470c7c54261cb56b3565,62c5391615bc9962c572dea2,2022-07-06_09h27.15.204,Colour_Asymmetry_Pilot,2022.1.3,Win32,60.0240096,62c50e9c1127f2cd403a315f,,,,,,,,,,,,,,,,,,,,,,,,,,,,,,,,,,,,,,,,,,,,,,,,,,,,,,,,,,,,,,,,,,,,,,,,,,,,,,,,,,,,,,,,,,,,,,,,,,,,,,,,,,,,,,,,,,,,,,,,,,,,,,,,,,,,,,,,,,,,,,,,,,,,,,,,,,,,,,,,,,,,
0,63,63,19,1,,6170470c7c54261cb56b3565,62c5391615bc9962c572dea2,2022-07-06_09h27.15.204,Colour_Asymmetry_Pilot,2022.1.3,Win32,60.0240096,62c50e9c1127f2cd403a315f,,,,,,,,,,,,,,,,,,,,,,,,,,,,,,,,,,,,,,,,,,,,,,,,,,,,,,,,,,,,,,,,,,,,,,,,,,,,,,,,,,,,,,,,,,,,,,,,,,,,,,,,,,,,,,,,,,,,,,,,,,,,,,,,,,,,,,,,,,,,,,,,,,,,,,,,,,,,,,,,,,,,
0,64,64,92,1,,6170470c7c54261cb56b3565,62c5391615bc9962c572dea2,2022-07-06_09h27.15.204,Colour_Asymmetry_Pilot,2022.1.3,Win32,60.0240096,62c50e9c1127f2cd403a315f,,,,,,,,,,,,,,,,,,,,,,,,,,,,,,,,,,,,,,,,,,,,,,,,,,,,,,,,,,,,,,,,,,,,,,,,,,,,,,,,,,,,,,,,,,,,,,,,,,,,,,,,,,,,,,,,,,,,,,,,,,,,,,,,,,,,,,,,,,,,,,,,,,,,,,,,,,,,,,,,,,,,
0,65,65,53,1,,6170470c7c54261cb56b3565,62c5391615bc9962c572dea2,2022-07-06_09h27.15.204,Colour_Asymmetry_Pilot,2022.1.3,Win32,60.0240096,62c50e9c1127f2cd403a315f,,,,,,,,,,,,,,,,,,,,,,,,,,,,,,,,,,,,,,,,,,,,,,,,,,,,,,,,,,,,,,,,,,,,,,,,,,,,,,,,,,,,,,,,,,,,,,,,,,,,,,,,,,,,,,,,,,,,,,,,,,,,,,,,,,,,,,,,,,,,,,,,,,,,,,,,,,,,,,,,,,,,
0,66,66,40,1,,6170470c7c54261cb56b3565,62c5391615bc9962c572dea2,2022-07-06_09h27.15.204,Colour_Asymmetry_Pilot,2022.1.3,Win32,60.0240096,62c50e9c1127f2cd403a315f,,,,,,,,,,,,,,,,,,,,,,,,,,,,,,,,,,,,,,,,,,,,,,,,,,,,,,,,,,,,,,,,,,,,,,,,,,,,,,,,,,,,,,,,,,,,,,,,,,,,,,,,,,,,,,,,,,,,,,,,,,,,,,,,,,,,,,,,,,,,,,,,,,,,,,,,,,,,,,,,,,,,
0,67,67,9,1,,6170470c7c54261cb56b3565,62c5391615bc9962c572dea2,2022-07-06_09h27.15.204,Colour_Asymmetry_Pilot,2022.1.3,Win32,60.0240096,62c50e9c1127f2cd403a315f,,,,,,,,,,,,,,,,,,,,,,,,,,,,,,,,,,,,,,,,,,,,,,,,,,,,,,,,,,,,,,,,,,,,,,,,,,,,,,,,,,,,,,,,,,,,,,,,,,,,,,,,,,,,,,,,,,,,,,,,,,,,,,,,,,,,,,,,,,,,,,,,,,,,,,,,,,,,,,,,,,,,
0,68,68,49,1,,6170470c7c54261cb56b3565,62c5391615bc9962c572dea2,2022-07-06_09h27.15.204,Colour_Asymmetry_Pilot,2022.1.3,Win32,60.0240096,62c50e9c1127f2cd403a315f,,,,,,,,,,,,,,,,,,,,,,,,,,,,,,,,,,,,,,,,,,,,,,,,,,,,,,,,,,,,,,,,,,,,,,,,,,,,,,,,,,,,,,,,,,,,,,,,,,,,,,,,,,,,,,,,,,,,,,,,,,,,,,,,,,,,,,,,,,,,,,,,,,,,,,,,,,,,,,,,,,,,
0,69,69,44,1,,6170470c7c54261cb56b3565,62c5391615bc9962c572dea2,2022-07-06_09h27.15.204,Colour_Asymmetry_Pilot,2022.1.3,Win32,60.0240096,62c50e9c1127f2cd403a315f,,,,,,,,,,,,,,,,,,,,,,,,,,,,,,,,,,,,,,,,,,,,,,,,,,,,,,,,,,,,,,,,,,,,,,,,,,,,,,,,,,,,,,,,,,,,,,,,,,,,,,,,,,,,,,,,,,,,,,,,,,,,,,,,,,,,,,,,,,,,,,,,,,,,,,,,,,,,,,,,,,,,
0,70,70,50,1,,6170470c7c54261cb56b3565,62c5391615bc9962c572dea2,2022-07-06_09h27.15.204,Colour_Asymmetry_Pilot,2022.1.3,Win32,60.0240096,62c50e9c1127f2cd403a315f,,,,,,,,,,,,,,,,,,,,,,,,,,,,,,,,,,,,,,,,,,,,,,,,,,,,,,,,,,,,,,,,,,,,,,,,,,,,,,,,,,,,,,,,,,,,,,,,,,,,,,,,,,,,,,,,,,,,,,,,,,,,,,,,,,,,,,,,,,,,,,,,,,,,,,,,,,,,,,,,,,,,
0,71,71,56,1,,6170470c7c54261cb56b3565,62c5391615bc9962c572dea2,2022-07-06_09h27.15.204,Colour_Asymmetry_Pilot,2022.1.3,Win32,60.0240096,62c50e9c1127f2cd403a315f,,,,,,,,,,,,,,,,,,,,,,,,,,,,,,,,,,,,,,,,,,,,,,,,,,,,,,,,,,,,,,,,,,,,,,,,,,,,,,,,,,,,,,,,,,,,,,,,,,,,,,,,,,,,,,,,,,,,,,,,,,,,,,,,,,,,,,,,,,,,,,,,,,,,,,,,,,,,,,,,,,,,
0,72,72,59,1,,6170470c7c54261cb56b3565,62c5391615bc9962c572dea2,2022-07-06_09h27.15.204,Colour_Asymmetry_Pilot,2022.1.3,Win32,60.0240096,62c50e9c1127f2cd403a315f,,,,,,,,,,,,,,,,,,,,,,,,,,,,,,,,,,,,,,,,,,,,,,,,,,,,,,,,,,,,,,,,,,,,,,,,,,,,,,,,,,,,,,,,,,,,,,,,,,,,,,,,,,,,,,,,,,,,,,,,,,,,,,,,,,,,,,,,,,,,,,,,,,,,,,,,,,,,,,,,,,,,
0,73,73,8,1,,6170470c7c54261cb56b3565,62c5391615bc9962c572dea2,2022-07-06_09h27.15.204,Colour_Asymmetry_Pilot,2022.1.3,Win32,60.0240096,62c50e9c1127f2cd403a315f,,,,,,,,,,,,,,,,,,,,,,,,,,,,,,,,,,,,,,,,,,,,,,,,,,,,,,,,,,,,,,,,,,,,,,,,,,,,,,,,,,,,,,,,,,,,,,,,,,,,,,,,,,,,,,,,,,,,,,,,,,,,,,,,,,,,,,,,,,,,,,,,,,,,,,,,,,,,,,,,,,,,
0,74,74,29,1,,6170470c7c54261cb56b3565,62c5391615bc9962c572dea2,2022-07-06_09h27.15.204,Colour_Asymmetry_Pilot,2022.1.3,Win32,60.0240096,62c50e9c1127f2cd403a315f,,,,,,,,,,,,,,,,,,,,,,,,,,,,,,,,,,,,,,,,,,,,,,,,,,,,,,,,,,,,,,,,,,,,,,,,,,,,,,,,,,,,,,,,,,,,,,,,,,,,,,,,,,,,,,,,,,,,,,,,,,,,,,,,,,,,,,,,,,,,,,,,,,,,,,,,,,,,,,,,,,,,
0,75,75,81,1,,6170470c7c54261cb56b3565,62c5391615bc9962c572dea2,2022-07-06_09h27.15.204,Colour_Asymmetry_Pilot,2022.1.3,Win32,60.0240096,62c50e9c1127f2cd403a315f,,,,,,,,,,,,,,,,,,,,,,,,,,,,,,,,,,,,,,,,,,,,,,,,,,,,,,,,,,,,,,,,,,,,,,,,,,,,,,,,,,,,,,,,,,,,,,,,,,,,,,,,,,,,,,,,,,,,,,,,,,,,,,,,,,,,,,,,,,,,,,,,,,,,,,,,,,,,,,,,,,,,
0,76,76,35,1,,6170470c7c54261cb56b3565,62c5391615bc9962c572dea2,2022-07-06_09h27.15.204,Colour_Asymmetry_Pilot,2022.1.3,Win32,60.0240096,62c50e9c1127f2cd403a315f,,,,,,,,,,,,,,,,,,,,,,,,,,,,,,,,,,,,,,,,,,,,,,,,,,,,,,,,,,,,,,,,,,,,,,,,,,,,,,,,,,,,,,,,,,,,,,,,,,,,,,,,,,,,,,,,,,,,,,,,,,,,,,,,,,,,,,,,,,,,,,,,,,,,,,,,,,,,,,,,,,,,
0,77,77,68,1,,6170470c7c54261cb56b3565,62c5391615bc9962c572dea2,2022-07-06_09h27.15.204,Colour_Asymmetry_Pilot,2022.1.3,Win32,60.0240096,62c50e9c1127f2cd403a315f,,,,,,,,,,,,,,,,,,,,,,,,,,,,,,,,,,,,,,,,,,,,,,,,,,,,,,,,,,,,,,,,,,,,,,,,,,,,,,,,,,,,,,,,,,,,,,,,,,,,,,,,,,,,,,,,,,,,,,,,,,,,,,,,,,,,,,,,,,,,,,,,,,,,,,,,,,,,,,,,,,,,
0,78,78,23,1,,6170470c7c54261cb56b3565,62c5391615bc9962c572dea2,2022-07-06_09h27.15.204,Colour_Asymmetry_Pilot,2022.1.3,Win32,60.0240096,62c50e9c1127f2cd403a315f,,,,,,,,,,,,,,,,,,,,,,,,,,,,,,,,,,,,,,,,,,,,,,,,,,,,,,,,,,,,,,,,,,,,,,,,,,,,,,,,,,,,,,,,,,,,,,,,,,,,,,,,,,,,,,,,,,,,,,,,,,,,,,,,,,,,,,,,,,,,,,,,,,,,,,,,,,,,,,,,,,,,
0,79,79,38,1,,6170470c7c54261cb56b3565,62c5391615bc9962c572dea2,2022-07-06_09h27.15.204,Colour_Asymmetry_Pilot,2022.1.3,Win32,60.0240096,62c50e9c1127f2cd403a315f,,,,,,,,,,,,,,,,,,,,,,,,,,,,,,,,,,,,,,,,,,,,,,,,,,,,,,,,,,,,,,,,,,,,,,,,,,,,,,,,,,,,,,,,,,,,,,,,,,,,,,,,,,,,,,,,,,,,,,,,,,,,,,,,,,,,,,,,,,,,,,,,,,,,,,,,,,,,,,,,,,,,
0,80,80,11,1,,6170470c7c54261cb56b3565,62c5391615bc9962c572dea2,2022-07-06_09h27.15.204,Colour_Asymmetry_Pilot,2022.1.3,Win32,60.0240096,62c50e9c1127f2cd403a315f,,,,,,,,,,,,,,,,,,,,,,,,,,,,,,,,,,,,,,,,,,,,,,,,,,,,,,,,,,,,,,,,,,,,,,,,,,,,,,,,,,,,,,,,,,,,,,,,,,,,,,,,,,,,,,,,,,,,,,,,,,,,,,,,,,,,,,,,,,,,,,,,,,,,,,,,,,,,,,,,,,,,
0,81,81,84,1,,6170470c7c54261cb56b3565,62c5391615bc9962c572dea2,2022-07-06_09h27.15.204,Colour_Asymmetry_Pilot,2022.1.3,Win32,60.0240096,62c50e9c1127f2cd403a315f,,,,,,,,,,,,,,,,,,,,,,,,,,,,,,,,,,,,,,,,,,,,,,,,,,,,,,,,,,,,,,,,,,,,,,,,,,,,,,,,,,,,,,,,,,,,,,,,,,,,,,,,,,,,,,,,,,,,,,,,,,,,,,,,,,,,,,,,,,,,,,,,,,,,,,,,,,,,,,,,,,,,
0,82,82,14,1,,6170470c7c54261cb56b3565,62c5391615bc9962c572dea2,2022-07-06_09h27.15.204,Colour_Asymmetry_Pilot,2022.1.3,Win32,60.0240096,62c50e9c1127f2cd403a315f,,,,,,,,,,,,,,,,,,,,,,,,,,,,,,,,,,,,,,,,,,,,,,,,,,,,,,,,,,,,,,,,,,,,,,,,,,,,,,,,,,,,,,,,,,,,,,,,,,,,,,,,,,,,,,,,,,,,,,,,,,,,,,,,,,,,,,,,,,,,,,,,,,,,,,,,,,,,,,,,,,,,
0,83,83,45,1,,6170470c7c54261cb56b3565,62c5391615bc9962c572dea2,2022-07-06_09h27.15.204,Colour_Asymmetry_Pilot,2022.1.3,Win32,60.0240096,62c50e9c1127f2cd403a315f,,,,,,,,,,,,,,,,,,,,,,,,,,,,,,,,,,,,,,,,,,,,,,,,,,,,,,,,,,,,,,,,,,,,,,,,,,,,,,,,,,,,,,,,,,,,,,,,,,,,,,,,,,,,,,,,,,,,,,,,,,,,,,,,,,,,,,,,,,,,,,,,,,,,,,,,,,,,,,,,,,,,
0,84,84,26,1,,6170470c7c54261cb56b3565,62c5391615bc9962c572dea2,2022-07-06_09h27.15.204,Colour_Asymmetry_Pilot,2022.1.3,Win32,60.0240096,62c50e9c1127f2cd403a315f,,,,,,,,,,,,,,,,,,,,,,,,,,,,,,,,,,,,,,,,,,,,,,,,,,,,,,,,,,,,,,,,,,,,,,,,,,,,,,,,,,,,,,,,,,,,,,,,,,,,,,,,,,,,,,,,,,,,,,,,,,,,,,,,,,,,,,,,,,,,,,,,,,,,,,,,,,,,,,,,,,,,
0,85,85,63,1,,6170470c7c54261cb56b3565,62c5391615bc9962c572dea2,2022-07-06_09h27.15.204,Colour_Asymmetry_Pilot,2022.1.3,Win32,60.0240096,62c50e9c1127f2cd403a315f,,,,,,,,,,,,,,,,,,,,,,,,,,,,,,,,,,,,,,,,,,,,,,,,,,,,,,,,,,,,,,,,,,,,,,,,,,,,,,,,,,,,,,,,,,,,,,,,,,,,,,,,,,,,,,,,,,,,,,,,,,,,,,,,,,,,,,,,,,,,,,,,,,,,,,,,,,,,,,,,,,,,
0,86,86,37,1,,6170470c7c54261cb56b3565,62c5391615bc9962c572dea2,2022-07-06_09h27.15.204,Colour_Asymmetry_Pilot,2022.1.3,Win32,60.0240096,62c50e9c1127f2cd403a315f,,,,,,,,,,,,,,,,,,,,,,,,,,,,,,,,,,,,,,,,,,,,,,,,,,,,,,,,,,,,,,,,,,,,,,,,,,,,,,,,,,,,,,,,,,,,,,,,,,,,,,,,,,,,,,,,,,,,,,,,,,,,,,,,,,,,,,,,,,,,,,,,,,,,,,,,,,,,,,,,,,,,
0,87,87,32,1,,6170470c7c54261cb56b3565,62c5391615bc9962c572dea2,2022-07-06_09h27.15.204,Colour_Asymmetry_Pilot,2022.1.3,Win32,60.0240096,62c50e9c1127f2cd403a315f,,,,,,,,,,,,,,,,,,,,,,,,,,,,,,,,,,,,,,,,,,,,,,,,,,,,,,,,,,,,,,,,,,,,,,,,,,,,,,,,,,,,,,,,,,,,,,,,,,,,,,,,,,,,,,,,,,,,,,,,,,,,,,,,,,,,,,,,,,,,,,,,,,,,,,,,,,,,,,,,,,,,
0,88,88,24,1,,6170470c7c54261cb56b3565,62c5391615bc9962c572dea2,2022-07-06_09h27.15.204,Colour_Asymmetry_Pilot,2022.1.3,Win32,60.0240096,62c50e9c1127f2cd403a315f,,,,,,,,,,,,,,,,,,,,,,,,,,,,,,,,,,,,,,,,,,,,,,,,,,,,,,,,,,,,,,,,,,,,,,,,,,,,,,,,,,,,,,,,,,,,,,,,,,,,,,,,,,,,,,,,,,,,,,,,,,,,,,,,,,,,,,,,,,,,,,,,,,,,,,,,,,,,,,,,,,,,
0,89,89,80,1,,6170470c7c54261cb56b3565,62c5391615bc9962c572dea2,2022-07-06_09h27.15.204,Colour_Asymmetry_Pilot,2022.1.3,Win32,60.0240096,62c50e9c1127f2cd403a315f,,,,,,,,,,,,,,,,,,,,,,,,,,,,,,,,,,,,,,,,,,,,,,,,,,,,,,,,,,,,,,,,,,,,,,,,,,,,,,,,,,,,,,,,,,,,,,,,,,,,,,,,,,,,,,,,,,,,,,,,,,,,,,,,,,,,,,,,,,,,,,,,,,,,,,,,,,,,,,,,,,,,
0,90,90,62,1,,6170470c7c54261cb56b3565,62c5391615bc9962c572dea2,2022-07-06_09h27.15.204,Colour_Asymmetry_Pilot,2022.1.3,Win32,60.0240096,62c50e9c1127f2cd403a315f,,,,,,,,,,,,,,,,,,,,,,,,,,,,,,,,,,,,,,,,,,,,,,,,,,,,,,,,,,,,,,,,,,,,,,,,,,,,,,,,,,,,,,,,,,,,,,,,,,,,,,,,,,,,,,,,,,,,,,,,,,,,,,,,,,,,,,,,,,,,,,,,,,,,,,,,,,,,,,,,,,,,
0,91,91,15,1,,6170470c7c54261cb56b3565,62c5391615bc9962c572dea2,2022-07-06_09h27.15.204,Colour_Asymmetry_Pilot,2022.1.3,Win32,60.0240096,62c50e9c1127f2cd403a315f,,,,,,,,,,,,,,,,,,,,,,,,,,,,,,,,,,,,,,,,,,,,,,,,,,,,,,,,,,,,,,,,,,,,,,,,,,,,,,,,,,,,,,,,,,,,,,,,,,,,,,,,,,,,,,,,,,,,,,,,,,,,,,,,,,,,,,,,,,,,,,,,,,,,,,,,,,,,,,,,,,,,
0,92,92,79,1,,6170470c7c54261cb56b3565,62c5391615bc9962c572dea2,2022-07-06_09h27.15.204,Colour_Asymmetry_Pilot,2022.1.3,Win32,60.0240096,62c50e9c1127f2cd403a315f,,,,,,,,,,,,,,,,,,,,,,,,,,,,,,,,,,,,,,,,,,,,,,,,,,,,,,,,,,,,,,,,,,,,,,,,,,,,,,,,,,,,,,,,,,,,,,,,,,,,,,,,,,,,,,,,,,,,,,,,,,,,,,,,,,,,,,,,,,,,,,,,,,,,,,,,,,,,,,,,,,,,
,,,,,,6170470c7c54261cb56b3565,62c5391615bc9962c572dea2,2022-07-06_09h27.15.204,Colour_Asymmetry_Pilot,2022.1.3,Win32,60.0240096,62c50e9c1127f2cd403a315f,0,0,0,119,1,fourthree,,,,,,,,,,,,,,,,,,,,,,,,,,,,,,,,,,,,,,,,,,,,,,,,,,,,,,,,,,,,,,,,,,,,,,,,,,,,,,,,,,,,,,,,,,,,,,,,,,,,,,,,,,,,,,,,,,,,,,,,,,,,,,,,,,,,,,,,,,,,,,,,,,,,,,,,,,,,,,
,,,,,,6170470c7c54261cb56b3565,62c5391615bc9962c572dea2,2022-07-06_09h27.15.204,Colour_Asymmetry_Pilot,2022.1.3,Win32,60.0240096,62c50e9c1127f2cd403a315f,0,1,1,106,1,twoone,,,,,,,,,,,,,,,,,,,,,,,,,,,,,,,,,,,,,,,,,,,,,,,,,,,,,,,,,,,,,,,,,,,,,,,,,,,,,,,,,,,,,,,,,,,,,,,,,,,,,,,,,,,,,,,,,,,,,,,,,,,,,,,,,,,,,,,,,,,,,,,,,,,,,,,,,,,,,,
,,,,,,6170470c7c54261cb56b3565,62c5391615bc9962c572dea2,2022-07-06_09h27.15.204,Colour_Asymmetry_Pilot,2022.1.3,Win32,60.0240096,62c50e9c1127f2cd403a315f,0,2,2,53,1,threefour,,,,,,,,,,,,,,,,,,,,,,,,,,,,,,,,,,,,,,,,,,,,,,,,,,,,,,,,,,,,,,,,,,,,,,,,,,,,,,,,,,,,,,,,,,,,,,,,,,,,,,,,,,,,,,,,,,,,,,,,,,,,,,,,,,,,,,,,,,,,,,,,,,,,,,,,,,,,,,
,,,,,,6170470c7c54261cb56b3565,62c5391615bc9962c572dea2,2022-07-06_09h27.15.204,Colour_Asymmetry_Pilot,2022.1.3,Win32,60.0240096,62c50e9c1127f2cd403a315f,0,3,3,73,1,onethree,,,,,,,,,,,,,,,,,,,,,,,,,,,,,,,,,,,,,,,,,,,,,,,,,,,,,,,,,,,,,,,,,,,,,,,,,,,,,,,,,,,,,,,,,,,,,,,,,,,,,,,,,,,,,,,,,,,,,,,,,,,,,,,,,,,,,,,,,,,,,,,,,,,,,,,,,,,,,,
,,,,,,6170470c7c54261cb56b3565,62c5391615bc9962c572dea2,2022-07-06_09h27.15.204,Colour_Asymmetry_Pilot,2022.1.3,Win32,60.0240096,62c50e9c1127f2cd403a315f,0,4,4,39,1,fourthree,,,,,,,,,,,,,,,,,,,,,,,,,,,,,,,,,,,,,,,,,,,,,,,,,,,,,,,,,,,,,,,,,,,,,,,,,,,,,,,,,,,,,,,,,,,,,,,,,,,,,,,,,,,,,,,,,,,,,,,,,,,,,,,,,,,,,,,,,,,,,,,,,,,,,,,,,,,,,,
,,,,,,6170470c7c54261cb56b3565,62c5391615bc9962c572dea2,2022-07-06_09h27.15.204,Colour_Asymmetry_Pilot,2022.1.3,Win32,60.0240096,62c50e9c1127f2cd403a315f,0,5,5,143,1,fourthree,,,,,,,,,,,,,,,,,,,,,,,,,,,,,,,,,,,,,,,,,,,,,,,,,,,,,,,,,,,,,,,,,,,,,,,,,,,,,,,,,,,,,,,,,,,,,,,,,,,,,,,,,,,,,,,,,,,,,,,,,,,,,,,,,,,,,,,,,,,,,,,,,,,,,,,,,,,,,,
,,,,,,6170470c7c54261cb56b3565,62c5391615bc9962c572dea2,2022-07-06_09h27.15.204,Colour_Asymmetry_Pilot,2022.1.3,Win32,60.0240096,62c50e9c1127f2cd403a315f,0,6,6,27,1,twofour,,,,,,,,,,,,,,,,,,,,,,,,,,,,,,,,,,,,,,,,,,,,,,,,,,,,,,,,,,,,,,,,,,,,,,,,,,,,,,,,,,,,,,,,,,,,,,,,,,,,,,,,,,,,,,,,,,,,,,,,,,,,,,,,,,,,,,,,,,,,,,,,,,,,,,,,,,,,,,
,,,,,,6170470c7c54261cb56b3565,62c5391615bc9962c572dea2,2022-07-06_09h27.15.204,Colour_Asymmetry_Pilot,2022.1.3,Win32,60.0240096,62c50e9c1127f2cd403a315f,0,7,7,60,1,threeone,,,,,,,,,,,,,,,,,,,,,,,,,,,,,,,,,,,,,,,,,,,,,,,,,,,,,,,,,,,,,,,,,,,,,,,,,,,,,,,,,,,,,,,,,,,,,,,,,,,,,,,,,,,,,,,,,,,,,,,,,,,,,,,,,,,,,,,,,,,,,,,,,,,,,,,,,,,,,,
,,,,,,6170470c7c54261cb56b3565,62c5391615bc9962c572dea2,2022-07-06_09h27.15.204,Colour_Asymmetry_Pilot,2022.1.3,Win32,60.0240096,62c50e9c1127f2cd403a315f,0,8,8,41,1,onethree,,,,,,,,,,,,,,,,,,,,,,,,,,,,,,,,,,,,,,,,,,,,,,,,,,,,,,,,,,,,,,,,,,,,,,,,,,,,,,,,,,,,,,,,,,,,,,,,,,,,,,,,,,,,,,,,,,,,,,,,,,,,,,,,,,,,,,,,,,,,,,,,,,,,,,,,,,,,,,
,,,,,,6170470c7c54261cb56b3565,62c5391615bc9962c572dea2,2022-07-06_09h27.15.204,Colour_Asymmetry_Pilot,2022.1.3,Win32,60.0240096,62c50e9c1127f2cd403a315f,0,9,9,13,1,threefour,,,,,,,,,,,,,,,,,,,,,,,,,,,,,,,,,,,,,,,,,,,,,,,,,,,,,,,,,,,,,,,,,,,,,,,,,,,,,,,,,,,,,,,,,,,,,,,,,,,,,,,,,,,,,,,,,,,,,,,,,,,,,,,,,,,,,,,,,,,,,,,,,,,,,,,,,,,,,,
,,,,,,6170470c7c54261cb56b3565,62c5391615bc9962c572dea2,2022-07-06_09h27.15.204,Colour_Asymmetry_Pilot,2022.1.3,Win32,60.0240096,62c50e9c1127f2cd403a315f,0,10,10,11,1,twofour,,,,,,,,,,,,,,,,,,,,,,,,,,,,,,,,,,,,,,,,,,,,,,,,,,,,,,,,,,,,,,,,,,,,,,,,,,,,,,,,,,,,,,,,,,,,,,,,,,,,,,,,,,,,,,,,,,,,,,,,,,,,,,,,,,,,,,,,,,,,,,,,,,,,,,,,,,,,,,
,,,,,,6170470c7c54261cb56b3565,62c5391615bc9962c572dea2,2022-07-06_09h27.15.204,Colour_Asymmetry_Pilot,2022.1.3,Win32,60.0240096,62c50e9c1127f2cd403a315f,0,11,11,81,1,onethree,,,,,,,,,,,,,,,,,,,,,,,,,,,,,,,,,,,,,,,,,,,,,,,,,,,,,,,,,,,,,,,,,,,,,,,,,,,,,,,,,,,,,,,,,,,,,,,,,,,,,,,,,,,,,,,,,,,,,,,,,,,,,,,,,,,,,,,,,,,,,,,,,,,,,,,,,,,,,,
,,,,,,6170470c7c54261cb56b3565,62c5391615bc9962c572dea2,2022-07-06_09h27.15.204,Colour_Asymmetry_Pilot,2022.1.3,Win32,60.0240096,62c50e9c1127f2cd403a315f,0,12,12,22,1,fourtwo,,,,,,,,,,,,,,,,,,,,,,,,,,,,,,,,,,,,,,,,,,,,,,,,,,,,,,,,,,,,,,,,,,,,,,,,,,,,,,,,,,,,,,,,,,,,,,,,,,,,,,,,,,,,,,,,,,,,,,,,,,,,,,,,,,,,,,,,,,,,,,,,,,,,,,,,,,,,,,
,,,,,,6170470c7c54261cb56b3565,62c5391615bc9962c572dea2,2022-07-06_09h27.15.204,Colour_Asymmetry_Pilot,2022.1.3,Win32,60.0240096,62c50e9c1127f2cd403a315f,0,13,13,114,1,twoone,,,,,,,,,,,,,,,,,,,,,,,,,,,,,,,,,,,,,,,,,,,,,,,,,,,,,,,,,,,,,,,,,,,,,,,,,,,,,,,,,,,,,,,,,,,,,,,,,,,,,,,,,,,,,,,,,,,,,,,,,,,,,,,,,,,,,,,,,,,,,,,,,,,,,,,,,,,,,,
,,,,,,6170470c7c54261cb56b3565,62c5391615bc9962c572dea2,2022-07-06_09h27.15.204,Colour_Asymmetry_Pilot,2022.1.3,Win32,60.0240096,62c50e9c1127f2cd403a315f,0,14,14,29,1,threefour,,,,,,,,,,,,,,,,,,,,,,,,,,,,,,,,,,,,,,,,,,,,,,,,,,,,,,,,,,,,,,,,,,,,,,,,,,,,,,,,,,,,,,,,,,,,,,,,,,,,,,,,,,,,,,,,,,,,,,,,,,,,,,,,,,,,,,,,,,,,,,,,,,,,,,,,,,,,,,
,,,,,,6170470c7c54261cb56b3565,62c5391615bc9962c572dea2,2022-07-06_09h27.15.204,Colour_Asymmetry_Pilot,2022.1.3,Win32,60.0240096,62c50e9c1127f2cd403a315f,0,15,15,63,1,fourthree,,,,,,,,,,,,,,,,,,,,,,,,,,,,,,,,,,,,,,,,,,,,,,,,,,,,,,,,,,,,,,,,,,,,,,,,,,,,,,,,,,,,,,,,,,,,,,,,,,,,,,,,,,,,,,,,,,,,,,,,,,,,,,,,,,,,,,,,,,,,,,,,,,,,,,,,,,,,,,
,,,,,,6170470c7c54261cb56b3565,62c5391615bc9962c572dea2,2022-07-06_09h27.15.204,Colour_Asymmetry_Pilot,2022.1.3,Win32,60.0240096,62c50e9c1127f2cd403a315f,0,16,16,91,1,twofour,,,,,,,,,,,,,,,,,,,,,,,,,,,,,,,,,,,,,,,,,,,,,,,,,,,,,,,,,,,,,,,,,,,,,,,,,,,,,,,,,,,,,,,,,,,,,,,,,,,,,,,,,,,,,,,,,,,,,,,,,,,,,,,,,,,,,,,,,,,,,,,,,,,,,,,,,,,,,,
,,,,,,6170470c7c54261cb56b3565,62c5391615bc9962c572dea2,2022-07-06_09h27.15.204,Colour_Asymmetry_Pilot,2022.1.3,Win32,60.0240096,62c50e9c1127f2cd403a315f,0,17,17,17,1,onethree,,,,,,,,,,,,,,,,,,,,,,,,,,,,,,,,,,,,,,,,,,,,,,,,,,,,,,,,,,,,,,,,,,,,,,,,,,,,,,,,,,,,,,,,,,,,,,,,,,,,,,,,,,,,,,,,,,,,,,,,,,,,,,,,,,,,,,,,,,,,,,,,,,,,,,,,,,,,,,
,,,,,,6170470c7c54261cb56b3565,62c5391615bc9962c572dea2,2022-07-06_09h27.15.204,Colour_Asymmetry_Pilot,2022.1.3,Win32,60.0240096,62c50e9c1127f2cd403a315f,0,18,18,96,1,onetwo,,,,,,,,,,,,,,,,,,,,,,,,,,,,,,,,,,,,,,,,,,,,,,,,,,,,,,,,,,,,,,,,,,,,,,,,,,,,,,,,,,,,,,,,,,,,,,,,,,,,,,,,,,,,,,,,,,,,,,,,,,,,,,,,,,,,,,,,,,,,,,,,,,,,,,,,,,,,,,
,,,,,,6170470c7c54261cb56b3565,62c5391615bc9962c572dea2,2022-07-06_09h27.15.204,Colour_Asymmetry_Pilot,2022.1.3,Win32,60.0240096,62c50e9c1127f2cd403a315f,0,19,19,6,1,fourtwo,,,,,,,,,,,,,,,,,,,,,,,,,,,,,,,,,,,,,,,,,,,,,,,,,,,,,,,,,,,,,,,,,,,,,,,,,,,,,,,,,,,,,,,,,,,,,,,,,,,,,,,,,,,,,,,,,,,,,,,,,,,,,,,,,,,,,,,,,,,,,,,,,,,,,,,,,,,,,,
,,,,,,6170470c7c54261cb56b3565,62c5391615bc9962c572dea2,2022-07-06_09h27.15.204,Colour_Asymmetry_Pilot,2022.1.3,Win32,60.0240096,62c50e9c1127f2cd403a315f,0,20,20,95,1,fourthree,,,,,,,,,,,,,,,,,,,,,,,,,,,,,,,,,,,,,,,,,,,,,,,,,,,,,,,,,,,,,,,,,,,,,,,,,,,,,,,,,,,,,,,,,,,,,,,,,,,,,,,,,,,,,,,,,,,,,,,,,,,,,,,,,,,,,,,,,,,,,,,,,,,,,,,,,,,,,,
,,,,,,6170470c7c54261cb56b3565,62c5391615bc9962c572dea2,2022-07-06_09h27.15.204,Colour_Asymmetry_Pilot,2022.1.3,Win32,60.0240096,62c50e9c1127f2cd403a315f,0,21,21,160,1,onetwo,,,,,,,,,,,,,,,,,,,,,,,,,,,,,,,,,,,,,,,,,,,,,,,,,,,,,,,,,,,,,,,,,,,,,,,,,,,,,,,,,,,,,,,,,,,,,,,,,,,,,,,,,,,,,,,,,,,,,,,,,,,,,,,,,,,,,,,,,,,,,,,,,,,,,,,,,,,,,,
,,,,,,6170470c7c54261cb56b3565,62c5391615bc9962c572dea2,2022-07-06_09h27.15.204,Colour_Asymmetry_Pilot,2022.1.3,Win32,60.0240096,62c50e9c1127f2cd403a315f,0,22,22,161,1,onethree,,,,,,,,,,,,,,,,,,,,,,,,,,,,,,,,,,,,,,,,,,,,,,,,,,,,,,,,,,,,,,,,,,,,,,,,,,,,,,,,,,,,,,,,,,,,,,,,,,,,,,,,,,,,,,,,,,,,,,,,,,,,,,,,,,,,,,,,,,,,,,,,,,,,,,,,,,,,,,
,,,,,,6170470c7c54261cb56b3565,62c5391615bc9962c572dea2,2022-07-06_09h27.15.204,Colour_Asymmetry_Pilot,2022.1.3,Win32,60.0240096,62c50e9c1127f2cd403a315f,0,23,23,30,1,fourtwo,,,,,,,,,,,,,,,,,,,,,,,,,,,,,,,,,,,,,,,,,,,,,,,,,,,,,,,,,,,,,,,,,,,,,,,,,,,,,,,,,,,,,,,,,,,,,,,,,,,,,,,,,,,,,,,,,,,,,,,,,,,,,,,,,,,,,,,,,,,,,,,,,,,,,,,,,,,,,,
,,,,,,6170470c7c54261cb56b3565,62c5391615bc9962c572dea2,2022-07-06_09h27.15.204,Colour_Asymmetry_Pilot,2022.1.3,Win32,60.0240096,62c50e9c1127f2cd403a315f,0,24,24,129,1,onethree,,,,,,,,,,,,,,,,,,,,,,,,,,,,,,,,,,,,,,,,,,,,,,,,,,,,,,,,,,,,,,,,,,,,,,,,,,,,,,,,,,,,,,,,,,,,,,,,,,,,,,,,,,,,,,,,,,,,,,,,,,,,,,,,,,,,,,,,,,,,,,,,,,,,,,,,,,,,,,
,,,,,,6170470c7c54261cb56b3565,62c5391615bc9962c572dea2,2022-07-06_09h27.15.204,Colour_Asymmetry_Pilot,2022.1.3,Win32,60.0240096,62c50e9c1127f2cd403a315f,0,25,25,0,1,onetwo,,,,,,,,,,,,,,,,,,,,,,,,,,,,,,,,,,,,,,,,,,,,,,,,,,,,,,,,,,,,,,,,,,,,,,,,,,,,,,,,,,,,,,,,,,,,,,,,,,,,,,,,,,,,,,,,,,,,,,,,,,,,,,,,,,,,,,,,,,,,,,,,,,,,,,,,,,,,,,
,,,,,,6170470c7c54261cb56b3565,62c5391615bc9962c572dea2,2022-07-06_09h27.15.204,Colour_Asymmetry_Pilot,2022.1.3,Win32,60.0240096,62c50e9c1127f2cd403a315f,0,26,26,105,1,onethree,,,,,,,,,,,,,,,,,,,,,,,,,,,,,,,,,,,,,,,,,,,,,,,,,,,,,,,,,,,,,,,,,,,,,,,,,,,,,,,,,,,,,,,,,,,,,,,,,,,,,,,,,,,,,,,,,,,,,,,,,,,,,,,,,,,,,,,,,,,,,,,,,,,,,,,,,,,,,,
,,,,,,6170470c7c54261cb56b3565,62c5391615bc9962c572dea2,2022-07-06_09h27.15.204,Colour_Asymmetry_Pilot,2022.1.3,Win32,60.0240096,62c50e9c1127f2cd403a315f,0,27,27,21,1,threefour,,,,,,,,,,,,,,,,,,,,,,,,,,,,,,,,,,,,,,,,,,,,,,,,,,,,,,,,,,,,,,,,,,,,,,,,,,,,,,,,,,,,,,,,,,,,,,,,,,,,,,,,,,,,,,,,,,,,,,,,,,,,,,,,,,,,,,,,,,,,,,,,,,,,,,,,,,,,,,
,,,,,,6170470c7c54261cb56b3565,62c5391615bc9962c572dea2,2022-07-06_09h27.15.204,Colour_Asymmetry_Pilot,2022.1.3,Win32,60.0240096,62c50e9c1127f2cd403a315f,0,28,28,111,1,fourthree,,,,,,,,,,,,,,,,,,,,,,,,,,,,,,,,,,,,,,,,,,,,,,,,,,,,,,,,,,,,,,,,,,,,,,,,,,,,,,,,,,,,,,,,,,,,,,,,,,,,,,,,,,,,,,,,,,,,,,,,,,,,,,,,,,,,,,,,,,,,,,,,,,,,,,,,,,,,,,
,,,,,,6170470c7c54261cb56b3565,62c5391615bc9962c572dea2,2022-07-06_09h27.15.204,Colour_Asymmetry_Pilot,2022.1.3,Win32,60.0240096,62c50e9c1127f2cd403a315f,0,29,29,141,1,threefour,,,,,,,,,,,,,,,,,,,,,,,,,,,,,,,,,,,,,,,,,,,,,,,,,,,,,,,,,,,,,,,,,,,,,,,,,,,,,,,,,,,,,,,,,,,,,,,,,,,,,,,,,,,,,,,,,,,,,,,,,,,,,,,,,,,,,,,,,,,,,,,,,,,,,,,,,,,,,,
,,,,,,6170470c7c54261cb56b3565,62c5391615bc9962c572dea2,2022-07-06_09h27.15.204,Colour_Asymmetry_Pilot,2022.1.3,Win32,60.0240096,62c50e9c1127f2cd403a315f,0,30,30,153,1,onethree,,,,,,,,,,,,,,,,,,,,,,,,,,,,,,,,,,,,,,,,,,,,,,,,,,,,,,,,,,,,,,,,,,,,,,,,,,,,,,,,,,,,,,,,,,,,,,,,,,,,,,,,,,,,,,,,,,,,,,,,,,,,,,,,,,,,,,,,,,,,,,,,,,,,,,,,,,,,,,
,,,,,,6170470c7c54261cb56b3565,62c5391615bc9962c572dea2,2022-07-06_09h27.15.204,Colour_Asymmetry_Pilot,2022.1.3,Win32,60.0240096,62c50e9c1127f2cd403a315f,0,31,31,38,1,fourtwo,,,,,,,,,,,,,,,,,,,,,,,,,,,,,,,,,,,,,,,,,,,,,,,,,,,,,,,,,,,,,,,,,,,,,,,,,,,,,,,,,,,,,,,,,,,,,,,,,,,,,,,,,,,,,,,,,,,,,,,,,,,,,,,,,,,,,,,,,,,,,,,,,,,,,,,,,,,,,,
,,,,,,6170470c7c54261cb56b3565,62c5391615bc9962c572dea2,2022-07-06_09h27.15.204,Colour_Asymmetry_Pilot,2022.1.3,Win32,60.0240096,62c50e9c1127f2cd403a315f,0,32,32,82,1,twoone,,,,,,,,,,,,,,,,,,,,,,,,,,,,,,,,,,,,,,,,,,,,,,,,,,,,,,,,,,,,,,,,,,,,,,,,,,,,,,,,,,,,,,,,,,,,,,,,,,,,,,,,,,,,,,,,,,,,,,,,,,,,,,,,,,,,,,,,,,,,,,,,,,,,,,,,,,,,,,
,,,,,,6170470c7c54261cb56b3565,62c5391615bc9962c572dea2,2022-07-06_09h27.15.204,Colour_Asymmetry_Pilot,2022.1.3,Win32,60.0240096,62c50e9c1127f2cd403a315f,0,33,33,33,1,onethree,,,,,,,,,,,,,,,,,,,,,,,,,,,,,,,,,,,,,,,,,,,,,,,,,,,,,,,,,,,,,,,,,,,,,,,,,,,,,,,,,,,,,,,,,,,,,,,,,,,,,,,,,,,,,,,,,,,,,,,,,,,,,,,,,,,,,,,,,,,,,,,,,,,,,,,,,,,,,,
,,,,,,6170470c7c54261cb56b3565,62c5391615bc9962c572dea2,2022-07-06_09h27.15.204,Colour_Asymmetry_Pilot,2022.1.3,Win32,60.0240096,62c50e9c1127f2cd403a315f,0,34,34,43,1,twofour,,,,,,,,,,,,,,,,,,,,,,,,,,,,,,,,,,,,,,,,,,,,,,,,,,,,,,,,,,,,,,,,,,,,,,,,,,,,,,,,,,,,,,,,,,,,,,,,,,,,,,,,,,,,,,,,,,,,,,,,,,,,,,,,,,,,,,,,,,,,,,,,,,,,,,,,,,,,,,
,,,,,,6170470c7c54261cb56b3565,62c5391615bc9962c572dea2,2022-07-06_09h27.15.204,Colour_Asymmetry_Pilot,2022.1.3,Win32,60.0240096,62c50e9c1127f2cd403a315f,0,35,35,52,1,threeone,,,,,,,,,,,,,,,,,,,,,,,,,,,,,,,,,,,,,,,,,,,,,,,,,,,,,,,,,,,,,,,,,,,,,,,,,,,,,,,,,,,,,,,,,,,,,,,,,,,,,,,,,,,,,,,,,,,,,,,,,,,,,,,,,,,,,,,,,,,,,,,,,,,,,,,,,,,,,,
,,,,,,6170470c7c54261cb56b3565,62c5391615bc9962c572dea2,2022-07-06_09h27.15.204,Colour_Asymmetry_Pilot,2022.1.3,Win32,60.0240096,62c50e9c1127f2cd403a315f,0,36,36,131,1,twofour,,,,,,,,,,,,,,,,,,,,,,,,,,,,,,,,,,,,,,,,,,,,,,,,,,,,,,,,,,,,,,,,,,,,,,,,,,,,,,,,,,,,,,,,,,,,,,,,,,,,,,,,,,,,,,,,,,,,,,,,,,,,,,,,,,,,,,,,,,,,,,,,,,,,,,,,,,,,,,
,,,,,,6170470c7c54261cb56b3565,62c5391615bc9962c572dea2,2022-07-06_09h27.15.204,Colour_Asymmetry_Pilot,2022.1.3,Win32,60.0240096,62c50e9c1127f2cd403a315f,0,37,37,133,1,threefour,,,,,,,,,,,,,,,,,,,,,,,,,,,,,,,,,,,,,,,,,,,,,,,,,,,,,,,,,,,,,,,,,,,,,,,,,,,,,,,,,,,,,,,,,,,,,,,,,,,,,,,,,,,,,,,,,,,,,,,,,,,,,,,,,,,,,,,,,,,,,,,,,,,,,,,,,,,,,,
,,,,,,6170470c7c54261cb56b3565,62c5391615bc9962c572dea2,2022-07-06_09h27.15.204,Colour_Asymmetry_Pilot,2022.1.3,Win32,60.0240096,62c50e9c1127f2cd403a315f,0,38,38,75,1,twofour,,,,,,,,,,,,,,,,,,,,,,,,,,,,,,,,,,,,,,,,,,,,,,,,,,,,,,,,,,,,,,,,,,,,,,,,,,,,,,,,,,,,,,,,,,,,,,,,,,,,,,,,,,,,,,,,,,,,,,,,,,,,,,,,,,,,,,,,,,,,,,,,,,,,,,,,,,,,,,
,,,,,,6170470c7c54261cb56b3565,62c5391615bc9962c572dea2,2022-07-06_09h27.15.204,Colour_Asymmetry_Pilot,2022.1.3,Win32,60.0240096,62c50e9c1127f2cd403a315f,0,39,39,121,1,onethree,,,,,,,,,,,,,,,,,,,,,,,,,,,,,,,,,,,,,,,,,,,,,,,,,,,,,,,,,,,,,,,,,,,,,,,,,,,,,,,,,,,,,,,,,,,,,,,,,,,,,,,,,,,,,,,,,,,,,,,,,,,,,,,,,,,,,,,,,,,,,,,,,,,,,,,,,,,,,,
,,,,,,6170470c7c54261cb56b3565,62c5391615bc9962c572dea2,2022-07-06_09h27.15.204,Colour_Asymmetry_Pilot,2022.1.3,Win32,60.0240096,62c50e9c1127f2cd403a315f,0,40,40,40,1,onetwo,,,,,,,,,,,,,,,,,,,,,,,,,,,,,,,,,,,,,,,,,,,,,,,,,,,,,,,,,,,,,,,,,,,,,,,,,,,,,,,,,,,,,,,,,,,,,,,,,,,,,,,,,,,,,,,,,,,,,,,,,,,,,,,,,,,,,,,,,,,,,,,,,,,,,,,,,,,,,,
,,,,,,6170470c7c54261cb56b3565,62c5391615bc9962c572dea2,2022-07-06_09h27.15.204,Colour_Asymmetry_Pilot,2022.1.3,Win32,60.0240096,62c50e9c1127f2cd403a315f,0,41,41,87,1,fourthree,,,,,,,,,,,,,,,,,,,,,,,,,,,,,,,,,,,,,,,,,,,,,,,,,,,,,,,,,,,,,,,,,,,,,,,,,,,,,,,,,,,,,,,,,,,,,,,,,,,,,,,,,,,,,,,,,,,,,,,,,,,,,,,,,,,,,,,,,,,,,,,,,,,,,,,,,,,,,,
,,,,,,6170470c7c54261cb56b3565,62c5391615bc9962c572dea2,2022-07-06_09h27.15.204,Colour_Asymmetry_Pilot,2022.1.3,Win32,60.0240096,62c50e9c1127f2cd403a315f,0,42,42,49,1,onethree,,,,,,,,,,,,,,,,,,,,,,,,,,,,,,,,,,,,,,,,,,,,,,,,,,,,,,,,,,,,,,,,,,,,,,,,,,,,,,,,,,,,,,,,,,,,,,,,,,,,,,,,,,,,,,,,,,,,,,,,,,,,,,,,,,,,,,,,,,,,,,,,,,,,,,,,,,,,,,
,,,,,,6170470c7c54261cb56b3565,62c5391615bc9962c572dea2,2022-07-06_09h27.15.204,Colour_Asymmetry_Pilot,2022.1.3,Win32,60.0240096,62c50e9c1127f2cd403a315f,0,43,43,68,1,threeone,,,,,,,,,,,,,,,,,,,,,,,,,,,,,,,,,,,,,,,,,,,,,,,,,,,,,,,,,,,,,,,,,,,,,,,,,,,,,,,,,,,,,,,,,,,,,,,,,,,,,,,,,,,,,,,,,,,,,,,,,,,,,,,,,,,,,,,,,,,,,,,,,,,,,,,,,,,,,,
,,,,,,6170470c7c54261cb56b3565,62c5391615bc9962c572dea2,2022-07-06_09h27.15.204,Colour_Asymmetry_Pilot,2022.1.3,Win32,60.0240096,62c50e9c1127f2cd403a315f,0,44,44,98,1,twoone,,,,,,,,,,,,,,,,,,,,,,,,,,,,,,,,,,,,,,,,,,,,,,,,,,,,,,,,,,,,,,,,,,,,,,,,,,,,,,,,,,,,,,,,,,,,,,,,,,,,,,,,,,,,,,,,,,,,,,,,,,,,,,,,,,,,,,,,,,,,,,,,,,,,,,,,,,,,,,
,,,,,,6170470c7c54261cb56b3565,62c5391615bc9962c572dea2,2022-07-06_09h27.15.204,Colour_Asymmetry_Pilot,2022.1.3,Win32,60.0240096,62c50e9c1127f2cd403a315f,0,45,45,130,1,twoone,,,,,,,,,,,,,,,,,,,,,,,,,,,,,,,,,,,,,,,,,,,,,,,,,,,,,,,,,,,,,,,,,,,,,,,,,,,,,,,,,,,,,,,,,,,,,,,,,,,,,,,,,,,,,,,,,,,,,,,,,,,,,,,,,,,,,,,,,,,,,,,,,,,,,,,,,,,,,,
,,,,,,6170470c7c54261cb56b3565,62c5391615bc9962c572dea2,2022-07-06_09h27.15.204,Colour_Asymmetry_Pilot,2022.1.3,Win32,60.0240096,62c50e9c1127f2cd403a315f,0,46,46,154,1,twoone,,,,,,,,,,,,,,,,,,,,,,,,,,,,,,,,,,,,,,,,,,,,,,,,,,,,,,,,,,,,,,,,,,,,,,,,,,,,,,,,,,,,,,,,,,,,,,,,,,,,,,,,,,,,,,,,,,,,,,,,,,,,,,,,,,,,,,,,,,,,,,,,,,,,,,,,,,,,,,
,,,,,,6170470c7c54261cb56b3565,62c5391615bc9962c572dea2,2022-07-06_09h27.15.204,Colour_Asymmetry_Pilot,2022.1.3,Win32,60.0240096,62c50e9c1127f2cd403a315f,0,47,47,45,1,threefour,,,,,,,,,,,,,,,,,,,,,,,,,,,,,,,,,,,,,,,,,,,,,,,,,,,,,,,,,,,,,,,,,,,,,,,,,,,,,,,,,,,,,,,,,,,,,,,,,,,,,,,,,,,,,,,,,,,,,,,,,,,,,,,,,,,,,,,,,,,,,,,,,,,,,,,,,,,,,,
,,,,,,6170470c7c54261cb56b3565,62c5391615bc9962c572dea2,2022-07-06_09h27.15.204,Colour_Asymmetry_Pilot,2022.1.3,Win32,60.0240096,62c50e9c1127f2cd403a315f,0,48,48,151,1,fourthree,,,,,,,,,,,,,,,,,,,,,,,,,,,,,,,,,,,,,,,,,,,,,,,,,,,,,,,,,,,,,,,,,,,,,,,,,,,,,,,,,,,,,,,,,,,,,,,,,,,,,,,,,,,,,,,,,,,,,,,,,,,,,,,,,,,,,,,,,,,,,,,,,,,,,,,,,,,,,,
,,,,,,6170470c7c54261cb56b3565,62c5391615bc9962c572dea2,2022-07-06_09h27.15.204,Colour_Asymmetry_Pilot,2022.1.3,Win32,60.0240096,62c50e9c1127f2cd403a315f,0,49,49,28,1,threeone,,,,,,,,,,,,,,,,,,,,,,,,,,,,,,,,,,,,,,,,,,,,,,,,,,,,,,,,,,,,,,,,,,,,,,,,,,,,,,,,,,,,,,,,,,,,,,,,,,,,,,,,,,,,,,,,,,,,,,,,,,,,,,,,,,,,,,,,,,,,,,,,,,,,,,,,,,,,,,
,,,,,,6170470c7c54261cb56b3565,62c5391615bc9962c572dea2,2022-07-06_09h27.15.204,Colour_Asymmetry_Pilot,2022.1.3,Win32,60.0240096,62c50e9c1127f2cd403a315f,0,50,50,77,1,threefour,,,,,,,,,,,,,,,,,,,,,,,,,,,,,,,,,,,,,,,,,,,,,,,,,,,,,,,,,,,,,,,,,,,,,,,,,,,,,,,,,,,,,,,,,,,,,,,,,,,,,,,,,,,,,,,,,,,,,,,,,,,,,,,,,,,,,,,,,,,,,,,,,,,,,,,,,,,,,,
,,,,,,6170470c7c54261cb56b3565,62c5391615bc9962c572dea2,2022-07-06_09h27.15.204,Colour_Asymmetry_Pilot,2022.1.3,Win32,60.0240096,62c50e9c1127f2cd403a315f,0,51,51,65,1,onethree,,,,,,,,,,,,,,,,,,,,,,,,,,,,,,,,,,,,,,,,,,,,,,,,,,,,,,,,,,,,,,,,,,,,,,,,,,,,,,,,,,,,,,,,,,,,,,,,,,,,,,,,,,,,,,,,,,,,,,,,,,,,,,,,,,,,,,,,,,,,,,,,,,,,,,,,,,,,,,
,,,,,,6170470c7c54261cb56b3565,62c5391615bc9962c572dea2,2022-07-06_09h27.15.204,Colour_Asymmetry_Pilot,2022.1.3,Win32,60.0240096,62c50e9c1127f2cd403a315f,0,52,52,115,1,twofour,,,,,,,,,,,,,,,,,,,,,,,,,,,,,,,,,,,,,,,,,,,,,,,,,,,,,,,,,,,,,,,,,,,,,,,,,,,,,,,,,,,,,,,,,,,,,,,,,,,,,,,,,,,,,,,,,,,,,,,,,,,,,,,,,,,,,,,,,,,,,,,,,,,,,,,,,,,,,,
,,,,,,6170470c7c54261cb56b3565,62c5391615bc9962c572dea2,2022-07-06_09h27.15.204,Colour_Asymmetry_Pilot,2022.1.3,Win32,60.0240096,62c50e9c1127f2cd403a315f,0,53,53,145,1,onethree,,,,,,,,,,,,,,,,,,,,,,,,,,,,,,,,,,,,,,,,,,,,,,,,,,,,,,,,,,,,,,,,,,,,,,,,,,,,,,,,,,,,,,,,,,,,,,,,,,,,,,,,,,,,,,,,,,,,,,,,,,,,,,,,,,,,,,,,,,,,,,,,,,,,,,,,,,,,,,
,,,,,,6170470c7c54261cb56b3565,62c5391615bc9962c572dea2,2022-07-06_09h27.15.204,Colour_Asymmetry_Pilot,2022.1.3,Win32,60.0240096,62c50e9c1127f2cd403a315f,0,54,54,109,1,threefour,,,,,,,,,,,,,,,,,,,,,,,,,,,,,,,,,,,,,,,,,,,,,,,,,,,,,,,,,,,,,,,,,,,,,,,,,,,,,,,,,,,,,,,,,,,,,,,,,,,,,,,,,,,,,,,,,,,,,,,,,,,,,,,,,,,,,,,,,,,,,,,,,,,,,,,,,,,,,,
,,,,,,6170470c7c54261cb56b3565,62c5391615bc9962c572dea2,2022-07-06_09h27.15.204,Colour_Asymmetry_Pilot,2022.1.3,Win32,60.0240096,62c50e9c1127f2cd403a315f,0,55,55,92,1,threeone,,,,,,,,,,,,,,,,,,,,,,,,,,,,,,,,,,,,,,,,,,,,,,,,,,,,,,,,,,,,,,,,,,,,,,,,,,,,,,,,,,,,,,,,,,,,,,,,,,,,,,,,,,,,,,,,,,,,,,,,,,,,,,,,,,,,,,,,,,,,,,,,,,,,,,,,,,,,,,
,,,,,,6170470c7c54261cb56b3565,62c5391615bc9962c572dea2,2022-07-06_09h27.15.204,Colour_Asymmetry_Pilot,2022.1.3,Win32,60.0240096,62c50e9c1127f2cd403a315f,0,56,56,78,1,fourtwo,,,,,,,,,,,,,,,,,,,,,,,,,,,,,,,,,,,,,,,,,,,,,,,,,,,,,,,,,,,,,,,,,,,,,,,,,,,,,,,,,,,,,,,,,,,,,,,,,,,,,,,,,,,,,,,,,,,,,,,,,,,,,,,,,,,,,,,,,,,,,,,,,,,,,,,,,,,,,,
,,,,,,6170470c7c54261cb56b3565,62c5391615bc9962c572dea2,2022-07-06_09h27.15.204,Colour_Asymmetry_Pilot,2022.1.3,Win32,60.0240096,62c50e9c1127f2cd403a315f,0,57,57,93,1,threefour,,,,,,,,,,,,,,,,,,,,,,,,,,,,,,,,,,,,,,,,,,,,,,,,,,,,,,,,,,,,,,,,,,,,,,,,,,,,,,,,,,,,,,,,,,,,,,,,,,,,,,,,,,,,,,,,,,,,,,,,,,,,,,,,,,,,,,,,,,,,,,,,,,,,,,,,,,,,,,
,,,,,,6170470c7c54261cb56b3565,62c5391615bc9962c572dea2,2022-07-06_09h27.15.204,Colour_Asymmetry_Pilot,2022.1.3,Win32,60.0240096,62c50e9c1127f2cd403a315f,0,58,58,112,1,onetwo,,,,,,,,,,,,,,,,,,,,,,,,,,,,,,,,,,,,,,,,,,,,,,,,,,,,,,,,,,,,,,,,,,,,,,,,,,,,,,,,,,,,,,,,,,,,,,,,,,,,,,,,,,,,,,,,,,,,,,,,,,,,,,,,,,,,,,,,,,,,,,,,,,,,,,,,,,,,,,
,,,,,,6170470c7c54261cb56b3565,62c5391615bc9962c572dea2,2022-07-06_09h27.15.204,Colour_Asymmetry_Pilot,2022.1.3,Win32,60.0240096,62c50e9c1127f2cd403a315f,0,59,59,79,1,fourthree,,,,,,,,,,,,,,,,,,,,,,,,,,,,,,,,,,,,,,,,,,,,,,,,,,,,,,,,,,,,,,,,,,,,,,,,,,,,,,,,,,,,,,,,,,,,,,,,,,,,,,,,,,,,,,,,,,,,,,,,,,,,,,,,,,,,,,,,,,,,,,,,,,,,,,,,,,,,,,
,,,,,,6170470c7c54261cb56b3565,62c5391615bc9962c572dea2,2022-07-06_09h27.15.204,Colour_Asymmetry_Pilot,2022.1.3,Win32,60.0240096,62c50e9c1127f2cd403a315f,0,60,60,125,1,threefour,,,,,,,,,,,,,,,,,,,,,,,,,,,,,,,,,,,,,,,,,,,,,,,,,,,,,,,,,,,,,,,,,,,,,,,,,,,,,,,,,,,,,,,,,,,,,,,,,,,,,,,,,,,,,,,,,,,,,,,,,,,,,,,,,,,,,,,,,,,,,,,,,,,,,,,,,,,,,,
,,,,,,6170470c7c54261cb56b3565,62c5391615bc9962c572dea2,2022-07-06_09h27.15.204,Colour_Asymmetry_Pilot,2022.1.3,Win32,60.0240096,62c50e9c1127f2cd403a315f,0,61,61,120,1,onetwo,,,,,,,,,,,,,,,,,,,,,,,,,,,,,,,,,,,,,,,,,,,,,,,,,,,,,,,,,,,,,,,,,,,,,,,,,,,,,,,,,,,,,,,,,,,,,,,,,,,,,,,,,,,,,,,,,,,,,,,,,,,,,,,,,,,,,,,,,,,,,,,,,,,,,,,,,,,,,,
,,,,,,6170470c7c54261cb56b3565,62c5391615bc9962c572dea2,2022-07-06_09h27.15.204,Colour_Asymmetry_Pilot,2022.1.3,Win32,60.0240096,62c50e9c1127f2cd403a315f,0,62,62,94,1,fourtwo,,,,,,,,,,,,,,,,,,,,,,,,,,,,,,,,,,,,,,,,,,,,,,,,,,,,,,,,,,,,,,,,,,,,,,,,,,,,,,,,,,,,,,,,,,,,,,,,,,,,,,,,,,,,,,,,,,,,,,,,,,,,,,,,,,,,,,,,,,,,,,,,,,,,,,,,,,,,,,
,,,,,,6170470c7c54261cb56b3565,62c5391615bc9962c572dea2,2022-07-06_09h27.15.204,Colour_Asymmetry_Pilot,2022.1.3,Win32,60.0240096,62c50e9c1127f2cd403a315f,0,63,63,138,1,twoone,,,,,,,,,,,,,,,,,,,,,,,,,,,,,,,,,,,,,,,,,,,,,,,,,,,,,,,,,,,,,,,,,,,,,,,,,,,,,,,,,,,,,,,,,,,,,,,,,,,,,,,,,,,,,,,,,,,,,,,,,,,,,,,,,,,,,,,,,,,,,,,,,,,,,,,,,,,,,,
,,,,,,6170470c7c54261cb56b3565,62c5391615bc9962c572dea2,2022-07-06_09h27.15.204,Colour_Asymmetry_Pilot,2022.1.3,Win32,60.0240096,62c50e9c1127f2cd403a315f,0,64,64,19,1,twofour,,,,,,,,,,,,,,,,,,,,,,,,,,,,,,,,,,,,,,,,,,,,,,,,,,,,,,,,,,,,,,,,,,,,,,,,,,,,,,,,,,,,,,,,,,,,,,,,,,,,,,,,,,,,,,,,,,,,,,,,,,,,,,,,,,,,,,,,,,,,,,,,,,,,,,,,,,,,,,
,,,,,,6170470c7c54261cb56b3565,62c5391615bc9962c572dea2,2022-07-06_09h27.15.204,Colour_Asymmetry_Pilot,2022.1.3,Win32,60.0240096,62c50e9c1127f2cd403a315f,0,65,65,74,1,twoone,,,,,,,,,,,,,,,,,,,,,,,,,,,,,,,,,,,,,,,,,,,,,,,,,,,,,,,,,,,,,,,,,,,,,,,,,,,,,,,,,,,,,,,,,,,,,,,,,,,,,,,,,,,,,,,,,,,,,,,,,,,,,,,,,,,,,,,,,,,,,,,,,,,,,,,,,,,,,,
,,,,,,6170470c7c54261cb56b3565,62c5391615bc9962c572dea2,2022-07-06_09h27.15.204,Colour_Asymmetry_Pilot,2022.1.3,Win32,60.0240096,62c50e9c1127f2cd403a315f,0,66,66,71,1,fourthree,,,,,,,,,,,,,,,,,,,,,,,,,,,,,,,,,,,,,,,,,,,,,,,,,,,,,,,,,,,,,,,,,,,,,,,,,,,,,,,,,,,,,,,,,,,,,,,,,,,,,,,,,,,,,,,,,,,,,,,,,,,,,,,,,,,,,,,,,,,,,,,,,,,,,,,,,,,,,,
,,,,,,6170470c7c54261cb56b3565,62c5391615bc9962c572dea2,2022-07-06_09h27.15.204,Colour_Asymmetry_Pilot,2022.1.3,Win32,60.0240096,62c50e9c1127f2cd403a315f,0,67,67,142,1,fourtwo,,,,,,,,,,,,,,,,,,,,,,,,,,,,,,,,,,,,,,,,,,,,,,,,,,,,,,,,,,,,,,,,,,,,,,,,,,,,,,,,,,,,,,,,,,,,,,,,,,,,,,,,,,,,,,,,,,,,,,,,,,,,,,,,,,,,,,,,,,,,,,,,,,,,,,,,,,,,,,
,,,,,,6170470c7c54261cb56b3565,62c5391615bc9962c572dea2,2022-07-06_09h27.15.204,Colour_Asymmetry_Pilot,2022.1.3,Win32,60.0240096,62c50e9c1127f2cd403a315f,0,68,68,55,1,fourthree,,,,,,,,,,,,,,,,,,,,,,,,,,,,,,,,,,,,,,,,,,,,,,,,,,,,,,,,,,,,,,,,,,,,,,,,,,,,,,,,,,,,,,,,,,,,,,,,,,,,,,,,,,,,,,,,,,,,,,,,,,,,,,,,,,,,,,,,,,,,,,,,,,,,,,,,,,,,,,
,,,,,,6170470c7c54261cb56b3565,62c5391615bc9962c572dea2,2022-07-06_09h27.15.204,Colour_Asymmetry_Pilot,2022.1.3,Win32,60.0240096,62c50e9c1127f2cd403a315f,0,69,69,128,1,onetwo,,,,,,,,,,,,,,,,,,,,,,,,,,,,,,,,,,,,,,,,,,,,,,,,,,,,,,,,,,,,,,,,,,,,,,,,,,,,,,,,,,,,,,,,,,,,,,,,,,,,,,,,,,,,,,,,,,,,,,,,,,,,,,,,,,,,,,,,,,,,,,,,,,,,,,,,,,,,,,
,,,,,,6170470c7c54261cb56b3565,62c5391615bc9962c572dea2,2022-07-06_09h27.15.204,Colour_Asymmetry_Pilot,2022.1.3,Win32,60.0240096,62c50e9c1127f2cd403a315f,0,70,70,26,1,twoone,,,,,,,,,,,,,,,,,,,,,,,,,,,,,,,,,,,,,,,,,,,,,,,,,,,,,,,,,,,,,,,,,,,,,,,,,,,,,,,,,,,,,,,,,,,,,,,,,,,,,,,,,,,,,,,,,,,,,,,,,,,,,,,,,,,,,,,,,,,,,,,,,,,,,,,,,,,,,,
,,,,,,6170470c7c54261cb56b3565,62c5391615bc9962c572dea2,2022-07-06_09h27.15.204,Colour_Asymmetry_Pilot,2022.1.3,Win32,60.0240096,62c50e9c1127f2cd403a315f,0,71,71,89,1,onethree,,,,,,,,,,,,,,,,,,,,,,,,,,,,,,,,,,,,,,,,,,,,,,,,,,,,,,,,,,,,,,,,,,,,,,,,,,,,,,,,,,,,,,,,,,,,,,,,,,,,,,,,,,,,,,,,,,,,,,,,,,,,,,,,,,,,,,,,,,,,,,,,,,,,,,,,,,,,,,
,,,,,,6170470c7c54261cb56b3565,62c5391615bc9962c572dea2,2022-07-06_09h27.15.204,Colour_Asymmetry_Pilot,2022.1.3,Win32,60.0240096,62c50e9c1127f2cd403a315f,0,72,72,44,1,threeone,,,,,,,,,,,,,,,,,,,,,,,,,,,,,,,,,,,,,,,,,,,,,,,,,,,,,,,,,,,,,,,,,,,,,,,,,,,,,,,,,,,,,,,,,,,,,,,,,,,,,,,,,,,,,,,,,,,,,,,,,,,,,,,,,,,,,,,,,,,,,,,,,,,,,,,,,,,,,,
,,,,,,6170470c7c54261cb56b3565,62c5391615bc9962c572dea2,2022-07-06_09h27.15.204,Colour_Asymmetry_Pilot,2022.1.3,Win32,60.0240096,62c50e9c1127f2cd403a315f,0,73,73,9,1,onethree,,,,,,,,,,,,,,,,,,,,,,,,,,,,,,,,,,,,,,,,,,,,,,,,,,,,,,,,,,,,,,,,,,,,,,,,,,,,,,,,,,,,,,,,,,,,,,,,,,,,,,,,,,,,,,,,,,,,,,,,,,,,,,,,,,,,,,,,,,,,,,,,,,,,,,,,,,,,,,
,,,,,,6170470c7c54261cb56b3565,62c5391615bc9962c572dea2,2022-07-06_09h27.15.204,Colour_Asymmetry_Pilot,2022.1.3,Win32,60.0240096,62c50e9c1127f2cd403a315f,0,74,74,124,1,threeone,,,,,,,,,,,,,,,,,,,,,,,,,,,,,,,,,,,,,,,,,,,,,,,,,,,,,,,,,,,,,,,,,,,,,,,,,,,,,,,,,,,,,,,,,,,,,,,,,,,,,,,,,,,,,,,,,,,,,,,,,,,,,,,,,,,,,,,,,,,,,,,,,,,,,,,,,,,,,,
,,,,,,6170470c7c54261cb56b3565,62c5391615bc9962c572dea2,2022-07-06_09h27.15.204,Colour_Asymmetry_Pilot,2022.1.3,Win32,60.0240096,62c50e9c1127f2cd403a315f,0,75,75,80,1,onetwo,,,,,,,,,,,,,,,,,,,,,,,,,,,,,,,,,,,,,,,,,,,,,,,,,,,,,,,,,,,,,,,,,,,,,,,,,,,,,,,,,,,,,,,,,,,,,,,,,,,,,,,,,,,,,,,,,,,,,,,,,,,,,,,,,,,,,,,,,,,,,,,,,,,,,,,,,,,,,,
,,,,,,6170470c7c54261cb56b3565,62c5391615bc9962c572dea2,2022-07-06_09h27.15.204,Colour_Asymmetry_Pilot,2022.1.3,Win32,60.0240096,62c50e9c1127f2cd403a315f,0,76,76,118,1,fourtwo,,,,,,,,,,,,,,,,,,,,,,,,,,,,,,,,,,,,,,,,,,,,,,,,,,,,,,,,,,,,,,,,,,,,,,,,,,,,,,,,,,,,,,,,,,,,,,,,,,,,,,,,,,,,,,,,,,,,,,,,,,,,,,,,,,,,,,,,,,,,,,,,,,,,,,,,,,,,,,
,,,,,,6170470c7c54261cb56b3565,62c5391615bc9962c572dea2,2022-07-06_09h27.15.204,Colour_Asymmetry_Pilot,2022.1.3,Win32,60.0240096,62c50e9c1127f2cd403a315f,0,77,77,155,1,twofour,,,,,,,,,,,,,,,,,,,,,,,,,,,,,,,,,,,,,,,,,,,,,,,,,,,,,,,,,,,,,,,,,,,,,,,,,,,,,,,,,,,,,,,,,,,,,,,,,,,,,,,,,,,,,,,,,,,,,,,,,,,,,,,,,,,,,,,,,,,,,,,,,,,,,,,,,,,,,,
,,,,,,6170470c7c54261cb56b3565,62c5391615bc9962c572dea2,2022-07-06_09h27.15.204,Colour_Asymmetry_Pilot,2022.1.3,Win32,60.0240096,62c50e9c1127f2cd403a315f,0,78,78,113,1,onethree,,,,,,,,,,,,,,,,,,,,,,,,,,,,,,,,,,,,,,,,,,,,,,,,,,,,,,,,,,,,,,,,,,,,,,,,,,,,,,,,,,,,,,,,,,,,,,,,,,,,,,,,,,,,,,,,,,,,,,,,,,,,,,,,,,,,,,,,,,,,,,,,,,,,,,,,,,,,,,
,,,,,,6170470c7c54261cb56b3565,62c5391615bc9962c572dea2,2022-07-06_09h27.15.204,Colour_Asymmetry_Pilot,2022.1.3,Win32,60.0240096,62c50e9c1127f2cd403a315f,0,79,79,25,1,onethree,,,,,,,,,,,,,,,,,,,,,,,,,,,,,,,,,,,,,,,,,,,,,,,,,,,,,,,,,,,,,,,,,,,,,,,,,,,,,,,,,,,,,,,,,,,,,,,,,,,,,,,,,,,,,,,,,,,,,,,,,,,,,,,,,,,,,,,,,,,,,,,,,,,,,,,,,,,,,,
,,,,,,6170470c7c54261cb56b3565,62c5391615bc9962c572dea2,2022-07-06_09h27.15.204,Colour_Asymmetry_Pilot,2022.1.3,Win32,60.0240096,62c50e9c1127f2cd403a315f,0,80,80,12,1,threeone,,,,,,,,,,,,,,,,,,,,,,,,,,,,,,,,,,,,,,,,,,,,,,,,,,,,,,,,,,,,,,,,,,,,,,,,,,,,,,,,,,,,,,,,,,,,,,,,,,,,,,,,,,,,,,,,,,,,,,,,,,,,,,,,,,,,,,,,,,,,,,,,,,,,,,,,,,,,,,
,,,,,,6170470c7c54261cb56b3565,62c5391615bc9962c572dea2,2022-07-06_09h27.15.204,Colour_Asymmetry_Pilot,2022.1.3,Win32,60.0240096,62c50e9c1127f2cd403a315f,0,81,81,35,1,twofour,,,,,,,,,,,,,,,,,,,,,,,,,,,,,,,,,,,,,,,,,,,,,,,,,,,,,,,,,,,,,,,,,,,,,,,,,,,,,,,,,,,,,,,,,,,,,,,,,,,,,,,,,,,,,,,,,,,,,,,,,,,,,,,,,,,,,,,,,,,,,,,,,,,,,,,,,,,,,,
,,,,,,6170470c7c54261cb56b3565,62c5391615bc9962c572dea2,2022-07-06_09h27.15.204,Colour_Asymmetry_Pilot,2022.1.3,Win32,60.0240096,62c50e9c1127f2cd403a315f,0,82,82,24,1,onetwo,,,,,,,,,,,,,,,,,,,,,,,,,,,,,,,,,,,,,,,,,,,,,,,,,,,,,,,,,,,,,,,,,,,,,,,,,,,,,,,,,,,,,,,,,,,,,,,,,,,,,,,,,,,,,,,,,,,,,,,,,,,,,,,,,,,,,,,,,,,,,,,,,,,,,,,,,,,,,,
,,,,,,6170470c7c54261cb56b3565,62c5391615bc9962c572dea2,2022-07-06_09h27.15.204,Colour_Asymmetry_Pilot,2022.1.3,Win32,60.0240096,62c50e9c1127f2cd403a315f,0,83,83,7,1,fourthree,,,,,,,,,,,,,,,,,,,,,,,,,,,,,,,,,,,,,,,,,,,,,,,,,,,,,,,,,,,,,,,,,,,,,,,,,,,,,,,,,,,,,,,,,,,,,,,,,,,,,,,,,,,,,,,,,,,,,,,,,,,,,,,,,,,,,,,,,,,,,,,,,,,,,,,,,,,,,,
,,,,,,6170470c7c54261cb56b3565,62c5391615bc9962c572dea2,2022-07-06_09h27.15.204,Colour_Asymmetry_Pilot,2022.1.3,Win32,60.0240096,62c50e9c1127f2cd403a315f,0,84,84,34,1,twoone,,,,,,,,,,,,,,,,,,,,,,,,,,,,,,,,,,,,,,,,,,,,,,,,,,,,,,,,,,,,,,,,,,,,,,,,,,,,,,,,,,,,,,,,,,,,,,,,,,,,,,,,,,,,,,,,,,,,,,,,,,,,,,,,,,,,,,,,,,,,,,,,,,,,,,,,,,,,,,
,,,,,,6170470c7c54261cb56b3565,62c5391615bc9962c572dea2,2022-07-06_09h27.15.204,Colour_Asymmetry_Pilot,2022.1.3,Win32,60.0240096,62c50e9c1127f2cd403a315f,0,85,85,32,1,onetwo,,,,,,,,,,,,,,,,,,,,,,,,,,,,,,,,,,,,,,,,,,,,,,,,,,,,,,,,,,,,,,,,,,,,,,,,,,,,,,,,,,,,,,,,,,,,,,,,,,,,,,,,,,,,,,,,,,,,,,,,,,,,,,,,,,,,,,,,,,,,,,,,,,,,,,,,,,,,,,
,,,,,,6170470c7c54261cb56b3565,62c5391615bc9962c572dea2,2022-07-06_09h27.15.204,Colour_Asymmetry_Pilot,2022.1.3,Win32,60.0240096,62c50e9c1127f2cd403a315f,0,86,86,76,1,threeone,,,,,,,,,,,,,,,,,,,,,,,,,,,,,,,,,,,,,,,,,,,,,,,,,,,,,,,,,,,,,,,,,,,,,,,,,,,,,,,,,,,,,,,,,,,,,,,,,,,,,,,,,,,,,,,,,,,,,,,,,,,,,,,,,,,,,,,,,,,,,,,,,,,,,,,,,,,,,,
,,,,,,6170470c7c54261cb56b3565,62c5391615bc9962c572dea2,2022-07-06_09h27.15.204,Colour_Asymmetry_Pilot,2022.1.3,Win32,60.0240096,62c50e9c1127f2cd403a315f,0,87,87,64,1,onetwo,,,,,,,,,,,,,,,,,,,,,,,,,,,,,,,,,,,,,,,,,,,,,,,,,,,,,,,,,,,,,,,,,,,,,,,,,,,,,,,,,,,,,,,,,,,,,,,,,,,,,,,,,,,,,,,,,,,,,,,,,,,,,,,,,,,,,,,,,,,,,,,,,,,,,,,,,,,,,,
,,,,,,6170470c7c54261cb56b3565,62c5391615bc9962c572dea2,2022-07-06_09h27.15.204,Colour_Asymmetry_Pilot,2022.1.3,Win32,60.0240096,62c50e9c1127f2cd403a315f,0,88,88,83,1,twofour,,,,,,,,,,,,,,,,,,,,,,,,,,,,,,,,,,,,,,,,,,,,,,,,,,,,,,,,,,,,,,,,,,,,,,,,,,,,,,,,,,,,,,,,,,,,,,,,,,,,,,,,,,,,,,,,,,,,,,,,,,,,,,,,,,,,,,,,,,,,,,,,,,,,,,,,,,,,,,
,,,,,,6170470c7c54261cb56b3565,62c5391615bc9962c572dea2,2022-07-06_09h27.15.204,Colour_Asymmetry_Pilot,2022.1.3,Win32,60.0240096,62c50e9c1127f2cd403a315f,0,89,89,157,1,threefour,,,,,,,,,,,,,,,,,,,,,,,,,,,,,,,,,,,,,,,,,,,,,,,,,,,,,,,,,,,,,,,,,,,,,,,,,,,,,,,,,,,,,,,,,,,,,,,,,,,,,,,,,,,,,,,,,,,,,,,,,,,,,,,,,,,,,,,,,,,,,,,,,,,,,,,,,,,,,,
,,,,,,6170470c7c54261cb56b3565,62c5391615bc9962c572dea2,2022-07-06_09h27.15.204,Colour_Asymmetry_Pilot,2022.1.3,Win32,60.0240096,62c50e9c1127f2cd403a315f,0,90,90,36,1,threeone,,,,,,,,,,,,,,,,,,,,,,,,,,,,,,,,,,,,,,,,,,,,,,,,,,,,,,,,,,,,,,,,,,,,,,,,,,,,,,,,,,,,,,,,,,,,,,,,,,,,,,,,,,,,,,,,,,,,,,,,,,,,,,,,,,,,,,,,,,,,,,,,,,,,,,,,,,,,,,
,,,,,,6170470c7c54261cb56b3565,62c5391615bc9962c572dea2,2022-07-06_09h27.15.204,Colour_Asymmetry_Pilot,2022.1.3,Win32,60.0240096,62c50e9c1127f2cd403a315f,0,91,91,10,1,twoone,,,,,,,,,,,,,,,,,,,,,,,,,,,,,,,,,,,,,,,,,,,,,,,,,,,,,,,,,,,,,,,,,,,,,,,,,,,,,,,,,,,,,,,,,,,,,,,,,,,,,,,,,,,,,,,,,,,,,,,,,,,,,,,,,,,,,,,,,,,,,,,,,,,,,,,,,,,,,,
,,,,,,6170470c7c54261cb56b3565,62c5391615bc9962c572dea2,2022-07-06_09h27.15.204,Colour_Asymmetry_Pilot,2022.1.3,Win32,60.0240096,62c50e9c1127f2cd403a315f,0,92,92,159,1,fourthree,,,,,,,,,,,,,,,,,,,,,,,,,,,,,,,,,,,,,,,,,,,,,,,,,,,,,,,,,,,,,,,,,,,,,,,,,,,,,,,,,,,,,,,,,,,,,,,,,,,,,,,,,,,,,,,,,,,,,,,,,,,,,,,,,,,,,,,,,,,,,,,,,,,,,,,,,,,,,,
,,,,,,6170470c7c54261cb56b3565,62c5391615bc9962c572dea2,2022-07-06_09h27.15.204,Colour_Asymmetry_Pilot,2022.1.3,Win32,60.0240096,62c50e9c1127f2cd403a315f,0,93,93,50,1,twoone,,,,,,,,,,,,,,,,,,,,,,,,,,,,,,,,,,,,,,,,,,,,,,,,,,,,,,,,,,,,,,,,,,,,,,,,,,,,,,,,,,,,,,,,,,,,,,,,,,,,,,,,,,,,,,,,,,,,,,,,,,,,,,,,,,,,,,,,,,,,,,,,,,,,,,,,,,,,,,
,,,,,,6170470c7c54261cb56b3565,62c5391615bc9962c572dea2,2022-07-06_09h27.15.204,Colour_Asymmetry_Pilot,2022.1.3,Win32,60.0240096,62c50e9c1127f2cd403a315f,0,94,94,127,1,fourthree,,,,,,,,,,,,,,,,,,,,,,,,,,,,,,,,,,,,,,,,,,,,,,,,,,,,,,,,,,,,,,,,,,,,,,,,,,,,,,,,,,,,,,,,,,,,,,,,,,,,,,,,,,,,,,,,,,,,,,,,,,,,,,,,,,,,,,,,,,,,,,,,,,,,,,,,,,,,,,
,,,,,,6170470c7c54261cb56b3565,62c5391615bc9962c572dea2,2022-07-06_09h27.15.204,Colour_Asymmetry_Pilot,2022.1.3,Win32,60.0240096,62c50e9c1127f2cd403a315f,0,95,95,137,1,onethree,,,,,,,,,,,,,,,,,,,,,,,,,,,,,,,,,,,,,,,,,,,,,,,,,,,,,,,,,,,,,,,,,,,,,,,,,,,,,,,,,,,,,,,,,,,,,,,,,,,,,,,,,,,,,,,,,,,,,,,,,,,,,,,,,,,,,,,,,,,,,,,,,,,,,,,,,,,,,,
,,,,,,6170470c7c54261cb56b3565,62c5391615bc9962c572dea2,2022-07-06_09h27.15.204,Colour_Asymmetry_Pilot,2022.1.3,Win32,60.0240096,62c50e9c1127f2cd403a315f,0,96,96,146,1,twoone,,,,,,,,,,,,,,,,,,,,,,,,,,,,,,,,,,,,,,,,,,,,,,,,,,,,,,,,,,,,,,,,,,,,,,,,,,,,,,,,,,,,,,,,,,,,,,,,,,,,,,,,,,,,,,,,,,,,,,,,,,,,,,,,,,,,,,,,,,,,,,,,,,,,,,,,,,,,,,
,,,,,,6170470c7c54261cb56b3565,62c5391615bc9962c572dea2,2022-07-06_09h27.15.204,Colour_Asymmetry_Pilot,2022.1.3,Win32,60.0240096,62c50e9c1127f2cd403a315f,0,97,97,147,1,twofour,,,,,,,,,,,,,,,,,,,,,,,,,,,,,,,,,,,,,,,,,,,,,,,,,,,,,,,,,,,,,,,,,,,,,,,,,,,,,,,,,,,,,,,,,,,,,,,,,,,,,,,,,,,,,,,,,,,,,,,,,,,,,,,,,,,,,,,,,,,,,,,,,,,,,,,,,,,,,,
,,,,,,6170470c7c54261cb56b3565,62c5391615bc9962c572dea2,2022-07-06_09h27.15.204,Colour_Asymmetry_Pilot,2022.1.3,Win32,60.0240096,62c50e9c1127f2cd403a315f,0,98,98,122,1,twoone,,,,,,,,,,,,,,,,,,,,,,,,,,,,,,,,,,,,,,,,,,,,,,,,,,,,,,,,,,,,,,,,,,,,,,,,,,,,,,,,,,,,,,,,,,,,,,,,,,,,,,,,,,,,,,,,,,,,,,,,,,,,,,,,,,,,,,,,,,,,,,,,,,,,,,,,,,,,,,
,,,,,,6170470c7c54261cb56b3565,62c5391615bc9962c572dea2,2022-07-06_09h27.15.204,Colour_Asymmetry_Pilot,2022.1.3,Win32,60.0240096,62c50e9c1127f2cd403a315f,0,99,99,5,1,threefour,,,,,,,,,,,,,,,,,,,,,,,,,,,,,,,,,,,,,,,,,,,,,,,,,,,,,,,,,,,,,,,,,,,,,,,,,,,,,,,,,,,,,,,,,,,,,,,,,,,,,,,,,,,,,,,,,,,,,,,,,,,,,,,,,,,,,,,,,,,,,,,,,,,,,,,,,,,,,,
,,,,,,6170470c7c54261cb56b3565,62c5391615bc9962c572dea2,2022-07-06_09h27.15.204,Colour_Asymmetry_Pilot,2022.1.3,Win32,60.0240096,62c50e9c1127f2cd403a315f,0,100,100,1,1,onethree,,,,,,,,,,,,,,,,,,,,,,,,,,,,,,,,,,,,,,,,,,,,,,,,,,,,,,,,,,,,,,,,,,,,,,,,,,,,,,,,,,,,,,,,,,,,,,,,,,,,,,,,,,,,,,,,,,,,,,,,,,,,,,,,,,,,,,,,,,,,,,,,,,,,,,,,,,,,,,
,,,,,,6170470c7c54261cb56b3565,62c5391615bc9962c572dea2,2022-07-06_09h27.15.204,Colour_Asymmetry_Pilot,2022.1.3,Win32,60.0240096,62c50e9c1127f2cd403a315f,0,101,101,135,1,fourthree,,,,,,,,,,,,,,,,,,,,,,,,,,,,,,,,,,,,,,,,,,,,,,,,,,,,,,,,,,,,,,,,,,,,,,,,,,,,,,,,,,,,,,,,,,,,,,,,,,,,,,,,,,,,,,,,,,,,,,,,,,,,,,,,,,,,,,,,,,,,,,,,,,,,,,,,,,,,,,
,,,,,,6170470c7c54261cb56b3565,62c5391615bc9962c572dea2,2022-07-06_09h27.15.204,Colour_Asymmetry_Pilot,2022.1.3,Win32,60.0240096,62c50e9c1127f2cd403a315f,0,102,102,99,1,twofour,,,,,,,,,,,,,,,,,,,,,,,,,,,,,,,,,,,,,,,,,,,,,,,,,,,,,,,,,,,,,,,,,,,,,,,,,,,,,,,,,,,,,,,,,,,,,,,,,,,,,,,,,,,,,,,,,,,,,,,,,,,,,,,,,,,,,,,,,,,,,,,,,,,,,,,,,,,,,,
,,,,,,6170470c7c54261cb56b3565,62c5391615bc9962c572dea2,2022-07-06_09h27.15.204,Colour_Asymmetry_Pilot,2022.1.3,Win32,60.0240096,62c50e9c1127f2cd403a315f,0,103,103,100,1,threeone,,,,,,,,,,,,,,,,,,,,,,,,,,,,,,,,,,,,,,,,,,,,,,,,,,,,,,,,,,,,,,,,,,,,,,,,,,,,,,,,,,,,,,,,,,,,,,,,,,,,,,,,,,,,,,,,,,,,,,,,,,,,,,,,,,,,,,,,,,,,,,,,,,,,,,,,,,,,,,
,,,,,,6170470c7c54261cb56b3565,62c5391615bc9962c572dea2,2022-07-06_09h27.15.204,Colour_Asymmetry_Pilot,2022.1.3,Win32,60.0240096,62c50e9c1127f2cd403a315f,0,104,104,90,1,twoone,,,,,,,,,,,,,,,,,,,,,,,,,,,,,,,,,,,,,,,,,,,,,,,,,,,,,,,,,,,,,,,,,,,,,,,,,,,,,,,,,,,,,,,,,,,,,,,,,,,,,,,,,,,,,,,,,,,,,,,,,,,,,,,,,,,,,,,,,,,,,,,,,,,,,,,,,,,,,,
,,,,,,6170470c7c54261cb56b3565,62c5391615bc9962c572dea2,2022-07-06_09h27.15.204,Colour_Asymmetry_Pilot,2022.1.3,Win32,60.0240096,62c50e9c1127f2cd403a315f,0,105,105,152,1,onetwo,,,,,,,,,,,,,,,,,,,,,,,,,,,,,,,,,,,,,,,,,,,,,,,,,,,,,,,,,,,,,,,,,,,,,,,,,,,,,,,,,,,,,,,,,,,,,,,,,,,,,,,,,,,,,,,,,,,,,,,,,,,,,,,,,,,,,,,,,,,,,,,,,,,,,,,,,,,,,,
,,,,,,6170470c7c54261cb56b3565,62c5391615bc9962c572dea2,2022-07-06_09h27.15.204,Colour_Asymmetry_Pilot,2022.1.3,Win32,60.0240096,62c50e9c1127f2cd403a315f,0,106,106,104,1,onetwo,,,,,,,,,,,,,,,,,,,,,,,,,,,,,,,,,,,,,,,,,,,,,,,,,,,,,,,,,,,,,,,,,,,,,,,,,,,,,,,,,,,,,,,,,,,,,,,,,,,,,,,,,,,,,,,,,,,,,,,,,,,,,,,,,,,,,,,,,,,,,,,,,,,,,,,,,,,,,,
,,,,,,6170470c7c54261cb56b3565,62c5391615bc9962c572dea2,2022-07-06_09h27.15.204,Colour_Asymmetry_Pilot,2022.1.3,Win32,60.0240096,62c50e9c1127f2cd403a315f,0,107,107,2,1,twoone,,,,,,,,,,,,,,,,,,,,,,,,,,,,,,,,,,,,,,,,,,,,,,,,,,,,,,,,,,,,,,,,,,,,,,,,,,,,,,,,,,,,,,,,,,,,,,,,,,,,,,,,,,,,,,,,,,,,,,,,,,,,,,,,,,,,,,,,,,,,,,,,,,,,,,,,,,,,,,
,,,,,,6170470c7c54261cb56b3565,62c5391615bc9962c572dea2,2022-07-06_09h27.15.204,Colour_Asymmetry_Pilot,2022.1.3,Win32,60.0240096,62c50e9c1127f2cd403a315f,0,108,108,86,1,fourtwo,,,,,,,,,,,,,,,,,,,,,,,,,,,,,,,,,,,,,,,,,,,,,,,,,,,,,,,,,,,,,,,,,,,,,,,,,,,,,,,,,,,,,,,,,,,,,,,,,,,,,,,,,,,,,,,,,,,,,,,,,,,,,,,,,,,,,,,,,,,,,,,,,,,,,,,,,,,,,,
,,,,,,6170470c7c54261cb56b3565,62c5391615bc9962c572dea2,2022-07-06_09h27.15.204,Colour_Asymmetry_Pilot,2022.1.3,Win32,60.0240096,62c50e9c1127f2cd403a315f,0,109,109,61,1,threefour,,,,,,,,,,,,,,,,,,,,,,,,,,,,,,,,,,,,,,,,,,,,,,,,,,,,,,,,,,,,,,,,,,,,,,,,,,,,,,,,,,,,,,,,,,,,,,,,,,,,,,,,,,,,,,,,,,,,,,,,,,,,,,,,,,,,,,,,,,,,,,,,,,,,,,,,,,,,,,
,,,,,,6170470c7c54261cb56b3565,62c5391615bc9962c572dea2,2022-07-06_09h27.15.204,Colour_Asymmetry_Pilot,2022.1.3,Win32,60.0240096,62c50e9c1127f2cd403a315f,0,110,110,14,1,fourtwo,,,,,,,,,,,,,,,,,,,,,,,,,,,,,,,,,,,,,,,,,,,,,,,,,,,,,,,,,,,,,,,,,,,,,,,,,,,,,,,,,,,,,,,,,,,,,,,,,,,,,,,,,,,,,,,,,,,,,,,,,,,,,,,,,,,,,,,,,,,,,,,,,,,,,,,,,,,,,,
,,,,,,6170470c7c54261cb56b3565,62c5391615bc9962c572dea2,2022-07-06_09h27.15.204,Colour_Asymmetry_Pilot,2022.1.3,Win32,60.0240096,62c50e9c1127f2cd403a315f,0,111,111,67,1,twofour,,,,,,,,,,,,,,,,,,,,,,,,,,,,,,,,,,,,,,,,,,,,,,,,,,,,,,,,,,,,,,,,,,,,,,,,,,,,,,,,,,,,,,,,,,,,,,,,,,,,,,,,,,,,,,,,,,,,,,,,,,,,,,,,,,,,,,,,,,,,,,,,,,,,,,,,,,,,,,
,,,,,,6170470c7c54261cb56b3565,62c5391615bc9962c572dea2,2022-07-06_09h27.15.204,Colour_Asymmetry_Pilot,2022.1.3,Win32,60.0240096,62c50e9c1127f2cd403a315f,0,112,112,4,1,threeone,,,,,,,,,,,,,,,,,,,,,,,,,,,,,,,,,,,,,,,,,,,,,,,,,,,,,,,,,,,,,,,,,,,,,,,,,,,,,,,,,,,,,,,,,,,,,,,,,,,,,,,,,,,,,,,,,,,,,,,,,,,,,,,,,,,,,,,,,,,,,,,,,,,,,,,,,,,,,,
,,,,,,6170470c7c54261cb56b3565,62c5391615bc9962c572dea2,2022-07-06_09h27.15.204,Colour_Asymmetry_Pilot,2022.1.3,Win32,60.0240096,62c50e9c1127f2cd403a315f,0,113,113,57,1,onethree,,,,,,,,,,,,,,,,,,,,,,,,,,,,,,,,,,,,,,,,,,,,,,,,,,,,,,,,,,,,,,,,,,,,,,,,,,,,,,,,,,,,,,,,,,,,,,,,,,,,,,,,,,,,,,,,,,,,,,,,,,,,,,,,,,,,,,,,,,,,,,,,,,,,,,,,,,,,,,
,,,,,,6170470c7c54261cb56b3565,62c5391615bc9962c572dea2,2022-07-06_09h27.15.204,Colour_Asymmetry_Pilot,2022.1.3,Win32,60.0240096,62c50e9c1127f2cd403a315f,0,114,114,85,1,threefour,,,,,,,,,,,,,,,,,,,,,,,,,,,,,,,,,,,,,,,,,,,,,,,,,,,,,,,,,,,,,,,,,,,,,,,,,,,,,,,,,,,,,,,,,,,,,,,,,,,,,,,,,,,,,,,,,,,,,,,,,,,,,,,,,,,,,,,,,,,,,,,,,,,,,,,,,,,,,,
,,,,,,6170470c7c54261cb56b3565,62c5391615bc9962c572dea2,2022-07-06_09h27.15.204,Colour_Asymmetry_Pilot,2022.1.3,Win32,60.0240096,62c50e9c1127f2cd403a315f,0,115,115,66,1,twoone,,,,,,,,,,,,,,,,,,,,,,,,,,,,,,,,,,,,,,,,,,,,,,,,,,,,,,,,,,,,,,,,,,,,,,,,,,,,,,,,,,,,,,,,,,,,,,,,,,,,,,,,,,,,,,,,,,,,,,,,,,,,,,,,,,,,,,,,,,,,,,,,,,,,,,,,,,,,,,
,,,,,,6170470c7c54261cb56b3565,62c5391615bc9962c572dea2,2022-07-06_09h27.15.204,Colour_Asymmetry_Pilot,2022.1.3,Win32,60.0240096,62c50e9c1127f2cd403a315f,0,116,116,18,1,twoone,,,,,,,,,,,,,,,,,,,,,,,,,,,,,,,,,,,,,,,,,,,,,,,,,,,,,,,,,,,,,,,,,,,,,,,,,,,,,,,,,,,,,,,,,,,,,,,,,,,,,,,,,,,,,,,,,,,,,,,,,,,,,,,,,,,,,,,,,,,,,,,,,,,,,,,,,,,,,,
,,,,,,6170470c7c54261cb56b3565,62c5391615bc9962c572dea2,2022-07-06_09h27.15.204,Colour_Asymmetry_Pilot,2022.1.3,Win32,60.0240096,62c50e9c1127f2cd403a315f,0,117,117,15,1,fourthree,,,,,,,,,,,,,,,,,,,,,,,,,,,,,,,,,,,,,,,,,,,,,,,,,,,,,,,,,,,,,,,,,,,,,,,,,,,,,,,,,,,,,,,,,,,,,,,,,,,,,,,,,,,,,,,,,,,,,,,,,,,,,,,,,,,,,,,,,,,,,,,,,,,,,,,,,,,,,,
,,,,,,6170470c7c54261cb56b3565,62c5391615bc9962c572dea2,2022-07-06_09h27.15.204,Colour_Asymmetry_Pilot,2022.1.3,Win32,60.0240096,62c50e9c1127f2cd403a315f,0,118,118,103,1,fourthree,,,,,,,,,,,,,,,,,,,,,,,,,,,,,,,,,,,,,,,,,,,,,,,,,,,,,,,,,,,,,,,,,,,,,,,,,,,,,,,,,,,,,,,,,,,,,,,,,,,,,,,,,,,,,,,,,,,,,,,,,,,,,,,,,,,,,,,,,,,,,,,,,,,,,,,,,,,,,,
,,,,,,6170470c7c54261cb56b3565,62c5391615bc9962c572dea2,2022-07-06_09h27.15.204,Colour_Asymmetry_Pilot,2022.1.3,Win32,60.0240096,62c50e9c1127f2cd403a315f,0,119,119,158,1,fourtwo,,,,,,,,,,,,,,,,,,,,,,,,,,,,,,,,,,,,,,,,,,,,,,,,,,,,,,,,,,,,,,,,,,,,,,,,,,,,,,,,,,,,,,,,,,,,,,,,,,,,,,,,,,,,,,,,,,,,,,,,,,,,,,,,,,,,,,,,,,,,,,,,,,,,,,,,,,,,,,
,,,,,,6170470c7c54261cb56b3565,62c5391615bc9962c572dea2,2022-07-06_09h27.15.204,Colour_Asymmetry_Pilot,2022.1.3,Win32,60.0240096,62c50e9c1127f2cd403a315f,0,120,120,150,1,fourtwo,,,,,,,,,,,,,,,,,,,,,,,,,,,,,,,,,,,,,,,,,,,,,,,,,,,,,,,,,,,,,,,,,,,,,,,,,,,,,,,,,,,,,,,,,,,,,,,,,,,,,,,,,,,,,,,,,,,,,,,,,,,,,,,,,,,,,,,,,,,,,,,,,,,,,,,,,,,,,,
,,,,,,6170470c7c54261cb56b3565,62c5391615bc9962c572dea2,2022-07-06_09h27.15.204,Colour_Asymmetry_Pilot,2022.1.3,Win32,60.0240096,62c50e9c1127f2cd403a315f,0,121,121,148,1,threeone,,,,,,,,,,,,,,,,,,,,,,,,,,,,,,,,,,,,,,,,,,,,,,,,,,,,,,,,,,,,,,,,,,,,,,,,,,,,,,,,,,,,,,,,,,,,,,,,,,,,,,,,,,,,,,,,,,,,,,,,,,,,,,,,,,,,,,,,,,,,,,,,,,,,,,,,,,,,,,
,,,,,,6170470c7c54261cb56b3565,62c5391615bc9962c572dea2,2022-07-06_09h27.15.204,Colour_Asymmetry_Pilot,2022.1.3,Win32,60.0240096,62c50e9c1127f2cd403a315f,0,122,122,23,1,fourthree,,,,,,,,,,,,,,,,,,,,,,,,,,,,,,,,,,,,,,,,,,,,,,,,,,,,,,,,,,,,,,,,,,,,,,,,,,,,,,,,,,,,,,,,,,,,,,,,,,,,,,,,,,,,,,,,,,,,,,,,,,,,,,,,,,,,,,,,,,,,,,,,,,,,,,,,,,,,,,
,,,,,,6170470c7c54261cb56b3565,62c5391615bc9962c572dea2,2022-07-06_09h27.15.204,Colour_Asymmetry_Pilot,2022.1.3,Win32,60.0240096,62c50e9c1127f2cd403a315f,0,123,123,134,1,fourtwo,,,,,,,,,,,,,,,,,,,,,,,,,,,,,,,,,,,,,,,,,,,,,,,,,,,,,,,,,,,,,,,,,,,,,,,,,,,,,,,,,,,,,,,,,,,,,,,,,,,,,,,,,,,,,,,,,,,,,,,,,,,,,,,,,,,,,,,,,,,,,,,,,,,,,,,,,,,,,,
,,,,,,6170470c7c54261cb56b3565,62c5391615bc9962c572dea2,2022-07-06_09h27.15.204,Colour_Asymmetry_Pilot,2022.1.3,Win32,60.0240096,62c50e9c1127f2cd403a315f,0,124,124,136,1,onetwo,,,,,,,,,,,,,,,,,,,,,,,,,,,,,,,,,,,,,,,,,,,,,,,,,,,,,,,,,,,,,,,,,,,,,,,,,,,,,,,,,,,,,,,,,,,,,,,,,,,,,,,,,,,,,,,,,,,,,,,,,,,,,,,,,,,,,,,,,,,,,,,,,,,,,,,,,,,,,,
,,,,,,6170470c7c54261cb56b3565,62c5391615bc9962c572dea2,2022-07-06_09h27.15.204,Colour_Asymmetry_Pilot,2022.1.3,Win32,60.0240096,62c50e9c1127f2cd403a315f,0,125,125,54,1,fourtwo,,,,,,,,,,,,,,,,,,,,,,,,,,,,,,,,,,,,,,,,,,,,,,,,,,,,,,,,,,,,,,,,,,,,,,,,,,,,,,,,,,,,,,,,,,,,,,,,,,,,,,,,,,,,,,,,,,,,,,,,,,,,,,,,,,,,,,,,,,,,,,,,,,,,,,,,,,,,,,
,,,,,,6170470c7c54261cb56b3565,62c5391615bc9962c572dea2,2022-07-06_09h27.15.204,Colour_Asymmetry_Pilot,2022.1.3,Win32,60.0240096,62c50e9c1127f2cd403a315f,0,126,126,84,1,threeone,,,,,,,,,,,,,,,,,,,,,,,,,,,,,,,,,,,,,,,,,,,,,,,,,,,,,,,,,,,,,,,,,,,,,,,,,,,,,,,,,,,,,,,,,,,,,,,,,,,,,,,,,,,,,,,,,,,,,,,,,,,,,,,,,,,,,,,,,,,,,,,,,,,,,,,,,,,,,,
,,,,,,6170470c7c54261cb56b3565,62c5391615bc9962c572dea2,2022-07-06_09h27.15.204,Colour_Asymmetry_Pilot,2022.1.3,Win32,60.0240096,62c50e9c1127f2cd403a315f,0,127,127,144,1,onetwo,,,,,,,,,,,,,,,,,,,,,,,,,,,,,,,,,,,,,,,,,,,,,,,,,,,,,,,,,,,,,,,,,,,,,,,,,,,,,,,,,,,,,,,,,,,,,,,,,,,,,,,,,,,,,,,,,,,,,,,,,,,,,,,,,,,,,,,,,,,,,,,,,,,,,,,,,,,,,,
,,,,,,6170470c7c54261cb56b3565,62c5391615bc9962c572dea2,2022-07-06_09h27.15.204,Colour_Asymmetry_Pilot,2022.1.3,Win32,60.0240096,62c50e9c1127f2cd403a315f,0,128,128,42,1,twoone,,,,,,,,,,,,,,,,,,,,,,,,,,,,,,,,,,,,,,,,,,,,,,,,,,,,,,,,,,,,,,,,,,,,,,,,,,,,,,,,,,,,,,,,,,,,,,,,,,,,,,,,,,,,,,,,,,,,,,,,,,,,,,,,,,,,,,,,,,,,,,,,,,,,,,,,,,,,,,
,,,,,,6170470c7c54261cb56b3565,62c5391615bc9962c572dea2,2022-07-06_09h27.15.204,Colour_Asymmetry_Pilot,2022.1.3,Win32,60.0240096,62c50e9c1127f2cd403a315f,0,129,129,110,1,fourtwo,,,,,,,,,,,,,,,,,,,,,,,,,,,,,,,,,,,,,,,,,,,,,,,,,,,,,,,,,,,,,,,,,,,,,,,,,,,,,,,,,,,,,,,,,,,,,,,,,,,,,,,,,,,,,,,,,,,,,,,,,,,,,,,,,,,,,,,,,,,,,,,,,,,,,,,,,,,,,,
,,,,,,6170470c7c54261cb56b3565,62c5391615bc9962c572dea2,2022-07-06_09h27.15.204,Colour_Asymmetry_Pilot,2022.1.3,Win32,60.0240096,62c50e9c1127f2cd403a315f,0,130,130,132,1,threeone,,,,,,,,,,,,,,,,,,,,,,,,,,,,,,,,,,,,,,,,,,,,,,,,,,,,,,,,,,,,,,,,,,,,,,,,,,,,,,,,,,,,,,,,,,,,,,,,,,,,,,,,,,,,,,,,,,,,,,,,,,,,,,,,,,,,,,,,,,,,,,,,,,,,,,,,,,,,,,
,,,,,,6170470c7c54261cb56b3565,62c5391615bc9962c572dea2,2022-07-06_09h27.15.204,Colour_Asymmetry_Pilot,2022.1.3,Win32,60.0240096,62c50e9c1127f2cd403a315f,0,131,131,31,1,fourthree,,,,,,,,,,,,,,,,,,,,,,,,,,,,,,,,,,,,,,,,,,,,,,,,,,,,,,,,,,,,,,,,,,,,,,,,,,,,,,,,,,,,,,,,,,,,,,,,,,,,,,,,,,,,,,,,,,,,,,,,,,,,,,,,,,,,,,,,,,,,,,,,,,,,,,,,,,,,,,
,,,,,,6170470c7c54261cb56b3565,62c5391615bc9962c572dea2,2022-07-06_09h27.15.204,Colour_Asymmetry_Pilot,2022.1.3,Win32,60.0240096,62c50e9c1127f2cd403a315f,0,132,132,107,1,twofour,,,,,,,,,,,,,,,,,,,,,,,,,,,,,,,,,,,,,,,,,,,,,,,,,,,,,,,,,,,,,,,,,,,,,,,,,,,,,,,,,,,,,,,,,,,,,,,,,,,,,,,,,,,,,,,,,,,,,,,,,,,,,,,,,,,,,,,,,,,,,,,,,,,,,,,,,,,,,,
,,,,,,6170470c7c54261cb56b3565,62c5391615bc9962c572dea2,2022-07-06_09h27.15.204,Colour_Asymmetry_Pilot,2022.1.3,Win32,60.0240096,62c50e9c1127f2cd403a315f,0,133,133,56,1,onetwo,,,,,,,,,,,,,,,,,,,,,,,,,,,,,,,,,,,,,,,,,,,,,,,,,,,,,,,,,,,,,,,,,,,,,,,,,,,,,,,,,,,,,,,,,,,,,,,,,,,,,,,,,,,,,,,,,,,,,,,,,,,,,,,,,,,,,,,,,,,,,,,,,,,,,,,,,,,,,,
,,,,,,6170470c7c54261cb56b3565,62c5391615bc9962c572dea2,2022-07-06_09h27.15.204,Colour_Asymmetry_Pilot,2022.1.3,Win32,60.0240096,62c50e9c1127f2cd403a315f,0,134,134,102,1,fourtwo,,,,,,,,,,,,,,,,,,,,,,,,,,,,,,,,,,,,,,,,,,,,,,,,,,,,,,,,,,,,,,,,,,,,,,,,,,,,,,,,,,,,,,,,,,,,,,,,,,,,,,,,,,,,,,,,,,,,,,,,,,,,,,,,,,,,,,,,,,,,,,,,,,,,,,,,,,,,,,
,,,,,,6170470c7c54261cb56b3565,62c5391615bc9962c572dea2,2022-07-06_09h27.15.204,Colour_Asymmetry_Pilot,2022.1.3,Win32,60.0240096,62c50e9c1127f2cd403a315f,0,135,135,62,1,fourtwo,,,,,,,,,,,,,,,,,,,,,,,,,,,,,,,,,,,,,,,,,,,,,,,,,,,,,,,,,,,,,,,,,,,,,,,,,,,,,,,,,,,,,,,,,,,,,,,,,,,,,,,,,,,,,,,,,,,,,,,,,,,,,,,,,,,,,,,,,,,,,,,,,,,,,,,,,,,,,,
,,,,,,6170470c7c54261cb56b3565,62c5391615bc9962c572dea2,2022-07-06_09h27.15.204,Colour_Asymmetry_Pilot,2022.1.3,Win32,60.0240096,62c50e9c1127f2cd403a315f,0,136,136,16,1,onetwo,,,,,,,,,,,,,,,,,,,,,,,,,,,,,,,,,,,,,,,,,,,,,,,,,,,,,,,,,,,,,,,,,,,,,,,,,,,,,,,,,,,,,,,,,,,,,,,,,,,,,,,,,,,,,,,,,,,,,,,,,,,,,,,,,,,,,,,,,,,,,,,,,,,,,,,,,,,,,,
,,,,,,6170470c7c54261cb56b3565,62c5391615bc9962c572dea2,2022-07-06_09h27.15.204,Colour_Asymmetry_Pilot,2022.1.3,Win32,60.0240096,62c50e9c1127f2cd403a315f,0,137,137,70,1,fourtwo,,,,,,,,,,,,,,,,,,,,,,,,,,,,,,,,,,,,,,,,,,,,,,,,,,,,,,,,,,,,,,,,,,,,,,,,,,,,,,,,,,,,,,,,,,,,,,,,,,,,,,,,,,,,,,,,,,,,,,,,,,,,,,,,,,,,,,,,,,,,,,,,,,,,,,,,,,,,,,
,,,,,,6170470c7c54261cb56b3565,62c5391615bc9962c572dea2,2022-07-06_09h27.15.204,Colour_Asymmetry_Pilot,2022.1.3,Win32,60.0240096,62c50e9c1127f2cd403a315f,0,138,138,37,1,threefour,,,,,,,,,,,,,,,,,,,,,,,,,,,,,,,,,,,,,,,,,,,,,,,,,,,,,,,,,,,,,,,,,,,,,,,,,,,,,,,,,,,,,,,,,,,,,,,,,,,,,,,,,,,,,,,,,,,,,,,,,,,,,,,,,,,,,,,,,,,,,,,,,,,,,,,,,,,,,,
,,,,,,6170470c7c54261cb56b3565,62c5391615bc9962c572dea2,2022-07-06_09h27.15.204,Colour_Asymmetry_Pilot,2022.1.3,Win32,60.0240096,62c50e9c1127f2cd403a315f,0,139,139,3,1,twofour,,,,,,,,,,,,,,,,,,,,,,,,,,,,,,,,,,,,,,,,,,,,,,,,,,,,,,,,,,,,,,,,,,,,,,,,,,,,,,,,,,,,,,,,,,,,,,,,,,,,,,,,,,,,,,,,,,,,,,,,,,,,,,,,,,,,,,,,,,,,,,,,,,,,,,,,,,,,,,
,,,,,,6170470c7c54261cb56b3565,62c5391615bc9962c572dea2,2022-07-06_09h27.15.204,Colour_Asymmetry_Pilot,2022.1.3,Win32,60.0240096,62c50e9c1127f2cd403a315f,0,140,140,58,1,twoone,,,,,,,,,,,,,,,,,,,,,,,,,,,,,,,,,,,,,,,,,,,,,,,,,,,,,,,,,,,,,,,,,,,,,,,,,,,,,,,,,,,,,,,,,,,,,,,,,,,,,,,,,,,,,,,,,,,,,,,,,,,,,,,,,,,,,,,,,,,,,,,,,,,,,,,,,,,,,,
,,,,,,6170470c7c54261cb56b3565,62c5391615bc9962c572dea2,2022-07-06_09h27.15.204,Colour_Asymmetry_Pilot,2022.1.3,Win32,60.0240096,62c50e9c1127f2cd403a315f,0,141,141,97,1,onethree,,,,,,,,,,,,,,,,,,,,,,,,,,,,,,,,,,,,,,,,,,,,,,,,,,,,,,,,,,,,,,,,,,,,,,,,,,,,,,,,,,,,,,,,,,,,,,,,,,,,,,,,,,,,,,,,,,,,,,,,,,,,,,,,,,,,,,,,,,,,,,,,,,,,,,,,,,,,,,
,,,,,,6170470c7c54261cb56b3565,62c5391615bc9962c572dea2,2022-07-06_09h27.15.204,Colour_Asymmetry_Pilot,2022.1.3,Win32,60.0240096,62c50e9c1127f2cd403a315f,0,142,142,88,1,onetwo,,,,,,,,,,,,,,,,,,,,,,,,,,,,,,,,,,,,,,,,,,,,,,,,,,,,,,,,,,,,,,,,,,,,,,,,,,,,,,,,,,,,,,,,,,,,,,,,,,,,,,,,,,,,,,,,,,,,,,,,,,,,,,,,,,,,,,,,,,,,,,,,,,,,,,,,,,,,,,
,,,,,,6170470c7c54261cb56b3565,62c5391615bc9962c572dea2,2022-07-06_09h27.15.204,Colour_Asymmetry_Pilot,2022.1.3,Win32,60.0240096,62c50e9c1127f2cd403a315f,0,143,143,8,1,onetwo,,,,,,,,,,,,,,,,,,,,,,,,,,,,,,,,,,,,,,,,,,,,,,,,,,,,,,,,,,,,,,,,,,,,,,,,,,,,,,,,,,,,,,,,,,,,,,,,,,,,,,,,,,,,,,,,,,,,,,,,,,,,,,,,,,,,,,,,,,,,,,,,,,,,,,,,,,,,,,
,,,,,,6170470c7c54261cb56b3565,62c5391615bc9962c572dea2,2022-07-06_09h27.15.204,Colour_Asymmetry_Pilot,2022.1.3,Win32,60.0240096,62c50e9c1127f2cd403a315f,0,144,144,108,1,threeone,,,,,,,,,,,,,,,,,,,,,,,,,,,,,,,,,,,,,,,,,,,,,,,,,,,,,,,,,,,,,,,,,,,,,,,,,,,,,,,,,,,,,,,,,,,,,,,,,,,,,,,,,,,,,,,,,,,,,,,,,,,,,,,,,,,,,,,,,,,,,,,,,,,,,,,,,,,,,,
,,,,,,6170470c7c54261cb56b3565,62c5391615bc9962c572dea2,2022-07-06_09h27.15.204,Colour_Asymmetry_Pilot,2022.1.3,Win32,60.0240096,62c50e9c1127f2cd403a315f,0,145,145,51,1,twofour,,,,,,,,,,,,,,,,,,,,,,,,,,,,,,,,,,,,,,,,,,,,,,,,,,,,,,,,,,,,,,,,,,,,,,,,,,,,,,,,,,,,,,,,,,,,,,,,,,,,,,,,,,,,,,,,,,,,,,,,,,,,,,,,,,,,,,,,,,,,,,,,,,,,,,,,,,,,,,
,,,,,,6170470c7c54261cb56b3565,62c5391615bc9962c572dea2,2022-07-06_09h27.15.204,Colour_Asymmetry_Pilot,2022.1.3,Win32,60.0240096,62c50e9c1127f2cd403a315f,0,146,146,101,1,threefour,,,,,,,,,,,,,,,,,,,,,,,,,,,,,,,,,,,,,,,,,,,,,,,,,,,,,,,,,,,,,,,,,,,,,,,,,,,,,,,,,,,,,,,,,,,,,,,,,,,,,,,,,,,,,,,,,,,,,,,,,,,,,,,,,,,,,,,,,,,,,,,,,,,,,,,,,,,,,,
,,,,,,6170470c7c54261cb56b3565,62c5391615bc9962c572dea2,2022-07-06_09h27.15.204,Colour_Asymmetry_Pilot,2022.1.3,Win32,60.0240096,62c50e9c1127f2cd403a315f,0,147,147,20,1,threeone,,,,,,,,,,,,,,,,,,,,,,,,,,,,,,,,,,,,,,,,,,,,,,,,,,,,,,,,,,,,,,,,,,,,,,,,,,,,,,,,,,,,,,,,,,,,,,,,,,,,,,,,,,,,,,,,,,,,,,,,,,,,,,,,,,,,,,,,,,,,,,,,,,,,,,,,,,,,,,
,,,,,,6170470c7c54261cb56b3565,62c5391615bc9962c572dea2,2022-07-06_09h27.15.204,Colour_Asymmetry_Pilot,2022.1.3,Win32,60.0240096,62c50e9c1127f2cd403a315f,0,148,148,47,1,fourthree,,,,,,,,,,,,,,,,,,,,,,,,,,,,,,,,,,,,,,,,,,,,,,,,,,,,,,,,,,,,,,,,,,,,,,,,,,,,,,,,,,,,,,,,,,,,,,,,,,,,,,,,,,,,,,,,,,,,,,,,,,,,,,,,,,,,,,,,,,,,,,,,,,,,,,,,,,,,,,
,,,,,,6170470c7c54261cb56b3565,62c5391615bc9962c572dea2,2022-07-06_09h27.15.204,Colour_Asymmetry_Pilot,2022.1.3,Win32,60.0240096,62c50e9c1127f2cd403a315f,0,149,149,149,1,threefour,,,,,,,,,,,,,,,,,,,,,,,,,,,,,,,,,,,,,,,,,,,,,,,,,,,,,,,,,,,,,,,,,,,,,,,,,,,,,,,,,,,,,,,,,,,,,,,,,,,,,,,,,,,,,,,,,,,,,,,,,,,,,,,,,,,,,,,,,,,,,,,,,,,,,,,,,,,,,,
,,,,,,6170470c7c54261cb56b3565,62c5391615bc9962c572dea2,2022-07-06_09h27.15.204,Colour_Asymmetry_Pilot,2022.1.3,Win32,60.0240096,62c50e9c1127f2cd403a315f,0,150,150,126,1,fourtwo,,,,,,,,,,,,,,,,,,,,,,,,,,,,,,,,,,,,,,,,,,,,,,,,,,,,,,,,,,,,,,,,,,,,,,,,,,,,,,,,,,,,,,,,,,,,,,,,,,,,,,,,,,,,,,,,,,,,,,,,,,,,,,,,,,,,,,,,,,,,,,,,,,,,,,,,,,,,,,
,,,,,,6170470c7c54261cb56b3565,62c5391615bc9962c572dea2,2022-07-06_09h27.15.204,Colour_Asymmetry_Pilot,2022.1.3,Win32,60.0240096,62c50e9c1127f2cd403a315f,0,151,151,48,1,onetwo,,,,,,,,,,,,,,,,,,,,,,,,,,,,,,,,,,,,,,,,,,,,,,,,,,,,,,,,,,,,,,,,,,,,,,,,,,,,,,,,,,,,,,,,,,,,,,,,,,,,,,,,,,,,,,,,,,,,,,,,,,,,,,,,,,,,,,,,,,,,,,,,,,,,,,,,,,,,,,
,,,,,,6170470c7c54261cb56b3565,62c5391615bc9962c572dea2,2022-07-06_09h27.15.204,Colour_Asymmetry_Pilot,2022.1.3,Win32,60.0240096,62c50e9c1127f2cd403a315f,0,152,152,69,1,threefour,,,,,,,,,,,,,,,,,,,,,,,,,,,,,,,,,,,,,,,,,,,,,,,,,,,,,,,,,,,,,,,,,,,,,,,,,,,,,,,,,,,,,,,,,,,,,,,,,,,,,,,,,,,,,,,,,,,,,,,,,,,,,,,,,,,,,,,,,,,,,,,,,,,,,,,,,,,,,,
,,,,,,6170470c7c54261cb56b3565,62c5391615bc9962c572dea2,2022-07-06_09h27.15.204,Colour_Asymmetry_Pilot,2022.1.3,Win32,60.0240096,62c50e9c1127f2cd403a315f,0,153,153,123,1,twofour,,,,,,,,,,,,,,,,,,,,,,,,,,,,,,,,,,,,,,,,,,,,,,,,,,,,,,,,,,,,,,,,,,,,,,,,,,,,,,,,,,,,,,,,,,,,,,,,,,,,,,,,,,,,,,,,,,,,,,,,,,,,,,,,,,,,,,,,,,,,,,,,,,,,,,,,,,,,,,
,,,,,,6170470c7c54261cb56b3565,62c5391615bc9962c572dea2,2022-07-06_09h27.15.204,Colour_Asymmetry_Pilot,2022.1.3,Win32,60.0240096,62c50e9c1127f2cd403a315f,0,154,154,139,1,twofour,,,,,,,,,,,,,,,,,,,,,,,,,,,,,,,,,,,,,,,,,,,,,,,,,,,,,,,,,,,,,,,,,,,,,,,,,,,,,,,,,,,,,,,,,,,,,,,,,,,,,,,,,,,,,,,,,,,,,,,,,,,,,,,,,,,,,,,,,,,,,,,,,,,,,,,,,,,,,,
,,,,,,6170470c7c54261cb56b3565,62c5391615bc9962c572dea2,2022-07-06_09h27.15.204,Colour_Asymmetry_Pilot,2022.1.3,Win32,60.0240096,62c50e9c1127f2cd403a315f,0,155,155,156,1,threeone,,,,,,,,,,,,,,,,,,,,,,,,,,,,,,,,,,,,,,,,,,,,,,,,,,,,,,,,,,,,,,,,,,,,,,,,,,,,,,,,,,,,,,,,,,,,,,,,,,,,,,,,,,,,,,,,,,,,,,,,,,,,,,,,,,,,,,,,,,,,,,,,,,,,,,,,,,,,,,
,,,,,,6170470c7c54261cb56b3565,62c5391615bc9962c572dea2,2022-07-06_09h27.15.204,Colour_Asymmetry_Pilot,2022.1.3,Win32,60.0240096,62c50e9c1127f2cd403a315f,0,156,156,72,1,onetwo,,,,,,,,,,,,,,,,,,,,,,,,,,,,,,,,,,,,,,,,,,,,,,,,,,,,,,,,,,,,,,,,,,,,,,,,,,,,,,,,,,,,,,,,,,,,,,,,,,,,,,,,,,,,,,,,,,,,,,,,,,,,,,,,,,,,,,,,,,,,,,,,,,,,,,,,,,,,,,
,,,,,,6170470c7c54261cb56b3565,62c5391615bc9962c572dea2,2022-07-06_09h27.15.204,Colour_Asymmetry_Pilot,2022.1.3,Win32,60.0240096,62c50e9c1127f2cd403a315f,0,157,157,140,1,threeone,,,,,,,,,,,,,,,,,,,,,,,,,,,,,,,,,,,,,,,,,,,,,,,,,,,,,,,,,,,,,,,,,,,,,,,,,,,,,,,,,,,,,,,,,,,,,,,,,,,,,,,,,,,,,,,,,,,,,,,,,,,,,,,,,,,,,,,,,,,,,,,,,,,,,,,,,,,,,,
,,,,,,6170470c7c54261cb56b3565,62c5391615bc9962c572dea2,2022-07-06_09h27.15.204,Colour_Asymmetry_Pilot,2022.1.3,Win32,60.0240096,62c50e9c1127f2cd403a315f,0,158,158,59,1,twofour,,,,,,,,,,,,,,,,,,,,,,,,,,,,,,,,,,,,,,,,,,,,,,,,,,,,,,,,,,,,,,,,,,,,,,,,,,,,,,,,,,,,,,,,,,,,,,,,,,,,,,,,,,,,,,,,,,,,,,,,,,,,,,,,,,,,,,,,,,,,,,,,,,,,,,,,,,,,,,
,,,,,,6170470c7c54261cb56b3565,62c5391615bc9962c572dea2,2022-07-06_09h27.15.204,Colour_Asymmetry_Pilot,2022.1.3,Win32,60.0240096,62c50e9c1127f2cd403a315f,0,159,159,46,1,fourtwo,,,,,,,,,,,,,,,,,,,,,,,,,,,,,,,,,,,,,,,,,,,,,,,,,,,,,,,,,,,,,,,,,,,,,,,,,,,,,,,,,,,,,,,,,,,,,,,,,,,,,,,,,,,,,,,,,,,,,,,,,,,,,,,,,,,,,,,,,,,,,,,,,,,,,,,,,,,,,,
,,,,,,6170470c7c54261cb56b3565,62c5391615bc9962c572dea2,2022-07-06_09h27.15.204,Colour_Asymmetry_Pilot,2022.1.3,Win32,60.0240096,62c50e9c1127f2cd403a315f,0,160,160,117,1,threefour,,,,,,,,,,,,,,,,,,,,,,,,,,,,,,,,,,,,,,,,,,,,,,,,,,,,,,,,,,,,,,,,,,,,,,,,,,,,,,,,,,,,,,,,,,,,,,,,,,,,,,,,,,,,,,,,,,,,,,,,,,,,,,,,,,,,,,,,,,,,,,,,,,,,,,,,,,,,,,
,,,,,,6170470c7c54261cb56b3565,62c5391615bc9962c572dea2,2022-07-06_09h27.15.204,Colour_Asymmetry_Pilot,2022.1.3,Win32,60.0240096,62c50e9c1127f2cd403a315f,0,161,161,116,1,threeone,,,,,,,,,,,,,,,,,,,,,,,,,,,,,,,,,,,,,,,,,,,,,,,,,,,,,,,,,,,,,,,,,,,,,,,,,,,,,,,,,,,,,,,,,,,,,,,,,,,,,,,,,,,,,,,,,,,,,,,,,,,,,,,,,,,,,,,,,,,,,,,,,,,,,,,,,,,,,,
,,,,,,6170470c7c54261cb56b3565,62c5391615bc9962c572dea2,2022-07-06_09h27.15.204,Colour_Asymmetry_Pilot,2022.1.3,Win32,60.0240096,62c50e9c1127f2cd403a315f,,,,,,,space,7.193,space,5.691,space,36.949,space,3.641,space,3.439,space,3.361,"[0.3568,-0.20799999999999996,-0.9844]",twoone,"[-0.4982,-0.2942,-0.0354000000000001]",4,22.565,30,100.5,1,0,0,response1disk_5,-1,-1.5,1,0,0,rectangle_8,-1,-1.5,1,0,0,4,-1,-1.5,1,0,0,0,0,0,0,1,,,,,,,,,,,,,,,,,,,,,,,,,,,,,,,,,,,,,,,,,,,,,,,,,,,,,,,,,,,,,,,,,,,,,,,,,,,,,,,,,,,,,,,,,,,,,,,,,,,,,,,,,,,,,,,,,
,,,,,,6170470c7c54261cb56b3565,62c5391615bc9962c572dea2,2022-07-06_09h27.15.204,Colour_Asymmetry_Pilot,2022.1.3,Win32,60.0240096,62c50e9c1127f2cd403a315f,,,,,,,,,,,,,,,,,,,"[0.9213999999999998,0.6391999999999998,-0.9922]",fourthree,"[-0.4982,-0.2942,-0.0354000000000001]",4,18.966,53,121.5,1,0,0,response1disk_5,-5,1.5,1,0,0,rectangle_8,-5,1.5,1,0,0,4,-5,1.5,1,0,0,1,0,1,0,1,,,,,,,,,,,,,,,,,,,,,,,,,,,,,,,,,,,,,,,,,,,,,,,,,,,,,,,,,,,,,,,,,,,,,,,,,,,,,,,,,,,,,,,,,,,,,,,,,,,,,,,,,,,,,,,,,
,,,,,,6170470c7c54261cb56b3565,62c5391615bc9962c572dea2,2022-07-06_09h27.15.204,Colour_Asymmetry_Pilot,2022.1.3,Win32,60.0240096,62c50e9c1127f2cd403a315f,,,,,,,,,,,,,,,,,,,"[0.23920000000000008,0.2704,0.16060000000000008]",threefour,"[0.19199999999999995,0.18419999999999992,0.5136000000000001]",3,5.302,99,40.5,1,0,0,response1disk_5,15,5.5,1,0,0,rectangle_8,31,100.5,1,0,0,4,-3,11.5,1,0,0,2,0,2,0,1,response1disk_7,7,rectangle_4,,,,,,,,,,,,,,,,,,,,,,,,,,,,,,,,,,,,,,,,,,,,,,,,,,,,,,,,,,,,,,,,,,,,,,,,,,,,,,,,,,,,,,,,,,,,,,,,,,,,,,,,,,,,,,
,,,,,,6170470c7c54261cb56b3565,62c5391615bc9962c572dea2,2022-07-06_09h27.15.204,Colour_Asymmetry_Pilot,2022.1.3,Win32,60.0240096,62c50e9c1127f2cd403a315f,,,,,,,,,,,,,,,,,,,"[0.9686000000000001,0.5763999999999998,0.11359999999999992]",twoone,"[-0.45899999999999996,-0.3256,-0.9374]",-4,9.117,-52,83.5,1,0,0,response7disk_5,-21,-2.5,1,0,0,rectangle_8,-21,-2.5,1,0,0,4,-21,-2.5,1,0,0,3,0,3,0,1,,,,,,,,,,,,,,,,,,,,,,,,,,,,,,,,,,,,,,,,,,,,,,,,,,,,,,,,,,,,,,,,,,,,,,,,,,,,,,,,,,,,,,,,,,,,,,,,,,,,,,,,,,,,,,,,,
,,,,,,6170470c7c54261cb56b3565,62c5391615bc9962c572dea2,2022-07-06_09h27.15.204,Colour_Asymmetry_Pilot,2022.1.3,Win32,60.0240096,62c50e9c1127f2cd403a315f,,,,,,,,,,,,,,,,,,,"[0.37240000000000006,0.4980000000000002,-0.2864]",twoone,"[0.30180000000000007,-0.7884,-0.9844]",-4,3.068,-49,102.5,1,0,0,response7disk_5,-5,3.5,1,0,0,rectangle_8,29,84.5,1,0,0,4,-12,-8.5,1,0,0,4,0,4,0,1,response1disk_7,7,rectangle_4,,,,,,,,,,,,,,,,,,,,,,,,,,,,,,,,,,,,,,,,,,,,,,,,,,,,,,,,,,,,,,,,,,,,,,,,,,,,,,,,,,,,,,,,,,,,,,,,,,,,,,,,,,,,,,
,,,,,,6170470c7c54261cb56b3565,62c5391615bc9962c572dea2,2022-07-06_09h27.15.204,Colour_Asymmetry_Pilot,2022.1.3,Win32,60.0240096,62c50e9c1127f2cd403a315f,,,,,,,,,,,,,,,,,,,"[-0.2942,-0.24719999999999998,-0.357]",onethree,"[0.2784,-0.31000000000000005,-0.5452]",4,1.666,41,83.5,1,0,0,response1disk_5,2,3.5,1,0,0,rectangle_8,2,3.5,1,0,0,4,2,3.5,1,0,0,5,0,5,0,1,,,,,,,,,,,,,,,,,,,,,,,,,,,,,,,,,,,,,,,,,,,,,,,,,,,,,,,,,,,,,,,,,,,,,,,,,,,,,,,,,,,,,,,,,,,,,,,,,,,,,,,,,,,,,,,,,
,,,,,,6170470c7c54261cb56b3565,62c5391615bc9962c572dea2,2022-07-06_09h27.15.204,Colour_Asymmetry_Pilot,2022.1.3,Win32,60.0240096,62c50e9c1127f2cd403a315f,,,,,,,,,,,,,,,,,,,"[-0.011800000000000033,-0.906,-0.45100000000000007]",onethree,"[0.30180000000000007,-0.7884,-0.9844]",-3,1.135,-69,40.5,1,0,0,response7disk_5,7,4.5,1,0,0,rectangle_8,7,4.5,1,0,0,4,7,4.5,1,0,0,6,0,6,0,1,,,,,,,,,,,,,,,,,,,,,,,,,,,,,,,,,,,,,,,,,,,,,,,,,,,,,,,,,,,,,,,,,,,,,,,,,,,,,,,,,,,,,,,,,,,,,,,,,,,,,,,,,,,,,,,,,
,,,,,,6170470c7c54261cb56b3565,62c5391615bc9962c572dea2,2022-07-06_09h27.15.204,Colour_Asymmetry_Pilot,2022.1.3,Win32,60.0240096,62c50e9c1127f2cd403a315f,,,,,,,,,,,,,,,,,,,,fourthree,,4,4.153,,,,,,,,,,,,,,,,,,,,,,,,,,,,,,,,space,3.652,"[0.2784,-0.31000000000000005,-0.5452]","[0.37240000000000006,-0.050999999999999934,-0.5216]",33,84.5,1,0,0,response1disk,-5,4.5,1,0,0,rectangle,-5,4.5,1,0,0,,2,0.01,0,-5,4.5,1,0,0,0,0,0,100,1,19,second,,,,,,,,,,,,,,,,,,,,,,,,,,,,,,,,,,,,,,,,,,,,,,,,,,,,,,,,,,,,,,,,,,,,,,,,,
,,,,,,6170470c7c54261cb56b3565,62c5391615bc9962c572dea2,2022-07-06_09h27.15.204,Colour_Asymmetry_Pilot,2022.1.3,Win32,60.0240096,62c50e9c1127f2cd403a315f,,,,,,,,,,,,,,,,,,,,twoone,,-3,1.582,,,,,,,,,,,,,,,,,,,,,,,,,,,,,,,,,,"[0.3802000000000001,0.19199999999999995,-0.6394]","[0.7018,0.7802,-0.16079999999999994]",-71,37.5,1,0,0,response7disk,4,-6.5,1,0,0,rectangle,4,-6.5,1,0,0,,3,0.003,0,4,-6.5,1,0,0,0,1,1,34,1,34,first,,,,,,,,,,,,,,,,,,,,,,,,,,,,,,,,,,,,,,,,,,,,,,,,,,,,,,,,,,,,,,,,,,,,,,,,,
,,,,,,6170470c7c54261cb56b3565,62c5391615bc9962c572dea2,2022-07-06_09h27.15.204,Colour_Asymmetry_Pilot,2022.1.3,Win32,60.0240096,62c50e9c1127f2cd403a315f,,,,,,,,,,,,,,,,,,,,threefour,,-1,0.908,,,,,,,,,,,,,,,,,,,,,,,,,,,,,,,,,,"[-0.2942,-0.7648,-0.7492000000000001]","[0.5449999999999999,-0.31000000000000005,-0.0354000000000001]",-47,-62.5,1,0,0,response5disk,4,-7.5,1,0,0,rectangle,4,-7.5,1,0,0,,1,0.002,0,4,-7.5,1,0,0,0,2,2,40,1,40,first,,,,,,,,,,,,,,,,,,,,,,,,,,,,,,,,,,,,,,,,,,,,,,,,,,,,,,,,,,,,,,,,,,,,,,,,,
,,,,,,6170470c7c54261cb56b3565,62c5391615bc9962c572dea2,2022-07-06_09h27.15.204,Colour_Asymmetry_Pilot,2022.1.3,Win32,60.0240096,62c50e9c1127f2cd403a315f,,,,,,,,,,,,,,,,,,,,onethree,,1,1.284,,,,,,,,,,,,,,,,,,,,,,,,,,,,,,,,,,"[0.09799999999999986,-0.24719999999999998,0.15280000000000005]","[0.37240000000000006,0.4980000000000002,-0.2864]",47,-82.5,1,0,0,response3disk,-8,8.5,1,0,0,rectangle,-8,8.5,1,0,0,,3,0.003,0,-8,8.5,1,0,0,0,3,3,24,1,24,first,,,,,,,,,,,,,,,,,,,,,,,,,,,,,,,,,,,,,,,,,,,,,,,,,,,,,,,,,,,,,,,,,,,,,,,,,
,,,,,,6170470c7c54261cb56b3565,62c5391615bc9962c572dea2,2022-07-06_09h27.15.204,Colour_Asymmetry_Pilot,2022.1.3,Win32,60.0240096,62c50e9c1127f2cd403a315f,,,,,,,,,,,,,,,,,,,,fourthree,,-3,0.514,,,,,,,,,,,,,,,,,,,,,,,,,,,,,,,,,,"[0.9763999999999999,-0.1137999999999999,-0.6314]","[0.2862,0.7802,0.3568]",-71,41.5,1,0,0,response7disk,7,-5.5,1,0,0,rectangle,7,-5.5,1,0,0,,3,0.001,0,7,-5.5,1,0,0,0,4,4,152,1,71,second,,,,,,,,,,,,,,,,,,,,,,,,,,,,,,,,,,,,,,,,,,,,,,,,,,,,,,,,,,,,,,,,,,,,,,,,,
,,,,,,6170470c7c54261cb56b3565,62c5391615bc9962c572dea2,2022-07-06_09h27.15.204,Colour_Asymmetry_Pilot,2022.1.3,Win32,60.0240096,62c50e9c1127f2cd403a315f,,,,,,,,,,,,,,,,,,,,fourthree,,-1,0.833,,,,,,,,,,,,,,,,,,,,,,,,,,,,,,,,,,"[0.04299999999999993,0.16060000000000008,-0.6628000000000001]","[0.6625999999999999,0.4980000000000002,-0.357]",-44,-66.5,1,0,0,response5disk,-7,3.5,1,0,0,rectangle,-7,3.5,1,0,0,,2,0.004,0,-7,3.5,1,0,0,0,5,5,122,1,41,second,,,,,,,,,,,,,,,,,,,,,,,,,,,,,,,,,,,,,,,,,,,,,,,,,,,,,,,,,,,,,,,,,,,,,,,,,
,,,,,,6170470c7c54261cb56b3565,62c5391615bc9962c572dea2,2022-07-06_09h27.15.204,Colour_Asymmetry_Pilot,2022.1.3,Win32,60.0240096,62c50e9c1127f2cd403a315f,,,,,,,,,,,,,,,,,,,,twofour,,4,0.85,,,,,,,,,,,,,,,,,,,,,,,,,,,,,,,,,,"[-0.10599999999999998,-0.15300000000000002,0.15280000000000005]","[0.04299999999999993,0.16060000000000008,-0.6628000000000001]",46,68.5,1,0,0,response1disk,-15,3.5,1,0,0,rectangle,-15,3.5,1,0,0,,1,0.003,0,-15,3.5,1,0,0,0,6,6,134,1,53,second,,,,,,,,,,,,,,,,,,,,,,,,,,,,,,,,,,,,,,,,,,,,,,,,,,,,,,,,,,,,,,,,,,,,,,,,,
,,,,,,6170470c7c54261cb56b3565,62c5391615bc9962c572dea2,2022-07-06_09h27.15.204,Colour_Asymmetry_Pilot,2022.1.3,Win32,60.0240096,62c50e9c1127f2cd403a315f,,,,,,,,,,,,,,,,,,,,threeone,,-3,0.966,,,,,,,,,,,,,,,,,,,,,,,,,,,,,,,,,,"[0.9213999999999998,0.6391999999999998,-0.9922]","[-0.0040000000000000036,0.02739999999999987,-0.08239999999999992]",-73,27.5,1,0,0,response7disk,-11,0.5,1,0,0,rectangle,-86,-37.5,1,0,0,-2,2,1.333,1,2,-2.5,1,0,0,0,7,7,161,1,80,second,response5disk_3,rectangle,,,,,,,,,,,,,,,,,,,,,,,,,,,,,,,,,,,,,,,,,,,,,,,,,,,,,,,,,,,,,,,,,,,,,,,
,,,,,,6170470c7c54261cb56b3565,62c5391615bc9962c572dea2,2022-07-06_09h27.15.204,Colour_Asymmetry_Pilot,2022.1.3,Win32,60.0240096,62c50e9c1127f2cd403a315f,,,,,,,,,,,,,,,,,,,,onethree,,4,2.001,,,,,,,,,,,,,,,,,,,,,,,,,,,,,,,,,,"[0.8115999999999999,-0.0040000000000000036,-0.09819999999999995]","[0.8274000000000001,-0.5844,-0.9452]",30,72.5,1,0,0,response1disk,-1,-1.5,1,0,0,rectangle,-1,-1.5,1,0,0,-2,2,0.001,0,-1,-1.5,1,0,0,0,8,8,26,1,26,first,,,,,,,,,,,,,,,,,,,,,,,,,,,,,,,,,,,,,,,,,,,,,,,,,,,,,,,,,,,,,,,,,,,,,,,,,
,,,,,,6170470c7c54261cb56b3565,62c5391615bc9962c572dea2,2022-07-06_09h27.15.204,Colour_Asymmetry_Pilot,2022.1.3,Win32,60.0240096,62c50e9c1127f2cd403a315f,,,,,,,,,,,,,,,,,,,,threefour,,-3,0.699,,,,,,,,,,,,,,,,,,,,,,,,,,,,,,,,,,"[-0.26280000000000003,-0.4746,-0.2158]","[-0.10599999999999998,-0.15300000000000002,0.15280000000000005]",-84,52.5,1,0,0,response7disk,-19,6.5,1,0,0,rectangle,-19,6.5,1,0,0,-2,2,0,0,-19,6.5,1,0,0,0,9,9,95,1,14,second,,,,,,,,,,,,,,,,,,,,,,,,,,,,,,,,,,,,,,,,,,,,,,,,,,,,,,,,,,,,,,,,,,,,,,,,,
,,,,,,6170470c7c54261cb56b3565,62c5391615bc9962c572dea2,2022-07-06_09h27.15.204,Colour_Asymmetry_Pilot,2022.1.3,Win32,60.0240096,62c50e9c1127f2cd403a315f,,,,,,,,,,,,,,,,,,,,twofour,,3,0.834,,,,,,,,,,,,,,,,,,,,,,,,,,,,,,,,,,"[-0.6706000000000001,-0.6157999999999999,-0.6786]","[0.04299999999999993,0.16060000000000008,-0.6628000000000001]",76,39.5,1,0,0,response1disk,-4,0.5,1,0,0,rectangle,-4,0.5,1,0,0,-2,2,0,0,-4,0.5,1,0,0,0,10,10,2,1,2,first,,,,,,,,,,,,,,,,,,,,,,,,,,,,,,,,,,,,,,,,,,,,,,,,,,,,,,,,,,,,,,,,,,,,,,,,,
,,,,,,6170470c7c54261cb56b3565,62c5391615bc9962c572dea2,2022-07-06_09h27.15.204,Colour_Asymmetry_Pilot,2022.1.3,Win32,60.0240096,62c50e9c1127f2cd403a315f,,,,,,,,,,,,,,,,,,,,onethree,,-2,1.118,,,,,,,,,,,,,,,,,,,,,,,,,,,,,,,,,,"[-0.4902000000000001,0.2704,-0.45899999999999996]","[-0.24719999999999998,0.5213999999999999,-0.12959999999999994]",-90,-39.5,1,0,0,response5disk,-15,3.5,1,0,0,rectangle,-15,3.5,1,0,0,-2,3,0.002,0,-15,3.5,1,0,0,0,11,11,13,1,13,first,,,,,,,,,,,,,,,,,,,,,,,,,,,,,,,,,,,,,,,,,,,,,,,,,,,,,,,,,,,,,,,,,,,,,,,,,
,,,,,,6170470c7c54261cb56b3565,62c5391615bc9962c572dea2,2022-07-06_09h27.15.204,Colour_Asymmetry_Pilot,2022.1.3,Win32,60.0240096,62c50e9c1127f2cd403a315f,,,,,,,,,,,,,,,,,,,,fourtwo,,3,0.54,,,,,,,,,,,,,,,,,,,,,,,,,,,,,,,,,,"[-0.24719999999999998,-0.0354000000000001,0.3175999999999999]","[-0.9766,-0.6472,0.07440000000000002]",60,51.5,1,0,0,response1disk,3,9.5,1,0,0,rectangle,3,9.5,1,0,0,-2,1,0.001,0,3,9.5,1,0,0,0,12,12,101,1,20,second,,,,,,,,,,,,,,,,,,,,,,,,,,,,,,,,,,,,,,,,,,,,,,,,,,,,,,,,,,,,,,,,,,,,,,,,,
,,,,,,6170470c7c54261cb56b3565,62c5391615bc9962c572dea2,2022-07-06_09h27.15.204,Colour_Asymmetry_Pilot,2022.1.3,Win32,60.0240096,62c50e9c1127f2cd403a315f,,,,,,,,,,,,,,,,,,,,twoone,,-1,0.853,,,,,,,,,,,,,,,,,,,,,,,,,,,,,,,,,,"[0.9763999999999999,0.8588,-0.05900000000000005]","[-0.9216,-0.5529999999999999,-0.3962]",-40,-70.5,1,0,0,response5disk,-8,-4.5,1,0,0,rectangle,-8,-4.5,1,0,0,-2,1,0.002,0,-8,-4.5,1,0,0,0,13,13,72,1,72,first,,,,,,,,,,,,,,,,,,,,,,,,,,,,,,,,,,,,,,,,,,,,,,,,,,,,,,,,,,,,,,,,,,,,,,,,,
,,,,,,6170470c7c54261cb56b3565,62c5391615bc9962c572dea2,2022-07-06_09h27.15.204,Colour_Asymmetry_Pilot,2022.1.3,Win32,60.0240096,62c50e9c1127f2cd403a315f,,,,,,,,,,,,,,,,,,,,threefour,,-2,0.417,,,,,,,,,,,,,,,,,,,,,,,,,,,,,,,,,,"[-0.17659999999999998,0.3253999999999999,0.19999999999999996]","[-0.9688,-0.7412000000000001,-0.4902000000000001]",-74,-21.5,1,0,0,response5disk,-10,-4.5,1,0,0,rectangle,-10,-4.5,1,0,0,-2,2,0.002,0,-10,-4.5,1,0,0,0,14,14,23,1,23,first,,,,,,,,,,,,,,,,,,,,,,,,,,,,,,,,,,,,,,,,,,,,,,,,,,,,,,,,,,,,,,,,,,,,,,,,,
,,,,,,6170470c7c54261cb56b3565,62c5391615bc9962c572dea2,2022-07-06_09h27.15.204,Colour_Asymmetry_Pilot,2022.1.3,Win32,60.0240096,62c50e9c1127f2cd403a315f,,,,,,,,,,,,,,,,,,,,fourthree,,-3,0.45,,,,,,,,,,,,,,,,,,,,,,,,,,,,,,,,,,"[-0.20799999999999996,-0.655,-0.01980000000000004]","[0.9763999999999999,0.8588,-0.05900000000000005]",-55,33.5,1,0,0,response7disk,4,-2.5,1,0,0,rectangle,4,-2.5,1,0,0,-2,1,0.002,0,4,-2.5,1,0,0,0,15,15,90,1,9,second,,,,,,,,,,,,,,,,,,,,,,,,,,,,,,,,,,,,,,,,,,,,,,,,,,,,,,,,,,,,,,,,,,,,,,,,,
,,,,,,6170470c7c54261cb56b3565,62c5391615bc9962c572dea2,2022-07-06_09h27.15.204,Colour_Asymmetry_Pilot,2022.1.3,Win32,60.0240096,62c50e9c1127f2cd403a315f,,,,,,,,,,,,,,,,,,,,twofour,,4,0.366,,,,,,,,,,,,,,,,,,,,,,,,,,,,,,,,,,"[-0.9688,-0.7412000000000001,-0.4902000000000001]","[-0.30200000000000005,0.14500000000000002,0.2784]",28,44.5,1,0,0,response1disk,-7,3.5,1,0,0,rectangle,-7,3.5,1,0,0,-2,3,0.001,0,-7,3.5,1,0,0,0,16,16,58,1,58,first,,,,,,,,,,,,,,,,,,,,,,,,,,,,,,,,,,,,,,,,,,,,,,,,,,,,,,,,,,,,,,,,,,,,,,,,,
