trials.thisRepN,trials.thisTrialN,trials.thisN,trials.thisIndex,trials.ran,Colourcodes,participant,session,date,expName,psychopyVersion,OS,frameRate,study_id,trials_4.thisRepN,trials_4.thisTrialN,trials_4.thisN,trials_4.thisIndex,trials_4.ran,StimulusPos,key_resp.keys,key_resp.rt,key_resp_2.keys,key_resp_2.rt,key_resp_15.keys,key_resp_15.rt,key_resp_17.keys,key_resp_17.rt,key_resp_9.keys,key_resp_9.rt,key_resp_10.keys,key_resp_10.rt,Circle1_col,Ecc,Circle2_col,similarity,response_time,mouse_5.x,mouse_5.y,mouse_5.leftButton,mouse_5.midButton,mouse_5.rightButton,mouse_5.clicked_name,mouse_10.x,mouse_10.y,mouse_10.leftButton,mouse_10.midButton,mouse_10.rightButton,mouse_10.clicked_name,mouse_7.x,mouse_7.y,mouse_7.leftButton,mouse_7.midButton,mouse_7.rightButton,catchnumberprac,mouse_6.x,mouse_6.y,mouse_6.leftButton,mouse_6.midButton,mouse_6.rightButton,duringprac.thisRepN,duringprac.thisTrialN,duringprac.thisN,duringprac.thisIndex,duringprac.ran,mouse_7.clicked_name,catchprac,mouse_6.clicked_name,key_resp_22.keys,key_resp_22.rt,Circle1_colour,Circle2_colour,mouse.x,mouse.y,mouse.leftButton,mouse.midButton,mouse.rightButton,mouse.clicked_name,mouse_2.x,mouse_2.y,mouse_2.leftButton,mouse_2.midButton,mouse_2.rightButton,mouse_2.clicked_name,mouse_3.x,mouse_3.y,mouse_3.leftButton,mouse_3.midButton,mouse_3.rightButton,catchresponse,catchnumber,response_time_catch,Catch,mouse_11.x,mouse_11.y,mouse_11.leftButton,mouse_11.midButton,mouse_11.rightButton,trials_2.thisRepN,trials_2.thisTrialN,trials_2.thisN,trials_2.thisIndex,trials_2.ran,Colourpair,Temporder,mouse_3.clicked_name,mouse_11.clicked_name,trials_3.thisRepN,trials_3.thisTrialN,trials_3.thisN,trials_3.thisIndex,trials_3.ran,key_resp_instr_Ishi.keys,key_resp_instr_Ishi.rt,Ishi_trial_keyresp.keys,Ishi_textbox.text,Ishi_mouse.x,Ishi_mouse.y,Ishi_mouse.leftButton,Ishi_mouse.midButton,Ishi_mouse.rightButton,Ishi_mouse.clicked_name,Ishi_loop.thisRepN,Ishi_loop.thisTrialN,Ishi_loop.thisN,Ishi_loop.thisIndex,Ishi_loop.ran,imageaddress,textbox.text,mouse_4.x,mouse_4.y,mouse_4.leftButton,mouse_4.midButton,mouse_4.rightButton,mouse_4.clicked_name,textbox_2.text,mouse_8.x,mouse_8.y,mouse_8.leftButton,mouse_8.midButton,mouse_8.rightButton,mouse_8.clicked_name,textbox_3.text,mouse_9.x,mouse_9.y,mouse_9.leftButton,mouse_9.midButton,mouse_9.rightButton,mouse_9.clicked_name,textbox_4.text,mouse_12.x,mouse_12.y,mouse_12.leftButton,mouse_12.midButton,mouse_12.rightButton,mouse_12.clicked_name,textbox_5.text,mouse_13.x,mouse_13.y,mouse_13.leftButton,mouse_13.midButton,mouse_13.rightButton,mouse_13.clicked_name,textbox_6.text,mouse_14.x,mouse_14.y,mouse_14.leftButton,mouse_14.midButton,mouse_14.rightButton,mouse_14.clicked_name,textbox_7.text,mouse_15.x,mouse_15.y,mouse_15.leftButton,mouse_15.midButton,mouse_15.rightButton,mouse_15.clicked_name
0,0,0,85,1,,608097c56d749da02771a81a,62c53a492eda98afddd01cb7,2022-07-06_09h31.32.476,Colour_Asymmetry_Pilot,2022.1.3,Win32,75.0131273,62c50e9c1127f2cd403a315f,,,,,,,,,,,,,,,,,,,,,,,,,,,,,,,,,,,,,,,,,,,,,,,,,,,,,,,,,,,,,,,,,,,,,,,,,,,,,,,,,,,,,,,,,,,,,,,,,,,,,,,,,,,,,,,,,,,,,,,,,,,,,,,,,,,,,,,,,,,,,,,,,,,,,,,,,,,,,,,,,,,
0,1,1,33,1,,608097c56d749da02771a81a,62c53a492eda98afddd01cb7,2022-07-06_09h31.32.476,Colour_Asymmetry_Pilot,2022.1.3,Win32,75.0131273,62c50e9c1127f2cd403a315f,,,,,,,,,,,,,,,,,,,,,,,,,,,,,,,,,,,,,,,,,,,,,,,,,,,,,,,,,,,,,,,,,,,,,,,,,,,,,,,,,,,,,,,,,,,,,,,,,,,,,,,,,,,,,,,,,,,,,,,,,,,,,,,,,,,,,,,,,,,,,,,,,,,,,,,,,,,,,,,,,,,
0,2,2,52,1,,608097c56d749da02771a81a,62c53a492eda98afddd01cb7,2022-07-06_09h31.32.476,Colour_Asymmetry_Pilot,2022.1.3,Win32,75.0131273,62c50e9c1127f2cd403a315f,,,,,,,,,,,,,,,,,,,,,,,,,,,,,,,,,,,,,,,,,,,,,,,,,,,,,,,,,,,,,,,,,,,,,,,,,,,,,,,,,,,,,,,,,,,,,,,,,,,,,,,,,,,,,,,,,,,,,,,,,,,,,,,,,,,,,,,,,,,,,,,,,,,,,,,,,,,,,,,,,,,
0,3,3,59,1,,608097c56d749da02771a81a,62c53a492eda98afddd01cb7,2022-07-06_09h31.32.476,Colour_Asymmetry_Pilot,2022.1.3,Win32,75.0131273,62c50e9c1127f2cd403a315f,,,,,,,,,,,,,,,,,,,,,,,,,,,,,,,,,,,,,,,,,,,,,,,,,,,,,,,,,,,,,,,,,,,,,,,,,,,,,,,,,,,,,,,,,,,,,,,,,,,,,,,,,,,,,,,,,,,,,,,,,,,,,,,,,,,,,,,,,,,,,,,,,,,,,,,,,,,,,,,,,,,
0,4,4,28,1,,608097c56d749da02771a81a,62c53a492eda98afddd01cb7,2022-07-06_09h31.32.476,Colour_Asymmetry_Pilot,2022.1.3,Win32,75.0131273,62c50e9c1127f2cd403a315f,,,,,,,,,,,,,,,,,,,,,,,,,,,,,,,,,,,,,,,,,,,,,,,,,,,,,,,,,,,,,,,,,,,,,,,,,,,,,,,,,,,,,,,,,,,,,,,,,,,,,,,,,,,,,,,,,,,,,,,,,,,,,,,,,,,,,,,,,,,,,,,,,,,,,,,,,,,,,,,,,,,
0,5,5,19,1,,608097c56d749da02771a81a,62c53a492eda98afddd01cb7,2022-07-06_09h31.32.476,Colour_Asymmetry_Pilot,2022.1.3,Win32,75.0131273,62c50e9c1127f2cd403a315f,,,,,,,,,,,,,,,,,,,,,,,,,,,,,,,,,,,,,,,,,,,,,,,,,,,,,,,,,,,,,,,,,,,,,,,,,,,,,,,,,,,,,,,,,,,,,,,,,,,,,,,,,,,,,,,,,,,,,,,,,,,,,,,,,,,,,,,,,,,,,,,,,,,,,,,,,,,,,,,,,,,
0,6,6,12,1,,608097c56d749da02771a81a,62c53a492eda98afddd01cb7,2022-07-06_09h31.32.476,Colour_Asymmetry_Pilot,2022.1.3,Win32,75.0131273,62c50e9c1127f2cd403a315f,,,,,,,,,,,,,,,,,,,,,,,,,,,,,,,,,,,,,,,,,,,,,,,,,,,,,,,,,,,,,,,,,,,,,,,,,,,,,,,,,,,,,,,,,,,,,,,,,,,,,,,,,,,,,,,,,,,,,,,,,,,,,,,,,,,,,,,,,,,,,,,,,,,,,,,,,,,,,,,,,,,
0,7,7,56,1,,608097c56d749da02771a81a,62c53a492eda98afddd01cb7,2022-07-06_09h31.32.476,Colour_Asymmetry_Pilot,2022.1.3,Win32,75.0131273,62c50e9c1127f2cd403a315f,,,,,,,,,,,,,,,,,,,,,,,,,,,,,,,,,,,,,,,,,,,,,,,,,,,,,,,,,,,,,,,,,,,,,,,,,,,,,,,,,,,,,,,,,,,,,,,,,,,,,,,,,,,,,,,,,,,,,,,,,,,,,,,,,,,,,,,,,,,,,,,,,,,,,,,,,,,,,,,,,,,
0,8,8,78,1,,608097c56d749da02771a81a,62c53a492eda98afddd01cb7,2022-07-06_09h31.32.476,Colour_Asymmetry_Pilot,2022.1.3,Win32,75.0131273,62c50e9c1127f2cd403a315f,,,,,,,,,,,,,,,,,,,,,,,,,,,,,,,,,,,,,,,,,,,,,,,,,,,,,,,,,,,,,,,,,,,,,,,,,,,,,,,,,,,,,,,,,,,,,,,,,,,,,,,,,,,,,,,,,,,,,,,,,,,,,,,,,,,,,,,,,,,,,,,,,,,,,,,,,,,,,,,,,,,
0,9,9,57,1,,608097c56d749da02771a81a,62c53a492eda98afddd01cb7,2022-07-06_09h31.32.476,Colour_Asymmetry_Pilot,2022.1.3,Win32,75.0131273,62c50e9c1127f2cd403a315f,,,,,,,,,,,,,,,,,,,,,,,,,,,,,,,,,,,,,,,,,,,,,,,,,,,,,,,,,,,,,,,,,,,,,,,,,,,,,,,,,,,,,,,,,,,,,,,,,,,,,,,,,,,,,,,,,,,,,,,,,,,,,,,,,,,,,,,,,,,,,,,,,,,,,,,,,,,,,,,,,,,
0,10,10,60,1,,608097c56d749da02771a81a,62c53a492eda98afddd01cb7,2022-07-06_09h31.32.476,Colour_Asymmetry_Pilot,2022.1.3,Win32,75.0131273,62c50e9c1127f2cd403a315f,,,,,,,,,,,,,,,,,,,,,,,,,,,,,,,,,,,,,,,,,,,,,,,,,,,,,,,,,,,,,,,,,,,,,,,,,,,,,,,,,,,,,,,,,,,,,,,,,,,,,,,,,,,,,,,,,,,,,,,,,,,,,,,,,,,,,,,,,,,,,,,,,,,,,,,,,,,,,,,,,,,
0,11,11,18,1,,608097c56d749da02771a81a,62c53a492eda98afddd01cb7,2022-07-06_09h31.32.476,Colour_Asymmetry_Pilot,2022.1.3,Win32,75.0131273,62c50e9c1127f2cd403a315f,,,,,,,,,,,,,,,,,,,,,,,,,,,,,,,,,,,,,,,,,,,,,,,,,,,,,,,,,,,,,,,,,,,,,,,,,,,,,,,,,,,,,,,,,,,,,,,,,,,,,,,,,,,,,,,,,,,,,,,,,,,,,,,,,,,,,,,,,,,,,,,,,,,,,,,,,,,,,,,,,,,
0,12,12,54,1,,608097c56d749da02771a81a,62c53a492eda98afddd01cb7,2022-07-06_09h31.32.476,Colour_Asymmetry_Pilot,2022.1.3,Win32,75.0131273,62c50e9c1127f2cd403a315f,,,,,,,,,,,,,,,,,,,,,,,,,,,,,,,,,,,,,,,,,,,,,,,,,,,,,,,,,,,,,,,,,,,,,,,,,,,,,,,,,,,,,,,,,,,,,,,,,,,,,,,,,,,,,,,,,,,,,,,,,,,,,,,,,,,,,,,,,,,,,,,,,,,,,,,,,,,,,,,,,,,
0,13,13,26,1,,608097c56d749da02771a81a,62c53a492eda98afddd01cb7,2022-07-06_09h31.32.476,Colour_Asymmetry_Pilot,2022.1.3,Win32,75.0131273,62c50e9c1127f2cd403a315f,,,,,,,,,,,,,,,,,,,,,,,,,,,,,,,,,,,,,,,,,,,,,,,,,,,,,,,,,,,,,,,,,,,,,,,,,,,,,,,,,,,,,,,,,,,,,,,,,,,,,,,,,,,,,,,,,,,,,,,,,,,,,,,,,,,,,,,,,,,,,,,,,,,,,,,,,,,,,,,,,,,
0,14,14,39,1,,608097c56d749da02771a81a,62c53a492eda98afddd01cb7,2022-07-06_09h31.32.476,Colour_Asymmetry_Pilot,2022.1.3,Win32,75.0131273,62c50e9c1127f2cd403a315f,,,,,,,,,,,,,,,,,,,,,,,,,,,,,,,,,,,,,,,,,,,,,,,,,,,,,,,,,,,,,,,,,,,,,,,,,,,,,,,,,,,,,,,,,,,,,,,,,,,,,,,,,,,,,,,,,,,,,,,,,,,,,,,,,,,,,,,,,,,,,,,,,,,,,,,,,,,,,,,,,,,
0,15,15,29,1,,608097c56d749da02771a81a,62c53a492eda98afddd01cb7,2022-07-06_09h31.32.476,Colour_Asymmetry_Pilot,2022.1.3,Win32,75.0131273,62c50e9c1127f2cd403a315f,,,,,,,,,,,,,,,,,,,,,,,,,,,,,,,,,,,,,,,,,,,,,,,,,,,,,,,,,,,,,,,,,,,,,,,,,,,,,,,,,,,,,,,,,,,,,,,,,,,,,,,,,,,,,,,,,,,,,,,,,,,,,,,,,,,,,,,,,,,,,,,,,,,,,,,,,,,,,,,,,,,
0,16,16,34,1,,608097c56d749da02771a81a,62c53a492eda98afddd01cb7,2022-07-06_09h31.32.476,Colour_Asymmetry_Pilot,2022.1.3,Win32,75.0131273,62c50e9c1127f2cd403a315f,,,,,,,,,,,,,,,,,,,,,,,,,,,,,,,,,,,,,,,,,,,,,,,,,,,,,,,,,,,,,,,,,,,,,,,,,,,,,,,,,,,,,,,,,,,,,,,,,,,,,,,,,,,,,,,,,,,,,,,,,,,,,,,,,,,,,,,,,,,,,,,,,,,,,,,,,,,,,,,,,,,
0,17,17,71,1,,608097c56d749da02771a81a,62c53a492eda98afddd01cb7,2022-07-06_09h31.32.476,Colour_Asymmetry_Pilot,2022.1.3,Win32,75.0131273,62c50e9c1127f2cd403a315f,,,,,,,,,,,,,,,,,,,,,,,,,,,,,,,,,,,,,,,,,,,,,,,,,,,,,,,,,,,,,,,,,,,,,,,,,,,,,,,,,,,,,,,,,,,,,,,,,,,,,,,,,,,,,,,,,,,,,,,,,,,,,,,,,,,,,,,,,,,,,,,,,,,,,,,,,,,,,,,,,,,
0,18,18,76,1,,608097c56d749da02771a81a,62c53a492eda98afddd01cb7,2022-07-06_09h31.32.476,Colour_Asymmetry_Pilot,2022.1.3,Win32,75.0131273,62c50e9c1127f2cd403a315f,,,,,,,,,,,,,,,,,,,,,,,,,,,,,,,,,,,,,,,,,,,,,,,,,,,,,,,,,,,,,,,,,,,,,,,,,,,,,,,,,,,,,,,,,,,,,,,,,,,,,,,,,,,,,,,,,,,,,,,,,,,,,,,,,,,,,,,,,,,,,,,,,,,,,,,,,,,,,,,,,,,
0,19,19,51,1,,608097c56d749da02771a81a,62c53a492eda98afddd01cb7,2022-07-06_09h31.32.476,Colour_Asymmetry_Pilot,2022.1.3,Win32,75.0131273,62c50e9c1127f2cd403a315f,,,,,,,,,,,,,,,,,,,,,,,,,,,,,,,,,,,,,,,,,,,,,,,,,,,,,,,,,,,,,,,,,,,,,,,,,,,,,,,,,,,,,,,,,,,,,,,,,,,,,,,,,,,,,,,,,,,,,,,,,,,,,,,,,,,,,,,,,,,,,,,,,,,,,,,,,,,,,,,,,,,
0,20,20,82,1,,608097c56d749da02771a81a,62c53a492eda98afddd01cb7,2022-07-06_09h31.32.476,Colour_Asymmetry_Pilot,2022.1.3,Win32,75.0131273,62c50e9c1127f2cd403a315f,,,,,,,,,,,,,,,,,,,,,,,,,,,,,,,,,,,,,,,,,,,,,,,,,,,,,,,,,,,,,,,,,,,,,,,,,,,,,,,,,,,,,,,,,,,,,,,,,,,,,,,,,,,,,,,,,,,,,,,,,,,,,,,,,,,,,,,,,,,,,,,,,,,,,,,,,,,,,,,,,,,
0,21,21,10,1,,608097c56d749da02771a81a,62c53a492eda98afddd01cb7,2022-07-06_09h31.32.476,Colour_Asymmetry_Pilot,2022.1.3,Win32,75.0131273,62c50e9c1127f2cd403a315f,,,,,,,,,,,,,,,,,,,,,,,,,,,,,,,,,,,,,,,,,,,,,,,,,,,,,,,,,,,,,,,,,,,,,,,,,,,,,,,,,,,,,,,,,,,,,,,,,,,,,,,,,,,,,,,,,,,,,,,,,,,,,,,,,,,,,,,,,,,,,,,,,,,,,,,,,,,,,,,,,,,
0,22,22,6,1,,608097c56d749da02771a81a,62c53a492eda98afddd01cb7,2022-07-06_09h31.32.476,Colour_Asymmetry_Pilot,2022.1.3,Win32,75.0131273,62c50e9c1127f2cd403a315f,,,,,,,,,,,,,,,,,,,,,,,,,,,,,,,,,,,,,,,,,,,,,,,,,,,,,,,,,,,,,,,,,,,,,,,,,,,,,,,,,,,,,,,,,,,,,,,,,,,,,,,,,,,,,,,,,,,,,,,,,,,,,,,,,,,,,,,,,,,,,,,,,,,,,,,,,,,,,,,,,,,
0,23,23,77,1,,608097c56d749da02771a81a,62c53a492eda98afddd01cb7,2022-07-06_09h31.32.476,Colour_Asymmetry_Pilot,2022.1.3,Win32,75.0131273,62c50e9c1127f2cd403a315f,,,,,,,,,,,,,,,,,,,,,,,,,,,,,,,,,,,,,,,,,,,,,,,,,,,,,,,,,,,,,,,,,,,,,,,,,,,,,,,,,,,,,,,,,,,,,,,,,,,,,,,,,,,,,,,,,,,,,,,,,,,,,,,,,,,,,,,,,,,,,,,,,,,,,,,,,,,,,,,,,,,
0,24,24,65,1,,608097c56d749da02771a81a,62c53a492eda98afddd01cb7,2022-07-06_09h31.32.476,Colour_Asymmetry_Pilot,2022.1.3,Win32,75.0131273,62c50e9c1127f2cd403a315f,,,,,,,,,,,,,,,,,,,,,,,,,,,,,,,,,,,,,,,,,,,,,,,,,,,,,,,,,,,,,,,,,,,,,,,,,,,,,,,,,,,,,,,,,,,,,,,,,,,,,,,,,,,,,,,,,,,,,,,,,,,,,,,,,,,,,,,,,,,,,,,,,,,,,,,,,,,,,,,,,,,
0,25,25,63,1,,608097c56d749da02771a81a,62c53a492eda98afddd01cb7,2022-07-06_09h31.32.476,Colour_Asymmetry_Pilot,2022.1.3,Win32,75.0131273,62c50e9c1127f2cd403a315f,,,,,,,,,,,,,,,,,,,,,,,,,,,,,,,,,,,,,,,,,,,,,,,,,,,,,,,,,,,,,,,,,,,,,,,,,,,,,,,,,,,,,,,,,,,,,,,,,,,,,,,,,,,,,,,,,,,,,,,,,,,,,,,,,,,,,,,,,,,,,,,,,,,,,,,,,,,,,,,,,,,
0,26,26,49,1,,608097c56d749da02771a81a,62c53a492eda98afddd01cb7,2022-07-06_09h31.32.476,Colour_Asymmetry_Pilot,2022.1.3,Win32,75.0131273,62c50e9c1127f2cd403a315f,,,,,,,,,,,,,,,,,,,,,,,,,,,,,,,,,,,,,,,,,,,,,,,,,,,,,,,,,,,,,,,,,,,,,,,,,,,,,,,,,,,,,,,,,,,,,,,,,,,,,,,,,,,,,,,,,,,,,,,,,,,,,,,,,,,,,,,,,,,,,,,,,,,,,,,,,,,,,,,,,,,
0,27,27,89,1,,608097c56d749da02771a81a,62c53a492eda98afddd01cb7,2022-07-06_09h31.32.476,Colour_Asymmetry_Pilot,2022.1.3,Win32,75.0131273,62c50e9c1127f2cd403a315f,,,,,,,,,,,,,,,,,,,,,,,,,,,,,,,,,,,,,,,,,,,,,,,,,,,,,,,,,,,,,,,,,,,,,,,,,,,,,,,,,,,,,,,,,,,,,,,,,,,,,,,,,,,,,,,,,,,,,,,,,,,,,,,,,,,,,,,,,,,,,,,,,,,,,,,,,,,,,,,,,,,
0,28,28,61,1,,608097c56d749da02771a81a,62c53a492eda98afddd01cb7,2022-07-06_09h31.32.476,Colour_Asymmetry_Pilot,2022.1.3,Win32,75.0131273,62c50e9c1127f2cd403a315f,,,,,,,,,,,,,,,,,,,,,,,,,,,,,,,,,,,,,,,,,,,,,,,,,,,,,,,,,,,,,,,,,,,,,,,,,,,,,,,,,,,,,,,,,,,,,,,,,,,,,,,,,,,,,,,,,,,,,,,,,,,,,,,,,,,,,,,,,,,,,,,,,,,,,,,,,,,,,,,,,,,
0,29,29,48,1,,608097c56d749da02771a81a,62c53a492eda98afddd01cb7,2022-07-06_09h31.32.476,Colour_Asymmetry_Pilot,2022.1.3,Win32,75.0131273,62c50e9c1127f2cd403a315f,,,,,,,,,,,,,,,,,,,,,,,,,,,,,,,,,,,,,,,,,,,,,,,,,,,,,,,,,,,,,,,,,,,,,,,,,,,,,,,,,,,,,,,,,,,,,,,,,,,,,,,,,,,,,,,,,,,,,,,,,,,,,,,,,,,,,,,,,,,,,,,,,,,,,,,,,,,,,,,,,,,
0,30,30,43,1,,608097c56d749da02771a81a,62c53a492eda98afddd01cb7,2022-07-06_09h31.32.476,Colour_Asymmetry_Pilot,2022.1.3,Win32,75.0131273,62c50e9c1127f2cd403a315f,,,,,,,,,,,,,,,,,,,,,,,,,,,,,,,,,,,,,,,,,,,,,,,,,,,,,,,,,,,,,,,,,,,,,,,,,,,,,,,,,,,,,,,,,,,,,,,,,,,,,,,,,,,,,,,,,,,,,,,,,,,,,,,,,,,,,,,,,,,,,,,,,,,,,,,,,,,,,,,,,,,
0,31,31,67,1,,608097c56d749da02771a81a,62c53a492eda98afddd01cb7,2022-07-06_09h31.32.476,Colour_Asymmetry_Pilot,2022.1.3,Win32,75.0131273,62c50e9c1127f2cd403a315f,,,,,,,,,,,,,,,,,,,,,,,,,,,,,,,,,,,,,,,,,,,,,,,,,,,,,,,,,,,,,,,,,,,,,,,,,,,,,,,,,,,,,,,,,,,,,,,,,,,,,,,,,,,,,,,,,,,,,,,,,,,,,,,,,,,,,,,,,,,,,,,,,,,,,,,,,,,,,,,,,,,
0,32,32,21,1,,608097c56d749da02771a81a,62c53a492eda98afddd01cb7,2022-07-06_09h31.32.476,Colour_Asymmetry_Pilot,2022.1.3,Win32,75.0131273,62c50e9c1127f2cd403a315f,,,,,,,,,,,,,,,,,,,,,,,,,,,,,,,,,,,,,,,,,,,,,,,,,,,,,,,,,,,,,,,,,,,,,,,,,,,,,,,,,,,,,,,,,,,,,,,,,,,,,,,,,,,,,,,,,,,,,,,,,,,,,,,,,,,,,,,,,,,,,,,,,,,,,,,,,,,,,,,,,,,
0,33,33,79,1,,608097c56d749da02771a81a,62c53a492eda98afddd01cb7,2022-07-06_09h31.32.476,Colour_Asymmetry_Pilot,2022.1.3,Win32,75.0131273,62c50e9c1127f2cd403a315f,,,,,,,,,,,,,,,,,,,,,,,,,,,,,,,,,,,,,,,,,,,,,,,,,,,,,,,,,,,,,,,,,,,,,,,,,,,,,,,,,,,,,,,,,,,,,,,,,,,,,,,,,,,,,,,,,,,,,,,,,,,,,,,,,,,,,,,,,,,,,,,,,,,,,,,,,,,,,,,,,,,
0,34,34,69,1,,608097c56d749da02771a81a,62c53a492eda98afddd01cb7,2022-07-06_09h31.32.476,Colour_Asymmetry_Pilot,2022.1.3,Win32,75.0131273,62c50e9c1127f2cd403a315f,,,,,,,,,,,,,,,,,,,,,,,,,,,,,,,,,,,,,,,,,,,,,,,,,,,,,,,,,,,,,,,,,,,,,,,,,,,,,,,,,,,,,,,,,,,,,,,,,,,,,,,,,,,,,,,,,,,,,,,,,,,,,,,,,,,,,,,,,,,,,,,,,,,,,,,,,,,,,,,,,,,
0,35,35,9,1,,608097c56d749da02771a81a,62c53a492eda98afddd01cb7,2022-07-06_09h31.32.476,Colour_Asymmetry_Pilot,2022.1.3,Win32,75.0131273,62c50e9c1127f2cd403a315f,,,,,,,,,,,,,,,,,,,,,,,,,,,,,,,,,,,,,,,,,,,,,,,,,,,,,,,,,,,,,,,,,,,,,,,,,,,,,,,,,,,,,,,,,,,,,,,,,,,,,,,,,,,,,,,,,,,,,,,,,,,,,,,,,,,,,,,,,,,,,,,,,,,,,,,,,,,,,,,,,,,
0,36,36,36,1,,608097c56d749da02771a81a,62c53a492eda98afddd01cb7,2022-07-06_09h31.32.476,Colour_Asymmetry_Pilot,2022.1.3,Win32,75.0131273,62c50e9c1127f2cd403a315f,,,,,,,,,,,,,,,,,,,,,,,,,,,,,,,,,,,,,,,,,,,,,,,,,,,,,,,,,,,,,,,,,,,,,,,,,,,,,,,,,,,,,,,,,,,,,,,,,,,,,,,,,,,,,,,,,,,,,,,,,,,,,,,,,,,,,,,,,,,,,,,,,,,,,,,,,,,,,,,,,,,
0,37,37,72,1,,608097c56d749da02771a81a,62c53a492eda98afddd01cb7,2022-07-06_09h31.32.476,Colour_Asymmetry_Pilot,2022.1.3,Win32,75.0131273,62c50e9c1127f2cd403a315f,,,,,,,,,,,,,,,,,,,,,,,,,,,,,,,,,,,,,,,,,,,,,,,,,,,,,,,,,,,,,,,,,,,,,,,,,,,,,,,,,,,,,,,,,,,,,,,,,,,,,,,,,,,,,,,,,,,,,,,,,,,,,,,,,,,,,,,,,,,,,,,,,,,,,,,,,,,,,,,,,,,
0,38,38,23,1,,608097c56d749da02771a81a,62c53a492eda98afddd01cb7,2022-07-06_09h31.32.476,Colour_Asymmetry_Pilot,2022.1.3,Win32,75.0131273,62c50e9c1127f2cd403a315f,,,,,,,,,,,,,,,,,,,,,,,,,,,,,,,,,,,,,,,,,,,,,,,,,,,,,,,,,,,,,,,,,,,,,,,,,,,,,,,,,,,,,,,,,,,,,,,,,,,,,,,,,,,,,,,,,,,,,,,,,,,,,,,,,,,,,,,,,,,,,,,,,,,,,,,,,,,,,,,,,,,
0,39,39,73,1,,608097c56d749da02771a81a,62c53a492eda98afddd01cb7,2022-07-06_09h31.32.476,Colour_Asymmetry_Pilot,2022.1.3,Win32,75.0131273,62c50e9c1127f2cd403a315f,,,,,,,,,,,,,,,,,,,,,,,,,,,,,,,,,,,,,,,,,,,,,,,,,,,,,,,,,,,,,,,,,,,,,,,,,,,,,,,,,,,,,,,,,,,,,,,,,,,,,,,,,,,,,,,,,,,,,,,,,,,,,,,,,,,,,,,,,,,,,,,,,,,,,,,,,,,,,,,,,,,
0,40,40,41,1,,608097c56d749da02771a81a,62c53a492eda98afddd01cb7,2022-07-06_09h31.32.476,Colour_Asymmetry_Pilot,2022.1.3,Win32,75.0131273,62c50e9c1127f2cd403a315f,,,,,,,,,,,,,,,,,,,,,,,,,,,,,,,,,,,,,,,,,,,,,,,,,,,,,,,,,,,,,,,,,,,,,,,,,,,,,,,,,,,,,,,,,,,,,,,,,,,,,,,,,,,,,,,,,,,,,,,,,,,,,,,,,,,,,,,,,,,,,,,,,,,,,,,,,,,,,,,,,,,
0,41,41,8,1,,608097c56d749da02771a81a,62c53a492eda98afddd01cb7,2022-07-06_09h31.32.476,Colour_Asymmetry_Pilot,2022.1.3,Win32,75.0131273,62c50e9c1127f2cd403a315f,,,,,,,,,,,,,,,,,,,,,,,,,,,,,,,,,,,,,,,,,,,,,,,,,,,,,,,,,,,,,,,,,,,,,,,,,,,,,,,,,,,,,,,,,,,,,,,,,,,,,,,,,,,,,,,,,,,,,,,,,,,,,,,,,,,,,,,,,,,,,,,,,,,,,,,,,,,,,,,,,,,
0,42,42,38,1,,608097c56d749da02771a81a,62c53a492eda98afddd01cb7,2022-07-06_09h31.32.476,Colour_Asymmetry_Pilot,2022.1.3,Win32,75.0131273,62c50e9c1127f2cd403a315f,,,,,,,,,,,,,,,,,,,,,,,,,,,,,,,,,,,,,,,,,,,,,,,,,,,,,,,,,,,,,,,,,,,,,,,,,,,,,,,,,,,,,,,,,,,,,,,,,,,,,,,,,,,,,,,,,,,,,,,,,,,,,,,,,,,,,,,,,,,,,,,,,,,,,,,,,,,,,,,,,,,
0,43,43,86,1,,608097c56d749da02771a81a,62c53a492eda98afddd01cb7,2022-07-06_09h31.32.476,Colour_Asymmetry_Pilot,2022.1.3,Win32,75.0131273,62c50e9c1127f2cd403a315f,,,,,,,,,,,,,,,,,,,,,,,,,,,,,,,,,,,,,,,,,,,,,,,,,,,,,,,,,,,,,,,,,,,,,,,,,,,,,,,,,,,,,,,,,,,,,,,,,,,,,,,,,,,,,,,,,,,,,,,,,,,,,,,,,,,,,,,,,,,,,,,,,,,,,,,,,,,,,,,,,,,
0,44,44,11,1,,608097c56d749da02771a81a,62c53a492eda98afddd01cb7,2022-07-06_09h31.32.476,Colour_Asymmetry_Pilot,2022.1.3,Win32,75.0131273,62c50e9c1127f2cd403a315f,,,,,,,,,,,,,,,,,,,,,,,,,,,,,,,,,,,,,,,,,,,,,,,,,,,,,,,,,,,,,,,,,,,,,,,,,,,,,,,,,,,,,,,,,,,,,,,,,,,,,,,,,,,,,,,,,,,,,,,,,,,,,,,,,,,,,,,,,,,,,,,,,,,,,,,,,,,,,,,,,,,
0,45,45,40,1,,608097c56d749da02771a81a,62c53a492eda98afddd01cb7,2022-07-06_09h31.32.476,Colour_Asymmetry_Pilot,2022.1.3,Win32,75.0131273,62c50e9c1127f2cd403a315f,,,,,,,,,,,,,,,,,,,,,,,,,,,,,,,,,,,,,,,,,,,,,,,,,,,,,,,,,,,,,,,,,,,,,,,,,,,,,,,,,,,,,,,,,,,,,,,,,,,,,,,,,,,,,,,,,,,,,,,,,,,,,,,,,,,,,,,,,,,,,,,,,,,,,,,,,,,,,,,,,,,
0,46,46,88,1,,608097c56d749da02771a81a,62c53a492eda98afddd01cb7,2022-07-06_09h31.32.476,Colour_Asymmetry_Pilot,2022.1.3,Win32,75.0131273,62c50e9c1127f2cd403a315f,,,,,,,,,,,,,,,,,,,,,,,,,,,,,,,,,,,,,,,,,,,,,,,,,,,,,,,,,,,,,,,,,,,,,,,,,,,,,,,,,,,,,,,,,,,,,,,,,,,,,,,,,,,,,,,,,,,,,,,,,,,,,,,,,,,,,,,,,,,,,,,,,,,,,,,,,,,,,,,,,,,
0,47,47,81,1,,608097c56d749da02771a81a,62c53a492eda98afddd01cb7,2022-07-06_09h31.32.476,Colour_Asymmetry_Pilot,2022.1.3,Win32,75.0131273,62c50e9c1127f2cd403a315f,,,,,,,,,,,,,,,,,,,,,,,,,,,,,,,,,,,,,,,,,,,,,,,,,,,,,,,,,,,,,,,,,,,,,,,,,,,,,,,,,,,,,,,,,,,,,,,,,,,,,,,,,,,,,,,,,,,,,,,,,,,,,,,,,,,,,,,,,,,,,,,,,,,,,,,,,,,,,,,,,,,
0,48,48,53,1,,608097c56d749da02771a81a,62c53a492eda98afddd01cb7,2022-07-06_09h31.32.476,Colour_Asymmetry_Pilot,2022.1.3,Win32,75.0131273,62c50e9c1127f2cd403a315f,,,,,,,,,,,,,,,,,,,,,,,,,,,,,,,,,,,,,,,,,,,,,,,,,,,,,,,,,,,,,,,,,,,,,,,,,,,,,,,,,,,,,,,,,,,,,,,,,,,,,,,,,,,,,,,,,,,,,,,,,,,,,,,,,,,,,,,,,,,,,,,,,,,,,,,,,,,,,,,,,,,
0,49,49,14,1,,608097c56d749da02771a81a,62c53a492eda98afddd01cb7,2022-07-06_09h31.32.476,Colour_Asymmetry_Pilot,2022.1.3,Win32,75.0131273,62c50e9c1127f2cd403a315f,,,,,,,,,,,,,,,,,,,,,,,,,,,,,,,,,,,,,,,,,,,,,,,,,,,,,,,,,,,,,,,,,,,,,,,,,,,,,,,,,,,,,,,,,,,,,,,,,,,,,,,,,,,,,,,,,,,,,,,,,,,,,,,,,,,,,,,,,,,,,,,,,,,,,,,,,,,,,,,,,,,
0,50,50,46,1,,608097c56d749da02771a81a,62c53a492eda98afddd01cb7,2022-07-06_09h31.32.476,Colour_Asymmetry_Pilot,2022.1.3,Win32,75.0131273,62c50e9c1127f2cd403a315f,,,,,,,,,,,,,,,,,,,,,,,,,,,,,,,,,,,,,,,,,,,,,,,,,,,,,,,,,,,,,,,,,,,,,,,,,,,,,,,,,,,,,,,,,,,,,,,,,,,,,,,,,,,,,,,,,,,,,,,,,,,,,,,,,,,,,,,,,,,,,,,,,,,,,,,,,,,,,,,,,,,
0,51,51,2,1,,608097c56d749da02771a81a,62c53a492eda98afddd01cb7,2022-07-06_09h31.32.476,Colour_Asymmetry_Pilot,2022.1.3,Win32,75.0131273,62c50e9c1127f2cd403a315f,,,,,,,,,,,,,,,,,,,,,,,,,,,,,,,,,,,,,,,,,,,,,,,,,,,,,,,,,,,,,,,,,,,,,,,,,,,,,,,,,,,,,,,,,,,,,,,,,,,,,,,,,,,,,,,,,,,,,,,,,,,,,,,,,,,,,,,,,,,,,,,,,,,,,,,,,,,,,,,,,,,
0,52,52,30,1,,608097c56d749da02771a81a,62c53a492eda98afddd01cb7,2022-07-06_09h31.32.476,Colour_Asymmetry_Pilot,2022.1.3,Win32,75.0131273,62c50e9c1127f2cd403a315f,,,,,,,,,,,,,,,,,,,,,,,,,,,,,,,,,,,,,,,,,,,,,,,,,,,,,,,,,,,,,,,,,,,,,,,,,,,,,,,,,,,,,,,,,,,,,,,,,,,,,,,,,,,,,,,,,,,,,,,,,,,,,,,,,,,,,,,,,,,,,,,,,,,,,,,,,,,,,,,,,,,
0,53,53,90,1,,608097c56d749da02771a81a,62c53a492eda98afddd01cb7,2022-07-06_09h31.32.476,Colour_Asymmetry_Pilot,2022.1.3,Win32,75.0131273,62c50e9c1127f2cd403a315f,,,,,,,,,,,,,,,,,,,,,,,,,,,,,,,,,,,,,,,,,,,,,,,,,,,,,,,,,,,,,,,,,,,,,,,,,,,,,,,,,,,,,,,,,,,,,,,,,,,,,,,,,,,,,,,,,,,,,,,,,,,,,,,,,,,,,,,,,,,,,,,,,,,,,,,,,,,,,,,,,,,
0,54,54,55,1,,608097c56d749da02771a81a,62c53a492eda98afddd01cb7,2022-07-06_09h31.32.476,Colour_Asymmetry_Pilot,2022.1.3,Win32,75.0131273,62c50e9c1127f2cd403a315f,,,,,,,,,,,,,,,,,,,,,,,,,,,,,,,,,,,,,,,,,,,,,,,,,,,,,,,,,,,,,,,,,,,,,,,,,,,,,,,,,,,,,,,,,,,,,,,,,,,,,,,,,,,,,,,,,,,,,,,,,,,,,,,,,,,,,,,,,,,,,,,,,,,,,,,,,,,,,,,,,,,
0,55,55,0,1,,608097c56d749da02771a81a,62c53a492eda98afddd01cb7,2022-07-06_09h31.32.476,Colour_Asymmetry_Pilot,2022.1.3,Win32,75.0131273,62c50e9c1127f2cd403a315f,,,,,,,,,,,,,,,,,,,,,,,,,,,,,,,,,,,,,,,,,,,,,,,,,,,,,,,,,,,,,,,,,,,,,,,,,,,,,,,,,,,,,,,,,,,,,,,,,,,,,,,,,,,,,,,,,,,,,,,,,,,,,,,,,,,,,,,,,,,,,,,,,,,,,,,,,,,,,,,,,,,
0,56,56,62,1,,608097c56d749da02771a81a,62c53a492eda98afddd01cb7,2022-07-06_09h31.32.476,Colour_Asymmetry_Pilot,2022.1.3,Win32,75.0131273,62c50e9c1127f2cd403a315f,,,,,,,,,,,,,,,,,,,,,,,,,,,,,,,,,,,,,,,,,,,,,,,,,,,,,,,,,,,,,,,,,,,,,,,,,,,,,,,,,,,,,,,,,,,,,,,,,,,,,,,,,,,,,,,,,,,,,,,,,,,,,,,,,,,,,,,,,,,,,,,,,,,,,,,,,,,,,,,,,,,
0,57,57,66,1,,608097c56d749da02771a81a,62c53a492eda98afddd01cb7,2022-07-06_09h31.32.476,Colour_Asymmetry_Pilot,2022.1.3,Win32,75.0131273,62c50e9c1127f2cd403a315f,,,,,,,,,,,,,,,,,,,,,,,,,,,,,,,,,,,,,,,,,,,,,,,,,,,,,,,,,,,,,,,,,,,,,,,,,,,,,,,,,,,,,,,,,,,,,,,,,,,,,,,,,,,,,,,,,,,,,,,,,,,,,,,,,,,,,,,,,,,,,,,,,,,,,,,,,,,,,,,,,,,
0,58,58,35,1,,608097c56d749da02771a81a,62c53a492eda98afddd01cb7,2022-07-06_09h31.32.476,Colour_Asymmetry_Pilot,2022.1.3,Win32,75.0131273,62c50e9c1127f2cd403a315f,,,,,,,,,,,,,,,,,,,,,,,,,,,,,,,,,,,,,,,,,,,,,,,,,,,,,,,,,,,,,,,,,,,,,,,,,,,,,,,,,,,,,,,,,,,,,,,,,,,,,,,,,,,,,,,,,,,,,,,,,,,,,,,,,,,,,,,,,,,,,,,,,,,,,,,,,,,,,,,,,,,
0,59,59,70,1,,608097c56d749da02771a81a,62c53a492eda98afddd01cb7,2022-07-06_09h31.32.476,Colour_Asymmetry_Pilot,2022.1.3,Win32,75.0131273,62c50e9c1127f2cd403a315f,,,,,,,,,,,,,,,,,,,,,,,,,,,,,,,,,,,,,,,,,,,,,,,,,,,,,,,,,,,,,,,,,,,,,,,,,,,,,,,,,,,,,,,,,,,,,,,,,,,,,,,,,,,,,,,,,,,,,,,,,,,,,,,,,,,,,,,,,,,,,,,,,,,,,,,,,,,,,,,,,,,
0,60,60,68,1,,608097c56d749da02771a81a,62c53a492eda98afddd01cb7,2022-07-06_09h31.32.476,Colour_Asymmetry_Pilot,2022.1.3,Win32,75.0131273,62c50e9c1127f2cd403a315f,,,,,,,,,,,,,,,,,,,,,,,,,,,,,,,,,,,,,,,,,,,,,,,,,,,,,,,,,,,,,,,,,,,,,,,,,,,,,,,,,,,,,,,,,,,,,,,,,,,,,,,,,,,,,,,,,,,,,,,,,,,,,,,,,,,,,,,,,,,,,,,,,,,,,,,,,,,,,,,,,,,
0,61,61,27,1,,608097c56d749da02771a81a,62c53a492eda98afddd01cb7,2022-07-06_09h31.32.476,Colour_Asymmetry_Pilot,2022.1.3,Win32,75.0131273,62c50e9c1127f2cd403a315f,,,,,,,,,,,,,,,,,,,,,,,,,,,,,,,,,,,,,,,,,,,,,,,,,,,,,,,,,,,,,,,,,,,,,,,,,,,,,,,,,,,,,,,,,,,,,,,,,,,,,,,,,,,,,,,,,,,,,,,,,,,,,,,,,,,,,,,,,,,,,,,,,,,,,,,,,,,,,,,,,,,
0,62,62,7,1,,608097c56d749da02771a81a,62c53a492eda98afddd01cb7,2022-07-06_09h31.32.476,Colour_Asymmetry_Pilot,2022.1.3,Win32,75.0131273,62c50e9c1127f2cd403a315f,,,,,,,,,,,,,,,,,,,,,,,,,,,,,,,,,,,,,,,,,,,,,,,,,,,,,,,,,,,,,,,,,,,,,,,,,,,,,,,,,,,,,,,,,,,,,,,,,,,,,,,,,,,,,,,,,,,,,,,,,,,,,,,,,,,,,,,,,,,,,,,,,,,,,,,,,,,,,,,,,,,
0,63,63,87,1,,608097c56d749da02771a81a,62c53a492eda98afddd01cb7,2022-07-06_09h31.32.476,Colour_Asymmetry_Pilot,2022.1.3,Win32,75.0131273,62c50e9c1127f2cd403a315f,,,,,,,,,,,,,,,,,,,,,,,,,,,,,,,,,,,,,,,,,,,,,,,,,,,,,,,,,,,,,,,,,,,,,,,,,,,,,,,,,,,,,,,,,,,,,,,,,,,,,,,,,,,,,,,,,,,,,,,,,,,,,,,,,,,,,,,,,,,,,,,,,,,,,,,,,,,,,,,,,,,
0,64,64,47,1,,608097c56d749da02771a81a,62c53a492eda98afddd01cb7,2022-07-06_09h31.32.476,Colour_Asymmetry_Pilot,2022.1.3,Win32,75.0131273,62c50e9c1127f2cd403a315f,,,,,,,,,,,,,,,,,,,,,,,,,,,,,,,,,,,,,,,,,,,,,,,,,,,,,,,,,,,,,,,,,,,,,,,,,,,,,,,,,,,,,,,,,,,,,,,,,,,,,,,,,,,,,,,,,,,,,,,,,,,,,,,,,,,,,,,,,,,,,,,,,,,,,,,,,,,,,,,,,,,
0,65,65,44,1,,608097c56d749da02771a81a,62c53a492eda98afddd01cb7,2022-07-06_09h31.32.476,Colour_Asymmetry_Pilot,2022.1.3,Win32,75.0131273,62c50e9c1127f2cd403a315f,,,,,,,,,,,,,,,,,,,,,,,,,,,,,,,,,,,,,,,,,,,,,,,,,,,,,,,,,,,,,,,,,,,,,,,,,,,,,,,,,,,,,,,,,,,,,,,,,,,,,,,,,,,,,,,,,,,,,,,,,,,,,,,,,,,,,,,,,,,,,,,,,,,,,,,,,,,,,,,,,,,
0,66,66,3,1,,608097c56d749da02771a81a,62c53a492eda98afddd01cb7,2022-07-06_09h31.32.476,Colour_Asymmetry_Pilot,2022.1.3,Win32,75.0131273,62c50e9c1127f2cd403a315f,,,,,,,,,,,,,,,,,,,,,,,,,,,,,,,,,,,,,,,,,,,,,,,,,,,,,,,,,,,,,,,,,,,,,,,,,,,,,,,,,,,,,,,,,,,,,,,,,,,,,,,,,,,,,,,,,,,,,,,,,,,,,,,,,,,,,,,,,,,,,,,,,,,,,,,,,,,,,,,,,,,
0,67,67,37,1,,608097c56d749da02771a81a,62c53a492eda98afddd01cb7,2022-07-06_09h31.32.476,Colour_Asymmetry_Pilot,2022.1.3,Win32,75.0131273,62c50e9c1127f2cd403a315f,,,,,,,,,,,,,,,,,,,,,,,,,,,,,,,,,,,,,,,,,,,,,,,,,,,,,,,,,,,,,,,,,,,,,,,,,,,,,,,,,,,,,,,,,,,,,,,,,,,,,,,,,,,,,,,,,,,,,,,,,,,,,,,,,,,,,,,,,,,,,,,,,,,,,,,,,,,,,,,,,,,
0,68,68,32,1,,608097c56d749da02771a81a,62c53a492eda98afddd01cb7,2022-07-06_09h31.32.476,Colour_Asymmetry_Pilot,2022.1.3,Win32,75.0131273,62c50e9c1127f2cd403a315f,,,,,,,,,,,,,,,,,,,,,,,,,,,,,,,,,,,,,,,,,,,,,,,,,,,,,,,,,,,,,,,,,,,,,,,,,,,,,,,,,,,,,,,,,,,,,,,,,,,,,,,,,,,,,,,,,,,,,,,,,,,,,,,,,,,,,,,,,,,,,,,,,,,,,,,,,,,,,,,,,,,
0,69,69,42,1,,608097c56d749da02771a81a,62c53a492eda98afddd01cb7,2022-07-06_09h31.32.476,Colour_Asymmetry_Pilot,2022.1.3,Win32,75.0131273,62c50e9c1127f2cd403a315f,,,,,,,,,,,,,,,,,,,,,,,,,,,,,,,,,,,,,,,,,,,,,,,,,,,,,,,,,,,,,,,,,,,,,,,,,,,,,,,,,,,,,,,,,,,,,,,,,,,,,,,,,,,,,,,,,,,,,,,,,,,,,,,,,,,,,,,,,,,,,,,,,,,,,,,,,,,,,,,,,,,
0,70,70,25,1,,608097c56d749da02771a81a,62c53a492eda98afddd01cb7,2022-07-06_09h31.32.476,Colour_Asymmetry_Pilot,2022.1.3,Win32,75.0131273,62c50e9c1127f2cd403a315f,,,,,,,,,,,,,,,,,,,,,,,,,,,,,,,,,,,,,,,,,,,,,,,,,,,,,,,,,,,,,,,,,,,,,,,,,,,,,,,,,,,,,,,,,,,,,,,,,,,,,,,,,,,,,,,,,,,,,,,,,,,,,,,,,,,,,,,,,,,,,,,,,,,,,,,,,,,,,,,,,,,
0,71,71,91,1,,608097c56d749da02771a81a,62c53a492eda98afddd01cb7,2022-07-06_09h31.32.476,Colour_Asymmetry_Pilot,2022.1.3,Win32,75.0131273,62c50e9c1127f2cd403a315f,,,,,,,,,,,,,,,,,,,,,,,,,,,,,,,,,,,,,,,,,,,,,,,,,,,,,,,,,,,,,,,,,,,,,,,,,,,,,,,,,,,,,,,,,,,,,,,,,,,,,,,,,,,,,,,,,,,,,,,,,,,,,,,,,,,,,,,,,,,,,,,,,,,,,,,,,,,,,,,,,,,
0,72,72,17,1,,608097c56d749da02771a81a,62c53a492eda98afddd01cb7,2022-07-06_09h31.32.476,Colour_Asymmetry_Pilot,2022.1.3,Win32,75.0131273,62c50e9c1127f2cd403a315f,,,,,,,,,,,,,,,,,,,,,,,,,,,,,,,,,,,,,,,,,,,,,,,,,,,,,,,,,,,,,,,,,,,,,,,,,,,,,,,,,,,,,,,,,,,,,,,,,,,,,,,,,,,,,,,,,,,,,,,,,,,,,,,,,,,,,,,,,,,,,,,,,,,,,,,,,,,,,,,,,,,
0,73,73,45,1,,608097c56d749da02771a81a,62c53a492eda98afddd01cb7,2022-07-06_09h31.32.476,Colour_Asymmetry_Pilot,2022.1.3,Win32,75.0131273,62c50e9c1127f2cd403a315f,,,,,,,,,,,,,,,,,,,,,,,,,,,,,,,,,,,,,,,,,,,,,,,,,,,,,,,,,,,,,,,,,,,,,,,,,,,,,,,,,,,,,,,,,,,,,,,,,,,,,,,,,,,,,,,,,,,,,,,,,,,,,,,,,,,,,,,,,,,,,,,,,,,,,,,,,,,,,,,,,,,
0,74,74,92,1,,608097c56d749da02771a81a,62c53a492eda98afddd01cb7,2022-07-06_09h31.32.476,Colour_Asymmetry_Pilot,2022.1.3,Win32,75.0131273,62c50e9c1127f2cd403a315f,,,,,,,,,,,,,,,,,,,,,,,,,,,,,,,,,,,,,,,,,,,,,,,,,,,,,,,,,,,,,,,,,,,,,,,,,,,,,,,,,,,,,,,,,,,,,,,,,,,,,,,,,,,,,,,,,,,,,,,,,,,,,,,,,,,,,,,,,,,,,,,,,,,,,,,,,,,,,,,,,,,
0,75,75,4,1,,608097c56d749da02771a81a,62c53a492eda98afddd01cb7,2022-07-06_09h31.32.476,Colour_Asymmetry_Pilot,2022.1.3,Win32,75.0131273,62c50e9c1127f2cd403a315f,,,,,,,,,,,,,,,,,,,,,,,,,,,,,,,,,,,,,,,,,,,,,,,,,,,,,,,,,,,,,,,,,,,,,,,,,,,,,,,,,,,,,,,,,,,,,,,,,,,,,,,,,,,,,,,,,,,,,,,,,,,,,,,,,,,,,,,,,,,,,,,,,,,,,,,,,,,,,,,,,,,
0,76,76,20,1,,608097c56d749da02771a81a,62c53a492eda98afddd01cb7,2022-07-06_09h31.32.476,Colour_Asymmetry_Pilot,2022.1.3,Win32,75.0131273,62c50e9c1127f2cd403a315f,,,,,,,,,,,,,,,,,,,,,,,,,,,,,,,,,,,,,,,,,,,,,,,,,,,,,,,,,,,,,,,,,,,,,,,,,,,,,,,,,,,,,,,,,,,,,,,,,,,,,,,,,,,,,,,,,,,,,,,,,,,,,,,,,,,,,,,,,,,,,,,,,,,,,,,,,,,,,,,,,,,
0,77,77,31,1,,608097c56d749da02771a81a,62c53a492eda98afddd01cb7,2022-07-06_09h31.32.476,Colour_Asymmetry_Pilot,2022.1.3,Win32,75.0131273,62c50e9c1127f2cd403a315f,,,,,,,,,,,,,,,,,,,,,,,,,,,,,,,,,,,,,,,,,,,,,,,,,,,,,,,,,,,,,,,,,,,,,,,,,,,,,,,,,,,,,,,,,,,,,,,,,,,,,,,,,,,,,,,,,,,,,,,,,,,,,,,,,,,,,,,,,,,,,,,,,,,,,,,,,,,,,,,,,,,
0,78,78,80,1,,608097c56d749da02771a81a,62c53a492eda98afddd01cb7,2022-07-06_09h31.32.476,Colour_Asymmetry_Pilot,2022.1.3,Win32,75.0131273,62c50e9c1127f2cd403a315f,,,,,,,,,,,,,,,,,,,,,,,,,,,,,,,,,,,,,,,,,,,,,,,,,,,,,,,,,,,,,,,,,,,,,,,,,,,,,,,,,,,,,,,,,,,,,,,,,,,,,,,,,,,,,,,,,,,,,,,,,,,,,,,,,,,,,,,,,,,,,,,,,,,,,,,,,,,,,,,,,,,
0,79,79,64,1,,608097c56d749da02771a81a,62c53a492eda98afddd01cb7,2022-07-06_09h31.32.476,Colour_Asymmetry_Pilot,2022.1.3,Win32,75.0131273,62c50e9c1127f2cd403a315f,,,,,,,,,,,,,,,,,,,,,,,,,,,,,,,,,,,,,,,,,,,,,,,,,,,,,,,,,,,,,,,,,,,,,,,,,,,,,,,,,,,,,,,,,,,,,,,,,,,,,,,,,,,,,,,,,,,,,,,,,,,,,,,,,,,,,,,,,,,,,,,,,,,,,,,,,,,,,,,,,,,
0,80,80,15,1,,608097c56d749da02771a81a,62c53a492eda98afddd01cb7,2022-07-06_09h31.32.476,Colour_Asymmetry_Pilot,2022.1.3,Win32,75.0131273,62c50e9c1127f2cd403a315f,,,,,,,,,,,,,,,,,,,,,,,,,,,,,,,,,,,,,,,,,,,,,,,,,,,,,,,,,,,,,,,,,,,,,,,,,,,,,,,,,,,,,,,,,,,,,,,,,,,,,,,,,,,,,,,,,,,,,,,,,,,,,,,,,,,,,,,,,,,,,,,,,,,,,,,,,,,,,,,,,,,
0,81,81,22,1,,608097c56d749da02771a81a,62c53a492eda98afddd01cb7,2022-07-06_09h31.32.476,Colour_Asymmetry_Pilot,2022.1.3,Win32,75.0131273,62c50e9c1127f2cd403a315f,,,,,,,,,,,,,,,,,,,,,,,,,,,,,,,,,,,,,,,,,,,,,,,,,,,,,,,,,,,,,,,,,,,,,,,,,,,,,,,,,,,,,,,,,,,,,,,,,,,,,,,,,,,,,,,,,,,,,,,,,,,,,,,,,,,,,,,,,,,,,,,,,,,,,,,,,,,,,,,,,,,
0,82,82,58,1,,608097c56d749da02771a81a,62c53a492eda98afddd01cb7,2022-07-06_09h31.32.476,Colour_Asymmetry_Pilot,2022.1.3,Win32,75.0131273,62c50e9c1127f2cd403a315f,,,,,,,,,,,,,,,,,,,,,,,,,,,,,,,,,,,,,,,,,,,,,,,,,,,,,,,,,,,,,,,,,,,,,,,,,,,,,,,,,,,,,,,,,,,,,,,,,,,,,,,,,,,,,,,,,,,,,,,,,,,,,,,,,,,,,,,,,,,,,,,,,,,,,,,,,,,,,,,,,,,
0,83,83,75,1,,608097c56d749da02771a81a,62c53a492eda98afddd01cb7,2022-07-06_09h31.32.476,Colour_Asymmetry_Pilot,2022.1.3,Win32,75.0131273,62c50e9c1127f2cd403a315f,,,,,,,,,,,,,,,,,,,,,,,,,,,,,,,,,,,,,,,,,,,,,,,,,,,,,,,,,,,,,,,,,,,,,,,,,,,,,,,,,,,,,,,,,,,,,,,,,,,,,,,,,,,,,,,,,,,,,,,,,,,,,,,,,,,,,,,,,,,,,,,,,,,,,,,,,,,,,,,,,,,
0,84,84,84,1,,608097c56d749da02771a81a,62c53a492eda98afddd01cb7,2022-07-06_09h31.32.476,Colour_Asymmetry_Pilot,2022.1.3,Win32,75.0131273,62c50e9c1127f2cd403a315f,,,,,,,,,,,,,,,,,,,,,,,,,,,,,,,,,,,,,,,,,,,,,,,,,,,,,,,,,,,,,,,,,,,,,,,,,,,,,,,,,,,,,,,,,,,,,,,,,,,,,,,,,,,,,,,,,,,,,,,,,,,,,,,,,,,,,,,,,,,,,,,,,,,,,,,,,,,,,,,,,,,
0,85,85,16,1,,608097c56d749da02771a81a,62c53a492eda98afddd01cb7,2022-07-06_09h31.32.476,Colour_Asymmetry_Pilot,2022.1.3,Win32,75.0131273,62c50e9c1127f2cd403a315f,,,,,,,,,,,,,,,,,,,,,,,,,,,,,,,,,,,,,,,,,,,,,,,,,,,,,,,,,,,,,,,,,,,,,,,,,,,,,,,,,,,,,,,,,,,,,,,,,,,,,,,,,,,,,,,,,,,,,,,,,,,,,,,,,,,,,,,,,,,,,,,,,,,,,,,,,,,,,,,,,,,
0,86,86,1,1,,608097c56d749da02771a81a,62c53a492eda98afddd01cb7,2022-07-06_09h31.32.476,Colour_Asymmetry_Pilot,2022.1.3,Win32,75.0131273,62c50e9c1127f2cd403a315f,,,,,,,,,,,,,,,,,,,,,,,,,,,,,,,,,,,,,,,,,,,,,,,,,,,,,,,,,,,,,,,,,,,,,,,,,,,,,,,,,,,,,,,,,,,,,,,,,,,,,,,,,,,,,,,,,,,,,,,,,,,,,,,,,,,,,,,,,,,,,,,,,,,,,,,,,,,,,,,,,,,
0,87,87,13,1,,608097c56d749da02771a81a,62c53a492eda98afddd01cb7,2022-07-06_09h31.32.476,Colour_Asymmetry_Pilot,2022.1.3,Win32,75.0131273,62c50e9c1127f2cd403a315f,,,,,,,,,,,,,,,,,,,,,,,,,,,,,,,,,,,,,,,,,,,,,,,,,,,,,,,,,,,,,,,,,,,,,,,,,,,,,,,,,,,,,,,,,,,,,,,,,,,,,,,,,,,,,,,,,,,,,,,,,,,,,,,,,,,,,,,,,,,,,,,,,,,,,,,,,,,,,,,,,,,
0,88,88,50,1,,608097c56d749da02771a81a,62c53a492eda98afddd01cb7,2022-07-06_09h31.32.476,Colour_Asymmetry_Pilot,2022.1.3,Win32,75.0131273,62c50e9c1127f2cd403a315f,,,,,,,,,,,,,,,,,,,,,,,,,,,,,,,,,,,,,,,,,,,,,,,,,,,,,,,,,,,,,,,,,,,,,,,,,,,,,,,,,,,,,,,,,,,,,,,,,,,,,,,,,,,,,,,,,,,,,,,,,,,,,,,,,,,,,,,,,,,,,,,,,,,,,,,,,,,,,,,,,,,
0,89,89,83,1,,608097c56d749da02771a81a,62c53a492eda98afddd01cb7,2022-07-06_09h31.32.476,Colour_Asymmetry_Pilot,2022.1.3,Win32,75.0131273,62c50e9c1127f2cd403a315f,,,,,,,,,,,,,,,,,,,,,,,,,,,,,,,,,,,,,,,,,,,,,,,,,,,,,,,,,,,,,,,,,,,,,,,,,,,,,,,,,,,,,,,,,,,,,,,,,,,,,,,,,,,,,,,,,,,,,,,,,,,,,,,,,,,,,,,,,,,,,,,,,,,,,,,,,,,,,,,,,,,
0,90,90,74,1,,608097c56d749da02771a81a,62c53a492eda98afddd01cb7,2022-07-06_09h31.32.476,Colour_Asymmetry_Pilot,2022.1.3,Win32,75.0131273,62c50e9c1127f2cd403a315f,,,,,,,,,,,,,,,,,,,,,,,,,,,,,,,,,,,,,,,,,,,,,,,,,,,,,,,,,,,,,,,,,,,,,,,,,,,,,,,,,,,,,,,,,,,,,,,,,,,,,,,,,,,,,,,,,,,,,,,,,,,,,,,,,,,,,,,,,,,,,,,,,,,,,,,,,,,,,,,,,,,
0,91,91,5,1,,608097c56d749da02771a81a,62c53a492eda98afddd01cb7,2022-07-06_09h31.32.476,Colour_Asymmetry_Pilot,2022.1.3,Win32,75.0131273,62c50e9c1127f2cd403a315f,,,,,,,,,,,,,,,,,,,,,,,,,,,,,,,,,,,,,,,,,,,,,,,,,,,,,,,,,,,,,,,,,,,,,,,,,,,,,,,,,,,,,,,,,,,,,,,,,,,,,,,,,,,,,,,,,,,,,,,,,,,,,,,,,,,,,,,,,,,,,,,,,,,,,,,,,,,,,,,,,,,
0,92,92,24,1,,608097c56d749da02771a81a,62c53a492eda98afddd01cb7,2022-07-06_09h31.32.476,Colour_Asymmetry_Pilot,2022.1.3,Win32,75.0131273,62c50e9c1127f2cd403a315f,,,,,,,,,,,,,,,,,,,,,,,,,,,,,,,,,,,,,,,,,,,,,,,,,,,,,,,,,,,,,,,,,,,,,,,,,,,,,,,,,,,,,,,,,,,,,,,,,,,,,,,,,,,,,,,,,,,,,,,,,,,,,,,,,,,,,,,,,,,,,,,,,,,,,,,,,,,,,,,,,,,
,,,,,,608097c56d749da02771a81a,62c53a492eda98afddd01cb7,2022-07-06_09h31.32.476,Colour_Asymmetry_Pilot,2022.1.3,Win32,75.0131273,62c50e9c1127f2cd403a315f,0,0,0,137,1,onethree,,,,,,,,,,,,,,,,,,,,,,,,,,,,,,,,,,,,,,,,,,,,,,,,,,,,,,,,,,,,,,,,,,,,,,,,,,,,,,,,,,,,,,,,,,,,,,,,,,,,,,,,,,,,,,,,,,,,,,,,,,,,,,,,,,,,,,,,,,,,,,,,,,,,,,,,,,,,,
,,,,,,608097c56d749da02771a81a,62c53a492eda98afddd01cb7,2022-07-06_09h31.32.476,Colour_Asymmetry_Pilot,2022.1.3,Win32,75.0131273,62c50e9c1127f2cd403a315f,0,1,1,161,1,onethree,,,,,,,,,,,,,,,,,,,,,,,,,,,,,,,,,,,,,,,,,,,,,,,,,,,,,,,,,,,,,,,,,,,,,,,,,,,,,,,,,,,,,,,,,,,,,,,,,,,,,,,,,,,,,,,,,,,,,,,,,,,,,,,,,,,,,,,,,,,,,,,,,,,,,,,,,,,,,
,,,,,,608097c56d749da02771a81a,62c53a492eda98afddd01cb7,2022-07-06_09h31.32.476,Colour_Asymmetry_Pilot,2022.1.3,Win32,75.0131273,62c50e9c1127f2cd403a315f,0,2,2,125,1,threefour,,,,,,,,,,,,,,,,,,,,,,,,,,,,,,,,,,,,,,,,,,,,,,,,,,,,,,,,,,,,,,,,,,,,,,,,,,,,,,,,,,,,,,,,,,,,,,,,,,,,,,,,,,,,,,,,,,,,,,,,,,,,,,,,,,,,,,,,,,,,,,,,,,,,,,,,,,,,,
,,,,,,608097c56d749da02771a81a,62c53a492eda98afddd01cb7,2022-07-06_09h31.32.476,Colour_Asymmetry_Pilot,2022.1.3,Win32,75.0131273,62c50e9c1127f2cd403a315f,0,3,3,61,1,threefour,,,,,,,,,,,,,,,,,,,,,,,,,,,,,,,,,,,,,,,,,,,,,,,,,,,,,,,,,,,,,,,,,,,,,,,,,,,,,,,,,,,,,,,,,,,,,,,,,,,,,,,,,,,,,,,,,,,,,,,,,,,,,,,,,,,,,,,,,,,,,,,,,,,,,,,,,,,,,
,,,,,,608097c56d749da02771a81a,62c53a492eda98afddd01cb7,2022-07-06_09h31.32.476,Colour_Asymmetry_Pilot,2022.1.3,Win32,75.0131273,62c50e9c1127f2cd403a315f,0,4,4,149,1,threefour,,,,,,,,,,,,,,,,,,,,,,,,,,,,,,,,,,,,,,,,,,,,,,,,,,,,,,,,,,,,,,,,,,,,,,,,,,,,,,,,,,,,,,,,,,,,,,,,,,,,,,,,,,,,,,,,,,,,,,,,,,,,,,,,,,,,,,,,,,,,,,,,,,,,,,,,,,,,,
,,,,,,608097c56d749da02771a81a,62c53a492eda98afddd01cb7,2022-07-06_09h31.32.476,Colour_Asymmetry_Pilot,2022.1.3,Win32,75.0131273,62c50e9c1127f2cd403a315f,0,5,5,56,1,onetwo,,,,,,,,,,,,,,,,,,,,,,,,,,,,,,,,,,,,,,,,,,,,,,,,,,,,,,,,,,,,,,,,,,,,,,,,,,,,,,,,,,,,,,,,,,,,,,,,,,,,,,,,,,,,,,,,,,,,,,,,,,,,,,,,,,,,,,,,,,,,,,,,,,,,,,,,,,,,,
,,,,,,608097c56d749da02771a81a,62c53a492eda98afddd01cb7,2022-07-06_09h31.32.476,Colour_Asymmetry_Pilot,2022.1.3,Win32,75.0131273,62c50e9c1127f2cd403a315f,0,6,6,112,1,onetwo,,,,,,,,,,,,,,,,,,,,,,,,,,,,,,,,,,,,,,,,,,,,,,,,,,,,,,,,,,,,,,,,,,,,,,,,,,,,,,,,,,,,,,,,,,,,,,,,,,,,,,,,,,,,,,,,,,,,,,,,,,,,,,,,,,,,,,,,,,,,,,,,,,,,,,,,,,,,,
,,,,,,608097c56d749da02771a81a,62c53a492eda98afddd01cb7,2022-07-06_09h31.32.476,Colour_Asymmetry_Pilot,2022.1.3,Win32,75.0131273,62c50e9c1127f2cd403a315f,0,7,7,105,1,onethree,,,,,,,,,,,,,,,,,,,,,,,,,,,,,,,,,,,,,,,,,,,,,,,,,,,,,,,,,,,,,,,,,,,,,,,,,,,,,,,,,,,,,,,,,,,,,,,,,,,,,,,,,,,,,,,,,,,,,,,,,,,,,,,,,,,,,,,,,,,,,,,,,,,,,,,,,,,,,
,,,,,,608097c56d749da02771a81a,62c53a492eda98afddd01cb7,2022-07-06_09h31.32.476,Colour_Asymmetry_Pilot,2022.1.3,Win32,75.0131273,62c50e9c1127f2cd403a315f,0,8,8,22,1,fourtwo,,,,,,,,,,,,,,,,,,,,,,,,,,,,,,,,,,,,,,,,,,,,,,,,,,,,,,,,,,,,,,,,,,,,,,,,,,,,,,,,,,,,,,,,,,,,,,,,,,,,,,,,,,,,,,,,,,,,,,,,,,,,,,,,,,,,,,,,,,,,,,,,,,,,,,,,,,,,,
,,,,,,608097c56d749da02771a81a,62c53a492eda98afddd01cb7,2022-07-06_09h31.32.476,Colour_Asymmetry_Pilot,2022.1.3,Win32,75.0131273,62c50e9c1127f2cd403a315f,0,9,9,130,1,twoone,,,,,,,,,,,,,,,,,,,,,,,,,,,,,,,,,,,,,,,,,,,,,,,,,,,,,,,,,,,,,,,,,,,,,,,,,,,,,,,,,,,,,,,,,,,,,,,,,,,,,,,,,,,,,,,,,,,,,,,,,,,,,,,,,,,,,,,,,,,,,,,,,,,,,,,,,,,,,
,,,,,,608097c56d749da02771a81a,62c53a492eda98afddd01cb7,2022-07-06_09h31.32.476,Colour_Asymmetry_Pilot,2022.1.3,Win32,75.0131273,62c50e9c1127f2cd403a315f,0,10,10,17,1,onethree,,,,,,,,,,,,,,,,,,,,,,,,,,,,,,,,,,,,,,,,,,,,,,,,,,,,,,,,,,,,,,,,,,,,,,,,,,,,,,,,,,,,,,,,,,,,,,,,,,,,,,,,,,,,,,,,,,,,,,,,,,,,,,,,,,,,,,,,,,,,,,,,,,,,,,,,,,,,,
,,,,,,608097c56d749da02771a81a,62c53a492eda98afddd01cb7,2022-07-06_09h31.32.476,Colour_Asymmetry_Pilot,2022.1.3,Win32,75.0131273,62c50e9c1127f2cd403a315f,0,11,11,147,1,twofour,,,,,,,,,,,,,,,,,,,,,,,,,,,,,,,,,,,,,,,,,,,,,,,,,,,,,,,,,,,,,,,,,,,,,,,,,,,,,,,,,,,,,,,,,,,,,,,,,,,,,,,,,,,,,,,,,,,,,,,,,,,,,,,,,,,,,,,,,,,,,,,,,,,,,,,,,,,,,
,,,,,,608097c56d749da02771a81a,62c53a492eda98afddd01cb7,2022-07-06_09h31.32.476,Colour_Asymmetry_Pilot,2022.1.3,Win32,75.0131273,62c50e9c1127f2cd403a315f,0,12,12,44,1,threeone,,,,,,,,,,,,,,,,,,,,,,,,,,,,,,,,,,,,,,,,,,,,,,,,,,,,,,,,,,,,,,,,,,,,,,,,,,,,,,,,,,,,,,,,,,,,,,,,,,,,,,,,,,,,,,,,,,,,,,,,,,,,,,,,,,,,,,,,,,,,,,,,,,,,,,,,,,,,,
,,,,,,608097c56d749da02771a81a,62c53a492eda98afddd01cb7,2022-07-06_09h31.32.476,Colour_Asymmetry_Pilot,2022.1.3,Win32,75.0131273,62c50e9c1127f2cd403a315f,0,13,13,0,1,onetwo,,,,,,,,,,,,,,,,,,,,,,,,,,,,,,,,,,,,,,,,,,,,,,,,,,,,,,,,,,,,,,,,,,,,,,,,,,,,,,,,,,,,,,,,,,,,,,,,,,,,,,,,,,,,,,,,,,,,,,,,,,,,,,,,,,,,,,,,,,,,,,,,,,,,,,,,,,,,,
,,,,,,608097c56d749da02771a81a,62c53a492eda98afddd01cb7,2022-07-06_09h31.32.476,Colour_Asymmetry_Pilot,2022.1.3,Win32,75.0131273,62c50e9c1127f2cd403a315f,0,14,14,12,1,threeone,,,,,,,,,,,,,,,,,,,,,,,,,,,,,,,,,,,,,,,,,,,,,,,,,,,,,,,,,,,,,,,,,,,,,,,,,,,,,,,,,,,,,,,,,,,,,,,,,,,,,,,,,,,,,,,,,,,,,,,,,,,,,,,,,,,,,,,,,,,,,,,,,,,,,,,,,,,,,
,,,,,,608097c56d749da02771a81a,62c53a492eda98afddd01cb7,2022-07-06_09h31.32.476,Colour_Asymmetry_Pilot,2022.1.3,Win32,75.0131273,62c50e9c1127f2cd403a315f,0,15,15,158,1,fourtwo,,,,,,,,,,,,,,,,,,,,,,,,,,,,,,,,,,,,,,,,,,,,,,,,,,,,,,,,,,,,,,,,,,,,,,,,,,,,,,,,,,,,,,,,,,,,,,,,,,,,,,,,,,,,,,,,,,,,,,,,,,,,,,,,,,,,,,,,,,,,,,,,,,,,,,,,,,,,,
,,,,,,608097c56d749da02771a81a,62c53a492eda98afddd01cb7,2022-07-06_09h31.32.476,Colour_Asymmetry_Pilot,2022.1.3,Win32,75.0131273,62c50e9c1127f2cd403a315f,0,16,16,63,1,fourthree,,,,,,,,,,,,,,,,,,,,,,,,,,,,,,,,,,,,,,,,,,,,,,,,,,,,,,,,,,,,,,,,,,,,,,,,,,,,,,,,,,,,,,,,,,,,,,,,,,,,,,,,,,,,,,,,,,,,,,,,,,,,,,,,,,,,,,,,,,,,,,,,,,,,,,,,,,,,,
,,,,,,608097c56d749da02771a81a,62c53a492eda98afddd01cb7,2022-07-06_09h31.32.476,Colour_Asymmetry_Pilot,2022.1.3,Win32,75.0131273,62c50e9c1127f2cd403a315f,0,17,17,54,1,fourtwo,,,,,,,,,,,,,,,,,,,,,,,,,,,,,,,,,,,,,,,,,,,,,,,,,,,,,,,,,,,,,,,,,,,,,,,,,,,,,,,,,,,,,,,,,,,,,,,,,,,,,,,,,,,,,,,,,,,,,,,,,,,,,,,,,,,,,,,,,,,,,,,,,,,,,,,,,,,,,
,,,,,,608097c56d749da02771a81a,62c53a492eda98afddd01cb7,2022-07-06_09h31.32.476,Colour_Asymmetry_Pilot,2022.1.3,Win32,75.0131273,62c50e9c1127f2cd403a315f,0,18,18,11,1,twofour,,,,,,,,,,,,,,,,,,,,,,,,,,,,,,,,,,,,,,,,,,,,,,,,,,,,,,,,,,,,,,,,,,,,,,,,,,,,,,,,,,,,,,,,,,,,,,,,,,,,,,,,,,,,,,,,,,,,,,,,,,,,,,,,,,,,,,,,,,,,,,,,,,,,,,,,,,,,,
,,,,,,608097c56d749da02771a81a,62c53a492eda98afddd01cb7,2022-07-06_09h31.32.476,Colour_Asymmetry_Pilot,2022.1.3,Win32,75.0131273,62c50e9c1127f2cd403a315f,0,19,19,116,1,threeone,,,,,,,,,,,,,,,,,,,,,,,,,,,,,,,,,,,,,,,,,,,,,,,,,,,,,,,,,,,,,,,,,,,,,,,,,,,,,,,,,,,,,,,,,,,,,,,,,,,,,,,,,,,,,,,,,,,,,,,,,,,,,,,,,,,,,,,,,,,,,,,,,,,,,,,,,,,,,
,,,,,,608097c56d749da02771a81a,62c53a492eda98afddd01cb7,2022-07-06_09h31.32.476,Colour_Asymmetry_Pilot,2022.1.3,Win32,75.0131273,62c50e9c1127f2cd403a315f,0,20,20,93,1,threefour,,,,,,,,,,,,,,,,,,,,,,,,,,,,,,,,,,,,,,,,,,,,,,,,,,,,,,,,,,,,,,,,,,,,,,,,,,,,,,,,,,,,,,,,,,,,,,,,,,,,,,,,,,,,,,,,,,,,,,,,,,,,,,,,,,,,,,,,,,,,,,,,,,,,,,,,,,,,,
,,,,,,608097c56d749da02771a81a,62c53a492eda98afddd01cb7,2022-07-06_09h31.32.476,Colour_Asymmetry_Pilot,2022.1.3,Win32,75.0131273,62c50e9c1127f2cd403a315f,0,21,21,145,1,onethree,,,,,,,,,,,,,,,,,,,,,,,,,,,,,,,,,,,,,,,,,,,,,,,,,,,,,,,,,,,,,,,,,,,,,,,,,,,,,,,,,,,,,,,,,,,,,,,,,,,,,,,,,,,,,,,,,,,,,,,,,,,,,,,,,,,,,,,,,,,,,,,,,,,,,,,,,,,,,
,,,,,,608097c56d749da02771a81a,62c53a492eda98afddd01cb7,2022-07-06_09h31.32.476,Colour_Asymmetry_Pilot,2022.1.3,Win32,75.0131273,62c50e9c1127f2cd403a315f,0,22,22,48,1,onetwo,,,,,,,,,,,,,,,,,,,,,,,,,,,,,,,,,,,,,,,,,,,,,,,,,,,,,,,,,,,,,,,,,,,,,,,,,,,,,,,,,,,,,,,,,,,,,,,,,,,,,,,,,,,,,,,,,,,,,,,,,,,,,,,,,,,,,,,,,,,,,,,,,,,,,,,,,,,,,
,,,,,,608097c56d749da02771a81a,62c53a492eda98afddd01cb7,2022-07-06_09h31.32.476,Colour_Asymmetry_Pilot,2022.1.3,Win32,75.0131273,62c50e9c1127f2cd403a315f,0,23,23,57,1,onethree,,,,,,,,,,,,,,,,,,,,,,,,,,,,,,,,,,,,,,,,,,,,,,,,,,,,,,,,,,,,,,,,,,,,,,,,,,,,,,,,,,,,,,,,,,,,,,,,,,,,,,,,,,,,,,,,,,,,,,,,,,,,,,,,,,,,,,,,,,,,,,,,,,,,,,,,,,,,,
,,,,,,608097c56d749da02771a81a,62c53a492eda98afddd01cb7,2022-07-06_09h31.32.476,Colour_Asymmetry_Pilot,2022.1.3,Win32,75.0131273,62c50e9c1127f2cd403a315f,0,24,24,132,1,threeone,,,,,,,,,,,,,,,,,,,,,,,,,,,,,,,,,,,,,,,,,,,,,,,,,,,,,,,,,,,,,,,,,,,,,,,,,,,,,,,,,,,,,,,,,,,,,,,,,,,,,,,,,,,,,,,,,,,,,,,,,,,,,,,,,,,,,,,,,,,,,,,,,,,,,,,,,,,,,
,,,,,,608097c56d749da02771a81a,62c53a492eda98afddd01cb7,2022-07-06_09h31.32.476,Colour_Asymmetry_Pilot,2022.1.3,Win32,75.0131273,62c50e9c1127f2cd403a315f,0,25,25,103,1,fourthree,,,,,,,,,,,,,,,,,,,,,,,,,,,,,,,,,,,,,,,,,,,,,,,,,,,,,,,,,,,,,,,,,,,,,,,,,,,,,,,,,,,,,,,,,,,,,,,,,,,,,,,,,,,,,,,,,,,,,,,,,,,,,,,,,,,,,,,,,,,,,,,,,,,,,,,,,,,,,
,,,,,,608097c56d749da02771a81a,62c53a492eda98afddd01cb7,2022-07-06_09h31.32.476,Colour_Asymmetry_Pilot,2022.1.3,Win32,75.0131273,62c50e9c1127f2cd403a315f,0,26,26,71,1,fourthree,,,,,,,,,,,,,,,,,,,,,,,,,,,,,,,,,,,,,,,,,,,,,,,,,,,,,,,,,,,,,,,,,,,,,,,,,,,,,,,,,,,,,,,,,,,,,,,,,,,,,,,,,,,,,,,,,,,,,,,,,,,,,,,,,,,,,,,,,,,,,,,,,,,,,,,,,,,,,
,,,,,,608097c56d749da02771a81a,62c53a492eda98afddd01cb7,2022-07-06_09h31.32.476,Colour_Asymmetry_Pilot,2022.1.3,Win32,75.0131273,62c50e9c1127f2cd403a315f,0,27,27,84,1,threeone,,,,,,,,,,,,,,,,,,,,,,,,,,,,,,,,,,,,,,,,,,,,,,,,,,,,,,,,,,,,,,,,,,,,,,,,,,,,,,,,,,,,,,,,,,,,,,,,,,,,,,,,,,,,,,,,,,,,,,,,,,,,,,,,,,,,,,,,,,,,,,,,,,,,,,,,,,,,,
,,,,,,608097c56d749da02771a81a,62c53a492eda98afddd01cb7,2022-07-06_09h31.32.476,Colour_Asymmetry_Pilot,2022.1.3,Win32,75.0131273,62c50e9c1127f2cd403a315f,0,28,28,41,1,onethree,,,,,,,,,,,,,,,,,,,,,,,,,,,,,,,,,,,,,,,,,,,,,,,,,,,,,,,,,,,,,,,,,,,,,,,,,,,,,,,,,,,,,,,,,,,,,,,,,,,,,,,,,,,,,,,,,,,,,,,,,,,,,,,,,,,,,,,,,,,,,,,,,,,,,,,,,,,,,
,,,,,,608097c56d749da02771a81a,62c53a492eda98afddd01cb7,2022-07-06_09h31.32.476,Colour_Asymmetry_Pilot,2022.1.3,Win32,75.0131273,62c50e9c1127f2cd403a315f,0,29,29,19,1,twofour,,,,,,,,,,,,,,,,,,,,,,,,,,,,,,,,,,,,,,,,,,,,,,,,,,,,,,,,,,,,,,,,,,,,,,,,,,,,,,,,,,,,,,,,,,,,,,,,,,,,,,,,,,,,,,,,,,,,,,,,,,,,,,,,,,,,,,,,,,,,,,,,,,,,,,,,,,,,,
,,,,,,608097c56d749da02771a81a,62c53a492eda98afddd01cb7,2022-07-06_09h31.32.476,Colour_Asymmetry_Pilot,2022.1.3,Win32,75.0131273,62c50e9c1127f2cd403a315f,0,30,30,32,1,onetwo,,,,,,,,,,,,,,,,,,,,,,,,,,,,,,,,,,,,,,,,,,,,,,,,,,,,,,,,,,,,,,,,,,,,,,,,,,,,,,,,,,,,,,,,,,,,,,,,,,,,,,,,,,,,,,,,,,,,,,,,,,,,,,,,,,,,,,,,,,,,,,,,,,,,,,,,,,,,,
,,,,,,608097c56d749da02771a81a,62c53a492eda98afddd01cb7,2022-07-06_09h31.32.476,Colour_Asymmetry_Pilot,2022.1.3,Win32,75.0131273,62c50e9c1127f2cd403a315f,0,31,31,108,1,threeone,,,,,,,,,,,,,,,,,,,,,,,,,,,,,,,,,,,,,,,,,,,,,,,,,,,,,,,,,,,,,,,,,,,,,,,,,,,,,,,,,,,,,,,,,,,,,,,,,,,,,,,,,,,,,,,,,,,,,,,,,,,,,,,,,,,,,,,,,,,,,,,,,,,,,,,,,,,,,
,,,,,,608097c56d749da02771a81a,62c53a492eda98afddd01cb7,2022-07-06_09h31.32.476,Colour_Asymmetry_Pilot,2022.1.3,Win32,75.0131273,62c50e9c1127f2cd403a315f,0,32,32,104,1,onetwo,,,,,,,,,,,,,,,,,,,,,,,,,,,,,,,,,,,,,,,,,,,,,,,,,,,,,,,,,,,,,,,,,,,,,,,,,,,,,,,,,,,,,,,,,,,,,,,,,,,,,,,,,,,,,,,,,,,,,,,,,,,,,,,,,,,,,,,,,,,,,,,,,,,,,,,,,,,,,
,,,,,,608097c56d749da02771a81a,62c53a492eda98afddd01cb7,2022-07-06_09h31.32.476,Colour_Asymmetry_Pilot,2022.1.3,Win32,75.0131273,62c50e9c1127f2cd403a315f,0,33,33,18,1,twoone,,,,,,,,,,,,,,,,,,,,,,,,,,,,,,,,,,,,,,,,,,,,,,,,,,,,,,,,,,,,,,,,,,,,,,,,,,,,,,,,,,,,,,,,,,,,,,,,,,,,,,,,,,,,,,,,,,,,,,,,,,,,,,,,,,,,,,,,,,,,,,,,,,,,,,,,,,,,,
,,,,,,608097c56d749da02771a81a,62c53a492eda98afddd01cb7,2022-07-06_09h31.32.476,Colour_Asymmetry_Pilot,2022.1.3,Win32,75.0131273,62c50e9c1127f2cd403a315f,0,34,34,155,1,twofour,,,,,,,,,,,,,,,,,,,,,,,,,,,,,,,,,,,,,,,,,,,,,,,,,,,,,,,,,,,,,,,,,,,,,,,,,,,,,,,,,,,,,,,,,,,,,,,,,,,,,,,,,,,,,,,,,,,,,,,,,,,,,,,,,,,,,,,,,,,,,,,,,,,,,,,,,,,,,
,,,,,,608097c56d749da02771a81a,62c53a492eda98afddd01cb7,2022-07-06_09h31.32.476,Colour_Asymmetry_Pilot,2022.1.3,Win32,75.0131273,62c50e9c1127f2cd403a315f,0,35,35,23,1,fourthree,,,,,,,,,,,,,,,,,,,,,,,,,,,,,,,,,,,,,,,,,,,,,,,,,,,,,,,,,,,,,,,,,,,,,,,,,,,,,,,,,,,,,,,,,,,,,,,,,,,,,,,,,,,,,,,,,,,,,,,,,,,,,,,,,,,,,,,,,,,,,,,,,,,,,,,,,,,,,
,,,,,,608097c56d749da02771a81a,62c53a492eda98afddd01cb7,2022-07-06_09h31.32.476,Colour_Asymmetry_Pilot,2022.1.3,Win32,75.0131273,62c50e9c1127f2cd403a315f,0,36,36,35,1,twofour,,,,,,,,,,,,,,,,,,,,,,,,,,,,,,,,,,,,,,,,,,,,,,,,,,,,,,,,,,,,,,,,,,,,,,,,,,,,,,,,,,,,,,,,,,,,,,,,,,,,,,,,,,,,,,,,,,,,,,,,,,,,,,,,,,,,,,,,,,,,,,,,,,,,,,,,,,,,,
,,,,,,608097c56d749da02771a81a,62c53a492eda98afddd01cb7,2022-07-06_09h31.32.476,Colour_Asymmetry_Pilot,2022.1.3,Win32,75.0131273,62c50e9c1127f2cd403a315f,0,37,37,109,1,threefour,,,,,,,,,,,,,,,,,,,,,,,,,,,,,,,,,,,,,,,,,,,,,,,,,,,,,,,,,,,,,,,,,,,,,,,,,,,,,,,,,,,,,,,,,,,,,,,,,,,,,,,,,,,,,,,,,,,,,,,,,,,,,,,,,,,,,,,,,,,,,,,,,,,,,,,,,,,,,
,,,,,,608097c56d749da02771a81a,62c53a492eda98afddd01cb7,2022-07-06_09h31.32.476,Colour_Asymmetry_Pilot,2022.1.3,Win32,75.0131273,62c50e9c1127f2cd403a315f,0,38,38,45,1,threefour,,,,,,,,,,,,,,,,,,,,,,,,,,,,,,,,,,,,,,,,,,,,,,,,,,,,,,,,,,,,,,,,,,,,,,,,,,,,,,,,,,,,,,,,,,,,,,,,,,,,,,,,,,,,,,,,,,,,,,,,,,,,,,,,,,,,,,,,,,,,,,,,,,,,,,,,,,,,,
,,,,,,608097c56d749da02771a81a,62c53a492eda98afddd01cb7,2022-07-06_09h31.32.476,Colour_Asymmetry_Pilot,2022.1.3,Win32,75.0131273,62c50e9c1127f2cd403a315f,0,39,39,143,1,fourthree,,,,,,,,,,,,,,,,,,,,,,,,,,,,,,,,,,,,,,,,,,,,,,,,,,,,,,,,,,,,,,,,,,,,,,,,,,,,,,,,,,,,,,,,,,,,,,,,,,,,,,,,,,,,,,,,,,,,,,,,,,,,,,,,,,,,,,,,,,,,,,,,,,,,,,,,,,,,,
,,,,,,608097c56d749da02771a81a,62c53a492eda98afddd01cb7,2022-07-06_09h31.32.476,Colour_Asymmetry_Pilot,2022.1.3,Win32,75.0131273,62c50e9c1127f2cd403a315f,0,40,40,67,1,twofour,,,,,,,,,,,,,,,,,,,,,,,,,,,,,,,,,,,,,,,,,,,,,,,,,,,,,,,,,,,,,,,,,,,,,,,,,,,,,,,,,,,,,,,,,,,,,,,,,,,,,,,,,,,,,,,,,,,,,,,,,,,,,,,,,,,,,,,,,,,,,,,,,,,,,,,,,,,,,
,,,,,,608097c56d749da02771a81a,62c53a492eda98afddd01cb7,2022-07-06_09h31.32.476,Colour_Asymmetry_Pilot,2022.1.3,Win32,75.0131273,62c50e9c1127f2cd403a315f,0,41,41,20,1,threeone,,,,,,,,,,,,,,,,,,,,,,,,,,,,,,,,,,,,,,,,,,,,,,,,,,,,,,,,,,,,,,,,,,,,,,,,,,,,,,,,,,,,,,,,,,,,,,,,,,,,,,,,,,,,,,,,,,,,,,,,,,,,,,,,,,,,,,,,,,,,,,,,,,,,,,,,,,,,,
,,,,,,608097c56d749da02771a81a,62c53a492eda98afddd01cb7,2022-07-06_09h31.32.476,Colour_Asymmetry_Pilot,2022.1.3,Win32,75.0131273,62c50e9c1127f2cd403a315f,0,42,42,58,1,twoone,,,,,,,,,,,,,,,,,,,,,,,,,,,,,,,,,,,,,,,,,,,,,,,,,,,,,,,,,,,,,,,,,,,,,,,,,,,,,,,,,,,,,,,,,,,,,,,,,,,,,,,,,,,,,,,,,,,,,,,,,,,,,,,,,,,,,,,,,,,,,,,,,,,,,,,,,,,,,
,,,,,,608097c56d749da02771a81a,62c53a492eda98afddd01cb7,2022-07-06_09h31.32.476,Colour_Asymmetry_Pilot,2022.1.3,Win32,75.0131273,62c50e9c1127f2cd403a315f,0,43,43,129,1,onethree,,,,,,,,,,,,,,,,,,,,,,,,,,,,,,,,,,,,,,,,,,,,,,,,,,,,,,,,,,,,,,,,,,,,,,,,,,,,,,,,,,,,,,,,,,,,,,,,,,,,,,,,,,,,,,,,,,,,,,,,,,,,,,,,,,,,,,,,,,,,,,,,,,,,,,,,,,,,,
,,,,,,608097c56d749da02771a81a,62c53a492eda98afddd01cb7,2022-07-06_09h31.32.476,Colour_Asymmetry_Pilot,2022.1.3,Win32,75.0131273,62c50e9c1127f2cd403a315f,0,44,44,25,1,onethree,,,,,,,,,,,,,,,,,,,,,,,,,,,,,,,,,,,,,,,,,,,,,,,,,,,,,,,,,,,,,,,,,,,,,,,,,,,,,,,,,,,,,,,,,,,,,,,,,,,,,,,,,,,,,,,,,,,,,,,,,,,,,,,,,,,,,,,,,,,,,,,,,,,,,,,,,,,,,
,,,,,,608097c56d749da02771a81a,62c53a492eda98afddd01cb7,2022-07-06_09h31.32.476,Colour_Asymmetry_Pilot,2022.1.3,Win32,75.0131273,62c50e9c1127f2cd403a315f,0,45,45,91,1,twofour,,,,,,,,,,,,,,,,,,,,,,,,,,,,,,,,,,,,,,,,,,,,,,,,,,,,,,,,,,,,,,,,,,,,,,,,,,,,,,,,,,,,,,,,,,,,,,,,,,,,,,,,,,,,,,,,,,,,,,,,,,,,,,,,,,,,,,,,,,,,,,,,,,,,,,,,,,,,,
,,,,,,608097c56d749da02771a81a,62c53a492eda98afddd01cb7,2022-07-06_09h31.32.476,Colour_Asymmetry_Pilot,2022.1.3,Win32,75.0131273,62c50e9c1127f2cd403a315f,0,46,46,87,1,fourthree,,,,,,,,,,,,,,,,,,,,,,,,,,,,,,,,,,,,,,,,,,,,,,,,,,,,,,,,,,,,,,,,,,,,,,,,,,,,,,,,,,,,,,,,,,,,,,,,,,,,,,,,,,,,,,,,,,,,,,,,,,,,,,,,,,,,,,,,,,,,,,,,,,,,,,,,,,,,,
,,,,,,608097c56d749da02771a81a,62c53a492eda98afddd01cb7,2022-07-06_09h31.32.476,Colour_Asymmetry_Pilot,2022.1.3,Win32,75.0131273,62c50e9c1127f2cd403a315f,0,47,47,52,1,threeone,,,,,,,,,,,,,,,,,,,,,,,,,,,,,,,,,,,,,,,,,,,,,,,,,,,,,,,,,,,,,,,,,,,,,,,,,,,,,,,,,,,,,,,,,,,,,,,,,,,,,,,,,,,,,,,,,,,,,,,,,,,,,,,,,,,,,,,,,,,,,,,,,,,,,,,,,,,,,
,,,,,,608097c56d749da02771a81a,62c53a492eda98afddd01cb7,2022-07-06_09h31.32.476,Colour_Asymmetry_Pilot,2022.1.3,Win32,75.0131273,62c50e9c1127f2cd403a315f,0,48,48,148,1,threeone,,,,,,,,,,,,,,,,,,,,,,,,,,,,,,,,,,,,,,,,,,,,,,,,,,,,,,,,,,,,,,,,,,,,,,,,,,,,,,,,,,,,,,,,,,,,,,,,,,,,,,,,,,,,,,,,,,,,,,,,,,,,,,,,,,,,,,,,,,,,,,,,,,,,,,,,,,,,,
,,,,,,608097c56d749da02771a81a,62c53a492eda98afddd01cb7,2022-07-06_09h31.32.476,Colour_Asymmetry_Pilot,2022.1.3,Win32,75.0131273,62c50e9c1127f2cd403a315f,0,49,49,37,1,threefour,,,,,,,,,,,,,,,,,,,,,,,,,,,,,,,,,,,,,,,,,,,,,,,,,,,,,,,,,,,,,,,,,,,,,,,,,,,,,,,,,,,,,,,,,,,,,,,,,,,,,,,,,,,,,,,,,,,,,,,,,,,,,,,,,,,,,,,,,,,,,,,,,,,,,,,,,,,,,
,,,,,,608097c56d749da02771a81a,62c53a492eda98afddd01cb7,2022-07-06_09h31.32.476,Colour_Asymmetry_Pilot,2022.1.3,Win32,75.0131273,62c50e9c1127f2cd403a315f,0,50,50,107,1,twofour,,,,,,,,,,,,,,,,,,,,,,,,,,,,,,,,,,,,,,,,,,,,,,,,,,,,,,,,,,,,,,,,,,,,,,,,,,,,,,,,,,,,,,,,,,,,,,,,,,,,,,,,,,,,,,,,,,,,,,,,,,,,,,,,,,,,,,,,,,,,,,,,,,,,,,,,,,,,,
,,,,,,608097c56d749da02771a81a,62c53a492eda98afddd01cb7,2022-07-06_09h31.32.476,Colour_Asymmetry_Pilot,2022.1.3,Win32,75.0131273,62c50e9c1127f2cd403a315f,0,51,51,156,1,threeone,,,,,,,,,,,,,,,,,,,,,,,,,,,,,,,,,,,,,,,,,,,,,,,,,,,,,,,,,,,,,,,,,,,,,,,,,,,,,,,,,,,,,,,,,,,,,,,,,,,,,,,,,,,,,,,,,,,,,,,,,,,,,,,,,,,,,,,,,,,,,,,,,,,,,,,,,,,,,
,,,,,,608097c56d749da02771a81a,62c53a492eda98afddd01cb7,2022-07-06_09h31.32.476,Colour_Asymmetry_Pilot,2022.1.3,Win32,75.0131273,62c50e9c1127f2cd403a315f,0,52,52,131,1,twofour,,,,,,,,,,,,,,,,,,,,,,,,,,,,,,,,,,,,,,,,,,,,,,,,,,,,,,,,,,,,,,,,,,,,,,,,,,,,,,,,,,,,,,,,,,,,,,,,,,,,,,,,,,,,,,,,,,,,,,,,,,,,,,,,,,,,,,,,,,,,,,,,,,,,,,,,,,,,,
,,,,,,608097c56d749da02771a81a,62c53a492eda98afddd01cb7,2022-07-06_09h31.32.476,Colour_Asymmetry_Pilot,2022.1.3,Win32,75.0131273,62c50e9c1127f2cd403a315f,0,53,53,79,1,fourthree,,,,,,,,,,,,,,,,,,,,,,,,,,,,,,,,,,,,,,,,,,,,,,,,,,,,,,,,,,,,,,,,,,,,,,,,,,,,,,,,,,,,,,,,,,,,,,,,,,,,,,,,,,,,,,,,,,,,,,,,,,,,,,,,,,,,,,,,,,,,,,,,,,,,,,,,,,,,,
,,,,,,608097c56d749da02771a81a,62c53a492eda98afddd01cb7,2022-07-06_09h31.32.476,Colour_Asymmetry_Pilot,2022.1.3,Win32,75.0131273,62c50e9c1127f2cd403a315f,0,54,54,118,1,fourtwo,,,,,,,,,,,,,,,,,,,,,,,,,,,,,,,,,,,,,,,,,,,,,,,,,,,,,,,,,,,,,,,,,,,,,,,,,,,,,,,,,,,,,,,,,,,,,,,,,,,,,,,,,,,,,,,,,,,,,,,,,,,,,,,,,,,,,,,,,,,,,,,,,,,,,,,,,,,,,
,,,,,,608097c56d749da02771a81a,62c53a492eda98afddd01cb7,2022-07-06_09h31.32.476,Colour_Asymmetry_Pilot,2022.1.3,Win32,75.0131273,62c50e9c1127f2cd403a315f,0,55,55,114,1,twoone,,,,,,,,,,,,,,,,,,,,,,,,,,,,,,,,,,,,,,,,,,,,,,,,,,,,,,,,,,,,,,,,,,,,,,,,,,,,,,,,,,,,,,,,,,,,,,,,,,,,,,,,,,,,,,,,,,,,,,,,,,,,,,,,,,,,,,,,,,,,,,,,,,,,,,,,,,,,,
,,,,,,608097c56d749da02771a81a,62c53a492eda98afddd01cb7,2022-07-06_09h31.32.476,Colour_Asymmetry_Pilot,2022.1.3,Win32,75.0131273,62c50e9c1127f2cd403a315f,0,56,56,51,1,twofour,,,,,,,,,,,,,,,,,,,,,,,,,,,,,,,,,,,,,,,,,,,,,,,,,,,,,,,,,,,,,,,,,,,,,,,,,,,,,,,,,,,,,,,,,,,,,,,,,,,,,,,,,,,,,,,,,,,,,,,,,,,,,,,,,,,,,,,,,,,,,,,,,,,,,,,,,,,,,
,,,,,,608097c56d749da02771a81a,62c53a492eda98afddd01cb7,2022-07-06_09h31.32.476,Colour_Asymmetry_Pilot,2022.1.3,Win32,75.0131273,62c50e9c1127f2cd403a315f,0,57,57,75,1,twofour,,,,,,,,,,,,,,,,,,,,,,,,,,,,,,,,,,,,,,,,,,,,,,,,,,,,,,,,,,,,,,,,,,,,,,,,,,,,,,,,,,,,,,,,,,,,,,,,,,,,,,,,,,,,,,,,,,,,,,,,,,,,,,,,,,,,,,,,,,,,,,,,,,,,,,,,,,,,,
,,,,,,608097c56d749da02771a81a,62c53a492eda98afddd01cb7,2022-07-06_09h31.32.476,Colour_Asymmetry_Pilot,2022.1.3,Win32,75.0131273,62c50e9c1127f2cd403a315f,0,58,58,113,1,onethree,,,,,,,,,,,,,,,,,,,,,,,,,,,,,,,,,,,,,,,,,,,,,,,,,,,,,,,,,,,,,,,,,,,,,,,,,,,,,,,,,,,,,,,,,,,,,,,,,,,,,,,,,,,,,,,,,,,,,,,,,,,,,,,,,,,,,,,,,,,,,,,,,,,,,,,,,,,,,
,,,,,,608097c56d749da02771a81a,62c53a492eda98afddd01cb7,2022-07-06_09h31.32.476,Colour_Asymmetry_Pilot,2022.1.3,Win32,75.0131273,62c50e9c1127f2cd403a315f,0,59,59,31,1,fourthree,,,,,,,,,,,,,,,,,,,,,,,,,,,,,,,,,,,,,,,,,,,,,,,,,,,,,,,,,,,,,,,,,,,,,,,,,,,,,,,,,,,,,,,,,,,,,,,,,,,,,,,,,,,,,,,,,,,,,,,,,,,,,,,,,,,,,,,,,,,,,,,,,,,,,,,,,,,,,
,,,,,,608097c56d749da02771a81a,62c53a492eda98afddd01cb7,2022-07-06_09h31.32.476,Colour_Asymmetry_Pilot,2022.1.3,Win32,75.0131273,62c50e9c1127f2cd403a315f,0,60,60,92,1,threeone,,,,,,,,,,,,,,,,,,,,,,,,,,,,,,,,,,,,,,,,,,,,,,,,,,,,,,,,,,,,,,,,,,,,,,,,,,,,,,,,,,,,,,,,,,,,,,,,,,,,,,,,,,,,,,,,,,,,,,,,,,,,,,,,,,,,,,,,,,,,,,,,,,,,,,,,,,,,,
,,,,,,608097c56d749da02771a81a,62c53a492eda98afddd01cb7,2022-07-06_09h31.32.476,Colour_Asymmetry_Pilot,2022.1.3,Win32,75.0131273,62c50e9c1127f2cd403a315f,0,61,61,86,1,fourtwo,,,,,,,,,,,,,,,,,,,,,,,,,,,,,,,,,,,,,,,,,,,,,,,,,,,,,,,,,,,,,,,,,,,,,,,,,,,,,,,,,,,,,,,,,,,,,,,,,,,,,,,,,,,,,,,,,,,,,,,,,,,,,,,,,,,,,,,,,,,,,,,,,,,,,,,,,,,,,
,,,,,,608097c56d749da02771a81a,62c53a492eda98afddd01cb7,2022-07-06_09h31.32.476,Colour_Asymmetry_Pilot,2022.1.3,Win32,75.0131273,62c50e9c1127f2cd403a315f,0,62,62,2,1,twoone,,,,,,,,,,,,,,,,,,,,,,,,,,,,,,,,,,,,,,,,,,,,,,,,,,,,,,,,,,,,,,,,,,,,,,,,,,,,,,,,,,,,,,,,,,,,,,,,,,,,,,,,,,,,,,,,,,,,,,,,,,,,,,,,,,,,,,,,,,,,,,,,,,,,,,,,,,,,,
,,,,,,608097c56d749da02771a81a,62c53a492eda98afddd01cb7,2022-07-06_09h31.32.476,Colour_Asymmetry_Pilot,2022.1.3,Win32,75.0131273,62c50e9c1127f2cd403a315f,0,63,63,38,1,fourtwo,,,,,,,,,,,,,,,,,,,,,,,,,,,,,,,,,,,,,,,,,,,,,,,,,,,,,,,,,,,,,,,,,,,,,,,,,,,,,,,,,,,,,,,,,,,,,,,,,,,,,,,,,,,,,,,,,,,,,,,,,,,,,,,,,,,,,,,,,,,,,,,,,,,,,,,,,,,,,
,,,,,,608097c56d749da02771a81a,62c53a492eda98afddd01cb7,2022-07-06_09h31.32.476,Colour_Asymmetry_Pilot,2022.1.3,Win32,75.0131273,62c50e9c1127f2cd403a315f,0,64,64,74,1,twoone,,,,,,,,,,,,,,,,,,,,,,,,,,,,,,,,,,,,,,,,,,,,,,,,,,,,,,,,,,,,,,,,,,,,,,,,,,,,,,,,,,,,,,,,,,,,,,,,,,,,,,,,,,,,,,,,,,,,,,,,,,,,,,,,,,,,,,,,,,,,,,,,,,,,,,,,,,,,,
,,,,,,608097c56d749da02771a81a,62c53a492eda98afddd01cb7,2022-07-06_09h31.32.476,Colour_Asymmetry_Pilot,2022.1.3,Win32,75.0131273,62c50e9c1127f2cd403a315f,0,65,65,24,1,onetwo,,,,,,,,,,,,,,,,,,,,,,,,,,,,,,,,,,,,,,,,,,,,,,,,,,,,,,,,,,,,,,,,,,,,,,,,,,,,,,,,,,,,,,,,,,,,,,,,,,,,,,,,,,,,,,,,,,,,,,,,,,,,,,,,,,,,,,,,,,,,,,,,,,,,,,,,,,,,,
,,,,,,608097c56d749da02771a81a,62c53a492eda98afddd01cb7,2022-07-06_09h31.32.476,Colour_Asymmetry_Pilot,2022.1.3,Win32,75.0131273,62c50e9c1127f2cd403a315f,0,66,66,123,1,twofour,,,,,,,,,,,,,,,,,,,,,,,,,,,,,,,,,,,,,,,,,,,,,,,,,,,,,,,,,,,,,,,,,,,,,,,,,,,,,,,,,,,,,,,,,,,,,,,,,,,,,,,,,,,,,,,,,,,,,,,,,,,,,,,,,,,,,,,,,,,,,,,,,,,,,,,,,,,,,
,,,,,,608097c56d749da02771a81a,62c53a492eda98afddd01cb7,2022-07-06_09h31.32.476,Colour_Asymmetry_Pilot,2022.1.3,Win32,75.0131273,62c50e9c1127f2cd403a315f,0,67,67,40,1,onetwo,,,,,,,,,,,,,,,,,,,,,,,,,,,,,,,,,,,,,,,,,,,,,,,,,,,,,,,,,,,,,,,,,,,,,,,,,,,,,,,,,,,,,,,,,,,,,,,,,,,,,,,,,,,,,,,,,,,,,,,,,,,,,,,,,,,,,,,,,,,,,,,,,,,,,,,,,,,,,
,,,,,,608097c56d749da02771a81a,62c53a492eda98afddd01cb7,2022-07-06_09h31.32.476,Colour_Asymmetry_Pilot,2022.1.3,Win32,75.0131273,62c50e9c1127f2cd403a315f,0,68,68,134,1,fourtwo,,,,,,,,,,,,,,,,,,,,,,,,,,,,,,,,,,,,,,,,,,,,,,,,,,,,,,,,,,,,,,,,,,,,,,,,,,,,,,,,,,,,,,,,,,,,,,,,,,,,,,,,,,,,,,,,,,,,,,,,,,,,,,,,,,,,,,,,,,,,,,,,,,,,,,,,,,,,,
,,,,,,608097c56d749da02771a81a,62c53a492eda98afddd01cb7,2022-07-06_09h31.32.476,Colour_Asymmetry_Pilot,2022.1.3,Win32,75.0131273,62c50e9c1127f2cd403a315f,0,69,69,62,1,fourtwo,,,,,,,,,,,,,,,,,,,,,,,,,,,,,,,,,,,,,,,,,,,,,,,,,,,,,,,,,,,,,,,,,,,,,,,,,,,,,,,,,,,,,,,,,,,,,,,,,,,,,,,,,,,,,,,,,,,,,,,,,,,,,,,,,,,,,,,,,,,,,,,,,,,,,,,,,,,,,
,,,,,,608097c56d749da02771a81a,62c53a492eda98afddd01cb7,2022-07-06_09h31.32.476,Colour_Asymmetry_Pilot,2022.1.3,Win32,75.0131273,62c50e9c1127f2cd403a315f,0,70,70,154,1,twoone,,,,,,,,,,,,,,,,,,,,,,,,,,,,,,,,,,,,,,,,,,,,,,,,,,,,,,,,,,,,,,,,,,,,,,,,,,,,,,,,,,,,,,,,,,,,,,,,,,,,,,,,,,,,,,,,,,,,,,,,,,,,,,,,,,,,,,,,,,,,,,,,,,,,,,,,,,,,,
,,,,,,608097c56d749da02771a81a,62c53a492eda98afddd01cb7,2022-07-06_09h31.32.476,Colour_Asymmetry_Pilot,2022.1.3,Win32,75.0131273,62c50e9c1127f2cd403a315f,0,71,71,83,1,twofour,,,,,,,,,,,,,,,,,,,,,,,,,,,,,,,,,,,,,,,,,,,,,,,,,,,,,,,,,,,,,,,,,,,,,,,,,,,,,,,,,,,,,,,,,,,,,,,,,,,,,,,,,,,,,,,,,,,,,,,,,,,,,,,,,,,,,,,,,,,,,,,,,,,,,,,,,,,,,
,,,,,,608097c56d749da02771a81a,62c53a492eda98afddd01cb7,2022-07-06_09h31.32.476,Colour_Asymmetry_Pilot,2022.1.3,Win32,75.0131273,62c50e9c1127f2cd403a315f,0,72,72,53,1,threefour,,,,,,,,,,,,,,,,,,,,,,,,,,,,,,,,,,,,,,,,,,,,,,,,,,,,,,,,,,,,,,,,,,,,,,,,,,,,,,,,,,,,,,,,,,,,,,,,,,,,,,,,,,,,,,,,,,,,,,,,,,,,,,,,,,,,,,,,,,,,,,,,,,,,,,,,,,,,,
,,,,,,608097c56d749da02771a81a,62c53a492eda98afddd01cb7,2022-07-06_09h31.32.476,Colour_Asymmetry_Pilot,2022.1.3,Win32,75.0131273,62c50e9c1127f2cd403a315f,0,73,73,124,1,threeone,,,,,,,,,,,,,,,,,,,,,,,,,,,,,,,,,,,,,,,,,,,,,,,,,,,,,,,,,,,,,,,,,,,,,,,,,,,,,,,,,,,,,,,,,,,,,,,,,,,,,,,,,,,,,,,,,,,,,,,,,,,,,,,,,,,,,,,,,,,,,,,,,,,,,,,,,,,,,
,,,,,,608097c56d749da02771a81a,62c53a492eda98afddd01cb7,2022-07-06_09h31.32.476,Colour_Asymmetry_Pilot,2022.1.3,Win32,75.0131273,62c50e9c1127f2cd403a315f,0,74,74,133,1,threefour,,,,,,,,,,,,,,,,,,,,,,,,,,,,,,,,,,,,,,,,,,,,,,,,,,,,,,,,,,,,,,,,,,,,,,,,,,,,,,,,,,,,,,,,,,,,,,,,,,,,,,,,,,,,,,,,,,,,,,,,,,,,,,,,,,,,,,,,,,,,,,,,,,,,,,,,,,,,,
,,,,,,608097c56d749da02771a81a,62c53a492eda98afddd01cb7,2022-07-06_09h31.32.476,Colour_Asymmetry_Pilot,2022.1.3,Win32,75.0131273,62c50e9c1127f2cd403a315f,0,75,75,28,1,threeone,,,,,,,,,,,,,,,,,,,,,,,,,,,,,,,,,,,,,,,,,,,,,,,,,,,,,,,,,,,,,,,,,,,,,,,,,,,,,,,,,,,,,,,,,,,,,,,,,,,,,,,,,,,,,,,,,,,,,,,,,,,,,,,,,,,,,,,,,,,,,,,,,,,,,,,,,,,,,
,,,,,,608097c56d749da02771a81a,62c53a492eda98afddd01cb7,2022-07-06_09h31.32.476,Colour_Asymmetry_Pilot,2022.1.3,Win32,75.0131273,62c50e9c1127f2cd403a315f,0,76,76,64,1,onetwo,,,,,,,,,,,,,,,,,,,,,,,,,,,,,,,,,,,,,,,,,,,,,,,,,,,,,,,,,,,,,,,,,,,,,,,,,,,,,,,,,,,,,,,,,,,,,,,,,,,,,,,,,,,,,,,,,,,,,,,,,,,,,,,,,,,,,,,,,,,,,,,,,,,,,,,,,,,,,
,,,,,,608097c56d749da02771a81a,62c53a492eda98afddd01cb7,2022-07-06_09h31.32.476,Colour_Asymmetry_Pilot,2022.1.3,Win32,75.0131273,62c50e9c1127f2cd403a315f,0,77,77,97,1,onethree,,,,,,,,,,,,,,,,,,,,,,,,,,,,,,,,,,,,,,,,,,,,,,,,,,,,,,,,,,,,,,,,,,,,,,,,,,,,,,,,,,,,,,,,,,,,,,,,,,,,,,,,,,,,,,,,,,,,,,,,,,,,,,,,,,,,,,,,,,,,,,,,,,,,,,,,,,,,,
,,,,,,608097c56d749da02771a81a,62c53a492eda98afddd01cb7,2022-07-06_09h31.32.476,Colour_Asymmetry_Pilot,2022.1.3,Win32,75.0131273,62c50e9c1127f2cd403a315f,0,78,78,76,1,threeone,,,,,,,,,,,,,,,,,,,,,,,,,,,,,,,,,,,,,,,,,,,,,,,,,,,,,,,,,,,,,,,,,,,,,,,,,,,,,,,,,,,,,,,,,,,,,,,,,,,,,,,,,,,,,,,,,,,,,,,,,,,,,,,,,,,,,,,,,,,,,,,,,,,,,,,,,,,,,
,,,,,,608097c56d749da02771a81a,62c53a492eda98afddd01cb7,2022-07-06_09h31.32.476,Colour_Asymmetry_Pilot,2022.1.3,Win32,75.0131273,62c50e9c1127f2cd403a315f,0,79,79,27,1,twofour,,,,,,,,,,,,,,,,,,,,,,,,,,,,,,,,,,,,,,,,,,,,,,,,,,,,,,,,,,,,,,,,,,,,,,,,,,,,,,,,,,,,,,,,,,,,,,,,,,,,,,,,,,,,,,,,,,,,,,,,,,,,,,,,,,,,,,,,,,,,,,,,,,,,,,,,,,,,,
,,,,,,608097c56d749da02771a81a,62c53a492eda98afddd01cb7,2022-07-06_09h31.32.476,Colour_Asymmetry_Pilot,2022.1.3,Win32,75.0131273,62c50e9c1127f2cd403a315f,0,80,80,153,1,onethree,,,,,,,,,,,,,,,,,,,,,,,,,,,,,,,,,,,,,,,,,,,,,,,,,,,,,,,,,,,,,,,,,,,,,,,,,,,,,,,,,,,,,,,,,,,,,,,,,,,,,,,,,,,,,,,,,,,,,,,,,,,,,,,,,,,,,,,,,,,,,,,,,,,,,,,,,,,,,
,,,,,,608097c56d749da02771a81a,62c53a492eda98afddd01cb7,2022-07-06_09h31.32.476,Colour_Asymmetry_Pilot,2022.1.3,Win32,75.0131273,62c50e9c1127f2cd403a315f,0,81,81,68,1,threeone,,,,,,,,,,,,,,,,,,,,,,,,,,,,,,,,,,,,,,,,,,,,,,,,,,,,,,,,,,,,,,,,,,,,,,,,,,,,,,,,,,,,,,,,,,,,,,,,,,,,,,,,,,,,,,,,,,,,,,,,,,,,,,,,,,,,,,,,,,,,,,,,,,,,,,,,,,,,,
,,,,,,608097c56d749da02771a81a,62c53a492eda98afddd01cb7,2022-07-06_09h31.32.476,Colour_Asymmetry_Pilot,2022.1.3,Win32,75.0131273,62c50e9c1127f2cd403a315f,0,82,82,43,1,twofour,,,,,,,,,,,,,,,,,,,,,,,,,,,,,,,,,,,,,,,,,,,,,,,,,,,,,,,,,,,,,,,,,,,,,,,,,,,,,,,,,,,,,,,,,,,,,,,,,,,,,,,,,,,,,,,,,,,,,,,,,,,,,,,,,,,,,,,,,,,,,,,,,,,,,,,,,,,,,
,,,,,,608097c56d749da02771a81a,62c53a492eda98afddd01cb7,2022-07-06_09h31.32.476,Colour_Asymmetry_Pilot,2022.1.3,Win32,75.0131273,62c50e9c1127f2cd403a315f,0,83,83,98,1,twoone,,,,,,,,,,,,,,,,,,,,,,,,,,,,,,,,,,,,,,,,,,,,,,,,,,,,,,,,,,,,,,,,,,,,,,,,,,,,,,,,,,,,,,,,,,,,,,,,,,,,,,,,,,,,,,,,,,,,,,,,,,,,,,,,,,,,,,,,,,,,,,,,,,,,,,,,,,,,,
,,,,,,608097c56d749da02771a81a,62c53a492eda98afddd01cb7,2022-07-06_09h31.32.476,Colour_Asymmetry_Pilot,2022.1.3,Win32,75.0131273,62c50e9c1127f2cd403a315f,0,84,84,140,1,threeone,,,,,,,,,,,,,,,,,,,,,,,,,,,,,,,,,,,,,,,,,,,,,,,,,,,,,,,,,,,,,,,,,,,,,,,,,,,,,,,,,,,,,,,,,,,,,,,,,,,,,,,,,,,,,,,,,,,,,,,,,,,,,,,,,,,,,,,,,,,,,,,,,,,,,,,,,,,,,
,,,,,,608097c56d749da02771a81a,62c53a492eda98afddd01cb7,2022-07-06_09h31.32.476,Colour_Asymmetry_Pilot,2022.1.3,Win32,75.0131273,62c50e9c1127f2cd403a315f,0,85,85,13,1,threefour,,,,,,,,,,,,,,,,,,,,,,,,,,,,,,,,,,,,,,,,,,,,,,,,,,,,,,,,,,,,,,,,,,,,,,,,,,,,,,,,,,,,,,,,,,,,,,,,,,,,,,,,,,,,,,,,,,,,,,,,,,,,,,,,,,,,,,,,,,,,,,,,,,,,,,,,,,,,,
,,,,,,608097c56d749da02771a81a,62c53a492eda98afddd01cb7,2022-07-06_09h31.32.476,Colour_Asymmetry_Pilot,2022.1.3,Win32,75.0131273,62c50e9c1127f2cd403a315f,0,86,86,89,1,onethree,,,,,,,,,,,,,,,,,,,,,,,,,,,,,,,,,,,,,,,,,,,,,,,,,,,,,,,,,,,,,,,,,,,,,,,,,,,,,,,,,,,,,,,,,,,,,,,,,,,,,,,,,,,,,,,,,,,,,,,,,,,,,,,,,,,,,,,,,,,,,,,,,,,,,,,,,,,,,
,,,,,,608097c56d749da02771a81a,62c53a492eda98afddd01cb7,2022-07-06_09h31.32.476,Colour_Asymmetry_Pilot,2022.1.3,Win32,75.0131273,62c50e9c1127f2cd403a315f,0,87,87,120,1,onetwo,,,,,,,,,,,,,,,,,,,,,,,,,,,,,,,,,,,,,,,,,,,,,,,,,,,,,,,,,,,,,,,,,,,,,,,,,,,,,,,,,,,,,,,,,,,,,,,,,,,,,,,,,,,,,,,,,,,,,,,,,,,,,,,,,,,,,,,,,,,,,,,,,,,,,,,,,,,,,
,,,,,,608097c56d749da02771a81a,62c53a492eda98afddd01cb7,2022-07-06_09h31.32.476,Colour_Asymmetry_Pilot,2022.1.3,Win32,75.0131273,62c50e9c1127f2cd403a315f,0,88,88,36,1,threeone,,,,,,,,,,,,,,,,,,,,,,,,,,,,,,,,,,,,,,,,,,,,,,,,,,,,,,,,,,,,,,,,,,,,,,,,,,,,,,,,,,,,,,,,,,,,,,,,,,,,,,,,,,,,,,,,,,,,,,,,,,,,,,,,,,,,,,,,,,,,,,,,,,,,,,,,,,,,,
,,,,,,608097c56d749da02771a81a,62c53a492eda98afddd01cb7,2022-07-06_09h31.32.476,Colour_Asymmetry_Pilot,2022.1.3,Win32,75.0131273,62c50e9c1127f2cd403a315f,0,89,89,82,1,twoone,,,,,,,,,,,,,,,,,,,,,,,,,,,,,,,,,,,,,,,,,,,,,,,,,,,,,,,,,,,,,,,,,,,,,,,,,,,,,,,,,,,,,,,,,,,,,,,,,,,,,,,,,,,,,,,,,,,,,,,,,,,,,,,,,,,,,,,,,,,,,,,,,,,,,,,,,,,,,
,,,,,,608097c56d749da02771a81a,62c53a492eda98afddd01cb7,2022-07-06_09h31.32.476,Colour_Asymmetry_Pilot,2022.1.3,Win32,75.0131273,62c50e9c1127f2cd403a315f,0,90,90,1,1,onethree,,,,,,,,,,,,,,,,,,,,,,,,,,,,,,,,,,,,,,,,,,,,,,,,,,,,,,,,,,,,,,,,,,,,,,,,,,,,,,,,,,,,,,,,,,,,,,,,,,,,,,,,,,,,,,,,,,,,,,,,,,,,,,,,,,,,,,,,,,,,,,,,,,,,,,,,,,,,,
,,,,,,608097c56d749da02771a81a,62c53a492eda98afddd01cb7,2022-07-06_09h31.32.476,Colour_Asymmetry_Pilot,2022.1.3,Win32,75.0131273,62c50e9c1127f2cd403a315f,0,91,91,159,1,fourthree,,,,,,,,,,,,,,,,,,,,,,,,,,,,,,,,,,,,,,,,,,,,,,,,,,,,,,,,,,,,,,,,,,,,,,,,,,,,,,,,,,,,,,,,,,,,,,,,,,,,,,,,,,,,,,,,,,,,,,,,,,,,,,,,,,,,,,,,,,,,,,,,,,,,,,,,,,,,,
,,,,,,608097c56d749da02771a81a,62c53a492eda98afddd01cb7,2022-07-06_09h31.32.476,Colour_Asymmetry_Pilot,2022.1.3,Win32,75.0131273,62c50e9c1127f2cd403a315f,0,92,92,26,1,twoone,,,,,,,,,,,,,,,,,,,,,,,,,,,,,,,,,,,,,,,,,,,,,,,,,,,,,,,,,,,,,,,,,,,,,,,,,,,,,,,,,,,,,,,,,,,,,,,,,,,,,,,,,,,,,,,,,,,,,,,,,,,,,,,,,,,,,,,,,,,,,,,,,,,,,,,,,,,,,
,,,,,,608097c56d749da02771a81a,62c53a492eda98afddd01cb7,2022-07-06_09h31.32.476,Colour_Asymmetry_Pilot,2022.1.3,Win32,75.0131273,62c50e9c1127f2cd403a315f,0,93,93,115,1,twofour,,,,,,,,,,,,,,,,,,,,,,,,,,,,,,,,,,,,,,,,,,,,,,,,,,,,,,,,,,,,,,,,,,,,,,,,,,,,,,,,,,,,,,,,,,,,,,,,,,,,,,,,,,,,,,,,,,,,,,,,,,,,,,,,,,,,,,,,,,,,,,,,,,,,,,,,,,,,,
,,,,,,608097c56d749da02771a81a,62c53a492eda98afddd01cb7,2022-07-06_09h31.32.476,Colour_Asymmetry_Pilot,2022.1.3,Win32,75.0131273,62c50e9c1127f2cd403a315f,0,94,94,90,1,twoone,,,,,,,,,,,,,,,,,,,,,,,,,,,,,,,,,,,,,,,,,,,,,,,,,,,,,,,,,,,,,,,,,,,,,,,,,,,,,,,,,,,,,,,,,,,,,,,,,,,,,,,,,,,,,,,,,,,,,,,,,,,,,,,,,,,,,,,,,,,,,,,,,,,,,,,,,,,,,
,,,,,,608097c56d749da02771a81a,62c53a492eda98afddd01cb7,2022-07-06_09h31.32.476,Colour_Asymmetry_Pilot,2022.1.3,Win32,75.0131273,62c50e9c1127f2cd403a315f,0,95,95,102,1,fourtwo,,,,,,,,,,,,,,,,,,,,,,,,,,,,,,,,,,,,,,,,,,,,,,,,,,,,,,,,,,,,,,,,,,,,,,,,,,,,,,,,,,,,,,,,,,,,,,,,,,,,,,,,,,,,,,,,,,,,,,,,,,,,,,,,,,,,,,,,,,,,,,,,,,,,,,,,,,,,,
,,,,,,608097c56d749da02771a81a,62c53a492eda98afddd01cb7,2022-07-06_09h31.32.476,Colour_Asymmetry_Pilot,2022.1.3,Win32,75.0131273,62c50e9c1127f2cd403a315f,0,96,96,66,1,twoone,,,,,,,,,,,,,,,,,,,,,,,,,,,,,,,,,,,,,,,,,,,,,,,,,,,,,,,,,,,,,,,,,,,,,,,,,,,,,,,,,,,,,,,,,,,,,,,,,,,,,,,,,,,,,,,,,,,,,,,,,,,,,,,,,,,,,,,,,,,,,,,,,,,,,,,,,,,,,
,,,,,,608097c56d749da02771a81a,62c53a492eda98afddd01cb7,2022-07-06_09h31.32.476,Colour_Asymmetry_Pilot,2022.1.3,Win32,75.0131273,62c50e9c1127f2cd403a315f,0,97,97,34,1,twoone,,,,,,,,,,,,,,,,,,,,,,,,,,,,,,,,,,,,,,,,,,,,,,,,,,,,,,,,,,,,,,,,,,,,,,,,,,,,,,,,,,,,,,,,,,,,,,,,,,,,,,,,,,,,,,,,,,,,,,,,,,,,,,,,,,,,,,,,,,,,,,,,,,,,,,,,,,,,,
,,,,,,608097c56d749da02771a81a,62c53a492eda98afddd01cb7,2022-07-06_09h31.32.476,Colour_Asymmetry_Pilot,2022.1.3,Win32,75.0131273,62c50e9c1127f2cd403a315f,0,98,98,72,1,onetwo,,,,,,,,,,,,,,,,,,,,,,,,,,,,,,,,,,,,,,,,,,,,,,,,,,,,,,,,,,,,,,,,,,,,,,,,,,,,,,,,,,,,,,,,,,,,,,,,,,,,,,,,,,,,,,,,,,,,,,,,,,,,,,,,,,,,,,,,,,,,,,,,,,,,,,,,,,,,,
,,,,,,608097c56d749da02771a81a,62c53a492eda98afddd01cb7,2022-07-06_09h31.32.476,Colour_Asymmetry_Pilot,2022.1.3,Win32,75.0131273,62c50e9c1127f2cd403a315f,0,99,99,106,1,twoone,,,,,,,,,,,,,,,,,,,,,,,,,,,,,,,,,,,,,,,,,,,,,,,,,,,,,,,,,,,,,,,,,,,,,,,,,,,,,,,,,,,,,,,,,,,,,,,,,,,,,,,,,,,,,,,,,,,,,,,,,,,,,,,,,,,,,,,,,,,,,,,,,,,,,,,,,,,,,
,,,,,,608097c56d749da02771a81a,62c53a492eda98afddd01cb7,2022-07-06_09h31.32.476,Colour_Asymmetry_Pilot,2022.1.3,Win32,75.0131273,62c50e9c1127f2cd403a315f,0,100,100,60,1,threeone,,,,,,,,,,,,,,,,,,,,,,,,,,,,,,,,,,,,,,,,,,,,,,,,,,,,,,,,,,,,,,,,,,,,,,,,,,,,,,,,,,,,,,,,,,,,,,,,,,,,,,,,,,,,,,,,,,,,,,,,,,,,,,,,,,,,,,,,,,,,,,,,,,,,,,,,,,,,,
,,,,,,608097c56d749da02771a81a,62c53a492eda98afddd01cb7,2022-07-06_09h31.32.476,Colour_Asymmetry_Pilot,2022.1.3,Win32,75.0131273,62c50e9c1127f2cd403a315f,0,101,101,9,1,onethree,,,,,,,,,,,,,,,,,,,,,,,,,,,,,,,,,,,,,,,,,,,,,,,,,,,,,,,,,,,,,,,,,,,,,,,,,,,,,,,,,,,,,,,,,,,,,,,,,,,,,,,,,,,,,,,,,,,,,,,,,,,,,,,,,,,,,,,,,,,,,,,,,,,,,,,,,,,,,
,,,,,,608097c56d749da02771a81a,62c53a492eda98afddd01cb7,2022-07-06_09h31.32.476,Colour_Asymmetry_Pilot,2022.1.3,Win32,75.0131273,62c50e9c1127f2cd403a315f,0,102,102,85,1,threefour,,,,,,,,,,,,,,,,,,,,,,,,,,,,,,,,,,,,,,,,,,,,,,,,,,,,,,,,,,,,,,,,,,,,,,,,,,,,,,,,,,,,,,,,,,,,,,,,,,,,,,,,,,,,,,,,,,,,,,,,,,,,,,,,,,,,,,,,,,,,,,,,,,,,,,,,,,,,,
,,,,,,608097c56d749da02771a81a,62c53a492eda98afddd01cb7,2022-07-06_09h31.32.476,Colour_Asymmetry_Pilot,2022.1.3,Win32,75.0131273,62c50e9c1127f2cd403a315f,0,103,103,70,1,fourtwo,,,,,,,,,,,,,,,,,,,,,,,,,,,,,,,,,,,,,,,,,,,,,,,,,,,,,,,,,,,,,,,,,,,,,,,,,,,,,,,,,,,,,,,,,,,,,,,,,,,,,,,,,,,,,,,,,,,,,,,,,,,,,,,,,,,,,,,,,,,,,,,,,,,,,,,,,,,,,
,,,,,,608097c56d749da02771a81a,62c53a492eda98afddd01cb7,2022-07-06_09h31.32.476,Colour_Asymmetry_Pilot,2022.1.3,Win32,75.0131273,62c50e9c1127f2cd403a315f,0,104,104,142,1,fourtwo,,,,,,,,,,,,,,,,,,,,,,,,,,,,,,,,,,,,,,,,,,,,,,,,,,,,,,,,,,,,,,,,,,,,,,,,,,,,,,,,,,,,,,,,,,,,,,,,,,,,,,,,,,,,,,,,,,,,,,,,,,,,,,,,,,,,,,,,,,,,,,,,,,,,,,,,,,,,,
,,,,,,608097c56d749da02771a81a,62c53a492eda98afddd01cb7,2022-07-06_09h31.32.476,Colour_Asymmetry_Pilot,2022.1.3,Win32,75.0131273,62c50e9c1127f2cd403a315f,0,105,105,15,1,fourthree,,,,,,,,,,,,,,,,,,,,,,,,,,,,,,,,,,,,,,,,,,,,,,,,,,,,,,,,,,,,,,,,,,,,,,,,,,,,,,,,,,,,,,,,,,,,,,,,,,,,,,,,,,,,,,,,,,,,,,,,,,,,,,,,,,,,,,,,,,,,,,,,,,,,,,,,,,,,,
,,,,,,608097c56d749da02771a81a,62c53a492eda98afddd01cb7,2022-07-06_09h31.32.476,Colour_Asymmetry_Pilot,2022.1.3,Win32,75.0131273,62c50e9c1127f2cd403a315f,0,106,106,99,1,twofour,,,,,,,,,,,,,,,,,,,,,,,,,,,,,,,,,,,,,,,,,,,,,,,,,,,,,,,,,,,,,,,,,,,,,,,,,,,,,,,,,,,,,,,,,,,,,,,,,,,,,,,,,,,,,,,,,,,,,,,,,,,,,,,,,,,,,,,,,,,,,,,,,,,,,,,,,,,,,
,,,,,,608097c56d749da02771a81a,62c53a492eda98afddd01cb7,2022-07-06_09h31.32.476,Colour_Asymmetry_Pilot,2022.1.3,Win32,75.0131273,62c50e9c1127f2cd403a315f,0,107,107,39,1,fourthree,,,,,,,,,,,,,,,,,,,,,,,,,,,,,,,,,,,,,,,,,,,,,,,,,,,,,,,,,,,,,,,,,,,,,,,,,,,,,,,,,,,,,,,,,,,,,,,,,,,,,,,,,,,,,,,,,,,,,,,,,,,,,,,,,,,,,,,,,,,,,,,,,,,,,,,,,,,,,
,,,,,,608097c56d749da02771a81a,62c53a492eda98afddd01cb7,2022-07-06_09h31.32.476,Colour_Asymmetry_Pilot,2022.1.3,Win32,75.0131273,62c50e9c1127f2cd403a315f,0,108,108,117,1,threefour,,,,,,,,,,,,,,,,,,,,,,,,,,,,,,,,,,,,,,,,,,,,,,,,,,,,,,,,,,,,,,,,,,,,,,,,,,,,,,,,,,,,,,,,,,,,,,,,,,,,,,,,,,,,,,,,,,,,,,,,,,,,,,,,,,,,,,,,,,,,,,,,,,,,,,,,,,,,,
,,,,,,608097c56d749da02771a81a,62c53a492eda98afddd01cb7,2022-07-06_09h31.32.476,Colour_Asymmetry_Pilot,2022.1.3,Win32,75.0131273,62c50e9c1127f2cd403a315f,0,109,109,5,1,threefour,,,,,,,,,,,,,,,,,,,,,,,,,,,,,,,,,,,,,,,,,,,,,,,,,,,,,,,,,,,,,,,,,,,,,,,,,,,,,,,,,,,,,,,,,,,,,,,,,,,,,,,,,,,,,,,,,,,,,,,,,,,,,,,,,,,,,,,,,,,,,,,,,,,,,,,,,,,,,
,,,,,,608097c56d749da02771a81a,62c53a492eda98afddd01cb7,2022-07-06_09h31.32.476,Colour_Asymmetry_Pilot,2022.1.3,Win32,75.0131273,62c50e9c1127f2cd403a315f,0,110,110,150,1,fourtwo,,,,,,,,,,,,,,,,,,,,,,,,,,,,,,,,,,,,,,,,,,,,,,,,,,,,,,,,,,,,,,,,,,,,,,,,,,,,,,,,,,,,,,,,,,,,,,,,,,,,,,,,,,,,,,,,,,,,,,,,,,,,,,,,,,,,,,,,,,,,,,,,,,,,,,,,,,,,,
,,,,,,608097c56d749da02771a81a,62c53a492eda98afddd01cb7,2022-07-06_09h31.32.476,Colour_Asymmetry_Pilot,2022.1.3,Win32,75.0131273,62c50e9c1127f2cd403a315f,0,111,111,96,1,onetwo,,,,,,,,,,,,,,,,,,,,,,,,,,,,,,,,,,,,,,,,,,,,,,,,,,,,,,,,,,,,,,,,,,,,,,,,,,,,,,,,,,,,,,,,,,,,,,,,,,,,,,,,,,,,,,,,,,,,,,,,,,,,,,,,,,,,,,,,,,,,,,,,,,,,,,,,,,,,,
,,,,,,608097c56d749da02771a81a,62c53a492eda98afddd01cb7,2022-07-06_09h31.32.476,Colour_Asymmetry_Pilot,2022.1.3,Win32,75.0131273,62c50e9c1127f2cd403a315f,0,112,112,95,1,fourthree,,,,,,,,,,,,,,,,,,,,,,,,,,,,,,,,,,,,,,,,,,,,,,,,,,,,,,,,,,,,,,,,,,,,,,,,,,,,,,,,,,,,,,,,,,,,,,,,,,,,,,,,,,,,,,,,,,,,,,,,,,,,,,,,,,,,,,,,,,,,,,,,,,,,,,,,,,,,,
,,,,,,608097c56d749da02771a81a,62c53a492eda98afddd01cb7,2022-07-06_09h31.32.476,Colour_Asymmetry_Pilot,2022.1.3,Win32,75.0131273,62c50e9c1127f2cd403a315f,0,113,113,8,1,onetwo,,,,,,,,,,,,,,,,,,,,,,,,,,,,,,,,,,,,,,,,,,,,,,,,,,,,,,,,,,,,,,,,,,,,,,,,,,,,,,,,,,,,,,,,,,,,,,,,,,,,,,,,,,,,,,,,,,,,,,,,,,,,,,,,,,,,,,,,,,,,,,,,,,,,,,,,,,,,,
,,,,,,608097c56d749da02771a81a,62c53a492eda98afddd01cb7,2022-07-06_09h31.32.476,Colour_Asymmetry_Pilot,2022.1.3,Win32,75.0131273,62c50e9c1127f2cd403a315f,0,114,114,157,1,threefour,,,,,,,,,,,,,,,,,,,,,,,,,,,,,,,,,,,,,,,,,,,,,,,,,,,,,,,,,,,,,,,,,,,,,,,,,,,,,,,,,,,,,,,,,,,,,,,,,,,,,,,,,,,,,,,,,,,,,,,,,,,,,,,,,,,,,,,,,,,,,,,,,,,,,,,,,,,,,
,,,,,,608097c56d749da02771a81a,62c53a492eda98afddd01cb7,2022-07-06_09h31.32.476,Colour_Asymmetry_Pilot,2022.1.3,Win32,75.0131273,62c50e9c1127f2cd403a315f,0,115,115,6,1,fourtwo,,,,,,,,,,,,,,,,,,,,,,,,,,,,,,,,,,,,,,,,,,,,,,,,,,,,,,,,,,,,,,,,,,,,,,,,,,,,,,,,,,,,,,,,,,,,,,,,,,,,,,,,,,,,,,,,,,,,,,,,,,,,,,,,,,,,,,,,,,,,,,,,,,,,,,,,,,,,,
,,,,,,608097c56d749da02771a81a,62c53a492eda98afddd01cb7,2022-07-06_09h31.32.476,Colour_Asymmetry_Pilot,2022.1.3,Win32,75.0131273,62c50e9c1127f2cd403a315f,0,116,116,100,1,threeone,,,,,,,,,,,,,,,,,,,,,,,,,,,,,,,,,,,,,,,,,,,,,,,,,,,,,,,,,,,,,,,,,,,,,,,,,,,,,,,,,,,,,,,,,,,,,,,,,,,,,,,,,,,,,,,,,,,,,,,,,,,,,,,,,,,,,,,,,,,,,,,,,,,,,,,,,,,,,
,,,,,,608097c56d749da02771a81a,62c53a492eda98afddd01cb7,2022-07-06_09h31.32.476,Colour_Asymmetry_Pilot,2022.1.3,Win32,75.0131273,62c50e9c1127f2cd403a315f,0,117,117,80,1,onetwo,,,,,,,,,,,,,,,,,,,,,,,,,,,,,,,,,,,,,,,,,,,,,,,,,,,,,,,,,,,,,,,,,,,,,,,,,,,,,,,,,,,,,,,,,,,,,,,,,,,,,,,,,,,,,,,,,,,,,,,,,,,,,,,,,,,,,,,,,,,,,,,,,,,,,,,,,,,,,
,,,,,,608097c56d749da02771a81a,62c53a492eda98afddd01cb7,2022-07-06_09h31.32.476,Colour_Asymmetry_Pilot,2022.1.3,Win32,75.0131273,62c50e9c1127f2cd403a315f,0,118,118,10,1,twoone,,,,,,,,,,,,,,,,,,,,,,,,,,,,,,,,,,,,,,,,,,,,,,,,,,,,,,,,,,,,,,,,,,,,,,,,,,,,,,,,,,,,,,,,,,,,,,,,,,,,,,,,,,,,,,,,,,,,,,,,,,,,,,,,,,,,,,,,,,,,,,,,,,,,,,,,,,,,,
,,,,,,608097c56d749da02771a81a,62c53a492eda98afddd01cb7,2022-07-06_09h31.32.476,Colour_Asymmetry_Pilot,2022.1.3,Win32,75.0131273,62c50e9c1127f2cd403a315f,0,119,119,46,1,fourtwo,,,,,,,,,,,,,,,,,,,,,,,,,,,,,,,,,,,,,,,,,,,,,,,,,,,,,,,,,,,,,,,,,,,,,,,,,,,,,,,,,,,,,,,,,,,,,,,,,,,,,,,,,,,,,,,,,,,,,,,,,,,,,,,,,,,,,,,,,,,,,,,,,,,,,,,,,,,,,
,,,,,,608097c56d749da02771a81a,62c53a492eda98afddd01cb7,2022-07-06_09h31.32.476,Colour_Asymmetry_Pilot,2022.1.3,Win32,75.0131273,62c50e9c1127f2cd403a315f,0,120,120,146,1,twoone,,,,,,,,,,,,,,,,,,,,,,,,,,,,,,,,,,,,,,,,,,,,,,,,,,,,,,,,,,,,,,,,,,,,,,,,,,,,,,,,,,,,,,,,,,,,,,,,,,,,,,,,,,,,,,,,,,,,,,,,,,,,,,,,,,,,,,,,,,,,,,,,,,,,,,,,,,,,,
,,,,,,608097c56d749da02771a81a,62c53a492eda98afddd01cb7,2022-07-06_09h31.32.476,Colour_Asymmetry_Pilot,2022.1.3,Win32,75.0131273,62c50e9c1127f2cd403a315f,0,121,121,3,1,twofour,,,,,,,,,,,,,,,,,,,,,,,,,,,,,,,,,,,,,,,,,,,,,,,,,,,,,,,,,,,,,,,,,,,,,,,,,,,,,,,,,,,,,,,,,,,,,,,,,,,,,,,,,,,,,,,,,,,,,,,,,,,,,,,,,,,,,,,,,,,,,,,,,,,,,,,,,,,,,
,,,,,,608097c56d749da02771a81a,62c53a492eda98afddd01cb7,2022-07-06_09h31.32.476,Colour_Asymmetry_Pilot,2022.1.3,Win32,75.0131273,62c50e9c1127f2cd403a315f,0,122,122,122,1,twoone,,,,,,,,,,,,,,,,,,,,,,,,,,,,,,,,,,,,,,,,,,,,,,,,,,,,,,,,,,,,,,,,,,,,,,,,,,,,,,,,,,,,,,,,,,,,,,,,,,,,,,,,,,,,,,,,,,,,,,,,,,,,,,,,,,,,,,,,,,,,,,,,,,,,,,,,,,,,,
,,,,,,608097c56d749da02771a81a,62c53a492eda98afddd01cb7,2022-07-06_09h31.32.476,Colour_Asymmetry_Pilot,2022.1.3,Win32,75.0131273,62c50e9c1127f2cd403a315f,0,123,123,49,1,onethree,,,,,,,,,,,,,,,,,,,,,,,,,,,,,,,,,,,,,,,,,,,,,,,,,,,,,,,,,,,,,,,,,,,,,,,,,,,,,,,,,,,,,,,,,,,,,,,,,,,,,,,,,,,,,,,,,,,,,,,,,,,,,,,,,,,,,,,,,,,,,,,,,,,,,,,,,,,,,
,,,,,,608097c56d749da02771a81a,62c53a492eda98afddd01cb7,2022-07-06_09h31.32.476,Colour_Asymmetry_Pilot,2022.1.3,Win32,75.0131273,62c50e9c1127f2cd403a315f,0,124,124,73,1,onethree,,,,,,,,,,,,,,,,,,,,,,,,,,,,,,,,,,,,,,,,,,,,,,,,,,,,,,,,,,,,,,,,,,,,,,,,,,,,,,,,,,,,,,,,,,,,,,,,,,,,,,,,,,,,,,,,,,,,,,,,,,,,,,,,,,,,,,,,,,,,,,,,,,,,,,,,,,,,,
,,,,,,608097c56d749da02771a81a,62c53a492eda98afddd01cb7,2022-07-06_09h31.32.476,Colour_Asymmetry_Pilot,2022.1.3,Win32,75.0131273,62c50e9c1127f2cd403a315f,0,125,125,29,1,threefour,,,,,,,,,,,,,,,,,,,,,,,,,,,,,,,,,,,,,,,,,,,,,,,,,,,,,,,,,,,,,,,,,,,,,,,,,,,,,,,,,,,,,,,,,,,,,,,,,,,,,,,,,,,,,,,,,,,,,,,,,,,,,,,,,,,,,,,,,,,,,,,,,,,,,,,,,,,,,
,,,,,,608097c56d749da02771a81a,62c53a492eda98afddd01cb7,2022-07-06_09h31.32.476,Colour_Asymmetry_Pilot,2022.1.3,Win32,75.0131273,62c50e9c1127f2cd403a315f,0,126,126,88,1,onetwo,,,,,,,,,,,,,,,,,,,,,,,,,,,,,,,,,,,,,,,,,,,,,,,,,,,,,,,,,,,,,,,,,,,,,,,,,,,,,,,,,,,,,,,,,,,,,,,,,,,,,,,,,,,,,,,,,,,,,,,,,,,,,,,,,,,,,,,,,,,,,,,,,,,,,,,,,,,,,
,,,,,,608097c56d749da02771a81a,62c53a492eda98afddd01cb7,2022-07-06_09h31.32.476,Colour_Asymmetry_Pilot,2022.1.3,Win32,75.0131273,62c50e9c1127f2cd403a315f,0,127,127,55,1,fourthree,,,,,,,,,,,,,,,,,,,,,,,,,,,,,,,,,,,,,,,,,,,,,,,,,,,,,,,,,,,,,,,,,,,,,,,,,,,,,,,,,,,,,,,,,,,,,,,,,,,,,,,,,,,,,,,,,,,,,,,,,,,,,,,,,,,,,,,,,,,,,,,,,,,,,,,,,,,,,
,,,,,,608097c56d749da02771a81a,62c53a492eda98afddd01cb7,2022-07-06_09h31.32.476,Colour_Asymmetry_Pilot,2022.1.3,Win32,75.0131273,62c50e9c1127f2cd403a315f,0,128,128,128,1,onetwo,,,,,,,,,,,,,,,,,,,,,,,,,,,,,,,,,,,,,,,,,,,,,,,,,,,,,,,,,,,,,,,,,,,,,,,,,,,,,,,,,,,,,,,,,,,,,,,,,,,,,,,,,,,,,,,,,,,,,,,,,,,,,,,,,,,,,,,,,,,,,,,,,,,,,,,,,,,,,
,,,,,,608097c56d749da02771a81a,62c53a492eda98afddd01cb7,2022-07-06_09h31.32.476,Colour_Asymmetry_Pilot,2022.1.3,Win32,75.0131273,62c50e9c1127f2cd403a315f,0,129,129,152,1,onetwo,,,,,,,,,,,,,,,,,,,,,,,,,,,,,,,,,,,,,,,,,,,,,,,,,,,,,,,,,,,,,,,,,,,,,,,,,,,,,,,,,,,,,,,,,,,,,,,,,,,,,,,,,,,,,,,,,,,,,,,,,,,,,,,,,,,,,,,,,,,,,,,,,,,,,,,,,,,,,
,,,,,,608097c56d749da02771a81a,62c53a492eda98afddd01cb7,2022-07-06_09h31.32.476,Colour_Asymmetry_Pilot,2022.1.3,Win32,75.0131273,62c50e9c1127f2cd403a315f,0,130,130,141,1,threefour,,,,,,,,,,,,,,,,,,,,,,,,,,,,,,,,,,,,,,,,,,,,,,,,,,,,,,,,,,,,,,,,,,,,,,,,,,,,,,,,,,,,,,,,,,,,,,,,,,,,,,,,,,,,,,,,,,,,,,,,,,,,,,,,,,,,,,,,,,,,,,,,,,,,,,,,,,,,,
,,,,,,608097c56d749da02771a81a,62c53a492eda98afddd01cb7,2022-07-06_09h31.32.476,Colour_Asymmetry_Pilot,2022.1.3,Win32,75.0131273,62c50e9c1127f2cd403a315f,0,131,131,136,1,onetwo,,,,,,,,,,,,,,,,,,,,,,,,,,,,,,,,,,,,,,,,,,,,,,,,,,,,,,,,,,,,,,,,,,,,,,,,,,,,,,,,,,,,,,,,,,,,,,,,,,,,,,,,,,,,,,,,,,,,,,,,,,,,,,,,,,,,,,,,,,,,,,,,,,,,,,,,,,,,,
,,,,,,608097c56d749da02771a81a,62c53a492eda98afddd01cb7,2022-07-06_09h31.32.476,Colour_Asymmetry_Pilot,2022.1.3,Win32,75.0131273,62c50e9c1127f2cd403a315f,0,132,132,138,1,twoone,,,,,,,,,,,,,,,,,,,,,,,,,,,,,,,,,,,,,,,,,,,,,,,,,,,,,,,,,,,,,,,,,,,,,,,,,,,,,,,,,,,,,,,,,,,,,,,,,,,,,,,,,,,,,,,,,,,,,,,,,,,,,,,,,,,,,,,,,,,,,,,,,,,,,,,,,,,,,
,,,,,,608097c56d749da02771a81a,62c53a492eda98afddd01cb7,2022-07-06_09h31.32.476,Colour_Asymmetry_Pilot,2022.1.3,Win32,75.0131273,62c50e9c1127f2cd403a315f,0,133,133,65,1,onethree,,,,,,,,,,,,,,,,,,,,,,,,,,,,,,,,,,,,,,,,,,,,,,,,,,,,,,,,,,,,,,,,,,,,,,,,,,,,,,,,,,,,,,,,,,,,,,,,,,,,,,,,,,,,,,,,,,,,,,,,,,,,,,,,,,,,,,,,,,,,,,,,,,,,,,,,,,,,,
,,,,,,608097c56d749da02771a81a,62c53a492eda98afddd01cb7,2022-07-06_09h31.32.476,Colour_Asymmetry_Pilot,2022.1.3,Win32,75.0131273,62c50e9c1127f2cd403a315f,0,134,134,4,1,threeone,,,,,,,,,,,,,,,,,,,,,,,,,,,,,,,,,,,,,,,,,,,,,,,,,,,,,,,,,,,,,,,,,,,,,,,,,,,,,,,,,,,,,,,,,,,,,,,,,,,,,,,,,,,,,,,,,,,,,,,,,,,,,,,,,,,,,,,,,,,,,,,,,,,,,,,,,,,,,
,,,,,,608097c56d749da02771a81a,62c53a492eda98afddd01cb7,2022-07-06_09h31.32.476,Colour_Asymmetry_Pilot,2022.1.3,Win32,75.0131273,62c50e9c1127f2cd403a315f,0,135,135,7,1,fourthree,,,,,,,,,,,,,,,,,,,,,,,,,,,,,,,,,,,,,,,,,,,,,,,,,,,,,,,,,,,,,,,,,,,,,,,,,,,,,,,,,,,,,,,,,,,,,,,,,,,,,,,,,,,,,,,,,,,,,,,,,,,,,,,,,,,,,,,,,,,,,,,,,,,,,,,,,,,,,
,,,,,,608097c56d749da02771a81a,62c53a492eda98afddd01cb7,2022-07-06_09h31.32.476,Colour_Asymmetry_Pilot,2022.1.3,Win32,75.0131273,62c50e9c1127f2cd403a315f,0,136,136,121,1,onethree,,,,,,,,,,,,,,,,,,,,,,,,,,,,,,,,,,,,,,,,,,,,,,,,,,,,,,,,,,,,,,,,,,,,,,,,,,,,,,,,,,,,,,,,,,,,,,,,,,,,,,,,,,,,,,,,,,,,,,,,,,,,,,,,,,,,,,,,,,,,,,,,,,,,,,,,,,,,,
,,,,,,608097c56d749da02771a81a,62c53a492eda98afddd01cb7,2022-07-06_09h31.32.476,Colour_Asymmetry_Pilot,2022.1.3,Win32,75.0131273,62c50e9c1127f2cd403a315f,0,137,137,81,1,onethree,,,,,,,,,,,,,,,,,,,,,,,,,,,,,,,,,,,,,,,,,,,,,,,,,,,,,,,,,,,,,,,,,,,,,,,,,,,,,,,,,,,,,,,,,,,,,,,,,,,,,,,,,,,,,,,,,,,,,,,,,,,,,,,,,,,,,,,,,,,,,,,,,,,,,,,,,,,,,
,,,,,,608097c56d749da02771a81a,62c53a492eda98afddd01cb7,2022-07-06_09h31.32.476,Colour_Asymmetry_Pilot,2022.1.3,Win32,75.0131273,62c50e9c1127f2cd403a315f,0,138,138,111,1,fourthree,,,,,,,,,,,,,,,,,,,,,,,,,,,,,,,,,,,,,,,,,,,,,,,,,,,,,,,,,,,,,,,,,,,,,,,,,,,,,,,,,,,,,,,,,,,,,,,,,,,,,,,,,,,,,,,,,,,,,,,,,,,,,,,,,,,,,,,,,,,,,,,,,,,,,,,,,,,,,
,,,,,,608097c56d749da02771a81a,62c53a492eda98afddd01cb7,2022-07-06_09h31.32.476,Colour_Asymmetry_Pilot,2022.1.3,Win32,75.0131273,62c50e9c1127f2cd403a315f,0,139,139,144,1,onetwo,,,,,,,,,,,,,,,,,,,,,,,,,,,,,,,,,,,,,,,,,,,,,,,,,,,,,,,,,,,,,,,,,,,,,,,,,,,,,,,,,,,,,,,,,,,,,,,,,,,,,,,,,,,,,,,,,,,,,,,,,,,,,,,,,,,,,,,,,,,,,,,,,,,,,,,,,,,,,
,,,,,,608097c56d749da02771a81a,62c53a492eda98afddd01cb7,2022-07-06_09h31.32.476,Colour_Asymmetry_Pilot,2022.1.3,Win32,75.0131273,62c50e9c1127f2cd403a315f,0,140,140,16,1,onetwo,,,,,,,,,,,,,,,,,,,,,,,,,,,,,,,,,,,,,,,,,,,,,,,,,,,,,,,,,,,,,,,,,,,,,,,,,,,,,,,,,,,,,,,,,,,,,,,,,,,,,,,,,,,,,,,,,,,,,,,,,,,,,,,,,,,,,,,,,,,,,,,,,,,,,,,,,,,,,
,,,,,,608097c56d749da02771a81a,62c53a492eda98afddd01cb7,2022-07-06_09h31.32.476,Colour_Asymmetry_Pilot,2022.1.3,Win32,75.0131273,62c50e9c1127f2cd403a315f,0,141,141,30,1,fourtwo,,,,,,,,,,,,,,,,,,,,,,,,,,,,,,,,,,,,,,,,,,,,,,,,,,,,,,,,,,,,,,,,,,,,,,,,,,,,,,,,,,,,,,,,,,,,,,,,,,,,,,,,,,,,,,,,,,,,,,,,,,,,,,,,,,,,,,,,,,,,,,,,,,,,,,,,,,,,,
,,,,,,608097c56d749da02771a81a,62c53a492eda98afddd01cb7,2022-07-06_09h31.32.476,Colour_Asymmetry_Pilot,2022.1.3,Win32,75.0131273,62c50e9c1127f2cd403a315f,0,142,142,50,1,twoone,,,,,,,,,,,,,,,,,,,,,,,,,,,,,,,,,,,,,,,,,,,,,,,,,,,,,,,,,,,,,,,,,,,,,,,,,,,,,,,,,,,,,,,,,,,,,,,,,,,,,,,,,,,,,,,,,,,,,,,,,,,,,,,,,,,,,,,,,,,,,,,,,,,,,,,,,,,,,
,,,,,,608097c56d749da02771a81a,62c53a492eda98afddd01cb7,2022-07-06_09h31.32.476,Colour_Asymmetry_Pilot,2022.1.3,Win32,75.0131273,62c50e9c1127f2cd403a315f,0,143,143,94,1,fourtwo,,,,,,,,,,,,,,,,,,,,,,,,,,,,,,,,,,,,,,,,,,,,,,,,,,,,,,,,,,,,,,,,,,,,,,,,,,,,,,,,,,,,,,,,,,,,,,,,,,,,,,,,,,,,,,,,,,,,,,,,,,,,,,,,,,,,,,,,,,,,,,,,,,,,,,,,,,,,,
,,,,,,608097c56d749da02771a81a,62c53a492eda98afddd01cb7,2022-07-06_09h31.32.476,Colour_Asymmetry_Pilot,2022.1.3,Win32,75.0131273,62c50e9c1127f2cd403a315f,0,144,144,119,1,fourthree,,,,,,,,,,,,,,,,,,,,,,,,,,,,,,,,,,,,,,,,,,,,,,,,,,,,,,,,,,,,,,,,,,,,,,,,,,,,,,,,,,,,,,,,,,,,,,,,,,,,,,,,,,,,,,,,,,,,,,,,,,,,,,,,,,,,,,,,,,,,,,,,,,,,,,,,,,,,,
,,,,,,608097c56d749da02771a81a,62c53a492eda98afddd01cb7,2022-07-06_09h31.32.476,Colour_Asymmetry_Pilot,2022.1.3,Win32,75.0131273,62c50e9c1127f2cd403a315f,0,145,145,77,1,threefour,,,,,,,,,,,,,,,,,,,,,,,,,,,,,,,,,,,,,,,,,,,,,,,,,,,,,,,,,,,,,,,,,,,,,,,,,,,,,,,,,,,,,,,,,,,,,,,,,,,,,,,,,,,,,,,,,,,,,,,,,,,,,,,,,,,,,,,,,,,,,,,,,,,,,,,,,,,,,
,,,,,,608097c56d749da02771a81a,62c53a492eda98afddd01cb7,2022-07-06_09h31.32.476,Colour_Asymmetry_Pilot,2022.1.3,Win32,75.0131273,62c50e9c1127f2cd403a315f,0,146,146,69,1,threefour,,,,,,,,,,,,,,,,,,,,,,,,,,,,,,,,,,,,,,,,,,,,,,,,,,,,,,,,,,,,,,,,,,,,,,,,,,,,,,,,,,,,,,,,,,,,,,,,,,,,,,,,,,,,,,,,,,,,,,,,,,,,,,,,,,,,,,,,,,,,,,,,,,,,,,,,,,,,,
,,,,,,608097c56d749da02771a81a,62c53a492eda98afddd01cb7,2022-07-06_09h31.32.476,Colour_Asymmetry_Pilot,2022.1.3,Win32,75.0131273,62c50e9c1127f2cd403a315f,0,147,147,21,1,threefour,,,,,,,,,,,,,,,,,,,,,,,,,,,,,,,,,,,,,,,,,,,,,,,,,,,,,,,,,,,,,,,,,,,,,,,,,,,,,,,,,,,,,,,,,,,,,,,,,,,,,,,,,,,,,,,,,,,,,,,,,,,,,,,,,,,,,,,,,,,,,,,,,,,,,,,,,,,,,
,,,,,,608097c56d749da02771a81a,62c53a492eda98afddd01cb7,2022-07-06_09h31.32.476,Colour_Asymmetry_Pilot,2022.1.3,Win32,75.0131273,62c50e9c1127f2cd403a315f,0,148,148,59,1,twofour,,,,,,,,,,,,,,,,,,,,,,,,,,,,,,,,,,,,,,,,,,,,,,,,,,,,,,,,,,,,,,,,,,,,,,,,,,,,,,,,,,,,,,,,,,,,,,,,,,,,,,,,,,,,,,,,,,,,,,,,,,,,,,,,,,,,,,,,,,,,,,,,,,,,,,,,,,,,,
,,,,,,608097c56d749da02771a81a,62c53a492eda98afddd01cb7,2022-07-06_09h31.32.476,Colour_Asymmetry_Pilot,2022.1.3,Win32,75.0131273,62c50e9c1127f2cd403a315f,0,149,149,14,1,fourtwo,,,,,,,,,,,,,,,,,,,,,,,,,,,,,,,,,,,,,,,,,,,,,,,,,,,,,,,,,,,,,,,,,,,,,,,,,,,,,,,,,,,,,,,,,,,,,,,,,,,,,,,,,,,,,,,,,,,,,,,,,,,,,,,,,,,,,,,,,,,,,,,,,,,,,,,,,,,,,
,,,,,,608097c56d749da02771a81a,62c53a492eda98afddd01cb7,2022-07-06_09h31.32.476,Colour_Asymmetry_Pilot,2022.1.3,Win32,75.0131273,62c50e9c1127f2cd403a315f,0,150,150,139,1,twofour,,,,,,,,,,,,,,,,,,,,,,,,,,,,,,,,,,,,,,,,,,,,,,,,,,,,,,,,,,,,,,,,,,,,,,,,,,,,,,,,,,,,,,,,,,,,,,,,,,,,,,,,,,,,,,,,,,,,,,,,,,,,,,,,,,,,,,,,,,,,,,,,,,,,,,,,,,,,,
,,,,,,608097c56d749da02771a81a,62c53a492eda98afddd01cb7,2022-07-06_09h31.32.476,Colour_Asymmetry_Pilot,2022.1.3,Win32,75.0131273,62c50e9c1127f2cd403a315f,0,151,151,101,1,threefour,,,,,,,,,,,,,,,,,,,,,,,,,,,,,,,,,,,,,,,,,,,,,,,,,,,,,,,,,,,,,,,,,,,,,,,,,,,,,,,,,,,,,,,,,,,,,,,,,,,,,,,,,,,,,,,,,,,,,,,,,,,,,,,,,,,,,,,,,,,,,,,,,,,,,,,,,,,,,
,,,,,,608097c56d749da02771a81a,62c53a492eda98afddd01cb7,2022-07-06_09h31.32.476,Colour_Asymmetry_Pilot,2022.1.3,Win32,75.0131273,62c50e9c1127f2cd403a315f,0,152,152,110,1,fourtwo,,,,,,,,,,,,,,,,,,,,,,,,,,,,,,,,,,,,,,,,,,,,,,,,,,,,,,,,,,,,,,,,,,,,,,,,,,,,,,,,,,,,,,,,,,,,,,,,,,,,,,,,,,,,,,,,,,,,,,,,,,,,,,,,,,,,,,,,,,,,,,,,,,,,,,,,,,,,,
,,,,,,608097c56d749da02771a81a,62c53a492eda98afddd01cb7,2022-07-06_09h31.32.476,Colour_Asymmetry_Pilot,2022.1.3,Win32,75.0131273,62c50e9c1127f2cd403a315f,0,153,153,160,1,onetwo,,,,,,,,,,,,,,,,,,,,,,,,,,,,,,,,,,,,,,,,,,,,,,,,,,,,,,,,,,,,,,,,,,,,,,,,,,,,,,,,,,,,,,,,,,,,,,,,,,,,,,,,,,,,,,,,,,,,,,,,,,,,,,,,,,,,,,,,,,,,,,,,,,,,,,,,,,,,,
,,,,,,608097c56d749da02771a81a,62c53a492eda98afddd01cb7,2022-07-06_09h31.32.476,Colour_Asymmetry_Pilot,2022.1.3,Win32,75.0131273,62c50e9c1127f2cd403a315f,0,154,154,135,1,fourthree,,,,,,,,,,,,,,,,,,,,,,,,,,,,,,,,,,,,,,,,,,,,,,,,,,,,,,,,,,,,,,,,,,,,,,,,,,,,,,,,,,,,,,,,,,,,,,,,,,,,,,,,,,,,,,,,,,,,,,,,,,,,,,,,,,,,,,,,,,,,,,,,,,,,,,,,,,,,,
,,,,,,608097c56d749da02771a81a,62c53a492eda98afddd01cb7,2022-07-06_09h31.32.476,Colour_Asymmetry_Pilot,2022.1.3,Win32,75.0131273,62c50e9c1127f2cd403a315f,0,155,155,78,1,fourtwo,,,,,,,,,,,,,,,,,,,,,,,,,,,,,,,,,,,,,,,,,,,,,,,,,,,,,,,,,,,,,,,,,,,,,,,,,,,,,,,,,,,,,,,,,,,,,,,,,,,,,,,,,,,,,,,,,,,,,,,,,,,,,,,,,,,,,,,,,,,,,,,,,,,,,,,,,,,,,
,,,,,,608097c56d749da02771a81a,62c53a492eda98afddd01cb7,2022-07-06_09h31.32.476,Colour_Asymmetry_Pilot,2022.1.3,Win32,75.0131273,62c50e9c1127f2cd403a315f,0,156,156,127,1,fourthree,,,,,,,,,,,,,,,,,,,,,,,,,,,,,,,,,,,,,,,,,,,,,,,,,,,,,,,,,,,,,,,,,,,,,,,,,,,,,,,,,,,,,,,,,,,,,,,,,,,,,,,,,,,,,,,,,,,,,,,,,,,,,,,,,,,,,,,,,,,,,,,,,,,,,,,,,,,,,
,,,,,,608097c56d749da02771a81a,62c53a492eda98afddd01cb7,2022-07-06_09h31.32.476,Colour_Asymmetry_Pilot,2022.1.3,Win32,75.0131273,62c50e9c1127f2cd403a315f,0,157,157,47,1,fourthree,,,,,,,,,,,,,,,,,,,,,,,,,,,,,,,,,,,,,,,,,,,,,,,,,,,,,,,,,,,,,,,,,,,,,,,,,,,,,,,,,,,,,,,,,,,,,,,,,,,,,,,,,,,,,,,,,,,,,,,,,,,,,,,,,,,,,,,,,,,,,,,,,,,,,,,,,,,,,
,,,,,,608097c56d749da02771a81a,62c53a492eda98afddd01cb7,2022-07-06_09h31.32.476,Colour_Asymmetry_Pilot,2022.1.3,Win32,75.0131273,62c50e9c1127f2cd403a315f,0,158,158,33,1,onethree,,,,,,,,,,,,,,,,,,,,,,,,,,,,,,,,,,,,,,,,,,,,,,,,,,,,,,,,,,,,,,,,,,,,,,,,,,,,,,,,,,,,,,,,,,,,,,,,,,,,,,,,,,,,,,,,,,,,,,,,,,,,,,,,,,,,,,,,,,,,,,,,,,,,,,,,,,,,,
,,,,,,608097c56d749da02771a81a,62c53a492eda98afddd01cb7,2022-07-06_09h31.32.476,Colour_Asymmetry_Pilot,2022.1.3,Win32,75.0131273,62c50e9c1127f2cd403a315f,0,159,159,151,1,fourthree,,,,,,,,,,,,,,,,,,,,,,,,,,,,,,,,,,,,,,,,,,,,,,,,,,,,,,,,,,,,,,,,,,,,,,,,,,,,,,,,,,,,,,,,,,,,,,,,,,,,,,,,,,,,,,,,,,,,,,,,,,,,,,,,,,,,,,,,,,,,,,,,,,,,,,,,,,,,,
,,,,,,608097c56d749da02771a81a,62c53a492eda98afddd01cb7,2022-07-06_09h31.32.476,Colour_Asymmetry_Pilot,2022.1.3,Win32,75.0131273,62c50e9c1127f2cd403a315f,0,160,160,126,1,fourtwo,,,,,,,,,,,,,,,,,,,,,,,,,,,,,,,,,,,,,,,,,,,,,,,,,,,,,,,,,,,,,,,,,,,,,,,,,,,,,,,,,,,,,,,,,,,,,,,,,,,,,,,,,,,,,,,,,,,,,,,,,,,,,,,,,,,,,,,,,,,,,,,,,,,,,,,,,,,,,
,,,,,,608097c56d749da02771a81a,62c53a492eda98afddd01cb7,2022-07-06_09h31.32.476,Colour_Asymmetry_Pilot,2022.1.3,Win32,75.0131273,62c50e9c1127f2cd403a315f,0,161,161,42,1,twoone,,,,,,,,,,,,,,,,,,,,,,,,,,,,,,,,,,,,,,,,,,,,,,,,,,,,,,,,,,,,,,,,,,,,,,,,,,,,,,,,,,,,,,,,,,,,,,,,,,,,,,,,,,,,,,,,,,,,,,,,,,,,,,,,,,,,,,,,,,,,,,,,,,,,,,,,,,,,,
,,,,,,608097c56d749da02771a81a,62c53a492eda98afddd01cb7,2022-07-06_09h31.32.476,Colour_Asymmetry_Pilot,2022.1.3,Win32,75.0131273,62c50e9c1127f2cd403a315f,,,,,,,space,2.8216,space,36.9296,space,57.6784,space,10.0086,space,4.2394,space,7.0111,"[0.04299999999999993,0.16060000000000008,-0.6628000000000001]",threefour,"[-0.38039999999999996,-0.4276,-0.1452]",-2,12.2991,-120,-52,1,0,0,response5disk_5,-2,2,1,0,0,rectangle_8,-2,2,1,0,0,1,-2,2,1,0,0,0,0,0,0,1,,,,,,,,,,,,,,,,,,,,,,,,,,,,,,,,,,,,,,,,,,,,,,,,,,,,,,,,,,,,,,,,,,,,,,,,,,,,,,,,,,,,,,,,,,,,,,,,,,,,,,,,,,,,,,,,
,,,,,,608097c56d749da02771a81a,62c53a492eda98afddd01cb7,2022-07-06_09h31.32.476,Colour_Asymmetry_Pilot,2022.1.3,Win32,75.0131273,62c50e9c1127f2cd403a315f,,,,,,,,,,,,,,,,,,,"[-0.30200000000000005,0.14500000000000002,0.2784]",onetwo,"[-0.9688,-0.4902000000000001,-0.12159999999999993]",1,7.4165,68,-104,1,0,0,response3disk_5,-1,4,1,0,0,rectangle_8,-1,4,1,0,0,1,-1,4,1,0,0,1,0,1,0,1,,,,,,,,,,,,,,,,,,,,,,,,,,,,,,,,,,,,,,,,,,,,,,,,,,,,,,,,,,,,,,,,,,,,,,,,,,,,,,,,,,,,,,,,,,,,,,,,,,,,,,,,,,,,,,,,
,,,,,,608097c56d749da02771a81a,62c53a492eda98afddd01cb7,2022-07-06_09h31.32.476,Colour_Asymmetry_Pilot,2022.1.3,Win32,75.0131273,62c50e9c1127f2cd403a315f,,,,,,,,,,,,,,,,,,,"[-0.8198,-0.5138,-0.7492000000000001]",twofour,"[-0.30200000000000005,0.14500000000000002,0.2784]",-3,3.2015,-63,38,1,0,0,response7disk_5,-8,5,1,0,0,rectangle_8,-8,5,1,0,0,1,-8,5,1,0,0,2,0,2,0,1,,,,,,,,,,,,,,,,,,,,,,,,,,,,,,,,,,,,,,,,,,,,,,,,,,,,,,,,,,,,,,,,,,,,,,,,,,,,,,,,,,,,,,,,,,,,,,,,,,,,,,,,,,,,,,,,
,,,,,,608097c56d749da02771a81a,62c53a492eda98afddd01cb7,2022-07-06_09h31.32.476,Colour_Asymmetry_Pilot,2022.1.3,Win32,75.0131273,62c50e9c1127f2cd403a315f,,,,,,,,,,,,,,,,,,,"[-0.07459999999999989,0.12139999999999995,-0.9922]",fourtwo,"[0.9372,0.9450000000000001,0.8980000000000001]",-4,1.2005,-27,81,1,0,0,response7disk_5,-2,-2,1,0,0,rectangle_8,32,-110,1,0,0,1,-1,3,1,0,0,3,0,3,0,1,response3disk_7,4,rectangle_4,,,,,,,,,,,,,,,,,,,,,,,,,,,,,,,,,,,,,,,,,,,,,,,,,,,,,,,,,,,,,,,,,,,,,,,,,,,,,,,,,,,,,,,,,,,,,,,,,,,,,,,,,,,,,
,,,,,,608097c56d749da02771a81a,62c53a492eda98afddd01cb7,2022-07-06_09h31.32.476,Colour_Asymmetry_Pilot,2022.1.3,Win32,75.0131273,62c50e9c1127f2cd403a315f,,,,,,,,,,,,,,,,,,,"[0.23920000000000008,0.2704,0.16060000000000008]",twoone,"[-0.8198,-0.5138,-0.7492000000000001]",-3,1.8416,-76,37,1,0,0,response7disk_5,-1,9,1,0,0,rectangle_8,-1,9,1,0,0,1,-1,9,1,0,0,4,0,4,0,1,,,,,,,,,,,,,,,,,,,,,,,,,,,,,,,,,,,,,,,,,,,,,,,,,,,,,,,,,,,,,,,,,,,,,,,,,,,,,,,,,,,,,,,,,,,,,,,,,,,,,,,,,,,,,,,,
,,,,,,608097c56d749da02771a81a,62c53a492eda98afddd01cb7,2022-07-06_09h31.32.476,Colour_Asymmetry_Pilot,2022.1.3,Win32,75.0131273,62c50e9c1127f2cd403a315f,,,,,,,,,,,,,,,,,,,"[-0.6942,-0.7648,-0.12959999999999994]",twoone,"[0.0351999999999999,0.41159999999999997,0.0038000000000000256]",-4,1.0805,-38,101,1,0,0,response7disk_5,4,-6,1,0,0,rectangle_8,4,-6,1,0,0,1,4,-6,1,0,0,5,0,5,0,1,,,,,,,,,,,,,,,,,,,,,,,,,,,,,,,,,,,,,,,,,,,,,,,,,,,,,,,,,,,,,,,,,,,,,,,,,,,,,,,,,,,,,,,,,,,,,,,,,,,,,,,,,,,,,,,,
,,,,,,608097c56d749da02771a81a,62c53a492eda98afddd01cb7,2022-07-06_09h31.32.476,Colour_Asymmetry_Pilot,2022.1.3,Win32,75.0131273,62c50e9c1127f2cd403a315f,,,,,,,,,,,,,,,,,,,"[0.9763999999999999,0.8588,-0.05900000000000005]",twofour,"[0.9763999999999999,0.8588,-0.05900000000000005]",4,1.7604,51,106,1,0,0,response1disk_5,0,-1,1,0,0,rectangle_8,0,-1,1,0,0,1,0,-1,1,0,0,6,0,6,0,1,,,,,,,,,,,,,,,,,,,,,,,,,,,,,,,,,,,,,,,,,,,,,,,,,,,,,,,,,,,,,,,,,,,,,,,,,,,,,,,,,,,,,,,,,,,,,,,,,,,,,,,,,,,,,,,,
,,,,,,608097c56d749da02771a81a,62c53a492eda98afddd01cb7,2022-07-06_09h31.32.476,Colour_Asymmetry_Pilot,2022.1.3,Win32,75.0131273,62c50e9c1127f2cd403a315f,,,,,,,,,,,,,,,,,,,,onethree,,-4,1.3208,,,,,,,,,,,,,,,,,,,,,,,,,,,,,,,,space,4.7798,"[0.0351999999999999,0.41159999999999997,0.0038000000000000256]","[0.7176,-0.906,-0.6864]",-54,98,1,0,0,response7disk,-3,3,1,0,0,rectangle,-3,3,1,0,0,,3,0.0011,0,-3,3,1,0,0,0,0,0,150,1,69,second,,,,,,,,,,,,,,,,,,,,,,,,,,,,,,,,,,,,,,,,,,,,,,,,,,,,,,,,,,,,,,,,,,,,,,,,
,,,,,,608097c56d749da02771a81a,62c53a492eda98afddd01cb7,2022-07-06_09h31.32.476,Colour_Asymmetry_Pilot,2022.1.3,Win32,75.0131273,62c50e9c1127f2cd403a315f,,,,,,,,,,,,,,,,,,,,onethree,,-4,1.0805,,,,,,,,,,,,,,,,,,,,,,,,,,,,,,,,,,"[-0.9844,-0.9688,-0.9922]","[-0.17659999999999998,0.3253999999999999,0.19999999999999996]",-38,106,1,0,0,response7disk,-2,4,1,0,0,rectangle,-2,4,1,0,0,,2,0.0008,0,-2,4,1,0,0,0,1,1,28,1,28,first,,,,,,,,,,,,,,,,,,,,,,,,,,,,,,,,,,,,,,,,,,,,,,,,,,,,,,,,,,,,,,,,,,,,,,,,
,,,,,,608097c56d749da02771a81a,62c53a492eda98afddd01cb7,2022-07-06_09h31.32.476,Colour_Asymmetry_Pilot,2022.1.3,Win32,75.0131273,62c50e9c1127f2cd403a315f,,,,,,,,,,,,,,,,,,,,threefour,,-4,1.5614,,,,,,,,,,,,,,,,,,,,,,,,,,,,,,,,,,"[-0.09019999999999995,0.44300000000000006,0.5371999999999999]","[-0.2942,-0.7648,-0.7492000000000001]",-53,93,1,0,0,response7disk,-7,3,1,0,0,rectangle,-7,3,1,0,0,,1,0.0007,0,-7,3,1,0,0,0,2,2,146,1,65,second,,,,,,,,,,,,,,,,,,,,,,,,,,,,,,,,,,,,,,,,,,,,,,,,,,,,,,,,,,,,,,,,,,,,,,,,
,,,,,,608097c56d749da02771a81a,62c53a492eda98afddd01cb7,2022-07-06_09h31.32.476,Colour_Asymmetry_Pilot,2022.1.3,Win32,75.0131273,62c50e9c1127f2cd403a315f,,,,,,,,,,,,,,,,,,,,threefour,,-4,0.7337,,,,,,,,,,,,,,,,,,,,,,,,,,,,,,,,,,"[0.9763999999999999,0.8588,-0.05900000000000005]","[-0.4746,-0.0354000000000001,0.5449999999999999]",-39,71,1,0,0,response7disk,-6,-1,1,0,0,rectangle,-6,-1,1,0,0,,3,0.0006,0,-6,-1,1,0,0,0,3,3,13,1,13,first,,,,,,,,,,,,,,,,,,,,,,,,,,,,,,,,,,,,,,,,,,,,,,,,,,,,,,,,,,,,,,,,,,,,,,,,
,,,,,,608097c56d749da02771a81a,62c53a492eda98afddd01cb7,2022-07-06_09h31.32.476,Colour_Asymmetry_Pilot,2022.1.3,Win32,75.0131273,62c50e9c1127f2cd403a315f,,,,,,,,,,,,,,,,,,,,threefour,,-4,1.2938,,,,,,,,,,,,,,,,,,,,,,,,,,,,,,,,,,"[-0.6942,-0.7648,-0.12959999999999994]","[0.40379999999999994,0.09000000000000008,0.44300000000000006]",-53,112,1,0,0,response7disk,-1,1,1,0,0,rectangle,-1,1,1,0,0,,1,0.0006,0,-1,1,1,0,0,0,4,4,52,1,52,first,,,,,,,,,,,,,,,,,,,,,,,,,,,,,,,,,,,,,,,,,,,,,,,,,,,,,,,,,,,,,,,,,,,,,,,,
,,,,,,608097c56d749da02771a81a,62c53a492eda98afddd01cb7,2022-07-06_09h31.32.476,Colour_Asymmetry_Pilot,2022.1.3,Win32,75.0131273,62c50e9c1127f2cd403a315f,,,,,,,,,,,,,,,,,,,,onetwo,,-4,0.6538,,,,,,,,,,,,,,,,,,,,,,,,,,,,,,,,,,"[0.9763999999999999,0.8588,-0.05900000000000005]","[-0.2942,-0.7648,-0.7492000000000001]",-41,79,1,0,0,response7disk,2,4,1,0,0,rectangle,2,4,1,0,0,,2,0.0007,0,2,4,1,0,0,0,5,5,127,1,46,second,,,,,,,,,,,,,,,,,,,,,,,,,,,,,,,,,,,,,,,,,,,,,,,,,,,,,,,,,,,,,,,,,,,,,,,,
,,,,,,608097c56d749da02771a81a,62c53a492eda98afddd01cb7,2022-07-06_09h31.32.476,Colour_Asymmetry_Pilot,2022.1.3,Win32,75.0131273,62c50e9c1127f2cd403a315f,,,,,,,,,,,,,,,,,,,,onetwo,,4,0.8805,,,,,,,,,,,,,,,,,,,,,,,,,,,,,,,,,,"[0.4196,0.4665999999999999,0.3568]","[0.4196,0.4665999999999999,0.3568]",25,157,1,0,0,response1disk,2,1,1,0,0,rectangle,2,1,1,0,0,,3,0.0005,0,2,1,1,0,0,0,6,6,105,1,24,second,,,,,,,,,,,,,,,,,,,,,,,,,,,,,,,,,,,,,,,,,,,,,,,,,,,,,,,,,,,,,,,,,,,,,,,,
,,,,,,608097c56d749da02771a81a,62c53a492eda98afddd01cb7,2022-07-06_09h31.32.476,Colour_Asymmetry_Pilot,2022.1.3,Win32,75.0131273,62c50e9c1127f2cd403a315f,,,,,,,,,,,,,,,,,,,,onethree,,-4,0.5471,,,,,,,,,,,,,,,,,,,,,,,,,,,,,,,,,,"[0.3802000000000001,0.19199999999999995,-0.6394]","[0.9372,0.9450000000000001,0.8980000000000001]",-45,115,1,0,0,response7disk,7,7,1,0,0,rectangle,7,7,1,0,0,,1,0.0004,0,7,7,1,0,0,0,7,7,124,1,43,second,,,,,,,,,,,,,,,,,,,,,,,,,,,,,,,,,,,,,,,,,,,,,,,,,,,,,,,,,,,,,,,,,,,,,,,,
,,,,,,608097c56d749da02771a81a,62c53a492eda98afddd01cb7,2022-07-06_09h31.32.476,Colour_Asymmetry_Pilot,2022.1.3,Win32,75.0131273,62c50e9c1127f2cd403a315f,,,,,,,,,,,,,,,,,,,,fourtwo,,-3,2.6544,,,,,,,,,,,,,,,,,,,,,,,,,,,,,,,,,,"[-0.2942,-0.7648,-0.7492000000000001]","[-0.9844,-0.9688,-0.9922]",-41,29,1,0,0,response7disk,-2,9,1,0,0,rectangle,-2,9,1,0,0,,3,0.0006,0,-2,9,1,0,0,0,8,8,132,1,51,second,,,,,,,,,,,,,,,,,,,,,,,,,,,,,,,,,,,,,,,,,,,,,,,,,,,,,,,,,,,,,,,,,,,,,,,,
,,,,,,608097c56d749da02771a81a,62c53a492eda98afddd01cb7,2022-07-06_09h31.32.476,Colour_Asymmetry_Pilot,2022.1.3,Win32,75.0131273,62c50e9c1127f2cd403a315f,,,,,,,,,,,,,,,,,,,,twoone,,-4,1.2941,,,,,,,,,,,,,,,,,,,,,,,,,,,,,,,,,,"[0.5449999999999999,-0.31000000000000005,-0.0354000000000001]","[-0.0040000000000000036,0.02739999999999987,-0.08239999999999992]",-43,124,1,0,0,response7disk,2,-3,1,0,0,rectangle,2,-3,1,0,0,,2,0.0004,0,2,-3,1,0,0,0,9,9,138,1,57,second,,,,,,,,,,,,,,,,,,,,,,,,,,,,,,,,,,,,,,,,,,,,,,,,,,,,,,,,,,,,,,,,,,,,,,,,
,,,,,,608097c56d749da02771a81a,62c53a492eda98afddd01cb7,2022-07-06_09h31.32.476,Colour_Asymmetry_Pilot,2022.1.3,Win32,75.0131273,62c50e9c1127f2cd403a315f,,,,,,,,,,,,,,,,,,,,onethree,,-4,1.3073,,,,,,,,,,,,,,,,,,,,,,,,,,,,,,,,,,"[0.18419999999999992,-0.4276,-0.404]","[-0.9766,-0.6472,0.07440000000000002]",-63,85,1,0,0,response7disk,-1,-1,1,0,0,rectangle,-1,-1,1,0,0,,1,0.0006,0,-1,-1,1,0,0,0,10,10,27,1,27,first,,,,,,,,,,,,,,,,,,,,,,,,,,,,,,,,,,,,,,,,,,,,,,,,,,,,,,,,,,,,,,,,,,,,,,,,
,,,,,,608097c56d749da02771a81a,62c53a492eda98afddd01cb7,2022-07-06_09h31.32.476,Colour_Asymmetry_Pilot,2022.1.3,Win32,75.0131273,62c50e9c1127f2cd403a315f,,,,,,,,,,,,,,,,,,,,twofour,,-4,0.734,,,,,,,,,,,,,,,,,,,,,,,,,,,,,,,,,,"[-0.9296,-0.12959999999999994,-0.043199999999999905]","[0.9686000000000001,0.3802000000000001,0.19999999999999996]",-28,57,1,0,0,response7disk,-4,11,1,0,0,rectangle,-4,11,1,0,0,,1,0,0,-4,11,1,0,0,0,11,11,143,1,62,second,,,,,,,,,,,,,,,,,,,,,,,,,,,,,,,,,,,,,,,,,,,,,,,,,,,,,,,,,,,,,,,,,,,,,,,,
,,,,,,608097c56d749da02771a81a,62c53a492eda98afddd01cb7,2022-07-06_09h31.32.476,Colour_Asymmetry_Pilot,2022.1.3,Win32,75.0131273,62c50e9c1127f2cd403a315f,,,,,,,,,,,,,,,,,,,,threeone,,-4,0.5327,,,,,,,,,,,,,,,,,,,,,,,,,,,,,,,,,,"[-0.6235999999999999,-0.6786,-0.08239999999999992]","[0.34099999999999997,0.12939999999999996,-0.9766]",-71,91,1,0,0,response7disk,-12,12,1,0,0,rectangle,-12,12,1,0,0,,3,0.0007,0,-12,12,1,0,0,0,12,12,157,1,76,second,,,,,,,,,,,,,,,,,,,,,,,,,,,,,,,,,,,,,,,,,,,,,,,,,,,,,,,,,,,,,,,,,,,,,,,,
,,,,,,608097c56d749da02771a81a,62c53a492eda98afddd01cb7,2022-07-06_09h31.32.476,Colour_Asymmetry_Pilot,2022.1.3,Win32,75.0131273,62c50e9c1127f2cd403a315f,,,,,,,,,,,,,,,,,,,,onetwo,,-3,0.5336,,,,,,,,,,,,,,,,,,,,,,,,,,,,,,,,,,"[-0.20799999999999996,-0.655,-0.01980000000000004]","[0.05879999999999996,0.2784,0.5841999999999998]",-74,39,1,0,0,response7disk,-11,4,1,0,0,rectangle,-11,4,1,0,0,,3,0.0003,0,-11,4,1,0,0,0,13,13,40,1,40,first,,,,,,,,,,,,,,,,,,,,,,,,,,,,,,,,,,,,,,,,,,,,,,,,,,,,,,,,,,,,,,,,,,,,,,,,
,,,,,,608097c56d749da02771a81a,62c53a492eda98afddd01cb7,2022-07-06_09h31.32.476,Colour_Asymmetry_Pilot,2022.1.3,Win32,75.0131273,62c50e9c1127f2cd403a315f,,,,,,,,,,,,,,,,,,,,threeone,,-4,0.3862,,,,,,,,,,,,,,,,,,,,,,,,,,,,,,,,,,"[0.9763999999999999,0.30979999999999985,-0.6786]","[-0.8118,-0.8198,-0.5452]",-56,89,1,0,0,response7disk,-4,3,1,0,0,rectangle,-4,3,1,0,0,,2,0.0005,0,-4,3,1,0,0,0,14,14,42,1,42,first,,,,,,,,,,,,,,,,,,,,,,,,,,,,,,,,,,,,,,,,,,,,,,,,,,,,,,,,,,,,,,,,,,,,,,,,
,,,,,,608097c56d749da02771a81a,62c53a492eda98afddd01cb7,2022-07-06_09h31.32.476,Colour_Asymmetry_Pilot,2022.1.3,Win32,75.0131273,62c50e9c1127f2cd403a315f,,,,,,,,,,,,,,,,,,,,fourtwo,,-4,0.4668,,,,,,,,,,,,,,,,,,,,,,,,,,,,,,,,,,"[-0.06680000000000008,-0.45100000000000007,-0.906]","[0.9372,0.9450000000000001,0.8980000000000001]",-31,58,1,0,0,response7disk,-1,11,1,0,0,rectangle,116,-58,1,0,0,2,2,5.7093,1,5,-4,1,0,0,0,15,15,159,1,78,second,response3disk_3,rectangle,,,,,,,,,,,,,,,,,,,,,,,,,,,,,,,,,,,,,,,,,,,,,,,,,,,,,,,,,,,,,,,,,,,,,,
,,,,,,608097c56d749da02771a81a,62c53a492eda98afddd01cb7,2022-07-06_09h31.32.476,Colour_Asymmetry_Pilot,2022.1.3,Win32,75.0131273,62c50e9c1127f2cd403a315f,,,,,,,,,,,,,,,,,,,,fourthree,,-3,3.148,,,,,,,,,,,,,,,,,,,,,,,,,,,,,,,,,,"[0.9763999999999999,0.8588,-0.05900000000000005]","[-0.17659999999999998,0.3253999999999999,0.19999999999999996]",-121,51,1,0,0,response7disk,5,-4,1,0,0,rectangle,5,-4,1,0,0,2,2,0.0002,0,5,-4,1,0,0,0,16,16,31,1,31,first,,,,,,,,,,,,,,,,,,,,,,,,,,,,,,,,,,,,,,,,,,,,,,,,,,,,,,,,,,,,,,,,,,,,,,,,
,,,,,,608097c56d749da02771a81a,62c53a492eda98afddd01cb7,2022-07-06_09h31.32.476,Colour_Asymmetry_Pilot,2022.1.3,Win32,75.0131273,62c50e9c1127f2cd403a315f,,,,,,,,,,,,,,,,,,,,fourtwo,,-4,1.0137,,,,,,,,,,,,,,,,,,,,,,,,,,,,,,,,,,"[0.9686000000000001,0.5763999999999998,0.11359999999999992]","[-0.6942,-0.7648,-0.12959999999999994]",-56,106,1,0,0,response7disk,5,-1,1,0,0,rectangle,5,-1,1,0,0,2,1,0.0006,0,5,-1,1,0,0,0,17,17,10,1,10,first,,,,,,,,,,,,,,,,,,,,,,,,,,,,,,,,,,,,,,,,,,,,,,,,,,,,,,,,,,,,,,,,,,,,,,,,
