trials.thisRepN,trials.thisTrialN,trials.thisN,trials.thisIndex,trials.ran,Colourcodes,participant,session,date,expName,psychopyVersion,OS,frameRate,study_id,trials_4.thisRepN,trials_4.thisTrialN,trials_4.thisN,trials_4.thisIndex,trials_4.ran,StimulusPos,key_resp.keys,key_resp.rt,key_resp_2.keys,key_resp_2.rt,key_resp_15.keys,key_resp_15.rt,key_resp_17.keys,key_resp_17.rt,key_resp_9.keys,key_resp_9.rt,key_resp_10.keys,key_resp_10.rt,Circle1_col,Ecc,Circle2_col,similarity,response_time,mouse_5.x,mouse_5.y,mouse_5.leftButton,mouse_5.midButton,mouse_5.rightButton,mouse_5.clicked_name,mouse_10.x,mouse_10.y,mouse_10.leftButton,mouse_10.midButton,mouse_10.rightButton,mouse_10.clicked_name,mouse_7.x,mouse_7.y,mouse_7.leftButton,mouse_7.midButton,mouse_7.rightButton,mouse_7.clicked_name,catchprac,catchnumberprac,mouse_6.x,mouse_6.y,mouse_6.leftButton,mouse_6.midButton,mouse_6.rightButton,mouse_6.clicked_name,duringprac.thisRepN,duringprac.thisTrialN,duringprac.thisN,duringprac.thisIndex,duringprac.ran,key_resp_22.keys,key_resp_22.rt,Circle1_colour,Circle2_colour,mouse.x,mouse.y,mouse.leftButton,mouse.midButton,mouse.rightButton,mouse.clicked_name,mouse_2.x,mouse_2.y,mouse_2.leftButton,mouse_2.midButton,mouse_2.rightButton,mouse_2.clicked_name,mouse_3.x,mouse_3.y,mouse_3.leftButton,mouse_3.midButton,mouse_3.rightButton,catchresponse,catchnumber,response_time_catch,Catch,mouse_11.x,mouse_11.y,mouse_11.leftButton,mouse_11.midButton,mouse_11.rightButton,trials_2.thisRepN,trials_2.thisTrialN,trials_2.thisN,trials_2.thisIndex,trials_2.ran,Colourpair,Temporder,mouse_3.clicked_name,mouse_11.clicked_name,trials_3.thisRepN,trials_3.thisTrialN,trials_3.thisN,trials_3.thisIndex,trials_3.ran,key_resp_instr_Ishi.keys,key_resp_instr_Ishi.rt,Ishi_trial_keyresp.keys,Ishi_textbox.text,Ishi_mouse.x,Ishi_mouse.y,Ishi_mouse.leftButton,Ishi_mouse.midButton,Ishi_mouse.rightButton,Ishi_mouse.clicked_name,Ishi_loop.thisRepN,Ishi_loop.thisTrialN,Ishi_loop.thisN,Ishi_loop.thisIndex,Ishi_loop.ran,imageaddress,textbox.text,mouse_4.x,mouse_4.y,mouse_4.leftButton,mouse_4.midButton,mouse_4.rightButton,mouse_4.clicked_name,textbox_2.text,mouse_8.x,mouse_8.y,mouse_8.leftButton,mouse_8.midButton,mouse_8.rightButton,mouse_8.clicked_name,textbox_3.text,mouse_9.x,mouse_9.y,mouse_9.leftButton,mouse_9.midButton,mouse_9.rightButton,mouse_9.clicked_name,textbox_4.text,mouse_12.x,mouse_12.y,mouse_12.leftButton,mouse_12.midButton,mouse_12.rightButton,mouse_12.clicked_name,textbox_5.text,mouse_13.x,mouse_13.y,mouse_13.leftButton,mouse_13.midButton,mouse_13.rightButton,mouse_13.clicked_name,textbox_6.text,mouse_14.x,mouse_14.y,mouse_14.leftButton,mouse_14.midButton,mouse_14.rightButton,textbox_7.text,mouse_15.x,mouse_15.y,mouse_15.leftButton,mouse_15.midButton,mouse_15.rightButton
0,0,0,18,1,,5b77869d338a9300015468cf,62c539ebdcb3a72c0035340a,2022-07-06_03h30.18.788,Colour_Asymmetry_Pilot,2022.1.3,Win32,59.71218726,62c50e9c1127f2cd403a315f,,,,,,,,,,,,,,,,,,,,,,,,,,,,,,,,,,,,,,,,,,,,,,,,,,,,,,,,,,,,,,,,,,,,,,,,,,,,,,,,,,,,,,,,,,,,,,,,,,,,,,,,,,,,,,,,,,,,,,,,,,,,,,,,,,,,,,,,,,,,,,,,,,,,,,,,,,,,,,,,,
0,1,1,42,1,,5b77869d338a9300015468cf,62c539ebdcb3a72c0035340a,2022-07-06_03h30.18.788,Colour_Asymmetry_Pilot,2022.1.3,Win32,59.71218726,62c50e9c1127f2cd403a315f,,,,,,,,,,,,,,,,,,,,,,,,,,,,,,,,,,,,,,,,,,,,,,,,,,,,,,,,,,,,,,,,,,,,,,,,,,,,,,,,,,,,,,,,,,,,,,,,,,,,,,,,,,,,,,,,,,,,,,,,,,,,,,,,,,,,,,,,,,,,,,,,,,,,,,,,,,,,,,,,,
0,2,2,54,1,,5b77869d338a9300015468cf,62c539ebdcb3a72c0035340a,2022-07-06_03h30.18.788,Colour_Asymmetry_Pilot,2022.1.3,Win32,59.71218726,62c50e9c1127f2cd403a315f,,,,,,,,,,,,,,,,,,,,,,,,,,,,,,,,,,,,,,,,,,,,,,,,,,,,,,,,,,,,,,,,,,,,,,,,,,,,,,,,,,,,,,,,,,,,,,,,,,,,,,,,,,,,,,,,,,,,,,,,,,,,,,,,,,,,,,,,,,,,,,,,,,,,,,,,,,,,,,,,,
0,3,3,65,1,,5b77869d338a9300015468cf,62c539ebdcb3a72c0035340a,2022-07-06_03h30.18.788,Colour_Asymmetry_Pilot,2022.1.3,Win32,59.71218726,62c50e9c1127f2cd403a315f,,,,,,,,,,,,,,,,,,,,,,,,,,,,,,,,,,,,,,,,,,,,,,,,,,,,,,,,,,,,,,,,,,,,,,,,,,,,,,,,,,,,,,,,,,,,,,,,,,,,,,,,,,,,,,,,,,,,,,,,,,,,,,,,,,,,,,,,,,,,,,,,,,,,,,,,,,,,,,,,,
0,4,4,34,1,,5b77869d338a9300015468cf,62c539ebdcb3a72c0035340a,2022-07-06_03h30.18.788,Colour_Asymmetry_Pilot,2022.1.3,Win32,59.71218726,62c50e9c1127f2cd403a315f,,,,,,,,,,,,,,,,,,,,,,,,,,,,,,,,,,,,,,,,,,,,,,,,,,,,,,,,,,,,,,,,,,,,,,,,,,,,,,,,,,,,,,,,,,,,,,,,,,,,,,,,,,,,,,,,,,,,,,,,,,,,,,,,,,,,,,,,,,,,,,,,,,,,,,,,,,,,,,,,,
0,5,5,9,1,,5b77869d338a9300015468cf,62c539ebdcb3a72c0035340a,2022-07-06_03h30.18.788,Colour_Asymmetry_Pilot,2022.1.3,Win32,59.71218726,62c50e9c1127f2cd403a315f,,,,,,,,,,,,,,,,,,,,,,,,,,,,,,,,,,,,,,,,,,,,,,,,,,,,,,,,,,,,,,,,,,,,,,,,,,,,,,,,,,,,,,,,,,,,,,,,,,,,,,,,,,,,,,,,,,,,,,,,,,,,,,,,,,,,,,,,,,,,,,,,,,,,,,,,,,,,,,,,,
0,6,6,4,1,,5b77869d338a9300015468cf,62c539ebdcb3a72c0035340a,2022-07-06_03h30.18.788,Colour_Asymmetry_Pilot,2022.1.3,Win32,59.71218726,62c50e9c1127f2cd403a315f,,,,,,,,,,,,,,,,,,,,,,,,,,,,,,,,,,,,,,,,,,,,,,,,,,,,,,,,,,,,,,,,,,,,,,,,,,,,,,,,,,,,,,,,,,,,,,,,,,,,,,,,,,,,,,,,,,,,,,,,,,,,,,,,,,,,,,,,,,,,,,,,,,,,,,,,,,,,,,,,,
0,7,7,49,1,,5b77869d338a9300015468cf,62c539ebdcb3a72c0035340a,2022-07-06_03h30.18.788,Colour_Asymmetry_Pilot,2022.1.3,Win32,59.71218726,62c50e9c1127f2cd403a315f,,,,,,,,,,,,,,,,,,,,,,,,,,,,,,,,,,,,,,,,,,,,,,,,,,,,,,,,,,,,,,,,,,,,,,,,,,,,,,,,,,,,,,,,,,,,,,,,,,,,,,,,,,,,,,,,,,,,,,,,,,,,,,,,,,,,,,,,,,,,,,,,,,,,,,,,,,,,,,,,,
0,8,8,26,1,,5b77869d338a9300015468cf,62c539ebdcb3a72c0035340a,2022-07-06_03h30.18.788,Colour_Asymmetry_Pilot,2022.1.3,Win32,59.71218726,62c50e9c1127f2cd403a315f,,,,,,,,,,,,,,,,,,,,,,,,,,,,,,,,,,,,,,,,,,,,,,,,,,,,,,,,,,,,,,,,,,,,,,,,,,,,,,,,,,,,,,,,,,,,,,,,,,,,,,,,,,,,,,,,,,,,,,,,,,,,,,,,,,,,,,,,,,,,,,,,,,,,,,,,,,,,,,,,,
0,9,9,80,1,,5b77869d338a9300015468cf,62c539ebdcb3a72c0035340a,2022-07-06_03h30.18.788,Colour_Asymmetry_Pilot,2022.1.3,Win32,59.71218726,62c50e9c1127f2cd403a315f,,,,,,,,,,,,,,,,,,,,,,,,,,,,,,,,,,,,,,,,,,,,,,,,,,,,,,,,,,,,,,,,,,,,,,,,,,,,,,,,,,,,,,,,,,,,,,,,,,,,,,,,,,,,,,,,,,,,,,,,,,,,,,,,,,,,,,,,,,,,,,,,,,,,,,,,,,,,,,,,,
0,10,10,88,1,,5b77869d338a9300015468cf,62c539ebdcb3a72c0035340a,2022-07-06_03h30.18.788,Colour_Asymmetry_Pilot,2022.1.3,Win32,59.71218726,62c50e9c1127f2cd403a315f,,,,,,,,,,,,,,,,,,,,,,,,,,,,,,,,,,,,,,,,,,,,,,,,,,,,,,,,,,,,,,,,,,,,,,,,,,,,,,,,,,,,,,,,,,,,,,,,,,,,,,,,,,,,,,,,,,,,,,,,,,,,,,,,,,,,,,,,,,,,,,,,,,,,,,,,,,,,,,,,,
0,11,11,7,1,,5b77869d338a9300015468cf,62c539ebdcb3a72c0035340a,2022-07-06_03h30.18.788,Colour_Asymmetry_Pilot,2022.1.3,Win32,59.71218726,62c50e9c1127f2cd403a315f,,,,,,,,,,,,,,,,,,,,,,,,,,,,,,,,,,,,,,,,,,,,,,,,,,,,,,,,,,,,,,,,,,,,,,,,,,,,,,,,,,,,,,,,,,,,,,,,,,,,,,,,,,,,,,,,,,,,,,,,,,,,,,,,,,,,,,,,,,,,,,,,,,,,,,,,,,,,,,,,,
0,12,12,83,1,,5b77869d338a9300015468cf,62c539ebdcb3a72c0035340a,2022-07-06_03h30.18.788,Colour_Asymmetry_Pilot,2022.1.3,Win32,59.71218726,62c50e9c1127f2cd403a315f,,,,,,,,,,,,,,,,,,,,,,,,,,,,,,,,,,,,,,,,,,,,,,,,,,,,,,,,,,,,,,,,,,,,,,,,,,,,,,,,,,,,,,,,,,,,,,,,,,,,,,,,,,,,,,,,,,,,,,,,,,,,,,,,,,,,,,,,,,,,,,,,,,,,,,,,,,,,,,,,,
0,13,13,37,1,,5b77869d338a9300015468cf,62c539ebdcb3a72c0035340a,2022-07-06_03h30.18.788,Colour_Asymmetry_Pilot,2022.1.3,Win32,59.71218726,62c50e9c1127f2cd403a315f,,,,,,,,,,,,,,,,,,,,,,,,,,,,,,,,,,,,,,,,,,,,,,,,,,,,,,,,,,,,,,,,,,,,,,,,,,,,,,,,,,,,,,,,,,,,,,,,,,,,,,,,,,,,,,,,,,,,,,,,,,,,,,,,,,,,,,,,,,,,,,,,,,,,,,,,,,,,,,,,,
0,14,14,0,1,,5b77869d338a9300015468cf,62c539ebdcb3a72c0035340a,2022-07-06_03h30.18.788,Colour_Asymmetry_Pilot,2022.1.3,Win32,59.71218726,62c50e9c1127f2cd403a315f,,,,,,,,,,,,,,,,,,,,,,,,,,,,,,,,,,,,,,,,,,,,,,,,,,,,,,,,,,,,,,,,,,,,,,,,,,,,,,,,,,,,,,,,,,,,,,,,,,,,,,,,,,,,,,,,,,,,,,,,,,,,,,,,,,,,,,,,,,,,,,,,,,,,,,,,,,,,,,,,,
0,15,15,89,1,,5b77869d338a9300015468cf,62c539ebdcb3a72c0035340a,2022-07-06_03h30.18.788,Colour_Asymmetry_Pilot,2022.1.3,Win32,59.71218726,62c50e9c1127f2cd403a315f,,,,,,,,,,,,,,,,,,,,,,,,,,,,,,,,,,,,,,,,,,,,,,,,,,,,,,,,,,,,,,,,,,,,,,,,,,,,,,,,,,,,,,,,,,,,,,,,,,,,,,,,,,,,,,,,,,,,,,,,,,,,,,,,,,,,,,,,,,,,,,,,,,,,,,,,,,,,,,,,,
0,16,16,44,1,,5b77869d338a9300015468cf,62c539ebdcb3a72c0035340a,2022-07-06_03h30.18.788,Colour_Asymmetry_Pilot,2022.1.3,Win32,59.71218726,62c50e9c1127f2cd403a315f,,,,,,,,,,,,,,,,,,,,,,,,,,,,,,,,,,,,,,,,,,,,,,,,,,,,,,,,,,,,,,,,,,,,,,,,,,,,,,,,,,,,,,,,,,,,,,,,,,,,,,,,,,,,,,,,,,,,,,,,,,,,,,,,,,,,,,,,,,,,,,,,,,,,,,,,,,,,,,,,,
0,17,17,76,1,,5b77869d338a9300015468cf,62c539ebdcb3a72c0035340a,2022-07-06_03h30.18.788,Colour_Asymmetry_Pilot,2022.1.3,Win32,59.71218726,62c50e9c1127f2cd403a315f,,,,,,,,,,,,,,,,,,,,,,,,,,,,,,,,,,,,,,,,,,,,,,,,,,,,,,,,,,,,,,,,,,,,,,,,,,,,,,,,,,,,,,,,,,,,,,,,,,,,,,,,,,,,,,,,,,,,,,,,,,,,,,,,,,,,,,,,,,,,,,,,,,,,,,,,,,,,,,,,,
0,18,18,47,1,,5b77869d338a9300015468cf,62c539ebdcb3a72c0035340a,2022-07-06_03h30.18.788,Colour_Asymmetry_Pilot,2022.1.3,Win32,59.71218726,62c50e9c1127f2cd403a315f,,,,,,,,,,,,,,,,,,,,,,,,,,,,,,,,,,,,,,,,,,,,,,,,,,,,,,,,,,,,,,,,,,,,,,,,,,,,,,,,,,,,,,,,,,,,,,,,,,,,,,,,,,,,,,,,,,,,,,,,,,,,,,,,,,,,,,,,,,,,,,,,,,,,,,,,,,,,,,,,,
0,19,19,11,1,,5b77869d338a9300015468cf,62c539ebdcb3a72c0035340a,2022-07-06_03h30.18.788,Colour_Asymmetry_Pilot,2022.1.3,Win32,59.71218726,62c50e9c1127f2cd403a315f,,,,,,,,,,,,,,,,,,,,,,,,,,,,,,,,,,,,,,,,,,,,,,,,,,,,,,,,,,,,,,,,,,,,,,,,,,,,,,,,,,,,,,,,,,,,,,,,,,,,,,,,,,,,,,,,,,,,,,,,,,,,,,,,,,,,,,,,,,,,,,,,,,,,,,,,,,,,,,,,,
0,20,20,39,1,,5b77869d338a9300015468cf,62c539ebdcb3a72c0035340a,2022-07-06_03h30.18.788,Colour_Asymmetry_Pilot,2022.1.3,Win32,59.71218726,62c50e9c1127f2cd403a315f,,,,,,,,,,,,,,,,,,,,,,,,,,,,,,,,,,,,,,,,,,,,,,,,,,,,,,,,,,,,,,,,,,,,,,,,,,,,,,,,,,,,,,,,,,,,,,,,,,,,,,,,,,,,,,,,,,,,,,,,,,,,,,,,,,,,,,,,,,,,,,,,,,,,,,,,,,,,,,,,,
0,21,21,70,1,,5b77869d338a9300015468cf,62c539ebdcb3a72c0035340a,2022-07-06_03h30.18.788,Colour_Asymmetry_Pilot,2022.1.3,Win32,59.71218726,62c50e9c1127f2cd403a315f,,,,,,,,,,,,,,,,,,,,,,,,,,,,,,,,,,,,,,,,,,,,,,,,,,,,,,,,,,,,,,,,,,,,,,,,,,,,,,,,,,,,,,,,,,,,,,,,,,,,,,,,,,,,,,,,,,,,,,,,,,,,,,,,,,,,,,,,,,,,,,,,,,,,,,,,,,,,,,,,,
0,22,22,50,1,,5b77869d338a9300015468cf,62c539ebdcb3a72c0035340a,2022-07-06_03h30.18.788,Colour_Asymmetry_Pilot,2022.1.3,Win32,59.71218726,62c50e9c1127f2cd403a315f,,,,,,,,,,,,,,,,,,,,,,,,,,,,,,,,,,,,,,,,,,,,,,,,,,,,,,,,,,,,,,,,,,,,,,,,,,,,,,,,,,,,,,,,,,,,,,,,,,,,,,,,,,,,,,,,,,,,,,,,,,,,,,,,,,,,,,,,,,,,,,,,,,,,,,,,,,,,,,,,,
0,23,23,85,1,,5b77869d338a9300015468cf,62c539ebdcb3a72c0035340a,2022-07-06_03h30.18.788,Colour_Asymmetry_Pilot,2022.1.3,Win32,59.71218726,62c50e9c1127f2cd403a315f,,,,,,,,,,,,,,,,,,,,,,,,,,,,,,,,,,,,,,,,,,,,,,,,,,,,,,,,,,,,,,,,,,,,,,,,,,,,,,,,,,,,,,,,,,,,,,,,,,,,,,,,,,,,,,,,,,,,,,,,,,,,,,,,,,,,,,,,,,,,,,,,,,,,,,,,,,,,,,,,,
0,24,24,38,1,,5b77869d338a9300015468cf,62c539ebdcb3a72c0035340a,2022-07-06_03h30.18.788,Colour_Asymmetry_Pilot,2022.1.3,Win32,59.71218726,62c50e9c1127f2cd403a315f,,,,,,,,,,,,,,,,,,,,,,,,,,,,,,,,,,,,,,,,,,,,,,,,,,,,,,,,,,,,,,,,,,,,,,,,,,,,,,,,,,,,,,,,,,,,,,,,,,,,,,,,,,,,,,,,,,,,,,,,,,,,,,,,,,,,,,,,,,,,,,,,,,,,,,,,,,,,,,,,,
0,25,25,79,1,,5b77869d338a9300015468cf,62c539ebdcb3a72c0035340a,2022-07-06_03h30.18.788,Colour_Asymmetry_Pilot,2022.1.3,Win32,59.71218726,62c50e9c1127f2cd403a315f,,,,,,,,,,,,,,,,,,,,,,,,,,,,,,,,,,,,,,,,,,,,,,,,,,,,,,,,,,,,,,,,,,,,,,,,,,,,,,,,,,,,,,,,,,,,,,,,,,,,,,,,,,,,,,,,,,,,,,,,,,,,,,,,,,,,,,,,,,,,,,,,,,,,,,,,,,,,,,,,,
0,26,26,48,1,,5b77869d338a9300015468cf,62c539ebdcb3a72c0035340a,2022-07-06_03h30.18.788,Colour_Asymmetry_Pilot,2022.1.3,Win32,59.71218726,62c50e9c1127f2cd403a315f,,,,,,,,,,,,,,,,,,,,,,,,,,,,,,,,,,,,,,,,,,,,,,,,,,,,,,,,,,,,,,,,,,,,,,,,,,,,,,,,,,,,,,,,,,,,,,,,,,,,,,,,,,,,,,,,,,,,,,,,,,,,,,,,,,,,,,,,,,,,,,,,,,,,,,,,,,,,,,,,,
0,27,27,10,1,,5b77869d338a9300015468cf,62c539ebdcb3a72c0035340a,2022-07-06_03h30.18.788,Colour_Asymmetry_Pilot,2022.1.3,Win32,59.71218726,62c50e9c1127f2cd403a315f,,,,,,,,,,,,,,,,,,,,,,,,,,,,,,,,,,,,,,,,,,,,,,,,,,,,,,,,,,,,,,,,,,,,,,,,,,,,,,,,,,,,,,,,,,,,,,,,,,,,,,,,,,,,,,,,,,,,,,,,,,,,,,,,,,,,,,,,,,,,,,,,,,,,,,,,,,,,,,,,,
0,28,28,32,1,,5b77869d338a9300015468cf,62c539ebdcb3a72c0035340a,2022-07-06_03h30.18.788,Colour_Asymmetry_Pilot,2022.1.3,Win32,59.71218726,62c50e9c1127f2cd403a315f,,,,,,,,,,,,,,,,,,,,,,,,,,,,,,,,,,,,,,,,,,,,,,,,,,,,,,,,,,,,,,,,,,,,,,,,,,,,,,,,,,,,,,,,,,,,,,,,,,,,,,,,,,,,,,,,,,,,,,,,,,,,,,,,,,,,,,,,,,,,,,,,,,,,,,,,,,,,,,,,,
0,29,29,13,1,,5b77869d338a9300015468cf,62c539ebdcb3a72c0035340a,2022-07-06_03h30.18.788,Colour_Asymmetry_Pilot,2022.1.3,Win32,59.71218726,62c50e9c1127f2cd403a315f,,,,,,,,,,,,,,,,,,,,,,,,,,,,,,,,,,,,,,,,,,,,,,,,,,,,,,,,,,,,,,,,,,,,,,,,,,,,,,,,,,,,,,,,,,,,,,,,,,,,,,,,,,,,,,,,,,,,,,,,,,,,,,,,,,,,,,,,,,,,,,,,,,,,,,,,,,,,,,,,,
0,30,30,51,1,,5b77869d338a9300015468cf,62c539ebdcb3a72c0035340a,2022-07-06_03h30.18.788,Colour_Asymmetry_Pilot,2022.1.3,Win32,59.71218726,62c50e9c1127f2cd403a315f,,,,,,,,,,,,,,,,,,,,,,,,,,,,,,,,,,,,,,,,,,,,,,,,,,,,,,,,,,,,,,,,,,,,,,,,,,,,,,,,,,,,,,,,,,,,,,,,,,,,,,,,,,,,,,,,,,,,,,,,,,,,,,,,,,,,,,,,,,,,,,,,,,,,,,,,,,,,,,,,,
0,31,31,30,1,,5b77869d338a9300015468cf,62c539ebdcb3a72c0035340a,2022-07-06_03h30.18.788,Colour_Asymmetry_Pilot,2022.1.3,Win32,59.71218726,62c50e9c1127f2cd403a315f,,,,,,,,,,,,,,,,,,,,,,,,,,,,,,,,,,,,,,,,,,,,,,,,,,,,,,,,,,,,,,,,,,,,,,,,,,,,,,,,,,,,,,,,,,,,,,,,,,,,,,,,,,,,,,,,,,,,,,,,,,,,,,,,,,,,,,,,,,,,,,,,,,,,,,,,,,,,,,,,,
0,32,32,75,1,,5b77869d338a9300015468cf,62c539ebdcb3a72c0035340a,2022-07-06_03h30.18.788,Colour_Asymmetry_Pilot,2022.1.3,Win32,59.71218726,62c50e9c1127f2cd403a315f,,,,,,,,,,,,,,,,,,,,,,,,,,,,,,,,,,,,,,,,,,,,,,,,,,,,,,,,,,,,,,,,,,,,,,,,,,,,,,,,,,,,,,,,,,,,,,,,,,,,,,,,,,,,,,,,,,,,,,,,,,,,,,,,,,,,,,,,,,,,,,,,,,,,,,,,,,,,,,,,,
0,33,33,24,1,,5b77869d338a9300015468cf,62c539ebdcb3a72c0035340a,2022-07-06_03h30.18.788,Colour_Asymmetry_Pilot,2022.1.3,Win32,59.71218726,62c50e9c1127f2cd403a315f,,,,,,,,,,,,,,,,,,,,,,,,,,,,,,,,,,,,,,,,,,,,,,,,,,,,,,,,,,,,,,,,,,,,,,,,,,,,,,,,,,,,,,,,,,,,,,,,,,,,,,,,,,,,,,,,,,,,,,,,,,,,,,,,,,,,,,,,,,,,,,,,,,,,,,,,,,,,,,,,,
0,34,34,31,1,,5b77869d338a9300015468cf,62c539ebdcb3a72c0035340a,2022-07-06_03h30.18.788,Colour_Asymmetry_Pilot,2022.1.3,Win32,59.71218726,62c50e9c1127f2cd403a315f,,,,,,,,,,,,,,,,,,,,,,,,,,,,,,,,,,,,,,,,,,,,,,,,,,,,,,,,,,,,,,,,,,,,,,,,,,,,,,,,,,,,,,,,,,,,,,,,,,,,,,,,,,,,,,,,,,,,,,,,,,,,,,,,,,,,,,,,,,,,,,,,,,,,,,,,,,,,,,,,,
0,35,35,14,1,,5b77869d338a9300015468cf,62c539ebdcb3a72c0035340a,2022-07-06_03h30.18.788,Colour_Asymmetry_Pilot,2022.1.3,Win32,59.71218726,62c50e9c1127f2cd403a315f,,,,,,,,,,,,,,,,,,,,,,,,,,,,,,,,,,,,,,,,,,,,,,,,,,,,,,,,,,,,,,,,,,,,,,,,,,,,,,,,,,,,,,,,,,,,,,,,,,,,,,,,,,,,,,,,,,,,,,,,,,,,,,,,,,,,,,,,,,,,,,,,,,,,,,,,,,,,,,,,,
0,36,36,28,1,,5b77869d338a9300015468cf,62c539ebdcb3a72c0035340a,2022-07-06_03h30.18.788,Colour_Asymmetry_Pilot,2022.1.3,Win32,59.71218726,62c50e9c1127f2cd403a315f,,,,,,,,,,,,,,,,,,,,,,,,,,,,,,,,,,,,,,,,,,,,,,,,,,,,,,,,,,,,,,,,,,,,,,,,,,,,,,,,,,,,,,,,,,,,,,,,,,,,,,,,,,,,,,,,,,,,,,,,,,,,,,,,,,,,,,,,,,,,,,,,,,,,,,,,,,,,,,,,,
0,37,37,36,1,,5b77869d338a9300015468cf,62c539ebdcb3a72c0035340a,2022-07-06_03h30.18.788,Colour_Asymmetry_Pilot,2022.1.3,Win32,59.71218726,62c50e9c1127f2cd403a315f,,,,,,,,,,,,,,,,,,,,,,,,,,,,,,,,,,,,,,,,,,,,,,,,,,,,,,,,,,,,,,,,,,,,,,,,,,,,,,,,,,,,,,,,,,,,,,,,,,,,,,,,,,,,,,,,,,,,,,,,,,,,,,,,,,,,,,,,,,,,,,,,,,,,,,,,,,,,,,,,,
0,38,38,22,1,,5b77869d338a9300015468cf,62c539ebdcb3a72c0035340a,2022-07-06_03h30.18.788,Colour_Asymmetry_Pilot,2022.1.3,Win32,59.71218726,62c50e9c1127f2cd403a315f,,,,,,,,,,,,,,,,,,,,,,,,,,,,,,,,,,,,,,,,,,,,,,,,,,,,,,,,,,,,,,,,,,,,,,,,,,,,,,,,,,,,,,,,,,,,,,,,,,,,,,,,,,,,,,,,,,,,,,,,,,,,,,,,,,,,,,,,,,,,,,,,,,,,,,,,,,,,,,,,,
0,39,39,86,1,,5b77869d338a9300015468cf,62c539ebdcb3a72c0035340a,2022-07-06_03h30.18.788,Colour_Asymmetry_Pilot,2022.1.3,Win32,59.71218726,62c50e9c1127f2cd403a315f,,,,,,,,,,,,,,,,,,,,,,,,,,,,,,,,,,,,,,,,,,,,,,,,,,,,,,,,,,,,,,,,,,,,,,,,,,,,,,,,,,,,,,,,,,,,,,,,,,,,,,,,,,,,,,,,,,,,,,,,,,,,,,,,,,,,,,,,,,,,,,,,,,,,,,,,,,,,,,,,,
0,40,40,5,1,,5b77869d338a9300015468cf,62c539ebdcb3a72c0035340a,2022-07-06_03h30.18.788,Colour_Asymmetry_Pilot,2022.1.3,Win32,59.71218726,62c50e9c1127f2cd403a315f,,,,,,,,,,,,,,,,,,,,,,,,,,,,,,,,,,,,,,,,,,,,,,,,,,,,,,,,,,,,,,,,,,,,,,,,,,,,,,,,,,,,,,,,,,,,,,,,,,,,,,,,,,,,,,,,,,,,,,,,,,,,,,,,,,,,,,,,,,,,,,,,,,,,,,,,,,,,,,,,,
0,41,41,57,1,,5b77869d338a9300015468cf,62c539ebdcb3a72c0035340a,2022-07-06_03h30.18.788,Colour_Asymmetry_Pilot,2022.1.3,Win32,59.71218726,62c50e9c1127f2cd403a315f,,,,,,,,,,,,,,,,,,,,,,,,,,,,,,,,,,,,,,,,,,,,,,,,,,,,,,,,,,,,,,,,,,,,,,,,,,,,,,,,,,,,,,,,,,,,,,,,,,,,,,,,,,,,,,,,,,,,,,,,,,,,,,,,,,,,,,,,,,,,,,,,,,,,,,,,,,,,,,,,,
0,42,42,16,1,,5b77869d338a9300015468cf,62c539ebdcb3a72c0035340a,2022-07-06_03h30.18.788,Colour_Asymmetry_Pilot,2022.1.3,Win32,59.71218726,62c50e9c1127f2cd403a315f,,,,,,,,,,,,,,,,,,,,,,,,,,,,,,,,,,,,,,,,,,,,,,,,,,,,,,,,,,,,,,,,,,,,,,,,,,,,,,,,,,,,,,,,,,,,,,,,,,,,,,,,,,,,,,,,,,,,,,,,,,,,,,,,,,,,,,,,,,,,,,,,,,,,,,,,,,,,,,,,,
0,43,43,74,1,,5b77869d338a9300015468cf,62c539ebdcb3a72c0035340a,2022-07-06_03h30.18.788,Colour_Asymmetry_Pilot,2022.1.3,Win32,59.71218726,62c50e9c1127f2cd403a315f,,,,,,,,,,,,,,,,,,,,,,,,,,,,,,,,,,,,,,,,,,,,,,,,,,,,,,,,,,,,,,,,,,,,,,,,,,,,,,,,,,,,,,,,,,,,,,,,,,,,,,,,,,,,,,,,,,,,,,,,,,,,,,,,,,,,,,,,,,,,,,,,,,,,,,,,,,,,,,,,,
0,44,44,73,1,,5b77869d338a9300015468cf,62c539ebdcb3a72c0035340a,2022-07-06_03h30.18.788,Colour_Asymmetry_Pilot,2022.1.3,Win32,59.71218726,62c50e9c1127f2cd403a315f,,,,,,,,,,,,,,,,,,,,,,,,,,,,,,,,,,,,,,,,,,,,,,,,,,,,,,,,,,,,,,,,,,,,,,,,,,,,,,,,,,,,,,,,,,,,,,,,,,,,,,,,,,,,,,,,,,,,,,,,,,,,,,,,,,,,,,,,,,,,,,,,,,,,,,,,,,,,,,,,,
0,45,45,20,1,,5b77869d338a9300015468cf,62c539ebdcb3a72c0035340a,2022-07-06_03h30.18.788,Colour_Asymmetry_Pilot,2022.1.3,Win32,59.71218726,62c50e9c1127f2cd403a315f,,,,,,,,,,,,,,,,,,,,,,,,,,,,,,,,,,,,,,,,,,,,,,,,,,,,,,,,,,,,,,,,,,,,,,,,,,,,,,,,,,,,,,,,,,,,,,,,,,,,,,,,,,,,,,,,,,,,,,,,,,,,,,,,,,,,,,,,,,,,,,,,,,,,,,,,,,,,,,,,,
0,46,46,46,1,,5b77869d338a9300015468cf,62c539ebdcb3a72c0035340a,2022-07-06_03h30.18.788,Colour_Asymmetry_Pilot,2022.1.3,Win32,59.71218726,62c50e9c1127f2cd403a315f,,,,,,,,,,,,,,,,,,,,,,,,,,,,,,,,,,,,,,,,,,,,,,,,,,,,,,,,,,,,,,,,,,,,,,,,,,,,,,,,,,,,,,,,,,,,,,,,,,,,,,,,,,,,,,,,,,,,,,,,,,,,,,,,,,,,,,,,,,,,,,,,,,,,,,,,,,,,,,,,,
0,47,47,41,1,,5b77869d338a9300015468cf,62c539ebdcb3a72c0035340a,2022-07-06_03h30.18.788,Colour_Asymmetry_Pilot,2022.1.3,Win32,59.71218726,62c50e9c1127f2cd403a315f,,,,,,,,,,,,,,,,,,,,,,,,,,,,,,,,,,,,,,,,,,,,,,,,,,,,,,,,,,,,,,,,,,,,,,,,,,,,,,,,,,,,,,,,,,,,,,,,,,,,,,,,,,,,,,,,,,,,,,,,,,,,,,,,,,,,,,,,,,,,,,,,,,,,,,,,,,,,,,,,,
0,48,48,40,1,,5b77869d338a9300015468cf,62c539ebdcb3a72c0035340a,2022-07-06_03h30.18.788,Colour_Asymmetry_Pilot,2022.1.3,Win32,59.71218726,62c50e9c1127f2cd403a315f,,,,,,,,,,,,,,,,,,,,,,,,,,,,,,,,,,,,,,,,,,,,,,,,,,,,,,,,,,,,,,,,,,,,,,,,,,,,,,,,,,,,,,,,,,,,,,,,,,,,,,,,,,,,,,,,,,,,,,,,,,,,,,,,,,,,,,,,,,,,,,,,,,,,,,,,,,,,,,,,,
0,49,49,71,1,,5b77869d338a9300015468cf,62c539ebdcb3a72c0035340a,2022-07-06_03h30.18.788,Colour_Asymmetry_Pilot,2022.1.3,Win32,59.71218726,62c50e9c1127f2cd403a315f,,,,,,,,,,,,,,,,,,,,,,,,,,,,,,,,,,,,,,,,,,,,,,,,,,,,,,,,,,,,,,,,,,,,,,,,,,,,,,,,,,,,,,,,,,,,,,,,,,,,,,,,,,,,,,,,,,,,,,,,,,,,,,,,,,,,,,,,,,,,,,,,,,,,,,,,,,,,,,,,,
0,50,50,68,1,,5b77869d338a9300015468cf,62c539ebdcb3a72c0035340a,2022-07-06_03h30.18.788,Colour_Asymmetry_Pilot,2022.1.3,Win32,59.71218726,62c50e9c1127f2cd403a315f,,,,,,,,,,,,,,,,,,,,,,,,,,,,,,,,,,,,,,,,,,,,,,,,,,,,,,,,,,,,,,,,,,,,,,,,,,,,,,,,,,,,,,,,,,,,,,,,,,,,,,,,,,,,,,,,,,,,,,,,,,,,,,,,,,,,,,,,,,,,,,,,,,,,,,,,,,,,,,,,,
0,51,51,1,1,,5b77869d338a9300015468cf,62c539ebdcb3a72c0035340a,2022-07-06_03h30.18.788,Colour_Asymmetry_Pilot,2022.1.3,Win32,59.71218726,62c50e9c1127f2cd403a315f,,,,,,,,,,,,,,,,,,,,,,,,,,,,,,,,,,,,,,,,,,,,,,,,,,,,,,,,,,,,,,,,,,,,,,,,,,,,,,,,,,,,,,,,,,,,,,,,,,,,,,,,,,,,,,,,,,,,,,,,,,,,,,,,,,,,,,,,,,,,,,,,,,,,,,,,,,,,,,,,,
0,52,52,8,1,,5b77869d338a9300015468cf,62c539ebdcb3a72c0035340a,2022-07-06_03h30.18.788,Colour_Asymmetry_Pilot,2022.1.3,Win32,59.71218726,62c50e9c1127f2cd403a315f,,,,,,,,,,,,,,,,,,,,,,,,,,,,,,,,,,,,,,,,,,,,,,,,,,,,,,,,,,,,,,,,,,,,,,,,,,,,,,,,,,,,,,,,,,,,,,,,,,,,,,,,,,,,,,,,,,,,,,,,,,,,,,,,,,,,,,,,,,,,,,,,,,,,,,,,,,,,,,,,,
0,53,53,81,1,,5b77869d338a9300015468cf,62c539ebdcb3a72c0035340a,2022-07-06_03h30.18.788,Colour_Asymmetry_Pilot,2022.1.3,Win32,59.71218726,62c50e9c1127f2cd403a315f,,,,,,,,,,,,,,,,,,,,,,,,,,,,,,,,,,,,,,,,,,,,,,,,,,,,,,,,,,,,,,,,,,,,,,,,,,,,,,,,,,,,,,,,,,,,,,,,,,,,,,,,,,,,,,,,,,,,,,,,,,,,,,,,,,,,,,,,,,,,,,,,,,,,,,,,,,,,,,,,,
0,54,54,59,1,,5b77869d338a9300015468cf,62c539ebdcb3a72c0035340a,2022-07-06_03h30.18.788,Colour_Asymmetry_Pilot,2022.1.3,Win32,59.71218726,62c50e9c1127f2cd403a315f,,,,,,,,,,,,,,,,,,,,,,,,,,,,,,,,,,,,,,,,,,,,,,,,,,,,,,,,,,,,,,,,,,,,,,,,,,,,,,,,,,,,,,,,,,,,,,,,,,,,,,,,,,,,,,,,,,,,,,,,,,,,,,,,,,,,,,,,,,,,,,,,,,,,,,,,,,,,,,,,,
0,55,55,45,1,,5b77869d338a9300015468cf,62c539ebdcb3a72c0035340a,2022-07-06_03h30.18.788,Colour_Asymmetry_Pilot,2022.1.3,Win32,59.71218726,62c50e9c1127f2cd403a315f,,,,,,,,,,,,,,,,,,,,,,,,,,,,,,,,,,,,,,,,,,,,,,,,,,,,,,,,,,,,,,,,,,,,,,,,,,,,,,,,,,,,,,,,,,,,,,,,,,,,,,,,,,,,,,,,,,,,,,,,,,,,,,,,,,,,,,,,,,,,,,,,,,,,,,,,,,,,,,,,,
0,56,56,15,1,,5b77869d338a9300015468cf,62c539ebdcb3a72c0035340a,2022-07-06_03h30.18.788,Colour_Asymmetry_Pilot,2022.1.3,Win32,59.71218726,62c50e9c1127f2cd403a315f,,,,,,,,,,,,,,,,,,,,,,,,,,,,,,,,,,,,,,,,,,,,,,,,,,,,,,,,,,,,,,,,,,,,,,,,,,,,,,,,,,,,,,,,,,,,,,,,,,,,,,,,,,,,,,,,,,,,,,,,,,,,,,,,,,,,,,,,,,,,,,,,,,,,,,,,,,,,,,,,,
0,57,57,67,1,,5b77869d338a9300015468cf,62c539ebdcb3a72c0035340a,2022-07-06_03h30.18.788,Colour_Asymmetry_Pilot,2022.1.3,Win32,59.71218726,62c50e9c1127f2cd403a315f,,,,,,,,,,,,,,,,,,,,,,,,,,,,,,,,,,,,,,,,,,,,,,,,,,,,,,,,,,,,,,,,,,,,,,,,,,,,,,,,,,,,,,,,,,,,,,,,,,,,,,,,,,,,,,,,,,,,,,,,,,,,,,,,,,,,,,,,,,,,,,,,,,,,,,,,,,,,,,,,,
0,58,58,29,1,,5b77869d338a9300015468cf,62c539ebdcb3a72c0035340a,2022-07-06_03h30.18.788,Colour_Asymmetry_Pilot,2022.1.3,Win32,59.71218726,62c50e9c1127f2cd403a315f,,,,,,,,,,,,,,,,,,,,,,,,,,,,,,,,,,,,,,,,,,,,,,,,,,,,,,,,,,,,,,,,,,,,,,,,,,,,,,,,,,,,,,,,,,,,,,,,,,,,,,,,,,,,,,,,,,,,,,,,,,,,,,,,,,,,,,,,,,,,,,,,,,,,,,,,,,,,,,,,,
0,59,59,64,1,,5b77869d338a9300015468cf,62c539ebdcb3a72c0035340a,2022-07-06_03h30.18.788,Colour_Asymmetry_Pilot,2022.1.3,Win32,59.71218726,62c50e9c1127f2cd403a315f,,,,,,,,,,,,,,,,,,,,,,,,,,,,,,,,,,,,,,,,,,,,,,,,,,,,,,,,,,,,,,,,,,,,,,,,,,,,,,,,,,,,,,,,,,,,,,,,,,,,,,,,,,,,,,,,,,,,,,,,,,,,,,,,,,,,,,,,,,,,,,,,,,,,,,,,,,,,,,,,,
0,60,60,52,1,,5b77869d338a9300015468cf,62c539ebdcb3a72c0035340a,2022-07-06_03h30.18.788,Colour_Asymmetry_Pilot,2022.1.3,Win32,59.71218726,62c50e9c1127f2cd403a315f,,,,,,,,,,,,,,,,,,,,,,,,,,,,,,,,,,,,,,,,,,,,,,,,,,,,,,,,,,,,,,,,,,,,,,,,,,,,,,,,,,,,,,,,,,,,,,,,,,,,,,,,,,,,,,,,,,,,,,,,,,,,,,,,,,,,,,,,,,,,,,,,,,,,,,,,,,,,,,,,,
0,61,61,91,1,,5b77869d338a9300015468cf,62c539ebdcb3a72c0035340a,2022-07-06_03h30.18.788,Colour_Asymmetry_Pilot,2022.1.3,Win32,59.71218726,62c50e9c1127f2cd403a315f,,,,,,,,,,,,,,,,,,,,,,,,,,,,,,,,,,,,,,,,,,,,,,,,,,,,,,,,,,,,,,,,,,,,,,,,,,,,,,,,,,,,,,,,,,,,,,,,,,,,,,,,,,,,,,,,,,,,,,,,,,,,,,,,,,,,,,,,,,,,,,,,,,,,,,,,,,,,,,,,,
0,62,62,19,1,,5b77869d338a9300015468cf,62c539ebdcb3a72c0035340a,2022-07-06_03h30.18.788,Colour_Asymmetry_Pilot,2022.1.3,Win32,59.71218726,62c50e9c1127f2cd403a315f,,,,,,,,,,,,,,,,,,,,,,,,,,,,,,,,,,,,,,,,,,,,,,,,,,,,,,,,,,,,,,,,,,,,,,,,,,,,,,,,,,,,,,,,,,,,,,,,,,,,,,,,,,,,,,,,,,,,,,,,,,,,,,,,,,,,,,,,,,,,,,,,,,,,,,,,,,,,,,,,,
0,63,63,63,1,,5b77869d338a9300015468cf,62c539ebdcb3a72c0035340a,2022-07-06_03h30.18.788,Colour_Asymmetry_Pilot,2022.1.3,Win32,59.71218726,62c50e9c1127f2cd403a315f,,,,,,,,,,,,,,,,,,,,,,,,,,,,,,,,,,,,,,,,,,,,,,,,,,,,,,,,,,,,,,,,,,,,,,,,,,,,,,,,,,,,,,,,,,,,,,,,,,,,,,,,,,,,,,,,,,,,,,,,,,,,,,,,,,,,,,,,,,,,,,,,,,,,,,,,,,,,,,,,,
0,64,64,21,1,,5b77869d338a9300015468cf,62c539ebdcb3a72c0035340a,2022-07-06_03h30.18.788,Colour_Asymmetry_Pilot,2022.1.3,Win32,59.71218726,62c50e9c1127f2cd403a315f,,,,,,,,,,,,,,,,,,,,,,,,,,,,,,,,,,,,,,,,,,,,,,,,,,,,,,,,,,,,,,,,,,,,,,,,,,,,,,,,,,,,,,,,,,,,,,,,,,,,,,,,,,,,,,,,,,,,,,,,,,,,,,,,,,,,,,,,,,,,,,,,,,,,,,,,,,,,,,,,,
0,65,65,58,1,,5b77869d338a9300015468cf,62c539ebdcb3a72c0035340a,2022-07-06_03h30.18.788,Colour_Asymmetry_Pilot,2022.1.3,Win32,59.71218726,62c50e9c1127f2cd403a315f,,,,,,,,,,,,,,,,,,,,,,,,,,,,,,,,,,,,,,,,,,,,,,,,,,,,,,,,,,,,,,,,,,,,,,,,,,,,,,,,,,,,,,,,,,,,,,,,,,,,,,,,,,,,,,,,,,,,,,,,,,,,,,,,,,,,,,,,,,,,,,,,,,,,,,,,,,,,,,,,,
0,66,66,43,1,,5b77869d338a9300015468cf,62c539ebdcb3a72c0035340a,2022-07-06_03h30.18.788,Colour_Asymmetry_Pilot,2022.1.3,Win32,59.71218726,62c50e9c1127f2cd403a315f,,,,,,,,,,,,,,,,,,,,,,,,,,,,,,,,,,,,,,,,,,,,,,,,,,,,,,,,,,,,,,,,,,,,,,,,,,,,,,,,,,,,,,,,,,,,,,,,,,,,,,,,,,,,,,,,,,,,,,,,,,,,,,,,,,,,,,,,,,,,,,,,,,,,,,,,,,,,,,,,,
0,67,67,6,1,,5b77869d338a9300015468cf,62c539ebdcb3a72c0035340a,2022-07-06_03h30.18.788,Colour_Asymmetry_Pilot,2022.1.3,Win32,59.71218726,62c50e9c1127f2cd403a315f,,,,,,,,,,,,,,,,,,,,,,,,,,,,,,,,,,,,,,,,,,,,,,,,,,,,,,,,,,,,,,,,,,,,,,,,,,,,,,,,,,,,,,,,,,,,,,,,,,,,,,,,,,,,,,,,,,,,,,,,,,,,,,,,,,,,,,,,,,,,,,,,,,,,,,,,,,,,,,,,,
0,68,68,77,1,,5b77869d338a9300015468cf,62c539ebdcb3a72c0035340a,2022-07-06_03h30.18.788,Colour_Asymmetry_Pilot,2022.1.3,Win32,59.71218726,62c50e9c1127f2cd403a315f,,,,,,,,,,,,,,,,,,,,,,,,,,,,,,,,,,,,,,,,,,,,,,,,,,,,,,,,,,,,,,,,,,,,,,,,,,,,,,,,,,,,,,,,,,,,,,,,,,,,,,,,,,,,,,,,,,,,,,,,,,,,,,,,,,,,,,,,,,,,,,,,,,,,,,,,,,,,,,,,,
0,69,69,53,1,,5b77869d338a9300015468cf,62c539ebdcb3a72c0035340a,2022-07-06_03h30.18.788,Colour_Asymmetry_Pilot,2022.1.3,Win32,59.71218726,62c50e9c1127f2cd403a315f,,,,,,,,,,,,,,,,,,,,,,,,,,,,,,,,,,,,,,,,,,,,,,,,,,,,,,,,,,,,,,,,,,,,,,,,,,,,,,,,,,,,,,,,,,,,,,,,,,,,,,,,,,,,,,,,,,,,,,,,,,,,,,,,,,,,,,,,,,,,,,,,,,,,,,,,,,,,,,,,,
0,70,70,84,1,,5b77869d338a9300015468cf,62c539ebdcb3a72c0035340a,2022-07-06_03h30.18.788,Colour_Asymmetry_Pilot,2022.1.3,Win32,59.71218726,62c50e9c1127f2cd403a315f,,,,,,,,,,,,,,,,,,,,,,,,,,,,,,,,,,,,,,,,,,,,,,,,,,,,,,,,,,,,,,,,,,,,,,,,,,,,,,,,,,,,,,,,,,,,,,,,,,,,,,,,,,,,,,,,,,,,,,,,,,,,,,,,,,,,,,,,,,,,,,,,,,,,,,,,,,,,,,,,,
0,71,71,87,1,,5b77869d338a9300015468cf,62c539ebdcb3a72c0035340a,2022-07-06_03h30.18.788,Colour_Asymmetry_Pilot,2022.1.3,Win32,59.71218726,62c50e9c1127f2cd403a315f,,,,,,,,,,,,,,,,,,,,,,,,,,,,,,,,,,,,,,,,,,,,,,,,,,,,,,,,,,,,,,,,,,,,,,,,,,,,,,,,,,,,,,,,,,,,,,,,,,,,,,,,,,,,,,,,,,,,,,,,,,,,,,,,,,,,,,,,,,,,,,,,,,,,,,,,,,,,,,,,,
0,72,72,2,1,,5b77869d338a9300015468cf,62c539ebdcb3a72c0035340a,2022-07-06_03h30.18.788,Colour_Asymmetry_Pilot,2022.1.3,Win32,59.71218726,62c50e9c1127f2cd403a315f,,,,,,,,,,,,,,,,,,,,,,,,,,,,,,,,,,,,,,,,,,,,,,,,,,,,,,,,,,,,,,,,,,,,,,,,,,,,,,,,,,,,,,,,,,,,,,,,,,,,,,,,,,,,,,,,,,,,,,,,,,,,,,,,,,,,,,,,,,,,,,,,,,,,,,,,,,,,,,,,,
0,73,73,66,1,,5b77869d338a9300015468cf,62c539ebdcb3a72c0035340a,2022-07-06_03h30.18.788,Colour_Asymmetry_Pilot,2022.1.3,Win32,59.71218726,62c50e9c1127f2cd403a315f,,,,,,,,,,,,,,,,,,,,,,,,,,,,,,,,,,,,,,,,,,,,,,,,,,,,,,,,,,,,,,,,,,,,,,,,,,,,,,,,,,,,,,,,,,,,,,,,,,,,,,,,,,,,,,,,,,,,,,,,,,,,,,,,,,,,,,,,,,,,,,,,,,,,,,,,,,,,,,,,,
0,74,74,17,1,,5b77869d338a9300015468cf,62c539ebdcb3a72c0035340a,2022-07-06_03h30.18.788,Colour_Asymmetry_Pilot,2022.1.3,Win32,59.71218726,62c50e9c1127f2cd403a315f,,,,,,,,,,,,,,,,,,,,,,,,,,,,,,,,,,,,,,,,,,,,,,,,,,,,,,,,,,,,,,,,,,,,,,,,,,,,,,,,,,,,,,,,,,,,,,,,,,,,,,,,,,,,,,,,,,,,,,,,,,,,,,,,,,,,,,,,,,,,,,,,,,,,,,,,,,,,,,,,,
0,75,75,56,1,,5b77869d338a9300015468cf,62c539ebdcb3a72c0035340a,2022-07-06_03h30.18.788,Colour_Asymmetry_Pilot,2022.1.3,Win32,59.71218726,62c50e9c1127f2cd403a315f,,,,,,,,,,,,,,,,,,,,,,,,,,,,,,,,,,,,,,,,,,,,,,,,,,,,,,,,,,,,,,,,,,,,,,,,,,,,,,,,,,,,,,,,,,,,,,,,,,,,,,,,,,,,,,,,,,,,,,,,,,,,,,,,,,,,,,,,,,,,,,,,,,,,,,,,,,,,,,,,,
0,76,76,60,1,,5b77869d338a9300015468cf,62c539ebdcb3a72c0035340a,2022-07-06_03h30.18.788,Colour_Asymmetry_Pilot,2022.1.3,Win32,59.71218726,62c50e9c1127f2cd403a315f,,,,,,,,,,,,,,,,,,,,,,,,,,,,,,,,,,,,,,,,,,,,,,,,,,,,,,,,,,,,,,,,,,,,,,,,,,,,,,,,,,,,,,,,,,,,,,,,,,,,,,,,,,,,,,,,,,,,,,,,,,,,,,,,,,,,,,,,,,,,,,,,,,,,,,,,,,,,,,,,,
0,77,77,27,1,,5b77869d338a9300015468cf,62c539ebdcb3a72c0035340a,2022-07-06_03h30.18.788,Colour_Asymmetry_Pilot,2022.1.3,Win32,59.71218726,62c50e9c1127f2cd403a315f,,,,,,,,,,,,,,,,,,,,,,,,,,,,,,,,,,,,,,,,,,,,,,,,,,,,,,,,,,,,,,,,,,,,,,,,,,,,,,,,,,,,,,,,,,,,,,,,,,,,,,,,,,,,,,,,,,,,,,,,,,,,,,,,,,,,,,,,,,,,,,,,,,,,,,,,,,,,,,,,,
0,78,78,90,1,,5b77869d338a9300015468cf,62c539ebdcb3a72c0035340a,2022-07-06_03h30.18.788,Colour_Asymmetry_Pilot,2022.1.3,Win32,59.71218726,62c50e9c1127f2cd403a315f,,,,,,,,,,,,,,,,,,,,,,,,,,,,,,,,,,,,,,,,,,,,,,,,,,,,,,,,,,,,,,,,,,,,,,,,,,,,,,,,,,,,,,,,,,,,,,,,,,,,,,,,,,,,,,,,,,,,,,,,,,,,,,,,,,,,,,,,,,,,,,,,,,,,,,,,,,,,,,,,,
0,79,79,72,1,,5b77869d338a9300015468cf,62c539ebdcb3a72c0035340a,2022-07-06_03h30.18.788,Colour_Asymmetry_Pilot,2022.1.3,Win32,59.71218726,62c50e9c1127f2cd403a315f,,,,,,,,,,,,,,,,,,,,,,,,,,,,,,,,,,,,,,,,,,,,,,,,,,,,,,,,,,,,,,,,,,,,,,,,,,,,,,,,,,,,,,,,,,,,,,,,,,,,,,,,,,,,,,,,,,,,,,,,,,,,,,,,,,,,,,,,,,,,,,,,,,,,,,,,,,,,,,,,,
0,80,80,25,1,,5b77869d338a9300015468cf,62c539ebdcb3a72c0035340a,2022-07-06_03h30.18.788,Colour_Asymmetry_Pilot,2022.1.3,Win32,59.71218726,62c50e9c1127f2cd403a315f,,,,,,,,,,,,,,,,,,,,,,,,,,,,,,,,,,,,,,,,,,,,,,,,,,,,,,,,,,,,,,,,,,,,,,,,,,,,,,,,,,,,,,,,,,,,,,,,,,,,,,,,,,,,,,,,,,,,,,,,,,,,,,,,,,,,,,,,,,,,,,,,,,,,,,,,,,,,,,,,,
0,81,81,3,1,,5b77869d338a9300015468cf,62c539ebdcb3a72c0035340a,2022-07-06_03h30.18.788,Colour_Asymmetry_Pilot,2022.1.3,Win32,59.71218726,62c50e9c1127f2cd403a315f,,,,,,,,,,,,,,,,,,,,,,,,,,,,,,,,,,,,,,,,,,,,,,,,,,,,,,,,,,,,,,,,,,,,,,,,,,,,,,,,,,,,,,,,,,,,,,,,,,,,,,,,,,,,,,,,,,,,,,,,,,,,,,,,,,,,,,,,,,,,,,,,,,,,,,,,,,,,,,,,,
0,82,82,23,1,,5b77869d338a9300015468cf,62c539ebdcb3a72c0035340a,2022-07-06_03h30.18.788,Colour_Asymmetry_Pilot,2022.1.3,Win32,59.71218726,62c50e9c1127f2cd403a315f,,,,,,,,,,,,,,,,,,,,,,,,,,,,,,,,,,,,,,,,,,,,,,,,,,,,,,,,,,,,,,,,,,,,,,,,,,,,,,,,,,,,,,,,,,,,,,,,,,,,,,,,,,,,,,,,,,,,,,,,,,,,,,,,,,,,,,,,,,,,,,,,,,,,,,,,,,,,,,,,,
0,83,83,78,1,,5b77869d338a9300015468cf,62c539ebdcb3a72c0035340a,2022-07-06_03h30.18.788,Colour_Asymmetry_Pilot,2022.1.3,Win32,59.71218726,62c50e9c1127f2cd403a315f,,,,,,,,,,,,,,,,,,,,,,,,,,,,,,,,,,,,,,,,,,,,,,,,,,,,,,,,,,,,,,,,,,,,,,,,,,,,,,,,,,,,,,,,,,,,,,,,,,,,,,,,,,,,,,,,,,,,,,,,,,,,,,,,,,,,,,,,,,,,,,,,,,,,,,,,,,,,,,,,,
0,84,84,82,1,,5b77869d338a9300015468cf,62c539ebdcb3a72c0035340a,2022-07-06_03h30.18.788,Colour_Asymmetry_Pilot,2022.1.3,Win32,59.71218726,62c50e9c1127f2cd403a315f,,,,,,,,,,,,,,,,,,,,,,,,,,,,,,,,,,,,,,,,,,,,,,,,,,,,,,,,,,,,,,,,,,,,,,,,,,,,,,,,,,,,,,,,,,,,,,,,,,,,,,,,,,,,,,,,,,,,,,,,,,,,,,,,,,,,,,,,,,,,,,,,,,,,,,,,,,,,,,,,,
0,85,85,69,1,,5b77869d338a9300015468cf,62c539ebdcb3a72c0035340a,2022-07-06_03h30.18.788,Colour_Asymmetry_Pilot,2022.1.3,Win32,59.71218726,62c50e9c1127f2cd403a315f,,,,,,,,,,,,,,,,,,,,,,,,,,,,,,,,,,,,,,,,,,,,,,,,,,,,,,,,,,,,,,,,,,,,,,,,,,,,,,,,,,,,,,,,,,,,,,,,,,,,,,,,,,,,,,,,,,,,,,,,,,,,,,,,,,,,,,,,,,,,,,,,,,,,,,,,,,,,,,,,,
0,86,86,33,1,,5b77869d338a9300015468cf,62c539ebdcb3a72c0035340a,2022-07-06_03h30.18.788,Colour_Asymmetry_Pilot,2022.1.3,Win32,59.71218726,62c50e9c1127f2cd403a315f,,,,,,,,,,,,,,,,,,,,,,,,,,,,,,,,,,,,,,,,,,,,,,,,,,,,,,,,,,,,,,,,,,,,,,,,,,,,,,,,,,,,,,,,,,,,,,,,,,,,,,,,,,,,,,,,,,,,,,,,,,,,,,,,,,,,,,,,,,,,,,,,,,,,,,,,,,,,,,,,,
0,87,87,62,1,,5b77869d338a9300015468cf,62c539ebdcb3a72c0035340a,2022-07-06_03h30.18.788,Colour_Asymmetry_Pilot,2022.1.3,Win32,59.71218726,62c50e9c1127f2cd403a315f,,,,,,,,,,,,,,,,,,,,,,,,,,,,,,,,,,,,,,,,,,,,,,,,,,,,,,,,,,,,,,,,,,,,,,,,,,,,,,,,,,,,,,,,,,,,,,,,,,,,,,,,,,,,,,,,,,,,,,,,,,,,,,,,,,,,,,,,,,,,,,,,,,,,,,,,,,,,,,,,,
0,88,88,12,1,,5b77869d338a9300015468cf,62c539ebdcb3a72c0035340a,2022-07-06_03h30.18.788,Colour_Asymmetry_Pilot,2022.1.3,Win32,59.71218726,62c50e9c1127f2cd403a315f,,,,,,,,,,,,,,,,,,,,,,,,,,,,,,,,,,,,,,,,,,,,,,,,,,,,,,,,,,,,,,,,,,,,,,,,,,,,,,,,,,,,,,,,,,,,,,,,,,,,,,,,,,,,,,,,,,,,,,,,,,,,,,,,,,,,,,,,,,,,,,,,,,,,,,,,,,,,,,,,,
0,89,89,55,1,,5b77869d338a9300015468cf,62c539ebdcb3a72c0035340a,2022-07-06_03h30.18.788,Colour_Asymmetry_Pilot,2022.1.3,Win32,59.71218726,62c50e9c1127f2cd403a315f,,,,,,,,,,,,,,,,,,,,,,,,,,,,,,,,,,,,,,,,,,,,,,,,,,,,,,,,,,,,,,,,,,,,,,,,,,,,,,,,,,,,,,,,,,,,,,,,,,,,,,,,,,,,,,,,,,,,,,,,,,,,,,,,,,,,,,,,,,,,,,,,,,,,,,,,,,,,,,,,,
0,90,90,35,1,,5b77869d338a9300015468cf,62c539ebdcb3a72c0035340a,2022-07-06_03h30.18.788,Colour_Asymmetry_Pilot,2022.1.3,Win32,59.71218726,62c50e9c1127f2cd403a315f,,,,,,,,,,,,,,,,,,,,,,,,,,,,,,,,,,,,,,,,,,,,,,,,,,,,,,,,,,,,,,,,,,,,,,,,,,,,,,,,,,,,,,,,,,,,,,,,,,,,,,,,,,,,,,,,,,,,,,,,,,,,,,,,,,,,,,,,,,,,,,,,,,,,,,,,,,,,,,,,,
0,91,91,61,1,,5b77869d338a9300015468cf,62c539ebdcb3a72c0035340a,2022-07-06_03h30.18.788,Colour_Asymmetry_Pilot,2022.1.3,Win32,59.71218726,62c50e9c1127f2cd403a315f,,,,,,,,,,,,,,,,,,,,,,,,,,,,,,,,,,,,,,,,,,,,,,,,,,,,,,,,,,,,,,,,,,,,,,,,,,,,,,,,,,,,,,,,,,,,,,,,,,,,,,,,,,,,,,,,,,,,,,,,,,,,,,,,,,,,,,,,,,,,,,,,,,,,,,,,,,,,,,,,,
0,92,92,92,1,,5b77869d338a9300015468cf,62c539ebdcb3a72c0035340a,2022-07-06_03h30.18.788,Colour_Asymmetry_Pilot,2022.1.3,Win32,59.71218726,62c50e9c1127f2cd403a315f,,,,,,,,,,,,,,,,,,,,,,,,,,,,,,,,,,,,,,,,,,,,,,,,,,,,,,,,,,,,,,,,,,,,,,,,,,,,,,,,,,,,,,,,,,,,,,,,,,,,,,,,,,,,,,,,,,,,,,,,,,,,,,,,,,,,,,,,,,,,,,,,,,,,,,,,,,,,,,,,,
,,,,,,5b77869d338a9300015468cf,62c539ebdcb3a72c0035340a,2022-07-06_03h30.18.788,Colour_Asymmetry_Pilot,2022.1.3,Win32,59.71218726,62c50e9c1127f2cd403a315f,0,0,0,136,1,onetwo,,,,,,,,,,,,,,,,,,,,,,,,,,,,,,,,,,,,,,,,,,,,,,,,,,,,,,,,,,,,,,,,,,,,,,,,,,,,,,,,,,,,,,,,,,,,,,,,,,,,,,,,,,,,,,,,,,,,,,,,,,,,,,,,,,,,,,,,,,,,,,,,,,,,,,,,,,,
,,,,,,5b77869d338a9300015468cf,62c539ebdcb3a72c0035340a,2022-07-06_03h30.18.788,Colour_Asymmetry_Pilot,2022.1.3,Win32,59.71218726,62c50e9c1127f2cd403a315f,0,1,1,154,1,twoone,,,,,,,,,,,,,,,,,,,,,,,,,,,,,,,,,,,,,,,,,,,,,,,,,,,,,,,,,,,,,,,,,,,,,,,,,,,,,,,,,,,,,,,,,,,,,,,,,,,,,,,,,,,,,,,,,,,,,,,,,,,,,,,,,,,,,,,,,,,,,,,,,,,,,,,,,,,
,,,,,,5b77869d338a9300015468cf,62c539ebdcb3a72c0035340a,2022-07-06_03h30.18.788,Colour_Asymmetry_Pilot,2022.1.3,Win32,59.71218726,62c50e9c1127f2cd403a315f,0,2,2,133,1,threefour,,,,,,,,,,,,,,,,,,,,,,,,,,,,,,,,,,,,,,,,,,,,,,,,,,,,,,,,,,,,,,,,,,,,,,,,,,,,,,,,,,,,,,,,,,,,,,,,,,,,,,,,,,,,,,,,,,,,,,,,,,,,,,,,,,,,,,,,,,,,,,,,,,,,,,,,,,,
,,,,,,5b77869d338a9300015468cf,62c539ebdcb3a72c0035340a,2022-07-06_03h30.18.788,Colour_Asymmetry_Pilot,2022.1.3,Win32,59.71218726,62c50e9c1127f2cd403a315f,0,3,3,22,1,fourtwo,,,,,,,,,,,,,,,,,,,,,,,,,,,,,,,,,,,,,,,,,,,,,,,,,,,,,,,,,,,,,,,,,,,,,,,,,,,,,,,,,,,,,,,,,,,,,,,,,,,,,,,,,,,,,,,,,,,,,,,,,,,,,,,,,,,,,,,,,,,,,,,,,,,,,,,,,,,
,,,,,,5b77869d338a9300015468cf,62c539ebdcb3a72c0035340a,2022-07-06_03h30.18.788,Colour_Asymmetry_Pilot,2022.1.3,Win32,59.71218726,62c50e9c1127f2cd403a315f,0,4,4,6,1,fourtwo,,,,,,,,,,,,,,,,,,,,,,,,,,,,,,,,,,,,,,,,,,,,,,,,,,,,,,,,,,,,,,,,,,,,,,,,,,,,,,,,,,,,,,,,,,,,,,,,,,,,,,,,,,,,,,,,,,,,,,,,,,,,,,,,,,,,,,,,,,,,,,,,,,,,,,,,,,,
,,,,,,5b77869d338a9300015468cf,62c539ebdcb3a72c0035340a,2022-07-06_03h30.18.788,Colour_Asymmetry_Pilot,2022.1.3,Win32,59.71218726,62c50e9c1127f2cd403a315f,0,5,5,119,1,fourthree,,,,,,,,,,,,,,,,,,,,,,,,,,,,,,,,,,,,,,,,,,,,,,,,,,,,,,,,,,,,,,,,,,,,,,,,,,,,,,,,,,,,,,,,,,,,,,,,,,,,,,,,,,,,,,,,,,,,,,,,,,,,,,,,,,,,,,,,,,,,,,,,,,,,,,,,,,,
,,,,,,5b77869d338a9300015468cf,62c539ebdcb3a72c0035340a,2022-07-06_03h30.18.788,Colour_Asymmetry_Pilot,2022.1.3,Win32,59.71218726,62c50e9c1127f2cd403a315f,0,6,6,153,1,onethree,,,,,,,,,,,,,,,,,,,,,,,,,,,,,,,,,,,,,,,,,,,,,,,,,,,,,,,,,,,,,,,,,,,,,,,,,,,,,,,,,,,,,,,,,,,,,,,,,,,,,,,,,,,,,,,,,,,,,,,,,,,,,,,,,,,,,,,,,,,,,,,,,,,,,,,,,,,
,,,,,,5b77869d338a9300015468cf,62c539ebdcb3a72c0035340a,2022-07-06_03h30.18.788,Colour_Asymmetry_Pilot,2022.1.3,Win32,59.71218726,62c50e9c1127f2cd403a315f,0,7,7,122,1,twoone,,,,,,,,,,,,,,,,,,,,,,,,,,,,,,,,,,,,,,,,,,,,,,,,,,,,,,,,,,,,,,,,,,,,,,,,,,,,,,,,,,,,,,,,,,,,,,,,,,,,,,,,,,,,,,,,,,,,,,,,,,,,,,,,,,,,,,,,,,,,,,,,,,,,,,,,,,,
,,,,,,5b77869d338a9300015468cf,62c539ebdcb3a72c0035340a,2022-07-06_03h30.18.788,Colour_Asymmetry_Pilot,2022.1.3,Win32,59.71218726,62c50e9c1127f2cd403a315f,0,8,8,161,1,onethree,,,,,,,,,,,,,,,,,,,,,,,,,,,,,,,,,,,,,,,,,,,,,,,,,,,,,,,,,,,,,,,,,,,,,,,,,,,,,,,,,,,,,,,,,,,,,,,,,,,,,,,,,,,,,,,,,,,,,,,,,,,,,,,,,,,,,,,,,,,,,,,,,,,,,,,,,,,
,,,,,,5b77869d338a9300015468cf,62c539ebdcb3a72c0035340a,2022-07-06_03h30.18.788,Colour_Asymmetry_Pilot,2022.1.3,Win32,59.71218726,62c50e9c1127f2cd403a315f,0,9,9,147,1,twofour,,,,,,,,,,,,,,,,,,,,,,,,,,,,,,,,,,,,,,,,,,,,,,,,,,,,,,,,,,,,,,,,,,,,,,,,,,,,,,,,,,,,,,,,,,,,,,,,,,,,,,,,,,,,,,,,,,,,,,,,,,,,,,,,,,,,,,,,,,,,,,,,,,,,,,,,,,,
,,,,,,5b77869d338a9300015468cf,62c539ebdcb3a72c0035340a,2022-07-06_03h30.18.788,Colour_Asymmetry_Pilot,2022.1.3,Win32,59.71218726,62c50e9c1127f2cd403a315f,0,10,10,114,1,twoone,,,,,,,,,,,,,,,,,,,,,,,,,,,,,,,,,,,,,,,,,,,,,,,,,,,,,,,,,,,,,,,,,,,,,,,,,,,,,,,,,,,,,,,,,,,,,,,,,,,,,,,,,,,,,,,,,,,,,,,,,,,,,,,,,,,,,,,,,,,,,,,,,,,,,,,,,,,
,,,,,,5b77869d338a9300015468cf,62c539ebdcb3a72c0035340a,2022-07-06_03h30.18.788,Colour_Asymmetry_Pilot,2022.1.3,Win32,59.71218726,62c50e9c1127f2cd403a315f,0,11,11,74,1,twoone,,,,,,,,,,,,,,,,,,,,,,,,,,,,,,,,,,,,,,,,,,,,,,,,,,,,,,,,,,,,,,,,,,,,,,,,,,,,,,,,,,,,,,,,,,,,,,,,,,,,,,,,,,,,,,,,,,,,,,,,,,,,,,,,,,,,,,,,,,,,,,,,,,,,,,,,,,,
,,,,,,5b77869d338a9300015468cf,62c539ebdcb3a72c0035340a,2022-07-06_03h30.18.788,Colour_Asymmetry_Pilot,2022.1.3,Win32,59.71218726,62c50e9c1127f2cd403a315f,0,12,12,150,1,fourtwo,,,,,,,,,,,,,,,,,,,,,,,,,,,,,,,,,,,,,,,,,,,,,,,,,,,,,,,,,,,,,,,,,,,,,,,,,,,,,,,,,,,,,,,,,,,,,,,,,,,,,,,,,,,,,,,,,,,,,,,,,,,,,,,,,,,,,,,,,,,,,,,,,,,,,,,,,,,
,,,,,,5b77869d338a9300015468cf,62c539ebdcb3a72c0035340a,2022-07-06_03h30.18.788,Colour_Asymmetry_Pilot,2022.1.3,Win32,59.71218726,62c50e9c1127f2cd403a315f,0,13,13,140,1,threeone,,,,,,,,,,,,,,,,,,,,,,,,,,,,,,,,,,,,,,,,,,,,,,,,,,,,,,,,,,,,,,,,,,,,,,,,,,,,,,,,,,,,,,,,,,,,,,,,,,,,,,,,,,,,,,,,,,,,,,,,,,,,,,,,,,,,,,,,,,,,,,,,,,,,,,,,,,,
,,,,,,5b77869d338a9300015468cf,62c539ebdcb3a72c0035340a,2022-07-06_03h30.18.788,Colour_Asymmetry_Pilot,2022.1.3,Win32,59.71218726,62c50e9c1127f2cd403a315f,0,14,14,62,1,fourtwo,,,,,,,,,,,,,,,,,,,,,,,,,,,,,,,,,,,,,,,,,,,,,,,,,,,,,,,,,,,,,,,,,,,,,,,,,,,,,,,,,,,,,,,,,,,,,,,,,,,,,,,,,,,,,,,,,,,,,,,,,,,,,,,,,,,,,,,,,,,,,,,,,,,,,,,,,,,
,,,,,,5b77869d338a9300015468cf,62c539ebdcb3a72c0035340a,2022-07-06_03h30.18.788,Colour_Asymmetry_Pilot,2022.1.3,Win32,59.71218726,62c50e9c1127f2cd403a315f,0,15,15,123,1,twofour,,,,,,,,,,,,,,,,,,,,,,,,,,,,,,,,,,,,,,,,,,,,,,,,,,,,,,,,,,,,,,,,,,,,,,,,,,,,,,,,,,,,,,,,,,,,,,,,,,,,,,,,,,,,,,,,,,,,,,,,,,,,,,,,,,,,,,,,,,,,,,,,,,,,,,,,,,,
,,,,,,5b77869d338a9300015468cf,62c539ebdcb3a72c0035340a,2022-07-06_03h30.18.788,Colour_Asymmetry_Pilot,2022.1.3,Win32,59.71218726,62c50e9c1127f2cd403a315f,0,16,16,109,1,threefour,,,,,,,,,,,,,,,,,,,,,,,,,,,,,,,,,,,,,,,,,,,,,,,,,,,,,,,,,,,,,,,,,,,,,,,,,,,,,,,,,,,,,,,,,,,,,,,,,,,,,,,,,,,,,,,,,,,,,,,,,,,,,,,,,,,,,,,,,,,,,,,,,,,,,,,,,,,
,,,,,,5b77869d338a9300015468cf,62c539ebdcb3a72c0035340a,2022-07-06_03h30.18.788,Colour_Asymmetry_Pilot,2022.1.3,Win32,59.71218726,62c50e9c1127f2cd403a315f,0,17,17,27,1,twofour,,,,,,,,,,,,,,,,,,,,,,,,,,,,,,,,,,,,,,,,,,,,,,,,,,,,,,,,,,,,,,,,,,,,,,,,,,,,,,,,,,,,,,,,,,,,,,,,,,,,,,,,,,,,,,,,,,,,,,,,,,,,,,,,,,,,,,,,,,,,,,,,,,,,,,,,,,,
,,,,,,5b77869d338a9300015468cf,62c539ebdcb3a72c0035340a,2022-07-06_03h30.18.788,Colour_Asymmetry_Pilot,2022.1.3,Win32,59.71218726,62c50e9c1127f2cd403a315f,0,18,18,19,1,twofour,,,,,,,,,,,,,,,,,,,,,,,,,,,,,,,,,,,,,,,,,,,,,,,,,,,,,,,,,,,,,,,,,,,,,,,,,,,,,,,,,,,,,,,,,,,,,,,,,,,,,,,,,,,,,,,,,,,,,,,,,,,,,,,,,,,,,,,,,,,,,,,,,,,,,,,,,,,
,,,,,,5b77869d338a9300015468cf,62c539ebdcb3a72c0035340a,2022-07-06_03h30.18.788,Colour_Asymmetry_Pilot,2022.1.3,Win32,59.71218726,62c50e9c1127f2cd403a315f,0,19,19,97,1,onethree,,,,,,,,,,,,,,,,,,,,,,,,,,,,,,,,,,,,,,,,,,,,,,,,,,,,,,,,,,,,,,,,,,,,,,,,,,,,,,,,,,,,,,,,,,,,,,,,,,,,,,,,,,,,,,,,,,,,,,,,,,,,,,,,,,,,,,,,,,,,,,,,,,,,,,,,,,,
,,,,,,5b77869d338a9300015468cf,62c539ebdcb3a72c0035340a,2022-07-06_03h30.18.788,Colour_Asymmetry_Pilot,2022.1.3,Win32,59.71218726,62c50e9c1127f2cd403a315f,0,20,20,113,1,onethree,,,,,,,,,,,,,,,,,,,,,,,,,,,,,,,,,,,,,,,,,,,,,,,,,,,,,,,,,,,,,,,,,,,,,,,,,,,,,,,,,,,,,,,,,,,,,,,,,,,,,,,,,,,,,,,,,,,,,,,,,,,,,,,,,,,,,,,,,,,,,,,,,,,,,,,,,,,
,,,,,,5b77869d338a9300015468cf,62c539ebdcb3a72c0035340a,2022-07-06_03h30.18.788,Colour_Asymmetry_Pilot,2022.1.3,Win32,59.71218726,62c50e9c1127f2cd403a315f,0,21,21,87,1,fourthree,,,,,,,,,,,,,,,,,,,,,,,,,,,,,,,,,,,,,,,,,,,,,,,,,,,,,,,,,,,,,,,,,,,,,,,,,,,,,,,,,,,,,,,,,,,,,,,,,,,,,,,,,,,,,,,,,,,,,,,,,,,,,,,,,,,,,,,,,,,,,,,,,,,,,,,,,,,
,,,,,,5b77869d338a9300015468cf,62c539ebdcb3a72c0035340a,2022-07-06_03h30.18.788,Colour_Asymmetry_Pilot,2022.1.3,Win32,59.71218726,62c50e9c1127f2cd403a315f,0,22,22,55,1,fourthree,,,,,,,,,,,,,,,,,,,,,,,,,,,,,,,,,,,,,,,,,,,,,,,,,,,,,,,,,,,,,,,,,,,,,,,,,,,,,,,,,,,,,,,,,,,,,,,,,,,,,,,,,,,,,,,,,,,,,,,,,,,,,,,,,,,,,,,,,,,,,,,,,,,,,,,,,,,
,,,,,,5b77869d338a9300015468cf,62c539ebdcb3a72c0035340a,2022-07-06_03h30.18.788,Colour_Asymmetry_Pilot,2022.1.3,Win32,59.71218726,62c50e9c1127f2cd403a315f,0,23,23,110,1,fourtwo,,,,,,,,,,,,,,,,,,,,,,,,,,,,,,,,,,,,,,,,,,,,,,,,,,,,,,,,,,,,,,,,,,,,,,,,,,,,,,,,,,,,,,,,,,,,,,,,,,,,,,,,,,,,,,,,,,,,,,,,,,,,,,,,,,,,,,,,,,,,,,,,,,,,,,,,,,,
,,,,,,5b77869d338a9300015468cf,62c539ebdcb3a72c0035340a,2022-07-06_03h30.18.788,Colour_Asymmetry_Pilot,2022.1.3,Win32,59.71218726,62c50e9c1127f2cd403a315f,0,24,24,145,1,onethree,,,,,,,,,,,,,,,,,,,,,,,,,,,,,,,,,,,,,,,,,,,,,,,,,,,,,,,,,,,,,,,,,,,,,,,,,,,,,,,,,,,,,,,,,,,,,,,,,,,,,,,,,,,,,,,,,,,,,,,,,,,,,,,,,,,,,,,,,,,,,,,,,,,,,,,,,,,
,,,,,,5b77869d338a9300015468cf,62c539ebdcb3a72c0035340a,2022-07-06_03h30.18.788,Colour_Asymmetry_Pilot,2022.1.3,Win32,59.71218726,62c50e9c1127f2cd403a315f,0,25,25,98,1,twoone,,,,,,,,,,,,,,,,,,,,,,,,,,,,,,,,,,,,,,,,,,,,,,,,,,,,,,,,,,,,,,,,,,,,,,,,,,,,,,,,,,,,,,,,,,,,,,,,,,,,,,,,,,,,,,,,,,,,,,,,,,,,,,,,,,,,,,,,,,,,,,,,,,,,,,,,,,,
,,,,,,5b77869d338a9300015468cf,62c539ebdcb3a72c0035340a,2022-07-06_03h30.18.788,Colour_Asymmetry_Pilot,2022.1.3,Win32,59.71218726,62c50e9c1127f2cd403a315f,0,26,26,45,1,threefour,,,,,,,,,,,,,,,,,,,,,,,,,,,,,,,,,,,,,,,,,,,,,,,,,,,,,,,,,,,,,,,,,,,,,,,,,,,,,,,,,,,,,,,,,,,,,,,,,,,,,,,,,,,,,,,,,,,,,,,,,,,,,,,,,,,,,,,,,,,,,,,,,,,,,,,,,,,
,,,,,,5b77869d338a9300015468cf,62c539ebdcb3a72c0035340a,2022-07-06_03h30.18.788,Colour_Asymmetry_Pilot,2022.1.3,Win32,59.71218726,62c50e9c1127f2cd403a315f,0,27,27,96,1,onetwo,,,,,,,,,,,,,,,,,,,,,,,,,,,,,,,,,,,,,,,,,,,,,,,,,,,,,,,,,,,,,,,,,,,,,,,,,,,,,,,,,,,,,,,,,,,,,,,,,,,,,,,,,,,,,,,,,,,,,,,,,,,,,,,,,,,,,,,,,,,,,,,,,,,,,,,,,,,
,,,,,,5b77869d338a9300015468cf,62c539ebdcb3a72c0035340a,2022-07-06_03h30.18.788,Colour_Asymmetry_Pilot,2022.1.3,Win32,59.71218726,62c50e9c1127f2cd403a315f,0,28,28,49,1,onethree,,,,,,,,,,,,,,,,,,,,,,,,,,,,,,,,,,,,,,,,,,,,,,,,,,,,,,,,,,,,,,,,,,,,,,,,,,,,,,,,,,,,,,,,,,,,,,,,,,,,,,,,,,,,,,,,,,,,,,,,,,,,,,,,,,,,,,,,,,,,,,,,,,,,,,,,,,,
,,,,,,5b77869d338a9300015468cf,62c539ebdcb3a72c0035340a,2022-07-06_03h30.18.788,Colour_Asymmetry_Pilot,2022.1.3,Win32,59.71218726,62c50e9c1127f2cd403a315f,0,29,29,5,1,threefour,,,,,,,,,,,,,,,,,,,,,,,,,,,,,,,,,,,,,,,,,,,,,,,,,,,,,,,,,,,,,,,,,,,,,,,,,,,,,,,,,,,,,,,,,,,,,,,,,,,,,,,,,,,,,,,,,,,,,,,,,,,,,,,,,,,,,,,,,,,,,,,,,,,,,,,,,,,
,,,,,,5b77869d338a9300015468cf,62c539ebdcb3a72c0035340a,2022-07-06_03h30.18.788,Colour_Asymmetry_Pilot,2022.1.3,Win32,59.71218726,62c50e9c1127f2cd403a315f,0,30,30,95,1,fourthree,,,,,,,,,,,,,,,,,,,,,,,,,,,,,,,,,,,,,,,,,,,,,,,,,,,,,,,,,,,,,,,,,,,,,,,,,,,,,,,,,,,,,,,,,,,,,,,,,,,,,,,,,,,,,,,,,,,,,,,,,,,,,,,,,,,,,,,,,,,,,,,,,,,,,,,,,,,
,,,,,,5b77869d338a9300015468cf,62c539ebdcb3a72c0035340a,2022-07-06_03h30.18.788,Colour_Asymmetry_Pilot,2022.1.3,Win32,59.71218726,62c50e9c1127f2cd403a315f,0,31,31,1,1,onethree,,,,,,,,,,,,,,,,,,,,,,,,,,,,,,,,,,,,,,,,,,,,,,,,,,,,,,,,,,,,,,,,,,,,,,,,,,,,,,,,,,,,,,,,,,,,,,,,,,,,,,,,,,,,,,,,,,,,,,,,,,,,,,,,,,,,,,,,,,,,,,,,,,,,,,,,,,,
,,,,,,5b77869d338a9300015468cf,62c539ebdcb3a72c0035340a,2022-07-06_03h30.18.788,Colour_Asymmetry_Pilot,2022.1.3,Win32,59.71218726,62c50e9c1127f2cd403a315f,0,32,32,116,1,threeone,,,,,,,,,,,,,,,,,,,,,,,,,,,,,,,,,,,,,,,,,,,,,,,,,,,,,,,,,,,,,,,,,,,,,,,,,,,,,,,,,,,,,,,,,,,,,,,,,,,,,,,,,,,,,,,,,,,,,,,,,,,,,,,,,,,,,,,,,,,,,,,,,,,,,,,,,,,
,,,,,,5b77869d338a9300015468cf,62c539ebdcb3a72c0035340a,2022-07-06_03h30.18.788,Colour_Asymmetry_Pilot,2022.1.3,Win32,59.71218726,62c50e9c1127f2cd403a315f,0,33,33,23,1,fourthree,,,,,,,,,,,,,,,,,,,,,,,,,,,,,,,,,,,,,,,,,,,,,,,,,,,,,,,,,,,,,,,,,,,,,,,,,,,,,,,,,,,,,,,,,,,,,,,,,,,,,,,,,,,,,,,,,,,,,,,,,,,,,,,,,,,,,,,,,,,,,,,,,,,,,,,,,,,
,,,,,,5b77869d338a9300015468cf,62c539ebdcb3a72c0035340a,2022-07-06_03h30.18.788,Colour_Asymmetry_Pilot,2022.1.3,Win32,59.71218726,62c50e9c1127f2cd403a315f,0,34,34,35,1,twofour,,,,,,,,,,,,,,,,,,,,,,,,,,,,,,,,,,,,,,,,,,,,,,,,,,,,,,,,,,,,,,,,,,,,,,,,,,,,,,,,,,,,,,,,,,,,,,,,,,,,,,,,,,,,,,,,,,,,,,,,,,,,,,,,,,,,,,,,,,,,,,,,,,,,,,,,,,,
,,,,,,5b77869d338a9300015468cf,62c539ebdcb3a72c0035340a,2022-07-06_03h30.18.788,Colour_Asymmetry_Pilot,2022.1.3,Win32,59.71218726,62c50e9c1127f2cd403a315f,0,35,35,25,1,onethree,,,,,,,,,,,,,,,,,,,,,,,,,,,,,,,,,,,,,,,,,,,,,,,,,,,,,,,,,,,,,,,,,,,,,,,,,,,,,,,,,,,,,,,,,,,,,,,,,,,,,,,,,,,,,,,,,,,,,,,,,,,,,,,,,,,,,,,,,,,,,,,,,,,,,,,,,,,
,,,,,,5b77869d338a9300015468cf,62c539ebdcb3a72c0035340a,2022-07-06_03h30.18.788,Colour_Asymmetry_Pilot,2022.1.3,Win32,59.71218726,62c50e9c1127f2cd403a315f,0,36,36,128,1,onetwo,,,,,,,,,,,,,,,,,,,,,,,,,,,,,,,,,,,,,,,,,,,,,,,,,,,,,,,,,,,,,,,,,,,,,,,,,,,,,,,,,,,,,,,,,,,,,,,,,,,,,,,,,,,,,,,,,,,,,,,,,,,,,,,,,,,,,,,,,,,,,,,,,,,,,,,,,,,
,,,,,,5b77869d338a9300015468cf,62c539ebdcb3a72c0035340a,2022-07-06_03h30.18.788,Colour_Asymmetry_Pilot,2022.1.3,Win32,59.71218726,62c50e9c1127f2cd403a315f,0,37,37,94,1,fourtwo,,,,,,,,,,,,,,,,,,,,,,,,,,,,,,,,,,,,,,,,,,,,,,,,,,,,,,,,,,,,,,,,,,,,,,,,,,,,,,,,,,,,,,,,,,,,,,,,,,,,,,,,,,,,,,,,,,,,,,,,,,,,,,,,,,,,,,,,,,,,,,,,,,,,,,,,,,,
,,,,,,5b77869d338a9300015468cf,62c539ebdcb3a72c0035340a,2022-07-06_03h30.18.788,Colour_Asymmetry_Pilot,2022.1.3,Win32,59.71218726,62c50e9c1127f2cd403a315f,0,38,38,28,1,threeone,,,,,,,,,,,,,,,,,,,,,,,,,,,,,,,,,,,,,,,,,,,,,,,,,,,,,,,,,,,,,,,,,,,,,,,,,,,,,,,,,,,,,,,,,,,,,,,,,,,,,,,,,,,,,,,,,,,,,,,,,,,,,,,,,,,,,,,,,,,,,,,,,,,,,,,,,,,
,,,,,,5b77869d338a9300015468cf,62c539ebdcb3a72c0035340a,2022-07-06_03h30.18.788,Colour_Asymmetry_Pilot,2022.1.3,Win32,59.71218726,62c50e9c1127f2cd403a315f,0,39,39,40,1,onetwo,,,,,,,,,,,,,,,,,,,,,,,,,,,,,,,,,,,,,,,,,,,,,,,,,,,,,,,,,,,,,,,,,,,,,,,,,,,,,,,,,,,,,,,,,,,,,,,,,,,,,,,,,,,,,,,,,,,,,,,,,,,,,,,,,,,,,,,,,,,,,,,,,,,,,,,,,,,
,,,,,,5b77869d338a9300015468cf,62c539ebdcb3a72c0035340a,2022-07-06_03h30.18.788,Colour_Asymmetry_Pilot,2022.1.3,Win32,59.71218726,62c50e9c1127f2cd403a315f,0,40,40,46,1,fourtwo,,,,,,,,,,,,,,,,,,,,,,,,,,,,,,,,,,,,,,,,,,,,,,,,,,,,,,,,,,,,,,,,,,,,,,,,,,,,,,,,,,,,,,,,,,,,,,,,,,,,,,,,,,,,,,,,,,,,,,,,,,,,,,,,,,,,,,,,,,,,,,,,,,,,,,,,,,,
,,,,,,5b77869d338a9300015468cf,62c539ebdcb3a72c0035340a,2022-07-06_03h30.18.788,Colour_Asymmetry_Pilot,2022.1.3,Win32,59.71218726,62c50e9c1127f2cd403a315f,0,41,41,63,1,fourthree,,,,,,,,,,,,,,,,,,,,,,,,,,,,,,,,,,,,,,,,,,,,,,,,,,,,,,,,,,,,,,,,,,,,,,,,,,,,,,,,,,,,,,,,,,,,,,,,,,,,,,,,,,,,,,,,,,,,,,,,,,,,,,,,,,,,,,,,,,,,,,,,,,,,,,,,,,,
,,,,,,5b77869d338a9300015468cf,62c539ebdcb3a72c0035340a,2022-07-06_03h30.18.788,Colour_Asymmetry_Pilot,2022.1.3,Win32,59.71218726,62c50e9c1127f2cd403a315f,0,42,42,76,1,threeone,,,,,,,,,,,,,,,,,,,,,,,,,,,,,,,,,,,,,,,,,,,,,,,,,,,,,,,,,,,,,,,,,,,,,,,,,,,,,,,,,,,,,,,,,,,,,,,,,,,,,,,,,,,,,,,,,,,,,,,,,,,,,,,,,,,,,,,,,,,,,,,,,,,,,,,,,,,
,,,,,,5b77869d338a9300015468cf,62c539ebdcb3a72c0035340a,2022-07-06_03h30.18.788,Colour_Asymmetry_Pilot,2022.1.3,Win32,59.71218726,62c50e9c1127f2cd403a315f,0,43,43,61,1,threefour,,,,,,,,,,,,,,,,,,,,,,,,,,,,,,,,,,,,,,,,,,,,,,,,,,,,,,,,,,,,,,,,,,,,,,,,,,,,,,,,,,,,,,,,,,,,,,,,,,,,,,,,,,,,,,,,,,,,,,,,,,,,,,,,,,,,,,,,,,,,,,,,,,,,,,,,,,,
,,,,,,5b77869d338a9300015468cf,62c539ebdcb3a72c0035340a,2022-07-06_03h30.18.788,Colour_Asymmetry_Pilot,2022.1.3,Win32,59.71218726,62c50e9c1127f2cd403a315f,0,44,44,18,1,twoone,,,,,,,,,,,,,,,,,,,,,,,,,,,,,,,,,,,,,,,,,,,,,,,,,,,,,,,,,,,,,,,,,,,,,,,,,,,,,,,,,,,,,,,,,,,,,,,,,,,,,,,,,,,,,,,,,,,,,,,,,,,,,,,,,,,,,,,,,,,,,,,,,,,,,,,,,,,
,,,,,,5b77869d338a9300015468cf,62c539ebdcb3a72c0035340a,2022-07-06_03h30.18.788,Colour_Asymmetry_Pilot,2022.1.3,Win32,59.71218726,62c50e9c1127f2cd403a315f,0,45,45,155,1,twofour,,,,,,,,,,,,,,,,,,,,,,,,,,,,,,,,,,,,,,,,,,,,,,,,,,,,,,,,,,,,,,,,,,,,,,,,,,,,,,,,,,,,,,,,,,,,,,,,,,,,,,,,,,,,,,,,,,,,,,,,,,,,,,,,,,,,,,,,,,,,,,,,,,,,,,,,,,,
,,,,,,5b77869d338a9300015468cf,62c539ebdcb3a72c0035340a,2022-07-06_03h30.18.788,Colour_Asymmetry_Pilot,2022.1.3,Win32,59.71218726,62c50e9c1127f2cd403a315f,0,46,46,38,1,fourtwo,,,,,,,,,,,,,,,,,,,,,,,,,,,,,,,,,,,,,,,,,,,,,,,,,,,,,,,,,,,,,,,,,,,,,,,,,,,,,,,,,,,,,,,,,,,,,,,,,,,,,,,,,,,,,,,,,,,,,,,,,,,,,,,,,,,,,,,,,,,,,,,,,,,,,,,,,,,
,,,,,,5b77869d338a9300015468cf,62c539ebdcb3a72c0035340a,2022-07-06_03h30.18.788,Colour_Asymmetry_Pilot,2022.1.3,Win32,59.71218726,62c50e9c1127f2cd403a315f,0,47,47,101,1,threefour,,,,,,,,,,,,,,,,,,,,,,,,,,,,,,,,,,,,,,,,,,,,,,,,,,,,,,,,,,,,,,,,,,,,,,,,,,,,,,,,,,,,,,,,,,,,,,,,,,,,,,,,,,,,,,,,,,,,,,,,,,,,,,,,,,,,,,,,,,,,,,,,,,,,,,,,,,,
,,,,,,5b77869d338a9300015468cf,62c539ebdcb3a72c0035340a,2022-07-06_03h30.18.788,Colour_Asymmetry_Pilot,2022.1.3,Win32,59.71218726,62c50e9c1127f2cd403a315f,0,48,48,146,1,twoone,,,,,,,,,,,,,,,,,,,,,,,,,,,,,,,,,,,,,,,,,,,,,,,,,,,,,,,,,,,,,,,,,,,,,,,,,,,,,,,,,,,,,,,,,,,,,,,,,,,,,,,,,,,,,,,,,,,,,,,,,,,,,,,,,,,,,,,,,,,,,,,,,,,,,,,,,,,
,,,,,,5b77869d338a9300015468cf,62c539ebdcb3a72c0035340a,2022-07-06_03h30.18.788,Colour_Asymmetry_Pilot,2022.1.3,Win32,59.71218726,62c50e9c1127f2cd403a315f,0,49,49,77,1,threefour,,,,,,,,,,,,,,,,,,,,,,,,,,,,,,,,,,,,,,,,,,,,,,,,,,,,,,,,,,,,,,,,,,,,,,,,,,,,,,,,,,,,,,,,,,,,,,,,,,,,,,,,,,,,,,,,,,,,,,,,,,,,,,,,,,,,,,,,,,,,,,,,,,,,,,,,,,,
,,,,,,5b77869d338a9300015468cf,62c539ebdcb3a72c0035340a,2022-07-06_03h30.18.788,Colour_Asymmetry_Pilot,2022.1.3,Win32,59.71218726,62c50e9c1127f2cd403a315f,0,50,50,85,1,threefour,,,,,,,,,,,,,,,,,,,,,,,,,,,,,,,,,,,,,,,,,,,,,,,,,,,,,,,,,,,,,,,,,,,,,,,,,,,,,,,,,,,,,,,,,,,,,,,,,,,,,,,,,,,,,,,,,,,,,,,,,,,,,,,,,,,,,,,,,,,,,,,,,,,,,,,,,,,
,,,,,,5b77869d338a9300015468cf,62c539ebdcb3a72c0035340a,2022-07-06_03h30.18.788,Colour_Asymmetry_Pilot,2022.1.3,Win32,59.71218726,62c50e9c1127f2cd403a315f,0,51,51,84,1,threeone,,,,,,,,,,,,,,,,,,,,,,,,,,,,,,,,,,,,,,,,,,,,,,,,,,,,,,,,,,,,,,,,,,,,,,,,,,,,,,,,,,,,,,,,,,,,,,,,,,,,,,,,,,,,,,,,,,,,,,,,,,,,,,,,,,,,,,,,,,,,,,,,,,,,,,,,,,,
,,,,,,5b77869d338a9300015468cf,62c539ebdcb3a72c0035340a,2022-07-06_03h30.18.788,Colour_Asymmetry_Pilot,2022.1.3,Win32,59.71218726,62c50e9c1127f2cd403a315f,0,52,52,10,1,twoone,,,,,,,,,,,,,,,,,,,,,,,,,,,,,,,,,,,,,,,,,,,,,,,,,,,,,,,,,,,,,,,,,,,,,,,,,,,,,,,,,,,,,,,,,,,,,,,,,,,,,,,,,,,,,,,,,,,,,,,,,,,,,,,,,,,,,,,,,,,,,,,,,,,,,,,,,,,
,,,,,,5b77869d338a9300015468cf,62c539ebdcb3a72c0035340a,2022-07-06_03h30.18.788,Colour_Asymmetry_Pilot,2022.1.3,Win32,59.71218726,62c50e9c1127f2cd403a315f,0,53,53,57,1,onethree,,,,,,,,,,,,,,,,,,,,,,,,,,,,,,,,,,,,,,,,,,,,,,,,,,,,,,,,,,,,,,,,,,,,,,,,,,,,,,,,,,,,,,,,,,,,,,,,,,,,,,,,,,,,,,,,,,,,,,,,,,,,,,,,,,,,,,,,,,,,,,,,,,,,,,,,,,,
,,,,,,5b77869d338a9300015468cf,62c539ebdcb3a72c0035340a,2022-07-06_03h30.18.788,Colour_Asymmetry_Pilot,2022.1.3,Win32,59.71218726,62c50e9c1127f2cd403a315f,0,54,54,158,1,fourtwo,,,,,,,,,,,,,,,,,,,,,,,,,,,,,,,,,,,,,,,,,,,,,,,,,,,,,,,,,,,,,,,,,,,,,,,,,,,,,,,,,,,,,,,,,,,,,,,,,,,,,,,,,,,,,,,,,,,,,,,,,,,,,,,,,,,,,,,,,,,,,,,,,,,,,,,,,,,
,,,,,,5b77869d338a9300015468cf,62c539ebdcb3a72c0035340a,2022-07-06_03h30.18.788,Colour_Asymmetry_Pilot,2022.1.3,Win32,59.71218726,62c50e9c1127f2cd403a315f,0,55,55,78,1,fourtwo,,,,,,,,,,,,,,,,,,,,,,,,,,,,,,,,,,,,,,,,,,,,,,,,,,,,,,,,,,,,,,,,,,,,,,,,,,,,,,,,,,,,,,,,,,,,,,,,,,,,,,,,,,,,,,,,,,,,,,,,,,,,,,,,,,,,,,,,,,,,,,,,,,,,,,,,,,,
,,,,,,5b77869d338a9300015468cf,62c539ebdcb3a72c0035340a,2022-07-06_03h30.18.788,Colour_Asymmetry_Pilot,2022.1.3,Win32,59.71218726,62c50e9c1127f2cd403a315f,0,56,56,125,1,threefour,,,,,,,,,,,,,,,,,,,,,,,,,,,,,,,,,,,,,,,,,,,,,,,,,,,,,,,,,,,,,,,,,,,,,,,,,,,,,,,,,,,,,,,,,,,,,,,,,,,,,,,,,,,,,,,,,,,,,,,,,,,,,,,,,,,,,,,,,,,,,,,,,,,,,,,,,,,
,,,,,,5b77869d338a9300015468cf,62c539ebdcb3a72c0035340a,2022-07-06_03h30.18.788,Colour_Asymmetry_Pilot,2022.1.3,Win32,59.71218726,62c50e9c1127f2cd403a315f,0,57,57,69,1,threefour,,,,,,,,,,,,,,,,,,,,,,,,,,,,,,,,,,,,,,,,,,,,,,,,,,,,,,,,,,,,,,,,,,,,,,,,,,,,,,,,,,,,,,,,,,,,,,,,,,,,,,,,,,,,,,,,,,,,,,,,,,,,,,,,,,,,,,,,,,,,,,,,,,,,,,,,,,,
,,,,,,5b77869d338a9300015468cf,62c539ebdcb3a72c0035340a,2022-07-06_03h30.18.788,Colour_Asymmetry_Pilot,2022.1.3,Win32,59.71218726,62c50e9c1127f2cd403a315f,0,58,58,70,1,fourtwo,,,,,,,,,,,,,,,,,,,,,,,,,,,,,,,,,,,,,,,,,,,,,,,,,,,,,,,,,,,,,,,,,,,,,,,,,,,,,,,,,,,,,,,,,,,,,,,,,,,,,,,,,,,,,,,,,,,,,,,,,,,,,,,,,,,,,,,,,,,,,,,,,,,,,,,,,,,
,,,,,,5b77869d338a9300015468cf,62c539ebdcb3a72c0035340a,2022-07-06_03h30.18.788,Colour_Asymmetry_Pilot,2022.1.3,Win32,59.71218726,62c50e9c1127f2cd403a315f,0,59,59,138,1,twoone,,,,,,,,,,,,,,,,,,,,,,,,,,,,,,,,,,,,,,,,,,,,,,,,,,,,,,,,,,,,,,,,,,,,,,,,,,,,,,,,,,,,,,,,,,,,,,,,,,,,,,,,,,,,,,,,,,,,,,,,,,,,,,,,,,,,,,,,,,,,,,,,,,,,,,,,,,,
,,,,,,5b77869d338a9300015468cf,62c539ebdcb3a72c0035340a,2022-07-06_03h30.18.788,Colour_Asymmetry_Pilot,2022.1.3,Win32,59.71218726,62c50e9c1127f2cd403a315f,0,60,60,100,1,threeone,,,,,,,,,,,,,,,,,,,,,,,,,,,,,,,,,,,,,,,,,,,,,,,,,,,,,,,,,,,,,,,,,,,,,,,,,,,,,,,,,,,,,,,,,,,,,,,,,,,,,,,,,,,,,,,,,,,,,,,,,,,,,,,,,,,,,,,,,,,,,,,,,,,,,,,,,,,
,,,,,,5b77869d338a9300015468cf,62c539ebdcb3a72c0035340a,2022-07-06_03h30.18.788,Colour_Asymmetry_Pilot,2022.1.3,Win32,59.71218726,62c50e9c1127f2cd403a315f,0,61,61,130,1,twoone,,,,,,,,,,,,,,,,,,,,,,,,,,,,,,,,,,,,,,,,,,,,,,,,,,,,,,,,,,,,,,,,,,,,,,,,,,,,,,,,,,,,,,,,,,,,,,,,,,,,,,,,,,,,,,,,,,,,,,,,,,,,,,,,,,,,,,,,,,,,,,,,,,,,,,,,,,,
,,,,,,5b77869d338a9300015468cf,62c539ebdcb3a72c0035340a,2022-07-06_03h30.18.788,Colour_Asymmetry_Pilot,2022.1.3,Win32,59.71218726,62c50e9c1127f2cd403a315f,0,62,62,56,1,onetwo,,,,,,,,,,,,,,,,,,,,,,,,,,,,,,,,,,,,,,,,,,,,,,,,,,,,,,,,,,,,,,,,,,,,,,,,,,,,,,,,,,,,,,,,,,,,,,,,,,,,,,,,,,,,,,,,,,,,,,,,,,,,,,,,,,,,,,,,,,,,,,,,,,,,,,,,,,,
,,,,,,5b77869d338a9300015468cf,62c539ebdcb3a72c0035340a,2022-07-06_03h30.18.788,Colour_Asymmetry_Pilot,2022.1.3,Win32,59.71218726,62c50e9c1127f2cd403a315f,0,63,63,34,1,twoone,,,,,,,,,,,,,,,,,,,,,,,,,,,,,,,,,,,,,,,,,,,,,,,,,,,,,,,,,,,,,,,,,,,,,,,,,,,,,,,,,,,,,,,,,,,,,,,,,,,,,,,,,,,,,,,,,,,,,,,,,,,,,,,,,,,,,,,,,,,,,,,,,,,,,,,,,,,
,,,,,,5b77869d338a9300015468cf,62c539ebdcb3a72c0035340a,2022-07-06_03h30.18.788,Colour_Asymmetry_Pilot,2022.1.3,Win32,59.71218726,62c50e9c1127f2cd403a315f,0,64,64,86,1,fourtwo,,,,,,,,,,,,,,,,,,,,,,,,,,,,,,,,,,,,,,,,,,,,,,,,,,,,,,,,,,,,,,,,,,,,,,,,,,,,,,,,,,,,,,,,,,,,,,,,,,,,,,,,,,,,,,,,,,,,,,,,,,,,,,,,,,,,,,,,,,,,,,,,,,,,,,,,,,,
,,,,,,5b77869d338a9300015468cf,62c539ebdcb3a72c0035340a,2022-07-06_03h30.18.788,Colour_Asymmetry_Pilot,2022.1.3,Win32,59.71218726,62c50e9c1127f2cd403a315f,0,65,65,79,1,fourthree,,,,,,,,,,,,,,,,,,,,,,,,,,,,,,,,,,,,,,,,,,,,,,,,,,,,,,,,,,,,,,,,,,,,,,,,,,,,,,,,,,,,,,,,,,,,,,,,,,,,,,,,,,,,,,,,,,,,,,,,,,,,,,,,,,,,,,,,,,,,,,,,,,,,,,,,,,,
,,,,,,5b77869d338a9300015468cf,62c539ebdcb3a72c0035340a,2022-07-06_03h30.18.788,Colour_Asymmetry_Pilot,2022.1.3,Win32,59.71218726,62c50e9c1127f2cd403a315f,0,66,66,51,1,twofour,,,,,,,,,,,,,,,,,,,,,,,,,,,,,,,,,,,,,,,,,,,,,,,,,,,,,,,,,,,,,,,,,,,,,,,,,,,,,,,,,,,,,,,,,,,,,,,,,,,,,,,,,,,,,,,,,,,,,,,,,,,,,,,,,,,,,,,,,,,,,,,,,,,,,,,,,,,
,,,,,,5b77869d338a9300015468cf,62c539ebdcb3a72c0035340a,2022-07-06_03h30.18.788,Colour_Asymmetry_Pilot,2022.1.3,Win32,59.71218726,62c50e9c1127f2cd403a315f,0,67,67,106,1,twoone,,,,,,,,,,,,,,,,,,,,,,,,,,,,,,,,,,,,,,,,,,,,,,,,,,,,,,,,,,,,,,,,,,,,,,,,,,,,,,,,,,,,,,,,,,,,,,,,,,,,,,,,,,,,,,,,,,,,,,,,,,,,,,,,,,,,,,,,,,,,,,,,,,,,,,,,,,,
,,,,,,5b77869d338a9300015468cf,62c539ebdcb3a72c0035340a,2022-07-06_03h30.18.788,Colour_Asymmetry_Pilot,2022.1.3,Win32,59.71218726,62c50e9c1127f2cd403a315f,0,68,68,58,1,twoone,,,,,,,,,,,,,,,,,,,,,,,,,,,,,,,,,,,,,,,,,,,,,,,,,,,,,,,,,,,,,,,,,,,,,,,,,,,,,,,,,,,,,,,,,,,,,,,,,,,,,,,,,,,,,,,,,,,,,,,,,,,,,,,,,,,,,,,,,,,,,,,,,,,,,,,,,,,
,,,,,,5b77869d338a9300015468cf,62c539ebdcb3a72c0035340a,2022-07-06_03h30.18.788,Colour_Asymmetry_Pilot,2022.1.3,Win32,59.71218726,62c50e9c1127f2cd403a315f,0,69,69,24,1,onetwo,,,,,,,,,,,,,,,,,,,,,,,,,,,,,,,,,,,,,,,,,,,,,,,,,,,,,,,,,,,,,,,,,,,,,,,,,,,,,,,,,,,,,,,,,,,,,,,,,,,,,,,,,,,,,,,,,,,,,,,,,,,,,,,,,,,,,,,,,,,,,,,,,,,,,,,,,,,
,,,,,,5b77869d338a9300015468cf,62c539ebdcb3a72c0035340a,2022-07-06_03h30.18.788,Colour_Asymmetry_Pilot,2022.1.3,Win32,59.71218726,62c50e9c1127f2cd403a315f,0,70,70,30,1,fourtwo,,,,,,,,,,,,,,,,,,,,,,,,,,,,,,,,,,,,,,,,,,,,,,,,,,,,,,,,,,,,,,,,,,,,,,,,,,,,,,,,,,,,,,,,,,,,,,,,,,,,,,,,,,,,,,,,,,,,,,,,,,,,,,,,,,,,,,,,,,,,,,,,,,,,,,,,,,,
,,,,,,5b77869d338a9300015468cf,62c539ebdcb3a72c0035340a,2022-07-06_03h30.18.788,Colour_Asymmetry_Pilot,2022.1.3,Win32,59.71218726,62c50e9c1127f2cd403a315f,0,71,71,59,1,twofour,,,,,,,,,,,,,,,,,,,,,,,,,,,,,,,,,,,,,,,,,,,,,,,,,,,,,,,,,,,,,,,,,,,,,,,,,,,,,,,,,,,,,,,,,,,,,,,,,,,,,,,,,,,,,,,,,,,,,,,,,,,,,,,,,,,,,,,,,,,,,,,,,,,,,,,,,,,
,,,,,,5b77869d338a9300015468cf,62c539ebdcb3a72c0035340a,2022-07-06_03h30.18.788,Colour_Asymmetry_Pilot,2022.1.3,Win32,59.71218726,62c50e9c1127f2cd403a315f,0,72,72,36,1,threeone,,,,,,,,,,,,,,,,,,,,,,,,,,,,,,,,,,,,,,,,,,,,,,,,,,,,,,,,,,,,,,,,,,,,,,,,,,,,,,,,,,,,,,,,,,,,,,,,,,,,,,,,,,,,,,,,,,,,,,,,,,,,,,,,,,,,,,,,,,,,,,,,,,,,,,,,,,,
,,,,,,5b77869d338a9300015468cf,62c539ebdcb3a72c0035340a,2022-07-06_03h30.18.788,Colour_Asymmetry_Pilot,2022.1.3,Win32,59.71218726,62c50e9c1127f2cd403a315f,0,73,73,12,1,threeone,,,,,,,,,,,,,,,,,,,,,,,,,,,,,,,,,,,,,,,,,,,,,,,,,,,,,,,,,,,,,,,,,,,,,,,,,,,,,,,,,,,,,,,,,,,,,,,,,,,,,,,,,,,,,,,,,,,,,,,,,,,,,,,,,,,,,,,,,,,,,,,,,,,,,,,,,,,
,,,,,,5b77869d338a9300015468cf,62c539ebdcb3a72c0035340a,2022-07-06_03h30.18.788,Colour_Asymmetry_Pilot,2022.1.3,Win32,59.71218726,62c50e9c1127f2cd403a315f,0,74,74,39,1,fourthree,,,,,,,,,,,,,,,,,,,,,,,,,,,,,,,,,,,,,,,,,,,,,,,,,,,,,,,,,,,,,,,,,,,,,,,,,,,,,,,,,,,,,,,,,,,,,,,,,,,,,,,,,,,,,,,,,,,,,,,,,,,,,,,,,,,,,,,,,,,,,,,,,,,,,,,,,,,
,,,,,,5b77869d338a9300015468cf,62c539ebdcb3a72c0035340a,2022-07-06_03h30.18.788,Colour_Asymmetry_Pilot,2022.1.3,Win32,59.71218726,62c50e9c1127f2cd403a315f,0,75,75,156,1,threeone,,,,,,,,,,,,,,,,,,,,,,,,,,,,,,,,,,,,,,,,,,,,,,,,,,,,,,,,,,,,,,,,,,,,,,,,,,,,,,,,,,,,,,,,,,,,,,,,,,,,,,,,,,,,,,,,,,,,,,,,,,,,,,,,,,,,,,,,,,,,,,,,,,,,,,,,,,,
,,,,,,5b77869d338a9300015468cf,62c539ebdcb3a72c0035340a,2022-07-06_03h30.18.788,Colour_Asymmetry_Pilot,2022.1.3,Win32,59.71218726,62c50e9c1127f2cd403a315f,0,76,76,50,1,twoone,,,,,,,,,,,,,,,,,,,,,,,,,,,,,,,,,,,,,,,,,,,,,,,,,,,,,,,,,,,,,,,,,,,,,,,,,,,,,,,,,,,,,,,,,,,,,,,,,,,,,,,,,,,,,,,,,,,,,,,,,,,,,,,,,,,,,,,,,,,,,,,,,,,,,,,,,,,
,,,,,,5b77869d338a9300015468cf,62c539ebdcb3a72c0035340a,2022-07-06_03h30.18.788,Colour_Asymmetry_Pilot,2022.1.3,Win32,59.71218726,62c50e9c1127f2cd403a315f,0,77,77,4,1,threeone,,,,,,,,,,,,,,,,,,,,,,,,,,,,,,,,,,,,,,,,,,,,,,,,,,,,,,,,,,,,,,,,,,,,,,,,,,,,,,,,,,,,,,,,,,,,,,,,,,,,,,,,,,,,,,,,,,,,,,,,,,,,,,,,,,,,,,,,,,,,,,,,,,,,,,,,,,,
,,,,,,5b77869d338a9300015468cf,62c539ebdcb3a72c0035340a,2022-07-06_03h30.18.788,Colour_Asymmetry_Pilot,2022.1.3,Win32,59.71218726,62c50e9c1127f2cd403a315f,0,78,78,81,1,onethree,,,,,,,,,,,,,,,,,,,,,,,,,,,,,,,,,,,,,,,,,,,,,,,,,,,,,,,,,,,,,,,,,,,,,,,,,,,,,,,,,,,,,,,,,,,,,,,,,,,,,,,,,,,,,,,,,,,,,,,,,,,,,,,,,,,,,,,,,,,,,,,,,,,,,,,,,,,
,,,,,,5b77869d338a9300015468cf,62c539ebdcb3a72c0035340a,2022-07-06_03h30.18.788,Colour_Asymmetry_Pilot,2022.1.3,Win32,59.71218726,62c50e9c1127f2cd403a315f,0,79,79,75,1,twofour,,,,,,,,,,,,,,,,,,,,,,,,,,,,,,,,,,,,,,,,,,,,,,,,,,,,,,,,,,,,,,,,,,,,,,,,,,,,,,,,,,,,,,,,,,,,,,,,,,,,,,,,,,,,,,,,,,,,,,,,,,,,,,,,,,,,,,,,,,,,,,,,,,,,,,,,,,,
,,,,,,5b77869d338a9300015468cf,62c539ebdcb3a72c0035340a,2022-07-06_03h30.18.788,Colour_Asymmetry_Pilot,2022.1.3,Win32,59.71218726,62c50e9c1127f2cd403a315f,0,80,80,141,1,threefour,,,,,,,,,,,,,,,,,,,,,,,,,,,,,,,,,,,,,,,,,,,,,,,,,,,,,,,,,,,,,,,,,,,,,,,,,,,,,,,,,,,,,,,,,,,,,,,,,,,,,,,,,,,,,,,,,,,,,,,,,,,,,,,,,,,,,,,,,,,,,,,,,,,,,,,,,,,
,,,,,,5b77869d338a9300015468cf,62c539ebdcb3a72c0035340a,2022-07-06_03h30.18.788,Colour_Asymmetry_Pilot,2022.1.3,Win32,59.71218726,62c50e9c1127f2cd403a315f,0,81,81,54,1,fourtwo,,,,,,,,,,,,,,,,,,,,,,,,,,,,,,,,,,,,,,,,,,,,,,,,,,,,,,,,,,,,,,,,,,,,,,,,,,,,,,,,,,,,,,,,,,,,,,,,,,,,,,,,,,,,,,,,,,,,,,,,,,,,,,,,,,,,,,,,,,,,,,,,,,,,,,,,,,,
,,,,,,5b77869d338a9300015468cf,62c539ebdcb3a72c0035340a,2022-07-06_03h30.18.788,Colour_Asymmetry_Pilot,2022.1.3,Win32,59.71218726,62c50e9c1127f2cd403a315f,0,82,82,148,1,threeone,,,,,,,,,,,,,,,,,,,,,,,,,,,,,,,,,,,,,,,,,,,,,,,,,,,,,,,,,,,,,,,,,,,,,,,,,,,,,,,,,,,,,,,,,,,,,,,,,,,,,,,,,,,,,,,,,,,,,,,,,,,,,,,,,,,,,,,,,,,,,,,,,,,,,,,,,,,
,,,,,,5b77869d338a9300015468cf,62c539ebdcb3a72c0035340a,2022-07-06_03h30.18.788,Colour_Asymmetry_Pilot,2022.1.3,Win32,59.71218726,62c50e9c1127f2cd403a315f,0,83,83,15,1,fourthree,,,,,,,,,,,,,,,,,,,,,,,,,,,,,,,,,,,,,,,,,,,,,,,,,,,,,,,,,,,,,,,,,,,,,,,,,,,,,,,,,,,,,,,,,,,,,,,,,,,,,,,,,,,,,,,,,,,,,,,,,,,,,,,,,,,,,,,,,,,,,,,,,,,,,,,,,,,
,,,,,,5b77869d338a9300015468cf,62c539ebdcb3a72c0035340a,2022-07-06_03h30.18.788,Colour_Asymmetry_Pilot,2022.1.3,Win32,59.71218726,62c50e9c1127f2cd403a315f,0,84,84,90,1,twoone,,,,,,,,,,,,,,,,,,,,,,,,,,,,,,,,,,,,,,,,,,,,,,,,,,,,,,,,,,,,,,,,,,,,,,,,,,,,,,,,,,,,,,,,,,,,,,,,,,,,,,,,,,,,,,,,,,,,,,,,,,,,,,,,,,,,,,,,,,,,,,,,,,,,,,,,,,,
,,,,,,5b77869d338a9300015468cf,62c539ebdcb3a72c0035340a,2022-07-06_03h30.18.788,Colour_Asymmetry_Pilot,2022.1.3,Win32,59.71218726,62c50e9c1127f2cd403a315f,0,85,85,11,1,twofour,,,,,,,,,,,,,,,,,,,,,,,,,,,,,,,,,,,,,,,,,,,,,,,,,,,,,,,,,,,,,,,,,,,,,,,,,,,,,,,,,,,,,,,,,,,,,,,,,,,,,,,,,,,,,,,,,,,,,,,,,,,,,,,,,,,,,,,,,,,,,,,,,,,,,,,,,,,
,,,,,,5b77869d338a9300015468cf,62c539ebdcb3a72c0035340a,2022-07-06_03h30.18.788,Colour_Asymmetry_Pilot,2022.1.3,Win32,59.71218726,62c50e9c1127f2cd403a315f,0,86,86,47,1,fourthree,,,,,,,,,,,,,,,,,,,,,,,,,,,,,,,,,,,,,,,,,,,,,,,,,,,,,,,,,,,,,,,,,,,,,,,,,,,,,,,,,,,,,,,,,,,,,,,,,,,,,,,,,,,,,,,,,,,,,,,,,,,,,,,,,,,,,,,,,,,,,,,,,,,,,,,,,,,
,,,,,,5b77869d338a9300015468cf,62c539ebdcb3a72c0035340a,2022-07-06_03h30.18.788,Colour_Asymmetry_Pilot,2022.1.3,Win32,59.71218726,62c50e9c1127f2cd403a315f,0,87,87,16,1,onetwo,,,,,,,,,,,,,,,,,,,,,,,,,,,,,,,,,,,,,,,,,,,,,,,,,,,,,,,,,,,,,,,,,,,,,,,,,,,,,,,,,,,,,,,,,,,,,,,,,,,,,,,,,,,,,,,,,,,,,,,,,,,,,,,,,,,,,,,,,,,,,,,,,,,,,,,,,,,
,,,,,,5b77869d338a9300015468cf,62c539ebdcb3a72c0035340a,2022-07-06_03h30.18.788,Colour_Asymmetry_Pilot,2022.1.3,Win32,59.71218726,62c50e9c1127f2cd403a315f,0,88,88,129,1,onethree,,,,,,,,,,,,,,,,,,,,,,,,,,,,,,,,,,,,,,,,,,,,,,,,,,,,,,,,,,,,,,,,,,,,,,,,,,,,,,,,,,,,,,,,,,,,,,,,,,,,,,,,,,,,,,,,,,,,,,,,,,,,,,,,,,,,,,,,,,,,,,,,,,,,,,,,,,,
,,,,,,5b77869d338a9300015468cf,62c539ebdcb3a72c0035340a,2022-07-06_03h30.18.788,Colour_Asymmetry_Pilot,2022.1.3,Win32,59.71218726,62c50e9c1127f2cd403a315f,0,89,89,33,1,onethree,,,,,,,,,,,,,,,,,,,,,,,,,,,,,,,,,,,,,,,,,,,,,,,,,,,,,,,,,,,,,,,,,,,,,,,,,,,,,,,,,,,,,,,,,,,,,,,,,,,,,,,,,,,,,,,,,,,,,,,,,,,,,,,,,,,,,,,,,,,,,,,,,,,,,,,,,,,
,,,,,,5b77869d338a9300015468cf,62c539ebdcb3a72c0035340a,2022-07-06_03h30.18.788,Colour_Asymmetry_Pilot,2022.1.3,Win32,59.71218726,62c50e9c1127f2cd403a315f,0,90,90,14,1,fourtwo,,,,,,,,,,,,,,,,,,,,,,,,,,,,,,,,,,,,,,,,,,,,,,,,,,,,,,,,,,,,,,,,,,,,,,,,,,,,,,,,,,,,,,,,,,,,,,,,,,,,,,,,,,,,,,,,,,,,,,,,,,,,,,,,,,,,,,,,,,,,,,,,,,,,,,,,,,,
,,,,,,5b77869d338a9300015468cf,62c539ebdcb3a72c0035340a,2022-07-06_03h30.18.788,Colour_Asymmetry_Pilot,2022.1.3,Win32,59.71218726,62c50e9c1127f2cd403a315f,0,91,91,53,1,threefour,,,,,,,,,,,,,,,,,,,,,,,,,,,,,,,,,,,,,,,,,,,,,,,,,,,,,,,,,,,,,,,,,,,,,,,,,,,,,,,,,,,,,,,,,,,,,,,,,,,,,,,,,,,,,,,,,,,,,,,,,,,,,,,,,,,,,,,,,,,,,,,,,,,,,,,,,,,
,,,,,,5b77869d338a9300015468cf,62c539ebdcb3a72c0035340a,2022-07-06_03h30.18.788,Colour_Asymmetry_Pilot,2022.1.3,Win32,59.71218726,62c50e9c1127f2cd403a315f,0,92,92,132,1,threeone,,,,,,,,,,,,,,,,,,,,,,,,,,,,,,,,,,,,,,,,,,,,,,,,,,,,,,,,,,,,,,,,,,,,,,,,,,,,,,,,,,,,,,,,,,,,,,,,,,,,,,,,,,,,,,,,,,,,,,,,,,,,,,,,,,,,,,,,,,,,,,,,,,,,,,,,,,,
,,,,,,5b77869d338a9300015468cf,62c539ebdcb3a72c0035340a,2022-07-06_03h30.18.788,Colour_Asymmetry_Pilot,2022.1.3,Win32,59.71218726,62c50e9c1127f2cd403a315f,0,93,93,102,1,fourtwo,,,,,,,,,,,,,,,,,,,,,,,,,,,,,,,,,,,,,,,,,,,,,,,,,,,,,,,,,,,,,,,,,,,,,,,,,,,,,,,,,,,,,,,,,,,,,,,,,,,,,,,,,,,,,,,,,,,,,,,,,,,,,,,,,,,,,,,,,,,,,,,,,,,,,,,,,,,
,,,,,,5b77869d338a9300015468cf,62c539ebdcb3a72c0035340a,2022-07-06_03h30.18.788,Colour_Asymmetry_Pilot,2022.1.3,Win32,59.71218726,62c50e9c1127f2cd403a315f,0,94,94,68,1,threeone,,,,,,,,,,,,,,,,,,,,,,,,,,,,,,,,,,,,,,,,,,,,,,,,,,,,,,,,,,,,,,,,,,,,,,,,,,,,,,,,,,,,,,,,,,,,,,,,,,,,,,,,,,,,,,,,,,,,,,,,,,,,,,,,,,,,,,,,,,,,,,,,,,,,,,,,,,,
,,,,,,5b77869d338a9300015468cf,62c539ebdcb3a72c0035340a,2022-07-06_03h30.18.788,Colour_Asymmetry_Pilot,2022.1.3,Win32,59.71218726,62c50e9c1127f2cd403a315f,0,95,95,82,1,twoone,,,,,,,,,,,,,,,,,,,,,,,,,,,,,,,,,,,,,,,,,,,,,,,,,,,,,,,,,,,,,,,,,,,,,,,,,,,,,,,,,,,,,,,,,,,,,,,,,,,,,,,,,,,,,,,,,,,,,,,,,,,,,,,,,,,,,,,,,,,,,,,,,,,,,,,,,,,
,,,,,,5b77869d338a9300015468cf,62c539ebdcb3a72c0035340a,2022-07-06_03h30.18.788,Colour_Asymmetry_Pilot,2022.1.3,Win32,59.71218726,62c50e9c1127f2cd403a315f,0,96,96,142,1,fourtwo,,,,,,,,,,,,,,,,,,,,,,,,,,,,,,,,,,,,,,,,,,,,,,,,,,,,,,,,,,,,,,,,,,,,,,,,,,,,,,,,,,,,,,,,,,,,,,,,,,,,,,,,,,,,,,,,,,,,,,,,,,,,,,,,,,,,,,,,,,,,,,,,,,,,,,,,,,,
,,,,,,5b77869d338a9300015468cf,62c539ebdcb3a72c0035340a,2022-07-06_03h30.18.788,Colour_Asymmetry_Pilot,2022.1.3,Win32,59.71218726,62c50e9c1127f2cd403a315f,0,97,97,111,1,fourthree,,,,,,,,,,,,,,,,,,,,,,,,,,,,,,,,,,,,,,,,,,,,,,,,,,,,,,,,,,,,,,,,,,,,,,,,,,,,,,,,,,,,,,,,,,,,,,,,,,,,,,,,,,,,,,,,,,,,,,,,,,,,,,,,,,,,,,,,,,,,,,,,,,,,,,,,,,,
,,,,,,5b77869d338a9300015468cf,62c539ebdcb3a72c0035340a,2022-07-06_03h30.18.788,Colour_Asymmetry_Pilot,2022.1.3,Win32,59.71218726,62c50e9c1127f2cd403a315f,0,98,98,134,1,fourtwo,,,,,,,,,,,,,,,,,,,,,,,,,,,,,,,,,,,,,,,,,,,,,,,,,,,,,,,,,,,,,,,,,,,,,,,,,,,,,,,,,,,,,,,,,,,,,,,,,,,,,,,,,,,,,,,,,,,,,,,,,,,,,,,,,,,,,,,,,,,,,,,,,,,,,,,,,,,
,,,,,,5b77869d338a9300015468cf,62c539ebdcb3a72c0035340a,2022-07-06_03h30.18.788,Colour_Asymmetry_Pilot,2022.1.3,Win32,59.71218726,62c50e9c1127f2cd403a315f,0,99,99,91,1,twofour,,,,,,,,,,,,,,,,,,,,,,,,,,,,,,,,,,,,,,,,,,,,,,,,,,,,,,,,,,,,,,,,,,,,,,,,,,,,,,,,,,,,,,,,,,,,,,,,,,,,,,,,,,,,,,,,,,,,,,,,,,,,,,,,,,,,,,,,,,,,,,,,,,,,,,,,,,,
,,,,,,5b77869d338a9300015468cf,62c539ebdcb3a72c0035340a,2022-07-06_03h30.18.788,Colour_Asymmetry_Pilot,2022.1.3,Win32,59.71218726,62c50e9c1127f2cd403a315f,0,100,100,88,1,onetwo,,,,,,,,,,,,,,,,,,,,,,,,,,,,,,,,,,,,,,,,,,,,,,,,,,,,,,,,,,,,,,,,,,,,,,,,,,,,,,,,,,,,,,,,,,,,,,,,,,,,,,,,,,,,,,,,,,,,,,,,,,,,,,,,,,,,,,,,,,,,,,,,,,,,,,,,,,,
,,,,,,5b77869d338a9300015468cf,62c539ebdcb3a72c0035340a,2022-07-06_03h30.18.788,Colour_Asymmetry_Pilot,2022.1.3,Win32,59.71218726,62c50e9c1127f2cd403a315f,0,101,101,118,1,fourtwo,,,,,,,,,,,,,,,,,,,,,,,,,,,,,,,,,,,,,,,,,,,,,,,,,,,,,,,,,,,,,,,,,,,,,,,,,,,,,,,,,,,,,,,,,,,,,,,,,,,,,,,,,,,,,,,,,,,,,,,,,,,,,,,,,,,,,,,,,,,,,,,,,,,,,,,,,,,
,,,,,,5b77869d338a9300015468cf,62c539ebdcb3a72c0035340a,2022-07-06_03h30.18.788,Colour_Asymmetry_Pilot,2022.1.3,Win32,59.71218726,62c50e9c1127f2cd403a315f,0,102,102,143,1,fourthree,,,,,,,,,,,,,,,,,,,,,,,,,,,,,,,,,,,,,,,,,,,,,,,,,,,,,,,,,,,,,,,,,,,,,,,,,,,,,,,,,,,,,,,,,,,,,,,,,,,,,,,,,,,,,,,,,,,,,,,,,,,,,,,,,,,,,,,,,,,,,,,,,,,,,,,,,,,
,,,,,,5b77869d338a9300015468cf,62c539ebdcb3a72c0035340a,2022-07-06_03h30.18.788,Colour_Asymmetry_Pilot,2022.1.3,Win32,59.71218726,62c50e9c1127f2cd403a315f,0,103,103,92,1,threeone,,,,,,,,,,,,,,,,,,,,,,,,,,,,,,,,,,,,,,,,,,,,,,,,,,,,,,,,,,,,,,,,,,,,,,,,,,,,,,,,,,,,,,,,,,,,,,,,,,,,,,,,,,,,,,,,,,,,,,,,,,,,,,,,,,,,,,,,,,,,,,,,,,,,,,,,,,,
,,,,,,5b77869d338a9300015468cf,62c539ebdcb3a72c0035340a,2022-07-06_03h30.18.788,Colour_Asymmetry_Pilot,2022.1.3,Win32,59.71218726,62c50e9c1127f2cd403a315f,0,104,104,115,1,twofour,,,,,,,,,,,,,,,,,,,,,,,,,,,,,,,,,,,,,,,,,,,,,,,,,,,,,,,,,,,,,,,,,,,,,,,,,,,,,,,,,,,,,,,,,,,,,,,,,,,,,,,,,,,,,,,,,,,,,,,,,,,,,,,,,,,,,,,,,,,,,,,,,,,,,,,,,,,
,,,,,,5b77869d338a9300015468cf,62c539ebdcb3a72c0035340a,2022-07-06_03h30.18.788,Colour_Asymmetry_Pilot,2022.1.3,Win32,59.71218726,62c50e9c1127f2cd403a315f,0,105,105,41,1,onethree,,,,,,,,,,,,,,,,,,,,,,,,,,,,,,,,,,,,,,,,,,,,,,,,,,,,,,,,,,,,,,,,,,,,,,,,,,,,,,,,,,,,,,,,,,,,,,,,,,,,,,,,,,,,,,,,,,,,,,,,,,,,,,,,,,,,,,,,,,,,,,,,,,,,,,,,,,,
,,,,,,5b77869d338a9300015468cf,62c539ebdcb3a72c0035340a,2022-07-06_03h30.18.788,Colour_Asymmetry_Pilot,2022.1.3,Win32,59.71218726,62c50e9c1127f2cd403a315f,0,106,106,107,1,twofour,,,,,,,,,,,,,,,,,,,,,,,,,,,,,,,,,,,,,,,,,,,,,,,,,,,,,,,,,,,,,,,,,,,,,,,,,,,,,,,,,,,,,,,,,,,,,,,,,,,,,,,,,,,,,,,,,,,,,,,,,,,,,,,,,,,,,,,,,,,,,,,,,,,,,,,,,,,
,,,,,,5b77869d338a9300015468cf,62c539ebdcb3a72c0035340a,2022-07-06_03h30.18.788,Colour_Asymmetry_Pilot,2022.1.3,Win32,59.71218726,62c50e9c1127f2cd403a315f,0,107,107,126,1,fourtwo,,,,,,,,,,,,,,,,,,,,,,,,,,,,,,,,,,,,,,,,,,,,,,,,,,,,,,,,,,,,,,,,,,,,,,,,,,,,,,,,,,,,,,,,,,,,,,,,,,,,,,,,,,,,,,,,,,,,,,,,,,,,,,,,,,,,,,,,,,,,,,,,,,,,,,,,,,,
,,,,,,5b77869d338a9300015468cf,62c539ebdcb3a72c0035340a,2022-07-06_03h30.18.788,Colour_Asymmetry_Pilot,2022.1.3,Win32,59.71218726,62c50e9c1127f2cd403a315f,0,108,108,3,1,twofour,,,,,,,,,,,,,,,,,,,,,,,,,,,,,,,,,,,,,,,,,,,,,,,,,,,,,,,,,,,,,,,,,,,,,,,,,,,,,,,,,,,,,,,,,,,,,,,,,,,,,,,,,,,,,,,,,,,,,,,,,,,,,,,,,,,,,,,,,,,,,,,,,,,,,,,,,,,
,,,,,,5b77869d338a9300015468cf,62c539ebdcb3a72c0035340a,2022-07-06_03h30.18.788,Colour_Asymmetry_Pilot,2022.1.3,Win32,59.71218726,62c50e9c1127f2cd403a315f,0,109,109,26,1,twoone,,,,,,,,,,,,,,,,,,,,,,,,,,,,,,,,,,,,,,,,,,,,,,,,,,,,,,,,,,,,,,,,,,,,,,,,,,,,,,,,,,,,,,,,,,,,,,,,,,,,,,,,,,,,,,,,,,,,,,,,,,,,,,,,,,,,,,,,,,,,,,,,,,,,,,,,,,,
,,,,,,5b77869d338a9300015468cf,62c539ebdcb3a72c0035340a,2022-07-06_03h30.18.788,Colour_Asymmetry_Pilot,2022.1.3,Win32,59.71218726,62c50e9c1127f2cd403a315f,0,110,110,105,1,onethree,,,,,,,,,,,,,,,,,,,,,,,,,,,,,,,,,,,,,,,,,,,,,,,,,,,,,,,,,,,,,,,,,,,,,,,,,,,,,,,,,,,,,,,,,,,,,,,,,,,,,,,,,,,,,,,,,,,,,,,,,,,,,,,,,,,,,,,,,,,,,,,,,,,,,,,,,,,
,,,,,,5b77869d338a9300015468cf,62c539ebdcb3a72c0035340a,2022-07-06_03h30.18.788,Colour_Asymmetry_Pilot,2022.1.3,Win32,59.71218726,62c50e9c1127f2cd403a315f,0,111,111,17,1,onethree,,,,,,,,,,,,,,,,,,,,,,,,,,,,,,,,,,,,,,,,,,,,,,,,,,,,,,,,,,,,,,,,,,,,,,,,,,,,,,,,,,,,,,,,,,,,,,,,,,,,,,,,,,,,,,,,,,,,,,,,,,,,,,,,,,,,,,,,,,,,,,,,,,,,,,,,,,,
,,,,,,5b77869d338a9300015468cf,62c539ebdcb3a72c0035340a,2022-07-06_03h30.18.788,Colour_Asymmetry_Pilot,2022.1.3,Win32,59.71218726,62c50e9c1127f2cd403a315f,0,112,112,44,1,threeone,,,,,,,,,,,,,,,,,,,,,,,,,,,,,,,,,,,,,,,,,,,,,,,,,,,,,,,,,,,,,,,,,,,,,,,,,,,,,,,,,,,,,,,,,,,,,,,,,,,,,,,,,,,,,,,,,,,,,,,,,,,,,,,,,,,,,,,,,,,,,,,,,,,,,,,,,,,
,,,,,,5b77869d338a9300015468cf,62c539ebdcb3a72c0035340a,2022-07-06_03h30.18.788,Colour_Asymmetry_Pilot,2022.1.3,Win32,59.71218726,62c50e9c1127f2cd403a315f,0,113,113,120,1,onetwo,,,,,,,,,,,,,,,,,,,,,,,,,,,,,,,,,,,,,,,,,,,,,,,,,,,,,,,,,,,,,,,,,,,,,,,,,,,,,,,,,,,,,,,,,,,,,,,,,,,,,,,,,,,,,,,,,,,,,,,,,,,,,,,,,,,,,,,,,,,,,,,,,,,,,,,,,,,
,,,,,,5b77869d338a9300015468cf,62c539ebdcb3a72c0035340a,2022-07-06_03h30.18.788,Colour_Asymmetry_Pilot,2022.1.3,Win32,59.71218726,62c50e9c1127f2cd403a315f,0,114,114,64,1,onetwo,,,,,,,,,,,,,,,,,,,,,,,,,,,,,,,,,,,,,,,,,,,,,,,,,,,,,,,,,,,,,,,,,,,,,,,,,,,,,,,,,,,,,,,,,,,,,,,,,,,,,,,,,,,,,,,,,,,,,,,,,,,,,,,,,,,,,,,,,,,,,,,,,,,,,,,,,,,
,,,,,,5b77869d338a9300015468cf,62c539ebdcb3a72c0035340a,2022-07-06_03h30.18.788,Colour_Asymmetry_Pilot,2022.1.3,Win32,59.71218726,62c50e9c1127f2cd403a315f,0,115,115,137,1,onethree,,,,,,,,,,,,,,,,,,,,,,,,,,,,,,,,,,,,,,,,,,,,,,,,,,,,,,,,,,,,,,,,,,,,,,,,,,,,,,,,,,,,,,,,,,,,,,,,,,,,,,,,,,,,,,,,,,,,,,,,,,,,,,,,,,,,,,,,,,,,,,,,,,,,,,,,,,,
,,,,,,5b77869d338a9300015468cf,62c539ebdcb3a72c0035340a,2022-07-06_03h30.18.788,Colour_Asymmetry_Pilot,2022.1.3,Win32,59.71218726,62c50e9c1127f2cd403a315f,0,116,116,135,1,fourthree,,,,,,,,,,,,,,,,,,,,,,,,,,,,,,,,,,,,,,,,,,,,,,,,,,,,,,,,,,,,,,,,,,,,,,,,,,,,,,,,,,,,,,,,,,,,,,,,,,,,,,,,,,,,,,,,,,,,,,,,,,,,,,,,,,,,,,,,,,,,,,,,,,,,,,,,,,,
,,,,,,5b77869d338a9300015468cf,62c539ebdcb3a72c0035340a,2022-07-06_03h30.18.788,Colour_Asymmetry_Pilot,2022.1.3,Win32,59.71218726,62c50e9c1127f2cd403a315f,0,117,117,65,1,onethree,,,,,,,,,,,,,,,,,,,,,,,,,,,,,,,,,,,,,,,,,,,,,,,,,,,,,,,,,,,,,,,,,,,,,,,,,,,,,,,,,,,,,,,,,,,,,,,,,,,,,,,,,,,,,,,,,,,,,,,,,,,,,,,,,,,,,,,,,,,,,,,,,,,,,,,,,,,
,,,,,,5b77869d338a9300015468cf,62c539ebdcb3a72c0035340a,2022-07-06_03h30.18.788,Colour_Asymmetry_Pilot,2022.1.3,Win32,59.71218726,62c50e9c1127f2cd403a315f,0,118,118,151,1,fourthree,,,,,,,,,,,,,,,,,,,,,,,,,,,,,,,,,,,,,,,,,,,,,,,,,,,,,,,,,,,,,,,,,,,,,,,,,,,,,,,,,,,,,,,,,,,,,,,,,,,,,,,,,,,,,,,,,,,,,,,,,,,,,,,,,,,,,,,,,,,,,,,,,,,,,,,,,,,
,,,,,,5b77869d338a9300015468cf,62c539ebdcb3a72c0035340a,2022-07-06_03h30.18.788,Colour_Asymmetry_Pilot,2022.1.3,Win32,59.71218726,62c50e9c1127f2cd403a315f,0,119,119,32,1,onetwo,,,,,,,,,,,,,,,,,,,,,,,,,,,,,,,,,,,,,,,,,,,,,,,,,,,,,,,,,,,,,,,,,,,,,,,,,,,,,,,,,,,,,,,,,,,,,,,,,,,,,,,,,,,,,,,,,,,,,,,,,,,,,,,,,,,,,,,,,,,,,,,,,,,,,,,,,,,
,,,,,,5b77869d338a9300015468cf,62c539ebdcb3a72c0035340a,2022-07-06_03h30.18.788,Colour_Asymmetry_Pilot,2022.1.3,Win32,59.71218726,62c50e9c1127f2cd403a315f,0,120,120,31,1,fourthree,,,,,,,,,,,,,,,,,,,,,,,,,,,,,,,,,,,,,,,,,,,,,,,,,,,,,,,,,,,,,,,,,,,,,,,,,,,,,,,,,,,,,,,,,,,,,,,,,,,,,,,,,,,,,,,,,,,,,,,,,,,,,,,,,,,,,,,,,,,,,,,,,,,,,,,,,,,
,,,,,,5b77869d338a9300015468cf,62c539ebdcb3a72c0035340a,2022-07-06_03h30.18.788,Colour_Asymmetry_Pilot,2022.1.3,Win32,59.71218726,62c50e9c1127f2cd403a315f,0,121,121,2,1,twoone,,,,,,,,,,,,,,,,,,,,,,,,,,,,,,,,,,,,,,,,,,,,,,,,,,,,,,,,,,,,,,,,,,,,,,,,,,,,,,,,,,,,,,,,,,,,,,,,,,,,,,,,,,,,,,,,,,,,,,,,,,,,,,,,,,,,,,,,,,,,,,,,,,,,,,,,,,,
,,,,,,5b77869d338a9300015468cf,62c539ebdcb3a72c0035340a,2022-07-06_03h30.18.788,Colour_Asymmetry_Pilot,2022.1.3,Win32,59.71218726,62c50e9c1127f2cd403a315f,0,122,122,127,1,fourthree,,,,,,,,,,,,,,,,,,,,,,,,,,,,,,,,,,,,,,,,,,,,,,,,,,,,,,,,,,,,,,,,,,,,,,,,,,,,,,,,,,,,,,,,,,,,,,,,,,,,,,,,,,,,,,,,,,,,,,,,,,,,,,,,,,,,,,,,,,,,,,,,,,,,,,,,,,,
,,,,,,5b77869d338a9300015468cf,62c539ebdcb3a72c0035340a,2022-07-06_03h30.18.788,Colour_Asymmetry_Pilot,2022.1.3,Win32,59.71218726,62c50e9c1127f2cd403a315f,0,123,123,117,1,threefour,,,,,,,,,,,,,,,,,,,,,,,,,,,,,,,,,,,,,,,,,,,,,,,,,,,,,,,,,,,,,,,,,,,,,,,,,,,,,,,,,,,,,,,,,,,,,,,,,,,,,,,,,,,,,,,,,,,,,,,,,,,,,,,,,,,,,,,,,,,,,,,,,,,,,,,,,,,
,,,,,,5b77869d338a9300015468cf,62c539ebdcb3a72c0035340a,2022-07-06_03h30.18.788,Colour_Asymmetry_Pilot,2022.1.3,Win32,59.71218726,62c50e9c1127f2cd403a315f,0,124,124,131,1,twofour,,,,,,,,,,,,,,,,,,,,,,,,,,,,,,,,,,,,,,,,,,,,,,,,,,,,,,,,,,,,,,,,,,,,,,,,,,,,,,,,,,,,,,,,,,,,,,,,,,,,,,,,,,,,,,,,,,,,,,,,,,,,,,,,,,,,,,,,,,,,,,,,,,,,,,,,,,,
,,,,,,5b77869d338a9300015468cf,62c539ebdcb3a72c0035340a,2022-07-06_03h30.18.788,Colour_Asymmetry_Pilot,2022.1.3,Win32,59.71218726,62c50e9c1127f2cd403a315f,0,125,125,80,1,onetwo,,,,,,,,,,,,,,,,,,,,,,,,,,,,,,,,,,,,,,,,,,,,,,,,,,,,,,,,,,,,,,,,,,,,,,,,,,,,,,,,,,,,,,,,,,,,,,,,,,,,,,,,,,,,,,,,,,,,,,,,,,,,,,,,,,,,,,,,,,,,,,,,,,,,,,,,,,,
,,,,,,5b77869d338a9300015468cf,62c539ebdcb3a72c0035340a,2022-07-06_03h30.18.788,Colour_Asymmetry_Pilot,2022.1.3,Win32,59.71218726,62c50e9c1127f2cd403a315f,0,126,126,29,1,threefour,,,,,,,,,,,,,,,,,,,,,,,,,,,,,,,,,,,,,,,,,,,,,,,,,,,,,,,,,,,,,,,,,,,,,,,,,,,,,,,,,,,,,,,,,,,,,,,,,,,,,,,,,,,,,,,,,,,,,,,,,,,,,,,,,,,,,,,,,,,,,,,,,,,,,,,,,,,
,,,,,,5b77869d338a9300015468cf,62c539ebdcb3a72c0035340a,2022-07-06_03h30.18.788,Colour_Asymmetry_Pilot,2022.1.3,Win32,59.71218726,62c50e9c1127f2cd403a315f,0,127,127,124,1,threeone,,,,,,,,,,,,,,,,,,,,,,,,,,,,,,,,,,,,,,,,,,,,,,,,,,,,,,,,,,,,,,,,,,,,,,,,,,,,,,,,,,,,,,,,,,,,,,,,,,,,,,,,,,,,,,,,,,,,,,,,,,,,,,,,,,,,,,,,,,,,,,,,,,,,,,,,,,,
,,,,,,5b77869d338a9300015468cf,62c539ebdcb3a72c0035340a,2022-07-06_03h30.18.788,Colour_Asymmetry_Pilot,2022.1.3,Win32,59.71218726,62c50e9c1127f2cd403a315f,0,128,128,43,1,twofour,,,,,,,,,,,,,,,,,,,,,,,,,,,,,,,,,,,,,,,,,,,,,,,,,,,,,,,,,,,,,,,,,,,,,,,,,,,,,,,,,,,,,,,,,,,,,,,,,,,,,,,,,,,,,,,,,,,,,,,,,,,,,,,,,,,,,,,,,,,,,,,,,,,,,,,,,,,
,,,,,,5b77869d338a9300015468cf,62c539ebdcb3a72c0035340a,2022-07-06_03h30.18.788,Colour_Asymmetry_Pilot,2022.1.3,Win32,59.71218726,62c50e9c1127f2cd403a315f,0,129,129,149,1,threefour,,,,,,,,,,,,,,,,,,,,,,,,,,,,,,,,,,,,,,,,,,,,,,,,,,,,,,,,,,,,,,,,,,,,,,,,,,,,,,,,,,,,,,,,,,,,,,,,,,,,,,,,,,,,,,,,,,,,,,,,,,,,,,,,,,,,,,,,,,,,,,,,,,,,,,,,,,,
,,,,,,5b77869d338a9300015468cf,62c539ebdcb3a72c0035340a,2022-07-06_03h30.18.788,Colour_Asymmetry_Pilot,2022.1.3,Win32,59.71218726,62c50e9c1127f2cd403a315f,0,130,130,139,1,twofour,,,,,,,,,,,,,,,,,,,,,,,,,,,,,,,,,,,,,,,,,,,,,,,,,,,,,,,,,,,,,,,,,,,,,,,,,,,,,,,,,,,,,,,,,,,,,,,,,,,,,,,,,,,,,,,,,,,,,,,,,,,,,,,,,,,,,,,,,,,,,,,,,,,,,,,,,,,
,,,,,,5b77869d338a9300015468cf,62c539ebdcb3a72c0035340a,2022-07-06_03h30.18.788,Colour_Asymmetry_Pilot,2022.1.3,Win32,59.71218726,62c50e9c1127f2cd403a315f,0,131,131,71,1,fourthree,,,,,,,,,,,,,,,,,,,,,,,,,,,,,,,,,,,,,,,,,,,,,,,,,,,,,,,,,,,,,,,,,,,,,,,,,,,,,,,,,,,,,,,,,,,,,,,,,,,,,,,,,,,,,,,,,,,,,,,,,,,,,,,,,,,,,,,,,,,,,,,,,,,,,,,,,,,
,,,,,,5b77869d338a9300015468cf,62c539ebdcb3a72c0035340a,2022-07-06_03h30.18.788,Colour_Asymmetry_Pilot,2022.1.3,Win32,59.71218726,62c50e9c1127f2cd403a315f,0,132,132,7,1,fourthree,,,,,,,,,,,,,,,,,,,,,,,,,,,,,,,,,,,,,,,,,,,,,,,,,,,,,,,,,,,,,,,,,,,,,,,,,,,,,,,,,,,,,,,,,,,,,,,,,,,,,,,,,,,,,,,,,,,,,,,,,,,,,,,,,,,,,,,,,,,,,,,,,,,,,,,,,,,
,,,,,,5b77869d338a9300015468cf,62c539ebdcb3a72c0035340a,2022-07-06_03h30.18.788,Colour_Asymmetry_Pilot,2022.1.3,Win32,59.71218726,62c50e9c1127f2cd403a315f,0,133,133,21,1,threefour,,,,,,,,,,,,,,,,,,,,,,,,,,,,,,,,,,,,,,,,,,,,,,,,,,,,,,,,,,,,,,,,,,,,,,,,,,,,,,,,,,,,,,,,,,,,,,,,,,,,,,,,,,,,,,,,,,,,,,,,,,,,,,,,,,,,,,,,,,,,,,,,,,,,,,,,,,,
,,,,,,5b77869d338a9300015468cf,62c539ebdcb3a72c0035340a,2022-07-06_03h30.18.788,Colour_Asymmetry_Pilot,2022.1.3,Win32,59.71218726,62c50e9c1127f2cd403a315f,0,134,134,152,1,onetwo,,,,,,,,,,,,,,,,,,,,,,,,,,,,,,,,,,,,,,,,,,,,,,,,,,,,,,,,,,,,,,,,,,,,,,,,,,,,,,,,,,,,,,,,,,,,,,,,,,,,,,,,,,,,,,,,,,,,,,,,,,,,,,,,,,,,,,,,,,,,,,,,,,,,,,,,,,,
,,,,,,5b77869d338a9300015468cf,62c539ebdcb3a72c0035340a,2022-07-06_03h30.18.788,Colour_Asymmetry_Pilot,2022.1.3,Win32,59.71218726,62c50e9c1127f2cd403a315f,0,135,135,42,1,twoone,,,,,,,,,,,,,,,,,,,,,,,,,,,,,,,,,,,,,,,,,,,,,,,,,,,,,,,,,,,,,,,,,,,,,,,,,,,,,,,,,,,,,,,,,,,,,,,,,,,,,,,,,,,,,,,,,,,,,,,,,,,,,,,,,,,,,,,,,,,,,,,,,,,,,,,,,,,
,,,,,,5b77869d338a9300015468cf,62c539ebdcb3a72c0035340a,2022-07-06_03h30.18.788,Colour_Asymmetry_Pilot,2022.1.3,Win32,59.71218726,62c50e9c1127f2cd403a315f,0,136,136,99,1,twofour,,,,,,,,,,,,,,,,,,,,,,,,,,,,,,,,,,,,,,,,,,,,,,,,,,,,,,,,,,,,,,,,,,,,,,,,,,,,,,,,,,,,,,,,,,,,,,,,,,,,,,,,,,,,,,,,,,,,,,,,,,,,,,,,,,,,,,,,,,,,,,,,,,,,,,,,,,,
,,,,,,5b77869d338a9300015468cf,62c539ebdcb3a72c0035340a,2022-07-06_03h30.18.788,Colour_Asymmetry_Pilot,2022.1.3,Win32,59.71218726,62c50e9c1127f2cd403a315f,0,137,137,121,1,onethree,,,,,,,,,,,,,,,,,,,,,,,,,,,,,,,,,,,,,,,,,,,,,,,,,,,,,,,,,,,,,,,,,,,,,,,,,,,,,,,,,,,,,,,,,,,,,,,,,,,,,,,,,,,,,,,,,,,,,,,,,,,,,,,,,,,,,,,,,,,,,,,,,,,,,,,,,,,
,,,,,,5b77869d338a9300015468cf,62c539ebdcb3a72c0035340a,2022-07-06_03h30.18.788,Colour_Asymmetry_Pilot,2022.1.3,Win32,59.71218726,62c50e9c1127f2cd403a315f,0,138,138,157,1,threefour,,,,,,,,,,,,,,,,,,,,,,,,,,,,,,,,,,,,,,,,,,,,,,,,,,,,,,,,,,,,,,,,,,,,,,,,,,,,,,,,,,,,,,,,,,,,,,,,,,,,,,,,,,,,,,,,,,,,,,,,,,,,,,,,,,,,,,,,,,,,,,,,,,,,,,,,,,,
,,,,,,5b77869d338a9300015468cf,62c539ebdcb3a72c0035340a,2022-07-06_03h30.18.788,Colour_Asymmetry_Pilot,2022.1.3,Win32,59.71218726,62c50e9c1127f2cd403a315f,0,139,139,52,1,threeone,,,,,,,,,,,,,,,,,,,,,,,,,,,,,,,,,,,,,,,,,,,,,,,,,,,,,,,,,,,,,,,,,,,,,,,,,,,,,,,,,,,,,,,,,,,,,,,,,,,,,,,,,,,,,,,,,,,,,,,,,,,,,,,,,,,,,,,,,,,,,,,,,,,,,,,,,,,
,,,,,,5b77869d338a9300015468cf,62c539ebdcb3a72c0035340a,2022-07-06_03h30.18.788,Colour_Asymmetry_Pilot,2022.1.3,Win32,59.71218726,62c50e9c1127f2cd403a315f,0,140,140,159,1,fourthree,,,,,,,,,,,,,,,,,,,,,,,,,,,,,,,,,,,,,,,,,,,,,,,,,,,,,,,,,,,,,,,,,,,,,,,,,,,,,,,,,,,,,,,,,,,,,,,,,,,,,,,,,,,,,,,,,,,,,,,,,,,,,,,,,,,,,,,,,,,,,,,,,,,,,,,,,,,
,,,,,,5b77869d338a9300015468cf,62c539ebdcb3a72c0035340a,2022-07-06_03h30.18.788,Colour_Asymmetry_Pilot,2022.1.3,Win32,59.71218726,62c50e9c1127f2cd403a315f,0,141,141,0,1,onetwo,,,,,,,,,,,,,,,,,,,,,,,,,,,,,,,,,,,,,,,,,,,,,,,,,,,,,,,,,,,,,,,,,,,,,,,,,,,,,,,,,,,,,,,,,,,,,,,,,,,,,,,,,,,,,,,,,,,,,,,,,,,,,,,,,,,,,,,,,,,,,,,,,,,,,,,,,,,
,,,,,,5b77869d338a9300015468cf,62c539ebdcb3a72c0035340a,2022-07-06_03h30.18.788,Colour_Asymmetry_Pilot,2022.1.3,Win32,59.71218726,62c50e9c1127f2cd403a315f,0,142,142,67,1,twofour,,,,,,,,,,,,,,,,,,,,,,,,,,,,,,,,,,,,,,,,,,,,,,,,,,,,,,,,,,,,,,,,,,,,,,,,,,,,,,,,,,,,,,,,,,,,,,,,,,,,,,,,,,,,,,,,,,,,,,,,,,,,,,,,,,,,,,,,,,,,,,,,,,,,,,,,,,,
,,,,,,5b77869d338a9300015468cf,62c539ebdcb3a72c0035340a,2022-07-06_03h30.18.788,Colour_Asymmetry_Pilot,2022.1.3,Win32,59.71218726,62c50e9c1127f2cd403a315f,0,143,143,66,1,twoone,,,,,,,,,,,,,,,,,,,,,,,,,,,,,,,,,,,,,,,,,,,,,,,,,,,,,,,,,,,,,,,,,,,,,,,,,,,,,,,,,,,,,,,,,,,,,,,,,,,,,,,,,,,,,,,,,,,,,,,,,,,,,,,,,,,,,,,,,,,,,,,,,,,,,,,,,,,
,,,,,,5b77869d338a9300015468cf,62c539ebdcb3a72c0035340a,2022-07-06_03h30.18.788,Colour_Asymmetry_Pilot,2022.1.3,Win32,59.71218726,62c50e9c1127f2cd403a315f,0,144,144,83,1,twofour,,,,,,,,,,,,,,,,,,,,,,,,,,,,,,,,,,,,,,,,,,,,,,,,,,,,,,,,,,,,,,,,,,,,,,,,,,,,,,,,,,,,,,,,,,,,,,,,,,,,,,,,,,,,,,,,,,,,,,,,,,,,,,,,,,,,,,,,,,,,,,,,,,,,,,,,,,,
,,,,,,5b77869d338a9300015468cf,62c539ebdcb3a72c0035340a,2022-07-06_03h30.18.788,Colour_Asymmetry_Pilot,2022.1.3,Win32,59.71218726,62c50e9c1127f2cd403a315f,0,145,145,60,1,threeone,,,,,,,,,,,,,,,,,,,,,,,,,,,,,,,,,,,,,,,,,,,,,,,,,,,,,,,,,,,,,,,,,,,,,,,,,,,,,,,,,,,,,,,,,,,,,,,,,,,,,,,,,,,,,,,,,,,,,,,,,,,,,,,,,,,,,,,,,,,,,,,,,,,,,,,,,,,
,,,,,,5b77869d338a9300015468cf,62c539ebdcb3a72c0035340a,2022-07-06_03h30.18.788,Colour_Asymmetry_Pilot,2022.1.3,Win32,59.71218726,62c50e9c1127f2cd403a315f,0,146,146,48,1,onetwo,,,,,,,,,,,,,,,,,,,,,,,,,,,,,,,,,,,,,,,,,,,,,,,,,,,,,,,,,,,,,,,,,,,,,,,,,,,,,,,,,,,,,,,,,,,,,,,,,,,,,,,,,,,,,,,,,,,,,,,,,,,,,,,,,,,,,,,,,,,,,,,,,,,,,,,,,,,
,,,,,,5b77869d338a9300015468cf,62c539ebdcb3a72c0035340a,2022-07-06_03h30.18.788,Colour_Asymmetry_Pilot,2022.1.3,Win32,59.71218726,62c50e9c1127f2cd403a315f,0,147,147,108,1,threeone,,,,,,,,,,,,,,,,,,,,,,,,,,,,,,,,,,,,,,,,,,,,,,,,,,,,,,,,,,,,,,,,,,,,,,,,,,,,,,,,,,,,,,,,,,,,,,,,,,,,,,,,,,,,,,,,,,,,,,,,,,,,,,,,,,,,,,,,,,,,,,,,,,,,,,,,,,,
,,,,,,5b77869d338a9300015468cf,62c539ebdcb3a72c0035340a,2022-07-06_03h30.18.788,Colour_Asymmetry_Pilot,2022.1.3,Win32,59.71218726,62c50e9c1127f2cd403a315f,0,148,148,37,1,threefour,,,,,,,,,,,,,,,,,,,,,,,,,,,,,,,,,,,,,,,,,,,,,,,,,,,,,,,,,,,,,,,,,,,,,,,,,,,,,,,,,,,,,,,,,,,,,,,,,,,,,,,,,,,,,,,,,,,,,,,,,,,,,,,,,,,,,,,,,,,,,,,,,,,,,,,,,,,
,,,,,,5b77869d338a9300015468cf,62c539ebdcb3a72c0035340a,2022-07-06_03h30.18.788,Colour_Asymmetry_Pilot,2022.1.3,Win32,59.71218726,62c50e9c1127f2cd403a315f,0,149,149,72,1,onetwo,,,,,,,,,,,,,,,,,,,,,,,,,,,,,,,,,,,,,,,,,,,,,,,,,,,,,,,,,,,,,,,,,,,,,,,,,,,,,,,,,,,,,,,,,,,,,,,,,,,,,,,,,,,,,,,,,,,,,,,,,,,,,,,,,,,,,,,,,,,,,,,,,,,,,,,,,,,
,,,,,,5b77869d338a9300015468cf,62c539ebdcb3a72c0035340a,2022-07-06_03h30.18.788,Colour_Asymmetry_Pilot,2022.1.3,Win32,59.71218726,62c50e9c1127f2cd403a315f,0,150,150,160,1,onetwo,,,,,,,,,,,,,,,,,,,,,,,,,,,,,,,,,,,,,,,,,,,,,,,,,,,,,,,,,,,,,,,,,,,,,,,,,,,,,,,,,,,,,,,,,,,,,,,,,,,,,,,,,,,,,,,,,,,,,,,,,,,,,,,,,,,,,,,,,,,,,,,,,,,,,,,,,,,
,,,,,,5b77869d338a9300015468cf,62c539ebdcb3a72c0035340a,2022-07-06_03h30.18.788,Colour_Asymmetry_Pilot,2022.1.3,Win32,59.71218726,62c50e9c1127f2cd403a315f,0,151,151,103,1,fourthree,,,,,,,,,,,,,,,,,,,,,,,,,,,,,,,,,,,,,,,,,,,,,,,,,,,,,,,,,,,,,,,,,,,,,,,,,,,,,,,,,,,,,,,,,,,,,,,,,,,,,,,,,,,,,,,,,,,,,,,,,,,,,,,,,,,,,,,,,,,,,,,,,,,,,,,,,,,
,,,,,,5b77869d338a9300015468cf,62c539ebdcb3a72c0035340a,2022-07-06_03h30.18.788,Colour_Asymmetry_Pilot,2022.1.3,Win32,59.71218726,62c50e9c1127f2cd403a315f,0,152,152,104,1,onetwo,,,,,,,,,,,,,,,,,,,,,,,,,,,,,,,,,,,,,,,,,,,,,,,,,,,,,,,,,,,,,,,,,,,,,,,,,,,,,,,,,,,,,,,,,,,,,,,,,,,,,,,,,,,,,,,,,,,,,,,,,,,,,,,,,,,,,,,,,,,,,,,,,,,,,,,,,,,
,,,,,,5b77869d338a9300015468cf,62c539ebdcb3a72c0035340a,2022-07-06_03h30.18.788,Colour_Asymmetry_Pilot,2022.1.3,Win32,59.71218726,62c50e9c1127f2cd403a315f,0,153,153,93,1,threefour,,,,,,,,,,,,,,,,,,,,,,,,,,,,,,,,,,,,,,,,,,,,,,,,,,,,,,,,,,,,,,,,,,,,,,,,,,,,,,,,,,,,,,,,,,,,,,,,,,,,,,,,,,,,,,,,,,,,,,,,,,,,,,,,,,,,,,,,,,,,,,,,,,,,,,,,,,,
,,,,,,5b77869d338a9300015468cf,62c539ebdcb3a72c0035340a,2022-07-06_03h30.18.788,Colour_Asymmetry_Pilot,2022.1.3,Win32,59.71218726,62c50e9c1127f2cd403a315f,0,154,154,73,1,onethree,,,,,,,,,,,,,,,,,,,,,,,,,,,,,,,,,,,,,,,,,,,,,,,,,,,,,,,,,,,,,,,,,,,,,,,,,,,,,,,,,,,,,,,,,,,,,,,,,,,,,,,,,,,,,,,,,,,,,,,,,,,,,,,,,,,,,,,,,,,,,,,,,,,,,,,,,,,
,,,,,,5b77869d338a9300015468cf,62c539ebdcb3a72c0035340a,2022-07-06_03h30.18.788,Colour_Asymmetry_Pilot,2022.1.3,Win32,59.71218726,62c50e9c1127f2cd403a315f,0,155,155,89,1,onethree,,,,,,,,,,,,,,,,,,,,,,,,,,,,,,,,,,,,,,,,,,,,,,,,,,,,,,,,,,,,,,,,,,,,,,,,,,,,,,,,,,,,,,,,,,,,,,,,,,,,,,,,,,,,,,,,,,,,,,,,,,,,,,,,,,,,,,,,,,,,,,,,,,,,,,,,,,,
,,,,,,5b77869d338a9300015468cf,62c539ebdcb3a72c0035340a,2022-07-06_03h30.18.788,Colour_Asymmetry_Pilot,2022.1.3,Win32,59.71218726,62c50e9c1127f2cd403a315f,0,156,156,20,1,threeone,,,,,,,,,,,,,,,,,,,,,,,,,,,,,,,,,,,,,,,,,,,,,,,,,,,,,,,,,,,,,,,,,,,,,,,,,,,,,,,,,,,,,,,,,,,,,,,,,,,,,,,,,,,,,,,,,,,,,,,,,,,,,,,,,,,,,,,,,,,,,,,,,,,,,,,,,,,
,,,,,,5b77869d338a9300015468cf,62c539ebdcb3a72c0035340a,2022-07-06_03h30.18.788,Colour_Asymmetry_Pilot,2022.1.3,Win32,59.71218726,62c50e9c1127f2cd403a315f,0,157,157,112,1,onetwo,,,,,,,,,,,,,,,,,,,,,,,,,,,,,,,,,,,,,,,,,,,,,,,,,,,,,,,,,,,,,,,,,,,,,,,,,,,,,,,,,,,,,,,,,,,,,,,,,,,,,,,,,,,,,,,,,,,,,,,,,,,,,,,,,,,,,,,,,,,,,,,,,,,,,,,,,,,
,,,,,,5b77869d338a9300015468cf,62c539ebdcb3a72c0035340a,2022-07-06_03h30.18.788,Colour_Asymmetry_Pilot,2022.1.3,Win32,59.71218726,62c50e9c1127f2cd403a315f,0,158,158,9,1,onethree,,,,,,,,,,,,,,,,,,,,,,,,,,,,,,,,,,,,,,,,,,,,,,,,,,,,,,,,,,,,,,,,,,,,,,,,,,,,,,,,,,,,,,,,,,,,,,,,,,,,,,,,,,,,,,,,,,,,,,,,,,,,,,,,,,,,,,,,,,,,,,,,,,,,,,,,,,,
,,,,,,5b77869d338a9300015468cf,62c539ebdcb3a72c0035340a,2022-07-06_03h30.18.788,Colour_Asymmetry_Pilot,2022.1.3,Win32,59.71218726,62c50e9c1127f2cd403a315f,0,159,159,8,1,onetwo,,,,,,,,,,,,,,,,,,,,,,,,,,,,,,,,,,,,,,,,,,,,,,,,,,,,,,,,,,,,,,,,,,,,,,,,,,,,,,,,,,,,,,,,,,,,,,,,,,,,,,,,,,,,,,,,,,,,,,,,,,,,,,,,,,,,,,,,,,,,,,,,,,,,,,,,,,,
,,,,,,5b77869d338a9300015468cf,62c539ebdcb3a72c0035340a,2022-07-06_03h30.18.788,Colour_Asymmetry_Pilot,2022.1.3,Win32,59.71218726,62c50e9c1127f2cd403a315f,0,160,160,13,1,threefour,,,,,,,,,,,,,,,,,,,,,,,,,,,,,,,,,,,,,,,,,,,,,,,,,,,,,,,,,,,,,,,,,,,,,,,,,,,,,,,,,,,,,,,,,,,,,,,,,,,,,,,,,,,,,,,,,,,,,,,,,,,,,,,,,,,,,,,,,,,,,,,,,,,,,,,,,,,
,,,,,,5b77869d338a9300015468cf,62c539ebdcb3a72c0035340a,2022-07-06_03h30.18.788,Colour_Asymmetry_Pilot,2022.1.3,Win32,59.71218726,62c50e9c1127f2cd403a315f,0,161,161,144,1,onetwo,,,,,,,,,,,,,,,,,,,,,,,,,,,,,,,,,,,,,,,,,,,,,,,,,,,,,,,,,,,,,,,,,,,,,,,,,,,,,,,,,,,,,,,,,,,,,,,,,,,,,,,,,,,,,,,,,,,,,,,,,,,,,,,,,,,,,,,,,,,,,,,,,,,,,,,,,,,
,,,,,,5b77869d338a9300015468cf,62c539ebdcb3a72c0035340a,2022-07-06_03h30.18.788,Colour_Asymmetry_Pilot,2022.1.3,Win32,59.71218726,62c50e9c1127f2cd403a315f,,,,,,,space,1.4075,space,3.5403,space,9.7429,space,7.4131,space,1.5697,space,3.3669,"[0.9372,0.20779999999999998,0.2704]",onethree,"[0.2862,0.7802,0.3568]",-3,6.8376,-122,36,1,0,0,response7disk_5,8,-3,1,0,0,rectangle_8,126,42,1,0,0,response1disk_7,6,3,6,-4,1,0,0,rectangle_4,0,0,0,0,1,,,,,,,,,,,,,,,,,,,,,,,,,,,,,,,,,,,,,,,,,,,,,,,,,,,,,,,,,,,,,,,,,,,,,,,,,,,,,,,,,,,,,,,,,,,,,,,,,,,,,,,,,,,
,,,,,,5b77869d338a9300015468cf,62c539ebdcb3a72c0035340a,2022-07-06_03h30.18.788,Colour_Asymmetry_Pilot,2022.1.3,Win32,59.71218726,62c50e9c1127f2cd403a315f,,,,,,,,,,,,,,,,,,,"[0.6625999999999999,0.4980000000000002,-0.357]",twoone,"[0.2862,0.7802,0.3568]",1,4.3332,43,-135,1,0,0,response3disk_5,25,-4,1,0,0,rectangle_8,25,-4,1,0,0,,,3,25,-4,1,0,0,,1,0,1,0,1,,,,,,,,,,,,,,,,,,,,,,,,,,,,,,,,,,,,,,,,,,,,,,,,,,,,,,,,,,,,,,,,,,,,,,,,,,,,,,,,,,,,,,,,,,,,,,,,,,,,,,,,,,,
,,,,,,5b77869d338a9300015468cf,62c539ebdcb3a72c0035340a,2022-07-06_03h30.18.788,Colour_Asymmetry_Pilot,2022.1.3,Win32,59.71218726,62c50e9c1127f2cd403a315f,,,,,,,,,,,,,,,,,,,"[0.34099999999999997,0.5841999999999998,-0.9844]",fourtwo,"[0.7646000000000002,0.07440000000000002,0.2704]",-2,2.4164,-111,-52,1,0,0,response5disk_5,2,4,1,0,0,rectangle_8,2,4,1,0,0,,,3,2,4,1,0,0,,2,0,2,0,1,,,,,,,,,,,,,,,,,,,,,,,,,,,,,,,,,,,,,,,,,,,,,,,,,,,,,,,,,,,,,,,,,,,,,,,,,,,,,,,,,,,,,,,,,,,,,,,,,,,,,,,,,,,
,,,,,,5b77869d338a9300015468cf,62c539ebdcb3a72c0035340a,2022-07-06_03h30.18.788,Colour_Asymmetry_Pilot,2022.1.3,Win32,59.71218726,62c50e9c1127f2cd403a315f,,,,,,,,,,,,,,,,,,,"[0.34099999999999997,0.12939999999999996,-0.9766]",fourtwo,"[1,0.12939999999999996,-1]",2,4.3662,113,-70,1,0,0,response3disk_5,28,-21,1,0,0,rectangle_8,131,31,1,0,0,response1disk_7,6,3,14,-6,1,0,0,rectangle_4,3,0,3,0,1,,,,,,,,,,,,,,,,,,,,,,,,,,,,,,,,,,,,,,,,,,,,,,,,,,,,,,,,,,,,,,,,,,,,,,,,,,,,,,,,,,,,,,,,,,,,,,,,,,,,,,,,,,,
,,,,,,5b77869d338a9300015468cf,62c539ebdcb3a72c0035340a,2022-07-06_03h30.18.788,Colour_Asymmetry_Pilot,2022.1.3,Win32,59.71218726,62c50e9c1127f2cd403a315f,,,,,,,,,,,,,,,,,,,"[-0.9766,-0.6472,0.07440000000000002]",threeone,"[0.11359999999999992,0.6312,0.5213999999999999]",1,1.7663,56,-124,1,0,0,response3disk_5,34,-16,1,0,0,rectangle_8,34,-16,1,0,0,,,3,34,-16,1,0,0,,4,0,4,0,1,,,,,,,,,,,,,,,,,,,,,,,,,,,,,,,,,,,,,,,,,,,,,,,,,,,,,,,,,,,,,,,,,,,,,,,,,,,,,,,,,,,,,,,,,,,,,,,,,,,,,,,,,,,
,,,,,,5b77869d338a9300015468cf,62c539ebdcb3a72c0035340a,2022-07-06_03h30.18.788,Colour_Asymmetry_Pilot,2022.1.3,Win32,59.71218726,62c50e9c1127f2cd403a315f,,,,,,,,,,,,,,,,,,,"[-0.2942,-0.7648,-0.7492000000000001]",fourthree,"[0.9686000000000001,0.3802000000000001,0.19999999999999996]",1,2.5,50,-141,1,0,0,response3disk_5,-5,8,1,0,0,rectangle_8,-5,8,1,0,0,,,3,-5,8,1,0,0,,5,0,5,0,1,,,,,,,,,,,,,,,,,,,,,,,,,,,,,,,,,,,,,,,,,,,,,,,,,,,,,,,,,,,,,,,,,,,,,,,,,,,,,,,,,,,,,,,,,,,,,,,,,,,,,,,,,,,
,,,,,,5b77869d338a9300015468cf,62c539ebdcb3a72c0035340a,2022-07-06_03h30.18.788,Colour_Asymmetry_Pilot,2022.1.3,Win32,59.71218726,62c50e9c1127f2cd403a315f,,,,,,,,,,,,,,,,,,,"[-0.4668,-0.8746,-0.2942]",fourtwo,"[-0.07459999999999989,0.12139999999999995,-0.9922]",-2,2.6491,-100,-62,1,0,0,response5disk_5,24,-10,1,0,0,rectangle_8,24,-10,1,0,0,,,3,24,-10,1,0,0,,6,0,6,0,1,,,,,,,,,,,,,,,,,,,,,,,,,,,,,,,,,,,,,,,,,,,,,,,,,,,,,,,,,,,,,,,,,,,,,,,,,,,,,,,,,,,,,,,,,,,,,,,,,,,,,,,,,,,
,,,,,,5b77869d338a9300015468cf,62c539ebdcb3a72c0035340a,2022-07-06_03h30.18.788,Colour_Asymmetry_Pilot,2022.1.3,Win32,59.71218726,62c50e9c1127f2cd403a315f,,,,,,,,,,,,,,,,,,,,onetwo,,-1,2.0659,,,,,,,,,,,,,,,,,,,,,,,,,,,,,,,,space,2.9539,"[0.40379999999999994,0.09000000000000008,0.44300000000000006]","[0.6625999999999999,0.4980000000000002,-0.357]",-47,-118,1,0,0,response5disk,-1,-17,1,0,0,rectangle,-1,-17,1,0,0,,1,0.0019,0,-1,-17,1,0,0,0,0,0,126,1,45,second,,,,,,,,,,,,,,,,,,,,,,,,,,,,,,,,,,,,,,,,,,,,,,,,,,,,,,,,,,,,,,,,,,,,,,
,,,,,,5b77869d338a9300015468cf,62c539ebdcb3a72c0035340a,2022-07-06_03h30.18.788,Colour_Asymmetry_Pilot,2022.1.3,Win32,59.71218726,62c50e9c1127f2cd403a315f,,,,,,,,,,,,,,,,,,,,twoone,,3,2.1492,,,,,,,,,,,,,,,,,,,,,,,,,,,,,,,,,,"[0.7018,0.7802,-0.16079999999999994]","[-0.26280000000000003,-0.2158,-0.3256]",115,30,1,0,0,response1disk,-6,-1,1,0,0,rectangle,-6,-1,1,0,0,,1,0.0003,0,-6,-1,1,0,0,0,1,1,42,1,42,first,,,,,,,,,,,,,,,,,,,,,,,,,,,,,,,,,,,,,,,,,,,,,,,,,,,,,,,,,,,,,,,,,,,,,,
,,,,,,5b77869d338a9300015468cf,62c539ebdcb3a72c0035340a,2022-07-06_03h30.18.788,Colour_Asymmetry_Pilot,2022.1.3,Win32,59.71218726,62c50e9c1127f2cd403a315f,,,,,,,,,,,,,,,,,,,,threefour,,-3,0.9998,,,,,,,,,,,,,,,,,,,,,,,,,,,,,,,,,,"[-0.9216,-0.5529999999999999,-0.3962]","[0.04299999999999993,0.16060000000000008,-0.6628000000000001]",-126,29,1,0,0,response7disk,-11,-9,1,0,0,rectangle,-11,-9,1,0,0,,2,0.0014,0,-11,-9,1,0,0,0,2,2,154,1,73,second,,,,,,,,,,,,,,,,,,,,,,,,,,,,,,,,,,,,,,,,,,,,,,,,,,,,,,,,,,,,,,,,,,,,,,
,,,,,,5b77869d338a9300015468cf,62c539ebdcb3a72c0035340a,2022-07-06_03h30.18.788,Colour_Asymmetry_Pilot,2022.1.3,Win32,59.71218726,62c50e9c1127f2cd403a315f,,,,,,,,,,,,,,,,,,,,fourtwo,,3,0.9828,,,,,,,,,,,,,,,,,,,,,,,,,,,,,,,,,,"[-0.4902000000000001,0.2704,-0.45899999999999996]","[-0.2942,-0.24719999999999998,-0.357]",124,39,1,0,0,response1disk,-23,4,1,0,0,rectangle,-23,4,1,0,0,,1,0.0009,0,-23,4,1,0,0,0,3,3,62,1,62,first,,,,,,,,,,,,,,,,,,,,,,,,,,,,,,,,,,,,,,,,,,,,,,,,,,,,,,,,,,,,,,,,,,,,,,
,,,,,,5b77869d338a9300015468cf,62c539ebdcb3a72c0035340a,2022-07-06_03h30.18.788,Colour_Asymmetry_Pilot,2022.1.3,Win32,59.71218726,62c50e9c1127f2cd403a315f,,,,,,,,,,,,,,,,,,,,fourtwo,,-3,1.2496,,,,,,,,,,,,,,,,,,,,,,,,,,,,,,,,,,"[-0.8982,-0.37259999999999993,0.2784]","[-0.0040000000000000036,0.02739999999999987,-0.08239999999999992]",-117,40,1,0,0,response7disk,25,-5,1,0,0,rectangle,25,-5,1,0,0,,3,0.0011,0,25,-5,1,0,0,0,4,4,157,1,76,second,,,,,,,,,,,,,,,,,,,,,,,,,,,,,,,,,,,,,,,,,,,,,,,,,,,,,,,,,,,,,,,,,,,,,,
,,,,,,5b77869d338a9300015468cf,62c539ebdcb3a72c0035340a,2022-07-06_03h30.18.788,Colour_Asymmetry_Pilot,2022.1.3,Win32,59.71218726,62c50e9c1127f2cd403a315f,,,,,,,,,,,,,,,,,,,,fourthree,,1,1.4161,,,,,,,,,,,,,,,,,,,,,,,,,,,,,,,,,,"[-0.26280000000000003,-0.2158,-0.3256]","[0.7018,0.7802,-0.16079999999999994]",64,-120,1,0,0,response3disk,-8,-8,1,0,0,rectangle,-8,-8,1,0,0,,1,0.0017,0,-8,-8,1,0,0,0,5,5,123,1,42,second,,,,,,,,,,,,,,,,,,,,,,,,,,,,,,,,,,,,,,,,,,,,,,,,,,,,,,,,,,,,,,,,,,,,,,
,,,,,,5b77869d338a9300015468cf,62c539ebdcb3a72c0035340a,2022-07-06_03h30.18.788,Colour_Asymmetry_Pilot,2022.1.3,Win32,59.71218726,62c50e9c1127f2cd403a315f,,,,,,,,,,,,,,,,,,,,onethree,,3,0.9503,,,,,,,,,,,,,,,,,,,,,,,,,,,,,,,,,,"[-0.4746,-0.0354000000000001,0.5449999999999999]","[-0.5688,-0.08239999999999992,-0.1844]",134,36,1,0,0,response1disk,-8,-2,1,0,0,rectangle,-8,-2,1,0,0,,3,0.0019,0,-8,-2,1,0,0,0,6,6,79,1,79,first,,,,,,,,,,,,,,,,,,,,,,,,,,,,,,,,,,,,,,,,,,,,,,,,,,,,,,,,,,,,,,,,,,,,,,
,,,,,,5b77869d338a9300015468cf,62c539ebdcb3a72c0035340a,2022-07-06_03h30.18.788,Colour_Asymmetry_Pilot,2022.1.3,Win32,59.71218726,62c50e9c1127f2cd403a315f,,,,,,,,,,,,,,,,,,,,twoone,,2,1.2999,,,,,,,,,,,,,,,,,,,,,,,,,,,,,,,,,,"[-0.4276,0.0038000000000000256,-0.3256]","[-0.09019999999999995,0.44300000000000006,0.5371999999999999]",130,-42,1,0,0,response3disk,5,-2,1,0,0,rectangle,5,-2,1,0,0,,2,0.0008,0,5,-2,1,0,0,0,7,7,111,1,30,second,,,,,,,,,,,,,,,,,,,,,,,,,,,,,,,,,,,,,,,,,,,,,,,,,,,,,,,,,,,,,,,,,,,,,,
,,,,,,5b77869d338a9300015468cf,62c539ebdcb3a72c0035340a,2022-07-06_03h30.18.788,Colour_Asymmetry_Pilot,2022.1.3,Win32,59.71218726,62c50e9c1127f2cd403a315f,,,,,,,,,,,,,,,,,,,,onethree,,3,2.4831,,,,,,,,,,,,,,,,,,,,,,,,,,,,,,,,,,"[0.3802000000000001,0.19199999999999995,-0.6394]","[0.4196,0.4665999999999999,0.3568]",120,50,1,0,0,response1disk,-1,1,1,0,0,rectangle,-1,1,1,0,0,,3,0.0009,0,-1,1,1,0,0,0,8,8,12,1,12,first,,,,,,,,,,,,,,,,,,,,,,,,,,,,,,,,,,,,,,,,,,,,,,,,,,,,,,,,,,,,,,,,,,,,,,
,,,,,,5b77869d338a9300015468cf,62c539ebdcb3a72c0035340a,2022-07-06_03h30.18.788,Colour_Asymmetry_Pilot,2022.1.3,Win32,59.71218726,62c50e9c1127f2cd403a315f,,,,,,,,,,,,,,,,,,,,twofour,,-1,1.6333,,,,,,,,,,,,,,,,,,,,,,,,,,,,,,,,,,"[-0.17659999999999998,-0.2864,-0.8354]","[-0.5922000000000001,-0.7492000000000001,-0.5296000000000001]",-79,-134,1,0,0,response5disk,14,-10,1,0,0,rectangle,14,-10,1,0,0,,2,0.0008,0,14,-10,1,0,0,0,9,9,114,1,33,second,,,,,,,,,,,,,,,,,,,,,,,,,,,,,,,,,,,,,,,,,,,,,,,,,,,,,,,,,,,,,,,,,,,,,,
,,,,,,5b77869d338a9300015468cf,62c539ebdcb3a72c0035340a,2022-07-06_03h30.18.788,Colour_Asymmetry_Pilot,2022.1.3,Win32,59.71218726,62c50e9c1127f2cd403a315f,,,,,,,,,,,,,,,,,,,,twoone,,-2,1.5829,,,,,,,,,,,,,,,,,,,,,,,,,,,,,,,,,,"[0.3568,-0.20799999999999996,-0.9844]","[0.7018,0.7176,0.6155999999999999]",-137,-75,1,0,0,response5disk,2,-4,1,0,0,rectangle,2,-4,1,0,0,,2,1E-04,0,2,-4,1,0,0,0,10,10,142,1,61,second,,,,,,,,,,,,,,,,,,,,,,,,,,,,,,,,,,,,,,,,,,,,,,,,,,,,,,,,,,,,,,,,,,,,,,
,,,,,,5b77869d338a9300015468cf,62c539ebdcb3a72c0035340a,2022-07-06_03h30.18.788,Colour_Asymmetry_Pilot,2022.1.3,Win32,59.71218726,62c50e9c1127f2cd403a315f,,,,,,,,,,,,,,,,,,,,twoone,,1,3.0665,,,,,,,,,,,,,,,,,,,,,,,,,,,,,,,,,,"[-0.6235999999999999,-0.6786,-0.08239999999999992]","[-0.24719999999999998,-0.0354000000000001,0.3175999999999999]",67,-89,1,0,0,response3disk,-7,-11,1,0,0,rectangle,-7,-11,1,0,0,,2,1E-04,0,-7,-11,1,0,0,0,11,11,91,1,10,second,,,,,,,,,,,,,,,,,,,,,,,,,,,,,,,,,,,,,,,,,,,,,,,,,,,,,,,,,,,,,,,,,,,,,,
,,,,,,5b77869d338a9300015468cf,62c539ebdcb3a72c0035340a,2022-07-06_03h30.18.788,Colour_Asymmetry_Pilot,2022.1.3,Win32,59.71218726,62c50e9c1127f2cd403a315f,,,,,,,,,,,,,,,,,,,,fourtwo,,-2,0.8165,,,,,,,,,,,,,,,,,,,,,,,,,,,,,,,,,,"[-0.26280000000000003,-0.4746,-0.2158]","[0.2784,-0.31000000000000005,-0.5452]",-102,-60,1,0,0,response5disk,23,8,1,0,0,rectangle,23,8,1,0,0,,2,0.0002,0,23,8,1,0,0,0,12,12,3,1,3,first,,,,,,,,,,,,,,,,,,,,,,,,,,,,,,,,,,,,,,,,,,,,,,,,,,,,,,,,,,,,,,,,,,,,,,
,,,,,,5b77869d338a9300015468cf,62c539ebdcb3a72c0035340a,2022-07-06_03h30.18.788,Colour_Asymmetry_Pilot,2022.1.3,Win32,59.71218726,62c50e9c1127f2cd403a315f,,,,,,,,,,,,,,,,,,,,threeone,,2,0.7829,,,,,,,,,,,,,,,,,,,,,,,,,,,,,,,,,,"[0.9686000000000001,0.3802000000000001,0.19999999999999996]","[0.9763999999999999,-0.1137999999999999,-0.6314]",111,-57,1,0,0,response3disk,21,2,1,0,0,rectangle,21,2,1,0,0,,3,0.001,0,21,2,1,0,0,0,13,13,83,1,2,second,,,,,,,,,,,,,,,,,,,,,,,,,,,,,,,,,,,,,,,,,,,,,,,,,,,,,,,,,,,,,,,,,,,,,,
,,,,,,5b77869d338a9300015468cf,62c539ebdcb3a72c0035340a,2022-07-06_03h30.18.788,Colour_Asymmetry_Pilot,2022.1.3,Win32,59.71218726,62c50e9c1127f2cd403a315f,,,,,,,,,,,,,,,,,,,,fourtwo,,4,0.583,,,,,,,,,,,,,,,,,,,,,,,,,,,,,,,,,,"[-0.38039999999999996,-0.4276,-0.1452]","[-0.38039999999999996,-0.4276,-0.1452]",30,126,1,0,0,response1disk,-2,1,1,0,0,rectangle,-2,1,1,0,0,,2,0.0009,0,-2,1,1,0,0,0,14,14,46,1,46,first,,,,,,,,,,,,,,,,,,,,,,,,,,,,,,,,,,,,,,,,,,,,,,,,,,,,,,,,,,,,,,,,,,,,,,
,,,,,,5b77869d338a9300015468cf,62c539ebdcb3a72c0035340a,2022-07-06_03h30.18.788,Colour_Asymmetry_Pilot,2022.1.3,Win32,59.71218726,62c50e9c1127f2cd403a315f,,,,,,,,,,,,,,,,,,,,twofour,,-4,0.5164,,,,,,,,,,,,,,,,,,,,,,,,,,,,,,,,,,"[-0.26280000000000003,-0.2158,-0.3256]","[0.7646000000000002,0.07440000000000002,0.2704]",-51,118,1,0,0,response7disk,6,-5,1,0,0,rectangle,6,-5,1,0,0,,2,1E-04,0,6,-5,1,0,0,0,15,15,40,1,40,first,,,,,,,,,,,,,,,,,,,,,,,,,,,,,,,,,,,,,,,,,,,,,,,,,,,,,,,,,,,,,,,,,,,,,,
,,,,,,5b77869d338a9300015468cf,62c539ebdcb3a72c0035340a,2022-07-06_03h30.18.788,Colour_Asymmetry_Pilot,2022.1.3,Win32,59.71218726,62c50e9c1127f2cd403a315f,,,,,,,,,,,,,,,,,,,,threefour,,-2,2.7009,,,,,,,,,,,,,,,,,,,,,,,,,,,,,,,,,,"[0.30180000000000007,-0.7884,-0.9844]","[0.34099999999999997,0.12939999999999996,-0.9766]",-108,-55,1,0,0,response5disk,27,-8,1,0,0,rectangle,27,-8,1,0,0,,3,0.0009,0,27,-8,1,0,0,0,16,16,148,1,67,second,,,,,,,,,,,,,,,,,,,,,,,,,,,,,,,,,,,,,,,,,,,,,,,,,,,,,,,,,,,,,,,,,,,,,,
,,,,,,5b77869d338a9300015468cf,62c539ebdcb3a72c0035340a,2022-07-06_03h30.18.788,Colour_Asymmetry_Pilot,2022.1.3,Win32,59.71218726,62c50e9c1127f2cd403a315f,,,,,,,,,,,,,,,,,,,,twofour,,1,1.7332,,,,,,,,,,,,,,,,,,,,,,,,,,,,,,,,,,"[-0.8982,-0.37259999999999993,0.2784]","[-0.5922000000000001,-0.7492000000000001,-0.5296000000000001]",61,-105,1,0,0,response3disk,-7,6,1,0,0,rectangle,-7,6,1,0,0,,1,0.0008,0,-7,6,1,0,0,0,17,17,147,1,66,second,,,,,,,,,,,,,,,,,,,,,,,,,,,,,,,,,,,,,,,,,,,,,,,,,,,,,,,,,,,,,,,,,,,,,,
,,,,,,5b77869d338a9300015468cf,62c539ebdcb3a72c0035340a,2022-07-06_03h30.18.788,Colour_Asymmetry_Pilot,2022.1.3,Win32,59.71218726,62c50e9c1127f2cd403a315f,,,,,,,,,,,,,,,,,,,,twofour,,1,1.3167,,,,,,,,,,,,,,,,,,,,,,,,,,,,,,,,,,"[-0.9844,-0.9688,-0.9922]","[0.23920000000000008,0.2704,0.16060000000000008]",44,-87,1,0,0,response3disk,-4,0,1,0,0,rectangle,-4,0,1,0,0,,1,1E-04,0,-4,0,1,0,0,0,18,18,95,1,14,second,,,,,,,,,,,,,,,,,,,,,,,,,,,,,,,,,,,,,,,,,,,,,,,,,,,,,,,,,,,,,,,,,,,,,,
