trials.thisRepN,trials.thisTrialN,trials.thisN,trials.thisIndex,trials.ran,Colourcodes,participant,session,date,expName,psychopyVersion,OS,frameRate,study_id,trials_4.thisRepN,trials_4.thisTrialN,trials_4.thisN,trials_4.thisIndex,trials_4.ran,StimulusPos,key_resp.keys,key_resp.rt,key_resp_2.keys,key_resp_2.rt,key_resp_15.keys,key_resp_15.rt,key_resp_17.keys,key_resp_17.rt,key_resp_9.keys,key_resp_9.rt,key_resp_10.keys,key_resp_10.rt,Circle1_col,Ecc,Circle2_col,similarity,response_time,mouse_5.x,mouse_5.y,mouse_5.leftButton,mouse_5.midButton,mouse_5.rightButton,mouse_5.clicked_name,mouse_10.x,mouse_10.y,mouse_10.leftButton,mouse_10.midButton,mouse_10.rightButton,mouse_10.clicked_name,mouse_7.x,mouse_7.y,mouse_7.leftButton,mouse_7.midButton,mouse_7.rightButton,mouse_7.clicked_name,catchprac,catchnumberprac,mouse_6.x,mouse_6.y,mouse_6.leftButton,mouse_6.midButton,mouse_6.rightButton,mouse_6.clicked_name,duringprac.thisRepN,duringprac.thisTrialN,duringprac.thisN,duringprac.thisIndex,duringprac.ran,key_resp_22.keys,key_resp_22.rt,Circle1_colour,Circle2_colour,mouse.x,mouse.y,mouse.leftButton,mouse.midButton,mouse.rightButton,mouse.clicked_name,mouse_2.x,mouse_2.y,mouse_2.leftButton,mouse_2.midButton,mouse_2.rightButton,mouse_2.clicked_name,mouse_3.x,mouse_3.y,mouse_3.leftButton,mouse_3.midButton,mouse_3.rightButton,catchresponse,catchnumber,response_time_catch,Catch,mouse_11.x,mouse_11.y,mouse_11.leftButton,mouse_11.midButton,mouse_11.rightButton,trials_2.thisRepN,trials_2.thisTrialN,trials_2.thisN,trials_2.thisIndex,trials_2.ran,Colourpair,Temporder,mouse_3.clicked_name,mouse_11.clicked_name,trials_3.thisRepN,trials_3.thisTrialN,trials_3.thisN,trials_3.thisIndex,trials_3.ran,key_resp_instr_Ishi.keys,key_resp_instr_Ishi.rt,Ishi_trial_keyresp.keys,Ishi_textbox.text,Ishi_mouse.x,Ishi_mouse.y,Ishi_mouse.leftButton,Ishi_mouse.midButton,Ishi_mouse.rightButton,Ishi_mouse.clicked_name,Ishi_loop.thisRepN,Ishi_loop.thisTrialN,Ishi_loop.thisN,Ishi_loop.thisIndex,Ishi_loop.ran,imageaddress,textbox.text,mouse_4.x,mouse_4.y,mouse_4.leftButton,mouse_4.midButton,mouse_4.rightButton,mouse_4.clicked_name,textbox_2.text,mouse_8.x,mouse_8.y,mouse_8.leftButton,mouse_8.midButton,mouse_8.rightButton,mouse_8.clicked_name,textbox_3.text,mouse_9.x,mouse_9.y,mouse_9.leftButton,mouse_9.midButton,mouse_9.rightButton,mouse_9.clicked_name,textbox_4.text,mouse_12.x,mouse_12.y,mouse_12.leftButton,mouse_12.midButton,mouse_12.rightButton,mouse_12.clicked_name,textbox_5.text,mouse_13.x,mouse_13.y,mouse_13.leftButton,mouse_13.midButton,mouse_13.rightButton,mouse_13.clicked_name,textbox_6.text,mouse_14.x,mouse_14.y,mouse_14.leftButton,mouse_14.midButton,mouse_14.rightButton,mouse_14.clicked_name,textbox_7.text,mouse_15.x,mouse_15.y,mouse_15.leftButton,mouse_15.midButton,mouse_15.rightButton,mouse_15.clicked_name
0,0,0,7,1,,6131df33c2388c23af8f09b1,62c53a92ecd659bb0b2aae92,2022-07-06_09h33.02.153,Colour_Asymmetry_Pilot,2022.1.3,Win32,59.70505702,62c50e9c1127f2cd403a315f,,,,,,,,,,,,,,,,,,,,,,,,,,,,,,,,,,,,,,,,,,,,,,,,,,,,,,,,,,,,,,,,,,,,,,,,,,,,,,,,,,,,,,,,,,,,,,,,,,,,,,,,,,,,,,,,,,,,,,,,,,,,,,,,,,,,,,,,,,,,,,,,,,,,,,,,,,,,,,,,,,,
0,1,1,30,1,,6131df33c2388c23af8f09b1,62c53a92ecd659bb0b2aae92,2022-07-06_09h33.02.153,Colour_Asymmetry_Pilot,2022.1.3,Win32,59.70505702,62c50e9c1127f2cd403a315f,,,,,,,,,,,,,,,,,,,,,,,,,,,,,,,,,,,,,,,,,,,,,,,,,,,,,,,,,,,,,,,,,,,,,,,,,,,,,,,,,,,,,,,,,,,,,,,,,,,,,,,,,,,,,,,,,,,,,,,,,,,,,,,,,,,,,,,,,,,,,,,,,,,,,,,,,,,,,,,,,,,
0,2,2,67,1,,6131df33c2388c23af8f09b1,62c53a92ecd659bb0b2aae92,2022-07-06_09h33.02.153,Colour_Asymmetry_Pilot,2022.1.3,Win32,59.70505702,62c50e9c1127f2cd403a315f,,,,,,,,,,,,,,,,,,,,,,,,,,,,,,,,,,,,,,,,,,,,,,,,,,,,,,,,,,,,,,,,,,,,,,,,,,,,,,,,,,,,,,,,,,,,,,,,,,,,,,,,,,,,,,,,,,,,,,,,,,,,,,,,,,,,,,,,,,,,,,,,,,,,,,,,,,,,,,,,,,,
0,3,3,73,1,,6131df33c2388c23af8f09b1,62c53a92ecd659bb0b2aae92,2022-07-06_09h33.02.153,Colour_Asymmetry_Pilot,2022.1.3,Win32,59.70505702,62c50e9c1127f2cd403a315f,,,,,,,,,,,,,,,,,,,,,,,,,,,,,,,,,,,,,,,,,,,,,,,,,,,,,,,,,,,,,,,,,,,,,,,,,,,,,,,,,,,,,,,,,,,,,,,,,,,,,,,,,,,,,,,,,,,,,,,,,,,,,,,,,,,,,,,,,,,,,,,,,,,,,,,,,,,,,,,,,,,
0,4,4,64,1,,6131df33c2388c23af8f09b1,62c53a92ecd659bb0b2aae92,2022-07-06_09h33.02.153,Colour_Asymmetry_Pilot,2022.1.3,Win32,59.70505702,62c50e9c1127f2cd403a315f,,,,,,,,,,,,,,,,,,,,,,,,,,,,,,,,,,,,,,,,,,,,,,,,,,,,,,,,,,,,,,,,,,,,,,,,,,,,,,,,,,,,,,,,,,,,,,,,,,,,,,,,,,,,,,,,,,,,,,,,,,,,,,,,,,,,,,,,,,,,,,,,,,,,,,,,,,,,,,,,,,,
0,5,5,83,1,,6131df33c2388c23af8f09b1,62c53a92ecd659bb0b2aae92,2022-07-06_09h33.02.153,Colour_Asymmetry_Pilot,2022.1.3,Win32,59.70505702,62c50e9c1127f2cd403a315f,,,,,,,,,,,,,,,,,,,,,,,,,,,,,,,,,,,,,,,,,,,,,,,,,,,,,,,,,,,,,,,,,,,,,,,,,,,,,,,,,,,,,,,,,,,,,,,,,,,,,,,,,,,,,,,,,,,,,,,,,,,,,,,,,,,,,,,,,,,,,,,,,,,,,,,,,,,,,,,,,,,
0,6,6,85,1,,6131df33c2388c23af8f09b1,62c53a92ecd659bb0b2aae92,2022-07-06_09h33.02.153,Colour_Asymmetry_Pilot,2022.1.3,Win32,59.70505702,62c50e9c1127f2cd403a315f,,,,,,,,,,,,,,,,,,,,,,,,,,,,,,,,,,,,,,,,,,,,,,,,,,,,,,,,,,,,,,,,,,,,,,,,,,,,,,,,,,,,,,,,,,,,,,,,,,,,,,,,,,,,,,,,,,,,,,,,,,,,,,,,,,,,,,,,,,,,,,,,,,,,,,,,,,,,,,,,,,,
0,7,7,54,1,,6131df33c2388c23af8f09b1,62c53a92ecd659bb0b2aae92,2022-07-06_09h33.02.153,Colour_Asymmetry_Pilot,2022.1.3,Win32,59.70505702,62c50e9c1127f2cd403a315f,,,,,,,,,,,,,,,,,,,,,,,,,,,,,,,,,,,,,,,,,,,,,,,,,,,,,,,,,,,,,,,,,,,,,,,,,,,,,,,,,,,,,,,,,,,,,,,,,,,,,,,,,,,,,,,,,,,,,,,,,,,,,,,,,,,,,,,,,,,,,,,,,,,,,,,,,,,,,,,,,,,
0,8,8,56,1,,6131df33c2388c23af8f09b1,62c53a92ecd659bb0b2aae92,2022-07-06_09h33.02.153,Colour_Asymmetry_Pilot,2022.1.3,Win32,59.70505702,62c50e9c1127f2cd403a315f,,,,,,,,,,,,,,,,,,,,,,,,,,,,,,,,,,,,,,,,,,,,,,,,,,,,,,,,,,,,,,,,,,,,,,,,,,,,,,,,,,,,,,,,,,,,,,,,,,,,,,,,,,,,,,,,,,,,,,,,,,,,,,,,,,,,,,,,,,,,,,,,,,,,,,,,,,,,,,,,,,,
0,9,9,35,1,,6131df33c2388c23af8f09b1,62c53a92ecd659bb0b2aae92,2022-07-06_09h33.02.153,Colour_Asymmetry_Pilot,2022.1.3,Win32,59.70505702,62c50e9c1127f2cd403a315f,,,,,,,,,,,,,,,,,,,,,,,,,,,,,,,,,,,,,,,,,,,,,,,,,,,,,,,,,,,,,,,,,,,,,,,,,,,,,,,,,,,,,,,,,,,,,,,,,,,,,,,,,,,,,,,,,,,,,,,,,,,,,,,,,,,,,,,,,,,,,,,,,,,,,,,,,,,,,,,,,,,
0,10,10,4,1,,6131df33c2388c23af8f09b1,62c53a92ecd659bb0b2aae92,2022-07-06_09h33.02.153,Colour_Asymmetry_Pilot,2022.1.3,Win32,59.70505702,62c50e9c1127f2cd403a315f,,,,,,,,,,,,,,,,,,,,,,,,,,,,,,,,,,,,,,,,,,,,,,,,,,,,,,,,,,,,,,,,,,,,,,,,,,,,,,,,,,,,,,,,,,,,,,,,,,,,,,,,,,,,,,,,,,,,,,,,,,,,,,,,,,,,,,,,,,,,,,,,,,,,,,,,,,,,,,,,,,,
0,11,11,50,1,,6131df33c2388c23af8f09b1,62c53a92ecd659bb0b2aae92,2022-07-06_09h33.02.153,Colour_Asymmetry_Pilot,2022.1.3,Win32,59.70505702,62c50e9c1127f2cd403a315f,,,,,,,,,,,,,,,,,,,,,,,,,,,,,,,,,,,,,,,,,,,,,,,,,,,,,,,,,,,,,,,,,,,,,,,,,,,,,,,,,,,,,,,,,,,,,,,,,,,,,,,,,,,,,,,,,,,,,,,,,,,,,,,,,,,,,,,,,,,,,,,,,,,,,,,,,,,,,,,,,,,
0,12,12,72,1,,6131df33c2388c23af8f09b1,62c53a92ecd659bb0b2aae92,2022-07-06_09h33.02.153,Colour_Asymmetry_Pilot,2022.1.3,Win32,59.70505702,62c50e9c1127f2cd403a315f,,,,,,,,,,,,,,,,,,,,,,,,,,,,,,,,,,,,,,,,,,,,,,,,,,,,,,,,,,,,,,,,,,,,,,,,,,,,,,,,,,,,,,,,,,,,,,,,,,,,,,,,,,,,,,,,,,,,,,,,,,,,,,,,,,,,,,,,,,,,,,,,,,,,,,,,,,,,,,,,,,,
0,13,13,74,1,,6131df33c2388c23af8f09b1,62c53a92ecd659bb0b2aae92,2022-07-06_09h33.02.153,Colour_Asymmetry_Pilot,2022.1.3,Win32,59.70505702,62c50e9c1127f2cd403a315f,,,,,,,,,,,,,,,,,,,,,,,,,,,,,,,,,,,,,,,,,,,,,,,,,,,,,,,,,,,,,,,,,,,,,,,,,,,,,,,,,,,,,,,,,,,,,,,,,,,,,,,,,,,,,,,,,,,,,,,,,,,,,,,,,,,,,,,,,,,,,,,,,,,,,,,,,,,,,,,,,,,
0,14,14,29,1,,6131df33c2388c23af8f09b1,62c53a92ecd659bb0b2aae92,2022-07-06_09h33.02.153,Colour_Asymmetry_Pilot,2022.1.3,Win32,59.70505702,62c50e9c1127f2cd403a315f,,,,,,,,,,,,,,,,,,,,,,,,,,,,,,,,,,,,,,,,,,,,,,,,,,,,,,,,,,,,,,,,,,,,,,,,,,,,,,,,,,,,,,,,,,,,,,,,,,,,,,,,,,,,,,,,,,,,,,,,,,,,,,,,,,,,,,,,,,,,,,,,,,,,,,,,,,,,,,,,,,,
0,15,15,34,1,,6131df33c2388c23af8f09b1,62c53a92ecd659bb0b2aae92,2022-07-06_09h33.02.153,Colour_Asymmetry_Pilot,2022.1.3,Win32,59.70505702,62c50e9c1127f2cd403a315f,,,,,,,,,,,,,,,,,,,,,,,,,,,,,,,,,,,,,,,,,,,,,,,,,,,,,,,,,,,,,,,,,,,,,,,,,,,,,,,,,,,,,,,,,,,,,,,,,,,,,,,,,,,,,,,,,,,,,,,,,,,,,,,,,,,,,,,,,,,,,,,,,,,,,,,,,,,,,,,,,,,
0,16,16,78,1,,6131df33c2388c23af8f09b1,62c53a92ecd659bb0b2aae92,2022-07-06_09h33.02.153,Colour_Asymmetry_Pilot,2022.1.3,Win32,59.70505702,62c50e9c1127f2cd403a315f,,,,,,,,,,,,,,,,,,,,,,,,,,,,,,,,,,,,,,,,,,,,,,,,,,,,,,,,,,,,,,,,,,,,,,,,,,,,,,,,,,,,,,,,,,,,,,,,,,,,,,,,,,,,,,,,,,,,,,,,,,,,,,,,,,,,,,,,,,,,,,,,,,,,,,,,,,,,,,,,,,,
0,17,17,84,1,,6131df33c2388c23af8f09b1,62c53a92ecd659bb0b2aae92,2022-07-06_09h33.02.153,Colour_Asymmetry_Pilot,2022.1.3,Win32,59.70505702,62c50e9c1127f2cd403a315f,,,,,,,,,,,,,,,,,,,,,,,,,,,,,,,,,,,,,,,,,,,,,,,,,,,,,,,,,,,,,,,,,,,,,,,,,,,,,,,,,,,,,,,,,,,,,,,,,,,,,,,,,,,,,,,,,,,,,,,,,,,,,,,,,,,,,,,,,,,,,,,,,,,,,,,,,,,,,,,,,,,
0,18,18,51,1,,6131df33c2388c23af8f09b1,62c53a92ecd659bb0b2aae92,2022-07-06_09h33.02.153,Colour_Asymmetry_Pilot,2022.1.3,Win32,59.70505702,62c50e9c1127f2cd403a315f,,,,,,,,,,,,,,,,,,,,,,,,,,,,,,,,,,,,,,,,,,,,,,,,,,,,,,,,,,,,,,,,,,,,,,,,,,,,,,,,,,,,,,,,,,,,,,,,,,,,,,,,,,,,,,,,,,,,,,,,,,,,,,,,,,,,,,,,,,,,,,,,,,,,,,,,,,,,,,,,,,,
0,19,19,25,1,,6131df33c2388c23af8f09b1,62c53a92ecd659bb0b2aae92,2022-07-06_09h33.02.153,Colour_Asymmetry_Pilot,2022.1.3,Win32,59.70505702,62c50e9c1127f2cd403a315f,,,,,,,,,,,,,,,,,,,,,,,,,,,,,,,,,,,,,,,,,,,,,,,,,,,,,,,,,,,,,,,,,,,,,,,,,,,,,,,,,,,,,,,,,,,,,,,,,,,,,,,,,,,,,,,,,,,,,,,,,,,,,,,,,,,,,,,,,,,,,,,,,,,,,,,,,,,,,,,,,,,
0,20,20,88,1,,6131df33c2388c23af8f09b1,62c53a92ecd659bb0b2aae92,2022-07-06_09h33.02.153,Colour_Asymmetry_Pilot,2022.1.3,Win32,59.70505702,62c50e9c1127f2cd403a315f,,,,,,,,,,,,,,,,,,,,,,,,,,,,,,,,,,,,,,,,,,,,,,,,,,,,,,,,,,,,,,,,,,,,,,,,,,,,,,,,,,,,,,,,,,,,,,,,,,,,,,,,,,,,,,,,,,,,,,,,,,,,,,,,,,,,,,,,,,,,,,,,,,,,,,,,,,,,,,,,,,,
0,21,21,40,1,,6131df33c2388c23af8f09b1,62c53a92ecd659bb0b2aae92,2022-07-06_09h33.02.153,Colour_Asymmetry_Pilot,2022.1.3,Win32,59.70505702,62c50e9c1127f2cd403a315f,,,,,,,,,,,,,,,,,,,,,,,,,,,,,,,,,,,,,,,,,,,,,,,,,,,,,,,,,,,,,,,,,,,,,,,,,,,,,,,,,,,,,,,,,,,,,,,,,,,,,,,,,,,,,,,,,,,,,,,,,,,,,,,,,,,,,,,,,,,,,,,,,,,,,,,,,,,,,,,,,,,
0,22,22,46,1,,6131df33c2388c23af8f09b1,62c53a92ecd659bb0b2aae92,2022-07-06_09h33.02.153,Colour_Asymmetry_Pilot,2022.1.3,Win32,59.70505702,62c50e9c1127f2cd403a315f,,,,,,,,,,,,,,,,,,,,,,,,,,,,,,,,,,,,,,,,,,,,,,,,,,,,,,,,,,,,,,,,,,,,,,,,,,,,,,,,,,,,,,,,,,,,,,,,,,,,,,,,,,,,,,,,,,,,,,,,,,,,,,,,,,,,,,,,,,,,,,,,,,,,,,,,,,,,,,,,,,,
0,23,23,37,1,,6131df33c2388c23af8f09b1,62c53a92ecd659bb0b2aae92,2022-07-06_09h33.02.153,Colour_Asymmetry_Pilot,2022.1.3,Win32,59.70505702,62c50e9c1127f2cd403a315f,,,,,,,,,,,,,,,,,,,,,,,,,,,,,,,,,,,,,,,,,,,,,,,,,,,,,,,,,,,,,,,,,,,,,,,,,,,,,,,,,,,,,,,,,,,,,,,,,,,,,,,,,,,,,,,,,,,,,,,,,,,,,,,,,,,,,,,,,,,,,,,,,,,,,,,,,,,,,,,,,,,
0,24,24,18,1,,6131df33c2388c23af8f09b1,62c53a92ecd659bb0b2aae92,2022-07-06_09h33.02.153,Colour_Asymmetry_Pilot,2022.1.3,Win32,59.70505702,62c50e9c1127f2cd403a315f,,,,,,,,,,,,,,,,,,,,,,,,,,,,,,,,,,,,,,,,,,,,,,,,,,,,,,,,,,,,,,,,,,,,,,,,,,,,,,,,,,,,,,,,,,,,,,,,,,,,,,,,,,,,,,,,,,,,,,,,,,,,,,,,,,,,,,,,,,,,,,,,,,,,,,,,,,,,,,,,,,,
0,25,25,70,1,,6131df33c2388c23af8f09b1,62c53a92ecd659bb0b2aae92,2022-07-06_09h33.02.153,Colour_Asymmetry_Pilot,2022.1.3,Win32,59.70505702,62c50e9c1127f2cd403a315f,,,,,,,,,,,,,,,,,,,,,,,,,,,,,,,,,,,,,,,,,,,,,,,,,,,,,,,,,,,,,,,,,,,,,,,,,,,,,,,,,,,,,,,,,,,,,,,,,,,,,,,,,,,,,,,,,,,,,,,,,,,,,,,,,,,,,,,,,,,,,,,,,,,,,,,,,,,,,,,,,,,
0,26,26,92,1,,6131df33c2388c23af8f09b1,62c53a92ecd659bb0b2aae92,2022-07-06_09h33.02.153,Colour_Asymmetry_Pilot,2022.1.3,Win32,59.70505702,62c50e9c1127f2cd403a315f,,,,,,,,,,,,,,,,,,,,,,,,,,,,,,,,,,,,,,,,,,,,,,,,,,,,,,,,,,,,,,,,,,,,,,,,,,,,,,,,,,,,,,,,,,,,,,,,,,,,,,,,,,,,,,,,,,,,,,,,,,,,,,,,,,,,,,,,,,,,,,,,,,,,,,,,,,,,,,,,,,,
0,27,27,19,1,,6131df33c2388c23af8f09b1,62c53a92ecd659bb0b2aae92,2022-07-06_09h33.02.153,Colour_Asymmetry_Pilot,2022.1.3,Win32,59.70505702,62c50e9c1127f2cd403a315f,,,,,,,,,,,,,,,,,,,,,,,,,,,,,,,,,,,,,,,,,,,,,,,,,,,,,,,,,,,,,,,,,,,,,,,,,,,,,,,,,,,,,,,,,,,,,,,,,,,,,,,,,,,,,,,,,,,,,,,,,,,,,,,,,,,,,,,,,,,,,,,,,,,,,,,,,,,,,,,,,,,
0,28,28,6,1,,6131df33c2388c23af8f09b1,62c53a92ecd659bb0b2aae92,2022-07-06_09h33.02.153,Colour_Asymmetry_Pilot,2022.1.3,Win32,59.70505702,62c50e9c1127f2cd403a315f,,,,,,,,,,,,,,,,,,,,,,,,,,,,,,,,,,,,,,,,,,,,,,,,,,,,,,,,,,,,,,,,,,,,,,,,,,,,,,,,,,,,,,,,,,,,,,,,,,,,,,,,,,,,,,,,,,,,,,,,,,,,,,,,,,,,,,,,,,,,,,,,,,,,,,,,,,,,,,,,,,,
0,29,29,80,1,,6131df33c2388c23af8f09b1,62c53a92ecd659bb0b2aae92,2022-07-06_09h33.02.153,Colour_Asymmetry_Pilot,2022.1.3,Win32,59.70505702,62c50e9c1127f2cd403a315f,,,,,,,,,,,,,,,,,,,,,,,,,,,,,,,,,,,,,,,,,,,,,,,,,,,,,,,,,,,,,,,,,,,,,,,,,,,,,,,,,,,,,,,,,,,,,,,,,,,,,,,,,,,,,,,,,,,,,,,,,,,,,,,,,,,,,,,,,,,,,,,,,,,,,,,,,,,,,,,,,,,
0,30,30,21,1,,6131df33c2388c23af8f09b1,62c53a92ecd659bb0b2aae92,2022-07-06_09h33.02.153,Colour_Asymmetry_Pilot,2022.1.3,Win32,59.70505702,62c50e9c1127f2cd403a315f,,,,,,,,,,,,,,,,,,,,,,,,,,,,,,,,,,,,,,,,,,,,,,,,,,,,,,,,,,,,,,,,,,,,,,,,,,,,,,,,,,,,,,,,,,,,,,,,,,,,,,,,,,,,,,,,,,,,,,,,,,,,,,,,,,,,,,,,,,,,,,,,,,,,,,,,,,,,,,,,,,,
0,31,31,5,1,,6131df33c2388c23af8f09b1,62c53a92ecd659bb0b2aae92,2022-07-06_09h33.02.153,Colour_Asymmetry_Pilot,2022.1.3,Win32,59.70505702,62c50e9c1127f2cd403a315f,,,,,,,,,,,,,,,,,,,,,,,,,,,,,,,,,,,,,,,,,,,,,,,,,,,,,,,,,,,,,,,,,,,,,,,,,,,,,,,,,,,,,,,,,,,,,,,,,,,,,,,,,,,,,,,,,,,,,,,,,,,,,,,,,,,,,,,,,,,,,,,,,,,,,,,,,,,,,,,,,,,
0,32,32,48,1,,6131df33c2388c23af8f09b1,62c53a92ecd659bb0b2aae92,2022-07-06_09h33.02.153,Colour_Asymmetry_Pilot,2022.1.3,Win32,59.70505702,62c50e9c1127f2cd403a315f,,,,,,,,,,,,,,,,,,,,,,,,,,,,,,,,,,,,,,,,,,,,,,,,,,,,,,,,,,,,,,,,,,,,,,,,,,,,,,,,,,,,,,,,,,,,,,,,,,,,,,,,,,,,,,,,,,,,,,,,,,,,,,,,,,,,,,,,,,,,,,,,,,,,,,,,,,,,,,,,,,,
0,33,33,23,1,,6131df33c2388c23af8f09b1,62c53a92ecd659bb0b2aae92,2022-07-06_09h33.02.153,Colour_Asymmetry_Pilot,2022.1.3,Win32,59.70505702,62c50e9c1127f2cd403a315f,,,,,,,,,,,,,,,,,,,,,,,,,,,,,,,,,,,,,,,,,,,,,,,,,,,,,,,,,,,,,,,,,,,,,,,,,,,,,,,,,,,,,,,,,,,,,,,,,,,,,,,,,,,,,,,,,,,,,,,,,,,,,,,,,,,,,,,,,,,,,,,,,,,,,,,,,,,,,,,,,,,
0,34,34,52,1,,6131df33c2388c23af8f09b1,62c53a92ecd659bb0b2aae92,2022-07-06_09h33.02.153,Colour_Asymmetry_Pilot,2022.1.3,Win32,59.70505702,62c50e9c1127f2cd403a315f,,,,,,,,,,,,,,,,,,,,,,,,,,,,,,,,,,,,,,,,,,,,,,,,,,,,,,,,,,,,,,,,,,,,,,,,,,,,,,,,,,,,,,,,,,,,,,,,,,,,,,,,,,,,,,,,,,,,,,,,,,,,,,,,,,,,,,,,,,,,,,,,,,,,,,,,,,,,,,,,,,,
0,35,35,68,1,,6131df33c2388c23af8f09b1,62c53a92ecd659bb0b2aae92,2022-07-06_09h33.02.153,Colour_Asymmetry_Pilot,2022.1.3,Win32,59.70505702,62c50e9c1127f2cd403a315f,,,,,,,,,,,,,,,,,,,,,,,,,,,,,,,,,,,,,,,,,,,,,,,,,,,,,,,,,,,,,,,,,,,,,,,,,,,,,,,,,,,,,,,,,,,,,,,,,,,,,,,,,,,,,,,,,,,,,,,,,,,,,,,,,,,,,,,,,,,,,,,,,,,,,,,,,,,,,,,,,,,
0,36,36,12,1,,6131df33c2388c23af8f09b1,62c53a92ecd659bb0b2aae92,2022-07-06_09h33.02.153,Colour_Asymmetry_Pilot,2022.1.3,Win32,59.70505702,62c50e9c1127f2cd403a315f,,,,,,,,,,,,,,,,,,,,,,,,,,,,,,,,,,,,,,,,,,,,,,,,,,,,,,,,,,,,,,,,,,,,,,,,,,,,,,,,,,,,,,,,,,,,,,,,,,,,,,,,,,,,,,,,,,,,,,,,,,,,,,,,,,,,,,,,,,,,,,,,,,,,,,,,,,,,,,,,,,,
0,37,37,41,1,,6131df33c2388c23af8f09b1,62c53a92ecd659bb0b2aae92,2022-07-06_09h33.02.153,Colour_Asymmetry_Pilot,2022.1.3,Win32,59.70505702,62c50e9c1127f2cd403a315f,,,,,,,,,,,,,,,,,,,,,,,,,,,,,,,,,,,,,,,,,,,,,,,,,,,,,,,,,,,,,,,,,,,,,,,,,,,,,,,,,,,,,,,,,,,,,,,,,,,,,,,,,,,,,,,,,,,,,,,,,,,,,,,,,,,,,,,,,,,,,,,,,,,,,,,,,,,,,,,,,,,
0,38,38,9,1,,6131df33c2388c23af8f09b1,62c53a92ecd659bb0b2aae92,2022-07-06_09h33.02.153,Colour_Asymmetry_Pilot,2022.1.3,Win32,59.70505702,62c50e9c1127f2cd403a315f,,,,,,,,,,,,,,,,,,,,,,,,,,,,,,,,,,,,,,,,,,,,,,,,,,,,,,,,,,,,,,,,,,,,,,,,,,,,,,,,,,,,,,,,,,,,,,,,,,,,,,,,,,,,,,,,,,,,,,,,,,,,,,,,,,,,,,,,,,,,,,,,,,,,,,,,,,,,,,,,,,,
0,39,39,77,1,,6131df33c2388c23af8f09b1,62c53a92ecd659bb0b2aae92,2022-07-06_09h33.02.153,Colour_Asymmetry_Pilot,2022.1.3,Win32,59.70505702,62c50e9c1127f2cd403a315f,,,,,,,,,,,,,,,,,,,,,,,,,,,,,,,,,,,,,,,,,,,,,,,,,,,,,,,,,,,,,,,,,,,,,,,,,,,,,,,,,,,,,,,,,,,,,,,,,,,,,,,,,,,,,,,,,,,,,,,,,,,,,,,,,,,,,,,,,,,,,,,,,,,,,,,,,,,,,,,,,,,
0,40,40,57,1,,6131df33c2388c23af8f09b1,62c53a92ecd659bb0b2aae92,2022-07-06_09h33.02.153,Colour_Asymmetry_Pilot,2022.1.3,Win32,59.70505702,62c50e9c1127f2cd403a315f,,,,,,,,,,,,,,,,,,,,,,,,,,,,,,,,,,,,,,,,,,,,,,,,,,,,,,,,,,,,,,,,,,,,,,,,,,,,,,,,,,,,,,,,,,,,,,,,,,,,,,,,,,,,,,,,,,,,,,,,,,,,,,,,,,,,,,,,,,,,,,,,,,,,,,,,,,,,,,,,,,,
0,41,41,58,1,,6131df33c2388c23af8f09b1,62c53a92ecd659bb0b2aae92,2022-07-06_09h33.02.153,Colour_Asymmetry_Pilot,2022.1.3,Win32,59.70505702,62c50e9c1127f2cd403a315f,,,,,,,,,,,,,,,,,,,,,,,,,,,,,,,,,,,,,,,,,,,,,,,,,,,,,,,,,,,,,,,,,,,,,,,,,,,,,,,,,,,,,,,,,,,,,,,,,,,,,,,,,,,,,,,,,,,,,,,,,,,,,,,,,,,,,,,,,,,,,,,,,,,,,,,,,,,,,,,,,,,
0,42,42,1,1,,6131df33c2388c23af8f09b1,62c53a92ecd659bb0b2aae92,2022-07-06_09h33.02.153,Colour_Asymmetry_Pilot,2022.1.3,Win32,59.70505702,62c50e9c1127f2cd403a315f,,,,,,,,,,,,,,,,,,,,,,,,,,,,,,,,,,,,,,,,,,,,,,,,,,,,,,,,,,,,,,,,,,,,,,,,,,,,,,,,,,,,,,,,,,,,,,,,,,,,,,,,,,,,,,,,,,,,,,,,,,,,,,,,,,,,,,,,,,,,,,,,,,,,,,,,,,,,,,,,,,,
0,43,43,28,1,,6131df33c2388c23af8f09b1,62c53a92ecd659bb0b2aae92,2022-07-06_09h33.02.153,Colour_Asymmetry_Pilot,2022.1.3,Win32,59.70505702,62c50e9c1127f2cd403a315f,,,,,,,,,,,,,,,,,,,,,,,,,,,,,,,,,,,,,,,,,,,,,,,,,,,,,,,,,,,,,,,,,,,,,,,,,,,,,,,,,,,,,,,,,,,,,,,,,,,,,,,,,,,,,,,,,,,,,,,,,,,,,,,,,,,,,,,,,,,,,,,,,,,,,,,,,,,,,,,,,,,
0,44,44,44,1,,6131df33c2388c23af8f09b1,62c53a92ecd659bb0b2aae92,2022-07-06_09h33.02.153,Colour_Asymmetry_Pilot,2022.1.3,Win32,59.70505702,62c50e9c1127f2cd403a315f,,,,,,,,,,,,,,,,,,,,,,,,,,,,,,,,,,,,,,,,,,,,,,,,,,,,,,,,,,,,,,,,,,,,,,,,,,,,,,,,,,,,,,,,,,,,,,,,,,,,,,,,,,,,,,,,,,,,,,,,,,,,,,,,,,,,,,,,,,,,,,,,,,,,,,,,,,,,,,,,,,,
0,45,45,33,1,,6131df33c2388c23af8f09b1,62c53a92ecd659bb0b2aae92,2022-07-06_09h33.02.153,Colour_Asymmetry_Pilot,2022.1.3,Win32,59.70505702,62c50e9c1127f2cd403a315f,,,,,,,,,,,,,,,,,,,,,,,,,,,,,,,,,,,,,,,,,,,,,,,,,,,,,,,,,,,,,,,,,,,,,,,,,,,,,,,,,,,,,,,,,,,,,,,,,,,,,,,,,,,,,,,,,,,,,,,,,,,,,,,,,,,,,,,,,,,,,,,,,,,,,,,,,,,,,,,,,,,
0,46,46,89,1,,6131df33c2388c23af8f09b1,62c53a92ecd659bb0b2aae92,2022-07-06_09h33.02.153,Colour_Asymmetry_Pilot,2022.1.3,Win32,59.70505702,62c50e9c1127f2cd403a315f,,,,,,,,,,,,,,,,,,,,,,,,,,,,,,,,,,,,,,,,,,,,,,,,,,,,,,,,,,,,,,,,,,,,,,,,,,,,,,,,,,,,,,,,,,,,,,,,,,,,,,,,,,,,,,,,,,,,,,,,,,,,,,,,,,,,,,,,,,,,,,,,,,,,,,,,,,,,,,,,,,,
0,47,47,69,1,,6131df33c2388c23af8f09b1,62c53a92ecd659bb0b2aae92,2022-07-06_09h33.02.153,Colour_Asymmetry_Pilot,2022.1.3,Win32,59.70505702,62c50e9c1127f2cd403a315f,,,,,,,,,,,,,,,,,,,,,,,,,,,,,,,,,,,,,,,,,,,,,,,,,,,,,,,,,,,,,,,,,,,,,,,,,,,,,,,,,,,,,,,,,,,,,,,,,,,,,,,,,,,,,,,,,,,,,,,,,,,,,,,,,,,,,,,,,,,,,,,,,,,,,,,,,,,,,,,,,,,
0,48,48,90,1,,6131df33c2388c23af8f09b1,62c53a92ecd659bb0b2aae92,2022-07-06_09h33.02.153,Colour_Asymmetry_Pilot,2022.1.3,Win32,59.70505702,62c50e9c1127f2cd403a315f,,,,,,,,,,,,,,,,,,,,,,,,,,,,,,,,,,,,,,,,,,,,,,,,,,,,,,,,,,,,,,,,,,,,,,,,,,,,,,,,,,,,,,,,,,,,,,,,,,,,,,,,,,,,,,,,,,,,,,,,,,,,,,,,,,,,,,,,,,,,,,,,,,,,,,,,,,,,,,,,,,,
0,49,49,10,1,,6131df33c2388c23af8f09b1,62c53a92ecd659bb0b2aae92,2022-07-06_09h33.02.153,Colour_Asymmetry_Pilot,2022.1.3,Win32,59.70505702,62c50e9c1127f2cd403a315f,,,,,,,,,,,,,,,,,,,,,,,,,,,,,,,,,,,,,,,,,,,,,,,,,,,,,,,,,,,,,,,,,,,,,,,,,,,,,,,,,,,,,,,,,,,,,,,,,,,,,,,,,,,,,,,,,,,,,,,,,,,,,,,,,,,,,,,,,,,,,,,,,,,,,,,,,,,,,,,,,,,
0,50,50,91,1,,6131df33c2388c23af8f09b1,62c53a92ecd659bb0b2aae92,2022-07-06_09h33.02.153,Colour_Asymmetry_Pilot,2022.1.3,Win32,59.70505702,62c50e9c1127f2cd403a315f,,,,,,,,,,,,,,,,,,,,,,,,,,,,,,,,,,,,,,,,,,,,,,,,,,,,,,,,,,,,,,,,,,,,,,,,,,,,,,,,,,,,,,,,,,,,,,,,,,,,,,,,,,,,,,,,,,,,,,,,,,,,,,,,,,,,,,,,,,,,,,,,,,,,,,,,,,,,,,,,,,,
0,51,51,20,1,,6131df33c2388c23af8f09b1,62c53a92ecd659bb0b2aae92,2022-07-06_09h33.02.153,Colour_Asymmetry_Pilot,2022.1.3,Win32,59.70505702,62c50e9c1127f2cd403a315f,,,,,,,,,,,,,,,,,,,,,,,,,,,,,,,,,,,,,,,,,,,,,,,,,,,,,,,,,,,,,,,,,,,,,,,,,,,,,,,,,,,,,,,,,,,,,,,,,,,,,,,,,,,,,,,,,,,,,,,,,,,,,,,,,,,,,,,,,,,,,,,,,,,,,,,,,,,,,,,,,,,
0,52,52,32,1,,6131df33c2388c23af8f09b1,62c53a92ecd659bb0b2aae92,2022-07-06_09h33.02.153,Colour_Asymmetry_Pilot,2022.1.3,Win32,59.70505702,62c50e9c1127f2cd403a315f,,,,,,,,,,,,,,,,,,,,,,,,,,,,,,,,,,,,,,,,,,,,,,,,,,,,,,,,,,,,,,,,,,,,,,,,,,,,,,,,,,,,,,,,,,,,,,,,,,,,,,,,,,,,,,,,,,,,,,,,,,,,,,,,,,,,,,,,,,,,,,,,,,,,,,,,,,,,,,,,,,,
0,53,53,60,1,,6131df33c2388c23af8f09b1,62c53a92ecd659bb0b2aae92,2022-07-06_09h33.02.153,Colour_Asymmetry_Pilot,2022.1.3,Win32,59.70505702,62c50e9c1127f2cd403a315f,,,,,,,,,,,,,,,,,,,,,,,,,,,,,,,,,,,,,,,,,,,,,,,,,,,,,,,,,,,,,,,,,,,,,,,,,,,,,,,,,,,,,,,,,,,,,,,,,,,,,,,,,,,,,,,,,,,,,,,,,,,,,,,,,,,,,,,,,,,,,,,,,,,,,,,,,,,,,,,,,,,
0,54,54,63,1,,6131df33c2388c23af8f09b1,62c53a92ecd659bb0b2aae92,2022-07-06_09h33.02.153,Colour_Asymmetry_Pilot,2022.1.3,Win32,59.70505702,62c50e9c1127f2cd403a315f,,,,,,,,,,,,,,,,,,,,,,,,,,,,,,,,,,,,,,,,,,,,,,,,,,,,,,,,,,,,,,,,,,,,,,,,,,,,,,,,,,,,,,,,,,,,,,,,,,,,,,,,,,,,,,,,,,,,,,,,,,,,,,,,,,,,,,,,,,,,,,,,,,,,,,,,,,,,,,,,,,,
0,55,55,17,1,,6131df33c2388c23af8f09b1,62c53a92ecd659bb0b2aae92,2022-07-06_09h33.02.153,Colour_Asymmetry_Pilot,2022.1.3,Win32,59.70505702,62c50e9c1127f2cd403a315f,,,,,,,,,,,,,,,,,,,,,,,,,,,,,,,,,,,,,,,,,,,,,,,,,,,,,,,,,,,,,,,,,,,,,,,,,,,,,,,,,,,,,,,,,,,,,,,,,,,,,,,,,,,,,,,,,,,,,,,,,,,,,,,,,,,,,,,,,,,,,,,,,,,,,,,,,,,,,,,,,,,
0,56,56,79,1,,6131df33c2388c23af8f09b1,62c53a92ecd659bb0b2aae92,2022-07-06_09h33.02.153,Colour_Asymmetry_Pilot,2022.1.3,Win32,59.70505702,62c50e9c1127f2cd403a315f,,,,,,,,,,,,,,,,,,,,,,,,,,,,,,,,,,,,,,,,,,,,,,,,,,,,,,,,,,,,,,,,,,,,,,,,,,,,,,,,,,,,,,,,,,,,,,,,,,,,,,,,,,,,,,,,,,,,,,,,,,,,,,,,,,,,,,,,,,,,,,,,,,,,,,,,,,,,,,,,,,,
0,57,57,42,1,,6131df33c2388c23af8f09b1,62c53a92ecd659bb0b2aae92,2022-07-06_09h33.02.153,Colour_Asymmetry_Pilot,2022.1.3,Win32,59.70505702,62c50e9c1127f2cd403a315f,,,,,,,,,,,,,,,,,,,,,,,,,,,,,,,,,,,,,,,,,,,,,,,,,,,,,,,,,,,,,,,,,,,,,,,,,,,,,,,,,,,,,,,,,,,,,,,,,,,,,,,,,,,,,,,,,,,,,,,,,,,,,,,,,,,,,,,,,,,,,,,,,,,,,,,,,,,,,,,,,,,
0,58,58,15,1,,6131df33c2388c23af8f09b1,62c53a92ecd659bb0b2aae92,2022-07-06_09h33.02.153,Colour_Asymmetry_Pilot,2022.1.3,Win32,59.70505702,62c50e9c1127f2cd403a315f,,,,,,,,,,,,,,,,,,,,,,,,,,,,,,,,,,,,,,,,,,,,,,,,,,,,,,,,,,,,,,,,,,,,,,,,,,,,,,,,,,,,,,,,,,,,,,,,,,,,,,,,,,,,,,,,,,,,,,,,,,,,,,,,,,,,,,,,,,,,,,,,,,,,,,,,,,,,,,,,,,,
0,59,59,0,1,,6131df33c2388c23af8f09b1,62c53a92ecd659bb0b2aae92,2022-07-06_09h33.02.153,Colour_Asymmetry_Pilot,2022.1.3,Win32,59.70505702,62c50e9c1127f2cd403a315f,,,,,,,,,,,,,,,,,,,,,,,,,,,,,,,,,,,,,,,,,,,,,,,,,,,,,,,,,,,,,,,,,,,,,,,,,,,,,,,,,,,,,,,,,,,,,,,,,,,,,,,,,,,,,,,,,,,,,,,,,,,,,,,,,,,,,,,,,,,,,,,,,,,,,,,,,,,,,,,,,,,
0,60,60,11,1,,6131df33c2388c23af8f09b1,62c53a92ecd659bb0b2aae92,2022-07-06_09h33.02.153,Colour_Asymmetry_Pilot,2022.1.3,Win32,59.70505702,62c50e9c1127f2cd403a315f,,,,,,,,,,,,,,,,,,,,,,,,,,,,,,,,,,,,,,,,,,,,,,,,,,,,,,,,,,,,,,,,,,,,,,,,,,,,,,,,,,,,,,,,,,,,,,,,,,,,,,,,,,,,,,,,,,,,,,,,,,,,,,,,,,,,,,,,,,,,,,,,,,,,,,,,,,,,,,,,,,,
0,61,61,66,1,,6131df33c2388c23af8f09b1,62c53a92ecd659bb0b2aae92,2022-07-06_09h33.02.153,Colour_Asymmetry_Pilot,2022.1.3,Win32,59.70505702,62c50e9c1127f2cd403a315f,,,,,,,,,,,,,,,,,,,,,,,,,,,,,,,,,,,,,,,,,,,,,,,,,,,,,,,,,,,,,,,,,,,,,,,,,,,,,,,,,,,,,,,,,,,,,,,,,,,,,,,,,,,,,,,,,,,,,,,,,,,,,,,,,,,,,,,,,,,,,,,,,,,,,,,,,,,,,,,,,,,
0,62,62,62,1,,6131df33c2388c23af8f09b1,62c53a92ecd659bb0b2aae92,2022-07-06_09h33.02.153,Colour_Asymmetry_Pilot,2022.1.3,Win32,59.70505702,62c50e9c1127f2cd403a315f,,,,,,,,,,,,,,,,,,,,,,,,,,,,,,,,,,,,,,,,,,,,,,,,,,,,,,,,,,,,,,,,,,,,,,,,,,,,,,,,,,,,,,,,,,,,,,,,,,,,,,,,,,,,,,,,,,,,,,,,,,,,,,,,,,,,,,,,,,,,,,,,,,,,,,,,,,,,,,,,,,,
0,63,63,55,1,,6131df33c2388c23af8f09b1,62c53a92ecd659bb0b2aae92,2022-07-06_09h33.02.153,Colour_Asymmetry_Pilot,2022.1.3,Win32,59.70505702,62c50e9c1127f2cd403a315f,,,,,,,,,,,,,,,,,,,,,,,,,,,,,,,,,,,,,,,,,,,,,,,,,,,,,,,,,,,,,,,,,,,,,,,,,,,,,,,,,,,,,,,,,,,,,,,,,,,,,,,,,,,,,,,,,,,,,,,,,,,,,,,,,,,,,,,,,,,,,,,,,,,,,,,,,,,,,,,,,,,
0,64,64,22,1,,6131df33c2388c23af8f09b1,62c53a92ecd659bb0b2aae92,2022-07-06_09h33.02.153,Colour_Asymmetry_Pilot,2022.1.3,Win32,59.70505702,62c50e9c1127f2cd403a315f,,,,,,,,,,,,,,,,,,,,,,,,,,,,,,,,,,,,,,,,,,,,,,,,,,,,,,,,,,,,,,,,,,,,,,,,,,,,,,,,,,,,,,,,,,,,,,,,,,,,,,,,,,,,,,,,,,,,,,,,,,,,,,,,,,,,,,,,,,,,,,,,,,,,,,,,,,,,,,,,,,,
0,65,65,86,1,,6131df33c2388c23af8f09b1,62c53a92ecd659bb0b2aae92,2022-07-06_09h33.02.153,Colour_Asymmetry_Pilot,2022.1.3,Win32,59.70505702,62c50e9c1127f2cd403a315f,,,,,,,,,,,,,,,,,,,,,,,,,,,,,,,,,,,,,,,,,,,,,,,,,,,,,,,,,,,,,,,,,,,,,,,,,,,,,,,,,,,,,,,,,,,,,,,,,,,,,,,,,,,,,,,,,,,,,,,,,,,,,,,,,,,,,,,,,,,,,,,,,,,,,,,,,,,,,,,,,,,
0,66,66,39,1,,6131df33c2388c23af8f09b1,62c53a92ecd659bb0b2aae92,2022-07-06_09h33.02.153,Colour_Asymmetry_Pilot,2022.1.3,Win32,59.70505702,62c50e9c1127f2cd403a315f,,,,,,,,,,,,,,,,,,,,,,,,,,,,,,,,,,,,,,,,,,,,,,,,,,,,,,,,,,,,,,,,,,,,,,,,,,,,,,,,,,,,,,,,,,,,,,,,,,,,,,,,,,,,,,,,,,,,,,,,,,,,,,,,,,,,,,,,,,,,,,,,,,,,,,,,,,,,,,,,,,,
0,67,67,47,1,,6131df33c2388c23af8f09b1,62c53a92ecd659bb0b2aae92,2022-07-06_09h33.02.153,Colour_Asymmetry_Pilot,2022.1.3,Win32,59.70505702,62c50e9c1127f2cd403a315f,,,,,,,,,,,,,,,,,,,,,,,,,,,,,,,,,,,,,,,,,,,,,,,,,,,,,,,,,,,,,,,,,,,,,,,,,,,,,,,,,,,,,,,,,,,,,,,,,,,,,,,,,,,,,,,,,,,,,,,,,,,,,,,,,,,,,,,,,,,,,,,,,,,,,,,,,,,,,,,,,,,
0,68,68,31,1,,6131df33c2388c23af8f09b1,62c53a92ecd659bb0b2aae92,2022-07-06_09h33.02.153,Colour_Asymmetry_Pilot,2022.1.3,Win32,59.70505702,62c50e9c1127f2cd403a315f,,,,,,,,,,,,,,,,,,,,,,,,,,,,,,,,,,,,,,,,,,,,,,,,,,,,,,,,,,,,,,,,,,,,,,,,,,,,,,,,,,,,,,,,,,,,,,,,,,,,,,,,,,,,,,,,,,,,,,,,,,,,,,,,,,,,,,,,,,,,,,,,,,,,,,,,,,,,,,,,,,,
0,69,69,45,1,,6131df33c2388c23af8f09b1,62c53a92ecd659bb0b2aae92,2022-07-06_09h33.02.153,Colour_Asymmetry_Pilot,2022.1.3,Win32,59.70505702,62c50e9c1127f2cd403a315f,,,,,,,,,,,,,,,,,,,,,,,,,,,,,,,,,,,,,,,,,,,,,,,,,,,,,,,,,,,,,,,,,,,,,,,,,,,,,,,,,,,,,,,,,,,,,,,,,,,,,,,,,,,,,,,,,,,,,,,,,,,,,,,,,,,,,,,,,,,,,,,,,,,,,,,,,,,,,,,,,,,
0,70,70,26,1,,6131df33c2388c23af8f09b1,62c53a92ecd659bb0b2aae92,2022-07-06_09h33.02.153,Colour_Asymmetry_Pilot,2022.1.3,Win32,59.70505702,62c50e9c1127f2cd403a315f,,,,,,,,,,,,,,,,,,,,,,,,,,,,,,,,,,,,,,,,,,,,,,,,,,,,,,,,,,,,,,,,,,,,,,,,,,,,,,,,,,,,,,,,,,,,,,,,,,,,,,,,,,,,,,,,,,,,,,,,,,,,,,,,,,,,,,,,,,,,,,,,,,,,,,,,,,,,,,,,,,,
0,71,71,87,1,,6131df33c2388c23af8f09b1,62c53a92ecd659bb0b2aae92,2022-07-06_09h33.02.153,Colour_Asymmetry_Pilot,2022.1.3,Win32,59.70505702,62c50e9c1127f2cd403a315f,,,,,,,,,,,,,,,,,,,,,,,,,,,,,,,,,,,,,,,,,,,,,,,,,,,,,,,,,,,,,,,,,,,,,,,,,,,,,,,,,,,,,,,,,,,,,,,,,,,,,,,,,,,,,,,,,,,,,,,,,,,,,,,,,,,,,,,,,,,,,,,,,,,,,,,,,,,,,,,,,,,
0,72,72,76,1,,6131df33c2388c23af8f09b1,62c53a92ecd659bb0b2aae92,2022-07-06_09h33.02.153,Colour_Asymmetry_Pilot,2022.1.3,Win32,59.70505702,62c50e9c1127f2cd403a315f,,,,,,,,,,,,,,,,,,,,,,,,,,,,,,,,,,,,,,,,,,,,,,,,,,,,,,,,,,,,,,,,,,,,,,,,,,,,,,,,,,,,,,,,,,,,,,,,,,,,,,,,,,,,,,,,,,,,,,,,,,,,,,,,,,,,,,,,,,,,,,,,,,,,,,,,,,,,,,,,,,,
0,73,73,49,1,,6131df33c2388c23af8f09b1,62c53a92ecd659bb0b2aae92,2022-07-06_09h33.02.153,Colour_Asymmetry_Pilot,2022.1.3,Win32,59.70505702,62c50e9c1127f2cd403a315f,,,,,,,,,,,,,,,,,,,,,,,,,,,,,,,,,,,,,,,,,,,,,,,,,,,,,,,,,,,,,,,,,,,,,,,,,,,,,,,,,,,,,,,,,,,,,,,,,,,,,,,,,,,,,,,,,,,,,,,,,,,,,,,,,,,,,,,,,,,,,,,,,,,,,,,,,,,,,,,,,,,
0,74,74,65,1,,6131df33c2388c23af8f09b1,62c53a92ecd659bb0b2aae92,2022-07-06_09h33.02.153,Colour_Asymmetry_Pilot,2022.1.3,Win32,59.70505702,62c50e9c1127f2cd403a315f,,,,,,,,,,,,,,,,,,,,,,,,,,,,,,,,,,,,,,,,,,,,,,,,,,,,,,,,,,,,,,,,,,,,,,,,,,,,,,,,,,,,,,,,,,,,,,,,,,,,,,,,,,,,,,,,,,,,,,,,,,,,,,,,,,,,,,,,,,,,,,,,,,,,,,,,,,,,,,,,,,,
0,75,75,2,1,,6131df33c2388c23af8f09b1,62c53a92ecd659bb0b2aae92,2022-07-06_09h33.02.153,Colour_Asymmetry_Pilot,2022.1.3,Win32,59.70505702,62c50e9c1127f2cd403a315f,,,,,,,,,,,,,,,,,,,,,,,,,,,,,,,,,,,,,,,,,,,,,,,,,,,,,,,,,,,,,,,,,,,,,,,,,,,,,,,,,,,,,,,,,,,,,,,,,,,,,,,,,,,,,,,,,,,,,,,,,,,,,,,,,,,,,,,,,,,,,,,,,,,,,,,,,,,,,,,,,,,
0,76,76,3,1,,6131df33c2388c23af8f09b1,62c53a92ecd659bb0b2aae92,2022-07-06_09h33.02.153,Colour_Asymmetry_Pilot,2022.1.3,Win32,59.70505702,62c50e9c1127f2cd403a315f,,,,,,,,,,,,,,,,,,,,,,,,,,,,,,,,,,,,,,,,,,,,,,,,,,,,,,,,,,,,,,,,,,,,,,,,,,,,,,,,,,,,,,,,,,,,,,,,,,,,,,,,,,,,,,,,,,,,,,,,,,,,,,,,,,,,,,,,,,,,,,,,,,,,,,,,,,,,,,,,,,,
0,77,77,53,1,,6131df33c2388c23af8f09b1,62c53a92ecd659bb0b2aae92,2022-07-06_09h33.02.153,Colour_Asymmetry_Pilot,2022.1.3,Win32,59.70505702,62c50e9c1127f2cd403a315f,,,,,,,,,,,,,,,,,,,,,,,,,,,,,,,,,,,,,,,,,,,,,,,,,,,,,,,,,,,,,,,,,,,,,,,,,,,,,,,,,,,,,,,,,,,,,,,,,,,,,,,,,,,,,,,,,,,,,,,,,,,,,,,,,,,,,,,,,,,,,,,,,,,,,,,,,,,,,,,,,,,
0,78,78,16,1,,6131df33c2388c23af8f09b1,62c53a92ecd659bb0b2aae92,2022-07-06_09h33.02.153,Colour_Asymmetry_Pilot,2022.1.3,Win32,59.70505702,62c50e9c1127f2cd403a315f,,,,,,,,,,,,,,,,,,,,,,,,,,,,,,,,,,,,,,,,,,,,,,,,,,,,,,,,,,,,,,,,,,,,,,,,,,,,,,,,,,,,,,,,,,,,,,,,,,,,,,,,,,,,,,,,,,,,,,,,,,,,,,,,,,,,,,,,,,,,,,,,,,,,,,,,,,,,,,,,,,,
0,79,79,13,1,,6131df33c2388c23af8f09b1,62c53a92ecd659bb0b2aae92,2022-07-06_09h33.02.153,Colour_Asymmetry_Pilot,2022.1.3,Win32,59.70505702,62c50e9c1127f2cd403a315f,,,,,,,,,,,,,,,,,,,,,,,,,,,,,,,,,,,,,,,,,,,,,,,,,,,,,,,,,,,,,,,,,,,,,,,,,,,,,,,,,,,,,,,,,,,,,,,,,,,,,,,,,,,,,,,,,,,,,,,,,,,,,,,,,,,,,,,,,,,,,,,,,,,,,,,,,,,,,,,,,,,
0,80,80,8,1,,6131df33c2388c23af8f09b1,62c53a92ecd659bb0b2aae92,2022-07-06_09h33.02.153,Colour_Asymmetry_Pilot,2022.1.3,Win32,59.70505702,62c50e9c1127f2cd403a315f,,,,,,,,,,,,,,,,,,,,,,,,,,,,,,,,,,,,,,,,,,,,,,,,,,,,,,,,,,,,,,,,,,,,,,,,,,,,,,,,,,,,,,,,,,,,,,,,,,,,,,,,,,,,,,,,,,,,,,,,,,,,,,,,,,,,,,,,,,,,,,,,,,,,,,,,,,,,,,,,,,,
0,81,81,75,1,,6131df33c2388c23af8f09b1,62c53a92ecd659bb0b2aae92,2022-07-06_09h33.02.153,Colour_Asymmetry_Pilot,2022.1.3,Win32,59.70505702,62c50e9c1127f2cd403a315f,,,,,,,,,,,,,,,,,,,,,,,,,,,,,,,,,,,,,,,,,,,,,,,,,,,,,,,,,,,,,,,,,,,,,,,,,,,,,,,,,,,,,,,,,,,,,,,,,,,,,,,,,,,,,,,,,,,,,,,,,,,,,,,,,,,,,,,,,,,,,,,,,,,,,,,,,,,,,,,,,,,
0,82,82,24,1,,6131df33c2388c23af8f09b1,62c53a92ecd659bb0b2aae92,2022-07-06_09h33.02.153,Colour_Asymmetry_Pilot,2022.1.3,Win32,59.70505702,62c50e9c1127f2cd403a315f,,,,,,,,,,,,,,,,,,,,,,,,,,,,,,,,,,,,,,,,,,,,,,,,,,,,,,,,,,,,,,,,,,,,,,,,,,,,,,,,,,,,,,,,,,,,,,,,,,,,,,,,,,,,,,,,,,,,,,,,,,,,,,,,,,,,,,,,,,,,,,,,,,,,,,,,,,,,,,,,,,,
0,83,83,59,1,,6131df33c2388c23af8f09b1,62c53a92ecd659bb0b2aae92,2022-07-06_09h33.02.153,Colour_Asymmetry_Pilot,2022.1.3,Win32,59.70505702,62c50e9c1127f2cd403a315f,,,,,,,,,,,,,,,,,,,,,,,,,,,,,,,,,,,,,,,,,,,,,,,,,,,,,,,,,,,,,,,,,,,,,,,,,,,,,,,,,,,,,,,,,,,,,,,,,,,,,,,,,,,,,,,,,,,,,,,,,,,,,,,,,,,,,,,,,,,,,,,,,,,,,,,,,,,,,,,,,,,
0,84,84,38,1,,6131df33c2388c23af8f09b1,62c53a92ecd659bb0b2aae92,2022-07-06_09h33.02.153,Colour_Asymmetry_Pilot,2022.1.3,Win32,59.70505702,62c50e9c1127f2cd403a315f,,,,,,,,,,,,,,,,,,,,,,,,,,,,,,,,,,,,,,,,,,,,,,,,,,,,,,,,,,,,,,,,,,,,,,,,,,,,,,,,,,,,,,,,,,,,,,,,,,,,,,,,,,,,,,,,,,,,,,,,,,,,,,,,,,,,,,,,,,,,,,,,,,,,,,,,,,,,,,,,,,,
0,85,85,81,1,,6131df33c2388c23af8f09b1,62c53a92ecd659bb0b2aae92,2022-07-06_09h33.02.153,Colour_Asymmetry_Pilot,2022.1.3,Win32,59.70505702,62c50e9c1127f2cd403a315f,,,,,,,,,,,,,,,,,,,,,,,,,,,,,,,,,,,,,,,,,,,,,,,,,,,,,,,,,,,,,,,,,,,,,,,,,,,,,,,,,,,,,,,,,,,,,,,,,,,,,,,,,,,,,,,,,,,,,,,,,,,,,,,,,,,,,,,,,,,,,,,,,,,,,,,,,,,,,,,,,,,
0,86,86,43,1,,6131df33c2388c23af8f09b1,62c53a92ecd659bb0b2aae92,2022-07-06_09h33.02.153,Colour_Asymmetry_Pilot,2022.1.3,Win32,59.70505702,62c50e9c1127f2cd403a315f,,,,,,,,,,,,,,,,,,,,,,,,,,,,,,,,,,,,,,,,,,,,,,,,,,,,,,,,,,,,,,,,,,,,,,,,,,,,,,,,,,,,,,,,,,,,,,,,,,,,,,,,,,,,,,,,,,,,,,,,,,,,,,,,,,,,,,,,,,,,,,,,,,,,,,,,,,,,,,,,,,,
0,87,87,61,1,,6131df33c2388c23af8f09b1,62c53a92ecd659bb0b2aae92,2022-07-06_09h33.02.153,Colour_Asymmetry_Pilot,2022.1.3,Win32,59.70505702,62c50e9c1127f2cd403a315f,,,,,,,,,,,,,,,,,,,,,,,,,,,,,,,,,,,,,,,,,,,,,,,,,,,,,,,,,,,,,,,,,,,,,,,,,,,,,,,,,,,,,,,,,,,,,,,,,,,,,,,,,,,,,,,,,,,,,,,,,,,,,,,,,,,,,,,,,,,,,,,,,,,,,,,,,,,,,,,,,,,
0,88,88,71,1,,6131df33c2388c23af8f09b1,62c53a92ecd659bb0b2aae92,2022-07-06_09h33.02.153,Colour_Asymmetry_Pilot,2022.1.3,Win32,59.70505702,62c50e9c1127f2cd403a315f,,,,,,,,,,,,,,,,,,,,,,,,,,,,,,,,,,,,,,,,,,,,,,,,,,,,,,,,,,,,,,,,,,,,,,,,,,,,,,,,,,,,,,,,,,,,,,,,,,,,,,,,,,,,,,,,,,,,,,,,,,,,,,,,,,,,,,,,,,,,,,,,,,,,,,,,,,,,,,,,,,,
0,89,89,36,1,,6131df33c2388c23af8f09b1,62c53a92ecd659bb0b2aae92,2022-07-06_09h33.02.153,Colour_Asymmetry_Pilot,2022.1.3,Win32,59.70505702,62c50e9c1127f2cd403a315f,,,,,,,,,,,,,,,,,,,,,,,,,,,,,,,,,,,,,,,,,,,,,,,,,,,,,,,,,,,,,,,,,,,,,,,,,,,,,,,,,,,,,,,,,,,,,,,,,,,,,,,,,,,,,,,,,,,,,,,,,,,,,,,,,,,,,,,,,,,,,,,,,,,,,,,,,,,,,,,,,,,
0,90,90,82,1,,6131df33c2388c23af8f09b1,62c53a92ecd659bb0b2aae92,2022-07-06_09h33.02.153,Colour_Asymmetry_Pilot,2022.1.3,Win32,59.70505702,62c50e9c1127f2cd403a315f,,,,,,,,,,,,,,,,,,,,,,,,,,,,,,,,,,,,,,,,,,,,,,,,,,,,,,,,,,,,,,,,,,,,,,,,,,,,,,,,,,,,,,,,,,,,,,,,,,,,,,,,,,,,,,,,,,,,,,,,,,,,,,,,,,,,,,,,,,,,,,,,,,,,,,,,,,,,,,,,,,,
0,91,91,27,1,,6131df33c2388c23af8f09b1,62c53a92ecd659bb0b2aae92,2022-07-06_09h33.02.153,Colour_Asymmetry_Pilot,2022.1.3,Win32,59.70505702,62c50e9c1127f2cd403a315f,,,,,,,,,,,,,,,,,,,,,,,,,,,,,,,,,,,,,,,,,,,,,,,,,,,,,,,,,,,,,,,,,,,,,,,,,,,,,,,,,,,,,,,,,,,,,,,,,,,,,,,,,,,,,,,,,,,,,,,,,,,,,,,,,,,,,,,,,,,,,,,,,,,,,,,,,,,,,,,,,,,
0,92,92,14,1,,6131df33c2388c23af8f09b1,62c53a92ecd659bb0b2aae92,2022-07-06_09h33.02.153,Colour_Asymmetry_Pilot,2022.1.3,Win32,59.70505702,62c50e9c1127f2cd403a315f,,,,,,,,,,,,,,,,,,,,,,,,,,,,,,,,,,,,,,,,,,,,,,,,,,,,,,,,,,,,,,,,,,,,,,,,,,,,,,,,,,,,,,,,,,,,,,,,,,,,,,,,,,,,,,,,,,,,,,,,,,,,,,,,,,,,,,,,,,,,,,,,,,,,,,,,,,,,,,,,,,,
,,,,,,6131df33c2388c23af8f09b1,62c53a92ecd659bb0b2aae92,2022-07-06_09h33.02.153,Colour_Asymmetry_Pilot,2022.1.3,Win32,59.70505702,62c50e9c1127f2cd403a315f,0,0,0,136,1,onetwo,,,,,,,,,,,,,,,,,,,,,,,,,,,,,,,,,,,,,,,,,,,,,,,,,,,,,,,,,,,,,,,,,,,,,,,,,,,,,,,,,,,,,,,,,,,,,,,,,,,,,,,,,,,,,,,,,,,,,,,,,,,,,,,,,,,,,,,,,,,,,,,,,,,,,,,,,,,,,
,,,,,,6131df33c2388c23af8f09b1,62c53a92ecd659bb0b2aae92,2022-07-06_09h33.02.153,Colour_Asymmetry_Pilot,2022.1.3,Win32,59.70505702,62c50e9c1127f2cd403a315f,0,1,1,118,1,fourtwo,,,,,,,,,,,,,,,,,,,,,,,,,,,,,,,,,,,,,,,,,,,,,,,,,,,,,,,,,,,,,,,,,,,,,,,,,,,,,,,,,,,,,,,,,,,,,,,,,,,,,,,,,,,,,,,,,,,,,,,,,,,,,,,,,,,,,,,,,,,,,,,,,,,,,,,,,,,,,
,,,,,,6131df33c2388c23af8f09b1,62c53a92ecd659bb0b2aae92,2022-07-06_09h33.02.153,Colour_Asymmetry_Pilot,2022.1.3,Win32,59.70505702,62c50e9c1127f2cd403a315f,0,2,2,93,1,threefour,,,,,,,,,,,,,,,,,,,,,,,,,,,,,,,,,,,,,,,,,,,,,,,,,,,,,,,,,,,,,,,,,,,,,,,,,,,,,,,,,,,,,,,,,,,,,,,,,,,,,,,,,,,,,,,,,,,,,,,,,,,,,,,,,,,,,,,,,,,,,,,,,,,,,,,,,,,,,
,,,,,,6131df33c2388c23af8f09b1,62c53a92ecd659bb0b2aae92,2022-07-06_09h33.02.153,Colour_Asymmetry_Pilot,2022.1.3,Win32,59.70505702,62c50e9c1127f2cd403a315f,0,3,3,79,1,fourthree,,,,,,,,,,,,,,,,,,,,,,,,,,,,,,,,,,,,,,,,,,,,,,,,,,,,,,,,,,,,,,,,,,,,,,,,,,,,,,,,,,,,,,,,,,,,,,,,,,,,,,,,,,,,,,,,,,,,,,,,,,,,,,,,,,,,,,,,,,,,,,,,,,,,,,,,,,,,,
,,,,,,6131df33c2388c23af8f09b1,62c53a92ecd659bb0b2aae92,2022-07-06_09h33.02.153,Colour_Asymmetry_Pilot,2022.1.3,Win32,59.70505702,62c50e9c1127f2cd403a315f,0,4,4,53,1,threefour,,,,,,,,,,,,,,,,,,,,,,,,,,,,,,,,,,,,,,,,,,,,,,,,,,,,,,,,,,,,,,,,,,,,,,,,,,,,,,,,,,,,,,,,,,,,,,,,,,,,,,,,,,,,,,,,,,,,,,,,,,,,,,,,,,,,,,,,,,,,,,,,,,,,,,,,,,,,,
,,,,,,6131df33c2388c23af8f09b1,62c53a92ecd659bb0b2aae92,2022-07-06_09h33.02.153,Colour_Asymmetry_Pilot,2022.1.3,Win32,59.70505702,62c50e9c1127f2cd403a315f,0,5,5,147,1,twofour,,,,,,,,,,,,,,,,,,,,,,,,,,,,,,,,,,,,,,,,,,,,,,,,,,,,,,,,,,,,,,,,,,,,,,,,,,,,,,,,,,,,,,,,,,,,,,,,,,,,,,,,,,,,,,,,,,,,,,,,,,,,,,,,,,,,,,,,,,,,,,,,,,,,,,,,,,,,,
,,,,,,6131df33c2388c23af8f09b1,62c53a92ecd659bb0b2aae92,2022-07-06_09h33.02.153,Colour_Asymmetry_Pilot,2022.1.3,Win32,59.70505702,62c50e9c1127f2cd403a315f,0,6,6,67,1,twofour,,,,,,,,,,,,,,,,,,,,,,,,,,,,,,,,,,,,,,,,,,,,,,,,,,,,,,,,,,,,,,,,,,,,,,,,,,,,,,,,,,,,,,,,,,,,,,,,,,,,,,,,,,,,,,,,,,,,,,,,,,,,,,,,,,,,,,,,,,,,,,,,,,,,,,,,,,,,,
,,,,,,6131df33c2388c23af8f09b1,62c53a92ecd659bb0b2aae92,2022-07-06_09h33.02.153,Colour_Asymmetry_Pilot,2022.1.3,Win32,59.70505702,62c50e9c1127f2cd403a315f,0,7,7,135,1,fourthree,,,,,,,,,,,,,,,,,,,,,,,,,,,,,,,,,,,,,,,,,,,,,,,,,,,,,,,,,,,,,,,,,,,,,,,,,,,,,,,,,,,,,,,,,,,,,,,,,,,,,,,,,,,,,,,,,,,,,,,,,,,,,,,,,,,,,,,,,,,,,,,,,,,,,,,,,,,,,
,,,,,,6131df33c2388c23af8f09b1,62c53a92ecd659bb0b2aae92,2022-07-06_09h33.02.153,Colour_Asymmetry_Pilot,2022.1.3,Win32,59.70505702,62c50e9c1127f2cd403a315f,0,8,8,125,1,threefour,,,,,,,,,,,,,,,,,,,,,,,,,,,,,,,,,,,,,,,,,,,,,,,,,,,,,,,,,,,,,,,,,,,,,,,,,,,,,,,,,,,,,,,,,,,,,,,,,,,,,,,,,,,,,,,,,,,,,,,,,,,,,,,,,,,,,,,,,,,,,,,,,,,,,,,,,,,,,
,,,,,,6131df33c2388c23af8f09b1,62c53a92ecd659bb0b2aae92,2022-07-06_09h33.02.153,Colour_Asymmetry_Pilot,2022.1.3,Win32,59.70505702,62c50e9c1127f2cd403a315f,0,9,9,77,1,threefour,,,,,,,,,,,,,,,,,,,,,,,,,,,,,,,,,,,,,,,,,,,,,,,,,,,,,,,,,,,,,,,,,,,,,,,,,,,,,,,,,,,,,,,,,,,,,,,,,,,,,,,,,,,,,,,,,,,,,,,,,,,,,,,,,,,,,,,,,,,,,,,,,,,,,,,,,,,,,
,,,,,,6131df33c2388c23af8f09b1,62c53a92ecd659bb0b2aae92,2022-07-06_09h33.02.153,Colour_Asymmetry_Pilot,2022.1.3,Win32,59.70505702,62c50e9c1127f2cd403a315f,0,10,10,144,1,onetwo,,,,,,,,,,,,,,,,,,,,,,,,,,,,,,,,,,,,,,,,,,,,,,,,,,,,,,,,,,,,,,,,,,,,,,,,,,,,,,,,,,,,,,,,,,,,,,,,,,,,,,,,,,,,,,,,,,,,,,,,,,,,,,,,,,,,,,,,,,,,,,,,,,,,,,,,,,,,,
,,,,,,6131df33c2388c23af8f09b1,62c53a92ecd659bb0b2aae92,2022-07-06_09h33.02.153,Colour_Asymmetry_Pilot,2022.1.3,Win32,59.70505702,62c50e9c1127f2cd403a315f,0,11,11,51,1,twofour,,,,,,,,,,,,,,,,,,,,,,,,,,,,,,,,,,,,,,,,,,,,,,,,,,,,,,,,,,,,,,,,,,,,,,,,,,,,,,,,,,,,,,,,,,,,,,,,,,,,,,,,,,,,,,,,,,,,,,,,,,,,,,,,,,,,,,,,,,,,,,,,,,,,,,,,,,,,,
,,,,,,6131df33c2388c23af8f09b1,62c53a92ecd659bb0b2aae92,2022-07-06_09h33.02.153,Colour_Asymmetry_Pilot,2022.1.3,Win32,59.70505702,62c50e9c1127f2cd403a315f,0,12,12,116,1,threeone,,,,,,,,,,,,,,,,,,,,,,,,,,,,,,,,,,,,,,,,,,,,,,,,,,,,,,,,,,,,,,,,,,,,,,,,,,,,,,,,,,,,,,,,,,,,,,,,,,,,,,,,,,,,,,,,,,,,,,,,,,,,,,,,,,,,,,,,,,,,,,,,,,,,,,,,,,,,,
,,,,,,6131df33c2388c23af8f09b1,62c53a92ecd659bb0b2aae92,2022-07-06_09h33.02.153,Colour_Asymmetry_Pilot,2022.1.3,Win32,59.70505702,62c50e9c1127f2cd403a315f,0,13,13,148,1,threeone,,,,,,,,,,,,,,,,,,,,,,,,,,,,,,,,,,,,,,,,,,,,,,,,,,,,,,,,,,,,,,,,,,,,,,,,,,,,,,,,,,,,,,,,,,,,,,,,,,,,,,,,,,,,,,,,,,,,,,,,,,,,,,,,,,,,,,,,,,,,,,,,,,,,,,,,,,,,,
,,,,,,6131df33c2388c23af8f09b1,62c53a92ecd659bb0b2aae92,2022-07-06_09h33.02.153,Colour_Asymmetry_Pilot,2022.1.3,Win32,59.70505702,62c50e9c1127f2cd403a315f,0,14,14,146,1,twoone,,,,,,,,,,,,,,,,,,,,,,,,,,,,,,,,,,,,,,,,,,,,,,,,,,,,,,,,,,,,,,,,,,,,,,,,,,,,,,,,,,,,,,,,,,,,,,,,,,,,,,,,,,,,,,,,,,,,,,,,,,,,,,,,,,,,,,,,,,,,,,,,,,,,,,,,,,,,,
,,,,,,6131df33c2388c23af8f09b1,62c53a92ecd659bb0b2aae92,2022-07-06_09h33.02.153,Colour_Asymmetry_Pilot,2022.1.3,Win32,59.70505702,62c50e9c1127f2cd403a315f,0,15,15,84,1,threeone,,,,,,,,,,,,,,,,,,,,,,,,,,,,,,,,,,,,,,,,,,,,,,,,,,,,,,,,,,,,,,,,,,,,,,,,,,,,,,,,,,,,,,,,,,,,,,,,,,,,,,,,,,,,,,,,,,,,,,,,,,,,,,,,,,,,,,,,,,,,,,,,,,,,,,,,,,,,,
,,,,,,6131df33c2388c23af8f09b1,62c53a92ecd659bb0b2aae92,2022-07-06_09h33.02.153,Colour_Asymmetry_Pilot,2022.1.3,Win32,59.70505702,62c50e9c1127f2cd403a315f,0,16,16,48,1,onetwo,,,,,,,,,,,,,,,,,,,,,,,,,,,,,,,,,,,,,,,,,,,,,,,,,,,,,,,,,,,,,,,,,,,,,,,,,,,,,,,,,,,,,,,,,,,,,,,,,,,,,,,,,,,,,,,,,,,,,,,,,,,,,,,,,,,,,,,,,,,,,,,,,,,,,,,,,,,,,
,,,,,,6131df33c2388c23af8f09b1,62c53a92ecd659bb0b2aae92,2022-07-06_09h33.02.153,Colour_Asymmetry_Pilot,2022.1.3,Win32,59.70505702,62c50e9c1127f2cd403a315f,0,17,17,132,1,threeone,,,,,,,,,,,,,,,,,,,,,,,,,,,,,,,,,,,,,,,,,,,,,,,,,,,,,,,,,,,,,,,,,,,,,,,,,,,,,,,,,,,,,,,,,,,,,,,,,,,,,,,,,,,,,,,,,,,,,,,,,,,,,,,,,,,,,,,,,,,,,,,,,,,,,,,,,,,,,
,,,,,,6131df33c2388c23af8f09b1,62c53a92ecd659bb0b2aae92,2022-07-06_09h33.02.153,Colour_Asymmetry_Pilot,2022.1.3,Win32,59.70505702,62c50e9c1127f2cd403a315f,0,18,18,92,1,threeone,,,,,,,,,,,,,,,,,,,,,,,,,,,,,,,,,,,,,,,,,,,,,,,,,,,,,,,,,,,,,,,,,,,,,,,,,,,,,,,,,,,,,,,,,,,,,,,,,,,,,,,,,,,,,,,,,,,,,,,,,,,,,,,,,,,,,,,,,,,,,,,,,,,,,,,,,,,,,
,,,,,,6131df33c2388c23af8f09b1,62c53a92ecd659bb0b2aae92,2022-07-06_09h33.02.153,Colour_Asymmetry_Pilot,2022.1.3,Win32,59.70505702,62c50e9c1127f2cd403a315f,0,19,19,39,1,fourthree,,,,,,,,,,,,,,,,,,,,,,,,,,,,,,,,,,,,,,,,,,,,,,,,,,,,,,,,,,,,,,,,,,,,,,,,,,,,,,,,,,,,,,,,,,,,,,,,,,,,,,,,,,,,,,,,,,,,,,,,,,,,,,,,,,,,,,,,,,,,,,,,,,,,,,,,,,,,,
,,,,,,6131df33c2388c23af8f09b1,62c53a92ecd659bb0b2aae92,2022-07-06_09h33.02.153,Colour_Asymmetry_Pilot,2022.1.3,Win32,59.70505702,62c50e9c1127f2cd403a315f,0,20,20,42,1,twoone,,,,,,,,,,,,,,,,,,,,,,,,,,,,,,,,,,,,,,,,,,,,,,,,,,,,,,,,,,,,,,,,,,,,,,,,,,,,,,,,,,,,,,,,,,,,,,,,,,,,,,,,,,,,,,,,,,,,,,,,,,,,,,,,,,,,,,,,,,,,,,,,,,,,,,,,,,,,,
,,,,,,6131df33c2388c23af8f09b1,62c53a92ecd659bb0b2aae92,2022-07-06_09h33.02.153,Colour_Asymmetry_Pilot,2022.1.3,Win32,59.70505702,62c50e9c1127f2cd403a315f,0,21,21,127,1,fourthree,,,,,,,,,,,,,,,,,,,,,,,,,,,,,,,,,,,,,,,,,,,,,,,,,,,,,,,,,,,,,,,,,,,,,,,,,,,,,,,,,,,,,,,,,,,,,,,,,,,,,,,,,,,,,,,,,,,,,,,,,,,,,,,,,,,,,,,,,,,,,,,,,,,,,,,,,,,,,
,,,,,,6131df33c2388c23af8f09b1,62c53a92ecd659bb0b2aae92,2022-07-06_09h33.02.153,Colour_Asymmetry_Pilot,2022.1.3,Win32,59.70505702,62c50e9c1127f2cd403a315f,0,22,22,33,1,onethree,,,,,,,,,,,,,,,,,,,,,,,,,,,,,,,,,,,,,,,,,,,,,,,,,,,,,,,,,,,,,,,,,,,,,,,,,,,,,,,,,,,,,,,,,,,,,,,,,,,,,,,,,,,,,,,,,,,,,,,,,,,,,,,,,,,,,,,,,,,,,,,,,,,,,,,,,,,,,
,,,,,,6131df33c2388c23af8f09b1,62c53a92ecd659bb0b2aae92,2022-07-06_09h33.02.153,Colour_Asymmetry_Pilot,2022.1.3,Win32,59.70505702,62c50e9c1127f2cd403a315f,0,23,23,160,1,onetwo,,,,,,,,,,,,,,,,,,,,,,,,,,,,,,,,,,,,,,,,,,,,,,,,,,,,,,,,,,,,,,,,,,,,,,,,,,,,,,,,,,,,,,,,,,,,,,,,,,,,,,,,,,,,,,,,,,,,,,,,,,,,,,,,,,,,,,,,,,,,,,,,,,,,,,,,,,,,,
,,,,,,6131df33c2388c23af8f09b1,62c53a92ecd659bb0b2aae92,2022-07-06_09h33.02.153,Colour_Asymmetry_Pilot,2022.1.3,Win32,59.70505702,62c50e9c1127f2cd403a315f,0,24,24,99,1,twofour,,,,,,,,,,,,,,,,,,,,,,,,,,,,,,,,,,,,,,,,,,,,,,,,,,,,,,,,,,,,,,,,,,,,,,,,,,,,,,,,,,,,,,,,,,,,,,,,,,,,,,,,,,,,,,,,,,,,,,,,,,,,,,,,,,,,,,,,,,,,,,,,,,,,,,,,,,,,,
,,,,,,6131df33c2388c23af8f09b1,62c53a92ecd659bb0b2aae92,2022-07-06_09h33.02.153,Colour_Asymmetry_Pilot,2022.1.3,Win32,59.70505702,62c50e9c1127f2cd403a315f,0,25,25,119,1,fourthree,,,,,,,,,,,,,,,,,,,,,,,,,,,,,,,,,,,,,,,,,,,,,,,,,,,,,,,,,,,,,,,,,,,,,,,,,,,,,,,,,,,,,,,,,,,,,,,,,,,,,,,,,,,,,,,,,,,,,,,,,,,,,,,,,,,,,,,,,,,,,,,,,,,,,,,,,,,,,
,,,,,,6131df33c2388c23af8f09b1,62c53a92ecd659bb0b2aae92,2022-07-06_09h33.02.153,Colour_Asymmetry_Pilot,2022.1.3,Win32,59.70505702,62c50e9c1127f2cd403a315f,0,26,26,103,1,fourthree,,,,,,,,,,,,,,,,,,,,,,,,,,,,,,,,,,,,,,,,,,,,,,,,,,,,,,,,,,,,,,,,,,,,,,,,,,,,,,,,,,,,,,,,,,,,,,,,,,,,,,,,,,,,,,,,,,,,,,,,,,,,,,,,,,,,,,,,,,,,,,,,,,,,,,,,,,,,,
,,,,,,6131df33c2388c23af8f09b1,62c53a92ecd659bb0b2aae92,2022-07-06_09h33.02.153,Colour_Asymmetry_Pilot,2022.1.3,Win32,59.70505702,62c50e9c1127f2cd403a315f,0,27,27,152,1,onetwo,,,,,,,,,,,,,,,,,,,,,,,,,,,,,,,,,,,,,,,,,,,,,,,,,,,,,,,,,,,,,,,,,,,,,,,,,,,,,,,,,,,,,,,,,,,,,,,,,,,,,,,,,,,,,,,,,,,,,,,,,,,,,,,,,,,,,,,,,,,,,,,,,,,,,,,,,,,,,
,,,,,,6131df33c2388c23af8f09b1,62c53a92ecd659bb0b2aae92,2022-07-06_09h33.02.153,Colour_Asymmetry_Pilot,2022.1.3,Win32,59.70505702,62c50e9c1127f2cd403a315f,0,28,28,74,1,twoone,,,,,,,,,,,,,,,,,,,,,,,,,,,,,,,,,,,,,,,,,,,,,,,,,,,,,,,,,,,,,,,,,,,,,,,,,,,,,,,,,,,,,,,,,,,,,,,,,,,,,,,,,,,,,,,,,,,,,,,,,,,,,,,,,,,,,,,,,,,,,,,,,,,,,,,,,,,,,
,,,,,,6131df33c2388c23af8f09b1,62c53a92ecd659bb0b2aae92,2022-07-06_09h33.02.153,Colour_Asymmetry_Pilot,2022.1.3,Win32,59.70505702,62c50e9c1127f2cd403a315f,0,29,29,151,1,fourthree,,,,,,,,,,,,,,,,,,,,,,,,,,,,,,,,,,,,,,,,,,,,,,,,,,,,,,,,,,,,,,,,,,,,,,,,,,,,,,,,,,,,,,,,,,,,,,,,,,,,,,,,,,,,,,,,,,,,,,,,,,,,,,,,,,,,,,,,,,,,,,,,,,,,,,,,,,,,,
,,,,,,6131df33c2388c23af8f09b1,62c53a92ecd659bb0b2aae92,2022-07-06_09h33.02.153,Colour_Asymmetry_Pilot,2022.1.3,Win32,59.70505702,62c50e9c1127f2cd403a315f,0,30,30,59,1,twofour,,,,,,,,,,,,,,,,,,,,,,,,,,,,,,,,,,,,,,,,,,,,,,,,,,,,,,,,,,,,,,,,,,,,,,,,,,,,,,,,,,,,,,,,,,,,,,,,,,,,,,,,,,,,,,,,,,,,,,,,,,,,,,,,,,,,,,,,,,,,,,,,,,,,,,,,,,,,,
,,,,,,6131df33c2388c23af8f09b1,62c53a92ecd659bb0b2aae92,2022-07-06_09h33.02.153,Colour_Asymmetry_Pilot,2022.1.3,Win32,59.70505702,62c50e9c1127f2cd403a315f,0,31,31,161,1,onethree,,,,,,,,,,,,,,,,,,,,,,,,,,,,,,,,,,,,,,,,,,,,,,,,,,,,,,,,,,,,,,,,,,,,,,,,,,,,,,,,,,,,,,,,,,,,,,,,,,,,,,,,,,,,,,,,,,,,,,,,,,,,,,,,,,,,,,,,,,,,,,,,,,,,,,,,,,,,,
,,,,,,6131df33c2388c23af8f09b1,62c53a92ecd659bb0b2aae92,2022-07-06_09h33.02.153,Colour_Asymmetry_Pilot,2022.1.3,Win32,59.70505702,62c50e9c1127f2cd403a315f,0,32,32,15,1,fourthree,,,,,,,,,,,,,,,,,,,,,,,,,,,,,,,,,,,,,,,,,,,,,,,,,,,,,,,,,,,,,,,,,,,,,,,,,,,,,,,,,,,,,,,,,,,,,,,,,,,,,,,,,,,,,,,,,,,,,,,,,,,,,,,,,,,,,,,,,,,,,,,,,,,,,,,,,,,,,
,,,,,,6131df33c2388c23af8f09b1,62c53a92ecd659bb0b2aae92,2022-07-06_09h33.02.153,Colour_Asymmetry_Pilot,2022.1.3,Win32,59.70505702,62c50e9c1127f2cd403a315f,0,33,33,31,1,fourthree,,,,,,,,,,,,,,,,,,,,,,,,,,,,,,,,,,,,,,,,,,,,,,,,,,,,,,,,,,,,,,,,,,,,,,,,,,,,,,,,,,,,,,,,,,,,,,,,,,,,,,,,,,,,,,,,,,,,,,,,,,,,,,,,,,,,,,,,,,,,,,,,,,,,,,,,,,,,,
,,,,,,6131df33c2388c23af8f09b1,62c53a92ecd659bb0b2aae92,2022-07-06_09h33.02.153,Colour_Asymmetry_Pilot,2022.1.3,Win32,59.70505702,62c50e9c1127f2cd403a315f,0,34,34,20,1,threeone,,,,,,,,,,,,,,,,,,,,,,,,,,,,,,,,,,,,,,,,,,,,,,,,,,,,,,,,,,,,,,,,,,,,,,,,,,,,,,,,,,,,,,,,,,,,,,,,,,,,,,,,,,,,,,,,,,,,,,,,,,,,,,,,,,,,,,,,,,,,,,,,,,,,,,,,,,,,,
,,,,,,6131df33c2388c23af8f09b1,62c53a92ecd659bb0b2aae92,2022-07-06_09h33.02.153,Colour_Asymmetry_Pilot,2022.1.3,Win32,59.70505702,62c50e9c1127f2cd403a315f,0,35,35,62,1,fourtwo,,,,,,,,,,,,,,,,,,,,,,,,,,,,,,,,,,,,,,,,,,,,,,,,,,,,,,,,,,,,,,,,,,,,,,,,,,,,,,,,,,,,,,,,,,,,,,,,,,,,,,,,,,,,,,,,,,,,,,,,,,,,,,,,,,,,,,,,,,,,,,,,,,,,,,,,,,,,,
,,,,,,6131df33c2388c23af8f09b1,62c53a92ecd659bb0b2aae92,2022-07-06_09h33.02.153,Colour_Asymmetry_Pilot,2022.1.3,Win32,59.70505702,62c50e9c1127f2cd403a315f,0,36,36,81,1,onethree,,,,,,,,,,,,,,,,,,,,,,,,,,,,,,,,,,,,,,,,,,,,,,,,,,,,,,,,,,,,,,,,,,,,,,,,,,,,,,,,,,,,,,,,,,,,,,,,,,,,,,,,,,,,,,,,,,,,,,,,,,,,,,,,,,,,,,,,,,,,,,,,,,,,,,,,,,,,,
,,,,,,6131df33c2388c23af8f09b1,62c53a92ecd659bb0b2aae92,2022-07-06_09h33.02.153,Colour_Asymmetry_Pilot,2022.1.3,Win32,59.70505702,62c50e9c1127f2cd403a315f,0,37,37,3,1,twofour,,,,,,,,,,,,,,,,,,,,,,,,,,,,,,,,,,,,,,,,,,,,,,,,,,,,,,,,,,,,,,,,,,,,,,,,,,,,,,,,,,,,,,,,,,,,,,,,,,,,,,,,,,,,,,,,,,,,,,,,,,,,,,,,,,,,,,,,,,,,,,,,,,,,,,,,,,,,,
,,,,,,6131df33c2388c23af8f09b1,62c53a92ecd659bb0b2aae92,2022-07-06_09h33.02.153,Colour_Asymmetry_Pilot,2022.1.3,Win32,59.70505702,62c50e9c1127f2cd403a315f,0,38,38,66,1,twoone,,,,,,,,,,,,,,,,,,,,,,,,,,,,,,,,,,,,,,,,,,,,,,,,,,,,,,,,,,,,,,,,,,,,,,,,,,,,,,,,,,,,,,,,,,,,,,,,,,,,,,,,,,,,,,,,,,,,,,,,,,,,,,,,,,,,,,,,,,,,,,,,,,,,,,,,,,,,,
,,,,,,6131df33c2388c23af8f09b1,62c53a92ecd659bb0b2aae92,2022-07-06_09h33.02.153,Colour_Asymmetry_Pilot,2022.1.3,Win32,59.70505702,62c50e9c1127f2cd403a315f,0,39,39,1,1,onethree,,,,,,,,,,,,,,,,,,,,,,,,,,,,,,,,,,,,,,,,,,,,,,,,,,,,,,,,,,,,,,,,,,,,,,,,,,,,,,,,,,,,,,,,,,,,,,,,,,,,,,,,,,,,,,,,,,,,,,,,,,,,,,,,,,,,,,,,,,,,,,,,,,,,,,,,,,,,,
,,,,,,6131df33c2388c23af8f09b1,62c53a92ecd659bb0b2aae92,2022-07-06_09h33.02.153,Colour_Asymmetry_Pilot,2022.1.3,Win32,59.70505702,62c50e9c1127f2cd403a315f,0,40,40,114,1,twoone,,,,,,,,,,,,,,,,,,,,,,,,,,,,,,,,,,,,,,,,,,,,,,,,,,,,,,,,,,,,,,,,,,,,,,,,,,,,,,,,,,,,,,,,,,,,,,,,,,,,,,,,,,,,,,,,,,,,,,,,,,,,,,,,,,,,,,,,,,,,,,,,,,,,,,,,,,,,,
,,,,,,6131df33c2388c23af8f09b1,62c53a92ecd659bb0b2aae92,2022-07-06_09h33.02.153,Colour_Asymmetry_Pilot,2022.1.3,Win32,59.70505702,62c50e9c1127f2cd403a315f,0,41,41,24,1,onetwo,,,,,,,,,,,,,,,,,,,,,,,,,,,,,,,,,,,,,,,,,,,,,,,,,,,,,,,,,,,,,,,,,,,,,,,,,,,,,,,,,,,,,,,,,,,,,,,,,,,,,,,,,,,,,,,,,,,,,,,,,,,,,,,,,,,,,,,,,,,,,,,,,,,,,,,,,,,,,
,,,,,,6131df33c2388c23af8f09b1,62c53a92ecd659bb0b2aae92,2022-07-06_09h33.02.153,Colour_Asymmetry_Pilot,2022.1.3,Win32,59.70505702,62c50e9c1127f2cd403a315f,0,42,42,130,1,twoone,,,,,,,,,,,,,,,,,,,,,,,,,,,,,,,,,,,,,,,,,,,,,,,,,,,,,,,,,,,,,,,,,,,,,,,,,,,,,,,,,,,,,,,,,,,,,,,,,,,,,,,,,,,,,,,,,,,,,,,,,,,,,,,,,,,,,,,,,,,,,,,,,,,,,,,,,,,,,
,,,,,,6131df33c2388c23af8f09b1,62c53a92ecd659bb0b2aae92,2022-07-06_09h33.02.153,Colour_Asymmetry_Pilot,2022.1.3,Win32,59.70505702,62c50e9c1127f2cd403a315f,0,43,43,10,1,twoone,,,,,,,,,,,,,,,,,,,,,,,,,,,,,,,,,,,,,,,,,,,,,,,,,,,,,,,,,,,,,,,,,,,,,,,,,,,,,,,,,,,,,,,,,,,,,,,,,,,,,,,,,,,,,,,,,,,,,,,,,,,,,,,,,,,,,,,,,,,,,,,,,,,,,,,,,,,,,
,,,,,,6131df33c2388c23af8f09b1,62c53a92ecd659bb0b2aae92,2022-07-06_09h33.02.153,Colour_Asymmetry_Pilot,2022.1.3,Win32,59.70505702,62c50e9c1127f2cd403a315f,0,44,44,57,1,onethree,,,,,,,,,,,,,,,,,,,,,,,,,,,,,,,,,,,,,,,,,,,,,,,,,,,,,,,,,,,,,,,,,,,,,,,,,,,,,,,,,,,,,,,,,,,,,,,,,,,,,,,,,,,,,,,,,,,,,,,,,,,,,,,,,,,,,,,,,,,,,,,,,,,,,,,,,,,,,
,,,,,,6131df33c2388c23af8f09b1,62c53a92ecd659bb0b2aae92,2022-07-06_09h33.02.153,Colour_Asymmetry_Pilot,2022.1.3,Win32,59.70505702,62c50e9c1127f2cd403a315f,0,45,45,91,1,twofour,,,,,,,,,,,,,,,,,,,,,,,,,,,,,,,,,,,,,,,,,,,,,,,,,,,,,,,,,,,,,,,,,,,,,,,,,,,,,,,,,,,,,,,,,,,,,,,,,,,,,,,,,,,,,,,,,,,,,,,,,,,,,,,,,,,,,,,,,,,,,,,,,,,,,,,,,,,,,
,,,,,,6131df33c2388c23af8f09b1,62c53a92ecd659bb0b2aae92,2022-07-06_09h33.02.153,Colour_Asymmetry_Pilot,2022.1.3,Win32,59.70505702,62c50e9c1127f2cd403a315f,0,46,46,134,1,fourtwo,,,,,,,,,,,,,,,,,,,,,,,,,,,,,,,,,,,,,,,,,,,,,,,,,,,,,,,,,,,,,,,,,,,,,,,,,,,,,,,,,,,,,,,,,,,,,,,,,,,,,,,,,,,,,,,,,,,,,,,,,,,,,,,,,,,,,,,,,,,,,,,,,,,,,,,,,,,,,
,,,,,,6131df33c2388c23af8f09b1,62c53a92ecd659bb0b2aae92,2022-07-06_09h33.02.153,Colour_Asymmetry_Pilot,2022.1.3,Win32,59.70505702,62c50e9c1127f2cd403a315f,0,47,47,115,1,twofour,,,,,,,,,,,,,,,,,,,,,,,,,,,,,,,,,,,,,,,,,,,,,,,,,,,,,,,,,,,,,,,,,,,,,,,,,,,,,,,,,,,,,,,,,,,,,,,,,,,,,,,,,,,,,,,,,,,,,,,,,,,,,,,,,,,,,,,,,,,,,,,,,,,,,,,,,,,,,
,,,,,,6131df33c2388c23af8f09b1,62c53a92ecd659bb0b2aae92,2022-07-06_09h33.02.153,Colour_Asymmetry_Pilot,2022.1.3,Win32,59.70505702,62c50e9c1127f2cd403a315f,0,48,48,97,1,onethree,,,,,,,,,,,,,,,,,,,,,,,,,,,,,,,,,,,,,,,,,,,,,,,,,,,,,,,,,,,,,,,,,,,,,,,,,,,,,,,,,,,,,,,,,,,,,,,,,,,,,,,,,,,,,,,,,,,,,,,,,,,,,,,,,,,,,,,,,,,,,,,,,,,,,,,,,,,,,
,,,,,,6131df33c2388c23af8f09b1,62c53a92ecd659bb0b2aae92,2022-07-06_09h33.02.153,Colour_Asymmetry_Pilot,2022.1.3,Win32,59.70505702,62c50e9c1127f2cd403a315f,0,49,49,75,1,twofour,,,,,,,,,,,,,,,,,,,,,,,,,,,,,,,,,,,,,,,,,,,,,,,,,,,,,,,,,,,,,,,,,,,,,,,,,,,,,,,,,,,,,,,,,,,,,,,,,,,,,,,,,,,,,,,,,,,,,,,,,,,,,,,,,,,,,,,,,,,,,,,,,,,,,,,,,,,,,
,,,,,,6131df33c2388c23af8f09b1,62c53a92ecd659bb0b2aae92,2022-07-06_09h33.02.153,Colour_Asymmetry_Pilot,2022.1.3,Win32,59.70505702,62c50e9c1127f2cd403a315f,0,50,50,6,1,fourtwo,,,,,,,,,,,,,,,,,,,,,,,,,,,,,,,,,,,,,,,,,,,,,,,,,,,,,,,,,,,,,,,,,,,,,,,,,,,,,,,,,,,,,,,,,,,,,,,,,,,,,,,,,,,,,,,,,,,,,,,,,,,,,,,,,,,,,,,,,,,,,,,,,,,,,,,,,,,,,
,,,,,,6131df33c2388c23af8f09b1,62c53a92ecd659bb0b2aae92,2022-07-06_09h33.02.153,Colour_Asymmetry_Pilot,2022.1.3,Win32,59.70505702,62c50e9c1127f2cd403a315f,0,51,51,138,1,twoone,,,,,,,,,,,,,,,,,,,,,,,,,,,,,,,,,,,,,,,,,,,,,,,,,,,,,,,,,,,,,,,,,,,,,,,,,,,,,,,,,,,,,,,,,,,,,,,,,,,,,,,,,,,,,,,,,,,,,,,,,,,,,,,,,,,,,,,,,,,,,,,,,,,,,,,,,,,,,
,,,,,,6131df33c2388c23af8f09b1,62c53a92ecd659bb0b2aae92,2022-07-06_09h33.02.153,Colour_Asymmetry_Pilot,2022.1.3,Win32,59.70505702,62c50e9c1127f2cd403a315f,0,52,52,8,1,onetwo,,,,,,,,,,,,,,,,,,,,,,,,,,,,,,,,,,,,,,,,,,,,,,,,,,,,,,,,,,,,,,,,,,,,,,,,,,,,,,,,,,,,,,,,,,,,,,,,,,,,,,,,,,,,,,,,,,,,,,,,,,,,,,,,,,,,,,,,,,,,,,,,,,,,,,,,,,,,,
,,,,,,6131df33c2388c23af8f09b1,62c53a92ecd659bb0b2aae92,2022-07-06_09h33.02.153,Colour_Asymmetry_Pilot,2022.1.3,Win32,59.70505702,62c50e9c1127f2cd403a315f,0,53,53,156,1,threeone,,,,,,,,,,,,,,,,,,,,,,,,,,,,,,,,,,,,,,,,,,,,,,,,,,,,,,,,,,,,,,,,,,,,,,,,,,,,,,,,,,,,,,,,,,,,,,,,,,,,,,,,,,,,,,,,,,,,,,,,,,,,,,,,,,,,,,,,,,,,,,,,,,,,,,,,,,,,,
,,,,,,6131df33c2388c23af8f09b1,62c53a92ecd659bb0b2aae92,2022-07-06_09h33.02.153,Colour_Asymmetry_Pilot,2022.1.3,Win32,59.70505702,62c50e9c1127f2cd403a315f,0,54,54,68,1,threeone,,,,,,,,,,,,,,,,,,,,,,,,,,,,,,,,,,,,,,,,,,,,,,,,,,,,,,,,,,,,,,,,,,,,,,,,,,,,,,,,,,,,,,,,,,,,,,,,,,,,,,,,,,,,,,,,,,,,,,,,,,,,,,,,,,,,,,,,,,,,,,,,,,,,,,,,,,,,,
,,,,,,6131df33c2388c23af8f09b1,62c53a92ecd659bb0b2aae92,2022-07-06_09h33.02.153,Colour_Asymmetry_Pilot,2022.1.3,Win32,59.70505702,62c50e9c1127f2cd403a315f,0,55,55,26,1,twoone,,,,,,,,,,,,,,,,,,,,,,,,,,,,,,,,,,,,,,,,,,,,,,,,,,,,,,,,,,,,,,,,,,,,,,,,,,,,,,,,,,,,,,,,,,,,,,,,,,,,,,,,,,,,,,,,,,,,,,,,,,,,,,,,,,,,,,,,,,,,,,,,,,,,,,,,,,,,,
,,,,,,6131df33c2388c23af8f09b1,62c53a92ecd659bb0b2aae92,2022-07-06_09h33.02.153,Colour_Asymmetry_Pilot,2022.1.3,Win32,59.70505702,62c50e9c1127f2cd403a315f,0,56,56,137,1,onethree,,,,,,,,,,,,,,,,,,,,,,,,,,,,,,,,,,,,,,,,,,,,,,,,,,,,,,,,,,,,,,,,,,,,,,,,,,,,,,,,,,,,,,,,,,,,,,,,,,,,,,,,,,,,,,,,,,,,,,,,,,,,,,,,,,,,,,,,,,,,,,,,,,,,,,,,,,,,,
,,,,,,6131df33c2388c23af8f09b1,62c53a92ecd659bb0b2aae92,2022-07-06_09h33.02.153,Colour_Asymmetry_Pilot,2022.1.3,Win32,59.70505702,62c50e9c1127f2cd403a315f,0,57,57,117,1,threefour,,,,,,,,,,,,,,,,,,,,,,,,,,,,,,,,,,,,,,,,,,,,,,,,,,,,,,,,,,,,,,,,,,,,,,,,,,,,,,,,,,,,,,,,,,,,,,,,,,,,,,,,,,,,,,,,,,,,,,,,,,,,,,,,,,,,,,,,,,,,,,,,,,,,,,,,,,,,,
,,,,,,6131df33c2388c23af8f09b1,62c53a92ecd659bb0b2aae92,2022-07-06_09h33.02.153,Colour_Asymmetry_Pilot,2022.1.3,Win32,59.70505702,62c50e9c1127f2cd403a315f,0,58,58,30,1,fourtwo,,,,,,,,,,,,,,,,,,,,,,,,,,,,,,,,,,,,,,,,,,,,,,,,,,,,,,,,,,,,,,,,,,,,,,,,,,,,,,,,,,,,,,,,,,,,,,,,,,,,,,,,,,,,,,,,,,,,,,,,,,,,,,,,,,,,,,,,,,,,,,,,,,,,,,,,,,,,,
,,,,,,6131df33c2388c23af8f09b1,62c53a92ecd659bb0b2aae92,2022-07-06_09h33.02.153,Colour_Asymmetry_Pilot,2022.1.3,Win32,59.70505702,62c50e9c1127f2cd403a315f,0,59,59,101,1,threefour,,,,,,,,,,,,,,,,,,,,,,,,,,,,,,,,,,,,,,,,,,,,,,,,,,,,,,,,,,,,,,,,,,,,,,,,,,,,,,,,,,,,,,,,,,,,,,,,,,,,,,,,,,,,,,,,,,,,,,,,,,,,,,,,,,,,,,,,,,,,,,,,,,,,,,,,,,,,,
,,,,,,6131df33c2388c23af8f09b1,62c53a92ecd659bb0b2aae92,2022-07-06_09h33.02.153,Colour_Asymmetry_Pilot,2022.1.3,Win32,59.70505702,62c50e9c1127f2cd403a315f,0,60,60,50,1,twoone,,,,,,,,,,,,,,,,,,,,,,,,,,,,,,,,,,,,,,,,,,,,,,,,,,,,,,,,,,,,,,,,,,,,,,,,,,,,,,,,,,,,,,,,,,,,,,,,,,,,,,,,,,,,,,,,,,,,,,,,,,,,,,,,,,,,,,,,,,,,,,,,,,,,,,,,,,,,,
,,,,,,6131df33c2388c23af8f09b1,62c53a92ecd659bb0b2aae92,2022-07-06_09h33.02.153,Colour_Asymmetry_Pilot,2022.1.3,Win32,59.70505702,62c50e9c1127f2cd403a315f,0,61,61,126,1,fourtwo,,,,,,,,,,,,,,,,,,,,,,,,,,,,,,,,,,,,,,,,,,,,,,,,,,,,,,,,,,,,,,,,,,,,,,,,,,,,,,,,,,,,,,,,,,,,,,,,,,,,,,,,,,,,,,,,,,,,,,,,,,,,,,,,,,,,,,,,,,,,,,,,,,,,,,,,,,,,,
,,,,,,6131df33c2388c23af8f09b1,62c53a92ecd659bb0b2aae92,2022-07-06_09h33.02.153,Colour_Asymmetry_Pilot,2022.1.3,Win32,59.70505702,62c50e9c1127f2cd403a315f,0,62,62,44,1,threeone,,,,,,,,,,,,,,,,,,,,,,,,,,,,,,,,,,,,,,,,,,,,,,,,,,,,,,,,,,,,,,,,,,,,,,,,,,,,,,,,,,,,,,,,,,,,,,,,,,,,,,,,,,,,,,,,,,,,,,,,,,,,,,,,,,,,,,,,,,,,,,,,,,,,,,,,,,,,,
,,,,,,6131df33c2388c23af8f09b1,62c53a92ecd659bb0b2aae92,2022-07-06_09h33.02.153,Colour_Asymmetry_Pilot,2022.1.3,Win32,59.70505702,62c50e9c1127f2cd403a315f,0,63,63,23,1,fourthree,,,,,,,,,,,,,,,,,,,,,,,,,,,,,,,,,,,,,,,,,,,,,,,,,,,,,,,,,,,,,,,,,,,,,,,,,,,,,,,,,,,,,,,,,,,,,,,,,,,,,,,,,,,,,,,,,,,,,,,,,,,,,,,,,,,,,,,,,,,,,,,,,,,,,,,,,,,,,
,,,,,,6131df33c2388c23af8f09b1,62c53a92ecd659bb0b2aae92,2022-07-06_09h33.02.153,Colour_Asymmetry_Pilot,2022.1.3,Win32,59.70505702,62c50e9c1127f2cd403a315f,0,64,64,149,1,threefour,,,,,,,,,,,,,,,,,,,,,,,,,,,,,,,,,,,,,,,,,,,,,,,,,,,,,,,,,,,,,,,,,,,,,,,,,,,,,,,,,,,,,,,,,,,,,,,,,,,,,,,,,,,,,,,,,,,,,,,,,,,,,,,,,,,,,,,,,,,,,,,,,,,,,,,,,,,,,
,,,,,,6131df33c2388c23af8f09b1,62c53a92ecd659bb0b2aae92,2022-07-06_09h33.02.153,Colour_Asymmetry_Pilot,2022.1.3,Win32,59.70505702,62c50e9c1127f2cd403a315f,0,65,65,49,1,onethree,,,,,,,,,,,,,,,,,,,,,,,,,,,,,,,,,,,,,,,,,,,,,,,,,,,,,,,,,,,,,,,,,,,,,,,,,,,,,,,,,,,,,,,,,,,,,,,,,,,,,,,,,,,,,,,,,,,,,,,,,,,,,,,,,,,,,,,,,,,,,,,,,,,,,,,,,,,,,
,,,,,,6131df33c2388c23af8f09b1,62c53a92ecd659bb0b2aae92,2022-07-06_09h33.02.153,Colour_Asymmetry_Pilot,2022.1.3,Win32,59.70505702,62c50e9c1127f2cd403a315f,0,66,66,110,1,fourtwo,,,,,,,,,,,,,,,,,,,,,,,,,,,,,,,,,,,,,,,,,,,,,,,,,,,,,,,,,,,,,,,,,,,,,,,,,,,,,,,,,,,,,,,,,,,,,,,,,,,,,,,,,,,,,,,,,,,,,,,,,,,,,,,,,,,,,,,,,,,,,,,,,,,,,,,,,,,,,
,,,,,,6131df33c2388c23af8f09b1,62c53a92ecd659bb0b2aae92,2022-07-06_09h33.02.153,Colour_Asymmetry_Pilot,2022.1.3,Win32,59.70505702,62c50e9c1127f2cd403a315f,0,67,67,12,1,threeone,,,,,,,,,,,,,,,,,,,,,,,,,,,,,,,,,,,,,,,,,,,,,,,,,,,,,,,,,,,,,,,,,,,,,,,,,,,,,,,,,,,,,,,,,,,,,,,,,,,,,,,,,,,,,,,,,,,,,,,,,,,,,,,,,,,,,,,,,,,,,,,,,,,,,,,,,,,,,
,,,,,,6131df33c2388c23af8f09b1,62c53a92ecd659bb0b2aae92,2022-07-06_09h33.02.153,Colour_Asymmetry_Pilot,2022.1.3,Win32,59.70505702,62c50e9c1127f2cd403a315f,0,68,68,83,1,twofour,,,,,,,,,,,,,,,,,,,,,,,,,,,,,,,,,,,,,,,,,,,,,,,,,,,,,,,,,,,,,,,,,,,,,,,,,,,,,,,,,,,,,,,,,,,,,,,,,,,,,,,,,,,,,,,,,,,,,,,,,,,,,,,,,,,,,,,,,,,,,,,,,,,,,,,,,,,,,
,,,,,,6131df33c2388c23af8f09b1,62c53a92ecd659bb0b2aae92,2022-07-06_09h33.02.153,Colour_Asymmetry_Pilot,2022.1.3,Win32,59.70505702,62c50e9c1127f2cd403a315f,0,69,69,155,1,twofour,,,,,,,,,,,,,,,,,,,,,,,,,,,,,,,,,,,,,,,,,,,,,,,,,,,,,,,,,,,,,,,,,,,,,,,,,,,,,,,,,,,,,,,,,,,,,,,,,,,,,,,,,,,,,,,,,,,,,,,,,,,,,,,,,,,,,,,,,,,,,,,,,,,,,,,,,,,,,
,,,,,,6131df33c2388c23af8f09b1,62c53a92ecd659bb0b2aae92,2022-07-06_09h33.02.153,Colour_Asymmetry_Pilot,2022.1.3,Win32,59.70505702,62c50e9c1127f2cd403a315f,0,70,70,2,1,twoone,,,,,,,,,,,,,,,,,,,,,,,,,,,,,,,,,,,,,,,,,,,,,,,,,,,,,,,,,,,,,,,,,,,,,,,,,,,,,,,,,,,,,,,,,,,,,,,,,,,,,,,,,,,,,,,,,,,,,,,,,,,,,,,,,,,,,,,,,,,,,,,,,,,,,,,,,,,,,
,,,,,,6131df33c2388c23af8f09b1,62c53a92ecd659bb0b2aae92,2022-07-06_09h33.02.153,Colour_Asymmetry_Pilot,2022.1.3,Win32,59.70505702,62c50e9c1127f2cd403a315f,0,71,71,100,1,threeone,,,,,,,,,,,,,,,,,,,,,,,,,,,,,,,,,,,,,,,,,,,,,,,,,,,,,,,,,,,,,,,,,,,,,,,,,,,,,,,,,,,,,,,,,,,,,,,,,,,,,,,,,,,,,,,,,,,,,,,,,,,,,,,,,,,,,,,,,,,,,,,,,,,,,,,,,,,,,
,,,,,,6131df33c2388c23af8f09b1,62c53a92ecd659bb0b2aae92,2022-07-06_09h33.02.153,Colour_Asymmetry_Pilot,2022.1.3,Win32,59.70505702,62c50e9c1127f2cd403a315f,0,72,72,36,1,threeone,,,,,,,,,,,,,,,,,,,,,,,,,,,,,,,,,,,,,,,,,,,,,,,,,,,,,,,,,,,,,,,,,,,,,,,,,,,,,,,,,,,,,,,,,,,,,,,,,,,,,,,,,,,,,,,,,,,,,,,,,,,,,,,,,,,,,,,,,,,,,,,,,,,,,,,,,,,,,
,,,,,,6131df33c2388c23af8f09b1,62c53a92ecd659bb0b2aae92,2022-07-06_09h33.02.153,Colour_Asymmetry_Pilot,2022.1.3,Win32,59.70505702,62c50e9c1127f2cd403a315f,0,73,73,41,1,onethree,,,,,,,,,,,,,,,,,,,,,,,,,,,,,,,,,,,,,,,,,,,,,,,,,,,,,,,,,,,,,,,,,,,,,,,,,,,,,,,,,,,,,,,,,,,,,,,,,,,,,,,,,,,,,,,,,,,,,,,,,,,,,,,,,,,,,,,,,,,,,,,,,,,,,,,,,,,,,
,,,,,,6131df33c2388c23af8f09b1,62c53a92ecd659bb0b2aae92,2022-07-06_09h33.02.153,Colour_Asymmetry_Pilot,2022.1.3,Win32,59.70505702,62c50e9c1127f2cd403a315f,0,74,74,18,1,twoone,,,,,,,,,,,,,,,,,,,,,,,,,,,,,,,,,,,,,,,,,,,,,,,,,,,,,,,,,,,,,,,,,,,,,,,,,,,,,,,,,,,,,,,,,,,,,,,,,,,,,,,,,,,,,,,,,,,,,,,,,,,,,,,,,,,,,,,,,,,,,,,,,,,,,,,,,,,,,
,,,,,,6131df33c2388c23af8f09b1,62c53a92ecd659bb0b2aae92,2022-07-06_09h33.02.153,Colour_Asymmetry_Pilot,2022.1.3,Win32,59.70505702,62c50e9c1127f2cd403a315f,0,75,75,11,1,twofour,,,,,,,,,,,,,,,,,,,,,,,,,,,,,,,,,,,,,,,,,,,,,,,,,,,,,,,,,,,,,,,,,,,,,,,,,,,,,,,,,,,,,,,,,,,,,,,,,,,,,,,,,,,,,,,,,,,,,,,,,,,,,,,,,,,,,,,,,,,,,,,,,,,,,,,,,,,,,
,,,,,,6131df33c2388c23af8f09b1,62c53a92ecd659bb0b2aae92,2022-07-06_09h33.02.153,Colour_Asymmetry_Pilot,2022.1.3,Win32,59.70505702,62c50e9c1127f2cd403a315f,0,76,76,52,1,threeone,,,,,,,,,,,,,,,,,,,,,,,,,,,,,,,,,,,,,,,,,,,,,,,,,,,,,,,,,,,,,,,,,,,,,,,,,,,,,,,,,,,,,,,,,,,,,,,,,,,,,,,,,,,,,,,,,,,,,,,,,,,,,,,,,,,,,,,,,,,,,,,,,,,,,,,,,,,,,
,,,,,,6131df33c2388c23af8f09b1,62c53a92ecd659bb0b2aae92,2022-07-06_09h33.02.153,Colour_Asymmetry_Pilot,2022.1.3,Win32,59.70505702,62c50e9c1127f2cd403a315f,0,77,77,9,1,onethree,,,,,,,,,,,,,,,,,,,,,,,,,,,,,,,,,,,,,,,,,,,,,,,,,,,,,,,,,,,,,,,,,,,,,,,,,,,,,,,,,,,,,,,,,,,,,,,,,,,,,,,,,,,,,,,,,,,,,,,,,,,,,,,,,,,,,,,,,,,,,,,,,,,,,,,,,,,,,
,,,,,,6131df33c2388c23af8f09b1,62c53a92ecd659bb0b2aae92,2022-07-06_09h33.02.153,Colour_Asymmetry_Pilot,2022.1.3,Win32,59.70505702,62c50e9c1127f2cd403a315f,0,78,78,120,1,onetwo,,,,,,,,,,,,,,,,,,,,,,,,,,,,,,,,,,,,,,,,,,,,,,,,,,,,,,,,,,,,,,,,,,,,,,,,,,,,,,,,,,,,,,,,,,,,,,,,,,,,,,,,,,,,,,,,,,,,,,,,,,,,,,,,,,,,,,,,,,,,,,,,,,,,,,,,,,,,,
,,,,,,6131df33c2388c23af8f09b1,62c53a92ecd659bb0b2aae92,2022-07-06_09h33.02.153,Colour_Asymmetry_Pilot,2022.1.3,Win32,59.70505702,62c50e9c1127f2cd403a315f,0,79,79,108,1,threeone,,,,,,,,,,,,,,,,,,,,,,,,,,,,,,,,,,,,,,,,,,,,,,,,,,,,,,,,,,,,,,,,,,,,,,,,,,,,,,,,,,,,,,,,,,,,,,,,,,,,,,,,,,,,,,,,,,,,,,,,,,,,,,,,,,,,,,,,,,,,,,,,,,,,,,,,,,,,,
,,,,,,6131df33c2388c23af8f09b1,62c53a92ecd659bb0b2aae92,2022-07-06_09h33.02.153,Colour_Asymmetry_Pilot,2022.1.3,Win32,59.70505702,62c50e9c1127f2cd403a315f,0,80,80,38,1,fourtwo,,,,,,,,,,,,,,,,,,,,,,,,,,,,,,,,,,,,,,,,,,,,,,,,,,,,,,,,,,,,,,,,,,,,,,,,,,,,,,,,,,,,,,,,,,,,,,,,,,,,,,,,,,,,,,,,,,,,,,,,,,,,,,,,,,,,,,,,,,,,,,,,,,,,,,,,,,,,,
,,,,,,6131df33c2388c23af8f09b1,62c53a92ecd659bb0b2aae92,2022-07-06_09h33.02.153,Colour_Asymmetry_Pilot,2022.1.3,Win32,59.70505702,62c50e9c1127f2cd403a315f,0,81,81,61,1,threefour,,,,,,,,,,,,,,,,,,,,,,,,,,,,,,,,,,,,,,,,,,,,,,,,,,,,,,,,,,,,,,,,,,,,,,,,,,,,,,,,,,,,,,,,,,,,,,,,,,,,,,,,,,,,,,,,,,,,,,,,,,,,,,,,,,,,,,,,,,,,,,,,,,,,,,,,,,,,,
,,,,,,6131df33c2388c23af8f09b1,62c53a92ecd659bb0b2aae92,2022-07-06_09h33.02.153,Colour_Asymmetry_Pilot,2022.1.3,Win32,59.70505702,62c50e9c1127f2cd403a315f,0,82,82,85,1,threefour,,,,,,,,,,,,,,,,,,,,,,,,,,,,,,,,,,,,,,,,,,,,,,,,,,,,,,,,,,,,,,,,,,,,,,,,,,,,,,,,,,,,,,,,,,,,,,,,,,,,,,,,,,,,,,,,,,,,,,,,,,,,,,,,,,,,,,,,,,,,,,,,,,,,,,,,,,,,,
,,,,,,6131df33c2388c23af8f09b1,62c53a92ecd659bb0b2aae92,2022-07-06_09h33.02.153,Colour_Asymmetry_Pilot,2022.1.3,Win32,59.70505702,62c50e9c1127f2cd403a315f,0,83,83,25,1,onethree,,,,,,,,,,,,,,,,,,,,,,,,,,,,,,,,,,,,,,,,,,,,,,,,,,,,,,,,,,,,,,,,,,,,,,,,,,,,,,,,,,,,,,,,,,,,,,,,,,,,,,,,,,,,,,,,,,,,,,,,,,,,,,,,,,,,,,,,,,,,,,,,,,,,,,,,,,,,,
,,,,,,6131df33c2388c23af8f09b1,62c53a92ecd659bb0b2aae92,2022-07-06_09h33.02.153,Colour_Asymmetry_Pilot,2022.1.3,Win32,59.70505702,62c50e9c1127f2cd403a315f,0,84,84,95,1,fourthree,,,,,,,,,,,,,,,,,,,,,,,,,,,,,,,,,,,,,,,,,,,,,,,,,,,,,,,,,,,,,,,,,,,,,,,,,,,,,,,,,,,,,,,,,,,,,,,,,,,,,,,,,,,,,,,,,,,,,,,,,,,,,,,,,,,,,,,,,,,,,,,,,,,,,,,,,,,,,
,,,,,,6131df33c2388c23af8f09b1,62c53a92ecd659bb0b2aae92,2022-07-06_09h33.02.153,Colour_Asymmetry_Pilot,2022.1.3,Win32,59.70505702,62c50e9c1127f2cd403a315f,0,85,85,78,1,fourtwo,,,,,,,,,,,,,,,,,,,,,,,,,,,,,,,,,,,,,,,,,,,,,,,,,,,,,,,,,,,,,,,,,,,,,,,,,,,,,,,,,,,,,,,,,,,,,,,,,,,,,,,,,,,,,,,,,,,,,,,,,,,,,,,,,,,,,,,,,,,,,,,,,,,,,,,,,,,,,
,,,,,,6131df33c2388c23af8f09b1,62c53a92ecd659bb0b2aae92,2022-07-06_09h33.02.153,Colour_Asymmetry_Pilot,2022.1.3,Win32,59.70505702,62c50e9c1127f2cd403a315f,0,86,86,64,1,onetwo,,,,,,,,,,,,,,,,,,,,,,,,,,,,,,,,,,,,,,,,,,,,,,,,,,,,,,,,,,,,,,,,,,,,,,,,,,,,,,,,,,,,,,,,,,,,,,,,,,,,,,,,,,,,,,,,,,,,,,,,,,,,,,,,,,,,,,,,,,,,,,,,,,,,,,,,,,,,,
,,,,,,6131df33c2388c23af8f09b1,62c53a92ecd659bb0b2aae92,2022-07-06_09h33.02.153,Colour_Asymmetry_Pilot,2022.1.3,Win32,59.70505702,62c50e9c1127f2cd403a315f,0,87,87,123,1,twofour,,,,,,,,,,,,,,,,,,,,,,,,,,,,,,,,,,,,,,,,,,,,,,,,,,,,,,,,,,,,,,,,,,,,,,,,,,,,,,,,,,,,,,,,,,,,,,,,,,,,,,,,,,,,,,,,,,,,,,,,,,,,,,,,,,,,,,,,,,,,,,,,,,,,,,,,,,,,,
,,,,,,6131df33c2388c23af8f09b1,62c53a92ecd659bb0b2aae92,2022-07-06_09h33.02.153,Colour_Asymmetry_Pilot,2022.1.3,Win32,59.70505702,62c50e9c1127f2cd403a315f,0,88,88,139,1,twofour,,,,,,,,,,,,,,,,,,,,,,,,,,,,,,,,,,,,,,,,,,,,,,,,,,,,,,,,,,,,,,,,,,,,,,,,,,,,,,,,,,,,,,,,,,,,,,,,,,,,,,,,,,,,,,,,,,,,,,,,,,,,,,,,,,,,,,,,,,,,,,,,,,,,,,,,,,,,,
,,,,,,6131df33c2388c23af8f09b1,62c53a92ecd659bb0b2aae92,2022-07-06_09h33.02.153,Colour_Asymmetry_Pilot,2022.1.3,Win32,59.70505702,62c50e9c1127f2cd403a315f,0,89,89,60,1,threeone,,,,,,,,,,,,,,,,,,,,,,,,,,,,,,,,,,,,,,,,,,,,,,,,,,,,,,,,,,,,,,,,,,,,,,,,,,,,,,,,,,,,,,,,,,,,,,,,,,,,,,,,,,,,,,,,,,,,,,,,,,,,,,,,,,,,,,,,,,,,,,,,,,,,,,,,,,,,,
,,,,,,6131df33c2388c23af8f09b1,62c53a92ecd659bb0b2aae92,2022-07-06_09h33.02.153,Colour_Asymmetry_Pilot,2022.1.3,Win32,59.70505702,62c50e9c1127f2cd403a315f,0,90,90,4,1,threeone,,,,,,,,,,,,,,,,,,,,,,,,,,,,,,,,,,,,,,,,,,,,,,,,,,,,,,,,,,,,,,,,,,,,,,,,,,,,,,,,,,,,,,,,,,,,,,,,,,,,,,,,,,,,,,,,,,,,,,,,,,,,,,,,,,,,,,,,,,,,,,,,,,,,,,,,,,,,,
,,,,,,6131df33c2388c23af8f09b1,62c53a92ecd659bb0b2aae92,2022-07-06_09h33.02.153,Colour_Asymmetry_Pilot,2022.1.3,Win32,59.70505702,62c50e9c1127f2cd403a315f,0,91,91,113,1,onethree,,,,,,,,,,,,,,,,,,,,,,,,,,,,,,,,,,,,,,,,,,,,,,,,,,,,,,,,,,,,,,,,,,,,,,,,,,,,,,,,,,,,,,,,,,,,,,,,,,,,,,,,,,,,,,,,,,,,,,,,,,,,,,,,,,,,,,,,,,,,,,,,,,,,,,,,,,,,,
,,,,,,6131df33c2388c23af8f09b1,62c53a92ecd659bb0b2aae92,2022-07-06_09h33.02.153,Colour_Asymmetry_Pilot,2022.1.3,Win32,59.70505702,62c50e9c1127f2cd403a315f,0,92,92,105,1,onethree,,,,,,,,,,,,,,,,,,,,,,,,,,,,,,,,,,,,,,,,,,,,,,,,,,,,,,,,,,,,,,,,,,,,,,,,,,,,,,,,,,,,,,,,,,,,,,,,,,,,,,,,,,,,,,,,,,,,,,,,,,,,,,,,,,,,,,,,,,,,,,,,,,,,,,,,,,,,,
,,,,,,6131df33c2388c23af8f09b1,62c53a92ecd659bb0b2aae92,2022-07-06_09h33.02.153,Colour_Asymmetry_Pilot,2022.1.3,Win32,59.70505702,62c50e9c1127f2cd403a315f,0,93,93,98,1,twoone,,,,,,,,,,,,,,,,,,,,,,,,,,,,,,,,,,,,,,,,,,,,,,,,,,,,,,,,,,,,,,,,,,,,,,,,,,,,,,,,,,,,,,,,,,,,,,,,,,,,,,,,,,,,,,,,,,,,,,,,,,,,,,,,,,,,,,,,,,,,,,,,,,,,,,,,,,,,,
,,,,,,6131df33c2388c23af8f09b1,62c53a92ecd659bb0b2aae92,2022-07-06_09h33.02.153,Colour_Asymmetry_Pilot,2022.1.3,Win32,59.70505702,62c50e9c1127f2cd403a315f,0,94,94,122,1,twoone,,,,,,,,,,,,,,,,,,,,,,,,,,,,,,,,,,,,,,,,,,,,,,,,,,,,,,,,,,,,,,,,,,,,,,,,,,,,,,,,,,,,,,,,,,,,,,,,,,,,,,,,,,,,,,,,,,,,,,,,,,,,,,,,,,,,,,,,,,,,,,,,,,,,,,,,,,,,,
,,,,,,6131df33c2388c23af8f09b1,62c53a92ecd659bb0b2aae92,2022-07-06_09h33.02.153,Colour_Asymmetry_Pilot,2022.1.3,Win32,59.70505702,62c50e9c1127f2cd403a315f,0,95,95,55,1,fourthree,,,,,,,,,,,,,,,,,,,,,,,,,,,,,,,,,,,,,,,,,,,,,,,,,,,,,,,,,,,,,,,,,,,,,,,,,,,,,,,,,,,,,,,,,,,,,,,,,,,,,,,,,,,,,,,,,,,,,,,,,,,,,,,,,,,,,,,,,,,,,,,,,,,,,,,,,,,,,
,,,,,,6131df33c2388c23af8f09b1,62c53a92ecd659bb0b2aae92,2022-07-06_09h33.02.153,Colour_Asymmetry_Pilot,2022.1.3,Win32,59.70505702,62c50e9c1127f2cd403a315f,0,96,96,106,1,twoone,,,,,,,,,,,,,,,,,,,,,,,,,,,,,,,,,,,,,,,,,,,,,,,,,,,,,,,,,,,,,,,,,,,,,,,,,,,,,,,,,,,,,,,,,,,,,,,,,,,,,,,,,,,,,,,,,,,,,,,,,,,,,,,,,,,,,,,,,,,,,,,,,,,,,,,,,,,,,
,,,,,,6131df33c2388c23af8f09b1,62c53a92ecd659bb0b2aae92,2022-07-06_09h33.02.153,Colour_Asymmetry_Pilot,2022.1.3,Win32,59.70505702,62c50e9c1127f2cd403a315f,0,97,97,0,1,onetwo,,,,,,,,,,,,,,,,,,,,,,,,,,,,,,,,,,,,,,,,,,,,,,,,,,,,,,,,,,,,,,,,,,,,,,,,,,,,,,,,,,,,,,,,,,,,,,,,,,,,,,,,,,,,,,,,,,,,,,,,,,,,,,,,,,,,,,,,,,,,,,,,,,,,,,,,,,,,,
,,,,,,6131df33c2388c23af8f09b1,62c53a92ecd659bb0b2aae92,2022-07-06_09h33.02.153,Colour_Asymmetry_Pilot,2022.1.3,Win32,59.70505702,62c50e9c1127f2cd403a315f,0,98,98,5,1,threefour,,,,,,,,,,,,,,,,,,,,,,,,,,,,,,,,,,,,,,,,,,,,,,,,,,,,,,,,,,,,,,,,,,,,,,,,,,,,,,,,,,,,,,,,,,,,,,,,,,,,,,,,,,,,,,,,,,,,,,,,,,,,,,,,,,,,,,,,,,,,,,,,,,,,,,,,,,,,,
,,,,,,6131df33c2388c23af8f09b1,62c53a92ecd659bb0b2aae92,2022-07-06_09h33.02.153,Colour_Asymmetry_Pilot,2022.1.3,Win32,59.70505702,62c50e9c1127f2cd403a315f,0,99,99,88,1,onetwo,,,,,,,,,,,,,,,,,,,,,,,,,,,,,,,,,,,,,,,,,,,,,,,,,,,,,,,,,,,,,,,,,,,,,,,,,,,,,,,,,,,,,,,,,,,,,,,,,,,,,,,,,,,,,,,,,,,,,,,,,,,,,,,,,,,,,,,,,,,,,,,,,,,,,,,,,,,,,
,,,,,,6131df33c2388c23af8f09b1,62c53a92ecd659bb0b2aae92,2022-07-06_09h33.02.153,Colour_Asymmetry_Pilot,2022.1.3,Win32,59.70505702,62c50e9c1127f2cd403a315f,0,100,100,107,1,twofour,,,,,,,,,,,,,,,,,,,,,,,,,,,,,,,,,,,,,,,,,,,,,,,,,,,,,,,,,,,,,,,,,,,,,,,,,,,,,,,,,,,,,,,,,,,,,,,,,,,,,,,,,,,,,,,,,,,,,,,,,,,,,,,,,,,,,,,,,,,,,,,,,,,,,,,,,,,,,
,,,,,,6131df33c2388c23af8f09b1,62c53a92ecd659bb0b2aae92,2022-07-06_09h33.02.153,Colour_Asymmetry_Pilot,2022.1.3,Win32,59.70505702,62c50e9c1127f2cd403a315f,0,101,101,128,1,onetwo,,,,,,,,,,,,,,,,,,,,,,,,,,,,,,,,,,,,,,,,,,,,,,,,,,,,,,,,,,,,,,,,,,,,,,,,,,,,,,,,,,,,,,,,,,,,,,,,,,,,,,,,,,,,,,,,,,,,,,,,,,,,,,,,,,,,,,,,,,,,,,,,,,,,,,,,,,,,,
,,,,,,6131df33c2388c23af8f09b1,62c53a92ecd659bb0b2aae92,2022-07-06_09h33.02.153,Colour_Asymmetry_Pilot,2022.1.3,Win32,59.70505702,62c50e9c1127f2cd403a315f,0,102,102,46,1,fourtwo,,,,,,,,,,,,,,,,,,,,,,,,,,,,,,,,,,,,,,,,,,,,,,,,,,,,,,,,,,,,,,,,,,,,,,,,,,,,,,,,,,,,,,,,,,,,,,,,,,,,,,,,,,,,,,,,,,,,,,,,,,,,,,,,,,,,,,,,,,,,,,,,,,,,,,,,,,,,,
,,,,,,6131df33c2388c23af8f09b1,62c53a92ecd659bb0b2aae92,2022-07-06_09h33.02.153,Colour_Asymmetry_Pilot,2022.1.3,Win32,59.70505702,62c50e9c1127f2cd403a315f,0,103,103,37,1,threefour,,,,,,,,,,,,,,,,,,,,,,,,,,,,,,,,,,,,,,,,,,,,,,,,,,,,,,,,,,,,,,,,,,,,,,,,,,,,,,,,,,,,,,,,,,,,,,,,,,,,,,,,,,,,,,,,,,,,,,,,,,,,,,,,,,,,,,,,,,,,,,,,,,,,,,,,,,,,,
,,,,,,6131df33c2388c23af8f09b1,62c53a92ecd659bb0b2aae92,2022-07-06_09h33.02.153,Colour_Asymmetry_Pilot,2022.1.3,Win32,59.70505702,62c50e9c1127f2cd403a315f,0,104,104,32,1,onetwo,,,,,,,,,,,,,,,,,,,,,,,,,,,,,,,,,,,,,,,,,,,,,,,,,,,,,,,,,,,,,,,,,,,,,,,,,,,,,,,,,,,,,,,,,,,,,,,,,,,,,,,,,,,,,,,,,,,,,,,,,,,,,,,,,,,,,,,,,,,,,,,,,,,,,,,,,,,,,
,,,,,,6131df33c2388c23af8f09b1,62c53a92ecd659bb0b2aae92,2022-07-06_09h33.02.153,Colour_Asymmetry_Pilot,2022.1.3,Win32,59.70505702,62c50e9c1127f2cd403a315f,0,105,105,13,1,threefour,,,,,,,,,,,,,,,,,,,,,,,,,,,,,,,,,,,,,,,,,,,,,,,,,,,,,,,,,,,,,,,,,,,,,,,,,,,,,,,,,,,,,,,,,,,,,,,,,,,,,,,,,,,,,,,,,,,,,,,,,,,,,,,,,,,,,,,,,,,,,,,,,,,,,,,,,,,,,
,,,,,,6131df33c2388c23af8f09b1,62c53a92ecd659bb0b2aae92,2022-07-06_09h33.02.153,Colour_Asymmetry_Pilot,2022.1.3,Win32,59.70505702,62c50e9c1127f2cd403a315f,0,106,106,47,1,fourthree,,,,,,,,,,,,,,,,,,,,,,,,,,,,,,,,,,,,,,,,,,,,,,,,,,,,,,,,,,,,,,,,,,,,,,,,,,,,,,,,,,,,,,,,,,,,,,,,,,,,,,,,,,,,,,,,,,,,,,,,,,,,,,,,,,,,,,,,,,,,,,,,,,,,,,,,,,,,,
,,,,,,6131df33c2388c23af8f09b1,62c53a92ecd659bb0b2aae92,2022-07-06_09h33.02.153,Colour_Asymmetry_Pilot,2022.1.3,Win32,59.70505702,62c50e9c1127f2cd403a315f,0,107,107,143,1,fourthree,,,,,,,,,,,,,,,,,,,,,,,,,,,,,,,,,,,,,,,,,,,,,,,,,,,,,,,,,,,,,,,,,,,,,,,,,,,,,,,,,,,,,,,,,,,,,,,,,,,,,,,,,,,,,,,,,,,,,,,,,,,,,,,,,,,,,,,,,,,,,,,,,,,,,,,,,,,,,
,,,,,,6131df33c2388c23af8f09b1,62c53a92ecd659bb0b2aae92,2022-07-06_09h33.02.153,Colour_Asymmetry_Pilot,2022.1.3,Win32,59.70505702,62c50e9c1127f2cd403a315f,0,108,108,27,1,twofour,,,,,,,,,,,,,,,,,,,,,,,,,,,,,,,,,,,,,,,,,,,,,,,,,,,,,,,,,,,,,,,,,,,,,,,,,,,,,,,,,,,,,,,,,,,,,,,,,,,,,,,,,,,,,,,,,,,,,,,,,,,,,,,,,,,,,,,,,,,,,,,,,,,,,,,,,,,,,
,,,,,,6131df33c2388c23af8f09b1,62c53a92ecd659bb0b2aae92,2022-07-06_09h33.02.153,Colour_Asymmetry_Pilot,2022.1.3,Win32,59.70505702,62c50e9c1127f2cd403a315f,0,109,109,43,1,twofour,,,,,,,,,,,,,,,,,,,,,,,,,,,,,,,,,,,,,,,,,,,,,,,,,,,,,,,,,,,,,,,,,,,,,,,,,,,,,,,,,,,,,,,,,,,,,,,,,,,,,,,,,,,,,,,,,,,,,,,,,,,,,,,,,,,,,,,,,,,,,,,,,,,,,,,,,,,,,
,,,,,,6131df33c2388c23af8f09b1,62c53a92ecd659bb0b2aae92,2022-07-06_09h33.02.153,Colour_Asymmetry_Pilot,2022.1.3,Win32,59.70505702,62c50e9c1127f2cd403a315f,0,110,110,86,1,fourtwo,,,,,,,,,,,,,,,,,,,,,,,,,,,,,,,,,,,,,,,,,,,,,,,,,,,,,,,,,,,,,,,,,,,,,,,,,,,,,,,,,,,,,,,,,,,,,,,,,,,,,,,,,,,,,,,,,,,,,,,,,,,,,,,,,,,,,,,,,,,,,,,,,,,,,,,,,,,,,
,,,,,,6131df33c2388c23af8f09b1,62c53a92ecd659bb0b2aae92,2022-07-06_09h33.02.153,Colour_Asymmetry_Pilot,2022.1.3,Win32,59.70505702,62c50e9c1127f2cd403a315f,0,111,111,76,1,threeone,,,,,,,,,,,,,,,,,,,,,,,,,,,,,,,,,,,,,,,,,,,,,,,,,,,,,,,,,,,,,,,,,,,,,,,,,,,,,,,,,,,,,,,,,,,,,,,,,,,,,,,,,,,,,,,,,,,,,,,,,,,,,,,,,,,,,,,,,,,,,,,,,,,,,,,,,,,,,
,,,,,,6131df33c2388c23af8f09b1,62c53a92ecd659bb0b2aae92,2022-07-06_09h33.02.153,Colour_Asymmetry_Pilot,2022.1.3,Win32,59.70505702,62c50e9c1127f2cd403a315f,0,112,112,90,1,twoone,,,,,,,,,,,,,,,,,,,,,,,,,,,,,,,,,,,,,,,,,,,,,,,,,,,,,,,,,,,,,,,,,,,,,,,,,,,,,,,,,,,,,,,,,,,,,,,,,,,,,,,,,,,,,,,,,,,,,,,,,,,,,,,,,,,,,,,,,,,,,,,,,,,,,,,,,,,,,
,,,,,,6131df33c2388c23af8f09b1,62c53a92ecd659bb0b2aae92,2022-07-06_09h33.02.153,Colour_Asymmetry_Pilot,2022.1.3,Win32,59.70505702,62c50e9c1127f2cd403a315f,0,113,113,21,1,threefour,,,,,,,,,,,,,,,,,,,,,,,,,,,,,,,,,,,,,,,,,,,,,,,,,,,,,,,,,,,,,,,,,,,,,,,,,,,,,,,,,,,,,,,,,,,,,,,,,,,,,,,,,,,,,,,,,,,,,,,,,,,,,,,,,,,,,,,,,,,,,,,,,,,,,,,,,,,,,
,,,,,,6131df33c2388c23af8f09b1,62c53a92ecd659bb0b2aae92,2022-07-06_09h33.02.153,Colour_Asymmetry_Pilot,2022.1.3,Win32,59.70505702,62c50e9c1127f2cd403a315f,0,114,114,69,1,threefour,,,,,,,,,,,,,,,,,,,,,,,,,,,,,,,,,,,,,,,,,,,,,,,,,,,,,,,,,,,,,,,,,,,,,,,,,,,,,,,,,,,,,,,,,,,,,,,,,,,,,,,,,,,,,,,,,,,,,,,,,,,,,,,,,,,,,,,,,,,,,,,,,,,,,,,,,,,,,
,,,,,,6131df33c2388c23af8f09b1,62c53a92ecd659bb0b2aae92,2022-07-06_09h33.02.153,Colour_Asymmetry_Pilot,2022.1.3,Win32,59.70505702,62c50e9c1127f2cd403a315f,0,115,115,16,1,onetwo,,,,,,,,,,,,,,,,,,,,,,,,,,,,,,,,,,,,,,,,,,,,,,,,,,,,,,,,,,,,,,,,,,,,,,,,,,,,,,,,,,,,,,,,,,,,,,,,,,,,,,,,,,,,,,,,,,,,,,,,,,,,,,,,,,,,,,,,,,,,,,,,,,,,,,,,,,,,,
,,,,,,6131df33c2388c23af8f09b1,62c53a92ecd659bb0b2aae92,2022-07-06_09h33.02.153,Colour_Asymmetry_Pilot,2022.1.3,Win32,59.70505702,62c50e9c1127f2cd403a315f,0,116,116,34,1,twoone,,,,,,,,,,,,,,,,,,,,,,,,,,,,,,,,,,,,,,,,,,,,,,,,,,,,,,,,,,,,,,,,,,,,,,,,,,,,,,,,,,,,,,,,,,,,,,,,,,,,,,,,,,,,,,,,,,,,,,,,,,,,,,,,,,,,,,,,,,,,,,,,,,,,,,,,,,,,,
,,,,,,6131df33c2388c23af8f09b1,62c53a92ecd659bb0b2aae92,2022-07-06_09h33.02.153,Colour_Asymmetry_Pilot,2022.1.3,Win32,59.70505702,62c50e9c1127f2cd403a315f,0,117,117,14,1,fourtwo,,,,,,,,,,,,,,,,,,,,,,,,,,,,,,,,,,,,,,,,,,,,,,,,,,,,,,,,,,,,,,,,,,,,,,,,,,,,,,,,,,,,,,,,,,,,,,,,,,,,,,,,,,,,,,,,,,,,,,,,,,,,,,,,,,,,,,,,,,,,,,,,,,,,,,,,,,,,,
,,,,,,6131df33c2388c23af8f09b1,62c53a92ecd659bb0b2aae92,2022-07-06_09h33.02.153,Colour_Asymmetry_Pilot,2022.1.3,Win32,59.70505702,62c50e9c1127f2cd403a315f,0,118,118,133,1,threefour,,,,,,,,,,,,,,,,,,,,,,,,,,,,,,,,,,,,,,,,,,,,,,,,,,,,,,,,,,,,,,,,,,,,,,,,,,,,,,,,,,,,,,,,,,,,,,,,,,,,,,,,,,,,,,,,,,,,,,,,,,,,,,,,,,,,,,,,,,,,,,,,,,,,,,,,,,,,,
,,,,,,6131df33c2388c23af8f09b1,62c53a92ecd659bb0b2aae92,2022-07-06_09h33.02.153,Colour_Asymmetry_Pilot,2022.1.3,Win32,59.70505702,62c50e9c1127f2cd403a315f,0,119,119,158,1,fourtwo,,,,,,,,,,,,,,,,,,,,,,,,,,,,,,,,,,,,,,,,,,,,,,,,,,,,,,,,,,,,,,,,,,,,,,,,,,,,,,,,,,,,,,,,,,,,,,,,,,,,,,,,,,,,,,,,,,,,,,,,,,,,,,,,,,,,,,,,,,,,,,,,,,,,,,,,,,,,,
,,,,,,6131df33c2388c23af8f09b1,62c53a92ecd659bb0b2aae92,2022-07-06_09h33.02.153,Colour_Asymmetry_Pilot,2022.1.3,Win32,59.70505702,62c50e9c1127f2cd403a315f,0,120,120,141,1,threefour,,,,,,,,,,,,,,,,,,,,,,,,,,,,,,,,,,,,,,,,,,,,,,,,,,,,,,,,,,,,,,,,,,,,,,,,,,,,,,,,,,,,,,,,,,,,,,,,,,,,,,,,,,,,,,,,,,,,,,,,,,,,,,,,,,,,,,,,,,,,,,,,,,,,,,,,,,,,,
,,,,,,6131df33c2388c23af8f09b1,62c53a92ecd659bb0b2aae92,2022-07-06_09h33.02.153,Colour_Asymmetry_Pilot,2022.1.3,Win32,59.70505702,62c50e9c1127f2cd403a315f,0,121,121,154,1,twoone,,,,,,,,,,,,,,,,,,,,,,,,,,,,,,,,,,,,,,,,,,,,,,,,,,,,,,,,,,,,,,,,,,,,,,,,,,,,,,,,,,,,,,,,,,,,,,,,,,,,,,,,,,,,,,,,,,,,,,,,,,,,,,,,,,,,,,,,,,,,,,,,,,,,,,,,,,,,,
,,,,,,6131df33c2388c23af8f09b1,62c53a92ecd659bb0b2aae92,2022-07-06_09h33.02.153,Colour_Asymmetry_Pilot,2022.1.3,Win32,59.70505702,62c50e9c1127f2cd403a315f,0,122,122,150,1,fourtwo,,,,,,,,,,,,,,,,,,,,,,,,,,,,,,,,,,,,,,,,,,,,,,,,,,,,,,,,,,,,,,,,,,,,,,,,,,,,,,,,,,,,,,,,,,,,,,,,,,,,,,,,,,,,,,,,,,,,,,,,,,,,,,,,,,,,,,,,,,,,,,,,,,,,,,,,,,,,,
,,,,,,6131df33c2388c23af8f09b1,62c53a92ecd659bb0b2aae92,2022-07-06_09h33.02.153,Colour_Asymmetry_Pilot,2022.1.3,Win32,59.70505702,62c50e9c1127f2cd403a315f,0,123,123,56,1,onetwo,,,,,,,,,,,,,,,,,,,,,,,,,,,,,,,,,,,,,,,,,,,,,,,,,,,,,,,,,,,,,,,,,,,,,,,,,,,,,,,,,,,,,,,,,,,,,,,,,,,,,,,,,,,,,,,,,,,,,,,,,,,,,,,,,,,,,,,,,,,,,,,,,,,,,,,,,,,,,
,,,,,,6131df33c2388c23af8f09b1,62c53a92ecd659bb0b2aae92,2022-07-06_09h33.02.153,Colour_Asymmetry_Pilot,2022.1.3,Win32,59.70505702,62c50e9c1127f2cd403a315f,0,124,124,80,1,onetwo,,,,,,,,,,,,,,,,,,,,,,,,,,,,,,,,,,,,,,,,,,,,,,,,,,,,,,,,,,,,,,,,,,,,,,,,,,,,,,,,,,,,,,,,,,,,,,,,,,,,,,,,,,,,,,,,,,,,,,,,,,,,,,,,,,,,,,,,,,,,,,,,,,,,,,,,,,,,,
,,,,,,6131df33c2388c23af8f09b1,62c53a92ecd659bb0b2aae92,2022-07-06_09h33.02.153,Colour_Asymmetry_Pilot,2022.1.3,Win32,59.70505702,62c50e9c1127f2cd403a315f,0,125,125,89,1,onethree,,,,,,,,,,,,,,,,,,,,,,,,,,,,,,,,,,,,,,,,,,,,,,,,,,,,,,,,,,,,,,,,,,,,,,,,,,,,,,,,,,,,,,,,,,,,,,,,,,,,,,,,,,,,,,,,,,,,,,,,,,,,,,,,,,,,,,,,,,,,,,,,,,,,,,,,,,,,,
,,,,,,6131df33c2388c23af8f09b1,62c53a92ecd659bb0b2aae92,2022-07-06_09h33.02.153,Colour_Asymmetry_Pilot,2022.1.3,Win32,59.70505702,62c50e9c1127f2cd403a315f,0,126,126,63,1,fourthree,,,,,,,,,,,,,,,,,,,,,,,,,,,,,,,,,,,,,,,,,,,,,,,,,,,,,,,,,,,,,,,,,,,,,,,,,,,,,,,,,,,,,,,,,,,,,,,,,,,,,,,,,,,,,,,,,,,,,,,,,,,,,,,,,,,,,,,,,,,,,,,,,,,,,,,,,,,,,
,,,,,,6131df33c2388c23af8f09b1,62c53a92ecd659bb0b2aae92,2022-07-06_09h33.02.153,Colour_Asymmetry_Pilot,2022.1.3,Win32,59.70505702,62c50e9c1127f2cd403a315f,0,127,127,87,1,fourthree,,,,,,,,,,,,,,,,,,,,,,,,,,,,,,,,,,,,,,,,,,,,,,,,,,,,,,,,,,,,,,,,,,,,,,,,,,,,,,,,,,,,,,,,,,,,,,,,,,,,,,,,,,,,,,,,,,,,,,,,,,,,,,,,,,,,,,,,,,,,,,,,,,,,,,,,,,,,,
,,,,,,6131df33c2388c23af8f09b1,62c53a92ecd659bb0b2aae92,2022-07-06_09h33.02.153,Colour_Asymmetry_Pilot,2022.1.3,Win32,59.70505702,62c50e9c1127f2cd403a315f,0,128,128,140,1,threeone,,,,,,,,,,,,,,,,,,,,,,,,,,,,,,,,,,,,,,,,,,,,,,,,,,,,,,,,,,,,,,,,,,,,,,,,,,,,,,,,,,,,,,,,,,,,,,,,,,,,,,,,,,,,,,,,,,,,,,,,,,,,,,,,,,,,,,,,,,,,,,,,,,,,,,,,,,,,,
,,,,,,6131df33c2388c23af8f09b1,62c53a92ecd659bb0b2aae92,2022-07-06_09h33.02.153,Colour_Asymmetry_Pilot,2022.1.3,Win32,59.70505702,62c50e9c1127f2cd403a315f,0,129,129,71,1,fourthree,,,,,,,,,,,,,,,,,,,,,,,,,,,,,,,,,,,,,,,,,,,,,,,,,,,,,,,,,,,,,,,,,,,,,,,,,,,,,,,,,,,,,,,,,,,,,,,,,,,,,,,,,,,,,,,,,,,,,,,,,,,,,,,,,,,,,,,,,,,,,,,,,,,,,,,,,,,,,
,,,,,,6131df33c2388c23af8f09b1,62c53a92ecd659bb0b2aae92,2022-07-06_09h33.02.153,Colour_Asymmetry_Pilot,2022.1.3,Win32,59.70505702,62c50e9c1127f2cd403a315f,0,130,130,157,1,threefour,,,,,,,,,,,,,,,,,,,,,,,,,,,,,,,,,,,,,,,,,,,,,,,,,,,,,,,,,,,,,,,,,,,,,,,,,,,,,,,,,,,,,,,,,,,,,,,,,,,,,,,,,,,,,,,,,,,,,,,,,,,,,,,,,,,,,,,,,,,,,,,,,,,,,,,,,,,,,
,,,,,,6131df33c2388c23af8f09b1,62c53a92ecd659bb0b2aae92,2022-07-06_09h33.02.153,Colour_Asymmetry_Pilot,2022.1.3,Win32,59.70505702,62c50e9c1127f2cd403a315f,0,131,131,124,1,threeone,,,,,,,,,,,,,,,,,,,,,,,,,,,,,,,,,,,,,,,,,,,,,,,,,,,,,,,,,,,,,,,,,,,,,,,,,,,,,,,,,,,,,,,,,,,,,,,,,,,,,,,,,,,,,,,,,,,,,,,,,,,,,,,,,,,,,,,,,,,,,,,,,,,,,,,,,,,,,
,,,,,,6131df33c2388c23af8f09b1,62c53a92ecd659bb0b2aae92,2022-07-06_09h33.02.153,Colour_Asymmetry_Pilot,2022.1.3,Win32,59.70505702,62c50e9c1127f2cd403a315f,0,132,132,58,1,twoone,,,,,,,,,,,,,,,,,,,,,,,,,,,,,,,,,,,,,,,,,,,,,,,,,,,,,,,,,,,,,,,,,,,,,,,,,,,,,,,,,,,,,,,,,,,,,,,,,,,,,,,,,,,,,,,,,,,,,,,,,,,,,,,,,,,,,,,,,,,,,,,,,,,,,,,,,,,,,
,,,,,,6131df33c2388c23af8f09b1,62c53a92ecd659bb0b2aae92,2022-07-06_09h33.02.153,Colour_Asymmetry_Pilot,2022.1.3,Win32,59.70505702,62c50e9c1127f2cd403a315f,0,133,133,111,1,fourthree,,,,,,,,,,,,,,,,,,,,,,,,,,,,,,,,,,,,,,,,,,,,,,,,,,,,,,,,,,,,,,,,,,,,,,,,,,,,,,,,,,,,,,,,,,,,,,,,,,,,,,,,,,,,,,,,,,,,,,,,,,,,,,,,,,,,,,,,,,,,,,,,,,,,,,,,,,,,,
,,,,,,6131df33c2388c23af8f09b1,62c53a92ecd659bb0b2aae92,2022-07-06_09h33.02.153,Colour_Asymmetry_Pilot,2022.1.3,Win32,59.70505702,62c50e9c1127f2cd403a315f,0,134,134,159,1,fourthree,,,,,,,,,,,,,,,,,,,,,,,,,,,,,,,,,,,,,,,,,,,,,,,,,,,,,,,,,,,,,,,,,,,,,,,,,,,,,,,,,,,,,,,,,,,,,,,,,,,,,,,,,,,,,,,,,,,,,,,,,,,,,,,,,,,,,,,,,,,,,,,,,,,,,,,,,,,,,
,,,,,,6131df33c2388c23af8f09b1,62c53a92ecd659bb0b2aae92,2022-07-06_09h33.02.153,Colour_Asymmetry_Pilot,2022.1.3,Win32,59.70505702,62c50e9c1127f2cd403a315f,0,135,135,28,1,threeone,,,,,,,,,,,,,,,,,,,,,,,,,,,,,,,,,,,,,,,,,,,,,,,,,,,,,,,,,,,,,,,,,,,,,,,,,,,,,,,,,,,,,,,,,,,,,,,,,,,,,,,,,,,,,,,,,,,,,,,,,,,,,,,,,,,,,,,,,,,,,,,,,,,,,,,,,,,,,
,,,,,,6131df33c2388c23af8f09b1,62c53a92ecd659bb0b2aae92,2022-07-06_09h33.02.153,Colour_Asymmetry_Pilot,2022.1.3,Win32,59.70505702,62c50e9c1127f2cd403a315f,0,136,136,70,1,fourtwo,,,,,,,,,,,,,,,,,,,,,,,,,,,,,,,,,,,,,,,,,,,,,,,,,,,,,,,,,,,,,,,,,,,,,,,,,,,,,,,,,,,,,,,,,,,,,,,,,,,,,,,,,,,,,,,,,,,,,,,,,,,,,,,,,,,,,,,,,,,,,,,,,,,,,,,,,,,,,
,,,,,,6131df33c2388c23af8f09b1,62c53a92ecd659bb0b2aae92,2022-07-06_09h33.02.153,Colour_Asymmetry_Pilot,2022.1.3,Win32,59.70505702,62c50e9c1127f2cd403a315f,0,137,137,29,1,threefour,,,,,,,,,,,,,,,,,,,,,,,,,,,,,,,,,,,,,,,,,,,,,,,,,,,,,,,,,,,,,,,,,,,,,,,,,,,,,,,,,,,,,,,,,,,,,,,,,,,,,,,,,,,,,,,,,,,,,,,,,,,,,,,,,,,,,,,,,,,,,,,,,,,,,,,,,,,,,
,,,,,,6131df33c2388c23af8f09b1,62c53a92ecd659bb0b2aae92,2022-07-06_09h33.02.153,Colour_Asymmetry_Pilot,2022.1.3,Win32,59.70505702,62c50e9c1127f2cd403a315f,0,138,138,35,1,twofour,,,,,,,,,,,,,,,,,,,,,,,,,,,,,,,,,,,,,,,,,,,,,,,,,,,,,,,,,,,,,,,,,,,,,,,,,,,,,,,,,,,,,,,,,,,,,,,,,,,,,,,,,,,,,,,,,,,,,,,,,,,,,,,,,,,,,,,,,,,,,,,,,,,,,,,,,,,,,
,,,,,,6131df33c2388c23af8f09b1,62c53a92ecd659bb0b2aae92,2022-07-06_09h33.02.153,Colour_Asymmetry_Pilot,2022.1.3,Win32,59.70505702,62c50e9c1127f2cd403a315f,0,139,139,109,1,threefour,,,,,,,,,,,,,,,,,,,,,,,,,,,,,,,,,,,,,,,,,,,,,,,,,,,,,,,,,,,,,,,,,,,,,,,,,,,,,,,,,,,,,,,,,,,,,,,,,,,,,,,,,,,,,,,,,,,,,,,,,,,,,,,,,,,,,,,,,,,,,,,,,,,,,,,,,,,,,
,,,,,,6131df33c2388c23af8f09b1,62c53a92ecd659bb0b2aae92,2022-07-06_09h33.02.153,Colour_Asymmetry_Pilot,2022.1.3,Win32,59.70505702,62c50e9c1127f2cd403a315f,0,140,140,94,1,fourtwo,,,,,,,,,,,,,,,,,,,,,,,,,,,,,,,,,,,,,,,,,,,,,,,,,,,,,,,,,,,,,,,,,,,,,,,,,,,,,,,,,,,,,,,,,,,,,,,,,,,,,,,,,,,,,,,,,,,,,,,,,,,,,,,,,,,,,,,,,,,,,,,,,,,,,,,,,,,,,
,,,,,,6131df33c2388c23af8f09b1,62c53a92ecd659bb0b2aae92,2022-07-06_09h33.02.153,Colour_Asymmetry_Pilot,2022.1.3,Win32,59.70505702,62c50e9c1127f2cd403a315f,0,141,141,73,1,onethree,,,,,,,,,,,,,,,,,,,,,,,,,,,,,,,,,,,,,,,,,,,,,,,,,,,,,,,,,,,,,,,,,,,,,,,,,,,,,,,,,,,,,,,,,,,,,,,,,,,,,,,,,,,,,,,,,,,,,,,,,,,,,,,,,,,,,,,,,,,,,,,,,,,,,,,,,,,,,
,,,,,,6131df33c2388c23af8f09b1,62c53a92ecd659bb0b2aae92,2022-07-06_09h33.02.153,Colour_Asymmetry_Pilot,2022.1.3,Win32,59.70505702,62c50e9c1127f2cd403a315f,0,142,142,129,1,onethree,,,,,,,,,,,,,,,,,,,,,,,,,,,,,,,,,,,,,,,,,,,,,,,,,,,,,,,,,,,,,,,,,,,,,,,,,,,,,,,,,,,,,,,,,,,,,,,,,,,,,,,,,,,,,,,,,,,,,,,,,,,,,,,,,,,,,,,,,,,,,,,,,,,,,,,,,,,,,
,,,,,,6131df33c2388c23af8f09b1,62c53a92ecd659bb0b2aae92,2022-07-06_09h33.02.153,Colour_Asymmetry_Pilot,2022.1.3,Win32,59.70505702,62c50e9c1127f2cd403a315f,0,143,143,7,1,fourthree,,,,,,,,,,,,,,,,,,,,,,,,,,,,,,,,,,,,,,,,,,,,,,,,,,,,,,,,,,,,,,,,,,,,,,,,,,,,,,,,,,,,,,,,,,,,,,,,,,,,,,,,,,,,,,,,,,,,,,,,,,,,,,,,,,,,,,,,,,,,,,,,,,,,,,,,,,,,,
,,,,,,6131df33c2388c23af8f09b1,62c53a92ecd659bb0b2aae92,2022-07-06_09h33.02.153,Colour_Asymmetry_Pilot,2022.1.3,Win32,59.70505702,62c50e9c1127f2cd403a315f,0,144,144,104,1,onetwo,,,,,,,,,,,,,,,,,,,,,,,,,,,,,,,,,,,,,,,,,,,,,,,,,,,,,,,,,,,,,,,,,,,,,,,,,,,,,,,,,,,,,,,,,,,,,,,,,,,,,,,,,,,,,,,,,,,,,,,,,,,,,,,,,,,,,,,,,,,,,,,,,,,,,,,,,,,,,
,,,,,,6131df33c2388c23af8f09b1,62c53a92ecd659bb0b2aae92,2022-07-06_09h33.02.153,Colour_Asymmetry_Pilot,2022.1.3,Win32,59.70505702,62c50e9c1127f2cd403a315f,0,145,145,145,1,onethree,,,,,,,,,,,,,,,,,,,,,,,,,,,,,,,,,,,,,,,,,,,,,,,,,,,,,,,,,,,,,,,,,,,,,,,,,,,,,,,,,,,,,,,,,,,,,,,,,,,,,,,,,,,,,,,,,,,,,,,,,,,,,,,,,,,,,,,,,,,,,,,,,,,,,,,,,,,,,
,,,,,,6131df33c2388c23af8f09b1,62c53a92ecd659bb0b2aae92,2022-07-06_09h33.02.153,Colour_Asymmetry_Pilot,2022.1.3,Win32,59.70505702,62c50e9c1127f2cd403a315f,0,146,146,153,1,onethree,,,,,,,,,,,,,,,,,,,,,,,,,,,,,,,,,,,,,,,,,,,,,,,,,,,,,,,,,,,,,,,,,,,,,,,,,,,,,,,,,,,,,,,,,,,,,,,,,,,,,,,,,,,,,,,,,,,,,,,,,,,,,,,,,,,,,,,,,,,,,,,,,,,,,,,,,,,,,
,,,,,,6131df33c2388c23af8f09b1,62c53a92ecd659bb0b2aae92,2022-07-06_09h33.02.153,Colour_Asymmetry_Pilot,2022.1.3,Win32,59.70505702,62c50e9c1127f2cd403a315f,0,147,147,19,1,twofour,,,,,,,,,,,,,,,,,,,,,,,,,,,,,,,,,,,,,,,,,,,,,,,,,,,,,,,,,,,,,,,,,,,,,,,,,,,,,,,,,,,,,,,,,,,,,,,,,,,,,,,,,,,,,,,,,,,,,,,,,,,,,,,,,,,,,,,,,,,,,,,,,,,,,,,,,,,,,
,,,,,,6131df33c2388c23af8f09b1,62c53a92ecd659bb0b2aae92,2022-07-06_09h33.02.153,Colour_Asymmetry_Pilot,2022.1.3,Win32,59.70505702,62c50e9c1127f2cd403a315f,0,148,148,22,1,fourtwo,,,,,,,,,,,,,,,,,,,,,,,,,,,,,,,,,,,,,,,,,,,,,,,,,,,,,,,,,,,,,,,,,,,,,,,,,,,,,,,,,,,,,,,,,,,,,,,,,,,,,,,,,,,,,,,,,,,,,,,,,,,,,,,,,,,,,,,,,,,,,,,,,,,,,,,,,,,,,
,,,,,,6131df33c2388c23af8f09b1,62c53a92ecd659bb0b2aae92,2022-07-06_09h33.02.153,Colour_Asymmetry_Pilot,2022.1.3,Win32,59.70505702,62c50e9c1127f2cd403a315f,0,149,149,65,1,onethree,,,,,,,,,,,,,,,,,,,,,,,,,,,,,,,,,,,,,,,,,,,,,,,,,,,,,,,,,,,,,,,,,,,,,,,,,,,,,,,,,,,,,,,,,,,,,,,,,,,,,,,,,,,,,,,,,,,,,,,,,,,,,,,,,,,,,,,,,,,,,,,,,,,,,,,,,,,,,
,,,,,,6131df33c2388c23af8f09b1,62c53a92ecd659bb0b2aae92,2022-07-06_09h33.02.153,Colour_Asymmetry_Pilot,2022.1.3,Win32,59.70505702,62c50e9c1127f2cd403a315f,0,150,150,142,1,fourtwo,,,,,,,,,,,,,,,,,,,,,,,,,,,,,,,,,,,,,,,,,,,,,,,,,,,,,,,,,,,,,,,,,,,,,,,,,,,,,,,,,,,,,,,,,,,,,,,,,,,,,,,,,,,,,,,,,,,,,,,,,,,,,,,,,,,,,,,,,,,,,,,,,,,,,,,,,,,,,
,,,,,,6131df33c2388c23af8f09b1,62c53a92ecd659bb0b2aae92,2022-07-06_09h33.02.153,Colour_Asymmetry_Pilot,2022.1.3,Win32,59.70505702,62c50e9c1127f2cd403a315f,0,151,151,45,1,threefour,,,,,,,,,,,,,,,,,,,,,,,,,,,,,,,,,,,,,,,,,,,,,,,,,,,,,,,,,,,,,,,,,,,,,,,,,,,,,,,,,,,,,,,,,,,,,,,,,,,,,,,,,,,,,,,,,,,,,,,,,,,,,,,,,,,,,,,,,,,,,,,,,,,,,,,,,,,,,
,,,,,,6131df33c2388c23af8f09b1,62c53a92ecd659bb0b2aae92,2022-07-06_09h33.02.153,Colour_Asymmetry_Pilot,2022.1.3,Win32,59.70505702,62c50e9c1127f2cd403a315f,0,152,152,131,1,twofour,,,,,,,,,,,,,,,,,,,,,,,,,,,,,,,,,,,,,,,,,,,,,,,,,,,,,,,,,,,,,,,,,,,,,,,,,,,,,,,,,,,,,,,,,,,,,,,,,,,,,,,,,,,,,,,,,,,,,,,,,,,,,,,,,,,,,,,,,,,,,,,,,,,,,,,,,,,,,
,,,,,,6131df33c2388c23af8f09b1,62c53a92ecd659bb0b2aae92,2022-07-06_09h33.02.153,Colour_Asymmetry_Pilot,2022.1.3,Win32,59.70505702,62c50e9c1127f2cd403a315f,0,153,153,96,1,onetwo,,,,,,,,,,,,,,,,,,,,,,,,,,,,,,,,,,,,,,,,,,,,,,,,,,,,,,,,,,,,,,,,,,,,,,,,,,,,,,,,,,,,,,,,,,,,,,,,,,,,,,,,,,,,,,,,,,,,,,,,,,,,,,,,,,,,,,,,,,,,,,,,,,,,,,,,,,,,,
,,,,,,6131df33c2388c23af8f09b1,62c53a92ecd659bb0b2aae92,2022-07-06_09h33.02.153,Colour_Asymmetry_Pilot,2022.1.3,Win32,59.70505702,62c50e9c1127f2cd403a315f,0,154,154,17,1,onethree,,,,,,,,,,,,,,,,,,,,,,,,,,,,,,,,,,,,,,,,,,,,,,,,,,,,,,,,,,,,,,,,,,,,,,,,,,,,,,,,,,,,,,,,,,,,,,,,,,,,,,,,,,,,,,,,,,,,,,,,,,,,,,,,,,,,,,,,,,,,,,,,,,,,,,,,,,,,,
,,,,,,6131df33c2388c23af8f09b1,62c53a92ecd659bb0b2aae92,2022-07-06_09h33.02.153,Colour_Asymmetry_Pilot,2022.1.3,Win32,59.70505702,62c50e9c1127f2cd403a315f,0,155,155,121,1,onethree,,,,,,,,,,,,,,,,,,,,,,,,,,,,,,,,,,,,,,,,,,,,,,,,,,,,,,,,,,,,,,,,,,,,,,,,,,,,,,,,,,,,,,,,,,,,,,,,,,,,,,,,,,,,,,,,,,,,,,,,,,,,,,,,,,,,,,,,,,,,,,,,,,,,,,,,,,,,,
,,,,,,6131df33c2388c23af8f09b1,62c53a92ecd659bb0b2aae92,2022-07-06_09h33.02.153,Colour_Asymmetry_Pilot,2022.1.3,Win32,59.70505702,62c50e9c1127f2cd403a315f,0,156,156,82,1,twoone,,,,,,,,,,,,,,,,,,,,,,,,,,,,,,,,,,,,,,,,,,,,,,,,,,,,,,,,,,,,,,,,,,,,,,,,,,,,,,,,,,,,,,,,,,,,,,,,,,,,,,,,,,,,,,,,,,,,,,,,,,,,,,,,,,,,,,,,,,,,,,,,,,,,,,,,,,,,,
,,,,,,6131df33c2388c23af8f09b1,62c53a92ecd659bb0b2aae92,2022-07-06_09h33.02.153,Colour_Asymmetry_Pilot,2022.1.3,Win32,59.70505702,62c50e9c1127f2cd403a315f,0,157,157,112,1,onetwo,,,,,,,,,,,,,,,,,,,,,,,,,,,,,,,,,,,,,,,,,,,,,,,,,,,,,,,,,,,,,,,,,,,,,,,,,,,,,,,,,,,,,,,,,,,,,,,,,,,,,,,,,,,,,,,,,,,,,,,,,,,,,,,,,,,,,,,,,,,,,,,,,,,,,,,,,,,,,
,,,,,,6131df33c2388c23af8f09b1,62c53a92ecd659bb0b2aae92,2022-07-06_09h33.02.153,Colour_Asymmetry_Pilot,2022.1.3,Win32,59.70505702,62c50e9c1127f2cd403a315f,0,158,158,54,1,fourtwo,,,,,,,,,,,,,,,,,,,,,,,,,,,,,,,,,,,,,,,,,,,,,,,,,,,,,,,,,,,,,,,,,,,,,,,,,,,,,,,,,,,,,,,,,,,,,,,,,,,,,,,,,,,,,,,,,,,,,,,,,,,,,,,,,,,,,,,,,,,,,,,,,,,,,,,,,,,,,
,,,,,,6131df33c2388c23af8f09b1,62c53a92ecd659bb0b2aae92,2022-07-06_09h33.02.153,Colour_Asymmetry_Pilot,2022.1.3,Win32,59.70505702,62c50e9c1127f2cd403a315f,0,159,159,40,1,onetwo,,,,,,,,,,,,,,,,,,,,,,,,,,,,,,,,,,,,,,,,,,,,,,,,,,,,,,,,,,,,,,,,,,,,,,,,,,,,,,,,,,,,,,,,,,,,,,,,,,,,,,,,,,,,,,,,,,,,,,,,,,,,,,,,,,,,,,,,,,,,,,,,,,,,,,,,,,,,,
,,,,,,6131df33c2388c23af8f09b1,62c53a92ecd659bb0b2aae92,2022-07-06_09h33.02.153,Colour_Asymmetry_Pilot,2022.1.3,Win32,59.70505702,62c50e9c1127f2cd403a315f,0,160,160,102,1,fourtwo,,,,,,,,,,,,,,,,,,,,,,,,,,,,,,,,,,,,,,,,,,,,,,,,,,,,,,,,,,,,,,,,,,,,,,,,,,,,,,,,,,,,,,,,,,,,,,,,,,,,,,,,,,,,,,,,,,,,,,,,,,,,,,,,,,,,,,,,,,,,,,,,,,,,,,,,,,,,,
,,,,,,6131df33c2388c23af8f09b1,62c53a92ecd659bb0b2aae92,2022-07-06_09h33.02.153,Colour_Asymmetry_Pilot,2022.1.3,Win32,59.70505702,62c50e9c1127f2cd403a315f,0,161,161,72,1,onetwo,,,,,,,,,,,,,,,,,,,,,,,,,,,,,,,,,,,,,,,,,,,,,,,,,,,,,,,,,,,,,,,,,,,,,,,,,,,,,,,,,,,,,,,,,,,,,,,,,,,,,,,,,,,,,,,,,,,,,,,,,,,,,,,,,,,,,,,,,,,,,,,,,,,,,,,,,,,,,
,,,,,,6131df33c2388c23af8f09b1,62c53a92ecd659bb0b2aae92,2022-07-06_09h33.02.153,Colour_Asymmetry_Pilot,2022.1.3,Win32,59.70505702,62c50e9c1127f2cd403a315f,,,,,,,space,2.4525,space,15.213,space,122.3244,space,31.3552,space,3.4887,space,4.1232,"[0.05879999999999996,0.2784,0.5841999999999998]",twoone,"[0.6625999999999999,0.4980000000000002,-0.357]",-4,20.7127,-63.40911865,108.2727356,1,0,0,response7disk_5,13.86352539,3.727294922,1,0,0,rectangle_8,49.31817627,135.5454712,1,0,0,response1disk_7,7,4,-6.136474609,-4.454528809,1,0,0,rectangle_4,0,0,0,0,1,,,,,,,,,,,,,,,,,,,,,,,,,,,,,,,,,,,,,,,,,,,,,,,,,,,,,,,,,,,,,,,,,,,,,,,,,,,,,,,,,,,,,,,,,,,,,,,,,,,,,,,,,,,,,
,,,,,,6131df33c2388c23af8f09b1,62c53a92ecd659bb0b2aae92,2022-07-06_09h33.02.153,Colour_Asymmetry_Pilot,2022.1.3,Win32,59.70505702,62c50e9c1127f2cd403a315f,,,,,,,,,,,,,,,,,,,"[-0.45899999999999996,-0.3256,-0.9374]",fourthree,"[-0.01980000000000004,-0.5138,-0.38039999999999996]",-4,11.6285,-57.95458984,103.7272949,1,0,0,response7disk_5,-3.409118652,1.000030518,1,0,0,rectangle_8,-3.409118652,1.000030518,1,0,0,,,4,-3.409118652,1.000030518,1,0,0,,1,0,1,0,1,,,,,,,,,,,,,,,,,,,,,,,,,,,,,,,,,,,,,,,,,,,,,,,,,,,,,,,,,,,,,,,,,,,,,,,,,,,,,,,,,,,,,,,,,,,,,,,,,,,,,,,,,,,,,
,,,,,,6131df33c2388c23af8f09b1,62c53a92ecd659bb0b2aae92,2022-07-06_09h33.02.153,Colour_Asymmetry_Pilot,2022.1.3,Win32,59.70505702,62c50e9c1127f2cd403a315f,,,,,,,,,,,,,,,,,,,"[0.8274000000000001,-0.5844,-0.9452]",threefour,"[-0.26280000000000003,-0.2158,-0.3256]",-4,2.1014,-39.77276611,73.72729492,1,0,0,response7disk_5,5.68170166,3.727294922,1,0,0,rectangle_8,5.68170166,3.727294922,1,0,0,,,4,5.68170166,3.727294922,1,0,0,,2,0,2,0,1,,,,,,,,,,,,,,,,,,,,,,,,,,,,,,,,,,,,,,,,,,,,,,,,,,,,,,,,,,,,,,,,,,,,,,,,,,,,,,,,,,,,,,,,,,,,,,,,,,,,,,,,,,,,,
,,,,,,6131df33c2388c23af8f09b1,62c53a92ecd659bb0b2aae92,2022-07-06_09h33.02.153,Colour_Asymmetry_Pilot,2022.1.3,Win32,59.70505702,62c50e9c1127f2cd403a315f,,,,,,,,,,,,,,,,,,,"[-0.17659999999999998,-0.2864,-0.8354]",onethree,"[0.23920000000000008,0.2704,0.16060000000000008]",4,3.32,64.77270508,130.0909119,1,0,0,response1disk_5,-7.045471191,1.000030518,1,0,0,rectangle_8,-7.045471191,1.000030518,1,0,0,,,4,-7.045471191,1.000030518,1,0,0,,3,0,3,0,1,,,,,,,,,,,,,,,,,,,,,,,,,,,,,,,,,,,,,,,,,,,,,,,,,,,,,,,,,,,,,,,,,,,,,,,,,,,,,,,,,,,,,,,,,,,,,,,,,,,,,,,,,,,,,
,,,,,,6131df33c2388c23af8f09b1,62c53a92ecd659bb0b2aae92,2022-07-06_09h33.02.153,Colour_Asymmetry_Pilot,2022.1.3,Win32,59.70505702,62c50e9c1127f2cd403a315f,,,,,,,,,,,,,,,,,,,"[0.23120000000000007,-0.7726,-0.34120000000000006]",threeone,"[-0.07459999999999989,0.12139999999999995,-0.9922]",-4,2.1356,-70.68182373,124.6363831,1,0,0,response7disk_5,11.13635254,1.000030518,1,0,0,rectangle_8,11.13635254,1.000030518,1,0,0,,,4,11.13635254,1.000030518,1,0,0,,4,0,4,0,1,,,,,,,,,,,,,,,,,,,,,,,,,,,,,,,,,,,,,,,,,,,,,,,,,,,,,,,,,,,,,,,,,,,,,,,,,,,,,,,,,,,,,,,,,,,,,,,,,,,,,,,,,,,,,
,,,,,,6131df33c2388c23af8f09b1,62c53a92ecd659bb0b2aae92,2022-07-06_09h33.02.153,Colour_Asymmetry_Pilot,2022.1.3,Win32,59.70505702,62c50e9c1127f2cd403a315f,,,,,,,,,,,,,,,,,,,"[-0.38039999999999996,-0.4276,-0.1452]",onethree,"[-0.011800000000000033,-0.906,-0.45100000000000007]",4,1.5679,46.59088135,101,1,0,0,response1disk_5,23.86352539,-5.363616943,1,0,0,rectangle_8,23.86352539,-5.363616943,1,0,0,,,4,23.86352539,-5.363616943,1,0,0,,5,0,5,0,1,,,,,,,,,,,,,,,,,,,,,,,,,,,,,,,,,,,,,,,,,,,,,,,,,,,,,,,,,,,,,,,,,,,,,,,,,,,,,,,,,,,,,,,,,,,,,,,,,,,,,,,,,,,,,
,,,,,,6131df33c2388c23af8f09b1,62c53a92ecd659bb0b2aae92,2022-07-06_09h33.02.153,Colour_Asymmetry_Pilot,2022.1.3,Win32,59.70505702,62c50e9c1127f2cd403a315f,,,,,,,,,,,,,,,,,,,"[0.3881999999999999,-0.23939999999999995,-0.05040000000000011]",twofour,"[-0.9844,-0.9688,-0.9922]",-4,1.6515,-32.5,100.0909119,1,0,0,response7disk_5,12.04541016,-3.545440674,1,0,0,rectangle_8,12.04541016,-3.545440674,1,0,0,,,4,12.04541016,-3.545440674,1,0,0,,6,0,6,0,1,,,,,,,,,,,,,,,,,,,,,,,,,,,,,,,,,,,,,,,,,,,,,,,,,,,,,,,,,,,,,,,,,,,,,,,,,,,,,,,,,,,,,,,,,,,,,,,,,,,,,,,,,,,,,
,,,,,,6131df33c2388c23af8f09b1,62c53a92ecd659bb0b2aae92,2022-07-06_09h33.02.153,Colour_Asymmetry_Pilot,2022.1.3,Win32,59.70505702,62c50e9c1127f2cd403a315f,,,,,,,,,,,,,,,,,,,,onetwo,,-4,0.7677,,,,,,,,,,,,,,,,,,,,,,,,,,,,,,,,space,3.3273,"[-0.5452,-0.608,0.2470000000000001]","[0.2784,-0.31000000000000005,-0.5452]",-37.95458984,92.8182373,1,0,0,response7disk,24.77270508,-3.545440674,1,0,0,rectangle,24.77270508,-3.545440674,1,0,0,,1,0.0023,0,24.77270508,-3.545440674,1,0,0,0,0,0,77,1,77,first,,,,,,,,,,,,,,,,,,,,,,,,,,,,,,,,,,,,,,,,,,,,,,,,,,,,,,,,,,,,,,,,,,,,,,,,
,,,,,,6131df33c2388c23af8f09b1,62c53a92ecd659bb0b2aae92,2022-07-06_09h33.02.153,Colour_Asymmetry_Pilot,2022.1.3,Win32,59.70505702,62c50e9c1127f2cd403a315f,,,,,,,,,,,,,,,,,,,,fourtwo,,4,0.4172,,,,,,,,,,,,,,,,,,,,,,,,,,,,,,,,,,"[0.3881999999999999,-0.23939999999999995,-0.05040000000000011]","[0.7176,-0.906,-0.6864]",43.86352539,101.9091187,1,0,0,response1disk,11.13635254,8.272735596,1,0,0,rectangle,11.13635254,8.272735596,1,0,0,,1,0.0002,0,11.13635254,8.272735596,1,0,0,0,1,1,157,1,76,second,,,,,,,,,,,,,,,,,,,,,,,,,,,,,,,,,,,,,,,,,,,,,,,,,,,,,,,,,,,,,,,,,,,,,,,,
,,,,,,6131df33c2388c23af8f09b1,62c53a92ecd659bb0b2aae92,2022-07-06_09h33.02.153,Colour_Asymmetry_Pilot,2022.1.3,Win32,59.70505702,62c50e9c1127f2cd403a315f,,,,,,,,,,,,,,,,,,,,threefour,,4,0.5335,,,,,,,,,,,,,,,,,,,,,,,,,,,,,,,,,,"[0.7176,-0.906,-0.6864]","[0.3881999999999999,-0.23939999999999995,-0.05040000000000011]",68.40905762,116.4545593,1,0,0,response1disk,2.954528809,-8.999969482,1,0,0,rectangle,113.8635864,-54.45452881,1,0,0,2,2,3.5203,1,-4.31829834,2.818206787,1,0,0,0,2,2,76,1,76,first,response3disk_3,rectangle,,,,,,,,,,,,,,,,,,,,,,,,,,,,,,,,,,,,,,,,,,,,,,,,,,,,,,,,,,,,,,,,,,,,,,
,,,,,,6131df33c2388c23af8f09b1,62c53a92ecd659bb0b2aae92,2022-07-06_09h33.02.153,Colour_Asymmetry_Pilot,2022.1.3,Win32,59.70505702,62c50e9c1127f2cd403a315f,,,,,,,,,,,,,,,,,,,,fourthree,,4,0.5338,,,,,,,,,,,,,,,,,,,,,,,,,,,,,,,,,,"[0.796,0.2156,-0.27859999999999996]","[0.18419999999999992,-0.4276,-0.404]",52.04541016,121.9091187,1,0,0,response1disk,-2.500061035,10.09091187,1,0,0,rectangle,-2.500061035,10.09091187,1,0,0,2,2,0.0001,0,-2.500061035,10.09091187,1,0,0,0,3,3,20,1,20,first,,,,,,,,,,,,,,,,,,,,,,,,,,,,,,,,,,,,,,,,,,,,,,,,,,,,,,,,,,,,,,,,,,,,,,,,
,,,,,,6131df33c2388c23af8f09b1,62c53a92ecd659bb0b2aae92,2022-07-06_09h33.02.153,Colour_Asymmetry_Pilot,2022.1.3,Win32,59.70505702,62c50e9c1127f2cd403a315f,,,,,,,,,,,,,,,,,,,,threefour,,4,3.0201,,,,,,,,,,,,,,,,,,,,,,,,,,,,,,,,,,"[0.9763999999999999,0.8588,-0.05900000000000005]","[-0.6706000000000001,-0.6157999999999999,-0.6786]",43.86352539,110.0909119,1,0,0,response1disk,2.045410156,6.454559326,1,0,0,rectangle,2.045410156,6.454559326,1,0,0,2,2,9.99999E-05,0,2.045410156,6.454559326,1,0,0,0,4,4,127,1,46,second,,,,,,,,,,,,,,,,,,,,,,,,,,,,,,,,,,,,,,,,,,,,,,,,,,,,,,,,,,,,,,,,,,,,,,,,
,,,,,,6131df33c2388c23af8f09b1,62c53a92ecd659bb0b2aae92,2022-07-06_09h33.02.153,Colour_Asymmetry_Pilot,2022.1.3,Win32,59.70505702,62c50e9c1127f2cd403a315f,,,,,,,,,,,,,,,,,,,,twofour,,-4,0.7672,,,,,,,,,,,,,,,,,,,,,,,,,,,,,,,,,,"[-0.17659999999999998,-0.2864,-0.8354]","[0.9686000000000001,0.3802000000000001,0.19999999999999996]",-42.5,81.90911865,1,0,0,response7disk,13.86352539,4.636383057,1,0,0,rectangle,38.40905762,-130.8181763,1,0,0,1,1,3.3364,1,14.77270508,1.000030518,1,0,0,0,5,5,159,1,78,second,response3disk_3,rectangle,,,,,,,,,,,,,,,,,,,,,,,,,,,,,,,,,,,,,,,,,,,,,,,,,,,,,,,,,,,,,,,,,,,,,,
,,,,,,6131df33c2388c23af8f09b1,62c53a92ecd659bb0b2aae92,2022-07-06_09h33.02.153,Colour_Asymmetry_Pilot,2022.1.3,Win32,59.70505702,62c50e9c1127f2cd403a315f,,,,,,,,,,,,,,,,,,,,twofour,,-4,1.1845,,,,,,,,,,,,,,,,,,,,,,,,,,,,,,,,,,"[0.7646000000000002,0.07440000000000002,0.2704]","[-0.4746,-0.0354000000000001,0.5449999999999999]",-45.22729492,99.18182373,1,0,0,response7disk,-10.68182373,5.545471191,1,0,0,rectangle,-10.68182373,5.545471191,1,0,0,1,2,0.0031,0,-10.68182373,5.545471191,1,0,0,0,6,6,13,1,13,first,,,,,,,,,,,,,,,,,,,,,,,,,,,,,,,,,,,,,,,,,,,,,,,,,,,,,,,,,,,,,,,,,,,,,,,,
,,,,,,6131df33c2388c23af8f09b1,62c53a92ecd659bb0b2aae92,2022-07-06_09h33.02.153,Colour_Asymmetry_Pilot,2022.1.3,Win32,59.70505702,62c50e9c1127f2cd403a315f,,,,,,,,,,,,,,,,,,,,fourthree,,-4,0.4671,,,,,,,,,,,,,,,,,,,,,,,,,,,,,,,,,,"[0.9686000000000001,0.3802000000000001,0.19999999999999996]","[-0.6,0.16860000000000008,0.44300000000000006]",-53.40911865,92.8182373,1,0,0,response7disk,-4.31829834,-1.727264404,1,0,0,rectangle,-4.31829834,-1.727264404,1,0,0,1,2,0.0001,0,-4.31829834,-1.727264404,1,0,0,0,7,7,21,1,21,first,,,,,,,,,,,,,,,,,,,,,,,,,,,,,,,,,,,,,,,,,,,,,,,,,,,,,,,,,,,,,,,,,,,,,,,,
,,,,,,6131df33c2388c23af8f09b1,62c53a92ecd659bb0b2aae92,2022-07-06_09h33.02.153,Colour_Asymmetry_Pilot,2022.1.3,Win32,59.70505702,62c50e9c1127f2cd403a315f,,,,,,,,,,,,,,,,,,,,threefour,,4,0.6012,,,,,,,,,,,,,,,,,,,,,,,,,,,,,,,,,,"[0.34099999999999997,0.12939999999999996,-0.9766]","[0.3802000000000001,0.19199999999999995,-0.6394]",25.68170166,123.7273254,1,0,0,response1disk,3.863525391,5.545471191,1,0,0,rectangle,3.863525391,5.545471191,1,0,0,1,3,0.0013,0,3.863525391,5.545471191,1,0,0,0,8,8,154,1,73,second,,,,,,,,,,,,,,,,,,,,,,,,,,,,,,,,,,,,,,,,,,,,,,,,,,,,,,,,,,,,,,,,,,,,,,,,
,,,,,,6131df33c2388c23af8f09b1,62c53a92ecd659bb0b2aae92,2022-07-06_09h33.02.153,Colour_Asymmetry_Pilot,2022.1.3,Win32,59.70505702,62c50e9c1127f2cd403a315f,,,,,,,,,,,,,,,,,,,,threefour,,-4,0.4171,,,,,,,,,,,,,,,,,,,,,,,,,,,,,,,,,,"[0.5449999999999999,-0.31000000000000005,-0.0354000000000001]","[-0.5688,-0.08239999999999992,-0.1844]",-37.95458984,68.2727356,1,0,0,response7disk,6.590881348,3.727294922,1,0,0,rectangle,6.590881348,3.727294922,1,0,0,1,1,0.0011,0,6.590881348,3.727294922,1,0,0,0,9,9,15,1,15,first,,,,,,,,,,,,,,,,,,,,,,,,,,,,,,,,,,,,,,,,,,,,,,,,,,,,,,,,,,,,,,,,,,,,,,,,
,,,,,,6131df33c2388c23af8f09b1,62c53a92ecd659bb0b2aae92,2022-07-06_09h33.02.153,Colour_Asymmetry_Pilot,2022.1.3,Win32,59.70505702,62c50e9c1127f2cd403a315f,,,,,,,,,,,,,,,,,,,,onetwo,,-4,0.9004,,,,,,,,,,,,,,,,,,,,,,,,,,,,,,,,,,"[-0.9688,-0.7412000000000001,-0.4902000000000001]","[1,0.12939999999999996,-1]",-47.95458984,91.90911865,1,0,0,response7disk,-0.68182373,-8.090881348,1,0,0,rectangle,-0.68182373,-8.090881348,1,0,0,1,2,0.0011,0,-0.68182373,-8.090881348,1,0,0,0,10,10,107,1,26,second,,,,,,,,,,,,,,,,,,,,,,,,,,,,,,,,,,,,,,,,,,,,,,,,,,,,,,,,,,,,,,,,,,,,,,,,
,,,,,,6131df33c2388c23af8f09b1,62c53a92ecd659bb0b2aae92,2022-07-06_09h33.02.153,Colour_Asymmetry_Pilot,2022.1.3,Win32,59.70505702,62c50e9c1127f2cd403a315f,,,,,,,,,,,,,,,,,,,,twofour,,4,0.5505,,,,,,,,,,,,,,,,,,,,,,,,,,,,,,,,,,"[-0.9688,-0.4902000000000001,-0.12159999999999993]","[-0.6235999999999999,-0.6786,-0.08239999999999992]",63.86358643,110.0909119,1,0,0,response1disk,-12.50006104,0.090911865,1,0,0,rectangle,-12.50006104,0.090911865,1,0,0,1,3,0.0019,0,-12.50006104,0.090911865,1,0,0,0,11,11,19,1,19,first,,,,,,,,,,,,,,,,,,,,,,,,,,,,,,,,,,,,,,,,,,,,,,,,,,,,,,,,,,,,,,,,,,,,,,,,
,,,,,,6131df33c2388c23af8f09b1,62c53a92ecd659bb0b2aae92,2022-07-06_09h33.02.153,Colour_Asymmetry_Pilot,2022.1.3,Win32,59.70505702,62c50e9c1127f2cd403a315f,,,,,,,,,,,,,,,,,,,,threeone,,-4,0.7504,,,,,,,,,,,,,,,,,,,,,,,,,,,,,,,,,,"[0.7018,0.7802,-0.16079999999999994]","[-0.30200000000000005,0.14500000000000002,0.2784]",-36.13647461,91,1,0,0,response7disk,1.136352539,-14.45452881,1,0,0,rectangle,1.136352539,-14.45452881,1,0,0,1,1,0.002,0,1.136352539,-14.45452881,1,0,0,0,12,12,67,1,67,first,,,,,,,,,,,,,,,,,,,,,,,,,,,,,,,,,,,,,,,,,,,,,,,,,,,,,,,,,,,,,,,,,,,,,,,,
,,,,,,6131df33c2388c23af8f09b1,62c53a92ecd659bb0b2aae92,2022-07-06_09h33.02.153,Colour_Asymmetry_Pilot,2022.1.3,Win32,59.70505702,62c50e9c1127f2cd403a315f,,,,,,,,,,,,,,,,,,,,threeone,,-4,2.519,,,,,,,,,,,,,,,,,,,,,,,,,,,,,,,,,,"[-0.45899999999999996,-0.3256,-0.9374]","[-0.050999999999999934,-0.6706000000000001,-0.804]",-35.22729492,91,1,0,0,response7disk,-0.68182373,8.272735596,1,0,0,rectangle,-0.68182373,8.272735596,1,0,0,1,2,0.0044,0,-0.68182373,8.272735596,1,0,0,0,13,13,128,1,47,second,,,,,,,,,,,,,,,,,,,,,,,,,,,,,,,,,,,,,,,,,,,,,,,,,,,,,,,,,,,,,,,,,,,,,,,,
,,,,,,6131df33c2388c23af8f09b1,62c53a92ecd659bb0b2aae92,2022-07-06_09h33.02.153,Colour_Asymmetry_Pilot,2022.1.3,Win32,59.70505702,62c50e9c1127f2cd403a315f,,,,,,,,,,,,,,,,,,,,twoone,,4,0.3165,,,,,,,,,,,,,,,,,,,,,,,,,,,,,,,,,,"[0.9763999999999999,0.8588,-0.05900000000000005]","[0.8274000000000001,-0.5844,-0.9452]",52.95452881,102.8182373,1,0,0,response1disk,2.045410156,-0.81817627,1,0,0,rectangle,2.045410156,-0.81817627,1,0,0,1,1,0.0013,0,2.045410156,-0.81817627,1,0,0,0,14,14,116,1,35,second,,,,,,,,,,,,,,,,,,,,,,,,,,,,,,,,,,,,,,,,,,,,,,,,,,,,,,,,,,,,,,,,,,,,,,,,
