trials.thisRepN,trials.thisTrialN,trials.thisN,trials.thisIndex,trials.ran,Colourcodes,participant,session,date,expName,psychopyVersion,OS,frameRate,study_id,trials_4.thisRepN,trials_4.thisTrialN,trials_4.thisN,trials_4.thisIndex,trials_4.ran,StimulusPos,key_resp.keys,key_resp.rt,key_resp_2.keys,key_resp_2.rt,key_resp_15.keys,key_resp_15.rt,key_resp_17.keys,key_resp_17.rt,key_resp_9.keys,key_resp_9.rt,key_resp_10.keys,key_resp_10.rt,Circle1_col,Ecc,Circle2_col,similarity,response_time,mouse_5.x,mouse_5.y,mouse_5.leftButton,mouse_5.midButton,mouse_5.rightButton,mouse_5.clicked_name,mouse_10.x,mouse_10.y,mouse_10.leftButton,mouse_10.midButton,mouse_10.rightButton,mouse_10.clicked_name,mouse_7.x,mouse_7.y,mouse_7.leftButton,mouse_7.midButton,mouse_7.rightButton,catchnumberprac,mouse_6.x,mouse_6.y,mouse_6.leftButton,mouse_6.midButton,mouse_6.rightButton,duringprac.thisRepN,duringprac.thisTrialN,duringprac.thisN,duringprac.thisIndex,duringprac.ran,mouse_7.clicked_name,catchprac,mouse_6.clicked_name,key_resp_22.keys,key_resp_22.rt,Circle1_colour,Circle2_colour,mouse.x,mouse.y,mouse.leftButton,mouse.midButton,mouse.rightButton,mouse.clicked_name,mouse_2.x,mouse_2.y,mouse_2.leftButton,mouse_2.midButton,mouse_2.rightButton,mouse_2.clicked_name,mouse_3.x,mouse_3.y,mouse_3.leftButton,mouse_3.midButton,mouse_3.rightButton,catchresponse,catchnumber,response_time_catch,Catch,mouse_11.x,mouse_11.y,mouse_11.leftButton,mouse_11.midButton,mouse_11.rightButton,trials_2.thisRepN,trials_2.thisTrialN,trials_2.thisN,trials_2.thisIndex,trials_2.ran,Colourpair,Temporder,mouse_3.clicked_name,mouse_11.clicked_name,trials_3.thisRepN,trials_3.thisTrialN,trials_3.thisN,trials_3.thisIndex,trials_3.ran,key_resp_instr_Ishi.keys,key_resp_instr_Ishi.rt,Ishi_trial_keyresp.keys,Ishi_textbox.text,Ishi_mouse.x,Ishi_mouse.y,Ishi_mouse.leftButton,Ishi_mouse.midButton,Ishi_mouse.rightButton,Ishi_mouse.clicked_name,Ishi_loop.thisRepN,Ishi_loop.thisTrialN,Ishi_loop.thisN,Ishi_loop.thisIndex,Ishi_loop.ran,imageaddress,textbox.text,mouse_4.x,mouse_4.y,mouse_4.leftButton,mouse_4.midButton,mouse_4.rightButton,mouse_4.clicked_name,textbox_2.text,mouse_8.x,mouse_8.y,mouse_8.leftButton,mouse_8.midButton,mouse_8.rightButton,mouse_8.clicked_name,textbox_3.text,mouse_9.x,mouse_9.y,mouse_9.leftButton,mouse_9.midButton,mouse_9.rightButton,mouse_9.clicked_name,textbox_4.text,mouse_12.x,mouse_12.y,mouse_12.leftButton,mouse_12.midButton,mouse_12.rightButton,mouse_12.clicked_name,textbox_5.text,mouse_13.x,mouse_13.y,mouse_13.leftButton,mouse_13.midButton,mouse_13.rightButton,mouse_13.clicked_name,textbox_6.text,mouse_14.x,mouse_14.y,mouse_14.leftButton,mouse_14.midButton,mouse_14.rightButton,mouse_14.clicked_name,textbox_7.text,mouse_15.x,mouse_15.y,mouse_15.leftButton,mouse_15.midButton,mouse_15.rightButton,mouse_15.clicked_name
0,0,0,73,1,,5f806f22e8159d0913945e35,62c53a2d394159e382b487c9,2022-07-06_09h32.55.900,Colour_Asymmetry_Pilot,2022.1.3,Win32,60.0024001,62c50e9c1127f2cd403a315f,,,,,,,,,,,,,,,,,,,,,,,,,,,,,,,,,,,,,,,,,,,,,,,,,,,,,,,,,,,,,,,,,,,,,,,,,,,,,,,,,,,,,,,,,,,,,,,,,,,,,,,,,,,,,,,,,,,,,,,,,,,,,,,,,,,,,,,,,,,,,,,,,,,,,,,,,,,,,,,,,,,
0,1,1,6,1,,5f806f22e8159d0913945e35,62c53a2d394159e382b487c9,2022-07-06_09h32.55.900,Colour_Asymmetry_Pilot,2022.1.3,Win32,60.0024001,62c50e9c1127f2cd403a315f,,,,,,,,,,,,,,,,,,,,,,,,,,,,,,,,,,,,,,,,,,,,,,,,,,,,,,,,,,,,,,,,,,,,,,,,,,,,,,,,,,,,,,,,,,,,,,,,,,,,,,,,,,,,,,,,,,,,,,,,,,,,,,,,,,,,,,,,,,,,,,,,,,,,,,,,,,,,,,,,,,,
0,2,2,83,1,,5f806f22e8159d0913945e35,62c53a2d394159e382b487c9,2022-07-06_09h32.55.900,Colour_Asymmetry_Pilot,2022.1.3,Win32,60.0024001,62c50e9c1127f2cd403a315f,,,,,,,,,,,,,,,,,,,,,,,,,,,,,,,,,,,,,,,,,,,,,,,,,,,,,,,,,,,,,,,,,,,,,,,,,,,,,,,,,,,,,,,,,,,,,,,,,,,,,,,,,,,,,,,,,,,,,,,,,,,,,,,,,,,,,,,,,,,,,,,,,,,,,,,,,,,,,,,,,,,
0,3,3,46,1,,5f806f22e8159d0913945e35,62c53a2d394159e382b487c9,2022-07-06_09h32.55.900,Colour_Asymmetry_Pilot,2022.1.3,Win32,60.0024001,62c50e9c1127f2cd403a315f,,,,,,,,,,,,,,,,,,,,,,,,,,,,,,,,,,,,,,,,,,,,,,,,,,,,,,,,,,,,,,,,,,,,,,,,,,,,,,,,,,,,,,,,,,,,,,,,,,,,,,,,,,,,,,,,,,,,,,,,,,,,,,,,,,,,,,,,,,,,,,,,,,,,,,,,,,,,,,,,,,,
0,4,4,27,1,,5f806f22e8159d0913945e35,62c53a2d394159e382b487c9,2022-07-06_09h32.55.900,Colour_Asymmetry_Pilot,2022.1.3,Win32,60.0024001,62c50e9c1127f2cd403a315f,,,,,,,,,,,,,,,,,,,,,,,,,,,,,,,,,,,,,,,,,,,,,,,,,,,,,,,,,,,,,,,,,,,,,,,,,,,,,,,,,,,,,,,,,,,,,,,,,,,,,,,,,,,,,,,,,,,,,,,,,,,,,,,,,,,,,,,,,,,,,,,,,,,,,,,,,,,,,,,,,,,
0,5,5,81,1,,5f806f22e8159d0913945e35,62c53a2d394159e382b487c9,2022-07-06_09h32.55.900,Colour_Asymmetry_Pilot,2022.1.3,Win32,60.0024001,62c50e9c1127f2cd403a315f,,,,,,,,,,,,,,,,,,,,,,,,,,,,,,,,,,,,,,,,,,,,,,,,,,,,,,,,,,,,,,,,,,,,,,,,,,,,,,,,,,,,,,,,,,,,,,,,,,,,,,,,,,,,,,,,,,,,,,,,,,,,,,,,,,,,,,,,,,,,,,,,,,,,,,,,,,,,,,,,,,,
0,6,6,43,1,,5f806f22e8159d0913945e35,62c53a2d394159e382b487c9,2022-07-06_09h32.55.900,Colour_Asymmetry_Pilot,2022.1.3,Win32,60.0024001,62c50e9c1127f2cd403a315f,,,,,,,,,,,,,,,,,,,,,,,,,,,,,,,,,,,,,,,,,,,,,,,,,,,,,,,,,,,,,,,,,,,,,,,,,,,,,,,,,,,,,,,,,,,,,,,,,,,,,,,,,,,,,,,,,,,,,,,,,,,,,,,,,,,,,,,,,,,,,,,,,,,,,,,,,,,,,,,,,,,
0,7,7,71,1,,5f806f22e8159d0913945e35,62c53a2d394159e382b487c9,2022-07-06_09h32.55.900,Colour_Asymmetry_Pilot,2022.1.3,Win32,60.0024001,62c50e9c1127f2cd403a315f,,,,,,,,,,,,,,,,,,,,,,,,,,,,,,,,,,,,,,,,,,,,,,,,,,,,,,,,,,,,,,,,,,,,,,,,,,,,,,,,,,,,,,,,,,,,,,,,,,,,,,,,,,,,,,,,,,,,,,,,,,,,,,,,,,,,,,,,,,,,,,,,,,,,,,,,,,,,,,,,,,,
0,8,8,86,1,,5f806f22e8159d0913945e35,62c53a2d394159e382b487c9,2022-07-06_09h32.55.900,Colour_Asymmetry_Pilot,2022.1.3,Win32,60.0024001,62c50e9c1127f2cd403a315f,,,,,,,,,,,,,,,,,,,,,,,,,,,,,,,,,,,,,,,,,,,,,,,,,,,,,,,,,,,,,,,,,,,,,,,,,,,,,,,,,,,,,,,,,,,,,,,,,,,,,,,,,,,,,,,,,,,,,,,,,,,,,,,,,,,,,,,,,,,,,,,,,,,,,,,,,,,,,,,,,,,
0,9,9,40,1,,5f806f22e8159d0913945e35,62c53a2d394159e382b487c9,2022-07-06_09h32.55.900,Colour_Asymmetry_Pilot,2022.1.3,Win32,60.0024001,62c50e9c1127f2cd403a315f,,,,,,,,,,,,,,,,,,,,,,,,,,,,,,,,,,,,,,,,,,,,,,,,,,,,,,,,,,,,,,,,,,,,,,,,,,,,,,,,,,,,,,,,,,,,,,,,,,,,,,,,,,,,,,,,,,,,,,,,,,,,,,,,,,,,,,,,,,,,,,,,,,,,,,,,,,,,,,,,,,,
0,10,10,92,1,,5f806f22e8159d0913945e35,62c53a2d394159e382b487c9,2022-07-06_09h32.55.900,Colour_Asymmetry_Pilot,2022.1.3,Win32,60.0024001,62c50e9c1127f2cd403a315f,,,,,,,,,,,,,,,,,,,,,,,,,,,,,,,,,,,,,,,,,,,,,,,,,,,,,,,,,,,,,,,,,,,,,,,,,,,,,,,,,,,,,,,,,,,,,,,,,,,,,,,,,,,,,,,,,,,,,,,,,,,,,,,,,,,,,,,,,,,,,,,,,,,,,,,,,,,,,,,,,,,
0,11,11,22,1,,5f806f22e8159d0913945e35,62c53a2d394159e382b487c9,2022-07-06_09h32.55.900,Colour_Asymmetry_Pilot,2022.1.3,Win32,60.0024001,62c50e9c1127f2cd403a315f,,,,,,,,,,,,,,,,,,,,,,,,,,,,,,,,,,,,,,,,,,,,,,,,,,,,,,,,,,,,,,,,,,,,,,,,,,,,,,,,,,,,,,,,,,,,,,,,,,,,,,,,,,,,,,,,,,,,,,,,,,,,,,,,,,,,,,,,,,,,,,,,,,,,,,,,,,,,,,,,,,,
0,12,12,72,1,,5f806f22e8159d0913945e35,62c53a2d394159e382b487c9,2022-07-06_09h32.55.900,Colour_Asymmetry_Pilot,2022.1.3,Win32,60.0024001,62c50e9c1127f2cd403a315f,,,,,,,,,,,,,,,,,,,,,,,,,,,,,,,,,,,,,,,,,,,,,,,,,,,,,,,,,,,,,,,,,,,,,,,,,,,,,,,,,,,,,,,,,,,,,,,,,,,,,,,,,,,,,,,,,,,,,,,,,,,,,,,,,,,,,,,,,,,,,,,,,,,,,,,,,,,,,,,,,,,
0,13,13,47,1,,5f806f22e8159d0913945e35,62c53a2d394159e382b487c9,2022-07-06_09h32.55.900,Colour_Asymmetry_Pilot,2022.1.3,Win32,60.0024001,62c50e9c1127f2cd403a315f,,,,,,,,,,,,,,,,,,,,,,,,,,,,,,,,,,,,,,,,,,,,,,,,,,,,,,,,,,,,,,,,,,,,,,,,,,,,,,,,,,,,,,,,,,,,,,,,,,,,,,,,,,,,,,,,,,,,,,,,,,,,,,,,,,,,,,,,,,,,,,,,,,,,,,,,,,,,,,,,,,,
0,14,14,31,1,,5f806f22e8159d0913945e35,62c53a2d394159e382b487c9,2022-07-06_09h32.55.900,Colour_Asymmetry_Pilot,2022.1.3,Win32,60.0024001,62c50e9c1127f2cd403a315f,,,,,,,,,,,,,,,,,,,,,,,,,,,,,,,,,,,,,,,,,,,,,,,,,,,,,,,,,,,,,,,,,,,,,,,,,,,,,,,,,,,,,,,,,,,,,,,,,,,,,,,,,,,,,,,,,,,,,,,,,,,,,,,,,,,,,,,,,,,,,,,,,,,,,,,,,,,,,,,,,,,
0,15,15,65,1,,5f806f22e8159d0913945e35,62c53a2d394159e382b487c9,2022-07-06_09h32.55.900,Colour_Asymmetry_Pilot,2022.1.3,Win32,60.0024001,62c50e9c1127f2cd403a315f,,,,,,,,,,,,,,,,,,,,,,,,,,,,,,,,,,,,,,,,,,,,,,,,,,,,,,,,,,,,,,,,,,,,,,,,,,,,,,,,,,,,,,,,,,,,,,,,,,,,,,,,,,,,,,,,,,,,,,,,,,,,,,,,,,,,,,,,,,,,,,,,,,,,,,,,,,,,,,,,,,,
0,16,16,2,1,,5f806f22e8159d0913945e35,62c53a2d394159e382b487c9,2022-07-06_09h32.55.900,Colour_Asymmetry_Pilot,2022.1.3,Win32,60.0024001,62c50e9c1127f2cd403a315f,,,,,,,,,,,,,,,,,,,,,,,,,,,,,,,,,,,,,,,,,,,,,,,,,,,,,,,,,,,,,,,,,,,,,,,,,,,,,,,,,,,,,,,,,,,,,,,,,,,,,,,,,,,,,,,,,,,,,,,,,,,,,,,,,,,,,,,,,,,,,,,,,,,,,,,,,,,,,,,,,,,
0,17,17,87,1,,5f806f22e8159d0913945e35,62c53a2d394159e382b487c9,2022-07-06_09h32.55.900,Colour_Asymmetry_Pilot,2022.1.3,Win32,60.0024001,62c50e9c1127f2cd403a315f,,,,,,,,,,,,,,,,,,,,,,,,,,,,,,,,,,,,,,,,,,,,,,,,,,,,,,,,,,,,,,,,,,,,,,,,,,,,,,,,,,,,,,,,,,,,,,,,,,,,,,,,,,,,,,,,,,,,,,,,,,,,,,,,,,,,,,,,,,,,,,,,,,,,,,,,,,,,,,,,,,,
0,18,18,44,1,,5f806f22e8159d0913945e35,62c53a2d394159e382b487c9,2022-07-06_09h32.55.900,Colour_Asymmetry_Pilot,2022.1.3,Win32,60.0024001,62c50e9c1127f2cd403a315f,,,,,,,,,,,,,,,,,,,,,,,,,,,,,,,,,,,,,,,,,,,,,,,,,,,,,,,,,,,,,,,,,,,,,,,,,,,,,,,,,,,,,,,,,,,,,,,,,,,,,,,,,,,,,,,,,,,,,,,,,,,,,,,,,,,,,,,,,,,,,,,,,,,,,,,,,,,,,,,,,,,
0,19,19,59,1,,5f806f22e8159d0913945e35,62c53a2d394159e382b487c9,2022-07-06_09h32.55.900,Colour_Asymmetry_Pilot,2022.1.3,Win32,60.0024001,62c50e9c1127f2cd403a315f,,,,,,,,,,,,,,,,,,,,,,,,,,,,,,,,,,,,,,,,,,,,,,,,,,,,,,,,,,,,,,,,,,,,,,,,,,,,,,,,,,,,,,,,,,,,,,,,,,,,,,,,,,,,,,,,,,,,,,,,,,,,,,,,,,,,,,,,,,,,,,,,,,,,,,,,,,,,,,,,,,,
0,20,20,32,1,,5f806f22e8159d0913945e35,62c53a2d394159e382b487c9,2022-07-06_09h32.55.900,Colour_Asymmetry_Pilot,2022.1.3,Win32,60.0024001,62c50e9c1127f2cd403a315f,,,,,,,,,,,,,,,,,,,,,,,,,,,,,,,,,,,,,,,,,,,,,,,,,,,,,,,,,,,,,,,,,,,,,,,,,,,,,,,,,,,,,,,,,,,,,,,,,,,,,,,,,,,,,,,,,,,,,,,,,,,,,,,,,,,,,,,,,,,,,,,,,,,,,,,,,,,,,,,,,,,
0,21,21,89,1,,5f806f22e8159d0913945e35,62c53a2d394159e382b487c9,2022-07-06_09h32.55.900,Colour_Asymmetry_Pilot,2022.1.3,Win32,60.0024001,62c50e9c1127f2cd403a315f,,,,,,,,,,,,,,,,,,,,,,,,,,,,,,,,,,,,,,,,,,,,,,,,,,,,,,,,,,,,,,,,,,,,,,,,,,,,,,,,,,,,,,,,,,,,,,,,,,,,,,,,,,,,,,,,,,,,,,,,,,,,,,,,,,,,,,,,,,,,,,,,,,,,,,,,,,,,,,,,,,,
0,22,22,41,1,,5f806f22e8159d0913945e35,62c53a2d394159e382b487c9,2022-07-06_09h32.55.900,Colour_Asymmetry_Pilot,2022.1.3,Win32,60.0024001,62c50e9c1127f2cd403a315f,,,,,,,,,,,,,,,,,,,,,,,,,,,,,,,,,,,,,,,,,,,,,,,,,,,,,,,,,,,,,,,,,,,,,,,,,,,,,,,,,,,,,,,,,,,,,,,,,,,,,,,,,,,,,,,,,,,,,,,,,,,,,,,,,,,,,,,,,,,,,,,,,,,,,,,,,,,,,,,,,,,
0,23,23,3,1,,5f806f22e8159d0913945e35,62c53a2d394159e382b487c9,2022-07-06_09h32.55.900,Colour_Asymmetry_Pilot,2022.1.3,Win32,60.0024001,62c50e9c1127f2cd403a315f,,,,,,,,,,,,,,,,,,,,,,,,,,,,,,,,,,,,,,,,,,,,,,,,,,,,,,,,,,,,,,,,,,,,,,,,,,,,,,,,,,,,,,,,,,,,,,,,,,,,,,,,,,,,,,,,,,,,,,,,,,,,,,,,,,,,,,,,,,,,,,,,,,,,,,,,,,,,,,,,,,,
0,24,24,67,1,,5f806f22e8159d0913945e35,62c53a2d394159e382b487c9,2022-07-06_09h32.55.900,Colour_Asymmetry_Pilot,2022.1.3,Win32,60.0024001,62c50e9c1127f2cd403a315f,,,,,,,,,,,,,,,,,,,,,,,,,,,,,,,,,,,,,,,,,,,,,,,,,,,,,,,,,,,,,,,,,,,,,,,,,,,,,,,,,,,,,,,,,,,,,,,,,,,,,,,,,,,,,,,,,,,,,,,,,,,,,,,,,,,,,,,,,,,,,,,,,,,,,,,,,,,,,,,,,,,
0,25,25,28,1,,5f806f22e8159d0913945e35,62c53a2d394159e382b487c9,2022-07-06_09h32.55.900,Colour_Asymmetry_Pilot,2022.1.3,Win32,60.0024001,62c50e9c1127f2cd403a315f,,,,,,,,,,,,,,,,,,,,,,,,,,,,,,,,,,,,,,,,,,,,,,,,,,,,,,,,,,,,,,,,,,,,,,,,,,,,,,,,,,,,,,,,,,,,,,,,,,,,,,,,,,,,,,,,,,,,,,,,,,,,,,,,,,,,,,,,,,,,,,,,,,,,,,,,,,,,,,,,,,,
0,26,26,53,1,,5f806f22e8159d0913945e35,62c53a2d394159e382b487c9,2022-07-06_09h32.55.900,Colour_Asymmetry_Pilot,2022.1.3,Win32,60.0024001,62c50e9c1127f2cd403a315f,,,,,,,,,,,,,,,,,,,,,,,,,,,,,,,,,,,,,,,,,,,,,,,,,,,,,,,,,,,,,,,,,,,,,,,,,,,,,,,,,,,,,,,,,,,,,,,,,,,,,,,,,,,,,,,,,,,,,,,,,,,,,,,,,,,,,,,,,,,,,,,,,,,,,,,,,,,,,,,,,,,
0,27,27,0,1,,5f806f22e8159d0913945e35,62c53a2d394159e382b487c9,2022-07-06_09h32.55.900,Colour_Asymmetry_Pilot,2022.1.3,Win32,60.0024001,62c50e9c1127f2cd403a315f,,,,,,,,,,,,,,,,,,,,,,,,,,,,,,,,,,,,,,,,,,,,,,,,,,,,,,,,,,,,,,,,,,,,,,,,,,,,,,,,,,,,,,,,,,,,,,,,,,,,,,,,,,,,,,,,,,,,,,,,,,,,,,,,,,,,,,,,,,,,,,,,,,,,,,,,,,,,,,,,,,,
0,28,28,77,1,,5f806f22e8159d0913945e35,62c53a2d394159e382b487c9,2022-07-06_09h32.55.900,Colour_Asymmetry_Pilot,2022.1.3,Win32,60.0024001,62c50e9c1127f2cd403a315f,,,,,,,,,,,,,,,,,,,,,,,,,,,,,,,,,,,,,,,,,,,,,,,,,,,,,,,,,,,,,,,,,,,,,,,,,,,,,,,,,,,,,,,,,,,,,,,,,,,,,,,,,,,,,,,,,,,,,,,,,,,,,,,,,,,,,,,,,,,,,,,,,,,,,,,,,,,,,,,,,,,
0,29,29,45,1,,5f806f22e8159d0913945e35,62c53a2d394159e382b487c9,2022-07-06_09h32.55.900,Colour_Asymmetry_Pilot,2022.1.3,Win32,60.0024001,62c50e9c1127f2cd403a315f,,,,,,,,,,,,,,,,,,,,,,,,,,,,,,,,,,,,,,,,,,,,,,,,,,,,,,,,,,,,,,,,,,,,,,,,,,,,,,,,,,,,,,,,,,,,,,,,,,,,,,,,,,,,,,,,,,,,,,,,,,,,,,,,,,,,,,,,,,,,,,,,,,,,,,,,,,,,,,,,,,,
0,30,30,16,1,,5f806f22e8159d0913945e35,62c53a2d394159e382b487c9,2022-07-06_09h32.55.900,Colour_Asymmetry_Pilot,2022.1.3,Win32,60.0024001,62c50e9c1127f2cd403a315f,,,,,,,,,,,,,,,,,,,,,,,,,,,,,,,,,,,,,,,,,,,,,,,,,,,,,,,,,,,,,,,,,,,,,,,,,,,,,,,,,,,,,,,,,,,,,,,,,,,,,,,,,,,,,,,,,,,,,,,,,,,,,,,,,,,,,,,,,,,,,,,,,,,,,,,,,,,,,,,,,,,
0,31,31,30,1,,5f806f22e8159d0913945e35,62c53a2d394159e382b487c9,2022-07-06_09h32.55.900,Colour_Asymmetry_Pilot,2022.1.3,Win32,60.0024001,62c50e9c1127f2cd403a315f,,,,,,,,,,,,,,,,,,,,,,,,,,,,,,,,,,,,,,,,,,,,,,,,,,,,,,,,,,,,,,,,,,,,,,,,,,,,,,,,,,,,,,,,,,,,,,,,,,,,,,,,,,,,,,,,,,,,,,,,,,,,,,,,,,,,,,,,,,,,,,,,,,,,,,,,,,,,,,,,,,,
0,32,32,63,1,,5f806f22e8159d0913945e35,62c53a2d394159e382b487c9,2022-07-06_09h32.55.900,Colour_Asymmetry_Pilot,2022.1.3,Win32,60.0024001,62c50e9c1127f2cd403a315f,,,,,,,,,,,,,,,,,,,,,,,,,,,,,,,,,,,,,,,,,,,,,,,,,,,,,,,,,,,,,,,,,,,,,,,,,,,,,,,,,,,,,,,,,,,,,,,,,,,,,,,,,,,,,,,,,,,,,,,,,,,,,,,,,,,,,,,,,,,,,,,,,,,,,,,,,,,,,,,,,,,
0,33,33,79,1,,5f806f22e8159d0913945e35,62c53a2d394159e382b487c9,2022-07-06_09h32.55.900,Colour_Asymmetry_Pilot,2022.1.3,Win32,60.0024001,62c50e9c1127f2cd403a315f,,,,,,,,,,,,,,,,,,,,,,,,,,,,,,,,,,,,,,,,,,,,,,,,,,,,,,,,,,,,,,,,,,,,,,,,,,,,,,,,,,,,,,,,,,,,,,,,,,,,,,,,,,,,,,,,,,,,,,,,,,,,,,,,,,,,,,,,,,,,,,,,,,,,,,,,,,,,,,,,,,,
0,34,34,42,1,,5f806f22e8159d0913945e35,62c53a2d394159e382b487c9,2022-07-06_09h32.55.900,Colour_Asymmetry_Pilot,2022.1.3,Win32,60.0024001,62c50e9c1127f2cd403a315f,,,,,,,,,,,,,,,,,,,,,,,,,,,,,,,,,,,,,,,,,,,,,,,,,,,,,,,,,,,,,,,,,,,,,,,,,,,,,,,,,,,,,,,,,,,,,,,,,,,,,,,,,,,,,,,,,,,,,,,,,,,,,,,,,,,,,,,,,,,,,,,,,,,,,,,,,,,,,,,,,,,
0,35,35,61,1,,5f806f22e8159d0913945e35,62c53a2d394159e382b487c9,2022-07-06_09h32.55.900,Colour_Asymmetry_Pilot,2022.1.3,Win32,60.0024001,62c50e9c1127f2cd403a315f,,,,,,,,,,,,,,,,,,,,,,,,,,,,,,,,,,,,,,,,,,,,,,,,,,,,,,,,,,,,,,,,,,,,,,,,,,,,,,,,,,,,,,,,,,,,,,,,,,,,,,,,,,,,,,,,,,,,,,,,,,,,,,,,,,,,,,,,,,,,,,,,,,,,,,,,,,,,,,,,,,,
0,36,36,50,1,,5f806f22e8159d0913945e35,62c53a2d394159e382b487c9,2022-07-06_09h32.55.900,Colour_Asymmetry_Pilot,2022.1.3,Win32,60.0024001,62c50e9c1127f2cd403a315f,,,,,,,,,,,,,,,,,,,,,,,,,,,,,,,,,,,,,,,,,,,,,,,,,,,,,,,,,,,,,,,,,,,,,,,,,,,,,,,,,,,,,,,,,,,,,,,,,,,,,,,,,,,,,,,,,,,,,,,,,,,,,,,,,,,,,,,,,,,,,,,,,,,,,,,,,,,,,,,,,,,
0,37,37,54,1,,5f806f22e8159d0913945e35,62c53a2d394159e382b487c9,2022-07-06_09h32.55.900,Colour_Asymmetry_Pilot,2022.1.3,Win32,60.0024001,62c50e9c1127f2cd403a315f,,,,,,,,,,,,,,,,,,,,,,,,,,,,,,,,,,,,,,,,,,,,,,,,,,,,,,,,,,,,,,,,,,,,,,,,,,,,,,,,,,,,,,,,,,,,,,,,,,,,,,,,,,,,,,,,,,,,,,,,,,,,,,,,,,,,,,,,,,,,,,,,,,,,,,,,,,,,,,,,,,,
0,38,38,34,1,,5f806f22e8159d0913945e35,62c53a2d394159e382b487c9,2022-07-06_09h32.55.900,Colour_Asymmetry_Pilot,2022.1.3,Win32,60.0024001,62c50e9c1127f2cd403a315f,,,,,,,,,,,,,,,,,,,,,,,,,,,,,,,,,,,,,,,,,,,,,,,,,,,,,,,,,,,,,,,,,,,,,,,,,,,,,,,,,,,,,,,,,,,,,,,,,,,,,,,,,,,,,,,,,,,,,,,,,,,,,,,,,,,,,,,,,,,,,,,,,,,,,,,,,,,,,,,,,,,
0,39,39,15,1,,5f806f22e8159d0913945e35,62c53a2d394159e382b487c9,2022-07-06_09h32.55.900,Colour_Asymmetry_Pilot,2022.1.3,Win32,60.0024001,62c50e9c1127f2cd403a315f,,,,,,,,,,,,,,,,,,,,,,,,,,,,,,,,,,,,,,,,,,,,,,,,,,,,,,,,,,,,,,,,,,,,,,,,,,,,,,,,,,,,,,,,,,,,,,,,,,,,,,,,,,,,,,,,,,,,,,,,,,,,,,,,,,,,,,,,,,,,,,,,,,,,,,,,,,,,,,,,,,,
0,40,40,49,1,,5f806f22e8159d0913945e35,62c53a2d394159e382b487c9,2022-07-06_09h32.55.900,Colour_Asymmetry_Pilot,2022.1.3,Win32,60.0024001,62c50e9c1127f2cd403a315f,,,,,,,,,,,,,,,,,,,,,,,,,,,,,,,,,,,,,,,,,,,,,,,,,,,,,,,,,,,,,,,,,,,,,,,,,,,,,,,,,,,,,,,,,,,,,,,,,,,,,,,,,,,,,,,,,,,,,,,,,,,,,,,,,,,,,,,,,,,,,,,,,,,,,,,,,,,,,,,,,,,
0,41,41,82,1,,5f806f22e8159d0913945e35,62c53a2d394159e382b487c9,2022-07-06_09h32.55.900,Colour_Asymmetry_Pilot,2022.1.3,Win32,60.0024001,62c50e9c1127f2cd403a315f,,,,,,,,,,,,,,,,,,,,,,,,,,,,,,,,,,,,,,,,,,,,,,,,,,,,,,,,,,,,,,,,,,,,,,,,,,,,,,,,,,,,,,,,,,,,,,,,,,,,,,,,,,,,,,,,,,,,,,,,,,,,,,,,,,,,,,,,,,,,,,,,,,,,,,,,,,,,,,,,,,,
0,42,42,38,1,,5f806f22e8159d0913945e35,62c53a2d394159e382b487c9,2022-07-06_09h32.55.900,Colour_Asymmetry_Pilot,2022.1.3,Win32,60.0024001,62c50e9c1127f2cd403a315f,,,,,,,,,,,,,,,,,,,,,,,,,,,,,,,,,,,,,,,,,,,,,,,,,,,,,,,,,,,,,,,,,,,,,,,,,,,,,,,,,,,,,,,,,,,,,,,,,,,,,,,,,,,,,,,,,,,,,,,,,,,,,,,,,,,,,,,,,,,,,,,,,,,,,,,,,,,,,,,,,,,
0,43,43,74,1,,5f806f22e8159d0913945e35,62c53a2d394159e382b487c9,2022-07-06_09h32.55.900,Colour_Asymmetry_Pilot,2022.1.3,Win32,60.0024001,62c50e9c1127f2cd403a315f,,,,,,,,,,,,,,,,,,,,,,,,,,,,,,,,,,,,,,,,,,,,,,,,,,,,,,,,,,,,,,,,,,,,,,,,,,,,,,,,,,,,,,,,,,,,,,,,,,,,,,,,,,,,,,,,,,,,,,,,,,,,,,,,,,,,,,,,,,,,,,,,,,,,,,,,,,,,,,,,,,,
0,44,44,56,1,,5f806f22e8159d0913945e35,62c53a2d394159e382b487c9,2022-07-06_09h32.55.900,Colour_Asymmetry_Pilot,2022.1.3,Win32,60.0024001,62c50e9c1127f2cd403a315f,,,,,,,,,,,,,,,,,,,,,,,,,,,,,,,,,,,,,,,,,,,,,,,,,,,,,,,,,,,,,,,,,,,,,,,,,,,,,,,,,,,,,,,,,,,,,,,,,,,,,,,,,,,,,,,,,,,,,,,,,,,,,,,,,,,,,,,,,,,,,,,,,,,,,,,,,,,,,,,,,,,
0,45,45,17,1,,5f806f22e8159d0913945e35,62c53a2d394159e382b487c9,2022-07-06_09h32.55.900,Colour_Asymmetry_Pilot,2022.1.3,Win32,60.0024001,62c50e9c1127f2cd403a315f,,,,,,,,,,,,,,,,,,,,,,,,,,,,,,,,,,,,,,,,,,,,,,,,,,,,,,,,,,,,,,,,,,,,,,,,,,,,,,,,,,,,,,,,,,,,,,,,,,,,,,,,,,,,,,,,,,,,,,,,,,,,,,,,,,,,,,,,,,,,,,,,,,,,,,,,,,,,,,,,,,,
0,46,46,20,1,,5f806f22e8159d0913945e35,62c53a2d394159e382b487c9,2022-07-06_09h32.55.900,Colour_Asymmetry_Pilot,2022.1.3,Win32,60.0024001,62c50e9c1127f2cd403a315f,,,,,,,,,,,,,,,,,,,,,,,,,,,,,,,,,,,,,,,,,,,,,,,,,,,,,,,,,,,,,,,,,,,,,,,,,,,,,,,,,,,,,,,,,,,,,,,,,,,,,,,,,,,,,,,,,,,,,,,,,,,,,,,,,,,,,,,,,,,,,,,,,,,,,,,,,,,,,,,,,,,
0,47,47,57,1,,5f806f22e8159d0913945e35,62c53a2d394159e382b487c9,2022-07-06_09h32.55.900,Colour_Asymmetry_Pilot,2022.1.3,Win32,60.0024001,62c50e9c1127f2cd403a315f,,,,,,,,,,,,,,,,,,,,,,,,,,,,,,,,,,,,,,,,,,,,,,,,,,,,,,,,,,,,,,,,,,,,,,,,,,,,,,,,,,,,,,,,,,,,,,,,,,,,,,,,,,,,,,,,,,,,,,,,,,,,,,,,,,,,,,,,,,,,,,,,,,,,,,,,,,,,,,,,,,,
0,48,48,70,1,,5f806f22e8159d0913945e35,62c53a2d394159e382b487c9,2022-07-06_09h32.55.900,Colour_Asymmetry_Pilot,2022.1.3,Win32,60.0024001,62c50e9c1127f2cd403a315f,,,,,,,,,,,,,,,,,,,,,,,,,,,,,,,,,,,,,,,,,,,,,,,,,,,,,,,,,,,,,,,,,,,,,,,,,,,,,,,,,,,,,,,,,,,,,,,,,,,,,,,,,,,,,,,,,,,,,,,,,,,,,,,,,,,,,,,,,,,,,,,,,,,,,,,,,,,,,,,,,,,
0,49,49,52,1,,5f806f22e8159d0913945e35,62c53a2d394159e382b487c9,2022-07-06_09h32.55.900,Colour_Asymmetry_Pilot,2022.1.3,Win32,60.0024001,62c50e9c1127f2cd403a315f,,,,,,,,,,,,,,,,,,,,,,,,,,,,,,,,,,,,,,,,,,,,,,,,,,,,,,,,,,,,,,,,,,,,,,,,,,,,,,,,,,,,,,,,,,,,,,,,,,,,,,,,,,,,,,,,,,,,,,,,,,,,,,,,,,,,,,,,,,,,,,,,,,,,,,,,,,,,,,,,,,,
0,50,50,37,1,,5f806f22e8159d0913945e35,62c53a2d394159e382b487c9,2022-07-06_09h32.55.900,Colour_Asymmetry_Pilot,2022.1.3,Win32,60.0024001,62c50e9c1127f2cd403a315f,,,,,,,,,,,,,,,,,,,,,,,,,,,,,,,,,,,,,,,,,,,,,,,,,,,,,,,,,,,,,,,,,,,,,,,,,,,,,,,,,,,,,,,,,,,,,,,,,,,,,,,,,,,,,,,,,,,,,,,,,,,,,,,,,,,,,,,,,,,,,,,,,,,,,,,,,,,,,,,,,,,
0,51,51,18,1,,5f806f22e8159d0913945e35,62c53a2d394159e382b487c9,2022-07-06_09h32.55.900,Colour_Asymmetry_Pilot,2022.1.3,Win32,60.0024001,62c50e9c1127f2cd403a315f,,,,,,,,,,,,,,,,,,,,,,,,,,,,,,,,,,,,,,,,,,,,,,,,,,,,,,,,,,,,,,,,,,,,,,,,,,,,,,,,,,,,,,,,,,,,,,,,,,,,,,,,,,,,,,,,,,,,,,,,,,,,,,,,,,,,,,,,,,,,,,,,,,,,,,,,,,,,,,,,,,,
0,52,52,23,1,,5f806f22e8159d0913945e35,62c53a2d394159e382b487c9,2022-07-06_09h32.55.900,Colour_Asymmetry_Pilot,2022.1.3,Win32,60.0024001,62c50e9c1127f2cd403a315f,,,,,,,,,,,,,,,,,,,,,,,,,,,,,,,,,,,,,,,,,,,,,,,,,,,,,,,,,,,,,,,,,,,,,,,,,,,,,,,,,,,,,,,,,,,,,,,,,,,,,,,,,,,,,,,,,,,,,,,,,,,,,,,,,,,,,,,,,,,,,,,,,,,,,,,,,,,,,,,,,,,
0,53,53,75,1,,5f806f22e8159d0913945e35,62c53a2d394159e382b487c9,2022-07-06_09h32.55.900,Colour_Asymmetry_Pilot,2022.1.3,Win32,60.0024001,62c50e9c1127f2cd403a315f,,,,,,,,,,,,,,,,,,,,,,,,,,,,,,,,,,,,,,,,,,,,,,,,,,,,,,,,,,,,,,,,,,,,,,,,,,,,,,,,,,,,,,,,,,,,,,,,,,,,,,,,,,,,,,,,,,,,,,,,,,,,,,,,,,,,,,,,,,,,,,,,,,,,,,,,,,,,,,,,,,,
0,54,54,7,1,,5f806f22e8159d0913945e35,62c53a2d394159e382b487c9,2022-07-06_09h32.55.900,Colour_Asymmetry_Pilot,2022.1.3,Win32,60.0024001,62c50e9c1127f2cd403a315f,,,,,,,,,,,,,,,,,,,,,,,,,,,,,,,,,,,,,,,,,,,,,,,,,,,,,,,,,,,,,,,,,,,,,,,,,,,,,,,,,,,,,,,,,,,,,,,,,,,,,,,,,,,,,,,,,,,,,,,,,,,,,,,,,,,,,,,,,,,,,,,,,,,,,,,,,,,,,,,,,,,
0,55,55,33,1,,5f806f22e8159d0913945e35,62c53a2d394159e382b487c9,2022-07-06_09h32.55.900,Colour_Asymmetry_Pilot,2022.1.3,Win32,60.0024001,62c50e9c1127f2cd403a315f,,,,,,,,,,,,,,,,,,,,,,,,,,,,,,,,,,,,,,,,,,,,,,,,,,,,,,,,,,,,,,,,,,,,,,,,,,,,,,,,,,,,,,,,,,,,,,,,,,,,,,,,,,,,,,,,,,,,,,,,,,,,,,,,,,,,,,,,,,,,,,,,,,,,,,,,,,,,,,,,,,,
0,56,56,39,1,,5f806f22e8159d0913945e35,62c53a2d394159e382b487c9,2022-07-06_09h32.55.900,Colour_Asymmetry_Pilot,2022.1.3,Win32,60.0024001,62c50e9c1127f2cd403a315f,,,,,,,,,,,,,,,,,,,,,,,,,,,,,,,,,,,,,,,,,,,,,,,,,,,,,,,,,,,,,,,,,,,,,,,,,,,,,,,,,,,,,,,,,,,,,,,,,,,,,,,,,,,,,,,,,,,,,,,,,,,,,,,,,,,,,,,,,,,,,,,,,,,,,,,,,,,,,,,,,,,
0,57,57,80,1,,5f806f22e8159d0913945e35,62c53a2d394159e382b487c9,2022-07-06_09h32.55.900,Colour_Asymmetry_Pilot,2022.1.3,Win32,60.0024001,62c50e9c1127f2cd403a315f,,,,,,,,,,,,,,,,,,,,,,,,,,,,,,,,,,,,,,,,,,,,,,,,,,,,,,,,,,,,,,,,,,,,,,,,,,,,,,,,,,,,,,,,,,,,,,,,,,,,,,,,,,,,,,,,,,,,,,,,,,,,,,,,,,,,,,,,,,,,,,,,,,,,,,,,,,,,,,,,,,,
0,58,58,29,1,,5f806f22e8159d0913945e35,62c53a2d394159e382b487c9,2022-07-06_09h32.55.900,Colour_Asymmetry_Pilot,2022.1.3,Win32,60.0024001,62c50e9c1127f2cd403a315f,,,,,,,,,,,,,,,,,,,,,,,,,,,,,,,,,,,,,,,,,,,,,,,,,,,,,,,,,,,,,,,,,,,,,,,,,,,,,,,,,,,,,,,,,,,,,,,,,,,,,,,,,,,,,,,,,,,,,,,,,,,,,,,,,,,,,,,,,,,,,,,,,,,,,,,,,,,,,,,,,,,
0,59,59,10,1,,5f806f22e8159d0913945e35,62c53a2d394159e382b487c9,2022-07-06_09h32.55.900,Colour_Asymmetry_Pilot,2022.1.3,Win32,60.0024001,62c50e9c1127f2cd403a315f,,,,,,,,,,,,,,,,,,,,,,,,,,,,,,,,,,,,,,,,,,,,,,,,,,,,,,,,,,,,,,,,,,,,,,,,,,,,,,,,,,,,,,,,,,,,,,,,,,,,,,,,,,,,,,,,,,,,,,,,,,,,,,,,,,,,,,,,,,,,,,,,,,,,,,,,,,,,,,,,,,,
0,60,60,12,1,,5f806f22e8159d0913945e35,62c53a2d394159e382b487c9,2022-07-06_09h32.55.900,Colour_Asymmetry_Pilot,2022.1.3,Win32,60.0024001,62c50e9c1127f2cd403a315f,,,,,,,,,,,,,,,,,,,,,,,,,,,,,,,,,,,,,,,,,,,,,,,,,,,,,,,,,,,,,,,,,,,,,,,,,,,,,,,,,,,,,,,,,,,,,,,,,,,,,,,,,,,,,,,,,,,,,,,,,,,,,,,,,,,,,,,,,,,,,,,,,,,,,,,,,,,,,,,,,,,
0,61,61,62,1,,5f806f22e8159d0913945e35,62c53a2d394159e382b487c9,2022-07-06_09h32.55.900,Colour_Asymmetry_Pilot,2022.1.3,Win32,60.0024001,62c50e9c1127f2cd403a315f,,,,,,,,,,,,,,,,,,,,,,,,,,,,,,,,,,,,,,,,,,,,,,,,,,,,,,,,,,,,,,,,,,,,,,,,,,,,,,,,,,,,,,,,,,,,,,,,,,,,,,,,,,,,,,,,,,,,,,,,,,,,,,,,,,,,,,,,,,,,,,,,,,,,,,,,,,,,,,,,,,,
0,62,62,69,1,,5f806f22e8159d0913945e35,62c53a2d394159e382b487c9,2022-07-06_09h32.55.900,Colour_Asymmetry_Pilot,2022.1.3,Win32,60.0024001,62c50e9c1127f2cd403a315f,,,,,,,,,,,,,,,,,,,,,,,,,,,,,,,,,,,,,,,,,,,,,,,,,,,,,,,,,,,,,,,,,,,,,,,,,,,,,,,,,,,,,,,,,,,,,,,,,,,,,,,,,,,,,,,,,,,,,,,,,,,,,,,,,,,,,,,,,,,,,,,,,,,,,,,,,,,,,,,,,,,
0,63,63,1,1,,5f806f22e8159d0913945e35,62c53a2d394159e382b487c9,2022-07-06_09h32.55.900,Colour_Asymmetry_Pilot,2022.1.3,Win32,60.0024001,62c50e9c1127f2cd403a315f,,,,,,,,,,,,,,,,,,,,,,,,,,,,,,,,,,,,,,,,,,,,,,,,,,,,,,,,,,,,,,,,,,,,,,,,,,,,,,,,,,,,,,,,,,,,,,,,,,,,,,,,,,,,,,,,,,,,,,,,,,,,,,,,,,,,,,,,,,,,,,,,,,,,,,,,,,,,,,,,,,,
0,64,64,60,1,,5f806f22e8159d0913945e35,62c53a2d394159e382b487c9,2022-07-06_09h32.55.900,Colour_Asymmetry_Pilot,2022.1.3,Win32,60.0024001,62c50e9c1127f2cd403a315f,,,,,,,,,,,,,,,,,,,,,,,,,,,,,,,,,,,,,,,,,,,,,,,,,,,,,,,,,,,,,,,,,,,,,,,,,,,,,,,,,,,,,,,,,,,,,,,,,,,,,,,,,,,,,,,,,,,,,,,,,,,,,,,,,,,,,,,,,,,,,,,,,,,,,,,,,,,,,,,,,,,
0,65,65,58,1,,5f806f22e8159d0913945e35,62c53a2d394159e382b487c9,2022-07-06_09h32.55.900,Colour_Asymmetry_Pilot,2022.1.3,Win32,60.0024001,62c50e9c1127f2cd403a315f,,,,,,,,,,,,,,,,,,,,,,,,,,,,,,,,,,,,,,,,,,,,,,,,,,,,,,,,,,,,,,,,,,,,,,,,,,,,,,,,,,,,,,,,,,,,,,,,,,,,,,,,,,,,,,,,,,,,,,,,,,,,,,,,,,,,,,,,,,,,,,,,,,,,,,,,,,,,,,,,,,,
0,66,66,90,1,,5f806f22e8159d0913945e35,62c53a2d394159e382b487c9,2022-07-06_09h32.55.900,Colour_Asymmetry_Pilot,2022.1.3,Win32,60.0024001,62c50e9c1127f2cd403a315f,,,,,,,,,,,,,,,,,,,,,,,,,,,,,,,,,,,,,,,,,,,,,,,,,,,,,,,,,,,,,,,,,,,,,,,,,,,,,,,,,,,,,,,,,,,,,,,,,,,,,,,,,,,,,,,,,,,,,,,,,,,,,,,,,,,,,,,,,,,,,,,,,,,,,,,,,,,,,,,,,,,
0,67,67,48,1,,5f806f22e8159d0913945e35,62c53a2d394159e382b487c9,2022-07-06_09h32.55.900,Colour_Asymmetry_Pilot,2022.1.3,Win32,60.0024001,62c50e9c1127f2cd403a315f,,,,,,,,,,,,,,,,,,,,,,,,,,,,,,,,,,,,,,,,,,,,,,,,,,,,,,,,,,,,,,,,,,,,,,,,,,,,,,,,,,,,,,,,,,,,,,,,,,,,,,,,,,,,,,,,,,,,,,,,,,,,,,,,,,,,,,,,,,,,,,,,,,,,,,,,,,,,,,,,,,,
0,68,68,84,1,,5f806f22e8159d0913945e35,62c53a2d394159e382b487c9,2022-07-06_09h32.55.900,Colour_Asymmetry_Pilot,2022.1.3,Win32,60.0024001,62c50e9c1127f2cd403a315f,,,,,,,,,,,,,,,,,,,,,,,,,,,,,,,,,,,,,,,,,,,,,,,,,,,,,,,,,,,,,,,,,,,,,,,,,,,,,,,,,,,,,,,,,,,,,,,,,,,,,,,,,,,,,,,,,,,,,,,,,,,,,,,,,,,,,,,,,,,,,,,,,,,,,,,,,,,,,,,,,,,
0,69,69,9,1,,5f806f22e8159d0913945e35,62c53a2d394159e382b487c9,2022-07-06_09h32.55.900,Colour_Asymmetry_Pilot,2022.1.3,Win32,60.0024001,62c50e9c1127f2cd403a315f,,,,,,,,,,,,,,,,,,,,,,,,,,,,,,,,,,,,,,,,,,,,,,,,,,,,,,,,,,,,,,,,,,,,,,,,,,,,,,,,,,,,,,,,,,,,,,,,,,,,,,,,,,,,,,,,,,,,,,,,,,,,,,,,,,,,,,,,,,,,,,,,,,,,,,,,,,,,,,,,,,,
0,70,70,13,1,,5f806f22e8159d0913945e35,62c53a2d394159e382b487c9,2022-07-06_09h32.55.900,Colour_Asymmetry_Pilot,2022.1.3,Win32,60.0024001,62c50e9c1127f2cd403a315f,,,,,,,,,,,,,,,,,,,,,,,,,,,,,,,,,,,,,,,,,,,,,,,,,,,,,,,,,,,,,,,,,,,,,,,,,,,,,,,,,,,,,,,,,,,,,,,,,,,,,,,,,,,,,,,,,,,,,,,,,,,,,,,,,,,,,,,,,,,,,,,,,,,,,,,,,,,,,,,,,,,
0,71,71,51,1,,5f806f22e8159d0913945e35,62c53a2d394159e382b487c9,2022-07-06_09h32.55.900,Colour_Asymmetry_Pilot,2022.1.3,Win32,60.0024001,62c50e9c1127f2cd403a315f,,,,,,,,,,,,,,,,,,,,,,,,,,,,,,,,,,,,,,,,,,,,,,,,,,,,,,,,,,,,,,,,,,,,,,,,,,,,,,,,,,,,,,,,,,,,,,,,,,,,,,,,,,,,,,,,,,,,,,,,,,,,,,,,,,,,,,,,,,,,,,,,,,,,,,,,,,,,,,,,,,,
0,72,72,76,1,,5f806f22e8159d0913945e35,62c53a2d394159e382b487c9,2022-07-06_09h32.55.900,Colour_Asymmetry_Pilot,2022.1.3,Win32,60.0024001,62c50e9c1127f2cd403a315f,,,,,,,,,,,,,,,,,,,,,,,,,,,,,,,,,,,,,,,,,,,,,,,,,,,,,,,,,,,,,,,,,,,,,,,,,,,,,,,,,,,,,,,,,,,,,,,,,,,,,,,,,,,,,,,,,,,,,,,,,,,,,,,,,,,,,,,,,,,,,,,,,,,,,,,,,,,,,,,,,,,
0,73,73,78,1,,5f806f22e8159d0913945e35,62c53a2d394159e382b487c9,2022-07-06_09h32.55.900,Colour_Asymmetry_Pilot,2022.1.3,Win32,60.0024001,62c50e9c1127f2cd403a315f,,,,,,,,,,,,,,,,,,,,,,,,,,,,,,,,,,,,,,,,,,,,,,,,,,,,,,,,,,,,,,,,,,,,,,,,,,,,,,,,,,,,,,,,,,,,,,,,,,,,,,,,,,,,,,,,,,,,,,,,,,,,,,,,,,,,,,,,,,,,,,,,,,,,,,,,,,,,,,,,,,,
0,74,74,35,1,,5f806f22e8159d0913945e35,62c53a2d394159e382b487c9,2022-07-06_09h32.55.900,Colour_Asymmetry_Pilot,2022.1.3,Win32,60.0024001,62c50e9c1127f2cd403a315f,,,,,,,,,,,,,,,,,,,,,,,,,,,,,,,,,,,,,,,,,,,,,,,,,,,,,,,,,,,,,,,,,,,,,,,,,,,,,,,,,,,,,,,,,,,,,,,,,,,,,,,,,,,,,,,,,,,,,,,,,,,,,,,,,,,,,,,,,,,,,,,,,,,,,,,,,,,,,,,,,,,
0,75,75,21,1,,5f806f22e8159d0913945e35,62c53a2d394159e382b487c9,2022-07-06_09h32.55.900,Colour_Asymmetry_Pilot,2022.1.3,Win32,60.0024001,62c50e9c1127f2cd403a315f,,,,,,,,,,,,,,,,,,,,,,,,,,,,,,,,,,,,,,,,,,,,,,,,,,,,,,,,,,,,,,,,,,,,,,,,,,,,,,,,,,,,,,,,,,,,,,,,,,,,,,,,,,,,,,,,,,,,,,,,,,,,,,,,,,,,,,,,,,,,,,,,,,,,,,,,,,,,,,,,,,,
0,76,76,14,1,,5f806f22e8159d0913945e35,62c53a2d394159e382b487c9,2022-07-06_09h32.55.900,Colour_Asymmetry_Pilot,2022.1.3,Win32,60.0024001,62c50e9c1127f2cd403a315f,,,,,,,,,,,,,,,,,,,,,,,,,,,,,,,,,,,,,,,,,,,,,,,,,,,,,,,,,,,,,,,,,,,,,,,,,,,,,,,,,,,,,,,,,,,,,,,,,,,,,,,,,,,,,,,,,,,,,,,,,,,,,,,,,,,,,,,,,,,,,,,,,,,,,,,,,,,,,,,,,,,
0,77,77,25,1,,5f806f22e8159d0913945e35,62c53a2d394159e382b487c9,2022-07-06_09h32.55.900,Colour_Asymmetry_Pilot,2022.1.3,Win32,60.0024001,62c50e9c1127f2cd403a315f,,,,,,,,,,,,,,,,,,,,,,,,,,,,,,,,,,,,,,,,,,,,,,,,,,,,,,,,,,,,,,,,,,,,,,,,,,,,,,,,,,,,,,,,,,,,,,,,,,,,,,,,,,,,,,,,,,,,,,,,,,,,,,,,,,,,,,,,,,,,,,,,,,,,,,,,,,,,,,,,,,,
0,78,78,5,1,,5f806f22e8159d0913945e35,62c53a2d394159e382b487c9,2022-07-06_09h32.55.900,Colour_Asymmetry_Pilot,2022.1.3,Win32,60.0024001,62c50e9c1127f2cd403a315f,,,,,,,,,,,,,,,,,,,,,,,,,,,,,,,,,,,,,,,,,,,,,,,,,,,,,,,,,,,,,,,,,,,,,,,,,,,,,,,,,,,,,,,,,,,,,,,,,,,,,,,,,,,,,,,,,,,,,,,,,,,,,,,,,,,,,,,,,,,,,,,,,,,,,,,,,,,,,,,,,,,
0,79,79,11,1,,5f806f22e8159d0913945e35,62c53a2d394159e382b487c9,2022-07-06_09h32.55.900,Colour_Asymmetry_Pilot,2022.1.3,Win32,60.0024001,62c50e9c1127f2cd403a315f,,,,,,,,,,,,,,,,,,,,,,,,,,,,,,,,,,,,,,,,,,,,,,,,,,,,,,,,,,,,,,,,,,,,,,,,,,,,,,,,,,,,,,,,,,,,,,,,,,,,,,,,,,,,,,,,,,,,,,,,,,,,,,,,,,,,,,,,,,,,,,,,,,,,,,,,,,,,,,,,,,,
0,80,80,4,1,,5f806f22e8159d0913945e35,62c53a2d394159e382b487c9,2022-07-06_09h32.55.900,Colour_Asymmetry_Pilot,2022.1.3,Win32,60.0024001,62c50e9c1127f2cd403a315f,,,,,,,,,,,,,,,,,,,,,,,,,,,,,,,,,,,,,,,,,,,,,,,,,,,,,,,,,,,,,,,,,,,,,,,,,,,,,,,,,,,,,,,,,,,,,,,,,,,,,,,,,,,,,,,,,,,,,,,,,,,,,,,,,,,,,,,,,,,,,,,,,,,,,,,,,,,,,,,,,,,
0,81,81,66,1,,5f806f22e8159d0913945e35,62c53a2d394159e382b487c9,2022-07-06_09h32.55.900,Colour_Asymmetry_Pilot,2022.1.3,Win32,60.0024001,62c50e9c1127f2cd403a315f,,,,,,,,,,,,,,,,,,,,,,,,,,,,,,,,,,,,,,,,,,,,,,,,,,,,,,,,,,,,,,,,,,,,,,,,,,,,,,,,,,,,,,,,,,,,,,,,,,,,,,,,,,,,,,,,,,,,,,,,,,,,,,,,,,,,,,,,,,,,,,,,,,,,,,,,,,,,,,,,,,,
0,82,82,88,1,,5f806f22e8159d0913945e35,62c53a2d394159e382b487c9,2022-07-06_09h32.55.900,Colour_Asymmetry_Pilot,2022.1.3,Win32,60.0024001,62c50e9c1127f2cd403a315f,,,,,,,,,,,,,,,,,,,,,,,,,,,,,,,,,,,,,,,,,,,,,,,,,,,,,,,,,,,,,,,,,,,,,,,,,,,,,,,,,,,,,,,,,,,,,,,,,,,,,,,,,,,,,,,,,,,,,,,,,,,,,,,,,,,,,,,,,,,,,,,,,,,,,,,,,,,,,,,,,,,
0,83,83,64,1,,5f806f22e8159d0913945e35,62c53a2d394159e382b487c9,2022-07-06_09h32.55.900,Colour_Asymmetry_Pilot,2022.1.3,Win32,60.0024001,62c50e9c1127f2cd403a315f,,,,,,,,,,,,,,,,,,,,,,,,,,,,,,,,,,,,,,,,,,,,,,,,,,,,,,,,,,,,,,,,,,,,,,,,,,,,,,,,,,,,,,,,,,,,,,,,,,,,,,,,,,,,,,,,,,,,,,,,,,,,,,,,,,,,,,,,,,,,,,,,,,,,,,,,,,,,,,,,,,,
0,84,84,19,1,,5f806f22e8159d0913945e35,62c53a2d394159e382b487c9,2022-07-06_09h32.55.900,Colour_Asymmetry_Pilot,2022.1.3,Win32,60.0024001,62c50e9c1127f2cd403a315f,,,,,,,,,,,,,,,,,,,,,,,,,,,,,,,,,,,,,,,,,,,,,,,,,,,,,,,,,,,,,,,,,,,,,,,,,,,,,,,,,,,,,,,,,,,,,,,,,,,,,,,,,,,,,,,,,,,,,,,,,,,,,,,,,,,,,,,,,,,,,,,,,,,,,,,,,,,,,,,,,,,
0,85,85,91,1,,5f806f22e8159d0913945e35,62c53a2d394159e382b487c9,2022-07-06_09h32.55.900,Colour_Asymmetry_Pilot,2022.1.3,Win32,60.0024001,62c50e9c1127f2cd403a315f,,,,,,,,,,,,,,,,,,,,,,,,,,,,,,,,,,,,,,,,,,,,,,,,,,,,,,,,,,,,,,,,,,,,,,,,,,,,,,,,,,,,,,,,,,,,,,,,,,,,,,,,,,,,,,,,,,,,,,,,,,,,,,,,,,,,,,,,,,,,,,,,,,,,,,,,,,,,,,,,,,,
0,86,86,26,1,,5f806f22e8159d0913945e35,62c53a2d394159e382b487c9,2022-07-06_09h32.55.900,Colour_Asymmetry_Pilot,2022.1.3,Win32,60.0024001,62c50e9c1127f2cd403a315f,,,,,,,,,,,,,,,,,,,,,,,,,,,,,,,,,,,,,,,,,,,,,,,,,,,,,,,,,,,,,,,,,,,,,,,,,,,,,,,,,,,,,,,,,,,,,,,,,,,,,,,,,,,,,,,,,,,,,,,,,,,,,,,,,,,,,,,,,,,,,,,,,,,,,,,,,,,,,,,,,,,
0,87,87,68,1,,5f806f22e8159d0913945e35,62c53a2d394159e382b487c9,2022-07-06_09h32.55.900,Colour_Asymmetry_Pilot,2022.1.3,Win32,60.0024001,62c50e9c1127f2cd403a315f,,,,,,,,,,,,,,,,,,,,,,,,,,,,,,,,,,,,,,,,,,,,,,,,,,,,,,,,,,,,,,,,,,,,,,,,,,,,,,,,,,,,,,,,,,,,,,,,,,,,,,,,,,,,,,,,,,,,,,,,,,,,,,,,,,,,,,,,,,,,,,,,,,,,,,,,,,,,,,,,,,,
0,88,88,24,1,,5f806f22e8159d0913945e35,62c53a2d394159e382b487c9,2022-07-06_09h32.55.900,Colour_Asymmetry_Pilot,2022.1.3,Win32,60.0024001,62c50e9c1127f2cd403a315f,,,,,,,,,,,,,,,,,,,,,,,,,,,,,,,,,,,,,,,,,,,,,,,,,,,,,,,,,,,,,,,,,,,,,,,,,,,,,,,,,,,,,,,,,,,,,,,,,,,,,,,,,,,,,,,,,,,,,,,,,,,,,,,,,,,,,,,,,,,,,,,,,,,,,,,,,,,,,,,,,,,
0,89,89,8,1,,5f806f22e8159d0913945e35,62c53a2d394159e382b487c9,2022-07-06_09h32.55.900,Colour_Asymmetry_Pilot,2022.1.3,Win32,60.0024001,62c50e9c1127f2cd403a315f,,,,,,,,,,,,,,,,,,,,,,,,,,,,,,,,,,,,,,,,,,,,,,,,,,,,,,,,,,,,,,,,,,,,,,,,,,,,,,,,,,,,,,,,,,,,,,,,,,,,,,,,,,,,,,,,,,,,,,,,,,,,,,,,,,,,,,,,,,,,,,,,,,,,,,,,,,,,,,,,,,,
0,90,90,36,1,,5f806f22e8159d0913945e35,62c53a2d394159e382b487c9,2022-07-06_09h32.55.900,Colour_Asymmetry_Pilot,2022.1.3,Win32,60.0024001,62c50e9c1127f2cd403a315f,,,,,,,,,,,,,,,,,,,,,,,,,,,,,,,,,,,,,,,,,,,,,,,,,,,,,,,,,,,,,,,,,,,,,,,,,,,,,,,,,,,,,,,,,,,,,,,,,,,,,,,,,,,,,,,,,,,,,,,,,,,,,,,,,,,,,,,,,,,,,,,,,,,,,,,,,,,,,,,,,,,
0,91,91,85,1,,5f806f22e8159d0913945e35,62c53a2d394159e382b487c9,2022-07-06_09h32.55.900,Colour_Asymmetry_Pilot,2022.1.3,Win32,60.0024001,62c50e9c1127f2cd403a315f,,,,,,,,,,,,,,,,,,,,,,,,,,,,,,,,,,,,,,,,,,,,,,,,,,,,,,,,,,,,,,,,,,,,,,,,,,,,,,,,,,,,,,,,,,,,,,,,,,,,,,,,,,,,,,,,,,,,,,,,,,,,,,,,,,,,,,,,,,,,,,,,,,,,,,,,,,,,,,,,,,,
0,92,92,55,1,,5f806f22e8159d0913945e35,62c53a2d394159e382b487c9,2022-07-06_09h32.55.900,Colour_Asymmetry_Pilot,2022.1.3,Win32,60.0024001,62c50e9c1127f2cd403a315f,,,,,,,,,,,,,,,,,,,,,,,,,,,,,,,,,,,,,,,,,,,,,,,,,,,,,,,,,,,,,,,,,,,,,,,,,,,,,,,,,,,,,,,,,,,,,,,,,,,,,,,,,,,,,,,,,,,,,,,,,,,,,,,,,,,,,,,,,,,,,,,,,,,,,,,,,,,,,,,,,,,
,,,,,,5f806f22e8159d0913945e35,62c53a2d394159e382b487c9,2022-07-06_09h32.55.900,Colour_Asymmetry_Pilot,2022.1.3,Win32,60.0024001,62c50e9c1127f2cd403a315f,0,0,0,19,1,twofour,,,,,,,,,,,,,,,,,,,,,,,,,,,,,,,,,,,,,,,,,,,,,,,,,,,,,,,,,,,,,,,,,,,,,,,,,,,,,,,,,,,,,,,,,,,,,,,,,,,,,,,,,,,,,,,,,,,,,,,,,,,,,,,,,,,,,,,,,,,,,,,,,,,,,,,,,,,,,
,,,,,,5f806f22e8159d0913945e35,62c53a2d394159e382b487c9,2022-07-06_09h32.55.900,Colour_Asymmetry_Pilot,2022.1.3,Win32,60.0024001,62c50e9c1127f2cd403a315f,0,1,1,75,1,twofour,,,,,,,,,,,,,,,,,,,,,,,,,,,,,,,,,,,,,,,,,,,,,,,,,,,,,,,,,,,,,,,,,,,,,,,,,,,,,,,,,,,,,,,,,,,,,,,,,,,,,,,,,,,,,,,,,,,,,,,,,,,,,,,,,,,,,,,,,,,,,,,,,,,,,,,,,,,,,
,,,,,,5f806f22e8159d0913945e35,62c53a2d394159e382b487c9,2022-07-06_09h32.55.900,Colour_Asymmetry_Pilot,2022.1.3,Win32,60.0024001,62c50e9c1127f2cd403a315f,0,2,2,131,1,twofour,,,,,,,,,,,,,,,,,,,,,,,,,,,,,,,,,,,,,,,,,,,,,,,,,,,,,,,,,,,,,,,,,,,,,,,,,,,,,,,,,,,,,,,,,,,,,,,,,,,,,,,,,,,,,,,,,,,,,,,,,,,,,,,,,,,,,,,,,,,,,,,,,,,,,,,,,,,,,
,,,,,,5f806f22e8159d0913945e35,62c53a2d394159e382b487c9,2022-07-06_09h32.55.900,Colour_Asymmetry_Pilot,2022.1.3,Win32,60.0024001,62c50e9c1127f2cd403a315f,0,3,3,22,1,fourtwo,,,,,,,,,,,,,,,,,,,,,,,,,,,,,,,,,,,,,,,,,,,,,,,,,,,,,,,,,,,,,,,,,,,,,,,,,,,,,,,,,,,,,,,,,,,,,,,,,,,,,,,,,,,,,,,,,,,,,,,,,,,,,,,,,,,,,,,,,,,,,,,,,,,,,,,,,,,,,
,,,,,,5f806f22e8159d0913945e35,62c53a2d394159e382b487c9,2022-07-06_09h32.55.900,Colour_Asymmetry_Pilot,2022.1.3,Win32,60.0024001,62c50e9c1127f2cd403a315f,0,4,4,119,1,fourthree,,,,,,,,,,,,,,,,,,,,,,,,,,,,,,,,,,,,,,,,,,,,,,,,,,,,,,,,,,,,,,,,,,,,,,,,,,,,,,,,,,,,,,,,,,,,,,,,,,,,,,,,,,,,,,,,,,,,,,,,,,,,,,,,,,,,,,,,,,,,,,,,,,,,,,,,,,,,,
,,,,,,5f806f22e8159d0913945e35,62c53a2d394159e382b487c9,2022-07-06_09h32.55.900,Colour_Asymmetry_Pilot,2022.1.3,Win32,60.0024001,62c50e9c1127f2cd403a315f,0,5,5,30,1,fourtwo,,,,,,,,,,,,,,,,,,,,,,,,,,,,,,,,,,,,,,,,,,,,,,,,,,,,,,,,,,,,,,,,,,,,,,,,,,,,,,,,,,,,,,,,,,,,,,,,,,,,,,,,,,,,,,,,,,,,,,,,,,,,,,,,,,,,,,,,,,,,,,,,,,,,,,,,,,,,,
,,,,,,5f806f22e8159d0913945e35,62c53a2d394159e382b487c9,2022-07-06_09h32.55.900,Colour_Asymmetry_Pilot,2022.1.3,Win32,60.0024001,62c50e9c1127f2cd403a315f,0,6,6,139,1,twofour,,,,,,,,,,,,,,,,,,,,,,,,,,,,,,,,,,,,,,,,,,,,,,,,,,,,,,,,,,,,,,,,,,,,,,,,,,,,,,,,,,,,,,,,,,,,,,,,,,,,,,,,,,,,,,,,,,,,,,,,,,,,,,,,,,,,,,,,,,,,,,,,,,,,,,,,,,,,,
,,,,,,5f806f22e8159d0913945e35,62c53a2d394159e382b487c9,2022-07-06_09h32.55.900,Colour_Asymmetry_Pilot,2022.1.3,Win32,60.0024001,62c50e9c1127f2cd403a315f,0,7,7,158,1,fourtwo,,,,,,,,,,,,,,,,,,,,,,,,,,,,,,,,,,,,,,,,,,,,,,,,,,,,,,,,,,,,,,,,,,,,,,,,,,,,,,,,,,,,,,,,,,,,,,,,,,,,,,,,,,,,,,,,,,,,,,,,,,,,,,,,,,,,,,,,,,,,,,,,,,,,,,,,,,,,,
,,,,,,5f806f22e8159d0913945e35,62c53a2d394159e382b487c9,2022-07-06_09h32.55.900,Colour_Asymmetry_Pilot,2022.1.3,Win32,60.0024001,62c50e9c1127f2cd403a315f,0,8,8,42,1,twoone,,,,,,,,,,,,,,,,,,,,,,,,,,,,,,,,,,,,,,,,,,,,,,,,,,,,,,,,,,,,,,,,,,,,,,,,,,,,,,,,,,,,,,,,,,,,,,,,,,,,,,,,,,,,,,,,,,,,,,,,,,,,,,,,,,,,,,,,,,,,,,,,,,,,,,,,,,,,,
,,,,,,5f806f22e8159d0913945e35,62c53a2d394159e382b487c9,2022-07-06_09h32.55.900,Colour_Asymmetry_Pilot,2022.1.3,Win32,60.0024001,62c50e9c1127f2cd403a315f,0,9,9,16,1,onetwo,,,,,,,,,,,,,,,,,,,,,,,,,,,,,,,,,,,,,,,,,,,,,,,,,,,,,,,,,,,,,,,,,,,,,,,,,,,,,,,,,,,,,,,,,,,,,,,,,,,,,,,,,,,,,,,,,,,,,,,,,,,,,,,,,,,,,,,,,,,,,,,,,,,,,,,,,,,,,
,,,,,,5f806f22e8159d0913945e35,62c53a2d394159e382b487c9,2022-07-06_09h32.55.900,Colour_Asymmetry_Pilot,2022.1.3,Win32,60.0024001,62c50e9c1127f2cd403a315f,0,10,10,108,1,threeone,,,,,,,,,,,,,,,,,,,,,,,,,,,,,,,,,,,,,,,,,,,,,,,,,,,,,,,,,,,,,,,,,,,,,,,,,,,,,,,,,,,,,,,,,,,,,,,,,,,,,,,,,,,,,,,,,,,,,,,,,,,,,,,,,,,,,,,,,,,,,,,,,,,,,,,,,,,,,
,,,,,,5f806f22e8159d0913945e35,62c53a2d394159e382b487c9,2022-07-06_09h32.55.900,Colour_Asymmetry_Pilot,2022.1.3,Win32,60.0024001,62c50e9c1127f2cd403a315f,0,11,11,40,1,onetwo,,,,,,,,,,,,,,,,,,,,,,,,,,,,,,,,,,,,,,,,,,,,,,,,,,,,,,,,,,,,,,,,,,,,,,,,,,,,,,,,,,,,,,,,,,,,,,,,,,,,,,,,,,,,,,,,,,,,,,,,,,,,,,,,,,,,,,,,,,,,,,,,,,,,,,,,,,,,,
,,,,,,5f806f22e8159d0913945e35,62c53a2d394159e382b487c9,2022-07-06_09h32.55.900,Colour_Asymmetry_Pilot,2022.1.3,Win32,60.0024001,62c50e9c1127f2cd403a315f,0,12,12,29,1,threefour,,,,,,,,,,,,,,,,,,,,,,,,,,,,,,,,,,,,,,,,,,,,,,,,,,,,,,,,,,,,,,,,,,,,,,,,,,,,,,,,,,,,,,,,,,,,,,,,,,,,,,,,,,,,,,,,,,,,,,,,,,,,,,,,,,,,,,,,,,,,,,,,,,,,,,,,,,,,,
,,,,,,5f806f22e8159d0913945e35,62c53a2d394159e382b487c9,2022-07-06_09h32.55.900,Colour_Asymmetry_Pilot,2022.1.3,Win32,60.0024001,62c50e9c1127f2cd403a315f,0,13,13,102,1,fourtwo,,,,,,,,,,,,,,,,,,,,,,,,,,,,,,,,,,,,,,,,,,,,,,,,,,,,,,,,,,,,,,,,,,,,,,,,,,,,,,,,,,,,,,,,,,,,,,,,,,,,,,,,,,,,,,,,,,,,,,,,,,,,,,,,,,,,,,,,,,,,,,,,,,,,,,,,,,,,,
,,,,,,5f806f22e8159d0913945e35,62c53a2d394159e382b487c9,2022-07-06_09h32.55.900,Colour_Asymmetry_Pilot,2022.1.3,Win32,60.0024001,62c50e9c1127f2cd403a315f,0,14,14,47,1,fourthree,,,,,,,,,,,,,,,,,,,,,,,,,,,,,,,,,,,,,,,,,,,,,,,,,,,,,,,,,,,,,,,,,,,,,,,,,,,,,,,,,,,,,,,,,,,,,,,,,,,,,,,,,,,,,,,,,,,,,,,,,,,,,,,,,,,,,,,,,,,,,,,,,,,,,,,,,,,,,
,,,,,,5f806f22e8159d0913945e35,62c53a2d394159e382b487c9,2022-07-06_09h32.55.900,Colour_Asymmetry_Pilot,2022.1.3,Win32,60.0024001,62c50e9c1127f2cd403a315f,0,15,15,136,1,onetwo,,,,,,,,,,,,,,,,,,,,,,,,,,,,,,,,,,,,,,,,,,,,,,,,,,,,,,,,,,,,,,,,,,,,,,,,,,,,,,,,,,,,,,,,,,,,,,,,,,,,,,,,,,,,,,,,,,,,,,,,,,,,,,,,,,,,,,,,,,,,,,,,,,,,,,,,,,,,,
,,,,,,5f806f22e8159d0913945e35,62c53a2d394159e382b487c9,2022-07-06_09h32.55.900,Colour_Asymmetry_Pilot,2022.1.3,Win32,60.0024001,62c50e9c1127f2cd403a315f,0,16,16,57,1,onethree,,,,,,,,,,,,,,,,,,,,,,,,,,,,,,,,,,,,,,,,,,,,,,,,,,,,,,,,,,,,,,,,,,,,,,,,,,,,,,,,,,,,,,,,,,,,,,,,,,,,,,,,,,,,,,,,,,,,,,,,,,,,,,,,,,,,,,,,,,,,,,,,,,,,,,,,,,,,,
,,,,,,5f806f22e8159d0913945e35,62c53a2d394159e382b487c9,2022-07-06_09h32.55.900,Colour_Asymmetry_Pilot,2022.1.3,Win32,60.0024001,62c50e9c1127f2cd403a315f,0,17,17,129,1,onethree,,,,,,,,,,,,,,,,,,,,,,,,,,,,,,,,,,,,,,,,,,,,,,,,,,,,,,,,,,,,,,,,,,,,,,,,,,,,,,,,,,,,,,,,,,,,,,,,,,,,,,,,,,,,,,,,,,,,,,,,,,,,,,,,,,,,,,,,,,,,,,,,,,,,,,,,,,,,,
,,,,,,5f806f22e8159d0913945e35,62c53a2d394159e382b487c9,2022-07-06_09h32.55.900,Colour_Asymmetry_Pilot,2022.1.3,Win32,60.0024001,62c50e9c1127f2cd403a315f,0,18,18,148,1,threeone,,,,,,,,,,,,,,,,,,,,,,,,,,,,,,,,,,,,,,,,,,,,,,,,,,,,,,,,,,,,,,,,,,,,,,,,,,,,,,,,,,,,,,,,,,,,,,,,,,,,,,,,,,,,,,,,,,,,,,,,,,,,,,,,,,,,,,,,,,,,,,,,,,,,,,,,,,,,,
,,,,,,5f806f22e8159d0913945e35,62c53a2d394159e382b487c9,2022-07-06_09h32.55.900,Colour_Asymmetry_Pilot,2022.1.3,Win32,60.0024001,62c50e9c1127f2cd403a315f,0,19,19,121,1,onethree,,,,,,,,,,,,,,,,,,,,,,,,,,,,,,,,,,,,,,,,,,,,,,,,,,,,,,,,,,,,,,,,,,,,,,,,,,,,,,,,,,,,,,,,,,,,,,,,,,,,,,,,,,,,,,,,,,,,,,,,,,,,,,,,,,,,,,,,,,,,,,,,,,,,,,,,,,,,,
,,,,,,5f806f22e8159d0913945e35,62c53a2d394159e382b487c9,2022-07-06_09h32.55.900,Colour_Asymmetry_Pilot,2022.1.3,Win32,60.0024001,62c50e9c1127f2cd403a315f,0,20,20,118,1,fourtwo,,,,,,,,,,,,,,,,,,,,,,,,,,,,,,,,,,,,,,,,,,,,,,,,,,,,,,,,,,,,,,,,,,,,,,,,,,,,,,,,,,,,,,,,,,,,,,,,,,,,,,,,,,,,,,,,,,,,,,,,,,,,,,,,,,,,,,,,,,,,,,,,,,,,,,,,,,,,,
,,,,,,5f806f22e8159d0913945e35,62c53a2d394159e382b487c9,2022-07-06_09h32.55.900,Colour_Asymmetry_Pilot,2022.1.3,Win32,60.0024001,62c50e9c1127f2cd403a315f,0,21,21,58,1,twoone,,,,,,,,,,,,,,,,,,,,,,,,,,,,,,,,,,,,,,,,,,,,,,,,,,,,,,,,,,,,,,,,,,,,,,,,,,,,,,,,,,,,,,,,,,,,,,,,,,,,,,,,,,,,,,,,,,,,,,,,,,,,,,,,,,,,,,,,,,,,,,,,,,,,,,,,,,,,,
,,,,,,5f806f22e8159d0913945e35,62c53a2d394159e382b487c9,2022-07-06_09h32.55.900,Colour_Asymmetry_Pilot,2022.1.3,Win32,60.0024001,62c50e9c1127f2cd403a315f,0,22,22,141,1,threefour,,,,,,,,,,,,,,,,,,,,,,,,,,,,,,,,,,,,,,,,,,,,,,,,,,,,,,,,,,,,,,,,,,,,,,,,,,,,,,,,,,,,,,,,,,,,,,,,,,,,,,,,,,,,,,,,,,,,,,,,,,,,,,,,,,,,,,,,,,,,,,,,,,,,,,,,,,,,,
,,,,,,5f806f22e8159d0913945e35,62c53a2d394159e382b487c9,2022-07-06_09h32.55.900,Colour_Asymmetry_Pilot,2022.1.3,Win32,60.0024001,62c50e9c1127f2cd403a315f,0,23,23,156,1,threeone,,,,,,,,,,,,,,,,,,,,,,,,,,,,,,,,,,,,,,,,,,,,,,,,,,,,,,,,,,,,,,,,,,,,,,,,,,,,,,,,,,,,,,,,,,,,,,,,,,,,,,,,,,,,,,,,,,,,,,,,,,,,,,,,,,,,,,,,,,,,,,,,,,,,,,,,,,,,,
,,,,,,5f806f22e8159d0913945e35,62c53a2d394159e382b487c9,2022-07-06_09h32.55.900,Colour_Asymmetry_Pilot,2022.1.3,Win32,60.0024001,62c50e9c1127f2cd403a315f,0,24,24,11,1,twofour,,,,,,,,,,,,,,,,,,,,,,,,,,,,,,,,,,,,,,,,,,,,,,,,,,,,,,,,,,,,,,,,,,,,,,,,,,,,,,,,,,,,,,,,,,,,,,,,,,,,,,,,,,,,,,,,,,,,,,,,,,,,,,,,,,,,,,,,,,,,,,,,,,,,,,,,,,,,,
,,,,,,5f806f22e8159d0913945e35,62c53a2d394159e382b487c9,2022-07-06_09h32.55.900,Colour_Asymmetry_Pilot,2022.1.3,Win32,60.0024001,62c50e9c1127f2cd403a315f,0,25,25,71,1,fourthree,,,,,,,,,,,,,,,,,,,,,,,,,,,,,,,,,,,,,,,,,,,,,,,,,,,,,,,,,,,,,,,,,,,,,,,,,,,,,,,,,,,,,,,,,,,,,,,,,,,,,,,,,,,,,,,,,,,,,,,,,,,,,,,,,,,,,,,,,,,,,,,,,,,,,,,,,,,,,
,,,,,,5f806f22e8159d0913945e35,62c53a2d394159e382b487c9,2022-07-06_09h32.55.900,Colour_Asymmetry_Pilot,2022.1.3,Win32,60.0024001,62c50e9c1127f2cd403a315f,0,26,26,63,1,fourthree,,,,,,,,,,,,,,,,,,,,,,,,,,,,,,,,,,,,,,,,,,,,,,,,,,,,,,,,,,,,,,,,,,,,,,,,,,,,,,,,,,,,,,,,,,,,,,,,,,,,,,,,,,,,,,,,,,,,,,,,,,,,,,,,,,,,,,,,,,,,,,,,,,,,,,,,,,,,,
,,,,,,5f806f22e8159d0913945e35,62c53a2d394159e382b487c9,2022-07-06_09h32.55.900,Colour_Asymmetry_Pilot,2022.1.3,Win32,60.0024001,62c50e9c1127f2cd403a315f,0,27,27,33,1,onethree,,,,,,,,,,,,,,,,,,,,,,,,,,,,,,,,,,,,,,,,,,,,,,,,,,,,,,,,,,,,,,,,,,,,,,,,,,,,,,,,,,,,,,,,,,,,,,,,,,,,,,,,,,,,,,,,,,,,,,,,,,,,,,,,,,,,,,,,,,,,,,,,,,,,,,,,,,,,,
,,,,,,5f806f22e8159d0913945e35,62c53a2d394159e382b487c9,2022-07-06_09h32.55.900,Colour_Asymmetry_Pilot,2022.1.3,Win32,60.0024001,62c50e9c1127f2cd403a315f,0,28,28,95,1,fourthree,,,,,,,,,,,,,,,,,,,,,,,,,,,,,,,,,,,,,,,,,,,,,,,,,,,,,,,,,,,,,,,,,,,,,,,,,,,,,,,,,,,,,,,,,,,,,,,,,,,,,,,,,,,,,,,,,,,,,,,,,,,,,,,,,,,,,,,,,,,,,,,,,,,,,,,,,,,,,
,,,,,,5f806f22e8159d0913945e35,62c53a2d394159e382b487c9,2022-07-06_09h32.55.900,Colour_Asymmetry_Pilot,2022.1.3,Win32,60.0024001,62c50e9c1127f2cd403a315f,0,29,29,8,1,onetwo,,,,,,,,,,,,,,,,,,,,,,,,,,,,,,,,,,,,,,,,,,,,,,,,,,,,,,,,,,,,,,,,,,,,,,,,,,,,,,,,,,,,,,,,,,,,,,,,,,,,,,,,,,,,,,,,,,,,,,,,,,,,,,,,,,,,,,,,,,,,,,,,,,,,,,,,,,,,,
,,,,,,5f806f22e8159d0913945e35,62c53a2d394159e382b487c9,2022-07-06_09h32.55.900,Colour_Asymmetry_Pilot,2022.1.3,Win32,60.0024001,62c50e9c1127f2cd403a315f,0,30,30,78,1,fourtwo,,,,,,,,,,,,,,,,,,,,,,,,,,,,,,,,,,,,,,,,,,,,,,,,,,,,,,,,,,,,,,,,,,,,,,,,,,,,,,,,,,,,,,,,,,,,,,,,,,,,,,,,,,,,,,,,,,,,,,,,,,,,,,,,,,,,,,,,,,,,,,,,,,,,,,,,,,,,,
,,,,,,5f806f22e8159d0913945e35,62c53a2d394159e382b487c9,2022-07-06_09h32.55.900,Colour_Asymmetry_Pilot,2022.1.3,Win32,60.0024001,62c50e9c1127f2cd403a315f,0,31,31,39,1,fourthree,,,,,,,,,,,,,,,,,,,,,,,,,,,,,,,,,,,,,,,,,,,,,,,,,,,,,,,,,,,,,,,,,,,,,,,,,,,,,,,,,,,,,,,,,,,,,,,,,,,,,,,,,,,,,,,,,,,,,,,,,,,,,,,,,,,,,,,,,,,,,,,,,,,,,,,,,,,,,
,,,,,,5f806f22e8159d0913945e35,62c53a2d394159e382b487c9,2022-07-06_09h32.55.900,Colour_Asymmetry_Pilot,2022.1.3,Win32,60.0024001,62c50e9c1127f2cd403a315f,0,32,32,51,1,twofour,,,,,,,,,,,,,,,,,,,,,,,,,,,,,,,,,,,,,,,,,,,,,,,,,,,,,,,,,,,,,,,,,,,,,,,,,,,,,,,,,,,,,,,,,,,,,,,,,,,,,,,,,,,,,,,,,,,,,,,,,,,,,,,,,,,,,,,,,,,,,,,,,,,,,,,,,,,,,
,,,,,,5f806f22e8159d0913945e35,62c53a2d394159e382b487c9,2022-07-06_09h32.55.900,Colour_Asymmetry_Pilot,2022.1.3,Win32,60.0024001,62c50e9c1127f2cd403a315f,0,33,33,104,1,onetwo,,,,,,,,,,,,,,,,,,,,,,,,,,,,,,,,,,,,,,,,,,,,,,,,,,,,,,,,,,,,,,,,,,,,,,,,,,,,,,,,,,,,,,,,,,,,,,,,,,,,,,,,,,,,,,,,,,,,,,,,,,,,,,,,,,,,,,,,,,,,,,,,,,,,,,,,,,,,,
,,,,,,5f806f22e8159d0913945e35,62c53a2d394159e382b487c9,2022-07-06_09h32.55.900,Colour_Asymmetry_Pilot,2022.1.3,Win32,60.0024001,62c50e9c1127f2cd403a315f,0,34,34,144,1,onetwo,,,,,,,,,,,,,,,,,,,,,,,,,,,,,,,,,,,,,,,,,,,,,,,,,,,,,,,,,,,,,,,,,,,,,,,,,,,,,,,,,,,,,,,,,,,,,,,,,,,,,,,,,,,,,,,,,,,,,,,,,,,,,,,,,,,,,,,,,,,,,,,,,,,,,,,,,,,,,
,,,,,,5f806f22e8159d0913945e35,62c53a2d394159e382b487c9,2022-07-06_09h32.55.900,Colour_Asymmetry_Pilot,2022.1.3,Win32,60.0024001,62c50e9c1127f2cd403a315f,0,35,35,81,1,onethree,,,,,,,,,,,,,,,,,,,,,,,,,,,,,,,,,,,,,,,,,,,,,,,,,,,,,,,,,,,,,,,,,,,,,,,,,,,,,,,,,,,,,,,,,,,,,,,,,,,,,,,,,,,,,,,,,,,,,,,,,,,,,,,,,,,,,,,,,,,,,,,,,,,,,,,,,,,,,
,,,,,,5f806f22e8159d0913945e35,62c53a2d394159e382b487c9,2022-07-06_09h32.55.900,Colour_Asymmetry_Pilot,2022.1.3,Win32,60.0024001,62c50e9c1127f2cd403a315f,0,36,36,25,1,onethree,,,,,,,,,,,,,,,,,,,,,,,,,,,,,,,,,,,,,,,,,,,,,,,,,,,,,,,,,,,,,,,,,,,,,,,,,,,,,,,,,,,,,,,,,,,,,,,,,,,,,,,,,,,,,,,,,,,,,,,,,,,,,,,,,,,,,,,,,,,,,,,,,,,,,,,,,,,,,
,,,,,,5f806f22e8159d0913945e35,62c53a2d394159e382b487c9,2022-07-06_09h32.55.900,Colour_Asymmetry_Pilot,2022.1.3,Win32,60.0024001,62c50e9c1127f2cd403a315f,0,37,37,127,1,fourthree,,,,,,,,,,,,,,,,,,,,,,,,,,,,,,,,,,,,,,,,,,,,,,,,,,,,,,,,,,,,,,,,,,,,,,,,,,,,,,,,,,,,,,,,,,,,,,,,,,,,,,,,,,,,,,,,,,,,,,,,,,,,,,,,,,,,,,,,,,,,,,,,,,,,,,,,,,,,,
,,,,,,5f806f22e8159d0913945e35,62c53a2d394159e382b487c9,2022-07-06_09h32.55.900,Colour_Asymmetry_Pilot,2022.1.3,Win32,60.0024001,62c50e9c1127f2cd403a315f,0,38,38,143,1,fourthree,,,,,,,,,,,,,,,,,,,,,,,,,,,,,,,,,,,,,,,,,,,,,,,,,,,,,,,,,,,,,,,,,,,,,,,,,,,,,,,,,,,,,,,,,,,,,,,,,,,,,,,,,,,,,,,,,,,,,,,,,,,,,,,,,,,,,,,,,,,,,,,,,,,,,,,,,,,,,
,,,,,,5f806f22e8159d0913945e35,62c53a2d394159e382b487c9,2022-07-06_09h32.55.900,Colour_Asymmetry_Pilot,2022.1.3,Win32,60.0024001,62c50e9c1127f2cd403a315f,0,39,39,9,1,onethree,,,,,,,,,,,,,,,,,,,,,,,,,,,,,,,,,,,,,,,,,,,,,,,,,,,,,,,,,,,,,,,,,,,,,,,,,,,,,,,,,,,,,,,,,,,,,,,,,,,,,,,,,,,,,,,,,,,,,,,,,,,,,,,,,,,,,,,,,,,,,,,,,,,,,,,,,,,,,
,,,,,,5f806f22e8159d0913945e35,62c53a2d394159e382b487c9,2022-07-06_09h32.55.900,Colour_Asymmetry_Pilot,2022.1.3,Win32,60.0024001,62c50e9c1127f2cd403a315f,0,40,40,94,1,fourtwo,,,,,,,,,,,,,,,,,,,,,,,,,,,,,,,,,,,,,,,,,,,,,,,,,,,,,,,,,,,,,,,,,,,,,,,,,,,,,,,,,,,,,,,,,,,,,,,,,,,,,,,,,,,,,,,,,,,,,,,,,,,,,,,,,,,,,,,,,,,,,,,,,,,,,,,,,,,,,
,,,,,,5f806f22e8159d0913945e35,62c53a2d394159e382b487c9,2022-07-06_09h32.55.900,Colour_Asymmetry_Pilot,2022.1.3,Win32,60.0024001,62c50e9c1127f2cd403a315f,0,41,41,62,1,fourtwo,,,,,,,,,,,,,,,,,,,,,,,,,,,,,,,,,,,,,,,,,,,,,,,,,,,,,,,,,,,,,,,,,,,,,,,,,,,,,,,,,,,,,,,,,,,,,,,,,,,,,,,,,,,,,,,,,,,,,,,,,,,,,,,,,,,,,,,,,,,,,,,,,,,,,,,,,,,,,
,,,,,,5f806f22e8159d0913945e35,62c53a2d394159e382b487c9,2022-07-06_09h32.55.900,Colour_Asymmetry_Pilot,2022.1.3,Win32,60.0024001,62c50e9c1127f2cd403a315f,0,42,42,72,1,onetwo,,,,,,,,,,,,,,,,,,,,,,,,,,,,,,,,,,,,,,,,,,,,,,,,,,,,,,,,,,,,,,,,,,,,,,,,,,,,,,,,,,,,,,,,,,,,,,,,,,,,,,,,,,,,,,,,,,,,,,,,,,,,,,,,,,,,,,,,,,,,,,,,,,,,,,,,,,,,,
,,,,,,5f806f22e8159d0913945e35,62c53a2d394159e382b487c9,2022-07-06_09h32.55.900,Colour_Asymmetry_Pilot,2022.1.3,Win32,60.0024001,62c50e9c1127f2cd403a315f,0,43,43,18,1,twoone,,,,,,,,,,,,,,,,,,,,,,,,,,,,,,,,,,,,,,,,,,,,,,,,,,,,,,,,,,,,,,,,,,,,,,,,,,,,,,,,,,,,,,,,,,,,,,,,,,,,,,,,,,,,,,,,,,,,,,,,,,,,,,,,,,,,,,,,,,,,,,,,,,,,,,,,,,,,,
,,,,,,5f806f22e8159d0913945e35,62c53a2d394159e382b487c9,2022-07-06_09h32.55.900,Colour_Asymmetry_Pilot,2022.1.3,Win32,60.0024001,62c50e9c1127f2cd403a315f,0,44,44,32,1,onetwo,,,,,,,,,,,,,,,,,,,,,,,,,,,,,,,,,,,,,,,,,,,,,,,,,,,,,,,,,,,,,,,,,,,,,,,,,,,,,,,,,,,,,,,,,,,,,,,,,,,,,,,,,,,,,,,,,,,,,,,,,,,,,,,,,,,,,,,,,,,,,,,,,,,,,,,,,,,,,
,,,,,,5f806f22e8159d0913945e35,62c53a2d394159e382b487c9,2022-07-06_09h32.55.900,Colour_Asymmetry_Pilot,2022.1.3,Win32,60.0024001,62c50e9c1127f2cd403a315f,0,45,45,64,1,onetwo,,,,,,,,,,,,,,,,,,,,,,,,,,,,,,,,,,,,,,,,,,,,,,,,,,,,,,,,,,,,,,,,,,,,,,,,,,,,,,,,,,,,,,,,,,,,,,,,,,,,,,,,,,,,,,,,,,,,,,,,,,,,,,,,,,,,,,,,,,,,,,,,,,,,,,,,,,,,,
,,,,,,5f806f22e8159d0913945e35,62c53a2d394159e382b487c9,2022-07-06_09h32.55.900,Colour_Asymmetry_Pilot,2022.1.3,Win32,60.0024001,62c50e9c1127f2cd403a315f,0,46,46,37,1,threefour,,,,,,,,,,,,,,,,,,,,,,,,,,,,,,,,,,,,,,,,,,,,,,,,,,,,,,,,,,,,,,,,,,,,,,,,,,,,,,,,,,,,,,,,,,,,,,,,,,,,,,,,,,,,,,,,,,,,,,,,,,,,,,,,,,,,,,,,,,,,,,,,,,,,,,,,,,,,,
,,,,,,5f806f22e8159d0913945e35,62c53a2d394159e382b487c9,2022-07-06_09h32.55.900,Colour_Asymmetry_Pilot,2022.1.3,Win32,60.0024001,62c50e9c1127f2cd403a315f,0,47,47,150,1,fourtwo,,,,,,,,,,,,,,,,,,,,,,,,,,,,,,,,,,,,,,,,,,,,,,,,,,,,,,,,,,,,,,,,,,,,,,,,,,,,,,,,,,,,,,,,,,,,,,,,,,,,,,,,,,,,,,,,,,,,,,,,,,,,,,,,,,,,,,,,,,,,,,,,,,,,,,,,,,,,,
,,,,,,5f806f22e8159d0913945e35,62c53a2d394159e382b487c9,2022-07-06_09h32.55.900,Colour_Asymmetry_Pilot,2022.1.3,Win32,60.0024001,62c50e9c1127f2cd403a315f,0,48,48,60,1,threeone,,,,,,,,,,,,,,,,,,,,,,,,,,,,,,,,,,,,,,,,,,,,,,,,,,,,,,,,,,,,,,,,,,,,,,,,,,,,,,,,,,,,,,,,,,,,,,,,,,,,,,,,,,,,,,,,,,,,,,,,,,,,,,,,,,,,,,,,,,,,,,,,,,,,,,,,,,,,,
,,,,,,5f806f22e8159d0913945e35,62c53a2d394159e382b487c9,2022-07-06_09h32.55.900,Colour_Asymmetry_Pilot,2022.1.3,Win32,60.0024001,62c50e9c1127f2cd403a315f,0,49,49,14,1,fourtwo,,,,,,,,,,,,,,,,,,,,,,,,,,,,,,,,,,,,,,,,,,,,,,,,,,,,,,,,,,,,,,,,,,,,,,,,,,,,,,,,,,,,,,,,,,,,,,,,,,,,,,,,,,,,,,,,,,,,,,,,,,,,,,,,,,,,,,,,,,,,,,,,,,,,,,,,,,,,,
,,,,,,5f806f22e8159d0913945e35,62c53a2d394159e382b487c9,2022-07-06_09h32.55.900,Colour_Asymmetry_Pilot,2022.1.3,Win32,60.0024001,62c50e9c1127f2cd403a315f,0,50,50,161,1,onethree,,,,,,,,,,,,,,,,,,,,,,,,,,,,,,,,,,,,,,,,,,,,,,,,,,,,,,,,,,,,,,,,,,,,,,,,,,,,,,,,,,,,,,,,,,,,,,,,,,,,,,,,,,,,,,,,,,,,,,,,,,,,,,,,,,,,,,,,,,,,,,,,,,,,,,,,,,,,,
,,,,,,5f806f22e8159d0913945e35,62c53a2d394159e382b487c9,2022-07-06_09h32.55.900,Colour_Asymmetry_Pilot,2022.1.3,Win32,60.0024001,62c50e9c1127f2cd403a315f,0,51,51,12,1,threeone,,,,,,,,,,,,,,,,,,,,,,,,,,,,,,,,,,,,,,,,,,,,,,,,,,,,,,,,,,,,,,,,,,,,,,,,,,,,,,,,,,,,,,,,,,,,,,,,,,,,,,,,,,,,,,,,,,,,,,,,,,,,,,,,,,,,,,,,,,,,,,,,,,,,,,,,,,,,,
,,,,,,5f806f22e8159d0913945e35,62c53a2d394159e382b487c9,2022-07-06_09h32.55.900,Colour_Asymmetry_Pilot,2022.1.3,Win32,60.0024001,62c50e9c1127f2cd403a315f,0,52,52,142,1,fourtwo,,,,,,,,,,,,,,,,,,,,,,,,,,,,,,,,,,,,,,,,,,,,,,,,,,,,,,,,,,,,,,,,,,,,,,,,,,,,,,,,,,,,,,,,,,,,,,,,,,,,,,,,,,,,,,,,,,,,,,,,,,,,,,,,,,,,,,,,,,,,,,,,,,,,,,,,,,,,,
,,,,,,5f806f22e8159d0913945e35,62c53a2d394159e382b487c9,2022-07-06_09h32.55.900,Colour_Asymmetry_Pilot,2022.1.3,Win32,60.0024001,62c50e9c1127f2cd403a315f,0,53,53,160,1,onetwo,,,,,,,,,,,,,,,,,,,,,,,,,,,,,,,,,,,,,,,,,,,,,,,,,,,,,,,,,,,,,,,,,,,,,,,,,,,,,,,,,,,,,,,,,,,,,,,,,,,,,,,,,,,,,,,,,,,,,,,,,,,,,,,,,,,,,,,,,,,,,,,,,,,,,,,,,,,,,
,,,,,,5f806f22e8159d0913945e35,62c53a2d394159e382b487c9,2022-07-06_09h32.55.900,Colour_Asymmetry_Pilot,2022.1.3,Win32,60.0024001,62c50e9c1127f2cd403a315f,0,54,54,137,1,onethree,,,,,,,,,,,,,,,,,,,,,,,,,,,,,,,,,,,,,,,,,,,,,,,,,,,,,,,,,,,,,,,,,,,,,,,,,,,,,,,,,,,,,,,,,,,,,,,,,,,,,,,,,,,,,,,,,,,,,,,,,,,,,,,,,,,,,,,,,,,,,,,,,,,,,,,,,,,,,
,,,,,,5f806f22e8159d0913945e35,62c53a2d394159e382b487c9,2022-07-06_09h32.55.900,Colour_Asymmetry_Pilot,2022.1.3,Win32,60.0024001,62c50e9c1127f2cd403a315f,0,55,55,109,1,threefour,,,,,,,,,,,,,,,,,,,,,,,,,,,,,,,,,,,,,,,,,,,,,,,,,,,,,,,,,,,,,,,,,,,,,,,,,,,,,,,,,,,,,,,,,,,,,,,,,,,,,,,,,,,,,,,,,,,,,,,,,,,,,,,,,,,,,,,,,,,,,,,,,,,,,,,,,,,,,
,,,,,,5f806f22e8159d0913945e35,62c53a2d394159e382b487c9,2022-07-06_09h32.55.900,Colour_Asymmetry_Pilot,2022.1.3,Win32,60.0024001,62c50e9c1127f2cd403a315f,0,56,56,107,1,twofour,,,,,,,,,,,,,,,,,,,,,,,,,,,,,,,,,,,,,,,,,,,,,,,,,,,,,,,,,,,,,,,,,,,,,,,,,,,,,,,,,,,,,,,,,,,,,,,,,,,,,,,,,,,,,,,,,,,,,,,,,,,,,,,,,,,,,,,,,,,,,,,,,,,,,,,,,,,,,
,,,,,,5f806f22e8159d0913945e35,62c53a2d394159e382b487c9,2022-07-06_09h32.55.900,Colour_Asymmetry_Pilot,2022.1.3,Win32,60.0024001,62c50e9c1127f2cd403a315f,0,57,57,79,1,fourthree,,,,,,,,,,,,,,,,,,,,,,,,,,,,,,,,,,,,,,,,,,,,,,,,,,,,,,,,,,,,,,,,,,,,,,,,,,,,,,,,,,,,,,,,,,,,,,,,,,,,,,,,,,,,,,,,,,,,,,,,,,,,,,,,,,,,,,,,,,,,,,,,,,,,,,,,,,,,,
,,,,,,5f806f22e8159d0913945e35,62c53a2d394159e382b487c9,2022-07-06_09h32.55.900,Colour_Asymmetry_Pilot,2022.1.3,Win32,60.0024001,62c50e9c1127f2cd403a315f,0,58,58,27,1,twofour,,,,,,,,,,,,,,,,,,,,,,,,,,,,,,,,,,,,,,,,,,,,,,,,,,,,,,,,,,,,,,,,,,,,,,,,,,,,,,,,,,,,,,,,,,,,,,,,,,,,,,,,,,,,,,,,,,,,,,,,,,,,,,,,,,,,,,,,,,,,,,,,,,,,,,,,,,,,,
,,,,,,5f806f22e8159d0913945e35,62c53a2d394159e382b487c9,2022-07-06_09h32.55.900,Colour_Asymmetry_Pilot,2022.1.3,Win32,60.0024001,62c50e9c1127f2cd403a315f,0,59,59,153,1,onethree,,,,,,,,,,,,,,,,,,,,,,,,,,,,,,,,,,,,,,,,,,,,,,,,,,,,,,,,,,,,,,,,,,,,,,,,,,,,,,,,,,,,,,,,,,,,,,,,,,,,,,,,,,,,,,,,,,,,,,,,,,,,,,,,,,,,,,,,,,,,,,,,,,,,,,,,,,,,,
,,,,,,5f806f22e8159d0913945e35,62c53a2d394159e382b487c9,2022-07-06_09h32.55.900,Colour_Asymmetry_Pilot,2022.1.3,Win32,60.0024001,62c50e9c1127f2cd403a315f,0,60,60,125,1,threefour,,,,,,,,,,,,,,,,,,,,,,,,,,,,,,,,,,,,,,,,,,,,,,,,,,,,,,,,,,,,,,,,,,,,,,,,,,,,,,,,,,,,,,,,,,,,,,,,,,,,,,,,,,,,,,,,,,,,,,,,,,,,,,,,,,,,,,,,,,,,,,,,,,,,,,,,,,,,,
,,,,,,5f806f22e8159d0913945e35,62c53a2d394159e382b487c9,2022-07-06_09h32.55.900,Colour_Asymmetry_Pilot,2022.1.3,Win32,60.0024001,62c50e9c1127f2cd403a315f,0,61,61,15,1,fourthree,,,,,,,,,,,,,,,,,,,,,,,,,,,,,,,,,,,,,,,,,,,,,,,,,,,,,,,,,,,,,,,,,,,,,,,,,,,,,,,,,,,,,,,,,,,,,,,,,,,,,,,,,,,,,,,,,,,,,,,,,,,,,,,,,,,,,,,,,,,,,,,,,,,,,,,,,,,,,
,,,,,,5f806f22e8159d0913945e35,62c53a2d394159e382b487c9,2022-07-06_09h32.55.900,Colour_Asymmetry_Pilot,2022.1.3,Win32,60.0024001,62c50e9c1127f2cd403a315f,0,62,62,50,1,twoone,,,,,,,,,,,,,,,,,,,,,,,,,,,,,,,,,,,,,,,,,,,,,,,,,,,,,,,,,,,,,,,,,,,,,,,,,,,,,,,,,,,,,,,,,,,,,,,,,,,,,,,,,,,,,,,,,,,,,,,,,,,,,,,,,,,,,,,,,,,,,,,,,,,,,,,,,,,,,
,,,,,,5f806f22e8159d0913945e35,62c53a2d394159e382b487c9,2022-07-06_09h32.55.900,Colour_Asymmetry_Pilot,2022.1.3,Win32,60.0024001,62c50e9c1127f2cd403a315f,0,63,63,87,1,fourthree,,,,,,,,,,,,,,,,,,,,,,,,,,,,,,,,,,,,,,,,,,,,,,,,,,,,,,,,,,,,,,,,,,,,,,,,,,,,,,,,,,,,,,,,,,,,,,,,,,,,,,,,,,,,,,,,,,,,,,,,,,,,,,,,,,,,,,,,,,,,,,,,,,,,,,,,,,,,,
,,,,,,5f806f22e8159d0913945e35,62c53a2d394159e382b487c9,2022-07-06_09h32.55.900,Colour_Asymmetry_Pilot,2022.1.3,Win32,60.0024001,62c50e9c1127f2cd403a315f,0,64,64,132,1,threeone,,,,,,,,,,,,,,,,,,,,,,,,,,,,,,,,,,,,,,,,,,,,,,,,,,,,,,,,,,,,,,,,,,,,,,,,,,,,,,,,,,,,,,,,,,,,,,,,,,,,,,,,,,,,,,,,,,,,,,,,,,,,,,,,,,,,,,,,,,,,,,,,,,,,,,,,,,,,,
,,,,,,5f806f22e8159d0913945e35,62c53a2d394159e382b487c9,2022-07-06_09h32.55.900,Colour_Asymmetry_Pilot,2022.1.3,Win32,60.0024001,62c50e9c1127f2cd403a315f,0,65,65,46,1,fourtwo,,,,,,,,,,,,,,,,,,,,,,,,,,,,,,,,,,,,,,,,,,,,,,,,,,,,,,,,,,,,,,,,,,,,,,,,,,,,,,,,,,,,,,,,,,,,,,,,,,,,,,,,,,,,,,,,,,,,,,,,,,,,,,,,,,,,,,,,,,,,,,,,,,,,,,,,,,,,,
,,,,,,5f806f22e8159d0913945e35,62c53a2d394159e382b487c9,2022-07-06_09h32.55.900,Colour_Asymmetry_Pilot,2022.1.3,Win32,60.0024001,62c50e9c1127f2cd403a315f,0,66,66,152,1,onetwo,,,,,,,,,,,,,,,,,,,,,,,,,,,,,,,,,,,,,,,,,,,,,,,,,,,,,,,,,,,,,,,,,,,,,,,,,,,,,,,,,,,,,,,,,,,,,,,,,,,,,,,,,,,,,,,,,,,,,,,,,,,,,,,,,,,,,,,,,,,,,,,,,,,,,,,,,,,,,
,,,,,,5f806f22e8159d0913945e35,62c53a2d394159e382b487c9,2022-07-06_09h32.55.900,Colour_Asymmetry_Pilot,2022.1.3,Win32,60.0024001,62c50e9c1127f2cd403a315f,0,67,67,44,1,threeone,,,,,,,,,,,,,,,,,,,,,,,,,,,,,,,,,,,,,,,,,,,,,,,,,,,,,,,,,,,,,,,,,,,,,,,,,,,,,,,,,,,,,,,,,,,,,,,,,,,,,,,,,,,,,,,,,,,,,,,,,,,,,,,,,,,,,,,,,,,,,,,,,,,,,,,,,,,,,
,,,,,,5f806f22e8159d0913945e35,62c53a2d394159e382b487c9,2022-07-06_09h32.55.900,Colour_Asymmetry_Pilot,2022.1.3,Win32,60.0024001,62c50e9c1127f2cd403a315f,0,68,68,83,1,twofour,,,,,,,,,,,,,,,,,,,,,,,,,,,,,,,,,,,,,,,,,,,,,,,,,,,,,,,,,,,,,,,,,,,,,,,,,,,,,,,,,,,,,,,,,,,,,,,,,,,,,,,,,,,,,,,,,,,,,,,,,,,,,,,,,,,,,,,,,,,,,,,,,,,,,,,,,,,,,
,,,,,,5f806f22e8159d0913945e35,62c53a2d394159e382b487c9,2022-07-06_09h32.55.900,Colour_Asymmetry_Pilot,2022.1.3,Win32,60.0024001,62c50e9c1127f2cd403a315f,0,69,69,84,1,threeone,,,,,,,,,,,,,,,,,,,,,,,,,,,,,,,,,,,,,,,,,,,,,,,,,,,,,,,,,,,,,,,,,,,,,,,,,,,,,,,,,,,,,,,,,,,,,,,,,,,,,,,,,,,,,,,,,,,,,,,,,,,,,,,,,,,,,,,,,,,,,,,,,,,,,,,,,,,,,
,,,,,,5f806f22e8159d0913945e35,62c53a2d394159e382b487c9,2022-07-06_09h32.55.900,Colour_Asymmetry_Pilot,2022.1.3,Win32,60.0024001,62c50e9c1127f2cd403a315f,0,70,70,89,1,onethree,,,,,,,,,,,,,,,,,,,,,,,,,,,,,,,,,,,,,,,,,,,,,,,,,,,,,,,,,,,,,,,,,,,,,,,,,,,,,,,,,,,,,,,,,,,,,,,,,,,,,,,,,,,,,,,,,,,,,,,,,,,,,,,,,,,,,,,,,,,,,,,,,,,,,,,,,,,,,
,,,,,,5f806f22e8159d0913945e35,62c53a2d394159e382b487c9,2022-07-06_09h32.55.900,Colour_Asymmetry_Pilot,2022.1.3,Win32,60.0024001,62c50e9c1127f2cd403a315f,0,71,71,38,1,fourtwo,,,,,,,,,,,,,,,,,,,,,,,,,,,,,,,,,,,,,,,,,,,,,,,,,,,,,,,,,,,,,,,,,,,,,,,,,,,,,,,,,,,,,,,,,,,,,,,,,,,,,,,,,,,,,,,,,,,,,,,,,,,,,,,,,,,,,,,,,,,,,,,,,,,,,,,,,,,,,
,,,,,,5f806f22e8159d0913945e35,62c53a2d394159e382b487c9,2022-07-06_09h32.55.900,Colour_Asymmetry_Pilot,2022.1.3,Win32,60.0024001,62c50e9c1127f2cd403a315f,0,72,72,65,1,onethree,,,,,,,,,,,,,,,,,,,,,,,,,,,,,,,,,,,,,,,,,,,,,,,,,,,,,,,,,,,,,,,,,,,,,,,,,,,,,,,,,,,,,,,,,,,,,,,,,,,,,,,,,,,,,,,,,,,,,,,,,,,,,,,,,,,,,,,,,,,,,,,,,,,,,,,,,,,,,
,,,,,,5f806f22e8159d0913945e35,62c53a2d394159e382b487c9,2022-07-06_09h32.55.900,Colour_Asymmetry_Pilot,2022.1.3,Win32,60.0024001,62c50e9c1127f2cd403a315f,0,73,73,70,1,fourtwo,,,,,,,,,,,,,,,,,,,,,,,,,,,,,,,,,,,,,,,,,,,,,,,,,,,,,,,,,,,,,,,,,,,,,,,,,,,,,,,,,,,,,,,,,,,,,,,,,,,,,,,,,,,,,,,,,,,,,,,,,,,,,,,,,,,,,,,,,,,,,,,,,,,,,,,,,,,,,
,,,,,,5f806f22e8159d0913945e35,62c53a2d394159e382b487c9,2022-07-06_09h32.55.900,Colour_Asymmetry_Pilot,2022.1.3,Win32,60.0024001,62c50e9c1127f2cd403a315f,0,74,74,151,1,fourthree,,,,,,,,,,,,,,,,,,,,,,,,,,,,,,,,,,,,,,,,,,,,,,,,,,,,,,,,,,,,,,,,,,,,,,,,,,,,,,,,,,,,,,,,,,,,,,,,,,,,,,,,,,,,,,,,,,,,,,,,,,,,,,,,,,,,,,,,,,,,,,,,,,,,,,,,,,,,,
,,,,,,5f806f22e8159d0913945e35,62c53a2d394159e382b487c9,2022-07-06_09h32.55.900,Colour_Asymmetry_Pilot,2022.1.3,Win32,60.0024001,62c50e9c1127f2cd403a315f,0,75,75,101,1,threefour,,,,,,,,,,,,,,,,,,,,,,,,,,,,,,,,,,,,,,,,,,,,,,,,,,,,,,,,,,,,,,,,,,,,,,,,,,,,,,,,,,,,,,,,,,,,,,,,,,,,,,,,,,,,,,,,,,,,,,,,,,,,,,,,,,,,,,,,,,,,,,,,,,,,,,,,,,,,,
,,,,,,5f806f22e8159d0913945e35,62c53a2d394159e382b487c9,2022-07-06_09h32.55.900,Colour_Asymmetry_Pilot,2022.1.3,Win32,60.0024001,62c50e9c1127f2cd403a315f,0,76,76,130,1,twoone,,,,,,,,,,,,,,,,,,,,,,,,,,,,,,,,,,,,,,,,,,,,,,,,,,,,,,,,,,,,,,,,,,,,,,,,,,,,,,,,,,,,,,,,,,,,,,,,,,,,,,,,,,,,,,,,,,,,,,,,,,,,,,,,,,,,,,,,,,,,,,,,,,,,,,,,,,,,,
,,,,,,5f806f22e8159d0913945e35,62c53a2d394159e382b487c9,2022-07-06_09h32.55.900,Colour_Asymmetry_Pilot,2022.1.3,Win32,60.0024001,62c50e9c1127f2cd403a315f,0,77,77,117,1,threefour,,,,,,,,,,,,,,,,,,,,,,,,,,,,,,,,,,,,,,,,,,,,,,,,,,,,,,,,,,,,,,,,,,,,,,,,,,,,,,,,,,,,,,,,,,,,,,,,,,,,,,,,,,,,,,,,,,,,,,,,,,,,,,,,,,,,,,,,,,,,,,,,,,,,,,,,,,,,,
,,,,,,5f806f22e8159d0913945e35,62c53a2d394159e382b487c9,2022-07-06_09h32.55.900,Colour_Asymmetry_Pilot,2022.1.3,Win32,60.0024001,62c50e9c1127f2cd403a315f,0,78,78,154,1,twoone,,,,,,,,,,,,,,,,,,,,,,,,,,,,,,,,,,,,,,,,,,,,,,,,,,,,,,,,,,,,,,,,,,,,,,,,,,,,,,,,,,,,,,,,,,,,,,,,,,,,,,,,,,,,,,,,,,,,,,,,,,,,,,,,,,,,,,,,,,,,,,,,,,,,,,,,,,,,,
,,,,,,5f806f22e8159d0913945e35,62c53a2d394159e382b487c9,2022-07-06_09h32.55.900,Colour_Asymmetry_Pilot,2022.1.3,Win32,60.0024001,62c50e9c1127f2cd403a315f,0,79,79,97,1,onethree,,,,,,,,,,,,,,,,,,,,,,,,,,,,,,,,,,,,,,,,,,,,,,,,,,,,,,,,,,,,,,,,,,,,,,,,,,,,,,,,,,,,,,,,,,,,,,,,,,,,,,,,,,,,,,,,,,,,,,,,,,,,,,,,,,,,,,,,,,,,,,,,,,,,,,,,,,,,,
,,,,,,5f806f22e8159d0913945e35,62c53a2d394159e382b487c9,2022-07-06_09h32.55.900,Colour_Asymmetry_Pilot,2022.1.3,Win32,60.0024001,62c50e9c1127f2cd403a315f,0,80,80,34,1,twoone,,,,,,,,,,,,,,,,,,,,,,,,,,,,,,,,,,,,,,,,,,,,,,,,,,,,,,,,,,,,,,,,,,,,,,,,,,,,,,,,,,,,,,,,,,,,,,,,,,,,,,,,,,,,,,,,,,,,,,,,,,,,,,,,,,,,,,,,,,,,,,,,,,,,,,,,,,,,,
,,,,,,5f806f22e8159d0913945e35,62c53a2d394159e382b487c9,2022-07-06_09h32.55.900,Colour_Asymmetry_Pilot,2022.1.3,Win32,60.0024001,62c50e9c1127f2cd403a315f,0,81,81,41,1,onethree,,,,,,,,,,,,,,,,,,,,,,,,,,,,,,,,,,,,,,,,,,,,,,,,,,,,,,,,,,,,,,,,,,,,,,,,,,,,,,,,,,,,,,,,,,,,,,,,,,,,,,,,,,,,,,,,,,,,,,,,,,,,,,,,,,,,,,,,,,,,,,,,,,,,,,,,,,,,,
,,,,,,5f806f22e8159d0913945e35,62c53a2d394159e382b487c9,2022-07-06_09h32.55.900,Colour_Asymmetry_Pilot,2022.1.3,Win32,60.0024001,62c50e9c1127f2cd403a315f,0,82,82,26,1,twoone,,,,,,,,,,,,,,,,,,,,,,,,,,,,,,,,,,,,,,,,,,,,,,,,,,,,,,,,,,,,,,,,,,,,,,,,,,,,,,,,,,,,,,,,,,,,,,,,,,,,,,,,,,,,,,,,,,,,,,,,,,,,,,,,,,,,,,,,,,,,,,,,,,,,,,,,,,,,,
,,,,,,5f806f22e8159d0913945e35,62c53a2d394159e382b487c9,2022-07-06_09h32.55.900,Colour_Asymmetry_Pilot,2022.1.3,Win32,60.0024001,62c50e9c1127f2cd403a315f,0,83,83,43,1,twofour,,,,,,,,,,,,,,,,,,,,,,,,,,,,,,,,,,,,,,,,,,,,,,,,,,,,,,,,,,,,,,,,,,,,,,,,,,,,,,,,,,,,,,,,,,,,,,,,,,,,,,,,,,,,,,,,,,,,,,,,,,,,,,,,,,,,,,,,,,,,,,,,,,,,,,,,,,,,,
,,,,,,5f806f22e8159d0913945e35,62c53a2d394159e382b487c9,2022-07-06_09h32.55.900,Colour_Asymmetry_Pilot,2022.1.3,Win32,60.0024001,62c50e9c1127f2cd403a315f,0,84,84,68,1,threeone,,,,,,,,,,,,,,,,,,,,,,,,,,,,,,,,,,,,,,,,,,,,,,,,,,,,,,,,,,,,,,,,,,,,,,,,,,,,,,,,,,,,,,,,,,,,,,,,,,,,,,,,,,,,,,,,,,,,,,,,,,,,,,,,,,,,,,,,,,,,,,,,,,,,,,,,,,,,,
,,,,,,5f806f22e8159d0913945e35,62c53a2d394159e382b487c9,2022-07-06_09h32.55.900,Colour_Asymmetry_Pilot,2022.1.3,Win32,60.0024001,62c50e9c1127f2cd403a315f,0,85,85,88,1,onetwo,,,,,,,,,,,,,,,,,,,,,,,,,,,,,,,,,,,,,,,,,,,,,,,,,,,,,,,,,,,,,,,,,,,,,,,,,,,,,,,,,,,,,,,,,,,,,,,,,,,,,,,,,,,,,,,,,,,,,,,,,,,,,,,,,,,,,,,,,,,,,,,,,,,,,,,,,,,,,
,,,,,,5f806f22e8159d0913945e35,62c53a2d394159e382b487c9,2022-07-06_09h32.55.900,Colour_Asymmetry_Pilot,2022.1.3,Win32,60.0024001,62c50e9c1127f2cd403a315f,0,86,86,4,1,threeone,,,,,,,,,,,,,,,,,,,,,,,,,,,,,,,,,,,,,,,,,,,,,,,,,,,,,,,,,,,,,,,,,,,,,,,,,,,,,,,,,,,,,,,,,,,,,,,,,,,,,,,,,,,,,,,,,,,,,,,,,,,,,,,,,,,,,,,,,,,,,,,,,,,,,,,,,,,,,
,,,,,,5f806f22e8159d0913945e35,62c53a2d394159e382b487c9,2022-07-06_09h32.55.900,Colour_Asymmetry_Pilot,2022.1.3,Win32,60.0024001,62c50e9c1127f2cd403a315f,0,87,87,134,1,fourtwo,,,,,,,,,,,,,,,,,,,,,,,,,,,,,,,,,,,,,,,,,,,,,,,,,,,,,,,,,,,,,,,,,,,,,,,,,,,,,,,,,,,,,,,,,,,,,,,,,,,,,,,,,,,,,,,,,,,,,,,,,,,,,,,,,,,,,,,,,,,,,,,,,,,,,,,,,,,,,
,,,,,,5f806f22e8159d0913945e35,62c53a2d394159e382b487c9,2022-07-06_09h32.55.900,Colour_Asymmetry_Pilot,2022.1.3,Win32,60.0024001,62c50e9c1127f2cd403a315f,0,88,88,76,1,threeone,,,,,,,,,,,,,,,,,,,,,,,,,,,,,,,,,,,,,,,,,,,,,,,,,,,,,,,,,,,,,,,,,,,,,,,,,,,,,,,,,,,,,,,,,,,,,,,,,,,,,,,,,,,,,,,,,,,,,,,,,,,,,,,,,,,,,,,,,,,,,,,,,,,,,,,,,,,,,
,,,,,,5f806f22e8159d0913945e35,62c53a2d394159e382b487c9,2022-07-06_09h32.55.900,Colour_Asymmetry_Pilot,2022.1.3,Win32,60.0024001,62c50e9c1127f2cd403a315f,0,89,89,53,1,threefour,,,,,,,,,,,,,,,,,,,,,,,,,,,,,,,,,,,,,,,,,,,,,,,,,,,,,,,,,,,,,,,,,,,,,,,,,,,,,,,,,,,,,,,,,,,,,,,,,,,,,,,,,,,,,,,,,,,,,,,,,,,,,,,,,,,,,,,,,,,,,,,,,,,,,,,,,,,,,
,,,,,,5f806f22e8159d0913945e35,62c53a2d394159e382b487c9,2022-07-06_09h32.55.900,Colour_Asymmetry_Pilot,2022.1.3,Win32,60.0024001,62c50e9c1127f2cd403a315f,0,90,90,36,1,threeone,,,,,,,,,,,,,,,,,,,,,,,,,,,,,,,,,,,,,,,,,,,,,,,,,,,,,,,,,,,,,,,,,,,,,,,,,,,,,,,,,,,,,,,,,,,,,,,,,,,,,,,,,,,,,,,,,,,,,,,,,,,,,,,,,,,,,,,,,,,,,,,,,,,,,,,,,,,,,
,,,,,,5f806f22e8159d0913945e35,62c53a2d394159e382b487c9,2022-07-06_09h32.55.900,Colour_Asymmetry_Pilot,2022.1.3,Win32,60.0024001,62c50e9c1127f2cd403a315f,0,91,91,49,1,onethree,,,,,,,,,,,,,,,,,,,,,,,,,,,,,,,,,,,,,,,,,,,,,,,,,,,,,,,,,,,,,,,,,,,,,,,,,,,,,,,,,,,,,,,,,,,,,,,,,,,,,,,,,,,,,,,,,,,,,,,,,,,,,,,,,,,,,,,,,,,,,,,,,,,,,,,,,,,,,
,,,,,,5f806f22e8159d0913945e35,62c53a2d394159e382b487c9,2022-07-06_09h32.55.900,Colour_Asymmetry_Pilot,2022.1.3,Win32,60.0024001,62c50e9c1127f2cd403a315f,0,92,92,149,1,threefour,,,,,,,,,,,,,,,,,,,,,,,,,,,,,,,,,,,,,,,,,,,,,,,,,,,,,,,,,,,,,,,,,,,,,,,,,,,,,,,,,,,,,,,,,,,,,,,,,,,,,,,,,,,,,,,,,,,,,,,,,,,,,,,,,,,,,,,,,,,,,,,,,,,,,,,,,,,,,
,,,,,,5f806f22e8159d0913945e35,62c53a2d394159e382b487c9,2022-07-06_09h32.55.900,Colour_Asymmetry_Pilot,2022.1.3,Win32,60.0024001,62c50e9c1127f2cd403a315f,0,93,93,126,1,fourtwo,,,,,,,,,,,,,,,,,,,,,,,,,,,,,,,,,,,,,,,,,,,,,,,,,,,,,,,,,,,,,,,,,,,,,,,,,,,,,,,,,,,,,,,,,,,,,,,,,,,,,,,,,,,,,,,,,,,,,,,,,,,,,,,,,,,,,,,,,,,,,,,,,,,,,,,,,,,,,
,,,,,,5f806f22e8159d0913945e35,62c53a2d394159e382b487c9,2022-07-06_09h32.55.900,Colour_Asymmetry_Pilot,2022.1.3,Win32,60.0024001,62c50e9c1127f2cd403a315f,0,94,94,106,1,twoone,,,,,,,,,,,,,,,,,,,,,,,,,,,,,,,,,,,,,,,,,,,,,,,,,,,,,,,,,,,,,,,,,,,,,,,,,,,,,,,,,,,,,,,,,,,,,,,,,,,,,,,,,,,,,,,,,,,,,,,,,,,,,,,,,,,,,,,,,,,,,,,,,,,,,,,,,,,,,
,,,,,,5f806f22e8159d0913945e35,62c53a2d394159e382b487c9,2022-07-06_09h32.55.900,Colour_Asymmetry_Pilot,2022.1.3,Win32,60.0024001,62c50e9c1127f2cd403a315f,0,95,95,20,1,threeone,,,,,,,,,,,,,,,,,,,,,,,,,,,,,,,,,,,,,,,,,,,,,,,,,,,,,,,,,,,,,,,,,,,,,,,,,,,,,,,,,,,,,,,,,,,,,,,,,,,,,,,,,,,,,,,,,,,,,,,,,,,,,,,,,,,,,,,,,,,,,,,,,,,,,,,,,,,,,
,,,,,,5f806f22e8159d0913945e35,62c53a2d394159e382b487c9,2022-07-06_09h32.55.900,Colour_Asymmetry_Pilot,2022.1.3,Win32,60.0024001,62c50e9c1127f2cd403a315f,0,96,96,0,1,onetwo,,,,,,,,,,,,,,,,,,,,,,,,,,,,,,,,,,,,,,,,,,,,,,,,,,,,,,,,,,,,,,,,,,,,,,,,,,,,,,,,,,,,,,,,,,,,,,,,,,,,,,,,,,,,,,,,,,,,,,,,,,,,,,,,,,,,,,,,,,,,,,,,,,,,,,,,,,,,,
,,,,,,5f806f22e8159d0913945e35,62c53a2d394159e382b487c9,2022-07-06_09h32.55.900,Colour_Asymmetry_Pilot,2022.1.3,Win32,60.0024001,62c50e9c1127f2cd403a315f,0,97,97,112,1,onetwo,,,,,,,,,,,,,,,,,,,,,,,,,,,,,,,,,,,,,,,,,,,,,,,,,,,,,,,,,,,,,,,,,,,,,,,,,,,,,,,,,,,,,,,,,,,,,,,,,,,,,,,,,,,,,,,,,,,,,,,,,,,,,,,,,,,,,,,,,,,,,,,,,,,,,,,,,,,,,
,,,,,,5f806f22e8159d0913945e35,62c53a2d394159e382b487c9,2022-07-06_09h32.55.900,Colour_Asymmetry_Pilot,2022.1.3,Win32,60.0024001,62c50e9c1127f2cd403a315f,0,98,98,85,1,threefour,,,,,,,,,,,,,,,,,,,,,,,,,,,,,,,,,,,,,,,,,,,,,,,,,,,,,,,,,,,,,,,,,,,,,,,,,,,,,,,,,,,,,,,,,,,,,,,,,,,,,,,,,,,,,,,,,,,,,,,,,,,,,,,,,,,,,,,,,,,,,,,,,,,,,,,,,,,,,
,,,,,,5f806f22e8159d0913945e35,62c53a2d394159e382b487c9,2022-07-06_09h32.55.900,Colour_Asymmetry_Pilot,2022.1.3,Win32,60.0024001,62c50e9c1127f2cd403a315f,0,99,99,114,1,twoone,,,,,,,,,,,,,,,,,,,,,,,,,,,,,,,,,,,,,,,,,,,,,,,,,,,,,,,,,,,,,,,,,,,,,,,,,,,,,,,,,,,,,,,,,,,,,,,,,,,,,,,,,,,,,,,,,,,,,,,,,,,,,,,,,,,,,,,,,,,,,,,,,,,,,,,,,,,,,
,,,,,,5f806f22e8159d0913945e35,62c53a2d394159e382b487c9,2022-07-06_09h32.55.900,Colour_Asymmetry_Pilot,2022.1.3,Win32,60.0024001,62c50e9c1127f2cd403a315f,0,100,100,82,1,twoone,,,,,,,,,,,,,,,,,,,,,,,,,,,,,,,,,,,,,,,,,,,,,,,,,,,,,,,,,,,,,,,,,,,,,,,,,,,,,,,,,,,,,,,,,,,,,,,,,,,,,,,,,,,,,,,,,,,,,,,,,,,,,,,,,,,,,,,,,,,,,,,,,,,,,,,,,,,,,
,,,,,,5f806f22e8159d0913945e35,62c53a2d394159e382b487c9,2022-07-06_09h32.55.900,Colour_Asymmetry_Pilot,2022.1.3,Win32,60.0024001,62c50e9c1127f2cd403a315f,0,101,101,159,1,fourthree,,,,,,,,,,,,,,,,,,,,,,,,,,,,,,,,,,,,,,,,,,,,,,,,,,,,,,,,,,,,,,,,,,,,,,,,,,,,,,,,,,,,,,,,,,,,,,,,,,,,,,,,,,,,,,,,,,,,,,,,,,,,,,,,,,,,,,,,,,,,,,,,,,,,,,,,,,,,,
,,,,,,5f806f22e8159d0913945e35,62c53a2d394159e382b487c9,2022-07-06_09h32.55.900,Colour_Asymmetry_Pilot,2022.1.3,Win32,60.0024001,62c50e9c1127f2cd403a315f,0,102,102,91,1,twofour,,,,,,,,,,,,,,,,,,,,,,,,,,,,,,,,,,,,,,,,,,,,,,,,,,,,,,,,,,,,,,,,,,,,,,,,,,,,,,,,,,,,,,,,,,,,,,,,,,,,,,,,,,,,,,,,,,,,,,,,,,,,,,,,,,,,,,,,,,,,,,,,,,,,,,,,,,,,,
,,,,,,5f806f22e8159d0913945e35,62c53a2d394159e382b487c9,2022-07-06_09h32.55.900,Colour_Asymmetry_Pilot,2022.1.3,Win32,60.0024001,62c50e9c1127f2cd403a315f,0,103,103,3,1,twofour,,,,,,,,,,,,,,,,,,,,,,,,,,,,,,,,,,,,,,,,,,,,,,,,,,,,,,,,,,,,,,,,,,,,,,,,,,,,,,,,,,,,,,,,,,,,,,,,,,,,,,,,,,,,,,,,,,,,,,,,,,,,,,,,,,,,,,,,,,,,,,,,,,,,,,,,,,,,,
,,,,,,5f806f22e8159d0913945e35,62c53a2d394159e382b487c9,2022-07-06_09h32.55.900,Colour_Asymmetry_Pilot,2022.1.3,Win32,60.0024001,62c50e9c1127f2cd403a315f,0,104,104,100,1,threeone,,,,,,,,,,,,,,,,,,,,,,,,,,,,,,,,,,,,,,,,,,,,,,,,,,,,,,,,,,,,,,,,,,,,,,,,,,,,,,,,,,,,,,,,,,,,,,,,,,,,,,,,,,,,,,,,,,,,,,,,,,,,,,,,,,,,,,,,,,,,,,,,,,,,,,,,,,,,,
,,,,,,5f806f22e8159d0913945e35,62c53a2d394159e382b487c9,2022-07-06_09h32.55.900,Colour_Asymmetry_Pilot,2022.1.3,Win32,60.0024001,62c50e9c1127f2cd403a315f,0,105,105,73,1,onethree,,,,,,,,,,,,,,,,,,,,,,,,,,,,,,,,,,,,,,,,,,,,,,,,,,,,,,,,,,,,,,,,,,,,,,,,,,,,,,,,,,,,,,,,,,,,,,,,,,,,,,,,,,,,,,,,,,,,,,,,,,,,,,,,,,,,,,,,,,,,,,,,,,,,,,,,,,,,,
,,,,,,5f806f22e8159d0913945e35,62c53a2d394159e382b487c9,2022-07-06_09h32.55.900,Colour_Asymmetry_Pilot,2022.1.3,Win32,60.0024001,62c50e9c1127f2cd403a315f,0,106,106,140,1,threeone,,,,,,,,,,,,,,,,,,,,,,,,,,,,,,,,,,,,,,,,,,,,,,,,,,,,,,,,,,,,,,,,,,,,,,,,,,,,,,,,,,,,,,,,,,,,,,,,,,,,,,,,,,,,,,,,,,,,,,,,,,,,,,,,,,,,,,,,,,,,,,,,,,,,,,,,,,,,,
,,,,,,5f806f22e8159d0913945e35,62c53a2d394159e382b487c9,2022-07-06_09h32.55.900,Colour_Asymmetry_Pilot,2022.1.3,Win32,60.0024001,62c50e9c1127f2cd403a315f,0,107,107,90,1,twoone,,,,,,,,,,,,,,,,,,,,,,,,,,,,,,,,,,,,,,,,,,,,,,,,,,,,,,,,,,,,,,,,,,,,,,,,,,,,,,,,,,,,,,,,,,,,,,,,,,,,,,,,,,,,,,,,,,,,,,,,,,,,,,,,,,,,,,,,,,,,,,,,,,,,,,,,,,,,,
,,,,,,5f806f22e8159d0913945e35,62c53a2d394159e382b487c9,2022-07-06_09h32.55.900,Colour_Asymmetry_Pilot,2022.1.3,Win32,60.0024001,62c50e9c1127f2cd403a315f,0,108,108,135,1,fourthree,,,,,,,,,,,,,,,,,,,,,,,,,,,,,,,,,,,,,,,,,,,,,,,,,,,,,,,,,,,,,,,,,,,,,,,,,,,,,,,,,,,,,,,,,,,,,,,,,,,,,,,,,,,,,,,,,,,,,,,,,,,,,,,,,,,,,,,,,,,,,,,,,,,,,,,,,,,,,
,,,,,,5f806f22e8159d0913945e35,62c53a2d394159e382b487c9,2022-07-06_09h32.55.900,Colour_Asymmetry_Pilot,2022.1.3,Win32,60.0024001,62c50e9c1127f2cd403a315f,0,109,109,93,1,threefour,,,,,,,,,,,,,,,,,,,,,,,,,,,,,,,,,,,,,,,,,,,,,,,,,,,,,,,,,,,,,,,,,,,,,,,,,,,,,,,,,,,,,,,,,,,,,,,,,,,,,,,,,,,,,,,,,,,,,,,,,,,,,,,,,,,,,,,,,,,,,,,,,,,,,,,,,,,,,
,,,,,,5f806f22e8159d0913945e35,62c53a2d394159e382b487c9,2022-07-06_09h32.55.900,Colour_Asymmetry_Pilot,2022.1.3,Win32,60.0024001,62c50e9c1127f2cd403a315f,0,110,110,13,1,threefour,,,,,,,,,,,,,,,,,,,,,,,,,,,,,,,,,,,,,,,,,,,,,,,,,,,,,,,,,,,,,,,,,,,,,,,,,,,,,,,,,,,,,,,,,,,,,,,,,,,,,,,,,,,,,,,,,,,,,,,,,,,,,,,,,,,,,,,,,,,,,,,,,,,,,,,,,,,,,
,,,,,,5f806f22e8159d0913945e35,62c53a2d394159e382b487c9,2022-07-06_09h32.55.900,Colour_Asymmetry_Pilot,2022.1.3,Win32,60.0024001,62c50e9c1127f2cd403a315f,0,111,111,66,1,twoone,,,,,,,,,,,,,,,,,,,,,,,,,,,,,,,,,,,,,,,,,,,,,,,,,,,,,,,,,,,,,,,,,,,,,,,,,,,,,,,,,,,,,,,,,,,,,,,,,,,,,,,,,,,,,,,,,,,,,,,,,,,,,,,,,,,,,,,,,,,,,,,,,,,,,,,,,,,,,
,,,,,,5f806f22e8159d0913945e35,62c53a2d394159e382b487c9,2022-07-06_09h32.55.900,Colour_Asymmetry_Pilot,2022.1.3,Win32,60.0024001,62c50e9c1127f2cd403a315f,0,112,112,7,1,fourthree,,,,,,,,,,,,,,,,,,,,,,,,,,,,,,,,,,,,,,,,,,,,,,,,,,,,,,,,,,,,,,,,,,,,,,,,,,,,,,,,,,,,,,,,,,,,,,,,,,,,,,,,,,,,,,,,,,,,,,,,,,,,,,,,,,,,,,,,,,,,,,,,,,,,,,,,,,,,,
,,,,,,5f806f22e8159d0913945e35,62c53a2d394159e382b487c9,2022-07-06_09h32.55.900,Colour_Asymmetry_Pilot,2022.1.3,Win32,60.0024001,62c50e9c1127f2cd403a315f,0,113,113,115,1,twofour,,,,,,,,,,,,,,,,,,,,,,,,,,,,,,,,,,,,,,,,,,,,,,,,,,,,,,,,,,,,,,,,,,,,,,,,,,,,,,,,,,,,,,,,,,,,,,,,,,,,,,,,,,,,,,,,,,,,,,,,,,,,,,,,,,,,,,,,,,,,,,,,,,,,,,,,,,,,,
,,,,,,5f806f22e8159d0913945e35,62c53a2d394159e382b487c9,2022-07-06_09h32.55.900,Colour_Asymmetry_Pilot,2022.1.3,Win32,60.0024001,62c50e9c1127f2cd403a315f,0,114,114,80,1,onetwo,,,,,,,,,,,,,,,,,,,,,,,,,,,,,,,,,,,,,,,,,,,,,,,,,,,,,,,,,,,,,,,,,,,,,,,,,,,,,,,,,,,,,,,,,,,,,,,,,,,,,,,,,,,,,,,,,,,,,,,,,,,,,,,,,,,,,,,,,,,,,,,,,,,,,,,,,,,,,
,,,,,,5f806f22e8159d0913945e35,62c53a2d394159e382b487c9,2022-07-06_09h32.55.900,Colour_Asymmetry_Pilot,2022.1.3,Win32,60.0024001,62c50e9c1127f2cd403a315f,0,115,115,55,1,fourthree,,,,,,,,,,,,,,,,,,,,,,,,,,,,,,,,,,,,,,,,,,,,,,,,,,,,,,,,,,,,,,,,,,,,,,,,,,,,,,,,,,,,,,,,,,,,,,,,,,,,,,,,,,,,,,,,,,,,,,,,,,,,,,,,,,,,,,,,,,,,,,,,,,,,,,,,,,,,,
,,,,,,5f806f22e8159d0913945e35,62c53a2d394159e382b487c9,2022-07-06_09h32.55.900,Colour_Asymmetry_Pilot,2022.1.3,Win32,60.0024001,62c50e9c1127f2cd403a315f,0,116,116,61,1,threefour,,,,,,,,,,,,,,,,,,,,,,,,,,,,,,,,,,,,,,,,,,,,,,,,,,,,,,,,,,,,,,,,,,,,,,,,,,,,,,,,,,,,,,,,,,,,,,,,,,,,,,,,,,,,,,,,,,,,,,,,,,,,,,,,,,,,,,,,,,,,,,,,,,,,,,,,,,,,,
,,,,,,5f806f22e8159d0913945e35,62c53a2d394159e382b487c9,2022-07-06_09h32.55.900,Colour_Asymmetry_Pilot,2022.1.3,Win32,60.0024001,62c50e9c1127f2cd403a315f,0,117,117,86,1,fourtwo,,,,,,,,,,,,,,,,,,,,,,,,,,,,,,,,,,,,,,,,,,,,,,,,,,,,,,,,,,,,,,,,,,,,,,,,,,,,,,,,,,,,,,,,,,,,,,,,,,,,,,,,,,,,,,,,,,,,,,,,,,,,,,,,,,,,,,,,,,,,,,,,,,,,,,,,,,,,,
,,,,,,5f806f22e8159d0913945e35,62c53a2d394159e382b487c9,2022-07-06_09h32.55.900,Colour_Asymmetry_Pilot,2022.1.3,Win32,60.0024001,62c50e9c1127f2cd403a315f,0,118,118,54,1,fourtwo,,,,,,,,,,,,,,,,,,,,,,,,,,,,,,,,,,,,,,,,,,,,,,,,,,,,,,,,,,,,,,,,,,,,,,,,,,,,,,,,,,,,,,,,,,,,,,,,,,,,,,,,,,,,,,,,,,,,,,,,,,,,,,,,,,,,,,,,,,,,,,,,,,,,,,,,,,,,,
,,,,,,5f806f22e8159d0913945e35,62c53a2d394159e382b487c9,2022-07-06_09h32.55.900,Colour_Asymmetry_Pilot,2022.1.3,Win32,60.0024001,62c50e9c1127f2cd403a315f,0,119,119,48,1,onetwo,,,,,,,,,,,,,,,,,,,,,,,,,,,,,,,,,,,,,,,,,,,,,,,,,,,,,,,,,,,,,,,,,,,,,,,,,,,,,,,,,,,,,,,,,,,,,,,,,,,,,,,,,,,,,,,,,,,,,,,,,,,,,,,,,,,,,,,,,,,,,,,,,,,,,,,,,,,,,
,,,,,,5f806f22e8159d0913945e35,62c53a2d394159e382b487c9,2022-07-06_09h32.55.900,Colour_Asymmetry_Pilot,2022.1.3,Win32,60.0024001,62c50e9c1127f2cd403a315f,0,120,120,103,1,fourthree,,,,,,,,,,,,,,,,,,,,,,,,,,,,,,,,,,,,,,,,,,,,,,,,,,,,,,,,,,,,,,,,,,,,,,,,,,,,,,,,,,,,,,,,,,,,,,,,,,,,,,,,,,,,,,,,,,,,,,,,,,,,,,,,,,,,,,,,,,,,,,,,,,,,,,,,,,,,,
,,,,,,5f806f22e8159d0913945e35,62c53a2d394159e382b487c9,2022-07-06_09h32.55.900,Colour_Asymmetry_Pilot,2022.1.3,Win32,60.0024001,62c50e9c1127f2cd403a315f,0,121,121,99,1,twofour,,,,,,,,,,,,,,,,,,,,,,,,,,,,,,,,,,,,,,,,,,,,,,,,,,,,,,,,,,,,,,,,,,,,,,,,,,,,,,,,,,,,,,,,,,,,,,,,,,,,,,,,,,,,,,,,,,,,,,,,,,,,,,,,,,,,,,,,,,,,,,,,,,,,,,,,,,,,,
,,,,,,5f806f22e8159d0913945e35,62c53a2d394159e382b487c9,2022-07-06_09h32.55.900,Colour_Asymmetry_Pilot,2022.1.3,Win32,60.0024001,62c50e9c1127f2cd403a315f,0,122,122,123,1,twofour,,,,,,,,,,,,,,,,,,,,,,,,,,,,,,,,,,,,,,,,,,,,,,,,,,,,,,,,,,,,,,,,,,,,,,,,,,,,,,,,,,,,,,,,,,,,,,,,,,,,,,,,,,,,,,,,,,,,,,,,,,,,,,,,,,,,,,,,,,,,,,,,,,,,,,,,,,,,,
,,,,,,5f806f22e8159d0913945e35,62c53a2d394159e382b487c9,2022-07-06_09h32.55.900,Colour_Asymmetry_Pilot,2022.1.3,Win32,60.0024001,62c50e9c1127f2cd403a315f,0,123,123,23,1,fourthree,,,,,,,,,,,,,,,,,,,,,,,,,,,,,,,,,,,,,,,,,,,,,,,,,,,,,,,,,,,,,,,,,,,,,,,,,,,,,,,,,,,,,,,,,,,,,,,,,,,,,,,,,,,,,,,,,,,,,,,,,,,,,,,,,,,,,,,,,,,,,,,,,,,,,,,,,,,,,
,,,,,,5f806f22e8159d0913945e35,62c53a2d394159e382b487c9,2022-07-06_09h32.55.900,Colour_Asymmetry_Pilot,2022.1.3,Win32,60.0024001,62c50e9c1127f2cd403a315f,0,124,124,120,1,onetwo,,,,,,,,,,,,,,,,,,,,,,,,,,,,,,,,,,,,,,,,,,,,,,,,,,,,,,,,,,,,,,,,,,,,,,,,,,,,,,,,,,,,,,,,,,,,,,,,,,,,,,,,,,,,,,,,,,,,,,,,,,,,,,,,,,,,,,,,,,,,,,,,,,,,,,,,,,,,,
,,,,,,5f806f22e8159d0913945e35,62c53a2d394159e382b487c9,2022-07-06_09h32.55.900,Colour_Asymmetry_Pilot,2022.1.3,Win32,60.0024001,62c50e9c1127f2cd403a315f,0,125,125,105,1,onethree,,,,,,,,,,,,,,,,,,,,,,,,,,,,,,,,,,,,,,,,,,,,,,,,,,,,,,,,,,,,,,,,,,,,,,,,,,,,,,,,,,,,,,,,,,,,,,,,,,,,,,,,,,,,,,,,,,,,,,,,,,,,,,,,,,,,,,,,,,,,,,,,,,,,,,,,,,,,,
,,,,,,5f806f22e8159d0913945e35,62c53a2d394159e382b487c9,2022-07-06_09h32.55.900,Colour_Asymmetry_Pilot,2022.1.3,Win32,60.0024001,62c50e9c1127f2cd403a315f,0,126,126,145,1,onethree,,,,,,,,,,,,,,,,,,,,,,,,,,,,,,,,,,,,,,,,,,,,,,,,,,,,,,,,,,,,,,,,,,,,,,,,,,,,,,,,,,,,,,,,,,,,,,,,,,,,,,,,,,,,,,,,,,,,,,,,,,,,,,,,,,,,,,,,,,,,,,,,,,,,,,,,,,,,,
,,,,,,5f806f22e8159d0913945e35,62c53a2d394159e382b487c9,2022-07-06_09h32.55.900,Colour_Asymmetry_Pilot,2022.1.3,Win32,60.0024001,62c50e9c1127f2cd403a315f,0,127,127,128,1,onetwo,,,,,,,,,,,,,,,,,,,,,,,,,,,,,,,,,,,,,,,,,,,,,,,,,,,,,,,,,,,,,,,,,,,,,,,,,,,,,,,,,,,,,,,,,,,,,,,,,,,,,,,,,,,,,,,,,,,,,,,,,,,,,,,,,,,,,,,,,,,,,,,,,,,,,,,,,,,,,
,,,,,,5f806f22e8159d0913945e35,62c53a2d394159e382b487c9,2022-07-06_09h32.55.900,Colour_Asymmetry_Pilot,2022.1.3,Win32,60.0024001,62c50e9c1127f2cd403a315f,0,128,128,1,1,onethree,,,,,,,,,,,,,,,,,,,,,,,,,,,,,,,,,,,,,,,,,,,,,,,,,,,,,,,,,,,,,,,,,,,,,,,,,,,,,,,,,,,,,,,,,,,,,,,,,,,,,,,,,,,,,,,,,,,,,,,,,,,,,,,,,,,,,,,,,,,,,,,,,,,,,,,,,,,,,
,,,,,,5f806f22e8159d0913945e35,62c53a2d394159e382b487c9,2022-07-06_09h32.55.900,Colour_Asymmetry_Pilot,2022.1.3,Win32,60.0024001,62c50e9c1127f2cd403a315f,0,129,129,77,1,threefour,,,,,,,,,,,,,,,,,,,,,,,,,,,,,,,,,,,,,,,,,,,,,,,,,,,,,,,,,,,,,,,,,,,,,,,,,,,,,,,,,,,,,,,,,,,,,,,,,,,,,,,,,,,,,,,,,,,,,,,,,,,,,,,,,,,,,,,,,,,,,,,,,,,,,,,,,,,,,
,,,,,,5f806f22e8159d0913945e35,62c53a2d394159e382b487c9,2022-07-06_09h32.55.900,Colour_Asymmetry_Pilot,2022.1.3,Win32,60.0024001,62c50e9c1127f2cd403a315f,0,130,130,28,1,threeone,,,,,,,,,,,,,,,,,,,,,,,,,,,,,,,,,,,,,,,,,,,,,,,,,,,,,,,,,,,,,,,,,,,,,,,,,,,,,,,,,,,,,,,,,,,,,,,,,,,,,,,,,,,,,,,,,,,,,,,,,,,,,,,,,,,,,,,,,,,,,,,,,,,,,,,,,,,,,
,,,,,,5f806f22e8159d0913945e35,62c53a2d394159e382b487c9,2022-07-06_09h32.55.900,Colour_Asymmetry_Pilot,2022.1.3,Win32,60.0024001,62c50e9c1127f2cd403a315f,0,131,131,2,1,twoone,,,,,,,,,,,,,,,,,,,,,,,,,,,,,,,,,,,,,,,,,,,,,,,,,,,,,,,,,,,,,,,,,,,,,,,,,,,,,,,,,,,,,,,,,,,,,,,,,,,,,,,,,,,,,,,,,,,,,,,,,,,,,,,,,,,,,,,,,,,,,,,,,,,,,,,,,,,,,
,,,,,,5f806f22e8159d0913945e35,62c53a2d394159e382b487c9,2022-07-06_09h32.55.900,Colour_Asymmetry_Pilot,2022.1.3,Win32,60.0024001,62c50e9c1127f2cd403a315f,0,132,132,69,1,threefour,,,,,,,,,,,,,,,,,,,,,,,,,,,,,,,,,,,,,,,,,,,,,,,,,,,,,,,,,,,,,,,,,,,,,,,,,,,,,,,,,,,,,,,,,,,,,,,,,,,,,,,,,,,,,,,,,,,,,,,,,,,,,,,,,,,,,,,,,,,,,,,,,,,,,,,,,,,,,
,,,,,,5f806f22e8159d0913945e35,62c53a2d394159e382b487c9,2022-07-06_09h32.55.900,Colour_Asymmetry_Pilot,2022.1.3,Win32,60.0024001,62c50e9c1127f2cd403a315f,0,133,133,59,1,twofour,,,,,,,,,,,,,,,,,,,,,,,,,,,,,,,,,,,,,,,,,,,,,,,,,,,,,,,,,,,,,,,,,,,,,,,,,,,,,,,,,,,,,,,,,,,,,,,,,,,,,,,,,,,,,,,,,,,,,,,,,,,,,,,,,,,,,,,,,,,,,,,,,,,,,,,,,,,,,
,,,,,,5f806f22e8159d0913945e35,62c53a2d394159e382b487c9,2022-07-06_09h32.55.900,Colour_Asymmetry_Pilot,2022.1.3,Win32,60.0024001,62c50e9c1127f2cd403a315f,0,134,134,122,1,twoone,,,,,,,,,,,,,,,,,,,,,,,,,,,,,,,,,,,,,,,,,,,,,,,,,,,,,,,,,,,,,,,,,,,,,,,,,,,,,,,,,,,,,,,,,,,,,,,,,,,,,,,,,,,,,,,,,,,,,,,,,,,,,,,,,,,,,,,,,,,,,,,,,,,,,,,,,,,,,
,,,,,,5f806f22e8159d0913945e35,62c53a2d394159e382b487c9,2022-07-06_09h32.55.900,Colour_Asymmetry_Pilot,2022.1.3,Win32,60.0024001,62c50e9c1127f2cd403a315f,0,135,135,155,1,twofour,,,,,,,,,,,,,,,,,,,,,,,,,,,,,,,,,,,,,,,,,,,,,,,,,,,,,,,,,,,,,,,,,,,,,,,,,,,,,,,,,,,,,,,,,,,,,,,,,,,,,,,,,,,,,,,,,,,,,,,,,,,,,,,,,,,,,,,,,,,,,,,,,,,,,,,,,,,,,
,,,,,,5f806f22e8159d0913945e35,62c53a2d394159e382b487c9,2022-07-06_09h32.55.900,Colour_Asymmetry_Pilot,2022.1.3,Win32,60.0024001,62c50e9c1127f2cd403a315f,0,136,136,116,1,threeone,,,,,,,,,,,,,,,,,,,,,,,,,,,,,,,,,,,,,,,,,,,,,,,,,,,,,,,,,,,,,,,,,,,,,,,,,,,,,,,,,,,,,,,,,,,,,,,,,,,,,,,,,,,,,,,,,,,,,,,,,,,,,,,,,,,,,,,,,,,,,,,,,,,,,,,,,,,,,
,,,,,,5f806f22e8159d0913945e35,62c53a2d394159e382b487c9,2022-07-06_09h32.55.900,Colour_Asymmetry_Pilot,2022.1.3,Win32,60.0024001,62c50e9c1127f2cd403a315f,0,137,137,113,1,onethree,,,,,,,,,,,,,,,,,,,,,,,,,,,,,,,,,,,,,,,,,,,,,,,,,,,,,,,,,,,,,,,,,,,,,,,,,,,,,,,,,,,,,,,,,,,,,,,,,,,,,,,,,,,,,,,,,,,,,,,,,,,,,,,,,,,,,,,,,,,,,,,,,,,,,,,,,,,,,
,,,,,,5f806f22e8159d0913945e35,62c53a2d394159e382b487c9,2022-07-06_09h32.55.900,Colour_Asymmetry_Pilot,2022.1.3,Win32,60.0024001,62c50e9c1127f2cd403a315f,0,138,138,138,1,twoone,,,,,,,,,,,,,,,,,,,,,,,,,,,,,,,,,,,,,,,,,,,,,,,,,,,,,,,,,,,,,,,,,,,,,,,,,,,,,,,,,,,,,,,,,,,,,,,,,,,,,,,,,,,,,,,,,,,,,,,,,,,,,,,,,,,,,,,,,,,,,,,,,,,,,,,,,,,,,
,,,,,,5f806f22e8159d0913945e35,62c53a2d394159e382b487c9,2022-07-06_09h32.55.900,Colour_Asymmetry_Pilot,2022.1.3,Win32,60.0024001,62c50e9c1127f2cd403a315f,0,139,139,31,1,fourthree,,,,,,,,,,,,,,,,,,,,,,,,,,,,,,,,,,,,,,,,,,,,,,,,,,,,,,,,,,,,,,,,,,,,,,,,,,,,,,,,,,,,,,,,,,,,,,,,,,,,,,,,,,,,,,,,,,,,,,,,,,,,,,,,,,,,,,,,,,,,,,,,,,,,,,,,,,,,,
,,,,,,5f806f22e8159d0913945e35,62c53a2d394159e382b487c9,2022-07-06_09h32.55.900,Colour_Asymmetry_Pilot,2022.1.3,Win32,60.0024001,62c50e9c1127f2cd403a315f,0,140,140,157,1,threefour,,,,,,,,,,,,,,,,,,,,,,,,,,,,,,,,,,,,,,,,,,,,,,,,,,,,,,,,,,,,,,,,,,,,,,,,,,,,,,,,,,,,,,,,,,,,,,,,,,,,,,,,,,,,,,,,,,,,,,,,,,,,,,,,,,,,,,,,,,,,,,,,,,,,,,,,,,,,,
,,,,,,5f806f22e8159d0913945e35,62c53a2d394159e382b487c9,2022-07-06_09h32.55.900,Colour_Asymmetry_Pilot,2022.1.3,Win32,60.0024001,62c50e9c1127f2cd403a315f,0,141,141,45,1,threefour,,,,,,,,,,,,,,,,,,,,,,,,,,,,,,,,,,,,,,,,,,,,,,,,,,,,,,,,,,,,,,,,,,,,,,,,,,,,,,,,,,,,,,,,,,,,,,,,,,,,,,,,,,,,,,,,,,,,,,,,,,,,,,,,,,,,,,,,,,,,,,,,,,,,,,,,,,,,,
,,,,,,5f806f22e8159d0913945e35,62c53a2d394159e382b487c9,2022-07-06_09h32.55.900,Colour_Asymmetry_Pilot,2022.1.3,Win32,60.0024001,62c50e9c1127f2cd403a315f,0,142,142,24,1,onetwo,,,,,,,,,,,,,,,,,,,,,,,,,,,,,,,,,,,,,,,,,,,,,,,,,,,,,,,,,,,,,,,,,,,,,,,,,,,,,,,,,,,,,,,,,,,,,,,,,,,,,,,,,,,,,,,,,,,,,,,,,,,,,,,,,,,,,,,,,,,,,,,,,,,,,,,,,,,,,
,,,,,,5f806f22e8159d0913945e35,62c53a2d394159e382b487c9,2022-07-06_09h32.55.900,Colour_Asymmetry_Pilot,2022.1.3,Win32,60.0024001,62c50e9c1127f2cd403a315f,0,143,143,96,1,onetwo,,,,,,,,,,,,,,,,,,,,,,,,,,,,,,,,,,,,,,,,,,,,,,,,,,,,,,,,,,,,,,,,,,,,,,,,,,,,,,,,,,,,,,,,,,,,,,,,,,,,,,,,,,,,,,,,,,,,,,,,,,,,,,,,,,,,,,,,,,,,,,,,,,,,,,,,,,,,,
,,,,,,5f806f22e8159d0913945e35,62c53a2d394159e382b487c9,2022-07-06_09h32.55.900,Colour_Asymmetry_Pilot,2022.1.3,Win32,60.0024001,62c50e9c1127f2cd403a315f,0,144,144,67,1,twofour,,,,,,,,,,,,,,,,,,,,,,,,,,,,,,,,,,,,,,,,,,,,,,,,,,,,,,,,,,,,,,,,,,,,,,,,,,,,,,,,,,,,,,,,,,,,,,,,,,,,,,,,,,,,,,,,,,,,,,,,,,,,,,,,,,,,,,,,,,,,,,,,,,,,,,,,,,,,,
,,,,,,5f806f22e8159d0913945e35,62c53a2d394159e382b487c9,2022-07-06_09h32.55.900,Colour_Asymmetry_Pilot,2022.1.3,Win32,60.0024001,62c50e9c1127f2cd403a315f,0,145,145,146,1,twoone,,,,,,,,,,,,,,,,,,,,,,,,,,,,,,,,,,,,,,,,,,,,,,,,,,,,,,,,,,,,,,,,,,,,,,,,,,,,,,,,,,,,,,,,,,,,,,,,,,,,,,,,,,,,,,,,,,,,,,,,,,,,,,,,,,,,,,,,,,,,,,,,,,,,,,,,,,,,,
,,,,,,5f806f22e8159d0913945e35,62c53a2d394159e382b487c9,2022-07-06_09h32.55.900,Colour_Asymmetry_Pilot,2022.1.3,Win32,60.0024001,62c50e9c1127f2cd403a315f,0,146,146,10,1,twoone,,,,,,,,,,,,,,,,,,,,,,,,,,,,,,,,,,,,,,,,,,,,,,,,,,,,,,,,,,,,,,,,,,,,,,,,,,,,,,,,,,,,,,,,,,,,,,,,,,,,,,,,,,,,,,,,,,,,,,,,,,,,,,,,,,,,,,,,,,,,,,,,,,,,,,,,,,,,,
,,,,,,5f806f22e8159d0913945e35,62c53a2d394159e382b487c9,2022-07-06_09h32.55.900,Colour_Asymmetry_Pilot,2022.1.3,Win32,60.0024001,62c50e9c1127f2cd403a315f,0,147,147,124,1,threeone,,,,,,,,,,,,,,,,,,,,,,,,,,,,,,,,,,,,,,,,,,,,,,,,,,,,,,,,,,,,,,,,,,,,,,,,,,,,,,,,,,,,,,,,,,,,,,,,,,,,,,,,,,,,,,,,,,,,,,,,,,,,,,,,,,,,,,,,,,,,,,,,,,,,,,,,,,,,,
,,,,,,5f806f22e8159d0913945e35,62c53a2d394159e382b487c9,2022-07-06_09h32.55.900,Colour_Asymmetry_Pilot,2022.1.3,Win32,60.0024001,62c50e9c1127f2cd403a315f,0,148,148,21,1,threefour,,,,,,,,,,,,,,,,,,,,,,,,,,,,,,,,,,,,,,,,,,,,,,,,,,,,,,,,,,,,,,,,,,,,,,,,,,,,,,,,,,,,,,,,,,,,,,,,,,,,,,,,,,,,,,,,,,,,,,,,,,,,,,,,,,,,,,,,,,,,,,,,,,,,,,,,,,,,,
,,,,,,5f806f22e8159d0913945e35,62c53a2d394159e382b487c9,2022-07-06_09h32.55.900,Colour_Asymmetry_Pilot,2022.1.3,Win32,60.0024001,62c50e9c1127f2cd403a315f,0,149,149,74,1,twoone,,,,,,,,,,,,,,,,,,,,,,,,,,,,,,,,,,,,,,,,,,,,,,,,,,,,,,,,,,,,,,,,,,,,,,,,,,,,,,,,,,,,,,,,,,,,,,,,,,,,,,,,,,,,,,,,,,,,,,,,,,,,,,,,,,,,,,,,,,,,,,,,,,,,,,,,,,,,,
,,,,,,5f806f22e8159d0913945e35,62c53a2d394159e382b487c9,2022-07-06_09h32.55.900,Colour_Asymmetry_Pilot,2022.1.3,Win32,60.0024001,62c50e9c1127f2cd403a315f,0,150,150,111,1,fourthree,,,,,,,,,,,,,,,,,,,,,,,,,,,,,,,,,,,,,,,,,,,,,,,,,,,,,,,,,,,,,,,,,,,,,,,,,,,,,,,,,,,,,,,,,,,,,,,,,,,,,,,,,,,,,,,,,,,,,,,,,,,,,,,,,,,,,,,,,,,,,,,,,,,,,,,,,,,,,
,,,,,,5f806f22e8159d0913945e35,62c53a2d394159e382b487c9,2022-07-06_09h32.55.900,Colour_Asymmetry_Pilot,2022.1.3,Win32,60.0024001,62c50e9c1127f2cd403a315f,0,151,151,35,1,twofour,,,,,,,,,,,,,,,,,,,,,,,,,,,,,,,,,,,,,,,,,,,,,,,,,,,,,,,,,,,,,,,,,,,,,,,,,,,,,,,,,,,,,,,,,,,,,,,,,,,,,,,,,,,,,,,,,,,,,,,,,,,,,,,,,,,,,,,,,,,,,,,,,,,,,,,,,,,,,
,,,,,,5f806f22e8159d0913945e35,62c53a2d394159e382b487c9,2022-07-06_09h32.55.900,Colour_Asymmetry_Pilot,2022.1.3,Win32,60.0024001,62c50e9c1127f2cd403a315f,0,152,152,92,1,threeone,,,,,,,,,,,,,,,,,,,,,,,,,,,,,,,,,,,,,,,,,,,,,,,,,,,,,,,,,,,,,,,,,,,,,,,,,,,,,,,,,,,,,,,,,,,,,,,,,,,,,,,,,,,,,,,,,,,,,,,,,,,,,,,,,,,,,,,,,,,,,,,,,,,,,,,,,,,,,
,,,,,,5f806f22e8159d0913945e35,62c53a2d394159e382b487c9,2022-07-06_09h32.55.900,Colour_Asymmetry_Pilot,2022.1.3,Win32,60.0024001,62c50e9c1127f2cd403a315f,0,153,153,6,1,fourtwo,,,,,,,,,,,,,,,,,,,,,,,,,,,,,,,,,,,,,,,,,,,,,,,,,,,,,,,,,,,,,,,,,,,,,,,,,,,,,,,,,,,,,,,,,,,,,,,,,,,,,,,,,,,,,,,,,,,,,,,,,,,,,,,,,,,,,,,,,,,,,,,,,,,,,,,,,,,,,
,,,,,,5f806f22e8159d0913945e35,62c53a2d394159e382b487c9,2022-07-06_09h32.55.900,Colour_Asymmetry_Pilot,2022.1.3,Win32,60.0024001,62c50e9c1127f2cd403a315f,0,154,154,147,1,twofour,,,,,,,,,,,,,,,,,,,,,,,,,,,,,,,,,,,,,,,,,,,,,,,,,,,,,,,,,,,,,,,,,,,,,,,,,,,,,,,,,,,,,,,,,,,,,,,,,,,,,,,,,,,,,,,,,,,,,,,,,,,,,,,,,,,,,,,,,,,,,,,,,,,,,,,,,,,,,
,,,,,,5f806f22e8159d0913945e35,62c53a2d394159e382b487c9,2022-07-06_09h32.55.900,Colour_Asymmetry_Pilot,2022.1.3,Win32,60.0024001,62c50e9c1127f2cd403a315f,0,155,155,56,1,onetwo,,,,,,,,,,,,,,,,,,,,,,,,,,,,,,,,,,,,,,,,,,,,,,,,,,,,,,,,,,,,,,,,,,,,,,,,,,,,,,,,,,,,,,,,,,,,,,,,,,,,,,,,,,,,,,,,,,,,,,,,,,,,,,,,,,,,,,,,,,,,,,,,,,,,,,,,,,,,,
,,,,,,5f806f22e8159d0913945e35,62c53a2d394159e382b487c9,2022-07-06_09h32.55.900,Colour_Asymmetry_Pilot,2022.1.3,Win32,60.0024001,62c50e9c1127f2cd403a315f,0,156,156,133,1,threefour,,,,,,,,,,,,,,,,,,,,,,,,,,,,,,,,,,,,,,,,,,,,,,,,,,,,,,,,,,,,,,,,,,,,,,,,,,,,,,,,,,,,,,,,,,,,,,,,,,,,,,,,,,,,,,,,,,,,,,,,,,,,,,,,,,,,,,,,,,,,,,,,,,,,,,,,,,,,,
,,,,,,5f806f22e8159d0913945e35,62c53a2d394159e382b487c9,2022-07-06_09h32.55.900,Colour_Asymmetry_Pilot,2022.1.3,Win32,60.0024001,62c50e9c1127f2cd403a315f,0,157,157,98,1,twoone,,,,,,,,,,,,,,,,,,,,,,,,,,,,,,,,,,,,,,,,,,,,,,,,,,,,,,,,,,,,,,,,,,,,,,,,,,,,,,,,,,,,,,,,,,,,,,,,,,,,,,,,,,,,,,,,,,,,,,,,,,,,,,,,,,,,,,,,,,,,,,,,,,,,,,,,,,,,,
,,,,,,5f806f22e8159d0913945e35,62c53a2d394159e382b487c9,2022-07-06_09h32.55.900,Colour_Asymmetry_Pilot,2022.1.3,Win32,60.0024001,62c50e9c1127f2cd403a315f,0,158,158,17,1,onethree,,,,,,,,,,,,,,,,,,,,,,,,,,,,,,,,,,,,,,,,,,,,,,,,,,,,,,,,,,,,,,,,,,,,,,,,,,,,,,,,,,,,,,,,,,,,,,,,,,,,,,,,,,,,,,,,,,,,,,,,,,,,,,,,,,,,,,,,,,,,,,,,,,,,,,,,,,,,,
,,,,,,5f806f22e8159d0913945e35,62c53a2d394159e382b487c9,2022-07-06_09h32.55.900,Colour_Asymmetry_Pilot,2022.1.3,Win32,60.0024001,62c50e9c1127f2cd403a315f,0,159,159,110,1,fourtwo,,,,,,,,,,,,,,,,,,,,,,,,,,,,,,,,,,,,,,,,,,,,,,,,,,,,,,,,,,,,,,,,,,,,,,,,,,,,,,,,,,,,,,,,,,,,,,,,,,,,,,,,,,,,,,,,,,,,,,,,,,,,,,,,,,,,,,,,,,,,,,,,,,,,,,,,,,,,,
,,,,,,5f806f22e8159d0913945e35,62c53a2d394159e382b487c9,2022-07-06_09h32.55.900,Colour_Asymmetry_Pilot,2022.1.3,Win32,60.0024001,62c50e9c1127f2cd403a315f,0,160,160,52,1,threeone,,,,,,,,,,,,,,,,,,,,,,,,,,,,,,,,,,,,,,,,,,,,,,,,,,,,,,,,,,,,,,,,,,,,,,,,,,,,,,,,,,,,,,,,,,,,,,,,,,,,,,,,,,,,,,,,,,,,,,,,,,,,,,,,,,,,,,,,,,,,,,,,,,,,,,,,,,,,,
,,,,,,5f806f22e8159d0913945e35,62c53a2d394159e382b487c9,2022-07-06_09h32.55.900,Colour_Asymmetry_Pilot,2022.1.3,Win32,60.0024001,62c50e9c1127f2cd403a315f,0,161,161,5,1,threefour,,,,,,,,,,,,,,,,,,,,,,,,,,,,,,,,,,,,,,,,,,,,,,,,,,,,,,,,,,,,,,,,,,,,,,,,,,,,,,,,,,,,,,,,,,,,,,,,,,,,,,,,,,,,,,,,,,,,,,,,,,,,,,,,,,,,,,,,,,,,,,,,,,,,,,,,,,,,,
,,,,,,5f806f22e8159d0913945e35,62c53a2d394159e382b487c9,2022-07-06_09h32.55.900,Colour_Asymmetry_Pilot,2022.1.3,Win32,60.0024001,62c50e9c1127f2cd403a315f,,,,,,,space,3.0267,space,16.7211,space,26.5459,space,6.3237,space,3.1322,space,17.6131,"[0.9372,0.9450000000000001,0.8980000000000001]",onethree,"[0.9686000000000001,0.5763999999999998,0.11359999999999992]",3,19.3404,136,47,1,0,0,response1disk_5,-9,-11,1,0,0,rectangle_8,-9,-11,1,0,0,1,-9,-11,1,0,0,0,0,0,0,1,,,,,,,,,,,,,,,,,,,,,,,,,,,,,,,,,,,,,,,,,,,,,,,,,,,,,,,,,,,,,,,,,,,,,,,,,,,,,,,,,,,,,,,,,,,,,,,,,,,,,,,,,,,,,,,,
,,,,,,5f806f22e8159d0913945e35,62c53a2d394159e382b487c9,2022-07-06_09h32.55.900,Colour_Asymmetry_Pilot,2022.1.3,Win32,60.0024001,62c50e9c1127f2cd403a315f,,,,,,,,,,,,,,,,,,,"[0.9763999999999999,0.30979999999999985,-0.6786]",twofour,"[-0.48240000000000005,0.3175999999999999,0.2156]",-3,6.6271,-103,34,1,0,0,response7disk_5,4,-2,1,0,0,rectangle_8,49,-114,1,0,0,1,-9,6,1,0,0,1,0,1,0,1,response3disk_7,4,rectangle_4,,,,,,,,,,,,,,,,,,,,,,,,,,,,,,,,,,,,,,,,,,,,,,,,,,,,,,,,,,,,,,,,,,,,,,,,,,,,,,,,,,,,,,,,,,,,,,,,,,,,,,,,,,,,,
,,,,,,5f806f22e8159d0913945e35,62c53a2d394159e382b487c9,2022-07-06_09h32.55.900,Colour_Asymmetry_Pilot,2022.1.3,Win32,60.0024001,62c50e9c1127f2cd403a315f,,,,,,,,,,,,,,,,,,,"[0.3568,-0.20799999999999996,-0.9844]",twoone,"[-0.9216,-0.5529999999999999,-0.3962]",2,4.2754,124,-49,1,0,0,response3disk_5,-8,2,1,0,0,rectangle_8,-8,2,1,0,0,1,-8,2,1,0,0,2,0,2,0,1,,,,,,,,,,,,,,,,,,,,,,,,,,,,,,,,,,,,,,,,,,,,,,,,,,,,,,,,,,,,,,,,,,,,,,,,,,,,,,,,,,,,,,,,,,,,,,,,,,,,,,,,,,,,,,,,
,,,,,,5f806f22e8159d0913945e35,62c53a2d394159e382b487c9,2022-07-06_09h32.55.900,Colour_Asymmetry_Pilot,2022.1.3,Win32,60.0024001,62c50e9c1127f2cd403a315f,,,,,,,,,,,,,,,,,,,"[0.34099999999999997,0.5841999999999998,-0.9844]",onethree,"[0.19199999999999995,0.18419999999999992,0.5136000000000001]",2,5.3313,139,-44,1,0,0,response3disk_5,8,-5,1,0,0,rectangle_8,8,-5,1,0,0,1,8,-5,1,0,0,3,0,3,0,1,,,,,,,,,,,,,,,,,,,,,,,,,,,,,,,,,,,,,,,,,,,,,,,,,,,,,,,,,,,,,,,,,,,,,,,,,,,,,,,,,,,,,,,,,,,,,,,,,,,,,,,,,,,,,,,,
,,,,,,5f806f22e8159d0913945e35,62c53a2d394159e382b487c9,2022-07-06_09h32.55.900,Colour_Asymmetry_Pilot,2022.1.3,Win32,60.0024001,62c50e9c1127f2cd403a315f,,,,,,,,,,,,,,,,,,,"[0.9372,0.20779999999999998,0.2704]",threeone,"[0.12939999999999996,-0.2864,0.3253999999999999]",3,4.2503,107,45,1,0,0,response1disk_5,4,-9,1,0,0,rectangle_8,46,-126,1,0,0,1,6,-1,1,0,0,4,0,4,0,1,response3disk_7,4,rectangle_4,,,,,,,,,,,,,,,,,,,,,,,,,,,,,,,,,,,,,,,,,,,,,,,,,,,,,,,,,,,,,,,,,,,,,,,,,,,,,,,,,,,,,,,,,,,,,,,,,,,,,,,,,,,,,
,,,,,,5f806f22e8159d0913945e35,62c53a2d394159e382b487c9,2022-07-06_09h32.55.900,Colour_Asymmetry_Pilot,2022.1.3,Win32,60.0024001,62c50e9c1127f2cd403a315f,,,,,,,,,,,,,,,,,,,"[-0.050999999999999934,-0.6706000000000001,-0.804]",fourtwo,"[0.6547999999999998,-0.043199999999999905,-0.011800000000000033]",2,3.4774,129,-67,1,0,0,response3disk_5,-4,0,1,0,0,rectangle_8,-4,0,1,0,0,1,-4,0,1,0,0,5,0,5,0,1,,,,,,,,,,,,,,,,,,,,,,,,,,,,,,,,,,,,,,,,,,,,,,,,,,,,,,,,,,,,,,,,,,,,,,,,,,,,,,,,,,,,,,,,,,,,,,,,,,,,,,,,,,,,,,,,
,,,,,,5f806f22e8159d0913945e35,62c53a2d394159e382b487c9,2022-07-06_09h32.55.900,Colour_Asymmetry_Pilot,2022.1.3,Win32,60.0024001,62c50e9c1127f2cd403a315f,,,,,,,,,,,,,,,,,,,"[1,0.12939999999999996,-1]",onetwo,"[0.9213999999999998,0.6391999999999998,-0.9922]",3,2.2005,118,37,1,0,0,response1disk_5,-8,-16,1,0,0,rectangle_8,-8,-16,1,0,0,1,-8,-16,1,0,0,6,0,6,0,1,,,,,,,,,,,,,,,,,,,,,,,,,,,,,,,,,,,,,,,,,,,,,,,,,,,,,,,,,,,,,,,,,,,,,,,,,,,,,,,,,,,,,,,,,,,,,,,,,,,,,,,,,,,,,,,,
,,,,,,5f806f22e8159d0913945e35,62c53a2d394159e382b487c9,2022-07-06_09h32.55.900,Colour_Asymmetry_Pilot,2022.1.3,Win32,60.0024001,62c50e9c1127f2cd403a315f,,,,,,,,,,,,,,,,,,,,twofour,,-3,3.7508,,,,,,,,,,,,,,,,,,,,,,,,,,,,,,,,space,5.0096,"[0.19199999999999995,0.18419999999999992,0.5136000000000001]","[-0.050999999999999934,-0.6706000000000001,-0.804]",-107,53,1,0,0,response7disk,-20,-4,1,0,0,rectangle,-20,-4,1,0,0,,2,0.0009,0,-20,-4,1,0,0,0,0,0,46,1,46,first,,,,,,,,,,,,,,,,,,,,,,,,,,,,,,,,,,,,,,,,,,,,,,,,,,,,,,,,,,,,,,,,,,,,,,,,
,,,,,,5f806f22e8159d0913945e35,62c53a2d394159e382b487c9,2022-07-06_09h32.55.900,Colour_Asymmetry_Pilot,2022.1.3,Win32,60.0024001,62c50e9c1127f2cd403a315f,,,,,,,,,,,,,,,,,,,,twofour,,4,2.3027,,,,,,,,,,,,,,,,,,,,,,,,,,,,,,,,,,"[-0.5452,-0.608,0.2470000000000001]","[-0.9766,-0.34920000000000007,0.2156]",35,128,1,0,0,response1disk,-14,2,1,0,0,rectangle,-14,2,1,0,0,,3,0.0005,0,-14,2,1,0,0,0,1,1,43,1,43,first,,,,,,,,,,,,,,,,,,,,,,,,,,,,,,,,,,,,,,,,,,,,,,,,,,,,,,,,,,,,,,,,,,,,,,,,
,,,,,,5f806f22e8159d0913945e35,62c53a2d394159e382b487c9,2022-07-06_09h32.55.900,Colour_Asymmetry_Pilot,2022.1.3,Win32,60.0024001,62c50e9c1127f2cd403a315f,,,,,,,,,,,,,,,,,,,,twofour,,-3,4.1654,,,,,,,,,,,,,,,,,,,,,,,,,,,,,,,,,,"[-0.07459999999999989,0.12139999999999995,-0.9922]","[0.8274000000000001,-0.5844,-0.9452]",-123,45,1,0,0,response7disk,1,11,1,0,0,rectangle,1,11,1,0,0,,2,0.0004,0,1,11,1,0,0,0,2,2,33,1,33,first,,,,,,,,,,,,,,,,,,,,,,,,,,,,,,,,,,,,,,,,,,,,,,,,,,,,,,,,,,,,,,,,,,,,,,,,
,,,,,,5f806f22e8159d0913945e35,62c53a2d394159e382b487c9,2022-07-06_09h32.55.900,Colour_Asymmetry_Pilot,2022.1.3,Win32,60.0024001,62c50e9c1127f2cd403a315f,,,,,,,,,,,,,,,,,,,,fourtwo,,2,1.5758,,,,,,,,,,,,,,,,,,,,,,,,,,,,,,,,,,"[-0.6,0.16860000000000008,0.44300000000000006]","[-0.9766,-0.6472,0.07440000000000002]",112,-46,1,0,0,response3disk,-7,-1,1,0,0,rectangle,-7,-1,1,0,0,,2,0,0,-7,-1,1,0,0,0,3,3,133,1,52,second,,,,,,,,,,,,,,,,,,,,,,,,,,,,,,,,,,,,,,,,,,,,,,,,,,,,,,,,,,,,,,,,,,,,,,,,
,,,,,,5f806f22e8159d0913945e35,62c53a2d394159e382b487c9,2022-07-06_09h32.55.900,Colour_Asymmetry_Pilot,2022.1.3,Win32,60.0024001,62c50e9c1127f2cd403a315f,,,,,,,,,,,,,,,,,,,,fourthree,,-3,2.7961,,,,,,,,,,,,,,,,,,,,,,,,,,,,,,,,,,"[0.2784,-0.31000000000000005,-0.5452]","[-0.9766,-0.34920000000000007,0.2156]",-130,46,1,0,0,response7disk,11,-4,1,0,0,rectangle,11,-4,1,0,0,,3,0.0005,0,11,-4,1,0,0,0,4,4,74,1,74,first,,,,,,,,,,,,,,,,,,,,,,,,,,,,,,,,,,,,,,,,,,,,,,,,,,,,,,,,,,,,,,,,,,,,,,,,
,,,,,,5f806f22e8159d0913945e35,62c53a2d394159e382b487c9,2022-07-06_09h32.55.900,Colour_Asymmetry_Pilot,2022.1.3,Win32,60.0024001,62c50e9c1127f2cd403a315f,,,,,,,,,,,,,,,,,,,,fourtwo,,1,2.9787,,,,,,,,,,,,,,,,,,,,,,,,,,,,,,,,,,"[-0.8118,-0.8198,-0.5452]","[-0.30200000000000005,0.14500000000000002,0.2784]",35,-105,1,0,0,response3disk,1,-2,1,0,0,rectangle,1,-2,1,0,0,,3,0.0001,0,1,-2,1,0,0,0,5,5,130,1,49,second,,,,,,,,,,,,,,,,,,,,,,,,,,,,,,,,,,,,,,,,,,,,,,,,,,,,,,,,,,,,,,,,,,,,,,,,
,,,,,,5f806f22e8159d0913945e35,62c53a2d394159e382b487c9,2022-07-06_09h32.55.900,Colour_Asymmetry_Pilot,2022.1.3,Win32,60.0024001,62c50e9c1127f2cd403a315f,,,,,,,,,,,,,,,,,,,,twofour,,3,2.6154,,,,,,,,,,,,,,,,,,,,,,,,,,,,,,,,,,"[0.19199999999999995,0.18419999999999992,0.5136000000000001]","[0.12939999999999996,-0.2864,0.3253999999999999]",123,58,1,0,0,response1disk,13,0,1,0,0,rectangle,13,0,1,0,0,,3,0.0001,0,13,0,1,0,0,0,6,6,19,1,19,first,,,,,,,,,,,,,,,,,,,,,,,,,,,,,,,,,,,,,,,,,,,,,,,,,,,,,,,,,,,,,,,,,,,,,,,,
,,,,,,5f806f22e8159d0913945e35,62c53a2d394159e382b487c9,2022-07-06_09h32.55.900,Colour_Asymmetry_Pilot,2022.1.3,Win32,60.0024001,62c50e9c1127f2cd403a315f,,,,,,,,,,,,,,,,,,,,fourtwo,,-4,5.099,,,,,,,,,,,,,,,,,,,,,,,,,,,,,,,,,,"[-0.9296,-0.12959999999999994,-0.043199999999999905]","[0.9763999999999999,-0.1137999999999999,-0.6314]",-73,109,1,0,0,response7disk,4,3,1,0,0,rectangle,4,3,1,0,0,,3,0,0,4,3,1,0,0,0,7,7,95,1,14,second,,,,,,,,,,,,,,,,,,,,,,,,,,,,,,,,,,,,,,,,,,,,,,,,,,,,,,,,,,,,,,,,,,,,,,,,
,,,,,,5f806f22e8159d0913945e35,62c53a2d394159e382b487c9,2022-07-06_09h32.55.900,Colour_Asymmetry_Pilot,2022.1.3,Win32,60.0024001,62c50e9c1127f2cd403a315f,,,,,,,,,,,,,,,,,,,,twoone,,3,1.5185,,,,,,,,,,,,,,,,,,,,,,,,,,,,,,,,,,"[0.12939999999999996,-0.2864,0.3253999999999999]","[-0.26280000000000003,-0.4746,-0.2158]",111,55,1,0,0,response1disk,19,6,1,0,0,rectangle,19,6,1,0,0,,3,0.0002,0,19,6,1,0,0,0,8,8,117,1,36,second,,,,,,,,,,,,,,,,,,,,,,,,,,,,,,,,,,,,,,,,,,,,,,,,,,,,,,,,,,,,,,,,,,,,,,,,
,,,,,,5f806f22e8159d0913945e35,62c53a2d394159e382b487c9,2022-07-06_09h32.55.900,Colour_Asymmetry_Pilot,2022.1.3,Win32,60.0024001,62c50e9c1127f2cd403a315f,,,,,,,,,,,,,,,,,,,,onetwo,,4,1.0716,,,,,,,,,,,,,,,,,,,,,,,,,,,,,,,,,,"[-0.10599999999999998,-0.15300000000000002,0.15280000000000005]","[-0.26280000000000003,-0.4746,-0.2158]",55,110,1,0,0,response1disk,6,-1,1,0,0,rectangle,6,-1,1,0,0,,2,0.0005,0,6,-1,1,0,0,0,9,9,92,1,11,second,,,,,,,,,,,,,,,,,,,,,,,,,,,,,,,,,,,,,,,,,,,,,,,,,,,,,,,,,,,,,,,,,,,,,,,,
,,,,,,5f806f22e8159d0913945e35,62c53a2d394159e382b487c9,2022-07-06_09h32.55.900,Colour_Asymmetry_Pilot,2022.1.3,Win32,60.0024001,62c50e9c1127f2cd403a315f,,,,,,,,,,,,,,,,,,,,threeone,,-3,2.2679,,,,,,,,,,,,,,,,,,,,,,,,,,,,,,,,,,"[-0.9688,-0.38039999999999996,-0.41979999999999995]","[-0.2942,-0.7648,-0.7492000000000001]",-115,57,1,0,0,response7disk,-1,4,1,0,0,rectangle,-1,4,1,0,0,,2,0.0001,0,-1,4,1,0,0,0,10,10,12,1,12,first,,,,,,,,,,,,,,,,,,,,,,,,,,,,,,,,,,,,,,,,,,,,,,,,,,,,,,,,,,,,,,,,,,,,,,,,
,,,,,,5f806f22e8159d0913945e35,62c53a2d394159e382b487c9,2022-07-06_09h32.55.900,Colour_Asymmetry_Pilot,2022.1.3,Win32,60.0024001,62c50e9c1127f2cd403a315f,,,,,,,,,,,,,,,,,,,,onetwo,,-4,1.2639,,,,,,,,,,,,,,,,,,,,,,,,,,,,,,,,,,"[0.9372,0.20779999999999998,0.2704]","[-0.4746,-0.0354000000000001,0.5449999999999999]",-70,104,1,0,0,response7disk,-3,6,1,0,0,rectangle,-3,6,1,0,0,,2,0.0001,0,-3,6,1,0,0,0,11,11,39,1,39,first,,,,,,,,,,,,,,,,,,,,,,,,,,,,,,,,,,,,,,,,,,,,,,,,,,,,,,,,,,,,,,,,,,,,,,,,
,,,,,,5f806f22e8159d0913945e35,62c53a2d394159e382b487c9,2022-07-06_09h32.55.900,Colour_Asymmetry_Pilot,2022.1.3,Win32,60.0024001,62c50e9c1127f2cd403a315f,,,,,,,,,,,,,,,,,,,,threefour,,2,5.3985,,,,,,,,,,,,,,,,,,,,,,,,,,,,,,,,,,"[-0.2942,-0.24719999999999998,-0.357]","[0.09799999999999986,-0.24719999999999998,0.15280000000000005]",100,-70,1,0,0,response3disk,6,-10,1,0,0,rectangle,6,-10,1,0,0,,1,0.0004,0,6,-10,1,0,0,0,12,12,113,1,32,second,,,,,,,,,,,,,,,,,,,,,,,,,,,,,,,,,,,,,,,,,,,,,,,,,,,,,,,,,,,,,,,,,,,,,,,,
,,,,,,5f806f22e8159d0913945e35,62c53a2d394159e382b487c9,2022-07-06_09h32.55.900,Colour_Asymmetry_Pilot,2022.1.3,Win32,60.0024001,62c50e9c1127f2cd403a315f,,,,,,,,,,,,,,,,,,,,fourtwo,,-4,1.5194,,,,,,,,,,,,,,,,,,,,,,,,,,,,,,,,,,"[0.9686000000000001,0.3802000000000001,0.19999999999999996]","[-0.9766,-0.6472,0.07440000000000002]",-47,86,1,0,0,response7disk,-2,-5,1,0,0,rectangle,-2,-5,1,0,0,,2,0.0012,0,-2,-5,1,0,0,0,13,13,41,1,41,first,,,,,,,,,,,,,,,,,,,,,,,,,,,,,,,,,,,,,,,,,,,,,,,,,,,,,,,,,,,,,,,,,,,,,,,,
,,,,,,5f806f22e8159d0913945e35,62c53a2d394159e382b487c9,2022-07-06_09h32.55.900,Colour_Asymmetry_Pilot,2022.1.3,Win32,60.0024001,62c50e9c1127f2cd403a315f,,,,,,,,,,,,,,,,,,,,fourthree,,2,3.7392,,,,,,,,,,,,,,,,,,,,,,,,,,,,,,,,,,"[0.9763999999999999,-0.1137999999999999,-0.6314]","[0.9686000000000001,0.3802000000000001,0.19999999999999996]",89,-37,1,0,0,response3disk,-2,2,1,0,0,rectangle,-2,2,1,0,0,,1,0.0005,0,-2,2,1,0,0,0,14,14,126,1,45,second,,,,,,,,,,,,,,,,,,,,,,,,,,,,,,,,,,,,,,,,,,,,,,,,,,,,,,,,,,,,,,,,,,,,,,,,
,,,,,,5f806f22e8159d0913945e35,62c53a2d394159e382b487c9,2022-07-06_09h32.55.900,Colour_Asymmetry_Pilot,2022.1.3,Win32,60.0024001,62c50e9c1127f2cd403a315f,,,,,,,,,,,,,,,,,,,,onetwo,,-3,3.028,,,,,,,,,,,,,,,,,,,,,,,,,,,,,,,,,,"[-0.45899999999999996,-0.3256,-0.9374]","[-0.6942,-0.7648,-0.12959999999999994]",-98,58,1,0,0,response7disk,-10,-4,1,0,0,rectangle,-10,-4,1,0,0,,1,0.0002,0,-10,-4,1,0,0,0,15,15,61,1,61,first,,,,,,,,,,,,,,,,,,,,,,,,,,,,,,,,,,,,,,,,,,,,,,,,,,,,,,,,,,,,,,,,,,,,,,,,
,,,,,,5f806f22e8159d0913945e35,62c53a2d394159e382b487c9,2022-07-06_09h32.55.900,Colour_Asymmetry_Pilot,2022.1.3,Win32,60.0024001,62c50e9c1127f2cd403a315f,,,,,,,,,,,,,,,,,,,,onethree,,4,3.6601,,,,,,,,,,,,,,,,,,,,,,,,,,,,,,,,,,"[-0.10599999999999998,-0.10599999999999998,0.5841999999999998]","[-0.4746,-0.0354000000000001,0.5449999999999999]",63,88,1,0,0,response1disk,-6,2,1,0,0,rectangle,-6,2,1,0,0,,2,0.0004,0,-6,2,1,0,0,0,16,16,91,1,10,second,,,,,,,,,,,,,,,,,,,,,,,,,,,,,,,,,,,,,,,,,,,,,,,,,,,,,,,,,,,,,,,,,,,,,,,,
,,,,,,5f806f22e8159d0913945e35,62c53a2d394159e382b487c9,2022-07-06_09h32.55.900,Colour_Asymmetry_Pilot,2022.1.3,Win32,60.0024001,62c50e9c1127f2cd403a315f,,,,,,,,,,,,,,,,,,,,onethree,,-3,1.253,,,,,,,,,,,,,,,,,,,,,,,,,,,,,,,,,,"[-0.45899999999999996,-0.3256,-0.9374]","[-0.9688,-0.4902000000000001,-0.12159999999999993]",-102,46,1,0,0,response7disk,-13,10,1,0,0,rectangle,-13,10,1,0,0,,3,0.0004,0,-13,10,1,0,0,0,17,17,2,1,2,first,,,,,,,,,,,,,,,,,,,,,,,,,,,,,,,,,,,,,,,,,,,,,,,,,,,,,,,,,,,,,,,,,,,,,,,,
